participant,date,expName,psychopyVersion,OS,frameRate,browser,xResolution,yResolution,key_resp.keys,key_resp.rt,training_resp.keys,training_resp.rt,points_trial,points_cumul,trainBlock,training.thisRepN,training.thisTrialN,training.thisN,training.thisIndex,training.ran,LTriangleOpac,LCircleOpac,LHexagonOpac,LStarOpac,RTriangleOpac,RCircleOpac,RHexagonOpac,RStarOpac,LShape_ID,RShape_ID,curr_topStim,curr_bottStim,curr_shape,acc,E1,target_resp_prac1.keys,pracBlock,task1_prac_trials.thisRepN,task1_prac_trials.thisTrialN,task1_prac_trials.thisN,task1_prac_trials.thisIndex,task1_prac_trials.ran,target_resp_prac1.rt,target_resp_prac2.keys,target_resp_prac2.rt,task2_praac_trials.thisRepN,task2_praac_trials.thisTrialN,task2_praac_trials.thisN,task2_praac_trials.thisIndex,task2_praac_trials.ran,alt,task,condition,target_resp.keys,target_resp.rt,rewCond,vts_practice_trials.thisRepN,vts_practice_trials.thisTrialN,vts_practice_trials.thisN,vts_practice_trials.thisIndex,vts_practice_trials.ran,blockNum,trials_norew.thisRepN,trials_norew.thisTrialN,trials_norew.thisN,trials_norew.thisIndex,trials_norew.ran,key_resp_2.keys,key_resp_2.rt,rewExpectancy,trials_rew.thisRepN,trials_rew.thisTrialN,trials_rew.thisN,trials_rew.thisIndex,trials_rew.ran,Q1,Q2,Q2_text,Q3,Q4,Q5_text,Q5,xRes,yRes
295990,2022-11-14_10h22.03.489,vts_reward_expectancy_bt,2022.2.4,MacIntel,60.0024001,Chrome,1440,900,,,,,,,,,,,,,,,,,,,,,,,,,,,,,,,,,,,,,,,,,,,,,,,,,,,,,,,,,,,,,,,,,,,,,,,,,,,,
295990,2022-11-14_10h22.03.489,vts_reward_expectancy_bt,2022.2.4,MacIntel,60.0024001,Chrome,1440,900,space,234.9373,,,,,,,,,,,,,,,,,,,,,,,,,,,,,,,,,,,,,,,,,,,,,,,,,,,,,,,,,,,,,,,,,,,,,,,,,,
295990,2022-11-14_10h22.03.489,vts_reward_expectancy_bt,2022.2.4,MacIntel,60.0024001,Chrome,1440,900,,,,,,,,,,,,,,,,,,,,,,,,,,,,,,,,,,,,,,,,,,,,,,,,,,,,,,,,,,,,,,,,,,,,,,,,,,,,
295990,2022-11-14_10h22.03.489,vts_reward_expectancy_bt,2022.2.4,MacIntel,60.0024001,Chrome,1440,900,,,l,1.3666,10,10,0,0,0,0,2,1,1,0,0,0,0,0,0,1,triangle,star,,,,,,,,,,,,,,,,,,,,,,,,,,,,,,,,,,,,,,,,,,,,,,,,,,,,,,
295990,2022-11-14_10h22.03.489,vts_reward_expectancy_bt,2022.2.4,MacIntel,60.0024001,Chrome,1440,900,,,l,0.6853,1,11,0,0,1,1,5,1,0,1,0,0,0,0,0,1,circle,star,,,,,,,,,,,,,,,,,,,,,,,,,,,,,,,,,,,,,,,,,,,,,,,,,,,,,,
295990,2022-11-14_10h22.03.489,vts_reward_expectancy_bt,2022.2.4,MacIntel,60.0024001,Chrome,1440,900,,,l,1.2838,1,12,0,0,2,2,7,1,0,0,1,0,0,1,0,0,hexagon,circle,,,,,,,,,,,,,,,,,,,,,,,,,,,,,,,,,,,,,,,,,,,,,,,,,,,,,,
295990,2022-11-14_10h22.03.489,vts_reward_expectancy_bt,2022.2.4,MacIntel,60.0024001,Chrome,1440,900,,,a,0.8007,1,13,0,0,3,3,10,1,0,0,0,1,0,1,0,0,star ,circle,,,,,,,,,,,,,,,,,,,,,,,,,,,,,,,,,,,,,,,,,,,,,,,,,,,,,,
295990,2022-11-14_10h22.03.489,vts_reward_expectancy_bt,2022.2.4,MacIntel,60.0024001,Chrome,1440,900,,,a,2.2881,1,14,0,0,4,4,3,1,0,1,0,0,1,0,0,0,circle,triangle,,,,,,,,,,,,,,,,,,,,,,,,,,,,,,,,,,,,,,,,,,,,,,,,,,,,,,
295990,2022-11-14_10h22.03.489,vts_reward_expectancy_bt,2022.2.4,MacIntel,60.0024001,Chrome,1440,900,,,a,1.06,10,24,0,0,5,5,9,1,0,0,0,1,1,0,0,0,star,triangle,,,,,,,,,,,,,,,,,,,,,,,,,,,,,,,,,,,,,,,,,,,,,,,,,,,,,,
295990,2022-11-14_10h22.03.489,vts_reward_expectancy_bt,2022.2.4,MacIntel,60.0024001,Chrome,1440,900,,,l,0.7832,10,34,0,0,6,6,0,1,1,0,0,0,0,1,0,0,triangle,circle,,,,,,,,,,,,,,,,,,,,,,,,,,,,,,,,,,,,,,,,,,,,,,,,,,,,,,
295990,2022-11-14_10h22.03.489,vts_reward_expectancy_bt,2022.2.4,MacIntel,60.0024001,Chrome,1440,900,,,l,0.6721,1,35,0,0,7,7,1,1,1,0,0,0,0,0,1,0,triangle,hexagon,,,,,,,,,,,,,,,,,,,,,,,,,,,,,,,,,,,,,,,,,,,,,,,,,,,,,,
295990,2022-11-14_10h22.03.489,vts_reward_expectancy_bt,2022.2.4,MacIntel,60.0024001,Chrome,1440,900,,,a,1.7808,1,36,0,0,8,8,4,1,0,1,0,0,0,0,1,0,circle,hexagon,,,,,,,,,,,,,,,,,,,,,,,,,,,,,,,,,,,,,,,,,,,,,,,,,,,,,,
295990,2022-11-14_10h22.03.489,vts_reward_expectancy_bt,2022.2.4,MacIntel,60.0024001,Chrome,1440,900,,,l,1.7898,1,37,0,0,9,9,6,1,0,0,1,0,1,0,0,0,hexagon,triangle,,,,,,,,,,,,,,,,,,,,,,,,,,,,,,,,,,,,,,,,,,,,,,,,,,,,,,
295990,2022-11-14_10h22.03.489,vts_reward_expectancy_bt,2022.2.4,MacIntel,60.0024001,Chrome,1440,900,,,l,1.2458,10,47,0,0,10,10,8,1,0,0,1,0,0,0,0,1,hexagon,star,,,,,,,,,,,,,,,,,,,,,,,,,,,,,,,,,,,,,,,,,,,,,,,,,,,,,,
295990,2022-11-14_10h22.03.489,vts_reward_expectancy_bt,2022.2.4,MacIntel,60.0024001,Chrome,1440,900,,,l,1.084,10,57,0,0,11,11,11,1,0,0,0,1,0,0,1,0,star,hexagon,,,,,,,,,,,,,,,,,,,,,,,,,,,,,,,,,,,,,,,,,,,,,,,,,,,,,,
295990,2022-11-14_10h22.03.489,vts_reward_expectancy_bt,2022.2.4,MacIntel,60.0024001,Chrome,1440,900,,,a,2.5425,10,67,0,1,0,12,10,1,0,0,0,1,0,1,0,0,star ,circle,,,,,,,,,,,,,,,,,,,,,,,,,,,,,,,,,,,,,,,,,,,,,,,,,,,,,,
295990,2022-11-14_10h22.03.489,vts_reward_expectancy_bt,2022.2.4,MacIntel,60.0024001,Chrome,1440,900,,,l,1.3708,1,68,0,1,1,13,4,1,0,1,0,0,0,0,1,0,circle,hexagon,,,,,,,,,,,,,,,,,,,,,,,,,,,,,,,,,,,,,,,,,,,,,,,,,,,,,,
295990,2022-11-14_10h22.03.489,vts_reward_expectancy_bt,2022.2.4,MacIntel,60.0024001,Chrome,1440,900,,,l,1.7043,10,78,0,1,2,14,6,1,0,0,1,0,1,0,0,0,hexagon,triangle,,,,,,,,,,,,,,,,,,,,,,,,,,,,,,,,,,,,,,,,,,,,,,,,,,,,,,
295990,2022-11-14_10h22.03.489,vts_reward_expectancy_bt,2022.2.4,MacIntel,60.0024001,Chrome,1440,900,,,l,1.8577,10,88,0,1,3,15,1,1,1,0,0,0,0,0,1,0,triangle,hexagon,,,,,,,,,,,,,,,,,,,,,,,,,,,,,,,,,,,,,,,,,,,,,,,,,,,,,,
295990,2022-11-14_10h22.03.489,vts_reward_expectancy_bt,2022.2.4,MacIntel,60.0024001,Chrome,1440,900,,,a,1.7909,10,98,0,1,4,16,0,1,1,0,0,0,0,1,0,0,triangle,circle,,,,,,,,,,,,,,,,,,,,,,,,,,,,,,,,,,,,,,,,,,,,,,,,,,,,,,
295990,2022-11-14_10h22.03.489,vts_reward_expectancy_bt,2022.2.4,MacIntel,60.0024001,Chrome,1440,900,,,l,7.6842,10,108,0,1,5,17,2,1,1,0,0,0,0,0,0,1,triangle,star,,,,,,,,,,,,,,,,,,,,,,,,,,,,,,,,,,,,,,,,,,,,,,,,,,,,,,
295990,2022-11-14_10h22.03.489,vts_reward_expectancy_bt,2022.2.4,MacIntel,60.0024001,Chrome,1440,900,,,l,8.539,1,109,0,1,6,18,5,1,0,1,0,0,0,0,0,1,circle,star,,,,,,,,,,,,,,,,,,,,,,,,,,,,,,,,,,,,,,,,,,,,,,,,,,,,,,
295990,2022-11-14_10h22.03.489,vts_reward_expectancy_bt,2022.2.4,MacIntel,60.0024001,Chrome,1440,900,,,a,0.8605,1,110,0,1,7,19,9,1,0,0,0,1,1,0,0,0,star,triangle,,,,,,,,,,,,,,,,,,,,,,,,,,,,,,,,,,,,,,,,,,,,,,,,,,,,,,
295990,2022-11-14_10h22.03.489,vts_reward_expectancy_bt,2022.2.4,MacIntel,60.0024001,Chrome,1440,900,,,a,1.0049,1,111,0,1,8,20,8,1,0,0,1,0,0,0,0,1,hexagon,star,,,,,,,,,,,,,,,,,,,,,,,,,,,,,,,,,,,,,,,,,,,,,,,,,,,,,,
295990,2022-11-14_10h22.03.489,vts_reward_expectancy_bt,2022.2.4,MacIntel,60.0024001,Chrome,1440,900,,,l,0.9896,10,121,0,1,9,21,3,1,0,1,0,0,1,0,0,0,circle,triangle,,,,,,,,,,,,,,,,,,,,,,,,,,,,,,,,,,,,,,,,,,,,,,,,,,,,,,
295990,2022-11-14_10h22.03.489,vts_reward_expectancy_bt,2022.2.4,MacIntel,60.0024001,Chrome,1440,900,,,a,0.9754,1,122,0,1,10,22,11,1,0,0,0,1,0,0,1,0,star,hexagon,,,,,,,,,,,,,,,,,,,,,,,,,,,,,,,,,,,,,,,,,,,,,,,,,,,,,,
295990,2022-11-14_10h22.03.489,vts_reward_expectancy_bt,2022.2.4,MacIntel,60.0024001,Chrome,1440,900,,,a,0.7766,1,123,0,1,11,23,7,1,0,0,1,0,0,1,0,0,hexagon,circle,,,,,,,,,,,,,,,,,,,,,,,,,,,,,,,,,,,,,,,,,,,,,,,,,,,,,,
295990,2022-11-14_10h22.03.489,vts_reward_expectancy_bt,2022.2.4,MacIntel,60.0024001,Chrome,1440,900,,,l,0.5551,1,124,0,2,0,24,1,1,1,0,0,0,0,0,1,0,triangle,hexagon,,,,,,,,,,,,,,,,,,,,,,,,,,,,,,,,,,,,,,,,,,,,,,,,,,,,,,
295990,2022-11-14_10h22.03.489,vts_reward_expectancy_bt,2022.2.4,MacIntel,60.0024001,Chrome,1440,900,,,l,2.3545,1,125,0,2,1,25,5,1,0,1,0,0,0,0,0,1,circle,star,,,,,,,,,,,,,,,,,,,,,,,,,,,,,,,,,,,,,,,,,,,,,,,,,,,,,,
295990,2022-11-14_10h22.03.489,vts_reward_expectancy_bt,2022.2.4,MacIntel,60.0024001,Chrome,1440,900,,,a,0.5348,1,126,0,2,2,26,10,1,0,0,0,1,0,1,0,0,star ,circle,,,,,,,,,,,,,,,,,,,,,,,,,,,,,,,,,,,,,,,,,,,,,,,,,,,,,,
295990,2022-11-14_10h22.03.489,vts_reward_expectancy_bt,2022.2.4,MacIntel,60.0024001,Chrome,1440,900,,,a,0.5302,10,136,0,2,3,27,11,1,0,0,0,1,0,0,1,0,star,hexagon,,,,,,,,,,,,,,,,,,,,,,,,,,,,,,,,,,,,,,,,,,,,,,,,,,,,,,
295990,2022-11-14_10h22.03.489,vts_reward_expectancy_bt,2022.2.4,MacIntel,60.0024001,Chrome,1440,900,,,l,0.8072,1,137,0,2,4,28,0,1,1,0,0,0,0,1,0,0,triangle,circle,,,,,,,,,,,,,,,,,,,,,,,,,,,,,,,,,,,,,,,,,,,,,,,,,,,,,,
295990,2022-11-14_10h22.03.489,vts_reward_expectancy_bt,2022.2.4,MacIntel,60.0024001,Chrome,1440,900,,,a,2.9044,1,138,0,2,5,29,6,1,0,0,1,0,1,0,0,0,hexagon,triangle,,,,,,,,,,,,,,,,,,,,,,,,,,,,,,,,,,,,,,,,,,,,,,,,,,,,,,
295990,2022-11-14_10h22.03.489,vts_reward_expectancy_bt,2022.2.4,MacIntel,60.0024001,Chrome,1440,900,,,a,1.2067,1,139,0,2,6,30,3,1,0,1,0,0,1,0,0,0,circle,triangle,,,,,,,,,,,,,,,,,,,,,,,,,,,,,,,,,,,,,,,,,,,,,,,,,,,,,,
295990,2022-11-14_10h22.03.489,vts_reward_expectancy_bt,2022.2.4,MacIntel,60.0024001,Chrome,1440,900,,,l,0.6809,10,149,0,2,7,31,8,1,0,0,1,0,0,0,0,1,hexagon,star,,,,,,,,,,,,,,,,,,,,,,,,,,,,,,,,,,,,,,,,,,,,,,,,,,,,,,
295990,2022-11-14_10h22.03.489,vts_reward_expectancy_bt,2022.2.4,MacIntel,60.0024001,Chrome,1440,900,,,a,1.3912,10,159,0,2,8,32,2,1,1,0,0,0,0,0,0,1,triangle,star,,,,,,,,,,,,,,,,,,,,,,,,,,,,,,,,,,,,,,,,,,,,,,,,,,,,,,
295990,2022-11-14_10h22.03.489,vts_reward_expectancy_bt,2022.2.4,MacIntel,60.0024001,Chrome,1440,900,,,l,1.6314,1,160,0,2,9,33,7,1,0,0,1,0,0,1,0,0,hexagon,circle,,,,,,,,,,,,,,,,,,,,,,,,,,,,,,,,,,,,,,,,,,,,,,,,,,,,,,
295990,2022-11-14_10h22.03.489,vts_reward_expectancy_bt,2022.2.4,MacIntel,60.0024001,Chrome,1440,900,,,l,3.2863,1,161,0,2,10,34,4,1,0,1,0,0,0,0,1,0,circle,hexagon,,,,,,,,,,,,,,,,,,,,,,,,,,,,,,,,,,,,,,,,,,,,,,,,,,,,,,
295990,2022-11-14_10h22.03.489,vts_reward_expectancy_bt,2022.2.4,MacIntel,60.0024001,Chrome,1440,900,,,a,0.8226,1,162,0,2,11,35,9,1,0,0,0,1,1,0,0,0,star,triangle,,,,,,,,,,,,,,,,,,,,,,,,,,,,,,,,,,,,,,,,,,,,,,,,,,,,,,
295990,2022-11-14_10h22.03.489,vts_reward_expectancy_bt,2022.2.4,MacIntel,60.0024001,Chrome,1440,900,,,a,1.6763,1,163,1,0,0,0,11,1,0,0,0,1,0,0,1,0,star,hexagon,,,,,,,,,,,,,,,,,,,,,,,,,,,,,,,,,,,,,,,,,,,,,,,,,,,,,,
295990,2022-11-14_10h22.03.489,vts_reward_expectancy_bt,2022.2.4,MacIntel,60.0024001,Chrome,1440,900,,,a,0.7665,1,164,1,0,1,1,9,1,0,0,0,1,1,0,0,0,star,triangle,,,,,,,,,,,,,,,,,,,,,,,,,,,,,,,,,,,,,,,,,,,,,,,,,,,,,,
295990,2022-11-14_10h22.03.489,vts_reward_expectancy_bt,2022.2.4,MacIntel,60.0024001,Chrome,1440,900,,,l,0.7174,1,165,1,0,2,2,5,1,0,1,0,0,0,0,0,1,circle,star,,,,,,,,,,,,,,,,,,,,,,,,,,,,,,,,,,,,,,,,,,,,,,,,,,,,,,
295990,2022-11-14_10h22.03.489,vts_reward_expectancy_bt,2022.2.4,MacIntel,60.0024001,Chrome,1440,900,,,l,2.0542,1,166,1,0,3,3,3,1,0,1,0,0,1,0,0,0,circle,triangle,,,,,,,,,,,,,,,,,,,,,,,,,,,,,,,,,,,,,,,,,,,,,,,,,,,,,,
295990,2022-11-14_10h22.03.489,vts_reward_expectancy_bt,2022.2.4,MacIntel,60.0024001,Chrome,1440,900,,,a,1.0432,1,167,1,0,4,4,2,1,1,0,0,0,0,0,0,1,triangle,star,,,,,,,,,,,,,,,,,,,,,,,,,,,,,,,,,,,,,,,,,,,,,,,,,,,,,,
295990,2022-11-14_10h22.03.489,vts_reward_expectancy_bt,2022.2.4,MacIntel,60.0024001,Chrome,1440,900,,,a,0.6369,1,168,1,0,5,5,7,1,0,0,1,0,0,1,0,0,hexagon,circle,,,,,,,,,,,,,,,,,,,,,,,,,,,,,,,,,,,,,,,,,,,,,,,,,,,,,,
295990,2022-11-14_10h22.03.489,vts_reward_expectancy_bt,2022.2.4,MacIntel,60.0024001,Chrome,1440,900,,,l,1.2855,1,169,1,0,6,6,6,1,0,0,1,0,1,0,0,0,hexagon,triangle,,,,,,,,,,,,,,,,,,,,,,,,,,,,,,,,,,,,,,,,,,,,,,,,,,,,,,
295990,2022-11-14_10h22.03.489,vts_reward_expectancy_bt,2022.2.4,MacIntel,60.0024001,Chrome,1440,900,,,a,0.3451,10,179,1,0,7,7,4,1,0,1,0,0,0,0,1,0,circle,hexagon,,,,,,,,,,,,,,,,,,,,,,,,,,,,,,,,,,,,,,,,,,,,,,,,,,,,,,
295990,2022-11-14_10h22.03.489,vts_reward_expectancy_bt,2022.2.4,MacIntel,60.0024001,Chrome,1440,900,,,a,0.0038,10,189,1,0,8,8,0,1,1,0,0,0,0,1,0,0,triangle,circle,,,,,,,,,,,,,,,,,,,,,,,,,,,,,,,,,,,,,,,,,,,,,,,,,,,,,,
295990,2022-11-14_10h22.03.489,vts_reward_expectancy_bt,2022.2.4,MacIntel,60.0024001,Chrome,1440,900,,,l,0.0526,10,199,1,0,9,9,10,1,0,0,0,1,0,1,0,0,star ,circle,,,,,,,,,,,,,,,,,,,,,,,,,,,,,,,,,,,,,,,,,,,,,,,,,,,,,,
295990,2022-11-14_10h22.03.489,vts_reward_expectancy_bt,2022.2.4,MacIntel,60.0024001,Chrome,1440,900,,,a,0.9013,1,200,1,0,10,10,1,1,1,0,0,0,0,0,1,0,triangle,hexagon,,,,,,,,,,,,,,,,,,,,,,,,,,,,,,,,,,,,,,,,,,,,,,,,,,,,,,
295990,2022-11-14_10h22.03.489,vts_reward_expectancy_bt,2022.2.4,MacIntel,60.0024001,Chrome,1440,900,,,l,0.4344,1,201,1,0,11,11,8,1,0,0,1,0,0,0,0,1,hexagon,star,,,,,,,,,,,,,,,,,,,,,,,,,,,,,,,,,,,,,,,,,,,,,,,,,,,,,,
295990,2022-11-14_10h22.03.489,vts_reward_expectancy_bt,2022.2.4,MacIntel,60.0024001,Chrome,1440,900,,,a,0.1539,10,211,1,1,0,12,0,1,1,0,0,0,0,1,0,0,triangle,circle,,,,,,,,,,,,,,,,,,,,,,,,,,,,,,,,,,,,,,,,,,,,,,,,,,,,,,
295990,2022-11-14_10h22.03.489,vts_reward_expectancy_bt,2022.2.4,MacIntel,60.0024001,Chrome,1440,900,,,a,0.2854,10,221,1,1,1,13,2,1,1,0,0,0,0,0,0,1,triangle,star,,,,,,,,,,,,,,,,,,,,,,,,,,,,,,,,,,,,,,,,,,,,,,,,,,,,,,
295990,2022-11-14_10h22.03.489,vts_reward_expectancy_bt,2022.2.4,MacIntel,60.0024001,Chrome,1440,900,,,a,0.8896,10,231,1,1,2,14,6,1,0,0,1,0,1,0,0,0,hexagon,triangle,,,,,,,,,,,,,,,,,,,,,,,,,,,,,,,,,,,,,,,,,,,,,,,,,,,,,,
295990,2022-11-14_10h22.03.489,vts_reward_expectancy_bt,2022.2.4,MacIntel,60.0024001,Chrome,1440,900,,,a,0.5996,10,241,1,1,3,15,4,1,0,1,0,0,0,0,1,0,circle,hexagon,,,,,,,,,,,,,,,,,,,,,,,,,,,,,,,,,,,,,,,,,,,,,,,,,,,,,,
295990,2022-11-14_10h22.03.489,vts_reward_expectancy_bt,2022.2.4,MacIntel,60.0024001,Chrome,1440,900,,,a,0.581,1,242,1,1,4,16,1,1,1,0,0,0,0,0,1,0,triangle,hexagon,,,,,,,,,,,,,,,,,,,,,,,,,,,,,,,,,,,,,,,,,,,,,,,,,,,,,,
295990,2022-11-14_10h22.03.489,vts_reward_expectancy_bt,2022.2.4,MacIntel,60.0024001,Chrome,1440,900,,,a,0.699,1,243,1,1,5,17,5,1,0,1,0,0,0,0,0,1,circle,star,,,,,,,,,,,,,,,,,,,,,,,,,,,,,,,,,,,,,,,,,,,,,,,,,,,,,,
295990,2022-11-14_10h22.03.489,vts_reward_expectancy_bt,2022.2.4,MacIntel,60.0024001,Chrome,1440,900,,,a,0.4168,1,244,1,1,6,18,11,1,0,0,0,1,0,0,1,0,star,hexagon,,,,,,,,,,,,,,,,,,,,,,,,,,,,,,,,,,,,,,,,,,,,,,,,,,,,,,
295990,2022-11-14_10h22.03.489,vts_reward_expectancy_bt,2022.2.4,MacIntel,60.0024001,Chrome,1440,900,,,a,0.1329,1,245,1,1,7,19,8,1,0,0,1,0,0,0,0,1,hexagon,star,,,,,,,,,,,,,,,,,,,,,,,,,,,,,,,,,,,,,,,,,,,,,,,,,,,,,,
295990,2022-11-14_10h22.03.489,vts_reward_expectancy_bt,2022.2.4,MacIntel,60.0024001,Chrome,1440,900,,,a,0.0835,1,246,1,1,8,20,7,1,0,0,1,0,0,1,0,0,hexagon,circle,,,,,,,,,,,,,,,,,,,,,,,,,,,,,,,,,,,,,,,,,,,,,,,,,,,,,,
295990,2022-11-14_10h22.03.489,vts_reward_expectancy_bt,2022.2.4,MacIntel,60.0024001,Chrome,1440,900,,,l,0.29,10,256,1,1,9,21,10,1,0,0,0,1,0,1,0,0,star ,circle,,,,,,,,,,,,,,,,,,,,,,,,,,,,,,,,,,,,,,,,,,,,,,,,,,,,,,
295990,2022-11-14_10h22.03.489,vts_reward_expectancy_bt,2022.2.4,MacIntel,60.0024001,Chrome,1440,900,,,l,1.1493,1,257,1,1,10,22,3,1,0,1,0,0,1,0,0,0,circle,triangle,,,,,,,,,,,,,,,,,,,,,,,,,,,,,,,,,,,,,,,,,,,,,,,,,,,,,,
295990,2022-11-14_10h22.03.489,vts_reward_expectancy_bt,2022.2.4,MacIntel,60.0024001,Chrome,1440,900,,,l,0.1264,10,267,1,1,11,23,9,1,0,0,0,1,1,0,0,0,star,triangle,,,,,,,,,,,,,,,,,,,,,,,,,,,,,,,,,,,,,,,,,,,,,,,,,,,,,,
295990,2022-11-14_10h22.03.489,vts_reward_expectancy_bt,2022.2.4,MacIntel,60.0024001,Chrome,1440,900,,,a,0.402,10,277,1,2,0,24,6,1,0,0,1,0,1,0,0,0,hexagon,triangle,,,,,,,,,,,,,,,,,,,,,,,,,,,,,,,,,,,,,,,,,,,,,,,,,,,,,,
295990,2022-11-14_10h22.03.489,vts_reward_expectancy_bt,2022.2.4,MacIntel,60.0024001,Chrome,1440,900,,,l,0.0873,10,287,1,2,1,25,2,1,1,0,0,0,0,0,0,1,triangle,star,,,,,,,,,,,,,,,,,,,,,,,,,,,,,,,,,,,,,,,,,,,,,,,,,,,,,,
295990,2022-11-14_10h22.03.489,vts_reward_expectancy_bt,2022.2.4,MacIntel,60.0024001,Chrome,1440,900,,,a,0.2186,10,297,1,2,2,26,0,1,1,0,0,0,0,1,0,0,triangle,circle,,,,,,,,,,,,,,,,,,,,,,,,,,,,,,,,,,,,,,,,,,,,,,,,,,,,,,
295990,2022-11-14_10h22.03.489,vts_reward_expectancy_bt,2022.2.4,MacIntel,60.0024001,Chrome,1440,900,,,a,0.275,10,307,1,2,3,27,4,1,0,1,0,0,0,0,1,0,circle,hexagon,,,,,,,,,,,,,,,,,,,,,,,,,,,,,,,,,,,,,,,,,,,,,,,,,,,,,,
295990,2022-11-14_10h22.03.489,vts_reward_expectancy_bt,2022.2.4,MacIntel,60.0024001,Chrome,1440,900,,,l,0.2528,1,308,1,2,4,28,8,1,0,0,1,0,0,0,0,1,hexagon,star,,,,,,,,,,,,,,,,,,,,,,,,,,,,,,,,,,,,,,,,,,,,,,,,,,,,,,
295990,2022-11-14_10h22.03.489,vts_reward_expectancy_bt,2022.2.4,MacIntel,60.0024001,Chrome,1440,900,,,l,0.3343,10,318,1,2,5,29,10,1,0,0,0,1,0,1,0,0,star ,circle,,,,,,,,,,,,,,,,,,,,,,,,,,,,,,,,,,,,,,,,,,,,,,,,,,,,,,
295990,2022-11-14_10h22.03.489,vts_reward_expectancy_bt,2022.2.4,MacIntel,60.0024001,Chrome,1440,900,,,l,0.2516,10,328,1,2,6,30,3,1,0,1,0,0,1,0,0,0,circle,triangle,,,,,,,,,,,,,,,,,,,,,,,,,,,,,,,,,,,,,,,,,,,,,,,,,,,,,,
295990,2022-11-14_10h22.03.489,vts_reward_expectancy_bt,2022.2.4,MacIntel,60.0024001,Chrome,1440,900,,,l,0.0009,1,329,1,2,7,31,5,1,0,1,0,0,0,0,0,1,circle,star,,,,,,,,,,,,,,,,,,,,,,,,,,,,,,,,,,,,,,,,,,,,,,,,,,,,,,
295990,2022-11-14_10h22.03.489,vts_reward_expectancy_bt,2022.2.4,MacIntel,60.0024001,Chrome,1440,900,,,l,0.0307,10,339,1,2,8,32,7,1,0,0,1,0,0,1,0,0,hexagon,circle,,,,,,,,,,,,,,,,,,,,,,,,,,,,,,,,,,,,,,,,,,,,,,,,,,,,,,
295990,2022-11-14_10h22.03.489,vts_reward_expectancy_bt,2022.2.4,MacIntel,60.0024001,Chrome,1440,900,,,l,0.0049,10,349,1,2,9,33,11,1,0,0,0,1,0,0,1,0,star,hexagon,,,,,,,,,,,,,,,,,,,,,,,,,,,,,,,,,,,,,,,,,,,,,,,,,,,,,,
295990,2022-11-14_10h22.03.489,vts_reward_expectancy_bt,2022.2.4,MacIntel,60.0024001,Chrome,1440,900,,,l,0.1038,10,359,1,2,10,34,9,1,0,0,0,1,1,0,0,0,star,triangle,,,,,,,,,,,,,,,,,,,,,,,,,,,,,,,,,,,,,,,,,,,,,,,,,,,,,,
295990,2022-11-14_10h22.03.489,vts_reward_expectancy_bt,2022.2.4,MacIntel,60.0024001,Chrome,1440,900,,,a,0.1975,10,369,1,2,11,35,1,1,1,0,0,0,0,0,1,0,triangle,hexagon,,,,,,,,,,,,,,,,,,,,,,,,,,,,,,,,,,,,,,,,,,,,,,,,,,,,,,
295990,2022-11-14_10h22.03.489,vts_reward_expectancy_bt,2022.2.4,MacIntel,60.0024001,Chrome,1440,900,,,a,1.5487,1,370,2,0,0,0,4,1,0,1,0,0,0,0,1,0,circle,hexagon,,,,,,,,,,,,,,,,,,,,,,,,,,,,,,,,,,,,,,,,,,,,,,,,,,,,,,
295990,2022-11-14_10h22.03.489,vts_reward_expectancy_bt,2022.2.4,MacIntel,60.0024001,Chrome,1440,900,,,l,0.6268,10,380,2,0,1,1,1,1,1,0,0,0,0,0,1,0,triangle,hexagon,,,,,,,,,,,,,,,,,,,,,,,,,,,,,,,,,,,,,,,,,,,,,,,,,,,,,,
295990,2022-11-14_10h22.03.489,vts_reward_expectancy_bt,2022.2.4,MacIntel,60.0024001,Chrome,1440,900,,,a,0.9256,1,381,2,0,2,2,11,1,0,0,0,1,0,0,1,0,star,hexagon,,,,,,,,,,,,,,,,,,,,,,,,,,,,,,,,,,,,,,,,,,,,,,,,,,,,,,
295990,2022-11-14_10h22.03.489,vts_reward_expectancy_bt,2022.2.4,MacIntel,60.0024001,Chrome,1440,900,,,l,1.5516,1,382,2,0,3,3,3,1,0,1,0,0,1,0,0,0,circle,triangle,,,,,,,,,,,,,,,,,,,,,,,,,,,,,,,,,,,,,,,,,,,,,,,,,,,,,,
295990,2022-11-14_10h22.03.489,vts_reward_expectancy_bt,2022.2.4,MacIntel,60.0024001,Chrome,1440,900,,,a,0.0233,10,392,2,0,4,4,9,1,0,0,0,1,1,0,0,0,star,triangle,,,,,,,,,,,,,,,,,,,,,,,,,,,,,,,,,,,,,,,,,,,,,,,,,,,,,,
295990,2022-11-14_10h22.03.489,vts_reward_expectancy_bt,2022.2.4,MacIntel,60.0024001,Chrome,1440,900,,,l,1.0659,1,393,2,0,5,5,0,1,1,0,0,0,0,1,0,0,triangle,circle,,,,,,,,,,,,,,,,,,,,,,,,,,,,,,,,,,,,,,,,,,,,,,,,,,,,,,
295990,2022-11-14_10h22.03.489,vts_reward_expectancy_bt,2022.2.4,MacIntel,60.0024001,Chrome,1440,900,,,l,0.542,10,403,2,0,6,6,5,1,0,1,0,0,0,0,0,1,circle,star,,,,,,,,,,,,,,,,,,,,,,,,,,,,,,,,,,,,,,,,,,,,,,,,,,,,,,
295990,2022-11-14_10h22.03.489,vts_reward_expectancy_bt,2022.2.4,MacIntel,60.0024001,Chrome,1440,900,,,l,0.4271,1,404,2,0,7,7,10,1,0,0,0,1,0,1,0,0,star ,circle,,,,,,,,,,,,,,,,,,,,,,,,,,,,,,,,,,,,,,,,,,,,,,,,,,,,,,
295990,2022-11-14_10h22.03.489,vts_reward_expectancy_bt,2022.2.4,MacIntel,60.0024001,Chrome,1440,900,,,a,0.36,10,414,2,0,8,8,6,1,0,0,1,0,1,0,0,0,hexagon,triangle,,,,,,,,,,,,,,,,,,,,,,,,,,,,,,,,,,,,,,,,,,,,,,,,,,,,,,
295990,2022-11-14_10h22.03.489,vts_reward_expectancy_bt,2022.2.4,MacIntel,60.0024001,Chrome,1440,900,,,a,0.0007,1,415,2,0,9,9,8,1,0,0,1,0,0,0,0,1,hexagon,star,,,,,,,,,,,,,,,,,,,,,,,,,,,,,,,,,,,,,,,,,,,,,,,,,,,,,,
295990,2022-11-14_10h22.03.489,vts_reward_expectancy_bt,2022.2.4,MacIntel,60.0024001,Chrome,1440,900,,,a,0.5866,10,425,2,0,10,10,7,1,0,0,1,0,0,1,0,0,hexagon,circle,,,,,,,,,,,,,,,,,,,,,,,,,,,,,,,,,,,,,,,,,,,,,,,,,,,,,,
295990,2022-11-14_10h22.03.489,vts_reward_expectancy_bt,2022.2.4,MacIntel,60.0024001,Chrome,1440,900,,,a,0.0034,1,426,2,0,11,11,2,1,1,0,0,0,0,0,0,1,triangle,star,,,,,,,,,,,,,,,,,,,,,,,,,,,,,,,,,,,,,,,,,,,,,,,,,,,,,,
295990,2022-11-14_10h22.03.489,vts_reward_expectancy_bt,2022.2.4,MacIntel,60.0024001,Chrome,1440,900,,,l,0.5519,1,427,2,1,0,12,11,1,0,0,0,1,0,0,1,0,star,hexagon,,,,,,,,,,,,,,,,,,,,,,,,,,,,,,,,,,,,,,,,,,,,,,,,,,,,,,
295990,2022-11-14_10h22.03.489,vts_reward_expectancy_bt,2022.2.4,MacIntel,60.0024001,Chrome,1440,900,,,a,0.0924,10,437,2,1,1,13,1,1,1,0,0,0,0,0,1,0,triangle,hexagon,,,,,,,,,,,,,,,,,,,,,,,,,,,,,,,,,,,,,,,,,,,,,,,,,,,,,,
295990,2022-11-14_10h22.03.489,vts_reward_expectancy_bt,2022.2.4,MacIntel,60.0024001,Chrome,1440,900,,,l,0.0496,1,438,2,1,2,14,7,1,0,0,1,0,0,1,0,0,hexagon,circle,,,,,,,,,,,,,,,,,,,,,,,,,,,,,,,,,,,,,,,,,,,,,,,,,,,,,,
295990,2022-11-14_10h22.03.489,vts_reward_expectancy_bt,2022.2.4,MacIntel,60.0024001,Chrome,1440,900,,,a,0.24,1,439,2,1,3,15,9,1,0,0,0,1,1,0,0,0,star,triangle,,,,,,,,,,,,,,,,,,,,,,,,,,,,,,,,,,,,,,,,,,,,,,,,,,,,,,
295990,2022-11-14_10h22.03.489,vts_reward_expectancy_bt,2022.2.4,MacIntel,60.0024001,Chrome,1440,900,,,a,0.2713,1,440,2,1,4,16,0,1,1,0,0,0,0,1,0,0,triangle,circle,,,,,,,,,,,,,,,,,,,,,,,,,,,,,,,,,,,,,,,,,,,,,,,,,,,,,,
295990,2022-11-14_10h22.03.489,vts_reward_expectancy_bt,2022.2.4,MacIntel,60.0024001,Chrome,1440,900,,,a,0.5011,1,441,2,1,5,17,4,1,0,1,0,0,0,0,1,0,circle,hexagon,,,,,,,,,,,,,,,,,,,,,,,,,,,,,,,,,,,,,,,,,,,,,,,,,,,,,,
295990,2022-11-14_10h22.03.489,vts_reward_expectancy_bt,2022.2.4,MacIntel,60.0024001,Chrome,1440,900,,,l,0.117,1,442,2,1,6,18,3,1,0,1,0,0,1,0,0,0,circle,triangle,,,,,,,,,,,,,,,,,,,,,,,,,,,,,,,,,,,,,,,,,,,,,,,,,,,,,,
295990,2022-11-14_10h22.03.489,vts_reward_expectancy_bt,2022.2.4,MacIntel,60.0024001,Chrome,1440,900,,,a,0.2567,1,443,2,1,7,19,5,1,0,1,0,0,0,0,0,1,circle,star,,,,,,,,,,,,,,,,,,,,,,,,,,,,,,,,,,,,,,,,,,,,,,,,,,,,,,
295990,2022-11-14_10h22.03.489,vts_reward_expectancy_bt,2022.2.4,MacIntel,60.0024001,Chrome,1440,900,,,l,0.484,1,444,2,1,8,20,8,1,0,0,1,0,0,0,0,1,hexagon,star,,,,,,,,,,,,,,,,,,,,,,,,,,,,,,,,,,,,,,,,,,,,,,,,,,,,,,
295990,2022-11-14_10h22.03.489,vts_reward_expectancy_bt,2022.2.4,MacIntel,60.0024001,Chrome,1440,900,,,l,0.2519,1,445,2,1,9,21,10,1,0,0,0,1,0,1,0,0,star ,circle,,,,,,,,,,,,,,,,,,,,,,,,,,,,,,,,,,,,,,,,,,,,,,,,,,,,,,
295990,2022-11-14_10h22.03.489,vts_reward_expectancy_bt,2022.2.4,MacIntel,60.0024001,Chrome,1440,900,,,l,0.033,1,446,2,1,10,22,2,1,1,0,0,0,0,0,0,1,triangle,star,,,,,,,,,,,,,,,,,,,,,,,,,,,,,,,,,,,,,,,,,,,,,,,,,,,,,,
295990,2022-11-14_10h22.03.489,vts_reward_expectancy_bt,2022.2.4,MacIntel,60.0024001,Chrome,1440,900,,,a,0.1345,1,447,2,1,11,23,6,1,0,0,1,0,1,0,0,0,hexagon,triangle,,,,,,,,,,,,,,,,,,,,,,,,,,,,,,,,,,,,,,,,,,,,,,,,,,,,,,
295990,2022-11-14_10h22.03.489,vts_reward_expectancy_bt,2022.2.4,MacIntel,60.0024001,Chrome,1440,900,,,l,0.0896,10,457,2,2,0,24,7,1,0,0,1,0,0,1,0,0,hexagon,circle,,,,,,,,,,,,,,,,,,,,,,,,,,,,,,,,,,,,,,,,,,,,,,,,,,,,,,
295990,2022-11-14_10h22.03.489,vts_reward_expectancy_bt,2022.2.4,MacIntel,60.0024001,Chrome,1440,900,,,l,0.168,10,467,2,2,1,25,0,1,1,0,0,0,0,1,0,0,triangle,circle,,,,,,,,,,,,,,,,,,,,,,,,,,,,,,,,,,,,,,,,,,,,,,,,,,,,,,
295990,2022-11-14_10h22.03.489,vts_reward_expectancy_bt,2022.2.4,MacIntel,60.0024001,Chrome,1440,900,,,l,0.0003,10,477,2,2,2,26,1,1,1,0,0,0,0,0,1,0,triangle,hexagon,,,,,,,,,,,,,,,,,,,,,,,,,,,,,,,,,,,,,,,,,,,,,,,,,,,,,,
295990,2022-11-14_10h22.03.489,vts_reward_expectancy_bt,2022.2.4,MacIntel,60.0024001,Chrome,1440,900,,,l,0.156,1,478,2,2,3,27,5,1,0,1,0,0,0,0,0,1,circle,star,,,,,,,,,,,,,,,,,,,,,,,,,,,,,,,,,,,,,,,,,,,,,,,,,,,,,,
295990,2022-11-14_10h22.03.489,vts_reward_expectancy_bt,2022.2.4,MacIntel,60.0024001,Chrome,1440,900,,,l,0.018,10,488,2,2,4,28,4,1,0,1,0,0,0,0,1,0,circle,hexagon,,,,,,,,,,,,,,,,,,,,,,,,,,,,,,,,,,,,,,,,,,,,,,,,,,,,,,
295990,2022-11-14_10h22.03.489,vts_reward_expectancy_bt,2022.2.4,MacIntel,60.0024001,Chrome,1440,900,,,l,0.0517,1,489,2,2,5,29,8,1,0,0,1,0,0,0,0,1,hexagon,star,,,,,,,,,,,,,,,,,,,,,,,,,,,,,,,,,,,,,,,,,,,,,,,,,,,,,,
295990,2022-11-14_10h22.03.489,vts_reward_expectancy_bt,2022.2.4,MacIntel,60.0024001,Chrome,1440,900,,,l,0.0834,1,490,2,2,6,30,2,1,1,0,0,0,0,0,0,1,triangle,star,,,,,,,,,,,,,,,,,,,,,,,,,,,,,,,,,,,,,,,,,,,,,,,,,,,,,,
295990,2022-11-14_10h22.03.489,vts_reward_expectancy_bt,2022.2.4,MacIntel,60.0024001,Chrome,1440,900,,,a,1.5263,1,491,2,2,7,31,11,1,0,0,0,1,0,0,1,0,star,hexagon,,,,,,,,,,,,,,,,,,,,,,,,,,,,,,,,,,,,,,,,,,,,,,,,,,,,,,
295990,2022-11-14_10h22.03.489,vts_reward_expectancy_bt,2022.2.4,MacIntel,60.0024001,Chrome,1440,900,,,l,0.3918,10,501,2,2,8,32,6,1,0,0,1,0,1,0,0,0,hexagon,triangle,,,,,,,,,,,,,,,,,,,,,,,,,,,,,,,,,,,,,,,,,,,,,,,,,,,,,,
295990,2022-11-14_10h22.03.489,vts_reward_expectancy_bt,2022.2.4,MacIntel,60.0024001,Chrome,1440,900,,,l,2.6179,1,502,2,2,9,33,9,1,0,0,0,1,1,0,0,0,star,triangle,,,,,,,,,,,,,,,,,,,,,,,,,,,,,,,,,,,,,,,,,,,,,,,,,,,,,,
295990,2022-11-14_10h22.03.489,vts_reward_expectancy_bt,2022.2.4,MacIntel,60.0024001,Chrome,1440,900,,,l,0.0202,10,512,2,2,10,34,10,1,0,0,0,1,0,1,0,0,star ,circle,,,,,,,,,,,,,,,,,,,,,,,,,,,,,,,,,,,,,,,,,,,,,,,,,,,,,,
295990,2022-11-14_10h22.03.489,vts_reward_expectancy_bt,2022.2.4,MacIntel,60.0024001,Chrome,1440,900,,,l,0.4005,10,522,2,2,11,35,3,1,0,1,0,0,1,0,0,0,circle,triangle,,,,,,,,,,,,,,,,,,,,,,,,,,,,,,,,,,,,,,,,,,,,,,,,,,,,,,
295990,2022-11-14_10h22.03.489,vts_reward_expectancy_bt,2022.2.4,MacIntel,60.0024001,Chrome,1440,900,,,,,,,,,,,,,,,,,,,,,,,160,U,triangle,0,0,,0,0,0,0,0,1,,,,,,,,,,,,,,,,,,,,,,,,,,,,,,,,,,,,,,,,,,
295990,2022-11-14_10h22.03.489,vts_reward_expectancy_bt,2022.2.4,MacIntel,60.0024001,Chrome,1440,900,,,,,,,,,,,,,,,,,,,,,,,125,Y,star,1,1,d,0,1,0,1,0,1,1.17,,,,,,,,,,,,,,,,,,,,,,,,,,,,,,,,,,,,,,,,,
295990,2022-11-14_10h22.03.489,vts_reward_expectancy_bt,2022.2.4,MacIntel,60.0024001,Chrome,1440,900,,,,,,,,,,,,,,,,,,,,,,,139,F,hexagon,1,0,d,0,2,0,2,0,1,1.2295,,,,,,,,,,,,,,,,,,,,,,,,,,,,,,,,,,,,,,,,,
295990,2022-11-14_10h22.03.489,vts_reward_expectancy_bt,2022.2.4,MacIntel,60.0024001,Chrome,1440,900,,,,,,,,,,,,,,,,,,,,,,,146,W,circle,1,0,d,0,3,0,3,0,1,1.0653,,,,,,,,,,,,,,,,,,,,,,,,,,,,,,,,,,,,,,,,,
295990,2022-11-14_10h22.03.489,vts_reward_expectancy_bt,2022.2.4,MacIntel,60.0024001,Chrome,1440,900,,,,,,,,,,,,,,,,,,,,,,,132,S,triangle,1,0,d,0,4,0,4,0,1,0.8838,,,,,,,,,,,,,,,,,,,,,,,,,,,,,,,,,,,,,,,,,
295990,2022-11-14_10h22.03.489,vts_reward_expectancy_bt,2022.2.4,MacIntel,60.0024001,Chrome,1440,900,,,,,,,,,,,,,,,,,,,,,,,174,D,star,1,0,f,0,5,0,5,0,1,0.9816,,,,,,,,,,,,,,,,,,,,,,,,,,,,,,,,,,,,,,,,,
295990,2022-11-14_10h22.03.489,vts_reward_expectancy_bt,2022.2.4,MacIntel,60.0024001,Chrome,1440,900,,,,,,,,,,,,,,,,,,,,,,,181,B,hexagon,1,0,f,0,6,0,6,0,1,0.5976,,,,,,,,,,,,,,,,,,,,,,,,,,,,,,,,,,,,,,,,,
295990,2022-11-14_10h22.03.489,vts_reward_expectancy_bt,2022.2.4,MacIntel,60.0024001,Chrome,1440,900,,,,,,,,,,,,,,,,,,,,,,,167,H,circle,1,0,f,0,7,0,7,0,1,0.9502,,,,,,,,,,,,,,,,,,,,,,,,,,,,,,,,,,,,,,,,,
295990,2022-11-14_10h22.03.489,vts_reward_expectancy_bt,2022.2.4,MacIntel,60.0024001,Chrome,1440,900,,,,,,,,,,,,,,,,,,,,,,,160,U,hexagon,1,0,f,0,8,0,8,0,1,0.864,,,,,,,,,,,,,,,,,,,,,,,,,,,,,,,,,,,,,,,,,
295990,2022-11-14_10h22.03.489,vts_reward_expectancy_bt,2022.2.4,MacIntel,60.0024001,Chrome,1440,900,,,,,,,,,,,,,,,,,,,,,,,125,Y,triangle,1,0,d,0,9,0,9,0,1,0.6798,,,,,,,,,,,,,,,,,,,,,,,,,,,,,,,,,,,,,,,,,
295990,2022-11-14_10h22.03.489,vts_reward_expectancy_bt,2022.2.4,MacIntel,60.0024001,Chrome,1440,900,,,,,,,,,,,,,,,,,,,,,,,125,B,triangle,1,0,,1,,,,,,,j,2.8488,0,0,0,0,1,,,,,,,,,,,,,,,,,,,,,,,,,,,,,,,,,,
295990,2022-11-14_10h22.03.489,vts_reward_expectancy_bt,2022.2.4,MacIntel,60.0024001,Chrome,1440,900,,,,,,,,,,,,,,,,,,,,,,,139,W,hexagon,1,0,,1,,,,,,,k,0.7971,1,0,1,0,1,,,,,,,,,,,,,,,,,,,,,,,,,,,,,,,,,,
295990,2022-11-14_10h22.03.489,vts_reward_expectancy_bt,2022.2.4,MacIntel,60.0024001,Chrome,1440,900,,,,,,,,,,,,,,,,,,,,,,,146,S,star,1,0,,1,,,,,,,k,1.0288,2,0,2,0,1,,,,,,,,,,,,,,,,,,,,,,,,,,,,,,,,,,
295990,2022-11-14_10h22.03.489,vts_reward_expectancy_bt,2022.2.4,MacIntel,60.0024001,Chrome,1440,900,,,,,,,,,,,,,,,,,,,,,,,132,F,circle,1,0,,1,,,,,,,j,1.2519,3,0,3,0,1,,,,,,,,,,,,,,,,,,,,,,,,,,,,,,,,,,
295990,2022-11-14_10h22.03.489,vts_reward_expectancy_bt,2022.2.4,MacIntel,60.0024001,Chrome,1440,900,,,,,,,,,,,,,,,,,,,,,,,167,U,triangle,1,0,,1,,,,,,,k,0.7889,4,0,4,0,1,,,,,,,,,,,,,,,,,,,,,,,,,,,,,,,,,,
295990,2022-11-14_10h22.03.489,vts_reward_expectancy_bt,2022.2.4,MacIntel,60.0024001,Chrome,1440,900,,,,,,,,,,,,,,,,,,,,,,,181,Y,hexagon,1,0,,1,,,,,,,k,1.1596,5,0,5,0,1,,,,,,,,,,,,,,,,,,,,,,,,,,,,,,,,,,
295990,2022-11-14_10h22.03.489,vts_reward_expectancy_bt,2022.2.4,MacIntel,60.0024001,Chrome,1440,900,,,,,,,,,,,,,,,,,,,,,,,160,D,star,1,0,,1,,,,,,,j,0.7362,6,0,6,0,1,,,,,,,,,,,,,,,,,,,,,,,,,,,,,,,,,,
295990,2022-11-14_10h22.03.489,vts_reward_expectancy_bt,2022.2.4,MacIntel,60.0024001,Chrome,1440,900,,,,,,,,,,,,,,,,,,,,,,,174,H,circle,1,0,,1,,,,,,,j,1.3303,7,0,7,0,1,,,,,,,,,,,,,,,,,,,,,,,,,,,,,,,,,,
295990,2022-11-14_10h22.03.489,vts_reward_expectancy_bt,2022.2.4,MacIntel,60.0024001,Chrome,1440,900,,,,,,,,,,,,,,,,,,,,,,,125,B,hexagon,1,0,,1,,,,,,,j,0.6458,8,0,8,0,1,,,,,,,,,,,,,,,,,,,,,,,,,,,,,,,,,,
295990,2022-11-14_10h22.03.489,vts_reward_expectancy_bt,2022.2.4,MacIntel,60.0024001,Chrome,1440,900,,,,,,,,,,,,,,,,,,,,,,,139,W,triangle,1,0,,1,,,,,,,k,1.5639,9,0,9,0,1,,,,,,,,,,,,,,,,,,,,,,,,,,,,,,,,,,
295990,2022-11-14_10h22.03.489,vts_reward_expectancy_bt,2022.2.4,MacIntel,60.0024001,Chrome,1440,900,,,,,0,522,,,,,,,,,,,,,,,,,146,H,hexagon,1,0,,2,,,,,,,,,,,,,,-1,number,NA,d,1.6559,vtsPrac,0,0,0,0,1,,,,,,,,,,,,,,,,,,,,,,,
295990,2022-11-14_10h22.03.489,vts_reward_expectancy_bt,2022.2.4,MacIntel,60.0024001,Chrome,1440,900,,,,,0,522,,,,,,,,,,,,,,,,,174,S,triangle,1,0,,2,,,,,,,,,,,,,,repeat,number,numRpt,f,2.3536,vtsPrac,1,0,1,0,1,,,,,,,,,,,,,,,,,,,,,,,
295990,2022-11-14_10h22.03.489,vts_reward_expectancy_bt,2022.2.4,MacIntel,60.0024001,Chrome,1440,900,,,,,0,522,,,,,,,,,,,,,,,,,167,D,hexagon,-1,0,,2,,,,,,,,,,,,,,switch,no_choice,NA,,,vtsPrac,2,0,2,0,1,,,,,,,,,,,,,,,,,,,,,,,
295990,2022-11-14_10h22.03.489,vts_reward_expectancy_bt,2022.2.4,MacIntel,60.0024001,Chrome,1440,900,,,,,0,522,,,,,,,,,,,,,,,,,160,U,triangle,1,0,,2,,,,,,,,,,,,,,switch,number,numSwt,f,0.898,vtsPrac,3,0,3,0,1,,,,,,,,,,,,,,,,,,,,,,,
295990,2022-11-14_10h22.03.489,vts_reward_expectancy_bt,2022.2.4,MacIntel,60.0024001,Chrome,1440,900,,,,,0,522,,,,,,,,,,,,,,,,,146,H,star,1,0,,2,,,,,,,,,,,,,,repeat,number,numRpt,d,0.8388,vtsPrac,4,0,4,0,1,,,,,,,,,,,,,,,,,,,,,,,
295990,2022-11-14_10h22.03.489,vts_reward_expectancy_bt,2022.2.4,MacIntel,60.0024001,Chrome,1440,900,,,,,0,522,,,,,,,,,,,,,,,,,174,S,triangle,1,0,,2,,,,,,,,,,,,,,repeat,number,numRpt,f,1.8496,vtsPrac,5,0,5,0,1,,,,,,,,,,,,,,,,,,,,,,,
295990,2022-11-14_10h22.03.489,vts_reward_expectancy_bt,2022.2.4,MacIntel,60.0024001,Chrome,1440,900,,,,,0,522,,,,,,,,,,,,,,,,,167,D,circle,1,0,,2,,,,,,,,,,,,,,repeat,number,numRpt,f,1.2972,vtsPrac,6,0,6,0,1,,,,,,,,,,,,,,,,,,,,,,,
295990,2022-11-14_10h22.03.489,vts_reward_expectancy_bt,2022.2.4,MacIntel,60.0024001,Chrome,1440,900,,,,,0,522,,,,,,,,,,,,,,,,,160,U,hexagon,1,0,,2,,,,,,,,,,,,,,switch,letter,lettSwt,k,1.7692,vtsPrac,7,0,7,0,1,,,,,,,,,,,,,,,,,,,,,,,
295990,2022-11-14_10h22.03.489,vts_reward_expectancy_bt,2022.2.4,MacIntel,60.0024001,Chrome,1440,900,,,,,0,522,,,,,,,,,,,,,,,,,132,U,hexagon,1,0,,2,,,,,,,,,,,,,,repeat,letter,lettRpt,k,0.6253,vtsPrac,8,0,8,0,1,,,,,,,,,,,,,,,,,,,,,,,
295990,2022-11-14_10h22.03.489,vts_reward_expectancy_bt,2022.2.4,MacIntel,60.0024001,Chrome,1440,900,,,,,0,522,,,,,,,,,,,,,,,,,146,S,star,1,0,,2,,,,,,,,,,,,,,repeat,letter,lettRpt,k,0.8623,vtsPrac,9,0,9,0,1,,,,,,,,,,,,,,,,,,,,,,,
295990,2022-11-14_10h22.03.489,vts_reward_expectancy_bt,2022.2.4,MacIntel,60.0024001,Chrome,1440,900,,,,,0,522,,,,,,,,,,,,,,,,,181,Y,star,1,0,,2,,,,,,,,,,,,,,repeat,letter,lettRpt,k,0.7,vtsPrac,10,0,10,0,1,,,,,,,,,,,,,,,,,,,,,,,
295990,2022-11-14_10h22.03.489,vts_reward_expectancy_bt,2022.2.4,MacIntel,60.0024001,Chrome,1440,900,,,,,0,522,,,,,,,,,,,,,,,,,174,F,triangle,1,0,,2,,,,,,,,,,,,,,repeat,letter,lettRpt,j,1.5147,vtsPrac,11,0,11,0,1,,,,,,,,,,,,,,,,,,,,,,,
295990,2022-11-14_10h22.03.489,vts_reward_expectancy_bt,2022.2.4,MacIntel,60.0024001,Chrome,1440,900,,,,,0,522,,,,,,,,,,,,,,,,,160,F,circle,1,0,,2,,,,,,,,,,,,,,repeat,letter,lettRpt,j,1.3811,vtsPrac,12,0,12,0,1,,,,,,,,,,,,,,,,,,,,,,,
295990,2022-11-14_10h22.03.489,vts_reward_expectancy_bt,2022.2.4,MacIntel,60.0024001,Chrome,1440,900,,,,,0,522,,,,,,,,,,,,,,,,,181,S,hexagon,1,0,,2,,,,,,,,,,,,,,repeat,letter,lettRpt,k,0.8115,vtsPrac,13,0,13,0,1,,,,,,,,,,,,,,,,,,,,,,,
295990,2022-11-14_10h22.03.489,vts_reward_expectancy_bt,2022.2.4,MacIntel,60.0024001,Chrome,1440,900,,,,,0,522,,,,,,,,,,,,,,,,,125,B,triangle,1,0,,2,,,,,,,,,,,,,,repeat,letter,lettRpt,j,1.0178,vtsPrac,14,0,14,0,1,,,,,,,,,,,,,,,,,,,,,,,
295990,2022-11-14_10h22.03.489,vts_reward_expectancy_bt,2022.2.4,MacIntel,60.0024001,Chrome,1440,900,,,,,0,522,,,,,,,,,,,,,,,,,146,H,circle,1,0,,2,,,,,,,,,,,,,,repeat,letter,lettRpt,j,0.8311,vtsPrac,15,0,15,0,1,,,,,,,,,,,,,,,,,,,,,,,
295990,2022-11-14_10h22.03.489,vts_reward_expectancy_bt,2022.2.4,MacIntel,60.0024001,Chrome,1440,900,,,,,0,522,,,,,,,,,,,,,,,,,125,F,triangle,1,0,,2,,,,,,,,,,,,,,repeat,letter,lettRpt,j,2.0149,vtsPrac,16,0,16,0,1,,,,,,,,,,,,,,,,,,,,,,,
295990,2022-11-14_10h22.03.489,vts_reward_expectancy_bt,2022.2.4,MacIntel,60.0024001,Chrome,1440,900,,,,,0,522,,,,,,,,,,,,,,,,,139,H,star,1,0,,2,,,,,,,,,,,,,,repeat,letter,lettRpt,j,1.487,vtsPrac,17,0,17,0,1,,,,,,,,,,,,,,,,,,,,,,,
295990,2022-11-14_10h22.03.489,vts_reward_expectancy_bt,2022.2.4,MacIntel,60.0024001,Chrome,1440,900,,,,,0,522,,,,,,,,,,,,,,,,,146,B,circle,1,0,,2,,,,,,,,,,,,,,repeat,letter,lettRpt,j,2.0801,vtsPrac,18,0,18,0,1,,,,,,,,,,,,,,,,,,,,,,,
295990,2022-11-14_10h22.03.489,vts_reward_expectancy_bt,2022.2.4,MacIntel,60.0024001,Chrome,1440,900,,,,,0,522,,,,,,,,,,,,,,,,,132,D,triangle,1,0,,2,,,,,,,,,,,,,,repeat,letter,lettRpt,j,0.9128,vtsPrac,19,0,19,0,1,,,,,,,,,,,,,,,,,,,,,,,
295990,2022-11-14_10h22.03.489,vts_reward_expectancy_bt,2022.2.4,MacIntel,60.0024001,Chrome,1440,900,,,,,0,522,,,,,,,,,,,,,,,,,174,Y,star,1,0,,2,,,,,,,,,,,,,,repeat,letter,lettRpt,k,1.3631,vtsPrac,20,0,20,0,1,,,,,,,,,,,,,,,,,,,,,,,
295990,2022-11-14_10h22.03.489,vts_reward_expectancy_bt,2022.2.4,MacIntel,60.0024001,Chrome,1440,900,,,,,0,522,,,,,,,,,,,,,,,,,146,D,triangle,1,0,,2,,,,,,,,,,,,,,repeat,letter,lettRpt,j,1.4033,vtsPrac,21,0,21,0,1,,,,,,,,,,,,,,,,,,,,,,,
295990,2022-11-14_10h22.03.489,vts_reward_expectancy_bt,2022.2.4,MacIntel,60.0024001,Chrome,1440,900,,,,,0,522,,,,,,,,,,,,,,,,,132,F,star,1,0,,2,,,,,,,,,,,,,,repeat,letter,lettRpt,j,1.6166,vtsPrac,22,0,22,0,1,,,,,,,,,,,,,,,,,,,,,,,
295990,2022-11-14_10h22.03.489,vts_reward_expectancy_bt,2022.2.4,MacIntel,60.0024001,Chrome,1440,900,,,,,0,522,,,,,,,,,,,,,,,,,181,U,circle,1,0,,2,,,,,,,,,,,,,,repeat,letter,lettRpt,k,1.0497,vtsPrac,23,0,23,0,1,,,,,,,,,,,,,,,,,,,,,,,
295990,2022-11-14_10h22.03.489,vts_reward_expectancy_bt,2022.2.4,MacIntel,60.0024001,Chrome,1440,900,,,,,0,522,,,,,,,,,,,,,,,,,160,H,circle,1,0,,2,,,,,,,,,,,,,,repeat,letter,lettRpt,j,1.08,vtsPrac,24,0,24,0,1,,,,,,,,,,,,,,,,,,,,,,,
295990,2022-11-14_10h22.03.489,vts_reward_expectancy_bt,2022.2.4,MacIntel,60.0024001,Chrome,1440,900,,,,,0,522,,,,,,,,,,,,,,,,,167,D,hexagon,1,0,,2,,,,,,,,,,,,,,repeat,letter,lettRpt,j,0.746,vtsPrac,25,0,25,0,1,,,,,,,,,,,,,,,,,,,,,,,
295990,2022-11-14_10h22.03.489,vts_reward_expectancy_bt,2022.2.4,MacIntel,60.0024001,Chrome,1440,900,,,,,0,522,,,,,,,,,,,,,,,,,174,B,star,1,0,,2,,,,,,,,,,,,,,repeat,letter,lettRpt,j,0.6574,vtsPrac,26,0,26,0,1,,,,,,,,,,,,,,,,,,,,,,,
295990,2022-11-14_10h22.03.489,vts_reward_expectancy_bt,2022.2.4,MacIntel,60.0024001,Chrome,1440,900,,,,,0,522,,,,,,,,,,,,,,,,,132,U,circle,1,0,,2,,,,,,,,,,,,,,repeat,letter,lettRpt,k,0.8138,vtsPrac,27,0,27,0,1,,,,,,,,,,,,,,,,,,,,,,,
295990,2022-11-14_10h22.03.489,vts_reward_expectancy_bt,2022.2.4,MacIntel,60.0024001,Chrome,1440,900,,,,,0,522,,,,,,,,,,,,,,,,,139,H,circle,1,0,,2,,,,,,,,,,,,,,repeat,letter,lettRpt,j,0.9118,vtsPrac,28,0,28,0,1,,,,,,,,,,,,,,,,,,,,,,,
295990,2022-11-14_10h22.03.489,vts_reward_expectancy_bt,2022.2.4,MacIntel,60.0024001,Chrome,1440,900,,,,,0,522,,,,,,,,,,,,,,,,,160,B,triangle,1,0,,2,,,,,,,,,,,,,,switch,number,numSwt,f,1.1854,vtsPrac,29,0,29,0,1,,,,,,,,,,,,,,,,,,,,,,,
295990,2022-11-14_10h22.03.489,vts_reward_expectancy_bt,2022.2.4,MacIntel,60.0024001,Chrome,1440,900,,,,,0,522,,,,,,,,,,,,,,,,,181,Y,hexagon,1,0,,2,,,,,,,,,,,,,,repeat,number,numRpt,f,0.9566,vtsPrac,30,0,30,0,1,,,,,,,,,,,,,,,,,,,,,,,
295990,2022-11-14_10h22.03.489,vts_reward_expectancy_bt,2022.2.4,MacIntel,60.0024001,Chrome,1440,900,,,,,0,522,,,,,,,,,,,,,,,,,167,F,star,1,0,,2,,,,,,,,,,,,,,repeat,number,numRpt,f,1.0714,vtsPrac,31,0,31,0,1,,,,,,,,,,,,,,,,,,,,,,,
295990,2022-11-14_10h22.03.489,vts_reward_expectancy_bt,2022.2.4,MacIntel,60.0024001,Chrome,1440,900,,,,,0,522,,,,,,,,,,,,,,,,,125,H,star,1,0,,3,,,,,,,,,,,,,,repeat,number,numRpt,d,1.16,vtsPrac,0,0,0,0,1,,,,,,,,,,,,,,,,,,,,,,,
295990,2022-11-14_10h22.03.489,vts_reward_expectancy_bt,2022.2.4,MacIntel,60.0024001,Chrome,1440,900,,,,,0,522,,,,,,,,,,,,,,,,,167,F,hexagon,1,0,,3,,,,,,,,,,,,,,repeat,number,numRpt,f,1.0345,vtsPrac,1,0,1,0,1,,,,,,,,,,,,,,,,,,,,,,,
295990,2022-11-14_10h22.03.489,vts_reward_expectancy_bt,2022.2.4,MacIntel,60.0024001,Chrome,1440,900,,,,,0,522,,,,,,,,,,,,,,,,,160,Y,star,1,0,,3,,,,,,,,,,,,,,switch,letter,lettSwt,k,0.973,vtsPrac,2,0,2,0,1,,,,,,,,,,,,,,,,,,,,,,,
295990,2022-11-14_10h22.03.489,vts_reward_expectancy_bt,2022.2.4,MacIntel,60.0024001,Chrome,1440,900,,,,,0,522,,,,,,,,,,,,,,,,,146,B,hexagon,1,0,,3,,,,,,,,,,,,,,repeat,letter,lettRpt,j,0.6641,vtsPrac,3,0,3,0,1,,,,,,,,,,,,,,,,,,,,,,,
295990,2022-11-14_10h22.03.489,vts_reward_expectancy_bt,2022.2.4,MacIntel,60.0024001,Chrome,1440,900,,,,,0,522,,,,,,,,,,,,,,,,,125,H,hexagon,0,0,,3,,,,,,,,,,,,,,repeat,letter,NA,k,1.1861,vtsPrac,4,0,4,0,1,,,,,,,,,,,,,,,,,,,,,,,
295990,2022-11-14_10h22.03.489,vts_reward_expectancy_bt,2022.2.4,MacIntel,60.0024001,Chrome,1440,900,,,,,0,522,,,,,,,,,,,,,,,,,167,F,triangle,1,1,,3,,,,,,,,,,,,,,repeat,letter,lettRpt,j,2.452,vtsPrac,5,0,5,0,1,,,,,,,,,,,,,,,,,,,,,,,
295990,2022-11-14_10h22.03.489,vts_reward_expectancy_bt,2022.2.4,MacIntel,60.0024001,Chrome,1440,900,,,,,0,522,,,,,,,,,,,,,,,,,160,Y,hexagon,1,0,,3,,,,,,,,,,,,,,repeat,letter,lettRpt,k,0.7367,vtsPrac,6,0,6,0,1,,,,,,,,,,,,,,,,,,,,,,,
295990,2022-11-14_10h22.03.489,vts_reward_expectancy_bt,2022.2.4,MacIntel,60.0024001,Chrome,1440,900,,,,,0,522,,,,,,,,,,,,,,,,,146,B,triangle,1,0,,3,,,,,,,,,,,,,,repeat,letter,lettRpt,j,0.7779,vtsPrac,7,0,7,0,1,,,,,,,,,,,,,,,,,,,,,,,
295990,2022-11-14_10h22.03.489,vts_reward_expectancy_bt,2022.2.4,MacIntel,60.0024001,Chrome,1440,900,,,,,0,522,,,,,,,,,,,,,,,,,181,D,star,1,0,,3,,,,,,,,,,,,,,repeat,letter,lettRpt,j,0.7085,vtsPrac,8,0,8,0,1,,,,,,,,,,,,,,,,,,,,,,,
295990,2022-11-14_10h22.03.489,vts_reward_expectancy_bt,2022.2.4,MacIntel,60.0024001,Chrome,1440,900,,,,,0,522,,,,,,,,,,,,,,,,,125,Y,triangle,1,0,,3,,,,,,,,,,,,,,repeat,letter,lettRpt,k,1.3336,vtsPrac,9,0,9,0,1,,,,,,,,,,,,,,,,,,,,,,,
295990,2022-11-14_10h22.03.489,vts_reward_expectancy_bt,2022.2.4,MacIntel,60.0024001,Chrome,1440,900,,,,,0,522,,,,,,,,,,,,,,,,,160,F,hexagon,1,0,,3,,,,,,,,,,,,,,repeat,letter,lettRpt,j,1.2842,vtsPrac,10,0,10,0,1,,,,,,,,,,,,,,,,,,,,,,,
295990,2022-11-14_10h22.03.489,vts_reward_expectancy_bt,2022.2.4,MacIntel,60.0024001,Chrome,1440,900,,,,,0,522,,,,,,,,,,,,,,,,,132,W,circle,1,0,,3,,,,,,,,,,,,,,switch,number,numSwt,d,0.9616,vtsPrac,11,0,11,0,1,,,,,,,,,,,,,,,,,,,,,,,
295990,2022-11-14_10h22.03.489,vts_reward_expectancy_bt,2022.2.4,MacIntel,60.0024001,Chrome,1440,900,,,,,0,522,,,,,,,,,,,,,,,,,125,F,triangle,1,0,,3,,,,,,,,,,,,,,repeat,number,numRpt,d,0.7141,vtsPrac,12,0,12,0,1,,,,,,,,,,,,,,,,,,,,,,,
295990,2022-11-14_10h22.03.489,vts_reward_expectancy_bt,2022.2.4,MacIntel,60.0024001,Chrome,1440,900,,,,,0,522,,,,,,,,,,,,,,,,,146,H,circle,1,0,,3,,,,,,,,,,,,,,repeat,number,numRpt,d,0.8083,vtsPrac,13,0,13,0,1,,,,,,,,,,,,,,,,,,,,,,,
295990,2022-11-14_10h22.03.489,vts_reward_expectancy_bt,2022.2.4,MacIntel,60.0024001,Chrome,1440,900,,,,,0,522,,,,,,,,,,,,,,,,,174,Y,star,1,0,,3,,,,,,,,,,,,,,repeat,number,numRpt,f,0.8496,vtsPrac,14,0,14,0,1,,,,,,,,,,,,,,,,,,,,,,,
295990,2022-11-14_10h22.03.489,vts_reward_expectancy_bt,2022.2.4,MacIntel,60.0024001,Chrome,1440,900,,,,,0,522,,,,,,,,,,,,,,,,,132,U,triangle,1,0,,3,,,,,,,,,,,,,,repeat,number,numRpt,d,0.9294,vtsPrac,15,0,15,0,1,,,,,,,,,,,,,,,,,,,,,,,
295990,2022-11-14_10h22.03.489,vts_reward_expectancy_bt,2022.2.4,MacIntel,60.0024001,Chrome,1440,900,,,,,0,522,,,,,,,,,,,,,,,,,160,W,hexagon,1,0,,3,,,,,,,,,,,,,,repeat,number,numRpt,f,1.4209,vtsPrac,16,0,16,0,1,,,,,,,,,,,,,,,,,,,,,,,
295990,2022-11-14_10h22.03.489,vts_reward_expectancy_bt,2022.2.4,MacIntel,60.0024001,Chrome,1440,900,,,,,0,522,,,,,,,,,,,,,,,,,167,Y,triangle,1,0,,3,,,,,,,,,,,,,,repeat,number,numRpt,f,1.056,vtsPrac,17,0,17,0,1,,,,,,,,,,,,,,,,,,,,,,,
295990,2022-11-14_10h22.03.489,vts_reward_expectancy_bt,2022.2.4,MacIntel,60.0024001,Chrome,1440,900,,,,,0,522,,,,,,,,,,,,,,,,,139,U,circle,1,0,,3,,,,,,,,,,,,,,repeat,number,numRpt,d,0.7975,vtsPrac,18,0,18,0,1,,,,,,,,,,,,,,,,,,,,,,,
295990,2022-11-14_10h22.03.489,vts_reward_expectancy_bt,2022.2.4,MacIntel,60.0024001,Chrome,1440,900,,,,,0,522,,,,,,,,,,,,,,,,,174,F,star,0,0,,3,,,,,,,,,,,,,,repeat,number,NA,d,1.1978,vtsPrac,19,0,19,0,1,,,,,,,,,,,,,,,,,,,,,,,
295990,2022-11-14_10h22.03.489,vts_reward_expectancy_bt,2022.2.4,MacIntel,60.0024001,Chrome,1440,900,,,,,0,522,,,,,,,,,,,,,,,,,132,F,star,1,1,,3,,,,,,,,,,,,,,repeat,number,numRpt,d,1.6873,vtsPrac,20,0,20,0,1,,,,,,,,,,,,,,,,,,,,,,,
295990,2022-11-14_10h22.03.489,vts_reward_expectancy_bt,2022.2.4,MacIntel,60.0024001,Chrome,1440,900,,,,,0,522,,,,,,,,,,,,,,,,,125,W,circle,1,0,,3,,,,,,,,,,,,,,repeat,number,numRpt,d,1.2477,vtsPrac,21,0,21,0,1,,,,,,,,,,,,,,,,,,,,,,,
295990,2022-11-14_10h22.03.489,vts_reward_expectancy_bt,2022.2.4,MacIntel,60.0024001,Chrome,1440,900,,,,,0,522,,,,,,,,,,,,,,,,,181,S,triangle,1,0,,3,,,,,,,,,,,,,,repeat,number,numRpt,f,1.2973,vtsPrac,22,0,22,0,1,,,,,,,,,,,,,,,,,,,,,,,
295990,2022-11-14_10h22.03.489,vts_reward_expectancy_bt,2022.2.4,MacIntel,60.0024001,Chrome,1440,900,,,,,0,522,,,,,,,,,,,,,,,,,146,D,hexagon,1,0,,3,,,,,,,,,,,,,,repeat,number,numRpt,d,1.5581,vtsPrac,23,0,23,0,1,,,,,,,,,,,,,,,,,,,,,,,
295990,2022-11-14_10h22.03.489,vts_reward_expectancy_bt,2022.2.4,MacIntel,60.0024001,Chrome,1440,900,,,,,0,522,,,,,,,,,,,,,,,,,174,H,hexagon,0,0,,3,,,,,,,,,,,,,,switch,letter,NA,k,2.063,vtsPrac,24,0,24,0,1,,,,,,,,,,,,,,,,,,,,,,,
295990,2022-11-14_10h22.03.489,vts_reward_expectancy_bt,2022.2.4,MacIntel,60.0024001,Chrome,1440,900,,,,,0,522,,,,,,,,,,,,,,,,,139,D,triangle,1,1,,3,,,,,,,,,,,,,,repeat,letter,lettRpt,j,1.4366,vtsPrac,25,0,25,0,1,,,,,,,,,,,,,,,,,,,,,,,
295990,2022-11-14_10h22.03.489,vts_reward_expectancy_bt,2022.2.4,MacIntel,60.0024001,Chrome,1440,900,,,,,0,522,,,,,,,,,,,,,,,,,125,B,circle,1,0,,3,,,,,,,,,,,,,,repeat,letter,lettRpt,j,0.6801,vtsPrac,26,0,26,0,1,,,,,,,,,,,,,,,,,,,,,,,
295990,2022-11-14_10h22.03.489,vts_reward_expectancy_bt,2022.2.4,MacIntel,60.0024001,Chrome,1440,900,,,,,0,522,,,,,,,,,,,,,,,,,167,F,triangle,1,0,,3,,,,,,,,,,,,,,repeat,letter,lettRpt,j,1.0622,vtsPrac,27,0,27,0,1,,,,,,,,,,,,,,,,,,,,,,,
295990,2022-11-14_10h22.03.489,vts_reward_expectancy_bt,2022.2.4,MacIntel,60.0024001,Chrome,1440,900,,,,,0,522,,,,,,,,,,,,,,,,,139,B,circle,1,0,,3,,,,,,,,,,,,,,repeat,letter,lettRpt,j,0.8446,vtsPrac,28,0,28,0,1,,,,,,,,,,,,,,,,,,,,,,,
295990,2022-11-14_10h22.03.489,vts_reward_expectancy_bt,2022.2.4,MacIntel,60.0024001,Chrome,1440,900,,,,,0,522,,,,,,,,,,,,,,,,,125,D,triangle,1,0,,3,,,,,,,,,,,,,,repeat,letter,lettRpt,j,2.1331,vtsPrac,29,0,29,0,1,,,,,,,,,,,,,,,,,,,,,,,
295990,2022-11-14_10h22.03.489,vts_reward_expectancy_bt,2022.2.4,MacIntel,60.0024001,Chrome,1440,900,,,,,0,522,,,,,,,,,,,,,,,,,181,Y,triangle,1,0,,3,,,,,,,,,,,,,,repeat,letter,lettRpt,k,1.2836,vtsPrac,30,0,30,0,1,,,,,,,,,,,,,,,,,,,,,,,
295990,2022-11-14_10h22.03.489,vts_reward_expectancy_bt,2022.2.4,MacIntel,60.0024001,Chrome,1440,900,,,,,0,522,,,,,,,,,,,,,,,,,160,F,hexagon,1,0,,3,,,,,,,,,,,,,,repeat,letter,lettRpt,j,0.8476,vtsPrac,31,0,31,0,1,,,,,,,,,,,,,,,,,,,,,,,
295990,2022-11-14_10h22.03.489,vts_reward_expectancy_bt,2022.2.4,MacIntel,60.0024001,Chrome,1440,900,,,,,0,522,,,,,,,,,,,,,,,,,167,D,hexagon,0,0,,4,,,,,,,,,,,,,,switch,number,NA,d,1.9998,vtsPrac,0,0,0,0,1,,,,,,,,,,,,,,,,,,,,,,,
295990,2022-11-14_10h22.03.489,vts_reward_expectancy_bt,2022.2.4,MacIntel,60.0024001,Chrome,1440,900,,,,,0,522,,,,,,,,,,,,,,,,,139,B,star,1,1,,4,,,,,,,,,,,,,,repeat,number,numRpt,d,1.2224,vtsPrac,1,0,1,0,1,,,,,,,,,,,,,,,,,,,,,,,
295990,2022-11-14_10h22.03.489,vts_reward_expectancy_bt,2022.2.4,MacIntel,60.0024001,Chrome,1440,900,,,,,0,522,,,,,,,,,,,,,,,,,132,W,hexagon,1,0,,4,,,,,,,,,,,,,,repeat,number,numRpt,d,1.2456,vtsPrac,2,0,2,0,1,,,,,,,,,,,,,,,,,,,,,,,
295990,2022-11-14_10h22.03.489,vts_reward_expectancy_bt,2022.2.4,MacIntel,60.0024001,Chrome,1440,900,,,,,0,522,,,,,,,,,,,,,,,,,160,H,star,1,0,,4,,,,,,,,,,,,,,switch,letter,lettSwt,j,1.0862,vtsPrac,3,0,3,0,1,,,,,,,,,,,,,,,,,,,,,,,
295990,2022-11-14_10h22.03.489,vts_reward_expectancy_bt,2022.2.4,MacIntel,60.0024001,Chrome,1440,900,,,,,0,522,,,,,,,,,,,,,,,,,167,D,star,1,0,,4,,,,,,,,,,,,,,repeat,letter,lettRpt,j,1.1626,vtsPrac,4,0,4,0,1,,,,,,,,,,,,,,,,,,,,,,,
295990,2022-11-14_10h22.03.489,vts_reward_expectancy_bt,2022.2.4,MacIntel,60.0024001,Chrome,1440,900,,,,,0,522,,,,,,,,,,,,,,,,,139,B,hexagon,1,0,,4,,,,,,,,,,,,,,repeat,letter,lettRpt,j,0.73,vtsPrac,5,0,5,0,1,,,,,,,,,,,,,,,,,,,,,,,
295990,2022-11-14_10h22.03.489,vts_reward_expectancy_bt,2022.2.4,MacIntel,60.0024001,Chrome,1440,900,,,,,0,522,,,,,,,,,,,,,,,,,132,W,triangle,1,0,,4,,,,,,,,,,,,,,repeat,letter,lettRpt,k,0.9201,vtsPrac,6,0,6,0,1,,,,,,,,,,,,,,,,,,,,,,,
295990,2022-11-14_10h22.03.489,vts_reward_expectancy_bt,2022.2.4,MacIntel,60.0024001,Chrome,1440,900,,,,,0,522,,,,,,,,,,,,,,,,,160,H,star,1,0,,4,,,,,,,,,,,,,,switch,number,numSwt,f,0.8807,vtsPrac,7,0,7,0,1,,,,,,,,,,,,,,,,,,,,,,,
295990,2022-11-14_10h22.03.489,vts_reward_expectancy_bt,2022.2.4,MacIntel,60.0024001,Chrome,1440,900,,,,,0,522,,,,,,,,,,,,,,,,,146,D,circle,1,0,,4,,,,,,,,,,,,,,repeat,number,numRpt,d,1.698,vtsPrac,8,0,8,0,1,,,,,,,,,,,,,,,,,,,,,,,
295990,2022-11-14_10h22.03.489,vts_reward_expectancy_bt,2022.2.4,MacIntel,60.0024001,Chrome,1440,900,,,,,0,522,,,,,,,,,,,,,,,,,139,S,triangle,1,0,,4,,,,,,,,,,,,,,repeat,number,numRpt,d,0.7792,vtsPrac,9,0,9,0,1,,,,,,,,,,,,,,,,,,,,,,,
295990,2022-11-14_10h22.03.489,vts_reward_expectancy_bt,2022.2.4,MacIntel,60.0024001,Chrome,1440,900,,,,,0,522,,,,,,,,,,,,,,,,,181,Y,triangle,1,0,,4,,,,,,,,,,,,,,repeat,number,numRpt,f,0.7965,vtsPrac,10,0,10,0,1,,,,,,,,,,,,,,,,,,,,,,,
295990,2022-11-14_10h22.03.489,vts_reward_expectancy_bt,2022.2.4,MacIntel,60.0024001,Chrome,1440,900,,,,,0,522,,,,,,,,,,,,,,,,,132,F,star,1,0,,4,,,,,,,,,,,,,,repeat,number,numRpt,d,0.9148,vtsPrac,11,0,11,0,1,,,,,,,,,,,,,,,,,,,,,,,
295990,2022-11-14_10h22.03.489,vts_reward_expectancy_bt,2022.2.4,MacIntel,60.0024001,Chrome,1440,900,,,,,0,522,,,,,,,,,,,,,,,,,181,W,circle,1,0,,4,,,,,,,,,,,,,,switch,letter,lettSwt,k,1.8523,vtsPrac,12,0,12,0,1,,,,,,,,,,,,,,,,,,,,,,,
295990,2022-11-14_10h22.03.489,vts_reward_expectancy_bt,2022.2.4,MacIntel,60.0024001,Chrome,1440,900,,,,,0,522,,,,,,,,,,,,,,,,,132,H,triangle,1,0,,4,,,,,,,,,,,,,,repeat,letter,lettRpt,j,0.7963,vtsPrac,13,0,13,0,1,,,,,,,,,,,,,,,,,,,,,,,
295990,2022-11-14_10h22.03.489,vts_reward_expectancy_bt,2022.2.4,MacIntel,60.0024001,Chrome,1440,900,,,,,0,522,,,,,,,,,,,,,,,,,125,Y,star,1,0,,4,,,,,,,,,,,,,,switch,number,numSwt,d,0.9632,vtsPrac,14,0,14,0,1,,,,,,,,,,,,,,,,,,,,,,,
295990,2022-11-14_10h22.03.489,vts_reward_expectancy_bt,2022.2.4,MacIntel,60.0024001,Chrome,1440,900,,,,,0,522,,,,,,,,,,,,,,,,,139,S,triangle,-1,0,,4,,,,,,,,,,,,,,switch,no_choice,NA,,,vtsPrac,15,0,15,0,1,,,,,,,,,,,,,,,,,,,,,,,
295990,2022-11-14_10h22.03.489,vts_reward_expectancy_bt,2022.2.4,MacIntel,60.0024001,Chrome,1440,900,,,,,0,522,,,,,,,,,,,,,,,,,181,D,star,1,0,,4,,,,,,,,,,,,,,switch,letter,lettSwt,j,0.7469,vtsPrac,16,0,16,0,1,,,,,,,,,,,,,,,,,,,,,,,
295990,2022-11-14_10h22.03.489,vts_reward_expectancy_bt,2022.2.4,MacIntel,60.0024001,Chrome,1440,900,,,,,0,522,,,,,,,,,,,,,,,,,146,Y,triangle,1,0,,4,,,,,,,,,,,,,,repeat,letter,lettRpt,k,1.78,vtsPrac,17,0,17,0,1,,,,,,,,,,,,,,,,,,,,,,,
295990,2022-11-14_10h22.03.489,vts_reward_expectancy_bt,2022.2.4,MacIntel,60.0024001,Chrome,1440,900,,,,,0,522,,,,,,,,,,,,,,,,,139,S,hexagon,1,0,,4,,,,,,,,,,,,,,repeat,letter,lettRpt,k,2.0378,vtsPrac,18,0,18,0,1,,,,,,,,,,,,,,,,,,,,,,,
295990,2022-11-14_10h22.03.489,vts_reward_expectancy_bt,2022.2.4,MacIntel,60.0024001,Chrome,1440,900,,,,,0,522,,,,,,,,,,,,,,,,,174,F,star,1,0,,4,,,,,,,,,,,,,,repeat,letter,lettRpt,j,0.961,vtsPrac,19,0,19,0,1,,,,,,,,,,,,,,,,,,,,,,,
295990,2022-11-14_10h22.03.489,vts_reward_expectancy_bt,2022.2.4,MacIntel,60.0024001,Chrome,1440,900,,,,,0,522,,,,,,,,,,,,,,,,,139,H,star,1,0,,4,,,,,,,,,,,,,,repeat,letter,lettRpt,j,1.4622,vtsPrac,20,0,20,0,1,,,,,,,,,,,,,,,,,,,,,,,
295990,2022-11-14_10h22.03.489,vts_reward_expectancy_bt,2022.2.4,MacIntel,60.0024001,Chrome,1440,900,,,,,0,522,,,,,,,,,,,,,,,,,167,F,triangle,0,0,,4,,,,,,,,,,,,,,repeat,letter,NA,k,1.0357,vtsPrac,21,0,21,0,1,,,,,,,,,,,,,,,,,,,,,,,
295990,2022-11-14_10h22.03.489,vts_reward_expectancy_bt,2022.2.4,MacIntel,60.0024001,Chrome,1440,900,,,,,0,522,,,,,,,,,,,,,,,,,132,U,circle,1,1,,4,,,,,,,,,,,,,,repeat,letter,lettRpt,k,0.8116,vtsPrac,22,0,22,0,1,,,,,,,,,,,,,,,,,,,,,,,
295990,2022-11-14_10h22.03.489,vts_reward_expectancy_bt,2022.2.4,MacIntel,60.0024001,Chrome,1440,900,,,,,0,522,,,,,,,,,,,,,,,,,174,S,triangle,1,0,,4,,,,,,,,,,,,,,repeat,letter,lettRpt,k,0.8353,vtsPrac,23,0,23,0,1,,,,,,,,,,,,,,,,,,,,,,,
295990,2022-11-14_10h22.03.489,vts_reward_expectancy_bt,2022.2.4,MacIntel,60.0024001,Chrome,1440,900,,,,,0,522,,,,,,,,,,,,,,,,,181,H,circle,1,0,,4,,,,,,,,,,,,,,repeat,letter,lettRpt,j,0.8039,vtsPrac,24,0,24,0,1,,,,,,,,,,,,,,,,,,,,,,,
295990,2022-11-14_10h22.03.489,vts_reward_expectancy_bt,2022.2.4,MacIntel,60.0024001,Chrome,1440,900,,,,,0,522,,,,,,,,,,,,,,,,,125,B,star,1,0,,4,,,,,,,,,,,,,,repeat,letter,lettRpt,j,1.2999,vtsPrac,25,0,25,0,1,,,,,,,,,,,,,,,,,,,,,,,
295990,2022-11-14_10h22.03.489,vts_reward_expectancy_bt,2022.2.4,MacIntel,60.0024001,Chrome,1440,900,,,,,0,522,,,,,,,,,,,,,,,,,139,S,circle,1,0,,4,,,,,,,,,,,,,,switch,number,numSwt,d,0.8302,vtsPrac,26,0,26,0,1,,,,,,,,,,,,,,,,,,,,,,,
295990,2022-11-14_10h22.03.489,vts_reward_expectancy_bt,2022.2.4,MacIntel,60.0024001,Chrome,1440,900,,,,,0,522,,,,,,,,,,,,,,,,,174,U,triangle,1,0,,4,,,,,,,,,,,,,,repeat,number,numRpt,f,0.8321,vtsPrac,27,0,27,0,1,,,,,,,,,,,,,,,,,,,,,,,
295990,2022-11-14_10h22.03.489,vts_reward_expectancy_bt,2022.2.4,MacIntel,60.0024001,Chrome,1440,900,,,,,0,522,,,,,,,,,,,,,,,,,181,Y,circle,1,0,,4,,,,,,,,,,,,,,repeat,number,numRpt,f,0.8564,vtsPrac,28,0,28,0,1,,,,,,,,,,,,,,,,,,,,,,,
295990,2022-11-14_10h22.03.489,vts_reward_expectancy_bt,2022.2.4,MacIntel,60.0024001,Chrome,1440,900,,,,,0,522,,,,,,,,,,,,,,,,,160,U,hexagon,1,0,,4,,,,,,,,,,,,,,switch,letter,lettSwt,k,0.7524,vtsPrac,29,0,29,0,1,,,,,,,,,,,,,,,,,,,,,,,
295990,2022-11-14_10h22.03.489,vts_reward_expectancy_bt,2022.2.4,MacIntel,60.0024001,Chrome,1440,900,,,,,0,522,,,,,,,,,,,,,,,,,139,D,triangle,1,0,,4,,,,,,,,,,,,,,repeat,letter,lettRpt,j,1.1113,vtsPrac,30,0,30,0,1,,,,,,,,,,,,,,,,,,,,,,,
295990,2022-11-14_10h22.03.489,vts_reward_expectancy_bt,2022.2.4,MacIntel,60.0024001,Chrome,1440,900,,,,,0,522,,,,,,,,,,,,,,,,,146,B,star,1,0,,4,,,,,,,,,,,,,,repeat,letter,lettRpt,j,0.7146,vtsPrac,31,0,31,0,1,,,,,,,,,,,,,,,,,,,,,,,
295990,2022-11-14_10h22.03.489,vts_reward_expectancy_bt,2022.2.4,MacIntel,60.0024001,Chrome,1440,900,,,,,,,,,,,,,,,,,,,,,,,,,,,,,,,,,,,,,,,,,,,,,,,,,,,,,,,,,,,,,,,,,,,,,,,,,,,,
295990,2022-11-14_10h22.03.489,vts_reward_expectancy_bt,2022.2.4,MacIntel,60.0024001,Chrome,1440,900,,,,,,,,,,,,,,,,,,,,,,,,,,,,,,,,,,,,,,,,,,,,,,,,,,,,,,,,,,,,,,,,,,,,,,,,,,,,
295990,2022-11-14_10h22.03.489,vts_reward_expectancy_bt,2022.2.4,MacIntel,60.0024001,Chrome,1440,900,,,,,0,522,,,,,,,,,,,,,,,,,181,F,triangle,1,0,,,,,,,,,,,,,,,,switch,number,numSwt,f,1.8927,noRew,,,,,,0,0,0,0,0,1,,,,,,,,,,,,,,,,,
295990,2022-11-14_10h22.03.489,vts_reward_expectancy_bt,2022.2.4,MacIntel,60.0024001,Chrome,1440,900,,,,,0,522,,,,,,,,,,,,,,,,,160,B,circle,1,0,,,,,,,,,,,,,,,,switch,letter,lettSwt,j,1.0473,noRew,,,,,,0,1,0,1,0,1,,,,,,,,,,,,,,,,,
295990,2022-11-14_10h22.03.489,vts_reward_expectancy_bt,2022.2.4,MacIntel,60.0024001,Chrome,1440,900,,,,,0,522,,,,,,,,,,,,,,,,,125,W,triangle,1,0,,,,,,,,,,,,,,,,switch,number,numSwt,d,1.6939,noRew,,,,,,0,2,0,2,0,1,,,,,,,,,,,,,,,,,
295990,2022-11-14_10h22.03.489,vts_reward_expectancy_bt,2022.2.4,MacIntel,60.0024001,Chrome,1440,900,,,,,0,522,,,,,,,,,,,,,,,,,132,U,circle,1,0,,,,,,,,,,,,,,,,repeat,number,numRpt,d,0.7088,noRew,,,,,,0,3,0,3,0,1,,,,,,,,,,,,,,,,,
295990,2022-11-14_10h22.03.489,vts_reward_expectancy_bt,2022.2.4,MacIntel,60.0024001,Chrome,1440,900,,,,,0,522,,,,,,,,,,,,,,,,,181,F,hexagon,1,0,,,,,,,,,,,,,,,,repeat,number,numRpt,f,0.7938,noRew,,,,,,0,4,0,4,0,1,,,,,,,,,,,,,,,,,
295990,2022-11-14_10h22.03.489,vts_reward_expectancy_bt,2022.2.4,MacIntel,60.0024001,Chrome,1440,900,,,,,0,522,,,,,,,,,,,,,,,,,160,B,star,1,0,,,,,,,,,,,,,,,,repeat,number,numRpt,f,1.0951,noRew,,,,,,0,5,0,5,0,1,,,,,,,,,,,,,,,,,
295990,2022-11-14_10h22.03.489,vts_reward_expectancy_bt,2022.2.4,MacIntel,60.0024001,Chrome,1440,900,,,,,0,522,,,,,,,,,,,,,,,,,125,W,triangle,1,0,,,,,,,,,,,,,,,,repeat,number,numRpt,d,0.8533,noRew,,,,,,0,6,0,6,0,1,,,,,,,,,,,,,,,,,
295990,2022-11-14_10h22.03.489,vts_reward_expectancy_bt,2022.2.4,MacIntel,60.0024001,Chrome,1440,900,,,,,0,522,,,,,,,,,,,,,,,,,132,U,star,1,0,,,,,,,,,,,,,,,,repeat,number,numRpt,d,0.9723,noRew,,,,,,0,7,0,7,0,1,,,,,,,,,,,,,,,,,
295990,2022-11-14_10h22.03.489,vts_reward_expectancy_bt,2022.2.4,MacIntel,60.0024001,Chrome,1440,900,,,,,0,522,,,,,,,,,,,,,,,,,160,D,hexagon,1,0,,,,,,,,,,,,,,,,switch,letter,lettSwt,j,0.799,noRew,,,,,,0,8,0,8,0,1,,,,,,,,,,,,,,,,,
295990,2022-11-14_10h22.03.489,vts_reward_expectancy_bt,2022.2.4,MacIntel,60.0024001,Chrome,1440,900,,,,,0,522,,,,,,,,,,,,,,,,,132,W,star,1,0,,,,,,,,,,,,,,,,repeat,letter,lettRpt,k,0.7962,noRew,,,,,,0,9,0,9,0,1,,,,,,,,,,,,,,,,,
295990,2022-11-14_10h22.03.489,vts_reward_expectancy_bt,2022.2.4,MacIntel,60.0024001,Chrome,1440,900,,,,,0,522,,,,,,,,,,,,,,,,,167,U,circle,1,0,,,,,,,,,,,,,,,,repeat,letter,lettRpt,k,0.8357,noRew,,,,,,0,10,0,10,0,1,,,,,,,,,,,,,,,,,
295990,2022-11-14_10h22.03.489,vts_reward_expectancy_bt,2022.2.4,MacIntel,60.0024001,Chrome,1440,900,,,,,0,522,,,,,,,,,,,,,,,,,125,Y,triangle,1,0,,,,,,,,,,,,,,,,repeat,letter,lettRpt,k,0.8792,noRew,,,,,,0,11,0,11,0,1,,,,,,,,,,,,,,,,,
295990,2022-11-14_10h22.03.489,vts_reward_expectancy_bt,2022.2.4,MacIntel,60.0024001,Chrome,1440,900,,,,,0,522,,,,,,,,,,,,,,,,,146,D,hexagon,1,0,,,,,,,,,,,,,,,,repeat,letter,lettRpt,j,0.812,noRew,,,,,,0,12,0,12,0,1,,,,,,,,,,,,,,,,,
295990,2022-11-14_10h22.03.489,vts_reward_expectancy_bt,2022.2.4,MacIntel,60.0024001,Chrome,1440,900,,,,,0,522,,,,,,,,,,,,,,,,,174,H,star,1,0,,,,,,,,,,,,,,,,repeat,letter,lettRpt,j,0.9715,noRew,,,,,,0,13,0,13,0,1,,,,,,,,,,,,,,,,,
295990,2022-11-14_10h22.03.489,vts_reward_expectancy_bt,2022.2.4,MacIntel,60.0024001,Chrome,1440,900,,,,,0,522,,,,,,,,,,,,,,,,,139,B,triangle,1,0,,,,,,,,,,,,,,,,repeat,letter,lettRpt,j,0.7951,noRew,,,,,,0,14,0,14,0,1,,,,,,,,,,,,,,,,,
295990,2022-11-14_10h22.03.489,vts_reward_expectancy_bt,2022.2.4,MacIntel,60.0024001,Chrome,1440,900,,,,,0,522,,,,,,,,,,,,,,,,,181,Y,circle,1,0,,,,,,,,,,,,,,,,switch,number,numSwt,f,0.7804,noRew,,,,,,0,15,0,15,0,1,,,,,,,,,,,,,,,,,
295990,2022-11-14_10h22.03.489,vts_reward_expectancy_bt,2022.2.4,MacIntel,60.0024001,Chrome,1440,900,,,,,0,522,,,,,,,,,,,,,,,,,146,H,triangle,1,0,,,,,,,,,,,,,,,,repeat,number,numRpt,d,1.2449,noRew,,,,,,0,16,0,16,0,1,,,,,,,,,,,,,,,,,
295990,2022-11-14_10h22.03.489,vts_reward_expectancy_bt,2022.2.4,MacIntel,60.0024001,Chrome,1440,900,,,,,0,522,,,,,,,,,,,,,,,,,132,S,hexagon,1,0,,,,,,,,,,,,,,,,repeat,number,numRpt,d,0.7852,noRew,,,,,,0,17,0,17,0,1,,,,,,,,,,,,,,,,,
295990,2022-11-14_10h22.03.489,vts_reward_expectancy_bt,2022.2.4,MacIntel,60.0024001,Chrome,1440,900,,,,,0,522,,,,,,,,,,,,,,,,,160,D,circle,1,0,,,,,,,,,,,,,,,,repeat,number,numRpt,f,0.9547,noRew,,,,,,0,18,0,18,0,1,,,,,,,,,,,,,,,,,
295990,2022-11-14_10h22.03.489,vts_reward_expectancy_bt,2022.2.4,MacIntel,60.0024001,Chrome,1440,900,,,,,0,522,,,,,,,,,,,,,,,,,181,B,triangle,1,0,,,,,,,,,,,,,,,,repeat,number,numRpt,f,0.7152,noRew,,,,,,0,19,0,19,0,1,,,,,,,,,,,,,,,,,
295990,2022-11-14_10h22.03.489,vts_reward_expectancy_bt,2022.2.4,MacIntel,60.0024001,Chrome,1440,900,,,,,0,522,,,,,,,,,,,,,,,,,139,B,hexagon,1,0,,,,,,,,,,,,,,,,repeat,number,numRpt,d,1.6797,noRew,,,,,,0,20,0,20,0,1,,,,,,,,,,,,,,,,,
295990,2022-11-14_10h22.03.489,vts_reward_expectancy_bt,2022.2.4,MacIntel,60.0024001,Chrome,1440,900,,,,,0,522,,,,,,,,,,,,,,,,,167,S,triangle,1,0,,,,,,,,,,,,,,,,repeat,number,numRpt,f,0.98,noRew,,,,,,0,21,0,21,0,1,,,,,,,,,,,,,,,,,
295990,2022-11-14_10h22.03.489,vts_reward_expectancy_bt,2022.2.4,MacIntel,60.0024001,Chrome,1440,900,,,,,0,522,,,,,,,,,,,,,,,,,132,D,star,1,0,,,,,,,,,,,,,,,,repeat,number,numRpt,d,1.8611,noRew,,,,,,0,22,0,22,0,1,,,,,,,,,,,,,,,,,
295990,2022-11-14_10h22.03.489,vts_reward_expectancy_bt,2022.2.4,MacIntel,60.0024001,Chrome,1440,900,,,,,0,522,,,,,,,,,,,,,,,,,125,H,hexagon,1,0,,,,,,,,,,,,,,,,repeat,number,numRpt,d,0.8605,noRew,,,,,,0,23,0,23,0,1,,,,,,,,,,,,,,,,,
295990,2022-11-14_10h22.03.489,vts_reward_expectancy_bt,2022.2.4,MacIntel,60.0024001,Chrome,1440,900,,,,,0,522,,,,,,,,,,,,,,,,,125,W,hexagon,1,0,,,,,,,,,,,,,,,,repeat,number,numRpt,d,1.0515,noRew,,,,,,0,24,0,24,0,1,,,,,,,,,,,,,,,,,
295990,2022-11-14_10h22.03.489,vts_reward_expectancy_bt,2022.2.4,MacIntel,60.0024001,Chrome,1440,900,,,,,0,522,,,,,,,,,,,,,,,,,167,S,star,1,0,,,,,,,,,,,,,,,,repeat,number,numRpt,f,2.2135,noRew,,,,,,0,25,0,25,0,1,,,,,,,,,,,,,,,,,
295990,2022-11-14_10h22.03.489,vts_reward_expectancy_bt,2022.2.4,MacIntel,60.0024001,Chrome,1440,900,,,,,0,522,,,,,,,,,,,,,,,,,160,D,triangle,1,0,,,,,,,,,,,,,,,,repeat,number,numRpt,f,1.3349,noRew,,,,,,0,26,0,26,0,1,,,,,,,,,,,,,,,,,
295990,2022-11-14_10h22.03.489,vts_reward_expectancy_bt,2022.2.4,MacIntel,60.0024001,Chrome,1440,900,,,,,0,522,,,,,,,,,,,,,,,,,146,U,star,1,0,,,,,,,,,,,,,,,,repeat,number,numRpt,d,1.4793,noRew,,,,,,0,27,0,27,0,1,,,,,,,,,,,,,,,,,
295990,2022-11-14_10h22.03.489,vts_reward_expectancy_bt,2022.2.4,MacIntel,60.0024001,Chrome,1440,900,,,,,0,522,,,,,,,,,,,,,,,,,167,S,triangle,1,0,,,,,,,,,,,,,,,,switch,letter,lettSwt,k,1.097,noRew,,,,,,0,28,0,28,0,1,,,,,,,,,,,,,,,,,
295990,2022-11-14_10h22.03.489,vts_reward_expectancy_bt,2022.2.4,MacIntel,60.0024001,Chrome,1440,900,,,,,0,522,,,,,,,,,,,,,,,,,174,F,hexagon,1,0,,,,,,,,,,,,,,,,repeat,letter,lettRpt,j,0.8712,noRew,,,,,,0,29,0,29,0,1,,,,,,,,,,,,,,,,,
295990,2022-11-14_10h22.03.489,vts_reward_expectancy_bt,2022.2.4,MacIntel,60.0024001,Chrome,1440,900,,,,,0,522,,,,,,,,,,,,,,,,,132,W,star,1,0,,,,,,,,,,,,,,,,repeat,letter,lettRpt,k,1.0775,noRew,,,,,,0,30,0,30,0,1,,,,,,,,,,,,,,,,,
295990,2022-11-14_10h22.03.489,vts_reward_expectancy_bt,2022.2.4,MacIntel,60.0024001,Chrome,1440,900,,,,,0,522,,,,,,,,,,,,,,,,,160,D,circle,1,0,,,,,,,,,,,,,,,,repeat,letter,lettRpt,j,1.8176,noRew,,,,,,0,31,0,31,0,1,,,,,,,,,,,,,,,,,
295990,2022-11-14_10h22.03.489,vts_reward_expectancy_bt,2022.2.4,MacIntel,60.0024001,Chrome,1440,900,,,,,0,522,,,,,,,,,,,,,,,,,139,F,star,1,0,,,,,,,,,,,,,,,,repeat,letter,lettRpt,j,2.1987,noRew,,,,,,0,32,0,32,0,1,,,,,,,,,,,,,,,,,
295990,2022-11-14_10h22.03.489,vts_reward_expectancy_bt,2022.2.4,MacIntel,60.0024001,Chrome,1440,900,,,,,0,522,,,,,,,,,,,,,,,,,174,D,circle,1,0,,,,,,,,,,,,,,,,repeat,letter,lettRpt,j,1.4879,noRew,,,,,,0,33,0,33,0,1,,,,,,,,,,,,,,,,,
295990,2022-11-14_10h22.03.489,vts_reward_expectancy_bt,2022.2.4,MacIntel,60.0024001,Chrome,1440,900,,,,,0,522,,,,,,,,,,,,,,,,,160,U,triangle,1,0,,,,,,,,,,,,,,,,repeat,letter,lettRpt,k,0.7777,noRew,,,,,,0,34,0,34,0,1,,,,,,,,,,,,,,,,,
295990,2022-11-14_10h22.03.489,vts_reward_expectancy_bt,2022.2.4,MacIntel,60.0024001,Chrome,1440,900,,,,,0,522,,,,,,,,,,,,,,,,,125,Y,star,1,0,,,,,,,,,,,,,,,,switch,number,numSwt,d,1.8956,noRew,,,,,,0,35,0,35,0,1,,,,,,,,,,,,,,,,,
295990,2022-11-14_10h22.03.489,vts_reward_expectancy_bt,2022.2.4,MacIntel,60.0024001,Chrome,1440,900,,,,,0,522,,,,,,,,,,,,,,,,,174,B,circle,-1,0,,,,,,,,,,,,,,,,switch,no_choice,NA,,,noRew,,,,,,0,36,0,36,0,1,,,,,,,,,,,,,,,,,
295990,2022-11-14_10h22.03.489,vts_reward_expectancy_bt,2022.2.4,MacIntel,60.0024001,Chrome,1440,900,,,,,0,522,,,,,,,,,,,,,,,,,125,F,hexagon,1,0,,,,,,,,,,,,,,,,switch,number,numSwt,d,1.8558,noRew,,,,,,0,37,0,37,0,1,,,,,,,,,,,,,,,,,
295990,2022-11-14_10h22.03.489,vts_reward_expectancy_bt,2022.2.4,MacIntel,60.0024001,Chrome,1440,900,,,,,0,522,,,,,,,,,,,,,,,,,132,Y,star,1,0,,,,,,,,,,,,,,,,repeat,number,numRpt,d,2.3793,noRew,,,,,,0,38,0,38,0,1,,,,,,,,,,,,,,,,,
295990,2022-11-14_10h22.03.489,vts_reward_expectancy_bt,2022.2.4,MacIntel,60.0024001,Chrome,1440,900,,,,,0,522,,,,,,,,,,,,,,,,,139,S,triangle,1,0,,,,,,,,,,,,,,,,repeat,number,numRpt,d,1.3617,noRew,,,,,,0,39,0,39,0,1,,,,,,,,,,,,,,,,,
295990,2022-11-14_10h22.03.489,vts_reward_expectancy_bt,2022.2.4,MacIntel,60.0024001,Chrome,1440,900,,,,,0,522,,,,,,,,,,,,,,,,,139,F,star,1,0,,,,,,,,,,,,,,,,repeat,number,numRpt,d,0.8981,noRew,,,,,,0,40,0,40,0,1,,,,,,,,,,,,,,,,,
295990,2022-11-14_10h22.03.489,vts_reward_expectancy_bt,2022.2.4,MacIntel,60.0024001,Chrome,1440,900,,,,,0,522,,,,,,,,,,,,,,,,,181,H,triangle,1,0,,,,,,,,,,,,,,,,repeat,number,numRpt,f,1.6678,noRew,,,,,,0,41,0,41,0,1,,,,,,,,,,,,,,,,,
295990,2022-11-14_10h22.03.489,vts_reward_expectancy_bt,2022.2.4,MacIntel,60.0024001,Chrome,1440,900,,,,,0,522,,,,,,,,,,,,,,,,,125,W,circle,0,0,,,,,,,,,,,,,,,,switch,letter,NA,j,1.1461,noRew,,,,,,0,42,0,42,0,1,,,,,,,,,,,,,,,,,
295990,2022-11-14_10h22.03.489,vts_reward_expectancy_bt,2022.2.4,MacIntel,60.0024001,Chrome,1440,900,,,,,0,522,,,,,,,,,,,,,,,,,167,B,triangle,1,1,,,,,,,,,,,,,,,,repeat,letter,lettRpt,j,1.1778,noRew,,,,,,0,43,0,43,0,1,,,,,,,,,,,,,,,,,
295990,2022-11-14_10h22.03.489,vts_reward_expectancy_bt,2022.2.4,MacIntel,60.0024001,Chrome,1440,900,,,,,0,522,,,,,,,,,,,,,,,,,125,F,star,1,0,,,,,,,,,,,,,,,,repeat,letter,lettRpt,j,1.647,noRew,,,,,,0,44,0,44,0,1,,,,,,,,,,,,,,,,,
295990,2022-11-14_10h22.03.489,vts_reward_expectancy_bt,2022.2.4,MacIntel,60.0024001,Chrome,1440,900,,,,,0,522,,,,,,,,,,,,,,,,,160,B,circle,1,0,,,,,,,,,,,,,,,,repeat,letter,lettRpt,j,0.8475,noRew,,,,,,0,45,0,45,0,1,,,,,,,,,,,,,,,,,
295990,2022-11-14_10h22.03.489,vts_reward_expectancy_bt,2022.2.4,MacIntel,60.0024001,Chrome,1440,900,,,,,0,522,,,,,,,,,,,,,,,,,132,S,circle,1,0,,,,,,,,,,,,,,,,repeat,letter,lettRpt,k,0.8385,noRew,,,,,,0,46,0,46,0,1,,,,,,,,,,,,,,,,,
295990,2022-11-14_10h22.03.489,vts_reward_expectancy_bt,2022.2.4,MacIntel,60.0024001,Chrome,1440,900,,,,,0,522,,,,,,,,,,,,,,,,,146,U,star,1,0,,,,,,,,,,,,,,,,repeat,letter,lettRpt,k,0.8518,noRew,,,,,,0,47,0,47,0,1,,,,,,,,,,,,,,,,,
295990,2022-11-14_10h22.03.489,vts_reward_expectancy_bt,2022.2.4,MacIntel,60.0024001,Chrome,1440,900,,,,,0,522,,,,,,,,,,,,,,,,,125,U,star,1,0,,,,,,,,,,,,,,,,repeat,letter,lettRpt,k,1.0157,noRew,,,,,,0,48,0,48,0,1,,,,,,,,,,,,,,,,,
295990,2022-11-14_10h22.03.489,vts_reward_expectancy_bt,2022.2.4,MacIntel,60.0024001,Chrome,1440,900,,,,,0,522,,,,,,,,,,,,,,,,,160,H,triangle,1,0,,,,,,,,,,,,,,,,repeat,letter,lettRpt,j,0.8962,noRew,,,,,,0,49,0,49,0,1,,,,,,,,,,,,,,,,,
295990,2022-11-14_10h22.03.489,vts_reward_expectancy_bt,2022.2.4,MacIntel,60.0024001,Chrome,1440,900,,,,,0,522,,,,,,,,,,,,,,,,,174,Y,hexagon,-1,0,,,,,,,,,,,,,,,,switch,no_choice,NA,,,noRew,,,,,,0,50,0,50,0,1,,,,,,,,,,,,,,,,,
295990,2022-11-14_10h22.03.489,vts_reward_expectancy_bt,2022.2.4,MacIntel,60.0024001,Chrome,1440,900,,,,,0,522,,,,,,,,,,,,,,,,,132,W,triangle,1,0,,,,,,,,,,,,,,,,switch,number,numSwt,d,1.816,noRew,,,,,,0,51,0,51,0,1,,,,,,,,,,,,,,,,,
295990,2022-11-14_10h22.03.489,vts_reward_expectancy_bt,2022.2.4,MacIntel,60.0024001,Chrome,1440,900,,,,,0,522,,,,,,,,,,,,,,,,,125,U,circle,1,0,,,,,,,,,,,,,,,,repeat,number,numRpt,d,1.371,noRew,,,,,,0,52,0,52,0,1,,,,,,,,,,,,,,,,,
295990,2022-11-14_10h22.03.489,vts_reward_expectancy_bt,2022.2.4,MacIntel,60.0024001,Chrome,1440,900,,,,,0,522,,,,,,,,,,,,,,,,,167,S,hexagon,1,0,,,,,,,,,,,,,,,,repeat,number,numRpt,f,1.7102,noRew,,,,,,0,53,0,53,0,1,,,,,,,,,,,,,,,,,
295990,2022-11-14_10h22.03.489,vts_reward_expectancy_bt,2022.2.4,MacIntel,60.0024001,Chrome,1440,900,,,,,0,522,,,,,,,,,,,,,,,,,139,D,hexagon,1,0,,,,,,,,,,,,,,,,repeat,number,numRpt,d,2.1286,noRew,,,,,,0,54,0,54,0,1,,,,,,,,,,,,,,,,,
295990,2022-11-14_10h22.03.489,vts_reward_expectancy_bt,2022.2.4,MacIntel,60.0024001,Chrome,1440,900,,,,,0,522,,,,,,,,,,,,,,,,,146,B,circle,1,0,,,,,,,,,,,,,,,,repeat,number,numRpt,d,1.9143,noRew,,,,,,0,55,0,55,0,1,,,,,,,,,,,,,,,,,
295990,2022-11-14_10h22.03.489,vts_reward_expectancy_bt,2022.2.4,MacIntel,60.0024001,Chrome,1440,900,,,,,0,522,,,,,,,,,,,,,,,,,181,F,hexagon,1,0,,,,,,,,,,,,,,,,repeat,number,numRpt,f,1.4145,noRew,,,,,,0,56,0,56,0,1,,,,,,,,,,,,,,,,,
295990,2022-11-14_10h22.03.489,vts_reward_expectancy_bt,2022.2.4,MacIntel,60.0024001,Chrome,1440,900,,,,,0,522,,,,,,,,,,,,,,,,,160,H,triangle,1,0,,,,,,,,,,,,,,,,switch,letter,lettSwt,j,1.3028,noRew,,,,,,0,57,0,57,0,1,,,,,,,,,,,,,,,,,
295990,2022-11-14_10h22.03.489,vts_reward_expectancy_bt,2022.2.4,MacIntel,60.0024001,Chrome,1440,900,,,,,0,522,,,,,,,,,,,,,,,,,125,U,triangle,1,0,,,,,,,,,,,,,,,,repeat,letter,lettRpt,k,1.4458,noRew,,,,,,0,58,0,58,0,1,,,,,,,,,,,,,,,,,
295990,2022-11-14_10h22.03.489,vts_reward_expectancy_bt,2022.2.4,MacIntel,60.0024001,Chrome,1440,900,,,,,0,522,,,,,,,,,,,,,,,,,167,D,star,1,0,,,,,,,,,,,,,,,,repeat,letter,lettRpt,j,1.0557,noRew,,,,,,0,59,0,59,0,1,,,,,,,,,,,,,,,,,
295990,2022-11-14_10h22.03.489,vts_reward_expectancy_bt,2022.2.4,MacIntel,60.0024001,Chrome,1440,900,,,,,0,522,,,,,,,,,,,,,,,,,167,H,triangle,1,0,,,,,,,,,,,,,,,,repeat,letter,lettRpt,j,0.9516,noRew,,,,,,0,60,0,60,0,1,,,,,,,,,,,,,,,,,
295990,2022-11-14_10h22.03.489,vts_reward_expectancy_bt,2022.2.4,MacIntel,60.0024001,Chrome,1440,900,,,,,0,522,,,,,,,,,,,,,,,,,132,B,circle,1,0,,,,,,,,,,,,,,,,repeat,letter,lettRpt,j,0.6796,noRew,,,,,,0,61,0,61,0,1,,,,,,,,,,,,,,,,,
295990,2022-11-14_10h22.03.489,vts_reward_expectancy_bt,2022.2.4,MacIntel,60.0024001,Chrome,1440,900,,,,,0,522,,,,,,,,,,,,,,,,,181,D,hexagon,1,0,,,,,,,,,,,,,,,,repeat,letter,lettRpt,j,1.0641,noRew,,,,,,0,62,0,62,0,1,,,,,,,,,,,,,,,,,
295990,2022-11-14_10h22.03.489,vts_reward_expectancy_bt,2022.2.4,MacIntel,60.0024001,Chrome,1440,900,,,,,0,522,,,,,,,,,,,,,,,,,146,F,star,1,0,,,,,,,,,,,,,,,,repeat,letter,lettRpt,j,1.1272,noRew,,,,,,0,63,0,63,0,1,,,,,,,,,,,,,,,,,
295990,2022-11-14_10h22.03.489,vts_reward_expectancy_bt,2022.2.4,MacIntel,60.0024001,Chrome,1440,900,,,,,,,,,,,,,,,,,,,,,,,,,,,,,,,,,,,,,,,,,,,,,,,,,,,,,,,,,,,,,,,,,,,,,,,,,,,,
295990,2022-11-14_10h22.03.489,vts_reward_expectancy_bt,2022.2.4,MacIntel,60.0024001,Chrome,1440,900,,,,,10,532,,,,,,,,,,,,,,,,,174,F,triangle,1,0,,,,,,,,,,,,,,,,switch,number,numSwt,f,1.3311,Hi,,,,,,0,,,,,,space,10.6375,low,0,0,0,0,1,,,,,,,,,
295990,2022-11-14_10h22.03.489,vts_reward_expectancy_bt,2022.2.4,MacIntel,60.0024001,Chrome,1440,900,,,,,10,542,,,,,,,,,,,,,,,,,125,H,hexagon,1,0,,,,,,,,,,,,,,,,repeat,number,numRpt,d,1.0975,Lo,,,,,,0,,,,,,,,low,1,0,1,0,1,,,,,,,,,
295990,2022-11-14_10h22.03.489,vts_reward_expectancy_bt,2022.2.4,MacIntel,60.0024001,Chrome,1440,900,,,,,0,542,,,,,,,,,,,,,,,,,160,Y,circle,0,0,,,,,,,,,,,,,,,,repeat,number,NA,d,1.6864,Lo,,,,,,0,,,,,,,,low,2,0,2,0,1,,,,,,,,,
295990,2022-11-14_10h22.03.489,vts_reward_expectancy_bt,2022.2.4,MacIntel,60.0024001,Chrome,1440,900,,,,,10,552,,,,,,,,,,,,,,,,,167,B,star,1,1,,,,,,,,,,,,,,,,switch,letter,lettSwt,j,0.762,Hi,,,,,,0,,,,,,,,low,3,0,3,0,1,,,,,,,,,
295990,2022-11-14_10h22.03.489,vts_reward_expectancy_bt,2022.2.4,MacIntel,60.0024001,Chrome,1440,900,,,,,10,562,,,,,,,,,,,,,,,,,181,D,triangle,1,0,,,,,,,,,,,,,,,,repeat,letter,lettRpt,j,0.5792,Hi,,,,,,0,,,,,,,,low,4,0,4,0,1,,,,,,,,,
295990,2022-11-14_10h22.03.489,vts_reward_expectancy_bt,2022.2.4,MacIntel,60.0024001,Chrome,1440,900,,,,,1,563,,,,,,,,,,,,,,,,,132,W,hexagon,1,0,,,,,,,,,,,,,,,,repeat,letter,lettRpt,k,0.4864,Lo,,,,,,0,,,,,,,,low,5,0,5,0,1,,,,,,,,,
295990,2022-11-14_10h22.03.489,vts_reward_expectancy_bt,2022.2.4,MacIntel,60.0024001,Chrome,1440,900,,,,,1,564,,,,,,,,,,,,,,,,,146,S,circle,1,0,,,,,,,,,,,,,,,,repeat,letter,lettRpt,k,1.4312,Lo,,,,,,0,,,,,,,,low,6,0,6,0,1,,,,,,,,,
295990,2022-11-14_10h22.03.489,vts_reward_expectancy_bt,2022.2.4,MacIntel,60.0024001,Chrome,1440,900,,,,,0,564,,,,,,,,,,,,,,,,,139,U,star,-1,0,,,,,,,,,,,,,,,,switch,no_choice,NA,,,Lo,,,,,,0,,,,,,,,low,7,0,7,0,1,,,,,,,,,
295990,2022-11-14_10h22.03.489,vts_reward_expectancy_bt,2022.2.4,MacIntel,60.0024001,Chrome,1440,900,,,,,10,574,,,,,,,,,,,,,,,,,174,F,triangle,1,0,,,,,,,,,,,,,,,,switch,number,numSwt,f,1.4792,Hi,,,,,,0,,,,,,,,low,8,0,8,0,1,,,,,,,,,
295990,2022-11-14_10h22.03.489,vts_reward_expectancy_bt,2022.2.4,MacIntel,60.0024001,Chrome,1440,900,,,,,0,574,,,,,,,,,,,,,,,,,125,H,star,1,0,,,,,,,,,,,,,,,,repeat,number,numRpt,d,0.9794,Hi,,,,,,0,,,,,,,,low,9,0,9,0,1,,,,,,,,,
295990,2022-11-14_10h22.03.489,vts_reward_expectancy_bt,2022.2.4,MacIntel,60.0024001,Chrome,1440,900,,,,,0,574,,,,,,,,,,,,,,,,,160,Y,hexagon,0,0,,,,,,,,,,,,,,,,repeat,number,NA,d,1.4804,Hi,,,,,,0,,,,,,,,low,10,0,10,0,1,,,,,,,,,
295990,2022-11-14_10h22.03.489,vts_reward_expectancy_bt,2022.2.4,MacIntel,60.0024001,Chrome,1440,900,,,,,10,584,,,,,,,,,,,,,,,,,167,B,circle,1,1,,,,,,,,,,,,,,,,repeat,number,numRpt,f,1.2649,Lo,,,,,,0,,,,,,,,low,11,0,11,0,1,,,,,,,,,
295990,2022-11-14_10h22.03.489,vts_reward_expectancy_bt,2022.2.4,MacIntel,60.0024001,Chrome,1440,900,,,,,10,594,,,,,,,,,,,,,,,,,181,D,hexagon,1,0,,,,,,,,,,,,,,,,repeat,number,numRpt,f,2.4644,Lo,,,,,,0,,,,,,,,low,12,0,12,0,1,,,,,,,,,
295990,2022-11-14_10h22.03.489,vts_reward_expectancy_bt,2022.2.4,MacIntel,60.0024001,Chrome,1440,900,,,,,10,604,,,,,,,,,,,,,,,,,132,W,circle,1,0,,,,,,,,,,,,,,,,switch,letter,lettSwt,k,1.8803,Lo,,,,,,0,,,,,,,,low,13,0,13,0,1,,,,,,,,,
295990,2022-11-14_10h22.03.489,vts_reward_expectancy_bt,2022.2.4,MacIntel,60.0024001,Chrome,1440,900,,,,,0,604,,,,,,,,,,,,,,,,,146,S,star,1,0,,,,,,,,,,,,,,,,repeat,letter,lettRpt,k,0.9989,Hi,,,,,,0,,,,,,,,low,14,0,14,0,1,,,,,,,,,
295990,2022-11-14_10h22.03.489,vts_reward_expectancy_bt,2022.2.4,MacIntel,60.0024001,Chrome,1440,900,,,,,0,604,,,,,,,,,,,,,,,,,139,U,triangle,1,0,,,,,,,,,,,,,,,,switch,number,numSwt,d,2.3446,Hi,,,,,,0,,,,,,,,low,15,0,15,0,1,,,,,,,,,
295990,2022-11-14_10h22.03.489,vts_reward_expectancy_bt,2022.2.4,MacIntel,60.0024001,Chrome,1440,900,,,,,0,604,,,,,,,,,,,,,,,,,174,B,triangle,0,0,,,,,,,,,,,,,,,,repeat,number,NA,d,1.6966,Hi,,,,,,0,,,,,,,,low,16,0,16,0,1,,,,,,,,,
295990,2022-11-14_10h22.03.489,vts_reward_expectancy_bt,2022.2.4,MacIntel,60.0024001,Chrome,1440,900,,,,,0,604,,,,,,,,,,,,,,,,,160,D,star,1,1,,,,,,,,,,,,,,,,repeat,number,numRpt,f,2.3628,Hi,,,,,,0,,,,,,,,low,17,0,17,0,1,,,,,,,,,
295990,2022-11-14_10h22.03.489,vts_reward_expectancy_bt,2022.2.4,MacIntel,60.0024001,Chrome,1440,900,,,,,0,604,,,,,,,,,,,,,,,,,139,Y,circle,0,0,,,,,,,,,,,,,,,,repeat,number,NA,f,1.7505,Hi,,,,,,0,,,,,,,,low,18,0,18,0,1,,,,,,,,,
295990,2022-11-14_10h22.03.489,vts_reward_expectancy_bt,2022.2.4,MacIntel,60.0024001,Chrome,1440,900,,,,,1,605,,,,,,,,,,,,,,,,,125,F,hexagon,1,1,,,,,,,,,,,,,,,,repeat,number,numRpt,d,1.3973,Lo,,,,,,0,,,,,,,,low,19,0,19,0,1,,,,,,,,,
295990,2022-11-14_10h22.03.489,vts_reward_expectancy_bt,2022.2.4,MacIntel,60.0024001,Chrome,1440,900,,,,,0,605,,,,,,,,,,,,,,,,,132,H,triangle,1,0,,,,,,,,,,,,,,,,switch,letter,lettSwt,j,1.102,Hi,,,,,,0,,,,,,,,low,20,0,20,0,1,,,,,,,,,
295990,2022-11-14_10h22.03.489,vts_reward_expectancy_bt,2022.2.4,MacIntel,60.0024001,Chrome,1440,900,,,,,1,606,,,,,,,,,,,,,,,,,167,S,star,1,0,,,,,,,,,,,,,,,,switch,number,numSwt,f,0.1858,Hi,,,,,,0,,,,,,,,low,21,0,21,0,1,,,,,,,,,
295990,2022-11-14_10h22.03.489,vts_reward_expectancy_bt,2022.2.4,MacIntel,60.0024001,Chrome,1440,900,,,,,1,607,,,,,,,,,,,,,,,,,181,W,hexagon,1,0,,,,,,,,,,,,,,,,switch,letter,lettSwt,k,0.1797,Lo,,,,,,0,,,,,,,,low,22,0,22,0,1,,,,,,,,,
295990,2022-11-14_10h22.03.489,vts_reward_expectancy_bt,2022.2.4,MacIntel,60.0024001,Chrome,1440,900,,,,,10,617,,,,,,,,,,,,,,,,,146,U,circle,1,0,,,,,,,,,,,,,,,,repeat,letter,lettRpt,k,0.6384,Lo,,,,,,0,,,,,,,,low,23,0,23,0,1,,,,,,,,,
295990,2022-11-14_10h22.03.489,vts_reward_expectancy_bt,2022.2.4,MacIntel,60.0024001,Chrome,1440,900,,,,,0,617,,,,,,,,,,,,,,,,,181,Y,star,0,0,,,,,,,,,,,,,,,,repeat,letter,NA,j,0.3101,Lo,,,,,,0,,,,,,,,low,24,0,24,0,1,,,,,,,,,
295990,2022-11-14_10h22.03.489,vts_reward_expectancy_bt,2022.2.4,MacIntel,60.0024001,Chrome,1440,900,,,,,0,617,,,,,,,,,,,,,,,,,146,W,circle,0,1,,,,,,,,,,,,,,,,switch,number,NA,f,0.1511,Lo,,,,,,0,,,,,,,,low,25,0,25,0,1,,,,,,,,,
295990,2022-11-14_10h22.03.489,vts_reward_expectancy_bt,2022.2.4,MacIntel,60.0024001,Chrome,1440,900,,,,,0,617,,,,,,,,,,,,,,,,,125,U,triangle,0,1,,,,,,,,,,,,,,,,switch,letter,NA,j,0.382,Lo,,,,,,0,,,,,,,,low,26,0,26,0,1,,,,,,,,,
295990,2022-11-14_10h22.03.489,vts_reward_expectancy_bt,2022.2.4,MacIntel,60.0024001,Chrome,1440,900,,,,,0,617,,,,,,,,,,,,,,,,,132,F,hexagon,0,1,,,,,,,,,,,,,,,,switch,number,NA,f,0.0036,Lo,,,,,,0,,,,,,,,low,27,0,27,0,1,,,,,,,,,
295990,2022-11-14_10h22.03.489,vts_reward_expectancy_bt,2022.2.4,MacIntel,60.0024001,Chrome,1440,900,,,,,1,618,,,,,,,,,,,,,,,,,160,B,hexagon,1,1,,,,,,,,,,,,,,,,repeat,number,numRpt,f,0.1811,Lo,,,,,,0,,,,,,,,low,28,0,28,0,1,,,,,,,,,
295990,2022-11-14_10h22.03.489,vts_reward_expectancy_bt,2022.2.4,MacIntel,60.0024001,Chrome,1440,900,,,,,0,618,,,,,,,,,,,,,,,,,174,H,star,1,0,,,,,,,,,,,,,,,,repeat,number,numRpt,f,1.2819,Hi,,,,,,0,,,,,,,,low,29,0,29,0,1,,,,,,,,,
295990,2022-11-14_10h22.03.489,vts_reward_expectancy_bt,2022.2.4,MacIntel,60.0024001,Chrome,1440,900,,,,,10,628,,,,,,,,,,,,,,,,,167,S,circle,1,0,,,,,,,,,,,,,,,,switch,letter,lettSwt,k,0.5959,Lo,,,,,,0,,,,,,,,low,30,0,30,0,1,,,,,,,,,
295990,2022-11-14_10h22.03.489,vts_reward_expectancy_bt,2022.2.4,MacIntel,60.0024001,Chrome,1440,900,,,,,1,629,,,,,,,,,,,,,,,,,139,D,triangle,1,0,,,,,,,,,,,,,,,,repeat,letter,lettRpt,j,0.8324,Hi,,,,,,0,,,,,,,,low,31,0,31,0,1,,,,,,,,,
295990,2022-11-14_10h22.03.489,vts_reward_expectancy_bt,2022.2.4,MacIntel,60.0024001,Chrome,1440,900,,,,,0,629,,,,,,,,,,,,,,,,,125,F,star,1,0,,,,,,,,,,,,,,,,repeat,letter,lettRpt,j,1.2787,Hi,,,,,,1,,,,,,space,3.0078,low,0,0,0,0,1,,,,,,,,,
295990,2022-11-14_10h22.03.489,vts_reward_expectancy_bt,2022.2.4,MacIntel,60.0024001,Chrome,1440,900,,,,,0,629,,,,,,,,,,,,,,,,,139,D,triangle,1,0,,,,,,,,,,,,,,,,repeat,letter,lettRpt,j,0.706,Hi,,,,,,1,,,,,,,,low,1,0,1,0,1,,,,,,,,,
295990,2022-11-14_10h22.03.489,vts_reward_expectancy_bt,2022.2.4,MacIntel,60.0024001,Chrome,1440,900,,,,,10,639,,,,,,,,,,,,,,,,,132,Y,circle,1,0,,,,,,,,,,,,,,,,switch,number,numSwt,d,0.8824,Lo,,,,,,1,,,,,,,,low,2,0,2,0,1,,,,,,,,,
295990,2022-11-14_10h22.03.489,vts_reward_expectancy_bt,2022.2.4,MacIntel,60.0024001,Chrome,1440,900,,,,,10,649,,,,,,,,,,,,,,,,,160,B,hexagon,1,0,,,,,,,,,,,,,,,,repeat,number,numRpt,f,1.0179,Lo,,,,,,1,,,,,,,,low,3,0,3,0,1,,,,,,,,,
295990,2022-11-14_10h22.03.489,vts_reward_expectancy_bt,2022.2.4,MacIntel,60.0024001,Chrome,1440,900,,,,,10,659,,,,,,,,,,,,,,,,,167,U,star,1,0,,,,,,,,,,,,,,,,repeat,number,numRpt,f,0.784,Hi,,,,,,1,,,,,,,,low,4,0,4,0,1,,,,,,,,,
295990,2022-11-14_10h22.03.489,vts_reward_expectancy_bt,2022.2.4,MacIntel,60.0024001,Chrome,1440,900,,,,,10,669,,,,,,,,,,,,,,,,,181,W,triangle,1,0,,,,,,,,,,,,,,,,repeat,number,numRpt,f,0.8459,Hi,,,,,,1,,,,,,,,low,5,0,5,0,1,,,,,,,,,
295990,2022-11-14_10h22.03.489,vts_reward_expectancy_bt,2022.2.4,MacIntel,60.0024001,Chrome,1440,900,,,,,10,679,,,,,,,,,,,,,,,,,174,H,circle,1,0,,,,,,,,,,,,,,,,repeat,number,numRpt,f,1.1963,Lo,,,,,,1,,,,,,,,low,6,0,6,0,1,,,,,,,,,
295990,2022-11-14_10h22.03.489,vts_reward_expectancy_bt,2022.2.4,MacIntel,60.0024001,Chrome,1440,900,,,,,10,689,,,,,,,,,,,,,,,,,146,S,hexagon,1,0,,,,,,,,,,,,,,,,repeat,number,numRpt,d,0.7144,Lo,,,,,,1,,,,,,,,low,7,0,7,0,1,,,,,,,,,
295990,2022-11-14_10h22.03.489,vts_reward_expectancy_bt,2022.2.4,MacIntel,60.0024001,Chrome,1440,900,,,,,1,690,,,,,,,,,,,,,,,,,125,F,triangle,1,0,,,,,,,,,,,,,,,,repeat,number,numRpt,d,0.6967,Hi,,,,,,1,,,,,,,,low,8,0,8,0,1,,,,,,,,,
295990,2022-11-14_10h22.03.489,vts_reward_expectancy_bt,2022.2.4,MacIntel,60.0024001,Chrome,1440,900,,,,,0,690,,,,,,,,,,,,,,,,,139,D,star,1,0,,,,,,,,,,,,,,,,repeat,number,numRpt,d,2.2054,Hi,,,,,,1,,,,,,,,low,9,0,9,0,1,,,,,,,,,
295990,2022-11-14_10h22.03.489,vts_reward_expectancy_bt,2022.2.4,MacIntel,60.0024001,Chrome,1440,900,,,,,1,691,,,,,,,,,,,,,,,,,132,Y,circle,1,0,,,,,,,,,,,,,,,,repeat,number,numRpt,d,0.7796,Lo,,,,,,1,,,,,,,,low,10,0,10,0,1,,,,,,,,,
295990,2022-11-14_10h22.03.489,vts_reward_expectancy_bt,2022.2.4,MacIntel,60.0024001,Chrome,1440,900,,,,,1,692,,,,,,,,,,,,,,,,,160,B,hexagon,1,0,,,,,,,,,,,,,,,,repeat,number,numRpt,f,1.1157,Lo,,,,,,1,,,,,,,,low,11,0,11,0,1,,,,,,,,,
295990,2022-11-14_10h22.03.489,vts_reward_expectancy_bt,2022.2.4,MacIntel,60.0024001,Chrome,1440,900,,,,,1,693,,,,,,,,,,,,,,,,,167,U,circle,1,0,,,,,,,,,,,,,,,,repeat,number,numRpt,f,1.5394,Lo,,,,,,1,,,,,,,,low,12,0,12,0,1,,,,,,,,,
295990,2022-11-14_10h22.03.489,vts_reward_expectancy_bt,2022.2.4,MacIntel,60.0024001,Chrome,1440,900,,,,,10,703,,,,,,,,,,,,,,,,,181,W,triangle,1,0,,,,,,,,,,,,,,,,repeat,number,numRpt,f,1.0222,Hi,,,,,,1,,,,,,,,low,13,0,13,0,1,,,,,,,,,
295990,2022-11-14_10h22.03.489,vts_reward_expectancy_bt,2022.2.4,MacIntel,60.0024001,Chrome,1440,900,,,,,10,713,,,,,,,,,,,,,,,,,174,H,star,1,0,,,,,,,,,,,,,,,,repeat,number,numRpt,f,0.9286,Hi,,,,,,1,,,,,,,,low,14,0,14,0,1,,,,,,,,,
295990,2022-11-14_10h22.03.489,vts_reward_expectancy_bt,2022.2.4,MacIntel,60.0024001,Chrome,1440,900,,,,,1,714,,,,,,,,,,,,,,,,,146,S,hexagon,1,0,,,,,,,,,,,,,,,,repeat,number,numRpt,d,0.9134,Lo,,,,,,1,,,,,,,,low,15,0,15,0,1,,,,,,,,,
295990,2022-11-14_10h22.03.489,vts_reward_expectancy_bt,2022.2.4,MacIntel,60.0024001,Chrome,1440,900,,,,,1,715,,,,,,,,,,,,,,,,,160,B,star,1,0,,,,,,,,,,,,,,,,repeat,number,numRpt,f,0.9139,Hi,,,,,,1,,,,,,,,low,16,0,16,0,1,,,,,,,,,
295990,2022-11-14_10h22.03.489,vts_reward_expectancy_bt,2022.2.4,MacIntel,60.0024001,Chrome,1440,900,,,,,1,716,,,,,,,,,,,,,,,,,174,W,hexagon,1,0,,,,,,,,,,,,,,,,repeat,number,numRpt,f,0.5137,Lo,,,,,,1,,,,,,,,low,17,0,17,0,1,,,,,,,,,
295990,2022-11-14_10h22.03.489,vts_reward_expectancy_bt,2022.2.4,MacIntel,60.0024001,Chrome,1440,900,,,,,1,717,,,,,,,,,,,,,,,,,132,S,triangle,1,0,,,,,,,,,,,,,,,,repeat,number,numRpt,d,1.0694,Hi,,,,,,1,,,,,,,,low,18,0,18,0,1,,,,,,,,,
295990,2022-11-14_10h22.03.489,vts_reward_expectancy_bt,2022.2.4,MacIntel,60.0024001,Chrome,1440,900,,,,,1,718,,,,,,,,,,,,,,,,,146,D,circle,1,0,,,,,,,,,,,,,,,,switch,letter,lettSwt,j,1.3843,Lo,,,,,,1,,,,,,,,low,19,0,19,0,1,,,,,,,,,
295990,2022-11-14_10h22.03.489,vts_reward_expectancy_bt,2022.2.4,MacIntel,60.0024001,Chrome,1440,900,,,,,10,728,,,,,,,,,,,,,,,,,125,F,hexagon,1,0,,,,,,,,,,,,,,,,repeat,letter,lettRpt,j,1.105,Lo,,,,,,1,,,,,,,,low,20,0,20,0,1,,,,,,,,,
295990,2022-11-14_10h22.03.489,vts_reward_expectancy_bt,2022.2.4,MacIntel,60.0024001,Chrome,1440,900,,,,,10,738,,,,,,,,,,,,,,,,,139,Y,circle,1,0,,,,,,,,,,,,,,,,repeat,letter,lettRpt,k,1.2667,Lo,,,,,,1,,,,,,,,low,21,0,21,0,1,,,,,,,,,
295990,2022-11-14_10h22.03.489,vts_reward_expectancy_bt,2022.2.4,MacIntel,60.0024001,Chrome,1440,900,,,,,10,748,,,,,,,,,,,,,,,,,181,U,triangle,1,0,,,,,,,,,,,,,,,,switch,number,numSwt,f,0.8624,Hi,,,,,,1,,,,,,,,low,22,0,22,0,1,,,,,,,,,
295990,2022-11-14_10h22.03.489,vts_reward_expectancy_bt,2022.2.4,MacIntel,60.0024001,Chrome,1440,900,,,,,0,748,,,,,,,,,,,,,,,,,167,H,star,1,0,,,,,,,,,,,,,,,,switch,letter,lettSwt,j,1.6306,Hi,,,,,,1,,,,,,,,low,23,0,23,0,1,,,,,,,,,
295990,2022-11-14_10h22.03.489,vts_reward_expectancy_bt,2022.2.4,MacIntel,60.0024001,Chrome,1440,900,,,,,1,749,,,,,,,,,,,,,,,,,146,Y,hexagon,1,0,,,,,,,,,,,,,,,,switch,number,numSwt,d,1.0032,Lo,,,,,,1,,,,,,,,low,24,0,24,0,1,,,,,,,,,
295990,2022-11-14_10h22.03.489,vts_reward_expectancy_bt,2022.2.4,MacIntel,60.0024001,Chrome,1440,900,,,,,1,750,,,,,,,,,,,,,,,,,174,D,circle,1,0,,,,,,,,,,,,,,,,repeat,number,numRpt,f,0.4164,Lo,,,,,,1,,,,,,,,low,25,0,25,0,1,,,,,,,,,
295990,2022-11-14_10h22.03.489,vts_reward_expectancy_bt,2022.2.4,MacIntel,60.0024001,Chrome,1440,900,,,,,1,751,,,,,,,,,,,,,,,,,132,F,star,1,0,,,,,,,,,,,,,,,,repeat,number,numRpt,d,0.8047,Hi,,,,,,1,,,,,,,,low,26,0,26,0,1,,,,,,,,,
295990,2022-11-14_10h22.03.489,vts_reward_expectancy_bt,2022.2.4,MacIntel,60.0024001,Chrome,1440,900,,,,,0,751,,,,,,,,,,,,,,,,,125,B,triangle,1,0,,,,,,,,,,,,,,,,switch,letter,lettSwt,j,0.6824,Hi,,,,,,1,,,,,,,,low,27,0,27,0,1,,,,,,,,,
295990,2022-11-14_10h22.03.489,vts_reward_expectancy_bt,2022.2.4,MacIntel,60.0024001,Chrome,1440,900,,,,,1,752,,,,,,,,,,,,,,,,,181,U,hexagon,1,0,,,,,,,,,,,,,,,,repeat,letter,lettRpt,k,0.966,Lo,,,,,,1,,,,,,,,low,28,0,28,0,1,,,,,,,,,
295990,2022-11-14_10h22.03.489,vts_reward_expectancy_bt,2022.2.4,MacIntel,60.0024001,Chrome,1440,900,,,,,10,762,,,,,,,,,,,,,,,,,160,W,circle,1,0,,,,,,,,,,,,,,,,repeat,letter,lettRpt,k,0.7306,Lo,,,,,,1,,,,,,,,low,29,0,29,0,1,,,,,,,,,
295990,2022-11-14_10h22.03.489,vts_reward_expectancy_bt,2022.2.4,MacIntel,60.0024001,Chrome,1440,900,,,,,0,762,,,,,,,,,,,,,,,,,139,H,star,0,0,,,,,,,,,,,,,,,,repeat,letter,NA,k,0.8135,Lo,,,,,,1,,,,,,,,low,30,0,30,0,1,,,,,,,,,
295990,2022-11-14_10h22.03.489,vts_reward_expectancy_bt,2022.2.4,MacIntel,60.0024001,Chrome,1440,900,,,,,0,762,,,,,,,,,,,,,,,,,167,S,triangle,1,1,,,,,,,,,,,,,,,,repeat,letter,lettRpt,k,0.898,Hi,,,,,,1,,,,,,,,low,31,0,31,0,1,,,,,,,,,
295990,2022-11-14_10h22.03.489,vts_reward_expectancy_bt,2022.2.4,MacIntel,60.0024001,Chrome,1440,900,,,,,0,762,,,,,,,,,,,,,,,,,139,F,star,1,0,,,,,,,,,,,,,,,,repeat,letter,lettRpt,j,1.474,Hi,,,,,,2,,,,,,space,27.9921,low,0,0,0,0,1,,,,,,,,,
295990,2022-11-14_10h22.03.489,vts_reward_expectancy_bt,2022.2.4,MacIntel,60.0024001,Chrome,1440,900,,,,,1,763,,,,,,,,,,,,,,,,,160,D,circle,1,0,,,,,,,,,,,,,,,,switch,number,numSwt,f,0.6809,Lo,,,,,,2,,,,,,,,low,1,0,1,0,1,,,,,,,,,
295990,2022-11-14_10h22.03.489,vts_reward_expectancy_bt,2022.2.4,MacIntel,60.0024001,Chrome,1440,900,,,,,0,763,,,,,,,,,,,,,,,,,167,W,hexagon,0,0,,,,,,,,,,,,,,,,repeat,number,NA,d,0.7156,Lo,,,,,,2,,,,,,,,low,2,0,2,0,1,,,,,,,,,
295990,2022-11-14_10h22.03.489,vts_reward_expectancy_bt,2022.2.4,MacIntel,60.0024001,Chrome,1440,900,,,,,10,773,,,,,,,,,,,,,,,,,174,S,triangle,1,1,,,,,,,,,,,,,,,,repeat,number,numRpt,f,0.1721,Hi,,,,,,2,,,,,,,,low,3,0,3,0,1,,,,,,,,,
295990,2022-11-14_10h22.03.489,vts_reward_expectancy_bt,2022.2.4,MacIntel,60.0024001,Chrome,1440,900,,,,,1,774,,,,,,,,,,,,,,,,,181,U,star,1,0,,,,,,,,,,,,,,,,repeat,number,numRpt,f,0.4674,Hi,,,,,,2,,,,,,,,low,4,0,4,0,1,,,,,,,,,
295990,2022-11-14_10h22.03.489,vts_reward_expectancy_bt,2022.2.4,MacIntel,60.0024001,Chrome,1440,900,,,,,10,784,,,,,,,,,,,,,,,,,125,B,circle,1,0,,,,,,,,,,,,,,,,repeat,number,numRpt,d,1.5149,Lo,,,,,,2,,,,,,,,low,5,0,5,0,1,,,,,,,,,
295990,2022-11-14_10h22.03.489,vts_reward_expectancy_bt,2022.2.4,MacIntel,60.0024001,Chrome,1440,900,,,,,1,785,,,,,,,,,,,,,,,,,132,Y,hexagon,1,0,,,,,,,,,,,,,,,,repeat,number,numRpt,d,1.2467,Lo,,,,,,2,,,,,,,,low,6,0,6,0,1,,,,,,,,,
295990,2022-11-14_10h22.03.489,vts_reward_expectancy_bt,2022.2.4,MacIntel,60.0024001,Chrome,1440,900,,,,,0,785,,,,,,,,,,,,,,,,,146,H,triangle,1,0,,,,,,,,,,,,,,,,repeat,number,numRpt,d,1.7123,Hi,,,,,,2,,,,,,,,low,7,0,7,0,1,,,,,,,,,
295990,2022-11-14_10h22.03.489,vts_reward_expectancy_bt,2022.2.4,MacIntel,60.0024001,Chrome,1440,900,,,,,10,795,,,,,,,,,,,,,,,,,139,F,circle,1,0,,,,,,,,,,,,,,,,repeat,number,numRpt,d,1.0116,Lo,,,,,,2,,,,,,,,low,8,0,8,0,1,,,,,,,,,
295990,2022-11-14_10h22.03.489,vts_reward_expectancy_bt,2022.2.4,MacIntel,60.0024001,Chrome,1440,900,,,,,10,805,,,,,,,,,,,,,,,,,160,D,hexagon,1,0,,,,,,,,,,,,,,,,repeat,number,numRpt,f,0.8984,Lo,,,,,,2,,,,,,,,low,9,0,9,0,1,,,,,,,,,
295990,2022-11-14_10h22.03.489,vts_reward_expectancy_bt,2022.2.4,MacIntel,60.0024001,Chrome,1440,900,,,,,0,805,,,,,,,,,,,,,,,,,167,W,triangle,1,0,,,,,,,,,,,,,,,,repeat,number,numRpt,f,1.3215,Hi,,,,,,2,,,,,,,,low,10,0,10,0,1,,,,,,,,,
295990,2022-11-14_10h22.03.489,vts_reward_expectancy_bt,2022.2.4,MacIntel,60.0024001,Chrome,1440,900,,,,,0,805,,,,,,,,,,,,,,,,,174,S,star,1,0,,,,,,,,,,,,,,,,repeat,number,numRpt,f,1.7509,Hi,,,,,,2,,,,,,,,low,11,0,11,0,1,,,,,,,,,
295990,2022-11-14_10h22.03.489,vts_reward_expectancy_bt,2022.2.4,MacIntel,60.0024001,Chrome,1440,900,,,,,0,805,,,,,,,,,,,,,,,,,181,U,star,1,0,,,,,,,,,,,,,,,,repeat,number,numRpt,f,1.5328,Hi,,,,,,2,,,,,,,,low,12,0,12,0,1,,,,,,,,,
295990,2022-11-14_10h22.03.489,vts_reward_expectancy_bt,2022.2.4,MacIntel,60.0024001,Chrome,1440,900,,,,,0,805,,,,,,,,,,,,,,,,,125,B,triangle,0,0,,,,,,,,,,,,,,,,repeat,number,NA,f,2.299,Hi,,,,,,2,,,,,,,,low,13,0,13,0,1,,,,,,,,,
295990,2022-11-14_10h22.03.489,vts_reward_expectancy_bt,2022.2.4,MacIntel,60.0024001,Chrome,1440,900,,,,,1,806,,,,,,,,,,,,,,,,,132,Y,circle,1,1,,,,,,,,,,,,,,,,repeat,number,numRpt,d,1.2889,Lo,,,,,,2,,,,,,,,low,14,0,14,0,1,,,,,,,,,
295990,2022-11-14_10h22.03.489,vts_reward_expectancy_bt,2022.2.4,MacIntel,60.0024001,Chrome,1440,900,,,,,1,807,,,,,,,,,,,,,,,,,146,H,hexagon,1,0,,,,,,,,,,,,,,,,repeat,number,numRpt,d,1.4699,Lo,,,,,,2,,,,,,,,low,15,0,15,0,1,,,,,,,,,
295990,2022-11-14_10h22.03.489,vts_reward_expectancy_bt,2022.2.4,MacIntel,60.0024001,Chrome,1440,900,,,,,1,808,,,,,,,,,,,,,,,,,167,F,hexagon,1,0,,,,,,,,,,,,,,,,repeat,number,numRpt,f,0.732,Lo,,,,,,2,,,,,,,,low,16,0,16,0,1,,,,,,,,,
295990,2022-11-14_10h22.03.489,vts_reward_expectancy_bt,2022.2.4,MacIntel,60.0024001,Chrome,1440,900,,,,,0,808,,,,,,,,,,,,,,,,,146,Y,triangle,1,0,,,,,,,,,,,,,,,,repeat,number,numRpt,d,1.729,Hi,,,,,,2,,,,,,,,low,17,0,17,0,1,,,,,,,,,
295990,2022-11-14_10h22.03.489,vts_reward_expectancy_bt,2022.2.4,MacIntel,60.0024001,Chrome,1440,900,,,,,0,808,,,,,,,,,,,,,,,,,181,B,star,1,0,,,,,,,,,,,,,,,,repeat,number,numRpt,f,1.0311,Hi,,,,,,2,,,,,,,,low,18,0,18,0,1,,,,,,,,,
295990,2022-11-14_10h22.03.489,vts_reward_expectancy_bt,2022.2.4,MacIntel,60.0024001,Chrome,1440,900,,,,,10,818,,,,,,,,,,,,,,,,,174,S,circle,1,0,,,,,,,,,,,,,,,,repeat,number,numRpt,f,0.9131,Lo,,,,,,2,,,,,,,,low,19,0,19,0,1,,,,,,,,,
295990,2022-11-14_10h22.03.489,vts_reward_expectancy_bt,2022.2.4,MacIntel,60.0024001,Chrome,1440,900,,,,,0,818,,,,,,,,,,,,,,,,,139,D,triangle,0,0,,,,,,,,,,,,,,,,repeat,number,NA,f,0.9338,Lo,,,,,,2,,,,,,,,low,20,0,20,0,1,,,,,,,,,
295990,2022-11-14_10h22.03.489,vts_reward_expectancy_bt,2022.2.4,MacIntel,60.0024001,Chrome,1440,900,,,,,1,819,,,,,,,,,,,,,,,,,132,U,circle,1,1,,,,,,,,,,,,,,,,repeat,number,numRpt,d,1.4386,Lo,,,,,,2,,,,,,,,low,21,0,21,0,1,,,,,,,,,
295990,2022-11-14_10h22.03.489,vts_reward_expectancy_bt,2022.2.4,MacIntel,60.0024001,Chrome,1440,900,,,,,10,829,,,,,,,,,,,,,,,,,160,H,hexagon,1,0,,,,,,,,,,,,,,,,repeat,number,numRpt,f,1.3718,Lo,,,,,,2,,,,,,,,low,22,0,22,0,1,,,,,,,,,
295990,2022-11-14_10h22.03.489,vts_reward_expectancy_bt,2022.2.4,MacIntel,60.0024001,Chrome,1440,900,,,,,0,829,,,,,,,,,,,,,,,,,125,W,star,1,0,,,,,,,,,,,,,,,,repeat,number,numRpt,d,1.6658,Hi,,,,,,2,,,,,,,,low,23,0,23,0,1,,,,,,,,,
295990,2022-11-14_10h22.03.489,vts_reward_expectancy_bt,2022.2.4,MacIntel,60.0024001,Chrome,1440,900,,,,,1,830,,,,,,,,,,,,,,,,,174,H,hexagon,1,0,,,,,,,,,,,,,,,,repeat,number,numRpt,f,1.4964,Lo,,,,,,2,,,,,,,,low,24,0,24,0,1,,,,,,,,,
295990,2022-11-14_10h22.03.489,vts_reward_expectancy_bt,2022.2.4,MacIntel,60.0024001,Chrome,1440,900,,,,,10,840,,,,,,,,,,,,,,,,,139,U,star,1,0,,,,,,,,,,,,,,,,repeat,number,numRpt,d,0.7637,Hi,,,,,,2,,,,,,,,low,25,0,25,0,1,,,,,,,,,
295990,2022-11-14_10h22.03.489,vts_reward_expectancy_bt,2022.2.4,MacIntel,60.0024001,Chrome,1440,900,,,,,0,840,,,,,,,,,,,,,,,,,132,D,triangle,1,0,,,,,,,,,,,,,,,,repeat,number,numRpt,d,1.8153,Hi,,,,,,2,,,,,,,,low,26,0,26,0,1,,,,,,,,,
295990,2022-11-14_10h22.03.489,vts_reward_expectancy_bt,2022.2.4,MacIntel,60.0024001,Chrome,1440,900,,,,,10,850,,,,,,,,,,,,,,,,,125,F,circle,1,0,,,,,,,,,,,,,,,,repeat,number,numRpt,d,0.8303,Lo,,,,,,2,,,,,,,,low,27,0,27,0,1,,,,,,,,,
295990,2022-11-14_10h22.03.489,vts_reward_expectancy_bt,2022.2.4,MacIntel,60.0024001,Chrome,1440,900,,,,,10,860,,,,,,,,,,,,,,,,,146,B,hexagon,1,0,,,,,,,,,,,,,,,,repeat,number,numRpt,d,1.0822,Lo,,,,,,2,,,,,,,,low,28,0,28,0,1,,,,,,,,,
295990,2022-11-14_10h22.03.489,vts_reward_expectancy_bt,2022.2.4,MacIntel,60.0024001,Chrome,1440,900,,,,,0,860,,,,,,,,,,,,,,,,,160,W,triangle,0,0,,,,,,,,,,,,,,,,repeat,number,NA,d,1.9891,Lo,,,,,,2,,,,,,,,low,29,0,29,0,1,,,,,,,,,
295990,2022-11-14_10h22.03.489,vts_reward_expectancy_bt,2022.2.4,MacIntel,60.0024001,Chrome,1440,900,,,,,0,860,,,,,,,,,,,,,,,,,167,S,star,1,1,,,,,,,,,,,,,,,,repeat,number,numRpt,f,1.8138,Hi,,,,,,2,,,,,,,,low,30,0,30,0,1,,,,,,,,,
295990,2022-11-14_10h22.03.489,vts_reward_expectancy_bt,2022.2.4,MacIntel,60.0024001,Chrome,1440,900,,,,,1,861,,,,,,,,,,,,,,,,,181,Y,circle,1,0,,,,,,,,,,,,,,,,repeat,number,numRpt,f,1.7053,Lo,,,,,,2,,,,,,,,low,31,0,31,0,1,,,,,,,,,
295990,2022-11-14_10h22.03.489,vts_reward_expectancy_bt,2022.2.4,MacIntel,60.0024001,Chrome,1440,900,,,,,0,861,,,,,,,,,,,,,,,,,125,B,star,1,0,,,,,,,,,,,,,,,,repeat,number,numRpt,d,2.2968,Hi,,,,,,3,,,,,,space,5.1379,low,0,0,0,0,1,,,,,,,,,
295990,2022-11-14_10h22.03.489,vts_reward_expectancy_bt,2022.2.4,MacIntel,60.0024001,Chrome,1440,900,,,,,1,862,,,,,,,,,,,,,,,,,139,S,circle,1,0,,,,,,,,,,,,,,,,repeat,number,numRpt,d,1.146,Lo,,,,,,3,,,,,,,,low,1,0,1,0,1,,,,,,,,,
295990,2022-11-14_10h22.03.489,vts_reward_expectancy_bt,2022.2.4,MacIntel,60.0024001,Chrome,1440,900,,,,,0,862,,,,,,,,,,,,,,,,,146,Y,triangle,1,0,,,,,,,,,,,,,,,,repeat,number,numRpt,d,1.352,Hi,,,,,,3,,,,,,,,low,2,0,2,0,1,,,,,,,,,
295990,2022-11-14_10h22.03.489,vts_reward_expectancy_bt,2022.2.4,MacIntel,60.0024001,Chrome,1440,900,,,,,10,872,,,,,,,,,,,,,,,,,174,F,hexagon,1,0,,,,,,,,,,,,,,,,repeat,number,numRpt,f,1.1809,Lo,,,,,,3,,,,,,,,low,3,0,3,0,1,,,,,,,,,
295990,2022-11-14_10h22.03.489,vts_reward_expectancy_bt,2022.2.4,MacIntel,60.0024001,Chrome,1440,900,,,,,0,872,,,,,,,,,,,,,,,,,181,H,star,1,0,,,,,,,,,,,,,,,,repeat,number,numRpt,f,1.0813,Hi,,,,,,3,,,,,,,,low,4,0,4,0,1,,,,,,,,,
295990,2022-11-14_10h22.03.489,vts_reward_expectancy_bt,2022.2.4,MacIntel,60.0024001,Chrome,1440,900,,,,,1,873,,,,,,,,,,,,,,,,,167,W,circle,1,0,,,,,,,,,,,,,,,,repeat,number,numRpt,f,1.0828,Lo,,,,,,3,,,,,,,,low,5,0,5,0,1,,,,,,,,,
295990,2022-11-14_10h22.03.489,vts_reward_expectancy_bt,2022.2.4,MacIntel,60.0024001,Chrome,1440,900,,,,,0,873,,,,,,,,,,,,,,,,,132,D,triangle,1,0,,,,,,,,,,,,,,,,repeat,number,numRpt,d,1.5145,Hi,,,,,,3,,,,,,,,low,6,0,6,0,1,,,,,,,,,
295990,2022-11-14_10h22.03.489,vts_reward_expectancy_bt,2022.2.4,MacIntel,60.0024001,Chrome,1440,900,,,,,1,874,,,,,,,,,,,,,,,,,160,U,hexagon,1,0,,,,,,,,,,,,,,,,switch,letter,lettSwt,k,0.7982,Lo,,,,,,3,,,,,,,,low,7,0,7,0,1,,,,,,,,,
295990,2022-11-14_10h22.03.489,vts_reward_expectancy_bt,2022.2.4,MacIntel,60.0024001,Chrome,1440,900,,,,,0,874,,,,,,,,,,,,,,,,,125,B,star,1,0,,,,,,,,,,,,,,,,repeat,letter,lettRpt,j,1.6888,Hi,,,,,,3,,,,,,,,low,8,0,8,0,1,,,,,,,,,
295990,2022-11-14_10h22.03.489,vts_reward_expectancy_bt,2022.2.4,MacIntel,60.0024001,Chrome,1440,900,,,,,0,874,,,,,,,,,,,,,,,,,139,S,triangle,1,0,,,,,,,,,,,,,,,,repeat,letter,lettRpt,k,1.7818,Hi,,,,,,3,,,,,,,,low,9,0,9,0,1,,,,,,,,,
295990,2022-11-14_10h22.03.489,vts_reward_expectancy_bt,2022.2.4,MacIntel,60.0024001,Chrome,1440,900,,,,,0,874,,,,,,,,,,,,,,,,,146,Y,hexagon,0,0,,,,,,,,,,,,,,,,repeat,letter,NA,j,2.0269,Hi,,,,,,3,,,,,,,,low,10,0,10,0,1,,,,,,,,,
295990,2022-11-14_10h22.03.489,vts_reward_expectancy_bt,2022.2.4,MacIntel,60.0024001,Chrome,1440,900,,,,,10,884,,,,,,,,,,,,,,,,,174,F,circle,1,1,,,,,,,,,,,,,,,,repeat,letter,lettRpt,j,1.5194,Lo,,,,,,3,,,,,,,,low,11,0,11,0,1,,,,,,,,,
295990,2022-11-14_10h22.03.489,vts_reward_expectancy_bt,2022.2.4,MacIntel,60.0024001,Chrome,1440,900,,,,,0,884,,,,,,,,,,,,,,,,,181,H,hexagon,0,0,,,,,,,,,,,,,,,,repeat,letter,NA,k,1.05,Lo,,,,,,3,,,,,,,,low,12,0,12,0,1,,,,,,,,,
295990,2022-11-14_10h22.03.489,vts_reward_expectancy_bt,2022.2.4,MacIntel,60.0024001,Chrome,1440,900,,,,,1,885,,,,,,,,,,,,,,,,,167,W,star,1,1,,,,,,,,,,,,,,,,repeat,letter,lettRpt,k,1.4063,Hi,,,,,,3,,,,,,,,low,13,0,13,0,1,,,,,,,,,
295990,2022-11-14_10h22.03.489,vts_reward_expectancy_bt,2022.2.4,MacIntel,60.0024001,Chrome,1440,900,,,,,10,895,,,,,,,,,,,,,,,,,132,D,triangle,1,0,,,,,,,,,,,,,,,,repeat,letter,lettRpt,j,0.8044,Hi,,,,,,3,,,,,,,,low,14,0,14,0,1,,,,,,,,,
295990,2022-11-14_10h22.03.489,vts_reward_expectancy_bt,2022.2.4,MacIntel,60.0024001,Chrome,1440,900,,,,,1,896,,,,,,,,,,,,,,,,,160,U,circle,1,0,,,,,,,,,,,,,,,,repeat,letter,lettRpt,k,0.8622,Lo,,,,,,3,,,,,,,,low,15,0,15,0,1,,,,,,,,,
295990,2022-11-14_10h22.03.489,vts_reward_expectancy_bt,2022.2.4,MacIntel,60.0024001,Chrome,1440,900,,,,,0,896,,,,,,,,,,,,,,,,,132,F,triangle,1,0,,,,,,,,,,,,,,,,repeat,letter,lettRpt,j,1.8777,Hi,,,,,,3,,,,,,,,low,16,0,16,0,1,,,,,,,,,
295990,2022-11-14_10h22.03.489,vts_reward_expectancy_bt,2022.2.4,MacIntel,60.0024001,Chrome,1440,900,,,,,1,897,,,,,,,,,,,,,,,,,125,W,star,1,0,,,,,,,,,,,,,,,,repeat,letter,lettRpt,k,0.814,Hi,,,,,,3,,,,,,,,low,17,0,17,0,1,,,,,,,,,
295990,2022-11-14_10h22.03.489,vts_reward_expectancy_bt,2022.2.4,MacIntel,60.0024001,Chrome,1440,900,,,,,1,898,,,,,,,,,,,,,,,,,139,U,circle,1,0,,,,,,,,,,,,,,,,repeat,letter,lettRpt,k,0.7315,Lo,,,,,,3,,,,,,,,low,18,0,18,0,1,,,,,,,,,
295990,2022-11-14_10h22.03.489,vts_reward_expectancy_bt,2022.2.4,MacIntel,60.0024001,Chrome,1440,900,,,,,0,898,,,,,,,,,,,,,,,,,181,H,hexagon,0,0,,,,,,,,,,,,,,,,repeat,letter,NA,k,0.844,Lo,,,,,,3,,,,,,,,low,19,0,19,0,1,,,,,,,,,
295990,2022-11-14_10h22.03.489,vts_reward_expectancy_bt,2022.2.4,MacIntel,60.0024001,Chrome,1440,900,,,,,10,908,,,,,,,,,,,,,,,,,167,D,star,1,1,,,,,,,,,,,,,,,,repeat,letter,lettRpt,j,1.0871,Hi,,,,,,3,,,,,,,,low,20,0,20,0,1,,,,,,,,,
295990,2022-11-14_10h22.03.489,vts_reward_expectancy_bt,2022.2.4,MacIntel,60.0024001,Chrome,1440,900,,,,,10,918,,,,,,,,,,,,,,,,,146,B,triangle,1,0,,,,,,,,,,,,,,,,repeat,letter,lettRpt,j,0.7038,Hi,,,,,,3,,,,,,,,low,21,0,21,0,1,,,,,,,,,
295990,2022-11-14_10h22.03.489,vts_reward_expectancy_bt,2022.2.4,MacIntel,60.0024001,Chrome,1440,900,,,,,10,928,,,,,,,,,,,,,,,,,160,Y,hexagon,1,0,,,,,,,,,,,,,,,,repeat,letter,lettRpt,k,0.8296,Lo,,,,,,3,,,,,,,,low,22,0,22,0,1,,,,,,,,,
295990,2022-11-14_10h22.03.489,vts_reward_expectancy_bt,2022.2.4,MacIntel,60.0024001,Chrome,1440,900,,,,,1,929,,,,,,,,,,,,,,,,,174,S,circle,1,0,,,,,,,,,,,,,,,,repeat,letter,lettRpt,k,1.4561,Lo,,,,,,3,,,,,,,,low,23,0,23,0,1,,,,,,,,,
295990,2022-11-14_10h22.03.489,vts_reward_expectancy_bt,2022.2.4,MacIntel,60.0024001,Chrome,1440,900,,,,,0,929,,,,,,,,,,,,,,,,,132,F,star,1,0,,,,,,,,,,,,,,,,repeat,letter,lettRpt,j,2.4486,Hi,,,,,,3,,,,,,,,low,24,0,24,0,1,,,,,,,,,
295990,2022-11-14_10h22.03.489,vts_reward_expectancy_bt,2022.2.4,MacIntel,60.0024001,Chrome,1440,900,,,,,1,930,,,,,,,,,,,,,,,,,181,B,triangle,1,0,,,,,,,,,,,,,,,,repeat,letter,lettRpt,j,1.1344,Hi,,,,,,3,,,,,,,,low,25,0,25,0,1,,,,,,,,,
295990,2022-11-14_10h22.03.489,vts_reward_expectancy_bt,2022.2.4,MacIntel,60.0024001,Chrome,1440,900,,,,,1,931,,,,,,,,,,,,,,,,,167,U,circle,1,0,,,,,,,,,,,,,,,,repeat,letter,lettRpt,k,2.1676,Lo,,,,,,3,,,,,,,,low,26,0,26,0,1,,,,,,,,,
295990,2022-11-14_10h22.03.489,vts_reward_expectancy_bt,2022.2.4,MacIntel,60.0024001,Chrome,1440,900,,,,,0,931,,,,,,,,,,,,,,,,,146,Y,hexagon,0,0,,,,,,,,,,,,,,,,repeat,letter,NA,j,2.0294,Lo,,,,,,3,,,,,,,,low,27,0,27,0,1,,,,,,,,,
295990,2022-11-14_10h22.03.489,vts_reward_expectancy_bt,2022.2.4,MacIntel,60.0024001,Chrome,1440,900,,,,,1,932,,,,,,,,,,,,,,,,,139,H,circle,1,1,,,,,,,,,,,,,,,,repeat,letter,lettRpt,j,2.7494,Lo,,,,,,3,,,,,,,,low,28,0,28,0,1,,,,,,,,,
295990,2022-11-14_10h22.03.489,vts_reward_expectancy_bt,2022.2.4,MacIntel,60.0024001,Chrome,1440,900,,,,,10,942,,,,,,,,,,,,,,,,,160,D,hexagon,1,0,,,,,,,,,,,,,,,,repeat,letter,lettRpt,j,1.0361,Lo,,,,,,3,,,,,,,,low,29,0,29,0,1,,,,,,,,,
295990,2022-11-14_10h22.03.489,vts_reward_expectancy_bt,2022.2.4,MacIntel,60.0024001,Chrome,1440,900,,,,,0,942,,,,,,,,,,,,,,,,,125,W,triangle,-1,0,,,,,,,,,,,,,,,,switch,no_choice,NA,,,Lo,,,,,,3,,,,,,,,low,30,0,30,0,1,,,,,,,,,
295990,2022-11-14_10h22.03.489,vts_reward_expectancy_bt,2022.2.4,MacIntel,60.0024001,Chrome,1440,900,,,,,10,952,,,,,,,,,,,,,,,,,174,S,star,1,0,,,,,,,,,,,,,,,,switch,letter,lettSwt,k,1.2328,Hi,,,,,,3,,,,,,,,low,31,0,31,0,1,,,,,,,,,
295990,2022-11-14_10h22.03.489,vts_reward_expectancy_bt,2022.2.4,MacIntel,60.0024001,Chrome,1440,900,,,,,1,953,,,,,,,,,,,,,,,,,160,Y,circle,1,0,,,,,,,,,,,,,,,,repeat,letter,lettRpt,k,0.6937,Lo,,,,,,4,,,,,,space,4.0391,low,0,0,0,0,1,,,,,,,,,
295990,2022-11-14_10h22.03.489,vts_reward_expectancy_bt,2022.2.4,MacIntel,60.0024001,Chrome,1440,900,,,,,0,953,,,,,,,,,,,,,,,,,146,S,star,0,0,,,,,,,,,,,,,,,,repeat,letter,NA,j,0.1476,Lo,,,,,,4,,,,,,,,low,1,0,1,0,1,,,,,,,,,
295990,2022-11-14_10h22.03.489,vts_reward_expectancy_bt,2022.2.4,MacIntel,60.0024001,Chrome,1440,900,,,,,10,963,,,,,,,,,,,,,,,,,139,B,triangle,1,1,,,,,,,,,,,,,,,,repeat,letter,lettRpt,j,0.1471,Hi,,,,,,4,,,,,,,,low,2,0,2,0,1,,,,,,,,,
295990,2022-11-14_10h22.03.489,vts_reward_expectancy_bt,2022.2.4,MacIntel,60.0024001,Chrome,1440,900,,,,,1,964,,,,,,,,,,,,,,,,,174,U,hexagon,1,0,,,,,,,,,,,,,,,,repeat,letter,lettRpt,k,0.0003,Lo,,,,,,4,,,,,,,,low,3,0,3,0,1,,,,,,,,,
295990,2022-11-14_10h22.03.489,vts_reward_expectancy_bt,2022.2.4,MacIntel,60.0024001,Chrome,1440,900,,,,,0,964,,,,,,,,,,,,,,,,,167,W,circle,0,0,,,,,,,,,,,,,,,,repeat,letter,NA,j,0.1128,Lo,,,,,,4,,,,,,,,low,4,0,4,0,1,,,,,,,,,
295990,2022-11-14_10h22.03.489,vts_reward_expectancy_bt,2022.2.4,MacIntel,60.0024001,Chrome,1440,900,,,,,1,965,,,,,,,,,,,,,,,,,125,H,star,1,1,,,,,,,,,,,,,,,,repeat,letter,lettRpt,j,0.0983,Hi,,,,,,4,,,,,,,,low,5,0,5,0,1,,,,,,,,,
295990,2022-11-14_10h22.03.489,vts_reward_expectancy_bt,2022.2.4,MacIntel,60.0024001,Chrome,1440,900,,,,,10,975,,,,,,,,,,,,,,,,,132,D,triangle,1,0,,,,,,,,,,,,,,,,repeat,letter,lettRpt,j,0.8163,Hi,,,,,,4,,,,,,,,low,6,0,6,0,1,,,,,,,,,
295990,2022-11-14_10h22.03.489,vts_reward_expectancy_bt,2022.2.4,MacIntel,60.0024001,Chrome,1440,900,,,,,1,976,,,,,,,,,,,,,,,,,181,F,hexagon,1,0,,,,,,,,,,,,,,,,repeat,letter,lettRpt,j,0.681,Lo,,,,,,4,,,,,,,,low,7,0,7,0,1,,,,,,,,,
295990,2022-11-14_10h22.03.489,vts_reward_expectancy_bt,2022.2.4,MacIntel,60.0024001,Chrome,1440,900,,,,,1,977,,,,,,,,,,,,,,,,,160,Y,hexagon,1,0,,,,,,,,,,,,,,,,repeat,letter,lettRpt,k,0.6818,Lo,,,,,,4,,,,,,,,low,8,0,8,0,1,,,,,,,,,
295990,2022-11-14_10h22.03.489,vts_reward_expectancy_bt,2022.2.4,MacIntel,60.0024001,Chrome,1440,900,,,,,0,977,,,,,,,,,,,,,,,,,146,S,star,0,0,,,,,,,,,,,,,,,,repeat,letter,NA,j,0.615,Lo,,,,,,4,,,,,,,,low,9,0,9,0,1,,,,,,,,,
295990,2022-11-14_10h22.03.489,vts_reward_expectancy_bt,2022.2.4,MacIntel,60.0024001,Chrome,1440,900,,,,,1,978,,,,,,,,,,,,,,,,,139,B,triangle,1,1,,,,,,,,,,,,,,,,repeat,letter,lettRpt,j,0.6957,Hi,,,,,,4,,,,,,,,low,10,0,10,0,1,,,,,,,,,
295990,2022-11-14_10h22.03.489,vts_reward_expectancy_bt,2022.2.4,MacIntel,60.0024001,Chrome,1440,900,,,,,10,988,,,,,,,,,,,,,,,,,174,U,circle,1,0,,,,,,,,,,,,,,,,repeat,letter,lettRpt,k,0.8134,Lo,,,,,,4,,,,,,,,low,11,0,11,0,1,,,,,,,,,
295990,2022-11-14_10h22.03.489,vts_reward_expectancy_bt,2022.2.4,MacIntel,60.0024001,Chrome,1440,900,,,,,10,998,,,,,,,,,,,,,,,,,167,W,circle,1,0,,,,,,,,,,,,,,,,repeat,letter,lettRpt,k,0.6465,Lo,,,,,,4,,,,,,,,low,12,0,12,0,1,,,,,,,,,
