participant,date,expName,psychopyVersion,OS,frameRate,browser,xResolution,yResolution,key_resp.keys,key_resp.rt,training_resp.keys,training_resp.rt,points_trial,points_cumul,trainBlock,training.thisRepN,training.thisTrialN,training.thisN,training.thisIndex,training.ran,LTriangleOpac,LCircleOpac,LHexagonOpac,LStarOpac,RTriangleOpac,RCircleOpac,RHexagonOpac,RStarOpac,LShape_ID,RShape_ID,curr_topStim,curr_bottStim,curr_shape,acc,E1,target_resp_prac1.keys,target_resp_prac1.rt,pracBlock,task1_prac_trials.thisRepN,task1_prac_trials.thisTrialN,task1_prac_trials.thisN,task1_prac_trials.thisIndex,task1_prac_trials.ran,target_resp_prac2.keys,target_resp_prac2.rt,task2_praac_trials.thisRepN,task2_praac_trials.thisTrialN,task2_praac_trials.thisN,task2_praac_trials.thisIndex,task2_praac_trials.ran,alt,task,condition,target_resp.keys,target_resp.rt,rewCond,vts_practice_trials.thisRepN,vts_practice_trials.thisTrialN,vts_practice_trials.thisN,vts_practice_trials.thisIndex,vts_practice_trials.ran,blockNum,trials_norew.thisRepN,trials_norew.thisTrialN,trials_norew.thisN,trials_norew.thisIndex,trials_norew.ran,key_resp_2.keys,key_resp_2.rt,rewExpectancy,trials_rew.thisRepN,trials_rew.thisTrialN,trials_rew.thisN,trials_rew.thisIndex,trials_rew.ran,Q1,Q2,Q2_text,Q3,Q4,Q5_text,Q5,xRes,yRes
295999,2022-12-04_22h16.43.917,vts_reward_expectancy_bt,2022.2.4,MacIntel,60.0024001,Chrome,1440,900,,,,,,,,,,,,,,,,,,,,,,,,,,,,,,,,,,,,,,,,,,,,,,,,,,,,,,,,,,,,,,,,,,,,,,,,,,,,
295999,2022-12-04_22h16.43.917,vts_reward_expectancy_bt,2022.2.4,MacIntel,60.0024001,Chrome,1440,900,space,11.0502,,,,,,,,,,,,,,,,,,,,,,,,,,,,,,,,,,,,,,,,,,,,,,,,,,,,,,,,,,,,,,,,,,,,,,,,,,
295999,2022-12-04_22h16.43.917,vts_reward_expectancy_bt,2022.2.4,MacIntel,60.0024001,Chrome,1440,900,,,,,,,,,,,,,,,,,,,,,,,,,,,,,,,,,,,,,,,,,,,,,,,,,,,,,,,,,,,,,,,,,,,,,,,,,,,,
295999,2022-12-04_22h16.43.917,vts_reward_expectancy_bt,2022.2.4,MacIntel,60.0024001,Chrome,1440,900,,,l,1.4633,10,10,0,0,0,0,0,1,1,0,0,0,0,1,0,0,triangle,circle,,,,,,,,,,,,,,,,,,,,,,,,,,,,,,,,,,,,,,,,,,,,,,,,,,,,,,
295999,2022-12-04_22h16.43.917,vts_reward_expectancy_bt,2022.2.4,MacIntel,60.0024001,Chrome,1440,900,,,l,1.7833,10,20,0,0,1,1,1,1,1,0,0,0,0,0,1,0,triangle,hexagon,,,,,,,,,,,,,,,,,,,,,,,,,,,,,,,,,,,,,,,,,,,,,,,,,,,,,,
295999,2022-12-04_22h16.43.917,vts_reward_expectancy_bt,2022.2.4,MacIntel,60.0024001,Chrome,1440,900,,,a,0.9625,10,30,0,0,2,2,9,1,0,0,0,1,1,0,0,0,star,triangle,,,,,,,,,,,,,,,,,,,,,,,,,,,,,,,,,,,,,,,,,,,,,,,,,,,,,,
295999,2022-12-04_22h16.43.917,vts_reward_expectancy_bt,2022.2.4,MacIntel,60.0024001,Chrome,1440,900,,,l,1.4181,1,31,0,0,3,3,2,1,1,0,0,0,0,0,0,1,triangle,star,,,,,,,,,,,,,,,,,,,,,,,,,,,,,,,,,,,,,,,,,,,,,,,,,,,,,,
295999,2022-12-04_22h16.43.917,vts_reward_expectancy_bt,2022.2.4,MacIntel,60.0024001,Chrome,1440,900,,,a,1.0288,1,32,0,0,4,4,3,1,0,1,0,0,1,0,0,0,circle,triangle,,,,,,,,,,,,,,,,,,,,,,,,,,,,,,,,,,,,,,,,,,,,,,,,,,,,,,
295999,2022-12-04_22h16.43.917,vts_reward_expectancy_bt,2022.2.4,MacIntel,60.0024001,Chrome,1440,900,,,a,1.0661,10,42,0,0,5,5,7,1,0,0,1,0,0,1,0,0,hexagon,circle,,,,,,,,,,,,,,,,,,,,,,,,,,,,,,,,,,,,,,,,,,,,,,,,,,,,,,
295999,2022-12-04_22h16.43.917,vts_reward_expectancy_bt,2022.2.4,MacIntel,60.0024001,Chrome,1440,900,,,a,0.6003,10,52,0,0,6,6,5,1,0,1,0,0,0,0,0,1,circle,star,,,,,,,,,,,,,,,,,,,,,,,,,,,,,,,,,,,,,,,,,,,,,,,,,,,,,,
295999,2022-12-04_22h16.43.917,vts_reward_expectancy_bt,2022.2.4,MacIntel,60.0024001,Chrome,1440,900,,,a,2.0532,10,62,0,0,7,7,11,1,0,0,0,1,0,0,1,0,star,hexagon,,,,,,,,,,,,,,,,,,,,,,,,,,,,,,,,,,,,,,,,,,,,,,,,,,,,,,
295999,2022-12-04_22h16.43.917,vts_reward_expectancy_bt,2022.2.4,MacIntel,60.0024001,Chrome,1440,900,,,a,0.9096,1,63,0,0,8,8,8,1,0,0,1,0,0,0,0,1,hexagon,star,,,,,,,,,,,,,,,,,,,,,,,,,,,,,,,,,,,,,,,,,,,,,,,,,,,,,,
295999,2022-12-04_22h16.43.917,vts_reward_expectancy_bt,2022.2.4,MacIntel,60.0024001,Chrome,1440,900,,,a,0.8587,10,73,0,0,9,9,6,1,0,0,1,0,1,0,0,0,hexagon,triangle,,,,,,,,,,,,,,,,,,,,,,,,,,,,,,,,,,,,,,,,,,,,,,,,,,,,,,
295999,2022-12-04_22h16.43.917,vts_reward_expectancy_bt,2022.2.4,MacIntel,60.0024001,Chrome,1440,900,,,a,0.8513,10,83,0,0,10,10,10,1,0,0,0,1,0,1,0,0,star ,circle,,,,,,,,,,,,,,,,,,,,,,,,,,,,,,,,,,,,,,,,,,,,,,,,,,,,,,
295999,2022-12-04_22h16.43.917,vts_reward_expectancy_bt,2022.2.4,MacIntel,60.0024001,Chrome,1440,900,,,l,0.6104,10,93,0,0,11,11,4,1,0,1,0,0,0,0,1,0,circle,hexagon,,,,,,,,,,,,,,,,,,,,,,,,,,,,,,,,,,,,,,,,,,,,,,,,,,,,,,
295999,2022-12-04_22h16.43.917,vts_reward_expectancy_bt,2022.2.4,MacIntel,60.0024001,Chrome,1440,900,,,l,0.6309,10,103,0,1,0,12,2,1,1,0,0,0,0,0,0,1,triangle,star,,,,,,,,,,,,,,,,,,,,,,,,,,,,,,,,,,,,,,,,,,,,,,,,,,,,,,
295999,2022-12-04_22h16.43.917,vts_reward_expectancy_bt,2022.2.4,MacIntel,60.0024001,Chrome,1440,900,,,l,0.6544,10,113,0,1,1,13,1,1,1,0,0,0,0,0,1,0,triangle,hexagon,,,,,,,,,,,,,,,,,,,,,,,,,,,,,,,,,,,,,,,,,,,,,,,,,,,,,,
295999,2022-12-04_22h16.43.917,vts_reward_expectancy_bt,2022.2.4,MacIntel,60.0024001,Chrome,1440,900,,,a,0.5314,10,123,0,1,2,14,11,1,0,0,0,1,0,0,1,0,star,hexagon,,,,,,,,,,,,,,,,,,,,,,,,,,,,,,,,,,,,,,,,,,,,,,,,,,,,,,
295999,2022-12-04_22h16.43.917,vts_reward_expectancy_bt,2022.2.4,MacIntel,60.0024001,Chrome,1440,900,,,a,0.4867,10,133,0,1,3,15,10,1,0,0,0,1,0,1,0,0,star ,circle,,,,,,,,,,,,,,,,,,,,,,,,,,,,,,,,,,,,,,,,,,,,,,,,,,,,,,
295999,2022-12-04_22h16.43.917,vts_reward_expectancy_bt,2022.2.4,MacIntel,60.0024001,Chrome,1440,900,,,a,0.8192,1,134,0,1,4,16,0,1,1,0,0,0,0,1,0,0,triangle,circle,,,,,,,,,,,,,,,,,,,,,,,,,,,,,,,,,,,,,,,,,,,,,,,,,,,,,,
295999,2022-12-04_22h16.43.917,vts_reward_expectancy_bt,2022.2.4,MacIntel,60.0024001,Chrome,1440,900,,,l,0.9327,10,144,0,1,5,17,4,1,0,1,0,0,0,0,1,0,circle,hexagon,,,,,,,,,,,,,,,,,,,,,,,,,,,,,,,,,,,,,,,,,,,,,,,,,,,,,,
295999,2022-12-04_22h16.43.917,vts_reward_expectancy_bt,2022.2.4,MacIntel,60.0024001,Chrome,1440,900,,,l,0.9625,10,154,0,1,6,18,5,1,0,1,0,0,0,0,0,1,circle,star,,,,,,,,,,,,,,,,,,,,,,,,,,,,,,,,,,,,,,,,,,,,,,,,,,,,,,
295999,2022-12-04_22h16.43.917,vts_reward_expectancy_bt,2022.2.4,MacIntel,60.0024001,Chrome,1440,900,,,a,1.2287,10,164,0,1,7,19,6,1,0,0,1,0,1,0,0,0,hexagon,triangle,,,,,,,,,,,,,,,,,,,,,,,,,,,,,,,,,,,,,,,,,,,,,,,,,,,,,,
295999,2022-12-04_22h16.43.917,vts_reward_expectancy_bt,2022.2.4,MacIntel,60.0024001,Chrome,1440,900,,,a,0.7317,1,165,0,1,8,20,3,1,0,1,0,0,1,0,0,0,circle,triangle,,,,,,,,,,,,,,,,,,,,,,,,,,,,,,,,,,,,,,,,,,,,,,,,,,,,,,
295999,2022-12-04_22h16.43.917,vts_reward_expectancy_bt,2022.2.4,MacIntel,60.0024001,Chrome,1440,900,,,a,0.7796,1,166,0,1,9,21,7,1,0,0,1,0,0,1,0,0,hexagon,circle,,,,,,,,,,,,,,,,,,,,,,,,,,,,,,,,,,,,,,,,,,,,,,,,,,,,,,
295999,2022-12-04_22h16.43.917,vts_reward_expectancy_bt,2022.2.4,MacIntel,60.0024001,Chrome,1440,900,,,a,0.6572,10,176,0,1,10,22,9,1,0,0,0,1,1,0,0,0,star,triangle,,,,,,,,,,,,,,,,,,,,,,,,,,,,,,,,,,,,,,,,,,,,,,,,,,,,,,
295999,2022-12-04_22h16.43.917,vts_reward_expectancy_bt,2022.2.4,MacIntel,60.0024001,Chrome,1440,900,,,l,0.6939,10,186,0,1,11,23,8,1,0,0,1,0,0,0,0,1,hexagon,star,,,,,,,,,,,,,,,,,,,,,,,,,,,,,,,,,,,,,,,,,,,,,,,,,,,,,,
295999,2022-12-04_22h16.43.917,vts_reward_expectancy_bt,2022.2.4,MacIntel,60.0024001,Chrome,1440,900,,,l,0.6564,1,187,0,2,0,24,1,1,1,0,0,0,0,0,1,0,triangle,hexagon,,,,,,,,,,,,,,,,,,,,,,,,,,,,,,,,,,,,,,,,,,,,,,,,,,,,,,
295999,2022-12-04_22h16.43.917,vts_reward_expectancy_bt,2022.2.4,MacIntel,60.0024001,Chrome,1440,900,,,l,1.2378,1,188,0,2,1,25,7,1,0,0,1,0,0,1,0,0,hexagon,circle,,,,,,,,,,,,,,,,,,,,,,,,,,,,,,,,,,,,,,,,,,,,,,,,,,,,,,
295999,2022-12-04_22h16.43.917,vts_reward_expectancy_bt,2022.2.4,MacIntel,60.0024001,Chrome,1440,900,,,a,0.4757,10,198,0,2,2,26,6,1,0,0,1,0,1,0,0,0,hexagon,triangle,,,,,,,,,,,,,,,,,,,,,,,,,,,,,,,,,,,,,,,,,,,,,,,,,,,,,,
295999,2022-12-04_22h16.43.917,vts_reward_expectancy_bt,2022.2.4,MacIntel,60.0024001,Chrome,1440,900,,,a,0.6315,1,199,0,2,3,27,9,1,0,0,0,1,1,0,0,0,star,triangle,,,,,,,,,,,,,,,,,,,,,,,,,,,,,,,,,,,,,,,,,,,,,,,,,,,,,,
295999,2022-12-04_22h16.43.917,vts_reward_expectancy_bt,2022.2.4,MacIntel,60.0024001,Chrome,1440,900,,,l,0.581,10,209,0,2,4,28,4,1,0,1,0,0,0,0,1,0,circle,hexagon,,,,,,,,,,,,,,,,,,,,,,,,,,,,,,,,,,,,,,,,,,,,,,,,,,,,,,
295999,2022-12-04_22h16.43.917,vts_reward_expectancy_bt,2022.2.4,MacIntel,60.0024001,Chrome,1440,900,,,a,0.5433,1,210,0,2,5,29,0,1,1,0,0,0,0,1,0,0,triangle,circle,,,,,,,,,,,,,,,,,,,,,,,,,,,,,,,,,,,,,,,,,,,,,,,,,,,,,,
295999,2022-12-04_22h16.43.917,vts_reward_expectancy_bt,2022.2.4,MacIntel,60.0024001,Chrome,1440,900,,,a,1.2505,10,220,0,2,6,30,11,1,0,0,0,1,0,0,1,0,star,hexagon,,,,,,,,,,,,,,,,,,,,,,,,,,,,,,,,,,,,,,,,,,,,,,,,,,,,,,
295999,2022-12-04_22h16.43.917,vts_reward_expectancy_bt,2022.2.4,MacIntel,60.0024001,Chrome,1440,900,,,l,0.4701,10,230,0,2,7,31,2,1,1,0,0,0,0,0,0,1,triangle,star,,,,,,,,,,,,,,,,,,,,,,,,,,,,,,,,,,,,,,,,,,,,,,,,,,,,,,
295999,2022-12-04_22h16.43.917,vts_reward_expectancy_bt,2022.2.4,MacIntel,60.0024001,Chrome,1440,900,,,a,0.4145,10,240,0,2,8,32,3,1,0,1,0,0,1,0,0,0,circle,triangle,,,,,,,,,,,,,,,,,,,,,,,,,,,,,,,,,,,,,,,,,,,,,,,,,,,,,,
295999,2022-12-04_22h16.43.917,vts_reward_expectancy_bt,2022.2.4,MacIntel,60.0024001,Chrome,1440,900,,,l,0.6429,10,250,0,2,9,33,8,1,0,0,1,0,0,0,0,1,hexagon,star,,,,,,,,,,,,,,,,,,,,,,,,,,,,,,,,,,,,,,,,,,,,,,,,,,,,,,
295999,2022-12-04_22h16.43.917,vts_reward_expectancy_bt,2022.2.4,MacIntel,60.0024001,Chrome,1440,900,,,l,0.4574,10,260,0,2,10,34,5,1,0,1,0,0,0,0,0,1,circle,star,,,,,,,,,,,,,,,,,,,,,,,,,,,,,,,,,,,,,,,,,,,,,,,,,,,,,,
295999,2022-12-04_22h16.43.917,vts_reward_expectancy_bt,2022.2.4,MacIntel,60.0024001,Chrome,1440,900,,,a,0.5844,10,270,0,2,11,35,10,1,0,0,0,1,0,1,0,0,star ,circle,,,,,,,,,,,,,,,,,,,,,,,,,,,,,,,,,,,,,,,,,,,,,,,,,,,,,,
295999,2022-12-04_22h16.43.917,vts_reward_expectancy_bt,2022.2.4,MacIntel,60.0024001,Chrome,1440,900,,,a,0.6986,10,280,1,0,0,0,6,1,0,0,1,0,1,0,0,0,hexagon,triangle,,,,,,,,,,,,,,,,,,,,,,,,,,,,,,,,,,,,,,,,,,,,,,,,,,,,,,
295999,2022-12-04_22h16.43.917,vts_reward_expectancy_bt,2022.2.4,MacIntel,60.0024001,Chrome,1440,900,,,l,0.429,1,281,1,0,1,1,10,1,0,0,0,1,0,1,0,0,star ,circle,,,,,,,,,,,,,,,,,,,,,,,,,,,,,,,,,,,,,,,,,,,,,,,,,,,,,,
295999,2022-12-04_22h16.43.917,vts_reward_expectancy_bt,2022.2.4,MacIntel,60.0024001,Chrome,1440,900,,,l,0.5998,1,282,1,0,2,2,5,1,0,1,0,0,0,0,0,1,circle,star,,,,,,,,,,,,,,,,,,,,,,,,,,,,,,,,,,,,,,,,,,,,,,,,,,,,,,
295999,2022-12-04_22h16.43.917,vts_reward_expectancy_bt,2022.2.4,MacIntel,60.0024001,Chrome,1440,900,,,l,0.7477,1,283,1,0,3,3,7,1,0,0,1,0,0,1,0,0,hexagon,circle,,,,,,,,,,,,,,,,,,,,,,,,,,,,,,,,,,,,,,,,,,,,,,,,,,,,,,
295999,2022-12-04_22h16.43.917,vts_reward_expectancy_bt,2022.2.4,MacIntel,60.0024001,Chrome,1440,900,,,l,0.6519,10,293,1,0,4,4,8,1,0,0,1,0,0,0,0,1,hexagon,star,,,,,,,,,,,,,,,,,,,,,,,,,,,,,,,,,,,,,,,,,,,,,,,,,,,,,,
295999,2022-12-04_22h16.43.917,vts_reward_expectancy_bt,2022.2.4,MacIntel,60.0024001,Chrome,1440,900,,,l,0.6825,1,294,1,0,5,5,1,1,1,0,0,0,0,0,1,0,triangle,hexagon,,,,,,,,,,,,,,,,,,,,,,,,,,,,,,,,,,,,,,,,,,,,,,,,,,,,,,
295999,2022-12-04_22h16.43.917,vts_reward_expectancy_bt,2022.2.4,MacIntel,60.0024001,Chrome,1440,900,,,a,0.506,1,295,1,0,6,6,3,1,0,1,0,0,1,0,0,0,circle,triangle,,,,,,,,,,,,,,,,,,,,,,,,,,,,,,,,,,,,,,,,,,,,,,,,,,,,,,
295999,2022-12-04_22h16.43.917,vts_reward_expectancy_bt,2022.2.4,MacIntel,60.0024001,Chrome,1440,900,,,a,0.9334,10,305,1,0,7,7,0,1,1,0,0,0,0,1,0,0,triangle,circle,,,,,,,,,,,,,,,,,,,,,,,,,,,,,,,,,,,,,,,,,,,,,,,,,,,,,,
295999,2022-12-04_22h16.43.917,vts_reward_expectancy_bt,2022.2.4,MacIntel,60.0024001,Chrome,1440,900,,,a,0.7791,10,315,1,0,8,8,2,1,1,0,0,0,0,0,0,1,triangle,star,,,,,,,,,,,,,,,,,,,,,,,,,,,,,,,,,,,,,,,,,,,,,,,,,,,,,,
295999,2022-12-04_22h16.43.917,vts_reward_expectancy_bt,2022.2.4,MacIntel,60.0024001,Chrome,1440,900,,,l,2.2615,10,325,1,0,9,9,11,1,0,0,0,1,0,0,1,0,star,hexagon,,,,,,,,,,,,,,,,,,,,,,,,,,,,,,,,,,,,,,,,,,,,,,,,,,,,,,
295999,2022-12-04_22h16.43.917,vts_reward_expectancy_bt,2022.2.4,MacIntel,60.0024001,Chrome,1440,900,,,a,1.0198,10,335,1,0,10,10,4,1,0,1,0,0,0,0,1,0,circle,hexagon,,,,,,,,,,,,,,,,,,,,,,,,,,,,,,,,,,,,,,,,,,,,,,,,,,,,,,
295999,2022-12-04_22h16.43.917,vts_reward_expectancy_bt,2022.2.4,MacIntel,60.0024001,Chrome,1440,900,,,l,0.6234,1,336,1,0,11,11,9,1,0,0,0,1,1,0,0,0,star,triangle,,,,,,,,,,,,,,,,,,,,,,,,,,,,,,,,,,,,,,,,,,,,,,,,,,,,,,
295999,2022-12-04_22h16.43.917,vts_reward_expectancy_bt,2022.2.4,MacIntel,60.0024001,Chrome,1440,900,,,a,0.9454,1,337,1,1,0,12,2,1,1,0,0,0,0,0,0,1,triangle,star,,,,,,,,,,,,,,,,,,,,,,,,,,,,,,,,,,,,,,,,,,,,,,,,,,,,,,
295999,2022-12-04_22h16.43.917,vts_reward_expectancy_bt,2022.2.4,MacIntel,60.0024001,Chrome,1440,900,,,a,3.2374,1,338,1,1,1,13,10,1,0,0,0,1,0,1,0,0,star ,circle,,,,,,,,,,,,,,,,,,,,,,,,,,,,,,,,,,,,,,,,,,,,,,,,,,,,,,
295999,2022-12-04_22h16.43.917,vts_reward_expectancy_bt,2022.2.4,MacIntel,60.0024001,Chrome,1440,900,,,l,0.675,10,348,1,1,2,14,11,1,0,0,0,1,0,0,1,0,star,hexagon,,,,,,,,,,,,,,,,,,,,,,,,,,,,,,,,,,,,,,,,,,,,,,,,,,,,,,
295999,2022-12-04_22h16.43.917,vts_reward_expectancy_bt,2022.2.4,MacIntel,60.0024001,Chrome,1440,900,,,l,0.6409,10,358,1,1,3,15,5,1,0,1,0,0,0,0,0,1,circle,star,,,,,,,,,,,,,,,,,,,,,,,,,,,,,,,,,,,,,,,,,,,,,,,,,,,,,,
295999,2022-12-04_22h16.43.917,vts_reward_expectancy_bt,2022.2.4,MacIntel,60.0024001,Chrome,1440,900,,,l,0.4123,10,368,1,1,4,16,7,1,0,0,1,0,0,1,0,0,hexagon,circle,,,,,,,,,,,,,,,,,,,,,,,,,,,,,,,,,,,,,,,,,,,,,,,,,,,,,,
295999,2022-12-04_22h16.43.917,vts_reward_expectancy_bt,2022.2.4,MacIntel,60.0024001,Chrome,1440,900,,,l,0.5316,10,378,1,1,5,17,8,1,0,0,1,0,0,0,0,1,hexagon,star,,,,,,,,,,,,,,,,,,,,,,,,,,,,,,,,,,,,,,,,,,,,,,,,,,,,,,
295999,2022-12-04_22h16.43.917,vts_reward_expectancy_bt,2022.2.4,MacIntel,60.0024001,Chrome,1440,900,,,l,0.732,1,379,1,1,6,18,9,1,0,0,0,1,1,0,0,0,star,triangle,,,,,,,,,,,,,,,,,,,,,,,,,,,,,,,,,,,,,,,,,,,,,,,,,,,,,,
295999,2022-12-04_22h16.43.917,vts_reward_expectancy_bt,2022.2.4,MacIntel,60.0024001,Chrome,1440,900,,,l,1.2666,10,389,1,1,7,19,1,1,1,0,0,0,0,0,1,0,triangle,hexagon,,,,,,,,,,,,,,,,,,,,,,,,,,,,,,,,,,,,,,,,,,,,,,,,,,,,,,
295999,2022-12-04_22h16.43.917,vts_reward_expectancy_bt,2022.2.4,MacIntel,60.0024001,Chrome,1440,900,,,a,0.9702,10,399,1,1,8,20,6,1,0,0,1,0,1,0,0,0,hexagon,triangle,,,,,,,,,,,,,,,,,,,,,,,,,,,,,,,,,,,,,,,,,,,,,,,,,,,,,,
295999,2022-12-04_22h16.43.917,vts_reward_expectancy_bt,2022.2.4,MacIntel,60.0024001,Chrome,1440,900,,,l,2.0158,1,400,1,1,9,21,0,1,1,0,0,0,0,1,0,0,triangle,circle,,,,,,,,,,,,,,,,,,,,,,,,,,,,,,,,,,,,,,,,,,,,,,,,,,,,,,
295999,2022-12-04_22h16.43.917,vts_reward_expectancy_bt,2022.2.4,MacIntel,60.0024001,Chrome,1440,900,,,a,0.4362,1,401,1,1,10,22,3,1,0,1,0,0,1,0,0,0,circle,triangle,,,,,,,,,,,,,,,,,,,,,,,,,,,,,,,,,,,,,,,,,,,,,,,,,,,,,,
295999,2022-12-04_22h16.43.917,vts_reward_expectancy_bt,2022.2.4,MacIntel,60.0024001,Chrome,1440,900,,,l,0.5845,10,411,1,1,11,23,4,1,0,1,0,0,0,0,1,0,circle,hexagon,,,,,,,,,,,,,,,,,,,,,,,,,,,,,,,,,,,,,,,,,,,,,,,,,,,,,,
295999,2022-12-04_22h16.43.917,vts_reward_expectancy_bt,2022.2.4,MacIntel,60.0024001,Chrome,1440,900,,,a,0.9007,1,412,1,2,0,24,0,1,1,0,0,0,0,1,0,0,triangle,circle,,,,,,,,,,,,,,,,,,,,,,,,,,,,,,,,,,,,,,,,,,,,,,,,,,,,,,
295999,2022-12-04_22h16.43.917,vts_reward_expectancy_bt,2022.2.4,MacIntel,60.0024001,Chrome,1440,900,,,a,1.8662,1,413,1,2,1,25,3,1,0,1,0,0,1,0,0,0,circle,triangle,,,,,,,,,,,,,,,,,,,,,,,,,,,,,,,,,,,,,,,,,,,,,,,,,,,,,,
295999,2022-12-04_22h16.43.917,vts_reward_expectancy_bt,2022.2.4,MacIntel,60.0024001,Chrome,1440,900,,,l,0.5298,10,423,1,2,2,26,11,1,0,0,0,1,0,0,1,0,star,hexagon,,,,,,,,,,,,,,,,,,,,,,,,,,,,,,,,,,,,,,,,,,,,,,,,,,,,,,
295999,2022-12-04_22h16.43.917,vts_reward_expectancy_bt,2022.2.4,MacIntel,60.0024001,Chrome,1440,900,,,l,0.4013,1,424,1,2,3,27,6,1,0,0,1,0,1,0,0,0,hexagon,triangle,,,,,,,,,,,,,,,,,,,,,,,,,,,,,,,,,,,,,,,,,,,,,,,,,,,,,,
295999,2022-12-04_22h16.43.917,vts_reward_expectancy_bt,2022.2.4,MacIntel,60.0024001,Chrome,1440,900,,,l,0.0947,1,425,1,2,4,28,7,1,0,0,1,0,0,1,0,0,hexagon,circle,,,,,,,,,,,,,,,,,,,,,,,,,,,,,,,,,,,,,,,,,,,,,,,,,,,,,,
295999,2022-12-04_22h16.43.917,vts_reward_expectancy_bt,2022.2.4,MacIntel,60.0024001,Chrome,1440,900,,,a,0.2339,1,426,1,2,5,29,1,1,1,0,0,0,0,0,1,0,triangle,hexagon,,,,,,,,,,,,,,,,,,,,,,,,,,,,,,,,,,,,,,,,,,,,,,,,,,,,,,
295999,2022-12-04_22h16.43.917,vts_reward_expectancy_bt,2022.2.4,MacIntel,60.0024001,Chrome,1440,900,,,a,0.0191,10,436,1,2,6,30,9,1,0,0,0,1,1,0,0,0,star,triangle,,,,,,,,,,,,,,,,,,,,,,,,,,,,,,,,,,,,,,,,,,,,,,,,,,,,,,
295999,2022-12-04_22h16.43.917,vts_reward_expectancy_bt,2022.2.4,MacIntel,60.0024001,Chrome,1440,900,,,a,0.3157,1,437,1,2,7,31,4,1,0,1,0,0,0,0,1,0,circle,hexagon,,,,,,,,,,,,,,,,,,,,,,,,,,,,,,,,,,,,,,,,,,,,,,,,,,,,,,
295999,2022-12-04_22h16.43.917,vts_reward_expectancy_bt,2022.2.4,MacIntel,60.0024001,Chrome,1440,900,,,l,0.3337,1,438,1,2,8,32,10,1,0,0,0,1,0,1,0,0,star ,circle,,,,,,,,,,,,,,,,,,,,,,,,,,,,,,,,,,,,,,,,,,,,,,,,,,,,,,
295999,2022-12-04_22h16.43.917,vts_reward_expectancy_bt,2022.2.4,MacIntel,60.0024001,Chrome,1440,900,,,a,0.2656,1,439,1,2,9,33,5,1,0,1,0,0,0,0,0,1,circle,star,,,,,,,,,,,,,,,,,,,,,,,,,,,,,,,,,,,,,,,,,,,,,,,,,,,,,,
295999,2022-12-04_22h16.43.917,vts_reward_expectancy_bt,2022.2.4,MacIntel,60.0024001,Chrome,1440,900,,,l,0.646,10,449,1,2,10,34,2,1,1,0,0,0,0,0,0,1,triangle,star,,,,,,,,,,,,,,,,,,,,,,,,,,,,,,,,,,,,,,,,,,,,,,,,,,,,,,
295999,2022-12-04_22h16.43.917,vts_reward_expectancy_bt,2022.2.4,MacIntel,60.0024001,Chrome,1440,900,,,l,0.507,10,459,1,2,11,35,8,1,0,0,1,0,0,0,0,1,hexagon,star,,,,,,,,,,,,,,,,,,,,,,,,,,,,,,,,,,,,,,,,,,,,,,,,,,,,,,
295999,2022-12-04_22h16.43.917,vts_reward_expectancy_bt,2022.2.4,MacIntel,60.0024001,Chrome,1440,900,,,l,0.7359,10,469,2,0,0,0,2,1,1,0,0,0,0,0,0,1,triangle,star,,,,,,,,,,,,,,,,,,,,,,,,,,,,,,,,,,,,,,,,,,,,,,,,,,,,,,
295999,2022-12-04_22h16.43.917,vts_reward_expectancy_bt,2022.2.4,MacIntel,60.0024001,Chrome,1440,900,,,a,0.7672,1,470,2,0,1,1,5,1,0,1,0,0,0,0,0,1,circle,star,,,,,,,,,,,,,,,,,,,,,,,,,,,,,,,,,,,,,,,,,,,,,,,,,,,,,,
295999,2022-12-04_22h16.43.917,vts_reward_expectancy_bt,2022.2.4,MacIntel,60.0024001,Chrome,1440,900,,,a,0.8342,10,480,2,0,2,2,7,1,0,0,1,0,0,1,0,0,hexagon,circle,,,,,,,,,,,,,,,,,,,,,,,,,,,,,,,,,,,,,,,,,,,,,,,,,,,,,,
295999,2022-12-04_22h16.43.917,vts_reward_expectancy_bt,2022.2.4,MacIntel,60.0024001,Chrome,1440,900,,,a,0.6113,10,490,2,0,3,3,11,1,0,0,0,1,0,0,1,0,star,hexagon,,,,,,,,,,,,,,,,,,,,,,,,,,,,,,,,,,,,,,,,,,,,,,,,,,,,,,
295999,2022-12-04_22h16.43.917,vts_reward_expectancy_bt,2022.2.4,MacIntel,60.0024001,Chrome,1440,900,,,l,0.6318,10,500,2,0,4,4,4,1,0,1,0,0,0,0,1,0,circle,hexagon,,,,,,,,,,,,,,,,,,,,,,,,,,,,,,,,,,,,,,,,,,,,,,,,,,,,,,
295999,2022-12-04_22h16.43.917,vts_reward_expectancy_bt,2022.2.4,MacIntel,60.0024001,Chrome,1440,900,,,a,0.8008,10,510,2,0,5,5,10,1,0,0,0,1,0,1,0,0,star ,circle,,,,,,,,,,,,,,,,,,,,,,,,,,,,,,,,,,,,,,,,,,,,,,,,,,,,,,
295999,2022-12-04_22h16.43.917,vts_reward_expectancy_bt,2022.2.4,MacIntel,60.0024001,Chrome,1440,900,,,l,0.5631,10,520,2,0,6,6,8,1,0,0,1,0,0,0,0,1,hexagon,star,,,,,,,,,,,,,,,,,,,,,,,,,,,,,,,,,,,,,,,,,,,,,,,,,,,,,,
295999,2022-12-04_22h16.43.917,vts_reward_expectancy_bt,2022.2.4,MacIntel,60.0024001,Chrome,1440,900,,,a,0.7242,1,521,2,0,7,7,0,1,1,0,0,0,0,1,0,0,triangle,circle,,,,,,,,,,,,,,,,,,,,,,,,,,,,,,,,,,,,,,,,,,,,,,,,,,,,,,
295999,2022-12-04_22h16.43.917,vts_reward_expectancy_bt,2022.2.4,MacIntel,60.0024001,Chrome,1440,900,,,a,0.6355,1,522,2,0,8,8,9,1,0,0,0,1,1,0,0,0,star,triangle,,,,,,,,,,,,,,,,,,,,,,,,,,,,,,,,,,,,,,,,,,,,,,,,,,,,,,
295999,2022-12-04_22h16.43.917,vts_reward_expectancy_bt,2022.2.4,MacIntel,60.0024001,Chrome,1440,900,,,a,0.7559,10,532,2,0,9,9,6,1,0,0,1,0,1,0,0,0,hexagon,triangle,,,,,,,,,,,,,,,,,,,,,,,,,,,,,,,,,,,,,,,,,,,,,,,,,,,,,,
295999,2022-12-04_22h16.43.917,vts_reward_expectancy_bt,2022.2.4,MacIntel,60.0024001,Chrome,1440,900,,,l,0.601,1,533,2,0,10,10,1,1,1,0,0,0,0,0,1,0,triangle,hexagon,,,,,,,,,,,,,,,,,,,,,,,,,,,,,,,,,,,,,,,,,,,,,,,,,,,,,,
295999,2022-12-04_22h16.43.917,vts_reward_expectancy_bt,2022.2.4,MacIntel,60.0024001,Chrome,1440,900,,,l,0.916,1,534,2,0,11,11,3,1,0,1,0,0,1,0,0,0,circle,triangle,,,,,,,,,,,,,,,,,,,,,,,,,,,,,,,,,,,,,,,,,,,,,,,,,,,,,,
295999,2022-12-04_22h16.43.917,vts_reward_expectancy_bt,2022.2.4,MacIntel,60.0024001,Chrome,1440,900,,,l,0.5127,10,544,2,1,0,12,8,1,0,0,1,0,0,0,0,1,hexagon,star,,,,,,,,,,,,,,,,,,,,,,,,,,,,,,,,,,,,,,,,,,,,,,,,,,,,,,
295999,2022-12-04_22h16.43.917,vts_reward_expectancy_bt,2022.2.4,MacIntel,60.0024001,Chrome,1440,900,,,a,1.2847,10,554,2,1,1,13,7,1,0,0,1,0,0,1,0,0,hexagon,circle,,,,,,,,,,,,,,,,,,,,,,,,,,,,,,,,,,,,,,,,,,,,,,,,,,,,,,
295999,2022-12-04_22h16.43.917,vts_reward_expectancy_bt,2022.2.4,MacIntel,60.0024001,Chrome,1440,900,,,l,0.5867,1,555,2,1,2,14,1,1,1,0,0,0,0,0,1,0,triangle,hexagon,,,,,,,,,,,,,,,,,,,,,,,,,,,,,,,,,,,,,,,,,,,,,,,,,,,,,,
295999,2022-12-04_22h16.43.917,vts_reward_expectancy_bt,2022.2.4,MacIntel,60.0024001,Chrome,1440,900,,,l,0.5507,10,565,2,1,3,15,2,1,1,0,0,0,0,0,0,1,triangle,star,,,,,,,,,,,,,,,,,,,,,,,,,,,,,,,,,,,,,,,,,,,,,,,,,,,,,,
295999,2022-12-04_22h16.43.917,vts_reward_expectancy_bt,2022.2.4,MacIntel,60.0024001,Chrome,1440,900,,,l,0.8833,1,566,2,1,4,16,0,1,1,0,0,0,0,1,0,0,triangle,circle,,,,,,,,,,,,,,,,,,,,,,,,,,,,,,,,,,,,,,,,,,,,,,,,,,,,,,
295999,2022-12-04_22h16.43.917,vts_reward_expectancy_bt,2022.2.4,MacIntel,60.0024001,Chrome,1440,900,,,a,0.9108,1,567,2,1,5,17,10,1,0,0,0,1,0,1,0,0,star ,circle,,,,,,,,,,,,,,,,,,,,,,,,,,,,,,,,,,,,,,,,,,,,,,,,,,,,,,
295999,2022-12-04_22h16.43.917,vts_reward_expectancy_bt,2022.2.4,MacIntel,60.0024001,Chrome,1440,900,,,a,0.667,1,568,2,1,6,18,9,1,0,0,0,1,1,0,0,0,star,triangle,,,,,,,,,,,,,,,,,,,,,,,,,,,,,,,,,,,,,,,,,,,,,,,,,,,,,,
295999,2022-12-04_22h16.43.917,vts_reward_expectancy_bt,2022.2.4,MacIntel,60.0024001,Chrome,1440,900,,,l,0.4324,10,578,2,1,7,19,5,1,0,1,0,0,0,0,0,1,circle,star,,,,,,,,,,,,,,,,,,,,,,,,,,,,,,,,,,,,,,,,,,,,,,,,,,,,,,
295999,2022-12-04_22h16.43.917,vts_reward_expectancy_bt,2022.2.4,MacIntel,60.0024001,Chrome,1440,900,,,a,0.4286,10,588,2,1,8,20,11,1,0,0,0,1,0,0,1,0,star,hexagon,,,,,,,,,,,,,,,,,,,,,,,,,,,,,,,,,,,,,,,,,,,,,,,,,,,,,,
295999,2022-12-04_22h16.43.917,vts_reward_expectancy_bt,2022.2.4,MacIntel,60.0024001,Chrome,1440,900,,,l,0.5841,1,589,2,1,9,21,6,1,0,0,1,0,1,0,0,0,hexagon,triangle,,,,,,,,,,,,,,,,,,,,,,,,,,,,,,,,,,,,,,,,,,,,,,,,,,,,,,
295999,2022-12-04_22h16.43.917,vts_reward_expectancy_bt,2022.2.4,MacIntel,60.0024001,Chrome,1440,900,,,l,0.8007,10,599,2,1,10,22,4,1,0,1,0,0,0,0,1,0,circle,hexagon,,,,,,,,,,,,,,,,,,,,,,,,,,,,,,,,,,,,,,,,,,,,,,,,,,,,,,
295999,2022-12-04_22h16.43.917,vts_reward_expectancy_bt,2022.2.4,MacIntel,60.0024001,Chrome,1440,900,,,a,0.4861,1,600,2,1,11,23,3,1,0,1,0,0,1,0,0,0,circle,triangle,,,,,,,,,,,,,,,,,,,,,,,,,,,,,,,,,,,,,,,,,,,,,,,,,,,,,,
295999,2022-12-04_22h16.43.917,vts_reward_expectancy_bt,2022.2.4,MacIntel,60.0024001,Chrome,1440,900,,,a,0.5674,1,601,2,2,0,24,10,1,0,0,0,1,0,1,0,0,star ,circle,,,,,,,,,,,,,,,,,,,,,,,,,,,,,,,,,,,,,,,,,,,,,,,,,,,,,,
295999,2022-12-04_22h16.43.917,vts_reward_expectancy_bt,2022.2.4,MacIntel,60.0024001,Chrome,1440,900,,,a,1.2501,10,611,2,2,1,25,3,1,0,1,0,0,1,0,0,0,circle,triangle,,,,,,,,,,,,,,,,,,,,,,,,,,,,,,,,,,,,,,,,,,,,,,,,,,,,,,
295999,2022-12-04_22h16.43.917,vts_reward_expectancy_bt,2022.2.4,MacIntel,60.0024001,Chrome,1440,900,,,l,0.6784,10,621,2,2,2,26,2,1,1,0,0,0,0,0,0,1,triangle,star,,,,,,,,,,,,,,,,,,,,,,,,,,,,,,,,,,,,,,,,,,,,,,,,,,,,,,
295999,2022-12-04_22h16.43.917,vts_reward_expectancy_bt,2022.2.4,MacIntel,60.0024001,Chrome,1440,900,,,a,0.6659,1,622,2,2,3,27,11,1,0,0,0,1,0,0,1,0,star,hexagon,,,,,,,,,,,,,,,,,,,,,,,,,,,,,,,,,,,,,,,,,,,,,,,,,,,,,,
295999,2022-12-04_22h16.43.917,vts_reward_expectancy_bt,2022.2.4,MacIntel,60.0024001,Chrome,1440,900,,,l,0.5483,10,632,2,2,4,28,4,1,0,1,0,0,0,0,1,0,circle,hexagon,,,,,,,,,,,,,,,,,,,,,,,,,,,,,,,,,,,,,,,,,,,,,,,,,,,,,,
295999,2022-12-04_22h16.43.917,vts_reward_expectancy_bt,2022.2.4,MacIntel,60.0024001,Chrome,1440,900,,,a,0.7605,1,633,2,2,5,29,0,1,1,0,0,0,0,1,0,0,triangle,circle,,,,,,,,,,,,,,,,,,,,,,,,,,,,,,,,,,,,,,,,,,,,,,,,,,,,,,
295999,2022-12-04_22h16.43.917,vts_reward_expectancy_bt,2022.2.4,MacIntel,60.0024001,Chrome,1440,900,,,l,0.6343,10,643,2,2,6,30,8,1,0,0,1,0,0,0,0,1,hexagon,star,,,,,,,,,,,,,,,,,,,,,,,,,,,,,,,,,,,,,,,,,,,,,,,,,,,,,,
295999,2022-12-04_22h16.43.917,vts_reward_expectancy_bt,2022.2.4,MacIntel,60.0024001,Chrome,1440,900,,,l,0.7678,1,644,2,2,7,31,1,1,1,0,0,0,0,0,1,0,triangle,hexagon,,,,,,,,,,,,,,,,,,,,,,,,,,,,,,,,,,,,,,,,,,,,,,,,,,,,,,
295999,2022-12-04_22h16.43.917,vts_reward_expectancy_bt,2022.2.4,MacIntel,60.0024001,Chrome,1440,900,,,a,0.5785,10,654,2,2,8,32,6,1,0,0,1,0,1,0,0,0,hexagon,triangle,,,,,,,,,,,,,,,,,,,,,,,,,,,,,,,,,,,,,,,,,,,,,,,,,,,,,,
295999,2022-12-04_22h16.43.917,vts_reward_expectancy_bt,2022.2.4,MacIntel,60.0024001,Chrome,1440,900,,,l,0.4999,10,664,2,2,9,33,5,1,0,1,0,0,0,0,0,1,circle,star,,,,,,,,,,,,,,,,,,,,,,,,,,,,,,,,,,,,,,,,,,,,,,,,,,,,,,
295999,2022-12-04_22h16.43.917,vts_reward_expectancy_bt,2022.2.4,MacIntel,60.0024001,Chrome,1440,900,,,a,0.4846,10,674,2,2,10,34,9,1,0,0,0,1,1,0,0,0,star,triangle,,,,,,,,,,,,,,,,,,,,,,,,,,,,,,,,,,,,,,,,,,,,,,,,,,,,,,
295999,2022-12-04_22h16.43.917,vts_reward_expectancy_bt,2022.2.4,MacIntel,60.0024001,Chrome,1440,900,,,a,0.6869,10,684,2,2,11,35,7,1,0,0,1,0,0,1,0,0,hexagon,circle,,,,,,,,,,,,,,,,,,,,,,,,,,,,,,,,,,,,,,,,,,,,,,,,,,,,,,
295999,2022-12-04_22h16.43.917,vts_reward_expectancy_bt,2022.2.4,MacIntel,60.0024001,Chrome,1440,900,,,,,,,,,,,,,,,,,,,,,,,146,S,star,0,0,f,1.2696,0,0,0,0,0,1,,,,,,,,,,,,,,,,,,,,,,,,,,,,,,,,,,,,,,,,,
295999,2022-12-04_22h16.43.917,vts_reward_expectancy_bt,2022.2.4,MacIntel,60.0024001,Chrome,1440,900,,,,,,,,,,,,,,,,,,,,,,,181,U,circle,1,1,f,1.2717,0,1,0,1,0,1,,,,,,,,,,,,,,,,,,,,,,,,,,,,,,,,,,,,,,,,,
295999,2022-12-04_22h16.43.917,vts_reward_expectancy_bt,2022.2.4,MacIntel,60.0024001,Chrome,1440,900,,,,,,,,,,,,,,,,,,,,,,,174,D,hexagon,1,0,f,0.7644,0,2,0,2,0,1,,,,,,,,,,,,,,,,,,,,,,,,,,,,,,,,,,,,,,,,,
295999,2022-12-04_22h16.43.917,vts_reward_expectancy_bt,2022.2.4,MacIntel,60.0024001,Chrome,1440,900,,,,,,,,,,,,,,,,,,,,,,,132,W,triangle,1,0,d,0.7043,0,3,0,3,0,1,,,,,,,,,,,,,,,,,,,,,,,,,,,,,,,,,,,,,,,,,
295999,2022-12-04_22h16.43.917,vts_reward_expectancy_bt,2022.2.4,MacIntel,60.0024001,Chrome,1440,900,,,,,,,,,,,,,,,,,,,,,,,167,B,star,1,0,f,0.5419,0,4,0,4,0,1,,,,,,,,,,,,,,,,,,,,,,,,,,,,,,,,,,,,,,,,,
295999,2022-12-04_22h16.43.917,vts_reward_expectancy_bt,2022.2.4,MacIntel,60.0024001,Chrome,1440,900,,,,,,,,,,,,,,,,,,,,,,,160,Y,circle,1,0,f,0.6687,0,5,0,5,0,1,,,,,,,,,,,,,,,,,,,,,,,,,,,,,,,,,,,,,,,,,
295999,2022-12-04_22h16.43.917,vts_reward_expectancy_bt,2022.2.4,MacIntel,60.0024001,Chrome,1440,900,,,,,,,,,,,,,,,,,,,,,,,139,H,hexagon,1,0,d,0.6084,0,6,0,6,0,1,,,,,,,,,,,,,,,,,,,,,,,,,,,,,,,,,,,,,,,,,
295999,2022-12-04_22h16.43.917,vts_reward_expectancy_bt,2022.2.4,MacIntel,60.0024001,Chrome,1440,900,,,,,,,,,,,,,,,,,,,,,,,125,F,triangle,1,0,d,0.5623,0,7,0,7,0,1,,,,,,,,,,,,,,,,,,,,,,,,,,,,,,,,,,,,,,,,,
295999,2022-12-04_22h16.43.917,vts_reward_expectancy_bt,2022.2.4,MacIntel,60.0024001,Chrome,1440,900,,,,,,,,,,,,,,,,,,,,,,,146,S,triangle,1,0,d,0.4998,0,8,0,8,0,1,,,,,,,,,,,,,,,,,,,,,,,,,,,,,,,,,,,,,,,,,
295999,2022-12-04_22h16.43.917,vts_reward_expectancy_bt,2022.2.4,MacIntel,60.0024001,Chrome,1440,900,,,,,,,,,,,,,,,,,,,,,,,181,U,circle,1,0,f,0.7672,0,9,0,9,0,1,,,,,,,,,,,,,,,,,,,,,,,,,,,,,,,,,,,,,,,,,
295999,2022-12-04_22h16.43.917,vts_reward_expectancy_bt,2022.2.4,MacIntel,60.0024001,Chrome,1440,900,,,,,,,,,,,,,,,,,,,,,,,146,F,hexagon,1,0,,,1,,,,,,j,0.9063,0,0,0,0,1,,,,,,,,,,,,,,,,,,,,,,,,,,,,,,,,,,
295999,2022-12-04_22h16.43.917,vts_reward_expectancy_bt,2022.2.4,MacIntel,60.0024001,Chrome,1440,900,,,,,,,,,,,,,,,,,,,,,,,125,S,circle,1,0,,,1,,,,,,k,0.6773,1,0,1,0,1,,,,,,,,,,,,,,,,,,,,,,,,,,,,,,,,,,
295999,2022-12-04_22h16.43.917,vts_reward_expectancy_bt,2022.2.4,MacIntel,60.0024001,Chrome,1440,900,,,,,,,,,,,,,,,,,,,,,,,167,U,triangle,1,0,,,1,,,,,,k,0.6381,2,0,2,0,1,,,,,,,,,,,,,,,,,,,,,,,,,,,,,,,,,,
295999,2022-12-04_22h16.43.917,vts_reward_expectancy_bt,2022.2.4,MacIntel,60.0024001,Chrome,1440,900,,,,,,,,,,,,,,,,,,,,,,,132,Y,star,1,0,,,1,,,,,,k,0.5612,3,0,3,0,1,,,,,,,,,,,,,,,,,,,,,,,,,,,,,,,,,,
295999,2022-12-04_22h16.43.917,vts_reward_expectancy_bt,2022.2.4,MacIntel,60.0024001,Chrome,1440,900,,,,,,,,,,,,,,,,,,,,,,,160,H,hexagon,1,0,,,1,,,,,,j,0.8169,4,0,4,0,1,,,,,,,,,,,,,,,,,,,,,,,,,,,,,,,,,,
295999,2022-12-04_22h16.43.917,vts_reward_expectancy_bt,2022.2.4,MacIntel,60.0024001,Chrome,1440,900,,,,,,,,,,,,,,,,,,,,,,,181,W,circle,1,0,,,1,,,,,,k,0.545,5,0,5,0,1,,,,,,,,,,,,,,,,,,,,,,,,,,,,,,,,,,
295999,2022-12-04_22h16.43.917,vts_reward_expectancy_bt,2022.2.4,MacIntel,60.0024001,Chrome,1440,900,,,,,,,,,,,,,,,,,,,,,,,174,D,triangle,1,0,,,1,,,,,,j,0.587,6,0,6,0,1,,,,,,,,,,,,,,,,,,,,,,,,,,,,,,,,,,
295999,2022-12-04_22h16.43.917,vts_reward_expectancy_bt,2022.2.4,MacIntel,60.0024001,Chrome,1440,900,,,,,,,,,,,,,,,,,,,,,,,139,B,star,1,0,,,1,,,,,,j,0.5914,7,0,7,0,1,,,,,,,,,,,,,,,,,,,,,,,,,,,,,,,,,,
295999,2022-12-04_22h16.43.917,vts_reward_expectancy_bt,2022.2.4,MacIntel,60.0024001,Chrome,1440,900,,,,,,,,,,,,,,,,,,,,,,,146,F,circle,1,0,,,1,,,,,,j,0.8373,8,0,8,0,1,,,,,,,,,,,,,,,,,,,,,,,,,,,,,,,,,,
295999,2022-12-04_22h16.43.917,vts_reward_expectancy_bt,2022.2.4,MacIntel,60.0024001,Chrome,1440,900,,,,,,,,,,,,,,,,,,,,,,,125,S,hexagon,1,0,,,1,,,,,,k,0.8518,9,0,9,0,1,,,,,,,,,,,,,,,,,,,,,,,,,,,,,,,,,,
295999,2022-12-04_22h16.43.917,vts_reward_expectancy_bt,2022.2.4,MacIntel,60.0024001,Chrome,1440,900,,,,,0,684,,,,,,,,,,,,,,,,,160,S,triangle,1,0,,,2,,,,,,,,,,,,,-1,number,NA,f,1.5426,vtsPrac,0,0,0,0,1,,,,,,,,,,,,,,,,,,,,,,,
295999,2022-12-04_22h16.43.917,vts_reward_expectancy_bt,2022.2.4,MacIntel,60.0024001,Chrome,1440,900,,,,,0,684,,,,,,,,,,,,,,,,,132,B,circle,1,0,,,2,,,,,,,,,,,,,repeat,number,numRpt,d,2.2134,vtsPrac,1,0,1,0,1,,,,,,,,,,,,,,,,,,,,,,,
295999,2022-12-04_22h16.43.917,vts_reward_expectancy_bt,2022.2.4,MacIntel,60.0024001,Chrome,1440,900,,,,,0,684,,,,,,,,,,,,,,,,,139,W,triangle,1,0,,,2,,,,,,,,,,,,,switch,letter,lettSwt,k,0.8947,vtsPrac,2,0,2,0,1,,,,,,,,,,,,,,,,,,,,,,,
295999,2022-12-04_22h16.43.917,vts_reward_expectancy_bt,2022.2.4,MacIntel,60.0024001,Chrome,1440,900,,,,,0,684,,,,,,,,,,,,,,,,,125,U,circle,1,0,,,2,,,,,,,,,,,,,switch,number,numSwt,d,1.3343,vtsPrac,3,0,3,0,1,,,,,,,,,,,,,,,,,,,,,,,
295999,2022-12-04_22h16.43.917,vts_reward_expectancy_bt,2022.2.4,MacIntel,60.0024001,Chrome,1440,900,,,,,0,684,,,,,,,,,,,,,,,,,160,S,hexagon,1,0,,,2,,,,,,,,,,,,,repeat,number,numRpt,f,0.7119,vtsPrac,4,0,4,0,1,,,,,,,,,,,,,,,,,,,,,,,
295999,2022-12-04_22h16.43.917,vts_reward_expectancy_bt,2022.2.4,MacIntel,60.0024001,Chrome,1440,900,,,,,0,684,,,,,,,,,,,,,,,,,132,B,triangle,1,0,,,2,,,,,,,,,,,,,switch,letter,lettSwt,j,0.8747,vtsPrac,5,0,5,0,1,,,,,,,,,,,,,,,,,,,,,,,
295999,2022-12-04_22h16.43.917,vts_reward_expectancy_bt,2022.2.4,MacIntel,60.0024001,Chrome,1440,900,,,,,0,684,,,,,,,,,,,,,,,,,139,W,circle,1,0,,,2,,,,,,,,,,,,,repeat,letter,lettRpt,k,0.6165,vtsPrac,6,0,6,0,1,,,,,,,,,,,,,,,,,,,,,,,
295999,2022-12-04_22h16.43.917,vts_reward_expectancy_bt,2022.2.4,MacIntel,60.0024001,Chrome,1440,900,,,,,0,684,,,,,,,,,,,,,,,,,125,U,triangle,1,0,,,2,,,,,,,,,,,,,switch,number,numSwt,d,1.5496,vtsPrac,7,0,7,0,1,,,,,,,,,,,,,,,,,,,,,,,
295999,2022-12-04_22h16.43.917,vts_reward_expectancy_bt,2022.2.4,MacIntel,60.0024001,Chrome,1440,900,,,,,0,684,,,,,,,,,,,,,,,,,160,D,triangle,0,0,,,2,,,,,,,,,,,,,repeat,number,NA,d,2.2836,vtsPrac,8,0,8,0,1,,,,,,,,,,,,,,,,,,,,,,,
295999,2022-12-04_22h16.43.917,vts_reward_expectancy_bt,2022.2.4,MacIntel,60.0024001,Chrome,1440,900,,,,,0,684,,,,,,,,,,,,,,,,,146,U,hexagon,1,1,,,2,,,,,,,,,,,,,switch,letter,lettSwt,k,1.6939,vtsPrac,9,0,9,0,1,,,,,,,,,,,,,,,,,,,,,,,
295999,2022-12-04_22h16.43.917,vts_reward_expectancy_bt,2022.2.4,MacIntel,60.0024001,Chrome,1440,900,,,,,0,684,,,,,,,,,,,,,,,,,139,B,hexagon,1,0,,,2,,,,,,,,,,,,,repeat,letter,lettRpt,j,0.7328,vtsPrac,10,0,10,0,1,,,,,,,,,,,,,,,,,,,,,,,
295999,2022-12-04_22h16.43.917,vts_reward_expectancy_bt,2022.2.4,MacIntel,60.0024001,Chrome,1440,900,,,,,0,684,,,,,,,,,,,,,,,,,174,S,circle,1,0,,,2,,,,,,,,,,,,,repeat,letter,lettRpt,k,1.0669,vtsPrac,11,0,11,0,1,,,,,,,,,,,,,,,,,,,,,,,
295999,2022-12-04_22h16.43.917,vts_reward_expectancy_bt,2022.2.4,MacIntel,60.0024001,Chrome,1440,900,,,,,0,684,,,,,,,,,,,,,,,,,160,W,circle,1,0,,,2,,,,,,,,,,,,,repeat,letter,lettRpt,k,0.7005,vtsPrac,12,0,12,0,1,,,,,,,,,,,,,,,,,,,,,,,
295999,2022-12-04_22h16.43.917,vts_reward_expectancy_bt,2022.2.4,MacIntel,60.0024001,Chrome,1440,900,,,,,0,684,,,,,,,,,,,,,,,,,132,B,hexagon,1,0,,,2,,,,,,,,,,,,,repeat,letter,lettRpt,j,0.7173,vtsPrac,13,0,13,0,1,,,,,,,,,,,,,,,,,,,,,,,
295999,2022-12-04_22h16.43.917,vts_reward_expectancy_bt,2022.2.4,MacIntel,60.0024001,Chrome,1440,900,,,,,0,684,,,,,,,,,,,,,,,,,181,U,hexagon,1,0,,,2,,,,,,,,,,,,,switch,number,numSwt,f,0.8541,vtsPrac,14,0,14,0,1,,,,,,,,,,,,,,,,,,,,,,,
295999,2022-12-04_22h16.43.917,vts_reward_expectancy_bt,2022.2.4,MacIntel,60.0024001,Chrome,1440,900,,,,,0,684,,,,,,,,,,,,,,,,,174,H,triangle,1,0,,,2,,,,,,,,,,,,,repeat,number,numRpt,f,1.872,vtsPrac,15,0,15,0,1,,,,,,,,,,,,,,,,,,,,,,,
295999,2022-12-04_22h16.43.917,vts_reward_expectancy_bt,2022.2.4,MacIntel,60.0024001,Chrome,1440,900,,,,,0,684,,,,,,,,,,,,,,,,,160,H,circle,1,0,,,2,,,,,,,,,,,,,switch,letter,lettSwt,j,0.7983,vtsPrac,16,0,16,0,1,,,,,,,,,,,,,,,,,,,,,,,
295999,2022-12-04_22h16.43.917,vts_reward_expectancy_bt,2022.2.4,MacIntel,60.0024001,Chrome,1440,900,,,,,0,684,,,,,,,,,,,,,,,,,167,S,star,1,0,,,2,,,,,,,,,,,,,repeat,letter,lettRpt,k,0.9364,vtsPrac,17,0,17,0,1,,,,,,,,,,,,,,,,,,,,,,,
295999,2022-12-04_22h16.43.917,vts_reward_expectancy_bt,2022.2.4,MacIntel,60.0024001,Chrome,1440,900,,,,,0,684,,,,,,,,,,,,,,,,,174,F,circle,1,0,,,2,,,,,,,,,,,,,repeat,letter,lettRpt,j,0.9755,vtsPrac,18,0,18,0,1,,,,,,,,,,,,,,,,,,,,,,,
295999,2022-12-04_22h16.43.917,vts_reward_expectancy_bt,2022.2.4,MacIntel,60.0024001,Chrome,1440,900,,,,,0,684,,,,,,,,,,,,,,,,,146,U,hexagon,1,0,,,2,,,,,,,,,,,,,switch,number,numSwt,d,1.5208,vtsPrac,19,0,19,0,1,,,,,,,,,,,,,,,,,,,,,,,
295999,2022-12-04_22h16.43.917,vts_reward_expectancy_bt,2022.2.4,MacIntel,60.0024001,Chrome,1440,900,,,,,0,684,,,,,,,,,,,,,,,,,167,B,star,1,0,,,2,,,,,,,,,,,,,repeat,number,numRpt,f,0.7986,vtsPrac,20,0,20,0,1,,,,,,,,,,,,,,,,,,,,,,,
295999,2022-12-04_22h16.43.917,vts_reward_expectancy_bt,2022.2.4,MacIntel,60.0024001,Chrome,1440,900,,,,,0,684,,,,,,,,,,,,,,,,,181,Y,circle,1,0,,,2,,,,,,,,,,,,,switch,letter,lettSwt,k,0.615,vtsPrac,21,0,21,0,1,,,,,,,,,,,,,,,,,,,,,,,
295999,2022-12-04_22h16.43.917,vts_reward_expectancy_bt,2022.2.4,MacIntel,60.0024001,Chrome,1440,900,,,,,0,684,,,,,,,,,,,,,,,,,146,H,circle,1,0,,,2,,,,,,,,,,,,,switch,number,numSwt,d,1.5371,vtsPrac,22,0,22,0,1,,,,,,,,,,,,,,,,,,,,,,,
295999,2022-12-04_22h16.43.917,vts_reward_expectancy_bt,2022.2.4,MacIntel,60.0024001,Chrome,1440,900,,,,,0,684,,,,,,,,,,,,,,,,,132,U,hexagon,1,0,,,2,,,,,,,,,,,,,switch,letter,lettSwt,k,1.3857,vtsPrac,23,0,23,0,1,,,,,,,,,,,,,,,,,,,,,,,
295999,2022-12-04_22h16.43.917,vts_reward_expectancy_bt,2022.2.4,MacIntel,60.0024001,Chrome,1440,900,,,,,0,684,,,,,,,,,,,,,,,,,160,H,star,1,0,,,2,,,,,,,,,,,,,repeat,letter,lettRpt,j,1.5713,vtsPrac,24,0,24,0,1,,,,,,,,,,,,,,,,,,,,,,,
295999,2022-12-04_22h16.43.917,vts_reward_expectancy_bt,2022.2.4,MacIntel,60.0024001,Chrome,1440,900,,,,,0,684,,,,,,,,,,,,,,,,,139,S,circle,1,0,,,2,,,,,,,,,,,,,repeat,letter,lettRpt,k,2.0822,vtsPrac,25,0,25,0,1,,,,,,,,,,,,,,,,,,,,,,,
295999,2022-12-04_22h16.43.917,vts_reward_expectancy_bt,2022.2.4,MacIntel,60.0024001,Chrome,1440,900,,,,,0,684,,,,,,,,,,,,,,,,,174,B,star,1,0,,,2,,,,,,,,,,,,,repeat,letter,lettRpt,j,2.1374,vtsPrac,26,0,26,0,1,,,,,,,,,,,,,,,,,,,,,,,
295999,2022-12-04_22h16.43.917,vts_reward_expectancy_bt,2022.2.4,MacIntel,60.0024001,Chrome,1440,900,,,,,0,684,,,,,,,,,,,,,,,,,167,U,hexagon,1,0,,,2,,,,,,,,,,,,,switch,number,numSwt,f,2.4198,vtsPrac,27,0,27,0,1,,,,,,,,,,,,,,,,,,,,,,,
295999,2022-12-04_22h16.43.917,vts_reward_expectancy_bt,2022.2.4,MacIntel,60.0024001,Chrome,1440,900,,,,,0,684,,,,,,,,,,,,,,,,,132,U,circle,1,0,,,2,,,,,,,,,,,,,switch,letter,lettSwt,k,1.4949,vtsPrac,28,0,28,0,1,,,,,,,,,,,,,,,,,,,,,,,
295999,2022-12-04_22h16.43.917,vts_reward_expectancy_bt,2022.2.4,MacIntel,60.0024001,Chrome,1440,900,,,,,0,684,,,,,,,,,,,,,,,,,125,W,hexagon,1,0,,,2,,,,,,,,,,,,,switch,number,numSwt,d,0.8861,vtsPrac,29,0,29,0,1,,,,,,,,,,,,,,,,,,,,,,,
295999,2022-12-04_22h16.43.917,vts_reward_expectancy_bt,2022.2.4,MacIntel,60.0024001,Chrome,1440,900,,,,,0,684,,,,,,,,,,,,,,,,,181,H,circle,1,0,,,2,,,,,,,,,,,,,repeat,number,numRpt,f,0.677,vtsPrac,30,0,30,0,1,,,,,,,,,,,,,,,,,,,,,,,
295999,2022-12-04_22h16.43.917,vts_reward_expectancy_bt,2022.2.4,MacIntel,60.0024001,Chrome,1440,900,,,,,0,684,,,,,,,,,,,,,,,,,160,B,star,1,0,,,2,,,,,,,,,,,,,repeat,number,numRpt,f,0.7056,vtsPrac,31,0,31,0,1,,,,,,,,,,,,,,,,,,,,,,,
295999,2022-12-04_22h16.43.917,vts_reward_expectancy_bt,2022.2.4,MacIntel,60.0024001,Chrome,1440,900,,,,,,,,,,,,,,,,,,,,,,,,,,,,,,,,,,,,,,,,,,,,,,,,,,,,,,,,,,,,,,,,,,,,,,,,,,,,
295999,2022-12-04_22h16.43.917,vts_reward_expectancy_bt,2022.2.4,MacIntel,60.0024001,Chrome,1440,900,,,,,,,,,,,,,,,,,,,,,,,,,,,,,,,,,,,,,,,,,,,,,,,,,,,,,,,,,,,,,,,,,,,,,,,,,,,,
295999,2022-12-04_22h16.43.917,vts_reward_expectancy_bt,2022.2.4,MacIntel,60.0024001,Chrome,1440,900,,,,,0,684,,,,,,,,,,,,,,,,,139,S,hexagon,1,0,,,,,,,,,,,,,,,,switch,letter,lettSwt,k,0.8654,noRew,,,,,,0,0,0,0,0,1,,,,,,,,,,,,,,,,,
295999,2022-12-04_22h16.43.917,vts_reward_expectancy_bt,2022.2.4,MacIntel,60.0024001,Chrome,1440,900,,,,,0,684,,,,,,,,,,,,,,,,,146,W,circle,1,0,,,,,,,,,,,,,,,,repeat,letter,lettRpt,k,0.6714,noRew,,,,,,0,1,0,1,0,1,,,,,,,,,,,,,,,,,
295999,2022-12-04_22h16.43.917,vts_reward_expectancy_bt,2022.2.4,MacIntel,60.0024001,Chrome,1440,900,,,,,0,684,,,,,,,,,,,,,,,,,160,F,hexagon,1,0,,,,,,,,,,,,,,,,repeat,letter,lettRpt,j,0.8314,noRew,,,,,,0,2,0,2,0,1,,,,,,,,,,,,,,,,,
295999,2022-12-04_22h16.43.917,vts_reward_expectancy_bt,2022.2.4,MacIntel,60.0024001,Chrome,1440,900,,,,,0,684,,,,,,,,,,,,,,,,,174,H,circle,1,0,,,,,,,,,,,,,,,,switch,number,numSwt,f,0.7553,noRew,,,,,,0,3,0,3,0,1,,,,,,,,,,,,,,,,,
295999,2022-12-04_22h16.43.917,vts_reward_expectancy_bt,2022.2.4,MacIntel,60.0024001,Chrome,1440,900,,,,,0,684,,,,,,,,,,,,,,,,,139,S,star,1,0,,,,,,,,,,,,,,,,switch,letter,lettSwt,k,0.6852,noRew,,,,,,0,4,0,4,0,1,,,,,,,,,,,,,,,,,
295999,2022-12-04_22h16.43.917,vts_reward_expectancy_bt,2022.2.4,MacIntel,60.0024001,Chrome,1440,900,,,,,0,684,,,,,,,,,,,,,,,,,146,W,triangle,1,0,,,,,,,,,,,,,,,,switch,number,numSwt,d,0.7948,noRew,,,,,,0,5,0,5,0,1,,,,,,,,,,,,,,,,,
295999,2022-12-04_22h16.43.917,vts_reward_expectancy_bt,2022.2.4,MacIntel,60.0024001,Chrome,1440,900,,,,,0,684,,,,,,,,,,,,,,,,,160,F,star,1,0,,,,,,,,,,,,,,,,repeat,number,numRpt,f,0.555,noRew,,,,,,0,6,0,6,0,1,,,,,,,,,,,,,,,,,
295999,2022-12-04_22h16.43.917,vts_reward_expectancy_bt,2022.2.4,MacIntel,60.0024001,Chrome,1440,900,,,,,0,684,,,,,,,,,,,,,,,,,174,H,circle,1,0,,,,,,,,,,,,,,,,switch,letter,lettSwt,j,0.9247,noRew,,,,,,0,7,0,7,0,1,,,,,,,,,,,,,,,,,
295999,2022-12-04_22h16.43.917,vts_reward_expectancy_bt,2022.2.4,MacIntel,60.0024001,Chrome,1440,900,,,,,0,684,,,,,,,,,,,,,,,,,132,S,star,1,0,,,,,,,,,,,,,,,,switch,number,numSwt,d,0.634,noRew,,,,,,0,8,0,8,0,1,,,,,,,,,,,,,,,,,
295999,2022-12-04_22h16.43.917,vts_reward_expectancy_bt,2022.2.4,MacIntel,60.0024001,Chrome,1440,900,,,,,0,684,,,,,,,,,,,,,,,,,125,B,triangle,1,0,,,,,,,,,,,,,,,,repeat,number,numRpt,d,0.7888,noRew,,,,,,0,9,0,9,0,1,,,,,,,,,,,,,,,,,
295999,2022-12-04_22h16.43.917,vts_reward_expectancy_bt,2022.2.4,MacIntel,60.0024001,Chrome,1440,900,,,,,0,684,,,,,,,,,,,,,,,,,181,U,triangle,1,0,,,,,,,,,,,,,,,,repeat,number,numRpt,f,0.6595,noRew,,,,,,0,10,0,10,0,1,,,,,,,,,,,,,,,,,
295999,2022-12-04_22h16.43.917,vts_reward_expectancy_bt,2022.2.4,MacIntel,60.0024001,Chrome,1440,900,,,,,0,684,,,,,,,,,,,,,,,,,167,F,hexagon,1,0,,,,,,,,,,,,,,,,repeat,number,numRpt,f,0.8663,noRew,,,,,,0,11,0,11,0,1,,,,,,,,,,,,,,,,,
295999,2022-12-04_22h16.43.917,vts_reward_expectancy_bt,2022.2.4,MacIntel,60.0024001,Chrome,1440,900,,,,,0,684,,,,,,,,,,,,,,,,,125,S,triangle,1,0,,,,,,,,,,,,,,,,repeat,number,numRpt,d,0.6437,noRew,,,,,,0,12,0,12,0,1,,,,,,,,,,,,,,,,,
295999,2022-12-04_22h16.43.917,vts_reward_expectancy_bt,2022.2.4,MacIntel,60.0024001,Chrome,1440,900,,,,,0,684,,,,,,,,,,,,,,,,,174,U,star,1,0,,,,,,,,,,,,,,,,switch,letter,lettSwt,k,0.6542,noRew,,,,,,0,13,0,13,0,1,,,,,,,,,,,,,,,,,
295999,2022-12-04_22h16.43.917,vts_reward_expectancy_bt,2022.2.4,MacIntel,60.0024001,Chrome,1440,900,,,,,0,684,,,,,,,,,,,,,,,,,132,Y,hexagon,1,0,,,,,,,,,,,,,,,,switch,number,numSwt,d,0.7036,noRew,,,,,,0,14,0,14,0,1,,,,,,,,,,,,,,,,,
295999,2022-12-04_22h16.43.917,vts_reward_expectancy_bt,2022.2.4,MacIntel,60.0024001,Chrome,1440,900,,,,,0,684,,,,,,,,,,,,,,,,,146,B,circle,1,0,,,,,,,,,,,,,,,,repeat,number,numRpt,d,0.8132,noRew,,,,,,0,15,0,15,0,1,,,,,,,,,,,,,,,,,
295999,2022-12-04_22h16.43.917,vts_reward_expectancy_bt,2022.2.4,MacIntel,60.0024001,Chrome,1440,900,,,,,0,684,,,,,,,,,,,,,,,,,167,H,hexagon,1,0,,,,,,,,,,,,,,,,repeat,number,numRpt,f,1.1215,noRew,,,,,,0,16,0,16,0,1,,,,,,,,,,,,,,,,,
295999,2022-12-04_22h16.43.917,vts_reward_expectancy_bt,2022.2.4,MacIntel,60.0024001,Chrome,1440,900,,,,,0,684,,,,,,,,,,,,,,,,,132,Y,triangle,1,0,,,,,,,,,,,,,,,,switch,letter,lettSwt,k,0.7494,noRew,,,,,,0,17,0,17,0,1,,,,,,,,,,,,,,,,,
295999,2022-12-04_22h16.43.917,vts_reward_expectancy_bt,2022.2.4,MacIntel,60.0024001,Chrome,1440,900,,,,,0,684,,,,,,,,,,,,,,,,,174,D,hexagon,1,0,,,,,,,,,,,,,,,,repeat,letter,lettRpt,j,0.7366,noRew,,,,,,0,18,0,18,0,1,,,,,,,,,,,,,,,,,
295999,2022-12-04_22h16.43.917,vts_reward_expectancy_bt,2022.2.4,MacIntel,60.0024001,Chrome,1440,900,,,,,0,684,,,,,,,,,,,,,,,,,146,S,triangle,1,0,,,,,,,,,,,,,,,,switch,number,numSwt,d,0.8476,noRew,,,,,,0,19,0,19,0,1,,,,,,,,,,,,,,,,,
295999,2022-12-04_22h16.43.917,vts_reward_expectancy_bt,2022.2.4,MacIntel,60.0024001,Chrome,1440,900,,,,,0,684,,,,,,,,,,,,,,,,,160,S,hexagon,1,0,,,,,,,,,,,,,,,,repeat,number,numRpt,f,0.6877,noRew,,,,,,0,20,0,20,0,1,,,,,,,,,,,,,,,,,
295999,2022-12-04_22h16.43.917,vts_reward_expectancy_bt,2022.2.4,MacIntel,60.0024001,Chrome,1440,900,,,,,0,684,,,,,,,,,,,,,,,,,181,U,triangle,1,0,,,,,,,,,,,,,,,,repeat,number,numRpt,f,0.6583,noRew,,,,,,0,21,0,21,0,1,,,,,,,,,,,,,,,,,
295999,2022-12-04_22h16.43.917,vts_reward_expectancy_bt,2022.2.4,MacIntel,60.0024001,Chrome,1440,900,,,,,0,684,,,,,,,,,,,,,,,,,139,Y,hexagon,1,0,,,,,,,,,,,,,,,,repeat,number,numRpt,d,0.6576,noRew,,,,,,0,22,0,22,0,1,,,,,,,,,,,,,,,,,
295999,2022-12-04_22h16.43.917,vts_reward_expectancy_bt,2022.2.4,MacIntel,60.0024001,Chrome,1440,900,,,,,0,684,,,,,,,,,,,,,,,,,167,H,triangle,1,0,,,,,,,,,,,,,,,,switch,letter,lettSwt,j,0.8799,noRew,,,,,,0,23,0,23,0,1,,,,,,,,,,,,,,,,,
295999,2022-12-04_22h16.43.917,vts_reward_expectancy_bt,2022.2.4,MacIntel,60.0024001,Chrome,1440,900,,,,,0,684,,,,,,,,,,,,,,,,,146,U,triangle,1,0,,,,,,,,,,,,,,,,switch,number,numSwt,d,0.7173,noRew,,,,,,0,24,0,24,0,1,,,,,,,,,,,,,,,,,
295999,2022-12-04_22h16.43.917,vts_reward_expectancy_bt,2022.2.4,MacIntel,60.0024001,Chrome,1440,900,,,,,0,684,,,,,,,,,,,,,,,,,132,D,hexagon,1,0,,,,,,,,,,,,,,,,repeat,number,numRpt,d,0.6293,noRew,,,,,,0,25,0,25,0,1,,,,,,,,,,,,,,,,,
295999,2022-12-04_22h16.43.917,vts_reward_expectancy_bt,2022.2.4,MacIntel,60.0024001,Chrome,1440,900,,,,,0,684,,,,,,,,,,,,,,,,,160,H,circle,0,0,,,,,,,,,,,,,,,,repeat,number,NA,d,0.6681,noRew,,,,,,0,26,0,26,0,1,,,,,,,,,,,,,,,,,
295999,2022-12-04_22h16.43.917,vts_reward_expectancy_bt,2022.2.4,MacIntel,60.0024001,Chrome,1440,900,,,,,0,684,,,,,,,,,,,,,,,,,181,Y,triangle,1,1,,,,,,,,,,,,,,,,switch,letter,lettSwt,k,0.7191,noRew,,,,,,0,27,0,27,0,1,,,,,,,,,,,,,,,,,
295999,2022-12-04_22h16.43.917,vts_reward_expectancy_bt,2022.2.4,MacIntel,60.0024001,Chrome,1440,900,,,,,0,684,,,,,,,,,,,,,,,,,174,Y,circle,1,0,,,,,,,,,,,,,,,,repeat,letter,lettRpt,k,0.7229,noRew,,,,,,0,28,0,28,0,1,,,,,,,,,,,,,,,,,
295999,2022-12-04_22h16.43.917,vts_reward_expectancy_bt,2022.2.4,MacIntel,60.0024001,Chrome,1440,900,,,,,0,684,,,,,,,,,,,,,,,,,125,U,triangle,1,0,,,,,,,,,,,,,,,,repeat,letter,lettRpt,k,0.9457,noRew,,,,,,0,29,0,29,0,1,,,,,,,,,,,,,,,,,
295999,2022-12-04_22h16.43.917,vts_reward_expectancy_bt,2022.2.4,MacIntel,60.0024001,Chrome,1440,900,,,,,0,684,,,,,,,,,,,,,,,,,132,S,star,1,0,,,,,,,,,,,,,,,,switch,number,numSwt,d,1.0306,noRew,,,,,,0,30,0,30,0,1,,,,,,,,,,,,,,,,,
295999,2022-12-04_22h16.43.917,vts_reward_expectancy_bt,2022.2.4,MacIntel,60.0024001,Chrome,1440,900,,,,,0,684,,,,,,,,,,,,,,,,,167,B,circle,1,0,,,,,,,,,,,,,,,,switch,letter,lettSwt,j,1.9519,noRew,,,,,,0,31,0,31,0,1,,,,,,,,,,,,,,,,,
295999,2022-12-04_22h16.43.917,vts_reward_expectancy_bt,2022.2.4,MacIntel,60.0024001,Chrome,1440,900,,,,,0,684,,,,,,,,,,,,,,,,,167,F,triangle,1,0,,,,,,,,,,,,,,,,repeat,letter,lettRpt,j,1.0344,noRew,,,,,,0,32,0,32,0,1,,,,,,,,,,,,,,,,,
295999,2022-12-04_22h16.43.917,vts_reward_expectancy_bt,2022.2.4,MacIntel,60.0024001,Chrome,1440,900,,,,,0,684,,,,,,,,,,,,,,,,,139,S,circle,1,0,,,,,,,,,,,,,,,,switch,number,numSwt,d,0.8135,noRew,,,,,,0,33,0,33,0,1,,,,,,,,,,,,,,,,,
295999,2022-12-04_22h16.43.917,vts_reward_expectancy_bt,2022.2.4,MacIntel,60.0024001,Chrome,1440,900,,,,,0,684,,,,,,,,,,,,,,,,,174,B,star,1,0,,,,,,,,,,,,,,,,repeat,number,numRpt,f,0.6704,noRew,,,,,,0,34,0,34,0,1,,,,,,,,,,,,,,,,,
295999,2022-12-04_22h16.43.917,vts_reward_expectancy_bt,2022.2.4,MacIntel,60.0024001,Chrome,1440,900,,,,,0,684,,,,,,,,,,,,,,,,,146,Y,circle,1,0,,,,,,,,,,,,,,,,switch,letter,lettSwt,k,0.9368,noRew,,,,,,0,35,0,35,0,1,,,,,,,,,,,,,,,,,
295999,2022-12-04_22h16.43.917,vts_reward_expectancy_bt,2022.2.4,MacIntel,60.0024001,Chrome,1440,900,,,,,0,684,,,,,,,,,,,,,,,,,146,S,hexagon,1,0,,,,,,,,,,,,,,,,switch,number,numSwt,d,2.8407,noRew,,,,,,0,36,0,36,0,1,,,,,,,,,,,,,,,,,
295999,2022-12-04_22h16.43.917,vts_reward_expectancy_bt,2022.2.4,MacIntel,60.0024001,Chrome,1440,900,,,,,0,684,,,,,,,,,,,,,,,,,181,H,circle,1,0,,,,,,,,,,,,,,,,repeat,number,numRpt,f,0.6482,noRew,,,,,,0,37,0,37,0,1,,,,,,,,,,,,,,,,,
295999,2022-12-04_22h16.43.917,vts_reward_expectancy_bt,2022.2.4,MacIntel,60.0024001,Chrome,1440,900,,,,,0,684,,,,,,,,,,,,,,,,,125,F,hexagon,1,0,,,,,,,,,,,,,,,,repeat,number,numRpt,d,0.8695,noRew,,,,,,0,38,0,38,0,1,,,,,,,,,,,,,,,,,
295999,2022-12-04_22h16.43.917,vts_reward_expectancy_bt,2022.2.4,MacIntel,60.0024001,Chrome,1440,900,,,,,0,684,,,,,,,,,,,,,,,,,167,U,star,1,0,,,,,,,,,,,,,,,,repeat,number,numRpt,f,1.2361,noRew,,,,,,0,39,0,39,0,1,,,,,,,,,,,,,,,,,
295999,2022-12-04_22h16.43.917,vts_reward_expectancy_bt,2022.2.4,MacIntel,60.0024001,Chrome,1440,900,,,,,0,684,,,,,,,,,,,,,,,,,146,H,triangle,1,0,,,,,,,,,,,,,,,,repeat,number,numRpt,d,0.75,noRew,,,,,,0,40,0,40,0,1,,,,,,,,,,,,,,,,,
295999,2022-12-04_22h16.43.917,vts_reward_expectancy_bt,2022.2.4,MacIntel,60.0024001,Chrome,1440,900,,,,,0,684,,,,,,,,,,,,,,,,,160,W,star,1,0,,,,,,,,,,,,,,,,repeat,number,numRpt,f,1.0838,noRew,,,,,,0,41,0,41,0,1,,,,,,,,,,,,,,,,,
295999,2022-12-04_22h16.43.917,vts_reward_expectancy_bt,2022.2.4,MacIntel,60.0024001,Chrome,1440,900,,,,,0,684,,,,,,,,,,,,,,,,,181,Y,triangle,1,0,,,,,,,,,,,,,,,,repeat,number,numRpt,f,0.7554,noRew,,,,,,0,42,0,42,0,1,,,,,,,,,,,,,,,,,
295999,2022-12-04_22h16.43.917,vts_reward_expectancy_bt,2022.2.4,MacIntel,60.0024001,Chrome,1440,900,,,,,0,684,,,,,,,,,,,,,,,,,132,F,star,-1,0,,,,,,,,,,,,,,,,switch,no_choice,NA,,,noRew,,,,,,0,43,0,43,0,1,,,,,,,,,,,,,,,,,
295999,2022-12-04_22h16.43.917,vts_reward_expectancy_bt,2022.2.4,MacIntel,60.0024001,Chrome,1440,900,,,,,0,684,,,,,,,,,,,,,,,,,146,W,hexagon,1,0,,,,,,,,,,,,,,,,switch,number,numSwt,d,1.3847,noRew,,,,,,0,44,0,44,0,1,,,,,,,,,,,,,,,,,
295999,2022-12-04_22h16.43.917,vts_reward_expectancy_bt,2022.2.4,MacIntel,60.0024001,Chrome,1440,900,,,,,0,684,,,,,,,,,,,,,,,,,139,D,star,1,0,,,,,,,,,,,,,,,,switch,letter,lettSwt,j,1.0935,noRew,,,,,,0,45,0,45,0,1,,,,,,,,,,,,,,,,,
295999,2022-12-04_22h16.43.917,vts_reward_expectancy_bt,2022.2.4,MacIntel,60.0024001,Chrome,1440,900,,,,,0,684,,,,,,,,,,,,,,,,,132,Y,star,1,0,,,,,,,,,,,,,,,,repeat,letter,lettRpt,k,1.9131,noRew,,,,,,0,46,0,46,0,1,,,,,,,,,,,,,,,,,
295999,2022-12-04_22h16.43.917,vts_reward_expectancy_bt,2022.2.4,MacIntel,60.0024001,Chrome,1440,900,,,,,0,684,,,,,,,,,,,,,,,,,174,U,hexagon,1,0,,,,,,,,,,,,,,,,repeat,letter,lettRpt,k,1.1298,noRew,,,,,,0,47,0,47,0,1,,,,,,,,,,,,,,,,,
295999,2022-12-04_22h16.43.917,vts_reward_expectancy_bt,2022.2.4,MacIntel,60.0024001,Chrome,1440,900,,,,,0,684,,,,,,,,,,,,,,,,,132,Y,hexagon,1,0,,,,,,,,,,,,,,,,repeat,letter,lettRpt,k,0.5457,noRew,,,,,,0,48,0,48,0,1,,,,,,,,,,,,,,,,,
295999,2022-12-04_22h16.43.917,vts_reward_expectancy_bt,2022.2.4,MacIntel,60.0024001,Chrome,1440,900,,,,,0,684,,,,,,,,,,,,,,,,,181,B,circle,1,0,,,,,,,,,,,,,,,,repeat,letter,lettRpt,j,0.8783,noRew,,,,,,0,49,0,49,0,1,,,,,,,,,,,,,,,,,
295999,2022-12-04_22h16.43.917,vts_reward_expectancy_bt,2022.2.4,MacIntel,60.0024001,Chrome,1440,900,,,,,0,684,,,,,,,,,,,,,,,,,167,U,circle,1,0,,,,,,,,,,,,,,,,repeat,letter,lettRpt,k,0.7985,noRew,,,,,,0,50,0,50,0,1,,,,,,,,,,,,,,,,,
295999,2022-12-04_22h16.43.917,vts_reward_expectancy_bt,2022.2.4,MacIntel,60.0024001,Chrome,1440,900,,,,,0,684,,,,,,,,,,,,,,,,,160,F,triangle,1,0,,,,,,,,,,,,,,,,repeat,letter,lettRpt,j,0.8683,noRew,,,,,,0,51,0,51,0,1,,,,,,,,,,,,,,,,,
295999,2022-12-04_22h16.43.917,vts_reward_expectancy_bt,2022.2.4,MacIntel,60.0024001,Chrome,1440,900,,,,,0,684,,,,,,,,,,,,,,,,,160,B,circle,1,0,,,,,,,,,,,,,,,,repeat,letter,lettRpt,j,0.6407,noRew,,,,,,0,52,0,52,0,1,,,,,,,,,,,,,,,,,
295999,2022-12-04_22h16.43.917,vts_reward_expectancy_bt,2022.2.4,MacIntel,60.0024001,Chrome,1440,900,,,,,0,684,,,,,,,,,,,,,,,,,146,U,triangle,1,0,,,,,,,,,,,,,,,,repeat,letter,lettRpt,k,0.7633,noRew,,,,,,0,53,0,53,0,1,,,,,,,,,,,,,,,,,
295999,2022-12-04_22h16.43.917,vts_reward_expectancy_bt,2022.2.4,MacIntel,60.0024001,Chrome,1440,900,,,,,0,684,,,,,,,,,,,,,,,,,139,W,hexagon,0,0,,,,,,,,,,,,,,,,repeat,letter,NA,j,0.601,noRew,,,,,,0,54,0,54,0,1,,,,,,,,,,,,,,,,,
295999,2022-12-04_22h16.43.917,vts_reward_expectancy_bt,2022.2.4,MacIntel,60.0024001,Chrome,1440,900,,,,,0,684,,,,,,,,,,,,,,,,,174,S,star,1,1,,,,,,,,,,,,,,,,repeat,letter,lettRpt,k,0.7694,noRew,,,,,,0,55,0,55,0,1,,,,,,,,,,,,,,,,,
295999,2022-12-04_22h16.43.917,vts_reward_expectancy_bt,2022.2.4,MacIntel,60.0024001,Chrome,1440,900,,,,,0,684,,,,,,,,,,,,,,,,,146,H,triangle,1,0,,,,,,,,,,,,,,,,repeat,letter,lettRpt,j,1.0169,noRew,,,,,,0,56,0,56,0,1,,,,,,,,,,,,,,,,,
295999,2022-12-04_22h16.43.917,vts_reward_expectancy_bt,2022.2.4,MacIntel,60.0024001,Chrome,1440,900,,,,,0,684,,,,,,,,,,,,,,,,,139,D,circle,1,0,,,,,,,,,,,,,,,,repeat,letter,lettRpt,j,0.8335,noRew,,,,,,0,57,0,57,0,1,,,,,,,,,,,,,,,,,
295999,2022-12-04_22h16.43.917,vts_reward_expectancy_bt,2022.2.4,MacIntel,60.0024001,Chrome,1440,900,,,,,0,684,,,,,,,,,,,,,,,,,125,F,triangle,1,0,,,,,,,,,,,,,,,,repeat,letter,lettRpt,j,0.8888,noRew,,,,,,0,58,0,58,0,1,,,,,,,,,,,,,,,,,
295999,2022-12-04_22h16.43.917,vts_reward_expectancy_bt,2022.2.4,MacIntel,60.0024001,Chrome,1440,900,,,,,0,684,,,,,,,,,,,,,,,,,132,B,circle,1,0,,,,,,,,,,,,,,,,repeat,letter,lettRpt,j,0.6238,noRew,,,,,,0,59,0,59,0,1,,,,,,,,,,,,,,,,,
295999,2022-12-04_22h16.43.917,vts_reward_expectancy_bt,2022.2.4,MacIntel,60.0024001,Chrome,1440,900,,,,,0,684,,,,,,,,,,,,,,,,,146,W,triangle,1,0,,,,,,,,,,,,,,,,repeat,letter,lettRpt,k,0.6275,noRew,,,,,,0,60,0,60,0,1,,,,,,,,,,,,,,,,,
295999,2022-12-04_22h16.43.917,vts_reward_expectancy_bt,2022.2.4,MacIntel,60.0024001,Chrome,1440,900,,,,,0,684,,,,,,,,,,,,,,,,,160,F,hexagon,1,0,,,,,,,,,,,,,,,,switch,number,numSwt,f,0.693,noRew,,,,,,0,61,0,61,0,1,,,,,,,,,,,,,,,,,
295999,2022-12-04_22h16.43.917,vts_reward_expectancy_bt,2022.2.4,MacIntel,60.0024001,Chrome,1440,900,,,,,0,684,,,,,,,,,,,,,,,,,139,U,star,1,0,,,,,,,,,,,,,,,,repeat,number,numRpt,d,0.698,noRew,,,,,,0,62,0,62,0,1,,,,,,,,,,,,,,,,,
295999,2022-12-04_22h16.43.917,vts_reward_expectancy_bt,2022.2.4,MacIntel,60.0024001,Chrome,1440,900,,,,,0,684,,,,,,,,,,,,,,,,,167,Y,hexagon,1,0,,,,,,,,,,,,,,,,repeat,number,numRpt,f,0.7352,noRew,,,,,,0,63,0,63,0,1,,,,,,,,,,,,,,,,,
295999,2022-12-04_22h16.43.917,vts_reward_expectancy_bt,2022.2.4,MacIntel,60.0024001,Chrome,1440,900,,,,,,,,,,,,,,,,,,,,,,,,,,,,,,,,,,,,,,,,,,,,,,,,,,,,,,,,,,,,,,,,,,,,,,,,,,,,
295999,2022-12-04_22h16.43.917,vts_reward_expectancy_bt,2022.2.4,MacIntel,60.0024001,Chrome,1440,900,,,,,1,685,,,,,,,,,,,,,,,,,167,U,circle,1,0,,,,,,,,,,,,,,,,repeat,number,numRpt,f,0.7515,Lo,,,,,,0,,,,,,space,8.4463,high,0,0,0,0,1,,,,,,,,,
295999,2022-12-04_22h16.43.917,vts_reward_expectancy_bt,2022.2.4,MacIntel,60.0024001,Chrome,1440,900,,,,,1,686,,,,,,,,,,,,,,,,,181,W,triangle,1,0,,,,,,,,,,,,,,,,repeat,number,numRpt,f,0.609,Lo,,,,,,0,,,,,,,,high,1,0,1,0,1,,,,,,,,,
295999,2022-12-04_22h16.43.917,vts_reward_expectancy_bt,2022.2.4,MacIntel,60.0024001,Chrome,1440,900,,,,,0,686,,,,,,,,,,,,,,,,,139,F,hexagon,0,0,,,,,,,,,,,,,,,,repeat,number,NA,f,0.3339,Lo,,,,,,0,,,,,,,,high,2,0,2,0,1,,,,,,,,,
295999,2022-12-04_22h16.43.917,vts_reward_expectancy_bt,2022.2.4,MacIntel,60.0024001,Chrome,1440,900,,,,,10,696,,,,,,,,,,,,,,,,,174,B,star,1,1,,,,,,,,,,,,,,,,repeat,number,numRpt,f,0.4587,Hi,,,,,,0,,,,,,,,high,3,0,3,0,1,,,,,,,,,
295999,2022-12-04_22h16.43.917,vts_reward_expectancy_bt,2022.2.4,MacIntel,60.0024001,Chrome,1440,900,,,,,10,706,,,,,,,,,,,,,,,,,160,D,circle,1,0,,,,,,,,,,,,,,,,repeat,number,numRpt,f,0.6171,Lo,,,,,,0,,,,,,,,high,4,0,4,0,1,,,,,,,,,
295999,2022-12-04_22h16.43.917,vts_reward_expectancy_bt,2022.2.4,MacIntel,60.0024001,Chrome,1440,900,,,,,1,707,,,,,,,,,,,,,,,,,125,Y,triangle,1,0,,,,,,,,,,,,,,,,repeat,number,numRpt,d,0.5197,Lo,,,,,,0,,,,,,,,high,5,0,5,0,1,,,,,,,,,
295999,2022-12-04_22h16.43.917,vts_reward_expectancy_bt,2022.2.4,MacIntel,60.0024001,Chrome,1440,900,,,,,10,717,,,,,,,,,,,,,,,,,132,H,hexagon,1,0,,,,,,,,,,,,,,,,repeat,number,numRpt,d,0.6232,Hi,,,,,,0,,,,,,,,high,6,0,6,0,1,,,,,,,,,
295999,2022-12-04_22h16.43.917,vts_reward_expectancy_bt,2022.2.4,MacIntel,60.0024001,Chrome,1440,900,,,,,10,727,,,,,,,,,,,,,,,,,146,S,star,1,0,,,,,,,,,,,,,,,,repeat,number,numRpt,d,0.473,Hi,,,,,,0,,,,,,,,high,7,0,7,0,1,,,,,,,,,
295999,2022-12-04_22h16.43.917,vts_reward_expectancy_bt,2022.2.4,MacIntel,60.0024001,Chrome,1440,900,,,,,10,737,,,,,,,,,,,,,,,,,167,U,hexagon,1,0,,,,,,,,,,,,,,,,repeat,number,numRpt,f,0.5438,Hi,,,,,,0,,,,,,,,high,8,0,8,0,1,,,,,,,,,
295999,2022-12-04_22h16.43.917,vts_reward_expectancy_bt,2022.2.4,MacIntel,60.0024001,Chrome,1440,900,,,,,1,738,,,,,,,,,,,,,,,,,181,W,triangle,1,0,,,,,,,,,,,,,,,,repeat,number,numRpt,f,0.5125,Lo,,,,,,0,,,,,,,,high,9,0,9,0,1,,,,,,,,,
295999,2022-12-04_22h16.43.917,vts_reward_expectancy_bt,2022.2.4,MacIntel,60.0024001,Chrome,1440,900,,,,,0,738,,,,,,,,,,,,,,,,,139,F,circle,0,0,,,,,,,,,,,,,,,,repeat,number,NA,f,0.5224,Lo,,,,,,0,,,,,,,,high,10,0,10,0,1,,,,,,,,,
295999,2022-12-04_22h16.43.917,vts_reward_expectancy_bt,2022.2.4,MacIntel,60.0024001,Chrome,1440,900,,,,,10,748,,,,,,,,,,,,,,,,,174,B,star,1,1,,,,,,,,,,,,,,,,switch,letter,lettSwt,j,0.587,Hi,,,,,,0,,,,,,,,high,11,0,11,0,1,,,,,,,,,
295999,2022-12-04_22h16.43.917,vts_reward_expectancy_bt,2022.2.4,MacIntel,60.0024001,Chrome,1440,900,,,,,10,758,,,,,,,,,,,,,,,,,160,D,hexagon,1,0,,,,,,,,,,,,,,,,repeat,letter,lettRpt,j,0.5783,Hi,,,,,,0,,,,,,,,high,12,0,12,0,1,,,,,,,,,
295999,2022-12-04_22h16.43.917,vts_reward_expectancy_bt,2022.2.4,MacIntel,60.0024001,Chrome,1440,900,,,,,1,759,,,,,,,,,,,,,,,,,125,Y,triangle,1,0,,,,,,,,,,,,,,,,repeat,letter,lettRpt,k,0.5786,Lo,,,,,,0,,,,,,,,high,13,0,13,0,1,,,,,,,,,
295999,2022-12-04_22h16.43.917,vts_reward_expectancy_bt,2022.2.4,MacIntel,60.0024001,Chrome,1440,900,,,,,10,769,,,,,,,,,,,,,,,,,132,H,star,1,0,,,,,,,,,,,,,,,,repeat,letter,lettRpt,j,0.6697,Hi,,,,,,0,,,,,,,,high,14,0,14,0,1,,,,,,,,,
295999,2022-12-04_22h16.43.917,vts_reward_expectancy_bt,2022.2.4,MacIntel,60.0024001,Chrome,1440,900,,,,,1,770,,,,,,,,,,,,,,,,,146,S,circle,1,0,,,,,,,,,,,,,,,,repeat,letter,lettRpt,k,0.7129,Lo,,,,,,0,,,,,,,,high,15,0,15,0,1,,,,,,,,,
295999,2022-12-04_22h16.43.917,vts_reward_expectancy_bt,2022.2.4,MacIntel,60.0024001,Chrome,1440,900,,,,,10,780,,,,,,,,,,,,,,,,,146,W,triangle,1,0,,,,,,,,,,,,,,,,repeat,letter,lettRpt,k,0.6171,Lo,,,,,,0,,,,,,,,high,16,0,16,0,1,,,,,,,,,
295999,2022-12-04_22h16.43.917,vts_reward_expectancy_bt,2022.2.4,MacIntel,60.0024001,Chrome,1440,900,,,,,1,781,,,,,,,,,,,,,,,,,174,D,circle,1,0,,,,,,,,,,,,,,,,repeat,letter,lettRpt,j,0.5136,Lo,,,,,,0,,,,,,,,high,17,0,17,0,1,,,,,,,,,
295999,2022-12-04_22h16.43.917,vts_reward_expectancy_bt,2022.2.4,MacIntel,60.0024001,Chrome,1440,900,,,,,0,781,,,,,,,,,,,,,,,,,167,F,star,1,0,,,,,,,,,,,,,,,,repeat,letter,lettRpt,j,0.7664,Hi,,,,,,0,,,,,,,,high,18,0,18,0,1,,,,,,,,,
295999,2022-12-04_22h16.43.917,vts_reward_expectancy_bt,2022.2.4,MacIntel,60.0024001,Chrome,1440,900,,,,,0,781,,,,,,,,,,,,,,,,,132,H,hexagon,1,0,,,,,,,,,,,,,,,,switch,number,numSwt,d,0.7307,Hi,,,,,,0,,,,,,,,high,19,0,19,0,1,,,,,,,,,
295999,2022-12-04_22h16.43.917,vts_reward_expectancy_bt,2022.2.4,MacIntel,60.0024001,Chrome,1440,900,,,,,10,791,,,,,,,,,,,,,,,,,125,B,star,1,0,,,,,,,,,,,,,,,,repeat,number,numRpt,d,0.413,Hi,,,,,,0,,,,,,,,high,20,0,20,0,1,,,,,,,,,
295999,2022-12-04_22h16.43.917,vts_reward_expectancy_bt,2022.2.4,MacIntel,60.0024001,Chrome,1440,900,,,,,1,792,,,,,,,,,,,,,,,,,139,U,hexagon,1,0,,,,,,,,,,,,,,,,repeat,number,numRpt,d,0.5328,Hi,,,,,,0,,,,,,,,high,21,0,21,0,1,,,,,,,,,
295999,2022-12-04_22h16.43.917,vts_reward_expectancy_bt,2022.2.4,MacIntel,60.0024001,Chrome,1440,900,,,,,10,802,,,,,,,,,,,,,,,,,181,S,circle,1,0,,,,,,,,,,,,,,,,repeat,number,numRpt,f,0.4626,Lo,,,,,,0,,,,,,,,high,22,0,22,0,1,,,,,,,,,
295999,2022-12-04_22h16.43.917,vts_reward_expectancy_bt,2022.2.4,MacIntel,60.0024001,Chrome,1440,900,,,,,1,803,,,,,,,,,,,,,,,,,160,Y,triangle,1,0,,,,,,,,,,,,,,,,repeat,number,numRpt,f,0.5331,Lo,,,,,,0,,,,,,,,high,23,0,23,0,1,,,,,,,,,
295999,2022-12-04_22h16.43.917,vts_reward_expectancy_bt,2022.2.4,MacIntel,60.0024001,Chrome,1440,900,,,,,10,813,,,,,,,,,,,,,,,,,139,S,hexagon,1,0,,,,,,,,,,,,,,,,repeat,number,numRpt,d,0.5873,Hi,,,,,,0,,,,,,,,high,24,0,24,0,1,,,,,,,,,
295999,2022-12-04_22h16.43.917,vts_reward_expectancy_bt,2022.2.4,MacIntel,60.0024001,Chrome,1440,900,,,,,1,814,,,,,,,,,,,,,,,,,181,D,circle,1,0,,,,,,,,,,,,,,,,switch,letter,lettSwt,j,0.5481,Lo,,,,,,0,,,,,,,,high,25,0,25,0,1,,,,,,,,,
295999,2022-12-04_22h16.43.917,vts_reward_expectancy_bt,2022.2.4,MacIntel,60.0024001,Chrome,1440,900,,,,,1,815,,,,,,,,,,,,,,,,,132,Y,triangle,1,0,,,,,,,,,,,,,,,,repeat,letter,lettRpt,k,0.5826,Lo,,,,,,0,,,,,,,,high,26,0,26,0,1,,,,,,,,,
295999,2022-12-04_22h16.43.917,vts_reward_expectancy_bt,2022.2.4,MacIntel,60.0024001,Chrome,1440,900,,,,,10,825,,,,,,,,,,,,,,,,,167,W,star,1,0,,,,,,,,,,,,,,,,repeat,letter,lettRpt,k,0.5336,Hi,,,,,,0,,,,,,,,high,27,0,27,0,1,,,,,,,,,
295999,2022-12-04_22h16.43.917,vts_reward_expectancy_bt,2022.2.4,MacIntel,60.0024001,Chrome,1440,900,,,,,10,835,,,,,,,,,,,,,,,,,125,F,triangle,1,0,,,,,,,,,,,,,,,,repeat,letter,lettRpt,j,0.6634,Lo,,,,,,0,,,,,,,,high,28,0,28,0,1,,,,,,,,,
295999,2022-12-04_22h16.43.917,vts_reward_expectancy_bt,2022.2.4,MacIntel,60.0024001,Chrome,1440,900,,,,,1,836,,,,,,,,,,,,,,,,,160,H,circle,1,0,,,,,,,,,,,,,,,,repeat,letter,lettRpt,j,0.5834,Lo,,,,,,0,,,,,,,,high,29,0,29,0,1,,,,,,,,,
295999,2022-12-04_22h16.43.917,vts_reward_expectancy_bt,2022.2.4,MacIntel,60.0024001,Chrome,1440,900,,,,,0,836,,,,,,,,,,,,,,,,,174,U,star,1,0,,,,,,,,,,,,,,,,repeat,letter,lettRpt,k,0.763,Hi,,,,,,0,,,,,,,,high,30,0,30,0,1,,,,,,,,,
295999,2022-12-04_22h16.43.917,vts_reward_expectancy_bt,2022.2.4,MacIntel,60.0024001,Chrome,1440,900,,,,,10,846,,,,,,,,,,,,,,,,,146,B,hexagon,1,0,,,,,,,,,,,,,,,,repeat,letter,lettRpt,j,0.5143,Hi,,,,,,0,,,,,,,,high,31,0,31,0,1,,,,,,,,,
295999,2022-12-04_22h16.43.917,vts_reward_expectancy_bt,2022.2.4,MacIntel,60.0024001,Chrome,1440,900,,,,,0,846,,,,,,,,,,,,,,,,,160,D,star,1,0,,,,,,,,,,,,,,,,repeat,letter,lettRpt,j,0.7947,Hi,,,,,,1,,,,,,space,1.7606,high,0,0,0,0,1,,,,,,,,,
295999,2022-12-04_22h16.43.917,vts_reward_expectancy_bt,2022.2.4,MacIntel,60.0024001,Chrome,1440,900,,,,,0,846,,,,,,,,,,,,,,,,,132,B,triangle,0,0,,,,,,,,,,,,,,,,repeat,letter,NA,k,0.5485,Hi,,,,,,1,,,,,,,,high,1,0,1,0,1,,,,,,,,,
295999,2022-12-04_22h16.43.917,vts_reward_expectancy_bt,2022.2.4,MacIntel,60.0024001,Chrome,1440,900,,,,,0,846,,,,,,,,,,,,,,,,,167,S,circle,0,1,,,,,,,,,,,,,,,,repeat,letter,NA,j,0.5994,Hi,,,,,,1,,,,,,,,high,2,0,2,0,1,,,,,,,,,
295999,2022-12-04_22h16.43.917,vts_reward_expectancy_bt,2022.2.4,MacIntel,60.0024001,Chrome,1440,900,,,,,10,856,,,,,,,,,,,,,,,,,125,W,hexagon,1,1,,,,,,,,,,,,,,,,repeat,letter,lettRpt,k,0.516,Hi,,,,,,1,,,,,,,,high,3,0,3,0,1,,,,,,,,,
295999,2022-12-04_22h16.43.917,vts_reward_expectancy_bt,2022.2.4,MacIntel,60.0024001,Chrome,1440,900,,,,,0,856,,,,,,,,,,,,,,,,,139,U,star,0,0,,,,,,,,,,,,,,,,repeat,letter,NA,j,0.554,Hi,,,,,,1,,,,,,,,high,4,0,4,0,1,,,,,,,,,
295999,2022-12-04_22h16.43.917,vts_reward_expectancy_bt,2022.2.4,MacIntel,60.0024001,Chrome,1440,900,,,,,0,856,,,,,,,,,,,,,,,,,181,H,triangle,0,1,,,,,,,,,,,,,,,,repeat,letter,NA,k,0.4557,Hi,,,,,,1,,,,,,,,high,5,0,5,0,1,,,,,,,,,
295999,2022-12-04_22h16.43.917,vts_reward_expectancy_bt,2022.2.4,MacIntel,60.0024001,Chrome,1440,900,,,,,1,857,,,,,,,,,,,,,,,,,146,F,circle,1,1,,,,,,,,,,,,,,,,repeat,letter,lettRpt,j,0.6468,Lo,,,,,,1,,,,,,,,high,6,0,6,0,1,,,,,,,,,
295999,2022-12-04_22h16.43.917,vts_reward_expectancy_bt,2022.2.4,MacIntel,60.0024001,Chrome,1440,900,,,,,1,858,,,,,,,,,,,,,,,,,174,Y,hexagon,1,0,,,,,,,,,,,,,,,,repeat,letter,lettRpt,k,0.574,Hi,,,,,,1,,,,,,,,high,7,0,7,0,1,,,,,,,,,
295999,2022-12-04_22h16.43.917,vts_reward_expectancy_bt,2022.2.4,MacIntel,60.0024001,Chrome,1440,900,,,,,10,868,,,,,,,,,,,,,,,,,160,D,hexagon,1,0,,,,,,,,,,,,,,,,repeat,letter,lettRpt,j,0.5677,Hi,,,,,,1,,,,,,,,high,8,0,8,0,1,,,,,,,,,
295999,2022-12-04_22h16.43.917,vts_reward_expectancy_bt,2022.2.4,MacIntel,60.0024001,Chrome,1440,900,,,,,10,878,,,,,,,,,,,,,,,,,132,B,triangle,1,0,,,,,,,,,,,,,,,,repeat,letter,lettRpt,j,0.5883,Lo,,,,,,1,,,,,,,,high,9,0,9,0,1,,,,,,,,,
295999,2022-12-04_22h16.43.917,vts_reward_expectancy_bt,2022.2.4,MacIntel,60.0024001,Chrome,1440,900,,,,,1,879,,,,,,,,,,,,,,,,,167,S,circle,1,0,,,,,,,,,,,,,,,,repeat,letter,lettRpt,k,0.7021,Lo,,,,,,1,,,,,,,,high,10,0,10,0,1,,,,,,,,,
295999,2022-12-04_22h16.43.917,vts_reward_expectancy_bt,2022.2.4,MacIntel,60.0024001,Chrome,1440,900,,,,,0,879,,,,,,,,,,,,,,,,,125,W,star,1,0,,,,,,,,,,,,,,,,repeat,letter,lettRpt,k,0.6361,Hi,,,,,,1,,,,,,,,high,11,0,11,0,1,,,,,,,,,
295999,2022-12-04_22h16.43.917,vts_reward_expectancy_bt,2022.2.4,MacIntel,60.0024001,Chrome,1440,900,,,,,1,880,,,,,,,,,,,,,,,,,139,U,triangle,1,0,,,,,,,,,,,,,,,,repeat,letter,lettRpt,k,0.4666,Lo,,,,,,1,,,,,,,,high,12,0,12,0,1,,,,,,,,,
295999,2022-12-04_22h16.43.917,vts_reward_expectancy_bt,2022.2.4,MacIntel,60.0024001,Chrome,1440,900,,,,,0,880,,,,,,,,,,,,,,,,,181,H,star,1,0,,,,,,,,,,,,,,,,repeat,letter,lettRpt,j,0.7175,Hi,,,,,,1,,,,,,,,high,13,0,13,0,1,,,,,,,,,
295999,2022-12-04_22h16.43.917,vts_reward_expectancy_bt,2022.2.4,MacIntel,60.0024001,Chrome,1440,900,,,,,1,881,,,,,,,,,,,,,,,,,146,F,circle,1,0,,,,,,,,,,,,,,,,repeat,letter,lettRpt,j,0.6199,Lo,,,,,,1,,,,,,,,high,14,0,14,0,1,,,,,,,,,
295999,2022-12-04_22h16.43.917,vts_reward_expectancy_bt,2022.2.4,MacIntel,60.0024001,Chrome,1440,900,,,,,0,881,,,,,,,,,,,,,,,,,174,Y,hexagon,1,0,,,,,,,,,,,,,,,,repeat,letter,lettRpt,k,0.5817,Hi,,,,,,1,,,,,,,,high,15,0,15,0,1,,,,,,,,,
295999,2022-12-04_22h16.43.917,vts_reward_expectancy_bt,2022.2.4,MacIntel,60.0024001,Chrome,1440,900,,,,,10,891,,,,,,,,,,,,,,,,,132,S,triangle,1,0,,,,,,,,,,,,,,,,repeat,letter,lettRpt,k,0.7835,Lo,,,,,,1,,,,,,,,high,16,0,16,0,1,,,,,,,,,
295999,2022-12-04_22h16.43.917,vts_reward_expectancy_bt,2022.2.4,MacIntel,60.0024001,Chrome,1440,900,,,,,10,901,,,,,,,,,,,,,,,,,146,H,hexagon,1,0,,,,,,,,,,,,,,,,repeat,letter,lettRpt,j,0.5643,Hi,,,,,,1,,,,,,,,high,17,0,17,0,1,,,,,,,,,
295999,2022-12-04_22h16.43.917,vts_reward_expectancy_bt,2022.2.4,MacIntel,60.0024001,Chrome,1440,900,,,,,1,902,,,,,,,,,,,,,,,,,174,Y,circle,1,0,,,,,,,,,,,,,,,,repeat,letter,lettRpt,k,0.5095,Lo,,,,,,1,,,,,,,,high,18,0,18,0,1,,,,,,,,,
295999,2022-12-04_22h16.43.917,vts_reward_expectancy_bt,2022.2.4,MacIntel,60.0024001,Chrome,1440,900,,,,,10,912,,,,,,,,,,,,,,,,,139,W,star,1,0,,,,,,,,,,,,,,,,repeat,letter,lettRpt,k,0.4829,Hi,,,,,,1,,,,,,,,high,19,0,19,0,1,,,,,,,,,
295999,2022-12-04_22h16.43.917,vts_reward_expectancy_bt,2022.2.4,MacIntel,60.0024001,Chrome,1440,900,,,,,1,913,,,,,,,,,,,,,,,,,125,U,circle,1,0,,,,,,,,,,,,,,,,repeat,letter,lettRpt,k,0.5217,Lo,,,,,,1,,,,,,,,high,20,0,20,0,1,,,,,,,,,
295999,2022-12-04_22h16.43.917,vts_reward_expectancy_bt,2022.2.4,MacIntel,60.0024001,Chrome,1440,900,,,,,0,913,,,,,,,,,,,,,,,,,167,B,star,0,0,,,,,,,,,,,,,,,,repeat,letter,NA,k,0.36,Lo,,,,,,1,,,,,,,,high,21,0,21,0,1,,,,,,,,,
295999,2022-12-04_22h16.43.917,vts_reward_expectancy_bt,2022.2.4,MacIntel,60.0024001,Chrome,1440,900,,,,,1,914,,,,,,,,,,,,,,,,,181,F,triangle,1,1,,,,,,,,,,,,,,,,repeat,letter,lettRpt,j,0.795,Lo,,,,,,1,,,,,,,,high,22,0,22,0,1,,,,,,,,,
295999,2022-12-04_22h16.43.917,vts_reward_expectancy_bt,2022.2.4,MacIntel,60.0024001,Chrome,1440,900,,,,,1,915,,,,,,,,,,,,,,,,,160,D,hexagon,1,0,,,,,,,,,,,,,,,,repeat,letter,lettRpt,j,0.5207,Hi,,,,,,1,,,,,,,,high,23,0,23,0,1,,,,,,,,,
295999,2022-12-04_22h16.43.917,vts_reward_expectancy_bt,2022.2.4,MacIntel,60.0024001,Chrome,1440,900,,,,,0,915,,,,,,,,,,,,,,,,,160,U,circle,0,0,,,,,,,,,,,,,,,,repeat,letter,NA,j,0.6742,Hi,,,,,,1,,,,,,,,high,24,0,24,0,1,,,,,,,,,
295999,2022-12-04_22h16.43.917,vts_reward_expectancy_bt,2022.2.4,MacIntel,60.0024001,Chrome,1440,900,,,,,1,916,,,,,,,,,,,,,,,,,125,F,triangle,1,1,,,,,,,,,,,,,,,,repeat,letter,lettRpt,j,0.5367,Lo,,,,,,1,,,,,,,,high,25,0,25,0,1,,,,,,,,,
295999,2022-12-04_22h16.43.917,vts_reward_expectancy_bt,2022.2.4,MacIntel,60.0024001,Chrome,1440,900,,,,,10,926,,,,,,,,,,,,,,,,,167,W,hexagon,1,0,,,,,,,,,,,,,,,,repeat,letter,lettRpt,k,0.4297,Hi,,,,,,1,,,,,,,,high,26,0,26,0,1,,,,,,,,,
295999,2022-12-04_22h16.43.917,vts_reward_expectancy_bt,2022.2.4,MacIntel,60.0024001,Chrome,1440,900,,,,,10,936,,,,,,,,,,,,,,,,,174,S,star,1,0,,,,,,,,,,,,,,,,repeat,letter,lettRpt,k,0.5264,Hi,,,,,,1,,,,,,,,high,27,0,27,0,1,,,,,,,,,
295999,2022-12-04_22h16.43.917,vts_reward_expectancy_bt,2022.2.4,MacIntel,60.0024001,Chrome,1440,900,,,,,10,946,,,,,,,,,,,,,,,,,146,Y,star,1,0,,,,,,,,,,,,,,,,repeat,letter,lettRpt,k,0.5734,Hi,,,,,,1,,,,,,,,high,28,0,28,0,1,,,,,,,,,
295999,2022-12-04_22h16.43.917,vts_reward_expectancy_bt,2022.2.4,MacIntel,60.0024001,Chrome,1440,900,,,,,0,946,,,,,,,,,,,,,,,,,139,D,hexagon,0,0,,,,,,,,,,,,,,,,repeat,letter,NA,k,0.6658,Hi,,,,,,1,,,,,,,,high,29,0,29,0,1,,,,,,,,,
295999,2022-12-04_22h16.43.917,vts_reward_expectancy_bt,2022.2.4,MacIntel,60.0024001,Chrome,1440,900,,,,,1,947,,,,,,,,,,,,,,,,,132,H,triangle,1,1,,,,,,,,,,,,,,,,repeat,letter,lettRpt,j,0.7318,Lo,,,,,,1,,,,,,,,high,30,0,30,0,1,,,,,,,,,
295999,2022-12-04_22h16.43.917,vts_reward_expectancy_bt,2022.2.4,MacIntel,60.0024001,Chrome,1440,900,,,,,1,948,,,,,,,,,,,,,,,,,181,B,circle,1,0,,,,,,,,,,,,,,,,repeat,letter,lettRpt,j,0.5621,Lo,,,,,,1,,,,,,,,high,31,0,31,0,1,,,,,,,,,
295999,2022-12-04_22h16.43.917,vts_reward_expectancy_bt,2022.2.4,MacIntel,60.0024001,Chrome,1440,900,,,,,1,949,,,,,,,,,,,,,,,,,139,H,circle,1,0,,,,,,,,,,,,,,,,repeat,letter,lettRpt,j,0.7536,Lo,,,,,,2,,,,,,space,2.0079,high,0,0,0,0,1,,,,,,,,,
295999,2022-12-04_22h16.43.917,vts_reward_expectancy_bt,2022.2.4,MacIntel,60.0024001,Chrome,1440,900,,,,,0,949,,,,,,,,,,,,,,,,,132,F,star,1,0,,,,,,,,,,,,,,,,repeat,letter,lettRpt,j,0.5478,Hi,,,,,,2,,,,,,,,high,1,0,1,0,1,,,,,,,,,
295999,2022-12-04_22h16.43.917,vts_reward_expectancy_bt,2022.2.4,MacIntel,60.0024001,Chrome,1440,900,,,,,0,949,,,,,,,,,,,,,,,,,167,D,hexagon,1,0,,,,,,,,,,,,,,,,repeat,letter,lettRpt,j,0.5568,Hi,,,,,,2,,,,,,,,high,2,0,2,0,1,,,,,,,,,
295999,2022-12-04_22h16.43.917,vts_reward_expectancy_bt,2022.2.4,MacIntel,60.0024001,Chrome,1440,900,,,,,0,949,,,,,,,,,,,,,,,,,125,S,triangle,0,0,,,,,,,,,,,,,,,,repeat,letter,NA,j,0.645,Hi,,,,,,2,,,,,,,,high,3,0,3,0,1,,,,,,,,,
295999,2022-12-04_22h16.43.917,vts_reward_expectancy_bt,2022.2.4,MacIntel,60.0024001,Chrome,1440,900,,,,,1,950,,,,,,,,,,,,,,,,,174,W,circle,1,1,,,,,,,,,,,,,,,,repeat,letter,lettRpt,k,0.9154,Lo,,,,,,2,,,,,,,,high,4,0,4,0,1,,,,,,,,,
295999,2022-12-04_22h16.43.917,vts_reward_expectancy_bt,2022.2.4,MacIntel,60.0024001,Chrome,1440,900,,,,,0,950,,,,,,,,,,,,,,,,,160,B,star,0,0,,,,,,,,,,,,,,,,repeat,letter,NA,k,0.1954,Lo,,,,,,2,,,,,,,,high,5,0,5,0,1,,,,,,,,,
295999,2022-12-04_22h16.43.917,vts_reward_expectancy_bt,2022.2.4,MacIntel,60.0024001,Chrome,1440,900,,,,,10,960,,,,,,,,,,,,,,,,,181,U,hexagon,1,1,,,,,,,,,,,,,,,,repeat,letter,lettRpt,k,0.0724,Hi,,,,,,2,,,,,,,,high,6,0,6,0,1,,,,,,,,,
295999,2022-12-04_22h16.43.917,vts_reward_expectancy_bt,2022.2.4,MacIntel,60.0024001,Chrome,1440,900,,,,,1,961,,,,,,,,,,,,,,,,,146,Y,triangle,1,0,,,,,,,,,,,,,,,,repeat,letter,lettRpt,k,0.4355,Lo,,,,,,2,,,,,,,,high,7,0,7,0,1,,,,,,,,,
295999,2022-12-04_22h16.43.917,vts_reward_expectancy_bt,2022.2.4,MacIntel,60.0024001,Chrome,1440,900,,,,,0,961,,,,,,,,,,,,,,,,,139,H,circle,0,0,,,,,,,,,,,,,,,,repeat,letter,NA,k,0.0286,Lo,,,,,,2,,,,,,,,high,8,0,8,0,1,,,,,,,,,
295999,2022-12-04_22h16.43.917,vts_reward_expectancy_bt,2022.2.4,MacIntel,60.0024001,Chrome,1440,900,,,,,1,962,,,,,,,,,,,,,,,,,132,F,triangle,1,1,,,,,,,,,,,,,,,,repeat,letter,lettRpt,j,0.0551,Lo,,,,,,2,,,,,,,,high,9,0,9,0,1,,,,,,,,,
295999,2022-12-04_22h16.43.917,vts_reward_expectancy_bt,2022.2.4,MacIntel,60.0024001,Chrome,1440,900,,,,,0,962,,,,,,,,,,,,,,,,,167,D,star,0,0,,,,,,,,,,,,,,,,repeat,letter,NA,k,0.0869,Lo,,,,,,2,,,,,,,,high,10,0,10,0,1,,,,,,,,,
295999,2022-12-04_22h16.43.917,vts_reward_expectancy_bt,2022.2.4,MacIntel,60.0024001,Chrome,1440,900,,,,,0,962,,,,,,,,,,,,,,,,,125,S,hexagon,0,1,,,,,,,,,,,,,,,,repeat,letter,NA,j,0.0161,Lo,,,,,,2,,,,,,,,high,11,0,11,0,1,,,,,,,,,
295999,2022-12-04_22h16.43.917,vts_reward_expectancy_bt,2022.2.4,MacIntel,60.0024001,Chrome,1440,900,,,,,0,962,,,,,,,,,,,,,,,,,174,W,hexagon,0,1,,,,,,,,,,,,,,,,repeat,letter,NA,j,0.0005,Lo,,,,,,2,,,,,,,,high,12,0,12,0,1,,,,,,,,,
295999,2022-12-04_22h16.43.917,vts_reward_expectancy_bt,2022.2.4,MacIntel,60.0024001,Chrome,1440,900,,,,,1,963,,,,,,,,,,,,,,,,,160,B,circle,1,1,,,,,,,,,,,,,,,,repeat,letter,lettRpt,j,0.041,Lo,,,,,,2,,,,,,,,high,13,0,13,0,1,,,,,,,,,
295999,2022-12-04_22h16.43.917,vts_reward_expectancy_bt,2022.2.4,MacIntel,60.0024001,Chrome,1440,900,,,,,1,964,,,,,,,,,,,,,,,,,181,U,triangle,1,0,,,,,,,,,,,,,,,,repeat,letter,lettRpt,k,0.1493,Lo,,,,,,2,,,,,,,,high,14,0,14,0,1,,,,,,,,,
295999,2022-12-04_22h16.43.917,vts_reward_expectancy_bt,2022.2.4,MacIntel,60.0024001,Chrome,1440,900,,,,,0,964,,,,,,,,,,,,,,,,,146,Y,star,0,0,,,,,,,,,,,,,,,,repeat,letter,NA,j,0.1912,Lo,,,,,,2,,,,,,,,high,15,0,15,0,1,,,,,,,,,
295999,2022-12-04_22h16.43.917,vts_reward_expectancy_bt,2022.2.4,MacIntel,60.0024001,Chrome,1440,900,,,,,0,964,,,,,,,,,,,,,,,,,139,F,circle,0,1,,,,,,,,,,,,,,,,repeat,letter,NA,k,2.1046,Lo,,,,,,2,,,,,,,,high,16,0,16,0,1,,,,,,,,,
295999,2022-12-04_22h16.43.917,vts_reward_expectancy_bt,2022.2.4,MacIntel,60.0024001,Chrome,1440,900,,,,,10,974,,,,,,,,,,,,,,,,,132,S,star,1,1,,,,,,,,,,,,,,,,repeat,letter,lettRpt,k,0.1137,Hi,,,,,,2,,,,,,,,high,17,0,17,0,1,,,,,,,,,
295999,2022-12-04_22h16.43.917,vts_reward_expectancy_bt,2022.2.4,MacIntel,60.0024001,Chrome,1440,900,,,,,10,984,,,,,,,,,,,,,,,,,160,Y,hexagon,1,0,,,,,,,,,,,,,,,,repeat,letter,lettRpt,k,0.1559,Hi,,,,,,2,,,,,,,,high,18,0,18,0,1,,,,,,,,,
295999,2022-12-04_22h16.43.917,vts_reward_expectancy_bt,2022.2.4,MacIntel,60.0024001,Chrome,1440,900,,,,,0,984,,,,,,,,,,,,,,,,,125,H,triangle,0,0,,,,,,,,,,,,,,,,repeat,letter,NA,k,0.0006,Hi,,,,,,2,,,,,,,,high,19,0,19,0,1,,,,,,,,,
295999,2022-12-04_22h16.43.917,vts_reward_expectancy_bt,2022.2.4,MacIntel,60.0024001,Chrome,1440,900,,,,,1,985,,,,,,,,,,,,,,,,,174,B,star,1,1,,,,,,,,,,,,,,,,repeat,letter,lettRpt,j,0.1292,Hi,,,,,,2,,,,,,,,high,20,0,20,0,1,,,,,,,,,
295999,2022-12-04_22h16.43.917,vts_reward_expectancy_bt,2022.2.4,MacIntel,60.0024001,Chrome,1440,900,,,,,10,995,,,,,,,,,,,,,,,,,181,D,hexagon,1,0,,,,,,,,,,,,,,,,repeat,letter,lettRpt,j,0.1145,Hi,,,,,,2,,,,,,,,high,21,0,21,0,1,,,,,,,,,
295999,2022-12-04_22h16.43.917,vts_reward_expectancy_bt,2022.2.4,MacIntel,60.0024001,Chrome,1440,900,,,,,1,996,,,,,,,,,,,,,,,,,146,U,triangle,1,0,,,,,,,,,,,,,,,,repeat,letter,lettRpt,k,0.1971,Lo,,,,,,2,,,,,,,,high,22,0,22,0,1,,,,,,,,,
295999,2022-12-04_22h16.43.917,vts_reward_expectancy_bt,2022.2.4,MacIntel,60.0024001,Chrome,1440,900,,,,,1,997,,,,,,,,,,,,,,,,,167,W,circle,1,0,,,,,,,,,,,,,,,,repeat,letter,lettRpt,k,0.0551,Lo,,,,,,2,,,,,,,,high,23,0,23,0,1,,,,,,,,,
295999,2022-12-04_22h16.43.917,vts_reward_expectancy_bt,2022.2.4,MacIntel,60.0024001,Chrome,1440,900,,,,,1,998,,,,,,,,,,,,,,,,,132,B,circle,1,0,,,,,,,,,,,,,,,,repeat,letter,lettRpt,j,0.0006,Lo,,,,,,2,,,,,,,,high,24,0,24,0,1,,,,,,,,,
295999,2022-12-04_22h16.43.917,vts_reward_expectancy_bt,2022.2.4,MacIntel,60.0024001,Chrome,1440,900,,,,,0,998,,,,,,,,,,,,,,,,,181,Y,hexagon,0,0,,,,,,,,,,,,,,,,repeat,letter,NA,j,0.0561,Lo,,,,,,2,,,,,,,,high,25,0,25,0,1,,,,,,,,,
295999,2022-12-04_22h16.43.917,vts_reward_expectancy_bt,2022.2.4,MacIntel,60.0024001,Chrome,1440,900,,,,,0,998,,,,,,,,,,,,,,,,,139,F,triangle,0,1,,,,,,,,,,,,,,,,repeat,letter,NA,k,0.0007,Lo,,,,,,2,,,,,,,,high,26,0,26,0,1,,,,,,,,,
295999,2022-12-04_22h16.43.917,vts_reward_expectancy_bt,2022.2.4,MacIntel,60.0024001,Chrome,1440,900,,,,,0,998,,,,,,,,,,,,,,,,,160,D,star,0,1,,,,,,,,,,,,,,,,switch,number,NA,d,0.0544,Lo,,,,,,2,,,,,,,,high,27,0,27,0,1,,,,,,,,,
295999,2022-12-04_22h16.43.917,vts_reward_expectancy_bt,2022.2.4,MacIntel,60.0024001,Chrome,1440,900,,,,,0,998,,,,,,,,,,,,,,,,,167,H,star,0,1,,,,,,,,,,,,,,,,repeat,number,NA,d,0.2297,Lo,,,,,,2,,,,,,,,high,28,0,28,0,1,,,,,,,,,
295999,2022-12-04_22h16.43.917,vts_reward_expectancy_bt,2022.2.4,MacIntel,60.0024001,Chrome,1440,900,,,,,1,999,,,,,,,,,,,,,,,,,125,W,circle,1,1,,,,,,,,,,,,,,,,repeat,number,numRpt,d,0.0945,Lo,,,,,,2,,,,,,,,high,29,0,29,0,1,,,,,,,,,
295999,2022-12-04_22h16.43.917,vts_reward_expectancy_bt,2022.2.4,MacIntel,60.0024001,Chrome,1440,900,,,,,0,999,,,,,,,,,,,,,,,,,174,S,hexagon,0,0,,,,,,,,,,,,,,,,repeat,number,NA,d,0.1863,Lo,,,,,,2,,,,,,,,high,30,0,30,0,1,,,,,,,,,
295999,2022-12-04_22h16.43.917,vts_reward_expectancy_bt,2022.2.4,MacIntel,60.0024001,Chrome,1440,900,,,,,0,999,,,,,,,,,,,,,,,,,146,U,triangle,0,1,,,,,,,,,,,,,,,,repeat,number,NA,f,0.1056,Lo,,,,,,2,,,,,,,,high,31,0,31,0,1,,,,,,,,,
295999,2022-12-04_22h16.43.917,vts_reward_expectancy_bt,2022.2.4,MacIntel,60.0024001,Chrome,1440,900,,,,,0,999,,,,,,,,,,,,,,,,,167,S,triangle,0,1,,,,,,,,,,,,,,,,repeat,number,NA,d,0.3207,Lo,,,,,,3,,,,,,space,5.3245,high,0,0,0,0,1,,,,,,,,,
295999,2022-12-04_22h16.43.917,vts_reward_expectancy_bt,2022.2.4,MacIntel,60.0024001,Chrome,1440,900,,,,,0,999,,,,,,,,,,,,,,,,,174,B,circle,0,1,,,,,,,,,,,,,,,,repeat,number,NA,d,0.1079,Lo,,,,,,3,,,,,,,,high,1,0,1,0,1,,,,,,,,,
295999,2022-12-04_22h16.43.917,vts_reward_expectancy_bt,2022.2.4,MacIntel,60.0024001,Chrome,1440,900,,,,,0,999,,,,,,,,,,,,,,,,,146,U,star,1,1,,,,,,,,,,,,,,,,repeat,number,numRpt,d,0.3681,Hi,,,,,,3,,,,,,,,high,2,0,2,0,1,,,,,,,,,
295999,2022-12-04_22h16.43.917,vts_reward_expectancy_bt,2022.2.4,MacIntel,60.0024001,Chrome,1440,900,,,,,0,999,,,,,,,,,,,,,,,,,132,H,hexagon,1,0,,,,,,,,,,,,,,,,repeat,number,numRpt,d,0.2121,Hi,,,,,,3,,,,,,,,high,3,0,3,0,1,,,,,,,,,
295999,2022-12-04_22h16.43.917,vts_reward_expectancy_bt,2022.2.4,MacIntel,60.0024001,Chrome,1440,900,,,,,1,1000,,,,,,,,,,,,,,,,,139,D,triangle,1,0,,,,,,,,,,,,,,,,repeat,number,numRpt,d,0.3919,Lo,,,,,,3,,,,,,,,high,4,0,4,0,1,,,,,,,,,
295999,2022-12-04_22h16.43.917,vts_reward_expectancy_bt,2022.2.4,MacIntel,60.0024001,Chrome,1440,900,,,,,1,1001,,,,,,,,,,,,,,,,,125,F,circle,1,0,,,,,,,,,,,,,,,,repeat,number,numRpt,d,0.1377,Lo,,,,,,3,,,,,,,,high,5,0,5,0,1,,,,,,,,,
295999,2022-12-04_22h16.43.917,vts_reward_expectancy_bt,2022.2.4,MacIntel,60.0024001,Chrome,1440,900,,,,,0,1001,,,,,,,,,,,,,,,,,181,W,star,0,0,,,,,,,,,,,,,,,,repeat,number,NA,d,0.1317,Lo,,,,,,3,,,,,,,,high,6,0,6,0,1,,,,,,,,,
295999,2022-12-04_22h16.43.917,vts_reward_expectancy_bt,2022.2.4,MacIntel,60.0024001,Chrome,1440,900,,,,,0,1001,,,,,,,,,,,,,,,,,160,Y,hexagon,0,1,,,,,,,,,,,,,,,,repeat,number,NA,d,0.198,Lo,,,,,,3,,,,,,,,high,7,0,7,0,1,,,,,,,,,
295999,2022-12-04_22h16.43.917,vts_reward_expectancy_bt,2022.2.4,MacIntel,60.0024001,Chrome,1440,900,,,,,0,1001,,,,,,,,,,,,,,,,,167,S,triangle,0,1,,,,,,,,,,,,,,,,repeat,number,NA,d,0.7656,Lo,,,,,,3,,,,,,,,high,8,0,8,0,1,,,,,,,,,
295999,2022-12-04_22h16.43.917,vts_reward_expectancy_bt,2022.2.4,MacIntel,60.0024001,Chrome,1440,900,,,,,0,1001,,,,,,,,,,,,,,,,,174,B,circle,0,1,,,,,,,,,,,,,,,,repeat,number,NA,d,2.2225,Lo,,,,,,3,,,,,,,,high,9,0,9,0,1,,,,,,,,,
295999,2022-12-04_22h16.43.917,vts_reward_expectancy_bt,2022.2.4,MacIntel,60.0024001,Chrome,1440,900,,,,,0,1001,,,,,,,,,,,,,,,,,146,U,hexagon,1,1,,,,,,,,,,,,,,,,repeat,number,numRpt,d,0.569,Hi,,,,,,3,,,,,,,,high,10,0,10,0,1,,,,,,,,,
295999,2022-12-04_22h16.43.917,vts_reward_expectancy_bt,2022.2.4,MacIntel,60.0024001,Chrome,1440,900,,,,,0,1001,,,,,,,,,,,,,,,,,132,H,star,1,0,,,,,,,,,,,,,,,,repeat,number,numRpt,d,0.7954,Hi,,,,,,3,,,,,,,,high,11,0,11,0,1,,,,,,,,,
295999,2022-12-04_22h16.43.917,vts_reward_expectancy_bt,2022.2.4,MacIntel,60.0024001,Chrome,1440,900,,,,,1,1002,,,,,,,,,,,,,,,,,139,D,circle,1,0,,,,,,,,,,,,,,,,repeat,number,numRpt,d,0.3239,Lo,,,,,,3,,,,,,,,high,12,0,12,0,1,,,,,,,,,
295999,2022-12-04_22h16.43.917,vts_reward_expectancy_bt,2022.2.4,MacIntel,60.0024001,Chrome,1440,900,,,,,0,1002,,,,,,,,,,,,,,,,,125,F,hexagon,1,0,,,,,,,,,,,,,,,,repeat,number,numRpt,d,0.3312,Hi,,,,,,3,,,,,,,,high,13,0,13,0,1,,,,,,,,,
295999,2022-12-04_22h16.43.917,vts_reward_expectancy_bt,2022.2.4,MacIntel,60.0024001,Chrome,1440,900,,,,,0,1002,,,,,,,,,,,,,,,,,181,W,star,0,0,,,,,,,,,,,,,,,,repeat,number,NA,d,0.3827,Hi,,,,,,3,,,,,,,,high,14,0,14,0,1,,,,,,,,,
295999,2022-12-04_22h16.43.917,vts_reward_expectancy_bt,2022.2.4,MacIntel,60.0024001,Chrome,1440,900,,,,,0,1002,,,,,,,,,,,,,,,,,160,Y,triangle,0,1,,,,,,,,,,,,,,,,repeat,number,NA,d,0.0006,Hi,,,,,,3,,,,,,,,high,15,0,15,0,1,,,,,,,,,
295999,2022-12-04_22h16.43.917,vts_reward_expectancy_bt,2022.2.4,MacIntel,60.0024001,Chrome,1440,900,,,,,0,1002,,,,,,,,,,,,,,,,,146,B,hexagon,1,1,,,,,,,,,,,,,,,,repeat,number,numRpt,d,0.5016,Hi,,,,,,3,,,,,,,,high,16,0,16,0,1,,,,,,,,,
295999,2022-12-04_22h16.43.917,vts_reward_expectancy_bt,2022.2.4,MacIntel,60.0024001,Chrome,1440,900,,,,,0,1002,,,,,,,,,,,,,,,,,167,S,circle,0,0,,,,,,,,,,,,,,,,repeat,number,NA,d,0.0217,Hi,,,,,,3,,,,,,,,high,17,0,17,0,1,,,,,,,,,
295999,2022-12-04_22h16.43.917,vts_reward_expectancy_bt,2022.2.4,MacIntel,60.0024001,Chrome,1440,900,,,,,0,1002,,,,,,,,,,,,,,,,,174,D,star,0,1,,,,,,,,,,,,,,,,repeat,number,NA,d,0.3481,Hi,,,,,,3,,,,,,,,high,18,0,18,0,1,,,,,,,,,
295999,2022-12-04_22h16.43.917,vts_reward_expectancy_bt,2022.2.4,MacIntel,60.0024001,Chrome,1440,900,,,,,1,1003,,,,,,,,,,,,,,,,,125,W,triangle,1,1,,,,,,,,,,,,,,,,repeat,number,numRpt,d,0.091,Lo,,,,,,3,,,,,,,,high,19,0,19,0,1,,,,,,,,,
295999,2022-12-04_22h16.43.917,vts_reward_expectancy_bt,2022.2.4,MacIntel,60.0024001,Chrome,1440,900,,,,,0,1003,,,,,,,,,,,,,,,,,132,Y,star,1,0,,,,,,,,,,,,,,,,repeat,number,numRpt,d,0.544,Hi,,,,,,3,,,,,,,,high,20,0,20,0,1,,,,,,,,,
295999,2022-12-04_22h16.43.917,vts_reward_expectancy_bt,2022.2.4,MacIntel,60.0024001,Chrome,1440,900,,,,,0,1003,,,,,,,,,,,,,,,,,181,U,circle,0,0,,,,,,,,,,,,,,,,repeat,number,NA,d,0.3812,Hi,,,,,,3,,,,,,,,high,21,0,21,0,1,,,,,,,,,
295999,2022-12-04_22h16.43.917,vts_reward_expectancy_bt,2022.2.4,MacIntel,60.0024001,Chrome,1440,900,,,,,0,1003,,,,,,,,,,,,,,,,,139,F,hexagon,1,1,,,,,,,,,,,,,,,,repeat,number,numRpt,d,0.4567,Hi,,,,,,3,,,,,,,,high,22,0,22,0,1,,,,,,,,,
295999,2022-12-04_22h16.43.917,vts_reward_expectancy_bt,2022.2.4,MacIntel,60.0024001,Chrome,1440,900,,,,,0,1003,,,,,,,,,,,,,,,,,160,H,triangle,0,0,,,,,,,,,,,,,,,,repeat,number,NA,d,0.6148,Hi,,,,,,3,,,,,,,,high,23,0,23,0,1,,,,,,,,,
295999,2022-12-04_22h16.43.917,vts_reward_expectancy_bt,2022.2.4,MacIntel,60.0024001,Chrome,1440,900,,,,,0,1003,,,,,,,,,,,,,,,,,125,Y,star,1,1,,,,,,,,,,,,,,,,repeat,number,numRpt,d,0.4483,Hi,,,,,,3,,,,,,,,high,24,0,24,0,1,,,,,,,,,
295999,2022-12-04_22h16.43.917,vts_reward_expectancy_bt,2022.2.4,MacIntel,60.0024001,Chrome,1440,900,,,,,0,1003,,,,,,,,,,,,,,,,,167,S,circle,0,0,,,,,,,,,,,,,,,,repeat,number,NA,d,0.062,Hi,,,,,,3,,,,,,,,high,25,0,25,0,1,,,,,,,,,
295999,2022-12-04_22h16.43.917,vts_reward_expectancy_bt,2022.2.4,MacIntel,60.0024001,Chrome,1440,900,,,,,10,1013,,,,,,,,,,,,,,,,,139,D,hexagon,1,1,,,,,,,,,,,,,,,,repeat,number,numRpt,d,0.0556,Hi,,,,,,3,,,,,,,,high,26,0,26,0,1,,,,,,,,,
295999,2022-12-04_22h16.43.917,vts_reward_expectancy_bt,2022.2.4,MacIntel,60.0024001,Chrome,1440,900,,,,,0,1013,,,,,,,,,,,,,,,,,160,B,triangle,0,0,,,,,,,,,,,,,,,,repeat,number,NA,d,0.372,Hi,,,,,,3,,,,,,,,high,27,0,27,0,1,,,,,,,,,
295999,2022-12-04_22h16.43.917,vts_reward_expectancy_bt,2022.2.4,MacIntel,60.0024001,Chrome,1440,900,,,,,0,1013,,,,,,,,,,,,,,,,,146,U,hexagon,1,1,,,,,,,,,,,,,,,,repeat,number,numRpt,d,0.3497,Hi,,,,,,3,,,,,,,,high,28,0,28,0,1,,,,,,,,,
295999,2022-12-04_22h16.43.917,vts_reward_expectancy_bt,2022.2.4,MacIntel,60.0024001,Chrome,1440,900,,,,,0,1013,,,,,,,,,,,,,,,,,181,W,star,0,0,,,,,,,,,,,,,,,,repeat,number,NA,d,0.1972,Hi,,,,,,3,,,,,,,,high,29,0,29,0,1,,,,,,,,,
295999,2022-12-04_22h16.43.917,vts_reward_expectancy_bt,2022.2.4,MacIntel,60.0024001,Chrome,1440,900,,,,,10,1023,,,,,,,,,,,,,,,,,132,H,triangle,1,1,,,,,,,,,,,,,,,,repeat,number,numRpt,d,0.3136,Lo,,,,,,3,,,,,,,,high,30,0,30,0,1,,,,,,,,,
295999,2022-12-04_22h16.43.917,vts_reward_expectancy_bt,2022.2.4,MacIntel,60.0024001,Chrome,1440,900,,,,,0,1023,,,,,,,,,,,,,,,,,174,F,circle,0,0,,,,,,,,,,,,,,,,repeat,number,NA,d,0.5064,Lo,,,,,,3,,,,,,,,high,31,0,31,0,1,,,,,,,,,
295999,2022-12-04_22h16.43.917,vts_reward_expectancy_bt,2022.2.4,MacIntel,60.0024001,Chrome,1440,900,,,,,0,1023,,,,,,,,,,,,,,,,,139,B,star,1,1,,,,,,,,,,,,,,,,repeat,number,numRpt,d,0.5203,Hi,,,,,,4,,,,,,space,1.6752,high,0,0,0,0,1,,,,,,,,,
295999,2022-12-04_22h16.43.917,vts_reward_expectancy_bt,2022.2.4,MacIntel,60.0024001,Chrome,1440,900,,,,,1,1024,,,,,,,,,,,,,,,,,125,D,circle,1,0,,,,,,,,,,,,,,,,repeat,number,numRpt,d,0.5388,Lo,,,,,,4,,,,,,,,high,1,0,1,0,1,,,,,,,,,
295999,2022-12-04_22h16.43.917,vts_reward_expectancy_bt,2022.2.4,MacIntel,60.0024001,Chrome,1440,900,,,,,1,1025,,,,,,,,,,,,,,,,,132,Y,hexagon,1,0,,,,,,,,,,,,,,,,repeat,number,numRpt,d,0.199,Hi,,,,,,4,,,,,,,,high,2,0,2,0,1,,,,,,,,,
295999,2022-12-04_22h16.43.917,vts_reward_expectancy_bt,2022.2.4,MacIntel,60.0024001,Chrome,1440,900,,,,,0,1025,,,,,,,,,,,,,,,,,174,H,triangle,0,0,,,,,,,,,,,,,,,,repeat,number,NA,d,0.4986,Hi,,,,,,4,,,,,,,,high,3,0,3,0,1,,,,,,,,,
295999,2022-12-04_22h16.43.917,vts_reward_expectancy_bt,2022.2.4,MacIntel,60.0024001,Chrome,1440,900,,,,,0,1025,,,,,,,,,,,,,,,,,181,F,star,0,1,,,,,,,,,,,,,,,,repeat,number,NA,d,0.3421,Hi,,,,,,4,,,,,,,,high,4,0,4,0,1,,,,,,,,,
295999,2022-12-04_22h16.43.917,vts_reward_expectancy_bt,2022.2.4,MacIntel,60.0024001,Chrome,1440,900,,,,,0,1025,,,,,,,,,,,,,,,,,160,U,circle,0,1,,,,,,,,,,,,,,,,repeat,number,NA,d,0.0006,Hi,,,,,,4,,,,,,,,high,5,0,5,0,1,,,,,,,,,
295999,2022-12-04_22h16.43.917,vts_reward_expectancy_bt,2022.2.4,MacIntel,60.0024001,Chrome,1440,900,,,,,10,1035,,,,,,,,,,,,,,,,,146,S,hexagon,1,1,,,,,,,,,,,,,,,,repeat,number,numRpt,d,0.0956,Hi,,,,,,4,,,,,,,,high,6,0,6,0,1,,,,,,,,,
295999,2022-12-04_22h16.43.917,vts_reward_expectancy_bt,2022.2.4,MacIntel,60.0024001,Chrome,1440,900,,,,,0,1035,,,,,,,,,,,,,,,,,167,W,triangle,0,0,,,,,,,,,,,,,,,,repeat,number,NA,d,0.0375,Hi,,,,,,4,,,,,,,,high,7,0,7,0,1,,,,,,,,,
295999,2022-12-04_22h16.43.917,vts_reward_expectancy_bt,2022.2.4,MacIntel,60.0024001,Chrome,1440,900,,,,,10,1045,,,,,,,,,,,,,,,,,139,B,circle,1,1,,,,,,,,,,,,,,,,repeat,number,numRpt,d,0.1096,Lo,,,,,,4,,,,,,,,high,8,0,8,0,1,,,,,,,,,
295999,2022-12-04_22h16.43.917,vts_reward_expectancy_bt,2022.2.4,MacIntel,60.0024001,Chrome,1440,900,,,,,1,1046,,,,,,,,,,,,,,,,,125,D,hexagon,1,0,,,,,,,,,,,,,,,,repeat,number,numRpt,d,0.1226,Hi,,,,,,4,,,,,,,,high,9,0,9,0,1,,,,,,,,,
295999,2022-12-04_22h16.43.917,vts_reward_expectancy_bt,2022.2.4,MacIntel,60.0024001,Chrome,1440,900,,,,,1,1047,,,,,,,,,,,,,,,,,132,Y,triangle,1,0,,,,,,,,,,,,,,,,repeat,number,numRpt,d,0.56,Lo,,,,,,4,,,,,,,,high,10,0,10,0,1,,,,,,,,,
295999,2022-12-04_22h16.43.917,vts_reward_expectancy_bt,2022.2.4,MacIntel,60.0024001,Chrome,1440,900,,,,,0,1047,,,,,,,,,,,,,,,,,174,H,star,0,0,,,,,,,,,,,,,,,,repeat,number,NA,d,0.516,Lo,,,,,,4,,,,,,,,high,11,0,11,0,1,,,,,,,,,
295999,2022-12-04_22h16.43.917,vts_reward_expectancy_bt,2022.2.4,MacIntel,60.0024001,Chrome,1440,900,,,,,0,1047,,,,,,,,,,,,,,,,,181,F,circle,0,1,,,,,,,,,,,,,,,,repeat,number,NA,d,0.352,Lo,,,,,,4,,,,,,,,high,12,0,12,0,1,,,,,,,,,
295999,2022-12-04_22h16.43.917,vts_reward_expectancy_bt,2022.2.4,MacIntel,60.0024001,Chrome,1440,900,,,,,0,1047,,,,,,,,,,,,,,,,,160,U,triangle,0,1,,,,,,,,,,,,,,,,repeat,number,NA,d,0.0469,Lo,,,,,,4,,,,,,,,high,13,0,13,0,1,,,,,,,,,
295999,2022-12-04_22h16.43.917,vts_reward_expectancy_bt,2022.2.4,MacIntel,60.0024001,Chrome,1440,900,,,,,10,1057,,,,,,,,,,,,,,,,,146,S,star,1,1,,,,,,,,,,,,,,,,repeat,number,numRpt,d,0.0006,Hi,,,,,,4,,,,,,,,high,14,0,14,0,1,,,,,,,,,
295999,2022-12-04_22h16.43.917,vts_reward_expectancy_bt,2022.2.4,MacIntel,60.0024001,Chrome,1440,900,,,,,0,1057,,,,,,,,,,,,,,,,,167,W,hexagon,0,0,,,,,,,,,,,,,,,,repeat,number,NA,d,1.8046,Hi,,,,,,4,,,,,,,,high,15,0,15,0,1,,,,,,,,,
295999,2022-12-04_22h16.43.917,vts_reward_expectancy_bt,2022.2.4,MacIntel,60.0024001,Chrome,1440,900,,,,,0,1057,,,,,,,,,,,,,,,,,146,B,hexagon,1,1,,,,,,,,,,,,,,,,repeat,number,numRpt,d,0.4633,Hi,,,,,,4,,,,,,,,high,16,0,16,0,1,,,,,,,,,
295999,2022-12-04_22h16.43.917,vts_reward_expectancy_bt,2022.2.4,MacIntel,60.0024001,Chrome,1440,900,,,,,1,1058,,,,,,,,,,,,,,,,,125,Y,triangle,1,0,,,,,,,,,,,,,,,,repeat,number,numRpt,d,0.6165,Lo,,,,,,4,,,,,,,,high,17,0,17,0,1,,,,,,,,,
295999,2022-12-04_22h16.43.917,vts_reward_expectancy_bt,2022.2.4,MacIntel,60.0024001,Chrome,1440,900,,,,,0,1058,,,,,,,,,,,,,,,,,160,U,circle,0,0,,,,,,,,,,,,,,,,repeat,number,NA,d,0.3997,Lo,,,,,,4,,,,,,,,high,18,0,18,0,1,,,,,,,,,
295999,2022-12-04_22h16.43.917,vts_reward_expectancy_bt,2022.2.4,MacIntel,60.0024001,Chrome,1440,900,,,,,0,1058,,,,,,,,,,,,,,,,,139,S,star,1,1,,,,,,,,,,,,,,,,repeat,number,numRpt,d,0.3304,Hi,,,,,,4,,,,,,,,high,19,0,19,0,1,,,,,,,,,
295999,2022-12-04_22h16.43.917,vts_reward_expectancy_bt,2022.2.4,MacIntel,60.0024001,Chrome,1440,900,,,,,1,1059,,,,,,,,,,,,,,,,,132,W,hexagon,1,0,,,,,,,,,,,,,,,,repeat,number,numRpt,d,0.2306,Hi,,,,,,4,,,,,,,,high,20,0,20,0,1,,,,,,,,,
295999,2022-12-04_22h16.43.917,vts_reward_expectancy_bt,2022.2.4,MacIntel,60.0024001,Chrome,1440,900,,,,,0,1059,,,,,,,,,,,,,,,,,174,H,triangle,0,0,,,,,,,,,,,,,,,,repeat,number,NA,d,0.1159,Hi,,,,,,4,,,,,,,,high,21,0,21,0,1,,,,,,,,,
295999,2022-12-04_22h16.43.917,vts_reward_expectancy_bt,2022.2.4,MacIntel,60.0024001,Chrome,1440,900,,,,,1,1060,,,,,,,,,,,,,,,,,167,D,circle,1,1,,,,,,,,,,,,,,,,switch,letter,lettSwt,j,0.1052,Lo,,,,,,4,,,,,,,,high,22,0,22,0,1,,,,,,,,,
295999,2022-12-04_22h16.43.917,vts_reward_expectancy_bt,2022.2.4,MacIntel,60.0024001,Chrome,1440,900,,,,,0,1060,,,,,,,,,,,,,,,,,181,F,star,0,0,,,,,,,,,,,,,,,,repeat,letter,NA,k,0.1651,Lo,,,,,,4,,,,,,,,high,23,0,23,0,1,,,,,,,,,
295999,2022-12-04_22h16.43.917,vts_reward_expectancy_bt,2022.2.4,MacIntel,60.0024001,Chrome,1440,900,,,,,0,1060,,,,,,,,,,,,,,,,,146,S,circle,0,1,,,,,,,,,,,,,,,,repeat,letter,NA,j,0.0537,Lo,,,,,,4,,,,,,,,high,24,0,24,0,1,,,,,,,,,
295999,2022-12-04_22h16.43.917,vts_reward_expectancy_bt,2022.2.4,MacIntel,60.0024001,Chrome,1440,900,,,,,1,1061,,,,,,,,,,,,,,,,,181,W,star,1,1,,,,,,,,,,,,,,,,repeat,letter,lettRpt,k,0.3362,Hi,,,,,,4,,,,,,,,high,25,0,25,0,1,,,,,,,,,
295999,2022-12-04_22h16.43.917,vts_reward_expectancy_bt,2022.2.4,MacIntel,60.0024001,Chrome,1440,900,,,,,1,1062,,,,,,,,,,,,,,,,,125,U,triangle,1,0,,,,,,,,,,,,,,,,repeat,letter,lettRpt,k,0.1219,Lo,,,,,,4,,,,,,,,high,26,0,26,0,1,,,,,,,,,
295999,2022-12-04_22h16.43.917,vts_reward_expectancy_bt,2022.2.4,MacIntel,60.0024001,Chrome,1440,900,,,,,1,1063,,,,,,,,,,,,,,,,,160,D,hexagon,1,0,,,,,,,,,,,,,,,,repeat,letter,lettRpt,j,0.0004,Hi,,,,,,4,,,,,,,,high,27,0,27,0,1,,,,,,,,,
295999,2022-12-04_22h16.43.917,vts_reward_expectancy_bt,2022.2.4,MacIntel,60.0024001,Chrome,1440,900,,,,,1,1064,,,,,,,,,,,,,,,,,174,B,star,1,0,,,,,,,,,,,,,,,,repeat,letter,lettRpt,j,0.1121,Hi,,,,,,4,,,,,,,,high,28,0,28,0,1,,,,,,,,,
295999,2022-12-04_22h16.43.917,vts_reward_expectancy_bt,2022.2.4,MacIntel,60.0024001,Chrome,1440,900,,,,,0,1064,,,,,,,,,,,,,,,,,139,H,circle,0,0,,,,,,,,,,,,,,,,repeat,letter,NA,k,0.0003,Hi,,,,,,4,,,,,,,,high,29,0,29,0,1,,,,,,,,,
295999,2022-12-04_22h16.43.917,vts_reward_expectancy_bt,2022.2.4,MacIntel,60.0024001,Chrome,1440,900,,,,,0,1064,,,,,,,,,,,,,,,,,132,F,triangle,0,1,,,,,,,,,,,,,,,,repeat,letter,NA,k,0.0208,Hi,,,,,,4,,,,,,,,high,30,0,30,0,1,,,,,,,,,
295999,2022-12-04_22h16.43.917,vts_reward_expectancy_bt,2022.2.4,MacIntel,60.0024001,Chrome,1440,900,,,,,10,1074,,,,,,,,,,,,,,,,,167,Y,hexagon,1,1,,,,,,,,,,,,,,,,repeat,letter,lettRpt,k,0.2072,Hi,,,,,,4,,,,,,,,high,31,0,31,0,1,,,,,,,,,
295999,2022-12-04_22h16.43.917,vts_reward_expectancy_bt,2022.2.4,MacIntel,60.0024001,Chrome,1440,900,,,,,0,1074,,,,,,,,,,,,,,,,,146,S,star,1,0,,,,,,,,,,,,,,,,repeat,letter,lettRpt,k,0.1253,Hi,,,,,,5,,,,,,space,0.9828,high,0,0,0,0,1,,,,,,,,,
295999,2022-12-04_22h16.43.917,vts_reward_expectancy_bt,2022.2.4,MacIntel,60.0024001,Chrome,1440,900,,,,,0,1074,,,,,,,,,,,,,,,,,125,F,triangle,0,0,,,,,,,,,,,,,,,,repeat,letter,NA,k,0.1061,Hi,,,,,,5,,,,,,,,high,1,0,1,0,1,,,,,,,,,
295999,2022-12-04_22h16.43.917,vts_reward_expectancy_bt,2022.2.4,MacIntel,60.0024001,Chrome,1440,900,,,,,0,1074,,,,,,,,,,,,,,,,,160,Y,circle,0,1,,,,,,,,,,,,,,,,repeat,letter,NA,j,0.0157,Hi,,,,,,5,,,,,,,,high,2,0,2,0,1,,,,,,,,,
295999,2022-12-04_22h16.43.917,vts_reward_expectancy_bt,2022.2.4,MacIntel,60.0024001,Chrome,1440,900,,,,,0,1074,,,,,,,,,,,,,,,,,181,U,hexagon,0,1,,,,,,,,,,,,,,,,repeat,letter,NA,j,0.2993,Hi,,,,,,5,,,,,,,,high,3,0,3,0,1,,,,,,,,,
295999,2022-12-04_22h16.43.917,vts_reward_expectancy_bt,2022.2.4,MacIntel,60.0024001,Chrome,1440,900,,,,,0,1074,,,,,,,,,,,,,,,,,174,W,star,0,1,,,,,,,,,,,,,,,,repeat,letter,NA,j,0.1155,Hi,,,,,,5,,,,,,,,high,4,0,4,0,1,,,,,,,,,
295999,2022-12-04_22h16.43.917,vts_reward_expectancy_bt,2022.2.4,MacIntel,60.0024001,Chrome,1440,900,,,,,0,1074,,,,,,,,,,,,,,,,,132,B,triangle,0,1,,,,,,,,,,,,,,,,repeat,letter,NA,k,0.194,Hi,,,,,,5,,,,,,,,high,5,0,5,0,1,,,,,,,,,
295999,2022-12-04_22h16.43.917,vts_reward_expectancy_bt,2022.2.4,MacIntel,60.0024001,Chrome,1440,900,,,,,10,1084,,,,,,,,,,,,,,,,,167,D,circle,1,1,,,,,,,,,,,,,,,,repeat,letter,lettRpt,j,0.0943,Lo,,,,,,5,,,,,,,,high,6,0,6,0,1,,,,,,,,,
295999,2022-12-04_22h16.43.917,vts_reward_expectancy_bt,2022.2.4,MacIntel,60.0024001,Chrome,1440,900,,,,,10,1094,,,,,,,,,,,,,,,,,139,H,hexagon,1,0,,,,,,,,,,,,,,,,repeat,letter,lettRpt,j,0.0508,Hi,,,,,,5,,,,,,,,high,7,0,7,0,1,,,,,,,,,
295999,2022-12-04_22h16.43.917,vts_reward_expectancy_bt,2022.2.4,MacIntel,60.0024001,Chrome,1440,900,,,,,0,1094,,,,,,,,,,,,,,,,,146,S,hexagon,0,0,,,,,,,,,,,,,,,,repeat,letter,NA,j,0.0793,Hi,,,,,,5,,,,,,,,high,8,0,8,0,1,,,,,,,,,
295999,2022-12-04_22h16.43.917,vts_reward_expectancy_bt,2022.2.4,MacIntel,60.0024001,Chrome,1440,900,,,,,0,1094,,,,,,,,,,,,,,,,,125,F,triangle,0,1,,,,,,,,,,,,,,,,repeat,letter,NA,k,0.0988,Hi,,,,,,5,,,,,,,,high,9,0,9,0,1,,,,,,,,,
295999,2022-12-04_22h16.43.917,vts_reward_expectancy_bt,2022.2.4,MacIntel,60.0024001,Chrome,1440,900,,,,,0,1094,,,,,,,,,,,,,,,,,160,Y,circle,0,1,,,,,,,,,,,,,,,,repeat,letter,NA,j,0.0325,Hi,,,,,,5,,,,,,,,high,10,0,10,0,1,,,,,,,,,
295999,2022-12-04_22h16.43.917,vts_reward_expectancy_bt,2022.2.4,MacIntel,60.0024001,Chrome,1440,900,,,,,0,1094,,,,,,,,,,,,,,,,,181,U,star,0,1,,,,,,,,,,,,,,,,repeat,letter,NA,j,0.0141,Hi,,,,,,5,,,,,,,,high,11,0,11,0,1,,,,,,,,,
295999,2022-12-04_22h16.43.917,vts_reward_expectancy_bt,2022.2.4,MacIntel,60.0024001,Chrome,1440,900,,,,,0,1094,,,,,,,,,,,,,,,,,174,W,star,0,1,,,,,,,,,,,,,,,,repeat,letter,NA,j,0.0215,Hi,,,,,,5,,,,,,,,high,12,0,12,0,1,,,,,,,,,
295999,2022-12-04_22h16.43.917,vts_reward_expectancy_bt,2022.2.4,MacIntel,60.0024001,Chrome,1440,900,,,,,1,1095,,,,,,,,,,,,,,,,,132,B,circle,1,1,,,,,,,,,,,,,,,,repeat,letter,lettRpt,j,0.0667,Lo,,,,,,5,,,,,,,,high,13,0,13,0,1,,,,,,,,,
295999,2022-12-04_22h16.43.917,vts_reward_expectancy_bt,2022.2.4,MacIntel,60.0024001,Chrome,1440,900,,,,,0,1095,,,,,,,,,,,,,,,,,167,D,triangle,0,0,,,,,,,,,,,,,,,,repeat,letter,NA,k,0.1091,Lo,,,,,,5,,,,,,,,high,14,0,14,0,1,,,,,,,,,
295999,2022-12-04_22h16.43.917,vts_reward_expectancy_bt,2022.2.4,MacIntel,60.0024001,Chrome,1440,900,,,,,0,1095,,,,,,,,,,,,,,,,,139,H,hexagon,0,1,,,,,,,,,,,,,,,,switch,number,NA,f,0.2152,Lo,,,,,,5,,,,,,,,high,15,0,15,0,1,,,,,,,,,
295999,2022-12-04_22h16.43.917,vts_reward_expectancy_bt,2022.2.4,MacIntel,60.0024001,Chrome,1440,900,,,,,0,1095,,,,,,,,,,,,,,,,,125,H,circle,0,1,,,,,,,,,,,,,,,,repeat,number,NA,f,0.0424,Lo,,,,,,5,,,,,,,,high,16,0,16,0,1,,,,,,,,,
295999,2022-12-04_22h16.43.917,vts_reward_expectancy_bt,2022.2.4,MacIntel,60.0024001,Chrome,1440,900,,,,,0,1095,,,,,,,,,,,,,,,,,167,W,hexagon,0,1,,,,,,,,,,,,,,,,repeat,number,NA,d,0.0006,Lo,,,,,,5,,,,,,,,high,17,0,17,0,1,,,,,,,,,
295999,2022-12-04_22h16.43.917,vts_reward_expectancy_bt,2022.2.4,MacIntel,60.0024001,Chrome,1440,900,,,,,0,1095,,,,,,,,,,,,,,,,,132,B,star,0,1,,,,,,,,,,,,,,,,repeat,number,NA,f,0.2001,Lo,,,,,,5,,,,,,,,high,18,0,18,0,1,,,,,,,,,
295999,2022-12-04_22h16.43.917,vts_reward_expectancy_bt,2022.2.4,MacIntel,60.0024001,Chrome,1440,900,,,,,1,1096,,,,,,,,,,,,,,,,,174,F,triangle,1,1,,,,,,,,,,,,,,,,repeat,number,numRpt,f,0.2165,Lo,,,,,,5,,,,,,,,high,19,0,19,0,1,,,,,,,,,
295999,2022-12-04_22h16.43.917,vts_reward_expectancy_bt,2022.2.4,MacIntel,60.0024001,Chrome,1440,900,,,,,1,1097,,,,,,,,,,,,,,,,,160,S,triangle,1,0,,,,,,,,,,,,,,,,repeat,number,numRpt,f,0.0004,Lo,,,,,,5,,,,,,,,high,20,0,20,0,1,,,,,,,,,
295999,2022-12-04_22h16.43.917,vts_reward_expectancy_bt,2022.2.4,MacIntel,60.0024001,Chrome,1440,900,,,,,10,1107,,,,,,,,,,,,,,,,,146,Y,star,1,0,,,,,,,,,,,,,,,,repeat,number,numRpt,d,0.0996,Hi,,,,,,5,,,,,,,,high,21,0,21,0,1,,,,,,,,,
295999,2022-12-04_22h16.43.917,vts_reward_expectancy_bt,2022.2.4,MacIntel,60.0024001,Chrome,1440,900,,,,,10,1117,,,,,,,,,,,,,,,,,181,D,circle,1,0,,,,,,,,,,,,,,,,repeat,number,numRpt,f,0.192,Lo,,,,,,5,,,,,,,,high,22,0,22,0,1,,,,,,,,,
295999,2022-12-04_22h16.43.917,vts_reward_expectancy_bt,2022.2.4,MacIntel,60.0024001,Chrome,1440,900,,,,,1,1118,,,,,,,,,,,,,,,,,139,U,hexagon,1,0,,,,,,,,,,,,,,,,repeat,number,numRpt,d,0.0117,Hi,,,,,,5,,,,,,,,high,23,0,23,0,1,,,,,,,,,
295999,2022-12-04_22h16.43.917,vts_reward_expectancy_bt,2022.2.4,MacIntel,60.0024001,Chrome,1440,900,,,,,1,1119,,,,,,,,,,,,,,,,,167,B,circle,1,0,,,,,,,,,,,,,,,,repeat,number,numRpt,f,0.2346,Lo,,,,,,5,,,,,,,,high,24,0,24,0,1,,,,,,,,,
295999,2022-12-04_22h16.43.917,vts_reward_expectancy_bt,2022.2.4,MacIntel,60.0024001,Chrome,1440,900,,,,,0,1119,,,,,,,,,,,,,,,,,146,S,hexagon,0,0,,,,,,,,,,,,,,,,repeat,number,NA,f,0.0156,Lo,,,,,,5,,,,,,,,high,25,0,25,0,1,,,,,,,,,
295999,2022-12-04_22h16.43.917,vts_reward_expectancy_bt,2022.2.4,MacIntel,60.0024001,Chrome,1440,900,,,,,1,1120,,,,,,,,,,,,,,,,,160,W,triangle,1,1,,,,,,,,,,,,,,,,repeat,number,numRpt,f,0.0871,Lo,,,,,,5,,,,,,,,high,26,0,26,0,1,,,,,,,,,
295999,2022-12-04_22h16.43.917,vts_reward_expectancy_bt,2022.2.4,MacIntel,60.0024001,Chrome,1440,900,,,,,0,1120,,,,,,,,,,,,,,,,,174,Y,star,1,0,,,,,,,,,,,,,,,,repeat,number,numRpt,f,0.5071,Hi,,,,,,5,,,,,,,,high,27,0,27,0,1,,,,,,,,,
295999,2022-12-04_22h16.43.917,vts_reward_expectancy_bt,2022.2.4,MacIntel,60.0024001,Chrome,1440,900,,,,,0,1120,,,,,,,,,,,,,,,,,139,H,circle,0,0,,,,,,,,,,,,,,,,repeat,number,NA,f,0.584,Hi,,,,,,5,,,,,,,,high,28,0,28,0,1,,,,,,,,,
295999,2022-12-04_22h16.43.917,vts_reward_expectancy_bt,2022.2.4,MacIntel,60.0024001,Chrome,1440,900,,,,,1,1121,,,,,,,,,,,,,,,,,181,D,triangle,1,1,,,,,,,,,,,,,,,,repeat,number,numRpt,f,0.2645,Lo,,,,,,5,,,,,,,,high,29,0,29,0,1,,,,,,,,,
295999,2022-12-04_22h16.43.917,vts_reward_expectancy_bt,2022.2.4,MacIntel,60.0024001,Chrome,1440,900,,,,,10,1131,,,,,,,,,,,,,,,,,125,F,star,1,0,,,,,,,,,,,,,,,,repeat,number,numRpt,d,0.0535,Hi,,,,,,5,,,,,,,,high,30,0,30,0,1,,,,,,,,,
295999,2022-12-04_22h16.43.917,vts_reward_expectancy_bt,2022.2.4,MacIntel,60.0024001,Chrome,1440,900,,,,,1,1132,,,,,,,,,,,,,,,,,132,U,hexagon,1,0,,,,,,,,,,,,,,,,switch,letter,lettSwt,k,0.0875,Hi,,,,,,5,,,,,,,,high,31,0,31,0,1,,,,,,,,,
295999,2022-12-04_22h16.43.917,vts_reward_expectancy_bt,2022.2.4,MacIntel,60.0024001,Chrome,1440,900,,,,,10,1142,,,,,,,,,,,,,,,,,146,H,circle,1,0,,,,,,,,,,,,,,,,repeat,letter,lettRpt,j,0.0628,Lo,,,,,,6,,,,,,space,6.5456,high,0,0,0,0,1,,,,,,,,,
295999,2022-12-04_22h16.43.917,vts_reward_expectancy_bt,2022.2.4,MacIntel,60.0024001,Chrome,1440,900,,,,,0,1142,,,,,,,,,,,,,,,,,125,S,star,0,0,,,,,,,,,,,,,,,,repeat,letter,NA,j,0.0005,Lo,,,,,,6,,,,,,,,high,1,0,1,0,1,,,,,,,,,
295999,2022-12-04_22h16.43.917,vts_reward_expectancy_bt,2022.2.4,MacIntel,60.0024001,Chrome,1440,900,,,,,0,1142,,,,,,,,,,,,,,,,,132,U,triangle,0,1,,,,,,,,,,,,,,,,repeat,letter,NA,j,0.1803,Lo,,,,,,6,,,,,,,,high,2,0,2,0,1,,,,,,,,,
295999,2022-12-04_22h16.43.917,vts_reward_expectancy_bt,2022.2.4,MacIntel,60.0024001,Chrome,1440,900,,,,,0,1142,,,,,,,,,,,,,,,,,181,W,hexagon,0,1,,,,,,,,,,,,,,,,repeat,letter,NA,j,0.0689,Lo,,,,,,6,,,,,,,,high,3,0,3,0,1,,,,,,,,,
295999,2022-12-04_22h16.43.917,vts_reward_expectancy_bt,2022.2.4,MacIntel,60.0024001,Chrome,1440,900,,,,,10,1152,,,,,,,,,,,,,,,,,139,D,circle,1,1,,,,,,,,,,,,,,,,repeat,letter,lettRpt,j,0.2075,Lo,,,,,,6,,,,,,,,high,4,0,4,0,1,,,,,,,,,
295999,2022-12-04_22h16.43.917,vts_reward_expectancy_bt,2022.2.4,MacIntel,60.0024001,Chrome,1440,900,,,,,0,1152,,,,,,,,,,,,,,,,,160,F,star,0,0,,,,,,,,,,,,,,,,repeat,letter,NA,k,0.0563,Lo,,,,,,6,,,,,,,,high,5,0,5,0,1,,,,,,,,,
295999,2022-12-04_22h16.43.917,vts_reward_expectancy_bt,2022.2.4,MacIntel,60.0024001,Chrome,1440,900,,,,,1,1153,,,,,,,,,,,,,,,,,167,B,triangle,1,1,,,,,,,,,,,,,,,,repeat,letter,lettRpt,j,0.1041,Lo,,,,,,6,,,,,,,,high,6,0,6,0,1,,,,,,,,,
295999,2022-12-04_22h16.43.917,vts_reward_expectancy_bt,2022.2.4,MacIntel,60.0024001,Chrome,1440,900,,,,,0,1153,,,,,,,,,,,,,,,,,174,Y,hexagon,1,0,,,,,,,,,,,,,,,,repeat,letter,lettRpt,k,0.1046,Hi,,,,,,6,,,,,,,,high,7,0,7,0,1,,,,,,,,,
295999,2022-12-04_22h16.43.917,vts_reward_expectancy_bt,2022.2.4,MacIntel,60.0024001,Chrome,1440,900,,,,,0,1153,,,,,,,,,,,,,,,,,146,H,star,0,0,,,,,,,,,,,,,,,,repeat,letter,NA,k,0.0993,Hi,,,,,,6,,,,,,,,high,8,0,8,0,1,,,,,,,,,
295999,2022-12-04_22h16.43.917,vts_reward_expectancy_bt,2022.2.4,MacIntel,60.0024001,Chrome,1440,900,,,,,0,1153,,,,,,,,,,,,,,,,,125,S,circle,0,1,,,,,,,,,,,,,,,,repeat,letter,NA,j,0.2049,Hi,,,,,,6,,,,,,,,high,9,0,9,0,1,,,,,,,,,
295999,2022-12-04_22h16.43.917,vts_reward_expectancy_bt,2022.2.4,MacIntel,60.0024001,Chrome,1440,900,,,,,1,1154,,,,,,,,,,,,,,,,,132,U,hexagon,1,1,,,,,,,,,,,,,,,,repeat,letter,lettRpt,k,0.0311,Hi,,,,,,6,,,,,,,,high,10,0,10,0,1,,,,,,,,,
295999,2022-12-04_22h16.43.917,vts_reward_expectancy_bt,2022.2.4,MacIntel,60.0024001,Chrome,1440,900,,,,,10,1164,,,,,,,,,,,,,,,,,181,W,triangle,1,0,,,,,,,,,,,,,,,,repeat,letter,lettRpt,k,0.1544,Lo,,,,,,6,,,,,,,,high,11,0,11,0,1,,,,,,,,,
295999,2022-12-04_22h16.43.917,vts_reward_expectancy_bt,2022.2.4,MacIntel,60.0024001,Chrome,1440,900,,,,,0,1164,,,,,,,,,,,,,,,,,139,D,star,1,0,,,,,,,,,,,,,,,,repeat,letter,lettRpt,j,0.143,Hi,,,,,,6,,,,,,,,high,12,0,12,0,1,,,,,,,,,
