participant,date,expName,psychopyVersion,OS,frameRate,browser,xResolution,yResolution,key_resp.keys,key_resp.rt,training_resp.keys,training_resp.rt,points_trial,points_cumul,trainBlock,training.thisRepN,training.thisTrialN,training.thisN,training.thisIndex,training.ran,LTriangleOpac,LCircleOpac,LHexagonOpac,LStarOpac,RTriangleOpac,RCircleOpac,RHexagonOpac,RStarOpac,LShape_ID,RShape_ID,curr_topStim,curr_bottStim,curr_shape,acc,E1,target_resp_prac1.keys,pracBlock,task1_prac_trials.thisRepN,task1_prac_trials.thisTrialN,task1_prac_trials.thisN,task1_prac_trials.thisIndex,task1_prac_trials.ran,target_resp_prac1.rt,target_resp_prac2.keys,target_resp_prac2.rt,task2_praac_trials.thisRepN,task2_praac_trials.thisTrialN,task2_praac_trials.thisN,task2_praac_trials.thisIndex,task2_praac_trials.ran,alt,task,condition,target_resp.keys,rewCond,vts_practice_trials.thisRepN,vts_practice_trials.thisTrialN,vts_practice_trials.thisN,vts_practice_trials.thisIndex,vts_practice_trials.ran,target_resp.rt,blockNum,trials_norew.thisRepN,trials_norew.thisTrialN,trials_norew.thisN,trials_norew.thisIndex,trials_norew.ran,key_resp_2.keys,key_resp_2.rt,rewExpectancy,trials_rew.thisRepN,trials_rew.thisTrialN,trials_rew.thisN,trials_rew.thisIndex,trials_rew.ran,Q1,Q2,Q2_text,Q3,Q4,Q5,Q5_text,xRes,yRes
296086,2022-12-04_20h51.22.540,vts_reward_expectancy_bt,2022.2.4,Linux x86_64,60.04924038,Chrome,1366,768,,,,,,,,,,,,,,,,,,,,,,,,,,,,,,,,,,,,,,,,,,,,,,,,,,,,,,,,,,,,,,,,,,,,,,,,,,,,
296086,2022-12-04_20h51.22.540,vts_reward_expectancy_bt,2022.2.4,Linux x86_64,60.04924038,Chrome,1366,768,space,16.3418,,,,,,,,,,,,,,,,,,,,,,,,,,,,,,,,,,,,,,,,,,,,,,,,,,,,,,,,,,,,,,,,,,,,,,,,,,
296086,2022-12-04_20h51.22.540,vts_reward_expectancy_bt,2022.2.4,Linux x86_64,60.04924038,Chrome,1366,768,,,,,,,,,,,,,,,,,,,,,,,,,,,,,,,,,,,,,,,,,,,,,,,,,,,,,,,,,,,,,,,,,,,,,,,,,,,,
296086,2022-12-04_20h51.22.540,vts_reward_expectancy_bt,2022.2.4,Linux x86_64,60.04924038,Chrome,1366,768,,,l,5.1408,1,1,0,0,0,0,8,1,0,0,1,0,0,0,0,1,hexagon,star,,,,,,,,,,,,,,,,,,,,,,,,,,,,,,,,,,,,,,,,,,,,,,,,,,,,,,
296086,2022-12-04_20h51.22.540,vts_reward_expectancy_bt,2022.2.4,Linux x86_64,60.04924038,Chrome,1366,768,,,l,3.2204,1,2,0,0,1,1,1,1,1,0,0,0,0,0,1,0,triangle,hexagon,,,,,,,,,,,,,,,,,,,,,,,,,,,,,,,,,,,,,,,,,,,,,,,,,,,,,,
296086,2022-12-04_20h51.22.540,vts_reward_expectancy_bt,2022.2.4,Linux x86_64,60.04924038,Chrome,1366,768,,,a,8.7675,1,3,0,0,2,2,0,1,1,0,0,0,0,1,0,0,triangle,circle,,,,,,,,,,,,,,,,,,,,,,,,,,,,,,,,,,,,,,,,,,,,,,,,,,,,,,
296086,2022-12-04_20h51.22.540,vts_reward_expectancy_bt,2022.2.4,Linux x86_64,60.04924038,Chrome,1366,768,,,a,2.3072,1,4,0,0,3,3,9,1,0,0,0,1,1,0,0,0,star,triangle,,,,,,,,,,,,,,,,,,,,,,,,,,,,,,,,,,,,,,,,,,,,,,,,,,,,,,
296086,2022-12-04_20h51.22.540,vts_reward_expectancy_bt,2022.2.4,Linux x86_64,60.04924038,Chrome,1366,768,,,l,2.0068,10,14,0,0,4,4,6,1,0,0,1,0,1,0,0,0,hexagon,triangle,,,,,,,,,,,,,,,,,,,,,,,,,,,,,,,,,,,,,,,,,,,,,,,,,,,,,,
296086,2022-12-04_20h51.22.540,vts_reward_expectancy_bt,2022.2.4,Linux x86_64,60.04924038,Chrome,1366,768,,,a,1.6417,10,24,0,0,5,5,2,1,1,0,0,0,0,0,0,1,triangle,star,,,,,,,,,,,,,,,,,,,,,,,,,,,,,,,,,,,,,,,,,,,,,,,,,,,,,,
296086,2022-12-04_20h51.22.540,vts_reward_expectancy_bt,2022.2.4,Linux x86_64,60.04924038,Chrome,1366,768,,,a,4.3407,1,25,0,0,6,6,3,1,0,1,0,0,1,0,0,0,circle,triangle,,,,,,,,,,,,,,,,,,,,,,,,,,,,,,,,,,,,,,,,,,,,,,,,,,,,,,
296086,2022-12-04_20h51.22.540,vts_reward_expectancy_bt,2022.2.4,Linux x86_64,60.04924038,Chrome,1366,768,,,l,3.3634,10,35,0,0,7,7,7,1,0,0,1,0,0,1,0,0,hexagon,circle,,,,,,,,,,,,,,,,,,,,,,,,,,,,,,,,,,,,,,,,,,,,,,,,,,,,,,
296086,2022-12-04_20h51.22.540,vts_reward_expectancy_bt,2022.2.4,Linux x86_64,60.04924038,Chrome,1366,768,,,a,2.9656,1,36,0,0,8,8,4,1,0,1,0,0,0,0,1,0,circle,hexagon,,,,,,,,,,,,,,,,,,,,,,,,,,,,,,,,,,,,,,,,,,,,,,,,,,,,,,
296086,2022-12-04_20h51.22.540,vts_reward_expectancy_bt,2022.2.4,Linux x86_64,60.04924038,Chrome,1366,768,,,a,1.7244,1,37,0,0,9,9,10,1,0,0,0,1,0,1,0,0,star ,circle,,,,,,,,,,,,,,,,,,,,,,,,,,,,,,,,,,,,,,,,,,,,,,,,,,,,,,
296086,2022-12-04_20h51.22.540,vts_reward_expectancy_bt,2022.2.4,Linux x86_64,60.04924038,Chrome,1366,768,,,a,2.7485,10,47,0,0,10,10,5,1,0,1,0,0,0,0,0,1,circle,star,,,,,,,,,,,,,,,,,,,,,,,,,,,,,,,,,,,,,,,,,,,,,,,,,,,,,,
296086,2022-12-04_20h51.22.540,vts_reward_expectancy_bt,2022.2.4,Linux x86_64,60.04924038,Chrome,1366,768,,,l,2.2682,1,48,0,0,11,11,11,1,0,0,0,1,0,0,1,0,star,hexagon,,,,,,,,,,,,,,,,,,,,,,,,,,,,,,,,,,,,,,,,,,,,,,,,,,,,,,
296086,2022-12-04_20h51.22.540,vts_reward_expectancy_bt,2022.2.4,Linux x86_64,60.04924038,Chrome,1366,768,,,a,5.3087,1,49,0,1,0,12,1,1,1,0,0,0,0,0,1,0,triangle,hexagon,,,,,,,,,,,,,,,,,,,,,,,,,,,,,,,,,,,,,,,,,,,,,,,,,,,,,,
296086,2022-12-04_20h51.22.540,vts_reward_expectancy_bt,2022.2.4,Linux x86_64,60.04924038,Chrome,1366,768,,,l,1.2509,1,50,0,1,1,13,5,1,0,1,0,0,0,0,0,1,circle,star,,,,,,,,,,,,,,,,,,,,,,,,,,,,,,,,,,,,,,,,,,,,,,,,,,,,,,
296086,2022-12-04_20h51.22.540,vts_reward_expectancy_bt,2022.2.4,Linux x86_64,60.04924038,Chrome,1366,768,,,l,1.4016,1,51,0,1,2,14,0,1,1,0,0,0,0,1,0,0,triangle,circle,,,,,,,,,,,,,,,,,,,,,,,,,,,,,,,,,,,,,,,,,,,,,,,,,,,,,,
296086,2022-12-04_20h51.22.540,vts_reward_expectancy_bt,2022.2.4,Linux x86_64,60.04924038,Chrome,1366,768,,,a,1.6344,10,61,0,1,3,15,3,1,0,1,0,0,1,0,0,0,circle,triangle,,,,,,,,,,,,,,,,,,,,,,,,,,,,,,,,,,,,,,,,,,,,,,,,,,,,,,
296086,2022-12-04_20h51.22.540,vts_reward_expectancy_bt,2022.2.4,Linux x86_64,60.04924038,Chrome,1366,768,,,a,2.3573,10,71,0,1,4,16,8,1,0,0,1,0,0,0,0,1,hexagon,star,,,,,,,,,,,,,,,,,,,,,,,,,,,,,,,,,,,,,,,,,,,,,,,,,,,,,,
296086,2022-12-04_20h51.22.540,vts_reward_expectancy_bt,2022.2.4,Linux x86_64,60.04924038,Chrome,1366,768,,,l,1.0799,10,81,0,1,5,17,10,1,0,0,0,1,0,1,0,0,star ,circle,,,,,,,,,,,,,,,,,,,,,,,,,,,,,,,,,,,,,,,,,,,,,,,,,,,,,,
296086,2022-12-04_20h51.22.540,vts_reward_expectancy_bt,2022.2.4,Linux x86_64,60.04924038,Chrome,1366,768,,,l,2.4928,10,91,0,1,6,18,9,1,0,0,0,1,1,0,0,0,star,triangle,,,,,,,,,,,,,,,,,,,,,,,,,,,,,,,,,,,,,,,,,,,,,,,,,,,,,,
296086,2022-12-04_20h51.22.540,vts_reward_expectancy_bt,2022.2.4,Linux x86_64,60.04924038,Chrome,1366,768,,,a,1.1891,1,92,0,1,7,19,6,1,0,0,1,0,1,0,0,0,hexagon,triangle,,,,,,,,,,,,,,,,,,,,,,,,,,,,,,,,,,,,,,,,,,,,,,,,,,,,,,
296086,2022-12-04_20h51.22.540,vts_reward_expectancy_bt,2022.2.4,Linux x86_64,60.04924038,Chrome,1366,768,,,l,1.0498,10,102,0,1,8,20,2,1,1,0,0,0,0,0,0,1,triangle,star,,,,,,,,,,,,,,,,,,,,,,,,,,,,,,,,,,,,,,,,,,,,,,,,,,,,,,
296086,2022-12-04_20h51.22.540,vts_reward_expectancy_bt,2022.2.4,Linux x86_64,60.04924038,Chrome,1366,768,,,l,2.2045,1,103,0,1,9,21,7,1,0,0,1,0,0,1,0,0,hexagon,circle,,,,,,,,,,,,,,,,,,,,,,,,,,,,,,,,,,,,,,,,,,,,,,,,,,,,,,
296086,2022-12-04_20h51.22.540,vts_reward_expectancy_bt,2022.2.4,Linux x86_64,60.04924038,Chrome,1366,768,,,l,12.7949,10,113,0,1,10,22,11,1,0,0,0,1,0,0,1,0,star,hexagon,,,,,,,,,,,,,,,,,,,,,,,,,,,,,,,,,,,,,,,,,,,,,,,,,,,,,,
296086,2022-12-04_20h51.22.540,vts_reward_expectancy_bt,2022.2.4,Linux x86_64,60.04924038,Chrome,1366,768,,,l,0.9809,1,114,0,1,11,23,4,1,0,1,0,0,0,0,1,0,circle,hexagon,,,,,,,,,,,,,,,,,,,,,,,,,,,,,,,,,,,,,,,,,,,,,,,,,,,,,,
296086,2022-12-04_20h51.22.540,vts_reward_expectancy_bt,2022.2.4,Linux x86_64,60.04924038,Chrome,1366,768,,,l,0.9652,10,124,0,2,0,24,1,1,1,0,0,0,0,0,1,0,triangle,hexagon,,,,,,,,,,,,,,,,,,,,,,,,,,,,,,,,,,,,,,,,,,,,,,,,,,,,,,
296086,2022-12-04_20h51.22.540,vts_reward_expectancy_bt,2022.2.4,Linux x86_64,60.04924038,Chrome,1366,768,,,l,1.4975,10,134,0,2,1,25,7,1,0,0,1,0,0,1,0,0,hexagon,circle,,,,,,,,,,,,,,,,,,,,,,,,,,,,,,,,,,,,,,,,,,,,,,,,,,,,,,
296086,2022-12-04_20h51.22.540,vts_reward_expectancy_bt,2022.2.4,Linux x86_64,60.04924038,Chrome,1366,768,,,a,1.5078,1,135,0,2,2,26,9,1,0,0,0,1,1,0,0,0,star,triangle,,,,,,,,,,,,,,,,,,,,,,,,,,,,,,,,,,,,,,,,,,,,,,,,,,,,,,
296086,2022-12-04_20h51.22.540,vts_reward_expectancy_bt,2022.2.4,Linux x86_64,60.04924038,Chrome,1366,768,,,a,1.2573,10,145,0,2,3,27,2,1,1,0,0,0,0,0,0,1,triangle,star,,,,,,,,,,,,,,,,,,,,,,,,,,,,,,,,,,,,,,,,,,,,,,,,,,,,,,
296086,2022-12-04_20h51.22.540,vts_reward_expectancy_bt,2022.2.4,Linux x86_64,60.04924038,Chrome,1366,768,,,l,0.8362,1,146,0,2,4,28,10,1,0,0,0,1,0,1,0,0,star ,circle,,,,,,,,,,,,,,,,,,,,,,,,,,,,,,,,,,,,,,,,,,,,,,,,,,,,,,
296086,2022-12-04_20h51.22.540,vts_reward_expectancy_bt,2022.2.4,Linux x86_64,60.04924038,Chrome,1366,768,,,a,1.398,10,156,0,2,5,29,6,1,0,0,1,0,1,0,0,0,hexagon,triangle,,,,,,,,,,,,,,,,,,,,,,,,,,,,,,,,,,,,,,,,,,,,,,,,,,,,,,
296086,2022-12-04_20h51.22.540,vts_reward_expectancy_bt,2022.2.4,Linux x86_64,60.04924038,Chrome,1366,768,,,l,1.492,1,157,0,2,6,30,0,1,1,0,0,0,0,1,0,0,triangle,circle,,,,,,,,,,,,,,,,,,,,,,,,,,,,,,,,,,,,,,,,,,,,,,,,,,,,,,
296086,2022-12-04_20h51.22.540,vts_reward_expectancy_bt,2022.2.4,Linux x86_64,60.04924038,Chrome,1366,768,,,l,3.8309,1,158,0,2,7,31,11,1,0,0,0,1,0,0,1,0,star,hexagon,,,,,,,,,,,,,,,,,,,,,,,,,,,,,,,,,,,,,,,,,,,,,,,,,,,,,,
296086,2022-12-04_20h51.22.540,vts_reward_expectancy_bt,2022.2.4,Linux x86_64,60.04924038,Chrome,1366,768,,,a,0.6015,10,168,0,2,8,32,3,1,0,1,0,0,1,0,0,0,circle,triangle,,,,,,,,,,,,,,,,,,,,,,,,,,,,,,,,,,,,,,,,,,,,,,,,,,,,,,
296086,2022-12-04_20h51.22.540,vts_reward_expectancy_bt,2022.2.4,Linux x86_64,60.04924038,Chrome,1366,768,,,a,0.2798,1,169,0,2,9,33,4,1,0,1,0,0,0,0,1,0,circle,hexagon,,,,,,,,,,,,,,,,,,,,,,,,,,,,,,,,,,,,,,,,,,,,,,,,,,,,,,
296086,2022-12-04_20h51.22.540,vts_reward_expectancy_bt,2022.2.4,Linux x86_64,60.04924038,Chrome,1366,768,,,l,1.9306,1,170,0,2,10,34,5,1,0,1,0,0,0,0,0,1,circle,star,,,,,,,,,,,,,,,,,,,,,,,,,,,,,,,,,,,,,,,,,,,,,,,,,,,,,,
296086,2022-12-04_20h51.22.540,vts_reward_expectancy_bt,2022.2.4,Linux x86_64,60.04924038,Chrome,1366,768,,,a,0.4448,1,171,0,2,11,35,8,1,0,0,1,0,0,0,0,1,hexagon,star,,,,,,,,,,,,,,,,,,,,,,,,,,,,,,,,,,,,,,,,,,,,,,,,,,,,,,
296086,2022-12-04_20h51.22.540,vts_reward_expectancy_bt,2022.2.4,Linux x86_64,60.04924038,Chrome,1366,768,,,a,1.157,1,172,1,0,0,0,7,1,0,0,1,0,0,1,0,0,hexagon,circle,,,,,,,,,,,,,,,,,,,,,,,,,,,,,,,,,,,,,,,,,,,,,,,,,,,,,,
296086,2022-12-04_20h51.22.540,vts_reward_expectancy_bt,2022.2.4,Linux x86_64,60.04924038,Chrome,1366,768,,,l,0.3228,1,173,1,0,1,1,0,1,1,0,0,0,0,1,0,0,triangle,circle,,,,,,,,,,,,,,,,,,,,,,,,,,,,,,,,,,,,,,,,,,,,,,,,,,,,,,
296086,2022-12-04_20h51.22.540,vts_reward_expectancy_bt,2022.2.4,Linux x86_64,60.04924038,Chrome,1366,768,,,a,0.2729,10,183,1,0,2,2,8,1,0,0,1,0,0,0,0,1,hexagon,star,,,,,,,,,,,,,,,,,,,,,,,,,,,,,,,,,,,,,,,,,,,,,,,,,,,,,,
296086,2022-12-04_20h51.22.540,vts_reward_expectancy_bt,2022.2.4,Linux x86_64,60.04924038,Chrome,1366,768,,,l,0.4378,1,184,1,0,3,3,1,1,1,0,0,0,0,0,1,0,triangle,hexagon,,,,,,,,,,,,,,,,,,,,,,,,,,,,,,,,,,,,,,,,,,,,,,,,,,,,,,
296086,2022-12-04_20h51.22.540,vts_reward_expectancy_bt,2022.2.4,Linux x86_64,60.04924038,Chrome,1366,768,,,a,0.3137,10,194,1,0,4,4,9,1,0,0,0,1,1,0,0,0,star,triangle,,,,,,,,,,,,,,,,,,,,,,,,,,,,,,,,,,,,,,,,,,,,,,,,,,,,,,
296086,2022-12-04_20h51.22.540,vts_reward_expectancy_bt,2022.2.4,Linux x86_64,60.04924038,Chrome,1366,768,,,l,0.719,10,204,1,0,5,5,10,1,0,0,0,1,0,1,0,0,star ,circle,,,,,,,,,,,,,,,,,,,,,,,,,,,,,,,,,,,,,,,,,,,,,,,,,,,,,,
296086,2022-12-04_20h51.22.540,vts_reward_expectancy_bt,2022.2.4,Linux x86_64,60.04924038,Chrome,1366,768,,,a,1.2983,10,214,1,0,6,6,2,1,1,0,0,0,0,0,0,1,triangle,star,,,,,,,,,,,,,,,,,,,,,,,,,,,,,,,,,,,,,,,,,,,,,,,,,,,,,,
296086,2022-12-04_20h51.22.540,vts_reward_expectancy_bt,2022.2.4,Linux x86_64,60.04924038,Chrome,1366,768,,,l,1.2558,10,224,1,0,7,7,11,1,0,0,0,1,0,0,1,0,star,hexagon,,,,,,,,,,,,,,,,,,,,,,,,,,,,,,,,,,,,,,,,,,,,,,,,,,,,,,
296086,2022-12-04_20h51.22.540,vts_reward_expectancy_bt,2022.2.4,Linux x86_64,60.04924038,Chrome,1366,768,,,a,0.3697,10,234,1,0,8,8,5,1,0,1,0,0,0,0,0,1,circle,star,,,,,,,,,,,,,,,,,,,,,,,,,,,,,,,,,,,,,,,,,,,,,,,,,,,,,,
296086,2022-12-04_20h51.22.540,vts_reward_expectancy_bt,2022.2.4,Linux x86_64,60.04924038,Chrome,1366,768,,,l,0.4252,10,244,1,0,9,9,6,1,0,0,1,0,1,0,0,0,hexagon,triangle,,,,,,,,,,,,,,,,,,,,,,,,,,,,,,,,,,,,,,,,,,,,,,,,,,,,,,
296086,2022-12-04_20h51.22.540,vts_reward_expectancy_bt,2022.2.4,Linux x86_64,60.04924038,Chrome,1366,768,,,a,0.3104,1,245,1,0,10,10,4,1,0,1,0,0,0,0,1,0,circle,hexagon,,,,,,,,,,,,,,,,,,,,,,,,,,,,,,,,,,,,,,,,,,,,,,,,,,,,,,
296086,2022-12-04_20h51.22.540,vts_reward_expectancy_bt,2022.2.4,Linux x86_64,60.04924038,Chrome,1366,768,,,l,0.2634,1,246,1,0,11,11,3,1,0,1,0,0,1,0,0,0,circle,triangle,,,,,,,,,,,,,,,,,,,,,,,,,,,,,,,,,,,,,,,,,,,,,,,,,,,,,,
296086,2022-12-04_20h51.22.540,vts_reward_expectancy_bt,2022.2.4,Linux x86_64,60.04924038,Chrome,1366,768,,,a,1.2303,10,256,1,1,0,12,1,1,1,0,0,0,0,0,1,0,triangle,hexagon,,,,,,,,,,,,,,,,,,,,,,,,,,,,,,,,,,,,,,,,,,,,,,,,,,,,,,
296086,2022-12-04_20h51.22.540,vts_reward_expectancy_bt,2022.2.4,Linux x86_64,60.04924038,Chrome,1366,768,,,l,0.7644,1,257,1,1,1,13,4,1,0,1,0,0,0,0,1,0,circle,hexagon,,,,,,,,,,,,,,,,,,,,,,,,,,,,,,,,,,,,,,,,,,,,,,,,,,,,,,
296086,2022-12-04_20h51.22.540,vts_reward_expectancy_bt,2022.2.4,Linux x86_64,60.04924038,Chrome,1366,768,,,a,1.9485,10,267,1,1,2,14,9,1,0,0,0,1,1,0,0,0,star,triangle,,,,,,,,,,,,,,,,,,,,,,,,,,,,,,,,,,,,,,,,,,,,,,,,,,,,,,
296086,2022-12-04_20h51.22.540,vts_reward_expectancy_bt,2022.2.4,Linux x86_64,60.04924038,Chrome,1366,768,,,l,0.3922,1,268,1,1,3,15,2,1,1,0,0,0,0,0,0,1,triangle,star,,,,,,,,,,,,,,,,,,,,,,,,,,,,,,,,,,,,,,,,,,,,,,,,,,,,,,
296086,2022-12-04_20h51.22.540,vts_reward_expectancy_bt,2022.2.4,Linux x86_64,60.04924038,Chrome,1366,768,,,a,0.2568,10,278,1,1,4,16,3,1,0,1,0,0,1,0,0,0,circle,triangle,,,,,,,,,,,,,,,,,,,,,,,,,,,,,,,,,,,,,,,,,,,,,,,,,,,,,,
296086,2022-12-04_20h51.22.540,vts_reward_expectancy_bt,2022.2.4,Linux x86_64,60.04924038,Chrome,1366,768,,,l,0.498,10,288,1,1,5,17,5,1,0,1,0,0,0,0,0,1,circle,star,,,,,,,,,,,,,,,,,,,,,,,,,,,,,,,,,,,,,,,,,,,,,,,,,,,,,,
296086,2022-12-04_20h51.22.540,vts_reward_expectancy_bt,2022.2.4,Linux x86_64,60.04924038,Chrome,1366,768,,,a,0.3571,1,289,1,1,6,18,6,1,0,0,1,0,1,0,0,0,hexagon,triangle,,,,,,,,,,,,,,,,,,,,,,,,,,,,,,,,,,,,,,,,,,,,,,,,,,,,,,
296086,2022-12-04_20h51.22.540,vts_reward_expectancy_bt,2022.2.4,Linux x86_64,60.04924038,Chrome,1366,768,,,l,0.9736,10,299,1,1,7,19,8,1,0,0,1,0,0,0,0,1,hexagon,star,,,,,,,,,,,,,,,,,,,,,,,,,,,,,,,,,,,,,,,,,,,,,,,,,,,,,,
296086,2022-12-04_20h51.22.540,vts_reward_expectancy_bt,2022.2.4,Linux x86_64,60.04924038,Chrome,1366,768,,,a,0.405,1,300,1,1,8,20,0,1,1,0,0,0,0,1,0,0,triangle,circle,,,,,,,,,,,,,,,,,,,,,,,,,,,,,,,,,,,,,,,,,,,,,,,,,,,,,,
296086,2022-12-04_20h51.22.540,vts_reward_expectancy_bt,2022.2.4,Linux x86_64,60.04924038,Chrome,1366,768,,,l,0.3723,1,301,1,1,9,21,11,1,0,0,0,1,0,0,1,0,star,hexagon,,,,,,,,,,,,,,,,,,,,,,,,,,,,,,,,,,,,,,,,,,,,,,,,,,,,,,
296086,2022-12-04_20h51.22.540,vts_reward_expectancy_bt,2022.2.4,Linux x86_64,60.04924038,Chrome,1366,768,,,a,0.346,1,302,1,1,10,22,7,1,0,0,1,0,0,1,0,0,hexagon,circle,,,,,,,,,,,,,,,,,,,,,,,,,,,,,,,,,,,,,,,,,,,,,,,,,,,,,,
296086,2022-12-04_20h51.22.540,vts_reward_expectancy_bt,2022.2.4,Linux x86_64,60.04924038,Chrome,1366,768,,,a,0.2695,1,303,1,1,11,23,10,1,0,0,0,1,0,1,0,0,star ,circle,,,,,,,,,,,,,,,,,,,,,,,,,,,,,,,,,,,,,,,,,,,,,,,,,,,,,,
296086,2022-12-04_20h51.22.540,vts_reward_expectancy_bt,2022.2.4,Linux x86_64,60.04924038,Chrome,1366,768,,,a,0.4196,10,313,1,2,0,24,0,1,1,0,0,0,0,1,0,0,triangle,circle,,,,,,,,,,,,,,,,,,,,,,,,,,,,,,,,,,,,,,,,,,,,,,,,,,,,,,
296086,2022-12-04_20h51.22.540,vts_reward_expectancy_bt,2022.2.4,Linux x86_64,60.04924038,Chrome,1366,768,,,l,0.9151,1,314,1,2,1,25,10,1,0,0,0,1,0,1,0,0,star ,circle,,,,,,,,,,,,,,,,,,,,,,,,,,,,,,,,,,,,,,,,,,,,,,,,,,,,,,
296086,2022-12-04_20h51.22.540,vts_reward_expectancy_bt,2022.2.4,Linux x86_64,60.04924038,Chrome,1366,768,,,a,0.2998,10,324,1,2,2,26,2,1,1,0,0,0,0,0,0,1,triangle,star,,,,,,,,,,,,,,,,,,,,,,,,,,,,,,,,,,,,,,,,,,,,,,,,,,,,,,
296086,2022-12-04_20h51.22.540,vts_reward_expectancy_bt,2022.2.4,Linux x86_64,60.04924038,Chrome,1366,768,,,l,0.3009,10,334,1,2,3,27,6,1,0,0,1,0,1,0,0,0,hexagon,triangle,,,,,,,,,,,,,,,,,,,,,,,,,,,,,,,,,,,,,,,,,,,,,,,,,,,,,,
296086,2022-12-04_20h51.22.540,vts_reward_expectancy_bt,2022.2.4,Linux x86_64,60.04924038,Chrome,1366,768,,,a,0.2848,10,344,1,2,4,28,3,1,0,1,0,0,1,0,0,0,circle,triangle,,,,,,,,,,,,,,,,,,,,,,,,,,,,,,,,,,,,,,,,,,,,,,,,,,,,,,
296086,2022-12-04_20h51.22.540,vts_reward_expectancy_bt,2022.2.4,Linux x86_64,60.04924038,Chrome,1366,768,,,l,0.3857,10,354,1,2,5,29,5,1,0,1,0,0,0,0,0,1,circle,star,,,,,,,,,,,,,,,,,,,,,,,,,,,,,,,,,,,,,,,,,,,,,,,,,,,,,,
296086,2022-12-04_20h51.22.540,vts_reward_expectancy_bt,2022.2.4,Linux x86_64,60.04924038,Chrome,1366,768,,,l,1.2183,10,364,1,2,6,30,11,1,0,0,0,1,0,0,1,0,star,hexagon,,,,,,,,,,,,,,,,,,,,,,,,,,,,,,,,,,,,,,,,,,,,,,,,,,,,,,
296086,2022-12-04_20h51.22.540,vts_reward_expectancy_bt,2022.2.4,Linux x86_64,60.04924038,Chrome,1366,768,,,l,1.5083,10,374,1,2,7,31,9,1,0,0,0,1,1,0,0,0,star,triangle,,,,,,,,,,,,,,,,,,,,,,,,,,,,,,,,,,,,,,,,,,,,,,,,,,,,,,
296086,2022-12-04_20h51.22.540,vts_reward_expectancy_bt,2022.2.4,Linux x86_64,60.04924038,Chrome,1366,768,,,a,1.0034,10,384,1,2,8,32,1,1,1,0,0,0,0,0,1,0,triangle,hexagon,,,,,,,,,,,,,,,,,,,,,,,,,,,,,,,,,,,,,,,,,,,,,,,,,,,,,,
296086,2022-12-04_20h51.22.540,vts_reward_expectancy_bt,2022.2.4,Linux x86_64,60.04924038,Chrome,1366,768,,,l,2.9402,10,394,1,2,9,33,8,1,0,0,1,0,0,0,0,1,hexagon,star,,,,,,,,,,,,,,,,,,,,,,,,,,,,,,,,,,,,,,,,,,,,,,,,,,,,,,
296086,2022-12-04_20h51.22.540,vts_reward_expectancy_bt,2022.2.4,Linux x86_64,60.04924038,Chrome,1366,768,,,a,0.8767,1,395,1,2,10,34,4,1,0,1,0,0,0,0,1,0,circle,hexagon,,,,,,,,,,,,,,,,,,,,,,,,,,,,,,,,,,,,,,,,,,,,,,,,,,,,,,
296086,2022-12-04_20h51.22.540,vts_reward_expectancy_bt,2022.2.4,Linux x86_64,60.04924038,Chrome,1366,768,,,l,1.2869,1,396,1,2,11,35,7,1,0,0,1,0,0,1,0,0,hexagon,circle,,,,,,,,,,,,,,,,,,,,,,,,,,,,,,,,,,,,,,,,,,,,,,,,,,,,,,
296086,2022-12-04_20h51.22.540,vts_reward_expectancy_bt,2022.2.4,Linux x86_64,60.04924038,Chrome,1366,768,,,l,2.4339,10,406,2,0,0,0,2,1,1,0,0,0,0,0,0,1,triangle,star,,,,,,,,,,,,,,,,,,,,,,,,,,,,,,,,,,,,,,,,,,,,,,,,,,,,,,
296086,2022-12-04_20h51.22.540,vts_reward_expectancy_bt,2022.2.4,Linux x86_64,60.04924038,Chrome,1366,768,,,l,7.3547,10,416,2,0,1,1,8,1,0,0,1,0,0,0,0,1,hexagon,star,,,,,,,,,,,,,,,,,,,,,,,,,,,,,,,,,,,,,,,,,,,,,,,,,,,,,,
296086,2022-12-04_20h51.22.540,vts_reward_expectancy_bt,2022.2.4,Linux x86_64,60.04924038,Chrome,1366,768,,,l,0.3706,10,426,2,0,2,2,3,1,0,1,0,0,1,0,0,0,circle,triangle,,,,,,,,,,,,,,,,,,,,,,,,,,,,,,,,,,,,,,,,,,,,,,,,,,,,,,
296086,2022-12-04_20h51.22.540,vts_reward_expectancy_bt,2022.2.4,Linux x86_64,60.04924038,Chrome,1366,768,,,l,1.4949,10,436,2,0,3,3,6,1,0,0,1,0,1,0,0,0,hexagon,triangle,,,,,,,,,,,,,,,,,,,,,,,,,,,,,,,,,,,,,,,,,,,,,,,,,,,,,,
296086,2022-12-04_20h51.22.540,vts_reward_expectancy_bt,2022.2.4,Linux x86_64,60.04924038,Chrome,1366,768,,,l,0.9345,10,446,2,0,4,4,0,1,1,0,0,0,0,1,0,0,triangle,circle,,,,,,,,,,,,,,,,,,,,,,,,,,,,,,,,,,,,,,,,,,,,,,,,,,,,,,
296086,2022-12-04_20h51.22.540,vts_reward_expectancy_bt,2022.2.4,Linux x86_64,60.04924038,Chrome,1366,768,,,l,0.7097,1,447,2,0,5,5,10,1,0,0,0,1,0,1,0,0,star ,circle,,,,,,,,,,,,,,,,,,,,,,,,,,,,,,,,,,,,,,,,,,,,,,,,,,,,,,
296086,2022-12-04_20h51.22.540,vts_reward_expectancy_bt,2022.2.4,Linux x86_64,60.04924038,Chrome,1366,768,,,l,0.8695,10,457,2,0,6,6,5,1,0,1,0,0,0,0,0,1,circle,star,,,,,,,,,,,,,,,,,,,,,,,,,,,,,,,,,,,,,,,,,,,,,,,,,,,,,,
296086,2022-12-04_20h51.22.540,vts_reward_expectancy_bt,2022.2.4,Linux x86_64,60.04924038,Chrome,1366,768,,,a,1.5277,10,467,2,0,7,7,1,1,1,0,0,0,0,0,1,0,triangle,hexagon,,,,,,,,,,,,,,,,,,,,,,,,,,,,,,,,,,,,,,,,,,,,,,,,,,,,,,
296086,2022-12-04_20h51.22.540,vts_reward_expectancy_bt,2022.2.4,Linux x86_64,60.04924038,Chrome,1366,768,,,l,1.7964,10,477,2,0,8,8,11,1,0,0,0,1,0,0,1,0,star,hexagon,,,,,,,,,,,,,,,,,,,,,,,,,,,,,,,,,,,,,,,,,,,,,,,,,,,,,,
296086,2022-12-04_20h51.22.540,vts_reward_expectancy_bt,2022.2.4,Linux x86_64,60.04924038,Chrome,1366,768,,,a,0.5048,1,478,2,0,9,9,4,1,0,1,0,0,0,0,1,0,circle,hexagon,,,,,,,,,,,,,,,,,,,,,,,,,,,,,,,,,,,,,,,,,,,,,,,,,,,,,,
296086,2022-12-04_20h51.22.540,vts_reward_expectancy_bt,2022.2.4,Linux x86_64,60.04924038,Chrome,1366,768,,,l,0.3558,10,488,2,0,10,10,7,1,0,0,1,0,0,1,0,0,hexagon,circle,,,,,,,,,,,,,,,,,,,,,,,,,,,,,,,,,,,,,,,,,,,,,,,,,,,,,,
296086,2022-12-04_20h51.22.540,vts_reward_expectancy_bt,2022.2.4,Linux x86_64,60.04924038,Chrome,1366,768,,,l,2.9791,10,498,2,0,11,11,9,1,0,0,0,1,1,0,0,0,star,triangle,,,,,,,,,,,,,,,,,,,,,,,,,,,,,,,,,,,,,,,,,,,,,,,,,,,,,,
296086,2022-12-04_20h51.22.540,vts_reward_expectancy_bt,2022.2.4,Linux x86_64,60.04924038,Chrome,1366,768,,,a,0.0293,10,508,2,1,0,12,9,1,0,0,0,1,1,0,0,0,star,triangle,,,,,,,,,,,,,,,,,,,,,,,,,,,,,,,,,,,,,,,,,,,,,,,,,,,,,,
296086,2022-12-04_20h51.22.540,vts_reward_expectancy_bt,2022.2.4,Linux x86_64,60.04924038,Chrome,1366,768,,,l,0.4672,10,518,2,1,1,13,6,1,0,0,1,0,1,0,0,0,hexagon,triangle,,,,,,,,,,,,,,,,,,,,,,,,,,,,,,,,,,,,,,,,,,,,,,,,,,,,,,
296086,2022-12-04_20h51.22.540,vts_reward_expectancy_bt,2022.2.4,Linux x86_64,60.04924038,Chrome,1366,768,,,a,0.7832,1,519,2,1,2,14,2,1,1,0,0,0,0,0,0,1,triangle,star,,,,,,,,,,,,,,,,,,,,,,,,,,,,,,,,,,,,,,,,,,,,,,,,,,,,,,
296086,2022-12-04_20h51.22.540,vts_reward_expectancy_bt,2022.2.4,Linux x86_64,60.04924038,Chrome,1366,768,,,l,0.4503,1,520,2,1,3,15,10,1,0,0,0,1,0,1,0,0,star ,circle,,,,,,,,,,,,,,,,,,,,,,,,,,,,,,,,,,,,,,,,,,,,,,,,,,,,,,
296086,2022-12-04_20h51.22.540,vts_reward_expectancy_bt,2022.2.4,Linux x86_64,60.04924038,Chrome,1366,768,,,a,0.2814,1,521,2,1,4,16,5,1,0,1,0,0,0,0,0,1,circle,star,,,,,,,,,,,,,,,,,,,,,,,,,,,,,,,,,,,,,,,,,,,,,,,,,,,,,,
296086,2022-12-04_20h51.22.540,vts_reward_expectancy_bt,2022.2.4,Linux x86_64,60.04924038,Chrome,1366,768,,,l,0.502,10,531,2,1,5,17,8,1,0,0,1,0,0,0,0,1,hexagon,star,,,,,,,,,,,,,,,,,,,,,,,,,,,,,,,,,,,,,,,,,,,,,,,,,,,,,,
296086,2022-12-04_20h51.22.540,vts_reward_expectancy_bt,2022.2.4,Linux x86_64,60.04924038,Chrome,1366,768,,,a,0.3235,1,532,2,1,6,18,4,1,0,1,0,0,0,0,1,0,circle,hexagon,,,,,,,,,,,,,,,,,,,,,,,,,,,,,,,,,,,,,,,,,,,,,,,,,,,,,,
296086,2022-12-04_20h51.22.540,vts_reward_expectancy_bt,2022.2.4,Linux x86_64,60.04924038,Chrome,1366,768,,,l,0.2864,10,542,2,1,7,19,7,1,0,0,1,0,0,1,0,0,hexagon,circle,,,,,,,,,,,,,,,,,,,,,,,,,,,,,,,,,,,,,,,,,,,,,,,,,,,,,,
296086,2022-12-04_20h51.22.540,vts_reward_expectancy_bt,2022.2.4,Linux x86_64,60.04924038,Chrome,1366,768,,,l,0.3575,1,543,2,1,8,20,1,1,1,0,0,0,0,0,1,0,triangle,hexagon,,,,,,,,,,,,,,,,,,,,,,,,,,,,,,,,,,,,,,,,,,,,,,,,,,,,,,
296086,2022-12-04_20h51.22.540,vts_reward_expectancy_bt,2022.2.4,Linux x86_64,60.04924038,Chrome,1366,768,,,a,1.7649,1,544,2,1,9,21,11,1,0,0,0,1,0,0,1,0,star,hexagon,,,,,,,,,,,,,,,,,,,,,,,,,,,,,,,,,,,,,,,,,,,,,,,,,,,,,,
296086,2022-12-04_20h51.22.540,vts_reward_expectancy_bt,2022.2.4,Linux x86_64,60.04924038,Chrome,1366,768,,,l,0.4024,10,554,2,1,10,22,3,1,0,1,0,0,1,0,0,0,circle,triangle,,,,,,,,,,,,,,,,,,,,,,,,,,,,,,,,,,,,,,,,,,,,,,,,,,,,,,
296086,2022-12-04_20h51.22.540,vts_reward_expectancy_bt,2022.2.4,Linux x86_64,60.04924038,Chrome,1366,768,,,l,0.5243,10,564,2,1,11,23,0,1,1,0,0,0,0,1,0,0,triangle,circle,,,,,,,,,,,,,,,,,,,,,,,,,,,,,,,,,,,,,,,,,,,,,,,,,,,,,,
296086,2022-12-04_20h51.22.540,vts_reward_expectancy_bt,2022.2.4,Linux x86_64,60.04924038,Chrome,1366,768,,,l,0.4211,10,574,2,2,0,24,2,1,1,0,0,0,0,0,0,1,triangle,star,,,,,,,,,,,,,,,,,,,,,,,,,,,,,,,,,,,,,,,,,,,,,,,,,,,,,,
296086,2022-12-04_20h51.22.540,vts_reward_expectancy_bt,2022.2.4,Linux x86_64,60.04924038,Chrome,1366,768,,,a,0.3894,1,575,2,2,1,25,8,1,0,0,1,0,0,0,0,1,hexagon,star,,,,,,,,,,,,,,,,,,,,,,,,,,,,,,,,,,,,,,,,,,,,,,,,,,,,,,
296086,2022-12-04_20h51.22.540,vts_reward_expectancy_bt,2022.2.4,Linux x86_64,60.04924038,Chrome,1366,768,,,l,0.0692,10,585,2,2,2,26,11,1,0,0,0,1,0,0,1,0,star,hexagon,,,,,,,,,,,,,,,,,,,,,,,,,,,,,,,,,,,,,,,,,,,,,,,,,,,,,,
296086,2022-12-04_20h51.22.540,vts_reward_expectancy_bt,2022.2.4,Linux x86_64,60.04924038,Chrome,1366,768,,,l,0.677,1,586,2,2,3,27,10,1,0,0,0,1,0,1,0,0,star ,circle,,,,,,,,,,,,,,,,,,,,,,,,,,,,,,,,,,,,,,,,,,,,,,,,,,,,,,
296086,2022-12-04_20h51.22.540,vts_reward_expectancy_bt,2022.2.4,Linux x86_64,60.04924038,Chrome,1366,768,,,l,0.116,10,596,2,2,4,28,1,1,1,0,0,0,0,0,1,0,triangle,hexagon,,,,,,,,,,,,,,,,,,,,,,,,,,,,,,,,,,,,,,,,,,,,,,,,,,,,,,
296086,2022-12-04_20h51.22.540,vts_reward_expectancy_bt,2022.2.4,Linux x86_64,60.04924038,Chrome,1366,768,,,a,0.4089,10,606,2,2,5,29,5,1,0,1,0,0,0,0,0,1,circle,star,,,,,,,,,,,,,,,,,,,,,,,,,,,,,,,,,,,,,,,,,,,,,,,,,,,,,,
296086,2022-12-04_20h51.22.540,vts_reward_expectancy_bt,2022.2.4,Linux x86_64,60.04924038,Chrome,1366,768,,,l,0.0009,10,616,2,2,6,30,6,1,0,0,1,0,1,0,0,0,hexagon,triangle,,,,,,,,,,,,,,,,,,,,,,,,,,,,,,,,,,,,,,,,,,,,,,,,,,,,,,
296086,2022-12-04_20h51.22.540,vts_reward_expectancy_bt,2022.2.4,Linux x86_64,60.04924038,Chrome,1366,768,,,a,0.165,1,617,2,2,7,31,4,1,0,1,0,0,0,0,1,0,circle,hexagon,,,,,,,,,,,,,,,,,,,,,,,,,,,,,,,,,,,,,,,,,,,,,,,,,,,,,,
296086,2022-12-04_20h51.22.540,vts_reward_expectancy_bt,2022.2.4,Linux x86_64,60.04924038,Chrome,1366,768,,,l,0.822,10,627,2,2,8,32,0,1,1,0,0,0,0,1,0,0,triangle,circle,,,,,,,,,,,,,,,,,,,,,,,,,,,,,,,,,,,,,,,,,,,,,,,,,,,,,,
296086,2022-12-04_20h51.22.540,vts_reward_expectancy_bt,2022.2.4,Linux x86_64,60.04924038,Chrome,1366,768,,,a,3.8002,10,637,2,2,9,33,9,1,0,0,0,1,1,0,0,0,star,triangle,,,,,,,,,,,,,,,,,,,,,,,,,,,,,,,,,,,,,,,,,,,,,,,,,,,,,,
296086,2022-12-04_20h51.22.540,vts_reward_expectancy_bt,2022.2.4,Linux x86_64,60.04924038,Chrome,1366,768,,,l,0.3558,1,638,2,2,10,34,7,1,0,0,1,0,0,1,0,0,hexagon,circle,,,,,,,,,,,,,,,,,,,,,,,,,,,,,,,,,,,,,,,,,,,,,,,,,,,,,,
296086,2022-12-04_20h51.22.540,vts_reward_expectancy_bt,2022.2.4,Linux x86_64,60.04924038,Chrome,1366,768,,,a,0.0345,10,648,2,2,11,35,3,1,0,1,0,0,1,0,0,0,circle,triangle,,,,,,,,,,,,,,,,,,,,,,,,,,,,,,,,,,,,,,,,,,,,,,,,,,,,,,
296086,2022-12-04_20h51.22.540,vts_reward_expectancy_bt,2022.2.4,Linux x86_64,60.04924038,Chrome,1366,768,,,,,,,,,,,,,,,,,,,,,,,F,146,circle,0,0,,0,0,0,0,0,1,,,,,,,,,,,,,,,,,,,,,,,,,,,,,,,,,,,,,,,,,,
296086,2022-12-04_20h51.22.540,vts_reward_expectancy_bt,2022.2.4,Linux x86_64,60.04924038,Chrome,1366,768,,,,,,,,,,,,,,,,,,,,,,,B,174,hexagon,1,1,d,0,1,0,1,0,1,0.7204,,,,,,,,,,,,,,,,,,,,,,,,,,,,,,,,,,,,,,,,,
296086,2022-12-04_20h51.22.540,vts_reward_expectancy_bt,2022.2.4,Linux x86_64,60.04924038,Chrome,1366,768,,,,,,,,,,,,,,,,,,,,,,,S,181,star,1,0,f,0,2,0,2,0,1,0.7499,,,,,,,,,,,,,,,,,,,,,,,,,,,,,,,,,,,,,,,,,
296086,2022-12-04_20h51.22.540,vts_reward_expectancy_bt,2022.2.4,Linux x86_64,60.04924038,Chrome,1366,768,,,,,,,,,,,,,,,,,,,,,,,Y,160,triangle,1,0,f,0,3,0,3,0,1,0.7135,,,,,,,,,,,,,,,,,,,,,,,,,,,,,,,,,,,,,,,,,
296086,2022-12-04_20h51.22.540,vts_reward_expectancy_bt,2022.2.4,Linux x86_64,60.04924038,Chrome,1366,768,,,,,,,,,,,,,,,,,,,,,,,U,125,circle,1,0,f,0,4,0,4,0,1,0.8723,,,,,,,,,,,,,,,,,,,,,,,,,,,,,,,,,,,,,,,,,
296086,2022-12-04_20h51.22.540,vts_reward_expectancy_bt,2022.2.4,Linux x86_64,60.04924038,Chrome,1366,768,,,,,,,,,,,,,,,,,,,,,,,H,139,hexagon,1,0,d,0,5,0,5,0,1,0.8323,,,,,,,,,,,,,,,,,,,,,,,,,,,,,,,,,,,,,,,,,
296086,2022-12-04_20h51.22.540,vts_reward_expectancy_bt,2022.2.4,Linux x86_64,60.04924038,Chrome,1366,768,,,,,,,,,,,,,,,,,,,,,,,W,167,star,1,0,f,0,6,0,6,0,1,0.8043,,,,,,,,,,,,,,,,,,,,,,,,,,,,,,,,,,,,,,,,,
296086,2022-12-04_20h51.22.540,vts_reward_expectancy_bt,2022.2.4,Linux x86_64,60.04924038,Chrome,1366,768,,,,,,,,,,,,,,,,,,,,,,,D,132,triangle,1,0,d,0,7,0,7,0,1,0.6755,,,,,,,,,,,,,,,,,,,,,,,,,,,,,,,,,,,,,,,,,
296086,2022-12-04_20h51.22.540,vts_reward_expectancy_bt,2022.2.4,Linux x86_64,60.04924038,Chrome,1366,768,,,,,,,,,,,,,,,,,,,,,,,F,146,circle,1,0,d,0,8,0,8,0,1,0.8044,,,,,,,,,,,,,,,,,,,,,,,,,,,,,,,,,,,,,,,,,
296086,2022-12-04_20h51.22.540,vts_reward_expectancy_bt,2022.2.4,Linux x86_64,60.04924038,Chrome,1366,768,,,,,,,,,,,,,,,,,,,,,,,B,174,hexagon,1,0,d,0,9,0,9,0,1,1.0353,,,,,,,,,,,,,,,,,,,,,,,,,,,,,,,,,,,,,,,,,
296086,2022-12-04_20h51.22.540,vts_reward_expectancy_bt,2022.2.4,Linux x86_64,60.04924038,Chrome,1366,768,,,,,,,,,,,,,,,,,,,,,,,S,160,circle,1,0,,1,,,,,,,k,1.2695,0,0,0,0,1,,,,,,,,,,,,,,,,,,,,,,,,,,,,,,,,,,
296086,2022-12-04_20h51.22.540,vts_reward_expectancy_bt,2022.2.4,Linux x86_64,60.04924038,Chrome,1366,768,,,,,,,,,,,,,,,,,,,,,,,H,174,hexagon,1,0,,1,,,,,,,k,1.2726,1,0,1,0,1,,,,,,,,,,,,,,,,,,,,,,,,,,,,,,,,,,
296086,2022-12-04_20h51.22.540,vts_reward_expectancy_bt,2022.2.4,Linux x86_64,60.04924038,Chrome,1366,768,,,,,,,,,,,,,,,,,,,,,,,D,146,star,1,0,,1,,,,,,,j,0.816,2,0,2,0,1,,,,,,,,,,,,,,,,,,,,,,,,,,,,,,,,,,
296086,2022-12-04_20h51.22.540,vts_reward_expectancy_bt,2022.2.4,Linux x86_64,60.04924038,Chrome,1366,768,,,,,,,,,,,,,,,,,,,,,,,F,139,triangle,1,0,,1,,,,,,,j,0.8363,3,0,3,0,1,,,,,,,,,,,,,,,,,,,,,,,,,,,,,,,,,,
296086,2022-12-04_20h51.22.540,vts_reward_expectancy_bt,2022.2.4,Linux x86_64,60.04924038,Chrome,1366,768,,,,,,,,,,,,,,,,,,,,,,,W,167,circle,1,0,,1,,,,,,,k,0.7569,4,0,4,0,1,,,,,,,,,,,,,,,,,,,,,,,,,,,,,,,,,,
296086,2022-12-04_20h51.22.540,vts_reward_expectancy_bt,2022.2.4,Linux x86_64,60.04924038,Chrome,1366,768,,,,,,,,,,,,,,,,,,,,,,,U,132,hexagon,1,0,,1,,,,,,,j,0.8422,5,0,5,0,1,,,,,,,,,,,,,,,,,,,,,,,,,,,,,,,,,,
296086,2022-12-04_20h51.22.540,vts_reward_expectancy_bt,2022.2.4,Linux x86_64,60.04924038,Chrome,1366,768,,,,,,,,,,,,,,,,,,,,,,,Y,181,star,1,0,,1,,,,,,,k,1.2986,6,0,6,0,1,,,,,,,,,,,,,,,,,,,,,,,,,,,,,,,,,,
296086,2022-12-04_20h51.22.540,vts_reward_expectancy_bt,2022.2.4,Linux x86_64,60.04924038,Chrome,1366,768,,,,,,,,,,,,,,,,,,,,,,,B,125,triangle,1,0,,1,,,,,,,j,0.635,7,0,7,0,1,,,,,,,,,,,,,,,,,,,,,,,,,,,,,,,,,,
296086,2022-12-04_20h51.22.540,vts_reward_expectancy_bt,2022.2.4,Linux x86_64,60.04924038,Chrome,1366,768,,,,,,,,,,,,,,,,,,,,,,,S,160,triangle,1,0,,1,,,,,,,k,0.9202,8,0,8,0,1,,,,,,,,,,,,,,,,,,,,,,,,,,,,,,,,,,
296086,2022-12-04_20h51.22.540,vts_reward_expectancy_bt,2022.2.4,Linux x86_64,60.04924038,Chrome,1366,768,,,,,,,,,,,,,,,,,,,,,,,H,174,star,1,0,,1,,,,,,,k,0.8336,9,0,9,0,1,,,,,,,,,,,,,,,,,,,,,,,,,,,,,,,,,,
296086,2022-12-04_20h51.22.540,vts_reward_expectancy_bt,2022.2.4,Linux x86_64,60.04924038,Chrome,1366,768,,,,,0,648,,,,,,,,,,,,,,,,,F,181,star,-1,0,,2,,,,,,,,,,,,,,-1,no_choice,NA,,vtsPrac,0,0,0,0,1,,,,,,,,,,,,,,,,,,,,,,,,
296086,2022-12-04_20h51.22.540,vts_reward_expectancy_bt,2022.2.4,Linux x86_64,60.04924038,Chrome,1366,768,,,,,0,648,,,,,,,,,,,,,,,,,W,146,hexagon,1,0,,2,,,,,,,,,,,,,,switch,number,numSwt,j,vtsPrac,1,0,1,0,1,2.232,,,,,,,,,,,,,,,,,,,,,,,
296086,2022-12-04_20h51.22.540,vts_reward_expectancy_bt,2022.2.4,Linux x86_64,60.04924038,Chrome,1366,768,,,,,0,648,,,,,,,,,,,,,,,,,U,132,star,1,0,,2,,,,,,,,,,,,,,repeat,number,numRpt,j,vtsPrac,2,0,2,0,1,0.937,,,,,,,,,,,,,,,,,,,,,,,
296086,2022-12-04_20h51.22.540,vts_reward_expectancy_bt,2022.2.4,Linux x86_64,60.04924038,Chrome,1366,768,,,,,0,648,,,,,,,,,,,,,,,,,S,160,hexagon,-1,0,,2,,,,,,,,,,,,,,switch,no_choice,NA,,vtsPrac,3,0,3,0,1,,,,,,,,,,,,,,,,,,,,,,,,
296086,2022-12-04_20h51.22.540,vts_reward_expectancy_bt,2022.2.4,Linux x86_64,60.04924038,Chrome,1366,768,,,,,0,648,,,,,,,,,,,,,,,,,F,181,star,-1,0,,2,,,,,,,,,,,,,,repeat,no_choice,NA,,vtsPrac,4,0,4,0,1,,,,,,,,,,,,,,,,,,,,,,,,
296086,2022-12-04_20h51.22.540,vts_reward_expectancy_bt,2022.2.4,Linux x86_64,60.04924038,Chrome,1366,768,,,,,0,648,,,,,,,,,,,,,,,,,W,146,triangle,1,0,,2,,,,,,,,,,,,,,switch,number,numSwt,j,vtsPrac,5,0,5,0,1,1.8834,,,,,,,,,,,,,,,,,,,,,,,
296086,2022-12-04_20h51.22.540,vts_reward_expectancy_bt,2022.2.4,Linux x86_64,60.04924038,Chrome,1366,768,,,,,0,648,,,,,,,,,,,,,,,,,U,132,hexagon,0,0,,2,,,,,,,,,,,,,,repeat,number,NA,k,vtsPrac,6,0,6,0,1,2.1677,,,,,,,,,,,,,,,,,,,,,,,
296086,2022-12-04_20h51.22.540,vts_reward_expectancy_bt,2022.2.4,Linux x86_64,60.04924038,Chrome,1366,768,,,,,0,648,,,,,,,,,,,,,,,,,S,160,circle,0,1,,2,,,,,,,,,,,,,,repeat,number,NA,j,vtsPrac,7,0,7,0,1,0.6791,,,,,,,,,,,,,,,,,,,,,,,
296086,2022-12-04_20h51.22.540,vts_reward_expectancy_bt,2022.2.4,Linux x86_64,60.04924038,Chrome,1366,768,,,,,0,648,,,,,,,,,,,,,,,,,F,139,hexagon,1,1,,2,,,,,,,,,,,,,,repeat,number,numRpt,j,vtsPrac,8,0,8,0,1,0.8718,,,,,,,,,,,,,,,,,,,,,,,
296086,2022-12-04_20h51.22.540,vts_reward_expectancy_bt,2022.2.4,Linux x86_64,60.04924038,Chrome,1366,768,,,,,0,648,,,,,,,,,,,,,,,,,H,160,star,1,0,,2,,,,,,,,,,,,,,repeat,number,numRpt,k,vtsPrac,9,0,9,0,1,1.1366,,,,,,,,,,,,,,,,,,,,,,,
296086,2022-12-04_20h51.22.540,vts_reward_expectancy_bt,2022.2.4,Linux x86_64,60.04924038,Chrome,1366,768,,,,,0,648,,,,,,,,,,,,,,,,,B,125,circle,1,0,,2,,,,,,,,,,,,,,repeat,number,numRpt,j,vtsPrac,10,0,10,0,1,1.0055,,,,,,,,,,,,,,,,,,,,,,,
296086,2022-12-04_20h51.22.540,vts_reward_expectancy_bt,2022.2.4,Linux x86_64,60.04924038,Chrome,1366,768,,,,,0,648,,,,,,,,,,,,,,,,,D,174,hexagon,-1,0,,2,,,,,,,,,,,,,,switch,no_choice,NA,,vtsPrac,11,0,11,0,1,,,,,,,,,,,,,,,,,,,,,,,,
296086,2022-12-04_20h51.22.540,vts_reward_expectancy_bt,2022.2.4,Linux x86_64,60.04924038,Chrome,1366,768,,,,,0,648,,,,,,,,,,,,,,,,,Y,167,star,1,0,,2,,,,,,,,,,,,,,switch,number,numSwt,k,vtsPrac,12,0,12,0,1,0.8689,,,,,,,,,,,,,,,,,,,,,,,
296086,2022-12-04_20h51.22.540,vts_reward_expectancy_bt,2022.2.4,Linux x86_64,60.04924038,Chrome,1366,768,,,,,0,648,,,,,,,,,,,,,,,,,S,146,triangle,1,0,,2,,,,,,,,,,,,,,repeat,number,numRpt,j,vtsPrac,13,0,13,0,1,1.7837,,,,,,,,,,,,,,,,,,,,,,,
296086,2022-12-04_20h51.22.540,vts_reward_expectancy_bt,2022.2.4,Linux x86_64,60.04924038,Chrome,1366,768,,,,,0,648,,,,,,,,,,,,,,,,,B,181,triangle,1,0,,2,,,,,,,,,,,,,,repeat,number,numRpt,k,vtsPrac,14,0,14,0,1,0.8019,,,,,,,,,,,,,,,,,,,,,,,
296086,2022-12-04_20h51.22.540,vts_reward_expectancy_bt,2022.2.4,Linux x86_64,60.04924038,Chrome,1366,768,,,,,0,648,,,,,,,,,,,,,,,,,W,174,hexagon,1,0,,2,,,,,,,,,,,,,,repeat,number,numRpt,k,vtsPrac,15,0,15,0,1,1.2318,,,,,,,,,,,,,,,,,,,,,,,
296086,2022-12-04_20h51.22.540,vts_reward_expectancy_bt,2022.2.4,Linux x86_64,60.04924038,Chrome,1366,768,,,,,0,648,,,,,,,,,,,,,,,,,D,132,star,1,0,,2,,,,,,,,,,,,,,repeat,number,numRpt,j,vtsPrac,16,0,16,0,1,0.8526,,,,,,,,,,,,,,,,,,,,,,,
296086,2022-12-04_20h51.22.540,vts_reward_expectancy_bt,2022.2.4,Linux x86_64,60.04924038,Chrome,1366,768,,,,,0,648,,,,,,,,,,,,,,,,,B,167,hexagon,-1,0,,2,,,,,,,,,,,,,,switch,no_choice,NA,,vtsPrac,17,0,17,0,1,,,,,,,,,,,,,,,,,,,,,,,,
296086,2022-12-04_20h51.22.540,vts_reward_expectancy_bt,2022.2.4,Linux x86_64,60.04924038,Chrome,1366,768,,,,,0,648,,,,,,,,,,,,,,,,,S,146,triangle,0,0,,2,,,,,,,,,,,,,,switch,number,NA,k,vtsPrac,18,0,18,0,1,0.0144,,,,,,,,,,,,,,,,,,,,,,,
296086,2022-12-04_20h51.22.540,vts_reward_expectancy_bt,2022.2.4,Linux x86_64,60.04924038,Chrome,1366,768,,,,,0,648,,,,,,,,,,,,,,,,,F,139,hexagon,1,1,,2,,,,,,,,,,,,,,repeat,number,numRpt,j,vtsPrac,19,0,19,0,1,0.8849,,,,,,,,,,,,,,,,,,,,,,,
296086,2022-12-04_20h51.22.540,vts_reward_expectancy_bt,2022.2.4,Linux x86_64,60.04924038,Chrome,1366,768,,,,,0,648,,,,,,,,,,,,,,,,,Y,174,triangle,1,0,,2,,,,,,,,,,,,,,repeat,number,numRpt,k,vtsPrac,20,0,20,0,1,2.7509,,,,,,,,,,,,,,,,,,,,,,,
296086,2022-12-04_20h51.22.540,vts_reward_expectancy_bt,2022.2.4,Linux x86_64,60.04924038,Chrome,1366,768,,,,,0,648,,,,,,,,,,,,,,,,,F,181,circle,1,0,,2,,,,,,,,,,,,,,repeat,number,numRpt,k,vtsPrac,21,0,21,0,1,0.6983,,,,,,,,,,,,,,,,,,,,,,,
296086,2022-12-04_20h51.22.540,vts_reward_expectancy_bt,2022.2.4,Linux x86_64,60.04924038,Chrome,1366,768,,,,,0,648,,,,,,,,,,,,,,,,,H,139,circle,1,0,,2,,,,,,,,,,,,,,repeat,number,numRpt,j,vtsPrac,22,0,22,0,1,1.3711,,,,,,,,,,,,,,,,,,,,,,,
296086,2022-12-04_20h51.22.540,vts_reward_expectancy_bt,2022.2.4,Linux x86_64,60.04924038,Chrome,1366,768,,,,,0,648,,,,,,,,,,,,,,,,,S,146,hexagon,1,0,,2,,,,,,,,,,,,,,repeat,number,numRpt,j,vtsPrac,23,0,23,0,1,0.7852,,,,,,,,,,,,,,,,,,,,,,,
296086,2022-12-04_20h51.22.540,vts_reward_expectancy_bt,2022.2.4,Linux x86_64,60.04924038,Chrome,1366,768,,,,,0,648,,,,,,,,,,,,,,,,,S,181,circle,1,0,,2,,,,,,,,,,,,,,repeat,number,numRpt,k,vtsPrac,24,0,24,0,1,1.7941,,,,,,,,,,,,,,,,,,,,,,,
296086,2022-12-04_20h51.22.540,vts_reward_expectancy_bt,2022.2.4,Linux x86_64,60.04924038,Chrome,1366,768,,,,,0,648,,,,,,,,,,,,,,,,,H,146,hexagon,-1,0,,2,,,,,,,,,,,,,,switch,no_choice,NA,,vtsPrac,25,0,25,0,1,,,,,,,,,,,,,,,,,,,,,,,,
296086,2022-12-04_20h51.22.540,vts_reward_expectancy_bt,2022.2.4,Linux x86_64,60.04924038,Chrome,1366,768,,,,,0,648,,,,,,,,,,,,,,,,,F,174,circle,1,0,,2,,,,,,,,,,,,,,switch,number,numSwt,k,vtsPrac,26,0,26,0,1,1.0193,,,,,,,,,,,,,,,,,,,,,,,
296086,2022-12-04_20h51.22.540,vts_reward_expectancy_bt,2022.2.4,Linux x86_64,60.04924038,Chrome,1366,768,,,,,0,648,,,,,,,,,,,,,,,,,W,160,triangle,1,0,,2,,,,,,,,,,,,,,repeat,number,numRpt,k,vtsPrac,27,0,27,0,1,2.2961,,,,,,,,,,,,,,,,,,,,,,,
296086,2022-12-04_20h51.22.540,vts_reward_expectancy_bt,2022.2.4,Linux x86_64,60.04924038,Chrome,1366,768,,,,,0,648,,,,,,,,,,,,,,,,,W,132,circle,1,0,,2,,,,,,,,,,,,,,repeat,number,numRpt,j,vtsPrac,28,0,28,0,1,1.9975,,,,,,,,,,,,,,,,,,,,,,,
296086,2022-12-04_20h51.22.540,vts_reward_expectancy_bt,2022.2.4,Linux x86_64,60.04924038,Chrome,1366,768,,,,,0,648,,,,,,,,,,,,,,,,,S,160,hexagon,1,0,,2,,,,,,,,,,,,,,repeat,number,numRpt,k,vtsPrac,29,0,29,0,1,1.1324,,,,,,,,,,,,,,,,,,,,,,,
296086,2022-12-04_20h51.22.540,vts_reward_expectancy_bt,2022.2.4,Linux x86_64,60.04924038,Chrome,1366,768,,,,,0,648,,,,,,,,,,,,,,,,,B,167,circle,1,0,,2,,,,,,,,,,,,,,repeat,number,numRpt,k,vtsPrac,30,0,30,0,1,1.8473,,,,,,,,,,,,,,,,,,,,,,,
296086,2022-12-04_20h51.22.540,vts_reward_expectancy_bt,2022.2.4,Linux x86_64,60.04924038,Chrome,1366,768,,,,,0,648,,,,,,,,,,,,,,,,,D,139,star,1,0,,2,,,,,,,,,,,,,,repeat,number,numRpt,j,vtsPrac,31,0,31,0,1,0.847,,,,,,,,,,,,,,,,,,,,,,,
296086,2022-12-04_20h51.22.540,vts_reward_expectancy_bt,2022.2.4,Linux x86_64,60.04924038,Chrome,1366,768,,,,,0,648,,,,,,,,,,,,,,,,,H,139,hexagon,1,0,,3,,,,,,,,,,,,,,switch,letter,lettSwt,d,vtsPrac,0,0,0,0,1,0.7754,,,,,,,,,,,,,,,,,,,,,,,
296086,2022-12-04_20h51.22.540,vts_reward_expectancy_bt,2022.2.4,Linux x86_64,60.04924038,Chrome,1366,768,,,,,0,648,,,,,,,,,,,,,,,,,Y,132,circle,1,0,,3,,,,,,,,,,,,,,repeat,letter,lettRpt,f,vtsPrac,1,0,1,0,1,0.7382,,,,,,,,,,,,,,,,,,,,,,,
296086,2022-12-04_20h51.22.540,vts_reward_expectancy_bt,2022.2.4,Linux x86_64,60.04924038,Chrome,1366,768,,,,,0,648,,,,,,,,,,,,,,,,,B,160,hexagon,1,0,,3,,,,,,,,,,,,,,switch,number,numSwt,k,vtsPrac,2,0,2,0,1,1.8215,,,,,,,,,,,,,,,,,,,,,,,
296086,2022-12-04_20h51.22.540,vts_reward_expectancy_bt,2022.2.4,Linux x86_64,60.04924038,Chrome,1366,768,,,,,0,648,,,,,,,,,,,,,,,,,D,167,circle,1,0,,3,,,,,,,,,,,,,,switch,letter,lettSwt,d,vtsPrac,3,0,3,0,1,2.0181,,,,,,,,,,,,,,,,,,,,,,,
296086,2022-12-04_20h51.22.540,vts_reward_expectancy_bt,2022.2.4,Linux x86_64,60.04924038,Chrome,1366,768,,,,,0,648,,,,,,,,,,,,,,,,,H,139,triangle,1,0,,3,,,,,,,,,,,,,,repeat,letter,lettRpt,d,vtsPrac,4,0,4,0,1,1.4349,,,,,,,,,,,,,,,,,,,,,,,
296086,2022-12-04_20h51.22.540,vts_reward_expectancy_bt,2022.2.4,Linux x86_64,60.04924038,Chrome,1366,768,,,,,0,648,,,,,,,,,,,,,,,,,Y,132,circle,1,0,,3,,,,,,,,,,,,,,switch,number,numSwt,j,vtsPrac,5,0,5,0,1,2.0351,,,,,,,,,,,,,,,,,,,,,,,
296086,2022-12-04_20h51.22.540,vts_reward_expectancy_bt,2022.2.4,Linux x86_64,60.04924038,Chrome,1366,768,,,,,0,648,,,,,,,,,,,,,,,,,B,160,triangle,1,0,,3,,,,,,,,,,,,,,repeat,number,numRpt,k,vtsPrac,6,0,6,0,1,1.0188,,,,,,,,,,,,,,,,,,,,,,,
296086,2022-12-04_20h51.22.540,vts_reward_expectancy_bt,2022.2.4,Linux x86_64,60.04924038,Chrome,1366,768,,,,,0,648,,,,,,,,,,,,,,,,,D,167,star,1,0,,3,,,,,,,,,,,,,,repeat,number,numRpt,k,vtsPrac,7,0,7,0,1,0.9655,,,,,,,,,,,,,,,,,,,,,,,
296086,2022-12-04_20h51.22.540,vts_reward_expectancy_bt,2022.2.4,Linux x86_64,60.04924038,Chrome,1366,768,,,,,0,648,,,,,,,,,,,,,,,,,B,167,hexagon,1,0,,3,,,,,,,,,,,,,,repeat,number,numRpt,k,vtsPrac,8,0,8,0,1,0.8123,,,,,,,,,,,,,,,,,,,,,,,
296086,2022-12-04_20h51.22.540,vts_reward_expectancy_bt,2022.2.4,Linux x86_64,60.04924038,Chrome,1366,768,,,,,0,648,,,,,,,,,,,,,,,,,U,181,triangle,1,0,,3,,,,,,,,,,,,,,switch,letter,lettSwt,f,vtsPrac,9,0,9,0,1,0.9463,,,,,,,,,,,,,,,,,,,,,,,
296086,2022-12-04_20h51.22.540,vts_reward_expectancy_bt,2022.2.4,Linux x86_64,60.04924038,Chrome,1366,768,,,,,0,648,,,,,,,,,,,,,,,,,F,174,hexagon,1,0,,3,,,,,,,,,,,,,,repeat,letter,lettRpt,d,vtsPrac,10,0,10,0,1,0.8361,,,,,,,,,,,,,,,,,,,,,,,
296086,2022-12-04_20h51.22.540,vts_reward_expectancy_bt,2022.2.4,Linux x86_64,60.04924038,Chrome,1366,768,,,,,0,648,,,,,,,,,,,,,,,,,S,139,triangle,1,0,,3,,,,,,,,,,,,,,switch,number,numSwt,j,vtsPrac,11,0,11,0,1,1.7505,,,,,,,,,,,,,,,,,,,,,,,
296086,2022-12-04_20h51.22.540,vts_reward_expectancy_bt,2022.2.4,Linux x86_64,60.04924038,Chrome,1366,768,,,,,0,648,,,,,,,,,,,,,,,,,D,174,circle,1,0,,3,,,,,,,,,,,,,,repeat,number,numRpt,k,vtsPrac,12,0,12,0,1,0.7304,,,,,,,,,,,,,,,,,,,,,,,
296086,2022-12-04_20h51.22.540,vts_reward_expectancy_bt,2022.2.4,Linux x86_64,60.04924038,Chrome,1366,768,,,,,0,648,,,,,,,,,,,,,,,,,W,139,hexagon,1,0,,3,,,,,,,,,,,,,,repeat,number,numRpt,j,vtsPrac,13,0,13,0,1,1.1709,,,,,,,,,,,,,,,,,,,,,,,
296086,2022-12-04_20h51.22.540,vts_reward_expectancy_bt,2022.2.4,Linux x86_64,60.04924038,Chrome,1366,768,,,,,0,648,,,,,,,,,,,,,,,,,H,146,circle,1,0,,3,,,,,,,,,,,,,,switch,letter,lettSwt,d,vtsPrac,14,0,14,0,1,1.5174,,,,,,,,,,,,,,,,,,,,,,,
296086,2022-12-04_20h51.22.540,vts_reward_expectancy_bt,2022.2.4,Linux x86_64,60.04924038,Chrome,1366,768,,,,,0,648,,,,,,,,,,,,,,,,,B,167,hexagon,1,0,,3,,,,,,,,,,,,,,repeat,letter,lettRpt,d,vtsPrac,15,0,15,0,1,0.7505,,,,,,,,,,,,,,,,,,,,,,,
296086,2022-12-04_20h51.22.540,vts_reward_expectancy_bt,2022.2.4,Linux x86_64,60.04924038,Chrome,1366,768,,,,,0,648,,,,,,,,,,,,,,,,,W,139,circle,0,0,,3,,,,,,,,,,,,,,repeat,letter,NA,d,vtsPrac,16,0,16,0,1,0.7416,,,,,,,,,,,,,,,,,,,,,,,
296086,2022-12-04_20h51.22.540,vts_reward_expectancy_bt,2022.2.4,Linux x86_64,60.04924038,Chrome,1366,768,,,,,0,648,,,,,,,,,,,,,,,,,F,160,hexagon,1,1,,3,,,,,,,,,,,,,,repeat,letter,lettRpt,d,vtsPrac,17,0,17,0,1,1.5547,,,,,,,,,,,,,,,,,,,,,,,
296086,2022-12-04_20h51.22.540,vts_reward_expectancy_bt,2022.2.4,Linux x86_64,60.04924038,Chrome,1366,768,,,,,0,648,,,,,,,,,,,,,,,,,U,181,circle,1,0,,3,,,,,,,,,,,,,,switch,number,numSwt,k,vtsPrac,18,0,18,0,1,0.9015,,,,,,,,,,,,,,,,,,,,,,,
296086,2022-12-04_20h51.22.540,vts_reward_expectancy_bt,2022.2.4,Linux x86_64,60.04924038,Chrome,1366,768,,,,,0,648,,,,,,,,,,,,,,,,,B,125,star,1,0,,3,,,,,,,,,,,,,,repeat,number,numRpt,j,vtsPrac,19,0,19,0,1,0.8187,,,,,,,,,,,,,,,,,,,,,,,
296086,2022-12-04_20h51.22.540,vts_reward_expectancy_bt,2022.2.4,Linux x86_64,60.04924038,Chrome,1366,768,,,,,0,648,,,,,,,,,,,,,,,,,S,181,star,1,0,,3,,,,,,,,,,,,,,switch,letter,lettSwt,f,vtsPrac,20,0,20,0,1,0.7914,,,,,,,,,,,,,,,,,,,,,,,
296086,2022-12-04_20h51.22.540,vts_reward_expectancy_bt,2022.2.4,Linux x86_64,60.04924038,Chrome,1366,768,,,,,0,648,,,,,,,,,,,,,,,,,D,139,circle,1,0,,3,,,,,,,,,,,,,,repeat,letter,lettRpt,d,vtsPrac,21,0,21,0,1,1.0965,,,,,,,,,,,,,,,,,,,,,,,
296086,2022-12-04_20h51.22.540,vts_reward_expectancy_bt,2022.2.4,Linux x86_64,60.04924038,Chrome,1366,768,,,,,0,648,,,,,,,,,,,,,,,,,W,167,triangle,1,0,,3,,,,,,,,,,,,,,repeat,letter,lettRpt,f,vtsPrac,22,0,22,0,1,1.0186,,,,,,,,,,,,,,,,,,,,,,,
296086,2022-12-04_20h51.22.540,vts_reward_expectancy_bt,2022.2.4,Linux x86_64,60.04924038,Chrome,1366,768,,,,,0,648,,,,,,,,,,,,,,,,,F,174,hexagon,1,0,,3,,,,,,,,,,,,,,repeat,letter,lettRpt,d,vtsPrac,23,0,23,0,1,0.7054,,,,,,,,,,,,,,,,,,,,,,,
296086,2022-12-04_20h51.22.540,vts_reward_expectancy_bt,2022.2.4,Linux x86_64,60.04924038,Chrome,1366,768,,,,,0,648,,,,,,,,,,,,,,,,,H,160,triangle,1,0,,3,,,,,,,,,,,,,,repeat,letter,lettRpt,d,vtsPrac,24,0,24,0,1,1.276,,,,,,,,,,,,,,,,,,,,,,,
296086,2022-12-04_20h51.22.540,vts_reward_expectancy_bt,2022.2.4,Linux x86_64,60.04924038,Chrome,1366,768,,,,,0,648,,,,,,,,,,,,,,,,,U,139,star,1,0,,3,,,,,,,,,,,,,,switch,number,numSwt,j,vtsPrac,25,0,25,0,1,1.172,,,,,,,,,,,,,,,,,,,,,,,
296086,2022-12-04_20h51.22.540,vts_reward_expectancy_bt,2022.2.4,Linux x86_64,60.04924038,Chrome,1366,768,,,,,0,648,,,,,,,,,,,,,,,,,B,181,circle,1,0,,3,,,,,,,,,,,,,,repeat,number,numRpt,k,vtsPrac,26,0,26,0,1,1.069,,,,,,,,,,,,,,,,,,,,,,,
296086,2022-12-04_20h51.22.540,vts_reward_expectancy_bt,2022.2.4,Linux x86_64,60.04924038,Chrome,1366,768,,,,,0,648,,,,,,,,,,,,,,,,,D,174,hexagon,1,0,,3,,,,,,,,,,,,,,switch,letter,lettSwt,d,vtsPrac,27,0,27,0,1,0.9792,,,,,,,,,,,,,,,,,,,,,,,
296086,2022-12-04_20h51.22.540,vts_reward_expectancy_bt,2022.2.4,Linux x86_64,60.04924038,Chrome,1366,768,,,,,0,648,,,,,,,,,,,,,,,,,S,174,circle,1,0,,3,,,,,,,,,,,,,,switch,number,numSwt,k,vtsPrac,28,0,28,0,1,0.7435,,,,,,,,,,,,,,,,,,,,,,,
296086,2022-12-04_20h51.22.540,vts_reward_expectancy_bt,2022.2.4,Linux x86_64,60.04924038,Chrome,1366,768,,,,,0,648,,,,,,,,,,,,,,,,,U,167,star,1,0,,3,,,,,,,,,,,,,,switch,letter,lettSwt,f,vtsPrac,29,0,29,0,1,1.5737,,,,,,,,,,,,,,,,,,,,,,,
296086,2022-12-04_20h51.22.540,vts_reward_expectancy_bt,2022.2.4,Linux x86_64,60.04924038,Chrome,1366,768,,,,,0,648,,,,,,,,,,,,,,,,,W,181,star,1,0,,3,,,,,,,,,,,,,,switch,number,numSwt,k,vtsPrac,30,0,30,0,1,1.4977,,,,,,,,,,,,,,,,,,,,,,,
296086,2022-12-04_20h51.22.540,vts_reward_expectancy_bt,2022.2.4,Linux x86_64,60.04924038,Chrome,1366,768,,,,,0,648,,,,,,,,,,,,,,,,,Y,160,hexagon,1,0,,3,,,,,,,,,,,,,,repeat,number,numRpt,k,vtsPrac,31,0,31,0,1,1.8221,,,,,,,,,,,,,,,,,,,,,,,
296086,2022-12-04_20h51.22.540,vts_reward_expectancy_bt,2022.2.4,Linux x86_64,60.04924038,Chrome,1366,768,,,,,,,,,,,,,,,,,,,,,,,,,,,,,,,,,,,,,,,,,,,,,,,,,,,,,,,,,,,,,,,,,,,,,,,,,,,,
296086,2022-12-04_20h51.22.540,vts_reward_expectancy_bt,2022.2.4,Linux x86_64,60.04924038,Chrome,1366,768,,,,,,,,,,,,,,,,,,,,,,,,,,,,,,,,,,,,,,,,,,,,,,,,,,,,,,,,,,,,,,,,,,,,,,,,,,,,
296086,2022-12-04_20h51.22.540,vts_reward_expectancy_bt,2022.2.4,Linux x86_64,60.04924038,Chrome,1366,768,,,,,0,648,,,,,,,,,,,,,,,,,S,160,circle,1,0,,,,,,,,,,,,,,,,switch,letter,lettSwt,f,noRew,,,,,,1.8761,0,0,0,0,0,1,,,,,,,,,,,,,,,,,
296086,2022-12-04_20h51.22.540,vts_reward_expectancy_bt,2022.2.4,Linux x86_64,60.04924038,Chrome,1366,768,,,,,0,648,,,,,,,,,,,,,,,,,W,167,star,1,0,,,,,,,,,,,,,,,,switch,number,numSwt,k,noRew,,,,,,1.1639,0,1,0,1,0,1,,,,,,,,,,,,,,,,,
296086,2022-12-04_20h51.22.540,vts_reward_expectancy_bt,2022.2.4,Linux x86_64,60.04924038,Chrome,1366,768,,,,,0,648,,,,,,,,,,,,,,,,,H,125,circle,-1,0,,,,,,,,,,,,,,,,switch,no_choice,NA,,noRew,,,,,,,0,2,0,2,0,1,,,,,,,,,,,,,,,,,
296086,2022-12-04_20h51.22.540,vts_reward_expectancy_bt,2022.2.4,Linux x86_64,60.04924038,Chrome,1366,768,,,,,0,648,,,,,,,,,,,,,,,,,F,139,star,1,0,,,,,,,,,,,,,,,,switch,number,numSwt,j,noRew,,,,,,1.4192,0,3,0,3,0,1,,,,,,,,,,,,,,,,,
296086,2022-12-04_20h51.22.540,vts_reward_expectancy_bt,2022.2.4,Linux x86_64,60.04924038,Chrome,1366,768,,,,,0,648,,,,,,,,,,,,,,,,,S,160,triangle,1,0,,,,,,,,,,,,,,,,switch,letter,lettSwt,f,noRew,,,,,,1.0645,0,4,0,4,0,1,,,,,,,,,,,,,,,,,
296086,2022-12-04_20h51.22.540,vts_reward_expectancy_bt,2022.2.4,Linux x86_64,60.04924038,Chrome,1366,768,,,,,0,648,,,,,,,,,,,,,,,,,W,167,star,1,0,,,,,,,,,,,,,,,,repeat,letter,lettRpt,f,noRew,,,,,,0.9308,0,5,0,5,0,1,,,,,,,,,,,,,,,,,
296086,2022-12-04_20h51.22.540,vts_reward_expectancy_bt,2022.2.4,Linux x86_64,60.04924038,Chrome,1366,768,,,,,0,648,,,,,,,,,,,,,,,,,H,125,triangle,1,0,,,,,,,,,,,,,,,,switch,number,numSwt,j,noRew,,,,,,1.4464,0,6,0,6,0,1,,,,,,,,,,,,,,,,,
296086,2022-12-04_20h51.22.540,vts_reward_expectancy_bt,2022.2.4,Linux x86_64,60.04924038,Chrome,1366,768,,,,,0,648,,,,,,,,,,,,,,,,,F,139,star,1,0,,,,,,,,,,,,,,,,switch,letter,lettSwt,d,noRew,,,,,,1.4146,0,7,0,7,0,1,,,,,,,,,,,,,,,,,
296086,2022-12-04_20h51.22.540,vts_reward_expectancy_bt,2022.2.4,Linux x86_64,60.04924038,Chrome,1366,768,,,,,0,648,,,,,,,,,,,,,,,,,H,125,triangle,1,0,,,,,,,,,,,,,,,,switch,number,numSwt,j,noRew,,,,,,1.7648,0,8,0,8,0,1,,,,,,,,,,,,,,,,,
296086,2022-12-04_20h51.22.540,vts_reward_expectancy_bt,2022.2.4,Linux x86_64,60.04924038,Chrome,1366,768,,,,,0,648,,,,,,,,,,,,,,,,,U,146,star,1,0,,,,,,,,,,,,,,,,switch,letter,lettSwt,f,noRew,,,,,,2.7809,0,9,0,9,0,1,,,,,,,,,,,,,,,,,
296086,2022-12-04_20h51.22.540,vts_reward_expectancy_bt,2022.2.4,Linux x86_64,60.04924038,Chrome,1366,768,,,,,0,648,,,,,,,,,,,,,,,,,D,160,hexagon,1,0,,,,,,,,,,,,,,,,switch,number,numSwt,k,noRew,,,,,,1.6481,0,10,0,10,0,1,,,,,,,,,,,,,,,,,
296086,2022-12-04_20h51.22.540,vts_reward_expectancy_bt,2022.2.4,Linux x86_64,60.04924038,Chrome,1366,768,,,,,0,648,,,,,,,,,,,,,,,,,F,181,circle,1,0,,,,,,,,,,,,,,,,switch,letter,lettSwt,d,noRew,,,,,,1.0141,0,11,0,11,0,1,,,,,,,,,,,,,,,,,
296086,2022-12-04_20h51.22.540,vts_reward_expectancy_bt,2022.2.4,Linux x86_64,60.04924038,Chrome,1366,768,,,,,0,648,,,,,,,,,,,,,,,,,H,125,hexagon,1,0,,,,,,,,,,,,,,,,repeat,letter,lettRpt,d,noRew,,,,,,1.0212,0,12,0,12,0,1,,,,,,,,,,,,,,,,,
296086,2022-12-04_20h51.22.540,vts_reward_expectancy_bt,2022.2.4,Linux x86_64,60.04924038,Chrome,1366,768,,,,,0,648,,,,,,,,,,,,,,,,,B,174,triangle,1,0,,,,,,,,,,,,,,,,switch,number,numSwt,k,noRew,,,,,,1.3968,0,13,0,13,0,1,,,,,,,,,,,,,,,,,
296086,2022-12-04_20h51.22.540,vts_reward_expectancy_bt,2022.2.4,Linux x86_64,60.04924038,Chrome,1366,768,,,,,0,648,,,,,,,,,,,,,,,,,Y,139,triangle,1,0,,,,,,,,,,,,,,,,repeat,number,numRpt,j,noRew,,,,,,2.2182,0,14,0,14,0,1,,,,,,,,,,,,,,,,,
296086,2022-12-04_20h51.22.540,vts_reward_expectancy_bt,2022.2.4,Linux x86_64,60.04924038,Chrome,1366,768,,,,,0,648,,,,,,,,,,,,,,,,,U,132,circle,1,0,,,,,,,,,,,,,,,,switch,letter,lettSwt,f,noRew,,,,,,1.5066,0,15,0,15,0,1,,,,,,,,,,,,,,,,,
296086,2022-12-04_20h51.22.540,vts_reward_expectancy_bt,2022.2.4,Linux x86_64,60.04924038,Chrome,1366,768,,,,,0,648,,,,,,,,,,,,,,,,,H,125,star,1,0,,,,,,,,,,,,,,,,repeat,letter,lettRpt,d,noRew,,,,,,1.6669,0,16,0,16,0,1,,,,,,,,,,,,,,,,,
296086,2022-12-04_20h51.22.540,vts_reward_expectancy_bt,2022.2.4,Linux x86_64,60.04924038,Chrome,1366,768,,,,,0,648,,,,,,,,,,,,,,,,,S,167,triangle,1,0,,,,,,,,,,,,,,,,switch,number,numSwt,k,noRew,,,,,,0.9647,0,17,0,17,0,1,,,,,,,,,,,,,,,,,
296086,2022-12-04_20h51.22.540,vts_reward_expectancy_bt,2022.2.4,Linux x86_64,60.04924038,Chrome,1366,768,,,,,0,648,,,,,,,,,,,,,,,,,D,146,circle,1,0,,,,,,,,,,,,,,,,repeat,number,numRpt,j,noRew,,,,,,0.9387,0,18,0,18,0,1,,,,,,,,,,,,,,,,,
296086,2022-12-04_20h51.22.540,vts_reward_expectancy_bt,2022.2.4,Linux x86_64,60.04924038,Chrome,1366,768,,,,,0,648,,,,,,,,,,,,,,,,,B,139,triangle,1,0,,,,,,,,,,,,,,,,repeat,number,numRpt,j,noRew,,,,,,1.0013,0,19,0,19,0,1,,,,,,,,,,,,,,,,,
296086,2022-12-04_20h51.22.540,vts_reward_expectancy_bt,2022.2.4,Linux x86_64,60.04924038,Chrome,1366,768,,,,,0,648,,,,,,,,,,,,,,,,,D,139,hexagon,1,0,,,,,,,,,,,,,,,,switch,letter,lettSwt,d,noRew,,,,,,1.4808,0,20,0,20,0,1,,,,,,,,,,,,,,,,,
296086,2022-12-04_20h51.22.540,vts_reward_expectancy_bt,2022.2.4,Linux x86_64,60.04924038,Chrome,1366,768,,,,,0,648,,,,,,,,,,,,,,,,,W,174,circle,1,0,,,,,,,,,,,,,,,,repeat,letter,lettRpt,f,noRew,,,,,,0.9523,0,21,0,21,0,1,,,,,,,,,,,,,,,,,
296086,2022-12-04_20h51.22.540,vts_reward_expectancy_bt,2022.2.4,Linux x86_64,60.04924038,Chrome,1366,768,,,,,0,648,,,,,,,,,,,,,,,,,B,146,triangle,1,0,,,,,,,,,,,,,,,,repeat,letter,lettRpt,d,noRew,,,,,,1.0474,0,22,0,22,0,1,,,,,,,,,,,,,,,,,
296086,2022-12-04_20h51.22.540,vts_reward_expectancy_bt,2022.2.4,Linux x86_64,60.04924038,Chrome,1366,768,,,,,0,648,,,,,,,,,,,,,,,,,U,167,star,1,0,,,,,,,,,,,,,,,,switch,number,numSwt,k,noRew,,,,,,1.5166,0,23,0,23,0,1,,,,,,,,,,,,,,,,,
296086,2022-12-04_20h51.22.540,vts_reward_expectancy_bt,2022.2.4,Linux x86_64,60.04924038,Chrome,1366,768,,,,,0,648,,,,,,,,,,,,,,,,,Y,139,circle,1,0,,,,,,,,,,,,,,,,repeat,number,numRpt,j,noRew,,,,,,1.3267,0,24,0,24,0,1,,,,,,,,,,,,,,,,,
296086,2022-12-04_20h51.22.540,vts_reward_expectancy_bt,2022.2.4,Linux x86_64,60.04924038,Chrome,1366,768,,,,,0,648,,,,,,,,,,,,,,,,,S,181,star,1,0,,,,,,,,,,,,,,,,switch,letter,lettSwt,f,noRew,,,,,,1.4687,0,25,0,25,0,1,,,,,,,,,,,,,,,,,
296086,2022-12-04_20h51.22.540,vts_reward_expectancy_bt,2022.2.4,Linux x86_64,60.04924038,Chrome,1366,768,,,,,0,648,,,,,,,,,,,,,,,,,F,125,hexagon,1,0,,,,,,,,,,,,,,,,repeat,letter,lettRpt,d,noRew,,,,,,1.1187,0,26,0,26,0,1,,,,,,,,,,,,,,,,,
296086,2022-12-04_20h51.22.540,vts_reward_expectancy_bt,2022.2.4,Linux x86_64,60.04924038,Chrome,1366,768,,,,,0,648,,,,,,,,,,,,,,,,,D,167,star,1,0,,,,,,,,,,,,,,,,repeat,letter,lettRpt,d,noRew,,,,,,1.7626,0,27,0,27,0,1,,,,,,,,,,,,,,,,,
296086,2022-12-04_20h51.22.540,vts_reward_expectancy_bt,2022.2.4,Linux x86_64,60.04924038,Chrome,1366,768,,,,,0,648,,,,,,,,,,,,,,,,,W,132,hexagon,1,0,,,,,,,,,,,,,,,,repeat,letter,lettRpt,f,noRew,,,,,,0.9873,0,28,0,28,0,1,,,,,,,,,,,,,,,,,
296086,2022-12-04_20h51.22.540,vts_reward_expectancy_bt,2022.2.4,Linux x86_64,60.04924038,Chrome,1366,768,,,,,0,648,,,,,,,,,,,,,,,,,H,167,triangle,1,0,,,,,,,,,,,,,,,,switch,number,numSwt,k,noRew,,,,,,0.8014,0,29,0,29,0,1,,,,,,,,,,,,,,,,,
296086,2022-12-04_20h51.22.540,vts_reward_expectancy_bt,2022.2.4,Linux x86_64,60.04924038,Chrome,1366,768,,,,,0,648,,,,,,,,,,,,,,,,,Y,160,hexagon,1,0,,,,,,,,,,,,,,,,repeat,number,numRpt,k,noRew,,,,,,1.3643,0,30,0,30,0,1,,,,,,,,,,,,,,,,,
296086,2022-12-04_20h51.22.540,vts_reward_expectancy_bt,2022.2.4,Linux x86_64,60.04924038,Chrome,1366,768,,,,,0,648,,,,,,,,,,,,,,,,,S,139,triangle,1,0,,,,,,,,,,,,,,,,switch,letter,lettSwt,f,noRew,,,,,,1.1649,0,31,0,31,0,1,,,,,,,,,,,,,,,,,
296086,2022-12-04_20h51.22.540,vts_reward_expectancy_bt,2022.2.4,Linux x86_64,60.04924038,Chrome,1366,768,,,,,0,648,,,,,,,,,,,,,,,,,D,132,hexagon,1,0,,,,,,,,,,,,,,,,switch,number,numSwt,j,noRew,,,,,,1.1037,0,32,0,32,0,1,,,,,,,,,,,,,,,,,
296086,2022-12-04_20h51.22.540,vts_reward_expectancy_bt,2022.2.4,Linux x86_64,60.04924038,Chrome,1366,768,,,,,0,648,,,,,,,,,,,,,,,,,B,125,star,1,0,,,,,,,,,,,,,,,,switch,letter,lettSwt,d,noRew,,,,,,0.9718,0,33,0,33,0,1,,,,,,,,,,,,,,,,,
296086,2022-12-04_20h51.22.540,vts_reward_expectancy_bt,2022.2.4,Linux x86_64,60.04924038,Chrome,1366,768,,,,,0,648,,,,,,,,,,,,,,,,,U,174,triangle,1,0,,,,,,,,,,,,,,,,switch,number,numSwt,k,noRew,,,,,,1.1973,0,34,0,34,0,1,,,,,,,,,,,,,,,,,
296086,2022-12-04_20h51.22.540,vts_reward_expectancy_bt,2022.2.4,Linux x86_64,60.04924038,Chrome,1366,768,,,,,0,648,,,,,,,,,,,,,,,,,W,181,circle,1,0,,,,,,,,,,,,,,,,repeat,number,numRpt,k,noRew,,,,,,1.0451,0,35,0,35,0,1,,,,,,,,,,,,,,,,,
296086,2022-12-04_20h51.22.540,vts_reward_expectancy_bt,2022.2.4,Linux x86_64,60.04924038,Chrome,1366,768,,,,,0,648,,,,,,,,,,,,,,,,,F,167,star,1,0,,,,,,,,,,,,,,,,switch,letter,lettSwt,d,noRew,,,,,,1.5871,0,36,0,36,0,1,,,,,,,,,,,,,,,,,
296086,2022-12-04_20h51.22.540,vts_reward_expectancy_bt,2022.2.4,Linux x86_64,60.04924038,Chrome,1366,768,,,,,0,648,,,,,,,,,,,,,,,,,B,160,circle,1,0,,,,,,,,,,,,,,,,switch,number,numSwt,k,noRew,,,,,,0.8816,0,37,0,37,0,1,,,,,,,,,,,,,,,,,
296086,2022-12-04_20h51.22.540,vts_reward_expectancy_bt,2022.2.4,Linux x86_64,60.04924038,Chrome,1366,768,,,,,0,648,,,,,,,,,,,,,,,,,Y,125,circle,1,0,,,,,,,,,,,,,,,,switch,letter,lettSwt,f,noRew,,,,,,1.5478,0,38,0,38,0,1,,,,,,,,,,,,,,,,,
296086,2022-12-04_20h51.22.540,vts_reward_expectancy_bt,2022.2.4,Linux x86_64,60.04924038,Chrome,1366,768,,,,,0,648,,,,,,,,,,,,,,,,,H,181,hexagon,1,0,,,,,,,,,,,,,,,,switch,number,numSwt,k,noRew,,,,,,1.4887,0,39,0,39,0,1,,,,,,,,,,,,,,,,,
296086,2022-12-04_20h51.22.540,vts_reward_expectancy_bt,2022.2.4,Linux x86_64,60.04924038,Chrome,1366,768,,,,,0,648,,,,,,,,,,,,,,,,,S,181,hexagon,1,0,,,,,,,,,,,,,,,,repeat,number,numRpt,k,noRew,,,,,,1.0319,0,40,0,40,0,1,,,,,,,,,,,,,,,,,
296086,2022-12-04_20h51.22.540,vts_reward_expectancy_bt,2022.2.4,Linux x86_64,60.04924038,Chrome,1366,768,,,,,0,648,,,,,,,,,,,,,,,,,U,139,circle,1,0,,,,,,,,,,,,,,,,repeat,number,numRpt,j,noRew,,,,,,1.0188,0,41,0,41,0,1,,,,,,,,,,,,,,,,,
296086,2022-12-04_20h51.22.540,vts_reward_expectancy_bt,2022.2.4,Linux x86_64,60.04924038,Chrome,1366,768,,,,,0,648,,,,,,,,,,,,,,,,,F,160,star,1,0,,,,,,,,,,,,,,,,switch,letter,lettSwt,d,noRew,,,,,,1.9194,0,42,0,42,0,1,,,,,,,,,,,,,,,,,
296086,2022-12-04_20h51.22.540,vts_reward_expectancy_bt,2022.2.4,Linux x86_64,60.04924038,Chrome,1366,768,,,,,0,648,,,,,,,,,,,,,,,,,B,167,circle,1,0,,,,,,,,,,,,,,,,repeat,letter,lettRpt,d,noRew,,,,,,0.9833,0,43,0,43,0,1,,,,,,,,,,,,,,,,,
296086,2022-12-04_20h51.22.540,vts_reward_expectancy_bt,2022.2.4,Linux x86_64,60.04924038,Chrome,1366,768,,,,,0,648,,,,,,,,,,,,,,,,,B,125,triangle,1,0,,,,,,,,,,,,,,,,switch,number,numSwt,j,noRew,,,,,,0.8873,0,44,0,44,0,1,,,,,,,,,,,,,,,,,
296086,2022-12-04_20h51.22.540,vts_reward_expectancy_bt,2022.2.4,Linux x86_64,60.04924038,Chrome,1366,768,,,,,0,648,,,,,,,,,,,,,,,,,Y,146,hexagon,1,0,,,,,,,,,,,,,,,,switch,letter,lettSwt,f,noRew,,,,,,1.2849,0,45,0,45,0,1,,,,,,,,,,,,,,,,,
296086,2022-12-04_20h51.22.540,vts_reward_expectancy_bt,2022.2.4,Linux x86_64,60.04924038,Chrome,1366,768,,,,,0,648,,,,,,,,,,,,,,,,,H,167,star,1,0,,,,,,,,,,,,,,,,switch,number,numSwt,k,noRew,,,,,,1.0407,0,46,0,46,0,1,,,,,,,,,,,,,,,,,
296086,2022-12-04_20h51.22.540,vts_reward_expectancy_bt,2022.2.4,Linux x86_64,60.04924038,Chrome,1366,768,,,,,0,648,,,,,,,,,,,,,,,,,F,181,triangle,1,0,,,,,,,,,,,,,,,,switch,letter,lettSwt,d,noRew,,,,,,1.0857,0,47,0,47,0,1,,,,,,,,,,,,,,,,,
296086,2022-12-04_20h51.22.540,vts_reward_expectancy_bt,2022.2.4,Linux x86_64,60.04924038,Chrome,1366,768,,,,,0,648,,,,,,,,,,,,,,,,,D,160,circle,1,0,,,,,,,,,,,,,,,,repeat,letter,lettRpt,d,noRew,,,,,,1.404,0,48,0,48,0,1,,,,,,,,,,,,,,,,,
296086,2022-12-04_20h51.22.540,vts_reward_expectancy_bt,2022.2.4,Linux x86_64,60.04924038,Chrome,1366,768,,,,,0,648,,,,,,,,,,,,,,,,,W,132,star,1,0,,,,,,,,,,,,,,,,repeat,letter,lettRpt,f,noRew,,,,,,2.4967,0,49,0,49,0,1,,,,,,,,,,,,,,,,,
296086,2022-12-04_20h51.22.540,vts_reward_expectancy_bt,2022.2.4,Linux x86_64,60.04924038,Chrome,1366,768,,,,,0,648,,,,,,,,,,,,,,,,,Y,167,circle,1,0,,,,,,,,,,,,,,,,switch,number,numSwt,k,noRew,,,,,,1.0056,0,50,0,50,0,1,,,,,,,,,,,,,,,,,
296086,2022-12-04_20h51.22.540,vts_reward_expectancy_bt,2022.2.4,Linux x86_64,60.04924038,Chrome,1366,768,,,,,0,648,,,,,,,,,,,,,,,,,S,181,triangle,1,0,,,,,,,,,,,,,,,,repeat,number,numRpt,k,noRew,,,,,,1.5833,0,51,0,51,0,1,,,,,,,,,,,,,,,,,
296086,2022-12-04_20h51.22.540,vts_reward_expectancy_bt,2022.2.4,Linux x86_64,60.04924038,Chrome,1366,768,,,,,0,648,,,,,,,,,,,,,,,,,H,167,circle,1,0,,,,,,,,,,,,,,,,repeat,number,numRpt,k,noRew,,,,,,0.8183,0,52,0,52,0,1,,,,,,,,,,,,,,,,,
296086,2022-12-04_20h51.22.540,vts_reward_expectancy_bt,2022.2.4,Linux x86_64,60.04924038,Chrome,1366,768,,,,,0,648,,,,,,,,,,,,,,,,,F,160,hexagon,1,0,,,,,,,,,,,,,,,,switch,letter,lettSwt,d,noRew,,,,,,1.031,0,53,0,53,0,1,,,,,,,,,,,,,,,,,
296086,2022-12-04_20h51.22.540,vts_reward_expectancy_bt,2022.2.4,Linux x86_64,60.04924038,Chrome,1366,768,,,,,0,648,,,,,,,,,,,,,,,,,B,125,triangle,1,0,,,,,,,,,,,,,,,,switch,number,numSwt,j,noRew,,,,,,1.3975,0,54,0,54,0,1,,,,,,,,,,,,,,,,,
296086,2022-12-04_20h51.22.540,vts_reward_expectancy_bt,2022.2.4,Linux x86_64,60.04924038,Chrome,1366,768,,,,,0,648,,,,,,,,,,,,,,,,,Y,181,hexagon,1,0,,,,,,,,,,,,,,,,switch,letter,lettSwt,f,noRew,,,,,,1.3544,0,55,0,55,0,1,,,,,,,,,,,,,,,,,
296086,2022-12-04_20h51.22.540,vts_reward_expectancy_bt,2022.2.4,Linux x86_64,60.04924038,Chrome,1366,768,,,,,0,648,,,,,,,,,,,,,,,,,Y,125,star,1,0,,,,,,,,,,,,,,,,switch,number,numSwt,j,noRew,,,,,,0.7762,0,56,0,56,0,1,,,,,,,,,,,,,,,,,
296086,2022-12-04_20h51.22.540,vts_reward_expectancy_bt,2022.2.4,Linux x86_64,60.04924038,Chrome,1366,768,,,,,0,648,,,,,,,,,,,,,,,,,B,132,triangle,1,0,,,,,,,,,,,,,,,,repeat,number,numRpt,j,noRew,,,,,,0.863,0,57,0,57,0,1,,,,,,,,,,,,,,,,,
296086,2022-12-04_20h51.22.540,vts_reward_expectancy_bt,2022.2.4,Linux x86_64,60.04924038,Chrome,1366,768,,,,,0,648,,,,,,,,,,,,,,,,,D,146,hexagon,1,0,,,,,,,,,,,,,,,,repeat,number,numRpt,j,noRew,,,,,,0.6486,0,58,0,58,0,1,,,,,,,,,,,,,,,,,
296086,2022-12-04_20h51.22.540,vts_reward_expectancy_bt,2022.2.4,Linux x86_64,60.04924038,Chrome,1366,768,,,,,0,648,,,,,,,,,,,,,,,,,H,181,star,1,0,,,,,,,,,,,,,,,,repeat,number,numRpt,k,noRew,,,,,,1.5297,0,59,0,59,0,1,,,,,,,,,,,,,,,,,
296086,2022-12-04_20h51.22.540,vts_reward_expectancy_bt,2022.2.4,Linux x86_64,60.04924038,Chrome,1366,768,,,,,0,648,,,,,,,,,,,,,,,,,H,174,hexagon,1,0,,,,,,,,,,,,,,,,switch,letter,lettSwt,d,noRew,,,,,,0.7986,0,60,0,60,0,1,,,,,,,,,,,,,,,,,
296086,2022-12-04_20h51.22.540,vts_reward_expectancy_bt,2022.2.4,Linux x86_64,60.04924038,Chrome,1366,768,,,,,0,648,,,,,,,,,,,,,,,,,B,132,star,1,0,,,,,,,,,,,,,,,,repeat,letter,lettRpt,d,noRew,,,,,,0.8496,0,61,0,61,0,1,,,,,,,,,,,,,,,,,
296086,2022-12-04_20h51.22.540,vts_reward_expectancy_bt,2022.2.4,Linux x86_64,60.04924038,Chrome,1366,768,,,,,0,648,,,,,,,,,,,,,,,,,Y,139,hexagon,1,0,,,,,,,,,,,,,,,,repeat,letter,lettRpt,f,noRew,,,,,,1.2038,0,62,0,62,0,1,,,,,,,,,,,,,,,,,
296086,2022-12-04_20h51.22.540,vts_reward_expectancy_bt,2022.2.4,Linux x86_64,60.04924038,Chrome,1366,768,,,,,0,648,,,,,,,,,,,,,,,,,F,181,triangle,1,0,,,,,,,,,,,,,,,,repeat,letter,lettRpt,d,noRew,,,,,,1.3145,0,63,0,63,0,1,,,,,,,,,,,,,,,,,
296086,2022-12-04_20h51.22.540,vts_reward_expectancy_bt,2022.2.4,Linux x86_64,60.04924038,Chrome,1366,768,,,,,,,,,,,,,,,,,,,,,,,,,,,,,,,,,,,,,,,,,,,,,,,,,,,,,,,,,,,,,,,,,,,,,,,,,,,,
296086,2022-12-04_20h51.22.540,vts_reward_expectancy_bt,2022.2.4,Linux x86_64,60.04924038,Chrome,1366,768,,,,,0,648,,,,,,,,,,,,,,,,,Y,174,circle,0,0,,,,,,,,,,,,,,,,switch,number,NA,j,noRew,,,,,,0.458,0,,,,,,space,30.1939,low,0,0,0,0,1,,,,,,,,,
296086,2022-12-04_20h51.22.540,vts_reward_expectancy_bt,2022.2.4,Linux x86_64,60.04924038,Chrome,1366,768,,,,,1,649,,,,,,,,,,,,,,,,,W,132,hexagon,1,1,,,,,,,,,,,,,,,,switch,letter,lettSwt,f,Lo,,,,,,0.8374,0,,,,,,,,low,1,0,1,0,1,,,,,,,,,
296086,2022-12-04_20h51.22.540,vts_reward_expectancy_bt,2022.2.4,Linux x86_64,60.04924038,Chrome,1366,768,,,,,0,649,,,,,,,,,,,,,,,,,D,146,triangle,0,0,,,,,,,,,,,,,,,,switch,number,NA,k,Lo,,,,,,0.8765,0,,,,,,,,low,2,0,2,0,1,,,,,,,,,
296086,2022-12-04_20h51.22.540,vts_reward_expectancy_bt,2022.2.4,Linux x86_64,60.04924038,Chrome,1366,768,,,,,1,650,,,,,,,,,,,,,,,,,U,125,star,1,1,,,,,,,,,,,,,,,,switch,letter,lettSwt,f,Hi,,,,,,0.8827,0,,,,,,,,low,3,0,3,0,1,,,,,,,,,
296086,2022-12-04_20h51.22.540,vts_reward_expectancy_bt,2022.2.4,Linux x86_64,60.04924038,Chrome,1366,768,,,,,10,660,,,,,,,,,,,,,,,,,F,181,circle,1,0,,,,,,,,,,,,,,,,switch,number,numSwt,k,Lo,,,,,,1.586,0,,,,,,,,low,4,0,4,0,1,,,,,,,,,
296086,2022-12-04_20h51.22.540,vts_reward_expectancy_bt,2022.2.4,Linux x86_64,60.04924038,Chrome,1366,768,,,,,1,661,,,,,,,,,,,,,,,,,S,167,hexagon,1,0,,,,,,,,,,,,,,,,switch,letter,lettSwt,f,Lo,,,,,,2.1998,0,,,,,,,,low,5,0,5,0,1,,,,,,,,,
296086,2022-12-04_20h51.22.540,vts_reward_expectancy_bt,2022.2.4,Linux x86_64,60.04924038,Chrome,1366,768,,,,,0,661,,,,,,,,,,,,,,,,,H,139,triangle,1,0,,,,,,,,,,,,,,,,repeat,letter,lettRpt,d,Hi,,,,,,1.8201,0,,,,,,,,low,6,0,6,0,1,,,,,,,,,
296086,2022-12-04_20h51.22.540,vts_reward_expectancy_bt,2022.2.4,Linux x86_64,60.04924038,Chrome,1366,768,,,,,0,661,,,,,,,,,,,,,,,,,B,160,star,-1,0,,,,,,,,,,,,,,,,switch,no_choice,NA,,Hi,,,,,,,0,,,,,,,,low,7,0,7,0,1,,,,,,,,,
296086,2022-12-04_20h51.22.540,vts_reward_expectancy_bt,2022.2.4,Linux x86_64,60.04924038,Chrome,1366,768,,,,,0,661,,,,,,,,,,,,,,,,,Y,174,triangle,1,0,,,,,,,,,,,,,,,,switch,number,numSwt,k,Hi,,,,,,1.7633,0,,,,,,,,low,8,0,8,0,1,,,,,,,,,
296086,2022-12-04_20h51.22.540,vts_reward_expectancy_bt,2022.2.4,Linux x86_64,60.04924038,Chrome,1366,768,,,,,1,662,,,,,,,,,,,,,,,,,W,132,star,1,0,,,,,,,,,,,,,,,,repeat,number,numRpt,j,Hi,,,,,,0.6224,0,,,,,,,,low,9,0,9,0,1,,,,,,,,,
296086,2022-12-04_20h51.22.540,vts_reward_expectancy_bt,2022.2.4,Linux x86_64,60.04924038,Chrome,1366,768,,,,,1,663,,,,,,,,,,,,,,,,,D,146,hexagon,1,0,,,,,,,,,,,,,,,,repeat,number,numRpt,j,Lo,,,,,,0.6861,0,,,,,,,,low,10,0,10,0,1,,,,,,,,,
296086,2022-12-04_20h51.22.540,vts_reward_expectancy_bt,2022.2.4,Linux x86_64,60.04924038,Chrome,1366,768,,,,,10,673,,,,,,,,,,,,,,,,,U,125,circle,1,0,,,,,,,,,,,,,,,,repeat,number,numRpt,j,Lo,,,,,,0.6376,0,,,,,,,,low,11,0,11,0,1,,,,,,,,,
296086,2022-12-04_20h51.22.540,vts_reward_expectancy_bt,2022.2.4,Linux x86_64,60.04924038,Chrome,1366,768,,,,,10,683,,,,,,,,,,,,,,,,,F,181,star,1,0,,,,,,,,,,,,,,,,repeat,number,numRpt,k,Hi,,,,,,0.755,0,,,,,,,,low,12,0,12,0,1,,,,,,,,,
296086,2022-12-04_20h51.22.540,vts_reward_expectancy_bt,2022.2.4,Linux x86_64,60.04924038,Chrome,1366,768,,,,,10,693,,,,,,,,,,,,,,,,,S,167,hexagon,1,0,,,,,,,,,,,,,,,,repeat,number,numRpt,k,Lo,,,,,,0.9312,0,,,,,,,,low,13,0,13,0,1,,,,,,,,,
296086,2022-12-04_20h51.22.540,vts_reward_expectancy_bt,2022.2.4,Linux x86_64,60.04924038,Chrome,1366,768,,,,,10,703,,,,,,,,,,,,,,,,,H,139,triangle,1,0,,,,,,,,,,,,,,,,repeat,number,numRpt,j,Hi,,,,,,0.865,0,,,,,,,,low,14,0,14,0,1,,,,,,,,,
296086,2022-12-04_20h51.22.540,vts_reward_expectancy_bt,2022.2.4,Linux x86_64,60.04924038,Chrome,1366,768,,,,,10,713,,,,,,,,,,,,,,,,,B,160,circle,1,0,,,,,,,,,,,,,,,,repeat,number,numRpt,k,Lo,,,,,,1.3583,0,,,,,,,,low,15,0,15,0,1,,,,,,,,,
296086,2022-12-04_20h51.22.540,vts_reward_expectancy_bt,2022.2.4,Linux x86_64,60.04924038,Chrome,1366,768,,,,,10,723,,,,,,,,,,,,,,,,,B,125,circle,1,0,,,,,,,,,,,,,,,,repeat,number,numRpt,j,Lo,,,,,,0.8369,0,,,,,,,,low,16,0,16,0,1,,,,,,,,,
296086,2022-12-04_20h51.22.540,vts_reward_expectancy_bt,2022.2.4,Linux x86_64,60.04924038,Chrome,1366,768,,,,,10,733,,,,,,,,,,,,,,,,,F,132,triangle,1,0,,,,,,,,,,,,,,,,repeat,number,numRpt,j,Hi,,,,,,0.7296,0,,,,,,,,low,17,0,17,0,1,,,,,,,,,
296086,2022-12-04_20h51.22.540,vts_reward_expectancy_bt,2022.2.4,Linux x86_64,60.04924038,Chrome,1366,768,,,,,0,733,,,,,,,,,,,,,,,,,Y,181,star,1,0,,,,,,,,,,,,,,,,switch,letter,lettSwt,f,Hi,,,,,,1.6872,0,,,,,,,,low,18,0,18,0,1,,,,,,,,,
296086,2022-12-04_20h51.22.540,vts_reward_expectancy_bt,2022.2.4,Linux x86_64,60.04924038,Chrome,1366,768,,,,,1,734,,,,,,,,,,,,,,,,,W,146,hexagon,1,0,,,,,,,,,,,,,,,,repeat,letter,lettRpt,f,Lo,,,,,,0.5357,0,,,,,,,,low,19,0,19,0,1,,,,,,,,,
296086,2022-12-04_20h51.22.540,vts_reward_expectancy_bt,2022.2.4,Linux x86_64,60.04924038,Chrome,1366,768,,,,,1,735,,,,,,,,,,,,,,,,,U,174,circle,1,0,,,,,,,,,,,,,,,,repeat,letter,lettRpt,f,Lo,,,,,,0.7675,0,,,,,,,,low,20,0,20,0,1,,,,,,,,,
296086,2022-12-04_20h51.22.540,vts_reward_expectancy_bt,2022.2.4,Linux x86_64,60.04924038,Chrome,1366,768,,,,,0,735,,,,,,,,,,,,,,,,,H,160,triangle,1,0,,,,,,,,,,,,,,,,repeat,letter,lettRpt,d,Hi,,,,,,1.1387,0,,,,,,,,low,21,0,21,0,1,,,,,,,,,
296086,2022-12-04_20h51.22.540,vts_reward_expectancy_bt,2022.2.4,Linux x86_64,60.04924038,Chrome,1366,768,,,,,0,735,,,,,,,,,,,,,,,,,S,167,star,1,0,,,,,,,,,,,,,,,,repeat,letter,lettRpt,f,Hi,,,,,,1.5922,0,,,,,,,,low,22,0,22,0,1,,,,,,,,,
296086,2022-12-04_20h51.22.540,vts_reward_expectancy_bt,2022.2.4,Linux x86_64,60.04924038,Chrome,1366,768,,,,,1,736,,,,,,,,,,,,,,,,,D,139,hexagon,1,0,,,,,,,,,,,,,,,,repeat,letter,lettRpt,d,Lo,,,,,,0.801,0,,,,,,,,low,23,0,23,0,1,,,,,,,,,
296086,2022-12-04_20h51.22.540,vts_reward_expectancy_bt,2022.2.4,Linux x86_64,60.04924038,Chrome,1366,768,,,,,10,746,,,,,,,,,,,,,,,,,H,160,triangle,1,0,,,,,,,,,,,,,,,,repeat,letter,lettRpt,d,Hi,,,,,,0.786,0,,,,,,,,low,24,0,24,0,1,,,,,,,,,
296086,2022-12-04_20h51.22.540,vts_reward_expectancy_bt,2022.2.4,Linux x86_64,60.04924038,Chrome,1366,768,,,,,1,747,,,,,,,,,,,,,,,,,W,139,star,1,0,,,,,,,,,,,,,,,,repeat,letter,lettRpt,f,Hi,,,,,,0.6678,0,,,,,,,,low,25,0,25,0,1,,,,,,,,,
296086,2022-12-04_20h51.22.540,vts_reward_expectancy_bt,2022.2.4,Linux x86_64,60.04924038,Chrome,1366,768,,,,,1,748,,,,,,,,,,,,,,,,,B,167,hexagon,1,0,,,,,,,,,,,,,,,,repeat,letter,lettRpt,d,Lo,,,,,,0.7037,0,,,,,,,,low,26,0,26,0,1,,,,,,,,,
296086,2022-12-04_20h51.22.540,vts_reward_expectancy_bt,2022.2.4,Linux x86_64,60.04924038,Chrome,1366,768,,,,,1,749,,,,,,,,,,,,,,,,,S,132,circle,1,0,,,,,,,,,,,,,,,,repeat,letter,lettRpt,f,Lo,,,,,,0.8055,0,,,,,,,,low,27,0,27,0,1,,,,,,,,,
296086,2022-12-04_20h51.22.540,vts_reward_expectancy_bt,2022.2.4,Linux x86_64,60.04924038,Chrome,1366,768,,,,,10,759,,,,,,,,,,,,,,,,,U,174,star,1,0,,,,,,,,,,,,,,,,repeat,letter,lettRpt,f,Hi,,,,,,0.7496,0,,,,,,,,low,28,0,28,0,1,,,,,,,,,
296086,2022-12-04_20h51.22.540,vts_reward_expectancy_bt,2022.2.4,Linux x86_64,60.04924038,Chrome,1366,768,,,,,10,769,,,,,,,,,,,,,,,,,D,125,triangle,1,0,,,,,,,,,,,,,,,,repeat,letter,lettRpt,d,Hi,,,,,,0.6484,0,,,,,,,,low,29,0,29,0,1,,,,,,,,,
296086,2022-12-04_20h51.22.540,vts_reward_expectancy_bt,2022.2.4,Linux x86_64,60.04924038,Chrome,1366,768,,,,,1,770,,,,,,,,,,,,,,,,,Y,146,hexagon,1,0,,,,,,,,,,,,,,,,repeat,letter,lettRpt,f,Lo,,,,,,1.2147,0,,,,,,,,low,30,0,30,0,1,,,,,,,,,
296086,2022-12-04_20h51.22.540,vts_reward_expectancy_bt,2022.2.4,Linux x86_64,60.04924038,Chrome,1366,768,,,,,1,771,,,,,,,,,,,,,,,,,F,181,circle,1,0,,,,,,,,,,,,,,,,repeat,letter,lettRpt,d,Lo,,,,,,1.0708,0,,,,,,,,low,31,0,31,0,1,,,,,,,,,
296086,2022-12-04_20h51.22.540,vts_reward_expectancy_bt,2022.2.4,Linux x86_64,60.04924038,Chrome,1366,768,,,,,0,771,,,,,,,,,,,,,,,,,Y,139,triangle,1,0,,,,,,,,,,,,,,,,repeat,letter,lettRpt,f,Hi,,,,,,1.322,1,,,,,,space,0.8363,low,0,0,0,0,1,,,,,,,,,
296086,2022-12-04_20h51.22.540,vts_reward_expectancy_bt,2022.2.4,Linux x86_64,60.04924038,Chrome,1366,768,,,,,1,772,,,,,,,,,,,,,,,,,B,132,circle,1,0,,,,,,,,,,,,,,,,repeat,letter,lettRpt,d,Lo,,,,,,1.2062,1,,,,,,,,low,1,0,1,0,1,,,,,,,,,
296086,2022-12-04_20h51.22.540,vts_reward_expectancy_bt,2022.2.4,Linux x86_64,60.04924038,Chrome,1366,768,,,,,0,772,,,,,,,,,,,,,,,,,W,167,star,1,0,,,,,,,,,,,,,,,,repeat,letter,lettRpt,f,Hi,,,,,,0.773,1,,,,,,,,low,2,0,2,0,1,,,,,,,,,
296086,2022-12-04_20h51.22.540,vts_reward_expectancy_bt,2022.2.4,Linux x86_64,60.04924038,Chrome,1366,768,,,,,10,782,,,,,,,,,,,,,,,,,D,174,hexagon,1,0,,,,,,,,,,,,,,,,repeat,letter,lettRpt,d,Lo,,,,,,0.5889,1,,,,,,,,low,3,0,3,0,1,,,,,,,,,
296086,2022-12-04_20h51.22.540,vts_reward_expectancy_bt,2022.2.4,Linux x86_64,60.04924038,Chrome,1366,768,,,,,0,782,,,,,,,,,,,,,,,,,F,125,triangle,0,0,,,,,,,,,,,,,,,,repeat,letter,NA,f,Lo,,,,,,0.4057,1,,,,,,,,low,4,0,4,0,1,,,,,,,,,
296086,2022-12-04_20h51.22.540,vts_reward_expectancy_bt,2022.2.4,Linux x86_64,60.04924038,Chrome,1366,768,,,,,1,783,,,,,,,,,,,,,,,,,H,181,circle,1,1,,,,,,,,,,,,,,,,repeat,letter,lettRpt,d,Lo,,,,,,0.6873,1,,,,,,,,low,5,0,5,0,1,,,,,,,,,
296086,2022-12-04_20h51.22.540,vts_reward_expectancy_bt,2022.2.4,Linux x86_64,60.04924038,Chrome,1366,768,,,,,10,793,,,,,,,,,,,,,,,,,U,146,star,1,0,,,,,,,,,,,,,,,,repeat,letter,lettRpt,f,Hi,,,,,,0.7526,1,,,,,,,,low,6,0,6,0,1,,,,,,,,,
296086,2022-12-04_20h51.22.540,vts_reward_expectancy_bt,2022.2.4,Linux x86_64,60.04924038,Chrome,1366,768,,,,,1,794,,,,,,,,,,,,,,,,,S,160,hexagon,1,0,,,,,,,,,,,,,,,,repeat,letter,lettRpt,f,Lo,,,,,,0.7187,1,,,,,,,,low,7,0,7,0,1,,,,,,,,,
296086,2022-12-04_20h51.22.540,vts_reward_expectancy_bt,2022.2.4,Linux x86_64,60.04924038,Chrome,1366,768,,,,,10,804,,,,,,,,,,,,,,,,,Y,139,triangle,1,0,,,,,,,,,,,,,,,,repeat,letter,lettRpt,f,Hi,,,,,,0.7359,1,,,,,,,,low,8,0,8,0,1,,,,,,,,,
296086,2022-12-04_20h51.22.540,vts_reward_expectancy_bt,2022.2.4,Linux x86_64,60.04924038,Chrome,1366,768,,,,,1,805,,,,,,,,,,,,,,,,,B,132,hexagon,1,0,,,,,,,,,,,,,,,,repeat,letter,lettRpt,d,Lo,,,,,,0.6681,1,,,,,,,,low,9,0,9,0,1,,,,,,,,,
296086,2022-12-04_20h51.22.540,vts_reward_expectancy_bt,2022.2.4,Linux x86_64,60.04924038,Chrome,1366,768,,,,,10,815,,,,,,,,,,,,,,,,,W,167,star,1,0,,,,,,,,,,,,,,,,repeat,letter,lettRpt,f,Hi,,,,,,0.7186,1,,,,,,,,low,10,0,10,0,1,,,,,,,,,
296086,2022-12-04_20h51.22.540,vts_reward_expectancy_bt,2022.2.4,Linux x86_64,60.04924038,Chrome,1366,768,,,,,1,816,,,,,,,,,,,,,,,,,D,174,circle,1,0,,,,,,,,,,,,,,,,repeat,letter,lettRpt,d,Lo,,,,,,0.9017,1,,,,,,,,low,11,0,11,0,1,,,,,,,,,
296086,2022-12-04_20h51.22.540,vts_reward_expectancy_bt,2022.2.4,Linux x86_64,60.04924038,Chrome,1366,768,,,,,0,816,,,,,,,,,,,,,,,,,F,125,triangle,1,0,,,,,,,,,,,,,,,,repeat,letter,lettRpt,d,Hi,,,,,,1.0526,1,,,,,,,,low,12,0,12,0,1,,,,,,,,,
296086,2022-12-04_20h51.22.540,vts_reward_expectancy_bt,2022.2.4,Linux x86_64,60.04924038,Chrome,1366,768,,,,,1,817,,,,,,,,,,,,,,,,,H,181,circle,1,0,,,,,,,,,,,,,,,,repeat,letter,lettRpt,d,Lo,,,,,,0.7363,1,,,,,,,,low,13,0,13,0,1,,,,,,,,,
296086,2022-12-04_20h51.22.540,vts_reward_expectancy_bt,2022.2.4,Linux x86_64,60.04924038,Chrome,1366,768,,,,,0,817,,,,,,,,,,,,,,,,,U,146,star,1,0,,,,,,,,,,,,,,,,repeat,letter,lettRpt,f,Hi,,,,,,0.9205,1,,,,,,,,low,14,0,14,0,1,,,,,,,,,
296086,2022-12-04_20h51.22.540,vts_reward_expectancy_bt,2022.2.4,Linux x86_64,60.04924038,Chrome,1366,768,,,,,0,817,,,,,,,,,,,,,,,,,S,160,hexagon,0,0,,,,,,,,,,,,,,,,repeat,letter,NA,d,Hi,,,,,,0.7367,1,,,,,,,,low,15,0,15,0,1,,,,,,,,,
296086,2022-12-04_20h51.22.540,vts_reward_expectancy_bt,2022.2.4,Linux x86_64,60.04924038,Chrome,1366,768,,,,,0,817,,,,,,,,,,,,,,,,,Y,181,star,1,1,,,,,,,,,,,,,,,,repeat,letter,lettRpt,f,Hi,,,,,,0.8205,1,,,,,,,,low,16,0,16,0,1,,,,,,,,,
296086,2022-12-04_20h51.22.540,vts_reward_expectancy_bt,2022.2.4,Linux x86_64,60.04924038,Chrome,1366,768,,,,,10,827,,,,,,,,,,,,,,,,,B,132,hexagon,1,0,,,,,,,,,,,,,,,,repeat,letter,lettRpt,d,Lo,,,,,,0.7521,1,,,,,,,,low,17,0,17,0,1,,,,,,,,,
296086,2022-12-04_20h51.22.540,vts_reward_expectancy_bt,2022.2.4,Linux x86_64,60.04924038,Chrome,1366,768,,,,,10,837,,,,,,,,,,,,,,,,,S,125,circle,1,0,,,,,,,,,,,,,,,,repeat,letter,lettRpt,f,Lo,,,,,,0.8838,1,,,,,,,,low,18,0,18,0,1,,,,,,,,,
296086,2022-12-04_20h51.22.540,vts_reward_expectancy_bt,2022.2.4,Linux x86_64,60.04924038,Chrome,1366,768,,,,,0,837,,,,,,,,,,,,,,,,,U,167,triangle,1,0,,,,,,,,,,,,,,,,repeat,letter,lettRpt,f,Hi,,,,,,1.5214,1,,,,,,,,low,19,0,19,0,1,,,,,,,,,
296086,2022-12-04_20h51.22.540,vts_reward_expectancy_bt,2022.2.4,Linux x86_64,60.04924038,Chrome,1366,768,,,,,1,838,,,,,,,,,,,,,,,,,H,174,circle,1,0,,,,,,,,,,,,,,,,repeat,letter,lettRpt,d,Lo,,,,,,0.6849,1,,,,,,,,low,20,0,20,0,1,,,,,,,,,
296086,2022-12-04_20h51.22.540,vts_reward_expectancy_bt,2022.2.4,Linux x86_64,60.04924038,Chrome,1366,768,,,,,1,839,,,,,,,,,,,,,,,,,W,139,hexagon,1,0,,,,,,,,,,,,,,,,repeat,letter,lettRpt,f,Lo,,,,,,0.8395,1,,,,,,,,low,21,0,21,0,1,,,,,,,,,
296086,2022-12-04_20h51.22.540,vts_reward_expectancy_bt,2022.2.4,Linux x86_64,60.04924038,Chrome,1366,768,,,,,10,849,,,,,,,,,,,,,,,,,F,146,star,1,0,,,,,,,,,,,,,,,,switch,number,numSwt,j,Hi,,,,,,1.0361,1,,,,,,,,low,22,0,22,0,1,,,,,,,,,
296086,2022-12-04_20h51.22.540,vts_reward_expectancy_bt,2022.2.4,Linux x86_64,60.04924038,Chrome,1366,768,,,,,0,849,,,,,,,,,,,,,,,,,D,160,triangle,1,0,,,,,,,,,,,,,,,,repeat,number,numRpt,k,Hi,,,,,,1.2221,1,,,,,,,,low,23,0,23,0,1,,,,,,,,,
296086,2022-12-04_20h51.22.540,vts_reward_expectancy_bt,2022.2.4,Linux x86_64,60.04924038,Chrome,1366,768,,,,,0,849,,,,,,,,,,,,,,,,,Y,146,star,1,0,,,,,,,,,,,,,,,,repeat,number,numRpt,j,Hi,,,,,,0.9983,1,,,,,,,,low,24,0,24,0,1,,,,,,,,,
296086,2022-12-04_20h51.22.540,vts_reward_expectancy_bt,2022.2.4,Linux x86_64,60.04924038,Chrome,1366,768,,,,,10,859,,,,,,,,,,,,,,,,,U,181,circle,1,0,,,,,,,,,,,,,,,,repeat,number,numRpt,k,Lo,,,,,,0.9879,1,,,,,,,,low,25,0,25,0,1,,,,,,,,,
296086,2022-12-04_20h51.22.540,vts_reward_expectancy_bt,2022.2.4,Linux x86_64,60.04924038,Chrome,1366,768,,,,,0,859,,,,,,,,,,,,,,,,,F,160,triangle,1,0,,,,,,,,,,,,,,,,repeat,number,numRpt,k,Hi,,,,,,1.4016,1,,,,,,,,low,26,0,26,0,1,,,,,,,,,
296086,2022-12-04_20h51.22.540,vts_reward_expectancy_bt,2022.2.4,Linux x86_64,60.04924038,Chrome,1366,768,,,,,1,860,,,,,,,,,,,,,,,,,S,167,hexagon,1,0,,,,,,,,,,,,,,,,repeat,number,numRpt,k,Lo,,,,,,0.854,1,,,,,,,,low,27,0,27,0,1,,,,,,,,,
296086,2022-12-04_20h51.22.540,vts_reward_expectancy_bt,2022.2.4,Linux x86_64,60.04924038,Chrome,1366,768,,,,,0,860,,,,,,,,,,,,,,,,,B,174,triangle,1,0,,,,,,,,,,,,,,,,repeat,number,numRpt,k,Hi,,,,,,1.1545,1,,,,,,,,low,28,0,28,0,1,,,,,,,,,
296086,2022-12-04_20h51.22.540,vts_reward_expectancy_bt,2022.2.4,Linux x86_64,60.04924038,Chrome,1366,768,,,,,1,861,,,,,,,,,,,,,,,,,W,139,circle,1,0,,,,,,,,,,,,,,,,repeat,number,numRpt,j,Lo,,,,,,1.7675,1,,,,,,,,low,29,0,29,0,1,,,,,,,,,
296086,2022-12-04_20h51.22.540,vts_reward_expectancy_bt,2022.2.4,Linux x86_64,60.04924038,Chrome,1366,768,,,,,0,861,,,,,,,,,,,,,,,,,D,125,star,1,0,,,,,,,,,,,,,,,,repeat,number,numRpt,j,Hi,,,,,,0.8829,1,,,,,,,,low,30,0,30,0,1,,,,,,,,,
296086,2022-12-04_20h51.22.540,vts_reward_expectancy_bt,2022.2.4,Linux x86_64,60.04924038,Chrome,1366,768,,,,,10,871,,,,,,,,,,,,,,,,,H,132,hexagon,1,0,,,,,,,,,,,,,,,,repeat,number,numRpt,j,Lo,,,,,,2.8362,1,,,,,,,,low,31,0,31,0,1,,,,,,,,,
296086,2022-12-04_20h51.22.540,vts_reward_expectancy_bt,2022.2.4,Linux x86_64,60.04924038,Chrome,1366,768,,,,,0,871,,,,,,,,,,,,,,,,,D,181,circle,0,0,,,,,,,,,,,,,,,,repeat,number,NA,j,Lo,,,,,,0.0691,2,,,,,,space,0.2485,low,0,0,0,0,1,,,,,,,,,
296086,2022-12-04_20h51.22.540,vts_reward_expectancy_bt,2022.2.4,Linux x86_64,60.04924038,Chrome,1366,768,,,,,1,872,,,,,,,,,,,,,,,,,S,139,star,1,1,,,,,,,,,,,,,,,,repeat,number,numRpt,j,Hi,,,,,,0.4545,2,,,,,,,,low,1,0,1,0,1,,,,,,,,,
296086,2022-12-04_20h51.22.540,vts_reward_expectancy_bt,2022.2.4,Linux x86_64,60.04924038,Chrome,1366,768,,,,,0,872,,,,,,,,,,,,,,,,,Y,167,hexagon,0,0,,,,,,,,,,,,,,,,repeat,number,NA,j,Hi,,,,,,0.0494,2,,,,,,,,low,2,0,2,0,1,,,,,,,,,
296086,2022-12-04_20h51.22.540,vts_reward_expectancy_bt,2022.2.4,Linux x86_64,60.04924038,Chrome,1366,768,,,,,1,873,,,,,,,,,,,,,,,,,F,174,triangle,1,1,,,,,,,,,,,,,,,,repeat,number,numRpt,k,Hi,,,,,,0.7805,2,,,,,,,,low,3,0,3,0,1,,,,,,,,,
296086,2022-12-04_20h51.22.540,vts_reward_expectancy_bt,2022.2.4,Linux x86_64,60.04924038,Chrome,1366,768,,,,,10,883,,,,,,,,,,,,,,,,,B,125,circle,1,0,,,,,,,,,,,,,,,,repeat,number,numRpt,j,Lo,,,,,,1.7703,2,,,,,,,,low,4,0,4,0,1,,,,,,,,,
296086,2022-12-04_20h51.22.540,vts_reward_expectancy_bt,2022.2.4,Linux x86_64,60.04924038,Chrome,1366,768,,,,,0,883,,,,,,,,,,,,,,,,,H,132,star,0,0,,,,,,,,,,,,,,,,repeat,number,NA,k,Lo,,,,,,1.0628,2,,,,,,,,low,5,0,5,0,1,,,,,,,,,
296086,2022-12-04_20h51.22.540,vts_reward_expectancy_bt,2022.2.4,Linux x86_64,60.04924038,Chrome,1366,768,,,,,10,893,,,,,,,,,,,,,,,,,U,146,hexagon,1,1,,,,,,,,,,,,,,,,repeat,number,numRpt,j,Lo,,,,,,1.3455,2,,,,,,,,low,6,0,6,0,1,,,,,,,,,
296086,2022-12-04_20h51.22.540,vts_reward_expectancy_bt,2022.2.4,Linux x86_64,60.04924038,Chrome,1366,768,,,,,0,893,,,,,,,,,,,,,,,,,W,160,triangle,1,0,,,,,,,,,,,,,,,,repeat,number,numRpt,k,Hi,,,,,,2.2845,2,,,,,,,,low,7,0,7,0,1,,,,,,,,,
296086,2022-12-04_20h51.22.540,vts_reward_expectancy_bt,2022.2.4,Linux x86_64,60.04924038,Chrome,1366,768,,,,,0,893,,,,,,,,,,,,,,,,,D,181,star,1,0,,,,,,,,,,,,,,,,repeat,number,numRpt,k,Hi,,,,,,1.3173,2,,,,,,,,low,8,0,8,0,1,,,,,,,,,
296086,2022-12-04_20h51.22.540,vts_reward_expectancy_bt,2022.2.4,Linux x86_64,60.04924038,Chrome,1366,768,,,,,0,893,,,,,,,,,,,,,,,,,S,139,triangle,1,0,,,,,,,,,,,,,,,,repeat,number,numRpt,j,Hi,,,,,,1.2466,2,,,,,,,,low,9,0,9,0,1,,,,,,,,,
296086,2022-12-04_20h51.22.540,vts_reward_expectancy_bt,2022.2.4,Linux x86_64,60.04924038,Chrome,1366,768,,,,,10,903,,,,,,,,,,,,,,,,,Y,167,circle,1,0,,,,,,,,,,,,,,,,repeat,number,numRpt,k,Lo,,,,,,0.8968,2,,,,,,,,low,10,0,10,0,1,,,,,,,,,
296086,2022-12-04_20h51.22.540,vts_reward_expectancy_bt,2022.2.4,Linux x86_64,60.04924038,Chrome,1366,768,,,,,1,904,,,,,,,,,,,,,,,,,F,174,hexagon,1,0,,,,,,,,,,,,,,,,repeat,number,numRpt,k,Lo,,,,,,0.7839,2,,,,,,,,low,11,0,11,0,1,,,,,,,,,
296086,2022-12-04_20h51.22.540,vts_reward_expectancy_bt,2022.2.4,Linux x86_64,60.04924038,Chrome,1366,768,,,,,1,905,,,,,,,,,,,,,,,,,B,125,hexagon,1,0,,,,,,,,,,,,,,,,repeat,number,numRpt,j,Lo,,,,,,1.4003,2,,,,,,,,low,12,0,12,0,1,,,,,,,,,
296086,2022-12-04_20h51.22.540,vts_reward_expectancy_bt,2022.2.4,Linux x86_64,60.04924038,Chrome,1366,768,,,,,1,906,,,,,,,,,,,,,,,,,H,132,circle,1,0,,,,,,,,,,,,,,,,repeat,number,numRpt,j,Lo,,,,,,0.8674,2,,,,,,,,low,13,0,13,0,1,,,,,,,,,
296086,2022-12-04_20h51.22.540,vts_reward_expectancy_bt,2022.2.4,Linux x86_64,60.04924038,Chrome,1366,768,,,,,0,906,,,,,,,,,,,,,,,,,U,146,star,1,0,,,,,,,,,,,,,,,,repeat,number,numRpt,j,Hi,,,,,,2.2191,2,,,,,,,,low,14,0,14,0,1,,,,,,,,,
296086,2022-12-04_20h51.22.540,vts_reward_expectancy_bt,2022.2.4,Linux x86_64,60.04924038,Chrome,1366,768,,,,,10,916,,,,,,,,,,,,,,,,,W,160,triangle,1,0,,,,,,,,,,,,,,,,repeat,number,numRpt,k,Hi,,,,,,0.8807,2,,,,,,,,low,15,0,15,0,1,,,,,,,,,
296086,2022-12-04_20h51.22.540,vts_reward_expectancy_bt,2022.2.4,Linux x86_64,60.04924038,Chrome,1366,768,,,,,1,917,,,,,,,,,,,,,,,,,S,181,star,1,0,,,,,,,,,,,,,,,,repeat,number,numRpt,k,Hi,,,,,,0.6636,2,,,,,,,,low,16,0,16,0,1,,,,,,,,,
296086,2022-12-04_20h51.22.540,vts_reward_expectancy_bt,2022.2.4,Linux x86_64,60.04924038,Chrome,1366,768,,,,,1,918,,,,,,,,,,,,,,,,,B,174,circle,1,0,,,,,,,,,,,,,,,,repeat,number,numRpt,k,Lo,,,,,,1.1638,2,,,,,,,,low,17,0,17,0,1,,,,,,,,,
296086,2022-12-04_20h51.22.540,vts_reward_expectancy_bt,2022.2.4,Linux x86_64,60.04924038,Chrome,1366,768,,,,,1,919,,,,,,,,,,,,,,,,,H,125,hexagon,1,0,,,,,,,,,,,,,,,,repeat,number,numRpt,j,Lo,,,,,,1.3345,2,,,,,,,,low,18,0,18,0,1,,,,,,,,,
296086,2022-12-04_20h51.22.540,vts_reward_expectancy_bt,2022.2.4,Linux x86_64,60.04924038,Chrome,1366,768,,,,,0,919,,,,,,,,,,,,,,,,,U,167,triangle,0,0,,,,,,,,,,,,,,,,repeat,number,NA,j,Lo,,,,,,0.7685,2,,,,,,,,low,19,0,19,0,1,,,,,,,,,
296086,2022-12-04_20h51.22.540,vts_reward_expectancy_bt,2022.2.4,Linux x86_64,60.04924038,Chrome,1366,768,,,,,10,929,,,,,,,,,,,,,,,,,Y,146,star,1,1,,,,,,,,,,,,,,,,repeat,number,numRpt,j,Hi,,,,,,0.8312,2,,,,,,,,low,20,0,20,0,1,,,,,,,,,
296086,2022-12-04_20h51.22.540,vts_reward_expectancy_bt,2022.2.4,Linux x86_64,60.04924038,Chrome,1366,768,,,,,1,930,,,,,,,,,,,,,,,,,F,139,circle,1,0,,,,,,,,,,,,,,,,repeat,number,numRpt,j,Lo,,,,,,1.7335,2,,,,,,,,low,21,0,21,0,1,,,,,,,,,
296086,2022-12-04_20h51.22.540,vts_reward_expectancy_bt,2022.2.4,Linux x86_64,60.04924038,Chrome,1366,768,,,,,0,930,,,,,,,,,,,,,,,,,D,160,triangle,1,0,,,,,,,,,,,,,,,,repeat,number,numRpt,k,Hi,,,,,,1.3203,2,,,,,,,,low,22,0,22,0,1,,,,,,,,,
296086,2022-12-04_20h51.22.540,vts_reward_expectancy_bt,2022.2.4,Linux x86_64,60.04924038,Chrome,1366,768,,,,,1,931,,,,,,,,,,,,,,,,,W,132,hexagon,1,0,,,,,,,,,,,,,,,,repeat,number,numRpt,j,Lo,,,,,,1.0522,2,,,,,,,,low,23,0,23,0,1,,,,,,,,,
296086,2022-12-04_20h51.22.540,vts_reward_expectancy_bt,2022.2.4,Linux x86_64,60.04924038,Chrome,1366,768,,,,,1,932,,,,,,,,,,,,,,,,,S,139,circle,1,0,,,,,,,,,,,,,,,,repeat,number,numRpt,j,Lo,,,,,,0.9843,2,,,,,,,,low,24,0,24,0,1,,,,,,,,,
296086,2022-12-04_20h51.22.540,vts_reward_expectancy_bt,2022.2.4,Linux x86_64,60.04924038,Chrome,1366,768,,,,,1,933,,,,,,,,,,,,,,,,,U,174,star,1,0,,,,,,,,,,,,,,,,repeat,number,numRpt,k,Hi,,,,,,0.8639,2,,,,,,,,low,25,0,25,0,1,,,,,,,,,
296086,2022-12-04_20h51.22.540,vts_reward_expectancy_bt,2022.2.4,Linux x86_64,60.04924038,Chrome,1366,768,,,,,10,943,,,,,,,,,,,,,,,,,B,146,hexagon,1,0,,,,,,,,,,,,,,,,repeat,number,numRpt,j,Lo,,,,,,1.0468,2,,,,,,,,low,26,0,26,0,1,,,,,,,,,
296086,2022-12-04_20h51.22.540,vts_reward_expectancy_bt,2022.2.4,Linux x86_64,60.04924038,Chrome,1366,768,,,,,0,943,,,,,,,,,,,,,,,,,H,167,triangle,1,0,,,,,,,,,,,,,,,,repeat,number,numRpt,k,Hi,,,,,,1.2465,2,,,,,,,,low,27,0,27,0,1,,,,,,,,,
296086,2022-12-04_20h51.22.540,vts_reward_expectancy_bt,2022.2.4,Linux x86_64,60.04924038,Chrome,1366,768,,,,,1,944,,,,,,,,,,,,,,,,,Y,181,hexagon,1,0,,,,,,,,,,,,,,,,repeat,number,numRpt,k,Lo,,,,,,0.7775,2,,,,,,,,low,28,0,28,0,1,,,,,,,,,
296086,2022-12-04_20h51.22.540,vts_reward_expectancy_bt,2022.2.4,Linux x86_64,60.04924038,Chrome,1366,768,,,,,10,954,,,,,,,,,,,,,,,,,D,132,circle,1,0,,,,,,,,,,,,,,,,repeat,number,numRpt,j,Lo,,,,,,0.8305,2,,,,,,,,low,29,0,29,0,1,,,,,,,,,
296086,2022-12-04_20h51.22.540,vts_reward_expectancy_bt,2022.2.4,Linux x86_64,60.04924038,Chrome,1366,768,,,,,0,954,,,,,,,,,,,,,,,,,W,125,star,1,0,,,,,,,,,,,,,,,,repeat,number,numRpt,j,Hi,,,,,,1.0296,2,,,,,,,,low,30,0,30,0,1,,,,,,,,,
296086,2022-12-04_20h51.22.540,vts_reward_expectancy_bt,2022.2.4,Linux x86_64,60.04924038,Chrome,1366,768,,,,,1,955,,,,,,,,,,,,,,,,,F,160,triangle,1,0,,,,,,,,,,,,,,,,repeat,number,numRpt,k,Hi,,,,,,0.7814,2,,,,,,,,low,31,0,31,0,1,,,,,,,,,
296086,2022-12-04_20h51.22.540,vts_reward_expectancy_bt,2022.2.4,Linux x86_64,60.04924038,Chrome,1366,768,,,,,0,955,,,,,,,,,,,,,,,,,W,139,star,0,0,,,,,,,,,,,,,,,,repeat,number,NA,k,Hi,,,,,,0.6819,3,,,,,,space,0.6718,low,0,0,0,0,1,,,,,,,,,
296086,2022-12-04_20h51.22.540,vts_reward_expectancy_bt,2022.2.4,Linux x86_64,60.04924038,Chrome,1366,768,,,,,0,955,,,,,,,,,,,,,,,,,S,132,circle,-1,1,,,,,,,,,,,,,,,,switch,no_choice,NA,,Hi,,,,,,,3,,,,,,,,low,1,0,1,0,1,,,,,,,,,
296086,2022-12-04_20h51.22.540,vts_reward_expectancy_bt,2022.2.4,Linux x86_64,60.04924038,Chrome,1366,768,,,,,1,956,,,,,,,,,,,,,,,,,B,167,triangle,1,0,,,,,,,,,,,,,,,,switch,number,numSwt,k,Hi,,,,,,0.5733,3,,,,,,,,low,2,0,2,0,1,,,,,,,,,
296086,2022-12-04_20h51.22.540,vts_reward_expectancy_bt,2022.2.4,Linux x86_64,60.04924038,Chrome,1366,768,,,,,1,957,,,,,,,,,,,,,,,,,F,125,hexagon,1,0,,,,,,,,,,,,,,,,repeat,number,numRpt,j,Lo,,,,,,0.8886,3,,,,,,,,low,3,0,3,0,1,,,,,,,,,
296086,2022-12-04_20h51.22.540,vts_reward_expectancy_bt,2022.2.4,Linux x86_64,60.04924038,Chrome,1366,768,,,,,10,967,,,,,,,,,,,,,,,,,U,181,star,1,0,,,,,,,,,,,,,,,,repeat,number,numRpt,k,Hi,,,,,,0.7972,3,,,,,,,,low,4,0,4,0,1,,,,,,,,,
296086,2022-12-04_20h51.22.540,vts_reward_expectancy_bt,2022.2.4,Linux x86_64,60.04924038,Chrome,1366,768,,,,,1,968,,,,,,,,,,,,,,,,,H,146,circle,1,0,,,,,,,,,,,,,,,,repeat,number,numRpt,j,Lo,,,,,,0.697,3,,,,,,,,low,5,0,5,0,1,,,,,,,,,
296086,2022-12-04_20h51.22.540,vts_reward_expectancy_bt,2022.2.4,Linux x86_64,60.04924038,Chrome,1366,768,,,,,0,968,,,,,,,,,,,,,,,,,D,160,triangle,1,0,,,,,,,,,,,,,,,,repeat,number,numRpt,k,Hi,,,,,,1.218,3,,,,,,,,low,6,0,6,0,1,,,,,,,,,
296086,2022-12-04_20h51.22.540,vts_reward_expectancy_bt,2022.2.4,Linux x86_64,60.04924038,Chrome,1366,768,,,,,10,978,,,,,,,,,,,,,,,,,Y,174,hexagon,1,0,,,,,,,,,,,,,,,,repeat,number,numRpt,k,Lo,,,,,,0.9136,3,,,,,,,,low,7,0,7,0,1,,,,,,,,,
296086,2022-12-04_20h51.22.540,vts_reward_expectancy_bt,2022.2.4,Linux x86_64,60.04924038,Chrome,1366,768,,,,,0,978,,,,,,,,,,,,,,,,,W,139,triangle,1,0,,,,,,,,,,,,,,,,repeat,number,numRpt,j,Hi,,,,,,1.3551,3,,,,,,,,low,8,0,8,0,1,,,,,,,,,
296086,2022-12-04_20h51.22.540,vts_reward_expectancy_bt,2022.2.4,Linux x86_64,60.04924038,Chrome,1366,768,,,,,0,978,,,,,,,,,,,,,,,,,S,132,hexagon,0,0,,,,,,,,,,,,,,,,repeat,number,NA,k,Hi,,,,,,0.5494,3,,,,,,,,low,9,0,9,0,1,,,,,,,,,
296086,2022-12-04_20h51.22.540,vts_reward_expectancy_bt,2022.2.4,Linux x86_64,60.04924038,Chrome,1366,768,,,,,0,978,,,,,,,,,,,,,,,,,B,167,star,0,1,,,,,,,,,,,,,,,,repeat,number,NA,j,Hi,,,,,,2.6127,3,,,,,,,,low,10,0,10,0,1,,,,,,,,,
296086,2022-12-04_20h51.22.540,vts_reward_expectancy_bt,2022.2.4,Linux x86_64,60.04924038,Chrome,1366,768,,,,,10,988,,,,,,,,,,,,,,,,,F,125,circle,1,1,,,,,,,,,,,,,,,,repeat,number,numRpt,j,Lo,,,,,,2.6276,3,,,,,,,,low,11,0,11,0,1,,,,,,,,,
296086,2022-12-04_20h51.22.540,vts_reward_expectancy_bt,2022.2.4,Linux x86_64,60.04924038,Chrome,1366,768,,,,,0,988,,,,,,,,,,,,,,,,,U,181,star,0,0,,,,,,,,,,,,,,,,repeat,number,NA,j,Lo,,,,,,0.2311,3,,,,,,,,low,12,0,12,0,1,,,,,,,,,
296086,2022-12-04_20h51.22.540,vts_reward_expectancy_bt,2022.2.4,Linux x86_64,60.04924038,Chrome,1366,768,,,,,1,989,,,,,,,,,,,,,,,,,H,146,circle,1,1,,,,,,,,,,,,,,,,repeat,number,numRpt,j,Lo,,,,,,0.3914,3,,,,,,,,low,13,0,13,0,1,,,,,,,,,
296086,2022-12-04_20h51.22.540,vts_reward_expectancy_bt,2022.2.4,Linux x86_64,60.04924038,Chrome,1366,768,,,,,0,989,,,,,,,,,,,,,,,,,D,160,hexagon,0,0,,,,,,,,,,,,,,,,repeat,number,NA,j,Lo,,,,,,0.3756,3,,,,,,,,low,14,0,14,0,1,,,,,,,,,
296086,2022-12-04_20h51.22.540,vts_reward_expectancy_bt,2022.2.4,Linux x86_64,60.04924038,Chrome,1366,768,,,,,0,989,,,,,,,,,,,,,,,,,Y,174,triangle,0,1,,,,,,,,,,,,,,,,repeat,number,NA,j,Lo,,,,,,0.6971,3,,,,,,,,low,15,0,15,0,1,,,,,,,,,
296086,2022-12-04_20h51.22.540,vts_reward_expectancy_bt,2022.2.4,Linux x86_64,60.04924038,Chrome,1366,768,,,,,0,989,,,,,,,,,,,,,,,,,Y,160,triangle,0,1,,,,,,,,,,,,,,,,repeat,number,NA,j,Lo,,,,,,1.0812,3,,,,,,,,low,16,0,16,0,1,,,,,,,,,
296086,2022-12-04_20h51.22.540,vts_reward_expectancy_bt,2022.2.4,Linux x86_64,60.04924038,Chrome,1366,768,,,,,1,990,,,,,,,,,,,,,,,,,U,146,hexagon,1,1,,,,,,,,,,,,,,,,repeat,number,numRpt,j,Lo,,,,,,1.4704,3,,,,,,,,low,17,0,17,0,1,,,,,,,,,
296086,2022-12-04_20h51.22.540,vts_reward_expectancy_bt,2022.2.4,Linux x86_64,60.04924038,Chrome,1366,768,,,,,10,1000,,,,,,,,,,,,,,,,,D,174,circle,1,0,,,,,,,,,,,,,,,,repeat,number,numRpt,k,Lo,,,,,,0.0152,3,,,,,,,,low,18,0,18,0,1,,,,,,,,,
296086,2022-12-04_20h51.22.540,vts_reward_expectancy_bt,2022.2.4,Linux x86_64,60.04924038,Chrome,1366,768,,,,,1,1001,,,,,,,,,,,,,,,,,S,167,star,1,0,,,,,,,,,,,,,,,,repeat,number,numRpt,k,Hi,,,,,,0.6708,3,,,,,,,,low,19,0,19,0,1,,,,,,,,,
296086,2022-12-04_20h51.22.540,vts_reward_expectancy_bt,2022.2.4,Linux x86_64,60.04924038,Chrome,1366,768,,,,,1,1002,,,,,,,,,,,,,,,,,H,181,hexagon,1,0,,,,,,,,,,,,,,,,repeat,number,numRpt,k,Lo,,,,,,0.7618,3,,,,,,,,low,20,0,20,0,1,,,,,,,,,
296086,2022-12-04_20h51.22.540,vts_reward_expectancy_bt,2022.2.4,Linux x86_64,60.04924038,Chrome,1366,768,,,,,10,1012,,,,,,,,,,,,,,,,,F,125,circle,1,0,,,,,,,,,,,,,,,,repeat,number,numRpt,j,Lo,,,,,,0.7026,3,,,,,,,,low,21,0,21,0,1,,,,,,,,,
296086,2022-12-04_20h51.22.540,vts_reward_expectancy_bt,2022.2.4,Linux x86_64,60.04924038,Chrome,1366,768,,,,,0,1012,,,,,,,,,,,,,,,,,W,139,star,1,0,,,,,,,,,,,,,,,,repeat,number,numRpt,j,Hi,,,,,,1.2638,3,,,,,,,,low,22,0,22,0,1,,,,,,,,,
296086,2022-12-04_20h51.22.540,vts_reward_expectancy_bt,2022.2.4,Linux x86_64,60.04924038,Chrome,1366,768,,,,,1,1013,,,,,,,,,,,,,,,,,B,132,triangle,1,0,,,,,,,,,,,,,,,,repeat,number,numRpt,j,Hi,,,,,,0.3036,3,,,,,,,,low,23,0,23,0,1,,,,,,,,,
296086,2022-12-04_20h51.22.540,vts_reward_expectancy_bt,2022.2.4,Linux x86_64,60.04924038,Chrome,1366,768,,,,,10,1023,,,,,,,,,,,,,,,,,U,132,star,1,0,,,,,,,,,,,,,,,,repeat,number,numRpt,j,Hi,,,,,,0.6311,3,,,,,,,,low,24,0,24,0,1,,,,,,,,,
296086,2022-12-04_20h51.22.540,vts_reward_expectancy_bt,2022.2.4,Linux x86_64,60.04924038,Chrome,1366,768,,,,,10,1033,,,,,,,,,,,,,,,,,S,146,hexagon,1,0,,,,,,,,,,,,,,,,repeat,number,numRpt,j,Lo,,,,,,0.912,3,,,,,,,,low,25,0,25,0,1,,,,,,,,,
296086,2022-12-04_20h51.22.540,vts_reward_expectancy_bt,2022.2.4,Linux x86_64,60.04924038,Chrome,1366,768,,,,,1,1034,,,,,,,,,,,,,,,,,B,174,circle,1,0,,,,,,,,,,,,,,,,repeat,number,numRpt,k,Lo,,,,,,0.6975,3,,,,,,,,low,26,0,26,0,1,,,,,,,,,
296086,2022-12-04_20h51.22.540,vts_reward_expectancy_bt,2022.2.4,Linux x86_64,60.04924038,Chrome,1366,768,,,,,0,1034,,,,,,,,,,,,,,,,,F,181,triangle,1,0,,,,,,,,,,,,,,,,repeat,number,numRpt,k,Hi,,,,,,0.9465,3,,,,,,,,low,27,0,27,0,1,,,,,,,,,
296086,2022-12-04_20h51.22.540,vts_reward_expectancy_bt,2022.2.4,Linux x86_64,60.04924038,Chrome,1366,768,,,,,10,1044,,,,,,,,,,,,,,,,,Y,167,hexagon,1,0,,,,,,,,,,,,,,,,repeat,number,numRpt,k,Lo,,,,,,1.056,3,,,,,,,,low,28,0,28,0,1,,,,,,,,,
296086,2022-12-04_20h51.22.540,vts_reward_expectancy_bt,2022.2.4,Linux x86_64,60.04924038,Chrome,1366,768,,,,,0,1044,,,,,,,,,,,,,,,,,W,139,star,1,0,,,,,,,,,,,,,,,,repeat,number,numRpt,j,Hi,,,,,,1.0022,3,,,,,,,,low,29,0,29,0,1,,,,,,,,,
296086,2022-12-04_20h51.22.540,vts_reward_expectancy_bt,2022.2.4,Linux x86_64,60.04924038,Chrome,1366,768,,,,,0,1044,,,,,,,,,,,,,,,,,H,125,triangle,1,0,,,,,,,,,,,,,,,,repeat,number,numRpt,j,Hi,,,,,,0.9347,3,,,,,,,,low,30,0,30,0,1,,,,,,,,,
296086,2022-12-04_20h51.22.540,vts_reward_expectancy_bt,2022.2.4,Linux x86_64,60.04924038,Chrome,1366,768,,,,,0,1044,,,,,,,,,,,,,,,,,D,160,circle,0,0,,,,,,,,,,,,,,,,repeat,number,NA,j,Hi,,,,,,0.8495,3,,,,,,,,low,31,0,31,0,1,,,,,,,,,
296086,2022-12-04_20h51.22.540,vts_reward_expectancy_bt,2022.2.4,Linux x86_64,60.04924038,Chrome,1366,768,,,,,0,1044,,,,,,,,,,,,,,,,,D,132,star,1,1,,,,,,,,,,,,,,,,repeat,number,numRpt,j,Hi,,,,,,0.8209,4,,,,,,space,0.8118,low,0,0,0,0,1,,,,,,,,,
296086,2022-12-04_20h51.22.540,vts_reward_expectancy_bt,2022.2.4,Linux x86_64,60.04924038,Chrome,1366,768,,,,,1,1045,,,,,,,,,,,,,,,,,B,167,hexagon,1,0,,,,,,,,,,,,,,,,repeat,number,numRpt,k,Lo,,,,,,0.8439,4,,,,,,,,low,1,0,1,0,1,,,,,,,,,
296086,2022-12-04_20h51.22.540,vts_reward_expectancy_bt,2022.2.4,Linux x86_64,60.04924038,Chrome,1366,768,,,,,0,1045,,,,,,,,,,,,,,,,,H,160,triangle,0,0,,,,,,,,,,,,,,,,repeat,number,NA,j,Lo,,,,,,0.6817,4,,,,,,,,low,2,0,2,0,1,,,,,,,,,
296086,2022-12-04_20h51.22.540,vts_reward_expectancy_bt,2022.2.4,Linux x86_64,60.04924038,Chrome,1366,768,,,,,0,1045,,,,,,,,,,,,,,,,,S,146,circle,0,1,,,,,,,,,,,,,,,,repeat,number,NA,k,Lo,,,,,,0.4322,4,,,,,,,,low,3,0,3,0,1,,,,,,,,,
296086,2022-12-04_20h51.22.540,vts_reward_expectancy_bt,2022.2.4,Linux x86_64,60.04924038,Chrome,1366,768,,,,,1,1046,,,,,,,,,,,,,,,,,F,174,star,1,1,,,,,,,,,,,,,,,,repeat,number,numRpt,k,Hi,,,,,,0.5527,4,,,,,,,,low,4,0,4,0,1,,,,,,,,,
296086,2022-12-04_20h51.22.540,vts_reward_expectancy_bt,2022.2.4,Linux x86_64,60.04924038,Chrome,1366,768,,,,,1,1047,,,,,,,,,,,,,,,,,W,181,hexagon,1,0,,,,,,,,,,,,,,,,repeat,number,numRpt,k,Lo,,,,,,0.9017,4,,,,,,,,low,5,0,5,0,1,,,,,,,,,
296086,2022-12-04_20h51.22.540,vts_reward_expectancy_bt,2022.2.4,Linux x86_64,60.04924038,Chrome,1366,768,,,,,10,1057,,,,,,,,,,,,,,,,,U,139,triangle,1,0,,,,,,,,,,,,,,,,repeat,number,numRpt,j,Hi,,,,,,0.6311,4,,,,,,,,low,6,0,6,0,1,,,,,,,,,
296086,2022-12-04_20h51.22.540,vts_reward_expectancy_bt,2022.2.4,Linux x86_64,60.04924038,Chrome,1366,768,,,,,1,1058,,,,,,,,,,,,,,,,,Y,125,circle,1,0,,,,,,,,,,,,,,,,repeat,number,numRpt,j,Lo,,,,,,0.8978,4,,,,,,,,low,7,0,7,0,1,,,,,,,,,
296086,2022-12-04_20h51.22.540,vts_reward_expectancy_bt,2022.2.4,Linux x86_64,60.04924038,Chrome,1366,768,,,,,10,1068,,,,,,,,,,,,,,,,,D,132,hexagon,1,0,,,,,,,,,,,,,,,,repeat,number,numRpt,j,Lo,,,,,,0.5541,4,,,,,,,,low,8,0,8,0,1,,,,,,,,,
296086,2022-12-04_20h51.22.540,vts_reward_expectancy_bt,2022.2.4,Linux x86_64,60.04924038,Chrome,1366,768,,,,,0,1068,,,,,,,,,,,,,,,,,B,167,triangle,1,0,,,,,,,,,,,,,,,,repeat,number,numRpt,k,Hi,,,,,,0.836,4,,,,,,,,low,9,0,9,0,1,,,,,,,,,
296086,2022-12-04_20h51.22.540,vts_reward_expectancy_bt,2022.2.4,Linux x86_64,60.04924038,Chrome,1366,768,,,,,0,1068,,,,,,,,,,,,,,,,,H,160,circle,0,0,,,,,,,,,,,,,,,,repeat,number,NA,j,Hi,,,,,,0.6861,4,,,,,,,,low,10,0,10,0,1,,,,,,,,,
296086,2022-12-04_20h51.22.540,vts_reward_expectancy_bt,2022.2.4,Linux x86_64,60.04924038,Chrome,1366,768,,,,,0,1068,,,,,,,,,,,,,,,,,S,146,star,1,1,,,,,,,,,,,,,,,,repeat,number,numRpt,j,Hi,,,,,,0.9153,4,,,,,,,,low,11,0,11,0,1,,,,,,,,,
296086,2022-12-04_20h51.22.540,vts_reward_expectancy_bt,2022.2.4,Linux x86_64,60.04924038,Chrome,1366,768,,,,,0,1068,,,,,,,,,,,,,,,,,F,174,star,1,0,,,,,,,,,,,,,,,,repeat,number,numRpt,k,Hi,,,,,,1.5969,4,,,,,,,,low,12,0,12,0,1,,,,,,,,,
296086,2022-12-04_20h51.22.540,vts_reward_expectancy_bt,2022.2.4,Linux x86_64,60.04924038,Chrome,1366,768,,,,,1,1069,,,,,,,,,,,,,,,,,W,181,hexagon,1,0,,,,,,,,,,,,,,,,repeat,number,numRpt,k,Lo,,,,,,0.6142,4,,,,,,,,low,13,0,13,0,1,,,,,,,,,
296086,2022-12-04_20h51.22.540,vts_reward_expectancy_bt,2022.2.4,Linux x86_64,60.04924038,Chrome,1366,768,,,,,0,1069,,,,,,,,,,,,,,,,,U,139,triangle,1,0,,,,,,,,,,,,,,,,repeat,number,numRpt,j,Hi,,,,,,0.7945,4,,,,,,,,low,14,0,14,0,1,,,,,,,,,
296086,2022-12-04_20h51.22.540,vts_reward_expectancy_bt,2022.2.4,Linux x86_64,60.04924038,Chrome,1366,768,,,,,1,1070,,,,,,,,,,,,,,,,,Y,125,circle,1,0,,,,,,,,,,,,,,,,repeat,number,numRpt,j,Lo,,,,,,0.6799,4,,,,,,,,low,15,0,15,0,1,,,,,,,,,
296086,2022-12-04_20h51.22.540,vts_reward_expectancy_bt,2022.2.4,Linux x86_64,60.04924038,Chrome,1366,768,,,,,1,1071,,,,,,,,,,,,,,,,,F,132,hexagon,1,0,,,,,,,,,,,,,,,,repeat,number,numRpt,j,Lo,,,,,,0.7035,4,,,,,,,,low,16,0,16,0,1,,,,,,,,,
296086,2022-12-04_20h51.22.540,vts_reward_expectancy_bt,2022.2.4,Linux x86_64,60.04924038,Chrome,1366,768,,,,,0,1071,,,,,,,,,,,,,,,,,W,146,star,0,0,,,,,,,,,,,,,,,,repeat,number,NA,k,Lo,,,,,,0.5027,4,,,,,,,,low,17,0,17,0,1,,,,,,,,,
296086,2022-12-04_20h51.22.540,vts_reward_expectancy_bt,2022.2.4,Linux x86_64,60.04924038,Chrome,1366,768,,,,,10,1081,,,,,,,,,,,,,,,,,B,139,triangle,1,1,,,,,,,,,,,,,,,,repeat,number,numRpt,j,Hi,,,,,,0.1859,4,,,,,,,,low,18,0,18,0,1,,,,,,,,,
296086,2022-12-04_20h51.22.540,vts_reward_expectancy_bt,2022.2.4,Linux x86_64,60.04924038,Chrome,1366,768,,,,,1,1082,,,,,,,,,,,,,,,,,H,167,circle,1,0,,,,,,,,,,,,,,,,repeat,number,numRpt,k,Lo,,,,,,0.4594,4,,,,,,,,low,19,0,19,0,1,,,,,,,,,
296086,2022-12-04_20h51.22.540,vts_reward_expectancy_bt,2022.2.4,Linux x86_64,60.04924038,Chrome,1366,768,,,,,0,1082,,,,,,,,,,,,,,,,,Y,160,triangle,1,0,,,,,,,,,,,,,,,,repeat,number,numRpt,k,Hi,,,,,,0.7354,4,,,,,,,,low,20,0,20,0,1,,,,,,,,,
296086,2022-12-04_20h51.22.540,vts_reward_expectancy_bt,2022.2.4,Linux x86_64,60.04924038,Chrome,1366,768,,,,,10,1092,,,,,,,,,,,,,,,,,D,174,star,1,0,,,,,,,,,,,,,,,,switch,letter,lettSwt,d,Hi,,,,,,1.0723,4,,,,,,,,low,21,0,21,0,1,,,,,,,,,
296086,2022-12-04_20h51.22.540,vts_reward_expectancy_bt,2022.2.4,Linux x86_64,60.04924038,Chrome,1366,768,,,,,1,1093,,,,,,,,,,,,,,,,,U,181,hexagon,1,0,,,,,,,,,,,,,,,,repeat,letter,lettRpt,f,Lo,,,,,,0.5707,4,,,,,,,,low,22,0,22,0,1,,,,,,,,,
296086,2022-12-04_20h51.22.540,vts_reward_expectancy_bt,2022.2.4,Linux x86_64,60.04924038,Chrome,1366,768,,,,,1,1094,,,,,,,,,,,,,,,,,S,125,circle,1,0,,,,,,,,,,,,,,,,repeat,letter,lettRpt,f,Lo,,,,,,0.8513,4,,,,,,,,low,23,0,23,0,1,,,,,,,,,
296086,2022-12-04_20h51.22.540,vts_reward_expectancy_bt,2022.2.4,Linux x86_64,60.04924038,Chrome,1366,768,,,,,10,1104,,,,,,,,,,,,,,,,,U,174,circle,1,0,,,,,,,,,,,,,,,,repeat,letter,lettRpt,f,Lo,,,,,,1.1555,4,,,,,,,,low,24,0,24,0,1,,,,,,,,,
296086,2022-12-04_20h51.22.540,vts_reward_expectancy_bt,2022.2.4,Linux x86_64,60.04924038,Chrome,1366,768,,,,,10,1114,,,,,,,,,,,,,,,,,Y,181,star,1,0,,,,,,,,,,,,,,,,repeat,letter,lettRpt,f,Hi,,,,,,0.8883,4,,,,,,,,low,25,0,25,0,1,,,,,,,,,
296086,2022-12-04_20h51.22.540,vts_reward_expectancy_bt,2022.2.4,Linux x86_64,60.04924038,Chrome,1366,768,,,,,1,1115,,,,,,,,,,,,,,,,,B,139,triangle,1,0,,,,,,,,,,,,,,,,repeat,letter,lettRpt,d,Hi,,,,,,0.8492,4,,,,,,,,low,26,0,26,0,1,,,,,,,,,
296086,2022-12-04_20h51.22.540,vts_reward_expectancy_bt,2022.2.4,Linux x86_64,60.04924038,Chrome,1366,768,,,,,1,1116,,,,,,,,,,,,,,,,,F,132,hexagon,1,0,,,,,,,,,,,,,,,,repeat,letter,lettRpt,d,Lo,,,,,,0.8636,4,,,,,,,,low,27,0,27,0,1,,,,,,,,,
296086,2022-12-04_20h51.22.540,vts_reward_expectancy_bt,2022.2.4,Linux x86_64,60.04924038,Chrome,1366,768,,,,,1,1117,,,,,,,,,,,,,,,,,S,146,hexagon,1,0,,,,,,,,,,,,,,,,repeat,letter,lettRpt,f,Lo,,,,,,1.9128,4,,,,,,,,low,28,0,28,0,1,,,,,,,,,
296086,2022-12-04_20h51.22.540,vts_reward_expectancy_bt,2022.2.4,Linux x86_64,60.04924038,Chrome,1366,768,,,,,1,1118,,,,,,,,,,,,,,,,,W,160,circle,1,0,,,,,,,,,,,,,,,,repeat,letter,lettRpt,f,Lo,,,,,,0.6367,4,,,,,,,,low,29,0,29,0,1,,,,,,,,,
296086,2022-12-04_20h51.22.540,vts_reward_expectancy_bt,2022.2.4,Linux x86_64,60.04924038,Chrome,1366,768,,,,,1,1119,,,,,,,,,,,,,,,,,H,125,star,1,0,,,,,,,,,,,,,,,,repeat,letter,lettRpt,d,Hi,,,,,,1.5013,4,,,,,,,,low,30,0,30,0,1,,,,,,,,,
296086,2022-12-04_20h51.22.540,vts_reward_expectancy_bt,2022.2.4,Linux x86_64,60.04924038,Chrome,1366,768,,,,,10,1129,,,,,,,,,,,,,,,,,D,167,triangle,1,0,,,,,,,,,,,,,,,,repeat,letter,lettRpt,d,Hi,,,,,,0.7658,4,,,,,,,,low,31,0,31,0,1,,,,,,,,,
296086,2022-12-04_20h51.22.540,vts_reward_expectancy_bt,2022.2.4,Linux x86_64,60.04924038,Chrome,1366,768,,,,,1,1130,,,,,,,,,,,,,,,,,D,139,hexagon,1,0,,,,,,,,,,,,,,,,repeat,letter,lettRpt,d,Lo,,,,,,0.7095,5,,,,,,space,0.3983,low,0,0,0,0,1,,,,,,,,,
296086,2022-12-04_20h51.22.540,vts_reward_expectancy_bt,2022.2.4,Linux x86_64,60.04924038,Chrome,1366,768,,,,,10,1140,,,,,,,,,,,,,,,,,W,174,triangle,1,0,,,,,,,,,,,,,,,,repeat,letter,lettRpt,f,Hi,,,,,,0.6366,5,,,,,,,,low,1,0,1,0,1,,,,,,,,,
296086,2022-12-04_20h51.22.540,vts_reward_expectancy_bt,2022.2.4,Linux x86_64,60.04924038,Chrome,1366,768,,,,,0,1140,,,,,,,,,,,,,,,,,Y,181,star,1,0,,,,,,,,,,,,,,,,repeat,letter,lettRpt,f,Hi,,,,,,0.9811,5,,,,,,,,low,2,0,2,0,1,,,,,,,,,
296086,2022-12-04_20h51.22.540,vts_reward_expectancy_bt,2022.2.4,Linux x86_64,60.04924038,Chrome,1366,768,,,,,10,1150,,,,,,,,,,,,,,,,,F,167,circle,1,0,,,,,,,,,,,,,,,,repeat,letter,lettRpt,d,Lo,,,,,,1.7669,5,,,,,,,,low,3,0,3,0,1,,,,,,,,,
