participant,date,expName,psychopyVersion,OS,frameRate,browser,xResolution,yResolution,key_resp.keys,key_resp.rt,training_resp.keys,training_resp.rt,points_trial,points_cumul,trainBlock,training.thisRepN,training.thisTrialN,training.thisN,training.thisIndex,training.ran,LTriangleOpac,LCircleOpac,LHexagonOpac,LStarOpac,RTriangleOpac,RCircleOpac,RHexagonOpac,RStarOpac,LShape_ID,RShape_ID,curr_topStim,curr_bottStim,curr_shape,acc,E1,target_resp_prac1.keys,target_resp_prac1.rt,pracBlock,task1_prac_trials.thisRepN,task1_prac_trials.thisTrialN,task1_prac_trials.thisN,task1_prac_trials.thisIndex,task1_prac_trials.ran,target_resp_prac2.keys,target_resp_prac2.rt,task2_praac_trials.thisRepN,task2_praac_trials.thisTrialN,task2_praac_trials.thisN,task2_praac_trials.thisIndex,task2_praac_trials.ran,alt,task,condition,target_resp.keys,target_resp.rt,rewCond,vts_practice_trials.thisRepN,vts_practice_trials.thisTrialN,vts_practice_trials.thisN,vts_practice_trials.thisIndex,vts_practice_trials.ran,blockNum,trials_norew.thisRepN,trials_norew.thisTrialN,trials_norew.thisN,trials_norew.thisIndex,trials_norew.ran,key_resp_2.keys,key_resp_2.rt,rewExpectancy,trials_rew.thisRepN,trials_rew.thisTrialN,trials_rew.thisN,trials_rew.thisIndex,trials_rew.ran,Q1,Q2,Q2_text,Q3,Q4,Q5_text,Q5,xRes,yRes
296056,2022-12-05_22h30.50.420,vts_reward_expectancy_bt,2022.2.4,MacIntel,60.0024001,Chrome,1440,900,,,,,,,,,,,,,,,,,,,,,,,,,,,,,,,,,,,,,,,,,,,,,,,,,,,,,,,,,,,,,,,,,,,,,,,,,,,,
296056,2022-12-05_22h30.50.420,vts_reward_expectancy_bt,2022.2.4,MacIntel,60.0024001,Chrome,1440,900,space,27.0813,,,,,,,,,,,,,,,,,,,,,,,,,,,,,,,,,,,,,,,,,,,,,,,,,,,,,,,,,,,,,,,,,,,,,,,,,,
296056,2022-12-05_22h30.50.420,vts_reward_expectancy_bt,2022.2.4,MacIntel,60.0024001,Chrome,1440,900,,,,,,,,,,,,,,,,,,,,,,,,,,,,,,,,,,,,,,,,,,,,,,,,,,,,,,,,,,,,,,,,,,,,,,,,,,,,
296056,2022-12-05_22h30.50.420,vts_reward_expectancy_bt,2022.2.4,MacIntel,60.0024001,Chrome,1440,900,,,a,1.8685,1,1,0,0,0,0,7,1,0,0,1,0,0,1,0,0,hexagon,circle,,,,,,,,,,,,,,,,,,,,,,,,,,,,,,,,,,,,,,,,,,,,,,,,,,,,,,
296056,2022-12-05_22h30.50.420,vts_reward_expectancy_bt,2022.2.4,MacIntel,60.0024001,Chrome,1440,900,,,l,0.8644,1,2,0,0,1,1,4,1,0,1,0,0,0,0,1,0,circle,hexagon,,,,,,,,,,,,,,,,,,,,,,,,,,,,,,,,,,,,,,,,,,,,,,,,,,,,,,
296056,2022-12-05_22h30.50.420,vts_reward_expectancy_bt,2022.2.4,MacIntel,60.0024001,Chrome,1440,900,,,l,0.8858,1,3,0,0,2,2,5,1,0,1,0,0,0,0,0,1,circle,star,,,,,,,,,,,,,,,,,,,,,,,,,,,,,,,,,,,,,,,,,,,,,,,,,,,,,,
296056,2022-12-05_22h30.50.420,vts_reward_expectancy_bt,2022.2.4,MacIntel,60.0024001,Chrome,1440,900,,,a,0.6038,1,4,0,0,3,3,11,1,0,0,0,1,0,0,1,0,star,hexagon,,,,,,,,,,,,,,,,,,,,,,,,,,,,,,,,,,,,,,,,,,,,,,,,,,,,,,
296056,2022-12-05_22h30.50.420,vts_reward_expectancy_bt,2022.2.4,MacIntel,60.0024001,Chrome,1440,900,,,a,0.7694,1,5,0,0,4,4,1,1,1,0,0,0,0,0,1,0,triangle,hexagon,,,,,,,,,,,,,,,,,,,,,,,,,,,,,,,,,,,,,,,,,,,,,,,,,,,,,,
296056,2022-12-05_22h30.50.420,vts_reward_expectancy_bt,2022.2.4,MacIntel,60.0024001,Chrome,1440,900,,,l,0.85,1,6,0,0,5,5,10,1,0,0,0,1,0,1,0,0,star ,circle,,,,,,,,,,,,,,,,,,,,,,,,,,,,,,,,,,,,,,,,,,,,,,,,,,,,,,
296056,2022-12-05_22h30.50.420,vts_reward_expectancy_bt,2022.2.4,MacIntel,60.0024001,Chrome,1440,900,,,l,0.6675,1,7,0,0,6,6,9,1,0,0,0,1,1,0,0,0,star,triangle,,,,,,,,,,,,,,,,,,,,,,,,,,,,,,,,,,,,,,,,,,,,,,,,,,,,,,
296056,2022-12-05_22h30.50.420,vts_reward_expectancy_bt,2022.2.4,MacIntel,60.0024001,Chrome,1440,900,,,l,0.4341,10,17,0,0,7,7,0,1,1,0,0,0,0,1,0,0,triangle,circle,,,,,,,,,,,,,,,,,,,,,,,,,,,,,,,,,,,,,,,,,,,,,,,,,,,,,,
296056,2022-12-05_22h30.50.420,vts_reward_expectancy_bt,2022.2.4,MacIntel,60.0024001,Chrome,1440,900,,,l,0.5821,10,27,0,0,8,8,6,1,0,0,1,0,1,0,0,0,hexagon,triangle,,,,,,,,,,,,,,,,,,,,,,,,,,,,,,,,,,,,,,,,,,,,,,,,,,,,,,
296056,2022-12-05_22h30.50.420,vts_reward_expectancy_bt,2022.2.4,MacIntel,60.0024001,Chrome,1440,900,,,a,0.9019,10,37,0,0,9,9,8,1,0,0,1,0,0,0,0,1,hexagon,star,,,,,,,,,,,,,,,,,,,,,,,,,,,,,,,,,,,,,,,,,,,,,,,,,,,,,,
296056,2022-12-05_22h30.50.420,vts_reward_expectancy_bt,2022.2.4,MacIntel,60.0024001,Chrome,1440,900,,,a,1.1524,1,38,0,0,10,10,2,1,1,0,0,0,0,0,0,1,triangle,star,,,,,,,,,,,,,,,,,,,,,,,,,,,,,,,,,,,,,,,,,,,,,,,,,,,,,,
296056,2022-12-05_22h30.50.420,vts_reward_expectancy_bt,2022.2.4,MacIntel,60.0024001,Chrome,1440,900,,,l,0.8,10,48,0,0,11,11,3,1,0,1,0,0,1,0,0,0,circle,triangle,,,,,,,,,,,,,,,,,,,,,,,,,,,,,,,,,,,,,,,,,,,,,,,,,,,,,,
296056,2022-12-05_22h30.50.420,vts_reward_expectancy_bt,2022.2.4,MacIntel,60.0024001,Chrome,1440,900,,,l,0.4018,10,58,0,1,0,12,11,1,0,0,0,1,0,0,1,0,star,hexagon,,,,,,,,,,,,,,,,,,,,,,,,,,,,,,,,,,,,,,,,,,,,,,,,,,,,,,
296056,2022-12-05_22h30.50.420,vts_reward_expectancy_bt,2022.2.4,MacIntel,60.0024001,Chrome,1440,900,,,l,0.45,10,68,0,1,1,13,7,1,0,0,1,0,0,1,0,0,hexagon,circle,,,,,,,,,,,,,,,,,,,,,,,,,,,,,,,,,,,,,,,,,,,,,,,,,,,,,,
296056,2022-12-05_22h30.50.420,vts_reward_expectancy_bt,2022.2.4,MacIntel,60.0024001,Chrome,1440,900,,,a,0.5997,10,78,0,1,2,14,5,1,0,1,0,0,0,0,0,1,circle,star,,,,,,,,,,,,,,,,,,,,,,,,,,,,,,,,,,,,,,,,,,,,,,,,,,,,,,
296056,2022-12-05_22h30.50.420,vts_reward_expectancy_bt,2022.2.4,MacIntel,60.0024001,Chrome,1440,900,,,l,0.6855,1,79,0,1,3,15,0,1,1,0,0,0,0,1,0,0,triangle,circle,,,,,,,,,,,,,,,,,,,,,,,,,,,,,,,,,,,,,,,,,,,,,,,,,,,,,,
296056,2022-12-05_22h30.50.420,vts_reward_expectancy_bt,2022.2.4,MacIntel,60.0024001,Chrome,1440,900,,,a,0.6669,1,80,0,1,4,16,3,1,0,1,0,0,1,0,0,0,circle,triangle,,,,,,,,,,,,,,,,,,,,,,,,,,,,,,,,,,,,,,,,,,,,,,,,,,,,,,
296056,2022-12-05_22h30.50.420,vts_reward_expectancy_bt,2022.2.4,MacIntel,60.0024001,Chrome,1440,900,,,l,0.37,10,90,0,1,5,17,6,1,0,0,1,0,1,0,0,0,hexagon,triangle,,,,,,,,,,,,,,,,,,,,,,,,,,,,,,,,,,,,,,,,,,,,,,,,,,,,,,
296056,2022-12-05_22h30.50.420,vts_reward_expectancy_bt,2022.2.4,MacIntel,60.0024001,Chrome,1440,900,,,l,0.5988,1,91,0,1,6,18,10,1,0,0,0,1,0,1,0,0,star ,circle,,,,,,,,,,,,,,,,,,,,,,,,,,,,,,,,,,,,,,,,,,,,,,,,,,,,,,
296056,2022-12-05_22h30.50.420,vts_reward_expectancy_bt,2022.2.4,MacIntel,60.0024001,Chrome,1440,900,,,l,0.6363,10,101,0,1,7,19,4,1,0,1,0,0,0,0,1,0,circle,hexagon,,,,,,,,,,,,,,,,,,,,,,,,,,,,,,,,,,,,,,,,,,,,,,,,,,,,,,
296056,2022-12-05_22h30.50.420,vts_reward_expectancy_bt,2022.2.4,MacIntel,60.0024001,Chrome,1440,900,,,a,0.4668,10,111,0,1,8,20,8,1,0,0,1,0,0,0,0,1,hexagon,star,,,,,,,,,,,,,,,,,,,,,,,,,,,,,,,,,,,,,,,,,,,,,,,,,,,,,,
296056,2022-12-05_22h30.50.420,vts_reward_expectancy_bt,2022.2.4,MacIntel,60.0024001,Chrome,1440,900,,,l,0.4494,1,112,0,1,9,21,1,1,1,0,0,0,0,0,1,0,triangle,hexagon,,,,,,,,,,,,,,,,,,,,,,,,,,,,,,,,,,,,,,,,,,,,,,,,,,,,,,
296056,2022-12-05_22h30.50.420,vts_reward_expectancy_bt,2022.2.4,MacIntel,60.0024001,Chrome,1440,900,,,a,0.4356,1,113,0,1,10,22,2,1,1,0,0,0,0,0,0,1,triangle,star,,,,,,,,,,,,,,,,,,,,,,,,,,,,,,,,,,,,,,,,,,,,,,,,,,,,,,
296056,2022-12-05_22h30.50.420,vts_reward_expectancy_bt,2022.2.4,MacIntel,60.0024001,Chrome,1440,900,,,l,0.1846,10,123,0,1,11,23,9,1,0,0,0,1,1,0,0,0,star,triangle,,,,,,,,,,,,,,,,,,,,,,,,,,,,,,,,,,,,,,,,,,,,,,,,,,,,,,
296056,2022-12-05_22h30.50.420,vts_reward_expectancy_bt,2022.2.4,MacIntel,60.0024001,Chrome,1440,900,,,a,0.682,10,133,0,2,0,24,10,1,0,0,0,1,0,1,0,0,star ,circle,,,,,,,,,,,,,,,,,,,,,,,,,,,,,,,,,,,,,,,,,,,,,,,,,,,,,,
296056,2022-12-05_22h30.50.420,vts_reward_expectancy_bt,2022.2.4,MacIntel,60.0024001,Chrome,1440,900,,,a,0.4492,10,143,0,2,1,25,4,1,0,1,0,0,0,0,1,0,circle,hexagon,,,,,,,,,,,,,,,,,,,,,,,,,,,,,,,,,,,,,,,,,,,,,,,,,,,,,,
296056,2022-12-05_22h30.50.420,vts_reward_expectancy_bt,2022.2.4,MacIntel,60.0024001,Chrome,1440,900,,,l,0.3036,1,144,0,2,2,26,5,1,0,1,0,0,0,0,0,1,circle,star,,,,,,,,,,,,,,,,,,,,,,,,,,,,,,,,,,,,,,,,,,,,,,,,,,,,,,
296056,2022-12-05_22h30.50.420,vts_reward_expectancy_bt,2022.2.4,MacIntel,60.0024001,Chrome,1440,900,,,l,0.3678,1,145,0,2,3,27,7,1,0,0,1,0,0,1,0,0,hexagon,circle,,,,,,,,,,,,,,,,,,,,,,,,,,,,,,,,,,,,,,,,,,,,,,,,,,,,,,
296056,2022-12-05_22h30.50.420,vts_reward_expectancy_bt,2022.2.4,MacIntel,60.0024001,Chrome,1440,900,,,a,0.4135,10,155,0,2,4,28,9,1,0,0,0,1,1,0,0,0,star,triangle,,,,,,,,,,,,,,,,,,,,,,,,,,,,,,,,,,,,,,,,,,,,,,,,,,,,,,
296056,2022-12-05_22h30.50.420,vts_reward_expectancy_bt,2022.2.4,MacIntel,60.0024001,Chrome,1440,900,,,a,0.5511,10,165,0,2,5,29,8,1,0,0,1,0,0,0,0,1,hexagon,star,,,,,,,,,,,,,,,,,,,,,,,,,,,,,,,,,,,,,,,,,,,,,,,,,,,,,,
296056,2022-12-05_22h30.50.420,vts_reward_expectancy_bt,2022.2.4,MacIntel,60.0024001,Chrome,1440,900,,,l,0.4485,10,175,0,2,6,30,0,1,1,0,0,0,0,1,0,0,triangle,circle,,,,,,,,,,,,,,,,,,,,,,,,,,,,,,,,,,,,,,,,,,,,,,,,,,,,,,
296056,2022-12-05_22h30.50.420,vts_reward_expectancy_bt,2022.2.4,MacIntel,60.0024001,Chrome,1440,900,,,l,0.4186,10,185,0,2,7,31,2,1,1,0,0,0,0,0,0,1,triangle,star,,,,,,,,,,,,,,,,,,,,,,,,,,,,,,,,,,,,,,,,,,,,,,,,,,,,,,
296056,2022-12-05_22h30.50.420,vts_reward_expectancy_bt,2022.2.4,MacIntel,60.0024001,Chrome,1440,900,,,l,1.1999,10,195,0,2,8,32,3,1,0,1,0,0,1,0,0,0,circle,triangle,,,,,,,,,,,,,,,,,,,,,,,,,,,,,,,,,,,,,,,,,,,,,,,,,,,,,,
296056,2022-12-05_22h30.50.420,vts_reward_expectancy_bt,2022.2.4,MacIntel,60.0024001,Chrome,1440,900,,,l,1.0006,10,205,0,2,9,33,1,1,1,0,0,0,0,0,1,0,triangle,hexagon,,,,,,,,,,,,,,,,,,,,,,,,,,,,,,,,,,,,,,,,,,,,,,,,,,,,,,
296056,2022-12-05_22h30.50.420,vts_reward_expectancy_bt,2022.2.4,MacIntel,60.0024001,Chrome,1440,900,,,a,1.7679,1,206,0,2,10,34,11,1,0,0,0,1,0,0,1,0,star,hexagon,,,,,,,,,,,,,,,,,,,,,,,,,,,,,,,,,,,,,,,,,,,,,,,,,,,,,,
296056,2022-12-05_22h30.50.420,vts_reward_expectancy_bt,2022.2.4,MacIntel,60.0024001,Chrome,1440,900,,,a,1.0201,1,207,0,2,11,35,6,1,0,0,1,0,1,0,0,0,hexagon,triangle,,,,,,,,,,,,,,,,,,,,,,,,,,,,,,,,,,,,,,,,,,,,,,,,,,,,,,
296056,2022-12-05_22h30.50.420,vts_reward_expectancy_bt,2022.2.4,MacIntel,60.0024001,Chrome,1440,900,,,a,1.1654,10,217,1,0,0,0,8,1,0,0,1,0,0,0,0,1,hexagon,star,,,,,,,,,,,,,,,,,,,,,,,,,,,,,,,,,,,,,,,,,,,,,,,,,,,,,,
296056,2022-12-05_22h30.50.420,vts_reward_expectancy_bt,2022.2.4,MacIntel,60.0024001,Chrome,1440,900,,,l,0.7339,1,218,1,0,1,1,6,1,0,0,1,0,1,0,0,0,hexagon,triangle,,,,,,,,,,,,,,,,,,,,,,,,,,,,,,,,,,,,,,,,,,,,,,,,,,,,,,
296056,2022-12-05_22h30.50.420,vts_reward_expectancy_bt,2022.2.4,MacIntel,60.0024001,Chrome,1440,900,,,a,0.7173,1,219,1,0,2,2,7,1,0,0,1,0,0,1,0,0,hexagon,circle,,,,,,,,,,,,,,,,,,,,,,,,,,,,,,,,,,,,,,,,,,,,,,,,,,,,,,
296056,2022-12-05_22h30.50.420,vts_reward_expectancy_bt,2022.2.4,MacIntel,60.0024001,Chrome,1440,900,,,l,0.3526,10,229,1,0,3,3,2,1,1,0,0,0,0,0,0,1,triangle,star,,,,,,,,,,,,,,,,,,,,,,,,,,,,,,,,,,,,,,,,,,,,,,,,,,,,,,
296056,2022-12-05_22h30.50.420,vts_reward_expectancy_bt,2022.2.4,MacIntel,60.0024001,Chrome,1440,900,,,a,0.5204,1,230,1,0,4,4,1,1,1,0,0,0,0,0,1,0,triangle,hexagon,,,,,,,,,,,,,,,,,,,,,,,,,,,,,,,,,,,,,,,,,,,,,,,,,,,,,,
296056,2022-12-05_22h30.50.420,vts_reward_expectancy_bt,2022.2.4,MacIntel,60.0024001,Chrome,1440,900,,,l,0.4661,1,231,1,0,5,5,9,1,0,0,0,1,1,0,0,0,star,triangle,,,,,,,,,,,,,,,,,,,,,,,,,,,,,,,,,,,,,,,,,,,,,,,,,,,,,,
296056,2022-12-05_22h30.50.420,vts_reward_expectancy_bt,2022.2.4,MacIntel,60.0024001,Chrome,1440,900,,,l,0.2512,1,232,1,0,6,6,4,1,0,1,0,0,0,0,1,0,circle,hexagon,,,,,,,,,,,,,,,,,,,,,,,,,,,,,,,,,,,,,,,,,,,,,,,,,,,,,,
296056,2022-12-05_22h30.50.420,vts_reward_expectancy_bt,2022.2.4,MacIntel,60.0024001,Chrome,1440,900,,,l,0.1837,1,233,1,0,7,7,5,1,0,1,0,0,0,0,0,1,circle,star,,,,,,,,,,,,,,,,,,,,,,,,,,,,,,,,,,,,,,,,,,,,,,,,,,,,,,
296056,2022-12-05_22h30.50.420,vts_reward_expectancy_bt,2022.2.4,MacIntel,60.0024001,Chrome,1440,900,,,a,0.1338,1,234,1,0,8,8,10,1,0,0,0,1,0,1,0,0,star ,circle,,,,,,,,,,,,,,,,,,,,,,,,,,,,,,,,,,,,,,,,,,,,,,,,,,,,,,
296056,2022-12-05_22h30.50.420,vts_reward_expectancy_bt,2022.2.4,MacIntel,60.0024001,Chrome,1440,900,,,l,0.887,10,244,1,0,9,9,11,1,0,0,0,1,0,0,1,0,star,hexagon,,,,,,,,,,,,,,,,,,,,,,,,,,,,,,,,,,,,,,,,,,,,,,,,,,,,,,
296056,2022-12-05_22h30.50.420,vts_reward_expectancy_bt,2022.2.4,MacIntel,60.0024001,Chrome,1440,900,,,a,0.7328,10,254,1,0,10,10,3,1,0,1,0,0,1,0,0,0,circle,triangle,,,,,,,,,,,,,,,,,,,,,,,,,,,,,,,,,,,,,,,,,,,,,,,,,,,,,,
296056,2022-12-05_22h30.50.420,vts_reward_expectancy_bt,2022.2.4,MacIntel,60.0024001,Chrome,1440,900,,,l,1.2197,1,255,1,0,11,11,0,1,1,0,0,0,0,1,0,0,triangle,circle,,,,,,,,,,,,,,,,,,,,,,,,,,,,,,,,,,,,,,,,,,,,,,,,,,,,,,
296056,2022-12-05_22h30.50.420,vts_reward_expectancy_bt,2022.2.4,MacIntel,60.0024001,Chrome,1440,900,,,l,1.2506,10,265,1,1,0,12,2,1,1,0,0,0,0,0,0,1,triangle,star,,,,,,,,,,,,,,,,,,,,,,,,,,,,,,,,,,,,,,,,,,,,,,,,,,,,,,
296056,2022-12-05_22h30.50.420,vts_reward_expectancy_bt,2022.2.4,MacIntel,60.0024001,Chrome,1440,900,,,a,0.802,10,275,1,1,1,13,4,1,0,1,0,0,0,0,1,0,circle,hexagon,,,,,,,,,,,,,,,,,,,,,,,,,,,,,,,,,,,,,,,,,,,,,,,,,,,,,,
296056,2022-12-05_22h30.50.420,vts_reward_expectancy_bt,2022.2.4,MacIntel,60.0024001,Chrome,1440,900,,,a,0.8002,1,276,1,1,2,14,3,1,0,1,0,0,1,0,0,0,circle,triangle,,,,,,,,,,,,,,,,,,,,,,,,,,,,,,,,,,,,,,,,,,,,,,,,,,,,,,
296056,2022-12-05_22h30.50.420,vts_reward_expectancy_bt,2022.2.4,MacIntel,60.0024001,Chrome,1440,900,,,l,0.5678,10,286,1,1,3,15,1,1,1,0,0,0,0,0,1,0,triangle,hexagon,,,,,,,,,,,,,,,,,,,,,,,,,,,,,,,,,,,,,,,,,,,,,,,,,,,,,,
296056,2022-12-05_22h30.50.420,vts_reward_expectancy_bt,2022.2.4,MacIntel,60.0024001,Chrome,1440,900,,,a,0.4891,1,287,1,1,4,16,9,1,0,0,0,1,1,0,0,0,star,triangle,,,,,,,,,,,,,,,,,,,,,,,,,,,,,,,,,,,,,,,,,,,,,,,,,,,,,,
296056,2022-12-05_22h30.50.420,vts_reward_expectancy_bt,2022.2.4,MacIntel,60.0024001,Chrome,1440,900,,,l,0.482,10,297,1,1,5,17,0,1,1,0,0,0,0,1,0,0,triangle,circle,,,,,,,,,,,,,,,,,,,,,,,,,,,,,,,,,,,,,,,,,,,,,,,,,,,,,,
296056,2022-12-05_22h30.50.420,vts_reward_expectancy_bt,2022.2.4,MacIntel,60.0024001,Chrome,1440,900,,,a,0.6175,1,298,1,1,6,18,5,1,0,1,0,0,0,0,0,1,circle,star,,,,,,,,,,,,,,,,,,,,,,,,,,,,,,,,,,,,,,,,,,,,,,,,,,,,,,
296056,2022-12-05_22h30.50.420,vts_reward_expectancy_bt,2022.2.4,MacIntel,60.0024001,Chrome,1440,900,,,l,0.8326,10,308,1,1,7,19,8,1,0,0,1,0,0,0,0,1,hexagon,star,,,,,,,,,,,,,,,,,,,,,,,,,,,,,,,,,,,,,,,,,,,,,,,,,,,,,,
296056,2022-12-05_22h30.50.420,vts_reward_expectancy_bt,2022.2.4,MacIntel,60.0024001,Chrome,1440,900,,,l,0.7506,1,309,1,1,8,20,6,1,0,0,1,0,1,0,0,0,hexagon,triangle,,,,,,,,,,,,,,,,,,,,,,,,,,,,,,,,,,,,,,,,,,,,,,,,,,,,,,
296056,2022-12-05_22h30.50.420,vts_reward_expectancy_bt,2022.2.4,MacIntel,60.0024001,Chrome,1440,900,,,a,0.7696,1,310,1,1,9,21,10,1,0,0,0,1,0,1,0,0,star ,circle,,,,,,,,,,,,,,,,,,,,,,,,,,,,,,,,,,,,,,,,,,,,,,,,,,,,,,
296056,2022-12-05_22h30.50.420,vts_reward_expectancy_bt,2022.2.4,MacIntel,60.0024001,Chrome,1440,900,,,l,0.583,10,320,1,1,10,22,7,1,0,0,1,0,0,1,0,0,hexagon,circle,,,,,,,,,,,,,,,,,,,,,,,,,,,,,,,,,,,,,,,,,,,,,,,,,,,,,,
296056,2022-12-05_22h30.50.420,vts_reward_expectancy_bt,2022.2.4,MacIntel,60.0024001,Chrome,1440,900,,,a,0.6545,10,330,1,1,11,23,11,1,0,0,0,1,0,0,1,0,star,hexagon,,,,,,,,,,,,,,,,,,,,,,,,,,,,,,,,,,,,,,,,,,,,,,,,,,,,,,
296056,2022-12-05_22h30.50.420,vts_reward_expectancy_bt,2022.2.4,MacIntel,60.0024001,Chrome,1440,900,,,l,0.6541,10,340,1,2,0,24,10,1,0,0,0,1,0,1,0,0,star ,circle,,,,,,,,,,,,,,,,,,,,,,,,,,,,,,,,,,,,,,,,,,,,,,,,,,,,,,
296056,2022-12-05_22h30.50.420,vts_reward_expectancy_bt,2022.2.4,MacIntel,60.0024001,Chrome,1440,900,,,l,0.5833,1,341,1,2,1,25,5,1,0,1,0,0,0,0,0,1,circle,star,,,,,,,,,,,,,,,,,,,,,,,,,,,,,,,,,,,,,,,,,,,,,,,,,,,,,,
296056,2022-12-05_22h30.50.420,vts_reward_expectancy_bt,2022.2.4,MacIntel,60.0024001,Chrome,1440,900,,,a,1.5203,1,342,1,2,2,26,7,1,0,0,1,0,0,1,0,0,hexagon,circle,,,,,,,,,,,,,,,,,,,,,,,,,,,,,,,,,,,,,,,,,,,,,,,,,,,,,,
296056,2022-12-05_22h30.50.420,vts_reward_expectancy_bt,2022.2.4,MacIntel,60.0024001,Chrome,1440,900,,,l,1.137,10,352,1,2,3,27,4,1,0,1,0,0,0,0,1,0,circle,hexagon,,,,,,,,,,,,,,,,,,,,,,,,,,,,,,,,,,,,,,,,,,,,,,,,,,,,,,
296056,2022-12-05_22h30.50.420,vts_reward_expectancy_bt,2022.2.4,MacIntel,60.0024001,Chrome,1440,900,,,l,0.9169,1,353,1,2,4,28,6,1,0,0,1,0,1,0,0,0,hexagon,triangle,,,,,,,,,,,,,,,,,,,,,,,,,,,,,,,,,,,,,,,,,,,,,,,,,,,,,,
296056,2022-12-05_22h30.50.420,vts_reward_expectancy_bt,2022.2.4,MacIntel,60.0024001,Chrome,1440,900,,,a,0.5013,10,363,1,2,5,29,0,1,1,0,0,0,0,1,0,0,triangle,circle,,,,,,,,,,,,,,,,,,,,,,,,,,,,,,,,,,,,,,,,,,,,,,,,,,,,,,
296056,2022-12-05_22h30.50.420,vts_reward_expectancy_bt,2022.2.4,MacIntel,60.0024001,Chrome,1440,900,,,l,0.6642,10,373,1,2,6,30,1,1,1,0,0,0,0,0,1,0,triangle,hexagon,,,,,,,,,,,,,,,,,,,,,,,,,,,,,,,,,,,,,,,,,,,,,,,,,,,,,,
296056,2022-12-05_22h30.50.420,vts_reward_expectancy_bt,2022.2.4,MacIntel,60.0024001,Chrome,1440,900,,,a,1.567,1,374,1,2,7,31,9,1,0,0,0,1,1,0,0,0,star,triangle,,,,,,,,,,,,,,,,,,,,,,,,,,,,,,,,,,,,,,,,,,,,,,,,,,,,,,
296056,2022-12-05_22h30.50.420,vts_reward_expectancy_bt,2022.2.4,MacIntel,60.0024001,Chrome,1440,900,,,l,1.0842,10,384,1,2,8,32,11,1,0,0,0,1,0,0,1,0,star,hexagon,,,,,,,,,,,,,,,,,,,,,,,,,,,,,,,,,,,,,,,,,,,,,,,,,,,,,,
296056,2022-12-05_22h30.50.420,vts_reward_expectancy_bt,2022.2.4,MacIntel,60.0024001,Chrome,1440,900,,,a,1.3165,1,385,1,2,9,33,8,1,0,0,1,0,0,0,0,1,hexagon,star,,,,,,,,,,,,,,,,,,,,,,,,,,,,,,,,,,,,,,,,,,,,,,,,,,,,,,
296056,2022-12-05_22h30.50.420,vts_reward_expectancy_bt,2022.2.4,MacIntel,60.0024001,Chrome,1440,900,,,l,0.7035,10,395,1,2,10,34,2,1,1,0,0,0,0,0,0,1,triangle,star,,,,,,,,,,,,,,,,,,,,,,,,,,,,,,,,,,,,,,,,,,,,,,,,,,,,,,
296056,2022-12-05_22h30.50.420,vts_reward_expectancy_bt,2022.2.4,MacIntel,60.0024001,Chrome,1440,900,,,a,1.9689,10,405,1,2,11,35,3,1,0,1,0,0,1,0,0,0,circle,triangle,,,,,,,,,,,,,,,,,,,,,,,,,,,,,,,,,,,,,,,,,,,,,,,,,,,,,,
296056,2022-12-05_22h30.50.420,vts_reward_expectancy_bt,2022.2.4,MacIntel,60.0024001,Chrome,1440,900,,,a,1.7793,1,406,2,0,0,0,7,1,0,0,1,0,0,1,0,0,hexagon,circle,,,,,,,,,,,,,,,,,,,,,,,,,,,,,,,,,,,,,,,,,,,,,,,,,,,,,,
296056,2022-12-05_22h30.50.420,vts_reward_expectancy_bt,2022.2.4,MacIntel,60.0024001,Chrome,1440,900,,,l,0.4525,10,416,2,0,1,1,4,1,0,1,0,0,0,0,1,0,circle,hexagon,,,,,,,,,,,,,,,,,,,,,,,,,,,,,,,,,,,,,,,,,,,,,,,,,,,,,,
296056,2022-12-05_22h30.50.420,vts_reward_expectancy_bt,2022.2.4,MacIntel,60.0024001,Chrome,1440,900,,,a,0.4531,1,417,2,0,2,2,6,1,0,0,1,0,1,0,0,0,hexagon,triangle,,,,,,,,,,,,,,,,,,,,,,,,,,,,,,,,,,,,,,,,,,,,,,,,,,,,,,
296056,2022-12-05_22h30.50.420,vts_reward_expectancy_bt,2022.2.4,MacIntel,60.0024001,Chrome,1440,900,,,l,0.4333,10,427,2,0,3,3,3,1,0,1,0,0,1,0,0,0,circle,triangle,,,,,,,,,,,,,,,,,,,,,,,,,,,,,,,,,,,,,,,,,,,,,,,,,,,,,,
296056,2022-12-05_22h30.50.420,vts_reward_expectancy_bt,2022.2.4,MacIntel,60.0024001,Chrome,1440,900,,,l,0.4485,10,437,2,0,4,4,5,1,0,1,0,0,0,0,0,1,circle,star,,,,,,,,,,,,,,,,,,,,,,,,,,,,,,,,,,,,,,,,,,,,,,,,,,,,,,
296056,2022-12-05_22h30.50.420,vts_reward_expectancy_bt,2022.2.4,MacIntel,60.0024001,Chrome,1440,900,,,l,0.3868,10,447,2,0,5,5,10,1,0,0,0,1,0,1,0,0,star ,circle,,,,,,,,,,,,,,,,,,,,,,,,,,,,,,,,,,,,,,,,,,,,,,,,,,,,,,
296056,2022-12-05_22h30.50.420,vts_reward_expectancy_bt,2022.2.4,MacIntel,60.0024001,Chrome,1440,900,,,l,0.3688,1,448,2,0,6,6,2,1,1,0,0,0,0,0,0,1,triangle,star,,,,,,,,,,,,,,,,,,,,,,,,,,,,,,,,,,,,,,,,,,,,,,,,,,,,,,
296056,2022-12-05_22h30.50.420,vts_reward_expectancy_bt,2022.2.4,MacIntel,60.0024001,Chrome,1440,900,,,a,0.4172,1,449,2,0,7,7,8,1,0,0,1,0,0,0,0,1,hexagon,star,,,,,,,,,,,,,,,,,,,,,,,,,,,,,,,,,,,,,,,,,,,,,,,,,,,,,,
296056,2022-12-05_22h30.50.420,vts_reward_expectancy_bt,2022.2.4,MacIntel,60.0024001,Chrome,1440,900,,,a,0.3835,10,459,2,0,8,8,0,1,1,0,0,0,0,1,0,0,triangle,circle,,,,,,,,,,,,,,,,,,,,,,,,,,,,,,,,,,,,,,,,,,,,,,,,,,,,,,
296056,2022-12-05_22h30.50.420,vts_reward_expectancy_bt,2022.2.4,MacIntel,60.0024001,Chrome,1440,900,,,l,0.5507,1,460,2,0,9,9,11,1,0,0,0,1,0,0,1,0,star,hexagon,,,,,,,,,,,,,,,,,,,,,,,,,,,,,,,,,,,,,,,,,,,,,,,,,,,,,,
296056,2022-12-05_22h30.50.420,vts_reward_expectancy_bt,2022.2.4,MacIntel,60.0024001,Chrome,1440,900,,,a,0.7173,10,470,2,0,10,10,9,1,0,0,0,1,1,0,0,0,star,triangle,,,,,,,,,,,,,,,,,,,,,,,,,,,,,,,,,,,,,,,,,,,,,,,,,,,,,,
296056,2022-12-05_22h30.50.420,vts_reward_expectancy_bt,2022.2.4,MacIntel,60.0024001,Chrome,1440,900,,,a,0.6693,1,471,2,0,11,11,1,1,1,0,0,0,0,0,1,0,triangle,hexagon,,,,,,,,,,,,,,,,,,,,,,,,,,,,,,,,,,,,,,,,,,,,,,,,,,,,,,
296056,2022-12-05_22h30.50.420,vts_reward_expectancy_bt,2022.2.4,MacIntel,60.0024001,Chrome,1440,900,,,l,0.3003,1,472,2,1,0,12,4,1,0,1,0,0,0,0,1,0,circle,hexagon,,,,,,,,,,,,,,,,,,,,,,,,,,,,,,,,,,,,,,,,,,,,,,,,,,,,,,
296056,2022-12-05_22h30.50.420,vts_reward_expectancy_bt,2022.2.4,MacIntel,60.0024001,Chrome,1440,900,,,l,0.4164,10,482,2,1,1,13,5,1,0,1,0,0,0,0,0,1,circle,star,,,,,,,,,,,,,,,,,,,,,,,,,,,,,,,,,,,,,,,,,,,,,,,,,,,,,,
296056,2022-12-05_22h30.50.420,vts_reward_expectancy_bt,2022.2.4,MacIntel,60.0024001,Chrome,1440,900,,,l,0.6357,10,492,2,1,2,14,7,1,0,0,1,0,0,1,0,0,hexagon,circle,,,,,,,,,,,,,,,,,,,,,,,,,,,,,,,,,,,,,,,,,,,,,,,,,,,,,,
296056,2022-12-05_22h30.50.420,vts_reward_expectancy_bt,2022.2.4,MacIntel,60.0024001,Chrome,1440,900,,,l,0.5333,1,493,2,1,3,15,1,1,1,0,0,0,0,0,1,0,triangle,hexagon,,,,,,,,,,,,,,,,,,,,,,,,,,,,,,,,,,,,,,,,,,,,,,,,,,,,,,
296056,2022-12-05_22h30.50.420,vts_reward_expectancy_bt,2022.2.4,MacIntel,60.0024001,Chrome,1440,900,,,a,0.4326,10,503,2,1,4,16,11,1,0,0,0,1,0,0,1,0,star,hexagon,,,,,,,,,,,,,,,,,,,,,,,,,,,,,,,,,,,,,,,,,,,,,,,,,,,,,,
296056,2022-12-05_22h30.50.420,vts_reward_expectancy_bt,2022.2.4,MacIntel,60.0024001,Chrome,1440,900,,,l,0.8004,10,513,2,1,5,17,6,1,0,0,1,0,1,0,0,0,hexagon,triangle,,,,,,,,,,,,,,,,,,,,,,,,,,,,,,,,,,,,,,,,,,,,,,,,,,,,,,
296056,2022-12-05_22h30.50.420,vts_reward_expectancy_bt,2022.2.4,MacIntel,60.0024001,Chrome,1440,900,,,l,0.5195,1,514,2,1,6,18,2,1,1,0,0,0,0,0,0,1,triangle,star,,,,,,,,,,,,,,,,,,,,,,,,,,,,,,,,,,,,,,,,,,,,,,,,,,,,,,
296056,2022-12-05_22h30.50.420,vts_reward_expectancy_bt,2022.2.4,MacIntel,60.0024001,Chrome,1440,900,,,a,0.3166,1,515,2,1,7,19,9,1,0,0,0,1,1,0,0,0,star,triangle,,,,,,,,,,,,,,,,,,,,,,,,,,,,,,,,,,,,,,,,,,,,,,,,,,,,,,
296056,2022-12-05_22h30.50.420,vts_reward_expectancy_bt,2022.2.4,MacIntel,60.0024001,Chrome,1440,900,,,l,0.5508,10,525,2,1,8,20,8,1,0,0,1,0,0,0,0,1,hexagon,star,,,,,,,,,,,,,,,,,,,,,,,,,,,,,,,,,,,,,,,,,,,,,,,,,,,,,,
296056,2022-12-05_22h30.50.420,vts_reward_expectancy_bt,2022.2.4,MacIntel,60.0024001,Chrome,1440,900,,,a,0.6166,1,526,2,1,9,21,3,1,0,1,0,0,1,0,0,0,circle,triangle,,,,,,,,,,,,,,,,,,,,,,,,,,,,,,,,,,,,,,,,,,,,,,,,,,,,,,
296056,2022-12-05_22h30.50.420,vts_reward_expectancy_bt,2022.2.4,MacIntel,60.0024001,Chrome,1440,900,,,l,1.2682,10,536,2,1,10,22,0,1,1,0,0,0,0,1,0,0,triangle,circle,,,,,,,,,,,,,,,,,,,,,,,,,,,,,,,,,,,,,,,,,,,,,,,,,,,,,,
296056,2022-12-05_22h30.50.420,vts_reward_expectancy_bt,2022.2.4,MacIntel,60.0024001,Chrome,1440,900,,,l,0.4502,10,546,2,1,11,23,10,1,0,0,0,1,0,1,0,0,star ,circle,,,,,,,,,,,,,,,,,,,,,,,,,,,,,,,,,,,,,,,,,,,,,,,,,,,,,,
296056,2022-12-05_22h30.50.420,vts_reward_expectancy_bt,2022.2.4,MacIntel,60.0024001,Chrome,1440,900,,,l,0.4695,1,547,2,2,0,24,3,1,0,1,0,0,1,0,0,0,circle,triangle,,,,,,,,,,,,,,,,,,,,,,,,,,,,,,,,,,,,,,,,,,,,,,,,,,,,,,
296056,2022-12-05_22h30.50.420,vts_reward_expectancy_bt,2022.2.4,MacIntel,60.0024001,Chrome,1440,900,,,a,0.7182,1,548,2,2,1,25,1,1,1,0,0,0,0,0,1,0,triangle,hexagon,,,,,,,,,,,,,,,,,,,,,,,,,,,,,,,,,,,,,,,,,,,,,,,,,,,,,,
296056,2022-12-05_22h30.50.420,vts_reward_expectancy_bt,2022.2.4,MacIntel,60.0024001,Chrome,1440,900,,,l,0.5367,10,558,2,2,2,26,2,1,1,0,0,0,0,0,0,1,triangle,star,,,,,,,,,,,,,,,,,,,,,,,,,,,,,,,,,,,,,,,,,,,,,,,,,,,,,,
296056,2022-12-05_22h30.50.420,vts_reward_expectancy_bt,2022.2.4,MacIntel,60.0024001,Chrome,1440,900,,,l,0.5223,1,559,2,2,3,27,10,1,0,0,0,1,0,1,0,0,star ,circle,,,,,,,,,,,,,,,,,,,,,,,,,,,,,,,,,,,,,,,,,,,,,,,,,,,,,,
296056,2022-12-05_22h30.50.420,vts_reward_expectancy_bt,2022.2.4,MacIntel,60.0024001,Chrome,1440,900,,,a,0.934,1,560,2,2,4,28,7,1,0,0,1,0,0,1,0,0,hexagon,circle,,,,,,,,,,,,,,,,,,,,,,,,,,,,,,,,,,,,,,,,,,,,,,,,,,,,,,
296056,2022-12-05_22h30.50.420,vts_reward_expectancy_bt,2022.2.4,MacIntel,60.0024001,Chrome,1440,900,,,l,0.4007,1,561,2,2,5,29,8,1,0,0,1,0,0,0,0,1,hexagon,star,,,,,,,,,,,,,,,,,,,,,,,,,,,,,,,,,,,,,,,,,,,,,,,,,,,,,,
296056,2022-12-05_22h30.50.420,vts_reward_expectancy_bt,2022.2.4,MacIntel,60.0024001,Chrome,1440,900,,,a,0.3841,10,571,2,2,6,30,5,1,0,1,0,0,0,0,0,1,circle,star,,,,,,,,,,,,,,,,,,,,,,,,,,,,,,,,,,,,,,,,,,,,,,,,,,,,,,
296056,2022-12-05_22h30.50.420,vts_reward_expectancy_bt,2022.2.4,MacIntel,60.0024001,Chrome,1440,900,,,a,0.6191,10,581,2,2,7,31,11,1,0,0,0,1,0,0,1,0,star,hexagon,,,,,,,,,,,,,,,,,,,,,,,,,,,,,,,,,,,,,,,,,,,,,,,,,,,,,,
296056,2022-12-05_22h30.50.420,vts_reward_expectancy_bt,2022.2.4,MacIntel,60.0024001,Chrome,1440,900,,,l,0.401,1,582,2,2,8,32,0,1,1,0,0,0,0,1,0,0,triangle,circle,,,,,,,,,,,,,,,,,,,,,,,,,,,,,,,,,,,,,,,,,,,,,,,,,,,,,,
296056,2022-12-05_22h30.50.420,vts_reward_expectancy_bt,2022.2.4,MacIntel,60.0024001,Chrome,1440,900,,,a,0.5043,1,583,2,2,9,33,9,1,0,0,0,1,1,0,0,0,star,triangle,,,,,,,,,,,,,,,,,,,,,,,,,,,,,,,,,,,,,,,,,,,,,,,,,,,,,,
296056,2022-12-05_22h30.50.420,vts_reward_expectancy_bt,2022.2.4,MacIntel,60.0024001,Chrome,1440,900,,,l,1.0673,1,584,2,2,10,34,4,1,0,1,0,0,0,0,1,0,circle,hexagon,,,,,,,,,,,,,,,,,,,,,,,,,,,,,,,,,,,,,,,,,,,,,,,,,,,,,,
296056,2022-12-05_22h30.50.420,vts_reward_expectancy_bt,2022.2.4,MacIntel,60.0024001,Chrome,1440,900,,,a,0.5544,1,585,2,2,11,35,6,1,0,0,1,0,1,0,0,0,hexagon,triangle,,,,,,,,,,,,,,,,,,,,,,,,,,,,,,,,,,,,,,,,,,,,,,,,,,,,,,
296056,2022-12-05_22h30.50.420,vts_reward_expectancy_bt,2022.2.4,MacIntel,60.0024001,Chrome,1440,900,,,,,,,,,,,,,,,,,,,,,,,Y,132,hexagon,1,0,f,0.7993,0,0,0,0,0,1,,,,,,,,,,,,,,,,,,,,,,,,,,,,,,,,,,,,,,,,,
296056,2022-12-05_22h30.50.420,vts_reward_expectancy_bt,2022.2.4,MacIntel,60.0024001,Chrome,1440,900,,,,,,,,,,,,,,,,,,,,,,,B,167,circle,1,0,d,0.5997,0,1,0,1,0,1,,,,,,,,,,,,,,,,,,,,,,,,,,,,,,,,,,,,,,,,,
296056,2022-12-05_22h30.50.420,vts_reward_expectancy_bt,2022.2.4,MacIntel,60.0024001,Chrome,1440,900,,,,,,,,,,,,,,,,,,,,,,,D,181,star,1,0,d,0.5018,0,2,0,2,0,1,,,,,,,,,,,,,,,,,,,,,,,,,,,,,,,,,,,,,,,,,
296056,2022-12-05_22h30.50.420,vts_reward_expectancy_bt,2022.2.4,MacIntel,60.0024001,Chrome,1440,900,,,,,,,,,,,,,,,,,,,,,,,F,160,triangle,1,0,d,0.714,0,3,0,3,0,1,,,,,,,,,,,,,,,,,,,,,,,,,,,,,,,,,,,,,,,,,
296056,2022-12-05_22h30.50.420,vts_reward_expectancy_bt,2022.2.4,MacIntel,60.0024001,Chrome,1440,900,,,,,,,,,,,,,,,,,,,,,,,S,139,hexagon,1,0,f,0.5981,0,4,0,4,0,1,,,,,,,,,,,,,,,,,,,,,,,,,,,,,,,,,,,,,,,,,
296056,2022-12-05_22h30.50.420,vts_reward_expectancy_bt,2022.2.4,MacIntel,60.0024001,Chrome,1440,900,,,,,,,,,,,,,,,,,,,,,,,W,174,circle,1,0,f,0.5503,0,5,0,5,0,1,,,,,,,,,,,,,,,,,,,,,,,,,,,,,,,,,,,,,,,,,
296056,2022-12-05_22h30.50.420,vts_reward_expectancy_bt,2022.2.4,MacIntel,60.0024001,Chrome,1440,900,,,,,,,,,,,,,,,,,,,,,,,H,125,star,1,0,d,0.6153,0,6,0,6,0,1,,,,,,,,,,,,,,,,,,,,,,,,,,,,,,,,,,,,,,,,,
296056,2022-12-05_22h30.50.420,vts_reward_expectancy_bt,2022.2.4,MacIntel,60.0024001,Chrome,1440,900,,,,,,,,,,,,,,,,,,,,,,,U,146,triangle,1,0,f,0.6205,0,7,0,7,0,1,,,,,,,,,,,,,,,,,,,,,,,,,,,,,,,,,,,,,,,,,
296056,2022-12-05_22h30.50.420,vts_reward_expectancy_bt,2022.2.4,MacIntel,60.0024001,Chrome,1440,900,,,,,,,,,,,,,,,,,,,,,,,Y,132,circle,1,0,f,0.5329,0,8,0,8,0,1,,,,,,,,,,,,,,,,,,,,,,,,,,,,,,,,,,,,,,,,,
296056,2022-12-05_22h30.50.420,vts_reward_expectancy_bt,2022.2.4,MacIntel,60.0024001,Chrome,1440,900,,,,,,,,,,,,,,,,,,,,,,,B,167,star,1,0,d,0.4994,0,9,0,9,0,1,,,,,,,,,,,,,,,,,,,,,,,,,,,,,,,,,,,,,,,,,
296056,2022-12-05_22h30.50.420,vts_reward_expectancy_bt,2022.2.4,MacIntel,60.0024001,Chrome,1440,900,,,,,,,,,,,,,,,,,,,,,,,B,139,circle,1,0,,,1,,,,,,j,1.7326,0,0,0,0,1,,,,,,,,,,,,,,,,,,,,,,,,,,,,,,,,,,
296056,2022-12-05_22h30.50.420,vts_reward_expectancy_bt,2022.2.4,MacIntel,60.0024001,Chrome,1440,900,,,,,,,,,,,,,,,,,,,,,,,H,132,star,1,0,,,1,,,,,,j,0.6652,1,0,1,0,1,,,,,,,,,,,,,,,,,,,,,,,,,,,,,,,,,,
296056,2022-12-05_22h30.50.420,vts_reward_expectancy_bt,2022.2.4,MacIntel,60.0024001,Chrome,1440,900,,,,,,,,,,,,,,,,,,,,,,,Y,146,triangle,1,0,,,1,,,,,,j,0.9487,2,0,2,0,1,,,,,,,,,,,,,,,,,,,,,,,,,,,,,,,,,,
296056,2022-12-05_22h30.50.420,vts_reward_expectancy_bt,2022.2.4,MacIntel,60.0024001,Chrome,1440,900,,,,,,,,,,,,,,,,,,,,,,,S,125,hexagon,1,0,,,1,,,,,,j,0.6338,3,0,3,0,1,,,,,,,,,,,,,,,,,,,,,,,,,,,,,,,,,,
296056,2022-12-05_22h30.50.420,vts_reward_expectancy_bt,2022.2.4,MacIntel,60.0024001,Chrome,1440,900,,,,,,,,,,,,,,,,,,,,,,,F,181,circle,1,0,,,1,,,,,,k,0.6502,4,0,4,0,1,,,,,,,,,,,,,,,,,,,,,,,,,,,,,,,,,,
296056,2022-12-05_22h30.50.420,vts_reward_expectancy_bt,2022.2.4,MacIntel,60.0024001,Chrome,1440,900,,,,,,,,,,,,,,,,,,,,,,,U,160,star,1,0,,,1,,,,,,k,0.633,5,0,5,0,1,,,,,,,,,,,,,,,,,,,,,,,,,,,,,,,,,,
296056,2022-12-05_22h30.50.420,vts_reward_expectancy_bt,2022.2.4,MacIntel,60.0024001,Chrome,1440,900,,,,,,,,,,,,,,,,,,,,,,,D,174,triangle,1,0,,,1,,,,,,k,0.5154,6,0,6,0,1,,,,,,,,,,,,,,,,,,,,,,,,,,,,,,,,,,
296056,2022-12-05_22h30.50.420,vts_reward_expectancy_bt,2022.2.4,MacIntel,60.0024001,Chrome,1440,900,,,,,,,,,,,,,,,,,,,,,,,W,167,hexagon,1,0,,,1,,,,,,k,0.5962,7,0,7,0,1,,,,,,,,,,,,,,,,,,,,,,,,,,,,,,,,,,
296056,2022-12-05_22h30.50.420,vts_reward_expectancy_bt,2022.2.4,MacIntel,60.0024001,Chrome,1440,900,,,,,,,,,,,,,,,,,,,,,,,B,139,hexagon,1,0,,,1,,,,,,j,0.5644,8,0,8,0,1,,,,,,,,,,,,,,,,,,,,,,,,,,,,,,,,,,
296056,2022-12-05_22h30.50.420,vts_reward_expectancy_bt,2022.2.4,MacIntel,60.0024001,Chrome,1440,900,,,,,,,,,,,,,,,,,,,,,,,H,132,triangle,1,0,,,1,,,,,,j,0.4637,9,0,9,0,1,,,,,,,,,,,,,,,,,,,,,,,,,,,,,,,,,,
296056,2022-12-05_22h30.50.420,vts_reward_expectancy_bt,2022.2.4,MacIntel,60.0024001,Chrome,1440,900,,,,,0,585,,,,,,,,,,,,,,,,,S,167,circle,1,0,,,2,,,,,,,,,,,,,-1,number,NA,k,2.0498,vtsPrac,0,0,0,0,1,,,,,,,,,,,,,,,,,,,,,,,
296056,2022-12-05_22h30.50.420,vts_reward_expectancy_bt,2022.2.4,MacIntel,60.0024001,Chrome,1440,900,,,,,0,585,,,,,,,,,,,,,,,,,B,160,hexagon,1,0,,,2,,,,,,,,,,,,,switch,letter,lettSwt,d,1.0158,vtsPrac,1,0,1,0,1,,,,,,,,,,,,,,,,,,,,,,,
296056,2022-12-05_22h30.50.420,vts_reward_expectancy_bt,2022.2.4,MacIntel,60.0024001,Chrome,1440,900,,,,,0,585,,,,,,,,,,,,,,,,,F,132,circle,0,0,,,2,,,,,,,,,,,,,repeat,letter,NA,f,0.5473,vtsPrac,2,0,2,0,1,,,,,,,,,,,,,,,,,,,,,,,
296056,2022-12-05_22h30.50.420,vts_reward_expectancy_bt,2022.2.4,MacIntel,60.0024001,Chrome,1440,900,,,,,0,585,,,,,,,,,,,,,,,,,U,125,hexagon,1,1,,,2,,,,,,,,,,,,,repeat,letter,lettRpt,f,0.7491,vtsPrac,3,0,3,0,1,,,,,,,,,,,,,,,,,,,,,,,
296056,2022-12-05_22h30.50.420,vts_reward_expectancy_bt,2022.2.4,MacIntel,60.0024001,Chrome,1440,900,,,,,0,585,,,,,,,,,,,,,,,,,S,167,circle,1,0,,,2,,,,,,,,,,,,,switch,number,numSwt,k,0.9652,vtsPrac,4,0,4,0,1,,,,,,,,,,,,,,,,,,,,,,,
296056,2022-12-05_22h30.50.420,vts_reward_expectancy_bt,2022.2.4,MacIntel,60.0024001,Chrome,1440,900,,,,,0,585,,,,,,,,,,,,,,,,,B,160,star,1,0,,,2,,,,,,,,,,,,,repeat,number,numRpt,k,0.8832,vtsPrac,5,0,5,0,1,,,,,,,,,,,,,,,,,,,,,,,
296056,2022-12-05_22h30.50.420,vts_reward_expectancy_bt,2022.2.4,MacIntel,60.0024001,Chrome,1440,900,,,,,0,585,,,,,,,,,,,,,,,,,F,132,hexagon,1,0,,,2,,,,,,,,,,,,,switch,letter,lettSwt,d,0.6315,vtsPrac,6,0,6,0,1,,,,,,,,,,,,,,,,,,,,,,,
296056,2022-12-05_22h30.50.420,vts_reward_expectancy_bt,2022.2.4,MacIntel,60.0024001,Chrome,1440,900,,,,,0,585,,,,,,,,,,,,,,,,,U,125,star,1,0,,,2,,,,,,,,,,,,,repeat,letter,lettRpt,f,0.5321,vtsPrac,7,0,7,0,1,,,,,,,,,,,,,,,,,,,,,,,
296056,2022-12-05_22h30.50.420,vts_reward_expectancy_bt,2022.2.4,MacIntel,60.0024001,Chrome,1440,900,,,,,0,585,,,,,,,,,,,,,,,,,F,167,hexagon,1,0,,,2,,,,,,,,,,,,,repeat,letter,lettRpt,d,0.6464,vtsPrac,8,0,8,0,1,,,,,,,,,,,,,,,,,,,,,,,
296056,2022-12-05_22h30.50.420,vts_reward_expectancy_bt,2022.2.4,MacIntel,60.0024001,Chrome,1440,900,,,,,0,585,,,,,,,,,,,,,,,,,U,125,triangle,1,0,,,2,,,,,,,,,,,,,switch,number,numSwt,j,0.7321,vtsPrac,9,0,9,0,1,,,,,,,,,,,,,,,,,,,,,,,
296056,2022-12-05_22h30.50.420,vts_reward_expectancy_bt,2022.2.4,MacIntel,60.0024001,Chrome,1440,900,,,,,0,585,,,,,,,,,,,,,,,,,S,174,hexagon,1,0,,,2,,,,,,,,,,,,,repeat,number,numRpt,k,0.6145,vtsPrac,10,0,10,0,1,,,,,,,,,,,,,,,,,,,,,,,
296056,2022-12-05_22h30.50.420,vts_reward_expectancy_bt,2022.2.4,MacIntel,60.0024001,Chrome,1440,900,,,,,0,585,,,,,,,,,,,,,,,,,H,181,circle,1,0,,,2,,,,,,,,,,,,,switch,letter,lettSwt,d,1.066,vtsPrac,11,0,11,0,1,,,,,,,,,,,,,,,,,,,,,,,
296056,2022-12-05_22h30.50.420,vts_reward_expectancy_bt,2022.2.4,MacIntel,60.0024001,Chrome,1440,900,,,,,0,585,,,,,,,,,,,,,,,,,Y,146,star,1,0,,,2,,,,,,,,,,,,,switch,number,numSwt,j,0.8483,vtsPrac,12,0,12,0,1,,,,,,,,,,,,,,,,,,,,,,,
296056,2022-12-05_22h30.50.420,vts_reward_expectancy_bt,2022.2.4,MacIntel,60.0024001,Chrome,1440,900,,,,,0,585,,,,,,,,,,,,,,,,,D,160,circle,1,0,,,2,,,,,,,,,,,,,repeat,number,numRpt,k,0.7801,vtsPrac,13,0,13,0,1,,,,,,,,,,,,,,,,,,,,,,,
296056,2022-12-05_22h30.50.420,vts_reward_expectancy_bt,2022.2.4,MacIntel,60.0024001,Chrome,1440,900,,,,,0,585,,,,,,,,,,,,,,,,,S,167,hexagon,1,0,,,2,,,,,,,,,,,,,repeat,number,numRpt,k,0.9314,vtsPrac,14,0,14,0,1,,,,,,,,,,,,,,,,,,,,,,,
296056,2022-12-05_22h30.50.420,vts_reward_expectancy_bt,2022.2.4,MacIntel,60.0024001,Chrome,1440,900,,,,,0,585,,,,,,,,,,,,,,,,,W,132,star,1,0,,,2,,,,,,,,,,,,,switch,letter,lettSwt,f,0.5505,vtsPrac,15,0,15,0,1,,,,,,,,,,,,,,,,,,,,,,,
296056,2022-12-05_22h30.50.420,vts_reward_expectancy_bt,2022.2.4,MacIntel,60.0024001,Chrome,1440,900,,,,,0,585,,,,,,,,,,,,,,,,,S,174,circle,1,0,,,2,,,,,,,,,,,,,switch,number,numSwt,k,0.9309,vtsPrac,16,0,16,0,1,,,,,,,,,,,,,,,,,,,,,,,
296056,2022-12-05_22h30.50.420,vts_reward_expectancy_bt,2022.2.4,MacIntel,60.0024001,Chrome,1440,900,,,,,0,585,,,,,,,,,,,,,,,,,H,132,star,1,0,,,2,,,,,,,,,,,,,repeat,number,numRpt,j,0.6129,vtsPrac,17,0,17,0,1,,,,,,,,,,,,,,,,,,,,,,,
296056,2022-12-05_22h30.50.420,vts_reward_expectancy_bt,2022.2.4,MacIntel,60.0024001,Chrome,1440,900,,,,,0,585,,,,,,,,,,,,,,,,,B,146,hexagon,1,0,,,2,,,,,,,,,,,,,switch,letter,lettSwt,d,0.5176,vtsPrac,18,0,18,0,1,,,,,,,,,,,,,,,,,,,,,,,
296056,2022-12-05_22h30.50.420,vts_reward_expectancy_bt,2022.2.4,MacIntel,60.0024001,Chrome,1440,900,,,,,0,585,,,,,,,,,,,,,,,,,Y,139,circle,1,0,,,2,,,,,,,,,,,,,repeat,letter,lettRpt,f,0.6982,vtsPrac,19,0,19,0,1,,,,,,,,,,,,,,,,,,,,,,,
296056,2022-12-05_22h30.50.420,vts_reward_expectancy_bt,2022.2.4,MacIntel,60.0024001,Chrome,1440,900,,,,,0,585,,,,,,,,,,,,,,,,,S,167,star,1,0,,,2,,,,,,,,,,,,,repeat,letter,lettRpt,f,0.9982,vtsPrac,20,0,20,0,1,,,,,,,,,,,,,,,,,,,,,,,
296056,2022-12-05_22h30.50.420,vts_reward_expectancy_bt,2022.2.4,MacIntel,60.0024001,Chrome,1440,900,,,,,0,585,,,,,,,,,,,,,,,,,U,146,triangle,1,0,,,2,,,,,,,,,,,,,switch,number,numSwt,j,1.7482,vtsPrac,21,0,21,0,1,,,,,,,,,,,,,,,,,,,,,,,
296056,2022-12-05_22h30.50.420,vts_reward_expectancy_bt,2022.2.4,MacIntel,60.0024001,Chrome,1440,900,,,,,0,585,,,,,,,,,,,,,,,,,B,139,hexagon,1,0,,,2,,,,,,,,,,,,,repeat,number,numRpt,j,0.7827,vtsPrac,22,0,22,0,1,,,,,,,,,,,,,,,,,,,,,,,
296056,2022-12-05_22h30.50.420,vts_reward_expectancy_bt,2022.2.4,MacIntel,60.0024001,Chrome,1440,900,,,,,0,585,,,,,,,,,,,,,,,,,W,125,star,1,0,,,2,,,,,,,,,,,,,switch,letter,lettSwt,f,0.8156,vtsPrac,23,0,23,0,1,,,,,,,,,,,,,,,,,,,,,,,
296056,2022-12-05_22h30.50.420,vts_reward_expectancy_bt,2022.2.4,MacIntel,60.0024001,Chrome,1440,900,,,,,0,585,,,,,,,,,,,,,,,,,B,146,hexagon,1,0,,,2,,,,,,,,,,,,,repeat,letter,lettRpt,d,0.7315,vtsPrac,24,0,24,0,1,,,,,,,,,,,,,,,,,,,,,,,
296056,2022-12-05_22h30.50.420,vts_reward_expectancy_bt,2022.2.4,MacIntel,60.0024001,Chrome,1440,900,,,,,0,585,,,,,,,,,,,,,,,,,U,174,circle,1,0,,,2,,,,,,,,,,,,,repeat,letter,lettRpt,f,0.6519,vtsPrac,25,0,25,0,1,,,,,,,,,,,,,,,,,,,,,,,
296056,2022-12-05_22h30.50.420,vts_reward_expectancy_bt,2022.2.4,MacIntel,60.0024001,Chrome,1440,900,,,,,0,585,,,,,,,,,,,,,,,,,H,167,circle,1,0,,,2,,,,,,,,,,,,,switch,number,numSwt,k,1.2824,vtsPrac,26,0,26,0,1,,,,,,,,,,,,,,,,,,,,,,,
296056,2022-12-05_22h30.50.420,vts_reward_expectancy_bt,2022.2.4,MacIntel,60.0024001,Chrome,1440,900,,,,,0,585,,,,,,,,,,,,,,,,,Y,125,triangle,1,0,,,2,,,,,,,,,,,,,repeat,number,numRpt,j,0.5984,vtsPrac,27,0,27,0,1,,,,,,,,,,,,,,,,,,,,,,,
296056,2022-12-05_22h30.50.420,vts_reward_expectancy_bt,2022.2.4,MacIntel,60.0024001,Chrome,1440,900,,,,,0,585,,,,,,,,,,,,,,,,,B,174,star,1,0,,,2,,,,,,,,,,,,,switch,letter,lettSwt,d,0.5489,vtsPrac,28,0,28,0,1,,,,,,,,,,,,,,,,,,,,,,,
296056,2022-12-05_22h30.50.420,vts_reward_expectancy_bt,2022.2.4,MacIntel,60.0024001,Chrome,1440,900,,,,,0,585,,,,,,,,,,,,,,,,,H,132,hexagon,1,0,,,2,,,,,,,,,,,,,switch,number,numSwt,j,1.2498,vtsPrac,29,0,29,0,1,,,,,,,,,,,,,,,,,,,,,,,
296056,2022-12-05_22h30.50.420,vts_reward_expectancy_bt,2022.2.4,MacIntel,60.0024001,Chrome,1440,900,,,,,0,585,,,,,,,,,,,,,,,,,S,160,hexagon,1,0,,,2,,,,,,,,,,,,,repeat,number,numRpt,k,0.7991,vtsPrac,30,0,30,0,1,,,,,,,,,,,,,,,,,,,,,,,
296056,2022-12-05_22h30.50.420,vts_reward_expectancy_bt,2022.2.4,MacIntel,60.0024001,Chrome,1440,900,,,,,0,585,,,,,,,,,,,,,,,,,W,139,star,1,0,,,2,,,,,,,,,,,,,repeat,number,numRpt,j,0.8004,vtsPrac,31,0,31,0,1,,,,,,,,,,,,,,,,,,,,,,,
296056,2022-12-05_22h30.50.420,vts_reward_expectancy_bt,2022.2.4,MacIntel,60.0024001,Chrome,1440,900,,,,,,,,,,,,,,,,,,,,,,,,,,,,,,,,,,,,,,,,,,,,,,,,,,,,,,,,,,,,,,,,,,,,,,,,,,,,
296056,2022-12-05_22h30.50.420,vts_reward_expectancy_bt,2022.2.4,MacIntel,60.0024001,Chrome,1440,900,,,,,,,,,,,,,,,,,,,,,,,,,,,,,,,,,,,,,,,,,,,,,,,,,,,,,,,,,,,,,,,,,,,,,,,,,,,,
296056,2022-12-05_22h30.50.420,vts_reward_expectancy_bt,2022.2.4,MacIntel,60.0024001,Chrome,1440,900,,,,,0,585,,,,,,,,,,,,,,,,,W,181,circle,1,0,,,,,,,,,,,,,,,,switch,letter,lettSwt,f,1.1492,noRew,,,,,,0,0,0,0,0,1,,,,,,,,,,,,,,,,,
296056,2022-12-05_22h30.50.420,vts_reward_expectancy_bt,2022.2.4,MacIntel,60.0024001,Chrome,1440,900,,,,,0,585,,,,,,,,,,,,,,,,,Y,125,star,1,0,,,,,,,,,,,,,,,,switch,number,numSwt,j,1.0192,noRew,,,,,,0,1,0,1,0,1,,,,,,,,,,,,,,,,,
296056,2022-12-05_22h30.50.420,vts_reward_expectancy_bt,2022.2.4,MacIntel,60.0024001,Chrome,1440,900,,,,,0,585,,,,,,,,,,,,,,,,,D,167,circle,1,0,,,,,,,,,,,,,,,,repeat,number,numRpt,k,1.1115,noRew,,,,,,0,2,0,2,0,1,,,,,,,,,,,,,,,,,
296056,2022-12-05_22h30.50.420,vts_reward_expectancy_bt,2022.2.4,MacIntel,60.0024001,Chrome,1440,900,,,,,0,585,,,,,,,,,,,,,,,,,B,132,star,1,0,,,,,,,,,,,,,,,,repeat,number,numRpt,j,0.5963,noRew,,,,,,0,3,0,3,0,1,,,,,,,,,,,,,,,,,
296056,2022-12-05_22h30.50.420,vts_reward_expectancy_bt,2022.2.4,MacIntel,60.0024001,Chrome,1440,900,,,,,0,585,,,,,,,,,,,,,,,,,W,181,triangle,1,0,,,,,,,,,,,,,,,,switch,letter,lettSwt,f,0.5992,noRew,,,,,,0,4,0,4,0,1,,,,,,,,,,,,,,,,,
296056,2022-12-05_22h30.50.420,vts_reward_expectancy_bt,2022.2.4,MacIntel,60.0024001,Chrome,1440,900,,,,,0,585,,,,,,,,,,,,,,,,,Y,125,circle,1,0,,,,,,,,,,,,,,,,repeat,letter,lettRpt,f,1.2847,noRew,,,,,,0,5,0,5,0,1,,,,,,,,,,,,,,,,,
296056,2022-12-05_22h30.50.420,vts_reward_expectancy_bt,2022.2.4,MacIntel,60.0024001,Chrome,1440,900,,,,,0,585,,,,,,,,,,,,,,,,,D,167,circle,1,0,,,,,,,,,,,,,,,,repeat,letter,lettRpt,d,0.6652,noRew,,,,,,0,6,0,6,0,1,,,,,,,,,,,,,,,,,
296056,2022-12-05_22h30.50.420,vts_reward_expectancy_bt,2022.2.4,MacIntel,60.0024001,Chrome,1440,900,,,,,0,585,,,,,,,,,,,,,,,,,B,132,triangle,1,0,,,,,,,,,,,,,,,,switch,number,numSwt,j,0.6995,noRew,,,,,,0,7,0,7,0,1,,,,,,,,,,,,,,,,,
296056,2022-12-05_22h30.50.420,vts_reward_expectancy_bt,2022.2.4,MacIntel,60.0024001,Chrome,1440,900,,,,,0,585,,,,,,,,,,,,,,,,,Y,125,triangle,1,0,,,,,,,,,,,,,,,,switch,letter,lettSwt,f,0.5668,noRew,,,,,,0,8,0,8,0,1,,,,,,,,,,,,,,,,,
296056,2022-12-05_22h30.50.420,vts_reward_expectancy_bt,2022.2.4,MacIntel,60.0024001,Chrome,1440,900,,,,,0,585,,,,,,,,,,,,,,,,,B,160,circle,1,0,,,,,,,,,,,,,,,,repeat,letter,lettRpt,d,0.5519,noRew,,,,,,0,9,0,9,0,1,,,,,,,,,,,,,,,,,
296056,2022-12-05_22h30.50.420,vts_reward_expectancy_bt,2022.2.4,MacIntel,60.0024001,Chrome,1440,900,,,,,0,585,,,,,,,,,,,,,,,,,U,181,triangle,1,0,,,,,,,,,,,,,,,,repeat,letter,lettRpt,f,0.714,noRew,,,,,,0,10,0,10,0,1,,,,,,,,,,,,,,,,,
296056,2022-12-05_22h30.50.420,vts_reward_expectancy_bt,2022.2.4,MacIntel,60.0024001,Chrome,1440,900,,,,,0,585,,,,,,,,,,,,,,,,,H,132,hexagon,1,0,,,,,,,,,,,,,,,,switch,number,numSwt,j,0.5998,noRew,,,,,,0,11,0,11,0,1,,,,,,,,,,,,,,,,,
296056,2022-12-05_22h30.50.420,vts_reward_expectancy_bt,2022.2.4,MacIntel,60.0024001,Chrome,1440,900,,,,,0,585,,,,,,,,,,,,,,,,,W,146,circle,1,0,,,,,,,,,,,,,,,,repeat,number,numRpt,j,0.5464,noRew,,,,,,0,12,0,12,0,1,,,,,,,,,,,,,,,,,
296056,2022-12-05_22h30.50.420,vts_reward_expectancy_bt,2022.2.4,MacIntel,60.0024001,Chrome,1440,900,,,,,0,585,,,,,,,,,,,,,,,,,H,139,hexagon,1,0,,,,,,,,,,,,,,,,switch,letter,lettSwt,d,0.8321,noRew,,,,,,0,13,0,13,0,1,,,,,,,,,,,,,,,,,
296056,2022-12-05_22h30.50.420,vts_reward_expectancy_bt,2022.2.4,MacIntel,60.0024001,Chrome,1440,900,,,,,0,585,,,,,,,,,,,,,,,,,D,167,star,1,0,,,,,,,,,,,,,,,,switch,number,numSwt,k,1.3993,noRew,,,,,,0,14,0,14,0,1,,,,,,,,,,,,,,,,,
296056,2022-12-05_22h30.50.420,vts_reward_expectancy_bt,2022.2.4,MacIntel,60.0024001,Chrome,1440,900,,,,,0,585,,,,,,,,,,,,,,,,,S,181,hexagon,1,0,,,,,,,,,,,,,,,,repeat,number,numRpt,k,0.6302,noRew,,,,,,0,15,0,15,0,1,,,,,,,,,,,,,,,,,
296056,2022-12-05_22h30.50.420,vts_reward_expectancy_bt,2022.2.4,MacIntel,60.0024001,Chrome,1440,900,,,,,0,585,,,,,,,,,,,,,,,,,F,181,circle,1,0,,,,,,,,,,,,,,,,switch,letter,lettSwt,d,0.9172,noRew,,,,,,0,16,0,16,0,1,,,,,,,,,,,,,,,,,
296056,2022-12-05_22h30.50.420,vts_reward_expectancy_bt,2022.2.4,MacIntel,60.0024001,Chrome,1440,900,,,,,0,585,,,,,,,,,,,,,,,,,S,132,star,1,0,,,,,,,,,,,,,,,,switch,number,numSwt,j,0.9839,noRew,,,,,,0,17,0,17,0,1,,,,,,,,,,,,,,,,,
296056,2022-12-05_22h30.50.420,vts_reward_expectancy_bt,2022.2.4,MacIntel,60.0024001,Chrome,1440,900,,,,,0,585,,,,,,,,,,,,,,,,,Y,160,triangle,1,0,,,,,,,,,,,,,,,,repeat,number,numRpt,k,1.4654,noRew,,,,,,0,18,0,18,0,1,,,,,,,,,,,,,,,,,
296056,2022-12-05_22h30.50.420,vts_reward_expectancy_bt,2022.2.4,MacIntel,60.0024001,Chrome,1440,900,,,,,0,585,,,,,,,,,,,,,,,,,W,139,hexagon,1,0,,,,,,,,,,,,,,,,repeat,number,numRpt,j,0.6181,noRew,,,,,,0,19,0,19,0,1,,,,,,,,,,,,,,,,,
296056,2022-12-05_22h30.50.420,vts_reward_expectancy_bt,2022.2.4,MacIntel,60.0024001,Chrome,1440,900,,,,,0,585,,,,,,,,,,,,,,,,,H,146,triangle,1,0,,,,,,,,,,,,,,,,switch,letter,lettSwt,d,0.6488,noRew,,,,,,0,20,0,20,0,1,,,,,,,,,,,,,,,,,
296056,2022-12-05_22h30.50.420,vts_reward_expectancy_bt,2022.2.4,MacIntel,60.0024001,Chrome,1440,900,,,,,0,585,,,,,,,,,,,,,,,,,B,167,star,1,0,,,,,,,,,,,,,,,,repeat,letter,lettRpt,d,0.614,noRew,,,,,,0,21,0,21,0,1,,,,,,,,,,,,,,,,,
296056,2022-12-05_22h30.50.420,vts_reward_expectancy_bt,2022.2.4,MacIntel,60.0024001,Chrome,1440,900,,,,,0,585,,,,,,,,,,,,,,,,,W,174,star,1,0,,,,,,,,,,,,,,,,repeat,letter,lettRpt,f,0.9129,noRew,,,,,,0,22,0,22,0,1,,,,,,,,,,,,,,,,,
296056,2022-12-05_22h30.50.420,vts_reward_expectancy_bt,2022.2.4,MacIntel,60.0024001,Chrome,1440,900,,,,,0,585,,,,,,,,,,,,,,,,,S,125,triangle,1,0,,,,,,,,,,,,,,,,repeat,letter,lettRpt,f,0.7632,noRew,,,,,,0,23,0,23,0,1,,,,,,,,,,,,,,,,,
296056,2022-12-05_22h30.50.420,vts_reward_expectancy_bt,2022.2.4,MacIntel,60.0024001,Chrome,1440,900,,,,,0,585,,,,,,,,,,,,,,,,,W,132,circle,1,0,,,,,,,,,,,,,,,,switch,number,numSwt,j,0.5782,noRew,,,,,,0,24,0,24,0,1,,,,,,,,,,,,,,,,,
296056,2022-12-05_22h30.50.420,vts_reward_expectancy_bt,2022.2.4,MacIntel,60.0024001,Chrome,1440,900,,,,,0,585,,,,,,,,,,,,,,,,,H,160,star,1,0,,,,,,,,,,,,,,,,repeat,number,numRpt,k,0.9834,noRew,,,,,,0,25,0,25,0,1,,,,,,,,,,,,,,,,,
296056,2022-12-05_22h30.50.420,vts_reward_expectancy_bt,2022.2.4,MacIntel,60.0024001,Chrome,1440,900,,,,,0,585,,,,,,,,,,,,,,,,,F,174,circle,1,0,,,,,,,,,,,,,,,,repeat,number,numRpt,k,0.9667,noRew,,,,,,0,26,0,26,0,1,,,,,,,,,,,,,,,,,
296056,2022-12-05_22h30.50.420,vts_reward_expectancy_bt,2022.2.4,MacIntel,60.0024001,Chrome,1440,900,,,,,0,585,,,,,,,,,,,,,,,,,S,125,triangle,1,0,,,,,,,,,,,,,,,,switch,letter,lettSwt,f,0.6299,noRew,,,,,,0,27,0,27,0,1,,,,,,,,,,,,,,,,,
296056,2022-12-05_22h30.50.420,vts_reward_expectancy_bt,2022.2.4,MacIntel,60.0024001,Chrome,1440,900,,,,,0,585,,,,,,,,,,,,,,,,,U,160,triangle,1,0,,,,,,,,,,,,,,,,switch,number,numSwt,k,1.068,noRew,,,,,,0,28,0,28,0,1,,,,,,,,,,,,,,,,,
296056,2022-12-05_22h30.50.420,vts_reward_expectancy_bt,2022.2.4,MacIntel,60.0024001,Chrome,1440,900,,,,,0,585,,,,,,,,,,,,,,,,,H,174,circle,1,0,,,,,,,,,,,,,,,,repeat,number,numRpt,k,0.917,noRew,,,,,,0,29,0,29,0,1,,,,,,,,,,,,,,,,,
296056,2022-12-05_22h30.50.420,vts_reward_expectancy_bt,2022.2.4,MacIntel,60.0024001,Chrome,1440,900,,,,,0,585,,,,,,,,,,,,,,,,,Y,181,hexagon,1,0,,,,,,,,,,,,,,,,repeat,number,numRpt,k,1.0826,noRew,,,,,,0,30,0,30,0,1,,,,,,,,,,,,,,,,,
296056,2022-12-05_22h30.50.420,vts_reward_expectancy_bt,2022.2.4,MacIntel,60.0024001,Chrome,1440,900,,,,,0,585,,,,,,,,,,,,,,,,,D,139,circle,1,0,,,,,,,,,,,,,,,,switch,letter,lettSwt,d,0.6679,noRew,,,,,,0,31,0,31,0,1,,,,,,,,,,,,,,,,,
296056,2022-12-05_22h30.50.420,vts_reward_expectancy_bt,2022.2.4,MacIntel,60.0024001,Chrome,1440,900,,,,,0,585,,,,,,,,,,,,,,,,,F,146,star,1,0,,,,,,,,,,,,,,,,repeat,letter,lettRpt,d,1.0195,noRew,,,,,,0,32,0,32,0,1,,,,,,,,,,,,,,,,,
296056,2022-12-05_22h30.50.420,vts_reward_expectancy_bt,2022.2.4,MacIntel,60.0024001,Chrome,1440,900,,,,,0,585,,,,,,,,,,,,,,,,,U,160,circle,1,0,,,,,,,,,,,,,,,,repeat,letter,lettRpt,f,0.5492,noRew,,,,,,0,33,0,33,0,1,,,,,,,,,,,,,,,,,
296056,2022-12-05_22h30.50.420,vts_reward_expectancy_bt,2022.2.4,MacIntel,60.0024001,Chrome,1440,900,,,,,0,585,,,,,,,,,,,,,,,,,W,174,triangle,1,0,,,,,,,,,,,,,,,,repeat,letter,lettRpt,f,1.2488,noRew,,,,,,0,34,0,34,0,1,,,,,,,,,,,,,,,,,
296056,2022-12-05_22h30.50.420,vts_reward_expectancy_bt,2022.2.4,MacIntel,60.0024001,Chrome,1440,900,,,,,0,585,,,,,,,,,,,,,,,,,H,125,circle,1,0,,,,,,,,,,,,,,,,switch,number,numSwt,j,0.9158,noRew,,,,,,0,35,0,35,0,1,,,,,,,,,,,,,,,,,
296056,2022-12-05_22h30.50.420,vts_reward_expectancy_bt,2022.2.4,MacIntel,60.0024001,Chrome,1440,900,,,,,0,585,,,,,,,,,,,,,,,,,W,146,star,1,0,,,,,,,,,,,,,,,,repeat,number,numRpt,j,0.8339,noRew,,,,,,0,36,0,36,0,1,,,,,,,,,,,,,,,,,
296056,2022-12-05_22h30.50.420,vts_reward_expectancy_bt,2022.2.4,MacIntel,60.0024001,Chrome,1440,900,,,,,0,585,,,,,,,,,,,,,,,,,F,174,triangle,1,0,,,,,,,,,,,,,,,,repeat,number,numRpt,k,1.0315,noRew,,,,,,0,37,0,37,0,1,,,,,,,,,,,,,,,,,
296056,2022-12-05_22h30.50.420,vts_reward_expectancy_bt,2022.2.4,MacIntel,60.0024001,Chrome,1440,900,,,,,0,585,,,,,,,,,,,,,,,,,Y,167,triangle,1,0,,,,,,,,,,,,,,,,switch,letter,lettSwt,f,0.9986,noRew,,,,,,0,38,0,38,0,1,,,,,,,,,,,,,,,,,
296056,2022-12-05_22h30.50.420,vts_reward_expectancy_bt,2022.2.4,MacIntel,60.0024001,Chrome,1440,900,,,,,0,585,,,,,,,,,,,,,,,,,U,139,hexagon,1,0,,,,,,,,,,,,,,,,repeat,letter,lettRpt,f,0.7981,noRew,,,,,,0,39,0,39,0,1,,,,,,,,,,,,,,,,,
296056,2022-12-05_22h30.50.420,vts_reward_expectancy_bt,2022.2.4,MacIntel,60.0024001,Chrome,1440,900,,,,,0,585,,,,,,,,,,,,,,,,,D,181,star,1,0,,,,,,,,,,,,,,,,repeat,letter,lettRpt,d,0.833,noRew,,,,,,0,40,0,40,0,1,,,,,,,,,,,,,,,,,
296056,2022-12-05_22h30.50.420,vts_reward_expectancy_bt,2022.2.4,MacIntel,60.0024001,Chrome,1440,900,,,,,0,585,,,,,,,,,,,,,,,,,U,132,circle,1,0,,,,,,,,,,,,,,,,switch,number,numSwt,j,0.6693,noRew,,,,,,0,41,0,41,0,1,,,,,,,,,,,,,,,,,
296056,2022-12-05_22h30.50.420,vts_reward_expectancy_bt,2022.2.4,MacIntel,60.0024001,Chrome,1440,900,,,,,0,585,,,,,,,,,,,,,,,,,W,174,triangle,1,0,,,,,,,,,,,,,,,,repeat,number,numRpt,k,0.9958,noRew,,,,,,0,42,0,42,0,1,,,,,,,,,,,,,,,,,
296056,2022-12-05_22h30.50.420,vts_reward_expectancy_bt,2022.2.4,MacIntel,60.0024001,Chrome,1440,900,,,,,0,585,,,,,,,,,,,,,,,,,Y,167,star,1,0,,,,,,,,,,,,,,,,switch,letter,lettSwt,f,1.2989,noRew,,,,,,0,43,0,43,0,1,,,,,,,,,,,,,,,,,
296056,2022-12-05_22h30.50.420,vts_reward_expectancy_bt,2022.2.4,MacIntel,60.0024001,Chrome,1440,900,,,,,0,585,,,,,,,,,,,,,,,,,B,139,circle,1,0,,,,,,,,,,,,,,,,repeat,letter,lettRpt,d,0.7988,noRew,,,,,,0,44,0,44,0,1,,,,,,,,,,,,,,,,,
296056,2022-12-05_22h30.50.420,vts_reward_expectancy_bt,2022.2.4,MacIntel,60.0024001,Chrome,1440,900,,,,,0,585,,,,,,,,,,,,,,,,,Y,146,hexagon,1,0,,,,,,,,,,,,,,,,repeat,letter,lettRpt,f,1.1992,noRew,,,,,,0,45,0,45,0,1,,,,,,,,,,,,,,,,,
296056,2022-12-05_22h30.50.420,vts_reward_expectancy_bt,2022.2.4,MacIntel,60.0024001,Chrome,1440,900,,,,,0,585,,,,,,,,,,,,,,,,,H,174,star,1,0,,,,,,,,,,,,,,,,switch,number,numSwt,k,0.9344,noRew,,,,,,0,46,0,46,0,1,,,,,,,,,,,,,,,,,
296056,2022-12-05_22h30.50.420,vts_reward_expectancy_bt,2022.2.4,MacIntel,60.0024001,Chrome,1440,900,,,,,0,585,,,,,,,,,,,,,,,,,S,160,circle,1,0,,,,,,,,,,,,,,,,repeat,number,numRpt,k,0.9108,noRew,,,,,,0,47,0,47,0,1,,,,,,,,,,,,,,,,,
296056,2022-12-05_22h30.50.420,vts_reward_expectancy_bt,2022.2.4,MacIntel,60.0024001,Chrome,1440,900,,,,,0,585,,,,,,,,,,,,,,,,,U,125,triangle,1,0,,,,,,,,,,,,,,,,repeat,number,numRpt,j,0.6649,noRew,,,,,,0,48,0,48,0,1,,,,,,,,,,,,,,,,,
296056,2022-12-05_22h30.50.420,vts_reward_expectancy_bt,2022.2.4,MacIntel,60.0024001,Chrome,1440,900,,,,,0,585,,,,,,,,,,,,,,,,,D,181,hexagon,1,0,,,,,,,,,,,,,,,,switch,letter,lettSwt,d,1.3855,noRew,,,,,,0,49,0,49,0,1,,,,,,,,,,,,,,,,,
296056,2022-12-05_22h30.50.420,vts_reward_expectancy_bt,2022.2.4,MacIntel,60.0024001,Chrome,1440,900,,,,,0,585,,,,,,,,,,,,,,,,,W,139,circle,1,0,,,,,,,,,,,,,,,,repeat,letter,lettRpt,f,1.5171,noRew,,,,,,0,50,0,50,0,1,,,,,,,,,,,,,,,,,
296056,2022-12-05_22h30.50.420,vts_reward_expectancy_bt,2022.2.4,MacIntel,60.0024001,Chrome,1440,900,,,,,0,585,,,,,,,,,,,,,,,,,B,146,triangle,1,0,,,,,,,,,,,,,,,,switch,number,numSwt,j,0.9166,noRew,,,,,,0,51,0,51,0,1,,,,,,,,,,,,,,,,,
296056,2022-12-05_22h30.50.420,vts_reward_expectancy_bt,2022.2.4,MacIntel,60.0024001,Chrome,1440,900,,,,,0,585,,,,,,,,,,,,,,,,,Y,146,star,1,0,,,,,,,,,,,,,,,,repeat,number,numRpt,j,1.0538,noRew,,,,,,0,52,0,52,0,1,,,,,,,,,,,,,,,,,
296056,2022-12-05_22h30.50.420,vts_reward_expectancy_bt,2022.2.4,MacIntel,60.0024001,Chrome,1440,900,,,,,0,585,,,,,,,,,,,,,,,,,H,167,circle,1,0,,,,,,,,,,,,,,,,switch,letter,lettSwt,d,0.5816,noRew,,,,,,0,53,0,53,0,1,,,,,,,,,,,,,,,,,
296056,2022-12-05_22h30.50.420,vts_reward_expectancy_bt,2022.2.4,MacIntel,60.0024001,Chrome,1440,900,,,,,0,585,,,,,,,,,,,,,,,,,F,160,circle,1,0,,,,,,,,,,,,,,,,repeat,letter,lettRpt,d,0.8508,noRew,,,,,,0,54,0,54,0,1,,,,,,,,,,,,,,,,,
296056,2022-12-05_22h30.50.420,vts_reward_expectancy_bt,2022.2.4,MacIntel,60.0024001,Chrome,1440,900,,,,,0,585,,,,,,,,,,,,,,,,,U,125,hexagon,1,0,,,,,,,,,,,,,,,,switch,number,numSwt,j,0.7324,noRew,,,,,,0,55,0,55,0,1,,,,,,,,,,,,,,,,,
296056,2022-12-05_22h30.50.420,vts_reward_expectancy_bt,2022.2.4,MacIntel,60.0024001,Chrome,1440,900,,,,,0,585,,,,,,,,,,,,,,,,,H,160,hexagon,1,0,,,,,,,,,,,,,,,,repeat,number,numRpt,k,0.6812,noRew,,,,,,0,56,0,56,0,1,,,,,,,,,,,,,,,,,
296056,2022-12-05_22h30.50.420,vts_reward_expectancy_bt,2022.2.4,MacIntel,60.0024001,Chrome,1440,900,,,,,0,585,,,,,,,,,,,,,,,,,W,167,star,1,0,,,,,,,,,,,,,,,,repeat,number,numRpt,k,0.7486,noRew,,,,,,0,57,0,57,0,1,,,,,,,,,,,,,,,,,
296056,2022-12-05_22h30.50.420,vts_reward_expectancy_bt,2022.2.4,MacIntel,60.0024001,Chrome,1440,900,,,,,0,585,,,,,,,,,,,,,,,,,D,139,circle,1,0,,,,,,,,,,,,,,,,switch,letter,lettSwt,d,0.6298,noRew,,,,,,0,58,0,58,0,1,,,,,,,,,,,,,,,,,
296056,2022-12-05_22h30.50.420,vts_reward_expectancy_bt,2022.2.4,MacIntel,60.0024001,Chrome,1440,900,,,,,0,585,,,,,,,,,,,,,,,,,S,132,star,1,0,,,,,,,,,,,,,,,,repeat,letter,lettRpt,f,0.6487,noRew,,,,,,0,59,0,59,0,1,,,,,,,,,,,,,,,,,
296056,2022-12-05_22h30.50.420,vts_reward_expectancy_bt,2022.2.4,MacIntel,60.0024001,Chrome,1440,900,,,,,0,585,,,,,,,,,,,,,,,,,W,125,star,1,0,,,,,,,,,,,,,,,,switch,number,numSwt,j,1.3486,noRew,,,,,,0,60,0,60,0,1,,,,,,,,,,,,,,,,,
296056,2022-12-05_22h30.50.420,vts_reward_expectancy_bt,2022.2.4,MacIntel,60.0024001,Chrome,1440,900,,,,,0,585,,,,,,,,,,,,,,,,,Y,139,hexagon,1,0,,,,,,,,,,,,,,,,repeat,number,numRpt,j,0.801,noRew,,,,,,0,61,0,61,0,1,,,,,,,,,,,,,,,,,
296056,2022-12-05_22h30.50.420,vts_reward_expectancy_bt,2022.2.4,MacIntel,60.0024001,Chrome,1440,900,,,,,0,585,,,,,,,,,,,,,,,,,U,146,triangle,1,0,,,,,,,,,,,,,,,,switch,letter,lettSwt,f,0.6811,noRew,,,,,,0,62,0,62,0,1,,,,,,,,,,,,,,,,,
296056,2022-12-05_22h30.50.420,vts_reward_expectancy_bt,2022.2.4,MacIntel,60.0024001,Chrome,1440,900,,,,,0,585,,,,,,,,,,,,,,,,,B,132,hexagon,1,0,,,,,,,,,,,,,,,,repeat,letter,lettRpt,d,0.5816,noRew,,,,,,0,63,0,63,0,1,,,,,,,,,,,,,,,,,
296056,2022-12-05_22h30.50.420,vts_reward_expectancy_bt,2022.2.4,MacIntel,60.0024001,Chrome,1440,900,,,,,,,,,,,,,,,,,,,,,,,,,,,,,,,,,,,,,,,,,,,,,,,,,,,,,,,,,,,,,,,,,,,,,,,,,,,,
296056,2022-12-05_22h30.50.420,vts_reward_expectancy_bt,2022.2.4,MacIntel,60.0024001,Chrome,1440,900,,,,,0,585,,,,,,,,,,,,,,,,,W,167,circle,1,0,,,,,,,,,,,,,,,,switch,number,numSwt,k,0.8171,Hi,,,,,,0,,,,,,space,7.6351,low,0,0,0,0,1,,,,,,,,,
296056,2022-12-05_22h30.50.420,vts_reward_expectancy_bt,2022.2.4,MacIntel,60.0024001,Chrome,1440,900,,,,,0,585,,,,,,,,,,,,,,,,,F,181,star,0,0,,,,,,,,,,,,,,,,repeat,number,NA,j,0.6224,Hi,,,,,,0,,,,,,,,low,1,0,1,0,1,,,,,,,,,
296056,2022-12-05_22h30.50.420,vts_reward_expectancy_bt,2022.2.4,MacIntel,60.0024001,Chrome,1440,900,,,,,1,586,,,,,,,,,,,,,,,,,B,132,hexagon,1,1,,,,,,,,,,,,,,,,switch,letter,lettSwt,d,0.4317,Lo,,,,,,0,,,,,,,,low,2,0,2,0,1,,,,,,,,,
296056,2022-12-05_22h30.50.420,vts_reward_expectancy_bt,2022.2.4,MacIntel,60.0024001,Chrome,1440,900,,,,,1,587,,,,,,,,,,,,,,,,,Y,146,triangle,1,0,,,,,,,,,,,,,,,,repeat,letter,lettRpt,f,0.5356,Lo,,,,,,0,,,,,,,,low,3,0,3,0,1,,,,,,,,,
296056,2022-12-05_22h30.50.420,vts_reward_expectancy_bt,2022.2.4,MacIntel,60.0024001,Chrome,1440,900,,,,,0,587,,,,,,,,,,,,,,,,,H,125,circle,1,0,,,,,,,,,,,,,,,,switch,number,numSwt,j,1.1292,Hi,,,,,,0,,,,,,,,low,4,0,4,0,1,,,,,,,,,
296056,2022-12-05_22h30.50.420,vts_reward_expectancy_bt,2022.2.4,MacIntel,60.0024001,Chrome,1440,900,,,,,0,587,,,,,,,,,,,,,,,,,S,160,star,1,0,,,,,,,,,,,,,,,,switch,letter,lettSwt,f,0.6496,Hi,,,,,,0,,,,,,,,low,5,0,5,0,1,,,,,,,,,
296056,2022-12-05_22h30.50.420,vts_reward_expectancy_bt,2022.2.4,MacIntel,60.0024001,Chrome,1440,900,,,,,1,588,,,,,,,,,,,,,,,,,U,174,hexagon,1,0,,,,,,,,,,,,,,,,repeat,letter,lettRpt,f,0.4988,Lo,,,,,,0,,,,,,,,low,6,0,6,0,1,,,,,,,,,
296056,2022-12-05_22h30.50.420,vts_reward_expectancy_bt,2022.2.4,MacIntel,60.0024001,Chrome,1440,900,,,,,1,589,,,,,,,,,,,,,,,,,D,139,triangle,1,0,,,,,,,,,,,,,,,,repeat,letter,lettRpt,d,0.6818,Lo,,,,,,0,,,,,,,,low,7,0,7,0,1,,,,,,,,,
296056,2022-12-05_22h30.50.420,vts_reward_expectancy_bt,2022.2.4,MacIntel,60.0024001,Chrome,1440,900,,,,,1,590,,,,,,,,,,,,,,,,,W,167,hexagon,1,0,,,,,,,,,,,,,,,,switch,number,numSwt,k,0.6307,Lo,,,,,,0,,,,,,,,low,8,0,8,0,1,,,,,,,,,
296056,2022-12-05_22h30.50.420,vts_reward_expectancy_bt,2022.2.4,MacIntel,60.0024001,Chrome,1440,900,,,,,10,600,,,,,,,,,,,,,,,,,F,181,circle,1,0,,,,,,,,,,,,,,,,repeat,number,numRpt,k,0.582,Hi,,,,,,0,,,,,,,,low,9,0,9,0,1,,,,,,,,,
296056,2022-12-05_22h30.50.420,vts_reward_expectancy_bt,2022.2.4,MacIntel,60.0024001,Chrome,1440,900,,,,,10,610,,,,,,,,,,,,,,,,,B,132,triangle,1,0,,,,,,,,,,,,,,,,repeat,number,numRpt,j,0.6485,Lo,,,,,,0,,,,,,,,low,10,0,10,0,1,,,,,,,,,
296056,2022-12-05_22h30.50.420,vts_reward_expectancy_bt,2022.2.4,MacIntel,60.0024001,Chrome,1440,900,,,,,10,620,,,,,,,,,,,,,,,,,Y,146,star,1,0,,,,,,,,,,,,,,,,switch,letter,lettSwt,f,0.5492,Hi,,,,,,0,,,,,,,,low,11,0,11,0,1,,,,,,,,,
296056,2022-12-05_22h30.50.420,vts_reward_expectancy_bt,2022.2.4,MacIntel,60.0024001,Chrome,1440,900,,,,,1,621,,,,,,,,,,,,,,,,,H,125,star,1,0,,,,,,,,,,,,,,,,repeat,letter,lettRpt,d,0.6348,Hi,,,,,,0,,,,,,,,low,12,0,12,0,1,,,,,,,,,
296056,2022-12-05_22h30.50.420,vts_reward_expectancy_bt,2022.2.4,MacIntel,60.0024001,Chrome,1440,900,,,,,1,622,,,,,,,,,,,,,,,,,S,160,triangle,1,0,,,,,,,,,,,,,,,,switch,number,numSwt,k,0.6652,Lo,,,,,,0,,,,,,,,low,13,0,13,0,1,,,,,,,,,
296056,2022-12-05_22h30.50.420,vts_reward_expectancy_bt,2022.2.4,MacIntel,60.0024001,Chrome,1440,900,,,,,0,622,,,,,,,,,,,,,,,,,U,174,circle,1,0,,,,,,,,,,,,,,,,repeat,number,numRpt,k,0.8274,Hi,,,,,,0,,,,,,,,low,14,0,14,0,1,,,,,,,,,
296056,2022-12-05_22h30.50.420,vts_reward_expectancy_bt,2022.2.4,MacIntel,60.0024001,Chrome,1440,900,,,,,10,632,,,,,,,,,,,,,,,,,D,139,hexagon,1,0,,,,,,,,,,,,,,,,switch,letter,lettSwt,d,0.499,Lo,,,,,,0,,,,,,,,low,15,0,15,0,1,,,,,,,,,
296056,2022-12-05_22h30.50.420,vts_reward_expectancy_bt,2022.2.4,MacIntel,60.0024001,Chrome,1440,900,,,,,1,633,,,,,,,,,,,,,,,,,W,125,triangle,1,0,,,,,,,,,,,,,,,,repeat,letter,lettRpt,f,0.4816,Lo,,,,,,0,,,,,,,,low,16,0,16,0,1,,,,,,,,,
296056,2022-12-05_22h30.50.420,vts_reward_expectancy_bt,2022.2.4,MacIntel,60.0024001,Chrome,1440,900,,,,,10,643,,,,,,,,,,,,,,,,,B,160,circle,1,0,,,,,,,,,,,,,,,,switch,number,numSwt,k,0.665,Hi,,,,,,0,,,,,,,,low,17,0,17,0,1,,,,,,,,,
296056,2022-12-05_22h30.50.420,vts_reward_expectancy_bt,2022.2.4,MacIntel,60.0024001,Chrome,1440,900,,,,,1,644,,,,,,,,,,,,,,,,,D,132,hexagon,1,0,,,,,,,,,,,,,,,,repeat,number,numRpt,j,0.6159,Lo,,,,,,0,,,,,,,,low,18,0,18,0,1,,,,,,,,,
296056,2022-12-05_22h30.50.420,vts_reward_expectancy_bt,2022.2.4,MacIntel,60.0024001,Chrome,1440,900,,,,,0,644,,,,,,,,,,,,,,,,,H,139,star,1,0,,,,,,,,,,,,,,,,switch,letter,lettSwt,d,0.6544,Hi,,,,,,0,,,,,,,,low,19,0,19,0,1,,,,,,,,,
296056,2022-12-05_22h30.50.420,vts_reward_expectancy_bt,2022.2.4,MacIntel,60.0024001,Chrome,1440,900,,,,,1,645,,,,,,,,,,,,,,,,,Y,181,triangle,1,0,,,,,,,,,,,,,,,,repeat,letter,lettRpt,f,0.4481,Lo,,,,,,0,,,,,,,,low,20,0,20,0,1,,,,,,,,,
296056,2022-12-05_22h30.50.420,vts_reward_expectancy_bt,2022.2.4,MacIntel,60.0024001,Chrome,1440,900,,,,,10,655,,,,,,,,,,,,,,,,,F,146,star,1,0,,,,,,,,,,,,,,,,repeat,letter,lettRpt,d,0.449,Hi,,,,,,0,,,,,,,,low,21,0,21,0,1,,,,,,,,,
296056,2022-12-05_22h30.50.420,vts_reward_expectancy_bt,2022.2.4,MacIntel,60.0024001,Chrome,1440,900,,,,,10,665,,,,,,,,,,,,,,,,,U,167,circle,1,0,,,,,,,,,,,,,,,,switch,number,numSwt,k,0.6993,Hi,,,,,,0,,,,,,,,low,22,0,22,0,1,,,,,,,,,
296056,2022-12-05_22h30.50.420,vts_reward_expectancy_bt,2022.2.4,MacIntel,60.0024001,Chrome,1440,900,,,,,10,675,,,,,,,,,,,,,,,,,S,174,hexagon,1,0,,,,,,,,,,,,,,,,repeat,number,numRpt,k,0.7144,Lo,,,,,,0,,,,,,,,low,23,0,23,0,1,,,,,,,,,
296056,2022-12-05_22h30.50.420,vts_reward_expectancy_bt,2022.2.4,MacIntel,60.0024001,Chrome,1440,900,,,,,1,676,,,,,,,,,,,,,,,,,Y,125,triangle,1,0,,,,,,,,,,,,,,,,repeat,number,numRpt,j,0.7321,Lo,,,,,,0,,,,,,,,low,24,0,24,0,1,,,,,,,,,
296056,2022-12-05_22h30.50.420,vts_reward_expectancy_bt,2022.2.4,MacIntel,60.0024001,Chrome,1440,900,,,,,0,676,,,,,,,,,,,,,,,,,F,139,circle,1,0,,,,,,,,,,,,,,,,switch,letter,lettSwt,d,0.6824,Hi,,,,,,0,,,,,,,,low,25,0,25,0,1,,,,,,,,,
296056,2022-12-05_22h30.50.420,vts_reward_expectancy_bt,2022.2.4,MacIntel,60.0024001,Chrome,1440,900,,,,,1,677,,,,,,,,,,,,,,,,,D,181,star,1,0,,,,,,,,,,,,,,,,repeat,letter,lettRpt,d,0.5486,Hi,,,,,,0,,,,,,,,low,26,0,26,0,1,,,,,,,,,
296056,2022-12-05_22h30.50.420,vts_reward_expectancy_bt,2022.2.4,MacIntel,60.0024001,Chrome,1440,900,,,,,1,678,,,,,,,,,,,,,,,,,H,174,hexagon,1,0,,,,,,,,,,,,,,,,switch,number,numSwt,k,0.551,Lo,,,,,,0,,,,,,,,low,27,0,27,0,1,,,,,,,,,
296056,2022-12-05_22h30.50.420,vts_reward_expectancy_bt,2022.2.4,MacIntel,60.0024001,Chrome,1440,900,,,,,1,679,,,,,,,,,,,,,,,,,S,167,triangle,1,0,,,,,,,,,,,,,,,,repeat,number,numRpt,k,0.4683,Lo,,,,,,0,,,,,,,,low,28,0,28,0,1,,,,,,,,,
296056,2022-12-05_22h30.50.420,vts_reward_expectancy_bt,2022.2.4,MacIntel,60.0024001,Chrome,1440,900,,,,,1,680,,,,,,,,,,,,,,,,,B,160,star,1,0,,,,,,,,,,,,,,,,switch,letter,lettSwt,d,0.4327,Hi,,,,,,0,,,,,,,,low,29,0,29,0,1,,,,,,,,,
296056,2022-12-05_22h30.50.420,vts_reward_expectancy_bt,2022.2.4,MacIntel,60.0024001,Chrome,1440,900,,,,,0,680,,,,,,,,,,,,,,,,,U,146,circle,0,0,,,,,,,,,,,,,,,,switch,number,NA,k,0.633,Hi,,,,,,0,,,,,,,,low,30,0,30,0,1,,,,,,,,,
296056,2022-12-05_22h30.50.420,vts_reward_expectancy_bt,2022.2.4,MacIntel,60.0024001,Chrome,1440,900,,,,,10,690,,,,,,,,,,,,,,,,,W,132,hexagon,1,1,,,,,,,,,,,,,,,,switch,letter,lettSwt,f,0.5164,Lo,,,,,,0,,,,,,,,low,31,0,31,0,1,,,,,,,,,
296056,2022-12-05_22h30.50.420,vts_reward_expectancy_bt,2022.2.4,MacIntel,60.0024001,Chrome,1440,900,,,,,10,700,,,,,,,,,,,,,,,,,B,160,triangle,1,0,,,,,,,,,,,,,,,,switch,number,numSwt,k,0.6299,Lo,,,,,,1,,,,,,space,5.3588,low,0,0,0,0,1,,,,,,,,,
296056,2022-12-05_22h30.50.420,vts_reward_expectancy_bt,2022.2.4,MacIntel,60.0024001,Chrome,1440,900,,,,,10,710,,,,,,,,,,,,,,,,,H,167,star,1,0,,,,,,,,,,,,,,,,repeat,number,numRpt,k,0.55,Hi,,,,,,1,,,,,,,,low,1,0,1,0,1,,,,,,,,,
296056,2022-12-05_22h30.50.420,vts_reward_expectancy_bt,2022.2.4,MacIntel,60.0024001,Chrome,1440,900,,,,,10,720,,,,,,,,,,,,,,,,,D,181,circle,1,0,,,,,,,,,,,,,,,,switch,letter,lettSwt,d,0.4961,Hi,,,,,,1,,,,,,,,low,2,0,2,0,1,,,,,,,,,
296056,2022-12-05_22h30.50.420,vts_reward_expectancy_bt,2022.2.4,MacIntel,60.0024001,Chrome,1440,900,,,,,1,721,,,,,,,,,,,,,,,,,U,139,hexagon,1,0,,,,,,,,,,,,,,,,repeat,letter,lettRpt,f,0.5994,Lo,,,,,,1,,,,,,,,low,3,0,3,0,1,,,,,,,,,
296056,2022-12-05_22h30.50.420,vts_reward_expectancy_bt,2022.2.4,MacIntel,60.0024001,Chrome,1440,900,,,,,10,731,,,,,,,,,,,,,,,,,W,125,triangle,1,0,,,,,,,,,,,,,,,,switch,number,numSwt,j,0.4673,Lo,,,,,,1,,,,,,,,low,4,0,4,0,1,,,,,,,,,
296056,2022-12-05_22h30.50.420,vts_reward_expectancy_bt,2022.2.4,MacIntel,60.0024001,Chrome,1440,900,,,,,10,741,,,,,,,,,,,,,,,,,F,146,star,1,0,,,,,,,,,,,,,,,,switch,letter,lettSwt,d,0.4974,Hi,,,,,,1,,,,,,,,low,5,0,5,0,1,,,,,,,,,
296056,2022-12-05_22h30.50.420,vts_reward_expectancy_bt,2022.2.4,MacIntel,60.0024001,Chrome,1440,900,,,,,0,741,,,,,,,,,,,,,,,,,S,174,circle,1,0,,,,,,,,,,,,,,,,repeat,letter,lettRpt,f,0.5477,Hi,,,,,,1,,,,,,,,low,6,0,6,0,1,,,,,,,,,
296056,2022-12-05_22h30.50.420,vts_reward_expectancy_bt,2022.2.4,MacIntel,60.0024001,Chrome,1440,900,,,,,1,742,,,,,,,,,,,,,,,,,Y,132,hexagon,1,0,,,,,,,,,,,,,,,,switch,number,numSwt,j,0.4986,Lo,,,,,,1,,,,,,,,low,7,0,7,0,1,,,,,,,,,
296056,2022-12-05_22h30.50.420,vts_reward_expectancy_bt,2022.2.4,MacIntel,60.0024001,Chrome,1440,900,,,,,10,752,,,,,,,,,,,,,,,,,B,160,hexagon,1,0,,,,,,,,,,,,,,,,repeat,number,numRpt,k,0.3979,Lo,,,,,,1,,,,,,,,low,8,0,8,0,1,,,,,,,,,
296056,2022-12-05_22h30.50.420,vts_reward_expectancy_bt,2022.2.4,MacIntel,60.0024001,Chrome,1440,900,,,,,0,752,,,,,,,,,,,,,,,,,H,167,star,1,0,,,,,,,,,,,,,,,,switch,letter,lettSwt,d,0.732,Hi,,,,,,1,,,,,,,,low,9,0,9,0,1,,,,,,,,,
296056,2022-12-05_22h30.50.420,vts_reward_expectancy_bt,2022.2.4,MacIntel,60.0024001,Chrome,1440,900,,,,,0,752,,,,,,,,,,,,,,,,,D,181,circle,1,0,,,,,,,,,,,,,,,,repeat,letter,lettRpt,d,0.5318,Hi,,,,,,1,,,,,,,,low,10,0,10,0,1,,,,,,,,,
296056,2022-12-05_22h30.50.420,vts_reward_expectancy_bt,2022.2.4,MacIntel,60.0024001,Chrome,1440,900,,,,,10,762,,,,,,,,,,,,,,,,,U,139,triangle,1,0,,,,,,,,,,,,,,,,repeat,letter,lettRpt,f,0.432,Lo,,,,,,1,,,,,,,,low,11,0,11,0,1,,,,,,,,,
296056,2022-12-05_22h30.50.420,vts_reward_expectancy_bt,2022.2.4,MacIntel,60.0024001,Chrome,1440,900,,,,,10,772,,,,,,,,,,,,,,,,,W,125,triangle,1,0,,,,,,,,,,,,,,,,switch,number,numSwt,j,0.5648,Lo,,,,,,1,,,,,,,,low,12,0,12,0,1,,,,,,,,,
296056,2022-12-05_22h30.50.420,vts_reward_expectancy_bt,2022.2.4,MacIntel,60.0024001,Chrome,1440,900,,,,,0,772,,,,,,,,,,,,,,,,,F,146,star,1,0,,,,,,,,,,,,,,,,repeat,number,numRpt,j,0.8696,Hi,,,,,,1,,,,,,,,low,13,0,13,0,1,,,,,,,,,
296056,2022-12-05_22h30.50.420,vts_reward_expectancy_bt,2022.2.4,MacIntel,60.0024001,Chrome,1440,900,,,,,1,773,,,,,,,,,,,,,,,,,S,174,hexagon,1,0,,,,,,,,,,,,,,,,repeat,number,numRpt,k,0.7486,Lo,,,,,,1,,,,,,,,low,14,0,14,0,1,,,,,,,,,
296056,2022-12-05_22h30.50.420,vts_reward_expectancy_bt,2022.2.4,MacIntel,60.0024001,Chrome,1440,900,,,,,0,773,,,,,,,,,,,,,,,,,Y,132,circle,1,0,,,,,,,,,,,,,,,,switch,letter,lettSwt,f,0.548,Hi,,,,,,1,,,,,,,,low,15,0,15,0,1,,,,,,,,,
296056,2022-12-05_22h30.50.420,vts_reward_expectancy_bt,2022.2.4,MacIntel,60.0024001,Chrome,1440,900,,,,,10,783,,,,,,,,,,,,,,,,,U,174,triangle,1,0,,,,,,,,,,,,,,,,repeat,letter,lettRpt,f,0.4699,Lo,,,,,,1,,,,,,,,low,16,0,16,0,1,,,,,,,,,
296056,2022-12-05_22h30.50.420,vts_reward_expectancy_bt,2022.2.4,MacIntel,60.0024001,Chrome,1440,900,,,,,0,783,,,,,,,,,,,,,,,,,F,181,star,1,0,,,,,,,,,,,,,,,,repeat,letter,lettRpt,d,0.5983,Hi,,,,,,1,,,,,,,,low,17,0,17,0,1,,,,,,,,,
296056,2022-12-05_22h30.50.420,vts_reward_expectancy_bt,2022.2.4,MacIntel,60.0024001,Chrome,1440,900,,,,,1,784,,,,,,,,,,,,,,,,,H,167,hexagon,1,0,,,,,,,,,,,,,,,,repeat,letter,lettRpt,d,0.62,Lo,,,,,,1,,,,,,,,low,18,0,18,0,1,,,,,,,,,
296056,2022-12-05_22h30.50.420,vts_reward_expectancy_bt,2022.2.4,MacIntel,60.0024001,Chrome,1440,900,,,,,10,794,,,,,,,,,,,,,,,,,S,125,circle,1,0,,,,,,,,,,,,,,,,switch,number,numSwt,j,0.4996,Hi,,,,,,1,,,,,,,,low,19,0,19,0,1,,,,,,,,,
296056,2022-12-05_22h30.50.420,vts_reward_expectancy_bt,2022.2.4,MacIntel,60.0024001,Chrome,1440,900,,,,,1,795,,,,,,,,,,,,,,,,,D,160,triangle,1,0,,,,,,,,,,,,,,,,repeat,number,numRpt,k,0.4497,Lo,,,,,,1,,,,,,,,low,20,0,20,0,1,,,,,,,,,
296056,2022-12-05_22h30.50.420,vts_reward_expectancy_bt,2022.2.4,MacIntel,60.0024001,Chrome,1440,900,,,,,10,805,,,,,,,,,,,,,,,,,B,139,circle,1,0,,,,,,,,,,,,,,,,switch,letter,lettSwt,d,0.463,Hi,,,,,,1,,,,,,,,low,21,0,21,0,1,,,,,,,,,
296056,2022-12-05_22h30.50.420,vts_reward_expectancy_bt,2022.2.4,MacIntel,60.0024001,Chrome,1440,900,,,,,0,805,,,,,,,,,,,,,,,,,W,132,star,0,0,,,,,,,,,,,,,,,,repeat,letter,NA,d,0.4508,Hi,,,,,,1,,,,,,,,low,22,0,22,0,1,,,,,,,,,
296056,2022-12-05_22h30.50.420,vts_reward_expectancy_bt,2022.2.4,MacIntel,60.0024001,Chrome,1440,900,,,,,1,806,,,,,,,,,,,,,,,,,Y,146,hexagon,1,1,,,,,,,,,,,,,,,,switch,number,numSwt,j,0.4822,Lo,,,,,,1,,,,,,,,low,23,0,23,0,1,,,,,,,,,
296056,2022-12-05_22h30.50.420,vts_reward_expectancy_bt,2022.2.4,MacIntel,60.0024001,Chrome,1440,900,,,,,10,816,,,,,,,,,,,,,,,,,F,146,circle,1,0,,,,,,,,,,,,,,,,repeat,number,numRpt,j,0.4666,Hi,,,,,,1,,,,,,,,low,24,0,24,0,1,,,,,,,,,
296056,2022-12-05_22h30.50.420,vts_reward_expectancy_bt,2022.2.4,MacIntel,60.0024001,Chrome,1440,900,,,,,10,826,,,,,,,,,,,,,,,,,S,125,triangle,1,0,,,,,,,,,,,,,,,,repeat,number,numRpt,j,0.4988,Lo,,,,,,1,,,,,,,,low,25,0,25,0,1,,,,,,,,,
296056,2022-12-05_22h30.50.420,vts_reward_expectancy_bt,2022.2.4,MacIntel,60.0024001,Chrome,1440,900,,,,,0,826,,,,,,,,,,,,,,,,,D,167,star,1,0,,,,,,,,,,,,,,,,switch,letter,lettSwt,d,0.532,Hi,,,,,,1,,,,,,,,low,26,0,26,0,1,,,,,,,,,
296056,2022-12-05_22h30.50.420,vts_reward_expectancy_bt,2022.2.4,MacIntel,60.0024001,Chrome,1440,900,,,,,1,827,,,,,,,,,,,,,,,,,B,139,hexagon,1,0,,,,,,,,,,,,,,,,repeat,letter,lettRpt,d,0.4298,Lo,,,,,,1,,,,,,,,low,27,0,27,0,1,,,,,,,,,
296056,2022-12-05_22h30.50.420,vts_reward_expectancy_bt,2022.2.4,MacIntel,60.0024001,Chrome,1440,900,,,,,10,837,,,,,,,,,,,,,,,,,U,160,circle,1,0,,,,,,,,,,,,,,,,repeat,letter,lettRpt,f,0.4145,Hi,,,,,,1,,,,,,,,low,28,0,28,0,1,,,,,,,,,
296056,2022-12-05_22h30.50.420,vts_reward_expectancy_bt,2022.2.4,MacIntel,60.0024001,Chrome,1440,900,,,,,1,838,,,,,,,,,,,,,,,,,W,132,hexagon,1,0,,,,,,,,,,,,,,,,switch,number,numSwt,j,0.5154,Lo,,,,,,1,,,,,,,,low,29,0,29,0,1,,,,,,,,,
296056,2022-12-05_22h30.50.420,vts_reward_expectancy_bt,2022.2.4,MacIntel,60.0024001,Chrome,1440,900,,,,,1,839,,,,,,,,,,,,,,,,,H,174,triangle,1,0,,,,,,,,,,,,,,,,repeat,number,numRpt,k,0.7153,Lo,,,,,,1,,,,,,,,low,30,0,30,0,1,,,,,,,,,
296056,2022-12-05_22h30.50.420,vts_reward_expectancy_bt,2022.2.4,MacIntel,60.0024001,Chrome,1440,900,,,,,1,840,,,,,,,,,,,,,,,,,Y,181,star,1,0,,,,,,,,,,,,,,,,repeat,number,numRpt,k,0.4649,Hi,,,,,,1,,,,,,,,low,31,0,31,0,1,,,,,,,,,
296056,2022-12-05_22h30.50.420,vts_reward_expectancy_bt,2022.2.4,MacIntel,60.0024001,Chrome,1440,900,,,,,1,841,,,,,,,,,,,,,,,,,H,181,hexagon,1,0,,,,,,,,,,,,,,,,repeat,number,numRpt,k,0.4492,Lo,,,,,,2,,,,,,space,1.3359,low,0,0,0,0,1,,,,,,,,,
296056,2022-12-05_22h30.50.420,vts_reward_expectancy_bt,2022.2.4,MacIntel,60.0024001,Chrome,1440,900,,,,,0,841,,,,,,,,,,,,,,,,,S,146,circle,1,0,,,,,,,,,,,,,,,,repeat,number,numRpt,j,0.483,Hi,,,,,,2,,,,,,,,low,1,0,1,0,1,,,,,,,,,
296056,2022-12-05_22h30.50.420,vts_reward_expectancy_bt,2022.2.4,MacIntel,60.0024001,Chrome,1440,900,,,,,1,842,,,,,,,,,,,,,,,,,U,139,star,1,0,,,,,,,,,,,,,,,,switch,letter,lettSwt,f,0.4853,Hi,,,,,,2,,,,,,,,low,2,0,2,0,1,,,,,,,,,
296056,2022-12-05_22h30.50.420,vts_reward_expectancy_bt,2022.2.4,MacIntel,60.0024001,Chrome,1440,900,,,,,10,852,,,,,,,,,,,,,,,,,B,160,triangle,1,0,,,,,,,,,,,,,,,,repeat,letter,lettRpt,d,0.5143,Lo,,,,,,2,,,,,,,,low,3,0,3,0,1,,,,,,,,,
296056,2022-12-05_22h30.50.420,vts_reward_expectancy_bt,2022.2.4,MacIntel,60.0024001,Chrome,1440,900,,,,,1,853,,,,,,,,,,,,,,,,,D,132,hexagon,1,0,,,,,,,,,,,,,,,,switch,number,numSwt,j,0.499,Lo,,,,,,2,,,,,,,,low,4,0,4,0,1,,,,,,,,,
296056,2022-12-05_22h30.50.420,vts_reward_expectancy_bt,2022.2.4,MacIntel,60.0024001,Chrome,1440,900,,,,,0,853,,,,,,,,,,,,,,,,,F,174,circle,1,0,,,,,,,,,,,,,,,,repeat,number,numRpt,k,0.5805,Hi,,,,,,2,,,,,,,,low,5,0,5,0,1,,,,,,,,,
296056,2022-12-05_22h30.50.420,vts_reward_expectancy_bt,2022.2.4,MacIntel,60.0024001,Chrome,1440,900,,,,,0,853,,,,,,,,,,,,,,,,,Y,167,star,1,0,,,,,,,,,,,,,,,,repeat,number,numRpt,k,0.6377,Hi,,,,,,2,,,,,,,,low,6,0,6,0,1,,,,,,,,,
296056,2022-12-05_22h30.50.420,vts_reward_expectancy_bt,2022.2.4,MacIntel,60.0024001,Chrome,1440,900,,,,,1,854,,,,,,,,,,,,,,,,,W,125,triangle,1,0,,,,,,,,,,,,,,,,repeat,number,numRpt,j,0.467,Lo,,,,,,2,,,,,,,,low,7,0,7,0,1,,,,,,,,,
296056,2022-12-05_22h30.50.420,vts_reward_expectancy_bt,2022.2.4,MacIntel,60.0024001,Chrome,1440,900,,,,,10,864,,,,,,,,,,,,,,,,,H,181,hexagon,1,0,,,,,,,,,,,,,,,,switch,letter,lettSwt,d,0.5009,Lo,,,,,,2,,,,,,,,low,8,0,8,0,1,,,,,,,,,
296056,2022-12-05_22h30.50.420,vts_reward_expectancy_bt,2022.2.4,MacIntel,60.0024001,Chrome,1440,900,,,,,0,864,,,,,,,,,,,,,,,,,S,146,star,1,0,,,,,,,,,,,,,,,,repeat,letter,lettRpt,f,0.5672,Hi,,,,,,2,,,,,,,,low,9,0,9,0,1,,,,,,,,,
296056,2022-12-05_22h30.50.420,vts_reward_expectancy_bt,2022.2.4,MacIntel,60.0024001,Chrome,1440,900,,,,,1,865,,,,,,,,,,,,,,,,,U,139,triangle,1,0,,,,,,,,,,,,,,,,switch,number,numSwt,j,0.616,Lo,,,,,,2,,,,,,,,low,10,0,10,0,1,,,,,,,,,
296056,2022-12-05_22h30.50.420,vts_reward_expectancy_bt,2022.2.4,MacIntel,60.0024001,Chrome,1440,900,,,,,0,865,,,,,,,,,,,,,,,,,B,160,circle,1,0,,,,,,,,,,,,,,,,repeat,number,numRpt,k,0.5002,Hi,,,,,,2,,,,,,,,low,11,0,11,0,1,,,,,,,,,
296056,2022-12-05_22h30.50.420,vts_reward_expectancy_bt,2022.2.4,MacIntel,60.0024001,Chrome,1440,900,,,,,0,865,,,,,,,,,,,,,,,,,D,132,circle,1,0,,,,,,,,,,,,,,,,repeat,number,numRpt,j,0.4971,Hi,,,,,,2,,,,,,,,low,12,0,12,0,1,,,,,,,,,
296056,2022-12-05_22h30.50.420,vts_reward_expectancy_bt,2022.2.4,MacIntel,60.0024001,Chrome,1440,900,,,,,1,866,,,,,,,,,,,,,,,,,F,174,hexagon,1,0,,,,,,,,,,,,,,,,switch,letter,lettSwt,d,0.6355,Lo,,,,,,2,,,,,,,,low,13,0,13,0,1,,,,,,,,,
296056,2022-12-05_22h30.50.420,vts_reward_expectancy_bt,2022.2.4,MacIntel,60.0024001,Chrome,1440,900,,,,,10,876,,,,,,,,,,,,,,,,,Y,167,triangle,1,0,,,,,,,,,,,,,,,,repeat,letter,lettRpt,f,0.4644,Lo,,,,,,2,,,,,,,,low,14,0,14,0,1,,,,,,,,,
296056,2022-12-05_22h30.50.420,vts_reward_expectancy_bt,2022.2.4,MacIntel,60.0024001,Chrome,1440,900,,,,,0,876,,,,,,,,,,,,,,,,,W,125,star,1,0,,,,,,,,,,,,,,,,repeat,letter,lettRpt,f,0.4975,Hi,,,,,,2,,,,,,,,low,15,0,15,0,1,,,,,,,,,
296056,2022-12-05_22h30.50.420,vts_reward_expectancy_bt,2022.2.4,MacIntel,60.0024001,Chrome,1440,900,,,,,0,876,,,,,,,,,,,,,,,,,S,167,circle,0,0,,,,,,,,,,,,,,,,repeat,letter,NA,d,0.5995,Hi,,,,,,2,,,,,,,,low,16,0,16,0,1,,,,,,,,,
296056,2022-12-05_22h30.50.420,vts_reward_expectancy_bt,2022.2.4,MacIntel,60.0024001,Chrome,1440,900,,,,,10,886,,,,,,,,,,,,,,,,,H,132,hexagon,1,1,,,,,,,,,,,,,,,,switch,number,numSwt,j,0.884,Lo,,,,,,2,,,,,,,,low,17,0,17,0,1,,,,,,,,,
296056,2022-12-05_22h30.50.420,vts_reward_expectancy_bt,2022.2.4,MacIntel,60.0024001,Chrome,1440,900,,,,,1,887,,,,,,,,,,,,,,,,,B,160,star,1,0,,,,,,,,,,,,,,,,repeat,number,numRpt,k,0.4641,Hi,,,,,,2,,,,,,,,low,18,0,18,0,1,,,,,,,,,
296056,2022-12-05_22h30.50.420,vts_reward_expectancy_bt,2022.2.4,MacIntel,60.0024001,Chrome,1440,900,,,,,1,888,,,,,,,,,,,,,,,,,D,139,triangle,1,0,,,,,,,,,,,,,,,,switch,letter,lettSwt,d,0.3992,Lo,,,,,,2,,,,,,,,low,19,0,19,0,1,,,,,,,,,
296056,2022-12-05_22h30.50.420,vts_reward_expectancy_bt,2022.2.4,MacIntel,60.0024001,Chrome,1440,900,,,,,0,888,,,,,,,,,,,,,,,,,F,181,circle,1,0,,,,,,,,,,,,,,,,repeat,letter,lettRpt,d,0.4981,Hi,,,,,,2,,,,,,,,low,20,0,20,0,1,,,,,,,,,
296056,2022-12-05_22h30.50.420,vts_reward_expectancy_bt,2022.2.4,MacIntel,60.0024001,Chrome,1440,900,,,,,10,898,,,,,,,,,,,,,,,,,Y,174,triangle,1,0,,,,,,,,,,,,,,,,switch,number,numSwt,k,0.5973,Lo,,,,,,2,,,,,,,,low,21,0,21,0,1,,,,,,,,,
296056,2022-12-05_22h30.50.420,vts_reward_expectancy_bt,2022.2.4,MacIntel,60.0024001,Chrome,1440,900,,,,,1,899,,,,,,,,,,,,,,,,,W,125,hexagon,1,0,,,,,,,,,,,,,,,,repeat,number,numRpt,j,0.6022,Lo,,,,,,2,,,,,,,,low,22,0,22,0,1,,,,,,,,,
296056,2022-12-05_22h30.50.420,vts_reward_expectancy_bt,2022.2.4,MacIntel,60.0024001,Chrome,1440,900,,,,,0,899,,,,,,,,,,,,,,,,,U,146,star,1,0,,,,,,,,,,,,,,,,switch,letter,lettSwt,f,0.5326,Hi,,,,,,2,,,,,,,,low,23,0,23,0,1,,,,,,,,,
296056,2022-12-05_22h30.50.420,vts_reward_expectancy_bt,2022.2.4,MacIntel,60.0024001,Chrome,1440,900,,,,,0,899,,,,,,,,,,,,,,,,,S,181,star,1,0,,,,,,,,,,,,,,,,repeat,letter,lettRpt,f,0.4981,Hi,,,,,,2,,,,,,,,low,24,0,24,0,1,,,,,,,,,
296056,2022-12-05_22h30.50.420,vts_reward_expectancy_bt,2022.2.4,MacIntel,60.0024001,Chrome,1440,900,,,,,1,900,,,,,,,,,,,,,,,,,D,146,hexagon,1,0,,,,,,,,,,,,,,,,repeat,letter,lettRpt,d,0.8165,Lo,,,,,,2,,,,,,,,low,25,0,25,0,1,,,,,,,,,
296056,2022-12-05_22h30.50.420,vts_reward_expectancy_bt,2022.2.4,MacIntel,60.0024001,Chrome,1440,900,,,,,0,900,,,,,,,,,,,,,,,,,H,132,circle,1,0,,,,,,,,,,,,,,,,repeat,letter,lettRpt,d,0.5511,Hi,,,,,,2,,,,,,,,low,26,0,26,0,1,,,,,,,,,
296056,2022-12-05_22h30.50.420,vts_reward_expectancy_bt,2022.2.4,MacIntel,60.0024001,Chrome,1440,900,,,,,10,910,,,,,,,,,,,,,,,,,Y,167,triangle,1,0,,,,,,,,,,,,,,,,repeat,letter,lettRpt,f,0.4819,Lo,,,,,,2,,,,,,,,low,27,0,27,0,1,,,,,,,,,
296056,2022-12-05_22h30.50.420,vts_reward_expectancy_bt,2022.2.4,MacIntel,60.0024001,Chrome,1440,900,,,,,10,920,,,,,,,,,,,,,,,,,F,139,hexagon,1,0,,,,,,,,,,,,,,,,repeat,letter,lettRpt,d,0.5495,Lo,,,,,,2,,,,,,,,low,28,0,28,0,1,,,,,,,,,
296056,2022-12-05_22h30.50.420,vts_reward_expectancy_bt,2022.2.4,MacIntel,60.0024001,Chrome,1440,900,,,,,10,930,,,,,,,,,,,,,,,,,U,174,triangle,1,0,,,,,,,,,,,,,,,,repeat,letter,lettRpt,f,0.5654,Lo,,,,,,2,,,,,,,,low,29,0,29,0,1,,,,,,,,,
296056,2022-12-05_22h30.50.420,vts_reward_expectancy_bt,2022.2.4,MacIntel,60.0024001,Chrome,1440,900,,,,,0,930,,,,,,,,,,,,,,,,,W,125,star,1,0,,,,,,,,,,,,,,,,switch,number,numSwt,j,0.516,Hi,,,,,,2,,,,,,,,low,30,0,30,0,1,,,,,,,,,
296056,2022-12-05_22h30.50.420,vts_reward_expectancy_bt,2022.2.4,MacIntel,60.0024001,Chrome,1440,900,,,,,0,930,,,,,,,,,,,,,,,,,B,160,circle,1,0,,,,,,,,,,,,,,,,repeat,number,numRpt,k,0.6834,Hi,,,,,,2,,,,,,,,low,31,0,31,0,1,,,,,,,,,
296056,2022-12-05_22h30.50.420,vts_reward_expectancy_bt,2022.2.4,MacIntel,60.0024001,Chrome,1440,900,,,,,1,931,,,,,,,,,,,,,,,,,H,132,hexagon,1,0,,,,,,,,,,,,,,,,repeat,number,numRpt,j,0.6824,Lo,,,,,,3,,,,,,space,1.2003,low,0,0,0,0,1,,,,,,,,,
296056,2022-12-05_22h30.50.420,vts_reward_expectancy_bt,2022.2.4,MacIntel,60.0024001,Chrome,1440,900,,,,,10,941,,,,,,,,,,,,,,,,,F,174,triangle,1,0,,,,,,,,,,,,,,,,switch,letter,lettSwt,d,0.6168,Lo,,,,,,3,,,,,,,,low,1,0,1,0,1,,,,,,,,,
296056,2022-12-05_22h30.50.420,vts_reward_expectancy_bt,2022.2.4,MacIntel,60.0024001,Chrome,1440,900,,,,,1,942,,,,,,,,,,,,,,,,,W,181,circle,1,0,,,,,,,,,,,,,,,,switch,number,numSwt,k,0.5333,Hi,,,,,,3,,,,,,,,low,2,0,2,0,1,,,,,,,,,
296056,2022-12-05_22h30.50.420,vts_reward_expectancy_bt,2022.2.4,MacIntel,60.0024001,Chrome,1440,900,,,,,10,952,,,,,,,,,,,,,,,,,Y,125,star,1,0,,,,,,,,,,,,,,,,switch,letter,lettSwt,f,0.4802,Hi,,,,,,3,,,,,,,,low,3,0,3,0,1,,,,,,,,,
296056,2022-12-05_22h30.50.420,vts_reward_expectancy_bt,2022.2.4,MacIntel,60.0024001,Chrome,1440,900,,,,,10,962,,,,,,,,,,,,,,,,,D,167,hexagon,1,0,,,,,,,,,,,,,,,,repeat,letter,lettRpt,d,0.4304,Lo,,,,,,3,,,,,,,,low,4,0,4,0,1,,,,,,,,,
296056,2022-12-05_22h30.50.420,vts_reward_expectancy_bt,2022.2.4,MacIntel,60.0024001,Chrome,1440,900,,,,,1,963,,,,,,,,,,,,,,,,,U,139,triangle,1,0,,,,,,,,,,,,,,,,repeat,letter,lettRpt,f,0.5144,Lo,,,,,,3,,,,,,,,low,5,0,5,0,1,,,,,,,,,
296056,2022-12-05_22h30.50.420,vts_reward_expectancy_bt,2022.2.4,MacIntel,60.0024001,Chrome,1440,900,,,,,0,963,,,,,,,,,,,,,,,,,B,160,circle,1,0,,,,,,,,,,,,,,,,switch,number,numSwt,k,0.7646,Hi,,,,,,3,,,,,,,,low,6,0,6,0,1,,,,,,,,,
296056,2022-12-05_22h30.50.420,vts_reward_expectancy_bt,2022.2.4,MacIntel,60.0024001,Chrome,1440,900,,,,,0,963,,,,,,,,,,,,,,,,,S,146,star,1,0,,,,,,,,,,,,,,,,repeat,number,numRpt,j,0.5989,Hi,,,,,,3,,,,,,,,low,7,0,7,0,1,,,,,,,,,
296056,2022-12-05_22h30.50.420,vts_reward_expectancy_bt,2022.2.4,MacIntel,60.0024001,Chrome,1440,900,,,,,0,963,,,,,,,,,,,,,,,,,H,132,star,1,0,,,,,,,,,,,,,,,,repeat,number,numRpt,j,0.5661,Hi,,,,,,3,,,,,,,,low,8,0,8,0,1,,,,,,,,,
296056,2022-12-05_22h30.50.420,vts_reward_expectancy_bt,2022.2.4,MacIntel,60.0024001,Chrome,1440,900,,,,,1,964,,,,,,,,,,,,,,,,,F,174,triangle,1,0,,,,,,,,,,,,,,,,repeat,number,numRpt,k,0.4472,Lo,,,,,,3,,,,,,,,low,9,0,9,0,1,,,,,,,,,
296056,2022-12-05_22h30.50.420,vts_reward_expectancy_bt,2022.2.4,MacIntel,60.0024001,Chrome,1440,900,,,,,0,964,,,,,,,,,,,,,,,,,W,181,circle,1,0,,,,,,,,,,,,,,,,repeat,number,numRpt,k,0.5319,Hi,,,,,,3,,,,,,,,low,10,0,10,0,1,,,,,,,,,
296056,2022-12-05_22h30.50.420,vts_reward_expectancy_bt,2022.2.4,MacIntel,60.0024001,Chrome,1440,900,,,,,10,974,,,,,,,,,,,,,,,,,Y,125,hexagon,1,0,,,,,,,,,,,,,,,,repeat,number,numRpt,j,0.483,Lo,,,,,,3,,,,,,,,low,11,0,11,0,1,,,,,,,,,
296056,2022-12-05_22h30.50.420,vts_reward_expectancy_bt,2022.2.4,MacIntel,60.0024001,Chrome,1440,900,,,,,1,975,,,,,,,,,,,,,,,,,D,167,triangle,1,0,,,,,,,,,,,,,,,,repeat,number,numRpt,k,0.6023,Lo,,,,,,3,,,,,,,,low,12,0,12,0,1,,,,,,,,,
296056,2022-12-05_22h30.50.420,vts_reward_expectancy_bt,2022.2.4,MacIntel,60.0024001,Chrome,1440,900,,,,,1,976,,,,,,,,,,,,,,,,,U,139,hexagon,1,0,,,,,,,,,,,,,,,,switch,letter,lettSwt,f,0.4999,Lo,,,,,,3,,,,,,,,low,13,0,13,0,1,,,,,,,,,
296056,2022-12-05_22h30.50.420,vts_reward_expectancy_bt,2022.2.4,MacIntel,60.0024001,Chrome,1440,900,,,,,10,986,,,,,,,,,,,,,,,,,B,160,star,1,0,,,,,,,,,,,,,,,,repeat,letter,lettRpt,d,0.465,Hi,,,,,,3,,,,,,,,low,14,0,14,0,1,,,,,,,,,
296056,2022-12-05_22h30.50.420,vts_reward_expectancy_bt,2022.2.4,MacIntel,60.0024001,Chrome,1440,900,,,,,0,986,,,,,,,,,,,,,,,,,S,146,circle,1,0,,,,,,,,,,,,,,,,repeat,letter,lettRpt,f,0.5332,Hi,,,,,,3,,,,,,,,low,15,0,15,0,1,,,,,,,,,
296056,2022-12-05_22h30.50.420,vts_reward_expectancy_bt,2022.2.4,MacIntel,60.0024001,Chrome,1440,900,,,,,0,986,,,,,,,,,,,,,,,,,W,125,star,1,0,,,,,,,,,,,,,,,,repeat,letter,lettRpt,f,0.5157,Hi,,,,,,3,,,,,,,,low,16,0,16,0,1,,,,,,,,,
296056,2022-12-05_22h30.50.420,vts_reward_expectancy_bt,2022.2.4,MacIntel,60.0024001,Chrome,1440,900,,,,,1,987,,,,,,,,,,,,,,,,,S,160,triangle,1,0,,,,,,,,,,,,,,,,repeat,letter,lettRpt,f,0.5317,Lo,,,,,,3,,,,,,,,low,17,0,17,0,1,,,,,,,,,
296056,2022-12-05_22h30.50.420,vts_reward_expectancy_bt,2022.2.4,MacIntel,60.0024001,Chrome,1440,900,,,,,10,997,,,,,,,,,,,,,,,,,Y,146,hexagon,1,0,,,,,,,,,,,,,,,,switch,number,numSwt,j,0.6819,Lo,,,,,,3,,,,,,,,low,18,0,18,0,1,,,,,,,,,
296056,2022-12-05_22h30.50.420,vts_reward_expectancy_bt,2022.2.4,MacIntel,60.0024001,Chrome,1440,900,,,,,0,997,,,,,,,,,,,,,,,,,D,167,circle,1,0,,,,,,,,,,,,,,,,repeat,number,numRpt,k,0.5826,Hi,,,,,,3,,,,,,,,low,19,0,19,0,1,,,,,,,,,
296056,2022-12-05_22h30.50.420,vts_reward_expectancy_bt,2022.2.4,MacIntel,60.0024001,Chrome,1440,900,,,,,0,997,,,,,,,,,,,,,,,,,B,181,star,1,0,,,,,,,,,,,,,,,,switch,letter,lettSwt,d,0.5347,Hi,,,,,,3,,,,,,,,low,20,0,20,0,1,,,,,,,,,
296056,2022-12-05_22h30.50.420,vts_reward_expectancy_bt,2022.2.4,MacIntel,60.0024001,Chrome,1440,900,,,,,10,1007,,,,,,,,,,,,,,,,,F,139,hexagon,1,0,,,,,,,,,,,,,,,,repeat,letter,lettRpt,d,0.5492,Lo,,,,,,3,,,,,,,,low,21,0,21,0,1,,,,,,,,,
296056,2022-12-05_22h30.50.420,vts_reward_expectancy_bt,2022.2.4,MacIntel,60.0024001,Chrome,1440,900,,,,,10,1017,,,,,,,,,,,,,,,,,U,174,triangle,1,0,,,,,,,,,,,,,,,,switch,number,numSwt,k,0.6672,Lo,,,,,,3,,,,,,,,low,22,0,22,0,1,,,,,,,,,
296056,2022-12-05_22h30.50.420,vts_reward_expectancy_bt,2022.2.4,MacIntel,60.0024001,Chrome,1440,900,,,,,0,1017,,,,,,,,,,,,,,,,,H,132,circle,1,0,,,,,,,,,,,,,,,,repeat,number,numRpt,j,0.5684,Hi,,,,,,3,,,,,,,,low,23,0,23,0,1,,,,,,,,,
296056,2022-12-05_22h30.50.420,vts_reward_expectancy_bt,2022.2.4,MacIntel,60.0024001,Chrome,1440,900,,,,,0,1017,,,,,,,,,,,,,,,,,B,167,star,1,0,,,,,,,,,,,,,,,,repeat,number,numRpt,k,0.7,Hi,,,,,,3,,,,,,,,low,24,0,24,0,1,,,,,,,,,
296056,2022-12-05_22h30.50.420,vts_reward_expectancy_bt,2022.2.4,MacIntel,60.0024001,Chrome,1440,900,,,,,1,1018,,,,,,,,,,,,,,,,,H,174,hexagon,1,0,,,,,,,,,,,,,,,,switch,letter,lettSwt,d,0.6664,Lo,,,,,,3,,,,,,,,low,25,0,25,0,1,,,,,,,,,
296056,2022-12-05_22h30.50.420,vts_reward_expectancy_bt,2022.2.4,MacIntel,60.0024001,Chrome,1440,900,,,,,0,1018,,,,,,,,,,,,,,,,,F,146,circle,1,0,,,,,,,,,,,,,,,,switch,number,numSwt,j,0.7987,Hi,,,,,,3,,,,,,,,low,26,0,26,0,1,,,,,,,,,
296056,2022-12-05_22h30.50.420,vts_reward_expectancy_bt,2022.2.4,MacIntel,60.0024001,Chrome,1440,900,,,,,10,1028,,,,,,,,,,,,,,,,,S,132,triangle,1,0,,,,,,,,,,,,,,,,repeat,number,numRpt,j,1.6145,Lo,,,,,,3,,,,,,,,low,27,0,27,0,1,,,,,,,,,
296056,2022-12-05_22h30.50.420,vts_reward_expectancy_bt,2022.2.4,MacIntel,60.0024001,Chrome,1440,900,,,,,10,1038,,,,,,,,,,,,,,,,,W,125,circle,1,0,,,,,,,,,,,,,,,,switch,letter,lettSwt,f,0.4855,Hi,,,,,,3,,,,,,,,low,28,0,28,0,1,,,,,,,,,
296056,2022-12-05_22h30.50.420,vts_reward_expectancy_bt,2022.2.4,MacIntel,60.0024001,Chrome,1440,900,,,,,10,1048,,,,,,,,,,,,,,,,,D,160,triangle,1,0,,,,,,,,,,,,,,,,repeat,letter,lettRpt,d,0.4754,Lo,,,,,,3,,,,,,,,low,29,0,29,0,1,,,,,,,,,
296056,2022-12-05_22h30.50.420,vts_reward_expectancy_bt,2022.2.4,MacIntel,60.0024001,Chrome,1440,900,,,,,10,1058,,,,,,,,,,,,,,,,,Y,181,star,1,0,,,,,,,,,,,,,,,,switch,number,numSwt,k,0.5013,Hi,,,,,,3,,,,,,,,low,30,0,30,0,1,,,,,,,,,
296056,2022-12-05_22h30.50.420,vts_reward_expectancy_bt,2022.2.4,MacIntel,60.0024001,Chrome,1440,900,,,,,1,1059,,,,,,,,,,,,,,,,,U,139,hexagon,1,0,,,,,,,,,,,,,,,,repeat,number,numRpt,j,0.565,Lo,,,,,,3,,,,,,,,low,31,0,31,0,1,,,,,,,,,
296056,2022-12-05_22h30.50.420,vts_reward_expectancy_bt,2022.2.4,MacIntel,60.0024001,Chrome,1440,900,,,,,0,1059,,,,,,,,,,,,,,,,,U,125,circle,1,0,,,,,,,,,,,,,,,,switch,letter,lettSwt,f,0.5827,Hi,,,,,,4,,,,,,space,1.4575,low,0,0,0,0,1,,,,,,,,,
296056,2022-12-05_22h30.50.420,vts_reward_expectancy_bt,2022.2.4,MacIntel,60.0024001,Chrome,1440,900,,,,,10,1069,,,,,,,,,,,,,,,,,S,181,star,1,0,,,,,,,,,,,,,,,,switch,number,numSwt,k,0.4663,Hi,,,,,,4,,,,,,,,low,1,0,1,0,1,,,,,,,,,
296056,2022-12-05_22h30.50.420,vts_reward_expectancy_bt,2022.2.4,MacIntel,60.0024001,Chrome,1440,900,,,,,0,1069,,,,,,,,,,,,,,,,,F,160,hexagon,0,0,,,,,,,,,,,,,,,,repeat,number,NA,j,0.4973,Hi,,,,,,4,,,,,,,,low,2,0,2,0,1,,,,,,,,,
296056,2022-12-05_22h30.50.420,vts_reward_expectancy_bt,2022.2.4,MacIntel,60.0024001,Chrome,1440,900,,,,,1,1070,,,,,,,,,,,,,,,,,D,132,triangle,1,1,,,,,,,,,,,,,,,,switch,letter,lettSwt,d,0.5337,Lo,,,,,,4,,,,,,,,low,3,0,3,0,1,,,,,,,,,
296056,2022-12-05_22h30.50.420,vts_reward_expectancy_bt,2022.2.4,MacIntel,60.0024001,Chrome,1440,900,,,,,0,1070,,,,,,,,,,,,,,,,,Y,167,circle,1,0,,,,,,,,,,,,,,,,repeat,letter,lettRpt,f,0.5331,Hi,,,,,,4,,,,,,,,low,4,0,4,0,1,,,,,,,,,
296056,2022-12-05_22h30.50.420,vts_reward_expectancy_bt,2022.2.4,MacIntel,60.0024001,Chrome,1440,900,,,,,10,1080,,,,,,,,,,,,,,,,,B,146,star,1,0,,,,,,,,,,,,,,,,switch,number,numSwt,j,0.6,Hi,,,,,,4,,,,,,,,low,5,0,5,0,1,,,,,,,,,
296056,2022-12-05_22h30.50.420,vts_reward_expectancy_bt,2022.2.4,MacIntel,60.0024001,Chrome,1440,900,,,,,10,1090,,,,,,,,,,,,,,,,,H,174,hexagon,1,0,,,,,,,,,,,,,,,,repeat,number,numRpt,k,0.4809,Lo,,,,,,4,,,,,,,,low,6,0,6,0,1,,,,,,,,,
296056,2022-12-05_22h30.50.420,vts_reward_expectancy_bt,2022.2.4,MacIntel,60.0024001,Chrome,1440,900,,,,,1,1091,,,,,,,,,,,,,,,,,W,139,triangle,1,0,,,,,,,,,,,,,,,,switch,letter,lettSwt,f,0.4669,Lo,,,,,,4,,,,,,,,low,7,0,7,0,1,,,,,,,,,
296056,2022-12-05_22h30.50.420,vts_reward_expectancy_bt,2022.2.4,MacIntel,60.0024001,Chrome,1440,900,,,,,0,1091,,,,,,,,,,,,,,,,,U,125,circle,1,0,,,,,,,,,,,,,,,,repeat,letter,lettRpt,f,0.5116,Hi,,,,,,4,,,,,,,,low,8,0,8,0,1,,,,,,,,,
296056,2022-12-05_22h30.50.420,vts_reward_expectancy_bt,2022.2.4,MacIntel,60.0024001,Chrome,1440,900,,,,,1,1092,,,,,,,,,,,,,,,,,S,181,triangle,1,0,,,,,,,,,,,,,,,,repeat,letter,lettRpt,f,0.6321,Lo,,,,,,4,,,,,,,,low,9,0,9,0,1,,,,,,,,,
296056,2022-12-05_22h30.50.420,vts_reward_expectancy_bt,2022.2.4,MacIntel,60.0024001,Chrome,1440,900,,,,,1,1093,,,,,,,,,,,,,,,,,F,160,hexagon,1,0,,,,,,,,,,,,,,,,switch,number,numSwt,k,0.6834,Lo,,,,,,4,,,,,,,,low,10,0,10,0,1,,,,,,,,,
296056,2022-12-05_22h30.50.420,vts_reward_expectancy_bt,2022.2.4,MacIntel,60.0024001,Chrome,1440,900,,,,,1,1094,,,,,,,,,,,,,,,,,D,132,star,1,0,,,,,,,,,,,,,,,,repeat,number,numRpt,j,0.5501,Hi,,,,,,4,,,,,,,,low,11,0,11,0,1,,,,,,,,,
296056,2022-12-05_22h30.50.420,vts_reward_expectancy_bt,2022.2.4,MacIntel,60.0024001,Chrome,1440,900,,,,,0,1094,,,,,,,,,,,,,,,,,Y,167,circle,1,0,,,,,,,,,,,,,,,,repeat,number,numRpt,k,0.6127,Hi,,,,,,4,,,,,,,,low,12,0,12,0,1,,,,,,,,,
296056,2022-12-05_22h30.50.420,vts_reward_expectancy_bt,2022.2.4,MacIntel,60.0024001,Chrome,1440,900,,,,,1,1095,,,,,,,,,,,,,,,,,B,146,triangle,1,0,,,,,,,,,,,,,,,,switch,letter,lettSwt,d,0.499,Lo,,,,,,4,,,,,,,,low,13,0,13,0,1,,,,,,,,,
296056,2022-12-05_22h30.50.420,vts_reward_expectancy_bt,2022.2.4,MacIntel,60.0024001,Chrome,1440,900,,,,,0,1095,,,,,,,,,,,,,,,,,H,174,star,1,0,,,,,,,,,,,,,,,,repeat,letter,lettRpt,d,0.5363,Hi,,,,,,4,,,,,,,,low,14,0,14,0,1,,,,,,,,,
296056,2022-12-05_22h30.50.420,vts_reward_expectancy_bt,2022.2.4,MacIntel,60.0024001,Chrome,1440,900,,,,,1,1096,,,,,,,,,,,,,,,,,W,139,hexagon,1,0,,,,,,,,,,,,,,,,switch,number,numSwt,j,0.566,Lo,,,,,,4,,,,,,,,low,15,0,15,0,1,,,,,,,,,
296056,2022-12-05_22h30.50.420,vts_reward_expectancy_bt,2022.2.4,MacIntel,60.0024001,Chrome,1440,900,,,,,0,1096,,,,,,,,,,,,,,,,,U,160,circle,1,0,,,,,,,,,,,,,,,,repeat,number,numRpt,k,0.8163,Hi,,,,,,4,,,,,,,,low,16,0,16,0,1,,,,,,,,,
296056,2022-12-05_22h30.50.420,vts_reward_expectancy_bt,2022.2.4,MacIntel,60.0024001,Chrome,1440,900,,,,,0,1096,,,,,,,,,,,,,,,,,S,139,star,1,0,,,,,,,,,,,,,,,,repeat,number,numRpt,j,0.5829,Hi,,,,,,4,,,,,,,,low,17,0,17,0,1,,,,,,,,,
296056,2022-12-05_22h30.50.420,vts_reward_expectancy_bt,2022.2.4,MacIntel,60.0024001,Chrome,1440,900,,,,,1,1097,,,,,,,,,,,,,,,,,D,125,triangle,1,0,,,,,,,,,,,,,,,,repeat,number,numRpt,j,0.5016,Lo,,,,,,4,,,,,,,,low,18,0,18,0,1,,,,,,,,,
296056,2022-12-05_22h30.50.420,vts_reward_expectancy_bt,2022.2.4,MacIntel,60.0024001,Chrome,1440,900,,,,,1,1098,,,,,,,,,,,,,,,,,F,174,hexagon,1,0,,,,,,,,,,,,,,,,switch,letter,lettSwt,d,0.5814,Lo,,,,,,4,,,,,,,,low,19,0,19,0,1,,,,,,,,,
296056,2022-12-05_22h30.50.420,vts_reward_expectancy_bt,2022.2.4,MacIntel,60.0024001,Chrome,1440,900,,,,,1,1099,,,,,,,,,,,,,,,,,Y,181,hexagon,1,0,,,,,,,,,,,,,,,,repeat,letter,lettRpt,f,0.5651,Lo,,,,,,4,,,,,,,,low,20,0,20,0,1,,,,,,,,,
296056,2022-12-05_22h30.50.420,vts_reward_expectancy_bt,2022.2.4,MacIntel,60.0024001,Chrome,1440,900,,,,,0,1099,,,,,,,,,,,,,,,,,B,167,triangle,0,0,,,,,,,,,,,,,,,,switch,number,NA,j,0.6957,Lo,,,,,,4,,,,,,,,low,21,0,21,0,1,,,,,,,,,
296056,2022-12-05_22h30.50.420,vts_reward_expectancy_bt,2022.2.4,MacIntel,60.0024001,Chrome,1440,900,,,,,1,1100,,,,,,,,,,,,,,,,,H,146,circle,1,1,,,,,,,,,,,,,,,,repeat,number,numRpt,j,0.4659,Hi,,,,,,4,,,,,,,,low,22,0,22,0,1,,,,,,,,,
296056,2022-12-05_22h30.50.420,vts_reward_expectancy_bt,2022.2.4,MacIntel,60.0024001,Chrome,1440,900,,,,,0,1100,,,,,,,,,,,,,,,,,W,132,star,1,0,,,,,,,,,,,,,,,,repeat,number,numRpt,j,0.7825,Hi,,,,,,4,,,,,,,,low,23,0,23,0,1,,,,,,,,,
296056,2022-12-05_22h30.50.420,vts_reward_expectancy_bt,2022.2.4,MacIntel,60.0024001,Chrome,1440,900,,,,,10,1110,,,,,,,,,,,,,,,,,B,125,triangle,1,0,,,,,,,,,,,,,,,,switch,letter,lettSwt,d,0.4163,Lo,,,,,,4,,,,,,,,low,24,0,24,0,1,,,,,,,,,
296056,2022-12-05_22h30.50.420,vts_reward_expectancy_bt,2022.2.4,MacIntel,60.0024001,Chrome,1440,900,,,,,1,1111,,,,,,,,,,,,,,,,,U,139,star,1,0,,,,,,,,,,,,,,,,repeat,letter,lettRpt,f,0.4483,Hi,,,,,,4,,,,,,,,low,25,0,25,0,1,,,,,,,,,
296056,2022-12-05_22h30.50.420,vts_reward_expectancy_bt,2022.2.4,MacIntel,60.0024001,Chrome,1440,900,,,,,1,1112,,,,,,,,,,,,,,,,,Y,132,hexagon,1,0,,,,,,,,,,,,,,,,switch,number,numSwt,j,0.4149,Lo,,,,,,4,,,,,,,,low,26,0,26,0,1,,,,,,,,,
296056,2022-12-05_22h30.50.420,vts_reward_expectancy_bt,2022.2.4,MacIntel,60.0024001,Chrome,1440,900,,,,,0,1112,,,,,,,,,,,,,,,,,D,160,circle,1,0,,,,,,,,,,,,,,,,repeat,number,numRpt,k,0.6826,Hi,,,,,,4,,,,,,,,low,27,0,27,0,1,,,,,,,,,
296056,2022-12-05_22h30.50.420,vts_reward_expectancy_bt,2022.2.4,MacIntel,60.0024001,Chrome,1440,900,,,,,1,1113,,,,,,,,,,,,,,,,,F,181,hexagon,1,0,,,,,,,,,,,,,,,,switch,letter,lettSwt,d,0.4652,Lo,,,,,,4,,,,,,,,low,28,0,28,0,1,,,,,,,,,
296056,2022-12-05_22h30.50.420,vts_reward_expectancy_bt,2022.2.4,MacIntel,60.0024001,Chrome,1440,900,,,,,10,1123,,,,,,,,,,,,,,,,,S,146,circle,1,0,,,,,,,,,,,,,,,,switch,number,numSwt,j,0.4992,Hi,,,,,,4,,,,,,,,low,29,0,29,0,1,,,,,,,,,
296056,2022-12-05_22h30.50.420,vts_reward_expectancy_bt,2022.2.4,MacIntel,60.0024001,Chrome,1440,900,,,,,10,1133,,,,,,,,,,,,,,,,,W,174,triangle,1,0,,,,,,,,,,,,,,,,repeat,number,numRpt,k,0.6838,Lo,,,,,,4,,,,,,,,low,30,0,30,0,1,,,,,,,,,
296056,2022-12-05_22h30.50.420,vts_reward_expectancy_bt,2022.2.4,MacIntel,60.0024001,Chrome,1440,900,,,,,0,1133,,,,,,,,,,,,,,,,,H,167,star,1,0,,,,,,,,,,,,,,,,switch,letter,lettSwt,d,0.5023,Hi,,,,,,4,,,,,,,,low,31,0,31,0,1,,,,,,,,,
296056,2022-12-05_22h30.50.420,vts_reward_expectancy_bt,2022.2.4,MacIntel,60.0024001,Chrome,1440,900,,,,,0,1133,,,,,,,,,,,,,,,,,F,160,circle,1,0,,,,,,,,,,,,,,,,repeat,letter,lettRpt,d,0.6319,Hi,,,,,,5,,,,,,space,1.1889,low,0,0,0,0,1,,,,,,,,,
296056,2022-12-05_22h30.50.420,vts_reward_expectancy_bt,2022.2.4,MacIntel,60.0024001,Chrome,1440,900,,,,,10,1143,,,,,,,,,,,,,,,,,Y,125,hexagon,1,0,,,,,,,,,,,,,,,,switch,number,numSwt,j,0.6156,Lo,,,,,,5,,,,,,,,low,1,0,1,0,1,,,,,,,,,
296056,2022-12-05_22h30.50.420,vts_reward_expectancy_bt,2022.2.4,MacIntel,60.0024001,Chrome,1440,900,,,,,0,1143,,,,,,,,,,,,,,,,,U,181,star,1,0,,,,,,,,,,,,,,,,repeat,number,numRpt,k,1.4346,Hi,,,,,,5,,,,,,,,low,2,0,2,0,1,,,,,,,,,
296056,2022-12-05_22h30.50.420,vts_reward_expectancy_bt,2022.2.4,MacIntel,60.0024001,Chrome,1440,900,,,,,1,1144,,,,,,,,,,,,,,,,,H,174,triangle,1,0,,,,,,,,,,,,,,,,switch,letter,lettSwt,d,0.468,Lo,,,,,,5,,,,,,,,low,3,0,3,0,1,,,,,,,,,
296056,2022-12-05_22h30.50.420,vts_reward_expectancy_bt,2022.2.4,MacIntel,60.0024001,Chrome,1440,900,,,,,0,1144,,,,,,,,,,,,,,,,,D,167,circle,1,0,,,,,,,,,,,,,,,,switch,number,numSwt,k,0.6504,Hi,,,,,,5,,,,,,,,low,4,0,4,0,1,,,,,,,,,
296056,2022-12-05_22h30.50.420,vts_reward_expectancy_bt,2022.2.4,MacIntel,60.0024001,Chrome,1440,900,,,,,10,1154,,,,,,,,,,,,,,,,,B,139,hexagon,1,0,,,,,,,,,,,,,,,,repeat,number,numRpt,j,0.5499,Lo,,,,,,5,,,,,,,,low,5,0,5,0,1,,,,,,,,,
296056,2022-12-05_22h30.50.420,vts_reward_expectancy_bt,2022.2.4,MacIntel,60.0024001,Chrome,1440,900,,,,,10,1164,,,,,,,,,,,,,,,,,W,146,star,1,0,,,,,,,,,,,,,,,,switch,letter,lettSwt,f,0.4726,Hi,,,,,,5,,,,,,,,low,6,0,6,0,1,,,,,,,,,
296056,2022-12-05_22h30.50.420,vts_reward_expectancy_bt,2022.2.4,MacIntel,60.0024001,Chrome,1440,900,,,,,1,1165,,,,,,,,,,,,,,,,,S,132,triangle,1,0,,,,,,,,,,,,,,,,switch,number,numSwt,j,0.4783,Lo,,,,,,5,,,,,,,,low,7,0,7,0,1,,,,,,,,,
296056,2022-12-05_22h30.50.420,vts_reward_expectancy_bt,2022.2.4,MacIntel,60.0024001,Chrome,1440,900,,,,,10,1175,,,,,,,,,,,,,,,,,F,160,triangle,1,0,,,,,,,,,,,,,,,,repeat,number,numRpt,k,0.5808,Lo,,,,,,5,,,,,,,,low,8,0,8,0,1,,,,,,,,,
296056,2022-12-05_22h30.50.420,vts_reward_expectancy_bt,2022.2.4,MacIntel,60.0024001,Chrome,1440,900,,,,,0,1175,,,,,,,,,,,,,,,,,Y,125,star,1,0,,,,,,,,,,,,,,,,switch,letter,lettSwt,f,0.4866,Hi,,,,,,5,,,,,,,,low,9,0,9,0,1,,,,,,,,,
296056,2022-12-05_22h30.50.420,vts_reward_expectancy_bt,2022.2.4,MacIntel,60.0024001,Chrome,1440,900,,,,,1,1176,,,,,,,,,,,,,,,,,U,181,circle,1,0,,,,,,,,,,,,,,,,repeat,letter,lettRpt,f,0.4324,Hi,,,,,,5,,,,,,,,low,10,0,10,0,1,,,,,,,,,
296056,2022-12-05_22h30.50.420,vts_reward_expectancy_bt,2022.2.4,MacIntel,60.0024001,Chrome,1440,900,,,,,1,1177,,,,,,,,,,,,,,,,,H,174,hexagon,1,0,,,,,,,,,,,,,,,,switch,number,numSwt,k,0.7493,Lo,,,,,,5,,,,,,,,low,11,0,11,0,1,,,,,,,,,
296056,2022-12-05_22h30.50.420,vts_reward_expectancy_bt,2022.2.4,MacIntel,60.0024001,Chrome,1440,900,,,,,1,1178,,,,,,,,,,,,,,,,,D,167,triangle,1,0,,,,,,,,,,,,,,,,switch,letter,lettSwt,d,0.4983,Lo,,,,,,5,,,,,,,,low,12,0,12,0,1,,,,,,,,,
296056,2022-12-05_22h30.50.420,vts_reward_expectancy_bt,2022.2.4,MacIntel,60.0024001,Chrome,1440,900,,,,,1,1179,,,,,,,,,,,,,,,,,B,139,star,1,0,,,,,,,,,,,,,,,,repeat,letter,lettRpt,d,0.5168,Hi,,,,,,5,,,,,,,,low,13,0,13,0,1,,,,,,,,,
296056,2022-12-05_22h30.50.420,vts_reward_expectancy_bt,2022.2.4,MacIntel,60.0024001,Chrome,1440,900,,,,,10,1189,,,,,,,,,,,,,,,,,W,146,hexagon,1,0,,,,,,,,,,,,,,,,repeat,letter,lettRpt,f,0.7159,Lo,,,,,,5,,,,,,,,low,14,0,14,0,1,,,,,,,,,
296056,2022-12-05_22h30.50.420,vts_reward_expectancy_bt,2022.2.4,MacIntel,60.0024001,Chrome,1440,900,,,,,0,1189,,,,,,,,,,,,,,,,,S,132,circle,1,0,,,,,,,,,,,,,,,,switch,number,numSwt,j,0.5829,Hi,,,,,,5,,,,,,,,low,15,0,15,0,1,,,,,,,,,
296056,2022-12-05_22h30.50.420,vts_reward_expectancy_bt,2022.2.4,MacIntel,60.0024001,Chrome,1440,900,,,,,10,1199,,,,,,,,,,,,,,,,,B,160,circle,1,0,,,,,,,,,,,,,,,,repeat,number,numRpt,k,0.548,Hi,,,,,,5,,,,,,,,low,16,0,16,0,1,,,,,,,,,
296056,2022-12-05_22h30.50.420,vts_reward_expectancy_bt,2022.2.4,MacIntel,60.0024001,Chrome,1440,900,,,,,10,1209,,,,,,,,,,,,,,,,,W,125,triangle,1,0,,,,,,,,,,,,,,,,switch,letter,lettSwt,f,0.5161,Lo,,,,,,5,,,,,,,,low,17,0,17,0,1,,,,,,,,,
296056,2022-12-05_22h30.50.420,vts_reward_expectancy_bt,2022.2.4,MacIntel,60.0024001,Chrome,1440,900,,,,,1,1210,,,,,,,,,,,,,,,,,H,146,hexagon,1,0,,,,,,,,,,,,,,,,repeat,letter,lettRpt,d,0.6711,Lo,,,,,,5,,,,,,,,low,18,0,18,0,1,,,,,,,,,
296056,2022-12-05_22h30.50.420,vts_reward_expectancy_bt,2022.2.4,MacIntel,60.0024001,Chrome,1440,900,,,,,0,1210,,,,,,,,,,,,,,,,,D,139,star,1,0,,,,,,,,,,,,,,,,switch,number,numSwt,j,0.6169,Hi,,,,,,5,,,,,,,,low,19,0,19,0,1,,,,,,,,,
296056,2022-12-05_22h30.50.420,vts_reward_expectancy_bt,2022.2.4,MacIntel,60.0024001,Chrome,1440,900,,,,,1,1211,,,,,,,,,,,,,,,,,F,174,hexagon,1,0,,,,,,,,,,,,,,,,switch,letter,lettSwt,d,0.5835,Lo,,,,,,5,,,,,,,,low,20,0,20,0,1,,,,,,,,,
296056,2022-12-05_22h30.50.420,vts_reward_expectancy_bt,2022.2.4,MacIntel,60.0024001,Chrome,1440,900,,,,,0,1211,,,,,,,,,,,,,,,,,Y,167,circle,1,0,,,,,,,,,,,,,,,,switch,number,numSwt,k,0.6482,Hi,,,,,,5,,,,,,,,low,21,0,21,0,1,,,,,,,,,
296056,2022-12-05_22h30.50.420,vts_reward_expectancy_bt,2022.2.4,MacIntel,60.0024001,Chrome,1440,900,,,,,0,1211,,,,,,,,,,,,,,,,,U,132,star,0,0,,,,,,,,,,,,,,,,repeat,number,NA,k,0.7332,Hi,,,,,,5,,,,,,,,low,22,0,22,0,1,,,,,,,,,
296056,2022-12-05_22h30.50.420,vts_reward_expectancy_bt,2022.2.4,MacIntel,60.0024001,Chrome,1440,900,,,,,1,1212,,,,,,,,,,,,,,,,,S,181,triangle,1,1,,,,,,,,,,,,,,,,repeat,number,numRpt,k,1.0152,Lo,,,,,,5,,,,,,,,low,23,0,23,0,1,,,,,,,,,
296056,2022-12-05_22h30.50.420,vts_reward_expectancy_bt,2022.2.4,MacIntel,60.0024001,Chrome,1440,900,,,,,0,1212,,,,,,,,,,,,,,,,,U,174,star,1,0,,,,,,,,,,,,,,,,repeat,number,numRpt,k,1.0653,Hi,,,,,,5,,,,,,,,low,24,0,24,0,1,,,,,,,,,
296056,2022-12-05_22h30.50.420,vts_reward_expectancy_bt,2022.2.4,MacIntel,60.0024001,Chrome,1440,900,,,,,1,1213,,,,,,,,,,,,,,,,,D,146,triangle,1,0,,,,,,,,,,,,,,,,repeat,number,numRpt,j,0.8649,Lo,,,,,,5,,,,,,,,low,25,0,25,0,1,,,,,,,,,
296056,2022-12-05_22h30.50.420,vts_reward_expectancy_bt,2022.2.4,MacIntel,60.0024001,Chrome,1440,900,,,,,1,1214,,,,,,,,,,,,,,,,,Y,125,hexagon,1,0,,,,,,,,,,,,,,,,switch,letter,lettSwt,f,0.5315,Lo,,,,,,5,,,,,,,,low,26,0,26,0,1,,,,,,,,,
296056,2022-12-05_22h30.50.420,vts_reward_expectancy_bt,2022.2.4,MacIntel,60.0024001,Chrome,1440,900,,,,,0,1214,,,,,,,,,,,,,,,,,F,160,circle,1,0,,,,,,,,,,,,,,,,repeat,letter,lettRpt,d,0.5503,Hi,,,,,,5,,,,,,,,low,27,0,27,0,1,,,,,,,,,
296056,2022-12-05_22h30.50.420,vts_reward_expectancy_bt,2022.2.4,MacIntel,60.0024001,Chrome,1440,900,,,,,0,1214,,,,,,,,,,,,,,,,,H,181,circle,1,0,,,,,,,,,,,,,,,,switch,number,numSwt,k,0.5678,Hi,,,,,,5,,,,,,,,low,28,0,28,0,1,,,,,,,,,
296056,2022-12-05_22h30.50.420,vts_reward_expectancy_bt,2022.2.4,MacIntel,60.0024001,Chrome,1440,900,,,,,1,1215,,,,,,,,,,,,,,,,,S,167,triangle,1,0,,,,,,,,,,,,,,,,repeat,number,numRpt,k,0.5002,Lo,,,,,,5,,,,,,,,low,29,0,29,0,1,,,,,,,,,
296056,2022-12-05_22h30.50.420,vts_reward_expectancy_bt,2022.2.4,MacIntel,60.0024001,Chrome,1440,900,,,,,1,1216,,,,,,,,,,,,,,,,,B,132,hexagon,1,0,,,,,,,,,,,,,,,,switch,letter,lettSwt,d,0.5263,Lo,,,,,,5,,,,,,,,low,30,0,30,0,1,,,,,,,,,
296056,2022-12-05_22h30.50.420,vts_reward_expectancy_bt,2022.2.4,MacIntel,60.0024001,Chrome,1440,900,,,,,10,1226,,,,,,,,,,,,,,,,,W,139,star,1,0,,,,,,,,,,,,,,,,repeat,letter,lettRpt,f,0.5151,Hi,,,,,,5,,,,,,,,low,31,0,31,0,1,,,,,,,,,
296056,2022-12-05_22h30.50.420,vts_reward_expectancy_bt,2022.2.4,MacIntel,60.0024001,Chrome,1440,900,,,,,0,1226,,,,,,,,,,,,,,,,,S,146,circle,1,0,,,,,,,,,,,,,,,,switch,number,numSwt,j,0.9991,Hi,,,,,,6,,,,,,space,0.7442,low,0,0,0,0,1,,,,,,,,,
296056,2022-12-05_22h30.50.420,vts_reward_expectancy_bt,2022.2.4,MacIntel,60.0024001,Chrome,1440,900,,,,,10,1236,,,,,,,,,,,,,,,,,D,181,triangle,1,0,,,,,,,,,,,,,,,,switch,letter,lettSwt,d,0.4495,Lo,,,,,,6,,,,,,,,low,1,0,1,0,1,,,,,,,,,
296056,2022-12-05_22h30.50.420,vts_reward_expectancy_bt,2022.2.4,MacIntel,60.0024001,Chrome,1440,900,,,,,10,1246,,,,,,,,,,,,,,,,,Y,167,star,1,0,,,,,,,,,,,,,,,,repeat,letter,lettRpt,f,0.433,Hi,,,,,,6,,,,,,,,low,2,0,2,0,1,,,,,,,,,
296056,2022-12-05_22h30.50.420,vts_reward_expectancy_bt,2022.2.4,MacIntel,60.0024001,Chrome,1440,900,,,,,1,1247,,,,,,,,,,,,,,,,,B,160,hexagon,1,0,,,,,,,,,,,,,,,,switch,number,numSwt,k,0.482,Lo,,,,,,6,,,,,,,,low,3,0,3,0,1,,,,,,,,,
296056,2022-12-05_22h30.50.420,vts_reward_expectancy_bt,2022.2.4,MacIntel,60.0024001,Chrome,1440,900,,,,,0,1247,,,,,,,,,,,,,,,,,W,174,circle,1,0,,,,,,,,,,,,,,,,repeat,number,numRpt,k,0.5804,Hi,,,,,,6,,,,,,,,low,4,0,4,0,1,,,,,,,,,
296056,2022-12-05_22h30.50.420,vts_reward_expectancy_bt,2022.2.4,MacIntel,60.0024001,Chrome,1440,900,,,,,1,1248,,,,,,,,,,,,,,,,,H,139,triangle,1,0,,,,,,,,,,,,,,,,switch,letter,lettSwt,d,0.5489,Lo,,,,,,6,,,,,,,,low,5,0,5,0,1,,,,,,,,,
296056,2022-12-05_22h30.50.420,vts_reward_expectancy_bt,2022.2.4,MacIntel,60.0024001,Chrome,1440,900,,,,,0,1248,,,,,,,,,,,,,,,,,F,132,star,1,0,,,,,,,,,,,,,,,,repeat,letter,lettRpt,d,0.6822,Hi,,,,,,6,,,,,,,,low,6,0,6,0,1,,,,,,,,,
296056,2022-12-05_22h30.50.420,vts_reward_expectancy_bt,2022.2.4,MacIntel,60.0024001,Chrome,1440,900,,,,,1,1249,,,,,,,,,,,,,,,,,U,125,hexagon,1,0,,,,,,,,,,,,,,,,switch,number,numSwt,j,1.017,Lo,,,,,,6,,,,,,,,low,7,0,7,0,1,,,,,,,,,
296056,2022-12-05_22h30.50.420,vts_reward_expectancy_bt,2022.2.4,MacIntel,60.0024001,Chrome,1440,900,,,,,0,1249,,,,,,,,,,,,,,,,,S,146,star,1,0,,,,,,,,,,,,,,,,repeat,number,numRpt,j,0.8262,Hi,,,,,,6,,,,,,,,low,8,0,8,0,1,,,,,,,,,
296056,2022-12-05_22h30.50.420,vts_reward_expectancy_bt,2022.2.4,MacIntel,60.0024001,Chrome,1440,900,,,,,10,1259,,,,,,,,,,,,,,,,,D,181,triangle,1,0,,,,,,,,,,,,,,,,repeat,number,numRpt,k,0.4956,Lo,,,,,,6,,,,,,,,low,9,0,9,0,1,,,,,,,,,
296056,2022-12-05_22h30.50.420,vts_reward_expectancy_bt,2022.2.4,MacIntel,60.0024001,Chrome,1440,900,,,,,0,1259,,,,,,,,,,,,,,,,,Y,167,circle,0,0,,,,,,,,,,,,,,,,repeat,number,NA,j,0.4821,Lo,,,,,,6,,,,,,,,low,10,0,10,0,1,,,,,,,,,
296056,2022-12-05_22h30.50.420,vts_reward_expectancy_bt,2022.2.4,MacIntel,60.0024001,Chrome,1440,900,,,,,10,1269,,,,,,,,,,,,,,,,,B,160,hexagon,1,1,,,,,,,,,,,,,,,,switch,letter,lettSwt,d,0.5281,Lo,,,,,,6,,,,,,,,low,11,0,11,0,1,,,,,,,,,
296056,2022-12-05_22h30.50.420,vts_reward_expectancy_bt,2022.2.4,MacIntel,60.0024001,Chrome,1440,900,,,,,0,1269,,,,,,,,,,,,,,,,,W,174,circle,1,0,,,,,,,,,,,,,,,,switch,number,numSwt,k,0.6833,Hi,,,,,,6,,,,,,,,low,12,0,12,0,1,,,,,,,,,
