participant,date,expName,psychopyVersion,OS,frameRate,browser,xResolution,yResolution,key_resp.keys,key_resp.rt,training_resp.keys,training_resp.rt,points_trial,points_cumul,trainBlock,training.thisRepN,training.thisTrialN,training.thisN,training.thisIndex,training.ran,LTriangleOpac,LCircleOpac,LHexagonOpac,LStarOpac,RTriangleOpac,RCircleOpac,RHexagonOpac,RStarOpac,LShape_ID,RShape_ID,curr_topStim,curr_bottStim,curr_shape,acc,E1,target_resp_prac1.keys,target_resp_prac1.rt,pracBlock,task1_prac_trials.thisRepN,task1_prac_trials.thisTrialN,task1_prac_trials.thisN,task1_prac_trials.thisIndex,task1_prac_trials.ran,target_resp_prac2.keys,target_resp_prac2.rt,task2_praac_trials.thisRepN,task2_praac_trials.thisTrialN,task2_praac_trials.thisN,task2_praac_trials.thisIndex,task2_praac_trials.ran,alt,task,condition,target_resp.keys,target_resp.rt,rewCond,vts_practice_trials.thisRepN,vts_practice_trials.thisTrialN,vts_practice_trials.thisN,vts_practice_trials.thisIndex,vts_practice_trials.ran,blockNum,trials_norew.thisRepN,trials_norew.thisTrialN,trials_norew.thisN,trials_norew.thisIndex,trials_norew.ran,key_resp_2.keys,key_resp_2.rt,rewExpectancy,trials_rew.thisRepN,trials_rew.thisTrialN,trials_rew.thisN,trials_rew.thisIndex,trials_rew.ran,Q1,Q2,Q2_text,Q3,Q4,Q5_text,Q5,xRes,yRes
296185,2022-12-03_16h04.35.552,vts_reward_expectancy_bt,2022.2.4,Win32,119.7748233,Chrome,1600,1067,,,,,,,,,,,,,,,,,,,,,,,,,,,,,,,,,,,,,,,,,,,,,,,,,,,,,,,,,,,,,,,,,,,,,,,,,,,,
296185,2022-12-03_16h04.35.552,vts_reward_expectancy_bt,2022.2.4,Win32,119.7748233,Chrome,1600,1067,space,18.8213,,,,,,,,,,,,,,,,,,,,,,,,,,,,,,,,,,,,,,,,,,,,,,,,,,,,,,,,,,,,,,,,,,,,,,,,,,
296185,2022-12-03_16h04.35.552,vts_reward_expectancy_bt,2022.2.4,Win32,119.7748233,Chrome,1600,1067,,,,,,,,,,,,,,,,,,,,,,,,,,,,,,,,,,,,,,,,,,,,,,,,,,,,,,,,,,,,,,,,,,,,,,,,,,,,
296185,2022-12-03_16h04.35.552,vts_reward_expectancy_bt,2022.2.4,Win32,119.7748233,Chrome,1600,1067,,,a,1.0565,1,1,0,0,0,0,7,1,0,0,1,0,0,1,0,0,hexagon,circle,,,,,,,,,,,,,,,,,,,,,,,,,,,,,,,,,,,,,,,,,,,,,,,,,,,,,,
296185,2022-12-03_16h04.35.552,vts_reward_expectancy_bt,2022.2.4,Win32,119.7748233,Chrome,1600,1067,,,l,1.1212,1,2,0,0,1,1,1,1,1,0,0,0,0,0,1,0,triangle,hexagon,,,,,,,,,,,,,,,,,,,,,,,,,,,,,,,,,,,,,,,,,,,,,,,,,,,,,,
296185,2022-12-03_16h04.35.552,vts_reward_expectancy_bt,2022.2.4,Win32,119.7748233,Chrome,1600,1067,,,l,1.1572,10,12,0,0,2,2,8,1,0,0,1,0,0,0,0,1,hexagon,star,,,,,,,,,,,,,,,,,,,,,,,,,,,,,,,,,,,,,,,,,,,,,,,,,,,,,,
296185,2022-12-03_16h04.35.552,vts_reward_expectancy_bt,2022.2.4,Win32,119.7748233,Chrome,1600,1067,,,a,0.9967,10,22,0,0,3,3,3,1,0,1,0,0,1,0,0,0,circle,triangle,,,,,,,,,,,,,,,,,,,,,,,,,,,,,,,,,,,,,,,,,,,,,,,,,,,,,,
296185,2022-12-03_16h04.35.552,vts_reward_expectancy_bt,2022.2.4,Win32,119.7748233,Chrome,1600,1067,,,l,1.1445,10,32,0,0,4,4,10,1,0,0,0,1,0,1,0,0,star ,circle,,,,,,,,,,,,,,,,,,,,,,,,,,,,,,,,,,,,,,,,,,,,,,,,,,,,,,
296185,2022-12-03_16h04.35.552,vts_reward_expectancy_bt,2022.2.4,Win32,119.7748233,Chrome,1600,1067,,,a,1.1908,1,33,0,0,5,5,2,1,1,0,0,0,0,0,0,1,triangle,star,,,,,,,,,,,,,,,,,,,,,,,,,,,,,,,,,,,,,,,,,,,,,,,,,,,,,,
296185,2022-12-03_16h04.35.552,vts_reward_expectancy_bt,2022.2.4,Win32,119.7748233,Chrome,1600,1067,,,l,0.7901,1,34,0,0,6,6,0,1,1,0,0,0,0,1,0,0,triangle,circle,,,,,,,,,,,,,,,,,,,,,,,,,,,,,,,,,,,,,,,,,,,,,,,,,,,,,,
296185,2022-12-03_16h04.35.552,vts_reward_expectancy_bt,2022.2.4,Win32,119.7748233,Chrome,1600,1067,,,a,0.7735,10,44,0,0,7,7,6,1,0,0,1,0,1,0,0,0,hexagon,triangle,,,,,,,,,,,,,,,,,,,,,,,,,,,,,,,,,,,,,,,,,,,,,,,,,,,,,,
296185,2022-12-03_16h04.35.552,vts_reward_expectancy_bt,2022.2.4,Win32,119.7748233,Chrome,1600,1067,,,l,0.8011,10,54,0,0,8,8,5,1,0,1,0,0,0,0,0,1,circle,star,,,,,,,,,,,,,,,,,,,,,,,,,,,,,,,,,,,,,,,,,,,,,,,,,,,,,,
296185,2022-12-03_16h04.35.552,vts_reward_expectancy_bt,2022.2.4,Win32,119.7748233,Chrome,1600,1067,,,a,1.2515,1,55,0,0,9,9,4,1,0,1,0,0,0,0,1,0,circle,hexagon,,,,,,,,,,,,,,,,,,,,,,,,,,,,,,,,,,,,,,,,,,,,,,,,,,,,,,
296185,2022-12-03_16h04.35.552,vts_reward_expectancy_bt,2022.2.4,Win32,119.7748233,Chrome,1600,1067,,,l,0.8326,10,65,0,0,10,10,9,1,0,0,0,1,1,0,0,0,star,triangle,,,,,,,,,,,,,,,,,,,,,,,,,,,,,,,,,,,,,,,,,,,,,,,,,,,,,,
296185,2022-12-03_16h04.35.552,vts_reward_expectancy_bt,2022.2.4,Win32,119.7748233,Chrome,1600,1067,,,l,1.3755,1,66,0,0,11,11,11,1,0,0,0,1,0,0,1,0,star,hexagon,,,,,,,,,,,,,,,,,,,,,,,,,,,,,,,,,,,,,,,,,,,,,,,,,,,,,,
296185,2022-12-03_16h04.35.552,vts_reward_expectancy_bt,2022.2.4,Win32,119.7748233,Chrome,1600,1067,,,a,1.324,10,76,0,1,0,12,5,1,0,1,0,0,0,0,0,1,circle,star,,,,,,,,,,,,,,,,,,,,,,,,,,,,,,,,,,,,,,,,,,,,,,,,,,,,,,
296185,2022-12-03_16h04.35.552,vts_reward_expectancy_bt,2022.2.4,Win32,119.7748233,Chrome,1600,1067,,,l,0.859,10,86,0,1,1,13,4,1,0,1,0,0,0,0,1,0,circle,hexagon,,,,,,,,,,,,,,,,,,,,,,,,,,,,,,,,,,,,,,,,,,,,,,,,,,,,,,
296185,2022-12-03_16h04.35.552,vts_reward_expectancy_bt,2022.2.4,Win32,119.7748233,Chrome,1600,1067,,,l,0.9913,1,87,0,1,2,14,3,1,0,1,0,0,1,0,0,0,circle,triangle,,,,,,,,,,,,,,,,,,,,,,,,,,,,,,,,,,,,,,,,,,,,,,,,,,,,,,
296185,2022-12-03_16h04.35.552,vts_reward_expectancy_bt,2022.2.4,Win32,119.7748233,Chrome,1600,1067,,,a,1.0233,1,88,0,1,3,15,2,1,1,0,0,0,0,0,0,1,triangle,star,,,,,,,,,,,,,,,,,,,,,,,,,,,,,,,,,,,,,,,,,,,,,,,,,,,,,,
296185,2022-12-03_16h04.35.552,vts_reward_expectancy_bt,2022.2.4,Win32,119.7748233,Chrome,1600,1067,,,a,0.674,10,98,0,1,4,16,8,1,0,0,1,0,0,0,0,1,hexagon,star,,,,,,,,,,,,,,,,,,,,,,,,,,,,,,,,,,,,,,,,,,,,,,,,,,,,,,
296185,2022-12-03_16h04.35.552,vts_reward_expectancy_bt,2022.2.4,Win32,119.7748233,Chrome,1600,1067,,,l,0.4019,1,99,0,1,5,17,6,1,0,0,1,0,1,0,0,0,hexagon,triangle,,,,,,,,,,,,,,,,,,,,,,,,,,,,,,,,,,,,,,,,,,,,,,,,,,,,,,
296185,2022-12-03_16h04.35.552,vts_reward_expectancy_bt,2022.2.4,Win32,119.7748233,Chrome,1600,1067,,,l,0.611,1,100,0,1,6,18,11,1,0,0,0,1,0,0,1,0,star,hexagon,,,,,,,,,,,,,,,,,,,,,,,,,,,,,,,,,,,,,,,,,,,,,,,,,,,,,,
296185,2022-12-03_16h04.35.552,vts_reward_expectancy_bt,2022.2.4,Win32,119.7748233,Chrome,1600,1067,,,l,0.6898,10,110,0,1,7,19,10,1,0,0,0,1,0,1,0,0,star ,circle,,,,,,,,,,,,,,,,,,,,,,,,,,,,,,,,,,,,,,,,,,,,,,,,,,,,,,
296185,2022-12-03_16h04.35.552,vts_reward_expectancy_bt,2022.2.4,Win32,119.7748233,Chrome,1600,1067,,,a,0.4267,1,111,0,1,8,20,0,1,1,0,0,0,0,1,0,0,triangle,circle,,,,,,,,,,,,,,,,,,,,,,,,,,,,,,,,,,,,,,,,,,,,,,,,,,,,,,
296185,2022-12-03_16h04.35.552,vts_reward_expectancy_bt,2022.2.4,Win32,119.7748233,Chrome,1600,1067,,,a,0.6351,10,121,0,1,9,21,9,1,0,0,0,1,1,0,0,0,star,triangle,,,,,,,,,,,,,,,,,,,,,,,,,,,,,,,,,,,,,,,,,,,,,,,,,,,,,,
296185,2022-12-03_16h04.35.552,vts_reward_expectancy_bt,2022.2.4,Win32,119.7748233,Chrome,1600,1067,,,a,0.5028,1,122,0,1,10,22,1,1,1,0,0,0,0,0,1,0,triangle,hexagon,,,,,,,,,,,,,,,,,,,,,,,,,,,,,,,,,,,,,,,,,,,,,,,,,,,,,,
296185,2022-12-03_16h04.35.552,vts_reward_expectancy_bt,2022.2.4,Win32,119.7748233,Chrome,1600,1067,,,l,0.7145,10,132,0,1,11,23,7,1,0,0,1,0,0,1,0,0,hexagon,circle,,,,,,,,,,,,,,,,,,,,,,,,,,,,,,,,,,,,,,,,,,,,,,,,,,,,,,
296185,2022-12-03_16h04.35.552,vts_reward_expectancy_bt,2022.2.4,Win32,119.7748233,Chrome,1600,1067,,,l,1.1165,10,142,0,2,0,24,10,1,0,0,0,1,0,1,0,0,star ,circle,,,,,,,,,,,,,,,,,,,,,,,,,,,,,,,,,,,,,,,,,,,,,,,,,,,,,,
296185,2022-12-03_16h04.35.552,vts_reward_expectancy_bt,2022.2.4,Win32,119.7748233,Chrome,1600,1067,,,a,2.2442,1,143,0,2,1,25,2,1,1,0,0,0,0,0,0,1,triangle,star,,,,,,,,,,,,,,,,,,,,,,,,,,,,,,,,,,,,,,,,,,,,,,,,,,,,,,
296185,2022-12-03_16h04.35.552,vts_reward_expectancy_bt,2022.2.4,Win32,119.7748233,Chrome,1600,1067,,,a,1.7751,10,153,0,2,2,26,11,1,0,0,0,1,0,0,1,0,star,hexagon,,,,,,,,,,,,,,,,,,,,,,,,,,,,,,,,,,,,,,,,,,,,,,,,,,,,,,
296185,2022-12-03_16h04.35.552,vts_reward_expectancy_bt,2022.2.4,Win32,119.7748233,Chrome,1600,1067,,,l,0.9267,10,163,0,2,3,27,5,1,0,1,0,0,0,0,0,1,circle,star,,,,,,,,,,,,,,,,,,,,,,,,,,,,,,,,,,,,,,,,,,,,,,,,,,,,,,
296185,2022-12-03_16h04.35.552,vts_reward_expectancy_bt,2022.2.4,Win32,119.7748233,Chrome,1600,1067,,,a,1.4324,1,164,0,2,4,28,6,1,0,0,1,0,1,0,0,0,hexagon,triangle,,,,,,,,,,,,,,,,,,,,,,,,,,,,,,,,,,,,,,,,,,,,,,,,,,,,,,
296185,2022-12-03_16h04.35.552,vts_reward_expectancy_bt,2022.2.4,Win32,119.7748233,Chrome,1600,1067,,,l,1.2676,10,174,0,2,5,29,7,1,0,0,1,0,0,1,0,0,hexagon,circle,,,,,,,,,,,,,,,,,,,,,,,,,,,,,,,,,,,,,,,,,,,,,,,,,,,,,,
296185,2022-12-03_16h04.35.552,vts_reward_expectancy_bt,2022.2.4,Win32,119.7748233,Chrome,1600,1067,,,a,1.0441,1,175,0,2,6,30,0,1,1,0,0,0,0,1,0,0,triangle,circle,,,,,,,,,,,,,,,,,,,,,,,,,,,,,,,,,,,,,,,,,,,,,,,,,,,,,,
296185,2022-12-03_16h04.35.552,vts_reward_expectancy_bt,2022.2.4,Win32,119.7748233,Chrome,1600,1067,,,l,1.8944,1,176,0,2,7,31,1,1,1,0,0,0,0,0,1,0,triangle,hexagon,,,,,,,,,,,,,,,,,,,,,,,,,,,,,,,,,,,,,,,,,,,,,,,,,,,,,,
296185,2022-12-03_16h04.35.552,vts_reward_expectancy_bt,2022.2.4,Win32,119.7748233,Chrome,1600,1067,,,l,0.9465,1,177,0,2,8,32,9,1,0,0,0,1,1,0,0,0,star,triangle,,,,,,,,,,,,,,,,,,,,,,,,,,,,,,,,,,,,,,,,,,,,,,,,,,,,,,
296185,2022-12-03_16h04.35.552,vts_reward_expectancy_bt,2022.2.4,Win32,119.7748233,Chrome,1600,1067,,,a,1.3624,10,187,0,2,9,33,4,1,0,1,0,0,0,0,1,0,circle,hexagon,,,,,,,,,,,,,,,,,,,,,,,,,,,,,,,,,,,,,,,,,,,,,,,,,,,,,,
296185,2022-12-03_16h04.35.552,vts_reward_expectancy_bt,2022.2.4,Win32,119.7748233,Chrome,1600,1067,,,a,1.2557,10,197,0,2,10,34,3,1,0,1,0,0,1,0,0,0,circle,triangle,,,,,,,,,,,,,,,,,,,,,,,,,,,,,,,,,,,,,,,,,,,,,,,,,,,,,,
296185,2022-12-03_16h04.35.552,vts_reward_expectancy_bt,2022.2.4,Win32,119.7748233,Chrome,1600,1067,,,l,1.0228,1,198,0,2,11,35,8,1,0,0,1,0,0,0,0,1,hexagon,star,,,,,,,,,,,,,,,,,,,,,,,,,,,,,,,,,,,,,,,,,,,,,,,,,,,,,,
296185,2022-12-03_16h04.35.552,vts_reward_expectancy_bt,2022.2.4,Win32,119.7748233,Chrome,1600,1067,,,l,2.7822,1,199,1,0,0,0,9,1,0,0,0,1,1,0,0,0,star,triangle,,,,,,,,,,,,,,,,,,,,,,,,,,,,,,,,,,,,,,,,,,,,,,,,,,,,,,
296185,2022-12-03_16h04.35.552,vts_reward_expectancy_bt,2022.2.4,Win32,119.7748233,Chrome,1600,1067,,,a,3.7631,10,209,1,0,1,1,2,1,1,0,0,0,0,0,0,1,triangle,star,,,,,,,,,,,,,,,,,,,,,,,,,,,,,,,,,,,,,,,,,,,,,,,,,,,,,,
296185,2022-12-03_16h04.35.552,vts_reward_expectancy_bt,2022.2.4,Win32,119.7748233,Chrome,1600,1067,,,l,1.4462,10,219,1,0,2,2,7,1,0,0,1,0,0,1,0,0,hexagon,circle,,,,,,,,,,,,,,,,,,,,,,,,,,,,,,,,,,,,,,,,,,,,,,,,,,,,,,
296185,2022-12-03_16h04.35.552,vts_reward_expectancy_bt,2022.2.4,Win32,119.7748233,Chrome,1600,1067,,,a,0.7969,10,229,1,0,3,3,4,1,0,1,0,0,0,0,1,0,circle,hexagon,,,,,,,,,,,,,,,,,,,,,,,,,,,,,,,,,,,,,,,,,,,,,,,,,,,,,,
296185,2022-12-03_16h04.35.552,vts_reward_expectancy_bt,2022.2.4,Win32,119.7748233,Chrome,1600,1067,,,a,1.5194,10,239,1,0,4,4,3,1,0,1,0,0,1,0,0,0,circle,triangle,,,,,,,,,,,,,,,,,,,,,,,,,,,,,,,,,,,,,,,,,,,,,,,,,,,,,,
296185,2022-12-03_16h04.35.552,vts_reward_expectancy_bt,2022.2.4,Win32,119.7748233,Chrome,1600,1067,,,a,1.3043,10,249,1,0,5,5,11,1,0,0,0,1,0,0,1,0,star,hexagon,,,,,,,,,,,,,,,,,,,,,,,,,,,,,,,,,,,,,,,,,,,,,,,,,,,,,,
296185,2022-12-03_16h04.35.552,vts_reward_expectancy_bt,2022.2.4,Win32,119.7748233,Chrome,1600,1067,,,a,0.8229,10,259,1,0,6,6,10,1,0,0,0,1,0,1,0,0,star ,circle,,,,,,,,,,,,,,,,,,,,,,,,,,,,,,,,,,,,,,,,,,,,,,,,,,,,,,
296185,2022-12-03_16h04.35.552,vts_reward_expectancy_bt,2022.2.4,Win32,119.7748233,Chrome,1600,1067,,,l,1.8902,1,260,1,0,7,7,1,1,1,0,0,0,0,0,1,0,triangle,hexagon,,,,,,,,,,,,,,,,,,,,,,,,,,,,,,,,,,,,,,,,,,,,,,,,,,,,,,
296185,2022-12-03_16h04.35.552,vts_reward_expectancy_bt,2022.2.4,Win32,119.7748233,Chrome,1600,1067,,,l,1.4136,1,261,1,0,8,8,6,1,0,0,1,0,1,0,0,0,hexagon,triangle,,,,,,,,,,,,,,,,,,,,,,,,,,,,,,,,,,,,,,,,,,,,,,,,,,,,,,
296185,2022-12-03_16h04.35.552,vts_reward_expectancy_bt,2022.2.4,Win32,119.7748233,Chrome,1600,1067,,,l,1.066,10,271,1,0,9,9,8,1,0,0,1,0,0,0,0,1,hexagon,star,,,,,,,,,,,,,,,,,,,,,,,,,,,,,,,,,,,,,,,,,,,,,,,,,,,,,,
296185,2022-12-03_16h04.35.552,vts_reward_expectancy_bt,2022.2.4,Win32,119.7748233,Chrome,1600,1067,,,a,1.8992,1,272,1,0,10,10,5,1,0,1,0,0,0,0,0,1,circle,star,,,,,,,,,,,,,,,,,,,,,,,,,,,,,,,,,,,,,,,,,,,,,,,,,,,,,,
296185,2022-12-03_16h04.35.552,vts_reward_expectancy_bt,2022.2.4,Win32,119.7748233,Chrome,1600,1067,,,l,1.2259,10,282,1,0,11,11,0,1,1,0,0,0,0,1,0,0,triangle,circle,,,,,,,,,,,,,,,,,,,,,,,,,,,,,,,,,,,,,,,,,,,,,,,,,,,,,,
296185,2022-12-03_16h04.35.552,vts_reward_expectancy_bt,2022.2.4,Win32,119.7748233,Chrome,1600,1067,,,l,1.5542,10,292,1,1,0,12,2,1,1,0,0,0,0,0,0,1,triangle,star,,,,,,,,,,,,,,,,,,,,,,,,,,,,,,,,,,,,,,,,,,,,,,,,,,,,,,
296185,2022-12-03_16h04.35.552,vts_reward_expectancy_bt,2022.2.4,Win32,119.7748233,Chrome,1600,1067,,,a,1.5098,10,302,1,1,1,13,7,1,0,0,1,0,0,1,0,0,hexagon,circle,,,,,,,,,,,,,,,,,,,,,,,,,,,,,,,,,,,,,,,,,,,,,,,,,,,,,,
296185,2022-12-03_16h04.35.552,vts_reward_expectancy_bt,2022.2.4,Win32,119.7748233,Chrome,1600,1067,,,l,1.1976,1,303,1,1,2,14,11,1,0,0,0,1,0,0,1,0,star,hexagon,,,,,,,,,,,,,,,,,,,,,,,,,,,,,,,,,,,,,,,,,,,,,,,,,,,,,,
296185,2022-12-03_16h04.35.552,vts_reward_expectancy_bt,2022.2.4,Win32,119.7748233,Chrome,1600,1067,,,a,1.2123,10,313,1,1,3,15,1,1,1,0,0,0,0,0,1,0,triangle,hexagon,,,,,,,,,,,,,,,,,,,,,,,,,,,,,,,,,,,,,,,,,,,,,,,,,,,,,,
296185,2022-12-03_16h04.35.552,vts_reward_expectancy_bt,2022.2.4,Win32,119.7748233,Chrome,1600,1067,,,a,0.8433,10,323,1,1,4,16,5,1,0,1,0,0,0,0,0,1,circle,star,,,,,,,,,,,,,,,,,,,,,,,,,,,,,,,,,,,,,,,,,,,,,,,,,,,,,,
296185,2022-12-03_16h04.35.552,vts_reward_expectancy_bt,2022.2.4,Win32,119.7748233,Chrome,1600,1067,,,l,0.7138,1,324,1,1,5,17,0,1,1,0,0,0,0,1,0,0,triangle,circle,,,,,,,,,,,,,,,,,,,,,,,,,,,,,,,,,,,,,,,,,,,,,,,,,,,,,,
296185,2022-12-03_16h04.35.552,vts_reward_expectancy_bt,2022.2.4,Win32,119.7748233,Chrome,1600,1067,,,l,1.3866,10,334,1,1,6,18,10,1,0,0,0,1,0,1,0,0,star ,circle,,,,,,,,,,,,,,,,,,,,,,,,,,,,,,,,,,,,,,,,,,,,,,,,,,,,,,
296185,2022-12-03_16h04.35.552,vts_reward_expectancy_bt,2022.2.4,Win32,119.7748233,Chrome,1600,1067,,,a,0.9883,1,335,1,1,7,19,6,1,0,0,1,0,1,0,0,0,hexagon,triangle,,,,,,,,,,,,,,,,,,,,,,,,,,,,,,,,,,,,,,,,,,,,,,,,,,,,,,
296185,2022-12-03_16h04.35.552,vts_reward_expectancy_bt,2022.2.4,Win32,119.7748233,Chrome,1600,1067,,,a,0.6196,10,345,1,1,8,20,3,1,0,1,0,0,1,0,0,0,circle,triangle,,,,,,,,,,,,,,,,,,,,,,,,,,,,,,,,,,,,,,,,,,,,,,,,,,,,,,
296185,2022-12-03_16h04.35.552,vts_reward_expectancy_bt,2022.2.4,Win32,119.7748233,Chrome,1600,1067,,,l,0.8719,10,355,1,1,9,21,8,1,0,0,1,0,0,0,0,1,hexagon,star,,,,,,,,,,,,,,,,,,,,,,,,,,,,,,,,,,,,,,,,,,,,,,,,,,,,,,
296185,2022-12-03_16h04.35.552,vts_reward_expectancy_bt,2022.2.4,Win32,119.7748233,Chrome,1600,1067,,,a,0.5687,10,365,1,1,10,22,4,1,0,1,0,0,0,0,1,0,circle,hexagon,,,,,,,,,,,,,,,,,,,,,,,,,,,,,,,,,,,,,,,,,,,,,,,,,,,,,,
296185,2022-12-03_16h04.35.552,vts_reward_expectancy_bt,2022.2.4,Win32,119.7748233,Chrome,1600,1067,,,l,0.3318,1,366,1,1,11,23,9,1,0,0,0,1,1,0,0,0,star,triangle,,,,,,,,,,,,,,,,,,,,,,,,,,,,,,,,,,,,,,,,,,,,,,,,,,,,,,
296185,2022-12-03_16h04.35.552,vts_reward_expectancy_bt,2022.2.4,Win32,119.7748233,Chrome,1600,1067,,,a,0.5409,1,367,1,2,0,24,2,1,1,0,0,0,0,0,0,1,triangle,star,,,,,,,,,,,,,,,,,,,,,,,,,,,,,,,,,,,,,,,,,,,,,,,,,,,,,,
296185,2022-12-03_16h04.35.552,vts_reward_expectancy_bt,2022.2.4,Win32,119.7748233,Chrome,1600,1067,,,a,0.9076,1,368,1,2,1,25,1,1,1,0,0,0,0,0,1,0,triangle,hexagon,,,,,,,,,,,,,,,,,,,,,,,,,,,,,,,,,,,,,,,,,,,,,,,,,,,,,,
296185,2022-12-03_16h04.35.552,vts_reward_expectancy_bt,2022.2.4,Win32,119.7748233,Chrome,1600,1067,,,l,0.6575,10,378,1,2,2,26,7,1,0,0,1,0,0,1,0,0,hexagon,circle,,,,,,,,,,,,,,,,,,,,,,,,,,,,,,,,,,,,,,,,,,,,,,,,,,,,,,
296185,2022-12-03_16h04.35.552,vts_reward_expectancy_bt,2022.2.4,Win32,119.7748233,Chrome,1600,1067,,,a,1.0949,1,379,1,2,3,27,11,1,0,0,0,1,0,0,1,0,star,hexagon,,,,,,,,,,,,,,,,,,,,,,,,,,,,,,,,,,,,,,,,,,,,,,,,,,,,,,
296185,2022-12-03_16h04.35.552,vts_reward_expectancy_bt,2022.2.4,Win32,119.7748233,Chrome,1600,1067,,,a,2.2192,10,389,1,2,4,28,9,1,0,0,0,1,1,0,0,0,star,triangle,,,,,,,,,,,,,,,,,,,,,,,,,,,,,,,,,,,,,,,,,,,,,,,,,,,,,,
296185,2022-12-03_16h04.35.552,vts_reward_expectancy_bt,2022.2.4,Win32,119.7748233,Chrome,1600,1067,,,a,0.6026,10,399,1,2,5,29,4,1,0,1,0,0,0,0,1,0,circle,hexagon,,,,,,,,,,,,,,,,,,,,,,,,,,,,,,,,,,,,,,,,,,,,,,,,,,,,,,
296185,2022-12-03_16h04.35.552,vts_reward_expectancy_bt,2022.2.4,Win32,119.7748233,Chrome,1600,1067,,,l,0.7824,10,409,1,2,6,30,8,1,0,0,1,0,0,0,0,1,hexagon,star,,,,,,,,,,,,,,,,,,,,,,,,,,,,,,,,,,,,,,,,,,,,,,,,,,,,,,
296185,2022-12-03_16h04.35.552,vts_reward_expectancy_bt,2022.2.4,Win32,119.7748233,Chrome,1600,1067,,,l,0.671,1,410,1,2,7,31,6,1,0,0,1,0,1,0,0,0,hexagon,triangle,,,,,,,,,,,,,,,,,,,,,,,,,,,,,,,,,,,,,,,,,,,,,,,,,,,,,,
296185,2022-12-03_16h04.35.552,vts_reward_expectancy_bt,2022.2.4,Win32,119.7748233,Chrome,1600,1067,,,l,0.803,10,420,1,2,8,32,0,1,1,0,0,0,0,1,0,0,triangle,circle,,,,,,,,,,,,,,,,,,,,,,,,,,,,,,,,,,,,,,,,,,,,,,,,,,,,,,
296185,2022-12-03_16h04.35.552,vts_reward_expectancy_bt,2022.2.4,Win32,119.7748233,Chrome,1600,1067,,,a,0.4947,10,430,1,2,9,33,3,1,0,1,0,0,1,0,0,0,circle,triangle,,,,,,,,,,,,,,,,,,,,,,,,,,,,,,,,,,,,,,,,,,,,,,,,,,,,,,
296185,2022-12-03_16h04.35.552,vts_reward_expectancy_bt,2022.2.4,Win32,119.7748233,Chrome,1600,1067,,,l,0.5071,10,440,1,2,10,34,10,1,0,0,0,1,0,1,0,0,star ,circle,,,,,,,,,,,,,,,,,,,,,,,,,,,,,,,,,,,,,,,,,,,,,,,,,,,,,,
296185,2022-12-03_16h04.35.552,vts_reward_expectancy_bt,2022.2.4,Win32,119.7748233,Chrome,1600,1067,,,a,0.6847,10,450,1,2,11,35,5,1,0,1,0,0,0,0,0,1,circle,star,,,,,,,,,,,,,,,,,,,,,,,,,,,,,,,,,,,,,,,,,,,,,,,,,,,,,,
296185,2022-12-03_16h04.35.552,vts_reward_expectancy_bt,2022.2.4,Win32,119.7748233,Chrome,1600,1067,,,a,1.0759,1,451,2,0,0,0,1,1,1,0,0,0,0,0,1,0,triangle,hexagon,,,,,,,,,,,,,,,,,,,,,,,,,,,,,,,,,,,,,,,,,,,,,,,,,,,,,,
296185,2022-12-03_16h04.35.552,vts_reward_expectancy_bt,2022.2.4,Win32,119.7748233,Chrome,1600,1067,,,l,0.6943,1,452,2,0,1,1,7,1,0,0,1,0,0,1,0,0,hexagon,circle,,,,,,,,,,,,,,,,,,,,,,,,,,,,,,,,,,,,,,,,,,,,,,,,,,,,,,
296185,2022-12-03_16h04.35.552,vts_reward_expectancy_bt,2022.2.4,Win32,119.7748233,Chrome,1600,1067,,,l,0.8231,10,462,2,0,2,2,0,1,1,0,0,0,0,1,0,0,triangle,circle,,,,,,,,,,,,,,,,,,,,,,,,,,,,,,,,,,,,,,,,,,,,,,,,,,,,,,
296185,2022-12-03_16h04.35.552,vts_reward_expectancy_bt,2022.2.4,Win32,119.7748233,Chrome,1600,1067,,,a,0.6306,10,472,2,0,3,3,4,1,0,1,0,0,0,0,1,0,circle,hexagon,,,,,,,,,,,,,,,,,,,,,,,,,,,,,,,,,,,,,,,,,,,,,,,,,,,,,,
296185,2022-12-03_16h04.35.552,vts_reward_expectancy_bt,2022.2.4,Win32,119.7748233,Chrome,1600,1067,,,a,0.6159,1,473,2,0,4,4,5,1,0,1,0,0,0,0,0,1,circle,star,,,,,,,,,,,,,,,,,,,,,,,,,,,,,,,,,,,,,,,,,,,,,,,,,,,,,,
296185,2022-12-03_16h04.35.552,vts_reward_expectancy_bt,2022.2.4,Win32,119.7748233,Chrome,1600,1067,,,a,0.8033,10,483,2,0,5,5,11,1,0,0,0,1,0,0,1,0,star,hexagon,,,,,,,,,,,,,,,,,,,,,,,,,,,,,,,,,,,,,,,,,,,,,,,,,,,,,,
296185,2022-12-03_16h04.35.552,vts_reward_expectancy_bt,2022.2.4,Win32,119.7748233,Chrome,1600,1067,,,l,1.2871,10,493,2,0,6,6,8,1,0,0,1,0,0,0,0,1,hexagon,star,,,,,,,,,,,,,,,,,,,,,,,,,,,,,,,,,,,,,,,,,,,,,,,,,,,,,,
296185,2022-12-03_16h04.35.552,vts_reward_expectancy_bt,2022.2.4,Win32,119.7748233,Chrome,1600,1067,,,a,0.802,1,494,2,0,7,7,3,1,0,1,0,0,1,0,0,0,circle,triangle,,,,,,,,,,,,,,,,,,,,,,,,,,,,,,,,,,,,,,,,,,,,,,,,,,,,,,
296185,2022-12-03_16h04.35.552,vts_reward_expectancy_bt,2022.2.4,Win32,119.7748233,Chrome,1600,1067,,,l,1.1245,10,504,2,0,8,8,6,1,0,0,1,0,1,0,0,0,hexagon,triangle,,,,,,,,,,,,,,,,,,,,,,,,,,,,,,,,,,,,,,,,,,,,,,,,,,,,,,
296185,2022-12-03_16h04.35.552,vts_reward_expectancy_bt,2022.2.4,Win32,119.7748233,Chrome,1600,1067,,,a,1.1105,10,514,2,0,9,9,10,1,0,0,0,1,0,1,0,0,star ,circle,,,,,,,,,,,,,,,,,,,,,,,,,,,,,,,,,,,,,,,,,,,,,,,,,,,,,,
296185,2022-12-03_16h04.35.552,vts_reward_expectancy_bt,2022.2.4,Win32,119.7748233,Chrome,1600,1067,,,l,1.4481,1,515,2,0,10,10,2,1,1,0,0,0,0,0,0,1,triangle,star,,,,,,,,,,,,,,,,,,,,,,,,,,,,,,,,,,,,,,,,,,,,,,,,,,,,,,
296185,2022-12-03_16h04.35.552,vts_reward_expectancy_bt,2022.2.4,Win32,119.7748233,Chrome,1600,1067,,,l,1.6962,1,516,2,0,11,11,9,1,0,0,0,1,1,0,0,0,star,triangle,,,,,,,,,,,,,,,,,,,,,,,,,,,,,,,,,,,,,,,,,,,,,,,,,,,,,,
296185,2022-12-03_16h04.35.552,vts_reward_expectancy_bt,2022.2.4,Win32,119.7748233,Chrome,1600,1067,,,l,0.6126,10,526,2,1,0,12,0,1,1,0,0,0,0,1,0,0,triangle,circle,,,,,,,,,,,,,,,,,,,,,,,,,,,,,,,,,,,,,,,,,,,,,,,,,,,,,,
296185,2022-12-03_16h04.35.552,vts_reward_expectancy_bt,2022.2.4,Win32,119.7748233,Chrome,1600,1067,,,l,5.0344,10,536,2,1,1,13,6,1,0,0,1,0,1,0,0,0,hexagon,triangle,,,,,,,,,,,,,,,,,,,,,,,,,,,,,,,,,,,,,,,,,,,,,,,,,,,,,,
296185,2022-12-03_16h04.35.552,vts_reward_expectancy_bt,2022.2.4,Win32,119.7748233,Chrome,1600,1067,,,a,1.1279,10,546,2,1,2,14,4,1,0,1,0,0,0,0,1,0,circle,hexagon,,,,,,,,,,,,,,,,,,,,,,,,,,,,,,,,,,,,,,,,,,,,,,,,,,,,,,
296185,2022-12-03_16h04.35.552,vts_reward_expectancy_bt,2022.2.4,Win32,119.7748233,Chrome,1600,1067,,,a,1.1106,10,556,2,1,3,15,5,1,0,1,0,0,0,0,0,1,circle,star,,,,,,,,,,,,,,,,,,,,,,,,,,,,,,,,,,,,,,,,,,,,,,,,,,,,,,
296185,2022-12-03_16h04.35.552,vts_reward_expectancy_bt,2022.2.4,Win32,119.7748233,Chrome,1600,1067,,,a,1.3382,1,557,2,1,4,16,2,1,1,0,0,0,0,0,0,1,triangle,star,,,,,,,,,,,,,,,,,,,,,,,,,,,,,,,,,,,,,,,,,,,,,,,,,,,,,,
296185,2022-12-03_16h04.35.552,vts_reward_expectancy_bt,2022.2.4,Win32,119.7748233,Chrome,1600,1067,,,l,1.034,1,558,2,1,5,17,1,1,1,0,0,0,0,0,1,0,triangle,hexagon,,,,,,,,,,,,,,,,,,,,,,,,,,,,,,,,,,,,,,,,,,,,,,,,,,,,,,
296185,2022-12-03_16h04.35.552,vts_reward_expectancy_bt,2022.2.4,Win32,119.7748233,Chrome,1600,1067,,,a,1.9395,1,559,2,1,6,18,8,1,0,0,1,0,0,0,0,1,hexagon,star,,,,,,,,,,,,,,,,,,,,,,,,,,,,,,,,,,,,,,,,,,,,,,,,,,,,,,
296185,2022-12-03_16h04.35.552,vts_reward_expectancy_bt,2022.2.4,Win32,119.7748233,Chrome,1600,1067,,,l,0.6196,1,560,2,1,7,19,9,1,0,0,0,1,1,0,0,0,star,triangle,,,,,,,,,,,,,,,,,,,,,,,,,,,,,,,,,,,,,,,,,,,,,,,,,,,,,,
296185,2022-12-03_16h04.35.552,vts_reward_expectancy_bt,2022.2.4,Win32,119.7748233,Chrome,1600,1067,,,a,0.736,10,570,2,1,8,20,11,1,0,0,0,1,0,0,1,0,star,hexagon,,,,,,,,,,,,,,,,,,,,,,,,,,,,,,,,,,,,,,,,,,,,,,,,,,,,,,
296185,2022-12-03_16h04.35.552,vts_reward_expectancy_bt,2022.2.4,Win32,119.7748233,Chrome,1600,1067,,,l,0.5994,1,571,2,1,9,21,7,1,0,0,1,0,0,1,0,0,hexagon,circle,,,,,,,,,,,,,,,,,,,,,,,,,,,,,,,,,,,,,,,,,,,,,,,,,,,,,,
296185,2022-12-03_16h04.35.552,vts_reward_expectancy_bt,2022.2.4,Win32,119.7748233,Chrome,1600,1067,,,a,0.8231,10,581,2,1,10,22,3,1,0,1,0,0,1,0,0,0,circle,triangle,,,,,,,,,,,,,,,,,,,,,,,,,,,,,,,,,,,,,,,,,,,,,,,,,,,,,,
296185,2022-12-03_16h04.35.552,vts_reward_expectancy_bt,2022.2.4,Win32,119.7748233,Chrome,1600,1067,,,l,0.5643,10,591,2,1,11,23,10,1,0,0,0,1,0,1,0,0,star ,circle,,,,,,,,,,,,,,,,,,,,,,,,,,,,,,,,,,,,,,,,,,,,,,,,,,,,,,
296185,2022-12-03_16h04.35.552,vts_reward_expectancy_bt,2022.2.4,Win32,119.7748233,Chrome,1600,1067,,,l,1.1392,10,601,2,2,0,24,9,1,0,0,0,1,1,0,0,0,star,triangle,,,,,,,,,,,,,,,,,,,,,,,,,,,,,,,,,,,,,,,,,,,,,,,,,,,,,,
296185,2022-12-03_16h04.35.552,vts_reward_expectancy_bt,2022.2.4,Win32,119.7748233,Chrome,1600,1067,,,a,1.0387,1,602,2,2,1,25,2,1,1,0,0,0,0,0,0,1,triangle,star,,,,,,,,,,,,,,,,,,,,,,,,,,,,,,,,,,,,,,,,,,,,,,,,,,,,,,
296185,2022-12-03_16h04.35.552,vts_reward_expectancy_bt,2022.2.4,Win32,119.7748233,Chrome,1600,1067,,,l,0.8659,10,612,2,2,2,26,10,1,0,0,0,1,0,1,0,0,star ,circle,,,,,,,,,,,,,,,,,,,,,,,,,,,,,,,,,,,,,,,,,,,,,,,,,,,,,,
296185,2022-12-03_16h04.35.552,vts_reward_expectancy_bt,2022.2.4,Win32,119.7748233,Chrome,1600,1067,,,a,0.8896,10,622,2,2,3,27,3,1,0,1,0,0,1,0,0,0,circle,triangle,,,,,,,,,,,,,,,,,,,,,,,,,,,,,,,,,,,,,,,,,,,,,,,,,,,,,,
296185,2022-12-03_16h04.35.552,vts_reward_expectancy_bt,2022.2.4,Win32,119.7748233,Chrome,1600,1067,,,l,1.3839,1,623,2,2,4,28,1,1,1,0,0,0,0,0,1,0,triangle,hexagon,,,,,,,,,,,,,,,,,,,,,,,,,,,,,,,,,,,,,,,,,,,,,,,,,,,,,,
296185,2022-12-03_16h04.35.552,vts_reward_expectancy_bt,2022.2.4,Win32,119.7748233,Chrome,1600,1067,,,l,1.4149,1,624,2,2,5,29,4,1,0,1,0,0,0,0,1,0,circle,hexagon,,,,,,,,,,,,,,,,,,,,,,,,,,,,,,,,,,,,,,,,,,,,,,,,,,,,,,
296185,2022-12-03_16h04.35.552,vts_reward_expectancy_bt,2022.2.4,Win32,119.7748233,Chrome,1600,1067,,,a,1.5572,1,625,2,2,6,30,8,1,0,0,1,0,0,0,0,1,hexagon,star,,,,,,,,,,,,,,,,,,,,,,,,,,,,,,,,,,,,,,,,,,,,,,,,,,,,,,
296185,2022-12-03_16h04.35.552,vts_reward_expectancy_bt,2022.2.4,Win32,119.7748233,Chrome,1600,1067,,,l,0.6773,10,635,2,2,7,31,0,1,1,0,0,0,0,1,0,0,triangle,circle,,,,,,,,,,,,,,,,,,,,,,,,,,,,,,,,,,,,,,,,,,,,,,,,,,,,,,
296185,2022-12-03_16h04.35.552,vts_reward_expectancy_bt,2022.2.4,Win32,119.7748233,Chrome,1600,1067,,,a,0.7332,10,645,2,2,8,32,6,1,0,0,1,0,1,0,0,0,hexagon,triangle,,,,,,,,,,,,,,,,,,,,,,,,,,,,,,,,,,,,,,,,,,,,,,,,,,,,,,
296185,2022-12-03_16h04.35.552,vts_reward_expectancy_bt,2022.2.4,Win32,119.7748233,Chrome,1600,1067,,,a,1.2138,1,646,2,2,9,33,7,1,0,0,1,0,0,1,0,0,hexagon,circle,,,,,,,,,,,,,,,,,,,,,,,,,,,,,,,,,,,,,,,,,,,,,,,,,,,,,,
296185,2022-12-03_16h04.35.552,vts_reward_expectancy_bt,2022.2.4,Win32,119.7748233,Chrome,1600,1067,,,a,0.6214,10,656,2,2,10,34,5,1,0,1,0,0,0,0,0,1,circle,star,,,,,,,,,,,,,,,,,,,,,,,,,,,,,,,,,,,,,,,,,,,,,,,,,,,,,,
296185,2022-12-03_16h04.35.552,vts_reward_expectancy_bt,2022.2.4,Win32,119.7748233,Chrome,1600,1067,,,l,0.891,1,657,2,2,11,35,11,1,0,0,0,1,0,0,1,0,star,hexagon,,,,,,,,,,,,,,,,,,,,,,,,,,,,,,,,,,,,,,,,,,,,,,,,,,,,,,
296185,2022-12-03_16h04.35.552,vts_reward_expectancy_bt,2022.2.4,Win32,119.7748233,Chrome,1600,1067,,,,,,,,,,,,,,,,,,,,,,,132,U,circle,1,0,d,1.6394,0,0,0,0,0,1,,,,,,,,,,,,,,,,,,,,,,,,,,,,,,,,,,,,,,,,,
296185,2022-12-03_16h04.35.552,vts_reward_expectancy_bt,2022.2.4,Win32,119.7748233,Chrome,1600,1067,,,,,,,,,,,,,,,,,,,,,,,146,S,star,1,0,d,0.8904,0,1,0,1,0,1,,,,,,,,,,,,,,,,,,,,,,,,,,,,,,,,,,,,,,,,,
296185,2022-12-03_16h04.35.552,vts_reward_expectancy_bt,2022.2.4,Win32,119.7748233,Chrome,1600,1067,,,,,,,,,,,,,,,,,,,,,,,181,Y,hexagon,1,0,f,0.5273,0,2,0,2,0,1,,,,,,,,,,,,,,,,,,,,,,,,,,,,,,,,,,,,,,,,,
296185,2022-12-03_16h04.35.552,vts_reward_expectancy_bt,2022.2.4,Win32,119.7748233,Chrome,1600,1067,,,,,,,,,,,,,,,,,,,,,,,160,H,triangle,1,0,f,0.4069,0,3,0,3,0,1,,,,,,,,,,,,,,,,,,,,,,,,,,,,,,,,,,,,,,,,,
296185,2022-12-03_16h04.35.552,vts_reward_expectancy_bt,2022.2.4,Win32,119.7748233,Chrome,1600,1067,,,,,,,,,,,,,,,,,,,,,,,167,B,circle,1,0,f,0.4869,0,4,0,4,0,1,,,,,,,,,,,,,,,,,,,,,,,,,,,,,,,,,,,,,,,,,
296185,2022-12-03_16h04.35.552,vts_reward_expectancy_bt,2022.2.4,Win32,119.7748233,Chrome,1600,1067,,,,,,,,,,,,,,,,,,,,,,,174,D,star,1,0,f,0.5226,0,5,0,5,0,1,,,,,,,,,,,,,,,,,,,,,,,,,,,,,,,,,,,,,,,,,
296185,2022-12-03_16h04.35.552,vts_reward_expectancy_bt,2022.2.4,Win32,119.7748233,Chrome,1600,1067,,,,,,,,,,,,,,,,,,,,,,,125,F,hexagon,1,0,d,0.5586,0,6,0,6,0,1,,,,,,,,,,,,,,,,,,,,,,,,,,,,,,,,,,,,,,,,,
296185,2022-12-03_16h04.35.552,vts_reward_expectancy_bt,2022.2.4,Win32,119.7748233,Chrome,1600,1067,,,,,,,,,,,,,,,,,,,,,,,139,W,triangle,1,0,d,0.4236,0,7,0,7,0,1,,,,,,,,,,,,,,,,,,,,,,,,,,,,,,,,,,,,,,,,,
296185,2022-12-03_16h04.35.552,vts_reward_expectancy_bt,2022.2.4,Win32,119.7748233,Chrome,1600,1067,,,,,,,,,,,,,,,,,,,,,,,132,U,circle,1,0,d,0.5367,0,8,0,8,0,1,,,,,,,,,,,,,,,,,,,,,,,,,,,,,,,,,,,,,,,,,
296185,2022-12-03_16h04.35.552,vts_reward_expectancy_bt,2022.2.4,Win32,119.7748233,Chrome,1600,1067,,,,,,,,,,,,,,,,,,,,,,,146,S,star,1,0,d,0.6179,0,9,0,9,0,1,,,,,,,,,,,,,,,,,,,,,,,,,,,,,,,,,,,,,,,,,
296185,2022-12-03_16h04.35.552,vts_reward_expectancy_bt,2022.2.4,Win32,119.7748233,Chrome,1600,1067,,,,,,,,,,,,,,,,,,,,,,,160,Y,circle,1,0,,,1,,,,,,k,0.6812,0,0,0,0,1,,,,,,,,,,,,,,,,,,,,,,,,,,,,,,,,,,
296185,2022-12-03_16h04.35.552,vts_reward_expectancy_bt,2022.2.4,Win32,119.7748233,Chrome,1600,1067,,,,,,,,,,,,,,,,,,,,,,,181,D,star,1,0,,,1,,,,,,j,0.8025,1,0,1,0,1,,,,,,,,,,,,,,,,,,,,,,,,,,,,,,,,,,
296185,2022-12-03_16h04.35.552,vts_reward_expectancy_bt,2022.2.4,Win32,119.7748233,Chrome,1600,1067,,,,,,,,,,,,,,,,,,,,,,,132,W,hexagon,1,0,,,1,,,,,,k,0.7322,2,0,2,0,1,,,,,,,,,,,,,,,,,,,,,,,,,,,,,,,,,,
296185,2022-12-03_16h04.35.552,vts_reward_expectancy_bt,2022.2.4,Win32,119.7748233,Chrome,1600,1067,,,,,,,,,,,,,,,,,,,,,,,139,S,triangle,1,0,,,1,,,,,,k,0.7761,3,0,3,0,1,,,,,,,,,,,,,,,,,,,,,,,,,,,,,,,,,,
296185,2022-12-03_16h04.35.552,vts_reward_expectancy_bt,2022.2.4,Win32,119.7748233,Chrome,1600,1067,,,,,,,,,,,,,,,,,,,,,,,125,B,circle,1,0,,,1,,,,,,j,0.4789,4,0,4,0,1,,,,,,,,,,,,,,,,,,,,,,,,,,,,,,,,,,
296185,2022-12-03_16h04.35.552,vts_reward_expectancy_bt,2022.2.4,Win32,119.7748233,Chrome,1600,1067,,,,,,,,,,,,,,,,,,,,,,,174,F,star,1,0,,,1,,,,,,j,1.5235,5,0,5,0,1,,,,,,,,,,,,,,,,,,,,,,,,,,,,,,,,,,
296185,2022-12-03_16h04.35.552,vts_reward_expectancy_bt,2022.2.4,Win32,119.7748233,Chrome,1600,1067,,,,,,,,,,,,,,,,,,,,,,,146,H,hexagon,1,0,,,1,,,,,,j,0.8434,6,0,6,0,1,,,,,,,,,,,,,,,,,,,,,,,,,,,,,,,,,,
296185,2022-12-03_16h04.35.552,vts_reward_expectancy_bt,2022.2.4,Win32,119.7748233,Chrome,1600,1067,,,,,,,,,,,,,,,,,,,,,,,167,U,triangle,1,0,,,1,,,,,,k,0.5926,7,0,7,0,1,,,,,,,,,,,,,,,,,,,,,,,,,,,,,,,,,,
296185,2022-12-03_16h04.35.552,vts_reward_expectancy_bt,2022.2.4,Win32,119.7748233,Chrome,1600,1067,,,,,,,,,,,,,,,,,,,,,,,160,Y,star,1,0,,,1,,,,,,k,0.5755,8,0,8,0,1,,,,,,,,,,,,,,,,,,,,,,,,,,,,,,,,,,
296185,2022-12-03_16h04.35.552,vts_reward_expectancy_bt,2022.2.4,Win32,119.7748233,Chrome,1600,1067,,,,,,,,,,,,,,,,,,,,,,,181,D,triangle,1,0,,,1,,,,,,j,1.3335,9,0,9,0,1,,,,,,,,,,,,,,,,,,,,,,,,,,,,,,,,,,
296185,2022-12-03_16h04.35.552,vts_reward_expectancy_bt,2022.2.4,Win32,119.7748233,Chrome,1600,1067,,,,,0,657,,,,,,,,,,,,,,,,,181,S,hexagon,1,0,,,2,,,,,,,,,,,,,-1,number,NA,f,1.7042,vtsPrac,0,0,0,0,1,,,,,,,,,,,,,,,,,,,,,,,
296185,2022-12-03_16h04.35.552,vts_reward_expectancy_bt,2022.2.4,Win32,119.7748233,Chrome,1600,1067,,,,,0,657,,,,,,,,,,,,,,,,,174,H,star,1,0,,,2,,,,,,,,,,,,,repeat,number,numRpt,f,0.6905,vtsPrac,1,0,1,0,1,,,,,,,,,,,,,,,,,,,,,,,
296185,2022-12-03_16h04.35.552,vts_reward_expectancy_bt,2022.2.4,Win32,119.7748233,Chrome,1600,1067,,,,,0,657,,,,,,,,,,,,,,,,,132,U,hexagon,1,0,,,2,,,,,,,,,,,,,switch,letter,lettSwt,k,0.6091,vtsPrac,2,0,2,0,1,,,,,,,,,,,,,,,,,,,,,,,
296185,2022-12-03_16h04.35.552,vts_reward_expectancy_bt,2022.2.4,Win32,119.7748233,Chrome,1600,1067,,,,,0,657,,,,,,,,,,,,,,,,,146,F,star,1,0,,,2,,,,,,,,,,,,,switch,number,numSwt,d,0.5302,vtsPrac,3,0,3,0,1,,,,,,,,,,,,,,,,,,,,,,,
296185,2022-12-03_16h04.35.552,vts_reward_expectancy_bt,2022.2.4,Win32,119.7748233,Chrome,1600,1067,,,,,0,657,,,,,,,,,,,,,,,,,181,S,triangle,1,0,,,2,,,,,,,,,,,,,switch,letter,lettSwt,k,0.6934,vtsPrac,4,0,4,0,1,,,,,,,,,,,,,,,,,,,,,,,
296185,2022-12-03_16h04.35.552,vts_reward_expectancy_bt,2022.2.4,Win32,119.7748233,Chrome,1600,1067,,,,,0,657,,,,,,,,,,,,,,,,,174,H,star,0,0,,,2,,,,,,,,,,,,,repeat,letter,NA,k,0.5987,vtsPrac,5,0,5,0,1,,,,,,,,,,,,,,,,,,,,,,,
296185,2022-12-03_16h04.35.552,vts_reward_expectancy_bt,2022.2.4,Win32,119.7748233,Chrome,1600,1067,,,,,0,657,,,,,,,,,,,,,,,,,132,U,hexagon,1,1,,,2,,,,,,,,,,,,,repeat,letter,lettRpt,k,0.9183,vtsPrac,6,0,6,0,1,,,,,,,,,,,,,,,,,,,,,,,
296185,2022-12-03_16h04.35.552,vts_reward_expectancy_bt,2022.2.4,Win32,119.7748233,Chrome,1600,1067,,,,,0,657,,,,,,,,,,,,,,,,,146,F,triangle,1,0,,,2,,,,,,,,,,,,,switch,number,numSwt,d,0.5865,vtsPrac,7,0,7,0,1,,,,,,,,,,,,,,,,,,,,,,,
296185,2022-12-03_16h04.35.552,vts_reward_expectancy_bt,2022.2.4,Win32,119.7748233,Chrome,1600,1067,,,,,0,657,,,,,,,,,,,,,,,,,139,Y,circle,1,0,,,2,,,,,,,,,,,,,repeat,number,numRpt,d,0.5695,vtsPrac,8,0,8,0,1,,,,,,,,,,,,,,,,,,,,,,,
296185,2022-12-03_16h04.35.552,vts_reward_expectancy_bt,2022.2.4,Win32,119.7748233,Chrome,1600,1067,,,,,0,657,,,,,,,,,,,,,,,,,160,U,hexagon,1,0,,,2,,,,,,,,,,,,,switch,letter,lettSwt,k,0.7569,vtsPrac,9,0,9,0,1,,,,,,,,,,,,,,,,,,,,,,,
296185,2022-12-03_16h04.35.552,vts_reward_expectancy_bt,2022.2.4,Win32,119.7748233,Chrome,1600,1067,,,,,0,657,,,,,,,,,,,,,,,,,167,W,triangle,1,0,,,2,,,,,,,,,,,,,repeat,letter,lettRpt,k,0.639,vtsPrac,10,0,10,0,1,,,,,,,,,,,,,,,,,,,,,,,
296185,2022-12-03_16h04.35.552,vts_reward_expectancy_bt,2022.2.4,Win32,119.7748233,Chrome,1600,1067,,,,,0,657,,,,,,,,,,,,,,,,,125,D,hexagon,1,0,,,2,,,,,,,,,,,,,switch,number,numSwt,d,0.5877,vtsPrac,11,0,11,0,1,,,,,,,,,,,,,,,,,,,,,,,
296185,2022-12-03_16h04.35.552,vts_reward_expectancy_bt,2022.2.4,Win32,119.7748233,Chrome,1600,1067,,,,,0,657,,,,,,,,,,,,,,,,,181,S,triangle,1,0,,,2,,,,,,,,,,,,,switch,letter,lettSwt,k,0.6627,vtsPrac,12,0,12,0,1,,,,,,,,,,,,,,,,,,,,,,,
296185,2022-12-03_16h04.35.552,vts_reward_expectancy_bt,2022.2.4,Win32,119.7748233,Chrome,1600,1067,,,,,0,657,,,,,,,,,,,,,,,,,160,U,star,1,0,,,2,,,,,,,,,,,,,repeat,letter,lettRpt,k,0.7025,vtsPrac,13,0,13,0,1,,,,,,,,,,,,,,,,,,,,,,,
296185,2022-12-03_16h04.35.552,vts_reward_expectancy_bt,2022.2.4,Win32,119.7748233,Chrome,1600,1067,,,,,0,657,,,,,,,,,,,,,,,,,132,D,star,1,0,,,2,,,,,,,,,,,,,repeat,letter,lettRpt,j,0.7814,vtsPrac,14,0,14,0,1,,,,,,,,,,,,,,,,,,,,,,,
296185,2022-12-03_16h04.35.552,vts_reward_expectancy_bt,2022.2.4,Win32,119.7748233,Chrome,1600,1067,,,,,0,657,,,,,,,,,,,,,,,,,174,Y,hexagon,1,0,,,2,,,,,,,,,,,,,switch,number,numSwt,f,0.7266,vtsPrac,15,0,15,0,1,,,,,,,,,,,,,,,,,,,,,,,
296185,2022-12-03_16h04.35.552,vts_reward_expectancy_bt,2022.2.4,Win32,119.7748233,Chrome,1600,1067,,,,,0,657,,,,,,,,,,,,,,,,,181,B,circle,1,0,,,2,,,,,,,,,,,,,repeat,number,numRpt,f,0.5982,vtsPrac,16,0,16,0,1,,,,,,,,,,,,,,,,,,,,,,,
296185,2022-12-03_16h04.35.552,vts_reward_expectancy_bt,2022.2.4,Win32,119.7748233,Chrome,1600,1067,,,,,0,657,,,,,,,,,,,,,,,,,132,F,triangle,0,0,,,2,,,,,,,,,,,,,switch,letter,NA,k,1.0843,vtsPrac,17,0,17,0,1,,,,,,,,,,,,,,,,,,,,,,,
296185,2022-12-03_16h04.35.552,vts_reward_expectancy_bt,2022.2.4,Win32,119.7748233,Chrome,1600,1067,,,,,0,657,,,,,,,,,,,,,,,,,146,U,hexagon,1,1,,,2,,,,,,,,,,,,,switch,number,numSwt,d,0.7727,vtsPrac,18,0,18,0,1,,,,,,,,,,,,,,,,,,,,,,,
296185,2022-12-03_16h04.35.552,vts_reward_expectancy_bt,2022.2.4,Win32,119.7748233,Chrome,1600,1067,,,,,0,657,,,,,,,,,,,,,,,,,125,W,triangle,1,0,,,2,,,,,,,,,,,,,switch,letter,lettSwt,k,0.5924,vtsPrac,19,0,19,0,1,,,,,,,,,,,,,,,,,,,,,,,
296185,2022-12-03_16h04.35.552,vts_reward_expectancy_bt,2022.2.4,Win32,119.7748233,Chrome,1600,1067,,,,,0,657,,,,,,,,,,,,,,,,,160,F,triangle,1,0,,,2,,,,,,,,,,,,,repeat,letter,lettRpt,j,0.995,vtsPrac,20,0,20,0,1,,,,,,,,,,,,,,,,,,,,,,,
296185,2022-12-03_16h04.35.552,vts_reward_expectancy_bt,2022.2.4,Win32,119.7748233,Chrome,1600,1067,,,,,0,657,,,,,,,,,,,,,,,,,181,B,circle,1,0,,,2,,,,,,,,,,,,,repeat,letter,lettRpt,j,0.6171,vtsPrac,21,0,21,0,1,,,,,,,,,,,,,,,,,,,,,,,
296185,2022-12-03_16h04.35.552,vts_reward_expectancy_bt,2022.2.4,Win32,119.7748233,Chrome,1600,1067,,,,,0,657,,,,,,,,,,,,,,,,,146,U,circle,1,0,,,2,,,,,,,,,,,,,repeat,letter,lettRpt,k,0.6476,vtsPrac,22,0,22,0,1,,,,,,,,,,,,,,,,,,,,,,,
296185,2022-12-03_16h04.35.552,vts_reward_expectancy_bt,2022.2.4,Win32,119.7748233,Chrome,1600,1067,,,,,0,657,,,,,,,,,,,,,,,,,132,H,triangle,1,0,,,2,,,,,,,,,,,,,switch,number,numSwt,d,1.311,vtsPrac,23,0,23,0,1,,,,,,,,,,,,,,,,,,,,,,,
296185,2022-12-03_16h04.35.552,vts_reward_expectancy_bt,2022.2.4,Win32,119.7748233,Chrome,1600,1067,,,,,0,657,,,,,,,,,,,,,,,,,167,W,circle,1,0,,,2,,,,,,,,,,,,,repeat,number,numRpt,f,0.612,vtsPrac,24,0,24,0,1,,,,,,,,,,,,,,,,,,,,,,,
296185,2022-12-03_16h04.35.552,vts_reward_expectancy_bt,2022.2.4,Win32,119.7748233,Chrome,1600,1067,,,,,0,657,,,,,,,,,,,,,,,,,174,F,triangle,1,0,,,2,,,,,,,,,,,,,switch,letter,lettSwt,j,0.5775,vtsPrac,25,0,25,0,1,,,,,,,,,,,,,,,,,,,,,,,
296185,2022-12-03_16h04.35.552,vts_reward_expectancy_bt,2022.2.4,Win32,119.7748233,Chrome,1600,1067,,,,,0,657,,,,,,,,,,,,,,,,,139,D,hexagon,1,0,,,2,,,,,,,,,,,,,repeat,letter,lettRpt,j,0.6671,vtsPrac,26,0,26,0,1,,,,,,,,,,,,,,,,,,,,,,,
296185,2022-12-03_16h04.35.552,vts_reward_expectancy_bt,2022.2.4,Win32,119.7748233,Chrome,1600,1067,,,,,0,657,,,,,,,,,,,,,,,,,181,H,triangle,1,0,,,2,,,,,,,,,,,,,repeat,letter,lettRpt,j,1.3776,vtsPrac,27,0,27,0,1,,,,,,,,,,,,,,,,,,,,,,,
296185,2022-12-03_16h04.35.552,vts_reward_expectancy_bt,2022.2.4,Win32,119.7748233,Chrome,1600,1067,,,,,0,657,,,,,,,,,,,,,,,,,160,S,hexagon,1,0,,,2,,,,,,,,,,,,,repeat,letter,lettRpt,k,0.8545,vtsPrac,28,0,28,0,1,,,,,,,,,,,,,,,,,,,,,,,
296185,2022-12-03_16h04.35.552,vts_reward_expectancy_bt,2022.2.4,Win32,119.7748233,Chrome,1600,1067,,,,,0,657,,,,,,,,,,,,,,,,,181,W,triangle,1,0,,,2,,,,,,,,,,,,,switch,number,numSwt,f,0.6484,vtsPrac,29,0,29,0,1,,,,,,,,,,,,,,,,,,,,,,,
296185,2022-12-03_16h04.35.552,vts_reward_expectancy_bt,2022.2.4,Win32,119.7748233,Chrome,1600,1067,,,,,0,657,,,,,,,,,,,,,,,,,174,Y,star,1,0,,,2,,,,,,,,,,,,,repeat,number,numRpt,f,0.8005,vtsPrac,30,0,30,0,1,,,,,,,,,,,,,,,,,,,,,,,
296185,2022-12-03_16h04.35.552,vts_reward_expectancy_bt,2022.2.4,Win32,119.7748233,Chrome,1600,1067,,,,,0,657,,,,,,,,,,,,,,,,,167,F,hexagon,1,0,,,2,,,,,,,,,,,,,switch,letter,lettSwt,j,0.8568,vtsPrac,31,0,31,0,1,,,,,,,,,,,,,,,,,,,,,,,
296185,2022-12-03_16h04.35.552,vts_reward_expectancy_bt,2022.2.4,Win32,119.7748233,Chrome,1600,1067,,,,,,,,,,,,,,,,,,,,,,,,,,,,,,,,,,,,,,,,,,,,,,,,,,,,,,,,,,,,,,,,,,,,,,,,,,,,
296185,2022-12-03_16h04.35.552,vts_reward_expectancy_bt,2022.2.4,Win32,119.7748233,Chrome,1600,1067,,,,,,,,,,,,,,,,,,,,,,,,,,,,,,,,,,,,,,,,,,,,,,,,,,,,,,,,,,,,,,,,,,,,,,,,,,,,
296185,2022-12-03_16h04.35.552,vts_reward_expectancy_bt,2022.2.4,Win32,119.7748233,Chrome,1600,1067,,,,,0,657,,,,,,,,,,,,,,,,,181,S,star,1,0,,,,,,,,,,,,,,,,switch,number,numSwt,f,1.6348,noRew,,,,,,0,0,0,0,0,1,,,,,,,,,,,,,,,,,
296185,2022-12-03_16h04.35.552,vts_reward_expectancy_bt,2022.2.4,Win32,119.7748233,Chrome,1600,1067,,,,,0,657,,,,,,,,,,,,,,,,,132,U,triangle,1,0,,,,,,,,,,,,,,,,switch,letter,lettSwt,k,0.796,noRew,,,,,,0,1,0,1,0,1,,,,,,,,,,,,,,,,,
296185,2022-12-03_16h04.35.552,vts_reward_expectancy_bt,2022.2.4,Win32,119.7748233,Chrome,1600,1067,,,,,0,657,,,,,,,,,,,,,,,,,174,W,star,1,0,,,,,,,,,,,,,,,,switch,number,numSwt,f,0.709,noRew,,,,,,0,2,0,2,0,1,,,,,,,,,,,,,,,,,
296185,2022-12-03_16h04.35.552,vts_reward_expectancy_bt,2022.2.4,Win32,119.7748233,Chrome,1600,1067,,,,,0,657,,,,,,,,,,,,,,,,,146,F,triangle,1,0,,,,,,,,,,,,,,,,repeat,number,numRpt,d,0.6566,noRew,,,,,,0,3,0,3,0,1,,,,,,,,,,,,,,,,,
296185,2022-12-03_16h04.35.552,vts_reward_expectancy_bt,2022.2.4,Win32,119.7748233,Chrome,1600,1067,,,,,0,657,,,,,,,,,,,,,,,,,181,S,circle,1,0,,,,,,,,,,,,,,,,repeat,number,numRpt,f,0.7096,noRew,,,,,,0,4,0,4,0,1,,,,,,,,,,,,,,,,,
296185,2022-12-03_16h04.35.552,vts_reward_expectancy_bt,2022.2.4,Win32,119.7748233,Chrome,1600,1067,,,,,0,657,,,,,,,,,,,,,,,,,132,U,star,1,0,,,,,,,,,,,,,,,,repeat,number,numRpt,d,0.6998,noRew,,,,,,0,5,0,5,0,1,,,,,,,,,,,,,,,,,
296185,2022-12-03_16h04.35.552,vts_reward_expectancy_bt,2022.2.4,Win32,119.7748233,Chrome,1600,1067,,,,,0,657,,,,,,,,,,,,,,,,,174,W,triangle,1,0,,,,,,,,,,,,,,,,switch,letter,lettSwt,k,0.7538,noRew,,,,,,0,6,0,6,0,1,,,,,,,,,,,,,,,,,
296185,2022-12-03_16h04.35.552,vts_reward_expectancy_bt,2022.2.4,Win32,119.7748233,Chrome,1600,1067,,,,,0,657,,,,,,,,,,,,,,,,,146,F,star,1,0,,,,,,,,,,,,,,,,repeat,letter,lettRpt,j,0.4405,noRew,,,,,,0,7,0,7,0,1,,,,,,,,,,,,,,,,,
296185,2022-12-03_16h04.35.552,vts_reward_expectancy_bt,2022.2.4,Win32,119.7748233,Chrome,1600,1067,,,,,0,657,,,,,,,,,,,,,,,,,132,D,hexagon,1,0,,,,,,,,,,,,,,,,switch,number,numSwt,d,0.65,noRew,,,,,,0,8,0,8,0,1,,,,,,,,,,,,,,,,,
296185,2022-12-03_16h04.35.552,vts_reward_expectancy_bt,2022.2.4,Win32,119.7748233,Chrome,1600,1067,,,,,0,657,,,,,,,,,,,,,,,,,139,B,triangle,1,0,,,,,,,,,,,,,,,,switch,letter,lettSwt,j,0.828,noRew,,,,,,0,9,0,9,0,1,,,,,,,,,,,,,,,,,
296185,2022-12-03_16h04.35.552,vts_reward_expectancy_bt,2022.2.4,Win32,119.7748233,Chrome,1600,1067,,,,,0,657,,,,,,,,,,,,,,,,,146,F,triangle,0,0,,,,,,,,,,,,,,,,repeat,letter,NA,k,0.6606,noRew,,,,,,0,10,0,10,0,1,,,,,,,,,,,,,,,,,
296185,2022-12-03_16h04.35.552,vts_reward_expectancy_bt,2022.2.4,Win32,119.7748233,Chrome,1600,1067,,,,,0,657,,,,,,,,,,,,,,,,,174,W,circle,1,1,,,,,,,,,,,,,,,,repeat,letter,lettRpt,k,0.7682,noRew,,,,,,0,11,0,11,0,1,,,,,,,,,,,,,,,,,
296185,2022-12-03_16h04.35.552,vts_reward_expectancy_bt,2022.2.4,Win32,119.7748233,Chrome,1600,1067,,,,,0,657,,,,,,,,,,,,,,,,,181,H,circle,1,0,,,,,,,,,,,,,,,,switch,number,numSwt,f,0.5678,noRew,,,,,,0,12,0,12,0,1,,,,,,,,,,,,,,,,,
296185,2022-12-03_16h04.35.552,vts_reward_expectancy_bt,2022.2.4,Win32,119.7748233,Chrome,1600,1067,,,,,0,657,,,,,,,,,,,,,,,,,125,B,triangle,1,0,,,,,,,,,,,,,,,,repeat,number,numRpt,d,0.6943,noRew,,,,,,0,13,0,13,0,1,,,,,,,,,,,,,,,,,
296185,2022-12-03_16h04.35.552,vts_reward_expectancy_bt,2022.2.4,Win32,119.7748233,Chrome,1600,1067,,,,,0,657,,,,,,,,,,,,,,,,,174,W,hexagon,1,0,,,,,,,,,,,,,,,,repeat,number,numRpt,f,0.7032,noRew,,,,,,0,14,0,14,0,1,,,,,,,,,,,,,,,,,
296185,2022-12-03_16h04.35.552,vts_reward_expectancy_bt,2022.2.4,Win32,119.7748233,Chrome,1600,1067,,,,,0,657,,,,,,,,,,,,,,,,,146,U,circle,1,0,,,,,,,,,,,,,,,,switch,letter,lettSwt,k,0.9102,noRew,,,,,,0,15,0,15,0,1,,,,,,,,,,,,,,,,,
296185,2022-12-03_16h04.35.552,vts_reward_expectancy_bt,2022.2.4,Win32,119.7748233,Chrome,1600,1067,,,,,0,657,,,,,,,,,,,,,,,,,146,Y,triangle,1,0,,,,,,,,,,,,,,,,repeat,letter,lettRpt,k,0.9422,noRew,,,,,,0,16,0,16,0,1,,,,,,,,,,,,,,,,,
296185,2022-12-03_16h04.35.552,vts_reward_expectancy_bt,2022.2.4,Win32,119.7748233,Chrome,1600,1067,,,,,0,657,,,,,,,,,,,,,,,,,125,S,circle,1,0,,,,,,,,,,,,,,,,repeat,letter,lettRpt,k,0.8927,noRew,,,,,,0,17,0,17,0,1,,,,,,,,,,,,,,,,,
296185,2022-12-03_16h04.35.552,vts_reward_expectancy_bt,2022.2.4,Win32,119.7748233,Chrome,1600,1067,,,,,0,657,,,,,,,,,,,,,,,,,139,U,hexagon,1,0,,,,,,,,,,,,,,,,repeat,letter,lettRpt,k,1.2273,noRew,,,,,,0,18,0,18,0,1,,,,,,,,,,,,,,,,,
296185,2022-12-03_16h04.35.552,vts_reward_expectancy_bt,2022.2.4,Win32,119.7748233,Chrome,1600,1067,,,,,0,657,,,,,,,,,,,,,,,,,132,H,star,1,0,,,,,,,,,,,,,,,,switch,number,numSwt,d,0.707,noRew,,,,,,0,19,0,19,0,1,,,,,,,,,,,,,,,,,
296185,2022-12-03_16h04.35.552,vts_reward_expectancy_bt,2022.2.4,Win32,119.7748233,Chrome,1600,1067,,,,,0,657,,,,,,,,,,,,,,,,,125,B,triangle,1,0,,,,,,,,,,,,,,,,repeat,number,numRpt,d,0.5215,noRew,,,,,,0,20,0,20,0,1,,,,,,,,,,,,,,,,,
296185,2022-12-03_16h04.35.552,vts_reward_expectancy_bt,2022.2.4,Win32,119.7748233,Chrome,1600,1067,,,,,0,657,,,,,,,,,,,,,,,,,167,F,hexagon,1,0,,,,,,,,,,,,,,,,repeat,number,numRpt,f,0.647,noRew,,,,,,0,21,0,21,0,1,,,,,,,,,,,,,,,,,
296185,2022-12-03_16h04.35.552,vts_reward_expectancy_bt,2022.2.4,Win32,119.7748233,Chrome,1600,1067,,,,,0,657,,,,,,,,,,,,,,,,,174,D,star,1,0,,,,,,,,,,,,,,,,switch,letter,lettSwt,j,1.0934,noRew,,,,,,0,22,0,22,0,1,,,,,,,,,,,,,,,,,
296185,2022-12-03_16h04.35.552,vts_reward_expectancy_bt,2022.2.4,Win32,119.7748233,Chrome,1600,1067,,,,,0,657,,,,,,,,,,,,,,,,,132,S,triangle,1,0,,,,,,,,,,,,,,,,repeat,letter,lettRpt,k,0.5803,noRew,,,,,,0,23,0,23,0,1,,,,,,,,,,,,,,,,,
296185,2022-12-03_16h04.35.552,vts_reward_expectancy_bt,2022.2.4,Win32,119.7748233,Chrome,1600,1067,,,,,0,657,,,,,,,,,,,,,,,,,132,B,circle,1,0,,,,,,,,,,,,,,,,repeat,letter,lettRpt,j,0.9651,noRew,,,,,,0,24,0,24,0,1,,,,,,,,,,,,,,,,,
296185,2022-12-03_16h04.35.552,vts_reward_expectancy_bt,2022.2.4,Win32,119.7748233,Chrome,1600,1067,,,,,0,657,,,,,,,,,,,,,,,,,146,W,triangle,1,0,,,,,,,,,,,,,,,,switch,number,numSwt,d,0.847,noRew,,,,,,0,25,0,25,0,1,,,,,,,,,,,,,,,,,
296185,2022-12-03_16h04.35.552,vts_reward_expectancy_bt,2022.2.4,Win32,119.7748233,Chrome,1600,1067,,,,,0,657,,,,,,,,,,,,,,,,,174,H,triangle,1,0,,,,,,,,,,,,,,,,switch,letter,lettSwt,j,1.8205,noRew,,,,,,0,26,0,26,0,1,,,,,,,,,,,,,,,,,
296185,2022-12-03_16h04.35.552,vts_reward_expectancy_bt,2022.2.4,Win32,119.7748233,Chrome,1600,1067,,,,,0,657,,,,,,,,,,,,,,,,,167,S,circle,1,0,,,,,,,,,,,,,,,,switch,number,numSwt,f,0.8837,noRew,,,,,,0,27,0,27,0,1,,,,,,,,,,,,,,,,,
296185,2022-12-03_16h04.35.552,vts_reward_expectancy_bt,2022.2.4,Win32,119.7748233,Chrome,1600,1067,,,,,0,657,,,,,,,,,,,,,,,,,139,W,circle,1,0,,,,,,,,,,,,,,,,repeat,number,numRpt,d,0.4174,noRew,,,,,,0,28,0,28,0,1,,,,,,,,,,,,,,,,,
296185,2022-12-03_16h04.35.552,vts_reward_expectancy_bt,2022.2.4,Win32,119.7748233,Chrome,1600,1067,,,,,0,657,,,,,,,,,,,,,,,,,174,H,star,1,0,,,,,,,,,,,,,,,,switch,letter,lettSwt,j,1.0355,noRew,,,,,,0,29,0,29,0,1,,,,,,,,,,,,,,,,,
296185,2022-12-03_16h04.35.552,vts_reward_expectancy_bt,2022.2.4,Win32,119.7748233,Chrome,1600,1067,,,,,0,657,,,,,,,,,,,,,,,,,125,D,triangle,1,0,,,,,,,,,,,,,,,,repeat,letter,lettRpt,j,0.7592,noRew,,,,,,0,30,0,30,0,1,,,,,,,,,,,,,,,,,
296185,2022-12-03_16h04.35.552,vts_reward_expectancy_bt,2022.2.4,Win32,119.7748233,Chrome,1600,1067,,,,,0,657,,,,,,,,,,,,,,,,,160,Y,circle,1,0,,,,,,,,,,,,,,,,switch,number,numSwt,f,0.8506,noRew,,,,,,0,31,0,31,0,1,,,,,,,,,,,,,,,,,
296185,2022-12-03_16h04.35.552,vts_reward_expectancy_bt,2022.2.4,Win32,119.7748233,Chrome,1600,1067,,,,,0,657,,,,,,,,,,,,,,,,,181,U,triangle,1,0,,,,,,,,,,,,,,,,repeat,number,numRpt,f,0.9231,noRew,,,,,,0,32,0,32,0,1,,,,,,,,,,,,,,,,,
296185,2022-12-03_16h04.35.552,vts_reward_expectancy_bt,2022.2.4,Win32,119.7748233,Chrome,1600,1067,,,,,0,657,,,,,,,,,,,,,,,,,146,W,circle,1,0,,,,,,,,,,,,,,,,repeat,number,numRpt,d,0.8892,noRew,,,,,,0,33,0,33,0,1,,,,,,,,,,,,,,,,,
296185,2022-12-03_16h04.35.552,vts_reward_expectancy_bt,2022.2.4,Win32,119.7748233,Chrome,1600,1067,,,,,0,657,,,,,,,,,,,,,,,,,167,Y,circle,1,0,,,,,,,,,,,,,,,,repeat,number,numRpt,f,1.0435,noRew,,,,,,0,34,0,34,0,1,,,,,,,,,,,,,,,,,
296185,2022-12-03_16h04.35.552,vts_reward_expectancy_bt,2022.2.4,Win32,119.7748233,Chrome,1600,1067,,,,,0,657,,,,,,,,,,,,,,,,,174,D,star,1,0,,,,,,,,,,,,,,,,switch,letter,lettSwt,j,0.7176,noRew,,,,,,0,35,0,35,0,1,,,,,,,,,,,,,,,,,
296185,2022-12-03_16h04.35.552,vts_reward_expectancy_bt,2022.2.4,Win32,119.7748233,Chrome,1600,1067,,,,,0,657,,,,,,,,,,,,,,,,,174,W,star,1,0,,,,,,,,,,,,,,,,repeat,letter,lettRpt,k,0.7822,noRew,,,,,,0,36,0,36,0,1,,,,,,,,,,,,,,,,,
296185,2022-12-03_16h04.35.552,vts_reward_expectancy_bt,2022.2.4,Win32,119.7748233,Chrome,1600,1067,,,,,0,657,,,,,,,,,,,,,,,,,160,U,triangle,1,0,,,,,,,,,,,,,,,,repeat,letter,lettRpt,k,2.1442,noRew,,,,,,0,37,0,37,0,1,,,,,,,,,,,,,,,,,
296185,2022-12-03_16h04.35.552,vts_reward_expectancy_bt,2022.2.4,Win32,119.7748233,Chrome,1600,1067,,,,,0,657,,,,,,,,,,,,,,,,,132,D,star,1,0,,,,,,,,,,,,,,,,repeat,letter,lettRpt,j,1.1817,noRew,,,,,,0,38,0,38,0,1,,,,,,,,,,,,,,,,,
296185,2022-12-03_16h04.35.552,vts_reward_expectancy_bt,2022.2.4,Win32,119.7748233,Chrome,1600,1067,,,,,0,657,,,,,,,,,,,,,,,,,167,F,circle,1,0,,,,,,,,,,,,,,,,switch,number,numSwt,f,0.5181,noRew,,,,,,0,39,0,39,0,1,,,,,,,,,,,,,,,,,
296185,2022-12-03_16h04.35.552,vts_reward_expectancy_bt,2022.2.4,Win32,119.7748233,Chrome,1600,1067,,,,,0,657,,,,,,,,,,,,,,,,,167,Y,triangle,1,0,,,,,,,,,,,,,,,,repeat,number,numRpt,f,0.8227,noRew,,,,,,0,40,0,40,0,1,,,,,,,,,,,,,,,,,
296185,2022-12-03_16h04.35.552,vts_reward_expectancy_bt,2022.2.4,Win32,119.7748233,Chrome,1600,1067,,,,,0,657,,,,,,,,,,,,,,,,,139,B,hexagon,1,0,,,,,,,,,,,,,,,,repeat,number,numRpt,d,0.5417,noRew,,,,,,0,41,0,41,0,1,,,,,,,,,,,,,,,,,
296185,2022-12-03_16h04.35.552,vts_reward_expectancy_bt,2022.2.4,Win32,119.7748233,Chrome,1600,1067,,,,,0,657,,,,,,,,,,,,,,,,,160,F,circle,1,0,,,,,,,,,,,,,,,,switch,letter,lettSwt,j,0.7372,noRew,,,,,,0,42,0,42,0,1,,,,,,,,,,,,,,,,,
296185,2022-12-03_16h04.35.552,vts_reward_expectancy_bt,2022.2.4,Win32,119.7748233,Chrome,1600,1067,,,,,0,657,,,,,,,,,,,,,,,,,125,U,triangle,1,0,,,,,,,,,,,,,,,,repeat,letter,lettRpt,k,1.0078,noRew,,,,,,0,43,0,43,0,1,,,,,,,,,,,,,,,,,
296185,2022-12-03_16h04.35.552,vts_reward_expectancy_bt,2022.2.4,Win32,119.7748233,Chrome,1600,1067,,,,,0,657,,,,,,,,,,,,,,,,,139,U,circle,1,0,,,,,,,,,,,,,,,,repeat,letter,lettRpt,k,0.8546,noRew,,,,,,0,44,0,44,0,1,,,,,,,,,,,,,,,,,
296185,2022-12-03_16h04.35.552,vts_reward_expectancy_bt,2022.2.4,Win32,119.7748233,Chrome,1600,1067,,,,,0,657,,,,,,,,,,,,,,,,,181,S,star,1,0,,,,,,,,,,,,,,,,switch,number,numSwt,f,0.778,noRew,,,,,,0,45,0,45,0,1,,,,,,,,,,,,,,,,,
296185,2022-12-03_16h04.35.552,vts_reward_expectancy_bt,2022.2.4,Win32,119.7748233,Chrome,1600,1067,,,,,0,657,,,,,,,,,,,,,,,,,174,W,star,1,0,,,,,,,,,,,,,,,,switch,letter,lettSwt,k,0.6696,noRew,,,,,,0,46,0,46,0,1,,,,,,,,,,,,,,,,,
296185,2022-12-03_16h04.35.552,vts_reward_expectancy_bt,2022.2.4,Win32,119.7748233,Chrome,1600,1067,,,,,0,657,,,,,,,,,,,,,,,,,132,Y,circle,1,0,,,,,,,,,,,,,,,,switch,number,numSwt,d,0.7561,noRew,,,,,,0,47,0,47,0,1,,,,,,,,,,,,,,,,,
296185,2022-12-03_16h04.35.552,vts_reward_expectancy_bt,2022.2.4,Win32,119.7748233,Chrome,1600,1067,,,,,0,657,,,,,,,,,,,,,,,,,146,U,star,1,0,,,,,,,,,,,,,,,,repeat,number,numRpt,d,1.0028,noRew,,,,,,0,48,0,48,0,1,,,,,,,,,,,,,,,,,
296185,2022-12-03_16h04.35.552,vts_reward_expectancy_bt,2022.2.4,Win32,119.7748233,Chrome,1600,1067,,,,,0,657,,,,,,,,,,,,,,,,,167,H,hexagon,1,0,,,,,,,,,,,,,,,,repeat,number,numRpt,f,0.7856,noRew,,,,,,0,49,0,49,0,1,,,,,,,,,,,,,,,,,
296185,2022-12-03_16h04.35.552,vts_reward_expectancy_bt,2022.2.4,Win32,119.7748233,Chrome,1600,1067,,,,,0,657,,,,,,,,,,,,,,,,,160,W,triangle,1,0,,,,,,,,,,,,,,,,repeat,number,numRpt,f,1.3648,noRew,,,,,,0,50,0,50,0,1,,,,,,,,,,,,,,,,,
296185,2022-12-03_16h04.35.552,vts_reward_expectancy_bt,2022.2.4,Win32,119.7748233,Chrome,1600,1067,,,,,0,657,,,,,,,,,,,,,,,,,181,S,hexagon,1,0,,,,,,,,,,,,,,,,switch,letter,lettSwt,k,0.8004,noRew,,,,,,0,51,0,51,0,1,,,,,,,,,,,,,,,,,
296185,2022-12-03_16h04.35.552,vts_reward_expectancy_bt,2022.2.4,Win32,119.7748233,Chrome,1600,1067,,,,,0,657,,,,,,,,,,,,,,,,,181,D,star,1,0,,,,,,,,,,,,,,,,repeat,letter,lettRpt,j,0.5825,noRew,,,,,,0,52,0,52,0,1,,,,,,,,,,,,,,,,,
296185,2022-12-03_16h04.35.552,vts_reward_expectancy_bt,2022.2.4,Win32,119.7748233,Chrome,1600,1067,,,,,0,657,,,,,,,,,,,,,,,,,139,Y,circle,1,0,,,,,,,,,,,,,,,,repeat,letter,lettRpt,k,0.5517,noRew,,,,,,0,53,0,53,0,1,,,,,,,,,,,,,,,,,
296185,2022-12-03_16h04.35.552,vts_reward_expectancy_bt,2022.2.4,Win32,119.7748233,Chrome,1600,1067,,,,,0,657,,,,,,,,,,,,,,,,,167,H,star,1,0,,,,,,,,,,,,,,,,repeat,letter,lettRpt,j,0.7561,noRew,,,,,,0,54,0,54,0,1,,,,,,,,,,,,,,,,,
296185,2022-12-03_16h04.35.552,vts_reward_expectancy_bt,2022.2.4,Win32,119.7748233,Chrome,1600,1067,,,,,0,657,,,,,,,,,,,,,,,,,160,F,triangle,1,0,,,,,,,,,,,,,,,,repeat,letter,lettRpt,j,0.7822,noRew,,,,,,0,55,0,55,0,1,,,,,,,,,,,,,,,,,
296185,2022-12-03_16h04.35.552,vts_reward_expectancy_bt,2022.2.4,Win32,119.7748233,Chrome,1600,1067,,,,,0,657,,,,,,,,,,,,,,,,,132,H,hexagon,1,0,,,,,,,,,,,,,,,,switch,number,numSwt,d,0.4525,noRew,,,,,,0,56,0,56,0,1,,,,,,,,,,,,,,,,,
296185,2022-12-03_16h04.35.552,vts_reward_expectancy_bt,2022.2.4,Win32,119.7748233,Chrome,1600,1067,,,,,0,657,,,,,,,,,,,,,,,,,139,D,star,1,0,,,,,,,,,,,,,,,,repeat,number,numRpt,d,1.0683,noRew,,,,,,0,57,0,57,0,1,,,,,,,,,,,,,,,,,
296185,2022-12-03_16h04.35.552,vts_reward_expectancy_bt,2022.2.4,Win32,119.7748233,Chrome,1600,1067,,,,,0,657,,,,,,,,,,,,,,,,,174,U,star,1,0,,,,,,,,,,,,,,,,repeat,number,numRpt,f,0.8933,noRew,,,,,,0,58,0,58,0,1,,,,,,,,,,,,,,,,,
296185,2022-12-03_16h04.35.552,vts_reward_expectancy_bt,2022.2.4,Win32,119.7748233,Chrome,1600,1067,,,,,0,657,,,,,,,,,,,,,,,,,146,S,hexagon,1,0,,,,,,,,,,,,,,,,switch,letter,lettSwt,k,1.5371,noRew,,,,,,0,59,0,59,0,1,,,,,,,,,,,,,,,,,
296185,2022-12-03_16h04.35.552,vts_reward_expectancy_bt,2022.2.4,Win32,119.7748233,Chrome,1600,1067,,,,,0,657,,,,,,,,,,,,,,,,,139,W,circle,1,0,,,,,,,,,,,,,,,,repeat,letter,lettRpt,k,1.0337,noRew,,,,,,0,60,0,60,0,1,,,,,,,,,,,,,,,,,
296185,2022-12-03_16h04.35.552,vts_reward_expectancy_bt,2022.2.4,Win32,119.7748233,Chrome,1600,1067,,,,,0,657,,,,,,,,,,,,,,,,,174,S,star,1,0,,,,,,,,,,,,,,,,repeat,letter,lettRpt,k,0.7516,noRew,,,,,,0,61,0,61,0,1,,,,,,,,,,,,,,,,,
296185,2022-12-03_16h04.35.552,vts_reward_expectancy_bt,2022.2.4,Win32,119.7748233,Chrome,1600,1067,,,,,0,657,,,,,,,,,,,,,,,,,167,Y,star,1,0,,,,,,,,,,,,,,,,switch,number,numSwt,f,0.8479,noRew,,,,,,0,62,0,62,0,1,,,,,,,,,,,,,,,,,
296185,2022-12-03_16h04.35.552,vts_reward_expectancy_bt,2022.2.4,Win32,119.7748233,Chrome,1600,1067,,,,,0,657,,,,,,,,,,,,,,,,,125,B,circle,1,0,,,,,,,,,,,,,,,,switch,letter,lettSwt,j,0.6927,noRew,,,,,,0,63,0,63,0,1,,,,,,,,,,,,,,,,,
296185,2022-12-03_16h04.35.552,vts_reward_expectancy_bt,2022.2.4,Win32,119.7748233,Chrome,1600,1067,,,,,,,,,,,,,,,,,,,,,,,,,,,,,,,,,,,,,,,,,,,,,,,,,,,,,,,,,,,,,,,,,,,,,,,,,,,,
296185,2022-12-03_16h04.35.552,vts_reward_expectancy_bt,2022.2.4,Win32,119.7748233,Chrome,1600,1067,,,,,1,658,,,,,,,,,,,,,,,,,160,F,hexagon,1,0,,,,,,,,,,,,,,,,switch,number,numSwt,f,1.5193,Lo,,,,,,0,,,,,,space,15.6851,high,0,0,0,0,1,,,,,,,,,
296185,2022-12-03_16h04.35.552,vts_reward_expectancy_bt,2022.2.4,Win32,119.7748233,Chrome,1600,1067,,,,,10,668,,,,,,,,,,,,,,,,,174,H,triangle,1,0,,,,,,,,,,,,,,,,repeat,number,numRpt,f,1.5416,Lo,,,,,,0,,,,,,,,high,1,0,1,0,1,,,,,,,,,
296185,2022-12-03_16h04.35.552,vts_reward_expectancy_bt,2022.2.4,Win32,119.7748233,Chrome,1600,1067,,,,,0,668,,,,,,,,,,,,,,,,,181,D,circle,1,0,,,,,,,,,,,,,,,,repeat,number,numRpt,f,1.0577,Hi,,,,,,0,,,,,,,,high,2,0,2,0,1,,,,,,,,,
296185,2022-12-03_16h04.35.552,vts_reward_expectancy_bt,2022.2.4,Win32,119.7748233,Chrome,1600,1067,,,,,10,678,,,,,,,,,,,,,,,,,125,Y,star,1,0,,,,,,,,,,,,,,,,repeat,number,numRpt,d,0.4447,Hi,,,,,,0,,,,,,,,high,3,0,3,0,1,,,,,,,,,
296185,2022-12-03_16h04.35.552,vts_reward_expectancy_bt,2022.2.4,Win32,119.7748233,Chrome,1600,1067,,,,,1,679,,,,,,,,,,,,,,,,,139,S,hexagon,1,0,,,,,,,,,,,,,,,,switch,letter,lettSwt,k,0.63,Lo,,,,,,0,,,,,,,,high,4,0,4,0,1,,,,,,,,,
296185,2022-12-03_16h04.35.552,vts_reward_expectancy_bt,2022.2.4,Win32,119.7748233,Chrome,1600,1067,,,,,1,680,,,,,,,,,,,,,,,,,167,U,triangle,1,0,,,,,,,,,,,,,,,,switch,number,numSwt,f,0.5242,Lo,,,,,,0,,,,,,,,high,5,0,5,0,1,,,,,,,,,
296185,2022-12-03_16h04.35.552,vts_reward_expectancy_bt,2022.2.4,Win32,119.7748233,Chrome,1600,1067,,,,,10,690,,,,,,,,,,,,,,,,,132,W,circle,1,0,,,,,,,,,,,,,,,,switch,letter,lettSwt,k,0.5095,Hi,,,,,,0,,,,,,,,high,6,0,6,0,1,,,,,,,,,
296185,2022-12-03_16h04.35.552,vts_reward_expectancy_bt,2022.2.4,Win32,119.7748233,Chrome,1600,1067,,,,,1,691,,,,,,,,,,,,,,,,,146,B,star,1,0,,,,,,,,,,,,,,,,switch,number,numSwt,d,0.3863,Hi,,,,,,0,,,,,,,,high,7,0,7,0,1,,,,,,,,,
296185,2022-12-03_16h04.35.552,vts_reward_expectancy_bt,2022.2.4,Win32,119.7748233,Chrome,1600,1067,,,,,10,701,,,,,,,,,,,,,,,,,160,F,circle,1,0,,,,,,,,,,,,,,,,repeat,number,numRpt,f,0.5541,Hi,,,,,,0,,,,,,,,high,8,0,8,0,1,,,,,,,,,
296185,2022-12-03_16h04.35.552,vts_reward_expectancy_bt,2022.2.4,Win32,119.7748233,Chrome,1600,1067,,,,,1,702,,,,,,,,,,,,,,,,,174,H,triangle,1,0,,,,,,,,,,,,,,,,switch,letter,lettSwt,j,0.3947,Lo,,,,,,0,,,,,,,,high,9,0,9,0,1,,,,,,,,,
296185,2022-12-03_16h04.35.552,vts_reward_expectancy_bt,2022.2.4,Win32,119.7748233,Chrome,1600,1067,,,,,10,712,,,,,,,,,,,,,,,,,181,D,hexagon,1,0,,,,,,,,,,,,,,,,switch,number,numSwt,f,0.6091,Lo,,,,,,0,,,,,,,,high,10,0,10,0,1,,,,,,,,,
296185,2022-12-03_16h04.35.552,vts_reward_expectancy_bt,2022.2.4,Win32,119.7748233,Chrome,1600,1067,,,,,0,712,,,,,,,,,,,,,,,,,125,Y,star,1,0,,,,,,,,,,,,,,,,switch,letter,lettSwt,k,0.8142,Hi,,,,,,0,,,,,,,,high,11,0,11,0,1,,,,,,,,,
296185,2022-12-03_16h04.35.552,vts_reward_expectancy_bt,2022.2.4,Win32,119.7748233,Chrome,1600,1067,,,,,1,713,,,,,,,,,,,,,,,,,139,S,hexagon,1,0,,,,,,,,,,,,,,,,repeat,letter,lettRpt,k,0.6843,Lo,,,,,,0,,,,,,,,high,12,0,12,0,1,,,,,,,,,
296185,2022-12-03_16h04.35.552,vts_reward_expectancy_bt,2022.2.4,Win32,119.7748233,Chrome,1600,1067,,,,,10,723,,,,,,,,,,,,,,,,,167,U,star,1,0,,,,,,,,,,,,,,,,switch,number,numSwt,f,0.5151,Hi,,,,,,0,,,,,,,,high,13,0,13,0,1,,,,,,,,,
296185,2022-12-03_16h04.35.552,vts_reward_expectancy_bt,2022.2.4,Win32,119.7748233,Chrome,1600,1067,,,,,1,724,,,,,,,,,,,,,,,,,132,W,circle,1,0,,,,,,,,,,,,,,,,repeat,number,numRpt,d,0.4159,Hi,,,,,,0,,,,,,,,high,14,0,14,0,1,,,,,,,,,
296185,2022-12-03_16h04.35.552,vts_reward_expectancy_bt,2022.2.4,Win32,119.7748233,Chrome,1600,1067,,,,,1,725,,,,,,,,,,,,,,,,,146,B,triangle,1,0,,,,,,,,,,,,,,,,repeat,number,numRpt,d,0.6474,Lo,,,,,,0,,,,,,,,high,15,0,15,0,1,,,,,,,,,
296185,2022-12-03_16h04.35.552,vts_reward_expectancy_bt,2022.2.4,Win32,119.7748233,Chrome,1600,1067,,,,,0,725,,,,,,,,,,,,,,,,,167,D,star,0,0,,,,,,,,,,,,,,,,switch,letter,NA,k,0.6354,Lo,,,,,,0,,,,,,,,high,16,0,16,0,1,,,,,,,,,
296185,2022-12-03_16h04.35.552,vts_reward_expectancy_bt,2022.2.4,Win32,119.7748233,Chrome,1600,1067,,,,,1,726,,,,,,,,,,,,,,,,,160,F,triangle,1,1,,,,,,,,,,,,,,,,repeat,letter,lettRpt,j,0.575,Lo,,,,,,0,,,,,,,,high,17,0,17,0,1,,,,,,,,,
296185,2022-12-03_16h04.35.552,vts_reward_expectancy_bt,2022.2.4,Win32,119.7748233,Chrome,1600,1067,,,,,1,727,,,,,,,,,,,,,,,,,132,S,hexagon,1,0,,,,,,,,,,,,,,,,switch,number,numSwt,d,0.5593,Lo,,,,,,0,,,,,,,,high,18,0,18,0,1,,,,,,,,,
296185,2022-12-03_16h04.35.552,vts_reward_expectancy_bt,2022.2.4,Win32,119.7748233,Chrome,1600,1067,,,,,1,728,,,,,,,,,,,,,,,,,181,Y,circle,1,0,,,,,,,,,,,,,,,,repeat,number,numRpt,f,0.5816,Hi,,,,,,0,,,,,,,,high,19,0,19,0,1,,,,,,,,,
296185,2022-12-03_16h04.35.552,vts_reward_expectancy_bt,2022.2.4,Win32,119.7748233,Chrome,1600,1067,,,,,1,729,,,,,,,,,,,,,,,,,139,U,circle,1,0,,,,,,,,,,,,,,,,repeat,number,numRpt,d,0.4332,Hi,,,,,,0,,,,,,,,high,20,0,20,0,1,,,,,,,,,
296185,2022-12-03_16h04.35.552,vts_reward_expectancy_bt,2022.2.4,Win32,119.7748233,Chrome,1600,1067,,,,,1,730,,,,,,,,,,,,,,,,,174,B,hexagon,1,0,,,,,,,,,,,,,,,,repeat,number,numRpt,f,0.5318,Lo,,,,,,0,,,,,,,,high,21,0,21,0,1,,,,,,,,,
296185,2022-12-03_16h04.35.552,vts_reward_expectancy_bt,2022.2.4,Win32,119.7748233,Chrome,1600,1067,,,,,10,740,,,,,,,,,,,,,,,,,146,H,star,1,0,,,,,,,,,,,,,,,,repeat,number,numRpt,d,0.4354,Hi,,,,,,0,,,,,,,,high,22,0,22,0,1,,,,,,,,,
296185,2022-12-03_16h04.35.552,vts_reward_expectancy_bt,2022.2.4,Win32,119.7748233,Chrome,1600,1067,,,,,1,741,,,,,,,,,,,,,,,,,125,W,triangle,1,0,,,,,,,,,,,,,,,,repeat,number,numRpt,d,0.5009,Lo,,,,,,0,,,,,,,,high,23,0,23,0,1,,,,,,,,,
296185,2022-12-03_16h04.35.552,vts_reward_expectancy_bt,2022.2.4,Win32,119.7748233,Chrome,1600,1067,,,,,10,751,,,,,,,,,,,,,,,,,181,S,hexagon,1,0,,,,,,,,,,,,,,,,switch,letter,lettSwt,k,0.568,Lo,,,,,,0,,,,,,,,high,24,0,24,0,1,,,,,,,,,
296185,2022-12-03_16h04.35.552,vts_reward_expectancy_bt,2022.2.4,Win32,119.7748233,Chrome,1600,1067,,,,,10,761,,,,,,,,,,,,,,,,,132,B,circle,1,0,,,,,,,,,,,,,,,,switch,number,numSwt,d,0.4882,Hi,,,,,,0,,,,,,,,high,25,0,25,0,1,,,,,,,,,
296185,2022-12-03_16h04.35.552,vts_reward_expectancy_bt,2022.2.4,Win32,119.7748233,Chrome,1600,1067,,,,,1,762,,,,,,,,,,,,,,,,,160,U,triangle,1,0,,,,,,,,,,,,,,,,switch,letter,lettSwt,k,0.4846,Lo,,,,,,0,,,,,,,,high,26,0,26,0,1,,,,,,,,,
296185,2022-12-03_16h04.35.552,vts_reward_expectancy_bt,2022.2.4,Win32,119.7748233,Chrome,1600,1067,,,,,1,763,,,,,,,,,,,,,,,,,174,Y,star,1,0,,,,,,,,,,,,,,,,repeat,letter,lettRpt,k,0.4924,Hi,,,,,,0,,,,,,,,high,27,0,27,0,1,,,,,,,,,
296185,2022-12-03_16h04.35.552,vts_reward_expectancy_bt,2022.2.4,Win32,119.7748233,Chrome,1600,1067,,,,,10,773,,,,,,,,,,,,,,,,,139,H,star,1,0,,,,,,,,,,,,,,,,switch,number,numSwt,d,0.5531,Hi,,,,,,0,,,,,,,,high,28,0,28,0,1,,,,,,,,,
296185,2022-12-03_16h04.35.552,vts_reward_expectancy_bt,2022.2.4,Win32,119.7748233,Chrome,1600,1067,,,,,1,774,,,,,,,,,,,,,,,,,125,W,hexagon,1,0,,,,,,,,,,,,,,,,switch,letter,lettSwt,k,0.6289,Lo,,,,,,0,,,,,,,,high,29,0,29,0,1,,,,,,,,,
296185,2022-12-03_16h04.35.552,vts_reward_expectancy_bt,2022.2.4,Win32,119.7748233,Chrome,1600,1067,,,,,1,775,,,,,,,,,,,,,,,,,146,D,triangle,1,0,,,,,,,,,,,,,,,,switch,number,numSwt,d,0.4958,Lo,,,,,,0,,,,,,,,high,30,0,30,0,1,,,,,,,,,
296185,2022-12-03_16h04.35.552,vts_reward_expectancy_bt,2022.2.4,Win32,119.7748233,Chrome,1600,1067,,,,,10,785,,,,,,,,,,,,,,,,,167,F,circle,1,0,,,,,,,,,,,,,,,,switch,letter,lettSwt,j,0.6496,Hi,,,,,,0,,,,,,,,high,31,0,31,0,1,,,,,,,,,
296185,2022-12-03_16h04.35.552,vts_reward_expectancy_bt,2022.2.4,Win32,119.7748233,Chrome,1600,1067,,,,,0,785,,,,,,,,,,,,,,,,,167,H,star,1,0,,,,,,,,,,,,,,,,repeat,letter,lettRpt,j,0.8311,Hi,,,,,,1,,,,,,space,4.1171,high,0,0,0,0,1,,,,,,,,,
296185,2022-12-03_16h04.35.552,vts_reward_expectancy_bt,2022.2.4,Win32,119.7748233,Chrome,1600,1067,,,,,10,795,,,,,,,,,,,,,,,,,181,Y,circle,1,0,,,,,,,,,,,,,,,,switch,number,numSwt,f,0.4254,Hi,,,,,,1,,,,,,,,high,1,0,1,0,1,,,,,,,,,
296185,2022-12-03_16h04.35.552,vts_reward_expectancy_bt,2022.2.4,Win32,119.7748233,Chrome,1600,1067,,,,,1,796,,,,,,,,,,,,,,,,,125,W,triangle,1,0,,,,,,,,,,,,,,,,switch,letter,lettSwt,k,0.5116,Lo,,,,,,1,,,,,,,,high,2,0,2,0,1,,,,,,,,,
296185,2022-12-03_16h04.35.552,vts_reward_expectancy_bt,2022.2.4,Win32,119.7748233,Chrome,1600,1067,,,,,1,797,,,,,,,,,,,,,,,,,160,D,hexagon,1,0,,,,,,,,,,,,,,,,repeat,letter,lettRpt,j,0.5018,Lo,,,,,,1,,,,,,,,high,3,0,3,0,1,,,,,,,,,
296185,2022-12-03_16h04.35.552,vts_reward_expectancy_bt,2022.2.4,Win32,119.7748233,Chrome,1600,1067,,,,,0,797,,,,,,,,,,,,,,,,,146,F,star,1,0,,,,,,,,,,,,,,,,repeat,letter,lettRpt,j,0.6524,Hi,,,,,,1,,,,,,,,high,4,0,4,0,1,,,,,,,,,
296185,2022-12-03_16h04.35.552,vts_reward_expectancy_bt,2022.2.4,Win32,119.7748233,Chrome,1600,1067,,,,,10,807,,,,,,,,,,,,,,,,,139,S,circle,1,0,,,,,,,,,,,,,,,,switch,number,numSwt,d,0.3996,Hi,,,,,,1,,,,,,,,high,5,0,5,0,1,,,,,,,,,
296185,2022-12-03_16h04.35.552,vts_reward_expectancy_bt,2022.2.4,Win32,119.7748233,Chrome,1600,1067,,,,,1,808,,,,,,,,,,,,,,,,,174,U,triangle,1,0,,,,,,,,,,,,,,,,repeat,number,numRpt,f,0.6,Lo,,,,,,1,,,,,,,,high,6,0,6,0,1,,,,,,,,,
296185,2022-12-03_16h04.35.552,vts_reward_expectancy_bt,2022.2.4,Win32,119.7748233,Chrome,1600,1067,,,,,1,809,,,,,,,,,,,,,,,,,132,B,hexagon,1,0,,,,,,,,,,,,,,,,switch,letter,lettSwt,j,0.4864,Lo,,,,,,1,,,,,,,,high,7,0,7,0,1,,,,,,,,,
296185,2022-12-03_16h04.35.552,vts_reward_expectancy_bt,2022.2.4,Win32,119.7748233,Chrome,1600,1067,,,,,0,809,,,,,,,,,,,,,,,,,167,H,star,0,0,,,,,,,,,,,,,,,,repeat,letter,NA,k,0.3795,Lo,,,,,,1,,,,,,,,high,8,0,8,0,1,,,,,,,,,
296185,2022-12-03_16h04.35.552,vts_reward_expectancy_bt,2022.2.4,Win32,119.7748233,Chrome,1600,1067,,,,,1,810,,,,,,,,,,,,,,,,,181,Y,hexagon,1,1,,,,,,,,,,,,,,,,switch,number,numSwt,f,0.5676,Lo,,,,,,1,,,,,,,,high,9,0,9,0,1,,,,,,,,,
296185,2022-12-03_16h04.35.552,vts_reward_expectancy_bt,2022.2.4,Win32,119.7748233,Chrome,1600,1067,,,,,1,811,,,,,,,,,,,,,,,,,125,W,triangle,1,0,,,,,,,,,,,,,,,,repeat,number,numRpt,d,0.428,Lo,,,,,,1,,,,,,,,high,10,0,10,0,1,,,,,,,,,
296185,2022-12-03_16h04.35.552,vts_reward_expectancy_bt,2022.2.4,Win32,119.7748233,Chrome,1600,1067,,,,,0,811,,,,,,,,,,,,,,,,,160,D,circle,1,0,,,,,,,,,,,,,,,,repeat,number,numRpt,f,0.5202,Hi,,,,,,1,,,,,,,,high,11,0,11,0,1,,,,,,,,,
296185,2022-12-03_16h04.35.552,vts_reward_expectancy_bt,2022.2.4,Win32,119.7748233,Chrome,1600,1067,,,,,10,821,,,,,,,,,,,,,,,,,146,F,star,1,0,,,,,,,,,,,,,,,,switch,letter,lettSwt,j,0.4934,Hi,,,,,,1,,,,,,,,high,12,0,12,0,1,,,,,,,,,
296185,2022-12-03_16h04.35.552,vts_reward_expectancy_bt,2022.2.4,Win32,119.7748233,Chrome,1600,1067,,,,,10,831,,,,,,,,,,,,,,,,,139,S,triangle,1,0,,,,,,,,,,,,,,,,switch,number,numSwt,d,0.6014,Lo,,,,,,1,,,,,,,,high,13,0,13,0,1,,,,,,,,,
296185,2022-12-03_16h04.35.552,vts_reward_expectancy_bt,2022.2.4,Win32,119.7748233,Chrome,1600,1067,,,,,1,832,,,,,,,,,,,,,,,,,174,U,hexagon,1,0,,,,,,,,,,,,,,,,switch,letter,lettSwt,k,0.4747,Lo,,,,,,1,,,,,,,,high,14,0,14,0,1,,,,,,,,,
296185,2022-12-03_16h04.35.552,vts_reward_expectancy_bt,2022.2.4,Win32,119.7748233,Chrome,1600,1067,,,,,0,832,,,,,,,,,,,,,,,,,132,B,circle,0,0,,,,,,,,,,,,,,,,switch,number,NA,f,0.3827,Lo,,,,,,1,,,,,,,,high,15,0,15,0,1,,,,,,,,,
296185,2022-12-03_16h04.35.552,vts_reward_expectancy_bt,2022.2.4,Win32,119.7748233,Chrome,1600,1067,,,,,10,842,,,,,,,,,,,,,,,,,167,H,triangle,1,1,,,,,,,,,,,,,,,,repeat,number,numRpt,f,1.0406,Lo,,,,,,1,,,,,,,,high,16,0,16,0,1,,,,,,,,,
296185,2022-12-03_16h04.35.552,vts_reward_expectancy_bt,2022.2.4,Win32,119.7748233,Chrome,1600,1067,,,,,0,842,,,,,,,,,,,,,,,,,139,W,hexagon,0,0,,,,,,,,,,,,,,,,switch,letter,NA,j,0.4774,Lo,,,,,,1,,,,,,,,high,17,0,17,0,1,,,,,,,,,
296185,2022-12-03_16h04.35.552,vts_reward_expectancy_bt,2022.2.4,Win32,119.7748233,Chrome,1600,1067,,,,,0,842,,,,,,,,,,,,,,,,,181,D,star,1,1,,,,,,,,,,,,,,,,switch,number,numSwt,f,0.6358,Hi,,,,,,1,,,,,,,,high,18,0,18,0,1,,,,,,,,,
296185,2022-12-03_16h04.35.552,vts_reward_expectancy_bt,2022.2.4,Win32,119.7748233,Chrome,1600,1067,,,,,0,842,,,,,,,,,,,,,,,,,160,U,circle,1,0,,,,,,,,,,,,,,,,repeat,number,numRpt,f,0.4884,Hi,,,,,,1,,,,,,,,high,19,0,19,0,1,,,,,,,,,
296185,2022-12-03_16h04.35.552,vts_reward_expectancy_bt,2022.2.4,Win32,119.7748233,Chrome,1600,1067,,,,,10,852,,,,,,,,,,,,,,,,,125,S,star,1,0,,,,,,,,,,,,,,,,repeat,number,numRpt,d,0.3428,Hi,,,,,,1,,,,,,,,high,20,0,20,0,1,,,,,,,,,
296185,2022-12-03_16h04.35.552,vts_reward_expectancy_bt,2022.2.4,Win32,119.7748233,Chrome,1600,1067,,,,,1,853,,,,,,,,,,,,,,,,,174,B,triangle,1,0,,,,,,,,,,,,,,,,repeat,number,numRpt,f,0.4707,Lo,,,,,,1,,,,,,,,high,21,0,21,0,1,,,,,,,,,
296185,2022-12-03_16h04.35.552,vts_reward_expectancy_bt,2022.2.4,Win32,119.7748233,Chrome,1600,1067,,,,,0,853,,,,,,,,,,,,,,,,,132,F,hexagon,0,0,,,,,,,,,,,,,,,,switch,letter,NA,k,0.4179,Lo,,,,,,1,,,,,,,,high,22,0,22,0,1,,,,,,,,,
296185,2022-12-03_16h04.35.552,vts_reward_expectancy_bt,2022.2.4,Win32,119.7748233,Chrome,1600,1067,,,,,10,863,,,,,,,,,,,,,,,,,146,Y,circle,1,1,,,,,,,,,,,,,,,,switch,number,numSwt,d,0.5022,Hi,,,,,,1,,,,,,,,high,23,0,23,0,1,,,,,,,,,
296185,2022-12-03_16h04.35.552,vts_reward_expectancy_bt,2022.2.4,Win32,119.7748233,Chrome,1600,1067,,,,,10,873,,,,,,,,,,,,,,,,,181,Y,circle,1,0,,,,,,,,,,,,,,,,repeat,number,numRpt,f,0.4352,Hi,,,,,,1,,,,,,,,high,24,0,24,0,1,,,,,,,,,
296185,2022-12-03_16h04.35.552,vts_reward_expectancy_bt,2022.2.4,Win32,119.7748233,Chrome,1600,1067,,,,,1,874,,,,,,,,,,,,,,,,,139,S,hexagon,1,0,,,,,,,,,,,,,,,,switch,letter,lettSwt,k,0.4444,Lo,,,,,,1,,,,,,,,high,25,0,25,0,1,,,,,,,,,
296185,2022-12-03_16h04.35.552,vts_reward_expectancy_bt,2022.2.4,Win32,119.7748233,Chrome,1600,1067,,,,,1,875,,,,,,,,,,,,,,,,,167,U,triangle,1,0,,,,,,,,,,,,,,,,repeat,letter,lettRpt,k,0.6167,Lo,,,,,,1,,,,,,,,high,26,0,26,0,1,,,,,,,,,
296185,2022-12-03_16h04.35.552,vts_reward_expectancy_bt,2022.2.4,Win32,119.7748233,Chrome,1600,1067,,,,,0,875,,,,,,,,,,,,,,,,,174,B,star,1,0,,,,,,,,,,,,,,,,repeat,letter,lettRpt,j,0.6043,Hi,,,,,,1,,,,,,,,high,27,0,27,0,1,,,,,,,,,
296185,2022-12-03_16h04.35.552,vts_reward_expectancy_bt,2022.2.4,Win32,119.7748233,Chrome,1600,1067,,,,,10,885,,,,,,,,,,,,,,,,,132,W,circle,1,0,,,,,,,,,,,,,,,,switch,number,numSwt,d,0.3547,Hi,,,,,,1,,,,,,,,high,28,0,28,0,1,,,,,,,,,
296185,2022-12-03_16h04.35.552,vts_reward_expectancy_bt,2022.2.4,Win32,119.7748233,Chrome,1600,1067,,,,,10,895,,,,,,,,,,,,,,,,,160,H,triangle,1,0,,,,,,,,,,,,,,,,repeat,number,numRpt,f,0.3847,Lo,,,,,,1,,,,,,,,high,29,0,29,0,1,,,,,,,,,
296185,2022-12-03_16h04.35.552,vts_reward_expectancy_bt,2022.2.4,Win32,119.7748233,Chrome,1600,1067,,,,,0,895,,,,,,,,,,,,,,,,,146,F,star,1,0,,,,,,,,,,,,,,,,switch,letter,lettSwt,j,0.5688,Hi,,,,,,1,,,,,,,,high,30,0,30,0,1,,,,,,,,,
296185,2022-12-03_16h04.35.552,vts_reward_expectancy_bt,2022.2.4,Win32,119.7748233,Chrome,1600,1067,,,,,0,895,,,,,,,,,,,,,,,,,125,D,hexagon,0,0,,,,,,,,,,,,,,,,repeat,letter,NA,k,0.3372,Hi,,,,,,1,,,,,,,,high,31,0,31,0,1,,,,,,,,,
296185,2022-12-03_16h04.35.552,vts_reward_expectancy_bt,2022.2.4,Win32,119.7748233,Chrome,1600,1067,,,,,10,905,,,,,,,,,,,,,,,,,167,F,triangle,1,1,,,,,,,,,,,,,,,,switch,number,numSwt,f,0.5462,Lo,,,,,,2,,,,,,space,1.9352,high,0,0,0,0,1,,,,,,,,,
296185,2022-12-03_16h04.35.552,vts_reward_expectancy_bt,2022.2.4,Win32,119.7748233,Chrome,1600,1067,,,,,1,906,,,,,,,,,,,,,,,,,174,D,hexagon,1,0,,,,,,,,,,,,,,,,switch,letter,lettSwt,j,0.4082,Lo,,,,,,2,,,,,,,,high,1,0,1,0,1,,,,,,,,,
296185,2022-12-03_16h04.35.552,vts_reward_expectancy_bt,2022.2.4,Win32,119.7748233,Chrome,1600,1067,,,,,10,916,,,,,,,,,,,,,,,,,160,U,star,1,0,,,,,,,,,,,,,,,,repeat,letter,lettRpt,k,0.3888,Hi,,,,,,2,,,,,,,,high,2,0,2,0,1,,,,,,,,,
296185,2022-12-03_16h04.35.552,vts_reward_expectancy_bt,2022.2.4,Win32,119.7748233,Chrome,1600,1067,,,,,10,926,,,,,,,,,,,,,,,,,125,H,circle,1,0,,,,,,,,,,,,,,,,repeat,letter,lettRpt,j,0.5568,Hi,,,,,,2,,,,,,,,high,3,0,3,0,1,,,,,,,,,
296185,2022-12-03_16h04.35.552,vts_reward_expectancy_bt,2022.2.4,Win32,119.7748233,Chrome,1600,1067,,,,,1,927,,,,,,,,,,,,,,,,,139,B,triangle,1,0,,,,,,,,,,,,,,,,switch,number,numSwt,d,0.4087,Lo,,,,,,2,,,,,,,,high,4,0,4,0,1,,,,,,,,,
296185,2022-12-03_16h04.35.552,vts_reward_expectancy_bt,2022.2.4,Win32,119.7748233,Chrome,1600,1067,,,,,0,927,,,,,,,,,,,,,,,,,181,Y,hexagon,0,0,,,,,,,,,,,,,,,,repeat,number,NA,d,0.3505,Lo,,,,,,2,,,,,,,,high,5,0,5,0,1,,,,,,,,,
296185,2022-12-03_16h04.35.552,vts_reward_expectancy_bt,2022.2.4,Win32,119.7748233,Chrome,1600,1067,,,,,0,927,,,,,,,,,,,,,,,,,132,S,star,0,1,,,,,,,,,,,,,,,,switch,letter,NA,j,0.4958,Lo,,,,,,2,,,,,,,,high,6,0,6,0,1,,,,,,,,,
296185,2022-12-03_16h04.35.552,vts_reward_expectancy_bt,2022.2.4,Win32,119.7748233,Chrome,1600,1067,,,,,10,937,,,,,,,,,,,,,,,,,146,W,circle,1,1,,,,,,,,,,,,,,,,repeat,letter,lettRpt,k,0.5033,Hi,,,,,,2,,,,,,,,high,7,0,7,0,1,,,,,,,,,
296185,2022-12-03_16h04.35.552,vts_reward_expectancy_bt,2022.2.4,Win32,119.7748233,Chrome,1600,1067,,,,,10,947,,,,,,,,,,,,,,,,,167,F,hexagon,1,0,,,,,,,,,,,,,,,,switch,number,numSwt,f,0.4854,Lo,,,,,,2,,,,,,,,high,8,0,8,0,1,,,,,,,,,
296185,2022-12-03_16h04.35.552,vts_reward_expectancy_bt,2022.2.4,Win32,119.7748233,Chrome,1600,1067,,,,,10,957,,,,,,,,,,,,,,,,,174,D,circle,1,0,,,,,,,,,,,,,,,,switch,letter,lettSwt,j,0.4744,Hi,,,,,,2,,,,,,,,high,9,0,9,0,1,,,,,,,,,
296185,2022-12-03_16h04.35.552,vts_reward_expectancy_bt,2022.2.4,Win32,119.7748233,Chrome,1600,1067,,,,,10,967,,,,,,,,,,,,,,,,,160,U,triangle,1,0,,,,,,,,,,,,,,,,switch,number,numSwt,f,0.4678,Lo,,,,,,2,,,,,,,,high,10,0,10,0,1,,,,,,,,,
296185,2022-12-03_16h04.35.552,vts_reward_expectancy_bt,2022.2.4,Win32,119.7748233,Chrome,1600,1067,,,,,0,967,,,,,,,,,,,,,,,,,125,H,star,1,0,,,,,,,,,,,,,,,,switch,letter,lettSwt,j,0.5112,Hi,,,,,,2,,,,,,,,high,11,0,11,0,1,,,,,,,,,
296185,2022-12-03_16h04.35.552,vts_reward_expectancy_bt,2022.2.4,Win32,119.7748233,Chrome,1600,1067,,,,,0,967,,,,,,,,,,,,,,,,,139,B,hexagon,0,0,,,,,,,,,,,,,,,,switch,number,NA,f,0.4351,Hi,,,,,,2,,,,,,,,high,12,0,12,0,1,,,,,,,,,
296185,2022-12-03_16h04.35.552,vts_reward_expectancy_bt,2022.2.4,Win32,119.7748233,Chrome,1600,1067,,,,,1,968,,,,,,,,,,,,,,,,,181,Y,triangle,1,1,,,,,,,,,,,,,,,,repeat,number,numRpt,f,0.4611,Lo,,,,,,2,,,,,,,,high,13,0,13,0,1,,,,,,,,,
296185,2022-12-03_16h04.35.552,vts_reward_expectancy_bt,2022.2.4,Win32,119.7748233,Chrome,1600,1067,,,,,0,968,,,,,,,,,,,,,,,,,132,S,circle,0,0,,,,,,,,,,,,,,,,switch,letter,NA,j,0.5898,Lo,,,,,,2,,,,,,,,high,14,0,14,0,1,,,,,,,,,
296185,2022-12-03_16h04.35.552,vts_reward_expectancy_bt,2022.2.4,Win32,119.7748233,Chrome,1600,1067,,,,,0,968,,,,,,,,,,,,,,,,,146,W,star,1,1,,,,,,,,,,,,,,,,switch,number,numSwt,d,0.5937,Hi,,,,,,2,,,,,,,,high,15,0,15,0,1,,,,,,,,,
296185,2022-12-03_16h04.35.552,vts_reward_expectancy_bt,2022.2.4,Win32,119.7748233,Chrome,1600,1067,,,,,0,968,,,,,,,,,,,,,,,,,160,S,circle,1,0,,,,,,,,,,,,,,,,repeat,number,numRpt,f,0.8499,Hi,,,,,,2,,,,,,,,high,16,0,16,0,1,,,,,,,,,
296185,2022-12-03_16h04.35.552,vts_reward_expectancy_bt,2022.2.4,Win32,119.7748233,Chrome,1600,1067,,,,,10,978,,,,,,,,,,,,,,,,,146,D,star,1,0,,,,,,,,,,,,,,,,repeat,number,numRpt,d,0.4218,Hi,,,,,,2,,,,,,,,high,17,0,17,0,1,,,,,,,,,
296185,2022-12-03_16h04.35.552,vts_reward_expectancy_bt,2022.2.4,Win32,119.7748233,Chrome,1600,1067,,,,,10,988,,,,,,,,,,,,,,,,,132,F,hexagon,1,0,,,,,,,,,,,,,,,,repeat,number,numRpt,d,0.3873,Lo,,,,,,2,,,,,,,,high,18,0,18,0,1,,,,,,,,,
296185,2022-12-03_16h04.35.552,vts_reward_expectancy_bt,2022.2.4,Win32,119.7748233,Chrome,1600,1067,,,,,10,998,,,,,,,,,,,,,,,,,167,U,triangle,1,0,,,,,,,,,,,,,,,,switch,letter,lettSwt,k,0.6198,Lo,,,,,,2,,,,,,,,high,19,0,19,0,1,,,,,,,,,
296185,2022-12-03_16h04.35.552,vts_reward_expectancy_bt,2022.2.4,Win32,119.7748233,Chrome,1600,1067,,,,,10,1008,,,,,,,,,,,,,,,,,139,B,circle,1,0,,,,,,,,,,,,,,,,repeat,letter,lettRpt,j,0.3985,Hi,,,,,,2,,,,,,,,high,20,0,20,0,1,,,,,,,,,
296185,2022-12-03_16h04.35.552,vts_reward_expectancy_bt,2022.2.4,Win32,119.7748233,Chrome,1600,1067,,,,,1,1009,,,,,,,,,,,,,,,,,125,W,triangle,1,0,,,,,,,,,,,,,,,,repeat,letter,lettRpt,k,0.5415,Lo,,,,,,2,,,,,,,,high,21,0,21,0,1,,,,,,,,,
296185,2022-12-03_16h04.35.552,vts_reward_expectancy_bt,2022.2.4,Win32,119.7748233,Chrome,1600,1067,,,,,0,1009,,,,,,,,,,,,,,,,,174,Y,star,0,0,,,,,,,,,,,,,,,,repeat,letter,NA,j,0.5012,Lo,,,,,,2,,,,,,,,high,22,0,22,0,1,,,,,,,,,
296185,2022-12-03_16h04.35.552,vts_reward_expectancy_bt,2022.2.4,Win32,119.7748233,Chrome,1600,1067,,,,,0,1009,,,,,,,,,,,,,,,,,181,H,hexagon,0,1,,,,,,,,,,,,,,,,repeat,letter,NA,k,0.5185,Lo,,,,,,2,,,,,,,,high,23,0,23,0,1,,,,,,,,,
296185,2022-12-03_16h04.35.552,vts_reward_expectancy_bt,2022.2.4,Win32,119.7748233,Chrome,1600,1067,,,,,1,1010,,,,,,,,,,,,,,,,,125,Y,star,1,1,,,,,,,,,,,,,,,,repeat,letter,lettRpt,k,0.5517,Hi,,,,,,2,,,,,,,,high,24,0,24,0,1,,,,,,,,,
296185,2022-12-03_16h04.35.552,vts_reward_expectancy_bt,2022.2.4,Win32,119.7748233,Chrome,1600,1067,,,,,1,1011,,,,,,,,,,,,,,,,,146,H,hexagon,1,0,,,,,,,,,,,,,,,,repeat,letter,lettRpt,j,0.8478,Lo,,,,,,2,,,,,,,,high,25,0,25,0,1,,,,,,,,,
296185,2022-12-03_16h04.35.552,vts_reward_expectancy_bt,2022.2.4,Win32,119.7748233,Chrome,1600,1067,,,,,1,1012,,,,,,,,,,,,,,,,,167,W,triangle,1,0,,,,,,,,,,,,,,,,repeat,letter,lettRpt,k,0.5225,Lo,,,,,,2,,,,,,,,high,26,0,26,0,1,,,,,,,,,
296185,2022-12-03_16h04.35.552,vts_reward_expectancy_bt,2022.2.4,Win32,119.7748233,Chrome,1600,1067,,,,,0,1012,,,,,,,,,,,,,,,,,160,D,circle,1,0,,,,,,,,,,,,,,,,switch,number,numSwt,f,0.6318,Hi,,,,,,2,,,,,,,,high,27,0,27,0,1,,,,,,,,,
296185,2022-12-03_16h04.35.552,vts_reward_expectancy_bt,2022.2.4,Win32,119.7748233,Chrome,1600,1067,,,,,1,1013,,,,,,,,,,,,,,,,,132,B,hexagon,1,0,,,,,,,,,,,,,,,,repeat,number,numRpt,d,0.501,Lo,,,,,,2,,,,,,,,high,28,0,28,0,1,,,,,,,,,
296185,2022-12-03_16h04.35.552,vts_reward_expectancy_bt,2022.2.4,Win32,119.7748233,Chrome,1600,1067,,,,,0,1013,,,,,,,,,,,,,,,,,181,S,star,1,0,,,,,,,,,,,,,,,,switch,letter,lettSwt,k,0.6099,Hi,,,,,,2,,,,,,,,high,29,0,29,0,1,,,,,,,,,
296185,2022-12-03_16h04.35.552,vts_reward_expectancy_bt,2022.2.4,Win32,119.7748233,Chrome,1600,1067,,,,,1,1014,,,,,,,,,,,,,,,,,139,F,triangle,1,0,,,,,,,,,,,,,,,,switch,number,numSwt,d,0.4125,Lo,,,,,,2,,,,,,,,high,30,0,30,0,1,,,,,,,,,
296185,2022-12-03_16h04.35.552,vts_reward_expectancy_bt,2022.2.4,Win32,119.7748233,Chrome,1600,1067,,,,,0,1014,,,,,,,,,,,,,,,,,174,U,circle,1,0,,,,,,,,,,,,,,,,switch,letter,lettSwt,k,0.484,Hi,,,,,,2,,,,,,,,high,31,0,31,0,1,,,,,,,,,
296185,2022-12-03_16h04.35.552,vts_reward_expectancy_bt,2022.2.4,Win32,119.7748233,Chrome,1600,1067,,,,,0,1014,,,,,,,,,,,,,,,,,160,S,circle,1,0,,,,,,,,,,,,,,,,switch,number,numSwt,f,0.6018,Hi,,,,,,3,,,,,,space,3.6596,high,0,0,0,0,1,,,,,,,,,
296185,2022-12-03_16h04.35.552,vts_reward_expectancy_bt,2022.2.4,Win32,119.7748233,Chrome,1600,1067,,,,,1,1015,,,,,,,,,,,,,,,,,146,D,triangle,1,0,,,,,,,,,,,,,,,,repeat,number,numRpt,d,0.3677,Lo,,,,,,3,,,,,,,,high,1,0,1,0,1,,,,,,,,,
296185,2022-12-03_16h04.35.552,vts_reward_expectancy_bt,2022.2.4,Win32,119.7748233,Chrome,1600,1067,,,,,1,1016,,,,,,,,,,,,,,,,,139,U,hexagon,1,0,,,,,,,,,,,,,,,,switch,letter,lettSwt,k,0.4495,Lo,,,,,,3,,,,,,,,high,2,0,2,0,1,,,,,,,,,
296185,2022-12-03_16h04.35.552,vts_reward_expectancy_bt,2022.2.4,Win32,119.7748233,Chrome,1600,1067,,,,,10,1026,,,,,,,,,,,,,,,,,167,F,star,1,0,,,,,,,,,,,,,,,,repeat,letter,lettRpt,j,0.4112,Hi,,,,,,3,,,,,,,,high,3,0,3,0,1,,,,,,,,,
296185,2022-12-03_16h04.35.552,vts_reward_expectancy_bt,2022.2.4,Win32,119.7748233,Chrome,1600,1067,,,,,10,1036,,,,,,,,,,,,,,,,,181,Y,circle,1,0,,,,,,,,,,,,,,,,repeat,letter,lettRpt,k,0.4842,Hi,,,,,,3,,,,,,,,high,4,0,4,0,1,,,,,,,,,
296185,2022-12-03_16h04.35.552,vts_reward_expectancy_bt,2022.2.4,Win32,119.7748233,Chrome,1600,1067,,,,,10,1046,,,,,,,,,,,,,,,,,125,B,triangle,1,0,,,,,,,,,,,,,,,,repeat,letter,lettRpt,j,0.4631,Lo,,,,,,3,,,,,,,,high,5,0,5,0,1,,,,,,,,,
296185,2022-12-03_16h04.35.552,vts_reward_expectancy_bt,2022.2.4,Win32,119.7748233,Chrome,1600,1067,,,,,1,1047,,,,,,,,,,,,,,,,,174,H,hexagon,1,0,,,,,,,,,,,,,,,,repeat,letter,lettRpt,j,0.5716,Lo,,,,,,3,,,,,,,,high,6,0,6,0,1,,,,,,,,,
296185,2022-12-03_16h04.35.552,vts_reward_expectancy_bt,2022.2.4,Win32,119.7748233,Chrome,1600,1067,,,,,0,1047,,,,,,,,,,,,,,,,,132,W,star,1,0,,,,,,,,,,,,,,,,switch,number,numSwt,d,0.5351,Hi,,,,,,3,,,,,,,,high,7,0,7,0,1,,,,,,,,,
296185,2022-12-03_16h04.35.552,vts_reward_expectancy_bt,2022.2.4,Win32,119.7748233,Chrome,1600,1067,,,,,10,1057,,,,,,,,,,,,,,,,,160,S,star,1,0,,,,,,,,,,,,,,,,repeat,number,numRpt,f,0.3646,Hi,,,,,,3,,,,,,,,high,8,0,8,0,1,,,,,,,,,
296185,2022-12-03_16h04.35.552,vts_reward_expectancy_bt,2022.2.4,Win32,119.7748233,Chrome,1600,1067,,,,,10,1067,,,,,,,,,,,,,,,,,146,D,circle,1,0,,,,,,,,,,,,,,,,switch,letter,lettSwt,j,0.393,Hi,,,,,,3,,,,,,,,high,9,0,9,0,1,,,,,,,,,
296185,2022-12-03_16h04.35.552,vts_reward_expectancy_bt,2022.2.4,Win32,119.7748233,Chrome,1600,1067,,,,,10,1077,,,,,,,,,,,,,,,,,139,U,hexagon,1,0,,,,,,,,,,,,,,,,switch,number,numSwt,d,0.3741,Lo,,,,,,3,,,,,,,,high,10,0,10,0,1,,,,,,,,,
296185,2022-12-03_16h04.35.552,vts_reward_expectancy_bt,2022.2.4,Win32,119.7748233,Chrome,1600,1067,,,,,0,1077,,,,,,,,,,,,,,,,,167,F,triangle,0,0,,,,,,,,,,,,,,,,switch,letter,NA,k,0.3815,Lo,,,,,,3,,,,,,,,high,11,0,11,0,1,,,,,,,,,
296185,2022-12-03_16h04.35.552,vts_reward_expectancy_bt,2022.2.4,Win32,119.7748233,Chrome,1600,1067,,,,,1,1078,,,,,,,,,,,,,,,,,181,Y,triangle,1,1,,,,,,,,,,,,,,,,repeat,letter,lettRpt,k,0.3513,Lo,,,,,,3,,,,,,,,high,12,0,12,0,1,,,,,,,,,
296185,2022-12-03_16h04.35.552,vts_reward_expectancy_bt,2022.2.4,Win32,119.7748233,Chrome,1600,1067,,,,,10,1088,,,,,,,,,,,,,,,,,125,B,circle,1,0,,,,,,,,,,,,,,,,switch,number,numSwt,d,0.4379,Hi,,,,,,3,,,,,,,,high,13,0,13,0,1,,,,,,,,,
296185,2022-12-03_16h04.35.552,vts_reward_expectancy_bt,2022.2.4,Win32,119.7748233,Chrome,1600,1067,,,,,0,1088,,,,,,,,,,,,,,,,,174,H,star,1,0,,,,,,,,,,,,,,,,repeat,number,numRpt,f,0.5417,Hi,,,,,,3,,,,,,,,high,14,0,14,0,1,,,,,,,,,
296185,2022-12-03_16h04.35.552,vts_reward_expectancy_bt,2022.2.4,Win32,119.7748233,Chrome,1600,1067,,,,,0,1088,,,,,,,,,,,,,,,,,132,W,hexagon,0,0,,,,,,,,,,,,,,,,repeat,number,NA,f,0.5051,Hi,,,,,,3,,,,,,,,high,15,0,15,0,1,,,,,,,,,
296185,2022-12-03_16h04.35.552,vts_reward_expectancy_bt,2022.2.4,Win32,119.7748233,Chrome,1600,1067,,,,,1,1089,,,,,,,,,,,,,,,,,139,B,hexagon,1,1,,,,,,,,,,,,,,,,switch,letter,lettSwt,j,0.5033,Lo,,,,,,3,,,,,,,,high,16,0,16,0,1,,,,,,,,,
296185,2022-12-03_16h04.35.552,vts_reward_expectancy_bt,2022.2.4,Win32,119.7748233,Chrome,1600,1067,,,,,1,1090,,,,,,,,,,,,,,,,,132,S,triangle,1,0,,,,,,,,,,,,,,,,switch,number,numSwt,d,0.5571,Lo,,,,,,3,,,,,,,,high,17,0,17,0,1,,,,,,,,,
296185,2022-12-03_16h04.35.552,vts_reward_expectancy_bt,2022.2.4,Win32,119.7748233,Chrome,1600,1067,,,,,0,1090,,,,,,,,,,,,,,,,,125,Y,star,1,0,,,,,,,,,,,,,,,,repeat,number,numRpt,d,0.7558,Hi,,,,,,3,,,,,,,,high,18,0,18,0,1,,,,,,,,,
296185,2022-12-03_16h04.35.552,vts_reward_expectancy_bt,2022.2.4,Win32,119.7748233,Chrome,1600,1067,,,,,0,1090,,,,,,,,,,,,,,,,,167,F,circle,1,0,,,,,,,,,,,,,,,,repeat,number,numRpt,f,0.4815,Hi,,,,,,3,,,,,,,,high,19,0,19,0,1,,,,,,,,,
296185,2022-12-03_16h04.35.552,vts_reward_expectancy_bt,2022.2.4,Win32,119.7748233,Chrome,1600,1067,,,,,0,1090,,,,,,,,,,,,,,,,,181,H,star,1,0,,,,,,,,,,,,,,,,switch,letter,lettSwt,j,0.5495,Hi,,,,,,3,,,,,,,,high,20,0,20,0,1,,,,,,,,,
296185,2022-12-03_16h04.35.552,vts_reward_expectancy_bt,2022.2.4,Win32,119.7748233,Chrome,1600,1067,,,,,1,1091,,,,,,,,,,,,,,,,,146,U,hexagon,1,0,,,,,,,,,,,,,,,,switch,number,numSwt,d,0.5521,Lo,,,,,,3,,,,,,,,high,21,0,21,0,1,,,,,,,,,
296185,2022-12-03_16h04.35.552,vts_reward_expectancy_bt,2022.2.4,Win32,119.7748233,Chrome,1600,1067,,,,,1,1092,,,,,,,,,,,,,,,,,174,D,triangle,1,0,,,,,,,,,,,,,,,,repeat,number,numRpt,f,0.3668,Lo,,,,,,3,,,,,,,,high,22,0,22,0,1,,,,,,,,,
296185,2022-12-03_16h04.35.552,vts_reward_expectancy_bt,2022.2.4,Win32,119.7748233,Chrome,1600,1067,,,,,0,1092,,,,,,,,,,,,,,,,,160,W,circle,1,0,,,,,,,,,,,,,,,,repeat,number,numRpt,f,0.5272,Hi,,,,,,3,,,,,,,,high,23,0,23,0,1,,,,,,,,,
296185,2022-12-03_16h04.35.552,vts_reward_expectancy_bt,2022.2.4,Win32,119.7748233,Chrome,1600,1067,,,,,1,1093,,,,,,,,,,,,,,,,,181,W,star,1,0,,,,,,,,,,,,,,,,switch,letter,lettSwt,k,0.4073,Hi,,,,,,3,,,,,,,,high,24,0,24,0,1,,,,,,,,,
296185,2022-12-03_16h04.35.552,vts_reward_expectancy_bt,2022.2.4,Win32,119.7748233,Chrome,1600,1067,,,,,10,1103,,,,,,,,,,,,,,,,,132,Y,triangle,1,0,,,,,,,,,,,,,,,,switch,number,numSwt,d,0.5377,Lo,,,,,,3,,,,,,,,high,25,0,25,0,1,,,,,,,,,
296185,2022-12-03_16h04.35.552,vts_reward_expectancy_bt,2022.2.4,Win32,119.7748233,Chrome,1600,1067,,,,,0,1103,,,,,,,,,,,,,,,,,167,S,hexagon,0,0,,,,,,,,,,,,,,,,switch,letter,NA,j,0.3488,Lo,,,,,,3,,,,,,,,high,26,0,26,0,1,,,,,,,,,
296185,2022-12-03_16h04.35.552,vts_reward_expectancy_bt,2022.2.4,Win32,119.7748233,Chrome,1600,1067,,,,,10,1113,,,,,,,,,,,,,,,,,125,D,circle,1,1,,,,,,,,,,,,,,,,switch,number,numSwt,d,0.3855,Hi,,,,,,3,,,,,,,,high,27,0,27,0,1,,,,,,,,,
296185,2022-12-03_16h04.35.552,vts_reward_expectancy_bt,2022.2.4,Win32,119.7748233,Chrome,1600,1067,,,,,1,1114,,,,,,,,,,,,,,,,,160,H,triangle,1,0,,,,,,,,,,,,,,,,repeat,number,numRpt,f,0.5237,Lo,,,,,,3,,,,,,,,high,28,0,28,0,1,,,,,,,,,
296185,2022-12-03_16h04.35.552,vts_reward_expectancy_bt,2022.2.4,Win32,119.7748233,Chrome,1600,1067,,,,,1,1115,,,,,,,,,,,,,,,,,146,U,hexagon,1,0,,,,,,,,,,,,,,,,repeat,number,numRpt,d,0.3511,Lo,,,,,,3,,,,,,,,high,29,0,29,0,1,,,,,,,,,
296185,2022-12-03_16h04.35.552,vts_reward_expectancy_bt,2022.2.4,Win32,119.7748233,Chrome,1600,1067,,,,,0,1115,,,,,,,,,,,,,,,,,174,B,circle,1,0,,,,,,,,,,,,,,,,repeat,number,numRpt,f,0.5408,Hi,,,,,,3,,,,,,,,high,30,0,30,0,1,,,,,,,,,
296185,2022-12-03_16h04.35.552,vts_reward_expectancy_bt,2022.2.4,Win32,119.7748233,Chrome,1600,1067,,,,,0,1115,,,,,,,,,,,,,,,,,139,F,star,1,0,,,,,,,,,,,,,,,,switch,letter,lettSwt,j,0.6614,Hi,,,,,,3,,,,,,,,high,31,0,31,0,1,,,,,,,,,
296185,2022-12-03_16h04.35.552,vts_reward_expectancy_bt,2022.2.4,Win32,119.7748233,Chrome,1600,1067,,,,,1,1116,,,,,,,,,,,,,,,,,146,Y,hexagon,1,0,,,,,,,,,,,,,,,,switch,number,numSwt,d,0.4644,Lo,,,,,,4,,,,,,space,1.4463,high,0,0,0,0,1,,,,,,,,,
296185,2022-12-03_16h04.35.552,vts_reward_expectancy_bt,2022.2.4,Win32,119.7748233,Chrome,1600,1067,,,,,0,1116,,,,,,,,,,,,,,,,,160,H,circle,1,0,,,,,,,,,,,,,,,,repeat,number,numRpt,f,0.4757,Hi,,,,,,4,,,,,,,,high,1,0,1,0,1,,,,,,,,,
296185,2022-12-03_16h04.35.552,vts_reward_expectancy_bt,2022.2.4,Win32,119.7748233,Chrome,1600,1067,,,,,0,1116,,,,,,,,,,,,,,,,,139,D,star,0,0,,,,,,,,,,,,,,,,switch,letter,NA,k,0.4933,Hi,,,,,,4,,,,,,,,high,2,0,2,0,1,,,,,,,,,
296185,2022-12-03_16h04.35.552,vts_reward_expectancy_bt,2022.2.4,Win32,119.7748233,Chrome,1600,1067,,,,,1,1117,,,,,,,,,,,,,,,,,181,W,triangle,1,1,,,,,,,,,,,,,,,,repeat,letter,lettRpt,k,0.5515,Lo,,,,,,4,,,,,,,,high,3,0,3,0,1,,,,,,,,,
296185,2022-12-03_16h04.35.552,vts_reward_expectancy_bt,2022.2.4,Win32,119.7748233,Chrome,1600,1067,,,,,1,1118,,,,,,,,,,,,,,,,,125,U,hexagon,1,0,,,,,,,,,,,,,,,,switch,number,numSwt,d,0.3057,Lo,,,,,,4,,,,,,,,high,4,0,4,0,1,,,,,,,,,
296185,2022-12-03_16h04.35.552,vts_reward_expectancy_bt,2022.2.4,Win32,119.7748233,Chrome,1600,1067,,,,,0,1118,,,,,,,,,,,,,,,,,174,S,circle,0,0,,,,,,,,,,,,,,,,switch,letter,NA,j,0.4843,Lo,,,,,,4,,,,,,,,high,5,0,5,0,1,,,,,,,,,
296185,2022-12-03_16h04.35.552,vts_reward_expectancy_bt,2022.2.4,Win32,119.7748233,Chrome,1600,1067,,,,,0,1118,,,,,,,,,,,,,,,,,167,B,star,1,1,,,,,,,,,,,,,,,,switch,number,numSwt,f,0.6696,Hi,,,,,,4,,,,,,,,high,6,0,6,0,1,,,,,,,,,
296185,2022-12-03_16h04.35.552,vts_reward_expectancy_bt,2022.2.4,Win32,119.7748233,Chrome,1600,1067,,,,,1,1119,,,,,,,,,,,,,,,,,132,F,triangle,1,0,,,,,,,,,,,,,,,,switch,letter,lettSwt,j,0.5201,Lo,,,,,,4,,,,,,,,high,7,0,7,0,1,,,,,,,,,
296185,2022-12-03_16h04.35.552,vts_reward_expectancy_bt,2022.2.4,Win32,119.7748233,Chrome,1600,1067,,,,,10,1129,,,,,,,,,,,,,,,,,146,Y,star,1,0,,,,,,,,,,,,,,,,switch,number,numSwt,d,0.3689,Hi,,,,,,4,,,,,,,,high,8,0,8,0,1,,,,,,,,,
296185,2022-12-03_16h04.35.552,vts_reward_expectancy_bt,2022.2.4,Win32,119.7748233,Chrome,1600,1067,,,,,0,1129,,,,,,,,,,,,,,,,,160,H,hexagon,0,0,,,,,,,,,,,,,,,,switch,letter,NA,k,0.4112,Hi,,,,,,4,,,,,,,,high,9,0,9,0,1,,,,,,,,,
296185,2022-12-03_16h04.35.552,vts_reward_expectancy_bt,2022.2.4,Win32,119.7748233,Chrome,1600,1067,,,,,10,1139,,,,,,,,,,,,,,,,,139,D,circle,1,1,,,,,,,,,,,,,,,,switch,number,numSwt,d,0.419,Hi,,,,,,4,,,,,,,,high,10,0,10,0,1,,,,,,,,,
296185,2022-12-03_16h04.35.552,vts_reward_expectancy_bt,2022.2.4,Win32,119.7748233,Chrome,1600,1067,,,,,1,1140,,,,,,,,,,,,,,,,,181,W,triangle,1,0,,,,,,,,,,,,,,,,switch,letter,lettSwt,k,0.4145,Lo,,,,,,4,,,,,,,,high,11,0,11,0,1,,,,,,,,,
296185,2022-12-03_16h04.35.552,vts_reward_expectancy_bt,2022.2.4,Win32,119.7748233,Chrome,1600,1067,,,,,0,1140,,,,,,,,,,,,,,,,,125,U,triangle,0,0,,,,,,,,,,,,,,,,repeat,letter,NA,j,0.357,Lo,,,,,,4,,,,,,,,high,12,0,12,0,1,,,,,,,,,
296185,2022-12-03_16h04.35.552,vts_reward_expectancy_bt,2022.2.4,Win32,119.7748233,Chrome,1600,1067,,,,,0,1140,,,,,,,,,,,,,,,,,174,S,circle,1,1,,,,,,,,,,,,,,,,switch,number,numSwt,f,0.6645,Hi,,,,,,4,,,,,,,,high,13,0,13,0,1,,,,,,,,,
296185,2022-12-03_16h04.35.552,vts_reward_expectancy_bt,2022.2.4,Win32,119.7748233,Chrome,1600,1067,,,,,1,1141,,,,,,,,,,,,,,,,,167,B,star,1,0,,,,,,,,,,,,,,,,switch,letter,lettSwt,j,0.3759,Hi,,,,,,4,,,,,,,,high,14,0,14,0,1,,,,,,,,,
296185,2022-12-03_16h04.35.552,vts_reward_expectancy_bt,2022.2.4,Win32,119.7748233,Chrome,1600,1067,,,,,1,1142,,,,,,,,,,,,,,,,,132,F,hexagon,1,0,,,,,,,,,,,,,,,,switch,number,numSwt,d,0.4174,Lo,,,,,,4,,,,,,,,high,15,0,15,0,1,,,,,,,,,
296185,2022-12-03_16h04.35.552,vts_reward_expectancy_bt,2022.2.4,Win32,119.7748233,Chrome,1600,1067,,,,,10,1152,,,,,,,,,,,,,,,,,167,U,star,1,0,,,,,,,,,,,,,,,,repeat,number,numRpt,f,0.349,Hi,,,,,,4,,,,,,,,high,16,0,16,0,1,,,,,,,,,
296185,2022-12-03_16h04.35.552,vts_reward_expectancy_bt,2022.2.4,Win32,119.7748233,Chrome,1600,1067,,,,,0,1152,,,,,,,,,,,,,,,,,125,B,circle,1,0,,,,,,,,,,,,,,,,repeat,number,numRpt,d,0.3981,Hi,,,,,,4,,,,,,,,high,17,0,17,0,1,,,,,,,,,
296185,2022-12-03_16h04.35.552,vts_reward_expectancy_bt,2022.2.4,Win32,119.7748233,Chrome,1600,1067,,,,,1,1153,,,,,,,,,,,,,,,,,174,D,hexagon,1,0,,,,,,,,,,,,,,,,repeat,number,numRpt,f,0.477,Lo,,,,,,4,,,,,,,,high,18,0,18,0,1,,,,,,,,,
296185,2022-12-03_16h04.35.552,vts_reward_expectancy_bt,2022.2.4,Win32,119.7748233,Chrome,1600,1067,,,,,10,1163,,,,,,,,,,,,,,,,,132,W,triangle,1,0,,,,,,,,,,,,,,,,repeat,number,numRpt,d,0.4104,Lo,,,,,,4,,,,,,,,high,19,0,19,0,1,,,,,,,,,
296185,2022-12-03_16h04.35.552,vts_reward_expectancy_bt,2022.2.4,Win32,119.7748233,Chrome,1600,1067,,,,,10,1173,,,,,,,,,,,,,,,,,181,S,triangle,1,0,,,,,,,,,,,,,,,,switch,letter,lettSwt,k,0.3524,Lo,,,,,,4,,,,,,,,high,20,0,20,0,1,,,,,,,,,
296185,2022-12-03_16h04.35.552,vts_reward_expectancy_bt,2022.2.4,Win32,119.7748233,Chrome,1600,1067,,,,,1,1174,,,,,,,,,,,,,,,,,146,F,hexagon,1,0,,,,,,,,,,,,,,,,switch,number,numSwt,d,0.3798,Lo,,,,,,4,,,,,,,,high,21,0,21,0,1,,,,,,,,,
296185,2022-12-03_16h04.35.552,vts_reward_expectancy_bt,2022.2.4,Win32,119.7748233,Chrome,1600,1067,,,,,0,1174,,,,,,,,,,,,,,,,,160,H,circle,0,0,,,,,,,,,,,,,,,,switch,letter,NA,k,0.5292,Lo,,,,,,4,,,,,,,,high,22,0,22,0,1,,,,,,,,,
296185,2022-12-03_16h04.35.552,vts_reward_expectancy_bt,2022.2.4,Win32,119.7748233,Chrome,1600,1067,,,,,0,1174,,,,,,,,,,,,,,,,,139,Y,star,0,1,,,,,,,,,,,,,,,,repeat,letter,NA,j,0.4581,Lo,,,,,,4,,,,,,,,high,23,0,23,0,1,,,,,,,,,
296185,2022-12-03_16h04.35.552,vts_reward_expectancy_bt,2022.2.4,Win32,119.7748233,Chrome,1600,1067,,,,,0,1174,,,,,,,,,,,,,,,,,132,D,circle,1,1,,,,,,,,,,,,,,,,switch,number,numSwt,d,0.4767,Hi,,,,,,4,,,,,,,,high,24,0,24,0,1,,,,,,,,,
296185,2022-12-03_16h04.35.552,vts_reward_expectancy_bt,2022.2.4,Win32,119.7748233,Chrome,1600,1067,,,,,0,1174,,,,,,,,,,,,,,,,,181,Y,star,1,0,,,,,,,,,,,,,,,,repeat,number,numRpt,f,0.4294,Hi,,,,,,4,,,,,,,,high,25,0,25,0,1,,,,,,,,,
296185,2022-12-03_16h04.35.552,vts_reward_expectancy_bt,2022.2.4,Win32,119.7748233,Chrome,1600,1067,,,,,1,1175,,,,,,,,,,,,,,,,,125,F,hexagon,1,0,,,,,,,,,,,,,,,,repeat,number,numRpt,d,0.29,Lo,,,,,,4,,,,,,,,high,26,0,26,0,1,,,,,,,,,
296185,2022-12-03_16h04.35.552,vts_reward_expectancy_bt,2022.2.4,Win32,119.7748233,Chrome,1600,1067,,,,,10,1185,,,,,,,,,,,,,,,,,146,U,triangle,1,0,,,,,,,,,,,,,,,,switch,letter,lettSwt,k,0.4888,Lo,,,,,,4,,,,,,,,high,27,0,27,0,1,,,,,,,,,
296185,2022-12-03_16h04.35.552,vts_reward_expectancy_bt,2022.2.4,Win32,119.7748233,Chrome,1600,1067,,,,,1,1186,,,,,,,,,,,,,,,,,167,S,triangle,1,0,,,,,,,,,,,,,,,,repeat,letter,lettRpt,k,0.5355,Lo,,,,,,4,,,,,,,,high,28,0,28,0,1,,,,,,,,,
296185,2022-12-03_16h04.35.552,vts_reward_expectancy_bt,2022.2.4,Win32,119.7748233,Chrome,1600,1067,,,,,0,1186,,,,,,,,,,,,,,,,,160,H,circle,0,0,,,,,,,,,,,,,,,,switch,number,NA,d,0.4041,Lo,,,,,,4,,,,,,,,high,29,0,29,0,1,,,,,,,,,
296185,2022-12-03_16h04.35.552,vts_reward_expectancy_bt,2022.2.4,Win32,119.7748233,Chrome,1600,1067,,,,,1,1187,,,,,,,,,,,,,,,,,139,W,hexagon,1,1,,,,,,,,,,,,,,,,switch,letter,lettSwt,k,0.6586,Lo,,,,,,4,,,,,,,,high,30,0,30,0,1,,,,,,,,,
296185,2022-12-03_16h04.35.552,vts_reward_expectancy_bt,2022.2.4,Win32,119.7748233,Chrome,1600,1067,,,,,0,1187,,,,,,,,,,,,,,,,,174,B,star,1,0,,,,,,,,,,,,,,,,switch,number,numSwt,f,0.5238,Hi,,,,,,4,,,,,,,,high,31,0,31,0,1,,,,,,,,,
296185,2022-12-03_16h04.35.552,vts_reward_expectancy_bt,2022.2.4,Win32,119.7748233,Chrome,1600,1067,,,,,0,1187,,,,,,,,,,,,,,,,,125,D,circle,1,0,,,,,,,,,,,,,,,,repeat,number,numRpt,d,0.4437,Hi,,,,,,5,,,,,,space,1.5317,high,0,0,0,0,1,,,,,,,,,
296185,2022-12-03_16h04.35.552,vts_reward_expectancy_bt,2022.2.4,Win32,119.7748233,Chrome,1600,1067,,,,,1,1188,,,,,,,,,,,,,,,,,132,S,triangle,1,0,,,,,,,,,,,,,,,,repeat,number,numRpt,d,0.4262,Lo,,,,,,5,,,,,,,,high,1,0,1,0,1,,,,,,,,,
296185,2022-12-03_16h04.35.552,vts_reward_expectancy_bt,2022.2.4,Win32,119.7748233,Chrome,1600,1067,,,,,1,1189,,,,,,,,,,,,,,,,,167,Y,hexagon,1,0,,,,,,,,,,,,,,,,switch,letter,lettSwt,k,0.3768,Lo,,,,,,5,,,,,,,,high,2,0,2,0,1,,,,,,,,,
296185,2022-12-03_16h04.35.552,vts_reward_expectancy_bt,2022.2.4,Win32,119.7748233,Chrome,1600,1067,,,,,1,1190,,,,,,,,,,,,,,,,,160,H,star,1,0,,,,,,,,,,,,,,,,repeat,letter,lettRpt,j,0.4874,Hi,,,,,,5,,,,,,,,high,3,0,3,0,1,,,,,,,,,
296185,2022-12-03_16h04.35.552,vts_reward_expectancy_bt,2022.2.4,Win32,119.7748233,Chrome,1600,1067,,,,,0,1190,,,,,,,,,,,,,,,,,181,W,circle,0,0,,,,,,,,,,,,,,,,switch,number,NA,d,0.2684,Hi,,,,,,5,,,,,,,,high,4,0,4,0,1,,,,,,,,,
296185,2022-12-03_16h04.35.552,vts_reward_expectancy_bt,2022.2.4,Win32,119.7748233,Chrome,1600,1067,,,,,1,1191,,,,,,,,,,,,,,,,,139,U,triangle,1,1,,,,,,,,,,,,,,,,repeat,number,numRpt,d,0.4599,Lo,,,,,,5,,,,,,,,high,5,0,5,0,1,,,,,,,,,
296185,2022-12-03_16h04.35.552,vts_reward_expectancy_bt,2022.2.4,Win32,119.7748233,Chrome,1600,1067,,,,,10,1201,,,,,,,,,,,,,,,,,146,F,hexagon,1,0,,,,,,,,,,,,,,,,switch,letter,lettSwt,j,0.467,Lo,,,,,,5,,,,,,,,high,6,0,6,0,1,,,,,,,,,
296185,2022-12-03_16h04.35.552,vts_reward_expectancy_bt,2022.2.4,Win32,119.7748233,Chrome,1600,1067,,,,,0,1201,,,,,,,,,,,,,,,,,174,B,star,0,0,,,,,,,,,,,,,,,,switch,number,NA,d,0.5177,Lo,,,,,,5,,,,,,,,high,7,0,7,0,1,,,,,,,,,
296185,2022-12-03_16h04.35.552,vts_reward_expectancy_bt,2022.2.4,Win32,119.7748233,Chrome,1600,1067,,,,,1,1202,,,,,,,,,,,,,,,,,125,D,triangle,1,1,,,,,,,,,,,,,,,,repeat,number,numRpt,d,0.3985,Lo,,,,,,5,,,,,,,,high,8,0,8,0,1,,,,,,,,,
296185,2022-12-03_16h04.35.552,vts_reward_expectancy_bt,2022.2.4,Win32,119.7748233,Chrome,1600,1067,,,,,0,1202,,,,,,,,,,,,,,,,,132,S,circle,1,0,,,,,,,,,,,,,,,,switch,letter,lettSwt,k,0.4683,Hi,,,,,,5,,,,,,,,high,9,0,9,0,1,,,,,,,,,
296185,2022-12-03_16h04.35.552,vts_reward_expectancy_bt,2022.2.4,Win32,119.7748233,Chrome,1600,1067,,,,,0,1202,,,,,,,,,,,,,,,,,167,Y,star,0,0,,,,,,,,,,,,,,,,repeat,letter,NA,j,0.3702,Hi,,,,,,5,,,,,,,,high,10,0,10,0,1,,,,,,,,,
296185,2022-12-03_16h04.35.552,vts_reward_expectancy_bt,2022.2.4,Win32,119.7748233,Chrome,1600,1067,,,,,1,1203,,,,,,,,,,,,,,,,,160,H,hexagon,1,1,,,,,,,,,,,,,,,,repeat,letter,lettRpt,j,0.4115,Lo,,,,,,5,,,,,,,,high,11,0,11,0,1,,,,,,,,,
296185,2022-12-03_16h04.35.552,vts_reward_expectancy_bt,2022.2.4,Win32,119.7748233,Chrome,1600,1067,,,,,10,1213,,,,,,,,,,,,,,,,,181,W,star,1,0,,,,,,,,,,,,,,,,repeat,letter,lettRpt,k,0.4326,Hi,,,,,,5,,,,,,,,high,12,0,12,0,1,,,,,,,,,
296185,2022-12-03_16h04.35.552,vts_reward_expectancy_bt,2022.2.4,Win32,119.7748233,Chrome,1600,1067,,,,,1,1214,,,,,,,,,,,,,,,,,139,U,hexagon,1,0,,,,,,,,,,,,,,,,repeat,letter,lettRpt,k,0.5882,Lo,,,,,,5,,,,,,,,high,13,0,13,0,1,,,,,,,,,
296185,2022-12-03_16h04.35.552,vts_reward_expectancy_bt,2022.2.4,Win32,119.7748233,Chrome,1600,1067,,,,,0,1214,,,,,,,,,,,,,,,,,146,F,circle,1,0,,,,,,,,,,,,,,,,switch,number,numSwt,d,0.4385,Hi,,,,,,5,,,,,,,,high,14,0,14,0,1,,,,,,,,,
296185,2022-12-03_16h04.35.552,vts_reward_expectancy_bt,2022.2.4,Win32,119.7748233,Chrome,1600,1067,,,,,1,1215,,,,,,,,,,,,,,,,,174,B,triangle,1,0,,,,,,,,,,,,,,,,repeat,number,numRpt,f,0.5286,Lo,,,,,,5,,,,,,,,high,15,0,15,0,1,,,,,,,,,
296185,2022-12-03_16h04.35.552,vts_reward_expectancy_bt,2022.2.4,Win32,119.7748233,Chrome,1600,1067,,,,,1,1216,,,,,,,,,,,,,,,,,132,D,triangle,1,0,,,,,,,,,,,,,,,,switch,letter,lettSwt,j,0.4324,Lo,,,,,,5,,,,,,,,high,16,0,16,0,1,,,,,,,,,
296185,2022-12-03_16h04.35.552,vts_reward_expectancy_bt,2022.2.4,Win32,119.7748233,Chrome,1600,1067,,,,,1,1217,,,,,,,,,,,,,,,,,125,Y,hexagon,1,0,,,,,,,,,,,,,,,,repeat,letter,lettRpt,k,0.4676,Lo,,,,,,5,,,,,,,,high,17,0,17,0,1,,,,,,,,,
296185,2022-12-03_16h04.35.552,vts_reward_expectancy_bt,2022.2.4,Win32,119.7748233,Chrome,1600,1067,,,,,0,1217,,,,,,,,,,,,,,,,,174,F,circle,0,0,,,,,,,,,,,,,,,,switch,number,NA,d,0.3197,Lo,,,,,,5,,,,,,,,high,18,0,18,0,1,,,,,,,,,
296185,2022-12-03_16h04.35.552,vts_reward_expectancy_bt,2022.2.4,Win32,119.7748233,Chrome,1600,1067,,,,,0,1217,,,,,,,,,,,,,,,,,181,W,star,1,1,,,,,,,,,,,,,,,,repeat,number,numRpt,f,0.4386,Hi,,,,,,5,,,,,,,,high,19,0,19,0,1,,,,,,,,,
296185,2022-12-03_16h04.35.552,vts_reward_expectancy_bt,2022.2.4,Win32,119.7748233,Chrome,1600,1067,,,,,0,1217,,,,,,,,,,,,,,,,,139,B,circle,1,0,,,,,,,,,,,,,,,,repeat,number,numRpt,d,0.405,Hi,,,,,,5,,,,,,,,high,20,0,20,0,1,,,,,,,,,
296185,2022-12-03_16h04.35.552,vts_reward_expectancy_bt,2022.2.4,Win32,119.7748233,Chrome,1600,1067,,,,,1,1218,,,,,,,,,,,,,,,,,160,S,hexagon,1,0,,,,,,,,,,,,,,,,switch,letter,lettSwt,k,0.5571,Lo,,,,,,5,,,,,,,,high,21,0,21,0,1,,,,,,,,,
296185,2022-12-03_16h04.35.552,vts_reward_expectancy_bt,2022.2.4,Win32,119.7748233,Chrome,1600,1067,,,,,10,1228,,,,,,,,,,,,,,,,,146,H,star,1,0,,,,,,,,,,,,,,,,switch,number,numSwt,d,0.3733,Hi,,,,,,5,,,,,,,,high,22,0,22,0,1,,,,,,,,,
296185,2022-12-03_16h04.35.552,vts_reward_expectancy_bt,2022.2.4,Win32,119.7748233,Chrome,1600,1067,,,,,1,1229,,,,,,,,,,,,,,,,,167,U,triangle,1,0,,,,,,,,,,,,,,,,switch,letter,lettSwt,k,0.4581,Lo,,,,,,5,,,,,,,,high,23,0,23,0,1,,,,,,,,,
296185,2022-12-03_16h04.35.552,vts_reward_expectancy_bt,2022.2.4,Win32,119.7748233,Chrome,1600,1067,,,,,10,1239,,,,,,,,,,,,,,,,,132,U,star,1,0,,,,,,,,,,,,,,,,switch,number,numSwt,d,0.4046,Hi,,,,,,5,,,,,,,,high,24,0,24,0,1,,,,,,,,,
296185,2022-12-03_16h04.35.552,vts_reward_expectancy_bt,2022.2.4,Win32,119.7748233,Chrome,1600,1067,,,,,1,1240,,,,,,,,,,,,,,,,,125,F,triangle,1,0,,,,,,,,,,,,,,,,repeat,number,numRpt,d,0.3812,Lo,,,,,,5,,,,,,,,high,25,0,25,0,1,,,,,,,,,
296185,2022-12-03_16h04.35.552,vts_reward_expectancy_bt,2022.2.4,Win32,119.7748233,Chrome,1600,1067,,,,,0,1240,,,,,,,,,,,,,,,,,160,H,circle,1,0,,,,,,,,,,,,,,,,repeat,number,numRpt,f,0.4755,Hi,,,,,,5,,,,,,,,high,26,0,26,0,1,,,,,,,,,
296185,2022-12-03_16h04.35.552,vts_reward_expectancy_bt,2022.2.4,Win32,119.7748233,Chrome,1600,1067,,,,,10,1250,,,,,,,,,,,,,,,,,139,W,hexagon,1,0,,,,,,,,,,,,,,,,switch,letter,lettSwt,k,0.5252,Lo,,,,,,5,,,,,,,,high,27,0,27,0,1,,,,,,,,,
296185,2022-12-03_16h04.35.552,vts_reward_expectancy_bt,2022.2.4,Win32,119.7748233,Chrome,1600,1067,,,,,1,1251,,,,,,,,,,,,,,,,,174,S,circle,1,0,,,,,,,,,,,,,,,,switch,number,numSwt,f,0.3932,Hi,,,,,,5,,,,,,,,high,28,0,28,0,1,,,,,,,,,
296185,2022-12-03_16h04.35.552,vts_reward_expectancy_bt,2022.2.4,Win32,119.7748233,Chrome,1600,1067,,,,,0,1251,,,,,,,,,,,,,,,,,181,B,hexagon,0,0,,,,,,,,,,,,,,,,switch,letter,NA,k,0.4358,Hi,,,,,,5,,,,,,,,high,29,0,29,0,1,,,,,,,,,
296185,2022-12-03_16h04.35.552,vts_reward_expectancy_bt,2022.2.4,Win32,119.7748233,Chrome,1600,1067,,,,,0,1251,,,,,,,,,,,,,,,,,167,Y,star,0,1,,,,,,,,,,,,,,,,repeat,letter,NA,j,0.4973,Hi,,,,,,5,,,,,,,,high,30,0,30,0,1,,,,,,,,,
296185,2022-12-03_16h04.35.552,vts_reward_expectancy_bt,2022.2.4,Win32,119.7748233,Chrome,1600,1067,,,,,1,1252,,,,,,,,,,,,,,,,,146,D,triangle,1,1,,,,,,,,,,,,,,,,switch,number,numSwt,d,0.5389,Lo,,,,,,5,,,,,,,,high,31,0,31,0,1,,,,,,,,,
296185,2022-12-03_16h04.35.552,vts_reward_expectancy_bt,2022.2.4,Win32,119.7748233,Chrome,1600,1067,,,,,1,1253,,,,,,,,,,,,,,,,,139,F,triangle,1,0,,,,,,,,,,,,,,,,repeat,number,numRpt,d,0.7711,Lo,,,,,,6,,,,,,space,0.4077,high,0,0,0,0,1,,,,,,,,,
296185,2022-12-03_16h04.35.552,vts_reward_expectancy_bt,2022.2.4,Win32,119.7748233,Chrome,1600,1067,,,,,0,1253,,,,,,,,,,,,,,,,,146,W,circle,0,0,,,,,,,,,,,,,,,,repeat,number,NA,f,0.3443,Lo,,,,,,6,,,,,,,,high,1,0,1,0,1,,,,,,,,,
296185,2022-12-03_16h04.35.552,vts_reward_expectancy_bt,2022.2.4,Win32,119.7748233,Chrome,1600,1067,,,,,10,1263,,,,,,,,,,,,,,,,,160,D,star,1,1,,,,,,,,,,,,,,,,switch,letter,lettSwt,j,0.4386,Hi,,,,,,6,,,,,,,,high,2,0,2,0,1,,,,,,,,,
296185,2022-12-03_16h04.35.552,vts_reward_expectancy_bt,2022.2.4,Win32,119.7748233,Chrome,1600,1067,,,,,10,1273,,,,,,,,,,,,,,,,,167,B,hexagon,1,0,,,,,,,,,,,,,,,,repeat,letter,lettRpt,j,0.4678,Lo,,,,,,6,,,,,,,,high,3,0,3,0,1,,,,,,,,,
296185,2022-12-03_16h04.35.552,vts_reward_expectancy_bt,2022.2.4,Win32,119.7748233,Chrome,1600,1067,,,,,1,1274,,,,,,,,,,,,,,,,,174,Y,triangle,1,0,,,,,,,,,,,,,,,,switch,number,numSwt,f,0.4867,Lo,,,,,,6,,,,,,,,high,4,0,4,0,1,,,,,,,,,
296185,2022-12-03_16h04.35.552,vts_reward_expectancy_bt,2022.2.4,Win32,119.7748233,Chrome,1600,1067,,,,,0,1274,,,,,,,,,,,,,,,,,125,H,circle,1,0,,,,,,,,,,,,,,,,repeat,number,numRpt,d,0.4933,Hi,,,,,,6,,,,,,,,high,5,0,5,0,1,,,,,,,,,
296185,2022-12-03_16h04.35.552,vts_reward_expectancy_bt,2022.2.4,Win32,119.7748233,Chrome,1600,1067,,,,,0,1274,,,,,,,,,,,,,,,,,181,S,star,0,0,,,,,,,,,,,,,,,,switch,letter,NA,j,0.3698,Hi,,,,,,6,,,,,,,,high,6,0,6,0,1,,,,,,,,,
296185,2022-12-03_16h04.35.552,vts_reward_expectancy_bt,2022.2.4,Win32,119.7748233,Chrome,1600,1067,,,,,1,1275,,,,,,,,,,,,,,,,,132,U,hexagon,1,1,,,,,,,,,,,,,,,,repeat,letter,lettRpt,k,0.3667,Lo,,,,,,6,,,,,,,,high,7,0,7,0,1,,,,,,,,,
296185,2022-12-03_16h04.35.552,vts_reward_expectancy_bt,2022.2.4,Win32,119.7748233,Chrome,1600,1067,,,,,10,1285,,,,,,,,,,,,,,,,,139,F,circle,1,0,,,,,,,,,,,,,,,,switch,number,numSwt,d,0.3113,Hi,,,,,,6,,,,,,,,high,8,0,8,0,1,,,,,,,,,
296185,2022-12-03_16h04.35.552,vts_reward_expectancy_bt,2022.2.4,Win32,119.7748233,Chrome,1600,1067,,,,,0,1285,,,,,,,,,,,,,,,,,146,W,star,1,0,,,,,,,,,,,,,,,,repeat,number,numRpt,d,0.6507,Hi,,,,,,6,,,,,,,,high,9,0,9,0,1,,,,,,,,,
296185,2022-12-03_16h04.35.552,vts_reward_expectancy_bt,2022.2.4,Win32,119.7748233,Chrome,1600,1067,,,,,0,1285,,,,,,,,,,,,,,,,,160,D,triangle,0,0,,,,,,,,,,,,,,,,repeat,number,NA,d,0.3843,Hi,,,,,,6,,,,,,,,high,10,0,10,0,1,,,,,,,,,
296185,2022-12-03_16h04.35.552,vts_reward_expectancy_bt,2022.2.4,Win32,119.7748233,Chrome,1600,1067,,,,,1,1286,,,,,,,,,,,,,,,,,167,B,hexagon,1,1,,,,,,,,,,,,,,,,switch,letter,lettSwt,j,0.4321,Lo,,,,,,6,,,,,,,,high,11,0,11,0,1,,,,,,,,,
296185,2022-12-03_16h04.35.552,vts_reward_expectancy_bt,2022.2.4,Win32,119.7748233,Chrome,1600,1067,,,,,0,1286,,,,,,,,,,,,,,,,,174,Y,triangle,0,0,,,,,,,,,,,,,,,,switch,number,NA,d,0.3405,Lo,,,,,,6,,,,,,,,high,12,0,12,0,1,,,,,,,,,
296185,2022-12-03_16h04.35.552,vts_reward_expectancy_bt,2022.2.4,Win32,119.7748233,Chrome,1600,1067,,,,,1,1287,,,,,,,,,,,,,,,,,125,H,hexagon,1,1,,,,,,,,,,,,,,,,switch,letter,lettSwt,j,1.0716,Lo,,,,,,6,,,,,,,,high,13,0,13,0,1,,,,,,,,,
