participant,date,expName,psychopyVersion,OS,frameRate,browser,xResolution,yResolution,key_resp.keys,key_resp.rt,training_resp.keys,training_resp.rt,points_trial,points_cumul,trainBlock,training.thisRepN,training.thisTrialN,training.thisN,training.thisIndex,training.ran,LTriangleOpac,LCircleOpac,LHexagonOpac,LStarOpac,RTriangleOpac,RCircleOpac,RHexagonOpac,RStarOpac,LShape_ID,RShape_ID,curr_topStim,curr_bottStim,curr_shape,acc,E1,target_resp_prac1.keys,target_resp_prac1.rt,pracBlock,task1_prac_trials.thisRepN,task1_prac_trials.thisTrialN,task1_prac_trials.thisN,task1_prac_trials.thisIndex,task1_prac_trials.ran,target_resp_prac2.keys,target_resp_prac2.rt,task2_praac_trials.thisRepN,task2_praac_trials.thisTrialN,task2_praac_trials.thisN,task2_praac_trials.thisIndex,task2_praac_trials.ran,alt,task,condition,target_resp.keys,target_resp.rt,rewCond,vts_practice_trials.thisRepN,vts_practice_trials.thisTrialN,vts_practice_trials.thisN,vts_practice_trials.thisIndex,vts_practice_trials.ran,blockNum,trials_norew.thisRepN,trials_norew.thisTrialN,trials_norew.thisN,trials_norew.thisIndex,trials_norew.ran,key_resp_2.keys,key_resp_2.rt,rewExpectancy,trials_rew.thisRepN,trials_rew.thisTrialN,trials_rew.thisN,trials_rew.thisIndex,trials_rew.ran,Q1,Q2,Q2_text,Q3,Q4,Q5_text,Q5,xRes,yRes
296164,2022-11-27_19h49.43.069,vts_reward_expectancy_bt,2022.2.4,MacIntel,60.0024001,Chrome,1440,900,,,,,,,,,,,,,,,,,,,,,,,,,,,,,,,,,,,,,,,,,,,,,,,,,,,,,,,,,,,,,,,,,,,,,,,,,,,,
296164,2022-11-27_19h49.43.069,vts_reward_expectancy_bt,2022.2.4,MacIntel,60.0024001,Chrome,1440,900,space,1.1515,,,,,,,,,,,,,,,,,,,,,,,,,,,,,,,,,,,,,,,,,,,,,,,,,,,,,,,,,,,,,,,,,,,,,,,,,,
296164,2022-11-27_19h49.43.069,vts_reward_expectancy_bt,2022.2.4,MacIntel,60.0024001,Chrome,1440,900,,,,,,,,,,,,,,,,,,,,,,,,,,,,,,,,,,,,,,,,,,,,,,,,,,,,,,,,,,,,,,,,,,,,,,,,,,,,
296164,2022-11-27_19h49.43.069,vts_reward_expectancy_bt,2022.2.4,MacIntel,60.0024001,Chrome,1440,900,,,l,6.4436,1,1,0,0,0,0,6,1,0,0,1,0,1,0,0,0,hexagon,triangle,,,,,,,,,,,,,,,,,,,,,,,,,,,,,,,,,,,,,,,,,,,,,,,,,,,,,,
296164,2022-11-27_19h49.43.069,vts_reward_expectancy_bt,2022.2.4,MacIntel,60.0024001,Chrome,1440,900,,,l,1.38,10,11,0,0,1,1,10,1,0,0,0,1,0,1,0,0,star ,circle,,,,,,,,,,,,,,,,,,,,,,,,,,,,,,,,,,,,,,,,,,,,,,,,,,,,,,
296164,2022-11-27_19h49.43.069,vts_reward_expectancy_bt,2022.2.4,MacIntel,60.0024001,Chrome,1440,900,,,l,0.7994,1,12,0,0,2,2,11,1,0,0,0,1,0,0,1,0,star,hexagon,,,,,,,,,,,,,,,,,,,,,,,,,,,,,,,,,,,,,,,,,,,,,,,,,,,,,,
296164,2022-11-27_19h49.43.069,vts_reward_expectancy_bt,2022.2.4,MacIntel,60.0024001,Chrome,1440,900,,,l,0.5144,1,13,0,0,3,3,3,1,0,1,0,0,1,0,0,0,circle,triangle,,,,,,,,,,,,,,,,,,,,,,,,,,,,,,,,,,,,,,,,,,,,,,,,,,,,,,
296164,2022-11-27_19h49.43.069,vts_reward_expectancy_bt,2022.2.4,MacIntel,60.0024001,Chrome,1440,900,,,l,0.2648,10,23,0,0,4,4,0,1,1,0,0,0,0,1,0,0,triangle,circle,,,,,,,,,,,,,,,,,,,,,,,,,,,,,,,,,,,,,,,,,,,,,,,,,,,,,,
296164,2022-11-27_19h49.43.069,vts_reward_expectancy_bt,2022.2.4,MacIntel,60.0024001,Chrome,1440,900,,,a,1.6985,1,24,0,0,5,5,9,1,0,0,0,1,1,0,0,0,star,triangle,,,,,,,,,,,,,,,,,,,,,,,,,,,,,,,,,,,,,,,,,,,,,,,,,,,,,,
296164,2022-11-27_19h49.43.069,vts_reward_expectancy_bt,2022.2.4,MacIntel,60.0024001,Chrome,1440,900,,,a,0.3043,1,25,0,0,6,6,8,1,0,0,1,0,0,0,0,1,hexagon,star,,,,,,,,,,,,,,,,,,,,,,,,,,,,,,,,,,,,,,,,,,,,,,,,,,,,,,
296164,2022-11-27_19h49.43.069,vts_reward_expectancy_bt,2022.2.4,MacIntel,60.0024001,Chrome,1440,900,,,a,0.234,10,35,0,0,7,7,1,1,1,0,0,0,0,0,1,0,triangle,hexagon,,,,,,,,,,,,,,,,,,,,,,,,,,,,,,,,,,,,,,,,,,,,,,,,,,,,,,
296164,2022-11-27_19h49.43.069,vts_reward_expectancy_bt,2022.2.4,MacIntel,60.0024001,Chrome,1440,900,,,a,0.2522,10,45,0,0,8,8,2,1,1,0,0,0,0,0,0,1,triangle,star,,,,,,,,,,,,,,,,,,,,,,,,,,,,,,,,,,,,,,,,,,,,,,,,,,,,,,
296164,2022-11-27_19h49.43.069,vts_reward_expectancy_bt,2022.2.4,MacIntel,60.0024001,Chrome,1440,900,,,a,0.0314,1,46,0,0,9,9,7,1,0,0,1,0,0,1,0,0,hexagon,circle,,,,,,,,,,,,,,,,,,,,,,,,,,,,,,,,,,,,,,,,,,,,,,,,,,,,,,
296164,2022-11-27_19h49.43.069,vts_reward_expectancy_bt,2022.2.4,MacIntel,60.0024001,Chrome,1440,900,,,a,0.1519,10,56,0,0,10,10,4,1,0,1,0,0,0,0,1,0,circle,hexagon,,,,,,,,,,,,,,,,,,,,,,,,,,,,,,,,,,,,,,,,,,,,,,,,,,,,,,
296164,2022-11-27_19h49.43.069,vts_reward_expectancy_bt,2022.2.4,MacIntel,60.0024001,Chrome,1440,900,,,a,0.0004,10,66,0,0,11,11,5,1,0,1,0,0,0,0,0,1,circle,star,,,,,,,,,,,,,,,,,,,,,,,,,,,,,,,,,,,,,,,,,,,,,,,,,,,,,,
296164,2022-11-27_19h49.43.069,vts_reward_expectancy_bt,2022.2.4,MacIntel,60.0024001,Chrome,1440,900,,,a,0.0346,1,67,0,1,0,12,9,1,0,0,0,1,1,0,0,0,star,triangle,,,,,,,,,,,,,,,,,,,,,,,,,,,,,,,,,,,,,,,,,,,,,,,,,,,,,,
296164,2022-11-27_19h49.43.069,vts_reward_expectancy_bt,2022.2.4,MacIntel,60.0024001,Chrome,1440,900,,,a,0.0363,10,77,0,1,1,13,2,1,1,0,0,0,0,0,0,1,triangle,star,,,,,,,,,,,,,,,,,,,,,,,,,,,,,,,,,,,,,,,,,,,,,,,,,,,,,,
296164,2022-11-27_19h49.43.069,vts_reward_expectancy_bt,2022.2.4,MacIntel,60.0024001,Chrome,1440,900,,,a,0.4491,10,87,0,1,2,14,4,1,0,1,0,0,0,0,1,0,circle,hexagon,,,,,,,,,,,,,,,,,,,,,,,,,,,,,,,,,,,,,,,,,,,,,,,,,,,,,,
296164,2022-11-27_19h49.43.069,vts_reward_expectancy_bt,2022.2.4,MacIntel,60.0024001,Chrome,1440,900,,,a,0.3051,10,97,0,1,3,15,7,1,0,0,1,0,0,1,0,0,hexagon,circle,,,,,,,,,,,,,,,,,,,,,,,,,,,,,,,,,,,,,,,,,,,,,,,,,,,,,,
296164,2022-11-27_19h49.43.069,vts_reward_expectancy_bt,2022.2.4,MacIntel,60.0024001,Chrome,1440,900,,,a,0.2814,10,107,0,1,4,16,5,1,0,1,0,0,0,0,0,1,circle,star,,,,,,,,,,,,,,,,,,,,,,,,,,,,,,,,,,,,,,,,,,,,,,,,,,,,,,
296164,2022-11-27_19h49.43.069,vts_reward_expectancy_bt,2022.2.4,MacIntel,60.0024001,Chrome,1440,900,,,a,0.2014,1,108,0,1,5,17,3,1,0,1,0,0,1,0,0,0,circle,triangle,,,,,,,,,,,,,,,,,,,,,,,,,,,,,,,,,,,,,,,,,,,,,,,,,,,,,,
296164,2022-11-27_19h49.43.069,vts_reward_expectancy_bt,2022.2.4,MacIntel,60.0024001,Chrome,1440,900,,,a,0.5651,10,118,0,1,6,18,8,1,0,0,1,0,0,0,0,1,hexagon,star,,,,,,,,,,,,,,,,,,,,,,,,,,,,,,,,,,,,,,,,,,,,,,,,,,,,,,
296164,2022-11-27_19h49.43.069,vts_reward_expectancy_bt,2022.2.4,MacIntel,60.0024001,Chrome,1440,900,,,a,0.0359,1,119,0,1,7,19,1,1,1,0,0,0,0,0,1,0,triangle,hexagon,,,,,,,,,,,,,,,,,,,,,,,,,,,,,,,,,,,,,,,,,,,,,,,,,,,,,,
296164,2022-11-27_19h49.43.069,vts_reward_expectancy_bt,2022.2.4,MacIntel,60.0024001,Chrome,1440,900,,,a,0.3545,10,129,0,1,8,20,0,1,1,0,0,0,0,1,0,0,triangle,circle,,,,,,,,,,,,,,,,,,,,,,,,,,,,,,,,,,,,,,,,,,,,,,,,,,,,,,
296164,2022-11-27_19h49.43.069,vts_reward_expectancy_bt,2022.2.4,MacIntel,60.0024001,Chrome,1440,900,,,a,0.1044,10,139,0,1,9,21,10,1,0,0,0,1,0,1,0,0,star ,circle,,,,,,,,,,,,,,,,,,,,,,,,,,,,,,,,,,,,,,,,,,,,,,,,,,,,,,
296164,2022-11-27_19h49.43.069,vts_reward_expectancy_bt,2022.2.4,MacIntel,60.0024001,Chrome,1440,900,,,a,0.1071,10,149,0,1,10,22,6,1,0,0,1,0,1,0,0,0,hexagon,triangle,,,,,,,,,,,,,,,,,,,,,,,,,,,,,,,,,,,,,,,,,,,,,,,,,,,,,,
296164,2022-11-27_19h49.43.069,vts_reward_expectancy_bt,2022.2.4,MacIntel,60.0024001,Chrome,1440,900,,,a,0.1671,10,159,0,1,11,23,11,1,0,0,0,1,0,0,1,0,star,hexagon,,,,,,,,,,,,,,,,,,,,,,,,,,,,,,,,,,,,,,,,,,,,,,,,,,,,,,
296164,2022-11-27_19h49.43.069,vts_reward_expectancy_bt,2022.2.4,MacIntel,60.0024001,Chrome,1440,900,,,a,0.1337,10,169,0,2,0,24,8,1,0,0,1,0,0,0,0,1,hexagon,star,,,,,,,,,,,,,,,,,,,,,,,,,,,,,,,,,,,,,,,,,,,,,,,,,,,,,,
296164,2022-11-27_19h49.43.069,vts_reward_expectancy_bt,2022.2.4,MacIntel,60.0024001,Chrome,1440,900,,,a,0.1376,10,179,0,2,1,25,1,1,1,0,0,0,0,0,1,0,triangle,hexagon,,,,,,,,,,,,,,,,,,,,,,,,,,,,,,,,,,,,,,,,,,,,,,,,,,,,,,
296164,2022-11-27_19h49.43.069,vts_reward_expectancy_bt,2022.2.4,MacIntel,60.0024001,Chrome,1440,900,,,a,0.2052,10,189,0,2,2,26,9,1,0,0,0,1,1,0,0,0,star,triangle,,,,,,,,,,,,,,,,,,,,,,,,,,,,,,,,,,,,,,,,,,,,,,,,,,,,,,
296164,2022-11-27_19h49.43.069,vts_reward_expectancy_bt,2022.2.4,MacIntel,60.0024001,Chrome,1440,900,,,a,0.1167,1,190,0,2,3,27,11,1,0,0,0,1,0,0,1,0,star,hexagon,,,,,,,,,,,,,,,,,,,,,,,,,,,,,,,,,,,,,,,,,,,,,,,,,,,,,,
296164,2022-11-27_19h49.43.069,vts_reward_expectancy_bt,2022.2.4,MacIntel,60.0024001,Chrome,1440,900,,,a,0.1499,1,191,0,2,4,28,6,1,0,0,1,0,1,0,0,0,hexagon,triangle,,,,,,,,,,,,,,,,,,,,,,,,,,,,,,,,,,,,,,,,,,,,,,,,,,,,,,
296164,2022-11-27_19h49.43.069,vts_reward_expectancy_bt,2022.2.4,MacIntel,60.0024001,Chrome,1440,900,,,a,0.088,1,192,0,2,5,29,0,1,1,0,0,0,0,1,0,0,triangle,circle,,,,,,,,,,,,,,,,,,,,,,,,,,,,,,,,,,,,,,,,,,,,,,,,,,,,,,
296164,2022-11-27_19h49.43.069,vts_reward_expectancy_bt,2022.2.4,MacIntel,60.0024001,Chrome,1440,900,,,a,0.1508,1,193,0,2,6,30,7,1,0,0,1,0,0,1,0,0,hexagon,circle,,,,,,,,,,,,,,,,,,,,,,,,,,,,,,,,,,,,,,,,,,,,,,,,,,,,,,
296164,2022-11-27_19h49.43.069,vts_reward_expectancy_bt,2022.2.4,MacIntel,60.0024001,Chrome,1440,900,,,a,0.0544,1,194,0,2,7,31,4,1,0,1,0,0,0,0,1,0,circle,hexagon,,,,,,,,,,,,,,,,,,,,,,,,,,,,,,,,,,,,,,,,,,,,,,,,,,,,,,
296164,2022-11-27_19h49.43.069,vts_reward_expectancy_bt,2022.2.4,MacIntel,60.0024001,Chrome,1440,900,,,a,0.1168,1,195,0,2,8,32,10,1,0,0,0,1,0,1,0,0,star ,circle,,,,,,,,,,,,,,,,,,,,,,,,,,,,,,,,,,,,,,,,,,,,,,,,,,,,,,
296164,2022-11-27_19h49.43.069,vts_reward_expectancy_bt,2022.2.4,MacIntel,60.0024001,Chrome,1440,900,,,a,0.812,10,205,0,2,9,33,2,1,1,0,0,0,0,0,0,1,triangle,star,,,,,,,,,,,,,,,,,,,,,,,,,,,,,,,,,,,,,,,,,,,,,,,,,,,,,,
296164,2022-11-27_19h49.43.069,vts_reward_expectancy_bt,2022.2.4,MacIntel,60.0024001,Chrome,1440,900,,,l,0.0015,10,215,0,2,10,34,3,1,0,1,0,0,1,0,0,0,circle,triangle,,,,,,,,,,,,,,,,,,,,,,,,,,,,,,,,,,,,,,,,,,,,,,,,,,,,,,
296164,2022-11-27_19h49.43.069,vts_reward_expectancy_bt,2022.2.4,MacIntel,60.0024001,Chrome,1440,900,,,l,0.0005,1,216,0,2,11,35,5,1,0,1,0,0,0,0,0,1,circle,star,,,,,,,,,,,,,,,,,,,,,,,,,,,,,,,,,,,,,,,,,,,,,,,,,,,,,,
296164,2022-11-27_19h49.43.069,vts_reward_expectancy_bt,2022.2.4,MacIntel,60.0024001,Chrome,1440,900,,,l,0.312,10,226,1,0,0,0,9,1,0,0,0,1,1,0,0,0,star,triangle,,,,,,,,,,,,,,,,,,,,,,,,,,,,,,,,,,,,,,,,,,,,,,,,,,,,,,
296164,2022-11-27_19h49.43.069,vts_reward_expectancy_bt,2022.2.4,MacIntel,60.0024001,Chrome,1440,900,,,l,0.0999,10,236,1,0,1,1,2,1,1,0,0,0,0,0,0,1,triangle,star,,,,,,,,,,,,,,,,,,,,,,,,,,,,,,,,,,,,,,,,,,,,,,,,,,,,,,
296164,2022-11-27_19h49.43.069,vts_reward_expectancy_bt,2022.2.4,MacIntel,60.0024001,Chrome,1440,900,,,l,0.9865,10,246,1,0,2,2,1,1,1,0,0,0,0,0,1,0,triangle,hexagon,,,,,,,,,,,,,,,,,,,,,,,,,,,,,,,,,,,,,,,,,,,,,,,,,,,,,,
296164,2022-11-27_19h49.43.069,vts_reward_expectancy_bt,2022.2.4,MacIntel,60.0024001,Chrome,1440,900,,,l,0.0896,1,247,1,0,3,3,7,1,0,0,1,0,0,1,0,0,hexagon,circle,,,,,,,,,,,,,,,,,,,,,,,,,,,,,,,,,,,,,,,,,,,,,,,,,,,,,,
296164,2022-11-27_19h49.43.069,vts_reward_expectancy_bt,2022.2.4,MacIntel,60.0024001,Chrome,1440,900,,,l,0.5188,10,257,1,0,4,4,4,1,0,1,0,0,0,0,1,0,circle,hexagon,,,,,,,,,,,,,,,,,,,,,,,,,,,,,,,,,,,,,,,,,,,,,,,,,,,,,,
296164,2022-11-27_19h49.43.069,vts_reward_expectancy_bt,2022.2.4,MacIntel,60.0024001,Chrome,1440,900,,,l,0.0912,1,258,1,0,5,5,5,1,0,1,0,0,0,0,0,1,circle,star,,,,,,,,,,,,,,,,,,,,,,,,,,,,,,,,,,,,,,,,,,,,,,,,,,,,,,
296164,2022-11-27_19h49.43.069,vts_reward_expectancy_bt,2022.2.4,MacIntel,60.0024001,Chrome,1440,900,,,l,0.2331,1,259,1,0,6,6,10,1,0,0,0,1,0,1,0,0,star ,circle,,,,,,,,,,,,,,,,,,,,,,,,,,,,,,,,,,,,,,,,,,,,,,,,,,,,,,
296164,2022-11-27_19h49.43.069,vts_reward_expectancy_bt,2022.2.4,MacIntel,60.0024001,Chrome,1440,900,,,l,0.0881,1,260,1,0,7,7,0,1,1,0,0,0,0,1,0,0,triangle,circle,,,,,,,,,,,,,,,,,,,,,,,,,,,,,,,,,,,,,,,,,,,,,,,,,,,,,,
296164,2022-11-27_19h49.43.069,vts_reward_expectancy_bt,2022.2.4,MacIntel,60.0024001,Chrome,1440,900,,,l,0.7819,10,270,1,0,8,8,11,1,0,0,0,1,0,0,1,0,star,hexagon,,,,,,,,,,,,,,,,,,,,,,,,,,,,,,,,,,,,,,,,,,,,,,,,,,,,,,
296164,2022-11-27_19h49.43.069,vts_reward_expectancy_bt,2022.2.4,MacIntel,60.0024001,Chrome,1440,900,,,l,0.1169,1,271,1,0,9,9,3,1,0,1,0,0,1,0,0,0,circle,triangle,,,,,,,,,,,,,,,,,,,,,,,,,,,,,,,,,,,,,,,,,,,,,,,,,,,,,,
296164,2022-11-27_19h49.43.069,vts_reward_expectancy_bt,2022.2.4,MacIntel,60.0024001,Chrome,1440,900,,,l,0.5733,1,272,1,0,10,10,6,1,0,0,1,0,1,0,0,0,hexagon,triangle,,,,,,,,,,,,,,,,,,,,,,,,,,,,,,,,,,,,,,,,,,,,,,,,,,,,,,
296164,2022-11-27_19h49.43.069,vts_reward_expectancy_bt,2022.2.4,MacIntel,60.0024001,Chrome,1440,900,,,l,0.9588,1,273,1,0,11,11,8,1,0,0,1,0,0,0,0,1,hexagon,star,,,,,,,,,,,,,,,,,,,,,,,,,,,,,,,,,,,,,,,,,,,,,,,,,,,,,,
296164,2022-11-27_19h49.43.069,vts_reward_expectancy_bt,2022.2.4,MacIntel,60.0024001,Chrome,1440,900,,,l,1.6161,10,283,1,1,0,12,10,1,0,0,0,1,0,1,0,0,star ,circle,,,,,,,,,,,,,,,,,,,,,,,,,,,,,,,,,,,,,,,,,,,,,,,,,,,,,,
296164,2022-11-27_19h49.43.069,vts_reward_expectancy_bt,2022.2.4,MacIntel,60.0024001,Chrome,1440,900,,,l,0.1014,1,284,1,1,1,13,7,1,0,0,1,0,0,1,0,0,hexagon,circle,,,,,,,,,,,,,,,,,,,,,,,,,,,,,,,,,,,,,,,,,,,,,,,,,,,,,,
296164,2022-11-27_19h49.43.069,vts_reward_expectancy_bt,2022.2.4,MacIntel,60.0024001,Chrome,1440,900,,,a,0.4152,1,285,1,1,2,14,8,1,0,0,1,0,0,0,0,1,hexagon,star,,,,,,,,,,,,,,,,,,,,,,,,,,,,,,,,,,,,,,,,,,,,,,,,,,,,,,
296164,2022-11-27_19h49.43.069,vts_reward_expectancy_bt,2022.2.4,MacIntel,60.0024001,Chrome,1440,900,,,a,0.0479,10,295,1,1,3,15,0,1,1,0,0,0,0,1,0,0,triangle,circle,,,,,,,,,,,,,,,,,,,,,,,,,,,,,,,,,,,,,,,,,,,,,,,,,,,,,,
296164,2022-11-27_19h49.43.069,vts_reward_expectancy_bt,2022.2.4,MacIntel,60.0024001,Chrome,1440,900,,,a,0.9174,10,305,1,1,4,16,1,1,1,0,0,0,0,0,1,0,triangle,hexagon,,,,,,,,,,,,,,,,,,,,,,,,,,,,,,,,,,,,,,,,,,,,,,,,,,,,,,
296164,2022-11-27_19h49.43.069,vts_reward_expectancy_bt,2022.2.4,MacIntel,60.0024001,Chrome,1440,900,,,a,0.0431,10,315,1,1,5,17,6,1,0,0,1,0,1,0,0,0,hexagon,triangle,,,,,,,,,,,,,,,,,,,,,,,,,,,,,,,,,,,,,,,,,,,,,,,,,,,,,,
296164,2022-11-27_19h49.43.069,vts_reward_expectancy_bt,2022.2.4,MacIntel,60.0024001,Chrome,1440,900,,,a,0.1161,10,325,1,1,6,18,11,1,0,0,0,1,0,0,1,0,star,hexagon,,,,,,,,,,,,,,,,,,,,,,,,,,,,,,,,,,,,,,,,,,,,,,,,,,,,,,
296164,2022-11-27_19h49.43.069,vts_reward_expectancy_bt,2022.2.4,MacIntel,60.0024001,Chrome,1440,900,,,a,0.0184,10,335,1,1,7,19,2,1,1,0,0,0,0,0,0,1,triangle,star,,,,,,,,,,,,,,,,,,,,,,,,,,,,,,,,,,,,,,,,,,,,,,,,,,,,,,
296164,2022-11-27_19h49.43.069,vts_reward_expectancy_bt,2022.2.4,MacIntel,60.0024001,Chrome,1440,900,,,a,0.183,1,336,1,1,8,20,3,1,0,1,0,0,1,0,0,0,circle,triangle,,,,,,,,,,,,,,,,,,,,,,,,,,,,,,,,,,,,,,,,,,,,,,,,,,,,,,
296164,2022-11-27_19h49.43.069,vts_reward_expectancy_bt,2022.2.4,MacIntel,60.0024001,Chrome,1440,900,,,a,0.0872,10,346,1,1,9,21,9,1,0,0,0,1,1,0,0,0,star,triangle,,,,,,,,,,,,,,,,,,,,,,,,,,,,,,,,,,,,,,,,,,,,,,,,,,,,,,
296164,2022-11-27_19h49.43.069,vts_reward_expectancy_bt,2022.2.4,MacIntel,60.0024001,Chrome,1440,900,,,a,0.1175,1,347,1,1,10,22,5,1,0,1,0,0,0,0,0,1,circle,star,,,,,,,,,,,,,,,,,,,,,,,,,,,,,,,,,,,,,,,,,,,,,,,,,,,,,,
296164,2022-11-27_19h49.43.069,vts_reward_expectancy_bt,2022.2.4,MacIntel,60.0024001,Chrome,1440,900,,,a,0.117,10,357,1,1,11,23,4,1,0,1,0,0,0,0,1,0,circle,hexagon,,,,,,,,,,,,,,,,,,,,,,,,,,,,,,,,,,,,,,,,,,,,,,,,,,,,,,
296164,2022-11-27_19h49.43.069,vts_reward_expectancy_bt,2022.2.4,MacIntel,60.0024001,Chrome,1440,900,,,a,0.1889,10,367,1,2,0,24,10,1,0,0,0,1,0,1,0,0,star ,circle,,,,,,,,,,,,,,,,,,,,,,,,,,,,,,,,,,,,,,,,,,,,,,,,,,,,,,
296164,2022-11-27_19h49.43.069,vts_reward_expectancy_bt,2022.2.4,MacIntel,60.0024001,Chrome,1440,900,,,a,0.0685,10,377,1,2,1,25,6,1,0,0,1,0,1,0,0,0,hexagon,triangle,,,,,,,,,,,,,,,,,,,,,,,,,,,,,,,,,,,,,,,,,,,,,,,,,,,,,,
296164,2022-11-27_19h49.43.069,vts_reward_expectancy_bt,2022.2.4,MacIntel,60.0024001,Chrome,1440,900,,,a,0.3485,1,378,1,2,2,26,7,1,0,0,1,0,0,1,0,0,hexagon,circle,,,,,,,,,,,,,,,,,,,,,,,,,,,,,,,,,,,,,,,,,,,,,,,,,,,,,,
296164,2022-11-27_19h49.43.069,vts_reward_expectancy_bt,2022.2.4,MacIntel,60.0024001,Chrome,1440,900,,,a,0.1365,1,379,1,2,3,27,0,1,1,0,0,0,0,1,0,0,triangle,circle,,,,,,,,,,,,,,,,,,,,,,,,,,,,,,,,,,,,,,,,,,,,,,,,,,,,,,
296164,2022-11-27_19h49.43.069,vts_reward_expectancy_bt,2022.2.4,MacIntel,60.0024001,Chrome,1440,900,,,a,0.1775,10,389,1,2,4,28,2,1,1,0,0,0,0,0,0,1,triangle,star,,,,,,,,,,,,,,,,,,,,,,,,,,,,,,,,,,,,,,,,,,,,,,,,,,,,,,
296164,2022-11-27_19h49.43.069,vts_reward_expectancy_bt,2022.2.4,MacIntel,60.0024001,Chrome,1440,900,,,a,0.0637,10,399,1,2,5,29,5,1,0,1,0,0,0,0,0,1,circle,star,,,,,,,,,,,,,,,,,,,,,,,,,,,,,,,,,,,,,,,,,,,,,,,,,,,,,,
296164,2022-11-27_19h49.43.069,vts_reward_expectancy_bt,2022.2.4,MacIntel,60.0024001,Chrome,1440,900,,,a,0.152,10,409,1,2,6,30,11,1,0,0,0,1,0,0,1,0,star,hexagon,,,,,,,,,,,,,,,,,,,,,,,,,,,,,,,,,,,,,,,,,,,,,,,,,,,,,,
296164,2022-11-27_19h49.43.069,vts_reward_expectancy_bt,2022.2.4,MacIntel,60.0024001,Chrome,1440,900,,,a,0.1149,10,419,1,2,7,31,4,1,0,1,0,0,0,0,1,0,circle,hexagon,,,,,,,,,,,,,,,,,,,,,,,,,,,,,,,,,,,,,,,,,,,,,,,,,,,,,,
296164,2022-11-27_19h49.43.069,vts_reward_expectancy_bt,2022.2.4,MacIntel,60.0024001,Chrome,1440,900,,,a,0.1043,1,420,1,2,8,32,3,1,0,1,0,0,1,0,0,0,circle,triangle,,,,,,,,,,,,,,,,,,,,,,,,,,,,,,,,,,,,,,,,,,,,,,,,,,,,,,
296164,2022-11-27_19h49.43.069,vts_reward_expectancy_bt,2022.2.4,MacIntel,60.0024001,Chrome,1440,900,,,a,0.0279,1,421,1,2,9,33,9,1,0,0,0,1,1,0,0,0,star,triangle,,,,,,,,,,,,,,,,,,,,,,,,,,,,,,,,,,,,,,,,,,,,,,,,,,,,,,
296164,2022-11-27_19h49.43.069,vts_reward_expectancy_bt,2022.2.4,MacIntel,60.0024001,Chrome,1440,900,,,a,0.2336,10,431,1,2,10,34,1,1,1,0,0,0,0,0,1,0,triangle,hexagon,,,,,,,,,,,,,,,,,,,,,,,,,,,,,,,,,,,,,,,,,,,,,,,,,,,,,,
296164,2022-11-27_19h49.43.069,vts_reward_expectancy_bt,2022.2.4,MacIntel,60.0024001,Chrome,1440,900,,,a,0.1858,1,432,1,2,11,35,8,1,0,0,1,0,0,0,0,1,hexagon,star,,,,,,,,,,,,,,,,,,,,,,,,,,,,,,,,,,,,,,,,,,,,,,,,,,,,,,
296164,2022-11-27_19h49.43.069,vts_reward_expectancy_bt,2022.2.4,MacIntel,60.0024001,Chrome,1440,900,,,a,0.651,1,433,2,0,0,0,9,1,0,0,0,1,1,0,0,0,star,triangle,,,,,,,,,,,,,,,,,,,,,,,,,,,,,,,,,,,,,,,,,,,,,,,,,,,,,,
296164,2022-11-27_19h49.43.069,vts_reward_expectancy_bt,2022.2.4,MacIntel,60.0024001,Chrome,1440,900,,,a,0.0326,1,434,2,0,1,1,8,1,0,0,1,0,0,0,0,1,hexagon,star,,,,,,,,,,,,,,,,,,,,,,,,,,,,,,,,,,,,,,,,,,,,,,,,,,,,,,
296164,2022-11-27_19h49.43.069,vts_reward_expectancy_bt,2022.2.4,MacIntel,60.0024001,Chrome,1440,900,,,a,0.1813,10,444,2,0,2,2,5,1,0,1,0,0,0,0,0,1,circle,star,,,,,,,,,,,,,,,,,,,,,,,,,,,,,,,,,,,,,,,,,,,,,,,,,,,,,,
296164,2022-11-27_19h49.43.069,vts_reward_expectancy_bt,2022.2.4,MacIntel,60.0024001,Chrome,1440,900,,,a,0.2002,1,445,2,0,3,3,4,1,0,1,0,0,0,0,1,0,circle,hexagon,,,,,,,,,,,,,,,,,,,,,,,,,,,,,,,,,,,,,,,,,,,,,,,,,,,,,,
296164,2022-11-27_19h49.43.069,vts_reward_expectancy_bt,2022.2.4,MacIntel,60.0024001,Chrome,1440,900,,,a,0.1659,1,446,2,0,4,4,2,1,1,0,0,0,0,0,0,1,triangle,star,,,,,,,,,,,,,,,,,,,,,,,,,,,,,,,,,,,,,,,,,,,,,,,,,,,,,,
296164,2022-11-27_19h49.43.069,vts_reward_expectancy_bt,2022.2.4,MacIntel,60.0024001,Chrome,1440,900,,,a,0.1028,10,456,2,0,5,5,1,1,1,0,0,0,0,0,1,0,triangle,hexagon,,,,,,,,,,,,,,,,,,,,,,,,,,,,,,,,,,,,,,,,,,,,,,,,,,,,,,
296164,2022-11-27_19h49.43.069,vts_reward_expectancy_bt,2022.2.4,MacIntel,60.0024001,Chrome,1440,900,,,a,0.1416,1,457,2,0,6,6,7,1,0,0,1,0,0,1,0,0,hexagon,circle,,,,,,,,,,,,,,,,,,,,,,,,,,,,,,,,,,,,,,,,,,,,,,,,,,,,,,
296164,2022-11-27_19h49.43.069,vts_reward_expectancy_bt,2022.2.4,MacIntel,60.0024001,Chrome,1440,900,,,l,0.2854,10,467,2,0,7,7,0,1,1,0,0,0,0,1,0,0,triangle,circle,,,,,,,,,,,,,,,,,,,,,,,,,,,,,,,,,,,,,,,,,,,,,,,,,,,,,,
296164,2022-11-27_19h49.43.069,vts_reward_expectancy_bt,2022.2.4,MacIntel,60.0024001,Chrome,1440,900,,,l,1.1061,10,477,2,0,8,8,6,1,0,0,1,0,1,0,0,0,hexagon,triangle,,,,,,,,,,,,,,,,,,,,,,,,,,,,,,,,,,,,,,,,,,,,,,,,,,,,,,
296164,2022-11-27_19h49.43.069,vts_reward_expectancy_bt,2022.2.4,MacIntel,60.0024001,Chrome,1440,900,,,l,0.1206,10,487,2,0,9,9,3,1,0,1,0,0,1,0,0,0,circle,triangle,,,,,,,,,,,,,,,,,,,,,,,,,,,,,,,,,,,,,,,,,,,,,,,,,,,,,,
296164,2022-11-27_19h49.43.069,vts_reward_expectancy_bt,2022.2.4,MacIntel,60.0024001,Chrome,1440,900,,,l,0.2037,10,497,2,0,10,10,10,1,0,0,0,1,0,1,0,0,star ,circle,,,,,,,,,,,,,,,,,,,,,,,,,,,,,,,,,,,,,,,,,,,,,,,,,,,,,,
296164,2022-11-27_19h49.43.069,vts_reward_expectancy_bt,2022.2.4,MacIntel,60.0024001,Chrome,1440,900,,,a,0.412,10,507,2,0,11,11,11,1,0,0,0,1,0,0,1,0,star,hexagon,,,,,,,,,,,,,,,,,,,,,,,,,,,,,,,,,,,,,,,,,,,,,,,,,,,,,,
296164,2022-11-27_19h49.43.069,vts_reward_expectancy_bt,2022.2.4,MacIntel,60.0024001,Chrome,1440,900,,,a,0.3236,10,517,2,1,0,12,9,1,0,0,0,1,1,0,0,0,star,triangle,,,,,,,,,,,,,,,,,,,,,,,,,,,,,,,,,,,,,,,,,,,,,,,,,,,,,,
296164,2022-11-27_19h49.43.069,vts_reward_expectancy_bt,2022.2.4,MacIntel,60.0024001,Chrome,1440,900,,,a,0.189,10,527,2,1,1,13,6,1,0,0,1,0,1,0,0,0,hexagon,triangle,,,,,,,,,,,,,,,,,,,,,,,,,,,,,,,,,,,,,,,,,,,,,,,,,,,,,,
296164,2022-11-27_19h49.43.069,vts_reward_expectancy_bt,2022.2.4,MacIntel,60.0024001,Chrome,1440,900,,,a,0.0682,10,537,2,1,2,14,11,1,0,0,0,1,0,0,1,0,star,hexagon,,,,,,,,,,,,,,,,,,,,,,,,,,,,,,,,,,,,,,,,,,,,,,,,,,,,,,
296164,2022-11-27_19h49.43.069,vts_reward_expectancy_bt,2022.2.4,MacIntel,60.0024001,Chrome,1440,900,,,a,0.2186,10,547,2,1,3,15,0,1,1,0,0,0,0,1,0,0,triangle,circle,,,,,,,,,,,,,,,,,,,,,,,,,,,,,,,,,,,,,,,,,,,,,,,,,,,,,,
296164,2022-11-27_19h49.43.069,vts_reward_expectancy_bt,2022.2.4,MacIntel,60.0024001,Chrome,1440,900,,,a,0.2678,10,557,2,1,4,16,3,1,0,1,0,0,1,0,0,0,circle,triangle,,,,,,,,,,,,,,,,,,,,,,,,,,,,,,,,,,,,,,,,,,,,,,,,,,,,,,
296164,2022-11-27_19h49.43.069,vts_reward_expectancy_bt,2022.2.4,MacIntel,60.0024001,Chrome,1440,900,,,a,0.2004,10,567,2,1,5,17,4,1,0,1,0,0,0,0,1,0,circle,hexagon,,,,,,,,,,,,,,,,,,,,,,,,,,,,,,,,,,,,,,,,,,,,,,,,,,,,,,
296164,2022-11-27_19h49.43.069,vts_reward_expectancy_bt,2022.2.4,MacIntel,60.0024001,Chrome,1440,900,,,a,0.0624,10,577,2,1,6,18,2,1,1,0,0,0,0,0,0,1,triangle,star,,,,,,,,,,,,,,,,,,,,,,,,,,,,,,,,,,,,,,,,,,,,,,,,,,,,,,
296164,2022-11-27_19h49.43.069,vts_reward_expectancy_bt,2022.2.4,MacIntel,60.0024001,Chrome,1440,900,,,a,0.1861,10,587,2,1,7,19,8,1,0,0,1,0,0,0,0,1,hexagon,star,,,,,,,,,,,,,,,,,,,,,,,,,,,,,,,,,,,,,,,,,,,,,,,,,,,,,,
296164,2022-11-27_19h49.43.069,vts_reward_expectancy_bt,2022.2.4,MacIntel,60.0024001,Chrome,1440,900,,,a,0.1535,1,588,2,1,8,20,5,1,0,1,0,0,0,0,0,1,circle,star,,,,,,,,,,,,,,,,,,,,,,,,,,,,,,,,,,,,,,,,,,,,,,,,,,,,,,
296164,2022-11-27_19h49.43.069,vts_reward_expectancy_bt,2022.2.4,MacIntel,60.0024001,Chrome,1440,900,,,a,0.0176,1,589,2,1,9,21,1,1,1,0,0,0,0,0,1,0,triangle,hexagon,,,,,,,,,,,,,,,,,,,,,,,,,,,,,,,,,,,,,,,,,,,,,,,,,,,,,,
296164,2022-11-27_19h49.43.069,vts_reward_expectancy_bt,2022.2.4,MacIntel,60.0024001,Chrome,1440,900,,,a,0.1415,1,590,2,1,10,22,10,1,0,0,0,1,0,1,0,0,star ,circle,,,,,,,,,,,,,,,,,,,,,,,,,,,,,,,,,,,,,,,,,,,,,,,,,,,,,,
296164,2022-11-27_19h49.43.069,vts_reward_expectancy_bt,2022.2.4,MacIntel,60.0024001,Chrome,1440,900,,,a,0.1181,10,600,2,1,11,23,7,1,0,0,1,0,0,1,0,0,hexagon,circle,,,,,,,,,,,,,,,,,,,,,,,,,,,,,,,,,,,,,,,,,,,,,,,,,,,,,,
296164,2022-11-27_19h49.43.069,vts_reward_expectancy_bt,2022.2.4,MacIntel,60.0024001,Chrome,1440,900,,,a,0.1689,10,610,2,2,0,24,2,1,1,0,0,0,0,0,0,1,triangle,star,,,,,,,,,,,,,,,,,,,,,,,,,,,,,,,,,,,,,,,,,,,,,,,,,,,,,,
296164,2022-11-27_19h49.43.069,vts_reward_expectancy_bt,2022.2.4,MacIntel,60.0024001,Chrome,1440,900,,,a,0.0386,1,611,2,2,1,25,7,1,0,0,1,0,0,1,0,0,hexagon,circle,,,,,,,,,,,,,,,,,,,,,,,,,,,,,,,,,,,,,,,,,,,,,,,,,,,,,,
296164,2022-11-27_19h49.43.069,vts_reward_expectancy_bt,2022.2.4,MacIntel,60.0024001,Chrome,1440,900,,,a,0.0577,10,621,2,2,2,26,0,1,1,0,0,0,0,1,0,0,triangle,circle,,,,,,,,,,,,,,,,,,,,,,,,,,,,,,,,,,,,,,,,,,,,,,,,,,,,,,
296164,2022-11-27_19h49.43.069,vts_reward_expectancy_bt,2022.2.4,MacIntel,60.0024001,Chrome,1440,900,,,a,0.1844,10,631,2,2,3,27,8,1,0,0,1,0,0,0,0,1,hexagon,star,,,,,,,,,,,,,,,,,,,,,,,,,,,,,,,,,,,,,,,,,,,,,,,,,,,,,,
296164,2022-11-27_19h49.43.069,vts_reward_expectancy_bt,2022.2.4,MacIntel,60.0024001,Chrome,1440,900,,,a,0.202,1,632,2,2,4,28,3,1,0,1,0,0,1,0,0,0,circle,triangle,,,,,,,,,,,,,,,,,,,,,,,,,,,,,,,,,,,,,,,,,,,,,,,,,,,,,,
296164,2022-11-27_19h49.43.069,vts_reward_expectancy_bt,2022.2.4,MacIntel,60.0024001,Chrome,1440,900,,,a,0.1021,1,633,2,2,5,29,11,1,0,0,0,1,0,0,1,0,star,hexagon,,,,,,,,,,,,,,,,,,,,,,,,,,,,,,,,,,,,,,,,,,,,,,,,,,,,,,
296164,2022-11-27_19h49.43.069,vts_reward_expectancy_bt,2022.2.4,MacIntel,60.0024001,Chrome,1440,900,,,a,0.2037,1,634,2,2,6,30,5,1,0,1,0,0,0,0,0,1,circle,star,,,,,,,,,,,,,,,,,,,,,,,,,,,,,,,,,,,,,,,,,,,,,,,,,,,,,,
296164,2022-11-27_19h49.43.069,vts_reward_expectancy_bt,2022.2.4,MacIntel,60.0024001,Chrome,1440,900,,,a,0.2021,10,644,2,2,7,31,4,1,0,1,0,0,0,0,1,0,circle,hexagon,,,,,,,,,,,,,,,,,,,,,,,,,,,,,,,,,,,,,,,,,,,,,,,,,,,,,,
296164,2022-11-27_19h49.43.069,vts_reward_expectancy_bt,2022.2.4,MacIntel,60.0024001,Chrome,1440,900,,,a,0.2186,10,654,2,2,8,32,10,1,0,0,0,1,0,1,0,0,star ,circle,,,,,,,,,,,,,,,,,,,,,,,,,,,,,,,,,,,,,,,,,,,,,,,,,,,,,,
296164,2022-11-27_19h49.43.069,vts_reward_expectancy_bt,2022.2.4,MacIntel,60.0024001,Chrome,1440,900,,,a,0.338,1,655,2,2,9,33,1,1,1,0,0,0,0,0,1,0,triangle,hexagon,,,,,,,,,,,,,,,,,,,,,,,,,,,,,,,,,,,,,,,,,,,,,,,,,,,,,,
296164,2022-11-27_19h49.43.069,vts_reward_expectancy_bt,2022.2.4,MacIntel,60.0024001,Chrome,1440,900,,,a,0.1185,10,665,2,2,10,34,6,1,0,0,1,0,1,0,0,0,hexagon,triangle,,,,,,,,,,,,,,,,,,,,,,,,,,,,,,,,,,,,,,,,,,,,,,,,,,,,,,
296164,2022-11-27_19h49.43.069,vts_reward_expectancy_bt,2022.2.4,MacIntel,60.0024001,Chrome,1440,900,,,a,0.1579,10,675,2,2,11,35,9,1,0,0,0,1,1,0,0,0,star,triangle,,,,,,,,,,,,,,,,,,,,,,,,,,,,,,,,,,,,,,,,,,,,,,,,,,,,,,
296164,2022-11-27_19h49.43.069,vts_reward_expectancy_bt,2022.2.4,MacIntel,60.0024001,Chrome,1440,900,,,,,,,,,,,,,,,,,,,,,,,160,B,star,1,0,f,0.5974,0,0,0,0,0,1,,,,,,,,,,,,,,,,,,,,,,,,,,,,,,,,,,,,,,,,,
296164,2022-11-27_19h49.43.069,vts_reward_expectancy_bt,2022.2.4,MacIntel,60.0024001,Chrome,1440,900,,,,,,,,,,,,,,,,,,,,,,,146,F,hexagon,1,0,d,0.6988,0,1,0,1,0,1,,,,,,,,,,,,,,,,,,,,,,,,,,,,,,,,,,,,,,,,,
296164,2022-11-27_19h49.43.069,vts_reward_expectancy_bt,2022.2.4,MacIntel,60.0024001,Chrome,1440,900,,,,,,,,,,,,,,,,,,,,,,,181,W,triangle,1,0,f,0.5136,0,2,0,2,0,1,,,,,,,,,,,,,,,,,,,,,,,,,,,,,,,,,,,,,,,,,
296164,2022-11-27_19h49.43.069,vts_reward_expectancy_bt,2022.2.4,MacIntel,60.0024001,Chrome,1440,900,,,,,,,,,,,,,,,,,,,,,,,167,Y,circle,1,0,f,0.5454,0,3,0,3,0,1,,,,,,,,,,,,,,,,,,,,,,,,,,,,,,,,,,,,,,,,,
296164,2022-11-27_19h49.43.069,vts_reward_expectancy_bt,2022.2.4,MacIntel,60.0024001,Chrome,1440,900,,,,,,,,,,,,,,,,,,,,,,,132,D,star,1,0,d,0.5145,0,4,0,4,0,1,,,,,,,,,,,,,,,,,,,,,,,,,,,,,,,,,,,,,,,,,
296164,2022-11-27_19h49.43.069,vts_reward_expectancy_bt,2022.2.4,MacIntel,60.0024001,Chrome,1440,900,,,,,,,,,,,,,,,,,,,,,,,139,S,hexagon,1,0,d,0.98,0,5,0,5,0,1,,,,,,,,,,,,,,,,,,,,,,,,,,,,,,,,,,,,,,,,,
296164,2022-11-27_19h49.43.069,vts_reward_expectancy_bt,2022.2.4,MacIntel,60.0024001,Chrome,1440,900,,,,,,,,,,,,,,,,,,,,,,,125,U,triangle,1,0,d,0.5292,0,6,0,6,0,1,,,,,,,,,,,,,,,,,,,,,,,,,,,,,,,,,,,,,,,,,
296164,2022-11-27_19h49.43.069,vts_reward_expectancy_bt,2022.2.4,MacIntel,60.0024001,Chrome,1440,900,,,,,,,,,,,,,,,,,,,,,,,174,H,circle,1,0,f,0.5002,0,7,0,7,0,1,,,,,,,,,,,,,,,,,,,,,,,,,,,,,,,,,,,,,,,,,
296164,2022-11-27_19h49.43.069,vts_reward_expectancy_bt,2022.2.4,MacIntel,60.0024001,Chrome,1440,900,,,,,,,,,,,,,,,,,,,,,,,160,B,hexagon,1,0,f,1.0487,0,8,0,8,0,1,,,,,,,,,,,,,,,,,,,,,,,,,,,,,,,,,,,,,,,,,
296164,2022-11-27_19h49.43.069,vts_reward_expectancy_bt,2022.2.4,MacIntel,60.0024001,Chrome,1440,900,,,,,,,,,,,,,,,,,,,,,,,146,F,circle,1,0,d,0.5008,0,9,0,9,0,1,,,,,,,,,,,,,,,,,,,,,,,,,,,,,,,,,,,,,,,,,
296164,2022-11-27_19h49.43.069,vts_reward_expectancy_bt,2022.2.4,MacIntel,60.0024001,Chrome,1440,900,,,,,,,,,,,,,,,,,,,,,,,160,B,triangle,1,0,,,1,,,,,,j,0.8353,0,0,0,0,1,,,,,,,,,,,,,,,,,,,,,,,,,,,,,,,,,,
296164,2022-11-27_19h49.43.069,vts_reward_expectancy_bt,2022.2.4,MacIntel,60.0024001,Chrome,1440,900,,,,,,,,,,,,,,,,,,,,,,,125,U,circle,1,0,,,1,,,,,,k,0.6301,1,0,1,0,1,,,,,,,,,,,,,,,,,,,,,,,,,,,,,,,,,,
296164,2022-11-27_19h49.43.069,vts_reward_expectancy_bt,2022.2.4,MacIntel,60.0024001,Chrome,1440,900,,,,,,,,,,,,,,,,,,,,,,,181,S,hexagon,1,0,,,1,,,,,,k,0.4988,2,0,2,0,1,,,,,,,,,,,,,,,,,,,,,,,,,,,,,,,,,,
296164,2022-11-27_19h49.43.069,vts_reward_expectancy_bt,2022.2.4,MacIntel,60.0024001,Chrome,1440,900,,,,,,,,,,,,,,,,,,,,,,,139,F,star,1,0,,,1,,,,,,j,0.5972,3,0,3,0,1,,,,,,,,,,,,,,,,,,,,,,,,,,,,,,,,,,
296164,2022-11-27_19h49.43.069,vts_reward_expectancy_bt,2022.2.4,MacIntel,60.0024001,Chrome,1440,900,,,,,,,,,,,,,,,,,,,,,,,174,Y,triangle,1,0,,,1,,,,,,k,0.4701,4,0,4,0,1,,,,,,,,,,,,,,,,,,,,,,,,,,,,,,,,,,
296164,2022-11-27_19h49.43.069,vts_reward_expectancy_bt,2022.2.4,MacIntel,60.0024001,Chrome,1440,900,,,,,,,,,,,,,,,,,,,,,,,132,H,circle,1,0,,,1,,,,,,j,0.5811,5,0,5,0,1,,,,,,,,,,,,,,,,,,,,,,,,,,,,,,,,,,
296164,2022-11-27_19h49.43.069,vts_reward_expectancy_bt,2022.2.4,MacIntel,60.0024001,Chrome,1440,900,,,,,,,,,,,,,,,,,,,,,,,167,D,hexagon,1,0,,,1,,,,,,j,0.465,6,0,6,0,1,,,,,,,,,,,,,,,,,,,,,,,,,,,,,,,,,,
296164,2022-11-27_19h49.43.069,vts_reward_expectancy_bt,2022.2.4,MacIntel,60.0024001,Chrome,1440,900,,,,,,,,,,,,,,,,,,,,,,,146,W,star,1,0,,,1,,,,,,k,0.4979,7,0,7,0,1,,,,,,,,,,,,,,,,,,,,,,,,,,,,,,,,,,
296164,2022-11-27_19h49.43.069,vts_reward_expectancy_bt,2022.2.4,MacIntel,60.0024001,Chrome,1440,900,,,,,,,,,,,,,,,,,,,,,,,160,B,hexagon,1,0,,,1,,,,,,j,0.4497,8,0,8,0,1,,,,,,,,,,,,,,,,,,,,,,,,,,,,,,,,,,
296164,2022-11-27_19h49.43.069,vts_reward_expectancy_bt,2022.2.4,MacIntel,60.0024001,Chrome,1440,900,,,,,,,,,,,,,,,,,,,,,,,125,U,star,1,0,,,1,,,,,,k,0.4707,9,0,9,0,1,,,,,,,,,,,,,,,,,,,,,,,,,,,,,,,,,,
296164,2022-11-27_19h49.43.069,vts_reward_expectancy_bt,2022.2.4,MacIntel,60.0024001,Chrome,1440,900,,,,,0,675,,,,,,,,,,,,,,,,,160,F,triangle,1,0,,,2,,,,,,,,,,,,,-1,letter,NA,j,1.2983,vtsPrac,0,0,0,0,1,,,,,,,,,,,,,,,,,,,,,,,
296164,2022-11-27_19h49.43.069,vts_reward_expectancy_bt,2022.2.4,MacIntel,60.0024001,Chrome,1440,900,,,,,0,675,,,,,,,,,,,,,,,,,181,W,star,1,0,,,2,,,,,,,,,,,,,repeat,letter,lettRpt,k,1.0655,vtsPrac,1,0,1,0,1,,,,,,,,,,,,,,,,,,,,,,,
296164,2022-11-27_19h49.43.069,vts_reward_expectancy_bt,2022.2.4,MacIntel,60.0024001,Chrome,1440,900,,,,,0,675,,,,,,,,,,,,,,,,,146,Y,triangle,1,0,,,2,,,,,,,,,,,,,repeat,letter,lettRpt,k,0.7833,vtsPrac,2,0,2,0,1,,,,,,,,,,,,,,,,,,,,,,,
296164,2022-11-27_19h49.43.069,vts_reward_expectancy_bt,2022.2.4,MacIntel,60.0024001,Chrome,1440,900,,,,,0,675,,,,,,,,,,,,,,,,,167,U,star,1,0,,,2,,,,,,,,,,,,,switch,number,numSwt,f,1.3996,vtsPrac,3,0,3,0,1,,,,,,,,,,,,,,,,,,,,,,,
296164,2022-11-27_19h49.43.069,vts_reward_expectancy_bt,2022.2.4,MacIntel,60.0024001,Chrome,1440,900,,,,,0,675,,,,,,,,,,,,,,,,,160,F,hexagon,1,0,,,2,,,,,,,,,,,,,repeat,number,numRpt,f,0.9806,vtsPrac,4,0,4,0,1,,,,,,,,,,,,,,,,,,,,,,,
296164,2022-11-27_19h49.43.069,vts_reward_expectancy_bt,2022.2.4,MacIntel,60.0024001,Chrome,1440,900,,,,,0,675,,,,,,,,,,,,,,,,,181,W,triangle,1,0,,,2,,,,,,,,,,,,,switch,letter,lettSwt,k,1.2635,vtsPrac,5,0,5,0,1,,,,,,,,,,,,,,,,,,,,,,,
296164,2022-11-27_19h49.43.069,vts_reward_expectancy_bt,2022.2.4,MacIntel,60.0024001,Chrome,1440,900,,,,,0,675,,,,,,,,,,,,,,,,,146,Y,star,1,0,,,2,,,,,,,,,,,,,repeat,letter,lettRpt,k,0.5625,vtsPrac,6,0,6,0,1,,,,,,,,,,,,,,,,,,,,,,,
296164,2022-11-27_19h49.43.069,vts_reward_expectancy_bt,2022.2.4,MacIntel,60.0024001,Chrome,1440,900,,,,,0,675,,,,,,,,,,,,,,,,,167,U,circle,1,0,,,2,,,,,,,,,,,,,repeat,letter,lettRpt,k,0.5639,vtsPrac,7,0,7,0,1,,,,,,,,,,,,,,,,,,,,,,,
296164,2022-11-27_19h49.43.069,vts_reward_expectancy_bt,2022.2.4,MacIntel,60.0024001,Chrome,1440,900,,,,,0,675,,,,,,,,,,,,,,,,,174,F,star,1,0,,,2,,,,,,,,,,,,,switch,number,numSwt,f,0.5653,vtsPrac,8,0,8,0,1,,,,,,,,,,,,,,,,,,,,,,,
296164,2022-11-27_19h49.43.069,vts_reward_expectancy_bt,2022.2.4,MacIntel,60.0024001,Chrome,1440,900,,,,,0,675,,,,,,,,,,,,,,,,,160,H,circle,1,0,,,2,,,,,,,,,,,,,repeat,number,numRpt,f,0.5521,vtsPrac,9,0,9,0,1,,,,,,,,,,,,,,,,,,,,,,,
296164,2022-11-27_19h49.43.069,vts_reward_expectancy_bt,2022.2.4,MacIntel,60.0024001,Chrome,1440,900,,,,,0,675,,,,,,,,,,,,,,,,,125,S,star,1,0,,,2,,,,,,,,,,,,,repeat,number,numRpt,d,0.5982,vtsPrac,10,0,10,0,1,,,,,,,,,,,,,,,,,,,,,,,
296164,2022-11-27_19h49.43.069,vts_reward_expectancy_bt,2022.2.4,MacIntel,60.0024001,Chrome,1440,900,,,,,0,675,,,,,,,,,,,,,,,,,181,W,triangle,1,0,,,2,,,,,,,,,,,,,repeat,number,numRpt,f,0.499,vtsPrac,11,0,11,0,1,,,,,,,,,,,,,,,,,,,,,,,
296164,2022-11-27_19h49.43.069,vts_reward_expectancy_bt,2022.2.4,MacIntel,60.0024001,Chrome,1440,900,,,,,0,675,,,,,,,,,,,,,,,,,167,F,star,1,0,,,2,,,,,,,,,,,,,repeat,number,numRpt,f,0.6954,vtsPrac,12,0,12,0,1,,,,,,,,,,,,,,,,,,,,,,,
296164,2022-11-27_19h49.43.069,vts_reward_expectancy_bt,2022.2.4,MacIntel,60.0024001,Chrome,1440,900,,,,,0,675,,,,,,,,,,,,,,,,,146,U,circle,1,0,,,2,,,,,,,,,,,,,repeat,number,numRpt,d,0.5214,vtsPrac,13,0,13,0,1,,,,,,,,,,,,,,,,,,,,,,,
296164,2022-11-27_19h49.43.069,vts_reward_expectancy_bt,2022.2.4,MacIntel,60.0024001,Chrome,1440,900,,,,,0,675,,,,,,,,,,,,,,,,,174,W,triangle,1,0,,,2,,,,,,,,,,,,,repeat,number,numRpt,f,0.5638,vtsPrac,14,0,14,0,1,,,,,,,,,,,,,,,,,,,,,,,
296164,2022-11-27_19h49.43.069,vts_reward_expectancy_bt,2022.2.4,MacIntel,60.0024001,Chrome,1440,900,,,,,0,675,,,,,,,,,,,,,,,,,132,H,circle,1,0,,,2,,,,,,,,,,,,,repeat,number,numRpt,d,1.2108,vtsPrac,15,0,15,0,1,,,,,,,,,,,,,,,,,,,,,,,
296164,2022-11-27_19h49.43.069,vts_reward_expectancy_bt,2022.2.4,MacIntel,60.0024001,Chrome,1440,900,,,,,0,675,,,,,,,,,,,,,,,,,174,D,hexagon,1,0,,,2,,,,,,,,,,,,,switch,letter,lettSwt,j,0.5468,vtsPrac,16,0,16,0,1,,,,,,,,,,,,,,,,,,,,,,,
296164,2022-11-27_19h49.43.069,vts_reward_expectancy_bt,2022.2.4,MacIntel,60.0024001,Chrome,1440,900,,,,,0,675,,,,,,,,,,,,,,,,,146,H,circle,1,0,,,2,,,,,,,,,,,,,repeat,letter,lettRpt,j,0.5364,vtsPrac,17,0,17,0,1,,,,,,,,,,,,,,,,,,,,,,,
296164,2022-11-27_19h49.43.069,vts_reward_expectancy_bt,2022.2.4,MacIntel,60.0024001,Chrome,1440,900,,,,,0,675,,,,,,,,,,,,,,,,,167,Y,circle,1,0,,,2,,,,,,,,,,,,,repeat,letter,lettRpt,k,0.4837,vtsPrac,18,0,18,0,1,,,,,,,,,,,,,,,,,,,,,,,
296164,2022-11-27_19h49.43.069,vts_reward_expectancy_bt,2022.2.4,MacIntel,60.0024001,Chrome,1440,900,,,,,0,675,,,,,,,,,,,,,,,,,139,F,hexagon,0,0,,,2,,,,,,,,,,,,,repeat,letter,NA,k,0.4956,vtsPrac,19,0,19,0,1,,,,,,,,,,,,,,,,,,,,,,,
296164,2022-11-27_19h49.43.069,vts_reward_expectancy_bt,2022.2.4,MacIntel,60.0024001,Chrome,1440,900,,,,,0,675,,,,,,,,,,,,,,,,,139,W,hexagon,1,1,,,2,,,,,,,,,,,,,repeat,letter,lettRpt,k,0.5511,vtsPrac,20,0,20,0,1,,,,,,,,,,,,,,,,,,,,,,,
296164,2022-11-27_19h49.43.069,vts_reward_expectancy_bt,2022.2.4,MacIntel,60.0024001,Chrome,1440,900,,,,,0,675,,,,,,,,,,,,,,,,,181,U,star,1,0,,,2,,,,,,,,,,,,,repeat,letter,lettRpt,k,0.6774,vtsPrac,21,0,21,0,1,,,,,,,,,,,,,,,,,,,,,,,
296164,2022-11-27_19h49.43.069,vts_reward_expectancy_bt,2022.2.4,MacIntel,60.0024001,Chrome,1440,900,,,,,0,675,,,,,,,,,,,,,,,,,160,D,star,1,0,,,2,,,,,,,,,,,,,repeat,letter,lettRpt,j,0.598,vtsPrac,22,0,22,0,1,,,,,,,,,,,,,,,,,,,,,,,
296164,2022-11-27_19h49.43.069,vts_reward_expectancy_bt,2022.2.4,MacIntel,60.0024001,Chrome,1440,900,,,,,0,675,,,,,,,,,,,,,,,,,125,Y,hexagon,1,0,,,2,,,,,,,,,,,,,switch,number,numSwt,d,0.9829,vtsPrac,23,0,23,0,1,,,,,,,,,,,,,,,,,,,,,,,
296164,2022-11-27_19h49.43.069,vts_reward_expectancy_bt,2022.2.4,MacIntel,60.0024001,Chrome,1440,900,,,,,0,675,,,,,,,,,,,,,,,,,146,W,circle,1,0,,,2,,,,,,,,,,,,,repeat,number,numRpt,d,1.1465,vtsPrac,24,0,24,0,1,,,,,,,,,,,,,,,,,,,,,,,
296164,2022-11-27_19h49.43.069,vts_reward_expectancy_bt,2022.2.4,MacIntel,60.0024001,Chrome,1440,900,,,,,0,675,,,,,,,,,,,,,,,,,132,S,star,1,0,,,2,,,,,,,,,,,,,repeat,number,numRpt,d,0.5798,vtsPrac,25,0,25,0,1,,,,,,,,,,,,,,,,,,,,,,,
296164,2022-11-27_19h49.43.069,vts_reward_expectancy_bt,2022.2.4,MacIntel,60.0024001,Chrome,1440,900,,,,,0,675,,,,,,,,,,,,,,,,,167,B,triangle,1,0,,,2,,,,,,,,,,,,,repeat,number,numRpt,f,0.6507,vtsPrac,26,0,26,0,1,,,,,,,,,,,,,,,,,,,,,,,
296164,2022-11-27_19h49.43.069,vts_reward_expectancy_bt,2022.2.4,MacIntel,60.0024001,Chrome,1440,900,,,,,0,675,,,,,,,,,,,,,,,,,125,F,circle,1,0,,,2,,,,,,,,,,,,,repeat,number,numRpt,d,0.5774,vtsPrac,27,0,27,0,1,,,,,,,,,,,,,,,,,,,,,,,
296164,2022-11-27_19h49.43.069,vts_reward_expectancy_bt,2022.2.4,MacIntel,60.0024001,Chrome,1440,900,,,,,0,675,,,,,,,,,,,,,,,,,181,H,star,1,0,,,2,,,,,,,,,,,,,repeat,number,numRpt,f,1.2688,vtsPrac,28,0,28,0,1,,,,,,,,,,,,,,,,,,,,,,,
296164,2022-11-27_19h49.43.069,vts_reward_expectancy_bt,2022.2.4,MacIntel,60.0024001,Chrome,1440,900,,,,,0,675,,,,,,,,,,,,,,,,,160,F,circle,1,0,,,2,,,,,,,,,,,,,switch,letter,lettSwt,j,1.0645,vtsPrac,29,0,29,0,1,,,,,,,,,,,,,,,,,,,,,,,
296164,2022-11-27_19h49.43.069,vts_reward_expectancy_bt,2022.2.4,MacIntel,60.0024001,Chrome,1440,900,,,,,0,675,,,,,,,,,,,,,,,,,174,U,triangle,1,0,,,2,,,,,,,,,,,,,repeat,letter,lettRpt,k,0.6787,vtsPrac,30,0,30,0,1,,,,,,,,,,,,,,,,,,,,,,,
296164,2022-11-27_19h49.43.069,vts_reward_expectancy_bt,2022.2.4,MacIntel,60.0024001,Chrome,1440,900,,,,,0,675,,,,,,,,,,,,,,,,,146,W,circle,1,0,,,2,,,,,,,,,,,,,switch,number,numSwt,d,0.6811,vtsPrac,31,0,31,0,1,,,,,,,,,,,,,,,,,,,,,,,
296164,2022-11-27_19h49.43.069,vts_reward_expectancy_bt,2022.2.4,MacIntel,60.0024001,Chrome,1440,900,,,,,,,,,,,,,,,,,,,,,,,,,,,,,,,,,,,,,,,,,,,,,,,,,,,,,,,,,,,,,,,,,,,,,,,,,,,,
296164,2022-11-27_19h49.43.069,vts_reward_expectancy_bt,2022.2.4,MacIntel,60.0024001,Chrome,1440,900,,,,,,,,,,,,,,,,,,,,,,,,,,,,,,,,,,,,,,,,,,,,,,,,,,,,,,,,,,,,,,,,,,,,,,,,,,,,
296164,2022-11-27_19h49.43.069,vts_reward_expectancy_bt,2022.2.4,MacIntel,60.0024001,Chrome,1440,900,,,,,0,675,,,,,,,,,,,,,,,,,125,S,triangle,1,0,,,,,,,,,,,,,,,,repeat,number,numRpt,d,1.5287,noRew,,,,,,0,0,0,0,0,1,,,,,,,,,,,,,,,,,
296164,2022-11-27_19h49.43.069,vts_reward_expectancy_bt,2022.2.4,MacIntel,60.0024001,Chrome,1440,900,,,,,0,675,,,,,,,,,,,,,,,,,132,Y,circle,1,0,,,,,,,,,,,,,,,,repeat,number,numRpt,d,0.546,noRew,,,,,,0,1,0,1,0,1,,,,,,,,,,,,,,,,,
296164,2022-11-27_19h49.43.069,vts_reward_expectancy_bt,2022.2.4,MacIntel,60.0024001,Chrome,1440,900,,,,,0,675,,,,,,,,,,,,,,,,,160,W,triangle,1,0,,,,,,,,,,,,,,,,repeat,number,numRpt,f,0.7053,noRew,,,,,,0,2,0,2,0,1,,,,,,,,,,,,,,,,,
296164,2022-11-27_19h49.43.069,vts_reward_expectancy_bt,2022.2.4,MacIntel,60.0024001,Chrome,1440,900,,,,,0,675,,,,,,,,,,,,,,,,,181,D,circle,1,0,,,,,,,,,,,,,,,,repeat,number,numRpt,f,0.8655,noRew,,,,,,0,3,0,3,0,1,,,,,,,,,,,,,,,,,
296164,2022-11-27_19h49.43.069,vts_reward_expectancy_bt,2022.2.4,MacIntel,60.0024001,Chrome,1440,900,,,,,0,675,,,,,,,,,,,,,,,,,125,S,circle,1,0,,,,,,,,,,,,,,,,switch,letter,lettSwt,k,0.6481,noRew,,,,,,0,4,0,4,0,1,,,,,,,,,,,,,,,,,
296164,2022-11-27_19h49.43.069,vts_reward_expectancy_bt,2022.2.4,MacIntel,60.0024001,Chrome,1440,900,,,,,0,675,,,,,,,,,,,,,,,,,132,Y,star,1,0,,,,,,,,,,,,,,,,repeat,letter,lettRpt,k,0.5121,noRew,,,,,,0,5,0,5,0,1,,,,,,,,,,,,,,,,,
296164,2022-11-27_19h49.43.069,vts_reward_expectancy_bt,2022.2.4,MacIntel,60.0024001,Chrome,1440,900,,,,,0,675,,,,,,,,,,,,,,,,,160,W,hexagon,1,0,,,,,,,,,,,,,,,,switch,number,numSwt,f,0.4966,noRew,,,,,,0,6,0,6,0,1,,,,,,,,,,,,,,,,,
296164,2022-11-27_19h49.43.069,vts_reward_expectancy_bt,2022.2.4,MacIntel,60.0024001,Chrome,1440,900,,,,,0,675,,,,,,,,,,,,,,,,,181,D,circle,1,0,,,,,,,,,,,,,,,,repeat,number,numRpt,f,0.6832,noRew,,,,,,0,7,0,7,0,1,,,,,,,,,,,,,,,,,
296164,2022-11-27_19h49.43.069,vts_reward_expectancy_bt,2022.2.4,MacIntel,60.0024001,Chrome,1440,900,,,,,0,675,,,,,,,,,,,,,,,,,146,H,star,1,0,,,,,,,,,,,,,,,,repeat,number,numRpt,d,0.5473,noRew,,,,,,0,8,0,8,0,1,,,,,,,,,,,,,,,,,
296164,2022-11-27_19h49.43.069,vts_reward_expectancy_bt,2022.2.4,MacIntel,60.0024001,Chrome,1440,900,,,,,0,675,,,,,,,,,,,,,,,,,139,B,triangle,1,0,,,,,,,,,,,,,,,,switch,letter,lettSwt,j,0.5156,noRew,,,,,,0,9,0,9,0,1,,,,,,,,,,,,,,,,,
296164,2022-11-27_19h49.43.069,vts_reward_expectancy_bt,2022.2.4,MacIntel,60.0024001,Chrome,1440,900,,,,,0,675,,,,,,,,,,,,,,,,,125,U,star,1,0,,,,,,,,,,,,,,,,repeat,letter,lettRpt,k,0.5876,noRew,,,,,,0,10,0,10,0,1,,,,,,,,,,,,,,,,,
296164,2022-11-27_19h49.43.069,vts_reward_expectancy_bt,2022.2.4,MacIntel,60.0024001,Chrome,1440,900,,,,,0,675,,,,,,,,,,,,,,,,,181,D,circle,1,0,,,,,,,,,,,,,,,,repeat,letter,lettRpt,j,0.5982,noRew,,,,,,0,11,0,11,0,1,,,,,,,,,,,,,,,,,
296164,2022-11-27_19h49.43.069,vts_reward_expectancy_bt,2022.2.4,MacIntel,60.0024001,Chrome,1440,900,,,,,0,675,,,,,,,,,,,,,,,,,174,F,star,1,0,,,,,,,,,,,,,,,,switch,number,numSwt,f,0.5969,noRew,,,,,,0,12,0,12,0,1,,,,,,,,,,,,,,,,,
296164,2022-11-27_19h49.43.069,vts_reward_expectancy_bt,2022.2.4,MacIntel,60.0024001,Chrome,1440,900,,,,,0,675,,,,,,,,,,,,,,,,,125,B,triangle,1,0,,,,,,,,,,,,,,,,repeat,number,numRpt,d,0.4481,noRew,,,,,,0,13,0,13,0,1,,,,,,,,,,,,,,,,,
296164,2022-11-27_19h49.43.069,vts_reward_expectancy_bt,2022.2.4,MacIntel,60.0024001,Chrome,1440,900,,,,,0,675,,,,,,,,,,,,,,,,,160,Y,star,1,0,,,,,,,,,,,,,,,,repeat,number,numRpt,f,0.5777,noRew,,,,,,0,14,0,14,0,1,,,,,,,,,,,,,,,,,
296164,2022-11-27_19h49.43.069,vts_reward_expectancy_bt,2022.2.4,MacIntel,60.0024001,Chrome,1440,900,,,,,0,675,,,,,,,,,,,,,,,,,132,D,circle,1,0,,,,,,,,,,,,,,,,switch,letter,lettSwt,j,0.5626,noRew,,,,,,0,15,0,15,0,1,,,,,,,,,,,,,,,,,
296164,2022-11-27_19h49.43.069,vts_reward_expectancy_bt,2022.2.4,MacIntel,60.0024001,Chrome,1440,900,,,,,0,675,,,,,,,,,,,,,,,,,167,F,circle,1,0,,,,,,,,,,,,,,,,repeat,letter,lettRpt,j,0.5864,noRew,,,,,,0,16,0,16,0,1,,,,,,,,,,,,,,,,,
296164,2022-11-27_19h49.43.069,vts_reward_expectancy_bt,2022.2.4,MacIntel,60.0024001,Chrome,1440,900,,,,,0,675,,,,,,,,,,,,,,,,,146,B,star,1,0,,,,,,,,,,,,,,,,repeat,letter,lettRpt,j,0.8321,noRew,,,,,,0,17,0,17,0,1,,,,,,,,,,,,,,,,,
296164,2022-11-27_19h49.43.069,vts_reward_expectancy_bt,2022.2.4,MacIntel,60.0024001,Chrome,1440,900,,,,,0,675,,,,,,,,,,,,,,,,,181,W,triangle,1,0,,,,,,,,,,,,,,,,switch,number,numSwt,f,0.5295,noRew,,,,,,0,18,0,18,0,1,,,,,,,,,,,,,,,,,
296164,2022-11-27_19h49.43.069,vts_reward_expectancy_bt,2022.2.4,MacIntel,60.0024001,Chrome,1440,900,,,,,0,675,,,,,,,,,,,,,,,,,174,Y,circle,1,0,,,,,,,,,,,,,,,,repeat,number,numRpt,f,0.5114,noRew,,,,,,0,19,0,19,0,1,,,,,,,,,,,,,,,,,
296164,2022-11-27_19h49.43.069,vts_reward_expectancy_bt,2022.2.4,MacIntel,60.0024001,Chrome,1440,900,,,,,0,675,,,,,,,,,,,,,,,,,125,H,hexagon,1,0,,,,,,,,,,,,,,,,switch,letter,lettSwt,j,0.4497,noRew,,,,,,0,20,0,20,0,1,,,,,,,,,,,,,,,,,
296164,2022-11-27_19h49.43.069,vts_reward_expectancy_bt,2022.2.4,MacIntel,60.0024001,Chrome,1440,900,,,,,0,675,,,,,,,,,,,,,,,,,139,Y,triangle,1,0,,,,,,,,,,,,,,,,repeat,letter,lettRpt,k,0.5793,noRew,,,,,,0,21,0,21,0,1,,,,,,,,,,,,,,,,,
296164,2022-11-27_19h49.43.069,vts_reward_expectancy_bt,2022.2.4,MacIntel,60.0024001,Chrome,1440,900,,,,,0,675,,,,,,,,,,,,,,,,,181,F,triangle,1,0,,,,,,,,,,,,,,,,repeat,letter,lettRpt,j,0.6133,noRew,,,,,,0,22,0,22,0,1,,,,,,,,,,,,,,,,,
296164,2022-11-27_19h49.43.069,vts_reward_expectancy_bt,2022.2.4,MacIntel,60.0024001,Chrome,1440,900,,,,,0,675,,,,,,,,,,,,,,,,,167,B,hexagon,1,0,,,,,,,,,,,,,,,,repeat,letter,lettRpt,j,0.685,noRew,,,,,,0,23,0,23,0,1,,,,,,,,,,,,,,,,,
296164,2022-11-27_19h49.43.069,vts_reward_expectancy_bt,2022.2.4,MacIntel,60.0024001,Chrome,1440,900,,,,,0,675,,,,,,,,,,,,,,,,,139,F,circle,-1,0,,,,,,,,,,,,,,,,switch,no_choice,NA,,,noRew,,,,,,0,24,0,24,0,1,,,,,,,,,,,,,,,,,
296164,2022-11-27_19h49.43.069,vts_reward_expectancy_bt,2022.2.4,MacIntel,60.0024001,Chrome,1440,900,,,,,0,675,,,,,,,,,,,,,,,,,181,B,star,1,0,,,,,,,,,,,,,,,,switch,letter,lettSwt,j,0.6123,noRew,,,,,,0,25,0,25,0,1,,,,,,,,,,,,,,,,,
296164,2022-11-27_19h49.43.069,vts_reward_expectancy_bt,2022.2.4,MacIntel,60.0024001,Chrome,1440,900,,,,,0,675,,,,,,,,,,,,,,,,,146,H,hexagon,1,0,,,,,,,,,,,,,,,,switch,number,numSwt,d,0.6373,noRew,,,,,,0,26,0,26,0,1,,,,,,,,,,,,,,,,,
296164,2022-11-27_19h49.43.069,vts_reward_expectancy_bt,2022.2.4,MacIntel,60.0024001,Chrome,1440,900,,,,,0,675,,,,,,,,,,,,,,,,,125,U,star,1,0,,,,,,,,,,,,,,,,repeat,number,numRpt,d,0.4499,noRew,,,,,,0,27,0,27,0,1,,,,,,,,,,,,,,,,,
296164,2022-11-27_19h49.43.069,vts_reward_expectancy_bt,2022.2.4,MacIntel,60.0024001,Chrome,1440,900,,,,,0,675,,,,,,,,,,,,,,,,,174,H,triangle,1,0,,,,,,,,,,,,,,,,repeat,number,numRpt,f,0.6111,noRew,,,,,,0,28,0,28,0,1,,,,,,,,,,,,,,,,,
296164,2022-11-27_19h49.43.069,vts_reward_expectancy_bt,2022.2.4,MacIntel,60.0024001,Chrome,1440,900,,,,,0,675,,,,,,,,,,,,,,,,,167,F,circle,1,0,,,,,,,,,,,,,,,,switch,letter,lettSwt,j,0.4545,noRew,,,,,,0,29,0,29,0,1,,,,,,,,,,,,,,,,,
296164,2022-11-27_19h49.43.069,vts_reward_expectancy_bt,2022.2.4,MacIntel,60.0024001,Chrome,1440,900,,,,,0,675,,,,,,,,,,,,,,,,,125,D,triangle,1,0,,,,,,,,,,,,,,,,repeat,letter,lettRpt,j,0.4512,noRew,,,,,,0,30,0,30,0,1,,,,,,,,,,,,,,,,,
296164,2022-11-27_19h49.43.069,vts_reward_expectancy_bt,2022.2.4,MacIntel,60.0024001,Chrome,1440,900,,,,,0,675,,,,,,,,,,,,,,,,,132,W,hexagon,1,0,,,,,,,,,,,,,,,,repeat,letter,lettRpt,k,0.5225,noRew,,,,,,0,31,0,31,0,1,,,,,,,,,,,,,,,,,
296164,2022-11-27_19h49.43.069,vts_reward_expectancy_bt,2022.2.4,MacIntel,60.0024001,Chrome,1440,900,,,,,0,675,,,,,,,,,,,,,,,,,146,D,circle,1,0,,,,,,,,,,,,,,,,switch,number,numSwt,d,0.7505,noRew,,,,,,0,32,0,32,0,1,,,,,,,,,,,,,,,,,
296164,2022-11-27_19h49.43.069,vts_reward_expectancy_bt,2022.2.4,MacIntel,60.0024001,Chrome,1440,900,,,,,0,675,,,,,,,,,,,,,,,,,181,Y,hexagon,1,0,,,,,,,,,,,,,,,,repeat,number,numRpt,f,1.211,noRew,,,,,,0,33,0,33,0,1,,,,,,,,,,,,,,,,,
296164,2022-11-27_19h49.43.069,vts_reward_expectancy_bt,2022.2.4,MacIntel,60.0024001,Chrome,1440,900,,,,,0,675,,,,,,,,,,,,,,,,,125,H,hexagon,1,0,,,,,,,,,,,,,,,,repeat,number,numRpt,d,0.5117,noRew,,,,,,0,34,0,34,0,1,,,,,,,,,,,,,,,,,
296164,2022-11-27_19h49.43.069,vts_reward_expectancy_bt,2022.2.4,MacIntel,60.0024001,Chrome,1440,900,,,,,0,675,,,,,,,,,,,,,,,,,167,U,triangle,1,0,,,,,,,,,,,,,,,,repeat,number,numRpt,f,0.4976,noRew,,,,,,0,35,0,35,0,1,,,,,,,,,,,,,,,,,
296164,2022-11-27_19h49.43.069,vts_reward_expectancy_bt,2022.2.4,MacIntel,60.0024001,Chrome,1440,900,,,,,0,675,,,,,,,,,,,,,,,,,139,D,triangle,1,0,,,,,,,,,,,,,,,,repeat,number,numRpt,d,0.8135,noRew,,,,,,0,36,0,36,0,1,,,,,,,,,,,,,,,,,
296164,2022-11-27_19h49.43.069,vts_reward_expectancy_bt,2022.2.4,MacIntel,60.0024001,Chrome,1440,900,,,,,0,675,,,,,,,,,,,,,,,,,125,S,circle,1,0,,,,,,,,,,,,,,,,switch,letter,lettSwt,k,0.6823,noRew,,,,,,0,37,0,37,0,1,,,,,,,,,,,,,,,,,
296164,2022-11-27_19h49.43.069,vts_reward_expectancy_bt,2022.2.4,MacIntel,60.0024001,Chrome,1440,900,,,,,0,675,,,,,,,,,,,,,,,,,146,Y,star,1,0,,,,,,,,,,,,,,,,repeat,letter,lettRpt,k,0.7298,noRew,,,,,,0,38,0,38,0,1,,,,,,,,,,,,,,,,,
296164,2022-11-27_19h49.43.069,vts_reward_expectancy_bt,2022.2.4,MacIntel,60.0024001,Chrome,1440,900,,,,,0,675,,,,,,,,,,,,,,,,,160,W,circle,1,0,,,,,,,,,,,,,,,,repeat,letter,lettRpt,k,0.763,noRew,,,,,,0,39,0,39,0,1,,,,,,,,,,,,,,,,,
296164,2022-11-27_19h49.43.069,vts_reward_expectancy_bt,2022.2.4,MacIntel,60.0024001,Chrome,1440,900,,,,,0,675,,,,,,,,,,,,,,,,,139,U,triangle,1,0,,,,,,,,,,,,,,,,repeat,letter,lettRpt,k,0.571,noRew,,,,,,0,40,0,40,0,1,,,,,,,,,,,,,,,,,
296164,2022-11-27_19h49.43.069,vts_reward_expectancy_bt,2022.2.4,MacIntel,60.0024001,Chrome,1440,900,,,,,0,675,,,,,,,,,,,,,,,,,132,Y,hexagon,1,0,,,,,,,,,,,,,,,,repeat,letter,lettRpt,k,0.6322,noRew,,,,,,0,41,0,41,0,1,,,,,,,,,,,,,,,,,
296164,2022-11-27_19h49.43.069,vts_reward_expectancy_bt,2022.2.4,MacIntel,60.0024001,Chrome,1440,900,,,,,0,675,,,,,,,,,,,,,,,,,174,F,circle,0,0,,,,,,,,,,,,,,,,repeat,letter,NA,k,0.7121,noRew,,,,,,0,42,0,42,0,1,,,,,,,,,,,,,,,,,
296164,2022-11-27_19h49.43.069,vts_reward_expectancy_bt,2022.2.4,MacIntel,60.0024001,Chrome,1440,900,,,,,0,675,,,,,,,,,,,,,,,,,167,B,hexagon,1,1,,,,,,,,,,,,,,,,switch,number,numSwt,f,0.6948,noRew,,,,,,0,43,0,43,0,1,,,,,,,,,,,,,,,,,
296164,2022-11-27_19h49.43.069,vts_reward_expectancy_bt,2022.2.4,MacIntel,60.0024001,Chrome,1440,900,,,,,0,675,,,,,,,,,,,,,,,,,132,S,circle,1,0,,,,,,,,,,,,,,,,repeat,number,numRpt,d,0.5214,noRew,,,,,,0,44,0,44,0,1,,,,,,,,,,,,,,,,,
296164,2022-11-27_19h49.43.069,vts_reward_expectancy_bt,2022.2.4,MacIntel,60.0024001,Chrome,1440,900,,,,,0,675,,,,,,,,,,,,,,,,,181,F,star,1,0,,,,,,,,,,,,,,,,switch,letter,lettSwt,j,0.5982,noRew,,,,,,0,45,0,45,0,1,,,,,,,,,,,,,,,,,
296164,2022-11-27_19h49.43.069,vts_reward_expectancy_bt,2022.2.4,MacIntel,60.0024001,Chrome,1440,900,,,,,0,675,,,,,,,,,,,,,,,,,139,W,triangle,1,0,,,,,,,,,,,,,,,,repeat,letter,lettRpt,k,0.6272,noRew,,,,,,0,46,0,46,0,1,,,,,,,,,,,,,,,,,
296164,2022-11-27_19h49.43.069,vts_reward_expectancy_bt,2022.2.4,MacIntel,60.0024001,Chrome,1440,900,,,,,0,675,,,,,,,,,,,,,,,,,160,U,star,1,0,,,,,,,,,,,,,,,,repeat,letter,lettRpt,k,1.1987,noRew,,,,,,0,47,0,47,0,1,,,,,,,,,,,,,,,,,
296164,2022-11-27_19h49.43.069,vts_reward_expectancy_bt,2022.2.4,MacIntel,60.0024001,Chrome,1440,900,,,,,0,675,,,,,,,,,,,,,,,,,146,B,triangle,1,0,,,,,,,,,,,,,,,,repeat,letter,lettRpt,j,0.7661,noRew,,,,,,0,48,0,48,0,1,,,,,,,,,,,,,,,,,
296164,2022-11-27_19h49.43.069,vts_reward_expectancy_bt,2022.2.4,MacIntel,60.0024001,Chrome,1440,900,,,,,0,675,,,,,,,,,,,,,,,,,160,D,star,1,0,,,,,,,,,,,,,,,,repeat,letter,lettRpt,j,0.732,noRew,,,,,,0,49,0,49,0,1,,,,,,,,,,,,,,,,,
296164,2022-11-27_19h49.43.069,vts_reward_expectancy_bt,2022.2.4,MacIntel,60.0024001,Chrome,1440,900,,,,,0,675,,,,,,,,,,,,,,,,,132,U,hexagon,1,0,,,,,,,,,,,,,,,,switch,number,numSwt,d,0.4962,noRew,,,,,,0,50,0,50,0,1,,,,,,,,,,,,,,,,,
296164,2022-11-27_19h49.43.069,vts_reward_expectancy_bt,2022.2.4,MacIntel,60.0024001,Chrome,1440,900,,,,,0,675,,,,,,,,,,,,,,,,,139,Y,star,1,0,,,,,,,,,,,,,,,,repeat,number,numRpt,d,1.1323,noRew,,,,,,0,51,0,51,0,1,,,,,,,,,,,,,,,,,
296164,2022-11-27_19h49.43.069,vts_reward_expectancy_bt,2022.2.4,MacIntel,60.0024001,Chrome,1440,900,,,,,0,675,,,,,,,,,,,,,,,,,139,F,circle,1,0,,,,,,,,,,,,,,,,repeat,number,numRpt,d,1.2673,noRew,,,,,,0,52,0,52,0,1,,,,,,,,,,,,,,,,,
296164,2022-11-27_19h49.43.069,vts_reward_expectancy_bt,2022.2.4,MacIntel,60.0024001,Chrome,1440,900,,,,,0,675,,,,,,,,,,,,,,,,,167,B,triangle,1,0,,,,,,,,,,,,,,,,repeat,number,numRpt,f,0.4887,noRew,,,,,,0,53,0,53,0,1,,,,,,,,,,,,,,,,,
296164,2022-11-27_19h49.43.069,vts_reward_expectancy_bt,2022.2.4,MacIntel,60.0024001,Chrome,1440,900,,,,,0,675,,,,,,,,,,,,,,,,,132,U,star,1,0,,,,,,,,,,,,,,,,repeat,number,numRpt,d,0.6944,noRew,,,,,,0,54,0,54,0,1,,,,,,,,,,,,,,,,,
296164,2022-11-27_19h49.43.069,vts_reward_expectancy_bt,2022.2.4,MacIntel,60.0024001,Chrome,1440,900,,,,,0,675,,,,,,,,,,,,,,,,,181,H,triangle,1,0,,,,,,,,,,,,,,,,switch,letter,lettSwt,j,0.6294,noRew,,,,,,0,55,0,55,0,1,,,,,,,,,,,,,,,,,
296164,2022-11-27_19h49.43.069,vts_reward_expectancy_bt,2022.2.4,MacIntel,60.0024001,Chrome,1440,900,,,,,0,675,,,,,,,,,,,,,,,,,146,F,triangle,1,0,,,,,,,,,,,,,,,,repeat,letter,lettRpt,j,0.7473,noRew,,,,,,0,56,0,56,0,1,,,,,,,,,,,,,,,,,
296164,2022-11-27_19h49.43.069,vts_reward_expectancy_bt,2022.2.4,MacIntel,60.0024001,Chrome,1440,900,,,,,0,675,,,,,,,,,,,,,,,,,125,H,star,1,0,,,,,,,,,,,,,,,,repeat,letter,lettRpt,j,0.6313,noRew,,,,,,0,57,0,57,0,1,,,,,,,,,,,,,,,,,
296164,2022-11-27_19h49.43.069,vts_reward_expectancy_bt,2022.2.4,MacIntel,60.0024001,Chrome,1440,900,,,,,0,675,,,,,,,,,,,,,,,,,139,S,star,1,0,,,,,,,,,,,,,,,,repeat,letter,lettRpt,k,0.5817,noRew,,,,,,0,58,0,58,0,1,,,,,,,,,,,,,,,,,
296164,2022-11-27_19h49.43.069,vts_reward_expectancy_bt,2022.2.4,MacIntel,60.0024001,Chrome,1440,900,,,,,0,675,,,,,,,,,,,,,,,,,181,W,triangle,1,0,,,,,,,,,,,,,,,,switch,number,numSwt,f,1.58,noRew,,,,,,0,59,0,59,0,1,,,,,,,,,,,,,,,,,
296164,2022-11-27_19h49.43.069,vts_reward_expectancy_bt,2022.2.4,MacIntel,60.0024001,Chrome,1440,900,,,,,0,675,,,,,,,,,,,,,,,,,174,Y,triangle,1,0,,,,,,,,,,,,,,,,repeat,number,numRpt,f,1.9681,noRew,,,,,,0,60,0,60,0,1,,,,,,,,,,,,,,,,,
296164,2022-11-27_19h49.43.069,vts_reward_expectancy_bt,2022.2.4,MacIntel,60.0024001,Chrome,1440,900,,,,,0,675,,,,,,,,,,,,,,,,,125,F,hexagon,1,0,,,,,,,,,,,,,,,,repeat,number,numRpt,d,0.5303,noRew,,,,,,0,61,0,61,0,1,,,,,,,,,,,,,,,,,
296164,2022-11-27_19h49.43.069,vts_reward_expectancy_bt,2022.2.4,MacIntel,60.0024001,Chrome,1440,900,,,,,0,675,,,,,,,,,,,,,,,,,146,H,triangle,1,0,,,,,,,,,,,,,,,,repeat,number,numRpt,d,2.0496,noRew,,,,,,0,62,0,62,0,1,,,,,,,,,,,,,,,,,
296164,2022-11-27_19h49.43.069,vts_reward_expectancy_bt,2022.2.4,MacIntel,60.0024001,Chrome,1440,900,,,,,0,675,,,,,,,,,,,,,,,,,167,D,hexagon,1,0,,,,,,,,,,,,,,,,switch,letter,lettSwt,j,0.5977,noRew,,,,,,0,63,0,63,0,1,,,,,,,,,,,,,,,,,
296164,2022-11-27_19h49.43.069,vts_reward_expectancy_bt,2022.2.4,MacIntel,60.0024001,Chrome,1440,900,,,,,,,,,,,,,,,,,,,,,,,,,,,,,,,,,,,,,,,,,,,,,,,,,,,,,,,,,,,,,,,,,,,,,,,,,,,,
296164,2022-11-27_19h49.43.069,vts_reward_expectancy_bt,2022.2.4,MacIntel,60.0024001,Chrome,1440,900,,,,,0,675,,,,,,,,,,,,,,,,,146,U,circle,1,0,,,,,,,,,,,,,,,,switch,number,numSwt,d,1.5337,Hi,,,,,,0,,,,,,space,6.1864,low,0,0,0,0,1,,,,,,,,,
296164,2022-11-27_19h49.43.069,vts_reward_expectancy_bt,2022.2.4,MacIntel,60.0024001,Chrome,1440,900,,,,,1,676,,,,,,,,,,,,,,,,,132,D,triangle,1,0,,,,,,,,,,,,,,,,repeat,number,numRpt,d,0.4984,Hi,,,,,,0,,,,,,,,low,1,0,1,0,1,,,,,,,,,
296164,2022-11-27_19h49.43.069,vts_reward_expectancy_bt,2022.2.4,MacIntel,60.0024001,Chrome,1440,900,,,,,10,686,,,,,,,,,,,,,,,,,160,S,hexagon,1,0,,,,,,,,,,,,,,,,repeat,number,numRpt,f,0.4306,Lo,,,,,,0,,,,,,,,low,2,0,2,0,1,,,,,,,,,
296164,2022-11-27_19h49.43.069,vts_reward_expectancy_bt,2022.2.4,MacIntel,60.0024001,Chrome,1440,900,,,,,10,696,,,,,,,,,,,,,,,,,139,W,star,1,0,,,,,,,,,,,,,,,,switch,letter,lettSwt,k,0.4617,Lo,,,,,,0,,,,,,,,low,3,0,3,0,1,,,,,,,,,
296164,2022-11-27_19h49.43.069,vts_reward_expectancy_bt,2022.2.4,MacIntel,60.0024001,Chrome,1440,900,,,,,10,706,,,,,,,,,,,,,,,,,181,B,circle,1,0,,,,,,,,,,,,,,,,repeat,letter,lettRpt,j,0.4016,Hi,,,,,,0,,,,,,,,low,4,0,4,0,1,,,,,,,,,
296164,2022-11-27_19h49.43.069,vts_reward_expectancy_bt,2022.2.4,MacIntel,60.0024001,Chrome,1440,900,,,,,1,707,,,,,,,,,,,,,,,,,174,H,triangle,1,0,,,,,,,,,,,,,,,,switch,number,numSwt,f,0.466,Hi,,,,,,0,,,,,,,,low,5,0,5,0,1,,,,,,,,,
296164,2022-11-27_19h49.43.069,vts_reward_expectancy_bt,2022.2.4,MacIntel,60.0024001,Chrome,1440,900,,,,,1,708,,,,,,,,,,,,,,,,,167,Y,hexagon,1,0,,,,,,,,,,,,,,,,repeat,number,numRpt,f,0.5181,Lo,,,,,,0,,,,,,,,low,6,0,6,0,1,,,,,,,,,
296164,2022-11-27_19h49.43.069,vts_reward_expectancy_bt,2022.2.4,MacIntel,60.0024001,Chrome,1440,900,,,,,1,709,,,,,,,,,,,,,,,,,125,F,star,1,0,,,,,,,,,,,,,,,,repeat,number,numRpt,d,0.397,Lo,,,,,,0,,,,,,,,low,7,0,7,0,1,,,,,,,,,
296164,2022-11-27_19h49.43.069,vts_reward_expectancy_bt,2022.2.4,MacIntel,60.0024001,Chrome,1440,900,,,,,0,709,,,,,,,,,,,,,,,,,146,U,hexagon,0,0,,,,,,,,,,,,,,,,repeat,number,NA,f,0.3883,Lo,,,,,,0,,,,,,,,low,8,0,8,0,1,,,,,,,,,
296164,2022-11-27_19h49.43.069,vts_reward_expectancy_bt,2022.2.4,MacIntel,60.0024001,Chrome,1440,900,,,,,10,719,,,,,,,,,,,,,,,,,132,D,circle,1,1,,,,,,,,,,,,,,,,repeat,number,numRpt,d,0.4422,Hi,,,,,,0,,,,,,,,low,9,0,9,0,1,,,,,,,,,
296164,2022-11-27_19h49.43.069,vts_reward_expectancy_bt,2022.2.4,MacIntel,60.0024001,Chrome,1440,900,,,,,1,720,,,,,,,,,,,,,,,,,160,S,star,1,0,,,,,,,,,,,,,,,,switch,letter,lettSwt,k,0.5176,Lo,,,,,,0,,,,,,,,low,10,0,10,0,1,,,,,,,,,
296164,2022-11-27_19h49.43.069,vts_reward_expectancy_bt,2022.2.4,MacIntel,60.0024001,Chrome,1440,900,,,,,10,730,,,,,,,,,,,,,,,,,139,W,triangle,1,0,,,,,,,,,,,,,,,,repeat,letter,lettRpt,k,0.5617,Hi,,,,,,0,,,,,,,,low,11,0,11,0,1,,,,,,,,,
296164,2022-11-27_19h49.43.069,vts_reward_expectancy_bt,2022.2.4,MacIntel,60.0024001,Chrome,1440,900,,,,,0,730,,,,,,,,,,,,,,,,,181,B,triangle,1,0,,,,,,,,,,,,,,,,repeat,letter,lettRpt,j,0.651,Hi,,,,,,0,,,,,,,,low,12,0,12,0,1,,,,,,,,,
296164,2022-11-27_19h49.43.069,vts_reward_expectancy_bt,2022.2.4,MacIntel,60.0024001,Chrome,1440,900,,,,,1,731,,,,,,,,,,,,,,,,,174,H,star,1,0,,,,,,,,,,,,,,,,repeat,letter,lettRpt,j,0.6514,Lo,,,,,,0,,,,,,,,low,13,0,13,0,1,,,,,,,,,
296164,2022-11-27_19h49.43.069,vts_reward_expectancy_bt,2022.2.4,MacIntel,60.0024001,Chrome,1440,900,,,,,1,732,,,,,,,,,,,,,,,,,167,Y,hexagon,1,0,,,,,,,,,,,,,,,,switch,number,numSwt,f,0.465,Lo,,,,,,0,,,,,,,,low,14,0,14,0,1,,,,,,,,,
296164,2022-11-27_19h49.43.069,vts_reward_expectancy_bt,2022.2.4,MacIntel,60.0024001,Chrome,1440,900,,,,,10,742,,,,,,,,,,,,,,,,,125,F,circle,1,0,,,,,,,,,,,,,,,,repeat,number,numRpt,d,0.4318,Hi,,,,,,0,,,,,,,,low,15,0,15,0,1,,,,,,,,,
296164,2022-11-27_19h49.43.069,vts_reward_expectancy_bt,2022.2.4,MacIntel,60.0024001,Chrome,1440,900,,,,,10,752,,,,,,,,,,,,,,,,,139,B,triangle,1,0,,,,,,,,,,,,,,,,repeat,number,numRpt,d,0.5129,Hi,,,,,,0,,,,,,,,low,16,0,16,0,1,,,,,,,,,
296164,2022-11-27_19h49.43.069,vts_reward_expectancy_bt,2022.2.4,MacIntel,60.0024001,Chrome,1440,900,,,,,10,762,,,,,,,,,,,,,,,,,174,U,circle,1,0,,,,,,,,,,,,,,,,repeat,number,numRpt,f,0.4954,Hi,,,,,,0,,,,,,,,low,17,0,17,0,1,,,,,,,,,
296164,2022-11-27_19h49.43.069,vts_reward_expectancy_bt,2022.2.4,MacIntel,60.0024001,Chrome,1440,900,,,,,1,763,,,,,,,,,,,,,,,,,125,H,star,1,0,,,,,,,,,,,,,,,,repeat,number,numRpt,d,0.4792,Lo,,,,,,0,,,,,,,,low,18,0,18,0,1,,,,,,,,,
296164,2022-11-27_19h49.43.069,vts_reward_expectancy_bt,2022.2.4,MacIntel,60.0024001,Chrome,1440,900,,,,,1,764,,,,,,,,,,,,,,,,,132,Y,hexagon,1,0,,,,,,,,,,,,,,,,repeat,number,numRpt,d,0.4386,Lo,,,,,,0,,,,,,,,low,19,0,19,0,1,,,,,,,,,
296164,2022-11-27_19h49.43.069,vts_reward_expectancy_bt,2022.2.4,MacIntel,60.0024001,Chrome,1440,900,,,,,10,774,,,,,,,,,,,,,,,,,167,D,hexagon,1,0,,,,,,,,,,,,,,,,switch,letter,lettSwt,j,0.5359,Lo,,,,,,0,,,,,,,,low,20,0,20,0,1,,,,,,,,,
296164,2022-11-27_19h49.43.069,vts_reward_expectancy_bt,2022.2.4,MacIntel,60.0024001,Chrome,1440,900,,,,,1,775,,,,,,,,,,,,,,,,,160,W,circle,1,0,,,,,,,,,,,,,,,,repeat,letter,lettRpt,k,0.4519,Hi,,,,,,0,,,,,,,,low,21,0,21,0,1,,,,,,,,,
296164,2022-11-27_19h49.43.069,vts_reward_expectancy_bt,2022.2.4,MacIntel,60.0024001,Chrome,1440,900,,,,,10,785,,,,,,,,,,,,,,,,,146,F,triangle,1,0,,,,,,,,,,,,,,,,repeat,letter,lettRpt,j,0.4286,Hi,,,,,,0,,,,,,,,low,22,0,22,0,1,,,,,,,,,
296164,2022-11-27_19h49.43.069,vts_reward_expectancy_bt,2022.2.4,MacIntel,60.0024001,Chrome,1440,900,,,,,10,795,,,,,,,,,,,,,,,,,181,S,star,1,0,,,,,,,,,,,,,,,,repeat,letter,lettRpt,k,0.6089,Lo,,,,,,0,,,,,,,,low,23,0,23,0,1,,,,,,,,,
296164,2022-11-27_19h49.43.069,vts_reward_expectancy_bt,2022.2.4,MacIntel,60.0024001,Chrome,1440,900,,,,,1,796,,,,,,,,,,,,,,,,,174,S,circle,1,0,,,,,,,,,,,,,,,,repeat,letter,lettRpt,k,0.5512,Hi,,,,,,0,,,,,,,,low,24,0,24,0,1,,,,,,,,,
296164,2022-11-27_19h49.43.069,vts_reward_expectancy_bt,2022.2.4,MacIntel,60.0024001,Chrome,1440,900,,,,,0,796,,,,,,,,,,,,,,,,,146,F,triangle,1,0,,,,,,,,,,,,,,,,switch,number,numSwt,d,0.5637,Hi,,,,,,0,,,,,,,,low,25,0,25,0,1,,,,,,,,,
296164,2022-11-27_19h49.43.069,vts_reward_expectancy_bt,2022.2.4,MacIntel,60.0024001,Chrome,1440,900,,,,,1,797,,,,,,,,,,,,,,,,,167,B,star,1,0,,,,,,,,,,,,,,,,repeat,number,numRpt,f,0.572,Lo,,,,,,0,,,,,,,,low,26,0,26,0,1,,,,,,,,,
296164,2022-11-27_19h49.43.069,vts_reward_expectancy_bt,2022.2.4,MacIntel,60.0024001,Chrome,1440,900,,,,,1,798,,,,,,,,,,,,,,,,,139,D,hexagon,1,0,,,,,,,,,,,,,,,,repeat,number,numRpt,d,0.412,Lo,,,,,,0,,,,,,,,low,27,0,27,0,1,,,,,,,,,
296164,2022-11-27_19h49.43.069,vts_reward_expectancy_bt,2022.2.4,MacIntel,60.0024001,Chrome,1440,900,,,,,0,798,,,,,,,,,,,,,,,,,125,H,triangle,1,0,,,,,,,,,,,,,,,,switch,letter,lettSwt,j,0.5955,Hi,,,,,,0,,,,,,,,low,28,0,28,0,1,,,,,,,,,
296164,2022-11-27_19h49.43.069,vts_reward_expectancy_bt,2022.2.4,MacIntel,60.0024001,Chrome,1440,900,,,,,1,799,,,,,,,,,,,,,,,,,132,U,star,1,0,,,,,,,,,,,,,,,,repeat,letter,lettRpt,k,0.4811,Lo,,,,,,0,,,,,,,,low,29,0,29,0,1,,,,,,,,,
296164,2022-11-27_19h49.43.069,vts_reward_expectancy_bt,2022.2.4,MacIntel,60.0024001,Chrome,1440,900,,,,,10,809,,,,,,,,,,,,,,,,,160,Y,circle,1,0,,,,,,,,,,,,,,,,repeat,letter,lettRpt,k,0.5295,Hi,,,,,,0,,,,,,,,low,30,0,30,0,1,,,,,,,,,
296164,2022-11-27_19h49.43.069,vts_reward_expectancy_bt,2022.2.4,MacIntel,60.0024001,Chrome,1440,900,,,,,0,809,,,,,,,,,,,,,,,,,181,W,hexagon,0,0,,,,,,,,,,,,,,,,repeat,letter,NA,j,0.4062,Hi,,,,,,0,,,,,,,,low,31,0,31,0,1,,,,,,,,,
296164,2022-11-27_19h49.43.069,vts_reward_expectancy_bt,2022.2.4,MacIntel,60.0024001,Chrome,1440,900,,,,,0,809,,,,,,,,,,,,,,,,,181,F,circle,1,1,,,,,,,,,,,,,,,,repeat,letter,lettRpt,j,0.567,Hi,,,,,,1,,,,,,space,1.1541,low,0,0,0,0,1,,,,,,,,,
296164,2022-11-27_19h49.43.069,vts_reward_expectancy_bt,2022.2.4,MacIntel,60.0024001,Chrome,1440,900,,,,,0,809,,,,,,,,,,,,,,,,,167,U,star,0,0,,,,,,,,,,,,,,,,repeat,letter,NA,j,0.4648,Hi,,,,,,1,,,,,,,,low,1,0,1,0,1,,,,,,,,,
296164,2022-11-27_19h49.43.069,vts_reward_expectancy_bt,2022.2.4,MacIntel,60.0024001,Chrome,1440,900,,,,,1,810,,,,,,,,,,,,,,,,,160,B,hexagon,1,1,,,,,,,,,,,,,,,,repeat,letter,lettRpt,j,0.6153,Lo,,,,,,1,,,,,,,,low,2,0,2,0,1,,,,,,,,,
296164,2022-11-27_19h49.43.069,vts_reward_expectancy_bt,2022.2.4,MacIntel,60.0024001,Chrome,1440,900,,,,,0,810,,,,,,,,,,,,,,,,,146,S,triangle,1,0,,,,,,,,,,,,,,,,switch,number,numSwt,d,0.5605,Hi,,,,,,1,,,,,,,,low,3,0,3,0,1,,,,,,,,,
296164,2022-11-27_19h49.43.069,vts_reward_expectancy_bt,2022.2.4,MacIntel,60.0024001,Chrome,1440,900,,,,,0,810,,,,,,,,,,,,,,,,,139,H,circle,1,0,,,,,,,,,,,,,,,,repeat,number,numRpt,d,0.8014,Hi,,,,,,1,,,,,,,,low,4,0,4,0,1,,,,,,,,,
296164,2022-11-27_19h49.43.069,vts_reward_expectancy_bt,2022.2.4,MacIntel,60.0024001,Chrome,1440,900,,,,,10,820,,,,,,,,,,,,,,,,,125,Y,star,1,0,,,,,,,,,,,,,,,,repeat,number,numRpt,d,0.5398,Lo,,,,,,1,,,,,,,,low,5,0,5,0,1,,,,,,,,,
296164,2022-11-27_19h49.43.069,vts_reward_expectancy_bt,2022.2.4,MacIntel,60.0024001,Chrome,1440,900,,,,,1,821,,,,,,,,,,,,,,,,,132,D,hexagon,1,0,,,,,,,,,,,,,,,,repeat,number,numRpt,d,0.4833,Lo,,,,,,1,,,,,,,,low,6,0,6,0,1,,,,,,,,,
296164,2022-11-27_19h49.43.069,vts_reward_expectancy_bt,2022.2.4,MacIntel,60.0024001,Chrome,1440,900,,,,,10,831,,,,,,,,,,,,,,,,,174,W,triangle,1,0,,,,,,,,,,,,,,,,switch,letter,lettSwt,k,0.4629,Hi,,,,,,1,,,,,,,,low,7,0,7,0,1,,,,,,,,,
296164,2022-11-27_19h49.43.069,vts_reward_expectancy_bt,2022.2.4,MacIntel,60.0024001,Chrome,1440,900,,,,,0,831,,,,,,,,,,,,,,,,,181,F,circle,1,0,,,,,,,,,,,,,,,,repeat,letter,lettRpt,j,0.6796,Hi,,,,,,1,,,,,,,,low,8,0,8,0,1,,,,,,,,,
296164,2022-11-27_19h49.43.069,vts_reward_expectancy_bt,2022.2.4,MacIntel,60.0024001,Chrome,1440,900,,,,,1,832,,,,,,,,,,,,,,,,,167,U,hexagon,1,0,,,,,,,,,,,,,,,,repeat,letter,lettRpt,k,0.499,Lo,,,,,,1,,,,,,,,low,9,0,9,0,1,,,,,,,,,
296164,2022-11-27_19h49.43.069,vts_reward_expectancy_bt,2022.2.4,MacIntel,60.0024001,Chrome,1440,900,,,,,0,832,,,,,,,,,,,,,,,,,160,B,triangle,1,0,,,,,,,,,,,,,,,,repeat,letter,lettRpt,j,0.5641,Hi,,,,,,1,,,,,,,,low,10,0,10,0,1,,,,,,,,,
296164,2022-11-27_19h49.43.069,vts_reward_expectancy_bt,2022.2.4,MacIntel,60.0024001,Chrome,1440,900,,,,,1,833,,,,,,,,,,,,,,,,,146,S,star,1,0,,,,,,,,,,,,,,,,repeat,letter,lettRpt,k,0.4992,Lo,,,,,,1,,,,,,,,low,11,0,11,0,1,,,,,,,,,
296164,2022-11-27_19h49.43.069,vts_reward_expectancy_bt,2022.2.4,MacIntel,60.0024001,Chrome,1440,900,,,,,0,833,,,,,,,,,,,,,,,,,139,H,triangle,1,0,,,,,,,,,,,,,,,,repeat,letter,lettRpt,j,0.5504,Hi,,,,,,1,,,,,,,,low,12,0,12,0,1,,,,,,,,,
296164,2022-11-27_19h49.43.069,vts_reward_expectancy_bt,2022.2.4,MacIntel,60.0024001,Chrome,1440,900,,,,,10,843,,,,,,,,,,,,,,,,,125,Y,star,1,0,,,,,,,,,,,,,,,,repeat,letter,lettRpt,k,0.4638,Lo,,,,,,1,,,,,,,,low,13,0,13,0,1,,,,,,,,,
296164,2022-11-27_19h49.43.069,vts_reward_expectancy_bt,2022.2.4,MacIntel,60.0024001,Chrome,1440,900,,,,,1,844,,,,,,,,,,,,,,,,,132,D,circle,1,0,,,,,,,,,,,,,,,,repeat,letter,lettRpt,j,0.3499,Hi,,,,,,1,,,,,,,,low,14,0,14,0,1,,,,,,,,,
296164,2022-11-27_19h49.43.069,vts_reward_expectancy_bt,2022.2.4,MacIntel,60.0024001,Chrome,1440,900,,,,,10,854,,,,,,,,,,,,,,,,,174,W,hexagon,1,0,,,,,,,,,,,,,,,,switch,number,numSwt,f,0.6122,Lo,,,,,,1,,,,,,,,low,15,0,15,0,1,,,,,,,,,
296164,2022-11-27_19h49.43.069,vts_reward_expectancy_bt,2022.2.4,MacIntel,60.0024001,Chrome,1440,900,,,,,1,855,,,,,,,,,,,,,,,,,125,S,star,1,0,,,,,,,,,,,,,,,,repeat,number,numRpt,d,0.446,Lo,,,,,,1,,,,,,,,low,16,0,16,0,1,,,,,,,,,
296164,2022-11-27_19h49.43.069,vts_reward_expectancy_bt,2022.2.4,MacIntel,60.0024001,Chrome,1440,900,,,,,0,855,,,,,,,,,,,,,,,,,132,Y,circle,1,0,,,,,,,,,,,,,,,,repeat,number,numRpt,d,0.4626,Hi,,,,,,1,,,,,,,,low,17,0,17,0,1,,,,,,,,,
296164,2022-11-27_19h49.43.069,vts_reward_expectancy_bt,2022.2.4,MacIntel,60.0024001,Chrome,1440,900,,,,,0,855,,,,,,,,,,,,,,,,,139,F,triangle,1,0,,,,,,,,,,,,,,,,repeat,number,numRpt,d,0.5139,Hi,,,,,,1,,,,,,,,low,18,0,18,0,1,,,,,,,,,
296164,2022-11-27_19h49.43.069,vts_reward_expectancy_bt,2022.2.4,MacIntel,60.0024001,Chrome,1440,900,,,,,0,855,,,,,,,,,,,,,,,,,174,W,hexagon,0,0,,,,,,,,,,,,,,,,repeat,number,NA,d,0.1216,Hi,,,,,,1,,,,,,,,low,19,0,19,0,1,,,,,,,,,
296164,2022-11-27_19h49.43.069,vts_reward_expectancy_bt,2022.2.4,MacIntel,60.0024001,Chrome,1440,900,,,,,10,865,,,,,,,,,,,,,,,,,167,U,hexagon,1,1,,,,,,,,,,,,,,,,repeat,number,numRpt,f,0.0538,Lo,,,,,,1,,,,,,,,low,20,0,20,0,1,,,,,,,,,
296164,2022-11-27_19h49.43.069,vts_reward_expectancy_bt,2022.2.4,MacIntel,60.0024001,Chrome,1440,900,,,,,10,875,,,,,,,,,,,,,,,,,181,H,circle,1,0,,,,,,,,,,,,,,,,switch,letter,lettSwt,j,0.4482,Hi,,,,,,1,,,,,,,,low,21,0,21,0,1,,,,,,,,,
296164,2022-11-27_19h49.43.069,vts_reward_expectancy_bt,2022.2.4,MacIntel,60.0024001,Chrome,1440,900,,,,,0,875,,,,,,,,,,,,,,,,,160,B,triangle,0,0,,,,,,,,,,,,,,,,repeat,letter,NA,k,1.0862,Hi,,,,,,1,,,,,,,,low,22,0,22,0,1,,,,,,,,,
296164,2022-11-27_19h49.43.069,vts_reward_expectancy_bt,2022.2.4,MacIntel,60.0024001,Chrome,1440,900,,,,,0,875,,,,,,,,,,,,,,,,,146,D,star,0,1,,,,,,,,,,,,,,,,repeat,letter,NA,k,0.4162,Hi,,,,,,1,,,,,,,,low,23,0,23,0,1,,,,,,,,,
296164,2022-11-27_19h49.43.069,vts_reward_expectancy_bt,2022.2.4,MacIntel,60.0024001,Chrome,1440,900,,,,,1,876,,,,,,,,,,,,,,,,,139,H,triangle,1,1,,,,,,,,,,,,,,,,repeat,letter,lettRpt,j,0.3938,Hi,,,,,,1,,,,,,,,low,24,0,24,0,1,,,,,,,,,
296164,2022-11-27_19h49.43.069,vts_reward_expectancy_bt,2022.2.4,MacIntel,60.0024001,Chrome,1440,900,,,,,1,877,,,,,,,,,,,,,,,,,174,B,circle,1,0,,,,,,,,,,,,,,,,repeat,letter,lettRpt,j,0.0004,Hi,,,,,,1,,,,,,,,low,25,0,25,0,1,,,,,,,,,
296164,2022-11-27_19h49.43.069,vts_reward_expectancy_bt,2022.2.4,MacIntel,60.0024001,Chrome,1440,900,,,,,10,887,,,,,,,,,,,,,,,,,132,D,star,1,0,,,,,,,,,,,,,,,,repeat,letter,lettRpt,j,0.0619,Lo,,,,,,1,,,,,,,,low,26,0,26,0,1,,,,,,,,,
296164,2022-11-27_19h49.43.069,vts_reward_expectancy_bt,2022.2.4,MacIntel,60.0024001,Chrome,1440,900,,,,,10,897,,,,,,,,,,,,,,,,,160,F,hexagon,1,0,,,,,,,,,,,,,,,,switch,number,numSwt,f,0.4652,Lo,,,,,,1,,,,,,,,low,27,0,27,0,1,,,,,,,,,
296164,2022-11-27_19h49.43.069,vts_reward_expectancy_bt,2022.2.4,MacIntel,60.0024001,Chrome,1440,900,,,,,10,907,,,,,,,,,,,,,,,,,146,U,star,1,0,,,,,,,,,,,,,,,,repeat,number,numRpt,d,0.0363,Lo,,,,,,1,,,,,,,,low,28,0,28,0,1,,,,,,,,,
296164,2022-11-27_19h49.43.069,vts_reward_expectancy_bt,2022.2.4,MacIntel,60.0024001,Chrome,1440,900,,,,,0,907,,,,,,,,,,,,,,,,,125,W,triangle,0,0,,,,,,,,,,,,,,,,switch,letter,NA,j,0.1491,Lo,,,,,,1,,,,,,,,low,29,0,29,0,1,,,,,,,,,
296164,2022-11-27_19h49.43.069,vts_reward_expectancy_bt,2022.2.4,MacIntel,60.0024001,Chrome,1440,900,,,,,0,907,,,,,,,,,,,,,,,,,167,Y,circle,0,1,,,,,,,,,,,,,,,,repeat,letter,NA,j,0.1026,Lo,,,,,,1,,,,,,,,low,30,0,30,0,1,,,,,,,,,
296164,2022-11-27_19h49.43.069,vts_reward_expectancy_bt,2022.2.4,MacIntel,60.0024001,Chrome,1440,900,,,,,0,907,,,,,,,,,,,,,,,,,181,S,hexagon,0,1,,,,,,,,,,,,,,,,repeat,letter,NA,j,0.0029,Lo,,,,,,1,,,,,,,,low,31,0,31,0,1,,,,,,,,,
296164,2022-11-27_19h49.43.069,vts_reward_expectancy_bt,2022.2.4,MacIntel,60.0024001,Chrome,1440,900,,,,,10,917,,,,,,,,,,,,,,,,,167,Y,triangle,1,1,,,,,,,,,,,,,,,,repeat,letter,lettRpt,k,0.0466,Hi,,,,,,2,,,,,,space,0.8132,low,0,0,0,0,1,,,,,,,,,
296164,2022-11-27_19h49.43.069,vts_reward_expectancy_bt,2022.2.4,MacIntel,60.0024001,Chrome,1440,900,,,,,0,917,,,,,,,,,,,,,,,,,181,D,circle,1,0,,,,,,,,,,,,,,,,repeat,letter,lettRpt,j,0.4624,Hi,,,,,,2,,,,,,,,low,1,0,1,0,1,,,,,,,,,
296164,2022-11-27_19h49.43.069,vts_reward_expectancy_bt,2022.2.4,MacIntel,60.0024001,Chrome,1440,900,,,,,0,917,,,,,,,,,,,,,,,,,174,S,star,0,0,,,,,,,,,,,,,,,,switch,number,NA,d,0.1625,Hi,,,,,,2,,,,,,,,low,2,0,2,0,1,,,,,,,,,
296164,2022-11-27_19h49.43.069,vts_reward_expectancy_bt,2022.2.4,MacIntel,60.0024001,Chrome,1440,900,,,,,10,927,,,,,,,,,,,,,,,,,146,W,hexagon,1,1,,,,,,,,,,,,,,,,repeat,number,numRpt,d,0.2135,Lo,,,,,,2,,,,,,,,low,3,0,3,0,1,,,,,,,,,
296164,2022-11-27_19h49.43.069,vts_reward_expectancy_bt,2022.2.4,MacIntel,60.0024001,Chrome,1440,900,,,,,1,928,,,,,,,,,,,,,,,,,132,U,triangle,1,0,,,,,,,,,,,,,,,,repeat,number,numRpt,d,0.01,Hi,,,,,,2,,,,,,,,low,4,0,4,0,1,,,,,,,,,
296164,2022-11-27_19h49.43.069,vts_reward_expectancy_bt,2022.2.4,MacIntel,60.0024001,Chrome,1440,900,,,,,0,928,,,,,,,,,,,,,,,,,125,H,circle,0,0,,,,,,,,,,,,,,,,repeat,number,NA,f,0.1991,Hi,,,,,,2,,,,,,,,low,5,0,5,0,1,,,,,,,,,
296164,2022-11-27_19h49.43.069,vts_reward_expectancy_bt,2022.2.4,MacIntel,60.0024001,Chrome,1440,900,,,,,1,929,,,,,,,,,,,,,,,,,139,F,star,1,1,,,,,,,,,,,,,,,,repeat,number,numRpt,d,0.4139,Lo,,,,,,2,,,,,,,,low,6,0,6,0,1,,,,,,,,,
296164,2022-11-27_19h49.43.069,vts_reward_expectancy_bt,2022.2.4,MacIntel,60.0024001,Chrome,1440,900,,,,,0,929,,,,,,,,,,,,,,,,,160,B,hexagon,0,0,,,,,,,,,,,,,,,,repeat,number,NA,d,0.3279,Lo,,,,,,2,,,,,,,,low,7,0,7,0,1,,,,,,,,,
296164,2022-11-27_19h49.43.069,vts_reward_expectancy_bt,2022.2.4,MacIntel,60.0024001,Chrome,1440,900,,,,,10,939,,,,,,,,,,,,,,,,,167,Y,circle,1,1,,,,,,,,,,,,,,,,repeat,number,numRpt,f,0.4463,Hi,,,,,,2,,,,,,,,low,8,0,8,0,1,,,,,,,,,
296164,2022-11-27_19h49.43.069,vts_reward_expectancy_bt,2022.2.4,MacIntel,60.0024001,Chrome,1440,900,,,,,10,949,,,,,,,,,,,,,,,,,181,D,hexagon,1,0,,,,,,,,,,,,,,,,switch,letter,lettSwt,j,0.3301,Lo,,,,,,2,,,,,,,,low,9,0,9,0,1,,,,,,,,,
296164,2022-11-27_19h49.43.069,vts_reward_expectancy_bt,2022.2.4,MacIntel,60.0024001,Chrome,1440,900,,,,,0,949,,,,,,,,,,,,,,,,,174,S,triangle,0,0,,,,,,,,,,,,,,,,repeat,letter,NA,j,0.4276,Lo,,,,,,2,,,,,,,,low,10,0,10,0,1,,,,,,,,,
296164,2022-11-27_19h49.43.069,vts_reward_expectancy_bt,2022.2.4,MacIntel,60.0024001,Chrome,1440,900,,,,,0,949,,,,,,,,,,,,,,,,,146,W,star,0,1,,,,,,,,,,,,,,,,repeat,letter,NA,j,0.4676,Lo,,,,,,2,,,,,,,,low,11,0,11,0,1,,,,,,,,,
296164,2022-11-27_19h49.43.069,vts_reward_expectancy_bt,2022.2.4,MacIntel,60.0024001,Chrome,1440,900,,,,,1,950,,,,,,,,,,,,,,,,,132,U,circle,1,1,,,,,,,,,,,,,,,,repeat,letter,lettRpt,k,0.0722,Hi,,,,,,2,,,,,,,,low,12,0,12,0,1,,,,,,,,,
296164,2022-11-27_19h49.43.069,vts_reward_expectancy_bt,2022.2.4,MacIntel,60.0024001,Chrome,1440,900,,,,,10,960,,,,,,,,,,,,,,,,,125,H,triangle,1,0,,,,,,,,,,,,,,,,switch,number,numSwt,d,0.2807,Hi,,,,,,2,,,,,,,,low,13,0,13,0,1,,,,,,,,,
296164,2022-11-27_19h49.43.069,vts_reward_expectancy_bt,2022.2.4,MacIntel,60.0024001,Chrome,1440,900,,,,,0,960,,,,,,,,,,,,,,,,,139,F,hexagon,0,0,,,,,,,,,,,,,,,,switch,letter,NA,k,0.3506,Hi,,,,,,2,,,,,,,,low,14,0,14,0,1,,,,,,,,,
296164,2022-11-27_19h49.43.069,vts_reward_expectancy_bt,2022.2.4,MacIntel,60.0024001,Chrome,1440,900,,,,,0,960,,,,,,,,,,,,,,,,,160,B,star,0,1,,,,,,,,,,,,,,,,repeat,letter,NA,k,0.3797,Hi,,,,,,2,,,,,,,,low,15,0,15,0,1,,,,,,,,,
296164,2022-11-27_19h49.43.069,vts_reward_expectancy_bt,2022.2.4,MacIntel,60.0024001,Chrome,1440,900,,,,,0,960,,,,,,,,,,,,,,,,,132,B,triangle,0,1,,,,,,,,,,,,,,,,repeat,letter,NA,k,0.2908,Hi,,,,,,2,,,,,,,,low,16,0,16,0,1,,,,,,,,,
296164,2022-11-27_19h49.43.069,vts_reward_expectancy_bt,2022.2.4,MacIntel,60.0024001,Chrome,1440,900,,,,,0,960,,,,,,,,,,,,,,,,,167,S,circle,0,1,,,,,,,,,,,,,,,,repeat,letter,NA,j,0.5795,Hi,,,,,,2,,,,,,,,low,17,0,17,0,1,,,,,,,,,
296164,2022-11-27_19h49.43.069,vts_reward_expectancy_bt,2022.2.4,MacIntel,60.0024001,Chrome,1440,900,,,,,0,960,,,,,,,,,,,,,,,,,139,U,hexagon,0,1,,,,,,,,,,,,,,,,repeat,letter,NA,j,0.3564,Hi,,,,,,2,,,,,,,,low,18,0,18,0,1,,,,,,,,,
296164,2022-11-27_19h49.43.069,vts_reward_expectancy_bt,2022.2.4,MacIntel,60.0024001,Chrome,1440,900,,,,,0,960,,,,,,,,,,,,,,,,,160,F,star,0,1,,,,,,,,,,,,,,,,switch,number,NA,d,0.0679,Hi,,,,,,2,,,,,,,,low,19,0,19,0,1,,,,,,,,,
296164,2022-11-27_19h49.43.069,vts_reward_expectancy_bt,2022.2.4,MacIntel,60.0024001,Chrome,1440,900,,,,,1,961,,,,,,,,,,,,,,,,,125,Y,hexagon,1,1,,,,,,,,,,,,,,,,repeat,number,numRpt,d,0.3098,Lo,,,,,,2,,,,,,,,low,20,0,20,0,1,,,,,,,,,
296164,2022-11-27_19h49.43.069,vts_reward_expectancy_bt,2022.2.4,MacIntel,60.0024001,Chrome,1440,900,,,,,10,971,,,,,,,,,,,,,,,,,146,D,circle,1,0,,,,,,,,,,,,,,,,repeat,number,numRpt,d,0.278,Hi,,,,,,2,,,,,,,,low,21,0,21,0,1,,,,,,,,,
296164,2022-11-27_19h49.43.069,vts_reward_expectancy_bt,2022.2.4,MacIntel,60.0024001,Chrome,1440,900,,,,,0,971,,,,,,,,,,,,,,,,,181,H,star,0,0,,,,,,,,,,,,,,,,switch,letter,NA,k,0.2123,Hi,,,,,,2,,,,,,,,low,22,0,22,0,1,,,,,,,,,
296164,2022-11-27_19h49.43.069,vts_reward_expectancy_bt,2022.2.4,MacIntel,60.0024001,Chrome,1440,900,,,,,10,981,,,,,,,,,,,,,,,,,174,W,triangle,1,1,,,,,,,,,,,,,,,,repeat,letter,lettRpt,k,0.2645,Hi,,,,,,2,,,,,,,,low,23,0,23,0,1,,,,,,,,,
296164,2022-11-27_19h49.43.069,vts_reward_expectancy_bt,2022.2.4,MacIntel,60.0024001,Chrome,1440,900,,,,,0,981,,,,,,,,,,,,,,,,,181,H,circle,0,0,,,,,,,,,,,,,,,,repeat,letter,NA,k,0.1712,Hi,,,,,,2,,,,,,,,low,24,0,24,0,1,,,,,,,,,
296164,2022-11-27_19h49.43.069,vts_reward_expectancy_bt,2022.2.4,MacIntel,60.0024001,Chrome,1440,900,,,,,0,981,,,,,,,,,,,,,,,,,146,U,triangle,0,1,,,,,,,,,,,,,,,,repeat,letter,NA,j,0.2133,Hi,,,,,,2,,,,,,,,low,25,0,25,0,1,,,,,,,,,
296164,2022-11-27_19h49.43.069,vts_reward_expectancy_bt,2022.2.4,MacIntel,60.0024001,Chrome,1440,900,,,,,10,991,,,,,,,,,,,,,,,,,125,F,hexagon,1,1,,,,,,,,,,,,,,,,repeat,letter,lettRpt,j,0.0222,Lo,,,,,,2,,,,,,,,low,26,0,26,0,1,,,,,,,,,
296164,2022-11-27_19h49.43.069,vts_reward_expectancy_bt,2022.2.4,MacIntel,60.0024001,Chrome,1440,900,,,,,1,992,,,,,,,,,,,,,,,,,160,B,star,1,0,,,,,,,,,,,,,,,,repeat,letter,lettRpt,j,0.1102,Lo,,,,,,2,,,,,,,,low,27,0,27,0,1,,,,,,,,,
296164,2022-11-27_19h49.43.069,vts_reward_expectancy_bt,2022.2.4,MacIntel,60.0024001,Chrome,1440,900,,,,,0,992,,,,,,,,,,,,,,,,,174,S,hexagon,0,0,,,,,,,,,,,,,,,,switch,number,NA,d,0.0278,Lo,,,,,,2,,,,,,,,low,28,0,28,0,1,,,,,,,,,
296164,2022-11-27_19h49.43.069,vts_reward_expectancy_bt,2022.2.4,MacIntel,60.0024001,Chrome,1440,900,,,,,10,1002,,,,,,,,,,,,,,,,,139,W,circle,1,1,,,,,,,,,,,,,,,,repeat,number,numRpt,d,0.2819,Hi,,,,,,2,,,,,,,,low,29,0,29,0,1,,,,,,,,,
296164,2022-11-27_19h49.43.069,vts_reward_expectancy_bt,2022.2.4,MacIntel,60.0024001,Chrome,1440,900,,,,,10,1012,,,,,,,,,,,,,,,,,132,D,triangle,1,0,,,,,,,,,,,,,,,,repeat,number,numRpt,d,0.4234,Hi,,,,,,2,,,,,,,,low,30,0,30,0,1,,,,,,,,,
296164,2022-11-27_19h49.43.069,vts_reward_expectancy_bt,2022.2.4,MacIntel,60.0024001,Chrome,1440,900,,,,,1,1013,,,,,,,,,,,,,,,,,167,Y,star,1,0,,,,,,,,,,,,,,,,repeat,number,numRpt,f,0.0367,Lo,,,,,,2,,,,,,,,low,31,0,31,0,1,,,,,,,,,
296164,2022-11-27_19h49.43.069,vts_reward_expectancy_bt,2022.2.4,MacIntel,60.0024001,Chrome,1440,900,,,,,1,1014,,,,,,,,,,,,,,,,,132,S,hexagon,1,0,,,,,,,,,,,,,,,,repeat,number,numRpt,d,0.2977,Lo,,,,,,3,,,,,,space,0.8393,low,0,0,0,0,1,,,,,,,,,
296164,2022-11-27_19h49.43.069,vts_reward_expectancy_bt,2022.2.4,MacIntel,60.0024001,Chrome,1440,900,,,,,0,1014,,,,,,,,,,,,,,,,,181,U,star,0,0,,,,,,,,,,,,,,,,repeat,number,NA,d,0.3459,Lo,,,,,,3,,,,,,,,low,1,0,1,0,1,,,,,,,,,
296164,2022-11-27_19h49.43.069,vts_reward_expectancy_bt,2022.2.4,MacIntel,60.0024001,Chrome,1440,900,,,,,10,1024,,,,,,,,,,,,,,,,,139,W,triangle,1,1,,,,,,,,,,,,,,,,repeat,number,numRpt,d,0.0003,Hi,,,,,,3,,,,,,,,low,2,0,2,0,1,,,,,,,,,
296164,2022-11-27_19h49.43.069,vts_reward_expectancy_bt,2022.2.4,MacIntel,60.0024001,Chrome,1440,900,,,,,0,1024,,,,,,,,,,,,,,,,,174,D,circle,0,0,,,,,,,,,,,,,,,,switch,letter,NA,k,0.148,Hi,,,,,,3,,,,,,,,low,3,0,3,0,1,,,,,,,,,
296164,2022-11-27_19h49.43.069,vts_reward_expectancy_bt,2022.2.4,MacIntel,60.0024001,Chrome,1440,900,,,,,0,1024,,,,,,,,,,,,,,,,,160,Y,hexagon,0,1,,,,,,,,,,,,,,,,repeat,letter,NA,j,0.0286,Hi,,,,,,3,,,,,,,,low,4,0,4,0,1,,,,,,,,,
296164,2022-11-27_19h49.43.069,vts_reward_expectancy_bt,2022.2.4,MacIntel,60.0024001,Chrome,1440,900,,,,,1,1025,,,,,,,,,,,,,,,,,146,F,star,1,1,,,,,,,,,,,,,,,,repeat,letter,lettRpt,j,0.4341,Lo,,,,,,3,,,,,,,,low,5,0,5,0,1,,,,,,,,,
296164,2022-11-27_19h49.43.069,vts_reward_expectancy_bt,2022.2.4,MacIntel,60.0024001,Chrome,1440,900,,,,,0,1025,,,,,,,,,,,,,,,,,125,H,triangle,0,0,,,,,,,,,,,,,,,,repeat,letter,NA,k,0.2481,Lo,,,,,,3,,,,,,,,low,6,0,6,0,1,,,,,,,,,
296164,2022-11-27_19h49.43.069,vts_reward_expectancy_bt,2022.2.4,MacIntel,60.0024001,Chrome,1440,900,,,,,0,1025,,,,,,,,,,,,,,,,,167,B,circle,0,1,,,,,,,,,,,,,,,,repeat,letter,NA,k,0.1397,Lo,,,,,,3,,,,,,,,low,7,0,7,0,1,,,,,,,,,
296164,2022-11-27_19h49.43.069,vts_reward_expectancy_bt,2022.2.4,MacIntel,60.0024001,Chrome,1440,900,,,,,0,1025,,,,,,,,,,,,,,,,,132,S,hexagon,0,1,,,,,,,,,,,,,,,,repeat,letter,NA,j,0.5293,Lo,,,,,,3,,,,,,,,low,8,0,8,0,1,,,,,,,,,
296164,2022-11-27_19h49.43.069,vts_reward_expectancy_bt,2022.2.4,MacIntel,60.0024001,Chrome,1440,900,,,,,1,1026,,,,,,,,,,,,,,,,,181,U,star,1,1,,,,,,,,,,,,,,,,repeat,letter,lettRpt,k,0.3113,Lo,,,,,,3,,,,,,,,low,9,0,9,0,1,,,,,,,,,
296164,2022-11-27_19h49.43.069,vts_reward_expectancy_bt,2022.2.4,MacIntel,60.0024001,Chrome,1440,900,,,,,10,1036,,,,,,,,,,,,,,,,,139,W,circle,1,0,,,,,,,,,,,,,,,,switch,number,numSwt,d,0.0283,Hi,,,,,,3,,,,,,,,low,10,0,10,0,1,,,,,,,,,
296164,2022-11-27_19h49.43.069,vts_reward_expectancy_bt,2022.2.4,MacIntel,60.0024001,Chrome,1440,900,,,,,0,1036,,,,,,,,,,,,,,,,,174,D,triangle,0,0,,,,,,,,,,,,,,,,repeat,number,NA,d,0.3471,Hi,,,,,,3,,,,,,,,low,11,0,11,0,1,,,,,,,,,
296164,2022-11-27_19h49.43.069,vts_reward_expectancy_bt,2022.2.4,MacIntel,60.0024001,Chrome,1440,900,,,,,0,1036,,,,,,,,,,,,,,,,,160,Y,hexagon,0,1,,,,,,,,,,,,,,,,repeat,number,NA,d,0.0031,Hi,,,,,,3,,,,,,,,low,12,0,12,0,1,,,,,,,,,
296164,2022-11-27_19h49.43.069,vts_reward_expectancy_bt,2022.2.4,MacIntel,60.0024001,Chrome,1440,900,,,,,0,1036,,,,,,,,,,,,,,,,,146,F,circle,0,1,,,,,,,,,,,,,,,,repeat,number,NA,f,0.0013,Hi,,,,,,3,,,,,,,,low,13,0,13,0,1,,,,,,,,,
296164,2022-11-27_19h49.43.069,vts_reward_expectancy_bt,2022.2.4,MacIntel,60.0024001,Chrome,1440,900,,,,,0,1036,,,,,,,,,,,,,,,,,125,H,triangle,0,1,,,,,,,,,,,,,,,,repeat,number,NA,f,0.0459,Hi,,,,,,3,,,,,,,,low,14,0,14,0,1,,,,,,,,,
296164,2022-11-27_19h49.43.069,vts_reward_expectancy_bt,2022.2.4,MacIntel,60.0024001,Chrome,1440,900,,,,,10,1046,,,,,,,,,,,,,,,,,167,B,star,1,1,,,,,,,,,,,,,,,,repeat,number,numRpt,f,0.02,Lo,,,,,,3,,,,,,,,low,15,0,15,0,1,,,,,,,,,
296164,2022-11-27_19h49.43.069,vts_reward_expectancy_bt,2022.2.4,MacIntel,60.0024001,Chrome,1440,900,,,,,0,1046,,,,,,,,,,,,,,,,,181,B,star,0,0,,,,,,,,,,,,,,,,repeat,number,NA,d,0.032,Lo,,,,,,3,,,,,,,,low,16,0,16,0,1,,,,,,,,,
296164,2022-11-27_19h49.43.069,vts_reward_expectancy_bt,2022.2.4,MacIntel,60.0024001,Chrome,1440,900,,,,,10,1056,,,,,,,,,,,,,,,,,160,F,hexagon,1,1,,,,,,,,,,,,,,,,switch,letter,lettSwt,j,0.1631,Lo,,,,,,3,,,,,,,,low,17,0,17,0,1,,,,,,,,,
296164,2022-11-27_19h49.43.069,vts_reward_expectancy_bt,2022.2.4,MacIntel,60.0024001,Chrome,1440,900,,,,,0,1056,,,,,,,,,,,,,,,,,174,S,circle,0,0,,,,,,,,,,,,,,,,repeat,letter,NA,j,0.162,Lo,,,,,,3,,,,,,,,low,18,0,18,0,1,,,,,,,,,
296164,2022-11-27_19h49.43.069,vts_reward_expectancy_bt,2022.2.4,MacIntel,60.0024001,Chrome,1440,900,,,,,0,1056,,,,,,,,,,,,,,,,,146,U,triangle,0,1,,,,,,,,,,,,,,,,repeat,letter,NA,j,0.0214,Lo,,,,,,3,,,,,,,,low,19,0,19,0,1,,,,,,,,,
296164,2022-11-27_19h49.43.069,vts_reward_expectancy_bt,2022.2.4,MacIntel,60.0024001,Chrome,1440,900,,,,,0,1056,,,,,,,,,,,,,,,,,125,H,star,0,1,,,,,,,,,,,,,,,,repeat,letter,NA,k,0.1312,Lo,,,,,,3,,,,,,,,low,20,0,20,0,1,,,,,,,,,
296164,2022-11-27_19h49.43.069,vts_reward_expectancy_bt,2022.2.4,MacIntel,60.0024001,Chrome,1440,900,,,,,1,1057,,,,,,,,,,,,,,,,,132,Y,hexagon,1,1,,,,,,,,,,,,,,,,repeat,letter,lettRpt,k,0.1181,Lo,,,,,,3,,,,,,,,low,21,0,21,0,1,,,,,,,,,
296164,2022-11-27_19h49.43.069,vts_reward_expectancy_bt,2022.2.4,MacIntel,60.0024001,Chrome,1440,900,,,,,0,1057,,,,,,,,,,,,,,,,,167,D,triangle,0,0,,,,,,,,,,,,,,,,repeat,letter,NA,k,0.0453,Lo,,,,,,3,,,,,,,,low,22,0,22,0,1,,,,,,,,,
296164,2022-11-27_19h49.43.069,vts_reward_expectancy_bt,2022.2.4,MacIntel,60.0024001,Chrome,1440,900,,,,,0,1057,,,,,,,,,,,,,,,,,139,W,circle,1,1,,,,,,,,,,,,,,,,switch,number,numSwt,d,0.2836,Hi,,,,,,3,,,,,,,,low,23,0,23,0,1,,,,,,,,,
296164,2022-11-27_19h49.43.069,vts_reward_expectancy_bt,2022.2.4,MacIntel,60.0024001,Chrome,1440,900,,,,,0,1057,,,,,,,,,,,,,,,,,160,S,star,0,0,,,,,,,,,,,,,,,,repeat,number,NA,d,0.296,Hi,,,,,,3,,,,,,,,low,24,0,24,0,1,,,,,,,,,
296164,2022-11-27_19h49.43.069,vts_reward_expectancy_bt,2022.2.4,MacIntel,60.0024001,Chrome,1440,900,,,,,0,1057,,,,,,,,,,,,,,,,,132,D,circle,0,1,,,,,,,,,,,,,,,,repeat,number,NA,f,0.1986,Hi,,,,,,3,,,,,,,,low,25,0,25,0,1,,,,,,,,,
296164,2022-11-27_19h49.43.069,vts_reward_expectancy_bt,2022.2.4,MacIntel,60.0024001,Chrome,1440,900,,,,,0,1057,,,,,,,,,,,,,,,,,146,B,triangle,0,1,,,,,,,,,,,,,,,,repeat,number,NA,f,0.383,Hi,,,,,,3,,,,,,,,low,26,0,26,0,1,,,,,,,,,
296164,2022-11-27_19h49.43.069,vts_reward_expectancy_bt,2022.2.4,MacIntel,60.0024001,Chrome,1440,900,,,,,1,1058,,,,,,,,,,,,,,,,,125,F,hexagon,1,1,,,,,,,,,,,,,,,,repeat,number,numRpt,d,0.0324,Lo,,,,,,3,,,,,,,,low,27,0,27,0,1,,,,,,,,,
296164,2022-11-27_19h49.43.069,vts_reward_expectancy_bt,2022.2.4,MacIntel,60.0024001,Chrome,1440,900,,,,,0,1058,,,,,,,,,,,,,,,,,181,Y,triangle,0,0,,,,,,,,,,,,,,,,switch,letter,NA,j,0.0894,Lo,,,,,,3,,,,,,,,low,28,0,28,0,1,,,,,,,,,
296164,2022-11-27_19h49.43.069,vts_reward_expectancy_bt,2022.2.4,MacIntel,60.0024001,Chrome,1440,900,,,,,0,1058,,,,,,,,,,,,,,,,,167,W,hexagon,0,1,,,,,,,,,,,,,,,,repeat,letter,NA,j,0.1122,Lo,,,,,,3,,,,,,,,low,29,0,29,0,1,,,,,,,,,
296164,2022-11-27_19h49.43.069,vts_reward_expectancy_bt,2022.2.4,MacIntel,60.0024001,Chrome,1440,900,,,,,0,1058,,,,,,,,,,,,,,,,,174,U,star,0,1,,,,,,,,,,,,,,,,repeat,letter,NA,j,0.1346,Lo,,,,,,3,,,,,,,,low,30,0,30,0,1,,,,,,,,,
296164,2022-11-27_19h49.43.069,vts_reward_expectancy_bt,2022.2.4,MacIntel,60.0024001,Chrome,1440,900,,,,,0,1058,,,,,,,,,,,,,,,,,139,H,circle,1,1,,,,,,,,,,,,,,,,repeat,letter,lettRpt,j,0.1678,Hi,,,,,,3,,,,,,,,low,31,0,31,0,1,,,,,,,,,
296164,2022-11-27_19h49.43.069,vts_reward_expectancy_bt,2022.2.4,MacIntel,60.0024001,Chrome,1440,900,,,,,0,1058,,,,,,,,,,,,,,,,,139,Y,circle,1,0,,,,,,,,,,,,,,,,switch,number,numSwt,d,0.1845,Hi,,,,,,4,,,,,,space,0.7284,low,0,0,0,0,1,,,,,,,,,
296164,2022-11-27_19h49.43.069,vts_reward_expectancy_bt,2022.2.4,MacIntel,60.0024001,Chrome,1440,900,,,,,0,1058,,,,,,,,,,,,,,,,,160,D,triangle,0,0,,,,,,,,,,,,,,,,repeat,number,NA,d,0.2105,Hi,,,,,,4,,,,,,,,low,1,0,1,0,1,,,,,,,,,
296164,2022-11-27_19h49.43.069,vts_reward_expectancy_bt,2022.2.4,MacIntel,60.0024001,Chrome,1440,900,,,,,0,1058,,,,,,,,,,,,,,,,,181,S,hexagon,0,1,,,,,,,,,,,,,,,,switch,letter,NA,j,0.0362,Hi,,,,,,4,,,,,,,,low,2,0,2,0,1,,,,,,,,,
296164,2022-11-27_19h49.43.069,vts_reward_expectancy_bt,2022.2.4,MacIntel,60.0024001,Chrome,1440,900,,,,,1,1059,,,,,,,,,,,,,,,,,174,B,star,1,1,,,,,,,,,,,,,,,,repeat,letter,lettRpt,j,0.146,Lo,,,,,,4,,,,,,,,low,3,0,3,0,1,,,,,,,,,
296164,2022-11-27_19h49.43.069,vts_reward_expectancy_bt,2022.2.4,MacIntel,60.0024001,Chrome,1440,900,,,,,0,1059,,,,,,,,,,,,,,,,,146,U,circle,0,0,,,,,,,,,,,,,,,,repeat,letter,NA,j,0.1615,Lo,,,,,,4,,,,,,,,low,4,0,4,0,1,,,,,,,,,
296164,2022-11-27_19h49.43.069,vts_reward_expectancy_bt,2022.2.4,MacIntel,60.0024001,Chrome,1440,900,,,,,0,1059,,,,,,,,,,,,,,,,,167,F,triangle,1,1,,,,,,,,,,,,,,,,switch,number,numSwt,f,0.0825,Hi,,,,,,4,,,,,,,,low,5,0,5,0,1,,,,,,,,,
296164,2022-11-27_19h49.43.069,vts_reward_expectancy_bt,2022.2.4,MacIntel,60.0024001,Chrome,1440,900,,,,,0,1059,,,,,,,,,,,,,,,,,125,H,hexagon,0,0,,,,,,,,,,,,,,,,repeat,number,NA,f,0.147,Hi,,,,,,4,,,,,,,,low,6,0,6,0,1,,,,,,,,,
296164,2022-11-27_19h49.43.069,vts_reward_expectancy_bt,2022.2.4,MacIntel,60.0024001,Chrome,1440,900,,,,,0,1059,,,,,,,,,,,,,,,,,132,W,star,0,1,,,,,,,,,,,,,,,,switch,letter,NA,j,0.0004,Hi,,,,,,4,,,,,,,,low,7,0,7,0,1,,,,,,,,,
296164,2022-11-27_19h49.43.069,vts_reward_expectancy_bt,2022.2.4,MacIntel,60.0024001,Chrome,1440,900,,,,,1,1060,,,,,,,,,,,,,,,,,139,Y,star,1,1,,,,,,,,,,,,,,,,repeat,letter,lettRpt,k,0.1482,Lo,,,,,,4,,,,,,,,low,8,0,8,0,1,,,,,,,,,
296164,2022-11-27_19h49.43.069,vts_reward_expectancy_bt,2022.2.4,MacIntel,60.0024001,Chrome,1440,900,,,,,10,1070,,,,,,,,,,,,,,,,,160,D,hexagon,1,0,,,,,,,,,,,,,,,,switch,number,numSwt,f,0.0868,Lo,,,,,,4,,,,,,,,low,9,0,9,0,1,,,,,,,,,
296164,2022-11-27_19h49.43.069,vts_reward_expectancy_bt,2022.2.4,MacIntel,60.0024001,Chrome,1440,900,,,,,0,1070,,,,,,,,,,,,,,,,,181,S,triangle,1,0,,,,,,,,,,,,,,,,repeat,number,numRpt,f,0.1348,Hi,,,,,,4,,,,,,,,low,10,0,10,0,1,,,,,,,,,
296164,2022-11-27_19h49.43.069,vts_reward_expectancy_bt,2022.2.4,MacIntel,60.0024001,Chrome,1440,900,,,,,10,1080,,,,,,,,,,,,,,,,,174,B,circle,1,0,,,,,,,,,,,,,,,,switch,letter,lettSwt,j,0.0897,Hi,,,,,,4,,,,,,,,low,11,0,11,0,1,,,,,,,,,
296164,2022-11-27_19h49.43.069,vts_reward_expectancy_bt,2022.2.4,MacIntel,60.0024001,Chrome,1440,900,,,,,0,1080,,,,,,,,,,,,,,,,,146,U,triangle,0,0,,,,,,,,,,,,,,,,repeat,letter,NA,j,0.0294,Hi,,,,,,4,,,,,,,,low,12,0,12,0,1,,,,,,,,,
296164,2022-11-27_19h49.43.069,vts_reward_expectancy_bt,2022.2.4,MacIntel,60.0024001,Chrome,1440,900,,,,,1,1081,,,,,,,,,,,,,,,,,167,F,circle,1,1,,,,,,,,,,,,,,,,repeat,letter,lettRpt,j,0.0308,Hi,,,,,,4,,,,,,,,low,13,0,13,0,1,,,,,,,,,
296164,2022-11-27_19h49.43.069,vts_reward_expectancy_bt,2022.2.4,MacIntel,60.0024001,Chrome,1440,900,,,,,1,1082,,,,,,,,,,,,,,,,,125,H,hexagon,1,0,,,,,,,,,,,,,,,,switch,number,numSwt,d,0.0301,Lo,,,,,,4,,,,,,,,low,14,0,14,0,1,,,,,,,,,
296164,2022-11-27_19h49.43.069,vts_reward_expectancy_bt,2022.2.4,MacIntel,60.0024001,Chrome,1440,900,,,,,10,1092,,,,,,,,,,,,,,,,,132,W,star,1,0,,,,,,,,,,,,,,,,repeat,number,numRpt,d,0.0049,Lo,,,,,,4,,,,,,,,low,15,0,15,0,1,,,,,,,,,
296164,2022-11-27_19h49.43.069,vts_reward_expectancy_bt,2022.2.4,MacIntel,60.0024001,Chrome,1440,900,,,,,0,1092,,,,,,,,,,,,,,,,,132,D,star,0,0,,,,,,,,,,,,,,,,switch,letter,NA,k,0.1985,Lo,,,,,,4,,,,,,,,low,16,0,16,0,1,,,,,,,,,
296164,2022-11-27_19h49.43.069,vts_reward_expectancy_bt,2022.2.4,MacIntel,60.0024001,Chrome,1440,900,,,,,10,1102,,,,,,,,,,,,,,,,,146,H,hexagon,1,1,,,,,,,,,,,,,,,,repeat,letter,lettRpt,j,0.1651,Lo,,,,,,4,,,,,,,,low,17,0,17,0,1,,,,,,,,,
296164,2022-11-27_19h49.43.069,vts_reward_expectancy_bt,2022.2.4,MacIntel,60.0024001,Chrome,1440,900,,,,,0,1102,,,,,,,,,,,,,,,,,174,F,circle,1,0,,,,,,,,,,,,,,,,repeat,letter,lettRpt,j,0.3714,Hi,,,,,,4,,,,,,,,low,18,0,18,0,1,,,,,,,,,
296164,2022-11-27_19h49.43.069,vts_reward_expectancy_bt,2022.2.4,MacIntel,60.0024001,Chrome,1440,900,,,,,0,1102,,,,,,,,,,,,,,,,,139,S,triangle,0,0,,,,,,,,,,,,,,,,switch,number,NA,f,0.1305,Hi,,,,,,4,,,,,,,,low,19,0,19,0,1,,,,,,,,,
296164,2022-11-27_19h49.43.069,vts_reward_expectancy_bt,2022.2.4,MacIntel,60.0024001,Chrome,1440,900,,,,,0,1102,,,,,,,,,,,,,,,,,160,B,triangle,1,1,,,,,,,,,,,,,,,,repeat,number,numRpt,f,0.1016,Hi,,,,,,4,,,,,,,,low,20,0,20,0,1,,,,,,,,,
296164,2022-11-27_19h49.43.069,vts_reward_expectancy_bt,2022.2.4,MacIntel,60.0024001,Chrome,1440,900,,,,,10,1112,,,,,,,,,,,,,,,,,181,W,hexagon,1,0,,,,,,,,,,,,,,,,repeat,number,numRpt,f,0.2468,Lo,,,,,,4,,,,,,,,low,21,0,21,0,1,,,,,,,,,
296164,2022-11-27_19h49.43.069,vts_reward_expectancy_bt,2022.2.4,MacIntel,60.0024001,Chrome,1440,900,,,,,10,1122,,,,,,,,,,,,,,,,,125,U,star,1,0,,,,,,,,,,,,,,,,repeat,number,numRpt,d,0.0063,Lo,,,,,,4,,,,,,,,low,22,0,22,0,1,,,,,,,,,
296164,2022-11-27_19h49.43.069,vts_reward_expectancy_bt,2022.2.4,MacIntel,60.0024001,Chrome,1440,900,,,,,0,1122,,,,,,,,,,,,,,,,,167,Y,circle,0,0,,,,,,,,,,,,,,,,repeat,number,NA,d,0.0883,Lo,,,,,,4,,,,,,,,low,23,0,23,0,1,,,,,,,,,
296164,2022-11-27_19h49.43.069,vts_reward_expectancy_bt,2022.2.4,MacIntel,60.0024001,Chrome,1440,900,,,,,0,1122,,,,,,,,,,,,,,,,,139,D,hexagon,0,1,,,,,,,,,,,,,,,,repeat,number,NA,f,0.2365,Lo,,,,,,4,,,,,,,,low,24,0,24,0,1,,,,,,,,,
296164,2022-11-27_19h49.43.069,vts_reward_expectancy_bt,2022.2.4,MacIntel,60.0024001,Chrome,1440,900,,,,,0,1122,,,,,,,,,,,,,,,,,167,S,triangle,0,1,,,,,,,,,,,,,,,,switch,letter,NA,j,0.2698,Lo,,,,,,4,,,,,,,,low,25,0,25,0,1,,,,,,,,,
296164,2022-11-27_19h49.43.069,vts_reward_expectancy_bt,2022.2.4,MacIntel,60.0024001,Chrome,1440,900,,,,,10,1132,,,,,,,,,,,,,,,,,125,Y,circle,1,1,,,,,,,,,,,,,,,,repeat,letter,lettRpt,k,0.1642,Hi,,,,,,4,,,,,,,,low,26,0,26,0,1,,,,,,,,,
296164,2022-11-27_19h49.43.069,vts_reward_expectancy_bt,2022.2.4,MacIntel,60.0024001,Chrome,1440,900,,,,,1,1133,,,,,,,,,,,,,,,,,132,U,star,1,0,,,,,,,,,,,,,,,,repeat,letter,lettRpt,k,0.1828,Lo,,,,,,4,,,,,,,,low,27,0,27,0,1,,,,,,,,,
296164,2022-11-27_19h49.43.069,vts_reward_expectancy_bt,2022.2.4,MacIntel,60.0024001,Chrome,1440,900,,,,,0,1133,,,,,,,,,,,,,,,,,181,F,hexagon,0,0,,,,,,,,,,,,,,,,repeat,letter,NA,k,0.1299,Lo,,,,,,4,,,,,,,,low,28,0,28,0,1,,,,,,,,,
296164,2022-11-27_19h49.43.069,vts_reward_expectancy_bt,2022.2.4,MacIntel,60.0024001,Chrome,1440,900,,,,,0,1133,,,,,,,,,,,,,,,,,160,W,triangle,1,1,,,,,,,,,,,,,,,,repeat,letter,lettRpt,k,0.1757,Hi,,,,,,4,,,,,,,,low,29,0,29,0,1,,,,,,,,,
296164,2022-11-27_19h49.43.069,vts_reward_expectancy_bt,2022.2.4,MacIntel,60.0024001,Chrome,1440,900,,,,,0,1133,,,,,,,,,,,,,,,,,174,B,circle,0,0,,,,,,,,,,,,,,,,switch,number,NA,d,0.0184,Hi,,,,,,4,,,,,,,,low,30,0,30,0,1,,,,,,,,,
296164,2022-11-27_19h49.43.069,vts_reward_expectancy_bt,2022.2.4,MacIntel,60.0024001,Chrome,1440,900,,,,,10,1143,,,,,,,,,,,,,,,,,146,H,star,1,1,,,,,,,,,,,,,,,,repeat,number,numRpt,d,0.1064,Lo,,,,,,4,,,,,,,,low,31,0,31,0,1,,,,,,,,,
296164,2022-11-27_19h49.43.069,vts_reward_expectancy_bt,2022.2.4,MacIntel,60.0024001,Chrome,1440,900,,,,,0,1143,,,,,,,,,,,,,,,,,139,U,circle,1,0,,,,,,,,,,,,,,,,switch,letter,lettSwt,k,0.3763,Hi,,,,,,5,,,,,,space,1.207,low,0,0,0,0,1,,,,,,,,,
296164,2022-11-27_19h49.43.069,vts_reward_expectancy_bt,2022.2.4,MacIntel,60.0024001,Chrome,1440,900,,,,,0,1143,,,,,,,,,,,,,,,,,125,F,star,0,0,,,,,,,,,,,,,,,,repeat,letter,NA,k,0.1295,Hi,,,,,,5,,,,,,,,low,1,0,1,0,1,,,,,,,,,
296164,2022-11-27_19h49.43.069,vts_reward_expectancy_bt,2022.2.4,MacIntel,60.0024001,Chrome,1440,900,,,,,10,1153,,,,,,,,,,,,,,,,,167,D,hexagon,1,1,,,,,,,,,,,,,,,,repeat,letter,lettRpt,j,0.1154,Lo,,,,,,5,,,,,,,,low,2,0,2,0,1,,,,,,,,,
296164,2022-11-27_19h49.43.069,vts_reward_expectancy_bt,2022.2.4,MacIntel,60.0024001,Chrome,1440,900,,,,,1,1154,,,,,,,,,,,,,,,,,160,B,triangle,1,0,,,,,,,,,,,,,,,,repeat,letter,lettRpt,j,0.1465,Hi,,,,,,5,,,,,,,,low,3,0,3,0,1,,,,,,,,,
296164,2022-11-27_19h49.43.069,vts_reward_expectancy_bt,2022.2.4,MacIntel,60.0024001,Chrome,1440,900,,,,,0,1154,,,,,,,,,,,,,,,,,174,Y,circle,0,0,,,,,,,,,,,,,,,,switch,number,NA,d,0.0889,Hi,,,,,,5,,,,,,,,low,4,0,4,0,1,,,,,,,,,
296164,2022-11-27_19h49.43.069,vts_reward_expectancy_bt,2022.2.4,MacIntel,60.0024001,Chrome,1440,900,,,,,0,1154,,,,,,,,,,,,,,,,,146,W,star,0,1,,,,,,,,,,,,,,,,repeat,number,NA,f,0.0712,Hi,,,,,,5,,,,,,,,low,5,0,5,0,1,,,,,,,,,
296164,2022-11-27_19h49.43.069,vts_reward_expectancy_bt,2022.2.4,MacIntel,60.0024001,Chrome,1440,900,,,,,1,1155,,,,,,,,,,,,,,,,,132,H,hexagon,1,1,,,,,,,,,,,,,,,,repeat,number,numRpt,d,0.1809,Lo,,,,,,5,,,,,,,,low,6,0,6,0,1,,,,,,,,,
296164,2022-11-27_19h49.43.069,vts_reward_expectancy_bt,2022.2.4,MacIntel,60.0024001,Chrome,1440,900,,,,,0,1155,,,,,,,,,,,,,,,,,181,S,triangle,0,0,,,,,,,,,,,,,,,,repeat,number,NA,d,0.0005,Lo,,,,,,5,,,,,,,,low,7,0,7,0,1,,,,,,,,,
296164,2022-11-27_19h49.43.069,vts_reward_expectancy_bt,2022.2.4,MacIntel,60.0024001,Chrome,1440,900,,,,,10,1165,,,,,,,,,,,,,,,,,139,U,star,1,1,,,,,,,,,,,,,,,,repeat,number,numRpt,d,0.3958,Lo,,,,,,5,,,,,,,,low,8,0,8,0,1,,,,,,,,,
296164,2022-11-27_19h49.43.069,vts_reward_expectancy_bt,2022.2.4,MacIntel,60.0024001,Chrome,1440,900,,,,,0,1165,,,,,,,,,,,,,,,,,125,F,hexagon,0,0,,,,,,,,,,,,,,,,repeat,number,NA,f,0.0146,Lo,,,,,,5,,,,,,,,low,9,0,9,0,1,,,,,,,,,
296164,2022-11-27_19h49.43.069,vts_reward_expectancy_bt,2022.2.4,MacIntel,60.0024001,Chrome,1440,900,,,,,10,1175,,,,,,,,,,,,,,,,,167,D,circle,1,1,,,,,,,,,,,,,,,,repeat,number,numRpt,f,0.0004,Hi,,,,,,5,,,,,,,,low,10,0,10,0,1,,,,,,,,,
296164,2022-11-27_19h49.43.069,vts_reward_expectancy_bt,2022.2.4,MacIntel,60.0024001,Chrome,1440,900,,,,,0,1175,,,,,,,,,,,,,,,,,160,B,triangle,1,0,,,,,,,,,,,,,,,,repeat,number,numRpt,f,0.2982,Hi,,,,,,5,,,,,,,,low,11,0,11,0,1,,,,,,,,,
296164,2022-11-27_19h49.43.069,vts_reward_expectancy_bt,2022.2.4,MacIntel,60.0024001,Chrome,1440,900,,,,,1,1176,,,,,,,,,,,,,,,,,174,Y,star,1,0,,,,,,,,,,,,,,,,repeat,number,numRpt,f,0.13,Lo,,,,,,5,,,,,,,,low,12,0,12,0,1,,,,,,,,,
296164,2022-11-27_19h49.43.069,vts_reward_expectancy_bt,2022.2.4,MacIntel,60.0024001,Chrome,1440,900,,,,,0,1176,,,,,,,,,,,,,,,,,146,W,triangle,0,0,,,,,,,,,,,,,,,,switch,letter,NA,j,0.1306,Lo,,,,,,5,,,,,,,,low,13,0,13,0,1,,,,,,,,,
296164,2022-11-27_19h49.43.069,vts_reward_expectancy_bt,2022.2.4,MacIntel,60.0024001,Chrome,1440,900,,,,,0,1176,,,,,,,,,,,,,,,,,132,H,circle,0,1,,,,,,,,,,,,,,,,repeat,letter,NA,k,0.2386,Lo,,,,,,5,,,,,,,,low,14,0,14,0,1,,,,,,,,,
296164,2022-11-27_19h49.43.069,vts_reward_expectancy_bt,2022.2.4,MacIntel,60.0024001,Chrome,1440,900,,,,,1,1177,,,,,,,,,,,,,,,,,181,S,hexagon,1,1,,,,,,,,,,,,,,,,repeat,letter,lettRpt,k,0.3158,Lo,,,,,,5,,,,,,,,low,15,0,15,0,1,,,,,,,,,
296164,2022-11-27_19h49.43.069,vts_reward_expectancy_bt,2022.2.4,MacIntel,60.0024001,Chrome,1440,900,,,,,10,1187,,,,,,,,,,,,,,,,,125,S,star,1,0,,,,,,,,,,,,,,,,repeat,letter,lettRpt,k,0.3661,Lo,,,,,,5,,,,,,,,low,16,0,16,0,1,,,,,,,,,
296164,2022-11-27_19h49.43.069,vts_reward_expectancy_bt,2022.2.4,MacIntel,60.0024001,Chrome,1440,900,,,,,0,1187,,,,,,,,,,,,,,,,,132,F,triangle,0,0,,,,,,,,,,,,,,,,repeat,letter,NA,k,0.0009,Lo,,,,,,5,,,,,,,,low,17,0,17,0,1,,,,,,,,,
296164,2022-11-27_19h49.43.069,vts_reward_expectancy_bt,2022.2.4,MacIntel,60.0024001,Chrome,1440,900,,,,,10,1197,,,,,,,,,,,,,,,,,167,Y,circle,1,1,,,,,,,,,,,,,,,,repeat,letter,lettRpt,k,0.0541,Hi,,,,,,5,,,,,,,,low,18,0,18,0,1,,,,,,,,,
296164,2022-11-27_19h49.43.069,vts_reward_expectancy_bt,2022.2.4,MacIntel,60.0024001,Chrome,1440,900,,,,,10,1207,,,,,,,,,,,,,,,,,181,H,hexagon,1,0,,,,,,,,,,,,,,,,repeat,letter,lettRpt,j,0.0003,Lo,,,,,,5,,,,,,,,low,19,0,19,0,1,,,,,,,,,
296164,2022-11-27_19h49.43.069,vts_reward_expectancy_bt,2022.2.4,MacIntel,60.0024001,Chrome,1440,900,,,,,0,1207,,,,,,,,,,,,,,,,,160,W,triangle,0,0,,,,,,,,,,,,,,,,repeat,letter,NA,j,0.0866,Lo,,,,,,5,,,,,,,,low,20,0,20,0,1,,,,,,,,,
296164,2022-11-27_19h49.43.069,vts_reward_expectancy_bt,2022.2.4,MacIntel,60.0024001,Chrome,1440,900,,,,,0,1207,,,,,,,,,,,,,,,,,146,U,circle,0,1,,,,,,,,,,,,,,,,repeat,letter,NA,j,0.0003,Lo,,,,,,5,,,,,,,,low,21,0,21,0,1,,,,,,,,,
296164,2022-11-27_19h49.43.069,vts_reward_expectancy_bt,2022.2.4,MacIntel,60.0024001,Chrome,1440,900,,,,,1,1208,,,,,,,,,,,,,,,,,139,B,hexagon,1,1,,,,,,,,,,,,,,,,switch,number,numSwt,d,0.4654,Lo,,,,,,5,,,,,,,,low,22,0,22,0,1,,,,,,,,,
296164,2022-11-27_19h49.43.069,vts_reward_expectancy_bt,2022.2.4,MacIntel,60.0024001,Chrome,1440,900,,,,,0,1208,,,,,,,,,,,,,,,,,174,D,star,0,0,,,,,,,,,,,,,,,,repeat,number,NA,d,0.0536,Lo,,,,,,5,,,,,,,,low,23,0,23,0,1,,,,,,,,,
296164,2022-11-27_19h49.43.069,vts_reward_expectancy_bt,2022.2.4,MacIntel,60.0024001,Chrome,1440,900,,,,,10,1218,,,,,,,,,,,,,,,,,167,D,hexagon,1,1,,,,,,,,,,,,,,,,repeat,number,numRpt,f,0.4679,Lo,,,,,,5,,,,,,,,low,24,0,24,0,1,,,,,,,,,
296164,2022-11-27_19h49.43.069,vts_reward_expectancy_bt,2022.2.4,MacIntel,60.0024001,Chrome,1440,900,,,,,1,1219,,,,,,,,,,,,,,,,,139,B,star,1,0,,,,,,,,,,,,,,,,repeat,number,numRpt,d,0.4971,Lo,,,,,,5,,,,,,,,low,25,0,25,0,1,,,,,,,,,
296164,2022-11-27_19h49.43.069,vts_reward_expectancy_bt,2022.2.4,MacIntel,60.0024001,Chrome,1440,900,,,,,0,1219,,,,,,,,,,,,,,,,,146,W,triangle,1,0,,,,,,,,,,,,,,,,repeat,number,numRpt,d,0.4795,Hi,,,,,,5,,,,,,,,low,26,0,26,0,1,,,,,,,,,
296164,2022-11-27_19h49.43.069,vts_reward_expectancy_bt,2022.2.4,MacIntel,60.0024001,Chrome,1440,900,,,,,0,1219,,,,,,,,,,,,,,,,,181,Y,circle,0,0,,,,,,,,,,,,,,,,repeat,number,NA,d,0.3847,Hi,,,,,,5,,,,,,,,low,27,0,27,0,1,,,,,,,,,
296164,2022-11-27_19h49.43.069,vts_reward_expectancy_bt,2022.2.4,MacIntel,60.0024001,Chrome,1440,900,,,,,1,1220,,,,,,,,,,,,,,,,,125,H,star,1,1,,,,,,,,,,,,,,,,switch,letter,lettSwt,j,0.009,Lo,,,,,,5,,,,,,,,low,28,0,28,0,1,,,,,,,,,
296164,2022-11-27_19h49.43.069,vts_reward_expectancy_bt,2022.2.4,MacIntel,60.0024001,Chrome,1440,900,,,,,0,1220,,,,,,,,,,,,,,,,,160,U,circle,1,0,,,,,,,,,,,,,,,,repeat,letter,lettRpt,k,0.339,Hi,,,,,,5,,,,,,,,low,29,0,29,0,1,,,,,,,,,
296164,2022-11-27_19h49.43.069,vts_reward_expectancy_bt,2022.2.4,MacIntel,60.0024001,Chrome,1440,900,,,,,0,1220,,,,,,,,,,,,,,,,,174,F,hexagon,0,0,,,,,,,,,,,,,,,,repeat,letter,NA,k,0.1649,Hi,,,,,,5,,,,,,,,low,30,0,30,0,1,,,,,,,,,
296164,2022-11-27_19h49.43.069,vts_reward_expectancy_bt,2022.2.4,MacIntel,60.0024001,Chrome,1440,900,,,,,10,1230,,,,,,,,,,,,,,,,,132,S,triangle,1,1,,,,,,,,,,,,,,,,switch,number,numSwt,d,0.0101,Hi,,,,,,5,,,,,,,,low,31,0,31,0,1,,,,,,,,,
296164,2022-11-27_19h49.43.069,vts_reward_expectancy_bt,2022.2.4,MacIntel,60.0024001,Chrome,1440,900,,,,,10,1240,,,,,,,,,,,,,,,,,139,D,hexagon,1,0,,,,,,,,,,,,,,,,repeat,number,numRpt,d,0.0538,Lo,,,,,,6,,,,,,space,0.8926,low,0,0,0,0,1,,,,,,,,,
296164,2022-11-27_19h49.43.069,vts_reward_expectancy_bt,2022.2.4,MacIntel,60.0024001,Chrome,1440,900,,,,,0,1240,,,,,,,,,,,,,,,,,132,Y,triangle,1,0,,,,,,,,,,,,,,,,repeat,number,numRpt,d,0.2268,Hi,,,,,,6,,,,,,,,low,1,0,1,0,1,,,,,,,,,
296164,2022-11-27_19h49.43.069,vts_reward_expectancy_bt,2022.2.4,MacIntel,60.0024001,Chrome,1440,900,,,,,0,1240,,,,,,,,,,,,,,,,,174,H,star,0,0,,,,,,,,,,,,,,,,switch,letter,NA,k,0.0002,Hi,,,,,,6,,,,,,,,low,2,0,2,0,1,,,,,,,,,
296164,2022-11-27_19h49.43.069,vts_reward_expectancy_bt,2022.2.4,MacIntel,60.0024001,Chrome,1440,900,,,,,0,1240,,,,,,,,,,,,,,,,,167,B,circle,1,1,,,,,,,,,,,,,,,,repeat,letter,lettRpt,j,0.3509,Hi,,,,,,6,,,,,,,,low,3,0,3,0,1,,,,,,,,,
296164,2022-11-27_19h49.43.069,vts_reward_expectancy_bt,2022.2.4,MacIntel,60.0024001,Chrome,1440,900,,,,,0,1240,,,,,,,,,,,,,,,,,181,F,hexagon,0,0,,,,,,,,,,,,,,,,repeat,letter,NA,k,0.2205,Hi,,,,,,6,,,,,,,,low,4,0,4,0,1,,,,,,,,,
296164,2022-11-27_19h49.43.069,vts_reward_expectancy_bt,2022.2.4,MacIntel,60.0024001,Chrome,1440,900,,,,,1,1241,,,,,,,,,,,,,,,,,146,U,triangle,1,1,,,,,,,,,,,,,,,,switch,number,numSwt,d,0.3675,Hi,,,,,,6,,,,,,,,low,5,0,5,0,1,,,,,,,,,
296164,2022-11-27_19h49.43.069,vts_reward_expectancy_bt,2022.2.4,MacIntel,60.0024001,Chrome,1440,900,,,,,10,1251,,,,,,,,,,,,,,,,,125,S,star,1,0,,,,,,,,,,,,,,,,repeat,number,numRpt,d,0.2711,Lo,,,,,,6,,,,,,,,low,6,0,6,0,1,,,,,,,,,
296164,2022-11-27_19h49.43.069,vts_reward_expectancy_bt,2022.2.4,MacIntel,60.0024001,Chrome,1440,900,,,,,0,1251,,,,,,,,,,,,,,,,,160,W,circle,0,0,,,,,,,,,,,,,,,,repeat,number,NA,d,0.1795,Lo,,,,,,6,,,,,,,,low,7,0,7,0,1,,,,,,,,,
296164,2022-11-27_19h49.43.069,vts_reward_expectancy_bt,2022.2.4,MacIntel,60.0024001,Chrome,1440,900,,,,,10,1261,,,,,,,,,,,,,,,,,139,D,hexagon,1,1,,,,,,,,,,,,,,,,repeat,number,numRpt,d,0.0003,Lo,,,,,,6,,,,,,,,low,8,0,8,0,1,,,,,,,,,
296164,2022-11-27_19h49.43.069,vts_reward_expectancy_bt,2022.2.4,MacIntel,60.0024001,Chrome,1440,900,,,,,10,1271,,,,,,,,,,,,,,,,,132,Y,star,1,0,,,,,,,,,,,,,,,,repeat,number,numRpt,d,0.3287,Lo,,,,,,6,,,,,,,,low,9,0,9,0,1,,,,,,,,,
296164,2022-11-27_19h49.43.069,vts_reward_expectancy_bt,2022.2.4,MacIntel,60.0024001,Chrome,1440,900,,,,,0,1271,,,,,,,,,,,,,,,,,174,H,circle,0,0,,,,,,,,,,,,,,,,repeat,number,NA,d,0.2827,Lo,,,,,,6,,,,,,,,low,10,0,10,0,1,,,,,,,,,
296164,2022-11-27_19h49.43.069,vts_reward_expectancy_bt,2022.2.4,MacIntel,60.0024001,Chrome,1440,900,,,,,0,1271,,,,,,,,,,,,,,,,,167,B,triangle,0,1,,,,,,,,,,,,,,,,repeat,number,NA,d,0.6273,Lo,,,,,,6,,,,,,,,low,11,0,11,0,1,,,,,,,,,
296164,2022-11-27_19h49.43.069,vts_reward_expectancy_bt,2022.2.4,MacIntel,60.0024001,Chrome,1440,900,,,,,0,1271,,,,,,,,,,,,,,,,,181,F,triangle,1,1,,,,,,,,,,,,,,,,repeat,number,numRpt,f,0.6201,Hi,,,,,,6,,,,,,,,low,12,0,12,0,1,,,,,,,,,
296164,2022-11-27_19h49.43.069,vts_reward_expectancy_bt,2022.2.4,MacIntel,60.0024001,Chrome,1440,900,,,,,0,1271,,,,,,,,,,,,,,,,,146,U,star,0,0,,,,,,,,,,,,,,,,repeat,number,NA,f,0.0445,Hi,,,,,,6,,,,,,,,low,13,0,13,0,1,,,,,,,,,
