participant,date,expName,psychopyVersion,OS,frameRate,browser,xResolution,yResolution,key_resp.keys,key_resp.rt,training_resp.keys,training_resp.rt,points_trial,points_cumul,trainBlock,training.thisRepN,training.thisTrialN,training.thisN,training.thisIndex,training.ran,LTriangleOpac,LCircleOpac,LHexagonOpac,LStarOpac,RTriangleOpac,RCircleOpac,RHexagonOpac,RStarOpac,LShape_ID,RShape_ID,curr_topStim,curr_bottStim,curr_shape,acc,E1,target_resp_prac1.keys,target_resp_prac1.rt,pracBlock,task1_prac_trials.thisRepN,task1_prac_trials.thisTrialN,task1_prac_trials.thisN,task1_prac_trials.thisIndex,task1_prac_trials.ran,target_resp_prac2.keys,target_resp_prac2.rt,task2_praac_trials.thisRepN,task2_praac_trials.thisTrialN,task2_praac_trials.thisN,task2_praac_trials.thisIndex,task2_praac_trials.ran,alt,task,condition,target_resp.keys,target_resp.rt,rewCond,vts_practice_trials.thisRepN,vts_practice_trials.thisTrialN,vts_practice_trials.thisN,vts_practice_trials.thisIndex,vts_practice_trials.ran,blockNum,trials_norew.thisRepN,trials_norew.thisTrialN,trials_norew.thisN,trials_norew.thisIndex,trials_norew.ran,key_resp_2.keys,key_resp_2.rt,rewExpectancy,trials_rew.thisRepN,trials_rew.thisTrialN,trials_rew.thisN,trials_rew.thisIndex,trials_rew.ran,Q1,Q2,Q2_text,Q3,Q4,Q5_text,Q5,xRes,yRes
296149,2022-11-21_09h58.53.599,vts_reward_expectancy_bt,2022.2.4,MacIntel,55.55555556,Safari,1440,900,,,,,,,,,,,,,,,,,,,,,,,,,,,,,,,,,,,,,,,,,,,,,,,,,,,,,,,,,,,,,,,,,,,,,,,,,,,,
296149,2022-11-21_09h58.53.599,vts_reward_expectancy_bt,2022.2.4,MacIntel,55.55555556,Safari,1440,900,space,2.48,,,,,,,,,,,,,,,,,,,,,,,,,,,,,,,,,,,,,,,,,,,,,,,,,,,,,,,,,,,,,,,,,,,,,,,,,,
296149,2022-11-21_09h58.53.599,vts_reward_expectancy_bt,2022.2.4,MacIntel,55.55555556,Safari,1440,900,,,,,,,,,,,,,,,,,,,,,,,,,,,,,,,,,,,,,,,,,,,,,,,,,,,,,,,,,,,,,,,,,,,,,,,,,,,,
296149,2022-11-21_09h58.53.599,vts_reward_expectancy_bt,2022.2.4,MacIntel,55.55555556,Safari,1440,900,,,a,4.073,10,10,0,0,0,0,11,1,0,0,0,1,0,0,1,0,star,hexagon,,,,,,,,,,,,,,,,,,,,,,,,,,,,,,,,,,,,,,,,,,,,,,,,,,,,,,
296149,2022-11-21_09h58.53.599,vts_reward_expectancy_bt,2022.2.4,MacIntel,55.55555556,Safari,1440,900,,,a,0.643,1,11,0,0,1,1,4,1,0,1,0,0,0,0,1,0,circle,hexagon,,,,,,,,,,,,,,,,,,,,,,,,,,,,,,,,,,,,,,,,,,,,,,,,,,,,,,
296149,2022-11-21_09h58.53.599,vts_reward_expectancy_bt,2022.2.4,MacIntel,55.55555556,Safari,1440,900,,,l,0.389,10,21,0,0,2,2,6,1,0,0,1,0,1,0,0,0,hexagon,triangle,,,,,,,,,,,,,,,,,,,,,,,,,,,,,,,,,,,,,,,,,,,,,,,,,,,,,,
296149,2022-11-21_09h58.53.599,vts_reward_expectancy_bt,2022.2.4,MacIntel,55.55555556,Safari,1440,900,,,a,0.432,10,31,0,0,3,3,5,1,0,1,0,0,0,0,0,1,circle,star,,,,,,,,,,,,,,,,,,,,,,,,,,,,,,,,,,,,,,,,,,,,,,,,,,,,,,
296149,2022-11-21_09h58.53.599,vts_reward_expectancy_bt,2022.2.4,MacIntel,55.55555556,Safari,1440,900,,,l,0.547,10,41,0,0,4,4,10,1,0,0,0,1,0,1,0,0,star ,circle,,,,,,,,,,,,,,,,,,,,,,,,,,,,,,,,,,,,,,,,,,,,,,,,,,,,,,
296149,2022-11-21_09h58.53.599,vts_reward_expectancy_bt,2022.2.4,MacIntel,55.55555556,Safari,1440,900,,,a,0.37,1,42,0,0,5,5,7,1,0,0,1,0,0,1,0,0,hexagon,circle,,,,,,,,,,,,,,,,,,,,,,,,,,,,,,,,,,,,,,,,,,,,,,,,,,,,,,
296149,2022-11-21_09h58.53.599,vts_reward_expectancy_bt,2022.2.4,MacIntel,55.55555556,Safari,1440,900,,,l,0.396,1,43,0,0,6,6,0,1,1,0,0,0,0,1,0,0,triangle,circle,,,,,,,,,,,,,,,,,,,,,,,,,,,,,,,,,,,,,,,,,,,,,,,,,,,,,,
296149,2022-11-21_09h58.53.599,vts_reward_expectancy_bt,2022.2.4,MacIntel,55.55555556,Safari,1440,900,,,l,0.452,1,44,0,0,7,7,8,1,0,0,1,0,0,0,0,1,hexagon,star,,,,,,,,,,,,,,,,,,,,,,,,,,,,,,,,,,,,,,,,,,,,,,,,,,,,,,
296149,2022-11-21_09h58.53.599,vts_reward_expectancy_bt,2022.2.4,MacIntel,55.55555556,Safari,1440,900,,,a,0.401,10,54,0,0,8,8,3,1,0,1,0,0,1,0,0,0,circle,triangle,,,,,,,,,,,,,,,,,,,,,,,,,,,,,,,,,,,,,,,,,,,,,,,,,,,,,,
296149,2022-11-21_09h58.53.599,vts_reward_expectancy_bt,2022.2.4,MacIntel,55.55555556,Safari,1440,900,,,a,0.436,1,55,0,0,9,9,1,1,1,0,0,0,0,0,1,0,triangle,hexagon,,,,,,,,,,,,,,,,,,,,,,,,,,,,,,,,,,,,,,,,,,,,,,,,,,,,,,
296149,2022-11-21_09h58.53.599,vts_reward_expectancy_bt,2022.2.4,MacIntel,55.55555556,Safari,1440,900,,,l,0.389,10,65,0,0,10,10,2,1,1,0,0,0,0,0,0,1,triangle,star,,,,,,,,,,,,,,,,,,,,,,,,,,,,,,,,,,,,,,,,,,,,,,,,,,,,,,
296149,2022-11-21_09h58.53.599,vts_reward_expectancy_bt,2022.2.4,MacIntel,55.55555556,Safari,1440,900,,,l,0.336,1,66,0,0,11,11,9,1,0,0,0,1,1,0,0,0,star,triangle,,,,,,,,,,,,,,,,,,,,,,,,,,,,,,,,,,,,,,,,,,,,,,,,,,,,,,
296149,2022-11-21_09h58.53.599,vts_reward_expectancy_bt,2022.2.4,MacIntel,55.55555556,Safari,1440,900,,,a,0.334,1,67,0,1,0,12,7,1,0,0,1,0,0,1,0,0,hexagon,circle,,,,,,,,,,,,,,,,,,,,,,,,,,,,,,,,,,,,,,,,,,,,,,,,,,,,,,
296149,2022-11-21_09h58.53.599,vts_reward_expectancy_bt,2022.2.4,MacIntel,55.55555556,Safari,1440,900,,,l,4.718,10,77,0,1,1,13,2,1,1,0,0,0,0,0,0,1,triangle,star,,,,,,,,,,,,,,,,,,,,,,,,,,,,,,,,,,,,,,,,,,,,,,,,,,,,,,
296149,2022-11-21_09h58.53.599,vts_reward_expectancy_bt,2022.2.4,MacIntel,55.55555556,Safari,1440,900,,,l,1.457,1,78,0,1,2,14,11,1,0,0,0,1,0,0,1,0,star,hexagon,,,,,,,,,,,,,,,,,,,,,,,,,,,,,,,,,,,,,,,,,,,,,,,,,,,,,,
296149,2022-11-21_09h58.53.599,vts_reward_expectancy_bt,2022.2.4,MacIntel,55.55555556,Safari,1440,900,,,a,0.251,10,88,0,1,3,15,3,1,0,1,0,0,1,0,0,0,circle,triangle,,,,,,,,,,,,,,,,,,,,,,,,,,,,,,,,,,,,,,,,,,,,,,,,,,,,,,
296149,2022-11-21_09h58.53.599,vts_reward_expectancy_bt,2022.2.4,MacIntel,55.55555556,Safari,1440,900,,,l,1.241,1,89,0,1,4,16,6,1,0,0,1,0,1,0,0,0,hexagon,triangle,,,,,,,,,,,,,,,,,,,,,,,,,,,,,,,,,,,,,,,,,,,,,,,,,,,,,,
296149,2022-11-21_09h58.53.599,vts_reward_expectancy_bt,2022.2.4,MacIntel,55.55555556,Safari,1440,900,,,l,0.465,10,99,0,1,5,17,4,1,0,1,0,0,0,0,1,0,circle,hexagon,,,,,,,,,,,,,,,,,,,,,,,,,,,,,,,,,,,,,,,,,,,,,,,,,,,,,,
296149,2022-11-21_09h58.53.599,vts_reward_expectancy_bt,2022.2.4,MacIntel,55.55555556,Safari,1440,900,,,l,3.782,10,109,0,1,6,18,10,1,0,0,0,1,0,1,0,0,star ,circle,,,,,,,,,,,,,,,,,,,,,,,,,,,,,,,,,,,,,,,,,,,,,,,,,,,,,,
296149,2022-11-21_09h58.53.599,vts_reward_expectancy_bt,2022.2.4,MacIntel,55.55555556,Safari,1440,900,,,l,0.667,10,119,0,1,7,19,5,1,0,1,0,0,0,0,0,1,circle,star,,,,,,,,,,,,,,,,,,,,,,,,,,,,,,,,,,,,,,,,,,,,,,,,,,,,,,
296149,2022-11-21_09h58.53.599,vts_reward_expectancy_bt,2022.2.4,MacIntel,55.55555556,Safari,1440,900,,,a,0.352,1,120,0,1,8,20,8,1,0,0,1,0,0,0,0,1,hexagon,star,,,,,,,,,,,,,,,,,,,,,,,,,,,,,,,,,,,,,,,,,,,,,,,,,,,,,,
296149,2022-11-21_09h58.53.599,vts_reward_expectancy_bt,2022.2.4,MacIntel,55.55555556,Safari,1440,900,,,a,0.677,1,121,0,1,9,21,0,1,1,0,0,0,0,1,0,0,triangle,circle,,,,,,,,,,,,,,,,,,,,,,,,,,,,,,,,,,,,,,,,,,,,,,,,,,,,,,
296149,2022-11-21_09h58.53.599,vts_reward_expectancy_bt,2022.2.4,MacIntel,55.55555556,Safari,1440,900,,,a,0.402,10,131,0,1,10,22,9,1,0,0,0,1,1,0,0,0,star,triangle,,,,,,,,,,,,,,,,,,,,,,,,,,,,,,,,,,,,,,,,,,,,,,,,,,,,,,
296149,2022-11-21_09h58.53.599,vts_reward_expectancy_bt,2022.2.4,MacIntel,55.55555556,Safari,1440,900,,,l,0.537,1,132,0,1,11,23,1,1,1,0,0,0,0,0,1,0,triangle,hexagon,,,,,,,,,,,,,,,,,,,,,,,,,,,,,,,,,,,,,,,,,,,,,,,,,,,,,,
296149,2022-11-21_09h58.53.599,vts_reward_expectancy_bt,2022.2.4,MacIntel,55.55555556,Safari,1440,900,,,l,0.423,1,133,0,2,0,24,8,1,0,0,1,0,0,0,0,1,hexagon,star,,,,,,,,,,,,,,,,,,,,,,,,,,,,,,,,,,,,,,,,,,,,,,,,,,,,,,
296149,2022-11-21_09h58.53.599,vts_reward_expectancy_bt,2022.2.4,MacIntel,55.55555556,Safari,1440,900,,,l,1.984,10,143,0,2,1,25,10,1,0,0,0,1,0,1,0,0,star ,circle,,,,,,,,,,,,,,,,,,,,,,,,,,,,,,,,,,,,,,,,,,,,,,,,,,,,,,
296149,2022-11-21_09h58.53.599,vts_reward_expectancy_bt,2022.2.4,MacIntel,55.55555556,Safari,1440,900,,,a,0.876,10,153,0,2,2,26,11,1,0,0,0,1,0,0,1,0,star,hexagon,,,,,,,,,,,,,,,,,,,,,,,,,,,,,,,,,,,,,,,,,,,,,,,,,,,,,,
296149,2022-11-21_09h58.53.599,vts_reward_expectancy_bt,2022.2.4,MacIntel,55.55555556,Safari,1440,900,,,a,1.863,10,163,0,2,3,27,9,1,0,0,0,1,1,0,0,0,star,triangle,,,,,,,,,,,,,,,,,,,,,,,,,,,,,,,,,,,,,,,,,,,,,,,,,,,,,,
296149,2022-11-21_09h58.53.599,vts_reward_expectancy_bt,2022.2.4,MacIntel,55.55555556,Safari,1440,900,,,l,0.917,10,173,0,2,4,28,1,1,1,0,0,0,0,0,1,0,triangle,hexagon,,,,,,,,,,,,,,,,,,,,,,,,,,,,,,,,,,,,,,,,,,,,,,,,,,,,,,
296149,2022-11-21_09h58.53.599,vts_reward_expectancy_bt,2022.2.4,MacIntel,55.55555556,Safari,1440,900,,,l,0.566,1,174,0,2,5,29,3,1,0,1,0,0,1,0,0,0,circle,triangle,,,,,,,,,,,,,,,,,,,,,,,,,,,,,,,,,,,,,,,,,,,,,,,,,,,,,,
296149,2022-11-21_09h58.53.599,vts_reward_expectancy_bt,2022.2.4,MacIntel,55.55555556,Safari,1440,900,,,a,0.315,1,175,0,2,6,30,4,1,0,1,0,0,0,0,1,0,circle,hexagon,,,,,,,,,,,,,,,,,,,,,,,,,,,,,,,,,,,,,,,,,,,,,,,,,,,,,,
296149,2022-11-21_09h58.53.599,vts_reward_expectancy_bt,2022.2.4,MacIntel,55.55555556,Safari,1440,900,,,l,0.716,1,176,0,2,7,31,7,1,0,0,1,0,0,1,0,0,hexagon,circle,,,,,,,,,,,,,,,,,,,,,,,,,,,,,,,,,,,,,,,,,,,,,,,,,,,,,,
296149,2022-11-21_09h58.53.599,vts_reward_expectancy_bt,2022.2.4,MacIntel,55.55555556,Safari,1440,900,,,a,0.774,1,177,0,2,8,32,6,1,0,0,1,0,1,0,0,0,hexagon,triangle,,,,,,,,,,,,,,,,,,,,,,,,,,,,,,,,,,,,,,,,,,,,,,,,,,,,,,
296149,2022-11-21_09h58.53.599,vts_reward_expectancy_bt,2022.2.4,MacIntel,55.55555556,Safari,1440,900,,,l,0.706,10,187,0,2,9,33,2,1,1,0,0,0,0,0,0,1,triangle,star,,,,,,,,,,,,,,,,,,,,,,,,,,,,,,,,,,,,,,,,,,,,,,,,,,,,,,
296149,2022-11-21_09h58.53.599,vts_reward_expectancy_bt,2022.2.4,MacIntel,55.55555556,Safari,1440,900,,,l,0.436,10,197,0,2,10,34,0,1,1,0,0,0,0,1,0,0,triangle,circle,,,,,,,,,,,,,,,,,,,,,,,,,,,,,,,,,,,,,,,,,,,,,,,,,,,,,,
296149,2022-11-21_09h58.53.599,vts_reward_expectancy_bt,2022.2.4,MacIntel,55.55555556,Safari,1440,900,,,l,0.514,10,207,0,2,11,35,5,1,0,1,0,0,0,0,0,1,circle,star,,,,,,,,,,,,,,,,,,,,,,,,,,,,,,,,,,,,,,,,,,,,,,,,,,,,,,
296149,2022-11-21_09h58.53.599,vts_reward_expectancy_bt,2022.2.4,MacIntel,55.55555556,Safari,1440,900,,,l,1.512,1,208,1,0,0,0,1,1,1,0,0,0,0,0,1,0,triangle,hexagon,,,,,,,,,,,,,,,,,,,,,,,,,,,,,,,,,,,,,,,,,,,,,,,,,,,,,,
296149,2022-11-21_09h58.53.599,vts_reward_expectancy_bt,2022.2.4,MacIntel,55.55555556,Safari,1440,900,,,l,0.32,1,209,1,0,1,1,11,1,0,0,0,1,0,0,1,0,star,hexagon,,,,,,,,,,,,,,,,,,,,,,,,,,,,,,,,,,,,,,,,,,,,,,,,,,,,,,
296149,2022-11-21_09h58.53.599,vts_reward_expectancy_bt,2022.2.4,MacIntel,55.55555556,Safari,1440,900,,,a,0.757,1,210,1,0,2,2,10,1,0,0,0,1,0,1,0,0,star ,circle,,,,,,,,,,,,,,,,,,,,,,,,,,,,,,,,,,,,,,,,,,,,,,,,,,,,,,
296149,2022-11-21_09h58.53.599,vts_reward_expectancy_bt,2022.2.4,MacIntel,55.55555556,Safari,1440,900,,,l,0.666,10,220,1,0,3,3,0,1,1,0,0,0,0,1,0,0,triangle,circle,,,,,,,,,,,,,,,,,,,,,,,,,,,,,,,,,,,,,,,,,,,,,,,,,,,,,,
296149,2022-11-21_09h58.53.599,vts_reward_expectancy_bt,2022.2.4,MacIntel,55.55555556,Safari,1440,900,,,l,0.717,10,230,1,0,4,4,9,1,0,0,0,1,1,0,0,0,star,triangle,,,,,,,,,,,,,,,,,,,,,,,,,,,,,,,,,,,,,,,,,,,,,,,,,,,,,,
296149,2022-11-21_09h58.53.599,vts_reward_expectancy_bt,2022.2.4,MacIntel,55.55555556,Safari,1440,900,,,l,0.584,10,240,1,0,5,5,2,1,1,0,0,0,0,0,0,1,triangle,star,,,,,,,,,,,,,,,,,,,,,,,,,,,,,,,,,,,,,,,,,,,,,,,,,,,,,,
296149,2022-11-21_09h58.53.599,vts_reward_expectancy_bt,2022.2.4,MacIntel,55.55555556,Safari,1440,900,,,l,1.633,10,250,1,0,6,6,3,1,0,1,0,0,1,0,0,0,circle,triangle,,,,,,,,,,,,,,,,,,,,,,,,,,,,,,,,,,,,,,,,,,,,,,,,,,,,,,
296149,2022-11-21_09h58.53.599,vts_reward_expectancy_bt,2022.2.4,MacIntel,55.55555556,Safari,1440,900,,,l,0.65,10,260,1,0,7,7,7,1,0,0,1,0,0,1,0,0,hexagon,circle,,,,,,,,,,,,,,,,,,,,,,,,,,,,,,,,,,,,,,,,,,,,,,,,,,,,,,
296149,2022-11-21_09h58.53.599,vts_reward_expectancy_bt,2022.2.4,MacIntel,55.55555556,Safari,1440,900,,,l,0.49,10,270,1,0,8,8,4,1,0,1,0,0,0,0,1,0,circle,hexagon,,,,,,,,,,,,,,,,,,,,,,,,,,,,,,,,,,,,,,,,,,,,,,,,,,,,,,
296149,2022-11-21_09h58.53.599,vts_reward_expectancy_bt,2022.2.4,MacIntel,55.55555556,Safari,1440,900,,,l,0.504,10,280,1,0,9,9,5,1,0,1,0,0,0,0,0,1,circle,star,,,,,,,,,,,,,,,,,,,,,,,,,,,,,,,,,,,,,,,,,,,,,,,,,,,,,,
296149,2022-11-21_09h58.53.599,vts_reward_expectancy_bt,2022.2.4,MacIntel,55.55555556,Safari,1440,900,,,l,0.48,1,281,1,0,10,10,6,1,0,0,1,0,1,0,0,0,hexagon,triangle,,,,,,,,,,,,,,,,,,,,,,,,,,,,,,,,,,,,,,,,,,,,,,,,,,,,,,
296149,2022-11-21_09h58.53.599,vts_reward_expectancy_bt,2022.2.4,MacIntel,55.55555556,Safari,1440,900,,,l,0.688,1,282,1,0,11,11,8,1,0,0,1,0,0,0,0,1,hexagon,star,,,,,,,,,,,,,,,,,,,,,,,,,,,,,,,,,,,,,,,,,,,,,,,,,,,,,,
296149,2022-11-21_09h58.53.599,vts_reward_expectancy_bt,2022.2.4,MacIntel,55.55555556,Safari,1440,900,,,l,1.574,1,283,1,1,0,12,3,1,0,1,0,0,1,0,0,0,circle,triangle,,,,,,,,,,,,,,,,,,,,,,,,,,,,,,,,,,,,,,,,,,,,,,,,,,,,,,
296149,2022-11-21_09h58.53.599,vts_reward_expectancy_bt,2022.2.4,MacIntel,55.55555556,Safari,1440,900,,,l,1.643,10,293,1,1,1,13,5,1,0,1,0,0,0,0,0,1,circle,star,,,,,,,,,,,,,,,,,,,,,,,,,,,,,,,,,,,,,,,,,,,,,,,,,,,,,,
296149,2022-11-21_09h58.53.599,vts_reward_expectancy_bt,2022.2.4,MacIntel,55.55555556,Safari,1440,900,,,l,3.024,1,294,1,1,2,14,6,1,0,0,1,0,1,0,0,0,hexagon,triangle,,,,,,,,,,,,,,,,,,,,,,,,,,,,,,,,,,,,,,,,,,,,,,,,,,,,,,
296149,2022-11-21_09h58.53.599,vts_reward_expectancy_bt,2022.2.4,MacIntel,55.55555556,Safari,1440,900,,,l,0.764,10,304,1,1,3,15,4,1,0,1,0,0,0,0,1,0,circle,hexagon,,,,,,,,,,,,,,,,,,,,,,,,,,,,,,,,,,,,,,,,,,,,,,,,,,,,,,
296149,2022-11-21_09h58.53.599,vts_reward_expectancy_bt,2022.2.4,MacIntel,55.55555556,Safari,1440,900,,,l,1.002,10,314,1,1,4,16,11,1,0,0,0,1,0,0,1,0,star,hexagon,,,,,,,,,,,,,,,,,,,,,,,,,,,,,,,,,,,,,,,,,,,,,,,,,,,,,,
296149,2022-11-21_09h58.53.599,vts_reward_expectancy_bt,2022.2.4,MacIntel,55.55555556,Safari,1440,900,,,a,1.538,1,315,1,1,5,17,2,1,1,0,0,0,0,0,0,1,triangle,star,,,,,,,,,,,,,,,,,,,,,,,,,,,,,,,,,,,,,,,,,,,,,,,,,,,,,,
296149,2022-11-21_09h58.53.599,vts_reward_expectancy_bt,2022.2.4,MacIntel,55.55555556,Safari,1440,900,,,a,1.058,1,316,1,1,6,18,1,1,1,0,0,0,0,0,1,0,triangle,hexagon,,,,,,,,,,,,,,,,,,,,,,,,,,,,,,,,,,,,,,,,,,,,,,,,,,,,,,
296149,2022-11-21_09h58.53.599,vts_reward_expectancy_bt,2022.2.4,MacIntel,55.55555556,Safari,1440,900,,,l,1.054,10,326,1,1,7,19,8,1,0,0,1,0,0,0,0,1,hexagon,star,,,,,,,,,,,,,,,,,,,,,,,,,,,,,,,,,,,,,,,,,,,,,,,,,,,,,,
296149,2022-11-21_09h58.53.599,vts_reward_expectancy_bt,2022.2.4,MacIntel,55.55555556,Safari,1440,900,,,a,0.757,10,336,1,1,8,20,9,1,0,0,0,1,1,0,0,0,star,triangle,,,,,,,,,,,,,,,,,,,,,,,,,,,,,,,,,,,,,,,,,,,,,,,,,,,,,,
296149,2022-11-21_09h58.53.599,vts_reward_expectancy_bt,2022.2.4,MacIntel,55.55555556,Safari,1440,900,,,a,0.484,10,346,1,1,9,21,7,1,0,0,1,0,0,1,0,0,hexagon,circle,,,,,,,,,,,,,,,,,,,,,,,,,,,,,,,,,,,,,,,,,,,,,,,,,,,,,,
296149,2022-11-21_09h58.53.599,vts_reward_expectancy_bt,2022.2.4,MacIntel,55.55555556,Safari,1440,900,,,l,0.422,10,356,1,1,10,22,0,1,1,0,0,0,0,1,0,0,triangle,circle,,,,,,,,,,,,,,,,,,,,,,,,,,,,,,,,,,,,,,,,,,,,,,,,,,,,,,
296149,2022-11-21_09h58.53.599,vts_reward_expectancy_bt,2022.2.4,MacIntel,55.55555556,Safari,1440,900,,,a,0.486,10,366,1,1,11,23,10,1,0,0,0,1,0,1,0,0,star ,circle,,,,,,,,,,,,,,,,,,,,,,,,,,,,,,,,,,,,,,,,,,,,,,,,,,,,,,
296149,2022-11-21_09h58.53.599,vts_reward_expectancy_bt,2022.2.4,MacIntel,55.55555556,Safari,1440,900,,,l,1.051,1,367,1,2,0,24,6,1,0,0,1,0,1,0,0,0,hexagon,triangle,,,,,,,,,,,,,,,,,,,,,,,,,,,,,,,,,,,,,,,,,,,,,,,,,,,,,,
296149,2022-11-21_09h58.53.599,vts_reward_expectancy_bt,2022.2.4,MacIntel,55.55555556,Safari,1440,900,,,a,0.543,1,368,1,2,1,25,10,1,0,0,0,1,0,1,0,0,star ,circle,,,,,,,,,,,,,,,,,,,,,,,,,,,,,,,,,,,,,,,,,,,,,,,,,,,,,,
296149,2022-11-21_09h58.53.599,vts_reward_expectancy_bt,2022.2.4,MacIntel,55.55555556,Safari,1440,900,,,l,0.957,10,378,1,2,2,26,1,1,1,0,0,0,0,0,1,0,triangle,hexagon,,,,,,,,,,,,,,,,,,,,,,,,,,,,,,,,,,,,,,,,,,,,,,,,,,,,,,
296149,2022-11-21_09h58.53.599,vts_reward_expectancy_bt,2022.2.4,MacIntel,55.55555556,Safari,1440,900,,,a,1.068,10,388,1,2,3,27,11,1,0,0,0,1,0,0,1,0,star,hexagon,,,,,,,,,,,,,,,,,,,,,,,,,,,,,,,,,,,,,,,,,,,,,,,,,,,,,,
296149,2022-11-21_09h58.53.599,vts_reward_expectancy_bt,2022.2.4,MacIntel,55.55555556,Safari,1440,900,,,l,0.542,10,398,1,2,4,28,8,1,0,0,1,0,0,0,0,1,hexagon,star,,,,,,,,,,,,,,,,,,,,,,,,,,,,,,,,,,,,,,,,,,,,,,,,,,,,,,
296149,2022-11-21_09h58.53.599,vts_reward_expectancy_bt,2022.2.4,MacIntel,55.55555556,Safari,1440,900,,,a,0.672,10,408,1,2,5,29,4,1,0,1,0,0,0,0,1,0,circle,hexagon,,,,,,,,,,,,,,,,,,,,,,,,,,,,,,,,,,,,,,,,,,,,,,,,,,,,,,
296149,2022-11-21_09h58.53.599,vts_reward_expectancy_bt,2022.2.4,MacIntel,55.55555556,Safari,1440,900,,,l,0.686,1,409,1,2,6,30,5,1,0,1,0,0,0,0,0,1,circle,star,,,,,,,,,,,,,,,,,,,,,,,,,,,,,,,,,,,,,,,,,,,,,,,,,,,,,,
296149,2022-11-21_09h58.53.599,vts_reward_expectancy_bt,2022.2.4,MacIntel,55.55555556,Safari,1440,900,,,l,0.718,10,419,1,2,7,31,2,1,1,0,0,0,0,0,0,1,triangle,star,,,,,,,,,,,,,,,,,,,,,,,,,,,,,,,,,,,,,,,,,,,,,,,,,,,,,,
296149,2022-11-21_09h58.53.599,vts_reward_expectancy_bt,2022.2.4,MacIntel,55.55555556,Safari,1440,900,,,a,0.637,10,429,1,2,8,32,3,1,0,1,0,0,1,0,0,0,circle,triangle,,,,,,,,,,,,,,,,,,,,,,,,,,,,,,,,,,,,,,,,,,,,,,,,,,,,,,
296149,2022-11-21_09h58.53.599,vts_reward_expectancy_bt,2022.2.4,MacIntel,55.55555556,Safari,1440,900,,,a,0.547,10,439,1,2,9,33,9,1,0,0,0,1,1,0,0,0,star,triangle,,,,,,,,,,,,,,,,,,,,,,,,,,,,,,,,,,,,,,,,,,,,,,,,,,,,,,
296149,2022-11-21_09h58.53.599,vts_reward_expectancy_bt,2022.2.4,MacIntel,55.55555556,Safari,1440,900,,,l,0.513,10,449,1,2,10,34,7,1,0,0,1,0,0,1,0,0,hexagon,circle,,,,,,,,,,,,,,,,,,,,,,,,,,,,,,,,,,,,,,,,,,,,,,,,,,,,,,
296149,2022-11-21_09h58.53.599,vts_reward_expectancy_bt,2022.2.4,MacIntel,55.55555556,Safari,1440,900,,,a,0.719,1,450,1,2,11,35,0,1,1,0,0,0,0,1,0,0,triangle,circle,,,,,,,,,,,,,,,,,,,,,,,,,,,,,,,,,,,,,,,,,,,,,,,,,,,,,,
296149,2022-11-21_09h58.53.599,vts_reward_expectancy_bt,2022.2.4,MacIntel,55.55555556,Safari,1440,900,,,l,0.843,1,451,2,0,0,0,6,1,0,0,1,0,1,0,0,0,hexagon,triangle,,,,,,,,,,,,,,,,,,,,,,,,,,,,,,,,,,,,,,,,,,,,,,,,,,,,,,
296149,2022-11-21_09h58.53.599,vts_reward_expectancy_bt,2022.2.4,MacIntel,55.55555556,Safari,1440,900,,,a,0.708,1,452,2,0,1,1,1,1,1,0,0,0,0,0,1,0,triangle,hexagon,,,,,,,,,,,,,,,,,,,,,,,,,,,,,,,,,,,,,,,,,,,,,,,,,,,,,,
296149,2022-11-21_09h58.53.599,vts_reward_expectancy_bt,2022.2.4,MacIntel,55.55555556,Safari,1440,900,,,a,1.231,10,462,2,0,2,2,3,1,0,1,0,0,1,0,0,0,circle,triangle,,,,,,,,,,,,,,,,,,,,,,,,,,,,,,,,,,,,,,,,,,,,,,,,,,,,,,
296149,2022-11-21_09h58.53.599,vts_reward_expectancy_bt,2022.2.4,MacIntel,55.55555556,Safari,1440,900,,,a,0.884,10,472,2,0,3,3,4,1,0,1,0,0,0,0,1,0,circle,hexagon,,,,,,,,,,,,,,,,,,,,,,,,,,,,,,,,,,,,,,,,,,,,,,,,,,,,,,
296149,2022-11-21_09h58.53.599,vts_reward_expectancy_bt,2022.2.4,MacIntel,55.55555556,Safari,1440,900,,,a,0.839,1,473,2,0,4,4,7,1,0,0,1,0,0,1,0,0,hexagon,circle,,,,,,,,,,,,,,,,,,,,,,,,,,,,,,,,,,,,,,,,,,,,,,,,,,,,,,
296149,2022-11-21_09h58.53.599,vts_reward_expectancy_bt,2022.2.4,MacIntel,55.55555556,Safari,1440,900,,,l,0.774,10,483,2,0,5,5,8,1,0,0,1,0,0,0,0,1,hexagon,star,,,,,,,,,,,,,,,,,,,,,,,,,,,,,,,,,,,,,,,,,,,,,,,,,,,,,,
296149,2022-11-21_09h58.53.599,vts_reward_expectancy_bt,2022.2.4,MacIntel,55.55555556,Safari,1440,900,,,l,0.705,1,484,2,0,6,6,5,1,0,1,0,0,0,0,0,1,circle,star,,,,,,,,,,,,,,,,,,,,,,,,,,,,,,,,,,,,,,,,,,,,,,,,,,,,,,
296149,2022-11-21_09h58.53.599,vts_reward_expectancy_bt,2022.2.4,MacIntel,55.55555556,Safari,1440,900,,,l,0.702,10,494,2,0,7,7,2,1,1,0,0,0,0,0,0,1,triangle,star,,,,,,,,,,,,,,,,,,,,,,,,,,,,,,,,,,,,,,,,,,,,,,,,,,,,,,
296149,2022-11-21_09h58.53.599,vts_reward_expectancy_bt,2022.2.4,MacIntel,55.55555556,Safari,1440,900,,,a,0.674,10,504,2,0,8,8,11,1,0,0,0,1,0,0,1,0,star,hexagon,,,,,,,,,,,,,,,,,,,,,,,,,,,,,,,,,,,,,,,,,,,,,,,,,,,,,,
296149,2022-11-21_09h58.53.599,vts_reward_expectancy_bt,2022.2.4,MacIntel,55.55555556,Safari,1440,900,,,l,1.696,10,514,2,0,9,9,10,1,0,0,0,1,0,1,0,0,star ,circle,,,,,,,,,,,,,,,,,,,,,,,,,,,,,,,,,,,,,,,,,,,,,,,,,,,,,,
296149,2022-11-21_09h58.53.599,vts_reward_expectancy_bt,2022.2.4,MacIntel,55.55555556,Safari,1440,900,,,a,0.567,1,515,2,0,10,10,9,1,0,0,0,1,1,0,0,0,star,triangle,,,,,,,,,,,,,,,,,,,,,,,,,,,,,,,,,,,,,,,,,,,,,,,,,,,,,,
296149,2022-11-21_09h58.53.599,vts_reward_expectancy_bt,2022.2.4,MacIntel,55.55555556,Safari,1440,900,,,l,0.672,10,525,2,0,11,11,0,1,1,0,0,0,0,1,0,0,triangle,circle,,,,,,,,,,,,,,,,,,,,,,,,,,,,,,,,,,,,,,,,,,,,,,,,,,,,,,
296149,2022-11-21_09h58.53.599,vts_reward_expectancy_bt,2022.2.4,MacIntel,55.55555556,Safari,1440,900,,,l,0.614,10,535,2,1,0,12,0,1,1,0,0,0,0,1,0,0,triangle,circle,,,,,,,,,,,,,,,,,,,,,,,,,,,,,,,,,,,,,,,,,,,,,,,,,,,,,,
296149,2022-11-21_09h58.53.599,vts_reward_expectancy_bt,2022.2.4,MacIntel,55.55555556,Safari,1440,900,,,a,0.585,10,545,2,1,1,13,11,1,0,0,0,1,0,0,1,0,star,hexagon,,,,,,,,,,,,,,,,,,,,,,,,,,,,,,,,,,,,,,,,,,,,,,,,,,,,,,
296149,2022-11-21_09h58.53.599,vts_reward_expectancy_bt,2022.2.4,MacIntel,55.55555556,Safari,1440,900,,,l,1.086,1,546,2,1,2,14,1,1,1,0,0,0,0,0,1,0,triangle,hexagon,,,,,,,,,,,,,,,,,,,,,,,,,,,,,,,,,,,,,,,,,,,,,,,,,,,,,,
296149,2022-11-21_09h58.53.599,vts_reward_expectancy_bt,2022.2.4,MacIntel,55.55555556,Safari,1440,900,,,a,0.893,10,556,2,1,3,15,9,1,0,0,0,1,1,0,0,0,star,triangle,,,,,,,,,,,,,,,,,,,,,,,,,,,,,,,,,,,,,,,,,,,,,,,,,,,,,,
296149,2022-11-21_09h58.53.599,vts_reward_expectancy_bt,2022.2.4,MacIntel,55.55555556,Safari,1440,900,,,l,1.076,10,566,2,1,4,16,2,1,1,0,0,0,0,0,0,1,triangle,star,,,,,,,,,,,,,,,,,,,,,,,,,,,,,,,,,,,,,,,,,,,,,,,,,,,,,,
296149,2022-11-21_09h58.53.599,vts_reward_expectancy_bt,2022.2.4,MacIntel,55.55555556,Safari,1440,900,,,l,0.504,1,567,2,1,5,17,5,1,0,1,0,0,0,0,0,1,circle,star,,,,,,,,,,,,,,,,,,,,,,,,,,,,,,,,,,,,,,,,,,,,,,,,,,,,,,
296149,2022-11-21_09h58.53.599,vts_reward_expectancy_bt,2022.2.4,MacIntel,55.55555556,Safari,1440,900,,,l,0.707,10,577,2,1,6,18,7,1,0,0,1,0,0,1,0,0,hexagon,circle,,,,,,,,,,,,,,,,,,,,,,,,,,,,,,,,,,,,,,,,,,,,,,,,,,,,,,
296149,2022-11-21_09h58.53.599,vts_reward_expectancy_bt,2022.2.4,MacIntel,55.55555556,Safari,1440,900,,,a,0.569,10,587,2,1,7,19,3,1,0,1,0,0,1,0,0,0,circle,triangle,,,,,,,,,,,,,,,,,,,,,,,,,,,,,,,,,,,,,,,,,,,,,,,,,,,,,,
296149,2022-11-21_09h58.53.599,vts_reward_expectancy_bt,2022.2.4,MacIntel,55.55555556,Safari,1440,900,,,a,0.601,10,597,2,1,8,20,4,1,0,1,0,0,0,0,1,0,circle,hexagon,,,,,,,,,,,,,,,,,,,,,,,,,,,,,,,,,,,,,,,,,,,,,,,,,,,,,,
296149,2022-11-21_09h58.53.599,vts_reward_expectancy_bt,2022.2.4,MacIntel,55.55555556,Safari,1440,900,,,a,0.701,10,607,2,1,9,21,10,1,0,0,0,1,0,1,0,0,star ,circle,,,,,,,,,,,,,,,,,,,,,,,,,,,,,,,,,,,,,,,,,,,,,,,,,,,,,,
296149,2022-11-21_09h58.53.599,vts_reward_expectancy_bt,2022.2.4,MacIntel,55.55555556,Safari,1440,900,,,l,0.642,10,617,2,1,10,22,8,1,0,0,1,0,0,0,0,1,hexagon,star,,,,,,,,,,,,,,,,,,,,,,,,,,,,,,,,,,,,,,,,,,,,,,,,,,,,,,
296149,2022-11-21_09h58.53.599,vts_reward_expectancy_bt,2022.2.4,MacIntel,55.55555556,Safari,1440,900,,,a,0.602,1,618,2,1,11,23,6,1,0,0,1,0,1,0,0,0,hexagon,triangle,,,,,,,,,,,,,,,,,,,,,,,,,,,,,,,,,,,,,,,,,,,,,,,,,,,,,,
296149,2022-11-21_09h58.53.599,vts_reward_expectancy_bt,2022.2.4,MacIntel,55.55555556,Safari,1440,900,,,l,0.686,10,628,2,2,0,24,2,1,1,0,0,0,0,0,0,1,triangle,star,,,,,,,,,,,,,,,,,,,,,,,,,,,,,,,,,,,,,,,,,,,,,,,,,,,,,,
296149,2022-11-21_09h58.53.599,vts_reward_expectancy_bt,2022.2.4,MacIntel,55.55555556,Safari,1440,900,,,a,0.593,1,629,2,2,1,25,9,1,0,0,0,1,1,0,0,0,star,triangle,,,,,,,,,,,,,,,,,,,,,,,,,,,,,,,,,,,,,,,,,,,,,,,,,,,,,,
296149,2022-11-21_09h58.53.599,vts_reward_expectancy_bt,2022.2.4,MacIntel,55.55555556,Safari,1440,900,,,l,0.472,1,630,2,2,2,26,1,1,1,0,0,0,0,0,1,0,triangle,hexagon,,,,,,,,,,,,,,,,,,,,,,,,,,,,,,,,,,,,,,,,,,,,,,,,,,,,,,
296149,2022-11-21_09h58.53.599,vts_reward_expectancy_bt,2022.2.4,MacIntel,55.55555556,Safari,1440,900,,,l,0.363,1,631,2,2,3,27,10,1,0,0,0,1,0,1,0,0,star ,circle,,,,,,,,,,,,,,,,,,,,,,,,,,,,,,,,,,,,,,,,,,,,,,,,,,,,,,
296149,2022-11-21_09h58.53.599,vts_reward_expectancy_bt,2022.2.4,MacIntel,55.55555556,Safari,1440,900,,,a,0.524,10,641,2,2,4,28,11,1,0,0,0,1,0,0,1,0,star,hexagon,,,,,,,,,,,,,,,,,,,,,,,,,,,,,,,,,,,,,,,,,,,,,,,,,,,,,,
296149,2022-11-21_09h58.53.599,vts_reward_expectancy_bt,2022.2.4,MacIntel,55.55555556,Safari,1440,900,,,a,0.947,1,642,2,2,5,29,6,1,0,0,1,0,1,0,0,0,hexagon,triangle,,,,,,,,,,,,,,,,,,,,,,,,,,,,,,,,,,,,,,,,,,,,,,,,,,,,,,
296149,2022-11-21_09h58.53.599,vts_reward_expectancy_bt,2022.2.4,MacIntel,55.55555556,Safari,1440,900,,,l,0.428,10,652,2,2,6,30,5,1,0,1,0,0,0,0,0,1,circle,star,,,,,,,,,,,,,,,,,,,,,,,,,,,,,,,,,,,,,,,,,,,,,,,,,,,,,,
296149,2022-11-21_09h58.53.599,vts_reward_expectancy_bt,2022.2.4,MacIntel,55.55555556,Safari,1440,900,,,l,0.752,1,653,2,2,7,31,4,1,0,1,0,0,0,0,1,0,circle,hexagon,,,,,,,,,,,,,,,,,,,,,,,,,,,,,,,,,,,,,,,,,,,,,,,,,,,,,,
296149,2022-11-21_09h58.53.599,vts_reward_expectancy_bt,2022.2.4,MacIntel,55.55555556,Safari,1440,900,,,a,0.574,1,654,2,2,8,32,8,1,0,0,1,0,0,0,0,1,hexagon,star,,,,,,,,,,,,,,,,,,,,,,,,,,,,,,,,,,,,,,,,,,,,,,,,,,,,,,
296149,2022-11-21_09h58.53.599,vts_reward_expectancy_bt,2022.2.4,MacIntel,55.55555556,Safari,1440,900,,,l,0.435,10,664,2,2,9,33,0,1,1,0,0,0,0,1,0,0,triangle,circle,,,,,,,,,,,,,,,,,,,,,,,,,,,,,,,,,,,,,,,,,,,,,,,,,,,,,,
296149,2022-11-21_09h58.53.599,vts_reward_expectancy_bt,2022.2.4,MacIntel,55.55555556,Safari,1440,900,,,a,0.504,1,665,2,2,10,34,7,1,0,0,1,0,0,1,0,0,hexagon,circle,,,,,,,,,,,,,,,,,,,,,,,,,,,,,,,,,,,,,,,,,,,,,,,,,,,,,,
296149,2022-11-21_09h58.53.599,vts_reward_expectancy_bt,2022.2.4,MacIntel,55.55555556,Safari,1440,900,,,a,0.619,1,666,2,2,11,35,3,1,0,1,0,0,1,0,0,0,circle,triangle,,,,,,,,,,,,,,,,,,,,,,,,,,,,,,,,,,,,,,,,,,,,,,,,,,,,,,
296149,2022-11-21_09h58.53.599,vts_reward_expectancy_bt,2022.2.4,MacIntel,55.55555556,Safari,1440,900,,,,,,,,,,,,,,,,,,,,,,,146,D,hexagon,1,0,d,0.986,0,0,0,0,0,1,,,,,,,,,,,,,,,,,,,,,,,,,,,,,,,,,,,,,,,,,
296149,2022-11-21_09h58.53.599,vts_reward_expectancy_bt,2022.2.4,MacIntel,55.55555556,Safari,1440,900,,,,,,,,,,,,,,,,,,,,,,,167,W,star,1,0,f,0.635,0,1,0,1,0,1,,,,,,,,,,,,,,,,,,,,,,,,,,,,,,,,,,,,,,,,,
296149,2022-11-21_09h58.53.599,vts_reward_expectancy_bt,2022.2.4,MacIntel,55.55555556,Safari,1440,900,,,,,,,,,,,,,,,,,,,,,,,181,U,triangle,1,0,f,0.735,0,2,0,2,0,1,,,,,,,,,,,,,,,,,,,,,,,,,,,,,,,,,,,,,,,,,
296149,2022-11-21_09h58.53.599,vts_reward_expectancy_bt,2022.2.4,MacIntel,55.55555556,Safari,1440,900,,,,,,,,,,,,,,,,,,,,,,,160,S,circle,1,0,f,0.566,0,3,0,3,0,1,,,,,,,,,,,,,,,,,,,,,,,,,,,,,,,,,,,,,,,,,
296149,2022-11-21_09h58.53.599,vts_reward_expectancy_bt,2022.2.4,MacIntel,55.55555556,Safari,1440,900,,,,,,,,,,,,,,,,,,,,,,,125,H,hexagon,1,0,d,1.07,0,4,0,4,0,1,,,,,,,,,,,,,,,,,,,,,,,,,,,,,,,,,,,,,,,,,
296149,2022-11-21_09h58.53.599,vts_reward_expectancy_bt,2022.2.4,MacIntel,55.55555556,Safari,1440,900,,,,,,,,,,,,,,,,,,,,,,,174,Y,star,1,0,f,0.632,0,5,0,5,0,1,,,,,,,,,,,,,,,,,,,,,,,,,,,,,,,,,,,,,,,,,
296149,2022-11-21_09h58.53.599,vts_reward_expectancy_bt,2022.2.4,MacIntel,55.55555556,Safari,1440,900,,,,,,,,,,,,,,,,,,,,,,,139,F,triangle,1,0,d,0.707,0,6,0,6,0,1,,,,,,,,,,,,,,,,,,,,,,,,,,,,,,,,,,,,,,,,,
296149,2022-11-21_09h58.53.599,vts_reward_expectancy_bt,2022.2.4,MacIntel,55.55555556,Safari,1440,900,,,,,,,,,,,,,,,,,,,,,,,132,B,circle,1,0,d,0.73,0,7,0,7,0,1,,,,,,,,,,,,,,,,,,,,,,,,,,,,,,,,,,,,,,,,,
296149,2022-11-21_09h58.53.599,vts_reward_expectancy_bt,2022.2.4,MacIntel,55.55555556,Safari,1440,900,,,,,,,,,,,,,,,,,,,,,,,146,D,circle,1,0,d,1.602,0,8,0,8,0,1,,,,,,,,,,,,,,,,,,,,,,,,,,,,,,,,,,,,,,,,,
296149,2022-11-21_09h58.53.599,vts_reward_expectancy_bt,2022.2.4,MacIntel,55.55555556,Safari,1440,900,,,,,,,,,,,,,,,,,,,,,,,167,W,hexagon,1,0,f,0.638,0,9,0,9,0,1,,,,,,,,,,,,,,,,,,,,,,,,,,,,,,,,,,,,,,,,,
296149,2022-11-21_09h58.53.599,vts_reward_expectancy_bt,2022.2.4,MacIntel,55.55555556,Safari,1440,900,,,,,,,,,,,,,,,,,,,,,,,181,W,star,1,0,,,1,,,,,,k,1.521,0,0,0,0,1,,,,,,,,,,,,,,,,,,,,,,,,,,,,,,,,,,
296149,2022-11-21_09h58.53.599,vts_reward_expectancy_bt,2022.2.4,MacIntel,55.55555556,Safari,1440,900,,,,,,,,,,,,,,,,,,,,,,,146,B,triangle,1,0,,,1,,,,,,j,0.538,1,0,1,0,1,,,,,,,,,,,,,,,,,,,,,,,,,,,,,,,,,,
296149,2022-11-21_09h58.53.599,vts_reward_expectancy_bt,2022.2.4,MacIntel,55.55555556,Safari,1440,900,,,,,,,,,,,,,,,,,,,,,,,160,U,circle,1,0,,,1,,,,,,k,0.892,2,0,2,0,1,,,,,,,,,,,,,,,,,,,,,,,,,,,,,,,,,,
296149,2022-11-21_09h58.53.599,vts_reward_expectancy_bt,2022.2.4,MacIntel,55.55555556,Safari,1440,900,,,,,,,,,,,,,,,,,,,,,,,125,S,hexagon,1,0,,,1,,,,,,k,0.686,3,0,3,0,1,,,,,,,,,,,,,,,,,,,,,,,,,,,,,,,,,,
296149,2022-11-21_09h58.53.599,vts_reward_expectancy_bt,2022.2.4,MacIntel,55.55555556,Safari,1440,900,,,,,,,,,,,,,,,,,,,,,,,167,Y,star,1,0,,,1,,,,,,k,0.759,4,0,4,0,1,,,,,,,,,,,,,,,,,,,,,,,,,,,,,,,,,,
296149,2022-11-21_09h58.53.599,vts_reward_expectancy_bt,2022.2.4,MacIntel,55.55555556,Safari,1440,900,,,,,,,,,,,,,,,,,,,,,,,139,H,triangle,1,0,,,1,,,,,,j,0.723,5,0,5,0,1,,,,,,,,,,,,,,,,,,,,,,,,,,,,,,,,,,
296149,2022-11-21_09h58.53.599,vts_reward_expectancy_bt,2022.2.4,MacIntel,55.55555556,Safari,1440,900,,,,,,,,,,,,,,,,,,,,,,,174,F,circle,1,0,,,1,,,,,,j,0.756,6,0,6,0,1,,,,,,,,,,,,,,,,,,,,,,,,,,,,,,,,,,
296149,2022-11-21_09h58.53.599,vts_reward_expectancy_bt,2022.2.4,MacIntel,55.55555556,Safari,1440,900,,,,,,,,,,,,,,,,,,,,,,,132,D,hexagon,1,0,,,1,,,,,,j,0.887,7,0,7,0,1,,,,,,,,,,,,,,,,,,,,,,,,,,,,,,,,,,
296149,2022-11-21_09h58.53.599,vts_reward_expectancy_bt,2022.2.4,MacIntel,55.55555556,Safari,1440,900,,,,,,,,,,,,,,,,,,,,,,,181,W,star,1,0,,,1,,,,,,k,0.547,8,0,8,0,1,,,,,,,,,,,,,,,,,,,,,,,,,,,,,,,,,,
296149,2022-11-21_09h58.53.599,vts_reward_expectancy_bt,2022.2.4,MacIntel,55.55555556,Safari,1440,900,,,,,,,,,,,,,,,,,,,,,,,146,B,hexagon,1,0,,,1,,,,,,j,0.731,9,0,9,0,1,,,,,,,,,,,,,,,,,,,,,,,,,,,,,,,,,,
296149,2022-11-21_09h58.53.599,vts_reward_expectancy_bt,2022.2.4,MacIntel,55.55555556,Safari,1440,900,,,,,0,666,,,,,,,,,,,,,,,,,167,S,hexagon,1,0,,,2,,,,,,,,,,,,,-1,number,NA,f,0.857,vtsPrac,0,0,0,0,1,,,,,,,,,,,,,,,,,,,,,,,
296149,2022-11-21_09h58.53.599,vts_reward_expectancy_bt,2022.2.4,MacIntel,55.55555556,Safari,1440,900,,,,,0,666,,,,,,,,,,,,,,,,,125,W,triangle,1,0,,,2,,,,,,,,,,,,,switch,letter,lettSwt,k,0.887,vtsPrac,1,0,1,0,1,,,,,,,,,,,,,,,,,,,,,,,
296149,2022-11-21_09h58.53.599,vts_reward_expectancy_bt,2022.2.4,MacIntel,55.55555556,Safari,1440,900,,,,,0,666,,,,,,,,,,,,,,,,,139,B,hexagon,1,0,,,2,,,,,,,,,,,,,repeat,letter,lettRpt,j,0.563,vtsPrac,2,0,2,0,1,,,,,,,,,,,,,,,,,,,,,,,
296149,2022-11-21_09h58.53.599,vts_reward_expectancy_bt,2022.2.4,MacIntel,55.55555556,Safari,1440,900,,,,,0,666,,,,,,,,,,,,,,,,,132,F,triangle,1,0,,,2,,,,,,,,,,,,,switch,number,numSwt,d,0.44,vtsPrac,3,0,3,0,1,,,,,,,,,,,,,,,,,,,,,,,
296149,2022-11-21_09h58.53.599,vts_reward_expectancy_bt,2022.2.4,MacIntel,55.55555556,Safari,1440,900,,,,,0,666,,,,,,,,,,,,,,,,,167,S,triangle,1,0,,,2,,,,,,,,,,,,,repeat,number,numRpt,f,0.621,vtsPrac,4,0,4,0,1,,,,,,,,,,,,,,,,,,,,,,,
296149,2022-11-21_09h58.53.599,vts_reward_expectancy_bt,2022.2.4,MacIntel,55.55555556,Safari,1440,900,,,,,0,666,,,,,,,,,,,,,,,,,125,W,star,1,0,,,2,,,,,,,,,,,,,repeat,number,numRpt,d,0.55,vtsPrac,5,0,5,0,1,,,,,,,,,,,,,,,,,,,,,,,
296149,2022-11-21_09h58.53.599,vts_reward_expectancy_bt,2022.2.4,MacIntel,55.55555556,Safari,1440,900,,,,,0,666,,,,,,,,,,,,,,,,,139,B,hexagon,1,0,,,2,,,,,,,,,,,,,switch,letter,lettSwt,j,0.669,vtsPrac,6,0,6,0,1,,,,,,,,,,,,,,,,,,,,,,,
296149,2022-11-21_09h58.53.599,vts_reward_expectancy_bt,2022.2.4,MacIntel,55.55555556,Safari,1440,900,,,,,0,666,,,,,,,,,,,,,,,,,132,F,star,1,0,,,2,,,,,,,,,,,,,repeat,letter,lettRpt,j,0.754,vtsPrac,7,0,7,0,1,,,,,,,,,,,,,,,,,,,,,,,
296149,2022-11-21_09h58.53.599,vts_reward_expectancy_bt,2022.2.4,MacIntel,55.55555556,Safari,1440,900,,,,,0,666,,,,,,,,,,,,,,,,,174,D,star,1,0,,,2,,,,,,,,,,,,,repeat,letter,lettRpt,j,0.708,vtsPrac,8,0,8,0,1,,,,,,,,,,,,,,,,,,,,,,,
296149,2022-11-21_09h58.53.599,vts_reward_expectancy_bt,2022.2.4,MacIntel,55.55555556,Safari,1440,900,,,,,0,666,,,,,,,,,,,,,,,,,125,S,hexagon,1,0,,,2,,,,,,,,,,,,,repeat,letter,lettRpt,k,0.409,vtsPrac,9,0,9,0,1,,,,,,,,,,,,,,,,,,,,,,,
296149,2022-11-21_09h58.53.599,vts_reward_expectancy_bt,2022.2.4,MacIntel,55.55555556,Safari,1440,900,,,,,0,666,,,,,,,,,,,,,,,,,160,W,hexagon,1,0,,,2,,,,,,,,,,,,,switch,number,numSwt,f,0.542,vtsPrac,10,0,10,0,1,,,,,,,,,,,,,,,,,,,,,,,
296149,2022-11-21_09h58.53.599,vts_reward_expectancy_bt,2022.2.4,MacIntel,55.55555556,Safari,1440,900,,,,,0,666,,,,,,,,,,,,,,,,,139,F,circle,1,0,,,2,,,,,,,,,,,,,repeat,number,numRpt,d,0.834,vtsPrac,11,0,11,0,1,,,,,,,,,,,,,,,,,,,,,,,
296149,2022-11-21_09h58.53.599,vts_reward_expectancy_bt,2022.2.4,MacIntel,55.55555556,Safari,1440,900,,,,,0,666,,,,,,,,,,,,,,,,,174,D,circle,1,0,,,2,,,,,,,,,,,,,repeat,number,numRpt,f,1.201,vtsPrac,12,0,12,0,1,,,,,,,,,,,,,,,,,,,,,,,
296149,2022-11-21_09h58.53.599,vts_reward_expectancy_bt,2022.2.4,MacIntel,55.55555556,Safari,1440,900,,,,,0,666,,,,,,,,,,,,,,,,,160,S,triangle,1,0,,,2,,,,,,,,,,,,,repeat,number,numRpt,f,0.786,vtsPrac,13,0,13,0,1,,,,,,,,,,,,,,,,,,,,,,,
296149,2022-11-21_09h58.53.599,vts_reward_expectancy_bt,2022.2.4,MacIntel,55.55555556,Safari,1440,900,,,,,0,666,,,,,,,,,,,,,,,,,132,F,hexagon,1,0,,,2,,,,,,,,,,,,,repeat,number,numRpt,d,0.973,vtsPrac,14,0,14,0,1,,,,,,,,,,,,,,,,,,,,,,,
296149,2022-11-21_09h58.53.599,vts_reward_expectancy_bt,2022.2.4,MacIntel,55.55555556,Safari,1440,900,,,,,0,666,,,,,,,,,,,,,,,,,139,W,star,1,0,,,2,,,,,,,,,,,,,switch,letter,lettSwt,k,0.692,vtsPrac,15,0,15,0,1,,,,,,,,,,,,,,,,,,,,,,,
296149,2022-11-21_09h58.53.599,vts_reward_expectancy_bt,2022.2.4,MacIntel,55.55555556,Safari,1440,900,,,,,0,666,,,,,,,,,,,,,,,,,139,D,hexagon,1,0,,,2,,,,,,,,,,,,,repeat,letter,lettRpt,j,0.786,vtsPrac,16,0,16,0,1,,,,,,,,,,,,,,,,,,,,,,,
296149,2022-11-21_09h58.53.599,vts_reward_expectancy_bt,2022.2.4,MacIntel,55.55555556,Safari,1440,900,,,,,0,666,,,,,,,,,,,,,,,,,132,Y,star,1,0,,,2,,,,,,,,,,,,,repeat,letter,lettRpt,k,0.776,vtsPrac,17,0,17,0,1,,,,,,,,,,,,,,,,,,,,,,,
296149,2022-11-21_09h58.53.599,vts_reward_expectancy_bt,2022.2.4,MacIntel,55.55555556,Safari,1440,900,,,,,0,666,,,,,,,,,,,,,,,,,146,H,star,-1,0,,,2,,,,,,,,,,,,,switch,no_choice,NA,,,vtsPrac,18,0,18,0,1,,,,,,,,,,,,,,,,,,,,,,,
296149,2022-11-21_09h58.53.599,vts_reward_expectancy_bt,2022.2.4,MacIntel,55.55555556,Safari,1440,900,,,,,0,666,,,,,,,,,,,,,,,,,181,S,hexagon,1,0,,,2,,,,,,,,,,,,,switch,letter,lettSwt,k,0.778,vtsPrac,19,0,19,0,1,,,,,,,,,,,,,,,,,,,,,,,
296149,2022-11-21_09h58.53.599,vts_reward_expectancy_bt,2022.2.4,MacIntel,55.55555556,Safari,1440,900,,,,,0,666,,,,,,,,,,,,,,,,,174,S,star,1,0,,,2,,,,,,,,,,,,,repeat,letter,lettRpt,k,0.889,vtsPrac,20,0,20,0,1,,,,,,,,,,,,,,,,,,,,,,,
296149,2022-11-21_09h58.53.599,vts_reward_expectancy_bt,2022.2.4,MacIntel,55.55555556,Safari,1440,900,,,,,0,666,,,,,,,,,,,,,,,,,167,H,triangle,1,0,,,2,,,,,,,,,,,,,repeat,letter,lettRpt,j,0.839,vtsPrac,21,0,21,0,1,,,,,,,,,,,,,,,,,,,,,,,
296149,2022-11-21_09h58.53.599,vts_reward_expectancy_bt,2022.2.4,MacIntel,55.55555556,Safari,1440,900,,,,,0,666,,,,,,,,,,,,,,,,,132,B,star,1,0,,,2,,,,,,,,,,,,,repeat,letter,lettRpt,j,0.94,vtsPrac,22,0,22,0,1,,,,,,,,,,,,,,,,,,,,,,,
296149,2022-11-21_09h58.53.599,vts_reward_expectancy_bt,2022.2.4,MacIntel,55.55555556,Safari,1440,900,,,,,0,666,,,,,,,,,,,,,,,,,146,Y,triangle,1,0,,,2,,,,,,,,,,,,,repeat,letter,lettRpt,k,0.555,vtsPrac,23,0,23,0,1,,,,,,,,,,,,,,,,,,,,,,,
296149,2022-11-21_09h58.53.599,vts_reward_expectancy_bt,2022.2.4,MacIntel,55.55555556,Safari,1440,900,,,,,0,666,,,,,,,,,,,,,,,,,181,S,hexagon,1,0,,,2,,,,,,,,,,,,,repeat,letter,lettRpt,k,1.124,vtsPrac,24,0,24,0,1,,,,,,,,,,,,,,,,,,,,,,,
296149,2022-11-21_09h58.53.599,vts_reward_expectancy_bt,2022.2.4,MacIntel,55.55555556,Safari,1440,900,,,,,0,666,,,,,,,,,,,,,,,,,160,U,star,1,0,,,2,,,,,,,,,,,,,repeat,letter,lettRpt,k,0.575,vtsPrac,25,0,25,0,1,,,,,,,,,,,,,,,,,,,,,,,
296149,2022-11-21_09h58.53.599,vts_reward_expectancy_bt,2022.2.4,MacIntel,55.55555556,Safari,1440,900,,,,,0,666,,,,,,,,,,,,,,,,,174,F,circle,1,0,,,2,,,,,,,,,,,,,repeat,letter,lettRpt,j,0.799,vtsPrac,26,0,26,0,1,,,,,,,,,,,,,,,,,,,,,,,
296149,2022-11-21_09h58.53.599,vts_reward_expectancy_bt,2022.2.4,MacIntel,55.55555556,Safari,1440,900,,,,,0,666,,,,,,,,,,,,,,,,,167,Y,triangle,1,0,,,2,,,,,,,,,,,,,repeat,letter,lettRpt,k,1.965,vtsPrac,27,0,27,0,1,,,,,,,,,,,,,,,,,,,,,,,
296149,2022-11-21_09h58.53.599,vts_reward_expectancy_bt,2022.2.4,MacIntel,55.55555556,Safari,1440,900,,,,,0,666,,,,,,,,,,,,,,,,,174,F,triangle,1,0,,,2,,,,,,,,,,,,,repeat,letter,lettRpt,j,0.654,vtsPrac,28,0,28,0,1,,,,,,,,,,,,,,,,,,,,,,,
296149,2022-11-21_09h58.53.599,vts_reward_expectancy_bt,2022.2.4,MacIntel,55.55555556,Safari,1440,900,,,,,0,666,,,,,,,,,,,,,,,,,132,U,star,1,0,,,2,,,,,,,,,,,,,repeat,letter,lettRpt,k,0.516,vtsPrac,29,0,29,0,1,,,,,,,,,,,,,,,,,,,,,,,
296149,2022-11-21_09h58.53.599,vts_reward_expectancy_bt,2022.2.4,MacIntel,55.55555556,Safari,1440,900,,,,,0,666,,,,,,,,,,,,,,,,,146,Y,circle,1,0,,,2,,,,,,,,,,,,,repeat,letter,lettRpt,k,1.12,vtsPrac,30,0,30,0,1,,,,,,,,,,,,,,,,,,,,,,,
296149,2022-11-21_09h58.53.599,vts_reward_expectancy_bt,2022.2.4,MacIntel,55.55555556,Safari,1440,900,,,,,0,666,,,,,,,,,,,,,,,,,160,W,star,1,0,,,2,,,,,,,,,,,,,repeat,letter,lettRpt,k,1.058,vtsPrac,31,0,31,0,1,,,,,,,,,,,,,,,,,,,,,,,
296149,2022-11-21_09h58.53.599,vts_reward_expectancy_bt,2022.2.4,MacIntel,55.55555556,Safari,1440,900,,,,,,,,,,,,,,,,,,,,,,,,,,,,,,,,,,,,,,,,,,,,,,,,,,,,,,,,,,,,,,,,,,,,,,,,,,,,
296149,2022-11-21_09h58.53.599,vts_reward_expectancy_bt,2022.2.4,MacIntel,55.55555556,Safari,1440,900,,,,,,,,,,,,,,,,,,,,,,,,,,,,,,,,,,,,,,,,,,,,,,,,,,,,,,,,,,,,,,,,,,,,,,,,,,,,
296149,2022-11-21_09h58.53.599,vts_reward_expectancy_bt,2022.2.4,MacIntel,55.55555556,Safari,1440,900,,,,,0,666,,,,,,,,,,,,,,,,,146,Y,star,1,0,,,,,,,,,,,,,,,,repeat,letter,lettRpt,k,0.69,noRew,,,,,,0,0,0,0,0,1,,,,,,,,,,,,,,,,,
296149,2022-11-21_09h58.53.599,vts_reward_expectancy_bt,2022.2.4,MacIntel,55.55555556,Safari,1440,900,,,,,0,666,,,,,,,,,,,,,,,,,125,B,triangle,1,0,,,,,,,,,,,,,,,,repeat,letter,lettRpt,j,0.505,noRew,,,,,,0,1,0,1,0,1,,,,,,,,,,,,,,,,,
296149,2022-11-21_09h58.53.599,vts_reward_expectancy_bt,2022.2.4,MacIntel,55.55555556,Safari,1440,900,,,,,0,666,,,,,,,,,,,,,,,,,132,W,star,1,0,,,,,,,,,,,,,,,,switch,number,numSwt,d,1.267,noRew,,,,,,0,2,0,2,0,1,,,,,,,,,,,,,,,,,
296149,2022-11-21_09h58.53.599,vts_reward_expectancy_bt,2022.2.4,MacIntel,55.55555556,Safari,1440,900,,,,,0,666,,,,,,,,,,,,,,,,,181,U,triangle,1,0,,,,,,,,,,,,,,,,repeat,number,numRpt,f,0.731,noRew,,,,,,0,3,0,3,0,1,,,,,,,,,,,,,,,,,
296149,2022-11-21_09h58.53.599,vts_reward_expectancy_bt,2022.2.4,MacIntel,55.55555556,Safari,1440,900,,,,,0,666,,,,,,,,,,,,,,,,,146,Y,triangle,1,0,,,,,,,,,,,,,,,,switch,letter,lettSwt,k,0.676,noRew,,,,,,0,4,0,4,0,1,,,,,,,,,,,,,,,,,
296149,2022-11-21_09h58.53.599,vts_reward_expectancy_bt,2022.2.4,MacIntel,55.55555556,Safari,1440,900,,,,,0,666,,,,,,,,,,,,,,,,,125,B,circle,1,0,,,,,,,,,,,,,,,,repeat,letter,lettRpt,j,0.421,noRew,,,,,,0,5,0,5,0,1,,,,,,,,,,,,,,,,,
296149,2022-11-21_09h58.53.599,vts_reward_expectancy_bt,2022.2.4,MacIntel,55.55555556,Safari,1440,900,,,,,0,666,,,,,,,,,,,,,,,,,132,W,star,1,0,,,,,,,,,,,,,,,,switch,number,numSwt,d,0.595,noRew,,,,,,0,6,0,6,0,1,,,,,,,,,,,,,,,,,
296149,2022-11-21_09h58.53.599,vts_reward_expectancy_bt,2022.2.4,MacIntel,55.55555556,Safari,1440,900,,,,,0,666,,,,,,,,,,,,,,,,,181,U,triangle,1,0,,,,,,,,,,,,,,,,repeat,number,numRpt,f,0.549,noRew,,,,,,0,7,0,7,0,1,,,,,,,,,,,,,,,,,
296149,2022-11-21_09h58.53.599,vts_reward_expectancy_bt,2022.2.4,MacIntel,55.55555556,Safari,1440,900,,,,,0,666,,,,,,,,,,,,,,,,,181,U,hexagon,1,0,,,,,,,,,,,,,,,,switch,letter,lettSwt,k,0.808,noRew,,,,,,0,8,0,8,0,1,,,,,,,,,,,,,,,,,
296149,2022-11-21_09h58.53.599,vts_reward_expectancy_bt,2022.2.4,MacIntel,55.55555556,Safari,1440,900,,,,,0,666,,,,,,,,,,,,,,,,,146,W,star,1,0,,,,,,,,,,,,,,,,repeat,letter,lettRpt,k,0.705,noRew,,,,,,0,9,0,9,0,1,,,,,,,,,,,,,,,,,
296149,2022-11-21_09h58.53.599,vts_reward_expectancy_bt,2022.2.4,MacIntel,55.55555556,Safari,1440,900,,,,,0,666,,,,,,,,,,,,,,,,,167,S,circle,1,0,,,,,,,,,,,,,,,,repeat,letter,lettRpt,k,0.652,noRew,,,,,,0,10,0,10,0,1,,,,,,,,,,,,,,,,,
296149,2022-11-21_09h58.53.599,vts_reward_expectancy_bt,2022.2.4,MacIntel,55.55555556,Safari,1440,900,,,,,0,666,,,,,,,,,,,,,,,,,174,D,hexagon,1,0,,,,,,,,,,,,,,,,repeat,letter,lettRpt,j,0.671,noRew,,,,,,0,11,0,11,0,1,,,,,,,,,,,,,,,,,
296149,2022-11-21_09h58.53.599,vts_reward_expectancy_bt,2022.2.4,MacIntel,55.55555556,Safari,1440,900,,,,,0,666,,,,,,,,,,,,,,,,,125,H,circle,1,0,,,,,,,,,,,,,,,,switch,number,numSwt,d,0.789,noRew,,,,,,0,12,0,12,0,1,,,,,,,,,,,,,,,,,
296149,2022-11-21_09h58.53.599,vts_reward_expectancy_bt,2022.2.4,MacIntel,55.55555556,Safari,1440,900,,,,,0,666,,,,,,,,,,,,,,,,,132,W,hexagon,1,0,,,,,,,,,,,,,,,,repeat,number,numRpt,d,0.689,noRew,,,,,,0,13,0,13,0,1,,,,,,,,,,,,,,,,,
296149,2022-11-21_09h58.53.599,vts_reward_expectancy_bt,2022.2.4,MacIntel,55.55555556,Safari,1440,900,,,,,0,666,,,,,,,,,,,,,,,,,181,F,circle,1,0,,,,,,,,,,,,,,,,repeat,number,numRpt,f,0.639,noRew,,,,,,0,14,0,14,0,1,,,,,,,,,,,,,,,,,
296149,2022-11-21_09h58.53.599,vts_reward_expectancy_bt,2022.2.4,MacIntel,55.55555556,Safari,1440,900,,,,,0,666,,,,,,,,,,,,,,,,,174,S,hexagon,1,0,,,,,,,,,,,,,,,,switch,letter,lettSwt,k,0.018,noRew,,,,,,0,15,0,15,0,1,,,,,,,,,,,,,,,,,
296149,2022-11-21_09h58.53.599,vts_reward_expectancy_bt,2022.2.4,MacIntel,55.55555556,Safari,1440,900,,,,,0,666,,,,,,,,,,,,,,,,,160,U,hexagon,1,0,,,,,,,,,,,,,,,,switch,number,numSwt,f,1.04,noRew,,,,,,0,16,0,16,0,1,,,,,,,,,,,,,,,,,
296149,2022-11-21_09h58.53.599,vts_reward_expectancy_bt,2022.2.4,MacIntel,55.55555556,Safari,1440,900,,,,,0,666,,,,,,,,,,,,,,,,,139,Y,circle,0,0,,,,,,,,,,,,,,,,repeat,number,NA,f,1.848,noRew,,,,,,0,17,0,17,0,1,,,,,,,,,,,,,,,,,
296149,2022-11-21_09h58.53.599,vts_reward_expectancy_bt,2022.2.4,MacIntel,55.55555556,Safari,1440,900,,,,,0,666,,,,,,,,,,,,,,,,,132,F,circle,1,1,,,,,,,,,,,,,,,,switch,letter,lettSwt,j,2.386,noRew,,,,,,0,18,0,18,0,1,,,,,,,,,,,,,,,,,
296149,2022-11-21_09h58.53.599,vts_reward_expectancy_bt,2022.2.4,MacIntel,55.55555556,Safari,1440,900,,,,,0,666,,,,,,,,,,,,,,,,,146,S,star,1,0,,,,,,,,,,,,,,,,repeat,letter,lettRpt,k,1.431,noRew,,,,,,0,19,0,19,0,1,,,,,,,,,,,,,,,,,
296149,2022-11-21_09h58.53.599,vts_reward_expectancy_bt,2022.2.4,MacIntel,55.55555556,Safari,1440,900,,,,,0,666,,,,,,,,,,,,,,,,,139,U,star,-1,0,,,,,,,,,,,,,,,,switch,no_choice,NA,,,noRew,,,,,,0,20,0,20,0,1,,,,,,,,,,,,,,,,,
296149,2022-11-21_09h58.53.599,vts_reward_expectancy_bt,2022.2.4,MacIntel,55.55555556,Safari,1440,900,,,,,0,666,,,,,,,,,,,,,,,,,146,H,hexagon,1,0,,,,,,,,,,,,,,,,switch,letter,lettSwt,j,1.738,noRew,,,,,,0,21,0,21,0,1,,,,,,,,,,,,,,,,,
296149,2022-11-21_09h58.53.599,vts_reward_expectancy_bt,2022.2.4,MacIntel,55.55555556,Safari,1440,900,,,,,0,666,,,,,,,,,,,,,,,,,181,B,triangle,1,0,,,,,,,,,,,,,,,,switch,number,numSwt,f,1.754,noRew,,,,,,0,22,0,22,0,1,,,,,,,,,,,,,,,,,
296149,2022-11-21_09h58.53.599,vts_reward_expectancy_bt,2022.2.4,MacIntel,55.55555556,Safari,1440,900,,,,,0,666,,,,,,,,,,,,,,,,,125,D,hexagon,1,0,,,,,,,,,,,,,,,,repeat,number,numRpt,d,0.852,noRew,,,,,,0,23,0,23,0,1,,,,,,,,,,,,,,,,,
296149,2022-11-21_09h58.53.599,vts_reward_expectancy_bt,2022.2.4,MacIntel,55.55555556,Safari,1440,900,,,,,0,666,,,,,,,,,,,,,,,,,167,B,circle,1,0,,,,,,,,,,,,,,,,repeat,number,numRpt,f,1.333,noRew,,,,,,0,24,0,24,0,1,,,,,,,,,,,,,,,,,
296149,2022-11-21_09h58.53.599,vts_reward_expectancy_bt,2022.2.4,MacIntel,55.55555556,Safari,1440,900,,,,,0,666,,,,,,,,,,,,,,,,,146,U,hexagon,1,0,,,,,,,,,,,,,,,,repeat,number,numRpt,d,2.44,noRew,,,,,,0,25,0,25,0,1,,,,,,,,,,,,,,,,,
296149,2022-11-21_09h58.53.599,vts_reward_expectancy_bt,2022.2.4,MacIntel,55.55555556,Safari,1440,900,,,,,0,666,,,,,,,,,,,,,,,,,139,D,star,1,0,,,,,,,,,,,,,,,,repeat,number,numRpt,d,0.642,noRew,,,,,,0,26,0,26,0,1,,,,,,,,,,,,,,,,,
296149,2022-11-21_09h58.53.599,vts_reward_expectancy_bt,2022.2.4,MacIntel,55.55555556,Safari,1440,900,,,,,0,666,,,,,,,,,,,,,,,,,125,H,circle,1,0,,,,,,,,,,,,,,,,repeat,number,numRpt,d,0.642,noRew,,,,,,0,27,0,27,0,1,,,,,,,,,,,,,,,,,
296149,2022-11-21_09h58.53.599,vts_reward_expectancy_bt,2022.2.4,MacIntel,55.55555556,Safari,1440,900,,,,,0,666,,,,,,,,,,,,,,,,,125,H,triangle,1,0,,,,,,,,,,,,,,,,repeat,number,numRpt,d,1.19,noRew,,,,,,0,28,0,28,0,1,,,,,,,,,,,,,,,,,
296149,2022-11-21_09h58.53.599,vts_reward_expectancy_bt,2022.2.4,MacIntel,55.55555556,Safari,1440,900,,,,,0,666,,,,,,,,,,,,,,,,,132,B,hexagon,1,0,,,,,,,,,,,,,,,,repeat,number,numRpt,d,0.853,noRew,,,,,,0,29,0,29,0,1,,,,,,,,,,,,,,,,,
296149,2022-11-21_09h58.53.599,vts_reward_expectancy_bt,2022.2.4,MacIntel,55.55555556,Safari,1440,900,,,,,0,666,,,,,,,,,,,,,,,,,160,S,hexagon,1,0,,,,,,,,,,,,,,,,repeat,number,numRpt,f,0.473,noRew,,,,,,0,30,0,30,0,1,,,,,,,,,,,,,,,,,
296149,2022-11-21_09h58.53.599,vts_reward_expectancy_bt,2022.2.4,MacIntel,55.55555556,Safari,1440,900,,,,,0,666,,,,,,,,,,,,,,,,,174,U,star,1,0,,,,,,,,,,,,,,,,repeat,number,numRpt,f,1.384,noRew,,,,,,0,31,0,31,0,1,,,,,,,,,,,,,,,,,
296149,2022-11-21_09h58.53.599,vts_reward_expectancy_bt,2022.2.4,MacIntel,55.55555556,Safari,1440,900,,,,,0,666,,,,,,,,,,,,,,,,,146,U,triangle,1,0,,,,,,,,,,,,,,,,repeat,number,numRpt,d,0.741,noRew,,,,,,0,32,0,32,0,1,,,,,,,,,,,,,,,,,
296149,2022-11-21_09h58.53.599,vts_reward_expectancy_bt,2022.2.4,MacIntel,55.55555556,Safari,1440,900,,,,,0,666,,,,,,,,,,,,,,,,,174,F,circle,1,0,,,,,,,,,,,,,,,,repeat,number,numRpt,f,0.787,noRew,,,,,,0,33,0,33,0,1,,,,,,,,,,,,,,,,,
296149,2022-11-21_09h58.53.599,vts_reward_expectancy_bt,2022.2.4,MacIntel,55.55555556,Safari,1440,900,,,,,0,666,,,,,,,,,,,,,,,,,132,H,triangle,1,0,,,,,,,,,,,,,,,,repeat,number,numRpt,d,1.411,noRew,,,,,,0,34,0,34,0,1,,,,,,,,,,,,,,,,,
296149,2022-11-21_09h58.53.599,vts_reward_expectancy_bt,2022.2.4,MacIntel,55.55555556,Safari,1440,900,,,,,0,666,,,,,,,,,,,,,,,,,167,S,hexagon,1,0,,,,,,,,,,,,,,,,repeat,number,numRpt,f,2.182,noRew,,,,,,0,35,0,35,0,1,,,,,,,,,,,,,,,,,
296149,2022-11-21_09h58.53.599,vts_reward_expectancy_bt,2022.2.4,MacIntel,55.55555556,Safari,1440,900,,,,,0,666,,,,,,,,,,,,,,,,,125,H,star,1,0,,,,,,,,,,,,,,,,repeat,number,numRpt,d,2.028,noRew,,,,,,0,36,0,36,0,1,,,,,,,,,,,,,,,,,
296149,2022-11-21_09h58.53.599,vts_reward_expectancy_bt,2022.2.4,MacIntel,55.55555556,Safari,1440,900,,,,,0,666,,,,,,,,,,,,,,,,,174,W,hexagon,0,0,,,,,,,,,,,,,,,,repeat,number,NA,d,2.1,noRew,,,,,,0,37,0,37,0,1,,,,,,,,,,,,,,,,,
296149,2022-11-21_09h58.53.599,vts_reward_expectancy_bt,2022.2.4,MacIntel,55.55555556,Safari,1440,900,,,,,0,666,,,,,,,,,,,,,,,,,167,F,triangle,1,1,,,,,,,,,,,,,,,,repeat,number,numRpt,f,1.587,noRew,,,,,,0,38,0,38,0,1,,,,,,,,,,,,,,,,,
296149,2022-11-21_09h58.53.599,vts_reward_expectancy_bt,2022.2.4,MacIntel,55.55555556,Safari,1440,900,,,,,0,666,,,,,,,,,,,,,,,,,181,Y,circle,1,0,,,,,,,,,,,,,,,,repeat,number,numRpt,f,1.976,noRew,,,,,,0,39,0,39,0,1,,,,,,,,,,,,,,,,,
296149,2022-11-21_09h58.53.599,vts_reward_expectancy_bt,2022.2.4,MacIntel,55.55555556,Safari,1440,900,,,,,0,666,,,,,,,,,,,,,,,,,160,F,star,1,0,,,,,,,,,,,,,,,,repeat,number,numRpt,f,0.908,noRew,,,,,,0,40,0,40,0,1,,,,,,,,,,,,,,,,,
296149,2022-11-21_09h58.53.599,vts_reward_expectancy_bt,2022.2.4,MacIntel,55.55555556,Safari,1440,900,,,,,0,666,,,,,,,,,,,,,,,,,132,S,hexagon,1,0,,,,,,,,,,,,,,,,repeat,number,numRpt,d,0.836,noRew,,,,,,0,41,0,41,0,1,,,,,,,,,,,,,,,,,
296149,2022-11-21_09h58.53.599,vts_reward_expectancy_bt,2022.2.4,MacIntel,55.55555556,Safari,1440,900,,,,,0,666,,,,,,,,,,,,,,,,,174,B,triangle,1,0,,,,,,,,,,,,,,,,repeat,number,numRpt,f,1.336,noRew,,,,,,0,42,0,42,0,1,,,,,,,,,,,,,,,,,
296149,2022-11-21_09h58.53.599,vts_reward_expectancy_bt,2022.2.4,MacIntel,55.55555556,Safari,1440,900,,,,,0,666,,,,,,,,,,,,,,,,,167,Y,circle,1,0,,,,,,,,,,,,,,,,repeat,number,numRpt,f,1.823,noRew,,,,,,0,43,0,43,0,1,,,,,,,,,,,,,,,,,
296149,2022-11-21_09h58.53.599,vts_reward_expectancy_bt,2022.2.4,MacIntel,55.55555556,Safari,1440,900,,,,,0,666,,,,,,,,,,,,,,,,,132,D,hexagon,1,0,,,,,,,,,,,,,,,,repeat,number,numRpt,d,0.905,noRew,,,,,,0,44,0,44,0,1,,,,,,,,,,,,,,,,,
296149,2022-11-21_09h58.53.599,vts_reward_expectancy_bt,2022.2.4,MacIntel,55.55555556,Safari,1440,900,,,,,0,666,,,,,,,,,,,,,,,,,181,F,triangle,1,0,,,,,,,,,,,,,,,,repeat,number,numRpt,f,0.804,noRew,,,,,,0,45,0,45,0,1,,,,,,,,,,,,,,,,,
296149,2022-11-21_09h58.53.599,vts_reward_expectancy_bt,2022.2.4,MacIntel,55.55555556,Safari,1440,900,,,,,0,666,,,,,,,,,,,,,,,,,125,S,circle,1,0,,,,,,,,,,,,,,,,repeat,number,numRpt,d,0.94,noRew,,,,,,0,46,0,46,0,1,,,,,,,,,,,,,,,,,
296149,2022-11-21_09h58.53.599,vts_reward_expectancy_bt,2022.2.4,MacIntel,55.55555556,Safari,1440,900,,,,,0,666,,,,,,,,,,,,,,,,,139,H,triangle,1,0,,,,,,,,,,,,,,,,repeat,number,numRpt,d,1.96,noRew,,,,,,0,47,0,47,0,1,,,,,,,,,,,,,,,,,
296149,2022-11-21_09h58.53.599,vts_reward_expectancy_bt,2022.2.4,MacIntel,55.55555556,Safari,1440,900,,,,,0,666,,,,,,,,,,,,,,,,,181,F,circle,1,0,,,,,,,,,,,,,,,,repeat,number,numRpt,f,1.041,noRew,,,,,,0,48,0,48,0,1,,,,,,,,,,,,,,,,,
296149,2022-11-21_09h58.53.599,vts_reward_expectancy_bt,2022.2.4,MacIntel,55.55555556,Safari,1440,900,,,,,0,666,,,,,,,,,,,,,,,,,139,Y,triangle,1,0,,,,,,,,,,,,,,,,repeat,number,numRpt,d,0.856,noRew,,,,,,0,49,0,49,0,1,,,,,,,,,,,,,,,,,
296149,2022-11-21_09h58.53.599,vts_reward_expectancy_bt,2022.2.4,MacIntel,55.55555556,Safari,1440,900,,,,,0,666,,,,,,,,,,,,,,,,,174,D,triangle,1,0,,,,,,,,,,,,,,,,repeat,number,numRpt,f,1.2,noRew,,,,,,0,50,0,50,0,1,,,,,,,,,,,,,,,,,
296149,2022-11-21_09h58.53.599,vts_reward_expectancy_bt,2022.2.4,MacIntel,55.55555556,Safari,1440,900,,,,,0,666,,,,,,,,,,,,,,,,,146,U,hexagon,1,0,,,,,,,,,,,,,,,,repeat,number,numRpt,d,1.273,noRew,,,,,,0,51,0,51,0,1,,,,,,,,,,,,,,,,,
296149,2022-11-21_09h58.53.599,vts_reward_expectancy_bt,2022.2.4,MacIntel,55.55555556,Safari,1440,900,,,,,0,666,,,,,,,,,,,,,,,,,160,F,triangle,1,0,,,,,,,,,,,,,,,,repeat,number,numRpt,f,0.788,noRew,,,,,,0,52,0,52,0,1,,,,,,,,,,,,,,,,,
296149,2022-11-21_09h58.53.599,vts_reward_expectancy_bt,2022.2.4,MacIntel,55.55555556,Safari,1440,900,,,,,0,666,,,,,,,,,,,,,,,,,146,D,star,1,0,,,,,,,,,,,,,,,,repeat,number,numRpt,d,0.673,noRew,,,,,,0,53,0,53,0,1,,,,,,,,,,,,,,,,,
296149,2022-11-21_09h58.53.599,vts_reward_expectancy_bt,2022.2.4,MacIntel,55.55555556,Safari,1440,900,,,,,0,666,,,,,,,,,,,,,,,,,125,S,circle,1,0,,,,,,,,,,,,,,,,repeat,number,numRpt,d,0.792,noRew,,,,,,0,54,0,54,0,1,,,,,,,,,,,,,,,,,
296149,2022-11-21_09h58.53.599,vts_reward_expectancy_bt,2022.2.4,MacIntel,55.55555556,Safari,1440,900,,,,,0,666,,,,,,,,,,,,,,,,,174,B,star,1,0,,,,,,,,,,,,,,,,repeat,number,numRpt,f,1.158,noRew,,,,,,0,55,0,55,0,1,,,,,,,,,,,,,,,,,
296149,2022-11-21_09h58.53.599,vts_reward_expectancy_bt,2022.2.4,MacIntel,55.55555556,Safari,1440,900,,,,,0,666,,,,,,,,,,,,,,,,,139,Y,hexagon,1,0,,,,,,,,,,,,,,,,repeat,number,numRpt,d,1.738,noRew,,,,,,0,56,0,56,0,1,,,,,,,,,,,,,,,,,
296149,2022-11-21_09h58.53.599,vts_reward_expectancy_bt,2022.2.4,MacIntel,55.55555556,Safari,1440,900,,,,,0,666,,,,,,,,,,,,,,,,,181,B,circle,1,0,,,,,,,,,,,,,,,,repeat,number,numRpt,f,1.597,noRew,,,,,,0,57,0,57,0,1,,,,,,,,,,,,,,,,,
296149,2022-11-21_09h58.53.599,vts_reward_expectancy_bt,2022.2.4,MacIntel,55.55555556,Safari,1440,900,,,,,0,666,,,,,,,,,,,,,,,,,167,D,circle,1,0,,,,,,,,,,,,,,,,repeat,number,numRpt,f,2.02,noRew,,,,,,0,58,0,58,0,1,,,,,,,,,,,,,,,,,
296149,2022-11-21_09h58.53.599,vts_reward_expectancy_bt,2022.2.4,MacIntel,55.55555556,Safari,1440,900,,,,,0,666,,,,,,,,,,,,,,,,,174,H,triangle,1,0,,,,,,,,,,,,,,,,repeat,number,numRpt,f,1.676,noRew,,,,,,0,59,0,59,0,1,,,,,,,,,,,,,,,,,
296149,2022-11-21_09h58.53.599,vts_reward_expectancy_bt,2022.2.4,MacIntel,55.55555556,Safari,1440,900,,,,,0,666,,,,,,,,,,,,,,,,,181,U,star,1,0,,,,,,,,,,,,,,,,repeat,number,numRpt,f,0.832,noRew,,,,,,0,60,0,60,0,1,,,,,,,,,,,,,,,,,
296149,2022-11-21_09h58.53.599,vts_reward_expectancy_bt,2022.2.4,MacIntel,55.55555556,Safari,1440,900,,,,,0,666,,,,,,,,,,,,,,,,,146,F,triangle,1,0,,,,,,,,,,,,,,,,repeat,number,numRpt,d,0.67,noRew,,,,,,0,61,0,61,0,1,,,,,,,,,,,,,,,,,
296149,2022-11-21_09h58.53.599,vts_reward_expectancy_bt,2022.2.4,MacIntel,55.55555556,Safari,1440,900,,,,,0,666,,,,,,,,,,,,,,,,,160,D,star,1,0,,,,,,,,,,,,,,,,repeat,number,numRpt,f,1.635,noRew,,,,,,0,62,0,62,0,1,,,,,,,,,,,,,,,,,
296149,2022-11-21_09h58.53.599,vts_reward_expectancy_bt,2022.2.4,MacIntel,55.55555556,Safari,1440,900,,,,,0,666,,,,,,,,,,,,,,,,,174,B,triangle,1,0,,,,,,,,,,,,,,,,repeat,number,numRpt,f,1.26,noRew,,,,,,0,63,0,63,0,1,,,,,,,,,,,,,,,,,
296149,2022-11-21_09h58.53.599,vts_reward_expectancy_bt,2022.2.4,MacIntel,55.55555556,Safari,1440,900,,,,,,,,,,,,,,,,,,,,,,,,,,,,,,,,,,,,,,,,,,,,,,,,,,,,,,,,,,,,,,,,,,,,,,,,,,,,
296149,2022-11-21_09h58.53.599,vts_reward_expectancy_bt,2022.2.4,MacIntel,55.55555556,Safari,1440,900,,,,,1,667,,,,,,,,,,,,,,,,,139,Y,hexagon,1,0,,,,,,,,,,,,,,,,switch,letter,lettSwt,k,0.798,Lo,,,,,,0,,,,,,space,2.004,high,0,0,0,0,1,,,,,,,,,
296149,2022-11-21_09h58.53.599,vts_reward_expectancy_bt,2022.2.4,MacIntel,55.55555556,Safari,1440,900,,,,,0,667,,,,,,,,,,,,,,,,,132,D,circle,1,0,,,,,,,,,,,,,,,,repeat,letter,lettRpt,j,1.291,Hi,,,,,,0,,,,,,,,high,1,0,1,0,1,,,,,,,,,
296149,2022-11-21_09h58.53.599,vts_reward_expectancy_bt,2022.2.4,MacIntel,55.55555556,Safari,1440,900,,,,,10,677,,,,,,,,,,,,,,,,,160,S,star,1,0,,,,,,,,,,,,,,,,switch,number,numSwt,f,0.609,Hi,,,,,,0,,,,,,,,high,2,0,2,0,1,,,,,,,,,
296149,2022-11-21_09h58.53.599,vts_reward_expectancy_bt,2022.2.4,MacIntel,55.55555556,Safari,1440,900,,,,,10,687,,,,,,,,,,,,,,,,,125,U,triangle,1,0,,,,,,,,,,,,,,,,repeat,number,numRpt,d,0.87,Lo,,,,,,0,,,,,,,,high,3,0,3,0,1,,,,,,,,,
296149,2022-11-21_09h58.53.599,vts_reward_expectancy_bt,2022.2.4,MacIntel,55.55555556,Safari,1440,900,,,,,1,688,,,,,,,,,,,,,,,,,181,B,hexagon,1,0,,,,,,,,,,,,,,,,switch,letter,lettSwt,j,0.453,Lo,,,,,,0,,,,,,,,high,4,0,4,0,1,,,,,,,,,
296149,2022-11-21_09h58.53.599,vts_reward_expectancy_bt,2022.2.4,MacIntel,55.55555556,Safari,1440,900,,,,,0,688,,,,,,,,,,,,,,,,,146,H,circle,1,0,,,,,,,,,,,,,,,,repeat,letter,lettRpt,j,0.859,Hi,,,,,,0,,,,,,,,high,5,0,5,0,1,,,,,,,,,
296149,2022-11-21_09h58.53.599,vts_reward_expectancy_bt,2022.2.4,MacIntel,55.55555556,Safari,1440,900,,,,,0,688,,,,,,,,,,,,,,,,,174,F,star,1,0,,,,,,,,,,,,,,,,switch,number,numSwt,f,1.061,Hi,,,,,,0,,,,,,,,high,6,0,6,0,1,,,,,,,,,
296149,2022-11-21_09h58.53.599,vts_reward_expectancy_bt,2022.2.4,MacIntel,55.55555556,Safari,1440,900,,,,,1,689,,,,,,,,,,,,,,,,,167,W,triangle,1,0,,,,,,,,,,,,,,,,repeat,number,numRpt,f,1.039,Lo,,,,,,0,,,,,,,,high,7,0,7,0,1,,,,,,,,,
296149,2022-11-21_09h58.53.599,vts_reward_expectancy_bt,2022.2.4,MacIntel,55.55555556,Safari,1440,900,,,,,0,689,,,,,,,,,,,,,,,,,139,Y,triangle,0,0,,,,,,,,,,,,,,,,switch,letter,NA,j,0.726,Lo,,,,,,0,,,,,,,,high,8,0,8,0,1,,,,,,,,,
296149,2022-11-21_09h58.53.599,vts_reward_expectancy_bt,2022.2.4,MacIntel,55.55555556,Safari,1440,900,,,,,1,690,,,,,,,,,,,,,,,,,132,D,hexagon,1,1,,,,,,,,,,,,,,,,repeat,letter,lettRpt,j,0.725,Lo,,,,,,0,,,,,,,,high,9,0,9,0,1,,,,,,,,,
296149,2022-11-21_09h58.53.599,vts_reward_expectancy_bt,2022.2.4,MacIntel,55.55555556,Safari,1440,900,,,,,10,700,,,,,,,,,,,,,,,,,160,S,circle,1,0,,,,,,,,,,,,,,,,repeat,letter,lettRpt,k,0.603,Hi,,,,,,0,,,,,,,,high,10,0,10,0,1,,,,,,,,,
296149,2022-11-21_09h58.53.599,vts_reward_expectancy_bt,2022.2.4,MacIntel,55.55555556,Safari,1440,900,,,,,0,700,,,,,,,,,,,,,,,,,125,U,star,1,0,,,,,,,,,,,,,,,,repeat,letter,lettRpt,k,0.686,Hi,,,,,,0,,,,,,,,high,11,0,11,0,1,,,,,,,,,
296149,2022-11-21_09h58.53.599,vts_reward_expectancy_bt,2022.2.4,MacIntel,55.55555556,Safari,1440,900,,,,,10,710,,,,,,,,,,,,,,,,,181,B,hexagon,1,0,,,,,,,,,,,,,,,,repeat,letter,lettRpt,j,0.74,Lo,,,,,,0,,,,,,,,high,12,0,12,0,1,,,,,,,,,
296149,2022-11-21_09h58.53.599,vts_reward_expectancy_bt,2022.2.4,MacIntel,55.55555556,Safari,1440,900,,,,,0,710,,,,,,,,,,,,,,,,,146,H,triangle,0,0,,,,,,,,,,,,,,,,repeat,letter,NA,k,0.639,Lo,,,,,,0,,,,,,,,high,13,0,13,0,1,,,,,,,,,
296149,2022-11-21_09h58.53.599,vts_reward_expectancy_bt,2022.2.4,MacIntel,55.55555556,Safari,1440,900,,,,,10,720,,,,,,,,,,,,,,,,,174,F,circle,1,1,,,,,,,,,,,,,,,,repeat,letter,lettRpt,j,0.499,Hi,,,,,,0,,,,,,,,high,14,0,14,0,1,,,,,,,,,
296149,2022-11-21_09h58.53.599,vts_reward_expectancy_bt,2022.2.4,MacIntel,55.55555556,Safari,1440,900,,,,,10,730,,,,,,,,,,,,,,,,,167,W,star,1,0,,,,,,,,,,,,,,,,repeat,letter,lettRpt,k,0.404,Hi,,,,,,0,,,,,,,,high,15,0,15,0,1,,,,,,,,,
296149,2022-11-21_09h58.53.599,vts_reward_expectancy_bt,2022.2.4,MacIntel,55.55555556,Safari,1440,900,,,,,1,731,,,,,,,,,,,,,,,,,146,B,circle,1,0,,,,,,,,,,,,,,,,repeat,letter,lettRpt,j,0.457,Hi,,,,,,0,,,,,,,,high,16,0,16,0,1,,,,,,,,,
296149,2022-11-21_09h58.53.599,vts_reward_expectancy_bt,2022.2.4,MacIntel,55.55555556,Safari,1440,900,,,,,1,732,,,,,,,,,,,,,,,,,125,U,hexagon,1,0,,,,,,,,,,,,,,,,repeat,letter,lettRpt,k,0.438,Lo,,,,,,0,,,,,,,,high,17,0,17,0,1,,,,,,,,,
296149,2022-11-21_09h58.53.599,vts_reward_expectancy_bt,2022.2.4,MacIntel,55.55555556,Safari,1440,900,,,,,1,733,,,,,,,,,,,,,,,,,174,W,triangle,1,0,,,,,,,,,,,,,,,,switch,number,numSwt,f,0.72,Lo,,,,,,0,,,,,,,,high,18,0,18,0,1,,,,,,,,,
296149,2022-11-21_09h58.53.599,vts_reward_expectancy_bt,2022.2.4,MacIntel,55.55555556,Safari,1440,900,,,,,0,733,,,,,,,,,,,,,,,,,160,F,star,1,0,,,,,,,,,,,,,,,,repeat,number,numRpt,f,0.893,Hi,,,,,,0,,,,,,,,high,19,0,19,0,1,,,,,,,,,
296149,2022-11-21_09h58.53.599,vts_reward_expectancy_bt,2022.2.4,MacIntel,55.55555556,Safari,1440,900,,,,,0,733,,,,,,,,,,,,,,,,,139,D,circle,0,0,,,,,,,,,,,,,,,,repeat,number,NA,f,0.626,Hi,,,,,,0,,,,,,,,high,20,0,20,0,1,,,,,,,,,
296149,2022-11-21_09h58.53.599,vts_reward_expectancy_bt,2022.2.4,MacIntel,55.55555556,Safari,1440,900,,,,,1,734,,,,,,,,,,,,,,,,,132,S,triangle,1,1,,,,,,,,,,,,,,,,repeat,number,numRpt,d,0.617,Lo,,,,,,0,,,,,,,,high,21,0,21,0,1,,,,,,,,,
296149,2022-11-21_09h58.53.599,vts_reward_expectancy_bt,2022.2.4,MacIntel,55.55555556,Safari,1440,900,,,,,10,744,,,,,,,,,,,,,,,,,181,Y,hexagon,1,0,,,,,,,,,,,,,,,,switch,letter,lettSwt,k,0.473,Lo,,,,,,0,,,,,,,,high,22,0,22,0,1,,,,,,,,,
296149,2022-11-21_09h58.53.599,vts_reward_expectancy_bt,2022.2.4,MacIntel,55.55555556,Safari,1440,900,,,,,10,754,,,,,,,,,,,,,,,,,167,H,star,1,0,,,,,,,,,,,,,,,,repeat,letter,lettRpt,j,0.453,Hi,,,,,,0,,,,,,,,high,23,0,23,0,1,,,,,,,,,
296149,2022-11-21_09h58.53.599,vts_reward_expectancy_bt,2022.2.4,MacIntel,55.55555556,Safari,1440,900,,,,,0,754,,,,,,,,,,,,,,,,,181,U,circle,1,0,,,,,,,,,,,,,,,,repeat,letter,lettRpt,k,0.674,Hi,,,,,,0,,,,,,,,high,24,0,24,0,1,,,,,,,,,
296149,2022-11-21_09h58.53.599,vts_reward_expectancy_bt,2022.2.4,MacIntel,55.55555556,Safari,1440,900,,,,,1,755,,,,,,,,,,,,,,,,,160,B,star,1,0,,,,,,,,,,,,,,,,repeat,letter,lettRpt,j,0.42,Hi,,,,,,0,,,,,,,,high,25,0,25,0,1,,,,,,,,,
296149,2022-11-21_09h58.53.599,vts_reward_expectancy_bt,2022.2.4,MacIntel,55.55555556,Safari,1440,900,,,,,0,755,,,,,,,,,,,,,,,,,146,F,triangle,0,0,,,,,,,,,,,,,,,,switch,number,NA,f,0.473,Hi,,,,,,0,,,,,,,,high,26,0,26,0,1,,,,,,,,,
296149,2022-11-21_09h58.53.599,vts_reward_expectancy_bt,2022.2.4,MacIntel,55.55555556,Safari,1440,900,,,,,10,765,,,,,,,,,,,,,,,,,167,D,hexagon,1,1,,,,,,,,,,,,,,,,repeat,number,numRpt,f,0.589,Lo,,,,,,0,,,,,,,,high,27,0,27,0,1,,,,,,,,,
296149,2022-11-21_09h58.53.599,vts_reward_expectancy_bt,2022.2.4,MacIntel,55.55555556,Safari,1440,900,,,,,10,775,,,,,,,,,,,,,,,,,174,H,triangle,1,0,,,,,,,,,,,,,,,,repeat,number,numRpt,f,0.677,Lo,,,,,,0,,,,,,,,high,28,0,28,0,1,,,,,,,,,
296149,2022-11-21_09h58.53.599,vts_reward_expectancy_bt,2022.2.4,MacIntel,55.55555556,Safari,1440,900,,,,,1,776,,,,,,,,,,,,,,,,,139,Y,hexagon,1,0,,,,,,,,,,,,,,,,repeat,number,numRpt,d,0.638,Lo,,,,,,0,,,,,,,,high,29,0,29,0,1,,,,,,,,,
296149,2022-11-21_09h58.53.599,vts_reward_expectancy_bt,2022.2.4,MacIntel,55.55555556,Safari,1440,900,,,,,10,786,,,,,,,,,,,,,,,,,132,S,star,1,0,,,,,,,,,,,,,,,,switch,letter,lettSwt,k,0.482,Hi,,,,,,0,,,,,,,,high,30,0,30,0,1,,,,,,,,,
296149,2022-11-21_09h58.53.599,vts_reward_expectancy_bt,2022.2.4,MacIntel,55.55555556,Safari,1440,900,,,,,0,786,,,,,,,,,,,,,,,,,125,W,circle,0,0,,,,,,,,,,,,,,,,switch,number,NA,f,1.242,Hi,,,,,,0,,,,,,,,high,31,0,31,0,1,,,,,,,,,
296149,2022-11-21_09h58.53.599,vts_reward_expectancy_bt,2022.2.4,MacIntel,55.55555556,Safari,1440,900,,,,,0,786,,,,,,,,,,,,,,,,,174,F,circle,1,1,,,,,,,,,,,,,,,,switch,letter,lettSwt,j,0.638,Hi,,,,,,1,,,,,,space,3.256,high,0,0,0,0,1,,,,,,,,,
296149,2022-11-21_09h58.53.599,vts_reward_expectancy_bt,2022.2.4,MacIntel,55.55555556,Safari,1440,900,,,,,1,787,,,,,,,,,,,,,,,,,139,S,triangle,1,0,,,,,,,,,,,,,,,,repeat,letter,lettRpt,k,0.524,Lo,,,,,,1,,,,,,,,high,1,0,1,0,1,,,,,,,,,
296149,2022-11-21_09h58.53.599,vts_reward_expectancy_bt,2022.2.4,MacIntel,55.55555556,Safari,1440,900,,,,,0,787,,,,,,,,,,,,,,,,,125,U,star,1,0,,,,,,,,,,,,,,,,repeat,letter,lettRpt,k,0.573,Hi,,,,,,1,,,,,,,,high,2,0,2,0,1,,,,,,,,,
296149,2022-11-21_09h58.53.599,vts_reward_expectancy_bt,2022.2.4,MacIntel,55.55555556,Safari,1440,900,,,,,1,788,,,,,,,,,,,,,,,,,132,D,hexagon,1,0,,,,,,,,,,,,,,,,repeat,letter,lettRpt,j,0.443,Lo,,,,,,1,,,,,,,,high,3,0,3,0,1,,,,,,,,,
296149,2022-11-21_09h58.53.599,vts_reward_expectancy_bt,2022.2.4,MacIntel,55.55555556,Safari,1440,900,,,,,10,798,,,,,,,,,,,,,,,,,160,W,circle,1,0,,,,,,,,,,,,,,,,repeat,letter,lettRpt,k,0.289,Hi,,,,,,1,,,,,,,,high,4,0,4,0,1,,,,,,,,,
296149,2022-11-21_09h58.53.599,vts_reward_expectancy_bt,2022.2.4,MacIntel,55.55555556,Safari,1440,900,,,,,0,798,,,,,,,,,,,,,,,,,167,Y,triangle,0,0,,,,,,,,,,,,,,,,repeat,letter,NA,j,0.386,Hi,,,,,,1,,,,,,,,high,5,0,5,0,1,,,,,,,,,
296149,2022-11-21_09h58.53.599,vts_reward_expectancy_bt,2022.2.4,MacIntel,55.55555556,Safari,1440,900,,,,,0,798,,,,,,,,,,,,,,,,,181,H,star,1,1,,,,,,,,,,,,,,,,repeat,letter,lettRpt,j,0.519,Hi,,,,,,1,,,,,,,,high,6,0,6,0,1,,,,,,,,,
296149,2022-11-21_09h58.53.599,vts_reward_expectancy_bt,2022.2.4,MacIntel,55.55555556,Safari,1440,900,,,,,1,799,,,,,,,,,,,,,,,,,146,B,hexagon,1,0,,,,,,,,,,,,,,,,repeat,letter,lettRpt,j,0.573,Lo,,,,,,1,,,,,,,,high,7,0,7,0,1,,,,,,,,,
296149,2022-11-21_09h58.53.599,vts_reward_expectancy_bt,2022.2.4,MacIntel,55.55555556,Safari,1440,900,,,,,0,799,,,,,,,,,,,,,,,,,174,F,star,1,0,,,,,,,,,,,,,,,,repeat,letter,lettRpt,j,0.539,Hi,,,,,,1,,,,,,,,high,8,0,8,0,1,,,,,,,,,
296149,2022-11-21_09h58.53.599,vts_reward_expectancy_bt,2022.2.4,MacIntel,55.55555556,Safari,1440,900,,,,,1,800,,,,,,,,,,,,,,,,,139,S,hexagon,1,0,,,,,,,,,,,,,,,,repeat,letter,lettRpt,k,0.582,Lo,,,,,,1,,,,,,,,high,9,0,9,0,1,,,,,,,,,
296149,2022-11-21_09h58.53.599,vts_reward_expectancy_bt,2022.2.4,MacIntel,55.55555556,Safari,1440,900,,,,,1,801,,,,,,,,,,,,,,,,,125,U,triangle,1,0,,,,,,,,,,,,,,,,repeat,letter,lettRpt,k,0.556,Lo,,,,,,1,,,,,,,,high,10,0,10,0,1,,,,,,,,,
296149,2022-11-21_09h58.53.599,vts_reward_expectancy_bt,2022.2.4,MacIntel,55.55555556,Safari,1440,900,,,,,0,801,,,,,,,,,,,,,,,,,132,D,circle,1,0,,,,,,,,,,,,,,,,repeat,letter,lettRpt,j,0.488,Hi,,,,,,1,,,,,,,,high,11,0,11,0,1,,,,,,,,,
296149,2022-11-21_09h58.53.599,vts_reward_expectancy_bt,2022.2.4,MacIntel,55.55555556,Safari,1440,900,,,,,0,801,,,,,,,,,,,,,,,,,160,W,star,1,0,,,,,,,,,,,,,,,,repeat,letter,lettRpt,k,0.499,Hi,,,,,,1,,,,,,,,high,12,0,12,0,1,,,,,,,,,
296149,2022-11-21_09h58.53.599,vts_reward_expectancy_bt,2022.2.4,MacIntel,55.55555556,Safari,1440,900,,,,,1,802,,,,,,,,,,,,,,,,,167,Y,triangle,1,0,,,,,,,,,,,,,,,,switch,number,numSwt,f,0.389,Lo,,,,,,1,,,,,,,,high,13,0,13,0,1,,,,,,,,,
296149,2022-11-21_09h58.53.599,vts_reward_expectancy_bt,2022.2.4,MacIntel,55.55555556,Safari,1440,900,,,,,1,803,,,,,,,,,,,,,,,,,181,H,circle,1,0,,,,,,,,,,,,,,,,repeat,number,numRpt,f,0.504,Hi,,,,,,1,,,,,,,,high,14,0,14,0,1,,,,,,,,,
296149,2022-11-21_09h58.53.599,vts_reward_expectancy_bt,2022.2.4,MacIntel,55.55555556,Safari,1440,900,,,,,1,804,,,,,,,,,,,,,,,,,146,B,hexagon,1,0,,,,,,,,,,,,,,,,repeat,number,numRpt,d,0.365,Lo,,,,,,1,,,,,,,,high,15,0,15,0,1,,,,,,,,,
296149,2022-11-21_09h58.53.599,vts_reward_expectancy_bt,2022.2.4,MacIntel,55.55555556,Safari,1440,900,,,,,1,805,,,,,,,,,,,,,,,,,160,D,circle,1,0,,,,,,,,,,,,,,,,repeat,number,numRpt,f,0.472,Hi,,,,,,1,,,,,,,,high,16,0,16,0,1,,,,,,,,,
296149,2022-11-21_09h58.53.599,vts_reward_expectancy_bt,2022.2.4,MacIntel,55.55555556,Safari,1440,900,,,,,10,815,,,,,,,,,,,,,,,,,181,H,triangle,1,0,,,,,,,,,,,,,,,,repeat,number,numRpt,f,0.506,Lo,,,,,,1,,,,,,,,high,17,0,17,0,1,,,,,,,,,
296149,2022-11-21_09h58.53.599,vts_reward_expectancy_bt,2022.2.4,MacIntel,55.55555556,Safari,1440,900,,,,,0,815,,,,,,,,,,,,,,,,,132,S,star,0,0,,,,,,,,,,,,,,,,switch,letter,NA,j,0.719,Lo,,,,,,1,,,,,,,,high,18,0,18,0,1,,,,,,,,,
296149,2022-11-21_09h58.53.599,vts_reward_expectancy_bt,2022.2.4,MacIntel,55.55555556,Safari,1440,900,,,,,1,816,,,,,,,,,,,,,,,,,139,U,hexagon,1,1,,,,,,,,,,,,,,,,repeat,letter,lettRpt,k,0.513,Lo,,,,,,1,,,,,,,,high,19,0,19,0,1,,,,,,,,,
296149,2022-11-21_09h58.53.599,vts_reward_expectancy_bt,2022.2.4,MacIntel,55.55555556,Safari,1440,900,,,,,1,817,,,,,,,,,,,,,,,,,125,F,hexagon,1,0,,,,,,,,,,,,,,,,repeat,letter,lettRpt,j,0.561,Lo,,,,,,1,,,,,,,,high,20,0,20,0,1,,,,,,,,,
296149,2022-11-21_09h58.53.599,vts_reward_expectancy_bt,2022.2.4,MacIntel,55.55555556,Safari,1440,900,,,,,1,818,,,,,,,,,,,,,,,,,174,W,triangle,1,0,,,,,,,,,,,,,,,,repeat,letter,lettRpt,k,0.699,Lo,,,,,,1,,,,,,,,high,21,0,21,0,1,,,,,,,,,
296149,2022-11-21_09h58.53.599,vts_reward_expectancy_bt,2022.2.4,MacIntel,55.55555556,Safari,1440,900,,,,,0,818,,,,,,,,,,,,,,,,,167,B,star,1,0,,,,,,,,,,,,,,,,repeat,letter,lettRpt,j,0.588,Hi,,,,,,1,,,,,,,,high,22,0,22,0,1,,,,,,,,,
296149,2022-11-21_09h58.53.599,vts_reward_expectancy_bt,2022.2.4,MacIntel,55.55555556,Safari,1440,900,,,,,0,818,,,,,,,,,,,,,,,,,146,Y,circle,0,0,,,,,,,,,,,,,,,,switch,number,NA,f,0.535,Hi,,,,,,1,,,,,,,,high,23,0,23,0,1,,,,,,,,,
296149,2022-11-21_09h58.53.599,vts_reward_expectancy_bt,2022.2.4,MacIntel,55.55555556,Safari,1440,900,,,,,10,828,,,,,,,,,,,,,,,,,174,W,circle,1,1,,,,,,,,,,,,,,,,repeat,number,numRpt,f,0.571,Hi,,,,,,1,,,,,,,,high,24,0,24,0,1,,,,,,,,,
296149,2022-11-21_09h58.53.599,vts_reward_expectancy_bt,2022.2.4,MacIntel,55.55555556,Safari,1440,900,,,,,10,838,,,,,,,,,,,,,,,,,125,B,hexagon,1,0,,,,,,,,,,,,,,,,repeat,number,numRpt,d,0.567,Lo,,,,,,1,,,,,,,,high,25,0,25,0,1,,,,,,,,,
296149,2022-11-21_09h58.53.599,vts_reward_expectancy_bt,2022.2.4,MacIntel,55.55555556,Safari,1440,900,,,,,0,838,,,,,,,,,,,,,,,,,181,F,star,1,0,,,,,,,,,,,,,,,,repeat,number,numRpt,f,0.642,Hi,,,,,,1,,,,,,,,high,26,0,26,0,1,,,,,,,,,
296149,2022-11-21_09h58.53.599,vts_reward_expectancy_bt,2022.2.4,MacIntel,55.55555556,Safari,1440,900,,,,,0,838,,,,,,,,,,,,,,,,,132,S,triangle,0,0,,,,,,,,,,,,,,,,repeat,number,NA,f,0.99,Hi,,,,,,1,,,,,,,,high,27,0,27,0,1,,,,,,,,,
296149,2022-11-21_09h58.53.599,vts_reward_expectancy_bt,2022.2.4,MacIntel,55.55555556,Safari,1440,900,,,,,0,838,,,,,,,,,,,,,,,,,139,H,triangle,0,1,,,,,,,,,,,,,,,,repeat,number,NA,f,0.876,Hi,,,,,,1,,,,,,,,high,28,0,28,0,1,,,,,,,,,
296149,2022-11-21_09h58.53.599,vts_reward_expectancy_bt,2022.2.4,MacIntel,55.55555556,Safari,1440,900,,,,,0,838,,,,,,,,,,,,,,,,,146,U,hexagon,0,1,,,,,,,,,,,,,,,,repeat,number,NA,f,0.738,Hi,,,,,,1,,,,,,,,high,29,0,29,0,1,,,,,,,,,
296149,2022-11-21_09h58.53.599,vts_reward_expectancy_bt,2022.2.4,MacIntel,55.55555556,Safari,1440,900,,,,,10,848,,,,,,,,,,,,,,,,,167,Y,star,1,1,,,,,,,,,,,,,,,,repeat,number,numRpt,f,0.504,Hi,,,,,,1,,,,,,,,high,30,0,30,0,1,,,,,,,,,
296149,2022-11-21_09h58.53.599,vts_reward_expectancy_bt,2022.2.4,MacIntel,55.55555556,Safari,1440,900,,,,,0,848,,,,,,,,,,,,,,,,,160,D,circle,1,0,,,,,,,,,,,,,,,,repeat,number,numRpt,f,0.671,Hi,,,,,,1,,,,,,,,high,31,0,31,0,1,,,,,,,,,
296149,2022-11-21_09h58.53.599,vts_reward_expectancy_bt,2022.2.4,MacIntel,55.55555556,Safari,1440,900,,,,,10,858,,,,,,,,,,,,,,,,,125,H,circle,1,0,,,,,,,,,,,,,,,,switch,letter,lettSwt,j,0.418,Hi,,,,,,2,,,,,,space,1.408,high,0,0,0,0,1,,,,,,,,,
296149,2022-11-21_09h58.53.599,vts_reward_expectancy_bt,2022.2.4,MacIntel,55.55555556,Safari,1440,900,,,,,1,859,,,,,,,,,,,,,,,,,160,U,hexagon,1,0,,,,,,,,,,,,,,,,repeat,letter,lettRpt,k,0.381,Lo,,,,,,2,,,,,,,,high,1,0,1,0,1,,,,,,,,,
296149,2022-11-21_09h58.53.599,vts_reward_expectancy_bt,2022.2.4,MacIntel,55.55555556,Safari,1440,900,,,,,1,860,,,,,,,,,,,,,,,,,181,B,triangle,1,0,,,,,,,,,,,,,,,,repeat,letter,lettRpt,j,0.402,Lo,,,,,,2,,,,,,,,high,2,0,2,0,1,,,,,,,,,
296149,2022-11-21_09h58.53.599,vts_reward_expectancy_bt,2022.2.4,MacIntel,55.55555556,Safari,1440,900,,,,,10,870,,,,,,,,,,,,,,,,,174,Y,star,1,0,,,,,,,,,,,,,,,,repeat,letter,lettRpt,k,0.437,Hi,,,,,,2,,,,,,,,high,3,0,3,0,1,,,,,,,,,
296149,2022-11-21_09h58.53.599,vts_reward_expectancy_bt,2022.2.4,MacIntel,55.55555556,Safari,1440,900,,,,,0,870,,,,,,,,,,,,,,,,,139,W,circle,1,0,,,,,,,,,,,,,,,,repeat,letter,lettRpt,k,0.603,Hi,,,,,,2,,,,,,,,high,4,0,4,0,1,,,,,,,,,
296149,2022-11-21_09h58.53.599,vts_reward_expectancy_bt,2022.2.4,MacIntel,55.55555556,Safari,1440,900,,,,,0,870,,,,,,,,,,,,,,,,,132,S,hexagon,0,0,,,,,,,,,,,,,,,,switch,number,NA,f,1.037,Hi,,,,,,2,,,,,,,,high,5,0,5,0,1,,,,,,,,,
296149,2022-11-21_09h58.53.599,vts_reward_expectancy_bt,2022.2.4,MacIntel,55.55555556,Safari,1440,900,,,,,0,870,,,,,,,,,,,,,,,,,146,D,triangle,0,1,,,,,,,,,,,,,,,,repeat,number,NA,f,0.586,Hi,,,,,,2,,,,,,,,high,6,0,6,0,1,,,,,,,,,
296149,2022-11-21_09h58.53.599,vts_reward_expectancy_bt,2022.2.4,MacIntel,55.55555556,Safari,1440,900,,,,,0,870,,,,,,,,,,,,,,,,,167,F,star,1,1,,,,,,,,,,,,,,,,repeat,number,numRpt,f,0.626,Hi,,,,,,2,,,,,,,,high,7,0,7,0,1,,,,,,,,,
296149,2022-11-21_09h58.53.599,vts_reward_expectancy_bt,2022.2.4,MacIntel,55.55555556,Safari,1440,900,,,,,10,880,,,,,,,,,,,,,,,,,125,H,hexagon,1,0,,,,,,,,,,,,,,,,repeat,number,numRpt,d,0.804,Lo,,,,,,2,,,,,,,,high,8,0,8,0,1,,,,,,,,,
296149,2022-11-21_09h58.53.599,vts_reward_expectancy_bt,2022.2.4,MacIntel,55.55555556,Safari,1440,900,,,,,0,880,,,,,,,,,,,,,,,,,160,U,star,1,0,,,,,,,,,,,,,,,,repeat,number,numRpt,f,0.591,Hi,,,,,,2,,,,,,,,high,9,0,9,0,1,,,,,,,,,
296149,2022-11-21_09h58.53.599,vts_reward_expectancy_bt,2022.2.4,MacIntel,55.55555556,Safari,1440,900,,,,,1,881,,,,,,,,,,,,,,,,,181,B,triangle,1,0,,,,,,,,,,,,,,,,repeat,number,numRpt,f,0.588,Lo,,,,,,2,,,,,,,,high,10,0,10,0,1,,,,,,,,,
296149,2022-11-21_09h58.53.599,vts_reward_expectancy_bt,2022.2.4,MacIntel,55.55555556,Safari,1440,900,,,,,0,881,,,,,,,,,,,,,,,,,174,Y,circle,1,0,,,,,,,,,,,,,,,,repeat,number,numRpt,f,0.702,Hi,,,,,,2,,,,,,,,high,11,0,11,0,1,,,,,,,,,
296149,2022-11-21_09h58.53.599,vts_reward_expectancy_bt,2022.2.4,MacIntel,55.55555556,Safari,1440,900,,,,,0,881,,,,,,,,,,,,,,,,,139,W,hexagon,0,0,,,,,,,,,,,,,,,,repeat,number,NA,f,0.553,Hi,,,,,,2,,,,,,,,high,12,0,12,0,1,,,,,,,,,
296149,2022-11-21_09h58.53.599,vts_reward_expectancy_bt,2022.2.4,MacIntel,55.55555556,Safari,1440,900,,,,,0,881,,,,,,,,,,,,,,,,,132,S,circle,1,1,,,,,,,,,,,,,,,,repeat,number,numRpt,d,0.704,Hi,,,,,,2,,,,,,,,high,13,0,13,0,1,,,,,,,,,
296149,2022-11-21_09h58.53.599,vts_reward_expectancy_bt,2022.2.4,MacIntel,55.55555556,Safari,1440,900,,,,,1,882,,,,,,,,,,,,,,,,,146,D,star,1,0,,,,,,,,,,,,,,,,switch,letter,lettSwt,j,0.47,Hi,,,,,,2,,,,,,,,high,14,0,14,0,1,,,,,,,,,
296149,2022-11-21_09h58.53.599,vts_reward_expectancy_bt,2022.2.4,MacIntel,55.55555556,Safari,1440,900,,,,,1,883,,,,,,,,,,,,,,,,,167,F,triangle,1,0,,,,,,,,,,,,,,,,repeat,letter,lettRpt,j,0.552,Lo,,,,,,2,,,,,,,,high,15,0,15,0,1,,,,,,,,,
296149,2022-11-21_09h58.53.599,vts_reward_expectancy_bt,2022.2.4,MacIntel,55.55555556,Safari,1440,900,,,,,1,884,,,,,,,,,,,,,,,,,125,S,hexagon,1,0,,,,,,,,,,,,,,,,repeat,letter,lettRpt,k,0.635,Lo,,,,,,2,,,,,,,,high,16,0,16,0,1,,,,,,,,,
296149,2022-11-21_09h58.53.599,vts_reward_expectancy_bt,2022.2.4,MacIntel,55.55555556,Safari,1440,900,,,,,0,884,,,,,,,,,,,,,,,,,139,W,circle,1,0,,,,,,,,,,,,,,,,repeat,letter,lettRpt,k,0.687,Hi,,,,,,2,,,,,,,,high,17,0,17,0,1,,,,,,,,,
296149,2022-11-21_09h58.53.599,vts_reward_expectancy_bt,2022.2.4,MacIntel,55.55555556,Safari,1440,900,,,,,10,894,,,,,,,,,,,,,,,,,132,U,triangle,1,0,,,,,,,,,,,,,,,,repeat,letter,lettRpt,k,0.557,Lo,,,,,,2,,,,,,,,high,18,0,18,0,1,,,,,,,,,
296149,2022-11-21_09h58.53.599,vts_reward_expectancy_bt,2022.2.4,MacIntel,55.55555556,Safari,1440,900,,,,,10,904,,,,,,,,,,,,,,,,,160,B,star,1,0,,,,,,,,,,,,,,,,repeat,letter,lettRpt,j,0.473,Hi,,,,,,2,,,,,,,,high,19,0,19,0,1,,,,,,,,,
296149,2022-11-21_09h58.53.599,vts_reward_expectancy_bt,2022.2.4,MacIntel,55.55555556,Safari,1440,900,,,,,1,905,,,,,,,,,,,,,,,,,146,D,triangle,1,0,,,,,,,,,,,,,,,,repeat,letter,lettRpt,j,0.623,Lo,,,,,,2,,,,,,,,high,20,0,20,0,1,,,,,,,,,
296149,2022-11-21_09h58.53.599,vts_reward_expectancy_bt,2022.2.4,MacIntel,55.55555556,Safari,1440,900,,,,,0,905,,,,,,,,,,,,,,,,,167,Y,star,1,0,,,,,,,,,,,,,,,,repeat,letter,lettRpt,k,0.524,Hi,,,,,,2,,,,,,,,high,21,0,21,0,1,,,,,,,,,
296149,2022-11-21_09h58.53.599,vts_reward_expectancy_bt,2022.2.4,MacIntel,55.55555556,Safari,1440,900,,,,,0,905,,,,,,,,,,,,,,,,,181,H,circle,1,0,,,,,,,,,,,,,,,,repeat,letter,lettRpt,j,0.693,Hi,,,,,,2,,,,,,,,high,22,0,22,0,1,,,,,,,,,
296149,2022-11-21_09h58.53.599,vts_reward_expectancy_bt,2022.2.4,MacIntel,55.55555556,Safari,1440,900,,,,,1,906,,,,,,,,,,,,,,,,,174,F,hexagon,1,0,,,,,,,,,,,,,,,,repeat,letter,lettRpt,j,0.888,Lo,,,,,,2,,,,,,,,high,23,0,23,0,1,,,,,,,,,
296149,2022-11-21_09h58.53.599,vts_reward_expectancy_bt,2022.2.4,MacIntel,55.55555556,Safari,1440,900,,,,,1,907,,,,,,,,,,,,,,,,,160,B,triangle,1,0,,,,,,,,,,,,,,,,repeat,letter,lettRpt,j,0.625,Lo,,,,,,2,,,,,,,,high,24,0,24,0,1,,,,,,,,,
296149,2022-11-21_09h58.53.599,vts_reward_expectancy_bt,2022.2.4,MacIntel,55.55555556,Safari,1440,900,,,,,10,917,,,,,,,,,,,,,,,,,146,H,star,1,0,,,,,,,,,,,,,,,,repeat,letter,lettRpt,j,0.415,Hi,,,,,,2,,,,,,,,high,25,0,25,0,1,,,,,,,,,
296149,2022-11-21_09h58.53.599,vts_reward_expectancy_bt,2022.2.4,MacIntel,55.55555556,Safari,1440,900,,,,,10,927,,,,,,,,,,,,,,,,,174,Y,circle,1,0,,,,,,,,,,,,,,,,repeat,letter,lettRpt,k,0.381,Hi,,,,,,2,,,,,,,,high,26,0,26,0,1,,,,,,,,,
296149,2022-11-21_09h58.53.599,vts_reward_expectancy_bt,2022.2.4,MacIntel,55.55555556,Safari,1440,900,,,,,1,928,,,,,,,,,,,,,,,,,167,D,hexagon,1,0,,,,,,,,,,,,,,,,repeat,letter,lettRpt,j,0.587,Lo,,,,,,2,,,,,,,,high,27,0,27,0,1,,,,,,,,,
296149,2022-11-21_09h58.53.599,vts_reward_expectancy_bt,2022.2.4,MacIntel,55.55555556,Safari,1440,900,,,,,1,929,,,,,,,,,,,,,,,,,125,F,hexagon,1,0,,,,,,,,,,,,,,,,repeat,letter,lettRpt,j,0.571,Lo,,,,,,2,,,,,,,,high,28,0,28,0,1,,,,,,,,,
296149,2022-11-21_09h58.53.599,vts_reward_expectancy_bt,2022.2.4,MacIntel,55.55555556,Safari,1440,900,,,,,0,929,,,,,,,,,,,,,,,,,181,U,star,1,0,,,,,,,,,,,,,,,,repeat,letter,lettRpt,k,0.598,Hi,,,,,,2,,,,,,,,high,29,0,29,0,1,,,,,,,,,
296149,2022-11-21_09h58.53.599,vts_reward_expectancy_bt,2022.2.4,MacIntel,55.55555556,Safari,1440,900,,,,,0,929,,,,,,,,,,,,,,,,,132,W,circle,1,0,,,,,,,,,,,,,,,,repeat,letter,lettRpt,k,0.524,Hi,,,,,,2,,,,,,,,high,30,0,30,0,1,,,,,,,,,
296149,2022-11-21_09h58.53.599,vts_reward_expectancy_bt,2022.2.4,MacIntel,55.55555556,Safari,1440,900,,,,,10,939,,,,,,,,,,,,,,,,,139,S,triangle,1,0,,,,,,,,,,,,,,,,repeat,letter,lettRpt,k,0.668,Lo,,,,,,2,,,,,,,,high,31,0,31,0,1,,,,,,,,,
296149,2022-11-21_09h58.53.599,vts_reward_expectancy_bt,2022.2.4,MacIntel,55.55555556,Safari,1440,900,,,,,1,940,,,,,,,,,,,,,,,,,132,U,hexagon,1,0,,,,,,,,,,,,,,,,repeat,letter,lettRpt,k,0.791,Lo,,,,,,3,,,,,,space,1.658,high,0,0,0,0,1,,,,,,,,,
296149,2022-11-21_09h58.53.599,vts_reward_expectancy_bt,2022.2.4,MacIntel,55.55555556,Safari,1440,900,,,,,1,941,,,,,,,,,,,,,,,,,174,Y,triangle,1,0,,,,,,,,,,,,,,,,switch,number,numSwt,f,0.374,Lo,,,,,,3,,,,,,,,high,1,0,1,0,1,,,,,,,,,
296149,2022-11-21_09h58.53.599,vts_reward_expectancy_bt,2022.2.4,MacIntel,55.55555556,Safari,1440,900,,,,,0,941,,,,,,,,,,,,,,,,,167,D,circle,0,0,,,,,,,,,,,,,,,,switch,letter,NA,k,0.569,Lo,,,,,,3,,,,,,,,high,2,0,2,0,1,,,,,,,,,
296149,2022-11-21_09h58.53.599,vts_reward_expectancy_bt,2022.2.4,MacIntel,55.55555556,Safari,1440,900,,,,,10,951,,,,,,,,,,,,,,,,,160,F,star,1,1,,,,,,,,,,,,,,,,switch,number,numSwt,f,1.098,Hi,,,,,,3,,,,,,,,high,3,0,3,0,1,,,,,,,,,
296149,2022-11-21_09h58.53.599,vts_reward_expectancy_bt,2022.2.4,MacIntel,55.55555556,Safari,1440,900,,,,,1,952,,,,,,,,,,,,,,,,,181,H,hexagon,1,0,,,,,,,,,,,,,,,,repeat,number,numRpt,f,0.706,Lo,,,,,,3,,,,,,,,high,4,0,4,0,1,,,,,,,,,
296149,2022-11-21_09h58.53.599,vts_reward_expectancy_bt,2022.2.4,MacIntel,55.55555556,Safari,1440,900,,,,,0,952,,,,,,,,,,,,,,,,,146,B,triangle,0,0,,,,,,,,,,,,,,,,repeat,number,NA,f,1.135,Lo,,,,,,3,,,,,,,,high,5,0,5,0,1,,,,,,,,,
296149,2022-11-21_09h58.53.599,vts_reward_expectancy_bt,2022.2.4,MacIntel,55.55555556,Safari,1440,900,,,,,0,952,,,,,,,,,,,,,,,,,125,W,circle,0,1,,,,,,,,,,,,,,,,repeat,number,NA,f,0.599,Lo,,,,,,3,,,,,,,,high,6,0,6,0,1,,,,,,,,,
296149,2022-11-21_09h58.53.599,vts_reward_expectancy_bt,2022.2.4,MacIntel,55.55555556,Safari,1440,900,,,,,10,962,,,,,,,,,,,,,,,,,139,S,star,1,1,,,,,,,,,,,,,,,,repeat,number,numRpt,d,0.486,Hi,,,,,,3,,,,,,,,high,7,0,7,0,1,,,,,,,,,
296149,2022-11-21_09h58.53.599,vts_reward_expectancy_bt,2022.2.4,MacIntel,55.55555556,Safari,1440,900,,,,,1,963,,,,,,,,,,,,,,,,,132,U,hexagon,1,0,,,,,,,,,,,,,,,,repeat,number,numRpt,d,0.711,Lo,,,,,,3,,,,,,,,high,8,0,8,0,1,,,,,,,,,
296149,2022-11-21_09h58.53.599,vts_reward_expectancy_bt,2022.2.4,MacIntel,55.55555556,Safari,1440,900,,,,,0,963,,,,,,,,,,,,,,,,,174,Y,triangle,0,0,,,,,,,,,,,,,,,,repeat,number,NA,d,0.704,Lo,,,,,,3,,,,,,,,high,9,0,9,0,1,,,,,,,,,
296149,2022-11-21_09h58.53.599,vts_reward_expectancy_bt,2022.2.4,MacIntel,55.55555556,Safari,1440,900,,,,,0,963,,,,,,,,,,,,,,,,,167,D,star,0,1,,,,,,,,,,,,,,,,repeat,number,NA,d,0.635,Lo,,,,,,3,,,,,,,,high,10,0,10,0,1,,,,,,,,,
296149,2022-11-21_09h58.53.599,vts_reward_expectancy_bt,2022.2.4,MacIntel,55.55555556,Safari,1440,900,,,,,0,963,,,,,,,,,,,,,,,,,160,F,circle,1,1,,,,,,,,,,,,,,,,repeat,number,numRpt,f,0.893,Hi,,,,,,3,,,,,,,,high,11,0,11,0,1,,,,,,,,,
296149,2022-11-21_09h58.53.599,vts_reward_expectancy_bt,2022.2.4,MacIntel,55.55555556,Safari,1440,900,,,,,1,964,,,,,,,,,,,,,,,,,181,H,circle,1,0,,,,,,,,,,,,,,,,repeat,number,numRpt,f,0.433,Hi,,,,,,3,,,,,,,,high,12,0,12,0,1,,,,,,,,,
296149,2022-11-21_09h58.53.599,vts_reward_expectancy_bt,2022.2.4,MacIntel,55.55555556,Safari,1440,900,,,,,1,965,,,,,,,,,,,,,,,,,146,B,hexagon,1,0,,,,,,,,,,,,,,,,switch,letter,lettSwt,j,1.053,Lo,,,,,,3,,,,,,,,high,13,0,13,0,1,,,,,,,,,
296149,2022-11-21_09h58.53.599,vts_reward_expectancy_bt,2022.2.4,MacIntel,55.55555556,Safari,1440,900,,,,,0,965,,,,,,,,,,,,,,,,,125,W,star,0,0,,,,,,,,,,,,,,,,switch,number,NA,f,0.808,Lo,,,,,,3,,,,,,,,high,14,0,14,0,1,,,,,,,,,
296149,2022-11-21_09h58.53.599,vts_reward_expectancy_bt,2022.2.4,MacIntel,55.55555556,Safari,1440,900,,,,,1,966,,,,,,,,,,,,,,,,,139,S,triangle,1,1,,,,,,,,,,,,,,,,repeat,number,numRpt,d,0.938,Lo,,,,,,3,,,,,,,,high,15,0,15,0,1,,,,,,,,,
296149,2022-11-21_09h58.53.599,vts_reward_expectancy_bt,2022.2.4,MacIntel,55.55555556,Safari,1440,900,,,,,0,966,,,,,,,,,,,,,,,,,132,H,star,1,0,,,,,,,,,,,,,,,,repeat,number,numRpt,d,1.126,Hi,,,,,,3,,,,,,,,high,16,0,16,0,1,,,,,,,,,
296149,2022-11-21_09h58.53.599,vts_reward_expectancy_bt,2022.2.4,MacIntel,55.55555556,Safari,1440,900,,,,,0,966,,,,,,,,,,,,,,,,,174,B,circle,1,0,,,,,,,,,,,,,,,,switch,letter,lettSwt,j,0.502,Hi,,,,,,3,,,,,,,,high,17,0,17,0,1,,,,,,,,,
296149,2022-11-21_09h58.53.599,vts_reward_expectancy_bt,2022.2.4,MacIntel,55.55555556,Safari,1440,900,,,,,1,967,,,,,,,,,,,,,,,,,167,D,triangle,1,0,,,,,,,,,,,,,,,,repeat,letter,lettRpt,j,0.575,Lo,,,,,,3,,,,,,,,high,18,0,18,0,1,,,,,,,,,
296149,2022-11-21_09h58.53.599,vts_reward_expectancy_bt,2022.2.4,MacIntel,55.55555556,Safari,1440,900,,,,,10,977,,,,,,,,,,,,,,,,,160,F,hexagon,1,0,,,,,,,,,,,,,,,,repeat,letter,lettRpt,j,0.94,Lo,,,,,,3,,,,,,,,high,19,0,19,0,1,,,,,,,,,
296149,2022-11-21_09h58.53.599,vts_reward_expectancy_bt,2022.2.4,MacIntel,55.55555556,Safari,1440,900,,,,,1,978,,,,,,,,,,,,,,,,,139,S,hexagon,1,0,,,,,,,,,,,,,,,,repeat,letter,lettRpt,k,0.541,Lo,,,,,,3,,,,,,,,high,20,0,20,0,1,,,,,,,,,
296149,2022-11-21_09h58.53.599,vts_reward_expectancy_bt,2022.2.4,MacIntel,55.55555556,Safari,1440,900,,,,,0,978,,,,,,,,,,,,,,,,,181,Y,circle,1,0,,,,,,,,,,,,,,,,repeat,letter,lettRpt,k,0.949,Hi,,,,,,3,,,,,,,,high,21,0,21,0,1,,,,,,,,,
296149,2022-11-21_09h58.53.599,vts_reward_expectancy_bt,2022.2.4,MacIntel,55.55555556,Safari,1440,900,,,,,0,978,,,,,,,,,,,,,,,,,146,U,triangle,0,0,,,,,,,,,,,,,,,,repeat,letter,NA,j,1.769,Hi,,,,,,3,,,,,,,,high,22,0,22,0,1,,,,,,,,,
296149,2022-11-21_09h58.53.599,vts_reward_expectancy_bt,2022.2.4,MacIntel,55.55555556,Safari,1440,900,,,,,0,978,,,,,,,,,,,,,,,,,125,W,star,1,1,,,,,,,,,,,,,,,,repeat,letter,lettRpt,k,0.542,Hi,,,,,,3,,,,,,,,high,23,0,23,0,1,,,,,,,,,
296149,2022-11-21_09h58.53.599,vts_reward_expectancy_bt,2022.2.4,MacIntel,55.55555556,Safari,1440,900,,,,,10,988,,,,,,,,,,,,,,,,,167,B,hexagon,1,0,,,,,,,,,,,,,,,,repeat,letter,lettRpt,j,0.552,Lo,,,,,,3,,,,,,,,high,24,0,24,0,1,,,,,,,,,
296149,2022-11-21_09h58.53.599,vts_reward_expectancy_bt,2022.2.4,MacIntel,55.55555556,Safari,1440,900,,,,,0,988,,,,,,,,,,,,,,,,,146,H,circle,1,0,,,,,,,,,,,,,,,,repeat,letter,lettRpt,j,0.649,Hi,,,,,,3,,,,,,,,high,25,0,25,0,1,,,,,,,,,
296149,2022-11-21_09h58.53.599,vts_reward_expectancy_bt,2022.2.4,MacIntel,55.55555556,Safari,1440,900,,,,,1,989,,,,,,,,,,,,,,,,,139,S,triangle,1,0,,,,,,,,,,,,,,,,repeat,letter,lettRpt,k,0.575,Lo,,,,,,3,,,,,,,,high,26,0,26,0,1,,,,,,,,,
296149,2022-11-21_09h58.53.599,vts_reward_expectancy_bt,2022.2.4,MacIntel,55.55555556,Safari,1440,900,,,,,0,989,,,,,,,,,,,,,,,,,132,F,star,1,0,,,,,,,,,,,,,,,,repeat,letter,lettRpt,j,0.559,Hi,,,,,,3,,,,,,,,high,27,0,27,0,1,,,,,,,,,
296149,2022-11-21_09h58.53.599,vts_reward_expectancy_bt,2022.2.4,MacIntel,55.55555556,Safari,1440,900,,,,,1,990,,,,,,,,,,,,,,,,,181,Y,triangle,1,0,,,,,,,,,,,,,,,,repeat,letter,lettRpt,k,0.82,Lo,,,,,,3,,,,,,,,high,28,0,28,0,1,,,,,,,,,
296149,2022-11-21_09h58.53.599,vts_reward_expectancy_bt,2022.2.4,MacIntel,55.55555556,Safari,1440,900,,,,,10,1000,,,,,,,,,,,,,,,,,160,D,hexagon,1,0,,,,,,,,,,,,,,,,switch,number,numSwt,f,0.508,Lo,,,,,,3,,,,,,,,high,29,0,29,0,1,,,,,,,,,
296149,2022-11-21_09h58.53.599,vts_reward_expectancy_bt,2022.2.4,MacIntel,55.55555556,Safari,1440,900,,,,,1,1001,,,,,,,,,,,,,,,,,125,U,circle,1,0,,,,,,,,,,,,,,,,repeat,number,numRpt,d,0.385,Hi,,,,,,3,,,,,,,,high,30,0,30,0,1,,,,,,,,,
296149,2022-11-21_09h58.53.599,vts_reward_expectancy_bt,2022.2.4,MacIntel,55.55555556,Safari,1440,900,,,,,0,1001,,,,,,,,,,,,,,,,,174,W,star,1,0,,,,,,,,,,,,,,,,repeat,number,numRpt,f,1.039,Hi,,,,,,3,,,,,,,,high,31,0,31,0,1,,,,,,,,,
296149,2022-11-21_09h58.53.599,vts_reward_expectancy_bt,2022.2.4,MacIntel,55.55555556,Safari,1440,900,,,,,1,1002,,,,,,,,,,,,,,,,,174,U,hexagon,1,0,,,,,,,,,,,,,,,,repeat,number,numRpt,f,0.64,Lo,,,,,,4,,,,,,space,1.191,high,0,0,0,0,1,,,,,,,,,
296149,2022-11-21_09h58.53.599,vts_reward_expectancy_bt,2022.2.4,MacIntel,55.55555556,Safari,1440,900,,,,,10,1012,,,,,,,,,,,,,,,,,125,H,circle,1,0,,,,,,,,,,,,,,,,repeat,number,numRpt,d,0.374,Hi,,,,,,4,,,,,,,,high,1,0,1,0,1,,,,,,,,,
296149,2022-11-21_09h58.53.599,vts_reward_expectancy_bt,2022.2.4,MacIntel,55.55555556,Safari,1440,900,,,,,0,1012,,,,,,,,,,,,,,,,,132,Y,star,0,0,,,,,,,,,,,,,,,,repeat,number,NA,f,0.507,Hi,,,,,,4,,,,,,,,high,2,0,2,0,1,,,,,,,,,
296149,2022-11-21_09h58.53.599,vts_reward_expectancy_bt,2022.2.4,MacIntel,55.55555556,Safari,1440,900,,,,,1,1013,,,,,,,,,,,,,,,,,146,S,triangle,1,1,,,,,,,,,,,,,,,,repeat,number,numRpt,d,0.586,Lo,,,,,,4,,,,,,,,high,3,0,3,0,1,,,,,,,,,
296149,2022-11-21_09h58.53.599,vts_reward_expectancy_bt,2022.2.4,MacIntel,55.55555556,Safari,1440,900,,,,,1,1014,,,,,,,,,,,,,,,,,181,W,hexagon,1,0,,,,,,,,,,,,,,,,repeat,number,numRpt,f,0.469,Lo,,,,,,4,,,,,,,,high,4,0,4,0,1,,,,,,,,,
296149,2022-11-21_09h58.53.599,vts_reward_expectancy_bt,2022.2.4,MacIntel,55.55555556,Safari,1440,900,,,,,0,1014,,,,,,,,,,,,,,,,,139,F,circle,0,0,,,,,,,,,,,,,,,,repeat,number,NA,f,0.803,Lo,,,,,,4,,,,,,,,high,5,0,5,0,1,,,,,,,,,
296149,2022-11-21_09h58.53.599,vts_reward_expectancy_bt,2022.2.4,MacIntel,55.55555556,Safari,1440,900,,,,,10,1024,,,,,,,,,,,,,,,,,160,D,star,1,1,,,,,,,,,,,,,,,,switch,letter,lettSwt,j,0.443,Hi,,,,,,4,,,,,,,,high,6,0,6,0,1,,,,,,,,,
296149,2022-11-21_09h58.53.599,vts_reward_expectancy_bt,2022.2.4,MacIntel,55.55555556,Safari,1440,900,,,,,0,1024,,,,,,,,,,,,,,,,,167,B,triangle,0,0,,,,,,,,,,,,,,,,repeat,letter,NA,k,0.37,Hi,,,,,,4,,,,,,,,high,7,0,7,0,1,,,,,,,,,
296149,2022-11-21_09h58.53.599,vts_reward_expectancy_bt,2022.2.4,MacIntel,55.55555556,Safari,1440,900,,,,,0,1024,,,,,,,,,,,,,,,,,174,U,circle,1,1,,,,,,,,,,,,,,,,repeat,letter,lettRpt,k,0.583,Hi,,,,,,4,,,,,,,,high,8,0,8,0,1,,,,,,,,,
296149,2022-11-21_09h58.53.599,vts_reward_expectancy_bt,2022.2.4,MacIntel,55.55555556,Safari,1440,900,,,,,1,1025,,,,,,,,,,,,,,,,,125,H,triangle,1,0,,,,,,,,,,,,,,,,repeat,letter,lettRpt,j,0.668,Lo,,,,,,4,,,,,,,,high,9,0,9,0,1,,,,,,,,,
296149,2022-11-21_09h58.53.599,vts_reward_expectancy_bt,2022.2.4,MacIntel,55.55555556,Safari,1440,900,,,,,1,1026,,,,,,,,,,,,,,,,,132,Y,hexagon,1,0,,,,,,,,,,,,,,,,repeat,letter,lettRpt,k,0.348,Lo,,,,,,4,,,,,,,,high,10,0,10,0,1,,,,,,,,,
296149,2022-11-21_09h58.53.599,vts_reward_expectancy_bt,2022.2.4,MacIntel,55.55555556,Safari,1440,900,,,,,0,1026,,,,,,,,,,,,,,,,,146,S,star,0,0,,,,,,,,,,,,,,,,switch,number,NA,f,0.339,Lo,,,,,,4,,,,,,,,high,11,0,11,0,1,,,,,,,,,
296149,2022-11-21_09h58.53.599,vts_reward_expectancy_bt,2022.2.4,MacIntel,55.55555556,Safari,1440,900,,,,,1,1027,,,,,,,,,,,,,,,,,181,W,hexagon,1,1,,,,,,,,,,,,,,,,repeat,number,numRpt,f,0.583,Lo,,,,,,4,,,,,,,,high,12,0,12,0,1,,,,,,,,,
296149,2022-11-21_09h58.53.599,vts_reward_expectancy_bt,2022.2.4,MacIntel,55.55555556,Safari,1440,900,,,,,10,1037,,,,,,,,,,,,,,,,,139,F,star,1,0,,,,,,,,,,,,,,,,repeat,number,numRpt,d,0.349,Hi,,,,,,4,,,,,,,,high,13,0,13,0,1,,,,,,,,,
296149,2022-11-21_09h58.53.599,vts_reward_expectancy_bt,2022.2.4,MacIntel,55.55555556,Safari,1440,900,,,,,10,1047,,,,,,,,,,,,,,,,,160,D,circle,1,0,,,,,,,,,,,,,,,,repeat,number,numRpt,f,0.492,Hi,,,,,,4,,,,,,,,high,14,0,14,0,1,,,,,,,,,
296149,2022-11-21_09h58.53.599,vts_reward_expectancy_bt,2022.2.4,MacIntel,55.55555556,Safari,1440,900,,,,,1,1048,,,,,,,,,,,,,,,,,167,B,triangle,1,0,,,,,,,,,,,,,,,,switch,letter,lettSwt,j,0.993,Lo,,,,,,4,,,,,,,,high,15,0,15,0,1,,,,,,,,,
296149,2022-11-21_09h58.53.599,vts_reward_expectancy_bt,2022.2.4,MacIntel,55.55555556,Safari,1440,900,,,,,0,1048,,,,,,,,,,,,,,,,,174,H,star,0,0,,,,,,,,,,,,,,,,repeat,letter,NA,k,0.737,Lo,,,,,,4,,,,,,,,high,16,0,16,0,1,,,,,,,,,
296149,2022-11-21_09h58.53.599,vts_reward_expectancy_bt,2022.2.4,MacIntel,55.55555556,Safari,1440,900,,,,,10,1058,,,,,,,,,,,,,,,,,181,D,hexagon,1,1,,,,,,,,,,,,,,,,repeat,letter,lettRpt,j,1.44,Lo,,,,,,4,,,,,,,,high,17,0,17,0,1,,,,,,,,,
296149,2022-11-21_09h58.53.599,vts_reward_expectancy_bt,2022.2.4,MacIntel,55.55555556,Safari,1440,900,,,,,0,1058,,,,,,,,,,,,,,,,,125,B,circle,1,0,,,,,,,,,,,,,,,,repeat,letter,lettRpt,j,0.904,Hi,,,,,,4,,,,,,,,high,18,0,18,0,1,,,,,,,,,
296149,2022-11-21_09h58.53.599,vts_reward_expectancy_bt,2022.2.4,MacIntel,55.55555556,Safari,1440,900,,,,,10,1068,,,,,,,,,,,,,,,,,146,Y,triangle,1,0,,,,,,,,,,,,,,,,repeat,letter,lettRpt,k,1.087,Lo,,,,,,4,,,,,,,,high,19,0,19,0,1,,,,,,,,,
296149,2022-11-21_09h58.53.599,vts_reward_expectancy_bt,2022.2.4,MacIntel,55.55555556,Safari,1440,900,,,,,1,1069,,,,,,,,,,,,,,,,,167,F,triangle,1,0,,,,,,,,,,,,,,,,switch,number,numSwt,f,0.756,Lo,,,,,,4,,,,,,,,high,20,0,20,0,1,,,,,,,,,
296149,2022-11-21_09h58.53.599,vts_reward_expectancy_bt,2022.2.4,MacIntel,55.55555556,Safari,1440,900,,,,,0,1069,,,,,,,,,,,,,,,,,160,S,circle,0,0,,,,,,,,,,,,,,,,switch,letter,NA,j,0.886,Lo,,,,,,4,,,,,,,,high,21,0,21,0,1,,,,,,,,,
296149,2022-11-21_09h58.53.599,vts_reward_expectancy_bt,2022.2.4,MacIntel,55.55555556,Safari,1440,900,,,,,10,1079,,,,,,,,,,,,,,,,,139,U,star,1,1,,,,,,,,,,,,,,,,repeat,letter,lettRpt,k,0.508,Hi,,,,,,4,,,,,,,,high,22,0,22,0,1,,,,,,,,,
296149,2022-11-21_09h58.53.599,vts_reward_expectancy_bt,2022.2.4,MacIntel,55.55555556,Safari,1440,900,,,,,1,1080,,,,,,,,,,,,,,,,,132,W,hexagon,1,0,,,,,,,,,,,,,,,,repeat,letter,lettRpt,k,0.86,Lo,,,,,,4,,,,,,,,high,23,0,23,0,1,,,,,,,,,
296149,2022-11-21_09h58.53.599,vts_reward_expectancy_bt,2022.2.4,MacIntel,55.55555556,Safari,1440,900,,,,,0,1080,,,,,,,,,,,,,,,,,174,D,star,1,0,,,,,,,,,,,,,,,,repeat,letter,lettRpt,j,0.622,Hi,,,,,,4,,,,,,,,high,24,0,24,0,1,,,,,,,,,
296149,2022-11-21_09h58.53.599,vts_reward_expectancy_bt,2022.2.4,MacIntel,55.55555556,Safari,1440,900,,,,,10,1090,,,,,,,,,,,,,,,,,160,H,triangle,1,0,,,,,,,,,,,,,,,,repeat,letter,lettRpt,j,0.604,Lo,,,,,,4,,,,,,,,high,25,0,25,0,1,,,,,,,,,
296149,2022-11-21_09h58.53.599,vts_reward_expectancy_bt,2022.2.4,MacIntel,55.55555556,Safari,1440,900,,,,,1,1091,,,,,,,,,,,,,,,,,132,B,hexagon,1,0,,,,,,,,,,,,,,,,repeat,letter,lettRpt,j,0.655,Lo,,,,,,4,,,,,,,,high,26,0,26,0,1,,,,,,,,,
296149,2022-11-21_09h58.53.599,vts_reward_expectancy_bt,2022.2.4,MacIntel,55.55555556,Safari,1440,900,,,,,0,1091,,,,,,,,,,,,,,,,,146,Y,circle,1,0,,,,,,,,,,,,,,,,repeat,letter,lettRpt,k,0.608,Hi,,,,,,4,,,,,,,,high,27,0,27,0,1,,,,,,,,,
296149,2022-11-21_09h58.53.599,vts_reward_expectancy_bt,2022.2.4,MacIntel,55.55555556,Safari,1440,900,,,,,1,1092,,,,,,,,,,,,,,,,,181,F,circle,1,0,,,,,,,,,,,,,,,,repeat,letter,lettRpt,j,0.543,Hi,,,,,,4,,,,,,,,high,28,0,28,0,1,,,,,,,,,
296149,2022-11-21_09h58.53.599,vts_reward_expectancy_bt,2022.2.4,MacIntel,55.55555556,Safari,1440,900,,,,,1,1093,,,,,,,,,,,,,,,,,139,W,hexagon,1,0,,,,,,,,,,,,,,,,repeat,letter,lettRpt,k,0.455,Lo,,,,,,4,,,,,,,,high,29,0,29,0,1,,,,,,,,,
296149,2022-11-21_09h58.53.599,vts_reward_expectancy_bt,2022.2.4,MacIntel,55.55555556,Safari,1440,900,,,,,1,1094,,,,,,,,,,,,,,,,,125,S,triangle,1,0,,,,,,,,,,,,,,,,repeat,letter,lettRpt,k,0.56,Lo,,,,,,4,,,,,,,,high,30,0,30,0,1,,,,,,,,,
296149,2022-11-21_09h58.53.599,vts_reward_expectancy_bt,2022.2.4,MacIntel,55.55555556,Safari,1440,900,,,,,10,1104,,,,,,,,,,,,,,,,,167,U,star,1,0,,,,,,,,,,,,,,,,repeat,letter,lettRpt,k,0.519,Hi,,,,,,4,,,,,,,,high,31,0,31,0,1,,,,,,,,,
296149,2022-11-21_09h58.53.599,vts_reward_expectancy_bt,2022.2.4,MacIntel,55.55555556,Safari,1440,900,,,,,0,1104,,,,,,,,,,,,,,,,,174,B,circle,1,0,,,,,,,,,,,,,,,,repeat,letter,lettRpt,j,0.657,Hi,,,,,,5,,,,,,space,0.409,high,0,0,0,0,1,,,,,,,,,
296149,2022-11-21_09h58.53.599,vts_reward_expectancy_bt,2022.2.4,MacIntel,55.55555556,Safari,1440,900,,,,,1,1105,,,,,,,,,,,,,,,,,146,W,hexagon,1,0,,,,,,,,,,,,,,,,repeat,letter,lettRpt,k,0.541,Lo,,,,,,5,,,,,,,,high,1,0,1,0,1,,,,,,,,,
296149,2022-11-21_09h58.53.599,vts_reward_expectancy_bt,2022.2.4,MacIntel,55.55555556,Safari,1440,900,,,,,10,1115,,,,,,,,,,,,,,,,,181,S,star,1,0,,,,,,,,,,,,,,,,repeat,letter,lettRpt,k,0.554,Hi,,,,,,5,,,,,,,,high,2,0,2,0,1,,,,,,,,,
296149,2022-11-21_09h58.53.599,vts_reward_expectancy_bt,2022.2.4,MacIntel,55.55555556,Safari,1440,900,,,,,10,1125,,,,,,,,,,,,,,,,,160,U,triangle,1,0,,,,,,,,,,,,,,,,repeat,letter,lettRpt,k,0.733,Lo,,,,,,5,,,,,,,,high,3,0,3,0,1,,,,,,,,,
296149,2022-11-21_09h58.53.599,vts_reward_expectancy_bt,2022.2.4,MacIntel,55.55555556,Safari,1440,900,,,,,0,1125,,,,,,,,,,,,,,,,,167,H,circle,1,0,,,,,,,,,,,,,,,,repeat,letter,lettRpt,j,0.787,Hi,,,,,,5,,,,,,,,high,4,0,4,0,1,,,,,,,,,
296149,2022-11-21_09h58.53.599,vts_reward_expectancy_bt,2022.2.4,MacIntel,55.55555556,Safari,1440,900,,,,,1,1126,,,,,,,,,,,,,,,,,132,D,hexagon,1,0,,,,,,,,,,,,,,,,repeat,letter,lettRpt,j,0.708,Lo,,,,,,5,,,,,,,,high,5,0,5,0,1,,,,,,,,,
296149,2022-11-21_09h58.53.599,vts_reward_expectancy_bt,2022.2.4,MacIntel,55.55555556,Safari,1440,900,,,,,0,1126,,,,,,,,,,,,,,,,,125,F,star,1,0,,,,,,,,,,,,,,,,repeat,letter,lettRpt,j,1.383,Hi,,,,,,5,,,,,,,,high,6,0,6,0,1,,,,,,,,,
296149,2022-11-21_09h58.53.599,vts_reward_expectancy_bt,2022.2.4,MacIntel,55.55555556,Safari,1440,900,,,,,1,1127,,,,,,,,,,,,,,,,,139,Y,triangle,1,0,,,,,,,,,,,,,,,,repeat,letter,lettRpt,k,0.639,Lo,,,,,,5,,,,,,,,high,7,0,7,0,1,,,,,,,,,
296149,2022-11-21_09h58.53.599,vts_reward_expectancy_bt,2022.2.4,MacIntel,55.55555556,Safari,1440,900,,,,,0,1127,,,,,,,,,,,,,,,,,174,B,star,1,0,,,,,,,,,,,,,,,,repeat,letter,lettRpt,j,0.588,Hi,,,,,,5,,,,,,,,high,8,0,8,0,1,,,,,,,,,
296149,2022-11-21_09h58.53.599,vts_reward_expectancy_bt,2022.2.4,MacIntel,55.55555556,Safari,1440,900,,,,,1,1128,,,,,,,,,,,,,,,,,146,W,hexagon,1,0,,,,,,,,,,,,,,,,repeat,letter,lettRpt,k,0.575,Lo,,,,,,5,,,,,,,,high,9,0,9,0,1,,,,,,,,,
296149,2022-11-21_09h58.53.599,vts_reward_expectancy_bt,2022.2.4,MacIntel,55.55555556,Safari,1440,900,,,,,0,1128,,,,,,,,,,,,,,,,,181,S,circle,1,0,,,,,,,,,,,,,,,,repeat,letter,lettRpt,k,1.016,Hi,,,,,,5,,,,,,,,high,10,0,10,0,1,,,,,,,,,
296149,2022-11-21_09h58.53.599,vts_reward_expectancy_bt,2022.2.4,MacIntel,55.55555556,Safari,1440,900,,,,,0,1128,,,,,,,,,,,,,,,,,160,U,triangle,0,0,,,,,,,,,,,,,,,,repeat,letter,NA,j,1.338,Hi,,,,,,5,,,,,,,,high,11,0,11,0,1,,,,,,,,,
296149,2022-11-21_09h58.53.599,vts_reward_expectancy_bt,2022.2.4,MacIntel,55.55555556,Safari,1440,900,,,,,1,1129,,,,,,,,,,,,,,,,,167,H,hexagon,1,1,,,,,,,,,,,,,,,,repeat,letter,lettRpt,j,1.14,Lo,,,,,,5,,,,,,,,high,12,0,12,0,1,,,,,,,,,
296149,2022-11-21_09h58.53.599,vts_reward_expectancy_bt,2022.2.4,MacIntel,55.55555556,Safari,1440,900,,,,,0,1129,,,,,,,,,,,,,,,,,132,D,circle,1,0,,,,,,,,,,,,,,,,repeat,letter,lettRpt,j,1.319,Hi,,,,,,5,,,,,,,,high,13,0,13,0,1,,,,,,,,,
296149,2022-11-21_09h58.53.599,vts_reward_expectancy_bt,2022.2.4,MacIntel,55.55555556,Safari,1440,900,,,,,1,1130,,,,,,,,,,,,,,,,,125,F,triangle,1,0,,,,,,,,,,,,,,,,repeat,letter,lettRpt,j,0.722,Lo,,,,,,5,,,,,,,,high,14,0,14,0,1,,,,,,,,,
296149,2022-11-21_09h58.53.599,vts_reward_expectancy_bt,2022.2.4,MacIntel,55.55555556,Safari,1440,900,,,,,0,1130,,,,,,,,,,,,,,,,,139,Y,star,1,0,,,,,,,,,,,,,,,,repeat,letter,lettRpt,k,0.642,Hi,,,,,,5,,,,,,,,high,15,0,15,0,1,,,,,,,,,
296149,2022-11-21_09h58.53.599,vts_reward_expectancy_bt,2022.2.4,MacIntel,55.55555556,Safari,1440,900,,,,,0,1130,,,,,,,,,,,,,,,,,146,Y,circle,1,0,,,,,,,,,,,,,,,,repeat,letter,lettRpt,k,0.572,Hi,,,,,,5,,,,,,,,high,16,0,16,0,1,,,,,,,,,
296149,2022-11-21_09h58.53.599,vts_reward_expectancy_bt,2022.2.4,MacIntel,55.55555556,Safari,1440,900,,,,,0,1130,,,,,,,,,,,,,,,,,160,U,star,1,0,,,,,,,,,,,,,,,,repeat,letter,lettRpt,k,0.64,Hi,,,,,,5,,,,,,,,high,17,0,17,0,1,,,,,,,,,
296149,2022-11-21_09h58.53.599,vts_reward_expectancy_bt,2022.2.4,MacIntel,55.55555556,Safari,1440,900,,,,,1,1131,,,,,,,,,,,,,,,,,125,B,hexagon,1,0,,,,,,,,,,,,,,,,repeat,letter,lettRpt,j,0.85,Lo,,,,,,5,,,,,,,,high,18,0,18,0,1,,,,,,,,,
296149,2022-11-21_09h58.53.599,vts_reward_expectancy_bt,2022.2.4,MacIntel,55.55555556,Safari,1440,900,,,,,1,1132,,,,,,,,,,,,,,,,,181,W,triangle,1,0,,,,,,,,,,,,,,,,repeat,letter,lettRpt,k,0.601,Lo,,,,,,5,,,,,,,,high,19,0,19,0,1,,,,,,,,,
296149,2022-11-21_09h58.53.599,vts_reward_expectancy_bt,2022.2.4,MacIntel,55.55555556,Safari,1440,900,,,,,1,1133,,,,,,,,,,,,,,,,,139,D,triangle,1,0,,,,,,,,,,,,,,,,repeat,letter,lettRpt,j,0.574,Lo,,,,,,5,,,,,,,,high,20,0,20,0,1,,,,,,,,,
296149,2022-11-21_09h58.53.599,vts_reward_expectancy_bt,2022.2.4,MacIntel,55.55555556,Safari,1440,900,,,,,10,1143,,,,,,,,,,,,,,,,,132,S,hexagon,1,0,,,,,,,,,,,,,,,,repeat,letter,lettRpt,k,0.524,Lo,,,,,,5,,,,,,,,high,21,0,21,0,1,,,,,,,,,
296149,2022-11-21_09h58.53.599,vts_reward_expectancy_bt,2022.2.4,MacIntel,55.55555556,Safari,1440,900,,,,,10,1153,,,,,,,,,,,,,,,,,167,H,star,1,0,,,,,,,,,,,,,,,,repeat,letter,lettRpt,j,0.553,Hi,,,,,,5,,,,,,,,high,22,0,22,0,1,,,,,,,,,
296149,2022-11-21_09h58.53.599,vts_reward_expectancy_bt,2022.2.4,MacIntel,55.55555556,Safari,1440,900,,,,,0,1153,,,,,,,,,,,,,,,,,174,F,circle,1,0,,,,,,,,,,,,,,,,repeat,letter,lettRpt,j,0.649,Hi,,,,,,5,,,,,,,,high,23,0,23,0,1,,,,,,,,,
296149,2022-11-21_09h58.53.599,vts_reward_expectancy_bt,2022.2.4,MacIntel,55.55555556,Safari,1440,900,,,,,10,1163,,,,,,,,,,,,,,,,,125,H,circle,1,0,,,,,,,,,,,,,,,,repeat,letter,lettRpt,j,0.504,Hi,,,,,,5,,,,,,,,high,24,0,24,0,1,,,,,,,,,
296149,2022-11-21_09h58.53.599,vts_reward_expectancy_bt,2022.2.4,MacIntel,55.55555556,Safari,1440,900,,,,,1,1164,,,,,,,,,,,,,,,,,139,W,triangle,1,0,,,,,,,,,,,,,,,,repeat,letter,lettRpt,k,0.517,Lo,,,,,,5,,,,,,,,high,25,0,25,0,1,,,,,,,,,
296149,2022-11-21_09h58.53.599,vts_reward_expectancy_bt,2022.2.4,MacIntel,55.55555556,Safari,1440,900,,,,,10,1174,,,,,,,,,,,,,,,,,146,U,star,1,0,,,,,,,,,,,,,,,,repeat,letter,lettRpt,k,0.52,Hi,,,,,,5,,,,,,,,high,26,0,26,0,1,,,,,,,,,
296149,2022-11-21_09h58.53.599,vts_reward_expectancy_bt,2022.2.4,MacIntel,55.55555556,Safari,1440,900,,,,,1,1175,,,,,,,,,,,,,,,,,174,S,hexagon,1,0,,,,,,,,,,,,,,,,repeat,letter,lettRpt,k,0.589,Lo,,,,,,5,,,,,,,,high,27,0,27,0,1,,,,,,,,,
296149,2022-11-21_09h58.53.599,vts_reward_expectancy_bt,2022.2.4,MacIntel,55.55555556,Safari,1440,900,,,,,1,1176,,,,,,,,,,,,,,,,,181,Y,triangle,1,0,,,,,,,,,,,,,,,,repeat,letter,lettRpt,k,0.608,Lo,,,,,,5,,,,,,,,high,28,0,28,0,1,,,,,,,,,
296149,2022-11-21_09h58.53.599,vts_reward_expectancy_bt,2022.2.4,MacIntel,55.55555556,Safari,1440,900,,,,,0,1176,,,,,,,,,,,,,,,,,167,B,circle,1,0,,,,,,,,,,,,,,,,repeat,letter,lettRpt,j,0.652,Hi,,,,,,5,,,,,,,,high,29,0,29,0,1,,,,,,,,,
296149,2022-11-21_09h58.53.599,vts_reward_expectancy_bt,2022.2.4,MacIntel,55.55555556,Safari,1440,900,,,,,10,1186,,,,,,,,,,,,,,,,,132,F,star,1,0,,,,,,,,,,,,,,,,repeat,letter,lettRpt,j,0.557,Hi,,,,,,5,,,,,,,,high,30,0,30,0,1,,,,,,,,,
296149,2022-11-21_09h58.53.599,vts_reward_expectancy_bt,2022.2.4,MacIntel,55.55555556,Safari,1440,900,,,,,1,1187,,,,,,,,,,,,,,,,,160,D,hexagon,1,0,,,,,,,,,,,,,,,,repeat,letter,lettRpt,j,0.641,Lo,,,,,,5,,,,,,,,high,31,0,31,0,1,,,,,,,,,
296149,2022-11-21_09h58.53.599,vts_reward_expectancy_bt,2022.2.4,MacIntel,55.55555556,Safari,1440,900,,,,,1,1188,,,,,,,,,,,,,,,,,167,F,circle,1,0,,,,,,,,,,,,,,,,repeat,letter,lettRpt,j,0.434,Hi,,,,,,6,,,,,,space,2.456,high,0,0,0,0,1,,,,,,,,,
296149,2022-11-21_09h58.53.599,vts_reward_expectancy_bt,2022.2.4,MacIntel,55.55555556,Safari,1440,900,,,,,1,1189,,,,,,,,,,,,,,,,,125,S,star,1,0,,,,,,,,,,,,,,,,repeat,letter,lettRpt,k,0.397,Hi,,,,,,6,,,,,,,,high,1,0,1,0,1,,,,,,,,,
296149,2022-11-21_09h58.53.599,vts_reward_expectancy_bt,2022.2.4,MacIntel,55.55555556,Safari,1440,900,,,,,10,1199,,,,,,,,,,,,,,,,,174,H,triangle,1,0,,,,,,,,,,,,,,,,repeat,letter,lettRpt,j,0.49,Lo,,,,,,6,,,,,,,,high,2,0,2,0,1,,,,,,,,,
296149,2022-11-21_09h58.53.599,vts_reward_expectancy_bt,2022.2.4,MacIntel,55.55555556,Safari,1440,900,,,,,1,1200,,,,,,,,,,,,,,,,,139,U,hexagon,1,0,,,,,,,,,,,,,,,,repeat,letter,lettRpt,k,0.486,Lo,,,,,,6,,,,,,,,high,3,0,3,0,1,,,,,,,,,
296149,2022-11-21_09h58.53.599,vts_reward_expectancy_bt,2022.2.4,MacIntel,55.55555556,Safari,1440,900,,,,,0,1200,,,,,,,,,,,,,,,,,146,W,circle,0,0,,,,,,,,,,,,,,,,repeat,letter,NA,j,0.354,Lo,,,,,,6,,,,,,,,high,4,0,4,0,1,,,,,,,,,
296149,2022-11-21_09h58.53.599,vts_reward_expectancy_bt,2022.2.4,MacIntel,55.55555556,Safari,1440,900,,,,,10,1210,,,,,,,,,,,,,,,,,132,Y,star,1,1,,,,,,,,,,,,,,,,repeat,letter,lettRpt,k,0.515,Hi,,,,,,6,,,,,,,,high,5,0,5,0,1,,,,,,,,,
296149,2022-11-21_09h58.53.599,vts_reward_expectancy_bt,2022.2.4,MacIntel,55.55555556,Safari,1440,900,,,,,1,1211,,,,,,,,,,,,,,,,,181,B,triangle,1,0,,,,,,,,,,,,,,,,switch,number,numSwt,f,0.539,Lo,,,,,,6,,,,,,,,high,6,0,6,0,1,,,,,,,,,
296149,2022-11-21_09h58.53.599,vts_reward_expectancy_bt,2022.2.4,MacIntel,55.55555556,Safari,1440,900,,,,,1,1212,,,,,,,,,,,,,,,,,160,D,hexagon,1,0,,,,,,,,,,,,,,,,repeat,number,numRpt,f,0.541,Lo,,,,,,6,,,,,,,,high,7,0,7,0,1,,,,,,,,,
296149,2022-11-21_09h58.53.599,vts_reward_expectancy_bt,2022.2.4,MacIntel,55.55555556,Safari,1440,900,,,,,1,1213,,,,,,,,,,,,,,,,,167,F,hexagon,1,0,,,,,,,,,,,,,,,,repeat,number,numRpt,f,0.471,Lo,,,,,,6,,,,,,,,high,8,0,8,0,1,,,,,,,,,
296149,2022-11-21_09h58.53.599,vts_reward_expectancy_bt,2022.2.4,MacIntel,55.55555556,Safari,1440,900,,,,,1,1214,,,,,,,,,,,,,,,,,125,S,triangle,1,0,,,,,,,,,,,,,,,,repeat,number,numRpt,d,0.524,Lo,,,,,,6,,,,,,,,high,9,0,9,0,1,,,,,,,,,
296149,2022-11-21_09h58.53.599,vts_reward_expectancy_bt,2022.2.4,MacIntel,55.55555556,Safari,1440,900,,,,,0,1214,,,,,,,,,,,,,,,,,174,H,circle,-1,0,,,,,,,,,,,,,,,,switch,no_choice,NA,,,Lo,,,,,,6,,,,,,,,high,10,0,10,0,1,,,,,,,,,
296149,2022-11-21_09h58.53.599,vts_reward_expectancy_bt,2022.2.4,MacIntel,55.55555556,Safari,1440,900,,,,,1,1215,,,,,,,,,,,,,,,,,139,U,star,1,0,,,,,,,,,,,,,,,,switch,letter,lettSwt,k,1.442,Hi,,,,,,6,,,,,,,,high,11,0,11,0,1,,,,,,,,,
