participant,date,expName,psychopyVersion,OS,frameRate,browser,xResolution,yResolution,key_resp.keys,key_resp.rt,training_resp.keys,training_resp.rt,points_trial,points_cumul,trainBlock,training.thisRepN,training.thisTrialN,training.thisN,training.thisIndex,training.ran,LTriangleOpac,LCircleOpac,LHexagonOpac,LStarOpac,RTriangleOpac,RCircleOpac,RHexagonOpac,RStarOpac,LShape_ID,RShape_ID,curr_topStim,curr_bottStim,curr_shape,acc,E1,target_resp_prac1.keys,target_resp_prac1.rt,pracBlock,task1_prac_trials.thisRepN,task1_prac_trials.thisTrialN,task1_prac_trials.thisN,task1_prac_trials.thisIndex,task1_prac_trials.ran,target_resp_prac2.keys,target_resp_prac2.rt,task2_praac_trials.thisRepN,task2_praac_trials.thisTrialN,task2_praac_trials.thisN,task2_praac_trials.thisIndex,task2_praac_trials.ran,alt,task,condition,target_resp.keys,target_resp.rt,rewCond,vts_practice_trials.thisRepN,vts_practice_trials.thisTrialN,vts_practice_trials.thisN,vts_practice_trials.thisIndex,vts_practice_trials.ran,blockNum,trials_norew.thisRepN,trials_norew.thisTrialN,trials_norew.thisN,trials_norew.thisIndex,trials_norew.ran,key_resp_2.keys,key_resp_2.rt,rewExpectancy,trials_rew.thisRepN,trials_rew.thisTrialN,trials_rew.thisN,trials_rew.thisIndex,trials_rew.ran,Q1,Q2,Q2_text,Q3,Q4,Q5,Q5_text,xRes,yRes
296260,2022-11-27_21h20.01.261,vts_reward_expectancy_bt,2022.2.4,Win32,59.82650314,Chrome,1536,1024,,,,,,,,,,,,,,,,,,,,,,,,,,,,,,,,,,,,,,,,,,,,,,,,,,,,,,,,,,,,,,,,,,,,,,,,,,,,
296260,2022-11-27_21h20.01.261,vts_reward_expectancy_bt,2022.2.4,Win32,59.82650314,Chrome,1536,1024,space,45.6785,,,,,,,,,,,,,,,,,,,,,,,,,,,,,,,,,,,,,,,,,,,,,,,,,,,,,,,,,,,,,,,,,,,,,,,,,,
296260,2022-11-27_21h20.01.261,vts_reward_expectancy_bt,2022.2.4,Win32,59.82650314,Chrome,1536,1024,,,,,,,,,,,,,,,,,,,,,,,,,,,,,,,,,,,,,,,,,,,,,,,,,,,,,,,,,,,,,,,,,,,,,,,,,,,,
296260,2022-11-27_21h20.01.261,vts_reward_expectancy_bt,2022.2.4,Win32,59.82650314,Chrome,1536,1024,,,a,2.1215,1,1,0,0,0,0,6,1,0,0,1,0,1,0,0,0,hexagon,triangle,,,,,,,,,,,,,,,,,,,,,,,,,,,,,,,,,,,,,,,,,,,,,,,,,,,,,,
296260,2022-11-27_21h20.01.261,vts_reward_expectancy_bt,2022.2.4,Win32,59.82650314,Chrome,1536,1024,,,l,1.3288,1,2,0,0,1,1,7,1,0,0,1,0,0,1,0,0,hexagon,circle,,,,,,,,,,,,,,,,,,,,,,,,,,,,,,,,,,,,,,,,,,,,,,,,,,,,,,
296260,2022-11-27_21h20.01.261,vts_reward_expectancy_bt,2022.2.4,Win32,59.82650314,Chrome,1536,1024,,,l,1.0153,1,3,0,0,2,2,5,1,0,1,0,0,0,0,0,1,circle,star,,,,,,,,,,,,,,,,,,,,,,,,,,,,,,,,,,,,,,,,,,,,,,,,,,,,,,
296260,2022-11-27_21h20.01.261,vts_reward_expectancy_bt,2022.2.4,Win32,59.82650314,Chrome,1536,1024,,,a,0.4718,10,13,0,0,3,3,3,1,0,1,0,0,1,0,0,0,circle,triangle,,,,,,,,,,,,,,,,,,,,,,,,,,,,,,,,,,,,,,,,,,,,,,,,,,,,,,
296260,2022-11-27_21h20.01.261,vts_reward_expectancy_bt,2022.2.4,Win32,59.82650314,Chrome,1536,1024,,,l,0.5316,10,23,0,0,4,4,10,1,0,0,0,1,0,1,0,0,star ,circle,,,,,,,,,,,,,,,,,,,,,,,,,,,,,,,,,,,,,,,,,,,,,,,,,,,,,,
296260,2022-11-27_21h20.01.261,vts_reward_expectancy_bt,2022.2.4,Win32,59.82650314,Chrome,1536,1024,,,a,0.5494,10,33,0,0,5,5,4,1,0,1,0,0,0,0,1,0,circle,hexagon,,,,,,,,,,,,,,,,,,,,,,,,,,,,,,,,,,,,,,,,,,,,,,,,,,,,,,
296260,2022-11-27_21h20.01.261,vts_reward_expectancy_bt,2022.2.4,Win32,59.82650314,Chrome,1536,1024,,,l,0.4842,1,34,0,0,6,6,2,1,1,0,0,0,0,0,0,1,triangle,star,,,,,,,,,,,,,,,,,,,,,,,,,,,,,,,,,,,,,,,,,,,,,,,,,,,,,,
296260,2022-11-27_21h20.01.261,vts_reward_expectancy_bt,2022.2.4,Win32,59.82650314,Chrome,1536,1024,,,l,1.1613,10,44,0,0,7,7,0,1,1,0,0,0,0,1,0,0,triangle,circle,,,,,,,,,,,,,,,,,,,,,,,,,,,,,,,,,,,,,,,,,,,,,,,,,,,,,,
296260,2022-11-27_21h20.01.261,vts_reward_expectancy_bt,2022.2.4,Win32,59.82650314,Chrome,1536,1024,,,a,1.5977,1,45,0,0,8,8,8,1,0,0,1,0,0,0,0,1,hexagon,star,,,,,,,,,,,,,,,,,,,,,,,,,,,,,,,,,,,,,,,,,,,,,,,,,,,,,,
296260,2022-11-27_21h20.01.261,vts_reward_expectancy_bt,2022.2.4,Win32,59.82650314,Chrome,1536,1024,,,l,4.4346,10,55,0,0,9,9,1,1,1,0,0,0,0,0,1,0,triangle,hexagon,,,,,,,,,,,,,,,,,,,,,,,,,,,,,,,,,,,,,,,,,,,,,,,,,,,,,,
296260,2022-11-27_21h20.01.261,vts_reward_expectancy_bt,2022.2.4,Win32,59.82650314,Chrome,1536,1024,,,a,0.7406,10,65,0,0,10,10,9,1,0,0,0,1,1,0,0,0,star,triangle,,,,,,,,,,,,,,,,,,,,,,,,,,,,,,,,,,,,,,,,,,,,,,,,,,,,,,
296260,2022-11-27_21h20.01.261,vts_reward_expectancy_bt,2022.2.4,Win32,59.82650314,Chrome,1536,1024,,,a,0.834,1,66,0,0,11,11,11,1,0,0,0,1,0,0,1,0,star,hexagon,,,,,,,,,,,,,,,,,,,,,,,,,,,,,,,,,,,,,,,,,,,,,,,,,,,,,,
296260,2022-11-27_21h20.01.261,vts_reward_expectancy_bt,2022.2.4,Win32,59.82650314,Chrome,1536,1024,,,l,1.7512,10,76,0,1,0,12,1,1,1,0,0,0,0,0,1,0,triangle,hexagon,,,,,,,,,,,,,,,,,,,,,,,,,,,,,,,,,,,,,,,,,,,,,,,,,,,,,,
296260,2022-11-27_21h20.01.261,vts_reward_expectancy_bt,2022.2.4,Win32,59.82650314,Chrome,1536,1024,,,a,2.0291,1,77,0,1,1,13,9,1,0,0,0,1,1,0,0,0,star,triangle,,,,,,,,,,,,,,,,,,,,,,,,,,,,,,,,,,,,,,,,,,,,,,,,,,,,,,
296260,2022-11-27_21h20.01.261,vts_reward_expectancy_bt,2022.2.4,Win32,59.82650314,Chrome,1536,1024,,,a,1.5352,1,78,0,1,2,14,3,1,0,1,0,0,1,0,0,0,circle,triangle,,,,,,,,,,,,,,,,,,,,,,,,,,,,,,,,,,,,,,,,,,,,,,,,,,,,,,
296260,2022-11-27_21h20.01.261,vts_reward_expectancy_bt,2022.2.4,Win32,59.82650314,Chrome,1536,1024,,,a,1.01,1,79,0,1,3,15,2,1,1,0,0,0,0,0,0,1,triangle,star,,,,,,,,,,,,,,,,,,,,,,,,,,,,,,,,,,,,,,,,,,,,,,,,,,,,,,
296260,2022-11-27_21h20.01.261,vts_reward_expectancy_bt,2022.2.4,Win32,59.82650314,Chrome,1536,1024,,,l,1.3507,1,80,0,1,4,16,8,1,0,0,1,0,0,0,0,1,hexagon,star,,,,,,,,,,,,,,,,,,,,,,,,,,,,,,,,,,,,,,,,,,,,,,,,,,,,,,
296260,2022-11-27_21h20.01.261,vts_reward_expectancy_bt,2022.2.4,Win32,59.82650314,Chrome,1536,1024,,,l,0.6679,10,90,0,1,5,17,7,1,0,0,1,0,0,1,0,0,hexagon,circle,,,,,,,,,,,,,,,,,,,,,,,,,,,,,,,,,,,,,,,,,,,,,,,,,,,,,,
296260,2022-11-27_21h20.01.261,vts_reward_expectancy_bt,2022.2.4,Win32,59.82650314,Chrome,1536,1024,,,a,0.5131,10,100,0,1,6,18,4,1,0,1,0,0,0,0,1,0,circle,hexagon,,,,,,,,,,,,,,,,,,,,,,,,,,,,,,,,,,,,,,,,,,,,,,,,,,,,,,
296260,2022-11-27_21h20.01.261,vts_reward_expectancy_bt,2022.2.4,Win32,59.82650314,Chrome,1536,1024,,,l,0.4016,1,101,0,1,7,19,10,1,0,0,0,1,0,1,0,0,star ,circle,,,,,,,,,,,,,,,,,,,,,,,,,,,,,,,,,,,,,,,,,,,,,,,,,,,,,,
296260,2022-11-27_21h20.01.261,vts_reward_expectancy_bt,2022.2.4,Win32,59.82650314,Chrome,1536,1024,,,a,0.5009,10,111,0,1,8,20,0,1,1,0,0,0,0,1,0,0,triangle,circle,,,,,,,,,,,,,,,,,,,,,,,,,,,,,,,,,,,,,,,,,,,,,,,,,,,,,,
296260,2022-11-27_21h20.01.261,vts_reward_expectancy_bt,2022.2.4,Win32,59.82650314,Chrome,1536,1024,,,a,0.5023,1,112,0,1,9,21,5,1,0,1,0,0,0,0,0,1,circle,star,,,,,,,,,,,,,,,,,,,,,,,,,,,,,,,,,,,,,,,,,,,,,,,,,,,,,,
296260,2022-11-27_21h20.01.261,vts_reward_expectancy_bt,2022.2.4,Win32,59.82650314,Chrome,1536,1024,,,a,0.3358,1,113,0,1,10,22,11,1,0,0,0,1,0,0,1,0,star,hexagon,,,,,,,,,,,,,,,,,,,,,,,,,,,,,,,,,,,,,,,,,,,,,,,,,,,,,,
296260,2022-11-27_21h20.01.261,vts_reward_expectancy_bt,2022.2.4,Win32,59.82650314,Chrome,1536,1024,,,a,0.3907,10,123,0,1,11,23,6,1,0,0,1,0,1,0,0,0,hexagon,triangle,,,,,,,,,,,,,,,,,,,,,,,,,,,,,,,,,,,,,,,,,,,,,,,,,,,,,,
296260,2022-11-27_21h20.01.261,vts_reward_expectancy_bt,2022.2.4,Win32,59.82650314,Chrome,1536,1024,,,a,0.3691,10,133,0,2,0,24,5,1,0,1,0,0,0,0,0,1,circle,star,,,,,,,,,,,,,,,,,,,,,,,,,,,,,,,,,,,,,,,,,,,,,,,,,,,,,,
296260,2022-11-27_21h20.01.261,vts_reward_expectancy_bt,2022.2.4,Win32,59.82650314,Chrome,1536,1024,,,a,0.4174,10,143,0,2,1,25,6,1,0,0,1,0,1,0,0,0,hexagon,triangle,,,,,,,,,,,,,,,,,,,,,,,,,,,,,,,,,,,,,,,,,,,,,,,,,,,,,,
296260,2022-11-27_21h20.01.261,vts_reward_expectancy_bt,2022.2.4,Win32,59.82650314,Chrome,1536,1024,,,a,0.4175,10,153,0,2,2,26,2,1,1,0,0,0,0,0,0,1,triangle,star,,,,,,,,,,,,,,,,,,,,,,,,,,,,,,,,,,,,,,,,,,,,,,,,,,,,,,
296260,2022-11-27_21h20.01.261,vts_reward_expectancy_bt,2022.2.4,Win32,59.82650314,Chrome,1536,1024,,,a,0.3117,1,154,0,2,3,27,7,1,0,0,1,0,0,1,0,0,hexagon,circle,,,,,,,,,,,,,,,,,,,,,,,,,,,,,,,,,,,,,,,,,,,,,,,,,,,,,,
296260,2022-11-27_21h20.01.261,vts_reward_expectancy_bt,2022.2.4,Win32,59.82650314,Chrome,1536,1024,,,l,0.2856,10,164,0,2,4,28,4,1,0,1,0,0,0,0,1,0,circle,hexagon,,,,,,,,,,,,,,,,,,,,,,,,,,,,,,,,,,,,,,,,,,,,,,,,,,,,,,
296260,2022-11-27_21h20.01.261,vts_reward_expectancy_bt,2022.2.4,Win32,59.82650314,Chrome,1536,1024,,,l,0.3352,10,174,0,2,5,29,10,1,0,0,0,1,0,1,0,0,star ,circle,,,,,,,,,,,,,,,,,,,,,,,,,,,,,,,,,,,,,,,,,,,,,,,,,,,,,,
296260,2022-11-27_21h20.01.261,vts_reward_expectancy_bt,2022.2.4,Win32,59.82650314,Chrome,1536,1024,,,l,0.31,1,175,0,2,6,30,1,1,1,0,0,0,0,0,1,0,triangle,hexagon,,,,,,,,,,,,,,,,,,,,,,,,,,,,,,,,,,,,,,,,,,,,,,,,,,,,,,
296260,2022-11-27_21h20.01.261,vts_reward_expectancy_bt,2022.2.4,Win32,59.82650314,Chrome,1536,1024,,,a,0.2682,1,176,0,2,7,31,11,1,0,0,0,1,0,0,1,0,star,hexagon,,,,,,,,,,,,,,,,,,,,,,,,,,,,,,,,,,,,,,,,,,,,,,,,,,,,,,
296260,2022-11-27_21h20.01.261,vts_reward_expectancy_bt,2022.2.4,Win32,59.82650314,Chrome,1536,1024,,,l,0.302,10,186,0,2,8,32,8,1,0,0,1,0,0,0,0,1,hexagon,star,,,,,,,,,,,,,,,,,,,,,,,,,,,,,,,,,,,,,,,,,,,,,,,,,,,,,,
296260,2022-11-27_21h20.01.261,vts_reward_expectancy_bt,2022.2.4,Win32,59.82650314,Chrome,1536,1024,,,l,0.294,10,196,0,2,9,33,3,1,0,1,0,0,1,0,0,0,circle,triangle,,,,,,,,,,,,,,,,,,,,,,,,,,,,,,,,,,,,,,,,,,,,,,,,,,,,,,
296260,2022-11-27_21h20.01.261,vts_reward_expectancy_bt,2022.2.4,Win32,59.82650314,Chrome,1536,1024,,,l,0.3679,1,197,0,2,10,34,0,1,1,0,0,0,0,1,0,0,triangle,circle,,,,,,,,,,,,,,,,,,,,,,,,,,,,,,,,,,,,,,,,,,,,,,,,,,,,,,
296260,2022-11-27_21h20.01.261,vts_reward_expectancy_bt,2022.2.4,Win32,59.82650314,Chrome,1536,1024,,,a,0.3023,10,207,0,2,11,35,9,1,0,0,0,1,1,0,0,0,star,triangle,,,,,,,,,,,,,,,,,,,,,,,,,,,,,,,,,,,,,,,,,,,,,,,,,,,,,,
296260,2022-11-27_21h20.01.261,vts_reward_expectancy_bt,2022.2.4,Win32,59.82650314,Chrome,1536,1024,,,a,1.8041,1,208,1,0,0,0,11,1,0,0,0,1,0,0,1,0,star,hexagon,,,,,,,,,,,,,,,,,,,,,,,,,,,,,,,,,,,,,,,,,,,,,,,,,,,,,,
296260,2022-11-27_21h20.01.261,vts_reward_expectancy_bt,2022.2.4,Win32,59.82650314,Chrome,1536,1024,,,l,0.3509,1,209,1,0,1,1,8,1,0,0,1,0,0,0,0,1,hexagon,star,,,,,,,,,,,,,,,,,,,,,,,,,,,,,,,,,,,,,,,,,,,,,,,,,,,,,,
296260,2022-11-27_21h20.01.261,vts_reward_expectancy_bt,2022.2.4,Win32,59.82650314,Chrome,1536,1024,,,a,0.2768,1,210,1,0,2,2,3,1,0,1,0,0,1,0,0,0,circle,triangle,,,,,,,,,,,,,,,,,,,,,,,,,,,,,,,,,,,,,,,,,,,,,,,,,,,,,,
296260,2022-11-27_21h20.01.261,vts_reward_expectancy_bt,2022.2.4,Win32,59.82650314,Chrome,1536,1024,,,l,0.3304,1,211,1,0,3,3,2,1,1,0,0,0,0,0,0,1,triangle,star,,,,,,,,,,,,,,,,,,,,,,,,,,,,,,,,,,,,,,,,,,,,,,,,,,,,,,
296260,2022-11-27_21h20.01.261,vts_reward_expectancy_bt,2022.2.4,Win32,59.82650314,Chrome,1536,1024,,,l,0.3468,1,212,1,0,4,4,0,1,1,0,0,0,0,1,0,0,triangle,circle,,,,,,,,,,,,,,,,,,,,,,,,,,,,,,,,,,,,,,,,,,,,,,,,,,,,,,
296260,2022-11-27_21h20.01.261,vts_reward_expectancy_bt,2022.2.4,Win32,59.82650314,Chrome,1536,1024,,,l,0.2866,1,213,1,0,5,5,5,1,0,1,0,0,0,0,0,1,circle,star,,,,,,,,,,,,,,,,,,,,,,,,,,,,,,,,,,,,,,,,,,,,,,,,,,,,,,
296260,2022-11-27_21h20.01.261,vts_reward_expectancy_bt,2022.2.4,Win32,59.82650314,Chrome,1536,1024,,,a,8.2485,10,223,1,0,6,6,6,1,0,0,1,0,1,0,0,0,hexagon,triangle,,,,,,,,,,,,,,,,,,,,,,,,,,,,,,,,,,,,,,,,,,,,,,,,,,,,,,
296260,2022-11-27_21h20.01.261,vts_reward_expectancy_bt,2022.2.4,Win32,59.82650314,Chrome,1536,1024,,,a,0.3013,10,233,1,0,7,7,7,1,0,0,1,0,0,1,0,0,hexagon,circle,,,,,,,,,,,,,,,,,,,,,,,,,,,,,,,,,,,,,,,,,,,,,,,,,,,,,,
296260,2022-11-27_21h20.01.261,vts_reward_expectancy_bt,2022.2.4,Win32,59.82650314,Chrome,1536,1024,,,a,0.4925,1,234,1,0,8,8,1,1,1,0,0,0,0,0,1,0,triangle,hexagon,,,,,,,,,,,,,,,,,,,,,,,,,,,,,,,,,,,,,,,,,,,,,,,,,,,,,,
296260,2022-11-27_21h20.01.261,vts_reward_expectancy_bt,2022.2.4,Win32,59.82650314,Chrome,1536,1024,,,l,0.3015,1,235,1,0,9,9,9,1,0,0,0,1,1,0,0,0,star,triangle,,,,,,,,,,,,,,,,,,,,,,,,,,,,,,,,,,,,,,,,,,,,,,,,,,,,,,
296260,2022-11-27_21h20.01.261,vts_reward_expectancy_bt,2022.2.4,Win32,59.82650314,Chrome,1536,1024,,,l,0.2261,10,245,1,0,10,10,4,1,0,1,0,0,0,0,1,0,circle,hexagon,,,,,,,,,,,,,,,,,,,,,,,,,,,,,,,,,,,,,,,,,,,,,,,,,,,,,,
296260,2022-11-27_21h20.01.261,vts_reward_expectancy_bt,2022.2.4,Win32,59.82650314,Chrome,1536,1024,,,a,0.7999,10,255,1,0,11,11,10,1,0,0,0,1,0,1,0,0,star ,circle,,,,,,,,,,,,,,,,,,,,,,,,,,,,,,,,,,,,,,,,,,,,,,,,,,,,,,
296260,2022-11-27_21h20.01.261,vts_reward_expectancy_bt,2022.2.4,Win32,59.82650314,Chrome,1536,1024,,,l,0.402,10,265,1,1,0,12,10,1,0,0,0,1,0,1,0,0,star ,circle,,,,,,,,,,,,,,,,,,,,,,,,,,,,,,,,,,,,,,,,,,,,,,,,,,,,,,
296260,2022-11-27_21h20.01.261,vts_reward_expectancy_bt,2022.2.4,Win32,59.82650314,Chrome,1536,1024,,,l,0.7266,1,266,1,1,1,13,9,1,0,0,0,1,1,0,0,0,star,triangle,,,,,,,,,,,,,,,,,,,,,,,,,,,,,,,,,,,,,,,,,,,,,,,,,,,,,,
296260,2022-11-27_21h20.01.261,vts_reward_expectancy_bt,2022.2.4,Win32,59.82650314,Chrome,1536,1024,,,l,0.2676,10,276,1,1,2,14,6,1,0,0,1,0,1,0,0,0,hexagon,triangle,,,,,,,,,,,,,,,,,,,,,,,,,,,,,,,,,,,,,,,,,,,,,,,,,,,,,,
296260,2022-11-27_21h20.01.261,vts_reward_expectancy_bt,2022.2.4,Win32,59.82650314,Chrome,1536,1024,,,a,0.3369,10,286,1,1,3,15,1,1,1,0,0,0,0,0,1,0,triangle,hexagon,,,,,,,,,,,,,,,,,,,,,,,,,,,,,,,,,,,,,,,,,,,,,,,,,,,,,,
296260,2022-11-27_21h20.01.261,vts_reward_expectancy_bt,2022.2.4,Win32,59.82650314,Chrome,1536,1024,,,l,0.29,1,287,1,1,4,16,5,1,0,1,0,0,0,0,0,1,circle,star,,,,,,,,,,,,,,,,,,,,,,,,,,,,,,,,,,,,,,,,,,,,,,,,,,,,,,
296260,2022-11-27_21h20.01.261,vts_reward_expectancy_bt,2022.2.4,Win32,59.82650314,Chrome,1536,1024,,,l,0.22,1,288,1,1,5,17,11,1,0,0,0,1,0,0,1,0,star,hexagon,,,,,,,,,,,,,,,,,,,,,,,,,,,,,,,,,,,,,,,,,,,,,,,,,,,,,,
296260,2022-11-27_21h20.01.261,vts_reward_expectancy_bt,2022.2.4,Win32,59.82650314,Chrome,1536,1024,,,l,0.5111,1,289,1,1,6,18,3,1,0,1,0,0,1,0,0,0,circle,triangle,,,,,,,,,,,,,,,,,,,,,,,,,,,,,,,,,,,,,,,,,,,,,,,,,,,,,,
296260,2022-11-27_21h20.01.261,vts_reward_expectancy_bt,2022.2.4,Win32,59.82650314,Chrome,1536,1024,,,l,0.3654,1,290,1,1,7,19,4,1,0,1,0,0,0,0,1,0,circle,hexagon,,,,,,,,,,,,,,,,,,,,,,,,,,,,,,,,,,,,,,,,,,,,,,,,,,,,,,
296260,2022-11-27_21h20.01.261,vts_reward_expectancy_bt,2022.2.4,Win32,59.82650314,Chrome,1536,1024,,,l,0.3362,1,291,1,1,8,20,2,1,1,0,0,0,0,0,0,1,triangle,star,,,,,,,,,,,,,,,,,,,,,,,,,,,,,,,,,,,,,,,,,,,,,,,,,,,,,,
296260,2022-11-27_21h20.01.261,vts_reward_expectancy_bt,2022.2.4,Win32,59.82650314,Chrome,1536,1024,,,l,0.2758,10,301,1,1,9,21,8,1,0,0,1,0,0,0,0,1,hexagon,star,,,,,,,,,,,,,,,,,,,,,,,,,,,,,,,,,,,,,,,,,,,,,,,,,,,,,,
296260,2022-11-27_21h20.01.261,vts_reward_expectancy_bt,2022.2.4,Win32,59.82650314,Chrome,1536,1024,,,l,0.2242,1,302,1,1,10,22,7,1,0,0,1,0,0,1,0,0,hexagon,circle,,,,,,,,,,,,,,,,,,,,,,,,,,,,,,,,,,,,,,,,,,,,,,,,,,,,,,
296260,2022-11-27_21h20.01.261,vts_reward_expectancy_bt,2022.2.4,Win32,59.82650314,Chrome,1536,1024,,,a,0.5198,10,312,1,1,11,23,0,1,1,0,0,0,0,1,0,0,triangle,circle,,,,,,,,,,,,,,,,,,,,,,,,,,,,,,,,,,,,,,,,,,,,,,,,,,,,,,
296260,2022-11-27_21h20.01.261,vts_reward_expectancy_bt,2022.2.4,Win32,59.82650314,Chrome,1536,1024,,,a,0.3204,1,313,1,2,0,24,9,1,0,0,0,1,1,0,0,0,star,triangle,,,,,,,,,,,,,,,,,,,,,,,,,,,,,,,,,,,,,,,,,,,,,,,,,,,,,,
296260,2022-11-27_21h20.01.261,vts_reward_expectancy_bt,2022.2.4,Win32,59.82650314,Chrome,1536,1024,,,a,0.5853,1,314,1,2,1,25,1,1,1,0,0,0,0,0,1,0,triangle,hexagon,,,,,,,,,,,,,,,,,,,,,,,,,,,,,,,,,,,,,,,,,,,,,,,,,,,,,,
296260,2022-11-27_21h20.01.261,vts_reward_expectancy_bt,2022.2.4,Win32,59.82650314,Chrome,1536,1024,,,l,0.3074,10,324,1,2,2,26,7,1,0,0,1,0,0,1,0,0,hexagon,circle,,,,,,,,,,,,,,,,,,,,,,,,,,,,,,,,,,,,,,,,,,,,,,,,,,,,,,
296260,2022-11-27_21h20.01.261,vts_reward_expectancy_bt,2022.2.4,Win32,59.82650314,Chrome,1536,1024,,,a,0.2225,1,325,1,2,3,27,2,1,1,0,0,0,0,0,0,1,triangle,star,,,,,,,,,,,,,,,,,,,,,,,,,,,,,,,,,,,,,,,,,,,,,,,,,,,,,,
296260,2022-11-27_21h20.01.261,vts_reward_expectancy_bt,2022.2.4,Win32,59.82650314,Chrome,1536,1024,,,l,0.2938,10,335,1,2,4,28,3,1,0,1,0,0,1,0,0,0,circle,triangle,,,,,,,,,,,,,,,,,,,,,,,,,,,,,,,,,,,,,,,,,,,,,,,,,,,,,,
296260,2022-11-27_21h20.01.261,vts_reward_expectancy_bt,2022.2.4,Win32,59.82650314,Chrome,1536,1024,,,l,0.3024,10,345,1,2,5,29,10,1,0,0,0,1,0,1,0,0,star ,circle,,,,,,,,,,,,,,,,,,,,,,,,,,,,,,,,,,,,,,,,,,,,,,,,,,,,,,
296260,2022-11-27_21h20.01.261,vts_reward_expectancy_bt,2022.2.4,Win32,59.82650314,Chrome,1536,1024,,,a,0.3065,10,355,1,2,6,30,6,1,0,0,1,0,1,0,0,0,hexagon,triangle,,,,,,,,,,,,,,,,,,,,,,,,,,,,,,,,,,,,,,,,,,,,,,,,,,,,,,
296260,2022-11-27_21h20.01.261,vts_reward_expectancy_bt,2022.2.4,Win32,59.82650314,Chrome,1536,1024,,,l,0.3183,1,356,1,2,7,31,0,1,1,0,0,0,0,1,0,0,triangle,circle,,,,,,,,,,,,,,,,,,,,,,,,,,,,,,,,,,,,,,,,,,,,,,,,,,,,,,
296260,2022-11-27_21h20.01.261,vts_reward_expectancy_bt,2022.2.4,Win32,59.82650314,Chrome,1536,1024,,,l,0.2335,10,366,1,2,8,32,11,1,0,0,0,1,0,0,1,0,star,hexagon,,,,,,,,,,,,,,,,,,,,,,,,,,,,,,,,,,,,,,,,,,,,,,,,,,,,,,
296260,2022-11-27_21h20.01.261,vts_reward_expectancy_bt,2022.2.4,Win32,59.82650314,Chrome,1536,1024,,,l,0.5339,10,376,1,2,9,33,4,1,0,1,0,0,0,0,1,0,circle,hexagon,,,,,,,,,,,,,,,,,,,,,,,,,,,,,,,,,,,,,,,,,,,,,,,,,,,,,,
296260,2022-11-27_21h20.01.261,vts_reward_expectancy_bt,2022.2.4,Win32,59.82650314,Chrome,1536,1024,,,l,0.2552,1,377,1,2,10,34,5,1,0,1,0,0,0,0,0,1,circle,star,,,,,,,,,,,,,,,,,,,,,,,,,,,,,,,,,,,,,,,,,,,,,,,,,,,,,,
296260,2022-11-27_21h20.01.261,vts_reward_expectancy_bt,2022.2.4,Win32,59.82650314,Chrome,1536,1024,,,a,0.2511,1,378,1,2,11,35,8,1,0,0,1,0,0,0,0,1,hexagon,star,,,,,,,,,,,,,,,,,,,,,,,,,,,,,,,,,,,,,,,,,,,,,,,,,,,,,,
296260,2022-11-27_21h20.01.261,vts_reward_expectancy_bt,2022.2.4,Win32,59.82650314,Chrome,1536,1024,,,a,0.6989,1,379,2,0,0,0,8,1,0,0,1,0,0,0,0,1,hexagon,star,,,,,,,,,,,,,,,,,,,,,,,,,,,,,,,,,,,,,,,,,,,,,,,,,,,,,,
296260,2022-11-27_21h20.01.261,vts_reward_expectancy_bt,2022.2.4,Win32,59.82650314,Chrome,1536,1024,,,l,0.3009,1,380,2,0,1,1,4,1,0,1,0,0,0,0,1,0,circle,hexagon,,,,,,,,,,,,,,,,,,,,,,,,,,,,,,,,,,,,,,,,,,,,,,,,,,,,,,
296260,2022-11-27_21h20.01.261,vts_reward_expectancy_bt,2022.2.4,Win32,59.82650314,Chrome,1536,1024,,,l,0.2198,10,390,2,0,2,2,2,1,1,0,0,0,0,0,0,1,triangle,star,,,,,,,,,,,,,,,,,,,,,,,,,,,,,,,,,,,,,,,,,,,,,,,,,,,,,,
296260,2022-11-27_21h20.01.261,vts_reward_expectancy_bt,2022.2.4,Win32,59.82650314,Chrome,1536,1024,,,a,0.8179,10,400,2,0,3,3,0,1,1,0,0,0,0,1,0,0,triangle,circle,,,,,,,,,,,,,,,,,,,,,,,,,,,,,,,,,,,,,,,,,,,,,,,,,,,,,,
296260,2022-11-27_21h20.01.261,vts_reward_expectancy_bt,2022.2.4,Win32,59.82650314,Chrome,1536,1024,,,l,1.2082,1,401,2,0,4,4,7,1,0,0,1,0,0,1,0,0,hexagon,circle,,,,,,,,,,,,,,,,,,,,,,,,,,,,,,,,,,,,,,,,,,,,,,,,,,,,,,
296260,2022-11-27_21h20.01.261,vts_reward_expectancy_bt,2022.2.4,Win32,59.82650314,Chrome,1536,1024,,,a,0.3021,1,402,2,0,5,5,6,1,0,0,1,0,1,0,0,0,hexagon,triangle,,,,,,,,,,,,,,,,,,,,,,,,,,,,,,,,,,,,,,,,,,,,,,,,,,,,,,
296260,2022-11-27_21h20.01.261,vts_reward_expectancy_bt,2022.2.4,Win32,59.82650314,Chrome,1536,1024,,,a,0.4675,10,412,2,0,6,6,1,1,1,0,0,0,0,0,1,0,triangle,hexagon,,,,,,,,,,,,,,,,,,,,,,,,,,,,,,,,,,,,,,,,,,,,,,,,,,,,,,
296260,2022-11-27_21h20.01.261,vts_reward_expectancy_bt,2022.2.4,Win32,59.82650314,Chrome,1536,1024,,,l,0.2854,10,422,2,0,7,7,3,1,0,1,0,0,1,0,0,0,circle,triangle,,,,,,,,,,,,,,,,,,,,,,,,,,,,,,,,,,,,,,,,,,,,,,,,,,,,,,
296260,2022-11-27_21h20.01.261,vts_reward_expectancy_bt,2022.2.4,Win32,59.82650314,Chrome,1536,1024,,,a,0.3676,1,423,2,0,8,8,5,1,0,1,0,0,0,0,0,1,circle,star,,,,,,,,,,,,,,,,,,,,,,,,,,,,,,,,,,,,,,,,,,,,,,,,,,,,,,
296260,2022-11-27_21h20.01.261,vts_reward_expectancy_bt,2022.2.4,Win32,59.82650314,Chrome,1536,1024,,,l,0.3858,1,424,2,0,9,9,11,1,0,0,0,1,0,0,1,0,star,hexagon,,,,,,,,,,,,,,,,,,,,,,,,,,,,,,,,,,,,,,,,,,,,,,,,,,,,,,
296260,2022-11-27_21h20.01.261,vts_reward_expectancy_bt,2022.2.4,Win32,59.82650314,Chrome,1536,1024,,,a,0.3,1,425,2,0,10,10,9,1,0,0,0,1,1,0,0,0,star,triangle,,,,,,,,,,,,,,,,,,,,,,,,,,,,,,,,,,,,,,,,,,,,,,,,,,,,,,
296260,2022-11-27_21h20.01.261,vts_reward_expectancy_bt,2022.2.4,Win32,59.82650314,Chrome,1536,1024,,,l,0.2696,1,426,2,0,11,11,10,1,0,0,0,1,0,1,0,0,star ,circle,,,,,,,,,,,,,,,,,,,,,,,,,,,,,,,,,,,,,,,,,,,,,,,,,,,,,,
296260,2022-11-27_21h20.01.261,vts_reward_expectancy_bt,2022.2.4,Win32,59.82650314,Chrome,1536,1024,,,a,0.3176,1,427,2,1,0,12,1,1,1,0,0,0,0,0,1,0,triangle,hexagon,,,,,,,,,,,,,,,,,,,,,,,,,,,,,,,,,,,,,,,,,,,,,,,,,,,,,,
296260,2022-11-27_21h20.01.261,vts_reward_expectancy_bt,2022.2.4,Win32,59.82650314,Chrome,1536,1024,,,a,0.5682,10,437,2,1,1,13,11,1,0,0,0,1,0,0,1,0,star,hexagon,,,,,,,,,,,,,,,,,,,,,,,,,,,,,,,,,,,,,,,,,,,,,,,,,,,,,,
296260,2022-11-27_21h20.01.261,vts_reward_expectancy_bt,2022.2.4,Win32,59.82650314,Chrome,1536,1024,,,l,0.4508,10,447,2,1,2,14,10,1,0,0,0,1,0,1,0,0,star ,circle,,,,,,,,,,,,,,,,,,,,,,,,,,,,,,,,,,,,,,,,,,,,,,,,,,,,,,
296260,2022-11-27_21h20.01.261,vts_reward_expectancy_bt,2022.2.4,Win32,59.82650314,Chrome,1536,1024,,,a,0.4694,10,457,2,1,3,15,2,1,1,0,0,0,0,0,0,1,triangle,star,,,,,,,,,,,,,,,,,,,,,,,,,,,,,,,,,,,,,,,,,,,,,,,,,,,,,,
296260,2022-11-27_21h20.01.261,vts_reward_expectancy_bt,2022.2.4,Win32,59.82650314,Chrome,1536,1024,,,l,21.8049,10,467,2,1,4,16,3,1,0,1,0,0,1,0,0,0,circle,triangle,,,,,,,,,,,,,,,,,,,,,,,,,,,,,,,,,,,,,,,,,,,,,,,,,,,,,,
296260,2022-11-27_21h20.01.261,vts_reward_expectancy_bt,2022.2.4,Win32,59.82650314,Chrome,1536,1024,,,a,0.292,10,477,2,1,5,17,4,1,0,1,0,0,0,0,1,0,circle,hexagon,,,,,,,,,,,,,,,,,,,,,,,,,,,,,,,,,,,,,,,,,,,,,,,,,,,,,,
296260,2022-11-27_21h20.01.261,vts_reward_expectancy_bt,2022.2.4,Win32,59.82650314,Chrome,1536,1024,,,l,0.3685,1,478,2,1,6,18,9,1,0,0,0,1,1,0,0,0,star,triangle,,,,,,,,,,,,,,,,,,,,,,,,,,,,,,,,,,,,,,,,,,,,,,,,,,,,,,
296260,2022-11-27_21h20.01.261,vts_reward_expectancy_bt,2022.2.4,Win32,59.82650314,Chrome,1536,1024,,,a,0.4011,1,479,2,1,7,19,8,1,0,0,1,0,0,0,0,1,hexagon,star,,,,,,,,,,,,,,,,,,,,,,,,,,,,,,,,,,,,,,,,,,,,,,,,,,,,,,
296260,2022-11-27_21h20.01.261,vts_reward_expectancy_bt,2022.2.4,Win32,59.82650314,Chrome,1536,1024,,,a,0.8239,10,489,2,1,8,20,5,1,0,1,0,0,0,0,0,1,circle,star,,,,,,,,,,,,,,,,,,,,,,,,,,,,,,,,,,,,,,,,,,,,,,,,,,,,,,
296260,2022-11-27_21h20.01.261,vts_reward_expectancy_bt,2022.2.4,Win32,59.82650314,Chrome,1536,1024,,,l,0.2921,10,499,2,1,9,21,0,1,1,0,0,0,0,1,0,0,triangle,circle,,,,,,,,,,,,,,,,,,,,,,,,,,,,,,,,,,,,,,,,,,,,,,,,,,,,,,
296260,2022-11-27_21h20.01.261,vts_reward_expectancy_bt,2022.2.4,Win32,59.82650314,Chrome,1536,1024,,,a,0.3108,1,500,2,1,10,22,6,1,0,0,1,0,1,0,0,0,hexagon,triangle,,,,,,,,,,,,,,,,,,,,,,,,,,,,,,,,,,,,,,,,,,,,,,,,,,,,,,
296260,2022-11-27_21h20.01.261,vts_reward_expectancy_bt,2022.2.4,Win32,59.82650314,Chrome,1536,1024,,,l,0.3388,10,510,2,1,11,23,7,1,0,0,1,0,0,1,0,0,hexagon,circle,,,,,,,,,,,,,,,,,,,,,,,,,,,,,,,,,,,,,,,,,,,,,,,,,,,,,,
296260,2022-11-27_21h20.01.261,vts_reward_expectancy_bt,2022.2.4,Win32,59.82650314,Chrome,1536,1024,,,a,0.2847,10,520,2,2,0,24,4,1,0,1,0,0,0,0,1,0,circle,hexagon,,,,,,,,,,,,,,,,,,,,,,,,,,,,,,,,,,,,,,,,,,,,,,,,,,,,,,
296260,2022-11-27_21h20.01.261,vts_reward_expectancy_bt,2022.2.4,Win32,59.82650314,Chrome,1536,1024,,,l,0.1501,1,521,2,2,1,25,5,1,0,1,0,0,0,0,0,1,circle,star,,,,,,,,,,,,,,,,,,,,,,,,,,,,,,,,,,,,,,,,,,,,,,,,,,,,,,
296260,2022-11-27_21h20.01.261,vts_reward_expectancy_bt,2022.2.4,Win32,59.82650314,Chrome,1536,1024,,,a,0.3519,1,522,2,2,2,26,8,1,0,0,1,0,0,0,0,1,hexagon,star,,,,,,,,,,,,,,,,,,,,,,,,,,,,,,,,,,,,,,,,,,,,,,,,,,,,,,
296260,2022-11-27_21h20.01.261,vts_reward_expectancy_bt,2022.2.4,Win32,59.82650314,Chrome,1536,1024,,,l,0.2976,10,532,2,2,3,27,2,1,1,0,0,0,0,0,0,1,triangle,star,,,,,,,,,,,,,,,,,,,,,,,,,,,,,,,,,,,,,,,,,,,,,,,,,,,,,,
296260,2022-11-27_21h20.01.261,vts_reward_expectancy_bt,2022.2.4,Win32,59.82650314,Chrome,1536,1024,,,a,0.3185,1,533,2,2,4,28,0,1,1,0,0,0,0,1,0,0,triangle,circle,,,,,,,,,,,,,,,,,,,,,,,,,,,,,,,,,,,,,,,,,,,,,,,,,,,,,,
296260,2022-11-27_21h20.01.261,vts_reward_expectancy_bt,2022.2.4,Win32,59.82650314,Chrome,1536,1024,,,l,0.383,10,543,2,2,5,29,7,1,0,0,1,0,0,1,0,0,hexagon,circle,,,,,,,,,,,,,,,,,,,,,,,,,,,,,,,,,,,,,,,,,,,,,,,,,,,,,,
296260,2022-11-27_21h20.01.261,vts_reward_expectancy_bt,2022.2.4,Win32,59.82650314,Chrome,1536,1024,,,a,0.3426,10,553,2,2,6,30,3,1,0,1,0,0,1,0,0,0,circle,triangle,,,,,,,,,,,,,,,,,,,,,,,,,,,,,,,,,,,,,,,,,,,,,,,,,,,,,,
296260,2022-11-27_21h20.01.261,vts_reward_expectancy_bt,2022.2.4,Win32,59.82650314,Chrome,1536,1024,,,l,0.387,1,554,2,2,7,31,11,1,0,0,0,1,0,0,1,0,star,hexagon,,,,,,,,,,,,,,,,,,,,,,,,,,,,,,,,,,,,,,,,,,,,,,,,,,,,,,
296260,2022-11-27_21h20.01.261,vts_reward_expectancy_bt,2022.2.4,Win32,59.82650314,Chrome,1536,1024,,,a,0.4514,1,555,2,2,8,32,9,1,0,0,0,1,1,0,0,0,star,triangle,,,,,,,,,,,,,,,,,,,,,,,,,,,,,,,,,,,,,,,,,,,,,,,,,,,,,,
296260,2022-11-27_21h20.01.261,vts_reward_expectancy_bt,2022.2.4,Win32,59.82650314,Chrome,1536,1024,,,l,0.9926,1,556,2,2,9,33,10,1,0,0,0,1,0,1,0,0,star ,circle,,,,,,,,,,,,,,,,,,,,,,,,,,,,,,,,,,,,,,,,,,,,,,,,,,,,,,
296260,2022-11-27_21h20.01.261,vts_reward_expectancy_bt,2022.2.4,Win32,59.82650314,Chrome,1536,1024,,,a,0.3507,10,566,2,2,10,34,1,1,1,0,0,0,0,0,1,0,triangle,hexagon,,,,,,,,,,,,,,,,,,,,,,,,,,,,,,,,,,,,,,,,,,,,,,,,,,,,,,
296260,2022-11-27_21h20.01.261,vts_reward_expectancy_bt,2022.2.4,Win32,59.82650314,Chrome,1536,1024,,,l,1.2927,1,567,2,2,11,35,6,1,0,0,1,0,1,0,0,0,hexagon,triangle,,,,,,,,,,,,,,,,,,,,,,,,,,,,,,,,,,,,,,,,,,,,,,,,,,,,,,
296260,2022-11-27_21h20.01.261,vts_reward_expectancy_bt,2022.2.4,Win32,59.82650314,Chrome,1536,1024,,,,,,,,,,,,,,,,,,,,,,,Y,160,triangle,1,0,f,2.0552,0,0,0,0,0,1,,,,,,,,,,,,,,,,,,,,,,,,,,,,,,,,,,,,,,,,,
296260,2022-11-27_21h20.01.261,vts_reward_expectancy_bt,2022.2.4,Win32,59.82650314,Chrome,1536,1024,,,,,,,,,,,,,,,,,,,,,,,D,146,circle,1,0,d,0.701,0,1,0,1,0,1,,,,,,,,,,,,,,,,,,,,,,,,,,,,,,,,,,,,,,,,,
296260,2022-11-27_21h20.01.261,vts_reward_expectancy_bt,2022.2.4,Win32,59.82650314,Chrome,1536,1024,,,,,,,,,,,,,,,,,,,,,,,H,181,star,1,0,d,0.8679,0,2,0,2,0,1,,,,,,,,,,,,,,,,,,,,,,,,,,,,,,,,,,,,,,,,,
296260,2022-11-27_21h20.01.261,vts_reward_expectancy_bt,2022.2.4,Win32,59.82650314,Chrome,1536,1024,,,,,,,,,,,,,,,,,,,,,,,F,125,hexagon,1,0,d,1.1506,0,3,0,3,0,1,,,,,,,,,,,,,,,,,,,,,,,,,,,,,,,,,,,,,,,,,
296260,2022-11-27_21h20.01.261,vts_reward_expectancy_bt,2022.2.4,Win32,59.82650314,Chrome,1536,1024,,,,,,,,,,,,,,,,,,,,,,,S,174,triangle,1,0,f,0.6741,0,4,0,4,0,1,,,,,,,,,,,,,,,,,,,,,,,,,,,,,,,,,,,,,,,,,
296260,2022-11-27_21h20.01.261,vts_reward_expectancy_bt,2022.2.4,Win32,59.82650314,Chrome,1536,1024,,,,,,,,,,,,,,,,,,,,,,,U,167,circle,1,0,f,0.641,0,5,0,5,0,1,,,,,,,,,,,,,,,,,,,,,,,,,,,,,,,,,,,,,,,,,
296260,2022-11-27_21h20.01.261,vts_reward_expectancy_bt,2022.2.4,Win32,59.82650314,Chrome,1536,1024,,,,,,,,,,,,,,,,,,,,,,,W,139,star,1,0,f,0.6011,0,6,0,6,0,1,,,,,,,,,,,,,,,,,,,,,,,,,,,,,,,,,,,,,,,,,
296260,2022-11-27_21h20.01.261,vts_reward_expectancy_bt,2022.2.4,Win32,59.82650314,Chrome,1536,1024,,,,,,,,,,,,,,,,,,,,,,,B,132,hexagon,1,0,d,0.5021,0,7,0,7,0,1,,,,,,,,,,,,,,,,,,,,,,,,,,,,,,,,,,,,,,,,,
296260,2022-11-27_21h20.01.261,vts_reward_expectancy_bt,2022.2.4,Win32,59.82650314,Chrome,1536,1024,,,,,,,,,,,,,,,,,,,,,,,Y,160,hexagon,1,0,f,0.5848,0,8,0,8,0,1,,,,,,,,,,,,,,,,,,,,,,,,,,,,,,,,,,,,,,,,,
296260,2022-11-27_21h20.01.261,vts_reward_expectancy_bt,2022.2.4,Win32,59.82650314,Chrome,1536,1024,,,,,,,,,,,,,,,,,,,,,,,D,146,triangle,1,0,d,0.6846,0,9,0,9,0,1,,,,,,,,,,,,,,,,,,,,,,,,,,,,,,,,,,,,,,,,,
296260,2022-11-27_21h20.01.261,vts_reward_expectancy_bt,2022.2.4,Win32,59.82650314,Chrome,1536,1024,,,,,,,,,,,,,,,,,,,,,,,W,167,star,1,0,,,1,,,,,,k,0.9013,0,0,0,0,1,,,,,,,,,,,,,,,,,,,,,,,,,,,,,,,,,,
296260,2022-11-27_21h20.01.261,vts_reward_expectancy_bt,2022.2.4,Win32,59.82650314,Chrome,1536,1024,,,,,,,,,,,,,,,,,,,,,,,F,160,hexagon,1,0,,,1,,,,,,k,0.8262,1,0,1,0,1,,,,,,,,,,,,,,,,,,,,,,,,,,,,,,,,,,
296260,2022-11-27_21h20.01.261,vts_reward_expectancy_bt,2022.2.4,Win32,59.82650314,Chrome,1536,1024,,,,,,,,,,,,,,,,,,,,,,,H,174,circle,1,0,,,1,,,,,,k,0.8321,2,0,2,0,1,,,,,,,,,,,,,,,,,,,,,,,,,,,,,,,,,,
296260,2022-11-27_21h20.01.261,vts_reward_expectancy_bt,2022.2.4,Win32,59.82650314,Chrome,1536,1024,,,,,,,,,,,,,,,,,,,,,,,S,146,triangle,1,0,,,1,,,,,,j,0.7445,3,0,3,0,1,,,,,,,,,,,,,,,,,,,,,,,,,,,,,,,,,,
296260,2022-11-27_21h20.01.261,vts_reward_expectancy_bt,2022.2.4,Win32,59.82650314,Chrome,1536,1024,,,,,,,,,,,,,,,,,,,,,,,D,181,star,1,0,,,1,,,,,,k,0.6849,4,0,4,0,1,,,,,,,,,,,,,,,,,,,,,,,,,,,,,,,,,,
296260,2022-11-27_21h20.01.261,vts_reward_expectancy_bt,2022.2.4,Win32,59.82650314,Chrome,1536,1024,,,,,,,,,,,,,,,,,,,,,,,Y,125,hexagon,1,0,,,1,,,,,,j,0.6119,5,0,5,0,1,,,,,,,,,,,,,,,,,,,,,,,,,,,,,,,,,,
296260,2022-11-27_21h20.01.261,vts_reward_expectancy_bt,2022.2.4,Win32,59.82650314,Chrome,1536,1024,,,,,,,,,,,,,,,,,,,,,,,U,139,circle,1,0,,,1,,,,,,j,0.5654,6,0,6,0,1,,,,,,,,,,,,,,,,,,,,,,,,,,,,,,,,,,
296260,2022-11-27_21h20.01.261,vts_reward_expectancy_bt,2022.2.4,Win32,59.82650314,Chrome,1536,1024,,,,,,,,,,,,,,,,,,,,,,,B,132,triangle,1,0,,,1,,,,,,j,0.5753,7,0,7,0,1,,,,,,,,,,,,,,,,,,,,,,,,,,,,,,,,,,
296260,2022-11-27_21h20.01.261,vts_reward_expectancy_bt,2022.2.4,Win32,59.82650314,Chrome,1536,1024,,,,,,,,,,,,,,,,,,,,,,,W,167,triangle,1,0,,,1,,,,,,k,0.5005,8,0,8,0,1,,,,,,,,,,,,,,,,,,,,,,,,,,,,,,,,,,
296260,2022-11-27_21h20.01.261,vts_reward_expectancy_bt,2022.2.4,Win32,59.82650314,Chrome,1536,1024,,,,,,,,,,,,,,,,,,,,,,,F,160,star,1,0,,,1,,,,,,k,0.6182,9,0,9,0,1,,,,,,,,,,,,,,,,,,,,,,,,,,,,,,,,,,
296260,2022-11-27_21h20.01.261,vts_reward_expectancy_bt,2022.2.4,Win32,59.82650314,Chrome,1536,1024,,,,,0,567,,,,,,,,,,,,,,,,,F,132,circle,1,0,,,2,,,,,,,,,,,,,-1,letter,NA,d,1.9158,vtsPrac,0,0,0,0,1,,,,,,,,,,,,,,,,,,,,,,,
296260,2022-11-27_21h20.01.261,vts_reward_expectancy_bt,2022.2.4,Win32,59.82650314,Chrome,1536,1024,,,,,0,567,,,,,,,,,,,,,,,,,U,139,triangle,1,0,,,2,,,,,,,,,,,,,repeat,letter,lettRpt,f,0.6573,vtsPrac,1,0,1,0,1,,,,,,,,,,,,,,,,,,,,,,,
296260,2022-11-27_21h20.01.261,vts_reward_expectancy_bt,2022.2.4,Win32,59.82650314,Chrome,1536,1024,,,,,0,567,,,,,,,,,,,,,,,,,H,181,circle,1,0,,,2,,,,,,,,,,,,,switch,number,numSwt,k,0.7079,vtsPrac,2,0,2,0,1,,,,,,,,,,,,,,,,,,,,,,,
296260,2022-11-27_21h20.01.261,vts_reward_expectancy_bt,2022.2.4,Win32,59.82650314,Chrome,1536,1024,,,,,0,567,,,,,,,,,,,,,,,,,B,146,triangle,1,0,,,2,,,,,,,,,,,,,switch,letter,lettSwt,d,0.828,vtsPrac,3,0,3,0,1,,,,,,,,,,,,,,,,,,,,,,,
296260,2022-11-27_21h20.01.261,vts_reward_expectancy_bt,2022.2.4,Win32,59.82650314,Chrome,1536,1024,,,,,0,567,,,,,,,,,,,,,,,,,F,132,triangle,1,0,,,2,,,,,,,,,,,,,switch,number,numSwt,j,1.9767,vtsPrac,4,0,4,0,1,,,,,,,,,,,,,,,,,,,,,,,
296260,2022-11-27_21h20.01.261,vts_reward_expectancy_bt,2022.2.4,Win32,59.82650314,Chrome,1536,1024,,,,,0,567,,,,,,,,,,,,,,,,,U,139,star,1,0,,,2,,,,,,,,,,,,,repeat,number,numRpt,j,1.2761,vtsPrac,5,0,5,0,1,,,,,,,,,,,,,,,,,,,,,,,
296260,2022-11-27_21h20.01.261,vts_reward_expectancy_bt,2022.2.4,Win32,59.82650314,Chrome,1536,1024,,,,,0,567,,,,,,,,,,,,,,,,,H,181,triangle,1,0,,,2,,,,,,,,,,,,,repeat,number,numRpt,k,1.0512,vtsPrac,6,0,6,0,1,,,,,,,,,,,,,,,,,,,,,,,
296260,2022-11-27_21h20.01.261,vts_reward_expectancy_bt,2022.2.4,Win32,59.82650314,Chrome,1536,1024,,,,,0,567,,,,,,,,,,,,,,,,,B,146,star,1,0,,,2,,,,,,,,,,,,,switch,letter,lettSwt,d,1.0173,vtsPrac,7,0,7,0,1,,,,,,,,,,,,,,,,,,,,,,,
296260,2022-11-27_21h20.01.261,vts_reward_expectancy_bt,2022.2.4,Win32,59.82650314,Chrome,1536,1024,,,,,0,567,,,,,,,,,,,,,,,,,D,174,triangle,1,0,,,2,,,,,,,,,,,,,switch,number,numSwt,k,1.3469,vtsPrac,8,0,8,0,1,,,,,,,,,,,,,,,,,,,,,,,
296260,2022-11-27_21h20.01.261,vts_reward_expectancy_bt,2022.2.4,Win32,59.82650314,Chrome,1536,1024,,,,,0,567,,,,,,,,,,,,,,,,,B,132,hexagon,1,0,,,2,,,,,,,,,,,,,switch,letter,lettSwt,d,0.5307,vtsPrac,9,0,9,0,1,,,,,,,,,,,,,,,,,,,,,,,
296260,2022-11-27_21h20.01.261,vts_reward_expectancy_bt,2022.2.4,Win32,59.82650314,Chrome,1536,1024,,,,,0,567,,,,,,,,,,,,,,,,,F,167,circle,1,0,,,2,,,,,,,,,,,,,repeat,letter,lettRpt,d,0.9835,vtsPrac,10,0,10,0,1,,,,,,,,,,,,,,,,,,,,,,,
296260,2022-11-27_21h20.01.261,vts_reward_expectancy_bt,2022.2.4,Win32,59.82650314,Chrome,1536,1024,,,,,0,567,,,,,,,,,,,,,,,,,Y,181,star,1,0,,,2,,,,,,,,,,,,,repeat,letter,lettRpt,f,0.677,vtsPrac,11,0,11,0,1,,,,,,,,,,,,,,,,,,,,,,,
296260,2022-11-27_21h20.01.261,vts_reward_expectancy_bt,2022.2.4,Win32,59.82650314,Chrome,1536,1024,,,,,0,567,,,,,,,,,,,,,,,,,Y,146,triangle,1,0,,,2,,,,,,,,,,,,,switch,number,numSwt,j,1.1497,vtsPrac,12,0,12,0,1,,,,,,,,,,,,,,,,,,,,,,,
296260,2022-11-27_21h20.01.261,vts_reward_expectancy_bt,2022.2.4,Win32,59.82650314,Chrome,1536,1024,,,,,0,567,,,,,,,,,,,,,,,,,H,167,circle,1,0,,,2,,,,,,,,,,,,,switch,letter,lettSwt,d,1.2693,vtsPrac,13,0,13,0,1,,,,,,,,,,,,,,,,,,,,,,,
296260,2022-11-27_21h20.01.261,vts_reward_expectancy_bt,2022.2.4,Win32,59.82650314,Chrome,1536,1024,,,,,0,567,,,,,,,,,,,,,,,,,S,139,hexagon,1,0,,,2,,,,,,,,,,,,,switch,number,numSwt,j,1.4551,vtsPrac,14,0,14,0,1,,,,,,,,,,,,,,,,,,,,,,,
296260,2022-11-27_21h20.01.261,vts_reward_expectancy_bt,2022.2.4,Win32,59.82650314,Chrome,1536,1024,,,,,0,567,,,,,,,,,,,,,,,,,B,132,star,1,0,,,2,,,,,,,,,,,,,repeat,number,numRpt,j,0.8231,vtsPrac,15,0,15,0,1,,,,,,,,,,,,,,,,,,,,,,,
296260,2022-11-27_21h20.01.261,vts_reward_expectancy_bt,2022.2.4,Win32,59.82650314,Chrome,1536,1024,,,,,0,567,,,,,,,,,,,,,,,,,Y,181,triangle,1,0,,,2,,,,,,,,,,,,,repeat,number,numRpt,k,0.9343,vtsPrac,16,0,16,0,1,,,,,,,,,,,,,,,,,,,,,,,
296260,2022-11-27_21h20.01.261,vts_reward_expectancy_bt,2022.2.4,Win32,59.82650314,Chrome,1536,1024,,,,,0,567,,,,,,,,,,,,,,,,,B,167,star,1,0,,,2,,,,,,,,,,,,,repeat,number,numRpt,k,1.401,vtsPrac,17,0,17,0,1,,,,,,,,,,,,,,,,,,,,,,,
296260,2022-11-27_21h20.01.261,vts_reward_expectancy_bt,2022.2.4,Win32,59.82650314,Chrome,1536,1024,,,,,0,567,,,,,,,,,,,,,,,,,H,125,triangle,1,0,,,2,,,,,,,,,,,,,switch,letter,lettSwt,d,0.973,vtsPrac,18,0,18,0,1,,,,,,,,,,,,,,,,,,,,,,,
296260,2022-11-27_21h20.01.261,vts_reward_expectancy_bt,2022.2.4,Win32,59.82650314,Chrome,1536,1024,,,,,0,567,,,,,,,,,,,,,,,,,F,132,hexagon,1,0,,,2,,,,,,,,,,,,,repeat,letter,lettRpt,d,0.734,vtsPrac,19,0,19,0,1,,,,,,,,,,,,,,,,,,,,,,,
296260,2022-11-27_21h20.01.261,vts_reward_expectancy_bt,2022.2.4,Win32,59.82650314,Chrome,1536,1024,,,,,0,567,,,,,,,,,,,,,,,,,D,132,star,1,0,,,2,,,,,,,,,,,,,repeat,letter,lettRpt,d,0.9511,vtsPrac,20,0,20,0,1,,,,,,,,,,,,,,,,,,,,,,,
296260,2022-11-27_21h20.01.261,vts_reward_expectancy_bt,2022.2.4,Win32,59.82650314,Chrome,1536,1024,,,,,0,567,,,,,,,,,,,,,,,,,F,146,hexagon,1,0,,,2,,,,,,,,,,,,,repeat,letter,lettRpt,d,0.8088,vtsPrac,21,0,21,0,1,,,,,,,,,,,,,,,,,,,,,,,
296260,2022-11-27_21h20.01.261,vts_reward_expectancy_bt,2022.2.4,Win32,59.82650314,Chrome,1536,1024,,,,,0,567,,,,,,,,,,,,,,,,,U,139,circle,1,0,,,2,,,,,,,,,,,,,switch,number,numSwt,j,0.7173,vtsPrac,22,0,22,0,1,,,,,,,,,,,,,,,,,,,,,,,
296260,2022-11-27_21h20.01.261,vts_reward_expectancy_bt,2022.2.4,Win32,59.82650314,Chrome,1536,1024,,,,,0,567,,,,,,,,,,,,,,,,,B,174,star,1,0,,,2,,,,,,,,,,,,,switch,letter,lettSwt,d,0.6009,vtsPrac,23,0,23,0,1,,,,,,,,,,,,,,,,,,,,,,,
296260,2022-11-27_21h20.01.261,vts_reward_expectancy_bt,2022.2.4,Win32,59.82650314,Chrome,1536,1024,,,,,0,567,,,,,,,,,,,,,,,,,W,160,circle,1,0,,,2,,,,,,,,,,,,,switch,number,numSwt,k,1.7512,vtsPrac,24,0,24,0,1,,,,,,,,,,,,,,,,,,,,,,,
296260,2022-11-27_21h20.01.261,vts_reward_expectancy_bt,2022.2.4,Win32,59.82650314,Chrome,1536,1024,,,,,0,567,,,,,,,,,,,,,,,,,F,139,triangle,1,0,,,2,,,,,,,,,,,,,repeat,number,numRpt,j,0.7665,vtsPrac,25,0,25,0,1,,,,,,,,,,,,,,,,,,,,,,,
296260,2022-11-27_21h20.01.261,vts_reward_expectancy_bt,2022.2.4,Win32,59.82650314,Chrome,1536,1024,,,,,0,567,,,,,,,,,,,,,,,,,B,132,circle,1,0,,,2,,,,,,,,,,,,,repeat,number,numRpt,j,0.6175,vtsPrac,26,0,26,0,1,,,,,,,,,,,,,,,,,,,,,,,
296260,2022-11-27_21h20.01.261,vts_reward_expectancy_bt,2022.2.4,Win32,59.82650314,Chrome,1536,1024,,,,,0,567,,,,,,,,,,,,,,,,,U,174,triangle,1,0,,,2,,,,,,,,,,,,,switch,letter,lettSwt,f,0.986,vtsPrac,27,0,27,0,1,,,,,,,,,,,,,,,,,,,,,,,
296260,2022-11-27_21h20.01.261,vts_reward_expectancy_bt,2022.2.4,Win32,59.82650314,Chrome,1536,1024,,,,,0,567,,,,,,,,,,,,,,,,,H,139,circle,1,0,,,2,,,,,,,,,,,,,repeat,letter,lettRpt,d,1.0434,vtsPrac,28,0,28,0,1,,,,,,,,,,,,,,,,,,,,,,,
296260,2022-11-27_21h20.01.261,vts_reward_expectancy_bt,2022.2.4,Win32,59.82650314,Chrome,1536,1024,,,,,0,567,,,,,,,,,,,,,,,,,F,181,star,1,0,,,2,,,,,,,,,,,,,repeat,letter,lettRpt,d,0.7938,vtsPrac,29,0,29,0,1,,,,,,,,,,,,,,,,,,,,,,,
296260,2022-11-27_21h20.01.261,vts_reward_expectancy_bt,2022.2.4,Win32,59.82650314,Chrome,1536,1024,,,,,0,567,,,,,,,,,,,,,,,,,B,160,circle,0,0,,,2,,,,,,,,,,,,,switch,number,NA,j,0.9844,vtsPrac,30,0,30,0,1,,,,,,,,,,,,,,,,,,,,,,,
296260,2022-11-27_21h20.01.261,vts_reward_expectancy_bt,2022.2.4,Win32,59.82650314,Chrome,1536,1024,,,,,0,567,,,,,,,,,,,,,,,,,Y,174,star,1,1,,,2,,,,,,,,,,,,,repeat,number,numRpt,k,1.1854,vtsPrac,31,0,31,0,1,,,,,,,,,,,,,,,,,,,,,,,
296260,2022-11-27_21h20.01.261,vts_reward_expectancy_bt,2022.2.4,Win32,59.82650314,Chrome,1536,1024,,,,,,,,,,,,,,,,,,,,,,,,,,,,,,,,,,,,,,,,,,,,,,,,,,,,,,,,,,,,,,,,,,,,,,,,,,,,
296260,2022-11-27_21h20.01.261,vts_reward_expectancy_bt,2022.2.4,Win32,59.82650314,Chrome,1536,1024,,,,,,,,,,,,,,,,,,,,,,,,,,,,,,,,,,,,,,,,,,,,,,,,,,,,,,,,,,,,,,,,,,,,,,,,,,,,
296260,2022-11-27_21h20.01.261,vts_reward_expectancy_bt,2022.2.4,Win32,59.82650314,Chrome,1536,1024,,,,,0,567,,,,,,,,,,,,,,,,,Y,181,star,1,0,,,,,,,,,,,,,,,,switch,letter,lettSwt,f,1.5338,noRew,,,,,,0,0,0,0,0,1,,,,,,,,,,,,,,,,,
296260,2022-11-27_21h20.01.261,vts_reward_expectancy_bt,2022.2.4,Win32,59.82650314,Chrome,1536,1024,,,,,0,567,,,,,,,,,,,,,,,,,U,174,circle,1,0,,,,,,,,,,,,,,,,repeat,letter,lettRpt,f,0.7965,noRew,,,,,,0,1,0,1,0,1,,,,,,,,,,,,,,,,,
296260,2022-11-27_21h20.01.261,vts_reward_expectancy_bt,2022.2.4,Win32,59.82650314,Chrome,1536,1024,,,,,0,567,,,,,,,,,,,,,,,,,H,167,star,1,0,,,,,,,,,,,,,,,,switch,number,numSwt,k,0.9911,noRew,,,,,,0,2,0,2,0,1,,,,,,,,,,,,,,,,,
296260,2022-11-27_21h20.01.261,vts_reward_expectancy_bt,2022.2.4,Win32,59.82650314,Chrome,1536,1024,,,,,0,567,,,,,,,,,,,,,,,,,W,160,circle,1,0,,,,,,,,,,,,,,,,repeat,number,numRpt,k,0.9075,noRew,,,,,,0,3,0,3,0,1,,,,,,,,,,,,,,,,,
296260,2022-11-27_21h20.01.261,vts_reward_expectancy_bt,2022.2.4,Win32,59.82650314,Chrome,1536,1024,,,,,0,567,,,,,,,,,,,,,,,,,Y,181,hexagon,1,0,,,,,,,,,,,,,,,,repeat,number,numRpt,k,0.8504,noRew,,,,,,0,4,0,4,0,1,,,,,,,,,,,,,,,,,
296260,2022-11-27_21h20.01.261,vts_reward_expectancy_bt,2022.2.4,Win32,59.82650314,Chrome,1536,1024,,,,,0,567,,,,,,,,,,,,,,,,,U,174,star,1,0,,,,,,,,,,,,,,,,repeat,number,numRpt,k,0.5448,noRew,,,,,,0,5,0,5,0,1,,,,,,,,,,,,,,,,,
296260,2022-11-27_21h20.01.261,vts_reward_expectancy_bt,2022.2.4,Win32,59.82650314,Chrome,1536,1024,,,,,0,567,,,,,,,,,,,,,,,,,H,167,hexagon,1,0,,,,,,,,,,,,,,,,switch,letter,lettSwt,d,1.0021,noRew,,,,,,0,6,0,6,0,1,,,,,,,,,,,,,,,,,
296260,2022-11-27_21h20.01.261,vts_reward_expectancy_bt,2022.2.4,Win32,59.82650314,Chrome,1536,1024,,,,,0,567,,,,,,,,,,,,,,,,,W,160,star,1,0,,,,,,,,,,,,,,,,repeat,letter,lettRpt,f,0.952,noRew,,,,,,0,7,0,7,0,1,,,,,,,,,,,,,,,,,
296260,2022-11-27_21h20.01.261,vts_reward_expectancy_bt,2022.2.4,Win32,59.82650314,Chrome,1536,1024,,,,,0,567,,,,,,,,,,,,,,,,,Y,160,star,1,0,,,,,,,,,,,,,,,,repeat,letter,lettRpt,f,0.7358,noRew,,,,,,0,8,0,8,0,1,,,,,,,,,,,,,,,,,
296260,2022-11-27_21h20.01.261,vts_reward_expectancy_bt,2022.2.4,Win32,59.82650314,Chrome,1536,1024,,,,,0,567,,,,,,,,,,,,,,,,,U,174,circle,1,0,,,,,,,,,,,,,,,,repeat,letter,lettRpt,f,0.7422,noRew,,,,,,0,9,0,9,0,1,,,,,,,,,,,,,,,,,
296260,2022-11-27_21h20.01.261,vts_reward_expectancy_bt,2022.2.4,Win32,59.82650314,Chrome,1536,1024,,,,,0,567,,,,,,,,,,,,,,,,,W,181,star,1,0,,,,,,,,,,,,,,,,repeat,letter,lettRpt,f,1.5703,noRew,,,,,,0,10,0,10,0,1,,,,,,,,,,,,,,,,,
296260,2022-11-27_21h20.01.261,vts_reward_expectancy_bt,2022.2.4,Win32,59.82650314,Chrome,1536,1024,,,,,0,567,,,,,,,,,,,,,,,,,B,125,triangle,1,0,,,,,,,,,,,,,,,,switch,number,numSwt,j,1.4531,noRew,,,,,,0,11,0,11,0,1,,,,,,,,,,,,,,,,,
296260,2022-11-27_21h20.01.261,vts_reward_expectancy_bt,2022.2.4,Win32,59.82650314,Chrome,1536,1024,,,,,0,567,,,,,,,,,,,,,,,,,W,181,hexagon,1,0,,,,,,,,,,,,,,,,switch,letter,lettSwt,f,0.7835,noRew,,,,,,0,12,0,12,0,1,,,,,,,,,,,,,,,,,
296260,2022-11-27_21h20.01.261,vts_reward_expectancy_bt,2022.2.4,Win32,59.82650314,Chrome,1536,1024,,,,,0,567,,,,,,,,,,,,,,,,,H,125,triangle,1,0,,,,,,,,,,,,,,,,switch,number,numSwt,j,0.9092,noRew,,,,,,0,13,0,13,0,1,,,,,,,,,,,,,,,,,
296260,2022-11-27_21h20.01.261,vts_reward_expectancy_bt,2022.2.4,Win32,59.82650314,Chrome,1536,1024,,,,,0,567,,,,,,,,,,,,,,,,,F,167,circle,1,0,,,,,,,,,,,,,,,,switch,letter,lettSwt,d,1.6359,noRew,,,,,,0,14,0,14,0,1,,,,,,,,,,,,,,,,,
296260,2022-11-27_21h20.01.261,vts_reward_expectancy_bt,2022.2.4,Win32,59.82650314,Chrome,1536,1024,,,,,0,567,,,,,,,,,,,,,,,,,B,174,hexagon,1,0,,,,,,,,,,,,,,,,repeat,letter,lettRpt,d,0.818,noRew,,,,,,0,15,0,15,0,1,,,,,,,,,,,,,,,,,
296260,2022-11-27_21h20.01.261,vts_reward_expectancy_bt,2022.2.4,Win32,59.82650314,Chrome,1536,1024,,,,,0,567,,,,,,,,,,,,,,,,,U,146,triangle,1,0,,,,,,,,,,,,,,,,repeat,letter,lettRpt,f,0.7342,noRew,,,,,,0,16,0,16,0,1,,,,,,,,,,,,,,,,,
296260,2022-11-27_21h20.01.261,vts_reward_expectancy_bt,2022.2.4,Win32,59.82650314,Chrome,1536,1024,,,,,0,567,,,,,,,,,,,,,,,,,H,132,circle,1,0,,,,,,,,,,,,,,,,repeat,letter,lettRpt,d,1.1512,noRew,,,,,,0,17,0,17,0,1,,,,,,,,,,,,,,,,,
296260,2022-11-27_21h20.01.261,vts_reward_expectancy_bt,2022.2.4,Win32,59.82650314,Chrome,1536,1024,,,,,0,567,,,,,,,,,,,,,,,,,S,125,triangle,1,0,,,,,,,,,,,,,,,,repeat,letter,lettRpt,f,0.7023,noRew,,,,,,0,18,0,18,0,1,,,,,,,,,,,,,,,,,
296260,2022-11-27_21h20.01.261,vts_reward_expectancy_bt,2022.2.4,Win32,59.82650314,Chrome,1536,1024,,,,,0,567,,,,,,,,,,,,,,,,,D,174,circle,1,0,,,,,,,,,,,,,,,,switch,number,numSwt,k,1.0844,noRew,,,,,,0,19,0,19,0,1,,,,,,,,,,,,,,,,,
296260,2022-11-27_21h20.01.261,vts_reward_expectancy_bt,2022.2.4,Win32,59.82650314,Chrome,1536,1024,,,,,0,567,,,,,,,,,,,,,,,,,U,146,triangle,1,0,,,,,,,,,,,,,,,,repeat,number,numRpt,j,0.801,noRew,,,,,,0,20,0,20,0,1,,,,,,,,,,,,,,,,,
296260,2022-11-27_21h20.01.261,vts_reward_expectancy_bt,2022.2.4,Win32,59.82650314,Chrome,1536,1024,,,,,0,567,,,,,,,,,,,,,,,,,H,167,star,1,0,,,,,,,,,,,,,,,,repeat,number,numRpt,k,1.1353,noRew,,,,,,0,21,0,21,0,1,,,,,,,,,,,,,,,,,
296260,2022-11-27_21h20.01.261,vts_reward_expectancy_bt,2022.2.4,Win32,59.82650314,Chrome,1536,1024,,,,,0,567,,,,,,,,,,,,,,,,,B,125,star,1,0,,,,,,,,,,,,,,,,repeat,number,numRpt,j,0.6936,noRew,,,,,,0,22,0,22,0,1,,,,,,,,,,,,,,,,,
296260,2022-11-27_21h20.01.261,vts_reward_expectancy_bt,2022.2.4,Win32,59.82650314,Chrome,1536,1024,,,,,0,567,,,,,,,,,,,,,,,,,D,160,triangle,1,0,,,,,,,,,,,,,,,,repeat,number,numRpt,k,0.9689,noRew,,,,,,0,23,0,23,0,1,,,,,,,,,,,,,,,,,
296260,2022-11-27_21h20.01.261,vts_reward_expectancy_bt,2022.2.4,Win32,59.82650314,Chrome,1536,1024,,,,,0,567,,,,,,,,,,,,,,,,,B,160,circle,1,0,,,,,,,,,,,,,,,,repeat,number,numRpt,k,1.8908,noRew,,,,,,0,24,0,24,0,1,,,,,,,,,,,,,,,,,
296260,2022-11-27_21h20.01.261,vts_reward_expectancy_bt,2022.2.4,Win32,59.82650314,Chrome,1536,1024,,,,,0,567,,,,,,,,,,,,,,,,,Y,167,triangle,1,0,,,,,,,,,,,,,,,,repeat,number,numRpt,k,0.9177,noRew,,,,,,0,25,0,25,0,1,,,,,,,,,,,,,,,,,
296260,2022-11-27_21h20.01.261,vts_reward_expectancy_bt,2022.2.4,Win32,59.82650314,Chrome,1536,1024,,,,,0,567,,,,,,,,,,,,,,,,,H,132,star,1,0,,,,,,,,,,,,,,,,repeat,number,numRpt,j,0.8245,noRew,,,,,,0,26,0,26,0,1,,,,,,,,,,,,,,,,,
296260,2022-11-27_21h20.01.261,vts_reward_expectancy_bt,2022.2.4,Win32,59.82650314,Chrome,1536,1024,,,,,0,567,,,,,,,,,,,,,,,,,U,139,triangle,1,0,,,,,,,,,,,,,,,,switch,letter,lettSwt,f,0.8519,noRew,,,,,,0,27,0,27,0,1,,,,,,,,,,,,,,,,,
296260,2022-11-27_21h20.01.261,vts_reward_expectancy_bt,2022.2.4,Win32,59.82650314,Chrome,1536,1024,,,,,0,567,,,,,,,,,,,,,,,,,W,160,hexagon,1,0,,,,,,,,,,,,,,,,repeat,letter,lettRpt,f,0.648,noRew,,,,,,0,28,0,28,0,1,,,,,,,,,,,,,,,,,
296260,2022-11-27_21h20.01.261,vts_reward_expectancy_bt,2022.2.4,Win32,59.82650314,Chrome,1536,1024,,,,,0,567,,,,,,,,,,,,,,,,,Y,146,star,1,0,,,,,,,,,,,,,,,,repeat,letter,lettRpt,f,1.1116,noRew,,,,,,0,29,0,29,0,1,,,,,,,,,,,,,,,,,
296260,2022-11-27_21h20.01.261,vts_reward_expectancy_bt,2022.2.4,Win32,59.82650314,Chrome,1536,1024,,,,,0,567,,,,,,,,,,,,,,,,,B,139,star,1,0,,,,,,,,,,,,,,,,repeat,letter,lettRpt,d,0.705,noRew,,,,,,0,30,0,30,0,1,,,,,,,,,,,,,,,,,
296260,2022-11-27_21h20.01.261,vts_reward_expectancy_bt,2022.2.4,Win32,59.82650314,Chrome,1536,1024,,,,,0,567,,,,,,,,,,,,,,,,,H,174,hexagon,1,0,,,,,,,,,,,,,,,,repeat,letter,lettRpt,d,0.8896,noRew,,,,,,0,31,0,31,0,1,,,,,,,,,,,,,,,,,
296260,2022-11-27_21h20.01.261,vts_reward_expectancy_bt,2022.2.4,Win32,59.82650314,Chrome,1536,1024,,,,,0,567,,,,,,,,,,,,,,,,,U,146,circle,1,0,,,,,,,,,,,,,,,,repeat,letter,lettRpt,f,1.1267,noRew,,,,,,0,32,0,32,0,1,,,,,,,,,,,,,,,,,
296260,2022-11-27_21h20.01.261,vts_reward_expectancy_bt,2022.2.4,Win32,59.82650314,Chrome,1536,1024,,,,,0,567,,,,,,,,,,,,,,,,,D,139,triangle,1,0,,,,,,,,,,,,,,,,switch,number,numSwt,j,0.8028,noRew,,,,,,0,33,0,33,0,1,,,,,,,,,,,,,,,,,
296260,2022-11-27_21h20.01.261,vts_reward_expectancy_bt,2022.2.4,Win32,59.82650314,Chrome,1536,1024,,,,,0,567,,,,,,,,,,,,,,,,,Y,181,star,1,0,,,,,,,,,,,,,,,,repeat,number,numRpt,k,0.711,noRew,,,,,,0,34,0,34,0,1,,,,,,,,,,,,,,,,,
296260,2022-11-27_21h20.01.261,vts_reward_expectancy_bt,2022.2.4,Win32,59.82650314,Chrome,1536,1024,,,,,0,567,,,,,,,,,,,,,,,,,H,160,triangle,1,0,,,,,,,,,,,,,,,,switch,letter,lettSwt,d,1.1178,noRew,,,,,,0,35,0,35,0,1,,,,,,,,,,,,,,,,,
296260,2022-11-27_21h20.01.261,vts_reward_expectancy_bt,2022.2.4,Win32,59.82650314,Chrome,1536,1024,,,,,0,567,,,,,,,,,,,,,,,,,S,132,star,1,0,,,,,,,,,,,,,,,,repeat,letter,lettRpt,f,0.7522,noRew,,,,,,0,36,0,36,0,1,,,,,,,,,,,,,,,,,
296260,2022-11-27_21h20.01.261,vts_reward_expectancy_bt,2022.2.4,Win32,59.82650314,Chrome,1536,1024,,,,,0,567,,,,,,,,,,,,,,,,,U,160,triangle,1,0,,,,,,,,,,,,,,,,repeat,letter,lettRpt,f,0.7172,noRew,,,,,,0,37,0,37,0,1,,,,,,,,,,,,,,,,,
296260,2022-11-27_21h20.01.261,vts_reward_expectancy_bt,2022.2.4,Win32,59.82650314,Chrome,1536,1024,,,,,0,567,,,,,,,,,,,,,,,,,W,174,hexagon,1,0,,,,,,,,,,,,,,,,repeat,letter,lettRpt,f,0.747,noRew,,,,,,0,38,0,38,0,1,,,,,,,,,,,,,,,,,
296260,2022-11-27_21h20.01.261,vts_reward_expectancy_bt,2022.2.4,Win32,59.82650314,Chrome,1536,1024,,,,,0,567,,,,,,,,,,,,,,,,,H,167,circle,1,0,,,,,,,,,,,,,,,,switch,number,numSwt,k,0.8716,noRew,,,,,,0,39,0,39,0,1,,,,,,,,,,,,,,,,,
296260,2022-11-27_21h20.01.261,vts_reward_expectancy_bt,2022.2.4,Win32,59.82650314,Chrome,1536,1024,,,,,0,567,,,,,,,,,,,,,,,,,Y,146,triangle,1,0,,,,,,,,,,,,,,,,repeat,number,numRpt,j,1.2847,noRew,,,,,,0,40,0,40,0,1,,,,,,,,,,,,,,,,,
296260,2022-11-27_21h20.01.261,vts_reward_expectancy_bt,2022.2.4,Win32,59.82650314,Chrome,1536,1024,,,,,0,567,,,,,,,,,,,,,,,,,F,125,circle,1,0,,,,,,,,,,,,,,,,switch,letter,lettSwt,d,1.3549,noRew,,,,,,0,41,0,41,0,1,,,,,,,,,,,,,,,,,
296260,2022-11-27_21h20.01.261,vts_reward_expectancy_bt,2022.2.4,Win32,59.82650314,Chrome,1536,1024,,,,,0,567,,,,,,,,,,,,,,,,,U,139,triangle,1,0,,,,,,,,,,,,,,,,repeat,letter,lettRpt,f,0.6357,noRew,,,,,,0,42,0,42,0,1,,,,,,,,,,,,,,,,,
296260,2022-11-27_21h20.01.261,vts_reward_expectancy_bt,2022.2.4,Win32,59.82650314,Chrome,1536,1024,,,,,0,567,,,,,,,,,,,,,,,,,D,174,circle,1,0,,,,,,,,,,,,,,,,repeat,letter,lettRpt,d,0.7567,noRew,,,,,,0,43,0,43,0,1,,,,,,,,,,,,,,,,,
296260,2022-11-27_21h20.01.261,vts_reward_expectancy_bt,2022.2.4,Win32,59.82650314,Chrome,1536,1024,,,,,0,567,,,,,,,,,,,,,,,,,U,146,circle,1,0,,,,,,,,,,,,,,,,repeat,letter,lettRpt,f,0.8033,noRew,,,,,,0,44,0,44,0,1,,,,,,,,,,,,,,,,,
296260,2022-11-27_21h20.01.261,vts_reward_expectancy_bt,2022.2.4,Win32,59.82650314,Chrome,1536,1024,,,,,0,567,,,,,,,,,,,,,,,,,Y,139,star,1,0,,,,,,,,,,,,,,,,repeat,letter,lettRpt,f,0.7666,noRew,,,,,,0,45,0,45,0,1,,,,,,,,,,,,,,,,,
296260,2022-11-27_21h20.01.261,vts_reward_expectancy_bt,2022.2.4,Win32,59.82650314,Chrome,1536,1024,,,,,0,567,,,,,,,,,,,,,,,,,B,174,circle,1,0,,,,,,,,,,,,,,,,repeat,letter,lettRpt,d,0.6907,noRew,,,,,,0,46,0,46,0,1,,,,,,,,,,,,,,,,,
296260,2022-11-27_21h20.01.261,vts_reward_expectancy_bt,2022.2.4,Win32,59.82650314,Chrome,1536,1024,,,,,0,567,,,,,,,,,,,,,,,,,S,160,triangle,1,0,,,,,,,,,,,,,,,,repeat,letter,lettRpt,f,1.0842,noRew,,,,,,0,47,0,47,0,1,,,,,,,,,,,,,,,,,
296260,2022-11-27_21h20.01.261,vts_reward_expectancy_bt,2022.2.4,Win32,59.82650314,Chrome,1536,1024,,,,,0,567,,,,,,,,,,,,,,,,,H,132,hexagon,1,0,,,,,,,,,,,,,,,,switch,number,numSwt,j,1.2852,noRew,,,,,,0,48,0,48,0,1,,,,,,,,,,,,,,,,,
296260,2022-11-27_21h20.01.261,vts_reward_expectancy_bt,2022.2.4,Win32,59.82650314,Chrome,1536,1024,,,,,0,567,,,,,,,,,,,,,,,,,B,125,star,1,0,,,,,,,,,,,,,,,,repeat,number,numRpt,j,0.7249,noRew,,,,,,0,49,0,49,0,1,,,,,,,,,,,,,,,,,
296260,2022-11-27_21h20.01.261,vts_reward_expectancy_bt,2022.2.4,Win32,59.82650314,Chrome,1536,1024,,,,,0,567,,,,,,,,,,,,,,,,,W,174,triangle,1,0,,,,,,,,,,,,,,,,repeat,number,numRpt,k,0.7588,noRew,,,,,,0,50,0,50,0,1,,,,,,,,,,,,,,,,,
296260,2022-11-27_21h20.01.261,vts_reward_expectancy_bt,2022.2.4,Win32,59.82650314,Chrome,1536,1024,,,,,0,567,,,,,,,,,,,,,,,,,D,139,hexagon,1,0,,,,,,,,,,,,,,,,repeat,number,numRpt,j,0.8185,noRew,,,,,,0,51,0,51,0,1,,,,,,,,,,,,,,,,,
296260,2022-11-27_21h20.01.261,vts_reward_expectancy_bt,2022.2.4,Win32,59.82650314,Chrome,1536,1024,,,,,0,567,,,,,,,,,,,,,,,,,B,181,triangle,1,0,,,,,,,,,,,,,,,,repeat,number,numRpt,k,0.7247,noRew,,,,,,0,52,0,52,0,1,,,,,,,,,,,,,,,,,
296260,2022-11-27_21h20.01.261,vts_reward_expectancy_bt,2022.2.4,Win32,59.82650314,Chrome,1536,1024,,,,,0,567,,,,,,,,,,,,,,,,,D,125,circle,1,0,,,,,,,,,,,,,,,,repeat,number,numRpt,j,0.8373,noRew,,,,,,0,53,0,53,0,1,,,,,,,,,,,,,,,,,
296260,2022-11-27_21h20.01.261,vts_reward_expectancy_bt,2022.2.4,Win32,59.82650314,Chrome,1536,1024,,,,,0,567,,,,,,,,,,,,,,,,,F,132,triangle,1,0,,,,,,,,,,,,,,,,repeat,number,numRpt,j,0.6575,noRew,,,,,,0,54,0,54,0,1,,,,,,,,,,,,,,,,,
296260,2022-11-27_21h20.01.261,vts_reward_expectancy_bt,2022.2.4,Win32,59.82650314,Chrome,1536,1024,,,,,0,567,,,,,,,,,,,,,,,,,W,139,hexagon,1,0,,,,,,,,,,,,,,,,repeat,number,numRpt,j,0.7532,noRew,,,,,,0,55,0,55,0,1,,,,,,,,,,,,,,,,,
296260,2022-11-27_21h20.01.261,vts_reward_expectancy_bt,2022.2.4,Win32,59.82650314,Chrome,1536,1024,,,,,0,567,,,,,,,,,,,,,,,,,B,181,star,1,0,,,,,,,,,,,,,,,,repeat,number,numRpt,k,0.8034,noRew,,,,,,0,56,0,56,0,1,,,,,,,,,,,,,,,,,
296260,2022-11-27_21h20.01.261,vts_reward_expectancy_bt,2022.2.4,Win32,59.82650314,Chrome,1536,1024,,,,,0,567,,,,,,,,,,,,,,,,,U,132,circle,1,0,,,,,,,,,,,,,,,,repeat,number,numRpt,j,0.7037,noRew,,,,,,0,57,0,57,0,1,,,,,,,,,,,,,,,,,
296260,2022-11-27_21h20.01.261,vts_reward_expectancy_bt,2022.2.4,Win32,59.82650314,Chrome,1536,1024,,,,,0,567,,,,,,,,,,,,,,,,,S,146,circle,1,0,,,,,,,,,,,,,,,,repeat,number,numRpt,j,0.7878,noRew,,,,,,0,58,0,58,0,1,,,,,,,,,,,,,,,,,
296260,2022-11-27_21h20.01.261,vts_reward_expectancy_bt,2022.2.4,Win32,59.82650314,Chrome,1536,1024,,,,,0,567,,,,,,,,,,,,,,,,,F,139,star,1,0,,,,,,,,,,,,,,,,repeat,number,numRpt,j,0.6848,noRew,,,,,,0,59,0,59,0,1,,,,,,,,,,,,,,,,,
296260,2022-11-27_21h20.01.261,vts_reward_expectancy_bt,2022.2.4,Win32,59.82650314,Chrome,1536,1024,,,,,0,567,,,,,,,,,,,,,,,,,U,160,star,1,0,,,,,,,,,,,,,,,,switch,letter,lettSwt,f,0.8424,noRew,,,,,,0,60,0,60,0,1,,,,,,,,,,,,,,,,,
296260,2022-11-27_21h20.01.261,vts_reward_expectancy_bt,2022.2.4,Win32,59.82650314,Chrome,1536,1024,,,,,0,567,,,,,,,,,,,,,,,,,F,174,circle,1,0,,,,,,,,,,,,,,,,repeat,letter,lettRpt,d,1.1175,noRew,,,,,,0,61,0,61,0,1,,,,,,,,,,,,,,,,,
296260,2022-11-27_21h20.01.261,vts_reward_expectancy_bt,2022.2.4,Win32,59.82650314,Chrome,1536,1024,,,,,0,567,,,,,,,,,,,,,,,,,H,181,circle,1,0,,,,,,,,,,,,,,,,repeat,letter,lettRpt,d,1.0181,noRew,,,,,,0,62,0,62,0,1,,,,,,,,,,,,,,,,,
296260,2022-11-27_21h20.01.261,vts_reward_expectancy_bt,2022.2.4,Win32,59.82650314,Chrome,1536,1024,,,,,0,567,,,,,,,,,,,,,,,,,W,139,star,1,0,,,,,,,,,,,,,,,,repeat,letter,lettRpt,f,0.8916,noRew,,,,,,0,63,0,63,0,1,,,,,,,,,,,,,,,,,
296260,2022-11-27_21h20.01.261,vts_reward_expectancy_bt,2022.2.4,Win32,59.82650314,Chrome,1536,1024,,,,,,,,,,,,,,,,,,,,,,,,,,,,,,,,,,,,,,,,,,,,,,,,,,,,,,,,,,,,,,,,,,,,,,,,,,,,
296260,2022-11-27_21h20.01.261,vts_reward_expectancy_bt,2022.2.4,Win32,59.82650314,Chrome,1536,1024,,,,,0,567,,,,,,,,,,,,,,,,,H,146,circle,1,0,,,,,,,,,,,,,,,,repeat,letter,lettRpt,d,1.4784,Hi,,,,,,0,,,,,,space,9.513,low,0,0,0,0,1,,,,,,,,,
296260,2022-11-27_21h20.01.261,vts_reward_expectancy_bt,2022.2.4,Win32,59.82650314,Chrome,1536,1024,,,,,1,568,,,,,,,,,,,,,,,,,F,160,hexagon,1,0,,,,,,,,,,,,,,,,repeat,letter,lettRpt,d,0.5741,Lo,,,,,,0,,,,,,,,low,1,0,1,0,1,,,,,,,,,
296260,2022-11-27_21h20.01.261,vts_reward_expectancy_bt,2022.2.4,Win32,59.82650314,Chrome,1536,1024,,,,,0,568,,,,,,,,,,,,,,,,,U,139,triangle,0,0,,,,,,,,,,,,,,,,repeat,letter,NA,d,0.4491,Lo,,,,,,0,,,,,,,,low,2,0,2,0,1,,,,,,,,,
296260,2022-11-27_21h20.01.261,vts_reward_expectancy_bt,2022.2.4,Win32,59.82650314,Chrome,1536,1024,,,,,1,569,,,,,,,,,,,,,,,,,B,125,star,1,1,,,,,,,,,,,,,,,,repeat,letter,lettRpt,d,0.6107,Lo,,,,,,0,,,,,,,,low,3,0,3,0,1,,,,,,,,,
296260,2022-11-27_21h20.01.261,vts_reward_expectancy_bt,2022.2.4,Win32,59.82650314,Chrome,1536,1024,,,,,10,579,,,,,,,,,,,,,,,,,S,174,circle,1,0,,,,,,,,,,,,,,,,switch,number,numSwt,k,0.5453,Hi,,,,,,0,,,,,,,,low,4,0,4,0,1,,,,,,,,,
296260,2022-11-27_21h20.01.261,vts_reward_expectancy_bt,2022.2.4,Win32,59.82650314,Chrome,1536,1024,,,,,1,580,,,,,,,,,,,,,,,,,D,167,hexagon,1,0,,,,,,,,,,,,,,,,repeat,number,numRpt,k,0.5121,Lo,,,,,,0,,,,,,,,low,5,0,5,0,1,,,,,,,,,
296260,2022-11-27_21h20.01.261,vts_reward_expectancy_bt,2022.2.4,Win32,59.82650314,Chrome,1536,1024,,,,,10,590,,,,,,,,,,,,,,,,,W,181,triangle,1,0,,,,,,,,,,,,,,,,switch,letter,lettSwt,f,0.7778,Hi,,,,,,0,,,,,,,,low,6,0,6,0,1,,,,,,,,,
296260,2022-11-27_21h20.01.261,vts_reward_expectancy_bt,2022.2.4,Win32,59.82650314,Chrome,1536,1024,,,,,1,591,,,,,,,,,,,,,,,,,Y,132,star,1,0,,,,,,,,,,,,,,,,switch,number,numSwt,j,0.6688,Lo,,,,,,0,,,,,,,,low,7,0,7,0,1,,,,,,,,,
296260,2022-11-27_21h20.01.261,vts_reward_expectancy_bt,2022.2.4,Win32,59.82650314,Chrome,1536,1024,,,,,0,591,,,,,,,,,,,,,,,,,H,146,triangle,0,0,,,,,,,,,,,,,,,,switch,letter,NA,f,0.7108,Lo,,,,,,0,,,,,,,,low,8,0,8,0,1,,,,,,,,,
296260,2022-11-27_21h20.01.261,vts_reward_expectancy_bt,2022.2.4,Win32,59.82650314,Chrome,1536,1024,,,,,1,592,,,,,,,,,,,,,,,,,F,160,star,1,1,,,,,,,,,,,,,,,,repeat,letter,lettRpt,d,0.8506,Lo,,,,,,0,,,,,,,,low,9,0,9,0,1,,,,,,,,,
296260,2022-11-27_21h20.01.261,vts_reward_expectancy_bt,2022.2.4,Win32,59.82650314,Chrome,1536,1024,,,,,1,593,,,,,,,,,,,,,,,,,U,139,hexagon,1,0,,,,,,,,,,,,,,,,repeat,letter,lettRpt,f,0.914,Lo,,,,,,0,,,,,,,,low,10,0,10,0,1,,,,,,,,,
296260,2022-11-27_21h20.01.261,vts_reward_expectancy_bt,2022.2.4,Win32,59.82650314,Chrome,1536,1024,,,,,10,603,,,,,,,,,,,,,,,,,B,125,circle,1,0,,,,,,,,,,,,,,,,repeat,letter,lettRpt,d,0.7139,Hi,,,,,,0,,,,,,,,low,11,0,11,0,1,,,,,,,,,
296260,2022-11-27_21h20.01.261,vts_reward_expectancy_bt,2022.2.4,Win32,59.82650314,Chrome,1536,1024,,,,,10,613,,,,,,,,,,,,,,,,,S,174,hexagon,1,0,,,,,,,,,,,,,,,,repeat,letter,lettRpt,f,0.7261,Lo,,,,,,0,,,,,,,,low,12,0,12,0,1,,,,,,,,,
296260,2022-11-27_21h20.01.261,vts_reward_expectancy_bt,2022.2.4,Win32,59.82650314,Chrome,1536,1024,,,,,10,623,,,,,,,,,,,,,,,,,D,167,triangle,1,0,,,,,,,,,,,,,,,,switch,number,numSwt,k,0.5981,Hi,,,,,,0,,,,,,,,low,13,0,13,0,1,,,,,,,,,
296260,2022-11-27_21h20.01.261,vts_reward_expectancy_bt,2022.2.4,Win32,59.82650314,Chrome,1536,1024,,,,,1,624,,,,,,,,,,,,,,,,,W,181,circle,1,0,,,,,,,,,,,,,,,,switch,letter,lettSwt,f,0.6349,Hi,,,,,,0,,,,,,,,low,14,0,14,0,1,,,,,,,,,
296260,2022-11-27_21h20.01.261,vts_reward_expectancy_bt,2022.2.4,Win32,59.82650314,Chrome,1536,1024,,,,,1,625,,,,,,,,,,,,,,,,,Y,132,star,1,0,,,,,,,,,,,,,,,,repeat,letter,lettRpt,f,0.7505,Lo,,,,,,0,,,,,,,,low,15,0,15,0,1,,,,,,,,,
296260,2022-11-27_21h20.01.261,vts_reward_expectancy_bt,2022.2.4,Win32,59.82650314,Chrome,1536,1024,,,,,0,625,,,,,,,,,,,,,,,,,F,132,circle,1,0,,,,,,,,,,,,,,,,repeat,letter,lettRpt,d,0.8527,Hi,,,,,,0,,,,,,,,low,16,0,16,0,1,,,,,,,,,
296260,2022-11-27_21h20.01.261,vts_reward_expectancy_bt,2022.2.4,Win32,59.82650314,Chrome,1536,1024,,,,,10,635,,,,,,,,,,,,,,,,,B,174,hexagon,1,0,,,,,,,,,,,,,,,,repeat,letter,lettRpt,d,0.4672,Lo,,,,,,0,,,,,,,,low,17,0,17,0,1,,,,,,,,,
296260,2022-11-27_21h20.01.261,vts_reward_expectancy_bt,2022.2.4,Win32,59.82650314,Chrome,1536,1024,,,,,1,636,,,,,,,,,,,,,,,,,Y,125,star,1,0,,,,,,,,,,,,,,,,repeat,letter,lettRpt,f,0.5752,Lo,,,,,,0,,,,,,,,low,18,0,18,0,1,,,,,,,,,
296260,2022-11-27_21h20.01.261,vts_reward_expectancy_bt,2022.2.4,Win32,59.82650314,Chrome,1536,1024,,,,,0,636,,,,,,,,,,,,,,,,,H,160,triangle,1,0,,,,,,,,,,,,,,,,switch,number,numSwt,k,0.9261,Hi,,,,,,0,,,,,,,,low,19,0,19,0,1,,,,,,,,,
296260,2022-11-27_21h20.01.261,vts_reward_expectancy_bt,2022.2.4,Win32,59.82650314,Chrome,1536,1024,,,,,10,646,,,,,,,,,,,,,,,,,S,167,circle,1,0,,,,,,,,,,,,,,,,repeat,number,numRpt,k,0.6845,Hi,,,,,,0,,,,,,,,low,20,0,20,0,1,,,,,,,,,
296260,2022-11-27_21h20.01.261,vts_reward_expectancy_bt,2022.2.4,Win32,59.82650314,Chrome,1536,1024,,,,,1,647,,,,,,,,,,,,,,,,,W,181,star,1,0,,,,,,,,,,,,,,,,repeat,number,numRpt,k,0.5845,Lo,,,,,,0,,,,,,,,low,21,0,21,0,1,,,,,,,,,
296260,2022-11-27_21h20.01.261,vts_reward_expectancy_bt,2022.2.4,Win32,59.82650314,Chrome,1536,1024,,,,,10,657,,,,,,,,,,,,,,,,,U,139,hexagon,1,0,,,,,,,,,,,,,,,,repeat,number,numRpt,j,0.5075,Lo,,,,,,0,,,,,,,,low,22,0,22,0,1,,,,,,,,,
296260,2022-11-27_21h20.01.261,vts_reward_expectancy_bt,2022.2.4,Win32,59.82650314,Chrome,1536,1024,,,,,10,667,,,,,,,,,,,,,,,,,D,146,triangle,1,0,,,,,,,,,,,,,,,,repeat,number,numRpt,j,0.5383,Hi,,,,,,0,,,,,,,,low,23,0,23,0,1,,,,,,,,,
296260,2022-11-27_21h20.01.261,vts_reward_expectancy_bt,2022.2.4,Win32,59.82650314,Chrome,1536,1024,,,,,10,677,,,,,,,,,,,,,,,,,S,125,circle,1,0,,,,,,,,,,,,,,,,repeat,number,numRpt,j,0.4574,Hi,,,,,,0,,,,,,,,low,24,0,24,0,1,,,,,,,,,
296260,2022-11-27_21h20.01.261,vts_reward_expectancy_bt,2022.2.4,Win32,59.82650314,Chrome,1536,1024,,,,,10,687,,,,,,,,,,,,,,,,,B,160,hexagon,1,0,,,,,,,,,,,,,,,,repeat,number,numRpt,k,0.6684,Lo,,,,,,0,,,,,,,,low,25,0,25,0,1,,,,,,,,,
296260,2022-11-27_21h20.01.261,vts_reward_expectancy_bt,2022.2.4,Win32,59.82650314,Chrome,1536,1024,,,,,10,697,,,,,,,,,,,,,,,,,U,139,triangle,1,0,,,,,,,,,,,,,,,,repeat,number,numRpt,j,0.4901,Hi,,,,,,0,,,,,,,,low,26,0,26,0,1,,,,,,,,,
296260,2022-11-27_21h20.01.261,vts_reward_expectancy_bt,2022.2.4,Win32,59.82650314,Chrome,1536,1024,,,,,1,698,,,,,,,,,,,,,,,,,H,181,star,1,0,,,,,,,,,,,,,,,,repeat,number,numRpt,k,0.7188,Lo,,,,,,0,,,,,,,,low,27,0,27,0,1,,,,,,,,,
296260,2022-11-27_21h20.01.261,vts_reward_expectancy_bt,2022.2.4,Win32,59.82650314,Chrome,1536,1024,,,,,0,698,,,,,,,,,,,,,,,,,F,174,circle,1,0,,,,,,,,,,,,,,,,repeat,number,numRpt,k,0.9325,Hi,,,,,,0,,,,,,,,low,28,0,28,0,1,,,,,,,,,
296260,2022-11-27_21h20.01.261,vts_reward_expectancy_bt,2022.2.4,Win32,59.82650314,Chrome,1536,1024,,,,,10,708,,,,,,,,,,,,,,,,,Y,146,hexagon,1,0,,,,,,,,,,,,,,,,repeat,number,numRpt,j,0.5672,Lo,,,,,,0,,,,,,,,low,29,0,29,0,1,,,,,,,,,
296260,2022-11-27_21h20.01.261,vts_reward_expectancy_bt,2022.2.4,Win32,59.82650314,Chrome,1536,1024,,,,,10,718,,,,,,,,,,,,,,,,,D,167,star,1,0,,,,,,,,,,,,,,,,repeat,number,numRpt,k,0.585,Lo,,,,,,0,,,,,,,,low,30,0,30,0,1,,,,,,,,,
296260,2022-11-27_21h20.01.261,vts_reward_expectancy_bt,2022.2.4,Win32,59.82650314,Chrome,1536,1024,,,,,10,728,,,,,,,,,,,,,,,,,W,132,triangle,1,0,,,,,,,,,,,,,,,,repeat,number,numRpt,j,0.6407,Hi,,,,,,0,,,,,,,,low,31,0,31,0,1,,,,,,,,,
296260,2022-11-27_21h20.01.261,vts_reward_expectancy_bt,2022.2.4,Win32,59.82650314,Chrome,1536,1024,,,,,1,729,,,,,,,,,,,,,,,,,U,160,star,1,0,,,,,,,,,,,,,,,,switch,letter,lettSwt,f,0.7009,Lo,,,,,,1,,,,,,space,1.6823,low,0,0,0,0,1,,,,,,,,,
296260,2022-11-27_21h20.01.261,vts_reward_expectancy_bt,2022.2.4,Win32,59.82650314,Chrome,1536,1024,,,,,1,730,,,,,,,,,,,,,,,,,D,132,circle,1,0,,,,,,,,,,,,,,,,repeat,letter,lettRpt,d,0.5411,Hi,,,,,,1,,,,,,,,low,1,0,1,0,1,,,,,,,,,
296260,2022-11-27_21h20.01.261,vts_reward_expectancy_bt,2022.2.4,Win32,59.82650314,Chrome,1536,1024,,,,,1,731,,,,,,,,,,,,,,,,,S,174,hexagon,1,0,,,,,,,,,,,,,,,,switch,number,numSwt,k,0.9636,Lo,,,,,,1,,,,,,,,low,2,0,2,0,1,,,,,,,,,
296260,2022-11-27_21h20.01.261,vts_reward_expectancy_bt,2022.2.4,Win32,59.82650314,Chrome,1536,1024,,,,,0,731,,,,,,,,,,,,,,,,,Y,167,triangle,1,0,,,,,,,,,,,,,,,,repeat,number,numRpt,k,0.7119,Hi,,,,,,1,,,,,,,,low,3,0,3,0,1,,,,,,,,,
296260,2022-11-27_21h20.01.261,vts_reward_expectancy_bt,2022.2.4,Win32,59.82650314,Chrome,1536,1024,,,,,1,732,,,,,,,,,,,,,,,,,B,125,star,1,0,,,,,,,,,,,,,,,,repeat,number,numRpt,j,0.5994,Lo,,,,,,1,,,,,,,,low,4,0,4,0,1,,,,,,,,,
296260,2022-11-27_21h20.01.261,vts_reward_expectancy_bt,2022.2.4,Win32,59.82650314,Chrome,1536,1024,,,,,0,732,,,,,,,,,,,,,,,,,F,181,circle,0,0,,,,,,,,,,,,,,,,switch,letter,NA,f,0.4816,Lo,,,,,,1,,,,,,,,low,5,0,5,0,1,,,,,,,,,
296260,2022-11-27_21h20.01.261,vts_reward_expectancy_bt,2022.2.4,Win32,59.82650314,Chrome,1536,1024,,,,,1,733,,,,,,,,,,,,,,,,,H,139,hexagon,1,1,,,,,,,,,,,,,,,,repeat,letter,lettRpt,d,0.7132,Lo,,,,,,1,,,,,,,,low,6,0,6,0,1,,,,,,,,,
296260,2022-11-27_21h20.01.261,vts_reward_expectancy_bt,2022.2.4,Win32,59.82650314,Chrome,1536,1024,,,,,1,734,,,,,,,,,,,,,,,,,W,146,triangle,1,0,,,,,,,,,,,,,,,,switch,number,numSwt,j,0.5861,Hi,,,,,,1,,,,,,,,low,7,0,7,0,1,,,,,,,,,
296260,2022-11-27_21h20.01.261,vts_reward_expectancy_bt,2022.2.4,Win32,59.82650314,Chrome,1536,1024,,,,,10,744,,,,,,,,,,,,,,,,,U,160,hexagon,1,0,,,,,,,,,,,,,,,,switch,letter,lettSwt,f,0.6398,Lo,,,,,,1,,,,,,,,low,8,0,8,0,1,,,,,,,,,
296260,2022-11-27_21h20.01.261,vts_reward_expectancy_bt,2022.2.4,Win32,59.82650314,Chrome,1536,1024,,,,,0,744,,,,,,,,,,,,,,,,,D,132,triangle,1,0,,,,,,,,,,,,,,,,repeat,letter,lettRpt,d,0.6661,Hi,,,,,,1,,,,,,,,low,9,0,9,0,1,,,,,,,,,
296260,2022-11-27_21h20.01.261,vts_reward_expectancy_bt,2022.2.4,Win32,59.82650314,Chrome,1536,1024,,,,,10,754,,,,,,,,,,,,,,,,,S,174,circle,1,0,,,,,,,,,,,,,,,,repeat,letter,lettRpt,f,0.5691,Hi,,,,,,1,,,,,,,,low,10,0,10,0,1,,,,,,,,,
296260,2022-11-27_21h20.01.261,vts_reward_expectancy_bt,2022.2.4,Win32,59.82650314,Chrome,1536,1024,,,,,1,755,,,,,,,,,,,,,,,,,Y,167,star,1,0,,,,,,,,,,,,,,,,repeat,letter,lettRpt,f,0.7185,Lo,,,,,,1,,,,,,,,low,11,0,11,0,1,,,,,,,,,
296260,2022-11-27_21h20.01.261,vts_reward_expectancy_bt,2022.2.4,Win32,59.82650314,Chrome,1536,1024,,,,,1,756,,,,,,,,,,,,,,,,,B,125,hexagon,1,0,,,,,,,,,,,,,,,,repeat,letter,lettRpt,d,0.6573,Lo,,,,,,1,,,,,,,,low,12,0,12,0,1,,,,,,,,,
296260,2022-11-27_21h20.01.261,vts_reward_expectancy_bt,2022.2.4,Win32,59.82650314,Chrome,1536,1024,,,,,1,757,,,,,,,,,,,,,,,,,F,181,star,1,0,,,,,,,,,,,,,,,,repeat,letter,lettRpt,d,0.6356,Lo,,,,,,1,,,,,,,,low,13,0,13,0,1,,,,,,,,,
296260,2022-11-27_21h20.01.261,vts_reward_expectancy_bt,2022.2.4,Win32,59.82650314,Chrome,1536,1024,,,,,0,757,,,,,,,,,,,,,,,,,H,139,circle,1,0,,,,,,,,,,,,,,,,repeat,letter,lettRpt,d,0.6903,Hi,,,,,,1,,,,,,,,low,14,0,14,0,1,,,,,,,,,
296260,2022-11-27_21h20.01.261,vts_reward_expectancy_bt,2022.2.4,Win32,59.82650314,Chrome,1536,1024,,,,,1,758,,,,,,,,,,,,,,,,,W,146,triangle,1,0,,,,,,,,,,,,,,,,repeat,letter,lettRpt,f,0.6006,Hi,,,,,,1,,,,,,,,low,15,0,15,0,1,,,,,,,,,
296260,2022-11-27_21h20.01.261,vts_reward_expectancy_bt,2022.2.4,Win32,59.82650314,Chrome,1536,1024,,,,,0,758,,,,,,,,,,,,,,,,,Y,174,triangle,1,0,,,,,,,,,,,,,,,,repeat,letter,lettRpt,f,0.657,Hi,,,,,,1,,,,,,,,low,16,0,16,0,1,,,,,,,,,
296260,2022-11-27_21h20.01.261,vts_reward_expectancy_bt,2022.2.4,Win32,59.82650314,Chrome,1536,1024,,,,,10,768,,,,,,,,,,,,,,,,,W,167,hexagon,1,0,,,,,,,,,,,,,,,,repeat,letter,lettRpt,f,0.6855,Lo,,,,,,1,,,,,,,,low,17,0,17,0,1,,,,,,,,,
296260,2022-11-27_21h20.01.261,vts_reward_expectancy_bt,2022.2.4,Win32,59.82650314,Chrome,1536,1024,,,,,0,768,,,,,,,,,,,,,,,,,U,146,circle,-1,0,,,,,,,,,,,,,,,,switch,no_choice,NA,,,Lo,,,,,,1,,,,,,,,low,18,0,18,0,1,,,,,,,,,
296260,2022-11-27_21h20.01.261,vts_reward_expectancy_bt,2022.2.4,Win32,59.82650314,Chrome,1536,1024,,,,,1,769,,,,,,,,,,,,,,,,,B,160,star,1,0,,,,,,,,,,,,,,,,switch,letter,lettSwt,d,0.9903,Lo,,,,,,1,,,,,,,,low,19,0,19,0,1,,,,,,,,,
296260,2022-11-27_21h20.01.261,vts_reward_expectancy_bt,2022.2.4,Win32,59.82650314,Chrome,1536,1024,,,,,0,769,,,,,,,,,,,,,,,,,F,181,star,0,0,,,,,,,,,,,,,,,,switch,number,NA,j,0.7071,Lo,,,,,,1,,,,,,,,low,20,0,20,0,1,,,,,,,,,
296260,2022-11-27_21h20.01.261,vts_reward_expectancy_bt,2022.2.4,Win32,59.82650314,Chrome,1536,1024,,,,,10,779,,,,,,,,,,,,,,,,,S,125,hexagon,1,1,,,,,,,,,,,,,,,,repeat,number,numRpt,j,1.8404,Lo,,,,,,1,,,,,,,,low,21,0,21,0,1,,,,,,,,,
296260,2022-11-27_21h20.01.261,vts_reward_expectancy_bt,2022.2.4,Win32,59.82650314,Chrome,1536,1024,,,,,0,779,,,,,,,,,,,,,,,,,D,139,triangle,1,0,,,,,,,,,,,,,,,,switch,letter,lettSwt,d,0.8207,Hi,,,,,,1,,,,,,,,low,22,0,22,0,1,,,,,,,,,
296260,2022-11-27_21h20.01.261,vts_reward_expectancy_bt,2022.2.4,Win32,59.82650314,Chrome,1536,1024,,,,,0,779,,,,,,,,,,,,,,,,,H,132,circle,1,0,,,,,,,,,,,,,,,,switch,number,numSwt,j,1.7347,Hi,,,,,,1,,,,,,,,low,23,0,23,0,1,,,,,,,,,
296260,2022-11-27_21h20.01.261,vts_reward_expectancy_bt,2022.2.4,Win32,59.82650314,Chrome,1536,1024,,,,,1,780,,,,,,,,,,,,,,,,,S,125,triangle,1,0,,,,,,,,,,,,,,,,switch,letter,lettSwt,f,0.7518,Hi,,,,,,1,,,,,,,,low,24,0,24,0,1,,,,,,,,,
296260,2022-11-27_21h20.01.261,vts_reward_expectancy_bt,2022.2.4,Win32,59.82650314,Chrome,1536,1024,,,,,1,781,,,,,,,,,,,,,,,,,H,167,circle,1,0,,,,,,,,,,,,,,,,repeat,letter,lettRpt,d,0.5171,Hi,,,,,,1,,,,,,,,low,25,0,25,0,1,,,,,,,,,
296260,2022-11-27_21h20.01.261,vts_reward_expectancy_bt,2022.2.4,Win32,59.82650314,Chrome,1536,1024,,,,,10,791,,,,,,,,,,,,,,,,,B,132,hexagon,1,0,,,,,,,,,,,,,,,,repeat,letter,lettRpt,d,0.5824,Lo,,,,,,1,,,,,,,,low,26,0,26,0,1,,,,,,,,,
296260,2022-11-27_21h20.01.261,vts_reward_expectancy_bt,2022.2.4,Win32,59.82650314,Chrome,1536,1024,,,,,10,801,,,,,,,,,,,,,,,,,U,181,star,1,0,,,,,,,,,,,,,,,,repeat,letter,lettRpt,f,0.6678,Lo,,,,,,1,,,,,,,,low,27,0,27,0,1,,,,,,,,,
296260,2022-11-27_21h20.01.261,vts_reward_expectancy_bt,2022.2.4,Win32,59.82650314,Chrome,1536,1024,,,,,1,802,,,,,,,,,,,,,,,,,D,160,hexagon,1,0,,,,,,,,,,,,,,,,repeat,letter,lettRpt,d,0.5353,Lo,,,,,,1,,,,,,,,low,28,0,28,0,1,,,,,,,,,
296260,2022-11-27_21h20.01.261,vts_reward_expectancy_bt,2022.2.4,Win32,59.82650314,Chrome,1536,1024,,,,,0,802,,,,,,,,,,,,,,,,,Y,146,triangle,1,0,,,,,,,,,,,,,,,,switch,number,numSwt,j,0.6842,Hi,,,,,,1,,,,,,,,low,29,0,29,0,1,,,,,,,,,
296260,2022-11-27_21h20.01.261,vts_reward_expectancy_bt,2022.2.4,Win32,59.82650314,Chrome,1536,1024,,,,,1,803,,,,,,,,,,,,,,,,,W,174,circle,1,0,,,,,,,,,,,,,,,,switch,letter,lettSwt,f,0.6524,Hi,,,,,,1,,,,,,,,low,30,0,30,0,1,,,,,,,,,
296260,2022-11-27_21h20.01.261,vts_reward_expectancy_bt,2022.2.4,Win32,59.82650314,Chrome,1536,1024,,,,,1,804,,,,,,,,,,,,,,,,,F,139,star,1,0,,,,,,,,,,,,,,,,repeat,letter,lettRpt,d,0.667,Lo,,,,,,1,,,,,,,,low,31,0,31,0,1,,,,,,,,,
296260,2022-11-27_21h20.01.261,vts_reward_expectancy_bt,2022.2.4,Win32,59.82650314,Chrome,1536,1024,,,,,0,804,,,,,,,,,,,,,,,,,D,125,circle,1,0,,,,,,,,,,,,,,,,repeat,letter,lettRpt,d,0.6026,Hi,,,,,,2,,,,,,space,4.4436,low,0,0,0,0,1,,,,,,,,,
296260,2022-11-27_21h20.01.261,vts_reward_expectancy_bt,2022.2.4,Win32,59.82650314,Chrome,1536,1024,,,,,10,814,,,,,,,,,,,,,,,,,U,167,star,1,0,,,,,,,,,,,,,,,,repeat,letter,lettRpt,f,0.5502,Lo,,,,,,2,,,,,,,,low,1,0,1,0,1,,,,,,,,,
296260,2022-11-27_21h20.01.261,vts_reward_expectancy_bt,2022.2.4,Win32,59.82650314,Chrome,1536,1024,,,,,1,815,,,,,,,,,,,,,,,,,F,181,hexagon,1,0,,,,,,,,,,,,,,,,repeat,letter,lettRpt,d,0.6352,Lo,,,,,,2,,,,,,,,low,2,0,2,0,1,,,,,,,,,
296260,2022-11-27_21h20.01.261,vts_reward_expectancy_bt,2022.2.4,Win32,59.82650314,Chrome,1536,1024,,,,,0,815,,,,,,,,,,,,,,,,,H,160,triangle,1,0,,,,,,,,,,,,,,,,switch,number,numSwt,k,0.856,Hi,,,,,,2,,,,,,,,low,3,0,3,0,1,,,,,,,,,
296260,2022-11-27_21h20.01.261,vts_reward_expectancy_bt,2022.2.4,Win32,59.82650314,Chrome,1536,1024,,,,,0,815,,,,,,,,,,,,,,,,,B,132,circle,0,0,,,,,,,,,,,,,,,,switch,letter,NA,f,0.8915,Hi,,,,,,2,,,,,,,,low,4,0,4,0,1,,,,,,,,,
296260,2022-11-27_21h20.01.261,vts_reward_expectancy_bt,2022.2.4,Win32,59.82650314,Chrome,1536,1024,,,,,10,825,,,,,,,,,,,,,,,,,Y,146,star,1,1,,,,,,,,,,,,,,,,repeat,letter,lettRpt,f,0.6515,Lo,,,,,,2,,,,,,,,low,5,0,5,0,1,,,,,,,,,
296260,2022-11-27_21h20.01.261,vts_reward_expectancy_bt,2022.2.4,Win32,59.82650314,Chrome,1536,1024,,,,,1,826,,,,,,,,,,,,,,,,,W,174,hexagon,1,0,,,,,,,,,,,,,,,,repeat,letter,lettRpt,f,0.7062,Lo,,,,,,2,,,,,,,,low,6,0,6,0,1,,,,,,,,,
296260,2022-11-27_21h20.01.261,vts_reward_expectancy_bt,2022.2.4,Win32,59.82650314,Chrome,1536,1024,,,,,0,826,,,,,,,,,,,,,,,,,S,139,triangle,1,0,,,,,,,,,,,,,,,,repeat,letter,lettRpt,f,0.7343,Hi,,,,,,2,,,,,,,,low,7,0,7,0,1,,,,,,,,,
296260,2022-11-27_21h20.01.261,vts_reward_expectancy_bt,2022.2.4,Win32,59.82650314,Chrome,1536,1024,,,,,0,826,,,,,,,,,,,,,,,,,D,125,triangle,1,0,,,,,,,,,,,,,,,,repeat,letter,lettRpt,d,0.6031,Hi,,,,,,2,,,,,,,,low,8,0,8,0,1,,,,,,,,,
296260,2022-11-27_21h20.01.261,vts_reward_expectancy_bt,2022.2.4,Win32,59.82650314,Chrome,1536,1024,,,,,1,827,,,,,,,,,,,,,,,,,U,167,hexagon,1,0,,,,,,,,,,,,,,,,repeat,letter,lettRpt,f,0.801,Lo,,,,,,2,,,,,,,,low,9,0,9,0,1,,,,,,,,,
296260,2022-11-27_21h20.01.261,vts_reward_expectancy_bt,2022.2.4,Win32,59.82650314,Chrome,1536,1024,,,,,10,837,,,,,,,,,,,,,,,,,F,181,star,1,0,,,,,,,,,,,,,,,,switch,number,numSwt,k,0.5852,Lo,,,,,,2,,,,,,,,low,10,0,10,0,1,,,,,,,,,
296260,2022-11-27_21h20.01.261,vts_reward_expectancy_bt,2022.2.4,Win32,59.82650314,Chrome,1536,1024,,,,,1,838,,,,,,,,,,,,,,,,,H,160,circle,1,0,,,,,,,,,,,,,,,,switch,letter,lettSwt,d,0.5691,Hi,,,,,,2,,,,,,,,low,11,0,11,0,1,,,,,,,,,
296260,2022-11-27_21h20.01.261,vts_reward_expectancy_bt,2022.2.4,Win32,59.82650314,Chrome,1536,1024,,,,,10,848,,,,,,,,,,,,,,,,,B,132,circle,1,0,,,,,,,,,,,,,,,,repeat,letter,lettRpt,d,0.5218,Hi,,,,,,2,,,,,,,,low,12,0,12,0,1,,,,,,,,,
296260,2022-11-27_21h20.01.261,vts_reward_expectancy_bt,2022.2.4,Win32,59.82650314,Chrome,1536,1024,,,,,10,858,,,,,,,,,,,,,,,,,Y,146,hexagon,1,0,,,,,,,,,,,,,,,,repeat,letter,lettRpt,f,0.6221,Lo,,,,,,2,,,,,,,,low,13,0,13,0,1,,,,,,,,,
296260,2022-11-27_21h20.01.261,vts_reward_expectancy_bt,2022.2.4,Win32,59.82650314,Chrome,1536,1024,,,,,10,868,,,,,,,,,,,,,,,,,W,174,star,1,0,,,,,,,,,,,,,,,,repeat,letter,lettRpt,f,0.7898,Lo,,,,,,2,,,,,,,,low,14,0,14,0,1,,,,,,,,,
296260,2022-11-27_21h20.01.261,vts_reward_expectancy_bt,2022.2.4,Win32,59.82650314,Chrome,1536,1024,,,,,0,868,,,,,,,,,,,,,,,,,S,139,triangle,1,0,,,,,,,,,,,,,,,,repeat,letter,lettRpt,f,0.6732,Hi,,,,,,2,,,,,,,,low,15,0,15,0,1,,,,,,,,,
296260,2022-11-27_21h20.01.261,vts_reward_expectancy_bt,2022.2.4,Win32,59.82650314,Chrome,1536,1024,,,,,1,869,,,,,,,,,,,,,,,,,U,139,star,1,0,,,,,,,,,,,,,,,,repeat,letter,lettRpt,f,0.5044,Lo,,,,,,2,,,,,,,,low,16,0,16,0,1,,,,,,,,,
296260,2022-11-27_21h20.01.261,vts_reward_expectancy_bt,2022.2.4,Win32,59.82650314,Chrome,1536,1024,,,,,0,869,,,,,,,,,,,,,,,,,W,125,triangle,1,0,,,,,,,,,,,,,,,,repeat,letter,lettRpt,f,0.6919,Hi,,,,,,2,,,,,,,,low,17,0,17,0,1,,,,,,,,,
296260,2022-11-27_21h20.01.261,vts_reward_expectancy_bt,2022.2.4,Win32,59.82650314,Chrome,1536,1024,,,,,10,879,,,,,,,,,,,,,,,,,D,146,hexagon,1,0,,,,,,,,,,,,,,,,switch,number,numSwt,j,0.651,Lo,,,,,,2,,,,,,,,low,18,0,18,0,1,,,,,,,,,
296260,2022-11-27_21h20.01.261,vts_reward_expectancy_bt,2022.2.4,Win32,59.82650314,Chrome,1536,1024,,,,,0,879,,,,,,,,,,,,,,,,,Y,160,circle,0,0,,,,,,,,,,,,,,,,repeat,number,NA,j,0.8343,Lo,,,,,,2,,,,,,,,low,19,0,19,0,1,,,,,,,,,
296260,2022-11-27_21h20.01.261,vts_reward_expectancy_bt,2022.2.4,Win32,59.82650314,Chrome,1536,1024,,,,,0,879,,,,,,,,,,,,,,,,,F,167,star,0,1,,,,,,,,,,,,,,,,repeat,number,NA,j,0.7024,Lo,,,,,,2,,,,,,,,low,20,0,20,0,1,,,,,,,,,
296260,2022-11-27_21h20.01.261,vts_reward_expectancy_bt,2022.2.4,Win32,59.82650314,Chrome,1536,1024,,,,,0,879,,,,,,,,,,,,,,,,,H,181,triangle,1,1,,,,,,,,,,,,,,,,repeat,number,numRpt,k,0.7913,Hi,,,,,,2,,,,,,,,low,21,0,21,0,1,,,,,,,,,
296260,2022-11-27_21h20.01.261,vts_reward_expectancy_bt,2022.2.4,Win32,59.82650314,Chrome,1536,1024,,,,,0,879,,,,,,,,,,,,,,,,,B,174,circle,1,0,,,,,,,,,,,,,,,,repeat,number,numRpt,k,0.8504,Hi,,,,,,2,,,,,,,,low,22,0,22,0,1,,,,,,,,,
296260,2022-11-27_21h20.01.261,vts_reward_expectancy_bt,2022.2.4,Win32,59.82650314,Chrome,1536,1024,,,,,10,889,,,,,,,,,,,,,,,,,S,132,hexagon,1,0,,,,,,,,,,,,,,,,repeat,number,numRpt,j,0.7076,Lo,,,,,,2,,,,,,,,low,23,0,23,0,1,,,,,,,,,
296260,2022-11-27_21h20.01.261,vts_reward_expectancy_bt,2022.2.4,Win32,59.82650314,Chrome,1536,1024,,,,,1,890,,,,,,,,,,,,,,,,,H,139,star,1,0,,,,,,,,,,,,,,,,repeat,number,numRpt,j,0.8193,Lo,,,,,,2,,,,,,,,low,24,0,24,0,1,,,,,,,,,
296260,2022-11-27_21h20.01.261,vts_reward_expectancy_bt,2022.2.4,Win32,59.82650314,Chrome,1536,1024,,,,,10,900,,,,,,,,,,,,,,,,,S,174,circle,1,0,,,,,,,,,,,,,,,,repeat,number,numRpt,k,0.6104,Hi,,,,,,2,,,,,,,,low,25,0,25,0,1,,,,,,,,,
296260,2022-11-27_21h20.01.261,vts_reward_expectancy_bt,2022.2.4,Win32,59.82650314,Chrome,1536,1024,,,,,0,900,,,,,,,,,,,,,,,,,Y,132,triangle,1,0,,,,,,,,,,,,,,,,repeat,number,numRpt,j,0.7843,Hi,,,,,,2,,,,,,,,low,26,0,26,0,1,,,,,,,,,
296260,2022-11-27_21h20.01.261,vts_reward_expectancy_bt,2022.2.4,Win32,59.82650314,Chrome,1536,1024,,,,,1,901,,,,,,,,,,,,,,,,,B,160,hexagon,1,0,,,,,,,,,,,,,,,,repeat,number,numRpt,k,0.6267,Lo,,,,,,2,,,,,,,,low,27,0,27,0,1,,,,,,,,,
296260,2022-11-27_21h20.01.261,vts_reward_expectancy_bt,2022.2.4,Win32,59.82650314,Chrome,1536,1024,,,,,1,902,,,,,,,,,,,,,,,,,F,125,star,1,0,,,,,,,,,,,,,,,,switch,letter,lettSwt,d,0.7098,Lo,,,,,,2,,,,,,,,low,28,0,28,0,1,,,,,,,,,
296260,2022-11-27_21h20.01.261,vts_reward_expectancy_bt,2022.2.4,Win32,59.82650314,Chrome,1536,1024,,,,,0,902,,,,,,,,,,,,,,,,,U,146,circle,1,0,,,,,,,,,,,,,,,,repeat,letter,lettRpt,f,0.9678,Hi,,,,,,2,,,,,,,,low,29,0,29,0,1,,,,,,,,,
296260,2022-11-27_21h20.01.261,vts_reward_expectancy_bt,2022.2.4,Win32,59.82650314,Chrome,1536,1024,,,,,0,902,,,,,,,,,,,,,,,,,W,181,triangle,1,0,,,,,,,,,,,,,,,,repeat,letter,lettRpt,f,0.6516,Hi,,,,,,2,,,,,,,,low,30,0,30,0,1,,,,,,,,,
296260,2022-11-27_21h20.01.261,vts_reward_expectancy_bt,2022.2.4,Win32,59.82650314,Chrome,1536,1024,,,,,1,903,,,,,,,,,,,,,,,,,D,167,hexagon,1,0,,,,,,,,,,,,,,,,repeat,letter,lettRpt,d,0.5615,Lo,,,,,,2,,,,,,,,low,31,0,31,0,1,,,,,,,,,
296260,2022-11-27_21h20.01.261,vts_reward_expectancy_bt,2022.2.4,Win32,59.82650314,Chrome,1536,1024,,,,,1,904,,,,,,,,,,,,,,,,,S,139,star,1,0,,,,,,,,,,,,,,,,repeat,letter,lettRpt,f,0.6011,Lo,,,,,,3,,,,,,space,1.0213,low,0,0,0,0,1,,,,,,,,,
296260,2022-11-27_21h20.01.261,vts_reward_expectancy_bt,2022.2.4,Win32,59.82650314,Chrome,1536,1024,,,,,10,914,,,,,,,,,,,,,,,,,B,181,hexagon,1,0,,,,,,,,,,,,,,,,repeat,letter,lettRpt,d,0.5842,Lo,,,,,,3,,,,,,,,low,1,0,1,0,1,,,,,,,,,
296260,2022-11-27_21h20.01.261,vts_reward_expectancy_bt,2022.2.4,Win32,59.82650314,Chrome,1536,1024,,,,,0,914,,,,,,,,,,,,,,,,,D,125,triangle,0,0,,,,,,,,,,,,,,,,repeat,letter,NA,f,0.9031,Lo,,,,,,3,,,,,,,,low,2,0,2,0,1,,,,,,,,,
296260,2022-11-27_21h20.01.261,vts_reward_expectancy_bt,2022.2.4,Win32,59.82650314,Chrome,1536,1024,,,,,0,914,,,,,,,,,,,,,,,,,H,132,circle,1,1,,,,,,,,,,,,,,,,switch,number,numSwt,j,0.7182,Hi,,,,,,3,,,,,,,,low,3,0,3,0,1,,,,,,,,,
296260,2022-11-27_21h20.01.261,vts_reward_expectancy_bt,2022.2.4,Win32,59.82650314,Chrome,1536,1024,,,,,1,915,,,,,,,,,,,,,,,,,Y,174,star,1,0,,,,,,,,,,,,,,,,repeat,number,numRpt,k,0.4066,Lo,,,,,,3,,,,,,,,low,4,0,4,0,1,,,,,,,,,
296260,2022-11-27_21h20.01.261,vts_reward_expectancy_bt,2022.2.4,Win32,59.82650314,Chrome,1536,1024,,,,,0,915,,,,,,,,,,,,,,,,,U,160,hexagon,0,0,,,,,,,,,,,,,,,,repeat,number,NA,j,0.6439,Lo,,,,,,3,,,,,,,,low,5,0,5,0,1,,,,,,,,,
296260,2022-11-27_21h20.01.261,vts_reward_expectancy_bt,2022.2.4,Win32,59.82650314,Chrome,1536,1024,,,,,1,916,,,,,,,,,,,,,,,,,W,167,triangle,1,1,,,,,,,,,,,,,,,,repeat,number,numRpt,k,0.5908,Hi,,,,,,3,,,,,,,,low,6,0,6,0,1,,,,,,,,,
296260,2022-11-27_21h20.01.261,vts_reward_expectancy_bt,2022.2.4,Win32,59.82650314,Chrome,1536,1024,,,,,0,916,,,,,,,,,,,,,,,,,F,146,circle,1,0,,,,,,,,,,,,,,,,repeat,number,numRpt,j,0.7541,Hi,,,,,,3,,,,,,,,low,7,0,7,0,1,,,,,,,,,
296260,2022-11-27_21h20.01.261,vts_reward_expectancy_bt,2022.2.4,Win32,59.82650314,Chrome,1536,1024,,,,,10,926,,,,,,,,,,,,,,,,,S,139,circle,1,0,,,,,,,,,,,,,,,,repeat,number,numRpt,j,0.6845,Hi,,,,,,3,,,,,,,,low,8,0,8,0,1,,,,,,,,,
296260,2022-11-27_21h20.01.261,vts_reward_expectancy_bt,2022.2.4,Win32,59.82650314,Chrome,1536,1024,,,,,10,936,,,,,,,,,,,,,,,,,B,181,star,1,0,,,,,,,,,,,,,,,,repeat,number,numRpt,k,0.767,Lo,,,,,,3,,,,,,,,low,9,0,9,0,1,,,,,,,,,
296260,2022-11-27_21h20.01.261,vts_reward_expectancy_bt,2022.2.4,Win32,59.82650314,Chrome,1536,1024,,,,,0,936,,,,,,,,,,,,,,,,,D,125,triangle,1,0,,,,,,,,,,,,,,,,repeat,number,numRpt,j,0.8175,Hi,,,,,,3,,,,,,,,low,10,0,10,0,1,,,,,,,,,
296260,2022-11-27_21h20.01.261,vts_reward_expectancy_bt,2022.2.4,Win32,59.82650314,Chrome,1536,1024,,,,,1,937,,,,,,,,,,,,,,,,,H,132,hexagon,1,0,,,,,,,,,,,,,,,,repeat,number,numRpt,j,0.5359,Lo,,,,,,3,,,,,,,,low,11,0,11,0,1,,,,,,,,,
296260,2022-11-27_21h20.01.261,vts_reward_expectancy_bt,2022.2.4,Win32,59.82650314,Chrome,1536,1024,,,,,1,938,,,,,,,,,,,,,,,,,Y,174,hexagon,1,0,,,,,,,,,,,,,,,,switch,letter,lettSwt,f,0.7176,Lo,,,,,,3,,,,,,,,low,12,0,12,0,1,,,,,,,,,
296260,2022-11-27_21h20.01.261,vts_reward_expectancy_bt,2022.2.4,Win32,59.82650314,Chrome,1536,1024,,,,,10,948,,,,,,,,,,,,,,,,,U,160,circle,1,0,,,,,,,,,,,,,,,,repeat,letter,lettRpt,f,0.6078,Hi,,,,,,3,,,,,,,,low,13,0,13,0,1,,,,,,,,,
296260,2022-11-27_21h20.01.261,vts_reward_expectancy_bt,2022.2.4,Win32,59.82650314,Chrome,1536,1024,,,,,0,948,,,,,,,,,,,,,,,,,W,167,triangle,1,0,,,,,,,,,,,,,,,,repeat,letter,lettRpt,f,0.7182,Hi,,,,,,3,,,,,,,,low,14,0,14,0,1,,,,,,,,,
296260,2022-11-27_21h20.01.261,vts_reward_expectancy_bt,2022.2.4,Win32,59.82650314,Chrome,1536,1024,,,,,10,958,,,,,,,,,,,,,,,,,F,146,star,1,0,,,,,,,,,,,,,,,,repeat,letter,lettRpt,d,0.7198,Lo,,,,,,3,,,,,,,,low,15,0,15,0,1,,,,,,,,,
296260,2022-11-27_21h20.01.261,vts_reward_expectancy_bt,2022.2.4,Win32,59.82650314,Chrome,1536,1024,,,,,0,958,,,,,,,,,,,,,,,,,F,160,circle,1,0,,,,,,,,,,,,,,,,repeat,letter,lettRpt,d,0.6514,Hi,,,,,,3,,,,,,,,low,16,0,16,0,1,,,,,,,,,
296260,2022-11-27_21h20.01.261,vts_reward_expectancy_bt,2022.2.4,Win32,59.82650314,Chrome,1536,1024,,,,,1,959,,,,,,,,,,,,,,,,,Y,174,star,1,0,,,,,,,,,,,,,,,,repeat,letter,lettRpt,f,0.6011,Lo,,,,,,3,,,,,,,,low,17,0,17,0,1,,,,,,,,,
296260,2022-11-27_21h20.01.261,vts_reward_expectancy_bt,2022.2.4,Win32,59.82650314,Chrome,1536,1024,,,,,1,960,,,,,,,,,,,,,,,,,U,139,triangle,1,0,,,,,,,,,,,,,,,,switch,number,numSwt,j,0.4684,Hi,,,,,,3,,,,,,,,low,18,0,18,0,1,,,,,,,,,
296260,2022-11-27_21h20.01.261,vts_reward_expectancy_bt,2022.2.4,Win32,59.82650314,Chrome,1536,1024,,,,,10,970,,,,,,,,,,,,,,,,,S,125,hexagon,1,0,,,,,,,,,,,,,,,,repeat,number,numRpt,j,0.5006,Lo,,,,,,3,,,,,,,,low,19,0,19,0,1,,,,,,,,,
296260,2022-11-27_21h20.01.261,vts_reward_expectancy_bt,2022.2.4,Win32,59.82650314,Chrome,1536,1024,,,,,10,980,,,,,,,,,,,,,,,,,W,167,circle,1,0,,,,,,,,,,,,,,,,repeat,number,numRpt,k,0.6018,Hi,,,,,,3,,,,,,,,low,20,0,20,0,1,,,,,,,,,
296260,2022-11-27_21h20.01.261,vts_reward_expectancy_bt,2022.2.4,Win32,59.82650314,Chrome,1536,1024,,,,,10,990,,,,,,,,,,,,,,,,,H,181,triangle,1,0,,,,,,,,,,,,,,,,repeat,number,numRpt,k,0.5857,Hi,,,,,,3,,,,,,,,low,21,0,21,0,1,,,,,,,,,
296260,2022-11-27_21h20.01.261,vts_reward_expectancy_bt,2022.2.4,Win32,59.82650314,Chrome,1536,1024,,,,,1,991,,,,,,,,,,,,,,,,,B,132,hexagon,1,0,,,,,,,,,,,,,,,,repeat,number,numRpt,j,0.537,Lo,,,,,,3,,,,,,,,low,22,0,22,0,1,,,,,,,,,
296260,2022-11-27_21h20.01.261,vts_reward_expectancy_bt,2022.2.4,Win32,59.82650314,Chrome,1536,1024,,,,,1,992,,,,,,,,,,,,,,,,,D,146,star,1,0,,,,,,,,,,,,,,,,switch,letter,lettSwt,d,0.6167,Lo,,,,,,3,,,,,,,,low,23,0,23,0,1,,,,,,,,,
296260,2022-11-27_21h20.01.261,vts_reward_expectancy_bt,2022.2.4,Win32,59.82650314,Chrome,1536,1024,,,,,10,1002,,,,,,,,,,,,,,,,,D,167,triangle,1,0,,,,,,,,,,,,,,,,repeat,letter,lettRpt,d,0.5741,Hi,,,,,,3,,,,,,,,low,24,0,24,0,1,,,,,,,,,
296260,2022-11-27_21h20.01.261,vts_reward_expectancy_bt,2022.2.4,Win32,59.82650314,Chrome,1536,1024,,,,,1,1003,,,,,,,,,,,,,,,,,S,125,hexagon,1,0,,,,,,,,,,,,,,,,repeat,letter,lettRpt,f,0.6835,Lo,,,,,,3,,,,,,,,low,25,0,25,0,1,,,,,,,,,
296260,2022-11-27_21h20.01.261,vts_reward_expectancy_bt,2022.2.4,Win32,59.82650314,Chrome,1536,1024,,,,,10,1013,,,,,,,,,,,,,,,,,H,181,star,1,0,,,,,,,,,,,,,,,,repeat,letter,lettRpt,d,0.6846,Lo,,,,,,3,,,,,,,,low,26,0,26,0,1,,,,,,,,,
296260,2022-11-27_21h20.01.261,vts_reward_expectancy_bt,2022.2.4,Win32,59.82650314,Chrome,1536,1024,,,,,1,1014,,,,,,,,,,,,,,,,,W,174,circle,1,0,,,,,,,,,,,,,,,,repeat,letter,lettRpt,f,0.5677,Hi,,,,,,3,,,,,,,,low,27,0,27,0,1,,,,,,,,,
296260,2022-11-27_21h20.01.261,vts_reward_expectancy_bt,2022.2.4,Win32,59.82650314,Chrome,1536,1024,,,,,1,1015,,,,,,,,,,,,,,,,,F,132,hexagon,1,0,,,,,,,,,,,,,,,,repeat,letter,lettRpt,d,0.6843,Lo,,,,,,3,,,,,,,,low,28,0,28,0,1,,,,,,,,,
296260,2022-11-27_21h20.01.261,vts_reward_expectancy_bt,2022.2.4,Win32,59.82650314,Chrome,1536,1024,,,,,0,1015,,,,,,,,,,,,,,,,,B,160,circle,1,0,,,,,,,,,,,,,,,,repeat,letter,lettRpt,d,0.6369,Hi,,,,,,3,,,,,,,,low,29,0,29,0,1,,,,,,,,,
296260,2022-11-27_21h20.01.261,vts_reward_expectancy_bt,2022.2.4,Win32,59.82650314,Chrome,1536,1024,,,,,1,1016,,,,,,,,,,,,,,,,,Y,146,star,1,0,,,,,,,,,,,,,,,,repeat,letter,lettRpt,f,0.6185,Lo,,,,,,3,,,,,,,,low,30,0,30,0,1,,,,,,,,,
296260,2022-11-27_21h20.01.261,vts_reward_expectancy_bt,2022.2.4,Win32,59.82650314,Chrome,1536,1024,,,,,0,1016,,,,,,,,,,,,,,,,,U,139,triangle,0,0,,,,,,,,,,,,,,,,repeat,letter,NA,d,0.8088,Lo,,,,,,3,,,,,,,,low,31,0,31,0,1,,,,,,,,,
296260,2022-11-27_21h20.01.261,vts_reward_expectancy_bt,2022.2.4,Win32,59.82650314,Chrome,1536,1024,,,,,1,1017,,,,,,,,,,,,,,,,,B,174,star,1,1,,,,,,,,,,,,,,,,repeat,letter,lettRpt,d,0.7777,Lo,,,,,,4,,,,,,space,9.7856,low,0,0,0,0,1,,,,,,,,,
296260,2022-11-27_21h20.01.261,vts_reward_expectancy_bt,2022.2.4,Win32,59.82650314,Chrome,1536,1024,,,,,0,1017,,,,,,,,,,,,,,,,,H,160,triangle,1,0,,,,,,,,,,,,,,,,repeat,letter,lettRpt,d,0.8895,Hi,,,,,,4,,,,,,,,low,1,0,1,0,1,,,,,,,,,
296260,2022-11-27_21h20.01.261,vts_reward_expectancy_bt,2022.2.4,Win32,59.82650314,Chrome,1536,1024,,,,,0,1017,,,,,,,,,,,,,,,,,S,132,circle,1,0,,,,,,,,,,,,,,,,repeat,letter,lettRpt,f,0.7234,Hi,,,,,,4,,,,,,,,low,2,0,2,0,1,,,,,,,,,
296260,2022-11-27_21h20.01.261,vts_reward_expectancy_bt,2022.2.4,Win32,59.82650314,Chrome,1536,1024,,,,,1,1018,,,,,,,,,,,,,,,,,F,139,hexagon,1,0,,,,,,,,,,,,,,,,repeat,letter,lettRpt,d,0.7845,Lo,,,,,,4,,,,,,,,low,3,0,3,0,1,,,,,,,,,
296260,2022-11-27_21h20.01.261,vts_reward_expectancy_bt,2022.2.4,Win32,59.82650314,Chrome,1536,1024,,,,,1,1019,,,,,,,,,,,,,,,,,Y,181,star,1,0,,,,,,,,,,,,,,,,repeat,letter,lettRpt,f,0.5868,Lo,,,,,,4,,,,,,,,low,4,0,4,0,1,,,,,,,,,
296260,2022-11-27_21h20.01.261,vts_reward_expectancy_bt,2022.2.4,Win32,59.82650314,Chrome,1536,1024,,,,,1,1020,,,,,,,,,,,,,,,,,W,146,triangle,1,0,,,,,,,,,,,,,,,,repeat,letter,lettRpt,f,0.582,Hi,,,,,,4,,,,,,,,low,5,0,5,0,1,,,,,,,,,
296260,2022-11-27_21h20.01.261,vts_reward_expectancy_bt,2022.2.4,Win32,59.82650314,Chrome,1536,1024,,,,,10,1030,,,,,,,,,,,,,,,,,U,125,circle,1,0,,,,,,,,,,,,,,,,repeat,letter,lettRpt,f,0.5326,Hi,,,,,,4,,,,,,,,low,6,0,6,0,1,,,,,,,,,
296260,2022-11-27_21h20.01.261,vts_reward_expectancy_bt,2022.2.4,Win32,59.82650314,Chrome,1536,1024,,,,,1,1031,,,,,,,,,,,,,,,,,D,167,hexagon,1,0,,,,,,,,,,,,,,,,repeat,letter,lettRpt,d,0.7019,Lo,,,,,,4,,,,,,,,low,7,0,7,0,1,,,,,,,,,
296260,2022-11-27_21h20.01.261,vts_reward_expectancy_bt,2022.2.4,Win32,59.82650314,Chrome,1536,1024,,,,,0,1031,,,,,,,,,,,,,,,,,B,174,circle,1,0,,,,,,,,,,,,,,,,repeat,letter,lettRpt,d,0.7206,Hi,,,,,,4,,,,,,,,low,8,0,8,0,1,,,,,,,,,
296260,2022-11-27_21h20.01.261,vts_reward_expectancy_bt,2022.2.4,Win32,59.82650314,Chrome,1536,1024,,,,,0,1031,,,,,,,,,,,,,,,,,H,160,triangle,1,0,,,,,,,,,,,,,,,,repeat,letter,lettRpt,d,0.8515,Hi,,,,,,4,,,,,,,,low,9,0,9,0,1,,,,,,,,,
296260,2022-11-27_21h20.01.261,vts_reward_expectancy_bt,2022.2.4,Win32,59.82650314,Chrome,1536,1024,,,,,0,1031,,,,,,,,,,,,,,,,,S,132,hexagon,0,0,,,,,,,,,,,,,,,,repeat,letter,NA,d,0.6496,Hi,,,,,,4,,,,,,,,low,10,0,10,0,1,,,,,,,,,
296260,2022-11-27_21h20.01.261,vts_reward_expectancy_bt,2022.2.4,Win32,59.82650314,Chrome,1536,1024,,,,,0,1031,,,,,,,,,,,,,,,,,F,139,star,0,1,,,,,,,,,,,,,,,,repeat,letter,NA,f,0.502,Hi,,,,,,4,,,,,,,,low,11,0,11,0,1,,,,,,,,,
296260,2022-11-27_21h20.01.261,vts_reward_expectancy_bt,2022.2.4,Win32,59.82650314,Chrome,1536,1024,,,,,10,1041,,,,,,,,,,,,,,,,,Y,181,star,1,1,,,,,,,,,,,,,,,,repeat,letter,lettRpt,f,0.4927,Lo,,,,,,4,,,,,,,,low,12,0,12,0,1,,,,,,,,,
296260,2022-11-27_21h20.01.261,vts_reward_expectancy_bt,2022.2.4,Win32,59.82650314,Chrome,1536,1024,,,,,0,1041,,,,,,,,,,,,,,,,,W,146,triangle,0,0,,,,,,,,,,,,,,,,repeat,letter,NA,d,0.6177,Lo,,,,,,4,,,,,,,,low,13,0,13,0,1,,,,,,,,,
296260,2022-11-27_21h20.01.261,vts_reward_expectancy_bt,2022.2.4,Win32,59.82650314,Chrome,1536,1024,,,,,1,1042,,,,,,,,,,,,,,,,,U,125,hexagon,1,1,,,,,,,,,,,,,,,,repeat,letter,lettRpt,f,0.6849,Lo,,,,,,4,,,,,,,,low,14,0,14,0,1,,,,,,,,,
296260,2022-11-27_21h20.01.261,vts_reward_expectancy_bt,2022.2.4,Win32,59.82650314,Chrome,1536,1024,,,,,0,1042,,,,,,,,,,,,,,,,,D,167,circle,1,0,,,,,,,,,,,,,,,,repeat,letter,lettRpt,d,0.7903,Hi,,,,,,4,,,,,,,,low,15,0,15,0,1,,,,,,,,,
296260,2022-11-27_21h20.01.261,vts_reward_expectancy_bt,2022.2.4,Win32,59.82650314,Chrome,1536,1024,,,,,10,1052,,,,,,,,,,,,,,,,,B,167,star,1,0,,,,,,,,,,,,,,,,repeat,letter,lettRpt,d,0.551,Lo,,,,,,4,,,,,,,,low,16,0,16,0,1,,,,,,,,,
296260,2022-11-27_21h20.01.261,vts_reward_expectancy_bt,2022.2.4,Win32,59.82650314,Chrome,1536,1024,,,,,10,1062,,,,,,,,,,,,,,,,,U,125,hexagon,1,0,,,,,,,,,,,,,,,,repeat,letter,lettRpt,f,0.7502,Lo,,,,,,4,,,,,,,,low,17,0,17,0,1,,,,,,,,,
296260,2022-11-27_21h20.01.261,vts_reward_expectancy_bt,2022.2.4,Win32,59.82650314,Chrome,1536,1024,,,,,0,1062,,,,,,,,,,,,,,,,,D,139,triangle,1,0,,,,,,,,,,,,,,,,repeat,letter,lettRpt,d,0.8015,Hi,,,,,,4,,,,,,,,low,18,0,18,0,1,,,,,,,,,
296260,2022-11-27_21h20.01.261,vts_reward_expectancy_bt,2022.2.4,Win32,59.82650314,Chrome,1536,1024,,,,,10,1072,,,,,,,,,,,,,,,,,Y,146,circle,1,0,,,,,,,,,,,,,,,,repeat,letter,lettRpt,f,0.5354,Hi,,,,,,4,,,,,,,,low,19,0,19,0,1,,,,,,,,,
296260,2022-11-27_21h20.01.261,vts_reward_expectancy_bt,2022.2.4,Win32,59.82650314,Chrome,1536,1024,,,,,0,1072,,,,,,,,,,,,,,,,,S,174,hexagon,0,0,,,,,,,,,,,,,,,,repeat,letter,NA,d,0.6165,Hi,,,,,,4,,,,,,,,low,20,0,20,0,1,,,,,,,,,
296260,2022-11-27_21h20.01.261,vts_reward_expectancy_bt,2022.2.4,Win32,59.82650314,Chrome,1536,1024,,,,,0,1072,,,,,,,,,,,,,,,,,W,160,triangle,0,1,,,,,,,,,,,,,,,,switch,number,NA,j,0.8692,Hi,,,,,,4,,,,,,,,low,21,0,21,0,1,,,,,,,,,
296260,2022-11-27_21h20.01.261,vts_reward_expectancy_bt,2022.2.4,Win32,59.82650314,Chrome,1536,1024,,,,,0,1072,,,,,,,,,,,,,,,,,F,132,circle,1,1,,,,,,,,,,,,,,,,repeat,number,numRpt,j,0.8173,Hi,,,,,,4,,,,,,,,low,22,0,22,0,1,,,,,,,,,
296260,2022-11-27_21h20.01.261,vts_reward_expectancy_bt,2022.2.4,Win32,59.82650314,Chrome,1536,1024,,,,,10,1082,,,,,,,,,,,,,,,,,H,181,star,1,0,,,,,,,,,,,,,,,,repeat,number,numRpt,k,0.6217,Lo,,,,,,4,,,,,,,,low,23,0,23,0,1,,,,,,,,,
296260,2022-11-27_21h20.01.261,vts_reward_expectancy_bt,2022.2.4,Win32,59.82650314,Chrome,1536,1024,,,,,0,1082,,,,,,,,,,,,,,,,,H,174,circle,1,0,,,,,,,,,,,,,,,,repeat,number,numRpt,k,0.7532,Hi,,,,,,4,,,,,,,,low,24,0,24,0,1,,,,,,,,,
296260,2022-11-27_21h20.01.261,vts_reward_expectancy_bt,2022.2.4,Win32,59.82650314,Chrome,1536,1024,,,,,0,1082,,,,,,,,,,,,,,,,,S,167,triangle,0,0,,,,,,,,,,,,,,,,repeat,number,NA,j,0.6245,Hi,,,,,,4,,,,,,,,low,25,0,25,0,1,,,,,,,,,
296260,2022-11-27_21h20.01.261,vts_reward_expectancy_bt,2022.2.4,Win32,59.82650314,Chrome,1536,1024,,,,,10,1092,,,,,,,,,,,,,,,,,W,139,star,1,1,,,,,,,,,,,,,,,,repeat,number,numRpt,j,0.551,Lo,,,,,,4,,,,,,,,low,26,0,26,0,1,,,,,,,,,
296260,2022-11-27_21h20.01.261,vts_reward_expectancy_bt,2022.2.4,Win32,59.82650314,Chrome,1536,1024,,,,,1,1093,,,,,,,,,,,,,,,,,Y,181,hexagon,1,0,,,,,,,,,,,,,,,,repeat,number,numRpt,k,0.7592,Lo,,,,,,4,,,,,,,,low,27,0,27,0,1,,,,,,,,,
296260,2022-11-27_21h20.01.261,vts_reward_expectancy_bt,2022.2.4,Win32,59.82650314,Chrome,1536,1024,,,,,1,1094,,,,,,,,,,,,,,,,,D,125,hexagon,1,0,,,,,,,,,,,,,,,,repeat,number,numRpt,j,0.7175,Lo,,,,,,4,,,,,,,,low,28,0,28,0,1,,,,,,,,,
296260,2022-11-27_21h20.01.261,vts_reward_expectancy_bt,2022.2.4,Win32,59.82650314,Chrome,1536,1024,,,,,10,1104,,,,,,,,,,,,,,,,,B,146,circle,1,0,,,,,,,,,,,,,,,,switch,letter,lettSwt,d,0.5846,Hi,,,,,,4,,,,,,,,low,29,0,29,0,1,,,,,,,,,
296260,2022-11-27_21h20.01.261,vts_reward_expectancy_bt,2022.2.4,Win32,59.82650314,Chrome,1536,1024,,,,,0,1104,,,,,,,,,,,,,,,,,U,160,triangle,1,0,,,,,,,,,,,,,,,,repeat,letter,lettRpt,f,0.627,Hi,,,,,,4,,,,,,,,low,30,0,30,0,1,,,,,,,,,
296260,2022-11-27_21h20.01.261,vts_reward_expectancy_bt,2022.2.4,Win32,59.82650314,Chrome,1536,1024,,,,,0,1104,,,,,,,,,,,,,,,,,F,132,star,0,0,,,,,,,,,,,,,,,,repeat,letter,NA,f,0.8677,Hi,,,,,,4,,,,,,,,low,31,0,31,0,1,,,,,,,,,
296260,2022-11-27_21h20.01.261,vts_reward_expectancy_bt,2022.2.4,Win32,59.82650314,Chrome,1536,1024,,,,,10,1114,,,,,,,,,,,,,,,,,B,125,circle,1,1,,,,,,,,,,,,,,,,repeat,letter,lettRpt,d,0.5842,Hi,,,,,,5,,,,,,space,0.5617,low,0,0,0,0,1,,,,,,,,,
296260,2022-11-27_21h20.01.261,vts_reward_expectancy_bt,2022.2.4,Win32,59.82650314,Chrome,1536,1024,,,,,10,1124,,,,,,,,,,,,,,,,,U,174,star,1,0,,,,,,,,,,,,,,,,repeat,letter,lettRpt,f,0.6003,Lo,,,,,,5,,,,,,,,low,1,0,1,0,1,,,,,,,,,
296260,2022-11-27_21h20.01.261,vts_reward_expectancy_bt,2022.2.4,Win32,59.82650314,Chrome,1536,1024,,,,,1,1125,,,,,,,,,,,,,,,,,D,146,hexagon,1,0,,,,,,,,,,,,,,,,repeat,letter,lettRpt,d,0.6011,Lo,,,,,,5,,,,,,,,low,2,0,2,0,1,,,,,,,,,
296260,2022-11-27_21h20.01.261,vts_reward_expectancy_bt,2022.2.4,Win32,59.82650314,Chrome,1536,1024,,,,,10,1135,,,,,,,,,,,,,,,,,Y,181,triangle,1,0,,,,,,,,,,,,,,,,repeat,letter,lettRpt,f,0.585,Hi,,,,,,5,,,,,,,,low,3,0,3,0,1,,,,,,,,,
296260,2022-11-27_21h20.01.261,vts_reward_expectancy_bt,2022.2.4,Win32,59.82650314,Chrome,1536,1024,,,,,0,1135,,,,,,,,,,,,,,,,,F,160,circle,0,0,,,,,,,,,,,,,,,,repeat,letter,NA,f,0.885,Hi,,,,,,5,,,,,,,,low,4,0,4,0,1,,,,,,,,,
296260,2022-11-27_21h20.01.261,vts_reward_expectancy_bt,2022.2.4,Win32,59.82650314,Chrome,1536,1024,,,,,1,1136,,,,,,,,,,,,,,,,,W,139,star,1,1,,,,,,,,,,,,,,,,repeat,letter,lettRpt,f,0.5182,Lo,,,,,,5,,,,,,,,low,5,0,5,0,1,,,,,,,,,
296260,2022-11-27_21h20.01.261,vts_reward_expectancy_bt,2022.2.4,Win32,59.82650314,Chrome,1536,1024,,,,,1,1137,,,,,,,,,,,,,,,,,S,167,hexagon,1,0,,,,,,,,,,,,,,,,repeat,letter,lettRpt,f,0.6002,Lo,,,,,,5,,,,,,,,low,6,0,6,0,1,,,,,,,,,
296260,2022-11-27_21h20.01.261,vts_reward_expectancy_bt,2022.2.4,Win32,59.82650314,Chrome,1536,1024,,,,,0,1137,,,,,,,,,,,,,,,,,H,132,triangle,0,0,,,,,,,,,,,,,,,,repeat,letter,NA,f,0.8035,Lo,,,,,,5,,,,,,,,low,7,0,7,0,1,,,,,,,,,
296260,2022-11-27_21h20.01.261,vts_reward_expectancy_bt,2022.2.4,Win32,59.82650314,Chrome,1536,1024,,,,,1,1138,,,,,,,,,,,,,,,,,B,125,star,1,1,,,,,,,,,,,,,,,,repeat,letter,lettRpt,d,0.6173,Lo,,,,,,5,,,,,,,,low,8,0,8,0,1,,,,,,,,,
296260,2022-11-27_21h20.01.261,vts_reward_expectancy_bt,2022.2.4,Win32,59.82650314,Chrome,1536,1024,,,,,10,1148,,,,,,,,,,,,,,,,,U,174,triangle,1,0,,,,,,,,,,,,,,,,repeat,letter,lettRpt,f,0.5953,Hi,,,,,,5,,,,,,,,low,9,0,9,0,1,,,,,,,,,
296260,2022-11-27_21h20.01.261,vts_reward_expectancy_bt,2022.2.4,Win32,59.82650314,Chrome,1536,1024,,,,,0,1148,,,,,,,,,,,,,,,,,D,146,circle,1,0,,,,,,,,,,,,,,,,repeat,letter,lettRpt,d,0.7188,Hi,,,,,,5,,,,,,,,low,10,0,10,0,1,,,,,,,,,
296260,2022-11-27_21h20.01.261,vts_reward_expectancy_bt,2022.2.4,Win32,59.82650314,Chrome,1536,1024,,,,,1,1149,,,,,,,,,,,,,,,,,Y,181,hexagon,1,0,,,,,,,,,,,,,,,,repeat,letter,lettRpt,f,1.0876,Lo,,,,,,5,,,,,,,,low,11,0,11,0,1,,,,,,,,,
296260,2022-11-27_21h20.01.261,vts_reward_expectancy_bt,2022.2.4,Win32,59.82650314,Chrome,1536,1024,,,,,0,1149,,,,,,,,,,,,,,,,,F,160,triangle,1,0,,,,,,,,,,,,,,,,repeat,letter,lettRpt,d,0.6279,Hi,,,,,,5,,,,,,,,low,12,0,12,0,1,,,,,,,,,
296260,2022-11-27_21h20.01.261,vts_reward_expectancy_bt,2022.2.4,Win32,59.82650314,Chrome,1536,1024,,,,,1,1150,,,,,,,,,,,,,,,,,W,139,circle,1,0,,,,,,,,,,,,,,,,repeat,letter,lettRpt,f,0.6005,Hi,,,,,,5,,,,,,,,low,13,0,13,0,1,,,,,,,,,
296260,2022-11-27_21h20.01.261,vts_reward_expectancy_bt,2022.2.4,Win32,59.82650314,Chrome,1536,1024,,,,,1,1151,,,,,,,,,,,,,,,,,S,167,hexagon,1,0,,,,,,,,,,,,,,,,repeat,letter,lettRpt,f,0.5866,Lo,,,,,,5,,,,,,,,low,14,0,14,0,1,,,,,,,,,
296260,2022-11-27_21h20.01.261,vts_reward_expectancy_bt,2022.2.4,Win32,59.82650314,Chrome,1536,1024,,,,,0,1151,,,,,,,,,,,,,,,,,H,132,star,0,0,,,,,,,,,,,,,,,,repeat,letter,NA,f,0.6625,Lo,,,,,,5,,,,,,,,low,15,0,15,0,1,,,,,,,,,
296260,2022-11-27_21h20.01.261,vts_reward_expectancy_bt,2022.2.4,Win32,59.82650314,Chrome,1536,1024,,,,,0,1151,,,,,,,,,,,,,,,,,U,139,circle,1,1,,,,,,,,,,,,,,,,repeat,letter,lettRpt,f,1.2297,Hi,,,,,,5,,,,,,,,low,16,0,16,0,1,,,,,,,,,
296260,2022-11-27_21h20.01.261,vts_reward_expectancy_bt,2022.2.4,Win32,59.82650314,Chrome,1536,1024,,,,,10,1161,,,,,,,,,,,,,,,,,D,146,hexagon,1,0,,,,,,,,,,,,,,,,repeat,letter,lettRpt,d,0.7166,Lo,,,,,,5,,,,,,,,low,17,0,17,0,1,,,,,,,,,
296260,2022-11-27_21h20.01.261,vts_reward_expectancy_bt,2022.2.4,Win32,59.82650314,Chrome,1536,1024,,,,,10,1171,,,,,,,,,,,,,,,,,F,160,triangle,1,0,,,,,,,,,,,,,,,,switch,number,numSwt,k,0.662,Hi,,,,,,5,,,,,,,,low,18,0,18,0,1,,,,,,,,,
296260,2022-11-27_21h20.01.261,vts_reward_expectancy_bt,2022.2.4,Win32,59.82650314,Chrome,1536,1024,,,,,10,1181,,,,,,,,,,,,,,,,,B,132,star,1,0,,,,,,,,,,,,,,,,switch,letter,lettSwt,d,0.5809,Lo,,,,,,5,,,,,,,,low,19,0,19,0,1,,,,,,,,,
296260,2022-11-27_21h20.01.261,vts_reward_expectancy_bt,2022.2.4,Win32,59.82650314,Chrome,1536,1024,,,,,0,1181,,,,,,,,,,,,,,,,,W,167,triangle,1,0,,,,,,,,,,,,,,,,repeat,letter,lettRpt,f,0.669,Hi,,,,,,5,,,,,,,,low,20,0,20,0,1,,,,,,,,,
296260,2022-11-27_21h20.01.261,vts_reward_expectancy_bt,2022.2.4,Win32,59.82650314,Chrome,1536,1024,,,,,10,1191,,,,,,,,,,,,,,,,,S,125,hexagon,1,0,,,,,,,,,,,,,,,,repeat,letter,lettRpt,f,1.197,Lo,,,,,,5,,,,,,,,low,21,0,21,0,1,,,,,,,,,
296260,2022-11-27_21h20.01.261,vts_reward_expectancy_bt,2022.2.4,Win32,59.82650314,Chrome,1536,1024,,,,,0,1191,,,,,,,,,,,,,,,,,Y,181,circle,1,0,,,,,,,,,,,,,,,,repeat,letter,lettRpt,f,0.683,Hi,,,,,,5,,,,,,,,low,22,0,22,0,1,,,,,,,,,
296260,2022-11-27_21h20.01.261,vts_reward_expectancy_bt,2022.2.4,Win32,59.82650314,Chrome,1536,1024,,,,,10,1201,,,,,,,,,,,,,,,,,H,174,star,1,0,,,,,,,,,,,,,,,,repeat,letter,lettRpt,d,0.6256,Lo,,,,,,5,,,,,,,,low,23,0,23,0,1,,,,,,,,,
296260,2022-11-27_21h20.01.261,vts_reward_expectancy_bt,2022.2.4,Win32,59.82650314,Chrome,1536,1024,,,,,0,1201,,,,,,,,,,,,,,,,,D,132,triangle,1,0,,,,,,,,,,,,,,,,repeat,letter,lettRpt,d,0.6173,Hi,,,,,,5,,,,,,,,low,24,0,24,0,1,,,,,,,,,
296260,2022-11-27_21h20.01.261,vts_reward_expectancy_bt,2022.2.4,Win32,59.82650314,Chrome,1536,1024,,,,,1,1202,,,,,,,,,,,,,,,,,W,160,hexagon,1,0,,,,,,,,,,,,,,,,repeat,letter,lettRpt,f,0.5276,Lo,,,,,,5,,,,,,,,low,25,0,25,0,1,,,,,,,,,
296260,2022-11-27_21h20.01.261,vts_reward_expectancy_bt,2022.2.4,Win32,59.82650314,Chrome,1536,1024,,,,,10,1212,,,,,,,,,,,,,,,,,B,174,star,1,0,,,,,,,,,,,,,,,,repeat,letter,lettRpt,d,0.7333,Lo,,,,,,5,,,,,,,,low,26,0,26,0,1,,,,,,,,,
296260,2022-11-27_21h20.01.261,vts_reward_expectancy_bt,2022.2.4,Win32,59.82650314,Chrome,1536,1024,,,,,0,1212,,,,,,,,,,,,,,,,,Y,146,circle,0,0,,,,,,,,,,,,,,,,repeat,letter,NA,d,0.951,Lo,,,,,,5,,,,,,,,low,27,0,27,0,1,,,,,,,,,
296260,2022-11-27_21h20.01.261,vts_reward_expectancy_bt,2022.2.4,Win32,59.82650314,Chrome,1536,1024,,,,,0,1212,,,,,,,,,,,,,,,,,H,181,triangle,1,1,,,,,,,,,,,,,,,,repeat,letter,lettRpt,d,0.6507,Hi,,,,,,5,,,,,,,,low,28,0,28,0,1,,,,,,,,,
296260,2022-11-27_21h20.01.261,vts_reward_expectancy_bt,2022.2.4,Win32,59.82650314,Chrome,1536,1024,,,,,10,1222,,,,,,,,,,,,,,,,,S,167,star,1,0,,,,,,,,,,,,,,,,repeat,letter,lettRpt,f,0.6015,Lo,,,,,,5,,,,,,,,low,29,0,29,0,1,,,,,,,,,
296260,2022-11-27_21h20.01.261,vts_reward_expectancy_bt,2022.2.4,Win32,59.82650314,Chrome,1536,1024,,,,,0,1222,,,,,,,,,,,,,,,,,F,125,circle,1,0,,,,,,,,,,,,,,,,repeat,letter,lettRpt,d,0.8859,Hi,,,,,,5,,,,,,,,low,30,0,30,0,1,,,,,,,,,
296260,2022-11-27_21h20.01.261,vts_reward_expectancy_bt,2022.2.4,Win32,59.82650314,Chrome,1536,1024,,,,,1,1223,,,,,,,,,,,,,,,,,U,139,hexagon,1,0,,,,,,,,,,,,,,,,repeat,letter,lettRpt,f,0.6181,Lo,,,,,,5,,,,,,,,low,31,0,31,0,1,,,,,,,,,
296260,2022-11-27_21h20.01.261,vts_reward_expectancy_bt,2022.2.4,Win32,59.82650314,Chrome,1536,1024,,,,,0,1223,,,,,,,,,,,,,,,,,D,167,circle,1,0,,,,,,,,,,,,,,,,repeat,letter,lettRpt,d,0.9365,Hi,,,,,,6,,,,,,space,1.0046,low,0,0,0,0,1,,,,,,,,,
296260,2022-11-27_21h20.01.261,vts_reward_expectancy_bt,2022.2.4,Win32,59.82650314,Chrome,1536,1024,,,,,1,1224,,,,,,,,,,,,,,,,,B,160,triangle,1,0,,,,,,,,,,,,,,,,repeat,letter,lettRpt,d,0.5515,Hi,,,,,,6,,,,,,,,low,1,0,1,0,1,,,,,,,,,
296260,2022-11-27_21h20.01.261,vts_reward_expectancy_bt,2022.2.4,Win32,59.82650314,Chrome,1536,1024,,,,,1,1225,,,,,,,,,,,,,,,,,W,181,star,1,0,,,,,,,,,,,,,,,,repeat,letter,lettRpt,f,0.5863,Lo,,,,,,6,,,,,,,,low,2,0,2,0,1,,,,,,,,,
296260,2022-11-27_21h20.01.261,vts_reward_expectancy_bt,2022.2.4,Win32,59.82650314,Chrome,1536,1024,,,,,1,1226,,,,,,,,,,,,,,,,,Y,146,hexagon,1,0,,,,,,,,,,,,,,,,repeat,letter,lettRpt,f,0.7108,Lo,,,,,,6,,,,,,,,low,3,0,3,0,1,,,,,,,,,
296260,2022-11-27_21h20.01.261,vts_reward_expectancy_bt,2022.2.4,Win32,59.82650314,Chrome,1536,1024,,,,,0,1226,,,,,,,,,,,,,,,,,F,125,circle,1,0,,,,,,,,,,,,,,,,repeat,letter,lettRpt,d,0.7044,Hi,,,,,,6,,,,,,,,low,4,0,4,0,1,,,,,,,,,
296260,2022-11-27_21h20.01.261,vts_reward_expectancy_bt,2022.2.4,Win32,59.82650314,Chrome,1536,1024,,,,,0,1226,,,,,,,,,,,,,,,,,H,174,triangle,0,0,,,,,,,,,,,,,,,,repeat,letter,NA,f,0.7283,Hi,,,,,,6,,,,,,,,low,5,0,5,0,1,,,,,,,,,
296260,2022-11-27_21h20.01.261,vts_reward_expectancy_bt,2022.2.4,Win32,59.82650314,Chrome,1536,1024,,,,,10,1236,,,,,,,,,,,,,,,,,S,132,star,1,1,,,,,,,,,,,,,,,,repeat,letter,lettRpt,f,0.4977,Lo,,,,,,6,,,,,,,,low,6,0,6,0,1,,,,,,,,,
296260,2022-11-27_21h20.01.261,vts_reward_expectancy_bt,2022.2.4,Win32,59.82650314,Chrome,1536,1024,,,,,10,1246,,,,,,,,,,,,,,,,,U,139,hexagon,1,0,,,,,,,,,,,,,,,,repeat,letter,lettRpt,f,0.7501,Lo,,,,,,6,,,,,,,,low,7,0,7,0,1,,,,,,,,,
296260,2022-11-27_21h20.01.261,vts_reward_expectancy_bt,2022.2.4,Win32,59.82650314,Chrome,1536,1024,,,,,10,1256,,,,,,,,,,,,,,,,,D,167,star,1,0,,,,,,,,,,,,,,,,repeat,letter,lettRpt,d,0.5969,Lo,,,,,,6,,,,,,,,low,8,0,8,0,1,,,,,,,,,
296260,2022-11-27_21h20.01.261,vts_reward_expectancy_bt,2022.2.4,Win32,59.82650314,Chrome,1536,1024,,,,,10,1266,,,,,,,,,,,,,,,,,B,160,circle,1,0,,,,,,,,,,,,,,,,repeat,letter,lettRpt,d,0.5343,Hi,,,,,,6,,,,,,,,low,9,0,9,0,1,,,,,,,,,
296260,2022-11-27_21h20.01.261,vts_reward_expectancy_bt,2022.2.4,Win32,59.82650314,Chrome,1536,1024,,,,,0,1266,,,,,,,,,,,,,,,,,W,181,triangle,1,0,,,,,,,,,,,,,,,,repeat,letter,lettRpt,f,0.6159,Hi,,,,,,6,,,,,,,,low,10,0,10,0,1,,,,,,,,,
296260,2022-11-27_21h20.01.261,vts_reward_expectancy_bt,2022.2.4,Win32,59.82650314,Chrome,1536,1024,,,,,1,1267,,,,,,,,,,,,,,,,,Y,146,hexagon,1,0,,,,,,,,,,,,,,,,repeat,letter,lettRpt,f,0.7813,Lo,,,,,,6,,,,,,,,low,11,0,11,0,1,,,,,,,,,
296260,2022-11-27_21h20.01.261,vts_reward_expectancy_bt,2022.2.4,Win32,59.82650314,Chrome,1536,1024,,,,,0,1267,,,,,,,,,,,,,,,,,F,125,hexagon,0,0,,,,,,,,,,,,,,,,repeat,letter,NA,f,0.665,Lo,,,,,,6,,,,,,,,low,12,0,12,0,1,,,,,,,,,
296260,2022-11-27_21h20.01.261,vts_reward_expectancy_bt,2022.2.4,Win32,59.82650314,Chrome,1536,1024,,,,,0,1267,,,,,,,,,,,,,,,,,H,174,triangle,1,1,,,,,,,,,,,,,,,,repeat,letter,lettRpt,d,0.6196,Hi,,,,,,6,,,,,,,,low,13,0,13,0,1,,,,,,,,,
296260,2022-11-27_21h20.01.261,vts_reward_expectancy_bt,2022.2.4,Win32,59.82650314,Chrome,1536,1024,,,,,10,1277,,,,,,,,,,,,,,,,,S,132,circle,1,0,,,,,,,,,,,,,,,,repeat,letter,lettRpt,f,0.5689,Hi,,,,,,6,,,,,,,,low,14,0,14,0,1,,,,,,,,,
