participant,date,expName,psychopyVersion,OS,frameRate,browser,xResolution,yResolution,key_resp.keys,key_resp.rt,training_resp.keys,training_resp.rt,points_trial,points_cumul,trainBlock,training.thisRepN,training.thisTrialN,training.thisN,training.thisIndex,training.ran,LTriangleOpac,LCircleOpac,LHexagonOpac,LStarOpac,RTriangleOpac,RCircleOpac,RHexagonOpac,RStarOpac,LShape_ID,RShape_ID,curr_topStim,curr_bottStim,curr_shape,acc,E1,target_resp_prac1.keys,target_resp_prac1.rt,pracBlock,task1_prac_trials.thisRepN,task1_prac_trials.thisTrialN,task1_prac_trials.thisN,task1_prac_trials.thisIndex,task1_prac_trials.ran,target_resp_prac2.keys,target_resp_prac2.rt,task2_praac_trials.thisRepN,task2_praac_trials.thisTrialN,task2_praac_trials.thisN,task2_praac_trials.thisIndex,task2_praac_trials.ran,alt,task,condition,target_resp.keys,target_resp.rt,rewCond,vts_practice_trials.thisRepN,vts_practice_trials.thisTrialN,vts_practice_trials.thisN,vts_practice_trials.thisIndex,vts_practice_trials.ran,blockNum,trials_norew.thisRepN,trials_norew.thisTrialN,trials_norew.thisN,trials_norew.thisIndex,trials_norew.ran,key_resp_2.keys,key_resp_2.rt,rewExpectancy,trials_rew.thisRepN,trials_rew.thisTrialN,trials_rew.thisN,trials_rew.thisIndex,trials_rew.ran,Q1,Q2,Q2_text,Q3,Q4,Q5_text,Q5,xRes,yRes
296200,2022-11-27_14h30.50.120,vts_reward_expectancy_bt,2022.2.4,Win32,60.34638827,Chrome,1504,1003,,,,,,,,,,,,,,,,,,,,,,,,,,,,,,,,,,,,,,,,,,,,,,,,,,,,,,,,,,,,,,,,,,,,,,,,,,,,
296200,2022-11-27_14h30.50.120,vts_reward_expectancy_bt,2022.2.4,Win32,60.34638827,Chrome,1504,1003,space,20.4033,,,,,,,,,,,,,,,,,,,,,,,,,,,,,,,,,,,,,,,,,,,,,,,,,,,,,,,,,,,,,,,,,,,,,,,,,,
296200,2022-11-27_14h30.50.120,vts_reward_expectancy_bt,2022.2.4,Win32,60.34638827,Chrome,1504,1003,,,,,,,,,,,,,,,,,,,,,,,,,,,,,,,,,,,,,,,,,,,,,,,,,,,,,,,,,,,,,,,,,,,,,,,,,,,,
296200,2022-11-27_14h30.50.120,vts_reward_expectancy_bt,2022.2.4,Win32,60.34638827,Chrome,1504,1003,,,a,3.6257,1,1,0,0,0,0,3,1,0,1,0,0,1,0,0,0,circle,triangle,,,,,,,,,,,,,,,,,,,,,,,,,,,,,,,,,,,,,,,,,,,,,,,,,,,,,,
296200,2022-11-27_14h30.50.120,vts_reward_expectancy_bt,2022.2.4,Win32,60.34638827,Chrome,1504,1003,,,l,1.5836,1,2,0,0,1,1,9,1,0,0,0,1,1,0,0,0,star,triangle,,,,,,,,,,,,,,,,,,,,,,,,,,,,,,,,,,,,,,,,,,,,,,,,,,,,,,
296200,2022-11-27_14h30.50.120,vts_reward_expectancy_bt,2022.2.4,Win32,60.34638827,Chrome,1504,1003,,,l,2.4889,1,3,0,0,2,2,1,1,1,0,0,0,0,0,1,0,triangle,hexagon,,,,,,,,,,,,,,,,,,,,,,,,,,,,,,,,,,,,,,,,,,,,,,,,,,,,,,
296200,2022-11-27_14h30.50.120,vts_reward_expectancy_bt,2022.2.4,Win32,60.34638827,Chrome,1504,1003,,,l,2.5838,10,13,0,0,3,3,6,1,0,0,1,0,1,0,0,0,hexagon,triangle,,,,,,,,,,,,,,,,,,,,,,,,,,,,,,,,,,,,,,,,,,,,,,,,,,,,,,
296200,2022-11-27_14h30.50.120,vts_reward_expectancy_bt,2022.2.4,Win32,60.34638827,Chrome,1504,1003,,,l,1.9336,10,23,0,0,4,4,7,1,0,0,1,0,0,1,0,0,hexagon,circle,,,,,,,,,,,,,,,,,,,,,,,,,,,,,,,,,,,,,,,,,,,,,,,,,,,,,,
296200,2022-11-27_14h30.50.120,vts_reward_expectancy_bt,2022.2.4,Win32,60.34638827,Chrome,1504,1003,,,l,3.9835,1,24,0,0,5,5,4,1,0,1,0,0,0,0,1,0,circle,hexagon,,,,,,,,,,,,,,,,,,,,,,,,,,,,,,,,,,,,,,,,,,,,,,,,,,,,,,
296200,2022-11-27_14h30.50.120,vts_reward_expectancy_bt,2022.2.4,Win32,60.34638827,Chrome,1504,1003,,,l,1.3336,10,34,0,0,6,6,5,1,0,1,0,0,0,0,0,1,circle,star,,,,,,,,,,,,,,,,,,,,,,,,,,,,,,,,,,,,,,,,,,,,,,,,,,,,,,
296200,2022-11-27_14h30.50.120,vts_reward_expectancy_bt,2022.2.4,Win32,60.34638827,Chrome,1504,1003,,,a,2.3023,1,35,0,0,7,7,11,1,0,0,0,1,0,0,1,0,star,hexagon,,,,,,,,,,,,,,,,,,,,,,,,,,,,,,,,,,,,,,,,,,,,,,,,,,,,,,
296200,2022-11-27_14h30.50.120,vts_reward_expectancy_bt,2022.2.4,Win32,60.34638827,Chrome,1504,1003,,,l,1.5712,1,36,0,0,8,8,2,1,1,0,0,0,0,0,0,1,triangle,star,,,,,,,,,,,,,,,,,,,,,,,,,,,,,,,,,,,,,,,,,,,,,,,,,,,,,,
296200,2022-11-27_14h30.50.120,vts_reward_expectancy_bt,2022.2.4,Win32,60.34638827,Chrome,1504,1003,,,l,1.567,10,46,0,0,9,9,8,1,0,0,1,0,0,0,0,1,hexagon,star,,,,,,,,,,,,,,,,,,,,,,,,,,,,,,,,,,,,,,,,,,,,,,,,,,,,,,
296200,2022-11-27_14h30.50.120,vts_reward_expectancy_bt,2022.2.4,Win32,60.34638827,Chrome,1504,1003,,,l,1.9337,10,56,0,0,10,10,10,1,0,0,0,1,0,1,0,0,star ,circle,,,,,,,,,,,,,,,,,,,,,,,,,,,,,,,,,,,,,,,,,,,,,,,,,,,,,,
296200,2022-11-27_14h30.50.120,vts_reward_expectancy_bt,2022.2.4,Win32,60.34638827,Chrome,1504,1003,,,l,0.8176,10,66,0,0,11,11,0,1,1,0,0,0,0,1,0,0,triangle,circle,,,,,,,,,,,,,,,,,,,,,,,,,,,,,,,,,,,,,,,,,,,,,,,,,,,,,,
296200,2022-11-27_14h30.50.120,vts_reward_expectancy_bt,2022.2.4,Win32,60.34638827,Chrome,1504,1003,,,l,1.1836,1,67,0,1,0,12,6,1,0,0,1,0,1,0,0,0,hexagon,triangle,,,,,,,,,,,,,,,,,,,,,,,,,,,,,,,,,,,,,,,,,,,,,,,,,,,,,,
296200,2022-11-27_14h30.50.120,vts_reward_expectancy_bt,2022.2.4,Win32,60.34638827,Chrome,1504,1003,,,l,1.1003,1,68,0,1,1,13,1,1,1,0,0,0,0,0,1,0,triangle,hexagon,,,,,,,,,,,,,,,,,,,,,,,,,,,,,,,,,,,,,,,,,,,,,,,,,,,,,,
296200,2022-11-27_14h30.50.120,vts_reward_expectancy_bt,2022.2.4,Win32,60.34638827,Chrome,1504,1003,,,a,3.045,1,69,0,1,2,14,8,1,0,0,1,0,0,0,0,1,hexagon,star,,,,,,,,,,,,,,,,,,,,,,,,,,,,,,,,,,,,,,,,,,,,,,,,,,,,,,
296200,2022-11-27_14h30.50.120,vts_reward_expectancy_bt,2022.2.4,Win32,60.34638827,Chrome,1504,1003,,,a,2.0075,1,70,0,1,3,15,2,1,1,0,0,0,0,0,0,1,triangle,star,,,,,,,,,,,,,,,,,,,,,,,,,,,,,,,,,,,,,,,,,,,,,,,,,,,,,,
296200,2022-11-27_14h30.50.120,vts_reward_expectancy_bt,2022.2.4,Win32,60.34638827,Chrome,1504,1003,,,a,1.1612,1,71,0,1,4,16,11,1,0,0,0,1,0,0,1,0,star,hexagon,,,,,,,,,,,,,,,,,,,,,,,,,,,,,,,,,,,,,,,,,,,,,,,,,,,,,,
296200,2022-11-27_14h30.50.120,vts_reward_expectancy_bt,2022.2.4,Win32,60.34638827,Chrome,1504,1003,,,a,0.6576,1,72,0,1,5,17,4,1,0,1,0,0,0,0,1,0,circle,hexagon,,,,,,,,,,,,,,,,,,,,,,,,,,,,,,,,,,,,,,,,,,,,,,,,,,,,,,
296200,2022-11-27_14h30.50.120,vts_reward_expectancy_bt,2022.2.4,Win32,60.34638827,Chrome,1504,1003,,,l,1.4002,10,82,0,1,6,18,9,1,0,0,0,1,1,0,0,0,star,triangle,,,,,,,,,,,,,,,,,,,,,,,,,,,,,,,,,,,,,,,,,,,,,,,,,,,,,,
296200,2022-11-27_14h30.50.120,vts_reward_expectancy_bt,2022.2.4,Win32,60.34638827,Chrome,1504,1003,,,l,1.5668,10,92,0,1,7,19,0,1,1,0,0,0,0,1,0,0,triangle,circle,,,,,,,,,,,,,,,,,,,,,,,,,,,,,,,,,,,,,,,,,,,,,,,,,,,,,,
296200,2022-11-27_14h30.50.120,vts_reward_expectancy_bt,2022.2.4,Win32,60.34638827,Chrome,1504,1003,,,l,1.0023,10,102,0,1,8,20,7,1,0,0,1,0,0,1,0,0,hexagon,circle,,,,,,,,,,,,,,,,,,,,,,,,,,,,,,,,,,,,,,,,,,,,,,,,,,,,,,
296200,2022-11-27_14h30.50.120,vts_reward_expectancy_bt,2022.2.4,Win32,60.34638827,Chrome,1504,1003,,,a,0.8171,10,112,0,1,9,21,3,1,0,1,0,0,1,0,0,0,circle,triangle,,,,,,,,,,,,,,,,,,,,,,,,,,,,,,,,,,,,,,,,,,,,,,,,,,,,,,
296200,2022-11-27_14h30.50.120,vts_reward_expectancy_bt,2022.2.4,Win32,60.34638827,Chrome,1504,1003,,,a,0.9841,10,122,0,1,10,22,10,1,0,0,0,1,0,1,0,0,star ,circle,,,,,,,,,,,,,,,,,,,,,,,,,,,,,,,,,,,,,,,,,,,,,,,,,,,,,,
296200,2022-11-27_14h30.50.120,vts_reward_expectancy_bt,2022.2.4,Win32,60.34638827,Chrome,1504,1003,,,l,0.5493,10,132,0,1,11,23,5,1,0,1,0,0,0,0,0,1,circle,star,,,,,,,,,,,,,,,,,,,,,,,,,,,,,,,,,,,,,,,,,,,,,,,,,,,,,,
296200,2022-11-27_14h30.50.120,vts_reward_expectancy_bt,2022.2.4,Win32,60.34638827,Chrome,1504,1003,,,a,0.5326,10,142,0,2,0,24,11,1,0,0,0,1,0,0,1,0,star,hexagon,,,,,,,,,,,,,,,,,,,,,,,,,,,,,,,,,,,,,,,,,,,,,,,,,,,,,,
296200,2022-11-27_14h30.50.120,vts_reward_expectancy_bt,2022.2.4,Win32,60.34638827,Chrome,1504,1003,,,l,0.6511,1,143,0,2,1,25,8,1,0,0,1,0,0,0,0,1,hexagon,star,,,,,,,,,,,,,,,,,,,,,,,,,,,,,,,,,,,,,,,,,,,,,,,,,,,,,,
296200,2022-11-27_14h30.50.120,vts_reward_expectancy_bt,2022.2.4,Win32,60.34638827,Chrome,1504,1003,,,a,1.1069,1,144,0,2,2,26,3,1,0,1,0,0,1,0,0,0,circle,triangle,,,,,,,,,,,,,,,,,,,,,,,,,,,,,,,,,,,,,,,,,,,,,,,,,,,,,,
296200,2022-11-27_14h30.50.120,vts_reward_expectancy_bt,2022.2.4,Win32,60.34638827,Chrome,1504,1003,,,a,1.1254,10,154,0,2,3,27,9,1,0,0,0,1,1,0,0,0,star,triangle,,,,,,,,,,,,,,,,,,,,,,,,,,,,,,,,,,,,,,,,,,,,,,,,,,,,,,
296200,2022-11-27_14h30.50.120,vts_reward_expectancy_bt,2022.2.4,Win32,60.34638827,Chrome,1504,1003,,,l,0.7425,1,155,0,2,4,28,0,1,1,0,0,0,0,1,0,0,triangle,circle,,,,,,,,,,,,,,,,,,,,,,,,,,,,,,,,,,,,,,,,,,,,,,,,,,,,,,
296200,2022-11-27_14h30.50.120,vts_reward_expectancy_bt,2022.2.4,Win32,60.34638827,Chrome,1504,1003,,,l,1.5896,1,156,0,2,5,29,6,1,0,0,1,0,1,0,0,0,hexagon,triangle,,,,,,,,,,,,,,,,,,,,,,,,,,,,,,,,,,,,,,,,,,,,,,,,,,,,,,
296200,2022-11-27_14h30.50.120,vts_reward_expectancy_bt,2022.2.4,Win32,60.34638827,Chrome,1504,1003,,,a,0.9372,1,157,0,2,6,30,5,1,0,1,0,0,0,0,0,1,circle,star,,,,,,,,,,,,,,,,,,,,,,,,,,,,,,,,,,,,,,,,,,,,,,,,,,,,,,
296200,2022-11-27_14h30.50.120,vts_reward_expectancy_bt,2022.2.4,Win32,60.34638827,Chrome,1504,1003,,,a,1.117,1,158,0,2,7,31,1,1,1,0,0,0,0,0,1,0,triangle,hexagon,,,,,,,,,,,,,,,,,,,,,,,,,,,,,,,,,,,,,,,,,,,,,,,,,,,,,,
296200,2022-11-27_14h30.50.120,vts_reward_expectancy_bt,2022.2.4,Win32,60.34638827,Chrome,1504,1003,,,l,0.704,10,168,0,2,8,32,7,1,0,0,1,0,0,1,0,0,hexagon,circle,,,,,,,,,,,,,,,,,,,,,,,,,,,,,,,,,,,,,,,,,,,,,,,,,,,,,,
296200,2022-11-27_14h30.50.120,vts_reward_expectancy_bt,2022.2.4,Win32,60.34638827,Chrome,1504,1003,,,a,0.6409,1,169,0,2,9,33,4,1,0,1,0,0,0,0,1,0,circle,hexagon,,,,,,,,,,,,,,,,,,,,,,,,,,,,,,,,,,,,,,,,,,,,,,,,,,,,,,
296200,2022-11-27_14h30.50.120,vts_reward_expectancy_bt,2022.2.4,Win32,60.34638827,Chrome,1504,1003,,,l,0.9082,10,179,0,2,10,34,2,1,1,0,0,0,0,0,0,1,triangle,star,,,,,,,,,,,,,,,,,,,,,,,,,,,,,,,,,,,,,,,,,,,,,,,,,,,,,,
296200,2022-11-27_14h30.50.120,vts_reward_expectancy_bt,2022.2.4,Win32,60.34638827,Chrome,1504,1003,,,l,1.1499,10,189,0,2,11,35,10,1,0,0,0,1,0,1,0,0,star ,circle,,,,,,,,,,,,,,,,,,,,,,,,,,,,,,,,,,,,,,,,,,,,,,,,,,,,,,
296200,2022-11-27_14h30.50.120,vts_reward_expectancy_bt,2022.2.4,Win32,60.34638827,Chrome,1504,1003,,,l,1.3151,1,190,1,0,0,0,7,1,0,0,1,0,0,1,0,0,hexagon,circle,,,,,,,,,,,,,,,,,,,,,,,,,,,,,,,,,,,,,,,,,,,,,,,,,,,,,,
296200,2022-11-27_14h30.50.120,vts_reward_expectancy_bt,2022.2.4,Win32,60.34638827,Chrome,1504,1003,,,a,0.6408,1,191,1,0,1,1,3,1,0,1,0,0,1,0,0,0,circle,triangle,,,,,,,,,,,,,,,,,,,,,,,,,,,,,,,,,,,,,,,,,,,,,,,,,,,,,,
296200,2022-11-27_14h30.50.120,vts_reward_expectancy_bt,2022.2.4,Win32,60.34638827,Chrome,1504,1003,,,l,1.1543,1,192,1,0,2,2,6,1,0,0,1,0,1,0,0,0,hexagon,triangle,,,,,,,,,,,,,,,,,,,,,,,,,,,,,,,,,,,,,,,,,,,,,,,,,,,,,,
296200,2022-11-27_14h30.50.120,vts_reward_expectancy_bt,2022.2.4,Win32,60.34638827,Chrome,1504,1003,,,a,0.8503,10,202,1,0,3,3,4,1,0,1,0,0,0,0,1,0,circle,hexagon,,,,,,,,,,,,,,,,,,,,,,,,,,,,,,,,,,,,,,,,,,,,,,,,,,,,,,
296200,2022-11-27_14h30.50.120,vts_reward_expectancy_bt,2022.2.4,Win32,60.34638827,Chrome,1504,1003,,,a,1.6331,1,203,1,0,4,4,1,1,1,0,0,0,0,0,1,0,triangle,hexagon,,,,,,,,,,,,,,,,,,,,,,,,,,,,,,,,,,,,,,,,,,,,,,,,,,,,,,
296200,2022-11-27_14h30.50.120,vts_reward_expectancy_bt,2022.2.4,Win32,60.34638827,Chrome,1504,1003,,,a,1.1394,10,213,1,0,5,5,5,1,0,1,0,0,0,0,0,1,circle,star,,,,,,,,,,,,,,,,,,,,,,,,,,,,,,,,,,,,,,,,,,,,,,,,,,,,,,
296200,2022-11-27_14h30.50.120,vts_reward_expectancy_bt,2022.2.4,Win32,60.34638827,Chrome,1504,1003,,,l,0.9338,1,214,1,0,6,6,2,1,1,0,0,0,0,0,0,1,triangle,star,,,,,,,,,,,,,,,,,,,,,,,,,,,,,,,,,,,,,,,,,,,,,,,,,,,,,,
296200,2022-11-27_14h30.50.120,vts_reward_expectancy_bt,2022.2.4,Win32,60.34638827,Chrome,1504,1003,,,l,0.8379,1,215,1,0,7,7,8,1,0,0,1,0,0,0,0,1,hexagon,star,,,,,,,,,,,,,,,,,,,,,,,,,,,,,,,,,,,,,,,,,,,,,,,,,,,,,,
296200,2022-11-27_14h30.50.120,vts_reward_expectancy_bt,2022.2.4,Win32,60.34638827,Chrome,1504,1003,,,l,0.7671,1,216,1,0,8,8,0,1,1,0,0,0,0,1,0,0,triangle,circle,,,,,,,,,,,,,,,,,,,,,,,,,,,,,,,,,,,,,,,,,,,,,,,,,,,,,,
296200,2022-11-27_14h30.50.120,vts_reward_expectancy_bt,2022.2.4,Win32,60.34638827,Chrome,1504,1003,,,a,0.744,10,226,1,0,9,9,11,1,0,0,0,1,0,0,1,0,star,hexagon,,,,,,,,,,,,,,,,,,,,,,,,,,,,,,,,,,,,,,,,,,,,,,,,,,,,,,
296200,2022-11-27_14h30.50.120,vts_reward_expectancy_bt,2022.2.4,Win32,60.34638827,Chrome,1504,1003,,,l,0.9836,1,227,1,0,10,10,10,1,0,0,0,1,0,1,0,0,star ,circle,,,,,,,,,,,,,,,,,,,,,,,,,,,,,,,,,,,,,,,,,,,,,,,,,,,,,,
296200,2022-11-27_14h30.50.120,vts_reward_expectancy_bt,2022.2.4,Win32,60.34638827,Chrome,1504,1003,,,a,0.6838,1,228,1,0,11,11,9,1,0,0,0,1,1,0,0,0,star,triangle,,,,,,,,,,,,,,,,,,,,,,,,,,,,,,,,,,,,,,,,,,,,,,,,,,,,,,
296200,2022-11-27_14h30.50.120,vts_reward_expectancy_bt,2022.2.4,Win32,60.34638827,Chrome,1504,1003,,,a,1.6004,10,238,1,1,0,12,1,1,1,0,0,0,0,0,1,0,triangle,hexagon,,,,,,,,,,,,,,,,,,,,,,,,,,,,,,,,,,,,,,,,,,,,,,,,,,,,,,
296200,2022-11-27_14h30.50.120,vts_reward_expectancy_bt,2022.2.4,Win32,60.34638827,Chrome,1504,1003,,,l,0.6835,1,239,1,1,1,13,10,1,0,0,0,1,0,1,0,0,star ,circle,,,,,,,,,,,,,,,,,,,,,,,,,,,,,,,,,,,,,,,,,,,,,,,,,,,,,,
296200,2022-11-27_14h30.50.120,vts_reward_expectancy_bt,2022.2.4,Win32,60.34638827,Chrome,1504,1003,,,l,0.7171,1,240,1,1,2,14,8,1,0,0,1,0,0,0,0,1,hexagon,star,,,,,,,,,,,,,,,,,,,,,,,,,,,,,,,,,,,,,,,,,,,,,,,,,,,,,,
296200,2022-11-27_14h30.50.120,vts_reward_expectancy_bt,2022.2.4,Win32,60.34638827,Chrome,1504,1003,,,l,0.9992,10,250,1,1,3,15,2,1,1,0,0,0,0,0,0,1,triangle,star,,,,,,,,,,,,,,,,,,,,,,,,,,,,,,,,,,,,,,,,,,,,,,,,,,,,,,
296200,2022-11-27_14h30.50.120,vts_reward_expectancy_bt,2022.2.4,Win32,60.34638827,Chrome,1504,1003,,,l,1.0174,10,260,1,1,4,16,6,1,0,0,1,0,1,0,0,0,hexagon,triangle,,,,,,,,,,,,,,,,,,,,,,,,,,,,,,,,,,,,,,,,,,,,,,,,,,,,,,
296200,2022-11-27_14h30.50.120,vts_reward_expectancy_bt,2022.2.4,Win32,60.34638827,Chrome,1504,1003,,,a,0.8685,1,261,1,1,5,17,5,1,0,1,0,0,0,0,0,1,circle,star,,,,,,,,,,,,,,,,,,,,,,,,,,,,,,,,,,,,,,,,,,,,,,,,,,,,,,
296200,2022-11-27_14h30.50.120,vts_reward_expectancy_bt,2022.2.4,Win32,60.34638827,Chrome,1504,1003,,,a,0.8566,10,271,1,1,6,18,4,1,0,1,0,0,0,0,1,0,circle,hexagon,,,,,,,,,,,,,,,,,,,,,,,,,,,,,,,,,,,,,,,,,,,,,,,,,,,,,,
296200,2022-11-27_14h30.50.120,vts_reward_expectancy_bt,2022.2.4,Win32,60.34638827,Chrome,1504,1003,,,a,0.9328,1,272,1,1,7,19,9,1,0,0,0,1,1,0,0,0,star,triangle,,,,,,,,,,,,,,,,,,,,,,,,,,,,,,,,,,,,,,,,,,,,,,,,,,,,,,
296200,2022-11-27_14h30.50.120,vts_reward_expectancy_bt,2022.2.4,Win32,60.34638827,Chrome,1504,1003,,,a,0.5345,10,282,1,1,8,20,3,1,0,1,0,0,1,0,0,0,circle,triangle,,,,,,,,,,,,,,,,,,,,,,,,,,,,,,,,,,,,,,,,,,,,,,,,,,,,,,
296200,2022-11-27_14h30.50.120,vts_reward_expectancy_bt,2022.2.4,Win32,60.34638827,Chrome,1504,1003,,,l,0.7036,10,292,1,1,9,21,7,1,0,0,1,0,0,1,0,0,hexagon,circle,,,,,,,,,,,,,,,,,,,,,,,,,,,,,,,,,,,,,,,,,,,,,,,,,,,,,,
296200,2022-11-27_14h30.50.120,vts_reward_expectancy_bt,2022.2.4,Win32,60.34638827,Chrome,1504,1003,,,l,3.3913,10,302,1,1,10,22,0,1,1,0,0,0,0,1,0,0,triangle,circle,,,,,,,,,,,,,,,,,,,,,,,,,,,,,,,,,,,,,,,,,,,,,,,,,,,,,,
296200,2022-11-27_14h30.50.120,vts_reward_expectancy_bt,2022.2.4,Win32,60.34638827,Chrome,1504,1003,,,a,1.067,1,303,1,1,11,23,11,1,0,0,0,1,0,0,1,0,star,hexagon,,,,,,,,,,,,,,,,,,,,,,,,,,,,,,,,,,,,,,,,,,,,,,,,,,,,,,
296200,2022-11-27_14h30.50.120,vts_reward_expectancy_bt,2022.2.4,Win32,60.34638827,Chrome,1504,1003,,,a,0.5832,1,304,1,2,0,24,4,1,0,1,0,0,0,0,1,0,circle,hexagon,,,,,,,,,,,,,,,,,,,,,,,,,,,,,,,,,,,,,,,,,,,,,,,,,,,,,,
296200,2022-11-27_14h30.50.120,vts_reward_expectancy_bt,2022.2.4,Win32,60.34638827,Chrome,1504,1003,,,a,0.7353,1,305,1,2,1,25,11,1,0,0,0,1,0,0,1,0,star,hexagon,,,,,,,,,,,,,,,,,,,,,,,,,,,,,,,,,,,,,,,,,,,,,,,,,,,,,,
296200,2022-11-27_14h30.50.120,vts_reward_expectancy_bt,2022.2.4,Win32,60.34638827,Chrome,1504,1003,,,l,0.8277,10,315,1,2,2,26,10,1,0,0,0,1,0,1,0,0,star ,circle,,,,,,,,,,,,,,,,,,,,,,,,,,,,,,,,,,,,,,,,,,,,,,,,,,,,,,
296200,2022-11-27_14h30.50.120,vts_reward_expectancy_bt,2022.2.4,Win32,60.34638827,Chrome,1504,1003,,,a,1.0733,10,325,1,2,3,27,1,1,1,0,0,0,0,0,1,0,triangle,hexagon,,,,,,,,,,,,,,,,,,,,,,,,,,,,,,,,,,,,,,,,,,,,,,,,,,,,,,
296200,2022-11-27_14h30.50.120,vts_reward_expectancy_bt,2022.2.4,Win32,60.34638827,Chrome,1504,1003,,,l,0.6226,10,335,1,2,4,28,7,1,0,0,1,0,0,1,0,0,hexagon,circle,,,,,,,,,,,,,,,,,,,,,,,,,,,,,,,,,,,,,,,,,,,,,,,,,,,,,,
296200,2022-11-27_14h30.50.120,vts_reward_expectancy_bt,2022.2.4,Win32,60.34638827,Chrome,1504,1003,,,a,0.8179,10,345,1,2,5,29,5,1,0,1,0,0,0,0,0,1,circle,star,,,,,,,,,,,,,,,,,,,,,,,,,,,,,,,,,,,,,,,,,,,,,,,,,,,,,,
296200,2022-11-27_14h30.50.120,vts_reward_expectancy_bt,2022.2.4,Win32,60.34638827,Chrome,1504,1003,,,a,0.7339,1,346,1,2,6,30,9,1,0,0,0,1,1,0,0,0,star,triangle,,,,,,,,,,,,,,,,,,,,,,,,,,,,,,,,,,,,,,,,,,,,,,,,,,,,,,
296200,2022-11-27_14h30.50.120,vts_reward_expectancy_bt,2022.2.4,Win32,60.34638827,Chrome,1504,1003,,,l,0.457,10,356,1,2,7,31,0,1,1,0,0,0,0,1,0,0,triangle,circle,,,,,,,,,,,,,,,,,,,,,,,,,,,,,,,,,,,,,,,,,,,,,,,,,,,,,,
296200,2022-11-27_14h30.50.120,vts_reward_expectancy_bt,2022.2.4,Win32,60.34638827,Chrome,1504,1003,,,a,0.6006,10,366,1,2,8,32,3,1,0,1,0,0,1,0,0,0,circle,triangle,,,,,,,,,,,,,,,,,,,,,,,,,,,,,,,,,,,,,,,,,,,,,,,,,,,,,,
296200,2022-11-27_14h30.50.120,vts_reward_expectancy_bt,2022.2.4,Win32,60.34638827,Chrome,1504,1003,,,l,0.5992,10,376,1,2,9,33,8,1,0,0,1,0,0,0,0,1,hexagon,star,,,,,,,,,,,,,,,,,,,,,,,,,,,,,,,,,,,,,,,,,,,,,,,,,,,,,,
296200,2022-11-27_14h30.50.120,vts_reward_expectancy_bt,2022.2.4,Win32,60.34638827,Chrome,1504,1003,,,l,0.952,1,377,1,2,10,34,6,1,0,0,1,0,1,0,0,0,hexagon,triangle,,,,,,,,,,,,,,,,,,,,,,,,,,,,,,,,,,,,,,,,,,,,,,,,,,,,,,
296200,2022-11-27_14h30.50.120,vts_reward_expectancy_bt,2022.2.4,Win32,60.34638827,Chrome,1504,1003,,,l,1.2268,10,387,1,2,11,35,2,1,1,0,0,0,0,0,0,1,triangle,star,,,,,,,,,,,,,,,,,,,,,,,,,,,,,,,,,,,,,,,,,,,,,,,,,,,,,,
296200,2022-11-27_14h30.50.120,vts_reward_expectancy_bt,2022.2.4,Win32,60.34638827,Chrome,1504,1003,,,l,1.0572,10,397,2,0,0,0,2,1,1,0,0,0,0,0,0,1,triangle,star,,,,,,,,,,,,,,,,,,,,,,,,,,,,,,,,,,,,,,,,,,,,,,,,,,,,,,
296200,2022-11-27_14h30.50.120,vts_reward_expectancy_bt,2022.2.4,Win32,60.34638827,Chrome,1504,1003,,,a,0.9837,10,407,2,0,1,1,4,1,0,1,0,0,0,0,1,0,circle,hexagon,,,,,,,,,,,,,,,,,,,,,,,,,,,,,,,,,,,,,,,,,,,,,,,,,,,,,,
296200,2022-11-27_14h30.50.120,vts_reward_expectancy_bt,2022.2.4,Win32,60.34638827,Chrome,1504,1003,,,a,0.7099,10,417,2,0,2,2,5,1,0,1,0,0,0,0,0,1,circle,star,,,,,,,,,,,,,,,,,,,,,,,,,,,,,,,,,,,,,,,,,,,,,,,,,,,,,,
296200,2022-11-27_14h30.50.120,vts_reward_expectancy_bt,2022.2.4,Win32,60.34638827,Chrome,1504,1003,,,l,0.6337,10,427,2,0,3,3,0,1,1,0,0,0,0,1,0,0,triangle,circle,,,,,,,,,,,,,,,,,,,,,,,,,,,,,,,,,,,,,,,,,,,,,,,,,,,,,,
296200,2022-11-27_14h30.50.120,vts_reward_expectancy_bt,2022.2.4,Win32,60.34638827,Chrome,1504,1003,,,l,0.9504,10,437,2,0,4,4,6,1,0,0,1,0,1,0,0,0,hexagon,triangle,,,,,,,,,,,,,,,,,,,,,,,,,,,,,,,,,,,,,,,,,,,,,,,,,,,,,,
296200,2022-11-27_14h30.50.120,vts_reward_expectancy_bt,2022.2.4,Win32,60.34638827,Chrome,1504,1003,,,a,0.6934,10,447,2,0,5,5,1,1,1,0,0,0,0,0,1,0,triangle,hexagon,,,,,,,,,,,,,,,,,,,,,,,,,,,,,,,,,,,,,,,,,,,,,,,,,,,,,,
296200,2022-11-27_14h30.50.120,vts_reward_expectancy_bt,2022.2.4,Win32,60.34638827,Chrome,1504,1003,,,a,0.8704,10,457,2,0,6,6,9,1,0,0,0,1,1,0,0,0,star,triangle,,,,,,,,,,,,,,,,,,,,,,,,,,,,,,,,,,,,,,,,,,,,,,,,,,,,,,
296200,2022-11-27_14h30.50.120,vts_reward_expectancy_bt,2022.2.4,Win32,60.34638827,Chrome,1504,1003,,,a,0.6897,10,467,2,0,7,7,3,1,0,1,0,0,1,0,0,0,circle,triangle,,,,,,,,,,,,,,,,,,,,,,,,,,,,,,,,,,,,,,,,,,,,,,,,,,,,,,
296200,2022-11-27_14h30.50.120,vts_reward_expectancy_bt,2022.2.4,Win32,60.34638827,Chrome,1504,1003,,,l,0.7874,10,477,2,0,8,8,8,1,0,0,1,0,0,0,0,1,hexagon,star,,,,,,,,,,,,,,,,,,,,,,,,,,,,,,,,,,,,,,,,,,,,,,,,,,,,,,
296200,2022-11-27_14h30.50.120,vts_reward_expectancy_bt,2022.2.4,Win32,60.34638827,Chrome,1504,1003,,,l,0.9899,10,487,2,0,9,9,10,1,0,0,0,1,0,1,0,0,star ,circle,,,,,,,,,,,,,,,,,,,,,,,,,,,,,,,,,,,,,,,,,,,,,,,,,,,,,,
296200,2022-11-27_14h30.50.120,vts_reward_expectancy_bt,2022.2.4,Win32,60.34638827,Chrome,1504,1003,,,l,0.634,1,488,2,0,10,10,7,1,0,0,1,0,0,1,0,0,hexagon,circle,,,,,,,,,,,,,,,,,,,,,,,,,,,,,,,,,,,,,,,,,,,,,,,,,,,,,,
296200,2022-11-27_14h30.50.120,vts_reward_expectancy_bt,2022.2.4,Win32,60.34638827,Chrome,1504,1003,,,a,0.5878,10,498,2,0,11,11,11,1,0,0,0,1,0,0,1,0,star,hexagon,,,,,,,,,,,,,,,,,,,,,,,,,,,,,,,,,,,,,,,,,,,,,,,,,,,,,,
296200,2022-11-27_14h30.50.120,vts_reward_expectancy_bt,2022.2.4,Win32,60.34638827,Chrome,1504,1003,,,a,0.5927,10,508,2,1,0,12,4,1,0,1,0,0,0,0,1,0,circle,hexagon,,,,,,,,,,,,,,,,,,,,,,,,,,,,,,,,,,,,,,,,,,,,,,,,,,,,,,
296200,2022-11-27_14h30.50.120,vts_reward_expectancy_bt,2022.2.4,Win32,60.34638827,Chrome,1504,1003,,,l,0.6278,10,518,2,1,1,13,2,1,1,0,0,0,0,0,0,1,triangle,star,,,,,,,,,,,,,,,,,,,,,,,,,,,,,,,,,,,,,,,,,,,,,,,,,,,,,,
296200,2022-11-27_14h30.50.120,vts_reward_expectancy_bt,2022.2.4,Win32,60.34638827,Chrome,1504,1003,,,l,0.5177,1,519,2,1,2,14,0,1,1,0,0,0,0,1,0,0,triangle,circle,,,,,,,,,,,,,,,,,,,,,,,,,,,,,,,,,,,,,,,,,,,,,,,,,,,,,,
296200,2022-11-27_14h30.50.120,vts_reward_expectancy_bt,2022.2.4,Win32,60.34638827,Chrome,1504,1003,,,a,0.6209,10,529,2,1,3,15,9,1,0,0,0,1,1,0,0,0,star,triangle,,,,,,,,,,,,,,,,,,,,,,,,,,,,,,,,,,,,,,,,,,,,,,,,,,,,,,
296200,2022-11-27_14h30.50.120,vts_reward_expectancy_bt,2022.2.4,Win32,60.34638827,Chrome,1504,1003,,,l,0.5026,1,530,2,1,4,16,10,1,0,0,0,1,0,1,0,0,star ,circle,,,,,,,,,,,,,,,,,,,,,,,,,,,,,,,,,,,,,,,,,,,,,,,,,,,,,,
296200,2022-11-27_14h30.50.120,vts_reward_expectancy_bt,2022.2.4,Win32,60.34638827,Chrome,1504,1003,,,l,1.1702,10,540,2,1,5,17,6,1,0,0,1,0,1,0,0,0,hexagon,triangle,,,,,,,,,,,,,,,,,,,,,,,,,,,,,,,,,,,,,,,,,,,,,,,,,,,,,,
296200,2022-11-27_14h30.50.120,vts_reward_expectancy_bt,2022.2.4,Win32,60.34638827,Chrome,1504,1003,,,l,0.6543,10,550,2,1,6,18,7,1,0,0,1,0,0,1,0,0,hexagon,circle,,,,,,,,,,,,,,,,,,,,,,,,,,,,,,,,,,,,,,,,,,,,,,,,,,,,,,
296200,2022-11-27_14h30.50.120,vts_reward_expectancy_bt,2022.2.4,Win32,60.34638827,Chrome,1504,1003,,,l,0.6584,10,560,2,1,7,19,5,1,0,1,0,0,0,0,0,1,circle,star,,,,,,,,,,,,,,,,,,,,,,,,,,,,,,,,,,,,,,,,,,,,,,,,,,,,,,
296200,2022-11-27_14h30.50.120,vts_reward_expectancy_bt,2022.2.4,Win32,60.34638827,Chrome,1504,1003,,,l,0.7696,1,561,2,1,8,20,3,1,0,1,0,0,1,0,0,0,circle,triangle,,,,,,,,,,,,,,,,,,,,,,,,,,,,,,,,,,,,,,,,,,,,,,,,,,,,,,
296200,2022-11-27_14h30.50.120,vts_reward_expectancy_bt,2022.2.4,Win32,60.34638827,Chrome,1504,1003,,,l,0.6338,1,562,2,1,9,21,8,1,0,0,1,0,0,0,0,1,hexagon,star,,,,,,,,,,,,,,,,,,,,,,,,,,,,,,,,,,,,,,,,,,,,,,,,,,,,,,
296200,2022-11-27_14h30.50.120,vts_reward_expectancy_bt,2022.2.4,Win32,60.34638827,Chrome,1504,1003,,,a,1.0099,1,563,2,1,10,22,11,1,0,0,0,1,0,0,1,0,star,hexagon,,,,,,,,,,,,,,,,,,,,,,,,,,,,,,,,,,,,,,,,,,,,,,,,,,,,,,
296200,2022-11-27_14h30.50.120,vts_reward_expectancy_bt,2022.2.4,Win32,60.34638827,Chrome,1504,1003,,,a,0.893,1,564,2,1,11,23,1,1,1,0,0,0,0,0,1,0,triangle,hexagon,,,,,,,,,,,,,,,,,,,,,,,,,,,,,,,,,,,,,,,,,,,,,,,,,,,,,,
296200,2022-11-27_14h30.50.120,vts_reward_expectancy_bt,2022.2.4,Win32,60.34638827,Chrome,1504,1003,,,l,0.6339,1,565,2,2,0,24,7,1,0,0,1,0,0,1,0,0,hexagon,circle,,,,,,,,,,,,,,,,,,,,,,,,,,,,,,,,,,,,,,,,,,,,,,,,,,,,,,
296200,2022-11-27_14h30.50.120,vts_reward_expectancy_bt,2022.2.4,Win32,60.34638827,Chrome,1504,1003,,,a,0.5908,1,566,2,2,1,25,3,1,0,1,0,0,1,0,0,0,circle,triangle,,,,,,,,,,,,,,,,,,,,,,,,,,,,,,,,,,,,,,,,,,,,,,,,,,,,,,
296200,2022-11-27_14h30.50.120,vts_reward_expectancy_bt,2022.2.4,Win32,60.34638827,Chrome,1504,1003,,,a,0.9169,1,567,2,2,2,26,1,1,1,0,0,0,0,0,1,0,triangle,hexagon,,,,,,,,,,,,,,,,,,,,,,,,,,,,,,,,,,,,,,,,,,,,,,,,,,,,,,
296200,2022-11-27_14h30.50.120,vts_reward_expectancy_bt,2022.2.4,Win32,60.34638827,Chrome,1504,1003,,,l,1.1505,1,568,2,2,3,27,2,1,1,0,0,0,0,0,0,1,triangle,star,,,,,,,,,,,,,,,,,,,,,,,,,,,,,,,,,,,,,,,,,,,,,,,,,,,,,,
296200,2022-11-27_14h30.50.120,vts_reward_expectancy_bt,2022.2.4,Win32,60.34638827,Chrome,1504,1003,,,a,1.1836,1,569,2,2,4,28,11,1,0,0,0,1,0,0,1,0,star,hexagon,,,,,,,,,,,,,,,,,,,,,,,,,,,,,,,,,,,,,,,,,,,,,,,,,,,,,,
296200,2022-11-27_14h30.50.120,vts_reward_expectancy_bt,2022.2.4,Win32,60.34638827,Chrome,1504,1003,,,l,0.6225,1,570,2,2,5,29,6,1,0,0,1,0,1,0,0,0,hexagon,triangle,,,,,,,,,,,,,,,,,,,,,,,,,,,,,,,,,,,,,,,,,,,,,,,,,,,,,,
296200,2022-11-27_14h30.50.120,vts_reward_expectancy_bt,2022.2.4,Win32,60.34638827,Chrome,1504,1003,,,l,0.7168,1,571,2,2,6,30,0,1,1,0,0,0,0,1,0,0,triangle,circle,,,,,,,,,,,,,,,,,,,,,,,,,,,,,,,,,,,,,,,,,,,,,,,,,,,,,,
296200,2022-11-27_14h30.50.120,vts_reward_expectancy_bt,2022.2.4,Win32,60.34638827,Chrome,1504,1003,,,a,0.7095,1,572,2,2,7,31,5,1,0,1,0,0,0,0,0,1,circle,star,,,,,,,,,,,,,,,,,,,,,,,,,,,,,,,,,,,,,,,,,,,,,,,,,,,,,,
296200,2022-11-27_14h30.50.120,vts_reward_expectancy_bt,2022.2.4,Win32,60.34638827,Chrome,1504,1003,,,l,0.4455,10,582,2,2,8,32,10,1,0,0,0,1,0,1,0,0,star ,circle,,,,,,,,,,,,,,,,,,,,,,,,,,,,,,,,,,,,,,,,,,,,,,,,,,,,,,
296200,2022-11-27_14h30.50.120,vts_reward_expectancy_bt,2022.2.4,Win32,60.34638827,Chrome,1504,1003,,,a,0.5999,10,592,2,2,9,33,4,1,0,1,0,0,0,0,1,0,circle,hexagon,,,,,,,,,,,,,,,,,,,,,,,,,,,,,,,,,,,,,,,,,,,,,,,,,,,,,,
296200,2022-11-27_14h30.50.120,vts_reward_expectancy_bt,2022.2.4,Win32,60.34638827,Chrome,1504,1003,,,a,1.1839,10,602,2,2,10,34,9,1,0,0,0,1,1,0,0,0,star,triangle,,,,,,,,,,,,,,,,,,,,,,,,,,,,,,,,,,,,,,,,,,,,,,,,,,,,,,
296200,2022-11-27_14h30.50.120,vts_reward_expectancy_bt,2022.2.4,Win32,60.34638827,Chrome,1504,1003,,,l,0.6556,1,603,2,2,11,35,8,1,0,0,1,0,0,0,0,1,hexagon,star,,,,,,,,,,,,,,,,,,,,,,,,,,,,,,,,,,,,,,,,,,,,,,,,,,,,,,
296200,2022-11-27_14h30.50.120,vts_reward_expectancy_bt,2022.2.4,Win32,60.34638827,Chrome,1504,1003,,,,,,,,,,,,,,,,,,,,,,,167,H,star,1,0,f,1.1836,0,0,0,0,0,1,,,,,,,,,,,,,,,,,,,,,,,,,,,,,,,,,,,,,,,,,
296200,2022-11-27_14h30.50.120,vts_reward_expectancy_bt,2022.2.4,Win32,60.34638827,Chrome,1504,1003,,,,,,,,,,,,,,,,,,,,,,,139,U,triangle,1,0,d,0.8004,0,1,0,1,0,1,,,,,,,,,,,,,,,,,,,,,,,,,,,,,,,,,,,,,,,,,
296200,2022-11-27_14h30.50.120,vts_reward_expectancy_bt,2022.2.4,Win32,60.34638827,Chrome,1504,1003,,,,,,,,,,,,,,,,,,,,,,,132,S,hexagon,1,0,d,0.8353,0,2,0,2,0,1,,,,,,,,,,,,,,,,,,,,,,,,,,,,,,,,,,,,,,,,,
296200,2022-11-27_14h30.50.120,vts_reward_expectancy_bt,2022.2.4,Win32,60.34638827,Chrome,1504,1003,,,,,,,,,,,,,,,,,,,,,,,146,W,circle,1,0,d,0.9184,0,3,0,3,0,1,,,,,,,,,,,,,,,,,,,,,,,,,,,,,,,,,,,,,,,,,
296200,2022-11-27_14h30.50.120,vts_reward_expectancy_bt,2022.2.4,Win32,60.34638827,Chrome,1504,1003,,,,,,,,,,,,,,,,,,,,,,,125,D,star,1,0,d,0.7334,0,4,0,4,0,1,,,,,,,,,,,,,,,,,,,,,,,,,,,,,,,,,,,,,,,,,
296200,2022-11-27_14h30.50.120,vts_reward_expectancy_bt,2022.2.4,Win32,60.34638827,Chrome,1504,1003,,,,,,,,,,,,,,,,,,,,,,,181,B,triangle,1,0,f,0.736,0,5,0,5,0,1,,,,,,,,,,,,,,,,,,,,,,,,,,,,,,,,,,,,,,,,,
296200,2022-11-27_14h30.50.120,vts_reward_expectancy_bt,2022.2.4,Win32,60.34638827,Chrome,1504,1003,,,,,,,,,,,,,,,,,,,,,,,160,F,hexagon,1,0,f,1.0065,0,6,0,6,0,1,,,,,,,,,,,,,,,,,,,,,,,,,,,,,,,,,,,,,,,,,
296200,2022-11-27_14h30.50.120,vts_reward_expectancy_bt,2022.2.4,Win32,60.34638827,Chrome,1504,1003,,,,,,,,,,,,,,,,,,,,,,,174,Y,circle,1,0,f,0.7916,0,7,0,7,0,1,,,,,,,,,,,,,,,,,,,,,,,,,,,,,,,,,,,,,,,,,
296200,2022-11-27_14h30.50.120,vts_reward_expectancy_bt,2022.2.4,Win32,60.34638827,Chrome,1504,1003,,,,,,,,,,,,,,,,,,,,,,,167,H,circle,1,0,f,0.8337,0,8,0,8,0,1,,,,,,,,,,,,,,,,,,,,,,,,,,,,,,,,,,,,,,,,,
296200,2022-11-27_14h30.50.120,vts_reward_expectancy_bt,2022.2.4,Win32,60.34638827,Chrome,1504,1003,,,,,,,,,,,,,,,,,,,,,,,139,U,star,1,0,d,0.7001,0,9,0,9,0,1,,,,,,,,,,,,,,,,,,,,,,,,,,,,,,,,,,,,,,,,,
296200,2022-11-27_14h30.50.120,vts_reward_expectancy_bt,2022.2.4,Win32,60.34638827,Chrome,1504,1003,,,,,,,,,,,,,,,,,,,,,,,167,S,triangle,1,0,,,1,,,,,,k,0.8881,0,0,0,0,1,,,,,,,,,,,,,,,,,,,,,,,,,,,,,,,,,,
296200,2022-11-27_14h30.50.120,vts_reward_expectancy_bt,2022.2.4,Win32,60.34638827,Chrome,1504,1003,,,,,,,,,,,,,,,,,,,,,,,125,H,circle,1,0,,,1,,,,,,j,1.4836,1,0,1,0,1,,,,,,,,,,,,,,,,,,,,,,,,,,,,,,,,,,
296200,2022-11-27_14h30.50.120,vts_reward_expectancy_bt,2022.2.4,Win32,60.34638827,Chrome,1504,1003,,,,,,,,,,,,,,,,,,,,,,,139,U,star,1,0,,,1,,,,,,k,0.7503,2,0,2,0,1,,,,,,,,,,,,,,,,,,,,,,,,,,,,,,,,,,
296200,2022-11-27_14h30.50.120,vts_reward_expectancy_bt,2022.2.4,Win32,60.34638827,Chrome,1504,1003,,,,,,,,,,,,,,,,,,,,,,,146,F,hexagon,1,0,,,1,,,,,,j,0.7506,3,0,3,0,1,,,,,,,,,,,,,,,,,,,,,,,,,,,,,,,,,,
296200,2022-11-27_14h30.50.120,vts_reward_expectancy_bt,2022.2.4,Win32,60.34638827,Chrome,1504,1003,,,,,,,,,,,,,,,,,,,,,,,181,Y,triangle,1,0,,,1,,,,,,k,0.9692,4,0,4,0,1,,,,,,,,,,,,,,,,,,,,,,,,,,,,,,,,,,
296200,2022-11-27_14h30.50.120,vts_reward_expectancy_bt,2022.2.4,Win32,60.34638827,Chrome,1504,1003,,,,,,,,,,,,,,,,,,,,,,,174,W,circle,1,0,,,1,,,,,,k,0.9997,5,0,5,0,1,,,,,,,,,,,,,,,,,,,,,,,,,,,,,,,,,,
296200,2022-11-27_14h30.50.120,vts_reward_expectancy_bt,2022.2.4,Win32,60.34638827,Chrome,1504,1003,,,,,,,,,,,,,,,,,,,,,,,160,D,star,1,0,,,1,,,,,,j,0.6669,6,0,6,0,1,,,,,,,,,,,,,,,,,,,,,,,,,,,,,,,,,,
296200,2022-11-27_14h30.50.120,vts_reward_expectancy_bt,2022.2.4,Win32,60.34638827,Chrome,1504,1003,,,,,,,,,,,,,,,,,,,,,,,132,B,hexagon,1,0,,,1,,,,,,j,0.6826,7,0,7,0,1,,,,,,,,,,,,,,,,,,,,,,,,,,,,,,,,,,
296200,2022-11-27_14h30.50.120,vts_reward_expectancy_bt,2022.2.4,Win32,60.34638827,Chrome,1504,1003,,,,,,,,,,,,,,,,,,,,,,,167,S,triangle,1,0,,,1,,,,,,k,0.7777,8,0,8,0,1,,,,,,,,,,,,,,,,,,,,,,,,,,,,,,,,,,
296200,2022-11-27_14h30.50.120,vts_reward_expectancy_bt,2022.2.4,Win32,60.34638827,Chrome,1504,1003,,,,,,,,,,,,,,,,,,,,,,,125,H,circle,1,0,,,1,,,,,,j,0.9837,9,0,9,0,1,,,,,,,,,,,,,,,,,,,,,,,,,,,,,,,,,,
296200,2022-11-27_14h30.50.120,vts_reward_expectancy_bt,2022.2.4,Win32,60.34638827,Chrome,1504,1003,,,,,0,603,,,,,,,,,,,,,,,,,181,D,triangle,1,0,,,2,,,,,,,,,,,,,-1,number,NA,f,1.7456,vtsPrac,0,0,0,0,1,,,,,,,,,,,,,,,,,,,,,,,
296200,2022-11-27_14h30.50.120,vts_reward_expectancy_bt,2022.2.4,Win32,60.34638827,Chrome,1504,1003,,,,,0,603,,,,,,,,,,,,,,,,,146,Y,hexagon,1,0,,,2,,,,,,,,,,,,,repeat,number,numRpt,d,1.4009,vtsPrac,1,0,1,0,1,,,,,,,,,,,,,,,,,,,,,,,
296200,2022-11-27_14h30.50.120,vts_reward_expectancy_bt,2022.2.4,Win32,60.34638827,Chrome,1504,1003,,,,,0,603,,,,,,,,,,,,,,,,,125,F,triangle,1,0,,,2,,,,,,,,,,,,,switch,letter,lettSwt,j,1.7044,vtsPrac,2,0,2,0,1,,,,,,,,,,,,,,,,,,,,,,,
296200,2022-11-27_14h30.50.120,vts_reward_expectancy_bt,2022.2.4,Win32,60.34638827,Chrome,1504,1003,,,,,0,603,,,,,,,,,,,,,,,,,132,W,hexagon,1,0,,,2,,,,,,,,,,,,,switch,number,numSwt,d,0.8611,vtsPrac,3,0,3,0,1,,,,,,,,,,,,,,,,,,,,,,,
296200,2022-11-27_14h30.50.120,vts_reward_expectancy_bt,2022.2.4,Win32,60.34638827,Chrome,1504,1003,,,,,0,603,,,,,,,,,,,,,,,,,181,D,circle,1,0,,,2,,,,,,,,,,,,,switch,letter,lettSwt,j,0.8751,vtsPrac,4,0,4,0,1,,,,,,,,,,,,,,,,,,,,,,,
296200,2022-11-27_14h30.50.120,vts_reward_expectancy_bt,2022.2.4,Win32,60.34638827,Chrome,1504,1003,,,,,0,603,,,,,,,,,,,,,,,,,146,Y,hexagon,1,0,,,2,,,,,,,,,,,,,repeat,letter,lettRpt,k,0.801,vtsPrac,5,0,5,0,1,,,,,,,,,,,,,,,,,,,,,,,
296200,2022-11-27_14h30.50.120,vts_reward_expectancy_bt,2022.2.4,Win32,60.34638827,Chrome,1504,1003,,,,,0,603,,,,,,,,,,,,,,,,,125,F,hexagon,1,0,,,2,,,,,,,,,,,,,repeat,letter,lettRpt,j,0.8504,vtsPrac,6,0,6,0,1,,,,,,,,,,,,,,,,,,,,,,,
296200,2022-11-27_14h30.50.120,vts_reward_expectancy_bt,2022.2.4,Win32,60.34638827,Chrome,1504,1003,,,,,0,603,,,,,,,,,,,,,,,,,132,W,circle,1,0,,,2,,,,,,,,,,,,,repeat,letter,lettRpt,k,0.6742,vtsPrac,7,0,7,0,1,,,,,,,,,,,,,,,,,,,,,,,
296200,2022-11-27_14h30.50.120,vts_reward_expectancy_bt,2022.2.4,Win32,60.34638827,Chrome,1504,1003,,,,,0,603,,,,,,,,,,,,,,,,,167,F,hexagon,1,0,,,2,,,,,,,,,,,,,switch,number,numSwt,f,0.7839,vtsPrac,8,0,8,0,1,,,,,,,,,,,,,,,,,,,,,,,
296200,2022-11-27_14h30.50.120,vts_reward_expectancy_bt,2022.2.4,Win32,60.34638827,Chrome,1504,1003,,,,,0,603,,,,,,,,,,,,,,,,,139,S,star,1,0,,,2,,,,,,,,,,,,,switch,letter,lettSwt,k,1.0507,vtsPrac,9,0,9,0,1,,,,,,,,,,,,,,,,,,,,,,,
296200,2022-11-27_14h30.50.120,vts_reward_expectancy_bt,2022.2.4,Win32,60.34638827,Chrome,1504,1003,,,,,0,603,,,,,,,,,,,,,,,,,125,Y,hexagon,1,0,,,2,,,,,,,,,,,,,switch,number,numSwt,d,0.7668,vtsPrac,10,0,10,0,1,,,,,,,,,,,,,,,,,,,,,,,
296200,2022-11-27_14h30.50.120,vts_reward_expectancy_bt,2022.2.4,Win32,60.34638827,Chrome,1504,1003,,,,,0,603,,,,,,,,,,,,,,,,,160,H,circle,1,0,,,2,,,,,,,,,,,,,repeat,number,numRpt,f,0.8552,vtsPrac,11,0,11,0,1,,,,,,,,,,,,,,,,,,,,,,,
296200,2022-11-27_14h30.50.120,vts_reward_expectancy_bt,2022.2.4,Win32,60.34638827,Chrome,1504,1003,,,,,0,603,,,,,,,,,,,,,,,,,160,F,circle,1,0,,,2,,,,,,,,,,,,,repeat,number,numRpt,f,0.7081,vtsPrac,12,0,12,0,1,,,,,,,,,,,,,,,,,,,,,,,
296200,2022-11-27_14h30.50.120,vts_reward_expectancy_bt,2022.2.4,Win32,60.34638827,Chrome,1504,1003,,,,,0,603,,,,,,,,,,,,,,,,,125,Y,triangle,1,0,,,2,,,,,,,,,,,,,switch,letter,lettSwt,k,0.9852,vtsPrac,13,0,13,0,1,,,,,,,,,,,,,,,,,,,,,,,
296200,2022-11-27_14h30.50.120,vts_reward_expectancy_bt,2022.2.4,Win32,60.34638827,Chrome,1504,1003,,,,,0,603,,,,,,,,,,,,,,,,,139,U,triangle,1,0,,,2,,,,,,,,,,,,,repeat,letter,lettRpt,k,0.9169,vtsPrac,14,0,14,0,1,,,,,,,,,,,,,,,,,,,,,,,
296200,2022-11-27_14h30.50.120,vts_reward_expectancy_bt,2022.2.4,Win32,60.34638827,Chrome,1504,1003,,,,,0,603,,,,,,,,,,,,,,,,,181,W,hexagon,1,0,,,2,,,,,,,,,,,,,switch,number,numSwt,f,0.9783,vtsPrac,15,0,15,0,1,,,,,,,,,,,,,,,,,,,,,,,
296200,2022-11-27_14h30.50.120,vts_reward_expectancy_bt,2022.2.4,Win32,60.34638827,Chrome,1504,1003,,,,,0,603,,,,,,,,,,,,,,,,,125,D,circle,1,0,,,2,,,,,,,,,,,,,switch,letter,lettSwt,j,0.7003,vtsPrac,16,0,16,0,1,,,,,,,,,,,,,,,,,,,,,,,
296200,2022-11-27_14h30.50.120,vts_reward_expectancy_bt,2022.2.4,Win32,60.34638827,Chrome,1504,1003,,,,,0,603,,,,,,,,,,,,,,,,,139,W,hexagon,1,0,,,2,,,,,,,,,,,,,repeat,letter,lettRpt,k,0.6834,vtsPrac,17,0,17,0,1,,,,,,,,,,,,,,,,,,,,,,,
296200,2022-11-27_14h30.50.120,vts_reward_expectancy_bt,2022.2.4,Win32,60.34638827,Chrome,1504,1003,,,,,0,603,,,,,,,,,,,,,,,,,181,B,hexagon,1,0,,,2,,,,,,,,,,,,,repeat,letter,lettRpt,j,0.7504,vtsPrac,18,0,18,0,1,,,,,,,,,,,,,,,,,,,,,,,
296200,2022-11-27_14h30.50.120,vts_reward_expectancy_bt,2022.2.4,Win32,60.34638827,Chrome,1504,1003,,,,,0,603,,,,,,,,,,,,,,,,,146,H,circle,1,0,,,2,,,,,,,,,,,,,repeat,letter,lettRpt,j,1.3106,vtsPrac,19,0,19,0,1,,,,,,,,,,,,,,,,,,,,,,,
296200,2022-11-27_14h30.50.120,vts_reward_expectancy_bt,2022.2.4,Win32,60.34638827,Chrome,1504,1003,,,,,0,603,,,,,,,,,,,,,,,,,167,F,triangle,1,0,,,2,,,,,,,,,,,,,switch,number,numSwt,f,1.1836,vtsPrac,20,0,20,0,1,,,,,,,,,,,,,,,,,,,,,,,
296200,2022-11-27_14h30.50.120,vts_reward_expectancy_bt,2022.2.4,Win32,60.34638827,Chrome,1504,1003,,,,,0,603,,,,,,,,,,,,,,,,,132,W,circle,1,0,,,2,,,,,,,,,,,,,switch,letter,lettSwt,k,0.968,vtsPrac,21,0,21,0,1,,,,,,,,,,,,,,,,,,,,,,,
296200,2022-11-27_14h30.50.120,vts_reward_expectancy_bt,2022.2.4,Win32,60.34638827,Chrome,1504,1003,,,,,0,603,,,,,,,,,,,,,,,,,160,B,circle,1,0,,,2,,,,,,,,,,,,,switch,number,numSwt,f,0.7768,vtsPrac,22,0,22,0,1,,,,,,,,,,,,,,,,,,,,,,,
296200,2022-11-27_14h30.50.120,vts_reward_expectancy_bt,2022.2.4,Win32,60.34638827,Chrome,1504,1003,,,,,0,603,,,,,,,,,,,,,,,,,174,S,star,1,0,,,2,,,,,,,,,,,,,repeat,number,numRpt,f,0.6347,vtsPrac,23,0,23,0,1,,,,,,,,,,,,,,,,,,,,,,,
296200,2022-11-27_14h30.50.120,vts_reward_expectancy_bt,2022.2.4,Win32,60.34638827,Chrome,1504,1003,,,,,0,603,,,,,,,,,,,,,,,,,181,S,triangle,1,0,,,2,,,,,,,,,,,,,repeat,number,numRpt,f,0.7835,vtsPrac,24,0,24,0,1,,,,,,,,,,,,,,,,,,,,,,,
296200,2022-11-27_14h30.50.120,vts_reward_expectancy_bt,2022.2.4,Win32,60.34638827,Chrome,1504,1003,,,,,0,603,,,,,,,,,,,,,,,,,139,D,circle,1,0,,,2,,,,,,,,,,,,,switch,letter,lettSwt,j,0.8835,vtsPrac,25,0,25,0,1,,,,,,,,,,,,,,,,,,,,,,,
296200,2022-11-27_14h30.50.120,vts_reward_expectancy_bt,2022.2.4,Win32,60.34638827,Chrome,1504,1003,,,,,0,603,,,,,,,,,,,,,,,,,160,W,hexagon,1,0,,,2,,,,,,,,,,,,,switch,number,numSwt,f,0.7724,vtsPrac,26,0,26,0,1,,,,,,,,,,,,,,,,,,,,,,,
296200,2022-11-27_14h30.50.120,vts_reward_expectancy_bt,2022.2.4,Win32,60.34638827,Chrome,1504,1003,,,,,0,603,,,,,,,,,,,,,,,,,125,U,circle,1,0,,,2,,,,,,,,,,,,,repeat,number,numRpt,d,0.7576,vtsPrac,27,0,27,0,1,,,,,,,,,,,,,,,,,,,,,,,
296200,2022-11-27_14h30.50.120,vts_reward_expectancy_bt,2022.2.4,Win32,60.34638827,Chrome,1504,1003,,,,,0,603,,,,,,,,,,,,,,,,,132,Y,triangle,1,0,,,2,,,,,,,,,,,,,repeat,number,numRpt,d,0.7739,vtsPrac,28,0,28,0,1,,,,,,,,,,,,,,,,,,,,,,,
296200,2022-11-27_14h30.50.120,vts_reward_expectancy_bt,2022.2.4,Win32,60.34638827,Chrome,1504,1003,,,,,0,603,,,,,,,,,,,,,,,,,125,B,circle,1,0,,,2,,,,,,,,,,,,,switch,letter,lettSwt,j,0.8003,vtsPrac,29,0,29,0,1,,,,,,,,,,,,,,,,,,,,,,,
296200,2022-11-27_14h30.50.120,vts_reward_expectancy_bt,2022.2.4,Win32,60.34638827,Chrome,1504,1003,,,,,0,603,,,,,,,,,,,,,,,,,167,D,circle,1,0,,,2,,,,,,,,,,,,,repeat,letter,lettRpt,j,0.6607,vtsPrac,30,0,30,0,1,,,,,,,,,,,,,,,,,,,,,,,
296200,2022-11-27_14h30.50.120,vts_reward_expectancy_bt,2022.2.4,Win32,60.34638827,Chrome,1504,1003,,,,,0,603,,,,,,,,,,,,,,,,,160,S,hexagon,1,0,,,2,,,,,,,,,,,,,switch,number,numSwt,f,1.2345,vtsPrac,31,0,31,0,1,,,,,,,,,,,,,,,,,,,,,,,
296200,2022-11-27_14h30.50.120,vts_reward_expectancy_bt,2022.2.4,Win32,60.34638827,Chrome,1504,1003,,,,,,,,,,,,,,,,,,,,,,,,,,,,,,,,,,,,,,,,,,,,,,,,,,,,,,,,,,,,,,,,,,,,,,,,,,,,
296200,2022-11-27_14h30.50.120,vts_reward_expectancy_bt,2022.2.4,Win32,60.34638827,Chrome,1504,1003,,,,,,,,,,,,,,,,,,,,,,,,,,,,,,,,,,,,,,,,,,,,,,,,,,,,,,,,,,,,,,,,,,,,,,,,,,,,
296200,2022-11-27_14h30.50.120,vts_reward_expectancy_bt,2022.2.4,Win32,60.34638827,Chrome,1504,1003,,,,,0,603,,,,,,,,,,,,,,,,,125,S,hexagon,1,0,,,,,,,,,,,,,,,,repeat,number,numRpt,d,0.9672,noRew,,,,,,0,0,0,0,0,1,,,,,,,,,,,,,,,,,
296200,2022-11-27_14h30.50.120,vts_reward_expectancy_bt,2022.2.4,Win32,60.34638827,Chrome,1504,1003,,,,,0,603,,,,,,,,,,,,,,,,,160,F,triangle,1,0,,,,,,,,,,,,,,,,repeat,number,numRpt,f,0.7502,noRew,,,,,,0,1,0,1,0,1,,,,,,,,,,,,,,,,,
296200,2022-11-27_14h30.50.120,vts_reward_expectancy_bt,2022.2.4,Win32,60.34638827,Chrome,1504,1003,,,,,0,603,,,,,,,,,,,,,,,,,139,H,hexagon,1,0,,,,,,,,,,,,,,,,switch,letter,lettSwt,j,0.9337,noRew,,,,,,0,2,0,2,0,1,,,,,,,,,,,,,,,,,
296200,2022-11-27_14h30.50.120,vts_reward_expectancy_bt,2022.2.4,Win32,60.34638827,Chrome,1504,1003,,,,,0,603,,,,,,,,,,,,,,,,,132,W,triangle,1,0,,,,,,,,,,,,,,,,switch,number,numSwt,d,0.8837,noRew,,,,,,0,3,0,3,0,1,,,,,,,,,,,,,,,,,
296200,2022-11-27_14h30.50.120,vts_reward_expectancy_bt,2022.2.4,Win32,60.34638827,Chrome,1504,1003,,,,,0,603,,,,,,,,,,,,,,,,,125,S,star,0,0,,,,,,,,,,,,,,,,switch,letter,NA,j,0.9865,noRew,,,,,,0,4,0,4,0,1,,,,,,,,,,,,,,,,,
296200,2022-11-27_14h30.50.120,vts_reward_expectancy_bt,2022.2.4,Win32,60.34638827,Chrome,1504,1003,,,,,0,603,,,,,,,,,,,,,,,,,160,F,hexagon,1,1,,,,,,,,,,,,,,,,repeat,letter,lettRpt,j,0.8327,noRew,,,,,,0,5,0,5,0,1,,,,,,,,,,,,,,,,,
296200,2022-11-27_14h30.50.120,vts_reward_expectancy_bt,2022.2.4,Win32,60.34638827,Chrome,1504,1003,,,,,0,603,,,,,,,,,,,,,,,,,139,H,triangle,1,0,,,,,,,,,,,,,,,,repeat,letter,lettRpt,j,0.9426,noRew,,,,,,0,6,0,6,0,1,,,,,,,,,,,,,,,,,
296200,2022-11-27_14h30.50.120,vts_reward_expectancy_bt,2022.2.4,Win32,60.34638827,Chrome,1504,1003,,,,,0,603,,,,,,,,,,,,,,,,,132,W,star,1,0,,,,,,,,,,,,,,,,repeat,letter,lettRpt,k,0.7582,noRew,,,,,,0,7,0,7,0,1,,,,,,,,,,,,,,,,,
296200,2022-11-27_14h30.50.120,vts_reward_expectancy_bt,2022.2.4,Win32,60.34638827,Chrome,1504,1003,,,,,0,603,,,,,,,,,,,,,,,,,160,F,triangle,1,0,,,,,,,,,,,,,,,,switch,number,numSwt,f,0.9193,noRew,,,,,,0,8,0,8,0,1,,,,,,,,,,,,,,,,,
296200,2022-11-27_14h30.50.120,vts_reward_expectancy_bt,2022.2.4,Win32,60.34638827,Chrome,1504,1003,,,,,0,603,,,,,,,,,,,,,,,,,139,B,star,1,0,,,,,,,,,,,,,,,,repeat,number,numRpt,d,1.2834,noRew,,,,,,0,9,0,9,0,1,,,,,,,,,,,,,,,,,
296200,2022-11-27_14h30.50.120,vts_reward_expectancy_bt,2022.2.4,Win32,60.34638827,Chrome,1504,1003,,,,,0,603,,,,,,,,,,,,,,,,,167,H,triangle,1,0,,,,,,,,,,,,,,,,switch,letter,lettSwt,j,1.3337,noRew,,,,,,0,10,0,10,0,1,,,,,,,,,,,,,,,,,
296200,2022-11-27_14h30.50.120,vts_reward_expectancy_bt,2022.2.4,Win32,60.34638827,Chrome,1504,1003,,,,,0,603,,,,,,,,,,,,,,,,,174,Y,hexagon,1,0,,,,,,,,,,,,,,,,switch,number,numSwt,f,1.0336,noRew,,,,,,0,11,0,11,0,1,,,,,,,,,,,,,,,,,
296200,2022-11-27_14h30.50.120,vts_reward_expectancy_bt,2022.2.4,Win32,60.34638827,Chrome,1504,1003,,,,,0,603,,,,,,,,,,,,,,,,,125,B,triangle,1,0,,,,,,,,,,,,,,,,switch,letter,lettSwt,j,0.7618,noRew,,,,,,0,12,0,12,0,1,,,,,,,,,,,,,,,,,
296200,2022-11-27_14h30.50.120,vts_reward_expectancy_bt,2022.2.4,Win32,60.34638827,Chrome,1504,1003,,,,,0,603,,,,,,,,,,,,,,,,,181,F,hexagon,1,0,,,,,,,,,,,,,,,,switch,number,numSwt,f,0.9754,noRew,,,,,,0,13,0,13,0,1,,,,,,,,,,,,,,,,,
296200,2022-11-27_14h30.50.120,vts_reward_expectancy_bt,2022.2.4,Win32,60.34638827,Chrome,1504,1003,,,,,0,603,,,,,,,,,,,,,,,,,167,W,circle,1,0,,,,,,,,,,,,,,,,repeat,number,numRpt,f,0.926,noRew,,,,,,0,14,0,14,0,1,,,,,,,,,,,,,,,,,
296200,2022-11-27_14h30.50.120,vts_reward_expectancy_bt,2022.2.4,Win32,60.34638827,Chrome,1504,1003,,,,,0,603,,,,,,,,,,,,,,,,,132,S,hexagon,1,0,,,,,,,,,,,,,,,,repeat,number,numRpt,d,0.7182,noRew,,,,,,0,15,0,15,0,1,,,,,,,,,,,,,,,,,
296200,2022-11-27_14h30.50.120,vts_reward_expectancy_bt,2022.2.4,Win32,60.34638827,Chrome,1504,1003,,,,,0,603,,,,,,,,,,,,,,,,,125,F,star,1,0,,,,,,,,,,,,,,,,switch,letter,lettSwt,j,1.0336,noRew,,,,,,0,16,0,16,0,1,,,,,,,,,,,,,,,,,
296200,2022-11-27_14h30.50.120,vts_reward_expectancy_bt,2022.2.4,Win32,60.34638827,Chrome,1504,1003,,,,,0,603,,,,,,,,,,,,,,,,,174,S,hexagon,1,0,,,,,,,,,,,,,,,,repeat,letter,lettRpt,k,0.991,noRew,,,,,,0,17,0,17,0,1,,,,,,,,,,,,,,,,,
296200,2022-11-27_14h30.50.120,vts_reward_expectancy_bt,2022.2.4,Win32,60.34638827,Chrome,1504,1003,,,,,0,603,,,,,,,,,,,,,,,,,181,H,circle,1,0,,,,,,,,,,,,,,,,switch,number,numSwt,f,0.9502,noRew,,,,,,0,18,0,18,0,1,,,,,,,,,,,,,,,,,
296200,2022-11-27_14h30.50.120,vts_reward_expectancy_bt,2022.2.4,Win32,60.34638827,Chrome,1504,1003,,,,,0,603,,,,,,,,,,,,,,,,,139,Y,triangle,1,0,,,,,,,,,,,,,,,,switch,letter,lettSwt,k,0.7889,noRew,,,,,,0,19,0,19,0,1,,,,,,,,,,,,,,,,,
296200,2022-11-27_14h30.50.120,vts_reward_expectancy_bt,2022.2.4,Win32,60.34638827,Chrome,1504,1003,,,,,0,603,,,,,,,,,,,,,,,,,174,U,circle,1,0,,,,,,,,,,,,,,,,repeat,letter,lettRpt,k,1.7671,noRew,,,,,,0,20,0,20,0,1,,,,,,,,,,,,,,,,,
296200,2022-11-27_14h30.50.120,vts_reward_expectancy_bt,2022.2.4,Win32,60.34638827,Chrome,1504,1003,,,,,0,603,,,,,,,,,,,,,,,,,167,D,hexagon,1,0,,,,,,,,,,,,,,,,repeat,letter,lettRpt,j,1.3835,noRew,,,,,,0,21,0,21,0,1,,,,,,,,,,,,,,,,,
296200,2022-11-27_14h30.50.120,vts_reward_expectancy_bt,2022.2.4,Win32,60.34638827,Chrome,1504,1003,,,,,0,603,,,,,,,,,,,,,,,,,125,F,triangle,1,0,,,,,,,,,,,,,,,,repeat,letter,lettRpt,j,0.8085,noRew,,,,,,0,22,0,22,0,1,,,,,,,,,,,,,,,,,
296200,2022-11-27_14h30.50.120,vts_reward_expectancy_bt,2022.2.4,Win32,60.34638827,Chrome,1504,1003,,,,,0,603,,,,,,,,,,,,,,,,,160,B,circle,1,0,,,,,,,,,,,,,,,,switch,number,numSwt,f,0.7837,noRew,,,,,,0,23,0,23,0,1,,,,,,,,,,,,,,,,,
296200,2022-11-27_14h30.50.120,vts_reward_expectancy_bt,2022.2.4,Win32,60.34638827,Chrome,1504,1003,,,,,0,603,,,,,,,,,,,,,,,,,167,Y,circle,1,0,,,,,,,,,,,,,,,,repeat,number,numRpt,f,1.9444,noRew,,,,,,0,24,0,24,0,1,,,,,,,,,,,,,,,,,
296200,2022-11-27_14h30.50.120,vts_reward_expectancy_bt,2022.2.4,Win32,60.34638827,Chrome,1504,1003,,,,,0,603,,,,,,,,,,,,,,,,,146,W,hexagon,1,0,,,,,,,,,,,,,,,,repeat,number,numRpt,d,0.993,noRew,,,,,,0,25,0,25,0,1,,,,,,,,,,,,,,,,,
296200,2022-11-27_14h30.50.120,vts_reward_expectancy_bt,2022.2.4,Win32,60.34638827,Chrome,1504,1003,,,,,0,603,,,,,,,,,,,,,,,,,174,H,hexagon,0,0,,,,,,,,,,,,,,,,switch,letter,NA,k,1.3337,noRew,,,,,,0,26,0,26,0,1,,,,,,,,,,,,,,,,,
296200,2022-11-27_14h30.50.120,vts_reward_expectancy_bt,2022.2.4,Win32,60.34638827,Chrome,1504,1003,,,,,0,603,,,,,,,,,,,,,,,,,181,D,circle,1,1,,,,,,,,,,,,,,,,switch,number,numSwt,f,0.8499,noRew,,,,,,0,27,0,27,0,1,,,,,,,,,,,,,,,,,
296200,2022-11-27_14h30.50.120,vts_reward_expectancy_bt,2022.2.4,Win32,60.34638827,Chrome,1504,1003,,,,,0,603,,,,,,,,,,,,,,,,,125,D,hexagon,1,0,,,,,,,,,,,,,,,,switch,letter,lettSwt,j,0.6197,noRew,,,,,,0,28,0,28,0,1,,,,,,,,,,,,,,,,,
296200,2022-11-27_14h30.50.120,vts_reward_expectancy_bt,2022.2.4,Win32,60.34638827,Chrome,1504,1003,,,,,0,603,,,,,,,,,,,,,,,,,181,F,triangle,1,0,,,,,,,,,,,,,,,,repeat,letter,lettRpt,j,0.8836,noRew,,,,,,0,29,0,29,0,1,,,,,,,,,,,,,,,,,
296200,2022-11-27_14h30.50.120,vts_reward_expectancy_bt,2022.2.4,Win32,60.34638827,Chrome,1504,1003,,,,,0,603,,,,,,,,,,,,,,,,,160,U,circle,1,0,,,,,,,,,,,,,,,,switch,number,numSwt,f,0.8608,noRew,,,,,,0,30,0,30,0,1,,,,,,,,,,,,,,,,,
296200,2022-11-27_14h30.50.120,vts_reward_expectancy_bt,2022.2.4,Win32,60.34638827,Chrome,1504,1003,,,,,0,603,,,,,,,,,,,,,,,,,167,B,triangle,1,0,,,,,,,,,,,,,,,,repeat,number,numRpt,f,0.7161,noRew,,,,,,0,31,0,31,0,1,,,,,,,,,,,,,,,,,
296200,2022-11-27_14h30.50.120,vts_reward_expectancy_bt,2022.2.4,Win32,60.34638827,Chrome,1504,1003,,,,,0,603,,,,,,,,,,,,,,,,,160,B,triangle,1,0,,,,,,,,,,,,,,,,switch,letter,lettSwt,j,1.4336,noRew,,,,,,0,32,0,32,0,1,,,,,,,,,,,,,,,,,
296200,2022-11-27_14h30.50.120,vts_reward_expectancy_bt,2022.2.4,Win32,60.34638827,Chrome,1504,1003,,,,,0,603,,,,,,,,,,,,,,,,,132,Y,hexagon,1,0,,,,,,,,,,,,,,,,switch,number,numSwt,d,1.3084,noRew,,,,,,0,33,0,33,0,1,,,,,,,,,,,,,,,,,
296200,2022-11-27_14h30.50.120,vts_reward_expectancy_bt,2022.2.4,Win32,60.34638827,Chrome,1504,1003,,,,,0,603,,,,,,,,,,,,,,,,,174,D,hexagon,1,0,,,,,,,,,,,,,,,,switch,letter,lettSwt,j,0.8734,noRew,,,,,,0,34,0,34,0,1,,,,,,,,,,,,,,,,,
296200,2022-11-27_14h30.50.120,vts_reward_expectancy_bt,2022.2.4,Win32,60.34638827,Chrome,1504,1003,,,,,0,603,,,,,,,,,,,,,,,,,146,S,triangle,1,0,,,,,,,,,,,,,,,,repeat,letter,lettRpt,k,0.7055,noRew,,,,,,0,35,0,35,0,1,,,,,,,,,,,,,,,,,
296200,2022-11-27_14h30.50.120,vts_reward_expectancy_bt,2022.2.4,Win32,60.34638827,Chrome,1504,1003,,,,,0,603,,,,,,,,,,,,,,,,,181,B,triangle,1,0,,,,,,,,,,,,,,,,repeat,letter,lettRpt,j,0.7028,noRew,,,,,,0,36,0,36,0,1,,,,,,,,,,,,,,,,,
296200,2022-11-27_14h30.50.120,vts_reward_expectancy_bt,2022.2.4,Win32,60.34638827,Chrome,1504,1003,,,,,0,603,,,,,,,,,,,,,,,,,132,S,hexagon,1,0,,,,,,,,,,,,,,,,switch,number,numSwt,d,0.9167,noRew,,,,,,0,37,0,37,0,1,,,,,,,,,,,,,,,,,
296200,2022-11-27_14h30.50.120,vts_reward_expectancy_bt,2022.2.4,Win32,60.34638827,Chrome,1504,1003,,,,,0,603,,,,,,,,,,,,,,,,,174,F,triangle,1,0,,,,,,,,,,,,,,,,switch,letter,lettSwt,j,0.5933,noRew,,,,,,0,38,0,38,0,1,,,,,,,,,,,,,,,,,
296200,2022-11-27_14h30.50.120,vts_reward_expectancy_bt,2022.2.4,Win32,60.34638827,Chrome,1504,1003,,,,,0,603,,,,,,,,,,,,,,,,,139,D,hexagon,1,0,,,,,,,,,,,,,,,,switch,number,numSwt,d,0.8655,noRew,,,,,,0,39,0,39,0,1,,,,,,,,,,,,,,,,,
296200,2022-11-27_14h30.50.120,vts_reward_expectancy_bt,2022.2.4,Win32,60.34638827,Chrome,1504,1003,,,,,0,603,,,,,,,,,,,,,,,,,146,H,circle,1,0,,,,,,,,,,,,,,,,repeat,number,numRpt,d,0.5265,noRew,,,,,,0,40,0,40,0,1,,,,,,,,,,,,,,,,,
296200,2022-11-27_14h30.50.120,vts_reward_expectancy_bt,2022.2.4,Win32,60.34638827,Chrome,1504,1003,,,,,0,603,,,,,,,,,,,,,,,,,181,B,triangle,1,0,,,,,,,,,,,,,,,,switch,letter,lettSwt,j,0.9527,noRew,,,,,,0,41,0,41,0,1,,,,,,,,,,,,,,,,,
296200,2022-11-27_14h30.50.120,vts_reward_expectancy_bt,2022.2.4,Win32,60.34638827,Chrome,1504,1003,,,,,0,603,,,,,,,,,,,,,,,,,132,U,circle,1,0,,,,,,,,,,,,,,,,repeat,letter,lettRpt,k,0.7511,noRew,,,,,,0,42,0,42,0,1,,,,,,,,,,,,,,,,,
296200,2022-11-27_14h30.50.120,vts_reward_expectancy_bt,2022.2.4,Win32,60.34638827,Chrome,1504,1003,,,,,0,603,,,,,,,,,,,,,,,,,160,W,triangle,1,0,,,,,,,,,,,,,,,,switch,number,numSwt,f,1.2704,noRew,,,,,,0,43,0,43,0,1,,,,,,,,,,,,,,,,,
296200,2022-11-27_14h30.50.120,vts_reward_expectancy_bt,2022.2.4,Win32,60.34638827,Chrome,1504,1003,,,,,0,603,,,,,,,,,,,,,,,,,146,D,triangle,1,0,,,,,,,,,,,,,,,,repeat,number,numRpt,d,1.0169,noRew,,,,,,0,44,0,44,0,1,,,,,,,,,,,,,,,,,
296200,2022-11-27_14h30.50.120,vts_reward_expectancy_bt,2022.2.4,Win32,60.34638827,Chrome,1504,1003,,,,,0,603,,,,,,,,,,,,,,,,,160,F,star,1,0,,,,,,,,,,,,,,,,repeat,number,numRpt,f,0.6019,noRew,,,,,,0,45,0,45,0,1,,,,,,,,,,,,,,,,,
296200,2022-11-27_14h30.50.120,vts_reward_expectancy_bt,2022.2.4,Win32,60.34638827,Chrome,1504,1003,,,,,0,603,,,,,,,,,,,,,,,,,125,B,hexagon,1,0,,,,,,,,,,,,,,,,repeat,number,numRpt,d,0.6216,noRew,,,,,,0,46,0,46,0,1,,,,,,,,,,,,,,,,,
296200,2022-11-27_14h30.50.120,vts_reward_expectancy_bt,2022.2.4,Win32,60.34638827,Chrome,1504,1003,,,,,0,603,,,,,,,,,,,,,,,,,167,W,star,1,0,,,,,,,,,,,,,,,,switch,letter,lettSwt,k,0.8847,noRew,,,,,,0,47,0,47,0,1,,,,,,,,,,,,,,,,,
296200,2022-11-27_14h30.50.120,vts_reward_expectancy_bt,2022.2.4,Win32,60.34638827,Chrome,1504,1003,,,,,0,603,,,,,,,,,,,,,,,,,174,Y,hexagon,1,0,,,,,,,,,,,,,,,,repeat,letter,lettRpt,k,0.7836,noRew,,,,,,0,48,0,48,0,1,,,,,,,,,,,,,,,,,
296200,2022-11-27_14h30.50.120,vts_reward_expectancy_bt,2022.2.4,Win32,60.34638827,Chrome,1504,1003,,,,,0,603,,,,,,,,,,,,,,,,,160,B,triangle,1,0,,,,,,,,,,,,,,,,switch,number,numSwt,f,0.7844,noRew,,,,,,0,49,0,49,0,1,,,,,,,,,,,,,,,,,
296200,2022-11-27_14h30.50.120,vts_reward_expectancy_bt,2022.2.4,Win32,60.34638827,Chrome,1504,1003,,,,,0,603,,,,,,,,,,,,,,,,,132,F,star,1,0,,,,,,,,,,,,,,,,repeat,number,numRpt,d,1.0742,noRew,,,,,,0,50,0,50,0,1,,,,,,,,,,,,,,,,,
296200,2022-11-27_14h30.50.120,vts_reward_expectancy_bt,2022.2.4,Win32,60.34638827,Chrome,1504,1003,,,,,0,603,,,,,,,,,,,,,,,,,181,H,circle,0,0,,,,,,,,,,,,,,,,switch,letter,NA,k,0.9002,noRew,,,,,,0,51,0,51,0,1,,,,,,,,,,,,,,,,,
296200,2022-11-27_14h30.50.120,vts_reward_expectancy_bt,2022.2.4,Win32,60.34638827,Chrome,1504,1003,,,,,0,603,,,,,,,,,,,,,,,,,181,U,triangle,1,1,,,,,,,,,,,,,,,,repeat,letter,lettRpt,k,1.0213,noRew,,,,,,0,52,0,52,0,1,,,,,,,,,,,,,,,,,
296200,2022-11-27_14h30.50.120,vts_reward_expectancy_bt,2022.2.4,Win32,60.34638827,Chrome,1504,1003,,,,,0,603,,,,,,,,,,,,,,,,,132,B,circle,1,0,,,,,,,,,,,,,,,,repeat,letter,lettRpt,j,0.7002,noRew,,,,,,0,53,0,53,0,1,,,,,,,,,,,,,,,,,
296200,2022-11-27_14h30.50.120,vts_reward_expectancy_bt,2022.2.4,Win32,60.34638827,Chrome,1504,1003,,,,,0,603,,,,,,,,,,,,,,,,,160,D,star,1,0,,,,,,,,,,,,,,,,switch,number,numSwt,f,0.6335,noRew,,,,,,0,54,0,54,0,1,,,,,,,,,,,,,,,,,
296200,2022-11-27_14h30.50.120,vts_reward_expectancy_bt,2022.2.4,Win32,60.34638827,Chrome,1504,1003,,,,,0,603,,,,,,,,,,,,,,,,,125,F,triangle,1,0,,,,,,,,,,,,,,,,repeat,number,numRpt,d,0.6007,noRew,,,,,,0,55,0,55,0,1,,,,,,,,,,,,,,,,,
296200,2022-11-27_14h30.50.120,vts_reward_expectancy_bt,2022.2.4,Win32,60.34638827,Chrome,1504,1003,,,,,0,603,,,,,,,,,,,,,,,,,139,F,circle,1,0,,,,,,,,,,,,,,,,repeat,number,numRpt,d,0.7337,noRew,,,,,,0,56,0,56,0,1,,,,,,,,,,,,,,,,,
296200,2022-11-27_14h30.50.120,vts_reward_expectancy_bt,2022.2.4,Win32,60.34638827,Chrome,1504,1003,,,,,0,603,,,,,,,,,,,,,,,,,181,U,star,1,0,,,,,,,,,,,,,,,,switch,letter,lettSwt,k,0.9569,noRew,,,,,,0,57,0,57,0,1,,,,,,,,,,,,,,,,,
296200,2022-11-27_14h30.50.120,vts_reward_expectancy_bt,2022.2.4,Win32,60.34638827,Chrome,1504,1003,,,,,0,603,,,,,,,,,,,,,,,,,174,W,circle,1,0,,,,,,,,,,,,,,,,repeat,letter,lettRpt,k,1.0168,noRew,,,,,,0,58,0,58,0,1,,,,,,,,,,,,,,,,,
296200,2022-11-27_14h30.50.120,vts_reward_expectancy_bt,2022.2.4,Win32,60.34638827,Chrome,1504,1003,,,,,0,603,,,,,,,,,,,,,,,,,160,Y,triangle,1,0,,,,,,,,,,,,,,,,switch,number,numSwt,f,0.867,noRew,,,,,,0,59,0,59,0,1,,,,,,,,,,,,,,,,,
296200,2022-11-27_14h30.50.120,vts_reward_expectancy_bt,2022.2.4,Win32,60.34638827,Chrome,1504,1003,,,,,0,603,,,,,,,,,,,,,,,,,174,U,hexagon,1,0,,,,,,,,,,,,,,,,repeat,number,numRpt,f,0.8503,noRew,,,,,,0,60,0,60,0,1,,,,,,,,,,,,,,,,,
296200,2022-11-27_14h30.50.120,vts_reward_expectancy_bt,2022.2.4,Win32,60.34638827,Chrome,1504,1003,,,,,0,603,,,,,,,,,,,,,,,,,132,D,circle,1,0,,,,,,,,,,,,,,,,switch,letter,lettSwt,j,0.6574,noRew,,,,,,0,61,0,61,0,1,,,,,,,,,,,,,,,,,
296200,2022-11-27_14h30.50.120,vts_reward_expectancy_bt,2022.2.4,Win32,60.34638827,Chrome,1504,1003,,,,,0,603,,,,,,,,,,,,,,,,,167,Y,star,1,0,,,,,,,,,,,,,,,,switch,number,numSwt,f,0.8006,noRew,,,,,,0,62,0,62,0,1,,,,,,,,,,,,,,,,,
296200,2022-11-27_14h30.50.120,vts_reward_expectancy_bt,2022.2.4,Win32,60.34638827,Chrome,1504,1003,,,,,0,603,,,,,,,,,,,,,,,,,139,H,circle,1,0,,,,,,,,,,,,,,,,switch,letter,lettSwt,j,0.9668,noRew,,,,,,0,63,0,63,0,1,,,,,,,,,,,,,,,,,
296200,2022-11-27_14h30.50.120,vts_reward_expectancy_bt,2022.2.4,Win32,60.34638827,Chrome,1504,1003,,,,,,,,,,,,,,,,,,,,,,,,,,,,,,,,,,,,,,,,,,,,,,,,,,,,,,,,,,,,,,,,,,,,,,,,,,,,
296200,2022-11-27_14h30.50.120,vts_reward_expectancy_bt,2022.2.4,Win32,60.34638827,Chrome,1504,1003,,,,,10,613,,,,,,,,,,,,,,,,,125,F,circle,1,0,,,,,,,,,,,,,,,,switch,number,numSwt,d,0.8033,Hi,,,,,,0,,,,,,space,6.6499,low,0,0,0,0,1,,,,,,,,,
296200,2022-11-27_14h30.50.120,vts_reward_expectancy_bt,2022.2.4,Win32,60.34638827,Chrome,1504,1003,,,,,1,614,,,,,,,,,,,,,,,,,132,Y,hexagon,1,0,,,,,,,,,,,,,,,,switch,letter,lettSwt,k,0.7699,Lo,,,,,,0,,,,,,,,low,1,0,1,0,1,,,,,,,,,
296200,2022-11-27_14h30.50.120,vts_reward_expectancy_bt,2022.2.4,Win32,60.34638827,Chrome,1504,1003,,,,,1,615,,,,,,,,,,,,,,,,,174,B,triangle,1,0,,,,,,,,,,,,,,,,switch,number,numSwt,f,0.9829,Lo,,,,,,0,,,,,,,,low,2,0,2,0,1,,,,,,,,,
296200,2022-11-27_14h30.50.120,vts_reward_expectancy_bt,2022.2.4,Win32,60.34638827,Chrome,1504,1003,,,,,10,625,,,,,,,,,,,,,,,,,160,W,star,1,0,,,,,,,,,,,,,,,,repeat,number,numRpt,f,0.5667,Hi,,,,,,0,,,,,,,,low,3,0,3,0,1,,,,,,,,,
296200,2022-11-27_14h30.50.120,vts_reward_expectancy_bt,2022.2.4,Win32,60.34638827,Chrome,1504,1003,,,,,1,626,,,,,,,,,,,,,,,,,139,H,circle,1,0,,,,,,,,,,,,,,,,switch,letter,lettSwt,j,0.7744,Hi,,,,,,0,,,,,,,,low,4,0,4,0,1,,,,,,,,,
296200,2022-11-27_14h30.50.120,vts_reward_expectancy_bt,2022.2.4,Win32,60.34638827,Chrome,1504,1003,,,,,1,627,,,,,,,,,,,,,,,,,167,S,hexagon,1,0,,,,,,,,,,,,,,,,repeat,letter,lettRpt,k,0.9246,Lo,,,,,,0,,,,,,,,low,5,0,5,0,1,,,,,,,,,
296200,2022-11-27_14h30.50.120,vts_reward_expectancy_bt,2022.2.4,Win32,60.34638827,Chrome,1504,1003,,,,,1,628,,,,,,,,,,,,,,,,,181,U,triangle,1,0,,,,,,,,,,,,,,,,repeat,letter,lettRpt,k,0.8837,Lo,,,,,,0,,,,,,,,low,6,0,6,0,1,,,,,,,,,
296200,2022-11-27_14h30.50.120,vts_reward_expectancy_bt,2022.2.4,Win32,60.34638827,Chrome,1504,1003,,,,,0,628,,,,,,,,,,,,,,,,,146,D,star,1,0,,,,,,,,,,,,,,,,switch,number,numSwt,d,0.9375,Hi,,,,,,0,,,,,,,,low,7,0,7,0,1,,,,,,,,,
296200,2022-11-27_14h30.50.120,vts_reward_expectancy_bt,2022.2.4,Win32,60.34638827,Chrome,1504,1003,,,,,10,638,,,,,,,,,,,,,,,,,125,F,triangle,1,0,,,,,,,,,,,,,,,,repeat,number,numRpt,d,0.5036,Lo,,,,,,0,,,,,,,,low,8,0,8,0,1,,,,,,,,,
296200,2022-11-27_14h30.50.120,vts_reward_expectancy_bt,2022.2.4,Win32,60.34638827,Chrome,1504,1003,,,,,10,648,,,,,,,,,,,,,,,,,132,Y,circle,1,0,,,,,,,,,,,,,,,,repeat,number,numRpt,d,0.5396,Hi,,,,,,0,,,,,,,,low,9,0,9,0,1,,,,,,,,,
296200,2022-11-27_14h30.50.120,vts_reward_expectancy_bt,2022.2.4,Win32,60.34638827,Chrome,1504,1003,,,,,1,649,,,,,,,,,,,,,,,,,174,B,hexagon,1,0,,,,,,,,,,,,,,,,repeat,number,numRpt,f,0.6052,Lo,,,,,,0,,,,,,,,low,10,0,10,0,1,,,,,,,,,
296200,2022-11-27_14h30.50.120,vts_reward_expectancy_bt,2022.2.4,Win32,60.34638827,Chrome,1504,1003,,,,,10,659,,,,,,,,,,,,,,,,,160,W,star,1,0,,,,,,,,,,,,,,,,switch,letter,lettSwt,k,0.5839,Hi,,,,,,0,,,,,,,,low,11,0,11,0,1,,,,,,,,,
296200,2022-11-27_14h30.50.120,vts_reward_expectancy_bt,2022.2.4,Win32,60.34638827,Chrome,1504,1003,,,,,1,660,,,,,,,,,,,,,,,,,139,H,hexagon,1,0,,,,,,,,,,,,,,,,repeat,letter,lettRpt,j,0.7216,Lo,,,,,,0,,,,,,,,low,12,0,12,0,1,,,,,,,,,
296200,2022-11-27_14h30.50.120,vts_reward_expectancy_bt,2022.2.4,Win32,60.34638827,Chrome,1504,1003,,,,,10,670,,,,,,,,,,,,,,,,,167,S,star,1,0,,,,,,,,,,,,,,,,repeat,letter,lettRpt,k,0.7007,Hi,,,,,,0,,,,,,,,low,13,0,13,0,1,,,,,,,,,
296200,2022-11-27_14h30.50.120,vts_reward_expectancy_bt,2022.2.4,Win32,60.34638827,Chrome,1504,1003,,,,,1,671,,,,,,,,,,,,,,,,,181,U,circle,1,0,,,,,,,,,,,,,,,,switch,number,numSwt,f,0.4712,Hi,,,,,,0,,,,,,,,low,14,0,14,0,1,,,,,,,,,
296200,2022-11-27_14h30.50.120,vts_reward_expectancy_bt,2022.2.4,Win32,60.34638827,Chrome,1504,1003,,,,,1,672,,,,,,,,,,,,,,,,,146,D,triangle,1,0,,,,,,,,,,,,,,,,repeat,number,numRpt,d,0.584,Lo,,,,,,0,,,,,,,,low,15,0,15,0,1,,,,,,,,,
296200,2022-11-27_14h30.50.120,vts_reward_expectancy_bt,2022.2.4,Win32,60.34638827,Chrome,1504,1003,,,,,0,672,,,,,,,,,,,,,,,,,146,F,star,1,0,,,,,,,,,,,,,,,,switch,letter,lettSwt,j,0.8326,Hi,,,,,,0,,,,,,,,low,16,0,16,0,1,,,,,,,,,
296200,2022-11-27_14h30.50.120,vts_reward_expectancy_bt,2022.2.4,Win32,60.34638827,Chrome,1504,1003,,,,,10,682,,,,,,,,,,,,,,,,,132,B,hexagon,1,0,,,,,,,,,,,,,,,,switch,number,numSwt,d,0.5605,Lo,,,,,,0,,,,,,,,low,17,0,17,0,1,,,,,,,,,
296200,2022-11-27_14h30.50.120,vts_reward_expectancy_bt,2022.2.4,Win32,60.34638827,Chrome,1504,1003,,,,,10,692,,,,,,,,,,,,,,,,,167,H,circle,1,0,,,,,,,,,,,,,,,,switch,letter,lettSwt,j,0.6116,Hi,,,,,,0,,,,,,,,low,18,0,18,0,1,,,,,,,,,
296200,2022-11-27_14h30.50.120,vts_reward_expectancy_bt,2022.2.4,Win32,60.34638827,Chrome,1504,1003,,,,,1,693,,,,,,,,,,,,,,,,,174,W,triangle,1,0,,,,,,,,,,,,,,,,repeat,letter,lettRpt,k,0.5,Lo,,,,,,0,,,,,,,,low,19,0,19,0,1,,,,,,,,,
296200,2022-11-27_14h30.50.120,vts_reward_expectancy_bt,2022.2.4,Win32,60.34638827,Chrome,1504,1003,,,,,10,703,,,,,,,,,,,,,,,,,139,S,star,1,0,,,,,,,,,,,,,,,,switch,number,numSwt,d,0.5255,Hi,,,,,,0,,,,,,,,low,20,0,20,0,1,,,,,,,,,
296200,2022-11-27_14h30.50.120,vts_reward_expectancy_bt,2022.2.4,Win32,60.34638827,Chrome,1504,1003,,,,,10,713,,,,,,,,,,,,,,,,,160,Y,hexagon,1,0,,,,,,,,,,,,,,,,repeat,number,numRpt,f,0.722,Lo,,,,,,0,,,,,,,,low,21,0,21,0,1,,,,,,,,,
296200,2022-11-27_14h30.50.120,vts_reward_expectancy_bt,2022.2.4,Win32,60.34638827,Chrome,1504,1003,,,,,1,714,,,,,,,,,,,,,,,,,181,U,triangle,1,0,,,,,,,,,,,,,,,,switch,letter,lettSwt,k,0.7338,Lo,,,,,,0,,,,,,,,low,22,0,22,0,1,,,,,,,,,
296200,2022-11-27_14h30.50.120,vts_reward_expectancy_bt,2022.2.4,Win32,60.34638827,Chrome,1504,1003,,,,,1,715,,,,,,,,,,,,,,,,,125,D,circle,1,0,,,,,,,,,,,,,,,,repeat,letter,lettRpt,j,0.6172,Hi,,,,,,0,,,,,,,,low,23,0,23,0,1,,,,,,,,,
296200,2022-11-27_14h30.50.120,vts_reward_expectancy_bt,2022.2.4,Win32,60.34638827,Chrome,1504,1003,,,,,1,716,,,,,,,,,,,,,,,,,167,H,circle,1,0,,,,,,,,,,,,,,,,repeat,letter,lettRpt,j,0.6397,Hi,,,,,,0,,,,,,,,low,24,0,24,0,1,,,,,,,,,
296200,2022-11-27_14h30.50.120,vts_reward_expectancy_bt,2022.2.4,Win32,60.34638827,Chrome,1504,1003,,,,,10,726,,,,,,,,,,,,,,,,,146,W,star,1,0,,,,,,,,,,,,,,,,repeat,letter,lettRpt,k,0.5578,Hi,,,,,,0,,,,,,,,low,25,0,25,0,1,,,,,,,,,
296200,2022-11-27_14h30.50.120,vts_reward_expectancy_bt,2022.2.4,Win32,60.34638827,Chrome,1504,1003,,,,,10,736,,,,,,,,,,,,,,,,,174,F,hexagon,1,0,,,,,,,,,,,,,,,,switch,number,numSwt,f,0.5666,Lo,,,,,,0,,,,,,,,low,26,0,26,0,1,,,,,,,,,
296200,2022-11-27_14h30.50.120,vts_reward_expectancy_bt,2022.2.4,Win32,60.34638827,Chrome,1504,1003,,,,,10,746,,,,,,,,,,,,,,,,,181,S,triangle,1,0,,,,,,,,,,,,,,,,repeat,number,numRpt,f,0.5582,Lo,,,,,,0,,,,,,,,low,27,0,27,0,1,,,,,,,,,
296200,2022-11-27_14h30.50.120,vts_reward_expectancy_bt,2022.2.4,Win32,60.34638827,Chrome,1504,1003,,,,,10,756,,,,,,,,,,,,,,,,,125,D,star,1,0,,,,,,,,,,,,,,,,repeat,number,numRpt,d,0.3856,Hi,,,,,,0,,,,,,,,low,28,0,28,0,1,,,,,,,,,
296200,2022-11-27_14h30.50.120,vts_reward_expectancy_bt,2022.2.4,Win32,60.34638827,Chrome,1504,1003,,,,,1,757,,,,,,,,,,,,,,,,,160,B,triangle,1,0,,,,,,,,,,,,,,,,switch,letter,lettSwt,j,0.6264,Lo,,,,,,0,,,,,,,,low,29,0,29,0,1,,,,,,,,,
296200,2022-11-27_14h30.50.120,vts_reward_expectancy_bt,2022.2.4,Win32,60.34638827,Chrome,1504,1003,,,,,10,767,,,,,,,,,,,,,,,,,139,U,hexagon,1,0,,,,,,,,,,,,,,,,repeat,letter,lettRpt,k,0.568,Lo,,,,,,0,,,,,,,,low,30,0,30,0,1,,,,,,,,,
296200,2022-11-27_14h30.50.120,vts_reward_expectancy_bt,2022.2.4,Win32,60.34638827,Chrome,1504,1003,,,,,10,777,,,,,,,,,,,,,,,,,132,Y,circle,1,0,,,,,,,,,,,,,,,,repeat,letter,lettRpt,k,0.6243,Hi,,,,,,0,,,,,,,,low,31,0,31,0,1,,,,,,,,,
296200,2022-11-27_14h30.50.120,vts_reward_expectancy_bt,2022.2.4,Win32,60.34638827,Chrome,1504,1003,,,,,1,778,,,,,,,,,,,,,,,,,167,W,triangle,1,0,,,,,,,,,,,,,,,,switch,number,numSwt,f,0.5398,Lo,,,,,,1,,,,,,space,1.6675,low,0,0,0,0,1,,,,,,,,,
296200,2022-11-27_14h30.50.120,vts_reward_expectancy_bt,2022.2.4,Win32,60.34638827,Chrome,1504,1003,,,,,0,778,,,,,,,,,,,,,,,,,181,H,circle,1,0,,,,,,,,,,,,,,,,repeat,number,numRpt,f,0.5701,Hi,,,,,,1,,,,,,,,low,1,0,1,0,1,,,,,,,,,
296200,2022-11-27_14h30.50.120,vts_reward_expectancy_bt,2022.2.4,Win32,60.34638827,Chrome,1504,1003,,,,,10,788,,,,,,,,,,,,,,,,,132,B,star,1,0,,,,,,,,,,,,,,,,repeat,number,numRpt,d,0.4835,Hi,,,,,,1,,,,,,,,low,2,0,2,0,1,,,,,,,,,
296200,2022-11-27_14h30.50.120,vts_reward_expectancy_bt,2022.2.4,Win32,60.34638827,Chrome,1504,1003,,,,,0,788,,,,,,,,,,,,,,,,,125,F,hexagon,0,0,,,,,,,,,,,,,,,,switch,letter,NA,k,0.5336,Hi,,,,,,1,,,,,,,,low,3,0,3,0,1,,,,,,,,,
296200,2022-11-27_14h30.50.120,vts_reward_expectancy_bt,2022.2.4,Win32,60.34638827,Chrome,1504,1003,,,,,1,789,,,,,,,,,,,,,,,,,139,Y,triangle,1,1,,,,,,,,,,,,,,,,repeat,letter,lettRpt,k,0.5671,Lo,,,,,,1,,,,,,,,low,4,0,4,0,1,,,,,,,,,
296200,2022-11-27_14h30.50.120,vts_reward_expectancy_bt,2022.2.4,Win32,60.34638827,Chrome,1504,1003,,,,,10,799,,,,,,,,,,,,,,,,,146,S,circle,1,0,,,,,,,,,,,,,,,,repeat,letter,lettRpt,k,0.5451,Hi,,,,,,1,,,,,,,,low,5,0,5,0,1,,,,,,,,,
296200,2022-11-27_14h30.50.120,vts_reward_expectancy_bt,2022.2.4,Win32,60.34638827,Chrome,1504,1003,,,,,0,799,,,,,,,,,,,,,,,,,160,U,star,1,0,,,,,,,,,,,,,,,,switch,number,numSwt,f,0.6009,Hi,,,,,,1,,,,,,,,low,6,0,6,0,1,,,,,,,,,
296200,2022-11-27_14h30.50.120,vts_reward_expectancy_bt,2022.2.4,Win32,60.34638827,Chrome,1504,1003,,,,,10,809,,,,,,,,,,,,,,,,,174,D,hexagon,1,0,,,,,,,,,,,,,,,,repeat,number,numRpt,f,0.4945,Lo,,,,,,1,,,,,,,,low,7,0,7,0,1,,,,,,,,,
296200,2022-11-27_14h30.50.120,vts_reward_expectancy_bt,2022.2.4,Win32,60.34638827,Chrome,1504,1003,,,,,10,819,,,,,,,,,,,,,,,,,167,W,hexagon,1,0,,,,,,,,,,,,,,,,repeat,number,numRpt,f,0.4707,Lo,,,,,,1,,,,,,,,low,8,0,8,0,1,,,,,,,,,
296200,2022-11-27_14h30.50.120,vts_reward_expectancy_bt,2022.2.4,Win32,60.34638827,Chrome,1504,1003,,,,,10,829,,,,,,,,,,,,,,,,,181,H,triangle,1,0,,,,,,,,,,,,,,,,repeat,number,numRpt,f,0.4838,Lo,,,,,,1,,,,,,,,low,9,0,9,0,1,,,,,,,,,
296200,2022-11-27_14h30.50.120,vts_reward_expectancy_bt,2022.2.4,Win32,60.34638827,Chrome,1504,1003,,,,,10,839,,,,,,,,,,,,,,,,,132,B,star,1,0,,,,,,,,,,,,,,,,switch,letter,lettSwt,j,0.467,Hi,,,,,,1,,,,,,,,low,10,0,10,0,1,,,,,,,,,
296200,2022-11-27_14h30.50.120,vts_reward_expectancy_bt,2022.2.4,Win32,60.34638827,Chrome,1504,1003,,,,,10,849,,,,,,,,,,,,,,,,,125,F,circle,1,0,,,,,,,,,,,,,,,,switch,number,numSwt,d,0.467,Hi,,,,,,1,,,,,,,,low,11,0,11,0,1,,,,,,,,,
296200,2022-11-27_14h30.50.120,vts_reward_expectancy_bt,2022.2.4,Win32,60.34638827,Chrome,1504,1003,,,,,1,850,,,,,,,,,,,,,,,,,139,Y,circle,1,0,,,,,,,,,,,,,,,,switch,letter,lettSwt,k,0.5171,Hi,,,,,,1,,,,,,,,low,12,0,12,0,1,,,,,,,,,
296200,2022-11-27_14h30.50.120,vts_reward_expectancy_bt,2022.2.4,Win32,60.34638827,Chrome,1504,1003,,,,,1,851,,,,,,,,,,,,,,,,,146,S,hexagon,1,0,,,,,,,,,,,,,,,,repeat,letter,lettRpt,k,0.598,Lo,,,,,,1,,,,,,,,low,13,0,13,0,1,,,,,,,,,
296200,2022-11-27_14h30.50.120,vts_reward_expectancy_bt,2022.2.4,Win32,60.34638827,Chrome,1504,1003,,,,,10,861,,,,,,,,,,,,,,,,,160,U,triangle,1,0,,,,,,,,,,,,,,,,repeat,letter,lettRpt,k,0.5506,Lo,,,,,,1,,,,,,,,low,14,0,14,0,1,,,,,,,,,
296200,2022-11-27_14h30.50.120,vts_reward_expectancy_bt,2022.2.4,Win32,60.34638827,Chrome,1504,1003,,,,,1,862,,,,,,,,,,,,,,,,,174,D,star,1,0,,,,,,,,,,,,,,,,switch,number,numSwt,f,0.4068,Hi,,,,,,1,,,,,,,,low,15,0,15,0,1,,,,,,,,,
296200,2022-11-27_14h30.50.120,vts_reward_expectancy_bt,2022.2.4,Win32,60.34638827,Chrome,1504,1003,,,,,0,862,,,,,,,,,,,,,,,,,132,B,star,1,0,,,,,,,,,,,,,,,,repeat,number,numRpt,d,0.5667,Hi,,,,,,1,,,,,,,,low,16,0,16,0,1,,,,,,,,,
296200,2022-11-27_14h30.50.120,vts_reward_expectancy_bt,2022.2.4,Win32,60.34638827,Chrome,1504,1003,,,,,0,862,,,,,,,,,,,,,,,,,146,H,hexagon,0,0,,,,,,,,,,,,,,,,switch,letter,NA,k,0.5839,Hi,,,,,,1,,,,,,,,low,17,0,17,0,1,,,,,,,,,
296200,2022-11-27_14h30.50.120,vts_reward_expectancy_bt,2022.2.4,Win32,60.34638827,Chrome,1504,1003,,,,,1,863,,,,,,,,,,,,,,,,,125,S,circle,1,1,,,,,,,,,,,,,,,,repeat,letter,lettRpt,k,0.4846,Hi,,,,,,1,,,,,,,,low,18,0,18,0,1,,,,,,,,,
296200,2022-11-27_14h30.50.120,vts_reward_expectancy_bt,2022.2.4,Win32,60.34638827,Chrome,1504,1003,,,,,1,864,,,,,,,,,,,,,,,,,174,Y,triangle,1,0,,,,,,,,,,,,,,,,repeat,letter,lettRpt,k,0.5339,Lo,,,,,,1,,,,,,,,low,19,0,19,0,1,,,,,,,,,
296200,2022-11-27_14h30.50.120,vts_reward_expectancy_bt,2022.2.4,Win32,60.34638827,Chrome,1504,1003,,,,,1,865,,,,,,,,,,,,,,,,,167,D,circle,1,0,,,,,,,,,,,,,,,,repeat,letter,lettRpt,j,0.3884,Hi,,,,,,1,,,,,,,,low,20,0,20,0,1,,,,,,,,,
296200,2022-11-27_14h30.50.120,vts_reward_expectancy_bt,2022.2.4,Win32,60.34638827,Chrome,1504,1003,,,,,0,865,,,,,,,,,,,,,,,,,160,W,star,1,0,,,,,,,,,,,,,,,,switch,number,numSwt,f,0.5679,Hi,,,,,,1,,,,,,,,low,21,0,21,0,1,,,,,,,,,
296200,2022-11-27_14h30.50.120,vts_reward_expectancy_bt,2022.2.4,Win32,60.34638827,Chrome,1504,1003,,,,,1,866,,,,,,,,,,,,,,,,,181,U,triangle,1,0,,,,,,,,,,,,,,,,repeat,number,numRpt,f,0.534,Lo,,,,,,1,,,,,,,,low,22,0,22,0,1,,,,,,,,,
296200,2022-11-27_14h30.50.120,vts_reward_expectancy_bt,2022.2.4,Win32,60.34638827,Chrome,1504,1003,,,,,0,866,,,,,,,,,,,,,,,,,139,F,hexagon,0,0,,,,,,,,,,,,,,,,repeat,number,NA,f,0.367,Lo,,,,,,1,,,,,,,,low,23,0,23,0,1,,,,,,,,,
296200,2022-11-27_14h30.50.120,vts_reward_expectancy_bt,2022.2.4,Win32,60.34638827,Chrome,1504,1003,,,,,1,867,,,,,,,,,,,,,,,,,167,B,hexagon,1,1,,,,,,,,,,,,,,,,repeat,number,numRpt,f,0.4417,Lo,,,,,,1,,,,,,,,low,24,0,24,0,1,,,,,,,,,
296200,2022-11-27_14h30.50.120,vts_reward_expectancy_bt,2022.2.4,Win32,60.34638827,Chrome,1504,1003,,,,,1,868,,,,,,,,,,,,,,,,,160,S,triangle,1,0,,,,,,,,,,,,,,,,switch,letter,lettSwt,k,0.5088,Lo,,,,,,1,,,,,,,,low,25,0,25,0,1,,,,,,,,,
296200,2022-11-27_14h30.50.120,vts_reward_expectancy_bt,2022.2.4,Win32,60.34638827,Chrome,1504,1003,,,,,1,869,,,,,,,,,,,,,,,,,146,Y,star,1,0,,,,,,,,,,,,,,,,repeat,letter,lettRpt,k,0.4706,Hi,,,,,,1,,,,,,,,low,26,0,26,0,1,,,,,,,,,
296200,2022-11-27_14h30.50.120,vts_reward_expectancy_bt,2022.2.4,Win32,60.34638827,Chrome,1504,1003,,,,,0,869,,,,,,,,,,,,,,,,,132,U,circle,0,0,,,,,,,,,,,,,,,,repeat,letter,NA,j,0.5577,Hi,,,,,,1,,,,,,,,low,27,0,27,0,1,,,,,,,,,
296200,2022-11-27_14h30.50.120,vts_reward_expectancy_bt,2022.2.4,Win32,60.34638827,Chrome,1504,1003,,,,,1,870,,,,,,,,,,,,,,,,,139,W,triangle,1,1,,,,,,,,,,,,,,,,switch,number,numSwt,d,0.5338,Lo,,,,,,1,,,,,,,,low,28,0,28,0,1,,,,,,,,,
296200,2022-11-27_14h30.50.120,vts_reward_expectancy_bt,2022.2.4,Win32,60.34638827,Chrome,1504,1003,,,,,10,880,,,,,,,,,,,,,,,,,181,D,circle,1,0,,,,,,,,,,,,,,,,repeat,number,numRpt,f,0.4039,Hi,,,,,,1,,,,,,,,low,29,0,29,0,1,,,,,,,,,
296200,2022-11-27_14h30.50.120,vts_reward_expectancy_bt,2022.2.4,Win32,60.34638827,Chrome,1504,1003,,,,,1,881,,,,,,,,,,,,,,,,,125,H,hexagon,1,0,,,,,,,,,,,,,,,,repeat,number,numRpt,d,0.4369,Lo,,,,,,1,,,,,,,,low,30,0,30,0,1,,,,,,,,,
296200,2022-11-27_14h30.50.120,vts_reward_expectancy_bt,2022.2.4,Win32,60.34638827,Chrome,1504,1003,,,,,10,891,,,,,,,,,,,,,,,,,174,F,star,1,0,,,,,,,,,,,,,,,,repeat,number,numRpt,f,0.3852,Hi,,,,,,1,,,,,,,,low,31,0,31,0,1,,,,,,,,,
296200,2022-11-27_14h30.50.120,vts_reward_expectancy_bt,2022.2.4,Win32,60.34638827,Chrome,1504,1003,,,,,1,892,,,,,,,,,,,,,,,,,181,B,triangle,1,0,,,,,,,,,,,,,,,,repeat,number,numRpt,f,0.3997,Lo,,,,,,2,,,,,,space,1.5501,low,0,0,0,0,1,,,,,,,,,
296200,2022-11-27_14h30.50.120,vts_reward_expectancy_bt,2022.2.4,Win32,60.34638827,Chrome,1504,1003,,,,,0,892,,,,,,,,,,,,,,,,,167,Y,star,1,0,,,,,,,,,,,,,,,,switch,letter,lettSwt,k,0.5095,Hi,,,,,,2,,,,,,,,low,1,0,1,0,1,,,,,,,,,
296200,2022-11-27_14h30.50.120,vts_reward_expectancy_bt,2022.2.4,Win32,60.34638827,Chrome,1504,1003,,,,,1,893,,,,,,,,,,,,,,,,,132,W,circle,1,0,,,,,,,,,,,,,,,,switch,number,numSwt,d,0.4394,Hi,,,,,,2,,,,,,,,low,2,0,2,0,1,,,,,,,,,
296200,2022-11-27_14h30.50.120,vts_reward_expectancy_bt,2022.2.4,Win32,60.34638827,Chrome,1504,1003,,,,,10,903,,,,,,,,,,,,,,,,,174,U,hexagon,1,0,,,,,,,,,,,,,,,,switch,letter,lettSwt,k,0.6865,Lo,,,,,,2,,,,,,,,low,3,0,3,0,1,,,,,,,,,
296200,2022-11-27_14h30.50.120,vts_reward_expectancy_bt,2022.2.4,Win32,60.34638827,Chrome,1504,1003,,,,,1,904,,,,,,,,,,,,,,,,,139,D,triangle,1,0,,,,,,,,,,,,,,,,repeat,letter,lettRpt,j,0.5499,Lo,,,,,,2,,,,,,,,low,4,0,4,0,1,,,,,,,,,
296200,2022-11-27_14h30.50.120,vts_reward_expectancy_bt,2022.2.4,Win32,60.34638827,Chrome,1504,1003,,,,,0,904,,,,,,,,,,,,,,,,,146,H,star,0,0,,,,,,,,,,,,,,,,repeat,letter,NA,k,0.4837,Lo,,,,,,2,,,,,,,,low,5,0,5,0,1,,,,,,,,,
296200,2022-11-27_14h30.50.120,vts_reward_expectancy_bt,2022.2.4,Win32,60.34638827,Chrome,1504,1003,,,,,10,914,,,,,,,,,,,,,,,,,125,F,circle,1,1,,,,,,,,,,,,,,,,switch,number,numSwt,d,0.424,Hi,,,,,,2,,,,,,,,low,6,0,6,0,1,,,,,,,,,
296200,2022-11-27_14h30.50.120,vts_reward_expectancy_bt,2022.2.4,Win32,60.34638827,Chrome,1504,1003,,,,,1,915,,,,,,,,,,,,,,,,,160,S,hexagon,1,0,,,,,,,,,,,,,,,,repeat,number,numRpt,f,0.4671,Lo,,,,,,2,,,,,,,,low,7,0,7,0,1,,,,,,,,,
296200,2022-11-27_14h30.50.120,vts_reward_expectancy_bt,2022.2.4,Win32,60.34638827,Chrome,1504,1003,,,,,10,925,,,,,,,,,,,,,,,,,181,B,circle,1,0,,,,,,,,,,,,,,,,repeat,number,numRpt,f,0.4192,Hi,,,,,,2,,,,,,,,low,8,0,8,0,1,,,,,,,,,
296200,2022-11-27_14h30.50.120,vts_reward_expectancy_bt,2022.2.4,Win32,60.34638827,Chrome,1504,1003,,,,,10,935,,,,,,,,,,,,,,,,,167,Y,triangle,1,0,,,,,,,,,,,,,,,,repeat,number,numRpt,f,0.4666,Lo,,,,,,2,,,,,,,,low,9,0,9,0,1,,,,,,,,,
296200,2022-11-27_14h30.50.120,vts_reward_expectancy_bt,2022.2.4,Win32,60.34638827,Chrome,1504,1003,,,,,0,935,,,,,,,,,,,,,,,,,132,W,star,1,0,,,,,,,,,,,,,,,,repeat,number,numRpt,d,0.46,Hi,,,,,,2,,,,,,,,low,10,0,10,0,1,,,,,,,,,
296200,2022-11-27_14h30.50.120,vts_reward_expectancy_bt,2022.2.4,Win32,60.34638827,Chrome,1504,1003,,,,,1,936,,,,,,,,,,,,,,,,,174,U,hexagon,1,0,,,,,,,,,,,,,,,,repeat,number,numRpt,f,0.5583,Lo,,,,,,2,,,,,,,,low,11,0,11,0,1,,,,,,,,,
296200,2022-11-27_14h30.50.120,vts_reward_expectancy_bt,2022.2.4,Win32,60.34638827,Chrome,1504,1003,,,,,1,937,,,,,,,,,,,,,,,,,139,D,triangle,1,0,,,,,,,,,,,,,,,,switch,letter,lettSwt,j,0.5167,Lo,,,,,,2,,,,,,,,low,12,0,12,0,1,,,,,,,,,
296200,2022-11-27_14h30.50.120,vts_reward_expectancy_bt,2022.2.4,Win32,60.34638827,Chrome,1504,1003,,,,,0,937,,,,,,,,,,,,,,,,,146,H,circle,0,0,,,,,,,,,,,,,,,,repeat,letter,NA,k,0.5258,Lo,,,,,,2,,,,,,,,low,13,0,13,0,1,,,,,,,,,
296200,2022-11-27_14h30.50.120,vts_reward_expectancy_bt,2022.2.4,Win32,60.34638827,Chrome,1504,1003,,,,,0,937,,,,,,,,,,,,,,,,,125,F,star,1,1,,,,,,,,,,,,,,,,repeat,letter,lettRpt,j,0.5506,Hi,,,,,,2,,,,,,,,low,14,0,14,0,1,,,,,,,,,
296200,2022-11-27_14h30.50.120,vts_reward_expectancy_bt,2022.2.4,Win32,60.34638827,Chrome,1504,1003,,,,,1,938,,,,,,,,,,,,,,,,,160,S,hexagon,1,0,,,,,,,,,,,,,,,,repeat,letter,lettRpt,k,0.5836,Lo,,,,,,2,,,,,,,,low,15,0,15,0,1,,,,,,,,,
296200,2022-11-27_14h30.50.120,vts_reward_expectancy_bt,2022.2.4,Win32,60.34638827,Chrome,1504,1003,,,,,1,939,,,,,,,,,,,,,,,,,132,Y,star,1,0,,,,,,,,,,,,,,,,switch,number,numSwt,d,0.4067,Hi,,,,,,2,,,,,,,,low,16,0,16,0,1,,,,,,,,,
296200,2022-11-27_14h30.50.120,vts_reward_expectancy_bt,2022.2.4,Win32,60.34638827,Chrome,1504,1003,,,,,10,949,,,,,,,,,,,,,,,,,125,S,triangle,1,0,,,,,,,,,,,,,,,,repeat,number,numRpt,d,0.4518,Lo,,,,,,2,,,,,,,,low,17,0,17,0,1,,,,,,,,,
296200,2022-11-27_14h30.50.120,vts_reward_expectancy_bt,2022.2.4,Win32,60.34638827,Chrome,1504,1003,,,,,10,959,,,,,,,,,,,,,,,,,181,H,circle,1,0,,,,,,,,,,,,,,,,repeat,number,numRpt,f,0.4044,Hi,,,,,,2,,,,,,,,low,18,0,18,0,1,,,,,,,,,
296200,2022-11-27_14h30.50.120,vts_reward_expectancy_bt,2022.2.4,Win32,60.34638827,Chrome,1504,1003,,,,,10,969,,,,,,,,,,,,,,,,,167,W,hexagon,1,0,,,,,,,,,,,,,,,,switch,letter,lettSwt,k,0.4536,Lo,,,,,,2,,,,,,,,low,19,0,19,0,1,,,,,,,,,
296200,2022-11-27_14h30.50.120,vts_reward_expectancy_bt,2022.2.4,Win32,60.34638827,Chrome,1504,1003,,,,,10,979,,,,,,,,,,,,,,,,,139,F,triangle,1,0,,,,,,,,,,,,,,,,repeat,letter,lettRpt,j,0.4168,Lo,,,,,,2,,,,,,,,low,20,0,20,0,1,,,,,,,,,
296200,2022-11-27_14h30.50.120,vts_reward_expectancy_bt,2022.2.4,Win32,60.34638827,Chrome,1504,1003,,,,,10,989,,,,,,,,,,,,,,,,,160,B,circle,1,0,,,,,,,,,,,,,,,,switch,number,numSwt,f,0.3668,Hi,,,,,,2,,,,,,,,low,21,0,21,0,1,,,,,,,,,
296200,2022-11-27_14h30.50.120,vts_reward_expectancy_bt,2022.2.4,Win32,60.34638827,Chrome,1504,1003,,,,,1,990,,,,,,,,,,,,,,,,,174,U,star,1,0,,,,,,,,,,,,,,,,repeat,number,numRpt,f,0.4007,Hi,,,,,,2,,,,,,,,low,22,0,22,0,1,,,,,,,,,
296200,2022-11-27_14h30.50.120,vts_reward_expectancy_bt,2022.2.4,Win32,60.34638827,Chrome,1504,1003,,,,,10,1000,,,,,,,,,,,,,,,,,146,D,hexagon,1,0,,,,,,,,,,,,,,,,switch,letter,lettSwt,j,0.3837,Lo,,,,,,2,,,,,,,,low,23,0,23,0,1,,,,,,,,,
296200,2022-11-27_14h30.50.120,vts_reward_expectancy_bt,2022.2.4,Win32,60.34638827,Chrome,1504,1003,,,,,0,1000,,,,,,,,,,,,,,,,,132,S,star,1,0,,,,,,,,,,,,,,,,repeat,letter,lettRpt,k,0.5835,Hi,,,,,,2,,,,,,,,low,24,0,24,0,1,,,,,,,,,
296200,2022-11-27_14h30.50.120,vts_reward_expectancy_bt,2022.2.4,Win32,60.34638827,Chrome,1504,1003,,,,,10,1010,,,,,,,,,,,,,,,,,181,B,triangle,1,0,,,,,,,,,,,,,,,,repeat,letter,lettRpt,j,0.454,Lo,,,,,,2,,,,,,,,low,25,0,25,0,1,,,,,,,,,
296200,2022-11-27_14h30.50.120,vts_reward_expectancy_bt,2022.2.4,Win32,60.34638827,Chrome,1504,1003,,,,,1,1011,,,,,,,,,,,,,,,,,174,W,circle,1,0,,,,,,,,,,,,,,,,switch,number,numSwt,f,0.461,Hi,,,,,,2,,,,,,,,low,26,0,26,0,1,,,,,,,,,
296200,2022-11-27_14h30.50.120,vts_reward_expectancy_bt,2022.2.4,Win32,60.34638827,Chrome,1504,1003,,,,,10,1021,,,,,,,,,,,,,,,,,146,D,hexagon,1,0,,,,,,,,,,,,,,,,repeat,number,numRpt,d,0.539,Lo,,,,,,2,,,,,,,,low,27,0,27,0,1,,,,,,,,,
296200,2022-11-27_14h30.50.120,vts_reward_expectancy_bt,2022.2.4,Win32,60.34638827,Chrome,1504,1003,,,,,0,1021,,,,,,,,,,,,,,,,,167,H,triangle,0,0,,,,,,,,,,,,,,,,switch,letter,NA,k,0.5621,Lo,,,,,,2,,,,,,,,low,28,0,28,0,1,,,,,,,,,
296200,2022-11-27_14h30.50.120,vts_reward_expectancy_bt,2022.2.4,Win32,60.34638827,Chrome,1504,1003,,,,,10,1031,,,,,,,,,,,,,,,,,125,Y,hexagon,1,1,,,,,,,,,,,,,,,,repeat,letter,lettRpt,k,0.5914,Lo,,,,,,2,,,,,,,,low,29,0,29,0,1,,,,,,,,,
296200,2022-11-27_14h30.50.120,vts_reward_expectancy_bt,2022.2.4,Win32,60.34638827,Chrome,1504,1003,,,,,0,1031,,,,,,,,,,,,,,,,,160,U,circle,1,0,,,,,,,,,,,,,,,,switch,number,numSwt,f,0.5166,Hi,,,,,,2,,,,,,,,low,30,0,30,0,1,,,,,,,,,
296200,2022-11-27_14h30.50.120,vts_reward_expectancy_bt,2022.2.4,Win32,60.34638827,Chrome,1504,1003,,,,,1,1032,,,,,,,,,,,,,,,,,139,F,star,1,0,,,,,,,,,,,,,,,,repeat,number,numRpt,d,0.4098,Hi,,,,,,2,,,,,,,,low,31,0,31,0,1,,,,,,,,,
296200,2022-11-27_14h30.50.120,vts_reward_expectancy_bt,2022.2.4,Win32,60.34638827,Chrome,1504,1003,,,,,10,1042,,,,,,,,,,,,,,,,,167,D,star,1,0,,,,,,,,,,,,,,,,repeat,number,numRpt,f,0.3838,Hi,,,,,,3,,,,,,space,1.2371,low,0,0,0,0,1,,,,,,,,,
296200,2022-11-27_14h30.50.120,vts_reward_expectancy_bt,2022.2.4,Win32,60.34638827,Chrome,1504,1003,,,,,10,1052,,,,,,,,,,,,,,,,,181,Y,circle,1,0,,,,,,,,,,,,,,,,switch,letter,lettSwt,k,0.4505,Hi,,,,,,3,,,,,,,,low,1,0,1,0,1,,,,,,,,,
296200,2022-11-27_14h30.50.120,vts_reward_expectancy_bt,2022.2.4,Win32,60.34638827,Chrome,1504,1003,,,,,1,1053,,,,,,,,,,,,,,,,,125,F,hexagon,1,0,,,,,,,,,,,,,,,,repeat,letter,lettRpt,j,0.367,Lo,,,,,,3,,,,,,,,low,2,0,2,0,1,,,,,,,,,
296200,2022-11-27_14h30.50.120,vts_reward_expectancy_bt,2022.2.4,Win32,60.34638827,Chrome,1504,1003,,,,,1,1054,,,,,,,,,,,,,,,,,160,S,triangle,1,0,,,,,,,,,,,,,,,,repeat,letter,lettRpt,k,0.4843,Lo,,,,,,3,,,,,,,,low,3,0,3,0,1,,,,,,,,,
296200,2022-11-27_14h30.50.120,vts_reward_expectancy_bt,2022.2.4,Win32,60.34638827,Chrome,1504,1003,,,,,10,1064,,,,,,,,,,,,,,,,,139,B,star,1,0,,,,,,,,,,,,,,,,switch,number,numSwt,d,0.4035,Hi,,,,,,3,,,,,,,,low,4,0,4,0,1,,,,,,,,,
296200,2022-11-27_14h30.50.120,vts_reward_expectancy_bt,2022.2.4,Win32,60.34638827,Chrome,1504,1003,,,,,1,1065,,,,,,,,,,,,,,,,,132,W,circle,1,0,,,,,,,,,,,,,,,,repeat,number,numRpt,d,0.4069,Hi,,,,,,3,,,,,,,,low,5,0,5,0,1,,,,,,,,,
296200,2022-11-27_14h30.50.120,vts_reward_expectancy_bt,2022.2.4,Win32,60.34638827,Chrome,1504,1003,,,,,10,1075,,,,,,,,,,,,,,,,,174,H,hexagon,1,0,,,,,,,,,,,,,,,,repeat,number,numRpt,f,0.4672,Lo,,,,,,3,,,,,,,,low,6,0,6,0,1,,,,,,,,,
296200,2022-11-27_14h30.50.120,vts_reward_expectancy_bt,2022.2.4,Win32,60.34638827,Chrome,1504,1003,,,,,10,1085,,,,,,,,,,,,,,,,,146,U,triangle,1,0,,,,,,,,,,,,,,,,repeat,number,numRpt,d,0.45,Lo,,,,,,3,,,,,,,,low,7,0,7,0,1,,,,,,,,,
296200,2022-11-27_14h30.50.120,vts_reward_expectancy_bt,2022.2.4,Win32,60.34638827,Chrome,1504,1003,,,,,10,1095,,,,,,,,,,,,,,,,,167,D,star,1,0,,,,,,,,,,,,,,,,switch,letter,lettSwt,j,0.4502,Hi,,,,,,3,,,,,,,,low,8,0,8,0,1,,,,,,,,,
296200,2022-11-27_14h30.50.120,vts_reward_expectancy_bt,2022.2.4,Win32,60.34638827,Chrome,1504,1003,,,,,1,1096,,,,,,,,,,,,,,,,,181,Y,hexagon,1,0,,,,,,,,,,,,,,,,repeat,letter,lettRpt,k,0.4505,Lo,,,,,,3,,,,,,,,low,9,0,9,0,1,,,,,,,,,
296200,2022-11-27_14h30.50.120,vts_reward_expectancy_bt,2022.2.4,Win32,60.34638827,Chrome,1504,1003,,,,,1,1097,,,,,,,,,,,,,,,,,125,F,circle,1,0,,,,,,,,,,,,,,,,switch,number,numSwt,d,0.4115,Hi,,,,,,3,,,,,,,,low,10,0,10,0,1,,,,,,,,,
296200,2022-11-27_14h30.50.120,vts_reward_expectancy_bt,2022.2.4,Win32,60.34638827,Chrome,1504,1003,,,,,10,1107,,,,,,,,,,,,,,,,,160,S,triangle,1,0,,,,,,,,,,,,,,,,repeat,number,numRpt,f,0.4172,Lo,,,,,,3,,,,,,,,low,11,0,11,0,1,,,,,,,,,
296200,2022-11-27_14h30.50.120,vts_reward_expectancy_bt,2022.2.4,Win32,60.34638827,Chrome,1504,1003,,,,,1,1108,,,,,,,,,,,,,,,,,139,B,triangle,1,0,,,,,,,,,,,,,,,,switch,letter,lettSwt,j,0.4671,Lo,,,,,,3,,,,,,,,low,12,0,12,0,1,,,,,,,,,
296200,2022-11-27_14h30.50.120,vts_reward_expectancy_bt,2022.2.4,Win32,60.34638827,Chrome,1504,1003,,,,,10,1118,,,,,,,,,,,,,,,,,132,W,hexagon,1,0,,,,,,,,,,,,,,,,repeat,letter,lettRpt,k,0.5028,Lo,,,,,,3,,,,,,,,low,13,0,13,0,1,,,,,,,,,
296200,2022-11-27_14h30.50.120,vts_reward_expectancy_bt,2022.2.4,Win32,60.34638827,Chrome,1504,1003,,,,,10,1128,,,,,,,,,,,,,,,,,174,H,circle,1,0,,,,,,,,,,,,,,,,switch,number,numSwt,f,0.4171,Hi,,,,,,3,,,,,,,,low,14,0,14,0,1,,,,,,,,,
296200,2022-11-27_14h30.50.120,vts_reward_expectancy_bt,2022.2.4,Win32,60.34638827,Chrome,1504,1003,,,,,0,1128,,,,,,,,,,,,,,,,,146,U,star,1,0,,,,,,,,,,,,,,,,repeat,number,numRpt,d,0.4671,Hi,,,,,,3,,,,,,,,low,15,0,15,0,1,,,,,,,,,
296200,2022-11-27_14h30.50.120,vts_reward_expectancy_bt,2022.2.4,Win32,60.34638827,Chrome,1504,1003,,,,,0,1128,,,,,,,,,,,,,,,,,139,D,star,1,0,,,,,,,,,,,,,,,,switch,letter,lettSwt,j,0.5043,Hi,,,,,,3,,,,,,,,low,16,0,16,0,1,,,,,,,,,
296200,2022-11-27_14h30.50.120,vts_reward_expectancy_bt,2022.2.4,Win32,60.34638827,Chrome,1504,1003,,,,,0,1128,,,,,,,,,,,,,,,,,125,Y,triangle,0,0,,,,,,,,,,,,,,,,repeat,letter,NA,j,0.3837,Hi,,,,,,3,,,,,,,,low,17,0,17,0,1,,,,,,,,,
296200,2022-11-27_14h30.50.120,vts_reward_expectancy_bt,2022.2.4,Win32,60.34638827,Chrome,1504,1003,,,,,1,1129,,,,,,,,,,,,,,,,,132,W,circle,1,1,,,,,,,,,,,,,,,,repeat,letter,lettRpt,k,0.3674,Hi,,,,,,3,,,,,,,,low,18,0,18,0,1,,,,,,,,,
296200,2022-11-27_14h30.50.120,vts_reward_expectancy_bt,2022.2.4,Win32,60.34638827,Chrome,1504,1003,,,,,0,1129,,,,,,,,,,,,,,,,,181,U,hexagon,0,0,,,,,,,,,,,,,,,,repeat,letter,NA,j,0.4377,Hi,,,,,,3,,,,,,,,low,19,0,19,0,1,,,,,,,,,
296200,2022-11-27_14h30.50.120,vts_reward_expectancy_bt,2022.2.4,Win32,60.34638827,Chrome,1504,1003,,,,,1,1130,,,,,,,,,,,,,,,,,160,B,triangle,1,1,,,,,,,,,,,,,,,,repeat,letter,lettRpt,j,0.4435,Lo,,,,,,3,,,,,,,,low,20,0,20,0,1,,,,,,,,,
296200,2022-11-27_14h30.50.120,vts_reward_expectancy_bt,2022.2.4,Win32,60.34638827,Chrome,1504,1003,,,,,1,1131,,,,,,,,,,,,,,,,,167,F,hexagon,1,0,,,,,,,,,,,,,,,,switch,number,numSwt,f,0.4673,Lo,,,,,,3,,,,,,,,low,21,0,21,0,1,,,,,,,,,
296200,2022-11-27_14h30.50.120,vts_reward_expectancy_bt,2022.2.4,Win32,60.34638827,Chrome,1504,1003,,,,,0,1131,,,,,,,,,,,,,,,,,174,S,star,1,0,,,,,,,,,,,,,,,,repeat,number,numRpt,f,0.4167,Hi,,,,,,3,,,,,,,,low,22,0,22,0,1,,,,,,,,,
296200,2022-11-27_14h30.50.120,vts_reward_expectancy_bt,2022.2.4,Win32,60.34638827,Chrome,1504,1003,,,,,10,1141,,,,,,,,,,,,,,,,,146,H,circle,1,0,,,,,,,,,,,,,,,,repeat,number,numRpt,d,0.3684,Hi,,,,,,3,,,,,,,,low,23,0,23,0,1,,,,,,,,,
296200,2022-11-27_14h30.50.120,vts_reward_expectancy_bt,2022.2.4,Win32,60.34638827,Chrome,1504,1003,,,,,0,1141,,,,,,,,,,,,,,,,,125,F,star,1,0,,,,,,,,,,,,,,,,repeat,number,numRpt,d,0.4502,Hi,,,,,,3,,,,,,,,low,24,0,24,0,1,,,,,,,,,
296200,2022-11-27_14h30.50.120,vts_reward_expectancy_bt,2022.2.4,Win32,60.34638827,Chrome,1504,1003,,,,,0,1141,,,,,,,,,,,,,,,,,146,B,circle,1,0,,,,,,,,,,,,,,,,repeat,number,numRpt,d,0.5503,Hi,,,,,,3,,,,,,,,low,25,0,25,0,1,,,,,,,,,
296200,2022-11-27_14h30.50.120,vts_reward_expectancy_bt,2022.2.4,Win32,60.34638827,Chrome,1504,1003,,,,,0,1141,,,,,,,,,,,,,,,,,174,H,triangle,0,0,,,,,,,,,,,,,,,,switch,letter,NA,k,0.4455,Hi,,,,,,3,,,,,,,,low,26,0,26,0,1,,,,,,,,,
296200,2022-11-27_14h30.50.120,vts_reward_expectancy_bt,2022.2.4,Win32,60.34638827,Chrome,1504,1003,,,,,1,1142,,,,,,,,,,,,,,,,,139,S,hexagon,1,1,,,,,,,,,,,,,,,,repeat,letter,lettRpt,k,0.4961,Lo,,,,,,3,,,,,,,,low,27,0,27,0,1,,,,,,,,,
296200,2022-11-27_14h30.50.120,vts_reward_expectancy_bt,2022.2.4,Win32,60.34638827,Chrome,1504,1003,,,,,10,1152,,,,,,,,,,,,,,,,,132,Y,circle,1,0,,,,,,,,,,,,,,,,repeat,letter,lettRpt,k,0.4512,Hi,,,,,,3,,,,,,,,low,28,0,28,0,1,,,,,,,,,
296200,2022-11-27_14h30.50.120,vts_reward_expectancy_bt,2022.2.4,Win32,60.34638827,Chrome,1504,1003,,,,,1,1153,,,,,,,,,,,,,,,,,160,U,triangle,1,0,,,,,,,,,,,,,,,,repeat,letter,lettRpt,k,0.5173,Lo,,,,,,3,,,,,,,,low,29,0,29,0,1,,,,,,,,,
296200,2022-11-27_14h30.50.120,vts_reward_expectancy_bt,2022.2.4,Win32,60.34638827,Chrome,1504,1003,,,,,1,1154,,,,,,,,,,,,,,,,,181,D,hexagon,1,0,,,,,,,,,,,,,,,,switch,number,numSwt,f,0.5552,Lo,,,,,,3,,,,,,,,low,30,0,30,0,1,,,,,,,,,
296200,2022-11-27_14h30.50.120,vts_reward_expectancy_bt,2022.2.4,Win32,60.34638827,Chrome,1504,1003,,,,,10,1164,,,,,,,,,,,,,,,,,167,W,star,1,0,,,,,,,,,,,,,,,,repeat,number,numRpt,f,0.3834,Hi,,,,,,3,,,,,,,,low,31,0,31,0,1,,,,,,,,,
296200,2022-11-27_14h30.50.120,vts_reward_expectancy_bt,2022.2.4,Win32,60.34638827,Chrome,1504,1003,,,,,1,1165,,,,,,,,,,,,,,,,,167,D,triangle,1,0,,,,,,,,,,,,,,,,switch,letter,lettSwt,j,0.6372,Lo,,,,,,4,,,,,,space,4.0896,low,0,0,0,0,1,,,,,,,,,
296200,2022-11-27_14h30.50.120,vts_reward_expectancy_bt,2022.2.4,Win32,60.34638827,Chrome,1504,1003,,,,,1,1166,,,,,,,,,,,,,,,,,160,F,hexagon,1,0,,,,,,,,,,,,,,,,repeat,letter,lettRpt,j,0.6536,Lo,,,,,,4,,,,,,,,low,1,0,1,0,1,,,,,,,,,
296200,2022-11-27_14h30.50.120,vts_reward_expectancy_bt,2022.2.4,Win32,60.34638827,Chrome,1504,1003,,,,,0,1166,,,,,,,,,,,,,,,,,132,W,star,1,0,,,,,,,,,,,,,,,,repeat,letter,lettRpt,k,0.5283,Hi,,,,,,4,,,,,,,,low,2,0,2,0,1,,,,,,,,,
296200,2022-11-27_14h30.50.120,vts_reward_expectancy_bt,2022.2.4,Win32,60.34638827,Chrome,1504,1003,,,,,10,1176,,,,,,,,,,,,,,,,,174,Y,circle,1,0,,,,,,,,,,,,,,,,switch,number,numSwt,f,0.3953,Hi,,,,,,4,,,,,,,,low,3,0,3,0,1,,,,,,,,,
296200,2022-11-27_14h30.50.120,vts_reward_expectancy_bt,2022.2.4,Win32,60.34638827,Chrome,1504,1003,,,,,0,1176,,,,,,,,,,,,,,,,,139,B,triangle,0,0,,,,,,,,,,,,,,,,repeat,number,NA,f,0.3596,Hi,,,,,,4,,,,,,,,low,4,0,4,0,1,,,,,,,,,
296200,2022-11-27_14h30.50.120,vts_reward_expectancy_bt,2022.2.4,Win32,60.34638827,Chrome,1504,1003,,,,,10,1186,,,,,,,,,,,,,,,,,146,H,hexagon,1,1,,,,,,,,,,,,,,,,repeat,number,numRpt,d,0.4027,Lo,,,,,,4,,,,,,,,low,5,0,5,0,1,,,,,,,,,
296200,2022-11-27_14h30.50.120,vts_reward_expectancy_bt,2022.2.4,Win32,60.34638827,Chrome,1504,1003,,,,,0,1186,,,,,,,,,,,,,,,,,125,S,star,1,0,,,,,,,,,,,,,,,,switch,letter,lettSwt,k,0.5041,Hi,,,,,,4,,,,,,,,low,6,0,6,0,1,,,,,,,,,
296200,2022-11-27_14h30.50.120,vts_reward_expectancy_bt,2022.2.4,Win32,60.34638827,Chrome,1504,1003,,,,,0,1186,,,,,,,,,,,,,,,,,181,U,circle,0,0,,,,,,,,,,,,,,,,repeat,letter,NA,j,0.4333,Hi,,,,,,4,,,,,,,,low,7,0,7,0,1,,,,,,,,,
296200,2022-11-27_14h30.50.120,vts_reward_expectancy_bt,2022.2.4,Win32,60.34638827,Chrome,1504,1003,,,,,0,1186,,,,,,,,,,,,,,,,,167,D,circle,0,1,,,,,,,,,,,,,,,,repeat,letter,NA,k,0.4507,Hi,,,,,,4,,,,,,,,low,8,0,8,0,1,,,,,,,,,
296200,2022-11-27_14h30.50.120,vts_reward_expectancy_bt,2022.2.4,Win32,60.34638827,Chrome,1504,1003,,,,,0,1186,,,,,,,,,,,,,,,,,160,F,triangle,0,1,,,,,,,,,,,,,,,,repeat,letter,NA,k,0.4505,Hi,,,,,,4,,,,,,,,low,9,0,9,0,1,,,,,,,,,
296200,2022-11-27_14h30.50.120,vts_reward_expectancy_bt,2022.2.4,Win32,60.34638827,Chrome,1504,1003,,,,,0,1186,,,,,,,,,,,,,,,,,132,W,star,1,1,,,,,,,,,,,,,,,,repeat,letter,lettRpt,k,0.4831,Hi,,,,,,4,,,,,,,,low,10,0,10,0,1,,,,,,,,,
296200,2022-11-27_14h30.50.120,vts_reward_expectancy_bt,2022.2.4,Win32,60.34638827,Chrome,1504,1003,,,,,1,1187,,,,,,,,,,,,,,,,,174,Y,hexagon,1,0,,,,,,,,,,,,,,,,switch,number,numSwt,f,0.3998,Lo,,,,,,4,,,,,,,,low,11,0,11,0,1,,,,,,,,,
296200,2022-11-27_14h30.50.120,vts_reward_expectancy_bt,2022.2.4,Win32,60.34638827,Chrome,1504,1003,,,,,0,1187,,,,,,,,,,,,,,,,,139,B,circle,1,0,,,,,,,,,,,,,,,,repeat,number,numRpt,d,0.4165,Hi,,,,,,4,,,,,,,,low,12,0,12,0,1,,,,,,,,,
296200,2022-11-27_14h30.50.120,vts_reward_expectancy_bt,2022.2.4,Win32,60.34638827,Chrome,1504,1003,,,,,10,1197,,,,,,,,,,,,,,,,,146,H,hexagon,1,0,,,,,,,,,,,,,,,,repeat,number,numRpt,d,0.4538,Lo,,,,,,4,,,,,,,,low,13,0,13,0,1,,,,,,,,,
296200,2022-11-27_14h30.50.120,vts_reward_expectancy_bt,2022.2.4,Win32,60.34638827,Chrome,1504,1003,,,,,0,1197,,,,,,,,,,,,,,,,,125,S,triangle,0,0,,,,,,,,,,,,,,,,switch,letter,NA,j,0.3504,Lo,,,,,,4,,,,,,,,low,14,0,14,0,1,,,,,,,,,
296200,2022-11-27_14h30.50.120,vts_reward_expectancy_bt,2022.2.4,Win32,60.34638827,Chrome,1504,1003,,,,,0,1197,,,,,,,,,,,,,,,,,181,U,star,0,1,,,,,,,,,,,,,,,,repeat,letter,NA,j,0.4588,Lo,,,,,,4,,,,,,,,low,15,0,15,0,1,,,,,,,,,
296200,2022-11-27_14h30.50.120,vts_reward_expectancy_bt,2022.2.4,Win32,60.34638827,Chrome,1504,1003,,,,,0,1197,,,,,,,,,,,,,,,,,167,H,circle,1,1,,,,,,,,,,,,,,,,repeat,letter,lettRpt,j,0.4905,Hi,,,,,,4,,,,,,,,low,16,0,16,0,1,,,,,,,,,
296200,2022-11-27_14h30.50.120,vts_reward_expectancy_bt,2022.2.4,Win32,60.34638827,Chrome,1504,1003,,,,,10,1207,,,,,,,,,,,,,,,,,132,W,star,1,0,,,,,,,,,,,,,,,,repeat,letter,lettRpt,k,0.3941,Hi,,,,,,4,,,,,,,,low,17,0,17,0,1,,,,,,,,,
296200,2022-11-27_14h30.50.120,vts_reward_expectancy_bt,2022.2.4,Win32,60.34638827,Chrome,1504,1003,,,,,1,1208,,,,,,,,,,,,,,,,,160,U,triangle,1,0,,,,,,,,,,,,,,,,switch,number,numSwt,f,0.4837,Lo,,,,,,4,,,,,,,,low,18,0,18,0,1,,,,,,,,,
296200,2022-11-27_14h30.50.120,vts_reward_expectancy_bt,2022.2.4,Win32,60.34638827,Chrome,1504,1003,,,,,1,1209,,,,,,,,,,,,,,,,,174,D,hexagon,1,0,,,,,,,,,,,,,,,,repeat,number,numRpt,f,0.4503,Lo,,,,,,4,,,,,,,,low,19,0,19,0,1,,,,,,,,,
296200,2022-11-27_14h30.50.120,vts_reward_expectancy_bt,2022.2.4,Win32,60.34638827,Chrome,1504,1003,,,,,1,1210,,,,,,,,,,,,,,,,,181,B,hexagon,1,0,,,,,,,,,,,,,,,,repeat,number,numRpt,f,0.4373,Lo,,,,,,4,,,,,,,,low,20,0,20,0,1,,,,,,,,,
296200,2022-11-27_14h30.50.120,vts_reward_expectancy_bt,2022.2.4,Win32,60.34638827,Chrome,1504,1003,,,,,1,1211,,,,,,,,,,,,,,,,,146,S,triangle,1,0,,,,,,,,,,,,,,,,switch,letter,lettSwt,k,0.4501,Lo,,,,,,4,,,,,,,,low,21,0,21,0,1,,,,,,,,,
296200,2022-11-27_14h30.50.120,vts_reward_expectancy_bt,2022.2.4,Win32,60.34638827,Chrome,1504,1003,,,,,0,1211,,,,,,,,,,,,,,,,,139,F,star,1,0,,,,,,,,,,,,,,,,repeat,letter,lettRpt,j,0.5002,Hi,,,,,,4,,,,,,,,low,22,0,22,0,1,,,,,,,,,
296200,2022-11-27_14h30.50.120,vts_reward_expectancy_bt,2022.2.4,Win32,60.34638827,Chrome,1504,1003,,,,,0,1211,,,,,,,,,,,,,,,,,125,Y,circle,1,0,,,,,,,,,,,,,,,,switch,number,numSwt,d,0.4917,Hi,,,,,,4,,,,,,,,low,23,0,23,0,1,,,,,,,,,
296200,2022-11-27_14h30.50.120,vts_reward_expectancy_bt,2022.2.4,Win32,60.34638827,Chrome,1504,1003,,,,,1,1212,,,,,,,,,,,,,,,,,125,Y,hexagon,1,0,,,,,,,,,,,,,,,,repeat,number,numRpt,d,0.4334,Lo,,,,,,4,,,,,,,,low,24,0,24,0,1,,,,,,,,,
296200,2022-11-27_14h30.50.120,vts_reward_expectancy_bt,2022.2.4,Win32,60.34638827,Chrome,1504,1003,,,,,0,1212,,,,,,,,,,,,,,,,,132,D,circle,1,0,,,,,,,,,,,,,,,,switch,letter,lettSwt,j,0.5004,Hi,,,,,,4,,,,,,,,low,25,0,25,0,1,,,,,,,,,
296200,2022-11-27_14h30.50.120,vts_reward_expectancy_bt,2022.2.4,Win32,60.34638827,Chrome,1504,1003,,,,,0,1212,,,,,,,,,,,,,,,,,160,B,star,1,0,,,,,,,,,,,,,,,,repeat,letter,lettRpt,j,0.5004,Hi,,,,,,4,,,,,,,,low,26,0,26,0,1,,,,,,,,,
296200,2022-11-27_14h30.50.120,vts_reward_expectancy_bt,2022.2.4,Win32,60.34638827,Chrome,1504,1003,,,,,0,1212,,,,,,,,,,,,,,,,,167,H,triangle,0,0,,,,,,,,,,,,,,,,repeat,letter,NA,k,0.3439,Hi,,,,,,4,,,,,,,,low,27,0,27,0,1,,,,,,,,,
296200,2022-11-27_14h30.50.120,vts_reward_expectancy_bt,2022.2.4,Win32,60.34638827,Chrome,1504,1003,,,,,1,1213,,,,,,,,,,,,,,,,,139,W,triangle,1,1,,,,,,,,,,,,,,,,switch,number,numSwt,d,0.4004,Lo,,,,,,4,,,,,,,,low,28,0,28,0,1,,,,,,,,,
296200,2022-11-27_14h30.50.120,vts_reward_expectancy_bt,2022.2.4,Win32,60.34638827,Chrome,1504,1003,,,,,1,1214,,,,,,,,,,,,,,,,,181,F,hexagon,1,0,,,,,,,,,,,,,,,,repeat,number,numRpt,f,0.4337,Lo,,,,,,4,,,,,,,,low,29,0,29,0,1,,,,,,,,,
296200,2022-11-27_14h30.50.120,vts_reward_expectancy_bt,2022.2.4,Win32,60.34638827,Chrome,1504,1003,,,,,0,1214,,,,,,,,,,,,,,,,,146,U,star,1,0,,,,,,,,,,,,,,,,repeat,number,numRpt,d,0.4214,Hi,,,,,,4,,,,,,,,low,30,0,30,0,1,,,,,,,,,
296200,2022-11-27_14h30.50.120,vts_reward_expectancy_bt,2022.2.4,Win32,60.34638827,Chrome,1504,1003,,,,,10,1224,,,,,,,,,,,,,,,,,174,S,circle,1,0,,,,,,,,,,,,,,,,repeat,number,numRpt,f,0.4016,Hi,,,,,,4,,,,,,,,low,31,0,31,0,1,,,,,,,,,
296200,2022-11-27_14h30.50.120,vts_reward_expectancy_bt,2022.2.4,Win32,60.34638827,Chrome,1504,1003,,,,,10,1234,,,,,,,,,,,,,,,,,146,U,star,1,0,,,,,,,,,,,,,,,,switch,letter,lettSwt,k,0.4935,Hi,,,,,,5,,,,,,space,5.3749,low,0,0,0,0,1,,,,,,,,,
296200,2022-11-27_14h30.50.120,vts_reward_expectancy_bt,2022.2.4,Win32,60.34638827,Chrome,1504,1003,,,,,10,1244,,,,,,,,,,,,,,,,,160,S,triangle,1,0,,,,,,,,,,,,,,,,repeat,letter,lettRpt,k,0.4701,Lo,,,,,,5,,,,,,,,low,1,0,1,0,1,,,,,,,,,
296200,2022-11-27_14h30.50.120,vts_reward_expectancy_bt,2022.2.4,Win32,60.34638827,Chrome,1504,1003,,,,,1,1245,,,,,,,,,,,,,,,,,181,H,hexagon,1,0,,,,,,,,,,,,,,,,switch,number,numSwt,f,0.3502,Lo,,,,,,5,,,,,,,,low,2,0,2,0,1,,,,,,,,,
296200,2022-11-27_14h30.50.120,vts_reward_expectancy_bt,2022.2.4,Win32,60.34638827,Chrome,1504,1003,,,,,1,1246,,,,,,,,,,,,,,,,,174,B,circle,1,0,,,,,,,,,,,,,,,,repeat,number,numRpt,f,0.3837,Hi,,,,,,5,,,,,,,,low,3,0,3,0,1,,,,,,,,,
296200,2022-11-27_14h30.50.120,vts_reward_expectancy_bt,2022.2.4,Win32,60.34638827,Chrome,1504,1003,,,,,1,1247,,,,,,,,,,,,,,,,,167,W,star,1,0,,,,,,,,,,,,,,,,repeat,number,numRpt,f,0.3669,Hi,,,,,,5,,,,,,,,low,4,0,4,0,1,,,,,,,,,
296200,2022-11-27_14h30.50.120,vts_reward_expectancy_bt,2022.2.4,Win32,60.34638827,Chrome,1504,1003,,,,,0,1247,,,,,,,,,,,,,,,,,139,F,triangle,0,0,,,,,,,,,,,,,,,,switch,letter,NA,k,0.4874,Hi,,,,,,5,,,,,,,,low,5,0,5,0,1,,,,,,,,,
296200,2022-11-27_14h30.50.120,vts_reward_expectancy_bt,2022.2.4,Win32,60.34638827,Chrome,1504,1003,,,,,0,1247,,,,,,,,,,,,,,,,,132,Y,hexagon,-1,1,,,,,,,,,,,,,,,,switch,no_choice,NA,,,Hi,,,,,,5,,,,,,,,low,6,0,6,0,1,,,,,,,,,
296200,2022-11-27_14h30.50.120,vts_reward_expectancy_bt,2022.2.4,Win32,60.34638827,Chrome,1504,1003,,,,,0,1247,,,,,,,,,,,,,,,,,125,D,circle,-1,0,,,,,,,,,,,,,,,,repeat,no_choice,NA,,,Hi,,,,,,5,,,,,,,,low,7,0,7,0,1,,,,,,,,,
296200,2022-11-27_14h30.50.120,vts_reward_expectancy_bt,2022.2.4,Win32,60.34638827,Chrome,1504,1003,,,,,0,1247,,,,,,,,,,,,,,,,,146,U,circle,-1,0,,,,,,,,,,,,,,,,repeat,no_choice,NA,,,Hi,,,,,,5,,,,,,,,low,8,0,8,0,1,,,,,,,,,
296200,2022-11-27_14h30.50.120,vts_reward_expectancy_bt,2022.2.4,Win32,60.34638827,Chrome,1504,1003,,,,,0,1247,,,,,,,,,,,,,,,,,160,S,hexagon,-1,0,,,,,,,,,,,,,,,,repeat,no_choice,NA,,,Hi,,,,,,5,,,,,,,,low,9,0,9,0,1,,,,,,,,,
296200,2022-11-27_14h30.50.120,vts_reward_expectancy_bt,2022.2.4,Win32,60.34638827,Chrome,1504,1003,,,,,0,1247,,,,,,,,,,,,,,,,,181,H,star,-1,0,,,,,,,,,,,,,,,,repeat,no_choice,NA,,,Hi,,,,,,5,,,,,,,,low,10,0,10,0,1,,,,,,,,,
296200,2022-11-27_14h30.50.120,vts_reward_expectancy_bt,2022.2.4,Win32,60.34638827,Chrome,1504,1003,,,,,0,1247,,,,,,,,,,,,,,,,,174,B,triangle,-1,0,,,,,,,,,,,,,,,,repeat,no_choice,NA,,,Hi,,,,,,5,,,,,,,,low,11,0,11,0,1,,,,,,,,,
296200,2022-11-27_14h30.50.120,vts_reward_expectancy_bt,2022.2.4,Win32,60.34638827,Chrome,1504,1003,,,,,0,1247,,,,,,,,,,,,,,,,,167,W,triangle,-1,0,,,,,,,,,,,,,,,,repeat,no_choice,NA,,,Hi,,,,,,5,,,,,,,,low,12,0,12,0,1,,,,,,,,,
296200,2022-11-27_14h30.50.120,vts_reward_expectancy_bt,2022.2.4,Win32,60.34638827,Chrome,1504,1003,,,,,0,1247,,,,,,,,,,,,,,,,,139,F,hexagon,-1,0,,,,,,,,,,,,,,,,repeat,no_choice,NA,,,Hi,,,,,,5,,,,,,,,low,13,0,13,0,1,,,,,,,,,
296200,2022-11-27_14h30.50.120,vts_reward_expectancy_bt,2022.2.4,Win32,60.34638827,Chrome,1504,1003,,,,,0,1247,,,,,,,,,,,,,,,,,132,Y,circle,0,0,,,,,,,,,,,,,,,,switch,number,NA,f,0.6683,Hi,,,,,,5,,,,,,,,low,14,0,14,0,1,,,,,,,,,
296200,2022-11-27_14h30.50.120,vts_reward_expectancy_bt,2022.2.4,Win32,60.34638827,Chrome,1504,1003,,,,,0,1247,,,,,,,,,,,,,,,,,125,D,star,1,1,,,,,,,,,,,,,,,,switch,letter,lettSwt,j,0.6524,Hi,,,,,,5,,,,,,,,low,15,0,15,0,1,,,,,,,,,
296200,2022-11-27_14h30.50.120,vts_reward_expectancy_bt,2022.2.4,Win32,60.34638827,Chrome,1504,1003,,,,,1,1248,,,,,,,,,,,,,,,,,132,S,triangle,1,0,,,,,,,,,,,,,,,,repeat,letter,lettRpt,k,0.5536,Lo,,,,,,5,,,,,,,,low,16,0,16,0,1,,,,,,,,,
296200,2022-11-27_14h30.50.120,vts_reward_expectancy_bt,2022.2.4,Win32,60.34638827,Chrome,1504,1003,,,,,0,1248,,,,,,,,,,,,,,,,,139,W,circle,1,0,,,,,,,,,,,,,,,,switch,number,numSwt,d,0.5872,Hi,,,,,,5,,,,,,,,low,17,0,17,0,1,,,,,,,,,
296200,2022-11-27_14h30.50.120,vts_reward_expectancy_bt,2022.2.4,Win32,60.34638827,Chrome,1504,1003,,,,,1,1249,,,,,,,,,,,,,,,,,146,D,hexagon,1,0,,,,,,,,,,,,,,,,repeat,number,numRpt,d,0.4834,Lo,,,,,,5,,,,,,,,low,18,0,18,0,1,,,,,,,,,
296200,2022-11-27_14h30.50.120,vts_reward_expectancy_bt,2022.2.4,Win32,60.34638827,Chrome,1504,1003,,,,,10,1259,,,,,,,,,,,,,,,,,160,F,star,1,0,,,,,,,,,,,,,,,,switch,letter,lettSwt,j,0.4172,Hi,,,,,,5,,,,,,,,low,19,0,19,0,1,,,,,,,,,
296200,2022-11-27_14h30.50.120,vts_reward_expectancy_bt,2022.2.4,Win32,60.34638827,Chrome,1504,1003,,,,,0,1259,,,,,,,,,,,,,,,,,125,Y,circle,1,0,,,,,,,,,,,,,,,,repeat,letter,lettRpt,k,0.523,Hi,,,,,,5,,,,,,,,low,20,0,20,0,1,,,,,,,,,
296200,2022-11-27_14h30.50.120,vts_reward_expectancy_bt,2022.2.4,Win32,60.34638827,Chrome,1504,1003,,,,,0,1259,,,,,,,,,,,,,,,,,174,U,star,1,0,,,,,,,,,,,,,,,,switch,number,numSwt,f,0.4552,Hi,,,,,,5,,,,,,,,low,21,0,21,0,1,,,,,,,,,
296200,2022-11-27_14h30.50.120,vts_reward_expectancy_bt,2022.2.4,Win32,60.34638827,Chrome,1504,1003,,,,,0,1259,,,,,,,,,,,,,,,,,167,B,triangle,0,0,,,,,,,,,,,,,,,,repeat,number,NA,d,0.477,Hi,,,,,,5,,,,,,,,low,22,0,22,0,1,,,,,,,,,
296200,2022-11-27_14h30.50.120,vts_reward_expectancy_bt,2022.2.4,Win32,60.34638827,Chrome,1504,1003,,,,,10,1269,,,,,,,,,,,,,,,,,181,H,hexagon,1,1,,,,,,,,,,,,,,,,repeat,number,numRpt,f,0.4167,Lo,,,,,,5,,,,,,,,low,23,0,23,0,1,,,,,,,,,
296200,2022-11-27_14h30.50.120,vts_reward_expectancy_bt,2022.2.4,Win32,60.34638827,Chrome,1504,1003,,,,,1,1270,,,,,,,,,,,,,,,,,181,F,triangle,1,0,,,,,,,,,,,,,,,,switch,letter,lettSwt,j,0.3541,Lo,,,,,,5,,,,,,,,low,24,0,24,0,1,,,,,,,,,
296200,2022-11-27_14h30.50.120,vts_reward_expectancy_bt,2022.2.4,Win32,60.34638827,Chrome,1504,1003,,,,,0,1270,,,,,,,,,,,,,,,,,146,D,circle,0,0,,,,,,,,,,,,,,,,repeat,letter,NA,k,0.4013,Lo,,,,,,5,,,,,,,,low,25,0,25,0,1,,,,,,,,,
296200,2022-11-27_14h30.50.120,vts_reward_expectancy_bt,2022.2.4,Win32,60.34638827,Chrome,1504,1003,,,,,0,1270,,,,,,,,,,,,,,,,,132,S,star,1,1,,,,,,,,,,,,,,,,repeat,letter,lettRpt,k,0.5034,Hi,,,,,,5,,,,,,,,low,26,0,26,0,1,,,,,,,,,
296200,2022-11-27_14h30.50.120,vts_reward_expectancy_bt,2022.2.4,Win32,60.34638827,Chrome,1504,1003,,,,,10,1280,,,,,,,,,,,,,,,,,160,U,hexagon,1,0,,,,,,,,,,,,,,,,repeat,letter,lettRpt,k,0.6006,Lo,,,,,,5,,,,,,,,low,27,0,27,0,1,,,,,,,,,
296200,2022-11-27_14h30.50.120,vts_reward_expectancy_bt,2022.2.4,Win32,60.34638827,Chrome,1504,1003,,,,,1,1281,,,,,,,,,,,,,,,,,174,Y,hexagon,1,0,,,,,,,,,,,,,,,,repeat,letter,lettRpt,k,0.4337,Lo,,,,,,5,,,,,,,,low,28,0,28,0,1,,,,,,,,,
296200,2022-11-27_14h30.50.120,vts_reward_expectancy_bt,2022.2.4,Win32,60.34638827,Chrome,1504,1003,,,,,0,1281,,,,,,,,,,,,,,,,,139,B,star,1,0,,,,,,,,,,,,,,,,repeat,letter,lettRpt,j,0.7196,Hi,,,,,,5,,,,,,,,low,29,0,29,0,1,,,,,,,,,
296200,2022-11-27_14h30.50.120,vts_reward_expectancy_bt,2022.2.4,Win32,60.34638827,Chrome,1504,1003,,,,,0,1281,,,,,,,,,,,,,,,,,167,H,circle,0,0,,,,,,,,,,,,,,,,repeat,letter,NA,k,0.5338,Hi,,,,,,5,,,,,,,,low,30,0,30,0,1,,,,,,,,,
296200,2022-11-27_14h30.50.120,vts_reward_expectancy_bt,2022.2.4,Win32,60.34638827,Chrome,1504,1003,,,,,10,1291,,,,,,,,,,,,,,,,,125,W,triangle,1,1,,,,,,,,,,,,,,,,repeat,letter,lettRpt,k,0.544,Lo,,,,,,5,,,,,,,,low,31,0,31,0,1,,,,,,,,,
296200,2022-11-27_14h30.50.120,vts_reward_expectancy_bt,2022.2.4,Win32,60.34638827,Chrome,1504,1003,,,,,10,1301,,,,,,,,,,,,,,,,,181,F,triangle,1,0,,,,,,,,,,,,,,,,repeat,letter,lettRpt,j,0.6066,Lo,,,,,,6,,,,,,space,1.6037,low,0,0,0,0,1,,,,,,,,,
296200,2022-11-27_14h30.50.120,vts_reward_expectancy_bt,2022.2.4,Win32,60.34638827,Chrome,1504,1003,,,,,10,1311,,,,,,,,,,,,,,,,,132,S,hexagon,1,0,,,,,,,,,,,,,,,,switch,number,numSwt,d,0.5209,Lo,,,,,,6,,,,,,,,low,1,0,1,0,1,,,,,,,,,
296200,2022-11-27_14h30.50.120,vts_reward_expectancy_bt,2022.2.4,Win32,60.34638827,Chrome,1504,1003,,,,,0,1311,,,,,,,,,,,,,,,,,139,D,circle,1,0,,,,,,,,,,,,,,,,repeat,number,numRpt,d,0.4001,Hi,,,,,,6,,,,,,,,low,2,0,2,0,1,,,,,,,,,
296200,2022-11-27_14h30.50.120,vts_reward_expectancy_bt,2022.2.4,Win32,60.34638827,Chrome,1504,1003,,,,,0,1311,,,,,,,,,,,,,,,,,146,W,star,1,0,,,,,,,,,,,,,,,,repeat,number,numRpt,d,0.4686,Hi,,,,,,6,,,,,,,,low,3,0,3,0,1,,,,,,,,,
296200,2022-11-27_14h30.50.120,vts_reward_expectancy_bt,2022.2.4,Win32,60.34638827,Chrome,1504,1003,,,,,10,1321,,,,,,,,,,,,,,,,,174,B,triangle,1,0,,,,,,,,,,,,,,,,repeat,number,numRpt,f,0.4168,Lo,,,,,,6,,,,,,,,low,4,0,4,0,1,,,,,,,,,
296200,2022-11-27_14h30.50.120,vts_reward_expectancy_bt,2022.2.4,Win32,60.34638827,Chrome,1504,1003,,,,,10,1331,,,,,,,,,,,,,,,,,160,U,hexagon,1,0,,,,,,,,,,,,,,,,switch,letter,lettSwt,k,0.3744,Lo,,,,,,6,,,,,,,,low,5,0,5,0,1,,,,,,,,,
296200,2022-11-27_14h30.50.120,vts_reward_expectancy_bt,2022.2.4,Win32,60.34638827,Chrome,1504,1003,,,,,0,1331,,,,,,,,,,,,,,,,,125,H,circle,0,0,,,,,,,,,,,,,,,,repeat,letter,NA,k,0.5038,Lo,,,,,,6,,,,,,,,low,6,0,6,0,1,,,,,,,,,
296200,2022-11-27_14h30.50.120,vts_reward_expectancy_bt,2022.2.4,Win32,60.34638827,Chrome,1504,1003,,,,,0,1331,,,,,,,,,,,,,,,,,167,Y,star,0,1,,,,,,,,,,,,,,,,switch,number,NA,d,0.4268,Lo,,,,,,6,,,,,,,,low,7,0,7,0,1,,,,,,,,,
296200,2022-11-27_14h30.50.120,vts_reward_expectancy_bt,2022.2.4,Win32,60.34638827,Chrome,1504,1003,,,,,0,1331,,,,,,,,,,,,,,,,,181,F,star,1,1,,,,,,,,,,,,,,,,repeat,number,numRpt,f,0.4829,Hi,,,,,,6,,,,,,,,low,8,0,8,0,1,,,,,,,,,
296200,2022-11-27_14h30.50.120,vts_reward_expectancy_bt,2022.2.4,Win32,60.34638827,Chrome,1504,1003,,,,,10,1341,,,,,,,,,,,,,,,,,132,S,hexagon,1,0,,,,,,,,,,,,,,,,repeat,number,numRpt,d,0.4047,Lo,,,,,,6,,,,,,,,low,9,0,9,0,1,,,,,,,,,
296200,2022-11-27_14h30.50.120,vts_reward_expectancy_bt,2022.2.4,Win32,60.34638827,Chrome,1504,1003,,,,,0,1341,,,,,,,,,,,,,,,,,139,D,circle,1,0,,,,,,,,,,,,,,,,switch,letter,lettSwt,j,0.4197,Hi,,,,,,6,,,,,,,,low,10,0,10,0,1,,,,,,,,,
296200,2022-11-27_14h30.50.120,vts_reward_expectancy_bt,2022.2.4,Win32,60.34638827,Chrome,1504,1003,,,,,1,1342,,,,,,,,,,,,,,,,,146,W,triangle,1,0,,,,,,,,,,,,,,,,repeat,letter,lettRpt,k,0.4075,Lo,,,,,,6,,,,,,,,low,11,0,11,0,1,,,,,,,,,
296200,2022-11-27_14h30.50.120,vts_reward_expectancy_bt,2022.2.4,Win32,60.34638827,Chrome,1504,1003,,,,,10,1352,,,,,,,,,,,,,,,,,174,B,star,1,0,,,,,,,,,,,,,,,,repeat,letter,lettRpt,j,0.4404,Hi,,,,,,6,,,,,,,,low,12,0,12,0,1,,,,,,,,,
296200,2022-11-27_14h30.50.120,vts_reward_expectancy_bt,2022.2.4,Win32,60.34638827,Chrome,1504,1003,,,,,10,1362,,,,,,,,,,,,,,,,,160,U,triangle,1,0,,,,,,,,,,,,,,,,switch,number,numSwt,f,0.3438,Lo,,,,,,6,,,,,,,,low,13,0,13,0,1,,,,,,,,,
296200,2022-11-27_14h30.50.120,vts_reward_expectancy_bt,2022.2.4,Win32,60.34638827,Chrome,1504,1003,,,,,0,1362,,,,,,,,,,,,,,,,,125,H,circle,1,0,,,,,,,,,,,,,,,,repeat,number,numRpt,d,0.4505,Hi,,,,,,6,,,,,,,,low,14,0,14,0,1,,,,,,,,,
