participant,date,expName,psychopyVersion,OS,frameRate,browser,xResolution,yResolution,key_resp.keys,key_resp.rt,training_resp.keys,training_resp.rt,points_trial,points_cumul,trainBlock,training.thisRepN,training.thisTrialN,training.thisN,training.thisIndex,training.ran,LTriangleOpac,LCircleOpac,LHexagonOpac,LStarOpac,RTriangleOpac,RCircleOpac,RHexagonOpac,RStarOpac,LShape_ID,RShape_ID,curr_topStim,curr_bottStim,curr_shape,acc,E1,target_resp_prac1.keys,target_resp_prac1.rt,pracBlock,task1_prac_trials.thisRepN,task1_prac_trials.thisTrialN,task1_prac_trials.thisN,task1_prac_trials.thisIndex,task1_prac_trials.ran,target_resp_prac2.keys,target_resp_prac2.rt,task2_praac_trials.thisRepN,task2_praac_trials.thisTrialN,task2_praac_trials.thisN,task2_praac_trials.thisIndex,task2_praac_trials.ran,alt,task,condition,target_resp.keys,target_resp.rt,rewCond,vts_practice_trials.thisRepN,vts_practice_trials.thisTrialN,vts_practice_trials.thisN,vts_practice_trials.thisIndex,vts_practice_trials.ran,blockNum,trials_norew.thisRepN,trials_norew.thisTrialN,trials_norew.thisN,trials_norew.thisIndex,trials_norew.ran,key_resp_2.keys,key_resp_2.rt,rewExpectancy,trials_rew.thisRepN,trials_rew.thisTrialN,trials_rew.thisN,trials_rew.thisIndex,trials_rew.ran,Q1,Q2,Q2_text,Q3,Q4,Q5_text,Q5,xRes,yRes
296257,2022-11-30_16h26.35.928,vts_reward_expectancy_bt,2022.2.4,Win32,64.9561546,Chrome,1920,1080,,,,,,,,,,,,,,,,,,,,,,,,,,,,,,,,,,,,,,,,,,,,,,,,,,,,,,,,,,,,,,,,,,,,,,,,,,,,
296257,2022-11-30_16h26.35.928,vts_reward_expectancy_bt,2022.2.4,Win32,64.9561546,Chrome,1920,1080,space,5.8548,,,,,,,,,,,,,,,,,,,,,,,,,,,,,,,,,,,,,,,,,,,,,,,,,,,,,,,,,,,,,,,,,,,,,,,,,,
296257,2022-11-30_16h26.35.928,vts_reward_expectancy_bt,2022.2.4,Win32,64.9561546,Chrome,1920,1080,,,,,,,,,,,,,,,,,,,,,,,,,,,,,,,,,,,,,,,,,,,,,,,,,,,,,,,,,,,,,,,,,,,,,,,,,,,,
296257,2022-11-30_16h26.35.928,vts_reward_expectancy_bt,2022.2.4,Win32,64.9561546,Chrome,1920,1080,,,a,0.7755,1,1,0,0,0,0,1,1,1,0,0,0,0,0,1,0,triangle,hexagon,,,,,,,,,,,,,,,,,,,,,,,,,,,,,,,,,,,,,,,,,,,,,,,,,,,,,,
296257,2022-11-30_16h26.35.928,vts_reward_expectancy_bt,2022.2.4,Win32,64.9561546,Chrome,1920,1080,,,a,0.2507,1,2,0,0,1,1,10,1,0,0,0,1,0,1,0,0,star ,circle,,,,,,,,,,,,,,,,,,,,,,,,,,,,,,,,,,,,,,,,,,,,,,,,,,,,,,
296257,2022-11-30_16h26.35.928,vts_reward_expectancy_bt,2022.2.4,Win32,64.9561546,Chrome,1920,1080,,,a,0.03,1,3,0,0,2,2,9,1,0,0,0,1,1,0,0,0,star,triangle,,,,,,,,,,,,,,,,,,,,,,,,,,,,,,,,,,,,,,,,,,,,,,,,,,,,,,
296257,2022-11-30_16h26.35.928,vts_reward_expectancy_bt,2022.2.4,Win32,64.9561546,Chrome,1920,1080,,,a,0.2529,10,13,0,0,3,3,3,1,0,1,0,0,1,0,0,0,circle,triangle,,,,,,,,,,,,,,,,,,,,,,,,,,,,,,,,,,,,,,,,,,,,,,,,,,,,,,
296257,2022-11-30_16h26.35.928,vts_reward_expectancy_bt,2022.2.4,Win32,64.9561546,Chrome,1920,1080,,,a,0.1212,1,14,0,0,4,4,2,1,1,0,0,0,0,0,0,1,triangle,star,,,,,,,,,,,,,,,,,,,,,,,,,,,,,,,,,,,,,,,,,,,,,,,,,,,,,,
296257,2022-11-30_16h26.35.928,vts_reward_expectancy_bt,2022.2.4,Win32,64.9561546,Chrome,1920,1080,,,l,1.0831,10,24,0,0,5,5,4,1,0,1,0,0,0,0,1,0,circle,hexagon,,,,,,,,,,,,,,,,,,,,,,,,,,,,,,,,,,,,,,,,,,,,,,,,,,,,,,
296257,2022-11-30_16h26.35.928,vts_reward_expectancy_bt,2022.2.4,Win32,64.9561546,Chrome,1920,1080,,,a,0.838,10,34,0,0,6,6,7,1,0,0,1,0,0,1,0,0,hexagon,circle,,,,,,,,,,,,,,,,,,,,,,,,,,,,,,,,,,,,,,,,,,,,,,,,,,,,,,
296257,2022-11-30_16h26.35.928,vts_reward_expectancy_bt,2022.2.4,Win32,64.9561546,Chrome,1920,1080,,,l,0.4107,10,44,0,0,7,7,5,1,0,1,0,0,0,0,0,1,circle,star,,,,,,,,,,,,,,,,,,,,,,,,,,,,,,,,,,,,,,,,,,,,,,,,,,,,,,
296257,2022-11-30_16h26.35.928,vts_reward_expectancy_bt,2022.2.4,Win32,64.9561546,Chrome,1920,1080,,,l,0.6341,1,45,0,0,8,8,6,1,0,0,1,0,1,0,0,0,hexagon,triangle,,,,,,,,,,,,,,,,,,,,,,,,,,,,,,,,,,,,,,,,,,,,,,,,,,,,,,
296257,2022-11-30_16h26.35.928,vts_reward_expectancy_bt,2022.2.4,Win32,64.9561546,Chrome,1920,1080,,,a,0.8336,1,46,0,0,9,9,0,1,1,0,0,0,0,1,0,0,triangle,circle,,,,,,,,,,,,,,,,,,,,,,,,,,,,,,,,,,,,,,,,,,,,,,,,,,,,,,
296257,2022-11-30_16h26.35.928,vts_reward_expectancy_bt,2022.2.4,Win32,64.9561546,Chrome,1920,1080,,,l,1.4608,1,47,0,0,10,10,8,1,0,0,1,0,0,0,0,1,hexagon,star,,,,,,,,,,,,,,,,,,,,,,,,,,,,,,,,,,,,,,,,,,,,,,,,,,,,,,
296257,2022-11-30_16h26.35.928,vts_reward_expectancy_bt,2022.2.4,Win32,64.9561546,Chrome,1920,1080,,,l,0.3514,1,48,0,0,11,11,11,1,0,0,0,1,0,0,1,0,star,hexagon,,,,,,,,,,,,,,,,,,,,,,,,,,,,,,,,,,,,,,,,,,,,,,,,,,,,,,
296257,2022-11-30_16h26.35.928,vts_reward_expectancy_bt,2022.2.4,Win32,64.9561546,Chrome,1920,1080,,,a,0.0988,10,58,0,1,0,12,3,1,0,1,0,0,1,0,0,0,circle,triangle,,,,,,,,,,,,,,,,,,,,,,,,,,,,,,,,,,,,,,,,,,,,,,,,,,,,,,
296257,2022-11-30_16h26.35.928,vts_reward_expectancy_bt,2022.2.4,Win32,64.9561546,Chrome,1920,1080,,,l,0.0668,1,59,0,1,1,13,8,1,0,0,1,0,0,0,0,1,hexagon,star,,,,,,,,,,,,,,,,,,,,,,,,,,,,,,,,,,,,,,,,,,,,,,,,,,,,,,
296257,2022-11-30_16h26.35.928,vts_reward_expectancy_bt,2022.2.4,Win32,64.9561546,Chrome,1920,1080,,,a,0.1823,1,60,0,1,2,14,5,1,0,1,0,0,0,0,0,1,circle,star,,,,,,,,,,,,,,,,,,,,,,,,,,,,,,,,,,,,,,,,,,,,,,,,,,,,,,
296257,2022-11-30_16h26.35.928,vts_reward_expectancy_bt,2022.2.4,Win32,64.9561546,Chrome,1920,1080,,,a,0.139,10,70,0,1,3,15,4,1,0,1,0,0,0,0,1,0,circle,hexagon,,,,,,,,,,,,,,,,,,,,,,,,,,,,,,,,,,,,,,,,,,,,,,,,,,,,,,
296257,2022-11-30_16h26.35.928,vts_reward_expectancy_bt,2022.2.4,Win32,64.9561546,Chrome,1920,1080,,,a,0.1892,1,71,0,1,4,16,2,1,1,0,0,0,0,0,0,1,triangle,star,,,,,,,,,,,,,,,,,,,,,,,,,,,,,,,,,,,,,,,,,,,,,,,,,,,,,,
296257,2022-11-30_16h26.35.928,vts_reward_expectancy_bt,2022.2.4,Win32,64.9561546,Chrome,1920,1080,,,l,0.4233,1,72,0,1,5,17,10,1,0,0,0,1,0,1,0,0,star ,circle,,,,,,,,,,,,,,,,,,,,,,,,,,,,,,,,,,,,,,,,,,,,,,,,,,,,,,
296257,2022-11-30_16h26.35.928,vts_reward_expectancy_bt,2022.2.4,Win32,64.9561546,Chrome,1920,1080,,,l,0.1982,1,73,0,1,6,18,6,1,0,0,1,0,1,0,0,0,hexagon,triangle,,,,,,,,,,,,,,,,,,,,,,,,,,,,,,,,,,,,,,,,,,,,,,,,,,,,,,
296257,2022-11-30_16h26.35.928,vts_reward_expectancy_bt,2022.2.4,Win32,64.9561546,Chrome,1920,1080,,,l,0.0701,1,74,0,1,7,19,9,1,0,0,0,1,1,0,0,0,star,triangle,,,,,,,,,,,,,,,,,,,,,,,,,,,,,,,,,,,,,,,,,,,,,,,,,,,,,,
296257,2022-11-30_16h26.35.928,vts_reward_expectancy_bt,2022.2.4,Win32,64.9561546,Chrome,1920,1080,,,l,0.4109,1,75,0,1,8,20,11,1,0,0,0,1,0,0,1,0,star,hexagon,,,,,,,,,,,,,,,,,,,,,,,,,,,,,,,,,,,,,,,,,,,,,,,,,,,,,,
296257,2022-11-30_16h26.35.928,vts_reward_expectancy_bt,2022.2.4,Win32,64.9561546,Chrome,1920,1080,,,a,0.0796,1,76,0,1,9,21,1,1,1,0,0,0,0,0,1,0,triangle,hexagon,,,,,,,,,,,,,,,,,,,,,,,,,,,,,,,,,,,,,,,,,,,,,,,,,,,,,,
296257,2022-11-30_16h26.35.928,vts_reward_expectancy_bt,2022.2.4,Win32,64.9561546,Chrome,1920,1080,,,a,0.2522,1,77,0,1,10,22,0,1,1,0,0,0,0,1,0,0,triangle,circle,,,,,,,,,,,,,,,,,,,,,,,,,,,,,,,,,,,,,,,,,,,,,,,,,,,,,,
296257,2022-11-30_16h26.35.928,vts_reward_expectancy_bt,2022.2.4,Win32,64.9561546,Chrome,1920,1080,,,a,0.2446,10,87,0,1,11,23,7,1,0,0,1,0,0,1,0,0,hexagon,circle,,,,,,,,,,,,,,,,,,,,,,,,,,,,,,,,,,,,,,,,,,,,,,,,,,,,,,
296257,2022-11-30_16h26.35.928,vts_reward_expectancy_bt,2022.2.4,Win32,64.9561546,Chrome,1920,1080,,,a,2.6609,1,88,0,2,0,24,11,1,0,0,0,1,0,0,1,0,star,hexagon,,,,,,,,,,,,,,,,,,,,,,,,,,,,,,,,,,,,,,,,,,,,,,,,,,,,,,
296257,2022-11-30_16h26.35.928,vts_reward_expectancy_bt,2022.2.4,Win32,64.9561546,Chrome,1920,1080,,,a,0.1158,10,98,0,2,1,25,3,1,0,1,0,0,1,0,0,0,circle,triangle,,,,,,,,,,,,,,,,,,,,,,,,,,,,,,,,,,,,,,,,,,,,,,,,,,,,,,
296257,2022-11-30_16h26.35.928,vts_reward_expectancy_bt,2022.2.4,Win32,64.9561546,Chrome,1920,1080,,,a,0.2695,1,99,0,2,2,26,2,1,1,0,0,0,0,0,0,1,triangle,star,,,,,,,,,,,,,,,,,,,,,,,,,,,,,,,,,,,,,,,,,,,,,,,,,,,,,,
296257,2022-11-30_16h26.35.928,vts_reward_expectancy_bt,2022.2.4,Win32,64.9561546,Chrome,1920,1080,,,l,0.3152,10,109,0,2,3,27,7,1,0,0,1,0,0,1,0,0,hexagon,circle,,,,,,,,,,,,,,,,,,,,,,,,,,,,,,,,,,,,,,,,,,,,,,,,,,,,,,
296257,2022-11-30_16h26.35.928,vts_reward_expectancy_bt,2022.2.4,Win32,64.9561546,Chrome,1920,1080,,,a,0.0636,10,119,0,2,4,28,1,1,1,0,0,0,0,0,1,0,triangle,hexagon,,,,,,,,,,,,,,,,,,,,,,,,,,,,,,,,,,,,,,,,,,,,,,,,,,,,,,
296257,2022-11-30_16h26.35.928,vts_reward_expectancy_bt,2022.2.4,Win32,64.9561546,Chrome,1920,1080,,,a,0.1667,1,120,0,2,5,29,8,1,0,0,1,0,0,0,0,1,hexagon,star,,,,,,,,,,,,,,,,,,,,,,,,,,,,,,,,,,,,,,,,,,,,,,,,,,,,,,
296257,2022-11-30_16h26.35.928,vts_reward_expectancy_bt,2022.2.4,Win32,64.9561546,Chrome,1920,1080,,,l,0.1305,10,130,0,2,6,30,9,1,0,0,0,1,1,0,0,0,star,triangle,,,,,,,,,,,,,,,,,,,,,,,,,,,,,,,,,,,,,,,,,,,,,,,,,,,,,,
296257,2022-11-30_16h26.35.928,vts_reward_expectancy_bt,2022.2.4,Win32,64.9561546,Chrome,1920,1080,,,l,0.085,1,131,0,2,7,31,10,1,0,0,0,1,0,1,0,0,star ,circle,,,,,,,,,,,,,,,,,,,,,,,,,,,,,,,,,,,,,,,,,,,,,,,,,,,,,,
296257,2022-11-30_16h26.35.928,vts_reward_expectancy_bt,2022.2.4,Win32,64.9561546,Chrome,1920,1080,,,l,0.1534,10,141,0,2,8,32,4,1,0,1,0,0,0,0,1,0,circle,hexagon,,,,,,,,,,,,,,,,,,,,,,,,,,,,,,,,,,,,,,,,,,,,,,,,,,,,,,
296257,2022-11-30_16h26.35.928,vts_reward_expectancy_bt,2022.2.4,Win32,64.9561546,Chrome,1920,1080,,,a,0.211,10,151,0,2,9,33,5,1,0,1,0,0,0,0,0,1,circle,star,,,,,,,,,,,,,,,,,,,,,,,,,,,,,,,,,,,,,,,,,,,,,,,,,,,,,,
296257,2022-11-30_16h26.35.928,vts_reward_expectancy_bt,2022.2.4,Win32,64.9561546,Chrome,1920,1080,,,l,0.0584,10,161,0,2,10,34,0,1,1,0,0,0,0,1,0,0,triangle,circle,,,,,,,,,,,,,,,,,,,,,,,,,,,,,,,,,,,,,,,,,,,,,,,,,,,,,,
296257,2022-11-30_16h26.35.928,vts_reward_expectancy_bt,2022.2.4,Win32,64.9561546,Chrome,1920,1080,,,l,0.8963,1,162,0,2,11,35,6,1,0,0,1,0,1,0,0,0,hexagon,triangle,,,,,,,,,,,,,,,,,,,,,,,,,,,,,,,,,,,,,,,,,,,,,,,,,,,,,,
296257,2022-11-30_16h26.35.928,vts_reward_expectancy_bt,2022.2.4,Win32,64.9561546,Chrome,1920,1080,,,a,1.3925,10,172,1,0,0,0,4,1,0,1,0,0,0,0,1,0,circle,hexagon,,,,,,,,,,,,,,,,,,,,,,,,,,,,,,,,,,,,,,,,,,,,,,,,,,,,,,
296257,2022-11-30_16h26.35.928,vts_reward_expectancy_bt,2022.2.4,Win32,64.9561546,Chrome,1920,1080,,,l,0.0739,1,173,1,0,1,1,6,1,0,0,1,0,1,0,0,0,hexagon,triangle,,,,,,,,,,,,,,,,,,,,,,,,,,,,,,,,,,,,,,,,,,,,,,,,,,,,,,
296257,2022-11-30_16h26.35.928,vts_reward_expectancy_bt,2022.2.4,Win32,64.9561546,Chrome,1920,1080,,,a,0.2535,10,183,1,0,2,2,8,1,0,0,1,0,0,0,0,1,hexagon,star,,,,,,,,,,,,,,,,,,,,,,,,,,,,,,,,,,,,,,,,,,,,,,,,,,,,,,
296257,2022-11-30_16h26.35.928,vts_reward_expectancy_bt,2022.2.4,Win32,64.9561546,Chrome,1920,1080,,,a,0.0667,1,184,1,0,3,3,9,1,0,0,0,1,1,0,0,0,star,triangle,,,,,,,,,,,,,,,,,,,,,,,,,,,,,,,,,,,,,,,,,,,,,,,,,,,,,,
296257,2022-11-30_16h26.35.928,vts_reward_expectancy_bt,2022.2.4,Win32,64.9561546,Chrome,1920,1080,,,a,1.3697,10,194,1,0,4,4,5,1,0,1,0,0,0,0,0,1,circle,star,,,,,,,,,,,,,,,,,,,,,,,,,,,,,,,,,,,,,,,,,,,,,,,,,,,,,,
296257,2022-11-30_16h26.35.928,vts_reward_expectancy_bt,2022.2.4,Win32,64.9561546,Chrome,1920,1080,,,a,0.0203,10,204,1,0,5,5,7,1,0,0,1,0,0,1,0,0,hexagon,circle,,,,,,,,,,,,,,,,,,,,,,,,,,,,,,,,,,,,,,,,,,,,,,,,,,,,,,
296257,2022-11-30_16h26.35.928,vts_reward_expectancy_bt,2022.2.4,Win32,64.9561546,Chrome,1920,1080,,,l,0.0353,1,205,1,0,6,6,3,1,0,1,0,0,1,0,0,0,circle,triangle,,,,,,,,,,,,,,,,,,,,,,,,,,,,,,,,,,,,,,,,,,,,,,,,,,,,,,
296257,2022-11-30_16h26.35.928,vts_reward_expectancy_bt,2022.2.4,Win32,64.9561546,Chrome,1920,1080,,,l,0.3989,10,215,1,0,7,7,10,1,0,0,0,1,0,1,0,0,star ,circle,,,,,,,,,,,,,,,,,,,,,,,,,,,,,,,,,,,,,,,,,,,,,,,,,,,,,,
296257,2022-11-30_16h26.35.928,vts_reward_expectancy_bt,2022.2.4,Win32,64.9561546,Chrome,1920,1080,,,a,0.0248,1,216,1,0,8,8,2,1,1,0,0,0,0,0,0,1,triangle,star,,,,,,,,,,,,,,,,,,,,,,,,,,,,,,,,,,,,,,,,,,,,,,,,,,,,,,
296257,2022-11-30_16h26.35.928,vts_reward_expectancy_bt,2022.2.4,Win32,64.9561546,Chrome,1920,1080,,,a,0.0793,1,217,1,0,9,9,0,1,1,0,0,0,0,1,0,0,triangle,circle,,,,,,,,,,,,,,,,,,,,,,,,,,,,,,,,,,,,,,,,,,,,,,,,,,,,,,
296257,2022-11-30_16h26.35.928,vts_reward_expectancy_bt,2022.2.4,Win32,64.9561546,Chrome,1920,1080,,,a,0.5339,1,218,1,0,10,10,1,1,1,0,0,0,0,0,1,0,triangle,hexagon,,,,,,,,,,,,,,,,,,,,,,,,,,,,,,,,,,,,,,,,,,,,,,,,,,,,,,
296257,2022-11-30_16h26.35.928,vts_reward_expectancy_bt,2022.2.4,Win32,64.9561546,Chrome,1920,1080,,,a,0.0624,1,219,1,0,11,11,11,1,0,0,0,1,0,0,1,0,star,hexagon,,,,,,,,,,,,,,,,,,,,,,,,,,,,,,,,,,,,,,,,,,,,,,,,,,,,,,
296257,2022-11-30_16h26.35.928,vts_reward_expectancy_bt,2022.2.4,Win32,64.9561546,Chrome,1920,1080,,,l,0.8728,1,220,1,1,0,12,3,1,0,1,0,0,1,0,0,0,circle,triangle,,,,,,,,,,,,,,,,,,,,,,,,,,,,,,,,,,,,,,,,,,,,,,,,,,,,,,
296257,2022-11-30_16h26.35.928,vts_reward_expectancy_bt,2022.2.4,Win32,64.9561546,Chrome,1920,1080,,,l,0.332,1,221,1,1,1,13,9,1,0,0,0,1,1,0,0,0,star,triangle,,,,,,,,,,,,,,,,,,,,,,,,,,,,,,,,,,,,,,,,,,,,,,,,,,,,,,
296257,2022-11-30_16h26.35.928,vts_reward_expectancy_bt,2022.2.4,Win32,64.9561546,Chrome,1920,1080,,,l,0.1336,10,231,1,1,2,14,7,1,0,0,1,0,0,1,0,0,hexagon,circle,,,,,,,,,,,,,,,,,,,,,,,,,,,,,,,,,,,,,,,,,,,,,,,,,,,,,,
296257,2022-11-30_16h26.35.928,vts_reward_expectancy_bt,2022.2.4,Win32,64.9561546,Chrome,1920,1080,,,l,0.0086,10,241,1,1,3,15,0,1,1,0,0,0,0,1,0,0,triangle,circle,,,,,,,,,,,,,,,,,,,,,,,,,,,,,,,,,,,,,,,,,,,,,,,,,,,,,,
296257,2022-11-30_16h26.35.928,vts_reward_expectancy_bt,2022.2.4,Win32,64.9561546,Chrome,1920,1080,,,a,0.3418,1,242,1,1,4,16,5,1,0,1,0,0,0,0,0,1,circle,star,,,,,,,,,,,,,,,,,,,,,,,,,,,,,,,,,,,,,,,,,,,,,,,,,,,,,,
296257,2022-11-30_16h26.35.928,vts_reward_expectancy_bt,2022.2.4,Win32,64.9561546,Chrome,1920,1080,,,a,0.1316,1,243,1,1,5,17,10,1,0,0,0,1,0,1,0,0,star ,circle,,,,,,,,,,,,,,,,,,,,,,,,,,,,,,,,,,,,,,,,,,,,,,,,,,,,,,
296257,2022-11-30_16h26.35.928,vts_reward_expectancy_bt,2022.2.4,Win32,64.9561546,Chrome,1920,1080,,,a,0.0308,10,253,1,1,6,18,6,1,0,0,1,0,1,0,0,0,hexagon,triangle,,,,,,,,,,,,,,,,,,,,,,,,,,,,,,,,,,,,,,,,,,,,,,,,,,,,,,
296257,2022-11-30_16h26.35.928,vts_reward_expectancy_bt,2022.2.4,Win32,64.9561546,Chrome,1920,1080,,,l,0.1733,1,254,1,1,7,19,2,1,1,0,0,0,0,0,0,1,triangle,star,,,,,,,,,,,,,,,,,,,,,,,,,,,,,,,,,,,,,,,,,,,,,,,,,,,,,,
296257,2022-11-30_16h26.35.928,vts_reward_expectancy_bt,2022.2.4,Win32,64.9561546,Chrome,1920,1080,,,l,0.3054,10,264,1,1,8,20,4,1,0,1,0,0,0,0,1,0,circle,hexagon,,,,,,,,,,,,,,,,,,,,,,,,,,,,,,,,,,,,,,,,,,,,,,,,,,,,,,
296257,2022-11-30_16h26.35.928,vts_reward_expectancy_bt,2022.2.4,Win32,64.9561546,Chrome,1920,1080,,,a,0.0641,10,274,1,1,9,21,8,1,0,0,1,0,0,0,0,1,hexagon,star,,,,,,,,,,,,,,,,,,,,,,,,,,,,,,,,,,,,,,,,,,,,,,,,,,,,,,
296257,2022-11-30_16h26.35.928,vts_reward_expectancy_bt,2022.2.4,Win32,64.9561546,Chrome,1920,1080,,,a,0.0546,1,275,1,1,10,22,1,1,1,0,0,0,0,0,1,0,triangle,hexagon,,,,,,,,,,,,,,,,,,,,,,,,,,,,,,,,,,,,,,,,,,,,,,,,,,,,,,
296257,2022-11-30_16h26.35.928,vts_reward_expectancy_bt,2022.2.4,Win32,64.9561546,Chrome,1920,1080,,,l,0.0199,10,285,1,1,11,23,11,1,0,0,0,1,0,0,1,0,star,hexagon,,,,,,,,,,,,,,,,,,,,,,,,,,,,,,,,,,,,,,,,,,,,,,,,,,,,,,
296257,2022-11-30_16h26.35.928,vts_reward_expectancy_bt,2022.2.4,Win32,64.9561546,Chrome,1920,1080,,,l,0.0209,1,286,1,2,0,24,6,1,0,0,1,0,1,0,0,0,hexagon,triangle,,,,,,,,,,,,,,,,,,,,,,,,,,,,,,,,,,,,,,,,,,,,,,,,,,,,,,
296257,2022-11-30_16h26.35.928,vts_reward_expectancy_bt,2022.2.4,Win32,64.9561546,Chrome,1920,1080,,,l,0.2133,10,296,1,2,1,25,9,1,0,0,0,1,1,0,0,0,star,triangle,,,,,,,,,,,,,,,,,,,,,,,,,,,,,,,,,,,,,,,,,,,,,,,,,,,,,,
296257,2022-11-30_16h26.35.928,vts_reward_expectancy_bt,2022.2.4,Win32,64.9561546,Chrome,1920,1080,,,a,0.081,10,306,1,2,2,26,10,1,0,0,0,1,0,1,0,0,star ,circle,,,,,,,,,,,,,,,,,,,,,,,,,,,,,,,,,,,,,,,,,,,,,,,,,,,,,,
296257,2022-11-30_16h26.35.928,vts_reward_expectancy_bt,2022.2.4,Win32,64.9561546,Chrome,1920,1080,,,a,0.312,10,316,1,2,3,27,1,1,1,0,0,0,0,0,1,0,triangle,hexagon,,,,,,,,,,,,,,,,,,,,,,,,,,,,,,,,,,,,,,,,,,,,,,,,,,,,,,
296257,2022-11-30_16h26.35.928,vts_reward_expectancy_bt,2022.2.4,Win32,64.9561546,Chrome,1920,1080,,,l,0.1718,1,317,1,2,4,28,11,1,0,0,0,1,0,0,1,0,star,hexagon,,,,,,,,,,,,,,,,,,,,,,,,,,,,,,,,,,,,,,,,,,,,,,,,,,,,,,
296257,2022-11-30_16h26.35.928,vts_reward_expectancy_bt,2022.2.4,Win32,64.9561546,Chrome,1920,1080,,,l,0.9337,1,318,1,2,5,29,5,1,0,1,0,0,0,0,0,1,circle,star,,,,,,,,,,,,,,,,,,,,,,,,,,,,,,,,,,,,,,,,,,,,,,,,,,,,,,
296257,2022-11-30_16h26.35.928,vts_reward_expectancy_bt,2022.2.4,Win32,64.9561546,Chrome,1920,1080,,,l,0.0303,1,319,1,2,6,30,7,1,0,0,1,0,0,1,0,0,hexagon,circle,,,,,,,,,,,,,,,,,,,,,,,,,,,,,,,,,,,,,,,,,,,,,,,,,,,,,,
296257,2022-11-30_16h26.35.928,vts_reward_expectancy_bt,2022.2.4,Win32,64.9561546,Chrome,1920,1080,,,a,0.1774,10,329,1,2,7,31,8,1,0,0,1,0,0,0,0,1,hexagon,star,,,,,,,,,,,,,,,,,,,,,,,,,,,,,,,,,,,,,,,,,,,,,,,,,,,,,,
296257,2022-11-30_16h26.35.928,vts_reward_expectancy_bt,2022.2.4,Win32,64.9561546,Chrome,1920,1080,,,l,0.1996,1,330,1,2,8,32,2,1,1,0,0,0,0,0,0,1,triangle,star,,,,,,,,,,,,,,,,,,,,,,,,,,,,,,,,,,,,,,,,,,,,,,,,,,,,,,
296257,2022-11-30_16h26.35.928,vts_reward_expectancy_bt,2022.2.4,Win32,64.9561546,Chrome,1920,1080,,,l,0.0359,10,340,1,2,9,33,0,1,1,0,0,0,0,1,0,0,triangle,circle,,,,,,,,,,,,,,,,,,,,,,,,,,,,,,,,,,,,,,,,,,,,,,,,,,,,,,
296257,2022-11-30_16h26.35.928,vts_reward_expectancy_bt,2022.2.4,Win32,64.9561546,Chrome,1920,1080,,,a,0.1154,1,341,1,2,10,34,4,1,0,1,0,0,0,0,1,0,circle,hexagon,,,,,,,,,,,,,,,,,,,,,,,,,,,,,,,,,,,,,,,,,,,,,,,,,,,,,,
296257,2022-11-30_16h26.35.928,vts_reward_expectancy_bt,2022.2.4,Win32,64.9561546,Chrome,1920,1080,,,a,0.1172,10,351,1,2,11,35,3,1,0,1,0,0,1,0,0,0,circle,triangle,,,,,,,,,,,,,,,,,,,,,,,,,,,,,,,,,,,,,,,,,,,,,,,,,,,,,,
296257,2022-11-30_16h26.35.928,vts_reward_expectancy_bt,2022.2.4,Win32,64.9561546,Chrome,1920,1080,,,a,0.7347,1,352,2,0,0,0,1,1,1,0,0,0,0,0,1,0,triangle,hexagon,,,,,,,,,,,,,,,,,,,,,,,,,,,,,,,,,,,,,,,,,,,,,,,,,,,,,,
296257,2022-11-30_16h26.35.928,vts_reward_expectancy_bt,2022.2.4,Win32,64.9561546,Chrome,1920,1080,,,l,0.1335,10,362,2,0,1,1,4,1,0,1,0,0,0,0,1,0,circle,hexagon,,,,,,,,,,,,,,,,,,,,,,,,,,,,,,,,,,,,,,,,,,,,,,,,,,,,,,
296257,2022-11-30_16h26.35.928,vts_reward_expectancy_bt,2022.2.4,Win32,64.9561546,Chrome,1920,1080,,,l,0.1936,1,363,2,0,2,2,6,1,0,0,1,0,1,0,0,0,hexagon,triangle,,,,,,,,,,,,,,,,,,,,,,,,,,,,,,,,,,,,,,,,,,,,,,,,,,,,,,
296257,2022-11-30_16h26.35.928,vts_reward_expectancy_bt,2022.2.4,Win32,64.9561546,Chrome,1920,1080,,,l,0.0609,1,364,2,0,3,3,8,1,0,0,1,0,0,0,0,1,hexagon,star,,,,,,,,,,,,,,,,,,,,,,,,,,,,,,,,,,,,,,,,,,,,,,,,,,,,,,
296257,2022-11-30_16h26.35.928,vts_reward_expectancy_bt,2022.2.4,Win32,64.9561546,Chrome,1920,1080,,,l,0.1973,1,365,2,0,4,4,3,1,0,1,0,0,1,0,0,0,circle,triangle,,,,,,,,,,,,,,,,,,,,,,,,,,,,,,,,,,,,,,,,,,,,,,,,,,,,,,
296257,2022-11-30_16h26.35.928,vts_reward_expectancy_bt,2022.2.4,Win32,64.9561546,Chrome,1920,1080,,,l,0.1424,1,366,2,0,5,5,2,1,1,0,0,0,0,0,0,1,triangle,star,,,,,,,,,,,,,,,,,,,,,,,,,,,,,,,,,,,,,,,,,,,,,,,,,,,,,,
296257,2022-11-30_16h26.35.928,vts_reward_expectancy_bt,2022.2.4,Win32,64.9561546,Chrome,1920,1080,,,l,0.1332,1,367,2,0,6,6,0,1,1,0,0,0,0,1,0,0,triangle,circle,,,,,,,,,,,,,,,,,,,,,,,,,,,,,,,,,,,,,,,,,,,,,,,,,,,,,,
296257,2022-11-30_16h26.35.928,vts_reward_expectancy_bt,2022.2.4,Win32,64.9561546,Chrome,1920,1080,,,l,0.1345,1,368,2,0,7,7,5,1,0,1,0,0,0,0,0,1,circle,star,,,,,,,,,,,,,,,,,,,,,,,,,,,,,,,,,,,,,,,,,,,,,,,,,,,,,,
296257,2022-11-30_16h26.35.928,vts_reward_expectancy_bt,2022.2.4,Win32,64.9561546,Chrome,1920,1080,,,l,0.1934,10,378,2,0,8,8,7,1,0,0,1,0,0,1,0,0,hexagon,circle,,,,,,,,,,,,,,,,,,,,,,,,,,,,,,,,,,,,,,,,,,,,,,,,,,,,,,
296257,2022-11-30_16h26.35.928,vts_reward_expectancy_bt,2022.2.4,Win32,64.9561546,Chrome,1920,1080,,,l,0.3479,10,388,2,0,9,9,10,1,0,0,0,1,0,1,0,0,star ,circle,,,,,,,,,,,,,,,,,,,,,,,,,,,,,,,,,,,,,,,,,,,,,,,,,,,,,,
296257,2022-11-30_16h26.35.928,vts_reward_expectancy_bt,2022.2.4,Win32,64.9561546,Chrome,1920,1080,,,l,0.0291,1,389,2,0,10,10,9,1,0,0,0,1,1,0,0,0,star,triangle,,,,,,,,,,,,,,,,,,,,,,,,,,,,,,,,,,,,,,,,,,,,,,,,,,,,,,
296257,2022-11-30_16h26.35.928,vts_reward_expectancy_bt,2022.2.4,Win32,64.9561546,Chrome,1920,1080,,,l,0.1163,10,399,2,0,11,11,11,1,0,0,0,1,0,0,1,0,star,hexagon,,,,,,,,,,,,,,,,,,,,,,,,,,,,,,,,,,,,,,,,,,,,,,,,,,,,,,
296257,2022-11-30_16h26.35.928,vts_reward_expectancy_bt,2022.2.4,Win32,64.9561546,Chrome,1920,1080,,,l,0.1393,1,400,2,1,0,12,4,1,0,1,0,0,0,0,1,0,circle,hexagon,,,,,,,,,,,,,,,,,,,,,,,,,,,,,,,,,,,,,,,,,,,,,,,,,,,,,,
296257,2022-11-30_16h26.35.928,vts_reward_expectancy_bt,2022.2.4,Win32,64.9561546,Chrome,1920,1080,,,l,0.1419,1,401,2,1,1,13,5,1,0,1,0,0,0,0,0,1,circle,star,,,,,,,,,,,,,,,,,,,,,,,,,,,,,,,,,,,,,,,,,,,,,,,,,,,,,,
296257,2022-11-30_16h26.35.928,vts_reward_expectancy_bt,2022.2.4,Win32,64.9561546,Chrome,1920,1080,,,l,0.177,10,411,2,1,2,14,10,1,0,0,0,1,0,1,0,0,star ,circle,,,,,,,,,,,,,,,,,,,,,,,,,,,,,,,,,,,,,,,,,,,,,,,,,,,,,,
296257,2022-11-30_16h26.35.928,vts_reward_expectancy_bt,2022.2.4,Win32,64.9561546,Chrome,1920,1080,,,l,0.1493,10,421,2,1,3,15,1,1,1,0,0,0,0,0,1,0,triangle,hexagon,,,,,,,,,,,,,,,,,,,,,,,,,,,,,,,,,,,,,,,,,,,,,,,,,,,,,,
296257,2022-11-30_16h26.35.928,vts_reward_expectancy_bt,2022.2.4,Win32,64.9561546,Chrome,1920,1080,,,a,0.0626,1,422,2,1,4,16,11,1,0,0,0,1,0,0,1,0,star,hexagon,,,,,,,,,,,,,,,,,,,,,,,,,,,,,,,,,,,,,,,,,,,,,,,,,,,,,,
296257,2022-11-30_16h26.35.928,vts_reward_expectancy_bt,2022.2.4,Win32,64.9561546,Chrome,1920,1080,,,l,0.1613,10,432,2,1,5,17,9,1,0,0,0,1,1,0,0,0,star,triangle,,,,,,,,,,,,,,,,,,,,,,,,,,,,,,,,,,,,,,,,,,,,,,,,,,,,,,
296257,2022-11-30_16h26.35.928,vts_reward_expectancy_bt,2022.2.4,Win32,64.9561546,Chrome,1920,1080,,,l,0.8426,10,442,2,1,6,18,7,1,0,0,1,0,0,1,0,0,hexagon,circle,,,,,,,,,,,,,,,,,,,,,,,,,,,,,,,,,,,,,,,,,,,,,,,,,,,,,,
296257,2022-11-30_16h26.35.928,vts_reward_expectancy_bt,2022.2.4,Win32,64.9561546,Chrome,1920,1080,,,l,0.0812,1,443,2,1,7,19,2,1,1,0,0,0,0,0,0,1,triangle,star,,,,,,,,,,,,,,,,,,,,,,,,,,,,,,,,,,,,,,,,,,,,,,,,,,,,,,
296257,2022-11-30_16h26.35.928,vts_reward_expectancy_bt,2022.2.4,Win32,64.9561546,Chrome,1920,1080,,,a,0.0333,10,453,2,1,8,20,8,1,0,0,1,0,0,0,0,1,hexagon,star,,,,,,,,,,,,,,,,,,,,,,,,,,,,,,,,,,,,,,,,,,,,,,,,,,,,,,
296257,2022-11-30_16h26.35.928,vts_reward_expectancy_bt,2022.2.4,Win32,64.9561546,Chrome,1920,1080,,,l,0.1883,10,463,2,1,9,21,0,1,1,0,0,0,0,1,0,0,triangle,circle,,,,,,,,,,,,,,,,,,,,,,,,,,,,,,,,,,,,,,,,,,,,,,,,,,,,,,
296257,2022-11-30_16h26.35.928,vts_reward_expectancy_bt,2022.2.4,Win32,64.9561546,Chrome,1920,1080,,,a,0.5721,10,473,2,1,10,22,6,1,0,0,1,0,1,0,0,0,hexagon,triangle,,,,,,,,,,,,,,,,,,,,,,,,,,,,,,,,,,,,,,,,,,,,,,,,,,,,,,
296257,2022-11-30_16h26.35.928,vts_reward_expectancy_bt,2022.2.4,Win32,64.9561546,Chrome,1920,1080,,,l,3.1475,1,474,2,1,11,23,3,1,0,1,0,0,1,0,0,0,circle,triangle,,,,,,,,,,,,,,,,,,,,,,,,,,,,,,,,,,,,,,,,,,,,,,,,,,,,,,
296257,2022-11-30_16h26.35.928,vts_reward_expectancy_bt,2022.2.4,Win32,64.9561546,Chrome,1920,1080,,,a,0.0928,1,475,2,2,0,24,9,1,0,0,0,1,1,0,0,0,star,triangle,,,,,,,,,,,,,,,,,,,,,,,,,,,,,,,,,,,,,,,,,,,,,,,,,,,,,,
296257,2022-11-30_16h26.35.928,vts_reward_expectancy_bt,2022.2.4,Win32,64.9561546,Chrome,1920,1080,,,a,0.034,1,476,2,2,1,25,11,1,0,0,0,1,0,0,1,0,star,hexagon,,,,,,,,,,,,,,,,,,,,,,,,,,,,,,,,,,,,,,,,,,,,,,,,,,,,,,
296257,2022-11-30_16h26.35.928,vts_reward_expectancy_bt,2022.2.4,Win32,64.9561546,Chrome,1920,1080,,,l,0.0547,10,486,2,2,2,26,5,1,0,1,0,0,0,0,0,1,circle,star,,,,,,,,,,,,,,,,,,,,,,,,,,,,,,,,,,,,,,,,,,,,,,,,,,,,,,
296257,2022-11-30_16h26.35.928,vts_reward_expectancy_bt,2022.2.4,Win32,64.9561546,Chrome,1920,1080,,,l,3.1176,1,487,2,2,3,27,2,1,1,0,0,0,0,0,0,1,triangle,star,,,,,,,,,,,,,,,,,,,,,,,,,,,,,,,,,,,,,,,,,,,,,,,,,,,,,,
296257,2022-11-30_16h26.35.928,vts_reward_expectancy_bt,2022.2.4,Win32,64.9561546,Chrome,1920,1080,,,l,3.9417,10,497,2,2,4,28,1,1,1,0,0,0,0,0,1,0,triangle,hexagon,,,,,,,,,,,,,,,,,,,,,,,,,,,,,,,,,,,,,,,,,,,,,,,,,,,,,,
296257,2022-11-30_16h26.35.928,vts_reward_expectancy_bt,2022.2.4,Win32,64.9561546,Chrome,1920,1080,,,a,0.0627,10,507,2,2,5,29,10,1,0,0,0,1,0,1,0,0,star ,circle,,,,,,,,,,,,,,,,,,,,,,,,,,,,,,,,,,,,,,,,,,,,,,,,,,,,,,
296257,2022-11-30_16h26.35.928,vts_reward_expectancy_bt,2022.2.4,Win32,64.9561546,Chrome,1920,1080,,,a,0.18,1,508,2,2,6,30,8,1,0,0,1,0,0,0,0,1,hexagon,star,,,,,,,,,,,,,,,,,,,,,,,,,,,,,,,,,,,,,,,,,,,,,,,,,,,,,,
296257,2022-11-30_16h26.35.928,vts_reward_expectancy_bt,2022.2.4,Win32,64.9561546,Chrome,1920,1080,,,a,0.1491,1,509,2,2,7,31,3,1,0,1,0,0,1,0,0,0,circle,triangle,,,,,,,,,,,,,,,,,,,,,,,,,,,,,,,,,,,,,,,,,,,,,,,,,,,,,,
296257,2022-11-30_16h26.35.928,vts_reward_expectancy_bt,2022.2.4,Win32,64.9561546,Chrome,1920,1080,,,a,0.0815,10,519,2,2,8,32,6,1,0,0,1,0,1,0,0,0,hexagon,triangle,,,,,,,,,,,,,,,,,,,,,,,,,,,,,,,,,,,,,,,,,,,,,,,,,,,,,,
296257,2022-11-30_16h26.35.928,vts_reward_expectancy_bt,2022.2.4,Win32,64.9561546,Chrome,1920,1080,,,l,0.0937,10,529,2,2,9,33,4,1,0,1,0,0,0,0,1,0,circle,hexagon,,,,,,,,,,,,,,,,,,,,,,,,,,,,,,,,,,,,,,,,,,,,,,,,,,,,,,
296257,2022-11-30_16h26.35.928,vts_reward_expectancy_bt,2022.2.4,Win32,64.9561546,Chrome,1920,1080,,,l,0.0408,10,539,2,2,10,34,7,1,0,0,1,0,0,1,0,0,hexagon,circle,,,,,,,,,,,,,,,,,,,,,,,,,,,,,,,,,,,,,,,,,,,,,,,,,,,,,,
296257,2022-11-30_16h26.35.928,vts_reward_expectancy_bt,2022.2.4,Win32,64.9561546,Chrome,1920,1080,,,l,0.1409,10,549,2,2,11,35,0,1,1,0,0,0,0,1,0,0,triangle,circle,,,,,,,,,,,,,,,,,,,,,,,,,,,,,,,,,,,,,,,,,,,,,,,,,,,,,,
296257,2022-11-30_16h26.35.928,vts_reward_expectancy_bt,2022.2.4,Win32,64.9561546,Chrome,1920,1080,,,,,,,,,,,,,,,,,,,,,,,146,S,triangle,0,0,f,0.156,0,0,0,0,0,1,,,,,,,,,,,,,,,,,,,,,,,,,,,,,,,,,,,,,,,,,
296257,2022-11-30_16h26.35.928,vts_reward_expectancy_bt,2022.2.4,Win32,64.9561546,Chrome,1920,1080,,,,,,,,,,,,,,,,,,,,,,,139,F,circle,1,1,d,0.0086,0,1,0,1,0,1,,,,,,,,,,,,,,,,,,,,,,,,,,,,,,,,,,,,,,,,,
296257,2022-11-30_16h26.35.928,vts_reward_expectancy_bt,2022.2.4,Win32,64.9561546,Chrome,1920,1080,,,,,,,,,,,,,,,,,,,,,,,167,B,hexagon,1,0,f,0.022,0,2,0,2,0,1,,,,,,,,,,,,,,,,,,,,,,,,,,,,,,,,,,,,,,,,,
296257,2022-11-30_16h26.35.928,vts_reward_expectancy_bt,2022.2.4,Win32,64.9561546,Chrome,1920,1080,,,,,,,,,,,,,,,,,,,,,,,174,U,star,1,0,f,0.0039,0,3,0,3,0,1,,,,,,,,,,,,,,,,,,,,,,,,,,,,,,,,,,,,,,,,,
296257,2022-11-30_16h26.35.928,vts_reward_expectancy_bt,2022.2.4,Win32,64.9561546,Chrome,1920,1080,,,,,,,,,,,,,,,,,,,,,,,132,D,triangle,1,0,d,2.0074,0,4,0,4,0,1,,,,,,,,,,,,,,,,,,,,,,,,,,,,,,,,,,,,,,,,,
296257,2022-11-30_16h26.35.928,vts_reward_expectancy_bt,2022.2.4,Win32,64.9561546,Chrome,1920,1080,,,,,,,,,,,,,,,,,,,,,,,125,W,circle,1,0,d,0.0157,0,5,0,5,0,1,,,,,,,,,,,,,,,,,,,,,,,,,,,,,,,,,,,,,,,,,
296257,2022-11-30_16h26.35.928,vts_reward_expectancy_bt,2022.2.4,Win32,64.9561546,Chrome,1920,1080,,,,,,,,,,,,,,,,,,,,,,,181,H,hexagon,1,0,f,0.0546,0,6,0,6,0,1,,,,,,,,,,,,,,,,,,,,,,,,,,,,,,,,,,,,,,,,,
296257,2022-11-30_16h26.35.928,vts_reward_expectancy_bt,2022.2.4,Win32,64.9561546,Chrome,1920,1080,,,,,,,,,,,,,,,,,,,,,,,160,Y,star,0,0,d,0.3037,0,7,0,7,0,1,,,,,,,,,,,,,,,,,,,,,,,,,,,,,,,,,,,,,,,,,
296257,2022-11-30_16h26.35.928,vts_reward_expectancy_bt,2022.2.4,Win32,64.9561546,Chrome,1920,1080,,,,,,,,,,,,,,,,,,,,,,,146,S,circle,1,1,d,0.0266,0,8,0,8,0,1,,,,,,,,,,,,,,,,,,,,,,,,,,,,,,,,,,,,,,,,,
296257,2022-11-30_16h26.35.928,vts_reward_expectancy_bt,2022.2.4,Win32,64.9561546,Chrome,1920,1080,,,,,,,,,,,,,,,,,,,,,,,139,F,hexagon,1,0,d,0.1429,0,9,0,9,0,1,,,,,,,,,,,,,,,,,,,,,,,,,,,,,,,,,,,,,,,,,
296257,2022-11-30_16h26.35.928,vts_reward_expectancy_bt,2022.2.4,Win32,64.9561546,Chrome,1920,1080,,,,,,,,,,,,,,,,,,,,,,,167,Y,triangle,0,0,d,0.1847,1,0,0,0,0,1,,,,,,,,,,,,,,,,,,,,,,,,,,,,,,,,,,,,,,,,,
296257,2022-11-30_16h26.35.928,vts_reward_expectancy_bt,2022.2.4,Win32,64.9561546,Chrome,1920,1080,,,,,,,,,,,,,,,,,,,,,,,181,B,star,1,1,f,0.2931,1,1,0,1,0,1,,,,,,,,,,,,,,,,,,,,,,,,,,,,,,,,,,,,,,,,,
296257,2022-11-30_16h26.35.928,vts_reward_expectancy_bt,2022.2.4,Win32,64.9561546,Chrome,1920,1080,,,,,,,,,,,,,,,,,,,,,,,139,H,circle,1,0,d,0.2821,1,2,0,2,0,1,,,,,,,,,,,,,,,,,,,,,,,,,,,,,,,,,,,,,,,,,
296257,2022-11-30_16h26.35.928,vts_reward_expectancy_bt,2022.2.4,Win32,64.9561546,Chrome,1920,1080,,,,,,,,,,,,,,,,,,,,,,,160,F,hexagon,1,0,f,0.022,1,3,0,3,0,1,,,,,,,,,,,,,,,,,,,,,,,,,,,,,,,,,,,,,,,,,
296257,2022-11-30_16h26.35.928,vts_reward_expectancy_bt,2022.2.4,Win32,64.9561546,Chrome,1920,1080,,,,,,,,,,,,,,,,,,,,,,,125,S,triangle,0,0,f,0.1326,1,4,0,4,0,1,,,,,,,,,,,,,,,,,,,,,,,,,,,,,,,,,,,,,,,,,
296257,2022-11-30_16h26.35.928,vts_reward_expectancy_bt,2022.2.4,Win32,64.9561546,Chrome,1920,1080,,,,,,,,,,,,,,,,,,,,,,,132,W,star,0,1,f,0.0928,1,5,0,5,0,1,,,,,,,,,,,,,,,,,,,,,,,,,,,,,,,,,,,,,,,,,
296257,2022-11-30_16h26.35.928,vts_reward_expectancy_bt,2022.2.4,Win32,64.9561546,Chrome,1920,1080,,,,,,,,,,,,,,,,,,,,,,,174,U,circle,1,1,f,0.087,1,6,0,6,0,1,,,,,,,,,,,,,,,,,,,,,,,,,,,,,,,,,,,,,,,,,
296257,2022-11-30_16h26.35.928,vts_reward_expectancy_bt,2022.2.4,Win32,64.9561546,Chrome,1920,1080,,,,,,,,,,,,,,,,,,,,,,,146,D,hexagon,0,0,f,0.1759,1,7,0,7,0,1,,,,,,,,,,,,,,,,,,,,,,,,,,,,,,,,,,,,,,,,,
296257,2022-11-30_16h26.35.928,vts_reward_expectancy_bt,2022.2.4,Win32,64.9561546,Chrome,1920,1080,,,,,,,,,,,,,,,,,,,,,,,167,Y,circle,1,1,f,0.3791,1,8,0,8,0,1,,,,,,,,,,,,,,,,,,,,,,,,,,,,,,,,,,,,,,,,,
296257,2022-11-30_16h26.35.928,vts_reward_expectancy_bt,2022.2.4,Win32,64.9561546,Chrome,1920,1080,,,,,,,,,,,,,,,,,,,,,,,181,B,triangle,1,0,f,0.3013,1,9,0,9,0,1,,,,,,,,,,,,,,,,,,,,,,,,,,,,,,,,,,,,,,,,,
296257,2022-11-30_16h26.35.928,vts_reward_expectancy_bt,2022.2.4,Win32,64.9561546,Chrome,1920,1080,,,,,,,,,,,,,,,,,,,,,,,132,D,triangle,0,0,f,0.641,2,0,0,0,0,1,,,,,,,,,,,,,,,,,,,,,,,,,,,,,,,,,,,,,,,,,
296257,2022-11-30_16h26.35.928,vts_reward_expectancy_bt,2022.2.4,Win32,64.9561546,Chrome,1920,1080,,,,,,,,,,,,,,,,,,,,,,,139,B,hexagon,1,1,d,0.5328,2,1,0,1,0,1,,,,,,,,,,,,,,,,,,,,,,,,,,,,,,,,,,,,,,,,,
296257,2022-11-30_16h26.35.928,vts_reward_expectancy_bt,2022.2.4,Win32,64.9561546,Chrome,1920,1080,,,,,,,,,,,,,,,,,,,,,,,125,S,star,1,0,d,0.674,2,2,0,2,0,1,,,,,,,,,,,,,,,,,,,,,,,,,,,,,,,,,,,,,,,,,
296257,2022-11-30_16h26.35.928,vts_reward_expectancy_bt,2022.2.4,Win32,64.9561546,Chrome,1920,1080,,,,,,,,,,,,,,,,,,,,,,,160,W,circle,1,0,f,0.6783,2,3,0,3,0,1,,,,,,,,,,,,,,,,,,,,,,,,,,,,,,,,,,,,,,,,,
296257,2022-11-30_16h26.35.928,vts_reward_expectancy_bt,2022.2.4,Win32,64.9561546,Chrome,1920,1080,,,,,,,,,,,,,,,,,,,,,,,167,U,triangle,1,0,f,0.9068,2,4,0,4,0,1,,,,,,,,,,,,,,,,,,,,,,,,,,,,,,,,,,,,,,,,,
296257,2022-11-30_16h26.35.928,vts_reward_expectancy_bt,2022.2.4,Win32,64.9561546,Chrome,1920,1080,,,,,,,,,,,,,,,,,,,,,,,146,H,hexagon,1,0,d,0.6633,2,5,0,5,0,1,,,,,,,,,,,,,,,,,,,,,,,,,,,,,,,,,,,,,,,,,
296257,2022-11-30_16h26.35.928,vts_reward_expectancy_bt,2022.2.4,Win32,64.9561546,Chrome,1920,1080,,,,,,,,,,,,,,,,,,,,,,,181,F,star,1,0,f,2.1967,2,6,0,6,0,1,,,,,,,,,,,,,,,,,,,,,,,,,,,,,,,,,,,,,,,,,
296257,2022-11-30_16h26.35.928,vts_reward_expectancy_bt,2022.2.4,Win32,64.9561546,Chrome,1920,1080,,,,,,,,,,,,,,,,,,,,,,,174,Y,circle,1,0,f,0.8407,2,7,0,7,0,1,,,,,,,,,,,,,,,,,,,,,,,,,,,,,,,,,,,,,,,,,
296257,2022-11-30_16h26.35.928,vts_reward_expectancy_bt,2022.2.4,Win32,64.9561546,Chrome,1920,1080,,,,,,,,,,,,,,,,,,,,,,,132,D,circle,1,0,d,0.6923,2,8,0,8,0,1,,,,,,,,,,,,,,,,,,,,,,,,,,,,,,,,,,,,,,,,,
296257,2022-11-30_16h26.35.928,vts_reward_expectancy_bt,2022.2.4,Win32,64.9561546,Chrome,1920,1080,,,,,,,,,,,,,,,,,,,,,,,139,B,hexagon,1,0,d,0.5026,2,9,0,9,0,1,,,,,,,,,,,,,,,,,,,,,,,,,,,,,,,,,,,,,,,,,
296257,2022-11-30_16h26.35.928,vts_reward_expectancy_bt,2022.2.4,Win32,64.9561546,Chrome,1920,1080,,,,,,,,,,,,,,,,,,,,,,,160,D,hexagon,1,0,,,3,,,,,,j,0.7817,0,0,0,0,1,,,,,,,,,,,,,,,,,,,,,,,,,,,,,,,,,,
296257,2022-11-30_16h26.35.928,vts_reward_expectancy_bt,2022.2.4,Win32,64.9561546,Chrome,1920,1080,,,,,,,,,,,,,,,,,,,,,,,181,H,triangle,1,0,,,3,,,,,,j,0.5541,1,0,1,0,1,,,,,,,,,,,,,,,,,,,,,,,,,,,,,,,,,,
296257,2022-11-30_16h26.35.928,vts_reward_expectancy_bt,2022.2.4,Win32,64.9561546,Chrome,1920,1080,,,,,,,,,,,,,,,,,,,,,,,132,B,circle,1,0,,,3,,,,,,j,0.5015,2,0,2,0,1,,,,,,,,,,,,,,,,,,,,,,,,,,,,,,,,,,
296257,2022-11-30_16h26.35.928,vts_reward_expectancy_bt,2022.2.4,Win32,64.9561546,Chrome,1920,1080,,,,,,,,,,,,,,,,,,,,,,,174,Y,star,1,0,,,3,,,,,,k,0.4517,3,0,3,0,1,,,,,,,,,,,,,,,,,,,,,,,,,,,,,,,,,,
296257,2022-11-30_16h26.35.928,vts_reward_expectancy_bt,2022.2.4,Win32,64.9561546,Chrome,1920,1080,,,,,,,,,,,,,,,,,,,,,,,139,F,hexagon,1,0,,,3,,,,,,j,1.1501,4,0,4,0,1,,,,,,,,,,,,,,,,,,,,,,,,,,,,,,,,,,
296257,2022-11-30_16h26.35.928,vts_reward_expectancy_bt,2022.2.4,Win32,64.9561546,Chrome,1920,1080,,,,,,,,,,,,,,,,,,,,,,,125,S,triangle,1,0,,,3,,,,,,k,0.7746,5,0,5,0,1,,,,,,,,,,,,,,,,,,,,,,,,,,,,,,,,,,
296257,2022-11-30_16h26.35.928,vts_reward_expectancy_bt,2022.2.4,Win32,64.9561546,Chrome,1920,1080,,,,,,,,,,,,,,,,,,,,,,,146,W,circle,1,0,,,3,,,,,,k,0.8495,6,0,6,0,1,,,,,,,,,,,,,,,,,,,,,,,,,,,,,,,,,,
296257,2022-11-30_16h26.35.928,vts_reward_expectancy_bt,2022.2.4,Win32,64.9561546,Chrome,1920,1080,,,,,,,,,,,,,,,,,,,,,,,167,U,star,1,0,,,3,,,,,,k,0.936,7,0,7,0,1,,,,,,,,,,,,,,,,,,,,,,,,,,,,,,,,,,
296257,2022-11-30_16h26.35.928,vts_reward_expectancy_bt,2022.2.4,Win32,64.9561546,Chrome,1920,1080,,,,,,,,,,,,,,,,,,,,,,,160,D,triangle,1,0,,,3,,,,,,j,0.7632,8,0,8,0,1,,,,,,,,,,,,,,,,,,,,,,,,,,,,,,,,,,
296257,2022-11-30_16h26.35.928,vts_reward_expectancy_bt,2022.2.4,Win32,64.9561546,Chrome,1920,1080,,,,,,,,,,,,,,,,,,,,,,,181,H,star,1,0,,,3,,,,,,j,0.8898,9,0,9,0,1,,,,,,,,,,,,,,,,,,,,,,,,,,,,,,,,,,
296257,2022-11-30_16h26.35.928,vts_reward_expectancy_bt,2022.2.4,Win32,64.9561546,Chrome,1920,1080,,,,,0,549,,,,,,,,,,,,,,,,,132,D,star,1,0,,,4,,,,,,,,,,,,,-1,number,NA,d,2.7389,vtsPrac,0,0,0,0,1,,,,,,,,,,,,,,,,,,,,,,,
296257,2022-11-30_16h26.35.928,vts_reward_expectancy_bt,2022.2.4,Win32,64.9561546,Chrome,1920,1080,,,,,0,549,,,,,,,,,,,,,,,,,160,Y,triangle,1,0,,,4,,,,,,,,,,,,,repeat,number,numRpt,f,2.9099,vtsPrac,1,0,1,0,1,,,,,,,,,,,,,,,,,,,,,,,
296257,2022-11-30_16h26.35.928,vts_reward_expectancy_bt,2022.2.4,Win32,64.9561546,Chrome,1920,1080,,,,,0,549,,,,,,,,,,,,,,,,,181,U,star,1,0,,,4,,,,,,,,,,,,,repeat,number,numRpt,f,2.2283,vtsPrac,2,0,2,0,1,,,,,,,,,,,,,,,,,,,,,,,
296257,2022-11-30_16h26.35.928,vts_reward_expectancy_bt,2022.2.4,Win32,64.9561546,Chrome,1920,1080,,,,,0,549,,,,,,,,,,,,,,,,,125,W,triangle,0,0,,,4,,,,,,,,,,,,,repeat,number,NA,f,2.5161,vtsPrac,3,0,3,0,1,,,,,,,,,,,,,,,,,,,,,,,
296257,2022-11-30_16h26.35.928,vts_reward_expectancy_bt,2022.2.4,Win32,64.9561546,Chrome,1920,1080,,,,,0,549,,,,,,,,,,,,,,,,,132,D,circle,0,1,,,4,,,,,,,,,,,,,repeat,number,NA,f,0.1096,vtsPrac,4,0,4,0,1,,,,,,,,,,,,,,,,,,,,,,,
296257,2022-11-30_16h26.35.928,vts_reward_expectancy_bt,2022.2.4,Win32,64.9561546,Chrome,1920,1080,,,,,0,549,,,,,,,,,,,,,,,,,160,Y,hexagon,1,1,,,4,,,,,,,,,,,,,repeat,number,numRpt,f,1.202,vtsPrac,5,0,5,0,1,,,,,,,,,,,,,,,,,,,,,,,
296257,2022-11-30_16h26.35.928,vts_reward_expectancy_bt,2022.2.4,Win32,64.9561546,Chrome,1920,1080,,,,,0,549,,,,,,,,,,,,,,,,,181,U,star,1,0,,,4,,,,,,,,,,,,,repeat,number,numRpt,f,0.9996,vtsPrac,6,0,6,0,1,,,,,,,,,,,,,,,,,,,,,,,
296257,2022-11-30_16h26.35.928,vts_reward_expectancy_bt,2022.2.4,Win32,64.9561546,Chrome,1920,1080,,,,,0,549,,,,,,,,,,,,,,,,,125,W,circle,1,0,,,4,,,,,,,,,,,,,repeat,number,numRpt,d,1.1129,vtsPrac,7,0,7,0,1,,,,,,,,,,,,,,,,,,,,,,,
296257,2022-11-30_16h26.35.928,vts_reward_expectancy_bt,2022.2.4,Win32,64.9561546,Chrome,1920,1080,,,,,0,549,,,,,,,,,,,,,,,,,181,D,hexagon,1,0,,,4,,,,,,,,,,,,,repeat,number,numRpt,f,1.0648,vtsPrac,8,0,8,0,1,,,,,,,,,,,,,,,,,,,,,,,
296257,2022-11-30_16h26.35.928,vts_reward_expectancy_bt,2022.2.4,Win32,64.9561546,Chrome,1920,1080,,,,,0,549,,,,,,,,,,,,,,,,,174,Y,circle,1,0,,,4,,,,,,,,,,,,,repeat,number,numRpt,f,0.828,vtsPrac,9,0,9,0,1,,,,,,,,,,,,,,,,,,,,,,,
296257,2022-11-30_16h26.35.928,vts_reward_expectancy_bt,2022.2.4,Win32,64.9561546,Chrome,1920,1080,,,,,0,549,,,,,,,,,,,,,,,,,160,H,triangle,1,0,,,4,,,,,,,,,,,,,repeat,number,numRpt,f,0.688,vtsPrac,10,0,10,0,1,,,,,,,,,,,,,,,,,,,,,,,
296257,2022-11-30_16h26.35.928,vts_reward_expectancy_bt,2022.2.4,Win32,64.9561546,Chrome,1920,1080,,,,,0,549,,,,,,,,,,,,,,,,,146,W,star,1,0,,,4,,,,,,,,,,,,,repeat,number,numRpt,d,0.8517,vtsPrac,11,0,11,0,1,,,,,,,,,,,,,,,,,,,,,,,
296257,2022-11-30_16h26.35.928,vts_reward_expectancy_bt,2022.2.4,Win32,64.9561546,Chrome,1920,1080,,,,,0,549,,,,,,,,,,,,,,,,,181,D,star,1,0,,,4,,,,,,,,,,,,,repeat,number,numRpt,f,0.6305,vtsPrac,12,0,12,0,1,,,,,,,,,,,,,,,,,,,,,,,
296257,2022-11-30_16h26.35.928,vts_reward_expectancy_bt,2022.2.4,Win32,64.9561546,Chrome,1920,1080,,,,,0,549,,,,,,,,,,,,,,,,,146,F,triangle,1,0,,,4,,,,,,,,,,,,,repeat,number,numRpt,d,0.9202,vtsPrac,13,0,13,0,1,,,,,,,,,,,,,,,,,,,,,,,
296257,2022-11-30_16h26.35.928,vts_reward_expectancy_bt,2022.2.4,Win32,64.9561546,Chrome,1920,1080,,,,,0,549,,,,,,,,,,,,,,,,,160,H,circle,1,0,,,4,,,,,,,,,,,,,repeat,number,numRpt,f,0.5961,vtsPrac,14,0,14,0,1,,,,,,,,,,,,,,,,,,,,,,,
296257,2022-11-30_16h26.35.928,vts_reward_expectancy_bt,2022.2.4,Win32,64.9561546,Chrome,1920,1080,,,,,0,549,,,,,,,,,,,,,,,,,139,W,hexagon,1,0,,,4,,,,,,,,,,,,,repeat,number,numRpt,d,0.7627,vtsPrac,15,0,15,0,1,,,,,,,,,,,,,,,,,,,,,,,
296257,2022-11-30_16h26.35.928,vts_reward_expectancy_bt,2022.2.4,Win32,64.9561546,Chrome,1920,1080,,,,,0,549,,,,,,,,,,,,,,,,,174,Y,hexagon,1,0,,,4,,,,,,,,,,,,,repeat,number,numRpt,f,0.8903,vtsPrac,16,0,16,0,1,,,,,,,,,,,,,,,,,,,,,,,
296257,2022-11-30_16h26.35.928,vts_reward_expectancy_bt,2022.2.4,Win32,64.9561546,Chrome,1920,1080,,,,,0,549,,,,,,,,,,,,,,,,,132,D,triangle,1,0,,,4,,,,,,,,,,,,,repeat,number,numRpt,d,0.7162,vtsPrac,17,0,17,0,1,,,,,,,,,,,,,,,,,,,,,,,
296257,2022-11-30_16h26.35.928,vts_reward_expectancy_bt,2022.2.4,Win32,64.9561546,Chrome,1920,1080,,,,,0,549,,,,,,,,,,,,,,,,,160,S,triangle,1,0,,,4,,,,,,,,,,,,,repeat,number,numRpt,f,0.7749,vtsPrac,18,0,18,0,1,,,,,,,,,,,,,,,,,,,,,,,
296257,2022-11-30_16h26.35.928,vts_reward_expectancy_bt,2022.2.4,Win32,64.9561546,Chrome,1920,1080,,,,,0,549,,,,,,,,,,,,,,,,,139,F,hexagon,1,0,,,4,,,,,,,,,,,,,repeat,number,numRpt,d,1.8521,vtsPrac,19,0,19,0,1,,,,,,,,,,,,,,,,,,,,,,,
296257,2022-11-30_16h26.35.928,vts_reward_expectancy_bt,2022.2.4,Win32,64.9561546,Chrome,1920,1080,,,,,0,549,,,,,,,,,,,,,,,,,139,D,circle,1,0,,,4,,,,,,,,,,,,,repeat,number,numRpt,d,0.7085,vtsPrac,20,0,20,0,1,,,,,,,,,,,,,,,,,,,,,,,
296257,2022-11-30_16h26.35.928,vts_reward_expectancy_bt,2022.2.4,Win32,64.9561546,Chrome,1920,1080,,,,,0,549,,,,,,,,,,,,,,,,,125,H,triangle,1,0,,,4,,,,,,,,,,,,,repeat,number,numRpt,d,0.7801,vtsPrac,21,0,21,0,1,,,,,,,,,,,,,,,,,,,,,,,
296257,2022-11-30_16h26.35.928,vts_reward_expectancy_bt,2022.2.4,Win32,64.9561546,Chrome,1920,1080,,,,,0,549,,,,,,,,,,,,,,,,,174,U,circle,0,0,,,4,,,,,,,,,,,,,repeat,number,NA,d,0.6213,vtsPrac,22,0,22,0,1,,,,,,,,,,,,,,,,,,,,,,,
296257,2022-11-30_16h26.35.928,vts_reward_expectancy_bt,2022.2.4,Win32,64.9561546,Chrome,1920,1080,,,,,0,549,,,,,,,,,,,,,,,,,132,S,triangle,1,1,,,4,,,,,,,,,,,,,repeat,number,numRpt,d,1.1712,vtsPrac,23,0,23,0,1,,,,,,,,,,,,,,,,,,,,,,,
296257,2022-11-30_16h26.35.928,vts_reward_expectancy_bt,2022.2.4,Win32,64.9561546,Chrome,1920,1080,,,,,0,549,,,,,,,,,,,,,,,,,181,W,circle,1,0,,,4,,,,,,,,,,,,,repeat,number,numRpt,f,0.7017,vtsPrac,24,0,24,0,1,,,,,,,,,,,,,,,,,,,,,,,
296257,2022-11-30_16h26.35.928,vts_reward_expectancy_bt,2022.2.4,Win32,64.9561546,Chrome,1920,1080,,,,,0,549,,,,,,,,,,,,,,,,,125,D,hexagon,1,0,,,4,,,,,,,,,,,,,repeat,number,numRpt,d,0.6804,vtsPrac,25,0,25,0,1,,,,,,,,,,,,,,,,,,,,,,,
296257,2022-11-30_16h26.35.928,vts_reward_expectancy_bt,2022.2.4,Win32,64.9561546,Chrome,1920,1080,,,,,0,549,,,,,,,,,,,,,,,,,174,H,hexagon,1,0,,,4,,,,,,,,,,,,,repeat,number,numRpt,f,0.7267,vtsPrac,26,0,26,0,1,,,,,,,,,,,,,,,,,,,,,,,
296257,2022-11-30_16h26.35.928,vts_reward_expectancy_bt,2022.2.4,Win32,64.9561546,Chrome,1920,1080,,,,,0,549,,,,,,,,,,,,,,,,,160,U,triangle,1,0,,,4,,,,,,,,,,,,,repeat,number,numRpt,f,1.2339,vtsPrac,27,0,27,0,1,,,,,,,,,,,,,,,,,,,,,,,
296257,2022-11-30_16h26.35.928,vts_reward_expectancy_bt,2022.2.4,Win32,64.9561546,Chrome,1920,1080,,,,,0,549,,,,,,,,,,,,,,,,,125,B,circle,1,0,,,4,,,,,,,,,,,,,repeat,number,numRpt,d,0.9061,vtsPrac,28,0,28,0,1,,,,,,,,,,,,,,,,,,,,,,,
296257,2022-11-30_16h26.35.928,vts_reward_expectancy_bt,2022.2.4,Win32,64.9561546,Chrome,1920,1080,,,,,0,549,,,,,,,,,,,,,,,,,167,Y,hexagon,1,0,,,4,,,,,,,,,,,,,repeat,number,numRpt,f,0.9614,vtsPrac,29,0,29,0,1,,,,,,,,,,,,,,,,,,,,,,,
296257,2022-11-30_16h26.35.928,vts_reward_expectancy_bt,2022.2.4,Win32,64.9561546,Chrome,1920,1080,,,,,0,549,,,,,,,,,,,,,,,,,181,W,circle,0,0,,,4,,,,,,,,,,,,,repeat,number,NA,d,0.6317,vtsPrac,30,0,30,0,1,,,,,,,,,,,,,,,,,,,,,,,
296257,2022-11-30_16h26.35.928,vts_reward_expectancy_bt,2022.2.4,Win32,64.9561546,Chrome,1920,1080,,,,,0,549,,,,,,,,,,,,,,,,,132,H,hexagon,1,1,,,4,,,,,,,,,,,,,repeat,number,numRpt,d,0.7673,vtsPrac,31,0,31,0,1,,,,,,,,,,,,,,,,,,,,,,,
296257,2022-11-30_16h26.35.928,vts_reward_expectancy_bt,2022.2.4,Win32,64.9561546,Chrome,1920,1080,,,,,0,549,,,,,,,,,,,,,,,,,146,S,circle,1,0,,,5,,,,,,,,,,,,,repeat,number,numRpt,d,1.4375,vtsPrac,0,0,0,0,1,,,,,,,,,,,,,,,,,,,,,,,
296257,2022-11-30_16h26.35.928,vts_reward_expectancy_bt,2022.2.4,Win32,64.9561546,Chrome,1920,1080,,,,,0,549,,,,,,,,,,,,,,,,,132,F,star,1,0,,,5,,,,,,,,,,,,,switch,letter,lettSwt,j,2.6986,vtsPrac,1,0,1,0,1,,,,,,,,,,,,,,,,,,,,,,,
296257,2022-11-30_16h26.35.928,vts_reward_expectancy_bt,2022.2.4,Win32,64.9561546,Chrome,1920,1080,,,,,0,549,,,,,,,,,,,,,,,,,181,H,circle,1,0,,,5,,,,,,,,,,,,,repeat,letter,lettRpt,j,2.3566,vtsPrac,2,0,2,0,1,,,,,,,,,,,,,,,,,,,,,,,
296257,2022-11-30_16h26.35.928,vts_reward_expectancy_bt,2022.2.4,Win32,64.9561546,Chrome,1920,1080,,,,,0,549,,,,,,,,,,,,,,,,,160,U,star,-1,0,,,5,,,,,,,,,,,,,switch,no_choice,NA,,,vtsPrac,3,0,3,0,1,,,,,,,,,,,,,,,,,,,,,,,
296257,2022-11-30_16h26.35.928,vts_reward_expectancy_bt,2022.2.4,Win32,64.9561546,Chrome,1920,1080,,,,,0,549,,,,,,,,,,,,,,,,,146,S,star,1,0,,,5,,,,,,,,,,,,,switch,number,numSwt,d,1.4127,vtsPrac,4,0,4,0,1,,,,,,,,,,,,,,,,,,,,,,,
296257,2022-11-30_16h26.35.928,vts_reward_expectancy_bt,2022.2.4,Win32,64.9561546,Chrome,1920,1080,,,,,0,549,,,,,,,,,,,,,,,,,132,F,triangle,1,0,,,5,,,,,,,,,,,,,repeat,number,numRpt,d,1.0086,vtsPrac,5,0,5,0,1,,,,,,,,,,,,,,,,,,,,,,,
296257,2022-11-30_16h26.35.928,vts_reward_expectancy_bt,2022.2.4,Win32,64.9561546,Chrome,1920,1080,,,,,0,549,,,,,,,,,,,,,,,,,181,H,star,1,0,,,5,,,,,,,,,,,,,switch,letter,lettSwt,j,0.8793,vtsPrac,6,0,6,0,1,,,,,,,,,,,,,,,,,,,,,,,
296257,2022-11-30_16h26.35.928,vts_reward_expectancy_bt,2022.2.4,Win32,64.9561546,Chrome,1920,1080,,,,,0,549,,,,,,,,,,,,,,,,,160,U,hexagon,0,0,,,5,,,,,,,,,,,,,repeat,letter,NA,j,1.0426,vtsPrac,7,0,7,0,1,,,,,,,,,,,,,,,,,,,,,,,
296257,2022-11-30_16h26.35.928,vts_reward_expectancy_bt,2022.2.4,Win32,64.9561546,Chrome,1920,1080,,,,,0,549,,,,,,,,,,,,,,,,,132,B,star,1,1,,,5,,,,,,,,,,,,,switch,number,numSwt,d,0.6068,vtsPrac,8,0,8,0,1,,,,,,,,,,,,,,,,,,,,,,,
296257,2022-11-30_16h26.35.928,vts_reward_expectancy_bt,2022.2.4,Win32,64.9561546,Chrome,1920,1080,,,,,0,549,,,,,,,,,,,,,,,,,146,U,hexagon,1,0,,,5,,,,,,,,,,,,,switch,letter,lettSwt,k,0.6609,vtsPrac,9,0,9,0,1,,,,,,,,,,,,,,,,,,,,,,,
296257,2022-11-30_16h26.35.928,vts_reward_expectancy_bt,2022.2.4,Win32,64.9561546,Chrome,1920,1080,,,,,0,549,,,,,,,,,,,,,,,,,160,D,circle,0,0,,,5,,,,,,,,,,,,,switch,number,NA,d,1.5757,vtsPrac,10,0,10,0,1,,,,,,,,,,,,,,,,,,,,,,,
296257,2022-11-30_16h26.35.928,vts_reward_expectancy_bt,2022.2.4,Win32,64.9561546,Chrome,1920,1080,,,,,0,549,,,,,,,,,,,,,,,,,181,S,star,1,1,,,5,,,,,,,,,,,,,repeat,number,numRpt,f,2.7434,vtsPrac,11,0,11,0,1,,,,,,,,,,,,,,,,,,,,,,,
296257,2022-11-30_16h26.35.928,vts_reward_expectancy_bt,2022.2.4,Win32,64.9561546,Chrome,1920,1080,,,,,0,549,,,,,,,,,,,,,,,,,139,Y,star,1,0,,,5,,,,,,,,,,,,,switch,letter,lettSwt,k,0.8152,vtsPrac,12,0,12,0,1,,,,,,,,,,,,,,,,,,,,,,,
296257,2022-11-30_16h26.35.928,vts_reward_expectancy_bt,2022.2.4,Win32,64.9561546,Chrome,1920,1080,,,,,0,549,,,,,,,,,,,,,,,,,160,S,circle,1,0,,,5,,,,,,,,,,,,,switch,number,numSwt,f,1.5217,vtsPrac,13,0,13,0,1,,,,,,,,,,,,,,,,,,,,,,,
296257,2022-11-30_16h26.35.928,vts_reward_expectancy_bt,2022.2.4,Win32,64.9561546,Chrome,1920,1080,,,,,0,549,,,,,,,,,,,,,,,,,167,U,star,1,0,,,5,,,,,,,,,,,,,repeat,number,numRpt,f,1.4477,vtsPrac,14,0,14,0,1,,,,,,,,,,,,,,,,,,,,,,,
296257,2022-11-30_16h26.35.928,vts_reward_expectancy_bt,2022.2.4,Win32,64.9561546,Chrome,1920,1080,,,,,0,549,,,,,,,,,,,,,,,,,125,D,hexagon,1,0,,,5,,,,,,,,,,,,,switch,letter,lettSwt,j,0.9087,vtsPrac,15,0,15,0,1,,,,,,,,,,,,,,,,,,,,,,,
296257,2022-11-30_16h26.35.928,vts_reward_expectancy_bt,2022.2.4,Win32,64.9561546,Chrome,1920,1080,,,,,0,549,,,,,,,,,,,,,,,,,160,Y,hexagon,1,0,,,5,,,,,,,,,,,,,repeat,letter,lettRpt,k,0.9841,vtsPrac,16,0,16,0,1,,,,,,,,,,,,,,,,,,,,,,,
296257,2022-11-30_16h26.35.928,vts_reward_expectancy_bt,2022.2.4,Win32,64.9561546,Chrome,1920,1080,,,,,0,549,,,,,,,,,,,,,,,,,181,H,star,1,0,,,5,,,,,,,,,,,,,repeat,letter,lettRpt,j,2.2875,vtsPrac,17,0,17,0,1,,,,,,,,,,,,,,,,,,,,,,,
296257,2022-11-30_16h26.35.928,vts_reward_expectancy_bt,2022.2.4,Win32,64.9561546,Chrome,1920,1080,,,,,0,549,,,,,,,,,,,,,,,,,167,S,circle,1,0,,,5,,,,,,,,,,,,,switch,number,numSwt,f,0.7032,vtsPrac,18,0,18,0,1,,,,,,,,,,,,,,,,,,,,,,,
296257,2022-11-30_16h26.35.928,vts_reward_expectancy_bt,2022.2.4,Win32,64.9561546,Chrome,1920,1080,,,,,0,549,,,,,,,,,,,,,,,,,132,D,triangle,1,0,,,5,,,,,,,,,,,,,repeat,number,numRpt,d,0.7729,vtsPrac,19,0,19,0,1,,,,,,,,,,,,,,,,,,,,,,,
296257,2022-11-30_16h26.35.928,vts_reward_expectancy_bt,2022.2.4,Win32,64.9561546,Chrome,1920,1080,,,,,0,549,,,,,,,,,,,,,,,,,125,D,hexagon,1,0,,,5,,,,,,,,,,,,,switch,letter,lettSwt,j,1.3129,vtsPrac,20,0,20,0,1,,,,,,,,,,,,,,,,,,,,,,,
296257,2022-11-30_16h26.35.928,vts_reward_expectancy_bt,2022.2.4,Win32,64.9561546,Chrome,1920,1080,,,,,0,549,,,,,,,,,,,,,,,,,132,S,star,1,0,,,5,,,,,,,,,,,,,repeat,letter,lettRpt,k,1.5079,vtsPrac,21,0,21,0,1,,,,,,,,,,,,,,,,,,,,,,,
296257,2022-11-30_16h26.35.928,vts_reward_expectancy_bt,2022.2.4,Win32,64.9561546,Chrome,1920,1080,,,,,0,549,,,,,,,,,,,,,,,,,167,B,circle,0,0,,,5,,,,,,,,,,,,,switch,number,NA,d,1.9477,vtsPrac,22,0,22,0,1,,,,,,,,,,,,,,,,,,,,,,,
296257,2022-11-30_16h26.35.928,vts_reward_expectancy_bt,2022.2.4,Win32,64.9561546,Chrome,1920,1080,,,,,0,549,,,,,,,,,,,,,,,,,160,H,star,1,1,,,5,,,,,,,,,,,,,repeat,number,numRpt,f,1.1769,vtsPrac,23,0,23,0,1,,,,,,,,,,,,,,,,,,,,,,,
296257,2022-11-30_16h26.35.928,vts_reward_expectancy_bt,2022.2.4,Win32,64.9561546,Chrome,1920,1080,,,,,0,549,,,,,,,,,,,,,,,,,160,B,hexagon,-1,0,,,5,,,,,,,,,,,,,switch,no_choice,NA,,,vtsPrac,24,0,24,0,1,,,,,,,,,,,,,,,,,,,,,,,
296257,2022-11-30_16h26.35.928,vts_reward_expectancy_bt,2022.2.4,Win32,64.9561546,Chrome,1920,1080,,,,,0,549,,,,,,,,,,,,,,,,,167,U,triangle,1,0,,,5,,,,,,,,,,,,,switch,letter,lettSwt,k,1.2946,vtsPrac,25,0,25,0,1,,,,,,,,,,,,,,,,,,,,,,,
296257,2022-11-30_16h26.35.928,vts_reward_expectancy_bt,2022.2.4,Win32,64.9561546,Chrome,1920,1080,,,,,0,549,,,,,,,,,,,,,,,,,146,W,circle,1,0,,,5,,,,,,,,,,,,,repeat,letter,lettRpt,k,0.7845,vtsPrac,26,0,26,0,1,,,,,,,,,,,,,,,,,,,,,,,
296257,2022-11-30_16h26.35.928,vts_reward_expectancy_bt,2022.2.4,Win32,64.9561546,Chrome,1920,1080,,,,,0,549,,,,,,,,,,,,,,,,,125,H,triangle,1,0,,,5,,,,,,,,,,,,,switch,number,numSwt,d,0.9779,vtsPrac,27,0,27,0,1,,,,,,,,,,,,,,,,,,,,,,,
296257,2022-11-30_16h26.35.928,vts_reward_expectancy_bt,2022.2.4,Win32,64.9561546,Chrome,1920,1080,,,,,0,549,,,,,,,,,,,,,,,,,132,W,star,1,0,,,5,,,,,,,,,,,,,switch,letter,lettSwt,k,1.5607,vtsPrac,28,0,28,0,1,,,,,,,,,,,,,,,,,,,,,,,
296257,2022-11-30_16h26.35.928,vts_reward_expectancy_bt,2022.2.4,Win32,64.9561546,Chrome,1920,1080,,,,,0,549,,,,,,,,,,,,,,,,,160,S,hexagon,0,0,,,5,,,,,,,,,,,,,switch,number,NA,d,1.9154,vtsPrac,29,0,29,0,1,,,,,,,,,,,,,,,,,,,,,,,
296257,2022-11-30_16h26.35.928,vts_reward_expectancy_bt,2022.2.4,Win32,64.9561546,Chrome,1920,1080,,,,,0,549,,,,,,,,,,,,,,,,,146,U,triangle,1,1,,,5,,,,,,,,,,,,,repeat,number,numRpt,d,0.943,vtsPrac,30,0,30,0,1,,,,,,,,,,,,,,,,,,,,,,,
296257,2022-11-30_16h26.35.928,vts_reward_expectancy_bt,2022.2.4,Win32,64.9561546,Chrome,1920,1080,,,,,0,549,,,,,,,,,,,,,,,,,139,B,hexagon,1,0,,,5,,,,,,,,,,,,,switch,letter,lettSwt,j,2.1601,vtsPrac,31,0,31,0,1,,,,,,,,,,,,,,,,,,,,,,,
296257,2022-11-30_16h26.35.928,vts_reward_expectancy_bt,2022.2.4,Win32,64.9561546,Chrome,1920,1080,,,,,,,,,,,,,,,,,,,,,,,,,,,,,,,,,,,,,,,,,,,,,,,,,,,,,,,,,,,,,,,,,,,,,,,,,,,,
296257,2022-11-30_16h26.35.928,vts_reward_expectancy_bt,2022.2.4,Win32,64.9561546,Chrome,1920,1080,,,,,,,,,,,,,,,,,,,,,,,,,,,,,,,,,,,,,,,,,,,,,,,,,,,,,,,,,,,,,,,,,,,,,,,,,,,,
296257,2022-11-30_16h26.35.928,vts_reward_expectancy_bt,2022.2.4,Win32,64.9561546,Chrome,1920,1080,,,,,0,549,,,,,,,,,,,,,,,,,181,B,triangle,1,0,,,,,,,,,,,,,,,,repeat,letter,lettRpt,j,0.1203,noRew,,,,,,0,0,0,0,0,1,,,,,,,,,,,,,,,,,
296257,2022-11-30_16h26.35.928,vts_reward_expectancy_bt,2022.2.4,Win32,64.9561546,Chrome,1920,1080,,,,,0,549,,,,,,,,,,,,,,,,,139,H,star,1,0,,,,,,,,,,,,,,,,repeat,letter,lettRpt,j,0.0157,noRew,,,,,,0,1,0,1,0,1,,,,,,,,,,,,,,,,,
296257,2022-11-30_16h26.35.928,vts_reward_expectancy_bt,2022.2.4,Win32,64.9561546,Chrome,1920,1080,,,,,0,549,,,,,,,,,,,,,,,,,174,U,triangle,1,0,,,,,,,,,,,,,,,,switch,number,numSwt,f,0.044,noRew,,,,,,0,2,0,2,0,1,,,,,,,,,,,,,,,,,
296257,2022-11-30_16h26.35.928,vts_reward_expectancy_bt,2022.2.4,Win32,64.9561546,Chrome,1920,1080,,,,,0,549,,,,,,,,,,,,,,,,,146,D,star,1,0,,,,,,,,,,,,,,,,switch,letter,lettSwt,j,0.0484,noRew,,,,,,0,3,0,3,0,1,,,,,,,,,,,,,,,,,
296257,2022-11-30_16h26.35.928,vts_reward_expectancy_bt,2022.2.4,Win32,64.9561546,Chrome,1920,1080,,,,,0,549,,,,,,,,,,,,,,,,,181,B,triangle,0,0,,,,,,,,,,,,,,,,repeat,letter,NA,k,0.0046,noRew,,,,,,0,4,0,4,0,1,,,,,,,,,,,,,,,,,
296257,2022-11-30_16h26.35.928,vts_reward_expectancy_bt,2022.2.4,Win32,64.9561546,Chrome,1920,1080,,,,,0,549,,,,,,,,,,,,,,,,,139,H,star,0,1,,,,,,,,,,,,,,,,switch,number,NA,f,0.4503,noRew,,,,,,0,5,0,5,0,1,,,,,,,,,,,,,,,,,
296257,2022-11-30_16h26.35.928,vts_reward_expectancy_bt,2022.2.4,Win32,64.9561546,Chrome,1920,1080,,,,,0,549,,,,,,,,,,,,,,,,,174,U,star,0,1,,,,,,,,,,,,,,,,repeat,number,NA,d,0.0486,noRew,,,,,,0,6,0,6,0,1,,,,,,,,,,,,,,,,,
296257,2022-11-30_16h26.35.928,vts_reward_expectancy_bt,2022.2.4,Win32,64.9561546,Chrome,1920,1080,,,,,0,549,,,,,,,,,,,,,,,,,146,D,triangle,0,1,,,,,,,,,,,,,,,,switch,letter,NA,k,0.0924,noRew,,,,,,0,7,0,7,0,1,,,,,,,,,,,,,,,,,
296257,2022-11-30_16h26.35.928,vts_reward_expectancy_bt,2022.2.4,Win32,64.9561546,Chrome,1920,1080,,,,,0,549,,,,,,,,,,,,,,,,,160,W,hexagon,1,1,,,,,,,,,,,,,,,,repeat,letter,lettRpt,k,0.1471,noRew,,,,,,0,8,0,8,0,1,,,,,,,,,,,,,,,,,
296257,2022-11-30_16h26.35.928,vts_reward_expectancy_bt,2022.2.4,Win32,64.9561546,Chrome,1920,1080,,,,,0,549,,,,,,,,,,,,,,,,,167,U,circle,1,0,,,,,,,,,,,,,,,,switch,number,numSwt,f,0.1429,noRew,,,,,,0,9,0,9,0,1,,,,,,,,,,,,,,,,,
296257,2022-11-30_16h26.35.928,vts_reward_expectancy_bt,2022.2.4,Win32,64.9561546,Chrome,1920,1080,,,,,0,549,,,,,,,,,,,,,,,,,125,D,circle,1,0,,,,,,,,,,,,,,,,switch,letter,lettSwt,j,0.0048,noRew,,,,,,0,10,0,10,0,1,,,,,,,,,,,,,,,,,
296257,2022-11-30_16h26.35.928,vts_reward_expectancy_bt,2022.2.4,Win32,64.9561546,Chrome,1920,1080,,,,,0,549,,,,,,,,,,,,,,,,,181,Y,star,1,0,,,,,,,,,,,,,,,,switch,number,numSwt,f,0.1278,noRew,,,,,,0,11,0,11,0,1,,,,,,,,,,,,,,,,,
296257,2022-11-30_16h26.35.928,vts_reward_expectancy_bt,2022.2.4,Win32,64.9561546,Chrome,1920,1080,,,,,0,549,,,,,,,,,,,,,,,,,125,F,triangle,1,0,,,,,,,,,,,,,,,,switch,letter,lettSwt,j,0.003,noRew,,,,,,0,12,0,12,0,1,,,,,,,,,,,,,,,,,
296257,2022-11-30_16h26.35.928,vts_reward_expectancy_bt,2022.2.4,Win32,64.9561546,Chrome,1920,1080,,,,,0,549,,,,,,,,,,,,,,,,,160,Y,circle,1,0,,,,,,,,,,,,,,,,switch,number,numSwt,f,0.0274,noRew,,,,,,0,13,0,13,0,1,,,,,,,,,,,,,,,,,
296257,2022-11-30_16h26.35.928,vts_reward_expectancy_bt,2022.2.4,Win32,64.9561546,Chrome,1920,1080,,,,,0,549,,,,,,,,,,,,,,,,,167,H,star,1,0,,,,,,,,,,,,,,,,repeat,number,numRpt,f,0.0259,noRew,,,,,,0,14,0,14,0,1,,,,,,,,,,,,,,,,,
296257,2022-11-30_16h26.35.928,vts_reward_expectancy_bt,2022.2.4,Win32,64.9561546,Chrome,1920,1080,,,,,0,549,,,,,,,,,,,,,,,,,139,W,triangle,0,0,,,,,,,,,,,,,,,,switch,letter,NA,j,0.1141,noRew,,,,,,0,15,0,15,0,1,,,,,,,,,,,,,,,,,
296257,2022-11-30_16h26.35.928,vts_reward_expectancy_bt,2022.2.4,Win32,64.9561546,Chrome,1920,1080,,,,,0,549,,,,,,,,,,,,,,,,,132,B,triangle,0,1,,,,,,,,,,,,,,,,switch,number,NA,f,0.0808,noRew,,,,,,0,16,0,16,0,1,,,,,,,,,,,,,,,,,
296257,2022-11-30_16h26.35.928,vts_reward_expectancy_bt,2022.2.4,Win32,64.9561546,Chrome,1920,1080,,,,,0,549,,,,,,,,,,,,,,,,,146,H,circle,1,1,,,,,,,,,,,,,,,,switch,letter,lettSwt,j,0.0564,noRew,,,,,,0,17,0,17,0,1,,,,,,,,,,,,,,,,,
296257,2022-11-30_16h26.35.928,vts_reward_expectancy_bt,2022.2.4,Win32,64.9561546,Chrome,1920,1080,,,,,0,549,,,,,,,,,,,,,,,,,139,W,hexagon,0,0,,,,,,,,,,,,,,,,switch,number,NA,f,0.2178,noRew,,,,,,0,18,0,18,0,1,,,,,,,,,,,,,,,,,
296257,2022-11-30_16h26.35.928,vts_reward_expectancy_bt,2022.2.4,Win32,64.9561546,Chrome,1920,1080,,,,,0,549,,,,,,,,,,,,,,,,,160,F,circle,1,1,,,,,,,,,,,,,,,,repeat,number,numRpt,f,0.0153,noRew,,,,,,0,19,0,19,0,1,,,,,,,,,,,,,,,,,
296257,2022-11-30_16h26.35.928,vts_reward_expectancy_bt,2022.2.4,Win32,64.9561546,Chrome,1920,1080,,,,,0,549,,,,,,,,,,,,,,,,,174,F,star,1,0,,,,,,,,,,,,,,,,repeat,number,numRpt,f,0.1029,noRew,,,,,,0,20,0,20,0,1,,,,,,,,,,,,,,,,,
296257,2022-11-30_16h26.35.928,vts_reward_expectancy_bt,2022.2.4,Win32,64.9561546,Chrome,1920,1080,,,,,0,549,,,,,,,,,,,,,,,,,146,B,hexagon,0,0,,,,,,,,,,,,,,,,switch,letter,NA,k,0.1327,noRew,,,,,,0,21,0,21,0,1,,,,,,,,,,,,,,,,,
296257,2022-11-30_16h26.35.928,vts_reward_expectancy_bt,2022.2.4,Win32,64.9561546,Chrome,1920,1080,,,,,0,549,,,,,,,,,,,,,,,,,167,D,star,1,1,,,,,,,,,,,,,,,,repeat,letter,lettRpt,j,0.0307,noRew,,,,,,0,22,0,22,0,1,,,,,,,,,,,,,,,,,
296257,2022-11-30_16h26.35.928,vts_reward_expectancy_bt,2022.2.4,Win32,64.9561546,Chrome,1920,1080,,,,,0,549,,,,,,,,,,,,,,,,,139,H,circle,1,0,,,,,,,,,,,,,,,,repeat,letter,lettRpt,j,0.0317,noRew,,,,,,0,23,0,23,0,1,,,,,,,,,,,,,,,,,
296257,2022-11-30_16h26.35.928,vts_reward_expectancy_bt,2022.2.4,Win32,64.9561546,Chrome,1920,1080,,,,,0,549,,,,,,,,,,,,,,,,,132,H,triangle,0,0,,,,,,,,,,,,,,,,repeat,letter,NA,k,0.0158,noRew,,,,,,0,24,0,24,0,1,,,,,,,,,,,,,,,,,
296257,2022-11-30_16h26.35.928,vts_reward_expectancy_bt,2022.2.4,Win32,64.9561546,Chrome,1920,1080,,,,,0,549,,,,,,,,,,,,,,,,,146,B,hexagon,1,1,,,,,,,,,,,,,,,,repeat,letter,lettRpt,j,0.0766,noRew,,,,,,0,25,0,25,0,1,,,,,,,,,,,,,,,,,
296257,2022-11-30_16h26.35.928,vts_reward_expectancy_bt,2022.2.4,Win32,64.9561546,Chrome,1920,1080,,,,,0,549,,,,,,,,,,,,,,,,,167,S,triangle,0,0,,,,,,,,,,,,,,,,repeat,letter,NA,j,0.0902,noRew,,,,,,0,26,0,26,0,1,,,,,,,,,,,,,,,,,
296257,2022-11-30_16h26.35.928,vts_reward_expectancy_bt,2022.2.4,Win32,64.9561546,Chrome,1920,1080,,,,,0,549,,,,,,,,,,,,,,,,,181,U,hexagon,1,1,,,,,,,,,,,,,,,,switch,number,numSwt,f,0.2041,noRew,,,,,,0,27,0,27,0,1,,,,,,,,,,,,,,,,,
296257,2022-11-30_16h26.35.928,vts_reward_expectancy_bt,2022.2.4,Win32,64.9561546,Chrome,1920,1080,,,,,0,549,,,,,,,,,,,,,,,,,160,W,triangle,0,0,,,,,,,,,,,,,,,,repeat,number,NA,d,0.0792,noRew,,,,,,0,28,0,28,0,1,,,,,,,,,,,,,,,,,
296257,2022-11-30_16h26.35.928,vts_reward_expectancy_bt,2022.2.4,Win32,64.9561546,Chrome,1920,1080,,,,,0,549,,,,,,,,,,,,,,,,,146,U,hexagon,0,1,,,,,,,,,,,,,,,,repeat,number,NA,f,0.0161,noRew,,,,,,0,29,0,29,0,1,,,,,,,,,,,,,,,,,
296257,2022-11-30_16h26.35.928,vts_reward_expectancy_bt,2022.2.4,Win32,64.9561546,Chrome,1920,1080,,,,,0,549,,,,,,,,,,,,,,,,,174,S,hexagon,0,1,,,,,,,,,,,,,,,,repeat,number,NA,d,0.012,noRew,,,,,,0,30,0,30,0,1,,,,,,,,,,,,,,,,,
296257,2022-11-30_16h26.35.928,vts_reward_expectancy_bt,2022.2.4,Win32,64.9561546,Chrome,1920,1080,,,,,0,549,,,,,,,,,,,,,,,,,125,F,triangle,1,1,,,,,,,,,,,,,,,,repeat,number,numRpt,d,0.0341,noRew,,,,,,0,31,0,31,0,1,,,,,,,,,,,,,,,,,
296257,2022-11-30_16h26.35.928,vts_reward_expectancy_bt,2022.2.4,Win32,64.9561546,Chrome,1920,1080,,,,,0,549,,,,,,,,,,,,,,,,,181,S,triangle,1,0,,,,,,,,,,,,,,,,switch,letter,lettSwt,k,0.0119,noRew,,,,,,0,32,0,32,0,1,,,,,,,,,,,,,,,,,
296257,2022-11-30_16h26.35.928,vts_reward_expectancy_bt,2022.2.4,Win32,64.9561546,Chrome,1920,1080,,,,,0,549,,,,,,,,,,,,,,,,,160,F,circle,1,0,,,,,,,,,,,,,,,,repeat,letter,lettRpt,j,0.0553,noRew,,,,,,0,33,0,33,0,1,,,,,,,,,,,,,,,,,
296257,2022-11-30_16h26.35.928,vts_reward_expectancy_bt,2022.2.4,Win32,64.9561546,Chrome,1920,1080,,,,,0,549,,,,,,,,,,,,,,,,,174,D,triangle,1,0,,,,,,,,,,,,,,,,switch,number,numSwt,f,0.2058,noRew,,,,,,0,34,0,34,0,1,,,,,,,,,,,,,,,,,
296257,2022-11-30_16h26.35.928,vts_reward_expectancy_bt,2022.2.4,Win32,64.9561546,Chrome,1920,1080,,,,,0,549,,,,,,,,,,,,,,,,,139,B,star,1,0,,,,,,,,,,,,,,,,repeat,number,numRpt,d,0.4032,noRew,,,,,,0,35,0,35,0,1,,,,,,,,,,,,,,,,,
296257,2022-11-30_16h26.35.928,vts_reward_expectancy_bt,2022.2.4,Win32,64.9561546,Chrome,1920,1080,,,,,0,549,,,,,,,,,,,,,,,,,181,F,hexagon,0,0,,,,,,,,,,,,,,,,switch,letter,NA,k,0.0692,noRew,,,,,,0,36,0,36,0,1,,,,,,,,,,,,,,,,,
296257,2022-11-30_16h26.35.928,vts_reward_expectancy_bt,2022.2.4,Win32,64.9561546,Chrome,1920,1080,,,,,0,549,,,,,,,,,,,,,,,,,139,B,circle,0,1,,,,,,,,,,,,,,,,switch,number,NA,f,0.6762,noRew,,,,,,0,37,0,37,0,1,,,,,,,,,,,,,,,,,
296257,2022-11-30_16h26.35.928,vts_reward_expectancy_bt,2022.2.4,Win32,64.9561546,Chrome,1920,1080,,,,,0,549,,,,,,,,,,,,,,,,,167,Y,star,1,1,,,,,,,,,,,,,,,,repeat,number,numRpt,f,0.094,noRew,,,,,,0,38,0,38,0,1,,,,,,,,,,,,,,,,,
296257,2022-11-30_16h26.35.928,vts_reward_expectancy_bt,2022.2.4,Win32,64.9561546,Chrome,1920,1080,,,,,0,549,,,,,,,,,,,,,,,,,160,D,triangle,1,0,,,,,,,,,,,,,,,,switch,letter,lettSwt,j,0.0564,noRew,,,,,,0,39,0,39,0,1,,,,,,,,,,,,,,,,,
296257,2022-11-30_16h26.35.928,vts_reward_expectancy_bt,2022.2.4,Win32,64.9561546,Chrome,1920,1080,,,,,0,549,,,,,,,,,,,,,,,,,181,B,circle,1,0,,,,,,,,,,,,,,,,switch,number,numSwt,f,0.0052,noRew,,,,,,0,40,0,40,0,1,,,,,,,,,,,,,,,,,
296257,2022-11-30_16h26.35.928,vts_reward_expectancy_bt,2022.2.4,Win32,64.9561546,Chrome,1920,1080,,,,,0,549,,,,,,,,,,,,,,,,,125,H,hexagon,0,0,,,,,,,,,,,,,,,,repeat,number,NA,f,2.3456,noRew,,,,,,0,41,0,41,0,1,,,,,,,,,,,,,,,,,
296257,2022-11-30_16h26.35.928,vts_reward_expectancy_bt,2022.2.4,Win32,64.9561546,Chrome,1920,1080,,,,,0,549,,,,,,,,,,,,,,,,,167,U,circle,0,1,,,,,,,,,,,,,,,,switch,letter,NA,j,0.1275,noRew,,,,,,0,42,0,42,0,1,,,,,,,,,,,,,,,,,
296257,2022-11-30_16h26.35.928,vts_reward_expectancy_bt,2022.2.4,Win32,64.9561546,Chrome,1920,1080,,,,,0,549,,,,,,,,,,,,,,,,,160,S,star,1,1,,,,,,,,,,,,,,,,switch,number,numSwt,f,0.054,noRew,,,,,,0,43,0,43,0,1,,,,,,,,,,,,,,,,,
296257,2022-11-30_16h26.35.928,vts_reward_expectancy_bt,2022.2.4,Win32,64.9561546,Chrome,1920,1080,,,,,0,549,,,,,,,,,,,,,,,,,167,B,hexagon,1,0,,,,,,,,,,,,,,,,repeat,number,numRpt,f,0.0878,noRew,,,,,,0,44,0,44,0,1,,,,,,,,,,,,,,,,,
296257,2022-11-30_16h26.35.928,vts_reward_expectancy_bt,2022.2.4,Win32,64.9561546,Chrome,1920,1080,,,,,0,549,,,,,,,,,,,,,,,,,174,S,triangle,0,0,,,,,,,,,,,,,,,,repeat,number,NA,d,0.0252,noRew,,,,,,0,45,0,45,0,1,,,,,,,,,,,,,,,,,
296257,2022-11-30_16h26.35.928,vts_reward_expectancy_bt,2022.2.4,Win32,64.9561546,Chrome,1920,1080,,,,,0,549,,,,,,,,,,,,,,,,,132,D,star,1,1,,,,,,,,,,,,,,,,repeat,number,numRpt,d,0.1307,noRew,,,,,,0,46,0,46,0,1,,,,,,,,,,,,,,,,,
296257,2022-11-30_16h26.35.928,vts_reward_expectancy_bt,2022.2.4,Win32,64.9561546,Chrome,1920,1080,,,,,0,549,,,,,,,,,,,,,,,,,160,Y,triangle,0,0,,,,,,,,,,,,,,,,switch,letter,NA,j,0.0999,noRew,,,,,,0,47,0,47,0,1,,,,,,,,,,,,,,,,,
296257,2022-11-30_16h26.35.928,vts_reward_expectancy_bt,2022.2.4,Win32,64.9561546,Chrome,1920,1080,,,,,0,549,,,,,,,,,,,,,,,,,146,H,star,1,1,,,,,,,,,,,,,,,,switch,number,numSwt,d,0.2183,noRew,,,,,,0,48,0,48,0,1,,,,,,,,,,,,,,,,,
296257,2022-11-30_16h26.35.928,vts_reward_expectancy_bt,2022.2.4,Win32,64.9561546,Chrome,1920,1080,,,,,0,549,,,,,,,,,,,,,,,,,125,U,circle,1,0,,,,,,,,,,,,,,,,repeat,number,numRpt,d,0.1111,noRew,,,,,,0,49,0,49,0,1,,,,,,,,,,,,,,,,,
296257,2022-11-30_16h26.35.928,vts_reward_expectancy_bt,2022.2.4,Win32,64.9561546,Chrome,1920,1080,,,,,0,549,,,,,,,,,,,,,,,,,181,S,star,0,0,,,,,,,,,,,,,,,,repeat,number,NA,d,0.1404,noRew,,,,,,0,50,0,50,0,1,,,,,,,,,,,,,,,,,
296257,2022-11-30_16h26.35.928,vts_reward_expectancy_bt,2022.2.4,Win32,64.9561546,Chrome,1920,1080,,,,,0,549,,,,,,,,,,,,,,,,,132,Y,circle,0,1,,,,,,,,,,,,,,,,switch,letter,NA,j,0.2033,noRew,,,,,,0,51,0,51,0,1,,,,,,,,,,,,,,,,,
296257,2022-11-30_16h26.35.928,vts_reward_expectancy_bt,2022.2.4,Win32,64.9561546,Chrome,1920,1080,,,,,0,549,,,,,,,,,,,,,,,,,139,Y,circle,1,1,,,,,,,,,,,,,,,,switch,number,numSwt,d,0.0444,noRew,,,,,,0,52,0,52,0,1,,,,,,,,,,,,,,,,,
296257,2022-11-30_16h26.35.928,vts_reward_expectancy_bt,2022.2.4,Win32,64.9561546,Chrome,1920,1080,,,,,0,549,,,,,,,,,,,,,,,,,160,S,star,0,0,,,,,,,,,,,,,,,,switch,letter,NA,j,0.0002,noRew,,,,,,0,53,0,53,0,1,,,,,,,,,,,,,,,,,
296257,2022-11-30_16h26.35.928,vts_reward_expectancy_bt,2022.2.4,Win32,64.9561546,Chrome,1920,1080,,,,,0,549,,,,,,,,,,,,,,,,,167,F,triangle,0,1,,,,,,,,,,,,,,,,switch,number,NA,d,0.1158,noRew,,,,,,0,54,0,54,0,1,,,,,,,,,,,,,,,,,
296257,2022-11-30_16h26.35.928,vts_reward_expectancy_bt,2022.2.4,Win32,64.9561546,Chrome,1920,1080,,,,,0,549,,,,,,,,,,,,,,,,,146,B,star,0,1,,,,,,,,,,,,,,,,repeat,number,NA,f,0.1049,noRew,,,,,,0,55,0,55,0,1,,,,,,,,,,,,,,,,,
296257,2022-11-30_16h26.35.928,vts_reward_expectancy_bt,2022.2.4,Win32,64.9561546,Chrome,1920,1080,,,,,0,549,,,,,,,,,,,,,,,,,125,H,triangle,1,1,,,,,,,,,,,,,,,,repeat,number,numRpt,d,0.1207,noRew,,,,,,0,56,0,56,0,1,,,,,,,,,,,,,,,,,
296257,2022-11-30_16h26.35.928,vts_reward_expectancy_bt,2022.2.4,Win32,64.9561546,Chrome,1920,1080,,,,,0,549,,,,,,,,,,,,,,,,,181,Y,circle,1,0,,,,,,,,,,,,,,,,repeat,number,numRpt,f,0.0324,noRew,,,,,,0,57,0,57,0,1,,,,,,,,,,,,,,,,,
296257,2022-11-30_16h26.35.928,vts_reward_expectancy_bt,2022.2.4,Win32,64.9561546,Chrome,1920,1080,,,,,0,549,,,,,,,,,,,,,,,,,146,D,triangle,1,0,,,,,,,,,,,,,,,,switch,letter,lettSwt,j,0.066,noRew,,,,,,0,58,0,58,0,1,,,,,,,,,,,,,,,,,
296257,2022-11-30_16h26.35.928,vts_reward_expectancy_bt,2022.2.4,Win32,64.9561546,Chrome,1920,1080,,,,,0,549,,,,,,,,,,,,,,,,,167,B,star,1,0,,,,,,,,,,,,,,,,switch,number,numSwt,f,0.1802,noRew,,,,,,0,59,0,59,0,1,,,,,,,,,,,,,,,,,
296257,2022-11-30_16h26.35.928,vts_reward_expectancy_bt,2022.2.4,Win32,64.9561546,Chrome,1920,1080,,,,,0,549,,,,,,,,,,,,,,,,,125,S,star,0,0,,,,,,,,,,,,,,,,repeat,number,NA,f,0.065,noRew,,,,,,0,60,0,60,0,1,,,,,,,,,,,,,,,,,
296257,2022-11-30_16h26.35.928,vts_reward_expectancy_bt,2022.2.4,Win32,64.9561546,Chrome,1920,1080,,,,,0,549,,,,,,,,,,,,,,,,,146,D,triangle,1,1,,,,,,,,,,,,,,,,repeat,number,numRpt,d,0.0315,noRew,,,,,,0,61,0,61,0,1,,,,,,,,,,,,,,,,,
296257,2022-11-30_16h26.35.928,vts_reward_expectancy_bt,2022.2.4,Win32,64.9561546,Chrome,1920,1080,,,,,0,549,,,,,,,,,,,,,,,,,139,W,triangle,1,0,,,,,,,,,,,,,,,,repeat,number,numRpt,d,0.0094,noRew,,,,,,0,62,0,62,0,1,,,,,,,,,,,,,,,,,
296257,2022-11-30_16h26.35.928,vts_reward_expectancy_bt,2022.2.4,Win32,64.9561546,Chrome,1920,1080,,,,,0,549,,,,,,,,,,,,,,,,,160,F,circle,1,0,,,,,,,,,,,,,,,,repeat,number,numRpt,f,1.3504,noRew,,,,,,0,63,0,63,0,1,,,,,,,,,,,,,,,,,
296257,2022-11-30_16h26.35.928,vts_reward_expectancy_bt,2022.2.4,Win32,64.9561546,Chrome,1920,1080,,,,,,,,,,,,,,,,,,,,,,,,,,,,,,,,,,,,,,,,,,,,,,,,,,,,,,,,,,,,,,,,,,,,,,,,,,,,
296257,2022-11-30_16h26.35.928,vts_reward_expectancy_bt,2022.2.4,Win32,64.9561546,Chrome,1920,1080,,,,,0,549,,,,,,,,,,,,,,,,,174,U,circle,0,0,,,,,,,,,,,,,,,,repeat,number,NA,d,0.4186,noRew,,,,,,0,,,,,,space,6.4542,high,0,0,0,0,1,,,,,,,,,
296257,2022-11-30_16h26.35.928,vts_reward_expectancy_bt,2022.2.4,Win32,64.9561546,Chrome,1920,1080,,,,,1,550,,,,,,,,,,,,,,,,,146,H,star,1,1,,,,,,,,,,,,,,,,repeat,number,numRpt,d,0.0413,Lo,,,,,,0,,,,,,,,high,1,0,1,0,1,,,,,,,,,
296257,2022-11-30_16h26.35.928,vts_reward_expectancy_bt,2022.2.4,Win32,64.9561546,Chrome,1920,1080,,,,,0,550,,,,,,,,,,,,,,,,,181,B,hexagon,0,0,,,,,,,,,,,,,,,,switch,letter,NA,k,0.0243,Lo,,,,,,0,,,,,,,,high,2,0,2,0,1,,,,,,,,,
296257,2022-11-30_16h26.35.928,vts_reward_expectancy_bt,2022.2.4,Win32,64.9561546,Chrome,1920,1080,,,,,10,560,,,,,,,,,,,,,,,,,125,S,triangle,1,1,,,,,,,,,,,,,,,,repeat,letter,lettRpt,k,0.8481,Lo,,,,,,0,,,,,,,,high,3,0,3,0,1,,,,,,,,,
296257,2022-11-30_16h26.35.928,vts_reward_expectancy_bt,2022.2.4,Win32,64.9561546,Chrome,1920,1080,,,,,0,560,,,,,,,,,,,,,,,,,139,F,circle,0,0,,,,,,,,,,,,,,,,repeat,letter,NA,k,0.0874,Lo,,,,,,0,,,,,,,,high,4,0,4,0,1,,,,,,,,,
296257,2022-11-30_16h26.35.928,vts_reward_expectancy_bt,2022.2.4,Win32,64.9561546,Chrome,1920,1080,,,,,1,561,,,,,,,,,,,,,,,,,132,W,star,1,1,,,,,,,,,,,,,,,,repeat,letter,lettRpt,k,1.4755,Lo,,,,,,0,,,,,,,,high,5,0,5,0,1,,,,,,,,,
296257,2022-11-30_16h26.35.928,vts_reward_expectancy_bt,2022.2.4,Win32,64.9561546,Chrome,1920,1080,,,,,0,561,,,,,,,,,,,,,,,,,160,Y,hexagon,1,0,,,,,,,,,,,,,,,,repeat,letter,lettRpt,k,0.1885,Hi,,,,,,0,,,,,,,,high,6,0,6,0,1,,,,,,,,,
296257,2022-11-30_16h26.35.928,vts_reward_expectancy_bt,2022.2.4,Win32,64.9561546,Chrome,1920,1080,,,,,1,562,,,,,,,,,,,,,,,,,167,D,triangle,1,0,,,,,,,,,,,,,,,,repeat,letter,lettRpt,j,0.2113,Lo,,,,,,0,,,,,,,,high,7,0,7,0,1,,,,,,,,,
296257,2022-11-30_16h26.35.928,vts_reward_expectancy_bt,2022.2.4,Win32,64.9561546,Chrome,1920,1080,,,,,0,562,,,,,,,,,,,,,,,,,174,U,star,0,0,,,,,,,,,,,,,,,,repeat,letter,NA,j,0.0148,Lo,,,,,,0,,,,,,,,high,8,0,8,0,1,,,,,,,,,
296257,2022-11-30_16h26.35.928,vts_reward_expectancy_bt,2022.2.4,Win32,64.9561546,Chrome,1920,1080,,,,,0,562,,,,,,,,,,,,,,,,,146,H,circle,0,1,,,,,,,,,,,,,,,,repeat,letter,NA,k,0.5182,Lo,,,,,,0,,,,,,,,high,9,0,9,0,1,,,,,,,,,
296257,2022-11-30_16h26.35.928,vts_reward_expectancy_bt,2022.2.4,Win32,64.9561546,Chrome,1920,1080,,,,,1,563,,,,,,,,,,,,,,,,,181,B,triangle,1,1,,,,,,,,,,,,,,,,repeat,letter,lettRpt,j,0.0238,Lo,,,,,,0,,,,,,,,high,10,0,10,0,1,,,,,,,,,
296257,2022-11-30_16h26.35.928,vts_reward_expectancy_bt,2022.2.4,Win32,64.9561546,Chrome,1920,1080,,,,,0,563,,,,,,,,,,,,,,,,,125,S,hexagon,0,0,,,,,,,,,,,,,,,,repeat,letter,NA,j,0.1513,Lo,,,,,,0,,,,,,,,high,11,0,11,0,1,,,,,,,,,
296257,2022-11-30_16h26.35.928,vts_reward_expectancy_bt,2022.2.4,Win32,64.9561546,Chrome,1920,1080,,,,,1,564,,,,,,,,,,,,,,,,,139,F,triangle,1,1,,,,,,,,,,,,,,,,repeat,letter,lettRpt,j,0.0796,Lo,,,,,,0,,,,,,,,high,12,0,12,0,1,,,,,,,,,
296257,2022-11-30_16h26.35.928,vts_reward_expectancy_bt,2022.2.4,Win32,64.9561546,Chrome,1920,1080,,,,,0,564,,,,,,,,,,,,,,,,,132,W,circle,1,0,,,,,,,,,,,,,,,,repeat,letter,lettRpt,k,0.0753,Hi,,,,,,0,,,,,,,,high,13,0,13,0,1,,,,,,,,,
296257,2022-11-30_16h26.35.928,vts_reward_expectancy_bt,2022.2.4,Win32,64.9561546,Chrome,1920,1080,,,,,0,564,,,,,,,,,,,,,,,,,160,Y,hexagon,0,0,,,,,,,,,,,,,,,,repeat,letter,NA,j,0.1397,Hi,,,,,,0,,,,,,,,high,14,0,14,0,1,,,,,,,,,
296257,2022-11-30_16h26.35.928,vts_reward_expectancy_bt,2022.2.4,Win32,64.9561546,Chrome,1920,1080,,,,,0,564,,,,,,,,,,,,,,,,,167,D,star,0,1,,,,,,,,,,,,,,,,switch,number,NA,d,0.1411,Hi,,,,,,0,,,,,,,,high,15,0,15,0,1,,,,,,,,,
296257,2022-11-30_16h26.35.928,vts_reward_expectancy_bt,2022.2.4,Win32,64.9561546,Chrome,1920,1080,,,,,1,565,,,,,,,,,,,,,,,,,146,H,star,1,1,,,,,,,,,,,,,,,,repeat,number,numRpt,d,0.417,Lo,,,,,,0,,,,,,,,high,16,0,16,0,1,,,,,,,,,
296257,2022-11-30_16h26.35.928,vts_reward_expectancy_bt,2022.2.4,Win32,64.9561546,Chrome,1920,1080,,,,,0,565,,,,,,,,,,,,,,,,,181,W,circle,0,0,,,,,,,,,,,,,,,,switch,letter,NA,j,1.5037,Lo,,,,,,0,,,,,,,,high,17,0,17,0,1,,,,,,,,,
296257,2022-11-30_16h26.35.928,vts_reward_expectancy_bt,2022.2.4,Win32,64.9561546,Chrome,1920,1080,,,,,0,565,,,,,,,,,,,,,,,,,160,B,hexagon,1,1,,,,,,,,,,,,,,,,repeat,letter,lettRpt,j,0.1542,Hi,,,,,,0,,,,,,,,high,18,0,18,0,1,,,,,,,,,
296257,2022-11-30_16h26.35.928,vts_reward_expectancy_bt,2022.2.4,Win32,64.9561546,Chrome,1920,1080,,,,,0,565,,,,,,,,,,,,,,,,,125,D,triangle,0,0,,,,,,,,,,,,,,,,repeat,letter,NA,k,0.1582,Hi,,,,,,0,,,,,,,,high,19,0,19,0,1,,,,,,,,,
296257,2022-11-30_16h26.35.928,vts_reward_expectancy_bt,2022.2.4,Win32,64.9561546,Chrome,1920,1080,,,,,1,566,,,,,,,,,,,,,,,,,174,Y,triangle,1,1,,,,,,,,,,,,,,,,switch,number,numSwt,f,0.694,Lo,,,,,,0,,,,,,,,high,20,0,20,0,1,,,,,,,,,
296257,2022-11-30_16h26.35.928,vts_reward_expectancy_bt,2022.2.4,Win32,64.9561546,Chrome,1920,1080,,,,,0,566,,,,,,,,,,,,,,,,,167,U,circle,-1,0,,,,,,,,,,,,,,,,switch,no_choice,NA,,,Lo,,,,,,0,,,,,,,,high,21,0,21,0,1,,,,,,,,,
296257,2022-11-30_16h26.35.928,vts_reward_expectancy_bt,2022.2.4,Win32,64.9561546,Chrome,1920,1080,,,,,0,566,,,,,,,,,,,,,,,,,132,F,hexagon,0,0,,,,,,,,,,,,,,,,switch,letter,NA,k,0.0002,Lo,,,,,,0,,,,,,,,high,22,0,22,0,1,,,,,,,,,
296257,2022-11-30_16h26.35.928,vts_reward_expectancy_bt,2022.2.4,Win32,64.9561546,Chrome,1920,1080,,,,,0,566,,,,,,,,,,,,,,,,,139,S,star,0,1,,,,,,,,,,,,,,,,repeat,letter,NA,j,0.1481,Lo,,,,,,0,,,,,,,,high,23,0,23,0,1,,,,,,,,,
296257,2022-11-30_16h26.35.928,vts_reward_expectancy_bt,2022.2.4,Win32,64.9561546,Chrome,1920,1080,,,,,0,566,,,,,,,,,,,,,,,,,139,D,hexagon,1,1,,,,,,,,,,,,,,,,repeat,letter,lettRpt,j,0.0465,Hi,,,,,,0,,,,,,,,high,24,0,24,0,1,,,,,,,,,
296257,2022-11-30_16h26.35.928,vts_reward_expectancy_bt,2022.2.4,Win32,64.9561546,Chrome,1920,1080,,,,,1,567,,,,,,,,,,,,,,,,,146,W,triangle,1,0,,,,,,,,,,,,,,,,repeat,letter,lettRpt,k,0.0705,Lo,,,,,,0,,,,,,,,high,25,0,25,0,1,,,,,,,,,
296257,2022-11-30_16h26.35.928,vts_reward_expectancy_bt,2022.2.4,Win32,64.9561546,Chrome,1920,1080,,,,,0,567,,,,,,,,,,,,,,,,,181,H,circle,1,0,,,,,,,,,,,,,,,,repeat,letter,lettRpt,j,0.6157,Hi,,,,,,0,,,,,,,,high,26,0,26,0,1,,,,,,,,,
296257,2022-11-30_16h26.35.928,vts_reward_expectancy_bt,2022.2.4,Win32,64.9561546,Chrome,1920,1080,,,,,0,567,,,,,,,,,,,,,,,,,174,U,star,0,0,,,,,,,,,,,,,,,,repeat,letter,NA,j,0.238,Hi,,,,,,0,,,,,,,,high,27,0,27,0,1,,,,,,,,,
296257,2022-11-30_16h26.35.928,vts_reward_expectancy_bt,2022.2.4,Win32,64.9561546,Chrome,1920,1080,,,,,0,567,,,,,,,,,,,,,,,,,132,S,circle,0,1,,,,,,,,,,,,,,,,repeat,letter,NA,j,0.0898,Hi,,,,,,0,,,,,,,,high,28,0,28,0,1,,,,,,,,,
296257,2022-11-30_16h26.35.928,vts_reward_expectancy_bt,2022.2.4,Win32,64.9561546,Chrome,1920,1080,,,,,0,567,,,,,,,,,,,,,,,,,167,Y,hexagon,1,1,,,,,,,,,,,,,,,,switch,number,numSwt,f,0.0502,Hi,,,,,,0,,,,,,,,high,29,0,29,0,1,,,,,,,,,
296257,2022-11-30_16h26.35.928,vts_reward_expectancy_bt,2022.2.4,Win32,64.9561546,Chrome,1920,1080,,,,,0,567,,,,,,,,,,,,,,,,,160,F,triangle,0,0,,,,,,,,,,,,,,,,switch,letter,NA,k,0.0439,Hi,,,,,,0,,,,,,,,high,30,0,30,0,1,,,,,,,,,
296257,2022-11-30_16h26.35.928,vts_reward_expectancy_bt,2022.2.4,Win32,64.9561546,Chrome,1920,1080,,,,,0,567,,,,,,,,,,,,,,,,,125,B,star,0,1,,,,,,,,,,,,,,,,switch,number,NA,f,0.1891,Hi,,,,,,0,,,,,,,,high,31,0,31,0,1,,,,,,,,,
296257,2022-11-30_16h26.35.928,vts_reward_expectancy_bt,2022.2.4,Win32,64.9561546,Chrome,1920,1080,,,,,1,568,,,,,,,,,,,,,,,,,174,U,star,1,1,,,,,,,,,,,,,,,,repeat,number,numRpt,f,0.0089,Lo,,,,,,1,,,,,,space,1.0343,high,0,0,0,0,1,,,,,,,,,
296257,2022-11-30_16h26.35.928,vts_reward_expectancy_bt,2022.2.4,Win32,64.9561546,Chrome,1920,1080,,,,,0,568,,,,,,,,,,,,,,,,,167,Y,hexagon,1,0,,,,,,,,,,,,,,,,repeat,number,numRpt,f,0.2914,Hi,,,,,,1,,,,,,,,high,1,0,1,0,1,,,,,,,,,
296257,2022-11-30_16h26.35.928,vts_reward_expectancy_bt,2022.2.4,Win32,64.9561546,Chrome,1920,1080,,,,,0,568,,,,,,,,,,,,,,,,,139,H,triangle,0,0,,,,,,,,,,,,,,,,repeat,number,NA,f,0.1276,Hi,,,,,,1,,,,,,,,high,2,0,2,0,1,,,,,,,,,
296257,2022-11-30_16h26.35.928,vts_reward_expectancy_bt,2022.2.4,Win32,64.9561546,Chrome,1920,1080,,,,,0,568,,,,,,,,,,,,,,,,,146,D,circle,0,1,,,,,,,,,,,,,,,,repeat,number,NA,f,0.1436,Hi,,,,,,1,,,,,,,,high,3,0,3,0,1,,,,,,,,,
296257,2022-11-30_16h26.35.928,vts_reward_expectancy_bt,2022.2.4,Win32,64.9561546,Chrome,1920,1080,,,,,0,568,,,,,,,,,,,,,,,,,181,B,star,-1,1,,,,,,,,,,,,,,,,switch,no_choice,NA,,,Hi,,,,,,1,,,,,,,,high,4,0,4,0,1,,,,,,,,,
296257,2022-11-30_16h26.35.928,vts_reward_expectancy_bt,2022.2.4,Win32,64.9561546,Chrome,1920,1080,,,,,0,568,,,,,,,,,,,,,,,,,160,S,hexagon,-1,0,,,,,,,,,,,,,,,,repeat,no_choice,NA,,,Hi,,,,,,1,,,,,,,,high,5,0,5,0,1,,,,,,,,,
296257,2022-11-30_16h26.35.928,vts_reward_expectancy_bt,2022.2.4,Win32,64.9561546,Chrome,1920,1080,,,,,0,568,,,,,,,,,,,,,,,,,125,F,triangle,0,0,,,,,,,,,,,,,,,,switch,number,NA,f,0.1101,Hi,,,,,,1,,,,,,,,high,6,0,6,0,1,,,,,,,,,
296257,2022-11-30_16h26.35.928,vts_reward_expectancy_bt,2022.2.4,Win32,64.9561546,Chrome,1920,1080,,,,,0,568,,,,,,,,,,,,,,,,,132,W,circle,-1,1,,,,,,,,,,,,,,,,switch,no_choice,NA,,,Hi,,,,,,1,,,,,,,,high,7,0,7,0,1,,,,,,,,,
296257,2022-11-30_16h26.35.928,vts_reward_expectancy_bt,2022.2.4,Win32,64.9561546,Chrome,1920,1080,,,,,0,568,,,,,,,,,,,,,,,,,174,U,hexagon,-1,0,,,,,,,,,,,,,,,,repeat,no_choice,NA,,,Hi,,,,,,1,,,,,,,,high,8,0,8,0,1,,,,,,,,,
296257,2022-11-30_16h26.35.928,vts_reward_expectancy_bt,2022.2.4,Win32,64.9561546,Chrome,1920,1080,,,,,0,568,,,,,,,,,,,,,,,,,167,Y,star,-1,0,,,,,,,,,,,,,,,,repeat,no_choice,NA,,,Hi,,,,,,1,,,,,,,,high,9,0,9,0,1,,,,,,,,,
296257,2022-11-30_16h26.35.928,vts_reward_expectancy_bt,2022.2.4,Win32,64.9561546,Chrome,1920,1080,,,,,0,568,,,,,,,,,,,,,,,,,139,H,triangle,-1,0,,,,,,,,,,,,,,,,repeat,no_choice,NA,,,Hi,,,,,,1,,,,,,,,high,10,0,10,0,1,,,,,,,,,
296257,2022-11-30_16h26.35.928,vts_reward_expectancy_bt,2022.2.4,Win32,64.9561546,Chrome,1920,1080,,,,,1,569,,,,,,,,,,,,,,,,,146,D,circle,1,0,,,,,,,,,,,,,,,,switch,number,numSwt,d,0.056,Hi,,,,,,1,,,,,,,,high,11,0,11,0,1,,,,,,,,,
296257,2022-11-30_16h26.35.928,vts_reward_expectancy_bt,2022.2.4,Win32,64.9561546,Chrome,1920,1080,,,,,0,569,,,,,,,,,,,,,,,,,181,B,hexagon,-1,0,,,,,,,,,,,,,,,,switch,no_choice,NA,,,Hi,,,,,,1,,,,,,,,high,12,0,12,0,1,,,,,,,,,
296257,2022-11-30_16h26.35.928,vts_reward_expectancy_bt,2022.2.4,Win32,64.9561546,Chrome,1920,1080,,,,,0,569,,,,,,,,,,,,,,,,,160,S,triangle,-1,0,,,,,,,,,,,,,,,,repeat,no_choice,NA,,,Hi,,,,,,1,,,,,,,,high,13,0,13,0,1,,,,,,,,,
296257,2022-11-30_16h26.35.928,vts_reward_expectancy_bt,2022.2.4,Win32,64.9561546,Chrome,1920,1080,,,,,0,569,,,,,,,,,,,,,,,,,125,F,circle,-1,0,,,,,,,,,,,,,,,,repeat,no_choice,NA,,,Hi,,,,,,1,,,,,,,,high,14,0,14,0,1,,,,,,,,,
296257,2022-11-30_16h26.35.928,vts_reward_expectancy_bt,2022.2.4,Win32,64.9561546,Chrome,1920,1080,,,,,0,569,,,,,,,,,,,,,,,,,132,W,star,-1,0,,,,,,,,,,,,,,,,repeat,no_choice,NA,,,Hi,,,,,,1,,,,,,,,high,15,0,15,0,1,,,,,,,,,
296257,2022-11-30_16h26.35.928,vts_reward_expectancy_bt,2022.2.4,Win32,64.9561546,Chrome,1920,1080,,,,,0,569,,,,,,,,,,,,,,,,,167,Y,circle,-1,0,,,,,,,,,,,,,,,,repeat,no_choice,NA,,,Hi,,,,,,1,,,,,,,,high,16,0,16,0,1,,,,,,,,,
296257,2022-11-30_16h26.35.928,vts_reward_expectancy_bt,2022.2.4,Win32,64.9561546,Chrome,1920,1080,,,,,0,569,,,,,,,,,,,,,,,,,146,S,triangle,-1,0,,,,,,,,,,,,,,,,repeat,no_choice,NA,,,Hi,,,,,,1,,,,,,,,high,17,0,17,0,1,,,,,,,,,
296257,2022-11-30_16h26.35.928,vts_reward_expectancy_bt,2022.2.4,Win32,64.9561546,Chrome,1920,1080,,,,,0,569,,,,,,,,,,,,,,,,,174,W,star,-1,0,,,,,,,,,,,,,,,,repeat,no_choice,NA,,,Hi,,,,,,1,,,,,,,,high,18,0,18,0,1,,,,,,,,,
296257,2022-11-30_16h26.35.928,vts_reward_expectancy_bt,2022.2.4,Win32,64.9561546,Chrome,1920,1080,,,,,0,569,,,,,,,,,,,,,,,,,160,U,hexagon,-1,0,,,,,,,,,,,,,,,,repeat,no_choice,NA,,,Hi,,,,,,1,,,,,,,,high,19,0,19,0,1,,,,,,,,,
296257,2022-11-30_16h26.35.928,vts_reward_expectancy_bt,2022.2.4,Win32,64.9561546,Chrome,1920,1080,,,,,0,569,,,,,,,,,,,,,,,,,125,H,circle,0,0,,,,,,,,,,,,,,,,switch,number,NA,f,0.4235,Hi,,,,,,1,,,,,,,,high,20,0,20,0,1,,,,,,,,,
296257,2022-11-30_16h26.35.928,vts_reward_expectancy_bt,2022.2.4,Win32,64.9561546,Chrome,1920,1080,,,,,0,569,,,,,,,,,,,,,,,,,139,F,triangle,-1,1,,,,,,,,,,,,,,,,switch,no_choice,NA,,,Hi,,,,,,1,,,,,,,,high,21,0,21,0,1,,,,,,,,,
296257,2022-11-30_16h26.35.928,vts_reward_expectancy_bt,2022.2.4,Win32,64.9561546,Chrome,1920,1080,,,,,0,569,,,,,,,,,,,,,,,,,132,B,hexagon,-1,0,,,,,,,,,,,,,,,,repeat,no_choice,NA,,,Hi,,,,,,1,,,,,,,,high,22,0,22,0,1,,,,,,,,,
296257,2022-11-30_16h26.35.928,vts_reward_expectancy_bt,2022.2.4,Win32,64.9561546,Chrome,1920,1080,,,,,0,569,,,,,,,,,,,,,,,,,181,D,star,-1,0,,,,,,,,,,,,,,,,repeat,no_choice,NA,,,Hi,,,,,,1,,,,,,,,high,23,0,23,0,1,,,,,,,,,
296257,2022-11-30_16h26.35.928,vts_reward_expectancy_bt,2022.2.4,Win32,64.9561546,Chrome,1920,1080,,,,,0,569,,,,,,,,,,,,,,,,,132,H,star,-1,0,,,,,,,,,,,,,,,,repeat,no_choice,NA,,,Hi,,,,,,1,,,,,,,,high,24,0,24,0,1,,,,,,,,,
296257,2022-11-30_16h26.35.928,vts_reward_expectancy_bt,2022.2.4,Win32,64.9561546,Chrome,1920,1080,,,,,0,569,,,,,,,,,,,,,,,,,139,F,hexagon,-1,0,,,,,,,,,,,,,,,,repeat,no_choice,NA,,,Hi,,,,,,1,,,,,,,,high,25,0,25,0,1,,,,,,,,,
296257,2022-11-30_16h26.35.928,vts_reward_expectancy_bt,2022.2.4,Win32,64.9561546,Chrome,1920,1080,,,,,0,569,,,,,,,,,,,,,,,,,160,D,circle,-1,0,,,,,,,,,,,,,,,,repeat,no_choice,NA,,,Hi,,,,,,1,,,,,,,,high,26,0,26,0,1,,,,,,,,,
296257,2022-11-30_16h26.35.928,vts_reward_expectancy_bt,2022.2.4,Win32,64.9561546,Chrome,1920,1080,,,,,0,569,,,,,,,,,,,,,,,,,125,B,triangle,-1,0,,,,,,,,,,,,,,,,repeat,no_choice,NA,,,Hi,,,,,,1,,,,,,,,high,27,0,27,0,1,,,,,,,,,
296257,2022-11-30_16h26.35.928,vts_reward_expectancy_bt,2022.2.4,Win32,64.9561546,Chrome,1920,1080,,,,,0,569,,,,,,,,,,,,,,,,,167,Y,hexagon,-1,0,,,,,,,,,,,,,,,,repeat,no_choice,NA,,,Hi,,,,,,1,,,,,,,,high,28,0,28,0,1,,,,,,,,,
296257,2022-11-30_16h26.35.928,vts_reward_expectancy_bt,2022.2.4,Win32,64.9561546,Chrome,1920,1080,,,,,0,569,,,,,,,,,,,,,,,,,181,W,circle,-1,0,,,,,,,,,,,,,,,,repeat,no_choice,NA,,,Hi,,,,,,1,,,,,,,,high,29,0,29,0,1,,,,,,,,,
296257,2022-11-30_16h26.35.928,vts_reward_expectancy_bt,2022.2.4,Win32,64.9561546,Chrome,1920,1080,,,,,0,569,,,,,,,,,,,,,,,,,174,U,triangle,-1,0,,,,,,,,,,,,,,,,repeat,no_choice,NA,,,Hi,,,,,,1,,,,,,,,high,30,0,30,0,1,,,,,,,,,
296257,2022-11-30_16h26.35.928,vts_reward_expectancy_bt,2022.2.4,Win32,64.9561546,Chrome,1920,1080,,,,,0,569,,,,,,,,,,,,,,,,,146,S,star,-1,0,,,,,,,,,,,,,,,,repeat,no_choice,NA,,,Hi,,,,,,1,,,,,,,,high,31,0,31,0,1,,,,,,,,,
296257,2022-11-30_16h26.35.928,vts_reward_expectancy_bt,2022.2.4,Win32,64.9561546,Chrome,1920,1080,,,,,0,569,,,,,,,,,,,,,,,,,132,B,star,-1,0,,,,,,,,,,,,,,,,repeat,no_choice,NA,,,Hi,,,,,,2,,,,,,space,3.1627,high,0,0,0,0,1,,,,,,,,,
296257,2022-11-30_16h26.35.928,vts_reward_expectancy_bt,2022.2.4,Win32,64.9561546,Chrome,1920,1080,,,,,0,569,,,,,,,,,,,,,,,,,146,U,triangle,-1,0,,,,,,,,,,,,,,,,repeat,no_choice,NA,,,Hi,,,,,,2,,,,,,,,high,1,0,1,0,1,,,,,,,,,
296257,2022-11-30_16h26.35.928,vts_reward_expectancy_bt,2022.2.4,Win32,64.9561546,Chrome,1920,1080,,,,,0,569,,,,,,,,,,,,,,,,,167,D,hexagon,-1,0,,,,,,,,,,,,,,,,repeat,no_choice,NA,,,Hi,,,,,,2,,,,,,,,high,2,0,2,0,1,,,,,,,,,
296257,2022-11-30_16h26.35.928,vts_reward_expectancy_bt,2022.2.4,Win32,64.9561546,Chrome,1920,1080,,,,,0,569,,,,,,,,,,,,,,,,,139,W,circle,-1,0,,,,,,,,,,,,,,,,repeat,no_choice,NA,,,Hi,,,,,,2,,,,,,,,high,3,0,3,0,1,,,,,,,,,
296257,2022-11-30_16h26.35.928,vts_reward_expectancy_bt,2022.2.4,Win32,64.9561546,Chrome,1920,1080,,,,,0,569,,,,,,,,,,,,,,,,,181,S,star,-1,0,,,,,,,,,,,,,,,,repeat,no_choice,NA,,,Hi,,,,,,2,,,,,,,,high,4,0,4,0,1,,,,,,,,,
296257,2022-11-30_16h26.35.928,vts_reward_expectancy_bt,2022.2.4,Win32,64.9561546,Chrome,1920,1080,,,,,0,569,,,,,,,,,,,,,,,,,174,H,triangle,-1,0,,,,,,,,,,,,,,,,repeat,no_choice,NA,,,Hi,,,,,,2,,,,,,,,high,5,0,5,0,1,,,,,,,,,
296257,2022-11-30_16h26.35.928,vts_reward_expectancy_bt,2022.2.4,Win32,64.9561546,Chrome,1920,1080,,,,,0,569,,,,,,,,,,,,,,,,,160,F,hexagon,-1,0,,,,,,,,,,,,,,,,repeat,no_choice,NA,,,Hi,,,,,,2,,,,,,,,high,6,0,6,0,1,,,,,,,,,
296257,2022-11-30_16h26.35.928,vts_reward_expectancy_bt,2022.2.4,Win32,64.9561546,Chrome,1920,1080,,,,,0,569,,,,,,,,,,,,,,,,,125,Y,circle,-1,0,,,,,,,,,,,,,,,,repeat,no_choice,NA,,,Hi,,,,,,2,,,,,,,,high,7,0,7,0,1,,,,,,,,,
296257,2022-11-30_16h26.35.928,vts_reward_expectancy_bt,2022.2.4,Win32,64.9561546,Chrome,1920,1080,,,,,0,569,,,,,,,,,,,,,,,,,132,B,hexagon,-1,0,,,,,,,,,,,,,,,,repeat,no_choice,NA,,,Hi,,,,,,2,,,,,,,,high,8,0,8,0,1,,,,,,,,,
296257,2022-11-30_16h26.35.928,vts_reward_expectancy_bt,2022.2.4,Win32,64.9561546,Chrome,1920,1080,,,,,0,569,,,,,,,,,,,,,,,,,146,U,triangle,-1,0,,,,,,,,,,,,,,,,repeat,no_choice,NA,,,Hi,,,,,,2,,,,,,,,high,9,0,9,0,1,,,,,,,,,
296257,2022-11-30_16h26.35.928,vts_reward_expectancy_bt,2022.2.4,Win32,64.9561546,Chrome,1920,1080,,,,,0,569,,,,,,,,,,,,,,,,,167,D,star,-1,0,,,,,,,,,,,,,,,,repeat,no_choice,NA,,,Hi,,,,,,2,,,,,,,,high,10,0,10,0,1,,,,,,,,,
296257,2022-11-30_16h26.35.928,vts_reward_expectancy_bt,2022.2.4,Win32,64.9561546,Chrome,1920,1080,,,,,0,569,,,,,,,,,,,,,,,,,139,W,circle,-1,0,,,,,,,,,,,,,,,,repeat,no_choice,NA,,,Hi,,,,,,2,,,,,,,,high,11,0,11,0,1,,,,,,,,,
296257,2022-11-30_16h26.35.928,vts_reward_expectancy_bt,2022.2.4,Win32,64.9561546,Chrome,1920,1080,,,,,0,569,,,,,,,,,,,,,,,,,181,S,star,-1,0,,,,,,,,,,,,,,,,repeat,no_choice,NA,,,Hi,,,,,,2,,,,,,,,high,12,0,12,0,1,,,,,,,,,
296257,2022-11-30_16h26.35.928,vts_reward_expectancy_bt,2022.2.4,Win32,64.9561546,Chrome,1920,1080,,,,,0,569,,,,,,,,,,,,,,,,,174,H,circle,-1,0,,,,,,,,,,,,,,,,repeat,no_choice,NA,,,Hi,,,,,,2,,,,,,,,high,13,0,13,0,1,,,,,,,,,
296257,2022-11-30_16h26.35.928,vts_reward_expectancy_bt,2022.2.4,Win32,64.9561546,Chrome,1920,1080,,,,,0,569,,,,,,,,,,,,,,,,,160,F,triangle,-1,0,,,,,,,,,,,,,,,,repeat,no_choice,NA,,,Hi,,,,,,2,,,,,,,,high,14,0,14,0,1,,,,,,,,,
296257,2022-11-30_16h26.35.928,vts_reward_expectancy_bt,2022.2.4,Win32,64.9561546,Chrome,1920,1080,,,,,0,569,,,,,,,,,,,,,,,,,125,Y,hexagon,-1,0,,,,,,,,,,,,,,,,repeat,no_choice,NA,,,Hi,,,,,,2,,,,,,,,high,15,0,15,0,1,,,,,,,,,
296257,2022-11-30_16h26.35.928,vts_reward_expectancy_bt,2022.2.4,Win32,64.9561546,Chrome,1920,1080,,,,,0,569,,,,,,,,,,,,,,,,,125,B,circle,-1,0,,,,,,,,,,,,,,,,repeat,no_choice,NA,,,Hi,,,,,,2,,,,,,,,high,16,0,16,0,1,,,,,,,,,
296257,2022-11-30_16h26.35.928,vts_reward_expectancy_bt,2022.2.4,Win32,64.9561546,Chrome,1920,1080,,,,,0,569,,,,,,,,,,,,,,,,,181,D,hexagon,-1,0,,,,,,,,,,,,,,,,repeat,no_choice,NA,,,Hi,,,,,,2,,,,,,,,high,17,0,17,0,1,,,,,,,,,
296257,2022-11-30_16h26.35.928,vts_reward_expectancy_bt,2022.2.4,Win32,64.9561546,Chrome,1920,1080,,,,,0,569,,,,,,,,,,,,,,,,,167,F,triangle,-1,0,,,,,,,,,,,,,,,,repeat,no_choice,NA,,,Hi,,,,,,2,,,,,,,,high,18,0,18,0,1,,,,,,,,,
296257,2022-11-30_16h26.35.928,vts_reward_expectancy_bt,2022.2.4,Win32,64.9561546,Chrome,1920,1080,,,,,0,569,,,,,,,,,,,,,,,,,146,U,star,-1,0,,,,,,,,,,,,,,,,repeat,no_choice,NA,,,Hi,,,,,,2,,,,,,,,high,19,0,19,0,1,,,,,,,,,
296257,2022-11-30_16h26.35.928,vts_reward_expectancy_bt,2022.2.4,Win32,64.9561546,Chrome,1920,1080,,,,,0,569,,,,,,,,,,,,,,,,,139,Y,circle,-1,0,,,,,,,,,,,,,,,,repeat,no_choice,NA,,,Hi,,,,,,2,,,,,,,,high,20,0,20,0,1,,,,,,,,,
296257,2022-11-30_16h26.35.928,vts_reward_expectancy_bt,2022.2.4,Win32,64.9561546,Chrome,1920,1080,,,,,0,569,,,,,,,,,,,,,,,,,160,S,star,-1,0,,,,,,,,,,,,,,,,repeat,no_choice,NA,,,Hi,,,,,,2,,,,,,,,high,21,0,21,0,1,,,,,,,,,
296257,2022-11-30_16h26.35.928,vts_reward_expectancy_bt,2022.2.4,Win32,64.9561546,Chrome,1920,1080,,,,,0,569,,,,,,,,,,,,,,,,,132,W,hexagon,-1,0,,,,,,,,,,,,,,,,repeat,no_choice,NA,,,Hi,,,,,,2,,,,,,,,high,22,0,22,0,1,,,,,,,,,
296257,2022-11-30_16h26.35.928,vts_reward_expectancy_bt,2022.2.4,Win32,64.9561546,Chrome,1920,1080,,,,,0,569,,,,,,,,,,,,,,,,,174,H,triangle,-1,0,,,,,,,,,,,,,,,,repeat,no_choice,NA,,,Hi,,,,,,2,,,,,,,,high,23,0,23,0,1,,,,,,,,,
296257,2022-11-30_16h26.35.928,vts_reward_expectancy_bt,2022.2.4,Win32,64.9561546,Chrome,1920,1080,,,,,0,569,,,,,,,,,,,,,,,,,139,S,star,-1,0,,,,,,,,,,,,,,,,repeat,no_choice,NA,,,Hi,,,,,,2,,,,,,,,high,24,0,24,0,1,,,,,,,,,
296257,2022-11-30_16h26.35.928,vts_reward_expectancy_bt,2022.2.4,Win32,64.9561546,Chrome,1920,1080,,,,,0,569,,,,,,,,,,,,,,,,,132,U,triangle,-1,0,,,,,,,,,,,,,,,,repeat,no_choice,NA,,,Hi,,,,,,2,,,,,,,,high,25,0,25,0,1,,,,,,,,,
296257,2022-11-30_16h26.35.928,vts_reward_expectancy_bt,2022.2.4,Win32,64.9561546,Chrome,1920,1080,,,,,0,569,,,,,,,,,,,,,,,,,174,B,circle,-1,0,,,,,,,,,,,,,,,,repeat,no_choice,NA,,,Hi,,,,,,2,,,,,,,,high,26,0,26,0,1,,,,,,,,,
296257,2022-11-30_16h26.35.928,vts_reward_expectancy_bt,2022.2.4,Win32,64.9561546,Chrome,1920,1080,,,,,0,569,,,,,,,,,,,,,,,,,146,W,hexagon,-1,0,,,,,,,,,,,,,,,,repeat,no_choice,NA,,,Hi,,,,,,2,,,,,,,,high,27,0,27,0,1,,,,,,,,,
296257,2022-11-30_16h26.35.928,vts_reward_expectancy_bt,2022.2.4,Win32,64.9561546,Chrome,1920,1080,,,,,0,569,,,,,,,,,,,,,,,,,181,D,triangle,-1,0,,,,,,,,,,,,,,,,repeat,no_choice,NA,,,Hi,,,,,,2,,,,,,,,high,28,0,28,0,1,,,,,,,,,
296257,2022-11-30_16h26.35.928,vts_reward_expectancy_bt,2022.2.4,Win32,64.9561546,Chrome,1920,1080,,,,,0,569,,,,,,,,,,,,,,,,,125,Y,star,-1,0,,,,,,,,,,,,,,,,repeat,no_choice,NA,,,Hi,,,,,,2,,,,,,,,high,29,0,29,0,1,,,,,,,,,
296257,2022-11-30_16h26.35.928,vts_reward_expectancy_bt,2022.2.4,Win32,64.9561546,Chrome,1920,1080,,,,,0,569,,,,,,,,,,,,,,,,,160,H,circle,-1,0,,,,,,,,,,,,,,,,repeat,no_choice,NA,,,Hi,,,,,,2,,,,,,,,high,30,0,30,0,1,,,,,,,,,
296257,2022-11-30_16h26.35.928,vts_reward_expectancy_bt,2022.2.4,Win32,64.9561546,Chrome,1920,1080,,,,,0,569,,,,,,,,,,,,,,,,,167,F,hexagon,-1,0,,,,,,,,,,,,,,,,repeat,no_choice,NA,,,Hi,,,,,,2,,,,,,,,high,31,0,31,0,1,,,,,,,,,
296257,2022-11-30_16h26.35.928,vts_reward_expectancy_bt,2022.2.4,Win32,64.9561546,Chrome,1920,1080,,,,,0,569,,,,,,,,,,,,,,,,,139,H,hexagon,-1,0,,,,,,,,,,,,,,,,repeat,no_choice,NA,,,Hi,,,,,,3,,,,,,space,0.9362,high,0,0,0,0,1,,,,,,,,,
296257,2022-11-30_16h26.35.928,vts_reward_expectancy_bt,2022.2.4,Win32,64.9561546,Chrome,1920,1080,,,,,0,569,,,,,,,,,,,,,,,,,125,Y,circle,-1,0,,,,,,,,,,,,,,,,repeat,no_choice,NA,,,Hi,,,,,,3,,,,,,,,high,1,0,1,0,1,,,,,,,,,
296257,2022-11-30_16h26.35.928,vts_reward_expectancy_bt,2022.2.4,Win32,64.9561546,Chrome,1920,1080,,,,,0,569,,,,,,,,,,,,,,,,,167,W,triangle,-1,0,,,,,,,,,,,,,,,,repeat,no_choice,NA,,,Hi,,,,,,3,,,,,,,,high,2,0,2,0,1,,,,,,,,,
296257,2022-11-30_16h26.35.928,vts_reward_expectancy_bt,2022.2.4,Win32,64.9561546,Chrome,1920,1080,,,,,0,569,,,,,,,,,,,,,,,,,174,F,star,-1,0,,,,,,,,,,,,,,,,repeat,no_choice,NA,,,Hi,,,,,,3,,,,,,,,high,3,0,3,0,1,,,,,,,,,
296257,2022-11-30_16h26.35.928,vts_reward_expectancy_bt,2022.2.4,Win32,64.9561546,Chrome,1920,1080,,,,,0,569,,,,,,,,,,,,,,,,,181,B,hexagon,-1,0,,,,,,,,,,,,,,,,repeat,no_choice,NA,,,Hi,,,,,,3,,,,,,,,high,4,0,4,0,1,,,,,,,,,
296257,2022-11-30_16h26.35.928,vts_reward_expectancy_bt,2022.2.4,Win32,64.9561546,Chrome,1920,1080,,,,,0,569,,,,,,,,,,,,,,,,,132,D,circle,-1,0,,,,,,,,,,,,,,,,repeat,no_choice,NA,,,Hi,,,,,,3,,,,,,,,high,5,0,5,0,1,,,,,,,,,
296257,2022-11-30_16h26.35.928,vts_reward_expectancy_bt,2022.2.4,Win32,64.9561546,Chrome,1920,1080,,,,,0,569,,,,,,,,,,,,,,,,,146,S,triangle,-1,0,,,,,,,,,,,,,,,,repeat,no_choice,NA,,,Hi,,,,,,3,,,,,,,,high,6,0,6,0,1,,,,,,,,,
296257,2022-11-30_16h26.35.928,vts_reward_expectancy_bt,2022.2.4,Win32,64.9561546,Chrome,1920,1080,,,,,0,569,,,,,,,,,,,,,,,,,160,U,star,-1,0,,,,,,,,,,,,,,,,repeat,no_choice,NA,,,Hi,,,,,,3,,,,,,,,high,7,0,7,0,1,,,,,,,,,
296257,2022-11-30_16h26.35.928,vts_reward_expectancy_bt,2022.2.4,Win32,64.9561546,Chrome,1920,1080,,,,,0,569,,,,,,,,,,,,,,,,,139,H,star,-1,0,,,,,,,,,,,,,,,,repeat,no_choice,NA,,,Hi,,,,,,3,,,,,,,,high,8,0,8,0,1,,,,,,,,,
296257,2022-11-30_16h26.35.928,vts_reward_expectancy_bt,2022.2.4,Win32,64.9561546,Chrome,1920,1080,,,,,0,569,,,,,,,,,,,,,,,,,125,Y,triangle,-1,0,,,,,,,,,,,,,,,,repeat,no_choice,NA,,,Hi,,,,,,3,,,,,,,,high,9,0,9,0,1,,,,,,,,,
296257,2022-11-30_16h26.35.928,vts_reward_expectancy_bt,2022.2.4,Win32,64.9561546,Chrome,1920,1080,,,,,0,569,,,,,,,,,,,,,,,,,167,W,circle,-1,0,,,,,,,,,,,,,,,,repeat,no_choice,NA,,,Hi,,,,,,3,,,,,,,,high,10,0,10,0,1,,,,,,,,,
296257,2022-11-30_16h26.35.928,vts_reward_expectancy_bt,2022.2.4,Win32,64.9561546,Chrome,1920,1080,,,,,0,569,,,,,,,,,,,,,,,,,174,F,hexagon,-1,0,,,,,,,,,,,,,,,,repeat,no_choice,NA,,,Hi,,,,,,3,,,,,,,,high,11,0,11,0,1,,,,,,,,,
296257,2022-11-30_16h26.35.928,vts_reward_expectancy_bt,2022.2.4,Win32,64.9561546,Chrome,1920,1080,,,,,0,569,,,,,,,,,,,,,,,,,181,B,circle,-1,0,,,,,,,,,,,,,,,,repeat,no_choice,NA,,,Hi,,,,,,3,,,,,,,,high,12,0,12,0,1,,,,,,,,,
296257,2022-11-30_16h26.35.928,vts_reward_expectancy_bt,2022.2.4,Win32,64.9561546,Chrome,1920,1080,,,,,0,569,,,,,,,,,,,,,,,,,132,D,hexagon,-1,0,,,,,,,,,,,,,,,,repeat,no_choice,NA,,,Hi,,,,,,3,,,,,,,,high,13,0,13,0,1,,,,,,,,,
296257,2022-11-30_16h26.35.928,vts_reward_expectancy_bt,2022.2.4,Win32,64.9561546,Chrome,1920,1080,,,,,0,569,,,,,,,,,,,,,,,,,146,S,triangle,-1,0,,,,,,,,,,,,,,,,repeat,no_choice,NA,,,Hi,,,,,,3,,,,,,,,high,14,0,14,0,1,,,,,,,,,
296257,2022-11-30_16h26.35.928,vts_reward_expectancy_bt,2022.2.4,Win32,64.9561546,Chrome,1920,1080,,,,,0,569,,,,,,,,,,,,,,,,,160,U,star,-1,0,,,,,,,,,,,,,,,,repeat,no_choice,NA,,,Hi,,,,,,3,,,,,,,,high,15,0,15,0,1,,,,,,,,,
296257,2022-11-30_16h26.35.928,vts_reward_expectancy_bt,2022.2.4,Win32,64.9561546,Chrome,1920,1080,,,,,0,569,,,,,,,,,,,,,,,,,181,S,triangle,-1,0,,,,,,,,,,,,,,,,repeat,no_choice,NA,,,Hi,,,,,,3,,,,,,,,high,16,0,16,0,1,,,,,,,,,
296257,2022-11-30_16h26.35.928,vts_reward_expectancy_bt,2022.2.4,Win32,64.9561546,Chrome,1920,1080,,,,,0,569,,,,,,,,,,,,,,,,,125,H,hexagon,-1,0,,,,,,,,,,,,,,,,repeat,no_choice,NA,,,Hi,,,,,,3,,,,,,,,high,17,0,17,0,1,,,,,,,,,
296257,2022-11-30_16h26.35.928,vts_reward_expectancy_bt,2022.2.4,Win32,64.9561546,Chrome,1920,1080,,,,,0,569,,,,,,,,,,,,,,,,,146,Y,circle,-1,0,,,,,,,,,,,,,,,,repeat,no_choice,NA,,,Hi,,,,,,3,,,,,,,,high,18,0,18,0,1,,,,,,,,,
296257,2022-11-30_16h26.35.928,vts_reward_expectancy_bt,2022.2.4,Win32,64.9561546,Chrome,1920,1080,,,,,0,569,,,,,,,,,,,,,,,,,139,U,star,-1,0,,,,,,,,,,,,,,,,repeat,no_choice,NA,,,Hi,,,,,,3,,,,,,,,high,19,0,19,0,1,,,,,,,,,
296257,2022-11-30_16h26.35.928,vts_reward_expectancy_bt,2022.2.4,Win32,64.9561546,Chrome,1920,1080,,,,,0,569,,,,,,,,,,,,,,,,,167,D,star,-1,0,,,,,,,,,,,,,,,,repeat,no_choice,NA,,,Hi,,,,,,3,,,,,,,,high,20,0,20,0,1,,,,,,,,,
296257,2022-11-30_16h26.35.928,vts_reward_expectancy_bt,2022.2.4,Win32,64.9561546,Chrome,1920,1080,,,,,0,569,,,,,,,,,,,,,,,,,174,B,triangle,-1,0,,,,,,,,,,,,,,,,repeat,no_choice,NA,,,Hi,,,,,,3,,,,,,,,high,21,0,21,0,1,,,,,,,,,
296257,2022-11-30_16h26.35.928,vts_reward_expectancy_bt,2022.2.4,Win32,64.9561546,Chrome,1920,1080,,,,,0,569,,,,,,,,,,,,,,,,,132,W,circle,-1,0,,,,,,,,,,,,,,,,repeat,no_choice,NA,,,Hi,,,,,,3,,,,,,,,high,22,0,22,0,1,,,,,,,,,
296257,2022-11-30_16h26.35.928,vts_reward_expectancy_bt,2022.2.4,Win32,64.9561546,Chrome,1920,1080,,,,,0,569,,,,,,,,,,,,,,,,,160,F,hexagon,-1,0,,,,,,,,,,,,,,,,repeat,no_choice,NA,,,Hi,,,,,,3,,,,,,,,high,23,0,23,0,1,,,,,,,,,
296257,2022-11-30_16h26.35.928,vts_reward_expectancy_bt,2022.2.4,Win32,64.9561546,Chrome,1920,1080,,,,,0,569,,,,,,,,,,,,,,,,,160,U,circle,-1,0,,,,,,,,,,,,,,,,repeat,no_choice,NA,,,Hi,,,,,,3,,,,,,,,high,24,0,24,0,1,,,,,,,,,
296257,2022-11-30_16h26.35.928,vts_reward_expectancy_bt,2022.2.4,Win32,64.9561546,Chrome,1920,1080,,,,,0,569,,,,,,,,,,,,,,,,,132,H,star,-1,0,,,,,,,,,,,,,,,,repeat,no_choice,NA,,,Hi,,,,,,3,,,,,,,,high,25,0,25,0,1,,,,,,,,,
296257,2022-11-30_16h26.35.928,vts_reward_expectancy_bt,2022.2.4,Win32,64.9561546,Chrome,1920,1080,,,,,0,569,,,,,,,,,,,,,,,,,146,Y,triangle,-1,0,,,,,,,,,,,,,,,,repeat,no_choice,NA,,,Hi,,,,,,3,,,,,,,,high,26,0,26,0,1,,,,,,,,,
296257,2022-11-30_16h26.35.928,vts_reward_expectancy_bt,2022.2.4,Win32,64.9561546,Chrome,1920,1080,,,,,0,569,,,,,,,,,,,,,,,,,125,W,hexagon,-1,0,,,,,,,,,,,,,,,,repeat,no_choice,NA,,,Hi,,,,,,3,,,,,,,,high,27,0,27,0,1,,,,,,,,,
296257,2022-11-30_16h26.35.928,vts_reward_expectancy_bt,2022.2.4,Win32,64.9561546,Chrome,1920,1080,,,,,0,569,,,,,,,,,,,,,,,,,181,S,star,-1,0,,,,,,,,,,,,,,,,repeat,no_choice,NA,,,Hi,,,,,,3,,,,,,,,high,28,0,28,0,1,,,,,,,,,
296257,2022-11-30_16h26.35.928,vts_reward_expectancy_bt,2022.2.4,Win32,64.9561546,Chrome,1920,1080,,,,,0,569,,,,,,,,,,,,,,,,,174,D,circle,-1,0,,,,,,,,,,,,,,,,repeat,no_choice,NA,,,Hi,,,,,,3,,,,,,,,high,29,0,29,0,1,,,,,,,,,
296257,2022-11-30_16h26.35.928,vts_reward_expectancy_bt,2022.2.4,Win32,64.9561546,Chrome,1920,1080,,,,,0,569,,,,,,,,,,,,,,,,,139,B,triangle,-1,0,,,,,,,,,,,,,,,,repeat,no_choice,NA,,,Hi,,,,,,3,,,,,,,,high,30,0,30,0,1,,,,,,,,,
296257,2022-11-30_16h26.35.928,vts_reward_expectancy_bt,2022.2.4,Win32,64.9561546,Chrome,1920,1080,,,,,0,569,,,,,,,,,,,,,,,,,167,F,hexagon,-1,0,,,,,,,,,,,,,,,,repeat,no_choice,NA,,,Hi,,,,,,3,,,,,,,,high,31,0,31,0,1,,,,,,,,,
296257,2022-11-30_16h26.35.928,vts_reward_expectancy_bt,2022.2.4,Win32,64.9561546,Chrome,1920,1080,,,,,0,569,,,,,,,,,,,,,,,,,132,Y,hexagon,-1,0,,,,,,,,,,,,,,,,repeat,no_choice,NA,,,Hi,,,,,,4,,,,,,space,1.9197,high,0,0,0,0,1,,,,,,,,,
296257,2022-11-30_16h26.35.928,vts_reward_expectancy_bt,2022.2.4,Win32,64.9561546,Chrome,1920,1080,,,,,0,569,,,,,,,,,,,,,,,,,125,S,triangle,-1,0,,,,,,,,,,,,,,,,repeat,no_choice,NA,,,Hi,,,,,,4,,,,,,,,high,1,0,1,0,1,,,,,,,,,
296257,2022-11-30_16h26.35.928,vts_reward_expectancy_bt,2022.2.4,Win32,64.9561546,Chrome,1920,1080,,,,,0,569,,,,,,,,,,,,,,,,,139,F,circle,-1,0,,,,,,,,,,,,,,,,repeat,no_choice,NA,,,Hi,,,,,,4,,,,,,,,high,2,0,2,0,1,,,,,,,,,
296257,2022-11-30_16h26.35.928,vts_reward_expectancy_bt,2022.2.4,Win32,64.9561546,Chrome,1920,1080,,,,,0,569,,,,,,,,,,,,,,,,,181,W,star,-1,0,,,,,,,,,,,,,,,,repeat,no_choice,NA,,,Hi,,,,,,4,,,,,,,,high,3,0,3,0,1,,,,,,,,,
296257,2022-11-30_16h26.35.928,vts_reward_expectancy_bt,2022.2.4,Win32,64.9561546,Chrome,1920,1080,,,,,0,569,,,,,,,,,,,,,,,,,146,U,hexagon,-1,0,,,,,,,,,,,,,,,,repeat,no_choice,NA,,,Hi,,,,,,4,,,,,,,,high,4,0,4,0,1,,,,,,,,,
296257,2022-11-30_16h26.35.928,vts_reward_expectancy_bt,2022.2.4,Win32,64.9561546,Chrome,1920,1080,,,,,0,569,,,,,,,,,,,,,,,,,174,H,triangle,-1,0,,,,,,,,,,,,,,,,repeat,no_choice,NA,,,Hi,,,,,,4,,,,,,,,high,5,0,5,0,1,,,,,,,,,
296257,2022-11-30_16h26.35.928,vts_reward_expectancy_bt,2022.2.4,Win32,64.9561546,Chrome,1920,1080,,,,,0,569,,,,,,,,,,,,,,,,,160,D,circle,-1,0,,,,,,,,,,,,,,,,repeat,no_choice,NA,,,Hi,,,,,,4,,,,,,,,high,6,0,6,0,1,,,,,,,,,
296257,2022-11-30_16h26.35.928,vts_reward_expectancy_bt,2022.2.4,Win32,64.9561546,Chrome,1920,1080,,,,,0,569,,,,,,,,,,,,,,,,,167,B,star,-1,0,,,,,,,,,,,,,,,,repeat,no_choice,NA,,,Hi,,,,,,4,,,,,,,,high,7,0,7,0,1,,,,,,,,,
296257,2022-11-30_16h26.35.928,vts_reward_expectancy_bt,2022.2.4,Win32,64.9561546,Chrome,1920,1080,,,,,0,569,,,,,,,,,,,,,,,,,132,Y,triangle,-1,0,,,,,,,,,,,,,,,,repeat,no_choice,NA,,,Hi,,,,,,4,,,,,,,,high,8,0,8,0,1,,,,,,,,,
296257,2022-11-30_16h26.35.928,vts_reward_expectancy_bt,2022.2.4,Win32,64.9561546,Chrome,1920,1080,,,,,0,569,,,,,,,,,,,,,,,,,125,S,hexagon,-1,0,,,,,,,,,,,,,,,,repeat,no_choice,NA,,,Hi,,,,,,4,,,,,,,,high,9,0,9,0,1,,,,,,,,,
296257,2022-11-30_16h26.35.928,vts_reward_expectancy_bt,2022.2.4,Win32,64.9561546,Chrome,1920,1080,,,,,0,569,,,,,,,,,,,,,,,,,139,F,star,-1,0,,,,,,,,,,,,,,,,repeat,no_choice,NA,,,Hi,,,,,,4,,,,,,,,high,10,0,10,0,1,,,,,,,,,
296257,2022-11-30_16h26.35.928,vts_reward_expectancy_bt,2022.2.4,Win32,64.9561546,Chrome,1920,1080,,,,,0,569,,,,,,,,,,,,,,,,,181,W,circle,-1,0,,,,,,,,,,,,,,,,repeat,no_choice,NA,,,Hi,,,,,,4,,,,,,,,high,11,0,11,0,1,,,,,,,,,
296257,2022-11-30_16h26.35.928,vts_reward_expectancy_bt,2022.2.4,Win32,64.9561546,Chrome,1920,1080,,,,,0,569,,,,,,,,,,,,,,,,,146,U,circle,-1,0,,,,,,,,,,,,,,,,repeat,no_choice,NA,,,Hi,,,,,,4,,,,,,,,high,12,0,12,0,1,,,,,,,,,
296257,2022-11-30_16h26.35.928,vts_reward_expectancy_bt,2022.2.4,Win32,64.9561546,Chrome,1920,1080,,,,,0,569,,,,,,,,,,,,,,,,,174,H,star,-1,0,,,,,,,,,,,,,,,,repeat,no_choice,NA,,,Hi,,,,,,4,,,,,,,,high,13,0,13,0,1,,,,,,,,,
296257,2022-11-30_16h26.35.928,vts_reward_expectancy_bt,2022.2.4,Win32,64.9561546,Chrome,1920,1080,,,,,0,569,,,,,,,,,,,,,,,,,160,D,triangle,-1,0,,,,,,,,,,,,,,,,repeat,no_choice,NA,,,Hi,,,,,,4,,,,,,,,high,14,0,14,0,1,,,,,,,,,
296257,2022-11-30_16h26.35.928,vts_reward_expectancy_bt,2022.2.4,Win32,64.9561546,Chrome,1920,1080,,,,,0,569,,,,,,,,,,,,,,,,,167,B,hexagon,-1,0,,,,,,,,,,,,,,,,repeat,no_choice,NA,,,Hi,,,,,,4,,,,,,,,high,15,0,15,0,1,,,,,,,,,
296257,2022-11-30_16h26.35.928,vts_reward_expectancy_bt,2022.2.4,Win32,64.9561546,Chrome,1920,1080,,,,,0,569,,,,,,,,,,,,,,,,,167,U,hexagon,-1,0,,,,,,,,,,,,,,,,repeat,no_choice,NA,,,Hi,,,,,,4,,,,,,,,high,16,0,16,0,1,,,,,,,,,
296257,2022-11-30_16h26.35.928,vts_reward_expectancy_bt,2022.2.4,Win32,64.9561546,Chrome,1920,1080,,,,,0,569,,,,,,,,,,,,,,,,,174,D,circle,-1,0,,,,,,,,,,,,,,,,repeat,no_choice,NA,,,Hi,,,,,,4,,,,,,,,high,17,0,17,0,1,,,,,,,,,
296257,2022-11-30_16h26.35.928,vts_reward_expectancy_bt,2022.2.4,Win32,64.9561546,Chrome,1920,1080,,,,,0,569,,,,,,,,,,,,,,,,,132,S,star,-1,0,,,,,,,,,,,,,,,,repeat,no_choice,NA,,,Hi,,,,,,4,,,,,,,,high,18,0,18,0,1,,,,,,,,,
296257,2022-11-30_16h26.35.928,vts_reward_expectancy_bt,2022.2.4,Win32,64.9561546,Chrome,1920,1080,,,,,0,569,,,,,,,,,,,,,,,,,160,F,triangle,-1,0,,,,,,,,,,,,,,,,repeat,no_choice,NA,,,Hi,,,,,,4,,,,,,,,high,19,0,19,0,1,,,,,,,,,
296257,2022-11-30_16h26.35.928,vts_reward_expectancy_bt,2022.2.4,Win32,64.9561546,Chrome,1920,1080,,,,,0,569,,,,,,,,,,,,,,,,,146,W,triangle,-1,0,,,,,,,,,,,,,,,,repeat,no_choice,NA,,,Hi,,,,,,4,,,,,,,,high,20,0,20,0,1,,,,,,,,,
296257,2022-11-30_16h26.35.928,vts_reward_expectancy_bt,2022.2.4,Win32,64.9561546,Chrome,1920,1080,,,,,0,569,,,,,,,,,,,,,,,,,139,H,star,-1,0,,,,,,,,,,,,,,,,repeat,no_choice,NA,,,Hi,,,,,,4,,,,,,,,high,21,0,21,0,1,,,,,,,,,
296257,2022-11-30_16h26.35.928,vts_reward_expectancy_bt,2022.2.4,Win32,64.9561546,Chrome,1920,1080,,,,,0,569,,,,,,,,,,,,,,,,,125,B,circle,-1,0,,,,,,,,,,,,,,,,repeat,no_choice,NA,,,Hi,,,,,,4,,,,,,,,high,22,0,22,0,1,,,,,,,,,
296257,2022-11-30_16h26.35.928,vts_reward_expectancy_bt,2022.2.4,Win32,64.9561546,Chrome,1920,1080,,,,,0,569,,,,,,,,,,,,,,,,,181,Y,hexagon,-1,0,,,,,,,,,,,,,,,,repeat,no_choice,NA,,,Hi,,,,,,4,,,,,,,,high,23,0,23,0,1,,,,,,,,,
296257,2022-11-30_16h26.35.928,vts_reward_expectancy_bt,2022.2.4,Win32,64.9561546,Chrome,1920,1080,,,,,0,569,,,,,,,,,,,,,,,,,174,F,hexagon,-1,0,,,,,,,,,,,,,,,,repeat,no_choice,NA,,,Hi,,,,,,4,,,,,,,,high,24,0,24,0,1,,,,,,,,,
296257,2022-11-30_16h26.35.928,vts_reward_expectancy_bt,2022.2.4,Win32,64.9561546,Chrome,1920,1080,,,,,0,569,,,,,,,,,,,,,,,,,146,H,circle,-1,0,,,,,,,,,,,,,,,,repeat,no_choice,NA,,,Hi,,,,,,4,,,,,,,,high,25,0,25,0,1,,,,,,,,,
296257,2022-11-30_16h26.35.928,vts_reward_expectancy_bt,2022.2.4,Win32,64.9561546,Chrome,1920,1080,,,,,0,569,,,,,,,,,,,,,,,,,181,Y,star,-1,0,,,,,,,,,,,,,,,,repeat,no_choice,NA,,,Hi,,,,,,4,,,,,,,,high,26,0,26,0,1,,,,,,,,,
296257,2022-11-30_16h26.35.928,vts_reward_expectancy_bt,2022.2.4,Win32,64.9561546,Chrome,1920,1080,,,,,0,569,,,,,,,,,,,,,,,,,125,D,triangle,-1,0,,,,,,,,,,,,,,,,repeat,no_choice,NA,,,Hi,,,,,,4,,,,,,,,high,27,0,27,0,1,,,,,,,,,
296257,2022-11-30_16h26.35.928,vts_reward_expectancy_bt,2022.2.4,Win32,64.9561546,Chrome,1920,1080,,,,,0,569,,,,,,,,,,,,,,,,,139,S,hexagon,-1,0,,,,,,,,,,,,,,,,repeat,no_choice,NA,,,Hi,,,,,,4,,,,,,,,high,28,0,28,0,1,,,,,,,,,
296257,2022-11-30_16h26.35.928,vts_reward_expectancy_bt,2022.2.4,Win32,64.9561546,Chrome,1920,1080,,,,,0,569,,,,,,,,,,,,,,,,,167,B,triangle,-1,0,,,,,,,,,,,,,,,,repeat,no_choice,NA,,,Hi,,,,,,4,,,,,,,,high,29,0,29,0,1,,,,,,,,,
296257,2022-11-30_16h26.35.928,vts_reward_expectancy_bt,2022.2.4,Win32,64.9561546,Chrome,1920,1080,,,,,0,569,,,,,,,,,,,,,,,,,160,W,circle,-1,0,,,,,,,,,,,,,,,,repeat,no_choice,NA,,,Hi,,,,,,4,,,,,,,,high,30,0,30,0,1,,,,,,,,,
296257,2022-11-30_16h26.35.928,vts_reward_expectancy_bt,2022.2.4,Win32,64.9561546,Chrome,1920,1080,,,,,0,569,,,,,,,,,,,,,,,,,132,U,star,-1,0,,,,,,,,,,,,,,,,repeat,no_choice,NA,,,Hi,,,,,,4,,,,,,,,high,31,0,31,0,1,,,,,,,,,
296257,2022-11-30_16h26.35.928,vts_reward_expectancy_bt,2022.2.4,Win32,64.9561546,Chrome,1920,1080,,,,,0,569,,,,,,,,,,,,,,,,,181,H,hexagon,-1,0,,,,,,,,,,,,,,,,repeat,no_choice,NA,,,Hi,,,,,,5,,,,,,space,0.2331,high,0,0,0,0,1,,,,,,,,,
296257,2022-11-30_16h26.35.928,vts_reward_expectancy_bt,2022.2.4,Win32,64.9561546,Chrome,1920,1080,,,,,0,569,,,,,,,,,,,,,,,,,160,W,star,-1,0,,,,,,,,,,,,,,,,repeat,no_choice,NA,,,Hi,,,,,,5,,,,,,,,high,1,0,1,0,1,,,,,,,,,
296257,2022-11-30_16h26.35.928,vts_reward_expectancy_bt,2022.2.4,Win32,64.9561546,Chrome,1920,1080,,,,,0,569,,,,,,,,,,,,,,,,,139,Y,triangle,-1,0,,,,,,,,,,,,,,,,repeat,no_choice,NA,,,Hi,,,,,,5,,,,,,,,high,2,0,2,0,1,,,,,,,,,
296257,2022-11-30_16h26.35.928,vts_reward_expectancy_bt,2022.2.4,Win32,64.9561546,Chrome,1920,1080,,,,,0,569,,,,,,,,,,,,,,,,,132,F,circle,-1,0,,,,,,,,,,,,,,,,repeat,no_choice,NA,,,Hi,,,,,,5,,,,,,,,high,3,0,3,0,1,,,,,,,,,
