participant,date,expName,psychopyVersion,OS,frameRate,browser,xResolution,yResolution,key_resp.keys,key_resp.rt,training_resp.keys,training_resp.rt,points_trial,points_cumul,trainBlock,training.thisRepN,training.thisTrialN,training.thisN,training.thisIndex,training.ran,LTriangleOpac,LCircleOpac,LHexagonOpac,LStarOpac,RTriangleOpac,RCircleOpac,RHexagonOpac,RStarOpac,LShape_ID,RShape_ID,curr_topStim,curr_bottStim,curr_shape,acc,E1,target_resp_prac1.keys,target_resp_prac1.rt,pracBlock,task1_prac_trials.thisRepN,task1_prac_trials.thisTrialN,task1_prac_trials.thisN,task1_prac_trials.thisIndex,task1_prac_trials.ran,target_resp_prac2.keys,target_resp_prac2.rt,task2_praac_trials.thisRepN,task2_praac_trials.thisTrialN,task2_praac_trials.thisN,task2_praac_trials.thisIndex,task2_praac_trials.ran,alt,task,condition,target_resp.keys,target_resp.rt,rewCond,vts_practice_trials.thisRepN,vts_practice_trials.thisTrialN,vts_practice_trials.thisN,vts_practice_trials.thisIndex,vts_practice_trials.ran,blockNum,trials_norew.thisRepN,trials_norew.thisTrialN,trials_norew.thisN,trials_norew.thisIndex,trials_norew.ran,key_resp_2.keys,key_resp_2.rt,rewExpectancy,trials_rew.thisRepN,trials_rew.thisTrialN,trials_rew.thisN,trials_rew.thisIndex,trials_rew.ran,Q1,Q2,Q2_text,Q3,Q4,Q5_text,Q5,xRes,yRes
296362,2022-11-29_16h07.32.391,vts_reward_expectancy_bt,2022.2.4,Win32,61.01281269,Chrome,1366,768,,,,,,,,,,,,,,,,,,,,,,,,,,,,,,,,,,,,,,,,,,,,,,,,,,,,,,,,,,,,,,,,,,,,,,,,,,,,
296362,2022-11-29_16h07.32.391,vts_reward_expectancy_bt,2022.2.4,Win32,61.01281269,Chrome,1366,768,space,20.8749,,,,,,,,,,,,,,,,,,,,,,,,,,,,,,,,,,,,,,,,,,,,,,,,,,,,,,,,,,,,,,,,,,,,,,,,,,
296362,2022-11-29_16h07.32.391,vts_reward_expectancy_bt,2022.2.4,Win32,61.01281269,Chrome,1366,768,,,,,,,,,,,,,,,,,,,,,,,,,,,,,,,,,,,,,,,,,,,,,,,,,,,,,,,,,,,,,,,,,,,,,,,,,,,,
296362,2022-11-29_16h07.32.391,vts_reward_expectancy_bt,2022.2.4,Win32,61.01281269,Chrome,1366,768,,,a,1.1099,10,10,0,0,0,0,11,1,0,0,0,1,0,0,1,0,star,hexagon,,,,,,,,,,,,,,,,,,,,,,,,,,,,,,,,,,,,,,,,,,,,,,,,,,,,,,
296362,2022-11-29_16h07.32.391,vts_reward_expectancy_bt,2022.2.4,Win32,61.01281269,Chrome,1366,768,,,a,1.0612,1,11,0,0,1,1,0,1,1,0,0,0,0,1,0,0,triangle,circle,,,,,,,,,,,,,,,,,,,,,,,,,,,,,,,,,,,,,,,,,,,,,,,,,,,,,,
296362,2022-11-29_16h07.32.391,vts_reward_expectancy_bt,2022.2.4,Win32,61.01281269,Chrome,1366,768,,,l,1.0625,10,21,0,0,2,2,8,1,0,0,1,0,0,0,0,1,hexagon,star,,,,,,,,,,,,,,,,,,,,,,,,,,,,,,,,,,,,,,,,,,,,,,,,,,,,,,
296362,2022-11-29_16h07.32.391,vts_reward_expectancy_bt,2022.2.4,Win32,61.01281269,Chrome,1366,768,,,l,1.7962,10,31,0,0,3,3,3,1,0,1,0,0,1,0,0,0,circle,triangle,,,,,,,,,,,,,,,,,,,,,,,,,,,,,,,,,,,,,,,,,,,,,,,,,,,,,,
296362,2022-11-29_16h07.32.391,vts_reward_expectancy_bt,2022.2.4,Win32,61.01281269,Chrome,1366,768,,,a,0.8013,1,32,0,0,4,4,1,1,1,0,0,0,0,0,1,0,triangle,hexagon,,,,,,,,,,,,,,,,,,,,,,,,,,,,,,,,,,,,,,,,,,,,,,,,,,,,,,
296362,2022-11-29_16h07.32.391,vts_reward_expectancy_bt,2022.2.4,Win32,61.01281269,Chrome,1366,768,,,l,0.5518,1,33,0,0,5,5,4,1,0,1,0,0,0,0,1,0,circle,hexagon,,,,,,,,,,,,,,,,,,,,,,,,,,,,,,,,,,,,,,,,,,,,,,,,,,,,,,
296362,2022-11-29_16h07.32.391,vts_reward_expectancy_bt,2022.2.4,Win32,61.01281269,Chrome,1366,768,,,l,0.4215,1,34,0,0,6,6,2,1,1,0,0,0,0,0,0,1,triangle,star,,,,,,,,,,,,,,,,,,,,,,,,,,,,,,,,,,,,,,,,,,,,,,,,,,,,,,
296362,2022-11-29_16h07.32.391,vts_reward_expectancy_bt,2022.2.4,Win32,61.01281269,Chrome,1366,768,,,a,0.5021,10,44,0,0,7,7,9,1,0,0,0,1,1,0,0,0,star,triangle,,,,,,,,,,,,,,,,,,,,,,,,,,,,,,,,,,,,,,,,,,,,,,,,,,,,,,
296362,2022-11-29_16h07.32.391,vts_reward_expectancy_bt,2022.2.4,Win32,61.01281269,Chrome,1366,768,,,a,1.6071,1,45,0,0,8,8,6,1,0,0,1,0,1,0,0,0,hexagon,triangle,,,,,,,,,,,,,,,,,,,,,,,,,,,,,,,,,,,,,,,,,,,,,,,,,,,,,,
296362,2022-11-29_16h07.32.391,vts_reward_expectancy_bt,2022.2.4,Win32,61.01281269,Chrome,1366,768,,,a,0.5466,1,46,0,0,9,9,10,1,0,0,0,1,0,1,0,0,star ,circle,,,,,,,,,,,,,,,,,,,,,,,,,,,,,,,,,,,,,,,,,,,,,,,,,,,,,,
296362,2022-11-29_16h07.32.391,vts_reward_expectancy_bt,2022.2.4,Win32,61.01281269,Chrome,1366,768,,,a,1.0392,1,47,0,0,10,10,7,1,0,0,1,0,0,1,0,0,hexagon,circle,,,,,,,,,,,,,,,,,,,,,,,,,,,,,,,,,,,,,,,,,,,,,,,,,,,,,,
296362,2022-11-29_16h07.32.391,vts_reward_expectancy_bt,2022.2.4,Win32,61.01281269,Chrome,1366,768,,,a,0.6797,10,57,0,0,11,11,5,1,0,1,0,0,0,0,0,1,circle,star,,,,,,,,,,,,,,,,,,,,,,,,,,,,,,,,,,,,,,,,,,,,,,,,,,,,,,
296362,2022-11-29_16h07.32.391,vts_reward_expectancy_bt,2022.2.4,Win32,61.01281269,Chrome,1366,768,,,a,0.8634,1,58,0,1,0,12,11,1,0,0,0,1,0,0,1,0,star,hexagon,,,,,,,,,,,,,,,,,,,,,,,,,,,,,,,,,,,,,,,,,,,,,,,,,,,,,,
296362,2022-11-29_16h07.32.391,vts_reward_expectancy_bt,2022.2.4,Win32,61.01281269,Chrome,1366,768,,,l,0.6369,1,59,0,1,1,13,0,1,1,0,0,0,0,1,0,0,triangle,circle,,,,,,,,,,,,,,,,,,,,,,,,,,,,,,,,,,,,,,,,,,,,,,,,,,,,,,
296362,2022-11-29_16h07.32.391,vts_reward_expectancy_bt,2022.2.4,Win32,61.01281269,Chrome,1366,768,,,l,0.8156,1,60,0,1,2,14,7,1,0,0,1,0,0,1,0,0,hexagon,circle,,,,,,,,,,,,,,,,,,,,,,,,,,,,,,,,,,,,,,,,,,,,,,,,,,,,,,
296362,2022-11-29_16h07.32.391,vts_reward_expectancy_bt,2022.2.4,Win32,61.01281269,Chrome,1366,768,,,l,1.1553,10,70,0,1,3,15,6,1,0,0,1,0,1,0,0,0,hexagon,triangle,,,,,,,,,,,,,,,,,,,,,,,,,,,,,,,,,,,,,,,,,,,,,,,,,,,,,,
296362,2022-11-29_16h07.32.391,vts_reward_expectancy_bt,2022.2.4,Win32,61.01281269,Chrome,1366,768,,,a,0.5103,10,80,0,1,4,16,10,1,0,0,0,1,0,1,0,0,star ,circle,,,,,,,,,,,,,,,,,,,,,,,,,,,,,,,,,,,,,,,,,,,,,,,,,,,,,,
296362,2022-11-29_16h07.32.391,vts_reward_expectancy_bt,2022.2.4,Win32,61.01281269,Chrome,1366,768,,,l,0.608,1,81,0,1,5,17,8,1,0,0,1,0,0,0,0,1,hexagon,star,,,,,,,,,,,,,,,,,,,,,,,,,,,,,,,,,,,,,,,,,,,,,,,,,,,,,,
296362,2022-11-29_16h07.32.391,vts_reward_expectancy_bt,2022.2.4,Win32,61.01281269,Chrome,1366,768,,,a,0.9404,1,82,0,1,6,18,4,1,0,1,0,0,0,0,1,0,circle,hexagon,,,,,,,,,,,,,,,,,,,,,,,,,,,,,,,,,,,,,,,,,,,,,,,,,,,,,,
296362,2022-11-29_16h07.32.391,vts_reward_expectancy_bt,2022.2.4,Win32,61.01281269,Chrome,1366,768,,,a,0.5744,10,92,0,1,7,19,9,1,0,0,0,1,1,0,0,0,star,triangle,,,,,,,,,,,,,,,,,,,,,,,,,,,,,,,,,,,,,,,,,,,,,,,,,,,,,,
296362,2022-11-29_16h07.32.391,vts_reward_expectancy_bt,2022.2.4,Win32,61.01281269,Chrome,1366,768,,,a,1.0835,10,102,0,1,8,20,1,1,1,0,0,0,0,0,1,0,triangle,hexagon,,,,,,,,,,,,,,,,,,,,,,,,,,,,,,,,,,,,,,,,,,,,,,,,,,,,,,
296362,2022-11-29_16h07.32.391,vts_reward_expectancy_bt,2022.2.4,Win32,61.01281269,Chrome,1366,768,,,l,0.4967,10,112,0,1,9,21,2,1,1,0,0,0,0,0,0,1,triangle,star,,,,,,,,,,,,,,,,,,,,,,,,,,,,,,,,,,,,,,,,,,,,,,,,,,,,,,
296362,2022-11-29_16h07.32.391,vts_reward_expectancy_bt,2022.2.4,Win32,61.01281269,Chrome,1366,768,,,l,0.5496,10,122,0,1,10,22,3,1,0,1,0,0,1,0,0,0,circle,triangle,,,,,,,,,,,,,,,,,,,,,,,,,,,,,,,,,,,,,,,,,,,,,,,,,,,,,,
296362,2022-11-29_16h07.32.391,vts_reward_expectancy_bt,2022.2.4,Win32,61.01281269,Chrome,1366,768,,,l,0.5499,10,132,0,1,11,23,5,1,0,1,0,0,0,0,0,1,circle,star,,,,,,,,,,,,,,,,,,,,,,,,,,,,,,,,,,,,,,,,,,,,,,,,,,,,,,
296362,2022-11-29_16h07.32.391,vts_reward_expectancy_bt,2022.2.4,Win32,61.01281269,Chrome,1366,768,,,a,0.4417,10,142,0,2,0,24,11,1,0,0,0,1,0,0,1,0,star,hexagon,,,,,,,,,,,,,,,,,,,,,,,,,,,,,,,,,,,,,,,,,,,,,,,,,,,,,,
296362,2022-11-29_16h07.32.391,vts_reward_expectancy_bt,2022.2.4,Win32,61.01281269,Chrome,1366,768,,,a,0.4336,10,152,0,2,1,25,10,1,0,0,0,1,0,1,0,0,star ,circle,,,,,,,,,,,,,,,,,,,,,,,,,,,,,,,,,,,,,,,,,,,,,,,,,,,,,,
296362,2022-11-29_16h07.32.391,vts_reward_expectancy_bt,2022.2.4,Win32,61.01281269,Chrome,1366,768,,,l,0.343,10,162,0,2,2,26,5,1,0,1,0,0,0,0,0,1,circle,star,,,,,,,,,,,,,,,,,,,,,,,,,,,,,,,,,,,,,,,,,,,,,,,,,,,,,,
296362,2022-11-29_16h07.32.391,vts_reward_expectancy_bt,2022.2.4,Win32,61.01281269,Chrome,1366,768,,,l,0.3669,1,163,0,2,3,27,2,1,1,0,0,0,0,0,0,1,triangle,star,,,,,,,,,,,,,,,,,,,,,,,,,,,,,,,,,,,,,,,,,,,,,,,,,,,,,,
296362,2022-11-29_16h07.32.391,vts_reward_expectancy_bt,2022.2.4,Win32,61.01281269,Chrome,1366,768,,,l,0.8652,1,164,0,2,4,28,6,1,0,0,1,0,1,0,0,0,hexagon,triangle,,,,,,,,,,,,,,,,,,,,,,,,,,,,,,,,,,,,,,,,,,,,,,,,,,,,,,
296362,2022-11-29_16h07.32.391,vts_reward_expectancy_bt,2022.2.4,Win32,61.01281269,Chrome,1366,768,,,a,0.656,10,174,0,2,5,29,9,1,0,0,0,1,1,0,0,0,star,triangle,,,,,,,,,,,,,,,,,,,,,,,,,,,,,,,,,,,,,,,,,,,,,,,,,,,,,,
296362,2022-11-29_16h07.32.391,vts_reward_expectancy_bt,2022.2.4,Win32,61.01281269,Chrome,1366,768,,,l,0.8044,1,175,0,2,6,30,4,1,0,1,0,0,0,0,1,0,circle,hexagon,,,,,,,,,,,,,,,,,,,,,,,,,,,,,,,,,,,,,,,,,,,,,,,,,,,,,,
296362,2022-11-29_16h07.32.391,vts_reward_expectancy_bt,2022.2.4,Win32,61.01281269,Chrome,1366,768,,,l,1.0112,10,185,0,2,7,31,3,1,0,1,0,0,1,0,0,0,circle,triangle,,,,,,,,,,,,,,,,,,,,,,,,,,,,,,,,,,,,,,,,,,,,,,,,,,,,,,
296362,2022-11-29_16h07.32.391,vts_reward_expectancy_bt,2022.2.4,Win32,61.01281269,Chrome,1366,768,,,a,0.4176,10,195,0,2,8,32,0,1,1,0,0,0,0,1,0,0,triangle,circle,,,,,,,,,,,,,,,,,,,,,,,,,,,,,,,,,,,,,,,,,,,,,,,,,,,,,,
296362,2022-11-29_16h07.32.391,vts_reward_expectancy_bt,2022.2.4,Win32,61.01281269,Chrome,1366,768,,,l,1.2333,10,205,0,2,9,33,7,1,0,0,1,0,0,1,0,0,hexagon,circle,,,,,,,,,,,,,,,,,,,,,,,,,,,,,,,,,,,,,,,,,,,,,,,,,,,,,,
296362,2022-11-29_16h07.32.391,vts_reward_expectancy_bt,2022.2.4,Win32,61.01281269,Chrome,1366,768,,,l,0.7089,1,206,0,2,10,34,8,1,0,0,1,0,0,0,0,1,hexagon,star,,,,,,,,,,,,,,,,,,,,,,,,,,,,,,,,,,,,,,,,,,,,,,,,,,,,,,
296362,2022-11-29_16h07.32.391,vts_reward_expectancy_bt,2022.2.4,Win32,61.01281269,Chrome,1366,768,,,l,0.5516,1,207,0,2,11,35,1,1,1,0,0,0,0,0,1,0,triangle,hexagon,,,,,,,,,,,,,,,,,,,,,,,,,,,,,,,,,,,,,,,,,,,,,,,,,,,,,,
296362,2022-11-29_16h07.32.391,vts_reward_expectancy_bt,2022.2.4,Win32,61.01281269,Chrome,1366,768,,,l,1.554,10,217,1,0,0,0,7,1,0,0,1,0,0,1,0,0,hexagon,circle,,,,,,,,,,,,,,,,,,,,,,,,,,,,,,,,,,,,,,,,,,,,,,,,,,,,,,
296362,2022-11-29_16h07.32.391,vts_reward_expectancy_bt,2022.2.4,Win32,61.01281269,Chrome,1366,768,,,a,0.4318,10,227,1,0,1,1,3,1,0,1,0,0,1,0,0,0,circle,triangle,,,,,,,,,,,,,,,,,,,,,,,,,,,,,,,,,,,,,,,,,,,,,,,,,,,,,,
296362,2022-11-29_16h07.32.391,vts_reward_expectancy_bt,2022.2.4,Win32,61.01281269,Chrome,1366,768,,,l,0.6364,10,237,1,0,2,2,8,1,0,0,1,0,0,0,0,1,hexagon,star,,,,,,,,,,,,,,,,,,,,,,,,,,,,,,,,,,,,,,,,,,,,,,,,,,,,,,
296362,2022-11-29_16h07.32.391,vts_reward_expectancy_bt,2022.2.4,Win32,61.01281269,Chrome,1366,768,,,a,1.0035,10,247,1,0,3,3,5,1,0,1,0,0,0,0,0,1,circle,star,,,,,,,,,,,,,,,,,,,,,,,,,,,,,,,,,,,,,,,,,,,,,,,,,,,,,,
296362,2022-11-29_16h07.32.391,vts_reward_expectancy_bt,2022.2.4,Win32,61.01281269,Chrome,1366,768,,,l,0.4378,10,257,1,0,4,4,0,1,1,0,0,0,0,1,0,0,triangle,circle,,,,,,,,,,,,,,,,,,,,,,,,,,,,,,,,,,,,,,,,,,,,,,,,,,,,,,
296362,2022-11-29_16h07.32.391,vts_reward_expectancy_bt,2022.2.4,Win32,61.01281269,Chrome,1366,768,,,l,0.6379,10,267,1,0,5,5,2,1,1,0,0,0,0,0,0,1,triangle,star,,,,,,,,,,,,,,,,,,,,,,,,,,,,,,,,,,,,,,,,,,,,,,,,,,,,,,
296362,2022-11-29_16h07.32.391,vts_reward_expectancy_bt,2022.2.4,Win32,61.01281269,Chrome,1366,768,,,l,0.3984,10,277,1,0,6,6,10,1,0,0,0,1,0,1,0,0,star ,circle,,,,,,,,,,,,,,,,,,,,,,,,,,,,,,,,,,,,,,,,,,,,,,,,,,,,,,
296362,2022-11-29_16h07.32.391,vts_reward_expectancy_bt,2022.2.4,Win32,61.01281269,Chrome,1366,768,,,a,0.5584,10,287,1,0,7,7,9,1,0,0,0,1,1,0,0,0,star,triangle,,,,,,,,,,,,,,,,,,,,,,,,,,,,,,,,,,,,,,,,,,,,,,,,,,,,,,
296362,2022-11-29_16h07.32.391,vts_reward_expectancy_bt,2022.2.4,Win32,61.01281269,Chrome,1366,768,,,a,0.563,1,288,1,0,8,8,4,1,0,1,0,0,0,0,1,0,circle,hexagon,,,,,,,,,,,,,,,,,,,,,,,,,,,,,,,,,,,,,,,,,,,,,,,,,,,,,,
296362,2022-11-29_16h07.32.391,vts_reward_expectancy_bt,2022.2.4,Win32,61.01281269,Chrome,1366,768,,,l,0.9582,1,289,1,0,9,9,6,1,0,0,1,0,1,0,0,0,hexagon,triangle,,,,,,,,,,,,,,,,,,,,,,,,,,,,,,,,,,,,,,,,,,,,,,,,,,,,,,
296362,2022-11-29_16h07.32.391,vts_reward_expectancy_bt,2022.2.4,Win32,61.01281269,Chrome,1366,768,,,a,0.6497,10,299,1,0,10,10,11,1,0,0,0,1,0,0,1,0,star,hexagon,,,,,,,,,,,,,,,,,,,,,,,,,,,,,,,,,,,,,,,,,,,,,,,,,,,,,,
296362,2022-11-29_16h07.32.391,vts_reward_expectancy_bt,2022.2.4,Win32,61.01281269,Chrome,1366,768,,,a,1.1688,1,300,1,0,11,11,1,1,1,0,0,0,0,0,1,0,triangle,hexagon,,,,,,,,,,,,,,,,,,,,,,,,,,,,,,,,,,,,,,,,,,,,,,,,,,,,,,
296362,2022-11-29_16h07.32.391,vts_reward_expectancy_bt,2022.2.4,Win32,61.01281269,Chrome,1366,768,,,a,1.4078,1,301,1,1,0,12,6,1,0,0,1,0,1,0,0,0,hexagon,triangle,,,,,,,,,,,,,,,,,,,,,,,,,,,,,,,,,,,,,,,,,,,,,,,,,,,,,,
296362,2022-11-29_16h07.32.391,vts_reward_expectancy_bt,2022.2.4,Win32,61.01281269,Chrome,1366,768,,,l,0.8653,1,302,1,1,1,13,0,1,1,0,0,0,0,1,0,0,triangle,circle,,,,,,,,,,,,,,,,,,,,,,,,,,,,,,,,,,,,,,,,,,,,,,,,,,,,,,
296362,2022-11-29_16h07.32.391,vts_reward_expectancy_bt,2022.2.4,Win32,61.01281269,Chrome,1366,768,,,a,0.9806,10,312,1,1,2,14,1,1,1,0,0,0,0,0,1,0,triangle,hexagon,,,,,,,,,,,,,,,,,,,,,,,,,,,,,,,,,,,,,,,,,,,,,,,,,,,,,,
296362,2022-11-29_16h07.32.391,vts_reward_expectancy_bt,2022.2.4,Win32,61.01281269,Chrome,1366,768,,,l,0.5654,10,322,1,1,3,15,7,1,0,0,1,0,0,1,0,0,hexagon,circle,,,,,,,,,,,,,,,,,,,,,,,,,,,,,,,,,,,,,,,,,,,,,,,,,,,,,,
296362,2022-11-29_16h07.32.391,vts_reward_expectancy_bt,2022.2.4,Win32,61.01281269,Chrome,1366,768,,,a,0.5572,10,332,1,1,4,16,10,1,0,0,0,1,0,1,0,0,star ,circle,,,,,,,,,,,,,,,,,,,,,,,,,,,,,,,,,,,,,,,,,,,,,,,,,,,,,,
296362,2022-11-29_16h07.32.391,vts_reward_expectancy_bt,2022.2.4,Win32,61.01281269,Chrome,1366,768,,,a,0.8477,1,333,1,1,5,17,4,1,0,1,0,0,0,0,1,0,circle,hexagon,,,,,,,,,,,,,,,,,,,,,,,,,,,,,,,,,,,,,,,,,,,,,,,,,,,,,,
296362,2022-11-29_16h07.32.391,vts_reward_expectancy_bt,2022.2.4,Win32,61.01281269,Chrome,1366,768,,,a,1.1478,10,343,1,1,6,18,3,1,0,1,0,0,1,0,0,0,circle,triangle,,,,,,,,,,,,,,,,,,,,,,,,,,,,,,,,,,,,,,,,,,,,,,,,,,,,,,
296362,2022-11-29_16h07.32.391,vts_reward_expectancy_bt,2022.2.4,Win32,61.01281269,Chrome,1366,768,,,a,1.0236,1,344,1,1,7,19,5,1,0,1,0,0,0,0,0,1,circle,star,,,,,,,,,,,,,,,,,,,,,,,,,,,,,,,,,,,,,,,,,,,,,,,,,,,,,,
296362,2022-11-29_16h07.32.391,vts_reward_expectancy_bt,2022.2.4,Win32,61.01281269,Chrome,1366,768,,,l,0.6645,1,345,1,1,8,20,8,1,0,0,1,0,0,0,0,1,hexagon,star,,,,,,,,,,,,,,,,,,,,,,,,,,,,,,,,,,,,,,,,,,,,,,,,,,,,,,
296362,2022-11-29_16h07.32.391,vts_reward_expectancy_bt,2022.2.4,Win32,61.01281269,Chrome,1366,768,,,a,0.5495,1,346,1,1,9,21,9,1,0,0,0,1,1,0,0,0,star,triangle,,,,,,,,,,,,,,,,,,,,,,,,,,,,,,,,,,,,,,,,,,,,,,,,,,,,,,
296362,2022-11-29_16h07.32.391,vts_reward_expectancy_bt,2022.2.4,Win32,61.01281269,Chrome,1366,768,,,l,0.5508,1,347,1,1,10,22,2,1,1,0,0,0,0,0,0,1,triangle,star,,,,,,,,,,,,,,,,,,,,,,,,,,,,,,,,,,,,,,,,,,,,,,,,,,,,,,
296362,2022-11-29_16h07.32.391,vts_reward_expectancy_bt,2022.2.4,Win32,61.01281269,Chrome,1366,768,,,a,0.6049,1,348,1,1,11,23,11,1,0,0,0,1,0,0,1,0,star,hexagon,,,,,,,,,,,,,,,,,,,,,,,,,,,,,,,,,,,,,,,,,,,,,,,,,,,,,,
296362,2022-11-29_16h07.32.391,vts_reward_expectancy_bt,2022.2.4,Win32,61.01281269,Chrome,1366,768,,,a,0.9995,10,358,1,2,0,24,1,1,1,0,0,0,0,0,1,0,triangle,hexagon,,,,,,,,,,,,,,,,,,,,,,,,,,,,,,,,,,,,,,,,,,,,,,,,,,,,,,
296362,2022-11-29_16h07.32.391,vts_reward_expectancy_bt,2022.2.4,Win32,61.01281269,Chrome,1366,768,,,l,0.5322,10,368,1,2,1,25,8,1,0,0,1,0,0,0,0,1,hexagon,star,,,,,,,,,,,,,,,,,,,,,,,,,,,,,,,,,,,,,,,,,,,,,,,,,,,,,,
296362,2022-11-29_16h07.32.391,vts_reward_expectancy_bt,2022.2.4,Win32,61.01281269,Chrome,1366,768,,,l,0.5093,1,369,1,2,2,26,0,1,1,0,0,0,0,1,0,0,triangle,circle,,,,,,,,,,,,,,,,,,,,,,,,,,,,,,,,,,,,,,,,,,,,,,,,,,,,,,
296362,2022-11-29_16h07.32.391,vts_reward_expectancy_bt,2022.2.4,Win32,61.01281269,Chrome,1366,768,,,l,0.5839,1,370,1,2,3,27,5,1,0,1,0,0,0,0,0,1,circle,star,,,,,,,,,,,,,,,,,,,,,,,,,,,,,,,,,,,,,,,,,,,,,,,,,,,,,,
296362,2022-11-29_16h07.32.391,vts_reward_expectancy_bt,2022.2.4,Win32,61.01281269,Chrome,1366,768,,,l,0.7804,10,380,1,2,4,28,10,1,0,0,0,1,0,1,0,0,star ,circle,,,,,,,,,,,,,,,,,,,,,,,,,,,,,,,,,,,,,,,,,,,,,,,,,,,,,,
296362,2022-11-29_16h07.32.391,vts_reward_expectancy_bt,2022.2.4,Win32,61.01281269,Chrome,1366,768,,,l,0.7566,10,390,1,2,5,29,6,1,0,0,1,0,1,0,0,0,hexagon,triangle,,,,,,,,,,,,,,,,,,,,,,,,,,,,,,,,,,,,,,,,,,,,,,,,,,,,,,
296362,2022-11-29_16h07.32.391,vts_reward_expectancy_bt,2022.2.4,Win32,61.01281269,Chrome,1366,768,,,a,0.4644,10,400,1,2,6,30,9,1,0,0,0,1,1,0,0,0,star,triangle,,,,,,,,,,,,,,,,,,,,,,,,,,,,,,,,,,,,,,,,,,,,,,,,,,,,,,
296362,2022-11-29_16h07.32.391,vts_reward_expectancy_bt,2022.2.4,Win32,61.01281269,Chrome,1366,768,,,l,0.5894,1,401,1,2,7,31,3,1,0,1,0,0,1,0,0,0,circle,triangle,,,,,,,,,,,,,,,,,,,,,,,,,,,,,,,,,,,,,,,,,,,,,,,,,,,,,,
296362,2022-11-29_16h07.32.391,vts_reward_expectancy_bt,2022.2.4,Win32,61.01281269,Chrome,1366,768,,,l,0.3925,1,402,1,2,8,32,7,1,0,0,1,0,0,1,0,0,hexagon,circle,,,,,,,,,,,,,,,,,,,,,,,,,,,,,,,,,,,,,,,,,,,,,,,,,,,,,,
296362,2022-11-29_16h07.32.391,vts_reward_expectancy_bt,2022.2.4,Win32,61.01281269,Chrome,1366,768,,,a,0.5573,10,412,1,2,9,33,11,1,0,0,0,1,0,0,1,0,star,hexagon,,,,,,,,,,,,,,,,,,,,,,,,,,,,,,,,,,,,,,,,,,,,,,,,,,,,,,
296362,2022-11-29_16h07.32.391,vts_reward_expectancy_bt,2022.2.4,Win32,61.01281269,Chrome,1366,768,,,l,0.3973,10,422,1,2,10,34,2,1,1,0,0,0,0,0,0,1,triangle,star,,,,,,,,,,,,,,,,,,,,,,,,,,,,,,,,,,,,,,,,,,,,,,,,,,,,,,
296362,2022-11-29_16h07.32.391,vts_reward_expectancy_bt,2022.2.4,Win32,61.01281269,Chrome,1366,768,,,a,0.6386,10,432,1,2,11,35,4,1,0,1,0,0,0,0,1,0,circle,hexagon,,,,,,,,,,,,,,,,,,,,,,,,,,,,,,,,,,,,,,,,,,,,,,,,,,,,,,
296362,2022-11-29_16h07.32.391,vts_reward_expectancy_bt,2022.2.4,Win32,61.01281269,Chrome,1366,768,,,l,0.554,1,433,2,0,0,0,8,1,0,0,1,0,0,0,0,1,hexagon,star,,,,,,,,,,,,,,,,,,,,,,,,,,,,,,,,,,,,,,,,,,,,,,,,,,,,,,
296362,2022-11-29_16h07.32.391,vts_reward_expectancy_bt,2022.2.4,Win32,61.01281269,Chrome,1366,768,,,a,0.5693,10,443,2,0,1,1,4,1,0,1,0,0,0,0,1,0,circle,hexagon,,,,,,,,,,,,,,,,,,,,,,,,,,,,,,,,,,,,,,,,,,,,,,,,,,,,,,
296362,2022-11-29_16h07.32.391,vts_reward_expectancy_bt,2022.2.4,Win32,61.01281269,Chrome,1366,768,,,l,1.1139,10,453,2,0,2,2,5,1,0,1,0,0,0,0,0,1,circle,star,,,,,,,,,,,,,,,,,,,,,,,,,,,,,,,,,,,,,,,,,,,,,,,,,,,,,,
296362,2022-11-29_16h07.32.391,vts_reward_expectancy_bt,2022.2.4,Win32,61.01281269,Chrome,1366,768,,,l,0.4652,1,454,2,0,3,3,7,1,0,0,1,0,0,1,0,0,hexagon,circle,,,,,,,,,,,,,,,,,,,,,,,,,,,,,,,,,,,,,,,,,,,,,,,,,,,,,,
296362,2022-11-29_16h07.32.391,vts_reward_expectancy_bt,2022.2.4,Win32,61.01281269,Chrome,1366,768,,,l,0.3865,10,464,2,0,4,4,0,1,1,0,0,0,0,1,0,0,triangle,circle,,,,,,,,,,,,,,,,,,,,,,,,,,,,,,,,,,,,,,,,,,,,,,,,,,,,,,
296362,2022-11-29_16h07.32.391,vts_reward_expectancy_bt,2022.2.4,Win32,61.01281269,Chrome,1366,768,,,a,0.5654,1,465,2,0,5,5,11,1,0,0,0,1,0,0,1,0,star,hexagon,,,,,,,,,,,,,,,,,,,,,,,,,,,,,,,,,,,,,,,,,,,,,,,,,,,,,,
296362,2022-11-29_16h07.32.391,vts_reward_expectancy_bt,2022.2.4,Win32,61.01281269,Chrome,1366,768,,,l,0.3805,10,475,2,0,6,6,2,1,1,0,0,0,0,0,0,1,triangle,star,,,,,,,,,,,,,,,,,,,,,,,,,,,,,,,,,,,,,,,,,,,,,,,,,,,,,,
296362,2022-11-29_16h07.32.391,vts_reward_expectancy_bt,2022.2.4,Win32,61.01281269,Chrome,1366,768,,,a,0.4167,10,485,2,0,7,7,9,1,0,0,0,1,1,0,0,0,star,triangle,,,,,,,,,,,,,,,,,,,,,,,,,,,,,,,,,,,,,,,,,,,,,,,,,,,,,,
296362,2022-11-29_16h07.32.391,vts_reward_expectancy_bt,2022.2.4,Win32,61.01281269,Chrome,1366,768,,,l,0.8577,10,495,2,0,8,8,6,1,0,0,1,0,1,0,0,0,hexagon,triangle,,,,,,,,,,,,,,,,,,,,,,,,,,,,,,,,,,,,,,,,,,,,,,,,,,,,,,
296362,2022-11-29_16h07.32.391,vts_reward_expectancy_bt,2022.2.4,Win32,61.01281269,Chrome,1366,768,,,a,0.8811,10,505,2,0,9,9,1,1,1,0,0,0,0,0,1,0,triangle,hexagon,,,,,,,,,,,,,,,,,,,,,,,,,,,,,,,,,,,,,,,,,,,,,,,,,,,,,,
296362,2022-11-29_16h07.32.391,vts_reward_expectancy_bt,2022.2.4,Win32,61.01281269,Chrome,1366,768,,,l,0.4681,1,506,2,0,10,10,3,1,0,1,0,0,1,0,0,0,circle,triangle,,,,,,,,,,,,,,,,,,,,,,,,,,,,,,,,,,,,,,,,,,,,,,,,,,,,,,
296362,2022-11-29_16h07.32.391,vts_reward_expectancy_bt,2022.2.4,Win32,61.01281269,Chrome,1366,768,,,l,1.1238,10,516,2,0,11,11,10,1,0,0,0,1,0,1,0,0,star ,circle,,,,,,,,,,,,,,,,,,,,,,,,,,,,,,,,,,,,,,,,,,,,,,,,,,,,,,
296362,2022-11-29_16h07.32.391,vts_reward_expectancy_bt,2022.2.4,Win32,61.01281269,Chrome,1366,768,,,a,0.5823,10,526,2,1,0,12,9,1,0,0,0,1,1,0,0,0,star,triangle,,,,,,,,,,,,,,,,,,,,,,,,,,,,,,,,,,,,,,,,,,,,,,,,,,,,,,
296362,2022-11-29_16h07.32.391,vts_reward_expectancy_bt,2022.2.4,Win32,61.01281269,Chrome,1366,768,,,a,0.6664,1,527,2,1,1,13,5,1,0,1,0,0,0,0,0,1,circle,star,,,,,,,,,,,,,,,,,,,,,,,,,,,,,,,,,,,,,,,,,,,,,,,,,,,,,,
296362,2022-11-29_16h07.32.391,vts_reward_expectancy_bt,2022.2.4,Win32,61.01281269,Chrome,1366,768,,,l,0.9317,10,537,2,1,2,14,10,1,0,0,0,1,0,1,0,0,star ,circle,,,,,,,,,,,,,,,,,,,,,,,,,,,,,,,,,,,,,,,,,,,,,,,,,,,,,,
296362,2022-11-29_16h07.32.391,vts_reward_expectancy_bt,2022.2.4,Win32,61.01281269,Chrome,1366,768,,,l,0.7691,1,538,2,1,3,15,7,1,0,0,1,0,0,1,0,0,hexagon,circle,,,,,,,,,,,,,,,,,,,,,,,,,,,,,,,,,,,,,,,,,,,,,,,,,,,,,,
296362,2022-11-29_16h07.32.391,vts_reward_expectancy_bt,2022.2.4,Win32,61.01281269,Chrome,1366,768,,,a,0.7493,1,539,2,1,4,16,4,1,0,1,0,0,0,0,1,0,circle,hexagon,,,,,,,,,,,,,,,,,,,,,,,,,,,,,,,,,,,,,,,,,,,,,,,,,,,,,,
296362,2022-11-29_16h07.32.391,vts_reward_expectancy_bt,2022.2.4,Win32,61.01281269,Chrome,1366,768,,,a,1.1068,10,549,2,1,5,17,1,1,1,0,0,0,0,0,1,0,triangle,hexagon,,,,,,,,,,,,,,,,,,,,,,,,,,,,,,,,,,,,,,,,,,,,,,,,,,,,,,
296362,2022-11-29_16h07.32.391,vts_reward_expectancy_bt,2022.2.4,Win32,61.01281269,Chrome,1366,768,,,l,0.6417,1,550,2,1,6,18,0,1,1,0,0,0,0,1,0,0,triangle,circle,,,,,,,,,,,,,,,,,,,,,,,,,,,,,,,,,,,,,,,,,,,,,,,,,,,,,,
296362,2022-11-29_16h07.32.391,vts_reward_expectancy_bt,2022.2.4,Win32,61.01281269,Chrome,1366,768,,,l,0.5679,10,560,2,1,7,19,8,1,0,0,1,0,0,0,0,1,hexagon,star,,,,,,,,,,,,,,,,,,,,,,,,,,,,,,,,,,,,,,,,,,,,,,,,,,,,,,
296362,2022-11-29_16h07.32.391,vts_reward_expectancy_bt,2022.2.4,Win32,61.01281269,Chrome,1366,768,,,l,0.7669,1,561,2,1,8,20,6,1,0,0,1,0,1,0,0,0,hexagon,triangle,,,,,,,,,,,,,,,,,,,,,,,,,,,,,,,,,,,,,,,,,,,,,,,,,,,,,,
296362,2022-11-29_16h07.32.391,vts_reward_expectancy_bt,2022.2.4,Win32,61.01281269,Chrome,1366,768,,,a,0.4677,10,571,2,1,9,21,3,1,0,1,0,0,1,0,0,0,circle,triangle,,,,,,,,,,,,,,,,,,,,,,,,,,,,,,,,,,,,,,,,,,,,,,,,,,,,,,
296362,2022-11-29_16h07.32.391,vts_reward_expectancy_bt,2022.2.4,Win32,61.01281269,Chrome,1366,768,,,l,0.6091,1,572,2,1,10,22,2,1,1,0,0,0,0,0,0,1,triangle,star,,,,,,,,,,,,,,,,,,,,,,,,,,,,,,,,,,,,,,,,,,,,,,,,,,,,,,
296362,2022-11-29_16h07.32.391,vts_reward_expectancy_bt,2022.2.4,Win32,61.01281269,Chrome,1366,768,,,a,0.5494,1,573,2,1,11,23,11,1,0,0,0,1,0,0,1,0,star,hexagon,,,,,,,,,,,,,,,,,,,,,,,,,,,,,,,,,,,,,,,,,,,,,,,,,,,,,,
296362,2022-11-29_16h07.32.391,vts_reward_expectancy_bt,2022.2.4,Win32,61.01281269,Chrome,1366,768,,,a,0.8293,10,583,2,2,0,24,5,1,0,1,0,0,0,0,0,1,circle,star,,,,,,,,,,,,,,,,,,,,,,,,,,,,,,,,,,,,,,,,,,,,,,,,,,,,,,
296362,2022-11-29_16h07.32.391,vts_reward_expectancy_bt,2022.2.4,Win32,61.01281269,Chrome,1366,768,,,l,0.7003,10,593,2,2,1,25,0,1,1,0,0,0,0,1,0,0,triangle,circle,,,,,,,,,,,,,,,,,,,,,,,,,,,,,,,,,,,,,,,,,,,,,,,,,,,,,,
296362,2022-11-29_16h07.32.391,vts_reward_expectancy_bt,2022.2.4,Win32,61.01281269,Chrome,1366,768,,,a,0.5992,10,603,2,2,2,26,4,1,0,1,0,0,0,0,1,0,circle,hexagon,,,,,,,,,,,,,,,,,,,,,,,,,,,,,,,,,,,,,,,,,,,,,,,,,,,,,,
296362,2022-11-29_16h07.32.391,vts_reward_expectancy_bt,2022.2.4,Win32,61.01281269,Chrome,1366,768,,,l,0.5527,10,613,2,2,3,27,2,1,1,0,0,0,0,0,0,1,triangle,star,,,,,,,,,,,,,,,,,,,,,,,,,,,,,,,,,,,,,,,,,,,,,,,,,,,,,,
296362,2022-11-29_16h07.32.391,vts_reward_expectancy_bt,2022.2.4,Win32,61.01281269,Chrome,1366,768,,,l,0.6351,1,614,2,2,4,28,8,1,0,0,1,0,0,0,0,1,hexagon,star,,,,,,,,,,,,,,,,,,,,,,,,,,,,,,,,,,,,,,,,,,,,,,,,,,,,,,
296362,2022-11-29_16h07.32.391,vts_reward_expectancy_bt,2022.2.4,Win32,61.01281269,Chrome,1366,768,,,a,0.4726,10,624,2,2,5,29,9,1,0,0,0,1,1,0,0,0,star,triangle,,,,,,,,,,,,,,,,,,,,,,,,,,,,,,,,,,,,,,,,,,,,,,,,,,,,,,
296362,2022-11-29_16h07.32.391,vts_reward_expectancy_bt,2022.2.4,Win32,61.01281269,Chrome,1366,768,,,l,1.8161,10,634,2,2,6,30,10,1,0,0,0,1,0,1,0,0,star ,circle,,,,,,,,,,,,,,,,,,,,,,,,,,,,,,,,,,,,,,,,,,,,,,,,,,,,,,
296362,2022-11-29_16h07.32.391,vts_reward_expectancy_bt,2022.2.4,Win32,61.01281269,Chrome,1366,768,,,a,0.6034,1,635,2,2,7,31,11,1,0,0,0,1,0,0,1,0,star,hexagon,,,,,,,,,,,,,,,,,,,,,,,,,,,,,,,,,,,,,,,,,,,,,,,,,,,,,,
296362,2022-11-29_16h07.32.391,vts_reward_expectancy_bt,2022.2.4,Win32,61.01281269,Chrome,1366,768,,,l,1.9046,1,636,2,2,8,32,6,1,0,0,1,0,1,0,0,0,hexagon,triangle,,,,,,,,,,,,,,,,,,,,,,,,,,,,,,,,,,,,,,,,,,,,,,,,,,,,,,
296362,2022-11-29_16h07.32.391,vts_reward_expectancy_bt,2022.2.4,Win32,61.01281269,Chrome,1366,768,,,l,0.5353,10,646,2,2,9,33,7,1,0,0,1,0,0,1,0,0,hexagon,circle,,,,,,,,,,,,,,,,,,,,,,,,,,,,,,,,,,,,,,,,,,,,,,,,,,,,,,
296362,2022-11-29_16h07.32.391,vts_reward_expectancy_bt,2022.2.4,Win32,61.01281269,Chrome,1366,768,,,a,1.1649,10,656,2,2,10,34,1,1,1,0,0,0,0,0,1,0,triangle,hexagon,,,,,,,,,,,,,,,,,,,,,,,,,,,,,,,,,,,,,,,,,,,,,,,,,,,,,,
296362,2022-11-29_16h07.32.391,vts_reward_expectancy_bt,2022.2.4,Win32,61.01281269,Chrome,1366,768,,,a,0.7471,1,657,2,2,11,35,3,1,0,1,0,0,1,0,0,0,circle,triangle,,,,,,,,,,,,,,,,,,,,,,,,,,,,,,,,,,,,,,,,,,,,,,,,,,,,,,
296362,2022-11-29_16h07.32.391,vts_reward_expectancy_bt,2022.2.4,Win32,61.01281269,Chrome,1366,768,,,,,,,,,,,,,,,,,,,,,,,174,S,hexagon,1,0,f,1.0988,0,0,0,0,0,1,,,,,,,,,,,,,,,,,,,,,,,,,,,,,,,,,,,,,,,,,
296362,2022-11-29_16h07.32.391,vts_reward_expectancy_bt,2022.2.4,Win32,61.01281269,Chrome,1366,768,,,,,,,,,,,,,,,,,,,,,,,160,F,triangle,1,0,f,0.667,0,1,0,1,0,1,,,,,,,,,,,,,,,,,,,,,,,,,,,,,,,,,,,,,,,,,
296362,2022-11-29_16h07.32.391,vts_reward_expectancy_bt,2022.2.4,Win32,61.01281269,Chrome,1366,768,,,,,,,,,,,,,,,,,,,,,,,139,B,star,1,0,d,0.4335,0,2,0,2,0,1,,,,,,,,,,,,,,,,,,,,,,,,,,,,,,,,,,,,,,,,,
296362,2022-11-29_16h07.32.391,vts_reward_expectancy_bt,2022.2.4,Win32,61.01281269,Chrome,1366,768,,,,,,,,,,,,,,,,,,,,,,,125,W,circle,1,0,d,0.8393,0,3,0,3,0,1,,,,,,,,,,,,,,,,,,,,,,,,,,,,,,,,,,,,,,,,,
296362,2022-11-29_16h07.32.391,vts_reward_expectancy_bt,2022.2.4,Win32,61.01281269,Chrome,1366,768,,,,,,,,,,,,,,,,,,,,,,,132,D,hexagon,1,0,d,0.6565,0,4,0,4,0,1,,,,,,,,,,,,,,,,,,,,,,,,,,,,,,,,,,,,,,,,,
296362,2022-11-29_16h07.32.391,vts_reward_expectancy_bt,2022.2.4,Win32,61.01281269,Chrome,1366,768,,,,,,,,,,,,,,,,,,,,,,,146,U,triangle,1,0,d,0.5509,0,5,0,5,0,1,,,,,,,,,,,,,,,,,,,,,,,,,,,,,,,,,,,,,,,,,
296362,2022-11-29_16h07.32.391,vts_reward_expectancy_bt,2022.2.4,Win32,61.01281269,Chrome,1366,768,,,,,,,,,,,,,,,,,,,,,,,181,Y,star,1,0,f,0.521,0,6,0,6,0,1,,,,,,,,,,,,,,,,,,,,,,,,,,,,,,,,,,,,,,,,,
296362,2022-11-29_16h07.32.391,vts_reward_expectancy_bt,2022.2.4,Win32,61.01281269,Chrome,1366,768,,,,,,,,,,,,,,,,,,,,,,,167,H,circle,1,0,f,0.6495,0,7,0,7,0,1,,,,,,,,,,,,,,,,,,,,,,,,,,,,,,,,,,,,,,,,,
296362,2022-11-29_16h07.32.391,vts_reward_expectancy_bt,2022.2.4,Win32,61.01281269,Chrome,1366,768,,,,,,,,,,,,,,,,,,,,,,,174,S,star,1,0,f,0.3797,0,8,0,8,0,1,,,,,,,,,,,,,,,,,,,,,,,,,,,,,,,,,,,,,,,,,
296362,2022-11-29_16h07.32.391,vts_reward_expectancy_bt,2022.2.4,Win32,61.01281269,Chrome,1366,768,,,,,,,,,,,,,,,,,,,,,,,160,F,triangle,1,0,f,0.3957,0,9,0,9,0,1,,,,,,,,,,,,,,,,,,,,,,,,,,,,,,,,,,,,,,,,,
296362,2022-11-29_16h07.32.391,vts_reward_expectancy_bt,2022.2.4,Win32,61.01281269,Chrome,1366,768,,,,,,,,,,,,,,,,,,,,,,,132,D,star,1,0,,,1,,,,,,j,0.8493,0,0,0,0,1,,,,,,,,,,,,,,,,,,,,,,,,,,,,,,,,,,
296362,2022-11-29_16h07.32.391,vts_reward_expectancy_bt,2022.2.4,Win32,61.01281269,Chrome,1366,768,,,,,,,,,,,,,,,,,,,,,,,181,H,hexagon,1,0,,,1,,,,,,j,0.8486,1,0,1,0,1,,,,,,,,,,,,,,,,,,,,,,,,,,,,,,,,,,
296362,2022-11-29_16h07.32.391,vts_reward_expectancy_bt,2022.2.4,Win32,61.01281269,Chrome,1366,768,,,,,,,,,,,,,,,,,,,,,,,167,S,triangle,1,0,,,1,,,,,,k,0.9117,2,0,2,0,1,,,,,,,,,,,,,,,,,,,,,,,,,,,,,,,,,,
296362,2022-11-29_16h07.32.391,vts_reward_expectancy_bt,2022.2.4,Win32,61.01281269,Chrome,1366,768,,,,,,,,,,,,,,,,,,,,,,,146,W,circle,1,0,,,1,,,,,,k,0.5168,3,0,3,0,1,,,,,,,,,,,,,,,,,,,,,,,,,,,,,,,,,,
296362,2022-11-29_16h07.32.391,vts_reward_expectancy_bt,2022.2.4,Win32,61.01281269,Chrome,1366,768,,,,,,,,,,,,,,,,,,,,,,,160,Y,star,1,0,,,1,,,,,,k,0.8992,4,0,4,0,1,,,,,,,,,,,,,,,,,,,,,,,,,,,,,,,,,,
296362,2022-11-29_16h07.32.391,vts_reward_expectancy_bt,2022.2.4,Win32,61.01281269,Chrome,1366,768,,,,,,,,,,,,,,,,,,,,,,,174,F,hexagon,1,0,,,1,,,,,,j,0.9338,5,0,5,0,1,,,,,,,,,,,,,,,,,,,,,,,,,,,,,,,,,,
296362,2022-11-29_16h07.32.391,vts_reward_expectancy_bt,2022.2.4,Win32,61.01281269,Chrome,1366,768,,,,,,,,,,,,,,,,,,,,,,,125,U,triangle,1,0,,,1,,,,,,k,0.5837,6,0,6,0,1,,,,,,,,,,,,,,,,,,,,,,,,,,,,,,,,,,
296362,2022-11-29_16h07.32.391,vts_reward_expectancy_bt,2022.2.4,Win32,61.01281269,Chrome,1366,768,,,,,,,,,,,,,,,,,,,,,,,139,B,circle,1,0,,,1,,,,,,j,0.6503,7,0,7,0,1,,,,,,,,,,,,,,,,,,,,,,,,,,,,,,,,,,
296362,2022-11-29_16h07.32.391,vts_reward_expectancy_bt,2022.2.4,Win32,61.01281269,Chrome,1366,768,,,,,,,,,,,,,,,,,,,,,,,132,D,triangle,1,0,,,1,,,,,,j,0.7668,8,0,8,0,1,,,,,,,,,,,,,,,,,,,,,,,,,,,,,,,,,,
296362,2022-11-29_16h07.32.391,vts_reward_expectancy_bt,2022.2.4,Win32,61.01281269,Chrome,1366,768,,,,,,,,,,,,,,,,,,,,,,,181,H,hexagon,1,0,,,1,,,,,,j,1.0505,9,0,9,0,1,,,,,,,,,,,,,,,,,,,,,,,,,,,,,,,,,,
296362,2022-11-29_16h07.32.391,vts_reward_expectancy_bt,2022.2.4,Win32,61.01281269,Chrome,1366,768,,,,,0,657,,,,,,,,,,,,,,,,,132,W,hexagon,1,0,,,2,,,,,,,,,,,,,-1,number,NA,d,2.5562,vtsPrac,0,0,0,0,1,,,,,,,,,,,,,,,,,,,,,,,
296362,2022-11-29_16h07.32.391,vts_reward_expectancy_bt,2022.2.4,Win32,61.01281269,Chrome,1366,768,,,,,0,657,,,,,,,,,,,,,,,,,139,Y,triangle,1,0,,,2,,,,,,,,,,,,,switch,letter,lettSwt,k,1.221,vtsPrac,1,0,1,0,1,,,,,,,,,,,,,,,,,,,,,,,
296362,2022-11-29_16h07.32.391,vts_reward_expectancy_bt,2022.2.4,Win32,61.01281269,Chrome,1366,768,,,,,0,657,,,,,,,,,,,,,,,,,125,F,hexagon,1,0,,,2,,,,,,,,,,,,,switch,number,numSwt,d,1.9097,vtsPrac,2,0,2,0,1,,,,,,,,,,,,,,,,,,,,,,,
296362,2022-11-29_16h07.32.391,vts_reward_expectancy_bt,2022.2.4,Win32,61.01281269,Chrome,1366,768,,,,,0,657,,,,,,,,,,,,,,,,,160,B,triangle,1,0,,,2,,,,,,,,,,,,,switch,letter,lettSwt,j,0.6809,vtsPrac,3,0,3,0,1,,,,,,,,,,,,,,,,,,,,,,,
296362,2022-11-29_16h07.32.391,vts_reward_expectancy_bt,2022.2.4,Win32,61.01281269,Chrome,1366,768,,,,,0,657,,,,,,,,,,,,,,,,,132,W,circle,1,0,,,2,,,,,,,,,,,,,switch,number,numSwt,d,1.1106,vtsPrac,4,0,4,0,1,,,,,,,,,,,,,,,,,,,,,,,
296362,2022-11-29_16h07.32.391,vts_reward_expectancy_bt,2022.2.4,Win32,61.01281269,Chrome,1366,768,,,,,0,657,,,,,,,,,,,,,,,,,139,Y,triangle,1,0,,,2,,,,,,,,,,,,,switch,letter,lettSwt,k,0.5724,vtsPrac,5,0,5,0,1,,,,,,,,,,,,,,,,,,,,,,,
296362,2022-11-29_16h07.32.391,vts_reward_expectancy_bt,2022.2.4,Win32,61.01281269,Chrome,1366,768,,,,,0,657,,,,,,,,,,,,,,,,,125,F,circle,1,0,,,2,,,,,,,,,,,,,switch,number,numSwt,d,0.647,vtsPrac,6,0,6,0,1,,,,,,,,,,,,,,,,,,,,,,,
296362,2022-11-29_16h07.32.391,vts_reward_expectancy_bt,2022.2.4,Win32,61.01281269,Chrome,1366,768,,,,,0,657,,,,,,,,,,,,,,,,,160,B,hexagon,1,0,,,2,,,,,,,,,,,,,switch,letter,lettSwt,j,0.8785,vtsPrac,7,0,7,0,1,,,,,,,,,,,,,,,,,,,,,,,
296362,2022-11-29_16h07.32.391,vts_reward_expectancy_bt,2022.2.4,Win32,61.01281269,Chrome,1366,768,,,,,0,657,,,,,,,,,,,,,,,,,132,B,hexagon,1,0,,,2,,,,,,,,,,,,,switch,number,numSwt,d,1.2213,vtsPrac,8,0,8,0,1,,,,,,,,,,,,,,,,,,,,,,,
296362,2022-11-29_16h07.32.391,vts_reward_expectancy_bt,2022.2.4,Win32,61.01281269,Chrome,1366,768,,,,,0,657,,,,,,,,,,,,,,,,,139,U,triangle,1,0,,,2,,,,,,,,,,,,,repeat,number,numRpt,d,0.8321,vtsPrac,9,0,9,0,1,,,,,,,,,,,,,,,,,,,,,,,
296362,2022-11-29_16h07.32.391,vts_reward_expectancy_bt,2022.2.4,Win32,61.01281269,Chrome,1366,768,,,,,0,657,,,,,,,,,,,,,,,,,167,D,triangle,1,0,,,2,,,,,,,,,,,,,switch,letter,lettSwt,j,0.6403,vtsPrac,10,0,10,0,1,,,,,,,,,,,,,,,,,,,,,,,
296362,2022-11-29_16h07.32.391,vts_reward_expectancy_bt,2022.2.4,Win32,61.01281269,Chrome,1366,768,,,,,0,657,,,,,,,,,,,,,,,,,160,W,hexagon,1,0,,,2,,,,,,,,,,,,,repeat,letter,lettRpt,k,1.1138,vtsPrac,11,0,11,0,1,,,,,,,,,,,,,,,,,,,,,,,
296362,2022-11-29_16h07.32.391,vts_reward_expectancy_bt,2022.2.4,Win32,61.01281269,Chrome,1366,768,,,,,0,657,,,,,,,,,,,,,,,,,125,B,star,1,0,,,2,,,,,,,,,,,,,switch,number,numSwt,d,1.433,vtsPrac,12,0,12,0,1,,,,,,,,,,,,,,,,,,,,,,,
296362,2022-11-29_16h07.32.391,vts_reward_expectancy_bt,2022.2.4,Win32,61.01281269,Chrome,1366,768,,,,,0,657,,,,,,,,,,,,,,,,,160,F,hexagon,1,0,,,2,,,,,,,,,,,,,repeat,number,numRpt,f,0.917,vtsPrac,13,0,13,0,1,,,,,,,,,,,,,,,,,,,,,,,
296362,2022-11-29_16h07.32.391,vts_reward_expectancy_bt,2022.2.4,Win32,61.01281269,Chrome,1366,768,,,,,0,657,,,,,,,,,,,,,,,,,174,Y,circle,1,0,,,2,,,,,,,,,,,,,switch,letter,lettSwt,k,0.6195,vtsPrac,14,0,14,0,1,,,,,,,,,,,,,,,,,,,,,,,
296362,2022-11-29_16h07.32.391,vts_reward_expectancy_bt,2022.2.4,Win32,61.01281269,Chrome,1366,768,,,,,0,657,,,,,,,,,,,,,,,,,167,S,triangle,1,0,,,2,,,,,,,,,,,,,switch,number,numSwt,f,0.7051,vtsPrac,15,0,15,0,1,,,,,,,,,,,,,,,,,,,,,,,
296362,2022-11-29_16h07.32.391,vts_reward_expectancy_bt,2022.2.4,Win32,61.01281269,Chrome,1366,768,,,,,0,657,,,,,,,,,,,,,,,,,167,Y,circle,1,0,,,2,,,,,,,,,,,,,repeat,number,numRpt,f,0.9986,vtsPrac,16,0,16,0,1,,,,,,,,,,,,,,,,,,,,,,,
296362,2022-11-29_16h07.32.391,vts_reward_expectancy_bt,2022.2.4,Win32,61.01281269,Chrome,1366,768,,,,,0,657,,,,,,,,,,,,,,,,,174,S,star,1,0,,,2,,,,,,,,,,,,,switch,letter,lettSwt,k,0.7026,vtsPrac,17,0,17,0,1,,,,,,,,,,,,,,,,,,,,,,,
296362,2022-11-29_16h07.32.391,vts_reward_expectancy_bt,2022.2.4,Win32,61.01281269,Chrome,1366,768,,,,,0,657,,,,,,,,,,,,,,,,,139,F,hexagon,1,0,,,2,,,,,,,,,,,,,switch,number,numSwt,d,0.6781,vtsPrac,18,0,18,0,1,,,,,,,,,,,,,,,,,,,,,,,
296362,2022-11-29_16h07.32.391,vts_reward_expectancy_bt,2022.2.4,Win32,61.01281269,Chrome,1366,768,,,,,0,657,,,,,,,,,,,,,,,,,146,H,circle,1,0,,,2,,,,,,,,,,,,,switch,letter,lettSwt,j,0.8012,vtsPrac,19,0,19,0,1,,,,,,,,,,,,,,,,,,,,,,,
296362,2022-11-29_16h07.32.391,vts_reward_expectancy_bt,2022.2.4,Win32,61.01281269,Chrome,1366,768,,,,,0,657,,,,,,,,,,,,,,,,,174,B,hexagon,1,0,,,2,,,,,,,,,,,,,switch,number,numSwt,f,0.6792,vtsPrac,20,0,20,0,1,,,,,,,,,,,,,,,,,,,,,,,
296362,2022-11-29_16h07.32.391,vts_reward_expectancy_bt,2022.2.4,Win32,61.01281269,Chrome,1366,768,,,,,0,657,,,,,,,,,,,,,,,,,160,S,triangle,1,0,,,2,,,,,,,,,,,,,repeat,number,numRpt,f,0.8663,vtsPrac,21,0,21,0,1,,,,,,,,,,,,,,,,,,,,,,,
296362,2022-11-29_16h07.32.391,vts_reward_expectancy_bt,2022.2.4,Win32,61.01281269,Chrome,1366,768,,,,,0,657,,,,,,,,,,,,,,,,,167,U,triangle,1,0,,,2,,,,,,,,,,,,,switch,letter,lettSwt,k,1.2124,vtsPrac,22,0,22,0,1,,,,,,,,,,,,,,,,,,,,,,,
296362,2022-11-29_16h07.32.391,vts_reward_expectancy_bt,2022.2.4,Win32,61.01281269,Chrome,1366,768,,,,,0,657,,,,,,,,,,,,,,,,,125,Y,star,1,0,,,2,,,,,,,,,,,,,switch,number,numSwt,d,1.0786,vtsPrac,23,0,23,0,1,,,,,,,,,,,,,,,,,,,,,,,
296362,2022-11-29_16h07.32.391,vts_reward_expectancy_bt,2022.2.4,Win32,61.01281269,Chrome,1366,768,,,,,0,657,,,,,,,,,,,,,,,,,181,F,star,1,0,,,2,,,,,,,,,,,,,repeat,number,numRpt,f,1.7328,vtsPrac,24,0,24,0,1,,,,,,,,,,,,,,,,,,,,,,,
296362,2022-11-29_16h07.32.391,vts_reward_expectancy_bt,2022.2.4,Win32,61.01281269,Chrome,1366,768,,,,,0,657,,,,,,,,,,,,,,,,,132,W,hexagon,1,0,,,2,,,,,,,,,,,,,switch,letter,lettSwt,k,1.3118,vtsPrac,25,0,25,0,1,,,,,,,,,,,,,,,,,,,,,,,
296362,2022-11-29_16h07.32.391,vts_reward_expectancy_bt,2022.2.4,Win32,61.01281269,Chrome,1366,768,,,,,0,657,,,,,,,,,,,,,,,,,146,D,circle,1,0,,,2,,,,,,,,,,,,,switch,number,numSwt,d,1.4613,vtsPrac,26,0,26,0,1,,,,,,,,,,,,,,,,,,,,,,,
296362,2022-11-29_16h07.32.391,vts_reward_expectancy_bt,2022.2.4,Win32,61.01281269,Chrome,1366,768,,,,,0,657,,,,,,,,,,,,,,,,,139,S,hexagon,1,0,,,2,,,,,,,,,,,,,switch,letter,lettSwt,k,1.0353,vtsPrac,27,0,27,0,1,,,,,,,,,,,,,,,,,,,,,,,
296362,2022-11-29_16h07.32.391,vts_reward_expectancy_bt,2022.2.4,Win32,61.01281269,Chrome,1366,768,,,,,0,657,,,,,,,,,,,,,,,,,125,B,star,1,0,,,2,,,,,,,,,,,,,switch,number,numSwt,d,0.6668,vtsPrac,28,0,28,0,1,,,,,,,,,,,,,,,,,,,,,,,
296362,2022-11-29_16h07.32.391,vts_reward_expectancy_bt,2022.2.4,Win32,61.01281269,Chrome,1366,768,,,,,0,657,,,,,,,,,,,,,,,,,181,W,triangle,1,0,,,2,,,,,,,,,,,,,repeat,number,numRpt,f,0.7293,vtsPrac,29,0,29,0,1,,,,,,,,,,,,,,,,,,,,,,,
296362,2022-11-29_16h07.32.391,vts_reward_expectancy_bt,2022.2.4,Win32,61.01281269,Chrome,1366,768,,,,,0,657,,,,,,,,,,,,,,,,,160,H,circle,1,0,,,2,,,,,,,,,,,,,repeat,number,numRpt,f,1.8653,vtsPrac,30,0,30,0,1,,,,,,,,,,,,,,,,,,,,,,,
296362,2022-11-29_16h07.32.391,vts_reward_expectancy_bt,2022.2.4,Win32,61.01281269,Chrome,1366,768,,,,,0,657,,,,,,,,,,,,,,,,,132,U,star,1,0,,,2,,,,,,,,,,,,,switch,letter,lettSwt,k,1.1454,vtsPrac,31,0,31,0,1,,,,,,,,,,,,,,,,,,,,,,,
296362,2022-11-29_16h07.32.391,vts_reward_expectancy_bt,2022.2.4,Win32,61.01281269,Chrome,1366,768,,,,,,,,,,,,,,,,,,,,,,,,,,,,,,,,,,,,,,,,,,,,,,,,,,,,,,,,,,,,,,,,,,,,,,,,,,,,
296362,2022-11-29_16h07.32.391,vts_reward_expectancy_bt,2022.2.4,Win32,61.01281269,Chrome,1366,768,,,,,,,,,,,,,,,,,,,,,,,,,,,,,,,,,,,,,,,,,,,,,,,,,,,,,,,,,,,,,,,,,,,,,,,,,,,,
296362,2022-11-29_16h07.32.391,vts_reward_expectancy_bt,2022.2.4,Win32,61.01281269,Chrome,1366,768,,,,,0,657,,,,,,,,,,,,,,,,,132,W,circle,1,0,,,,,,,,,,,,,,,,switch,number,numSwt,d,0.9495,noRew,,,,,,0,0,0,0,0,1,,,,,,,,,,,,,,,,,
296362,2022-11-29_16h07.32.391,vts_reward_expectancy_bt,2022.2.4,Win32,61.01281269,Chrome,1366,768,,,,,0,657,,,,,,,,,,,,,,,,,167,U,triangle,1,0,,,,,,,,,,,,,,,,repeat,number,numRpt,f,0.9997,noRew,,,,,,0,1,0,1,0,1,,,,,,,,,,,,,,,,,
296362,2022-11-29_16h07.32.391,vts_reward_expectancy_bt,2022.2.4,Win32,61.01281269,Chrome,1366,768,,,,,0,657,,,,,,,,,,,,,,,,,125,H,circle,1,0,,,,,,,,,,,,,,,,repeat,number,numRpt,d,0.6501,noRew,,,,,,0,2,0,2,0,1,,,,,,,,,,,,,,,,,
296362,2022-11-29_16h07.32.391,vts_reward_expectancy_bt,2022.2.4,Win32,61.01281269,Chrome,1366,768,,,,,0,657,,,,,,,,,,,,,,,,,174,F,triangle,1,0,,,,,,,,,,,,,,,,switch,letter,lettSwt,j,1.1997,noRew,,,,,,0,3,0,3,0,1,,,,,,,,,,,,,,,,,
296362,2022-11-29_16h07.32.391,vts_reward_expectancy_bt,2022.2.4,Win32,61.01281269,Chrome,1366,768,,,,,0,657,,,,,,,,,,,,,,,,,132,W,triangle,1,0,,,,,,,,,,,,,,,,repeat,letter,lettRpt,k,0.6493,noRew,,,,,,0,4,0,4,0,1,,,,,,,,,,,,,,,,,
296362,2022-11-29_16h07.32.391,vts_reward_expectancy_bt,2022.2.4,Win32,61.01281269,Chrome,1366,768,,,,,0,657,,,,,,,,,,,,,,,,,167,U,hexagon,1,0,,,,,,,,,,,,,,,,repeat,letter,lettRpt,k,0.6526,noRew,,,,,,0,5,0,5,0,1,,,,,,,,,,,,,,,,,
296362,2022-11-29_16h07.32.391,vts_reward_expectancy_bt,2022.2.4,Win32,61.01281269,Chrome,1366,768,,,,,0,657,,,,,,,,,,,,,,,,,125,H,triangle,1,0,,,,,,,,,,,,,,,,switch,number,numSwt,d,0.6734,noRew,,,,,,0,6,0,6,0,1,,,,,,,,,,,,,,,,,
296362,2022-11-29_16h07.32.391,vts_reward_expectancy_bt,2022.2.4,Win32,61.01281269,Chrome,1366,768,,,,,0,657,,,,,,,,,,,,,,,,,174,F,star,1,0,,,,,,,,,,,,,,,,repeat,number,numRpt,f,0.9663,noRew,,,,,,0,7,0,7,0,1,,,,,,,,,,,,,,,,,
296362,2022-11-29_16h07.32.391,vts_reward_expectancy_bt,2022.2.4,Win32,61.01281269,Chrome,1366,768,,,,,0,657,,,,,,,,,,,,,,,,,160,D,hexagon,1,0,,,,,,,,,,,,,,,,switch,letter,lettSwt,j,0.6895,noRew,,,,,,0,8,0,8,0,1,,,,,,,,,,,,,,,,,
296362,2022-11-29_16h07.32.391,vts_reward_expectancy_bt,2022.2.4,Win32,61.01281269,Chrome,1366,768,,,,,0,657,,,,,,,,,,,,,,,,,167,F,triangle,1,0,,,,,,,,,,,,,,,,switch,number,numSwt,f,1.0332,noRew,,,,,,0,9,0,9,0,1,,,,,,,,,,,,,,,,,
296362,2022-11-29_16h07.32.391,vts_reward_expectancy_bt,2022.2.4,Win32,61.01281269,Chrome,1366,768,,,,,0,657,,,,,,,,,,,,,,,,,146,B,hexagon,1,0,,,,,,,,,,,,,,,,repeat,number,numRpt,d,1.1,noRew,,,,,,0,10,0,10,0,1,,,,,,,,,,,,,,,,,
296362,2022-11-29_16h07.32.391,vts_reward_expectancy_bt,2022.2.4,Win32,61.01281269,Chrome,1366,768,,,,,0,657,,,,,,,,,,,,,,,,,132,S,star,1,0,,,,,,,,,,,,,,,,repeat,number,numRpt,d,0.8324,noRew,,,,,,0,11,0,11,0,1,,,,,,,,,,,,,,,,,
296362,2022-11-29_16h07.32.391,vts_reward_expectancy_bt,2022.2.4,Win32,61.01281269,Chrome,1366,768,,,,,0,657,,,,,,,,,,,,,,,,,167,F,star,1,0,,,,,,,,,,,,,,,,repeat,number,numRpt,f,0.8988,noRew,,,,,,0,12,0,12,0,1,,,,,,,,,,,,,,,,,
296362,2022-11-29_16h07.32.391,vts_reward_expectancy_bt,2022.2.4,Win32,61.01281269,Chrome,1366,768,,,,,0,657,,,,,,,,,,,,,,,,,139,H,triangle,1,0,,,,,,,,,,,,,,,,switch,letter,lettSwt,j,1.5316,noRew,,,,,,0,13,0,13,0,1,,,,,,,,,,,,,,,,,
296362,2022-11-29_16h07.32.391,vts_reward_expectancy_bt,2022.2.4,Win32,61.01281269,Chrome,1366,768,,,,,0,657,,,,,,,,,,,,,,,,,132,B,hexagon,1,0,,,,,,,,,,,,,,,,switch,number,numSwt,d,0.899,noRew,,,,,,0,14,0,14,0,1,,,,,,,,,,,,,,,,,
296362,2022-11-29_16h07.32.391,vts_reward_expectancy_bt,2022.2.4,Win32,61.01281269,Chrome,1366,768,,,,,0,657,,,,,,,,,,,,,,,,,181,U,triangle,1,0,,,,,,,,,,,,,,,,switch,letter,lettSwt,k,1.3658,noRew,,,,,,0,15,0,15,0,1,,,,,,,,,,,,,,,,,
296362,2022-11-29_16h07.32.391,vts_reward_expectancy_bt,2022.2.4,Win32,61.01281269,Chrome,1366,768,,,,,0,657,,,,,,,,,,,,,,,,,125,H,hexagon,1,0,,,,,,,,,,,,,,,,repeat,letter,lettRpt,j,1.2547,noRew,,,,,,0,16,0,16,0,1,,,,,,,,,,,,,,,,,
296362,2022-11-29_16h07.32.391,vts_reward_expectancy_bt,2022.2.4,Win32,61.01281269,Chrome,1366,768,,,,,0,657,,,,,,,,,,,,,,,,,167,B,circle,1,0,,,,,,,,,,,,,,,,switch,number,numSwt,f,0.8992,noRew,,,,,,0,17,0,17,0,1,,,,,,,,,,,,,,,,,
296362,2022-11-29_16h07.32.391,vts_reward_expectancy_bt,2022.2.4,Win32,61.01281269,Chrome,1366,768,,,,,0,657,,,,,,,,,,,,,,,,,181,U,hexagon,1,0,,,,,,,,,,,,,,,,switch,letter,lettSwt,k,1.0731,noRew,,,,,,0,18,0,18,0,1,,,,,,,,,,,,,,,,,
296362,2022-11-29_16h07.32.391,vts_reward_expectancy_bt,2022.2.4,Win32,61.01281269,Chrome,1366,768,,,,,0,657,,,,,,,,,,,,,,,,,160,W,star,1,0,,,,,,,,,,,,,,,,repeat,letter,lettRpt,k,0.8216,noRew,,,,,,0,19,0,19,0,1,,,,,,,,,,,,,,,,,
296362,2022-11-29_16h07.32.391,vts_reward_expectancy_bt,2022.2.4,Win32,61.01281269,Chrome,1366,768,,,,,0,657,,,,,,,,,,,,,,,,,132,B,triangle,1,0,,,,,,,,,,,,,,,,repeat,letter,lettRpt,j,1.1982,noRew,,,,,,0,20,0,20,0,1,,,,,,,,,,,,,,,,,
296362,2022-11-29_16h07.32.391,vts_reward_expectancy_bt,2022.2.4,Win32,61.01281269,Chrome,1366,768,,,,,0,657,,,,,,,,,,,,,,,,,167,S,hexagon,1,0,,,,,,,,,,,,,,,,repeat,letter,lettRpt,k,1.2119,noRew,,,,,,0,21,0,21,0,1,,,,,,,,,,,,,,,,,
296362,2022-11-29_16h07.32.391,vts_reward_expectancy_bt,2022.2.4,Win32,61.01281269,Chrome,1366,768,,,,,0,657,,,,,,,,,,,,,,,,,160,F,circle,0,0,,,,,,,,,,,,,,,,switch,number,NA,d,0.6672,noRew,,,,,,0,22,0,22,0,1,,,,,,,,,,,,,,,,,
296362,2022-11-29_16h07.32.391,vts_reward_expectancy_bt,2022.2.4,Win32,61.01281269,Chrome,1366,768,,,,,0,657,,,,,,,,,,,,,,,,,139,U,triangle,1,1,,,,,,,,,,,,,,,,repeat,number,numRpt,d,0.9838,noRew,,,,,,0,23,0,23,0,1,,,,,,,,,,,,,,,,,
296362,2022-11-29_16h07.32.391,vts_reward_expectancy_bt,2022.2.4,Win32,61.01281269,Chrome,1366,768,,,,,0,657,,,,,,,,,,,,,,,,,146,Y,circle,1,0,,,,,,,,,,,,,,,,switch,letter,lettSwt,k,0.9648,noRew,,,,,,0,24,0,24,0,1,,,,,,,,,,,,,,,,,
296362,2022-11-29_16h07.32.391,vts_reward_expectancy_bt,2022.2.4,Win32,61.01281269,Chrome,1366,768,,,,,0,657,,,,,,,,,,,,,,,,,125,B,triangle,1,0,,,,,,,,,,,,,,,,repeat,letter,lettRpt,j,0.6499,noRew,,,,,,0,25,0,25,0,1,,,,,,,,,,,,,,,,,
296362,2022-11-29_16h07.32.391,vts_reward_expectancy_bt,2022.2.4,Win32,61.01281269,Chrome,1366,768,,,,,0,657,,,,,,,,,,,,,,,,,139,W,hexagon,1,0,,,,,,,,,,,,,,,,repeat,letter,lettRpt,k,0.9829,noRew,,,,,,0,26,0,26,0,1,,,,,,,,,,,,,,,,,
296362,2022-11-29_16h07.32.391,vts_reward_expectancy_bt,2022.2.4,Win32,61.01281269,Chrome,1366,768,,,,,0,657,,,,,,,,,,,,,,,,,181,U,circle,1,0,,,,,,,,,,,,,,,,switch,number,numSwt,f,0.916,noRew,,,,,,0,27,0,27,0,1,,,,,,,,,,,,,,,,,
296362,2022-11-29_16h07.32.391,vts_reward_expectancy_bt,2022.2.4,Win32,61.01281269,Chrome,1366,768,,,,,0,657,,,,,,,,,,,,,,,,,125,Y,circle,1,0,,,,,,,,,,,,,,,,repeat,number,numRpt,d,0.8991,noRew,,,,,,0,28,0,28,0,1,,,,,,,,,,,,,,,,,
296362,2022-11-29_16h07.32.391,vts_reward_expectancy_bt,2022.2.4,Win32,61.01281269,Chrome,1366,768,,,,,0,657,,,,,,,,,,,,,,,,,174,B,star,1,0,,,,,,,,,,,,,,,,switch,letter,lettSwt,j,0.6144,noRew,,,,,,0,29,0,29,0,1,,,,,,,,,,,,,,,,,
296362,2022-11-29_16h07.32.391,vts_reward_expectancy_bt,2022.2.4,Win32,61.01281269,Chrome,1366,768,,,,,0,657,,,,,,,,,,,,,,,,,167,W,star,1,0,,,,,,,,,,,,,,,,repeat,letter,lettRpt,k,0.5314,noRew,,,,,,0,30,0,30,0,1,,,,,,,,,,,,,,,,,
296362,2022-11-29_16h07.32.391,vts_reward_expectancy_bt,2022.2.4,Win32,61.01281269,Chrome,1366,768,,,,,0,657,,,,,,,,,,,,,,,,,132,U,triangle,1,0,,,,,,,,,,,,,,,,switch,number,numSwt,d,0.6676,noRew,,,,,,0,31,0,31,0,1,,,,,,,,,,,,,,,,,
296362,2022-11-29_16h07.32.391,vts_reward_expectancy_bt,2022.2.4,Win32,61.01281269,Chrome,1366,768,,,,,0,657,,,,,,,,,,,,,,,,,181,U,triangle,1,0,,,,,,,,,,,,,,,,repeat,number,numRpt,f,0.8836,noRew,,,,,,0,32,0,32,0,1,,,,,,,,,,,,,,,,,
296362,2022-11-29_16h07.32.391,vts_reward_expectancy_bt,2022.2.4,Win32,61.01281269,Chrome,1366,768,,,,,0,657,,,,,,,,,,,,,,,,,174,H,star,1,0,,,,,,,,,,,,,,,,switch,letter,lettSwt,j,0.9577,noRew,,,,,,0,33,0,33,0,1,,,,,,,,,,,,,,,,,
296362,2022-11-29_16h07.32.391,vts_reward_expectancy_bt,2022.2.4,Win32,61.01281269,Chrome,1366,768,,,,,0,657,,,,,,,,,,,,,,,,,160,W,triangle,1,0,,,,,,,,,,,,,,,,repeat,letter,lettRpt,k,1.0166,noRew,,,,,,0,34,0,34,0,1,,,,,,,,,,,,,,,,,
296362,2022-11-29_16h07.32.391,vts_reward_expectancy_bt,2022.2.4,Win32,61.01281269,Chrome,1366,768,,,,,0,657,,,,,,,,,,,,,,,,,125,F,hexagon,1,0,,,,,,,,,,,,,,,,switch,number,numSwt,d,0.8994,noRew,,,,,,0,35,0,35,0,1,,,,,,,,,,,,,,,,,
296362,2022-11-29_16h07.32.391,vts_reward_expectancy_bt,2022.2.4,Win32,61.01281269,Chrome,1366,768,,,,,0,657,,,,,,,,,,,,,,,,,132,B,hexagon,1,0,,,,,,,,,,,,,,,,switch,letter,lettSwt,j,0.7565,noRew,,,,,,0,36,0,36,0,1,,,,,,,,,,,,,,,,,
296362,2022-11-29_16h07.32.391,vts_reward_expectancy_bt,2022.2.4,Win32,61.01281269,Chrome,1366,768,,,,,0,657,,,,,,,,,,,,,,,,,174,Y,triangle,1,0,,,,,,,,,,,,,,,,switch,number,numSwt,f,0.6343,noRew,,,,,,0,37,0,37,0,1,,,,,,,,,,,,,,,,,
296362,2022-11-29_16h07.32.391,vts_reward_expectancy_bt,2022.2.4,Win32,61.01281269,Chrome,1366,768,,,,,0,657,,,,,,,,,,,,,,,,,167,S,triangle,1,0,,,,,,,,,,,,,,,,switch,letter,lettSwt,k,1.1814,noRew,,,,,,0,38,0,38,0,1,,,,,,,,,,,,,,,,,
296362,2022-11-29_16h07.32.391,vts_reward_expectancy_bt,2022.2.4,Win32,61.01281269,Chrome,1366,768,,,,,0,657,,,,,,,,,,,,,,,,,139,W,star,1,0,,,,,,,,,,,,,,,,switch,number,numSwt,d,0.7152,noRew,,,,,,0,39,0,39,0,1,,,,,,,,,,,,,,,,,
296362,2022-11-29_16h07.32.391,vts_reward_expectancy_bt,2022.2.4,Win32,61.01281269,Chrome,1366,768,,,,,0,657,,,,,,,,,,,,,,,,,167,H,triangle,1,0,,,,,,,,,,,,,,,,switch,letter,lettSwt,j,1.0402,noRew,,,,,,0,40,0,40,0,1,,,,,,,,,,,,,,,,,
296362,2022-11-29_16h07.32.391,vts_reward_expectancy_bt,2022.2.4,Win32,61.01281269,Chrome,1366,768,,,,,0,657,,,,,,,,,,,,,,,,,132,F,star,1,0,,,,,,,,,,,,,,,,switch,number,numSwt,d,1.4665,noRew,,,,,,0,41,0,41,0,1,,,,,,,,,,,,,,,,,
296362,2022-11-29_16h07.32.391,vts_reward_expectancy_bt,2022.2.4,Win32,61.01281269,Chrome,1366,768,,,,,0,657,,,,,,,,,,,,,,,,,160,U,triangle,1,0,,,,,,,,,,,,,,,,switch,letter,lettSwt,k,0.8335,noRew,,,,,,0,42,0,42,0,1,,,,,,,,,,,,,,,,,
296362,2022-11-29_16h07.32.391,vts_reward_expectancy_bt,2022.2.4,Win32,61.01281269,Chrome,1366,768,,,,,0,657,,,,,,,,,,,,,,,,,146,W,star,1,0,,,,,,,,,,,,,,,,repeat,letter,lettRpt,k,0.8644,noRew,,,,,,0,43,0,43,0,1,,,,,,,,,,,,,,,,,
296362,2022-11-29_16h07.32.391,vts_reward_expectancy_bt,2022.2.4,Win32,61.01281269,Chrome,1366,768,,,,,0,657,,,,,,,,,,,,,,,,,139,U,hexagon,1,0,,,,,,,,,,,,,,,,switch,number,numSwt,d,0.6482,noRew,,,,,,0,44,0,44,0,1,,,,,,,,,,,,,,,,,
296362,2022-11-29_16h07.32.391,vts_reward_expectancy_bt,2022.2.4,Win32,61.01281269,Chrome,1366,768,,,,,0,657,,,,,,,,,,,,,,,,,167,H,star,1,0,,,,,,,,,,,,,,,,repeat,number,numRpt,f,0.9715,noRew,,,,,,0,45,0,45,0,1,,,,,,,,,,,,,,,,,
296362,2022-11-29_16h07.32.391,vts_reward_expectancy_bt,2022.2.4,Win32,61.01281269,Chrome,1366,768,,,,,0,657,,,,,,,,,,,,,,,,,132,Y,triangle,1,0,,,,,,,,,,,,,,,,switch,letter,lettSwt,k,0.8454,noRew,,,,,,0,46,0,46,0,1,,,,,,,,,,,,,,,,,
296362,2022-11-29_16h07.32.391,vts_reward_expectancy_bt,2022.2.4,Win32,61.01281269,Chrome,1366,768,,,,,0,657,,,,,,,,,,,,,,,,,181,S,circle,1,0,,,,,,,,,,,,,,,,repeat,letter,lettRpt,k,0.6083,noRew,,,,,,0,47,0,47,0,1,,,,,,,,,,,,,,,,,
296362,2022-11-29_16h07.32.391,vts_reward_expectancy_bt,2022.2.4,Win32,61.01281269,Chrome,1366,768,,,,,0,657,,,,,,,,,,,,,,,,,167,F,star,1,0,,,,,,,,,,,,,,,,switch,number,numSwt,f,0.994,noRew,,,,,,0,48,0,48,0,1,,,,,,,,,,,,,,,,,
296362,2022-11-29_16h07.32.391,vts_reward_expectancy_bt,2022.2.4,Win32,61.01281269,Chrome,1366,768,,,,,0,657,,,,,,,,,,,,,,,,,160,D,triangle,1,0,,,,,,,,,,,,,,,,repeat,number,numRpt,f,0.8502,noRew,,,,,,0,49,0,49,0,1,,,,,,,,,,,,,,,,,
296362,2022-11-29_16h07.32.391,vts_reward_expectancy_bt,2022.2.4,Win32,61.01281269,Chrome,1366,768,,,,,0,657,,,,,,,,,,,,,,,,,132,U,triangle,1,0,,,,,,,,,,,,,,,,repeat,number,numRpt,d,0.5919,noRew,,,,,,0,50,0,50,0,1,,,,,,,,,,,,,,,,,
296362,2022-11-29_16h07.32.391,vts_reward_expectancy_bt,2022.2.4,Win32,61.01281269,Chrome,1366,768,,,,,0,657,,,,,,,,,,,,,,,,,125,B,star,1,0,,,,,,,,,,,,,,,,repeat,number,numRpt,d,0.6992,noRew,,,,,,0,51,0,51,0,1,,,,,,,,,,,,,,,,,
296362,2022-11-29_16h07.32.391,vts_reward_expectancy_bt,2022.2.4,Win32,61.01281269,Chrome,1366,768,,,,,0,657,,,,,,,,,,,,,,,,,125,H,star,1,0,,,,,,,,,,,,,,,,switch,letter,lettSwt,j,1.1063,noRew,,,,,,0,52,0,52,0,1,,,,,,,,,,,,,,,,,
296362,2022-11-29_16h07.32.391,vts_reward_expectancy_bt,2022.2.4,Win32,61.01281269,Chrome,1366,768,,,,,0,657,,,,,,,,,,,,,,,,,139,W,circle,1,0,,,,,,,,,,,,,,,,switch,number,numSwt,d,0.6499,noRew,,,,,,0,53,0,53,0,1,,,,,,,,,,,,,,,,,
296362,2022-11-29_16h07.32.391,vts_reward_expectancy_bt,2022.2.4,Win32,61.01281269,Chrome,1366,768,,,,,0,657,,,,,,,,,,,,,,,,,174,F,hexagon,1,0,,,,,,,,,,,,,,,,repeat,number,numRpt,f,0.8313,noRew,,,,,,0,54,0,54,0,1,,,,,,,,,,,,,,,,,
296362,2022-11-29_16h07.32.391,vts_reward_expectancy_bt,2022.2.4,Win32,61.01281269,Chrome,1366,768,,,,,0,657,,,,,,,,,,,,,,,,,160,B,circle,1,0,,,,,,,,,,,,,,,,switch,letter,lettSwt,j,1.1763,noRew,,,,,,0,55,0,55,0,1,,,,,,,,,,,,,,,,,
296362,2022-11-29_16h07.32.391,vts_reward_expectancy_bt,2022.2.4,Win32,61.01281269,Chrome,1366,768,,,,,0,657,,,,,,,,,,,,,,,,,146,Y,triangle,1,0,,,,,,,,,,,,,,,,switch,number,numSwt,d,0.8091,noRew,,,,,,0,56,0,56,0,1,,,,,,,,,,,,,,,,,
296362,2022-11-29_16h07.32.391,vts_reward_expectancy_bt,2022.2.4,Win32,61.01281269,Chrome,1366,768,,,,,0,657,,,,,,,,,,,,,,,,,132,F,circle,1,0,,,,,,,,,,,,,,,,switch,letter,lettSwt,j,1.1331,noRew,,,,,,0,57,0,57,0,1,,,,,,,,,,,,,,,,,
296362,2022-11-29_16h07.32.391,vts_reward_expectancy_bt,2022.2.4,Win32,61.01281269,Chrome,1366,768,,,,,0,657,,,,,,,,,,,,,,,,,160,D,star,1,0,,,,,,,,,,,,,,,,switch,number,numSwt,f,2.0245,noRew,,,,,,0,58,0,58,0,1,,,,,,,,,,,,,,,,,
296362,2022-11-29_16h07.32.391,vts_reward_expectancy_bt,2022.2.4,Win32,61.01281269,Chrome,1366,768,,,,,0,657,,,,,,,,,,,,,,,,,174,W,circle,1,0,,,,,,,,,,,,,,,,repeat,number,numRpt,f,0.9816,noRew,,,,,,0,59,0,59,0,1,,,,,,,,,,,,,,,,,
296362,2022-11-29_16h07.32.391,vts_reward_expectancy_bt,2022.2.4,Win32,61.01281269,Chrome,1366,768,,,,,0,657,,,,,,,,,,,,,,,,,132,U,star,1,0,,,,,,,,,,,,,,,,repeat,number,numRpt,d,1.1708,noRew,,,,,,0,60,0,60,0,1,,,,,,,,,,,,,,,,,
296362,2022-11-29_16h07.32.391,vts_reward_expectancy_bt,2022.2.4,Win32,61.01281269,Chrome,1366,768,,,,,0,657,,,,,,,,,,,,,,,,,125,Y,hexagon,1,0,,,,,,,,,,,,,,,,switch,letter,lettSwt,k,0.7492,noRew,,,,,,0,61,0,61,0,1,,,,,,,,,,,,,,,,,
296362,2022-11-29_16h07.32.391,vts_reward_expectancy_bt,2022.2.4,Win32,61.01281269,Chrome,1366,768,,,,,0,657,,,,,,,,,,,,,,,,,160,S,triangle,1,0,,,,,,,,,,,,,,,,repeat,letter,lettRpt,k,1.4824,noRew,,,,,,0,62,0,62,0,1,,,,,,,,,,,,,,,,,
296362,2022-11-29_16h07.32.391,vts_reward_expectancy_bt,2022.2.4,Win32,61.01281269,Chrome,1366,768,,,,,0,657,,,,,,,,,,,,,,,,,174,H,hexagon,1,0,,,,,,,,,,,,,,,,switch,number,numSwt,f,1.0829,noRew,,,,,,0,63,0,63,0,1,,,,,,,,,,,,,,,,,
296362,2022-11-29_16h07.32.391,vts_reward_expectancy_bt,2022.2.4,Win32,61.01281269,Chrome,1366,768,,,,,,,,,,,,,,,,,,,,,,,,,,,,,,,,,,,,,,,,,,,,,,,,,,,,,,,,,,,,,,,,,,,,,,,,,,,,
296362,2022-11-29_16h07.32.391,vts_reward_expectancy_bt,2022.2.4,Win32,61.01281269,Chrome,1366,768,,,,,0,657,,,,,,,,,,,,,,,,,160,S,circle,1,0,,,,,,,,,,,,,,,,repeat,number,numRpt,f,0.8643,Hi,,,,,,0,,,,,,space,3.8204,low,0,0,0,0,1,,,,,,,,,
296362,2022-11-29_16h07.32.391,vts_reward_expectancy_bt,2022.2.4,Win32,61.01281269,Chrome,1366,768,,,,,1,658,,,,,,,,,,,,,,,,,132,Y,star,1,0,,,,,,,,,,,,,,,,repeat,number,numRpt,d,0.6178,Hi,,,,,,0,,,,,,,,low,1,0,1,0,1,,,,,,,,,
296362,2022-11-29_16h07.32.391,vts_reward_expectancy_bt,2022.2.4,Win32,61.01281269,Chrome,1366,768,,,,,10,668,,,,,,,,,,,,,,,,,139,D,triangle,1,0,,,,,,,,,,,,,,,,switch,letter,lettSwt,j,0.5657,Lo,,,,,,0,,,,,,,,low,2,0,2,0,1,,,,,,,,,
296362,2022-11-29_16h07.32.391,vts_reward_expectancy_bt,2022.2.4,Win32,61.01281269,Chrome,1366,768,,,,,10,678,,,,,,,,,,,,,,,,,125,U,hexagon,1,0,,,,,,,,,,,,,,,,repeat,letter,lettRpt,k,0.7042,Lo,,,,,,0,,,,,,,,low,3,0,3,0,1,,,,,,,,,
296362,2022-11-29_16h07.32.391,vts_reward_expectancy_bt,2022.2.4,Win32,61.01281269,Chrome,1366,768,,,,,1,679,,,,,,,,,,,,,,,,,146,B,circle,1,0,,,,,,,,,,,,,,,,switch,number,numSwt,d,0.4336,Hi,,,,,,0,,,,,,,,low,4,0,4,0,1,,,,,,,,,
296362,2022-11-29_16h07.32.391,vts_reward_expectancy_bt,2022.2.4,Win32,61.01281269,Chrome,1366,768,,,,,0,679,,,,,,,,,,,,,,,,,174,W,star,0,0,,,,,,,,,,,,,,,,repeat,number,NA,d,0.5531,Hi,,,,,,0,,,,,,,,low,5,0,5,0,1,,,,,,,,,
296362,2022-11-29_16h07.32.391,vts_reward_expectancy_bt,2022.2.4,Win32,61.01281269,Chrome,1366,768,,,,,1,680,,,,,,,,,,,,,,,,,181,H,triangle,1,1,,,,,,,,,,,,,,,,repeat,number,numRpt,f,0.5868,Lo,,,,,,0,,,,,,,,low,6,0,6,0,1,,,,,,,,,
296362,2022-11-29_16h07.32.391,vts_reward_expectancy_bt,2022.2.4,Win32,61.01281269,Chrome,1366,768,,,,,1,681,,,,,,,,,,,,,,,,,167,F,hexagon,1,0,,,,,,,,,,,,,,,,switch,letter,lettSwt,j,0.6647,Lo,,,,,,0,,,,,,,,low,7,0,7,0,1,,,,,,,,,
296362,2022-11-29_16h07.32.391,vts_reward_expectancy_bt,2022.2.4,Win32,61.01281269,Chrome,1366,768,,,,,1,682,,,,,,,,,,,,,,,,,160,S,triangle,1,0,,,,,,,,,,,,,,,,switch,number,numSwt,f,0.4766,Lo,,,,,,0,,,,,,,,low,8,0,8,0,1,,,,,,,,,
296362,2022-11-29_16h07.32.391,vts_reward_expectancy_bt,2022.2.4,Win32,61.01281269,Chrome,1366,768,,,,,1,683,,,,,,,,,,,,,,,,,132,Y,hexagon,1,0,,,,,,,,,,,,,,,,switch,letter,lettSwt,k,0.7489,Lo,,,,,,0,,,,,,,,low,9,0,9,0,1,,,,,,,,,
296362,2022-11-29_16h07.32.391,vts_reward_expectancy_bt,2022.2.4,Win32,61.01281269,Chrome,1366,768,,,,,10,693,,,,,,,,,,,,,,,,,139,D,star,1,0,,,,,,,,,,,,,,,,repeat,letter,lettRpt,j,0.467,Hi,,,,,,0,,,,,,,,low,10,0,10,0,1,,,,,,,,,
296362,2022-11-29_16h07.32.391,vts_reward_expectancy_bt,2022.2.4,Win32,61.01281269,Chrome,1366,768,,,,,10,703,,,,,,,,,,,,,,,,,125,U,circle,1,0,,,,,,,,,,,,,,,,repeat,letter,lettRpt,k,0.6083,Hi,,,,,,0,,,,,,,,low,11,0,11,0,1,,,,,,,,,
296362,2022-11-29_16h07.32.391,vts_reward_expectancy_bt,2022.2.4,Win32,61.01281269,Chrome,1366,768,,,,,10,713,,,,,,,,,,,,,,,,,146,B,triangle,1,0,,,,,,,,,,,,,,,,switch,number,numSwt,d,1.0813,Lo,,,,,,0,,,,,,,,low,12,0,12,0,1,,,,,,,,,
296362,2022-11-29_16h07.32.391,vts_reward_expectancy_bt,2022.2.4,Win32,61.01281269,Chrome,1366,768,,,,,10,723,,,,,,,,,,,,,,,,,174,W,hexagon,1,0,,,,,,,,,,,,,,,,repeat,number,numRpt,f,0.7039,Lo,,,,,,0,,,,,,,,low,13,0,13,0,1,,,,,,,,,
296362,2022-11-29_16h07.32.391,vts_reward_expectancy_bt,2022.2.4,Win32,61.01281269,Chrome,1366,768,,,,,0,723,,,,,,,,,,,,,,,,,181,H,circle,0,0,,,,,,,,,,,,,,,,switch,letter,NA,k,0.7005,Lo,,,,,,0,,,,,,,,low,14,0,14,0,1,,,,,,,,,
296362,2022-11-29_16h07.32.391,vts_reward_expectancy_bt,2022.2.4,Win32,61.01281269,Chrome,1366,768,,,,,0,723,,,,,,,,,,,,,,,,,167,F,star,1,1,,,,,,,,,,,,,,,,repeat,letter,lettRpt,j,0.6836,Hi,,,,,,0,,,,,,,,low,15,0,15,0,1,,,,,,,,,
296362,2022-11-29_16h07.32.391,vts_reward_expectancy_bt,2022.2.4,Win32,61.01281269,Chrome,1366,768,,,,,0,723,,,,,,,,,,,,,,,,,132,W,circle,1,0,,,,,,,,,,,,,,,,repeat,letter,lettRpt,k,0.814,Hi,,,,,,0,,,,,,,,low,16,0,16,0,1,,,,,,,,,
296362,2022-11-29_16h07.32.391,vts_reward_expectancy_bt,2022.2.4,Win32,61.01281269,Chrome,1366,768,,,,,10,733,,,,,,,,,,,,,,,,,125,U,hexagon,1,0,,,,,,,,,,,,,,,,repeat,letter,lettRpt,k,0.6544,Lo,,,,,,0,,,,,,,,low,17,0,17,0,1,,,,,,,,,
296362,2022-11-29_16h07.32.391,vts_reward_expectancy_bt,2022.2.4,Win32,61.01281269,Chrome,1366,768,,,,,10,743,,,,,,,,,,,,,,,,,139,B,star,1,0,,,,,,,,,,,,,,,,repeat,letter,lettRpt,j,0.4337,Hi,,,,,,0,,,,,,,,low,18,0,18,0,1,,,,,,,,,
296362,2022-11-29_16h07.32.391,vts_reward_expectancy_bt,2022.2.4,Win32,61.01281269,Chrome,1366,768,,,,,10,753,,,,,,,,,,,,,,,,,146,D,triangle,1,0,,,,,,,,,,,,,,,,switch,number,numSwt,d,0.5212,Lo,,,,,,0,,,,,,,,low,19,0,19,0,1,,,,,,,,,
296362,2022-11-29_16h07.32.391,vts_reward_expectancy_bt,2022.2.4,Win32,61.01281269,Chrome,1366,768,,,,,10,763,,,,,,,,,,,,,,,,,167,H,star,1,0,,,,,,,,,,,,,,,,repeat,number,numRpt,f,0.4118,Hi,,,,,,0,,,,,,,,low,20,0,20,0,1,,,,,,,,,
296362,2022-11-29_16h07.32.391,vts_reward_expectancy_bt,2022.2.4,Win32,61.01281269,Chrome,1366,768,,,,,10,773,,,,,,,,,,,,,,,,,160,Y,triangle,1,0,,,,,,,,,,,,,,,,switch,letter,lettSwt,k,0.5333,Lo,,,,,,0,,,,,,,,low,21,0,21,0,1,,,,,,,,,
296362,2022-11-29_16h07.32.391,vts_reward_expectancy_bt,2022.2.4,Win32,61.01281269,Chrome,1366,768,,,,,10,783,,,,,,,,,,,,,,,,,174,F,circle,1,0,,,,,,,,,,,,,,,,switch,number,numSwt,f,0.4335,Hi,,,,,,0,,,,,,,,low,22,0,22,0,1,,,,,,,,,
296362,2022-11-29_16h07.32.391,vts_reward_expectancy_bt,2022.2.4,Win32,61.01281269,Chrome,1366,768,,,,,1,784,,,,,,,,,,,,,,,,,181,S,hexagon,1,0,,,,,,,,,,,,,,,,switch,letter,lettSwt,k,0.4039,Lo,,,,,,0,,,,,,,,low,23,0,23,0,1,,,,,,,,,
296362,2022-11-29_16h07.32.391,vts_reward_expectancy_bt,2022.2.4,Win32,61.01281269,Chrome,1366,768,,,,,1,785,,,,,,,,,,,,,,,,,139,S,hexagon,1,0,,,,,,,,,,,,,,,,switch,number,numSwt,d,0.5154,Lo,,,,,,0,,,,,,,,low,24,0,24,0,1,,,,,,,,,
296362,2022-11-29_16h07.32.391,vts_reward_expectancy_bt,2022.2.4,Win32,61.01281269,Chrome,1366,768,,,,,0,785,,,,,,,,,,,,,,,,,174,F,triangle,0,0,,,,,,,,,,,,,,,,switch,letter,NA,k,0.5006,Lo,,,,,,0,,,,,,,,low,25,0,25,0,1,,,,,,,,,
296362,2022-11-29_16h07.32.391,vts_reward_expectancy_bt,2022.2.4,Win32,61.01281269,Chrome,1366,768,,,,,1,786,,,,,,,,,,,,,,,,,125,D,circle,1,1,,,,,,,,,,,,,,,,switch,number,numSwt,d,0.5696,Hi,,,,,,0,,,,,,,,low,26,0,26,0,1,,,,,,,,,
296362,2022-11-29_16h07.32.391,vts_reward_expectancy_bt,2022.2.4,Win32,61.01281269,Chrome,1366,768,,,,,1,787,,,,,,,,,,,,,,,,,132,H,star,1,0,,,,,,,,,,,,,,,,repeat,number,numRpt,d,0.3996,Hi,,,,,,0,,,,,,,,low,27,0,27,0,1,,,,,,,,,
296362,2022-11-29_16h07.32.391,vts_reward_expectancy_bt,2022.2.4,Win32,61.01281269,Chrome,1366,768,,,,,1,788,,,,,,,,,,,,,,,,,160,Y,hexagon,1,0,,,,,,,,,,,,,,,,switch,letter,lettSwt,k,0.4299,Lo,,,,,,0,,,,,,,,low,28,0,28,0,1,,,,,,,,,
296362,2022-11-29_16h07.32.391,vts_reward_expectancy_bt,2022.2.4,Win32,61.01281269,Chrome,1366,768,,,,,10,798,,,,,,,,,,,,,,,,,181,W,triangle,1,0,,,,,,,,,,,,,,,,switch,number,numSwt,f,0.4337,Lo,,,,,,0,,,,,,,,low,29,0,29,0,1,,,,,,,,,
296362,2022-11-29_16h07.32.391,vts_reward_expectancy_bt,2022.2.4,Win32,61.01281269,Chrome,1366,768,,,,,10,808,,,,,,,,,,,,,,,,,146,B,star,1,0,,,,,,,,,,,,,,,,repeat,number,numRpt,d,0.4663,Hi,,,,,,0,,,,,,,,low,30,0,30,0,1,,,,,,,,,
296362,2022-11-29_16h07.32.391,vts_reward_expectancy_bt,2022.2.4,Win32,61.01281269,Chrome,1366,768,,,,,1,809,,,,,,,,,,,,,,,,,167,U,circle,1,0,,,,,,,,,,,,,,,,switch,letter,lettSwt,k,0.7928,Hi,,,,,,0,,,,,,,,low,31,0,31,0,1,,,,,,,,,
296362,2022-11-29_16h07.32.391,vts_reward_expectancy_bt,2022.2.4,Win32,61.01281269,Chrome,1366,768,,,,,10,819,,,,,,,,,,,,,,,,,125,B,triangle,1,0,,,,,,,,,,,,,,,,switch,number,numSwt,d,0.6177,Lo,,,,,,1,,,,,,space,10.2787,low,0,0,0,0,1,,,,,,,,,
296362,2022-11-29_16h07.32.391,vts_reward_expectancy_bt,2022.2.4,Win32,61.01281269,Chrome,1366,768,,,,,1,820,,,,,,,,,,,,,,,,,181,H,hexagon,1,0,,,,,,,,,,,,,,,,repeat,number,numRpt,f,0.8494,Lo,,,,,,1,,,,,,,,low,1,0,1,0,1,,,,,,,,,
296362,2022-11-29_16h07.32.391,vts_reward_expectancy_bt,2022.2.4,Win32,61.01281269,Chrome,1366,768,,,,,0,820,,,,,,,,,,,,,,,,,160,Y,circle,1,0,,,,,,,,,,,,,,,,switch,letter,lettSwt,k,0.7499,Hi,,,,,,1,,,,,,,,low,2,0,2,0,1,,,,,,,,,
296362,2022-11-29_16h07.32.391,vts_reward_expectancy_bt,2022.2.4,Win32,61.01281269,Chrome,1366,768,,,,,0,820,,,,,,,,,,,,,,,,,167,F,star,1,0,,,,,,,,,,,,,,,,repeat,letter,lettRpt,j,0.6181,Hi,,,,,,1,,,,,,,,low,3,0,3,0,1,,,,,,,,,
296362,2022-11-29_16h07.32.391,vts_reward_expectancy_bt,2022.2.4,Win32,61.01281269,Chrome,1366,768,,,,,10,830,,,,,,,,,,,,,,,,,146,U,triangle,1,0,,,,,,,,,,,,,,,,switch,number,numSwt,d,1.2832,Lo,,,,,,1,,,,,,,,low,4,0,4,0,1,,,,,,,,,
296362,2022-11-29_16h07.32.391,vts_reward_expectancy_bt,2022.2.4,Win32,61.01281269,Chrome,1366,768,,,,,1,831,,,,,,,,,,,,,,,,,132,W,hexagon,1,0,,,,,,,,,,,,,,,,switch,letter,lettSwt,k,0.724,Lo,,,,,,1,,,,,,,,low,5,0,5,0,1,,,,,,,,,
296362,2022-11-29_16h07.32.391,vts_reward_expectancy_bt,2022.2.4,Win32,61.01281269,Chrome,1366,768,,,,,0,831,,,,,,,,,,,,,,,,,139,D,circle,1,0,,,,,,,,,,,,,,,,repeat,letter,lettRpt,j,0.6491,Hi,,,,,,1,,,,,,,,low,6,0,6,0,1,,,,,,,,,
296362,2022-11-29_16h07.32.391,vts_reward_expectancy_bt,2022.2.4,Win32,61.01281269,Chrome,1366,768,,,,,0,831,,,,,,,,,,,,,,,,,174,S,star,0,0,,,,,,,,,,,,,,,,repeat,letter,NA,j,0.4265,Hi,,,,,,1,,,,,,,,low,7,0,7,0,1,,,,,,,,,
296362,2022-11-29_16h07.32.391,vts_reward_expectancy_bt,2022.2.4,Win32,61.01281269,Chrome,1366,768,,,,,0,831,,,,,,,,,,,,,,,,,125,B,circle,0,1,,,,,,,,,,,,,,,,repeat,letter,NA,k,0.4337,Hi,,,,,,1,,,,,,,,low,8,0,8,0,1,,,,,,,,,
296362,2022-11-29_16h07.32.391,vts_reward_expectancy_bt,2022.2.4,Win32,61.01281269,Chrome,1366,768,,,,,1,832,,,,,,,,,,,,,,,,,181,H,triangle,1,1,,,,,,,,,,,,,,,,repeat,letter,lettRpt,j,0.6157,Lo,,,,,,1,,,,,,,,low,9,0,9,0,1,,,,,,,,,
296362,2022-11-29_16h07.32.391,vts_reward_expectancy_bt,2022.2.4,Win32,61.01281269,Chrome,1366,768,,,,,10,842,,,,,,,,,,,,,,,,,160,Y,star,1,0,,,,,,,,,,,,,,,,repeat,letter,lettRpt,k,0.4088,Hi,,,,,,1,,,,,,,,low,10,0,10,0,1,,,,,,,,,
296362,2022-11-29_16h07.32.391,vts_reward_expectancy_bt,2022.2.4,Win32,61.01281269,Chrome,1366,768,,,,,0,842,,,,,,,,,,,,,,,,,167,F,hexagon,0,0,,,,,,,,,,,,,,,,switch,number,NA,d,0.5263,Hi,,,,,,1,,,,,,,,low,11,0,11,0,1,,,,,,,,,
296362,2022-11-29_16h07.32.391,vts_reward_expectancy_bt,2022.2.4,Win32,61.01281269,Chrome,1366,768,,,,,10,852,,,,,,,,,,,,,,,,,146,U,star,1,1,,,,,,,,,,,,,,,,repeat,number,numRpt,d,0.4504,Hi,,,,,,1,,,,,,,,low,12,0,12,0,1,,,,,,,,,
296362,2022-11-29_16h07.32.391,vts_reward_expectancy_bt,2022.2.4,Win32,61.01281269,Chrome,1366,768,,,,,0,852,,,,,,,,,,,,,,,,,132,W,circle,1,0,,,,,,,,,,,,,,,,repeat,number,numRpt,d,0.5505,Hi,,,,,,1,,,,,,,,low,13,0,13,0,1,,,,,,,,,
296362,2022-11-29_16h07.32.391,vts_reward_expectancy_bt,2022.2.4,Win32,61.01281269,Chrome,1366,768,,,,,0,852,,,,,,,,,,,,,,,,,139,D,hexagon,0,0,,,,,,,,,,,,,,,,switch,letter,NA,k,0.399,Hi,,,,,,1,,,,,,,,low,14,0,14,0,1,,,,,,,,,
296362,2022-11-29_16h07.32.391,vts_reward_expectancy_bt,2022.2.4,Win32,61.01281269,Chrome,1366,768,,,,,1,853,,,,,,,,,,,,,,,,,174,S,triangle,1,1,,,,,,,,,,,,,,,,repeat,letter,lettRpt,k,0.6836,Lo,,,,,,1,,,,,,,,low,15,0,15,0,1,,,,,,,,,
296362,2022-11-29_16h07.32.391,vts_reward_expectancy_bt,2022.2.4,Win32,61.01281269,Chrome,1366,768,,,,,1,854,,,,,,,,,,,,,,,,,174,H,triangle,1,0,,,,,,,,,,,,,,,,switch,number,numSwt,f,0.9832,Lo,,,,,,1,,,,,,,,low,16,0,16,0,1,,,,,,,,,
296362,2022-11-29_16h07.32.391,vts_reward_expectancy_bt,2022.2.4,Win32,61.01281269,Chrome,1366,768,,,,,1,855,,,,,,,,,,,,,,,,,125,U,hexagon,1,0,,,,,,,,,,,,,,,,repeat,number,numRpt,d,0.6718,Lo,,,,,,1,,,,,,,,low,17,0,17,0,1,,,,,,,,,
296362,2022-11-29_16h07.32.391,vts_reward_expectancy_bt,2022.2.4,Win32,61.01281269,Chrome,1366,768,,,,,0,855,,,,,,,,,,,,,,,,,139,Y,star,1,0,,,,,,,,,,,,,,,,repeat,number,numRpt,d,0.5669,Hi,,,,,,1,,,,,,,,low,18,0,18,0,1,,,,,,,,,
296362,2022-11-29_16h07.32.391,vts_reward_expectancy_bt,2022.2.4,Win32,61.01281269,Chrome,1366,768,,,,,0,855,,,,,,,,,,,,,,,,,160,B,circle,0,0,,,,,,,,,,,,,,,,repeat,number,NA,d,0.6498,Hi,,,,,,1,,,,,,,,low,19,0,19,0,1,,,,,,,,,
296362,2022-11-29_16h07.32.391,vts_reward_expectancy_bt,2022.2.4,Win32,61.01281269,Chrome,1366,768,,,,,0,855,,,,,,,,,,,,,,,,,146,S,star,0,1,,,,,,,,,,,,,,,,repeat,number,NA,f,0.3771,Hi,,,,,,1,,,,,,,,low,20,0,20,0,1,,,,,,,,,
296362,2022-11-29_16h07.32.391,vts_reward_expectancy_bt,2022.2.4,Win32,61.01281269,Chrome,1366,768,,,,,10,865,,,,,,,,,,,,,,,,,181,W,circle,1,1,,,,,,,,,,,,,,,,switch,letter,lettSwt,k,0.4207,Hi,,,,,,1,,,,,,,,low,21,0,21,0,1,,,,,,,,,
296362,2022-11-29_16h07.32.391,vts_reward_expectancy_bt,2022.2.4,Win32,61.01281269,Chrome,1366,768,,,,,0,865,,,,,,,,,,,,,,,,,132,F,hexagon,0,0,,,,,,,,,,,,,,,,repeat,letter,NA,k,0.501,Hi,,,,,,1,,,,,,,,low,22,0,22,0,1,,,,,,,,,
296362,2022-11-29_16h07.32.391,vts_reward_expectancy_bt,2022.2.4,Win32,61.01281269,Chrome,1366,768,,,,,10,875,,,,,,,,,,,,,,,,,167,D,triangle,1,1,,,,,,,,,,,,,,,,repeat,letter,lettRpt,j,0.2678,Lo,,,,,,1,,,,,,,,low,23,0,23,0,1,,,,,,,,,
296362,2022-11-29_16h07.32.391,vts_reward_expectancy_bt,2022.2.4,Win32,61.01281269,Chrome,1366,768,,,,,0,875,,,,,,,,,,,,,,,,,125,F,circle,1,0,,,,,,,,,,,,,,,,repeat,letter,lettRpt,j,0.8086,Hi,,,,,,1,,,,,,,,low,24,0,24,0,1,,,,,,,,,
296362,2022-11-29_16h07.32.391,vts_reward_expectancy_bt,2022.2.4,Win32,61.01281269,Chrome,1366,768,,,,,1,876,,,,,,,,,,,,,,,,,167,W,hexagon,1,0,,,,,,,,,,,,,,,,repeat,letter,lettRpt,k,0.4717,Lo,,,,,,1,,,,,,,,low,25,0,25,0,1,,,,,,,,,
296362,2022-11-29_16h07.32.391,vts_reward_expectancy_bt,2022.2.4,Win32,61.01281269,Chrome,1366,768,,,,,1,877,,,,,,,,,,,,,,,,,132,Y,triangle,1,0,,,,,,,,,,,,,,,,switch,number,numSwt,d,0.4503,Lo,,,,,,1,,,,,,,,low,26,0,26,0,1,,,,,,,,,
296362,2022-11-29_16h07.32.391,vts_reward_expectancy_bt,2022.2.4,Win32,61.01281269,Chrome,1366,768,,,,,1,878,,,,,,,,,,,,,,,,,174,D,star,1,0,,,,,,,,,,,,,,,,repeat,number,numRpt,f,0.4499,Hi,,,,,,1,,,,,,,,low,27,0,27,0,1,,,,,,,,,
296362,2022-11-29_16h07.32.391,vts_reward_expectancy_bt,2022.2.4,Win32,61.01281269,Chrome,1366,768,,,,,1,879,,,,,,,,,,,,,,,,,139,U,triangle,1,0,,,,,,,,,,,,,,,,switch,letter,lettSwt,k,0.5513,Lo,,,,,,1,,,,,,,,low,28,0,28,0,1,,,,,,,,,
296362,2022-11-29_16h07.32.391,vts_reward_expectancy_bt,2022.2.4,Win32,61.01281269,Chrome,1366,768,,,,,0,879,,,,,,,,,,,,,,,,,146,B,hexagon,0,0,,,,,,,,,,,,,,,,repeat,letter,NA,k,0.7256,Lo,,,,,,1,,,,,,,,low,29,0,29,0,1,,,,,,,,,
296362,2022-11-29_16h07.32.391,vts_reward_expectancy_bt,2022.2.4,Win32,61.01281269,Chrome,1366,768,,,,,10,889,,,,,,,,,,,,,,,,,160,S,star,1,1,,,,,,,,,,,,,,,,repeat,letter,lettRpt,k,0.4845,Hi,,,,,,1,,,,,,,,low,30,0,30,0,1,,,,,,,,,
296362,2022-11-29_16h07.32.391,vts_reward_expectancy_bt,2022.2.4,Win32,61.01281269,Chrome,1366,768,,,,,0,889,,,,,,,,,,,,,,,,,181,H,circle,1,0,,,,,,,,,,,,,,,,repeat,letter,lettRpt,j,0.6495,Hi,,,,,,1,,,,,,,,low,31,0,31,0,1,,,,,,,,,
296362,2022-11-29_16h07.32.391,vts_reward_expectancy_bt,2022.2.4,Win32,61.01281269,Chrome,1366,768,,,,,1,890,,,,,,,,,,,,,,,,,139,Y,star,1,0,,,,,,,,,,,,,,,,switch,number,numSwt,d,0.516,Hi,,,,,,2,,,,,,space,1.743,low,0,0,0,0,1,,,,,,,,,
296362,2022-11-29_16h07.32.391,vts_reward_expectancy_bt,2022.2.4,Win32,61.01281269,Chrome,1366,768,,,,,0,890,,,,,,,,,,,,,,,,,181,F,triangle,0,0,,,,,,,,,,,,,,,,switch,letter,NA,k,0.438,Hi,,,,,,2,,,,,,,,low,1,0,1,0,1,,,,,,,,,
296362,2022-11-29_16h07.32.391,vts_reward_expectancy_bt,2022.2.4,Win32,61.01281269,Chrome,1366,768,,,,,10,900,,,,,,,,,,,,,,,,,125,U,circle,1,1,,,,,,,,,,,,,,,,switch,number,numSwt,d,0.4234,Hi,,,,,,2,,,,,,,,low,2,0,2,0,1,,,,,,,,,
296362,2022-11-29_16h07.32.391,vts_reward_expectancy_bt,2022.2.4,Win32,61.01281269,Chrome,1366,768,,,,,0,900,,,,,,,,,,,,,,,,,167,B,hexagon,0,0,,,,,,,,,,,,,,,,switch,letter,NA,k,0.4811,Hi,,,,,,2,,,,,,,,low,3,0,3,0,1,,,,,,,,,
296362,2022-11-29_16h07.32.391,vts_reward_expectancy_bt,2022.2.4,Win32,61.01281269,Chrome,1366,768,,,,,0,900,,,,,,,,,,,,,,,,,146,W,star,0,1,,,,,,,,,,,,,,,,switch,number,NA,f,0.3891,Hi,,,,,,2,,,,,,,,low,4,0,4,0,1,,,,,,,,,
296362,2022-11-29_16h07.32.391,vts_reward_expectancy_bt,2022.2.4,Win32,61.01281269,Chrome,1366,768,,,,,1,901,,,,,,,,,,,,,,,,,160,D,triangle,1,1,,,,,,,,,,,,,,,,switch,letter,lettSwt,j,0.6161,Lo,,,,,,2,,,,,,,,low,5,0,5,0,1,,,,,,,,,
296362,2022-11-29_16h07.32.391,vts_reward_expectancy_bt,2022.2.4,Win32,61.01281269,Chrome,1366,768,,,,,0,901,,,,,,,,,,,,,,,,,174,S,circle,1,0,,,,,,,,,,,,,,,,switch,number,numSwt,f,0.9965,Hi,,,,,,2,,,,,,,,low,6,0,6,0,1,,,,,,,,,
296362,2022-11-29_16h07.32.391,vts_reward_expectancy_bt,2022.2.4,Win32,61.01281269,Chrome,1366,768,,,,,1,902,,,,,,,,,,,,,,,,,132,H,hexagon,1,0,,,,,,,,,,,,,,,,repeat,number,numRpt,d,0.648,Lo,,,,,,2,,,,,,,,low,7,0,7,0,1,,,,,,,,,
296362,2022-11-29_16h07.32.391,vts_reward_expectancy_bt,2022.2.4,Win32,61.01281269,Chrome,1366,768,,,,,10,912,,,,,,,,,,,,,,,,,139,Y,circle,1,0,,,,,,,,,,,,,,,,switch,letter,lettSwt,k,0.4126,Hi,,,,,,2,,,,,,,,low,8,0,8,0,1,,,,,,,,,
296362,2022-11-29_16h07.32.391,vts_reward_expectancy_bt,2022.2.4,Win32,61.01281269,Chrome,1366,768,,,,,1,913,,,,,,,,,,,,,,,,,181,F,hexagon,1,0,,,,,,,,,,,,,,,,repeat,letter,lettRpt,j,0.485,Lo,,,,,,2,,,,,,,,low,9,0,9,0,1,,,,,,,,,
296362,2022-11-29_16h07.32.391,vts_reward_expectancy_bt,2022.2.4,Win32,61.01281269,Chrome,1366,768,,,,,0,913,,,,,,,,,,,,,,,,,125,U,star,1,0,,,,,,,,,,,,,,,,repeat,letter,lettRpt,k,0.9475,Hi,,,,,,2,,,,,,,,low,10,0,10,0,1,,,,,,,,,
296362,2022-11-29_16h07.32.391,vts_reward_expectancy_bt,2022.2.4,Win32,61.01281269,Chrome,1366,768,,,,,10,923,,,,,,,,,,,,,,,,,167,B,triangle,1,0,,,,,,,,,,,,,,,,switch,number,numSwt,f,0.7317,Lo,,,,,,2,,,,,,,,low,11,0,11,0,1,,,,,,,,,
296362,2022-11-29_16h07.32.391,vts_reward_expectancy_bt,2022.2.4,Win32,61.01281269,Chrome,1366,768,,,,,1,924,,,,,,,,,,,,,,,,,146,W,circle,1,0,,,,,,,,,,,,,,,,switch,letter,lettSwt,k,0.4288,Hi,,,,,,2,,,,,,,,low,12,0,12,0,1,,,,,,,,,
296362,2022-11-29_16h07.32.391,vts_reward_expectancy_bt,2022.2.4,Win32,61.01281269,Chrome,1366,768,,,,,1,925,,,,,,,,,,,,,,,,,160,D,hexagon,1,0,,,,,,,,,,,,,,,,switch,number,numSwt,f,0.6955,Lo,,,,,,2,,,,,,,,low,13,0,13,0,1,,,,,,,,,
296362,2022-11-29_16h07.32.391,vts_reward_expectancy_bt,2022.2.4,Win32,61.01281269,Chrome,1366,768,,,,,10,935,,,,,,,,,,,,,,,,,174,S,star,1,0,,,,,,,,,,,,,,,,switch,letter,lettSwt,k,0.432,Hi,,,,,,2,,,,,,,,low,14,0,14,0,1,,,,,,,,,
296362,2022-11-29_16h07.32.391,vts_reward_expectancy_bt,2022.2.4,Win32,61.01281269,Chrome,1366,768,,,,,1,936,,,,,,,,,,,,,,,,,132,H,triangle,1,0,,,,,,,,,,,,,,,,repeat,letter,lettRpt,j,0.733,Lo,,,,,,2,,,,,,,,low,15,0,15,0,1,,,,,,,,,
296362,2022-11-29_16h07.32.391,vts_reward_expectancy_bt,2022.2.4,Win32,61.01281269,Chrome,1366,768,,,,,0,936,,,,,,,,,,,,,,,,,174,D,star,1,0,,,,,,,,,,,,,,,,repeat,letter,lettRpt,j,0.5865,Hi,,,,,,2,,,,,,,,low,16,0,16,0,1,,,,,,,,,
296362,2022-11-29_16h07.32.391,vts_reward_expectancy_bt,2022.2.4,Win32,61.01281269,Chrome,1366,768,,,,,1,937,,,,,,,,,,,,,,,,,167,B,hexagon,1,0,,,,,,,,,,,,,,,,switch,number,numSwt,f,0.5797,Lo,,,,,,2,,,,,,,,low,17,0,17,0,1,,,,,,,,,
296362,2022-11-29_16h07.32.391,vts_reward_expectancy_bt,2022.2.4,Win32,61.01281269,Chrome,1366,768,,,,,10,947,,,,,,,,,,,,,,,,,160,S,circle,1,0,,,,,,,,,,,,,,,,switch,letter,lettSwt,k,0.4909,Hi,,,,,,2,,,,,,,,low,18,0,18,0,1,,,,,,,,,
296362,2022-11-29_16h07.32.391,vts_reward_expectancy_bt,2022.2.4,Win32,61.01281269,Chrome,1366,768,,,,,0,947,,,,,,,,,,,,,,,,,146,Y,triangle,0,0,,,,,,,,,,,,,,,,switch,number,NA,f,0.8027,Hi,,,,,,2,,,,,,,,low,19,0,19,0,1,,,,,,,,,
296362,2022-11-29_16h07.32.391,vts_reward_expectancy_bt,2022.2.4,Win32,61.01281269,Chrome,1366,768,,,,,1,948,,,,,,,,,,,,,,,,,125,U,triangle,1,1,,,,,,,,,,,,,,,,repeat,number,numRpt,d,0.7025,Lo,,,,,,2,,,,,,,,low,20,0,20,0,1,,,,,,,,,
296362,2022-11-29_16h07.32.391,vts_reward_expectancy_bt,2022.2.4,Win32,61.01281269,Chrome,1366,768,,,,,0,948,,,,,,,,,,,,,,,,,139,F,circle,1,0,,,,,,,,,,,,,,,,switch,letter,lettSwt,j,0.7443,Hi,,,,,,2,,,,,,,,low,21,0,21,0,1,,,,,,,,,
296362,2022-11-29_16h07.32.391,vts_reward_expectancy_bt,2022.2.4,Win32,61.01281269,Chrome,1366,768,,,,,1,949,,,,,,,,,,,,,,,,,132,W,hexagon,1,0,,,,,,,,,,,,,,,,repeat,letter,lettRpt,k,0.4113,Lo,,,,,,2,,,,,,,,low,22,0,22,0,1,,,,,,,,,
296362,2022-11-29_16h07.32.391,vts_reward_expectancy_bt,2022.2.4,Win32,61.01281269,Chrome,1366,768,,,,,0,949,,,,,,,,,,,,,,,,,181,H,star,0,0,,,,,,,,,,,,,,,,repeat,letter,NA,k,0.4187,Lo,,,,,,2,,,,,,,,low,23,0,23,0,1,,,,,,,,,
296362,2022-11-29_16h07.32.391,vts_reward_expectancy_bt,2022.2.4,Win32,61.01281269,Chrome,1366,768,,,,,0,949,,,,,,,,,,,,,,,,,146,U,triangle,0,1,,,,,,,,,,,,,,,,repeat,letter,NA,j,0.4865,Lo,,,,,,2,,,,,,,,low,24,0,24,0,1,,,,,,,,,
296362,2022-11-29_16h07.32.391,vts_reward_expectancy_bt,2022.2.4,Win32,61.01281269,Chrome,1366,768,,,,,10,959,,,,,,,,,,,,,,,,,181,D,star,1,1,,,,,,,,,,,,,,,,repeat,letter,lettRpt,j,0.4133,Hi,,,,,,2,,,,,,,,low,25,0,25,0,1,,,,,,,,,
296362,2022-11-29_16h07.32.391,vts_reward_expectancy_bt,2022.2.4,Win32,61.01281269,Chrome,1366,768,,,,,0,959,,,,,,,,,,,,,,,,,132,F,circle,1,0,,,,,,,,,,,,,,,,repeat,letter,lettRpt,j,0.6153,Hi,,,,,,2,,,,,,,,low,26,0,26,0,1,,,,,,,,,
296362,2022-11-29_16h07.32.391,vts_reward_expectancy_bt,2022.2.4,Win32,61.01281269,Chrome,1366,768,,,,,10,969,,,,,,,,,,,,,,,,,125,B,hexagon,1,0,,,,,,,,,,,,,,,,switch,number,numSwt,d,0.5133,Lo,,,,,,2,,,,,,,,low,27,0,27,0,1,,,,,,,,,
296362,2022-11-29_16h07.32.391,vts_reward_expectancy_bt,2022.2.4,Win32,61.01281269,Chrome,1366,768,,,,,1,970,,,,,,,,,,,,,,,,,160,S,star,1,0,,,,,,,,,,,,,,,,switch,letter,lettSwt,k,0.4171,Hi,,,,,,2,,,,,,,,low,28,0,28,0,1,,,,,,,,,
296362,2022-11-29_16h07.32.391,vts_reward_expectancy_bt,2022.2.4,Win32,61.01281269,Chrome,1366,768,,,,,0,970,,,,,,,,,,,,,,,,,174,Y,hexagon,0,0,,,,,,,,,,,,,,,,switch,number,NA,d,0.4637,Hi,,,,,,2,,,,,,,,low,29,0,29,0,1,,,,,,,,,
296362,2022-11-29_16h07.32.391,vts_reward_expectancy_bt,2022.2.4,Win32,61.01281269,Chrome,1366,768,,,,,0,970,,,,,,,,,,,,,,,,,139,H,circle,1,1,,,,,,,,,,,,,,,,repeat,number,numRpt,d,0.597,Hi,,,,,,2,,,,,,,,low,30,0,30,0,1,,,,,,,,,
296362,2022-11-29_16h07.32.391,vts_reward_expectancy_bt,2022.2.4,Win32,61.01281269,Chrome,1366,768,,,,,1,971,,,,,,,,,,,,,,,,,167,W,triangle,1,0,,,,,,,,,,,,,,,,repeat,number,numRpt,f,0.6546,Lo,,,,,,2,,,,,,,,low,31,0,31,0,1,,,,,,,,,
296362,2022-11-29_16h07.32.391,vts_reward_expectancy_bt,2022.2.4,Win32,61.01281269,Chrome,1366,768,,,,,1,972,,,,,,,,,,,,,,,,,160,U,star,1,0,,,,,,,,,,,,,,,,switch,letter,lettSwt,k,0.4283,Hi,,,,,,3,,,,,,space,0.5997,low,0,0,0,0,1,,,,,,,,,
296362,2022-11-29_16h07.32.391,vts_reward_expectancy_bt,2022.2.4,Win32,61.01281269,Chrome,1366,768,,,,,10,982,,,,,,,,,,,,,,,,,125,Y,hexagon,1,0,,,,,,,,,,,,,,,,switch,number,numSwt,d,0.4795,Lo,,,,,,3,,,,,,,,low,1,0,1,0,1,,,,,,,,,
296362,2022-11-29_16h07.32.391,vts_reward_expectancy_bt,2022.2.4,Win32,61.01281269,Chrome,1366,768,,,,,1,983,,,,,,,,,,,,,,,,,146,D,triangle,1,0,,,,,,,,,,,,,,,,switch,letter,lettSwt,j,0.6209,Lo,,,,,,3,,,,,,,,low,2,0,2,0,1,,,,,,,,,
296362,2022-11-29_16h07.32.391,vts_reward_expectancy_bt,2022.2.4,Win32,61.01281269,Chrome,1366,768,,,,,0,983,,,,,,,,,,,,,,,,,181,B,circle,1,0,,,,,,,,,,,,,,,,switch,number,numSwt,f,0.8466,Hi,,,,,,3,,,,,,,,low,3,0,3,0,1,,,,,,,,,
296362,2022-11-29_16h07.32.391,vts_reward_expectancy_bt,2022.2.4,Win32,61.01281269,Chrome,1366,768,,,,,1,984,,,,,,,,,,,,,,,,,139,W,star,1,0,,,,,,,,,,,,,,,,switch,letter,lettSwt,k,0.402,Hi,,,,,,3,,,,,,,,low,4,0,4,0,1,,,,,,,,,
296362,2022-11-29_16h07.32.391,vts_reward_expectancy_bt,2022.2.4,Win32,61.01281269,Chrome,1366,768,,,,,0,984,,,,,,,,,,,,,,,,,174,H,hexagon,0,0,,,,,,,,,,,,,,,,switch,number,NA,d,0.6061,Hi,,,,,,3,,,,,,,,low,5,0,5,0,1,,,,,,,,,
296362,2022-11-29_16h07.32.391,vts_reward_expectancy_bt,2022.2.4,Win32,61.01281269,Chrome,1366,768,,,,,10,994,,,,,,,,,,,,,,,,,132,S,triangle,1,1,,,,,,,,,,,,,,,,repeat,number,numRpt,d,0.6122,Lo,,,,,,3,,,,,,,,low,6,0,6,0,1,,,,,,,,,
296362,2022-11-29_16h07.32.391,vts_reward_expectancy_bt,2022.2.4,Win32,61.01281269,Chrome,1366,768,,,,,10,1004,,,,,,,,,,,,,,,,,167,F,circle,1,0,,,,,,,,,,,,,,,,repeat,number,numRpt,f,0.4487,Hi,,,,,,3,,,,,,,,low,7,0,7,0,1,,,,,,,,,
296362,2022-11-29_16h07.32.391,vts_reward_expectancy_bt,2022.2.4,Win32,61.01281269,Chrome,1366,768,,,,,0,1004,,,,,,,,,,,,,,,,,160,U,circle,1,0,,,,,,,,,,,,,,,,switch,letter,lettSwt,k,0.7354,Hi,,,,,,3,,,,,,,,low,8,0,8,0,1,,,,,,,,,
296362,2022-11-29_16h07.32.391,vts_reward_expectancy_bt,2022.2.4,Win32,61.01281269,Chrome,1366,768,,,,,1,1005,,,,,,,,,,,,,,,,,125,Y,triangle,1,0,,,,,,,,,,,,,,,,repeat,letter,lettRpt,k,0.4164,Lo,,,,,,3,,,,,,,,low,9,0,9,0,1,,,,,,,,,
296362,2022-11-29_16h07.32.391,vts_reward_expectancy_bt,2022.2.4,Win32,61.01281269,Chrome,1366,768,,,,,0,1005,,,,,,,,,,,,,,,,,146,D,star,0,0,,,,,,,,,,,,,,,,repeat,letter,NA,k,0.3867,Lo,,,,,,3,,,,,,,,low,10,0,10,0,1,,,,,,,,,
296362,2022-11-29_16h07.32.391,vts_reward_expectancy_bt,2022.2.4,Win32,61.01281269,Chrome,1366,768,,,,,1,1006,,,,,,,,,,,,,,,,,181,B,hexagon,1,1,,,,,,,,,,,,,,,,switch,number,numSwt,f,0.7024,Lo,,,,,,3,,,,,,,,low,11,0,11,0,1,,,,,,,,,
296362,2022-11-29_16h07.32.391,vts_reward_expectancy_bt,2022.2.4,Win32,61.01281269,Chrome,1366,768,,,,,1,1007,,,,,,,,,,,,,,,,,139,W,triangle,1,0,,,,,,,,,,,,,,,,switch,letter,lettSwt,k,0.4066,Lo,,,,,,3,,,,,,,,low,12,0,12,0,1,,,,,,,,,
296362,2022-11-29_16h07.32.391,vts_reward_expectancy_bt,2022.2.4,Win32,61.01281269,Chrome,1366,768,,,,,10,1017,,,,,,,,,,,,,,,,,174,H,hexagon,1,0,,,,,,,,,,,,,,,,switch,number,numSwt,f,0.1982,Lo,,,,,,3,,,,,,,,low,13,0,13,0,1,,,,,,,,,
296362,2022-11-29_16h07.32.391,vts_reward_expectancy_bt,2022.2.4,Win32,61.01281269,Chrome,1366,768,,,,,0,1017,,,,,,,,,,,,,,,,,132,S,star,0,0,,,,,,,,,,,,,,,,switch,letter,NA,j,0.2075,Lo,,,,,,3,,,,,,,,low,14,0,14,0,1,,,,,,,,,
296362,2022-11-29_16h07.32.391,vts_reward_expectancy_bt,2022.2.4,Win32,61.01281269,Chrome,1366,768,,,,,0,1017,,,,,,,,,,,,,,,,,167,F,circle,1,1,,,,,,,,,,,,,,,,repeat,letter,lettRpt,j,1.037,Hi,,,,,,3,,,,,,,,low,15,0,15,0,1,,,,,,,,,
296362,2022-11-29_16h07.32.391,vts_reward_expectancy_bt,2022.2.4,Win32,61.01281269,Chrome,1366,768,,,,,0,1017,,,,,,,,,,,,,,,,,160,S,hexagon,0,0,,,,,,,,,,,,,,,,switch,number,NA,d,2.6986,Hi,,,,,,3,,,,,,,,low,16,0,16,0,1,,,,,,,,,
296362,2022-11-29_16h07.32.391,vts_reward_expectancy_bt,2022.2.4,Win32,61.01281269,Chrome,1366,768,,,,,10,1027,,,,,,,,,,,,,,,,,167,F,star,1,1,,,,,,,,,,,,,,,,switch,letter,lettSwt,j,0.384,Hi,,,,,,3,,,,,,,,low,17,0,17,0,1,,,,,,,,,
296362,2022-11-29_16h07.32.391,vts_reward_expectancy_bt,2022.2.4,Win32,61.01281269,Chrome,1366,768,,,,,1,1028,,,,,,,,,,,,,,,,,146,B,triangle,1,0,,,,,,,,,,,,,,,,repeat,letter,lettRpt,j,0.4545,Lo,,,,,,3,,,,,,,,low,18,0,18,0,1,,,,,,,,,
296362,2022-11-29_16h07.32.391,vts_reward_expectancy_bt,2022.2.4,Win32,61.01281269,Chrome,1366,768,,,,,0,1028,,,,,,,,,,,,,,,,,174,Y,circle,1,0,,,,,,,,,,,,,,,,repeat,letter,lettRpt,k,1.401,Hi,,,,,,3,,,,,,,,low,19,0,19,0,1,,,,,,,,,
296362,2022-11-29_16h07.32.391,vts_reward_expectancy_bt,2022.2.4,Win32,61.01281269,Chrome,1366,768,,,,,1,1029,,,,,,,,,,,,,,,,,139,U,hexagon,1,0,,,,,,,,,,,,,,,,repeat,letter,lettRpt,k,0.4296,Lo,,,,,,3,,,,,,,,low,20,0,20,0,1,,,,,,,,,
296362,2022-11-29_16h07.32.391,vts_reward_expectancy_bt,2022.2.4,Win32,61.01281269,Chrome,1366,768,,,,,0,1029,,,,,,,,,,,,,,,,,132,D,star,1,0,,,,,,,,,,,,,,,,switch,number,numSwt,d,0.5966,Hi,,,,,,3,,,,,,,,low,21,0,21,0,1,,,,,,,,,
296362,2022-11-29_16h07.32.391,vts_reward_expectancy_bt,2022.2.4,Win32,61.01281269,Chrome,1366,768,,,,,1,1030,,,,,,,,,,,,,,,,,181,H,circle,1,0,,,,,,,,,,,,,,,,repeat,number,numRpt,f,0.4981,Hi,,,,,,3,,,,,,,,low,22,0,22,0,1,,,,,,,,,
296362,2022-11-29_16h07.32.391,vts_reward_expectancy_bt,2022.2.4,Win32,61.01281269,Chrome,1366,768,,,,,10,1040,,,,,,,,,,,,,,,,,125,W,triangle,1,0,,,,,,,,,,,,,,,,repeat,number,numRpt,d,0.499,Lo,,,,,,3,,,,,,,,low,23,0,23,0,1,,,,,,,,,
296362,2022-11-29_16h07.32.391,vts_reward_expectancy_bt,2022.2.4,Win32,61.01281269,Chrome,1366,768,,,,,1,1041,,,,,,,,,,,,,,,,,174,H,hexagon,1,0,,,,,,,,,,,,,,,,switch,letter,lettSwt,j,0.4809,Lo,,,,,,3,,,,,,,,low,24,0,24,0,1,,,,,,,,,
296362,2022-11-29_16h07.32.391,vts_reward_expectancy_bt,2022.2.4,Win32,61.01281269,Chrome,1366,768,,,,,10,1051,,,,,,,,,,,,,,,,,125,W,triangle,1,0,,,,,,,,,,,,,,,,repeat,letter,lettRpt,k,0.5495,Lo,,,,,,3,,,,,,,,low,25,0,25,0,1,,,,,,,,,
296362,2022-11-29_16h07.32.391,vts_reward_expectancy_bt,2022.2.4,Win32,61.01281269,Chrome,1366,768,,,,,1,1052,,,,,,,,,,,,,,,,,146,U,circle,1,0,,,,,,,,,,,,,,,,repeat,letter,lettRpt,k,0.3372,Hi,,,,,,3,,,,,,,,low,26,0,26,0,1,,,,,,,,,
296362,2022-11-29_16h07.32.391,vts_reward_expectancy_bt,2022.2.4,Win32,61.01281269,Chrome,1366,768,,,,,1,1053,,,,,,,,,,,,,,,,,167,F,star,1,0,,,,,,,,,,,,,,,,switch,number,numSwt,f,0.3541,Hi,,,,,,3,,,,,,,,low,27,0,27,0,1,,,,,,,,,
296362,2022-11-29_16h07.32.391,vts_reward_expectancy_bt,2022.2.4,Win32,61.01281269,Chrome,1366,768,,,,,1,1054,,,,,,,,,,,,,,,,,132,B,star,1,0,,,,,,,,,,,,,,,,repeat,number,numRpt,d,0.3724,Hi,,,,,,3,,,,,,,,low,28,0,28,0,1,,,,,,,,,
296362,2022-11-29_16h07.32.391,vts_reward_expectancy_bt,2022.2.4,Win32,61.01281269,Chrome,1366,768,,,,,1,1055,,,,,,,,,,,,,,,,,160,S,triangle,1,0,,,,,,,,,,,,,,,,switch,letter,lettSwt,k,0.5038,Lo,,,,,,3,,,,,,,,low,29,0,29,0,1,,,,,,,,,
296362,2022-11-29_16h07.32.391,vts_reward_expectancy_bt,2022.2.4,Win32,61.01281269,Chrome,1366,768,,,,,1,1056,,,,,,,,,,,,,,,,,139,D,circle,1,0,,,,,,,,,,,,,,,,repeat,letter,lettRpt,j,0.3801,Hi,,,,,,3,,,,,,,,low,30,0,30,0,1,,,,,,,,,
296362,2022-11-29_16h07.32.391,vts_reward_expectancy_bt,2022.2.4,Win32,61.01281269,Chrome,1366,768,,,,,0,1056,,,,,,,,,,,,,,,,,181,Y,hexagon,0,0,,,,,,,,,,,,,,,,switch,number,NA,d,0.7876,Hi,,,,,,3,,,,,,,,low,31,0,31,0,1,,,,,,,,,
296362,2022-11-29_16h07.32.391,vts_reward_expectancy_bt,2022.2.4,Win32,61.01281269,Chrome,1366,768,,,,,10,1066,,,,,,,,,,,,,,,,,139,B,hexagon,1,1,,,,,,,,,,,,,,,,repeat,number,numRpt,d,0.6829,Lo,,,,,,4,,,,,,space,1.2927,low,0,0,0,0,1,,,,,,,,,
296362,2022-11-29_16h07.32.391,vts_reward_expectancy_bt,2022.2.4,Win32,61.01281269,Chrome,1366,768,,,,,0,1066,,,,,,,,,,,,,,,,,146,H,star,0,0,,,,,,,,,,,,,,,,switch,letter,NA,k,0.4341,Lo,,,,,,4,,,,,,,,low,1,0,1,0,1,,,,,,,,,
296362,2022-11-29_16h07.32.391,vts_reward_expectancy_bt,2022.2.4,Win32,61.01281269,Chrome,1366,768,,,,,1,1067,,,,,,,,,,,,,,,,,132,D,triangle,1,1,,,,,,,,,,,,,,,,switch,number,numSwt,d,0.3774,Lo,,,,,,4,,,,,,,,low,2,0,2,0,1,,,,,,,,,
296362,2022-11-29_16h07.32.391,vts_reward_expectancy_bt,2022.2.4,Win32,61.01281269,Chrome,1366,768,,,,,0,1067,,,,,,,,,,,,,,,,,174,F,circle,0,0,,,,,,,,,,,,,,,,switch,letter,NA,k,0.4734,Lo,,,,,,4,,,,,,,,low,3,0,3,0,1,,,,,,,,,
296362,2022-11-29_16h07.32.391,vts_reward_expectancy_bt,2022.2.4,Win32,61.01281269,Chrome,1366,768,,,,,1,1068,,,,,,,,,,,,,,,,,125,Y,hexagon,1,1,,,,,,,,,,,,,,,,switch,number,numSwt,d,0.6185,Lo,,,,,,4,,,,,,,,low,4,0,4,0,1,,,,,,,,,
296362,2022-11-29_16h07.32.391,vts_reward_expectancy_bt,2022.2.4,Win32,61.01281269,Chrome,1366,768,,,,,0,1068,,,,,,,,,,,,,,,,,167,W,star,1,0,,,,,,,,,,,,,,,,switch,letter,lettSwt,k,0.45,Hi,,,,,,4,,,,,,,,low,5,0,5,0,1,,,,,,,,,
296362,2022-11-29_16h07.32.391,vts_reward_expectancy_bt,2022.2.4,Win32,61.01281269,Chrome,1366,768,,,,,0,1068,,,,,,,,,,,,,,,,,160,U,triangle,0,0,,,,,,,,,,,,,,,,switch,number,NA,d,0.5333,Hi,,,,,,4,,,,,,,,low,6,0,6,0,1,,,,,,,,,
296362,2022-11-29_16h07.32.391,vts_reward_expectancy_bt,2022.2.4,Win32,61.01281269,Chrome,1366,768,,,,,0,1068,,,,,,,,,,,,,,,,,181,S,circle,1,1,,,,,,,,,,,,,,,,switch,letter,lettSwt,k,0.7023,Hi,,,,,,4,,,,,,,,low,7,0,7,0,1,,,,,,,,,
296362,2022-11-29_16h07.32.391,vts_reward_expectancy_bt,2022.2.4,Win32,61.01281269,Chrome,1366,768,,,,,10,1078,,,,,,,,,,,,,,,,,139,B,triangle,1,0,,,,,,,,,,,,,,,,switch,number,numSwt,d,0.5159,Lo,,,,,,4,,,,,,,,low,8,0,8,0,1,,,,,,,,,
296362,2022-11-29_16h07.32.391,vts_reward_expectancy_bt,2022.2.4,Win32,61.01281269,Chrome,1366,768,,,,,0,1078,,,,,,,,,,,,,,,,,146,H,hexagon,0,0,,,,,,,,,,,,,,,,switch,letter,NA,k,0.3881,Lo,,,,,,4,,,,,,,,low,9,0,9,0,1,,,,,,,,,
296362,2022-11-29_16h07.32.391,vts_reward_expectancy_bt,2022.2.4,Win32,61.01281269,Chrome,1366,768,,,,,0,1078,,,,,,,,,,,,,,,,,132,D,star,0,1,,,,,,,,,,,,,,,,repeat,letter,NA,k,0.3845,Lo,,,,,,4,,,,,,,,low,10,0,10,0,1,,,,,,,,,
296362,2022-11-29_16h07.32.391,vts_reward_expectancy_bt,2022.2.4,Win32,61.01281269,Chrome,1366,768,,,,,0,1078,,,,,,,,,,,,,,,,,174,F,circle,1,1,,,,,,,,,,,,,,,,switch,number,numSwt,f,0.6843,Hi,,,,,,4,,,,,,,,low,11,0,11,0,1,,,,,,,,,
296362,2022-11-29_16h07.32.391,vts_reward_expectancy_bt,2022.2.4,Win32,61.01281269,Chrome,1366,768,,,,,0,1078,,,,,,,,,,,,,,,,,125,Y,star,0,0,,,,,,,,,,,,,,,,repeat,number,NA,f,0.1991,Hi,,,,,,4,,,,,,,,low,12,0,12,0,1,,,,,,,,,
296362,2022-11-29_16h07.32.391,vts_reward_expectancy_bt,2022.2.4,Win32,61.01281269,Chrome,1366,768,,,,,0,1078,,,,,,,,,,,,,,,,,167,W,hexagon,0,1,,,,,,,,,,,,,,,,switch,letter,NA,j,0.0511,Hi,,,,,,4,,,,,,,,low,13,0,13,0,1,,,,,,,,,
296362,2022-11-29_16h07.32.391,vts_reward_expectancy_bt,2022.2.4,Win32,61.01281269,Chrome,1366,768,,,,,0,1078,,,,,,,,,,,,,,,,,160,U,triangle,0,1,,,,,,,,,,,,,,,,repeat,letter,NA,j,0.1347,Hi,,,,,,4,,,,,,,,low,14,0,14,0,1,,,,,,,,,
296362,2022-11-29_16h07.32.391,vts_reward_expectancy_bt,2022.2.4,Win32,61.01281269,Chrome,1366,768,,,,,10,1088,,,,,,,,,,,,,,,,,181,S,circle,1,1,,,,,,,,,,,,,,,,repeat,letter,lettRpt,k,0.0507,Hi,,,,,,4,,,,,,,,low,15,0,15,0,1,,,,,,,,,
296362,2022-11-29_16h07.32.391,vts_reward_expectancy_bt,2022.2.4,Win32,61.01281269,Chrome,1366,768,,,,,1,1089,,,,,,,,,,,,,,,,,167,F,hexagon,1,0,,,,,,,,,,,,,,,,repeat,letter,lettRpt,j,0.0009,Lo,,,,,,4,,,,,,,,low,16,0,16,0,1,,,,,,,,,
296362,2022-11-29_16h07.32.391,vts_reward_expectancy_bt,2022.2.4,Win32,61.01281269,Chrome,1366,768,,,,,10,1099,,,,,,,,,,,,,,,,,181,H,star,1,0,,,,,,,,,,,,,,,,repeat,letter,lettRpt,j,0.1445,Hi,,,,,,4,,,,,,,,low,17,0,17,0,1,,,,,,,,,
296362,2022-11-29_16h07.32.391,vts_reward_expectancy_bt,2022.2.4,Win32,61.01281269,Chrome,1366,768,,,,,0,1099,,,,,,,,,,,,,,,,,125,Y,triangle,0,0,,,,,,,,,,,,,,,,switch,number,NA,f,0.167,Hi,,,,,,4,,,,,,,,low,18,0,18,0,1,,,,,,,,,
296362,2022-11-29_16h07.32.391,vts_reward_expectancy_bt,2022.2.4,Win32,61.01281269,Chrome,1366,768,,,,,10,1109,,,,,,,,,,,,,,,,,132,B,circle,1,1,,,,,,,,,,,,,,,,repeat,number,numRpt,d,0.0739,Hi,,,,,,4,,,,,,,,low,19,0,19,0,1,,,,,,,,,
296362,2022-11-29_16h07.32.391,vts_reward_expectancy_bt,2022.2.4,Win32,61.01281269,Chrome,1366,768,,,,,10,1119,,,,,,,,,,,,,,,,,139,W,triangle,1,0,,,,,,,,,,,,,,,,switch,letter,lettSwt,k,0.1165,Lo,,,,,,4,,,,,,,,low,20,0,20,0,1,,,,,,,,,
296362,2022-11-29_16h07.32.391,vts_reward_expectancy_bt,2022.2.4,Win32,61.01281269,Chrome,1366,768,,,,,0,1119,,,,,,,,,,,,,,,,,174,S,circle,0,0,,,,,,,,,,,,,,,,switch,number,NA,d,0.0015,Lo,,,,,,4,,,,,,,,low,21,0,21,0,1,,,,,,,,,
296362,2022-11-29_16h07.32.391,vts_reward_expectancy_bt,2022.2.4,Win32,61.01281269,Chrome,1366,768,,,,,10,1129,,,,,,,,,,,,,,,,,146,U,star,1,1,,,,,,,,,,,,,,,,repeat,number,numRpt,d,0.1507,Hi,,,,,,4,,,,,,,,low,22,0,22,0,1,,,,,,,,,
296362,2022-11-29_16h07.32.391,vts_reward_expectancy_bt,2022.2.4,Win32,61.01281269,Chrome,1366,768,,,,,0,1129,,,,,,,,,,,,,,,,,160,D,hexagon,0,0,,,,,,,,,,,,,,,,repeat,number,NA,d,0.1007,Hi,,,,,,4,,,,,,,,low,23,0,23,0,1,,,,,,,,,
296362,2022-11-29_16h07.32.391,vts_reward_expectancy_bt,2022.2.4,Win32,61.01281269,Chrome,1366,768,,,,,0,1129,,,,,,,,,,,,,,,,,125,U,star,1,1,,,,,,,,,,,,,,,,switch,letter,lettSwt,k,0.5248,Hi,,,,,,4,,,,,,,,low,24,0,24,0,1,,,,,,,,,
296362,2022-11-29_16h07.32.391,vts_reward_expectancy_bt,2022.2.4,Win32,61.01281269,Chrome,1366,768,,,,,0,1129,,,,,,,,,,,,,,,,,132,H,circle,0,0,,,,,,,,,,,,,,,,repeat,letter,NA,k,0.2051,Hi,,,,,,4,,,,,,,,low,25,0,25,0,1,,,,,,,,,
296362,2022-11-29_16h07.32.391,vts_reward_expectancy_bt,2022.2.4,Win32,61.01281269,Chrome,1366,768,,,,,0,1129,,,,,,,,,,,,,,,,,160,B,triangle,0,1,,,,,,,,,,,,,,,,switch,number,NA,d,0.0668,Hi,,,,,,4,,,,,,,,low,26,0,26,0,1,,,,,,,,,
296362,2022-11-29_16h07.32.391,vts_reward_expectancy_bt,2022.2.4,Win32,61.01281269,Chrome,1366,768,,,,,0,1129,,,,,,,,,,,,,,,,,174,W,hexagon,0,1,,,,,,,,,,,,,,,,repeat,number,NA,d,0.0011,Hi,,,,,,4,,,,,,,,low,27,0,27,0,1,,,,,,,,,
296362,2022-11-29_16h07.32.391,vts_reward_expectancy_bt,2022.2.4,Win32,61.01281269,Chrome,1366,768,,,,,1,1130,,,,,,,,,,,,,,,,,139,Y,star,1,1,,,,,,,,,,,,,,,,switch,letter,lettSwt,k,0.001,Hi,,,,,,4,,,,,,,,low,28,0,28,0,1,,,,,,,,,
296362,2022-11-29_16h07.32.391,vts_reward_expectancy_bt,2022.2.4,Win32,61.01281269,Chrome,1366,768,,,,,1,1131,,,,,,,,,,,,,,,,,146,F,triangle,1,0,,,,,,,,,,,,,,,,repeat,letter,lettRpt,j,0.1008,Lo,,,,,,4,,,,,,,,low,29,0,29,0,1,,,,,,,,,
296362,2022-11-29_16h07.32.391,vts_reward_expectancy_bt,2022.2.4,Win32,61.01281269,Chrome,1366,768,,,,,1,1132,,,,,,,,,,,,,,,,,181,S,circle,1,0,,,,,,,,,,,,,,,,repeat,letter,lettRpt,k,0.0503,Hi,,,,,,4,,,,,,,,low,30,0,30,0,1,,,,,,,,,
296362,2022-11-29_16h07.32.391,vts_reward_expectancy_bt,2022.2.4,Win32,61.01281269,Chrome,1366,768,,,,,0,1132,,,,,,,,,,,,,,,,,167,D,hexagon,0,0,,,,,,,,,,,,,,,,repeat,letter,NA,k,0.133,Hi,,,,,,4,,,,,,,,low,31,0,31,0,1,,,,,,,,,
296362,2022-11-29_16h07.32.391,vts_reward_expectancy_bt,2022.2.4,Win32,61.01281269,Chrome,1366,768,,,,,0,1132,,,,,,,,,,,,,,,,,132,U,star,0,1,,,,,,,,,,,,,,,,switch,number,NA,f,0.0184,Hi,,,,,,5,,,,,,space,2.5632,low,0,0,0,0,1,,,,,,,,,
296362,2022-11-29_16h07.32.391,vts_reward_expectancy_bt,2022.2.4,Win32,61.01281269,Chrome,1366,768,,,,,0,1132,,,,,,,,,,,,,,,,,146,Y,circle,1,1,,,,,,,,,,,,,,,,repeat,number,numRpt,d,0.1381,Hi,,,,,,5,,,,,,,,low,1,0,1,0,1,,,,,,,,,
296362,2022-11-29_16h07.32.391,vts_reward_expectancy_bt,2022.2.4,Win32,61.01281269,Chrome,1366,768,,,,,0,1132,,,,,,,,,,,,,,,,,167,F,hexagon,0,0,,,,,,,,,,,,,,,,repeat,number,NA,d,0.0334,Hi,,,,,,5,,,,,,,,low,2,0,2,0,1,,,,,,,,,
296362,2022-11-29_16h07.32.391,vts_reward_expectancy_bt,2022.2.4,Win32,61.01281269,Chrome,1366,768,,,,,0,1132,,,,,,,,,,,,,,,,,160,D,triangle,0,1,,,,,,,,,,,,,,,,repeat,number,NA,d,0.1176,Hi,,,,,,5,,,,,,,,low,3,0,3,0,1,,,,,,,,,
296362,2022-11-29_16h07.32.391,vts_reward_expectancy_bt,2022.2.4,Win32,61.01281269,Chrome,1366,768,,,,,0,1132,,,,,,,,,,,,,,,,,181,S,star,0,1,,,,,,,,,,,,,,,,repeat,number,NA,d,0.0612,Hi,,,,,,5,,,,,,,,low,4,0,4,0,1,,,,,,,,,
296362,2022-11-29_16h07.32.391,vts_reward_expectancy_bt,2022.2.4,Win32,61.01281269,Chrome,1366,768,,,,,1,1133,,,,,,,,,,,,,,,,,139,H,circle,1,1,,,,,,,,,,,,,,,,switch,letter,lettSwt,j,0.1176,Hi,,,,,,5,,,,,,,,low,5,0,5,0,1,,,,,,,,,
296362,2022-11-29_16h07.32.391,vts_reward_expectancy_bt,2022.2.4,Win32,61.01281269,Chrome,1366,768,,,,,10,1143,,,,,,,,,,,,,,,,,174,B,hexagon,1,0,,,,,,,,,,,,,,,,repeat,letter,lettRpt,j,0.1123,Lo,,,,,,5,,,,,,,,low,6,0,6,0,1,,,,,,,,,
296362,2022-11-29_16h07.32.391,vts_reward_expectancy_bt,2022.2.4,Win32,61.01281269,Chrome,1366,768,,,,,1,1144,,,,,,,,,,,,,,,,,125,W,triangle,1,0,,,,,,,,,,,,,,,,repeat,letter,lettRpt,k,0.2002,Lo,,,,,,5,,,,,,,,low,7,0,7,0,1,,,,,,,,,
296362,2022-11-29_16h07.32.391,vts_reward_expectancy_bt,2022.2.4,Win32,61.01281269,Chrome,1366,768,,,,,0,1144,,,,,,,,,,,,,,,,,132,U,star,1,0,,,,,,,,,,,,,,,,repeat,letter,lettRpt,k,0.1338,Hi,,,,,,5,,,,,,,,low,8,0,8,0,1,,,,,,,,,
296362,2022-11-29_16h07.32.391,vts_reward_expectancy_bt,2022.2.4,Win32,61.01281269,Chrome,1366,768,,,,,1,1145,,,,,,,,,,,,,,,,,146,Y,hexagon,1,0,,,,,,,,,,,,,,,,repeat,letter,lettRpt,k,0.0168,Lo,,,,,,5,,,,,,,,low,9,0,9,0,1,,,,,,,,,
296362,2022-11-29_16h07.32.391,vts_reward_expectancy_bt,2022.2.4,Win32,61.01281269,Chrome,1366,768,,,,,0,1145,,,,,,,,,,,,,,,,,167,F,triangle,0,0,,,,,,,,,,,,,,,,repeat,letter,NA,k,0.084,Lo,,,,,,5,,,,,,,,low,10,0,10,0,1,,,,,,,,,
296362,2022-11-29_16h07.32.391,vts_reward_expectancy_bt,2022.2.4,Win32,61.01281269,Chrome,1366,768,,,,,0,1145,,,,,,,,,,,,,,,,,160,D,circle,0,1,,,,,,,,,,,,,,,,repeat,letter,NA,k,0.1093,Lo,,,,,,5,,,,,,,,low,11,0,11,0,1,,,,,,,,,
296362,2022-11-29_16h07.32.391,vts_reward_expectancy_bt,2022.2.4,Win32,61.01281269,Chrome,1366,768,,,,,0,1145,,,,,,,,,,,,,,,,,181,S,star,0,1,,,,,,,,,,,,,,,,repeat,letter,NA,j,0.1334,Lo,,,,,,5,,,,,,,,low,12,0,12,0,1,,,,,,,,,
296362,2022-11-29_16h07.32.391,vts_reward_expectancy_bt,2022.2.4,Win32,61.01281269,Chrome,1366,768,,,,,0,1145,,,,,,,,,,,,,,,,,139,H,triangle,0,1,,,,,,,,,,,,,,,,repeat,letter,NA,k,0.1153,Lo,,,,,,5,,,,,,,,low,13,0,13,0,1,,,,,,,,,
296362,2022-11-29_16h07.32.391,vts_reward_expectancy_bt,2022.2.4,Win32,61.01281269,Chrome,1366,768,,,,,0,1145,,,,,,,,,,,,,,,,,174,B,hexagon,0,1,,,,,,,,,,,,,,,,repeat,letter,NA,k,0.0348,Lo,,,,,,5,,,,,,,,low,14,0,14,0,1,,,,,,,,,
296362,2022-11-29_16h07.32.391,vts_reward_expectancy_bt,2022.2.4,Win32,61.01281269,Chrome,1366,768,,,,,0,1145,,,,,,,,,,,,,,,,,125,W,circle,0,1,,,,,,,,,,,,,,,,repeat,letter,NA,j,0.2338,Lo,,,,,,5,,,,,,,,low,15,0,15,0,1,,,,,,,,,
296362,2022-11-29_16h07.32.391,vts_reward_expectancy_bt,2022.2.4,Win32,61.01281269,Chrome,1366,768,,,,,0,1145,,,,,,,,,,,,,,,,,146,U,circle,0,1,,,,,,,,,,,,,,,,repeat,letter,NA,j,0.0891,Lo,,,,,,5,,,,,,,,low,16,0,16,0,1,,,,,,,,,
296362,2022-11-29_16h07.32.391,vts_reward_expectancy_bt,2022.2.4,Win32,61.01281269,Chrome,1366,768,,,,,10,1155,,,,,,,,,,,,,,,,,167,W,hexagon,1,1,,,,,,,,,,,,,,,,repeat,letter,lettRpt,k,0.2004,Lo,,,,,,5,,,,,,,,low,17,0,17,0,1,,,,,,,,,
296362,2022-11-29_16h07.32.391,vts_reward_expectancy_bt,2022.2.4,Win32,61.01281269,Chrome,1366,768,,,,,0,1155,,,,,,,,,,,,,,,,,139,B,star,0,0,,,,,,,,,,,,,,,,repeat,letter,NA,k,0.0332,Lo,,,,,,5,,,,,,,,low,18,0,18,0,1,,,,,,,,,
296362,2022-11-29_16h07.32.391,vts_reward_expectancy_bt,2022.2.4,Win32,61.01281269,Chrome,1366,768,,,,,10,1165,,,,,,,,,,,,,,,,,132,F,triangle,1,1,,,,,,,,,,,,,,,,repeat,letter,lettRpt,j,0.0507,Lo,,,,,,5,,,,,,,,low,19,0,19,0,1,,,,,,,,,
296362,2022-11-29_16h07.32.391,vts_reward_expectancy_bt,2022.2.4,Win32,61.01281269,Chrome,1366,768,,,,,10,1175,,,,,,,,,,,,,,,,,174,S,hexagon,1,0,,,,,,,,,,,,,,,,repeat,letter,lettRpt,k,0.0171,Lo,,,,,,5,,,,,,,,low,20,0,20,0,1,,,,,,,,,
296362,2022-11-29_16h07.32.391,vts_reward_expectancy_bt,2022.2.4,Win32,61.01281269,Chrome,1366,768,,,,,10,1185,,,,,,,,,,,,,,,,,181,H,circle,1,0,,,,,,,,,,,,,,,,repeat,letter,lettRpt,j,0.0167,Hi,,,,,,5,,,,,,,,low,21,0,21,0,1,,,,,,,,,
296362,2022-11-29_16h07.32.391,vts_reward_expectancy_bt,2022.2.4,Win32,61.01281269,Chrome,1366,768,,,,,0,1185,,,,,,,,,,,,,,,,,160,D,star,0,0,,,,,,,,,,,,,,,,repeat,letter,NA,k,0.4669,Hi,,,,,,5,,,,,,,,low,22,0,22,0,1,,,,,,,,,
296362,2022-11-29_16h07.32.391,vts_reward_expectancy_bt,2022.2.4,Win32,61.01281269,Chrome,1366,768,,,,,0,1185,,,,,,,,,,,,,,,,,125,Y,triangle,0,1,,,,,,,,,,,,,,,,repeat,letter,NA,j,0.0274,Hi,,,,,,5,,,,,,,,low,23,0,23,0,1,,,,,,,,,
296362,2022-11-29_16h07.32.391,vts_reward_expectancy_bt,2022.2.4,Win32,61.01281269,Chrome,1366,768,,,,,1,1186,,,,,,,,,,,,,,,,,139,B,hexagon,1,1,,,,,,,,,,,,,,,,repeat,letter,lettRpt,j,0.0007,Lo,,,,,,5,,,,,,,,low,24,0,24,0,1,,,,,,,,,
296362,2022-11-29_16h07.32.391,vts_reward_expectancy_bt,2022.2.4,Win32,61.01281269,Chrome,1366,768,,,,,0,1186,,,,,,,,,,,,,,,,,160,S,star,1,0,,,,,,,,,,,,,,,,repeat,letter,lettRpt,k,0.1003,Hi,,,,,,5,,,,,,,,low,25,0,25,0,1,,,,,,,,,
296362,2022-11-29_16h07.32.391,vts_reward_expectancy_bt,2022.2.4,Win32,61.01281269,Chrome,1366,768,,,,,0,1186,,,,,,,,,,,,,,,,,181,D,triangle,0,0,,,,,,,,,,,,,,,,repeat,letter,NA,k,0.1168,Hi,,,,,,5,,,,,,,,low,26,0,26,0,1,,,,,,,,,
296362,2022-11-29_16h07.32.391,vts_reward_expectancy_bt,2022.2.4,Win32,61.01281269,Chrome,1366,768,,,,,0,1186,,,,,,,,,,,,,,,,,125,H,circle,1,1,,,,,,,,,,,,,,,,switch,number,numSwt,d,0.75,Hi,,,,,,5,,,,,,,,low,27,0,27,0,1,,,,,,,,,
296362,2022-11-29_16h07.32.391,vts_reward_expectancy_bt,2022.2.4,Win32,61.01281269,Chrome,1366,768,,,,,0,1186,,,,,,,,,,,,,,,,,146,Y,circle,1,0,,,,,,,,,,,,,,,,repeat,number,numRpt,d,0.2839,Hi,,,,,,5,,,,,,,,low,28,0,28,0,1,,,,,,,,,
296362,2022-11-29_16h07.32.391,vts_reward_expectancy_bt,2022.2.4,Win32,61.01281269,Chrome,1366,768,,,,,0,1186,,,,,,,,,,,,,,,,,167,U,hexagon,0,0,,,,,,,,,,,,,,,,repeat,number,NA,d,0.2064,Hi,,,,,,5,,,,,,,,low,29,0,29,0,1,,,,,,,,,
296362,2022-11-29_16h07.32.391,vts_reward_expectancy_bt,2022.2.4,Win32,61.01281269,Chrome,1366,768,,,,,0,1186,,,,,,,,,,,,,,,,,174,W,triangle,0,1,,,,,,,,,,,,,,,,repeat,number,NA,d,0.3038,Hi,,,,,,5,,,,,,,,low,30,0,30,0,1,,,,,,,,,
296362,2022-11-29_16h07.32.391,vts_reward_expectancy_bt,2022.2.4,Win32,61.01281269,Chrome,1366,768,,,,,0,1186,,,,,,,,,,,,,,,,,132,F,star,1,1,,,,,,,,,,,,,,,,repeat,number,numRpt,d,0.1545,Hi,,,,,,5,,,,,,,,low,31,0,31,0,1,,,,,,,,,
296362,2022-11-29_16h07.32.391,vts_reward_expectancy_bt,2022.2.4,Win32,61.01281269,Chrome,1366,768,,,,,1,1187,,,,,,,,,,,,,,,,,181,U,triangle,1,0,,,,,,,,,,,,,,,,repeat,number,numRpt,f,0.0338,Lo,,,,,,6,,,,,,space,1.1785,low,0,0,0,0,1,,,,,,,,,
296362,2022-11-29_16h07.32.391,vts_reward_expectancy_bt,2022.2.4,Win32,61.01281269,Chrome,1366,768,,,,,0,1187,,,,,,,,,,,,,,,,,160,S,hexagon,0,0,,,,,,,,,,,,,,,,repeat,number,NA,d,0.4666,Lo,,,,,,6,,,,,,,,low,1,0,1,0,1,,,,,,,,,
296362,2022-11-29_16h07.32.391,vts_reward_expectancy_bt,2022.2.4,Win32,61.01281269,Chrome,1366,768,,,,,0,1187,,,,,,,,,,,,,,,,,146,W,star,1,1,,,,,,,,,,,,,,,,repeat,number,numRpt,d,0.1834,Hi,,,,,,6,,,,,,,,low,2,0,2,0,1,,,,,,,,,
296362,2022-11-29_16h07.32.391,vts_reward_expectancy_bt,2022.2.4,Win32,61.01281269,Chrome,1366,768,,,,,0,1187,,,,,,,,,,,,,,,,,167,F,circle,0,0,,,,,,,,,,,,,,,,repeat,number,NA,d,1.4309,Hi,,,,,,6,,,,,,,,low,3,0,3,0,1,,,,,,,,,
296362,2022-11-29_16h07.32.391,vts_reward_expectancy_bt,2022.2.4,Win32,61.01281269,Chrome,1366,768,,,,,10,1197,,,,,,,,,,,,,,,,,125,B,triangle,1,1,,,,,,,,,,,,,,,,repeat,number,numRpt,d,0.0839,Lo,,,,,,6,,,,,,,,low,4,0,4,0,1,,,,,,,,,
296362,2022-11-29_16h07.32.391,vts_reward_expectancy_bt,2022.2.4,Win32,61.01281269,Chrome,1366,768,,,,,0,1197,,,,,,,,,,,,,,,,,132,H,hexagon,0,0,,,,,,,,,,,,,,,,repeat,number,NA,f,0.0348,Lo,,,,,,6,,,,,,,,low,5,0,5,0,1,,,,,,,,,
296362,2022-11-29_16h07.32.391,vts_reward_expectancy_bt,2022.2.4,Win32,61.01281269,Chrome,1366,768,,,,,1,1198,,,,,,,,,,,,,,,,,139,D,star,1,1,,,,,,,,,,,,,,,,repeat,number,numRpt,d,0.1214,Hi,,,,,,6,,,,,,,,low,6,0,6,0,1,,,,,,,,,
296362,2022-11-29_16h07.32.391,vts_reward_expectancy_bt,2022.2.4,Win32,61.01281269,Chrome,1366,768,,,,,0,1198,,,,,,,,,,,,,,,,,174,Y,circle,1,0,,,,,,,,,,,,,,,,repeat,number,numRpt,f,0.1666,Hi,,,,,,6,,,,,,,,low,7,0,7,0,1,,,,,,,,,
296362,2022-11-29_16h07.32.391,vts_reward_expectancy_bt,2022.2.4,Win32,61.01281269,Chrome,1366,768,,,,,1,1199,,,,,,,,,,,,,,,,,181,U,hexagon,1,0,,,,,,,,,,,,,,,,repeat,number,numRpt,f,0.1518,Lo,,,,,,6,,,,,,,,low,8,0,8,0,1,,,,,,,,,
296362,2022-11-29_16h07.32.391,vts_reward_expectancy_bt,2022.2.4,Win32,61.01281269,Chrome,1366,768,,,,,0,1199,,,,,,,,,,,,,,,,,160,S,circle,0,0,,,,,,,,,,,,,,,,repeat,number,NA,d,0.1504,Lo,,,,,,6,,,,,,,,low,9,0,9,0,1,,,,,,,,,
296362,2022-11-29_16h07.32.391,vts_reward_expectancy_bt,2022.2.4,Win32,61.01281269,Chrome,1366,768,,,,,10,1209,,,,,,,,,,,,,,,,,146,W,triangle,1,1,,,,,,,,,,,,,,,,repeat,number,numRpt,d,0.3007,Lo,,,,,,6,,,,,,,,low,10,0,10,0,1,,,,,,,,,
296362,2022-11-29_16h07.32.391,vts_reward_expectancy_bt,2022.2.4,Win32,61.01281269,Chrome,1366,768,,,,,0,1209,,,,,,,,,,,,,,,,,167,F,star,1,0,,,,,,,,,,,,,,,,repeat,number,numRpt,f,0.1502,Hi,,,,,,6,,,,,,,,low,11,0,11,0,1,,,,,,,,,
296362,2022-11-29_16h07.32.391,vts_reward_expectancy_bt,2022.2.4,Win32,61.01281269,Chrome,1366,768,,,,,0,1209,,,,,,,,,,,,,,,,,125,B,star,1,0,,,,,,,,,,,,,,,,repeat,number,numRpt,d,0.25,Hi,,,,,,6,,,,,,,,low,12,0,12,0,1,,,,,,,,,
296362,2022-11-29_16h07.32.391,vts_reward_expectancy_bt,2022.2.4,Win32,61.01281269,Chrome,1366,768,,,,,0,1209,,,,,,,,,,,,,,,,,132,H,circle,0,0,,,,,,,,,,,,,,,,repeat,number,NA,f,0.5734,Hi,,,,,,6,,,,,,,,low,13,0,13,0,1,,,,,,,,,
296362,2022-11-29_16h07.32.391,vts_reward_expectancy_bt,2022.2.4,Win32,61.01281269,Chrome,1366,768,,,,,0,1209,,,,,,,,,,,,,,,,,139,D,triangle,0,1,,,,,,,,,,,,,,,,repeat,number,NA,f,0.0837,Hi,,,,,,6,,,,,,,,low,14,0,14,0,1,,,,,,,,,
296362,2022-11-29_16h07.32.391,vts_reward_expectancy_bt,2022.2.4,Win32,61.01281269,Chrome,1366,768,,,,,0,1209,,,,,,,,,,,,,,,,,174,Y,hexagon,-1,1,,,,,,,,,,,,,,,,switch,no_choice,NA,,,Hi,,,,,,6,,,,,,,,low,15,0,15,0,1,,,,,,,,,
296362,2022-11-29_16h07.32.391,vts_reward_expectancy_bt,2022.2.4,Win32,61.01281269,Chrome,1366,768,,,,,1,1210,,,,,,,,,,,,,,,,,181,D,hexagon,1,0,,,,,,,,,,,,,,,,switch,number,numSwt,f,0.3436,Lo,,,,,,6,,,,,,,,low,16,0,16,0,1,,,,,,,,,
