participant,date,expName,psychopyVersion,OS,frameRate,browser,xResolution,yResolution,key_resp.keys,key_resp.rt,training_resp.keys,training_resp.rt,points_trial,points_cumul,trainBlock,training.thisRepN,training.thisTrialN,training.thisN,training.thisIndex,training.ran,LTriangleOpac,LCircleOpac,LHexagonOpac,LStarOpac,RTriangleOpac,RCircleOpac,RHexagonOpac,RStarOpac,LShape_ID,RShape_ID,curr_topStim,curr_bottStim,curr_shape,acc,E1,target_resp_prac1.keys,pracBlock,task1_prac_trials.thisRepN,task1_prac_trials.thisTrialN,task1_prac_trials.thisN,task1_prac_trials.thisIndex,task1_prac_trials.ran,target_resp_prac1.rt,target_resp_prac2.keys,target_resp_prac2.rt,task2_praac_trials.thisRepN,task2_praac_trials.thisTrialN,task2_praac_trials.thisN,task2_praac_trials.thisIndex,task2_praac_trials.ran,alt,task,condition,target_resp.keys,target_resp.rt,rewCond,vts_practice_trials.thisRepN,vts_practice_trials.thisTrialN,vts_practice_trials.thisN,vts_practice_trials.thisIndex,vts_practice_trials.ran,blockNum,trials_norew.thisRepN,trials_norew.thisTrialN,trials_norew.thisN,trials_norew.thisIndex,trials_norew.ran,key_resp_2.keys,key_resp_2.rt,rewExpectancy,trials_rew.thisRepN,trials_rew.thisTrialN,trials_rew.thisN,trials_rew.thisIndex,trials_rew.ran,Q1,Q2,Q2_text,Q3,Q4,Q5_text,Q5,xRes,yRes
296356,2022-12-07_10h56.59.980,vts_reward_expectancy_bt,2022.2.4,MacIntel,59.84082341,Chrome,1440,900,,,,,,,,,,,,,,,,,,,,,,,,,,,,,,,,,,,,,,,,,,,,,,,,,,,,,,,,,,,,,,,,,,,,,,,,,,,,
296356,2022-12-07_10h56.59.980,vts_reward_expectancy_bt,2022.2.4,MacIntel,59.84082341,Chrome,1440,900,space,12.665,,,,,,,,,,,,,,,,,,,,,,,,,,,,,,,,,,,,,,,,,,,,,,,,,,,,,,,,,,,,,,,,,,,,,,,,,,
296356,2022-12-07_10h56.59.980,vts_reward_expectancy_bt,2022.2.4,MacIntel,59.84082341,Chrome,1440,900,,,,,,,,,,,,,,,,,,,,,,,,,,,,,,,,,,,,,,,,,,,,,,,,,,,,,,,,,,,,,,,,,,,,,,,,,,,,
296356,2022-12-07_10h56.59.980,vts_reward_expectancy_bt,2022.2.4,MacIntel,59.84082341,Chrome,1440,900,,,a,2.846,1,1,0,0,0,0,0,1,1,0,0,0,0,1,0,0,triangle,circle,,,,,,,,,,,,,,,,,,,,,,,,,,,,,,,,,,,,,,,,,,,,,,,,,,,,,,
296356,2022-12-07_10h56.59.980,vts_reward_expectancy_bt,2022.2.4,MacIntel,59.84082341,Chrome,1440,900,,,l,1.6749,10,11,0,0,1,1,2,1,1,0,0,0,0,0,0,1,triangle,star,,,,,,,,,,,,,,,,,,,,,,,,,,,,,,,,,,,,,,,,,,,,,,,,,,,,,,
296356,2022-12-07_10h56.59.980,vts_reward_expectancy_bt,2022.2.4,MacIntel,59.84082341,Chrome,1440,900,,,a,1.6598,10,21,0,0,2,2,6,1,0,0,1,0,1,0,0,0,hexagon,triangle,,,,,,,,,,,,,,,,,,,,,,,,,,,,,,,,,,,,,,,,,,,,,,,,,,,,,,
296356,2022-12-07_10h56.59.980,vts_reward_expectancy_bt,2022.2.4,MacIntel,59.84082341,Chrome,1440,900,,,l,2.6439,1,22,0,0,3,3,8,1,0,0,1,0,0,0,0,1,hexagon,star,,,,,,,,,,,,,,,,,,,,,,,,,,,,,,,,,,,,,,,,,,,,,,,,,,,,,,
296356,2022-12-07_10h56.59.980,vts_reward_expectancy_bt,2022.2.4,MacIntel,59.84082341,Chrome,1440,900,,,a,1.368,10,32,0,0,4,4,5,1,0,1,0,0,0,0,0,1,circle,star,,,,,,,,,,,,,,,,,,,,,,,,,,,,,,,,,,,,,,,,,,,,,,,,,,,,,,
296356,2022-12-07_10h56.59.980,vts_reward_expectancy_bt,2022.2.4,MacIntel,59.84082341,Chrome,1440,900,,,l,2.008,10,42,0,0,5,5,9,1,0,0,0,1,1,0,0,0,star,triangle,,,,,,,,,,,,,,,,,,,,,,,,,,,,,,,,,,,,,,,,,,,,,,,,,,,,,,
296356,2022-12-07_10h56.59.980,vts_reward_expectancy_bt,2022.2.4,MacIntel,59.84082341,Chrome,1440,900,,,a,1.5264,10,52,0,0,6,6,1,1,1,0,0,0,0,0,1,0,triangle,hexagon,,,,,,,,,,,,,,,,,,,,,,,,,,,,,,,,,,,,,,,,,,,,,,,,,,,,,,
296356,2022-12-07_10h56.59.980,vts_reward_expectancy_bt,2022.2.4,MacIntel,59.84082341,Chrome,1440,900,,,a,3.5395,10,62,0,0,7,7,10,1,0,0,0,1,0,1,0,0,star ,circle,,,,,,,,,,,,,,,,,,,,,,,,,,,,,,,,,,,,,,,,,,,,,,,,,,,,,,
296356,2022-12-07_10h56.59.980,vts_reward_expectancy_bt,2022.2.4,MacIntel,59.84082341,Chrome,1440,900,,,l,2.9621,10,72,0,0,8,8,3,1,0,1,0,0,1,0,0,0,circle,triangle,,,,,,,,,,,,,,,,,,,,,,,,,,,,,,,,,,,,,,,,,,,,,,,,,,,,,,
296356,2022-12-07_10h56.59.980,vts_reward_expectancy_bt,2022.2.4,MacIntel,59.84082341,Chrome,1440,900,,,l,2.5781,1,73,0,0,9,9,4,1,0,1,0,0,0,0,1,0,circle,hexagon,,,,,,,,,,,,,,,,,,,,,,,,,,,,,,,,,,,,,,,,,,,,,,,,,,,,,,
296356,2022-12-07_10h56.59.980,vts_reward_expectancy_bt,2022.2.4,MacIntel,59.84082341,Chrome,1440,900,,,l,1.4762,10,83,0,0,10,10,7,1,0,0,1,0,0,1,0,0,hexagon,circle,,,,,,,,,,,,,,,,,,,,,,,,,,,,,,,,,,,,,,,,,,,,,,,,,,,,,,
296356,2022-12-07_10h56.59.980,vts_reward_expectancy_bt,2022.2.4,MacIntel,59.84082341,Chrome,1440,900,,,a,1.5731,10,93,0,0,11,11,11,1,0,0,0,1,0,0,1,0,star,hexagon,,,,,,,,,,,,,,,,,,,,,,,,,,,,,,,,,,,,,,,,,,,,,,,,,,,,,,
296356,2022-12-07_10h56.59.980,vts_reward_expectancy_bt,2022.2.4,MacIntel,59.84082341,Chrome,1440,900,,,a,2.2623,10,103,0,1,0,12,6,1,0,0,1,0,1,0,0,0,hexagon,triangle,,,,,,,,,,,,,,,,,,,,,,,,,,,,,,,,,,,,,,,,,,,,,,,,,,,,,,
296356,2022-12-07_10h56.59.980,vts_reward_expectancy_bt,2022.2.4,MacIntel,59.84082341,Chrome,1440,900,,,a,8.2233,1,104,0,1,1,13,4,1,0,1,0,0,0,0,1,0,circle,hexagon,,,,,,,,,,,,,,,,,,,,,,,,,,,,,,,,,,,,,,,,,,,,,,,,,,,,,,
296356,2022-12-07_10h56.59.980,vts_reward_expectancy_bt,2022.2.4,MacIntel,59.84082341,Chrome,1440,900,,,a,1.2757,10,114,0,1,2,14,1,1,1,0,0,0,0,0,1,0,triangle,hexagon,,,,,,,,,,,,,,,,,,,,,,,,,,,,,,,,,,,,,,,,,,,,,,,,,,,,,,
296356,2022-12-07_10h56.59.980,vts_reward_expectancy_bt,2022.2.4,MacIntel,59.84082341,Chrome,1440,900,,,l,3.7306,1,115,0,1,3,15,0,1,1,0,0,0,0,1,0,0,triangle,circle,,,,,,,,,,,,,,,,,,,,,,,,,,,,,,,,,,,,,,,,,,,,,,,,,,,,,,
296356,2022-12-07_10h56.59.980,vts_reward_expectancy_bt,2022.2.4,MacIntel,59.84082341,Chrome,1440,900,,,a,3.6148,10,125,0,1,4,16,3,1,0,1,0,0,1,0,0,0,circle,triangle,,,,,,,,,,,,,,,,,,,,,,,,,,,,,,,,,,,,,,,,,,,,,,,,,,,,,,
296356,2022-12-07_10h56.59.980,vts_reward_expectancy_bt,2022.2.4,MacIntel,59.84082341,Chrome,1440,900,,,a,2.611,10,135,0,1,5,17,8,1,0,0,1,0,0,0,0,1,hexagon,star,,,,,,,,,,,,,,,,,,,,,,,,,,,,,,,,,,,,,,,,,,,,,,,,,,,,,,
296356,2022-12-07_10h56.59.980,vts_reward_expectancy_bt,2022.2.4,MacIntel,59.84082341,Chrome,1440,900,,,l,0.719,1,136,0,1,6,18,10,1,0,0,0,1,0,1,0,0,star ,circle,,,,,,,,,,,,,,,,,,,,,,,,,,,,,,,,,,,,,,,,,,,,,,,,,,,,,,
296356,2022-12-07_10h56.59.980,vts_reward_expectancy_bt,2022.2.4,MacIntel,59.84082341,Chrome,1440,900,,,l,2.6957,1,137,0,1,7,19,5,1,0,1,0,0,0,0,0,1,circle,star,,,,,,,,,,,,,,,,,,,,,,,,,,,,,,,,,,,,,,,,,,,,,,,,,,,,,,
296356,2022-12-07_10h56.59.980,vts_reward_expectancy_bt,2022.2.4,MacIntel,59.84082341,Chrome,1440,900,,,a,2.7769,10,147,0,1,8,20,9,1,0,0,0,1,1,0,0,0,star,triangle,,,,,,,,,,,,,,,,,,,,,,,,,,,,,,,,,,,,,,,,,,,,,,,,,,,,,,
296356,2022-12-07_10h56.59.980,vts_reward_expectancy_bt,2022.2.4,MacIntel,59.84082341,Chrome,1440,900,,,l,1.3303,10,157,0,1,9,21,11,1,0,0,0,1,0,0,1,0,star,hexagon,,,,,,,,,,,,,,,,,,,,,,,,,,,,,,,,,,,,,,,,,,,,,,,,,,,,,,
296356,2022-12-07_10h56.59.980,vts_reward_expectancy_bt,2022.2.4,MacIntel,59.84082341,Chrome,1440,900,,,a,1.1124,10,167,0,1,10,22,7,1,0,0,1,0,0,1,0,0,hexagon,circle,,,,,,,,,,,,,,,,,,,,,,,,,,,,,,,,,,,,,,,,,,,,,,,,,,,,,,
296356,2022-12-07_10h56.59.980,vts_reward_expectancy_bt,2022.2.4,MacIntel,59.84082341,Chrome,1440,900,,,l,1.0667,10,177,0,1,11,23,2,1,1,0,0,0,0,0,0,1,triangle,star,,,,,,,,,,,,,,,,,,,,,,,,,,,,,,,,,,,,,,,,,,,,,,,,,,,,,,
296356,2022-12-07_10h56.59.980,vts_reward_expectancy_bt,2022.2.4,MacIntel,59.84082341,Chrome,1440,900,,,a,2.7846,1,178,0,2,0,24,9,1,0,0,0,1,1,0,0,0,star,triangle,,,,,,,,,,,,,,,,,,,,,,,,,,,,,,,,,,,,,,,,,,,,,,,,,,,,,,
296356,2022-12-07_10h56.59.980,vts_reward_expectancy_bt,2022.2.4,MacIntel,59.84082341,Chrome,1440,900,,,l,25.5783,10,188,0,2,1,25,3,1,0,1,0,0,1,0,0,0,circle,triangle,,,,,,,,,,,,,,,,,,,,,,,,,,,,,,,,,,,,,,,,,,,,,,,,,,,,,,
296356,2022-12-07_10h56.59.980,vts_reward_expectancy_bt,2022.2.4,MacIntel,59.84082341,Chrome,1440,900,,,a,4.6364,10,198,0,2,2,26,5,1,0,1,0,0,0,0,0,1,circle,star,,,,,,,,,,,,,,,,,,,,,,,,,,,,,,,,,,,,,,,,,,,,,,,,,,,,,,
296356,2022-12-07_10h56.59.980,vts_reward_expectancy_bt,2022.2.4,MacIntel,59.84082341,Chrome,1440,900,,,l,0.7242,10,208,0,2,3,27,2,1,1,0,0,0,0,0,0,1,triangle,star,,,,,,,,,,,,,,,,,,,,,,,,,,,,,,,,,,,,,,,,,,,,,,,,,,,,,,
296356,2022-12-07_10h56.59.980,vts_reward_expectancy_bt,2022.2.4,MacIntel,59.84082341,Chrome,1440,900,,,l,0.5021,10,218,0,2,4,28,1,1,1,0,0,0,0,0,1,0,triangle,hexagon,,,,,,,,,,,,,,,,,,,,,,,,,,,,,,,,,,,,,,,,,,,,,,,,,,,,,,
296356,2022-12-07_10h56.59.980,vts_reward_expectancy_bt,2022.2.4,MacIntel,59.84082341,Chrome,1440,900,,,a,0.5369,1,219,0,2,5,29,0,1,1,0,0,0,0,1,0,0,triangle,circle,,,,,,,,,,,,,,,,,,,,,,,,,,,,,,,,,,,,,,,,,,,,,,,,,,,,,,
296356,2022-12-07_10h56.59.980,vts_reward_expectancy_bt,2022.2.4,MacIntel,59.84082341,Chrome,1440,900,,,a,1.1059,1,220,0,2,6,30,6,1,0,0,1,0,1,0,0,0,hexagon,triangle,,,,,,,,,,,,,,,,,,,,,,,,,,,,,,,,,,,,,,,,,,,,,,,,,,,,,,
296356,2022-12-07_10h56.59.980,vts_reward_expectancy_bt,2022.2.4,MacIntel,59.84082341,Chrome,1440,900,,,a,1.1343,1,221,0,2,7,31,10,1,0,0,0,1,0,1,0,0,star ,circle,,,,,,,,,,,,,,,,,,,,,,,,,,,,,,,,,,,,,,,,,,,,,,,,,,,,,,
296356,2022-12-07_10h56.59.980,vts_reward_expectancy_bt,2022.2.4,MacIntel,59.84082341,Chrome,1440,900,,,a,1.174,10,231,0,2,8,32,7,1,0,0,1,0,0,1,0,0,hexagon,circle,,,,,,,,,,,,,,,,,,,,,,,,,,,,,,,,,,,,,,,,,,,,,,,,,,,,,,
296356,2022-12-07_10h56.59.980,vts_reward_expectancy_bt,2022.2.4,MacIntel,59.84082341,Chrome,1440,900,,,l,0.5918,1,232,0,2,9,33,8,1,0,0,1,0,0,0,0,1,hexagon,star,,,,,,,,,,,,,,,,,,,,,,,,,,,,,,,,,,,,,,,,,,,,,,,,,,,,,,
296356,2022-12-07_10h56.59.980,vts_reward_expectancy_bt,2022.2.4,MacIntel,59.84082341,Chrome,1440,900,,,a,0.5435,1,233,0,2,10,34,4,1,0,1,0,0,0,0,1,0,circle,hexagon,,,,,,,,,,,,,,,,,,,,,,,,,,,,,,,,,,,,,,,,,,,,,,,,,,,,,,
296356,2022-12-07_10h56.59.980,vts_reward_expectancy_bt,2022.2.4,MacIntel,59.84082341,Chrome,1440,900,,,l,0.4675,1,234,0,2,11,35,11,1,0,0,0,1,0,0,1,0,star,hexagon,,,,,,,,,,,,,,,,,,,,,,,,,,,,,,,,,,,,,,,,,,,,,,,,,,,,,,
296356,2022-12-07_10h56.59.980,vts_reward_expectancy_bt,2022.2.4,MacIntel,59.84082341,Chrome,1440,900,,,a,1.0429,10,244,1,0,0,0,9,1,0,0,0,1,1,0,0,0,star,triangle,,,,,,,,,,,,,,,,,,,,,,,,,,,,,,,,,,,,,,,,,,,,,,,,,,,,,,
296356,2022-12-07_10h56.59.980,vts_reward_expectancy_bt,2022.2.4,MacIntel,59.84082341,Chrome,1440,900,,,a,13.4532,10,254,1,0,1,1,11,1,0,0,0,1,0,0,1,0,star,hexagon,,,,,,,,,,,,,,,,,,,,,,,,,,,,,,,,,,,,,,,,,,,,,,,,,,,,,,
296356,2022-12-07_10h56.59.980,vts_reward_expectancy_bt,2022.2.4,MacIntel,59.84082341,Chrome,1440,900,,,l,2.4451,1,255,1,0,2,2,8,1,0,0,1,0,0,0,0,1,hexagon,star,,,,,,,,,,,,,,,,,,,,,,,,,,,,,,,,,,,,,,,,,,,,,,,,,,,,,,
296356,2022-12-07_10h56.59.980,vts_reward_expectancy_bt,2022.2.4,MacIntel,59.84082341,Chrome,1440,900,,,l,3.5007,1,256,1,0,3,3,4,1,0,1,0,0,0,0,1,0,circle,hexagon,,,,,,,,,,,,,,,,,,,,,,,,,,,,,,,,,,,,,,,,,,,,,,,,,,,,,,
296356,2022-12-07_10h56.59.980,vts_reward_expectancy_bt,2022.2.4,MacIntel,59.84082341,Chrome,1440,900,,,a,2.2417,10,266,1,0,4,4,5,1,0,1,0,0,0,0,0,1,circle,star,,,,,,,,,,,,,,,,,,,,,,,,,,,,,,,,,,,,,,,,,,,,,,,,,,,,,,
296356,2022-12-07_10h56.59.980,vts_reward_expectancy_bt,2022.2.4,MacIntel,59.84082341,Chrome,1440,900,,,a,8.1686,10,276,1,0,5,5,2,1,1,0,0,0,0,0,0,1,triangle,star,,,,,,,,,,,,,,,,,,,,,,,,,,,,,,,,,,,,,,,,,,,,,,,,,,,,,,
296356,2022-12-07_10h56.59.980,vts_reward_expectancy_bt,2022.2.4,MacIntel,59.84082341,Chrome,1440,900,,,a,3.1463,10,286,1,0,6,6,0,1,1,0,0,0,0,1,0,0,triangle,circle,,,,,,,,,,,,,,,,,,,,,,,,,,,,,,,,,,,,,,,,,,,,,,,,,,,,,,
296356,2022-12-07_10h56.59.980,vts_reward_expectancy_bt,2022.2.4,MacIntel,59.84082341,Chrome,1440,900,,,l,3.201,1,287,1,0,7,7,10,1,0,0,0,1,0,1,0,0,star ,circle,,,,,,,,,,,,,,,,,,,,,,,,,,,,,,,,,,,,,,,,,,,,,,,,,,,,,,
296356,2022-12-07_10h56.59.980,vts_reward_expectancy_bt,2022.2.4,MacIntel,59.84082341,Chrome,1440,900,,,l,0.9414,1,288,1,0,8,8,1,1,1,0,0,0,0,0,1,0,triangle,hexagon,,,,,,,,,,,,,,,,,,,,,,,,,,,,,,,,,,,,,,,,,,,,,,,,,,,,,,
296356,2022-12-07_10h56.59.980,vts_reward_expectancy_bt,2022.2.4,MacIntel,59.84082341,Chrome,1440,900,,,l,1.8548,1,289,1,0,9,9,3,1,0,1,0,0,1,0,0,0,circle,triangle,,,,,,,,,,,,,,,,,,,,,,,,,,,,,,,,,,,,,,,,,,,,,,,,,,,,,,
296356,2022-12-07_10h56.59.980,vts_reward_expectancy_bt,2022.2.4,MacIntel,59.84082341,Chrome,1440,900,,,a,0.509,10,299,1,0,10,10,7,1,0,0,1,0,0,1,0,0,hexagon,circle,,,,,,,,,,,,,,,,,,,,,,,,,,,,,,,,,,,,,,,,,,,,,,,,,,,,,,
296356,2022-12-07_10h56.59.980,vts_reward_expectancy_bt,2022.2.4,MacIntel,59.84082341,Chrome,1440,900,,,a,0.5919,10,309,1,0,11,11,6,1,0,0,1,0,1,0,0,0,hexagon,triangle,,,,,,,,,,,,,,,,,,,,,,,,,,,,,,,,,,,,,,,,,,,,,,,,,,,,,,
296356,2022-12-07_10h56.59.980,vts_reward_expectancy_bt,2022.2.4,MacIntel,59.84082341,Chrome,1440,900,,,l,0.6376,1,310,1,1,0,12,1,1,1,0,0,0,0,0,1,0,triangle,hexagon,,,,,,,,,,,,,,,,,,,,,,,,,,,,,,,,,,,,,,,,,,,,,,,,,,,,,,
296356,2022-12-07_10h56.59.980,vts_reward_expectancy_bt,2022.2.4,MacIntel,59.84082341,Chrome,1440,900,,,a,0.8025,1,311,1,1,1,13,10,1,0,0,0,1,0,1,0,0,star ,circle,,,,,,,,,,,,,,,,,,,,,,,,,,,,,,,,,,,,,,,,,,,,,,,,,,,,,,
296356,2022-12-07_10h56.59.980,vts_reward_expectancy_bt,2022.2.4,MacIntel,59.84082341,Chrome,1440,900,,,a,0.5676,1,312,1,1,2,14,0,1,1,0,0,0,0,1,0,0,triangle,circle,,,,,,,,,,,,,,,,,,,,,,,,,,,,,,,,,,,,,,,,,,,,,,,,,,,,,,
296356,2022-12-07_10h56.59.980,vts_reward_expectancy_bt,2022.2.4,MacIntel,59.84082341,Chrome,1440,900,,,a,1.0272,10,322,1,1,3,15,9,1,0,0,0,1,1,0,0,0,star,triangle,,,,,,,,,,,,,,,,,,,,,,,,,,,,,,,,,,,,,,,,,,,,,,,,,,,,,,
296356,2022-12-07_10h56.59.980,vts_reward_expectancy_bt,2022.2.4,MacIntel,59.84082341,Chrome,1440,900,,,a,1.5394,10,332,1,1,4,16,5,1,0,1,0,0,0,0,0,1,circle,star,,,,,,,,,,,,,,,,,,,,,,,,,,,,,,,,,,,,,,,,,,,,,,,,,,,,,,
296356,2022-12-07_10h56.59.980,vts_reward_expectancy_bt,2022.2.4,MacIntel,59.84082341,Chrome,1440,900,,,l,1.0913,10,342,1,1,5,17,3,1,0,1,0,0,1,0,0,0,circle,triangle,,,,,,,,,,,,,,,,,,,,,,,,,,,,,,,,,,,,,,,,,,,,,,,,,,,,,,
296356,2022-12-07_10h56.59.980,vts_reward_expectancy_bt,2022.2.4,MacIntel,59.84082341,Chrome,1440,900,,,a,22.9843,1,343,1,1,6,18,6,1,0,0,1,0,1,0,0,0,hexagon,triangle,,,,,,,,,,,,,,,,,,,,,,,,,,,,,,,,,,,,,,,,,,,,,,,,,,,,,,
296356,2022-12-07_10h56.59.980,vts_reward_expectancy_bt,2022.2.4,MacIntel,59.84082341,Chrome,1440,900,,,l,0.5883,1,344,1,1,7,19,2,1,1,0,0,0,0,0,0,1,triangle,star,,,,,,,,,,,,,,,,,,,,,,,,,,,,,,,,,,,,,,,,,,,,,,,,,,,,,,
296356,2022-12-07_10h56.59.980,vts_reward_expectancy_bt,2022.2.4,MacIntel,59.84082341,Chrome,1440,900,,,l,14.7263,10,354,1,1,8,20,4,1,0,1,0,0,0,0,1,0,circle,hexagon,,,,,,,,,,,,,,,,,,,,,,,,,,,,,,,,,,,,,,,,,,,,,,,,,,,,,,
296356,2022-12-07_10h56.59.980,vts_reward_expectancy_bt,2022.2.4,MacIntel,59.84082341,Chrome,1440,900,,,a,1.2385,1,355,1,1,9,21,7,1,0,0,1,0,0,1,0,0,hexagon,circle,,,,,,,,,,,,,,,,,,,,,,,,,,,,,,,,,,,,,,,,,,,,,,,,,,,,,,
296356,2022-12-07_10h56.59.980,vts_reward_expectancy_bt,2022.2.4,MacIntel,59.84082341,Chrome,1440,900,,,l,0.0178,10,365,1,1,10,22,8,1,0,0,1,0,0,0,0,1,hexagon,star,,,,,,,,,,,,,,,,,,,,,,,,,,,,,,,,,,,,,,,,,,,,,,,,,,,,,,
296356,2022-12-07_10h56.59.980,vts_reward_expectancy_bt,2022.2.4,MacIntel,59.84082341,Chrome,1440,900,,,l,0.204,10,375,1,1,11,23,11,1,0,0,0,1,0,0,1,0,star,hexagon,,,,,,,,,,,,,,,,,,,,,,,,,,,,,,,,,,,,,,,,,,,,,,,,,,,,,,
296356,2022-12-07_10h56.59.980,vts_reward_expectancy_bt,2022.2.4,MacIntel,59.84082341,Chrome,1440,900,,,l,0.4537,1,376,1,2,0,24,5,1,0,1,0,0,0,0,0,1,circle,star,,,,,,,,,,,,,,,,,,,,,,,,,,,,,,,,,,,,,,,,,,,,,,,,,,,,,,
296356,2022-12-07_10h56.59.980,vts_reward_expectancy_bt,2022.2.4,MacIntel,59.84082341,Chrome,1440,900,,,a,0.4722,1,377,1,2,1,25,11,1,0,0,0,1,0,0,1,0,star,hexagon,,,,,,,,,,,,,,,,,,,,,,,,,,,,,,,,,,,,,,,,,,,,,,,,,,,,,,
296356,2022-12-07_10h56.59.980,vts_reward_expectancy_bt,2022.2.4,MacIntel,59.84082341,Chrome,1440,900,,,l,0.3878,10,387,1,2,2,26,8,1,0,0,1,0,0,0,0,1,hexagon,star,,,,,,,,,,,,,,,,,,,,,,,,,,,,,,,,,,,,,,,,,,,,,,,,,,,,,,
296356,2022-12-07_10h56.59.980,vts_reward_expectancy_bt,2022.2.4,MacIntel,59.84082341,Chrome,1440,900,,,l,0.4352,10,397,1,2,3,27,7,1,0,0,1,0,0,1,0,0,hexagon,circle,,,,,,,,,,,,,,,,,,,,,,,,,,,,,,,,,,,,,,,,,,,,,,,,,,,,,,
296356,2022-12-07_10h56.59.980,vts_reward_expectancy_bt,2022.2.4,MacIntel,59.84082341,Chrome,1440,900,,,l,0.4052,1,398,1,2,4,28,6,1,0,0,1,0,1,0,0,0,hexagon,triangle,,,,,,,,,,,,,,,,,,,,,,,,,,,,,,,,,,,,,,,,,,,,,,,,,,,,,,
296356,2022-12-07_10h56.59.980,vts_reward_expectancy_bt,2022.2.4,MacIntel,59.84082341,Chrome,1440,900,,,a,0.3714,1,399,1,2,5,29,1,1,1,0,0,0,0,0,1,0,triangle,hexagon,,,,,,,,,,,,,,,,,,,,,,,,,,,,,,,,,,,,,,,,,,,,,,,,,,,,,,
296356,2022-12-07_10h56.59.980,vts_reward_expectancy_bt,2022.2.4,MacIntel,59.84082341,Chrome,1440,900,,,l,0.5876,10,409,1,2,6,30,9,1,0,0,0,1,1,0,0,0,star,triangle,,,,,,,,,,,,,,,,,,,,,,,,,,,,,,,,,,,,,,,,,,,,,,,,,,,,,,
296356,2022-12-07_10h56.59.980,vts_reward_expectancy_bt,2022.2.4,MacIntel,59.84082341,Chrome,1440,900,,,l,0.5389,1,410,1,2,7,31,3,1,0,1,0,0,1,0,0,0,circle,triangle,,,,,,,,,,,,,,,,,,,,,,,,,,,,,,,,,,,,,,,,,,,,,,,,,,,,,,
296356,2022-12-07_10h56.59.980,vts_reward_expectancy_bt,2022.2.4,MacIntel,59.84082341,Chrome,1440,900,,,a,0.3191,1,411,1,2,8,32,2,1,1,0,0,0,0,0,0,1,triangle,star,,,,,,,,,,,,,,,,,,,,,,,,,,,,,,,,,,,,,,,,,,,,,,,,,,,,,,
296356,2022-12-07_10h56.59.980,vts_reward_expectancy_bt,2022.2.4,MacIntel,59.84082341,Chrome,1440,900,,,a,0.1326,1,412,1,2,9,33,10,1,0,0,0,1,0,1,0,0,star ,circle,,,,,,,,,,,,,,,,,,,,,,,,,,,,,,,,,,,,,,,,,,,,,,,,,,,,,,
296356,2022-12-07_10h56.59.980,vts_reward_expectancy_bt,2022.2.4,MacIntel,59.84082341,Chrome,1440,900,,,a,0.3541,1,413,1,2,10,34,0,1,1,0,0,0,0,1,0,0,triangle,circle,,,,,,,,,,,,,,,,,,,,,,,,,,,,,,,,,,,,,,,,,,,,,,,,,,,,,,
296356,2022-12-07_10h56.59.980,vts_reward_expectancy_bt,2022.2.4,MacIntel,59.84082341,Chrome,1440,900,,,a,0.4941,10,423,1,2,11,35,4,1,0,1,0,0,0,0,1,0,circle,hexagon,,,,,,,,,,,,,,,,,,,,,,,,,,,,,,,,,,,,,,,,,,,,,,,,,,,,,,
296356,2022-12-07_10h56.59.980,vts_reward_expectancy_bt,2022.2.4,MacIntel,59.84082341,Chrome,1440,900,,,l,1.1207,10,433,2,0,0,0,6,1,0,0,1,0,1,0,0,0,hexagon,triangle,,,,,,,,,,,,,,,,,,,,,,,,,,,,,,,,,,,,,,,,,,,,,,,,,,,,,,
296356,2022-12-07_10h56.59.980,vts_reward_expectancy_bt,2022.2.4,MacIntel,59.84082341,Chrome,1440,900,,,a,0.7732,1,434,2,0,1,1,11,1,0,0,0,1,0,0,1,0,star,hexagon,,,,,,,,,,,,,,,,,,,,,,,,,,,,,,,,,,,,,,,,,,,,,,,,,,,,,,
296356,2022-12-07_10h56.59.980,vts_reward_expectancy_bt,2022.2.4,MacIntel,59.84082341,Chrome,1440,900,,,l,0.3844,10,444,2,0,2,2,0,1,1,0,0,0,0,1,0,0,triangle,circle,,,,,,,,,,,,,,,,,,,,,,,,,,,,,,,,,,,,,,,,,,,,,,,,,,,,,,
296356,2022-12-07_10h56.59.980,vts_reward_expectancy_bt,2022.2.4,MacIntel,59.84082341,Chrome,1440,900,,,l,0.4343,10,454,2,0,3,3,4,1,0,1,0,0,0,0,1,0,circle,hexagon,,,,,,,,,,,,,,,,,,,,,,,,,,,,,,,,,,,,,,,,,,,,,,,,,,,,,,
296356,2022-12-07_10h56.59.980,vts_reward_expectancy_bt,2022.2.4,MacIntel,59.84082341,Chrome,1440,900,,,l,0.6078,1,455,2,0,4,4,5,1,0,1,0,0,0,0,0,1,circle,star,,,,,,,,,,,,,,,,,,,,,,,,,,,,,,,,,,,,,,,,,,,,,,,,,,,,,,
296356,2022-12-07_10h56.59.980,vts_reward_expectancy_bt,2022.2.4,MacIntel,59.84082341,Chrome,1440,900,,,a,0.6171,10,465,2,0,5,5,7,1,0,0,1,0,0,1,0,0,hexagon,circle,,,,,,,,,,,,,,,,,,,,,,,,,,,,,,,,,,,,,,,,,,,,,,,,,,,,,,
296356,2022-12-07_10h56.59.980,vts_reward_expectancy_bt,2022.2.4,MacIntel,59.84082341,Chrome,1440,900,,,l,0.9219,1,466,2,0,6,6,10,1,0,0,0,1,0,1,0,0,star ,circle,,,,,,,,,,,,,,,,,,,,,,,,,,,,,,,,,,,,,,,,,,,,,,,,,,,,,,
296356,2022-12-07_10h56.59.980,vts_reward_expectancy_bt,2022.2.4,MacIntel,59.84082341,Chrome,1440,900,,,a,0.4708,1,467,2,0,7,7,9,1,0,0,0,1,1,0,0,0,star,triangle,,,,,,,,,,,,,,,,,,,,,,,,,,,,,,,,,,,,,,,,,,,,,,,,,,,,,,
296356,2022-12-07_10h56.59.980,vts_reward_expectancy_bt,2022.2.4,MacIntel,59.84082341,Chrome,1440,900,,,a,0.4392,1,468,2,0,8,8,3,1,0,1,0,0,1,0,0,0,circle,triangle,,,,,,,,,,,,,,,,,,,,,,,,,,,,,,,,,,,,,,,,,,,,,,,,,,,,,,
296356,2022-12-07_10h56.59.980,vts_reward_expectancy_bt,2022.2.4,MacIntel,59.84082341,Chrome,1440,900,,,l,0.5404,1,469,2,0,9,9,8,1,0,0,1,0,0,0,0,1,hexagon,star,,,,,,,,,,,,,,,,,,,,,,,,,,,,,,,,,,,,,,,,,,,,,,,,,,,,,,
296356,2022-12-07_10h56.59.980,vts_reward_expectancy_bt,2022.2.4,MacIntel,59.84082341,Chrome,1440,900,,,a,0.5689,10,479,2,0,10,10,2,1,1,0,0,0,0,0,0,1,triangle,star,,,,,,,,,,,,,,,,,,,,,,,,,,,,,,,,,,,,,,,,,,,,,,,,,,,,,,
296356,2022-12-07_10h56.59.980,vts_reward_expectancy_bt,2022.2.4,MacIntel,59.84082341,Chrome,1440,900,,,a,1.644,1,480,2,0,11,11,1,1,1,0,0,0,0,0,1,0,triangle,hexagon,,,,,,,,,,,,,,,,,,,,,,,,,,,,,,,,,,,,,,,,,,,,,,,,,,,,,,
296356,2022-12-07_10h56.59.980,vts_reward_expectancy_bt,2022.2.4,MacIntel,59.84082341,Chrome,1440,900,,,l,0.5115,10,490,2,1,0,12,2,1,1,0,0,0,0,0,0,1,triangle,star,,,,,,,,,,,,,,,,,,,,,,,,,,,,,,,,,,,,,,,,,,,,,,,,,,,,,,
296356,2022-12-07_10h56.59.980,vts_reward_expectancy_bt,2022.2.4,MacIntel,59.84082341,Chrome,1440,900,,,l,0.7866,10,500,2,1,1,13,4,1,0,1,0,0,0,0,1,0,circle,hexagon,,,,,,,,,,,,,,,,,,,,,,,,,,,,,,,,,,,,,,,,,,,,,,,,,,,,,,
296356,2022-12-07_10h56.59.980,vts_reward_expectancy_bt,2022.2.4,MacIntel,59.84082341,Chrome,1440,900,,,a,1.8732,10,510,2,1,2,14,10,1,0,0,0,1,0,1,0,0,star ,circle,,,,,,,,,,,,,,,,,,,,,,,,,,,,,,,,,,,,,,,,,,,,,,,,,,,,,,
296356,2022-12-07_10h56.59.980,vts_reward_expectancy_bt,2022.2.4,MacIntel,59.84082341,Chrome,1440,900,,,a,1.745,1,511,2,1,3,15,9,1,0,0,0,1,1,0,0,0,star,triangle,,,,,,,,,,,,,,,,,,,,,,,,,,,,,,,,,,,,,,,,,,,,,,,,,,,,,,
296356,2022-12-07_10h56.59.980,vts_reward_expectancy_bt,2022.2.4,MacIntel,59.84082341,Chrome,1440,900,,,l,1.045,10,521,2,1,4,16,11,1,0,0,0,1,0,0,1,0,star,hexagon,,,,,,,,,,,,,,,,,,,,,,,,,,,,,,,,,,,,,,,,,,,,,,,,,,,,,,
296356,2022-12-07_10h56.59.980,vts_reward_expectancy_bt,2022.2.4,MacIntel,59.84082341,Chrome,1440,900,,,a,0.977,1,522,2,1,5,17,3,1,0,1,0,0,1,0,0,0,circle,triangle,,,,,,,,,,,,,,,,,,,,,,,,,,,,,,,,,,,,,,,,,,,,,,,,,,,,,,
296356,2022-12-07_10h56.59.980,vts_reward_expectancy_bt,2022.2.4,MacIntel,59.84082341,Chrome,1440,900,,,l,0.537,1,523,2,1,6,18,6,1,0,0,1,0,1,0,0,0,hexagon,triangle,,,,,,,,,,,,,,,,,,,,,,,,,,,,,,,,,,,,,,,,,,,,,,,,,,,,,,
296356,2022-12-07_10h56.59.980,vts_reward_expectancy_bt,2022.2.4,MacIntel,59.84082341,Chrome,1440,900,,,l,1.0701,1,524,2,1,7,19,8,1,0,0,1,0,0,0,0,1,hexagon,star,,,,,,,,,,,,,,,,,,,,,,,,,,,,,,,,,,,,,,,,,,,,,,,,,,,,,,
296356,2022-12-07_10h56.59.980,vts_reward_expectancy_bt,2022.2.4,MacIntel,59.84082341,Chrome,1440,900,,,a,3.8818,10,534,2,1,8,20,1,1,1,0,0,0,0,0,1,0,triangle,hexagon,,,,,,,,,,,,,,,,,,,,,,,,,,,,,,,,,,,,,,,,,,,,,,,,,,,,,,
296356,2022-12-07_10h56.59.980,vts_reward_expectancy_bt,2022.2.4,MacIntel,59.84082341,Chrome,1440,900,,,a,1.0926,10,544,2,1,9,21,5,1,0,1,0,0,0,0,0,1,circle,star,,,,,,,,,,,,,,,,,,,,,,,,,,,,,,,,,,,,,,,,,,,,,,,,,,,,,,
296356,2022-12-07_10h56.59.980,vts_reward_expectancy_bt,2022.2.4,MacIntel,59.84082341,Chrome,1440,900,,,a,0.7042,1,545,2,1,10,22,0,1,1,0,0,0,0,1,0,0,triangle,circle,,,,,,,,,,,,,,,,,,,,,,,,,,,,,,,,,,,,,,,,,,,,,,,,,,,,,,
296356,2022-12-07_10h56.59.980,vts_reward_expectancy_bt,2022.2.4,MacIntel,59.84082341,Chrome,1440,900,,,l,0.3767,10,555,2,1,11,23,7,1,0,0,1,0,0,1,0,0,hexagon,circle,,,,,,,,,,,,,,,,,,,,,,,,,,,,,,,,,,,,,,,,,,,,,,,,,,,,,,
296356,2022-12-07_10h56.59.980,vts_reward_expectancy_bt,2022.2.4,MacIntel,59.84082341,Chrome,1440,900,,,a,0.3518,10,565,2,2,0,24,8,1,0,0,1,0,0,0,0,1,hexagon,star,,,,,,,,,,,,,,,,,,,,,,,,,,,,,,,,,,,,,,,,,,,,,,,,,,,,,,
296356,2022-12-07_10h56.59.980,vts_reward_expectancy_bt,2022.2.4,MacIntel,59.84082341,Chrome,1440,900,,,a,0.3375,10,575,2,2,1,25,4,1,0,1,0,0,0,0,1,0,circle,hexagon,,,,,,,,,,,,,,,,,,,,,,,,,,,,,,,,,,,,,,,,,,,,,,,,,,,,,,
296356,2022-12-07_10h56.59.980,vts_reward_expectancy_bt,2022.2.4,MacIntel,59.84082341,Chrome,1440,900,,,a,0.3872,10,585,2,2,2,26,0,1,1,0,0,0,0,1,0,0,triangle,circle,,,,,,,,,,,,,,,,,,,,,,,,,,,,,,,,,,,,,,,,,,,,,,,,,,,,,,
296356,2022-12-07_10h56.59.980,vts_reward_expectancy_bt,2022.2.4,MacIntel,59.84082341,Chrome,1440,900,,,l,0.5006,1,586,2,2,3,27,6,1,0,0,1,0,1,0,0,0,hexagon,triangle,,,,,,,,,,,,,,,,,,,,,,,,,,,,,,,,,,,,,,,,,,,,,,,,,,,,,,
296356,2022-12-07_10h56.59.980,vts_reward_expectancy_bt,2022.2.4,MacIntel,59.84082341,Chrome,1440,900,,,l,0.453,1,587,2,2,4,28,10,1,0,0,0,1,0,1,0,0,star ,circle,,,,,,,,,,,,,,,,,,,,,,,,,,,,,,,,,,,,,,,,,,,,,,,,,,,,,,
296356,2022-12-07_10h56.59.980,vts_reward_expectancy_bt,2022.2.4,MacIntel,59.84082341,Chrome,1440,900,,,l,0.6183,10,597,2,2,5,29,7,1,0,0,1,0,0,1,0,0,hexagon,circle,,,,,,,,,,,,,,,,,,,,,,,,,,,,,,,,,,,,,,,,,,,,,,,,,,,,,,
296356,2022-12-07_10h56.59.980,vts_reward_expectancy_bt,2022.2.4,MacIntel,59.84082341,Chrome,1440,900,,,l,0.5016,10,607,2,2,6,30,11,1,0,0,0,1,0,0,1,0,star,hexagon,,,,,,,,,,,,,,,,,,,,,,,,,,,,,,,,,,,,,,,,,,,,,,,,,,,,,,
296356,2022-12-07_10h56.59.980,vts_reward_expectancy_bt,2022.2.4,MacIntel,59.84082341,Chrome,1440,900,,,l,0.5008,10,617,2,2,7,31,5,1,0,1,0,0,0,0,0,1,circle,star,,,,,,,,,,,,,,,,,,,,,,,,,,,,,,,,,,,,,,,,,,,,,,,,,,,,,,
296356,2022-12-07_10h56.59.980,vts_reward_expectancy_bt,2022.2.4,MacIntel,59.84082341,Chrome,1440,900,,,l,0.6069,1,618,2,2,8,32,2,1,1,0,0,0,0,0,0,1,triangle,star,,,,,,,,,,,,,,,,,,,,,,,,,,,,,,,,,,,,,,,,,,,,,,,,,,,,,,
296356,2022-12-07_10h56.59.980,vts_reward_expectancy_bt,2022.2.4,MacIntel,59.84082341,Chrome,1440,900,,,a,0.487,10,628,2,2,9,33,3,1,0,1,0,0,1,0,0,0,circle,triangle,,,,,,,,,,,,,,,,,,,,,,,,,,,,,,,,,,,,,,,,,,,,,,,,,,,,,,
296356,2022-12-07_10h56.59.980,vts_reward_expectancy_bt,2022.2.4,MacIntel,59.84082341,Chrome,1440,900,,,a,0.486,10,638,2,2,10,34,9,1,0,0,0,1,1,0,0,0,star,triangle,,,,,,,,,,,,,,,,,,,,,,,,,,,,,,,,,,,,,,,,,,,,,,,,,,,,,,
296356,2022-12-07_10h56.59.980,vts_reward_expectancy_bt,2022.2.4,MacIntel,59.84082341,Chrome,1440,900,,,a,0.5543,10,648,2,2,11,35,1,1,1,0,0,0,0,0,1,0,triangle,hexagon,,,,,,,,,,,,,,,,,,,,,,,,,,,,,,,,,,,,,,,,,,,,,,,,,,,,,,
296356,2022-12-07_10h56.59.980,vts_reward_expectancy_bt,2022.2.4,MacIntel,59.84082341,Chrome,1440,900,,,,,,,,,,,,,,,,,,,,,,,181,U,hexagon,0,0,,0,0,0,0,0,1,,,,,,,,,,,,,,,,,,,,,,,,,,,,,,,,,,,,,,,,,,
296356,2022-12-07_10h56.59.980,vts_reward_expectancy_bt,2022.2.4,MacIntel,59.84082341,Chrome,1440,900,,,,,,,,,,,,,,,,,,,,,,,174,H,circle,1,1,f,0,1,0,1,0,1,1.1356,,,,,,,,,,,,,,,,,,,,,,,,,,,,,,,,,,,,,,,,,
296356,2022-12-07_10h56.59.980,vts_reward_expectancy_bt,2022.2.4,MacIntel,59.84082341,Chrome,1440,900,,,,,,,,,,,,,,,,,,,,,,,146,W,star,1,0,d,0,2,0,2,0,1,0.6824,,,,,,,,,,,,,,,,,,,,,,,,,,,,,,,,,,,,,,,,,
296356,2022-12-07_10h56.59.980,vts_reward_expectancy_bt,2022.2.4,MacIntel,59.84082341,Chrome,1440,900,,,,,,,,,,,,,,,,,,,,,,,167,F,triangle,1,0,f,0,3,0,3,0,1,1.0505,,,,,,,,,,,,,,,,,,,,,,,,,,,,,,,,,,,,,,,,,
296356,2022-12-07_10h56.59.980,vts_reward_expectancy_bt,2022.2.4,MacIntel,59.84082341,Chrome,1440,900,,,,,,,,,,,,,,,,,,,,,,,125,Y,hexagon,1,0,d,0,4,0,4,0,1,0.6532,,,,,,,,,,,,,,,,,,,,,,,,,,,,,,,,,,,,,,,,,
296356,2022-12-07_10h56.59.980,vts_reward_expectancy_bt,2022.2.4,MacIntel,59.84082341,Chrome,1440,900,,,,,,,,,,,,,,,,,,,,,,,139,B,circle,1,0,d,0,5,0,5,0,1,1.0892,,,,,,,,,,,,,,,,,,,,,,,,,,,,,,,,,,,,,,,,,
296356,2022-12-07_10h56.59.980,vts_reward_expectancy_bt,2022.2.4,MacIntel,59.84082341,Chrome,1440,900,,,,,,,,,,,,,,,,,,,,,,,160,D,star,1,0,f,0,6,0,6,0,1,0.5149,,,,,,,,,,,,,,,,,,,,,,,,,,,,,,,,,,,,,,,,,
296356,2022-12-07_10h56.59.980,vts_reward_expectancy_bt,2022.2.4,MacIntel,59.84082341,Chrome,1440,900,,,,,,,,,,,,,,,,,,,,,,,132,S,triangle,1,0,d,0,7,0,7,0,1,0.7829,,,,,,,,,,,,,,,,,,,,,,,,,,,,,,,,,,,,,,,,,
296356,2022-12-07_10h56.59.980,vts_reward_expectancy_bt,2022.2.4,MacIntel,59.84082341,Chrome,1440,900,,,,,,,,,,,,,,,,,,,,,,,181,U,hexagon,1,0,f,0,8,0,8,0,1,1.0162,,,,,,,,,,,,,,,,,,,,,,,,,,,,,,,,,,,,,,,,,
296356,2022-12-07_10h56.59.980,vts_reward_expectancy_bt,2022.2.4,MacIntel,59.84082341,Chrome,1440,900,,,,,,,,,,,,,,,,,,,,,,,174,H,circle,1,0,f,0,9,0,9,0,1,0.7821,,,,,,,,,,,,,,,,,,,,,,,,,,,,,,,,,,,,,,,,,
296356,2022-12-07_10h56.59.980,vts_reward_expectancy_bt,2022.2.4,MacIntel,59.84082341,Chrome,1440,900,,,,,,,,,,,,,,,,,,,,,,,167,B,star,1,0,,1,,,,,,,j,1.1516,0,0,0,0,1,,,,,,,,,,,,,,,,,,,,,,,,,,,,,,,,,,
296356,2022-12-07_10h56.59.980,vts_reward_expectancy_bt,2022.2.4,MacIntel,59.84082341,Chrome,1440,900,,,,,,,,,,,,,,,,,,,,,,,174,Y,circle,1,0,,1,,,,,,,k,0.6489,1,0,1,0,1,,,,,,,,,,,,,,,,,,,,,,,,,,,,,,,,,,
296356,2022-12-07_10h56.59.980,vts_reward_expectancy_bt,2022.2.4,MacIntel,59.84082341,Chrome,1440,900,,,,,,,,,,,,,,,,,,,,,,,139,H,hexagon,1,0,,1,,,,,,,j,0.5651,2,0,2,0,1,,,,,,,,,,,,,,,,,,,,,,,,,,,,,,,,,,
296356,2022-12-07_10h56.59.980,vts_reward_expectancy_bt,2022.2.4,MacIntel,59.84082341,Chrome,1440,900,,,,,,,,,,,,,,,,,,,,,,,132,S,triangle,1,0,,1,,,,,,,k,0.9565,3,0,3,0,1,,,,,,,,,,,,,,,,,,,,,,,,,,,,,,,,,,
296356,2022-12-07_10h56.59.980,vts_reward_expectancy_bt,2022.2.4,MacIntel,59.84082341,Chrome,1440,900,,,,,,,,,,,,,,,,,,,,,,,160,D,star,1,0,,1,,,,,,,j,0.7535,4,0,4,0,1,,,,,,,,,,,,,,,,,,,,,,,,,,,,,,,,,,
296356,2022-12-07_10h56.59.980,vts_reward_expectancy_bt,2022.2.4,MacIntel,59.84082341,Chrome,1440,900,,,,,,,,,,,,,,,,,,,,,,,125,W,circle,1,0,,1,,,,,,,k,0.7349,5,0,5,0,1,,,,,,,,,,,,,,,,,,,,,,,,,,,,,,,,,,
296356,2022-12-07_10h56.59.980,vts_reward_expectancy_bt,2022.2.4,MacIntel,59.84082341,Chrome,1440,900,,,,,,,,,,,,,,,,,,,,,,,146,U,hexagon,1,0,,1,,,,,,,k,0.6852,6,0,6,0,1,,,,,,,,,,,,,,,,,,,,,,,,,,,,,,,,,,
296356,2022-12-07_10h56.59.980,vts_reward_expectancy_bt,2022.2.4,MacIntel,59.84082341,Chrome,1440,900,,,,,,,,,,,,,,,,,,,,,,,181,F,triangle,1,0,,1,,,,,,,j,0.9026,7,0,7,0,1,,,,,,,,,,,,,,,,,,,,,,,,,,,,,,,,,,
296356,2022-12-07_10h56.59.980,vts_reward_expectancy_bt,2022.2.4,MacIntel,59.84082341,Chrome,1440,900,,,,,,,,,,,,,,,,,,,,,,,167,B,star,1,0,,1,,,,,,,j,0.6964,8,0,8,0,1,,,,,,,,,,,,,,,,,,,,,,,,,,,,,,,,,,
296356,2022-12-07_10h56.59.980,vts_reward_expectancy_bt,2022.2.4,MacIntel,59.84082341,Chrome,1440,900,,,,,,,,,,,,,,,,,,,,,,,174,Y,circle,1,0,,1,,,,,,,k,0.6315,9,0,9,0,1,,,,,,,,,,,,,,,,,,,,,,,,,,,,,,,,,,
296356,2022-12-07_10h56.59.980,vts_reward_expectancy_bt,2022.2.4,MacIntel,59.84082341,Chrome,1440,900,,,,,0,648,,,,,,,,,,,,,,,,,160,U,triangle,1,0,,2,,,,,,,,,,,,,,-1,letter,NA,k,1.9126,vtsPrac,0,0,0,0,1,,,,,,,,,,,,,,,,,,,,,,,
296356,2022-12-07_10h56.59.980,vts_reward_expectancy_bt,2022.2.4,MacIntel,59.84082341,Chrome,1440,900,,,,,0,648,,,,,,,,,,,,,,,,,181,D,circle,1,0,,2,,,,,,,,,,,,,,switch,number,numSwt,f,0.9189,vtsPrac,1,0,1,0,1,,,,,,,,,,,,,,,,,,,,,,,
296356,2022-12-07_10h56.59.980,vts_reward_expectancy_bt,2022.2.4,MacIntel,59.84082341,Chrome,1440,900,,,,,0,648,,,,,,,,,,,,,,,,,146,Y,triangle,1,0,,2,,,,,,,,,,,,,,repeat,number,numRpt,d,0.8695,vtsPrac,2,0,2,0,1,,,,,,,,,,,,,,,,,,,,,,,
296356,2022-12-07_10h56.59.980,vts_reward_expectancy_bt,2022.2.4,MacIntel,59.84082341,Chrome,1440,900,,,,,0,648,,,,,,,,,,,,,,,,,139,S,circle,1,0,,2,,,,,,,,,,,,,,repeat,number,numRpt,d,0.8359,vtsPrac,3,0,3,0,1,,,,,,,,,,,,,,,,,,,,,,,
296356,2022-12-07_10h56.59.980,vts_reward_expectancy_bt,2022.2.4,MacIntel,59.84082341,Chrome,1440,900,,,,,0,648,,,,,,,,,,,,,,,,,160,U,hexagon,1,0,,2,,,,,,,,,,,,,,switch,letter,lettSwt,k,0.7328,vtsPrac,4,0,4,0,1,,,,,,,,,,,,,,,,,,,,,,,
296356,2022-12-07_10h56.59.980,vts_reward_expectancy_bt,2022.2.4,MacIntel,59.84082341,Chrome,1440,900,,,,,0,648,,,,,,,,,,,,,,,,,181,D,star,1,0,,2,,,,,,,,,,,,,,repeat,letter,lettRpt,j,0.6507,vtsPrac,5,0,5,0,1,,,,,,,,,,,,,,,,,,,,,,,
296356,2022-12-07_10h56.59.980,vts_reward_expectancy_bt,2022.2.4,MacIntel,59.84082341,Chrome,1440,900,,,,,0,648,,,,,,,,,,,,,,,,,146,Y,star,1,0,,2,,,,,,,,,,,,,,switch,number,numSwt,d,0.9338,vtsPrac,6,0,6,0,1,,,,,,,,,,,,,,,,,,,,,,,
296356,2022-12-07_10h56.59.980,vts_reward_expectancy_bt,2022.2.4,MacIntel,59.84082341,Chrome,1440,900,,,,,0,648,,,,,,,,,,,,,,,,,139,S,circle,1,0,,2,,,,,,,,,,,,,,switch,letter,lettSwt,k,0.7161,vtsPrac,7,0,7,0,1,,,,,,,,,,,,,,,,,,,,,,,
296356,2022-12-07_10h56.59.980,vts_reward_expectancy_bt,2022.2.4,MacIntel,59.84082341,Chrome,1440,900,,,,,0,648,,,,,,,,,,,,,,,,,160,Y,triangle,1,0,,2,,,,,,,,,,,,,,switch,number,numSwt,f,0.7543,vtsPrac,8,0,8,0,1,,,,,,,,,,,,,,,,,,,,,,,
296356,2022-12-07_10h56.59.980,vts_reward_expectancy_bt,2022.2.4,MacIntel,59.84082341,Chrome,1440,900,,,,,0,648,,,,,,,,,,,,,,,,,139,W,star,1,0,,2,,,,,,,,,,,,,,repeat,number,numRpt,d,0.8,vtsPrac,9,0,9,0,1,,,,,,,,,,,,,,,,,,,,,,,
296356,2022-12-07_10h56.59.980,vts_reward_expectancy_bt,2022.2.4,MacIntel,59.84082341,Chrome,1440,900,,,,,0,648,,,,,,,,,,,,,,,,,132,S,circle,0,0,,2,,,,,,,,,,,,,,switch,letter,NA,j,1.11,vtsPrac,10,0,10,0,1,,,,,,,,,,,,,,,,,,,,,,,
296356,2022-12-07_10h56.59.980,vts_reward_expectancy_bt,2022.2.4,MacIntel,59.84082341,Chrome,1440,900,,,,,0,648,,,,,,,,,,,,,,,,,167,B,triangle,1,1,,2,,,,,,,,,,,,,,switch,number,numSwt,f,1.2879,vtsPrac,11,0,11,0,1,,,,,,,,,,,,,,,,,,,,,,,
296356,2022-12-07_10h56.59.980,vts_reward_expectancy_bt,2022.2.4,MacIntel,59.84082341,Chrome,1440,900,,,,,0,648,,,,,,,,,,,,,,,,,146,W,hexagon,0,0,,2,,,,,,,,,,,,,,switch,letter,NA,j,1.2669,vtsPrac,12,0,12,0,1,,,,,,,,,,,,,,,,,,,,,,,
296356,2022-12-07_10h56.59.980,vts_reward_expectancy_bt,2022.2.4,MacIntel,59.84082341,Chrome,1440,900,,,,,0,648,,,,,,,,,,,,,,,,,132,U,circle,1,1,,2,,,,,,,,,,,,,,repeat,letter,lettRpt,k,1.6198,vtsPrac,13,0,13,0,1,,,,,,,,,,,,,,,,,,,,,,,
296356,2022-12-07_10h56.59.980,vts_reward_expectancy_bt,2022.2.4,MacIntel,59.84082341,Chrome,1440,900,,,,,0,648,,,,,,,,,,,,,,,,,125,F,hexagon,1,0,,2,,,,,,,,,,,,,,switch,number,numSwt,d,0.6994,vtsPrac,14,0,14,0,1,,,,,,,,,,,,,,,,,,,,,,,
296356,2022-12-07_10h56.59.980,vts_reward_expectancy_bt,2022.2.4,MacIntel,59.84082341,Chrome,1440,900,,,,,0,648,,,,,,,,,,,,,,,,,174,B,star,1,0,,2,,,,,,,,,,,,,,repeat,number,numRpt,f,0.9236,vtsPrac,15,0,15,0,1,,,,,,,,,,,,,,,,,,,,,,,
296356,2022-12-07_10h56.59.980,vts_reward_expectancy_bt,2022.2.4,MacIntel,59.84082341,Chrome,1440,900,,,,,0,648,,,,,,,,,,,,,,,,,174,U,circle,1,0,,2,,,,,,,,,,,,,,switch,letter,lettSwt,k,1.0371,vtsPrac,16,0,16,0,1,,,,,,,,,,,,,,,,,,,,,,,
296356,2022-12-07_10h56.59.980,vts_reward_expectancy_bt,2022.2.4,MacIntel,59.84082341,Chrome,1440,900,,,,,0,648,,,,,,,,,,,,,,,,,146,H,triangle,1,0,,2,,,,,,,,,,,,,,repeat,letter,lettRpt,j,0.6832,vtsPrac,17,0,17,0,1,,,,,,,,,,,,,,,,,,,,,,,
296356,2022-12-07_10h56.59.980,vts_reward_expectancy_bt,2022.2.4,MacIntel,59.84082341,Chrome,1440,900,,,,,0,648,,,,,,,,,,,,,,,,,132,D,hexagon,1,0,,2,,,,,,,,,,,,,,switch,number,numSwt,d,0.5354,vtsPrac,18,0,18,0,1,,,,,,,,,,,,,,,,,,,,,,,
296356,2022-12-07_10h56.59.980,vts_reward_expectancy_bt,2022.2.4,MacIntel,59.84082341,Chrome,1440,900,,,,,0,648,,,,,,,,,,,,,,,,,181,B,circle,1,0,,2,,,,,,,,,,,,,,repeat,number,numRpt,f,0.7833,vtsPrac,19,0,19,0,1,,,,,,,,,,,,,,,,,,,,,,,
296356,2022-12-07_10h56.59.980,vts_reward_expectancy_bt,2022.2.4,MacIntel,59.84082341,Chrome,1440,900,,,,,0,648,,,,,,,,,,,,,,,,,174,W,triangle,1,0,,2,,,,,,,,,,,,,,repeat,number,numRpt,f,0.7526,vtsPrac,20,0,20,0,1,,,,,,,,,,,,,,,,,,,,,,,
296356,2022-12-07_10h56.59.980,vts_reward_expectancy_bt,2022.2.4,MacIntel,59.84082341,Chrome,1440,900,,,,,0,648,,,,,,,,,,,,,,,,,132,D,circle,1,0,,2,,,,,,,,,,,,,,switch,letter,lettSwt,j,0.5822,vtsPrac,21,0,21,0,1,,,,,,,,,,,,,,,,,,,,,,,
296356,2022-12-07_10h56.59.980,vts_reward_expectancy_bt,2022.2.4,MacIntel,59.84082341,Chrome,1440,900,,,,,0,648,,,,,,,,,,,,,,,,,160,H,circle,1,0,,2,,,,,,,,,,,,,,repeat,letter,lettRpt,j,0.8157,vtsPrac,22,0,22,0,1,,,,,,,,,,,,,,,,,,,,,,,
296356,2022-12-07_10h56.59.980,vts_reward_expectancy_bt,2022.2.4,MacIntel,59.84082341,Chrome,1440,900,,,,,0,648,,,,,,,,,,,,,,,,,125,S,triangle,1,0,,2,,,,,,,,,,,,,,repeat,letter,lettRpt,k,0.8331,vtsPrac,23,0,23,0,1,,,,,,,,,,,,,,,,,,,,,,,
296356,2022-12-07_10h56.59.980,vts_reward_expectancy_bt,2022.2.4,MacIntel,59.84082341,Chrome,1440,900,,,,,0,648,,,,,,,,,,,,,,,,,160,W,hexagon,1,0,,2,,,,,,,,,,,,,,repeat,letter,lettRpt,k,0.7865,vtsPrac,24,0,24,0,1,,,,,,,,,,,,,,,,,,,,,,,
296356,2022-12-07_10h56.59.980,vts_reward_expectancy_bt,2022.2.4,MacIntel,59.84082341,Chrome,1440,900,,,,,0,648,,,,,,,,,,,,,,,,,167,D,star,1,0,,2,,,,,,,,,,,,,,repeat,letter,lettRpt,j,0.6461,vtsPrac,25,0,25,0,1,,,,,,,,,,,,,,,,,,,,,,,
296356,2022-12-07_10h56.59.980,vts_reward_expectancy_bt,2022.2.4,MacIntel,59.84082341,Chrome,1440,900,,,,,0,648,,,,,,,,,,,,,,,,,146,H,hexagon,1,0,,2,,,,,,,,,,,,,,repeat,letter,lettRpt,j,1.2155,vtsPrac,26,0,26,0,1,,,,,,,,,,,,,,,,,,,,,,,
296356,2022-12-07_10h56.59.980,vts_reward_expectancy_bt,2022.2.4,MacIntel,59.84082341,Chrome,1440,900,,,,,0,648,,,,,,,,,,,,,,,,,174,Y,star,1,0,,2,,,,,,,,,,,,,,repeat,letter,lettRpt,k,0.783,vtsPrac,27,0,27,0,1,,,,,,,,,,,,,,,,,,,,,,,
296356,2022-12-07_10h56.59.980,vts_reward_expectancy_bt,2022.2.4,MacIntel,59.84082341,Chrome,1440,900,,,,,0,648,,,,,,,,,,,,,,,,,125,U,triangle,1,0,,2,,,,,,,,,,,,,,switch,number,numSwt,d,1.6022,vtsPrac,28,0,28,0,1,,,,,,,,,,,,,,,,,,,,,,,
296356,2022-12-07_10h56.59.980,vts_reward_expectancy_bt,2022.2.4,MacIntel,59.84082341,Chrome,1440,900,,,,,0,648,,,,,,,,,,,,,,,,,132,D,star,1,0,,2,,,,,,,,,,,,,,repeat,number,numRpt,d,0.7839,vtsPrac,29,0,29,0,1,,,,,,,,,,,,,,,,,,,,,,,
296356,2022-12-07_10h56.59.980,vts_reward_expectancy_bt,2022.2.4,MacIntel,59.84082341,Chrome,1440,900,,,,,0,648,,,,,,,,,,,,,,,,,160,Y,star,1,0,,2,,,,,,,,,,,,,,repeat,number,numRpt,f,0.8323,vtsPrac,30,0,30,0,1,,,,,,,,,,,,,,,,,,,,,,,
296356,2022-12-07_10h56.59.980,vts_reward_expectancy_bt,2022.2.4,MacIntel,59.84082341,Chrome,1440,900,,,,,0,648,,,,,,,,,,,,,,,,,174,W,circle,1,0,,2,,,,,,,,,,,,,,repeat,number,numRpt,f,1.0053,vtsPrac,31,0,31,0,1,,,,,,,,,,,,,,,,,,,,,,,
296356,2022-12-07_10h56.59.980,vts_reward_expectancy_bt,2022.2.4,MacIntel,59.84082341,Chrome,1440,900,,,,,,,,,,,,,,,,,,,,,,,,,,,,,,,,,,,,,,,,,,,,,,,,,,,,,,,,,,,,,,,,,,,,,,,,,,,,
296356,2022-12-07_10h56.59.980,vts_reward_expectancy_bt,2022.2.4,MacIntel,59.84082341,Chrome,1440,900,,,,,,,,,,,,,,,,,,,,,,,,,,,,,,,,,,,,,,,,,,,,,,,,,,,,,,,,,,,,,,,,,,,,,,,,,,,,
296356,2022-12-07_10h56.59.980,vts_reward_expectancy_bt,2022.2.4,MacIntel,59.84082341,Chrome,1440,900,,,,,0,648,,,,,,,,,,,,,,,,,146,D,star,1,0,,,,,,,,,,,,,,,,switch,letter,lettSwt,j,2.5225,noRew,,,,,,0,0,0,0,0,1,,,,,,,,,,,,,,,,,
296356,2022-12-07_10h56.59.980,vts_reward_expectancy_bt,2022.2.4,MacIntel,59.84082341,Chrome,1440,900,,,,,0,648,,,,,,,,,,,,,,,,,132,B,triangle,1,0,,,,,,,,,,,,,,,,repeat,letter,lettRpt,j,0.5996,noRew,,,,,,0,1,0,1,0,1,,,,,,,,,,,,,,,,,
296356,2022-12-07_10h56.59.980,vts_reward_expectancy_bt,2022.2.4,MacIntel,59.84082341,Chrome,1440,900,,,,,0,648,,,,,,,,,,,,,,,,,167,S,star,1,0,,,,,,,,,,,,,,,,repeat,letter,lettRpt,k,1.1353,noRew,,,,,,0,2,0,2,0,1,,,,,,,,,,,,,,,,,
296356,2022-12-07_10h56.59.980,vts_reward_expectancy_bt,2022.2.4,MacIntel,59.84082341,Chrome,1440,900,,,,,0,648,,,,,,,,,,,,,,,,,139,H,triangle,1,0,,,,,,,,,,,,,,,,repeat,letter,lettRpt,j,1.1538,noRew,,,,,,0,3,0,3,0,1,,,,,,,,,,,,,,,,,
296356,2022-12-07_10h56.59.980,vts_reward_expectancy_bt,2022.2.4,MacIntel,59.84082341,Chrome,1440,900,,,,,0,648,,,,,,,,,,,,,,,,,146,D,triangle,1,0,,,,,,,,,,,,,,,,repeat,letter,lettRpt,j,0.6519,noRew,,,,,,0,4,0,4,0,1,,,,,,,,,,,,,,,,,
296356,2022-12-07_10h56.59.980,vts_reward_expectancy_bt,2022.2.4,MacIntel,59.84082341,Chrome,1440,900,,,,,0,648,,,,,,,,,,,,,,,,,132,B,hexagon,1,0,,,,,,,,,,,,,,,,switch,number,numSwt,d,1.7509,noRew,,,,,,0,5,0,5,0,1,,,,,,,,,,,,,,,,,
296356,2022-12-07_10h56.59.980,vts_reward_expectancy_bt,2022.2.4,MacIntel,59.84082341,Chrome,1440,900,,,,,0,648,,,,,,,,,,,,,,,,,167,S,hexagon,1,0,,,,,,,,,,,,,,,,repeat,number,numRpt,f,0.7597,noRew,,,,,,0,6,0,6,0,1,,,,,,,,,,,,,,,,,
296356,2022-12-07_10h56.59.980,vts_reward_expectancy_bt,2022.2.4,MacIntel,59.84082341,Chrome,1440,900,,,,,0,648,,,,,,,,,,,,,,,,,139,H,star,1,0,,,,,,,,,,,,,,,,repeat,number,numRpt,d,1.0196,noRew,,,,,,0,7,0,7,0,1,,,,,,,,,,,,,,,,,
296356,2022-12-07_10h56.59.980,vts_reward_expectancy_bt,2022.2.4,MacIntel,59.84082341,Chrome,1440,900,,,,,0,648,,,,,,,,,,,,,,,,,125,F,star,1,0,,,,,,,,,,,,,,,,repeat,number,numRpt,d,0.6683,noRew,,,,,,0,8,0,8,0,1,,,,,,,,,,,,,,,,,
296356,2022-12-07_10h56.59.980,vts_reward_expectancy_bt,2022.2.4,MacIntel,59.84082341,Chrome,1440,900,,,,,0,648,,,,,,,,,,,,,,,,,132,H,hexagon,1,0,,,,,,,,,,,,,,,,repeat,number,numRpt,d,0.638,noRew,,,,,,0,9,0,9,0,1,,,,,,,,,,,,,,,,,
296356,2022-12-07_10h56.59.980,vts_reward_expectancy_bt,2022.2.4,MacIntel,59.84082341,Chrome,1440,900,,,,,0,648,,,,,,,,,,,,,,,,,146,Y,triangle,1,0,,,,,,,,,,,,,,,,repeat,number,numRpt,d,0.8664,noRew,,,,,,0,10,0,10,0,1,,,,,,,,,,,,,,,,,
296356,2022-12-07_10h56.59.980,vts_reward_expectancy_bt,2022.2.4,MacIntel,59.84082341,Chrome,1440,900,,,,,0,648,,,,,,,,,,,,,,,,,167,D,circle,1,0,,,,,,,,,,,,,,,,repeat,number,numRpt,f,0.7733,noRew,,,,,,0,11,0,11,0,1,,,,,,,,,,,,,,,,,
296356,2022-12-07_10h56.59.980,vts_reward_expectancy_bt,2022.2.4,MacIntel,59.84082341,Chrome,1440,900,,,,,0,648,,,,,,,,,,,,,,,,,167,S,circle,1,0,,,,,,,,,,,,,,,,repeat,number,numRpt,f,0.8675,noRew,,,,,,0,12,0,12,0,1,,,,,,,,,,,,,,,,,
296356,2022-12-07_10h56.59.980,vts_reward_expectancy_bt,2022.2.4,MacIntel,59.84082341,Chrome,1440,900,,,,,0,648,,,,,,,,,,,,,,,,,146,B,triangle,1,0,,,,,,,,,,,,,,,,repeat,number,numRpt,d,1.4706,noRew,,,,,,0,13,0,13,0,1,,,,,,,,,,,,,,,,,
296356,2022-12-07_10h56.59.980,vts_reward_expectancy_bt,2022.2.4,MacIntel,59.84082341,Chrome,1440,900,,,,,0,648,,,,,,,,,,,,,,,,,174,Y,star,1,0,,,,,,,,,,,,,,,,switch,letter,lettSwt,k,0.8518,noRew,,,,,,0,14,0,14,0,1,,,,,,,,,,,,,,,,,
296356,2022-12-07_10h56.59.980,vts_reward_expectancy_bt,2022.2.4,MacIntel,59.84082341,Chrome,1440,900,,,,,0,648,,,,,,,,,,,,,,,,,181,H,hexagon,1,0,,,,,,,,,,,,,,,,repeat,letter,lettRpt,j,0.6333,noRew,,,,,,0,15,0,15,0,1,,,,,,,,,,,,,,,,,
296356,2022-12-07_10h56.59.980,vts_reward_expectancy_bt,2022.2.4,MacIntel,59.84082341,Chrome,1440,900,,,,,0,648,,,,,,,,,,,,,,,,,174,F,triangle,1,0,,,,,,,,,,,,,,,,repeat,letter,lettRpt,j,0.7637,noRew,,,,,,0,16,0,16,0,1,,,,,,,,,,,,,,,,,
296356,2022-12-07_10h56.59.980,vts_reward_expectancy_bt,2022.2.4,MacIntel,59.84082341,Chrome,1440,900,,,,,0,648,,,,,,,,,,,,,,,,,132,D,hexagon,1,0,,,,,,,,,,,,,,,,repeat,letter,lettRpt,j,0.666,noRew,,,,,,0,17,0,17,0,1,,,,,,,,,,,,,,,,,
296356,2022-12-07_10h56.59.980,vts_reward_expectancy_bt,2022.2.4,MacIntel,59.84082341,Chrome,1440,900,,,,,0,648,,,,,,,,,,,,,,,,,181,U,triangle,1,0,,,,,,,,,,,,,,,,repeat,letter,lettRpt,k,0.7885,noRew,,,,,,0,18,0,18,0,1,,,,,,,,,,,,,,,,,
296356,2022-12-07_10h56.59.980,vts_reward_expectancy_bt,2022.2.4,MacIntel,59.84082341,Chrome,1440,900,,,,,0,648,,,,,,,,,,,,,,,,,146,S,star,1,0,,,,,,,,,,,,,,,,repeat,letter,lettRpt,k,0.9693,noRew,,,,,,0,19,0,19,0,1,,,,,,,,,,,,,,,,,
296356,2022-12-07_10h56.59.980,vts_reward_expectancy_bt,2022.2.4,MacIntel,59.84082341,Chrome,1440,900,,,,,0,648,,,,,,,,,,,,,,,,,181,F,circle,1,0,,,,,,,,,,,,,,,,switch,number,numSwt,f,1.2207,noRew,,,,,,0,20,0,20,0,1,,,,,,,,,,,,,,,,,
296356,2022-12-07_10h56.59.980,vts_reward_expectancy_bt,2022.2.4,MacIntel,59.84082341,Chrome,1440,900,,,,,0,648,,,,,,,,,,,,,,,,,146,U,hexagon,1,0,,,,,,,,,,,,,,,,switch,letter,lettSwt,k,0.8369,noRew,,,,,,0,21,0,21,0,1,,,,,,,,,,,,,,,,,
296356,2022-12-07_10h56.59.980,vts_reward_expectancy_bt,2022.2.4,MacIntel,59.84082341,Chrome,1440,900,,,,,0,648,,,,,,,,,,,,,,,,,132,S,hexagon,1,0,,,,,,,,,,,,,,,,switch,number,numSwt,d,1.4109,noRew,,,,,,0,22,0,22,0,1,,,,,,,,,,,,,,,,,
296356,2022-12-07_10h56.59.980,vts_reward_expectancy_bt,2022.2.4,MacIntel,59.84082341,Chrome,1440,900,,,,,0,648,,,,,,,,,,,,,,,,,160,B,triangle,1,0,,,,,,,,,,,,,,,,switch,letter,lettSwt,j,0.8992,noRew,,,,,,0,23,0,23,0,1,,,,,,,,,,,,,,,,,
296356,2022-12-07_10h56.59.980,vts_reward_expectancy_bt,2022.2.4,MacIntel,59.84082341,Chrome,1440,900,,,,,0,648,,,,,,,,,,,,,,,,,160,U,star,1,0,,,,,,,,,,,,,,,,repeat,letter,lettRpt,k,0.7514,noRew,,,,,,0,24,0,24,0,1,,,,,,,,,,,,,,,,,
296356,2022-12-07_10h56.59.980,vts_reward_expectancy_bt,2022.2.4,MacIntel,59.84082341,Chrome,1440,900,,,,,0,648,,,,,,,,,,,,,,,,,125,Y,circle,1,0,,,,,,,,,,,,,,,,switch,number,numSwt,d,1.5029,noRew,,,,,,0,25,0,25,0,1,,,,,,,,,,,,,,,,,
296356,2022-12-07_10h56.59.980,vts_reward_expectancy_bt,2022.2.4,MacIntel,59.84082341,Chrome,1440,900,,,,,0,648,,,,,,,,,,,,,,,,,139,S,star,1,0,,,,,,,,,,,,,,,,repeat,number,numRpt,d,1.0026,noRew,,,,,,0,26,0,26,0,1,,,,,,,,,,,,,,,,,
296356,2022-12-07_10h56.59.980,vts_reward_expectancy_bt,2022.2.4,MacIntel,59.84082341,Chrome,1440,900,,,,,0,648,,,,,,,,,,,,,,,,,167,H,hexagon,1,0,,,,,,,,,,,,,,,,repeat,number,numRpt,f,0.903,noRew,,,,,,0,27,0,27,0,1,,,,,,,,,,,,,,,,,
296356,2022-12-07_10h56.59.980,vts_reward_expectancy_bt,2022.2.4,MacIntel,59.84082341,Chrome,1440,900,,,,,0,648,,,,,,,,,,,,,,,,,181,Y,star,1,0,,,,,,,,,,,,,,,,switch,letter,lettSwt,k,1.6701,noRew,,,,,,0,28,0,28,0,1,,,,,,,,,,,,,,,,,
296356,2022-12-07_10h56.59.980,vts_reward_expectancy_bt,2022.2.4,MacIntel,59.84082341,Chrome,1440,900,,,,,0,648,,,,,,,,,,,,,,,,,160,B,hexagon,1,0,,,,,,,,,,,,,,,,switch,number,numSwt,f,2.5404,noRew,,,,,,0,29,0,29,0,1,,,,,,,,,,,,,,,,,
296356,2022-12-07_10h56.59.980,vts_reward_expectancy_bt,2022.2.4,MacIntel,59.84082341,Chrome,1440,900,,,,,0,648,,,,,,,,,,,,,,,,,132,S,star,1,0,,,,,,,,,,,,,,,,switch,letter,lettSwt,k,1.0359,noRew,,,,,,0,30,0,30,0,1,,,,,,,,,,,,,,,,,
296356,2022-12-07_10h56.59.980,vts_reward_expectancy_bt,2022.2.4,MacIntel,59.84082341,Chrome,1440,900,,,,,0,648,,,,,,,,,,,,,,,,,139,H,triangle,1,0,,,,,,,,,,,,,,,,repeat,letter,lettRpt,j,2.7211,noRew,,,,,,0,31,0,31,0,1,,,,,,,,,,,,,,,,,
296356,2022-12-07_10h56.59.980,vts_reward_expectancy_bt,2022.2.4,MacIntel,59.84082341,Chrome,1440,900,,,,,0,648,,,,,,,,,,,,,,,,,160,F,circle,1,0,,,,,,,,,,,,,,,,repeat,letter,lettRpt,j,1.0663,noRew,,,,,,0,32,0,32,0,1,,,,,,,,,,,,,,,,,
296356,2022-12-07_10h56.59.980,vts_reward_expectancy_bt,2022.2.4,MacIntel,59.84082341,Chrome,1440,900,,,,,0,648,,,,,,,,,,,,,,,,,174,U,hexagon,1,0,,,,,,,,,,,,,,,,switch,number,numSwt,f,1.4496,noRew,,,,,,0,33,0,33,0,1,,,,,,,,,,,,,,,,,
296356,2022-12-07_10h56.59.980,vts_reward_expectancy_bt,2022.2.4,MacIntel,59.84082341,Chrome,1440,900,,,,,0,648,,,,,,,,,,,,,,,,,139,S,hexagon,1,0,,,,,,,,,,,,,,,,repeat,number,numRpt,d,1.3739,noRew,,,,,,0,34,0,34,0,1,,,,,,,,,,,,,,,,,
296356,2022-12-07_10h56.59.980,vts_reward_expectancy_bt,2022.2.4,MacIntel,59.84082341,Chrome,1440,900,,,,,0,648,,,,,,,,,,,,,,,,,167,B,triangle,1,0,,,,,,,,,,,,,,,,repeat,number,numRpt,f,0.9159,noRew,,,,,,0,35,0,35,0,1,,,,,,,,,,,,,,,,,
296356,2022-12-07_10h56.59.980,vts_reward_expectancy_bt,2022.2.4,MacIntel,59.84082341,Chrome,1440,900,,,,,0,648,,,,,,,,,,,,,,,,,125,S,star,1,0,,,,,,,,,,,,,,,,repeat,number,numRpt,d,0.916,noRew,,,,,,0,36,0,36,0,1,,,,,,,,,,,,,,,,,
296356,2022-12-07_10h56.59.980,vts_reward_expectancy_bt,2022.2.4,MacIntel,59.84082341,Chrome,1440,900,,,,,0,648,,,,,,,,,,,,,,,,,146,B,hexagon,1,0,,,,,,,,,,,,,,,,repeat,number,numRpt,d,0.9318,noRew,,,,,,0,37,0,37,0,1,,,,,,,,,,,,,,,,,
296356,2022-12-07_10h56.59.980,vts_reward_expectancy_bt,2022.2.4,MacIntel,59.84082341,Chrome,1440,900,,,,,0,648,,,,,,,,,,,,,,,,,167,U,triangle,1,0,,,,,,,,,,,,,,,,repeat,number,numRpt,f,1.0331,noRew,,,,,,0,38,0,38,0,1,,,,,,,,,,,,,,,,,
296356,2022-12-07_10h56.59.980,vts_reward_expectancy_bt,2022.2.4,MacIntel,59.84082341,Chrome,1440,900,,,,,0,648,,,,,,,,,,,,,,,,,181,F,circle,1,0,,,,,,,,,,,,,,,,repeat,number,numRpt,f,1.6242,noRew,,,,,,0,39,0,39,0,1,,,,,,,,,,,,,,,,,
296356,2022-12-07_10h56.59.980,vts_reward_expectancy_bt,2022.2.4,MacIntel,59.84082341,Chrome,1440,900,,,,,0,648,,,,,,,,,,,,,,,,,146,F,star,1,0,,,,,,,,,,,,,,,,switch,letter,lettSwt,j,1.4357,noRew,,,,,,0,40,0,40,0,1,,,,,,,,,,,,,,,,,
296356,2022-12-07_10h56.59.980,vts_reward_expectancy_bt,2022.2.4,MacIntel,59.84082341,Chrome,1440,900,,,,,0,648,,,,,,,,,,,,,,,,,174,W,hexagon,1,0,,,,,,,,,,,,,,,,repeat,letter,lettRpt,k,1.4339,noRew,,,,,,0,41,0,41,0,1,,,,,,,,,,,,,,,,,
296356,2022-12-07_10h56.59.980,vts_reward_expectancy_bt,2022.2.4,MacIntel,59.84082341,Chrome,1440,900,,,,,0,648,,,,,,,,,,,,,,,,,132,Y,star,1,0,,,,,,,,,,,,,,,,repeat,letter,lettRpt,k,0.7052,noRew,,,,,,0,42,0,42,0,1,,,,,,,,,,,,,,,,,
296356,2022-12-07_10h56.59.980,vts_reward_expectancy_bt,2022.2.4,MacIntel,59.84082341,Chrome,1440,900,,,,,0,648,,,,,,,,,,,,,,,,,167,B,triangle,1,0,,,,,,,,,,,,,,,,repeat,letter,lettRpt,j,0.8657,noRew,,,,,,0,43,0,43,0,1,,,,,,,,,,,,,,,,,
296356,2022-12-07_10h56.59.980,vts_reward_expectancy_bt,2022.2.4,MacIntel,59.84082341,Chrome,1440,900,,,,,0,648,,,,,,,,,,,,,,,,,181,U,triangle,1,0,,,,,,,,,,,,,,,,repeat,letter,lettRpt,k,0.9,noRew,,,,,,0,44,0,44,0,1,,,,,,,,,,,,,,,,,
296356,2022-12-07_10h56.59.980,vts_reward_expectancy_bt,2022.2.4,MacIntel,59.84082341,Chrome,1440,900,,,,,0,648,,,,,,,,,,,,,,,,,167,B,star,1,0,,,,,,,,,,,,,,,,repeat,letter,lettRpt,j,0.8697,noRew,,,,,,0,45,0,45,0,1,,,,,,,,,,,,,,,,,
296356,2022-12-07_10h56.59.980,vts_reward_expectancy_bt,2022.2.4,MacIntel,59.84082341,Chrome,1440,900,,,,,0,648,,,,,,,,,,,,,,,,,146,W,star,1,0,,,,,,,,,,,,,,,,repeat,letter,lettRpt,k,1.2336,noRew,,,,,,0,46,0,46,0,1,,,,,,,,,,,,,,,,,
296356,2022-12-07_10h56.59.980,vts_reward_expectancy_bt,2022.2.4,MacIntel,59.84082341,Chrome,1440,900,,,,,0,648,,,,,,,,,,,,,,,,,174,H,circle,1,0,,,,,,,,,,,,,,,,repeat,letter,lettRpt,j,1.3522,noRew,,,,,,0,47,0,47,0,1,,,,,,,,,,,,,,,,,
296356,2022-12-07_10h56.59.980,vts_reward_expectancy_bt,2022.2.4,MacIntel,59.84082341,Chrome,1440,900,,,,,0,648,,,,,,,,,,,,,,,,,167,Y,triangle,1,0,,,,,,,,,,,,,,,,repeat,letter,lettRpt,k,0.6991,noRew,,,,,,0,48,0,48,0,1,,,,,,,,,,,,,,,,,
296356,2022-12-07_10h56.59.980,vts_reward_expectancy_bt,2022.2.4,MacIntel,59.84082341,Chrome,1440,900,,,,,0,648,,,,,,,,,,,,,,,,,139,H,hexagon,1,0,,,,,,,,,,,,,,,,repeat,letter,lettRpt,j,1.2516,noRew,,,,,,0,49,0,49,0,1,,,,,,,,,,,,,,,,,
296356,2022-12-07_10h56.59.980,vts_reward_expectancy_bt,2022.2.4,MacIntel,59.84082341,Chrome,1440,900,,,,,0,648,,,,,,,,,,,,,,,,,132,D,star,1,0,,,,,,,,,,,,,,,,repeat,letter,lettRpt,j,0.8148,noRew,,,,,,0,50,0,50,0,1,,,,,,,,,,,,,,,,,
296356,2022-12-07_10h56.59.980,vts_reward_expectancy_bt,2022.2.4,MacIntel,59.84082341,Chrome,1440,900,,,,,0,648,,,,,,,,,,,,,,,,,174,U,circle,1,0,,,,,,,,,,,,,,,,switch,number,numSwt,f,1.1356,noRew,,,,,,0,51,0,51,0,1,,,,,,,,,,,,,,,,,
296356,2022-12-07_10h56.59.980,vts_reward_expectancy_bt,2022.2.4,MacIntel,59.84082341,Chrome,1440,900,,,,,0,648,,,,,,,,,,,,,,,,,146,U,star,1,0,,,,,,,,,,,,,,,,repeat,number,numRpt,d,1.2046,noRew,,,,,,0,52,0,52,0,1,,,,,,,,,,,,,,,,,
296356,2022-12-07_10h56.59.980,vts_reward_expectancy_bt,2022.2.4,MacIntel,59.84082341,Chrome,1440,900,,,,,0,648,,,,,,,,,,,,,,,,,160,B,circle,1,0,,,,,,,,,,,,,,,,repeat,number,numRpt,f,0.8002,noRew,,,,,,0,53,0,53,0,1,,,,,,,,,,,,,,,,,
296356,2022-12-07_10h56.59.980,vts_reward_expectancy_bt,2022.2.4,MacIntel,59.84082341,Chrome,1440,900,,,,,0,648,,,,,,,,,,,,,,,,,125,W,hexagon,1,0,,,,,,,,,,,,,,,,repeat,number,numRpt,d,0.849,noRew,,,,,,0,54,0,54,0,1,,,,,,,,,,,,,,,,,
296356,2022-12-07_10h56.59.980,vts_reward_expectancy_bt,2022.2.4,MacIntel,59.84082341,Chrome,1440,900,,,,,0,648,,,,,,,,,,,,,,,,,132,F,triangle,1,0,,,,,,,,,,,,,,,,repeat,number,numRpt,d,1.3886,noRew,,,,,,0,55,0,55,0,1,,,,,,,,,,,,,,,,,
296356,2022-12-07_10h56.59.980,vts_reward_expectancy_bt,2022.2.4,MacIntel,59.84082341,Chrome,1440,900,,,,,0,648,,,,,,,,,,,,,,,,,174,Y,circle,1,0,,,,,,,,,,,,,,,,repeat,number,numRpt,f,0.867,noRew,,,,,,0,56,0,56,0,1,,,,,,,,,,,,,,,,,
296356,2022-12-07_10h56.59.980,vts_reward_expectancy_bt,2022.2.4,MacIntel,59.84082341,Chrome,1440,900,,,,,0,648,,,,,,,,,,,,,,,,,139,S,triangle,1,0,,,,,,,,,,,,,,,,repeat,number,numRpt,d,1.1494,noRew,,,,,,0,57,0,57,0,1,,,,,,,,,,,,,,,,,
296356,2022-12-07_10h56.59.980,vts_reward_expectancy_bt,2022.2.4,MacIntel,59.84082341,Chrome,1440,900,,,,,0,648,,,,,,,,,,,,,,,,,181,F,circle,1,0,,,,,,,,,,,,,,,,repeat,number,numRpt,f,0.797,noRew,,,,,,0,58,0,58,0,1,,,,,,,,,,,,,,,,,
296356,2022-12-07_10h56.59.980,vts_reward_expectancy_bt,2022.2.4,MacIntel,59.84082341,Chrome,1440,900,,,,,0,648,,,,,,,,,,,,,,,,,146,H,star,1,0,,,,,,,,,,,,,,,,repeat,number,numRpt,d,0.8326,noRew,,,,,,0,59,0,59,0,1,,,,,,,,,,,,,,,,,
296356,2022-12-07_10h56.59.980,vts_reward_expectancy_bt,2022.2.4,MacIntel,59.84082341,Chrome,1440,900,,,,,0,648,,,,,,,,,,,,,,,,,174,Y,star,1,0,,,,,,,,,,,,,,,,repeat,number,numRpt,f,0.9211,noRew,,,,,,0,60,0,60,0,1,,,,,,,,,,,,,,,,,
296356,2022-12-07_10h56.59.980,vts_reward_expectancy_bt,2022.2.4,MacIntel,59.84082341,Chrome,1440,900,,,,,0,648,,,,,,,,,,,,,,,,,125,W,circle,1,0,,,,,,,,,,,,,,,,switch,letter,lettSwt,k,1.0833,noRew,,,,,,0,61,0,61,0,1,,,,,,,,,,,,,,,,,
296356,2022-12-07_10h56.59.980,vts_reward_expectancy_bt,2022.2.4,MacIntel,59.84082341,Chrome,1440,900,,,,,0,648,,,,,,,,,,,,,,,,,132,F,star,1,0,,,,,,,,,,,,,,,,repeat,letter,lettRpt,j,0.9376,noRew,,,,,,0,62,0,62,0,1,,,,,,,,,,,,,,,,,
296356,2022-12-07_10h56.59.980,vts_reward_expectancy_bt,2022.2.4,MacIntel,59.84082341,Chrome,1440,900,,,,,0,648,,,,,,,,,,,,,,,,,181,S,circle,1,0,,,,,,,,,,,,,,,,repeat,letter,lettRpt,k,1.1532,noRew,,,,,,0,63,0,63,0,1,,,,,,,,,,,,,,,,,
296356,2022-12-07_10h56.59.980,vts_reward_expectancy_bt,2022.2.4,MacIntel,59.84082341,Chrome,1440,900,,,,,,,,,,,,,,,,,,,,,,,,,,,,,,,,,,,,,,,,,,,,,,,,,,,,,,,,,,,,,,,,,,,,,,,,,,,,
296356,2022-12-07_10h56.59.980,vts_reward_expectancy_bt,2022.2.4,MacIntel,59.84082341,Chrome,1440,900,,,,,0,648,,,,,,,,,,,,,,,,,167,F,hexagon,1,0,,,,,,,,,,,,,,,,repeat,letter,lettRpt,j,1.066,Hi,,,,,,0,,,,,,space,4.9796,low,0,0,0,0,1,,,,,,,,,
296356,2022-12-07_10h56.59.980,vts_reward_expectancy_bt,2022.2.4,MacIntel,59.84082341,Chrome,1440,900,,,,,10,658,,,,,,,,,,,,,,,,,132,W,triangle,1,0,,,,,,,,,,,,,,,,repeat,letter,lettRpt,k,0.6012,Lo,,,,,,0,,,,,,,,low,1,0,1,0,1,,,,,,,,,
296356,2022-12-07_10h56.59.980,vts_reward_expectancy_bt,2022.2.4,MacIntel,59.84082341,Chrome,1440,900,,,,,1,659,,,,,,,,,,,,,,,,,174,B,star,1,0,,,,,,,,,,,,,,,,repeat,letter,lettRpt,j,0.415,Lo,,,,,,0,,,,,,,,low,2,0,2,0,1,,,,,,,,,
296356,2022-12-07_10h56.59.980,vts_reward_expectancy_bt,2022.2.4,MacIntel,59.84082341,Chrome,1440,900,,,,,10,669,,,,,,,,,,,,,,,,,160,U,circle,1,0,,,,,,,,,,,,,,,,switch,number,numSwt,f,0.5698,Hi,,,,,,0,,,,,,,,low,3,0,3,0,1,,,,,,,,,
296356,2022-12-07_10h56.59.980,vts_reward_expectancy_bt,2022.2.4,MacIntel,59.84082341,Chrome,1440,900,,,,,10,679,,,,,,,,,,,,,,,,,139,D,hexagon,1,0,,,,,,,,,,,,,,,,repeat,number,numRpt,d,0.5321,Hi,,,,,,0,,,,,,,,low,4,0,4,0,1,,,,,,,,,
296356,2022-12-07_10h56.59.980,vts_reward_expectancy_bt,2022.2.4,MacIntel,59.84082341,Chrome,1440,900,,,,,1,680,,,,,,,,,,,,,,,,,181,H,triangle,1,0,,,,,,,,,,,,,,,,repeat,number,numRpt,f,0.4977,Lo,,,,,,0,,,,,,,,low,5,0,5,0,1,,,,,,,,,
296356,2022-12-07_10h56.59.980,vts_reward_expectancy_bt,2022.2.4,MacIntel,59.84082341,Chrome,1440,900,,,,,1,681,,,,,,,,,,,,,,,,,146,S,star,1,0,,,,,,,,,,,,,,,,repeat,number,numRpt,d,0.6991,Lo,,,,,,0,,,,,,,,low,6,0,6,0,1,,,,,,,,,
296356,2022-12-07_10h56.59.980,vts_reward_expectancy_bt,2022.2.4,MacIntel,59.84082341,Chrome,1440,900,,,,,10,691,,,,,,,,,,,,,,,,,125,Y,circle,1,0,,,,,,,,,,,,,,,,switch,letter,lettSwt,k,0.6699,Hi,,,,,,0,,,,,,,,low,7,0,7,0,1,,,,,,,,,
296356,2022-12-07_10h56.59.980,vts_reward_expectancy_bt,2022.2.4,MacIntel,59.84082341,Chrome,1440,900,,,,,10,701,,,,,,,,,,,,,,,,,167,F,circle,1,0,,,,,,,,,,,,,,,,repeat,letter,lettRpt,j,0.5025,Hi,,,,,,0,,,,,,,,low,8,0,8,0,1,,,,,,,,,
296356,2022-12-07_10h56.59.980,vts_reward_expectancy_bt,2022.2.4,MacIntel,59.84082341,Chrome,1440,900,,,,,1,702,,,,,,,,,,,,,,,,,132,W,star,1,0,,,,,,,,,,,,,,,,repeat,letter,lettRpt,k,0.4837,Lo,,,,,,0,,,,,,,,low,9,0,9,0,1,,,,,,,,,
296356,2022-12-07_10h56.59.980,vts_reward_expectancy_bt,2022.2.4,MacIntel,59.84082341,Chrome,1440,900,,,,,10,712,,,,,,,,,,,,,,,,,174,B,hexagon,1,0,,,,,,,,,,,,,,,,repeat,letter,lettRpt,j,0.5482,Hi,,,,,,0,,,,,,,,low,10,0,10,0,1,,,,,,,,,
296356,2022-12-07_10h56.59.980,vts_reward_expectancy_bt,2022.2.4,MacIntel,59.84082341,Chrome,1440,900,,,,,0,712,,,,,,,,,,,,,,,,,160,U,triangle,0,0,,,,,,,,,,,,,,,,switch,number,NA,d,0.5284,Hi,,,,,,0,,,,,,,,low,11,0,11,0,1,,,,,,,,,
296356,2022-12-07_10h56.59.980,vts_reward_expectancy_bt,2022.2.4,MacIntel,59.84082341,Chrome,1440,900,,,,,1,713,,,,,,,,,,,,,,,,,139,D,triangle,1,1,,,,,,,,,,,,,,,,repeat,number,numRpt,d,0.8649,Lo,,,,,,0,,,,,,,,low,12,0,12,0,1,,,,,,,,,
296356,2022-12-07_10h56.59.980,vts_reward_expectancy_bt,2022.2.4,MacIntel,59.84082341,Chrome,1440,900,,,,,1,714,,,,,,,,,,,,,,,,,181,H,hexagon,1,0,,,,,,,,,,,,,,,,repeat,number,numRpt,f,0.4714,Hi,,,,,,0,,,,,,,,low,13,0,13,0,1,,,,,,,,,
296356,2022-12-07_10h56.59.980,vts_reward_expectancy_bt,2022.2.4,MacIntel,59.84082341,Chrome,1440,900,,,,,10,724,,,,,,,,,,,,,,,,,146,S,star,1,0,,,,,,,,,,,,,,,,switch,letter,lettSwt,k,0.7654,Lo,,,,,,0,,,,,,,,low,14,0,14,0,1,,,,,,,,,
296356,2022-12-07_10h56.59.980,vts_reward_expectancy_bt,2022.2.4,MacIntel,59.84082341,Chrome,1440,900,,,,,0,724,,,,,,,,,,,,,,,,,125,Y,circle,1,0,,,,,,,,,,,,,,,,repeat,letter,lettRpt,k,0.9657,Hi,,,,,,0,,,,,,,,low,15,0,15,0,1,,,,,,,,,
296356,2022-12-07_10h56.59.980,vts_reward_expectancy_bt,2022.2.4,MacIntel,59.84082341,Chrome,1440,900,,,,,0,724,,,,,,,,,,,,,,,,,146,H,star,0,0,,,,,,,,,,,,,,,,repeat,letter,NA,k,0.5679,Hi,,,,,,0,,,,,,,,low,16,0,16,0,1,,,,,,,,,
296356,2022-12-07_10h56.59.980,vts_reward_expectancy_bt,2022.2.4,MacIntel,59.84082341,Chrome,1440,900,,,,,10,734,,,,,,,,,,,,,,,,,167,U,circle,1,1,,,,,,,,,,,,,,,,repeat,letter,lettRpt,k,0.6056,Hi,,,,,,0,,,,,,,,low,17,0,17,0,1,,,,,,,,,
296356,2022-12-07_10h56.59.980,vts_reward_expectancy_bt,2022.2.4,MacIntel,59.84082341,Chrome,1440,900,,,,,1,735,,,,,,,,,,,,,,,,,125,W,triangle,1,0,,,,,,,,,,,,,,,,switch,number,numSwt,d,1.2667,Lo,,,,,,0,,,,,,,,low,18,0,18,0,1,,,,,,,,,
296356,2022-12-07_10h56.59.980,vts_reward_expectancy_bt,2022.2.4,MacIntel,59.84082341,Chrome,1440,900,,,,,1,736,,,,,,,,,,,,,,,,,181,B,hexagon,1,0,,,,,,,,,,,,,,,,repeat,number,numRpt,f,0.7534,Hi,,,,,,0,,,,,,,,low,19,0,19,0,1,,,,,,,,,
296356,2022-12-07_10h56.59.980,vts_reward_expectancy_bt,2022.2.4,MacIntel,59.84082341,Chrome,1440,900,,,,,1,737,,,,,,,,,,,,,,,,,132,F,hexagon,1,0,,,,,,,,,,,,,,,,repeat,number,numRpt,d,0.5854,Hi,,,,,,0,,,,,,,,low,20,0,20,0,1,,,,,,,,,
296356,2022-12-07_10h56.59.980,vts_reward_expectancy_bt,2022.2.4,MacIntel,59.84082341,Chrome,1440,900,,,,,1,738,,,,,,,,,,,,,,,,,174,Y,triangle,1,0,,,,,,,,,,,,,,,,switch,letter,lettSwt,k,0.6666,Lo,,,,,,0,,,,,,,,low,21,0,21,0,1,,,,,,,,,
296356,2022-12-07_10h56.59.980,vts_reward_expectancy_bt,2022.2.4,MacIntel,59.84082341,Chrome,1440,900,,,,,1,739,,,,,,,,,,,,,,,,,139,D,star,1,0,,,,,,,,,,,,,,,,repeat,letter,lettRpt,j,1.117,Lo,,,,,,0,,,,,,,,low,22,0,22,0,1,,,,,,,,,
296356,2022-12-07_10h56.59.980,vts_reward_expectancy_bt,2022.2.4,MacIntel,59.84082341,Chrome,1440,900,,,,,10,749,,,,,,,,,,,,,,,,,160,S,circle,1,0,,,,,,,,,,,,,,,,repeat,letter,lettRpt,k,0.6351,Hi,,,,,,0,,,,,,,,low,23,0,23,0,1,,,,,,,,,
296356,2022-12-07_10h56.59.980,vts_reward_expectancy_bt,2022.2.4,MacIntel,59.84082341,Chrome,1440,900,,,,,1,750,,,,,,,,,,,,,,,,,146,W,star,1,0,,,,,,,,,,,,,,,,switch,number,numSwt,d,1.6497,Lo,,,,,,0,,,,,,,,low,24,0,24,0,1,,,,,,,,,
296356,2022-12-07_10h56.59.980,vts_reward_expectancy_bt,2022.2.4,MacIntel,59.84082341,Chrome,1440,900,,,,,10,760,,,,,,,,,,,,,,,,,132,S,circle,1,0,,,,,,,,,,,,,,,,repeat,number,numRpt,d,0.7337,Hi,,,,,,0,,,,,,,,low,25,0,25,0,1,,,,,,,,,
296356,2022-12-07_10h56.59.980,vts_reward_expectancy_bt,2022.2.4,MacIntel,59.84082341,Chrome,1440,900,,,,,1,761,,,,,,,,,,,,,,,,,167,U,triangle,1,0,,,,,,,,,,,,,,,,repeat,number,numRpt,f,0.525,Lo,,,,,,0,,,,,,,,low,26,0,26,0,1,,,,,,,,,
296356,2022-12-07_10h56.59.980,vts_reward_expectancy_bt,2022.2.4,MacIntel,59.84082341,Chrome,1440,900,,,,,1,762,,,,,,,,,,,,,,,,,139,H,hexagon,1,0,,,,,,,,,,,,,,,,repeat,number,numRpt,d,0.7848,Hi,,,,,,0,,,,,,,,low,27,0,27,0,1,,,,,,,,,
296356,2022-12-07_10h56.59.980,vts_reward_expectancy_bt,2022.2.4,MacIntel,59.84082341,Chrome,1440,900,,,,,10,772,,,,,,,,,,,,,,,,,181,B,hexagon,1,0,,,,,,,,,,,,,,,,switch,letter,lettSwt,j,0.5834,Hi,,,,,,0,,,,,,,,low,28,0,28,0,1,,,,,,,,,
296356,2022-12-07_10h56.59.980,vts_reward_expectancy_bt,2022.2.4,MacIntel,59.84082341,Chrome,1440,900,,,,,10,782,,,,,,,,,,,,,,,,,125,Y,circle,1,0,,,,,,,,,,,,,,,,repeat,letter,lettRpt,k,0.7397,Hi,,,,,,0,,,,,,,,low,29,0,29,0,1,,,,,,,,,
296356,2022-12-07_10h56.59.980,vts_reward_expectancy_bt,2022.2.4,MacIntel,59.84082341,Chrome,1440,900,,,,,10,792,,,,,,,,,,,,,,,,,174,D,triangle,1,0,,,,,,,,,,,,,,,,repeat,letter,lettRpt,j,0.9139,Lo,,,,,,0,,,,,,,,low,30,0,30,0,1,,,,,,,,,
296356,2022-12-07_10h56.59.980,vts_reward_expectancy_bt,2022.2.4,MacIntel,59.84082341,Chrome,1440,900,,,,,1,793,,,,,,,,,,,,,,,,,160,F,star,1,0,,,,,,,,,,,,,,,,switch,number,numSwt,f,0.7838,Lo,,,,,,0,,,,,,,,low,31,0,31,0,1,,,,,,,,,
296356,2022-12-07_10h56.59.980,vts_reward_expectancy_bt,2022.2.4,MacIntel,59.84082341,Chrome,1440,900,,,,,0,793,,,,,,,,,,,,,,,,,139,D,hexagon,1,0,,,,,,,,,,,,,,,,switch,letter,lettSwt,j,1.2073,Hi,,,,,,1,,,,,,space,5.2806,low,0,0,0,0,1,,,,,,,,,
296356,2022-12-07_10h56.59.980,vts_reward_expectancy_bt,2022.2.4,MacIntel,59.84082341,Chrome,1440,900,,,,,1,794,,,,,,,,,,,,,,,,,160,Y,triangle,1,0,,,,,,,,,,,,,,,,repeat,letter,lettRpt,k,0.5708,Lo,,,,,,1,,,,,,,,low,1,0,1,0,1,,,,,,,,,
296356,2022-12-07_10h56.59.980,vts_reward_expectancy_bt,2022.2.4,MacIntel,59.84082341,Chrome,1440,900,,,,,1,795,,,,,,,,,,,,,,,,,125,S,star,1,0,,,,,,,,,,,,,,,,repeat,letter,lettRpt,k,0.9996,Lo,,,,,,1,,,,,,,,low,2,0,2,0,1,,,,,,,,,
296356,2022-12-07_10h56.59.980,vts_reward_expectancy_bt,2022.2.4,MacIntel,59.84082341,Chrome,1440,900,,,,,10,805,,,,,,,,,,,,,,,,,132,F,circle,1,0,,,,,,,,,,,,,,,,switch,number,numSwt,d,0.4978,Hi,,,,,,1,,,,,,,,low,3,0,3,0,1,,,,,,,,,
296356,2022-12-07_10h56.59.980,vts_reward_expectancy_bt,2022.2.4,MacIntel,59.84082341,Chrome,1440,900,,,,,0,805,,,,,,,,,,,,,,,,,167,U,hexagon,1,0,,,,,,,,,,,,,,,,repeat,number,numRpt,f,0.716,Hi,,,,,,1,,,,,,,,low,4,0,4,0,1,,,,,,,,,
296356,2022-12-07_10h56.59.980,vts_reward_expectancy_bt,2022.2.4,MacIntel,59.84082341,Chrome,1440,900,,,,,10,815,,,,,,,,,,,,,,,,,146,B,triangle,1,0,,,,,,,,,,,,,,,,switch,letter,lettSwt,j,0.6503,Lo,,,,,,1,,,,,,,,low,5,0,5,0,1,,,,,,,,,
296356,2022-12-07_10h56.59.980,vts_reward_expectancy_bt,2022.2.4,MacIntel,59.84082341,Chrome,1440,900,,,,,1,816,,,,,,,,,,,,,,,,,174,H,star,1,0,,,,,,,,,,,,,,,,repeat,letter,lettRpt,j,0.8212,Lo,,,,,,1,,,,,,,,low,6,0,6,0,1,,,,,,,,,
296356,2022-12-07_10h56.59.980,vts_reward_expectancy_bt,2022.2.4,MacIntel,59.84082341,Chrome,1440,900,,,,,10,826,,,,,,,,,,,,,,,,,181,W,circle,1,0,,,,,,,,,,,,,,,,switch,number,numSwt,f,0.7324,Hi,,,,,,1,,,,,,,,low,7,0,7,0,1,,,,,,,,,
296356,2022-12-07_10h56.59.980,vts_reward_expectancy_bt,2022.2.4,MacIntel,59.84082341,Chrome,1440,900,,,,,10,836,,,,,,,,,,,,,,,,,139,D,circle,1,0,,,,,,,,,,,,,,,,repeat,number,numRpt,d,0.4985,Hi,,,,,,1,,,,,,,,low,8,0,8,0,1,,,,,,,,,
296356,2022-12-07_10h56.59.980,vts_reward_expectancy_bt,2022.2.4,MacIntel,59.84082341,Chrome,1440,900,,,,,1,837,,,,,,,,,,,,,,,,,160,Y,triangle,1,0,,,,,,,,,,,,,,,,repeat,number,numRpt,f,0.4909,Lo,,,,,,1,,,,,,,,low,9,0,9,0,1,,,,,,,,,
296356,2022-12-07_10h56.59.980,vts_reward_expectancy_bt,2022.2.4,MacIntel,59.84082341,Chrome,1440,900,,,,,10,847,,,,,,,,,,,,,,,,,125,S,star,1,0,,,,,,,,,,,,,,,,repeat,number,numRpt,d,0.8022,Lo,,,,,,1,,,,,,,,low,10,0,10,0,1,,,,,,,,,
296356,2022-12-07_10h56.59.980,vts_reward_expectancy_bt,2022.2.4,MacIntel,59.84082341,Chrome,1440,900,,,,,0,847,,,,,,,,,,,,,,,,,132,F,hexagon,1,0,,,,,,,,,,,,,,,,switch,letter,lettSwt,j,0.9205,Hi,,,,,,1,,,,,,,,low,11,0,11,0,1,,,,,,,,,
296356,2022-12-07_10h56.59.980,vts_reward_expectancy_bt,2022.2.4,MacIntel,59.84082341,Chrome,1440,900,,,,,10,857,,,,,,,,,,,,,,,,,167,U,triangle,1,0,,,,,,,,,,,,,,,,repeat,letter,lettRpt,k,1.2333,Lo,,,,,,1,,,,,,,,low,12,0,12,0,1,,,,,,,,,
296356,2022-12-07_10h56.59.980,vts_reward_expectancy_bt,2022.2.4,MacIntel,59.84082341,Chrome,1440,900,,,,,0,857,,,,,,,,,,,,,,,,,146,B,hexagon,1,0,,,,,,,,,,,,,,,,repeat,letter,lettRpt,j,0.6075,Hi,,,,,,1,,,,,,,,low,13,0,13,0,1,,,,,,,,,
296356,2022-12-07_10h56.59.980,vts_reward_expectancy_bt,2022.2.4,MacIntel,59.84082341,Chrome,1440,900,,,,,1,858,,,,,,,,,,,,,,,,,174,H,star,1,0,,,,,,,,,,,,,,,,switch,number,numSwt,f,1.0853,Lo,,,,,,1,,,,,,,,low,14,0,14,0,1,,,,,,,,,
296356,2022-12-07_10h56.59.980,vts_reward_expectancy_bt,2022.2.4,MacIntel,59.84082341,Chrome,1440,900,,,,,0,858,,,,,,,,,,,,,,,,,181,W,circle,1,0,,,,,,,,,,,,,,,,repeat,number,numRpt,f,0.5497,Hi,,,,,,1,,,,,,,,low,15,0,15,0,1,,,,,,,,,
296356,2022-12-07_10h56.59.980,vts_reward_expectancy_bt,2022.2.4,MacIntel,59.84082341,Chrome,1440,900,,,,,10,868,,,,,,,,,,,,,,,,,132,W,circle,1,0,,,,,,,,,,,,,,,,switch,letter,lettSwt,k,0.6357,Hi,,,,,,1,,,,,,,,low,16,0,16,0,1,,,,,,,,,
296356,2022-12-07_10h56.59.980,vts_reward_expectancy_bt,2022.2.4,MacIntel,59.84082341,Chrome,1440,900,,,,,1,869,,,,,,,,,,,,,,,,,139,B,star,1,0,,,,,,,,,,,,,,,,switch,number,numSwt,d,0.5532,Lo,,,,,,1,,,,,,,,low,17,0,17,0,1,,,,,,,,,
296356,2022-12-07_10h56.59.980,vts_reward_expectancy_bt,2022.2.4,MacIntel,59.84082341,Chrome,1440,900,,,,,0,869,,,,,,,,,,,,,,,,,167,U,hexagon,1,0,,,,,,,,,,,,,,,,repeat,number,numRpt,f,0.6752,Hi,,,,,,1,,,,,,,,low,18,0,18,0,1,,,,,,,,,
296356,2022-12-07_10h56.59.980,vts_reward_expectancy_bt,2022.2.4,MacIntel,59.84082341,Chrome,1440,900,,,,,10,879,,,,,,,,,,,,,,,,,125,S,triangle,1,0,,,,,,,,,,,,,,,,switch,letter,lettSwt,k,0.9339,Lo,,,,,,1,,,,,,,,low,19,0,19,0,1,,,,,,,,,
296356,2022-12-07_10h56.59.980,vts_reward_expectancy_bt,2022.2.4,MacIntel,59.84082341,Chrome,1440,900,,,,,10,889,,,,,,,,,,,,,,,,,181,H,triangle,1,0,,,,,,,,,,,,,,,,repeat,letter,lettRpt,j,0.7362,Lo,,,,,,1,,,,,,,,low,20,0,20,0,1,,,,,,,,,
296356,2022-12-07_10h56.59.980,vts_reward_expectancy_bt,2022.2.4,MacIntel,59.84082341,Chrome,1440,900,,,,,10,899,,,,,,,,,,,,,,,,,146,F,star,1,0,,,,,,,,,,,,,,,,repeat,letter,lettRpt,j,0.6519,Lo,,,,,,1,,,,,,,,low,21,0,21,0,1,,,,,,,,,
296356,2022-12-07_10h56.59.980,vts_reward_expectancy_bt,2022.2.4,MacIntel,59.84082341,Chrome,1440,900,,,,,0,899,,,,,,,,,,,,,,,,,174,D,circle,1,0,,,,,,,,,,,,,,,,repeat,letter,lettRpt,j,0.6748,Hi,,,,,,1,,,,,,,,low,22,0,22,0,1,,,,,,,,,
296356,2022-12-07_10h56.59.980,vts_reward_expectancy_bt,2022.2.4,MacIntel,59.84082341,Chrome,1440,900,,,,,10,909,,,,,,,,,,,,,,,,,160,Y,hexagon,1,0,,,,,,,,,,,,,,,,switch,number,numSwt,f,0.6258,Hi,,,,,,1,,,,,,,,low,23,0,23,0,1,,,,,,,,,
296356,2022-12-07_10h56.59.980,vts_reward_expectancy_bt,2022.2.4,MacIntel,59.84082341,Chrome,1440,900,,,,,10,919,,,,,,,,,,,,,,,,,139,Y,hexagon,1,0,,,,,,,,,,,,,,,,repeat,number,numRpt,d,0.4376,Hi,,,,,,1,,,,,,,,low,24,0,24,0,1,,,,,,,,,
296356,2022-12-07_10h56.59.980,vts_reward_expectancy_bt,2022.2.4,MacIntel,59.84082341,Chrome,1440,900,,,,,10,929,,,,,,,,,,,,,,,,,181,S,triangle,1,0,,,,,,,,,,,,,,,,repeat,number,numRpt,f,0.5143,Lo,,,,,,1,,,,,,,,low,25,0,25,0,1,,,,,,,,,
296356,2022-12-07_10h56.59.980,vts_reward_expectancy_bt,2022.2.4,MacIntel,59.84082341,Chrome,1440,900,,,,,1,930,,,,,,,,,,,,,,,,,125,U,star,1,0,,,,,,,,,,,,,,,,repeat,number,numRpt,d,0.5853,Lo,,,,,,1,,,,,,,,low,26,0,26,0,1,,,,,,,,,
296356,2022-12-07_10h56.59.980,vts_reward_expectancy_bt,2022.2.4,MacIntel,59.84082341,Chrome,1440,900,,,,,1,931,,,,,,,,,,,,,,,,,160,H,circle,1,0,,,,,,,,,,,,,,,,switch,letter,lettSwt,j,0.5845,Hi,,,,,,1,,,,,,,,low,27,0,27,0,1,,,,,,,,,
296356,2022-12-07_10h56.59.980,vts_reward_expectancy_bt,2022.2.4,MacIntel,59.84082341,Chrome,1440,900,,,,,0,931,,,,,,,,,,,,,,,,,146,B,hexagon,1,0,,,,,,,,,,,,,,,,repeat,letter,lettRpt,j,1.0678,Hi,,,,,,1,,,,,,,,low,28,0,28,0,1,,,,,,,,,
296356,2022-12-07_10h56.59.980,vts_reward_expectancy_bt,2022.2.4,MacIntel,59.84082341,Chrome,1440,900,,,,,1,932,,,,,,,,,,,,,,,,,132,D,star,1,0,,,,,,,,,,,,,,,,repeat,letter,lettRpt,j,1.2201,Lo,,,,,,1,,,,,,,,low,29,0,29,0,1,,,,,,,,,
296356,2022-12-07_10h56.59.980,vts_reward_expectancy_bt,2022.2.4,MacIntel,59.84082341,Chrome,1440,900,,,,,10,942,,,,,,,,,,,,,,,,,167,F,circle,1,0,,,,,,,,,,,,,,,,switch,number,numSwt,f,0.6681,Hi,,,,,,1,,,,,,,,low,30,0,30,0,1,,,,,,,,,
296356,2022-12-07_10h56.59.980,vts_reward_expectancy_bt,2022.2.4,MacIntel,59.84082341,Chrome,1440,900,,,,,1,943,,,,,,,,,,,,,,,,,174,W,triangle,1,0,,,,,,,,,,,,,,,,repeat,number,numRpt,f,0.7706,Lo,,,,,,1,,,,,,,,low,31,0,31,0,1,,,,,,,,,
296356,2022-12-07_10h56.59.980,vts_reward_expectancy_bt,2022.2.4,MacIntel,59.84082341,Chrome,1440,900,,,,,0,943,,,,,,,,,,,,,,,,,167,F,hexagon,1,0,,,,,,,,,,,,,,,,repeat,number,numRpt,f,1.4871,Hi,,,,,,2,,,,,,space,108.5284,low,0,0,0,0,1,,,,,,,,,
296356,2022-12-07_10h56.59.980,vts_reward_expectancy_bt,2022.2.4,MacIntel,59.84082341,Chrome,1440,900,,,,,0,943,,,,,,,,,,,,,,,,,146,H,circle,1,0,,,,,,,,,,,,,,,,repeat,number,numRpt,d,0.946,Hi,,,,,,2,,,,,,,,low,1,0,1,0,1,,,,,,,,,
296356,2022-12-07_10h56.59.980,vts_reward_expectancy_bt,2022.2.4,MacIntel,59.84082341,Chrome,1440,900,,,,,1,944,,,,,,,,,,,,,,,,,132,S,triangle,1,0,,,,,,,,,,,,,,,,switch,letter,lettSwt,k,0.5829,Lo,,,,,,2,,,,,,,,low,2,0,2,0,1,,,,,,,,,
296356,2022-12-07_10h56.59.980,vts_reward_expectancy_bt,2022.2.4,MacIntel,59.84082341,Chrome,1440,900,,,,,1,945,,,,,,,,,,,,,,,,,139,Y,star,1,0,,,,,,,,,,,,,,,,repeat,letter,lettRpt,k,0.4969,Lo,,,,,,2,,,,,,,,low,3,0,3,0,1,,,,,,,,,
296356,2022-12-07_10h56.59.980,vts_reward_expectancy_bt,2022.2.4,MacIntel,59.84082341,Chrome,1440,900,,,,,10,955,,,,,,,,,,,,,,,,,160,W,hexagon,1,0,,,,,,,,,,,,,,,,repeat,letter,lettRpt,k,0.635,Hi,,,,,,2,,,,,,,,low,4,0,4,0,1,,,,,,,,,
296356,2022-12-07_10h56.59.980,vts_reward_expectancy_bt,2022.2.4,MacIntel,59.84082341,Chrome,1440,900,,,,,10,965,,,,,,,,,,,,,,,,,174,B,circle,1,0,,,,,,,,,,,,,,,,repeat,letter,lettRpt,j,0.6309,Hi,,,,,,2,,,,,,,,low,5,0,5,0,1,,,,,,,,,
296356,2022-12-07_10h56.59.980,vts_reward_expectancy_bt,2022.2.4,MacIntel,59.84082341,Chrome,1440,900,,,,,1,966,,,,,,,,,,,,,,,,,181,U,triangle,1,0,,,,,,,,,,,,,,,,repeat,letter,lettRpt,k,0.5872,Lo,,,,,,2,,,,,,,,low,6,0,6,0,1,,,,,,,,,
296356,2022-12-07_10h56.59.980,vts_reward_expectancy_bt,2022.2.4,MacIntel,59.84082341,Chrome,1440,900,,,,,1,967,,,,,,,,,,,,,,,,,125,D,star,1,0,,,,,,,,,,,,,,,,repeat,letter,lettRpt,j,0.7139,Lo,,,,,,2,,,,,,,,low,7,0,7,0,1,,,,,,,,,
296356,2022-12-07_10h56.59.980,vts_reward_expectancy_bt,2022.2.4,MacIntel,59.84082341,Chrome,1440,900,,,,,0,967,,,,,,,,,,,,,,,,,167,F,circle,1,0,,,,,,,,,,,,,,,,switch,number,numSwt,f,0.7161,Hi,,,,,,2,,,,,,,,low,8,0,8,0,1,,,,,,,,,
296356,2022-12-07_10h56.59.980,vts_reward_expectancy_bt,2022.2.4,MacIntel,59.84082341,Chrome,1440,900,,,,,1,968,,,,,,,,,,,,,,,,,146,H,hexagon,1,0,,,,,,,,,,,,,,,,repeat,number,numRpt,d,0.4045,Hi,,,,,,2,,,,,,,,low,9,0,9,0,1,,,,,,,,,
296356,2022-12-07_10h56.59.980,vts_reward_expectancy_bt,2022.2.4,MacIntel,59.84082341,Chrome,1440,900,,,,,10,978,,,,,,,,,,,,,,,,,132,S,triangle,1,0,,,,,,,,,,,,,,,,repeat,number,numRpt,d,0.503,Lo,,,,,,2,,,,,,,,low,10,0,10,0,1,,,,,,,,,
296356,2022-12-07_10h56.59.980,vts_reward_expectancy_bt,2022.2.4,MacIntel,59.84082341,Chrome,1440,900,,,,,10,988,,,,,,,,,,,,,,,,,139,Y,star,1,0,,,,,,,,,,,,,,,,repeat,number,numRpt,d,0.6978,Lo,,,,,,2,,,,,,,,low,11,0,11,0,1,,,,,,,,,
296356,2022-12-07_10h56.59.980,vts_reward_expectancy_bt,2022.2.4,MacIntel,59.84082341,Chrome,1440,900,,,,,1,989,,,,,,,,,,,,,,,,,160,W,triangle,1,0,,,,,,,,,,,,,,,,repeat,number,numRpt,f,0.5809,Lo,,,,,,2,,,,,,,,low,12,0,12,0,1,,,,,,,,,
296356,2022-12-07_10h56.59.980,vts_reward_expectancy_bt,2022.2.4,MacIntel,59.84082341,Chrome,1440,900,,,,,10,999,,,,,,,,,,,,,,,,,174,B,star,1,0,,,,,,,,,,,,,,,,repeat,number,numRpt,f,0.6758,Lo,,,,,,2,,,,,,,,low,13,0,13,0,1,,,,,,,,,
296356,2022-12-07_10h56.59.980,vts_reward_expectancy_bt,2022.2.4,MacIntel,59.84082341,Chrome,1440,900,,,,,0,999,,,,,,,,,,,,,,,,,181,U,hexagon,1,0,,,,,,,,,,,,,,,,switch,letter,lettSwt,k,0.8315,Hi,,,,,,2,,,,,,,,low,14,0,14,0,1,,,,,,,,,
296356,2022-12-07_10h56.59.980,vts_reward_expectancy_bt,2022.2.4,MacIntel,59.84082341,Chrome,1440,900,,,,,10,1009,,,,,,,,,,,,,,,,,125,D,circle,1,0,,,,,,,,,,,,,,,,repeat,letter,lettRpt,j,0.568,Hi,,,,,,2,,,,,,,,low,15,0,15,0,1,,,,,,,,,
296356,2022-12-07_10h56.59.980,vts_reward_expectancy_bt,2022.2.4,MacIntel,59.84082341,Chrome,1440,900,,,,,0,1009,,,,,,,,,,,,,,,,,139,H,hexagon,1,0,,,,,,,,,,,,,,,,repeat,letter,lettRpt,j,0.8656,Hi,,,,,,2,,,,,,,,low,16,0,16,0,1,,,,,,,,,
296356,2022-12-07_10h56.59.980,vts_reward_expectancy_bt,2022.2.4,MacIntel,59.84082341,Chrome,1440,900,,,,,1,1010,,,,,,,,,,,,,,,,,167,Y,triangle,1,0,,,,,,,,,,,,,,,,switch,number,numSwt,f,0.4842,Lo,,,,,,2,,,,,,,,low,17,0,17,0,1,,,,,,,,,
296356,2022-12-07_10h56.59.980,vts_reward_expectancy_bt,2022.2.4,MacIntel,59.84082341,Chrome,1440,900,,,,,10,1020,,,,,,,,,,,,,,,,,132,W,star,1,0,,,,,,,,,,,,,,,,repeat,number,numRpt,d,0.3659,Lo,,,,,,2,,,,,,,,low,18,0,18,0,1,,,,,,,,,
296356,2022-12-07_10h56.59.980,vts_reward_expectancy_bt,2022.2.4,MacIntel,59.84082341,Chrome,1440,900,,,,,0,1020,,,,,,,,,,,,,,,,,160,B,circle,0,0,,,,,,,,,,,,,,,,repeat,number,NA,d,0.5235,Lo,,,,,,2,,,,,,,,low,19,0,19,0,1,,,,,,,,,
296356,2022-12-07_10h56.59.980,vts_reward_expectancy_bt,2022.2.4,MacIntel,59.84082341,Chrome,1440,900,,,,,1,1021,,,,,,,,,,,,,,,,,181,S,star,1,1,,,,,,,,,,,,,,,,repeat,number,numRpt,f,0.5016,Lo,,,,,,2,,,,,,,,low,20,0,20,0,1,,,,,,,,,
296356,2022-12-07_10h56.59.980,vts_reward_expectancy_bt,2022.2.4,MacIntel,59.84082341,Chrome,1440,900,,,,,0,1021,,,,,,,,,,,,,,,,,125,U,hexagon,1,0,,,,,,,,,,,,,,,,switch,letter,lettSwt,k,1.0884,Hi,,,,,,2,,,,,,,,low,21,0,21,0,1,,,,,,,,,
296356,2022-12-07_10h56.59.980,vts_reward_expectancy_bt,2022.2.4,MacIntel,59.84082341,Chrome,1440,900,,,,,1,1022,,,,,,,,,,,,,,,,,174,D,triangle,1,0,,,,,,,,,,,,,,,,repeat,letter,lettRpt,j,0.5648,Lo,,,,,,2,,,,,,,,low,22,0,22,0,1,,,,,,,,,
296356,2022-12-07_10h56.59.980,vts_reward_expectancy_bt,2022.2.4,MacIntel,59.84082341,Chrome,1440,900,,,,,10,1032,,,,,,,,,,,,,,,,,146,F,circle,1,0,,,,,,,,,,,,,,,,repeat,letter,lettRpt,j,0.4807,Hi,,,,,,2,,,,,,,,low,23,0,23,0,1,,,,,,,,,
296356,2022-12-07_10h56.59.980,vts_reward_expectancy_bt,2022.2.4,MacIntel,59.84082341,Chrome,1440,900,,,,,10,1042,,,,,,,,,,,,,,,,,181,D,star,1,0,,,,,,,,,,,,,,,,repeat,letter,lettRpt,j,0.5664,Lo,,,,,,2,,,,,,,,low,24,0,24,0,1,,,,,,,,,
296356,2022-12-07_10h56.59.980,vts_reward_expectancy_bt,2022.2.4,MacIntel,59.84082341,Chrome,1440,900,,,,,1,1043,,,,,,,,,,,,,,,,,167,B,hexagon,1,0,,,,,,,,,,,,,,,,repeat,letter,lettRpt,j,0.5536,Hi,,,,,,2,,,,,,,,low,25,0,25,0,1,,,,,,,,,
296356,2022-12-07_10h56.59.980,vts_reward_expectancy_bt,2022.2.4,MacIntel,59.84082341,Chrome,1440,900,,,,,1,1044,,,,,,,,,,,,,,,,,174,S,circle,1,0,,,,,,,,,,,,,,,,repeat,letter,lettRpt,k,0.5818,Hi,,,,,,2,,,,,,,,low,26,0,26,0,1,,,,,,,,,
296356,2022-12-07_10h56.59.980,vts_reward_expectancy_bt,2022.2.4,MacIntel,59.84082341,Chrome,1440,900,,,,,1,1045,,,,,,,,,,,,,,,,,132,F,triangle,1,0,,,,,,,,,,,,,,,,repeat,letter,lettRpt,j,0.5142,Lo,,,,,,2,,,,,,,,low,27,0,27,0,1,,,,,,,,,
296356,2022-12-07_10h56.59.980,vts_reward_expectancy_bt,2022.2.4,MacIntel,59.84082341,Chrome,1440,900,,,,,0,1045,,,,,,,,,,,,,,,,,139,H,hexagon,1,0,,,,,,,,,,,,,,,,switch,number,numSwt,d,1.8006,Hi,,,,,,2,,,,,,,,low,28,0,28,0,1,,,,,,,,,
296356,2022-12-07_10h56.59.980,vts_reward_expectancy_bt,2022.2.4,MacIntel,59.84082341,Chrome,1440,900,,,,,0,1045,,,,,,,,,,,,,,,,,125,Y,circle,1,0,,,,,,,,,,,,,,,,switch,letter,lettSwt,k,0.8687,Hi,,,,,,2,,,,,,,,low,29,0,29,0,1,,,,,,,,,
296356,2022-12-07_10h56.59.980,vts_reward_expectancy_bt,2022.2.4,MacIntel,59.84082341,Chrome,1440,900,,,,,10,1055,,,,,,,,,,,,,,,,,160,U,triangle,1,0,,,,,,,,,,,,,,,,repeat,letter,lettRpt,k,0.5158,Lo,,,,,,2,,,,,,,,low,30,0,30,0,1,,,,,,,,,
296356,2022-12-07_10h56.59.980,vts_reward_expectancy_bt,2022.2.4,MacIntel,59.84082341,Chrome,1440,900,,,,,1,1056,,,,,,,,,,,,,,,,,146,W,star,1,0,,,,,,,,,,,,,,,,repeat,letter,lettRpt,k,0.7501,Lo,,,,,,2,,,,,,,,low,31,0,31,0,1,,,,,,,,,
296356,2022-12-07_10h56.59.980,vts_reward_expectancy_bt,2022.2.4,MacIntel,59.84082341,Chrome,1440,900,,,,,1,1057,,,,,,,,,,,,,,,,,167,Y,triangle,1,0,,,,,,,,,,,,,,,,switch,number,numSwt,f,1.875,Lo,,,,,,3,,,,,,space,6.7933,low,0,0,0,0,1,,,,,,,,,
296356,2022-12-07_10h56.59.980,vts_reward_expectancy_bt,2022.2.4,MacIntel,59.84082341,Chrome,1440,900,,,,,0,1057,,,,,,,,,,,,,,,,,146,D,hexagon,1,0,,,,,,,,,,,,,,,,repeat,number,numRpt,d,1.3731,Hi,,,,,,3,,,,,,,,low,1,0,1,0,1,,,,,,,,,
296356,2022-12-07_10h56.59.980,vts_reward_expectancy_bt,2022.2.4,MacIntel,59.84082341,Chrome,1440,900,,,,,1,1058,,,,,,,,,,,,,,,,,181,S,star,1,0,,,,,,,,,,,,,,,,switch,letter,lettSwt,k,1.1319,Lo,,,,,,3,,,,,,,,low,2,0,2,0,1,,,,,,,,,
296356,2022-12-07_10h56.59.980,vts_reward_expectancy_bt,2022.2.4,MacIntel,59.84082341,Chrome,1440,900,,,,,0,1058,,,,,,,,,,,,,,,,,174,B,circle,1,0,,,,,,,,,,,,,,,,repeat,letter,lettRpt,j,1.0715,Hi,,,,,,3,,,,,,,,low,3,0,3,0,1,,,,,,,,,
296356,2022-12-07_10h56.59.980,vts_reward_expectancy_bt,2022.2.4,MacIntel,59.84082341,Chrome,1440,900,,,,,1,1059,,,,,,,,,,,,,,,,,160,U,triangle,1,0,,,,,,,,,,,,,,,,repeat,letter,lettRpt,k,0.5852,Lo,,,,,,3,,,,,,,,low,4,0,4,0,1,,,,,,,,,
296356,2022-12-07_10h56.59.980,vts_reward_expectancy_bt,2022.2.4,MacIntel,59.84082341,Chrome,1440,900,,,,,0,1059,,,,,,,,,,,,,,,,,132,H,hexagon,1,0,,,,,,,,,,,,,,,,repeat,letter,lettRpt,j,0.6346,Hi,,,,,,3,,,,,,,,low,5,0,5,0,1,,,,,,,,,
296356,2022-12-07_10h56.59.980,vts_reward_expectancy_bt,2022.2.4,MacIntel,59.84082341,Chrome,1440,900,,,,,1,1060,,,,,,,,,,,,,,,,,125,W,star,1,0,,,,,,,,,,,,,,,,repeat,letter,lettRpt,k,1.3849,Lo,,,,,,3,,,,,,,,low,6,0,6,0,1,,,,,,,,,
296356,2022-12-07_10h56.59.980,vts_reward_expectancy_bt,2022.2.4,MacIntel,59.84082341,Chrome,1440,900,,,,,0,1060,,,,,,,,,,,,,,,,,139,F,circle,1,0,,,,,,,,,,,,,,,,repeat,letter,lettRpt,j,1.2007,Hi,,,,,,3,,,,,,,,low,7,0,7,0,1,,,,,,,,,
296356,2022-12-07_10h56.59.980,vts_reward_expectancy_bt,2022.2.4,MacIntel,59.84082341,Chrome,1440,900,,,,,1,1061,,,,,,,,,,,,,,,,,167,Y,star,1,0,,,,,,,,,,,,,,,,repeat,letter,lettRpt,k,0.5025,Lo,,,,,,3,,,,,,,,low,8,0,8,0,1,,,,,,,,,
296356,2022-12-07_10h56.59.980,vts_reward_expectancy_bt,2022.2.4,MacIntel,59.84082341,Chrome,1440,900,,,,,10,1071,,,,,,,,,,,,,,,,,146,D,hexagon,1,0,,,,,,,,,,,,,,,,switch,number,numSwt,d,0.4312,Hi,,,,,,3,,,,,,,,low,9,0,9,0,1,,,,,,,,,
296356,2022-12-07_10h56.59.980,vts_reward_expectancy_bt,2022.2.4,MacIntel,59.84082341,Chrome,1440,900,,,,,10,1081,,,,,,,,,,,,,,,,,181,S,triangle,1,0,,,,,,,,,,,,,,,,repeat,number,numRpt,f,0.523,Lo,,,,,,3,,,,,,,,low,10,0,10,0,1,,,,,,,,,
296356,2022-12-07_10h56.59.980,vts_reward_expectancy_bt,2022.2.4,MacIntel,59.84082341,Chrome,1440,900,,,,,0,1081,,,,,,,,,,,,,,,,,174,B,circle,0,0,,,,,,,,,,,,,,,,repeat,number,NA,d,1.4328,Lo,,,,,,3,,,,,,,,low,11,0,11,0,1,,,,,,,,,
296356,2022-12-07_10h56.59.980,vts_reward_expectancy_bt,2022.2.4,MacIntel,59.84082341,Chrome,1440,900,,,,,0,1081,,,,,,,,,,,,,,,,,160,U,hexagon,1,1,,,,,,,,,,,,,,,,repeat,number,numRpt,f,0.6988,Hi,,,,,,3,,,,,,,,low,12,0,12,0,1,,,,,,,,,
296356,2022-12-07_10h56.59.980,vts_reward_expectancy_bt,2022.2.4,MacIntel,59.84082341,Chrome,1440,900,,,,,10,1091,,,,,,,,,,,,,,,,,132,H,star,1,0,,,,,,,,,,,,,,,,repeat,number,numRpt,d,0.3947,Lo,,,,,,3,,,,,,,,low,13,0,13,0,1,,,,,,,,,
296356,2022-12-07_10h56.59.980,vts_reward_expectancy_bt,2022.2.4,MacIntel,59.84082341,Chrome,1440,900,,,,,1,1092,,,,,,,,,,,,,,,,,125,W,triangle,1,0,,,,,,,,,,,,,,,,repeat,number,numRpt,d,0.6731,Lo,,,,,,3,,,,,,,,low,14,0,14,0,1,,,,,,,,,
296356,2022-12-07_10h56.59.980,vts_reward_expectancy_bt,2022.2.4,MacIntel,59.84082341,Chrome,1440,900,,,,,0,1092,,,,,,,,,,,,,,,,,139,F,circle,0,0,,,,,,,,,,,,,,,,repeat,number,NA,f,0.3304,Lo,,,,,,3,,,,,,,,low,15,0,15,0,1,,,,,,,,,
296356,2022-12-07_10h56.59.980,vts_reward_expectancy_bt,2022.2.4,MacIntel,59.84082341,Chrome,1440,900,,,,,10,1102,,,,,,,,,,,,,,,,,125,Y,circle,1,1,,,,,,,,,,,,,,,,repeat,number,numRpt,d,0.4798,Hi,,,,,,3,,,,,,,,low,16,0,16,0,1,,,,,,,,,
296356,2022-12-07_10h56.59.980,vts_reward_expectancy_bt,2022.2.4,MacIntel,59.84082341,Chrome,1440,900,,,,,0,1102,,,,,,,,,,,,,,,,,146,H,hexagon,1,0,,,,,,,,,,,,,,,,switch,letter,lettSwt,j,1.0505,Hi,,,,,,3,,,,,,,,low,17,0,17,0,1,,,,,,,,,
296356,2022-12-07_10h56.59.980,vts_reward_expectancy_bt,2022.2.4,MacIntel,59.84082341,Chrome,1440,900,,,,,1,1103,,,,,,,,,,,,,,,,,160,W,triangle,1,0,,,,,,,,,,,,,,,,repeat,letter,lettRpt,k,0.801,Lo,,,,,,3,,,,,,,,low,18,0,18,0,1,,,,,,,,,
296356,2022-12-07_10h56.59.980,vts_reward_expectancy_bt,2022.2.4,MacIntel,59.84082341,Chrome,1440,900,,,,,10,1113,,,,,,,,,,,,,,,,,167,U,star,1,0,,,,,,,,,,,,,,,,repeat,letter,lettRpt,k,0.6507,Lo,,,,,,3,,,,,,,,low,19,0,19,0,1,,,,,,,,,
296356,2022-12-07_10h56.59.980,vts_reward_expectancy_bt,2022.2.4,MacIntel,59.84082341,Chrome,1440,900,,,,,1,1114,,,,,,,,,,,,,,,,,139,B,circle,1,0,,,,,,,,,,,,,,,,repeat,letter,lettRpt,j,0.4829,Hi,,,,,,3,,,,,,,,low,20,0,20,0,1,,,,,,,,,
296356,2022-12-07_10h56.59.980,vts_reward_expectancy_bt,2022.2.4,MacIntel,59.84082341,Chrome,1440,900,,,,,0,1114,,,,,,,,,,,,,,,,,132,S,hexagon,1,0,,,,,,,,,,,,,,,,repeat,letter,lettRpt,k,0.6492,Hi,,,,,,3,,,,,,,,low,21,0,21,0,1,,,,,,,,,
296356,2022-12-07_10h56.59.980,vts_reward_expectancy_bt,2022.2.4,MacIntel,59.84082341,Chrome,1440,900,,,,,1,1115,,,,,,,,,,,,,,,,,174,D,star,1,0,,,,,,,,,,,,,,,,repeat,letter,lettRpt,j,0.4901,Lo,,,,,,3,,,,,,,,low,22,0,22,0,1,,,,,,,,,
296356,2022-12-07_10h56.59.980,vts_reward_expectancy_bt,2022.2.4,MacIntel,59.84082341,Chrome,1440,900,,,,,10,1125,,,,,,,,,,,,,,,,,181,F,triangle,1,0,,,,,,,,,,,,,,,,repeat,letter,lettRpt,j,0.6153,Lo,,,,,,3,,,,,,,,low,23,0,23,0,1,,,,,,,,,
296356,2022-12-07_10h56.59.980,vts_reward_expectancy_bt,2022.2.4,MacIntel,59.84082341,Chrome,1440,900,,,,,10,1135,,,,,,,,,,,,,,,,,167,H,triangle,1,0,,,,,,,,,,,,,,,,repeat,letter,lettRpt,j,1.1373,Lo,,,,,,3,,,,,,,,low,24,0,24,0,1,,,,,,,,,
296356,2022-12-07_10h56.59.980,vts_reward_expectancy_bt,2022.2.4,MacIntel,59.84082341,Chrome,1440,900,,,,,1,1136,,,,,,,,,,,,,,,,,181,W,star,1,0,,,,,,,,,,,,,,,,repeat,letter,lettRpt,k,0.5655,Lo,,,,,,3,,,,,,,,low,25,0,25,0,1,,,,,,,,,
296356,2022-12-07_10h56.59.980,vts_reward_expectancy_bt,2022.2.4,MacIntel,59.84082341,Chrome,1440,900,,,,,0,1136,,,,,,,,,,,,,,,,,139,F,circle,1,0,,,,,,,,,,,,,,,,repeat,letter,lettRpt,j,0.6841,Hi,,,,,,3,,,,,,,,low,26,0,26,0,1,,,,,,,,,
296356,2022-12-07_10h56.59.980,vts_reward_expectancy_bt,2022.2.4,MacIntel,59.84082341,Chrome,1440,900,,,,,10,1146,,,,,,,,,,,,,,,,,160,U,hexagon,1,0,,,,,,,,,,,,,,,,repeat,letter,lettRpt,k,0.5325,Hi,,,,,,3,,,,,,,,low,27,0,27,0,1,,,,,,,,,
296356,2022-12-07_10h56.59.980,vts_reward_expectancy_bt,2022.2.4,MacIntel,59.84082341,Chrome,1440,900,,,,,1,1147,,,,,,,,,,,,,,,,,174,D,triangle,1,0,,,,,,,,,,,,,,,,switch,number,numSwt,f,0.601,Lo,,,,,,3,,,,,,,,low,28,0,28,0,1,,,,,,,,,
296356,2022-12-07_10h56.59.980,vts_reward_expectancy_bt,2022.2.4,MacIntel,59.84082341,Chrome,1440,900,,,,,0,1147,,,,,,,,,,,,,,,,,125,S,circle,1,0,,,,,,,,,,,,,,,,repeat,number,numRpt,d,1.2156,Hi,,,,,,3,,,,,,,,low,29,0,29,0,1,,,,,,,,,
296356,2022-12-07_10h56.59.980,vts_reward_expectancy_bt,2022.2.4,MacIntel,59.84082341,Chrome,1440,900,,,,,10,1157,,,,,,,,,,,,,,,,,146,B,star,1,0,,,,,,,,,,,,,,,,repeat,number,numRpt,d,1.2518,Lo,,,,,,3,,,,,,,,low,30,0,30,0,1,,,,,,,,,
296356,2022-12-07_10h56.59.980,vts_reward_expectancy_bt,2022.2.4,MacIntel,59.84082341,Chrome,1440,900,,,,,0,1157,,,,,,,,,,,,,,,,,132,Y,hexagon,1,0,,,,,,,,,,,,,,,,repeat,number,numRpt,d,0.7215,Hi,,,,,,3,,,,,,,,low,31,0,31,0,1,,,,,,,,,
296356,2022-12-07_10h56.59.980,vts_reward_expectancy_bt,2022.2.4,MacIntel,59.84082341,Chrome,1440,900,,,,,1,1158,,,,,,,,,,,,,,,,,125,Y,star,1,0,,,,,,,,,,,,,,,,switch,letter,lettSwt,k,1.1662,Lo,,,,,,4,,,,,,space,1.4665,low,0,0,0,0,1,,,,,,,,,
296356,2022-12-07_10h56.59.980,vts_reward_expectancy_bt,2022.2.4,MacIntel,59.84082341,Chrome,1440,900,,,,,10,1168,,,,,,,,,,,,,,,,,146,H,circle,1,0,,,,,,,,,,,,,,,,repeat,letter,lettRpt,j,0.5496,Hi,,,,,,4,,,,,,,,low,1,0,1,0,1,,,,,,,,,
296356,2022-12-07_10h56.59.980,vts_reward_expectancy_bt,2022.2.4,MacIntel,59.84082341,Chrome,1440,900,,,,,1,1169,,,,,,,,,,,,,,,,,181,S,triangle,1,0,,,,,,,,,,,,,,,,repeat,letter,lettRpt,k,0.5342,Lo,,,,,,4,,,,,,,,low,2,0,2,0,1,,,,,,,,,
296356,2022-12-07_10h56.59.980,vts_reward_expectancy_bt,2022.2.4,MacIntel,59.84082341,Chrome,1440,900,,,,,10,1179,,,,,,,,,,,,,,,,,174,D,hexagon,1,0,,,,,,,,,,,,,,,,repeat,letter,lettRpt,j,0.3787,Hi,,,,,,4,,,,,,,,low,3,0,3,0,1,,,,,,,,,
296356,2022-12-07_10h56.59.980,vts_reward_expectancy_bt,2022.2.4,MacIntel,59.84082341,Chrome,1440,900,,,,,1,1180,,,,,,,,,,,,,,,,,132,W,star,1,0,,,,,,,,,,,,,,,,repeat,letter,lettRpt,k,0.4677,Lo,,,,,,4,,,,,,,,low,4,0,4,0,1,,,,,,,,,
296356,2022-12-07_10h56.59.980,vts_reward_expectancy_bt,2022.2.4,MacIntel,59.84082341,Chrome,1440,900,,,,,10,1190,,,,,,,,,,,,,,,,,167,U,circle,1,0,,,,,,,,,,,,,,,,switch,number,numSwt,f,0.48,Hi,,,,,,4,,,,,,,,low,5,0,5,0,1,,,,,,,,,
296356,2022-12-07_10h56.59.980,vts_reward_expectancy_bt,2022.2.4,MacIntel,59.84082341,Chrome,1440,900,,,,,1,1191,,,,,,,,,,,,,,,,,139,B,triangle,1,0,,,,,,,,,,,,,,,,repeat,number,numRpt,d,0.6013,Lo,,,,,,4,,,,,,,,low,6,0,6,0,1,,,,,,,,,
296356,2022-12-07_10h56.59.980,vts_reward_expectancy_bt,2022.2.4,MacIntel,59.84082341,Chrome,1440,900,,,,,10,1201,,,,,,,,,,,,,,,,,160,F,hexagon,1,0,,,,,,,,,,,,,,,,repeat,number,numRpt,f,0.5178,Hi,,,,,,4,,,,,,,,low,7,0,7,0,1,,,,,,,,,
296356,2022-12-07_10h56.59.980,vts_reward_expectancy_bt,2022.2.4,MacIntel,59.84082341,Chrome,1440,900,,,,,10,1211,,,,,,,,,,,,,,,,,125,Y,hexagon,1,0,,,,,,,,,,,,,,,,repeat,number,numRpt,d,0.3999,Hi,,,,,,4,,,,,,,,low,8,0,8,0,1,,,,,,,,,
296356,2022-12-07_10h56.59.980,vts_reward_expectancy_bt,2022.2.4,MacIntel,59.84082341,Chrome,1440,900,,,,,1,1212,,,,,,,,,,,,,,,,,146,H,triangle,1,0,,,,,,,,,,,,,,,,repeat,number,numRpt,d,0.6482,Lo,,,,,,4,,,,,,,,low,9,0,9,0,1,,,,,,,,,
296356,2022-12-07_10h56.59.980,vts_reward_expectancy_bt,2022.2.4,MacIntel,59.84082341,Chrome,1440,900,,,,,0,1212,,,,,,,,,,,,,,,,,181,S,circle,1,0,,,,,,,,,,,,,,,,repeat,number,numRpt,f,0.6511,Hi,,,,,,4,,,,,,,,low,10,0,10,0,1,,,,,,,,,
296356,2022-12-07_10h56.59.980,vts_reward_expectancy_bt,2022.2.4,MacIntel,59.84082341,Chrome,1440,900,,,,,10,1222,,,,,,,,,,,,,,,,,174,D,star,1,0,,,,,,,,,,,,,,,,repeat,number,numRpt,f,0.5174,Lo,,,,,,4,,,,,,,,low,11,0,11,0,1,,,,,,,,,
296356,2022-12-07_10h56.59.980,vts_reward_expectancy_bt,2022.2.4,MacIntel,59.84082341,Chrome,1440,900,,,,,1,1223,,,,,,,,,,,,,,,,,132,W,star,1,0,,,,,,,,,,,,,,,,switch,letter,lettSwt,k,1.0511,Lo,,,,,,4,,,,,,,,low,12,0,12,0,1,,,,,,,,,
296356,2022-12-07_10h56.59.980,vts_reward_expectancy_bt,2022.2.4,MacIntel,59.84082341,Chrome,1440,900,,,,,1,1224,,,,,,,,,,,,,,,,,167,U,hexagon,1,0,,,,,,,,,,,,,,,,repeat,letter,lettRpt,k,0.4997,Hi,,,,,,4,,,,,,,,low,13,0,13,0,1,,,,,,,,,
296356,2022-12-07_10h56.59.980,vts_reward_expectancy_bt,2022.2.4,MacIntel,59.84082341,Chrome,1440,900,,,,,10,1234,,,,,,,,,,,,,,,,,139,B,triangle,1,0,,,,,,,,,,,,,,,,repeat,letter,lettRpt,j,0.6188,Lo,,,,,,4,,,,,,,,low,14,0,14,0,1,,,,,,,,,
296356,2022-12-07_10h56.59.980,vts_reward_expectancy_bt,2022.2.4,MacIntel,59.84082341,Chrome,1440,900,,,,,0,1234,,,,,,,,,,,,,,,,,160,F,circle,1,0,,,,,,,,,,,,,,,,repeat,letter,lettRpt,j,0.6329,Hi,,,,,,4,,,,,,,,low,15,0,15,0,1,,,,,,,,,
296356,2022-12-07_10h56.59.980,vts_reward_expectancy_bt,2022.2.4,MacIntel,59.84082341,Chrome,1440,900,,,,,0,1234,,,,,,,,,,,,,,,,,174,B,hexagon,1,0,,,,,,,,,,,,,,,,repeat,letter,lettRpt,j,0.6513,Hi,,,,,,4,,,,,,,,low,16,0,16,0,1,,,,,,,,,
296356,2022-12-07_10h56.59.980,vts_reward_expectancy_bt,2022.2.4,MacIntel,59.84082341,Chrome,1440,900,,,,,0,1234,,,,,,,,,,,,,,,,,181,U,star,0,0,,,,,,,,,,,,,,,,repeat,letter,NA,j,0.4175,Hi,,,,,,4,,,,,,,,low,17,0,17,0,1,,,,,,,,,
296356,2022-12-07_10h56.59.980,vts_reward_expectancy_bt,2022.2.4,MacIntel,59.84082341,Chrome,1440,900,,,,,0,1234,,,,,,,,,,,,,,,,,125,Y,triangle,0,1,,,,,,,,,,,,,,,,repeat,letter,NA,j,0.4647,Hi,,,,,,4,,,,,,,,low,18,0,18,0,1,,,,,,,,,
296356,2022-12-07_10h56.59.980,vts_reward_expectancy_bt,2022.2.4,MacIntel,59.84082341,Chrome,1440,900,,,,,0,1234,,,,,,,,,,,,,,,,,139,H,circle,1,1,,,,,,,,,,,,,,,,switch,number,numSwt,d,0.8651,Hi,,,,,,4,,,,,,,,low,19,0,19,0,1,,,,,,,,,
296356,2022-12-07_10h56.59.980,vts_reward_expectancy_bt,2022.2.4,MacIntel,59.84082341,Chrome,1440,900,,,,,0,1234,,,,,,,,,,,,,,,,,146,F,circle,1,0,,,,,,,,,,,,,,,,repeat,number,numRpt,d,0.7027,Hi,,,,,,4,,,,,,,,low,20,0,20,0,1,,,,,,,,,
296356,2022-12-07_10h56.59.980,vts_reward_expectancy_bt,2022.2.4,MacIntel,59.84082341,Chrome,1440,900,,,,,1,1235,,,,,,,,,,,,,,,,,160,W,triangle,1,0,,,,,,,,,,,,,,,,repeat,number,numRpt,f,0.3859,Lo,,,,,,4,,,,,,,,low,21,0,21,0,1,,,,,,,,,
296356,2022-12-07_10h56.59.980,vts_reward_expectancy_bt,2022.2.4,MacIntel,59.84082341,Chrome,1440,900,,,,,0,1235,,,,,,,,,,,,,,,,,167,S,star,0,0,,,,,,,,,,,,,,,,repeat,number,NA,d,0.4521,Lo,,,,,,4,,,,,,,,low,22,0,22,0,1,,,,,,,,,
296356,2022-12-07_10h56.59.980,vts_reward_expectancy_bt,2022.2.4,MacIntel,59.84082341,Chrome,1440,900,,,,,1,1236,,,,,,,,,,,,,,,,,132,D,hexagon,1,1,,,,,,,,,,,,,,,,repeat,number,numRpt,d,0.3983,Hi,,,,,,4,,,,,,,,low,23,0,23,0,1,,,,,,,,,
296356,2022-12-07_10h56.59.980,vts_reward_expectancy_bt,2022.2.4,MacIntel,59.84082341,Chrome,1440,900,,,,,1,1237,,,,,,,,,,,,,,,,,167,Y,triangle,1,0,,,,,,,,,,,,,,,,repeat,number,numRpt,f,0.4144,Lo,,,,,,4,,,,,,,,low,24,0,24,0,1,,,,,,,,,
296356,2022-12-07_10h56.59.980,vts_reward_expectancy_bt,2022.2.4,MacIntel,59.84082341,Chrome,1440,900,,,,,0,1237,,,,,,,,,,,,,,,,,125,H,hexagon,1,0,,,,,,,,,,,,,,,,repeat,number,numRpt,d,0.6682,Hi,,,,,,4,,,,,,,,low,25,0,25,0,1,,,,,,,,,
296356,2022-12-07_10h56.59.980,vts_reward_expectancy_bt,2022.2.4,MacIntel,59.84082341,Chrome,1440,900,,,,,10,1247,,,,,,,,,,,,,,,,,146,D,star,1,0,,,,,,,,,,,,,,,,repeat,number,numRpt,d,0.8044,Lo,,,,,,4,,,,,,,,low,26,0,26,0,1,,,,,,,,,
296356,2022-12-07_10h56.59.980,vts_reward_expectancy_bt,2022.2.4,MacIntel,59.84082341,Chrome,1440,900,,,,,10,1257,,,,,,,,,,,,,,,,,132,S,circle,1,0,,,,,,,,,,,,,,,,repeat,number,numRpt,d,0.602,Hi,,,,,,4,,,,,,,,low,27,0,27,0,1,,,,,,,,,
296356,2022-12-07_10h56.59.980,vts_reward_expectancy_bt,2022.2.4,MacIntel,59.84082341,Chrome,1440,900,,,,,10,1267,,,,,,,,,,,,,,,,,160,W,triangle,1,0,,,,,,,,,,,,,,,,repeat,number,numRpt,f,0.4518,Lo,,,,,,4,,,,,,,,low,28,0,28,0,1,,,,,,,,,
296356,2022-12-07_10h56.59.980,vts_reward_expectancy_bt,2022.2.4,MacIntel,59.84082341,Chrome,1440,900,,,,,10,1277,,,,,,,,,,,,,,,,,139,U,star,1,0,,,,,,,,,,,,,,,,repeat,number,numRpt,d,0.3734,Lo,,,,,,4,,,,,,,,low,29,0,29,0,1,,,,,,,,,
296356,2022-12-07_10h56.59.980,vts_reward_expectancy_bt,2022.2.4,MacIntel,59.84082341,Chrome,1440,900,,,,,1,1278,,,,,,,,,,,,,,,,,181,F,circle,1,0,,,,,,,,,,,,,,,,switch,letter,lettSwt,j,0.5825,Hi,,,,,,4,,,,,,,,low,30,0,30,0,1,,,,,,,,,
296356,2022-12-07_10h56.59.980,vts_reward_expectancy_bt,2022.2.4,MacIntel,59.84082341,Chrome,1440,900,,,,,10,1288,,,,,,,,,,,,,,,,,174,B,hexagon,1,0,,,,,,,,,,,,,,,,repeat,letter,lettRpt,j,0.4515,Hi,,,,,,4,,,,,,,,low,31,0,31,0,1,,,,,,,,,
296356,2022-12-07_10h56.59.980,vts_reward_expectancy_bt,2022.2.4,MacIntel,59.84082341,Chrome,1440,900,,,,,0,1288,,,,,,,,,,,,,,,,,125,F,hexagon,1,0,,,,,,,,,,,,,,,,repeat,letter,lettRpt,j,0.6147,Hi,,,,,,5,,,,,,space,1.0256,low,0,0,0,0,1,,,,,,,,,
296356,2022-12-07_10h56.59.980,vts_reward_expectancy_bt,2022.2.4,MacIntel,59.84082341,Chrome,1440,900,,,,,10,1298,,,,,,,,,,,,,,,,,160,S,triangle,1,0,,,,,,,,,,,,,,,,repeat,letter,lettRpt,k,0.623,Lo,,,,,,5,,,,,,,,low,1,0,1,0,1,,,,,,,,,
296356,2022-12-07_10h56.59.980,vts_reward_expectancy_bt,2022.2.4,MacIntel,59.84082341,Chrome,1440,900,,,,,10,1308,,,,,,,,,,,,,,,,,181,W,star,1,0,,,,,,,,,,,,,,,,repeat,letter,lettRpt,k,0.6653,Lo,,,,,,5,,,,,,,,low,2,0,2,0,1,,,,,,,,,
296356,2022-12-07_10h56.59.980,vts_reward_expectancy_bt,2022.2.4,MacIntel,59.84082341,Chrome,1440,900,,,,,0,1308,,,,,,,,,,,,,,,,,174,Y,circle,1,0,,,,,,,,,,,,,,,,repeat,letter,lettRpt,k,0.5842,Hi,,,,,,5,,,,,,,,low,3,0,3,0,1,,,,,,,,,
296356,2022-12-07_10h56.59.980,vts_reward_expectancy_bt,2022.2.4,MacIntel,59.84082341,Chrome,1440,900,,,,,1,1309,,,,,,,,,,,,,,,,,167,D,hexagon,1,0,,,,,,,,,,,,,,,,repeat,letter,lettRpt,j,0.3622,Hi,,,,,,5,,,,,,,,low,4,0,4,0,1,,,,,,,,,
296356,2022-12-07_10h56.59.980,vts_reward_expectancy_bt,2022.2.4,MacIntel,59.84082341,Chrome,1440,900,,,,,1,1310,,,,,,,,,,,,,,,,,132,U,triangle,1,0,,,,,,,,,,,,,,,,repeat,letter,lettRpt,k,0.3818,Lo,,,,,,5,,,,,,,,low,5,0,5,0,1,,,,,,,,,
296356,2022-12-07_10h56.59.980,vts_reward_expectancy_bt,2022.2.4,MacIntel,59.84082341,Chrome,1440,900,,,,,10,1320,,,,,,,,,,,,,,,,,139,H,star,1,0,,,,,,,,,,,,,,,,repeat,letter,lettRpt,j,0.4862,Lo,,,,,,5,,,,,,,,low,6,0,6,0,1,,,,,,,,,
296356,2022-12-07_10h56.59.980,vts_reward_expectancy_bt,2022.2.4,MacIntel,59.84082341,Chrome,1440,900,,,,,10,1330,,,,,,,,,,,,,,,,,146,B,circle,1,0,,,,,,,,,,,,,,,,switch,number,numSwt,d,0.3968,Hi,,,,,,5,,,,,,,,low,7,0,7,0,1,,,,,,,,,
296356,2022-12-07_10h56.59.980,vts_reward_expectancy_bt,2022.2.4,MacIntel,59.84082341,Chrome,1440,900,,,,,1,1331,,,,,,,,,,,,,,,,,125,F,star,1,0,,,,,,,,,,,,,,,,repeat,number,numRpt,d,0.3988,Lo,,,,,,5,,,,,,,,low,8,0,8,0,1,,,,,,,,,
296356,2022-12-07_10h56.59.980,vts_reward_expectancy_bt,2022.2.4,MacIntel,59.84082341,Chrome,1440,900,,,,,0,1331,,,,,,,,,,,,,,,,,160,S,circle,0,0,,,,,,,,,,,,,,,,repeat,number,NA,d,0.4819,Lo,,,,,,5,,,,,,,,low,9,0,9,0,1,,,,,,,,,
296356,2022-12-07_10h56.59.980,vts_reward_expectancy_bt,2022.2.4,MacIntel,59.84082341,Chrome,1440,900,,,,,1,1332,,,,,,,,,,,,,,,,,181,W,triangle,1,1,,,,,,,,,,,,,,,,repeat,number,numRpt,f,0.5047,Lo,,,,,,5,,,,,,,,low,10,0,10,0,1,,,,,,,,,
296356,2022-12-07_10h56.59.980,vts_reward_expectancy_bt,2022.2.4,MacIntel,59.84082341,Chrome,1440,900,,,,,0,1332,,,,,,,,,,,,,,,,,174,Y,hexagon,1,0,,,,,,,,,,,,,,,,repeat,number,numRpt,f,0.6006,Hi,,,,,,5,,,,,,,,low,11,0,11,0,1,,,,,,,,,
296356,2022-12-07_10h56.59.980,vts_reward_expectancy_bt,2022.2.4,MacIntel,59.84082341,Chrome,1440,900,,,,,0,1332,,,,,,,,,,,,,,,,,167,D,circle,1,0,,,,,,,,,,,,,,,,repeat,number,numRpt,f,0.4644,Hi,,,,,,5,,,,,,,,low,12,0,12,0,1,,,,,,,,,
296356,2022-12-07_10h56.59.980,vts_reward_expectancy_bt,2022.2.4,MacIntel,59.84082341,Chrome,1440,900,,,,,0,1332,,,,,,,,,,,,,,,,,132,U,hexagon,1,0,,,,,,,,,,,,,,,,repeat,number,numRpt,d,0.535,Hi,,,,,,5,,,,,,,,low,13,0,13,0,1,,,,,,,,,
296356,2022-12-07_10h56.59.980,vts_reward_expectancy_bt,2022.2.4,MacIntel,59.84082341,Chrome,1440,900,,,,,10,1342,,,,,,,,,,,,,,,,,139,H,triangle,1,0,,,,,,,,,,,,,,,,switch,letter,lettSwt,j,0.5832,Lo,,,,,,5,,,,,,,,low,14,0,14,0,1,,,,,,,,,
296356,2022-12-07_10h56.59.980,vts_reward_expectancy_bt,2022.2.4,MacIntel,59.84082341,Chrome,1440,900,,,,,1,1343,,,,,,,,,,,,,,,,,146,B,star,1,0,,,,,,,,,,,,,,,,repeat,letter,lettRpt,j,0.4474,Lo,,,,,,5,,,,,,,,low,15,0,15,0,1,,,,,,,,,
296356,2022-12-07_10h56.59.980,vts_reward_expectancy_bt,2022.2.4,MacIntel,59.84082341,Chrome,1440,900,,,,,0,1343,,,,,,,,,,,,,,,,,181,Y,hexagon,1,0,,,,,,,,,,,,,,,,repeat,letter,lettRpt,k,0.4997,Hi,,,,,,5,,,,,,,,low,16,0,16,0,1,,,,,,,,,
296356,2022-12-07_10h56.59.980,vts_reward_expectancy_bt,2022.2.4,MacIntel,59.84082341,Chrome,1440,900,,,,,1,1344,,,,,,,,,,,,,,,,,125,F,triangle,1,0,,,,,,,,,,,,,,,,repeat,letter,lettRpt,j,0.3976,Lo,,,,,,5,,,,,,,,low,17,0,17,0,1,,,,,,,,,
296356,2022-12-07_10h56.59.980,vts_reward_expectancy_bt,2022.2.4,MacIntel,59.84082341,Chrome,1440,900,,,,,1,1345,,,,,,,,,,,,,,,,,174,H,star,1,0,,,,,,,,,,,,,,,,repeat,letter,lettRpt,j,0.4488,Lo,,,,,,5,,,,,,,,low,18,0,18,0,1,,,,,,,,,
296356,2022-12-07_10h56.59.980,vts_reward_expectancy_bt,2022.2.4,MacIntel,59.84082341,Chrome,1440,900,,,,,0,1345,,,,,,,,,,,,,,,,,167,W,circle,1,0,,,,,,,,,,,,,,,,repeat,letter,lettRpt,k,0.4998,Hi,,,,,,5,,,,,,,,low,19,0,19,0,1,,,,,,,,,
296356,2022-12-07_10h56.59.980,vts_reward_expectancy_bt,2022.2.4,MacIntel,59.84082341,Chrome,1440,900,,,,,0,1345,,,,,,,,,,,,,,,,,160,B,hexagon,0,0,,,,,,,,,,,,,,,,switch,number,NA,d,0.6882,Hi,,,,,,5,,,,,,,,low,20,0,20,0,1,,,,,,,,,
296356,2022-12-07_10h56.59.980,vts_reward_expectancy_bt,2022.2.4,MacIntel,59.84082341,Chrome,1440,900,,,,,10,1355,,,,,,,,,,,,,,,,,132,S,star,1,1,,,,,,,,,,,,,,,,repeat,number,numRpt,d,0.7659,Lo,,,,,,5,,,,,,,,low,21,0,21,0,1,,,,,,,,,
296356,2022-12-07_10h56.59.980,vts_reward_expectancy_bt,2022.2.4,MacIntel,59.84082341,Chrome,1440,900,,,,,0,1355,,,,,,,,,,,,,,,,,146,U,circle,1,0,,,,,,,,,,,,,,,,repeat,number,numRpt,d,0.8991,Hi,,,,,,5,,,,,,,,low,22,0,22,0,1,,,,,,,,,
296356,2022-12-07_10h56.59.980,vts_reward_expectancy_bt,2022.2.4,MacIntel,59.84082341,Chrome,1440,900,,,,,10,1365,,,,,,,,,,,,,,,,,139,D,triangle,1,0,,,,,,,,,,,,,,,,repeat,number,numRpt,d,0.7317,Lo,,,,,,5,,,,,,,,low,23,0,23,0,1,,,,,,,,,
296356,2022-12-07_10h56.59.980,vts_reward_expectancy_bt,2022.2.4,MacIntel,59.84082341,Chrome,1440,900,,,,,10,1375,,,,,,,,,,,,,,,,,174,H,star,1,0,,,,,,,,,,,,,,,,repeat,number,numRpt,f,0.4666,Lo,,,,,,5,,,,,,,,low,24,0,24,0,1,,,,,,,,,
296356,2022-12-07_10h56.59.980,vts_reward_expectancy_bt,2022.2.4,MacIntel,59.84082341,Chrome,1440,900,,,,,0,1375,,,,,,,,,,,,,,,,,181,D,hexagon,1,0,,,,,,,,,,,,,,,,repeat,number,numRpt,f,0.6008,Hi,,,,,,5,,,,,,,,low,25,0,25,0,1,,,,,,,,,
296356,2022-12-07_10h56.59.980,vts_reward_expectancy_bt,2022.2.4,MacIntel,59.84082341,Chrome,1440,900,,,,,1,1376,,,,,,,,,,,,,,,,,132,W,circle,1,0,,,,,,,,,,,,,,,,switch,letter,lettSwt,k,0.4656,Hi,,,,,,5,,,,,,,,low,26,0,26,0,1,,,,,,,,,
296356,2022-12-07_10h56.59.980,vts_reward_expectancy_bt,2022.2.4,MacIntel,59.84082341,Chrome,1440,900,,,,,10,1386,,,,,,,,,,,,,,,,,139,F,triangle,1,0,,,,,,,,,,,,,,,,repeat,letter,lettRpt,j,0.5158,Lo,,,,,,5,,,,,,,,low,27,0,27,0,1,,,,,,,,,
296356,2022-12-07_10h56.59.980,vts_reward_expectancy_bt,2022.2.4,MacIntel,59.84082341,Chrome,1440,900,,,,,10,1396,,,,,,,,,,,,,,,,,125,B,triangle,1,0,,,,,,,,,,,,,,,,repeat,letter,lettRpt,j,0.6413,Lo,,,,,,5,,,,,,,,low,28,0,28,0,1,,,,,,,,,
296356,2022-12-07_10h56.59.980,vts_reward_expectancy_bt,2022.2.4,MacIntel,59.84082341,Chrome,1440,900,,,,,10,1406,,,,,,,,,,,,,,,,,160,U,star,1,0,,,,,,,,,,,,,,,,repeat,letter,lettRpt,k,0.5807,Lo,,,,,,5,,,,,,,,low,29,0,29,0,1,,,,,,,,,
296356,2022-12-07_10h56.59.980,vts_reward_expectancy_bt,2022.2.4,MacIntel,59.84082341,Chrome,1440,900,,,,,0,1406,,,,,,,,,,,,,,,,,167,S,hexagon,1,0,,,,,,,,,,,,,,,,repeat,letter,lettRpt,k,0.9893,Hi,,,,,,5,,,,,,,,low,30,0,30,0,1,,,,,,,,,
296356,2022-12-07_10h56.59.980,vts_reward_expectancy_bt,2022.2.4,MacIntel,59.84082341,Chrome,1440,900,,,,,0,1406,,,,,,,,,,,,,,,,,146,Y,circle,1,0,,,,,,,,,,,,,,,,repeat,letter,lettRpt,k,0.5677,Hi,,,,,,5,,,,,,,,low,31,0,31,0,1,,,,,,,,,
296356,2022-12-07_10h56.59.980,vts_reward_expectancy_bt,2022.2.4,MacIntel,59.84082341,Chrome,1440,900,,,,,1,1407,,,,,,,,,,,,,,,,,146,B,triangle,1,0,,,,,,,,,,,,,,,,repeat,letter,lettRpt,j,0.6332,Lo,,,,,,6,,,,,,space,1.048,low,0,0,0,0,1,,,,,,,,,
296356,2022-12-07_10h56.59.980,vts_reward_expectancy_bt,2022.2.4,MacIntel,59.84082341,Chrome,1440,900,,,,,1,1408,,,,,,,,,,,,,,,,,139,S,hexagon,1,0,,,,,,,,,,,,,,,,repeat,letter,lettRpt,k,0.4483,Hi,,,,,,6,,,,,,,,low,1,0,1,0,1,,,,,,,,,
296356,2022-12-07_10h56.59.980,vts_reward_expectancy_bt,2022.2.4,MacIntel,59.84082341,Chrome,1440,900,,,,,10,1418,,,,,,,,,,,,,,,,,167,H,star,1,0,,,,,,,,,,,,,,,,repeat,letter,lettRpt,j,0.6175,Lo,,,,,,6,,,,,,,,low,2,0,2,0,1,,,,,,,,,
296356,2022-12-07_10h56.59.980,vts_reward_expectancy_bt,2022.2.4,MacIntel,59.84082341,Chrome,1440,900,,,,,0,1418,,,,,,,,,,,,,,,,,181,D,circle,1,0,,,,,,,,,,,,,,,,repeat,letter,lettRpt,j,0.6166,Hi,,,,,,6,,,,,,,,low,3,0,3,0,1,,,,,,,,,
296356,2022-12-07_10h56.59.980,vts_reward_expectancy_bt,2022.2.4,MacIntel,59.84082341,Chrome,1440,900,,,,,1,1419,,,,,,,,,,,,,,,,,160,Y,triangle,1,0,,,,,,,,,,,,,,,,switch,number,numSwt,f,0.6148,Lo,,,,,,6,,,,,,,,low,4,0,4,0,1,,,,,,,,,
296356,2022-12-07_10h56.59.980,vts_reward_expectancy_bt,2022.2.4,MacIntel,59.84082341,Chrome,1440,900,,,,,1,1420,,,,,,,,,,,,,,,,,125,W,hexagon,1,0,,,,,,,,,,,,,,,,repeat,number,numRpt,d,0.4145,Hi,,,,,,6,,,,,,,,low,5,0,5,0,1,,,,,,,,,
296356,2022-12-07_10h56.59.980,vts_reward_expectancy_bt,2022.2.4,MacIntel,59.84082341,Chrome,1440,900,,,,,1,1421,,,,,,,,,,,,,,,,,174,U,star,1,0,,,,,,,,,,,,,,,,repeat,number,numRpt,f,0.6307,Lo,,,,,,6,,,,,,,,low,6,0,6,0,1,,,,,,,,,
296356,2022-12-07_10h56.59.980,vts_reward_expectancy_bt,2022.2.4,MacIntel,59.84082341,Chrome,1440,900,,,,,0,1421,,,,,,,,,,,,,,,,,132,F,circle,1,0,,,,,,,,,,,,,,,,repeat,number,numRpt,d,0.5145,Hi,,,,,,6,,,,,,,,low,7,0,7,0,1,,,,,,,,,
296356,2022-12-07_10h56.59.980,vts_reward_expectancy_bt,2022.2.4,MacIntel,59.84082341,Chrome,1440,900,,,,,10,1431,,,,,,,,,,,,,,,,,146,B,triangle,1,0,,,,,,,,,,,,,,,,switch,letter,lettSwt,j,1.153,Lo,,,,,,6,,,,,,,,low,8,0,8,0,1,,,,,,,,,
296356,2022-12-07_10h56.59.980,vts_reward_expectancy_bt,2022.2.4,MacIntel,59.84082341,Chrome,1440,900,,,,,1,1432,,,,,,,,,,,,,,,,,139,S,star,1,0,,,,,,,,,,,,,,,,repeat,letter,lettRpt,k,0.6369,Lo,,,,,,6,,,,,,,,low,9,0,9,0,1,,,,,,,,,
296356,2022-12-07_10h56.59.980,vts_reward_expectancy_bt,2022.2.4,MacIntel,59.84082341,Chrome,1440,900,,,,,0,1432,,,,,,,,,,,,,,,,,167,H,hexagon,1,0,,,,,,,,,,,,,,,,repeat,letter,lettRpt,j,0.6161,Hi,,,,,,6,,,,,,,,low,10,0,10,0,1,,,,,,,,,
