participant,date,expName,psychopyVersion,OS,frameRate,browser,xResolution,yResolution,key_resp.keys,key_resp.rt,training_resp.keys,training_resp.rt,points_trial,points_cumul,trainBlock,training.thisRepN,training.thisTrialN,training.thisN,training.thisIndex,training.ran,LTriangleOpac,LCircleOpac,LHexagonOpac,LStarOpac,RTriangleOpac,RCircleOpac,RHexagonOpac,RStarOpac,LShape_ID,RShape_ID,curr_topStim,curr_bottStim,curr_shape,acc,E1,target_resp_prac1.keys,target_resp_prac1.rt,pracBlock,task1_prac_trials.thisRepN,task1_prac_trials.thisTrialN,task1_prac_trials.thisN,task1_prac_trials.thisIndex,task1_prac_trials.ran,target_resp_prac2.keys,target_resp_prac2.rt,task2_praac_trials.thisRepN,task2_praac_trials.thisTrialN,task2_praac_trials.thisN,task2_praac_trials.thisIndex,task2_praac_trials.ran,alt,task,condition,target_resp.keys,target_resp.rt,rewCond,vts_practice_trials.thisRepN,vts_practice_trials.thisTrialN,vts_practice_trials.thisN,vts_practice_trials.thisIndex,vts_practice_trials.ran,blockNum,trials_norew.thisRepN,trials_norew.thisTrialN,trials_norew.thisN,trials_norew.thisIndex,trials_norew.ran,key_resp_2.keys,key_resp_2.rt,rewExpectancy,trials_rew.thisRepN,trials_rew.thisTrialN,trials_rew.thisN,trials_rew.thisIndex,trials_rew.ran,Q1,Q2,Q2_text,Q3,Q4,Q5_text,Q5,xRes,yRes
296323,2022-11-27_18h43.35.881,vts_reward_expectancy_bt,2022.2.4,MacIntel,60.0024001,Chrome,1440,900,,,,,,,,,,,,,,,,,,,,,,,,,,,,,,,,,,,,,,,,,,,,,,,,,,,,,,,,,,,,,,,,,,,,,,,,,,,,
296323,2022-11-27_18h43.35.881,vts_reward_expectancy_bt,2022.2.4,MacIntel,60.0024001,Chrome,1440,900,space,29.5004,,,,,,,,,,,,,,,,,,,,,,,,,,,,,,,,,,,,,,,,,,,,,,,,,,,,,,,,,,,,,,,,,,,,,,,,,,
296323,2022-11-27_18h43.35.881,vts_reward_expectancy_bt,2022.2.4,MacIntel,60.0024001,Chrome,1440,900,,,,,,,,,,,,,,,,,,,,,,,,,,,,,,,,,,,,,,,,,,,,,,,,,,,,,,,,,,,,,,,,,,,,,,,,,,,,
296323,2022-11-27_18h43.35.881,vts_reward_expectancy_bt,2022.2.4,MacIntel,60.0024001,Chrome,1440,900,,,l,1.7148,1,1,0,0,0,0,0,1,1,0,0,0,0,1,0,0,triangle,circle,,,,,,,,,,,,,,,,,,,,,,,,,,,,,,,,,,,,,,,,,,,,,,,,,,,,,,
296323,2022-11-27_18h43.35.881,vts_reward_expectancy_bt,2022.2.4,MacIntel,60.0024001,Chrome,1440,900,,,l,2.0669,10,11,0,0,1,1,9,1,0,0,0,1,1,0,0,0,star,triangle,,,,,,,,,,,,,,,,,,,,,,,,,,,,,,,,,,,,,,,,,,,,,,,,,,,,,,
296323,2022-11-27_18h43.35.881,vts_reward_expectancy_bt,2022.2.4,MacIntel,60.0024001,Chrome,1440,900,,,a,1.5829,1,12,0,0,2,2,5,1,0,1,0,0,0,0,0,1,circle,star,,,,,,,,,,,,,,,,,,,,,,,,,,,,,,,,,,,,,,,,,,,,,,,,,,,,,,
296323,2022-11-27_18h43.35.881,vts_reward_expectancy_bt,2022.2.4,MacIntel,60.0024001,Chrome,1440,900,,,l,1.2012,1,13,0,0,3,3,2,1,1,0,0,0,0,0,0,1,triangle,star,,,,,,,,,,,,,,,,,,,,,,,,,,,,,,,,,,,,,,,,,,,,,,,,,,,,,,
296323,2022-11-27_18h43.35.881,vts_reward_expectancy_bt,2022.2.4,MacIntel,60.0024001,Chrome,1440,900,,,a,1.0665,1,14,0,0,4,4,7,1,0,0,1,0,0,1,0,0,hexagon,circle,,,,,,,,,,,,,,,,,,,,,,,,,,,,,,,,,,,,,,,,,,,,,,,,,,,,,,
296323,2022-11-27_18h43.35.881,vts_reward_expectancy_bt,2022.2.4,MacIntel,60.0024001,Chrome,1440,900,,,l,0.7189,1,15,0,0,5,5,11,1,0,0,0,1,0,0,1,0,star,hexagon,,,,,,,,,,,,,,,,,,,,,,,,,,,,,,,,,,,,,,,,,,,,,,,,,,,,,,
296323,2022-11-27_18h43.35.881,vts_reward_expectancy_bt,2022.2.4,MacIntel,60.0024001,Chrome,1440,900,,,a,0.9493,10,25,0,0,6,6,3,1,0,1,0,0,1,0,0,0,circle,triangle,,,,,,,,,,,,,,,,,,,,,,,,,,,,,,,,,,,,,,,,,,,,,,,,,,,,,,
296323,2022-11-27_18h43.35.881,vts_reward_expectancy_bt,2022.2.4,MacIntel,60.0024001,Chrome,1440,900,,,l,1.0365,1,26,0,0,7,7,6,1,0,0,1,0,1,0,0,0,hexagon,triangle,,,,,,,,,,,,,,,,,,,,,,,,,,,,,,,,,,,,,,,,,,,,,,,,,,,,,,
296323,2022-11-27_18h43.35.881,vts_reward_expectancy_bt,2022.2.4,MacIntel,60.0024001,Chrome,1440,900,,,a,1.1834,1,27,0,0,8,8,10,1,0,0,0,1,0,1,0,0,star ,circle,,,,,,,,,,,,,,,,,,,,,,,,,,,,,,,,,,,,,,,,,,,,,,,,,,,,,,
296323,2022-11-27_18h43.35.881,vts_reward_expectancy_bt,2022.2.4,MacIntel,60.0024001,Chrome,1440,900,,,l,1.8539,1,28,0,0,9,9,8,1,0,0,1,0,0,0,0,1,hexagon,star,,,,,,,,,,,,,,,,,,,,,,,,,,,,,,,,,,,,,,,,,,,,,,,,,,,,,,
296323,2022-11-27_18h43.35.881,vts_reward_expectancy_bt,2022.2.4,MacIntel,60.0024001,Chrome,1440,900,,,a,1.0905,1,29,0,0,10,10,4,1,0,1,0,0,0,0,1,0,circle,hexagon,,,,,,,,,,,,,,,,,,,,,,,,,,,,,,,,,,,,,,,,,,,,,,,,,,,,,,
296323,2022-11-27_18h43.35.881,vts_reward_expectancy_bt,2022.2.4,MacIntel,60.0024001,Chrome,1440,900,,,l,1.5682,10,39,0,0,11,11,1,1,1,0,0,0,0,0,1,0,triangle,hexagon,,,,,,,,,,,,,,,,,,,,,,,,,,,,,,,,,,,,,,,,,,,,,,,,,,,,,,
296323,2022-11-27_18h43.35.881,vts_reward_expectancy_bt,2022.2.4,MacIntel,60.0024001,Chrome,1440,900,,,a,1.0408,10,49,0,1,0,12,6,1,0,0,1,0,1,0,0,0,hexagon,triangle,,,,,,,,,,,,,,,,,,,,,,,,,,,,,,,,,,,,,,,,,,,,,,,,,,,,,,
296323,2022-11-27_18h43.35.881,vts_reward_expectancy_bt,2022.2.4,MacIntel,60.0024001,Chrome,1440,900,,,a,1.5321,1,50,0,1,1,13,3,1,0,1,0,0,1,0,0,0,circle,triangle,,,,,,,,,,,,,,,,,,,,,,,,,,,,,,,,,,,,,,,,,,,,,,,,,,,,,,
296323,2022-11-27_18h43.35.881,vts_reward_expectancy_bt,2022.2.4,MacIntel,60.0024001,Chrome,1440,900,,,l,0.5006,10,60,0,1,2,14,0,1,1,0,0,0,0,1,0,0,triangle,circle,,,,,,,,,,,,,,,,,,,,,,,,,,,,,,,,,,,,,,,,,,,,,,,,,,,,,,
296323,2022-11-27_18h43.35.881,vts_reward_expectancy_bt,2022.2.4,MacIntel,60.0024001,Chrome,1440,900,,,l,0.5354,10,70,0,1,3,15,11,1,0,0,0,1,0,0,1,0,star,hexagon,,,,,,,,,,,,,,,,,,,,,,,,,,,,,,,,,,,,,,,,,,,,,,,,,,,,,,
296323,2022-11-27_18h43.35.881,vts_reward_expectancy_bt,2022.2.4,MacIntel,60.0024001,Chrome,1440,900,,,l,0.4548,10,80,0,1,4,16,9,1,0,0,0,1,1,0,0,0,star,triangle,,,,,,,,,,,,,,,,,,,,,,,,,,,,,,,,,,,,,,,,,,,,,,,,,,,,,,
296323,2022-11-27_18h43.35.881,vts_reward_expectancy_bt,2022.2.4,MacIntel,60.0024001,Chrome,1440,900,,,l,0.4169,10,90,0,1,5,17,4,1,0,1,0,0,0,0,1,0,circle,hexagon,,,,,,,,,,,,,,,,,,,,,,,,,,,,,,,,,,,,,,,,,,,,,,,,,,,,,,
296323,2022-11-27_18h43.35.881,vts_reward_expectancy_bt,2022.2.4,MacIntel,60.0024001,Chrome,1440,900,,,l,0.373,1,91,0,1,6,18,10,1,0,0,0,1,0,1,0,0,star ,circle,,,,,,,,,,,,,,,,,,,,,,,,,,,,,,,,,,,,,,,,,,,,,,,,,,,,,,
296323,2022-11-27_18h43.35.881,vts_reward_expectancy_bt,2022.2.4,MacIntel,60.0024001,Chrome,1440,900,,,l,0.682,1,92,0,1,7,19,8,1,0,0,1,0,0,0,0,1,hexagon,star,,,,,,,,,,,,,,,,,,,,,,,,,,,,,,,,,,,,,,,,,,,,,,,,,,,,,,
296323,2022-11-27_18h43.35.881,vts_reward_expectancy_bt,2022.2.4,MacIntel,60.0024001,Chrome,1440,900,,,l,0.5821,1,93,0,1,8,20,7,1,0,0,1,0,0,1,0,0,hexagon,circle,,,,,,,,,,,,,,,,,,,,,,,,,,,,,,,,,,,,,,,,,,,,,,,,,,,,,,
296323,2022-11-27_18h43.35.881,vts_reward_expectancy_bt,2022.2.4,MacIntel,60.0024001,Chrome,1440,900,,,a,0.5535,10,103,0,1,9,21,5,1,0,1,0,0,0,0,0,1,circle,star,,,,,,,,,,,,,,,,,,,,,,,,,,,,,,,,,,,,,,,,,,,,,,,,,,,,,,
296323,2022-11-27_18h43.35.881,vts_reward_expectancy_bt,2022.2.4,MacIntel,60.0024001,Chrome,1440,900,,,a,0.7398,10,113,0,1,10,22,2,1,1,0,0,0,0,0,0,1,triangle,star,,,,,,,,,,,,,,,,,,,,,,,,,,,,,,,,,,,,,,,,,,,,,,,,,,,,,,
296323,2022-11-27_18h43.35.881,vts_reward_expectancy_bt,2022.2.4,MacIntel,60.0024001,Chrome,1440,900,,,a,1.0676,10,123,0,1,11,23,1,1,1,0,0,0,0,0,1,0,triangle,hexagon,,,,,,,,,,,,,,,,,,,,,,,,,,,,,,,,,,,,,,,,,,,,,,,,,,,,,,
296323,2022-11-27_18h43.35.881,vts_reward_expectancy_bt,2022.2.4,MacIntel,60.0024001,Chrome,1440,900,,,l,0.6181,1,124,0,2,0,24,10,1,0,0,0,1,0,1,0,0,star ,circle,,,,,,,,,,,,,,,,,,,,,,,,,,,,,,,,,,,,,,,,,,,,,,,,,,,,,,
296323,2022-11-27_18h43.35.881,vts_reward_expectancy_bt,2022.2.4,MacIntel,60.0024001,Chrome,1440,900,,,a,0.5159,10,134,0,2,1,25,8,1,0,0,1,0,0,0,0,1,hexagon,star,,,,,,,,,,,,,,,,,,,,,,,,,,,,,,,,,,,,,,,,,,,,,,,,,,,,,,
296323,2022-11-27_18h43.35.881,vts_reward_expectancy_bt,2022.2.4,MacIntel,60.0024001,Chrome,1440,900,,,l,0.6573,10,144,0,2,2,26,6,1,0,0,1,0,1,0,0,0,hexagon,triangle,,,,,,,,,,,,,,,,,,,,,,,,,,,,,,,,,,,,,,,,,,,,,,,,,,,,,,
296323,2022-11-27_18h43.35.881,vts_reward_expectancy_bt,2022.2.4,MacIntel,60.0024001,Chrome,1440,900,,,a,0.2846,1,145,0,2,3,27,1,1,1,0,0,0,0,0,1,0,triangle,hexagon,,,,,,,,,,,,,,,,,,,,,,,,,,,,,,,,,,,,,,,,,,,,,,,,,,,,,,
296323,2022-11-27_18h43.35.881,vts_reward_expectancy_bt,2022.2.4,MacIntel,60.0024001,Chrome,1440,900,,,l,0.6679,10,155,0,2,4,28,3,1,0,1,0,0,1,0,0,0,circle,triangle,,,,,,,,,,,,,,,,,,,,,,,,,,,,,,,,,,,,,,,,,,,,,,,,,,,,,,
296323,2022-11-27_18h43.35.881,vts_reward_expectancy_bt,2022.2.4,MacIntel,60.0024001,Chrome,1440,900,,,l,0.8155,1,156,0,2,5,29,0,1,1,0,0,0,0,1,0,0,triangle,circle,,,,,,,,,,,,,,,,,,,,,,,,,,,,,,,,,,,,,,,,,,,,,,,,,,,,,,
296323,2022-11-27_18h43.35.881,vts_reward_expectancy_bt,2022.2.4,MacIntel,60.0024001,Chrome,1440,900,,,l,1.3394,10,166,0,2,6,30,11,1,0,0,0,1,0,0,1,0,star,hexagon,,,,,,,,,,,,,,,,,,,,,,,,,,,,,,,,,,,,,,,,,,,,,,,,,,,,,,
296323,2022-11-27_18h43.35.881,vts_reward_expectancy_bt,2022.2.4,MacIntel,60.0024001,Chrome,1440,900,,,l,0.5712,1,167,0,2,7,31,9,1,0,0,0,1,1,0,0,0,star,triangle,,,,,,,,,,,,,,,,,,,,,,,,,,,,,,,,,,,,,,,,,,,,,,,,,,,,,,
296323,2022-11-27_18h43.35.881,vts_reward_expectancy_bt,2022.2.4,MacIntel,60.0024001,Chrome,1440,900,,,a,2.0062,10,177,0,2,8,32,2,1,1,0,0,0,0,0,0,1,triangle,star,,,,,,,,,,,,,,,,,,,,,,,,,,,,,,,,,,,,,,,,,,,,,,,,,,,,,,
296323,2022-11-27_18h43.35.881,vts_reward_expectancy_bt,2022.2.4,MacIntel,60.0024001,Chrome,1440,900,,,l,0.8235,1,178,0,2,9,33,7,1,0,0,1,0,0,1,0,0,hexagon,circle,,,,,,,,,,,,,,,,,,,,,,,,,,,,,,,,,,,,,,,,,,,,,,,,,,,,,,
296323,2022-11-27_18h43.35.881,vts_reward_expectancy_bt,2022.2.4,MacIntel,60.0024001,Chrome,1440,900,,,l,0.5836,10,188,0,2,10,34,4,1,0,1,0,0,0,0,1,0,circle,hexagon,,,,,,,,,,,,,,,,,,,,,,,,,,,,,,,,,,,,,,,,,,,,,,,,,,,,,,
296323,2022-11-27_18h43.35.881,vts_reward_expectancy_bt,2022.2.4,MacIntel,60.0024001,Chrome,1440,900,,,l,1.0351,1,189,0,2,11,35,5,1,0,1,0,0,0,0,0,1,circle,star,,,,,,,,,,,,,,,,,,,,,,,,,,,,,,,,,,,,,,,,,,,,,,,,,,,,,,
296323,2022-11-27_18h43.35.881,vts_reward_expectancy_bt,2022.2.4,MacIntel,60.0024001,Chrome,1440,900,,,a,1.8633,1,190,1,0,0,0,3,1,0,1,0,0,1,0,0,0,circle,triangle,,,,,,,,,,,,,,,,,,,,,,,,,,,,,,,,,,,,,,,,,,,,,,,,,,,,,,
296323,2022-11-27_18h43.35.881,vts_reward_expectancy_bt,2022.2.4,MacIntel,60.0024001,Chrome,1440,900,,,l,0.8697,10,200,1,0,1,1,6,1,0,0,1,0,1,0,0,0,hexagon,triangle,,,,,,,,,,,,,,,,,,,,,,,,,,,,,,,,,,,,,,,,,,,,,,,,,,,,,,
296323,2022-11-27_18h43.35.881,vts_reward_expectancy_bt,2022.2.4,MacIntel,60.0024001,Chrome,1440,900,,,l,0.8362,1,201,1,0,2,2,0,1,1,0,0,0,0,1,0,0,triangle,circle,,,,,,,,,,,,,,,,,,,,,,,,,,,,,,,,,,,,,,,,,,,,,,,,,,,,,,
296323,2022-11-27_18h43.35.881,vts_reward_expectancy_bt,2022.2.4,MacIntel,60.0024001,Chrome,1440,900,,,a,0.632,10,211,1,0,3,3,7,1,0,0,1,0,0,1,0,0,hexagon,circle,,,,,,,,,,,,,,,,,,,,,,,,,,,,,,,,,,,,,,,,,,,,,,,,,,,,,,
296323,2022-11-27_18h43.35.881,vts_reward_expectancy_bt,2022.2.4,MacIntel,60.0024001,Chrome,1440,900,,,a,0.7036,10,221,1,0,4,4,5,1,0,1,0,0,0,0,0,1,circle,star,,,,,,,,,,,,,,,,,,,,,,,,,,,,,,,,,,,,,,,,,,,,,,,,,,,,,,
296323,2022-11-27_18h43.35.881,vts_reward_expectancy_bt,2022.2.4,MacIntel,60.0024001,Chrome,1440,900,,,l,0.5824,10,231,1,0,5,5,11,1,0,0,0,1,0,0,1,0,star,hexagon,,,,,,,,,,,,,,,,,,,,,,,,,,,,,,,,,,,,,,,,,,,,,,,,,,,,,,
296323,2022-11-27_18h43.35.881,vts_reward_expectancy_bt,2022.2.4,MacIntel,60.0024001,Chrome,1440,900,,,a,0.4661,1,232,1,0,6,6,2,1,1,0,0,0,0,0,0,1,triangle,star,,,,,,,,,,,,,,,,,,,,,,,,,,,,,,,,,,,,,,,,,,,,,,,,,,,,,,
296323,2022-11-27_18h43.35.881,vts_reward_expectancy_bt,2022.2.4,MacIntel,60.0024001,Chrome,1440,900,,,l,0.9075,10,242,1,0,7,7,1,1,1,0,0,0,0,0,1,0,triangle,hexagon,,,,,,,,,,,,,,,,,,,,,,,,,,,,,,,,,,,,,,,,,,,,,,,,,,,,,,
296323,2022-11-27_18h43.35.881,vts_reward_expectancy_bt,2022.2.4,MacIntel,60.0024001,Chrome,1440,900,,,a,1.588,1,243,1,0,8,8,9,1,0,0,0,1,1,0,0,0,star,triangle,,,,,,,,,,,,,,,,,,,,,,,,,,,,,,,,,,,,,,,,,,,,,,,,,,,,,,
296323,2022-11-27_18h43.35.881,vts_reward_expectancy_bt,2022.2.4,MacIntel,60.0024001,Chrome,1440,900,,,l,0.8018,10,253,1,0,9,9,4,1,0,1,0,0,0,0,1,0,circle,hexagon,,,,,,,,,,,,,,,,,,,,,,,,,,,,,,,,,,,,,,,,,,,,,,,,,,,,,,
296323,2022-11-27_18h43.35.881,vts_reward_expectancy_bt,2022.2.4,MacIntel,60.0024001,Chrome,1440,900,,,l,0.8981,10,263,1,0,10,10,10,1,0,0,0,1,0,1,0,0,star ,circle,,,,,,,,,,,,,,,,,,,,,,,,,,,,,,,,,,,,,,,,,,,,,,,,,,,,,,
296323,2022-11-27_18h43.35.881,vts_reward_expectancy_bt,2022.2.4,MacIntel,60.0024001,Chrome,1440,900,,,a,0.6522,10,273,1,0,11,11,8,1,0,0,1,0,0,0,0,1,hexagon,star,,,,,,,,,,,,,,,,,,,,,,,,,,,,,,,,,,,,,,,,,,,,,,,,,,,,,,
296323,2022-11-27_18h43.35.881,vts_reward_expectancy_bt,2022.2.4,MacIntel,60.0024001,Chrome,1440,900,,,l,0.5323,1,274,1,1,0,12,7,1,0,0,1,0,0,1,0,0,hexagon,circle,,,,,,,,,,,,,,,,,,,,,,,,,,,,,,,,,,,,,,,,,,,,,,,,,,,,,,
296323,2022-11-27_18h43.35.881,vts_reward_expectancy_bt,2022.2.4,MacIntel,60.0024001,Chrome,1440,900,,,a,0.9493,10,284,1,1,1,13,6,1,0,0,1,0,1,0,0,0,hexagon,triangle,,,,,,,,,,,,,,,,,,,,,,,,,,,,,,,,,,,,,,,,,,,,,,,,,,,,,,
296323,2022-11-27_18h43.35.881,vts_reward_expectancy_bt,2022.2.4,MacIntel,60.0024001,Chrome,1440,900,,,l,1.0871,1,285,1,1,2,14,0,1,1,0,0,0,0,1,0,0,triangle,circle,,,,,,,,,,,,,,,,,,,,,,,,,,,,,,,,,,,,,,,,,,,,,,,,,,,,,,
296323,2022-11-27_18h43.35.881,vts_reward_expectancy_bt,2022.2.4,MacIntel,60.0024001,Chrome,1440,900,,,a,0.5656,10,295,1,1,3,15,8,1,0,0,1,0,0,0,0,1,hexagon,star,,,,,,,,,,,,,,,,,,,,,,,,,,,,,,,,,,,,,,,,,,,,,,,,,,,,,,
296323,2022-11-27_18h43.35.881,vts_reward_expectancy_bt,2022.2.4,MacIntel,60.0024001,Chrome,1440,900,,,l,1.3007,1,296,1,1,4,16,10,1,0,0,0,1,0,1,0,0,star ,circle,,,,,,,,,,,,,,,,,,,,,,,,,,,,,,,,,,,,,,,,,,,,,,,,,,,,,,
296323,2022-11-27_18h43.35.881,vts_reward_expectancy_bt,2022.2.4,MacIntel,60.0024001,Chrome,1440,900,,,a,0.7205,1,297,1,1,5,17,1,1,1,0,0,0,0,0,1,0,triangle,hexagon,,,,,,,,,,,,,,,,,,,,,,,,,,,,,,,,,,,,,,,,,,,,,,,,,,,,,,
296323,2022-11-27_18h43.35.881,vts_reward_expectancy_bt,2022.2.4,MacIntel,60.0024001,Chrome,1440,900,,,a,0.8686,10,307,1,1,6,18,2,1,1,0,0,0,0,0,0,1,triangle,star,,,,,,,,,,,,,,,,,,,,,,,,,,,,,,,,,,,,,,,,,,,,,,,,,,,,,,
296323,2022-11-27_18h43.35.881,vts_reward_expectancy_bt,2022.2.4,MacIntel,60.0024001,Chrome,1440,900,,,l,0.4163,1,308,1,1,7,19,4,1,0,1,0,0,0,0,1,0,circle,hexagon,,,,,,,,,,,,,,,,,,,,,,,,,,,,,,,,,,,,,,,,,,,,,,,,,,,,,,
296323,2022-11-27_18h43.35.881,vts_reward_expectancy_bt,2022.2.4,MacIntel,60.0024001,Chrome,1440,900,,,a,0.5231,1,309,1,1,8,20,11,1,0,0,0,1,0,0,1,0,star,hexagon,,,,,,,,,,,,,,,,,,,,,,,,,,,,,,,,,,,,,,,,,,,,,,,,,,,,,,
296323,2022-11-27_18h43.35.881,vts_reward_expectancy_bt,2022.2.4,MacIntel,60.0024001,Chrome,1440,900,,,a,0.3733,1,310,1,1,9,21,5,1,0,1,0,0,0,0,0,1,circle,star,,,,,,,,,,,,,,,,,,,,,,,,,,,,,,,,,,,,,,,,,,,,,,,,,,,,,,
296323,2022-11-27_18h43.35.881,vts_reward_expectancy_bt,2022.2.4,MacIntel,60.0024001,Chrome,1440,900,,,l,0.3831,10,320,1,1,10,22,3,1,0,1,0,0,1,0,0,0,circle,triangle,,,,,,,,,,,,,,,,,,,,,,,,,,,,,,,,,,,,,,,,,,,,,,,,,,,,,,
296323,2022-11-27_18h43.35.881,vts_reward_expectancy_bt,2022.2.4,MacIntel,60.0024001,Chrome,1440,900,,,l,0.2489,10,330,1,1,11,23,9,1,0,0,0,1,1,0,0,0,star,triangle,,,,,,,,,,,,,,,,,,,,,,,,,,,,,,,,,,,,,,,,,,,,,,,,,,,,,,
296323,2022-11-27_18h43.35.881,vts_reward_expectancy_bt,2022.2.4,MacIntel,60.0024001,Chrome,1440,900,,,l,0.316,1,331,1,2,0,24,0,1,1,0,0,0,0,1,0,0,triangle,circle,,,,,,,,,,,,,,,,,,,,,,,,,,,,,,,,,,,,,,,,,,,,,,,,,,,,,,
296323,2022-11-27_18h43.35.881,vts_reward_expectancy_bt,2022.2.4,MacIntel,60.0024001,Chrome,1440,900,,,a,1.4157,1,332,1,2,1,25,10,1,0,0,0,1,0,1,0,0,star ,circle,,,,,,,,,,,,,,,,,,,,,,,,,,,,,,,,,,,,,,,,,,,,,,,,,,,,,,
296323,2022-11-27_18h43.35.881,vts_reward_expectancy_bt,2022.2.4,MacIntel,60.0024001,Chrome,1440,900,,,a,0.9373,10,342,1,2,2,26,7,1,0,0,1,0,0,1,0,0,hexagon,circle,,,,,,,,,,,,,,,,,,,,,,,,,,,,,,,,,,,,,,,,,,,,,,,,,,,,,,
296323,2022-11-27_18h43.35.881,vts_reward_expectancy_bt,2022.2.4,MacIntel,60.0024001,Chrome,1440,900,,,l,0.6156,10,352,1,2,3,27,9,1,0,0,0,1,1,0,0,0,star,triangle,,,,,,,,,,,,,,,,,,,,,,,,,,,,,,,,,,,,,,,,,,,,,,,,,,,,,,
296323,2022-11-27_18h43.35.881,vts_reward_expectancy_bt,2022.2.4,MacIntel,60.0024001,Chrome,1440,900,,,a,0.9026,10,362,1,2,4,28,8,1,0,0,1,0,0,0,0,1,hexagon,star,,,,,,,,,,,,,,,,,,,,,,,,,,,,,,,,,,,,,,,,,,,,,,,,,,,,,,
296323,2022-11-27_18h43.35.881,vts_reward_expectancy_bt,2022.2.4,MacIntel,60.0024001,Chrome,1440,900,,,l,0.4213,10,372,1,2,5,29,6,1,0,0,1,0,1,0,0,0,hexagon,triangle,,,,,,,,,,,,,,,,,,,,,,,,,,,,,,,,,,,,,,,,,,,,,,,,,,,,,,
296323,2022-11-27_18h43.35.881,vts_reward_expectancy_bt,2022.2.4,MacIntel,60.0024001,Chrome,1440,900,,,a,0.4838,10,382,1,2,6,30,2,1,1,0,0,0,0,0,0,1,triangle,star,,,,,,,,,,,,,,,,,,,,,,,,,,,,,,,,,,,,,,,,,,,,,,,,,,,,,,
296323,2022-11-27_18h43.35.881,vts_reward_expectancy_bt,2022.2.4,MacIntel,60.0024001,Chrome,1440,900,,,l,0.3269,10,392,1,2,7,31,11,1,0,0,0,1,0,0,1,0,star,hexagon,,,,,,,,,,,,,,,,,,,,,,,,,,,,,,,,,,,,,,,,,,,,,,,,,,,,,,
296323,2022-11-27_18h43.35.881,vts_reward_expectancy_bt,2022.2.4,MacIntel,60.0024001,Chrome,1440,900,,,a,0.3814,10,402,1,2,8,32,1,1,1,0,0,0,0,0,1,0,triangle,hexagon,,,,,,,,,,,,,,,,,,,,,,,,,,,,,,,,,,,,,,,,,,,,,,,,,,,,,,
296323,2022-11-27_18h43.35.881,vts_reward_expectancy_bt,2022.2.4,MacIntel,60.0024001,Chrome,1440,900,,,l,0.2822,1,403,1,2,9,33,5,1,0,1,0,0,0,0,0,1,circle,star,,,,,,,,,,,,,,,,,,,,,,,,,,,,,,,,,,,,,,,,,,,,,,,,,,,,,,
296323,2022-11-27_18h43.35.881,vts_reward_expectancy_bt,2022.2.4,MacIntel,60.0024001,Chrome,1440,900,,,a,0.3328,10,413,1,2,10,34,3,1,0,1,0,0,1,0,0,0,circle,triangle,,,,,,,,,,,,,,,,,,,,,,,,,,,,,,,,,,,,,,,,,,,,,,,,,,,,,,
296323,2022-11-27_18h43.35.881,vts_reward_expectancy_bt,2022.2.4,MacIntel,60.0024001,Chrome,1440,900,,,l,0.2358,10,423,1,2,11,35,4,1,0,1,0,0,0,0,1,0,circle,hexagon,,,,,,,,,,,,,,,,,,,,,,,,,,,,,,,,,,,,,,,,,,,,,,,,,,,,,,
296323,2022-11-27_18h43.35.881,vts_reward_expectancy_bt,2022.2.4,MacIntel,60.0024001,Chrome,1440,900,,,a,1.4803,1,424,2,0,0,0,3,1,0,1,0,0,1,0,0,0,circle,triangle,,,,,,,,,,,,,,,,,,,,,,,,,,,,,,,,,,,,,,,,,,,,,,,,,,,,,,
296323,2022-11-27_18h43.35.881,vts_reward_expectancy_bt,2022.2.4,MacIntel,60.0024001,Chrome,1440,900,,,a,0.2517,10,434,2,0,1,1,9,1,0,0,0,1,1,0,0,0,star,triangle,,,,,,,,,,,,,,,,,,,,,,,,,,,,,,,,,,,,,,,,,,,,,,,,,,,,,,
296323,2022-11-27_18h43.35.881,vts_reward_expectancy_bt,2022.2.4,MacIntel,60.0024001,Chrome,1440,900,,,l,0.4162,1,435,2,0,2,2,8,1,0,0,1,0,0,0,0,1,hexagon,star,,,,,,,,,,,,,,,,,,,,,,,,,,,,,,,,,,,,,,,,,,,,,,,,,,,,,,
296323,2022-11-27_18h43.35.881,vts_reward_expectancy_bt,2022.2.4,MacIntel,60.0024001,Chrome,1440,900,,,l,0.4823,10,445,2,0,3,3,1,1,1,0,0,0,0,0,1,0,triangle,hexagon,,,,,,,,,,,,,,,,,,,,,,,,,,,,,,,,,,,,,,,,,,,,,,,,,,,,,,
296323,2022-11-27_18h43.35.881,vts_reward_expectancy_bt,2022.2.4,MacIntel,60.0024001,Chrome,1440,900,,,l,0.3857,1,446,2,0,4,4,2,1,1,0,0,0,0,0,0,1,triangle,star,,,,,,,,,,,,,,,,,,,,,,,,,,,,,,,,,,,,,,,,,,,,,,,,,,,,,,
296323,2022-11-27_18h43.35.881,vts_reward_expectancy_bt,2022.2.4,MacIntel,60.0024001,Chrome,1440,900,,,l,0.7037,10,456,2,0,5,5,4,1,0,1,0,0,0,0,1,0,circle,hexagon,,,,,,,,,,,,,,,,,,,,,,,,,,,,,,,,,,,,,,,,,,,,,,,,,,,,,,
296323,2022-11-27_18h43.35.881,vts_reward_expectancy_bt,2022.2.4,MacIntel,60.0024001,Chrome,1440,900,,,a,0.4318,10,466,2,0,6,6,7,1,0,0,1,0,0,1,0,0,hexagon,circle,,,,,,,,,,,,,,,,,,,,,,,,,,,,,,,,,,,,,,,,,,,,,,,,,,,,,,
296323,2022-11-27_18h43.35.881,vts_reward_expectancy_bt,2022.2.4,MacIntel,60.0024001,Chrome,1440,900,,,l,0.7568,1,467,2,0,7,7,5,1,0,1,0,0,0,0,0,1,circle,star,,,,,,,,,,,,,,,,,,,,,,,,,,,,,,,,,,,,,,,,,,,,,,,,,,,,,,
296323,2022-11-27_18h43.35.881,vts_reward_expectancy_bt,2022.2.4,MacIntel,60.0024001,Chrome,1440,900,,,a,0.2558,10,477,2,0,8,8,6,1,0,0,1,0,1,0,0,0,hexagon,triangle,,,,,,,,,,,,,,,,,,,,,,,,,,,,,,,,,,,,,,,,,,,,,,,,,,,,,,
296323,2022-11-27_18h43.35.881,vts_reward_expectancy_bt,2022.2.4,MacIntel,60.0024001,Chrome,1440,900,,,l,0.2831,10,487,2,0,9,9,11,1,0,0,0,1,0,0,1,0,star,hexagon,,,,,,,,,,,,,,,,,,,,,,,,,,,,,,,,,,,,,,,,,,,,,,,,,,,,,,
296323,2022-11-27_18h43.35.881,vts_reward_expectancy_bt,2022.2.4,MacIntel,60.0024001,Chrome,1440,900,,,a,0.3155,10,497,2,0,10,10,0,1,1,0,0,0,0,1,0,0,triangle,circle,,,,,,,,,,,,,,,,,,,,,,,,,,,,,,,,,,,,,,,,,,,,,,,,,,,,,,
296323,2022-11-27_18h43.35.881,vts_reward_expectancy_bt,2022.2.4,MacIntel,60.0024001,Chrome,1440,900,,,l,0.2159,1,498,2,0,11,11,10,1,0,0,0,1,0,1,0,0,star ,circle,,,,,,,,,,,,,,,,,,,,,,,,,,,,,,,,,,,,,,,,,,,,,,,,,,,,,,
296323,2022-11-27_18h43.35.881,vts_reward_expectancy_bt,2022.2.4,MacIntel,60.0024001,Chrome,1440,900,,,a,0.2666,10,508,2,1,0,12,6,1,0,0,1,0,1,0,0,0,hexagon,triangle,,,,,,,,,,,,,,,,,,,,,,,,,,,,,,,,,,,,,,,,,,,,,,,,,,,,,,
296323,2022-11-27_18h43.35.881,vts_reward_expectancy_bt,2022.2.4,MacIntel,60.0024001,Chrome,1440,900,,,l,0.2985,10,518,2,1,1,13,4,1,0,1,0,0,0,0,1,0,circle,hexagon,,,,,,,,,,,,,,,,,,,,,,,,,,,,,,,,,,,,,,,,,,,,,,,,,,,,,,
296323,2022-11-27_18h43.35.881,vts_reward_expectancy_bt,2022.2.4,MacIntel,60.0024001,Chrome,1440,900,,,a,0.5381,10,528,2,1,2,14,8,1,0,0,1,0,0,0,0,1,hexagon,star,,,,,,,,,,,,,,,,,,,,,,,,,,,,,,,,,,,,,,,,,,,,,,,,,,,,,,
296323,2022-11-27_18h43.35.881,vts_reward_expectancy_bt,2022.2.4,MacIntel,60.0024001,Chrome,1440,900,,,l,0.2891,10,538,2,1,3,15,9,1,0,0,0,1,1,0,0,0,star,triangle,,,,,,,,,,,,,,,,,,,,,,,,,,,,,,,,,,,,,,,,,,,,,,,,,,,,,,
296323,2022-11-27_18h43.35.881,vts_reward_expectancy_bt,2022.2.4,MacIntel,60.0024001,Chrome,1440,900,,,a,0.2655,10,548,2,1,4,16,10,1,0,0,0,1,0,1,0,0,star ,circle,,,,,,,,,,,,,,,,,,,,,,,,,,,,,,,,,,,,,,,,,,,,,,,,,,,,,,
296323,2022-11-27_18h43.35.881,vts_reward_expectancy_bt,2022.2.4,MacIntel,60.0024001,Chrome,1440,900,,,l,0.0491,10,558,2,1,5,17,11,1,0,0,0,1,0,0,1,0,star,hexagon,,,,,,,,,,,,,,,,,,,,,,,,,,,,,,,,,,,,,,,,,,,,,,,,,,,,,,
296323,2022-11-27_18h43.35.881,vts_reward_expectancy_bt,2022.2.4,MacIntel,60.0024001,Chrome,1440,900,,,a,0.5317,1,559,2,1,6,18,5,1,0,1,0,0,0,0,0,1,circle,star,,,,,,,,,,,,,,,,,,,,,,,,,,,,,,,,,,,,,,,,,,,,,,,,,,,,,,
296323,2022-11-27_18h43.35.881,vts_reward_expectancy_bt,2022.2.4,MacIntel,60.0024001,Chrome,1440,900,,,l,0.2822,10,569,2,1,7,19,7,1,0,0,1,0,0,1,0,0,hexagon,circle,,,,,,,,,,,,,,,,,,,,,,,,,,,,,,,,,,,,,,,,,,,,,,,,,,,,,,
296323,2022-11-27_18h43.35.881,vts_reward_expectancy_bt,2022.2.4,MacIntel,60.0024001,Chrome,1440,900,,,a,0.4661,10,579,2,1,8,20,2,1,1,0,0,0,0,0,0,1,triangle,star,,,,,,,,,,,,,,,,,,,,,,,,,,,,,,,,,,,,,,,,,,,,,,,,,,,,,,
296323,2022-11-27_18h43.35.881,vts_reward_expectancy_bt,2022.2.4,MacIntel,60.0024001,Chrome,1440,900,,,l,0.1068,10,589,2,1,9,21,3,1,0,1,0,0,1,0,0,0,circle,triangle,,,,,,,,,,,,,,,,,,,,,,,,,,,,,,,,,,,,,,,,,,,,,,,,,,,,,,
296323,2022-11-27_18h43.35.881,vts_reward_expectancy_bt,2022.2.4,MacIntel,60.0024001,Chrome,1440,900,,,a,0.4167,1,590,2,1,10,22,0,1,1,0,0,0,0,1,0,0,triangle,circle,,,,,,,,,,,,,,,,,,,,,,,,,,,,,,,,,,,,,,,,,,,,,,,,,,,,,,
296323,2022-11-27_18h43.35.881,vts_reward_expectancy_bt,2022.2.4,MacIntel,60.0024001,Chrome,1440,900,,,l,0.298,10,600,2,1,11,23,1,1,1,0,0,0,0,0,1,0,triangle,hexagon,,,,,,,,,,,,,,,,,,,,,,,,,,,,,,,,,,,,,,,,,,,,,,,,,,,,,,
296323,2022-11-27_18h43.35.881,vts_reward_expectancy_bt,2022.2.4,MacIntel,60.0024001,Chrome,1440,900,,,a,0.051,10,610,2,2,0,24,7,1,0,0,1,0,0,1,0,0,hexagon,circle,,,,,,,,,,,,,,,,,,,,,,,,,,,,,,,,,,,,,,,,,,,,,,,,,,,,,,
296323,2022-11-27_18h43.35.881,vts_reward_expectancy_bt,2022.2.4,MacIntel,60.0024001,Chrome,1440,900,,,l,0.4697,10,620,2,2,1,25,11,1,0,0,0,1,0,0,1,0,star,hexagon,,,,,,,,,,,,,,,,,,,,,,,,,,,,,,,,,,,,,,,,,,,,,,,,,,,,,,
296323,2022-11-27_18h43.35.881,vts_reward_expectancy_bt,2022.2.4,MacIntel,60.0024001,Chrome,1440,900,,,a,0.3158,1,621,2,2,2,26,3,1,0,1,0,0,1,0,0,0,circle,triangle,,,,,,,,,,,,,,,,,,,,,,,,,,,,,,,,,,,,,,,,,,,,,,,,,,,,,,
296323,2022-11-27_18h43.35.881,vts_reward_expectancy_bt,2022.2.4,MacIntel,60.0024001,Chrome,1440,900,,,l,0.4029,10,631,2,2,3,27,10,1,0,0,0,1,0,1,0,0,star ,circle,,,,,,,,,,,,,,,,,,,,,,,,,,,,,,,,,,,,,,,,,,,,,,,,,,,,,,
296323,2022-11-27_18h43.35.881,vts_reward_expectancy_bt,2022.2.4,MacIntel,60.0024001,Chrome,1440,900,,,a,0.7149,1,632,2,2,4,28,5,1,0,1,0,0,0,0,0,1,circle,star,,,,,,,,,,,,,,,,,,,,,,,,,,,,,,,,,,,,,,,,,,,,,,,,,,,,,,
296323,2022-11-27_18h43.35.881,vts_reward_expectancy_bt,2022.2.4,MacIntel,60.0024001,Chrome,1440,900,,,l,0.5312,1,633,2,2,5,29,9,1,0,0,0,1,1,0,0,0,star,triangle,,,,,,,,,,,,,,,,,,,,,,,,,,,,,,,,,,,,,,,,,,,,,,,,,,,,,,
296323,2022-11-27_18h43.35.881,vts_reward_expectancy_bt,2022.2.4,MacIntel,60.0024001,Chrome,1440,900,,,a,1.4671,1,634,2,2,6,30,4,1,0,1,0,0,0,0,1,0,circle,hexagon,,,,,,,,,,,,,,,,,,,,,,,,,,,,,,,,,,,,,,,,,,,,,,,,,,,,,,
296323,2022-11-27_18h43.35.881,vts_reward_expectancy_bt,2022.2.4,MacIntel,60.0024001,Chrome,1440,900,,,a,0.2892,10,644,2,2,7,31,0,1,1,0,0,0,0,1,0,0,triangle,circle,,,,,,,,,,,,,,,,,,,,,,,,,,,,,,,,,,,,,,,,,,,,,,,,,,,,,,
296323,2022-11-27_18h43.35.881,vts_reward_expectancy_bt,2022.2.4,MacIntel,60.0024001,Chrome,1440,900,,,l,0.2316,1,645,2,2,8,32,8,1,0,0,1,0,0,0,0,1,hexagon,star,,,,,,,,,,,,,,,,,,,,,,,,,,,,,,,,,,,,,,,,,,,,,,,,,,,,,,
296323,2022-11-27_18h43.35.881,vts_reward_expectancy_bt,2022.2.4,MacIntel,60.0024001,Chrome,1440,900,,,a,0.4535,10,655,2,2,9,33,6,1,0,0,1,0,1,0,0,0,hexagon,triangle,,,,,,,,,,,,,,,,,,,,,,,,,,,,,,,,,,,,,,,,,,,,,,,,,,,,,,
296323,2022-11-27_18h43.35.881,vts_reward_expectancy_bt,2022.2.4,MacIntel,60.0024001,Chrome,1440,900,,,l,0.3034,1,656,2,2,10,34,2,1,1,0,0,0,0,0,0,1,triangle,star,,,,,,,,,,,,,,,,,,,,,,,,,,,,,,,,,,,,,,,,,,,,,,,,,,,,,,
296323,2022-11-27_18h43.35.881,vts_reward_expectancy_bt,2022.2.4,MacIntel,60.0024001,Chrome,1440,900,,,a,0.3182,10,666,2,2,11,35,1,1,1,0,0,0,0,0,1,0,triangle,hexagon,,,,,,,,,,,,,,,,,,,,,,,,,,,,,,,,,,,,,,,,,,,,,,,,,,,,,,
296323,2022-11-27_18h43.35.881,vts_reward_expectancy_bt,2022.2.4,MacIntel,60.0024001,Chrome,1440,900,,,,,,,,,,,,,,,,,,,,,,,S,181,circle,1,0,f,2.6374,0,0,0,0,0,1,,,,,,,,,,,,,,,,,,,,,,,,,,,,,,,,,,,,,,,,,
296323,2022-11-27_18h43.35.881,vts_reward_expectancy_bt,2022.2.4,MacIntel,60.0024001,Chrome,1440,900,,,,,,,,,,,,,,,,,,,,,,,B,132,triangle,1,0,d,0.8469,0,1,0,1,0,1,,,,,,,,,,,,,,,,,,,,,,,,,,,,,,,,,,,,,,,,,
296323,2022-11-27_18h43.35.881,vts_reward_expectancy_bt,2022.2.4,MacIntel,60.0024001,Chrome,1440,900,,,,,,,,,,,,,,,,,,,,,,,D,174,hexagon,1,0,d,0.8135,0,2,0,2,0,1,,,,,,,,,,,,,,,,,,,,,,,,,,,,,,,,,,,,,,,,,
296323,2022-11-27_18h43.35.881,vts_reward_expectancy_bt,2022.2.4,MacIntel,60.0024001,Chrome,1440,900,,,,,,,,,,,,,,,,,,,,,,,H,160,star,1,0,d,0.8803,0,3,0,3,0,1,,,,,,,,,,,,,,,,,,,,,,,,,,,,,,,,,,,,,,,,,
296323,2022-11-27_18h43.35.881,vts_reward_expectancy_bt,2022.2.4,MacIntel,60.0024001,Chrome,1440,900,,,,,,,,,,,,,,,,,,,,,,,W,125,circle,1,0,f,0.6473,0,4,0,4,0,1,,,,,,,,,,,,,,,,,,,,,,,,,,,,,,,,,,,,,,,,,
296323,2022-11-27_18h43.35.881,vts_reward_expectancy_bt,2022.2.4,MacIntel,60.0024001,Chrome,1440,900,,,,,,,,,,,,,,,,,,,,,,,U,146,triangle,1,0,f,0.714,0,5,0,5,0,1,,,,,,,,,,,,,,,,,,,,,,,,,,,,,,,,,,,,,,,,,
296323,2022-11-27_18h43.35.881,vts_reward_expectancy_bt,2022.2.4,MacIntel,60.0024001,Chrome,1440,900,,,,,,,,,,,,,,,,,,,,,,,Y,139,hexagon,1,0,f,0.6708,0,6,0,6,0,1,,,,,,,,,,,,,,,,,,,,,,,,,,,,,,,,,,,,,,,,,
296323,2022-11-27_18h43.35.881,vts_reward_expectancy_bt,2022.2.4,MacIntel,60.0024001,Chrome,1440,900,,,,,,,,,,,,,,,,,,,,,,,F,167,star,1,0,d,1.0133,0,7,0,7,0,1,,,,,,,,,,,,,,,,,,,,,,,,,,,,,,,,,,,,,,,,,
296323,2022-11-27_18h43.35.881,vts_reward_expectancy_bt,2022.2.4,MacIntel,60.0024001,Chrome,1440,900,,,,,,,,,,,,,,,,,,,,,,,S,181,star,1,0,f,0.7537,0,8,0,8,0,1,,,,,,,,,,,,,,,,,,,,,,,,,,,,,,,,,,,,,,,,,
296323,2022-11-27_18h43.35.881,vts_reward_expectancy_bt,2022.2.4,MacIntel,60.0024001,Chrome,1440,900,,,,,,,,,,,,,,,,,,,,,,,B,132,circle,1,0,d,0.6144,0,9,0,9,0,1,,,,,,,,,,,,,,,,,,,,,,,,,,,,,,,,,,,,,,,,,
296323,2022-11-27_18h43.35.881,vts_reward_expectancy_bt,2022.2.4,MacIntel,60.0024001,Chrome,1440,900,,,,,,,,,,,,,,,,,,,,,,,U,167,triangle,0,0,,,1,,,,,,j,1.7642,0,0,0,0,1,,,,,,,,,,,,,,,,,,,,,,,,,,,,,,,,,,
296323,2022-11-27_18h43.35.881,vts_reward_expectancy_bt,2022.2.4,MacIntel,60.0024001,Chrome,1440,900,,,,,,,,,,,,,,,,,,,,,,,Y,174,circle,2,1,,,1,,,,,,f,1.5153,1,0,1,0,1,,,,,,,,,,,,,,,,,,,,,,,,,,,,,,,,,,
296323,2022-11-27_18h43.35.881,vts_reward_expectancy_bt,2022.2.4,MacIntel,60.0024001,Chrome,1440,900,,,,,,,,,,,,,,,,,,,,,,,B,181,star,0,0,,,1,,,,,,j,1.9129,2,0,2,0,1,,,,,,,,,,,,,,,,,,,,,,,,,,,,,,,,,,
296323,2022-11-27_18h43.35.881,vts_reward_expectancy_bt,2022.2.4,MacIntel,60.0024001,Chrome,1440,900,,,,,,,,,,,,,,,,,,,,,,,H,139,hexagon,0,1,,,1,,,,,,k,0.5481,3,0,3,0,1,,,,,,,,,,,,,,,,,,,,,,,,,,,,,,,,,,
296323,2022-11-27_18h43.35.881,vts_reward_expectancy_bt,2022.2.4,MacIntel,60.0024001,Chrome,1440,900,,,,,,,,,,,,,,,,,,,,,,,S,132,triangle,0,1,,,1,,,,,,,,4,0,4,0,1,,,,,,,,,,,,,,,,,,,,,,,,,,,,,,,,,,
296323,2022-11-27_18h43.35.881,vts_reward_expectancy_bt,2022.2.4,MacIntel,60.0024001,Chrome,1440,900,,,,,,,,,,,,,,,,,,,,,,,W,160,circle,1,1,,,1,,,,,,k,0.8792,5,0,5,0,1,,,,,,,,,,,,,,,,,,,,,,,,,,,,,,,,,,
296323,2022-11-27_18h43.35.881,vts_reward_expectancy_bt,2022.2.4,MacIntel,60.0024001,Chrome,1440,900,,,,,,,,,,,,,,,,,,,,,,,F,125,star,1,0,,,1,,,,,,j,0.681,6,0,6,0,1,,,,,,,,,,,,,,,,,,,,,,,,,,,,,,,,,,
296323,2022-11-27_18h43.35.881,vts_reward_expectancy_bt,2022.2.4,MacIntel,60.0024001,Chrome,1440,900,,,,,,,,,,,,,,,,,,,,,,,D,146,hexagon,1,0,,,1,,,,,,j,1.1982,7,0,7,0,1,,,,,,,,,,,,,,,,,,,,,,,,,,,,,,,,,,
296323,2022-11-27_18h43.35.881,vts_reward_expectancy_bt,2022.2.4,MacIntel,60.0024001,Chrome,1440,900,,,,,,,,,,,,,,,,,,,,,,,U,167,star,1,0,,,1,,,,,,k,0.5443,8,0,8,0,1,,,,,,,,,,,,,,,,,,,,,,,,,,,,,,,,,,
296323,2022-11-27_18h43.35.881,vts_reward_expectancy_bt,2022.2.4,MacIntel,60.0024001,Chrome,1440,900,,,,,,,,,,,,,,,,,,,,,,,Y,174,hexagon,1,0,,,1,,,,,,k,0.6131,9,0,9,0,1,,,,,,,,,,,,,,,,,,,,,,,,,,,,,,,,,,
296323,2022-11-27_18h43.35.881,vts_reward_expectancy_bt,2022.2.4,MacIntel,60.0024001,Chrome,1440,900,,,,,,,,,,,,,,,,,,,,,,,W,167,triangle,1,0,,,2,,,,,,k,0.5374,0,0,0,0,1,,,,,,,,,,,,,,,,,,,,,,,,,,,,,,,,,,
296323,2022-11-27_18h43.35.881,vts_reward_expectancy_bt,2022.2.4,MacIntel,60.0024001,Chrome,1440,900,,,,,,,,,,,,,,,,,,,,,,,D,146,star,1,0,,,2,,,,,,j,0.6321,1,0,1,0,1,,,,,,,,,,,,,,,,,,,,,,,,,,,,,,,,,,
296323,2022-11-27_18h43.35.881,vts_reward_expectancy_bt,2022.2.4,MacIntel,60.0024001,Chrome,1440,900,,,,,,,,,,,,,,,,,,,,,,,F,160,circle,1,0,,,2,,,,,,k,0.78,2,0,2,0,1,,,,,,,,,,,,,,,,,,,,,,,,,,,,,,,,,,
296323,2022-11-27_18h43.35.881,vts_reward_expectancy_bt,2022.2.4,MacIntel,60.0024001,Chrome,1440,900,,,,,,,,,,,,,,,,,,,,,,,H,174,hexagon,1,0,,,2,,,,,,k,0.6473,3,0,3,0,1,,,,,,,,,,,,,,,,,,,,,,,,,,,,,,,,,,
296323,2022-11-27_18h43.35.881,vts_reward_expectancy_bt,2022.2.4,MacIntel,60.0024001,Chrome,1440,900,,,,,,,,,,,,,,,,,,,,,,,Y,132,triangle,1,0,,,2,,,,,,j,0.6037,4,0,4,0,1,,,,,,,,,,,,,,,,,,,,,,,,,,,,,,,,,,
296323,2022-11-27_18h43.35.881,vts_reward_expectancy_bt,2022.2.4,MacIntel,60.0024001,Chrome,1440,900,,,,,,,,,,,,,,,,,,,,,,,S,181,star,1,0,,,2,,,,,,k,0.5149,5,0,5,0,1,,,,,,,,,,,,,,,,,,,,,,,,,,,,,,,,,,
296323,2022-11-27_18h43.35.881,vts_reward_expectancy_bt,2022.2.4,MacIntel,60.0024001,Chrome,1440,900,,,,,,,,,,,,,,,,,,,,,,,B,125,circle,1,0,,,2,,,,,,j,0.5725,6,0,6,0,1,,,,,,,,,,,,,,,,,,,,,,,,,,,,,,,,,,
296323,2022-11-27_18h43.35.881,vts_reward_expectancy_bt,2022.2.4,MacIntel,60.0024001,Chrome,1440,900,,,,,,,,,,,,,,,,,,,,,,,U,139,hexagon,1,0,,,2,,,,,,j,0.7816,7,0,7,0,1,,,,,,,,,,,,,,,,,,,,,,,,,,,,,,,,,,
296323,2022-11-27_18h43.35.881,vts_reward_expectancy_bt,2022.2.4,MacIntel,60.0024001,Chrome,1440,900,,,,,,,,,,,,,,,,,,,,,,,W,167,triangle,1,0,,,2,,,,,,k,0.7478,8,0,8,0,1,,,,,,,,,,,,,,,,,,,,,,,,,,,,,,,,,,
296323,2022-11-27_18h43.35.881,vts_reward_expectancy_bt,2022.2.4,MacIntel,60.0024001,Chrome,1440,900,,,,,,,,,,,,,,,,,,,,,,,D,146,star,1,0,,,2,,,,,,j,1.0714,9,0,9,0,1,,,,,,,,,,,,,,,,,,,,,,,,,,,,,,,,,,
296323,2022-11-27_18h43.35.881,vts_reward_expectancy_bt,2022.2.4,MacIntel,60.0024001,Chrome,1440,900,,,,,0,666,,,,,,,,,,,,,,,,,S,146,hexagon,1,0,,,3,,,,,,,,,,,,,-1,letter,NA,f,1.9858,vtsPrac,0,0,0,0,1,,,,,,,,,,,,,,,,,,,,,,,
296323,2022-11-27_18h43.35.881,vts_reward_expectancy_bt,2022.2.4,MacIntel,60.0024001,Chrome,1440,900,,,,,0,666,,,,,,,,,,,,,,,,,F,167,star,1,0,,,3,,,,,,,,,,,,,repeat,letter,lettRpt,d,1.0196,vtsPrac,1,0,1,0,1,,,,,,,,,,,,,,,,,,,,,,,
296323,2022-11-27_18h43.35.881,vts_reward_expectancy_bt,2022.2.4,MacIntel,60.0024001,Chrome,1440,900,,,,,0,666,,,,,,,,,,,,,,,,,Y,181,hexagon,1,0,,,3,,,,,,,,,,,,,repeat,letter,lettRpt,f,0.563,vtsPrac,2,0,2,0,1,,,,,,,,,,,,,,,,,,,,,,,
296323,2022-11-27_18h43.35.881,vts_reward_expectancy_bt,2022.2.4,MacIntel,60.0024001,Chrome,1440,900,,,,,0,666,,,,,,,,,,,,,,,,,W,174,star,1,0,,,3,,,,,,,,,,,,,switch,number,numSwt,k,1.2972,vtsPrac,3,0,3,0,1,,,,,,,,,,,,,,,,,,,,,,,
296323,2022-11-27_18h43.35.881,vts_reward_expectancy_bt,2022.2.4,MacIntel,60.0024001,Chrome,1440,900,,,,,0,666,,,,,,,,,,,,,,,,,S,146,star,1,0,,,3,,,,,,,,,,,,,switch,letter,lettSwt,f,0.9304,vtsPrac,4,0,4,0,1,,,,,,,,,,,,,,,,,,,,,,,
296323,2022-11-27_18h43.35.881,vts_reward_expectancy_bt,2022.2.4,MacIntel,60.0024001,Chrome,1440,900,,,,,0,666,,,,,,,,,,,,,,,,,F,167,hexagon,1,0,,,3,,,,,,,,,,,,,switch,number,numSwt,k,0.8805,vtsPrac,5,0,5,0,1,,,,,,,,,,,,,,,,,,,,,,,
296323,2022-11-27_18h43.35.881,vts_reward_expectancy_bt,2022.2.4,MacIntel,60.0024001,Chrome,1440,900,,,,,0,666,,,,,,,,,,,,,,,,,Y,181,circle,1,0,,,3,,,,,,,,,,,,,repeat,number,numRpt,k,0.5141,vtsPrac,6,0,6,0,1,,,,,,,,,,,,,,,,,,,,,,,
296323,2022-11-27_18h43.35.881,vts_reward_expectancy_bt,2022.2.4,MacIntel,60.0024001,Chrome,1440,900,,,,,0,666,,,,,,,,,,,,,,,,,W,174,star,1,0,,,3,,,,,,,,,,,,,repeat,number,numRpt,k,0.5817,vtsPrac,7,0,7,0,1,,,,,,,,,,,,,,,,,,,,,,,
296323,2022-11-27_18h43.35.881,vts_reward_expectancy_bt,2022.2.4,MacIntel,60.0024001,Chrome,1440,900,,,,,0,666,,,,,,,,,,,,,,,,,D,174,hexagon,1,0,,,3,,,,,,,,,,,,,repeat,number,numRpt,k,0.6015,vtsPrac,8,0,8,0,1,,,,,,,,,,,,,,,,,,,,,,,
296323,2022-11-27_18h43.35.881,vts_reward_expectancy_bt,2022.2.4,MacIntel,60.0024001,Chrome,1440,900,,,,,0,666,,,,,,,,,,,,,,,,,U,125,triangle,1,0,,,3,,,,,,,,,,,,,repeat,number,numRpt,j,0.5684,vtsPrac,9,0,9,0,1,,,,,,,,,,,,,,,,,,,,,,,
296323,2022-11-27_18h43.35.881,vts_reward_expectancy_bt,2022.2.4,MacIntel,60.0024001,Chrome,1440,900,,,,,0,666,,,,,,,,,,,,,,,,,S,132,star,1,0,,,3,,,,,,,,,,,,,switch,letter,lettSwt,f,0.7123,vtsPrac,10,0,10,0,1,,,,,,,,,,,,,,,,,,,,,,,
296323,2022-11-27_18h43.35.881,vts_reward_expectancy_bt,2022.2.4,MacIntel,60.0024001,Chrome,1440,900,,,,,0,666,,,,,,,,,,,,,,,,,W,139,triangle,1,0,,,3,,,,,,,,,,,,,repeat,letter,lettRpt,f,0.8543,vtsPrac,11,0,11,0,1,,,,,,,,,,,,,,,,,,,,,,,
296323,2022-11-27_18h43.35.881,vts_reward_expectancy_bt,2022.2.4,MacIntel,60.0024001,Chrome,1440,900,,,,,0,666,,,,,,,,,,,,,,,,,S,146,star,1,0,,,3,,,,,,,,,,,,,switch,number,numSwt,j,0.7844,vtsPrac,12,0,12,0,1,,,,,,,,,,,,,,,,,,,,,,,
296323,2022-11-27_18h43.35.881,vts_reward_expectancy_bt,2022.2.4,MacIntel,60.0024001,Chrome,1440,900,,,,,0,666,,,,,,,,,,,,,,,,,W,125,circle,1,0,,,3,,,,,,,,,,,,,switch,letter,lettSwt,f,0.5836,vtsPrac,13,0,13,0,1,,,,,,,,,,,,,,,,,,,,,,,
296323,2022-11-27_18h43.35.881,vts_reward_expectancy_bt,2022.2.4,MacIntel,60.0024001,Chrome,1440,900,,,,,0,666,,,,,,,,,,,,,,,,,Y,181,circle,1,0,,,3,,,,,,,,,,,,,repeat,letter,lettRpt,f,0.7205,vtsPrac,14,0,14,0,1,,,,,,,,,,,,,,,,,,,,,,,
296323,2022-11-27_18h43.35.881,vts_reward_expectancy_bt,2022.2.4,MacIntel,60.0024001,Chrome,1440,900,,,,,0,666,,,,,,,,,,,,,,,,,U,160,triangle,1,0,,,3,,,,,,,,,,,,,repeat,letter,lettRpt,f,0.7087,vtsPrac,15,0,15,0,1,,,,,,,,,,,,,,,,,,,,,,,
296323,2022-11-27_18h43.35.881,vts_reward_expectancy_bt,2022.2.4,MacIntel,60.0024001,Chrome,1440,900,,,,,0,666,,,,,,,,,,,,,,,,,Y,160,circle,1,0,,,3,,,,,,,,,,,,,repeat,letter,lettRpt,f,0.4491,vtsPrac,16,0,16,0,1,,,,,,,,,,,,,,,,,,,,,,,
296323,2022-11-27_18h43.35.881,vts_reward_expectancy_bt,2022.2.4,MacIntel,60.0024001,Chrome,1440,900,,,,,0,666,,,,,,,,,,,,,,,,,U,167,hexagon,1,0,,,3,,,,,,,,,,,,,switch,number,numSwt,k,0.7157,vtsPrac,17,0,17,0,1,,,,,,,,,,,,,,,,,,,,,,,
296323,2022-11-27_18h43.35.881,vts_reward_expectancy_bt,2022.2.4,MacIntel,60.0024001,Chrome,1440,900,,,,,0,666,,,,,,,,,,,,,,,,,B,139,hexagon,1,0,,,3,,,,,,,,,,,,,repeat,number,numRpt,j,0.7649,vtsPrac,18,0,18,0,1,,,,,,,,,,,,,,,,,,,,,,,
296323,2022-11-27_18h43.35.881,vts_reward_expectancy_bt,2022.2.4,MacIntel,60.0024001,Chrome,1440,900,,,,,0,666,,,,,,,,,,,,,,,,,S,181,star,1,0,,,3,,,,,,,,,,,,,repeat,number,numRpt,k,0.5972,vtsPrac,19,0,19,0,1,,,,,,,,,,,,,,,,,,,,,,,
296323,2022-11-27_18h43.35.881,vts_reward_expectancy_bt,2022.2.4,MacIntel,60.0024001,Chrome,1440,900,,,,,0,666,,,,,,,,,,,,,,,,,U,132,star,1,0,,,3,,,,,,,,,,,,,repeat,number,numRpt,j,0.6811,vtsPrac,20,0,20,0,1,,,,,,,,,,,,,,,,,,,,,,,
296323,2022-11-27_18h43.35.881,vts_reward_expectancy_bt,2022.2.4,MacIntel,60.0024001,Chrome,1440,900,,,,,0,666,,,,,,,,,,,,,,,,,B,139,triangle,1,0,,,3,,,,,,,,,,,,,repeat,number,numRpt,j,0.8634,vtsPrac,21,0,21,0,1,,,,,,,,,,,,,,,,,,,,,,,
296323,2022-11-27_18h43.35.881,vts_reward_expectancy_bt,2022.2.4,MacIntel,60.0024001,Chrome,1440,900,,,,,0,666,,,,,,,,,,,,,,,,,D,174,circle,1,0,,,3,,,,,,,,,,,,,switch,letter,lettSwt,d,0.6814,vtsPrac,22,0,22,0,1,,,,,,,,,,,,,,,,,,,,,,,
296323,2022-11-27_18h43.35.881,vts_reward_expectancy_bt,2022.2.4,MacIntel,60.0024001,Chrome,1440,900,,,,,0,666,,,,,,,,,,,,,,,,,S,181,star,1,0,,,3,,,,,,,,,,,,,repeat,letter,lettRpt,f,0.9801,vtsPrac,23,0,23,0,1,,,,,,,,,,,,,,,,,,,,,,,
296323,2022-11-27_18h43.35.881,vts_reward_expectancy_bt,2022.2.4,MacIntel,60.0024001,Chrome,1440,900,,,,,0,666,,,,,,,,,,,,,,,,,B,160,hexagon,1,0,,,3,,,,,,,,,,,,,switch,number,numSwt,k,1.6366,vtsPrac,24,0,24,0,1,,,,,,,,,,,,,,,,,,,,,,,
296323,2022-11-27_18h43.35.881,vts_reward_expectancy_bt,2022.2.4,MacIntel,60.0024001,Chrome,1440,900,,,,,0,666,,,,,,,,,,,,,,,,,H,139,triangle,1,0,,,3,,,,,,,,,,,,,switch,letter,lettSwt,d,0.9813,vtsPrac,25,0,25,0,1,,,,,,,,,,,,,,,,,,,,,,,
296323,2022-11-27_18h43.35.881,vts_reward_expectancy_bt,2022.2.4,MacIntel,60.0024001,Chrome,1440,900,,,,,0,666,,,,,,,,,,,,,,,,,Y,174,star,1,0,,,3,,,,,,,,,,,,,switch,number,numSwt,k,0.8468,vtsPrac,26,0,26,0,1,,,,,,,,,,,,,,,,,,,,,,,
296323,2022-11-27_18h43.35.881,vts_reward_expectancy_bt,2022.2.4,MacIntel,60.0024001,Chrome,1440,900,,,,,0,666,,,,,,,,,,,,,,,,,U,132,triangle,1,0,,,3,,,,,,,,,,,,,switch,letter,lettSwt,f,0.6474,vtsPrac,27,0,27,0,1,,,,,,,,,,,,,,,,,,,,,,,
296323,2022-11-27_18h43.35.881,vts_reward_expectancy_bt,2022.2.4,MacIntel,60.0024001,Chrome,1440,900,,,,,0,666,,,,,,,,,,,,,,,,,S,125,hexagon,1,0,,,3,,,,,,,,,,,,,repeat,letter,lettRpt,f,1.3215,vtsPrac,28,0,28,0,1,,,,,,,,,,,,,,,,,,,,,,,
296323,2022-11-27_18h43.35.881,vts_reward_expectancy_bt,2022.2.4,MacIntel,60.0024001,Chrome,1440,900,,,,,0,666,,,,,,,,,,,,,,,,,W,132,star,1,0,,,3,,,,,,,,,,,,,switch,number,numSwt,j,1.169,vtsPrac,29,0,29,0,1,,,,,,,,,,,,,,,,,,,,,,,
296323,2022-11-27_18h43.35.881,vts_reward_expectancy_bt,2022.2.4,MacIntel,60.0024001,Chrome,1440,900,,,,,0,666,,,,,,,,,,,,,,,,,D,174,circle,1,0,,,3,,,,,,,,,,,,,switch,letter,lettSwt,d,0.6808,vtsPrac,30,0,30,0,1,,,,,,,,,,,,,,,,,,,,,,,
296323,2022-11-27_18h43.35.881,vts_reward_expectancy_bt,2022.2.4,MacIntel,60.0024001,Chrome,1440,900,,,,,0,666,,,,,,,,,,,,,,,,,U,160,star,1,0,,,3,,,,,,,,,,,,,repeat,letter,lettRpt,f,0.9648,vtsPrac,31,0,31,0,1,,,,,,,,,,,,,,,,,,,,,,,
296323,2022-11-27_18h43.35.881,vts_reward_expectancy_bt,2022.2.4,MacIntel,60.0024001,Chrome,1440,900,,,,,,,,,,,,,,,,,,,,,,,,,,,,,,,,,,,,,,,,,,,,,,,,,,,,,,,,,,,,,,,,,,,,,,,,,,,,
296323,2022-11-27_18h43.35.881,vts_reward_expectancy_bt,2022.2.4,MacIntel,60.0024001,Chrome,1440,900,,,,,,,,,,,,,,,,,,,,,,,,,,,,,,,,,,,,,,,,,,,,,,,,,,,,,,,,,,,,,,,,,,,,,,,,,,,,
296323,2022-11-27_18h43.35.881,vts_reward_expectancy_bt,2022.2.4,MacIntel,60.0024001,Chrome,1440,900,,,,,0,666,,,,,,,,,,,,,,,,,W,174,circle,1,0,,,,,,,,,,,,,,,,repeat,letter,lettRpt,f,0.5666,noRew,,,,,,0,0,0,0,0,1,,,,,,,,,,,,,,,,,
296323,2022-11-27_18h43.35.881,vts_reward_expectancy_bt,2022.2.4,MacIntel,60.0024001,Chrome,1440,900,,,,,0,666,,,,,,,,,,,,,,,,,D,181,star,1,0,,,,,,,,,,,,,,,,repeat,letter,lettRpt,d,0.7478,noRew,,,,,,0,1,0,1,0,1,,,,,,,,,,,,,,,,,
296323,2022-11-27_18h43.35.881,vts_reward_expectancy_bt,2022.2.4,MacIntel,60.0024001,Chrome,1440,900,,,,,0,666,,,,,,,,,,,,,,,,,H,132,circle,1,0,,,,,,,,,,,,,,,,repeat,letter,lettRpt,d,0.8526,noRew,,,,,,0,2,0,2,0,1,,,,,,,,,,,,,,,,,
296323,2022-11-27_18h43.35.881,vts_reward_expectancy_bt,2022.2.4,MacIntel,60.0024001,Chrome,1440,900,,,,,0,666,,,,,,,,,,,,,,,,,F,146,star,1,0,,,,,,,,,,,,,,,,repeat,letter,lettRpt,d,0.7969,noRew,,,,,,0,3,0,3,0,1,,,,,,,,,,,,,,,,,
296323,2022-11-27_18h43.35.881,vts_reward_expectancy_bt,2022.2.4,MacIntel,60.0024001,Chrome,1440,900,,,,,0,666,,,,,,,,,,,,,,,,,W,174,triangle,1,0,,,,,,,,,,,,,,,,repeat,letter,lettRpt,f,0.6636,noRew,,,,,,0,4,0,4,0,1,,,,,,,,,,,,,,,,,
296323,2022-11-27_18h43.35.881,vts_reward_expectancy_bt,2022.2.4,MacIntel,60.0024001,Chrome,1440,900,,,,,0,666,,,,,,,,,,,,,,,,,D,181,circle,1,0,,,,,,,,,,,,,,,,switch,number,numSwt,k,0.9032,noRew,,,,,,0,5,0,5,0,1,,,,,,,,,,,,,,,,,
296323,2022-11-27_18h43.35.881,vts_reward_expectancy_bt,2022.2.4,MacIntel,60.0024001,Chrome,1440,900,,,,,0,666,,,,,,,,,,,,,,,,,H,132,circle,1,0,,,,,,,,,,,,,,,,repeat,number,numRpt,j,0.5301,noRew,,,,,,0,6,0,6,0,1,,,,,,,,,,,,,,,,,
296323,2022-11-27_18h43.35.881,vts_reward_expectancy_bt,2022.2.4,MacIntel,60.0024001,Chrome,1440,900,,,,,0,666,,,,,,,,,,,,,,,,,F,146,star,1,0,,,,,,,,,,,,,,,,repeat,number,numRpt,j,0.9646,noRew,,,,,,0,7,0,7,0,1,,,,,,,,,,,,,,,,,
296323,2022-11-27_18h43.35.881,vts_reward_expectancy_bt,2022.2.4,MacIntel,60.0024001,Chrome,1440,900,,,,,0,666,,,,,,,,,,,,,,,,,F,125,hexagon,1,0,,,,,,,,,,,,,,,,switch,letter,lettSwt,d,0.6378,noRew,,,,,,0,8,0,8,0,1,,,,,,,,,,,,,,,,,
296323,2022-11-27_18h43.35.881,vts_reward_expectancy_bt,2022.2.4,MacIntel,60.0024001,Chrome,1440,900,,,,,0,666,,,,,,,,,,,,,,,,,U,146,star,1,0,,,,,,,,,,,,,,,,switch,number,numSwt,j,1.2876,noRew,,,,,,0,9,0,9,0,1,,,,,,,,,,,,,,,,,
296323,2022-11-27_18h43.35.881,vts_reward_expectancy_bt,2022.2.4,MacIntel,60.0024001,Chrome,1440,900,,,,,0,666,,,,,,,,,,,,,,,,,B,181,star,1,0,,,,,,,,,,,,,,,,switch,letter,lettSwt,d,0.647,noRew,,,,,,0,10,0,10,0,1,,,,,,,,,,,,,,,,,
296323,2022-11-27_18h43.35.881,vts_reward_expectancy_bt,2022.2.4,MacIntel,60.0024001,Chrome,1440,900,,,,,0,666,,,,,,,,,,,,,,,,,D,139,circle,1,0,,,,,,,,,,,,,,,,switch,number,numSwt,j,1.1314,noRew,,,,,,0,11,0,11,0,1,,,,,,,,,,,,,,,,,
296323,2022-11-27_18h43.35.881,vts_reward_expectancy_bt,2022.2.4,MacIntel,60.0024001,Chrome,1440,900,,,,,0,666,,,,,,,,,,,,,,,,,U,174,circle,1,0,,,,,,,,,,,,,,,,repeat,number,numRpt,k,0.5804,noRew,,,,,,0,12,0,12,0,1,,,,,,,,,,,,,,,,,
296323,2022-11-27_18h43.35.881,vts_reward_expectancy_bt,2022.2.4,MacIntel,60.0024001,Chrome,1440,900,,,,,0,666,,,,,,,,,,,,,,,,,F,139,triangle,1,0,,,,,,,,,,,,,,,,repeat,number,numRpt,j,0.7504,noRew,,,,,,0,13,0,13,0,1,,,,,,,,,,,,,,,,,
296323,2022-11-27_18h43.35.881,vts_reward_expectancy_bt,2022.2.4,MacIntel,60.0024001,Chrome,1440,900,,,,,0,666,,,,,,,,,,,,,,,,,H,132,circle,1,0,,,,,,,,,,,,,,,,switch,letter,lettSwt,d,0.6309,noRew,,,,,,0,14,0,14,0,1,,,,,,,,,,,,,,,,,
296323,2022-11-27_18h43.35.881,vts_reward_expectancy_bt,2022.2.4,MacIntel,60.0024001,Chrome,1440,900,,,,,0,666,,,,,,,,,,,,,,,,,S,181,triangle,1,0,,,,,,,,,,,,,,,,switch,number,numSwt,k,0.7306,noRew,,,,,,0,15,0,15,0,1,,,,,,,,,,,,,,,,,
296323,2022-11-27_18h43.35.881,vts_reward_expectancy_bt,2022.2.4,MacIntel,60.0024001,Chrome,1440,900,,,,,0,666,,,,,,,,,,,,,,,,,W,132,star,1,0,,,,,,,,,,,,,,,,switch,letter,lettSwt,f,0.7645,noRew,,,,,,0,16,0,16,0,1,,,,,,,,,,,,,,,,,
296323,2022-11-27_18h43.35.881,vts_reward_expectancy_bt,2022.2.4,MacIntel,60.0024001,Chrome,1440,900,,,,,0,666,,,,,,,,,,,,,,,,,B,174,hexagon,1,0,,,,,,,,,,,,,,,,repeat,letter,lettRpt,d,0.5153,noRew,,,,,,0,17,0,17,0,1,,,,,,,,,,,,,,,,,
296323,2022-11-27_18h43.35.881,vts_reward_expectancy_bt,2022.2.4,MacIntel,60.0024001,Chrome,1440,900,,,,,0,666,,,,,,,,,,,,,,,,,H,181,hexagon,1,0,,,,,,,,,,,,,,,,repeat,letter,lettRpt,d,1.6669,noRew,,,,,,0,18,0,18,0,1,,,,,,,,,,,,,,,,,
296323,2022-11-27_18h43.35.881,vts_reward_expectancy_bt,2022.2.4,MacIntel,60.0024001,Chrome,1440,900,,,,,0,666,,,,,,,,,,,,,,,,,S,146,circle,1,0,,,,,,,,,,,,,,,,switch,number,numSwt,j,1.2139,noRew,,,,,,0,19,0,19,0,1,,,,,,,,,,,,,,,,,
296323,2022-11-27_18h43.35.881,vts_reward_expectancy_bt,2022.2.4,MacIntel,60.0024001,Chrome,1440,900,,,,,0,666,,,,,,,,,,,,,,,,,U,139,circle,1,0,,,,,,,,,,,,,,,,repeat,number,numRpt,j,0.6814,noRew,,,,,,0,20,0,20,0,1,,,,,,,,,,,,,,,,,
296323,2022-11-27_18h43.35.881,vts_reward_expectancy_bt,2022.2.4,MacIntel,60.0024001,Chrome,1440,900,,,,,0,666,,,,,,,,,,,,,,,,,H,174,triangle,1,0,,,,,,,,,,,,,,,,switch,letter,lettSwt,d,0.6362,noRew,,,,,,0,21,0,21,0,1,,,,,,,,,,,,,,,,,
296323,2022-11-27_18h43.35.881,vts_reward_expectancy_bt,2022.2.4,MacIntel,60.0024001,Chrome,1440,900,,,,,0,666,,,,,,,,,,,,,,,,,F,146,hexagon,1,0,,,,,,,,,,,,,,,,repeat,letter,lettRpt,d,0.7699,noRew,,,,,,0,22,0,22,0,1,,,,,,,,,,,,,,,,,
296323,2022-11-27_18h43.35.881,vts_reward_expectancy_bt,2022.2.4,MacIntel,60.0024001,Chrome,1440,900,,,,,0,666,,,,,,,,,,,,,,,,,D,167,triangle,1,0,,,,,,,,,,,,,,,,switch,number,numSwt,k,0.9715,noRew,,,,,,0,23,0,23,0,1,,,,,,,,,,,,,,,,,
296323,2022-11-27_18h43.35.881,vts_reward_expectancy_bt,2022.2.4,MacIntel,60.0024001,Chrome,1440,900,,,,,0,666,,,,,,,,,,,,,,,,,D,174,circle,1,0,,,,,,,,,,,,,,,,repeat,number,numRpt,k,0.6491,noRew,,,,,,0,24,0,24,0,1,,,,,,,,,,,,,,,,,
296323,2022-11-27_18h43.35.881,vts_reward_expectancy_bt,2022.2.4,MacIntel,60.0024001,Chrome,1440,900,,,,,0,666,,,,,,,,,,,,,,,,,F,139,hexagon,1,0,,,,,,,,,,,,,,,,repeat,number,numRpt,j,0.9646,noRew,,,,,,0,25,0,25,0,1,,,,,,,,,,,,,,,,,
296323,2022-11-27_18h43.35.881,vts_reward_expectancy_bt,2022.2.4,MacIntel,60.0024001,Chrome,1440,900,,,,,0,666,,,,,,,,,,,,,,,,,W,146,circle,1,0,,,,,,,,,,,,,,,,repeat,number,numRpt,j,0.7308,noRew,,,,,,0,26,0,26,0,1,,,,,,,,,,,,,,,,,
296323,2022-11-27_18h43.35.881,vts_reward_expectancy_bt,2022.2.4,MacIntel,60.0024001,Chrome,1440,900,,,,,0,666,,,,,,,,,,,,,,,,,H,125,hexagon,1,0,,,,,,,,,,,,,,,,switch,letter,lettSwt,d,0.5278,noRew,,,,,,0,27,0,27,0,1,,,,,,,,,,,,,,,,,
296323,2022-11-27_18h43.35.881,vts_reward_expectancy_bt,2022.2.4,MacIntel,60.0024001,Chrome,1440,900,,,,,0,666,,,,,,,,,,,,,,,,,U,139,star,1,0,,,,,,,,,,,,,,,,repeat,letter,lettRpt,f,0.6316,noRew,,,,,,0,28,0,28,0,1,,,,,,,,,,,,,,,,,
296323,2022-11-27_18h43.35.881,vts_reward_expectancy_bt,2022.2.4,MacIntel,60.0024001,Chrome,1440,900,,,,,0,666,,,,,,,,,,,,,,,,,H,167,triangle,1,0,,,,,,,,,,,,,,,,repeat,letter,lettRpt,d,0.6149,noRew,,,,,,0,29,0,29,0,1,,,,,,,,,,,,,,,,,
296323,2022-11-27_18h43.35.881,vts_reward_expectancy_bt,2022.2.4,MacIntel,60.0024001,Chrome,1440,900,,,,,0,666,,,,,,,,,,,,,,,,,F,181,triangle,1,0,,,,,,,,,,,,,,,,repeat,letter,lettRpt,d,0.5648,noRew,,,,,,0,30,0,30,0,1,,,,,,,,,,,,,,,,,
296323,2022-11-27_18h43.35.881,vts_reward_expectancy_bt,2022.2.4,MacIntel,60.0024001,Chrome,1440,900,,,,,0,666,,,,,,,,,,,,,,,,,D,132,star,1,0,,,,,,,,,,,,,,,,repeat,letter,lettRpt,d,0.616,noRew,,,,,,0,31,0,31,0,1,,,,,,,,,,,,,,,,,
296323,2022-11-27_18h43.35.881,vts_reward_expectancy_bt,2022.2.4,MacIntel,60.0024001,Chrome,1440,900,,,,,0,666,,,,,,,,,,,,,,,,,H,174,triangle,1,0,,,,,,,,,,,,,,,,repeat,letter,lettRpt,d,0.5969,noRew,,,,,,0,32,0,32,0,1,,,,,,,,,,,,,,,,,
296323,2022-11-27_18h43.35.881,vts_reward_expectancy_bt,2022.2.4,MacIntel,60.0024001,Chrome,1440,900,,,,,0,666,,,,,,,,,,,,,,,,,B,146,circle,1,0,,,,,,,,,,,,,,,,repeat,letter,lettRpt,d,0.8837,noRew,,,,,,0,33,0,33,0,1,,,,,,,,,,,,,,,,,
296323,2022-11-27_18h43.35.881,vts_reward_expectancy_bt,2022.2.4,MacIntel,60.0024001,Chrome,1440,900,,,,,0,666,,,,,,,,,,,,,,,,,F,125,star,1,0,,,,,,,,,,,,,,,,switch,number,numSwt,j,0.6796,noRew,,,,,,0,34,0,34,0,1,,,,,,,,,,,,,,,,,
296323,2022-11-27_18h43.35.881,vts_reward_expectancy_bt,2022.2.4,MacIntel,60.0024001,Chrome,1440,900,,,,,0,666,,,,,,,,,,,,,,,,,S,167,hexagon,1,0,,,,,,,,,,,,,,,,repeat,number,numRpt,k,0.6172,noRew,,,,,,0,35,0,35,0,1,,,,,,,,,,,,,,,,,
296323,2022-11-27_18h43.35.881,vts_reward_expectancy_bt,2022.2.4,MacIntel,60.0024001,Chrome,1440,900,,,,,0,666,,,,,,,,,,,,,,,,,U,167,triangle,1,0,,,,,,,,,,,,,,,,repeat,number,numRpt,k,0.7838,noRew,,,,,,0,36,0,36,0,1,,,,,,,,,,,,,,,,,
296323,2022-11-27_18h43.35.881,vts_reward_expectancy_bt,2022.2.4,MacIntel,60.0024001,Chrome,1440,900,,,,,0,666,,,,,,,,,,,,,,,,,F,160,circle,1,0,,,,,,,,,,,,,,,,switch,letter,lettSwt,d,0.6986,noRew,,,,,,0,37,0,37,0,1,,,,,,,,,,,,,,,,,
296323,2022-11-27_18h43.35.881,vts_reward_expectancy_bt,2022.2.4,MacIntel,60.0024001,Chrome,1440,900,,,,,0,666,,,,,,,,,,,,,,,,,D,125,star,1,0,,,,,,,,,,,,,,,,repeat,letter,lettRpt,d,1.1166,noRew,,,,,,0,38,0,38,0,1,,,,,,,,,,,,,,,,,
296323,2022-11-27_18h43.35.881,vts_reward_expectancy_bt,2022.2.4,MacIntel,60.0024001,Chrome,1440,900,,,,,0,666,,,,,,,,,,,,,,,,,B,146,circle,1,0,,,,,,,,,,,,,,,,repeat,letter,lettRpt,d,0.6307,noRew,,,,,,0,39,0,39,0,1,,,,,,,,,,,,,,,,,
296323,2022-11-27_18h43.35.881,vts_reward_expectancy_bt,2022.2.4,MacIntel,60.0024001,Chrome,1440,900,,,,,0,666,,,,,,,,,,,,,,,,,U,125,star,1,0,,,,,,,,,,,,,,,,repeat,letter,lettRpt,f,0.864,noRew,,,,,,0,40,0,40,0,1,,,,,,,,,,,,,,,,,
296323,2022-11-27_18h43.35.881,vts_reward_expectancy_bt,2022.2.4,MacIntel,60.0024001,Chrome,1440,900,,,,,0,666,,,,,,,,,,,,,,,,,S,139,hexagon,1,0,,,,,,,,,,,,,,,,repeat,letter,lettRpt,f,0.947,noRew,,,,,,0,41,0,41,0,1,,,,,,,,,,,,,,,,,
296323,2022-11-27_18h43.35.881,vts_reward_expectancy_bt,2022.2.4,MacIntel,60.0024001,Chrome,1440,900,,,,,0,666,,,,,,,,,,,,,,,,,H,181,hexagon,1,0,,,,,,,,,,,,,,,,repeat,letter,lettRpt,d,1.9148,noRew,,,,,,0,42,0,42,0,1,,,,,,,,,,,,,,,,,
296323,2022-11-27_18h43.35.881,vts_reward_expectancy_bt,2022.2.4,MacIntel,60.0024001,Chrome,1440,900,,,,,0,666,,,,,,,,,,,,,,,,,Y,132,star,1,0,,,,,,,,,,,,,,,,repeat,letter,lettRpt,f,0.7299,noRew,,,,,,0,43,0,43,0,1,,,,,,,,,,,,,,,,,
296323,2022-11-27_18h43.35.881,vts_reward_expectancy_bt,2022.2.4,MacIntel,60.0024001,Chrome,1440,900,,,,,0,666,,,,,,,,,,,,,,,,,D,167,hexagon,1,0,,,,,,,,,,,,,,,,switch,number,numSwt,k,0.6533,noRew,,,,,,0,44,0,44,0,1,,,,,,,,,,,,,,,,,
296323,2022-11-27_18h43.35.881,vts_reward_expectancy_bt,2022.2.4,MacIntel,60.0024001,Chrome,1440,900,,,,,0,666,,,,,,,,,,,,,,,,,B,125,triangle,1,0,,,,,,,,,,,,,,,,repeat,number,numRpt,j,0.5641,noRew,,,,,,0,45,0,45,0,1,,,,,,,,,,,,,,,,,
296323,2022-11-27_18h43.35.881,vts_reward_expectancy_bt,2022.2.4,MacIntel,60.0024001,Chrome,1440,900,,,,,0,666,,,,,,,,,,,,,,,,,F,139,star,1,0,,,,,,,,,,,,,,,,switch,letter,lettSwt,d,0.7823,noRew,,,,,,0,46,0,46,0,1,,,,,,,,,,,,,,,,,
296323,2022-11-27_18h43.35.881,vts_reward_expectancy_bt,2022.2.4,MacIntel,60.0024001,Chrome,1440,900,,,,,0,666,,,,,,,,,,,,,,,,,U,146,triangle,1,0,,,,,,,,,,,,,,,,switch,number,numSwt,j,1.2636,noRew,,,,,,0,47,0,47,0,1,,,,,,,,,,,,,,,,,
296323,2022-11-27_18h43.35.881,vts_reward_expectancy_bt,2022.2.4,MacIntel,60.0024001,Chrome,1440,900,,,,,0,666,,,,,,,,,,,,,,,,,B,146,triangle,1,0,,,,,,,,,,,,,,,,switch,letter,lettSwt,d,0.5144,noRew,,,,,,0,48,0,48,0,1,,,,,,,,,,,,,,,,,
296323,2022-11-27_18h43.35.881,vts_reward_expectancy_bt,2022.2.4,MacIntel,60.0024001,Chrome,1440,900,,,,,0,666,,,,,,,,,,,,,,,,,U,125,circle,1,0,,,,,,,,,,,,,,,,repeat,letter,lettRpt,f,0.6669,noRew,,,,,,0,49,0,49,0,1,,,,,,,,,,,,,,,,,
296323,2022-11-27_18h43.35.881,vts_reward_expectancy_bt,2022.2.4,MacIntel,60.0024001,Chrome,1440,900,,,,,0,666,,,,,,,,,,,,,,,,,D,167,star,1,0,,,,,,,,,,,,,,,,switch,number,numSwt,k,0.6195,noRew,,,,,,0,50,0,50,0,1,,,,,,,,,,,,,,,,,
296323,2022-11-27_18h43.35.881,vts_reward_expectancy_bt,2022.2.4,MacIntel,60.0024001,Chrome,1440,900,,,,,0,666,,,,,,,,,,,,,,,,,Y,174,hexagon,1,0,,,,,,,,,,,,,,,,repeat,number,numRpt,k,0.6024,noRew,,,,,,0,51,0,51,0,1,,,,,,,,,,,,,,,,,
296323,2022-11-27_18h43.35.881,vts_reward_expectancy_bt,2022.2.4,MacIntel,60.0024001,Chrome,1440,900,,,,,0,666,,,,,,,,,,,,,,,,,H,125,hexagon,1,0,,,,,,,,,,,,,,,,repeat,number,numRpt,j,0.5842,noRew,,,,,,0,52,0,52,0,1,,,,,,,,,,,,,,,,,
296323,2022-11-27_18h43.35.881,vts_reward_expectancy_bt,2022.2.4,MacIntel,60.0024001,Chrome,1440,900,,,,,0,666,,,,,,,,,,,,,,,,,B,139,triangle,1,0,,,,,,,,,,,,,,,,repeat,number,numRpt,j,0.9647,noRew,,,,,,0,53,0,53,0,1,,,,,,,,,,,,,,,,,
296323,2022-11-27_18h43.35.881,vts_reward_expectancy_bt,2022.2.4,MacIntel,60.0024001,Chrome,1440,900,,,,,0,666,,,,,,,,,,,,,,,,,F,174,triangle,1,0,,,,,,,,,,,,,,,,repeat,number,numRpt,k,0.6479,noRew,,,,,,0,54,0,54,0,1,,,,,,,,,,,,,,,,,
296323,2022-11-27_18h43.35.881,vts_reward_expectancy_bt,2022.2.4,MacIntel,60.0024001,Chrome,1440,900,,,,,0,666,,,,,,,,,,,,,,,,,Y,132,star,1,0,,,,,,,,,,,,,,,,repeat,number,numRpt,j,0.5977,noRew,,,,,,0,55,0,55,0,1,,,,,,,,,,,,,,,,,
296323,2022-11-27_18h43.35.881,vts_reward_expectancy_bt,2022.2.4,MacIntel,60.0024001,Chrome,1440,900,,,,,0,666,,,,,,,,,,,,,,,,,H,125,star,1,0,,,,,,,,,,,,,,,,switch,letter,lettSwt,d,0.6193,noRew,,,,,,0,56,0,56,0,1,,,,,,,,,,,,,,,,,
296323,2022-11-27_18h43.35.881,vts_reward_expectancy_bt,2022.2.4,MacIntel,60.0024001,Chrome,1440,900,,,,,0,666,,,,,,,,,,,,,,,,,U,139,hexagon,1,0,,,,,,,,,,,,,,,,switch,number,numSwt,j,0.8317,noRew,,,,,,0,57,0,57,0,1,,,,,,,,,,,,,,,,,
296323,2022-11-27_18h43.35.881,vts_reward_expectancy_bt,2022.2.4,MacIntel,60.0024001,Chrome,1440,900,,,,,0,666,,,,,,,,,,,,,,,,,D,132,hexagon,1,0,,,,,,,,,,,,,,,,repeat,number,numRpt,j,0.7155,noRew,,,,,,0,58,0,58,0,1,,,,,,,,,,,,,,,,,
296323,2022-11-27_18h43.35.881,vts_reward_expectancy_bt,2022.2.4,MacIntel,60.0024001,Chrome,1440,900,,,,,0,666,,,,,,,,,,,,,,,,,F,146,circle,1,0,,,,,,,,,,,,,,,,switch,letter,lettSwt,d,0.6647,noRew,,,,,,0,59,0,59,0,1,,,,,,,,,,,,,,,,,
296323,2022-11-27_18h43.35.881,vts_reward_expectancy_bt,2022.2.4,MacIntel,60.0024001,Chrome,1440,900,,,,,0,666,,,,,,,,,,,,,,,,,F,181,circle,1,0,,,,,,,,,,,,,,,,repeat,letter,lettRpt,d,0.5494,noRew,,,,,,0,60,0,60,0,1,,,,,,,,,,,,,,,,,
296323,2022-11-27_18h43.35.881,vts_reward_expectancy_bt,2022.2.4,MacIntel,60.0024001,Chrome,1440,900,,,,,0,666,,,,,,,,,,,,,,,,,D,146,hexagon,1,0,,,,,,,,,,,,,,,,switch,number,numSwt,j,1.0032,noRew,,,,,,0,61,0,61,0,1,,,,,,,,,,,,,,,,,
296323,2022-11-27_18h43.35.881,vts_reward_expectancy_bt,2022.2.4,MacIntel,60.0024001,Chrome,1440,900,,,,,0,666,,,,,,,,,,,,,,,,,B,139,hexagon,1,0,,,,,,,,,,,,,,,,switch,letter,lettSwt,d,0.5957,noRew,,,,,,0,62,0,62,0,1,,,,,,,,,,,,,,,,,
296323,2022-11-27_18h43.35.881,vts_reward_expectancy_bt,2022.2.4,MacIntel,60.0024001,Chrome,1440,900,,,,,0,666,,,,,,,,,,,,,,,,,S,174,star,1,0,,,,,,,,,,,,,,,,switch,number,numSwt,k,0.4555,noRew,,,,,,0,63,0,63,0,1,,,,,,,,,,,,,,,,,
296323,2022-11-27_18h43.35.881,vts_reward_expectancy_bt,2022.2.4,MacIntel,60.0024001,Chrome,1440,900,,,,,,,,,,,,,,,,,,,,,,,,,,,,,,,,,,,,,,,,,,,,,,,,,,,,,,,,,,,,,,,,,,,,,,,,,,,,
296323,2022-11-27_18h43.35.881,vts_reward_expectancy_bt,2022.2.4,MacIntel,60.0024001,Chrome,1440,900,,,,,1,667,,,,,,,,,,,,,,,,,W,174,circle,1,0,,,,,,,,,,,,,,,,switch,letter,lettSwt,f,1.1494,Lo,,,,,,0,,,,,,space,8.4898,high,0,0,0,0,1,,,,,,,,,
296323,2022-11-27_18h43.35.881,vts_reward_expectancy_bt,2022.2.4,MacIntel,60.0024001,Chrome,1440,900,,,,,10,677,,,,,,,,,,,,,,,,,B,181,hexagon,1,0,,,,,,,,,,,,,,,,switch,number,numSwt,k,0.5485,Hi,,,,,,0,,,,,,,,high,1,0,1,0,1,,,,,,,,,
296323,2022-11-27_18h43.35.881,vts_reward_expectancy_bt,2022.2.4,MacIntel,60.0024001,Chrome,1440,900,,,,,1,678,,,,,,,,,,,,,,,,,D,139,star,1,0,,,,,,,,,,,,,,,,switch,letter,lettSwt,d,0.5987,Lo,,,,,,0,,,,,,,,high,2,0,2,0,1,,,,,,,,,
296323,2022-11-27_18h43.35.881,vts_reward_expectancy_bt,2022.2.4,MacIntel,60.0024001,Chrome,1440,900,,,,,0,678,,,,,,,,,,,,,,,,,F,125,triangle,0,0,,,,,,,,,,,,,,,,repeat,letter,NA,f,0.7795,Lo,,,,,,0,,,,,,,,high,3,0,3,0,1,,,,,,,,,
296323,2022-11-27_18h43.35.881,vts_reward_expectancy_bt,2022.2.4,MacIntel,60.0024001,Chrome,1440,900,,,,,1,679,,,,,,,,,,,,,,,,,H,160,circle,1,1,,,,,,,,,,,,,,,,repeat,letter,lettRpt,d,0.5808,Lo,,,,,,0,,,,,,,,high,4,0,4,0,1,,,,,,,,,
296323,2022-11-27_18h43.35.881,vts_reward_expectancy_bt,2022.2.4,MacIntel,60.0024001,Chrome,1440,900,,,,,0,679,,,,,,,,,,,,,,,,,Y,146,hexagon,1,0,,,,,,,,,,,,,,,,switch,number,numSwt,j,1.015,Hi,,,,,,0,,,,,,,,high,5,0,5,0,1,,,,,,,,,
296323,2022-11-27_18h43.35.881,vts_reward_expectancy_bt,2022.2.4,MacIntel,60.0024001,Chrome,1440,900,,,,,1,680,,,,,,,,,,,,,,,,,U,132,star,1,0,,,,,,,,,,,,,,,,switch,letter,lettSwt,f,0.5979,Lo,,,,,,0,,,,,,,,high,6,0,6,0,1,,,,,,,,,
296323,2022-11-27_18h43.35.881,vts_reward_expectancy_bt,2022.2.4,MacIntel,60.0024001,Chrome,1440,900,,,,,10,690,,,,,,,,,,,,,,,,,S,167,triangle,1,0,,,,,,,,,,,,,,,,switch,number,numSwt,k,0.6304,Hi,,,,,,0,,,,,,,,high,7,0,7,0,1,,,,,,,,,
296323,2022-11-27_18h43.35.881,vts_reward_expectancy_bt,2022.2.4,MacIntel,60.0024001,Chrome,1440,900,,,,,1,691,,,,,,,,,,,,,,,,,W,174,star,1,0,,,,,,,,,,,,,,,,repeat,number,numRpt,k,0.5804,Lo,,,,,,0,,,,,,,,high,8,0,8,0,1,,,,,,,,,
296323,2022-11-27_18h43.35.881,vts_reward_expectancy_bt,2022.2.4,MacIntel,60.0024001,Chrome,1440,900,,,,,10,701,,,,,,,,,,,,,,,,,B,181,triangle,1,0,,,,,,,,,,,,,,,,repeat,number,numRpt,k,0.5338,Hi,,,,,,0,,,,,,,,high,9,0,9,0,1,,,,,,,,,
296323,2022-11-27_18h43.35.881,vts_reward_expectancy_bt,2022.2.4,MacIntel,60.0024001,Chrome,1440,900,,,,,10,711,,,,,,,,,,,,,,,,,D,139,hexagon,1,0,,,,,,,,,,,,,,,,switch,letter,lettSwt,d,0.548,Hi,,,,,,0,,,,,,,,high,10,0,10,0,1,,,,,,,,,
296323,2022-11-27_18h43.35.881,vts_reward_expectancy_bt,2022.2.4,MacIntel,60.0024001,Chrome,1440,900,,,,,1,712,,,,,,,,,,,,,,,,,F,125,circle,1,0,,,,,,,,,,,,,,,,repeat,letter,lettRpt,d,0.6308,Lo,,,,,,0,,,,,,,,high,11,0,11,0,1,,,,,,,,,
296323,2022-11-27_18h43.35.881,vts_reward_expectancy_bt,2022.2.4,MacIntel,60.0024001,Chrome,1440,900,,,,,10,722,,,,,,,,,,,,,,,,,H,160,hexagon,1,0,,,,,,,,,,,,,,,,switch,number,numSwt,k,0.5473,Hi,,,,,,0,,,,,,,,high,12,0,12,0,1,,,,,,,,,
296323,2022-11-27_18h43.35.881,vts_reward_expectancy_bt,2022.2.4,MacIntel,60.0024001,Chrome,1440,900,,,,,1,723,,,,,,,,,,,,,,,,,Y,146,circle,1,0,,,,,,,,,,,,,,,,repeat,number,numRpt,j,1.0145,Lo,,,,,,0,,,,,,,,high,13,0,13,0,1,,,,,,,,,
296323,2022-11-27_18h43.35.881,vts_reward_expectancy_bt,2022.2.4,MacIntel,60.0024001,Chrome,1440,900,,,,,10,733,,,,,,,,,,,,,,,,,U,132,triangle,1,0,,,,,,,,,,,,,,,,switch,letter,lettSwt,f,0.5809,Hi,,,,,,0,,,,,,,,high,14,0,14,0,1,,,,,,,,,
296323,2022-11-27_18h43.35.881,vts_reward_expectancy_bt,2022.2.4,MacIntel,60.0024001,Chrome,1440,900,,,,,1,734,,,,,,,,,,,,,,,,,S,167,star,1,0,,,,,,,,,,,,,,,,repeat,letter,lettRpt,f,0.8057,Lo,,,,,,0,,,,,,,,high,15,0,15,0,1,,,,,,,,,
296323,2022-11-27_18h43.35.881,vts_reward_expectancy_bt,2022.2.4,MacIntel,60.0024001,Chrome,1440,900,,,,,1,735,,,,,,,,,,,,,,,,,H,167,circle,1,0,,,,,,,,,,,,,,,,repeat,letter,lettRpt,d,0.4382,Lo,,,,,,0,,,,,,,,high,16,0,16,0,1,,,,,,,,,
296323,2022-11-27_18h43.35.881,vts_reward_expectancy_bt,2022.2.4,MacIntel,60.0024001,Chrome,1440,900,,,,,10,745,,,,,,,,,,,,,,,,,W,125,star,1,0,,,,,,,,,,,,,,,,switch,number,numSwt,j,0.8636,Lo,,,,,,0,,,,,,,,high,17,0,17,0,1,,,,,,,,,
296323,2022-11-27_18h43.35.881,vts_reward_expectancy_bt,2022.2.4,MacIntel,60.0024001,Chrome,1440,900,,,,,0,745,,,,,,,,,,,,,,,,,U,181,triangle,1,0,,,,,,,,,,,,,,,,repeat,number,numRpt,k,0.7721,Hi,,,,,,0,,,,,,,,high,18,0,18,0,1,,,,,,,,,
296323,2022-11-27_18h43.35.881,vts_reward_expectancy_bt,2022.2.4,MacIntel,60.0024001,Chrome,1440,900,,,,,10,755,,,,,,,,,,,,,,,,,Y,174,hexagon,1,0,,,,,,,,,,,,,,,,repeat,number,numRpt,k,0.5125,Hi,,,,,,0,,,,,,,,high,19,0,19,0,1,,,,,,,,,
296323,2022-11-27_18h43.35.881,vts_reward_expectancy_bt,2022.2.4,MacIntel,60.0024001,Chrome,1440,900,,,,,0,755,,,,,,,,,,,,,,,,,F,139,star,0,0,,,,,,,,,,,,,,,,repeat,number,NA,k,0.4533,Hi,,,,,,0,,,,,,,,high,20,0,20,0,1,,,,,,,,,
296323,2022-11-27_18h43.35.881,vts_reward_expectancy_bt,2022.2.4,MacIntel,60.0024001,Chrome,1440,900,,,,,1,756,,,,,,,,,,,,,,,,,B,160,circle,1,1,,,,,,,,,,,,,,,,repeat,number,numRpt,k,0.5893,Lo,,,,,,0,,,,,,,,high,21,0,21,0,1,,,,,,,,,
296323,2022-11-27_18h43.35.881,vts_reward_expectancy_bt,2022.2.4,MacIntel,60.0024001,Chrome,1440,900,,,,,0,756,,,,,,,,,,,,,,,,,D,146,triangle,1,0,,,,,,,,,,,,,,,,switch,letter,lettSwt,d,0.8973,Hi,,,,,,0,,,,,,,,high,22,0,22,0,1,,,,,,,,,
296323,2022-11-27_18h43.35.881,vts_reward_expectancy_bt,2022.2.4,MacIntel,60.0024001,Chrome,1440,900,,,,,0,756,,,,,,,,,,,,,,,,,S,132,hexagon,1,0,,,,,,,,,,,,,,,,repeat,letter,lettRpt,f,1.1157,Hi,,,,,,0,,,,,,,,high,23,0,23,0,1,,,,,,,,,
296323,2022-11-27_18h43.35.881,vts_reward_expectancy_bt,2022.2.4,MacIntel,60.0024001,Chrome,1440,900,,,,,10,766,,,,,,,,,,,,,,,,,W,181,triangle,1,0,,,,,,,,,,,,,,,,switch,number,numSwt,k,0.5809,Hi,,,,,,0,,,,,,,,high,24,0,24,0,1,,,,,,,,,
296323,2022-11-27_18h43.35.881,vts_reward_expectancy_bt,2022.2.4,MacIntel,60.0024001,Chrome,1440,900,,,,,10,776,,,,,,,,,,,,,,,,,Y,174,hexagon,1,0,,,,,,,,,,,,,,,,repeat,number,numRpt,k,0.464,Hi,,,,,,0,,,,,,,,high,25,0,25,0,1,,,,,,,,,
296323,2022-11-27_18h43.35.881,vts_reward_expectancy_bt,2022.2.4,MacIntel,60.0024001,Chrome,1440,900,,,,,1,777,,,,,,,,,,,,,,,,,D,139,star,1,0,,,,,,,,,,,,,,,,repeat,number,numRpt,j,0.6706,Lo,,,,,,0,,,,,,,,high,26,0,26,0,1,,,,,,,,,
296323,2022-11-27_18h43.35.881,vts_reward_expectancy_bt,2022.2.4,MacIntel,60.0024001,Chrome,1440,900,,,,,1,778,,,,,,,,,,,,,,,,,H,125,circle,1,0,,,,,,,,,,,,,,,,repeat,number,numRpt,j,0.73,Lo,,,,,,0,,,,,,,,high,27,0,27,0,1,,,,,,,,,
296323,2022-11-27_18h43.35.881,vts_reward_expectancy_bt,2022.2.4,MacIntel,60.0024001,Chrome,1440,900,,,,,0,778,,,,,,,,,,,,,,,,,F,160,triangle,1,0,,,,,,,,,,,,,,,,repeat,number,numRpt,k,1.0314,Hi,,,,,,0,,,,,,,,high,28,0,28,0,1,,,,,,,,,
296323,2022-11-27_18h43.35.881,vts_reward_expectancy_bt,2022.2.4,MacIntel,60.0024001,Chrome,1440,900,,,,,10,788,,,,,,,,,,,,,,,,,B,132,circle,1,0,,,,,,,,,,,,,,,,switch,letter,lettSwt,d,0.4135,Lo,,,,,,0,,,,,,,,high,29,0,29,0,1,,,,,,,,,
296323,2022-11-27_18h43.35.881,vts_reward_expectancy_bt,2022.2.4,MacIntel,60.0024001,Chrome,1440,900,,,,,1,789,,,,,,,,,,,,,,,,,S,167,star,1,0,,,,,,,,,,,,,,,,repeat,letter,lettRpt,f,0.6139,Lo,,,,,,0,,,,,,,,high,30,0,30,0,1,,,,,,,,,
296323,2022-11-27_18h43.35.881,vts_reward_expectancy_bt,2022.2.4,MacIntel,60.0024001,Chrome,1440,900,,,,,0,789,,,,,,,,,,,,,,,,,U,146,hexagon,1,0,,,,,,,,,,,,,,,,repeat,letter,lettRpt,f,0.6531,Hi,,,,,,0,,,,,,,,high,31,0,31,0,1,,,,,,,,,
296323,2022-11-27_18h43.35.881,vts_reward_expectancy_bt,2022.2.4,MacIntel,60.0024001,Chrome,1440,900,,,,,10,799,,,,,,,,,,,,,,,,,F,139,triangle,1,0,,,,,,,,,,,,,,,,repeat,letter,lettRpt,d,0.5967,Hi,,,,,,1,,,,,,space,123.9274,high,0,0,0,0,1,,,,,,,,,
296323,2022-11-27_18h43.35.881,vts_reward_expectancy_bt,2022.2.4,MacIntel,60.0024001,Chrome,1440,900,,,,,10,809,,,,,,,,,,,,,,,,,Y,160,hexagon,1,0,,,,,,,,,,,,,,,,repeat,letter,lettRpt,f,0.581,Hi,,,,,,1,,,,,,,,high,1,0,1,0,1,,,,,,,,,
296323,2022-11-27_18h43.35.881,vts_reward_expectancy_bt,2022.2.4,MacIntel,60.0024001,Chrome,1440,900,,,,,1,810,,,,,,,,,,,,,,,,,U,125,circle,1,0,,,,,,,,,,,,,,,,repeat,letter,lettRpt,f,0.5968,Lo,,,,,,1,,,,,,,,high,2,0,2,0,1,,,,,,,,,
296323,2022-11-27_18h43.35.881,vts_reward_expectancy_bt,2022.2.4,MacIntel,60.0024001,Chrome,1440,900,,,,,1,811,,,,,,,,,,,,,,,,,H,181,star,1,0,,,,,,,,,,,,,,,,repeat,letter,lettRpt,d,0.6361,Lo,,,,,,1,,,,,,,,high,3,0,3,0,1,,,,,,,,,
296323,2022-11-27_18h43.35.881,vts_reward_expectancy_bt,2022.2.4,MacIntel,60.0024001,Chrome,1440,900,,,,,10,821,,,,,,,,,,,,,,,,,W,132,triangle,1,0,,,,,,,,,,,,,,,,repeat,letter,lettRpt,f,0.6037,Hi,,,,,,1,,,,,,,,high,4,0,4,0,1,,,,,,,,,
296323,2022-11-27_18h43.35.881,vts_reward_expectancy_bt,2022.2.4,MacIntel,60.0024001,Chrome,1440,900,,,,,10,831,,,,,,,,,,,,,,,,,S,174,hexagon,1,0,,,,,,,,,,,,,,,,switch,number,numSwt,k,0.4476,Hi,,,,,,1,,,,,,,,high,5,0,5,0,1,,,,,,,,,
296323,2022-11-27_18h43.35.881,vts_reward_expectancy_bt,2022.2.4,MacIntel,60.0024001,Chrome,1440,900,,,,,1,832,,,,,,,,,,,,,,,,,B,167,circle,1,0,,,,,,,,,,,,,,,,repeat,number,numRpt,k,0.4968,Lo,,,,,,1,,,,,,,,high,6,0,6,0,1,,,,,,,,,
296323,2022-11-27_18h43.35.881,vts_reward_expectancy_bt,2022.2.4,MacIntel,60.0024001,Chrome,1440,900,,,,,0,832,,,,,,,,,,,,,,,,,D,146,star,0,0,,,,,,,,,,,,,,,,repeat,number,NA,k,0.7479,Lo,,,,,,1,,,,,,,,high,7,0,7,0,1,,,,,,,,,
296323,2022-11-27_18h43.35.881,vts_reward_expectancy_bt,2022.2.4,MacIntel,60.0024001,Chrome,1440,900,,,,,1,833,,,,,,,,,,,,,,,,,F,139,circle,1,1,,,,,,,,,,,,,,,,switch,letter,lettSwt,d,0.7532,Lo,,,,,,1,,,,,,,,high,8,0,8,0,1,,,,,,,,,
296323,2022-11-27_18h43.35.881,vts_reward_expectancy_bt,2022.2.4,MacIntel,60.0024001,Chrome,1440,900,,,,,1,834,,,,,,,,,,,,,,,,,Y,160,star,1,0,,,,,,,,,,,,,,,,repeat,letter,lettRpt,f,0.6876,Lo,,,,,,1,,,,,,,,high,9,0,9,0,1,,,,,,,,,
296323,2022-11-27_18h43.35.881,vts_reward_expectancy_bt,2022.2.4,MacIntel,60.0024001,Chrome,1440,900,,,,,0,834,,,,,,,,,,,,,,,,,U,125,triangle,1,0,,,,,,,,,,,,,,,,repeat,letter,lettRpt,f,0.6142,Hi,,,,,,1,,,,,,,,high,10,0,10,0,1,,,,,,,,,
296323,2022-11-27_18h43.35.881,vts_reward_expectancy_bt,2022.2.4,MacIntel,60.0024001,Chrome,1440,900,,,,,0,834,,,,,,,,,,,,,,,,,H,181,hexagon,1,0,,,,,,,,,,,,,,,,switch,number,numSwt,k,0.63,Hi,,,,,,1,,,,,,,,high,11,0,11,0,1,,,,,,,,,
296323,2022-11-27_18h43.35.881,vts_reward_expectancy_bt,2022.2.4,MacIntel,60.0024001,Chrome,1440,900,,,,,10,844,,,,,,,,,,,,,,,,,W,132,triangle,1,0,,,,,,,,,,,,,,,,switch,letter,lettSwt,f,0.4973,Hi,,,,,,1,,,,,,,,high,12,0,12,0,1,,,,,,,,,
296323,2022-11-27_18h43.35.881,vts_reward_expectancy_bt,2022.2.4,MacIntel,60.0024001,Chrome,1440,900,,,,,1,845,,,,,,,,,,,,,,,,,S,174,circle,1,0,,,,,,,,,,,,,,,,switch,number,numSwt,k,0.4968,Lo,,,,,,1,,,,,,,,high,13,0,13,0,1,,,,,,,,,
296323,2022-11-27_18h43.35.881,vts_reward_expectancy_bt,2022.2.4,MacIntel,60.0024001,Chrome,1440,900,,,,,10,855,,,,,,,,,,,,,,,,,B,167,hexagon,1,0,,,,,,,,,,,,,,,,repeat,number,numRpt,k,0.469,Hi,,,,,,1,,,,,,,,high,14,0,14,0,1,,,,,,,,,
296323,2022-11-27_18h43.35.881,vts_reward_expectancy_bt,2022.2.4,MacIntel,60.0024001,Chrome,1440,900,,,,,1,856,,,,,,,,,,,,,,,,,D,146,star,1,0,,,,,,,,,,,,,,,,repeat,number,numRpt,j,0.7811,Lo,,,,,,1,,,,,,,,high,15,0,15,0,1,,,,,,,,,
296323,2022-11-27_18h43.35.881,vts_reward_expectancy_bt,2022.2.4,MacIntel,60.0024001,Chrome,1440,900,,,,,10,866,,,,,,,,,,,,,,,,,D,174,triangle,1,0,,,,,,,,,,,,,,,,switch,letter,lettSwt,d,0.5657,Hi,,,,,,1,,,,,,,,high,16,0,16,0,1,,,,,,,,,
296323,2022-11-27_18h43.35.881,vts_reward_expectancy_bt,2022.2.4,MacIntel,60.0024001,Chrome,1440,900,,,,,1,867,,,,,,,,,,,,,,,,,W,160,star,1,0,,,,,,,,,,,,,,,,repeat,letter,lettRpt,f,0.7167,Lo,,,,,,1,,,,,,,,high,17,0,17,0,1,,,,,,,,,
296323,2022-11-27_18h43.35.881,vts_reward_expectancy_bt,2022.2.4,MacIntel,60.0024001,Chrome,1440,900,,,,,1,868,,,,,,,,,,,,,,,,,Y,139,circle,1,0,,,,,,,,,,,,,,,,repeat,letter,lettRpt,f,0.6312,Lo,,,,,,1,,,,,,,,high,18,0,18,0,1,,,,,,,,,
296323,2022-11-27_18h43.35.881,vts_reward_expectancy_bt,2022.2.4,MacIntel,60.0024001,Chrome,1440,900,,,,,0,868,,,,,,,,,,,,,,,,,B,181,hexagon,1,0,,,,,,,,,,,,,,,,repeat,letter,lettRpt,d,0.6959,Hi,,,,,,1,,,,,,,,high,19,0,19,0,1,,,,,,,,,
296323,2022-11-27_18h43.35.881,vts_reward_expectancy_bt,2022.2.4,MacIntel,60.0024001,Chrome,1440,900,,,,,10,878,,,,,,,,,,,,,,,,,U,146,star,1,0,,,,,,,,,,,,,,,,switch,number,numSwt,j,0.948,Lo,,,,,,1,,,,,,,,high,20,0,20,0,1,,,,,,,,,
296323,2022-11-27_18h43.35.881,vts_reward_expectancy_bt,2022.2.4,MacIntel,60.0024001,Chrome,1440,900,,,,,10,888,,,,,,,,,,,,,,,,,F,167,circle,1,0,,,,,,,,,,,,,,,,switch,letter,lettSwt,d,0.8816,Lo,,,,,,1,,,,,,,,high,21,0,21,0,1,,,,,,,,,
296323,2022-11-27_18h43.35.881,vts_reward_expectancy_bt,2022.2.4,MacIntel,60.0024001,Chrome,1440,900,,,,,0,888,,,,,,,,,,,,,,,,,H,125,hexagon,1,0,,,,,,,,,,,,,,,,switch,number,numSwt,j,0.6646,Hi,,,,,,1,,,,,,,,high,22,0,22,0,1,,,,,,,,,
296323,2022-11-27_18h43.35.881,vts_reward_expectancy_bt,2022.2.4,MacIntel,60.0024001,Chrome,1440,900,,,,,0,888,,,,,,,,,,,,,,,,,S,132,triangle,1,0,,,,,,,,,,,,,,,,repeat,number,numRpt,j,0.6381,Hi,,,,,,1,,,,,,,,high,23,0,23,0,1,,,,,,,,,
296323,2022-11-27_18h43.35.881,vts_reward_expectancy_bt,2022.2.4,MacIntel,60.0024001,Chrome,1440,900,,,,,0,888,,,,,,,,,,,,,,,,,F,181,hexagon,1,0,,,,,,,,,,,,,,,,repeat,number,numRpt,k,0.5868,Hi,,,,,,1,,,,,,,,high,24,0,24,0,1,,,,,,,,,
296323,2022-11-27_18h43.35.881,vts_reward_expectancy_bt,2022.2.4,MacIntel,60.0024001,Chrome,1440,900,,,,,1,889,,,,,,,,,,,,,,,,,Y,132,circle,1,0,,,,,,,,,,,,,,,,repeat,number,numRpt,j,0.6055,Lo,,,,,,1,,,,,,,,high,25,0,25,0,1,,,,,,,,,
296323,2022-11-27_18h43.35.881,vts_reward_expectancy_bt,2022.2.4,MacIntel,60.0024001,Chrome,1440,900,,,,,10,899,,,,,,,,,,,,,,,,,W,174,triangle,1,0,,,,,,,,,,,,,,,,switch,letter,lettSwt,f,0.4982,Hi,,,,,,1,,,,,,,,high,26,0,26,0,1,,,,,,,,,
296323,2022-11-27_18h43.35.881,vts_reward_expectancy_bt,2022.2.4,MacIntel,60.0024001,Chrome,1440,900,,,,,10,909,,,,,,,,,,,,,,,,,S,160,star,1,0,,,,,,,,,,,,,,,,repeat,letter,lettRpt,f,0.6681,Lo,,,,,,1,,,,,,,,high,27,0,27,0,1,,,,,,,,,
296323,2022-11-27_18h43.35.881,vts_reward_expectancy_bt,2022.2.4,MacIntel,60.0024001,Chrome,1440,900,,,,,1,910,,,,,,,,,,,,,,,,,H,125,circle,1,0,,,,,,,,,,,,,,,,repeat,letter,lettRpt,d,0.6982,Lo,,,,,,1,,,,,,,,high,28,0,28,0,1,,,,,,,,,
296323,2022-11-27_18h43.35.881,vts_reward_expectancy_bt,2022.2.4,MacIntel,60.0024001,Chrome,1440,900,,,,,0,910,,,,,,,,,,,,,,,,,B,167,star,0,0,,,,,,,,,,,,,,,,switch,number,NA,j,0.7026,Lo,,,,,,1,,,,,,,,high,29,0,29,0,1,,,,,,,,,
296323,2022-11-27_18h43.35.881,vts_reward_expectancy_bt,2022.2.4,MacIntel,60.0024001,Chrome,1440,900,,,,,0,910,,,,,,,,,,,,,,,,,U,146,triangle,1,1,,,,,,,,,,,,,,,,repeat,number,numRpt,j,0.838,Hi,,,,,,1,,,,,,,,high,30,0,30,0,1,,,,,,,,,
296323,2022-11-27_18h43.35.881,vts_reward_expectancy_bt,2022.2.4,MacIntel,60.0024001,Chrome,1440,900,,,,,10,920,,,,,,,,,,,,,,,,,D,139,hexagon,1,0,,,,,,,,,,,,,,,,repeat,number,numRpt,j,0.5188,Hi,,,,,,1,,,,,,,,high,31,0,31,0,1,,,,,,,,,
296323,2022-11-27_18h43.35.881,vts_reward_expectancy_bt,2022.2.4,MacIntel,60.0024001,Chrome,1440,900,,,,,1,921,,,,,,,,,,,,,,,,,D,160,circle,1,0,,,,,,,,,,,,,,,,switch,letter,lettSwt,d,0.682,Lo,,,,,,2,,,,,,space,6.1564,high,0,0,0,0,1,,,,,,,,,
296323,2022-11-27_18h43.35.881,vts_reward_expectancy_bt,2022.2.4,MacIntel,60.0024001,Chrome,1440,900,,,,,10,931,,,,,,,,,,,,,,,,,B,181,triangle,1,0,,,,,,,,,,,,,,,,repeat,letter,lettRpt,d,0.4143,Hi,,,,,,2,,,,,,,,high,1,0,1,0,1,,,,,,,,,
296323,2022-11-27_18h43.35.881,vts_reward_expectancy_bt,2022.2.4,MacIntel,60.0024001,Chrome,1440,900,,,,,10,941,,,,,,,,,,,,,,,,,S,125,hexagon,1,0,,,,,,,,,,,,,,,,repeat,letter,lettRpt,f,0.4973,Hi,,,,,,2,,,,,,,,high,2,0,2,0,1,,,,,,,,,
296323,2022-11-27_18h43.35.881,vts_reward_expectancy_bt,2022.2.4,MacIntel,60.0024001,Chrome,1440,900,,,,,1,942,,,,,,,,,,,,,,,,,H,139,star,1,0,,,,,,,,,,,,,,,,repeat,letter,lettRpt,d,0.4815,Lo,,,,,,2,,,,,,,,high,3,0,3,0,1,,,,,,,,,
296323,2022-11-27_18h43.35.881,vts_reward_expectancy_bt,2022.2.4,MacIntel,60.0024001,Chrome,1440,900,,,,,1,943,,,,,,,,,,,,,,,,,Y,167,circle,1,0,,,,,,,,,,,,,,,,switch,number,numSwt,k,0.7522,Lo,,,,,,2,,,,,,,,high,4,0,4,0,1,,,,,,,,,
296323,2022-11-27_18h43.35.881,vts_reward_expectancy_bt,2022.2.4,MacIntel,60.0024001,Chrome,1440,900,,,,,0,943,,,,,,,,,,,,,,,,,W,132,triangle,1,0,,,,,,,,,,,,,,,,repeat,number,numRpt,j,0.7975,Hi,,,,,,2,,,,,,,,high,5,0,5,0,1,,,,,,,,,
296323,2022-11-27_18h43.35.881,vts_reward_expectancy_bt,2022.2.4,MacIntel,60.0024001,Chrome,1440,900,,,,,10,953,,,,,,,,,,,,,,,,,U,174,hexagon,1,0,,,,,,,,,,,,,,,,repeat,number,numRpt,k,0.4474,Hi,,,,,,2,,,,,,,,high,6,0,6,0,1,,,,,,,,,
296323,2022-11-27_18h43.35.881,vts_reward_expectancy_bt,2022.2.4,MacIntel,60.0024001,Chrome,1440,900,,,,,10,963,,,,,,,,,,,,,,,,,F,146,star,1,0,,,,,,,,,,,,,,,,repeat,number,numRpt,j,0.5143,Lo,,,,,,2,,,,,,,,high,7,0,7,0,1,,,,,,,,,
296323,2022-11-27_18h43.35.881,vts_reward_expectancy_bt,2022.2.4,MacIntel,60.0024001,Chrome,1440,900,,,,,10,973,,,,,,,,,,,,,,,,,D,160,hexagon,1,0,,,,,,,,,,,,,,,,repeat,number,numRpt,k,0.4644,Hi,,,,,,2,,,,,,,,high,8,0,8,0,1,,,,,,,,,
296323,2022-11-27_18h43.35.881,vts_reward_expectancy_bt,2022.2.4,MacIntel,60.0024001,Chrome,1440,900,,,,,1,974,,,,,,,,,,,,,,,,,B,181,triangle,1,0,,,,,,,,,,,,,,,,repeat,number,numRpt,k,0.5315,Hi,,,,,,2,,,,,,,,high,9,0,9,0,1,,,,,,,,,
296323,2022-11-27_18h43.35.881,vts_reward_expectancy_bt,2022.2.4,MacIntel,60.0024001,Chrome,1440,900,,,,,1,975,,,,,,,,,,,,,,,,,S,125,circle,1,0,,,,,,,,,,,,,,,,switch,letter,lettSwt,f,0.7692,Lo,,,,,,2,,,,,,,,high,10,0,10,0,1,,,,,,,,,
296323,2022-11-27_18h43.35.881,vts_reward_expectancy_bt,2022.2.4,MacIntel,60.0024001,Chrome,1440,900,,,,,1,976,,,,,,,,,,,,,,,,,H,139,star,1,0,,,,,,,,,,,,,,,,repeat,letter,lettRpt,d,0.3701,Lo,,,,,,2,,,,,,,,high,11,0,11,0,1,,,,,,,,,
296323,2022-11-27_18h43.35.881,vts_reward_expectancy_bt,2022.2.4,MacIntel,60.0024001,Chrome,1440,900,,,,,1,977,,,,,,,,,,,,,,,,,Y,167,circle,1,0,,,,,,,,,,,,,,,,switch,number,numSwt,k,0.5492,Lo,,,,,,2,,,,,,,,high,12,0,12,0,1,,,,,,,,,
296323,2022-11-27_18h43.35.881,vts_reward_expectancy_bt,2022.2.4,MacIntel,60.0024001,Chrome,1440,900,,,,,1,978,,,,,,,,,,,,,,,,,W,132,star,1,0,,,,,,,,,,,,,,,,repeat,number,numRpt,j,0.5679,Lo,,,,,,2,,,,,,,,high,13,0,13,0,1,,,,,,,,,
296323,2022-11-27_18h43.35.881,vts_reward_expectancy_bt,2022.2.4,MacIntel,60.0024001,Chrome,1440,900,,,,,0,978,,,,,,,,,,,,,,,,,U,174,triangle,1,0,,,,,,,,,,,,,,,,switch,letter,lettSwt,f,0.569,Hi,,,,,,2,,,,,,,,high,14,0,14,0,1,,,,,,,,,
296323,2022-11-27_18h43.35.881,vts_reward_expectancy_bt,2022.2.4,MacIntel,60.0024001,Chrome,1440,900,,,,,10,988,,,,,,,,,,,,,,,,,F,146,hexagon,1,0,,,,,,,,,,,,,,,,repeat,letter,lettRpt,d,0.4482,Hi,,,,,,2,,,,,,,,high,15,0,15,0,1,,,,,,,,,
296323,2022-11-27_18h43.35.881,vts_reward_expectancy_bt,2022.2.4,MacIntel,60.0024001,Chrome,1440,900,,,,,1,989,,,,,,,,,,,,,,,,,B,181,star,1,0,,,,,,,,,,,,,,,,switch,number,numSwt,k,0.3972,Lo,,,,,,2,,,,,,,,high,16,0,16,0,1,,,,,,,,,
296323,2022-11-27_18h43.35.881,vts_reward_expectancy_bt,2022.2.4,MacIntel,60.0024001,Chrome,1440,900,,,,,10,999,,,,,,,,,,,,,,,,,W,125,hexagon,1,0,,,,,,,,,,,,,,,,repeat,number,numRpt,j,0.434,Hi,,,,,,2,,,,,,,,high,17,0,17,0,1,,,,,,,,,
296323,2022-11-27_18h43.35.881,vts_reward_expectancy_bt,2022.2.4,MacIntel,60.0024001,Chrome,1440,900,,,,,0,999,,,,,,,,,,,,,,,,,F,174,triangle,1,0,,,,,,,,,,,,,,,,repeat,number,numRpt,k,0.6855,Hi,,,,,,2,,,,,,,,high,18,0,18,0,1,,,,,,,,,
296323,2022-11-27_18h43.35.881,vts_reward_expectancy_bt,2022.2.4,MacIntel,60.0024001,Chrome,1440,900,,,,,1,1000,,,,,,,,,,,,,,,,,D,132,circle,1,0,,,,,,,,,,,,,,,,switch,letter,lettSwt,d,0.4842,Lo,,,,,,2,,,,,,,,high,19,0,19,0,1,,,,,,,,,
296323,2022-11-27_18h43.35.881,vts_reward_expectancy_bt,2022.2.4,MacIntel,60.0024001,Chrome,1440,900,,,,,10,1010,,,,,,,,,,,,,,,,,S,139,triangle,1,0,,,,,,,,,,,,,,,,repeat,letter,lettRpt,f,0.5508,Hi,,,,,,2,,,,,,,,high,20,0,20,0,1,,,,,,,,,
296323,2022-11-27_18h43.35.881,vts_reward_expectancy_bt,2022.2.4,MacIntel,60.0024001,Chrome,1440,900,,,,,10,1020,,,,,,,,,,,,,,,,,U,160,hexagon,1,0,,,,,,,,,,,,,,,,repeat,letter,lettRpt,f,0.598,Hi,,,,,,2,,,,,,,,high,21,0,21,0,1,,,,,,,,,
296323,2022-11-27_18h43.35.881,vts_reward_expectancy_bt,2022.2.4,MacIntel,60.0024001,Chrome,1440,900,,,,,1,1021,,,,,,,,,,,,,,,,,Y,167,circle,1,0,,,,,,,,,,,,,,,,switch,number,numSwt,k,0.5305,Lo,,,,,,2,,,,,,,,high,22,0,22,0,1,,,,,,,,,
296323,2022-11-27_18h43.35.881,vts_reward_expectancy_bt,2022.2.4,MacIntel,60.0024001,Chrome,1440,900,,,,,1,1022,,,,,,,,,,,,,,,,,H,146,star,1,0,,,,,,,,,,,,,,,,repeat,number,numRpt,j,0.516,Lo,,,,,,2,,,,,,,,high,23,0,23,0,1,,,,,,,,,
296323,2022-11-27_18h43.35.881,vts_reward_expectancy_bt,2022.2.4,MacIntel,60.0024001,Chrome,1440,900,,,,,0,1022,,,,,,,,,,,,,,,,,S,181,hexagon,1,0,,,,,,,,,,,,,,,,switch,letter,lettSwt,f,0.53,Hi,,,,,,2,,,,,,,,high,24,0,24,0,1,,,,,,,,,
296323,2022-11-27_18h43.35.881,vts_reward_expectancy_bt,2022.2.4,MacIntel,60.0024001,Chrome,1440,900,,,,,0,1022,,,,,,,,,,,,,,,,,U,160,triangle,0,0,,,,,,,,,,,,,,,,repeat,letter,NA,d,0.4812,Hi,,,,,,2,,,,,,,,high,25,0,25,0,1,,,,,,,,,
296323,2022-11-27_18h43.35.881,vts_reward_expectancy_bt,2022.2.4,MacIntel,60.0024001,Chrome,1440,900,,,,,10,1032,,,,,,,,,,,,,,,,,D,167,circle,1,1,,,,,,,,,,,,,,,,repeat,letter,lettRpt,d,0.5972,Lo,,,,,,2,,,,,,,,high,26,0,26,0,1,,,,,,,,,
296323,2022-11-27_18h43.35.881,vts_reward_expectancy_bt,2022.2.4,MacIntel,60.0024001,Chrome,1440,900,,,,,1,1033,,,,,,,,,,,,,,,,,F,174,star,1,0,,,,,,,,,,,,,,,,repeat,letter,lettRpt,d,0.882,Lo,,,,,,2,,,,,,,,high,27,0,27,0,1,,,,,,,,,
296323,2022-11-27_18h43.35.881,vts_reward_expectancy_bt,2022.2.4,MacIntel,60.0024001,Chrome,1440,900,,,,,1,1034,,,,,,,,,,,,,,,,,B,139,star,1,0,,,,,,,,,,,,,,,,repeat,letter,lettRpt,d,0.4655,Lo,,,,,,2,,,,,,,,high,28,0,28,0,1,,,,,,,,,
296323,2022-11-27_18h43.35.881,vts_reward_expectancy_bt,2022.2.4,MacIntel,60.0024001,Chrome,1440,900,,,,,1,1035,,,,,,,,,,,,,,,,,W,146,hexagon,1,0,,,,,,,,,,,,,,,,repeat,letter,lettRpt,f,0.5811,Hi,,,,,,2,,,,,,,,high,29,0,29,0,1,,,,,,,,,
296323,2022-11-27_18h43.35.881,vts_reward_expectancy_bt,2022.2.4,MacIntel,60.0024001,Chrome,1440,900,,,,,1,1036,,,,,,,,,,,,,,,,,Y,132,circle,1,0,,,,,,,,,,,,,,,,switch,number,numSwt,j,0.7143,Lo,,,,,,2,,,,,,,,high,30,0,30,0,1,,,,,,,,,
296323,2022-11-27_18h43.35.881,vts_reward_expectancy_bt,2022.2.4,MacIntel,60.0024001,Chrome,1440,900,,,,,0,1036,,,,,,,,,,,,,,,,,H,125,triangle,1,0,,,,,,,,,,,,,,,,repeat,number,numRpt,j,0.5719,Hi,,,,,,2,,,,,,,,high,31,0,31,0,1,,,,,,,,,
296323,2022-11-27_18h43.35.881,vts_reward_expectancy_bt,2022.2.4,MacIntel,60.0024001,Chrome,1440,900,,,,,0,1036,,,,,,,,,,,,,,,,,W,167,triangle,1,0,,,,,,,,,,,,,,,,switch,letter,lettSwt,f,0.6134,Hi,,,,,,3,,,,,,space,2.5514,high,0,0,0,0,1,,,,,,,,,
296323,2022-11-27_18h43.35.881,vts_reward_expectancy_bt,2022.2.4,MacIntel,60.0024001,Chrome,1440,900,,,,,0,1036,,,,,,,,,,,,,,,,,D,132,hexagon,0,0,,,,,,,,,,,,,,,,repeat,letter,NA,f,0.4303,Hi,,,,,,3,,,,,,,,high,1,0,1,0,1,,,,,,,,,
296323,2022-11-27_18h43.35.881,vts_reward_expectancy_bt,2022.2.4,MacIntel,60.0024001,Chrome,1440,900,,,,,1,1037,,,,,,,,,,,,,,,,,H,125,star,1,1,,,,,,,,,,,,,,,,repeat,letter,lettRpt,d,0.4973,Lo,,,,,,3,,,,,,,,high,2,0,2,0,1,,,,,,,,,
296323,2022-11-27_18h43.35.881,vts_reward_expectancy_bt,2022.2.4,MacIntel,60.0024001,Chrome,1440,900,,,,,1,1038,,,,,,,,,,,,,,,,,B,146,circle,1,0,,,,,,,,,,,,,,,,repeat,letter,lettRpt,d,0.4869,Lo,,,,,,3,,,,,,,,high,3,0,3,0,1,,,,,,,,,
296323,2022-11-27_18h43.35.881,vts_reward_expectancy_bt,2022.2.4,MacIntel,60.0024001,Chrome,1440,900,,,,,0,1038,,,,,,,,,,,,,,,,,Y,181,triangle,1,0,,,,,,,,,,,,,,,,repeat,letter,lettRpt,f,0.4991,Hi,,,,,,3,,,,,,,,high,4,0,4,0,1,,,,,,,,,
296323,2022-11-27_18h43.35.881,vts_reward_expectancy_bt,2022.2.4,MacIntel,60.0024001,Chrome,1440,900,,,,,0,1038,,,,,,,,,,,,,,,,,U,160,hexagon,0,0,,,,,,,,,,,,,,,,repeat,letter,NA,d,0.3802,Hi,,,,,,3,,,,,,,,high,5,0,5,0,1,,,,,,,,,
296323,2022-11-27_18h43.35.881,vts_reward_expectancy_bt,2022.2.4,MacIntel,60.0024001,Chrome,1440,900,,,,,10,1048,,,,,,,,,,,,,,,,,F,174,star,1,1,,,,,,,,,,,,,,,,switch,number,numSwt,k,0.4643,Lo,,,,,,3,,,,,,,,high,6,0,6,0,1,,,,,,,,,
296323,2022-11-27_18h43.35.881,vts_reward_expectancy_bt,2022.2.4,MacIntel,60.0024001,Chrome,1440,900,,,,,0,1048,,,,,,,,,,,,,,,,,S,139,circle,0,0,,,,,,,,,,,,,,,,repeat,number,NA,k,0.4194,Lo,,,,,,3,,,,,,,,high,7,0,7,0,1,,,,,,,,,
296323,2022-11-27_18h43.35.881,vts_reward_expectancy_bt,2022.2.4,MacIntel,60.0024001,Chrome,1440,900,,,,,10,1058,,,,,,,,,,,,,,,,,W,167,circle,1,1,,,,,,,,,,,,,,,,repeat,number,numRpt,k,0.5213,Lo,,,,,,3,,,,,,,,high,8,0,8,0,1,,,,,,,,,
296323,2022-11-27_18h43.35.881,vts_reward_expectancy_bt,2022.2.4,MacIntel,60.0024001,Chrome,1440,900,,,,,10,1068,,,,,,,,,,,,,,,,,D,132,hexagon,1,0,,,,,,,,,,,,,,,,repeat,number,numRpt,j,0.499,Hi,,,,,,3,,,,,,,,high,9,0,9,0,1,,,,,,,,,
296323,2022-11-27_18h43.35.881,vts_reward_expectancy_bt,2022.2.4,MacIntel,60.0024001,Chrome,1440,900,,,,,10,1078,,,,,,,,,,,,,,,,,H,125,star,1,0,,,,,,,,,,,,,,,,repeat,number,numRpt,j,0.487,Lo,,,,,,3,,,,,,,,high,10,0,10,0,1,,,,,,,,,
296323,2022-11-27_18h43.35.881,vts_reward_expectancy_bt,2022.2.4,MacIntel,60.0024001,Chrome,1440,900,,,,,1,1079,,,,,,,,,,,,,,,,,B,146,triangle,1,0,,,,,,,,,,,,,,,,repeat,number,numRpt,j,0.4973,Hi,,,,,,3,,,,,,,,high,11,0,11,0,1,,,,,,,,,
296323,2022-11-27_18h43.35.881,vts_reward_expectancy_bt,2022.2.4,MacIntel,60.0024001,Chrome,1440,900,,,,,10,1089,,,,,,,,,,,,,,,,,Y,181,circle,1,0,,,,,,,,,,,,,,,,switch,letter,lettSwt,f,0.598,Lo,,,,,,3,,,,,,,,high,12,0,12,0,1,,,,,,,,,
296323,2022-11-27_18h43.35.881,vts_reward_expectancy_bt,2022.2.4,MacIntel,60.0024001,Chrome,1440,900,,,,,0,1089,,,,,,,,,,,,,,,,,U,160,hexagon,1,0,,,,,,,,,,,,,,,,repeat,letter,lettRpt,f,0.5349,Hi,,,,,,3,,,,,,,,high,13,0,13,0,1,,,,,,,,,
296323,2022-11-27_18h43.35.881,vts_reward_expectancy_bt,2022.2.4,MacIntel,60.0024001,Chrome,1440,900,,,,,10,1099,,,,,,,,,,,,,,,,,F,174,star,1,0,,,,,,,,,,,,,,,,repeat,letter,lettRpt,d,0.5473,Lo,,,,,,3,,,,,,,,high,14,0,14,0,1,,,,,,,,,
296323,2022-11-27_18h43.35.881,vts_reward_expectancy_bt,2022.2.4,MacIntel,60.0024001,Chrome,1440,900,,,,,0,1099,,,,,,,,,,,,,,,,,S,139,triangle,1,0,,,,,,,,,,,,,,,,repeat,letter,lettRpt,f,0.5868,Hi,,,,,,3,,,,,,,,high,15,0,15,0,1,,,,,,,,,
296323,2022-11-27_18h43.35.881,vts_reward_expectancy_bt,2022.2.4,MacIntel,60.0024001,Chrome,1440,900,,,,,1,1100,,,,,,,,,,,,,,,,,Y,139,circle,1,0,,,,,,,,,,,,,,,,switch,number,numSwt,j,0.5056,Lo,,,,,,3,,,,,,,,high,16,0,16,0,1,,,,,,,,,
296323,2022-11-27_18h43.35.881,vts_reward_expectancy_bt,2022.2.4,MacIntel,60.0024001,Chrome,1440,900,,,,,0,1100,,,,,,,,,,,,,,,,,S,132,hexagon,1,0,,,,,,,,,,,,,,,,switch,letter,lettSwt,f,0.5479,Hi,,,,,,3,,,,,,,,high,17,0,17,0,1,,,,,,,,,
296323,2022-11-27_18h43.35.881,vts_reward_expectancy_bt,2022.2.4,MacIntel,60.0024001,Chrome,1440,900,,,,,0,1100,,,,,,,,,,,,,,,,,D,125,triangle,1,0,,,,,,,,,,,,,,,,repeat,letter,lettRpt,d,0.498,Hi,,,,,,3,,,,,,,,high,18,0,18,0,1,,,,,,,,,
296323,2022-11-27_18h43.35.881,vts_reward_expectancy_bt,2022.2.4,MacIntel,60.0024001,Chrome,1440,900,,,,,1,1101,,,,,,,,,,,,,,,,,F,174,star,1,0,,,,,,,,,,,,,,,,repeat,letter,lettRpt,d,0.4471,Lo,,,,,,3,,,,,,,,high,19,0,19,0,1,,,,,,,,,
296323,2022-11-27_18h43.35.881,vts_reward_expectancy_bt,2022.2.4,MacIntel,60.0024001,Chrome,1440,900,,,,,0,1101,,,,,,,,,,,,,,,,,W,160,triangle,1,0,,,,,,,,,,,,,,,,repeat,letter,lettRpt,f,0.4807,Hi,,,,,,3,,,,,,,,high,20,0,20,0,1,,,,,,,,,
296323,2022-11-27_18h43.35.881,vts_reward_expectancy_bt,2022.2.4,MacIntel,60.0024001,Chrome,1440,900,,,,,1,1102,,,,,,,,,,,,,,,,,H,167,star,1,0,,,,,,,,,,,,,,,,repeat,letter,lettRpt,d,0.4358,Lo,,,,,,3,,,,,,,,high,21,0,21,0,1,,,,,,,,,
296323,2022-11-27_18h43.35.881,vts_reward_expectancy_bt,2022.2.4,MacIntel,60.0024001,Chrome,1440,900,,,,,0,1102,,,,,,,,,,,,,,,,,B,146,hexagon,0,0,,,,,,,,,,,,,,,,repeat,letter,NA,f,0.2889,Lo,,,,,,3,,,,,,,,high,22,0,22,0,1,,,,,,,,,
296323,2022-11-27_18h43.35.881,vts_reward_expectancy_bt,2022.2.4,MacIntel,60.0024001,Chrome,1440,900,,,,,1,1103,,,,,,,,,,,,,,,,,U,181,circle,1,1,,,,,,,,,,,,,,,,repeat,letter,lettRpt,f,0.6645,Lo,,,,,,3,,,,,,,,high,23,0,23,0,1,,,,,,,,,
296323,2022-11-27_18h43.35.881,vts_reward_expectancy_bt,2022.2.4,MacIntel,60.0024001,Chrome,1440,900,,,,,0,1103,,,,,,,,,,,,,,,,,U,125,circle,0,0,,,,,,,,,,,,,,,,repeat,letter,NA,d,0.6325,Lo,,,,,,3,,,,,,,,high,24,0,24,0,1,,,,,,,,,
296323,2022-11-27_18h43.35.881,vts_reward_expectancy_bt,2022.2.4,MacIntel,60.0024001,Chrome,1440,900,,,,,0,1103,,,,,,,,,,,,,,,,,W,139,triangle,1,1,,,,,,,,,,,,,,,,repeat,letter,lettRpt,f,0.5039,Hi,,,,,,3,,,,,,,,high,25,0,25,0,1,,,,,,,,,
296323,2022-11-27_18h43.35.881,vts_reward_expectancy_bt,2022.2.4,MacIntel,60.0024001,Chrome,1440,900,,,,,1,1104,,,,,,,,,,,,,,,,,D,174,star,1,0,,,,,,,,,,,,,,,,repeat,letter,lettRpt,d,0.6136,Lo,,,,,,3,,,,,,,,high,26,0,26,0,1,,,,,,,,,
296323,2022-11-27_18h43.35.881,vts_reward_expectancy_bt,2022.2.4,MacIntel,60.0024001,Chrome,1440,900,,,,,10,1114,,,,,,,,,,,,,,,,,S,146,hexagon,1,0,,,,,,,,,,,,,,,,switch,number,numSwt,j,0.5302,Hi,,,,,,3,,,,,,,,high,27,0,27,0,1,,,,,,,,,
296323,2022-11-27_18h43.35.881,vts_reward_expectancy_bt,2022.2.4,MacIntel,60.0024001,Chrome,1440,900,,,,,1,1115,,,,,,,,,,,,,,,,,H,181,star,1,0,,,,,,,,,,,,,,,,repeat,number,numRpt,k,0.5815,Lo,,,,,,3,,,,,,,,high,28,0,28,0,1,,,,,,,,,
296323,2022-11-27_18h43.35.881,vts_reward_expectancy_bt,2022.2.4,MacIntel,60.0024001,Chrome,1440,900,,,,,0,1115,,,,,,,,,,,,,,,,,Y,132,triangle,1,0,,,,,,,,,,,,,,,,repeat,number,numRpt,j,0.5484,Hi,,,,,,3,,,,,,,,high,29,0,29,0,1,,,,,,,,,
296323,2022-11-27_18h43.35.881,vts_reward_expectancy_bt,2022.2.4,MacIntel,60.0024001,Chrome,1440,900,,,,,1,1116,,,,,,,,,,,,,,,,,F,167,circle,1,0,,,,,,,,,,,,,,,,repeat,number,numRpt,k,0.797,Lo,,,,,,3,,,,,,,,high,30,0,30,0,1,,,,,,,,,
296323,2022-11-27_18h43.35.881,vts_reward_expectancy_bt,2022.2.4,MacIntel,60.0024001,Chrome,1440,900,,,,,0,1116,,,,,,,,,,,,,,,,,B,160,hexagon,1,0,,,,,,,,,,,,,,,,repeat,number,numRpt,k,0.7469,Hi,,,,,,3,,,,,,,,high,31,0,31,0,1,,,,,,,,,
296323,2022-11-27_18h43.35.881,vts_reward_expectancy_bt,2022.2.4,MacIntel,60.0024001,Chrome,1440,900,,,,,0,1116,,,,,,,,,,,,,,,,,H,181,hexagon,-1,0,,,,,,,,,,,,,,,,switch,no_choice,NA,,,Hi,,,,,,4,,,,,,space,1.1766,high,0,0,0,0,1,,,,,,,,,
296323,2022-11-27_18h43.35.881,vts_reward_expectancy_bt,2022.2.4,MacIntel,60.0024001,Chrome,1440,900,,,,,0,1116,,,,,,,,,,,,,,,,,Y,125,triangle,1,0,,,,,,,,,,,,,,,,switch,number,numSwt,j,0.6383,Hi,,,,,,4,,,,,,,,high,1,0,1,0,1,,,,,,,,,
296323,2022-11-27_18h43.35.881,vts_reward_expectancy_bt,2022.2.4,MacIntel,60.0024001,Chrome,1440,900,,,,,0,1116,,,,,,,,,,,,,,,,,S,139,star,0,0,,,,,,,,,,,,,,,,repeat,number,NA,k,0.547,Hi,,,,,,4,,,,,,,,high,2,0,2,0,1,,,,,,,,,
296323,2022-11-27_18h43.35.881,vts_reward_expectancy_bt,2022.2.4,MacIntel,60.0024001,Chrome,1440,900,,,,,1,1117,,,,,,,,,,,,,,,,,B,146,circle,1,1,,,,,,,,,,,,,,,,repeat,number,numRpt,j,0.7153,Lo,,,,,,4,,,,,,,,high,3,0,3,0,1,,,,,,,,,
296323,2022-11-27_18h43.35.881,vts_reward_expectancy_bt,2022.2.4,MacIntel,60.0024001,Chrome,1440,900,,,,,10,1127,,,,,,,,,,,,,,,,,F,160,hexagon,1,0,,,,,,,,,,,,,,,,switch,letter,lettSwt,d,0.5168,Hi,,,,,,4,,,,,,,,high,4,0,4,0,1,,,,,,,,,
296323,2022-11-27_18h43.35.881,vts_reward_expectancy_bt,2022.2.4,MacIntel,60.0024001,Chrome,1440,900,,,,,10,1137,,,,,,,,,,,,,,,,,D,132,triangle,1,0,,,,,,,,,,,,,,,,repeat,letter,lettRpt,d,0.4308,Hi,,,,,,4,,,,,,,,high,5,0,5,0,1,,,,,,,,,
296323,2022-11-27_18h43.35.881,vts_reward_expectancy_bt,2022.2.4,MacIntel,60.0024001,Chrome,1440,900,,,,,1,1138,,,,,,,,,,,,,,,,,W,174,star,1,0,,,,,,,,,,,,,,,,repeat,letter,lettRpt,f,0.4641,Lo,,,,,,4,,,,,,,,high,6,0,6,0,1,,,,,,,,,
296323,2022-11-27_18h43.35.881,vts_reward_expectancy_bt,2022.2.4,MacIntel,60.0024001,Chrome,1440,900,,,,,1,1139,,,,,,,,,,,,,,,,,U,167,circle,1,0,,,,,,,,,,,,,,,,repeat,letter,lettRpt,f,0.463,Lo,,,,,,4,,,,,,,,high,7,0,7,0,1,,,,,,,,,
296323,2022-11-27_18h43.35.881,vts_reward_expectancy_bt,2022.2.4,MacIntel,60.0024001,Chrome,1440,900,,,,,1,1140,,,,,,,,,,,,,,,,,H,181,circle,1,0,,,,,,,,,,,,,,,,repeat,letter,lettRpt,d,0.5986,Lo,,,,,,4,,,,,,,,high,8,0,8,0,1,,,,,,,,,
296323,2022-11-27_18h43.35.881,vts_reward_expectancy_bt,2022.2.4,MacIntel,60.0024001,Chrome,1440,900,,,,,1,1141,,,,,,,,,,,,,,,,,Y,125,star,1,0,,,,,,,,,,,,,,,,repeat,letter,lettRpt,f,0.5815,Lo,,,,,,4,,,,,,,,high,9,0,9,0,1,,,,,,,,,
296323,2022-11-27_18h43.35.881,vts_reward_expectancy_bt,2022.2.4,MacIntel,60.0024001,Chrome,1440,900,,,,,0,1141,,,,,,,,,,,,,,,,,S,139,triangle,1,0,,,,,,,,,,,,,,,,switch,number,numSwt,j,0.4972,Hi,,,,,,4,,,,,,,,high,10,0,10,0,1,,,,,,,,,
296323,2022-11-27_18h43.35.881,vts_reward_expectancy_bt,2022.2.4,MacIntel,60.0024001,Chrome,1440,900,,,,,0,1141,,,,,,,,,,,,,,,,,B,146,hexagon,1,0,,,,,,,,,,,,,,,,repeat,number,numRpt,j,0.5386,Hi,,,,,,4,,,,,,,,high,11,0,11,0,1,,,,,,,,,
296323,2022-11-27_18h43.35.881,vts_reward_expectancy_bt,2022.2.4,MacIntel,60.0024001,Chrome,1440,900,,,,,1,1142,,,,,,,,,,,,,,,,,F,160,star,1,0,,,,,,,,,,,,,,,,repeat,number,numRpt,k,0.6351,Lo,,,,,,4,,,,,,,,high,12,0,12,0,1,,,,,,,,,
296323,2022-11-27_18h43.35.881,vts_reward_expectancy_bt,2022.2.4,MacIntel,60.0024001,Chrome,1440,900,,,,,1,1143,,,,,,,,,,,,,,,,,D,132,triangle,1,0,,,,,,,,,,,,,,,,repeat,number,numRpt,j,0.448,Hi,,,,,,4,,,,,,,,high,13,0,13,0,1,,,,,,,,,
296323,2022-11-27_18h43.35.881,vts_reward_expectancy_bt,2022.2.4,MacIntel,60.0024001,Chrome,1440,900,,,,,0,1143,,,,,,,,,,,,,,,,,W,174,hexagon,1,0,,,,,,,,,,,,,,,,repeat,number,numRpt,k,0.5136,Hi,,,,,,4,,,,,,,,high,14,0,14,0,1,,,,,,,,,
296323,2022-11-27_18h43.35.881,vts_reward_expectancy_bt,2022.2.4,MacIntel,60.0024001,Chrome,1440,900,,,,,1,1144,,,,,,,,,,,,,,,,,U,167,circle,1,0,,,,,,,,,,,,,,,,repeat,number,numRpt,k,0.6169,Lo,,,,,,4,,,,,,,,high,15,0,15,0,1,,,,,,,,,
296323,2022-11-27_18h43.35.881,vts_reward_expectancy_bt,2022.2.4,MacIntel,60.0024001,Chrome,1440,900,,,,,10,1154,,,,,,,,,,,,,,,,,D,160,hexagon,1,0,,,,,,,,,,,,,,,,switch,letter,lettSwt,d,0.5297,Hi,,,,,,4,,,,,,,,high,16,0,16,0,1,,,,,,,,,
296323,2022-11-27_18h43.35.881,vts_reward_expectancy_bt,2022.2.4,MacIntel,60.0024001,Chrome,1440,900,,,,,1,1155,,,,,,,,,,,,,,,,,B,146,star,1,0,,,,,,,,,,,,,,,,repeat,letter,lettRpt,d,0.4026,Lo,,,,,,4,,,,,,,,high,17,0,17,0,1,,,,,,,,,
296323,2022-11-27_18h43.35.881,vts_reward_expectancy_bt,2022.2.4,MacIntel,60.0024001,Chrome,1440,900,,,,,0,1155,,,,,,,,,,,,,,,,,H,174,triangle,1,0,,,,,,,,,,,,,,,,repeat,letter,lettRpt,d,0.5816,Hi,,,,,,4,,,,,,,,high,18,0,18,0,1,,,,,,,,,
296323,2022-11-27_18h43.35.881,vts_reward_expectancy_bt,2022.2.4,MacIntel,60.0024001,Chrome,1440,900,,,,,1,1156,,,,,,,,,,,,,,,,,U,132,circle,1,0,,,,,,,,,,,,,,,,repeat,letter,lettRpt,f,0.5966,Lo,,,,,,4,,,,,,,,high,19,0,19,0,1,,,,,,,,,
296323,2022-11-27_18h43.35.881,vts_reward_expectancy_bt,2022.2.4,MacIntel,60.0024001,Chrome,1440,900,,,,,0,1156,,,,,,,,,,,,,,,,,F,167,star,0,0,,,,,,,,,,,,,,,,repeat,letter,NA,f,0.514,Lo,,,,,,4,,,,,,,,high,20,0,20,0,1,,,,,,,,,
296323,2022-11-27_18h43.35.881,vts_reward_expectancy_bt,2022.2.4,MacIntel,60.0024001,Chrome,1440,900,,,,,10,1166,,,,,,,,,,,,,,,,,Y,139,circle,1,1,,,,,,,,,,,,,,,,repeat,letter,lettRpt,f,0.504,Lo,,,,,,4,,,,,,,,high,21,0,21,0,1,,,,,,,,,
296323,2022-11-27_18h43.35.881,vts_reward_expectancy_bt,2022.2.4,MacIntel,60.0024001,Chrome,1440,900,,,,,0,1166,,,,,,,,,,,,,,,,,S,181,triangle,1,0,,,,,,,,,,,,,,,,repeat,letter,lettRpt,f,0.58,Hi,,,,,,4,,,,,,,,high,22,0,22,0,1,,,,,,,,,
296323,2022-11-27_18h43.35.881,vts_reward_expectancy_bt,2022.2.4,MacIntel,60.0024001,Chrome,1440,900,,,,,0,1166,,,,,,,,,,,,,,,,,W,125,hexagon,1,0,,,,,,,,,,,,,,,,repeat,letter,lettRpt,f,0.553,Hi,,,,,,4,,,,,,,,high,23,0,23,0,1,,,,,,,,,
296323,2022-11-27_18h43.35.881,vts_reward_expectancy_bt,2022.2.4,MacIntel,60.0024001,Chrome,1440,900,,,,,1,1167,,,,,,,,,,,,,,,,,Y,125,circle,1,0,,,,,,,,,,,,,,,,switch,number,numSwt,j,0.8554,Lo,,,,,,4,,,,,,,,high,24,0,24,0,1,,,,,,,,,
296323,2022-11-27_18h43.35.881,vts_reward_expectancy_bt,2022.2.4,MacIntel,60.0024001,Chrome,1440,900,,,,,10,1177,,,,,,,,,,,,,,,,,W,181,star,1,0,,,,,,,,,,,,,,,,repeat,number,numRpt,k,0.565,Lo,,,,,,4,,,,,,,,high,25,0,25,0,1,,,,,,,,,
296323,2022-11-27_18h43.35.881,vts_reward_expectancy_bt,2022.2.4,MacIntel,60.0024001,Chrome,1440,900,,,,,10,1187,,,,,,,,,,,,,,,,,U,174,triangle,1,0,,,,,,,,,,,,,,,,switch,letter,lettSwt,f,0.4991,Hi,,,,,,4,,,,,,,,high,26,0,26,0,1,,,,,,,,,
296323,2022-11-27_18h43.35.881,vts_reward_expectancy_bt,2022.2.4,MacIntel,60.0024001,Chrome,1440,900,,,,,0,1187,,,,,,,,,,,,,,,,,F,132,hexagon,1,0,,,,,,,,,,,,,,,,repeat,letter,lettRpt,d,0.5808,Hi,,,,,,4,,,,,,,,high,27,0,27,0,1,,,,,,,,,
296323,2022-11-27_18h43.35.881,vts_reward_expectancy_bt,2022.2.4,MacIntel,60.0024001,Chrome,1440,900,,,,,10,1197,,,,,,,,,,,,,,,,,H,146,circle,1,0,,,,,,,,,,,,,,,,repeat,letter,lettRpt,d,0.5519,Lo,,,,,,4,,,,,,,,high,28,0,28,0,1,,,,,,,,,
296323,2022-11-27_18h43.35.881,vts_reward_expectancy_bt,2022.2.4,MacIntel,60.0024001,Chrome,1440,900,,,,,0,1197,,,,,,,,,,,,,,,,,B,160,hexagon,1,0,,,,,,,,,,,,,,,,switch,number,numSwt,k,0.5292,Hi,,,,,,4,,,,,,,,high,29,0,29,0,1,,,,,,,,,
296323,2022-11-27_18h43.35.881,vts_reward_expectancy_bt,2022.2.4,MacIntel,60.0024001,Chrome,1440,900,,,,,1,1198,,,,,,,,,,,,,,,,,S,167,star,1,0,,,,,,,,,,,,,,,,repeat,number,numRpt,k,0.4968,Lo,,,,,,4,,,,,,,,high,30,0,30,0,1,,,,,,,,,
296323,2022-11-27_18h43.35.881,vts_reward_expectancy_bt,2022.2.4,MacIntel,60.0024001,Chrome,1440,900,,,,,0,1198,,,,,,,,,,,,,,,,,D,139,triangle,1,0,,,,,,,,,,,,,,,,repeat,number,numRpt,j,0.548,Hi,,,,,,4,,,,,,,,high,31,0,31,0,1,,,,,,,,,
296323,2022-11-27_18h43.35.881,vts_reward_expectancy_bt,2022.2.4,MacIntel,60.0024001,Chrome,1440,900,,,,,1,1199,,,,,,,,,,,,,,,,,D,146,star,1,0,,,,,,,,,,,,,,,,switch,letter,lettSwt,d,0.7643,Lo,,,,,,5,,,,,,space,0.975,high,0,0,0,0,1,,,,,,,,,
296323,2022-11-27_18h43.35.881,vts_reward_expectancy_bt,2022.2.4,MacIntel,60.0024001,Chrome,1440,900,,,,,1,1200,,,,,,,,,,,,,,,,,Y,174,circle,1,0,,,,,,,,,,,,,,,,repeat,letter,lettRpt,f,0.5469,Lo,,,,,,5,,,,,,,,high,1,0,1,0,1,,,,,,,,,
296323,2022-11-27_18h43.35.881,vts_reward_expectancy_bt,2022.2.4,MacIntel,60.0024001,Chrome,1440,900,,,,,0,1200,,,,,,,,,,,,,,,,,B,160,triangle,1,0,,,,,,,,,,,,,,,,repeat,letter,lettRpt,d,0.514,Hi,,,,,,5,,,,,,,,high,2,0,2,0,1,,,,,,,,,
296323,2022-11-27_18h43.35.881,vts_reward_expectancy_bt,2022.2.4,MacIntel,60.0024001,Chrome,1440,900,,,,,1,1201,,,,,,,,,,,,,,,,,U,167,hexagon,1,0,,,,,,,,,,,,,,,,switch,number,numSwt,k,0.4669,Hi,,,,,,5,,,,,,,,high,3,0,3,0,1,,,,,,,,,
296323,2022-11-27_18h43.35.881,vts_reward_expectancy_bt,2022.2.4,MacIntel,60.0024001,Chrome,1440,900,,,,,1,1202,,,,,,,,,,,,,,,,,S,139,star,1,0,,,,,,,,,,,,,,,,repeat,number,numRpt,j,0.4865,Lo,,,,,,5,,,,,,,,high,4,0,4,0,1,,,,,,,,,
296323,2022-11-27_18h43.35.881,vts_reward_expectancy_bt,2022.2.4,MacIntel,60.0024001,Chrome,1440,900,,,,,10,1212,,,,,,,,,,,,,,,,,W,125,circle,1,0,,,,,,,,,,,,,,,,repeat,number,numRpt,j,0.4818,Lo,,,,,,5,,,,,,,,high,5,0,5,0,1,,,,,,,,,
296323,2022-11-27_18h43.35.881,vts_reward_expectancy_bt,2022.2.4,MacIntel,60.0024001,Chrome,1440,900,,,,,0,1212,,,,,,,,,,,,,,,,,F,181,triangle,0,0,,,,,,,,,,,,,,,,repeat,number,NA,j,0.4971,Lo,,,,,,5,,,,,,,,high,6,0,6,0,1,,,,,,,,,
296323,2022-11-27_18h43.35.881,vts_reward_expectancy_bt,2022.2.4,MacIntel,60.0024001,Chrome,1440,900,,,,,10,1222,,,,,,,,,,,,,,,,,H,132,hexagon,1,1,,,,,,,,,,,,,,,,repeat,number,numRpt,j,0.465,Hi,,,,,,5,,,,,,,,high,7,0,7,0,1,,,,,,,,,
296323,2022-11-27_18h43.35.881,vts_reward_expectancy_bt,2022.2.4,MacIntel,60.0024001,Chrome,1440,900,,,,,1,1223,,,,,,,,,,,,,,,,,D,146,circle,1,0,,,,,,,,,,,,,,,,repeat,number,numRpt,j,0.4658,Lo,,,,,,5,,,,,,,,high,8,0,8,0,1,,,,,,,,,
296323,2022-11-27_18h43.35.881,vts_reward_expectancy_bt,2022.2.4,MacIntel,60.0024001,Chrome,1440,900,,,,,10,1233,,,,,,,,,,,,,,,,,Y,174,hexagon,1,0,,,,,,,,,,,,,,,,repeat,number,numRpt,k,0.4181,Hi,,,,,,5,,,,,,,,high,9,0,9,0,1,,,,,,,,,
296323,2022-11-27_18h43.35.881,vts_reward_expectancy_bt,2022.2.4,MacIntel,60.0024001,Chrome,1440,900,,,,,10,1243,,,,,,,,,,,,,,,,,B,160,star,1,0,,,,,,,,,,,,,,,,switch,letter,lettSwt,d,0.3931,Lo,,,,,,5,,,,,,,,high,10,0,10,0,1,,,,,,,,,
296323,2022-11-27_18h43.35.881,vts_reward_expectancy_bt,2022.2.4,MacIntel,60.0024001,Chrome,1440,900,,,,,0,1243,,,,,,,,,,,,,,,,,U,167,triangle,1,0,,,,,,,,,,,,,,,,repeat,letter,lettRpt,f,0.5477,Hi,,,,,,5,,,,,,,,high,11,0,11,0,1,,,,,,,,,
296323,2022-11-27_18h43.35.881,vts_reward_expectancy_bt,2022.2.4,MacIntel,60.0024001,Chrome,1440,900,,,,,0,1243,,,,,,,,,,,,,,,,,S,139,triangle,1,0,,,,,,,,,,,,,,,,repeat,letter,lettRpt,f,0.5345,Hi,,,,,,5,,,,,,,,high,12,0,12,0,1,,,,,,,,,
296323,2022-11-27_18h43.35.881,vts_reward_expectancy_bt,2022.2.4,MacIntel,60.0024001,Chrome,1440,900,,,,,1,1244,,,,,,,,,,,,,,,,,W,125,star,1,0,,,,,,,,,,,,,,,,repeat,letter,lettRpt,f,0.5627,Lo,,,,,,5,,,,,,,,high,13,0,13,0,1,,,,,,,,,
296323,2022-11-27_18h43.35.881,vts_reward_expectancy_bt,2022.2.4,MacIntel,60.0024001,Chrome,1440,900,,,,,0,1244,,,,,,,,,,,,,,,,,F,181,hexagon,0,0,,,,,,,,,,,,,,,,repeat,letter,NA,f,0.4851,Lo,,,,,,5,,,,,,,,high,14,0,14,0,1,,,,,,,,,
296323,2022-11-27_18h43.35.881,vts_reward_expectancy_bt,2022.2.4,MacIntel,60.0024001,Chrome,1440,900,,,,,10,1254,,,,,,,,,,,,,,,,,H,132,circle,1,1,,,,,,,,,,,,,,,,repeat,letter,lettRpt,d,0.6973,Lo,,,,,,5,,,,,,,,high,15,0,15,0,1,,,,,,,,,
296323,2022-11-27_18h43.35.881,vts_reward_expectancy_bt,2022.2.4,MacIntel,60.0024001,Chrome,1440,900,,,,,10,1264,,,,,,,,,,,,,,,,,H,174,circle,1,0,,,,,,,,,,,,,,,,switch,number,numSwt,k,0.5192,Lo,,,,,,5,,,,,,,,high,16,0,16,0,1,,,,,,,,,
296323,2022-11-27_18h43.35.881,vts_reward_expectancy_bt,2022.2.4,MacIntel,60.0024001,Chrome,1440,900,,,,,10,1274,,,,,,,,,,,,,,,,,B,167,triangle,1,0,,,,,,,,,,,,,,,,repeat,number,numRpt,k,0.5194,Hi,,,,,,5,,,,,,,,high,17,0,17,0,1,,,,,,,,,
296323,2022-11-27_18h43.35.881,vts_reward_expectancy_bt,2022.2.4,MacIntel,60.0024001,Chrome,1440,900,,,,,1,1275,,,,,,,,,,,,,,,,,W,139,star,1,0,,,,,,,,,,,,,,,,repeat,number,numRpt,j,0.7647,Lo,,,,,,5,,,,,,,,high,18,0,18,0,1,,,,,,,,,
296323,2022-11-27_18h43.35.881,vts_reward_expectancy_bt,2022.2.4,MacIntel,60.0024001,Chrome,1440,900,,,,,0,1275,,,,,,,,,,,,,,,,,U,146,hexagon,1,0,,,,,,,,,,,,,,,,repeat,number,numRpt,j,0.5641,Hi,,,,,,5,,,,,,,,high,19,0,19,0,1,,,,,,,,,
296323,2022-11-27_18h43.35.881,vts_reward_expectancy_bt,2022.2.4,MacIntel,60.0024001,Chrome,1440,900,,,,,10,1285,,,,,,,,,,,,,,,,,F,132,triangle,1,0,,,,,,,,,,,,,,,,repeat,number,numRpt,j,0.4976,Hi,,,,,,5,,,,,,,,high,20,0,20,0,1,,,,,,,,,
296323,2022-11-27_18h43.35.881,vts_reward_expectancy_bt,2022.2.4,MacIntel,60.0024001,Chrome,1440,900,,,,,1,1286,,,,,,,,,,,,,,,,,S,181,star,1,0,,,,,,,,,,,,,,,,repeat,number,numRpt,k,0.6292,Lo,,,,,,5,,,,,,,,high,21,0,21,0,1,,,,,,,,,
296323,2022-11-27_18h43.35.881,vts_reward_expectancy_bt,2022.2.4,MacIntel,60.0024001,Chrome,1440,900,,,,,0,1286,,,,,,,,,,,,,,,,,D,160,circle,0,0,,,,,,,,,,,,,,,,repeat,number,NA,j,0.5645,Lo,,,,,,5,,,,,,,,high,22,0,22,0,1,,,,,,,,,
296323,2022-11-27_18h43.35.881,vts_reward_expectancy_bt,2022.2.4,MacIntel,60.0024001,Chrome,1440,900,,,,,10,1296,,,,,,,,,,,,,,,,,Y,125,hexagon,1,1,,,,,,,,,,,,,,,,repeat,number,numRpt,j,0.481,Hi,,,,,,5,,,,,,,,high,23,0,23,0,1,,,,,,,,,
296323,2022-11-27_18h43.35.881,vts_reward_expectancy_bt,2022.2.4,MacIntel,60.0024001,Chrome,1440,900,,,,,1,1297,,,,,,,,,,,,,,,,,F,125,circle,1,0,,,,,,,,,,,,,,,,switch,letter,lettSwt,d,0.7553,Lo,,,,,,5,,,,,,,,high,24,0,24,0,1,,,,,,,,,
296323,2022-11-27_18h43.35.881,vts_reward_expectancy_bt,2022.2.4,MacIntel,60.0024001,Chrome,1440,900,,,,,1,1298,,,,,,,,,,,,,,,,,D,160,star,1,0,,,,,,,,,,,,,,,,repeat,letter,lettRpt,d,0.5212,Lo,,,,,,5,,,,,,,,high,25,0,25,0,1,,,,,,,,,
296323,2022-11-27_18h43.35.881,vts_reward_expectancy_bt,2022.2.4,MacIntel,60.0024001,Chrome,1440,900,,,,,0,1298,,,,,,,,,,,,,,,,,S,146,hexagon,0,0,,,,,,,,,,,,,,,,repeat,letter,NA,d,0.5516,Lo,,,,,,5,,,,,,,,high,26,0,26,0,1,,,,,,,,,
296323,2022-11-27_18h43.35.881,vts_reward_expectancy_bt,2022.2.4,MacIntel,60.0024001,Chrome,1440,900,,,,,0,1298,,,,,,,,,,,,,,,,,H,181,triangle,1,1,,,,,,,,,,,,,,,,repeat,letter,lettRpt,d,0.5476,Hi,,,,,,5,,,,,,,,high,27,0,27,0,1,,,,,,,,,
296323,2022-11-27_18h43.35.881,vts_reward_expectancy_bt,2022.2.4,MacIntel,60.0024001,Chrome,1440,900,,,,,0,1298,,,,,,,,,,,,,,,,,B,139,triangle,1,0,,,,,,,,,,,,,,,,repeat,letter,lettRpt,d,0.5202,Hi,,,,,,5,,,,,,,,high,28,0,28,0,1,,,,,,,,,
296323,2022-11-27_18h43.35.881,vts_reward_expectancy_bt,2022.2.4,MacIntel,60.0024001,Chrome,1440,900,,,,,1,1299,,,,,,,,,,,,,,,,,U,132,star,1,0,,,,,,,,,,,,,,,,repeat,letter,lettRpt,f,0.5308,Lo,,,,,,5,,,,,,,,high,29,0,29,0,1,,,,,,,,,
296323,2022-11-27_18h43.35.881,vts_reward_expectancy_bt,2022.2.4,MacIntel,60.0024001,Chrome,1440,900,,,,,0,1299,,,,,,,,,,,,,,,,,Y,167,hexagon,1,0,,,,,,,,,,,,,,,,repeat,letter,lettRpt,f,0.5315,Hi,,,,,,5,,,,,,,,high,30,0,30,0,1,,,,,,,,,
296323,2022-11-27_18h43.35.881,vts_reward_expectancy_bt,2022.2.4,MacIntel,60.0024001,Chrome,1440,900,,,,,1,1300,,,,,,,,,,,,,,,,,W,174,circle,1,0,,,,,,,,,,,,,,,,switch,number,numSwt,k,0.4195,Lo,,,,,,5,,,,,,,,high,31,0,31,0,1,,,,,,,,,
296323,2022-11-27_18h43.35.881,vts_reward_expectancy_bt,2022.2.4,MacIntel,60.0024001,Chrome,1440,900,,,,,0,1300,,,,,,,,,,,,,,,,,F,146,triangle,1,0,,,,,,,,,,,,,,,,switch,letter,lettSwt,d,0.6705,Hi,,,,,,6,,,,,,space,0.8602,high,0,0,0,0,1,,,,,,,,,
296323,2022-11-27_18h43.35.881,vts_reward_expectancy_bt,2022.2.4,MacIntel,60.0024001,Chrome,1440,900,,,,,0,1300,,,,,,,,,,,,,,,,,W,181,hexagon,1,0,,,,,,,,,,,,,,,,switch,number,numSwt,k,0.4641,Hi,,,,,,6,,,,,,,,high,1,0,1,0,1,,,,,,,,,
296323,2022-11-27_18h43.35.881,vts_reward_expectancy_bt,2022.2.4,MacIntel,60.0024001,Chrome,1440,900,,,,,1,1301,,,,,,,,,,,,,,,,,Y,125,circle,1,0,,,,,,,,,,,,,,,,repeat,number,numRpt,j,0.3299,Lo,,,,,,6,,,,,,,,high,2,0,2,0,1,,,,,,,,,
