participant,date,expName,psychopyVersion,OS,frameRate,browser,xResolution,yResolution,key_resp.keys,key_resp.rt,training_resp.keys,training_resp.rt,points_trial,points_cumul,trainBlock,training.thisRepN,training.thisTrialN,training.thisN,training.thisIndex,training.ran,LTriangleOpac,LCircleOpac,LHexagonOpac,LStarOpac,RTriangleOpac,RCircleOpac,RHexagonOpac,RStarOpac,LShape_ID,RShape_ID,curr_topStim,curr_bottStim,curr_shape,acc,E1,target_resp_prac1.keys,pracBlock,task1_prac_trials.thisRepN,task1_prac_trials.thisTrialN,task1_prac_trials.thisN,task1_prac_trials.thisIndex,task1_prac_trials.ran,target_resp_prac1.rt,target_resp_prac2.keys,target_resp_prac2.rt,task2_praac_trials.thisRepN,task2_praac_trials.thisTrialN,task2_praac_trials.thisN,task2_praac_trials.thisIndex,task2_praac_trials.ran,alt,task,condition,target_resp.keys,target_resp.rt,rewCond,vts_practice_trials.thisRepN,vts_practice_trials.thisTrialN,vts_practice_trials.thisN,vts_practice_trials.thisIndex,vts_practice_trials.ran,blockNum,trials_norew.thisRepN,trials_norew.thisTrialN,trials_norew.thisN,trials_norew.thisIndex,trials_norew.ran,key_resp_2.keys,key_resp_2.rt,rewExpectancy,trials_rew.thisRepN,trials_rew.thisTrialN,trials_rew.thisN,trials_rew.thisIndex,trials_rew.ran,Q1,Q2,Q2_text,Q3,Q4,Q5_text,Q5,xRes,yRes
296440,2022-11-29_11h16.34.218,vts_reward_expectancy_bt,2022.2.4,MacIntel,60.0024001,Chrome,1440,900,,,,,,,,,,,,,,,,,,,,,,,,,,,,,,,,,,,,,,,,,,,,,,,,,,,,,,,,,,,,,,,,,,,,,,,,,,,,
296440,2022-11-29_11h16.34.218,vts_reward_expectancy_bt,2022.2.4,MacIntel,60.0024001,Chrome,1440,900,space,1.3259,,,,,,,,,,,,,,,,,,,,,,,,,,,,,,,,,,,,,,,,,,,,,,,,,,,,,,,,,,,,,,,,,,,,,,,,,,
296440,2022-11-29_11h16.34.218,vts_reward_expectancy_bt,2022.2.4,MacIntel,60.0024001,Chrome,1440,900,,,,,,,,,,,,,,,,,,,,,,,,,,,,,,,,,,,,,,,,,,,,,,,,,,,,,,,,,,,,,,,,,,,,,,,,,,,,
296440,2022-11-29_11h16.34.218,vts_reward_expectancy_bt,2022.2.4,MacIntel,60.0024001,Chrome,1440,900,,,a,25.9162,1,1,0,0,0,0,2,1,1,0,0,0,0,0,0,1,triangle,star,,,,,,,,,,,,,,,,,,,,,,,,,,,,,,,,,,,,,,,,,,,,,,,,,,,,,,
296440,2022-11-29_11h16.34.218,vts_reward_expectancy_bt,2022.2.4,MacIntel,60.0024001,Chrome,1440,900,,,l,4.6019,10,11,0,0,1,1,4,1,0,1,0,0,0,0,1,0,circle,hexagon,,,,,,,,,,,,,,,,,,,,,,,,,,,,,,,,,,,,,,,,,,,,,,,,,,,,,,
296440,2022-11-29_11h16.34.218,vts_reward_expectancy_bt,2022.2.4,MacIntel,60.0024001,Chrome,1440,900,,,a,4.825,1,12,0,0,2,2,9,1,0,0,0,1,1,0,0,0,star,triangle,,,,,,,,,,,,,,,,,,,,,,,,,,,,,,,,,,,,,,,,,,,,,,,,,,,,,,
296440,2022-11-29_11h16.34.218,vts_reward_expectancy_bt,2022.2.4,MacIntel,60.0024001,Chrome,1440,900,,,l,4.5705,10,22,0,0,3,3,10,1,0,0,0,1,0,1,0,0,star ,circle,,,,,,,,,,,,,,,,,,,,,,,,,,,,,,,,,,,,,,,,,,,,,,,,,,,,,,
296440,2022-11-29_11h16.34.218,vts_reward_expectancy_bt,2022.2.4,MacIntel,60.0024001,Chrome,1440,900,,,a,3.0722,1,23,0,0,4,4,11,1,0,0,0,1,0,0,1,0,star,hexagon,,,,,,,,,,,,,,,,,,,,,,,,,,,,,,,,,,,,,,,,,,,,,,,,,,,,,,
296440,2022-11-29_11h16.34.218,vts_reward_expectancy_bt,2022.2.4,MacIntel,60.0024001,Chrome,1440,900,,,a,7.1186,1,24,0,0,5,5,6,1,0,0,1,0,1,0,0,0,hexagon,triangle,,,,,,,,,,,,,,,,,,,,,,,,,,,,,,,,,,,,,,,,,,,,,,,,,,,,,,
296440,2022-11-29_11h16.34.218,vts_reward_expectancy_bt,2022.2.4,MacIntel,60.0024001,Chrome,1440,900,,,a,0.7831,1,25,0,0,6,6,3,1,0,1,0,0,1,0,0,0,circle,triangle,,,,,,,,,,,,,,,,,,,,,,,,,,,,,,,,,,,,,,,,,,,,,,,,,,,,,,
296440,2022-11-29_11h16.34.218,vts_reward_expectancy_bt,2022.2.4,MacIntel,60.0024001,Chrome,1440,900,,,l,0.4227,1,26,0,0,7,7,7,1,0,0,1,0,0,1,0,0,hexagon,circle,,,,,,,,,,,,,,,,,,,,,,,,,,,,,,,,,,,,,,,,,,,,,,,,,,,,,,
296440,2022-11-29_11h16.34.218,vts_reward_expectancy_bt,2022.2.4,MacIntel,60.0024001,Chrome,1440,900,,,l,0.7263,1,27,0,0,8,8,1,1,1,0,0,0,0,0,1,0,triangle,hexagon,,,,,,,,,,,,,,,,,,,,,,,,,,,,,,,,,,,,,,,,,,,,,,,,,,,,,,
296440,2022-11-29_11h16.34.218,vts_reward_expectancy_bt,2022.2.4,MacIntel,60.0024001,Chrome,1440,900,,,a,0.437,1,28,0,0,9,9,8,1,0,0,1,0,0,0,0,1,hexagon,star,,,,,,,,,,,,,,,,,,,,,,,,,,,,,,,,,,,,,,,,,,,,,,,,,,,,,,
296440,2022-11-29_11h16.34.218,vts_reward_expectancy_bt,2022.2.4,MacIntel,60.0024001,Chrome,1440,900,,,l,0.3475,10,38,0,0,10,10,0,1,1,0,0,0,0,1,0,0,triangle,circle,,,,,,,,,,,,,,,,,,,,,,,,,,,,,,,,,,,,,,,,,,,,,,,,,,,,,,
296440,2022-11-29_11h16.34.218,vts_reward_expectancy_bt,2022.2.4,MacIntel,60.0024001,Chrome,1440,900,,,l,2.5178,1,39,0,0,11,11,5,1,0,1,0,0,0,0,0,1,circle,star,,,,,,,,,,,,,,,,,,,,,,,,,,,,,,,,,,,,,,,,,,,,,,,,,,,,,,
296440,2022-11-29_11h16.34.218,vts_reward_expectancy_bt,2022.2.4,MacIntel,60.0024001,Chrome,1440,900,,,l,1.0013,10,49,0,1,0,12,0,1,1,0,0,0,0,1,0,0,triangle,circle,,,,,,,,,,,,,,,,,,,,,,,,,,,,,,,,,,,,,,,,,,,,,,,,,,,,,,
296440,2022-11-29_11h16.34.218,vts_reward_expectancy_bt,2022.2.4,MacIntel,60.0024001,Chrome,1440,900,,,a,0.9652,1,50,0,1,1,13,2,1,1,0,0,0,0,0,0,1,triangle,star,,,,,,,,,,,,,,,,,,,,,,,,,,,,,,,,,,,,,,,,,,,,,,,,,,,,,,
296440,2022-11-29_11h16.34.218,vts_reward_expectancy_bt,2022.2.4,MacIntel,60.0024001,Chrome,1440,900,,,l,0.8232,10,60,0,1,2,14,6,1,0,0,1,0,1,0,0,0,hexagon,triangle,,,,,,,,,,,,,,,,,,,,,,,,,,,,,,,,,,,,,,,,,,,,,,,,,,,,,,
296440,2022-11-29_11h16.34.218,vts_reward_expectancy_bt,2022.2.4,MacIntel,60.0024001,Chrome,1440,900,,,a,0.5755,10,70,0,1,3,15,10,1,0,0,0,1,0,1,0,0,star ,circle,,,,,,,,,,,,,,,,,,,,,,,,,,,,,,,,,,,,,,,,,,,,,,,,,,,,,,
296440,2022-11-29_11h16.34.218,vts_reward_expectancy_bt,2022.2.4,MacIntel,60.0024001,Chrome,1440,900,,,a,0.8758,10,80,0,1,4,16,7,1,0,0,1,0,0,1,0,0,hexagon,circle,,,,,,,,,,,,,,,,,,,,,,,,,,,,,,,,,,,,,,,,,,,,,,,,,,,,,,
296440,2022-11-29_11h16.34.218,vts_reward_expectancy_bt,2022.2.4,MacIntel,60.0024001,Chrome,1440,900,,,a,0.7618,1,81,0,1,5,17,11,1,0,0,0,1,0,0,1,0,star,hexagon,,,,,,,,,,,,,,,,,,,,,,,,,,,,,,,,,,,,,,,,,,,,,,,,,,,,,,
296440,2022-11-29_11h16.34.218,vts_reward_expectancy_bt,2022.2.4,MacIntel,60.0024001,Chrome,1440,900,,,l,1.9738,10,91,0,1,6,18,3,1,0,1,0,0,1,0,0,0,circle,triangle,,,,,,,,,,,,,,,,,,,,,,,,,,,,,,,,,,,,,,,,,,,,,,,,,,,,,,
296440,2022-11-29_11h16.34.218,vts_reward_expectancy_bt,2022.2.4,MacIntel,60.0024001,Chrome,1440,900,,,l,1.3536,1,92,0,1,7,19,1,1,1,0,0,0,0,0,1,0,triangle,hexagon,,,,,,,,,,,,,,,,,,,,,,,,,,,,,,,,,,,,,,,,,,,,,,,,,,,,,,
296440,2022-11-29_11h16.34.218,vts_reward_expectancy_bt,2022.2.4,MacIntel,60.0024001,Chrome,1440,900,,,l,1.703,10,102,0,1,8,20,9,1,0,0,0,1,1,0,0,0,star,triangle,,,,,,,,,,,,,,,,,,,,,,,,,,,,,,,,,,,,,,,,,,,,,,,,,,,,,,
296440,2022-11-29_11h16.34.218,vts_reward_expectancy_bt,2022.2.4,MacIntel,60.0024001,Chrome,1440,900,,,a,0.8692,1,103,0,1,9,21,4,1,0,1,0,0,0,0,1,0,circle,hexagon,,,,,,,,,,,,,,,,,,,,,,,,,,,,,,,,,,,,,,,,,,,,,,,,,,,,,,
296440,2022-11-29_11h16.34.218,vts_reward_expectancy_bt,2022.2.4,MacIntel,60.0024001,Chrome,1440,900,,,a,2.1359,1,104,0,1,10,22,5,1,0,1,0,0,0,0,0,1,circle,star,,,,,,,,,,,,,,,,,,,,,,,,,,,,,,,,,,,,,,,,,,,,,,,,,,,,,,
296440,2022-11-29_11h16.34.218,vts_reward_expectancy_bt,2022.2.4,MacIntel,60.0024001,Chrome,1440,900,,,l,0.4813,10,114,0,1,11,23,8,1,0,0,1,0,0,0,0,1,hexagon,star,,,,,,,,,,,,,,,,,,,,,,,,,,,,,,,,,,,,,,,,,,,,,,,,,,,,,,
296440,2022-11-29_11h16.34.218,vts_reward_expectancy_bt,2022.2.4,MacIntel,60.0024001,Chrome,1440,900,,,l,0.8308,10,124,0,2,0,24,9,1,0,0,0,1,1,0,0,0,star,triangle,,,,,,,,,,,,,,,,,,,,,,,,,,,,,,,,,,,,,,,,,,,,,,,,,,,,,,
296440,2022-11-29_11h16.34.218,vts_reward_expectancy_bt,2022.2.4,MacIntel,60.0024001,Chrome,1440,900,,,a,0.4823,10,134,0,2,1,25,8,1,0,0,1,0,0,0,0,1,hexagon,star,,,,,,,,,,,,,,,,,,,,,,,,,,,,,,,,,,,,,,,,,,,,,,,,,,,,,,
296440,2022-11-29_11h16.34.218,vts_reward_expectancy_bt,2022.2.4,MacIntel,60.0024001,Chrome,1440,900,,,l,1.2616,10,144,0,2,2,26,1,1,1,0,0,0,0,0,1,0,triangle,hexagon,,,,,,,,,,,,,,,,,,,,,,,,,,,,,,,,,,,,,,,,,,,,,,,,,,,,,,
296440,2022-11-29_11h16.34.218,vts_reward_expectancy_bt,2022.2.4,MacIntel,60.0024001,Chrome,1440,900,,,a,0.6675,10,154,0,2,3,27,2,1,1,0,0,0,0,0,0,1,triangle,star,,,,,,,,,,,,,,,,,,,,,,,,,,,,,,,,,,,,,,,,,,,,,,,,,,,,,,
296440,2022-11-29_11h16.34.218,vts_reward_expectancy_bt,2022.2.4,MacIntel,60.0024001,Chrome,1440,900,,,a,0.7,10,164,0,2,4,28,10,1,0,0,0,1,0,1,0,0,star ,circle,,,,,,,,,,,,,,,,,,,,,,,,,,,,,,,,,,,,,,,,,,,,,,,,,,,,,,
296440,2022-11-29_11h16.34.218,vts_reward_expectancy_bt,2022.2.4,MacIntel,60.0024001,Chrome,1440,900,,,l,0.7502,1,165,0,2,5,29,4,1,0,1,0,0,0,0,1,0,circle,hexagon,,,,,,,,,,,,,,,,,,,,,,,,,,,,,,,,,,,,,,,,,,,,,,,,,,,,,,
296440,2022-11-29_11h16.34.218,vts_reward_expectancy_bt,2022.2.4,MacIntel,60.0024001,Chrome,1440,900,,,l,0.5684,1,166,0,2,6,30,5,1,0,1,0,0,0,0,0,1,circle,star,,,,,,,,,,,,,,,,,,,,,,,,,,,,,,,,,,,,,,,,,,,,,,,,,,,,,,
296440,2022-11-29_11h16.34.218,vts_reward_expectancy_bt,2022.2.4,MacIntel,60.0024001,Chrome,1440,900,,,l,0.5303,1,167,0,2,7,31,7,1,0,0,1,0,0,1,0,0,hexagon,circle,,,,,,,,,,,,,,,,,,,,,,,,,,,,,,,,,,,,,,,,,,,,,,,,,,,,,,
296440,2022-11-29_11h16.34.218,vts_reward_expectancy_bt,2022.2.4,MacIntel,60.0024001,Chrome,1440,900,,,l,0.3811,10,177,0,2,8,32,11,1,0,0,0,1,0,0,1,0,star,hexagon,,,,,,,,,,,,,,,,,,,,,,,,,,,,,,,,,,,,,,,,,,,,,,,,,,,,,,
296440,2022-11-29_11h16.34.218,vts_reward_expectancy_bt,2022.2.4,MacIntel,60.0024001,Chrome,1440,900,,,a,0.7496,10,187,0,2,9,33,0,1,1,0,0,0,0,1,0,0,triangle,circle,,,,,,,,,,,,,,,,,,,,,,,,,,,,,,,,,,,,,,,,,,,,,,,,,,,,,,
296440,2022-11-29_11h16.34.218,vts_reward_expectancy_bt,2022.2.4,MacIntel,60.0024001,Chrome,1440,900,,,l,0.9158,1,188,0,2,10,34,6,1,0,0,1,0,1,0,0,0,hexagon,triangle,,,,,,,,,,,,,,,,,,,,,,,,,,,,,,,,,,,,,,,,,,,,,,,,,,,,,,
296440,2022-11-29_11h16.34.218,vts_reward_expectancy_bt,2022.2.4,MacIntel,60.0024001,Chrome,1440,900,,,a,0.5675,1,189,0,2,11,35,3,1,0,1,0,0,1,0,0,0,circle,triangle,,,,,,,,,,,,,,,,,,,,,,,,,,,,,,,,,,,,,,,,,,,,,,,,,,,,,,
296440,2022-11-29_11h16.34.218,vts_reward_expectancy_bt,2022.2.4,MacIntel,60.0024001,Chrome,1440,900,,,l,2.0996,1,190,1,0,0,0,1,1,1,0,0,0,0,0,1,0,triangle,hexagon,,,,,,,,,,,,,,,,,,,,,,,,,,,,,,,,,,,,,,,,,,,,,,,,,,,,,,
296440,2022-11-29_11h16.34.218,vts_reward_expectancy_bt,2022.2.4,MacIntel,60.0024001,Chrome,1440,900,,,a,1.0935,10,200,1,0,1,1,2,1,1,0,0,0,0,0,0,1,triangle,star,,,,,,,,,,,,,,,,,,,,,,,,,,,,,,,,,,,,,,,,,,,,,,,,,,,,,,
296440,2022-11-29_11h16.34.218,vts_reward_expectancy_bt,2022.2.4,MacIntel,60.0024001,Chrome,1440,900,,,l,0.9072,1,201,1,0,2,2,6,1,0,0,1,0,1,0,0,0,hexagon,triangle,,,,,,,,,,,,,,,,,,,,,,,,,,,,,,,,,,,,,,,,,,,,,,,,,,,,,,
296440,2022-11-29_11h16.34.218,vts_reward_expectancy_bt,2022.2.4,MacIntel,60.0024001,Chrome,1440,900,,,l,1.2666,1,202,1,0,3,3,3,1,0,1,0,0,1,0,0,0,circle,triangle,,,,,,,,,,,,,,,,,,,,,,,,,,,,,,,,,,,,,,,,,,,,,,,,,,,,,,
296440,2022-11-29_11h16.34.218,vts_reward_expectancy_bt,2022.2.4,MacIntel,60.0024001,Chrome,1440,900,,,l,1.2555,1,203,1,0,4,4,9,1,0,0,0,1,1,0,0,0,star,triangle,,,,,,,,,,,,,,,,,,,,,,,,,,,,,,,,,,,,,,,,,,,,,,,,,,,,,,
296440,2022-11-29_11h16.34.218,vts_reward_expectancy_bt,2022.2.4,MacIntel,60.0024001,Chrome,1440,900,,,l,0.784,10,213,1,0,5,5,10,1,0,0,0,1,0,1,0,0,star ,circle,,,,,,,,,,,,,,,,,,,,,,,,,,,,,,,,,,,,,,,,,,,,,,,,,,,,,,
296440,2022-11-29_11h16.34.218,vts_reward_expectancy_bt,2022.2.4,MacIntel,60.0024001,Chrome,1440,900,,,a,2.7912,1,214,1,0,6,6,8,1,0,0,1,0,0,0,0,1,hexagon,star,,,,,,,,,,,,,,,,,,,,,,,,,,,,,,,,,,,,,,,,,,,,,,,,,,,,,,
296440,2022-11-29_11h16.34.218,vts_reward_expectancy_bt,2022.2.4,MacIntel,60.0024001,Chrome,1440,900,,,l,1.7103,1,215,1,0,7,7,0,1,1,0,0,0,0,1,0,0,triangle,circle,,,,,,,,,,,,,,,,,,,,,,,,,,,,,,,,,,,,,,,,,,,,,,,,,,,,,,
296440,2022-11-29_11h16.34.218,vts_reward_expectancy_bt,2022.2.4,MacIntel,60.0024001,Chrome,1440,900,,,l,2.3895,1,216,1,0,8,8,4,1,0,1,0,0,0,0,1,0,circle,hexagon,,,,,,,,,,,,,,,,,,,,,,,,,,,,,,,,,,,,,,,,,,,,,,,,,,,,,,
296440,2022-11-29_11h16.34.218,vts_reward_expectancy_bt,2022.2.4,MacIntel,60.0024001,Chrome,1440,900,,,a,0.935,1,217,1,0,9,9,5,1,0,1,0,0,0,0,0,1,circle,star,,,,,,,,,,,,,,,,,,,,,,,,,,,,,,,,,,,,,,,,,,,,,,,,,,,,,,
296440,2022-11-29_11h16.34.218,vts_reward_expectancy_bt,2022.2.4,MacIntel,60.0024001,Chrome,1440,900,,,l,1.8446,1,218,1,0,10,10,11,1,0,0,0,1,0,0,1,0,star,hexagon,,,,,,,,,,,,,,,,,,,,,,,,,,,,,,,,,,,,,,,,,,,,,,,,,,,,,,
296440,2022-11-29_11h16.34.218,vts_reward_expectancy_bt,2022.2.4,MacIntel,60.0024001,Chrome,1440,900,,,l,1.4048,10,228,1,0,11,11,7,1,0,0,1,0,0,1,0,0,hexagon,circle,,,,,,,,,,,,,,,,,,,,,,,,,,,,,,,,,,,,,,,,,,,,,,,,,,,,,,
296440,2022-11-29_11h16.34.218,vts_reward_expectancy_bt,2022.2.4,MacIntel,60.0024001,Chrome,1440,900,,,l,0.6275,1,229,1,1,0,12,10,1,0,0,0,1,0,1,0,0,star ,circle,,,,,,,,,,,,,,,,,,,,,,,,,,,,,,,,,,,,,,,,,,,,,,,,,,,,,,
296440,2022-11-29_11h16.34.218,vts_reward_expectancy_bt,2022.2.4,MacIntel,60.0024001,Chrome,1440,900,,,l,0.7688,10,239,1,1,1,13,4,1,0,1,0,0,0,0,1,0,circle,hexagon,,,,,,,,,,,,,,,,,,,,,,,,,,,,,,,,,,,,,,,,,,,,,,,,,,,,,,
296440,2022-11-29_11h16.34.218,vts_reward_expectancy_bt,2022.2.4,MacIntel,60.0024001,Chrome,1440,900,,,a,1.6728,1,240,1,1,2,14,3,1,0,1,0,0,1,0,0,0,circle,triangle,,,,,,,,,,,,,,,,,,,,,,,,,,,,,,,,,,,,,,,,,,,,,,,,,,,,,,
296440,2022-11-29_11h16.34.218,vts_reward_expectancy_bt,2022.2.4,MacIntel,60.0024001,Chrome,1440,900,,,l,0.8144,10,250,1,1,3,15,9,1,0,0,0,1,1,0,0,0,star,triangle,,,,,,,,,,,,,,,,,,,,,,,,,,,,,,,,,,,,,,,,,,,,,,,,,,,,,,
296440,2022-11-29_11h16.34.218,vts_reward_expectancy_bt,2022.2.4,MacIntel,60.0024001,Chrome,1440,900,,,a,2.0066,10,260,1,1,4,16,11,1,0,0,0,1,0,0,1,0,star,hexagon,,,,,,,,,,,,,,,,,,,,,,,,,,,,,,,,,,,,,,,,,,,,,,,,,,,,,,
296440,2022-11-29_11h16.34.218,vts_reward_expectancy_bt,2022.2.4,MacIntel,60.0024001,Chrome,1440,900,,,l,1.7044,1,261,1,1,5,17,8,1,0,0,1,0,0,0,0,1,hexagon,star,,,,,,,,,,,,,,,,,,,,,,,,,,,,,,,,,,,,,,,,,,,,,,,,,,,,,,
296440,2022-11-29_11h16.34.218,vts_reward_expectancy_bt,2022.2.4,MacIntel,60.0024001,Chrome,1440,900,,,l,0.8541,10,271,1,1,6,18,2,1,1,0,0,0,0,0,0,1,triangle,star,,,,,,,,,,,,,,,,,,,,,,,,,,,,,,,,,,,,,,,,,,,,,,,,,,,,,,
296440,2022-11-29_11h16.34.218,vts_reward_expectancy_bt,2022.2.4,MacIntel,60.0024001,Chrome,1440,900,,,a,0.5293,1,272,1,1,7,19,5,1,0,1,0,0,0,0,0,1,circle,star,,,,,,,,,,,,,,,,,,,,,,,,,,,,,,,,,,,,,,,,,,,,,,,,,,,,,,
296440,2022-11-29_11h16.34.218,vts_reward_expectancy_bt,2022.2.4,MacIntel,60.0024001,Chrome,1440,900,,,a,1.8133,10,282,1,1,8,20,1,1,1,0,0,0,0,0,1,0,triangle,hexagon,,,,,,,,,,,,,,,,,,,,,,,,,,,,,,,,,,,,,,,,,,,,,,,,,,,,,,
296440,2022-11-29_11h16.34.218,vts_reward_expectancy_bt,2022.2.4,MacIntel,60.0024001,Chrome,1440,900,,,l,1.3955,1,283,1,1,9,21,0,1,1,0,0,0,0,1,0,0,triangle,circle,,,,,,,,,,,,,,,,,,,,,,,,,,,,,,,,,,,,,,,,,,,,,,,,,,,,,,
296440,2022-11-29_11h16.34.218,vts_reward_expectancy_bt,2022.2.4,MacIntel,60.0024001,Chrome,1440,900,,,l,0.7236,10,293,1,1,10,22,6,1,0,0,1,0,1,0,0,0,hexagon,triangle,,,,,,,,,,,,,,,,,,,,,,,,,,,,,,,,,,,,,,,,,,,,,,,,,,,,,,
296440,2022-11-29_11h16.34.218,vts_reward_expectancy_bt,2022.2.4,MacIntel,60.0024001,Chrome,1440,900,,,l,2.5758,1,294,1,1,11,23,7,1,0,0,1,0,0,1,0,0,hexagon,circle,,,,,,,,,,,,,,,,,,,,,,,,,,,,,,,,,,,,,,,,,,,,,,,,,,,,,,
296440,2022-11-29_11h16.34.218,vts_reward_expectancy_bt,2022.2.4,MacIntel,60.0024001,Chrome,1440,900,,,l,0.7886,10,304,1,2,0,24,6,1,0,0,1,0,1,0,0,0,hexagon,triangle,,,,,,,,,,,,,,,,,,,,,,,,,,,,,,,,,,,,,,,,,,,,,,,,,,,,,,
296440,2022-11-29_11h16.34.218,vts_reward_expectancy_bt,2022.2.4,MacIntel,60.0024001,Chrome,1440,900,,,a,0.4767,1,305,1,2,1,25,0,1,1,0,0,0,0,1,0,0,triangle,circle,,,,,,,,,,,,,,,,,,,,,,,,,,,,,,,,,,,,,,,,,,,,,,,,,,,,,,
296440,2022-11-29_11h16.34.218,vts_reward_expectancy_bt,2022.2.4,MacIntel,60.0024001,Chrome,1440,900,,,l,0.8895,10,315,1,2,2,26,1,1,1,0,0,0,0,0,1,0,triangle,hexagon,,,,,,,,,,,,,,,,,,,,,,,,,,,,,,,,,,,,,,,,,,,,,,,,,,,,,,
296440,2022-11-29_11h16.34.218,vts_reward_expectancy_bt,2022.2.4,MacIntel,60.0024001,Chrome,1440,900,,,l,13.498,10,325,1,2,3,27,8,1,0,0,1,0,0,0,0,1,hexagon,star,,,,,,,,,,,,,,,,,,,,,,,,,,,,,,,,,,,,,,,,,,,,,,,,,,,,,,
296440,2022-11-29_11h16.34.218,vts_reward_expectancy_bt,2022.2.4,MacIntel,60.0024001,Chrome,1440,900,,,a,42.1683,10,335,1,2,4,28,3,1,0,1,0,0,1,0,0,0,circle,triangle,,,,,,,,,,,,,,,,,,,,,,,,,,,,,,,,,,,,,,,,,,,,,,,,,,,,,,
296440,2022-11-29_11h16.34.218,vts_reward_expectancy_bt,2022.2.4,MacIntel,60.0024001,Chrome,1440,900,,,l,1.0994,1,336,1,2,5,29,2,1,1,0,0,0,0,0,0,1,triangle,star,,,,,,,,,,,,,,,,,,,,,,,,,,,,,,,,,,,,,,,,,,,,,,,,,,,,,,
296440,2022-11-29_11h16.34.218,vts_reward_expectancy_bt,2022.2.4,MacIntel,60.0024001,Chrome,1440,900,,,a,1.7222,1,337,1,2,6,30,10,1,0,0,0,1,0,1,0,0,star ,circle,,,,,,,,,,,,,,,,,,,,,,,,,,,,,,,,,,,,,,,,,,,,,,,,,,,,,,
296440,2022-11-29_11h16.34.218,vts_reward_expectancy_bt,2022.2.4,MacIntel,60.0024001,Chrome,1440,900,,,l,0.8968,10,347,1,2,7,31,9,1,0,0,0,1,1,0,0,0,star,triangle,,,,,,,,,,,,,,,,,,,,,,,,,,,,,,,,,,,,,,,,,,,,,,,,,,,,,,
296440,2022-11-29_11h16.34.218,vts_reward_expectancy_bt,2022.2.4,MacIntel,60.0024001,Chrome,1440,900,,,a,28.2687,1,348,1,2,8,32,11,1,0,0,0,1,0,0,1,0,star,hexagon,,,,,,,,,,,,,,,,,,,,,,,,,,,,,,,,,,,,,,,,,,,,,,,,,,,,,,
296440,2022-11-29_11h16.34.218,vts_reward_expectancy_bt,2022.2.4,MacIntel,60.0024001,Chrome,1440,900,,,l,4.0851,10,358,1,2,9,33,4,1,0,1,0,0,0,0,1,0,circle,hexagon,,,,,,,,,,,,,,,,,,,,,,,,,,,,,,,,,,,,,,,,,,,,,,,,,,,,,,
296440,2022-11-29_11h16.34.218,vts_reward_expectancy_bt,2022.2.4,MacIntel,60.0024001,Chrome,1440,900,,,l,1.1209,1,359,1,2,10,34,5,1,0,1,0,0,0,0,0,1,circle,star,,,,,,,,,,,,,,,,,,,,,,,,,,,,,,,,,,,,,,,,,,,,,,,,,,,,,,
296440,2022-11-29_11h16.34.218,vts_reward_expectancy_bt,2022.2.4,MacIntel,60.0024001,Chrome,1440,900,,,l,31.3483,10,369,1,2,11,35,7,1,0,0,1,0,0,1,0,0,hexagon,circle,,,,,,,,,,,,,,,,,,,,,,,,,,,,,,,,,,,,,,,,,,,,,,,,,,,,,,
296440,2022-11-29_11h16.34.218,vts_reward_expectancy_bt,2022.2.4,MacIntel,60.0024001,Chrome,1440,900,,,l,2.439,10,379,2,0,0,0,9,1,0,0,0,1,1,0,0,0,star,triangle,,,,,,,,,,,,,,,,,,,,,,,,,,,,,,,,,,,,,,,,,,,,,,,,,,,,,,
296440,2022-11-29_11h16.34.218,vts_reward_expectancy_bt,2022.2.4,MacIntel,60.0024001,Chrome,1440,900,,,a,1.3367,1,380,2,0,1,1,7,1,0,0,1,0,0,1,0,0,hexagon,circle,,,,,,,,,,,,,,,,,,,,,,,,,,,,,,,,,,,,,,,,,,,,,,,,,,,,,,
296440,2022-11-29_11h16.34.218,vts_reward_expectancy_bt,2022.2.4,MacIntel,60.0024001,Chrome,1440,900,,,l,3.6743,10,390,2,0,2,2,3,1,0,1,0,0,1,0,0,0,circle,triangle,,,,,,,,,,,,,,,,,,,,,,,,,,,,,,,,,,,,,,,,,,,,,,,,,,,,,,
296440,2022-11-29_11h16.34.218,vts_reward_expectancy_bt,2022.2.4,MacIntel,60.0024001,Chrome,1440,900,,,a,0.0405,10,400,2,0,3,3,2,1,1,0,0,0,0,0,0,1,triangle,star,,,,,,,,,,,,,,,,,,,,,,,,,,,,,,,,,,,,,,,,,,,,,,,,,,,,,,
296440,2022-11-29_11h16.34.218,vts_reward_expectancy_bt,2022.2.4,MacIntel,60.0024001,Chrome,1440,900,,,l,0.1976,10,410,2,0,4,4,8,1,0,0,1,0,0,0,0,1,hexagon,star,,,,,,,,,,,,,,,,,,,,,,,,,,,,,,,,,,,,,,,,,,,,,,,,,,,,,,
296440,2022-11-29_11h16.34.218,vts_reward_expectancy_bt,2022.2.4,MacIntel,60.0024001,Chrome,1440,900,,,l,0.7123,10,420,2,0,5,5,5,1,0,1,0,0,0,0,0,1,circle,star,,,,,,,,,,,,,,,,,,,,,,,,,,,,,,,,,,,,,,,,,,,,,,,,,,,,,,
296440,2022-11-29_11h16.34.218,vts_reward_expectancy_bt,2022.2.4,MacIntel,60.0024001,Chrome,1440,900,,,a,0.8865,1,421,2,0,6,6,4,1,0,1,0,0,0,0,1,0,circle,hexagon,,,,,,,,,,,,,,,,,,,,,,,,,,,,,,,,,,,,,,,,,,,,,,,,,,,,,,
296440,2022-11-29_11h16.34.218,vts_reward_expectancy_bt,2022.2.4,MacIntel,60.0024001,Chrome,1440,900,,,a,0.6064,1,422,2,0,7,7,0,1,1,0,0,0,0,1,0,0,triangle,circle,,,,,,,,,,,,,,,,,,,,,,,,,,,,,,,,,,,,,,,,,,,,,,,,,,,,,,
296440,2022-11-29_11h16.34.218,vts_reward_expectancy_bt,2022.2.4,MacIntel,60.0024001,Chrome,1440,900,,,a,5.386,10,432,2,0,8,8,11,1,0,0,0,1,0,0,1,0,star,hexagon,,,,,,,,,,,,,,,,,,,,,,,,,,,,,,,,,,,,,,,,,,,,,,,,,,,,,,
296440,2022-11-29_11h16.34.218,vts_reward_expectancy_bt,2022.2.4,MacIntel,60.0024001,Chrome,1440,900,,,l,0.2239,10,442,2,0,9,9,6,1,0,0,1,0,1,0,0,0,hexagon,triangle,,,,,,,,,,,,,,,,,,,,,,,,,,,,,,,,,,,,,,,,,,,,,,,,,,,,,,
296440,2022-11-29_11h16.34.218,vts_reward_expectancy_bt,2022.2.4,MacIntel,60.0024001,Chrome,1440,900,,,a,0.7594,1,443,2,0,10,10,1,1,1,0,0,0,0,0,1,0,triangle,hexagon,,,,,,,,,,,,,,,,,,,,,,,,,,,,,,,,,,,,,,,,,,,,,,,,,,,,,,
296440,2022-11-29_11h16.34.218,vts_reward_expectancy_bt,2022.2.4,MacIntel,60.0024001,Chrome,1440,900,,,l,0.5062,10,453,2,0,11,11,10,1,0,0,0,1,0,1,0,0,star ,circle,,,,,,,,,,,,,,,,,,,,,,,,,,,,,,,,,,,,,,,,,,,,,,,,,,,,,,
296440,2022-11-29_11h16.34.218,vts_reward_expectancy_bt,2022.2.4,MacIntel,60.0024001,Chrome,1440,900,,,a,0.5165,1,454,2,1,0,12,9,1,0,0,0,1,1,0,0,0,star,triangle,,,,,,,,,,,,,,,,,,,,,,,,,,,,,,,,,,,,,,,,,,,,,,,,,,,,,,
296440,2022-11-29_11h16.34.218,vts_reward_expectancy_bt,2022.2.4,MacIntel,60.0024001,Chrome,1440,900,,,l,0.2486,10,464,2,1,1,13,8,1,0,0,1,0,0,0,0,1,hexagon,star,,,,,,,,,,,,,,,,,,,,,,,,,,,,,,,,,,,,,,,,,,,,,,,,,,,,,,
296440,2022-11-29_11h16.34.218,vts_reward_expectancy_bt,2022.2.4,MacIntel,60.0024001,Chrome,1440,900,,,l,0.2486,10,474,2,1,2,14,3,1,0,1,0,0,1,0,0,0,circle,triangle,,,,,,,,,,,,,,,,,,,,,,,,,,,,,,,,,,,,,,,,,,,,,,,,,,,,,,
296440,2022-11-29_11h16.34.218,vts_reward_expectancy_bt,2022.2.4,MacIntel,60.0024001,Chrome,1440,900,,,l,0.0531,10,484,2,1,3,15,7,1,0,0,1,0,0,1,0,0,hexagon,circle,,,,,,,,,,,,,,,,,,,,,,,,,,,,,,,,,,,,,,,,,,,,,,,,,,,,,,
296440,2022-11-29_11h16.34.218,vts_reward_expectancy_bt,2022.2.4,MacIntel,60.0024001,Chrome,1440,900,,,l,0.2986,10,494,2,1,4,16,4,1,0,1,0,0,0,0,1,0,circle,hexagon,,,,,,,,,,,,,,,,,,,,,,,,,,,,,,,,,,,,,,,,,,,,,,,,,,,,,,
296440,2022-11-29_11h16.34.218,vts_reward_expectancy_bt,2022.2.4,MacIntel,60.0024001,Chrome,1440,900,,,l,0.2021,1,495,2,1,5,17,6,1,0,0,1,0,1,0,0,0,hexagon,triangle,,,,,,,,,,,,,,,,,,,,,,,,,,,,,,,,,,,,,,,,,,,,,,,,,,,,,,
296440,2022-11-29_11h16.34.218,vts_reward_expectancy_bt,2022.2.4,MacIntel,60.0024001,Chrome,1440,900,,,l,0.431,1,496,2,1,6,18,5,1,0,1,0,0,0,0,0,1,circle,star,,,,,,,,,,,,,,,,,,,,,,,,,,,,,,,,,,,,,,,,,,,,,,,,,,,,,,
296440,2022-11-29_11h16.34.218,vts_reward_expectancy_bt,2022.2.4,MacIntel,60.0024001,Chrome,1440,900,,,a,0.2464,1,497,2,1,7,19,11,1,0,0,0,1,0,0,1,0,star,hexagon,,,,,,,,,,,,,,,,,,,,,,,,,,,,,,,,,,,,,,,,,,,,,,,,,,,,,,
296440,2022-11-29_11h16.34.218,vts_reward_expectancy_bt,2022.2.4,MacIntel,60.0024001,Chrome,1440,900,,,l,0.0244,1,498,2,1,8,20,2,1,1,0,0,0,0,0,0,1,triangle,star,,,,,,,,,,,,,,,,,,,,,,,,,,,,,,,,,,,,,,,,,,,,,,,,,,,,,,
296440,2022-11-29_11h16.34.218,vts_reward_expectancy_bt,2022.2.4,MacIntel,60.0024001,Chrome,1440,900,,,l,0.1354,10,508,2,1,9,21,1,1,1,0,0,0,0,0,1,0,triangle,hexagon,,,,,,,,,,,,,,,,,,,,,,,,,,,,,,,,,,,,,,,,,,,,,,,,,,,,,,
296440,2022-11-29_11h16.34.218,vts_reward_expectancy_bt,2022.2.4,MacIntel,60.0024001,Chrome,1440,900,,,l,0.0223,10,518,2,1,10,22,0,1,1,0,0,0,0,1,0,0,triangle,circle,,,,,,,,,,,,,,,,,,,,,,,,,,,,,,,,,,,,,,,,,,,,,,,,,,,,,,
296440,2022-11-29_11h16.34.218,vts_reward_expectancy_bt,2022.2.4,MacIntel,60.0024001,Chrome,1440,900,,,l,0.086,10,528,2,1,11,23,10,1,0,0,0,1,0,1,0,0,star ,circle,,,,,,,,,,,,,,,,,,,,,,,,,,,,,,,,,,,,,,,,,,,,,,,,,,,,,,
296440,2022-11-29_11h16.34.218,vts_reward_expectancy_bt,2022.2.4,MacIntel,60.0024001,Chrome,1440,900,,,l,0.0999,1,529,2,2,0,24,5,1,0,1,0,0,0,0,0,1,circle,star,,,,,,,,,,,,,,,,,,,,,,,,,,,,,,,,,,,,,,,,,,,,,,,,,,,,,,
296440,2022-11-29_11h16.34.218,vts_reward_expectancy_bt,2022.2.4,MacIntel,60.0024001,Chrome,1440,900,,,l,0.0661,10,539,2,2,1,25,3,1,0,1,0,0,1,0,0,0,circle,triangle,,,,,,,,,,,,,,,,,,,,,,,,,,,,,,,,,,,,,,,,,,,,,,,,,,,,,,
296440,2022-11-29_11h16.34.218,vts_reward_expectancy_bt,2022.2.4,MacIntel,60.0024001,Chrome,1440,900,,,l,0.0788,1,540,2,2,2,26,8,1,0,0,1,0,0,0,0,1,hexagon,star,,,,,,,,,,,,,,,,,,,,,,,,,,,,,,,,,,,,,,,,,,,,,,,,,,,,,,
296440,2022-11-29_11h16.34.218,vts_reward_expectancy_bt,2022.2.4,MacIntel,60.0024001,Chrome,1440,900,,,l,0.419,10,550,2,2,3,27,6,1,0,0,1,0,1,0,0,0,hexagon,triangle,,,,,,,,,,,,,,,,,,,,,,,,,,,,,,,,,,,,,,,,,,,,,,,,,,,,,,
296440,2022-11-29_11h16.34.218,vts_reward_expectancy_bt,2022.2.4,MacIntel,60.0024001,Chrome,1440,900,,,l,0.3396,1,551,2,2,4,28,9,1,0,0,0,1,1,0,0,0,star,triangle,,,,,,,,,,,,,,,,,,,,,,,,,,,,,,,,,,,,,,,,,,,,,,,,,,,,,,
296440,2022-11-29_11h16.34.218,vts_reward_expectancy_bt,2022.2.4,MacIntel,60.0024001,Chrome,1440,900,,,l,0.3511,1,552,2,2,5,29,10,1,0,0,0,1,0,1,0,0,star ,circle,,,,,,,,,,,,,,,,,,,,,,,,,,,,,,,,,,,,,,,,,,,,,,,,,,,,,,
296440,2022-11-29_11h16.34.218,vts_reward_expectancy_bt,2022.2.4,MacIntel,60.0024001,Chrome,1440,900,,,l,0.382,10,562,2,2,6,30,7,1,0,0,1,0,0,1,0,0,hexagon,circle,,,,,,,,,,,,,,,,,,,,,,,,,,,,,,,,,,,,,,,,,,,,,,,,,,,,,,
296440,2022-11-29_11h16.34.218,vts_reward_expectancy_bt,2022.2.4,MacIntel,60.0024001,Chrome,1440,900,,,l,0.2973,1,563,2,2,7,31,2,1,1,0,0,0,0,0,0,1,triangle,star,,,,,,,,,,,,,,,,,,,,,,,,,,,,,,,,,,,,,,,,,,,,,,,,,,,,,,
296440,2022-11-29_11h16.34.218,vts_reward_expectancy_bt,2022.2.4,MacIntel,60.0024001,Chrome,1440,900,,,l,0.3442,1,564,2,2,8,32,11,1,0,0,0,1,0,0,1,0,star,hexagon,,,,,,,,,,,,,,,,,,,,,,,,,,,,,,,,,,,,,,,,,,,,,,,,,,,,,,
296440,2022-11-29_11h16.34.218,vts_reward_expectancy_bt,2022.2.4,MacIntel,60.0024001,Chrome,1440,900,,,l,0.3348,10,574,2,2,9,33,4,1,0,1,0,0,0,0,1,0,circle,hexagon,,,,,,,,,,,,,,,,,,,,,,,,,,,,,,,,,,,,,,,,,,,,,,,,,,,,,,
296440,2022-11-29_11h16.34.218,vts_reward_expectancy_bt,2022.2.4,MacIntel,60.0024001,Chrome,1440,900,,,l,0.3486,10,584,2,2,10,34,1,1,1,0,0,0,0,0,1,0,triangle,hexagon,,,,,,,,,,,,,,,,,,,,,,,,,,,,,,,,,,,,,,,,,,,,,,,,,,,,,,
296440,2022-11-29_11h16.34.218,vts_reward_expectancy_bt,2022.2.4,MacIntel,60.0024001,Chrome,1440,900,,,l,0.3344,10,594,2,2,11,35,0,1,1,0,0,0,0,1,0,0,triangle,circle,,,,,,,,,,,,,,,,,,,,,,,,,,,,,,,,,,,,,,,,,,,,,,,,,,,,,,
296440,2022-11-29_11h16.34.218,vts_reward_expectancy_bt,2022.2.4,MacIntel,60.0024001,Chrome,1440,900,,,,,,,,,,,,,,,,,,,,,,,160,W,triangle,0,0,,0,0,0,0,0,1,,,,,,,,,,,,,,,,,,,,,,,,,,,,,,,,,,,,,,,,,,
296440,2022-11-29_11h16.34.218,vts_reward_expectancy_bt,2022.2.4,MacIntel,60.0024001,Chrome,1440,900,,,,,,,,,,,,,,,,,,,,,,,132,Y,circle,1,1,d,0,1,0,1,0,1,0.6027,,,,,,,,,,,,,,,,,,,,,,,,,,,,,,,,,,,,,,,,,
296440,2022-11-29_11h16.34.218,vts_reward_expectancy_bt,2022.2.4,MacIntel,60.0024001,Chrome,1440,900,,,,,,,,,,,,,,,,,,,,,,,125,F,hexagon,1,0,d,0,2,0,2,0,1,0.5645,,,,,,,,,,,,,,,,,,,,,,,,,,,,,,,,,,,,,,,,,
296440,2022-11-29_11h16.34.218,vts_reward_expectancy_bt,2022.2.4,MacIntel,60.0024001,Chrome,1440,900,,,,,,,,,,,,,,,,,,,,,,,139,H,star,0,0,f,0,3,0,3,0,1,0.6978,,,,,,,,,,,,,,,,,,,,,,,,,,,,,,,,,,,,,,,,,
296440,2022-11-29_11h16.34.218,vts_reward_expectancy_bt,2022.2.4,MacIntel,60.0024001,Chrome,1440,900,,,,,,,,,,,,,,,,,,,,,,,146,S,triangle,1,1,d,0,4,0,4,0,1,0.6621,,,,,,,,,,,,,,,,,,,,,,,,,,,,,,,,,,,,,,,,,
296440,2022-11-29_11h16.34.218,vts_reward_expectancy_bt,2022.2.4,MacIntel,60.0024001,Chrome,1440,900,,,,,,,,,,,,,,,,,,,,,,,174,D,circle,1,0,f,0,5,0,5,0,1,0.494,,,,,,,,,,,,,,,,,,,,,,,,,,,,,,,,,,,,,,,,,
296440,2022-11-29_11h16.34.218,vts_reward_expectancy_bt,2022.2.4,MacIntel,60.0024001,Chrome,1440,900,,,,,,,,,,,,,,,,,,,,,,,167,B,hexagon,1,0,f,0,6,0,6,0,1,1.0096,,,,,,,,,,,,,,,,,,,,,,,,,,,,,,,,,,,,,,,,,
296440,2022-11-29_11h16.34.218,vts_reward_expectancy_bt,2022.2.4,MacIntel,60.0024001,Chrome,1440,900,,,,,,,,,,,,,,,,,,,,,,,181,U,star,1,0,f,0,7,0,7,0,1,0.479,,,,,,,,,,,,,,,,,,,,,,,,,,,,,,,,,,,,,,,,,
296440,2022-11-29_11h16.34.218,vts_reward_expectancy_bt,2022.2.4,MacIntel,60.0024001,Chrome,1440,900,,,,,,,,,,,,,,,,,,,,,,,160,W,triangle,1,0,f,0,8,0,8,0,1,0.8039,,,,,,,,,,,,,,,,,,,,,,,,,,,,,,,,,,,,,,,,,
296440,2022-11-29_11h16.34.218,vts_reward_expectancy_bt,2022.2.4,MacIntel,60.0024001,Chrome,1440,900,,,,,,,,,,,,,,,,,,,,,,,132,Y,hexagon,1,0,d,0,9,0,9,0,1,0.6088,,,,,,,,,,,,,,,,,,,,,,,,,,,,,,,,,,,,,,,,,
296440,2022-11-29_11h16.34.218,vts_reward_expectancy_bt,2022.2.4,MacIntel,60.0024001,Chrome,1440,900,,,,,,,,,,,,,,,,,,,,,,,167,F,hexagon,1,0,f,1,0,0,0,0,1,0.7261,,,,,,,,,,,,,,,,,,,,,,,,,,,,,,,,,,,,,,,,,
296440,2022-11-29_11h16.34.218,vts_reward_expectancy_bt,2022.2.4,MacIntel,60.0024001,Chrome,1440,900,,,,,,,,,,,,,,,,,,,,,,,146,H,circle,1,0,d,1,1,0,1,0,1,0.9134,,,,,,,,,,,,,,,,,,,,,,,,,,,,,,,,,,,,,,,,,
296440,2022-11-29_11h16.34.218,vts_reward_expectancy_bt,2022.2.4,MacIntel,60.0024001,Chrome,1440,900,,,,,,,,,,,,,,,,,,,,,,,125,W,triangle,1,0,d,1,2,0,2,0,1,0.687,,,,,,,,,,,,,,,,,,,,,,,,,,,,,,,,,,,,,,,,,
296440,2022-11-29_11h16.34.218,vts_reward_expectancy_bt,2022.2.4,MacIntel,60.0024001,Chrome,1440,900,,,,,,,,,,,,,,,,,,,,,,,160,B,star,1,0,f,1,3,0,3,0,1,0.6304,,,,,,,,,,,,,,,,,,,,,,,,,,,,,,,,,,,,,,,,,
296440,2022-11-29_11h16.34.218,vts_reward_expectancy_bt,2022.2.4,MacIntel,60.0024001,Chrome,1440,900,,,,,,,,,,,,,,,,,,,,,,,174,D,hexagon,1,0,f,1,4,0,4,0,1,1.1251,,,,,,,,,,,,,,,,,,,,,,,,,,,,,,,,,,,,,,,,,
296440,2022-11-29_11h16.34.218,vts_reward_expectancy_bt,2022.2.4,MacIntel,60.0024001,Chrome,1440,900,,,,,,,,,,,,,,,,,,,,,,,132,S,circle,1,0,d,1,5,0,5,0,1,0.8931,,,,,,,,,,,,,,,,,,,,,,,,,,,,,,,,,,,,,,,,,
296440,2022-11-29_11h16.34.218,vts_reward_expectancy_bt,2022.2.4,MacIntel,60.0024001,Chrome,1440,900,,,,,,,,,,,,,,,,,,,,,,,139,Y,triangle,1,0,d,1,6,0,6,0,1,1.0782,,,,,,,,,,,,,,,,,,,,,,,,,,,,,,,,,,,,,,,,,
296440,2022-11-29_11h16.34.218,vts_reward_expectancy_bt,2022.2.4,MacIntel,60.0024001,Chrome,1440,900,,,,,,,,,,,,,,,,,,,,,,,181,U,star,1,0,f,1,7,0,7,0,1,1.2286,,,,,,,,,,,,,,,,,,,,,,,,,,,,,,,,,,,,,,,,,
296440,2022-11-29_11h16.34.218,vts_reward_expectancy_bt,2022.2.4,MacIntel,60.0024001,Chrome,1440,900,,,,,,,,,,,,,,,,,,,,,,,167,F,triangle,0,0,d,1,8,0,8,0,1,0.6789,,,,,,,,,,,,,,,,,,,,,,,,,,,,,,,,,,,,,,,,,
296440,2022-11-29_11h16.34.218,vts_reward_expectancy_bt,2022.2.4,MacIntel,60.0024001,Chrome,1440,900,,,,,,,,,,,,,,,,,,,,,,,146,H,hexagon,1,1,d,1,9,0,9,0,1,0.8503,,,,,,,,,,,,,,,,,,,,,,,,,,,,,,,,,,,,,,,,,
296440,2022-11-29_11h16.34.218,vts_reward_expectancy_bt,2022.2.4,MacIntel,60.0024001,Chrome,1440,900,,,,,,,,,,,,,,,,,,,,,,,146,W,triangle,1,0,,2,,,,,,,k,1.1965,0,0,0,0,1,,,,,,,,,,,,,,,,,,,,,,,,,,,,,,,,,,
296440,2022-11-29_11h16.34.218,vts_reward_expectancy_bt,2022.2.4,MacIntel,60.0024001,Chrome,1440,900,,,,,,,,,,,,,,,,,,,,,,,139,D,circle,1,0,,2,,,,,,,j,0.4521,1,0,1,0,1,,,,,,,,,,,,,,,,,,,,,,,,,,,,,,,,,,
296440,2022-11-29_11h16.34.218,vts_reward_expectancy_bt,2022.2.4,MacIntel,60.0024001,Chrome,1440,900,,,,,,,,,,,,,,,,,,,,,,,167,U,star,1,0,,2,,,,,,,k,0.6954,2,0,2,0,1,,,,,,,,,,,,,,,,,,,,,,,,,,,,,,,,,,
296440,2022-11-29_11h16.34.218,vts_reward_expectancy_bt,2022.2.4,MacIntel,60.0024001,Chrome,1440,900,,,,,,,,,,,,,,,,,,,,,,,174,F,hexagon,1,0,,2,,,,,,,j,0.7826,3,0,3,0,1,,,,,,,,,,,,,,,,,,,,,,,,,,,,,,,,,,
296440,2022-11-29_11h16.34.218,vts_reward_expectancy_bt,2022.2.4,MacIntel,60.0024001,Chrome,1440,900,,,,,,,,,,,,,,,,,,,,,,,125,H,triangle,1,0,,2,,,,,,,j,0.97,4,0,4,0,1,,,,,,,,,,,,,,,,,,,,,,,,,,,,,,,,,,
296440,2022-11-29_11h16.34.218,vts_reward_expectancy_bt,2022.2.4,MacIntel,60.0024001,Chrome,1440,900,,,,,,,,,,,,,,,,,,,,,,,132,S,circle,1,0,,2,,,,,,,k,0.5264,5,0,5,0,1,,,,,,,,,,,,,,,,,,,,,,,,,,,,,,,,,,
296440,2022-11-29_11h16.34.218,vts_reward_expectancy_bt,2022.2.4,MacIntel,60.0024001,Chrome,1440,900,,,,,,,,,,,,,,,,,,,,,,,160,B,star,1,0,,2,,,,,,,j,0.6956,6,0,6,0,1,,,,,,,,,,,,,,,,,,,,,,,,,,,,,,,,,,
296440,2022-11-29_11h16.34.218,vts_reward_expectancy_bt,2022.2.4,MacIntel,60.0024001,Chrome,1440,900,,,,,,,,,,,,,,,,,,,,,,,181,Y,hexagon,1,0,,2,,,,,,,k,0.5474,7,0,7,0,1,,,,,,,,,,,,,,,,,,,,,,,,,,,,,,,,,,
296440,2022-11-29_11h16.34.218,vts_reward_expectancy_bt,2022.2.4,MacIntel,60.0024001,Chrome,1440,900,,,,,,,,,,,,,,,,,,,,,,,146,W,triangle,1,0,,2,,,,,,,k,0.8103,8,0,8,0,1,,,,,,,,,,,,,,,,,,,,,,,,,,,,,,,,,,
296440,2022-11-29_11h16.34.218,vts_reward_expectancy_bt,2022.2.4,MacIntel,60.0024001,Chrome,1440,900,,,,,,,,,,,,,,,,,,,,,,,139,D,star,1,0,,2,,,,,,,j,0.4995,9,0,9,0,1,,,,,,,,,,,,,,,,,,,,,,,,,,,,,,,,,,
296440,2022-11-29_11h16.34.218,vts_reward_expectancy_bt,2022.2.4,MacIntel,60.0024001,Chrome,1440,900,,,,,0,594,,,,,,,,,,,,,,,,,125,H,hexagon,1,0,,3,,,,,,,,,,,,,,-1,number,NA,d,1.6395,vtsPrac,0,0,0,0,1,,,,,,,,,,,,,,,,,,,,,,,
296440,2022-11-29_11h16.34.218,vts_reward_expectancy_bt,2022.2.4,MacIntel,60.0024001,Chrome,1440,900,,,,,0,594,,,,,,,,,,,,,,,,,167,W,triangle,1,0,,3,,,,,,,,,,,,,,repeat,number,numRpt,f,1.4496,vtsPrac,1,0,1,0,1,,,,,,,,,,,,,,,,,,,,,,,
296440,2022-11-29_11h16.34.218,vts_reward_expectancy_bt,2022.2.4,MacIntel,60.0024001,Chrome,1440,900,,,,,0,594,,,,,,,,,,,,,,,,,132,Y,hexagon,1,0,,3,,,,,,,,,,,,,,switch,letter,lettSwt,k,1.2962,vtsPrac,2,0,2,0,1,,,,,,,,,,,,,,,,,,,,,,,
296440,2022-11-29_11h16.34.218,vts_reward_expectancy_bt,2022.2.4,MacIntel,60.0024001,Chrome,1440,900,,,,,0,594,,,,,,,,,,,,,,,,,174,S,triangle,1,0,,3,,,,,,,,,,,,,,switch,number,numSwt,f,0.9466,vtsPrac,3,0,3,0,1,,,,,,,,,,,,,,,,,,,,,,,
296440,2022-11-29_11h16.34.218,vts_reward_expectancy_bt,2022.2.4,MacIntel,60.0024001,Chrome,1440,900,,,,,0,594,,,,,,,,,,,,,,,,,125,H,circle,1,0,,3,,,,,,,,,,,,,,switch,letter,lettSwt,j,1.1923,vtsPrac,4,0,4,0,1,,,,,,,,,,,,,,,,,,,,,,,
296440,2022-11-29_11h16.34.218,vts_reward_expectancy_bt,2022.2.4,MacIntel,60.0024001,Chrome,1440,900,,,,,0,594,,,,,,,,,,,,,,,,,167,W,hexagon,1,0,,3,,,,,,,,,,,,,,repeat,letter,lettRpt,k,0.7965,vtsPrac,5,0,5,0,1,,,,,,,,,,,,,,,,,,,,,,,
296440,2022-11-29_11h16.34.218,vts_reward_expectancy_bt,2022.2.4,MacIntel,60.0024001,Chrome,1440,900,,,,,0,594,,,,,,,,,,,,,,,,,132,Y,star,1,0,,3,,,,,,,,,,,,,,repeat,letter,lettRpt,k,0.9273,vtsPrac,6,0,6,0,1,,,,,,,,,,,,,,,,,,,,,,,
296440,2022-11-29_11h16.34.218,vts_reward_expectancy_bt,2022.2.4,MacIntel,60.0024001,Chrome,1440,900,,,,,0,594,,,,,,,,,,,,,,,,,174,S,hexagon,1,0,,3,,,,,,,,,,,,,,switch,number,numSwt,f,0.8585,vtsPrac,7,0,7,0,1,,,,,,,,,,,,,,,,,,,,,,,
296440,2022-11-29_11h16.34.218,vts_reward_expectancy_bt,2022.2.4,MacIntel,60.0024001,Chrome,1440,900,,,,,0,594,,,,,,,,,,,,,,,,,181,U,triangle,1,0,,3,,,,,,,,,,,,,,repeat,number,numRpt,f,1.0092,vtsPrac,8,0,8,0,1,,,,,,,,,,,,,,,,,,,,,,,
296440,2022-11-29_11h16.34.218,vts_reward_expectancy_bt,2022.2.4,MacIntel,60.0024001,Chrome,1440,900,,,,,0,594,,,,,,,,,,,,,,,,,125,S,star,1,0,,3,,,,,,,,,,,,,,repeat,number,numRpt,d,0.8357,vtsPrac,9,0,9,0,1,,,,,,,,,,,,,,,,,,,,,,,
296440,2022-11-29_11h16.34.218,vts_reward_expectancy_bt,2022.2.4,MacIntel,60.0024001,Chrome,1440,900,,,,,0,594,,,,,,,,,,,,,,,,,167,Y,hexagon,1,0,,3,,,,,,,,,,,,,,switch,letter,lettSwt,k,1.5966,vtsPrac,10,0,10,0,1,,,,,,,,,,,,,,,,,,,,,,,
296440,2022-11-29_11h16.34.218,vts_reward_expectancy_bt,2022.2.4,MacIntel,60.0024001,Chrome,1440,900,,,,,0,594,,,,,,,,,,,,,,,,,160,H,circle,0,0,,3,,,,,,,,,,,,,,repeat,letter,NA,k,0.8785,vtsPrac,11,0,11,0,1,,,,,,,,,,,,,,,,,,,,,,,
296440,2022-11-29_11h16.34.218,vts_reward_expectancy_bt,2022.2.4,MacIntel,60.0024001,Chrome,1440,900,,,,,0,594,,,,,,,,,,,,,,,,,146,S,star,1,1,,3,,,,,,,,,,,,,,switch,number,numSwt,d,1.3542,vtsPrac,12,0,12,0,1,,,,,,,,,,,,,,,,,,,,,,,
296440,2022-11-29_11h16.34.218,vts_reward_expectancy_bt,2022.2.4,MacIntel,60.0024001,Chrome,1440,900,,,,,0,594,,,,,,,,,,,,,,,,,132,B,triangle,1,0,,3,,,,,,,,,,,,,,repeat,number,numRpt,d,1.647,vtsPrac,13,0,13,0,1,,,,,,,,,,,,,,,,,,,,,,,
296440,2022-11-29_11h16.34.218,vts_reward_expectancy_bt,2022.2.4,MacIntel,60.0024001,Chrome,1440,900,,,,,0,594,,,,,,,,,,,,,,,,,125,W,triangle,1,0,,3,,,,,,,,,,,,,,switch,letter,lettSwt,k,0.7273,vtsPrac,14,0,14,0,1,,,,,,,,,,,,,,,,,,,,,,,
296440,2022-11-29_11h16.34.218,vts_reward_expectancy_bt,2022.2.4,MacIntel,60.0024001,Chrome,1440,900,,,,,0,594,,,,,,,,,,,,,,,,,139,Y,hexagon,1,0,,3,,,,,,,,,,,,,,switch,number,numSwt,d,1.1613,vtsPrac,15,0,15,0,1,,,,,,,,,,,,,,,,,,,,,,,
296440,2022-11-29_11h16.34.218,vts_reward_expectancy_bt,2022.2.4,MacIntel,60.0024001,Chrome,1440,900,,,,,0,594,,,,,,,,,,,,,,,,,125,W,star,1,0,,3,,,,,,,,,,,,,,repeat,number,numRpt,d,0.8108,vtsPrac,16,0,16,0,1,,,,,,,,,,,,,,,,,,,,,,,
296440,2022-11-29_11h16.34.218,vts_reward_expectancy_bt,2022.2.4,MacIntel,60.0024001,Chrome,1440,900,,,,,0,594,,,,,,,,,,,,,,,,,160,S,circle,1,0,,3,,,,,,,,,,,,,,switch,letter,lettSwt,k,1.6956,vtsPrac,17,0,17,0,1,,,,,,,,,,,,,,,,,,,,,,,
296440,2022-11-29_11h16.34.218,vts_reward_expectancy_bt,2022.2.4,MacIntel,60.0024001,Chrome,1440,900,,,,,0,594,,,,,,,,,,,,,,,,,174,Y,star,1,0,,3,,,,,,,,,,,,,,switch,number,numSwt,f,2.0815,vtsPrac,18,0,18,0,1,,,,,,,,,,,,,,,,,,,,,,,
296440,2022-11-29_11h16.34.218,vts_reward_expectancy_bt,2022.2.4,MacIntel,60.0024001,Chrome,1440,900,,,,,0,594,,,,,,,,,,,,,,,,,139,D,triangle,1,0,,3,,,,,,,,,,,,,,switch,letter,lettSwt,j,1.0847,vtsPrac,19,0,19,0,1,,,,,,,,,,,,,,,,,,,,,,,
296440,2022-11-29_11h16.34.218,vts_reward_expectancy_bt,2022.2.4,MacIntel,60.0024001,Chrome,1440,900,,,,,0,594,,,,,,,,,,,,,,,,,146,B,circle,1,0,,3,,,,,,,,,,,,,,repeat,letter,lettRpt,j,0.7491,vtsPrac,20,0,20,0,1,,,,,,,,,,,,,,,,,,,,,,,
296440,2022-11-29_11h16.34.218,vts_reward_expectancy_bt,2022.2.4,MacIntel,60.0024001,Chrome,1440,900,,,,,0,594,,,,,,,,,,,,,,,,,174,S,hexagon,-1,0,,3,,,,,,,,,,,,,,switch,no_choice,NA,,,vtsPrac,21,0,21,0,1,,,,,,,,,,,,,,,,,,,,,,,
296440,2022-11-29_11h16.34.218,vts_reward_expectancy_bt,2022.2.4,MacIntel,60.0024001,Chrome,1440,900,,,,,0,594,,,,,,,,,,,,,,,,,125,D,hexagon,1,0,,3,,,,,,,,,,,,,,switch,number,numSwt,d,1.0641,vtsPrac,22,0,22,0,1,,,,,,,,,,,,,,,,,,,,,,,
296440,2022-11-29_11h16.34.218,vts_reward_expectancy_bt,2022.2.4,MacIntel,60.0024001,Chrome,1440,900,,,,,0,594,,,,,,,,,,,,,,,,,181,W,circle,1,0,,3,,,,,,,,,,,,,,repeat,number,numRpt,f,1.1467,vtsPrac,23,0,23,0,1,,,,,,,,,,,,,,,,,,,,,,,
296440,2022-11-29_11h16.34.218,vts_reward_expectancy_bt,2022.2.4,MacIntel,60.0024001,Chrome,1440,900,,,,,0,594,,,,,,,,,,,,,,,,,139,H,circle,1,0,,3,,,,,,,,,,,,,,switch,letter,lettSwt,j,1.5967,vtsPrac,24,0,24,0,1,,,,,,,,,,,,,,,,,,,,,,,
296440,2022-11-29_11h16.34.218,vts_reward_expectancy_bt,2022.2.4,MacIntel,60.0024001,Chrome,1440,900,,,,,0,594,,,,,,,,,,,,,,,,,146,S,hexagon,1,0,,3,,,,,,,,,,,,,,repeat,letter,lettRpt,k,1.677,vtsPrac,25,0,25,0,1,,,,,,,,,,,,,,,,,,,,,,,
296440,2022-11-29_11h16.34.218,vts_reward_expectancy_bt,2022.2.4,MacIntel,60.0024001,Chrome,1440,900,,,,,0,594,,,,,,,,,,,,,,,,,125,U,triangle,1,0,,3,,,,,,,,,,,,,,repeat,letter,lettRpt,k,1.5791,vtsPrac,26,0,26,0,1,,,,,,,,,,,,,,,,,,,,,,,
296440,2022-11-29_11h16.34.218,vts_reward_expectancy_bt,2022.2.4,MacIntel,60.0024001,Chrome,1440,900,,,,,0,594,,,,,,,,,,,,,,,,,174,W,star,1,0,,3,,,,,,,,,,,,,,repeat,letter,lettRpt,k,1.533,vtsPrac,27,0,27,0,1,,,,,,,,,,,,,,,,,,,,,,,
296440,2022-11-29_11h16.34.218,vts_reward_expectancy_bt,2022.2.4,MacIntel,60.0024001,Chrome,1440,900,,,,,0,594,,,,,,,,,,,,,,,,,174,U,circle,1,0,,3,,,,,,,,,,,,,,repeat,letter,lettRpt,k,1.4402,vtsPrac,28,0,28,0,1,,,,,,,,,,,,,,,,,,,,,,,
296440,2022-11-29_11h16.34.218,vts_reward_expectancy_bt,2022.2.4,MacIntel,60.0024001,Chrome,1440,900,,,,,0,594,,,,,,,,,,,,,,,,,146,B,triangle,1,0,,3,,,,,,,,,,,,,,repeat,letter,lettRpt,j,1.5063,vtsPrac,29,0,29,0,1,,,,,,,,,,,,,,,,,,,,,,,
296440,2022-11-29_11h16.34.218,vts_reward_expectancy_bt,2022.2.4,MacIntel,60.0024001,Chrome,1440,900,,,,,0,594,,,,,,,,,,,,,,,,,132,W,triangle,1,0,,3,,,,,,,,,,,,,,repeat,letter,lettRpt,k,1.5809,vtsPrac,30,0,30,0,1,,,,,,,,,,,,,,,,,,,,,,,
296440,2022-11-29_11h16.34.218,vts_reward_expectancy_bt,2022.2.4,MacIntel,60.0024001,Chrome,1440,900,,,,,0,594,,,,,,,,,,,,,,,,,160,S,hexagon,1,0,,3,,,,,,,,,,,,,,repeat,letter,lettRpt,k,1.4891,vtsPrac,31,0,31,0,1,,,,,,,,,,,,,,,,,,,,,,,
296440,2022-11-29_11h16.34.218,vts_reward_expectancy_bt,2022.2.4,MacIntel,60.0024001,Chrome,1440,900,,,,,,,,,,,,,,,,,,,,,,,,,,,,,,,,,,,,,,,,,,,,,,,,,,,,,,,,,,,,,,,,,,,,,,,,,,,,
296440,2022-11-29_11h16.34.218,vts_reward_expectancy_bt,2022.2.4,MacIntel,60.0024001,Chrome,1440,900,,,,,,,,,,,,,,,,,,,,,,,,,,,,,,,,,,,,,,,,,,,,,,,,,,,,,,,,,,,,,,,,,,,,,,,,,,,,
296440,2022-11-29_11h16.34.218,vts_reward_expectancy_bt,2022.2.4,MacIntel,60.0024001,Chrome,1440,900,,,,,0,594,,,,,,,,,,,,,,,,,146,B,circle,1,0,,,,,,,,,,,,,,,,repeat,letter,lettRpt,j,0.7944,noRew,,,,,,0,0,0,0,0,1,,,,,,,,,,,,,,,,,
296440,2022-11-29_11h16.34.218,vts_reward_expectancy_bt,2022.2.4,MacIntel,60.0024001,Chrome,1440,900,,,,,0,594,,,,,,,,,,,,,,,,,132,U,star,1,0,,,,,,,,,,,,,,,,switch,number,numSwt,d,1.282,noRew,,,,,,0,1,0,1,0,1,,,,,,,,,,,,,,,,,
296440,2022-11-29_11h16.34.218,vts_reward_expectancy_bt,2022.2.4,MacIntel,60.0024001,Chrome,1440,900,,,,,0,594,,,,,,,,,,,,,,,,,181,S,circle,1,0,,,,,,,,,,,,,,,,repeat,number,numRpt,f,0.9444,noRew,,,,,,0,2,0,2,0,1,,,,,,,,,,,,,,,,,
296440,2022-11-29_11h16.34.218,vts_reward_expectancy_bt,2022.2.4,MacIntel,60.0024001,Chrome,1440,900,,,,,0,594,,,,,,,,,,,,,,,,,167,D,star,1,0,,,,,,,,,,,,,,,,repeat,number,numRpt,f,0.6815,noRew,,,,,,0,3,0,3,0,1,,,,,,,,,,,,,,,,,
296440,2022-11-29_11h16.34.218,vts_reward_expectancy_bt,2022.2.4,MacIntel,60.0024001,Chrome,1440,900,,,,,0,594,,,,,,,,,,,,,,,,,146,B,star,1,0,,,,,,,,,,,,,,,,switch,letter,lettSwt,j,1.082,noRew,,,,,,0,4,0,4,0,1,,,,,,,,,,,,,,,,,
296440,2022-11-29_11h16.34.218,vts_reward_expectancy_bt,2022.2.4,MacIntel,60.0024001,Chrome,1440,900,,,,,0,594,,,,,,,,,,,,,,,,,132,U,hexagon,1,0,,,,,,,,,,,,,,,,switch,number,numSwt,d,0.7661,noRew,,,,,,0,5,0,5,0,1,,,,,,,,,,,,,,,,,
296440,2022-11-29_11h16.34.218,vts_reward_expectancy_bt,2022.2.4,MacIntel,60.0024001,Chrome,1440,900,,,,,0,594,,,,,,,,,,,,,,,,,181,S,hexagon,1,0,,,,,,,,,,,,,,,,switch,letter,lettSwt,k,1.4636,noRew,,,,,,0,6,0,6,0,1,,,,,,,,,,,,,,,,,
296440,2022-11-29_11h16.34.218,vts_reward_expectancy_bt,2022.2.4,MacIntel,60.0024001,Chrome,1440,900,,,,,0,594,,,,,,,,,,,,,,,,,167,D,star,1,0,,,,,,,,,,,,,,,,repeat,letter,lettRpt,j,1.3621,noRew,,,,,,0,7,0,7,0,1,,,,,,,,,,,,,,,,,
296440,2022-11-29_11h16.34.218,vts_reward_expectancy_bt,2022.2.4,MacIntel,60.0024001,Chrome,1440,900,,,,,0,594,,,,,,,,,,,,,,,,,167,Y,star,1,0,,,,,,,,,,,,,,,,switch,number,numSwt,f,1.0995,noRew,,,,,,0,8,0,8,0,1,,,,,,,,,,,,,,,,,
296440,2022-11-29_11h16.34.218,vts_reward_expectancy_bt,2022.2.4,MacIntel,60.0024001,Chrome,1440,900,,,,,0,594,,,,,,,,,,,,,,,,,174,W,triangle,1,0,,,,,,,,,,,,,,,,switch,letter,lettSwt,k,0.6723,noRew,,,,,,0,9,0,9,0,1,,,,,,,,,,,,,,,,,
296440,2022-11-29_11h16.34.218,vts_reward_expectancy_bt,2022.2.4,MacIntel,60.0024001,Chrome,1440,900,,,,,0,594,,,,,,,,,,,,,,,,,139,H,star,1,0,,,,,,,,,,,,,,,,repeat,letter,lettRpt,j,1.2456,noRew,,,,,,0,10,0,10,0,1,,,,,,,,,,,,,,,,,
296440,2022-11-29_11h16.34.218,vts_reward_expectancy_bt,2022.2.4,MacIntel,60.0024001,Chrome,1440,900,,,,,0,594,,,,,,,,,,,,,,,,,181,U,triangle,1,0,,,,,,,,,,,,,,,,repeat,letter,lettRpt,k,0.6955,noRew,,,,,,0,11,0,11,0,1,,,,,,,,,,,,,,,,,
296440,2022-11-29_11h16.34.218,vts_reward_expectancy_bt,2022.2.4,MacIntel,60.0024001,Chrome,1440,900,,,,,0,594,,,,,,,,,,,,,,,,,181,D,triangle,1,0,,,,,,,,,,,,,,,,switch,number,numSwt,f,1.1224,noRew,,,,,,0,12,0,12,0,1,,,,,,,,,,,,,,,,,
296440,2022-11-29_11h16.34.218,vts_reward_expectancy_bt,2022.2.4,MacIntel,60.0024001,Chrome,1440,900,,,,,0,594,,,,,,,,,,,,,,,,,167,U,star,1,0,,,,,,,,,,,,,,,,repeat,number,numRpt,f,0.9265,noRew,,,,,,0,13,0,13,0,1,,,,,,,,,,,,,,,,,
296440,2022-11-29_11h16.34.218,vts_reward_expectancy_bt,2022.2.4,MacIntel,60.0024001,Chrome,1440,900,,,,,0,594,,,,,,,,,,,,,,,,,125,F,circle,1,0,,,,,,,,,,,,,,,,switch,letter,lettSwt,j,1.1692,noRew,,,,,,0,14,0,14,0,1,,,,,,,,,,,,,,,,,
296440,2022-11-29_11h16.34.218,vts_reward_expectancy_bt,2022.2.4,MacIntel,60.0024001,Chrome,1440,900,,,,,0,594,,,,,,,,,,,,,,,,,139,Y,star,1,0,,,,,,,,,,,,,,,,repeat,letter,lettRpt,k,0.7116,noRew,,,,,,0,15,0,15,0,1,,,,,,,,,,,,,,,,,
296440,2022-11-29_11h16.34.218,vts_reward_expectancy_bt,2022.2.4,MacIntel,60.0024001,Chrome,1440,900,,,,,0,594,,,,,,,,,,,,,,,,,139,S,triangle,1,0,,,,,,,,,,,,,,,,repeat,letter,lettRpt,k,1.0106,noRew,,,,,,0,16,0,16,0,1,,,,,,,,,,,,,,,,,
296440,2022-11-29_11h16.34.218,vts_reward_expectancy_bt,2022.2.4,MacIntel,60.0024001,Chrome,1440,900,,,,,0,594,,,,,,,,,,,,,,,,,146,W,hexagon,1,0,,,,,,,,,,,,,,,,switch,number,numSwt,d,2.847,noRew,,,,,,0,17,0,17,0,1,,,,,,,,,,,,,,,,,
296440,2022-11-29_11h16.34.218,vts_reward_expectancy_bt,2022.2.4,MacIntel,60.0024001,Chrome,1440,900,,,,,0,594,,,,,,,,,,,,,,,,,125,B,star,1,0,,,,,,,,,,,,,,,,repeat,number,numRpt,d,0.9797,noRew,,,,,,0,18,0,18,0,1,,,,,,,,,,,,,,,,,
296440,2022-11-29_11h16.34.218,vts_reward_expectancy_bt,2022.2.4,MacIntel,60.0024001,Chrome,1440,900,,,,,0,594,,,,,,,,,,,,,,,,,181,H,triangle,0,0,,,,,,,,,,,,,,,,switch,letter,NA,k,0.7713,noRew,,,,,,0,19,0,19,0,1,,,,,,,,,,,,,,,,,
296440,2022-11-29_11h16.34.218,vts_reward_expectancy_bt,2022.2.4,MacIntel,60.0024001,Chrome,1440,900,,,,,0,594,,,,,,,,,,,,,,,,,160,Y,star,1,1,,,,,,,,,,,,,,,,repeat,letter,lettRpt,k,0.8727,noRew,,,,,,0,20,0,20,0,1,,,,,,,,,,,,,,,,,
296440,2022-11-29_11h16.34.218,vts_reward_expectancy_bt,2022.2.4,MacIntel,60.0024001,Chrome,1440,900,,,,,0,594,,,,,,,,,,,,,,,,,132,S,circle,1,0,,,,,,,,,,,,,,,,repeat,letter,lettRpt,k,1.4961,noRew,,,,,,0,21,0,21,0,1,,,,,,,,,,,,,,,,,
296440,2022-11-29_11h16.34.218,vts_reward_expectancy_bt,2022.2.4,MacIntel,60.0024001,Chrome,1440,900,,,,,0,594,,,,,,,,,,,,,,,,,125,B,triangle,1,0,,,,,,,,,,,,,,,,switch,number,numSwt,d,1.1052,noRew,,,,,,0,22,0,22,0,1,,,,,,,,,,,,,,,,,
296440,2022-11-29_11h16.34.218,vts_reward_expectancy_bt,2022.2.4,MacIntel,60.0024001,Chrome,1440,900,,,,,0,594,,,,,,,,,,,,,,,,,181,D,star,1,0,,,,,,,,,,,,,,,,repeat,number,numRpt,f,1.7145,noRew,,,,,,0,23,0,23,0,1,,,,,,,,,,,,,,,,,
296440,2022-11-29_11h16.34.218,vts_reward_expectancy_bt,2022.2.4,MacIntel,60.0024001,Chrome,1440,900,,,,,0,594,,,,,,,,,,,,,,,,,139,S,circle,-1,0,,,,,,,,,,,,,,,,switch,no_choice,NA,,,noRew,,,,,,0,24,0,24,0,1,,,,,,,,,,,,,,,,,
296440,2022-11-29_11h16.34.218,vts_reward_expectancy_bt,2022.2.4,MacIntel,60.0024001,Chrome,1440,900,,,,,0,594,,,,,,,,,,,,,,,,,181,D,triangle,1,0,,,,,,,,,,,,,,,,switch,number,numSwt,f,1.517,noRew,,,,,,0,25,0,25,0,1,,,,,,,,,,,,,,,,,
296440,2022-11-29_11h16.34.218,vts_reward_expectancy_bt,2022.2.4,MacIntel,60.0024001,Chrome,1440,900,,,,,0,594,,,,,,,,,,,,,,,,,132,Y,star,1,0,,,,,,,,,,,,,,,,switch,letter,lettSwt,k,1.0323,noRew,,,,,,0,26,0,26,0,1,,,,,,,,,,,,,,,,,
296440,2022-11-29_11h16.34.218,vts_reward_expectancy_bt,2022.2.4,MacIntel,60.0024001,Chrome,1440,900,,,,,0,594,,,,,,,,,,,,,,,,,160,H,hexagon,1,0,,,,,,,,,,,,,,,,repeat,letter,lettRpt,j,2.1626,noRew,,,,,,0,27,0,27,0,1,,,,,,,,,,,,,,,,,
296440,2022-11-29_11h16.34.218,vts_reward_expectancy_bt,2022.2.4,MacIntel,60.0024001,Chrome,1440,900,,,,,0,594,,,,,,,,,,,,,,,,,132,D,star,1,0,,,,,,,,,,,,,,,,switch,number,numSwt,d,0.9283,noRew,,,,,,0,28,0,28,0,1,,,,,,,,,,,,,,,,,
296440,2022-11-29_11h16.34.218,vts_reward_expectancy_bt,2022.2.4,MacIntel,60.0024001,Chrome,1440,900,,,,,0,594,,,,,,,,,,,,,,,,,181,H,hexagon,1,0,,,,,,,,,,,,,,,,repeat,number,numRpt,f,1.6964,noRew,,,,,,0,29,0,29,0,1,,,,,,,,,,,,,,,,,
296440,2022-11-29_11h16.34.218,vts_reward_expectancy_bt,2022.2.4,MacIntel,60.0024001,Chrome,1440,900,,,,,0,594,,,,,,,,,,,,,,,,,125,Y,hexagon,1,0,,,,,,,,,,,,,,,,repeat,number,numRpt,d,0.8446,noRew,,,,,,0,30,0,30,0,1,,,,,,,,,,,,,,,,,
296440,2022-11-29_11h16.34.218,vts_reward_expectancy_bt,2022.2.4,MacIntel,60.0024001,Chrome,1440,900,,,,,0,594,,,,,,,,,,,,,,,,,174,F,triangle,1,0,,,,,,,,,,,,,,,,switch,letter,lettSwt,j,0.9778,noRew,,,,,,0,31,0,31,0,1,,,,,,,,,,,,,,,,,
296440,2022-11-29_11h16.34.218,vts_reward_expectancy_bt,2022.2.4,MacIntel,60.0024001,Chrome,1440,900,,,,,0,594,,,,,,,,,,,,,,,,,139,Y,triangle,1,0,,,,,,,,,,,,,,,,repeat,letter,lettRpt,k,0.8762,noRew,,,,,,0,32,0,32,0,1,,,,,,,,,,,,,,,,,
296440,2022-11-29_11h16.34.218,vts_reward_expectancy_bt,2022.2.4,MacIntel,60.0024001,Chrome,1440,900,,,,,0,594,,,,,,,,,,,,,,,,,174,D,hexagon,1,0,,,,,,,,,,,,,,,,repeat,letter,lettRpt,j,0.7632,noRew,,,,,,0,33,0,33,0,1,,,,,,,,,,,,,,,,,
296440,2022-11-29_11h16.34.218,vts_reward_expectancy_bt,2022.2.4,MacIntel,60.0024001,Chrome,1440,900,,,,,0,594,,,,,,,,,,,,,,,,,146,W,circle,1,0,,,,,,,,,,,,,,,,switch,number,numSwt,d,1.9979,noRew,,,,,,0,34,0,34,0,1,,,,,,,,,,,,,,,,,
296440,2022-11-29_11h16.34.218,vts_reward_expectancy_bt,2022.2.4,MacIntel,60.0024001,Chrome,1440,900,,,,,0,594,,,,,,,,,,,,,,,,,125,B,triangle,1,0,,,,,,,,,,,,,,,,repeat,number,numRpt,d,2.7817,noRew,,,,,,0,35,0,35,0,1,,,,,,,,,,,,,,,,,
296440,2022-11-29_11h16.34.218,vts_reward_expectancy_bt,2022.2.4,MacIntel,60.0024001,Chrome,1440,900,,,,,0,594,,,,,,,,,,,,,,,,,125,D,hexagon,1,0,,,,,,,,,,,,,,,,switch,letter,lettSwt,j,0.6059,noRew,,,,,,0,36,0,36,0,1,,,,,,,,,,,,,,,,,
296440,2022-11-29_11h16.34.218,vts_reward_expectancy_bt,2022.2.4,MacIntel,60.0024001,Chrome,1440,900,,,,,0,594,,,,,,,,,,,,,,,,,167,F,circle,1,0,,,,,,,,,,,,,,,,repeat,letter,lettRpt,j,0.809,noRew,,,,,,0,37,0,37,0,1,,,,,,,,,,,,,,,,,
296440,2022-11-29_11h16.34.218,vts_reward_expectancy_bt,2022.2.4,MacIntel,60.0024001,Chrome,1440,900,,,,,0,594,,,,,,,,,,,,,,,,,160,Y,circle,1,0,,,,,,,,,,,,,,,,repeat,letter,lettRpt,k,0.8299,noRew,,,,,,0,38,0,38,0,1,,,,,,,,,,,,,,,,,
296440,2022-11-29_11h16.34.218,vts_reward_expectancy_bt,2022.2.4,MacIntel,60.0024001,Chrome,1440,900,,,,,0,594,,,,,,,,,,,,,,,,,132,H,star,1,0,,,,,,,,,,,,,,,,switch,number,numSwt,d,1.7317,noRew,,,,,,0,39,0,39,0,1,,,,,,,,,,,,,,,,,
296440,2022-11-29_11h16.34.218,vts_reward_expectancy_bt,2022.2.4,MacIntel,60.0024001,Chrome,1440,900,,,,,0,594,,,,,,,,,,,,,,,,,167,B,triangle,1,0,,,,,,,,,,,,,,,,repeat,number,numRpt,f,1.3811,noRew,,,,,,0,40,0,40,0,1,,,,,,,,,,,,,,,,,
296440,2022-11-29_11h16.34.218,vts_reward_expectancy_bt,2022.2.4,MacIntel,60.0024001,Chrome,1440,900,,,,,0,594,,,,,,,,,,,,,,,,,146,Y,hexagon,1,0,,,,,,,,,,,,,,,,repeat,number,numRpt,d,2.1627,noRew,,,,,,0,41,0,41,0,1,,,,,,,,,,,,,,,,,
296440,2022-11-29_11h16.34.218,vts_reward_expectancy_bt,2022.2.4,MacIntel,60.0024001,Chrome,1440,900,,,,,0,594,,,,,,,,,,,,,,,,,132,D,hexagon,1,0,,,,,,,,,,,,,,,,repeat,number,numRpt,d,1.3291,noRew,,,,,,0,42,0,42,0,1,,,,,,,,,,,,,,,,,
296440,2022-11-29_11h16.34.218,vts_reward_expectancy_bt,2022.2.4,MacIntel,60.0024001,Chrome,1440,900,,,,,0,594,,,,,,,,,,,,,,,,,160,H,circle,1,0,,,,,,,,,,,,,,,,repeat,number,numRpt,f,1.2344,noRew,,,,,,0,43,0,43,0,1,,,,,,,,,,,,,,,,,
296440,2022-11-29_11h16.34.218,vts_reward_expectancy_bt,2022.2.4,MacIntel,60.0024001,Chrome,1440,900,,,,,0,594,,,,,,,,,,,,,,,,,125,D,triangle,1,0,,,,,,,,,,,,,,,,switch,letter,lettSwt,j,0.728,noRew,,,,,,0,44,0,44,0,1,,,,,,,,,,,,,,,,,
296440,2022-11-29_11h16.34.218,vts_reward_expectancy_bt,2022.2.4,MacIntel,60.0024001,Chrome,1440,900,,,,,0,594,,,,,,,,,,,,,,,,,146,B,circle,1,0,,,,,,,,,,,,,,,,repeat,letter,lettRpt,j,1.2495,noRew,,,,,,0,45,0,45,0,1,,,,,,,,,,,,,,,,,
296440,2022-11-29_11h16.34.218,vts_reward_expectancy_bt,2022.2.4,MacIntel,60.0024001,Chrome,1440,900,,,,,0,594,,,,,,,,,,,,,,,,,174,W,hexagon,1,0,,,,,,,,,,,,,,,,switch,number,numSwt,f,2.4006,noRew,,,,,,0,46,0,46,0,1,,,,,,,,,,,,,,,,,
296440,2022-11-29_11h16.34.218,vts_reward_expectancy_bt,2022.2.4,MacIntel,60.0024001,Chrome,1440,900,,,,,0,594,,,,,,,,,,,,,,,,,181,S,circle,1,0,,,,,,,,,,,,,,,,switch,letter,lettSwt,k,0.8785,noRew,,,,,,0,47,0,47,0,1,,,,,,,,,,,,,,,,,
296440,2022-11-29_11h16.34.218,vts_reward_expectancy_bt,2022.2.4,MacIntel,60.0024001,Chrome,1440,900,,,,,0,594,,,,,,,,,,,,,,,,,146,W,hexagon,1,0,,,,,,,,,,,,,,,,switch,number,numSwt,d,1.4835,noRew,,,,,,0,48,0,48,0,1,,,,,,,,,,,,,,,,,
296440,2022-11-29_11h16.34.218,vts_reward_expectancy_bt,2022.2.4,MacIntel,60.0024001,Chrome,1440,900,,,,,0,594,,,,,,,,,,,,,,,,,139,U,circle,1,0,,,,,,,,,,,,,,,,switch,letter,lettSwt,k,1.994,noRew,,,,,,0,49,0,49,0,1,,,,,,,,,,,,,,,,,
296440,2022-11-29_11h16.34.218,vts_reward_expectancy_bt,2022.2.4,MacIntel,60.0024001,Chrome,1440,900,,,,,0,594,,,,,,,,,,,,,,,,,167,D,hexagon,1,0,,,,,,,,,,,,,,,,switch,number,numSwt,f,1.0826,noRew,,,,,,0,50,0,50,0,1,,,,,,,,,,,,,,,,,
296440,2022-11-29_11h16.34.218,vts_reward_expectancy_bt,2022.2.4,MacIntel,60.0024001,Chrome,1440,900,,,,,0,594,,,,,,,,,,,,,,,,,125,S,circle,1,0,,,,,,,,,,,,,,,,repeat,number,numRpt,d,0.8303,noRew,,,,,,0,51,0,51,0,1,,,,,,,,,,,,,,,,,
296440,2022-11-29_11h16.34.218,vts_reward_expectancy_bt,2022.2.4,MacIntel,60.0024001,Chrome,1440,900,,,,,0,594,,,,,,,,,,,,,,,,,132,S,circle,1,0,,,,,,,,,,,,,,,,switch,letter,lettSwt,k,0.6339,noRew,,,,,,0,52,0,52,0,1,,,,,,,,,,,,,,,,,
296440,2022-11-29_11h16.34.218,vts_reward_expectancy_bt,2022.2.4,MacIntel,60.0024001,Chrome,1440,900,,,,,0,594,,,,,,,,,,,,,,,,,139,Y,star,1,0,,,,,,,,,,,,,,,,repeat,letter,lettRpt,k,0.9226,noRew,,,,,,0,53,0,53,0,1,,,,,,,,,,,,,,,,,
296440,2022-11-29_11h16.34.218,vts_reward_expectancy_bt,2022.2.4,MacIntel,60.0024001,Chrome,1440,900,,,,,0,594,,,,,,,,,,,,,,,,,181,B,circle,1,0,,,,,,,,,,,,,,,,repeat,letter,lettRpt,j,0.8473,noRew,,,,,,0,54,0,54,0,1,,,,,,,,,,,,,,,,,
296440,2022-11-29_11h16.34.218,vts_reward_expectancy_bt,2022.2.4,MacIntel,60.0024001,Chrome,1440,900,,,,,0,594,,,,,,,,,,,,,,,,,146,D,triangle,1,0,,,,,,,,,,,,,,,,switch,number,numSwt,d,1.7624,noRew,,,,,,0,55,0,55,0,1,,,,,,,,,,,,,,,,,
296440,2022-11-29_11h16.34.218,vts_reward_expectancy_bt,2022.2.4,MacIntel,60.0024001,Chrome,1440,900,,,,,0,594,,,,,,,,,,,,,,,,,146,W,circle,1,0,,,,,,,,,,,,,,,,switch,letter,lettSwt,k,1.6904,noRew,,,,,,0,56,0,56,0,1,,,,,,,,,,,,,,,,,
296440,2022-11-29_11h16.34.218,vts_reward_expectancy_bt,2022.2.4,MacIntel,60.0024001,Chrome,1440,900,,,,,0,594,,,,,,,,,,,,,,,,,160,U,star,0,0,,,,,,,,,,,,,,,,switch,number,NA,d,2.309,noRew,,,,,,0,57,0,57,0,1,,,,,,,,,,,,,,,,,
296440,2022-11-29_11h16.34.218,vts_reward_expectancy_bt,2022.2.4,MacIntel,60.0024001,Chrome,1440,900,,,,,0,594,,,,,,,,,,,,,,,,,167,S,hexagon,1,1,,,,,,,,,,,,,,,,repeat,number,numRpt,f,1.1054,noRew,,,,,,0,58,0,58,0,1,,,,,,,,,,,,,,,,,
296440,2022-11-29_11h16.34.218,vts_reward_expectancy_bt,2022.2.4,MacIntel,60.0024001,Chrome,1440,900,,,,,0,594,,,,,,,,,,,,,,,,,139,F,triangle,1,0,,,,,,,,,,,,,,,,switch,letter,lettSwt,j,1.2011,noRew,,,,,,0,59,0,59,0,1,,,,,,,,,,,,,,,,,
296440,2022-11-29_11h16.34.218,vts_reward_expectancy_bt,2022.2.4,MacIntel,60.0024001,Chrome,1440,900,,,,,0,594,,,,,,,,,,,,,,,,,146,U,star,1,0,,,,,,,,,,,,,,,,switch,number,numSwt,d,1.6816,noRew,,,,,,0,60,0,60,0,1,,,,,,,,,,,,,,,,,
296440,2022-11-29_11h16.34.218,vts_reward_expectancy_bt,2022.2.4,MacIntel,60.0024001,Chrome,1440,900,,,,,0,594,,,,,,,,,,,,,,,,,167,Y,hexagon,1,0,,,,,,,,,,,,,,,,switch,letter,lettSwt,k,1.2786,noRew,,,,,,0,61,0,61,0,1,,,,,,,,,,,,,,,,,
296440,2022-11-29_11h16.34.218,vts_reward_expectancy_bt,2022.2.4,MacIntel,60.0024001,Chrome,1440,900,,,,,0,594,,,,,,,,,,,,,,,,,181,S,star,1,0,,,,,,,,,,,,,,,,repeat,letter,lettRpt,k,1.1294,noRew,,,,,,0,62,0,62,0,1,,,,,,,,,,,,,,,,,
296440,2022-11-29_11h16.34.218,vts_reward_expectancy_bt,2022.2.4,MacIntel,60.0024001,Chrome,1440,900,,,,,0,594,,,,,,,,,,,,,,,,,125,B,circle,-1,0,,,,,,,,,,,,,,,,switch,no_choice,NA,,,noRew,,,,,,0,63,0,63,0,1,,,,,,,,,,,,,,,,,
296440,2022-11-29_11h16.34.218,vts_reward_expectancy_bt,2022.2.4,MacIntel,60.0024001,Chrome,1440,900,,,,,,,,,,,,,,,,,,,,,,,,,,,,,,,,,,,,,,,,,,,,,,,,,,,,,,,,,,,,,,,,,,,,,,,,,,,,
296440,2022-11-29_11h16.34.218,vts_reward_expectancy_bt,2022.2.4,MacIntel,60.0024001,Chrome,1440,900,,,,,10,604,,,,,,,,,,,,,,,,,125,Y,triangle,1,0,,,,,,,,,,,,,,,,switch,number,numSwt,d,0.94,Hi,,,,,,0,,,,,,space,9.9997,low,0,0,0,0,1,,,,,,,,,
296440,2022-11-29_11h16.34.218,vts_reward_expectancy_bt,2022.2.4,MacIntel,60.0024001,Chrome,1440,900,,,,,10,614,,,,,,,,,,,,,,,,,132,D,star,1,0,,,,,,,,,,,,,,,,repeat,number,numRpt,d,1.2548,Lo,,,,,,0,,,,,,,,low,1,0,1,0,1,,,,,,,,,
296440,2022-11-29_11h16.34.218,vts_reward_expectancy_bt,2022.2.4,MacIntel,60.0024001,Chrome,1440,900,,,,,10,624,,,,,,,,,,,,,,,,,181,H,hexagon,1,0,,,,,,,,,,,,,,,,switch,letter,lettSwt,j,0.8964,Hi,,,,,,0,,,,,,,,low,2,0,2,0,1,,,,,,,,,
296440,2022-11-29_11h16.34.218,vts_reward_expectancy_bt,2022.2.4,MacIntel,60.0024001,Chrome,1440,900,,,,,1,625,,,,,,,,,,,,,,,,,174,U,circle,1,0,,,,,,,,,,,,,,,,repeat,letter,lettRpt,k,0.6983,Lo,,,,,,0,,,,,,,,low,3,0,3,0,1,,,,,,,,,
296440,2022-11-29_11h16.34.218,vts_reward_expectancy_bt,2022.2.4,MacIntel,60.0024001,Chrome,1440,900,,,,,1,626,,,,,,,,,,,,,,,,,146,S,triangle,1,0,,,,,,,,,,,,,,,,repeat,letter,lettRpt,k,0.814,Hi,,,,,,0,,,,,,,,low,4,0,4,0,1,,,,,,,,,
296440,2022-11-29_11h16.34.218,vts_reward_expectancy_bt,2022.2.4,MacIntel,60.0024001,Chrome,1440,900,,,,,1,627,,,,,,,,,,,,,,,,,160,W,star,1,0,,,,,,,,,,,,,,,,switch,number,numSwt,f,0.5432,Lo,,,,,,0,,,,,,,,low,5,0,5,0,1,,,,,,,,,
296440,2022-11-29_11h16.34.218,vts_reward_expectancy_bt,2022.2.4,MacIntel,60.0024001,Chrome,1440,900,,,,,1,628,,,,,,,,,,,,,,,,,167,F,hexagon,1,0,,,,,,,,,,,,,,,,repeat,number,numRpt,f,0.8946,Hi,,,,,,0,,,,,,,,low,6,0,6,0,1,,,,,,,,,
296440,2022-11-29_11h16.34.218,vts_reward_expectancy_bt,2022.2.4,MacIntel,60.0024001,Chrome,1440,900,,,,,10,638,,,,,,,,,,,,,,,,,139,B,circle,1,0,,,,,,,,,,,,,,,,switch,letter,lettSwt,j,1.2114,Lo,,,,,,0,,,,,,,,low,7,0,7,0,1,,,,,,,,,
296440,2022-11-29_11h16.34.218,vts_reward_expectancy_bt,2022.2.4,MacIntel,60.0024001,Chrome,1440,900,,,,,0,638,,,,,,,,,,,,,,,,,125,Y,triangle,1,0,,,,,,,,,,,,,,,,repeat,letter,lettRpt,k,1.1306,Hi,,,,,,0,,,,,,,,low,8,0,8,0,1,,,,,,,,,
296440,2022-11-29_11h16.34.218,vts_reward_expectancy_bt,2022.2.4,MacIntel,60.0024001,Chrome,1440,900,,,,,1,639,,,,,,,,,,,,,,,,,132,D,hexagon,1,0,,,,,,,,,,,,,,,,switch,number,numSwt,d,0.8523,Hi,,,,,,0,,,,,,,,low,9,0,9,0,1,,,,,,,,,
296440,2022-11-29_11h16.34.218,vts_reward_expectancy_bt,2022.2.4,MacIntel,60.0024001,Chrome,1440,900,,,,,10,649,,,,,,,,,,,,,,,,,181,H,star,1,0,,,,,,,,,,,,,,,,repeat,number,numRpt,f,0.8132,Lo,,,,,,0,,,,,,,,low,10,0,10,0,1,,,,,,,,,
296440,2022-11-29_11h16.34.218,vts_reward_expectancy_bt,2022.2.4,MacIntel,60.0024001,Chrome,1440,900,,,,,1,650,,,,,,,,,,,,,,,,,174,U,circle,1,0,,,,,,,,,,,,,,,,switch,letter,lettSwt,k,0.6005,Lo,,,,,,0,,,,,,,,low,11,0,11,0,1,,,,,,,,,
296440,2022-11-29_11h16.34.218,vts_reward_expectancy_bt,2022.2.4,MacIntel,60.0024001,Chrome,1440,900,,,,,0,650,,,,,,,,,,,,,,,,,146,S,triangle,1,0,,,,,,,,,,,,,,,,repeat,letter,lettRpt,k,0.9516,Hi,,,,,,0,,,,,,,,low,12,0,12,0,1,,,,,,,,,
296440,2022-11-29_11h16.34.218,vts_reward_expectancy_bt,2022.2.4,MacIntel,60.0024001,Chrome,1440,900,,,,,10,660,,,,,,,,,,,,,,,,,160,W,circle,1,0,,,,,,,,,,,,,,,,switch,number,numSwt,f,1.228,Lo,,,,,,0,,,,,,,,low,13,0,13,0,1,,,,,,,,,
296440,2022-11-29_11h16.34.218,vts_reward_expectancy_bt,2022.2.4,MacIntel,60.0024001,Chrome,1440,900,,,,,1,661,,,,,,,,,,,,,,,,,167,F,star,1,0,,,,,,,,,,,,,,,,switch,letter,lettSwt,j,0.6689,Lo,,,,,,0,,,,,,,,low,14,0,14,0,1,,,,,,,,,
296440,2022-11-29_11h16.34.218,vts_reward_expectancy_bt,2022.2.4,MacIntel,60.0024001,Chrome,1440,900,,,,,1,662,,,,,,,,,,,,,,,,,139,B,hexagon,1,0,,,,,,,,,,,,,,,,switch,number,numSwt,d,0.8172,Hi,,,,,,0,,,,,,,,low,15,0,15,0,1,,,,,,,,,
296440,2022-11-29_11h16.34.218,vts_reward_expectancy_bt,2022.2.4,MacIntel,60.0024001,Chrome,1440,900,,,,,1,663,,,,,,,,,,,,,,,,,160,U,star,1,0,,,,,,,,,,,,,,,,switch,letter,lettSwt,k,0.6791,Lo,,,,,,0,,,,,,,,low,16,0,16,0,1,,,,,,,,,
296440,2022-11-29_11h16.34.218,vts_reward_expectancy_bt,2022.2.4,MacIntel,60.0024001,Chrome,1440,900,,,,,10,673,,,,,,,,,,,,,,,,,174,B,circle,1,0,,,,,,,,,,,,,,,,repeat,letter,lettRpt,j,0.7792,Lo,,,,,,0,,,,,,,,low,17,0,17,0,1,,,,,,,,,
296440,2022-11-29_11h16.34.218,vts_reward_expectancy_bt,2022.2.4,MacIntel,60.0024001,Chrome,1440,900,,,,,1,674,,,,,,,,,,,,,,,,,125,Y,triangle,1,0,,,,,,,,,,,,,,,,switch,number,numSwt,d,0.7437,Hi,,,,,,0,,,,,,,,low,18,0,18,0,1,,,,,,,,,
296440,2022-11-29_11h16.34.218,vts_reward_expectancy_bt,2022.2.4,MacIntel,60.0024001,Chrome,1440,900,,,,,10,684,,,,,,,,,,,,,,,,,132,D,hexagon,1,0,,,,,,,,,,,,,,,,repeat,number,numRpt,d,0.6464,Hi,,,,,,0,,,,,,,,low,19,0,19,0,1,,,,,,,,,
296440,2022-11-29_11h16.34.218,vts_reward_expectancy_bt,2022.2.4,MacIntel,60.0024001,Chrome,1440,900,,,,,1,685,,,,,,,,,,,,,,,,,139,H,circle,1,0,,,,,,,,,,,,,,,,repeat,number,numRpt,d,0.9794,Lo,,,,,,0,,,,,,,,low,20,0,20,0,1,,,,,,,,,
296440,2022-11-29_11h16.34.218,vts_reward_expectancy_bt,2022.2.4,MacIntel,60.0024001,Chrome,1440,900,,,,,10,695,,,,,,,,,,,,,,,,,167,S,triangle,1,0,,,,,,,,,,,,,,,,switch,letter,lettSwt,k,0.8664,Hi,,,,,,0,,,,,,,,low,21,0,21,0,1,,,,,,,,,
296440,2022-11-29_11h16.34.218,vts_reward_expectancy_bt,2022.2.4,MacIntel,60.0024001,Chrome,1440,900,,,,,1,696,,,,,,,,,,,,,,,,,146,W,star,1,0,,,,,,,,,,,,,,,,repeat,letter,lettRpt,k,0.7122,Lo,,,,,,0,,,,,,,,low,22,0,22,0,1,,,,,,,,,
296440,2022-11-29_11h16.34.218,vts_reward_expectancy_bt,2022.2.4,MacIntel,60.0024001,Chrome,1440,900,,,,,0,696,,,,,,,,,,,,,,,,,181,F,hexagon,1,0,,,,,,,,,,,,,,,,repeat,letter,lettRpt,j,0.8467,Hi,,,,,,0,,,,,,,,low,23,0,23,0,1,,,,,,,,,
296440,2022-11-29_11h16.34.218,vts_reward_expectancy_bt,2022.2.4,MacIntel,60.0024001,Chrome,1440,900,,,,,10,706,,,,,,,,,,,,,,,,,174,U,hexagon,1,0,,,,,,,,,,,,,,,,switch,number,numSwt,f,0.7987,Hi,,,,,,0,,,,,,,,low,24,0,24,0,1,,,,,,,,,
296440,2022-11-29_11h16.34.218,vts_reward_expectancy_bt,2022.2.4,MacIntel,60.0024001,Chrome,1440,900,,,,,10,716,,,,,,,,,,,,,,,,,146,Y,circle,1,0,,,,,,,,,,,,,,,,switch,letter,lettSwt,k,0.5272,Lo,,,,,,0,,,,,,,,low,25,0,25,0,1,,,,,,,,,
296440,2022-11-29_11h16.34.218,vts_reward_expectancy_bt,2022.2.4,MacIntel,60.0024001,Chrome,1440,900,,,,,10,726,,,,,,,,,,,,,,,,,125,S,triangle,1,0,,,,,,,,,,,,,,,,switch,number,numSwt,d,0.398,Hi,,,,,,0,,,,,,,,low,26,0,26,0,1,,,,,,,,,
296440,2022-11-29_11h16.34.218,vts_reward_expectancy_bt,2022.2.4,MacIntel,60.0024001,Chrome,1440,900,,,,,1,727,,,,,,,,,,,,,,,,,132,B,star,1,0,,,,,,,,,,,,,,,,switch,letter,lettSwt,j,0.6973,Lo,,,,,,0,,,,,,,,low,27,0,27,0,1,,,,,,,,,
296440,2022-11-29_11h16.34.218,vts_reward_expectancy_bt,2022.2.4,MacIntel,60.0024001,Chrome,1440,900,,,,,10,737,,,,,,,,,,,,,,,,,167,W,circle,1,0,,,,,,,,,,,,,,,,repeat,letter,lettRpt,k,0.7008,Lo,,,,,,0,,,,,,,,low,28,0,28,0,1,,,,,,,,,
296440,2022-11-29_11h16.34.218,vts_reward_expectancy_bt,2022.2.4,MacIntel,60.0024001,Chrome,1440,900,,,,,1,738,,,,,,,,,,,,,,,,,160,F,triangle,1,0,,,,,,,,,,,,,,,,switch,number,numSwt,f,0.7971,Hi,,,,,,0,,,,,,,,low,29,0,29,0,1,,,,,,,,,
296440,2022-11-29_11h16.34.218,vts_reward_expectancy_bt,2022.2.4,MacIntel,60.0024001,Chrome,1440,900,,,,,10,748,,,,,,,,,,,,,,,,,139,D,star,1,0,,,,,,,,,,,,,,,,repeat,number,numRpt,d,1.0439,Lo,,,,,,0,,,,,,,,low,30,0,30,0,1,,,,,,,,,
296440,2022-11-29_11h16.34.218,vts_reward_expectancy_bt,2022.2.4,MacIntel,60.0024001,Chrome,1440,900,,,,,10,758,,,,,,,,,,,,,,,,,181,H,hexagon,1,0,,,,,,,,,,,,,,,,switch,letter,lettSwt,j,0.879,Hi,,,,,,0,,,,,,,,low,31,0,31,0,1,,,,,,,,,
296440,2022-11-29_11h16.34.218,vts_reward_expectancy_bt,2022.2.4,MacIntel,60.0024001,Chrome,1440,900,,,,,0,758,,,,,,,,,,,,,,,,,146,S,hexagon,0,0,,,,,,,,,,,,,,,,repeat,letter,NA,j,1.0708,Hi,,,,,,1,,,,,,space,3.5529,low,0,0,0,0,1,,,,,,,,,
296440,2022-11-29_11h16.34.218,vts_reward_expectancy_bt,2022.2.4,MacIntel,60.0024001,Chrome,1440,900,,,,,10,768,,,,,,,,,,,,,,,,,181,W,star,1,1,,,,,,,,,,,,,,,,repeat,letter,lettRpt,k,0.5594,Lo,,,,,,1,,,,,,,,low,1,0,1,0,1,,,,,,,,,
296440,2022-11-29_11h16.34.218,vts_reward_expectancy_bt,2022.2.4,MacIntel,60.0024001,Chrome,1440,900,,,,,1,769,,,,,,,,,,,,,,,,,132,Y,circle,1,0,,,,,,,,,,,,,,,,switch,number,numSwt,d,0.8295,Lo,,,,,,1,,,,,,,,low,2,0,2,0,1,,,,,,,,,
296440,2022-11-29_11h16.34.218,vts_reward_expectancy_bt,2022.2.4,MacIntel,60.0024001,Chrome,1440,900,,,,,0,769,,,,,,,,,,,,,,,,,139,D,triangle,1,0,,,,,,,,,,,,,,,,repeat,number,numRpt,d,0.8812,Hi,,,,,,1,,,,,,,,low,3,0,3,0,1,,,,,,,,,
296440,2022-11-29_11h16.34.218,vts_reward_expectancy_bt,2022.2.4,MacIntel,60.0024001,Chrome,1440,900,,,,,0,769,,,,,,,,,,,,,,,,,160,F,hexagon,1,0,,,,,,,,,,,,,,,,switch,letter,lettSwt,j,0.9209,Hi,,,,,,1,,,,,,,,low,4,0,4,0,1,,,,,,,,,
296440,2022-11-29_11h16.34.218,vts_reward_expectancy_bt,2022.2.4,MacIntel,60.0024001,Chrome,1440,900,,,,,0,769,,,,,,,,,,,,,,,,,174,H,star,0,0,,,,,,,,,,,,,,,,repeat,letter,NA,k,0.6461,Hi,,,,,,1,,,,,,,,low,5,0,5,0,1,,,,,,,,,
296440,2022-11-29_11h16.34.218,vts_reward_expectancy_bt,2022.2.4,MacIntel,60.0024001,Chrome,1440,900,,,,,10,779,,,,,,,,,,,,,,,,,125,U,circle,1,1,,,,,,,,,,,,,,,,repeat,letter,lettRpt,k,0.6469,Lo,,,,,,1,,,,,,,,low,6,0,6,0,1,,,,,,,,,
296440,2022-11-29_11h16.34.218,vts_reward_expectancy_bt,2022.2.4,MacIntel,60.0024001,Chrome,1440,900,,,,,0,779,,,,,,,,,,,,,,,,,167,B,triangle,1,0,,,,,,,,,,,,,,,,switch,number,numSwt,f,0.9035,Hi,,,,,,1,,,,,,,,low,7,0,7,0,1,,,,,,,,,
296440,2022-11-29_11h16.34.218,vts_reward_expectancy_bt,2022.2.4,MacIntel,60.0024001,Chrome,1440,900,,,,,1,780,,,,,,,,,,,,,,,,,146,S,hexagon,1,0,,,,,,,,,,,,,,,,repeat,number,numRpt,d,0.6267,Hi,,,,,,1,,,,,,,,low,8,0,8,0,1,,,,,,,,,
296440,2022-11-29_11h16.34.218,vts_reward_expectancy_bt,2022.2.4,MacIntel,60.0024001,Chrome,1440,900,,,,,1,781,,,,,,,,,,,,,,,,,181,W,triangle,1,0,,,,,,,,,,,,,,,,switch,letter,lettSwt,k,0.5608,Hi,,,,,,1,,,,,,,,low,9,0,9,0,1,,,,,,,,,
296440,2022-11-29_11h16.34.218,vts_reward_expectancy_bt,2022.2.4,MacIntel,60.0024001,Chrome,1440,900,,,,,10,791,,,,,,,,,,,,,,,,,132,Y,circle,1,0,,,,,,,,,,,,,,,,switch,number,numSwt,d,0.597,Lo,,,,,,1,,,,,,,,low,10,0,10,0,1,,,,,,,,,
296440,2022-11-29_11h16.34.218,vts_reward_expectancy_bt,2022.2.4,MacIntel,60.0024001,Chrome,1440,900,,,,,1,792,,,,,,,,,,,,,,,,,139,D,star,1,0,,,,,,,,,,,,,,,,repeat,number,numRpt,d,0.5542,Lo,,,,,,1,,,,,,,,low,11,0,11,0,1,,,,,,,,,
296440,2022-11-29_11h16.34.218,vts_reward_expectancy_bt,2022.2.4,MacIntel,60.0024001,Chrome,1440,900,,,,,1,793,,,,,,,,,,,,,,,,,160,F,hexagon,1,0,,,,,,,,,,,,,,,,repeat,number,numRpt,f,0.4952,Hi,,,,,,1,,,,,,,,low,12,0,12,0,1,,,,,,,,,
296440,2022-11-29_11h16.34.218,vts_reward_expectancy_bt,2022.2.4,MacIntel,60.0024001,Chrome,1440,900,,,,,10,803,,,,,,,,,,,,,,,,,174,H,circle,1,0,,,,,,,,,,,,,,,,switch,letter,lettSwt,j,0.6038,Lo,,,,,,1,,,,,,,,low,13,0,13,0,1,,,,,,,,,
296440,2022-11-29_11h16.34.218,vts_reward_expectancy_bt,2022.2.4,MacIntel,60.0024001,Chrome,1440,900,,,,,10,813,,,,,,,,,,,,,,,,,125,U,triangle,1,0,,,,,,,,,,,,,,,,repeat,letter,lettRpt,k,0.6771,Hi,,,,,,1,,,,,,,,low,14,0,14,0,1,,,,,,,,,
296440,2022-11-29_11h16.34.218,vts_reward_expectancy_bt,2022.2.4,MacIntel,60.0024001,Chrome,1440,900,,,,,1,814,,,,,,,,,,,,,,,,,167,B,star,1,0,,,,,,,,,,,,,,,,switch,number,numSwt,f,0.8225,Lo,,,,,,1,,,,,,,,low,15,0,15,0,1,,,,,,,,,
296440,2022-11-29_11h16.34.218,vts_reward_expectancy_bt,2022.2.4,MacIntel,60.0024001,Chrome,1440,900,,,,,1,815,,,,,,,,,,,,,,,,,125,S,star,1,0,,,,,,,,,,,,,,,,repeat,number,numRpt,d,0.6305,Lo,,,,,,1,,,,,,,,low,16,0,16,0,1,,,,,,,,,
296440,2022-11-29_11h16.34.218,vts_reward_expectancy_bt,2022.2.4,MacIntel,60.0024001,Chrome,1440,900,,,,,10,825,,,,,,,,,,,,,,,,,174,D,triangle,1,0,,,,,,,,,,,,,,,,switch,letter,lettSwt,j,0.6617,Hi,,,,,,1,,,,,,,,low,17,0,17,0,1,,,,,,,,,
296440,2022-11-29_11h16.34.218,vts_reward_expectancy_bt,2022.2.4,MacIntel,60.0024001,Chrome,1440,900,,,,,0,825,,,,,,,,,,,,,,,,,146,F,hexagon,1,0,,,,,,,,,,,,,,,,switch,number,numSwt,d,1.0112,Hi,,,,,,1,,,,,,,,low,18,0,18,0,1,,,,,,,,,
296440,2022-11-29_11h16.34.218,vts_reward_expectancy_bt,2022.2.4,MacIntel,60.0024001,Chrome,1440,900,,,,,10,835,,,,,,,,,,,,,,,,,132,W,circle,1,0,,,,,,,,,,,,,,,,switch,letter,lettSwt,k,0.73,Lo,,,,,,1,,,,,,,,low,19,0,19,0,1,,,,,,,,,
296440,2022-11-29_11h16.34.218,vts_reward_expectancy_bt,2022.2.4,MacIntel,60.0024001,Chrome,1440,900,,,,,1,836,,,,,,,,,,,,,,,,,181,U,triangle,1,0,,,,,,,,,,,,,,,,switch,number,numSwt,f,0.6977,Hi,,,,,,1,,,,,,,,low,20,0,20,0,1,,,,,,,,,
296440,2022-11-29_11h16.34.218,vts_reward_expectancy_bt,2022.2.4,MacIntel,60.0024001,Chrome,1440,900,,,,,1,837,,,,,,,,,,,,,,,,,139,B,circle,1,0,,,,,,,,,,,,,,,,repeat,number,numRpt,d,0.5173,Lo,,,,,,1,,,,,,,,low,21,0,21,0,1,,,,,,,,,
296440,2022-11-29_11h16.34.218,vts_reward_expectancy_bt,2022.2.4,MacIntel,60.0024001,Chrome,1440,900,,,,,1,838,,,,,,,,,,,,,,,,,160,Y,hexagon,1,0,,,,,,,,,,,,,,,,switch,letter,lettSwt,k,0.592,Hi,,,,,,1,,,,,,,,low,22,0,22,0,1,,,,,,,,,
296440,2022-11-29_11h16.34.218,vts_reward_expectancy_bt,2022.2.4,MacIntel,60.0024001,Chrome,1440,900,,,,,10,848,,,,,,,,,,,,,,,,,167,H,star,1,0,,,,,,,,,,,,,,,,repeat,letter,lettRpt,j,0.629,Lo,,,,,,1,,,,,,,,low,23,0,23,0,1,,,,,,,,,
296440,2022-11-29_11h16.34.218,vts_reward_expectancy_bt,2022.2.4,MacIntel,60.0024001,Chrome,1440,900,,,,,10,858,,,,,,,,,,,,,,,,,139,F,triangle,1,0,,,,,,,,,,,,,,,,repeat,letter,lettRpt,j,0.6316,Hi,,,,,,1,,,,,,,,low,24,0,24,0,1,,,,,,,,,
296440,2022-11-29_11h16.34.218,vts_reward_expectancy_bt,2022.2.4,MacIntel,60.0024001,Chrome,1440,900,,,,,0,858,,,,,,,,,,,,,,,,,146,H,hexagon,1,0,,,,,,,,,,,,,,,,switch,number,numSwt,d,0.8511,Hi,,,,,,1,,,,,,,,low,25,0,25,0,1,,,,,,,,,
296440,2022-11-29_11h16.34.218,vts_reward_expectancy_bt,2022.2.4,MacIntel,60.0024001,Chrome,1440,900,,,,,10,868,,,,,,,,,,,,,,,,,174,Y,star,1,0,,,,,,,,,,,,,,,,switch,letter,lettSwt,k,0.6136,Lo,,,,,,1,,,,,,,,low,26,0,26,0,1,,,,,,,,,
296440,2022-11-29_11h16.34.218,vts_reward_expectancy_bt,2022.2.4,MacIntel,60.0024001,Chrome,1440,900,,,,,1,869,,,,,,,,,,,,,,,,,181,B,circle,1,0,,,,,,,,,,,,,,,,switch,number,numSwt,f,0.9969,Lo,,,,,,1,,,,,,,,low,27,0,27,0,1,,,,,,,,,
296440,2022-11-29_11h16.34.218,vts_reward_expectancy_bt,2022.2.4,MacIntel,60.0024001,Chrome,1440,900,,,,,10,879,,,,,,,,,,,,,,,,,160,W,triangle,1,0,,,,,,,,,,,,,,,,repeat,number,numRpt,f,0.7825,Hi,,,,,,1,,,,,,,,low,28,0,28,0,1,,,,,,,,,
296440,2022-11-29_11h16.34.218,vts_reward_expectancy_bt,2022.2.4,MacIntel,60.0024001,Chrome,1440,900,,,,,0,879,,,,,,,,,,,,,,,,,132,U,hexagon,1,0,,,,,,,,,,,,,,,,switch,letter,lettSwt,k,0.7273,Hi,,,,,,1,,,,,,,,low,29,0,29,0,1,,,,,,,,,
296440,2022-11-29_11h16.34.218,vts_reward_expectancy_bt,2022.2.4,MacIntel,60.0024001,Chrome,1440,900,,,,,10,889,,,,,,,,,,,,,,,,,167,S,star,1,0,,,,,,,,,,,,,,,,repeat,letter,lettRpt,k,0.7958,Lo,,,,,,1,,,,,,,,low,30,0,30,0,1,,,,,,,,,
296440,2022-11-29_11h16.34.218,vts_reward_expectancy_bt,2022.2.4,MacIntel,60.0024001,Chrome,1440,900,,,,,0,889,,,,,,,,,,,,,,,,,125,D,circle,0,0,,,,,,,,,,,,,,,,switch,number,NA,f,0.229,Lo,,,,,,1,,,,,,,,low,31,0,31,0,1,,,,,,,,,
296440,2022-11-29_11h16.34.218,vts_reward_expectancy_bt,2022.2.4,MacIntel,60.0024001,Chrome,1440,900,,,,,10,899,,,,,,,,,,,,,,,,,167,S,star,1,1,,,,,,,,,,,,,,,,repeat,number,numRpt,f,0.8163,Lo,,,,,,2,,,,,,space,1.3069,low,0,0,0,0,1,,,,,,,,,
296440,2022-11-29_11h16.34.218,vts_reward_expectancy_bt,2022.2.4,MacIntel,60.0024001,Chrome,1440,900,,,,,0,899,,,,,,,,,,,,,,,,,160,F,triangle,1,0,,,,,,,,,,,,,,,,switch,letter,lettSwt,j,0.8562,Hi,,,,,,2,,,,,,,,low,1,0,1,0,1,,,,,,,,,
296440,2022-11-29_11h16.34.218,vts_reward_expectancy_bt,2022.2.4,MacIntel,60.0024001,Chrome,1440,900,,,,,1,900,,,,,,,,,,,,,,,,,181,Y,circle,1,0,,,,,,,,,,,,,,,,repeat,letter,lettRpt,k,0.5995,Lo,,,,,,2,,,,,,,,low,2,0,2,0,1,,,,,,,,,
296440,2022-11-29_11h16.34.218,vts_reward_expectancy_bt,2022.2.4,MacIntel,60.0024001,Chrome,1440,900,,,,,10,910,,,,,,,,,,,,,,,,,146,B,hexagon,1,0,,,,,,,,,,,,,,,,repeat,letter,lettRpt,j,0.5455,Hi,,,,,,2,,,,,,,,low,3,0,3,0,1,,,,,,,,,
296440,2022-11-29_11h16.34.218,vts_reward_expectancy_bt,2022.2.4,MacIntel,60.0024001,Chrome,1440,900,,,,,1,911,,,,,,,,,,,,,,,,,174,U,star,1,0,,,,,,,,,,,,,,,,switch,number,numSwt,f,0.6455,Lo,,,,,,2,,,,,,,,low,4,0,4,0,1,,,,,,,,,
296440,2022-11-29_11h16.34.218,vts_reward_expectancy_bt,2022.2.4,MacIntel,60.0024001,Chrome,1440,900,,,,,10,921,,,,,,,,,,,,,,,,,139,W,triangle,1,0,,,,,,,,,,,,,,,,switch,letter,lettSwt,k,0.4637,Hi,,,,,,2,,,,,,,,low,5,0,5,0,1,,,,,,,,,
296440,2022-11-29_11h16.34.218,vts_reward_expectancy_bt,2022.2.4,MacIntel,60.0024001,Chrome,1440,900,,,,,0,921,,,,,,,,,,,,,,,,,132,D,circle,0,0,,,,,,,,,,,,,,,,switch,number,NA,f,0.5123,Hi,,,,,,2,,,,,,,,low,6,0,6,0,1,,,,,,,,,
296440,2022-11-29_11h16.34.218,vts_reward_expectancy_bt,2022.2.4,MacIntel,60.0024001,Chrome,1440,900,,,,,0,921,,,,,,,,,,,,,,,,,125,H,hexagon,1,1,,,,,,,,,,,,,,,,repeat,number,numRpt,d,0.6964,Hi,,,,,,2,,,,,,,,low,7,0,7,0,1,,,,,,,,,
296440,2022-11-29_11h16.34.218,vts_reward_expectancy_bt,2022.2.4,MacIntel,60.0024001,Chrome,1440,900,,,,,10,931,,,,,,,,,,,,,,,,,167,S,circle,1,0,,,,,,,,,,,,,,,,repeat,number,numRpt,f,1.177,Lo,,,,,,2,,,,,,,,low,8,0,8,0,1,,,,,,,,,
296440,2022-11-29_11h16.34.218,vts_reward_expectancy_bt,2022.2.4,MacIntel,60.0024001,Chrome,1440,900,,,,,0,931,,,,,,,,,,,,,,,,,160,F,triangle,1,0,,,,,,,,,,,,,,,,switch,letter,lettSwt,j,1.0326,Hi,,,,,,2,,,,,,,,low,9,0,9,0,1,,,,,,,,,
296440,2022-11-29_11h16.34.218,vts_reward_expectancy_bt,2022.2.4,MacIntel,60.0024001,Chrome,1440,900,,,,,1,932,,,,,,,,,,,,,,,,,181,Y,star,1,0,,,,,,,,,,,,,,,,switch,number,numSwt,f,0.7334,Lo,,,,,,2,,,,,,,,low,10,0,10,0,1,,,,,,,,,
296440,2022-11-29_11h16.34.218,vts_reward_expectancy_bt,2022.2.4,MacIntel,60.0024001,Chrome,1440,900,,,,,0,932,,,,,,,,,,,,,,,,,146,B,hexagon,1,0,,,,,,,,,,,,,,,,switch,letter,lettSwt,j,0.6927,Hi,,,,,,2,,,,,,,,low,11,0,11,0,1,,,,,,,,,
296440,2022-11-29_11h16.34.218,vts_reward_expectancy_bt,2022.2.4,MacIntel,60.0024001,Chrome,1440,900,,,,,10,942,,,,,,,,,,,,,,,,,174,U,triangle,1,0,,,,,,,,,,,,,,,,repeat,letter,lettRpt,k,0.4859,Hi,,,,,,2,,,,,,,,low,12,0,12,0,1,,,,,,,,,
296440,2022-11-29_11h16.34.218,vts_reward_expectancy_bt,2022.2.4,MacIntel,60.0024001,Chrome,1440,900,,,,,10,952,,,,,,,,,,,,,,,,,139,W,circle,1,0,,,,,,,,,,,,,,,,switch,number,numSwt,d,0.7052,Lo,,,,,,2,,,,,,,,low,13,0,13,0,1,,,,,,,,,
296440,2022-11-29_11h16.34.218,vts_reward_expectancy_bt,2022.2.4,MacIntel,60.0024001,Chrome,1440,900,,,,,1,953,,,,,,,,,,,,,,,,,132,D,star,1,0,,,,,,,,,,,,,,,,repeat,number,numRpt,d,0.6288,Lo,,,,,,2,,,,,,,,low,14,0,14,0,1,,,,,,,,,
296440,2022-11-29_11h16.34.218,vts_reward_expectancy_bt,2022.2.4,MacIntel,60.0024001,Chrome,1440,900,,,,,10,963,,,,,,,,,,,,,,,,,125,H,hexagon,1,0,,,,,,,,,,,,,,,,switch,letter,lettSwt,j,0.5969,Hi,,,,,,2,,,,,,,,low,15,0,15,0,1,,,,,,,,,
296440,2022-11-29_11h16.34.218,vts_reward_expectancy_bt,2022.2.4,MacIntel,60.0024001,Chrome,1440,900,,,,,1,964,,,,,,,,,,,,,,,,,167,W,circle,1,0,,,,,,,,,,,,,,,,switch,number,numSwt,f,0.8186,Lo,,,,,,2,,,,,,,,low,16,0,16,0,1,,,,,,,,,
296440,2022-11-29_11h16.34.218,vts_reward_expectancy_bt,2022.2.4,MacIntel,60.0024001,Chrome,1440,900,,,,,10,974,,,,,,,,,,,,,,,,,160,D,hexagon,1,0,,,,,,,,,,,,,,,,switch,letter,lettSwt,j,0.5947,Hi,,,,,,2,,,,,,,,low,17,0,17,0,1,,,,,,,,,
296440,2022-11-29_11h16.34.218,vts_reward_expectancy_bt,2022.2.4,MacIntel,60.0024001,Chrome,1440,900,,,,,1,975,,,,,,,,,,,,,,,,,181,F,star,1,0,,,,,,,,,,,,,,,,repeat,letter,lettRpt,j,0.6271,Lo,,,,,,2,,,,,,,,low,18,0,18,0,1,,,,,,,,,
296440,2022-11-29_11h16.34.218,vts_reward_expectancy_bt,2022.2.4,MacIntel,60.0024001,Chrome,1440,900,,,,,0,975,,,,,,,,,,,,,,,,,146,B,triangle,1,0,,,,,,,,,,,,,,,,repeat,letter,lettRpt,j,0.8713,Hi,,,,,,2,,,,,,,,low,19,0,19,0,1,,,,,,,,,
296440,2022-11-29_11h16.34.218,vts_reward_expectancy_bt,2022.2.4,MacIntel,60.0024001,Chrome,1440,900,,,,,1,976,,,,,,,,,,,,,,,,,132,H,star,1,0,,,,,,,,,,,,,,,,repeat,letter,lettRpt,j,0.5615,Lo,,,,,,2,,,,,,,,low,20,0,20,0,1,,,,,,,,,
296440,2022-11-29_11h16.34.218,vts_reward_expectancy_bt,2022.2.4,MacIntel,60.0024001,Chrome,1440,900,,,,,10,986,,,,,,,,,,,,,,,,,125,U,circle,1,0,,,,,,,,,,,,,,,,repeat,letter,lettRpt,k,1.15,Lo,,,,,,2,,,,,,,,low,21,0,21,0,1,,,,,,,,,
296440,2022-11-29_11h16.34.218,vts_reward_expectancy_bt,2022.2.4,MacIntel,60.0024001,Chrome,1440,900,,,,,10,996,,,,,,,,,,,,,,,,,174,Y,triangle,1,0,,,,,,,,,,,,,,,,repeat,letter,lettRpt,k,0.6168,Hi,,,,,,2,,,,,,,,low,22,0,22,0,1,,,,,,,,,
296440,2022-11-29_11h16.34.218,vts_reward_expectancy_bt,2022.2.4,MacIntel,60.0024001,Chrome,1440,900,,,,,0,996,,,,,,,,,,,,,,,,,139,S,hexagon,1,0,,,,,,,,,,,,,,,,repeat,letter,lettRpt,k,1.0144,Hi,,,,,,2,,,,,,,,low,23,0,23,0,1,,,,,,,,,
296440,2022-11-29_11h16.34.218,vts_reward_expectancy_bt,2022.2.4,MacIntel,60.0024001,Chrome,1440,900,,,,,1,997,,,,,,,,,,,,,,,,,146,D,circle,1,0,,,,,,,,,,,,,,,,switch,number,numSwt,d,0.5436,Lo,,,,,,2,,,,,,,,low,24,0,24,0,1,,,,,,,,,
296440,2022-11-29_11h16.34.218,vts_reward_expectancy_bt,2022.2.4,MacIntel,60.0024001,Chrome,1440,900,,,,,10,1007,,,,,,,,,,,,,,,,,139,Y,star,1,0,,,,,,,,,,,,,,,,repeat,number,numRpt,d,0.5797,Lo,,,,,,2,,,,,,,,low,25,0,25,0,1,,,,,,,,,
296440,2022-11-29_11h16.34.218,vts_reward_expectancy_bt,2022.2.4,MacIntel,60.0024001,Chrome,1440,900,,,,,0,1007,,,,,,,,,,,,,,,,,125,S,hexagon,1,0,,,,,,,,,,,,,,,,repeat,number,numRpt,d,0.5634,Hi,,,,,,2,,,,,,,,low,26,0,26,0,1,,,,,,,,,
296440,2022-11-29_11h16.34.218,vts_reward_expectancy_bt,2022.2.4,MacIntel,60.0024001,Chrome,1440,900,,,,,0,1007,,,,,,,,,,,,,,,,,174,B,triangle,0,0,,,,,,,,,,,,,,,,switch,letter,NA,k,0.632,Hi,,,,,,2,,,,,,,,low,27,0,27,0,1,,,,,,,,,
296440,2022-11-29_11h16.34.218,vts_reward_expectancy_bt,2022.2.4,MacIntel,60.0024001,Chrome,1440,900,,,,,0,1007,,,,,,,,,,,,,,,,,167,F,triangle,1,1,,,,,,,,,,,,,,,,repeat,letter,lettRpt,j,1.0136,Hi,,,,,,2,,,,,,,,low,28,0,28,0,1,,,,,,,,,
296440,2022-11-29_11h16.34.218,vts_reward_expectancy_bt,2022.2.4,MacIntel,60.0024001,Chrome,1440,900,,,,,1,1008,,,,,,,,,,,,,,,,,160,U,circle,1,0,,,,,,,,,,,,,,,,repeat,letter,lettRpt,k,0.7126,Lo,,,,,,2,,,,,,,,low,29,0,29,0,1,,,,,,,,,
296440,2022-11-29_11h16.34.218,vts_reward_expectancy_bt,2022.2.4,MacIntel,60.0024001,Chrome,1440,900,,,,,1,1009,,,,,,,,,,,,,,,,,132,H,star,1,0,,,,,,,,,,,,,,,,switch,number,numSwt,d,0.5258,Lo,,,,,,2,,,,,,,,low,30,0,30,0,1,,,,,,,,,
296440,2022-11-29_11h16.34.218,vts_reward_expectancy_bt,2022.2.4,MacIntel,60.0024001,Chrome,1440,900,,,,,0,1009,,,,,,,,,,,,,,,,,181,W,hexagon,1,0,,,,,,,,,,,,,,,,repeat,number,numRpt,f,0.5999,Hi,,,,,,2,,,,,,,,low,31,0,31,0,1,,,,,,,,,
296440,2022-11-29_11h16.34.218,vts_reward_expectancy_bt,2022.2.4,MacIntel,60.0024001,Chrome,1440,900,,,,,1,1010,,,,,,,,,,,,,,,,,160,Y,circle,1,0,,,,,,,,,,,,,,,,repeat,number,numRpt,f,0.5432,Lo,,,,,,3,,,,,,space,0.8738,low,0,0,0,0,1,,,,,,,,,
296440,2022-11-29_11h16.34.218,vts_reward_expectancy_bt,2022.2.4,MacIntel,60.0024001,Chrome,1440,900,,,,,1,1011,,,,,,,,,,,,,,,,,125,B,hexagon,1,0,,,,,,,,,,,,,,,,repeat,number,numRpt,d,0.5545,Hi,,,,,,3,,,,,,,,low,1,0,1,0,1,,,,,,,,,
296440,2022-11-29_11h16.34.218,vts_reward_expectancy_bt,2022.2.4,MacIntel,60.0024001,Chrome,1440,900,,,,,10,1021,,,,,,,,,,,,,,,,,139,S,triangle,1,0,,,,,,,,,,,,,,,,switch,letter,lettSwt,k,0.4289,Hi,,,,,,3,,,,,,,,low,2,0,2,0,1,,,,,,,,,
296440,2022-11-29_11h16.34.218,vts_reward_expectancy_bt,2022.2.4,MacIntel,60.0024001,Chrome,1440,900,,,,,0,1021,,,,,,,,,,,,,,,,,174,D,star,0,0,,,,,,,,,,,,,,,,repeat,letter,NA,k,0.3992,Hi,,,,,,3,,,,,,,,low,3,0,3,0,1,,,,,,,,,
296440,2022-11-29_11h16.34.218,vts_reward_expectancy_bt,2022.2.4,MacIntel,60.0024001,Chrome,1440,900,,,,,10,1031,,,,,,,,,,,,,,,,,132,U,circle,1,1,,,,,,,,,,,,,,,,switch,number,numSwt,d,0.5793,Lo,,,,,,3,,,,,,,,low,4,0,4,0,1,,,,,,,,,
296440,2022-11-29_11h16.34.218,vts_reward_expectancy_bt,2022.2.4,MacIntel,60.0024001,Chrome,1440,900,,,,,0,1031,,,,,,,,,,,,,,,,,181,H,hexagon,1,0,,,,,,,,,,,,,,,,repeat,number,numRpt,f,0.8883,Hi,,,,,,3,,,,,,,,low,5,0,5,0,1,,,,,,,,,
296440,2022-11-29_11h16.34.218,vts_reward_expectancy_bt,2022.2.4,MacIntel,60.0024001,Chrome,1440,900,,,,,0,1031,,,,,,,,,,,,,,,,,167,F,triangle,1,0,,,,,,,,,,,,,,,,repeat,number,numRpt,f,1.1937,Hi,,,,,,3,,,,,,,,low,6,0,6,0,1,,,,,,,,,
296440,2022-11-29_11h16.34.218,vts_reward_expectancy_bt,2022.2.4,MacIntel,60.0024001,Chrome,1440,900,,,,,1,1032,,,,,,,,,,,,,,,,,146,W,star,1,0,,,,,,,,,,,,,,,,switch,letter,lettSwt,k,0.5959,Lo,,,,,,3,,,,,,,,low,7,0,7,0,1,,,,,,,,,
296440,2022-11-29_11h16.34.218,vts_reward_expectancy_bt,2022.2.4,MacIntel,60.0024001,Chrome,1440,900,,,,,0,1032,,,,,,,,,,,,,,,,,160,Y,hexagon,1,0,,,,,,,,,,,,,,,,repeat,letter,lettRpt,k,0.8634,Hi,,,,,,3,,,,,,,,low,8,0,8,0,1,,,,,,,,,
296440,2022-11-29_11h16.34.218,vts_reward_expectancy_bt,2022.2.4,MacIntel,60.0024001,Chrome,1440,900,,,,,0,1032,,,,,,,,,,,,,,,,,125,B,triangle,1,0,,,,,,,,,,,,,,,,switch,number,numSwt,d,0.6213,Hi,,,,,,3,,,,,,,,low,9,0,9,0,1,,,,,,,,,
296440,2022-11-29_11h16.34.218,vts_reward_expectancy_bt,2022.2.4,MacIntel,60.0024001,Chrome,1440,900,,,,,10,1042,,,,,,,,,,,,,,,,,139,S,circle,1,0,,,,,,,,,,,,,,,,switch,letter,lettSwt,k,0.6981,Lo,,,,,,3,,,,,,,,low,10,0,10,0,1,,,,,,,,,
296440,2022-11-29_11h16.34.218,vts_reward_expectancy_bt,2022.2.4,MacIntel,60.0024001,Chrome,1440,900,,,,,10,1052,,,,,,,,,,,,,,,,,174,D,star,1,0,,,,,,,,,,,,,,,,switch,number,numSwt,f,0.6275,Lo,,,,,,3,,,,,,,,low,11,0,11,0,1,,,,,,,,,
296440,2022-11-29_11h16.34.218,vts_reward_expectancy_bt,2022.2.4,MacIntel,60.0024001,Chrome,1440,900,,,,,1,1053,,,,,,,,,,,,,,,,,132,U,triangle,1,0,,,,,,,,,,,,,,,,switch,letter,lettSwt,k,0.4997,Hi,,,,,,3,,,,,,,,low,12,0,12,0,1,,,,,,,,,
296440,2022-11-29_11h16.34.218,vts_reward_expectancy_bt,2022.2.4,MacIntel,60.0024001,Chrome,1440,900,,,,,10,1063,,,,,,,,,,,,,,,,,181,H,circle,1,0,,,,,,,,,,,,,,,,switch,number,numSwt,f,0.604,Lo,,,,,,3,,,,,,,,low,13,0,13,0,1,,,,,,,,,
296440,2022-11-29_11h16.34.218,vts_reward_expectancy_bt,2022.2.4,MacIntel,60.0024001,Chrome,1440,900,,,,,0,1063,,,,,,,,,,,,,,,,,167,F,hexagon,0,0,,,,,,,,,,,,,,,,switch,letter,NA,k,0.513,Lo,,,,,,3,,,,,,,,low,14,0,14,0,1,,,,,,,,,
296440,2022-11-29_11h16.34.218,vts_reward_expectancy_bt,2022.2.4,MacIntel,60.0024001,Chrome,1440,900,,,,,10,1073,,,,,,,,,,,,,,,,,146,W,star,1,1,,,,,,,,,,,,,,,,repeat,letter,lettRpt,k,0.8547,Lo,,,,,,3,,,,,,,,low,15,0,15,0,1,,,,,,,,,
296440,2022-11-29_11h16.34.218,vts_reward_expectancy_bt,2022.2.4,MacIntel,60.0024001,Chrome,1440,900,,,,,1,1074,,,,,,,,,,,,,,,,,167,W,hexagon,1,0,,,,,,,,,,,,,,,,repeat,letter,lettRpt,k,0.4686,Hi,,,,,,3,,,,,,,,low,16,0,16,0,1,,,,,,,,,
296440,2022-11-29_11h16.34.218,vts_reward_expectancy_bt,2022.2.4,MacIntel,60.0024001,Chrome,1440,900,,,,,1,1075,,,,,,,,,,,,,,,,,174,Y,circle,1,0,,,,,,,,,,,,,,,,switch,number,numSwt,f,0.5577,Lo,,,,,,3,,,,,,,,low,17,0,17,0,1,,,,,,,,,
296440,2022-11-29_11h16.34.218,vts_reward_expectancy_bt,2022.2.4,MacIntel,60.0024001,Chrome,1440,900,,,,,1,1076,,,,,,,,,,,,,,,,,146,F,star,1,0,,,,,,,,,,,,,,,,repeat,number,numRpt,d,0.9317,Lo,,,,,,3,,,,,,,,low,18,0,18,0,1,,,,,,,,,
296440,2022-11-29_11h16.34.218,vts_reward_expectancy_bt,2022.2.4,MacIntel,60.0024001,Chrome,1440,900,,,,,0,1076,,,,,,,,,,,,,,,,,139,D,triangle,1,0,,,,,,,,,,,,,,,,repeat,number,numRpt,d,1.7141,Hi,,,,,,3,,,,,,,,low,19,0,19,0,1,,,,,,,,,
296440,2022-11-29_11h16.34.218,vts_reward_expectancy_bt,2022.2.4,MacIntel,60.0024001,Chrome,1440,900,,,,,0,1076,,,,,,,,,,,,,,,,,160,U,hexagon,1,0,,,,,,,,,,,,,,,,repeat,number,numRpt,f,0.8118,Hi,,,,,,3,,,,,,,,low,20,0,20,0,1,,,,,,,,,
296440,2022-11-29_11h16.34.218,vts_reward_expectancy_bt,2022.2.4,MacIntel,60.0024001,Chrome,1440,900,,,,,0,1076,,,,,,,,,,,,,,,,,181,H,triangle,0,0,,,,,,,,,,,,,,,,repeat,number,NA,d,0.8808,Hi,,,,,,3,,,,,,,,low,21,0,21,0,1,,,,,,,,,
296440,2022-11-29_11h16.34.218,vts_reward_expectancy_bt,2022.2.4,MacIntel,60.0024001,Chrome,1440,900,,,,,1,1077,,,,,,,,,,,,,,,,,125,S,star,1,1,,,,,,,,,,,,,,,,repeat,number,numRpt,d,0.685,Lo,,,,,,3,,,,,,,,low,22,0,22,0,1,,,,,,,,,
296440,2022-11-29_11h16.34.218,vts_reward_expectancy_bt,2022.2.4,MacIntel,60.0024001,Chrome,1440,900,,,,,10,1087,,,,,,,,,,,,,,,,,132,B,circle,1,0,,,,,,,,,,,,,,,,switch,letter,lettSwt,j,0.7054,Lo,,,,,,3,,,,,,,,low,23,0,23,0,1,,,,,,,,,
296440,2022-11-29_11h16.34.218,vts_reward_expectancy_bt,2022.2.4,MacIntel,60.0024001,Chrome,1440,900,,,,,0,1087,,,,,,,,,,,,,,,,,174,U,hexagon,1,0,,,,,,,,,,,,,,,,repeat,letter,lettRpt,k,0.8608,Hi,,,,,,3,,,,,,,,low,24,0,24,0,1,,,,,,,,,
296440,2022-11-29_11h16.34.218,vts_reward_expectancy_bt,2022.2.4,MacIntel,60.0024001,Chrome,1440,900,,,,,10,1097,,,,,,,,,,,,,,,,,139,D,circle,1,0,,,,,,,,,,,,,,,,repeat,letter,lettRpt,j,2.0185,Lo,,,,,,3,,,,,,,,low,25,0,25,0,1,,,,,,,,,
296440,2022-11-29_11h16.34.218,vts_reward_expectancy_bt,2022.2.4,MacIntel,60.0024001,Chrome,1440,900,,,,,0,1097,,,,,,,,,,,,,,,,,132,S,triangle,0,0,,,,,,,,,,,,,,,,repeat,letter,NA,j,1.4776,Lo,,,,,,3,,,,,,,,low,26,0,26,0,1,,,,,,,,,
296440,2022-11-29_11h16.34.218,vts_reward_expectancy_bt,2022.2.4,MacIntel,60.0024001,Chrome,1440,900,,,,,10,1107,,,,,,,,,,,,,,,,,125,H,star,1,1,,,,,,,,,,,,,,,,repeat,letter,lettRpt,j,1.3785,Lo,,,,,,3,,,,,,,,low,27,0,27,0,1,,,,,,,,,
296440,2022-11-29_11h16.34.218,vts_reward_expectancy_bt,2022.2.4,MacIntel,60.0024001,Chrome,1440,900,,,,,0,1107,,,,,,,,,,,,,,,,,181,Y,hexagon,1,0,,,,,,,,,,,,,,,,repeat,letter,lettRpt,k,1.4276,Hi,,,,,,3,,,,,,,,low,28,0,28,0,1,,,,,,,,,
296440,2022-11-29_11h16.34.218,vts_reward_expectancy_bt,2022.2.4,MacIntel,60.0024001,Chrome,1440,900,,,,,0,1107,,,,,,,,,,,,,,,,,160,F,triangle,1,0,,,,,,,,,,,,,,,,repeat,letter,lettRpt,j,1.0118,Hi,,,,,,3,,,,,,,,low,29,0,29,0,1,,,,,,,,,
296440,2022-11-29_11h16.34.218,vts_reward_expectancy_bt,2022.2.4,MacIntel,60.0024001,Chrome,1440,900,,,,,0,1107,,,,,,,,,,,,,,,,,146,W,circle,0,0,,,,,,,,,,,,,,,,repeat,letter,NA,j,1.7146,Hi,,,,,,3,,,,,,,,low,30,0,30,0,1,,,,,,,,,
296440,2022-11-29_11h16.34.218,vts_reward_expectancy_bt,2022.2.4,MacIntel,60.0024001,Chrome,1440,900,,,,,0,1107,,,,,,,,,,,,,,,,,167,B,star,0,1,,,,,,,,,,,,,,,,repeat,letter,NA,k,0.5323,Hi,,,,,,3,,,,,,,,low,31,0,31,0,1,,,,,,,,,
296440,2022-11-29_11h16.34.218,vts_reward_expectancy_bt,2022.2.4,MacIntel,60.0024001,Chrome,1440,900,,,,,0,1107,,,,,,,,,,,,,,,,,146,W,hexagon,1,1,,,,,,,,,,,,,,,,switch,number,numSwt,d,0.643,Hi,,,,,,4,,,,,,space,1.2027,low,0,0,0,0,1,,,,,,,,,
296440,2022-11-29_11h16.34.218,vts_reward_expectancy_bt,2022.2.4,MacIntel,60.0024001,Chrome,1440,900,,,,,10,1117,,,,,,,,,,,,,,,,,167,F,triangle,1,0,,,,,,,,,,,,,,,,switch,letter,lettSwt,j,0.4553,Hi,,,,,,4,,,,,,,,low,1,0,1,0,1,,,,,,,,,
296440,2022-11-29_11h16.34.218,vts_reward_expectancy_bt,2022.2.4,MacIntel,60.0024001,Chrome,1440,900,,,,,10,1127,,,,,,,,,,,,,,,,,181,S,star,1,0,,,,,,,,,,,,,,,,repeat,letter,lettRpt,k,0.5286,Lo,,,,,,4,,,,,,,,low,2,0,2,0,1,,,,,,,,,
296440,2022-11-29_11h16.34.218,vts_reward_expectancy_bt,2022.2.4,MacIntel,60.0024001,Chrome,1440,900,,,,,10,1137,,,,,,,,,,,,,,,,,125,H,circle,1,0,,,,,,,,,,,,,,,,switch,number,numSwt,d,0.4462,Lo,,,,,,4,,,,,,,,low,3,0,3,0,1,,,,,,,,,
296440,2022-11-29_11h16.34.218,vts_reward_expectancy_bt,2022.2.4,MacIntel,60.0024001,Chrome,1440,900,,,,,10,1147,,,,,,,,,,,,,,,,,174,D,hexagon,1,0,,,,,,,,,,,,,,,,repeat,number,numRpt,f,0.4307,Hi,,,,,,4,,,,,,,,low,4,0,4,0,1,,,,,,,,,
296440,2022-11-29_11h16.34.218,vts_reward_expectancy_bt,2022.2.4,MacIntel,60.0024001,Chrome,1440,900,,,,,10,1157,,,,,,,,,,,,,,,,,132,Y,triangle,1,0,,,,,,,,,,,,,,,,switch,letter,lettSwt,k,0.4617,Hi,,,,,,4,,,,,,,,low,5,0,5,0,1,,,,,,,,,
296440,2022-11-29_11h16.34.218,vts_reward_expectancy_bt,2022.2.4,MacIntel,60.0024001,Chrome,1440,900,,,,,1,1158,,,,,,,,,,,,,,,,,139,U,star,1,0,,,,,,,,,,,,,,,,switch,number,numSwt,d,0.5649,Lo,,,,,,4,,,,,,,,low,6,0,6,0,1,,,,,,,,,
296440,2022-11-29_11h16.34.218,vts_reward_expectancy_bt,2022.2.4,MacIntel,60.0024001,Chrome,1440,900,,,,,1,1159,,,,,,,,,,,,,,,,,160,B,circle,1,0,,,,,,,,,,,,,,,,repeat,number,numRpt,f,0.4291,Lo,,,,,,4,,,,,,,,low,7,0,7,0,1,,,,,,,,,
296440,2022-11-29_11h16.34.218,vts_reward_expectancy_bt,2022.2.4,MacIntel,60.0024001,Chrome,1440,900,,,,,1,1160,,,,,,,,,,,,,,,,,146,W,circle,1,0,,,,,,,,,,,,,,,,repeat,number,numRpt,d,0.6437,Lo,,,,,,4,,,,,,,,low,8,0,8,0,1,,,,,,,,,
296440,2022-11-29_11h16.34.218,vts_reward_expectancy_bt,2022.2.4,MacIntel,60.0024001,Chrome,1440,900,,,,,10,1170,,,,,,,,,,,,,,,,,167,F,hexagon,1,0,,,,,,,,,,,,,,,,switch,letter,lettSwt,j,0.4958,Hi,,,,,,4,,,,,,,,low,9,0,9,0,1,,,,,,,,,
296440,2022-11-29_11h16.34.218,vts_reward_expectancy_bt,2022.2.4,MacIntel,60.0024001,Chrome,1440,900,,,,,0,1170,,,,,,,,,,,,,,,,,181,S,triangle,0,0,,,,,,,,,,,,,,,,repeat,letter,NA,j,0.5616,Hi,,,,,,4,,,,,,,,low,10,0,10,0,1,,,,,,,,,
296440,2022-11-29_11h16.34.218,vts_reward_expectancy_bt,2022.2.4,MacIntel,60.0024001,Chrome,1440,900,,,,,1,1171,,,,,,,,,,,,,,,,,125,H,star,1,1,,,,,,,,,,,,,,,,repeat,letter,lettRpt,j,0.545,Lo,,,,,,4,,,,,,,,low,11,0,11,0,1,,,,,,,,,
296440,2022-11-29_11h16.34.218,vts_reward_expectancy_bt,2022.2.4,MacIntel,60.0024001,Chrome,1440,900,,,,,10,1181,,,,,,,,,,,,,,,,,174,D,star,1,0,,,,,,,,,,,,,,,,repeat,letter,lettRpt,j,0.9807,Lo,,,,,,4,,,,,,,,low,12,0,12,0,1,,,,,,,,,
296440,2022-11-29_11h16.34.218,vts_reward_expectancy_bt,2022.2.4,MacIntel,60.0024001,Chrome,1440,900,,,,,0,1181,,,,,,,,,,,,,,,,,132,Y,triangle,1,0,,,,,,,,,,,,,,,,repeat,letter,lettRpt,k,0.9308,Hi,,,,,,4,,,,,,,,low,13,0,13,0,1,,,,,,,,,
296440,2022-11-29_11h16.34.218,vts_reward_expectancy_bt,2022.2.4,MacIntel,60.0024001,Chrome,1440,900,,,,,10,1191,,,,,,,,,,,,,,,,,139,U,circle,1,0,,,,,,,,,,,,,,,,repeat,letter,lettRpt,k,1.2137,Lo,,,,,,4,,,,,,,,low,14,0,14,0,1,,,,,,,,,
296440,2022-11-29_11h16.34.218,vts_reward_expectancy_bt,2022.2.4,MacIntel,60.0024001,Chrome,1440,900,,,,,10,1201,,,,,,,,,,,,,,,,,160,B,hexagon,1,0,,,,,,,,,,,,,,,,repeat,letter,lettRpt,j,0.8471,Hi,,,,,,4,,,,,,,,low,15,0,15,0,1,,,,,,,,,
296440,2022-11-29_11h16.34.218,vts_reward_expectancy_bt,2022.2.4,MacIntel,60.0024001,Chrome,1440,900,,,,,10,1211,,,,,,,,,,,,,,,,,139,H,hexagon,1,0,,,,,,,,,,,,,,,,switch,number,numSwt,d,0.5836,Hi,,,,,,4,,,,,,,,low,16,0,16,0,1,,,,,,,,,
296440,2022-11-29_11h16.34.218,vts_reward_expectancy_bt,2022.2.4,MacIntel,60.0024001,Chrome,1440,900,,,,,1,1212,,,,,,,,,,,,,,,,,160,S,triangle,1,0,,,,,,,,,,,,,,,,repeat,number,numRpt,f,0.5521,Hi,,,,,,4,,,,,,,,low,17,0,17,0,1,,,,,,,,,
296440,2022-11-29_11h16.34.218,vts_reward_expectancy_bt,2022.2.4,MacIntel,60.0024001,Chrome,1440,900,,,,,1,1213,,,,,,,,,,,,,,,,,167,W,circle,1,0,,,,,,,,,,,,,,,,switch,letter,lettSwt,k,0.5358,Lo,,,,,,4,,,,,,,,low,18,0,18,0,1,,,,,,,,,
296440,2022-11-29_11h16.34.218,vts_reward_expectancy_bt,2022.2.4,MacIntel,60.0024001,Chrome,1440,900,,,,,10,1223,,,,,,,,,,,,,,,,,181,Y,star,1,0,,,,,,,,,,,,,,,,repeat,letter,lettRpt,k,0.5801,Lo,,,,,,4,,,,,,,,low,19,0,19,0,1,,,,,,,,,
296440,2022-11-29_11h16.34.218,vts_reward_expectancy_bt,2022.2.4,MacIntel,60.0024001,Chrome,1440,900,,,,,0,1223,,,,,,,,,,,,,,,,,132,F,triangle,1,0,,,,,,,,,,,,,,,,switch,number,numSwt,d,0.6584,Hi,,,,,,4,,,,,,,,low,20,0,20,0,1,,,,,,,,,
296440,2022-11-29_11h16.34.218,vts_reward_expectancy_bt,2022.2.4,MacIntel,60.0024001,Chrome,1440,900,,,,,10,1233,,,,,,,,,,,,,,,,,125,D,circle,1,0,,,,,,,,,,,,,,,,repeat,number,numRpt,d,1.0279,Lo,,,,,,4,,,,,,,,low,21,0,21,0,1,,,,,,,,,
296440,2022-11-29_11h16.34.218,vts_reward_expectancy_bt,2022.2.4,MacIntel,60.0024001,Chrome,1440,900,,,,,1,1234,,,,,,,,,,,,,,,,,174,U,star,1,0,,,,,,,,,,,,,,,,switch,letter,lettSwt,k,1.2943,Lo,,,,,,4,,,,,,,,low,22,0,22,0,1,,,,,,,,,
296440,2022-11-29_11h16.34.218,vts_reward_expectancy_bt,2022.2.4,MacIntel,60.0024001,Chrome,1440,900,,,,,10,1244,,,,,,,,,,,,,,,,,146,B,hexagon,1,0,,,,,,,,,,,,,,,,repeat,letter,lettRpt,j,0.7781,Hi,,,,,,4,,,,,,,,low,23,0,23,0,1,,,,,,,,,
296440,2022-11-29_11h16.34.218,vts_reward_expectancy_bt,2022.2.4,MacIntel,60.0024001,Chrome,1440,900,,,,,1,1245,,,,,,,,,,,,,,,,,174,B,circle,1,0,,,,,,,,,,,,,,,,repeat,letter,lettRpt,j,0.9141,Lo,,,,,,4,,,,,,,,low,24,0,24,0,1,,,,,,,,,
296440,2022-11-29_11h16.34.218,vts_reward_expectancy_bt,2022.2.4,MacIntel,60.0024001,Chrome,1440,900,,,,,0,1245,,,,,,,,,,,,,,,,,146,U,triangle,1,0,,,,,,,,,,,,,,,,repeat,letter,lettRpt,k,1.2278,Hi,,,,,,4,,,,,,,,low,25,0,25,0,1,,,,,,,,,
296440,2022-11-29_11h16.34.218,vts_reward_expectancy_bt,2022.2.4,MacIntel,60.0024001,Chrome,1440,900,,,,,10,1255,,,,,,,,,,,,,,,,,160,Y,hexagon,1,0,,,,,,,,,,,,,,,,repeat,letter,lettRpt,k,0.52,Hi,,,,,,4,,,,,,,,low,26,0,26,0,1,,,,,,,,,
296440,2022-11-29_11h16.34.218,vts_reward_expectancy_bt,2022.2.4,MacIntel,60.0024001,Chrome,1440,900,,,,,10,1265,,,,,,,,,,,,,,,,,125,D,star,1,0,,,,,,,,,,,,,,,,repeat,letter,lettRpt,j,0.6457,Lo,,,,,,4,,,,,,,,low,27,0,27,0,1,,,,,,,,,
296440,2022-11-29_11h16.34.218,vts_reward_expectancy_bt,2022.2.4,MacIntel,60.0024001,Chrome,1440,900,,,,,1,1266,,,,,,,,,,,,,,,,,132,W,circle,1,0,,,,,,,,,,,,,,,,switch,number,numSwt,d,0.6292,Lo,,,,,,4,,,,,,,,low,28,0,28,0,1,,,,,,,,,
296440,2022-11-29_11h16.34.218,vts_reward_expectancy_bt,2022.2.4,MacIntel,60.0024001,Chrome,1440,900,,,,,1,1267,,,,,,,,,,,,,,,,,139,F,star,1,0,,,,,,,,,,,,,,,,repeat,number,numRpt,d,0.7188,Lo,,,,,,4,,,,,,,,low,29,0,29,0,1,,,,,,,,,
296440,2022-11-29_11h16.34.218,vts_reward_expectancy_bt,2022.2.4,MacIntel,60.0024001,Chrome,1440,900,,,,,0,1267,,,,,,,,,,,,,,,,,167,H,triangle,1,0,,,,,,,,,,,,,,,,repeat,number,numRpt,f,1.1708,Hi,,,,,,4,,,,,,,,low,30,0,30,0,1,,,,,,,,,
296440,2022-11-29_11h16.34.218,vts_reward_expectancy_bt,2022.2.4,MacIntel,60.0024001,Chrome,1440,900,,,,,0,1267,,,,,,,,,,,,,,,,,181,S,hexagon,1,0,,,,,,,,,,,,,,,,switch,letter,lettSwt,k,0.7164,Hi,,,,,,4,,,,,,,,low,31,0,31,0,1,,,,,,,,,
296440,2022-11-29_11h16.34.218,vts_reward_expectancy_bt,2022.2.4,MacIntel,60.0024001,Chrome,1440,900,,,,,1,1268,,,,,,,,,,,,,,,,,174,W,circle,1,0,,,,,,,,,,,,,,,,repeat,letter,lettRpt,k,0.9634,Lo,,,,,,5,,,,,,space,0.8896,low,0,0,0,0,1,,,,,,,,,
296440,2022-11-29_11h16.34.218,vts_reward_expectancy_bt,2022.2.4,MacIntel,60.0024001,Chrome,1440,900,,,,,0,1268,,,,,,,,,,,,,,,,,125,D,triangle,1,0,,,,,,,,,,,,,,,,repeat,letter,lettRpt,j,0.6668,Hi,,,,,,5,,,,,,,,low,1,0,1,0,1,,,,,,,,,
296440,2022-11-29_11h16.34.218,vts_reward_expectancy_bt,2022.2.4,MacIntel,60.0024001,Chrome,1440,900,,,,,10,1278,,,,,,,,,,,,,,,,,160,B,star,1,0,,,,,,,,,,,,,,,,repeat,letter,lettRpt,j,0.5344,Lo,,,,,,5,,,,,,,,low,2,0,2,0,1,,,,,,,,,
296440,2022-11-29_11h16.34.218,vts_reward_expectancy_bt,2022.2.4,MacIntel,60.0024001,Chrome,1440,900,,,,,1,1279,,,,,,,,,,,,,,,,,139,H,hexagon,1,0,,,,,,,,,,,,,,,,repeat,letter,lettRpt,j,0.4875,Hi,,,,,,5,,,,,,,,low,3,0,3,0,1,,,,,,,,,
296440,2022-11-29_11h16.34.218,vts_reward_expectancy_bt,2022.2.4,MacIntel,60.0024001,Chrome,1440,900,,,,,1,1280,,,,,,,,,,,,,,,,,146,F,circle,1,0,,,,,,,,,,,,,,,,switch,number,numSwt,d,0.9384,Lo,,,,,,5,,,,,,,,low,4,0,4,0,1,,,,,,,,,
296440,2022-11-29_11h16.34.218,vts_reward_expectancy_bt,2022.2.4,MacIntel,60.0024001,Chrome,1440,900,,,,,0,1280,,,,,,,,,,,,,,,,,167,U,triangle,1,0,,,,,,,,,,,,,,,,repeat,number,numRpt,f,0.584,Hi,,,,,,5,,,,,,,,low,5,0,5,0,1,,,,,,,,,
296440,2022-11-29_11h16.34.218,vts_reward_expectancy_bt,2022.2.4,MacIntel,60.0024001,Chrome,1440,900,,,,,10,1290,,,,,,,,,,,,,,,,,181,S,star,1,0,,,,,,,,,,,,,,,,repeat,number,numRpt,f,0.5681,Lo,,,,,,5,,,,,,,,low,6,0,6,0,1,,,,,,,,,
296440,2022-11-29_11h16.34.218,vts_reward_expectancy_bt,2022.2.4,MacIntel,60.0024001,Chrome,1440,900,,,,,0,1290,,,,,,,,,,,,,,,,,132,Y,hexagon,-1,0,,,,,,,,,,,,,,,,switch,no_choice,NA,,,Lo,,,,,,5,,,,,,,,low,7,0,7,0,1,,,,,,,,,
296440,2022-11-29_11h16.34.218,vts_reward_expectancy_bt,2022.2.4,MacIntel,60.0024001,Chrome,1440,900,,,,,0,1290,,,,,,,,,,,,,,,,,174,W,circle,-1,0,,,,,,,,,,,,,,,,repeat,no_choice,NA,,,Lo,,,,,,5,,,,,,,,low,8,0,8,0,1,,,,,,,,,
296440,2022-11-29_11h16.34.218,vts_reward_expectancy_bt,2022.2.4,MacIntel,60.0024001,Chrome,1440,900,,,,,0,1290,,,,,,,,,,,,,,,,,125,D,triangle,-1,0,,,,,,,,,,,,,,,,repeat,no_choice,NA,,,Lo,,,,,,5,,,,,,,,low,9,0,9,0,1,,,,,,,,,
296440,2022-11-29_11h16.34.218,vts_reward_expectancy_bt,2022.2.4,MacIntel,60.0024001,Chrome,1440,900,,,,,0,1290,,,,,,,,,,,,,,,,,160,B,star,-1,0,,,,,,,,,,,,,,,,repeat,no_choice,NA,,,Lo,,,,,,5,,,,,,,,low,10,0,10,0,1,,,,,,,,,
296440,2022-11-29_11h16.34.218,vts_reward_expectancy_bt,2022.2.4,MacIntel,60.0024001,Chrome,1440,900,,,,,0,1290,,,,,,,,,,,,,,,,,139,H,hexagon,-1,0,,,,,,,,,,,,,,,,repeat,no_choice,NA,,,Lo,,,,,,5,,,,,,,,low,11,0,11,0,1,,,,,,,,,
296440,2022-11-29_11h16.34.218,vts_reward_expectancy_bt,2022.2.4,MacIntel,60.0024001,Chrome,1440,900,,,,,0,1290,,,,,,,,,,,,,,,,,146,F,star,-1,0,,,,,,,,,,,,,,,,repeat,no_choice,NA,,,Lo,,,,,,5,,,,,,,,low,12,0,12,0,1,,,,,,,,,
296440,2022-11-29_11h16.34.218,vts_reward_expectancy_bt,2022.2.4,MacIntel,60.0024001,Chrome,1440,900,,,,,0,1290,,,,,,,,,,,,,,,,,167,U,hexagon,-1,0,,,,,,,,,,,,,,,,repeat,no_choice,NA,,,Lo,,,,,,5,,,,,,,,low,13,0,13,0,1,,,,,,,,,
296440,2022-11-29_11h16.34.218,vts_reward_expectancy_bt,2022.2.4,MacIntel,60.0024001,Chrome,1440,900,,,,,0,1290,,,,,,,,,,,,,,,,,181,S,triangle,-1,0,,,,,,,,,,,,,,,,repeat,no_choice,NA,,,Lo,,,,,,5,,,,,,,,low,14,0,14,0,1,,,,,,,,,
296440,2022-11-29_11h16.34.218,vts_reward_expectancy_bt,2022.2.4,MacIntel,60.0024001,Chrome,1440,900,,,,,0,1290,,,,,,,,,,,,,,,,,132,Y,circle,-1,0,,,,,,,,,,,,,,,,repeat,no_choice,NA,,,Lo,,,,,,5,,,,,,,,low,15,0,15,0,1,,,,,,,,,
296440,2022-11-29_11h16.34.218,vts_reward_expectancy_bt,2022.2.4,MacIntel,60.0024001,Chrome,1440,900,,,,,0,1290,,,,,,,,,,,,,,,,,132,H,triangle,-1,0,,,,,,,,,,,,,,,,repeat,no_choice,NA,,,Lo,,,,,,5,,,,,,,,low,16,0,16,0,1,,,,,,,,,
296440,2022-11-29_11h16.34.218,vts_reward_expectancy_bt,2022.2.4,MacIntel,60.0024001,Chrome,1440,900,,,,,0,1290,,,,,,,,,,,,,,,,,174,U,hexagon,-1,0,,,,,,,,,,,,,,,,repeat,no_choice,NA,,,Lo,,,,,,5,,,,,,,,low,17,0,17,0,1,,,,,,,,,
296440,2022-11-29_11h16.34.218,vts_reward_expectancy_bt,2022.2.4,MacIntel,60.0024001,Chrome,1440,900,,,,,0,1290,,,,,,,,,,,,,,,,,181,Y,star,-1,0,,,,,,,,,,,,,,,,repeat,no_choice,NA,,,Lo,,,,,,5,,,,,,,,low,18,0,18,0,1,,,,,,,,,
296440,2022-11-29_11h16.34.218,vts_reward_expectancy_bt,2022.2.4,MacIntel,60.0024001,Chrome,1440,900,,,,,0,1290,,,,,,,,,,,,,,,,,167,S,circle,-1,0,,,,,,,,,,,,,,,,repeat,no_choice,NA,,,Lo,,,,,,5,,,,,,,,low,19,0,19,0,1,,,,,,,,,
296440,2022-11-29_11h16.34.218,vts_reward_expectancy_bt,2022.2.4,MacIntel,60.0024001,Chrome,1440,900,,,,,0,1290,,,,,,,,,,,,,,,,,139,F,triangle,-1,0,,,,,,,,,,,,,,,,repeat,no_choice,NA,,,Lo,,,,,,5,,,,,,,,low,20,0,20,0,1,,,,,,,,,
296440,2022-11-29_11h16.34.218,vts_reward_expectancy_bt,2022.2.4,MacIntel,60.0024001,Chrome,1440,900,,,,,0,1290,,,,,,,,,,,,,,,,,160,D,hexagon,-1,0,,,,,,,,,,,,,,,,repeat,no_choice,NA,,,Lo,,,,,,5,,,,,,,,low,21,0,21,0,1,,,,,,,,,
296440,2022-11-29_11h16.34.218,vts_reward_expectancy_bt,2022.2.4,MacIntel,60.0024001,Chrome,1440,900,,,,,0,1290,,,,,,,,,,,,,,,,,146,B,star,-1,0,,,,,,,,,,,,,,,,repeat,no_choice,NA,,,Lo,,,,,,5,,,,,,,,low,22,0,22,0,1,,,,,,,,,
296440,2022-11-29_11h16.34.218,vts_reward_expectancy_bt,2022.2.4,MacIntel,60.0024001,Chrome,1440,900,,,,,0,1290,,,,,,,,,,,,,,,,,125,W,circle,-1,0,,,,,,,,,,,,,,,,repeat,no_choice,NA,,,Lo,,,,,,5,,,,,,,,low,23,0,23,0,1,,,,,,,,,
296440,2022-11-29_11h16.34.218,vts_reward_expectancy_bt,2022.2.4,MacIntel,60.0024001,Chrome,1440,900,,,,,0,1290,,,,,,,,,,,,,,,,,132,F,star,-1,0,,,,,,,,,,,,,,,,repeat,no_choice,NA,,,Lo,,,,,,5,,,,,,,,low,24,0,24,0,1,,,,,,,,,
296440,2022-11-29_11h16.34.218,vts_reward_expectancy_bt,2022.2.4,MacIntel,60.0024001,Chrome,1440,900,,,,,0,1290,,,,,,,,,,,,,,,,,181,H,hexagon,-1,0,,,,,,,,,,,,,,,,repeat,no_choice,NA,,,Lo,,,,,,5,,,,,,,,low,25,0,25,0,1,,,,,,,,,
296440,2022-11-29_11h16.34.218,vts_reward_expectancy_bt,2022.2.4,MacIntel,60.0024001,Chrome,1440,900,,,,,0,1290,,,,,,,,,,,,,,,,,125,S,circle,-1,0,,,,,,,,,,,,,,,,repeat,no_choice,NA,,,Lo,,,,,,5,,,,,,,,low,26,0,26,0,1,,,,,,,,,
296440,2022-11-29_11h16.34.218,vts_reward_expectancy_bt,2022.2.4,MacIntel,60.0024001,Chrome,1440,900,,,,,0,1290,,,,,,,,,,,,,,,,,167,U,triangle,-1,0,,,,,,,,,,,,,,,,repeat,no_choice,NA,,,Lo,,,,,,5,,,,,,,,low,27,0,27,0,1,,,,,,,,,
296440,2022-11-29_11h16.34.218,vts_reward_expectancy_bt,2022.2.4,MacIntel,60.0024001,Chrome,1440,900,,,,,0,1290,,,,,,,,,,,,,,,,,146,W,triangle,-1,0,,,,,,,,,,,,,,,,repeat,no_choice,NA,,,Lo,,,,,,5,,,,,,,,low,28,0,28,0,1,,,,,,,,,
296440,2022-11-29_11h16.34.218,vts_reward_expectancy_bt,2022.2.4,MacIntel,60.0024001,Chrome,1440,900,,,,,0,1290,,,,,,,,,,,,,,,,,160,Y,hexagon,-1,0,,,,,,,,,,,,,,,,repeat,no_choice,NA,,,Lo,,,,,,5,,,,,,,,low,29,0,29,0,1,,,,,,,,,
296440,2022-11-29_11h16.34.218,vts_reward_expectancy_bt,2022.2.4,MacIntel,60.0024001,Chrome,1440,900,,,,,0,1290,,,,,,,,,,,,,,,,,139,D,circle,-1,0,,,,,,,,,,,,,,,,repeat,no_choice,NA,,,Lo,,,,,,5,,,,,,,,low,30,0,30,0,1,,,,,,,,,
296440,2022-11-29_11h16.34.218,vts_reward_expectancy_bt,2022.2.4,MacIntel,60.0024001,Chrome,1440,900,,,,,0,1290,,,,,,,,,,,,,,,,,174,B,star,-1,0,,,,,,,,,,,,,,,,repeat,no_choice,NA,,,Lo,,,,,,5,,,,,,,,low,31,0,31,0,1,,,,,,,,,
296440,2022-11-29_11h16.34.218,vts_reward_expectancy_bt,2022.2.4,MacIntel,60.0024001,Chrome,1440,900,,,,,1,1291,,,,,,,,,,,,,,,,,160,U,star,1,0,,,,,,,,,,,,,,,,switch,letter,lettSwt,k,0.7782,Lo,,,,,,6,,,,,,space,1.3605,low,0,0,0,0,1,,,,,,,,,
296440,2022-11-29_11h16.34.218,vts_reward_expectancy_bt,2022.2.4,MacIntel,60.0024001,Chrome,1440,900,,,,,10,1301,,,,,,,,,,,,,,,,,167,F,triangle,1,0,,,,,,,,,,,,,,,,repeat,letter,lettRpt,j,0.4123,Hi,,,,,,6,,,,,,,,low,1,0,1,0,1,,,,,,,,,
296440,2022-11-29_11h16.34.218,vts_reward_expectancy_bt,2022.2.4,MacIntel,60.0024001,Chrome,1440,900,,,,,1,1302,,,,,,,,,,,,,,,,,132,H,hexagon,1,0,,,,,,,,,,,,,,,,switch,number,numSwt,d,0.6617,Hi,,,,,,6,,,,,,,,low,2,0,2,0,1,,,,,,,,,
296440,2022-11-29_11h16.34.218,vts_reward_expectancy_bt,2022.2.4,MacIntel,60.0024001,Chrome,1440,900,,,,,0,1302,,,,,,,,,,,,,,,,,146,Y,circle,0,0,,,,,,,,,,,,,,,,repeat,number,NA,f,0.4665,Hi,,,,,,6,,,,,,,,low,3,0,3,0,1,,,,,,,,,
296440,2022-11-29_11h16.34.218,vts_reward_expectancy_bt,2022.2.4,MacIntel,60.0024001,Chrome,1440,900,,,,,1,1303,,,,,,,,,,,,,,,,,181,B,star,1,1,,,,,,,,,,,,,,,,repeat,number,numRpt,f,0.5604,Lo,,,,,,6,,,,,,,,low,4,0,4,0,1,,,,,,,,,
