participant,date,expName,psychopyVersion,OS,frameRate,browser,xResolution,yResolution,key_resp.keys,key_resp.rt,training_resp.keys,training_resp.rt,points_trial,points_cumul,trainBlock,training.thisRepN,training.thisTrialN,training.thisN,training.thisIndex,training.ran,LTriangleOpac,LCircleOpac,LHexagonOpac,LStarOpac,RTriangleOpac,RCircleOpac,RHexagonOpac,RStarOpac,LShape_ID,RShape_ID,curr_topStim,curr_bottStim,curr_shape,acc,E1,target_resp_prac1.keys,target_resp_prac1.rt,pracBlock,task1_prac_trials.thisRepN,task1_prac_trials.thisTrialN,task1_prac_trials.thisN,task1_prac_trials.thisIndex,task1_prac_trials.ran,target_resp_prac2.keys,target_resp_prac2.rt,task2_praac_trials.thisRepN,task2_praac_trials.thisTrialN,task2_praac_trials.thisN,task2_praac_trials.thisIndex,task2_praac_trials.ran,alt,task,condition,target_resp.keys,target_resp.rt,rewCond,vts_practice_trials.thisRepN,vts_practice_trials.thisTrialN,vts_practice_trials.thisN,vts_practice_trials.thisIndex,vts_practice_trials.ran,blockNum,trials_norew.thisRepN,trials_norew.thisTrialN,trials_norew.thisN,trials_norew.thisIndex,trials_norew.ran,key_resp_2.keys,key_resp_2.rt,rewExpectancy,trials_rew.thisRepN,trials_rew.thisTrialN,trials_rew.thisN,trials_rew.thisIndex,trials_rew.ran,Q1,Q2,Q2_text,Q3,Q4,Q5_text,Q5,xRes,yRes
296476,2022-11-14_23h21.00.418,vts_reward_expectancy_bt,2022.2.4,MacIntel,60.0024001,Chrome,1440,900,,,,,,,,,,,,,,,,,,,,,,,,,,,,,,,,,,,,,,,,,,,,,,,,,,,,,,,,,,,,,,,,,,,,,,,,,,,,
296476,2022-11-14_23h21.00.418,vts_reward_expectancy_bt,2022.2.4,MacIntel,60.0024001,Chrome,1440,900,space,12.2833,,,,,,,,,,,,,,,,,,,,,,,,,,,,,,,,,,,,,,,,,,,,,,,,,,,,,,,,,,,,,,,,,,,,,,,,,,
296476,2022-11-14_23h21.00.418,vts_reward_expectancy_bt,2022.2.4,MacIntel,60.0024001,Chrome,1440,900,,,,,,,,,,,,,,,,,,,,,,,,,,,,,,,,,,,,,,,,,,,,,,,,,,,,,,,,,,,,,,,,,,,,,,,,,,,,
296476,2022-11-14_23h21.00.418,vts_reward_expectancy_bt,2022.2.4,MacIntel,60.0024001,Chrome,1440,900,,,l,3.1285,1,1,0,0,0,0,8,1,0,0,1,0,0,0,0,1,hexagon,star,,,,,,,,,,,,,,,,,,,,,,,,,,,,,,,,,,,,,,,,,,,,,,,,,,,,,,
296476,2022-11-14_23h21.00.418,vts_reward_expectancy_bt,2022.2.4,MacIntel,60.0024001,Chrome,1440,900,,,l,1.6646,1,2,0,0,1,1,1,1,1,0,0,0,0,0,1,0,triangle,hexagon,,,,,,,,,,,,,,,,,,,,,,,,,,,,,,,,,,,,,,,,,,,,,,,,,,,,,,
296476,2022-11-14_23h21.00.418,vts_reward_expectancy_bt,2022.2.4,MacIntel,60.0024001,Chrome,1440,900,,,a,2.1304,1,3,0,0,2,2,4,1,0,1,0,0,0,0,1,0,circle,hexagon,,,,,,,,,,,,,,,,,,,,,,,,,,,,,,,,,,,,,,,,,,,,,,,,,,,,,,
296476,2022-11-14_23h21.00.418,vts_reward_expectancy_bt,2022.2.4,MacIntel,60.0024001,Chrome,1440,900,,,l,1.2884,10,13,0,0,3,3,5,1,0,1,0,0,0,0,0,1,circle,star,,,,,,,,,,,,,,,,,,,,,,,,,,,,,,,,,,,,,,,,,,,,,,,,,,,,,,
296476,2022-11-14_23h21.00.418,vts_reward_expectancy_bt,2022.2.4,MacIntel,60.0024001,Chrome,1440,900,,,l,1.3653,1,14,0,0,4,4,2,1,1,0,0,0,0,0,0,1,triangle,star,,,,,,,,,,,,,,,,,,,,,,,,,,,,,,,,,,,,,,,,,,,,,,,,,,,,,,
296476,2022-11-14_23h21.00.418,vts_reward_expectancy_bt,2022.2.4,MacIntel,60.0024001,Chrome,1440,900,,,a,1.9332,10,24,0,0,5,5,7,1,0,0,1,0,0,1,0,0,hexagon,circle,,,,,,,,,,,,,,,,,,,,,,,,,,,,,,,,,,,,,,,,,,,,,,,,,,,,,,
296476,2022-11-14_23h21.00.418,vts_reward_expectancy_bt,2022.2.4,MacIntel,60.0024001,Chrome,1440,900,,,a,2.3528,10,34,0,0,6,6,0,1,1,0,0,0,0,1,0,0,triangle,circle,,,,,,,,,,,,,,,,,,,,,,,,,,,,,,,,,,,,,,,,,,,,,,,,,,,,,,
296476,2022-11-14_23h21.00.418,vts_reward_expectancy_bt,2022.2.4,MacIntel,60.0024001,Chrome,1440,900,,,a,1.1075,10,44,0,0,7,7,3,1,0,1,0,0,1,0,0,0,circle,triangle,,,,,,,,,,,,,,,,,,,,,,,,,,,,,,,,,,,,,,,,,,,,,,,,,,,,,,
296476,2022-11-14_23h21.00.418,vts_reward_expectancy_bt,2022.2.4,MacIntel,60.0024001,Chrome,1440,900,,,l,2.3565,10,54,0,0,8,8,6,1,0,0,1,0,1,0,0,0,hexagon,triangle,,,,,,,,,,,,,,,,,,,,,,,,,,,,,,,,,,,,,,,,,,,,,,,,,,,,,,
296476,2022-11-14_23h21.00.418,vts_reward_expectancy_bt,2022.2.4,MacIntel,60.0024001,Chrome,1440,900,,,a,0.9043,10,64,0,0,9,9,10,1,0,0,0,1,0,1,0,0,star ,circle,,,,,,,,,,,,,,,,,,,,,,,,,,,,,,,,,,,,,,,,,,,,,,,,,,,,,,
296476,2022-11-14_23h21.00.418,vts_reward_expectancy_bt,2022.2.4,MacIntel,60.0024001,Chrome,1440,900,,,l,1.1206,10,74,0,0,10,10,9,1,0,0,0,1,1,0,0,0,star,triangle,,,,,,,,,,,,,,,,,,,,,,,,,,,,,,,,,,,,,,,,,,,,,,,,,,,,,,
296476,2022-11-14_23h21.00.418,vts_reward_expectancy_bt,2022.2.4,MacIntel,60.0024001,Chrome,1440,900,,,l,2.6529,1,75,0,0,11,11,11,1,0,0,0,1,0,0,1,0,star,hexagon,,,,,,,,,,,,,,,,,,,,,,,,,,,,,,,,,,,,,,,,,,,,,,,,,,,,,,
296476,2022-11-14_23h21.00.418,vts_reward_expectancy_bt,2022.2.4,MacIntel,60.0024001,Chrome,1440,900,,,l,1.0801,10,85,0,1,0,12,6,1,0,0,1,0,1,0,0,0,hexagon,triangle,,,,,,,,,,,,,,,,,,,,,,,,,,,,,,,,,,,,,,,,,,,,,,,,,,,,,,
296476,2022-11-14_23h21.00.418,vts_reward_expectancy_bt,2022.2.4,MacIntel,60.0024001,Chrome,1440,900,,,a,1.1138,1,86,0,1,1,13,0,1,1,0,0,0,0,1,0,0,triangle,circle,,,,,,,,,,,,,,,,,,,,,,,,,,,,,,,,,,,,,,,,,,,,,,,,,,,,,,
296476,2022-11-14_23h21.00.418,vts_reward_expectancy_bt,2022.2.4,MacIntel,60.0024001,Chrome,1440,900,,,a,0.941,10,96,0,1,2,14,11,1,0,0,0,1,0,0,1,0,star,hexagon,,,,,,,,,,,,,,,,,,,,,,,,,,,,,,,,,,,,,,,,,,,,,,,,,,,,,,
296476,2022-11-14_23h21.00.418,vts_reward_expectancy_bt,2022.2.4,MacIntel,60.0024001,Chrome,1440,900,,,l,0.5996,1,97,0,1,3,15,2,1,1,0,0,0,0,0,0,1,triangle,star,,,,,,,,,,,,,,,,,,,,,,,,,,,,,,,,,,,,,,,,,,,,,,,,,,,,,,
296476,2022-11-14_23h21.00.418,vts_reward_expectancy_bt,2022.2.4,MacIntel,60.0024001,Chrome,1440,900,,,a,0.8507,1,98,0,1,4,16,10,1,0,0,0,1,0,1,0,0,star ,circle,,,,,,,,,,,,,,,,,,,,,,,,,,,,,,,,,,,,,,,,,,,,,,,,,,,,,,
296476,2022-11-14_23h21.00.418,vts_reward_expectancy_bt,2022.2.4,MacIntel,60.0024001,Chrome,1440,900,,,l,0.8155,1,99,0,1,5,17,8,1,0,0,1,0,0,0,0,1,hexagon,star,,,,,,,,,,,,,,,,,,,,,,,,,,,,,,,,,,,,,,,,,,,,,,,,,,,,,,
296476,2022-11-14_23h21.00.418,vts_reward_expectancy_bt,2022.2.4,MacIntel,60.0024001,Chrome,1440,900,,,a,2.4403,10,109,0,1,6,18,9,1,0,0,0,1,1,0,0,0,star,triangle,,,,,,,,,,,,,,,,,,,,,,,,,,,,,,,,,,,,,,,,,,,,,,,,,,,,,,
296476,2022-11-14_23h21.00.418,vts_reward_expectancy_bt,2022.2.4,MacIntel,60.0024001,Chrome,1440,900,,,a,1.2787,1,110,0,1,7,19,4,1,0,1,0,0,0,0,1,0,circle,hexagon,,,,,,,,,,,,,,,,,,,,,,,,,,,,,,,,,,,,,,,,,,,,,,,,,,,,,,
296476,2022-11-14_23h21.00.418,vts_reward_expectancy_bt,2022.2.4,MacIntel,60.0024001,Chrome,1440,900,,,l,1.5319,1,111,0,1,8,20,7,1,0,0,1,0,0,1,0,0,hexagon,circle,,,,,,,,,,,,,,,,,,,,,,,,,,,,,,,,,,,,,,,,,,,,,,,,,,,,,,
296476,2022-11-14_23h21.00.418,vts_reward_expectancy_bt,2022.2.4,MacIntel,60.0024001,Chrome,1440,900,,,l,1.8851,10,121,0,1,9,21,3,1,0,1,0,0,1,0,0,0,circle,triangle,,,,,,,,,,,,,,,,,,,,,,,,,,,,,,,,,,,,,,,,,,,,,,,,,,,,,,
296476,2022-11-14_23h21.00.418,vts_reward_expectancy_bt,2022.2.4,MacIntel,60.0024001,Chrome,1440,900,,,l,2.0245,1,122,0,1,10,22,5,1,0,1,0,0,0,0,0,1,circle,star,,,,,,,,,,,,,,,,,,,,,,,,,,,,,,,,,,,,,,,,,,,,,,,,,,,,,,
296476,2022-11-14_23h21.00.418,vts_reward_expectancy_bt,2022.2.4,MacIntel,60.0024001,Chrome,1440,900,,,a,1.3435,10,132,0,1,11,23,1,1,1,0,0,0,0,0,1,0,triangle,hexagon,,,,,,,,,,,,,,,,,,,,,,,,,,,,,,,,,,,,,,,,,,,,,,,,,,,,,,
296476,2022-11-14_23h21.00.418,vts_reward_expectancy_bt,2022.2.4,MacIntel,60.0024001,Chrome,1440,900,,,l,2.9504,1,133,0,2,0,24,8,1,0,0,1,0,0,0,0,1,hexagon,star,,,,,,,,,,,,,,,,,,,,,,,,,,,,,,,,,,,,,,,,,,,,,,,,,,,,,,
296476,2022-11-14_23h21.00.418,vts_reward_expectancy_bt,2022.2.4,MacIntel,60.0024001,Chrome,1440,900,,,a,0.9533,1,134,0,2,1,25,4,1,0,1,0,0,0,0,1,0,circle,hexagon,,,,,,,,,,,,,,,,,,,,,,,,,,,,,,,,,,,,,,,,,,,,,,,,,,,,,,
296476,2022-11-14_23h21.00.418,vts_reward_expectancy_bt,2022.2.4,MacIntel,60.0024001,Chrome,1440,900,,,l,2.887,1,135,0,2,2,26,7,1,0,0,1,0,0,1,0,0,hexagon,circle,,,,,,,,,,,,,,,,,,,,,,,,,,,,,,,,,,,,,,,,,,,,,,,,,,,,,,
296476,2022-11-14_23h21.00.418,vts_reward_expectancy_bt,2022.2.4,MacIntel,60.0024001,Chrome,1440,900,,,a,1.3527,1,136,0,2,3,27,10,1,0,0,0,1,0,1,0,0,star ,circle,,,,,,,,,,,,,,,,,,,,,,,,,,,,,,,,,,,,,,,,,,,,,,,,,,,,,,
296476,2022-11-14_23h21.00.418,vts_reward_expectancy_bt,2022.2.4,MacIntel,60.0024001,Chrome,1440,900,,,l,1.8034,1,137,0,2,4,28,0,1,1,0,0,0,0,1,0,0,triangle,circle,,,,,,,,,,,,,,,,,,,,,,,,,,,,,,,,,,,,,,,,,,,,,,,,,,,,,,
296476,2022-11-14_23h21.00.418,vts_reward_expectancy_bt,2022.2.4,MacIntel,60.0024001,Chrome,1440,900,,,a,0.6534,1,138,0,2,5,29,9,1,0,0,0,1,1,0,0,0,star,triangle,,,,,,,,,,,,,,,,,,,,,,,,,,,,,,,,,,,,,,,,,,,,,,,,,,,,,,
296476,2022-11-14_23h21.00.418,vts_reward_expectancy_bt,2022.2.4,MacIntel,60.0024001,Chrome,1440,900,,,l,0.9699,1,139,0,2,6,30,5,1,0,1,0,0,0,0,0,1,circle,star,,,,,,,,,,,,,,,,,,,,,,,,,,,,,,,,,,,,,,,,,,,,,,,,,,,,,,
296476,2022-11-14_23h21.00.418,vts_reward_expectancy_bt,2022.2.4,MacIntel,60.0024001,Chrome,1440,900,,,l,1.9748,1,140,0,2,7,31,3,1,0,1,0,0,1,0,0,0,circle,triangle,,,,,,,,,,,,,,,,,,,,,,,,,,,,,,,,,,,,,,,,,,,,,,,,,,,,,,
296476,2022-11-14_23h21.00.418,vts_reward_expectancy_bt,2022.2.4,MacIntel,60.0024001,Chrome,1440,900,,,l,1.3385,10,150,0,2,8,32,1,1,1,0,0,0,0,0,1,0,triangle,hexagon,,,,,,,,,,,,,,,,,,,,,,,,,,,,,,,,,,,,,,,,,,,,,,,,,,,,,,
296476,2022-11-14_23h21.00.418,vts_reward_expectancy_bt,2022.2.4,MacIntel,60.0024001,Chrome,1440,900,,,a,1.2333,1,151,0,2,9,33,11,1,0,0,0,1,0,0,1,0,star,hexagon,,,,,,,,,,,,,,,,,,,,,,,,,,,,,,,,,,,,,,,,,,,,,,,,,,,,,,
296476,2022-11-14_23h21.00.418,vts_reward_expectancy_bt,2022.2.4,MacIntel,60.0024001,Chrome,1440,900,,,a,1.391,1,152,0,2,10,34,6,1,0,0,1,0,1,0,0,0,hexagon,triangle,,,,,,,,,,,,,,,,,,,,,,,,,,,,,,,,,,,,,,,,,,,,,,,,,,,,,,
296476,2022-11-14_23h21.00.418,vts_reward_expectancy_bt,2022.2.4,MacIntel,60.0024001,Chrome,1440,900,,,a,2.1393,1,153,0,2,11,35,2,1,1,0,0,0,0,0,0,1,triangle,star,,,,,,,,,,,,,,,,,,,,,,,,,,,,,,,,,,,,,,,,,,,,,,,,,,,,,,
296476,2022-11-14_23h21.00.418,vts_reward_expectancy_bt,2022.2.4,MacIntel,60.0024001,Chrome,1440,900,,,a,2.0763,10,163,1,0,0,0,4,1,0,1,0,0,0,0,1,0,circle,hexagon,,,,,,,,,,,,,,,,,,,,,,,,,,,,,,,,,,,,,,,,,,,,,,,,,,,,,,
296476,2022-11-14_23h21.00.418,vts_reward_expectancy_bt,2022.2.4,MacIntel,60.0024001,Chrome,1440,900,,,a,1.6536,1,164,1,0,1,1,7,1,0,0,1,0,0,1,0,0,hexagon,circle,,,,,,,,,,,,,,,,,,,,,,,,,,,,,,,,,,,,,,,,,,,,,,,,,,,,,,
296476,2022-11-14_23h21.00.418,vts_reward_expectancy_bt,2022.2.4,MacIntel,60.0024001,Chrome,1440,900,,,l,1.1917,10,174,1,0,2,2,8,1,0,0,1,0,0,0,0,1,hexagon,star,,,,,,,,,,,,,,,,,,,,,,,,,,,,,,,,,,,,,,,,,,,,,,,,,,,,,,
296476,2022-11-14_23h21.00.418,vts_reward_expectancy_bt,2022.2.4,MacIntel,60.0024001,Chrome,1440,900,,,l,2.3372,1,175,1,0,3,3,10,1,0,0,0,1,0,1,0,0,star ,circle,,,,,,,,,,,,,,,,,,,,,,,,,,,,,,,,,,,,,,,,,,,,,,,,,,,,,,
296476,2022-11-14_23h21.00.418,vts_reward_expectancy_bt,2022.2.4,MacIntel,60.0024001,Chrome,1440,900,,,l,2.0726,1,176,1,0,4,4,0,1,1,0,0,0,0,1,0,0,triangle,circle,,,,,,,,,,,,,,,,,,,,,,,,,,,,,,,,,,,,,,,,,,,,,,,,,,,,,,
296476,2022-11-14_23h21.00.418,vts_reward_expectancy_bt,2022.2.4,MacIntel,60.0024001,Chrome,1440,900,,,l,1.1714,10,186,1,0,5,5,1,1,1,0,0,0,0,0,1,0,triangle,hexagon,,,,,,,,,,,,,,,,,,,,,,,,,,,,,,,,,,,,,,,,,,,,,,,,,,,,,,
296476,2022-11-14_23h21.00.418,vts_reward_expectancy_bt,2022.2.4,MacIntel,60.0024001,Chrome,1440,900,,,a,0.9424,1,187,1,0,6,6,9,1,0,0,0,1,1,0,0,0,star,triangle,,,,,,,,,,,,,,,,,,,,,,,,,,,,,,,,,,,,,,,,,,,,,,,,,,,,,,
296476,2022-11-14_23h21.00.418,vts_reward_expectancy_bt,2022.2.4,MacIntel,60.0024001,Chrome,1440,900,,,a,1.2581,10,197,1,0,7,7,2,1,1,0,0,0,0,0,0,1,triangle,star,,,,,,,,,,,,,,,,,,,,,,,,,,,,,,,,,,,,,,,,,,,,,,,,,,,,,,
296476,2022-11-14_23h21.00.418,vts_reward_expectancy_bt,2022.2.4,MacIntel,60.0024001,Chrome,1440,900,,,a,1.0536,10,207,1,0,8,8,5,1,0,1,0,0,0,0,0,1,circle,star,,,,,,,,,,,,,,,,,,,,,,,,,,,,,,,,,,,,,,,,,,,,,,,,,,,,,,
296476,2022-11-14_23h21.00.418,vts_reward_expectancy_bt,2022.2.4,MacIntel,60.0024001,Chrome,1440,900,,,l,3.7067,10,217,1,0,9,9,11,1,0,0,0,1,0,0,1,0,star,hexagon,,,,,,,,,,,,,,,,,,,,,,,,,,,,,,,,,,,,,,,,,,,,,,,,,,,,,,
296476,2022-11-14_23h21.00.418,vts_reward_expectancy_bt,2022.2.4,MacIntel,60.0024001,Chrome,1440,900,,,l,1.7844,1,218,1,0,10,10,3,1,0,1,0,0,1,0,0,0,circle,triangle,,,,,,,,,,,,,,,,,,,,,,,,,,,,,,,,,,,,,,,,,,,,,,,,,,,,,,
296476,2022-11-14_23h21.00.418,vts_reward_expectancy_bt,2022.2.4,MacIntel,60.0024001,Chrome,1440,900,,,a,1.694,1,219,1,0,11,11,6,1,0,0,1,0,1,0,0,0,hexagon,triangle,,,,,,,,,,,,,,,,,,,,,,,,,,,,,,,,,,,,,,,,,,,,,,,,,,,,,,
296476,2022-11-14_23h21.00.418,vts_reward_expectancy_bt,2022.2.4,MacIntel,60.0024001,Chrome,1440,900,,,l,1.5463,10,229,1,1,0,12,2,1,1,0,0,0,0,0,0,1,triangle,star,,,,,,,,,,,,,,,,,,,,,,,,,,,,,,,,,,,,,,,,,,,,,,,,,,,,,,
296476,2022-11-14_23h21.00.418,vts_reward_expectancy_bt,2022.2.4,MacIntel,60.0024001,Chrome,1440,900,,,l,2.2159,1,230,1,1,1,13,0,1,1,0,0,0,0,1,0,0,triangle,circle,,,,,,,,,,,,,,,,,,,,,,,,,,,,,,,,,,,,,,,,,,,,,,,,,,,,,,
296476,2022-11-14_23h21.00.418,vts_reward_expectancy_bt,2022.2.4,MacIntel,60.0024001,Chrome,1440,900,,,a,1.285,1,231,1,1,2,14,6,1,0,0,1,0,1,0,0,0,hexagon,triangle,,,,,,,,,,,,,,,,,,,,,,,,,,,,,,,,,,,,,,,,,,,,,,,,,,,,,,
296476,2022-11-14_23h21.00.418,vts_reward_expectancy_bt,2022.2.4,MacIntel,60.0024001,Chrome,1440,900,,,a,1.2728,1,232,1,1,3,15,5,1,0,1,0,0,0,0,0,1,circle,star,,,,,,,,,,,,,,,,,,,,,,,,,,,,,,,,,,,,,,,,,,,,,,,,,,,,,,
296476,2022-11-14_23h21.00.418,vts_reward_expectancy_bt,2022.2.4,MacIntel,60.0024001,Chrome,1440,900,,,l,1.7544,10,242,1,1,4,16,3,1,0,1,0,0,1,0,0,0,circle,triangle,,,,,,,,,,,,,,,,,,,,,,,,,,,,,,,,,,,,,,,,,,,,,,,,,,,,,,
296476,2022-11-14_23h21.00.418,vts_reward_expectancy_bt,2022.2.4,MacIntel,60.0024001,Chrome,1440,900,,,a,5.9233,10,252,1,1,5,17,8,1,0,0,1,0,0,0,0,1,hexagon,star,,,,,,,,,,,,,,,,,,,,,,,,,,,,,,,,,,,,,,,,,,,,,,,,,,,,,,
296476,2022-11-14_23h21.00.418,vts_reward_expectancy_bt,2022.2.4,MacIntel,60.0024001,Chrome,1440,900,,,l,1.9935,10,262,1,1,6,18,1,1,1,0,0,0,0,0,1,0,triangle,hexagon,,,,,,,,,,,,,,,,,,,,,,,,,,,,,,,,,,,,,,,,,,,,,,,,,,,,,,
296476,2022-11-14_23h21.00.418,vts_reward_expectancy_bt,2022.2.4,MacIntel,60.0024001,Chrome,1440,900,,,l,1.3731,1,263,1,1,7,19,9,1,0,0,0,1,1,0,0,0,star,triangle,,,,,,,,,,,,,,,,,,,,,,,,,,,,,,,,,,,,,,,,,,,,,,,,,,,,,,
296476,2022-11-14_23h21.00.418,vts_reward_expectancy_bt,2022.2.4,MacIntel,60.0024001,Chrome,1440,900,,,a,1.7003,10,273,1,1,8,20,7,1,0,0,1,0,0,1,0,0,hexagon,circle,,,,,,,,,,,,,,,,,,,,,,,,,,,,,,,,,,,,,,,,,,,,,,,,,,,,,,
296476,2022-11-14_23h21.00.418,vts_reward_expectancy_bt,2022.2.4,MacIntel,60.0024001,Chrome,1440,900,,,a,1.5017,10,283,1,1,9,21,11,1,0,0,0,1,0,0,1,0,star,hexagon,,,,,,,,,,,,,,,,,,,,,,,,,,,,,,,,,,,,,,,,,,,,,,,,,,,,,,
296476,2022-11-14_23h21.00.418,vts_reward_expectancy_bt,2022.2.4,MacIntel,60.0024001,Chrome,1440,900,,,l,1.4687,1,284,1,1,10,22,10,1,0,0,0,1,0,1,0,0,star ,circle,,,,,,,,,,,,,,,,,,,,,,,,,,,,,,,,,,,,,,,,,,,,,,,,,,,,,,
296476,2022-11-14_23h21.00.418,vts_reward_expectancy_bt,2022.2.4,MacIntel,60.0024001,Chrome,1440,900,,,l,1.5117,1,285,1,1,11,23,4,1,0,1,0,0,0,0,1,0,circle,hexagon,,,,,,,,,,,,,,,,,,,,,,,,,,,,,,,,,,,,,,,,,,,,,,,,,,,,,,
296476,2022-11-14_23h21.00.418,vts_reward_expectancy_bt,2022.2.4,MacIntel,60.0024001,Chrome,1440,900,,,l,1.4347,10,295,1,2,0,24,7,1,0,0,1,0,0,1,0,0,hexagon,circle,,,,,,,,,,,,,,,,,,,,,,,,,,,,,,,,,,,,,,,,,,,,,,,,,,,,,,
296476,2022-11-14_23h21.00.418,vts_reward_expectancy_bt,2022.2.4,MacIntel,60.0024001,Chrome,1440,900,,,a,1.517,10,305,1,2,1,25,11,1,0,0,0,1,0,0,1,0,star,hexagon,,,,,,,,,,,,,,,,,,,,,,,,,,,,,,,,,,,,,,,,,,,,,,,,,,,,,,
296476,2022-11-14_23h21.00.418,vts_reward_expectancy_bt,2022.2.4,MacIntel,60.0024001,Chrome,1440,900,,,a,0.9058,1,306,1,2,2,26,9,1,0,0,0,1,1,0,0,0,star,triangle,,,,,,,,,,,,,,,,,,,,,,,,,,,,,,,,,,,,,,,,,,,,,,,,,,,,,,
296476,2022-11-14_23h21.00.418,vts_reward_expectancy_bt,2022.2.4,MacIntel,60.0024001,Chrome,1440,900,,,a,1.1838,10,316,1,2,3,27,6,1,0,0,1,0,1,0,0,0,hexagon,triangle,,,,,,,,,,,,,,,,,,,,,,,,,,,,,,,,,,,,,,,,,,,,,,,,,,,,,,
296476,2022-11-14_23h21.00.418,vts_reward_expectancy_bt,2022.2.4,MacIntel,60.0024001,Chrome,1440,900,,,l,4.1057,1,317,1,2,4,28,8,1,0,0,1,0,0,0,0,1,hexagon,star,,,,,,,,,,,,,,,,,,,,,,,,,,,,,,,,,,,,,,,,,,,,,,,,,,,,,,
296476,2022-11-14_23h21.00.418,vts_reward_expectancy_bt,2022.2.4,MacIntel,60.0024001,Chrome,1440,900,,,l,0.9356,10,327,1,2,5,29,2,1,1,0,0,0,0,0,0,1,triangle,star,,,,,,,,,,,,,,,,,,,,,,,,,,,,,,,,,,,,,,,,,,,,,,,,,,,,,,
296476,2022-11-14_23h21.00.418,vts_reward_expectancy_bt,2022.2.4,MacIntel,60.0024001,Chrome,1440,900,,,a,4.4996,1,328,1,2,6,30,5,1,0,1,0,0,0,0,0,1,circle,star,,,,,,,,,,,,,,,,,,,,,,,,,,,,,,,,,,,,,,,,,,,,,,,,,,,,,,
296476,2022-11-14_23h21.00.418,vts_reward_expectancy_bt,2022.2.4,MacIntel,60.0024001,Chrome,1440,900,,,l,0.9247,1,329,1,2,7,31,1,1,1,0,0,0,0,0,1,0,triangle,hexagon,,,,,,,,,,,,,,,,,,,,,,,,,,,,,,,,,,,,,,,,,,,,,,,,,,,,,,
296476,2022-11-14_23h21.00.418,vts_reward_expectancy_bt,2022.2.4,MacIntel,60.0024001,Chrome,1440,900,,,l,1.5372,1,330,1,2,8,32,10,1,0,0,0,1,0,1,0,0,star ,circle,,,,,,,,,,,,,,,,,,,,,,,,,,,,,,,,,,,,,,,,,,,,,,,,,,,,,,
296476,2022-11-14_23h21.00.418,vts_reward_expectancy_bt,2022.2.4,MacIntel,60.0024001,Chrome,1440,900,,,l,1.2365,1,331,1,2,9,33,3,1,0,1,0,0,1,0,0,0,circle,triangle,,,,,,,,,,,,,,,,,,,,,,,,,,,,,,,,,,,,,,,,,,,,,,,,,,,,,,
296476,2022-11-14_23h21.00.418,vts_reward_expectancy_bt,2022.2.4,MacIntel,60.0024001,Chrome,1440,900,,,l,1.3035,1,332,1,2,10,34,4,1,0,1,0,0,0,0,1,0,circle,hexagon,,,,,,,,,,,,,,,,,,,,,,,,,,,,,,,,,,,,,,,,,,,,,,,,,,,,,,
296476,2022-11-14_23h21.00.418,vts_reward_expectancy_bt,2022.2.4,MacIntel,60.0024001,Chrome,1440,900,,,a,1.5344,1,333,1,2,11,35,0,1,1,0,0,0,0,1,0,0,triangle,circle,,,,,,,,,,,,,,,,,,,,,,,,,,,,,,,,,,,,,,,,,,,,,,,,,,,,,,
296476,2022-11-14_23h21.00.418,vts_reward_expectancy_bt,2022.2.4,MacIntel,60.0024001,Chrome,1440,900,,,l,1.4312,1,334,2,0,0,0,7,1,0,0,1,0,0,1,0,0,hexagon,circle,,,,,,,,,,,,,,,,,,,,,,,,,,,,,,,,,,,,,,,,,,,,,,,,,,,,,,
296476,2022-11-14_23h21.00.418,vts_reward_expectancy_bt,2022.2.4,MacIntel,60.0024001,Chrome,1440,900,,,a,1.0236,1,335,2,0,1,1,9,1,0,0,0,1,1,0,0,0,star,triangle,,,,,,,,,,,,,,,,,,,,,,,,,,,,,,,,,,,,,,,,,,,,,,,,,,,,,,
296476,2022-11-14_23h21.00.418,vts_reward_expectancy_bt,2022.2.4,MacIntel,60.0024001,Chrome,1440,900,,,l,0.7174,10,345,2,0,2,2,8,1,0,0,1,0,0,0,0,1,hexagon,star,,,,,,,,,,,,,,,,,,,,,,,,,,,,,,,,,,,,,,,,,,,,,,,,,,,,,,
296476,2022-11-14_23h21.00.418,vts_reward_expectancy_bt,2022.2.4,MacIntel,60.0024001,Chrome,1440,900,,,l,1.2051,1,346,2,0,3,3,0,1,1,0,0,0,0,1,0,0,triangle,circle,,,,,,,,,,,,,,,,,,,,,,,,,,,,,,,,,,,,,,,,,,,,,,,,,,,,,,
296476,2022-11-14_23h21.00.418,vts_reward_expectancy_bt,2022.2.4,MacIntel,60.0024001,Chrome,1440,900,,,a,1.0492,10,356,2,0,4,4,11,1,0,0,0,1,0,0,1,0,star,hexagon,,,,,,,,,,,,,,,,,,,,,,,,,,,,,,,,,,,,,,,,,,,,,,,,,,,,,,
296476,2022-11-14_23h21.00.418,vts_reward_expectancy_bt,2022.2.4,MacIntel,60.0024001,Chrome,1440,900,,,l,1.5211,10,366,2,0,5,5,1,1,1,0,0,0,0,0,1,0,triangle,hexagon,,,,,,,,,,,,,,,,,,,,,,,,,,,,,,,,,,,,,,,,,,,,,,,,,,,,,,
296476,2022-11-14_23h21.00.418,vts_reward_expectancy_bt,2022.2.4,MacIntel,60.0024001,Chrome,1440,900,,,l,1.3344,10,376,2,0,6,6,3,1,0,1,0,0,1,0,0,0,circle,triangle,,,,,,,,,,,,,,,,,,,,,,,,,,,,,,,,,,,,,,,,,,,,,,,,,,,,,,
296476,2022-11-14_23h21.00.418,vts_reward_expectancy_bt,2022.2.4,MacIntel,60.0024001,Chrome,1440,900,,,l,0.9185,1,377,2,0,7,7,2,1,1,0,0,0,0,0,0,1,triangle,star,,,,,,,,,,,,,,,,,,,,,,,,,,,,,,,,,,,,,,,,,,,,,,,,,,,,,,
296476,2022-11-14_23h21.00.418,vts_reward_expectancy_bt,2022.2.4,MacIntel,60.0024001,Chrome,1440,900,,,l,1.341,1,378,2,0,8,8,4,1,0,1,0,0,0,0,1,0,circle,hexagon,,,,,,,,,,,,,,,,,,,,,,,,,,,,,,,,,,,,,,,,,,,,,,,,,,,,,,
296476,2022-11-14_23h21.00.418,vts_reward_expectancy_bt,2022.2.4,MacIntel,60.0024001,Chrome,1440,900,,,a,1.9834,10,388,2,0,9,9,6,1,0,0,1,0,1,0,0,0,hexagon,triangle,,,,,,,,,,,,,,,,,,,,,,,,,,,,,,,,,,,,,,,,,,,,,,,,,,,,,,
296476,2022-11-14_23h21.00.418,vts_reward_expectancy_bt,2022.2.4,MacIntel,60.0024001,Chrome,1440,900,,,a,1.7691,10,398,2,0,10,10,10,1,0,0,0,1,0,1,0,0,star ,circle,,,,,,,,,,,,,,,,,,,,,,,,,,,,,,,,,,,,,,,,,,,,,,,,,,,,,,
296476,2022-11-14_23h21.00.418,vts_reward_expectancy_bt,2022.2.4,MacIntel,60.0024001,Chrome,1440,900,,,l,3.4545,10,408,2,0,11,11,5,1,0,1,0,0,0,0,0,1,circle,star,,,,,,,,,,,,,,,,,,,,,,,,,,,,,,,,,,,,,,,,,,,,,,,,,,,,,,
296476,2022-11-14_23h21.00.418,vts_reward_expectancy_bt,2022.2.4,MacIntel,60.0024001,Chrome,1440,900,,,a,1.0444,10,418,2,1,0,12,0,1,1,0,0,0,0,1,0,0,triangle,circle,,,,,,,,,,,,,,,,,,,,,,,,,,,,,,,,,,,,,,,,,,,,,,,,,,,,,,
296476,2022-11-14_23h21.00.418,vts_reward_expectancy_bt,2022.2.4,MacIntel,60.0024001,Chrome,1440,900,,,a,1.7514,1,419,2,1,1,13,8,1,0,0,1,0,0,0,0,1,hexagon,star,,,,,,,,,,,,,,,,,,,,,,,,,,,,,,,,,,,,,,,,,,,,,,,,,,,,,,
296476,2022-11-14_23h21.00.418,vts_reward_expectancy_bt,2022.2.4,MacIntel,60.0024001,Chrome,1440,900,,,l,1.7907,1,420,2,1,2,14,4,1,0,1,0,0,0,0,1,0,circle,hexagon,,,,,,,,,,,,,,,,,,,,,,,,,,,,,,,,,,,,,,,,,,,,,,,,,,,,,,
296476,2022-11-14_23h21.00.418,vts_reward_expectancy_bt,2022.2.4,MacIntel,60.0024001,Chrome,1440,900,,,a,1.0029,1,421,2,1,3,15,10,1,0,0,0,1,0,1,0,0,star ,circle,,,,,,,,,,,,,,,,,,,,,,,,,,,,,,,,,,,,,,,,,,,,,,,,,,,,,,
296476,2022-11-14_23h21.00.418,vts_reward_expectancy_bt,2022.2.4,MacIntel,60.0024001,Chrome,1440,900,,,l,1.5072,10,431,2,1,4,16,3,1,0,1,0,0,1,0,0,0,circle,triangle,,,,,,,,,,,,,,,,,,,,,,,,,,,,,,,,,,,,,,,,,,,,,,,,,,,,,,
296476,2022-11-14_23h21.00.418,vts_reward_expectancy_bt,2022.2.4,MacIntel,60.0024001,Chrome,1440,900,,,a,1.4167,1,432,2,1,5,17,5,1,0,1,0,0,0,0,0,1,circle,star,,,,,,,,,,,,,,,,,,,,,,,,,,,,,,,,,,,,,,,,,,,,,,,,,,,,,,
296476,2022-11-14_23h21.00.418,vts_reward_expectancy_bt,2022.2.4,MacIntel,60.0024001,Chrome,1440,900,,,a,1.6376,1,433,2,1,6,18,11,1,0,0,0,1,0,0,1,0,star,hexagon,,,,,,,,,,,,,,,,,,,,,,,,,,,,,,,,,,,,,,,,,,,,,,,,,,,,,,
296476,2022-11-14_23h21.00.418,vts_reward_expectancy_bt,2022.2.4,MacIntel,60.0024001,Chrome,1440,900,,,l,1.2885,1,434,2,1,7,19,9,1,0,0,0,1,1,0,0,0,star,triangle,,,,,,,,,,,,,,,,,,,,,,,,,,,,,,,,,,,,,,,,,,,,,,,,,,,,,,
296476,2022-11-14_23h21.00.418,vts_reward_expectancy_bt,2022.2.4,MacIntel,60.0024001,Chrome,1440,900,,,l,1.0561,10,444,2,1,8,20,6,1,0,0,1,0,1,0,0,0,hexagon,triangle,,,,,,,,,,,,,,,,,,,,,,,,,,,,,,,,,,,,,,,,,,,,,,,,,,,,,,
296476,2022-11-14_23h21.00.418,vts_reward_expectancy_bt,2022.2.4,MacIntel,60.0024001,Chrome,1440,900,,,l,0.8485,1,445,2,1,9,21,1,1,1,0,0,0,0,0,1,0,triangle,hexagon,,,,,,,,,,,,,,,,,,,,,,,,,,,,,,,,,,,,,,,,,,,,,,,,,,,,,,
296476,2022-11-14_23h21.00.418,vts_reward_expectancy_bt,2022.2.4,MacIntel,60.0024001,Chrome,1440,900,,,l,1.0677,10,455,2,1,10,22,2,1,1,0,0,0,0,0,0,1,triangle,star,,,,,,,,,,,,,,,,,,,,,,,,,,,,,,,,,,,,,,,,,,,,,,,,,,,,,,
296476,2022-11-14_23h21.00.418,vts_reward_expectancy_bt,2022.2.4,MacIntel,60.0024001,Chrome,1440,900,,,l,1.6833,10,465,2,1,11,23,7,1,0,0,1,0,0,1,0,0,hexagon,circle,,,,,,,,,,,,,,,,,,,,,,,,,,,,,,,,,,,,,,,,,,,,,,,,,,,,,,
296476,2022-11-14_23h21.00.418,vts_reward_expectancy_bt,2022.2.4,MacIntel,60.0024001,Chrome,1440,900,,,l,1.0628,10,475,2,2,0,24,6,1,0,0,1,0,1,0,0,0,hexagon,triangle,,,,,,,,,,,,,,,,,,,,,,,,,,,,,,,,,,,,,,,,,,,,,,,,,,,,,,
296476,2022-11-14_23h21.00.418,vts_reward_expectancy_bt,2022.2.4,MacIntel,60.0024001,Chrome,1440,900,,,l,1.7044,10,485,2,2,1,25,9,1,0,0,0,1,1,0,0,0,star,triangle,,,,,,,,,,,,,,,,,,,,,,,,,,,,,,,,,,,,,,,,,,,,,,,,,,,,,,
296476,2022-11-14_23h21.00.418,vts_reward_expectancy_bt,2022.2.4,MacIntel,60.0024001,Chrome,1440,900,,,l,1.4687,10,495,2,2,2,26,5,1,0,1,0,0,0,0,0,1,circle,star,,,,,,,,,,,,,,,,,,,,,,,,,,,,,,,,,,,,,,,,,,,,,,,,,,,,,,
296476,2022-11-14_23h21.00.418,vts_reward_expectancy_bt,2022.2.4,MacIntel,60.0024001,Chrome,1440,900,,,a,0.9175,1,496,2,2,3,27,3,1,0,1,0,0,1,0,0,0,circle,triangle,,,,,,,,,,,,,,,,,,,,,,,,,,,,,,,,,,,,,,,,,,,,,,,,,,,,,,
296476,2022-11-14_23h21.00.418,vts_reward_expectancy_bt,2022.2.4,MacIntel,60.0024001,Chrome,1440,900,,,l,1.0752,1,497,2,2,4,28,4,1,0,1,0,0,0,0,1,0,circle,hexagon,,,,,,,,,,,,,,,,,,,,,,,,,,,,,,,,,,,,,,,,,,,,,,,,,,,,,,
296476,2022-11-14_23h21.00.418,vts_reward_expectancy_bt,2022.2.4,MacIntel,60.0024001,Chrome,1440,900,,,l,2.3663,10,507,2,2,5,29,8,1,0,0,1,0,0,0,0,1,hexagon,star,,,,,,,,,,,,,,,,,,,,,,,,,,,,,,,,,,,,,,,,,,,,,,,,,,,,,,
296476,2022-11-14_23h21.00.418,vts_reward_expectancy_bt,2022.2.4,MacIntel,60.0024001,Chrome,1440,900,,,a,1.95,1,508,2,2,6,30,0,1,1,0,0,0,0,1,0,0,triangle,circle,,,,,,,,,,,,,,,,,,,,,,,,,,,,,,,,,,,,,,,,,,,,,,,,,,,,,,
296476,2022-11-14_23h21.00.418,vts_reward_expectancy_bt,2022.2.4,MacIntel,60.0024001,Chrome,1440,900,,,a,2.3541,1,509,2,2,7,31,1,1,1,0,0,0,0,0,1,0,triangle,hexagon,,,,,,,,,,,,,,,,,,,,,,,,,,,,,,,,,,,,,,,,,,,,,,,,,,,,,,
296476,2022-11-14_23h21.00.418,vts_reward_expectancy_bt,2022.2.4,MacIntel,60.0024001,Chrome,1440,900,,,a,1.4457,10,519,2,2,8,32,7,1,0,0,1,0,0,1,0,0,hexagon,circle,,,,,,,,,,,,,,,,,,,,,,,,,,,,,,,,,,,,,,,,,,,,,,,,,,,,,,
296476,2022-11-14_23h21.00.418,vts_reward_expectancy_bt,2022.2.4,MacIntel,60.0024001,Chrome,1440,900,,,l,3.0154,1,520,2,2,9,33,2,1,1,0,0,0,0,0,0,1,triangle,star,,,,,,,,,,,,,,,,,,,,,,,,,,,,,,,,,,,,,,,,,,,,,,,,,,,,,,
296476,2022-11-14_23h21.00.418,vts_reward_expectancy_bt,2022.2.4,MacIntel,60.0024001,Chrome,1440,900,,,a,1.6341,1,521,2,2,10,34,10,1,0,0,0,1,0,1,0,0,star ,circle,,,,,,,,,,,,,,,,,,,,,,,,,,,,,,,,,,,,,,,,,,,,,,,,,,,,,,
296476,2022-11-14_23h21.00.418,vts_reward_expectancy_bt,2022.2.4,MacIntel,60.0024001,Chrome,1440,900,,,l,1.221,1,522,2,2,11,35,11,1,0,0,0,1,0,0,1,0,star,hexagon,,,,,,,,,,,,,,,,,,,,,,,,,,,,,,,,,,,,,,,,,,,,,,,,,,,,,,
296476,2022-11-14_23h21.00.418,vts_reward_expectancy_bt,2022.2.4,MacIntel,60.0024001,Chrome,1440,900,,,,,,,,,,,,,,,,,,,,,,,W,181,triangle,1,0,f,2.4626,0,0,0,0,0,1,,,,,,,,,,,,,,,,,,,,,,,,,,,,,,,,,,,,,,,,,
296476,2022-11-14_23h21.00.418,vts_reward_expectancy_bt,2022.2.4,MacIntel,60.0024001,Chrome,1440,900,,,,,,,,,,,,,,,,,,,,,,,S,132,hexagon,1,0,f,0.7371,0,1,0,1,0,1,,,,,,,,,,,,,,,,,,,,,,,,,,,,,,,,,,,,,,,,,
296476,2022-11-14_23h21.00.418,vts_reward_expectancy_bt,2022.2.4,MacIntel,60.0024001,Chrome,1440,900,,,,,,,,,,,,,,,,,,,,,,,F,167,star,1,0,d,0.7453,0,2,0,2,0,1,,,,,,,,,,,,,,,,,,,,,,,,,,,,,,,,,,,,,,,,,
296476,2022-11-14_23h21.00.418,vts_reward_expectancy_bt,2022.2.4,MacIntel,60.0024001,Chrome,1440,900,,,,,,,,,,,,,,,,,,,,,,,U,146,circle,1,0,f,0.6362,0,3,0,3,0,1,,,,,,,,,,,,,,,,,,,,,,,,,,,,,,,,,,,,,,,,,
296476,2022-11-14_23h21.00.418,vts_reward_expectancy_bt,2022.2.4,MacIntel,60.0024001,Chrome,1440,900,,,,,,,,,,,,,,,,,,,,,,,Y,160,triangle,1,0,f,0.5456,0,4,0,4,0,1,,,,,,,,,,,,,,,,,,,,,,,,,,,,,,,,,,,,,,,,,
296476,2022-11-14_23h21.00.418,vts_reward_expectancy_bt,2022.2.4,MacIntel,60.0024001,Chrome,1440,900,,,,,,,,,,,,,,,,,,,,,,,D,174,hexagon,1,0,d,0.6976,0,5,0,5,0,1,,,,,,,,,,,,,,,,,,,,,,,,,,,,,,,,,,,,,,,,,
296476,2022-11-14_23h21.00.418,vts_reward_expectancy_bt,2022.2.4,MacIntel,60.0024001,Chrome,1440,900,,,,,,,,,,,,,,,,,,,,,,,H,125,star,1,0,d,0.6924,0,6,0,6,0,1,,,,,,,,,,,,,,,,,,,,,,,,,,,,,,,,,,,,,,,,,
296476,2022-11-14_23h21.00.418,vts_reward_expectancy_bt,2022.2.4,MacIntel,60.0024001,Chrome,1440,900,,,,,,,,,,,,,,,,,,,,,,,B,139,circle,1,0,d,0.547,0,7,0,7,0,1,,,,,,,,,,,,,,,,,,,,,,,,,,,,,,,,,,,,,,,,,
296476,2022-11-14_23h21.00.418,vts_reward_expectancy_bt,2022.2.4,MacIntel,60.0024001,Chrome,1440,900,,,,,,,,,,,,,,,,,,,,,,,W,181,hexagon,1,0,f,0.9249,0,8,0,8,0,1,,,,,,,,,,,,,,,,,,,,,,,,,,,,,,,,,,,,,,,,,
296476,2022-11-14_23h21.00.418,vts_reward_expectancy_bt,2022.2.4,MacIntel,60.0024001,Chrome,1440,900,,,,,,,,,,,,,,,,,,,,,,,S,132,star,1,0,f,0.7833,0,9,0,9,0,1,,,,,,,,,,,,,,,,,,,,,,,,,,,,,,,,,,,,,,,,,
296476,2022-11-14_23h21.00.418,vts_reward_expectancy_bt,2022.2.4,MacIntel,60.0024001,Chrome,1440,900,,,,,,,,,,,,,,,,,,,,,,,B,146,circle,1,0,,,1,,,,,,j,1.3677,0,0,0,0,1,,,,,,,,,,,,,,,,,,,,,,,,,,,,,,,,,,
296476,2022-11-14_23h21.00.418,vts_reward_expectancy_bt,2022.2.4,MacIntel,60.0024001,Chrome,1440,900,,,,,,,,,,,,,,,,,,,,,,,F,160,triangle,1,0,,,1,,,,,,k,0.6041,1,0,1,0,1,,,,,,,,,,,,,,,,,,,,,,,,,,,,,,,,,,
296476,2022-11-14_23h21.00.418,vts_reward_expectancy_bt,2022.2.4,MacIntel,60.0024001,Chrome,1440,900,,,,,,,,,,,,,,,,,,,,,,,H,174,hexagon,1,0,,,1,,,,,,k,0.6653,2,0,2,0,1,,,,,,,,,,,,,,,,,,,,,,,,,,,,,,,,,,
296476,2022-11-14_23h21.00.418,vts_reward_expectancy_bt,2022.2.4,MacIntel,60.0024001,Chrome,1440,900,,,,,,,,,,,,,,,,,,,,,,,D,139,star,1,0,,,1,,,,,,j,0.8518,3,0,3,0,1,,,,,,,,,,,,,,,,,,,,,,,,,,,,,,,,,,
296476,2022-11-14_23h21.00.418,vts_reward_expectancy_bt,2022.2.4,MacIntel,60.0024001,Chrome,1440,900,,,,,,,,,,,,,,,,,,,,,,,Y,132,circle,1,0,,,1,,,,,,j,1.084,4,0,4,0,1,,,,,,,,,,,,,,,,,,,,,,,,,,,,,,,,,,
296476,2022-11-14_23h21.00.418,vts_reward_expectancy_bt,2022.2.4,MacIntel,60.0024001,Chrome,1440,900,,,,,,,,,,,,,,,,,,,,,,,W,167,triangle,1,0,,,1,,,,,,k,0.5688,5,0,5,0,1,,,,,,,,,,,,,,,,,,,,,,,,,,,,,,,,,,
296476,2022-11-14_23h21.00.418,vts_reward_expectancy_bt,2022.2.4,MacIntel,60.0024001,Chrome,1440,900,,,,,,,,,,,,,,,,,,,,,,,S,181,hexagon,1,0,,,1,,,,,,k,0.4644,6,0,6,0,1,,,,,,,,,,,,,,,,,,,,,,,,,,,,,,,,,,
296476,2022-11-14_23h21.00.418,vts_reward_expectancy_bt,2022.2.4,MacIntel,60.0024001,Chrome,1440,900,,,,,,,,,,,,,,,,,,,,,,,U,125,star,1,0,,,1,,,,,,j,0.4544,7,0,7,0,1,,,,,,,,,,,,,,,,,,,,,,,,,,,,,,,,,,
296476,2022-11-14_23h21.00.418,vts_reward_expectancy_bt,2022.2.4,MacIntel,60.0024001,Chrome,1440,900,,,,,,,,,,,,,,,,,,,,,,,B,146,circle,1,0,,,1,,,,,,j,0.6635,8,0,8,0,1,,,,,,,,,,,,,,,,,,,,,,,,,,,,,,,,,,
296476,2022-11-14_23h21.00.418,vts_reward_expectancy_bt,2022.2.4,MacIntel,60.0024001,Chrome,1440,900,,,,,,,,,,,,,,,,,,,,,,,F,160,hexagon,1,0,,,1,,,,,,k,0.4502,9,0,9,0,1,,,,,,,,,,,,,,,,,,,,,,,,,,,,,,,,,,
296476,2022-11-14_23h21.00.418,vts_reward_expectancy_bt,2022.2.4,MacIntel,60.0024001,Chrome,1440,900,,,,,0,522,,,,,,,,,,,,,,,,,Y,132,circle,1,0,,,2,,,,,,,,,,,,,-1,number,NA,j,0.7971,vtsPrac,0,0,0,0,1,,,,,,,,,,,,,,,,,,,,,,,
296476,2022-11-14_23h21.00.418,vts_reward_expectancy_bt,2022.2.4,MacIntel,60.0024001,Chrome,1440,900,,,,,0,522,,,,,,,,,,,,,,,,,H,160,triangle,0,0,,,2,,,,,,,,,,,,,switch,letter,NA,f,1.4445,vtsPrac,1,0,1,0,1,,,,,,,,,,,,,,,,,,,,,,,
296476,2022-11-14_23h21.00.418,vts_reward_expectancy_bt,2022.2.4,MacIntel,60.0024001,Chrome,1440,900,,,,,0,522,,,,,,,,,,,,,,,,,D,181,circle,1,1,,,2,,,,,,,,,,,,,repeat,letter,lettRpt,d,0.8199,vtsPrac,2,0,2,0,1,,,,,,,,,,,,,,,,,,,,,,,
296476,2022-11-14_23h21.00.418,vts_reward_expectancy_bt,2022.2.4,MacIntel,60.0024001,Chrome,1440,900,,,,,0,522,,,,,,,,,,,,,,,,,F,146,triangle,1,0,,,2,,,,,,,,,,,,,switch,number,numSwt,j,0.7324,vtsPrac,3,0,3,0,1,,,,,,,,,,,,,,,,,,,,,,,
296476,2022-11-14_23h21.00.418,vts_reward_expectancy_bt,2022.2.4,MacIntel,60.0024001,Chrome,1440,900,,,,,0,522,,,,,,,,,,,,,,,,,Y,132,triangle,1,0,,,2,,,,,,,,,,,,,repeat,number,numRpt,j,1.6949,vtsPrac,4,0,4,0,1,,,,,,,,,,,,,,,,,,,,,,,
296476,2022-11-14_23h21.00.418,vts_reward_expectancy_bt,2022.2.4,MacIntel,60.0024001,Chrome,1440,900,,,,,0,522,,,,,,,,,,,,,,,,,H,160,circle,1,0,,,2,,,,,,,,,,,,,switch,letter,lettSwt,d,0.8041,vtsPrac,5,0,5,0,1,,,,,,,,,,,,,,,,,,,,,,,
296476,2022-11-14_23h21.00.418,vts_reward_expectancy_bt,2022.2.4,MacIntel,60.0024001,Chrome,1440,900,,,,,0,522,,,,,,,,,,,,,,,,,D,181,hexagon,1,0,,,2,,,,,,,,,,,,,repeat,letter,lettRpt,d,0.9938,vtsPrac,6,0,6,0,1,,,,,,,,,,,,,,,,,,,,,,,
296476,2022-11-14_23h21.00.418,vts_reward_expectancy_bt,2022.2.4,MacIntel,60.0024001,Chrome,1440,900,,,,,0,522,,,,,,,,,,,,,,,,,F,146,star,1,0,,,2,,,,,,,,,,,,,repeat,letter,lettRpt,d,1.1434,vtsPrac,7,0,7,0,1,,,,,,,,,,,,,,,,,,,,,,,
296476,2022-11-14_23h21.00.418,vts_reward_expectancy_bt,2022.2.4,MacIntel,60.0024001,Chrome,1440,900,,,,,0,522,,,,,,,,,,,,,,,,,S,174,triangle,1,0,,,2,,,,,,,,,,,,,switch,number,numSwt,k,0.9721,vtsPrac,8,0,8,0,1,,,,,,,,,,,,,,,,,,,,,,,
296476,2022-11-14_23h21.00.418,vts_reward_expectancy_bt,2022.2.4,MacIntel,60.0024001,Chrome,1440,900,,,,,0,522,,,,,,,,,,,,,,,,,U,160,circle,1,0,,,2,,,,,,,,,,,,,repeat,number,numRpt,k,0.7976,vtsPrac,9,0,9,0,1,,,,,,,,,,,,,,,,,,,,,,,
296476,2022-11-14_23h21.00.418,vts_reward_expectancy_bt,2022.2.4,MacIntel,60.0024001,Chrome,1440,900,,,,,0,522,,,,,,,,,,,,,,,,,W,167,triangle,1,0,,,2,,,,,,,,,,,,,switch,letter,lettSwt,f,0.5457,vtsPrac,10,0,10,0,1,,,,,,,,,,,,,,,,,,,,,,,
296476,2022-11-14_23h21.00.418,vts_reward_expectancy_bt,2022.2.4,MacIntel,60.0024001,Chrome,1440,900,,,,,0,522,,,,,,,,,,,,,,,,,D,139,hexagon,1,0,,,2,,,,,,,,,,,,,repeat,letter,lettRpt,d,0.7444,vtsPrac,11,0,11,0,1,,,,,,,,,,,,,,,,,,,,,,,
296476,2022-11-14_23h21.00.418,vts_reward_expectancy_bt,2022.2.4,MacIntel,60.0024001,Chrome,1440,900,,,,,0,522,,,,,,,,,,,,,,,,,Y,167,star,-1,0,,,2,,,,,,,,,,,,,switch,no_choice,NA,,,vtsPrac,12,0,12,0,1,,,,,,,,,,,,,,,,,,,,,,,
296476,2022-11-14_23h21.00.418,vts_reward_expectancy_bt,2022.2.4,MacIntel,60.0024001,Chrome,1440,900,,,,,0,522,,,,,,,,,,,,,,,,,U,181,hexagon,1,0,,,2,,,,,,,,,,,,,switch,letter,lettSwt,f,1.1566,vtsPrac,13,0,13,0,1,,,,,,,,,,,,,,,,,,,,,,,
296476,2022-11-14_23h21.00.418,vts_reward_expectancy_bt,2022.2.4,MacIntel,60.0024001,Chrome,1440,900,,,,,0,522,,,,,,,,,,,,,,,,,F,174,circle,1,0,,,2,,,,,,,,,,,,,switch,number,numSwt,k,0.7297,vtsPrac,14,0,14,0,1,,,,,,,,,,,,,,,,,,,,,,,
296476,2022-11-14_23h21.00.418,vts_reward_expectancy_bt,2022.2.4,MacIntel,60.0024001,Chrome,1440,900,,,,,0,522,,,,,,,,,,,,,,,,,B,125,triangle,1,0,,,2,,,,,,,,,,,,,repeat,number,numRpt,j,1.0969,vtsPrac,15,0,15,0,1,,,,,,,,,,,,,,,,,,,,,,,
296476,2022-11-14_23h21.00.418,vts_reward_expectancy_bt,2022.2.4,MacIntel,60.0024001,Chrome,1440,900,,,,,0,522,,,,,,,,,,,,,,,,,D,181,circle,1,0,,,2,,,,,,,,,,,,,switch,letter,lettSwt,d,0.6142,vtsPrac,16,0,16,0,1,,,,,,,,,,,,,,,,,,,,,,,
296476,2022-11-14_23h21.00.418,vts_reward_expectancy_bt,2022.2.4,MacIntel,60.0024001,Chrome,1440,900,,,,,0,522,,,,,,,,,,,,,,,,,Y,125,hexagon,1,0,,,2,,,,,,,,,,,,,switch,number,numSwt,j,1.1637,vtsPrac,17,0,17,0,1,,,,,,,,,,,,,,,,,,,,,,,
296476,2022-11-14_23h21.00.418,vts_reward_expectancy_bt,2022.2.4,MacIntel,60.0024001,Chrome,1440,900,,,,,0,522,,,,,,,,,,,,,,,,,H,174,star,1,0,,,2,,,,,,,,,,,,,repeat,number,numRpt,k,0.9473,vtsPrac,18,0,18,0,1,,,,,,,,,,,,,,,,,,,,,,,
296476,2022-11-14_23h21.00.418,vts_reward_expectancy_bt,2022.2.4,MacIntel,60.0024001,Chrome,1440,900,,,,,0,522,,,,,,,,,,,,,,,,,B,167,hexagon,1,0,,,2,,,,,,,,,,,,,switch,letter,lettSwt,d,0.8972,vtsPrac,19,0,19,0,1,,,,,,,,,,,,,,,,,,,,,,,
296476,2022-11-14_23h21.00.418,vts_reward_expectancy_bt,2022.2.4,MacIntel,60.0024001,Chrome,1440,900,,,,,0,522,,,,,,,,,,,,,,,,,Y,181,circle,1,0,,,2,,,,,,,,,,,,,repeat,letter,lettRpt,f,0.7805,vtsPrac,20,0,20,0,1,,,,,,,,,,,,,,,,,,,,,,,
296476,2022-11-14_23h21.00.418,vts_reward_expectancy_bt,2022.2.4,MacIntel,60.0024001,Chrome,1440,900,,,,,0,522,,,,,,,,,,,,,,,,,H,167,star,1,0,,,2,,,,,,,,,,,,,switch,number,numSwt,k,0.8267,vtsPrac,21,0,21,0,1,,,,,,,,,,,,,,,,,,,,,,,
296476,2022-11-14_23h21.00.418,vts_reward_expectancy_bt,2022.2.4,MacIntel,60.0024001,Chrome,1440,900,,,,,0,522,,,,,,,,,,,,,,,,,B,132,triangle,1,0,,,2,,,,,,,,,,,,,repeat,number,numRpt,j,0.9451,vtsPrac,22,0,22,0,1,,,,,,,,,,,,,,,,,,,,,,,
296476,2022-11-14_23h21.00.418,vts_reward_expectancy_bt,2022.2.4,MacIntel,60.0024001,Chrome,1440,900,,,,,0,522,,,,,,,,,,,,,,,,,W,160,hexagon,1,0,,,2,,,,,,,,,,,,,switch,letter,lettSwt,f,0.5642,vtsPrac,23,0,23,0,1,,,,,,,,,,,,,,,,,,,,,,,
296476,2022-11-14_23h21.00.418,vts_reward_expectancy_bt,2022.2.4,MacIntel,60.0024001,Chrome,1440,900,,,,,0,522,,,,,,,,,,,,,,,,,D,139,triangle,1,0,,,2,,,,,,,,,,,,,repeat,letter,lettRpt,d,0.8272,vtsPrac,24,0,24,0,1,,,,,,,,,,,,,,,,,,,,,,,
296476,2022-11-14_23h21.00.418,vts_reward_expectancy_bt,2022.2.4,MacIntel,60.0024001,Chrome,1440,900,,,,,0,522,,,,,,,,,,,,,,,,,S,160,circle,1,0,,,2,,,,,,,,,,,,,repeat,letter,lettRpt,f,2.1331,vtsPrac,25,0,25,0,1,,,,,,,,,,,,,,,,,,,,,,,
296476,2022-11-14_23h21.00.418,vts_reward_expectancy_bt,2022.2.4,MacIntel,60.0024001,Chrome,1440,900,,,,,0,522,,,,,,,,,,,,,,,,,H,181,triangle,1,0,,,2,,,,,,,,,,,,,switch,number,numSwt,k,0.5185,vtsPrac,26,0,26,0,1,,,,,,,,,,,,,,,,,,,,,,,
296476,2022-11-14_23h21.00.418,vts_reward_expectancy_bt,2022.2.4,MacIntel,60.0024001,Chrome,1440,900,,,,,0,522,,,,,,,,,,,,,,,,,Y,132,star,1,0,,,2,,,,,,,,,,,,,repeat,number,numRpt,j,0.7499,vtsPrac,27,0,27,0,1,,,,,,,,,,,,,,,,,,,,,,,
296476,2022-11-14_23h21.00.418,vts_reward_expectancy_bt,2022.2.4,MacIntel,60.0024001,Chrome,1440,900,,,,,0,522,,,,,,,,,,,,,,,,,B,132,triangle,1,0,,,2,,,,,,,,,,,,,repeat,number,numRpt,j,1.1818,vtsPrac,28,0,28,0,1,,,,,,,,,,,,,,,,,,,,,,,
296476,2022-11-14_23h21.00.418,vts_reward_expectancy_bt,2022.2.4,MacIntel,60.0024001,Chrome,1440,900,,,,,0,522,,,,,,,,,,,,,,,,,U,160,hexagon,1,0,,,2,,,,,,,,,,,,,repeat,number,numRpt,k,1.067,vtsPrac,29,0,29,0,1,,,,,,,,,,,,,,,,,,,,,,,
296476,2022-11-14_23h21.00.418,vts_reward_expectancy_bt,2022.2.4,MacIntel,60.0024001,Chrome,1440,900,,,,,0,522,,,,,,,,,,,,,,,,,F,167,circle,1,0,,,2,,,,,,,,,,,,,switch,letter,lettSwt,d,0.798,vtsPrac,30,0,30,0,1,,,,,,,,,,,,,,,,,,,,,,,
296476,2022-11-14_23h21.00.418,vts_reward_expectancy_bt,2022.2.4,MacIntel,60.0024001,Chrome,1440,900,,,,,0,522,,,,,,,,,,,,,,,,,W,174,triangle,1,0,,,2,,,,,,,,,,,,,repeat,letter,lettRpt,f,0.5375,vtsPrac,31,0,31,0,1,,,,,,,,,,,,,,,,,,,,,,,
296476,2022-11-14_23h21.00.418,vts_reward_expectancy_bt,2022.2.4,MacIntel,60.0024001,Chrome,1440,900,,,,,,,,,,,,,,,,,,,,,,,,,,,,,,,,,,,,,,,,,,,,,,,,,,,,,,,,,,,,,,,,,,,,,,,,,,,,
296476,2022-11-14_23h21.00.418,vts_reward_expectancy_bt,2022.2.4,MacIntel,60.0024001,Chrome,1440,900,,,,,,,,,,,,,,,,,,,,,,,,,,,,,,,,,,,,,,,,,,,,,,,,,,,,,,,,,,,,,,,,,,,,,,,,,,,,
296476,2022-11-14_23h21.00.418,vts_reward_expectancy_bt,2022.2.4,MacIntel,60.0024001,Chrome,1440,900,,,,,0,522,,,,,,,,,,,,,,,,,U,132,circle,1,0,,,,,,,,,,,,,,,,repeat,letter,lettRpt,f,2.2134,noRew,,,,,,0,0,0,0,0,1,,,,,,,,,,,,,,,,,
296476,2022-11-14_23h21.00.418,vts_reward_expectancy_bt,2022.2.4,MacIntel,60.0024001,Chrome,1440,900,,,,,0,522,,,,,,,,,,,,,,,,,F,174,hexagon,1,0,,,,,,,,,,,,,,,,repeat,letter,lettRpt,d,0.7167,noRew,,,,,,0,1,0,1,0,1,,,,,,,,,,,,,,,,,
296476,2022-11-14_23h21.00.418,vts_reward_expectancy_bt,2022.2.4,MacIntel,60.0024001,Chrome,1440,900,,,,,0,522,,,,,,,,,,,,,,,,,B,139,circle,1,0,,,,,,,,,,,,,,,,switch,number,numSwt,j,0.6002,noRew,,,,,,0,2,0,2,0,1,,,,,,,,,,,,,,,,,
296476,2022-11-14_23h21.00.418,vts_reward_expectancy_bt,2022.2.4,MacIntel,60.0024001,Chrome,1440,900,,,,,0,522,,,,,,,,,,,,,,,,,D,125,hexagon,1,0,,,,,,,,,,,,,,,,repeat,number,numRpt,j,0.8307,noRew,,,,,,0,3,0,3,0,1,,,,,,,,,,,,,,,,,
296476,2022-11-14_23h21.00.418,vts_reward_expectancy_bt,2022.2.4,MacIntel,60.0024001,Chrome,1440,900,,,,,0,522,,,,,,,,,,,,,,,,,U,132,circle,1,0,,,,,,,,,,,,,,,,switch,letter,lettSwt,f,0.611,noRew,,,,,,0,4,0,4,0,1,,,,,,,,,,,,,,,,,
296476,2022-11-14_23h21.00.418,vts_reward_expectancy_bt,2022.2.4,MacIntel,60.0024001,Chrome,1440,900,,,,,0,522,,,,,,,,,,,,,,,,,F,174,hexagon,1,0,,,,,,,,,,,,,,,,repeat,letter,lettRpt,d,0.7511,noRew,,,,,,0,5,0,5,0,1,,,,,,,,,,,,,,,,,
296476,2022-11-14_23h21.00.418,vts_reward_expectancy_bt,2022.2.4,MacIntel,60.0024001,Chrome,1440,900,,,,,0,522,,,,,,,,,,,,,,,,,B,139,hexagon,1,0,,,,,,,,,,,,,,,,switch,number,numSwt,j,0.5713,noRew,,,,,,0,6,0,6,0,1,,,,,,,,,,,,,,,,,
296476,2022-11-14_23h21.00.418,vts_reward_expectancy_bt,2022.2.4,MacIntel,60.0024001,Chrome,1440,900,,,,,0,522,,,,,,,,,,,,,,,,,D,125,star,1,0,,,,,,,,,,,,,,,,repeat,number,numRpt,j,1.7425,noRew,,,,,,0,7,0,7,0,1,,,,,,,,,,,,,,,,,
296476,2022-11-14_23h21.00.418,vts_reward_expectancy_bt,2022.2.4,MacIntel,60.0024001,Chrome,1440,900,,,,,0,522,,,,,,,,,,,,,,,,,F,139,star,1,0,,,,,,,,,,,,,,,,repeat,number,numRpt,j,0.914,noRew,,,,,,0,8,0,8,0,1,,,,,,,,,,,,,,,,,
296476,2022-11-14_23h21.00.418,vts_reward_expectancy_bt,2022.2.4,MacIntel,60.0024001,Chrome,1440,900,,,,,0,522,,,,,,,,,,,,,,,,,Y,174,circle,1,0,,,,,,,,,,,,,,,,switch,letter,lettSwt,f,1.0779,noRew,,,,,,0,9,0,9,0,1,,,,,,,,,,,,,,,,,
296476,2022-11-14_23h21.00.418,vts_reward_expectancy_bt,2022.2.4,MacIntel,60.0024001,Chrome,1440,900,,,,,0,522,,,,,,,,,,,,,,,,,B,167,star,1,0,,,,,,,,,,,,,,,,repeat,letter,lettRpt,d,0.6724,noRew,,,,,,0,10,0,10,0,1,,,,,,,,,,,,,,,,,
296476,2022-11-14_23h21.00.418,vts_reward_expectancy_bt,2022.2.4,MacIntel,60.0024001,Chrome,1440,900,,,,,0,522,,,,,,,,,,,,,,,,,H,146,circle,1,0,,,,,,,,,,,,,,,,switch,number,numSwt,j,0.8638,noRew,,,,,,0,11,0,11,0,1,,,,,,,,,,,,,,,,,
296476,2022-11-14_23h21.00.418,vts_reward_expectancy_bt,2022.2.4,MacIntel,60.0024001,Chrome,1440,900,,,,,0,522,,,,,,,,,,,,,,,,,H,174,triangle,1,0,,,,,,,,,,,,,,,,repeat,number,numRpt,k,0.6493,noRew,,,,,,0,12,0,12,0,1,,,,,,,,,,,,,,,,,
296476,2022-11-14_23h21.00.418,vts_reward_expectancy_bt,2022.2.4,MacIntel,60.0024001,Chrome,1440,900,,,,,0,522,,,,,,,,,,,,,,,,,D,146,circle,1,0,,,,,,,,,,,,,,,,switch,letter,lettSwt,d,0.7997,noRew,,,,,,0,13,0,13,0,1,,,,,,,,,,,,,,,,,
296476,2022-11-14_23h21.00.418,vts_reward_expectancy_bt,2022.2.4,MacIntel,60.0024001,Chrome,1440,900,,,,,0,522,,,,,,,,,,,,,,,,,Y,160,star,1,0,,,,,,,,,,,,,,,,switch,number,numSwt,k,1.08,noRew,,,,,,0,14,0,14,0,1,,,,,,,,,,,,,,,,,
296476,2022-11-14_23h21.00.418,vts_reward_expectancy_bt,2022.2.4,MacIntel,60.0024001,Chrome,1440,900,,,,,0,522,,,,,,,,,,,,,,,,,F,132,hexagon,1,0,,,,,,,,,,,,,,,,switch,letter,lettSwt,d,0.8141,noRew,,,,,,0,15,0,15,0,1,,,,,,,,,,,,,,,,,
296476,2022-11-14_23h21.00.418,vts_reward_expectancy_bt,2022.2.4,MacIntel,60.0024001,Chrome,1440,900,,,,,0,522,,,,,,,,,,,,,,,,,S,160,circle,1,0,,,,,,,,,,,,,,,,repeat,letter,lettRpt,f,0.6176,noRew,,,,,,0,16,0,16,0,1,,,,,,,,,,,,,,,,,
296476,2022-11-14_23h21.00.418,vts_reward_expectancy_bt,2022.2.4,MacIntel,60.0024001,Chrome,1440,900,,,,,0,522,,,,,,,,,,,,,,,,,D,146,hexagon,1,0,,,,,,,,,,,,,,,,repeat,letter,lettRpt,d,0.8341,noRew,,,,,,0,17,0,17,0,1,,,,,,,,,,,,,,,,,
296476,2022-11-14_23h21.00.418,vts_reward_expectancy_bt,2022.2.4,MacIntel,60.0024001,Chrome,1440,900,,,,,0,522,,,,,,,,,,,,,,,,,F,125,star,1,0,,,,,,,,,,,,,,,,repeat,letter,lettRpt,d,0.8448,noRew,,,,,,0,18,0,18,0,1,,,,,,,,,,,,,,,,,
296476,2022-11-14_23h21.00.418,vts_reward_expectancy_bt,2022.2.4,MacIntel,60.0024001,Chrome,1440,900,,,,,0,522,,,,,,,,,,,,,,,,,H,174,triangle,1,0,,,,,,,,,,,,,,,,switch,number,numSwt,k,1.0476,noRew,,,,,,0,19,0,19,0,1,,,,,,,,,,,,,,,,,
296476,2022-11-14_23h21.00.418,vts_reward_expectancy_bt,2022.2.4,MacIntel,60.0024001,Chrome,1440,900,,,,,0,522,,,,,,,,,,,,,,,,,B,167,triangle,1,0,,,,,,,,,,,,,,,,repeat,number,numRpt,k,0.8799,noRew,,,,,,0,20,0,20,0,1,,,,,,,,,,,,,,,,,
296476,2022-11-14_23h21.00.418,vts_reward_expectancy_bt,2022.2.4,MacIntel,60.0024001,Chrome,1440,900,,,,,0,522,,,,,,,,,,,,,,,,,Y,181,star,1,0,,,,,,,,,,,,,,,,repeat,number,numRpt,k,0.7316,noRew,,,,,,0,21,0,21,0,1,,,,,,,,,,,,,,,,,
296476,2022-11-14_23h21.00.418,vts_reward_expectancy_bt,2022.2.4,MacIntel,60.0024001,Chrome,1440,900,,,,,0,522,,,,,,,,,,,,,,,,,D,160,hexagon,1,0,,,,,,,,,,,,,,,,switch,letter,lettSwt,d,1.0811,noRew,,,,,,0,22,0,22,0,1,,,,,,,,,,,,,,,,,
296476,2022-11-14_23h21.00.418,vts_reward_expectancy_bt,2022.2.4,MacIntel,60.0024001,Chrome,1440,900,,,,,0,522,,,,,,,,,,,,,,,,,U,174,circle,1,0,,,,,,,,,,,,,,,,repeat,letter,lettRpt,f,0.7879,noRew,,,,,,0,23,0,23,0,1,,,,,,,,,,,,,,,,,
296476,2022-11-14_23h21.00.418,vts_reward_expectancy_bt,2022.2.4,MacIntel,60.0024001,Chrome,1440,900,,,,,0,522,,,,,,,,,,,,,,,,,F,139,circle,1,0,,,,,,,,,,,,,,,,repeat,letter,lettRpt,d,1.6115,noRew,,,,,,0,24,0,24,0,1,,,,,,,,,,,,,,,,,
296476,2022-11-14_23h21.00.418,vts_reward_expectancy_bt,2022.2.4,MacIntel,60.0024001,Chrome,1440,900,,,,,0,522,,,,,,,,,,,,,,,,,Y,160,hexagon,1,0,,,,,,,,,,,,,,,,repeat,letter,lettRpt,f,0.8629,noRew,,,,,,0,25,0,25,0,1,,,,,,,,,,,,,,,,,
296476,2022-11-14_23h21.00.418,vts_reward_expectancy_bt,2022.2.4,MacIntel,60.0024001,Chrome,1440,900,,,,,0,522,,,,,,,,,,,,,,,,,W,132,star,0,0,,,,,,,,,,,,,,,,repeat,letter,NA,d,1.7705,noRew,,,,,,0,26,0,26,0,1,,,,,,,,,,,,,,,,,
296476,2022-11-14_23h21.00.418,vts_reward_expectancy_bt,2022.2.4,MacIntel,60.0024001,Chrome,1440,900,,,,,0,522,,,,,,,,,,,,,,,,,H,125,hexagon,1,1,,,,,,,,,,,,,,,,repeat,letter,lettRpt,d,0.93,noRew,,,,,,0,27,0,27,0,1,,,,,,,,,,,,,,,,,
296476,2022-11-14_23h21.00.418,vts_reward_expectancy_bt,2022.2.4,MacIntel,60.0024001,Chrome,1440,900,,,,,0,522,,,,,,,,,,,,,,,,,S,167,star,1,0,,,,,,,,,,,,,,,,repeat,letter,lettRpt,f,0.8018,noRew,,,,,,0,28,0,28,0,1,,,,,,,,,,,,,,,,,
296476,2022-11-14_23h21.00.418,vts_reward_expectancy_bt,2022.2.4,MacIntel,60.0024001,Chrome,1440,900,,,,,0,522,,,,,,,,,,,,,,,,,H,160,hexagon,1,0,,,,,,,,,,,,,,,,switch,number,numSwt,k,0.827,noRew,,,,,,0,29,0,29,0,1,,,,,,,,,,,,,,,,,
296476,2022-11-14_23h21.00.418,vts_reward_expectancy_bt,2022.2.4,MacIntel,60.0024001,Chrome,1440,900,,,,,0,522,,,,,,,,,,,,,,,,,U,174,hexagon,1,0,,,,,,,,,,,,,,,,repeat,number,numRpt,k,0.6978,noRew,,,,,,0,30,0,30,0,1,,,,,,,,,,,,,,,,,
296476,2022-11-14_23h21.00.418,vts_reward_expectancy_bt,2022.2.4,MacIntel,60.0024001,Chrome,1440,900,,,,,0,522,,,,,,,,,,,,,,,,,F,125,triangle,1,0,,,,,,,,,,,,,,,,repeat,number,numRpt,j,1.0115,noRew,,,,,,0,31,0,31,0,1,,,,,,,,,,,,,,,,,
296476,2022-11-14_23h21.00.418,vts_reward_expectancy_bt,2022.2.4,MacIntel,60.0024001,Chrome,1440,900,,,,,0,522,,,,,,,,,,,,,,,,,H,181,circle,1,0,,,,,,,,,,,,,,,,switch,letter,lettSwt,d,1.1515,noRew,,,,,,0,32,0,32,0,1,,,,,,,,,,,,,,,,,
296476,2022-11-14_23h21.00.418,vts_reward_expectancy_bt,2022.2.4,MacIntel,60.0024001,Chrome,1440,900,,,,,0,522,,,,,,,,,,,,,,,,,B,160,star,1,0,,,,,,,,,,,,,,,,repeat,letter,lettRpt,d,0.6112,noRew,,,,,,0,33,0,33,0,1,,,,,,,,,,,,,,,,,
296476,2022-11-14_23h21.00.418,vts_reward_expectancy_bt,2022.2.4,MacIntel,60.0024001,Chrome,1440,900,,,,,0,522,,,,,,,,,,,,,,,,,F,139,triangle,1,0,,,,,,,,,,,,,,,,switch,number,numSwt,j,0.7174,noRew,,,,,,0,34,0,34,0,1,,,,,,,,,,,,,,,,,
296476,2022-11-14_23h21.00.418,vts_reward_expectancy_bt,2022.2.4,MacIntel,60.0024001,Chrome,1440,900,,,,,0,522,,,,,,,,,,,,,,,,,W,174,hexagon,1,0,,,,,,,,,,,,,,,,repeat,number,numRpt,k,1.0611,noRew,,,,,,0,35,0,35,0,1,,,,,,,,,,,,,,,,,
296476,2022-11-14_23h21.00.418,vts_reward_expectancy_bt,2022.2.4,MacIntel,60.0024001,Chrome,1440,900,,,,,0,522,,,,,,,,,,,,,,,,,Y,181,hexagon,1,0,,,,,,,,,,,,,,,,repeat,number,numRpt,k,0.8622,noRew,,,,,,0,36,0,36,0,1,,,,,,,,,,,,,,,,,
296476,2022-11-14_23h21.00.418,vts_reward_expectancy_bt,2022.2.4,MacIntel,60.0024001,Chrome,1440,900,,,,,0,522,,,,,,,,,,,,,,,,,B,125,triangle,1,0,,,,,,,,,,,,,,,,repeat,number,numRpt,j,0.8613,noRew,,,,,,0,37,0,37,0,1,,,,,,,,,,,,,,,,,
296476,2022-11-14_23h21.00.418,vts_reward_expectancy_bt,2022.2.4,MacIntel,60.0024001,Chrome,1440,900,,,,,0,522,,,,,,,,,,,,,,,,,W,139,hexagon,1,0,,,,,,,,,,,,,,,,switch,letter,lettSwt,f,0.616,noRew,,,,,,0,38,0,38,0,1,,,,,,,,,,,,,,,,,
296476,2022-11-14_23h21.00.418,vts_reward_expectancy_bt,2022.2.4,MacIntel,60.0024001,Chrome,1440,900,,,,,0,522,,,,,,,,,,,,,,,,,S,174,triangle,1,0,,,,,,,,,,,,,,,,switch,number,numSwt,k,1.3635,noRew,,,,,,0,39,0,39,0,1,,,,,,,,,,,,,,,,,
296476,2022-11-14_23h21.00.418,vts_reward_expectancy_bt,2022.2.4,MacIntel,60.0024001,Chrome,1440,900,,,,,0,522,,,,,,,,,,,,,,,,,F,139,triangle,1,0,,,,,,,,,,,,,,,,switch,letter,lettSwt,d,2.3125,noRew,,,,,,0,40,0,40,0,1,,,,,,,,,,,,,,,,,
296476,2022-11-14_23h21.00.418,vts_reward_expectancy_bt,2022.2.4,MacIntel,60.0024001,Chrome,1440,900,,,,,0,522,,,,,,,,,,,,,,,,,S,167,hexagon,1,0,,,,,,,,,,,,,,,,repeat,letter,lettRpt,f,0.7024,noRew,,,,,,0,41,0,41,0,1,,,,,,,,,,,,,,,,,
296476,2022-11-14_23h21.00.418,vts_reward_expectancy_bt,2022.2.4,MacIntel,60.0024001,Chrome,1440,900,,,,,0,522,,,,,,,,,,,,,,,,,B,146,triangle,1,0,,,,,,,,,,,,,,,,repeat,letter,lettRpt,d,0.7136,noRew,,,,,,0,42,0,42,0,1,,,,,,,,,,,,,,,,,
296476,2022-11-14_23h21.00.418,vts_reward_expectancy_bt,2022.2.4,MacIntel,60.0024001,Chrome,1440,900,,,,,0,522,,,,,,,,,,,,,,,,,W,125,star,1,0,,,,,,,,,,,,,,,,switch,number,numSwt,j,0.6143,noRew,,,,,,0,43,0,43,0,1,,,,,,,,,,,,,,,,,
296476,2022-11-14_23h21.00.418,vts_reward_expectancy_bt,2022.2.4,MacIntel,60.0024001,Chrome,1440,900,,,,,0,522,,,,,,,,,,,,,,,,,S,132,triangle,1,0,,,,,,,,,,,,,,,,switch,letter,lettSwt,f,1.4653,noRew,,,,,,0,44,0,44,0,1,,,,,,,,,,,,,,,,,
296476,2022-11-14_23h21.00.418,vts_reward_expectancy_bt,2022.2.4,MacIntel,60.0024001,Chrome,1440,900,,,,,0,522,,,,,,,,,,,,,,,,,W,146,circle,1,0,,,,,,,,,,,,,,,,switch,number,numSwt,j,1.0315,noRew,,,,,,0,45,0,45,0,1,,,,,,,,,,,,,,,,,
296476,2022-11-14_23h21.00.418,vts_reward_expectancy_bt,2022.2.4,MacIntel,60.0024001,Chrome,1440,900,,,,,0,522,,,,,,,,,,,,,,,,,D,139,hexagon,1,0,,,,,,,,,,,,,,,,repeat,number,numRpt,j,0.7968,noRew,,,,,,0,46,0,46,0,1,,,,,,,,,,,,,,,,,
296476,2022-11-14_23h21.00.418,vts_reward_expectancy_bt,2022.2.4,MacIntel,60.0024001,Chrome,1440,900,,,,,0,522,,,,,,,,,,,,,,,,,B,125,triangle,1,0,,,,,,,,,,,,,,,,repeat,number,numRpt,j,0.9864,noRew,,,,,,0,47,0,47,0,1,,,,,,,,,,,,,,,,,
296476,2022-11-14_23h21.00.418,vts_reward_expectancy_bt,2022.2.4,MacIntel,60.0024001,Chrome,1440,900,,,,,0,522,,,,,,,,,,,,,,,,,Y,125,circle,1,0,,,,,,,,,,,,,,,,repeat,number,numRpt,j,0.8498,noRew,,,,,,0,48,0,48,0,1,,,,,,,,,,,,,,,,,
296476,2022-11-14_23h21.00.418,vts_reward_expectancy_bt,2022.2.4,MacIntel,60.0024001,Chrome,1440,900,,,,,0,522,,,,,,,,,,,,,,,,,H,167,hexagon,1,0,,,,,,,,,,,,,,,,repeat,number,numRpt,k,1.7518,noRew,,,,,,0,49,0,49,0,1,,,,,,,,,,,,,,,,,
296476,2022-11-14_23h21.00.418,vts_reward_expectancy_bt,2022.2.4,MacIntel,60.0024001,Chrome,1440,900,,,,,0,522,,,,,,,,,,,,,,,,,B,174,triangle,1,0,,,,,,,,,,,,,,,,repeat,number,numRpt,k,1.0644,noRew,,,,,,0,50,0,50,0,1,,,,,,,,,,,,,,,,,
296476,2022-11-14_23h21.00.418,vts_reward_expectancy_bt,2022.2.4,MacIntel,60.0024001,Chrome,1440,900,,,,,0,522,,,,,,,,,,,,,,,,,F,132,circle,1,0,,,,,,,,,,,,,,,,switch,letter,lettSwt,d,0.7472,noRew,,,,,,0,51,0,51,0,1,,,,,,,,,,,,,,,,,
296476,2022-11-14_23h21.00.418,vts_reward_expectancy_bt,2022.2.4,MacIntel,60.0024001,Chrome,1440,900,,,,,0,522,,,,,,,,,,,,,,,,,F,181,triangle,1,0,,,,,,,,,,,,,,,,repeat,letter,lettRpt,d,1.401,noRew,,,,,,0,52,0,52,0,1,,,,,,,,,,,,,,,,,
296476,2022-11-14_23h21.00.418,vts_reward_expectancy_bt,2022.2.4,MacIntel,60.0024001,Chrome,1440,900,,,,,0,522,,,,,,,,,,,,,,,,,S,139,star,1,0,,,,,,,,,,,,,,,,repeat,letter,lettRpt,f,1.2007,noRew,,,,,,0,53,0,53,0,1,,,,,,,,,,,,,,,,,
296476,2022-11-14_23h21.00.418,vts_reward_expectancy_bt,2022.2.4,MacIntel,60.0024001,Chrome,1440,900,,,,,0,522,,,,,,,,,,,,,,,,,W,125,star,1,0,,,,,,,,,,,,,,,,repeat,letter,lettRpt,f,0.8452,noRew,,,,,,0,54,0,54,0,1,,,,,,,,,,,,,,,,,
296476,2022-11-14_23h21.00.418,vts_reward_expectancy_bt,2022.2.4,MacIntel,60.0024001,Chrome,1440,900,,,,,0,522,,,,,,,,,,,,,,,,,H,146,circle,1,0,,,,,,,,,,,,,,,,repeat,letter,lettRpt,d,0.7964,noRew,,,,,,0,55,0,55,0,1,,,,,,,,,,,,,,,,,
296476,2022-11-14_23h21.00.418,vts_reward_expectancy_bt,2022.2.4,MacIntel,60.0024001,Chrome,1440,900,,,,,0,522,,,,,,,,,,,,,,,,,U,139,star,1,0,,,,,,,,,,,,,,,,repeat,letter,lettRpt,f,1.3979,noRew,,,,,,0,56,0,56,0,1,,,,,,,,,,,,,,,,,
296476,2022-11-14_23h21.00.418,vts_reward_expectancy_bt,2022.2.4,MacIntel,60.0024001,Chrome,1440,900,,,,,0,522,,,,,,,,,,,,,,,,,F,132,hexagon,1,0,,,,,,,,,,,,,,,,switch,number,numSwt,j,1.0966,noRew,,,,,,0,57,0,57,0,1,,,,,,,,,,,,,,,,,
296476,2022-11-14_23h21.00.418,vts_reward_expectancy_bt,2022.2.4,MacIntel,60.0024001,Chrome,1440,900,,,,,0,522,,,,,,,,,,,,,,,,,D,181,hexagon,1,0,,,,,,,,,,,,,,,,repeat,number,numRpt,k,0.813,noRew,,,,,,0,58,0,58,0,1,,,,,,,,,,,,,,,,,
296476,2022-11-14_23h21.00.418,vts_reward_expectancy_bt,2022.2.4,MacIntel,60.0024001,Chrome,1440,900,,,,,0,522,,,,,,,,,,,,,,,,,B,174,circle,1,0,,,,,,,,,,,,,,,,repeat,number,numRpt,k,1.0817,noRew,,,,,,0,59,0,59,0,1,,,,,,,,,,,,,,,,,
296476,2022-11-14_23h21.00.418,vts_reward_expectancy_bt,2022.2.4,MacIntel,60.0024001,Chrome,1440,900,,,,,0,522,,,,,,,,,,,,,,,,,B,146,star,1,0,,,,,,,,,,,,,,,,repeat,number,numRpt,j,1.1323,noRew,,,,,,0,60,0,60,0,1,,,,,,,,,,,,,,,,,
296476,2022-11-14_23h21.00.418,vts_reward_expectancy_bt,2022.2.4,MacIntel,60.0024001,Chrome,1440,900,,,,,0,522,,,,,,,,,,,,,,,,,H,167,hexagon,1,0,,,,,,,,,,,,,,,,switch,letter,lettSwt,d,1.1872,noRew,,,,,,0,61,0,61,0,1,,,,,,,,,,,,,,,,,
296476,2022-11-14_23h21.00.418,vts_reward_expectancy_bt,2022.2.4,MacIntel,60.0024001,Chrome,1440,900,,,,,0,522,,,,,,,,,,,,,,,,,Y,125,star,1,0,,,,,,,,,,,,,,,,repeat,letter,lettRpt,f,1.2792,noRew,,,,,,0,62,0,62,0,1,,,,,,,,,,,,,,,,,
296476,2022-11-14_23h21.00.418,vts_reward_expectancy_bt,2022.2.4,MacIntel,60.0024001,Chrome,1440,900,,,,,0,522,,,,,,,,,,,,,,,,,S,174,hexagon,1,0,,,,,,,,,,,,,,,,repeat,letter,lettRpt,f,0.9608,noRew,,,,,,0,63,0,63,0,1,,,,,,,,,,,,,,,,,
296476,2022-11-14_23h21.00.418,vts_reward_expectancy_bt,2022.2.4,MacIntel,60.0024001,Chrome,1440,900,,,,,,,,,,,,,,,,,,,,,,,,,,,,,,,,,,,,,,,,,,,,,,,,,,,,,,,,,,,,,,,,,,,,,,,,,,,,
296476,2022-11-14_23h21.00.418,vts_reward_expectancy_bt,2022.2.4,MacIntel,60.0024001,Chrome,1440,900,,,,,10,532,,,,,,,,,,,,,,,,,Y,181,circle,1,0,,,,,,,,,,,,,,,,repeat,letter,lettRpt,f,0.9548,Lo,,,,,,0,,,,,,space,17.5684,low,0,0,0,0,1,,,,,,,,,
296476,2022-11-14_23h21.00.418,vts_reward_expectancy_bt,2022.2.4,MacIntel,60.0024001,Chrome,1440,900,,,,,0,532,,,,,,,,,,,,,,,,,U,125,triangle,1,0,,,,,,,,,,,,,,,,repeat,letter,lettRpt,f,1.1892,Hi,,,,,,0,,,,,,,,low,1,0,1,0,1,,,,,,,,,
296476,2022-11-14_23h21.00.418,vts_reward_expectancy_bt,2022.2.4,MacIntel,60.0024001,Chrome,1440,900,,,,,1,533,,,,,,,,,,,,,,,,,S,132,hexagon,1,0,,,,,,,,,,,,,,,,switch,number,numSwt,j,0.5623,Hi,,,,,,0,,,,,,,,low,2,0,2,0,1,,,,,,,,,
296476,2022-11-14_23h21.00.418,vts_reward_expectancy_bt,2022.2.4,MacIntel,60.0024001,Chrome,1440,900,,,,,0,533,,,,,,,,,,,,,,,,,B,174,star,0,0,,,,,,,,,,,,,,,,switch,letter,NA,f,0.6975,Hi,,,,,,0,,,,,,,,low,3,0,3,0,1,,,,,,,,,
296476,2022-11-14_23h21.00.418,vts_reward_expectancy_bt,2022.2.4,MacIntel,60.0024001,Chrome,1440,900,,,,,10,543,,,,,,,,,,,,,,,,,F,167,circle,1,1,,,,,,,,,,,,,,,,switch,number,numSwt,k,0.4632,Lo,,,,,,0,,,,,,,,low,4,0,4,0,1,,,,,,,,,
296476,2022-11-14_23h21.00.418,vts_reward_expectancy_bt,2022.2.4,MacIntel,60.0024001,Chrome,1440,900,,,,,10,553,,,,,,,,,,,,,,,,,H,139,triangle,1,0,,,,,,,,,,,,,,,,switch,letter,lettSwt,d,0.698,Hi,,,,,,0,,,,,,,,low,5,0,5,0,1,,,,,,,,,
296476,2022-11-14_23h21.00.418,vts_reward_expectancy_bt,2022.2.4,MacIntel,60.0024001,Chrome,1440,900,,,,,1,554,,,,,,,,,,,,,,,,,D,160,hexagon,1,0,,,,,,,,,,,,,,,,repeat,letter,lettRpt,d,0.68,Hi,,,,,,0,,,,,,,,low,6,0,6,0,1,,,,,,,,,
296476,2022-11-14_23h21.00.418,vts_reward_expectancy_bt,2022.2.4,MacIntel,60.0024001,Chrome,1440,900,,,,,1,555,,,,,,,,,,,,,,,,,W,146,star,1,0,,,,,,,,,,,,,,,,switch,number,numSwt,j,0.5152,Lo,,,,,,0,,,,,,,,low,7,0,7,0,1,,,,,,,,,
296476,2022-11-14_23h21.00.418,vts_reward_expectancy_bt,2022.2.4,MacIntel,60.0024001,Chrome,1440,900,,,,,0,555,,,,,,,,,,,,,,,,,Y,181,triangle,0,0,,,,,,,,,,,,,,,,repeat,number,NA,j,0.5297,Lo,,,,,,0,,,,,,,,low,8,0,8,0,1,,,,,,,,,
296476,2022-11-14_23h21.00.418,vts_reward_expectancy_bt,2022.2.4,MacIntel,60.0024001,Chrome,1440,900,,,,,0,555,,,,,,,,,,,,,,,,,U,125,circle,0,1,,,,,,,,,,,,,,,,repeat,number,NA,k,0.5175,Lo,,,,,,0,,,,,,,,low,9,0,9,0,1,,,,,,,,,
296476,2022-11-14_23h21.00.418,vts_reward_expectancy_bt,2022.2.4,MacIntel,60.0024001,Chrome,1440,900,,,,,1,556,,,,,,,,,,,,,,,,,S,132,hexagon,1,1,,,,,,,,,,,,,,,,repeat,number,numRpt,j,0.4301,Hi,,,,,,0,,,,,,,,low,10,0,10,0,1,,,,,,,,,
296476,2022-11-14_23h21.00.418,vts_reward_expectancy_bt,2022.2.4,MacIntel,60.0024001,Chrome,1440,900,,,,,10,566,,,,,,,,,,,,,,,,,B,174,star,1,0,,,,,,,,,,,,,,,,switch,letter,lettSwt,d,0.5323,Lo,,,,,,0,,,,,,,,low,11,0,11,0,1,,,,,,,,,
296476,2022-11-14_23h21.00.418,vts_reward_expectancy_bt,2022.2.4,MacIntel,60.0024001,Chrome,1440,900,,,,,10,576,,,,,,,,,,,,,,,,,F,167,hexagon,1,0,,,,,,,,,,,,,,,,repeat,letter,lettRpt,d,0.6325,Hi,,,,,,0,,,,,,,,low,12,0,12,0,1,,,,,,,,,
296476,2022-11-14_23h21.00.418,vts_reward_expectancy_bt,2022.2.4,MacIntel,60.0024001,Chrome,1440,900,,,,,10,586,,,,,,,,,,,,,,,,,H,139,triangle,1,0,,,,,,,,,,,,,,,,repeat,letter,lettRpt,d,0.5983,Hi,,,,,,0,,,,,,,,low,13,0,13,0,1,,,,,,,,,
296476,2022-11-14_23h21.00.418,vts_reward_expectancy_bt,2022.2.4,MacIntel,60.0024001,Chrome,1440,900,,,,,1,587,,,,,,,,,,,,,,,,,D,160,circle,1,0,,,,,,,,,,,,,,,,repeat,letter,lettRpt,d,0.4977,Lo,,,,,,0,,,,,,,,low,14,0,14,0,1,,,,,,,,,
296476,2022-11-14_23h21.00.418,vts_reward_expectancy_bt,2022.2.4,MacIntel,60.0024001,Chrome,1440,900,,,,,10,597,,,,,,,,,,,,,,,,,W,146,star,1,0,,,,,,,,,,,,,,,,switch,number,numSwt,j,0.5141,Lo,,,,,,0,,,,,,,,low,15,0,15,0,1,,,,,,,,,
296476,2022-11-14_23h21.00.418,vts_reward_expectancy_bt,2022.2.4,MacIntel,60.0024001,Chrome,1440,900,,,,,10,607,,,,,,,,,,,,,,,,,F,132,hexagon,1,0,,,,,,,,,,,,,,,,repeat,number,numRpt,j,0.4646,Hi,,,,,,0,,,,,,,,low,16,0,16,0,1,,,,,,,,,
296476,2022-11-14_23h21.00.418,vts_reward_expectancy_bt,2022.2.4,MacIntel,60.0024001,Chrome,1440,900,,,,,0,607,,,,,,,,,,,,,,,,,U,181,triangle,0,0,,,,,,,,,,,,,,,,repeat,number,NA,j,0.4638,Hi,,,,,,0,,,,,,,,low,17,0,17,0,1,,,,,,,,,
296476,2022-11-14_23h21.00.418,vts_reward_expectancy_bt,2022.2.4,MacIntel,60.0024001,Chrome,1440,900,,,,,1,608,,,,,,,,,,,,,,,,,H,160,star,1,1,,,,,,,,,,,,,,,,repeat,number,numRpt,k,0.5804,Lo,,,,,,0,,,,,,,,low,18,0,18,0,1,,,,,,,,,
296476,2022-11-14_23h21.00.418,vts_reward_expectancy_bt,2022.2.4,MacIntel,60.0024001,Chrome,1440,900,,,,,10,618,,,,,,,,,,,,,,,,,D,167,circle,1,0,,,,,,,,,,,,,,,,switch,letter,lettSwt,d,0.5561,Lo,,,,,,0,,,,,,,,low,19,0,19,0,1,,,,,,,,,
296476,2022-11-14_23h21.00.418,vts_reward_expectancy_bt,2022.2.4,MacIntel,60.0024001,Chrome,1440,900,,,,,1,619,,,,,,,,,,,,,,,,,B,139,star,1,0,,,,,,,,,,,,,,,,repeat,letter,lettRpt,d,0.5716,Lo,,,,,,0,,,,,,,,low,20,0,20,0,1,,,,,,,,,
296476,2022-11-14_23h21.00.418,vts_reward_expectancy_bt,2022.2.4,MacIntel,60.0024001,Chrome,1440,900,,,,,10,629,,,,,,,,,,,,,,,,,S,146,hexagon,1,0,,,,,,,,,,,,,,,,switch,number,numSwt,j,0.5167,Hi,,,,,,0,,,,,,,,low,21,0,21,0,1,,,,,,,,,
296476,2022-11-14_23h21.00.418,vts_reward_expectancy_bt,2022.2.4,MacIntel,60.0024001,Chrome,1440,900,,,,,1,630,,,,,,,,,,,,,,,,,Y,174,circle,1,0,,,,,,,,,,,,,,,,switch,letter,lettSwt,f,1.5025,Lo,,,,,,0,,,,,,,,low,22,0,22,0,1,,,,,,,,,
296476,2022-11-14_23h21.00.418,vts_reward_expectancy_bt,2022.2.4,MacIntel,60.0024001,Chrome,1440,900,,,,,10,640,,,,,,,,,,,,,,,,,W,125,triangle,1,0,,,,,,,,,,,,,,,,repeat,letter,lettRpt,f,0.6163,Hi,,,,,,0,,,,,,,,low,23,0,23,0,1,,,,,,,,,
296476,2022-11-14_23h21.00.418,vts_reward_expectancy_bt,2022.2.4,MacIntel,60.0024001,Chrome,1440,900,,,,,1,641,,,,,,,,,,,,,,,,,B,181,hexagon,1,0,,,,,,,,,,,,,,,,repeat,letter,lettRpt,d,0.6787,Hi,,,,,,0,,,,,,,,low,24,0,24,0,1,,,,,,,,,
296476,2022-11-14_23h21.00.418,vts_reward_expectancy_bt,2022.2.4,MacIntel,60.0024001,Chrome,1440,900,,,,,1,642,,,,,,,,,,,,,,,,,F,132,circle,1,0,,,,,,,,,,,,,,,,switch,number,numSwt,j,0.4363,Lo,,,,,,0,,,,,,,,low,25,0,25,0,1,,,,,,,,,
296476,2022-11-14_23h21.00.418,vts_reward_expectancy_bt,2022.2.4,MacIntel,60.0024001,Chrome,1440,900,,,,,10,652,,,,,,,,,,,,,,,,,S,167,star,1,0,,,,,,,,,,,,,,,,switch,letter,lettSwt,f,0.8608,Lo,,,,,,0,,,,,,,,low,26,0,26,0,1,,,,,,,,,
296476,2022-11-14_23h21.00.418,vts_reward_expectancy_bt,2022.2.4,MacIntel,60.0024001,Chrome,1440,900,,,,,10,662,,,,,,,,,,,,,,,,,Y,174,triangle,1,0,,,,,,,,,,,,,,,,switch,number,numSwt,k,0.7463,Hi,,,,,,0,,,,,,,,low,27,0,27,0,1,,,,,,,,,
296476,2022-11-14_23h21.00.418,vts_reward_expectancy_bt,2022.2.4,MacIntel,60.0024001,Chrome,1440,900,,,,,1,663,,,,,,,,,,,,,,,,,U,146,triangle,1,0,,,,,,,,,,,,,,,,switch,letter,lettSwt,f,0.6804,Hi,,,,,,0,,,,,,,,low,28,0,28,0,1,,,,,,,,,
296476,2022-11-14_23h21.00.418,vts_reward_expectancy_bt,2022.2.4,MacIntel,60.0024001,Chrome,1440,900,,,,,1,664,,,,,,,,,,,,,,,,,H,139,hexagon,1,0,,,,,,,,,,,,,,,,switch,number,numSwt,j,0.6632,Hi,,,,,,0,,,,,,,,low,29,0,29,0,1,,,,,,,,,
296476,2022-11-14_23h21.00.418,vts_reward_expectancy_bt,2022.2.4,MacIntel,60.0024001,Chrome,1440,900,,,,,0,664,,,,,,,,,,,,,,,,,D,125,circle,0,0,,,,,,,,,,,,,,,,repeat,number,NA,k,1.28,Hi,,,,,,0,,,,,,,,low,30,0,30,0,1,,,,,,,,,
296476,2022-11-14_23h21.00.418,vts_reward_expectancy_bt,2022.2.4,MacIntel,60.0024001,Chrome,1440,900,,,,,10,674,,,,,,,,,,,,,,,,,W,160,star,1,1,,,,,,,,,,,,,,,,repeat,number,numRpt,k,0.7131,Lo,,,,,,0,,,,,,,,low,31,0,31,0,1,,,,,,,,,
296476,2022-11-14_23h21.00.418,vts_reward_expectancy_bt,2022.2.4,MacIntel,60.0024001,Chrome,1440,900,,,,,0,674,,,,,,,,,,,,,,,,,S,125,circle,0,0,,,,,,,,,,,,,,,,switch,letter,NA,d,0.9343,Lo,,,,,,1,,,,,,space,8.1556,low,0,0,0,0,1,,,,,,,,,
296476,2022-11-14_23h21.00.418,vts_reward_expectancy_bt,2022.2.4,MacIntel,60.0024001,Chrome,1440,900,,,,,1,675,,,,,,,,,,,,,,,,,W,146,star,1,1,,,,,,,,,,,,,,,,repeat,letter,lettRpt,f,1.1814,Lo,,,,,,1,,,,,,,,low,1,0,1,0,1,,,,,,,,,
296476,2022-11-14_23h21.00.418,vts_reward_expectancy_bt,2022.2.4,MacIntel,60.0024001,Chrome,1440,900,,,,,0,675,,,,,,,,,,,,,,,,,F,181,triangle,1,0,,,,,,,,,,,,,,,,repeat,letter,lettRpt,d,0.8338,Hi,,,,,,1,,,,,,,,low,2,0,2,0,1,,,,,,,,,
296476,2022-11-14_23h21.00.418,vts_reward_expectancy_bt,2022.2.4,MacIntel,60.0024001,Chrome,1440,900,,,,,0,675,,,,,,,,,,,,,,,,,H,160,hexagon,0,0,,,,,,,,,,,,,,,,switch,number,NA,j,0.5001,Hi,,,,,,1,,,,,,,,low,3,0,3,0,1,,,,,,,,,
296476,2022-11-14_23h21.00.418,vts_reward_expectancy_bt,2022.2.4,MacIntel,60.0024001,Chrome,1440,900,,,,,10,685,,,,,,,,,,,,,,,,,D,132,circle,1,1,,,,,,,,,,,,,,,,repeat,number,numRpt,j,0.415,Lo,,,,,,1,,,,,,,,low,4,0,4,0,1,,,,,,,,,
296476,2022-11-14_23h21.00.418,vts_reward_expectancy_bt,2022.2.4,MacIntel,60.0024001,Chrome,1440,900,,,,,1,686,,,,,,,,,,,,,,,,,B,167,star,1,0,,,,,,,,,,,,,,,,repeat,number,numRpt,k,0.7304,Lo,,,,,,1,,,,,,,,low,5,0,5,0,1,,,,,,,,,
296476,2022-11-14_23h21.00.418,vts_reward_expectancy_bt,2022.2.4,MacIntel,60.0024001,Chrome,1440,900,,,,,0,686,,,,,,,,,,,,,,,,,U,139,triangle,1,0,,,,,,,,,,,,,,,,switch,letter,lettSwt,f,0.9131,Hi,,,,,,1,,,,,,,,low,6,0,6,0,1,,,,,,,,,
296476,2022-11-14_23h21.00.418,vts_reward_expectancy_bt,2022.2.4,MacIntel,60.0024001,Chrome,1440,900,,,,,0,686,,,,,,,,,,,,,,,,,Y,174,hexagon,1,0,,,,,,,,,,,,,,,,repeat,letter,lettRpt,f,0.6203,Hi,,,,,,1,,,,,,,,low,7,0,7,0,1,,,,,,,,,
296476,2022-11-14_23h21.00.418,vts_reward_expectancy_bt,2022.2.4,MacIntel,60.0024001,Chrome,1440,900,,,,,0,686,,,,,,,,,,,,,,,,,S,125,triangle,1,0,,,,,,,,,,,,,,,,repeat,letter,lettRpt,f,1.1508,Hi,,,,,,1,,,,,,,,low,8,0,8,0,1,,,,,,,,,
296476,2022-11-14_23h21.00.418,vts_reward_expectancy_bt,2022.2.4,MacIntel,60.0024001,Chrome,1440,900,,,,,1,687,,,,,,,,,,,,,,,,,W,146,circle,1,0,,,,,,,,,,,,,,,,switch,number,numSwt,j,0.6051,Lo,,,,,,1,,,,,,,,low,9,0,9,0,1,,,,,,,,,
296476,2022-11-14_23h21.00.418,vts_reward_expectancy_bt,2022.2.4,MacIntel,60.0024001,Chrome,1440,900,,,,,10,697,,,,,,,,,,,,,,,,,F,181,hexagon,1,0,,,,,,,,,,,,,,,,switch,letter,lettSwt,d,0.3509,Hi,,,,,,1,,,,,,,,low,10,0,10,0,1,,,,,,,,,
296476,2022-11-14_23h21.00.418,vts_reward_expectancy_bt,2022.2.4,MacIntel,60.0024001,Chrome,1440,900,,,,,10,707,,,,,,,,,,,,,,,,,H,160,star,1,0,,,,,,,,,,,,,,,,repeat,letter,lettRpt,d,0.4624,Lo,,,,,,1,,,,,,,,low,11,0,11,0,1,,,,,,,,,
296476,2022-11-14_23h21.00.418,vts_reward_expectancy_bt,2022.2.4,MacIntel,60.0024001,Chrome,1440,900,,,,,0,707,,,,,,,,,,,,,,,,,D,132,star,0,0,,,,,,,,,,,,,,,,repeat,letter,NA,f,0.4017,Lo,,,,,,1,,,,,,,,low,12,0,12,0,1,,,,,,,,,
296476,2022-11-14_23h21.00.418,vts_reward_expectancy_bt,2022.2.4,MacIntel,60.0024001,Chrome,1440,900,,,,,1,708,,,,,,,,,,,,,,,,,B,167,circle,1,1,,,,,,,,,,,,,,,,repeat,letter,lettRpt,d,0.686,Lo,,,,,,1,,,,,,,,low,13,0,13,0,1,,,,,,,,,
296476,2022-11-14_23h21.00.418,vts_reward_expectancy_bt,2022.2.4,MacIntel,60.0024001,Chrome,1440,900,,,,,0,708,,,,,,,,,,,,,,,,,U,139,triangle,1,0,,,,,,,,,,,,,,,,switch,number,numSwt,j,0.5156,Hi,,,,,,1,,,,,,,,low,14,0,14,0,1,,,,,,,,,
296476,2022-11-14_23h21.00.418,vts_reward_expectancy_bt,2022.2.4,MacIntel,60.0024001,Chrome,1440,900,,,,,0,708,,,,,,,,,,,,,,,,,Y,174,hexagon,0,0,,,,,,,,,,,,,,,,repeat,number,NA,j,0.5952,Hi,,,,,,1,,,,,,,,low,15,0,15,0,1,,,,,,,,,
296476,2022-11-14_23h21.00.418,vts_reward_expectancy_bt,2022.2.4,MacIntel,60.0024001,Chrome,1440,900,,,,,0,708,,,,,,,,,,,,,,,,,Y,174,hexagon,0,1,,,,,,,,,,,,,,,,repeat,number,NA,j,0.7692,Hi,,,,,,1,,,,,,,,low,16,0,16,0,1,,,,,,,,,
296476,2022-11-14_23h21.00.418,vts_reward_expectancy_bt,2022.2.4,MacIntel,60.0024001,Chrome,1440,900,,,,,0,708,,,,,,,,,,,,,,,,,U,146,circle,0,1,,,,,,,,,,,,,,,,repeat,number,NA,k,0.5326,Hi,,,,,,1,,,,,,,,low,17,0,17,0,1,,,,,,,,,
296476,2022-11-14_23h21.00.418,vts_reward_expectancy_bt,2022.2.4,MacIntel,60.0024001,Chrome,1440,900,,,,,1,709,,,,,,,,,,,,,,,,,W,160,star,1,1,,,,,,,,,,,,,,,,repeat,number,numRpt,k,0.8475,Lo,,,,,,1,,,,,,,,low,18,0,18,0,1,,,,,,,,,
296476,2022-11-14_23h21.00.418,vts_reward_expectancy_bt,2022.2.4,MacIntel,60.0024001,Chrome,1440,900,,,,,0,709,,,,,,,,,,,,,,,,,S,132,triangle,1,0,,,,,,,,,,,,,,,,switch,letter,lettSwt,f,0.6994,Hi,,,,,,1,,,,,,,,low,19,0,19,0,1,,,,,,,,,
296476,2022-11-14_23h21.00.418,vts_reward_expectancy_bt,2022.2.4,MacIntel,60.0024001,Chrome,1440,900,,,,,0,709,,,,,,,,,,,,,,,,,B,167,circle,0,0,,,,,,,,,,,,,,,,repeat,letter,NA,f,0.6309,Hi,,,,,,1,,,,,,,,low,20,0,20,0,1,,,,,,,,,
296476,2022-11-14_23h21.00.418,vts_reward_expectancy_bt,2022.2.4,MacIntel,60.0024001,Chrome,1440,900,,,,,0,709,,,,,,,,,,,,,,,,,F,125,triangle,0,1,,,,,,,,,,,,,,,,repeat,letter,NA,f,0.6477,Hi,,,,,,1,,,,,,,,low,21,0,21,0,1,,,,,,,,,
296476,2022-11-14_23h21.00.418,vts_reward_expectancy_bt,2022.2.4,MacIntel,60.0024001,Chrome,1440,900,,,,,0,709,,,,,,,,,,,,,,,,,H,181,hexagon,1,1,,,,,,,,,,,,,,,,repeat,letter,lettRpt,d,0.6883,Hi,,,,,,1,,,,,,,,low,22,0,22,0,1,,,,,,,,,
296476,2022-11-14_23h21.00.418,vts_reward_expectancy_bt,2022.2.4,MacIntel,60.0024001,Chrome,1440,900,,,,,1,710,,,,,,,,,,,,,,,,,D,139,star,1,0,,,,,,,,,,,,,,,,repeat,letter,lettRpt,d,0.7092,Lo,,,,,,1,,,,,,,,low,23,0,23,0,1,,,,,,,,,
296476,2022-11-14_23h21.00.418,vts_reward_expectancy_bt,2022.2.4,MacIntel,60.0024001,Chrome,1440,900,,,,,0,710,,,,,,,,,,,,,,,,,B,174,hexagon,0,0,,,,,,,,,,,,,,,,switch,number,NA,j,0.4441,Lo,,,,,,1,,,,,,,,low,24,0,24,0,1,,,,,,,,,
296476,2022-11-14_23h21.00.418,vts_reward_expectancy_bt,2022.2.4,MacIntel,60.0024001,Chrome,1440,900,,,,,0,710,,,,,,,,,,,,,,,,,W,146,triangle,1,1,,,,,,,,,,,,,,,,repeat,number,numRpt,j,1.5754,Hi,,,,,,1,,,,,,,,low,25,0,25,0,1,,,,,,,,,
296476,2022-11-14_23h21.00.418,vts_reward_expectancy_bt,2022.2.4,MacIntel,60.0024001,Chrome,1440,900,,,,,1,711,,,,,,,,,,,,,,,,,Y,167,star,1,0,,,,,,,,,,,,,,,,repeat,number,numRpt,k,0.6524,Lo,,,,,,1,,,,,,,,low,26,0,26,0,1,,,,,,,,,
296476,2022-11-14_23h21.00.418,vts_reward_expectancy_bt,2022.2.4,MacIntel,60.0024001,Chrome,1440,900,,,,,1,712,,,,,,,,,,,,,,,,,H,139,circle,1,0,,,,,,,,,,,,,,,,repeat,number,numRpt,j,0.5604,Lo,,,,,,1,,,,,,,,low,27,0,27,0,1,,,,,,,,,
296476,2022-11-14_23h21.00.418,vts_reward_expectancy_bt,2022.2.4,MacIntel,60.0024001,Chrome,1440,900,,,,,0,712,,,,,,,,,,,,,,,,,S,160,hexagon,0,0,,,,,,,,,,,,,,,,switch,letter,NA,d,0.4361,Lo,,,,,,1,,,,,,,,low,28,0,28,0,1,,,,,,,,,
296476,2022-11-14_23h21.00.418,vts_reward_expectancy_bt,2022.2.4,MacIntel,60.0024001,Chrome,1440,900,,,,,0,712,,,,,,,,,,,,,,,,,D,132,star,0,1,,,,,,,,,,,,,,,,repeat,letter,NA,f,0.321,Lo,,,,,,1,,,,,,,,low,29,0,29,0,1,,,,,,,,,
296476,2022-11-14_23h21.00.418,vts_reward_expectancy_bt,2022.2.4,MacIntel,60.0024001,Chrome,1440,900,,,,,0,712,,,,,,,,,,,,,,,,,U,181,triangle,1,1,,,,,,,,,,,,,,,,repeat,letter,lettRpt,f,0.6391,Hi,,,,,,1,,,,,,,,low,30,0,30,0,1,,,,,,,,,
296476,2022-11-14_23h21.00.418,vts_reward_expectancy_bt,2022.2.4,MacIntel,60.0024001,Chrome,1440,900,,,,,1,713,,,,,,,,,,,,,,,,,F,125,circle,1,0,,,,,,,,,,,,,,,,repeat,letter,lettRpt,d,0.6144,Lo,,,,,,1,,,,,,,,low,31,0,31,0,1,,,,,,,,,
296476,2022-11-14_23h21.00.418,vts_reward_expectancy_bt,2022.2.4,MacIntel,60.0024001,Chrome,1440,900,,,,,1,714,,,,,,,,,,,,,,,,,B,146,circle,1,0,,,,,,,,,,,,,,,,repeat,letter,lettRpt,d,0.5293,Lo,,,,,,2,,,,,,space,4.1075,low,0,0,0,0,1,,,,,,,,,
296476,2022-11-14_23h21.00.418,vts_reward_expectancy_bt,2022.2.4,MacIntel,60.0024001,Chrome,1440,900,,,,,10,724,,,,,,,,,,,,,,,,,H,132,hexagon,1,0,,,,,,,,,,,,,,,,repeat,letter,lettRpt,d,0.6214,Hi,,,,,,2,,,,,,,,low,1,0,1,0,1,,,,,,,,,
296476,2022-11-14_23h21.00.418,vts_reward_expectancy_bt,2022.2.4,MacIntel,60.0024001,Chrome,1440,900,,,,,0,724,,,,,,,,,,,,,,,,,W,167,triangle,1,0,,,,,,,,,,,,,,,,repeat,letter,lettRpt,f,0.6467,Hi,,,,,,2,,,,,,,,low,2,0,2,0,1,,,,,,,,,
296476,2022-11-14_23h21.00.418,vts_reward_expectancy_bt,2022.2.4,MacIntel,60.0024001,Chrome,1440,900,,,,,0,724,,,,,,,,,,,,,,,,,D,139,star,0,0,,,,,,,,,,,,,,,,repeat,letter,NA,f,0.3711,Hi,,,,,,2,,,,,,,,low,3,0,3,0,1,,,,,,,,,
296476,2022-11-14_23h21.00.418,vts_reward_expectancy_bt,2022.2.4,MacIntel,60.0024001,Chrome,1440,900,,,,,10,734,,,,,,,,,,,,,,,,,F,160,circle,1,1,,,,,,,,,,,,,,,,repeat,letter,lettRpt,d,0.497,Lo,,,,,,2,,,,,,,,low,4,0,4,0,1,,,,,,,,,
296476,2022-11-14_23h21.00.418,vts_reward_expectancy_bt,2022.2.4,MacIntel,60.0024001,Chrome,1440,900,,,,,0,734,,,,,,,,,,,,,,,,,Y,181,hexagon,1,0,,,,,,,,,,,,,,,,repeat,letter,lettRpt,f,0.6804,Hi,,,,,,2,,,,,,,,low,5,0,5,0,1,,,,,,,,,
296476,2022-11-14_23h21.00.418,vts_reward_expectancy_bt,2022.2.4,MacIntel,60.0024001,Chrome,1440,900,,,,,0,734,,,,,,,,,,,,,,,,,U,125,triangle,1,0,,,,,,,,,,,,,,,,switch,number,numSwt,j,0.9491,Hi,,,,,,2,,,,,,,,low,6,0,6,0,1,,,,,,,,,
296476,2022-11-14_23h21.00.418,vts_reward_expectancy_bt,2022.2.4,MacIntel,60.0024001,Chrome,1440,900,,,,,10,744,,,,,,,,,,,,,,,,,S,174,star,1,0,,,,,,,,,,,,,,,,repeat,number,numRpt,k,0.6454,Lo,,,,,,2,,,,,,,,low,7,0,7,0,1,,,,,,,,,
296476,2022-11-14_23h21.00.418,vts_reward_expectancy_bt,2022.2.4,MacIntel,60.0024001,Chrome,1440,900,,,,,1,745,,,,,,,,,,,,,,,,,B,146,circle,1,0,,,,,,,,,,,,,,,,repeat,number,numRpt,j,0.404,Lo,,,,,,2,,,,,,,,low,8,0,8,0,1,,,,,,,,,
296476,2022-11-14_23h21.00.418,vts_reward_expectancy_bt,2022.2.4,MacIntel,60.0024001,Chrome,1440,900,,,,,1,746,,,,,,,,,,,,,,,,,H,132,star,1,0,,,,,,,,,,,,,,,,repeat,number,numRpt,j,0.6698,Lo,,,,,,2,,,,,,,,low,9,0,9,0,1,,,,,,,,,
296476,2022-11-14_23h21.00.418,vts_reward_expectancy_bt,2022.2.4,MacIntel,60.0024001,Chrome,1440,900,,,,,0,746,,,,,,,,,,,,,,,,,W,167,hexagon,1,0,,,,,,,,,,,,,,,,repeat,number,numRpt,k,0.6363,Hi,,,,,,2,,,,,,,,low,10,0,10,0,1,,,,,,,,,
296476,2022-11-14_23h21.00.418,vts_reward_expectancy_bt,2022.2.4,MacIntel,60.0024001,Chrome,1440,900,,,,,10,756,,,,,,,,,,,,,,,,,D,139,triangle,1,0,,,,,,,,,,,,,,,,repeat,number,numRpt,j,0.5312,Hi,,,,,,2,,,,,,,,low,11,0,11,0,1,,,,,,,,,
296476,2022-11-14_23h21.00.418,vts_reward_expectancy_bt,2022.2.4,MacIntel,60.0024001,Chrome,1440,900,,,,,0,756,,,,,,,,,,,,,,,,,F,160,hexagon,0,0,,,,,,,,,,,,,,,,switch,letter,NA,f,0.5643,Hi,,,,,,2,,,,,,,,low,12,0,12,0,1,,,,,,,,,
296476,2022-11-14_23h21.00.418,vts_reward_expectancy_bt,2022.2.4,MacIntel,60.0024001,Chrome,1440,900,,,,,10,766,,,,,,,,,,,,,,,,,Y,181,circle,1,1,,,,,,,,,,,,,,,,repeat,letter,lettRpt,f,0.7457,Lo,,,,,,2,,,,,,,,low,13,0,13,0,1,,,,,,,,,
296476,2022-11-14_23h21.00.418,vts_reward_expectancy_bt,2022.2.4,MacIntel,60.0024001,Chrome,1440,900,,,,,1,767,,,,,,,,,,,,,,,,,U,125,star,1,0,,,,,,,,,,,,,,,,repeat,letter,lettRpt,f,0.7145,Lo,,,,,,2,,,,,,,,low,14,0,14,0,1,,,,,,,,,
296476,2022-11-14_23h21.00.418,vts_reward_expectancy_bt,2022.2.4,MacIntel,60.0024001,Chrome,1440,900,,,,,0,767,,,,,,,,,,,,,,,,,S,174,triangle,1,0,,,,,,,,,,,,,,,,repeat,letter,lettRpt,f,1.0319,Hi,,,,,,2,,,,,,,,low,15,0,15,0,1,,,,,,,,,
296476,2022-11-14_23h21.00.418,vts_reward_expectancy_bt,2022.2.4,MacIntel,60.0024001,Chrome,1440,900,,,,,1,768,,,,,,,,,,,,,,,,,S,181,circle,1,0,,,,,,,,,,,,,,,,repeat,letter,lettRpt,f,0.6424,Lo,,,,,,2,,,,,,,,low,16,0,16,0,1,,,,,,,,,
296476,2022-11-14_23h21.00.418,vts_reward_expectancy_bt,2022.2.4,MacIntel,60.0024001,Chrome,1440,900,,,,,0,768,,,,,,,,,,,,,,,,,W,167,star,0,0,,,,,,,,,,,,,,,,switch,number,NA,j,0.4114,Lo,,,,,,2,,,,,,,,low,17,0,17,0,1,,,,,,,,,
296476,2022-11-14_23h21.00.418,vts_reward_expectancy_bt,2022.2.4,MacIntel,60.0024001,Chrome,1440,900,,,,,1,769,,,,,,,,,,,,,,,,,H,125,triangle,1,1,,,,,,,,,,,,,,,,repeat,number,numRpt,j,0.4622,Hi,,,,,,2,,,,,,,,low,18,0,18,0,1,,,,,,,,,
296476,2022-11-14_23h21.00.418,vts_reward_expectancy_bt,2022.2.4,MacIntel,60.0024001,Chrome,1440,900,,,,,10,779,,,,,,,,,,,,,,,,,D,146,hexagon,1,0,,,,,,,,,,,,,,,,repeat,number,numRpt,j,0.5495,Hi,,,,,,2,,,,,,,,low,19,0,19,0,1,,,,,,,,,
296476,2022-11-14_23h21.00.418,vts_reward_expectancy_bt,2022.2.4,MacIntel,60.0024001,Chrome,1440,900,,,,,0,779,,,,,,,,,,,,,,,,,B,132,triangle,0,0,,,,,,,,,,,,,,,,repeat,number,NA,k,0.4469,Hi,,,,,,2,,,,,,,,low,20,0,20,0,1,,,,,,,,,
296476,2022-11-14_23h21.00.418,vts_reward_expectancy_bt,2022.2.4,MacIntel,60.0024001,Chrome,1440,900,,,,,1,780,,,,,,,,,,,,,,,,,U,139,star,1,1,,,,,,,,,,,,,,,,repeat,number,numRpt,j,0.5473,Lo,,,,,,2,,,,,,,,low,21,0,21,0,1,,,,,,,,,
296476,2022-11-14_23h21.00.418,vts_reward_expectancy_bt,2022.2.4,MacIntel,60.0024001,Chrome,1440,900,,,,,10,790,,,,,,,,,,,,,,,,,F,174,circle,1,0,,,,,,,,,,,,,,,,switch,letter,lettSwt,d,0.3826,Lo,,,,,,2,,,,,,,,low,22,0,22,0,1,,,,,,,,,
296476,2022-11-14_23h21.00.418,vts_reward_expectancy_bt,2022.2.4,MacIntel,60.0024001,Chrome,1440,900,,,,,0,790,,,,,,,,,,,,,,,,,Y,160,hexagon,1,0,,,,,,,,,,,,,,,,repeat,letter,lettRpt,f,1.331,Hi,,,,,,2,,,,,,,,low,23,0,23,0,1,,,,,,,,,
296476,2022-11-14_23h21.00.418,vts_reward_expectancy_bt,2022.2.4,MacIntel,60.0024001,Chrome,1440,900,,,,,1,791,,,,,,,,,,,,,,,,,B,167,circle,1,0,,,,,,,,,,,,,,,,repeat,letter,lettRpt,d,0.6977,Lo,,,,,,2,,,,,,,,low,24,0,24,0,1,,,,,,,,,
296476,2022-11-14_23h21.00.418,vts_reward_expectancy_bt,2022.2.4,MacIntel,60.0024001,Chrome,1440,900,,,,,0,791,,,,,,,,,,,,,,,,,H,174,hexagon,0,0,,,,,,,,,,,,,,,,repeat,letter,NA,f,0.6288,Lo,,,,,,2,,,,,,,,low,25,0,25,0,1,,,,,,,,,
296476,2022-11-14_23h21.00.418,vts_reward_expectancy_bt,2022.2.4,MacIntel,60.0024001,Chrome,1440,900,,,,,0,791,,,,,,,,,,,,,,,,,F,146,triangle,0,1,,,,,,,,,,,,,,,,repeat,letter,NA,f,0.5618,Lo,,,,,,2,,,,,,,,low,26,0,26,0,1,,,,,,,,,
296476,2022-11-14_23h21.00.418,vts_reward_expectancy_bt,2022.2.4,MacIntel,60.0024001,Chrome,1440,900,,,,,0,791,,,,,,,,,,,,,,,,,Y,125,star,0,1,,,,,,,,,,,,,,,,repeat,letter,NA,d,0.528,Lo,,,,,,2,,,,,,,,low,27,0,27,0,1,,,,,,,,,
296476,2022-11-14_23h21.00.418,vts_reward_expectancy_bt,2022.2.4,MacIntel,60.0024001,Chrome,1440,900,,,,,10,801,,,,,,,,,,,,,,,,,S,139,star,1,1,,,,,,,,,,,,,,,,repeat,letter,lettRpt,f,0.6382,Lo,,,,,,2,,,,,,,,low,28,0,28,0,1,,,,,,,,,
296476,2022-11-14_23h21.00.418,vts_reward_expectancy_bt,2022.2.4,MacIntel,60.0024001,Chrome,1440,900,,,,,1,802,,,,,,,,,,,,,,,,,D,160,hexagon,1,0,,,,,,,,,,,,,,,,switch,number,numSwt,k,0.5976,Hi,,,,,,2,,,,,,,,low,29,0,29,0,1,,,,,,,,,
296476,2022-11-14_23h21.00.418,vts_reward_expectancy_bt,2022.2.4,MacIntel,60.0024001,Chrome,1440,900,,,,,1,803,,,,,,,,,,,,,,,,,U,181,circle,1,0,,,,,,,,,,,,,,,,repeat,number,numRpt,k,0.7139,Lo,,,,,,2,,,,,,,,low,30,0,30,0,1,,,,,,,,,
296476,2022-11-14_23h21.00.418,vts_reward_expectancy_bt,2022.2.4,MacIntel,60.0024001,Chrome,1440,900,,,,,0,803,,,,,,,,,,,,,,,,,W,132,triangle,1,0,,,,,,,,,,,,,,,,repeat,number,numRpt,j,0.6804,Hi,,,,,,2,,,,,,,,low,31,0,31,0,1,,,,,,,,,
296476,2022-11-14_23h21.00.418,vts_reward_expectancy_bt,2022.2.4,MacIntel,60.0024001,Chrome,1440,900,,,,,0,803,,,,,,,,,,,,,,,,,B,146,triangle,1,0,,,,,,,,,,,,,,,,switch,letter,lettSwt,d,0.8302,Hi,,,,,,3,,,,,,space,1.8903,low,0,0,0,0,1,,,,,,,,,
296476,2022-11-14_23h21.00.418,vts_reward_expectancy_bt,2022.2.4,MacIntel,60.0024001,Chrome,1440,900,,,,,1,804,,,,,,,,,,,,,,,,,D,160,star,1,0,,,,,,,,,,,,,,,,repeat,letter,lettRpt,d,0.5943,Lo,,,,,,3,,,,,,,,low,1,0,1,0,1,,,,,,,,,
296476,2022-11-14_23h21.00.418,vts_reward_expectancy_bt,2022.2.4,MacIntel,60.0024001,Chrome,1440,900,,,,,0,804,,,,,,,,,,,,,,,,,H,125,hexagon,1,0,,,,,,,,,,,,,,,,repeat,letter,lettRpt,d,0.7298,Hi,,,,,,3,,,,,,,,low,2,0,2,0,1,,,,,,,,,
296476,2022-11-14_23h21.00.418,vts_reward_expectancy_bt,2022.2.4,MacIntel,60.0024001,Chrome,1440,900,,,,,1,805,,,,,,,,,,,,,,,,,F,174,circle,1,0,,,,,,,,,,,,,,,,repeat,letter,lettRpt,d,0.7691,Lo,,,,,,3,,,,,,,,low,3,0,3,0,1,,,,,,,,,
296476,2022-11-14_23h21.00.418,vts_reward_expectancy_bt,2022.2.4,MacIntel,60.0024001,Chrome,1440,900,,,,,0,805,,,,,,,,,,,,,,,,,Y,139,triangle,1,0,,,,,,,,,,,,,,,,repeat,letter,lettRpt,f,0.6992,Hi,,,,,,3,,,,,,,,low,4,0,4,0,1,,,,,,,,,
296476,2022-11-14_23h21.00.418,vts_reward_expectancy_bt,2022.2.4,MacIntel,60.0024001,Chrome,1440,900,,,,,0,805,,,,,,,,,,,,,,,,,W,181,star,0,0,,,,,,,,,,,,,,,,switch,number,NA,j,0.779,Hi,,,,,,3,,,,,,,,low,5,0,5,0,1,,,,,,,,,
296476,2022-11-14_23h21.00.418,vts_reward_expectancy_bt,2022.2.4,MacIntel,60.0024001,Chrome,1440,900,,,,,0,805,,,,,,,,,,,,,,,,,U,167,hexagon,1,1,,,,,,,,,,,,,,,,repeat,number,numRpt,k,0.73,Hi,,,,,,3,,,,,,,,low,6,0,6,0,1,,,,,,,,,
296476,2022-11-14_23h21.00.418,vts_reward_expectancy_bt,2022.2.4,MacIntel,60.0024001,Chrome,1440,900,,,,,10,815,,,,,,,,,,,,,,,,,S,132,circle,1,0,,,,,,,,,,,,,,,,repeat,number,numRpt,j,0.7519,Lo,,,,,,3,,,,,,,,low,7,0,7,0,1,,,,,,,,,
296476,2022-11-14_23h21.00.418,vts_reward_expectancy_bt,2022.2.4,MacIntel,60.0024001,Chrome,1440,900,,,,,0,815,,,,,,,,,,,,,,,,,B,146,triangle,1,0,,,,,,,,,,,,,,,,repeat,number,numRpt,j,0.8142,Hi,,,,,,3,,,,,,,,low,8,0,8,0,1,,,,,,,,,
296476,2022-11-14_23h21.00.418,vts_reward_expectancy_bt,2022.2.4,MacIntel,60.0024001,Chrome,1440,900,,,,,0,815,,,,,,,,,,,,,,,,,D,160,circle,0,0,,,,,,,,,,,,,,,,repeat,number,NA,j,0.5309,Hi,,,,,,3,,,,,,,,low,9,0,9,0,1,,,,,,,,,
296476,2022-11-14_23h21.00.418,vts_reward_expectancy_bt,2022.2.4,MacIntel,60.0024001,Chrome,1440,900,,,,,1,816,,,,,,,,,,,,,,,,,H,125,star,1,1,,,,,,,,,,,,,,,,repeat,number,numRpt,j,0.5296,Lo,,,,,,3,,,,,,,,low,10,0,10,0,1,,,,,,,,,
296476,2022-11-14_23h21.00.418,vts_reward_expectancy_bt,2022.2.4,MacIntel,60.0024001,Chrome,1440,900,,,,,10,826,,,,,,,,,,,,,,,,,F,174,hexagon,1,0,,,,,,,,,,,,,,,,repeat,number,numRpt,k,0.5027,Hi,,,,,,3,,,,,,,,low,11,0,11,0,1,,,,,,,,,
296476,2022-11-14_23h21.00.418,vts_reward_expectancy_bt,2022.2.4,MacIntel,60.0024001,Chrome,1440,900,,,,,0,826,,,,,,,,,,,,,,,,,Y,139,triangle,1,0,,,,,,,,,,,,,,,,repeat,number,numRpt,j,0.5618,Hi,,,,,,3,,,,,,,,low,12,0,12,0,1,,,,,,,,,
296476,2022-11-14_23h21.00.418,vts_reward_expectancy_bt,2022.2.4,MacIntel,60.0024001,Chrome,1440,900,,,,,1,827,,,,,,,,,,,,,,,,,W,181,star,1,0,,,,,,,,,,,,,,,,switch,letter,lettSwt,f,0.597,Lo,,,,,,3,,,,,,,,low,13,0,13,0,1,,,,,,,,,
296476,2022-11-14_23h21.00.418,vts_reward_expectancy_bt,2022.2.4,MacIntel,60.0024001,Chrome,1440,900,,,,,0,827,,,,,,,,,,,,,,,,,U,167,hexagon,1,0,,,,,,,,,,,,,,,,repeat,letter,lettRpt,f,1.4305,Hi,,,,,,3,,,,,,,,low,14,0,14,0,1,,,,,,,,,
296476,2022-11-14_23h21.00.418,vts_reward_expectancy_bt,2022.2.4,MacIntel,60.0024001,Chrome,1440,900,,,,,1,828,,,,,,,,,,,,,,,,,S,132,circle,1,0,,,,,,,,,,,,,,,,repeat,letter,lettRpt,f,1.1462,Lo,,,,,,3,,,,,,,,low,15,0,15,0,1,,,,,,,,,
296476,2022-11-14_23h21.00.418,vts_reward_expectancy_bt,2022.2.4,MacIntel,60.0024001,Chrome,1440,900,,,,,0,828,,,,,,,,,,,,,,,,,H,160,circle,0,0,,,,,,,,,,,,,,,,repeat,letter,NA,f,1.5648,Lo,,,,,,3,,,,,,,,low,16,0,16,0,1,,,,,,,,,
296476,2022-11-14_23h21.00.418,vts_reward_expectancy_bt,2022.2.4,MacIntel,60.0024001,Chrome,1440,900,,,,,0,828,,,,,,,,,,,,,,,,,B,167,star,0,1,,,,,,,,,,,,,,,,repeat,letter,NA,f,1.0876,Lo,,,,,,3,,,,,,,,low,17,0,17,0,1,,,,,,,,,
296476,2022-11-14_23h21.00.418,vts_reward_expectancy_bt,2022.2.4,MacIntel,60.0024001,Chrome,1440,900,,,,,0,828,,,,,,,,,,,,,,,,,S,125,hexagon,1,1,,,,,,,,,,,,,,,,repeat,letter,lettRpt,f,0.6802,Hi,,,,,,3,,,,,,,,low,18,0,18,0,1,,,,,,,,,
296476,2022-11-14_23h21.00.418,vts_reward_expectancy_bt,2022.2.4,MacIntel,60.0024001,Chrome,1440,900,,,,,10,838,,,,,,,,,,,,,,,,,D,146,triangle,1,0,,,,,,,,,,,,,,,,switch,number,numSwt,j,0.5948,Hi,,,,,,3,,,,,,,,low,19,0,19,0,1,,,,,,,,,
296476,2022-11-14_23h21.00.418,vts_reward_expectancy_bt,2022.2.4,MacIntel,60.0024001,Chrome,1440,900,,,,,10,848,,,,,,,,,,,,,,,,,U,181,star,1,0,,,,,,,,,,,,,,,,repeat,number,numRpt,k,0.4479,Lo,,,,,,3,,,,,,,,low,20,0,20,0,1,,,,,,,,,
296476,2022-11-14_23h21.00.418,vts_reward_expectancy_bt,2022.2.4,MacIntel,60.0024001,Chrome,1440,900,,,,,0,848,,,,,,,,,,,,,,,,,Y,174,hexagon,0,0,,,,,,,,,,,,,,,,repeat,number,NA,j,0.3146,Lo,,,,,,3,,,,,,,,low,21,0,21,0,1,,,,,,,,,
296476,2022-11-14_23h21.00.418,vts_reward_expectancy_bt,2022.2.4,MacIntel,60.0024001,Chrome,1440,900,,,,,10,858,,,,,,,,,,,,,,,,,W,132,circle,1,1,,,,,,,,,,,,,,,,repeat,number,numRpt,j,0.3192,Lo,,,,,,3,,,,,,,,low,22,0,22,0,1,,,,,,,,,
296476,2022-11-14_23h21.00.418,vts_reward_expectancy_bt,2022.2.4,MacIntel,60.0024001,Chrome,1440,900,,,,,1,859,,,,,,,,,,,,,,,,,F,139,triangle,1,0,,,,,,,,,,,,,,,,repeat,number,numRpt,j,0.4193,Hi,,,,,,3,,,,,,,,low,23,0,23,0,1,,,,,,,,,
296476,2022-11-14_23h21.00.418,vts_reward_expectancy_bt,2022.2.4,MacIntel,60.0024001,Chrome,1440,900,,,,,10,869,,,,,,,,,,,,,,,,,H,146,hexagon,1,0,,,,,,,,,,,,,,,,repeat,number,numRpt,j,0.4485,Hi,,,,,,3,,,,,,,,low,24,0,24,0,1,,,,,,,,,
296476,2022-11-14_23h21.00.418,vts_reward_expectancy_bt,2022.2.4,MacIntel,60.0024001,Chrome,1440,900,,,,,0,869,,,,,,,,,,,,,,,,,B,174,circle,0,0,,,,,,,,,,,,,,,,repeat,number,NA,j,0.4801,Hi,,,,,,3,,,,,,,,low,25,0,25,0,1,,,,,,,,,
296476,2022-11-14_23h21.00.418,vts_reward_expectancy_bt,2022.2.4,MacIntel,60.0024001,Chrome,1440,900,,,,,10,879,,,,,,,,,,,,,,,,,W,125,triangle,1,1,,,,,,,,,,,,,,,,repeat,number,numRpt,j,0.5458,Hi,,,,,,3,,,,,,,,low,26,0,26,0,1,,,,,,,,,
296476,2022-11-14_23h21.00.418,vts_reward_expectancy_bt,2022.2.4,MacIntel,60.0024001,Chrome,1440,900,,,,,1,880,,,,,,,,,,,,,,,,,D,167,star,1,0,,,,,,,,,,,,,,,,switch,letter,lettSwt,d,0.8196,Lo,,,,,,3,,,,,,,,low,27,0,27,0,1,,,,,,,,,
296476,2022-11-14_23h21.00.418,vts_reward_expectancy_bt,2022.2.4,MacIntel,60.0024001,Chrome,1440,900,,,,,0,880,,,,,,,,,,,,,,,,,S,181,triangle,1,0,,,,,,,,,,,,,,,,repeat,letter,lettRpt,f,0.8193,Hi,,,,,,3,,,,,,,,low,28,0,28,0,1,,,,,,,,,
296476,2022-11-14_23h21.00.418,vts_reward_expectancy_bt,2022.2.4,MacIntel,60.0024001,Chrome,1440,900,,,,,1,881,,,,,,,,,,,,,,,,,F,160,circle,1,0,,,,,,,,,,,,,,,,repeat,letter,lettRpt,d,0.6289,Lo,,,,,,3,,,,,,,,low,29,0,29,0,1,,,,,,,,,
296476,2022-11-14_23h21.00.418,vts_reward_expectancy_bt,2022.2.4,MacIntel,60.0024001,Chrome,1440,900,,,,,10,891,,,,,,,,,,,,,,,,,U,139,star,1,0,,,,,,,,,,,,,,,,repeat,letter,lettRpt,f,0.6991,Lo,,,,,,3,,,,,,,,low,30,0,30,0,1,,,,,,,,,
296476,2022-11-14_23h21.00.418,vts_reward_expectancy_bt,2022.2.4,MacIntel,60.0024001,Chrome,1440,900,,,,,1,892,,,,,,,,,,,,,,,,,Y,132,hexagon,1,0,,,,,,,,,,,,,,,,repeat,letter,lettRpt,f,0.6034,Hi,,,,,,3,,,,,,,,low,31,0,31,0,1,,,,,,,,,
296476,2022-11-14_23h21.00.418,vts_reward_expectancy_bt,2022.2.4,MacIntel,60.0024001,Chrome,1440,900,,,,,0,892,,,,,,,,,,,,,,,,,H,146,hexagon,1,0,,,,,,,,,,,,,,,,repeat,letter,lettRpt,d,1.1826,Hi,,,,,,4,,,,,,space,0.654,low,0,0,0,0,1,,,,,,,,,
296476,2022-11-14_23h21.00.418,vts_reward_expectancy_bt,2022.2.4,MacIntel,60.0024001,Chrome,1440,900,,,,,0,892,,,,,,,,,,,,,,,,,S,139,triangle,1,0,,,,,,,,,,,,,,,,repeat,letter,lettRpt,f,0.8184,Hi,,,,,,4,,,,,,,,low,1,0,1,0,1,,,,,,,,,
296476,2022-11-14_23h21.00.418,vts_reward_expectancy_bt,2022.2.4,MacIntel,60.0024001,Chrome,1440,900,,,,,1,893,,,,,,,,,,,,,,,,,D,132,circle,1,0,,,,,,,,,,,,,,,,repeat,letter,lettRpt,d,0.5465,Lo,,,,,,4,,,,,,,,low,2,0,2,0,1,,,,,,,,,
296476,2022-11-14_23h21.00.418,vts_reward_expectancy_bt,2022.2.4,MacIntel,60.0024001,Chrome,1440,900,,,,,1,894,,,,,,,,,,,,,,,,,F,174,star,1,0,,,,,,,,,,,,,,,,repeat,letter,lettRpt,d,0.6446,Lo,,,,,,4,,,,,,,,low,3,0,3,0,1,,,,,,,,,
296476,2022-11-14_23h21.00.418,vts_reward_expectancy_bt,2022.2.4,MacIntel,60.0024001,Chrome,1440,900,,,,,1,895,,,,,,,,,,,,,,,,,B,160,hexagon,1,0,,,,,,,,,,,,,,,,repeat,letter,lettRpt,d,0.4432,Hi,,,,,,4,,,,,,,,low,4,0,4,0,1,,,,,,,,,
296476,2022-11-14_23h21.00.418,vts_reward_expectancy_bt,2022.2.4,MacIntel,60.0024001,Chrome,1440,900,,,,,10,905,,,,,,,,,,,,,,,,,Y,167,triangle,1,0,,,,,,,,,,,,,,,,switch,number,numSwt,k,0.4099,Hi,,,,,,4,,,,,,,,low,5,0,5,0,1,,,,,,,,,
296476,2022-11-14_23h21.00.418,vts_reward_expectancy_bt,2022.2.4,MacIntel,60.0024001,Chrome,1440,900,,,,,0,905,,,,,,,,,,,,,,,,,U,125,circle,0,0,,,,,,,,,,,,,,,,repeat,number,NA,k,0.4213,Hi,,,,,,4,,,,,,,,low,6,0,6,0,1,,,,,,,,,
296476,2022-11-14_23h21.00.418,vts_reward_expectancy_bt,2022.2.4,MacIntel,60.0024001,Chrome,1440,900,,,,,0,905,,,,,,,,,,,,,,,,,W,181,star,0,1,,,,,,,,,,,,,,,,repeat,number,NA,j,0.5445,Hi,,,,,,4,,,,,,,,low,7,0,7,0,1,,,,,,,,,
296476,2022-11-14_23h21.00.418,vts_reward_expectancy_bt,2022.2.4,MacIntel,60.0024001,Chrome,1440,900,,,,,0,905,,,,,,,,,,,,,,,,,H,146,hexagon,1,1,,,,,,,,,,,,,,,,repeat,number,numRpt,j,0.4686,Hi,,,,,,4,,,,,,,,low,8,0,8,0,1,,,,,,,,,
296476,2022-11-14_23h21.00.418,vts_reward_expectancy_bt,2022.2.4,MacIntel,60.0024001,Chrome,1440,900,,,,,1,906,,,,,,,,,,,,,,,,,S,139,circle,1,0,,,,,,,,,,,,,,,,repeat,number,numRpt,j,0.4304,Lo,,,,,,4,,,,,,,,low,9,0,9,0,1,,,,,,,,,
296476,2022-11-14_23h21.00.418,vts_reward_expectancy_bt,2022.2.4,MacIntel,60.0024001,Chrome,1440,900,,,,,0,906,,,,,,,,,,,,,,,,,D,132,triangle,1,0,,,,,,,,,,,,,,,,repeat,number,numRpt,j,0.5702,Hi,,,,,,4,,,,,,,,low,10,0,10,0,1,,,,,,,,,
296476,2022-11-14_23h21.00.418,vts_reward_expectancy_bt,2022.2.4,MacIntel,60.0024001,Chrome,1440,900,,,,,0,906,,,,,,,,,,,,,,,,,F,174,star,0,0,,,,,,,,,,,,,,,,repeat,number,NA,j,0.4297,Hi,,,,,,4,,,,,,,,low,11,0,11,0,1,,,,,,,,,
296476,2022-11-14_23h21.00.418,vts_reward_expectancy_bt,2022.2.4,MacIntel,60.0024001,Chrome,1440,900,,,,,1,907,,,,,,,,,,,,,,,,,B,160,circle,1,1,,,,,,,,,,,,,,,,repeat,number,numRpt,k,0.3137,Lo,,,,,,4,,,,,,,,low,12,0,12,0,1,,,,,,,,,
296476,2022-11-14_23h21.00.418,vts_reward_expectancy_bt,2022.2.4,MacIntel,60.0024001,Chrome,1440,900,,,,,0,907,,,,,,,,,,,,,,,,,Y,167,triangle,0,0,,,,,,,,,,,,,,,,repeat,number,NA,j,0.448,Lo,,,,,,4,,,,,,,,low,13,0,13,0,1,,,,,,,,,
296476,2022-11-14_23h21.00.418,vts_reward_expectancy_bt,2022.2.4,MacIntel,60.0024001,Chrome,1440,900,,,,,10,917,,,,,,,,,,,,,,,,,U,125,star,1,1,,,,,,,,,,,,,,,,switch,letter,lettSwt,f,0.8141,Lo,,,,,,4,,,,,,,,low,14,0,14,0,1,,,,,,,,,
296476,2022-11-14_23h21.00.418,vts_reward_expectancy_bt,2022.2.4,MacIntel,60.0024001,Chrome,1440,900,,,,,1,918,,,,,,,,,,,,,,,,,W,181,hexagon,1,0,,,,,,,,,,,,,,,,repeat,letter,lettRpt,f,0.4865,Hi,,,,,,4,,,,,,,,low,15,0,15,0,1,,,,,,,,,
296476,2022-11-14_23h21.00.418,vts_reward_expectancy_bt,2022.2.4,MacIntel,60.0024001,Chrome,1440,900,,,,,10,928,,,,,,,,,,,,,,,,,U,181,triangle,1,0,,,,,,,,,,,,,,,,repeat,letter,lettRpt,f,0.4554,Hi,,,,,,4,,,,,,,,low,16,0,16,0,1,,,,,,,,,
296476,2022-11-14_23h21.00.418,vts_reward_expectancy_bt,2022.2.4,MacIntel,60.0024001,Chrome,1440,900,,,,,0,928,,,,,,,,,,,,,,,,,H,160,circle,0,0,,,,,,,,,,,,,,,,repeat,letter,NA,f,0.4992,Hi,,,,,,4,,,,,,,,low,17,0,17,0,1,,,,,,,,,
296476,2022-11-14_23h21.00.418,vts_reward_expectancy_bt,2022.2.4,MacIntel,60.0024001,Chrome,1440,900,,,,,1,929,,,,,,,,,,,,,,,,,F,132,hexagon,1,1,,,,,,,,,,,,,,,,repeat,letter,lettRpt,d,0.6347,Hi,,,,,,4,,,,,,,,low,18,0,18,0,1,,,,,,,,,
296476,2022-11-14_23h21.00.418,vts_reward_expectancy_bt,2022.2.4,MacIntel,60.0024001,Chrome,1440,900,,,,,1,930,,,,,,,,,,,,,,,,,Y,146,star,1,0,,,,,,,,,,,,,,,,repeat,letter,lettRpt,f,0.4815,Lo,,,,,,4,,,,,,,,low,19,0,19,0,1,,,,,,,,,
296476,2022-11-14_23h21.00.418,vts_reward_expectancy_bt,2022.2.4,MacIntel,60.0024001,Chrome,1440,900,,,,,1,931,,,,,,,,,,,,,,,,,W,174,hexagon,1,0,,,,,,,,,,,,,,,,repeat,letter,lettRpt,f,0.5099,Hi,,,,,,4,,,,,,,,low,20,0,20,0,1,,,,,,,,,
296476,2022-11-14_23h21.00.418,vts_reward_expectancy_bt,2022.2.4,MacIntel,60.0024001,Chrome,1440,900,,,,,1,932,,,,,,,,,,,,,,,,,D,139,circle,1,0,,,,,,,,,,,,,,,,switch,number,numSwt,j,0.3811,Lo,,,,,,4,,,,,,,,low,21,0,21,0,1,,,,,,,,,
296476,2022-11-14_23h21.00.418,vts_reward_expectancy_bt,2022.2.4,MacIntel,60.0024001,Chrome,1440,900,,,,,0,932,,,,,,,,,,,,,,,,,B,167,triangle,0,0,,,,,,,,,,,,,,,,repeat,number,NA,j,0.5801,Lo,,,,,,4,,,,,,,,low,22,0,22,0,1,,,,,,,,,
296476,2022-11-14_23h21.00.418,vts_reward_expectancy_bt,2022.2.4,MacIntel,60.0024001,Chrome,1440,900,,,,,0,932,,,,,,,,,,,,,,,,,S,125,star,0,1,,,,,,,,,,,,,,,,repeat,number,NA,k,0.7953,Lo,,,,,,4,,,,,,,,low,23,0,23,0,1,,,,,,,,,
296476,2022-11-14_23h21.00.418,vts_reward_expectancy_bt,2022.2.4,MacIntel,60.0024001,Chrome,1440,900,,,,,10,942,,,,,,,,,,,,,,,,,S,160,hexagon,1,1,,,,,,,,,,,,,,,,repeat,number,numRpt,k,0.4638,Hi,,,,,,4,,,,,,,,low,24,0,24,0,1,,,,,,,,,
296476,2022-11-14_23h21.00.418,vts_reward_expectancy_bt,2022.2.4,MacIntel,60.0024001,Chrome,1440,900,,,,,1,943,,,,,,,,,,,,,,,,,D,125,star,1,0,,,,,,,,,,,,,,,,repeat,number,numRpt,j,0.545,Lo,,,,,,4,,,,,,,,low,25,0,25,0,1,,,,,,,,,
296476,2022-11-14_23h21.00.418,vts_reward_expectancy_bt,2022.2.4,MacIntel,60.0024001,Chrome,1440,900,,,,,1,944,,,,,,,,,,,,,,,,,B,139,circle,1,0,,,,,,,,,,,,,,,,repeat,number,numRpt,j,0.5956,Lo,,,,,,4,,,,,,,,low,26,0,26,0,1,,,,,,,,,
296476,2022-11-14_23h21.00.418,vts_reward_expectancy_bt,2022.2.4,MacIntel,60.0024001,Chrome,1440,900,,,,,0,944,,,,,,,,,,,,,,,,,Y,181,triangle,0,0,,,,,,,,,,,,,,,,repeat,number,NA,j,0.5999,Lo,,,,,,4,,,,,,,,low,27,0,27,0,1,,,,,,,,,
296476,2022-11-14_23h21.00.418,vts_reward_expectancy_bt,2022.2.4,MacIntel,60.0024001,Chrome,1440,900,,,,,0,944,,,,,,,,,,,,,,,,,H,167,star,0,1,,,,,,,,,,,,,,,,repeat,number,NA,j,0.597,Lo,,,,,,4,,,,,,,,low,28,0,28,0,1,,,,,,,,,
296476,2022-11-14_23h21.00.418,vts_reward_expectancy_bt,2022.2.4,MacIntel,60.0024001,Chrome,1440,900,,,,,1,945,,,,,,,,,,,,,,,,,F,146,circle,1,1,,,,,,,,,,,,,,,,repeat,number,numRpt,j,0.6488,Lo,,,,,,4,,,,,,,,low,29,0,29,0,1,,,,,,,,,
296476,2022-11-14_23h21.00.418,vts_reward_expectancy_bt,2022.2.4,MacIntel,60.0024001,Chrome,1440,900,,,,,0,945,,,,,,,,,,,,,,,,,U,174,hexagon,1,0,,,,,,,,,,,,,,,,repeat,number,numRpt,k,0.6445,Hi,,,,,,4,,,,,,,,low,30,0,30,0,1,,,,,,,,,
296476,2022-11-14_23h21.00.418,vts_reward_expectancy_bt,2022.2.4,MacIntel,60.0024001,Chrome,1440,900,,,,,0,945,,,,,,,,,,,,,,,,,W,132,triangle,1,0,,,,,,,,,,,,,,,,repeat,number,numRpt,j,0.8138,Hi,,,,,,4,,,,,,,,low,31,0,31,0,1,,,,,,,,,
296476,2022-11-14_23h21.00.418,vts_reward_expectancy_bt,2022.2.4,MacIntel,60.0024001,Chrome,1440,900,,,,,1,946,,,,,,,,,,,,,,,,,Y,132,triangle,1,0,,,,,,,,,,,,,,,,switch,letter,lettSwt,f,0.7005,Hi,,,,,,5,,,,,,space,1.1391,low,0,0,0,0,1,,,,,,,,,
296476,2022-11-14_23h21.00.418,vts_reward_expectancy_bt,2022.2.4,MacIntel,60.0024001,Chrome,1440,900,,,,,1,947,,,,,,,,,,,,,,,,,D,146,star,1,0,,,,,,,,,,,,,,,,repeat,letter,lettRpt,d,0.5388,Lo,,,,,,5,,,,,,,,low,1,0,1,0,1,,,,,,,,,
296476,2022-11-14_23h21.00.418,vts_reward_expectancy_bt,2022.2.4,MacIntel,60.0024001,Chrome,1440,900,,,,,0,947,,,,,,,,,,,,,,,,,B,139,hexagon,1,0,,,,,,,,,,,,,,,,repeat,letter,lettRpt,d,0.6393,Hi,,,,,,5,,,,,,,,low,2,0,2,0,1,,,,,,,,,
296476,2022-11-14_23h21.00.418,vts_reward_expectancy_bt,2022.2.4,MacIntel,60.0024001,Chrome,1440,900,,,,,1,948,,,,,,,,,,,,,,,,,W,125,circle,1,0,,,,,,,,,,,,,,,,repeat,letter,lettRpt,f,0.588,Lo,,,,,,5,,,,,,,,low,3,0,3,0,1,,,,,,,,,
296476,2022-11-14_23h21.00.418,vts_reward_expectancy_bt,2022.2.4,MacIntel,60.0024001,Chrome,1440,900,,,,,0,948,,,,,,,,,,,,,,,,,F,181,triangle,1,0,,,,,,,,,,,,,,,,repeat,letter,lettRpt,d,0.7122,Hi,,,,,,5,,,,,,,,low,4,0,4,0,1,,,,,,,,,
296476,2022-11-14_23h21.00.418,vts_reward_expectancy_bt,2022.2.4,MacIntel,60.0024001,Chrome,1440,900,,,,,1,949,,,,,,,,,,,,,,,,,S,160,star,1,0,,,,,,,,,,,,,,,,repeat,letter,lettRpt,f,0.5809,Lo,,,,,,5,,,,,,,,low,5,0,5,0,1,,,,,,,,,
296476,2022-11-14_23h21.00.418,vts_reward_expectancy_bt,2022.2.4,MacIntel,60.0024001,Chrome,1440,900,,,,,0,949,,,,,,,,,,,,,,,,,H,174,hexagon,1,0,,,,,,,,,,,,,,,,switch,number,numSwt,k,0.4661,Hi,,,,,,5,,,,,,,,low,6,0,6,0,1,,,,,,,,,
296476,2022-11-14_23h21.00.418,vts_reward_expectancy_bt,2022.2.4,MacIntel,60.0024001,Chrome,1440,900,,,,,10,959,,,,,,,,,,,,,,,,,U,167,circle,1,0,,,,,,,,,,,,,,,,repeat,number,numRpt,k,0.4618,Lo,,,,,,5,,,,,,,,low,7,0,7,0,1,,,,,,,,,
296476,2022-11-14_23h21.00.418,vts_reward_expectancy_bt,2022.2.4,MacIntel,60.0024001,Chrome,1440,900,,,,,0,959,,,,,,,,,,,,,,,,,Y,132,hexagon,1,0,,,,,,,,,,,,,,,,repeat,number,numRpt,j,0.8472,Hi,,,,,,5,,,,,,,,low,8,0,8,0,1,,,,,,,,,
296476,2022-11-14_23h21.00.418,vts_reward_expectancy_bt,2022.2.4,MacIntel,60.0024001,Chrome,1440,900,,,,,1,960,,,,,,,,,,,,,,,,,D,146,star,1,0,,,,,,,,,,,,,,,,repeat,number,numRpt,j,0.5942,Lo,,,,,,5,,,,,,,,low,9,0,9,0,1,,,,,,,,,
296476,2022-11-14_23h21.00.418,vts_reward_expectancy_bt,2022.2.4,MacIntel,60.0024001,Chrome,1440,900,,,,,1,961,,,,,,,,,,,,,,,,,B,139,circle,1,0,,,,,,,,,,,,,,,,repeat,number,numRpt,j,0.5825,Lo,,,,,,5,,,,,,,,low,10,0,10,0,1,,,,,,,,,
296476,2022-11-14_23h21.00.418,vts_reward_expectancy_bt,2022.2.4,MacIntel,60.0024001,Chrome,1440,900,,,,,0,961,,,,,,,,,,,,,,,,,W,125,triangle,1,0,,,,,,,,,,,,,,,,repeat,number,numRpt,j,0.4689,Hi,,,,,,5,,,,,,,,low,11,0,11,0,1,,,,,,,,,
296476,2022-11-14_23h21.00.418,vts_reward_expectancy_bt,2022.2.4,MacIntel,60.0024001,Chrome,1440,900,,,,,0,961,,,,,,,,,,,,,,,,,F,181,hexagon,0,0,,,,,,,,,,,,,,,,repeat,number,NA,j,0.6109,Hi,,,,,,5,,,,,,,,low,12,0,12,0,1,,,,,,,,,
296476,2022-11-14_23h21.00.418,vts_reward_expectancy_bt,2022.2.4,MacIntel,60.0024001,Chrome,1440,900,,,,,0,961,,,,,,,,,,,,,,,,,S,160,triangle,0,1,,,,,,,,,,,,,,,,repeat,number,NA,j,0.4097,Hi,,,,,,5,,,,,,,,low,13,0,13,0,1,,,,,,,,,
296476,2022-11-14_23h21.00.418,vts_reward_expectancy_bt,2022.2.4,MacIntel,60.0024001,Chrome,1440,900,,,,,1,962,,,,,,,,,,,,,,,,,H,174,star,1,1,,,,,,,,,,,,,,,,repeat,number,numRpt,k,0.6181,Lo,,,,,,5,,,,,,,,low,14,0,14,0,1,,,,,,,,,
296476,2022-11-14_23h21.00.418,vts_reward_expectancy_bt,2022.2.4,MacIntel,60.0024001,Chrome,1440,900,,,,,0,962,,,,,,,,,,,,,,,,,U,167,circle,0,0,,,,,,,,,,,,,,,,repeat,number,NA,j,1.0644,Lo,,,,,,5,,,,,,,,low,15,0,15,0,1,,,,,,,,,
296476,2022-11-14_23h21.00.418,vts_reward_expectancy_bt,2022.2.4,MacIntel,60.0024001,Chrome,1440,900,,,,,0,962,,,,,,,,,,,,,,,,,D,181,star,0,1,,,,,,,,,,,,,,,,repeat,number,NA,j,0.3774,Lo,,,,,,5,,,,,,,,low,16,0,16,0,1,,,,,,,,,
296476,2022-11-14_23h21.00.418,vts_reward_expectancy_bt,2022.2.4,MacIntel,60.0024001,Chrome,1440,900,,,,,1,963,,,,,,,,,,,,,,,,,F,160,circle,1,1,,,,,,,,,,,,,,,,switch,letter,lettSwt,d,0.5621,Lo,,,,,,5,,,,,,,,low,17,0,17,0,1,,,,,,,,,
296476,2022-11-14_23h21.00.418,vts_reward_expectancy_bt,2022.2.4,MacIntel,60.0024001,Chrome,1440,900,,,,,0,963,,,,,,,,,,,,,,,,,H,139,triangle,1,0,,,,,,,,,,,,,,,,repeat,letter,lettRpt,d,0.754,Hi,,,,,,5,,,,,,,,low,18,0,18,0,1,,,,,,,,,
296476,2022-11-14_23h21.00.418,vts_reward_expectancy_bt,2022.2.4,MacIntel,60.0024001,Chrome,1440,900,,,,,0,963,,,,,,,,,,,,,,,,,W,174,hexagon,1,0,,,,,,,,,,,,,,,,repeat,letter,lettRpt,f,0.6322,Hi,,,,,,5,,,,,,,,low,19,0,19,0,1,,,,,,,,,
296476,2022-11-14_23h21.00.418,vts_reward_expectancy_bt,2022.2.4,MacIntel,60.0024001,Chrome,1440,900,,,,,0,963,,,,,,,,,,,,,,,,,S,146,circle,0,0,,,,,,,,,,,,,,,,repeat,letter,NA,d,0.6449,Hi,,,,,,5,,,,,,,,low,20,0,20,0,1,,,,,,,,,
296476,2022-11-14_23h21.00.418,vts_reward_expectancy_bt,2022.2.4,MacIntel,60.0024001,Chrome,1440,900,,,,,1,964,,,,,,,,,,,,,,,,,B,167,hexagon,1,1,,,,,,,,,,,,,,,,repeat,letter,lettRpt,d,0.4469,Hi,,,,,,5,,,,,,,,low,21,0,21,0,1,,,,,,,,,
296476,2022-11-14_23h21.00.418,vts_reward_expectancy_bt,2022.2.4,MacIntel,60.0024001,Chrome,1440,900,,,,,0,964,,,,,,,,,,,,,,,,,Y,132,triangle,1,0,,,,,,,,,,,,,,,,repeat,letter,lettRpt,f,0.7297,Hi,,,,,,5,,,,,,,,low,22,0,22,0,1,,,,,,,,,
296476,2022-11-14_23h21.00.418,vts_reward_expectancy_bt,2022.2.4,MacIntel,60.0024001,Chrome,1440,900,,,,,10,974,,,,,,,,,,,,,,,,,U,125,star,1,0,,,,,,,,,,,,,,,,repeat,letter,lettRpt,f,0.7155,Lo,,,,,,5,,,,,,,,low,23,0,23,0,1,,,,,,,,,
296476,2022-11-14_23h21.00.418,vts_reward_expectancy_bt,2022.2.4,MacIntel,60.0024001,Chrome,1440,900,,,,,1,975,,,,,,,,,,,,,,,,,F,125,star,1,0,,,,,,,,,,,,,,,,repeat,letter,lettRpt,d,0.6043,Lo,,,,,,5,,,,,,,,low,24,0,24,0,1,,,,,,,,,
296476,2022-11-14_23h21.00.418,vts_reward_expectancy_bt,2022.2.4,MacIntel,60.0024001,Chrome,1440,900,,,,,10,985,,,,,,,,,,,,,,,,,B,146,circle,1,0,,,,,,,,,,,,,,,,repeat,letter,lettRpt,d,0.514,Lo,,,,,,5,,,,,,,,low,25,0,25,0,1,,,,,,,,,
296476,2022-11-14_23h21.00.418,vts_reward_expectancy_bt,2022.2.4,MacIntel,60.0024001,Chrome,1440,900,,,,,0,985,,,,,,,,,,,,,,,,,W,174,triangle,1,0,,,,,,,,,,,,,,,,repeat,letter,lettRpt,f,0.8978,Hi,,,,,,5,,,,,,,,low,26,0,26,0,1,,,,,,,,,
296476,2022-11-14_23h21.00.418,vts_reward_expectancy_bt,2022.2.4,MacIntel,60.0024001,Chrome,1440,900,,,,,0,985,,,,,,,,,,,,,,,,,H,167,hexagon,1,0,,,,,,,,,,,,,,,,repeat,letter,lettRpt,d,0.5902,Hi,,,,,,5,,,,,,,,low,27,0,27,0,1,,,,,,,,,
296476,2022-11-14_23h21.00.418,vts_reward_expectancy_bt,2022.2.4,MacIntel,60.0024001,Chrome,1440,900,,,,,0,985,,,,,,,,,,,,,,,,,S,160,hexagon,0,0,,,,,,,,,,,,,,,,switch,number,NA,j,0.5686,Hi,,,,,,5,,,,,,,,low,28,0,28,0,1,,,,,,,,,
296476,2022-11-14_23h21.00.418,vts_reward_expectancy_bt,2022.2.4,MacIntel,60.0024001,Chrome,1440,900,,,,,0,985,,,,,,,,,,,,,,,,,U,139,triangle,0,1,,,,,,,,,,,,,,,,repeat,number,NA,k,0.5863,Hi,,,,,,5,,,,,,,,low,29,0,29,0,1,,,,,,,,,
296476,2022-11-14_23h21.00.418,vts_reward_expectancy_bt,2022.2.4,MacIntel,60.0024001,Chrome,1440,900,,,,,0,985,,,,,,,,,,,,,,,,,D,181,star,0,1,,,,,,,,,,,,,,,,repeat,number,NA,j,0.6139,Hi,,,,,,5,,,,,,,,low,30,0,30,0,1,,,,,,,,,
296476,2022-11-14_23h21.00.418,vts_reward_expectancy_bt,2022.2.4,MacIntel,60.0024001,Chrome,1440,900,,,,,1,986,,,,,,,,,,,,,,,,,Y,132,circle,1,1,,,,,,,,,,,,,,,,repeat,number,numRpt,j,0.4648,Lo,,,,,,5,,,,,,,,low,31,0,31,0,1,,,,,,,,,
296476,2022-11-14_23h21.00.418,vts_reward_expectancy_bt,2022.2.4,MacIntel,60.0024001,Chrome,1440,900,,,,,10,996,,,,,,,,,,,,,,,,,W,146,star,1,0,,,,,,,,,,,,,,,,repeat,number,numRpt,j,1.2295,Lo,,,,,,6,,,,,,space,0.793,low,0,0,0,0,1,,,,,,,,,
296476,2022-11-14_23h21.00.418,vts_reward_expectancy_bt,2022.2.4,MacIntel,60.0024001,Chrome,1440,900,,,,,0,996,,,,,,,,,,,,,,,,,F,160,triangle,0,0,,,,,,,,,,,,,,,,repeat,number,NA,j,0.7358,Lo,,,,,,6,,,,,,,,low,1,0,1,0,1,,,,,,,,,
296476,2022-11-14_23h21.00.418,vts_reward_expectancy_bt,2022.2.4,MacIntel,60.0024001,Chrome,1440,900,,,,,0,996,,,,,,,,,,,,,,,,,D,167,hexagon,1,1,,,,,,,,,,,,,,,,repeat,number,numRpt,k,0.5294,Hi,,,,,,6,,,,,,,,low,2,0,2,0,1,,,,,,,,,
296476,2022-11-14_23h21.00.418,vts_reward_expectancy_bt,2022.2.4,MacIntel,60.0024001,Chrome,1440,900,,,,,10,1006,,,,,,,,,,,,,,,,,Y,125,circle,1,0,,,,,,,,,,,,,,,,repeat,number,numRpt,j,0.497,Lo,,,,,,6,,,,,,,,low,3,0,3,0,1,,,,,,,,,
296476,2022-11-14_23h21.00.418,vts_reward_expectancy_bt,2022.2.4,MacIntel,60.0024001,Chrome,1440,900,,,,,0,1006,,,,,,,,,,,,,,,,,H,181,star,0,0,,,,,,,,,,,,,,,,repeat,number,NA,j,0.6339,Lo,,,,,,6,,,,,,,,low,4,0,4,0,1,,,,,,,,,
296476,2022-11-14_23h21.00.418,vts_reward_expectancy_bt,2022.2.4,MacIntel,60.0024001,Chrome,1440,900,,,,,0,1006,,,,,,,,,,,,,,,,,S,174,triangle,1,1,,,,,,,,,,,,,,,,repeat,number,numRpt,k,0.5124,Hi,,,,,,6,,,,,,,,low,5,0,5,0,1,,,,,,,,,
296476,2022-11-14_23h21.00.418,vts_reward_expectancy_bt,2022.2.4,MacIntel,60.0024001,Chrome,1440,900,,,,,1,1007,,,,,,,,,,,,,,,,,B,139,hexagon,1,0,,,,,,,,,,,,,,,,repeat,number,numRpt,j,0.3995,Hi,,,,,,6,,,,,,,,low,6,0,6,0,1,,,,,,,,,
296476,2022-11-14_23h21.00.418,vts_reward_expectancy_bt,2022.2.4,MacIntel,60.0024001,Chrome,1440,900,,,,,1,1008,,,,,,,,,,,,,,,,,U,132,circle,1,0,,,,,,,,,,,,,,,,switch,letter,lettSwt,f,0.5304,Lo,,,,,,6,,,,,,,,low,7,0,7,0,1,,,,,,,,,
296476,2022-11-14_23h21.00.418,vts_reward_expectancy_bt,2022.2.4,MacIntel,60.0024001,Chrome,1440,900,,,,,10,1018,,,,,,,,,,,,,,,,,W,146,hexagon,1,0,,,,,,,,,,,,,,,,repeat,letter,lettRpt,f,0.4783,Hi,,,,,,6,,,,,,,,low,8,0,8,0,1,,,,,,,,,
296476,2022-11-14_23h21.00.418,vts_reward_expectancy_bt,2022.2.4,MacIntel,60.0024001,Chrome,1440,900,,,,,1,1019,,,,,,,,,,,,,,,,,F,160,triangle,1,0,,,,,,,,,,,,,,,,repeat,letter,lettRpt,d,0.3473,Hi,,,,,,6,,,,,,,,low,9,0,9,0,1,,,,,,,,,
296476,2022-11-14_23h21.00.418,vts_reward_expectancy_bt,2022.2.4,MacIntel,60.0024001,Chrome,1440,900,,,,,0,1019,,,,,,,,,,,,,,,,,D,167,star,0,0,,,,,,,,,,,,,,,,repeat,letter,NA,f,0.3617,Hi,,,,,,6,,,,,,,,low,10,0,10,0,1,,,,,,,,,
296476,2022-11-14_23h21.00.418,vts_reward_expectancy_bt,2022.2.4,MacIntel,60.0024001,Chrome,1440,900,,,,,1,1020,,,,,,,,,,,,,,,,,Y,125,circle,1,1,,,,,,,,,,,,,,,,repeat,letter,lettRpt,f,0.7467,Lo,,,,,,6,,,,,,,,low,11,0,11,0,1,,,,,,,,,
296476,2022-11-14_23h21.00.418,vts_reward_expectancy_bt,2022.2.4,MacIntel,60.0024001,Chrome,1440,900,,,,,0,1020,,,,,,,,,,,,,,,,,H,181,triangle,0,0,,,,,,,,,,,,,,,,repeat,letter,NA,f,0.6617,Lo,,,,,,6,,,,,,,,low,12,0,12,0,1,,,,,,,,,
296476,2022-11-14_23h21.00.418,vts_reward_expectancy_bt,2022.2.4,MacIntel,60.0024001,Chrome,1440,900,,,,,10,1030,,,,,,,,,,,,,,,,,S,174,star,1,1,,,,,,,,,,,,,,,,repeat,letter,lettRpt,f,0.6475,Lo,,,,,,6,,,,,,,,low,13,0,13,0,1,,,,,,,,,
