participant,date,expName,psychopyVersion,OS,frameRate,browser,xResolution,yResolution,key_resp.keys,key_resp.rt,training_resp.keys,training_resp.rt,points_trial,points_cumul,trainBlock,training.thisRepN,training.thisTrialN,training.thisN,training.thisIndex,training.ran,LTriangleOpac,LCircleOpac,LHexagonOpac,LStarOpac,RTriangleOpac,RCircleOpac,RHexagonOpac,RStarOpac,LShape_ID,RShape_ID,curr_topStim,curr_bottStim,curr_shape,acc,E1,target_resp_prac1.keys,target_resp_prac1.rt,pracBlock,task1_prac_trials.thisRepN,task1_prac_trials.thisTrialN,task1_prac_trials.thisN,task1_prac_trials.thisIndex,task1_prac_trials.ran,target_resp_prac2.keys,target_resp_prac2.rt,task2_praac_trials.thisRepN,task2_praac_trials.thisTrialN,task2_praac_trials.thisN,task2_praac_trials.thisIndex,task2_praac_trials.ran,alt,task,condition,target_resp.keys,target_resp.rt,rewCond,vts_practice_trials.thisRepN,vts_practice_trials.thisTrialN,vts_practice_trials.thisN,vts_practice_trials.thisIndex,vts_practice_trials.ran,blockNum,trials_norew.thisRepN,trials_norew.thisTrialN,trials_norew.thisN,trials_norew.thisIndex,trials_norew.ran,key_resp_2.keys,key_resp_2.rt,rewExpectancy,trials_rew.thisRepN,trials_rew.thisTrialN,trials_rew.thisN,trials_rew.thisIndex,trials_rew.ran,Q1,Q2,Q2_text,Q3,Q4,Q5_text,Q5,xRes,yRes
296401,2022-12-07_13h03.57.260,vts_reward_expectancy_bt,2022.2.4,Win32,59.31901768,Chrome,1536,960,,,,,,,,,,,,,,,,,,,,,,,,,,,,,,,,,,,,,,,,,,,,,,,,,,,,,,,,,,,,,,,,,,,,,,,,,,,,
296401,2022-12-07_13h03.57.260,vts_reward_expectancy_bt,2022.2.4,Win32,59.31901768,Chrome,1536,960,space,19.6718,,,,,,,,,,,,,,,,,,,,,,,,,,,,,,,,,,,,,,,,,,,,,,,,,,,,,,,,,,,,,,,,,,,,,,,,,,
296401,2022-12-07_13h03.57.260,vts_reward_expectancy_bt,2022.2.4,Win32,59.31901768,Chrome,1536,960,,,,,,,,,,,,,,,,,,,,,,,,,,,,,,,,,,,,,,,,,,,,,,,,,,,,,,,,,,,,,,,,,,,,,,,,,,,,
296401,2022-12-07_13h03.57.260,vts_reward_expectancy_bt,2022.2.4,Win32,59.31901768,Chrome,1536,960,,,l,1.4318,1,1,0,0,0,0,8,1,0,0,1,0,0,0,0,1,hexagon,star,,,,,,,,,,,,,,,,,,,,,,,,,,,,,,,,,,,,,,,,,,,,,,,,,,,,,,
296401,2022-12-07_13h03.57.260,vts_reward_expectancy_bt,2022.2.4,Win32,59.31901768,Chrome,1536,960,,,a,1.2336,10,11,0,0,1,1,2,1,1,0,0,0,0,0,0,1,triangle,star,,,,,,,,,,,,,,,,,,,,,,,,,,,,,,,,,,,,,,,,,,,,,,,,,,,,,,
296401,2022-12-07_13h03.57.260,vts_reward_expectancy_bt,2022.2.4,Win32,59.31901768,Chrome,1536,960,,,l,0.7352,10,21,0,0,2,2,9,1,0,0,0,1,1,0,0,0,star,triangle,,,,,,,,,,,,,,,,,,,,,,,,,,,,,,,,,,,,,,,,,,,,,,,,,,,,,,
296401,2022-12-07_13h03.57.260,vts_reward_expectancy_bt,2022.2.4,Win32,59.31901768,Chrome,1536,960,,,a,1.1827,10,31,0,0,3,3,4,1,0,1,0,0,0,0,1,0,circle,hexagon,,,,,,,,,,,,,,,,,,,,,,,,,,,,,,,,,,,,,,,,,,,,,,,,,,,,,,
296401,2022-12-07_13h03.57.260,vts_reward_expectancy_bt,2022.2.4,Win32,59.31901768,Chrome,1536,960,,,l,1.5514,10,41,0,0,4,4,11,1,0,0,0,1,0,0,1,0,star,hexagon,,,,,,,,,,,,,,,,,,,,,,,,,,,,,,,,,,,,,,,,,,,,,,,,,,,,,,
296401,2022-12-07_13h03.57.260,vts_reward_expectancy_bt,2022.2.4,Win32,59.31901768,Chrome,1536,960,,,l,1.3169,1,42,0,0,5,5,7,1,0,0,1,0,0,1,0,0,hexagon,circle,,,,,,,,,,,,,,,,,,,,,,,,,,,,,,,,,,,,,,,,,,,,,,,,,,,,,,
296401,2022-12-07_13h03.57.260,vts_reward_expectancy_bt,2022.2.4,Win32,59.31901768,Chrome,1536,960,,,a,1.0515,1,43,0,0,6,6,5,1,0,1,0,0,0,0,0,1,circle,star,,,,,,,,,,,,,,,,,,,,,,,,,,,,,,,,,,,,,,,,,,,,,,,,,,,,,,
296401,2022-12-07_13h03.57.260,vts_reward_expectancy_bt,2022.2.4,Win32,59.31901768,Chrome,1536,960,,,l,0.9143,10,53,0,0,7,7,10,1,0,0,0,1,0,1,0,0,star ,circle,,,,,,,,,,,,,,,,,,,,,,,,,,,,,,,,,,,,,,,,,,,,,,,,,,,,,,
296401,2022-12-07_13h03.57.260,vts_reward_expectancy_bt,2022.2.4,Win32,59.31901768,Chrome,1536,960,,,l,0.9232,10,63,0,0,8,8,6,1,0,0,1,0,1,0,0,0,hexagon,triangle,,,,,,,,,,,,,,,,,,,,,,,,,,,,,,,,,,,,,,,,,,,,,,,,,,,,,,
296401,2022-12-07_13h03.57.260,vts_reward_expectancy_bt,2022.2.4,Win32,59.31901768,Chrome,1536,960,,,l,0.9336,10,73,0,0,9,9,3,1,0,1,0,0,1,0,0,0,circle,triangle,,,,,,,,,,,,,,,,,,,,,,,,,,,,,,,,,,,,,,,,,,,,,,,,,,,,,,
296401,2022-12-07_13h03.57.260,vts_reward_expectancy_bt,2022.2.4,Win32,59.31901768,Chrome,1536,960,,,a,0.5998,10,83,0,0,10,10,0,1,1,0,0,0,0,1,0,0,triangle,circle,,,,,,,,,,,,,,,,,,,,,,,,,,,,,,,,,,,,,,,,,,,,,,,,,,,,,,
296401,2022-12-07_13h03.57.260,vts_reward_expectancy_bt,2022.2.4,Win32,59.31901768,Chrome,1536,960,,,a,0.5734,1,84,0,0,11,11,1,1,1,0,0,0,0,0,1,0,triangle,hexagon,,,,,,,,,,,,,,,,,,,,,,,,,,,,,,,,,,,,,,,,,,,,,,,,,,,,,,
296401,2022-12-07_13h03.57.260,vts_reward_expectancy_bt,2022.2.4,Win32,59.31901768,Chrome,1536,960,,,l,0.5547,10,94,0,1,0,12,3,1,0,1,0,0,1,0,0,0,circle,triangle,,,,,,,,,,,,,,,,,,,,,,,,,,,,,,,,,,,,,,,,,,,,,,,,,,,,,,
296401,2022-12-07_13h03.57.260,vts_reward_expectancy_bt,2022.2.4,Win32,59.31901768,Chrome,1536,960,,,l,1.5354,10,104,0,1,1,13,4,1,0,1,0,0,0,0,1,0,circle,hexagon,,,,,,,,,,,,,,,,,,,,,,,,,,,,,,,,,,,,,,,,,,,,,,,,,,,,,,
296401,2022-12-07_13h03.57.260,vts_reward_expectancy_bt,2022.2.4,Win32,59.31901768,Chrome,1536,960,,,l,0.8908,10,114,0,1,2,14,6,1,0,0,1,0,1,0,0,0,hexagon,triangle,,,,,,,,,,,,,,,,,,,,,,,,,,,,,,,,,,,,,,,,,,,,,,,,,,,,,,
296401,2022-12-07_13h03.57.260,vts_reward_expectancy_bt,2022.2.4,Win32,59.31901768,Chrome,1536,960,,,a,0.6336,10,124,0,1,3,15,2,1,1,0,0,0,0,0,0,1,triangle,star,,,,,,,,,,,,,,,,,,,,,,,,,,,,,,,,,,,,,,,,,,,,,,,,,,,,,,
296401,2022-12-07_13h03.57.260,vts_reward_expectancy_bt,2022.2.4,Win32,59.31901768,Chrome,1536,960,,,a,1.6084,10,134,0,1,4,16,5,1,0,1,0,0,0,0,0,1,circle,star,,,,,,,,,,,,,,,,,,,,,,,,,,,,,,,,,,,,,,,,,,,,,,,,,,,,,,
296401,2022-12-07_13h03.57.260,vts_reward_expectancy_bt,2022.2.4,Win32,59.31901768,Chrome,1536,960,,,l,0.4718,1,135,0,1,5,17,9,1,0,0,0,1,1,0,0,0,star,triangle,,,,,,,,,,,,,,,,,,,,,,,,,,,,,,,,,,,,,,,,,,,,,,,,,,,,,,
296401,2022-12-07_13h03.57.260,vts_reward_expectancy_bt,2022.2.4,Win32,59.31901768,Chrome,1536,960,,,l,0.8733,1,136,0,1,6,18,10,1,0,0,0,1,0,1,0,0,star ,circle,,,,,,,,,,,,,,,,,,,,,,,,,,,,,,,,,,,,,,,,,,,,,,,,,,,,,,
296401,2022-12-07_13h03.57.260,vts_reward_expectancy_bt,2022.2.4,Win32,59.31901768,Chrome,1536,960,,,l,1.2089,10,146,0,1,7,19,11,1,0,0,0,1,0,0,1,0,star,hexagon,,,,,,,,,,,,,,,,,,,,,,,,,,,,,,,,,,,,,,,,,,,,,,,,,,,,,,
296401,2022-12-07_13h03.57.260,vts_reward_expectancy_bt,2022.2.4,Win32,59.31901768,Chrome,1536,960,,,a,0.6079,10,156,0,1,8,20,8,1,0,0,1,0,0,0,0,1,hexagon,star,,,,,,,,,,,,,,,,,,,,,,,,,,,,,,,,,,,,,,,,,,,,,,,,,,,,,,
296401,2022-12-07_13h03.57.260,vts_reward_expectancy_bt,2022.2.4,Win32,59.31901768,Chrome,1536,960,,,a,0.7492,10,166,0,1,9,21,0,1,1,0,0,0,0,1,0,0,triangle,circle,,,,,,,,,,,,,,,,,,,,,,,,,,,,,,,,,,,,,,,,,,,,,,,,,,,,,,
296401,2022-12-07_13h03.57.260,vts_reward_expectancy_bt,2022.2.4,Win32,59.31901768,Chrome,1536,960,,,a,1.049,10,176,0,1,10,22,7,1,0,0,1,0,0,1,0,0,hexagon,circle,,,,,,,,,,,,,,,,,,,,,,,,,,,,,,,,,,,,,,,,,,,,,,,,,,,,,,
296401,2022-12-07_13h03.57.260,vts_reward_expectancy_bt,2022.2.4,Win32,59.31901768,Chrome,1536,960,,,a,0.8173,10,186,0,1,11,23,1,1,1,0,0,0,0,0,1,0,triangle,hexagon,,,,,,,,,,,,,,,,,,,,,,,,,,,,,,,,,,,,,,,,,,,,,,,,,,,,,,
296401,2022-12-07_13h03.57.260,vts_reward_expectancy_bt,2022.2.4,Win32,59.31901768,Chrome,1536,960,,,a,1.1138,10,196,0,2,0,24,6,1,0,0,1,0,1,0,0,0,hexagon,triangle,,,,,,,,,,,,,,,,,,,,,,,,,,,,,,,,,,,,,,,,,,,,,,,,,,,,,,
296401,2022-12-07_13h03.57.260,vts_reward_expectancy_bt,2022.2.4,Win32,59.31901768,Chrome,1536,960,,,a,1.2249,10,206,0,2,1,25,10,1,0,0,0,1,0,1,0,0,star ,circle,,,,,,,,,,,,,,,,,,,,,,,,,,,,,,,,,,,,,,,,,,,,,,,,,,,,,,
296401,2022-12-07_13h03.57.260,vts_reward_expectancy_bt,2022.2.4,Win32,59.31901768,Chrome,1536,960,,,l,0.7748,10,216,0,2,2,26,5,1,0,1,0,0,0,0,0,1,circle,star,,,,,,,,,,,,,,,,,,,,,,,,,,,,,,,,,,,,,,,,,,,,,,,,,,,,,,
296401,2022-12-07_13h03.57.260,vts_reward_expectancy_bt,2022.2.4,Win32,59.31901768,Chrome,1536,960,,,l,0.6849,10,226,0,2,3,27,9,1,0,0,0,1,1,0,0,0,star,triangle,,,,,,,,,,,,,,,,,,,,,,,,,,,,,,,,,,,,,,,,,,,,,,,,,,,,,,
296401,2022-12-07_13h03.57.260,vts_reward_expectancy_bt,2022.2.4,Win32,59.31901768,Chrome,1536,960,,,a,0.7217,10,236,0,2,4,28,7,1,0,0,1,0,0,1,0,0,hexagon,circle,,,,,,,,,,,,,,,,,,,,,,,,,,,,,,,,,,,,,,,,,,,,,,,,,,,,,,
296401,2022-12-07_13h03.57.260,vts_reward_expectancy_bt,2022.2.4,Win32,59.31901768,Chrome,1536,960,,,l,0.6749,10,246,0,2,5,29,4,1,0,1,0,0,0,0,1,0,circle,hexagon,,,,,,,,,,,,,,,,,,,,,,,,,,,,,,,,,,,,,,,,,,,,,,,,,,,,,,
296401,2022-12-07_13h03.57.260,vts_reward_expectancy_bt,2022.2.4,Win32,59.31901768,Chrome,1536,960,,,l,1.4027,10,256,0,2,6,30,3,1,0,1,0,0,1,0,0,0,circle,triangle,,,,,,,,,,,,,,,,,,,,,,,,,,,,,,,,,,,,,,,,,,,,,,,,,,,,,,
296401,2022-12-07_13h03.57.260,vts_reward_expectancy_bt,2022.2.4,Win32,59.31901768,Chrome,1536,960,,,a,1.4059,10,266,0,2,7,31,2,1,1,0,0,0,0,0,0,1,triangle,star,,,,,,,,,,,,,,,,,,,,,,,,,,,,,,,,,,,,,,,,,,,,,,,,,,,,,,
296401,2022-12-07_13h03.57.260,vts_reward_expectancy_bt,2022.2.4,Win32,59.31901768,Chrome,1536,960,,,a,1.0471,10,276,0,2,8,32,0,1,1,0,0,0,0,1,0,0,triangle,circle,,,,,,,,,,,,,,,,,,,,,,,,,,,,,,,,,,,,,,,,,,,,,,,,,,,,,,
296401,2022-12-07_13h03.57.260,vts_reward_expectancy_bt,2022.2.4,Win32,59.31901768,Chrome,1536,960,,,a,1.2266,10,286,0,2,9,33,8,1,0,0,1,0,0,0,0,1,hexagon,star,,,,,,,,,,,,,,,,,,,,,,,,,,,,,,,,,,,,,,,,,,,,,,,,,,,,,,
296401,2022-12-07_13h03.57.260,vts_reward_expectancy_bt,2022.2.4,Win32,59.31901768,Chrome,1536,960,,,l,1.2185,1,287,0,2,10,34,11,1,0,0,0,1,0,0,1,0,star,hexagon,,,,,,,,,,,,,,,,,,,,,,,,,,,,,,,,,,,,,,,,,,,,,,,,,,,,,,
296401,2022-12-07_13h03.57.260,vts_reward_expectancy_bt,2022.2.4,Win32,59.31901768,Chrome,1536,960,,,l,1.5883,1,288,0,2,11,35,1,1,1,0,0,0,0,0,1,0,triangle,hexagon,,,,,,,,,,,,,,,,,,,,,,,,,,,,,,,,,,,,,,,,,,,,,,,,,,,,,,
296401,2022-12-07_13h03.57.260,vts_reward_expectancy_bt,2022.2.4,Win32,59.31901768,Chrome,1536,960,,,l,1.2033,1,289,1,0,0,0,6,1,0,0,1,0,1,0,0,0,hexagon,triangle,,,,,,,,,,,,,,,,,,,,,,,,,,,,,,,,,,,,,,,,,,,,,,,,,,,,,,
296401,2022-12-07_13h03.57.260,vts_reward_expectancy_bt,2022.2.4,Win32,59.31901768,Chrome,1536,960,,,l,0.9846,10,299,1,0,1,1,1,1,1,0,0,0,0,0,1,0,triangle,hexagon,,,,,,,,,,,,,,,,,,,,,,,,,,,,,,,,,,,,,,,,,,,,,,,,,,,,,,
296401,2022-12-07_13h03.57.260,vts_reward_expectancy_bt,2022.2.4,Win32,59.31901768,Chrome,1536,960,,,l,0.9766,10,309,1,0,2,2,3,1,0,1,0,0,1,0,0,0,circle,triangle,,,,,,,,,,,,,,,,,,,,,,,,,,,,,,,,,,,,,,,,,,,,,,,,,,,,,,
296401,2022-12-07_13h03.57.260,vts_reward_expectancy_bt,2022.2.4,Win32,59.31901768,Chrome,1536,960,,,l,1.4837,10,319,1,0,3,3,9,1,0,0,0,1,1,0,0,0,star,triangle,,,,,,,,,,,,,,,,,,,,,,,,,,,,,,,,,,,,,,,,,,,,,,,,,,,,,,
296401,2022-12-07_13h03.57.260,vts_reward_expectancy_bt,2022.2.4,Win32,59.31901768,Chrome,1536,960,,,a,1.2426,10,329,1,0,4,4,10,1,0,0,0,1,0,1,0,0,star ,circle,,,,,,,,,,,,,,,,,,,,,,,,,,,,,,,,,,,,,,,,,,,,,,,,,,,,,,
296401,2022-12-07_13h03.57.260,vts_reward_expectancy_bt,2022.2.4,Win32,59.31901768,Chrome,1536,960,,,a,0.8248,10,339,1,0,5,5,7,1,0,0,1,0,0,1,0,0,hexagon,circle,,,,,,,,,,,,,,,,,,,,,,,,,,,,,,,,,,,,,,,,,,,,,,,,,,,,,,
296401,2022-12-07_13h03.57.260,vts_reward_expectancy_bt,2022.2.4,Win32,59.31901768,Chrome,1536,960,,,a,1.1833,1,340,1,0,6,6,2,1,1,0,0,0,0,0,0,1,triangle,star,,,,,,,,,,,,,,,,,,,,,,,,,,,,,,,,,,,,,,,,,,,,,,,,,,,,,,
296401,2022-12-07_13h03.57.260,vts_reward_expectancy_bt,2022.2.4,Win32,59.31901768,Chrome,1536,960,,,l,2.8906,1,341,1,0,7,7,8,1,0,0,1,0,0,0,0,1,hexagon,star,,,,,,,,,,,,,,,,,,,,,,,,,,,,,,,,,,,,,,,,,,,,,,,,,,,,,,
296401,2022-12-07_13h03.57.260,vts_reward_expectancy_bt,2022.2.4,Win32,59.31901768,Chrome,1536,960,,,a,1.0583,10,351,1,0,8,8,0,1,1,0,0,0,0,1,0,0,triangle,circle,,,,,,,,,,,,,,,,,,,,,,,,,,,,,,,,,,,,,,,,,,,,,,,,,,,,,,
296401,2022-12-07_13h03.57.260,vts_reward_expectancy_bt,2022.2.4,Win32,59.31901768,Chrome,1536,960,,,l,1.2736,1,352,1,0,9,9,5,1,0,1,0,0,0,0,0,1,circle,star,,,,,,,,,,,,,,,,,,,,,,,,,,,,,,,,,,,,,,,,,,,,,,,,,,,,,,
296401,2022-12-07_13h03.57.260,vts_reward_expectancy_bt,2022.2.4,Win32,59.31901768,Chrome,1536,960,,,a,1.1509,1,353,1,0,10,10,11,1,0,0,0,1,0,0,1,0,star,hexagon,,,,,,,,,,,,,,,,,,,,,,,,,,,,,,,,,,,,,,,,,,,,,,,,,,,,,,
296401,2022-12-07_13h03.57.260,vts_reward_expectancy_bt,2022.2.4,Win32,59.31901768,Chrome,1536,960,,,l,0.654,1,354,1,0,11,11,4,1,0,1,0,0,0,0,1,0,circle,hexagon,,,,,,,,,,,,,,,,,,,,,,,,,,,,,,,,,,,,,,,,,,,,,,,,,,,,,,
296401,2022-12-07_13h03.57.260,vts_reward_expectancy_bt,2022.2.4,Win32,59.31901768,Chrome,1536,960,,,a,1.8164,1,355,1,1,0,12,10,1,0,0,0,1,0,1,0,0,star ,circle,,,,,,,,,,,,,,,,,,,,,,,,,,,,,,,,,,,,,,,,,,,,,,,,,,,,,,
296401,2022-12-07_13h03.57.260,vts_reward_expectancy_bt,2022.2.4,Win32,59.31901768,Chrome,1536,960,,,l,0.7355,1,356,1,1,1,13,5,1,0,1,0,0,0,0,0,1,circle,star,,,,,,,,,,,,,,,,,,,,,,,,,,,,,,,,,,,,,,,,,,,,,,,,,,,,,,
296401,2022-12-07_13h03.57.260,vts_reward_expectancy_bt,2022.2.4,Win32,59.31901768,Chrome,1536,960,,,a,0.9918,10,366,1,1,2,14,8,1,0,0,1,0,0,0,0,1,hexagon,star,,,,,,,,,,,,,,,,,,,,,,,,,,,,,,,,,,,,,,,,,,,,,,,,,,,,,,
296401,2022-12-07_13h03.57.260,vts_reward_expectancy_bt,2022.2.4,Win32,59.31901768,Chrome,1536,960,,,l,5.1088,1,367,1,1,3,15,4,1,0,1,0,0,0,0,1,0,circle,hexagon,,,,,,,,,,,,,,,,,,,,,,,,,,,,,,,,,,,,,,,,,,,,,,,,,,,,,,
296401,2022-12-07_13h03.57.260,vts_reward_expectancy_bt,2022.2.4,Win32,59.31901768,Chrome,1536,960,,,a,4.24,1,368,1,1,4,16,11,1,0,0,0,1,0,0,1,0,star,hexagon,,,,,,,,,,,,,,,,,,,,,,,,,,,,,,,,,,,,,,,,,,,,,,,,,,,,,,
296401,2022-12-07_13h03.57.260,vts_reward_expectancy_bt,2022.2.4,Win32,59.31901768,Chrome,1536,960,,,l,1.224,10,378,1,1,5,17,9,1,0,0,0,1,1,0,0,0,star,triangle,,,,,,,,,,,,,,,,,,,,,,,,,,,,,,,,,,,,,,,,,,,,,,,,,,,,,,
296401,2022-12-07_13h03.57.260,vts_reward_expectancy_bt,2022.2.4,Win32,59.31901768,Chrome,1536,960,,,l,3.0867,1,379,1,1,6,18,2,1,1,0,0,0,0,0,0,1,triangle,star,,,,,,,,,,,,,,,,,,,,,,,,,,,,,,,,,,,,,,,,,,,,,,,,,,,,,,
296401,2022-12-07_13h03.57.260,vts_reward_expectancy_bt,2022.2.4,Win32,59.31901768,Chrome,1536,960,,,a,1.2278,10,389,1,1,7,19,7,1,0,0,1,0,0,1,0,0,hexagon,circle,,,,,,,,,,,,,,,,,,,,,,,,,,,,,,,,,,,,,,,,,,,,,,,,,,,,,,
296401,2022-12-07_13h03.57.260,vts_reward_expectancy_bt,2022.2.4,Win32,59.31901768,Chrome,1536,960,,,a,0.8035,1,390,1,1,8,20,0,1,1,0,0,0,0,1,0,0,triangle,circle,,,,,,,,,,,,,,,,,,,,,,,,,,,,,,,,,,,,,,,,,,,,,,,,,,,,,,
296401,2022-12-07_13h03.57.260,vts_reward_expectancy_bt,2022.2.4,Win32,59.31901768,Chrome,1536,960,,,l,0.8099,1,391,1,1,9,21,1,1,1,0,0,0,0,0,1,0,triangle,hexagon,,,,,,,,,,,,,,,,,,,,,,,,,,,,,,,,,,,,,,,,,,,,,,,,,,,,,,
296401,2022-12-07_13h03.57.260,vts_reward_expectancy_bt,2022.2.4,Win32,59.31901768,Chrome,1536,960,,,l,0.565,10,401,1,1,10,22,3,1,0,1,0,0,1,0,0,0,circle,triangle,,,,,,,,,,,,,,,,,,,,,,,,,,,,,,,,,,,,,,,,,,,,,,,,,,,,,,
296401,2022-12-07_13h03.57.260,vts_reward_expectancy_bt,2022.2.4,Win32,59.31901768,Chrome,1536,960,,,a,1.153,10,411,1,1,11,23,6,1,0,0,1,0,1,0,0,0,hexagon,triangle,,,,,,,,,,,,,,,,,,,,,,,,,,,,,,,,,,,,,,,,,,,,,,,,,,,,,,
296401,2022-12-07_13h03.57.260,vts_reward_expectancy_bt,2022.2.4,Win32,59.31901768,Chrome,1536,960,,,l,0.5706,1,412,1,2,0,24,2,1,1,0,0,0,0,0,0,1,triangle,star,,,,,,,,,,,,,,,,,,,,,,,,,,,,,,,,,,,,,,,,,,,,,,,,,,,,,,
296401,2022-12-07_13h03.57.260,vts_reward_expectancy_bt,2022.2.4,Win32,59.31901768,Chrome,1536,960,,,l,0.787,1,413,1,2,1,25,6,1,0,0,1,0,1,0,0,0,hexagon,triangle,,,,,,,,,,,,,,,,,,,,,,,,,,,,,,,,,,,,,,,,,,,,,,,,,,,,,,
296401,2022-12-07_13h03.57.260,vts_reward_expectancy_bt,2022.2.4,Win32,59.31901768,Chrome,1536,960,,,l,0.656,10,423,1,2,2,26,1,1,1,0,0,0,0,0,1,0,triangle,hexagon,,,,,,,,,,,,,,,,,,,,,,,,,,,,,,,,,,,,,,,,,,,,,,,,,,,,,,
296401,2022-12-07_13h03.57.260,vts_reward_expectancy_bt,2022.2.4,Win32,59.31901768,Chrome,1536,960,,,a,0.6011,10,433,1,2,3,27,7,1,0,0,1,0,0,1,0,0,hexagon,circle,,,,,,,,,,,,,,,,,,,,,,,,,,,,,,,,,,,,,,,,,,,,,,,,,,,,,,
296401,2022-12-07_13h03.57.260,vts_reward_expectancy_bt,2022.2.4,Win32,59.31901768,Chrome,1536,960,,,a,1.1186,10,443,1,2,4,28,8,1,0,0,1,0,0,0,0,1,hexagon,star,,,,,,,,,,,,,,,,,,,,,,,,,,,,,,,,,,,,,,,,,,,,,,,,,,,,,,
296401,2022-12-07_13h03.57.260,vts_reward_expectancy_bt,2022.2.4,Win32,59.31901768,Chrome,1536,960,,,l,0.6902,10,453,1,2,5,29,4,1,0,1,0,0,0,0,1,0,circle,hexagon,,,,,,,,,,,,,,,,,,,,,,,,,,,,,,,,,,,,,,,,,,,,,,,,,,,,,,
296401,2022-12-07_13h03.57.260,vts_reward_expectancy_bt,2022.2.4,Win32,59.31901768,Chrome,1536,960,,,a,1.1872,10,463,1,2,6,30,10,1,0,0,0,1,0,1,0,0,star ,circle,,,,,,,,,,,,,,,,,,,,,,,,,,,,,,,,,,,,,,,,,,,,,,,,,,,,,,
296401,2022-12-07_13h03.57.260,vts_reward_expectancy_bt,2022.2.4,Win32,59.31901768,Chrome,1536,960,,,l,0.7421,1,464,1,2,7,31,5,1,0,1,0,0,0,0,0,1,circle,star,,,,,,,,,,,,,,,,,,,,,,,,,,,,,,,,,,,,,,,,,,,,,,,,,,,,,,
296401,2022-12-07_13h03.57.260,vts_reward_expectancy_bt,2022.2.4,Win32,59.31901768,Chrome,1536,960,,,a,0.5885,1,465,1,2,8,32,11,1,0,0,0,1,0,0,1,0,star,hexagon,,,,,,,,,,,,,,,,,,,,,,,,,,,,,,,,,,,,,,,,,,,,,,,,,,,,,,
296401,2022-12-07_13h03.57.260,vts_reward_expectancy_bt,2022.2.4,Win32,59.31901768,Chrome,1536,960,,,l,0.9937,1,466,1,2,9,33,3,1,0,1,0,0,1,0,0,0,circle,triangle,,,,,,,,,,,,,,,,,,,,,,,,,,,,,,,,,,,,,,,,,,,,,,,,,,,,,,
296401,2022-12-07_13h03.57.260,vts_reward_expectancy_bt,2022.2.4,Win32,59.31901768,Chrome,1536,960,,,l,1.5033,10,476,1,2,10,34,9,1,0,0,0,1,1,0,0,0,star,triangle,,,,,,,,,,,,,,,,,,,,,,,,,,,,,,,,,,,,,,,,,,,,,,,,,,,,,,
296401,2022-12-07_13h03.57.260,vts_reward_expectancy_bt,2022.2.4,Win32,59.31901768,Chrome,1536,960,,,a,0.6739,10,486,1,2,11,35,0,1,1,0,0,0,0,1,0,0,triangle,circle,,,,,,,,,,,,,,,,,,,,,,,,,,,,,,,,,,,,,,,,,,,,,,,,,,,,,,
296401,2022-12-07_13h03.57.260,vts_reward_expectancy_bt,2022.2.4,Win32,59.31901768,Chrome,1536,960,,,a,1.1987,10,496,2,0,0,0,11,1,0,0,0,1,0,0,1,0,star,hexagon,,,,,,,,,,,,,,,,,,,,,,,,,,,,,,,,,,,,,,,,,,,,,,,,,,,,,,
296401,2022-12-07_13h03.57.260,vts_reward_expectancy_bt,2022.2.4,Win32,59.31901768,Chrome,1536,960,,,l,1.2668,10,506,2,0,1,1,1,1,1,0,0,0,0,0,1,0,triangle,hexagon,,,,,,,,,,,,,,,,,,,,,,,,,,,,,,,,,,,,,,,,,,,,,,,,,,,,,,
296401,2022-12-07_13h03.57.260,vts_reward_expectancy_bt,2022.2.4,Win32,59.31901768,Chrome,1536,960,,,a,1.2206,1,507,2,0,2,2,2,1,1,0,0,0,0,0,0,1,triangle,star,,,,,,,,,,,,,,,,,,,,,,,,,,,,,,,,,,,,,,,,,,,,,,,,,,,,,,
296401,2022-12-07_13h03.57.260,vts_reward_expectancy_bt,2022.2.4,Win32,59.31901768,Chrome,1536,960,,,l,0.6328,10,517,2,0,3,3,3,1,0,1,0,0,1,0,0,0,circle,triangle,,,,,,,,,,,,,,,,,,,,,,,,,,,,,,,,,,,,,,,,,,,,,,,,,,,,,,
296401,2022-12-07_13h03.57.260,vts_reward_expectancy_bt,2022.2.4,Win32,59.31901768,Chrome,1536,960,,,l,1.5211,10,527,2,0,4,4,9,1,0,0,0,1,1,0,0,0,star,triangle,,,,,,,,,,,,,,,,,,,,,,,,,,,,,,,,,,,,,,,,,,,,,,,,,,,,,,
296401,2022-12-07_13h03.57.260,vts_reward_expectancy_bt,2022.2.4,Win32,59.31901768,Chrome,1536,960,,,a,0.6145,10,537,2,0,5,5,10,1,0,0,0,1,0,1,0,0,star ,circle,,,,,,,,,,,,,,,,,,,,,,,,,,,,,,,,,,,,,,,,,,,,,,,,,,,,,,
296401,2022-12-07_13h03.57.260,vts_reward_expectancy_bt,2022.2.4,Win32,59.31901768,Chrome,1536,960,,,a,0.8853,10,547,2,0,6,6,6,1,0,0,1,0,1,0,0,0,hexagon,triangle,,,,,,,,,,,,,,,,,,,,,,,,,,,,,,,,,,,,,,,,,,,,,,,,,,,,,,
296401,2022-12-07_13h03.57.260,vts_reward_expectancy_bt,2022.2.4,Win32,59.31901768,Chrome,1536,960,,,l,0.8711,1,548,2,0,7,7,8,1,0,0,1,0,0,0,0,1,hexagon,star,,,,,,,,,,,,,,,,,,,,,,,,,,,,,,,,,,,,,,,,,,,,,,,,,,,,,,
296401,2022-12-07_13h03.57.260,vts_reward_expectancy_bt,2022.2.4,Win32,59.31901768,Chrome,1536,960,,,a,0.6107,1,549,2,0,8,8,0,1,1,0,0,0,0,1,0,0,triangle,circle,,,,,,,,,,,,,,,,,,,,,,,,,,,,,,,,,,,,,,,,,,,,,,,,,,,,,,
296401,2022-12-07_13h03.57.260,vts_reward_expectancy_bt,2022.2.4,Win32,59.31901768,Chrome,1536,960,,,l,1.036,10,559,2,0,9,9,5,1,0,1,0,0,0,0,0,1,circle,star,,,,,,,,,,,,,,,,,,,,,,,,,,,,,,,,,,,,,,,,,,,,,,,,,,,,,,
296401,2022-12-07_13h03.57.260,vts_reward_expectancy_bt,2022.2.4,Win32,59.31901768,Chrome,1536,960,,,l,0.8729,10,569,2,0,10,10,4,1,0,1,0,0,0,0,1,0,circle,hexagon,,,,,,,,,,,,,,,,,,,,,,,,,,,,,,,,,,,,,,,,,,,,,,,,,,,,,,
296401,2022-12-07_13h03.57.260,vts_reward_expectancy_bt,2022.2.4,Win32,59.31901768,Chrome,1536,960,,,a,1.2394,10,579,2,0,11,11,7,1,0,0,1,0,0,1,0,0,hexagon,circle,,,,,,,,,,,,,,,,,,,,,,,,,,,,,,,,,,,,,,,,,,,,,,,,,,,,,,
296401,2022-12-07_13h03.57.260,vts_reward_expectancy_bt,2022.2.4,Win32,59.31901768,Chrome,1536,960,,,l,0.8062,1,580,2,1,0,12,8,1,0,0,1,0,0,0,0,1,hexagon,star,,,,,,,,,,,,,,,,,,,,,,,,,,,,,,,,,,,,,,,,,,,,,,,,,,,,,,
296401,2022-12-07_13h03.57.260,vts_reward_expectancy_bt,2022.2.4,Win32,59.31901768,Chrome,1536,960,,,l,0.8039,10,590,2,1,1,13,4,1,0,1,0,0,0,0,1,0,circle,hexagon,,,,,,,,,,,,,,,,,,,,,,,,,,,,,,,,,,,,,,,,,,,,,,,,,,,,,,
296401,2022-12-07_13h03.57.260,vts_reward_expectancy_bt,2022.2.4,Win32,59.31901768,Chrome,1536,960,,,a,0.7511,10,600,2,1,2,14,2,1,1,0,0,0,0,0,0,1,triangle,star,,,,,,,,,,,,,,,,,,,,,,,,,,,,,,,,,,,,,,,,,,,,,,,,,,,,,,
296401,2022-12-07_13h03.57.260,vts_reward_expectancy_bt,2022.2.4,Win32,59.31901768,Chrome,1536,960,,,l,0.8532,10,610,2,1,3,15,1,1,1,0,0,0,0,0,1,0,triangle,hexagon,,,,,,,,,,,,,,,,,,,,,,,,,,,,,,,,,,,,,,,,,,,,,,,,,,,,,,
296401,2022-12-07_13h03.57.260,vts_reward_expectancy_bt,2022.2.4,Win32,59.31901768,Chrome,1536,960,,,a,0.5844,10,620,2,1,4,16,10,1,0,0,0,1,0,1,0,0,star ,circle,,,,,,,,,,,,,,,,,,,,,,,,,,,,,,,,,,,,,,,,,,,,,,,,,,,,,,
296401,2022-12-07_13h03.57.260,vts_reward_expectancy_bt,2022.2.4,Win32,59.31901768,Chrome,1536,960,,,l,0.5352,10,630,2,1,5,17,3,1,0,1,0,0,1,0,0,0,circle,triangle,,,,,,,,,,,,,,,,,,,,,,,,,,,,,,,,,,,,,,,,,,,,,,,,,,,,,,
296401,2022-12-07_13h03.57.260,vts_reward_expectancy_bt,2022.2.4,Win32,59.31901768,Chrome,1536,960,,,l,0.6873,10,640,2,1,6,18,5,1,0,1,0,0,0,0,0,1,circle,star,,,,,,,,,,,,,,,,,,,,,,,,,,,,,,,,,,,,,,,,,,,,,,,,,,,,,,
296401,2022-12-07_13h03.57.260,vts_reward_expectancy_bt,2022.2.4,Win32,59.31901768,Chrome,1536,960,,,a,1.6533,10,650,2,1,7,19,6,1,0,0,1,0,1,0,0,0,hexagon,triangle,,,,,,,,,,,,,,,,,,,,,,,,,,,,,,,,,,,,,,,,,,,,,,,,,,,,,,
296401,2022-12-07_13h03.57.260,vts_reward_expectancy_bt,2022.2.4,Win32,59.31901768,Chrome,1536,960,,,a,1.6666,1,651,2,1,8,20,0,1,1,0,0,0,0,1,0,0,triangle,circle,,,,,,,,,,,,,,,,,,,,,,,,,,,,,,,,,,,,,,,,,,,,,,,,,,,,,,
296401,2022-12-07_13h03.57.260,vts_reward_expectancy_bt,2022.2.4,Win32,59.31901768,Chrome,1536,960,,,l,0.6345,10,661,2,1,9,21,9,1,0,0,0,1,1,0,0,0,star,triangle,,,,,,,,,,,,,,,,,,,,,,,,,,,,,,,,,,,,,,,,,,,,,,,,,,,,,,
296401,2022-12-07_13h03.57.260,vts_reward_expectancy_bt,2022.2.4,Win32,59.31901768,Chrome,1536,960,,,a,1.3026,1,662,2,1,10,22,11,1,0,0,0,1,0,0,1,0,star,hexagon,,,,,,,,,,,,,,,,,,,,,,,,,,,,,,,,,,,,,,,,,,,,,,,,,,,,,,
296401,2022-12-07_13h03.57.260,vts_reward_expectancy_bt,2022.2.4,Win32,59.31901768,Chrome,1536,960,,,a,4.6149,10,672,2,1,11,23,7,1,0,0,1,0,0,1,0,0,hexagon,circle,,,,,,,,,,,,,,,,,,,,,,,,,,,,,,,,,,,,,,,,,,,,,,,,,,,,,,
296401,2022-12-07_13h03.57.260,vts_reward_expectancy_bt,2022.2.4,Win32,59.31901768,Chrome,1536,960,,,l,2.3993,1,673,2,2,0,24,2,1,1,0,0,0,0,0,0,1,triangle,star,,,,,,,,,,,,,,,,,,,,,,,,,,,,,,,,,,,,,,,,,,,,,,,,,,,,,,
296401,2022-12-07_13h03.57.260,vts_reward_expectancy_bt,2022.2.4,Win32,59.31901768,Chrome,1536,960,,,a,5.1122,10,683,2,2,1,25,1,1,1,0,0,0,0,0,1,0,triangle,hexagon,,,,,,,,,,,,,,,,,,,,,,,,,,,,,,,,,,,,,,,,,,,,,,,,,,,,,,
296401,2022-12-07_13h03.57.260,vts_reward_expectancy_bt,2022.2.4,Win32,59.31901768,Chrome,1536,960,,,l,0.6355,10,693,2,2,2,26,11,1,0,0,0,1,0,0,1,0,star,hexagon,,,,,,,,,,,,,,,,,,,,,,,,,,,,,,,,,,,,,,,,,,,,,,,,,,,,,,
296401,2022-12-07_13h03.57.260,vts_reward_expectancy_bt,2022.2.4,Win32,59.31901768,Chrome,1536,960,,,a,0.4822,1,694,2,2,3,27,3,1,0,1,0,0,1,0,0,0,circle,triangle,,,,,,,,,,,,,,,,,,,,,,,,,,,,,,,,,,,,,,,,,,,,,,,,,,,,,,
296401,2022-12-07_13h03.57.260,vts_reward_expectancy_bt,2022.2.4,Win32,59.31901768,Chrome,1536,960,,,a,3.3601,10,704,2,2,4,28,7,1,0,0,1,0,0,1,0,0,hexagon,circle,,,,,,,,,,,,,,,,,,,,,,,,,,,,,,,,,,,,,,,,,,,,,,,,,,,,,,
296401,2022-12-07_13h03.57.260,vts_reward_expectancy_bt,2022.2.4,Win32,59.31901768,Chrome,1536,960,,,l,6.4258,1,705,2,2,5,29,9,1,0,0,0,1,1,0,0,0,star,triangle,,,,,,,,,,,,,,,,,,,,,,,,,,,,,,,,,,,,,,,,,,,,,,,,,,,,,,
296401,2022-12-07_13h03.57.260,vts_reward_expectancy_bt,2022.2.4,Win32,59.31901768,Chrome,1536,960,,,l,2.6386,1,706,2,2,6,30,5,1,0,1,0,0,0,0,0,1,circle,star,,,,,,,,,,,,,,,,,,,,,,,,,,,,,,,,,,,,,,,,,,,,,,,,,,,,,,
296401,2022-12-07_13h03.57.260,vts_reward_expectancy_bt,2022.2.4,Win32,59.31901768,Chrome,1536,960,,,a,0.5604,10,716,2,2,7,31,6,1,0,0,1,0,1,0,0,0,hexagon,triangle,,,,,,,,,,,,,,,,,,,,,,,,,,,,,,,,,,,,,,,,,,,,,,,,,,,,,,
296401,2022-12-07_13h03.57.260,vts_reward_expectancy_bt,2022.2.4,Win32,59.31901768,Chrome,1536,960,,,a,1.4348,1,717,2,2,8,32,0,1,1,0,0,0,0,1,0,0,triangle,circle,,,,,,,,,,,,,,,,,,,,,,,,,,,,,,,,,,,,,,,,,,,,,,,,,,,,,,
296401,2022-12-07_13h03.57.260,vts_reward_expectancy_bt,2022.2.4,Win32,59.31901768,Chrome,1536,960,,,l,1.4055,1,718,2,2,9,33,10,1,0,0,0,1,0,1,0,0,star ,circle,,,,,,,,,,,,,,,,,,,,,,,,,,,,,,,,,,,,,,,,,,,,,,,,,,,,,,
296401,2022-12-07_13h03.57.260,vts_reward_expectancy_bt,2022.2.4,Win32,59.31901768,Chrome,1536,960,,,a,0.6381,1,719,2,2,10,34,8,1,0,0,1,0,0,0,0,1,hexagon,star,,,,,,,,,,,,,,,,,,,,,,,,,,,,,,,,,,,,,,,,,,,,,,,,,,,,,,
296401,2022-12-07_13h03.57.260,vts_reward_expectancy_bt,2022.2.4,Win32,59.31901768,Chrome,1536,960,,,l,0.7855,1,720,2,2,11,35,4,1,0,1,0,0,0,0,1,0,circle,hexagon,,,,,,,,,,,,,,,,,,,,,,,,,,,,,,,,,,,,,,,,,,,,,,,,,,,,,,
296401,2022-12-07_13h03.57.260,vts_reward_expectancy_bt,2022.2.4,Win32,59.31901768,Chrome,1536,960,,,,,,,,,,,,,,,,,,,,,,,D,132,hexagon,1,0,d,1.1854,0,0,0,0,0,1,,,,,,,,,,,,,,,,,,,,,,,,,,,,,,,,,,,,,,,,,
296401,2022-12-07_13h03.57.260,vts_reward_expectancy_bt,2022.2.4,Win32,59.31901768,Chrome,1536,960,,,,,,,,,,,,,,,,,,,,,,,B,167,triangle,1,0,d,0.7243,0,1,0,1,0,1,,,,,,,,,,,,,,,,,,,,,,,,,,,,,,,,,,,,,,,,,
296401,2022-12-07_13h03.57.260,vts_reward_expectancy_bt,2022.2.4,Win32,59.31901768,Chrome,1536,960,,,,,,,,,,,,,,,,,,,,,,,Y,146,circle,1,0,f,0.7534,0,2,0,2,0,1,,,,,,,,,,,,,,,,,,,,,,,,,,,,,,,,,,,,,,,,,
296401,2022-12-07_13h03.57.260,vts_reward_expectancy_bt,2022.2.4,Win32,59.31901768,Chrome,1536,960,,,,,,,,,,,,,,,,,,,,,,,F,174,star,1,0,d,1.2257,0,3,0,3,0,1,,,,,,,,,,,,,,,,,,,,,,,,,,,,,,,,,,,,,,,,,
296401,2022-12-07_13h03.57.260,vts_reward_expectancy_bt,2022.2.4,Win32,59.31901768,Chrome,1536,960,,,,,,,,,,,,,,,,,,,,,,,W,139,hexagon,1,0,f,0.6037,0,4,0,4,0,1,,,,,,,,,,,,,,,,,,,,,,,,,,,,,,,,,,,,,,,,,
296401,2022-12-07_13h03.57.260,vts_reward_expectancy_bt,2022.2.4,Win32,59.31901768,Chrome,1536,960,,,,,,,,,,,,,,,,,,,,,,,U,181,triangle,1,0,f,0.888,0,5,0,5,0,1,,,,,,,,,,,,,,,,,,,,,,,,,,,,,,,,,,,,,,,,,
296401,2022-12-07_13h03.57.260,vts_reward_expectancy_bt,2022.2.4,Win32,59.31901768,Chrome,1536,960,,,,,,,,,,,,,,,,,,,,,,,S,125,circle,1,0,f,0.8704,0,6,0,6,0,1,,,,,,,,,,,,,,,,,,,,,,,,,,,,,,,,,,,,,,,,,
296401,2022-12-07_13h03.57.260,vts_reward_expectancy_bt,2022.2.4,Win32,59.31901768,Chrome,1536,960,,,,,,,,,,,,,,,,,,,,,,,H,160,star,1,0,d,0.8027,0,7,0,7,0,1,,,,,,,,,,,,,,,,,,,,,,,,,,,,,,,,,,,,,,,,,
296401,2022-12-07_13h03.57.260,vts_reward_expectancy_bt,2022.2.4,Win32,59.31901768,Chrome,1536,960,,,,,,,,,,,,,,,,,,,,,,,D,132,star,1,0,d,0.6729,0,8,0,8,0,1,,,,,,,,,,,,,,,,,,,,,,,,,,,,,,,,,,,,,,,,,
296401,2022-12-07_13h03.57.260,vts_reward_expectancy_bt,2022.2.4,Win32,59.31901768,Chrome,1536,960,,,,,,,,,,,,,,,,,,,,,,,B,167,triangle,1,0,d,0.5591,0,9,0,9,0,1,,,,,,,,,,,,,,,,,,,,,,,,,,,,,,,,,,,,,,,,,
296401,2022-12-07_13h03.57.260,vts_reward_expectancy_bt,2022.2.4,Win32,59.31901768,Chrome,1536,960,,,,,,,,,,,,,,,,,,,,,,,U,160,hexagon,1,0,,,1,,,,,,k,1.3832,0,0,0,0,1,,,,,,,,,,,,,,,,,,,,,,,,,,,,,,,,,,
296401,2022-12-07_13h03.57.260,vts_reward_expectancy_bt,2022.2.4,Win32,59.31901768,Chrome,1536,960,,,,,,,,,,,,,,,,,,,,,,,S,125,circle,1,0,,,1,,,,,,j,0.5927,1,0,1,0,1,,,,,,,,,,,,,,,,,,,,,,,,,,,,,,,,,,
296401,2022-12-07_13h03.57.260,vts_reward_expectancy_bt,2022.2.4,Win32,59.31901768,Chrome,1536,960,,,,,,,,,,,,,,,,,,,,,,,D,132,star,1,0,,,1,,,,,,j,1.2423,2,0,2,0,1,,,,,,,,,,,,,,,,,,,,,,,,,,,,,,,,,,
296401,2022-12-07_13h03.57.260,vts_reward_expectancy_bt,2022.2.4,Win32,59.31901768,Chrome,1536,960,,,,,,,,,,,,,,,,,,,,,,,Y,167,triangle,1,0,,,1,,,,,,k,0.6892,3,0,3,0,1,,,,,,,,,,,,,,,,,,,,,,,,,,,,,,,,,,
296401,2022-12-07_13h03.57.260,vts_reward_expectancy_bt,2022.2.4,Win32,59.31901768,Chrome,1536,960,,,,,,,,,,,,,,,,,,,,,,,F,174,hexagon,1,0,,,1,,,,,,k,0.9361,4,0,4,0,1,,,,,,,,,,,,,,,,,,,,,,,,,,,,,,,,,,
296401,2022-12-07_13h03.57.260,vts_reward_expectancy_bt,2022.2.4,Win32,59.31901768,Chrome,1536,960,,,,,,,,,,,,,,,,,,,,,,,H,181,circle,1,0,,,1,,,,,,k,1.2346,5,0,5,0,1,,,,,,,,,,,,,,,,,,,,,,,,,,,,,,,,,,
296401,2022-12-07_13h03.57.260,vts_reward_expectancy_bt,2022.2.4,Win32,59.31901768,Chrome,1536,960,,,,,,,,,,,,,,,,,,,,,,,B,139,star,0,0,,,1,,,,,,k,1.0249,6,0,6,0,1,,,,,,,,,,,,,,,,,,,,,,,,,,,,,,,,,,
296401,2022-12-07_13h03.57.260,vts_reward_expectancy_bt,2022.2.4,Win32,59.31901768,Chrome,1536,960,,,,,,,,,,,,,,,,,,,,,,,W,146,triangle,0,1,,,1,,,,,,k,0.7188,7,0,7,0,1,,,,,,,,,,,,,,,,,,,,,,,,,,,,,,,,,,
296401,2022-12-07_13h03.57.260,vts_reward_expectancy_bt,2022.2.4,Win32,59.31901768,Chrome,1536,960,,,,,,,,,,,,,,,,,,,,,,,U,160,triangle,1,1,,,1,,,,,,k,0.9179,8,0,8,0,1,,,,,,,,,,,,,,,,,,,,,,,,,,,,,,,,,,
296401,2022-12-07_13h03.57.260,vts_reward_expectancy_bt,2022.2.4,Win32,59.31901768,Chrome,1536,960,,,,,,,,,,,,,,,,,,,,,,,S,125,hexagon,1,0,,,1,,,,,,j,0.5888,9,0,9,0,1,,,,,,,,,,,,,,,,,,,,,,,,,,,,,,,,,,
296401,2022-12-07_13h03.57.260,vts_reward_expectancy_bt,2022.2.4,Win32,59.31901768,Chrome,1536,960,,,,,,,,,,,,,,,,,,,,,,,F,139,circle,1,0,,,2,,,,,,j,1.0459,0,0,0,0,1,,,,,,,,,,,,,,,,,,,,,,,,,,,,,,,,,,
296401,2022-12-07_13h03.57.260,vts_reward_expectancy_bt,2022.2.4,Win32,59.31901768,Chrome,1536,960,,,,,,,,,,,,,,,,,,,,,,,U,181,star,1,0,,,2,,,,,,k,0.6138,1,0,1,0,1,,,,,,,,,,,,,,,,,,,,,,,,,,,,,,,,,,
296401,2022-12-07_13h03.57.260,vts_reward_expectancy_bt,2022.2.4,Win32,59.31901768,Chrome,1536,960,,,,,,,,,,,,,,,,,,,,,,,S,160,hexagon,1,0,,,2,,,,,,k,0.7849,2,0,2,0,1,,,,,,,,,,,,,,,,,,,,,,,,,,,,,,,,,,
296401,2022-12-07_13h03.57.260,vts_reward_expectancy_bt,2022.2.4,Win32,59.31901768,Chrome,1536,960,,,,,,,,,,,,,,,,,,,,,,,Y,167,triangle,1,0,,,2,,,,,,k,0.6648,3,0,3,0,1,,,,,,,,,,,,,,,,,,,,,,,,,,,,,,,,,,
296401,2022-12-07_13h03.57.260,vts_reward_expectancy_bt,2022.2.4,Win32,59.31901768,Chrome,1536,960,,,,,,,,,,,,,,,,,,,,,,,D,132,circle,1,0,,,2,,,,,,j,0.8641,4,0,4,0,1,,,,,,,,,,,,,,,,,,,,,,,,,,,,,,,,,,
296401,2022-12-07_13h03.57.260,vts_reward_expectancy_bt,2022.2.4,Win32,59.31901768,Chrome,1536,960,,,,,,,,,,,,,,,,,,,,,,,B,125,star,1,0,,,2,,,,,,j,0.7202,5,0,5,0,1,,,,,,,,,,,,,,,,,,,,,,,,,,,,,,,,,,
296401,2022-12-07_13h03.57.260,vts_reward_expectancy_bt,2022.2.4,Win32,59.31901768,Chrome,1536,960,,,,,,,,,,,,,,,,,,,,,,,H,146,hexagon,1,0,,,2,,,,,,j,1.6495,6,0,6,0,1,,,,,,,,,,,,,,,,,,,,,,,,,,,,,,,,,,
296401,2022-12-07_13h03.57.260,vts_reward_expectancy_bt,2022.2.4,Win32,59.31901768,Chrome,1536,960,,,,,,,,,,,,,,,,,,,,,,,W,174,triangle,1,0,,,2,,,,,,k,1.0336,7,0,7,0,1,,,,,,,,,,,,,,,,,,,,,,,,,,,,,,,,,,
296401,2022-12-07_13h03.57.260,vts_reward_expectancy_bt,2022.2.4,Win32,59.31901768,Chrome,1536,960,,,,,,,,,,,,,,,,,,,,,,,F,139,star,1,0,,,2,,,,,,j,1.3338,8,0,8,0,1,,,,,,,,,,,,,,,,,,,,,,,,,,,,,,,,,,
296401,2022-12-07_13h03.57.260,vts_reward_expectancy_bt,2022.2.4,Win32,59.31901768,Chrome,1536,960,,,,,,,,,,,,,,,,,,,,,,,U,181,hexagon,1,0,,,2,,,,,,k,1.7653,9,0,9,0,1,,,,,,,,,,,,,,,,,,,,,,,,,,,,,,,,,,
296401,2022-12-07_13h03.57.260,vts_reward_expectancy_bt,2022.2.4,Win32,59.31901768,Chrome,1536,960,,,,,0,720,,,,,,,,,,,,,,,,,F,146,star,1,0,,,3,,,,,,,,,,,,,-1,letter,NA,d,1.8584,vtsPrac,0,0,0,0,1,,,,,,,,,,,,,,,,,,,,,,,
296401,2022-12-07_13h03.57.260,vts_reward_expectancy_bt,2022.2.4,Win32,59.31901768,Chrome,1536,960,,,,,0,720,,,,,,,,,,,,,,,,,W,139,hexagon,1,0,,,3,,,,,,,,,,,,,switch,number,numSwt,j,1.0352,vtsPrac,1,0,1,0,1,,,,,,,,,,,,,,,,,,,,,,,
296401,2022-12-07_13h03.57.260,vts_reward_expectancy_bt,2022.2.4,Win32,59.31901768,Chrome,1536,960,,,,,0,720,,,,,,,,,,,,,,,,,H,181,star,1,0,,,3,,,,,,,,,,,,,switch,letter,lettSwt,d,0.7575,vtsPrac,2,0,2,0,1,,,,,,,,,,,,,,,,,,,,,,,
296401,2022-12-07_13h03.57.260,vts_reward_expectancy_bt,2022.2.4,Win32,59.31901768,Chrome,1536,960,,,,,0,720,,,,,,,,,,,,,,,,,D,132,hexagon,1,0,,,3,,,,,,,,,,,,,repeat,letter,lettRpt,d,0.8563,vtsPrac,3,0,3,0,1,,,,,,,,,,,,,,,,,,,,,,,
296401,2022-12-07_13h03.57.260,vts_reward_expectancy_bt,2022.2.4,Win32,59.31901768,Chrome,1536,960,,,,,0,720,,,,,,,,,,,,,,,,,F,146,triangle,1,0,,,3,,,,,,,,,,,,,switch,number,numSwt,j,1.1489,vtsPrac,4,0,4,0,1,,,,,,,,,,,,,,,,,,,,,,,
296401,2022-12-07_13h03.57.260,vts_reward_expectancy_bt,2022.2.4,Win32,59.31901768,Chrome,1536,960,,,,,0,720,,,,,,,,,,,,,,,,,W,139,star,1,0,,,3,,,,,,,,,,,,,switch,letter,lettSwt,f,1.1307,vtsPrac,5,0,5,0,1,,,,,,,,,,,,,,,,,,,,,,,
296401,2022-12-07_13h03.57.260,vts_reward_expectancy_bt,2022.2.4,Win32,59.31901768,Chrome,1536,960,,,,,0,720,,,,,,,,,,,,,,,,,H,181,triangle,1,0,,,3,,,,,,,,,,,,,switch,number,numSwt,k,0.8542,vtsPrac,6,0,6,0,1,,,,,,,,,,,,,,,,,,,,,,,
296401,2022-12-07_13h03.57.260,vts_reward_expectancy_bt,2022.2.4,Win32,59.31901768,Chrome,1536,960,,,,,0,720,,,,,,,,,,,,,,,,,D,132,star,1,0,,,3,,,,,,,,,,,,,repeat,number,numRpt,j,0.6382,vtsPrac,7,0,7,0,1,,,,,,,,,,,,,,,,,,,,,,,
296401,2022-12-07_13h03.57.260,vts_reward_expectancy_bt,2022.2.4,Win32,59.31901768,Chrome,1536,960,,,,,0,720,,,,,,,,,,,,,,,,,W,132,star,1,0,,,3,,,,,,,,,,,,,repeat,number,numRpt,j,0.8809,vtsPrac,8,0,8,0,1,,,,,,,,,,,,,,,,,,,,,,,
296401,2022-12-07_13h03.57.260,vts_reward_expectancy_bt,2022.2.4,Win32,59.31901768,Chrome,1536,960,,,,,0,720,,,,,,,,,,,,,,,,,Y,125,triangle,1,0,,,3,,,,,,,,,,,,,repeat,number,numRpt,j,0.8478,vtsPrac,9,0,9,0,1,,,,,,,,,,,,,,,,,,,,,,,
296401,2022-12-07_13h03.57.260,vts_reward_expectancy_bt,2022.2.4,Win32,59.31901768,Chrome,1536,960,,,,,0,720,,,,,,,,,,,,,,,,,B,139,star,1,0,,,3,,,,,,,,,,,,,switch,letter,lettSwt,d,1.6213,vtsPrac,10,0,10,0,1,,,,,,,,,,,,,,,,,,,,,,,
296401,2022-12-07_13h03.57.260,vts_reward_expectancy_bt,2022.2.4,Win32,59.31901768,Chrome,1536,960,,,,,0,720,,,,,,,,,,,,,,,,,H,181,triangle,1,0,,,3,,,,,,,,,,,,,repeat,letter,lettRpt,d,0.8901,vtsPrac,11,0,11,0,1,,,,,,,,,,,,,,,,,,,,,,,
296401,2022-12-07_13h03.57.260,vts_reward_expectancy_bt,2022.2.4,Win32,59.31901768,Chrome,1536,960,,,,,0,720,,,,,,,,,,,,,,,,,B,160,hexagon,1,0,,,3,,,,,,,,,,,,,repeat,letter,lettRpt,d,0.8465,vtsPrac,12,0,12,0,1,,,,,,,,,,,,,,,,,,,,,,,
296401,2022-12-07_13h03.57.260,vts_reward_expectancy_bt,2022.2.4,Win32,59.31901768,Chrome,1536,960,,,,,0,720,,,,,,,,,,,,,,,,,F,181,star,1,0,,,3,,,,,,,,,,,,,repeat,letter,lettRpt,d,0.6673,vtsPrac,13,0,13,0,1,,,,,,,,,,,,,,,,,,,,,,,
296401,2022-12-07_13h03.57.260,vts_reward_expectancy_bt,2022.2.4,Win32,59.31901768,Chrome,1536,960,,,,,0,720,,,,,,,,,,,,,,,,,Y,132,star,1,0,,,3,,,,,,,,,,,,,repeat,letter,lettRpt,f,1.003,vtsPrac,14,0,14,0,1,,,,,,,,,,,,,,,,,,,,,,,
296401,2022-12-07_13h03.57.260,vts_reward_expectancy_bt,2022.2.4,Win32,59.31901768,Chrome,1536,960,,,,,0,720,,,,,,,,,,,,,,,,,H,139,triangle,1,0,,,3,,,,,,,,,,,,,switch,number,numSwt,j,1.065,vtsPrac,15,0,15,0,1,,,,,,,,,,,,,,,,,,,,,,,
296401,2022-12-07_13h03.57.260,vts_reward_expectancy_bt,2022.2.4,Win32,59.31901768,Chrome,1536,960,,,,,0,720,,,,,,,,,,,,,,,,,B,139,circle,1,0,,,3,,,,,,,,,,,,,repeat,number,numRpt,j,0.937,vtsPrac,16,0,16,0,1,,,,,,,,,,,,,,,,,,,,,,,
296401,2022-12-07_13h03.57.260,vts_reward_expectancy_bt,2022.2.4,Win32,59.31901768,Chrome,1536,960,,,,,0,720,,,,,,,,,,,,,,,,,Y,160,triangle,1,0,,,3,,,,,,,,,,,,,repeat,number,numRpt,k,1.1205,vtsPrac,17,0,17,0,1,,,,,,,,,,,,,,,,,,,,,,,
296401,2022-12-07_13h03.57.260,vts_reward_expectancy_bt,2022.2.4,Win32,59.31901768,Chrome,1536,960,,,,,0,720,,,,,,,,,,,,,,,,,S,132,star,1,0,,,3,,,,,,,,,,,,,switch,letter,lettSwt,f,1.5213,vtsPrac,18,0,18,0,1,,,,,,,,,,,,,,,,,,,,,,,
296401,2022-12-07_13h03.57.260,vts_reward_expectancy_bt,2022.2.4,Win32,59.31901768,Chrome,1536,960,,,,,0,720,,,,,,,,,,,,,,,,,H,174,triangle,1,0,,,3,,,,,,,,,,,,,switch,number,numSwt,k,0.7994,vtsPrac,19,0,19,0,1,,,,,,,,,,,,,,,,,,,,,,,
296401,2022-12-07_13h03.57.260,vts_reward_expectancy_bt,2022.2.4,Win32,59.31901768,Chrome,1536,960,,,,,0,720,,,,,,,,,,,,,,,,,H,146,hexagon,1,0,,,3,,,,,,,,,,,,,switch,letter,lettSwt,d,1.3154,vtsPrac,20,0,20,0,1,,,,,,,,,,,,,,,,,,,,,,,
296401,2022-12-07_13h03.57.260,vts_reward_expectancy_bt,2022.2.4,Win32,59.31901768,Chrome,1536,960,,,,,0,720,,,,,,,,,,,,,,,,,B,160,star,1,0,,,3,,,,,,,,,,,,,repeat,letter,lettRpt,d,0.7314,vtsPrac,21,0,21,0,1,,,,,,,,,,,,,,,,,,,,,,,
296401,2022-12-07_13h03.57.260,vts_reward_expectancy_bt,2022.2.4,Win32,59.31901768,Chrome,1536,960,,,,,0,720,,,,,,,,,,,,,,,,,Y,167,triangle,1,0,,,3,,,,,,,,,,,,,switch,number,numSwt,k,0.7673,vtsPrac,22,0,22,0,1,,,,,,,,,,,,,,,,,,,,,,,
296401,2022-12-07_13h03.57.260,vts_reward_expectancy_bt,2022.2.4,Win32,59.31901768,Chrome,1536,960,,,,,0,720,,,,,,,,,,,,,,,,,D,125,star,1,0,,,3,,,,,,,,,,,,,repeat,number,numRpt,j,0.8462,vtsPrac,23,0,23,0,1,,,,,,,,,,,,,,,,,,,,,,,
296401,2022-12-07_13h03.57.260,vts_reward_expectancy_bt,2022.2.4,Win32,59.31901768,Chrome,1536,960,,,,,0,720,,,,,,,,,,,,,,,,,S,167,hexagon,1,0,,,3,,,,,,,,,,,,,repeat,number,numRpt,k,2.4693,vtsPrac,24,0,24,0,1,,,,,,,,,,,,,,,,,,,,,,,
296401,2022-12-07_13h03.57.260,vts_reward_expectancy_bt,2022.2.4,Win32,59.31901768,Chrome,1536,960,,,,,0,720,,,,,,,,,,,,,,,,,W,181,star,1,0,,,3,,,,,,,,,,,,,switch,letter,lettSwt,f,0.9809,vtsPrac,25,0,25,0,1,,,,,,,,,,,,,,,,,,,,,,,
296401,2022-12-07_13h03.57.260,vts_reward_expectancy_bt,2022.2.4,Win32,59.31901768,Chrome,1536,960,,,,,0,720,,,,,,,,,,,,,,,,,D,174,hexagon,1,0,,,3,,,,,,,,,,,,,repeat,letter,lettRpt,d,0.9045,vtsPrac,26,0,26,0,1,,,,,,,,,,,,,,,,,,,,,,,
296401,2022-12-07_13h03.57.260,vts_reward_expectancy_bt,2022.2.4,Win32,59.31901768,Chrome,1536,960,,,,,0,720,,,,,,,,,,,,,,,,,B,160,triangle,1,0,,,3,,,,,,,,,,,,,switch,number,numSwt,k,0.5996,vtsPrac,27,0,27,0,1,,,,,,,,,,,,,,,,,,,,,,,
296401,2022-12-07_13h03.57.260,vts_reward_expectancy_bt,2022.2.4,Win32,59.31901768,Chrome,1536,960,,,,,0,720,,,,,,,,,,,,,,,,,F,167,circle,1,0,,,3,,,,,,,,,,,,,switch,letter,lettSwt,d,0.7344,vtsPrac,28,0,28,0,1,,,,,,,,,,,,,,,,,,,,,,,
296401,2022-12-07_13h03.57.260,vts_reward_expectancy_bt,2022.2.4,Win32,59.31901768,Chrome,1536,960,,,,,0,720,,,,,,,,,,,,,,,,,D,174,star,1,0,,,3,,,,,,,,,,,,,repeat,letter,lettRpt,d,0.7656,vtsPrac,29,0,29,0,1,,,,,,,,,,,,,,,,,,,,,,,
296401,2022-12-07_13h03.57.260,vts_reward_expectancy_bt,2022.2.4,Win32,59.31901768,Chrome,1536,960,,,,,0,720,,,,,,,,,,,,,,,,,U,181,hexagon,1,0,,,3,,,,,,,,,,,,,repeat,letter,lettRpt,f,0.8984,vtsPrac,30,0,30,0,1,,,,,,,,,,,,,,,,,,,,,,,
296401,2022-12-07_13h03.57.260,vts_reward_expectancy_bt,2022.2.4,Win32,59.31901768,Chrome,1536,960,,,,,0,720,,,,,,,,,,,,,,,,,S,132,star,1,0,,,3,,,,,,,,,,,,,switch,number,numSwt,j,0.6673,vtsPrac,31,0,31,0,1,,,,,,,,,,,,,,,,,,,,,,,
296401,2022-12-07_13h03.57.260,vts_reward_expectancy_bt,2022.2.4,Win32,59.31901768,Chrome,1536,960,,,,,,,,,,,,,,,,,,,,,,,,,,,,,,,,,,,,,,,,,,,,,,,,,,,,,,,,,,,,,,,,,,,,,,,,,,,,
296401,2022-12-07_13h03.57.260,vts_reward_expectancy_bt,2022.2.4,Win32,59.31901768,Chrome,1536,960,,,,,,,,,,,,,,,,,,,,,,,,,,,,,,,,,,,,,,,,,,,,,,,,,,,,,,,,,,,,,,,,,,,,,,,,,,,,
296401,2022-12-07_13h03.57.260,vts_reward_expectancy_bt,2022.2.4,Win32,59.31901768,Chrome,1536,960,,,,,0,720,,,,,,,,,,,,,,,,,W,139,hexagon,1,0,,,,,,,,,,,,,,,,switch,letter,lettSwt,f,0.9143,noRew,,,,,,0,0,0,0,0,1,,,,,,,,,,,,,,,,,
296401,2022-12-07_13h03.57.260,vts_reward_expectancy_bt,2022.2.4,Win32,59.31901768,Chrome,1536,960,,,,,0,720,,,,,,,,,,,,,,,,,H,132,circle,1,0,,,,,,,,,,,,,,,,repeat,letter,lettRpt,d,1.0489,noRew,,,,,,0,1,0,1,0,1,,,,,,,,,,,,,,,,,
296401,2022-12-07_13h03.57.260,vts_reward_expectancy_bt,2022.2.4,Win32,59.31901768,Chrome,1536,960,,,,,0,720,,,,,,,,,,,,,,,,,S,160,hexagon,1,0,,,,,,,,,,,,,,,,repeat,letter,lettRpt,f,1.4372,noRew,,,,,,0,2,0,2,0,1,,,,,,,,,,,,,,,,,
296401,2022-12-07_13h03.57.260,vts_reward_expectancy_bt,2022.2.4,Win32,59.31901768,Chrome,1536,960,,,,,0,720,,,,,,,,,,,,,,,,,U,125,circle,1,0,,,,,,,,,,,,,,,,switch,number,numSwt,j,1.7198,noRew,,,,,,0,3,0,3,0,1,,,,,,,,,,,,,,,,,
296401,2022-12-07_13h03.57.260,vts_reward_expectancy_bt,2022.2.4,Win32,59.31901768,Chrome,1536,960,,,,,0,720,,,,,,,,,,,,,,,,,W,139,star,0,0,,,,,,,,,,,,,,,,repeat,number,NA,k,1.8986,noRew,,,,,,0,4,0,4,0,1,,,,,,,,,,,,,,,,,
296401,2022-12-07_13h03.57.260,vts_reward_expectancy_bt,2022.2.4,Win32,59.31901768,Chrome,1536,960,,,,,0,720,,,,,,,,,,,,,,,,,H,132,triangle,1,1,,,,,,,,,,,,,,,,repeat,number,numRpt,j,0.6401,noRew,,,,,,0,5,0,5,0,1,,,,,,,,,,,,,,,,,
296401,2022-12-07_13h03.57.260,vts_reward_expectancy_bt,2022.2.4,Win32,59.31901768,Chrome,1536,960,,,,,0,720,,,,,,,,,,,,,,,,,S,160,star,1,0,,,,,,,,,,,,,,,,repeat,number,numRpt,k,1.366,noRew,,,,,,0,6,0,6,0,1,,,,,,,,,,,,,,,,,
296401,2022-12-07_13h03.57.260,vts_reward_expectancy_bt,2022.2.4,Win32,59.31901768,Chrome,1536,960,,,,,0,720,,,,,,,,,,,,,,,,,U,125,triangle,1,0,,,,,,,,,,,,,,,,switch,letter,lettSwt,f,0.8022,noRew,,,,,,0,7,0,7,0,1,,,,,,,,,,,,,,,,,
296401,2022-12-07_13h03.57.260,vts_reward_expectancy_bt,2022.2.4,Win32,59.31901768,Chrome,1536,960,,,,,0,720,,,,,,,,,,,,,,,,,S,146,triangle,1,0,,,,,,,,,,,,,,,,switch,number,numSwt,j,1.7355,noRew,,,,,,0,8,0,8,0,1,,,,,,,,,,,,,,,,,
296401,2022-12-07_13h03.57.260,vts_reward_expectancy_bt,2022.2.4,Win32,59.31901768,Chrome,1536,960,,,,,0,720,,,,,,,,,,,,,,,,,Y,174,hexagon,1,0,,,,,,,,,,,,,,,,switch,letter,lettSwt,f,0.9918,noRew,,,,,,0,9,0,9,0,1,,,,,,,,,,,,,,,,,
296401,2022-12-07_13h03.57.260,vts_reward_expectancy_bt,2022.2.4,Win32,59.31901768,Chrome,1536,960,,,,,0,720,,,,,,,,,,,,,,,,,B,167,hexagon,1,0,,,,,,,,,,,,,,,,repeat,letter,lettRpt,d,0.7774,noRew,,,,,,0,10,0,10,0,1,,,,,,,,,,,,,,,,,
296401,2022-12-07_13h03.57.260,vts_reward_expectancy_bt,2022.2.4,Win32,59.31901768,Chrome,1536,960,,,,,0,720,,,,,,,,,,,,,,,,,W,132,triangle,1,0,,,,,,,,,,,,,,,,repeat,letter,lettRpt,f,0.9531,noRew,,,,,,0,11,0,11,0,1,,,,,,,,,,,,,,,,,
296401,2022-12-07_13h03.57.260,vts_reward_expectancy_bt,2022.2.4,Win32,59.31901768,Chrome,1536,960,,,,,0,720,,,,,,,,,,,,,,,,,H,146,star,1,0,,,,,,,,,,,,,,,,switch,number,numSwt,j,0.9856,noRew,,,,,,0,12,0,12,0,1,,,,,,,,,,,,,,,,,
296401,2022-12-07_13h03.57.260,vts_reward_expectancy_bt,2022.2.4,Win32,59.31901768,Chrome,1536,960,,,,,0,720,,,,,,,,,,,,,,,,,D,125,hexagon,1,0,,,,,,,,,,,,,,,,switch,letter,lettSwt,d,0.9881,noRew,,,,,,0,13,0,13,0,1,,,,,,,,,,,,,,,,,
296401,2022-12-07_13h03.57.260,vts_reward_expectancy_bt,2022.2.4,Win32,59.31901768,Chrome,1536,960,,,,,0,720,,,,,,,,,,,,,,,,,S,160,triangle,1,0,,,,,,,,,,,,,,,,repeat,letter,lettRpt,f,1.1702,noRew,,,,,,0,14,0,14,0,1,,,,,,,,,,,,,,,,,
296401,2022-12-07_13h03.57.260,vts_reward_expectancy_bt,2022.2.4,Win32,59.31901768,Chrome,1536,960,,,,,0,720,,,,,,,,,,,,,,,,,U,132,circle,1,0,,,,,,,,,,,,,,,,repeat,letter,lettRpt,f,0.9342,noRew,,,,,,0,15,0,15,0,1,,,,,,,,,,,,,,,,,
296401,2022-12-07_13h03.57.260,vts_reward_expectancy_bt,2022.2.4,Win32,59.31901768,Chrome,1536,960,,,,,0,720,,,,,,,,,,,,,,,,,F,146,hexagon,1,0,,,,,,,,,,,,,,,,switch,number,numSwt,j,0.7744,noRew,,,,,,0,16,0,16,0,1,,,,,,,,,,,,,,,,,
296401,2022-12-07_13h03.57.260,vts_reward_expectancy_bt,2022.2.4,Win32,59.31901768,Chrome,1536,960,,,,,0,720,,,,,,,,,,,,,,,,,U,160,star,1,0,,,,,,,,,,,,,,,,repeat,number,numRpt,k,0.9063,noRew,,,,,,0,17,0,17,0,1,,,,,,,,,,,,,,,,,
296401,2022-12-07_13h03.57.260,vts_reward_expectancy_bt,2022.2.4,Win32,59.31901768,Chrome,1536,960,,,,,0,720,,,,,,,,,,,,,,,,,D,132,circle,1,0,,,,,,,,,,,,,,,,switch,letter,lettSwt,d,0.9379,noRew,,,,,,0,18,0,18,0,1,,,,,,,,,,,,,,,,,
296401,2022-12-07_13h03.57.260,vts_reward_expectancy_bt,2022.2.4,Win32,59.31901768,Chrome,1536,960,,,,,0,720,,,,,,,,,,,,,,,,,B,181,star,1,0,,,,,,,,,,,,,,,,repeat,letter,lettRpt,d,0.7718,noRew,,,,,,0,19,0,19,0,1,,,,,,,,,,,,,,,,,
296401,2022-12-07_13h03.57.260,vts_reward_expectancy_bt,2022.2.4,Win32,59.31901768,Chrome,1536,960,,,,,0,720,,,,,,,,,,,,,,,,,F,167,star,1,0,,,,,,,,,,,,,,,,switch,number,numSwt,k,0.7559,noRew,,,,,,0,20,0,20,0,1,,,,,,,,,,,,,,,,,
296401,2022-12-07_13h03.57.260,vts_reward_expectancy_bt,2022.2.4,Win32,59.31901768,Chrome,1536,960,,,,,0,720,,,,,,,,,,,,,,,,,H,181,triangle,1,0,,,,,,,,,,,,,,,,switch,letter,lettSwt,d,1.6391,noRew,,,,,,0,21,0,21,0,1,,,,,,,,,,,,,,,,,
296401,2022-12-07_13h03.57.260,vts_reward_expectancy_bt,2022.2.4,Win32,59.31901768,Chrome,1536,960,,,,,0,720,,,,,,,,,,,,,,,,,Y,174,triangle,1,0,,,,,,,,,,,,,,,,switch,number,numSwt,k,1.5205,noRew,,,,,,0,22,0,22,0,1,,,,,,,,,,,,,,,,,
296401,2022-12-07_13h03.57.260,vts_reward_expectancy_bt,2022.2.4,Win32,59.31901768,Chrome,1536,960,,,,,0,720,,,,,,,,,,,,,,,,,S,125,circle,1,0,,,,,,,,,,,,,,,,repeat,number,numRpt,j,1.744,noRew,,,,,,0,23,0,23,0,1,,,,,,,,,,,,,,,,,
296401,2022-12-07_13h03.57.260,vts_reward_expectancy_bt,2022.2.4,Win32,59.31901768,Chrome,1536,960,,,,,0,720,,,,,,,,,,,,,,,,,D,160,triangle,1,0,,,,,,,,,,,,,,,,switch,letter,lettSwt,d,1.3936,noRew,,,,,,0,24,0,24,0,1,,,,,,,,,,,,,,,,,
296401,2022-12-07_13h03.57.260,vts_reward_expectancy_bt,2022.2.4,Win32,59.31901768,Chrome,1536,960,,,,,0,720,,,,,,,,,,,,,,,,,Y,181,hexagon,1,0,,,,,,,,,,,,,,,,repeat,letter,lettRpt,f,1.1232,noRew,,,,,,0,25,0,25,0,1,,,,,,,,,,,,,,,,,
296401,2022-12-07_13h03.57.260,vts_reward_expectancy_bt,2022.2.4,Win32,59.31901768,Chrome,1536,960,,,,,0,720,,,,,,,,,,,,,,,,,W,139,triangle,1,0,,,,,,,,,,,,,,,,switch,number,numSwt,j,0.9729,noRew,,,,,,0,26,0,26,0,1,,,,,,,,,,,,,,,,,
296401,2022-12-07_13h03.57.260,vts_reward_expectancy_bt,2022.2.4,Win32,59.31901768,Chrome,1536,960,,,,,0,720,,,,,,,,,,,,,,,,,H,125,circle,1,0,,,,,,,,,,,,,,,,repeat,number,numRpt,j,0.8688,noRew,,,,,,0,27,0,27,0,1,,,,,,,,,,,,,,,,,
296401,2022-12-07_13h03.57.260,vts_reward_expectancy_bt,2022.2.4,Win32,59.31901768,Chrome,1536,960,,,,,0,720,,,,,,,,,,,,,,,,,Y,174,triangle,1,0,,,,,,,,,,,,,,,,switch,letter,lettSwt,f,1.4581,noRew,,,,,,0,28,0,28,0,1,,,,,,,,,,,,,,,,,
296401,2022-12-07_13h03.57.260,vts_reward_expectancy_bt,2022.2.4,Win32,59.31901768,Chrome,1536,960,,,,,0,720,,,,,,,,,,,,,,,,,D,132,circle,1,0,,,,,,,,,,,,,,,,switch,number,numSwt,j,0.6199,noRew,,,,,,0,29,0,29,0,1,,,,,,,,,,,,,,,,,
296401,2022-12-07_13h03.57.260,vts_reward_expectancy_bt,2022.2.4,Win32,59.31901768,Chrome,1536,960,,,,,0,720,,,,,,,,,,,,,,,,,U,160,star,1,0,,,,,,,,,,,,,,,,repeat,number,numRpt,k,1.3103,noRew,,,,,,0,30,0,30,0,1,,,,,,,,,,,,,,,,,
296401,2022-12-07_13h03.57.260,vts_reward_expectancy_bt,2022.2.4,Win32,59.31901768,Chrome,1536,960,,,,,0,720,,,,,,,,,,,,,,,,,F,167,triangle,1,0,,,,,,,,,,,,,,,,repeat,number,numRpt,k,0.5234,noRew,,,,,,0,31,0,31,0,1,,,,,,,,,,,,,,,,,
296401,2022-12-07_13h03.57.260,vts_reward_expectancy_bt,2022.2.4,Win32,59.31901768,Chrome,1536,960,,,,,0,720,,,,,,,,,,,,,,,,,B,139,hexagon,1,0,,,,,,,,,,,,,,,,repeat,number,numRpt,j,1.1703,noRew,,,,,,0,32,0,32,0,1,,,,,,,,,,,,,,,,,
296401,2022-12-07_13h03.57.260,vts_reward_expectancy_bt,2022.2.4,Win32,59.31901768,Chrome,1536,960,,,,,0,720,,,,,,,,,,,,,,,,,U,160,star,1,0,,,,,,,,,,,,,,,,switch,letter,lettSwt,f,0.7814,noRew,,,,,,0,33,0,33,0,1,,,,,,,,,,,,,,,,,
296401,2022-12-07_13h03.57.260,vts_reward_expectancy_bt,2022.2.4,Win32,59.31901768,Chrome,1536,960,,,,,0,720,,,,,,,,,,,,,,,,,H,132,star,1,0,,,,,,,,,,,,,,,,repeat,letter,lettRpt,d,1.76,noRew,,,,,,0,34,0,34,0,1,,,,,,,,,,,,,,,,,
296401,2022-12-07_13h03.57.260,vts_reward_expectancy_bt,2022.2.4,Win32,59.31901768,Chrome,1536,960,,,,,0,720,,,,,,,,,,,,,,,,,Y,167,circle,1,0,,,,,,,,,,,,,,,,repeat,letter,lettRpt,f,2.1286,noRew,,,,,,0,35,0,35,0,1,,,,,,,,,,,,,,,,,
296401,2022-12-07_13h03.57.260,vts_reward_expectancy_bt,2022.2.4,Win32,59.31901768,Chrome,1536,960,,,,,0,720,,,,,,,,,,,,,,,,,U,167,star,1,0,,,,,,,,,,,,,,,,repeat,letter,lettRpt,f,0.9397,noRew,,,,,,0,36,0,36,0,1,,,,,,,,,,,,,,,,,
296401,2022-12-07_13h03.57.260,vts_reward_expectancy_bt,2022.2.4,Win32,59.31901768,Chrome,1536,960,,,,,0,720,,,,,,,,,,,,,,,,,D,125,circle,1,0,,,,,,,,,,,,,,,,switch,number,numSwt,j,0.6845,noRew,,,,,,0,37,0,37,0,1,,,,,,,,,,,,,,,,,
296401,2022-12-07_13h03.57.260,vts_reward_expectancy_bt,2022.2.4,Win32,59.31901768,Chrome,1536,960,,,,,0,720,,,,,,,,,,,,,,,,,F,139,star,1,0,,,,,,,,,,,,,,,,repeat,number,numRpt,j,0.9077,noRew,,,,,,0,38,0,38,0,1,,,,,,,,,,,,,,,,,
296401,2022-12-07_13h03.57.260,vts_reward_expectancy_bt,2022.2.4,Win32,59.31901768,Chrome,1536,960,,,,,0,720,,,,,,,,,,,,,,,,,B,132,circle,1,0,,,,,,,,,,,,,,,,repeat,number,numRpt,j,0.7774,noRew,,,,,,0,39,0,39,0,1,,,,,,,,,,,,,,,,,
296401,2022-12-07_13h03.57.260,vts_reward_expectancy_bt,2022.2.4,Win32,59.31901768,Chrome,1536,960,,,,,0,720,,,,,,,,,,,,,,,,,D,146,hexagon,1,0,,,,,,,,,,,,,,,,repeat,number,numRpt,j,0.8379,noRew,,,,,,0,40,0,40,0,1,,,,,,,,,,,,,,,,,
296401,2022-12-07_13h03.57.260,vts_reward_expectancy_bt,2022.2.4,Win32,59.31901768,Chrome,1536,960,,,,,0,720,,,,,,,,,,,,,,,,,S,125,triangle,1,0,,,,,,,,,,,,,,,,repeat,number,numRpt,j,1.3092,noRew,,,,,,0,41,0,41,0,1,,,,,,,,,,,,,,,,,
296401,2022-12-07_13h03.57.260,vts_reward_expectancy_bt,2022.2.4,Win32,59.31901768,Chrome,1536,960,,,,,0,720,,,,,,,,,,,,,,,,,W,181,hexagon,1,0,,,,,,,,,,,,,,,,repeat,number,numRpt,k,1.204,noRew,,,,,,0,42,0,42,0,1,,,,,,,,,,,,,,,,,
296401,2022-12-07_13h03.57.260,vts_reward_expectancy_bt,2022.2.4,Win32,59.31901768,Chrome,1536,960,,,,,0,720,,,,,,,,,,,,,,,,,F,174,star,1,0,,,,,,,,,,,,,,,,switch,letter,lettSwt,d,1.2435,noRew,,,,,,0,43,0,43,0,1,,,,,,,,,,,,,,,,,
296401,2022-12-07_13h03.57.260,vts_reward_expectancy_bt,2022.2.4,Win32,59.31901768,Chrome,1536,960,,,,,0,720,,,,,,,,,,,,,,,,,D,181,circle,1,0,,,,,,,,,,,,,,,,repeat,letter,lettRpt,d,1.0245,noRew,,,,,,0,44,0,44,0,1,,,,,,,,,,,,,,,,,
296401,2022-12-07_13h03.57.260,vts_reward_expectancy_bt,2022.2.4,Win32,59.31901768,Chrome,1536,960,,,,,0,720,,,,,,,,,,,,,,,,,U,139,hexagon,1,0,,,,,,,,,,,,,,,,repeat,letter,lettRpt,f,1.2682,noRew,,,,,,0,45,0,45,0,1,,,,,,,,,,,,,,,,,
296401,2022-12-07_13h03.57.260,vts_reward_expectancy_bt,2022.2.4,Win32,59.31901768,Chrome,1536,960,,,,,0,720,,,,,,,,,,,,,,,,,S,160,star,1,0,,,,,,,,,,,,,,,,switch,number,numSwt,k,1.7083,noRew,,,,,,0,46,0,46,0,1,,,,,,,,,,,,,,,,,
296401,2022-12-07_13h03.57.260,vts_reward_expectancy_bt,2022.2.4,Win32,59.31901768,Chrome,1536,960,,,,,0,720,,,,,,,,,,,,,,,,,B,167,triangle,1,0,,,,,,,,,,,,,,,,repeat,number,numRpt,k,1.3179,noRew,,,,,,0,47,0,47,0,1,,,,,,,,,,,,,,,,,
296401,2022-12-07_13h03.57.260,vts_reward_expectancy_bt,2022.2.4,Win32,59.31901768,Chrome,1536,960,,,,,0,720,,,,,,,,,,,,,,,,,D,146,hexagon,1,0,,,,,,,,,,,,,,,,repeat,number,numRpt,j,1.4203,noRew,,,,,,0,48,0,48,0,1,,,,,,,,,,,,,,,,,
296401,2022-12-07_13h03.57.260,vts_reward_expectancy_bt,2022.2.4,Win32,59.31901768,Chrome,1536,960,,,,,0,720,,,,,,,,,,,,,,,,,B,125,circle,1,0,,,,,,,,,,,,,,,,switch,letter,lettSwt,d,1.2417,noRew,,,,,,0,49,0,49,0,1,,,,,,,,,,,,,,,,,
296401,2022-12-07_13h03.57.260,vts_reward_expectancy_bt,2022.2.4,Win32,59.31901768,Chrome,1536,960,,,,,0,720,,,,,,,,,,,,,,,,,F,181,star,1,0,,,,,,,,,,,,,,,,repeat,letter,lettRpt,d,1.103,noRew,,,,,,0,50,0,50,0,1,,,,,,,,,,,,,,,,,
296401,2022-12-07_13h03.57.260,vts_reward_expectancy_bt,2022.2.4,Win32,59.31901768,Chrome,1536,960,,,,,0,720,,,,,,,,,,,,,,,,,U,174,triangle,1,0,,,,,,,,,,,,,,,,repeat,letter,lettRpt,f,0.9724,noRew,,,,,,0,51,0,51,0,1,,,,,,,,,,,,,,,,,
296401,2022-12-07_13h03.57.260,vts_reward_expectancy_bt,2022.2.4,Win32,59.31901768,Chrome,1536,960,,,,,0,720,,,,,,,,,,,,,,,,,Y,181,triangle,1,0,,,,,,,,,,,,,,,,switch,number,numSwt,k,0.8741,noRew,,,,,,0,52,0,52,0,1,,,,,,,,,,,,,,,,,
296401,2022-12-07_13h03.57.260,vts_reward_expectancy_bt,2022.2.4,Win32,59.31901768,Chrome,1536,960,,,,,0,720,,,,,,,,,,,,,,,,,H,139,circle,1,0,,,,,,,,,,,,,,,,repeat,number,numRpt,j,1.0697,noRew,,,,,,0,53,0,53,0,1,,,,,,,,,,,,,,,,,
296401,2022-12-07_13h03.57.260,vts_reward_expectancy_bt,2022.2.4,Win32,59.31901768,Chrome,1536,960,,,,,0,720,,,,,,,,,,,,,,,,,D,160,triangle,1,0,,,,,,,,,,,,,,,,repeat,number,numRpt,k,1.9182,noRew,,,,,,0,54,0,54,0,1,,,,,,,,,,,,,,,,,
296401,2022-12-07_13h03.57.260,vts_reward_expectancy_bt,2022.2.4,Win32,59.31901768,Chrome,1536,960,,,,,0,720,,,,,,,,,,,,,,,,,U,125,circle,-1,0,,,,,,,,,,,,,,,,switch,no_choice,NA,,,noRew,,,,,,0,55,0,55,0,1,,,,,,,,,,,,,,,,,
296401,2022-12-07_13h03.57.260,vts_reward_expectancy_bt,2022.2.4,Win32,59.31901768,Chrome,1536,960,,,,,0,720,,,,,,,,,,,,,,,,,B,139,star,1,0,,,,,,,,,,,,,,,,switch,letter,lettSwt,d,0.9437,noRew,,,,,,0,56,0,56,0,1,,,,,,,,,,,,,,,,,
296401,2022-12-07_13h03.57.260,vts_reward_expectancy_bt,2022.2.4,Win32,59.31901768,Chrome,1536,960,,,,,0,720,,,,,,,,,,,,,,,,,W,132,circle,1,0,,,,,,,,,,,,,,,,repeat,letter,lettRpt,f,0.7208,noRew,,,,,,0,57,0,57,0,1,,,,,,,,,,,,,,,,,
296401,2022-12-07_13h03.57.260,vts_reward_expectancy_bt,2022.2.4,Win32,59.31901768,Chrome,1536,960,,,,,0,720,,,,,,,,,,,,,,,,,F,160,hexagon,1,0,,,,,,,,,,,,,,,,switch,number,numSwt,k,0.6049,noRew,,,,,,0,58,0,58,0,1,,,,,,,,,,,,,,,,,
296401,2022-12-07_13h03.57.260,vts_reward_expectancy_bt,2022.2.4,Win32,59.31901768,Chrome,1536,960,,,,,0,720,,,,,,,,,,,,,,,,,S,174,circle,1,0,,,,,,,,,,,,,,,,repeat,number,numRpt,k,1.0082,noRew,,,,,,0,59,0,59,0,1,,,,,,,,,,,,,,,,,
296401,2022-12-07_13h03.57.260,vts_reward_expectancy_bt,2022.2.4,Win32,59.31901768,Chrome,1536,960,,,,,0,720,,,,,,,,,,,,,,,,,H,181,triangle,1,0,,,,,,,,,,,,,,,,repeat,number,numRpt,k,1.1727,noRew,,,,,,0,60,0,60,0,1,,,,,,,,,,,,,,,,,
296401,2022-12-07_13h03.57.260,vts_reward_expectancy_bt,2022.2.4,Win32,59.31901768,Chrome,1536,960,,,,,0,720,,,,,,,,,,,,,,,,,B,160,star,1,0,,,,,,,,,,,,,,,,repeat,number,numRpt,k,0.8522,noRew,,,,,,0,61,0,61,0,1,,,,,,,,,,,,,,,,,
296401,2022-12-07_13h03.57.260,vts_reward_expectancy_bt,2022.2.4,Win32,59.31901768,Chrome,1536,960,,,,,0,720,,,,,,,,,,,,,,,,,D,125,triangle,1,0,,,,,,,,,,,,,,,,switch,letter,lettSwt,d,0.8903,noRew,,,,,,0,62,0,62,0,1,,,,,,,,,,,,,,,,,
296401,2022-12-07_13h03.57.260,vts_reward_expectancy_bt,2022.2.4,Win32,59.31901768,Chrome,1536,960,,,,,0,720,,,,,,,,,,,,,,,,,S,139,circle,1,0,,,,,,,,,,,,,,,,repeat,letter,lettRpt,f,0.767,noRew,,,,,,0,63,0,63,0,1,,,,,,,,,,,,,,,,,
296401,2022-12-07_13h03.57.260,vts_reward_expectancy_bt,2022.2.4,Win32,59.31901768,Chrome,1536,960,,,,,,,,,,,,,,,,,,,,,,,,,,,,,,,,,,,,,,,,,,,,,,,,,,,,,,,,,,,,,,,,,,,,,,,,,,,,
296401,2022-12-07_13h03.57.260,vts_reward_expectancy_bt,2022.2.4,Win32,59.31901768,Chrome,1536,960,,,,,0,720,,,,,,,,,,,,,,,,,Y,181,triangle,1,0,,,,,,,,,,,,,,,,repeat,letter,lettRpt,f,1.4128,Hi,,,,,,0,,,,,,space,11.3738,high,0,0,0,0,1,,,,,,,,,
296401,2022-12-07_13h03.57.260,vts_reward_expectancy_bt,2022.2.4,Win32,59.31901768,Chrome,1536,960,,,,,1,721,,,,,,,,,,,,,,,,,B,139,star,1,0,,,,,,,,,,,,,,,,switch,number,numSwt,j,0.6357,Lo,,,,,,0,,,,,,,,high,1,0,1,0,1,,,,,,,,,
296401,2022-12-07_13h03.57.260,vts_reward_expectancy_bt,2022.2.4,Win32,59.31901768,Chrome,1536,960,,,,,1,722,,,,,,,,,,,,,,,,,S,125,circle,1,0,,,,,,,,,,,,,,,,repeat,number,numRpt,j,0.5678,Lo,,,,,,0,,,,,,,,high,2,0,2,0,1,,,,,,,,,
296401,2022-12-07_13h03.57.260,vts_reward_expectancy_bt,2022.2.4,Win32,59.31901768,Chrome,1536,960,,,,,10,732,,,,,,,,,,,,,,,,,F,160,hexagon,1,0,,,,,,,,,,,,,,,,repeat,number,numRpt,k,0.5351,Hi,,,,,,0,,,,,,,,high,3,0,3,0,1,,,,,,,,,
296401,2022-12-07_13h03.57.260,vts_reward_expectancy_bt,2022.2.4,Win32,59.31901768,Chrome,1536,960,,,,,10,742,,,,,,,,,,,,,,,,,W,174,triangle,1,0,,,,,,,,,,,,,,,,switch,letter,lettSwt,f,0.5698,Hi,,,,,,0,,,,,,,,high,4,0,4,0,1,,,,,,,,,
296401,2022-12-07_13h03.57.260,vts_reward_expectancy_bt,2022.2.4,Win32,59.31901768,Chrome,1536,960,,,,,1,743,,,,,,,,,,,,,,,,,D,146,star,1,0,,,,,,,,,,,,,,,,repeat,letter,lettRpt,d,0.5015,Lo,,,,,,0,,,,,,,,high,5,0,5,0,1,,,,,,,,,
296401,2022-12-07_13h03.57.260,vts_reward_expectancy_bt,2022.2.4,Win32,59.31901768,Chrome,1536,960,,,,,1,744,,,,,,,,,,,,,,,,,U,132,circle,1,0,,,,,,,,,,,,,,,,switch,number,numSwt,j,0.6346,Lo,,,,,,0,,,,,,,,high,6,0,6,0,1,,,,,,,,,
296401,2022-12-07_13h03.57.260,vts_reward_expectancy_bt,2022.2.4,Win32,59.31901768,Chrome,1536,960,,,,,10,754,,,,,,,,,,,,,,,,,H,167,hexagon,1,0,,,,,,,,,,,,,,,,repeat,number,numRpt,k,0.4527,Hi,,,,,,0,,,,,,,,high,7,0,7,0,1,,,,,,,,,
296401,2022-12-07_13h03.57.260,vts_reward_expectancy_bt,2022.2.4,Win32,59.31901768,Chrome,1536,960,,,,,10,764,,,,,,,,,,,,,,,,,Y,181,circle,1,0,,,,,,,,,,,,,,,,repeat,number,numRpt,k,0.6224,Lo,,,,,,0,,,,,,,,high,8,0,8,0,1,,,,,,,,,
296401,2022-12-07_13h03.57.260,vts_reward_expectancy_bt,2022.2.4,Win32,59.31901768,Chrome,1536,960,,,,,10,774,,,,,,,,,,,,,,,,,B,139,hexagon,1,0,,,,,,,,,,,,,,,,repeat,number,numRpt,j,0.6528,Hi,,,,,,0,,,,,,,,high,9,0,9,0,1,,,,,,,,,
296401,2022-12-07_13h03.57.260,vts_reward_expectancy_bt,2022.2.4,Win32,59.31901768,Chrome,1536,960,,,,,1,775,,,,,,,,,,,,,,,,,S,125,star,1,0,,,,,,,,,,,,,,,,switch,letter,lettSwt,f,0.5167,Lo,,,,,,0,,,,,,,,high,10,0,10,0,1,,,,,,,,,
296401,2022-12-07_13h03.57.260,vts_reward_expectancy_bt,2022.2.4,Win32,59.31901768,Chrome,1536,960,,,,,10,785,,,,,,,,,,,,,,,,,F,160,triangle,1,0,,,,,,,,,,,,,,,,repeat,letter,lettRpt,d,0.5849,Hi,,,,,,0,,,,,,,,high,11,0,11,0,1,,,,,,,,,
296401,2022-12-07_13h03.57.260,vts_reward_expectancy_bt,2022.2.4,Win32,59.31901768,Chrome,1536,960,,,,,1,786,,,,,,,,,,,,,,,,,W,174,star,1,0,,,,,,,,,,,,,,,,repeat,letter,lettRpt,f,0.5852,Lo,,,,,,0,,,,,,,,high,12,0,12,0,1,,,,,,,,,
296401,2022-12-07_13h03.57.260,vts_reward_expectancy_bt,2022.2.4,Win32,59.31901768,Chrome,1536,960,,,,,1,787,,,,,,,,,,,,,,,,,D,146,triangle,1,0,,,,,,,,,,,,,,,,repeat,letter,lettRpt,d,0.5697,Hi,,,,,,0,,,,,,,,high,13,0,13,0,1,,,,,,,,,
296401,2022-12-07_13h03.57.260,vts_reward_expectancy_bt,2022.2.4,Win32,59.31901768,Chrome,1536,960,,,,,1,788,,,,,,,,,,,,,,,,,U,132,circle,1,0,,,,,,,,,,,,,,,,switch,number,numSwt,j,0.5474,Lo,,,,,,0,,,,,,,,high,14,0,14,0,1,,,,,,,,,
296401,2022-12-07_13h03.57.260,vts_reward_expectancy_bt,2022.2.4,Win32,59.31901768,Chrome,1536,960,,,,,10,798,,,,,,,,,,,,,,,,,H,167,hexagon,1,0,,,,,,,,,,,,,,,,repeat,number,numRpt,k,0.5044,Hi,,,,,,0,,,,,,,,high,15,0,15,0,1,,,,,,,,,
296401,2022-12-07_13h03.57.260,vts_reward_expectancy_bt,2022.2.4,Win32,59.31901768,Chrome,1536,960,,,,,1,799,,,,,,,,,,,,,,,,,Y,139,circle,1,0,,,,,,,,,,,,,,,,repeat,number,numRpt,j,0.6412,Lo,,,,,,0,,,,,,,,high,16,0,16,0,1,,,,,,,,,
296401,2022-12-07_13h03.57.260,vts_reward_expectancy_bt,2022.2.4,Win32,59.31901768,Chrome,1536,960,,,,,1,800,,,,,,,,,,,,,,,,,B,167,star,1,0,,,,,,,,,,,,,,,,repeat,number,numRpt,k,0.5262,Lo,,,,,,0,,,,,,,,high,17,0,17,0,1,,,,,,,,,
296401,2022-12-07_13h03.57.260,vts_reward_expectancy_bt,2022.2.4,Win32,59.31901768,Chrome,1536,960,,,,,10,810,,,,,,,,,,,,,,,,,W,174,triangle,1,0,,,,,,,,,,,,,,,,switch,letter,lettSwt,f,0.5025,Hi,,,,,,0,,,,,,,,high,18,0,18,0,1,,,,,,,,,
296401,2022-12-07_13h03.57.260,vts_reward_expectancy_bt,2022.2.4,Win32,59.31901768,Chrome,1536,960,,,,,10,820,,,,,,,,,,,,,,,,,F,125,hexagon,1,0,,,,,,,,,,,,,,,,repeat,letter,lettRpt,d,0.5431,Hi,,,,,,0,,,,,,,,high,19,0,19,0,1,,,,,,,,,
296401,2022-12-07_13h03.57.260,vts_reward_expectancy_bt,2022.2.4,Win32,59.31901768,Chrome,1536,960,,,,,1,821,,,,,,,,,,,,,,,,,U,146,star,1,0,,,,,,,,,,,,,,,,repeat,letter,lettRpt,f,0.5823,Lo,,,,,,0,,,,,,,,high,20,0,20,0,1,,,,,,,,,
296401,2022-12-07_13h03.57.260,vts_reward_expectancy_bt,2022.2.4,Win32,59.31901768,Chrome,1536,960,,,,,1,822,,,,,,,,,,,,,,,,,H,160,triangle,1,0,,,,,,,,,,,,,,,,repeat,letter,lettRpt,d,0.5538,Hi,,,,,,0,,,,,,,,high,21,0,21,0,1,,,,,,,,,
296401,2022-12-07_13h03.57.260,vts_reward_expectancy_bt,2022.2.4,Win32,59.31901768,Chrome,1536,960,,,,,1,823,,,,,,,,,,,,,,,,,S,132,circle,1,0,,,,,,,,,,,,,,,,repeat,letter,lettRpt,f,0.6054,Lo,,,,,,0,,,,,,,,high,22,0,22,0,1,,,,,,,,,
296401,2022-12-07_13h03.57.260,vts_reward_expectancy_bt,2022.2.4,Win32,59.31901768,Chrome,1536,960,,,,,0,823,,,,,,,,,,,,,,,,,D,181,hexagon,0,0,,,,,,,,,,,,,,,,repeat,letter,NA,f,0.6376,Lo,,,,,,0,,,,,,,,high,23,0,23,0,1,,,,,,,,,
296401,2022-12-07_13h03.57.260,vts_reward_expectancy_bt,2022.2.4,Win32,59.31901768,Chrome,1536,960,,,,,0,823,,,,,,,,,,,,,,,,,B,139,triangle,1,1,,,,,,,,,,,,,,,,switch,number,numSwt,j,1.0219,Hi,,,,,,0,,,,,,,,high,24,0,24,0,1,,,,,,,,,
296401,2022-12-07_13h03.57.260,vts_reward_expectancy_bt,2022.2.4,Win32,59.31901768,Chrome,1536,960,,,,,10,833,,,,,,,,,,,,,,,,,F,167,hexagon,1,0,,,,,,,,,,,,,,,,repeat,number,numRpt,k,0.5991,Hi,,,,,,0,,,,,,,,high,25,0,25,0,1,,,,,,,,,
296401,2022-12-07_13h03.57.260,vts_reward_expectancy_bt,2022.2.4,Win32,59.31901768,Chrome,1536,960,,,,,1,834,,,,,,,,,,,,,,,,,Y,174,circle,1,0,,,,,,,,,,,,,,,,switch,letter,lettSwt,f,0.6244,Lo,,,,,,0,,,,,,,,high,26,0,26,0,1,,,,,,,,,
296401,2022-12-07_13h03.57.260,vts_reward_expectancy_bt,2022.2.4,Win32,59.31901768,Chrome,1536,960,,,,,1,835,,,,,,,,,,,,,,,,,D,160,star,1,0,,,,,,,,,,,,,,,,repeat,letter,lettRpt,d,0.5704,Lo,,,,,,0,,,,,,,,high,27,0,27,0,1,,,,,,,,,
296401,2022-12-07_13h03.57.260,vts_reward_expectancy_bt,2022.2.4,Win32,59.31901768,Chrome,1536,960,,,,,10,845,,,,,,,,,,,,,,,,,U,125,triangle,1,0,,,,,,,,,,,,,,,,repeat,letter,lettRpt,f,0.6009,Hi,,,,,,0,,,,,,,,high,28,0,28,0,1,,,,,,,,,
296401,2022-12-07_13h03.57.260,vts_reward_expectancy_bt,2022.2.4,Win32,59.31901768,Chrome,1536,960,,,,,1,846,,,,,,,,,,,,,,,,,W,181,star,1,0,,,,,,,,,,,,,,,,switch,number,numSwt,k,0.505,Lo,,,,,,0,,,,,,,,high,29,0,29,0,1,,,,,,,,,
296401,2022-12-07_13h03.57.260,vts_reward_expectancy_bt,2022.2.4,Win32,59.31901768,Chrome,1536,960,,,,,10,856,,,,,,,,,,,,,,,,,H,146,hexagon,1,0,,,,,,,,,,,,,,,,repeat,number,numRpt,j,0.5343,Hi,,,,,,0,,,,,,,,high,30,0,30,0,1,,,,,,,,,
296401,2022-12-07_13h03.57.260,vts_reward_expectancy_bt,2022.2.4,Win32,59.31901768,Chrome,1536,960,,,,,10,866,,,,,,,,,,,,,,,,,S,132,circle,1,0,,,,,,,,,,,,,,,,repeat,number,numRpt,j,0.5262,Lo,,,,,,0,,,,,,,,high,31,0,31,0,1,,,,,,,,,
296401,2022-12-07_13h03.57.260,vts_reward_expectancy_bt,2022.2.4,Win32,59.31901768,Chrome,1536,960,,,,,0,866,,,,,,,,,,,,,,,,,W,160,triangle,1,0,,,,,,,,,,,,,,,,repeat,number,numRpt,k,0.534,Hi,,,,,,1,,,,,,space,0.8856,high,0,0,0,0,1,,,,,,,,,
296401,2022-12-07_13h03.57.260,vts_reward_expectancy_bt,2022.2.4,Win32,59.31901768,Chrome,1536,960,,,,,10,876,,,,,,,,,,,,,,,,,D,139,hexagon,1,0,,,,,,,,,,,,,,,,repeat,number,numRpt,j,0.4843,Hi,,,,,,1,,,,,,,,high,1,0,1,0,1,,,,,,,,,
296401,2022-12-07_13h03.57.260,vts_reward_expectancy_bt,2022.2.4,Win32,59.31901768,Chrome,1536,960,,,,,1,877,,,,,,,,,,,,,,,,,B,146,star,1,0,,,,,,,,,,,,,,,,switch,letter,lettSwt,d,0.4669,Lo,,,,,,1,,,,,,,,high,2,0,2,0,1,,,,,,,,,
296401,2022-12-07_13h03.57.260,vts_reward_expectancy_bt,2022.2.4,Win32,59.31901768,Chrome,1536,960,,,,,1,878,,,,,,,,,,,,,,,,,S,174,circle,1,0,,,,,,,,,,,,,,,,repeat,letter,lettRpt,f,0.5715,Lo,,,,,,1,,,,,,,,high,3,0,3,0,1,,,,,,,,,
296401,2022-12-07_13h03.57.260,vts_reward_expectancy_bt,2022.2.4,Win32,59.31901768,Chrome,1536,960,,,,,1,879,,,,,,,,,,,,,,,,,F,132,triangle,1,0,,,,,,,,,,,,,,,,switch,number,numSwt,j,0.3689,Hi,,,,,,1,,,,,,,,high,4,0,4,0,1,,,,,,,,,
296401,2022-12-07_13h03.57.260,vts_reward_expectancy_bt,2022.2.4,Win32,59.31901768,Chrome,1536,960,,,,,10,889,,,,,,,,,,,,,,,,,Y,167,hexagon,1,0,,,,,,,,,,,,,,,,switch,letter,lettSwt,f,0.5042,Hi,,,,,,1,,,,,,,,high,5,0,5,0,1,,,,,,,,,
296401,2022-12-07_13h03.57.260,vts_reward_expectancy_bt,2022.2.4,Win32,59.31901768,Chrome,1536,960,,,,,0,889,,,,,,,,,,,,,,,,,U,125,star,0,0,,,,,,,,,,,,,,,,repeat,letter,NA,d,0.3935,Hi,,,,,,1,,,,,,,,high,6,0,6,0,1,,,,,,,,,
296401,2022-12-07_13h03.57.260,vts_reward_expectancy_bt,2022.2.4,Win32,59.31901768,Chrome,1536,960,,,,,1,890,,,,,,,,,,,,,,,,,H,181,circle,1,1,,,,,,,,,,,,,,,,switch,number,numSwt,k,0.4759,Lo,,,,,,1,,,,,,,,high,7,0,7,0,1,,,,,,,,,
296401,2022-12-07_13h03.57.260,vts_reward_expectancy_bt,2022.2.4,Win32,59.31901768,Chrome,1536,960,,,,,1,891,,,,,,,,,,,,,,,,,W,160,circle,1,0,,,,,,,,,,,,,,,,switch,letter,lettSwt,f,0.4412,Lo,,,,,,1,,,,,,,,high,8,0,8,0,1,,,,,,,,,
296401,2022-12-07_13h03.57.260,vts_reward_expectancy_bt,2022.2.4,Win32,59.31901768,Chrome,1536,960,,,,,0,891,,,,,,,,,,,,,,,,,D,139,hexagon,1,0,,,,,,,,,,,,,,,,repeat,letter,lettRpt,d,0.7488,Hi,,,,,,1,,,,,,,,high,9,0,9,0,1,,,,,,,,,
296401,2022-12-07_13h03.57.260,vts_reward_expectancy_bt,2022.2.4,Win32,59.31901768,Chrome,1536,960,,,,,0,891,,,,,,,,,,,,,,,,,B,146,triangle,1,0,,,,,,,,,,,,,,,,repeat,letter,lettRpt,d,0.6375,Hi,,,,,,1,,,,,,,,high,10,0,10,0,1,,,,,,,,,
296401,2022-12-07_13h03.57.260,vts_reward_expectancy_bt,2022.2.4,Win32,59.31901768,Chrome,1536,960,,,,,1,892,,,,,,,,,,,,,,,,,S,174,star,1,0,,,,,,,,,,,,,,,,switch,number,numSwt,k,0.4394,Lo,,,,,,1,,,,,,,,high,11,0,11,0,1,,,,,,,,,
296401,2022-12-07_13h03.57.260,vts_reward_expectancy_bt,2022.2.4,Win32,59.31901768,Chrome,1536,960,,,,,10,902,,,,,,,,,,,,,,,,,F,132,hexagon,1,0,,,,,,,,,,,,,,,,repeat,number,numRpt,j,0.3852,Hi,,,,,,1,,,,,,,,high,12,0,12,0,1,,,,,,,,,
296401,2022-12-07_13h03.57.260,vts_reward_expectancy_bt,2022.2.4,Win32,59.31901768,Chrome,1536,960,,,,,0,902,,,,,,,,,,,,,,,,,Y,167,triangle,0,0,,,,,,,,,,,,,,,,switch,letter,NA,d,0.5175,Hi,,,,,,1,,,,,,,,high,13,0,13,0,1,,,,,,,,,
296401,2022-12-07_13h03.57.260,vts_reward_expectancy_bt,2022.2.4,Win32,59.31901768,Chrome,1536,960,,,,,1,903,,,,,,,,,,,,,,,,,U,125,star,1,1,,,,,,,,,,,,,,,,repeat,letter,lettRpt,f,0.4524,Lo,,,,,,1,,,,,,,,high,14,0,14,0,1,,,,,,,,,
296401,2022-12-07_13h03.57.260,vts_reward_expectancy_bt,2022.2.4,Win32,59.31901768,Chrome,1536,960,,,,,0,903,,,,,,,,,,,,,,,,,H,181,circle,0,0,,,,,,,,,,,,,,,,repeat,letter,NA,f,0.5038,Lo,,,,,,1,,,,,,,,high,15,0,15,0,1,,,,,,,,,
296401,2022-12-07_13h03.57.260,vts_reward_expectancy_bt,2022.2.4,Win32,59.31901768,Chrome,1536,960,,,,,10,913,,,,,,,,,,,,,,,,,H,132,circle,1,1,,,,,,,,,,,,,,,,repeat,letter,lettRpt,d,0.6712,Lo,,,,,,1,,,,,,,,high,16,0,16,0,1,,,,,,,,,
296401,2022-12-07_13h03.57.260,vts_reward_expectancy_bt,2022.2.4,Win32,59.31901768,Chrome,1536,960,,,,,0,913,,,,,,,,,,,,,,,,,F,139,triangle,1,0,,,,,,,,,,,,,,,,repeat,letter,lettRpt,d,0.6545,Hi,,,,,,1,,,,,,,,high,17,0,17,0,1,,,,,,,,,
296401,2022-12-07_13h03.57.260,vts_reward_expectancy_bt,2022.2.4,Win32,59.31901768,Chrome,1536,960,,,,,1,914,,,,,,,,,,,,,,,,,B,160,star,1,0,,,,,,,,,,,,,,,,switch,number,numSwt,k,0.5533,Lo,,,,,,1,,,,,,,,high,18,0,18,0,1,,,,,,,,,
296401,2022-12-07_13h03.57.260,vts_reward_expectancy_bt,2022.2.4,Win32,59.31901768,Chrome,1536,960,,,,,0,914,,,,,,,,,,,,,,,,,D,181,hexagon,1,0,,,,,,,,,,,,,,,,repeat,number,numRpt,k,0.6653,Hi,,,,,,1,,,,,,,,high,19,0,19,0,1,,,,,,,,,
296401,2022-12-07_13h03.57.260,vts_reward_expectancy_bt,2022.2.4,Win32,59.31901768,Chrome,1536,960,,,,,1,915,,,,,,,,,,,,,,,,,S,174,hexagon,1,0,,,,,,,,,,,,,,,,repeat,number,numRpt,k,0.4681,Hi,,,,,,1,,,,,,,,high,20,0,20,0,1,,,,,,,,,
296401,2022-12-07_13h03.57.260,vts_reward_expectancy_bt,2022.2.4,Win32,59.31901768,Chrome,1536,960,,,,,1,916,,,,,,,,,,,,,,,,,Y,125,star,1,0,,,,,,,,,,,,,,,,repeat,number,numRpt,j,0.457,Lo,,,,,,1,,,,,,,,high,21,0,21,0,1,,,,,,,,,
296401,2022-12-07_13h03.57.260,vts_reward_expectancy_bt,2022.2.4,Win32,59.31901768,Chrome,1536,960,,,,,1,917,,,,,,,,,,,,,,,,,W,167,circle,1,0,,,,,,,,,,,,,,,,repeat,number,numRpt,k,0.4833,Lo,,,,,,1,,,,,,,,high,22,0,22,0,1,,,,,,,,,
296401,2022-12-07_13h03.57.260,vts_reward_expectancy_bt,2022.2.4,Win32,59.31901768,Chrome,1536,960,,,,,0,917,,,,,,,,,,,,,,,,,U,146,triangle,0,0,,,,,,,,,,,,,,,,repeat,number,NA,k,0.6198,Lo,,,,,,1,,,,,,,,high,23,0,23,0,1,,,,,,,,,
296401,2022-12-07_13h03.57.260,vts_reward_expectancy_bt,2022.2.4,Win32,59.31901768,Chrome,1536,960,,,,,0,917,,,,,,,,,,,,,,,,,D,167,triangle,0,1,,,,,,,,,,,,,,,,repeat,number,NA,j,0.4332,Lo,,,,,,1,,,,,,,,high,24,0,24,0,1,,,,,,,,,
296401,2022-12-07_13h03.57.260,vts_reward_expectancy_bt,2022.2.4,Win32,59.31901768,Chrome,1536,960,,,,,1,918,,,,,,,,,,,,,,,,,Y,181,star,1,1,,,,,,,,,,,,,,,,repeat,number,numRpt,k,0.5058,Lo,,,,,,1,,,,,,,,high,25,0,25,0,1,,,,,,,,,
296401,2022-12-07_13h03.57.260,vts_reward_expectancy_bt,2022.2.4,Win32,59.31901768,Chrome,1536,960,,,,,0,918,,,,,,,,,,,,,,,,,H,132,hexagon,1,0,,,,,,,,,,,,,,,,repeat,number,numRpt,j,0.5874,Hi,,,,,,1,,,,,,,,high,26,0,26,0,1,,,,,,,,,
296401,2022-12-07_13h03.57.260,vts_reward_expectancy_bt,2022.2.4,Win32,59.31901768,Chrome,1536,960,,,,,10,928,,,,,,,,,,,,,,,,,W,160,circle,1,0,,,,,,,,,,,,,,,,repeat,number,numRpt,k,0.5246,Lo,,,,,,1,,,,,,,,high,27,0,27,0,1,,,,,,,,,
296401,2022-12-07_13h03.57.260,vts_reward_expectancy_bt,2022.2.4,Win32,59.31901768,Chrome,1536,960,,,,,10,938,,,,,,,,,,,,,,,,,F,174,star,1,0,,,,,,,,,,,,,,,,repeat,number,numRpt,k,0.6151,Lo,,,,,,1,,,,,,,,high,28,0,28,0,1,,,,,,,,,
296401,2022-12-07_13h03.57.260,vts_reward_expectancy_bt,2022.2.4,Win32,59.31901768,Chrome,1536,960,,,,,0,938,,,,,,,,,,,,,,,,,U,146,hexagon,0,0,,,,,,,,,,,,,,,,repeat,number,NA,k,0.5439,Lo,,,,,,1,,,,,,,,high,29,0,29,0,1,,,,,,,,,
296401,2022-12-07_13h03.57.260,vts_reward_expectancy_bt,2022.2.4,Win32,59.31901768,Chrome,1536,960,,,,,10,948,,,,,,,,,,,,,,,,,S,125,triangle,1,1,,,,,,,,,,,,,,,,repeat,number,numRpt,j,0.4342,Hi,,,,,,1,,,,,,,,high,30,0,30,0,1,,,,,,,,,
296401,2022-12-07_13h03.57.260,vts_reward_expectancy_bt,2022.2.4,Win32,59.31901768,Chrome,1536,960,,,,,1,949,,,,,,,,,,,,,,,,,B,139,circle,1,0,,,,,,,,,,,,,,,,repeat,number,numRpt,j,0.4855,Lo,,,,,,1,,,,,,,,high,31,0,31,0,1,,,,,,,,,
296401,2022-12-07_13h03.57.260,vts_reward_expectancy_bt,2022.2.4,Win32,59.31901768,Chrome,1536,960,,,,,1,950,,,,,,,,,,,,,,,,,B,139,star,1,0,,,,,,,,,,,,,,,,switch,letter,lettSwt,d,0.8372,Lo,,,,,,2,,,,,,space,78.016,high,0,0,0,0,1,,,,,,,,,
296401,2022-12-07_13h03.57.260,vts_reward_expectancy_bt,2022.2.4,Win32,59.31901768,Chrome,1536,960,,,,,0,950,,,,,,,,,,,,,,,,,U,167,hexagon,1,0,,,,,,,,,,,,,,,,switch,number,numSwt,k,0.6213,Hi,,,,,,2,,,,,,,,high,1,0,1,0,1,,,,,,,,,
296401,2022-12-07_13h03.57.260,vts_reward_expectancy_bt,2022.2.4,Win32,59.31901768,Chrome,1536,960,,,,,0,950,,,,,,,,,,,,,,,,,W,160,triangle,1,0,,,,,,,,,,,,,,,,repeat,number,numRpt,k,0.5023,Hi,,,,,,2,,,,,,,,high,2,0,2,0,1,,,,,,,,,
296401,2022-12-07_13h03.57.260,vts_reward_expectancy_bt,2022.2.4,Win32,59.31901768,Chrome,1536,960,,,,,1,951,,,,,,,,,,,,,,,,,H,174,circle,1,0,,,,,,,,,,,,,,,,repeat,number,numRpt,k,0.3692,Lo,,,,,,2,,,,,,,,high,3,0,3,0,1,,,,,,,,,
296401,2022-12-07_13h03.57.260,vts_reward_expectancy_bt,2022.2.4,Win32,59.31901768,Chrome,1536,960,,,,,1,952,,,,,,,,,,,,,,,,,S,125,star,1,0,,,,,,,,,,,,,,,,repeat,number,numRpt,j,0.3487,Lo,,,,,,2,,,,,,,,high,4,0,4,0,1,,,,,,,,,
296401,2022-12-07_13h03.57.260,vts_reward_expectancy_bt,2022.2.4,Win32,59.31901768,Chrome,1536,960,,,,,0,952,,,,,,,,,,,,,,,,,Y,132,hexagon,1,0,,,,,,,,,,,,,,,,switch,letter,lettSwt,f,0.4828,Hi,,,,,,2,,,,,,,,high,5,0,5,0,1,,,,,,,,,
296401,2022-12-07_13h03.57.260,vts_reward_expectancy_bt,2022.2.4,Win32,59.31901768,Chrome,1536,960,,,,,1,953,,,,,,,,,,,,,,,,,D,181,triangle,1,0,,,,,,,,,,,,,,,,repeat,letter,lettRpt,d,0.4569,Hi,,,,,,2,,,,,,,,high,6,0,6,0,1,,,,,,,,,
296401,2022-12-07_13h03.57.260,vts_reward_expectancy_bt,2022.2.4,Win32,59.31901768,Chrome,1536,960,,,,,0,953,,,,,,,,,,,,,,,,,F,146,circle,0,0,,,,,,,,,,,,,,,,repeat,letter,NA,f,0.3365,Hi,,,,,,2,,,,,,,,high,7,0,7,0,1,,,,,,,,,
296401,2022-12-07_13h03.57.260,vts_reward_expectancy_bt,2022.2.4,Win32,59.31901768,Chrome,1536,960,,,,,1,954,,,,,,,,,,,,,,,,,B,139,circle,1,1,,,,,,,,,,,,,,,,repeat,letter,lettRpt,d,0.4811,Lo,,,,,,2,,,,,,,,high,8,0,8,0,1,,,,,,,,,
296401,2022-12-07_13h03.57.260,vts_reward_expectancy_bt,2022.2.4,Win32,59.31901768,Chrome,1536,960,,,,,1,955,,,,,,,,,,,,,,,,,U,167,star,1,0,,,,,,,,,,,,,,,,repeat,letter,lettRpt,f,0.3504,Lo,,,,,,2,,,,,,,,high,9,0,9,0,1,,,,,,,,,
296401,2022-12-07_13h03.57.260,vts_reward_expectancy_bt,2022.2.4,Win32,59.31901768,Chrome,1536,960,,,,,10,965,,,,,,,,,,,,,,,,,W,160,hexagon,1,0,,,,,,,,,,,,,,,,repeat,letter,lettRpt,f,0.4673,Hi,,,,,,2,,,,,,,,high,10,0,10,0,1,,,,,,,,,
296401,2022-12-07_13h03.57.260,vts_reward_expectancy_bt,2022.2.4,Win32,59.31901768,Chrome,1536,960,,,,,0,965,,,,,,,,,,,,,,,,,H,174,triangle,0,0,,,,,,,,,,,,,,,,switch,number,NA,j,0.5351,Hi,,,,,,2,,,,,,,,high,11,0,11,0,1,,,,,,,,,
296401,2022-12-07_13h03.57.260,vts_reward_expectancy_bt,2022.2.4,Win32,59.31901768,Chrome,1536,960,,,,,0,965,,,,,,,,,,,,,,,,,S,125,triangle,1,1,,,,,,,,,,,,,,,,repeat,number,numRpt,j,0.5382,Hi,,,,,,2,,,,,,,,high,12,0,12,0,1,,,,,,,,,
296401,2022-12-07_13h03.57.260,vts_reward_expectancy_bt,2022.2.4,Win32,59.31901768,Chrome,1536,960,,,,,1,966,,,,,,,,,,,,,,,,,Y,132,hexagon,1,0,,,,,,,,,,,,,,,,repeat,number,numRpt,j,0.3979,Hi,,,,,,2,,,,,,,,high,13,0,13,0,1,,,,,,,,,
296401,2022-12-07_13h03.57.260,vts_reward_expectancy_bt,2022.2.4,Win32,59.31901768,Chrome,1536,960,,,,,1,967,,,,,,,,,,,,,,,,,D,181,circle,1,0,,,,,,,,,,,,,,,,repeat,number,numRpt,k,0.4478,Lo,,,,,,2,,,,,,,,high,14,0,14,0,1,,,,,,,,,
296401,2022-12-07_13h03.57.260,vts_reward_expectancy_bt,2022.2.4,Win32,59.31901768,Chrome,1536,960,,,,,1,968,,,,,,,,,,,,,,,,,F,146,star,1,0,,,,,,,,,,,,,,,,repeat,number,numRpt,j,0.454,Lo,,,,,,2,,,,,,,,high,15,0,15,0,1,,,,,,,,,
296401,2022-12-07_13h03.57.260,vts_reward_expectancy_bt,2022.2.4,Win32,59.31901768,Chrome,1536,960,,,,,10,978,,,,,,,,,,,,,,,,,D,139,triangle,1,0,,,,,,,,,,,,,,,,repeat,number,numRpt,j,0.3692,Hi,,,,,,2,,,,,,,,high,16,0,16,0,1,,,,,,,,,
296401,2022-12-07_13h03.57.260,vts_reward_expectancy_bt,2022.2.4,Win32,59.31901768,Chrome,1536,960,,,,,10,988,,,,,,,,,,,,,,,,,B,132,star,1,0,,,,,,,,,,,,,,,,repeat,number,numRpt,j,0.3961,Lo,,,,,,2,,,,,,,,high,17,0,17,0,1,,,,,,,,,
296401,2022-12-07_13h03.57.260,vts_reward_expectancy_bt,2022.2.4,Win32,59.31901768,Chrome,1536,960,,,,,0,988,,,,,,,,,,,,,,,,,H,181,hexagon,1,0,,,,,,,,,,,,,,,,repeat,number,numRpt,k,0.5472,Hi,,,,,,2,,,,,,,,high,18,0,18,0,1,,,,,,,,,
296401,2022-12-07_13h03.57.260,vts_reward_expectancy_bt,2022.2.4,Win32,59.31901768,Chrome,1536,960,,,,,0,988,,,,,,,,,,,,,,,,,S,146,circle,0,0,,,,,,,,,,,,,,,,repeat,number,NA,k,0.5494,Hi,,,,,,2,,,,,,,,high,19,0,19,0,1,,,,,,,,,
296401,2022-12-07_13h03.57.260,vts_reward_expectancy_bt,2022.2.4,Win32,59.31901768,Chrome,1536,960,,,,,0,988,,,,,,,,,,,,,,,,,U,174,triangle,1,1,,,,,,,,,,,,,,,,repeat,number,numRpt,k,0.5458,Hi,,,,,,2,,,,,,,,high,20,0,20,0,1,,,,,,,,,
296401,2022-12-07_13h03.57.260,vts_reward_expectancy_bt,2022.2.4,Win32,59.31901768,Chrome,1536,960,,,,,0,988,,,,,,,,,,,,,,,,,W,125,star,0,0,,,,,,,,,,,,,,,,repeat,number,NA,k,0.4554,Hi,,,,,,2,,,,,,,,high,21,0,21,0,1,,,,,,,,,
296401,2022-12-07_13h03.57.260,vts_reward_expectancy_bt,2022.2.4,Win32,59.31901768,Chrome,1536,960,,,,,10,998,,,,,,,,,,,,,,,,,Y,160,circle,1,1,,,,,,,,,,,,,,,,repeat,number,numRpt,k,0.5181,Lo,,,,,,2,,,,,,,,high,22,0,22,0,1,,,,,,,,,
296401,2022-12-07_13h03.57.260,vts_reward_expectancy_bt,2022.2.4,Win32,59.31901768,Chrome,1536,960,,,,,0,998,,,,,,,,,,,,,,,,,F,167,hexagon,1,0,,,,,,,,,,,,,,,,repeat,number,numRpt,k,0.4847,Hi,,,,,,2,,,,,,,,high,23,0,23,0,1,,,,,,,,,
296401,2022-12-07_13h03.57.260,vts_reward_expectancy_bt,2022.2.4,Win32,59.31901768,Chrome,1536,960,,,,,10,1008,,,,,,,,,,,,,,,,,H,125,star,1,0,,,,,,,,,,,,,,,,repeat,number,numRpt,j,0.3869,Lo,,,,,,2,,,,,,,,high,24,0,24,0,1,,,,,,,,,
296401,2022-12-07_13h03.57.260,vts_reward_expectancy_bt,2022.2.4,Win32,59.31901768,Chrome,1536,960,,,,,0,1008,,,,,,,,,,,,,,,,,W,174,hexagon,1,0,,,,,,,,,,,,,,,,repeat,number,numRpt,k,0.5353,Hi,,,,,,2,,,,,,,,high,25,0,25,0,1,,,,,,,,,
296401,2022-12-07_13h03.57.260,vts_reward_expectancy_bt,2022.2.4,Win32,59.31901768,Chrome,1536,960,,,,,0,1008,,,,,,,,,,,,,,,,,Y,132,triangle,1,0,,,,,,,,,,,,,,,,repeat,number,numRpt,j,0.5008,Hi,,,,,,2,,,,,,,,high,26,0,26,0,1,,,,,,,,,
296401,2022-12-07_13h03.57.260,vts_reward_expectancy_bt,2022.2.4,Win32,59.31901768,Chrome,1536,960,,,,,10,1018,,,,,,,,,,,,,,,,,B,139,circle,1,0,,,,,,,,,,,,,,,,switch,letter,lettSwt,d,0.4479,Lo,,,,,,2,,,,,,,,high,27,0,27,0,1,,,,,,,,,
296401,2022-12-07_13h03.57.260,vts_reward_expectancy_bt,2022.2.4,Win32,59.31901768,Chrome,1536,960,,,,,0,1018,,,,,,,,,,,,,,,,,F,146,star,0,0,,,,,,,,,,,,,,,,repeat,letter,NA,f,0.4161,Lo,,,,,,2,,,,,,,,high,28,0,28,0,1,,,,,,,,,
296401,2022-12-07_13h03.57.260,vts_reward_expectancy_bt,2022.2.4,Win32,59.31901768,Chrome,1536,960,,,,,1,1019,,,,,,,,,,,,,,,,,U,160,triangle,1,1,,,,,,,,,,,,,,,,repeat,letter,lettRpt,f,0.579,Hi,,,,,,2,,,,,,,,high,29,0,29,0,1,,,,,,,,,
296401,2022-12-07_13h03.57.260,vts_reward_expectancy_bt,2022.2.4,Win32,59.31901768,Chrome,1536,960,,,,,10,1029,,,,,,,,,,,,,,,,,D,167,hexagon,1,0,,,,,,,,,,,,,,,,repeat,letter,lettRpt,d,0.4368,Hi,,,,,,2,,,,,,,,high,30,0,30,0,1,,,,,,,,,
296401,2022-12-07_13h03.57.260,vts_reward_expectancy_bt,2022.2.4,Win32,59.31901768,Chrome,1536,960,,,,,0,1029,,,,,,,,,,,,,,,,,S,181,circle,0,0,,,,,,,,,,,,,,,,repeat,letter,NA,d,0.5263,Hi,,,,,,2,,,,,,,,high,31,0,31,0,1,,,,,,,,,
296401,2022-12-07_13h03.57.260,vts_reward_expectancy_bt,2022.2.4,Win32,59.31901768,Chrome,1536,960,,,,,0,1029,,,,,,,,,,,,,,,,,B,167,triangle,1,1,,,,,,,,,,,,,,,,repeat,letter,lettRpt,d,0.8519,Hi,,,,,,3,,,,,,space,1.5544,high,0,0,0,0,1,,,,,,,,,
296401,2022-12-07_13h03.57.260,vts_reward_expectancy_bt,2022.2.4,Win32,59.31901768,Chrome,1536,960,,,,,1,1030,,,,,,,,,,,,,,,,,S,160,star,1,0,,,,,,,,,,,,,,,,repeat,letter,lettRpt,f,0.4717,Lo,,,,,,3,,,,,,,,high,1,0,1,0,1,,,,,,,,,
296401,2022-12-07_13h03.57.260,vts_reward_expectancy_bt,2022.2.4,Win32,59.31901768,Chrome,1536,960,,,,,0,1030,,,,,,,,,,,,,,,,,U,139,hexagon,0,0,,,,,,,,,,,,,,,,repeat,letter,NA,d,0.3711,Lo,,,,,,3,,,,,,,,high,2,0,2,0,1,,,,,,,,,
296401,2022-12-07_13h03.57.260,vts_reward_expectancy_bt,2022.2.4,Win32,59.31901768,Chrome,1536,960,,,,,0,1030,,,,,,,,,,,,,,,,,W,174,circle,0,1,,,,,,,,,,,,,,,,repeat,letter,NA,d,0.5158,Lo,,,,,,3,,,,,,,,high,3,0,3,0,1,,,,,,,,,
296401,2022-12-07_13h03.57.260,vts_reward_expectancy_bt,2022.2.4,Win32,59.31901768,Chrome,1536,960,,,,,0,1030,,,,,,,,,,,,,,,,,F,132,triangle,0,1,,,,,,,,,,,,,,,,repeat,letter,NA,f,0.4994,Lo,,,,,,3,,,,,,,,high,4,0,4,0,1,,,,,,,,,
296401,2022-12-07_13h03.57.260,vts_reward_expectancy_bt,2022.2.4,Win32,59.31901768,Chrome,1536,960,,,,,0,1030,,,,,,,,,,,,,,,,,H,125,star,0,1,,,,,,,,,,,,,,,,repeat,letter,NA,f,0.4881,Lo,,,,,,3,,,,,,,,high,5,0,5,0,1,,,,,,,,,
296401,2022-12-07_13h03.57.260,vts_reward_expectancy_bt,2022.2.4,Win32,59.31901768,Chrome,1536,960,,,,,0,1030,,,,,,,,,,,,,,,,,D,181,hexagon,1,1,,,,,,,,,,,,,,,,repeat,letter,lettRpt,d,0.5679,Hi,,,,,,3,,,,,,,,high,6,0,6,0,1,,,,,,,,,
296401,2022-12-07_13h03.57.260,vts_reward_expectancy_bt,2022.2.4,Win32,59.31901768,Chrome,1536,960,,,,,1,1031,,,,,,,,,,,,,,,,,Y,146,circle,1,0,,,,,,,,,,,,,,,,repeat,letter,lettRpt,f,0.571,Lo,,,,,,3,,,,,,,,high,7,0,7,0,1,,,,,,,,,
296401,2022-12-07_13h03.57.260,vts_reward_expectancy_bt,2022.2.4,Win32,59.31901768,Chrome,1536,960,,,,,0,1031,,,,,,,,,,,,,,,,,B,167,triangle,1,0,,,,,,,,,,,,,,,,repeat,letter,lettRpt,d,0.4662,Hi,,,,,,3,,,,,,,,high,8,0,8,0,1,,,,,,,,,
296401,2022-12-07_13h03.57.260,vts_reward_expectancy_bt,2022.2.4,Win32,59.31901768,Chrome,1536,960,,,,,1,1032,,,,,,,,,,,,,,,,,S,160,star,1,0,,,,,,,,,,,,,,,,repeat,letter,lettRpt,f,0.6209,Lo,,,,,,3,,,,,,,,high,9,0,9,0,1,,,,,,,,,
296401,2022-12-07_13h03.57.260,vts_reward_expectancy_bt,2022.2.4,Win32,59.31901768,Chrome,1536,960,,,,,0,1032,,,,,,,,,,,,,,,,,U,139,hexagon,1,0,,,,,,,,,,,,,,,,repeat,letter,lettRpt,f,0.5489,Hi,,,,,,3,,,,,,,,high,10,0,10,0,1,,,,,,,,,
296401,2022-12-07_13h03.57.260,vts_reward_expectancy_bt,2022.2.4,Win32,59.31901768,Chrome,1536,960,,,,,0,1032,,,,,,,,,,,,,,,,,W,174,circle,0,0,,,,,,,,,,,,,,,,repeat,letter,NA,d,0.5017,Hi,,,,,,3,,,,,,,,high,11,0,11,0,1,,,,,,,,,
296401,2022-12-07_13h03.57.260,vts_reward_expectancy_bt,2022.2.4,Win32,59.31901768,Chrome,1536,960,,,,,0,1032,,,,,,,,,,,,,,,,,F,132,triangle,0,1,,,,,,,,,,,,,,,,repeat,letter,NA,f,0.6013,Hi,,,,,,3,,,,,,,,high,12,0,12,0,1,,,,,,,,,
296401,2022-12-07_13h03.57.260,vts_reward_expectancy_bt,2022.2.4,Win32,59.31901768,Chrome,1536,960,,,,,1,1033,,,,,,,,,,,,,,,,,H,125,star,1,1,,,,,,,,,,,,,,,,repeat,letter,lettRpt,d,0.6328,Lo,,,,,,3,,,,,,,,high,13,0,13,0,1,,,,,,,,,
296401,2022-12-07_13h03.57.260,vts_reward_expectancy_bt,2022.2.4,Win32,59.31901768,Chrome,1536,960,,,,,1,1034,,,,,,,,,,,,,,,,,D,181,circle,1,0,,,,,,,,,,,,,,,,switch,number,numSwt,k,0.5489,Lo,,,,,,3,,,,,,,,high,14,0,14,0,1,,,,,,,,,
296401,2022-12-07_13h03.57.260,vts_reward_expectancy_bt,2022.2.4,Win32,59.31901768,Chrome,1536,960,,,,,0,1034,,,,,,,,,,,,,,,,,Y,146,hexagon,1,0,,,,,,,,,,,,,,,,repeat,number,numRpt,j,0.432,Hi,,,,,,3,,,,,,,,high,15,0,15,0,1,,,,,,,,,
296401,2022-12-07_13h03.57.260,vts_reward_expectancy_bt,2022.2.4,Win32,59.31901768,Chrome,1536,960,,,,,0,1034,,,,,,,,,,,,,,,,,F,174,triangle,1,0,,,,,,,,,,,,,,,,repeat,number,numRpt,k,0.5461,Hi,,,,,,3,,,,,,,,high,16,0,16,0,1,,,,,,,,,
296401,2022-12-07_13h03.57.260,vts_reward_expectancy_bt,2022.2.4,Win32,59.31901768,Chrome,1536,960,,,,,1,1035,,,,,,,,,,,,,,,,,H,125,circle,1,0,,,,,,,,,,,,,,,,repeat,number,numRpt,j,0.4481,Lo,,,,,,3,,,,,,,,high,17,0,17,0,1,,,,,,,,,
296401,2022-12-07_13h03.57.260,vts_reward_expectancy_bt,2022.2.4,Win32,59.31901768,Chrome,1536,960,,,,,10,1045,,,,,,,,,,,,,,,,,U,160,hexagon,1,0,,,,,,,,,,,,,,,,repeat,number,numRpt,k,0.3795,Hi,,,,,,3,,,,,,,,high,18,0,18,0,1,,,,,,,,,
296401,2022-12-07_13h03.57.260,vts_reward_expectancy_bt,2022.2.4,Win32,59.31901768,Chrome,1536,960,,,,,0,1045,,,,,,,,,,,,,,,,,B,181,star,0,0,,,,,,,,,,,,,,,,repeat,number,NA,j,0.4371,Hi,,,,,,3,,,,,,,,high,19,0,19,0,1,,,,,,,,,
296401,2022-12-07_13h03.57.260,vts_reward_expectancy_bt,2022.2.4,Win32,59.31901768,Chrome,1536,960,,,,,1,1046,,,,,,,,,,,,,,,,,D,146,circle,1,1,,,,,,,,,,,,,,,,repeat,number,numRpt,j,0.4985,Lo,,,,,,3,,,,,,,,high,20,0,20,0,1,,,,,,,,,
296401,2022-12-07_13h03.57.260,vts_reward_expectancy_bt,2022.2.4,Win32,59.31901768,Chrome,1536,960,,,,,0,1046,,,,,,,,,,,,,,,,,S,132,triangle,1,0,,,,,,,,,,,,,,,,repeat,number,numRpt,j,0.5491,Hi,,,,,,3,,,,,,,,high,21,0,21,0,1,,,,,,,,,
296401,2022-12-07_13h03.57.260,vts_reward_expectancy_bt,2022.2.4,Win32,59.31901768,Chrome,1536,960,,,,,10,1056,,,,,,,,,,,,,,,,,W,139,star,1,0,,,,,,,,,,,,,,,,repeat,number,numRpt,j,0.5352,Lo,,,,,,3,,,,,,,,high,22,0,22,0,1,,,,,,,,,
296401,2022-12-07_13h03.57.260,vts_reward_expectancy_bt,2022.2.4,Win32,59.31901768,Chrome,1536,960,,,,,0,1056,,,,,,,,,,,,,,,,,Y,167,hexagon,0,0,,,,,,,,,,,,,,,,repeat,number,NA,j,0.464,Lo,,,,,,3,,,,,,,,high,23,0,23,0,1,,,,,,,,,
296401,2022-12-07_13h03.57.260,vts_reward_expectancy_bt,2022.2.4,Win32,59.31901768,Chrome,1536,960,,,,,1,1057,,,,,,,,,,,,,,,,,U,181,circle,1,1,,,,,,,,,,,,,,,,repeat,number,numRpt,k,0.6288,Lo,,,,,,3,,,,,,,,high,24,0,24,0,1,,,,,,,,,
296401,2022-12-07_13h03.57.260,vts_reward_expectancy_bt,2022.2.4,Win32,59.31901768,Chrome,1536,960,,,,,1,1058,,,,,,,,,,,,,,,,,S,125,star,1,0,,,,,,,,,,,,,,,,repeat,number,numRpt,j,0.6665,Lo,,,,,,3,,,,,,,,high,25,0,25,0,1,,,,,,,,,
296401,2022-12-07_13h03.57.260,vts_reward_expectancy_bt,2022.2.4,Win32,59.31901768,Chrome,1536,960,,,,,0,1058,,,,,,,,,,,,,,,,,Y,139,triangle,0,0,,,,,,,,,,,,,,,,repeat,number,NA,k,0.5634,Lo,,,,,,3,,,,,,,,high,26,0,26,0,1,,,,,,,,,
296401,2022-12-07_13h03.57.260,vts_reward_expectancy_bt,2022.2.4,Win32,59.31901768,Chrome,1536,960,,,,,0,1058,,,,,,,,,,,,,,,,,B,146,hexagon,1,1,,,,,,,,,,,,,,,,repeat,number,numRpt,j,0.4976,Hi,,,,,,3,,,,,,,,high,27,0,27,0,1,,,,,,,,,
296401,2022-12-07_13h03.57.260,vts_reward_expectancy_bt,2022.2.4,Win32,59.31901768,Chrome,1536,960,,,,,0,1058,,,,,,,,,,,,,,,,,D,132,triangle,1,0,,,,,,,,,,,,,,,,repeat,number,numRpt,j,0.4335,Hi,,,,,,3,,,,,,,,high,28,0,28,0,1,,,,,,,,,
296401,2022-12-07_13h03.57.260,vts_reward_expectancy_bt,2022.2.4,Win32,59.31901768,Chrome,1536,960,,,,,10,1068,,,,,,,,,,,,,,,,,W,174,circle,1,0,,,,,,,,,,,,,,,,repeat,number,numRpt,k,0.4568,Lo,,,,,,3,,,,,,,,high,29,0,29,0,1,,,,,,,,,
296401,2022-12-07_13h03.57.260,vts_reward_expectancy_bt,2022.2.4,Win32,59.31901768,Chrome,1536,960,,,,,1,1069,,,,,,,,,,,,,,,,,H,167,star,1,0,,,,,,,,,,,,,,,,repeat,number,numRpt,k,0.4639,Lo,,,,,,3,,,,,,,,high,30,0,30,0,1,,,,,,,,,
296401,2022-12-07_13h03.57.260,vts_reward_expectancy_bt,2022.2.4,Win32,59.31901768,Chrome,1536,960,,,,,0,1069,,,,,,,,,,,,,,,,,F,160,hexagon,1,0,,,,,,,,,,,,,,,,repeat,number,numRpt,k,0.5321,Hi,,,,,,3,,,,,,,,high,31,0,31,0,1,,,,,,,,,
296401,2022-12-07_13h03.57.260,vts_reward_expectancy_bt,2022.2.4,Win32,59.31901768,Chrome,1536,960,,,,,1,1070,,,,,,,,,,,,,,,,,W,132,star,1,0,,,,,,,,,,,,,,,,switch,letter,lettSwt,f,0.5657,Lo,,,,,,4,,,,,,space,1.1603,high,0,0,0,0,1,,,,,,,,,
296401,2022-12-07_13h03.57.260,vts_reward_expectancy_bt,2022.2.4,Win32,59.31901768,Chrome,1536,960,,,,,10,1080,,,,,,,,,,,,,,,,,H,181,triangle,1,0,,,,,,,,,,,,,,,,repeat,letter,lettRpt,d,0.5519,Hi,,,,,,4,,,,,,,,high,1,0,1,0,1,,,,,,,,,
296401,2022-12-07_13h03.57.260,vts_reward_expectancy_bt,2022.2.4,Win32,59.31901768,Chrome,1536,960,,,,,10,1090,,,,,,,,,,,,,,,,,D,160,hexagon,1,0,,,,,,,,,,,,,,,,repeat,letter,lettRpt,d,0.5075,Hi,,,,,,4,,,,,,,,high,2,0,2,0,1,,,,,,,,,
296401,2022-12-07_13h03.57.260,vts_reward_expectancy_bt,2022.2.4,Win32,59.31901768,Chrome,1536,960,,,,,1,1091,,,,,,,,,,,,,,,,,S,139,circle,1,0,,,,,,,,,,,,,,,,repeat,letter,lettRpt,f,0.5478,Lo,,,,,,4,,,,,,,,high,3,0,3,0,1,,,,,,,,,
296401,2022-12-07_13h03.57.260,vts_reward_expectancy_bt,2022.2.4,Win32,59.31901768,Chrome,1536,960,,,,,1,1092,,,,,,,,,,,,,,,,,F,146,star,1,0,,,,,,,,,,,,,,,,repeat,letter,lettRpt,d,0.6029,Lo,,,,,,4,,,,,,,,high,4,0,4,0,1,,,,,,,,,
296401,2022-12-07_13h03.57.260,vts_reward_expectancy_bt,2022.2.4,Win32,59.31901768,Chrome,1536,960,,,,,10,1102,,,,,,,,,,,,,,,,,Y,174,triangle,1,0,,,,,,,,,,,,,,,,repeat,letter,lettRpt,f,0.4827,Hi,,,,,,4,,,,,,,,high,5,0,5,0,1,,,,,,,,,
296401,2022-12-07_13h03.57.260,vts_reward_expectancy_bt,2022.2.4,Win32,59.31901768,Chrome,1536,960,,,,,10,1112,,,,,,,,,,,,,,,,,U,167,hexagon,1,0,,,,,,,,,,,,,,,,repeat,letter,lettRpt,f,0.5016,Hi,,,,,,4,,,,,,,,high,6,0,6,0,1,,,,,,,,,
296401,2022-12-07_13h03.57.260,vts_reward_expectancy_bt,2022.2.4,Win32,59.31901768,Chrome,1536,960,,,,,10,1122,,,,,,,,,,,,,,,,,B,125,circle,1,0,,,,,,,,,,,,,,,,repeat,letter,lettRpt,d,0.5161,Lo,,,,,,4,,,,,,,,high,7,0,7,0,1,,,,,,,,,
296401,2022-12-07_13h03.57.260,vts_reward_expectancy_bt,2022.2.4,Win32,59.31901768,Chrome,1536,960,,,,,1,1123,,,,,,,,,,,,,,,,,W,132,circle,1,0,,,,,,,,,,,,,,,,repeat,letter,lettRpt,f,0.549,Lo,,,,,,4,,,,,,,,high,8,0,8,0,1,,,,,,,,,
296401,2022-12-07_13h03.57.260,vts_reward_expectancy_bt,2022.2.4,Win32,59.31901768,Chrome,1536,960,,,,,1,1124,,,,,,,,,,,,,,,,,H,181,star,1,0,,,,,,,,,,,,,,,,repeat,letter,lettRpt,d,0.4819,Lo,,,,,,4,,,,,,,,high,9,0,9,0,1,,,,,,,,,
296401,2022-12-07_13h03.57.260,vts_reward_expectancy_bt,2022.2.4,Win32,59.31901768,Chrome,1536,960,,,,,0,1124,,,,,,,,,,,,,,,,,D,160,hexagon,1,0,,,,,,,,,,,,,,,,repeat,letter,lettRpt,d,0.5982,Hi,,,,,,4,,,,,,,,high,10,0,10,0,1,,,,,,,,,
296401,2022-12-07_13h03.57.260,vts_reward_expectancy_bt,2022.2.4,Win32,59.31901768,Chrome,1536,960,,,,,10,1134,,,,,,,,,,,,,,,,,S,139,triangle,1,0,,,,,,,,,,,,,,,,repeat,letter,lettRpt,f,0.5515,Hi,,,,,,4,,,,,,,,high,11,0,11,0,1,,,,,,,,,
296401,2022-12-07_13h03.57.260,vts_reward_expectancy_bt,2022.2.4,Win32,59.31901768,Chrome,1536,960,,,,,0,1134,,,,,,,,,,,,,,,,,F,146,triangle,0,0,,,,,,,,,,,,,,,,repeat,letter,NA,f,0.4652,Hi,,,,,,4,,,,,,,,high,12,0,12,0,1,,,,,,,,,
296401,2022-12-07_13h03.57.260,vts_reward_expectancy_bt,2022.2.4,Win32,59.31901768,Chrome,1536,960,,,,,10,1144,,,,,,,,,,,,,,,,,Y,174,circle,1,1,,,,,,,,,,,,,,,,repeat,letter,lettRpt,f,0.5157,Lo,,,,,,4,,,,,,,,high,13,0,13,0,1,,,,,,,,,
296401,2022-12-07_13h03.57.260,vts_reward_expectancy_bt,2022.2.4,Win32,59.31901768,Chrome,1536,960,,,,,0,1144,,,,,,,,,,,,,,,,,U,167,star,0,0,,,,,,,,,,,,,,,,repeat,letter,NA,d,0.6665,Lo,,,,,,4,,,,,,,,high,14,0,14,0,1,,,,,,,,,
296401,2022-12-07_13h03.57.260,vts_reward_expectancy_bt,2022.2.4,Win32,59.31901768,Chrome,1536,960,,,,,10,1154,,,,,,,,,,,,,,,,,B,125,hexagon,1,1,,,,,,,,,,,,,,,,repeat,letter,lettRpt,d,0.4842,Hi,,,,,,4,,,,,,,,high,15,0,15,0,1,,,,,,,,,
296401,2022-12-07_13h03.57.260,vts_reward_expectancy_bt,2022.2.4,Win32,59.31901768,Chrome,1536,960,,,,,10,1164,,,,,,,,,,,,,,,,,B,167,star,1,0,,,,,,,,,,,,,,,,repeat,letter,lettRpt,d,0.4822,Lo,,,,,,4,,,,,,,,high,16,0,16,0,1,,,,,,,,,
296401,2022-12-07_13h03.57.260,vts_reward_expectancy_bt,2022.2.4,Win32,59.31901768,Chrome,1536,960,,,,,0,1164,,,,,,,,,,,,,,,,,Y,132,hexagon,0,0,,,,,,,,,,,,,,,,repeat,letter,NA,d,1.369,Lo,,,,,,4,,,,,,,,high,17,0,17,0,1,,,,,,,,,
296401,2022-12-07_13h03.57.260,vts_reward_expectancy_bt,2022.2.4,Win32,59.31901768,Chrome,1536,960,,,,,0,1164,,,,,,,,,,,,,,,,,D,125,triangle,1,1,,,,,,,,,,,,,,,,repeat,letter,lettRpt,d,0.8493,Hi,,,,,,4,,,,,,,,high,18,0,18,0,1,,,,,,,,,
296401,2022-12-07_13h03.57.260,vts_reward_expectancy_bt,2022.2.4,Win32,59.31901768,Chrome,1536,960,,,,,0,1164,,,,,,,,,,,,,,,,,W,139,circle,0,0,,,,,,,,,,,,,,,,repeat,letter,NA,d,0.5796,Hi,,,,,,4,,,,,,,,high,19,0,19,0,1,,,,,,,,,
296401,2022-12-07_13h03.57.260,vts_reward_expectancy_bt,2022.2.4,Win32,59.31901768,Chrome,1536,960,,,,,1,1165,,,,,,,,,,,,,,,,,H,181,circle,1,1,,,,,,,,,,,,,,,,repeat,letter,lettRpt,d,0.4495,Lo,,,,,,4,,,,,,,,high,20,0,20,0,1,,,,,,,,,
296401,2022-12-07_13h03.57.260,vts_reward_expectancy_bt,2022.2.4,Win32,59.31901768,Chrome,1536,960,,,,,10,1175,,,,,,,,,,,,,,,,,S,160,star,1,0,,,,,,,,,,,,,,,,repeat,letter,lettRpt,f,0.7654,Lo,,,,,,4,,,,,,,,high,21,0,21,0,1,,,,,,,,,
296401,2022-12-07_13h03.57.260,vts_reward_expectancy_bt,2022.2.4,Win32,59.31901768,Chrome,1536,960,,,,,0,1175,,,,,,,,,,,,,,,,,F,174,triangle,1,0,,,,,,,,,,,,,,,,repeat,letter,lettRpt,d,0.8466,Hi,,,,,,4,,,,,,,,high,22,0,22,0,1,,,,,,,,,
296401,2022-12-07_13h03.57.260,vts_reward_expectancy_bt,2022.2.4,Win32,59.31901768,Chrome,1536,960,,,,,10,1185,,,,,,,,,,,,,,,,,U,146,hexagon,1,0,,,,,,,,,,,,,,,,repeat,letter,lettRpt,f,0.4867,Hi,,,,,,4,,,,,,,,high,23,0,23,0,1,,,,,,,,,
296401,2022-12-07_13h03.57.260,vts_reward_expectancy_bt,2022.2.4,Win32,59.31901768,Chrome,1536,960,,,,,0,1185,,,,,,,,,,,,,,,,,W,181,star,0,0,,,,,,,,,,,,,,,,repeat,letter,NA,d,0.5166,Hi,,,,,,4,,,,,,,,high,24,0,24,0,1,,,,,,,,,
296401,2022-12-07_13h03.57.260,vts_reward_expectancy_bt,2022.2.4,Win32,59.31901768,Chrome,1536,960,,,,,0,1185,,,,,,,,,,,,,,,,,U,132,triangle,1,1,,,,,,,,,,,,,,,,repeat,letter,lettRpt,f,0.5902,Hi,,,,,,4,,,,,,,,high,25,0,25,0,1,,,,,,,,,
296401,2022-12-07_13h03.57.260,vts_reward_expectancy_bt,2022.2.4,Win32,59.31901768,Chrome,1536,960,,,,,0,1185,,,,,,,,,,,,,,,,,H,139,hexagon,0,0,,,,,,,,,,,,,,,,repeat,letter,NA,f,0.4481,Hi,,,,,,4,,,,,,,,high,26,0,26,0,1,,,,,,,,,
296401,2022-12-07_13h03.57.260,vts_reward_expectancy_bt,2022.2.4,Win32,59.31901768,Chrome,1536,960,,,,,1,1186,,,,,,,,,,,,,,,,,D,160,circle,1,1,,,,,,,,,,,,,,,,repeat,letter,lettRpt,d,0.4662,Lo,,,,,,4,,,,,,,,high,27,0,27,0,1,,,,,,,,,
296401,2022-12-07_13h03.57.260,vts_reward_expectancy_bt,2022.2.4,Win32,59.31901768,Chrome,1536,960,,,,,10,1196,,,,,,,,,,,,,,,,,B,174,star,1,0,,,,,,,,,,,,,,,,repeat,letter,lettRpt,d,0.4798,Lo,,,,,,4,,,,,,,,high,28,0,28,0,1,,,,,,,,,
296401,2022-12-07_13h03.57.260,vts_reward_expectancy_bt,2022.2.4,Win32,59.31901768,Chrome,1536,960,,,,,0,1196,,,,,,,,,,,,,,,,,F,167,triangle,0,0,,,,,,,,,,,,,,,,repeat,letter,NA,f,0.4718,Lo,,,,,,4,,,,,,,,high,29,0,29,0,1,,,,,,,,,
296401,2022-12-07_13h03.57.260,vts_reward_expectancy_bt,2022.2.4,Win32,59.31901768,Chrome,1536,960,,,,,1,1197,,,,,,,,,,,,,,,,,Y,125,hexagon,1,1,,,,,,,,,,,,,,,,repeat,letter,lettRpt,f,0.5471,Hi,,,,,,4,,,,,,,,high,30,0,30,0,1,,,,,,,,,
296401,2022-12-07_13h03.57.260,vts_reward_expectancy_bt,2022.2.4,Win32,59.31901768,Chrome,1536,960,,,,,1,1198,,,,,,,,,,,,,,,,,S,146,circle,1,0,,,,,,,,,,,,,,,,repeat,letter,lettRpt,f,0.5826,Lo,,,,,,4,,,,,,,,high,31,0,31,0,1,,,,,,,,,
296401,2022-12-07_13h03.57.260,vts_reward_expectancy_bt,2022.2.4,Win32,59.31901768,Chrome,1536,960,,,,,10,1208,,,,,,,,,,,,,,,,,U,174,triangle,1,0,,,,,,,,,,,,,,,,switch,number,numSwt,k,0.5302,Hi,,,,,,5,,,,,,space,0.3624,high,0,0,0,0,1,,,,,,,,,
296401,2022-12-07_13h03.57.260,vts_reward_expectancy_bt,2022.2.4,Win32,59.31901768,Chrome,1536,960,,,,,1,1209,,,,,,,,,,,,,,,,,W,181,circle,1,0,,,,,,,,,,,,,,,,repeat,number,numRpt,k,1.2318,Lo,,,,,,5,,,,,,,,high,1,0,1,0,1,,,,,,,,,
296401,2022-12-07_13h03.57.260,vts_reward_expectancy_bt,2022.2.4,Win32,59.31901768,Chrome,1536,960,,,,,1,1210,,,,,,,,,,,,,,,,,F,139,hexagon,1,0,,,,,,,,,,,,,,,,repeat,number,numRpt,j,0.7239,Hi,,,,,,5,,,,,,,,high,2,0,2,0,1,,,,,,,,,
296401,2022-12-07_13h03.57.260,vts_reward_expectancy_bt,2022.2.4,Win32,59.31901768,Chrome,1536,960,,,,,1,1211,,,,,,,,,,,,,,,,,D,132,star,1,0,,,,,,,,,,,,,,,,repeat,number,numRpt,j,0.8648,Lo,,,,,,5,,,,,,,,high,3,0,3,0,1,,,,,,,,,
296401,2022-12-07_13h03.57.260,vts_reward_expectancy_bt,2022.2.4,Win32,59.31901768,Chrome,1536,960,,,,,10,1221,,,,,,,,,,,,,,,,,S,167,triangle,1,0,,,,,,,,,,,,,,,,repeat,number,numRpt,k,0.5524,Hi,,,,,,5,,,,,,,,high,4,0,4,0,1,,,,,,,,,
296401,2022-12-07_13h03.57.260,vts_reward_expectancy_bt,2022.2.4,Win32,59.31901768,Chrome,1536,960,,,,,0,1221,,,,,,,,,,,,,,,,,H,146,circle,0,0,,,,,,,,,,,,,,,,repeat,number,NA,k,0.4481,Hi,,,,,,5,,,,,,,,high,5,0,5,0,1,,,,,,,,,
296401,2022-12-07_13h03.57.260,vts_reward_expectancy_bt,2022.2.4,Win32,59.31901768,Chrome,1536,960,,,,,10,1231,,,,,,,,,,,,,,,,,Y,160,hexagon,1,1,,,,,,,,,,,,,,,,repeat,number,numRpt,k,0.8987,Hi,,,,,,5,,,,,,,,high,6,0,6,0,1,,,,,,,,,
296401,2022-12-07_13h03.57.260,vts_reward_expectancy_bt,2022.2.4,Win32,59.31901768,Chrome,1536,960,,,,,1,1232,,,,,,,,,,,,,,,,,B,125,star,1,0,,,,,,,,,,,,,,,,repeat,number,numRpt,j,0.6324,Lo,,,,,,5,,,,,,,,high,7,0,7,0,1,,,,,,,,,
296401,2022-12-07_13h03.57.260,vts_reward_expectancy_bt,2022.2.4,Win32,59.31901768,Chrome,1536,960,,,,,1,1233,,,,,,,,,,,,,,,,,U,174,circle,1,0,,,,,,,,,,,,,,,,repeat,number,numRpt,k,0.5576,Lo,,,,,,5,,,,,,,,high,8,0,8,0,1,,,,,,,,,
296401,2022-12-07_13h03.57.260,vts_reward_expectancy_bt,2022.2.4,Win32,59.31901768,Chrome,1536,960,,,,,10,1243,,,,,,,,,,,,,,,,,W,181,hexagon,1,0,,,,,,,,,,,,,,,,repeat,number,numRpt,k,0.6812,Hi,,,,,,5,,,,,,,,high,9,0,9,0,1,,,,,,,,,
296401,2022-12-07_13h03.57.260,vts_reward_expectancy_bt,2022.2.4,Win32,59.31901768,Chrome,1536,960,,,,,1,1244,,,,,,,,,,,,,,,,,F,139,star,1,0,,,,,,,,,,,,,,,,repeat,number,numRpt,j,0.6657,Lo,,,,,,5,,,,,,,,high,10,0,10,0,1,,,,,,,,,
296401,2022-12-07_13h03.57.260,vts_reward_expectancy_bt,2022.2.4,Win32,59.31901768,Chrome,1536,960,,,,,10,1254,,,,,,,,,,,,,,,,,D,132,triangle,1,0,,,,,,,,,,,,,,,,repeat,number,numRpt,j,0.5663,Hi,,,,,,5,,,,,,,,high,11,0,11,0,1,,,,,,,,,
296401,2022-12-07_13h03.57.260,vts_reward_expectancy_bt,2022.2.4,Win32,59.31901768,Chrome,1536,960,,,,,0,1254,,,,,,,,,,,,,,,,,S,167,star,0,0,,,,,,,,,,,,,,,,repeat,number,NA,j,0.6859,Hi,,,,,,5,,,,,,,,high,12,0,12,0,1,,,,,,,,,
296401,2022-12-07_13h03.57.260,vts_reward_expectancy_bt,2022.2.4,Win32,59.31901768,Chrome,1536,960,,,,,10,1264,,,,,,,,,,,,,,,,,H,146,hexagon,1,1,,,,,,,,,,,,,,,,repeat,number,numRpt,j,0.5501,Hi,,,,,,5,,,,,,,,high,13,0,13,0,1,,,,,,,,,
296401,2022-12-07_13h03.57.260,vts_reward_expectancy_bt,2022.2.4,Win32,59.31901768,Chrome,1536,960,,,,,1,1265,,,,,,,,,,,,,,,,,Y,160,circle,1,0,,,,,,,,,,,,,,,,repeat,number,numRpt,k,0.4833,Lo,,,,,,5,,,,,,,,high,14,0,14,0,1,,,,,,,,,
296401,2022-12-07_13h03.57.260,vts_reward_expectancy_bt,2022.2.4,Win32,59.31901768,Chrome,1536,960,,,,,10,1275,,,,,,,,,,,,,,,,,B,125,triangle,1,0,,,,,,,,,,,,,,,,repeat,number,numRpt,j,0.469,Hi,,,,,,5,,,,,,,,high,15,0,15,0,1,,,,,,,,,
296401,2022-12-07_13h03.57.260,vts_reward_expectancy_bt,2022.2.4,Win32,59.31901768,Chrome,1536,960,,,,,1,1276,,,,,,,,,,,,,,,,,D,160,circle,1,0,,,,,,,,,,,,,,,,repeat,number,numRpt,k,0.5646,Lo,,,,,,5,,,,,,,,high,16,0,16,0,1,,,,,,,,,
296401,2022-12-07_13h03.57.260,vts_reward_expectancy_bt,2022.2.4,Win32,59.31901768,Chrome,1536,960,,,,,10,1286,,,,,,,,,,,,,,,,,S,125,hexagon,1,0,,,,,,,,,,,,,,,,repeat,number,numRpt,j,0.5153,Hi,,,,,,5,,,,,,,,high,17,0,17,0,1,,,,,,,,,
296401,2022-12-07_13h03.57.260,vts_reward_expectancy_bt,2022.2.4,Win32,59.31901768,Chrome,1536,960,,,,,0,1286,,,,,,,,,,,,,,,,,W,146,star,0,0,,,,,,,,,,,,,,,,repeat,number,NA,k,0.5502,Hi,,,,,,5,,,,,,,,high,18,0,18,0,1,,,,,,,,,
296401,2022-12-07_13h03.57.260,vts_reward_expectancy_bt,2022.2.4,Win32,59.31901768,Chrome,1536,960,,,,,10,1296,,,,,,,,,,,,,,,,,F,132,triangle,1,1,,,,,,,,,,,,,,,,repeat,number,numRpt,j,0.6136,Hi,,,,,,5,,,,,,,,high,19,0,19,0,1,,,,,,,,,
296401,2022-12-07_13h03.57.260,vts_reward_expectancy_bt,2022.2.4,Win32,59.31901768,Chrome,1536,960,,,,,1,1297,,,,,,,,,,,,,,,,,Y,167,star,1,0,,,,,,,,,,,,,,,,repeat,number,numRpt,k,0.5651,Lo,,,,,,5,,,,,,,,high,20,0,20,0,1,,,,,,,,,
296401,2022-12-07_13h03.57.260,vts_reward_expectancy_bt,2022.2.4,Win32,59.31901768,Chrome,1536,960,,,,,0,1297,,,,,,,,,,,,,,,,,H,174,hexagon,0,0,,,,,,,,,,,,,,,,repeat,number,NA,j,0.6839,Lo,,,,,,5,,,,,,,,high,21,0,21,0,1,,,,,,,,,
296401,2022-12-07_13h03.57.260,vts_reward_expectancy_bt,2022.2.4,Win32,59.31901768,Chrome,1536,960,,,,,10,1307,,,,,,,,,,,,,,,,,U,139,triangle,1,1,,,,,,,,,,,,,,,,repeat,number,numRpt,j,0.5539,Hi,,,,,,5,,,,,,,,high,22,0,22,0,1,,,,,,,,,
296401,2022-12-07_13h03.57.260,vts_reward_expectancy_bt,2022.2.4,Win32,59.31901768,Chrome,1536,960,,,,,10,1317,,,,,,,,,,,,,,,,,B,181,circle,1,0,,,,,,,,,,,,,,,,repeat,number,numRpt,k,0.6137,Lo,,,,,,5,,,,,,,,high,23,0,23,0,1,,,,,,,,,
296401,2022-12-07_13h03.57.260,vts_reward_expectancy_bt,2022.2.4,Win32,59.31901768,Chrome,1536,960,,,,,1,1318,,,,,,,,,,,,,,,,,S,139,circle,1,0,,,,,,,,,,,,,,,,repeat,number,numRpt,j,0.6142,Lo,,,,,,5,,,,,,,,high,24,0,24,0,1,,,,,,,,,
296401,2022-12-07_13h03.57.260,vts_reward_expectancy_bt,2022.2.4,Win32,59.31901768,Chrome,1536,960,,,,,10,1328,,,,,,,,,,,,,,,,,Y,125,hexagon,1,0,,,,,,,,,,,,,,,,repeat,number,numRpt,j,0.7293,Hi,,,,,,5,,,,,,,,high,25,0,25,0,1,,,,,,,,,
296401,2022-12-07_13h03.57.260,vts_reward_expectancy_bt,2022.2.4,Win32,59.31901768,Chrome,1536,960,,,,,1,1329,,,,,,,,,,,,,,,,,W,167,star,1,0,,,,,,,,,,,,,,,,repeat,number,numRpt,k,0.5703,Lo,,,,,,5,,,,,,,,high,26,0,26,0,1,,,,,,,,,
296401,2022-12-07_13h03.57.260,vts_reward_expectancy_bt,2022.2.4,Win32,59.31901768,Chrome,1536,960,,,,,10,1339,,,,,,,,,,,,,,,,,F,146,triangle,1,0,,,,,,,,,,,,,,,,repeat,number,numRpt,j,0.5155,Hi,,,,,,5,,,,,,,,high,27,0,27,0,1,,,,,,,,,
296401,2022-12-07_13h03.57.260,vts_reward_expectancy_bt,2022.2.4,Win32,59.31901768,Chrome,1536,960,,,,,1,1340,,,,,,,,,,,,,,,,,B,132,star,1,0,,,,,,,,,,,,,,,,repeat,number,numRpt,j,0.6996,Lo,,,,,,5,,,,,,,,high,28,0,28,0,1,,,,,,,,,
296401,2022-12-07_13h03.57.260,vts_reward_expectancy_bt,2022.2.4,Win32,59.31901768,Chrome,1536,960,,,,,10,1350,,,,,,,,,,,,,,,,,U,181,hexagon,1,0,,,,,,,,,,,,,,,,repeat,number,numRpt,k,0.5976,Hi,,,,,,5,,,,,,,,high,29,0,29,0,1,,,,,,,,,
296401,2022-12-07_13h03.57.260,vts_reward_expectancy_bt,2022.2.4,Win32,59.31901768,Chrome,1536,960,,,,,0,1350,,,,,,,,,,,,,,,,,D,160,circle,0,0,,,,,,,,,,,,,,,,repeat,number,NA,j,1.101,Hi,,,,,,5,,,,,,,,high,30,0,30,0,1,,,,,,,,,
296401,2022-12-07_13h03.57.260,vts_reward_expectancy_bt,2022.2.4,Win32,59.31901768,Chrome,1536,960,,,,,10,1360,,,,,,,,,,,,,,,,,H,174,triangle,1,1,,,,,,,,,,,,,,,,repeat,number,numRpt,k,0.7659,Hi,,,,,,5,,,,,,,,high,31,0,31,0,1,,,,,,,,,
296401,2022-12-07_13h03.57.260,vts_reward_expectancy_bt,2022.2.4,Win32,59.31901768,Chrome,1536,960,,,,,0,1360,,,,,,,,,,,,,,,,,H,181,hexagon,1,0,,,,,,,,,,,,,,,,repeat,number,numRpt,k,1.9498,Hi,,,,,,6,,,,,,space,0.4766,high,0,0,0,0,1,,,,,,,,,
296401,2022-12-07_13h03.57.260,vts_reward_expectancy_bt,2022.2.4,Win32,59.31901768,Chrome,1536,960,,,,,0,1360,,,,,,,,,,,,,,,,,W,174,triangle,1,0,,,,,,,,,,,,,,,,repeat,number,numRpt,k,0.597,Hi,,,,,,6,,,,,,,,high,1,0,1,0,1,,,,,,,,,
296401,2022-12-07_13h03.57.260,vts_reward_expectancy_bt,2022.2.4,Win32,59.31901768,Chrome,1536,960,,,,,1,1361,,,,,,,,,,,,,,,,,D,125,circle,1,0,,,,,,,,,,,,,,,,repeat,number,numRpt,j,0.4812,Lo,,,,,,6,,,,,,,,high,2,0,2,0,1,,,,,,,,,
296401,2022-12-07_13h03.57.260,vts_reward_expectancy_bt,2022.2.4,Win32,59.31901768,Chrome,1536,960,,,,,1,1362,,,,,,,,,,,,,,,,,F,146,star,1,0,,,,,,,,,,,,,,,,repeat,number,numRpt,j,0.5326,Lo,,,,,,6,,,,,,,,high,3,0,3,0,1,,,,,,,,,
296401,2022-12-07_13h03.57.260,vts_reward_expectancy_bt,2022.2.4,Win32,59.31901768,Chrome,1536,960,,,,,10,1372,,,,,,,,,,,,,,,,,U,160,hexagon,1,0,,,,,,,,,,,,,,,,repeat,number,numRpt,k,0.5029,Hi,,,,,,6,,,,,,,,high,4,0,4,0,1,,,,,,,,,
296401,2022-12-07_13h03.57.260,vts_reward_expectancy_bt,2022.2.4,Win32,59.31901768,Chrome,1536,960,,,,,0,1372,,,,,,,,,,,,,,,,,Y,132,triangle,1,0,,,,,,,,,,,,,,,,repeat,number,numRpt,j,0.5842,Hi,,,,,,6,,,,,,,,high,5,0,5,0,1,,,,,,,,,
296401,2022-12-07_13h03.57.260,vts_reward_expectancy_bt,2022.2.4,Win32,59.31901768,Chrome,1536,960,,,,,1,1373,,,,,,,,,,,,,,,,,S,167,circle,1,0,,,,,,,,,,,,,,,,switch,letter,lettSwt,f,0.5987,Lo,,,,,,6,,,,,,,,high,6,0,6,0,1,,,,,,,,,
