participant,date,expName,psychopyVersion,OS,frameRate,browser,xResolution,yResolution,key_resp.keys,key_resp.rt,training_resp.keys,training_resp.rt,points_trial,points_cumul,trainBlock,training.thisRepN,training.thisTrialN,training.thisN,training.thisIndex,training.ran,LTriangleOpac,LCircleOpac,LHexagonOpac,LStarOpac,RTriangleOpac,RCircleOpac,RHexagonOpac,RStarOpac,LShape_ID,RShape_ID,curr_topStim,curr_bottStim,curr_shape,acc,E1,target_resp_prac1.keys,pracBlock,task1_prac_trials.thisRepN,task1_prac_trials.thisTrialN,task1_prac_trials.thisN,task1_prac_trials.thisIndex,task1_prac_trials.ran,target_resp_prac1.rt,target_resp_prac2.keys,target_resp_prac2.rt,task2_praac_trials.thisRepN,task2_praac_trials.thisTrialN,task2_praac_trials.thisN,task2_praac_trials.thisIndex,task2_praac_trials.ran,alt,task,condition,target_resp.keys,target_resp.rt,rewCond,vts_practice_trials.thisRepN,vts_practice_trials.thisTrialN,vts_practice_trials.thisN,vts_practice_trials.thisIndex,vts_practice_trials.ran,blockNum,trials_norew.thisRepN,trials_norew.thisTrialN,trials_norew.thisN,trials_norew.thisIndex,trials_norew.ran,key_resp_2.keys,key_resp_2.rt,rewExpectancy,trials_rew.thisRepN,trials_rew.thisTrialN,trials_rew.thisN,trials_rew.thisIndex,trials_rew.ran,Q1,Q2,Q2_text,Q3,Q4,Q5_text,Q5,xRes,yRes
296509,2022-12-05_23h15.20.791,vts_reward_expectancy_bt,2022.2.4,Win32,60.03842459,Chrome,1920,1080,,,,,,,,,,,,,,,,,,,,,,,,,,,,,,,,,,,,,,,,,,,,,,,,,,,,,,,,,,,,,,,,,,,,,,,,,,,,
296509,2022-12-05_23h15.20.791,vts_reward_expectancy_bt,2022.2.4,Win32,60.03842459,Chrome,1920,1080,space,3.6003,,,,,,,,,,,,,,,,,,,,,,,,,,,,,,,,,,,,,,,,,,,,,,,,,,,,,,,,,,,,,,,,,,,,,,,,,,
296509,2022-12-05_23h15.20.791,vts_reward_expectancy_bt,2022.2.4,Win32,60.03842459,Chrome,1920,1080,,,,,,,,,,,,,,,,,,,,,,,,,,,,,,,,,,,,,,,,,,,,,,,,,,,,,,,,,,,,,,,,,,,,,,,,,,,,
296509,2022-12-05_23h15.20.791,vts_reward_expectancy_bt,2022.2.4,Win32,60.03842459,Chrome,1920,1080,,,a,2.1214,1,1,0,0,0,0,5,1,0,1,0,0,0,0,0,1,circle,star,,,,,,,,,,,,,,,,,,,,,,,,,,,,,,,,,,,,,,,,,,,,,,,,,,,,,,
296509,2022-12-05_23h15.20.791,vts_reward_expectancy_bt,2022.2.4,Win32,60.03842459,Chrome,1920,1080,,,l,1.1826,1,2,0,0,1,1,10,1,0,0,0,1,0,1,0,0,star ,circle,,,,,,,,,,,,,,,,,,,,,,,,,,,,,,,,,,,,,,,,,,,,,,,,,,,,,,
296509,2022-12-05_23h15.20.791,vts_reward_expectancy_bt,2022.2.4,Win32,60.03842459,Chrome,1920,1080,,,l,0.7514,10,12,0,0,2,2,6,1,0,0,1,0,1,0,0,0,hexagon,triangle,,,,,,,,,,,,,,,,,,,,,,,,,,,,,,,,,,,,,,,,,,,,,,,,,,,,,,
296509,2022-12-05_23h15.20.791,vts_reward_expectancy_bt,2022.2.4,Win32,60.03842459,Chrome,1920,1080,,,a,1.2688,1,13,0,0,3,3,4,1,0,1,0,0,0,0,1,0,circle,hexagon,,,,,,,,,,,,,,,,,,,,,,,,,,,,,,,,,,,,,,,,,,,,,,,,,,,,,,
296509,2022-12-05_23h15.20.791,vts_reward_expectancy_bt,2022.2.4,Win32,60.03842459,Chrome,1920,1080,,,l,1.0027,1,14,0,0,4,4,1,1,1,0,0,0,0,0,1,0,triangle,hexagon,,,,,,,,,,,,,,,,,,,,,,,,,,,,,,,,,,,,,,,,,,,,,,,,,,,,,,
296509,2022-12-05_23h15.20.791,vts_reward_expectancy_bt,2022.2.4,Win32,60.03842459,Chrome,1920,1080,,,a,0.653,1,15,0,0,5,5,3,1,0,1,0,0,1,0,0,0,circle,triangle,,,,,,,,,,,,,,,,,,,,,,,,,,,,,,,,,,,,,,,,,,,,,,,,,,,,,,
296509,2022-12-05_23h15.20.791,vts_reward_expectancy_bt,2022.2.4,Win32,60.03842459,Chrome,1920,1080,,,a,0.7331,1,16,0,0,6,6,7,1,0,0,1,0,0,1,0,0,hexagon,circle,,,,,,,,,,,,,,,,,,,,,,,,,,,,,,,,,,,,,,,,,,,,,,,,,,,,,,
296509,2022-12-05_23h15.20.791,vts_reward_expectancy_bt,2022.2.4,Win32,60.03842459,Chrome,1920,1080,,,a,0.3316,10,26,0,0,7,7,0,1,1,0,0,0,0,1,0,0,triangle,circle,,,,,,,,,,,,,,,,,,,,,,,,,,,,,,,,,,,,,,,,,,,,,,,,,,,,,,
296509,2022-12-05_23h15.20.791,vts_reward_expectancy_bt,2022.2.4,Win32,60.03842459,Chrome,1920,1080,,,a,0.8516,10,36,0,0,8,8,9,1,0,0,0,1,1,0,0,0,star,triangle,,,,,,,,,,,,,,,,,,,,,,,,,,,,,,,,,,,,,,,,,,,,,,,,,,,,,,
296509,2022-12-05_23h15.20.791,vts_reward_expectancy_bt,2022.2.4,Win32,60.03842459,Chrome,1920,1080,,,l,1.0392,10,46,0,0,9,9,8,1,0,0,1,0,0,0,0,1,hexagon,star,,,,,,,,,,,,,,,,,,,,,,,,,,,,,,,,,,,,,,,,,,,,,,,,,,,,,,
296509,2022-12-05_23h15.20.791,vts_reward_expectancy_bt,2022.2.4,Win32,60.03842459,Chrome,1920,1080,,,l,0.5075,10,56,0,0,10,10,2,1,1,0,0,0,0,0,0,1,triangle,star,,,,,,,,,,,,,,,,,,,,,,,,,,,,,,,,,,,,,,,,,,,,,,,,,,,,,,
296509,2022-12-05_23h15.20.791,vts_reward_expectancy_bt,2022.2.4,Win32,60.03842459,Chrome,1920,1080,,,a,0.7124,1,57,0,0,11,11,11,1,0,0,0,1,0,0,1,0,star,hexagon,,,,,,,,,,,,,,,,,,,,,,,,,,,,,,,,,,,,,,,,,,,,,,,,,,,,,,
296509,2022-12-05_23h15.20.791,vts_reward_expectancy_bt,2022.2.4,Win32,60.03842459,Chrome,1920,1080,,,l,0.5672,1,58,0,1,0,12,10,1,0,0,0,1,0,1,0,0,star ,circle,,,,,,,,,,,,,,,,,,,,,,,,,,,,,,,,,,,,,,,,,,,,,,,,,,,,,,
296509,2022-12-05_23h15.20.791,vts_reward_expectancy_bt,2022.2.4,Win32,60.03842459,Chrome,1920,1080,,,l,0.7996,1,59,0,1,1,13,4,1,0,1,0,0,0,0,1,0,circle,hexagon,,,,,,,,,,,,,,,,,,,,,,,,,,,,,,,,,,,,,,,,,,,,,,,,,,,,,,
296509,2022-12-05_23h15.20.791,vts_reward_expectancy_bt,2022.2.4,Win32,60.03842459,Chrome,1920,1080,,,a,1.0954,10,69,0,1,2,14,7,1,0,0,1,0,0,1,0,0,hexagon,circle,,,,,,,,,,,,,,,,,,,,,,,,,,,,,,,,,,,,,,,,,,,,,,,,,,,,,,
296509,2022-12-05_23h15.20.791,vts_reward_expectancy_bt,2022.2.4,Win32,60.03842459,Chrome,1920,1080,,,l,0.6719,1,70,0,1,3,15,1,1,1,0,0,0,0,0,1,0,triangle,hexagon,,,,,,,,,,,,,,,,,,,,,,,,,,,,,,,,,,,,,,,,,,,,,,,,,,,,,,
296509,2022-12-05_23h15.20.791,vts_reward_expectancy_bt,2022.2.4,Win32,60.03842459,Chrome,1920,1080,,,a,0.689,10,80,0,1,4,16,9,1,0,0,0,1,1,0,0,0,star,triangle,,,,,,,,,,,,,,,,,,,,,,,,,,,,,,,,,,,,,,,,,,,,,,,,,,,,,,
296509,2022-12-05_23h15.20.791,vts_reward_expectancy_bt,2022.2.4,Win32,60.03842459,Chrome,1920,1080,,,a,1.3669,1,81,0,1,5,17,3,1,0,1,0,0,1,0,0,0,circle,triangle,,,,,,,,,,,,,,,,,,,,,,,,,,,,,,,,,,,,,,,,,,,,,,,,,,,,,,
296509,2022-12-05_23h15.20.791,vts_reward_expectancy_bt,2022.2.4,Win32,60.03842459,Chrome,1920,1080,,,l,0.5685,10,91,0,1,6,18,5,1,0,1,0,0,0,0,0,1,circle,star,,,,,,,,,,,,,,,,,,,,,,,,,,,,,,,,,,,,,,,,,,,,,,,,,,,,,,
296509,2022-12-05_23h15.20.791,vts_reward_expectancy_bt,2022.2.4,Win32,60.03842459,Chrome,1920,1080,,,l,0.7529,10,101,0,1,7,19,8,1,0,0,1,0,0,0,0,1,hexagon,star,,,,,,,,,,,,,,,,,,,,,,,,,,,,,,,,,,,,,,,,,,,,,,,,,,,,,,
296509,2022-12-05_23h15.20.791,vts_reward_expectancy_bt,2022.2.4,Win32,60.03842459,Chrome,1920,1080,,,a,0.3683,10,111,0,1,8,20,11,1,0,0,0,1,0,0,1,0,star,hexagon,,,,,,,,,,,,,,,,,,,,,,,,,,,,,,,,,,,,,,,,,,,,,,,,,,,,,,
296509,2022-12-05_23h15.20.791,vts_reward_expectancy_bt,2022.2.4,Win32,60.03842459,Chrome,1920,1080,,,l,0.3838,1,112,0,1,9,21,2,1,1,0,0,0,0,0,0,1,triangle,star,,,,,,,,,,,,,,,,,,,,,,,,,,,,,,,,,,,,,,,,,,,,,,,,,,,,,,
296509,2022-12-05_23h15.20.791,vts_reward_expectancy_bt,2022.2.4,Win32,60.03842459,Chrome,1920,1080,,,l,1.6372,10,122,0,1,10,22,6,1,0,0,1,0,1,0,0,0,hexagon,triangle,,,,,,,,,,,,,,,,,,,,,,,,,,,,,,,,,,,,,,,,,,,,,,,,,,,,,,
296509,2022-12-05_23h15.20.791,vts_reward_expectancy_bt,2022.2.4,Win32,60.03842459,Chrome,1920,1080,,,a,1.5553,10,132,0,1,11,23,0,1,1,0,0,0,0,1,0,0,triangle,circle,,,,,,,,,,,,,,,,,,,,,,,,,,,,,,,,,,,,,,,,,,,,,,,,,,,,,,
296509,2022-12-05_23h15.20.791,vts_reward_expectancy_bt,2022.2.4,Win32,60.03842459,Chrome,1920,1080,,,l,1.1447,10,142,0,2,0,24,5,1,0,1,0,0,0,0,0,1,circle,star,,,,,,,,,,,,,,,,,,,,,,,,,,,,,,,,,,,,,,,,,,,,,,,,,,,,,,
296509,2022-12-05_23h15.20.791,vts_reward_expectancy_bt,2022.2.4,Win32,60.03842459,Chrome,1920,1080,,,a,1.0696,1,143,0,2,1,25,9,1,0,0,0,1,1,0,0,0,star,triangle,,,,,,,,,,,,,,,,,,,,,,,,,,,,,,,,,,,,,,,,,,,,,,,,,,,,,,
296509,2022-12-05_23h15.20.791,vts_reward_expectancy_bt,2022.2.4,Win32,60.03842459,Chrome,1920,1080,,,l,1.0436,1,144,0,2,2,26,0,1,1,0,0,0,0,1,0,0,triangle,circle,,,,,,,,,,,,,,,,,,,,,,,,,,,,,,,,,,,,,,,,,,,,,,,,,,,,,,
296509,2022-12-05_23h15.20.791,vts_reward_expectancy_bt,2022.2.4,Win32,60.03842459,Chrome,1920,1080,,,a,0.4252,10,154,0,2,3,27,11,1,0,0,0,1,0,0,1,0,star,hexagon,,,,,,,,,,,,,,,,,,,,,,,,,,,,,,,,,,,,,,,,,,,,,,,,,,,,,,
296509,2022-12-05_23h15.20.791,vts_reward_expectancy_bt,2022.2.4,Win32,60.03842459,Chrome,1920,1080,,,a,0.3971,10,164,0,2,4,28,7,1,0,0,1,0,0,1,0,0,hexagon,circle,,,,,,,,,,,,,,,,,,,,,,,,,,,,,,,,,,,,,,,,,,,,,,,,,,,,,,
296509,2022-12-05_23h15.20.791,vts_reward_expectancy_bt,2022.2.4,Win32,60.03842459,Chrome,1920,1080,,,a,0.3729,10,174,0,2,5,29,1,1,1,0,0,0,0,0,1,0,triangle,hexagon,,,,,,,,,,,,,,,,,,,,,,,,,,,,,,,,,,,,,,,,,,,,,,,,,,,,,,
296509,2022-12-05_23h15.20.791,vts_reward_expectancy_bt,2022.2.4,Win32,60.03842459,Chrome,1920,1080,,,l,1.9325,1,175,0,2,6,30,2,1,1,0,0,0,0,0,0,1,triangle,star,,,,,,,,,,,,,,,,,,,,,,,,,,,,,,,,,,,,,,,,,,,,,,,,,,,,,,
296509,2022-12-05_23h15.20.791,vts_reward_expectancy_bt,2022.2.4,Win32,60.03842459,Chrome,1920,1080,,,a,1.8096,1,176,0,2,7,31,10,1,0,0,0,1,0,1,0,0,star ,circle,,,,,,,,,,,,,,,,,,,,,,,,,,,,,,,,,,,,,,,,,,,,,,,,,,,,,,
296509,2022-12-05_23h15.20.791,vts_reward_expectancy_bt,2022.2.4,Win32,60.03842459,Chrome,1920,1080,,,l,0.9982,10,186,0,2,8,32,3,1,0,1,0,0,1,0,0,0,circle,triangle,,,,,,,,,,,,,,,,,,,,,,,,,,,,,,,,,,,,,,,,,,,,,,,,,,,,,,
296509,2022-12-05_23h15.20.791,vts_reward_expectancy_bt,2022.2.4,Win32,60.03842459,Chrome,1920,1080,,,l,1.4203,1,187,0,2,9,33,4,1,0,1,0,0,0,0,1,0,circle,hexagon,,,,,,,,,,,,,,,,,,,,,,,,,,,,,,,,,,,,,,,,,,,,,,,,,,,,,,
296509,2022-12-05_23h15.20.791,vts_reward_expectancy_bt,2022.2.4,Win32,60.03842459,Chrome,1920,1080,,,l,0.508,10,197,0,2,10,34,8,1,0,0,1,0,0,0,0,1,hexagon,star,,,,,,,,,,,,,,,,,,,,,,,,,,,,,,,,,,,,,,,,,,,,,,,,,,,,,,
296509,2022-12-05_23h15.20.791,vts_reward_expectancy_bt,2022.2.4,Win32,60.03842459,Chrome,1920,1080,,,a,0.7166,1,198,0,2,11,35,6,1,0,0,1,0,1,0,0,0,hexagon,triangle,,,,,,,,,,,,,,,,,,,,,,,,,,,,,,,,,,,,,,,,,,,,,,,,,,,,,,
296509,2022-12-05_23h15.20.791,vts_reward_expectancy_bt,2022.2.4,Win32,60.03842459,Chrome,1920,1080,,,a,0.5789,1,199,1,0,0,0,8,1,0,0,1,0,0,0,0,1,hexagon,star,,,,,,,,,,,,,,,,,,,,,,,,,,,,,,,,,,,,,,,,,,,,,,,,,,,,,,
296509,2022-12-05_23h15.20.791,vts_reward_expectancy_bt,2022.2.4,Win32,60.03842459,Chrome,1920,1080,,,l,0.318,1,200,1,0,1,1,11,1,0,0,0,1,0,0,1,0,star,hexagon,,,,,,,,,,,,,,,,,,,,,,,,,,,,,,,,,,,,,,,,,,,,,,,,,,,,,,
296509,2022-12-05_23h15.20.791,vts_reward_expectancy_bt,2022.2.4,Win32,60.03842459,Chrome,1920,1080,,,l,0.3168,1,201,1,0,2,2,4,1,0,1,0,0,0,0,1,0,circle,hexagon,,,,,,,,,,,,,,,,,,,,,,,,,,,,,,,,,,,,,,,,,,,,,,,,,,,,,,
296509,2022-12-05_23h15.20.791,vts_reward_expectancy_bt,2022.2.4,Win32,60.03842459,Chrome,1920,1080,,,a,0.3168,10,211,1,0,3,3,1,1,1,0,0,0,0,0,1,0,triangle,hexagon,,,,,,,,,,,,,,,,,,,,,,,,,,,,,,,,,,,,,,,,,,,,,,,,,,,,,,
296509,2022-12-05_23h15.20.791,vts_reward_expectancy_bt,2022.2.4,Win32,60.03842459,Chrome,1920,1080,,,a,0.3666,1,212,1,0,4,4,0,1,1,0,0,0,0,1,0,0,triangle,circle,,,,,,,,,,,,,,,,,,,,,,,,,,,,,,,,,,,,,,,,,,,,,,,,,,,,,,
296509,2022-12-05_23h15.20.791,vts_reward_expectancy_bt,2022.2.4,Win32,60.03842459,Chrome,1920,1080,,,a,0.6336,1,213,1,0,5,5,10,1,0,0,0,1,0,1,0,0,star ,circle,,,,,,,,,,,,,,,,,,,,,,,,,,,,,,,,,,,,,,,,,,,,,,,,,,,,,,
296509,2022-12-05_23h15.20.791,vts_reward_expectancy_bt,2022.2.4,Win32,60.03842459,Chrome,1920,1080,,,a,0.0431,1,214,1,0,6,6,6,1,0,0,1,0,1,0,0,0,hexagon,triangle,,,,,,,,,,,,,,,,,,,,,,,,,,,,,,,,,,,,,,,,,,,,,,,,,,,,,,
296509,2022-12-05_23h15.20.791,vts_reward_expectancy_bt,2022.2.4,Win32,60.03842459,Chrome,1920,1080,,,l,0.2831,1,215,1,0,7,7,5,1,0,1,0,0,0,0,0,1,circle,star,,,,,,,,,,,,,,,,,,,,,,,,,,,,,,,,,,,,,,,,,,,,,,,,,,,,,,
296509,2022-12-05_23h15.20.791,vts_reward_expectancy_bt,2022.2.4,Win32,60.03842459,Chrome,1920,1080,,,a,0.7245,1,216,1,0,8,8,2,1,1,0,0,0,0,0,0,1,triangle,star,,,,,,,,,,,,,,,,,,,,,,,,,,,,,,,,,,,,,,,,,,,,,,,,,,,,,,
296509,2022-12-05_23h15.20.791,vts_reward_expectancy_bt,2022.2.4,Win32,60.03842459,Chrome,1920,1080,,,a,0.5166,1,217,1,0,9,9,9,1,0,0,0,1,1,0,0,0,star,triangle,,,,,,,,,,,,,,,,,,,,,,,,,,,,,,,,,,,,,,,,,,,,,,,,,,,,,,
296509,2022-12-05_23h15.20.791,vts_reward_expectancy_bt,2022.2.4,Win32,60.03842459,Chrome,1920,1080,,,l,0.7596,10,227,1,0,10,10,3,1,0,1,0,0,1,0,0,0,circle,triangle,,,,,,,,,,,,,,,,,,,,,,,,,,,,,,,,,,,,,,,,,,,,,,,,,,,,,,
296509,2022-12-05_23h15.20.791,vts_reward_expectancy_bt,2022.2.4,Win32,60.03842459,Chrome,1920,1080,,,a,0.5915,1,228,1,0,11,11,7,1,0,0,1,0,0,1,0,0,hexagon,circle,,,,,,,,,,,,,,,,,,,,,,,,,,,,,,,,,,,,,,,,,,,,,,,,,,,,,,
296509,2022-12-05_23h15.20.791,vts_reward_expectancy_bt,2022.2.4,Win32,60.03842459,Chrome,1920,1080,,,l,0.5836,10,238,1,1,0,12,8,1,0,0,1,0,0,0,0,1,hexagon,star,,,,,,,,,,,,,,,,,,,,,,,,,,,,,,,,,,,,,,,,,,,,,,,,,,,,,,
296509,2022-12-05_23h15.20.791,vts_reward_expectancy_bt,2022.2.4,Win32,60.03842459,Chrome,1920,1080,,,a,0.7952,1,239,1,1,1,13,3,1,0,1,0,0,1,0,0,0,circle,triangle,,,,,,,,,,,,,,,,,,,,,,,,,,,,,,,,,,,,,,,,,,,,,,,,,,,,,,
296509,2022-12-05_23h15.20.791,vts_reward_expectancy_bt,2022.2.4,Win32,60.03842459,Chrome,1920,1080,,,l,0.5648,1,240,1,1,2,14,4,1,0,1,0,0,0,0,1,0,circle,hexagon,,,,,,,,,,,,,,,,,,,,,,,,,,,,,,,,,,,,,,,,,,,,,,,,,,,,,,
296509,2022-12-05_23h15.20.791,vts_reward_expectancy_bt,2022.2.4,Win32,60.03842459,Chrome,1920,1080,,,l,0.5006,10,250,1,1,3,15,6,1,0,0,1,0,1,0,0,0,hexagon,triangle,,,,,,,,,,,,,,,,,,,,,,,,,,,,,,,,,,,,,,,,,,,,,,,,,,,,,,
296509,2022-12-05_23h15.20.791,vts_reward_expectancy_bt,2022.2.4,Win32,60.03842459,Chrome,1920,1080,,,l,1.1153,10,260,1,1,4,16,9,1,0,0,0,1,1,0,0,0,star,triangle,,,,,,,,,,,,,,,,,,,,,,,,,,,,,,,,,,,,,,,,,,,,,,,,,,,,,,
296509,2022-12-05_23h15.20.791,vts_reward_expectancy_bt,2022.2.4,Win32,60.03842459,Chrome,1920,1080,,,a,0.8349,10,270,1,1,5,17,10,1,0,0,0,1,0,1,0,0,star ,circle,,,,,,,,,,,,,,,,,,,,,,,,,,,,,,,,,,,,,,,,,,,,,,,,,,,,,,
296509,2022-12-05_23h15.20.791,vts_reward_expectancy_bt,2022.2.4,Win32,60.03842459,Chrome,1920,1080,,,l,0.9337,10,280,1,1,6,18,7,1,0,0,1,0,0,1,0,0,hexagon,circle,,,,,,,,,,,,,,,,,,,,,,,,,,,,,,,,,,,,,,,,,,,,,,,,,,,,,,
296509,2022-12-05_23h15.20.791,vts_reward_expectancy_bt,2022.2.4,Win32,60.03842459,Chrome,1920,1080,,,l,1.0873,1,281,1,1,7,19,11,1,0,0,0,1,0,0,1,0,star,hexagon,,,,,,,,,,,,,,,,,,,,,,,,,,,,,,,,,,,,,,,,,,,,,,,,,,,,,,
296509,2022-12-05_23h15.20.791,vts_reward_expectancy_bt,2022.2.4,Win32,60.03842459,Chrome,1920,1080,,,l,0.5833,10,291,1,1,8,20,2,1,1,0,0,0,0,0,0,1,triangle,star,,,,,,,,,,,,,,,,,,,,,,,,,,,,,,,,,,,,,,,,,,,,,,,,,,,,,,
296509,2022-12-05_23h15.20.791,vts_reward_expectancy_bt,2022.2.4,Win32,60.03842459,Chrome,1920,1080,,,l,0.5738,1,292,1,1,9,21,1,1,1,0,0,0,0,0,1,0,triangle,hexagon,,,,,,,,,,,,,,,,,,,,,,,,,,,,,,,,,,,,,,,,,,,,,,,,,,,,,,
296509,2022-12-05_23h15.20.791,vts_reward_expectancy_bt,2022.2.4,Win32,60.03842459,Chrome,1920,1080,,,l,0.6088,10,302,1,1,10,22,5,1,0,1,0,0,0,0,0,1,circle,star,,,,,,,,,,,,,,,,,,,,,,,,,,,,,,,,,,,,,,,,,,,,,,,,,,,,,,
296509,2022-12-05_23h15.20.791,vts_reward_expectancy_bt,2022.2.4,Win32,60.03842459,Chrome,1920,1080,,,a,0.6256,10,312,1,1,11,23,0,1,1,0,0,0,0,1,0,0,triangle,circle,,,,,,,,,,,,,,,,,,,,,,,,,,,,,,,,,,,,,,,,,,,,,,,,,,,,,,
296509,2022-12-05_23h15.20.791,vts_reward_expectancy_bt,2022.2.4,Win32,60.03842459,Chrome,1920,1080,,,l,0.8269,1,313,1,2,0,24,6,1,0,0,1,0,1,0,0,0,hexagon,triangle,,,,,,,,,,,,,,,,,,,,,,,,,,,,,,,,,,,,,,,,,,,,,,,,,,,,,,
296509,2022-12-05_23h15.20.791,vts_reward_expectancy_bt,2022.2.4,Win32,60.03842459,Chrome,1920,1080,,,l,0.503,10,323,1,2,1,25,2,1,1,0,0,0,0,0,0,1,triangle,star,,,,,,,,,,,,,,,,,,,,,,,,,,,,,,,,,,,,,,,,,,,,,,,,,,,,,,
296509,2022-12-05_23h15.20.791,vts_reward_expectancy_bt,2022.2.4,Win32,60.03842459,Chrome,1920,1080,,,l,0.805,10,333,1,2,2,26,8,1,0,0,1,0,0,0,0,1,hexagon,star,,,,,,,,,,,,,,,,,,,,,,,,,,,,,,,,,,,,,,,,,,,,,,,,,,,,,,
296509,2022-12-05_23h15.20.791,vts_reward_expectancy_bt,2022.2.4,Win32,60.03842459,Chrome,1920,1080,,,l,0.4983,1,334,1,2,3,27,5,1,0,1,0,0,0,0,0,1,circle,star,,,,,,,,,,,,,,,,,,,,,,,,,,,,,,,,,,,,,,,,,,,,,,,,,,,,,,
296509,2022-12-05_23h15.20.791,vts_reward_expectancy_bt,2022.2.4,Win32,60.03842459,Chrome,1920,1080,,,a,0.3169,10,344,1,2,4,28,0,1,1,0,0,0,0,1,0,0,triangle,circle,,,,,,,,,,,,,,,,,,,,,,,,,,,,,,,,,,,,,,,,,,,,,,,,,,,,,,
296509,2022-12-05_23h15.20.791,vts_reward_expectancy_bt,2022.2.4,Win32,60.03842459,Chrome,1920,1080,,,l,0.5338,1,345,1,2,5,29,1,1,1,0,0,0,0,0,1,0,triangle,hexagon,,,,,,,,,,,,,,,,,,,,,,,,,,,,,,,,,,,,,,,,,,,,,,,,,,,,,,
296509,2022-12-05_23h15.20.791,vts_reward_expectancy_bt,2022.2.4,Win32,60.03842459,Chrome,1920,1080,,,a,0.1338,10,355,1,2,6,30,9,1,0,0,0,1,1,0,0,0,star,triangle,,,,,,,,,,,,,,,,,,,,,,,,,,,,,,,,,,,,,,,,,,,,,,,,,,,,,,
296509,2022-12-05_23h15.20.791,vts_reward_expectancy_bt,2022.2.4,Win32,60.03842459,Chrome,1920,1080,,,a,0.4017,1,356,1,2,7,31,7,1,0,0,1,0,0,1,0,0,hexagon,circle,,,,,,,,,,,,,,,,,,,,,,,,,,,,,,,,,,,,,,,,,,,,,,,,,,,,,,
296509,2022-12-05_23h15.20.791,vts_reward_expectancy_bt,2022.2.4,Win32,60.03842459,Chrome,1920,1080,,,a,0.417,1,357,1,2,8,32,3,1,0,1,0,0,1,0,0,0,circle,triangle,,,,,,,,,,,,,,,,,,,,,,,,,,,,,,,,,,,,,,,,,,,,,,,,,,,,,,
296509,2022-12-05_23h15.20.791,vts_reward_expectancy_bt,2022.2.4,Win32,60.03842459,Chrome,1920,1080,,,a,0.4003,10,367,1,2,9,33,11,1,0,0,0,1,0,0,1,0,star,hexagon,,,,,,,,,,,,,,,,,,,,,,,,,,,,,,,,,,,,,,,,,,,,,,,,,,,,,,
296509,2022-12-05_23h15.20.791,vts_reward_expectancy_bt,2022.2.4,Win32,60.03842459,Chrome,1920,1080,,,l,0.5693,1,368,1,2,10,34,4,1,0,1,0,0,0,0,1,0,circle,hexagon,,,,,,,,,,,,,,,,,,,,,,,,,,,,,,,,,,,,,,,,,,,,,,,,,,,,,,
296509,2022-12-05_23h15.20.791,vts_reward_expectancy_bt,2022.2.4,Win32,60.03842459,Chrome,1920,1080,,,a,0.3045,1,369,1,2,11,35,10,1,0,0,0,1,0,1,0,0,star ,circle,,,,,,,,,,,,,,,,,,,,,,,,,,,,,,,,,,,,,,,,,,,,,,,,,,,,,,
296509,2022-12-05_23h15.20.791,vts_reward_expectancy_bt,2022.2.4,Win32,60.03842459,Chrome,1920,1080,,,a,0.8193,10,379,2,0,0,0,1,1,1,0,0,0,0,0,1,0,triangle,hexagon,,,,,,,,,,,,,,,,,,,,,,,,,,,,,,,,,,,,,,,,,,,,,,,,,,,,,,
296509,2022-12-05_23h15.20.791,vts_reward_expectancy_bt,2022.2.4,Win32,60.03842459,Chrome,1920,1080,,,l,0.7503,10,389,2,0,1,1,3,1,0,1,0,0,1,0,0,0,circle,triangle,,,,,,,,,,,,,,,,,,,,,,,,,,,,,,,,,,,,,,,,,,,,,,,,,,,,,,
296509,2022-12-05_23h15.20.791,vts_reward_expectancy_bt,2022.2.4,Win32,60.03842459,Chrome,1920,1080,,,l,0.5714,1,390,2,0,2,2,6,1,0,0,1,0,1,0,0,0,hexagon,triangle,,,,,,,,,,,,,,,,,,,,,,,,,,,,,,,,,,,,,,,,,,,,,,,,,,,,,,
296509,2022-12-05_23h15.20.791,vts_reward_expectancy_bt,2022.2.4,Win32,60.03842459,Chrome,1920,1080,,,l,1.0109,1,391,2,0,3,3,4,1,0,1,0,0,0,0,1,0,circle,hexagon,,,,,,,,,,,,,,,,,,,,,,,,,,,,,,,,,,,,,,,,,,,,,,,,,,,,,,
296509,2022-12-05_23h15.20.791,vts_reward_expectancy_bt,2022.2.4,Win32,60.03842459,Chrome,1920,1080,,,l,1.2888,10,401,2,0,4,4,5,1,0,1,0,0,0,0,0,1,circle,star,,,,,,,,,,,,,,,,,,,,,,,,,,,,,,,,,,,,,,,,,,,,,,,,,,,,,,
296509,2022-12-05_23h15.20.791,vts_reward_expectancy_bt,2022.2.4,Win32,60.03842459,Chrome,1920,1080,,,a,0.562,1,402,2,0,5,5,7,1,0,0,1,0,0,1,0,0,hexagon,circle,,,,,,,,,,,,,,,,,,,,,,,,,,,,,,,,,,,,,,,,,,,,,,,,,,,,,,
296509,2022-12-05_23h15.20.791,vts_reward_expectancy_bt,2022.2.4,Win32,60.03842459,Chrome,1920,1080,,,l,0.7421,1,403,2,0,6,6,11,1,0,0,0,1,0,0,1,0,star,hexagon,,,,,,,,,,,,,,,,,,,,,,,,,,,,,,,,,,,,,,,,,,,,,,,,,,,,,,
296509,2022-12-05_23h15.20.791,vts_reward_expectancy_bt,2022.2.4,Win32,60.03842459,Chrome,1920,1080,,,a,0.2453,10,413,2,0,7,7,2,1,1,0,0,0,0,0,0,1,triangle,star,,,,,,,,,,,,,,,,,,,,,,,,,,,,,,,,,,,,,,,,,,,,,,,,,,,,,,
296509,2022-12-05_23h15.20.791,vts_reward_expectancy_bt,2022.2.4,Win32,60.03842459,Chrome,1920,1080,,,a,0.3548,1,414,2,0,8,8,8,1,0,0,1,0,0,0,0,1,hexagon,star,,,,,,,,,,,,,,,,,,,,,,,,,,,,,,,,,,,,,,,,,,,,,,,,,,,,,,
296509,2022-12-05_23h15.20.791,vts_reward_expectancy_bt,2022.2.4,Win32,60.03842459,Chrome,1920,1080,,,a,0.6332,1,415,2,0,9,9,9,1,0,0,0,1,1,0,0,0,star,triangle,,,,,,,,,,,,,,,,,,,,,,,,,,,,,,,,,,,,,,,,,,,,,,,,,,,,,,
296509,2022-12-05_23h15.20.791,vts_reward_expectancy_bt,2022.2.4,Win32,60.03842459,Chrome,1920,1080,,,l,0.6366,10,425,2,0,10,10,0,1,1,0,0,0,0,1,0,0,triangle,circle,,,,,,,,,,,,,,,,,,,,,,,,,,,,,,,,,,,,,,,,,,,,,,,,,,,,,,
296509,2022-12-05_23h15.20.791,vts_reward_expectancy_bt,2022.2.4,Win32,60.03842459,Chrome,1920,1080,,,l,0.7166,1,426,2,0,11,11,10,1,0,0,0,1,0,1,0,0,star ,circle,,,,,,,,,,,,,,,,,,,,,,,,,,,,,,,,,,,,,,,,,,,,,,,,,,,,,,
296509,2022-12-05_23h15.20.791,vts_reward_expectancy_bt,2022.2.4,Win32,60.03842459,Chrome,1920,1080,,,a,0.5334,1,427,2,1,0,12,0,1,1,0,0,0,0,1,0,0,triangle,circle,,,,,,,,,,,,,,,,,,,,,,,,,,,,,,,,,,,,,,,,,,,,,,,,,,,,,,
296509,2022-12-05_23h15.20.791,vts_reward_expectancy_bt,2022.2.4,Win32,60.03842459,Chrome,1920,1080,,,l,0.4504,10,437,2,1,1,13,2,1,1,0,0,0,0,0,0,1,triangle,star,,,,,,,,,,,,,,,,,,,,,,,,,,,,,,,,,,,,,,,,,,,,,,,,,,,,,,
296509,2022-12-05_23h15.20.791,vts_reward_expectancy_bt,2022.2.4,Win32,60.03842459,Chrome,1920,1080,,,a,0.7113,10,447,2,1,2,14,9,1,0,0,0,1,1,0,0,0,star,triangle,,,,,,,,,,,,,,,,,,,,,,,,,,,,,,,,,,,,,,,,,,,,,,,,,,,,,,
296509,2022-12-05_23h15.20.791,vts_reward_expectancy_bt,2022.2.4,Win32,60.03842459,Chrome,1920,1080,,,a,0.5614,1,448,2,1,3,15,7,1,0,0,1,0,0,1,0,0,hexagon,circle,,,,,,,,,,,,,,,,,,,,,,,,,,,,,,,,,,,,,,,,,,,,,,,,,,,,,,
296509,2022-12-05_23h15.20.791,vts_reward_expectancy_bt,2022.2.4,Win32,60.03842459,Chrome,1920,1080,,,l,0.5183,1,449,2,1,4,16,11,1,0,0,0,1,0,0,1,0,star,hexagon,,,,,,,,,,,,,,,,,,,,,,,,,,,,,,,,,,,,,,,,,,,,,,,,,,,,,,
296509,2022-12-05_23h15.20.791,vts_reward_expectancy_bt,2022.2.4,Win32,60.03842459,Chrome,1920,1080,,,a,0.3333,1,450,2,1,5,17,6,1,0,0,1,0,1,0,0,0,hexagon,triangle,,,,,,,,,,,,,,,,,,,,,,,,,,,,,,,,,,,,,,,,,,,,,,,,,,,,,,
296509,2022-12-05_23h15.20.791,vts_reward_expectancy_bt,2022.2.4,Win32,60.03842459,Chrome,1920,1080,,,a,0.3545,1,451,2,1,6,18,4,1,0,1,0,0,0,0,1,0,circle,hexagon,,,,,,,,,,,,,,,,,,,,,,,,,,,,,,,,,,,,,,,,,,,,,,,,,,,,,,
296509,2022-12-05_23h15.20.791,vts_reward_expectancy_bt,2022.2.4,Win32,60.03842459,Chrome,1920,1080,,,a,0.3999,1,452,2,1,7,19,8,1,0,0,1,0,0,0,0,1,hexagon,star,,,,,,,,,,,,,,,,,,,,,,,,,,,,,,,,,,,,,,,,,,,,,,,,,,,,,,
296509,2022-12-05_23h15.20.791,vts_reward_expectancy_bt,2022.2.4,Win32,60.03842459,Chrome,1920,1080,,,l,0.2702,10,462,2,1,8,20,5,1,0,1,0,0,0,0,0,1,circle,star,,,,,,,,,,,,,,,,,,,,,,,,,,,,,,,,,,,,,,,,,,,,,,,,,,,,,,
296509,2022-12-05_23h15.20.791,vts_reward_expectancy_bt,2022.2.4,Win32,60.03842459,Chrome,1920,1080,,,l,0.5028,1,463,2,1,9,21,1,1,1,0,0,0,0,0,1,0,triangle,hexagon,,,,,,,,,,,,,,,,,,,,,,,,,,,,,,,,,,,,,,,,,,,,,,,,,,,,,,
296509,2022-12-05_23h15.20.791,vts_reward_expectancy_bt,2022.2.4,Win32,60.03842459,Chrome,1920,1080,,,a,0.2729,1,464,2,1,10,22,3,1,0,1,0,0,1,0,0,0,circle,triangle,,,,,,,,,,,,,,,,,,,,,,,,,,,,,,,,,,,,,,,,,,,,,,,,,,,,,,
296509,2022-12-05_23h15.20.791,vts_reward_expectancy_bt,2022.2.4,Win32,60.03842459,Chrome,1920,1080,,,a,0.5501,1,465,2,1,11,23,10,1,0,0,0,1,0,1,0,0,star ,circle,,,,,,,,,,,,,,,,,,,,,,,,,,,,,,,,,,,,,,,,,,,,,,,,,,,,,,
296509,2022-12-05_23h15.20.791,vts_reward_expectancy_bt,2022.2.4,Win32,60.03842459,Chrome,1920,1080,,,l,0.3573,1,466,2,2,0,24,0,1,1,0,0,0,0,1,0,0,triangle,circle,,,,,,,,,,,,,,,,,,,,,,,,,,,,,,,,,,,,,,,,,,,,,,,,,,,,,,
296509,2022-12-05_23h15.20.791,vts_reward_expectancy_bt,2022.2.4,Win32,60.03842459,Chrome,1920,1080,,,a,0.6164,1,467,2,2,1,25,3,1,0,1,0,0,1,0,0,0,circle,triangle,,,,,,,,,,,,,,,,,,,,,,,,,,,,,,,,,,,,,,,,,,,,,,,,,,,,,,
296509,2022-12-05_23h15.20.791,vts_reward_expectancy_bt,2022.2.4,Win32,60.03842459,Chrome,1920,1080,,,l,0.8607,1,468,2,2,2,26,1,1,1,0,0,0,0,0,1,0,triangle,hexagon,,,,,,,,,,,,,,,,,,,,,,,,,,,,,,,,,,,,,,,,,,,,,,,,,,,,,,
296509,2022-12-05_23h15.20.791,vts_reward_expectancy_bt,2022.2.4,Win32,60.03842459,Chrome,1920,1080,,,l,0.5574,10,478,2,2,3,27,5,1,0,1,0,0,0,0,0,1,circle,star,,,,,,,,,,,,,,,,,,,,,,,,,,,,,,,,,,,,,,,,,,,,,,,,,,,,,,
296509,2022-12-05_23h15.20.791,vts_reward_expectancy_bt,2022.2.4,Win32,60.03842459,Chrome,1920,1080,,,a,0.5392,1,479,2,2,4,28,6,1,0,0,1,0,1,0,0,0,hexagon,triangle,,,,,,,,,,,,,,,,,,,,,,,,,,,,,,,,,,,,,,,,,,,,,,,,,,,,,,
296509,2022-12-05_23h15.20.791,vts_reward_expectancy_bt,2022.2.4,Win32,60.03842459,Chrome,1920,1080,,,l,2.5021,10,489,2,2,5,29,2,1,1,0,0,0,0,0,0,1,triangle,star,,,,,,,,,,,,,,,,,,,,,,,,,,,,,,,,,,,,,,,,,,,,,,,,,,,,,,
296509,2022-12-05_23h15.20.791,vts_reward_expectancy_bt,2022.2.4,Win32,60.03842459,Chrome,1920,1080,,,l,0.8769,1,490,2,2,6,30,11,1,0,0,0,1,0,0,1,0,star,hexagon,,,,,,,,,,,,,,,,,,,,,,,,,,,,,,,,,,,,,,,,,,,,,,,,,,,,,,
296509,2022-12-05_23h15.20.791,vts_reward_expectancy_bt,2022.2.4,Win32,60.03842459,Chrome,1920,1080,,,a,0.017,10,500,2,2,7,31,7,1,0,0,1,0,0,1,0,0,hexagon,circle,,,,,,,,,,,,,,,,,,,,,,,,,,,,,,,,,,,,,,,,,,,,,,,,,,,,,,
296509,2022-12-05_23h15.20.791,vts_reward_expectancy_bt,2022.2.4,Win32,60.03842459,Chrome,1920,1080,,,a,2.2169,1,501,2,2,8,32,8,1,0,0,1,0,0,0,0,1,hexagon,star,,,,,,,,,,,,,,,,,,,,,,,,,,,,,,,,,,,,,,,,,,,,,,,,,,,,,,
296509,2022-12-05_23h15.20.791,vts_reward_expectancy_bt,2022.2.4,Win32,60.03842459,Chrome,1920,1080,,,a,6.6256,1,502,2,2,9,33,10,1,0,0,0,1,0,1,0,0,star ,circle,,,,,,,,,,,,,,,,,,,,,,,,,,,,,,,,,,,,,,,,,,,,,,,,,,,,,,
296509,2022-12-05_23h15.20.791,vts_reward_expectancy_bt,2022.2.4,Win32,60.03842459,Chrome,1920,1080,,,l,0.4003,1,503,2,2,10,34,4,1,0,1,0,0,0,0,1,0,circle,hexagon,,,,,,,,,,,,,,,,,,,,,,,,,,,,,,,,,,,,,,,,,,,,,,,,,,,,,,
296509,2022-12-05_23h15.20.791,vts_reward_expectancy_bt,2022.2.4,Win32,60.03842459,Chrome,1920,1080,,,a,1.653,10,513,2,2,11,35,9,1,0,0,0,1,1,0,0,0,star,triangle,,,,,,,,,,,,,,,,,,,,,,,,,,,,,,,,,,,,,,,,,,,,,,,,,,,,,,
296509,2022-12-05_23h15.20.791,vts_reward_expectancy_bt,2022.2.4,Win32,60.03842459,Chrome,1920,1080,,,,,,,,,,,,,,,,,,,,,,,F,125,star,0,0,,0,0,0,0,0,1,,,,,,,,,,,,,,,,,,,,,,,,,,,,,,,,,,,,,,,,,,
296509,2022-12-05_23h15.20.791,vts_reward_expectancy_bt,2022.2.4,Win32,60.03842459,Chrome,1920,1080,,,,,,,,,,,,,,,,,,,,,,,Y,174,hexagon,1,1,f,0,1,0,1,0,1,1.2939,,,,,,,,,,,,,,,,,,,,,,,,,,,,,,,,,,,,,,,,,
296509,2022-12-05_23h15.20.791,vts_reward_expectancy_bt,2022.2.4,Win32,60.03842459,Chrome,1920,1080,,,,,,,,,,,,,,,,,,,,,,,S,181,circle,1,0,f,0,2,0,2,0,1,0.5342,,,,,,,,,,,,,,,,,,,,,,,,,,,,,,,,,,,,,,,,,
296509,2022-12-05_23h15.20.791,vts_reward_expectancy_bt,2022.2.4,Win32,60.03842459,Chrome,1920,1080,,,,,,,,,,,,,,,,,,,,,,,W,146,triangle,0,0,d,0,3,0,3,0,1,1.0037,,,,,,,,,,,,,,,,,,,,,,,,,,,,,,,,,,,,,,,,,
296509,2022-12-05_23h15.20.791,vts_reward_expectancy_bt,2022.2.4,Win32,60.03842459,Chrome,1920,1080,,,,,,,,,,,,,,,,,,,,,,,H,139,star,0,1,f,0,4,0,4,0,1,0.7708,,,,,,,,,,,,,,,,,,,,,,,,,,,,,,,,,,,,,,,,,
296509,2022-12-05_23h15.20.791,vts_reward_expectancy_bt,2022.2.4,Win32,60.03842459,Chrome,1920,1080,,,,,,,,,,,,,,,,,,,,,,,U,132,hexagon,1,1,f,0,5,0,5,0,1,2.4695,,,,,,,,,,,,,,,,,,,,,,,,,,,,,,,,,,,,,,,,,
296509,2022-12-05_23h15.20.791,vts_reward_expectancy_bt,2022.2.4,Win32,60.03842459,Chrome,1920,1080,,,,,,,,,,,,,,,,,,,,,,,D,167,circle,1,0,d,0,6,0,6,0,1,0.6995,,,,,,,,,,,,,,,,,,,,,,,,,,,,,,,,,,,,,,,,,
296509,2022-12-05_23h15.20.791,vts_reward_expectancy_bt,2022.2.4,Win32,60.03842459,Chrome,1920,1080,,,,,,,,,,,,,,,,,,,,,,,B,160,triangle,1,0,d,0,7,0,7,0,1,0.5162,,,,,,,,,,,,,,,,,,,,,,,,,,,,,,,,,,,,,,,,,
296509,2022-12-05_23h15.20.791,vts_reward_expectancy_bt,2022.2.4,Win32,60.03842459,Chrome,1920,1080,,,,,,,,,,,,,,,,,,,,,,,F,125,hexagon,1,0,d,0,8,0,8,0,1,1.0197,,,,,,,,,,,,,,,,,,,,,,,,,,,,,,,,,,,,,,,,,
296509,2022-12-05_23h15.20.791,vts_reward_expectancy_bt,2022.2.4,Win32,60.03842459,Chrome,1920,1080,,,,,,,,,,,,,,,,,,,,,,,Y,174,star,0,0,d,0,9,0,9,0,1,0.6701,,,,,,,,,,,,,,,,,,,,,,,,,,,,,,,,,,,,,,,,,
296509,2022-12-05_23h15.20.791,vts_reward_expectancy_bt,2022.2.4,Win32,60.03842459,Chrome,1920,1080,,,,,,,,,,,,,,,,,,,,,,,W,125,triangle,1,1,f,1,0,0,0,0,1,0.6992,,,,,,,,,,,,,,,,,,,,,,,,,,,,,,,,,,,,,,,,,
296509,2022-12-05_23h15.20.791,vts_reward_expectancy_bt,2022.2.4,Win32,60.03842459,Chrome,1920,1080,,,,,,,,,,,,,,,,,,,,,,,F,174,star,1,0,d,1,1,0,1,0,1,1.7169,,,,,,,,,,,,,,,,,,,,,,,,,,,,,,,,,,,,,,,,,
296509,2022-12-05_23h15.20.791,vts_reward_expectancy_bt,2022.2.4,Win32,60.03842459,Chrome,1920,1080,,,,,,,,,,,,,,,,,,,,,,,H,160,hexagon,1,0,d,1,2,0,2,0,1,1.604,,,,,,,,,,,,,,,,,,,,,,,,,,,,,,,,,,,,,,,,,
296509,2022-12-05_23h15.20.791,vts_reward_expectancy_bt,2022.2.4,Win32,60.03842459,Chrome,1920,1080,,,,,,,,,,,,,,,,,,,,,,,D,181,circle,1,0,d,1,3,0,3,0,1,0.7053,,,,,,,,,,,,,,,,,,,,,,,,,,,,,,,,,,,,,,,,,
296509,2022-12-05_23h15.20.791,vts_reward_expectancy_bt,2022.2.4,Win32,60.03842459,Chrome,1920,1080,,,,,,,,,,,,,,,,,,,,,,,B,167,triangle,1,0,d,1,4,0,4,0,1,0.7042,,,,,,,,,,,,,,,,,,,,,,,,,,,,,,,,,,,,,,,,,
296509,2022-12-05_23h15.20.791,vts_reward_expectancy_bt,2022.2.4,Win32,60.03842459,Chrome,1920,1080,,,,,,,,,,,,,,,,,,,,,,,Y,139,star,1,0,f,1,5,0,5,0,1,0.7409,,,,,,,,,,,,,,,,,,,,,,,,,,,,,,,,,,,,,,,,,
296509,2022-12-05_23h15.20.791,vts_reward_expectancy_bt,2022.2.4,Win32,60.03842459,Chrome,1920,1080,,,,,,,,,,,,,,,,,,,,,,,U,146,hexagon,1,0,f,1,6,0,6,0,1,0.6285,,,,,,,,,,,,,,,,,,,,,,,,,,,,,,,,,,,,,,,,,
296509,2022-12-05_23h15.20.791,vts_reward_expectancy_bt,2022.2.4,Win32,60.03842459,Chrome,1920,1080,,,,,,,,,,,,,,,,,,,,,,,S,132,circle,0,0,d,1,7,0,7,0,1,1.0003,,,,,,,,,,,,,,,,,,,,,,,,,,,,,,,,,,,,,,,,,
296509,2022-12-05_23h15.20.791,vts_reward_expectancy_bt,2022.2.4,Win32,60.03842459,Chrome,1920,1080,,,,,,,,,,,,,,,,,,,,,,,W,125,circle,1,1,f,1,8,0,8,0,1,0.7948,,,,,,,,,,,,,,,,,,,,,,,,,,,,,,,,,,,,,,,,,
296509,2022-12-05_23h15.20.791,vts_reward_expectancy_bt,2022.2.4,Win32,60.03842459,Chrome,1920,1080,,,,,,,,,,,,,,,,,,,,,,,F,174,star,1,0,d,1,9,0,9,0,1,1.0061,,,,,,,,,,,,,,,,,,,,,,,,,,,,,,,,,,,,,,,,,
296509,2022-12-05_23h15.20.791,vts_reward_expectancy_bt,2022.2.4,Win32,60.03842459,Chrome,1920,1080,,,,,,,,,,,,,,,,,,,,,,,D,181,hexagon,1,0,,2,,,,,,,k,1.8503,0,0,0,0,1,,,,,,,,,,,,,,,,,,,,,,,,,,,,,,,,,,
296509,2022-12-05_23h15.20.791,vts_reward_expectancy_bt,2022.2.4,Win32,60.03842459,Chrome,1920,1080,,,,,,,,,,,,,,,,,,,,,,,B,125,circle,1,0,,2,,,,,,,j,1.2002,1,0,1,0,1,,,,,,,,,,,,,,,,,,,,,,,,,,,,,,,,,,
296509,2022-12-05_23h15.20.791,vts_reward_expectancy_bt,2022.2.4,Win32,60.03842459,Chrome,1920,1080,,,,,,,,,,,,,,,,,,,,,,,F,146,star,1,0,,2,,,,,,,j,0.8121,2,0,2,0,1,,,,,,,,,,,,,,,,,,,,,,,,,,,,,,,,,,
296509,2022-12-05_23h15.20.791,vts_reward_expectancy_bt,2022.2.4,Win32,60.03842459,Chrome,1920,1080,,,,,,,,,,,,,,,,,,,,,,,S,132,triangle,1,0,,2,,,,,,,j,0.6225,3,0,3,0,1,,,,,,,,,,,,,,,,,,,,,,,,,,,,,,,,,,
296509,2022-12-05_23h15.20.791,vts_reward_expectancy_bt,2022.2.4,Win32,60.03842459,Chrome,1920,1080,,,,,,,,,,,,,,,,,,,,,,,H,160,hexagon,1,0,,2,,,,,,,k,0.7722,4,0,4,0,1,,,,,,,,,,,,,,,,,,,,,,,,,,,,,,,,,,
296509,2022-12-05_23h15.20.791,vts_reward_expectancy_bt,2022.2.4,Win32,60.03842459,Chrome,1920,1080,,,,,,,,,,,,,,,,,,,,,,,Y,174,circle,1,0,,2,,,,,,,k,2.6662,5,0,5,0,1,,,,,,,,,,,,,,,,,,,,,,,,,,,,,,,,,,
296509,2022-12-05_23h15.20.791,vts_reward_expectancy_bt,2022.2.4,Win32,60.03842459,Chrome,1920,1080,,,,,,,,,,,,,,,,,,,,,,,U,139,star,1,0,,2,,,,,,,j,0.9332,6,0,6,0,1,,,,,,,,,,,,,,,,,,,,,,,,,,,,,,,,,,
296509,2022-12-05_23h15.20.791,vts_reward_expectancy_bt,2022.2.4,Win32,60.03842459,Chrome,1920,1080,,,,,,,,,,,,,,,,,,,,,,,W,167,triangle,1,0,,2,,,,,,,k,0.7646,7,0,7,0,1,,,,,,,,,,,,,,,,,,,,,,,,,,,,,,,,,,
296509,2022-12-05_23h15.20.791,vts_reward_expectancy_bt,2022.2.4,Win32,60.03842459,Chrome,1920,1080,,,,,,,,,,,,,,,,,,,,,,,D,181,star,1,0,,2,,,,,,,k,0.6731,8,0,8,0,1,,,,,,,,,,,,,,,,,,,,,,,,,,,,,,,,,,
296509,2022-12-05_23h15.20.791,vts_reward_expectancy_bt,2022.2.4,Win32,60.03842459,Chrome,1920,1080,,,,,,,,,,,,,,,,,,,,,,,B,125,triangle,1,0,,2,,,,,,,j,0.4717,9,0,9,0,1,,,,,,,,,,,,,,,,,,,,,,,,,,,,,,,,,,
296509,2022-12-05_23h15.20.791,vts_reward_expectancy_bt,2022.2.4,Win32,60.03842459,Chrome,1920,1080,,,,,0,513,,,,,,,,,,,,,,,,,S,174,triangle,0,0,,3,,,,,,,,,,,,,,-1,letter,NA,d,0.0833,vtsPrac,0,0,0,0,1,,,,,,,,,,,,,,,,,,,,,,,
296509,2022-12-05_23h15.20.791,vts_reward_expectancy_bt,2022.2.4,Win32,60.03842459,Chrome,1920,1080,,,,,0,513,,,,,,,,,,,,,,,,,U,160,star,0,1,,3,,,,,,,,,,,,,,repeat,letter,NA,d,1.8567,vtsPrac,1,0,1,0,1,,,,,,,,,,,,,,,,,,,,,,,
296509,2022-12-05_23h15.20.791,vts_reward_expectancy_bt,2022.2.4,Win32,60.03842459,Chrome,1920,1080,,,,,0,513,,,,,,,,,,,,,,,,,W,125,triangle,-1,1,,3,,,,,,,,,,,,,,switch,no_choice,NA,,,vtsPrac,2,0,2,0,1,,,,,,,,,,,,,,,,,,,,,,,
296509,2022-12-05_23h15.20.791,vts_reward_expectancy_bt,2022.2.4,Win32,60.03842459,Chrome,1920,1080,,,,,0,513,,,,,,,,,,,,,,,,,B,167,star,1,0,,3,,,,,,,,,,,,,,switch,number,numSwt,k,0.6059,vtsPrac,3,0,3,0,1,,,,,,,,,,,,,,,,,,,,,,,
296509,2022-12-05_23h15.20.791,vts_reward_expectancy_bt,2022.2.4,Win32,60.03842459,Chrome,1920,1080,,,,,0,513,,,,,,,,,,,,,,,,,S,174,hexagon,1,0,,3,,,,,,,,,,,,,,repeat,number,numRpt,k,1.0048,vtsPrac,4,0,4,0,1,,,,,,,,,,,,,,,,,,,,,,,
296509,2022-12-05_23h15.20.791,vts_reward_expectancy_bt,2022.2.4,Win32,60.03842459,Chrome,1920,1080,,,,,0,513,,,,,,,,,,,,,,,,,U,160,triangle,1,0,,3,,,,,,,,,,,,,,repeat,number,numRpt,k,1.8277,vtsPrac,5,0,5,0,1,,,,,,,,,,,,,,,,,,,,,,,
296509,2022-12-05_23h15.20.791,vts_reward_expectancy_bt,2022.2.4,Win32,60.03842459,Chrome,1920,1080,,,,,0,513,,,,,,,,,,,,,,,,,W,125,hexagon,1,0,,3,,,,,,,,,,,,,,repeat,number,numRpt,j,1.2748,vtsPrac,6,0,6,0,1,,,,,,,,,,,,,,,,,,,,,,,
296509,2022-12-05_23h15.20.791,vts_reward_expectancy_bt,2022.2.4,Win32,60.03842459,Chrome,1920,1080,,,,,0,513,,,,,,,,,,,,,,,,,B,167,triangle,1,0,,3,,,,,,,,,,,,,,switch,letter,lettSwt,d,0.7829,vtsPrac,7,0,7,0,1,,,,,,,,,,,,,,,,,,,,,,,
296509,2022-12-05_23h15.20.791,vts_reward_expectancy_bt,2022.2.4,Win32,60.03842459,Chrome,1920,1080,,,,,0,513,,,,,,,,,,,,,,,,,D,160,hexagon,1,0,,3,,,,,,,,,,,,,,repeat,letter,lettRpt,d,0.8167,vtsPrac,8,0,8,0,1,,,,,,,,,,,,,,,,,,,,,,,
296509,2022-12-05_23h15.20.791,vts_reward_expectancy_bt,2022.2.4,Win32,60.03842459,Chrome,1920,1080,,,,,0,513,,,,,,,,,,,,,,,,,U,125,circle,1,0,,3,,,,,,,,,,,,,,repeat,letter,lettRpt,f,0.628,vtsPrac,9,0,9,0,1,,,,,,,,,,,,,,,,,,,,,,,
296509,2022-12-05_23h15.20.791,vts_reward_expectancy_bt,2022.2.4,Win32,60.03842459,Chrome,1920,1080,,,,,0,513,,,,,,,,,,,,,,,,,F,139,hexagon,1,0,,3,,,,,,,,,,,,,,switch,number,numSwt,j,0.8174,vtsPrac,10,0,10,0,1,,,,,,,,,,,,,,,,,,,,,,,
296509,2022-12-05_23h15.20.791,vts_reward_expectancy_bt,2022.2.4,Win32,60.03842459,Chrome,1920,1080,,,,,0,513,,,,,,,,,,,,,,,,,Y,167,triangle,1,0,,3,,,,,,,,,,,,,,repeat,number,numRpt,k,0.6881,vtsPrac,11,0,11,0,1,,,,,,,,,,,,,,,,,,,,,,,
296509,2022-12-05_23h15.20.791,vts_reward_expectancy_bt,2022.2.4,Win32,60.03842459,Chrome,1920,1080,,,,,0,513,,,,,,,,,,,,,,,,,W,181,hexagon,1,0,,3,,,,,,,,,,,,,,repeat,number,numRpt,k,1.2336,vtsPrac,12,0,12,0,1,,,,,,,,,,,,,,,,,,,,,,,
296509,2022-12-05_23h15.20.791,vts_reward_expectancy_bt,2022.2.4,Win32,60.03842459,Chrome,1920,1080,,,,,0,513,,,,,,,,,,,,,,,,,S,174,triangle,1,0,,3,,,,,,,,,,,,,,repeat,number,numRpt,k,0.6347,vtsPrac,13,0,13,0,1,,,,,,,,,,,,,,,,,,,,,,,
296509,2022-12-05_23h15.20.791,vts_reward_expectancy_bt,2022.2.4,Win32,60.03842459,Chrome,1920,1080,,,,,0,513,,,,,,,,,,,,,,,,,Y,139,triangle,1,0,,3,,,,,,,,,,,,,,repeat,number,numRpt,j,0.8332,vtsPrac,14,0,14,0,1,,,,,,,,,,,,,,,,,,,,,,,
296509,2022-12-05_23h15.20.791,vts_reward_expectancy_bt,2022.2.4,Win32,60.03842459,Chrome,1920,1080,,,,,0,513,,,,,,,,,,,,,,,,,B,132,star,1,0,,3,,,,,,,,,,,,,,switch,letter,lettSwt,d,0.5498,vtsPrac,15,0,15,0,1,,,,,,,,,,,,,,,,,,,,,,,
296509,2022-12-05_23h15.20.791,vts_reward_expectancy_bt,2022.2.4,Win32,60.03842459,Chrome,1920,1080,,,,,0,513,,,,,,,,,,,,,,,,,B,160,triangle,1,0,,3,,,,,,,,,,,,,,repeat,letter,lettRpt,d,0.4665,vtsPrac,16,0,16,0,1,,,,,,,,,,,,,,,,,,,,,,,
296509,2022-12-05_23h15.20.791,vts_reward_expectancy_bt,2022.2.4,Win32,60.03842459,Chrome,1920,1080,,,,,0,513,,,,,,,,,,,,,,,,,S,181,star,1,0,,3,,,,,,,,,,,,,,switch,number,numSwt,k,0.8338,vtsPrac,17,0,17,0,1,,,,,,,,,,,,,,,,,,,,,,,
296509,2022-12-05_23h15.20.791,vts_reward_expectancy_bt,2022.2.4,Win32,60.03842459,Chrome,1920,1080,,,,,0,513,,,,,,,,,,,,,,,,,F,146,circle,0,0,,3,,,,,,,,,,,,,,repeat,number,NA,k,0.7,vtsPrac,18,0,18,0,1,,,,,,,,,,,,,,,,,,,,,,,
296509,2022-12-05_23h15.20.791,vts_reward_expectancy_bt,2022.2.4,Win32,60.03842459,Chrome,1920,1080,,,,,0,513,,,,,,,,,,,,,,,,,D,132,hexagon,1,1,,3,,,,,,,,,,,,,,repeat,number,numRpt,j,0.8122,vtsPrac,19,0,19,0,1,,,,,,,,,,,,,,,,,,,,,,,
296509,2022-12-05_23h15.20.791,vts_reward_expectancy_bt,2022.2.4,Win32,60.03842459,Chrome,1920,1080,,,,,0,513,,,,,,,,,,,,,,,,,H,125,triangle,1,0,,3,,,,,,,,,,,,,,repeat,number,numRpt,j,0.7769,vtsPrac,20,0,20,0,1,,,,,,,,,,,,,,,,,,,,,,,
296509,2022-12-05_23h15.20.791,vts_reward_expectancy_bt,2022.2.4,Win32,60.03842459,Chrome,1920,1080,,,,,0,513,,,,,,,,,,,,,,,,,S,174,star,1,0,,3,,,,,,,,,,,,,,repeat,number,numRpt,k,0.9662,vtsPrac,21,0,21,0,1,,,,,,,,,,,,,,,,,,,,,,,
296509,2022-12-05_23h15.20.791,vts_reward_expectancy_bt,2022.2.4,Win32,60.03842459,Chrome,1920,1080,,,,,0,513,,,,,,,,,,,,,,,,,W,139,star,1,0,,3,,,,,,,,,,,,,,repeat,number,numRpt,j,0.7938,vtsPrac,22,0,22,0,1,,,,,,,,,,,,,,,,,,,,,,,
296509,2022-12-05_23h15.20.791,vts_reward_expectancy_bt,2022.2.4,Win32,60.03842459,Chrome,1920,1080,,,,,0,513,,,,,,,,,,,,,,,,,F,181,hexagon,1,0,,3,,,,,,,,,,,,,,repeat,number,numRpt,k,1.1369,vtsPrac,23,0,23,0,1,,,,,,,,,,,,,,,,,,,,,,,
296509,2022-12-05_23h15.20.791,vts_reward_expectancy_bt,2022.2.4,Win32,60.03842459,Chrome,1920,1080,,,,,0,513,,,,,,,,,,,,,,,,,Y,167,triangle,1,0,,3,,,,,,,,,,,,,,repeat,number,numRpt,k,0.7687,vtsPrac,24,0,24,0,1,,,,,,,,,,,,,,,,,,,,,,,
296509,2022-12-05_23h15.20.791,vts_reward_expectancy_bt,2022.2.4,Win32,60.03842459,Chrome,1920,1080,,,,,0,513,,,,,,,,,,,,,,,,,U,125,circle,1,0,,3,,,,,,,,,,,,,,repeat,number,numRpt,j,0.8432,vtsPrac,25,0,25,0,1,,,,,,,,,,,,,,,,,,,,,,,
296509,2022-12-05_23h15.20.791,vts_reward_expectancy_bt,2022.2.4,Win32,60.03842459,Chrome,1920,1080,,,,,0,513,,,,,,,,,,,,,,,,,H,181,hexagon,1,0,,3,,,,,,,,,,,,,,repeat,number,numRpt,k,0.7472,vtsPrac,26,0,26,0,1,,,,,,,,,,,,,,,,,,,,,,,
296509,2022-12-05_23h15.20.791,vts_reward_expectancy_bt,2022.2.4,Win32,60.03842459,Chrome,1920,1080,,,,,0,513,,,,,,,,,,,,,,,,,W,139,star,1,0,,3,,,,,,,,,,,,,,repeat,number,numRpt,j,1.4501,vtsPrac,27,0,27,0,1,,,,,,,,,,,,,,,,,,,,,,,
296509,2022-12-05_23h15.20.791,vts_reward_expectancy_bt,2022.2.4,Win32,60.03842459,Chrome,1920,1080,,,,,0,513,,,,,,,,,,,,,,,,,H,132,hexagon,1,0,,3,,,,,,,,,,,,,,repeat,number,numRpt,j,0.6419,vtsPrac,28,0,28,0,1,,,,,,,,,,,,,,,,,,,,,,,
296509,2022-12-05_23h15.20.791,vts_reward_expectancy_bt,2022.2.4,Win32,60.03842459,Chrome,1920,1080,,,,,0,513,,,,,,,,,,,,,,,,,B,160,star,1,0,,3,,,,,,,,,,,,,,repeat,number,numRpt,k,1.6033,vtsPrac,29,0,29,0,1,,,,,,,,,,,,,,,,,,,,,,,
296509,2022-12-05_23h15.20.791,vts_reward_expectancy_bt,2022.2.4,Win32,60.03842459,Chrome,1920,1080,,,,,0,513,,,,,,,,,,,,,,,,,S,125,circle,1,0,,3,,,,,,,,,,,,,,repeat,number,numRpt,j,0.8664,vtsPrac,30,0,30,0,1,,,,,,,,,,,,,,,,,,,,,,,
296509,2022-12-05_23h15.20.791,vts_reward_expectancy_bt,2022.2.4,Win32,60.03842459,Chrome,1920,1080,,,,,0,513,,,,,,,,,,,,,,,,,D,174,hexagon,1,0,,3,,,,,,,,,,,,,,repeat,number,numRpt,k,1.2278,vtsPrac,31,0,31,0,1,,,,,,,,,,,,,,,,,,,,,,,
296509,2022-12-05_23h15.20.791,vts_reward_expectancy_bt,2022.2.4,Win32,60.03842459,Chrome,1920,1080,,,,,0,513,,,,,,,,,,,,,,,,,D,139,star,1,0,,4,,,,,,,,,,,,,,switch,letter,lettSwt,d,1.4211,vtsPrac,0,0,0,0,1,,,,,,,,,,,,,,,,,,,,,,,
296509,2022-12-05_23h15.20.791,vts_reward_expectancy_bt,2022.2.4,Win32,60.03842459,Chrome,1920,1080,,,,,0,513,,,,,,,,,,,,,,,,,W,146,hexagon,1,0,,4,,,,,,,,,,,,,,switch,number,numSwt,j,1.0761,vtsPrac,1,0,1,0,1,,,,,,,,,,,,,,,,,,,,,,,
296509,2022-12-05_23h15.20.791,vts_reward_expectancy_bt,2022.2.4,Win32,60.03842459,Chrome,1920,1080,,,,,0,513,,,,,,,,,,,,,,,,,F,132,star,1,0,,4,,,,,,,,,,,,,,switch,letter,lettSwt,d,1.4182,vtsPrac,2,0,2,0,1,,,,,,,,,,,,,,,,,,,,,,,
296509,2022-12-05_23h15.20.791,vts_reward_expectancy_bt,2022.2.4,Win32,60.03842459,Chrome,1920,1080,,,,,0,513,,,,,,,,,,,,,,,,,B,174,hexagon,1,0,,4,,,,,,,,,,,,,,switch,number,numSwt,k,0.7306,vtsPrac,3,0,3,0,1,,,,,,,,,,,,,,,,,,,,,,,
296509,2022-12-05_23h15.20.791,vts_reward_expectancy_bt,2022.2.4,Win32,60.03842459,Chrome,1920,1080,,,,,0,513,,,,,,,,,,,,,,,,,D,139,circle,1,0,,4,,,,,,,,,,,,,,switch,letter,lettSwt,d,0.5287,vtsPrac,4,0,4,0,1,,,,,,,,,,,,,,,,,,,,,,,
296509,2022-12-05_23h15.20.791,vts_reward_expectancy_bt,2022.2.4,Win32,60.03842459,Chrome,1920,1080,,,,,0,513,,,,,,,,,,,,,,,,,W,146,triangle,1,0,,4,,,,,,,,,,,,,,switch,number,numSwt,j,0.9476,vtsPrac,5,0,5,0,1,,,,,,,,,,,,,,,,,,,,,,,
296509,2022-12-05_23h15.20.791,vts_reward_expectancy_bt,2022.2.4,Win32,60.03842459,Chrome,1920,1080,,,,,0,513,,,,,,,,,,,,,,,,,F,132,circle,1,0,,4,,,,,,,,,,,,,,switch,letter,lettSwt,d,0.9935,vtsPrac,6,0,6,0,1,,,,,,,,,,,,,,,,,,,,,,,
296509,2022-12-05_23h15.20.791,vts_reward_expectancy_bt,2022.2.4,Win32,60.03842459,Chrome,1920,1080,,,,,0,513,,,,,,,,,,,,,,,,,B,174,triangle,1,0,,4,,,,,,,,,,,,,,repeat,letter,lettRpt,d,0.7132,vtsPrac,7,0,7,0,1,,,,,,,,,,,,,,,,,,,,,,,
296509,2022-12-05_23h15.20.791,vts_reward_expectancy_bt,2022.2.4,Win32,60.03842459,Chrome,1920,1080,,,,,0,513,,,,,,,,,,,,,,,,,B,174,triangle,1,0,,4,,,,,,,,,,,,,,switch,number,numSwt,k,0.7844,vtsPrac,8,0,8,0,1,,,,,,,,,,,,,,,,,,,,,,,
296509,2022-12-05_23h15.20.791,vts_reward_expectancy_bt,2022.2.4,Win32,60.03842459,Chrome,1920,1080,,,,,0,513,,,,,,,,,,,,,,,,,U,146,circle,1,0,,4,,,,,,,,,,,,,,repeat,number,numRpt,j,0.9269,vtsPrac,9,0,9,0,1,,,,,,,,,,,,,,,,,,,,,,,
296509,2022-12-05_23h15.20.791,vts_reward_expectancy_bt,2022.2.4,Win32,60.03842459,Chrome,1920,1080,,,,,0,513,,,,,,,,,,,,,,,,,Y,167,star,1,0,,4,,,,,,,,,,,,,,repeat,number,numRpt,k,1.4597,vtsPrac,10,0,10,0,1,,,,,,,,,,,,,,,,,,,,,,,
296509,2022-12-05_23h15.20.791,vts_reward_expectancy_bt,2022.2.4,Win32,60.03842459,Chrome,1920,1080,,,,,0,513,,,,,,,,,,,,,,,,,H,160,triangle,1,0,,4,,,,,,,,,,,,,,switch,letter,lettSwt,d,1.7013,vtsPrac,11,0,11,0,1,,,,,,,,,,,,,,,,,,,,,,,
296509,2022-12-05_23h15.20.791,vts_reward_expectancy_bt,2022.2.4,Win32,60.03842459,Chrome,1920,1080,,,,,0,513,,,,,,,,,,,,,,,,,D,167,star,1,0,,4,,,,,,,,,,,,,,switch,number,numSwt,k,1.3912,vtsPrac,12,0,12,0,1,,,,,,,,,,,,,,,,,,,,,,,
296509,2022-12-05_23h15.20.791,vts_reward_expectancy_bt,2022.2.4,Win32,60.03842459,Chrome,1920,1080,,,,,0,513,,,,,,,,,,,,,,,,,H,139,hexagon,1,0,,4,,,,,,,,,,,,,,repeat,number,numRpt,j,0.908,vtsPrac,13,0,13,0,1,,,,,,,,,,,,,,,,,,,,,,,
296509,2022-12-05_23h15.20.791,vts_reward_expectancy_bt,2022.2.4,Win32,60.03842459,Chrome,1920,1080,,,,,0,513,,,,,,,,,,,,,,,,,Y,132,triangle,1,0,,4,,,,,,,,,,,,,,repeat,number,numRpt,j,1.5716,vtsPrac,14,0,14,0,1,,,,,,,,,,,,,,,,,,,,,,,
296509,2022-12-05_23h15.20.791,vts_reward_expectancy_bt,2022.2.4,Win32,60.03842459,Chrome,1920,1080,,,,,0,513,,,,,,,,,,,,,,,,,S,125,hexagon,1,0,,4,,,,,,,,,,,,,,switch,letter,lettSwt,f,1.8347,vtsPrac,15,0,15,0,1,,,,,,,,,,,,,,,,,,,,,,,
296509,2022-12-05_23h15.20.791,vts_reward_expectancy_bt,2022.2.4,Win32,60.03842459,Chrome,1920,1080,,,,,0,513,,,,,,,,,,,,,,,,,Y,146,hexagon,1,0,,4,,,,,,,,,,,,,,repeat,letter,lettRpt,f,0.9392,vtsPrac,16,0,16,0,1,,,,,,,,,,,,,,,,,,,,,,,
296509,2022-12-05_23h15.20.791,vts_reward_expectancy_bt,2022.2.4,Win32,60.03842459,Chrome,1920,1080,,,,,0,513,,,,,,,,,,,,,,,,,S,132,triangle,0,0,,4,,,,,,,,,,,,,,repeat,letter,NA,d,1.5226,vtsPrac,17,0,17,0,1,,,,,,,,,,,,,,,,,,,,,,,
296509,2022-12-05_23h15.20.791,vts_reward_expectancy_bt,2022.2.4,Win32,60.03842459,Chrome,1920,1080,,,,,0,513,,,,,,,,,,,,,,,,,H,174,hexagon,1,1,,4,,,,,,,,,,,,,,repeat,letter,lettRpt,d,2.2594,vtsPrac,18,0,18,0,1,,,,,,,,,,,,,,,,,,,,,,,
296509,2022-12-05_23h15.20.791,vts_reward_expectancy_bt,2022.2.4,Win32,60.03842459,Chrome,1920,1080,,,,,0,513,,,,,,,,,,,,,,,,,U,160,star,1,0,,4,,,,,,,,,,,,,,switch,number,numSwt,k,1.3975,vtsPrac,19,0,19,0,1,,,,,,,,,,,,,,,,,,,,,,,
296509,2022-12-05_23h15.20.791,vts_reward_expectancy_bt,2022.2.4,Win32,60.03842459,Chrome,1920,1080,,,,,0,513,,,,,,,,,,,,,,,,,S,132,triangle,1,0,,4,,,,,,,,,,,,,,repeat,number,numRpt,j,1.0513,vtsPrac,20,0,20,0,1,,,,,,,,,,,,,,,,,,,,,,,
296509,2022-12-05_23h15.20.791,vts_reward_expectancy_bt,2022.2.4,Win32,60.03842459,Chrome,1920,1080,,,,,0,513,,,,,,,,,,,,,,,,,B,167,circle,1,0,,4,,,,,,,,,,,,,,repeat,number,numRpt,k,0.9434,vtsPrac,21,0,21,0,1,,,,,,,,,,,,,,,,,,,,,,,
296509,2022-12-05_23h15.20.791,vts_reward_expectancy_bt,2022.2.4,Win32,60.03842459,Chrome,1920,1080,,,,,0,513,,,,,,,,,,,,,,,,,W,160,hexagon,1,0,,4,,,,,,,,,,,,,,switch,letter,lettSwt,f,1.0831,vtsPrac,22,0,22,0,1,,,,,,,,,,,,,,,,,,,,,,,
296509,2022-12-05_23h15.20.791,vts_reward_expectancy_bt,2022.2.4,Win32,60.03842459,Chrome,1920,1080,,,,,0,513,,,,,,,,,,,,,,,,,D,181,triangle,1,0,,4,,,,,,,,,,,,,,repeat,letter,lettRpt,d,0.8196,vtsPrac,23,0,23,0,1,,,,,,,,,,,,,,,,,,,,,,,
296509,2022-12-05_23h15.20.791,vts_reward_expectancy_bt,2022.2.4,Win32,60.03842459,Chrome,1920,1080,,,,,0,513,,,,,,,,,,,,,,,,,D,160,triangle,1,0,,4,,,,,,,,,,,,,,switch,number,numSwt,k,1.9737,vtsPrac,24,0,24,0,1,,,,,,,,,,,,,,,,,,,,,,,
296509,2022-12-05_23h15.20.791,vts_reward_expectancy_bt,2022.2.4,Win32,60.03842459,Chrome,1920,1080,,,,,0,513,,,,,,,,,,,,,,,,,H,181,circle,1,0,,4,,,,,,,,,,,,,,repeat,number,numRpt,k,0.8695,vtsPrac,25,0,25,0,1,,,,,,,,,,,,,,,,,,,,,,,
296509,2022-12-05_23h15.20.791,vts_reward_expectancy_bt,2022.2.4,Win32,60.03842459,Chrome,1920,1080,,,,,0,513,,,,,,,,,,,,,,,,,B,174,circle,1,0,,4,,,,,,,,,,,,,,switch,letter,lettSwt,d,0.7189,vtsPrac,26,0,26,0,1,,,,,,,,,,,,,,,,,,,,,,,
296509,2022-12-05_23h15.20.791,vts_reward_expectancy_bt,2022.2.4,Win32,60.03842459,Chrome,1920,1080,,,,,0,513,,,,,,,,,,,,,,,,,Y,132,star,1,0,,4,,,,,,,,,,,,,,repeat,letter,lettRpt,f,0.9911,vtsPrac,27,0,27,0,1,,,,,,,,,,,,,,,,,,,,,,,
296509,2022-12-05_23h15.20.791,vts_reward_expectancy_bt,2022.2.4,Win32,60.03842459,Chrome,1920,1080,,,,,0,513,,,,,,,,,,,,,,,,,U,160,circle,1,0,,4,,,,,,,,,,,,,,repeat,letter,lettRpt,f,1.1206,vtsPrac,28,0,28,0,1,,,,,,,,,,,,,,,,,,,,,,,
296509,2022-12-05_23h15.20.791,vts_reward_expectancy_bt,2022.2.4,Win32,60.03842459,Chrome,1920,1080,,,,,0,513,,,,,,,,,,,,,,,,,S,174,triangle,1,0,,4,,,,,,,,,,,,,,switch,number,numSwt,k,0.7168,vtsPrac,29,0,29,0,1,,,,,,,,,,,,,,,,,,,,,,,
296509,2022-12-05_23h15.20.791,vts_reward_expectancy_bt,2022.2.4,Win32,60.03842459,Chrome,1920,1080,,,,,0,513,,,,,,,,,,,,,,,,,D,132,circle,1,0,,4,,,,,,,,,,,,,,repeat,number,numRpt,j,0.9047,vtsPrac,30,0,30,0,1,,,,,,,,,,,,,,,,,,,,,,,
296509,2022-12-05_23h15.20.791,vts_reward_expectancy_bt,2022.2.4,Win32,60.03842459,Chrome,1920,1080,,,,,0,513,,,,,,,,,,,,,,,,,H,181,star,1,0,,4,,,,,,,,,,,,,,repeat,number,numRpt,k,0.7568,vtsPrac,31,0,31,0,1,,,,,,,,,,,,,,,,,,,,,,,
296509,2022-12-05_23h15.20.791,vts_reward_expectancy_bt,2022.2.4,Win32,60.03842459,Chrome,1920,1080,,,,,,,,,,,,,,,,,,,,,,,,,,,,,,,,,,,,,,,,,,,,,,,,,,,,,,,,,,,,,,,,,,,,,,,,,,,,
296509,2022-12-05_23h15.20.791,vts_reward_expectancy_bt,2022.2.4,Win32,60.03842459,Chrome,1920,1080,,,,,,,,,,,,,,,,,,,,,,,,,,,,,,,,,,,,,,,,,,,,,,,,,,,,,,,,,,,,,,,,,,,,,,,,,,,,
296509,2022-12-05_23h15.20.791,vts_reward_expectancy_bt,2022.2.4,Win32,60.03842459,Chrome,1920,1080,,,,,0,513,,,,,,,,,,,,,,,,,H,160,triangle,1,0,,,,,,,,,,,,,,,,switch,letter,lettSwt,d,1.0944,noRew,,,,,,0,0,0,0,0,1,,,,,,,,,,,,,,,,,
296509,2022-12-05_23h15.20.791,vts_reward_expectancy_bt,2022.2.4,Win32,60.03842459,Chrome,1920,1080,,,,,0,513,,,,,,,,,,,,,,,,,D,125,hexagon,1,0,,,,,,,,,,,,,,,,switch,number,numSwt,j,0.6832,noRew,,,,,,0,1,0,1,0,1,,,,,,,,,,,,,,,,,
296509,2022-12-05_23h15.20.791,vts_reward_expectancy_bt,2022.2.4,Win32,60.03842459,Chrome,1920,1080,,,,,0,513,,,,,,,,,,,,,,,,,F,167,triangle,1,0,,,,,,,,,,,,,,,,switch,letter,lettSwt,d,1.3866,noRew,,,,,,0,2,0,2,0,1,,,,,,,,,,,,,,,,,
296509,2022-12-05_23h15.20.791,vts_reward_expectancy_bt,2022.2.4,Win32,60.03842459,Chrome,1920,1080,,,,,0,513,,,,,,,,,,,,,,,,,U,181,hexagon,1,0,,,,,,,,,,,,,,,,repeat,letter,lettRpt,f,1.8912,noRew,,,,,,0,3,0,3,0,1,,,,,,,,,,,,,,,,,
296509,2022-12-05_23h15.20.791,vts_reward_expectancy_bt,2022.2.4,Win32,60.03842459,Chrome,1920,1080,,,,,0,513,,,,,,,,,,,,,,,,,H,160,hexagon,1,0,,,,,,,,,,,,,,,,switch,number,numSwt,k,1.0826,noRew,,,,,,0,4,0,4,0,1,,,,,,,,,,,,,,,,,
296509,2022-12-05_23h15.20.791,vts_reward_expectancy_bt,2022.2.4,Win32,60.03842459,Chrome,1920,1080,,,,,0,513,,,,,,,,,,,,,,,,,D,125,triangle,1,0,,,,,,,,,,,,,,,,repeat,number,numRpt,j,0.7113,noRew,,,,,,0,5,0,5,0,1,,,,,,,,,,,,,,,,,
296509,2022-12-05_23h15.20.791,vts_reward_expectancy_bt,2022.2.4,Win32,60.03842459,Chrome,1920,1080,,,,,0,513,,,,,,,,,,,,,,,,,F,167,hexagon,1,0,,,,,,,,,,,,,,,,switch,letter,lettSwt,d,1.2843,noRew,,,,,,0,6,0,6,0,1,,,,,,,,,,,,,,,,,
296509,2022-12-05_23h15.20.791,vts_reward_expectancy_bt,2022.2.4,Win32,60.03842459,Chrome,1920,1080,,,,,0,513,,,,,,,,,,,,,,,,,U,181,circle,0,0,,,,,,,,,,,,,,,,repeat,letter,NA,d,1.7543,noRew,,,,,,0,7,0,7,0,1,,,,,,,,,,,,,,,,,
296509,2022-12-05_23h15.20.791,vts_reward_expectancy_bt,2022.2.4,Win32,60.03842459,Chrome,1920,1080,,,,,0,513,,,,,,,,,,,,,,,,,H,174,star,1,1,,,,,,,,,,,,,,,,repeat,letter,lettRpt,d,1.716,noRew,,,,,,0,8,0,8,0,1,,,,,,,,,,,,,,,,,
296509,2022-12-05_23h15.20.791,vts_reward_expectancy_bt,2022.2.4,Win32,60.03842459,Chrome,1920,1080,,,,,0,513,,,,,,,,,,,,,,,,,D,146,circle,1,0,,,,,,,,,,,,,,,,repeat,letter,lettRpt,d,0.8118,noRew,,,,,,0,9,0,9,0,1,,,,,,,,,,,,,,,,,
296509,2022-12-05_23h15.20.791,vts_reward_expectancy_bt,2022.2.4,Win32,60.03842459,Chrome,1920,1080,,,,,0,513,,,,,,,,,,,,,,,,,U,167,star,1,0,,,,,,,,,,,,,,,,switch,number,numSwt,k,0.8189,noRew,,,,,,0,10,0,10,0,1,,,,,,,,,,,,,,,,,
296509,2022-12-05_23h15.20.791,vts_reward_expectancy_bt,2022.2.4,Win32,60.03842459,Chrome,1920,1080,,,,,0,513,,,,,,,,,,,,,,,,,B,139,circle,1,0,,,,,,,,,,,,,,,,repeat,number,numRpt,j,0.7332,noRew,,,,,,0,11,0,11,0,1,,,,,,,,,,,,,,,,,
296509,2022-12-05_23h15.20.791,vts_reward_expectancy_bt,2022.2.4,Win32,60.03842459,Chrome,1920,1080,,,,,0,513,,,,,,,,,,,,,,,,,D,174,circle,1,0,,,,,,,,,,,,,,,,repeat,number,numRpt,k,0.8332,noRew,,,,,,0,12,0,12,0,1,,,,,,,,,,,,,,,,,
296509,2022-12-05_23h15.20.791,vts_reward_expectancy_bt,2022.2.4,Win32,60.03842459,Chrome,1920,1080,,,,,0,513,,,,,,,,,,,,,,,,,S,160,triangle,1,0,,,,,,,,,,,,,,,,switch,letter,lettSwt,f,1.3864,noRew,,,,,,0,13,0,13,0,1,,,,,,,,,,,,,,,,,
296509,2022-12-05_23h15.20.791,vts_reward_expectancy_bt,2022.2.4,Win32,60.03842459,Chrome,1920,1080,,,,,0,513,,,,,,,,,,,,,,,,,B,181,star,1,0,,,,,,,,,,,,,,,,switch,number,numSwt,k,1.5698,noRew,,,,,,0,14,0,14,0,1,,,,,,,,,,,,,,,,,
296509,2022-12-05_23h15.20.791,vts_reward_expectancy_bt,2022.2.4,Win32,60.03842459,Chrome,1920,1080,,,,,0,513,,,,,,,,,,,,,,,,,W,146,circle,1,0,,,,,,,,,,,,,,,,repeat,number,numRpt,j,1.1862,noRew,,,,,,0,15,0,15,0,1,,,,,,,,,,,,,,,,,
296509,2022-12-05_23h15.20.791,vts_reward_expectancy_bt,2022.2.4,Win32,60.03842459,Chrome,1920,1080,,,,,0,513,,,,,,,,,,,,,,,,,D,181,star,1,0,,,,,,,,,,,,,,,,switch,letter,lettSwt,d,0.8561,noRew,,,,,,0,16,0,16,0,1,,,,,,,,,,,,,,,,,
296509,2022-12-05_23h15.20.791,vts_reward_expectancy_bt,2022.2.4,Win32,60.03842459,Chrome,1920,1080,,,,,0,513,,,,,,,,,,,,,,,,,B,174,circle,1,0,,,,,,,,,,,,,,,,switch,number,numSwt,k,2.3193,noRew,,,,,,0,17,0,17,0,1,,,,,,,,,,,,,,,,,
296509,2022-12-05_23h15.20.791,vts_reward_expectancy_bt,2022.2.4,Win32,60.03842459,Chrome,1920,1080,,,,,0,513,,,,,,,,,,,,,,,,,Y,125,hexagon,1,0,,,,,,,,,,,,,,,,switch,letter,lettSwt,f,0.8292,noRew,,,,,,0,18,0,18,0,1,,,,,,,,,,,,,,,,,
296509,2022-12-05_23h15.20.791,vts_reward_expectancy_bt,2022.2.4,Win32,60.03842459,Chrome,1920,1080,,,,,0,513,,,,,,,,,,,,,,,,,U,146,triangle,1,0,,,,,,,,,,,,,,,,repeat,letter,lettRpt,f,1.2628,noRew,,,,,,0,19,0,19,0,1,,,,,,,,,,,,,,,,,
296509,2022-12-05_23h15.20.791,vts_reward_expectancy_bt,2022.2.4,Win32,60.03842459,Chrome,1920,1080,,,,,0,513,,,,,,,,,,,,,,,,,H,181,circle,1,0,,,,,,,,,,,,,,,,repeat,letter,lettRpt,d,1.3814,noRew,,,,,,0,20,0,20,0,1,,,,,,,,,,,,,,,,,
296509,2022-12-05_23h15.20.791,vts_reward_expectancy_bt,2022.2.4,Win32,60.03842459,Chrome,1920,1080,,,,,0,513,,,,,,,,,,,,,,,,,F,125,hexagon,1,0,,,,,,,,,,,,,,,,switch,number,numSwt,j,0.8767,noRew,,,,,,0,21,0,21,0,1,,,,,,,,,,,,,,,,,
296509,2022-12-05_23h15.20.791,vts_reward_expectancy_bt,2022.2.4,Win32,60.03842459,Chrome,1920,1080,,,,,0,513,,,,,,,,,,,,,,,,,W,167,star,1,0,,,,,,,,,,,,,,,,repeat,number,numRpt,k,0.7897,noRew,,,,,,0,22,0,22,0,1,,,,,,,,,,,,,,,,,
296509,2022-12-05_23h15.20.791,vts_reward_expectancy_bt,2022.2.4,Win32,60.03842459,Chrome,1920,1080,,,,,0,513,,,,,,,,,,,,,,,,,Y,132,circle,1,0,,,,,,,,,,,,,,,,repeat,number,numRpt,j,1.4069,noRew,,,,,,0,23,0,23,0,1,,,,,,,,,,,,,,,,,
296509,2022-12-05_23h15.20.791,vts_reward_expectancy_bt,2022.2.4,Win32,60.03842459,Chrome,1920,1080,,,,,0,513,,,,,,,,,,,,,,,,,Y,132,triangle,1,0,,,,,,,,,,,,,,,,repeat,number,numRpt,j,1.3066,noRew,,,,,,0,24,0,24,0,1,,,,,,,,,,,,,,,,,
296509,2022-12-05_23h15.20.791,vts_reward_expectancy_bt,2022.2.4,Win32,60.03842459,Chrome,1920,1080,,,,,0,513,,,,,,,,,,,,,,,,,F,174,star,1,0,,,,,,,,,,,,,,,,switch,letter,lettSwt,d,1.2323,noRew,,,,,,0,25,0,25,0,1,,,,,,,,,,,,,,,,,
296509,2022-12-05_23h15.20.791,vts_reward_expectancy_bt,2022.2.4,Win32,60.03842459,Chrome,1920,1080,,,,,0,513,,,,,,,,,,,,,,,,,B,181,star,1,0,,,,,,,,,,,,,,,,repeat,letter,lettRpt,d,0.7014,noRew,,,,,,0,26,0,26,0,1,,,,,,,,,,,,,,,,,
296509,2022-12-05_23h15.20.791,vts_reward_expectancy_bt,2022.2.4,Win32,60.03842459,Chrome,1920,1080,,,,,0,513,,,,,,,,,,,,,,,,,U,125,hexagon,1,0,,,,,,,,,,,,,,,,repeat,letter,lettRpt,f,1.3388,noRew,,,,,,0,27,0,27,0,1,,,,,,,,,,,,,,,,,
296509,2022-12-05_23h15.20.791,vts_reward_expectancy_bt,2022.2.4,Win32,60.03842459,Chrome,1920,1080,,,,,0,513,,,,,,,,,,,,,,,,,U,181,hexagon,1,0,,,,,,,,,,,,,,,,repeat,letter,lettRpt,f,0.7863,noRew,,,,,,0,28,0,28,0,1,,,,,,,,,,,,,,,,,
296509,2022-12-05_23h15.20.791,vts_reward_expectancy_bt,2022.2.4,Win32,60.03842459,Chrome,1920,1080,,,,,0,513,,,,,,,,,,,,,,,,,W,174,circle,1,0,,,,,,,,,,,,,,,,switch,number,numSwt,k,0.8966,noRew,,,,,,0,29,0,29,0,1,,,,,,,,,,,,,,,,,
296509,2022-12-05_23h15.20.791,vts_reward_expectancy_bt,2022.2.4,Win32,60.03842459,Chrome,1920,1080,,,,,0,513,,,,,,,,,,,,,,,,,S,125,hexagon,1,0,,,,,,,,,,,,,,,,repeat,number,numRpt,j,0.6393,noRew,,,,,,0,30,0,30,0,1,,,,,,,,,,,,,,,,,
296509,2022-12-05_23h15.20.791,vts_reward_expectancy_bt,2022.2.4,Win32,60.03842459,Chrome,1920,1080,,,,,0,513,,,,,,,,,,,,,,,,,H,132,star,1,0,,,,,,,,,,,,,,,,repeat,number,numRpt,j,1.6496,noRew,,,,,,0,31,0,31,0,1,,,,,,,,,,,,,,,,,
296509,2022-12-05_23h15.20.791,vts_reward_expectancy_bt,2022.2.4,Win32,60.03842459,Chrome,1920,1080,,,,,0,513,,,,,,,,,,,,,,,,,B,125,star,1,0,,,,,,,,,,,,,,,,switch,letter,lettSwt,d,0.867,noRew,,,,,,0,32,0,32,0,1,,,,,,,,,,,,,,,,,
296509,2022-12-05_23h15.20.791,vts_reward_expectancy_bt,2022.2.4,Win32,60.03842459,Chrome,1920,1080,,,,,0,513,,,,,,,,,,,,,,,,,U,174,triangle,1,0,,,,,,,,,,,,,,,,repeat,letter,lettRpt,f,1.0011,noRew,,,,,,0,33,0,33,0,1,,,,,,,,,,,,,,,,,
296509,2022-12-05_23h15.20.791,vts_reward_expectancy_bt,2022.2.4,Win32,60.03842459,Chrome,1920,1080,,,,,0,513,,,,,,,,,,,,,,,,,H,160,triangle,-1,0,,,,,,,,,,,,,,,,switch,no_choice,NA,,,noRew,,,,,,0,34,0,34,0,1,,,,,,,,,,,,,,,,,
296509,2022-12-05_23h15.20.791,vts_reward_expectancy_bt,2022.2.4,Win32,60.03842459,Chrome,1920,1080,,,,,0,513,,,,,,,,,,,,,,,,,F,167,star,1,0,,,,,,,,,,,,,,,,switch,letter,lettSwt,d,1.0155,noRew,,,,,,0,35,0,35,0,1,,,,,,,,,,,,,,,,,
296509,2022-12-05_23h15.20.791,vts_reward_expectancy_bt,2022.2.4,Win32,60.03842459,Chrome,1920,1080,,,,,0,513,,,,,,,,,,,,,,,,,Y,174,star,1,0,,,,,,,,,,,,,,,,switch,number,numSwt,k,0.6826,noRew,,,,,,0,36,0,36,0,1,,,,,,,,,,,,,,,,,
296509,2022-12-05_23h15.20.791,vts_reward_expectancy_bt,2022.2.4,Win32,60.03842459,Chrome,1920,1080,,,,,0,513,,,,,,,,,,,,,,,,,H,139,circle,1,0,,,,,,,,,,,,,,,,repeat,number,numRpt,j,0.7117,noRew,,,,,,0,37,0,37,0,1,,,,,,,,,,,,,,,,,
296509,2022-12-05_23h15.20.791,vts_reward_expectancy_bt,2022.2.4,Win32,60.03842459,Chrome,1920,1080,,,,,0,513,,,,,,,,,,,,,,,,,B,125,circle,1,0,,,,,,,,,,,,,,,,switch,letter,lettSwt,d,0.9941,noRew,,,,,,0,38,0,38,0,1,,,,,,,,,,,,,,,,,
296509,2022-12-05_23h15.20.791,vts_reward_expectancy_bt,2022.2.4,Win32,60.03842459,Chrome,1920,1080,,,,,0,513,,,,,,,,,,,,,,,,,F,132,hexagon,1,0,,,,,,,,,,,,,,,,switch,number,numSwt,j,0.7707,noRew,,,,,,0,39,0,39,0,1,,,,,,,,,,,,,,,,,
296509,2022-12-05_23h15.20.791,vts_reward_expectancy_bt,2022.2.4,Win32,60.03842459,Chrome,1920,1080,,,,,0,513,,,,,,,,,,,,,,,,,B,139,triangle,1,0,,,,,,,,,,,,,,,,switch,letter,lettSwt,d,0.7497,noRew,,,,,,0,40,0,40,0,1,,,,,,,,,,,,,,,,,
296509,2022-12-05_23h15.20.791,vts_reward_expectancy_bt,2022.2.4,Win32,60.03842459,Chrome,1920,1080,,,,,0,513,,,,,,,,,,,,,,,,,F,167,hexagon,1,0,,,,,,,,,,,,,,,,repeat,letter,lettRpt,d,1.2362,noRew,,,,,,0,41,0,41,0,1,,,,,,,,,,,,,,,,,
296509,2022-12-05_23h15.20.791,vts_reward_expectancy_bt,2022.2.4,Win32,60.03842459,Chrome,1920,1080,,,,,0,513,,,,,,,,,,,,,,,,,H,125,hexagon,0,0,,,,,,,,,,,,,,,,repeat,letter,NA,f,1.3001,noRew,,,,,,0,42,0,42,0,1,,,,,,,,,,,,,,,,,
296509,2022-12-05_23h15.20.791,vts_reward_expectancy_bt,2022.2.4,Win32,60.03842459,Chrome,1920,1080,,,,,0,513,,,,,,,,,,,,,,,,,W,174,triangle,1,1,,,,,,,,,,,,,,,,repeat,letter,lettRpt,f,0.8827,noRew,,,,,,0,43,0,43,0,1,,,,,,,,,,,,,,,,,
296509,2022-12-05_23h15.20.791,vts_reward_expectancy_bt,2022.2.4,Win32,60.03842459,Chrome,1920,1080,,,,,0,513,,,,,,,,,,,,,,,,,H,167,triangle,1,0,,,,,,,,,,,,,,,,switch,number,numSwt,k,0.7107,noRew,,,,,,0,44,0,44,0,1,,,,,,,,,,,,,,,,,
296509,2022-12-05_23h15.20.791,vts_reward_expectancy_bt,2022.2.4,Win32,60.03842459,Chrome,1920,1080,,,,,0,513,,,,,,,,,,,,,,,,,S,181,star,1,0,,,,,,,,,,,,,,,,repeat,number,numRpt,k,0.7663,noRew,,,,,,0,45,0,45,0,1,,,,,,,,,,,,,,,,,
296509,2022-12-05_23h15.20.791,vts_reward_expectancy_bt,2022.2.4,Win32,60.03842459,Chrome,1920,1080,,,,,0,513,,,,,,,,,,,,,,,,,W,174,hexagon,1,0,,,,,,,,,,,,,,,,switch,letter,lettSwt,f,1.409,noRew,,,,,,0,46,0,46,0,1,,,,,,,,,,,,,,,,,
296509,2022-12-05_23h15.20.791,vts_reward_expectancy_bt,2022.2.4,Win32,60.03842459,Chrome,1920,1080,,,,,0,513,,,,,,,,,,,,,,,,,D,125,triangle,1,0,,,,,,,,,,,,,,,,repeat,letter,lettRpt,d,0.7439,noRew,,,,,,0,47,0,47,0,1,,,,,,,,,,,,,,,,,
296509,2022-12-05_23h15.20.791,vts_reward_expectancy_bt,2022.2.4,Win32,60.03842459,Chrome,1920,1080,,,,,0,513,,,,,,,,,,,,,,,,,H,167,star,1,0,,,,,,,,,,,,,,,,repeat,letter,lettRpt,d,1.085,noRew,,,,,,0,48,0,48,0,1,,,,,,,,,,,,,,,,,
296509,2022-12-05_23h15.20.791,vts_reward_expectancy_bt,2022.2.4,Win32,60.03842459,Chrome,1920,1080,,,,,0,513,,,,,,,,,,,,,,,,,D,139,triangle,1,0,,,,,,,,,,,,,,,,switch,number,numSwt,j,0.7831,noRew,,,,,,0,49,0,49,0,1,,,,,,,,,,,,,,,,,
296509,2022-12-05_23h15.20.791,vts_reward_expectancy_bt,2022.2.4,Win32,60.03842459,Chrome,1920,1080,,,,,0,513,,,,,,,,,,,,,,,,,B,132,hexagon,1,0,,,,,,,,,,,,,,,,repeat,number,numRpt,j,1.5561,noRew,,,,,,0,50,0,50,0,1,,,,,,,,,,,,,,,,,
296509,2022-12-05_23h15.20.791,vts_reward_expectancy_bt,2022.2.4,Win32,60.03842459,Chrome,1920,1080,,,,,0,513,,,,,,,,,,,,,,,,,F,146,star,1,0,,,,,,,,,,,,,,,,repeat,number,numRpt,j,0.9526,noRew,,,,,,0,51,0,51,0,1,,,,,,,,,,,,,,,,,
296509,2022-12-05_23h15.20.791,vts_reward_expectancy_bt,2022.2.4,Win32,60.03842459,Chrome,1920,1080,,,,,0,513,,,,,,,,,,,,,,,,,W,167,circle,1,0,,,,,,,,,,,,,,,,switch,letter,lettSwt,f,1.1275,noRew,,,,,,0,52,0,52,0,1,,,,,,,,,,,,,,,,,
296509,2022-12-05_23h15.20.791,vts_reward_expectancy_bt,2022.2.4,Win32,60.03842459,Chrome,1920,1080,,,,,0,513,,,,,,,,,,,,,,,,,Y,174,triangle,1,0,,,,,,,,,,,,,,,,switch,number,numSwt,k,2.0178,noRew,,,,,,0,53,0,53,0,1,,,,,,,,,,,,,,,,,
296509,2022-12-05_23h15.20.791,vts_reward_expectancy_bt,2022.2.4,Win32,60.03842459,Chrome,1920,1080,,,,,0,513,,,,,,,,,,,,,,,,,F,132,hexagon,0,0,,,,,,,,,,,,,,,,switch,letter,NA,f,1.439,noRew,,,,,,0,54,0,54,0,1,,,,,,,,,,,,,,,,,
296509,2022-12-05_23h15.20.791,vts_reward_expectancy_bt,2022.2.4,Win32,60.03842459,Chrome,1920,1080,,,,,0,513,,,,,,,,,,,,,,,,,D,181,star,1,1,,,,,,,,,,,,,,,,repeat,letter,lettRpt,d,0.7903,noRew,,,,,,0,55,0,55,0,1,,,,,,,,,,,,,,,,,
296509,2022-12-05_23h15.20.791,vts_reward_expectancy_bt,2022.2.4,Win32,60.03842459,Chrome,1920,1080,,,,,0,513,,,,,,,,,,,,,,,,,U,125,triangle,1,0,,,,,,,,,,,,,,,,repeat,letter,lettRpt,f,1.0998,noRew,,,,,,0,56,0,56,0,1,,,,,,,,,,,,,,,,,
296509,2022-12-05_23h15.20.791,vts_reward_expectancy_bt,2022.2.4,Win32,60.03842459,Chrome,1920,1080,,,,,0,513,,,,,,,,,,,,,,,,,D,160,circle,1,0,,,,,,,,,,,,,,,,repeat,letter,lettRpt,d,1.0164,noRew,,,,,,0,57,0,57,0,1,,,,,,,,,,,,,,,,,
296509,2022-12-05_23h15.20.791,vts_reward_expectancy_bt,2022.2.4,Win32,60.03842459,Chrome,1920,1080,,,,,0,513,,,,,,,,,,,,,,,,,B,181,circle,1,0,,,,,,,,,,,,,,,,switch,number,numSwt,k,0.7501,noRew,,,,,,0,58,0,58,0,1,,,,,,,,,,,,,,,,,
296509,2022-12-05_23h15.20.791,vts_reward_expectancy_bt,2022.2.4,Win32,60.03842459,Chrome,1920,1080,,,,,0,513,,,,,,,,,,,,,,,,,S,139,triangle,1,0,,,,,,,,,,,,,,,,repeat,number,numRpt,j,0.9568,noRew,,,,,,0,59,0,59,0,1,,,,,,,,,,,,,,,,,
296509,2022-12-05_23h15.20.791,vts_reward_expectancy_bt,2022.2.4,Win32,60.03842459,Chrome,1920,1080,,,,,0,513,,,,,,,,,,,,,,,,,U,181,hexagon,1,0,,,,,,,,,,,,,,,,repeat,number,numRpt,k,1.973,noRew,,,,,,0,60,0,60,0,1,,,,,,,,,,,,,,,,,
296509,2022-12-05_23h15.20.791,vts_reward_expectancy_bt,2022.2.4,Win32,60.03842459,Chrome,1920,1080,,,,,0,513,,,,,,,,,,,,,,,,,B,146,triangle,1,0,,,,,,,,,,,,,,,,repeat,number,numRpt,j,1.8213,noRew,,,,,,0,61,0,61,0,1,,,,,,,,,,,,,,,,,
296509,2022-12-05_23h15.20.791,vts_reward_expectancy_bt,2022.2.4,Win32,60.03842459,Chrome,1920,1080,,,,,0,513,,,,,,,,,,,,,,,,,F,125,hexagon,1,0,,,,,,,,,,,,,,,,repeat,number,numRpt,j,0.7912,noRew,,,,,,0,62,0,62,0,1,,,,,,,,,,,,,,,,,
296509,2022-12-05_23h15.20.791,vts_reward_expectancy_bt,2022.2.4,Win32,60.03842459,Chrome,1920,1080,,,,,0,513,,,,,,,,,,,,,,,,,S,160,triangle,1,0,,,,,,,,,,,,,,,,switch,letter,lettSwt,f,1.1722,noRew,,,,,,0,63,0,63,0,1,,,,,,,,,,,,,,,,,
296509,2022-12-05_23h15.20.791,vts_reward_expectancy_bt,2022.2.4,Win32,60.03842459,Chrome,1920,1080,,,,,,,,,,,,,,,,,,,,,,,,,,,,,,,,,,,,,,,,,,,,,,,,,,,,,,,,,,,,,,,,,,,,,,,,,,,,
296509,2022-12-05_23h15.20.791,vts_reward_expectancy_bt,2022.2.4,Win32,60.03842459,Chrome,1920,1080,,,,,10,523,,,,,,,,,,,,,,,,,B,160,circle,1,0,,,,,,,,,,,,,,,,repeat,letter,lettRpt,d,0.9836,Lo,,,,,,0,,,,,,space,22.598,high,0,0,0,0,1,,,,,,,,,
296509,2022-12-05_23h15.20.791,vts_reward_expectancy_bt,2022.2.4,Win32,60.03842459,Chrome,1920,1080,,,,,0,523,,,,,,,,,,,,,,,,,F,125,triangle,1,0,,,,,,,,,,,,,,,,repeat,letter,lettRpt,d,1.4917,Hi,,,,,,0,,,,,,,,high,1,0,1,0,1,,,,,,,,,
296509,2022-12-05_23h15.20.791,vts_reward_expectancy_bt,2022.2.4,Win32,60.03842459,Chrome,1920,1080,,,,,1,524,,,,,,,,,,,,,,,,,D,167,hexagon,1,0,,,,,,,,,,,,,,,,switch,number,numSwt,k,0.8694,Lo,,,,,,0,,,,,,,,high,2,0,2,0,1,,,,,,,,,
296509,2022-12-05_23h15.20.791,vts_reward_expectancy_bt,2022.2.4,Win32,60.03842459,Chrome,1920,1080,,,,,10,534,,,,,,,,,,,,,,,,,H,181,star,1,0,,,,,,,,,,,,,,,,repeat,number,numRpt,k,0.701,Hi,,,,,,0,,,,,,,,high,3,0,3,0,1,,,,,,,,,
296509,2022-12-05_23h15.20.791,vts_reward_expectancy_bt,2022.2.4,Win32,60.03842459,Chrome,1920,1080,,,,,1,535,,,,,,,,,,,,,,,,,S,146,circle,1,0,,,,,,,,,,,,,,,,repeat,number,numRpt,j,0.5053,Lo,,,,,,0,,,,,,,,high,4,0,4,0,1,,,,,,,,,
296509,2022-12-05_23h15.20.791,vts_reward_expectancy_bt,2022.2.4,Win32,60.03842459,Chrome,1920,1080,,,,,10,545,,,,,,,,,,,,,,,,,Y,174,triangle,1,0,,,,,,,,,,,,,,,,switch,letter,lettSwt,f,0.8903,Hi,,,,,,0,,,,,,,,high,5,0,5,0,1,,,,,,,,,
296509,2022-12-05_23h15.20.791,vts_reward_expectancy_bt,2022.2.4,Win32,60.03842459,Chrome,1920,1080,,,,,1,546,,,,,,,,,,,,,,,,,U,132,hexagon,1,0,,,,,,,,,,,,,,,,repeat,letter,lettRpt,f,0.9722,Lo,,,,,,0,,,,,,,,high,6,0,6,0,1,,,,,,,,,
296509,2022-12-05_23h15.20.791,vts_reward_expectancy_bt,2022.2.4,Win32,60.03842459,Chrome,1920,1080,,,,,0,546,,,,,,,,,,,,,,,,,W,139,star,1,0,,,,,,,,,,,,,,,,switch,number,numSwt,j,1.3934,Hi,,,,,,0,,,,,,,,high,7,0,7,0,1,,,,,,,,,
296509,2022-12-05_23h15.20.791,vts_reward_expectancy_bt,2022.2.4,Win32,60.03842459,Chrome,1920,1080,,,,,10,556,,,,,,,,,,,,,,,,,B,160,star,1,0,,,,,,,,,,,,,,,,repeat,number,numRpt,k,0.787,Hi,,,,,,0,,,,,,,,high,8,0,8,0,1,,,,,,,,,
296509,2022-12-05_23h15.20.791,vts_reward_expectancy_bt,2022.2.4,Win32,60.03842459,Chrome,1920,1080,,,,,1,557,,,,,,,,,,,,,,,,,F,125,circle,1,0,,,,,,,,,,,,,,,,switch,letter,lettSwt,d,1.0719,Lo,,,,,,0,,,,,,,,high,9,0,9,0,1,,,,,,,,,
296509,2022-12-05_23h15.20.791,vts_reward_expectancy_bt,2022.2.4,Win32,60.03842459,Chrome,1920,1080,,,,,10,567,,,,,,,,,,,,,,,,,D,167,triangle,1,0,,,,,,,,,,,,,,,,repeat,letter,lettRpt,d,0.7577,Hi,,,,,,0,,,,,,,,high,10,0,10,0,1,,,,,,,,,
296509,2022-12-05_23h15.20.791,vts_reward_expectancy_bt,2022.2.4,Win32,60.03842459,Chrome,1920,1080,,,,,1,568,,,,,,,,,,,,,,,,,H,181,hexagon,1,0,,,,,,,,,,,,,,,,repeat,letter,lettRpt,d,1.2473,Lo,,,,,,0,,,,,,,,high,11,0,11,0,1,,,,,,,,,
296509,2022-12-05_23h15.20.791,vts_reward_expectancy_bt,2022.2.4,Win32,60.03842459,Chrome,1920,1080,,,,,0,568,,,,,,,,,,,,,,,,,S,146,star,1,0,,,,,,,,,,,,,,,,switch,number,numSwt,j,0.8529,Hi,,,,,,0,,,,,,,,high,12,0,12,0,1,,,,,,,,,
296509,2022-12-05_23h15.20.791,vts_reward_expectancy_bt,2022.2.4,Win32,60.03842459,Chrome,1920,1080,,,,,0,568,,,,,,,,,,,,,,,,,Y,174,triangle,1,0,,,,,,,,,,,,,,,,repeat,number,numRpt,k,1.0033,Hi,,,,,,0,,,,,,,,high,13,0,13,0,1,,,,,,,,,
296509,2022-12-05_23h15.20.791,vts_reward_expectancy_bt,2022.2.4,Win32,60.03842459,Chrome,1920,1080,,,,,1,569,,,,,,,,,,,,,,,,,U,132,hexagon,1,0,,,,,,,,,,,,,,,,switch,letter,lettSwt,f,0.8545,Lo,,,,,,0,,,,,,,,high,14,0,14,0,1,,,,,,,,,
296509,2022-12-05_23h15.20.791,vts_reward_expectancy_bt,2022.2.4,Win32,60.03842459,Chrome,1920,1080,,,,,1,570,,,,,,,,,,,,,,,,,W,139,circle,1,0,,,,,,,,,,,,,,,,switch,number,numSwt,j,0.8367,Lo,,,,,,0,,,,,,,,high,15,0,15,0,1,,,,,,,,,
296509,2022-12-05_23h15.20.791,vts_reward_expectancy_bt,2022.2.4,Win32,60.03842459,Chrome,1920,1080,,,,,1,571,,,,,,,,,,,,,,,,,H,125,circle,1,0,,,,,,,,,,,,,,,,switch,letter,lettSwt,d,1.353,Lo,,,,,,0,,,,,,,,high,16,0,16,0,1,,,,,,,,,
296509,2022-12-05_23h15.20.791,vts_reward_expectancy_bt,2022.2.4,Win32,60.03842459,Chrome,1920,1080,,,,,0,571,,,,,,,,,,,,,,,,,Y,181,triangle,1,0,,,,,,,,,,,,,,,,switch,number,numSwt,k,0.8728,Hi,,,,,,0,,,,,,,,high,17,0,17,0,1,,,,,,,,,
296509,2022-12-05_23h15.20.791,vts_reward_expectancy_bt,2022.2.4,Win32,60.03842459,Chrome,1920,1080,,,,,1,572,,,,,,,,,,,,,,,,,U,146,hexagon,1,0,,,,,,,,,,,,,,,,switch,letter,lettSwt,f,1.1087,Lo,,,,,,0,,,,,,,,high,18,0,18,0,1,,,,,,,,,
296509,2022-12-05_23h15.20.791,vts_reward_expectancy_bt,2022.2.4,Win32,60.03842459,Chrome,1920,1080,,,,,0,572,,,,,,,,,,,,,,,,,S,167,star,1,0,,,,,,,,,,,,,,,,switch,number,numSwt,k,0.8105,Hi,,,,,,0,,,,,,,,high,19,0,19,0,1,,,,,,,,,
296509,2022-12-05_23h15.20.791,vts_reward_expectancy_bt,2022.2.4,Win32,60.03842459,Chrome,1920,1080,,,,,1,573,,,,,,,,,,,,,,,,,W,139,circle,1,0,,,,,,,,,,,,,,,,switch,letter,lettSwt,f,0.8835,Lo,,,,,,0,,,,,,,,high,20,0,20,0,1,,,,,,,,,
296509,2022-12-05_23h15.20.791,vts_reward_expectancy_bt,2022.2.4,Win32,60.03842459,Chrome,1920,1080,,,,,10,583,,,,,,,,,,,,,,,,,D,132,star,1,0,,,,,,,,,,,,,,,,switch,number,numSwt,j,0.7073,Hi,,,,,,0,,,,,,,,high,21,0,21,0,1,,,,,,,,,
296509,2022-12-05_23h15.20.791,vts_reward_expectancy_bt,2022.2.4,Win32,60.03842459,Chrome,1920,1080,,,,,10,593,,,,,,,,,,,,,,,,,F,174,triangle,1,0,,,,,,,,,,,,,,,,repeat,number,numRpt,k,0.7559,Hi,,,,,,0,,,,,,,,high,22,0,22,0,1,,,,,,,,,
296509,2022-12-05_23h15.20.791,vts_reward_expectancy_bt,2022.2.4,Win32,60.03842459,Chrome,1920,1080,,,,,10,603,,,,,,,,,,,,,,,,,B,160,hexagon,1,0,,,,,,,,,,,,,,,,repeat,number,numRpt,k,1.3161,Lo,,,,,,0,,,,,,,,high,23,0,23,0,1,,,,,,,,,
296509,2022-12-05_23h15.20.791,vts_reward_expectancy_bt,2022.2.4,Win32,60.03842459,Chrome,1920,1080,,,,,10,613,,,,,,,,,,,,,,,,,U,132,star,1,0,,,,,,,,,,,,,,,,switch,letter,lettSwt,f,0.9669,Hi,,,,,,0,,,,,,,,high,24,0,24,0,1,,,,,,,,,
296509,2022-12-05_23h15.20.791,vts_reward_expectancy_bt,2022.2.4,Win32,60.03842459,Chrome,1920,1080,,,,,1,614,,,,,,,,,,,,,,,,,S,160,hexagon,1,0,,,,,,,,,,,,,,,,switch,number,numSwt,k,0.638,Lo,,,,,,0,,,,,,,,high,25,0,25,0,1,,,,,,,,,
296509,2022-12-05_23h15.20.791,vts_reward_expectancy_bt,2022.2.4,Win32,60.03842459,Chrome,1920,1080,,,,,0,614,,,,,,,,,,,,,,,,,Y,167,triangle,1,0,,,,,,,,,,,,,,,,repeat,number,numRpt,k,1.1028,Hi,,,,,,0,,,,,,,,high,26,0,26,0,1,,,,,,,,,
296509,2022-12-05_23h15.20.791,vts_reward_expectancy_bt,2022.2.4,Win32,60.03842459,Chrome,1920,1080,,,,,10,624,,,,,,,,,,,,,,,,,W,139,circle,1,0,,,,,,,,,,,,,,,,switch,letter,lettSwt,f,0.6836,Lo,,,,,,0,,,,,,,,high,27,0,27,0,1,,,,,,,,,
296509,2022-12-05_23h15.20.791,vts_reward_expectancy_bt,2022.2.4,Win32,60.03842459,Chrome,1920,1080,,,,,10,634,,,,,,,,,,,,,,,,,B,181,hexagon,1,0,,,,,,,,,,,,,,,,repeat,letter,lettRpt,d,0.6508,Lo,,,,,,0,,,,,,,,high,28,0,28,0,1,,,,,,,,,
296509,2022-12-05_23h15.20.791,vts_reward_expectancy_bt,2022.2.4,Win32,60.03842459,Chrome,1920,1080,,,,,0,634,,,,,,,,,,,,,,,,,F,146,triangle,1,0,,,,,,,,,,,,,,,,repeat,letter,lettRpt,d,1.3226,Hi,,,,,,0,,,,,,,,high,29,0,29,0,1,,,,,,,,,
296509,2022-12-05_23h15.20.791,vts_reward_expectancy_bt,2022.2.4,Win32,60.03842459,Chrome,1920,1080,,,,,1,635,,,,,,,,,,,,,,,,,H,174,circle,1,0,,,,,,,,,,,,,,,,repeat,letter,lettRpt,d,1.0261,Lo,,,,,,0,,,,,,,,high,30,0,30,0,1,,,,,,,,,
296509,2022-12-05_23h15.20.791,vts_reward_expectancy_bt,2022.2.4,Win32,60.03842459,Chrome,1920,1080,,,,,10,645,,,,,,,,,,,,,,,,,D,125,star,1,0,,,,,,,,,,,,,,,,repeat,letter,lettRpt,d,0.6332,Hi,,,,,,0,,,,,,,,high,31,0,31,0,1,,,,,,,,,
296509,2022-12-05_23h15.20.791,vts_reward_expectancy_bt,2022.2.4,Win32,60.03842459,Chrome,1920,1080,,,,,1,646,,,,,,,,,,,,,,,,,H,132,circle,1,0,,,,,,,,,,,,,,,,repeat,letter,lettRpt,d,0.7767,Lo,,,,,,1,,,,,,space,3.9795,high,0,0,0,0,1,,,,,,,,,
296509,2022-12-05_23h15.20.791,vts_reward_expectancy_bt,2022.2.4,Win32,60.03842459,Chrome,1920,1080,,,,,0,646,,,,,,,,,,,,,,,,,W,139,star,1,0,,,,,,,,,,,,,,,,repeat,letter,lettRpt,f,1.0451,Hi,,,,,,1,,,,,,,,high,1,0,1,0,1,,,,,,,,,
296509,2022-12-05_23h15.20.791,vts_reward_expectancy_bt,2022.2.4,Win32,60.03842459,Chrome,1920,1080,,,,,10,656,,,,,,,,,,,,,,,,,B,125,triangle,1,0,,,,,,,,,,,,,,,,repeat,letter,lettRpt,d,0.5671,Hi,,,,,,1,,,,,,,,high,2,0,2,0,1,,,,,,,,,
296509,2022-12-05_23h15.20.791,vts_reward_expectancy_bt,2022.2.4,Win32,60.03842459,Chrome,1920,1080,,,,,1,657,,,,,,,,,,,,,,,,,S,181,hexagon,1,0,,,,,,,,,,,,,,,,repeat,letter,lettRpt,f,0.9079,Lo,,,,,,1,,,,,,,,high,3,0,3,0,1,,,,,,,,,
296509,2022-12-05_23h15.20.791,vts_reward_expectancy_bt,2022.2.4,Win32,60.03842459,Chrome,1920,1080,,,,,10,667,,,,,,,,,,,,,,,,,Y,146,circle,1,0,,,,,,,,,,,,,,,,switch,number,numSwt,j,0.8746,Lo,,,,,,1,,,,,,,,high,4,0,4,0,1,,,,,,,,,
296509,2022-12-05_23h15.20.791,vts_reward_expectancy_bt,2022.2.4,Win32,60.03842459,Chrome,1920,1080,,,,,10,677,,,,,,,,,,,,,,,,,F,167,star,1,0,,,,,,,,,,,,,,,,repeat,number,numRpt,k,0.6731,Hi,,,,,,1,,,,,,,,high,5,0,5,0,1,,,,,,,,,
296509,2022-12-05_23h15.20.791,vts_reward_expectancy_bt,2022.2.4,Win32,60.03842459,Chrome,1920,1080,,,,,0,677,,,,,,,,,,,,,,,,,D,160,triangle,1,0,,,,,,,,,,,,,,,,repeat,number,numRpt,k,1.266,Hi,,,,,,1,,,,,,,,high,6,0,6,0,1,,,,,,,,,
296509,2022-12-05_23h15.20.791,vts_reward_expectancy_bt,2022.2.4,Win32,60.03842459,Chrome,1920,1080,,,,,1,678,,,,,,,,,,,,,,,,,U,174,hexagon,1,0,,,,,,,,,,,,,,,,switch,letter,lettSwt,f,0.9017,Lo,,,,,,1,,,,,,,,high,7,0,7,0,1,,,,,,,,,
296509,2022-12-05_23h15.20.791,vts_reward_expectancy_bt,2022.2.4,Win32,60.03842459,Chrome,1920,1080,,,,,1,679,,,,,,,,,,,,,,,,,H,132,hexagon,1,0,,,,,,,,,,,,,,,,switch,number,numSwt,j,0.8391,Lo,,,,,,1,,,,,,,,high,8,0,8,0,1,,,,,,,,,
296509,2022-12-05_23h15.20.791,vts_reward_expectancy_bt,2022.2.4,Win32,60.03842459,Chrome,1920,1080,,,,,1,680,,,,,,,,,,,,,,,,,W,139,circle,1,0,,,,,,,,,,,,,,,,switch,letter,lettSwt,f,0.8166,Lo,,,,,,1,,,,,,,,high,9,0,9,0,1,,,,,,,,,
296509,2022-12-05_23h15.20.791,vts_reward_expectancy_bt,2022.2.4,Win32,60.03842459,Chrome,1920,1080,,,,,10,690,,,,,,,,,,,,,,,,,B,125,triangle,1,0,,,,,,,,,,,,,,,,repeat,letter,lettRpt,d,0.8522,Hi,,,,,,1,,,,,,,,high,10,0,10,0,1,,,,,,,,,
296509,2022-12-05_23h15.20.791,vts_reward_expectancy_bt,2022.2.4,Win32,60.03842459,Chrome,1920,1080,,,,,0,690,,,,,,,,,,,,,,,,,S,181,star,0,0,,,,,,,,,,,,,,,,repeat,letter,NA,d,1.1505,Hi,,,,,,1,,,,,,,,high,11,0,11,0,1,,,,,,,,,
296509,2022-12-05_23h15.20.791,vts_reward_expectancy_bt,2022.2.4,Win32,60.03842459,Chrome,1920,1080,,,,,10,700,,,,,,,,,,,,,,,,,Y,146,triangle,1,1,,,,,,,,,,,,,,,,repeat,letter,lettRpt,f,0.5999,Hi,,,,,,1,,,,,,,,high,12,0,12,0,1,,,,,,,,,
296509,2022-12-05_23h15.20.791,vts_reward_expectancy_bt,2022.2.4,Win32,60.03842459,Chrome,1920,1080,,,,,1,701,,,,,,,,,,,,,,,,,F,167,circle,1,0,,,,,,,,,,,,,,,,switch,number,numSwt,k,0.5511,Lo,,,,,,1,,,,,,,,high,13,0,13,0,1,,,,,,,,,
296509,2022-12-05_23h15.20.791,vts_reward_expectancy_bt,2022.2.4,Win32,60.03842459,Chrome,1920,1080,,,,,1,702,,,,,,,,,,,,,,,,,D,160,hexagon,1,0,,,,,,,,,,,,,,,,repeat,number,numRpt,k,0.8051,Lo,,,,,,1,,,,,,,,high,14,0,14,0,1,,,,,,,,,
296509,2022-12-05_23h15.20.791,vts_reward_expectancy_bt,2022.2.4,Win32,60.03842459,Chrome,1920,1080,,,,,10,712,,,,,,,,,,,,,,,,,U,174,star,1,0,,,,,,,,,,,,,,,,repeat,number,numRpt,k,0.6167,Hi,,,,,,1,,,,,,,,high,15,0,15,0,1,,,,,,,,,
296509,2022-12-05_23h15.20.791,vts_reward_expectancy_bt,2022.2.4,Win32,60.03842459,Chrome,1920,1080,,,,,10,722,,,,,,,,,,,,,,,,,B,139,triangle,1,0,,,,,,,,,,,,,,,,switch,letter,lettSwt,d,0.6058,Hi,,,,,,1,,,,,,,,high,16,0,16,0,1,,,,,,,,,
296509,2022-12-05_23h15.20.791,vts_reward_expectancy_bt,2022.2.4,Win32,60.03842459,Chrome,1920,1080,,,,,1,723,,,,,,,,,,,,,,,,,Y,181,hexagon,1,0,,,,,,,,,,,,,,,,repeat,letter,lettRpt,f,0.7512,Lo,,,,,,1,,,,,,,,high,17,0,17,0,1,,,,,,,,,
296509,2022-12-05_23h15.20.791,vts_reward_expectancy_bt,2022.2.4,Win32,60.03842459,Chrome,1920,1080,,,,,1,724,,,,,,,,,,,,,,,,,D,125,circle,1,0,,,,,,,,,,,,,,,,repeat,letter,lettRpt,d,0.672,Lo,,,,,,1,,,,,,,,high,18,0,18,0,1,,,,,,,,,
296509,2022-12-05_23h15.20.791,vts_reward_expectancy_bt,2022.2.4,Win32,60.03842459,Chrome,1920,1080,,,,,10,734,,,,,,,,,,,,,,,,,W,167,star,1,0,,,,,,,,,,,,,,,,repeat,letter,lettRpt,f,0.8354,Hi,,,,,,1,,,,,,,,high,19,0,19,0,1,,,,,,,,,
296509,2022-12-05_23h15.20.791,vts_reward_expectancy_bt,2022.2.4,Win32,60.03842459,Chrome,1920,1080,,,,,0,734,,,,,,,,,,,,,,,,,S,160,star,0,0,,,,,,,,,,,,,,,,repeat,letter,NA,d,1.2037,Hi,,,,,,1,,,,,,,,high,20,0,20,0,1,,,,,,,,,
296509,2022-12-05_23h15.20.791,vts_reward_expectancy_bt,2022.2.4,Win32,60.03842459,Chrome,1920,1080,,,,,1,735,,,,,,,,,,,,,,,,,F,132,circle,1,1,,,,,,,,,,,,,,,,switch,number,numSwt,j,0.7835,Lo,,,,,,1,,,,,,,,high,21,0,21,0,1,,,,,,,,,
296509,2022-12-05_23h15.20.791,vts_reward_expectancy_bt,2022.2.4,Win32,60.03842459,Chrome,1920,1080,,,,,0,735,,,,,,,,,,,,,,,,,U,146,triangle,1,0,,,,,,,,,,,,,,,,repeat,number,numRpt,j,0.8085,Hi,,,,,,1,,,,,,,,high,22,0,22,0,1,,,,,,,,,
296509,2022-12-05_23h15.20.791,vts_reward_expectancy_bt,2022.2.4,Win32,60.03842459,Chrome,1920,1080,,,,,1,736,,,,,,,,,,,,,,,,,H,174,hexagon,1,0,,,,,,,,,,,,,,,,repeat,number,numRpt,k,0.6665,Lo,,,,,,1,,,,,,,,high,23,0,23,0,1,,,,,,,,,
296509,2022-12-05_23h15.20.791,vts_reward_expectancy_bt,2022.2.4,Win32,60.03842459,Chrome,1920,1080,,,,,10,746,,,,,,,,,,,,,,,,,F,160,hexagon,1,0,,,,,,,,,,,,,,,,switch,letter,lettSwt,d,0.9128,Lo,,,,,,1,,,,,,,,high,24,0,24,0,1,,,,,,,,,
296509,2022-12-05_23h15.20.791,vts_reward_expectancy_bt,2022.2.4,Win32,60.03842459,Chrome,1920,1080,,,,,10,756,,,,,,,,,,,,,,,,,Y,181,triangle,1,0,,,,,,,,,,,,,,,,repeat,letter,lettRpt,f,0.7207,Hi,,,,,,1,,,,,,,,high,25,0,25,0,1,,,,,,,,,
296509,2022-12-05_23h15.20.791,vts_reward_expectancy_bt,2022.2.4,Win32,60.03842459,Chrome,1920,1080,,,,,10,766,,,,,,,,,,,,,,,,,U,146,star,1,0,,,,,,,,,,,,,,,,repeat,letter,lettRpt,f,0.8912,Hi,,,,,,1,,,,,,,,high,26,0,26,0,1,,,,,,,,,
296509,2022-12-05_23h15.20.791,vts_reward_expectancy_bt,2022.2.4,Win32,60.03842459,Chrome,1920,1080,,,,,1,767,,,,,,,,,,,,,,,,,D,132,circle,1,0,,,,,,,,,,,,,,,,switch,number,numSwt,j,0.6504,Lo,,,,,,1,,,,,,,,high,27,0,27,0,1,,,,,,,,,
296509,2022-12-05_23h15.20.791,vts_reward_expectancy_bt,2022.2.4,Win32,60.03842459,Chrome,1920,1080,,,,,10,777,,,,,,,,,,,,,,,,,B,125,triangle,1,0,,,,,,,,,,,,,,,,switch,letter,lettSwt,d,0.5994,Hi,,,,,,1,,,,,,,,high,28,0,28,0,1,,,,,,,,,
296509,2022-12-05_23h15.20.791,vts_reward_expectancy_bt,2022.2.4,Win32,60.03842459,Chrome,1920,1080,,,,,1,778,,,,,,,,,,,,,,,,,S,174,star,1,0,,,,,,,,,,,,,,,,switch,number,numSwt,k,0.5496,Hi,,,,,,1,,,,,,,,high,29,0,29,0,1,,,,,,,,,
296509,2022-12-05_23h15.20.791,vts_reward_expectancy_bt,2022.2.4,Win32,60.03842459,Chrome,1920,1080,,,,,1,779,,,,,,,,,,,,,,,,,W,167,hexagon,1,0,,,,,,,,,,,,,,,,switch,letter,lettSwt,f,0.8399,Lo,,,,,,1,,,,,,,,high,30,0,30,0,1,,,,,,,,,
296509,2022-12-05_23h15.20.791,vts_reward_expectancy_bt,2022.2.4,Win32,60.03842459,Chrome,1920,1080,,,,,1,780,,,,,,,,,,,,,,,,,H,139,circle,1,0,,,,,,,,,,,,,,,,switch,number,numSwt,j,0.6496,Lo,,,,,,1,,,,,,,,high,31,0,31,0,1,,,,,,,,,
296509,2022-12-05_23h15.20.791,vts_reward_expectancy_bt,2022.2.4,Win32,60.03842459,Chrome,1920,1080,,,,,0,780,,,,,,,,,,,,,,,,,D,146,triangle,1,0,,,,,,,,,,,,,,,,switch,letter,lettSwt,d,0.7922,Hi,,,,,,2,,,,,,space,0.8747,high,0,0,0,0,1,,,,,,,,,
296509,2022-12-05_23h15.20.791,vts_reward_expectancy_bt,2022.2.4,Win32,60.03842459,Chrome,1920,1080,,,,,1,781,,,,,,,,,,,,,,,,,Y,160,hexagon,1,0,,,,,,,,,,,,,,,,repeat,letter,lettRpt,f,0.8554,Lo,,,,,,2,,,,,,,,high,1,0,1,0,1,,,,,,,,,
296509,2022-12-05_23h15.20.791,vts_reward_expectancy_bt,2022.2.4,Win32,60.03842459,Chrome,1920,1080,,,,,0,781,,,,,,,,,,,,,,,,,S,125,circle,0,0,,,,,,,,,,,,,,,,repeat,letter,NA,d,0.7749,Lo,,,,,,2,,,,,,,,high,2,0,2,0,1,,,,,,,,,
296509,2022-12-05_23h15.20.791,vts_reward_expectancy_bt,2022.2.4,Win32,60.03842459,Chrome,1920,1080,,,,,1,782,,,,,,,,,,,,,,,,,B,139,star,1,1,,,,,,,,,,,,,,,,repeat,letter,lettRpt,d,0.6329,Hi,,,,,,2,,,,,,,,high,3,0,3,0,1,,,,,,,,,
296509,2022-12-05_23h15.20.791,vts_reward_expectancy_bt,2022.2.4,Win32,60.03842459,Chrome,1920,1080,,,,,1,783,,,,,,,,,,,,,,,,,W,174,triangle,1,0,,,,,,,,,,,,,,,,repeat,letter,lettRpt,f,0.6514,Hi,,,,,,2,,,,,,,,high,4,0,4,0,1,,,,,,,,,
296509,2022-12-05_23h15.20.791,vts_reward_expectancy_bt,2022.2.4,Win32,60.03842459,Chrome,1920,1080,,,,,1,784,,,,,,,,,,,,,,,,,U,181,hexagon,1,0,,,,,,,,,,,,,,,,switch,number,numSwt,k,0.5995,Lo,,,,,,2,,,,,,,,high,5,0,5,0,1,,,,,,,,,
296509,2022-12-05_23h15.20.791,vts_reward_expectancy_bt,2022.2.4,Win32,60.03842459,Chrome,1920,1080,,,,,0,784,,,,,,,,,,,,,,,,,F,167,circle,0,0,,,,,,,,,,,,,,,,switch,letter,NA,f,0.9497,Lo,,,,,,2,,,,,,,,high,6,0,6,0,1,,,,,,,,,
296509,2022-12-05_23h15.20.791,vts_reward_expectancy_bt,2022.2.4,Win32,60.03842459,Chrome,1920,1080,,,,,0,784,,,,,,,,,,,,,,,,,H,132,star,1,1,,,,,,,,,,,,,,,,switch,number,numSwt,j,0.6912,Hi,,,,,,2,,,,,,,,high,7,0,7,0,1,,,,,,,,,
296509,2022-12-05_23h15.20.791,vts_reward_expectancy_bt,2022.2.4,Win32,60.03842459,Chrome,1920,1080,,,,,1,785,,,,,,,,,,,,,,,,,D,146,circle,1,0,,,,,,,,,,,,,,,,repeat,number,numRpt,j,0.6259,Lo,,,,,,2,,,,,,,,high,8,0,8,0,1,,,,,,,,,
296509,2022-12-05_23h15.20.791,vts_reward_expectancy_bt,2022.2.4,Win32,60.03842459,Chrome,1920,1080,,,,,1,786,,,,,,,,,,,,,,,,,Y,160,hexagon,1,0,,,,,,,,,,,,,,,,switch,letter,lettSwt,f,0.7344,Lo,,,,,,2,,,,,,,,high,9,0,9,0,1,,,,,,,,,
296509,2022-12-05_23h15.20.791,vts_reward_expectancy_bt,2022.2.4,Win32,60.03842459,Chrome,1920,1080,,,,,0,786,,,,,,,,,,,,,,,,,S,125,star,0,0,,,,,,,,,,,,,,,,repeat,letter,NA,d,1.118,Lo,,,,,,2,,,,,,,,high,10,0,10,0,1,,,,,,,,,
296509,2022-12-05_23h15.20.791,vts_reward_expectancy_bt,2022.2.4,Win32,60.03842459,Chrome,1920,1080,,,,,10,796,,,,,,,,,,,,,,,,,B,139,triangle,1,1,,,,,,,,,,,,,,,,repeat,letter,lettRpt,d,0.5862,Hi,,,,,,2,,,,,,,,high,11,0,11,0,1,,,,,,,,,
296509,2022-12-05_23h15.20.791,vts_reward_expectancy_bt,2022.2.4,Win32,60.03842459,Chrome,1920,1080,,,,,10,806,,,,,,,,,,,,,,,,,W,174,circle,1,0,,,,,,,,,,,,,,,,repeat,letter,lettRpt,f,0.6004,Lo,,,,,,2,,,,,,,,high,12,0,12,0,1,,,,,,,,,
296509,2022-12-05_23h15.20.791,vts_reward_expectancy_bt,2022.2.4,Win32,60.03842459,Chrome,1920,1080,,,,,0,806,,,,,,,,,,,,,,,,,U,181,star,1,0,,,,,,,,,,,,,,,,repeat,letter,lettRpt,f,0.8496,Hi,,,,,,2,,,,,,,,high,13,0,13,0,1,,,,,,,,,
296509,2022-12-05_23h15.20.791,vts_reward_expectancy_bt,2022.2.4,Win32,60.03842459,Chrome,1920,1080,,,,,0,806,,,,,,,,,,,,,,,,,F,167,hexagon,0,0,,,,,,,,,,,,,,,,repeat,letter,NA,f,0.7269,Hi,,,,,,2,,,,,,,,high,14,0,14,0,1,,,,,,,,,
296509,2022-12-05_23h15.20.791,vts_reward_expectancy_bt,2022.2.4,Win32,60.03842459,Chrome,1920,1080,,,,,10,816,,,,,,,,,,,,,,,,,H,132,triangle,1,1,,,,,,,,,,,,,,,,switch,number,numSwt,j,0.6329,Hi,,,,,,2,,,,,,,,high,15,0,15,0,1,,,,,,,,,
296509,2022-12-05_23h15.20.791,vts_reward_expectancy_bt,2022.2.4,Win32,60.03842459,Chrome,1920,1080,,,,,0,816,,,,,,,,,,,,,,,,,F,139,star,1,0,,,,,,,,,,,,,,,,repeat,number,numRpt,j,0.7004,Hi,,,,,,2,,,,,,,,high,16,0,16,0,1,,,,,,,,,
296509,2022-12-05_23h15.20.791,vts_reward_expectancy_bt,2022.2.4,Win32,60.03842459,Chrome,1920,1080,,,,,0,816,,,,,,,,,,,,,,,,,Y,146,triangle,1,0,,,,,,,,,,,,,,,,repeat,number,numRpt,j,0.7417,Hi,,,,,,2,,,,,,,,high,17,0,17,0,1,,,,,,,,,
296509,2022-12-05_23h15.20.791,vts_reward_expectancy_bt,2022.2.4,Win32,60.03842459,Chrome,1920,1080,,,,,10,826,,,,,,,,,,,,,,,,,B,174,hexagon,1,0,,,,,,,,,,,,,,,,switch,letter,lettSwt,d,0.7053,Lo,,,,,,2,,,,,,,,high,18,0,18,0,1,,,,,,,,,
296509,2022-12-05_23h15.20.791,vts_reward_expectancy_bt,2022.2.4,Win32,60.03842459,Chrome,1920,1080,,,,,1,827,,,,,,,,,,,,,,,,,U,132,circle,1,0,,,,,,,,,,,,,,,,repeat,letter,lettRpt,f,0.7381,Lo,,,,,,2,,,,,,,,high,19,0,19,0,1,,,,,,,,,
296509,2022-12-05_23h15.20.791,vts_reward_expectancy_bt,2022.2.4,Win32,60.03842459,Chrome,1920,1080,,,,,10,837,,,,,,,,,,,,,,,,,W,181,star,1,0,,,,,,,,,,,,,,,,switch,number,numSwt,k,0.5415,Hi,,,,,,2,,,,,,,,high,20,0,20,0,1,,,,,,,,,
296509,2022-12-05_23h15.20.791,vts_reward_expectancy_bt,2022.2.4,Win32,60.03842459,Chrome,1920,1080,,,,,10,847,,,,,,,,,,,,,,,,,D,167,hexagon,1,0,,,,,,,,,,,,,,,,repeat,number,numRpt,k,0.6,Lo,,,,,,2,,,,,,,,high,21,0,21,0,1,,,,,,,,,
296509,2022-12-05_23h15.20.791,vts_reward_expectancy_bt,2022.2.4,Win32,60.03842459,Chrome,1920,1080,,,,,10,857,,,,,,,,,,,,,,,,,H,125,triangle,1,0,,,,,,,,,,,,,,,,repeat,number,numRpt,j,0.6113,Hi,,,,,,2,,,,,,,,high,22,0,22,0,1,,,,,,,,,
296509,2022-12-05_23h15.20.791,vts_reward_expectancy_bt,2022.2.4,Win32,60.03842459,Chrome,1920,1080,,,,,1,858,,,,,,,,,,,,,,,,,S,160,circle,1,0,,,,,,,,,,,,,,,,switch,letter,lettSwt,f,1.0364,Lo,,,,,,2,,,,,,,,high,23,0,23,0,1,,,,,,,,,
296509,2022-12-05_23h15.20.791,vts_reward_expectancy_bt,2022.2.4,Win32,60.03842459,Chrome,1920,1080,,,,,10,868,,,,,,,,,,,,,,,,,W,146,star,1,0,,,,,,,,,,,,,,,,repeat,letter,lettRpt,f,0.7164,Hi,,,,,,2,,,,,,,,high,24,0,24,0,1,,,,,,,,,
296509,2022-12-05_23h15.20.791,vts_reward_expectancy_bt,2022.2.4,Win32,60.03842459,Chrome,1920,1080,,,,,10,878,,,,,,,,,,,,,,,,,S,160,hexagon,1,0,,,,,,,,,,,,,,,,repeat,letter,lettRpt,f,0.9835,Lo,,,,,,2,,,,,,,,high,25,0,25,0,1,,,,,,,,,
296509,2022-12-05_23h15.20.791,vts_reward_expectancy_bt,2022.2.4,Win32,60.03842459,Chrome,1920,1080,,,,,0,878,,,,,,,,,,,,,,,,,H,181,circle,0,0,,,,,,,,,,,,,,,,repeat,letter,NA,f,1.3668,Lo,,,,,,2,,,,,,,,high,26,0,26,0,1,,,,,,,,,
296509,2022-12-05_23h15.20.791,vts_reward_expectancy_bt,2022.2.4,Win32,60.03842459,Chrome,1920,1080,,,,,10,888,,,,,,,,,,,,,,,,,Y,174,triangle,1,1,,,,,,,,,,,,,,,,switch,number,numSwt,k,0.6163,Hi,,,,,,2,,,,,,,,high,27,0,27,0,1,,,,,,,,,
296509,2022-12-05_23h15.20.791,vts_reward_expectancy_bt,2022.2.4,Win32,60.03842459,Chrome,1920,1080,,,,,1,889,,,,,,,,,,,,,,,,,B,139,star,1,0,,,,,,,,,,,,,,,,repeat,number,numRpt,j,0.5173,Hi,,,,,,2,,,,,,,,high,28,0,28,0,1,,,,,,,,,
296509,2022-12-05_23h15.20.791,vts_reward_expectancy_bt,2022.2.4,Win32,60.03842459,Chrome,1920,1080,,,,,1,890,,,,,,,,,,,,,,,,,D,167,circle,1,0,,,,,,,,,,,,,,,,switch,letter,lettSwt,d,0.8073,Lo,,,,,,2,,,,,,,,high,29,0,29,0,1,,,,,,,,,
296509,2022-12-05_23h15.20.791,vts_reward_expectancy_bt,2022.2.4,Win32,60.03842459,Chrome,1920,1080,,,,,0,890,,,,,,,,,,,,,,,,,F,125,triangle,1,0,,,,,,,,,,,,,,,,switch,number,numSwt,j,0.6694,Hi,,,,,,2,,,,,,,,high,30,0,30,0,1,,,,,,,,,
296509,2022-12-05_23h15.20.791,vts_reward_expectancy_bt,2022.2.4,Win32,60.03842459,Chrome,1920,1080,,,,,1,891,,,,,,,,,,,,,,,,,U,132,hexagon,1,0,,,,,,,,,,,,,,,,repeat,number,numRpt,j,0.767,Lo,,,,,,2,,,,,,,,high,31,0,31,0,1,,,,,,,,,
296509,2022-12-05_23h15.20.791,vts_reward_expectancy_bt,2022.2.4,Win32,60.03842459,Chrome,1920,1080,,,,,0,891,,,,,,,,,,,,,,,,,B,160,star,1,0,,,,,,,,,,,,,,,,repeat,number,numRpt,k,0.9064,Hi,,,,,,3,,,,,,space,3.2837,high,0,0,0,0,1,,,,,,,,,
296509,2022-12-05_23h15.20.791,vts_reward_expectancy_bt,2022.2.4,Win32,60.03842459,Chrome,1920,1080,,,,,0,891,,,,,,,,,,,,,,,,,U,132,triangle,1,0,,,,,,,,,,,,,,,,repeat,number,numRpt,j,0.762,Hi,,,,,,3,,,,,,,,high,1,0,1,0,1,,,,,,,,,
296509,2022-12-05_23h15.20.791,vts_reward_expectancy_bt,2022.2.4,Win32,60.03842459,Chrome,1920,1080,,,,,1,892,,,,,,,,,,,,,,,,,D,174,hexagon,1,0,,,,,,,,,,,,,,,,switch,letter,lettSwt,d,0.6003,Lo,,,,,,3,,,,,,,,high,2,0,2,0,1,,,,,,,,,
296509,2022-12-05_23h15.20.791,vts_reward_expectancy_bt,2022.2.4,Win32,60.03842459,Chrome,1920,1080,,,,,1,893,,,,,,,,,,,,,,,,,S,125,circle,1,0,,,,,,,,,,,,,,,,repeat,letter,lettRpt,f,0.6358,Lo,,,,,,3,,,,,,,,high,3,0,3,0,1,,,,,,,,,
296509,2022-12-05_23h15.20.791,vts_reward_expectancy_bt,2022.2.4,Win32,60.03842459,Chrome,1920,1080,,,,,0,893,,,,,,,,,,,,,,,,,F,167,star,1,0,,,,,,,,,,,,,,,,repeat,letter,lettRpt,d,0.7329,Hi,,,,,,3,,,,,,,,high,4,0,4,0,1,,,,,,,,,
296509,2022-12-05_23h15.20.791,vts_reward_expectancy_bt,2022.2.4,Win32,60.03842459,Chrome,1920,1080,,,,,10,903,,,,,,,,,,,,,,,,,Y,139,triangle,1,0,,,,,,,,,,,,,,,,switch,number,numSwt,j,0.5522,Hi,,,,,,3,,,,,,,,high,5,0,5,0,1,,,,,,,,,
296509,2022-12-05_23h15.20.791,vts_reward_expectancy_bt,2022.2.4,Win32,60.03842459,Chrome,1920,1080,,,,,1,904,,,,,,,,,,,,,,,,,H,146,hexagon,1,0,,,,,,,,,,,,,,,,repeat,number,numRpt,j,0.7918,Lo,,,,,,3,,,,,,,,high,6,0,6,0,1,,,,,,,,,
296509,2022-12-05_23h15.20.791,vts_reward_expectancy_bt,2022.2.4,Win32,60.03842459,Chrome,1920,1080,,,,,1,905,,,,,,,,,,,,,,,,,W,181,circle,1,0,,,,,,,,,,,,,,,,repeat,number,numRpt,k,0.4535,Lo,,,,,,3,,,,,,,,high,7,0,7,0,1,,,,,,,,,
296509,2022-12-05_23h15.20.791,vts_reward_expectancy_bt,2022.2.4,Win32,60.03842459,Chrome,1920,1080,,,,,1,906,,,,,,,,,,,,,,,,,B,160,hexagon,1,0,,,,,,,,,,,,,,,,switch,letter,lettSwt,d,0.583,Lo,,,,,,3,,,,,,,,high,8,0,8,0,1,,,,,,,,,
296509,2022-12-05_23h15.20.791,vts_reward_expectancy_bt,2022.2.4,Win32,60.03842459,Chrome,1920,1080,,,,,1,907,,,,,,,,,,,,,,,,,U,132,circle,1,0,,,,,,,,,,,,,,,,repeat,letter,lettRpt,f,0.733,Lo,,,,,,3,,,,,,,,high,9,0,9,0,1,,,,,,,,,
296509,2022-12-05_23h15.20.791,vts_reward_expectancy_bt,2022.2.4,Win32,60.03842459,Chrome,1920,1080,,,,,0,907,,,,,,,,,,,,,,,,,D,174,triangle,1,0,,,,,,,,,,,,,,,,switch,number,numSwt,k,0.9601,Hi,,,,,,3,,,,,,,,high,10,0,10,0,1,,,,,,,,,
296509,2022-12-05_23h15.20.791,vts_reward_expectancy_bt,2022.2.4,Win32,60.03842459,Chrome,1920,1080,,,,,0,907,,,,,,,,,,,,,,,,,S,125,star,1,0,,,,,,,,,,,,,,,,switch,letter,lettSwt,f,0.8017,Hi,,,,,,3,,,,,,,,high,11,0,11,0,1,,,,,,,,,
296509,2022-12-05_23h15.20.791,vts_reward_expectancy_bt,2022.2.4,Win32,60.03842459,Chrome,1920,1080,,,,,10,917,,,,,,,,,,,,,,,,,F,167,star,1,0,,,,,,,,,,,,,,,,switch,number,numSwt,k,0.6027,Hi,,,,,,3,,,,,,,,high,12,0,12,0,1,,,,,,,,,
296509,2022-12-05_23h15.20.791,vts_reward_expectancy_bt,2022.2.4,Win32,60.03842459,Chrome,1920,1080,,,,,1,918,,,,,,,,,,,,,,,,,Y,139,hexagon,1,0,,,,,,,,,,,,,,,,repeat,number,numRpt,j,0.55,Lo,,,,,,3,,,,,,,,high,13,0,13,0,1,,,,,,,,,
296509,2022-12-05_23h15.20.791,vts_reward_expectancy_bt,2022.2.4,Win32,60.03842459,Chrome,1920,1080,,,,,1,919,,,,,,,,,,,,,,,,,H,146,circle,1,0,,,,,,,,,,,,,,,,switch,letter,lettSwt,d,0.7006,Lo,,,,,,3,,,,,,,,high,14,0,14,0,1,,,,,,,,,
296509,2022-12-05_23h15.20.791,vts_reward_expectancy_bt,2022.2.4,Win32,60.03842459,Chrome,1920,1080,,,,,10,929,,,,,,,,,,,,,,,,,W,181,triangle,1,0,,,,,,,,,,,,,,,,repeat,letter,lettRpt,f,0.5174,Hi,,,,,,3,,,,,,,,high,15,0,15,0,1,,,,,,,,,
296509,2022-12-05_23h15.20.791,vts_reward_expectancy_bt,2022.2.4,Win32,60.03842459,Chrome,1920,1080,,,,,0,929,,,,,,,,,,,,,,,,,S,174,triangle,0,0,,,,,,,,,,,,,,,,repeat,letter,NA,d,0.5859,Hi,,,,,,3,,,,,,,,high,16,0,16,0,1,,,,,,,,,
296509,2022-12-05_23h15.20.791,vts_reward_expectancy_bt,2022.2.4,Win32,60.03842459,Chrome,1920,1080,,,,,1,930,,,,,,,,,,,,,,,,,H,167,circle,1,1,,,,,,,,,,,,,,,,switch,number,numSwt,k,0.5936,Lo,,,,,,3,,,,,,,,high,17,0,17,0,1,,,,,,,,,
296509,2022-12-05_23h15.20.791,vts_reward_expectancy_bt,2022.2.4,Win32,60.03842459,Chrome,1920,1080,,,,,1,931,,,,,,,,,,,,,,,,,U,160,hexagon,1,0,,,,,,,,,,,,,,,,switch,letter,lettSwt,f,0.6711,Lo,,,,,,3,,,,,,,,high,18,0,18,0,1,,,,,,,,,
296509,2022-12-05_23h15.20.791,vts_reward_expectancy_bt,2022.2.4,Win32,60.03842459,Chrome,1920,1080,,,,,0,931,,,,,,,,,,,,,,,,,B,181,star,1,0,,,,,,,,,,,,,,,,switch,number,numSwt,k,0.772,Hi,,,,,,3,,,,,,,,high,19,0,19,0,1,,,,,,,,,
296509,2022-12-05_23h15.20.791,vts_reward_expectancy_bt,2022.2.4,Win32,60.03842459,Chrome,1920,1080,,,,,1,932,,,,,,,,,,,,,,,,,Y,125,hexagon,1,0,,,,,,,,,,,,,,,,repeat,number,numRpt,j,0.7476,Lo,,,,,,3,,,,,,,,high,20,0,20,0,1,,,,,,,,,
296509,2022-12-05_23h15.20.791,vts_reward_expectancy_bt,2022.2.4,Win32,60.03842459,Chrome,1920,1080,,,,,0,932,,,,,,,,,,,,,,,,,W,139,star,1,0,,,,,,,,,,,,,,,,repeat,number,numRpt,j,0.8061,Hi,,,,,,3,,,,,,,,high,21,0,21,0,1,,,,,,,,,
296509,2022-12-05_23h15.20.791,vts_reward_expectancy_bt,2022.2.4,Win32,60.03842459,Chrome,1920,1080,,,,,1,933,,,,,,,,,,,,,,,,,D,132,circle,1,0,,,,,,,,,,,,,,,,repeat,number,numRpt,j,0.6504,Lo,,,,,,3,,,,,,,,high,22,0,22,0,1,,,,,,,,,
296509,2022-12-05_23h15.20.791,vts_reward_expectancy_bt,2022.2.4,Win32,60.03842459,Chrome,1920,1080,,,,,1,934,,,,,,,,,,,,,,,,,F,146,triangle,1,0,,,,,,,,,,,,,,,,switch,letter,lettSwt,d,0.5855,Hi,,,,,,3,,,,,,,,high,23,0,23,0,1,,,,,,,,,
296509,2022-12-05_23h15.20.791,vts_reward_expectancy_bt,2022.2.4,Win32,60.03842459,Chrome,1920,1080,,,,,0,934,,,,,,,,,,,,,,,,,W,181,circle,0,0,,,,,,,,,,,,,,,,repeat,letter,NA,d,0.9265,Hi,,,,,,3,,,,,,,,high,24,0,24,0,1,,,,,,,,,
296509,2022-12-05_23h15.20.791,vts_reward_expectancy_bt,2022.2.4,Win32,60.03842459,Chrome,1920,1080,,,,,1,935,,,,,,,,,,,,,,,,,U,125,hexagon,1,1,,,,,,,,,,,,,,,,repeat,letter,lettRpt,f,0.65,Lo,,,,,,3,,,,,,,,high,25,0,25,0,1,,,,,,,,,
296509,2022-12-05_23h15.20.791,vts_reward_expectancy_bt,2022.2.4,Win32,60.03842459,Chrome,1920,1080,,,,,0,935,,,,,,,,,,,,,,,,,F,146,star,1,0,,,,,,,,,,,,,,,,repeat,letter,lettRpt,d,0.9912,Hi,,,,,,3,,,,,,,,high,26,0,26,0,1,,,,,,,,,
296509,2022-12-05_23h15.20.791,vts_reward_expectancy_bt,2022.2.4,Win32,60.03842459,Chrome,1920,1080,,,,,0,935,,,,,,,,,,,,,,,,,H,174,triangle,1,0,,,,,,,,,,,,,,,,switch,number,numSwt,k,0.6382,Hi,,,,,,3,,,,,,,,high,27,0,27,0,1,,,,,,,,,
296509,2022-12-05_23h15.20.791,vts_reward_expectancy_bt,2022.2.4,Win32,60.03842459,Chrome,1920,1080,,,,,1,936,,,,,,,,,,,,,,,,,Y,132,hexagon,1,0,,,,,,,,,,,,,,,,switch,letter,lettSwt,f,0.7503,Lo,,,,,,3,,,,,,,,high,28,0,28,0,1,,,,,,,,,
296509,2022-12-05_23h15.20.791,vts_reward_expectancy_bt,2022.2.4,Win32,60.03842459,Chrome,1920,1080,,,,,0,936,,,,,,,,,,,,,,,,,S,167,circle,0,0,,,,,,,,,,,,,,,,repeat,letter,NA,d,0.9501,Lo,,,,,,3,,,,,,,,high,29,0,29,0,1,,,,,,,,,
296509,2022-12-05_23h15.20.791,vts_reward_expectancy_bt,2022.2.4,Win32,60.03842459,Chrome,1920,1080,,,,,0,936,,,,,,,,,,,,,,,,,D,160,star,1,1,,,,,,,,,,,,,,,,switch,number,numSwt,k,0.8043,Hi,,,,,,3,,,,,,,,high,30,0,30,0,1,,,,,,,,,
296509,2022-12-05_23h15.20.791,vts_reward_expectancy_bt,2022.2.4,Win32,60.03842459,Chrome,1920,1080,,,,,1,937,,,,,,,,,,,,,,,,,B,139,triangle,1,0,,,,,,,,,,,,,,,,repeat,number,numRpt,j,0.467,Hi,,,,,,3,,,,,,,,high,31,0,31,0,1,,,,,,,,,
296509,2022-12-05_23h15.20.791,vts_reward_expectancy_bt,2022.2.4,Win32,60.03842459,Chrome,1920,1080,,,,,1,938,,,,,,,,,,,,,,,,,W,181,circle,1,0,,,,,,,,,,,,,,,,repeat,number,numRpt,k,0.541,Lo,,,,,,4,,,,,,space,1.9667,high,0,0,0,0,1,,,,,,,,,
296509,2022-12-05_23h15.20.791,vts_reward_expectancy_bt,2022.2.4,Win32,60.03842459,Chrome,1920,1080,,,,,10,948,,,,,,,,,,,,,,,,,Y,132,hexagon,1,0,,,,,,,,,,,,,,,,repeat,number,numRpt,j,0.6001,Lo,,,,,,4,,,,,,,,high,1,0,1,0,1,,,,,,,,,
296509,2022-12-05_23h15.20.791,vts_reward_expectancy_bt,2022.2.4,Win32,60.03842459,Chrome,1920,1080,,,,,0,948,,,,,,,,,,,,,,,,,F,125,star,1,0,,,,,,,,,,,,,,,,switch,letter,lettSwt,d,0.8227,Hi,,,,,,4,,,,,,,,high,2,0,2,0,1,,,,,,,,,
296509,2022-12-05_23h15.20.791,vts_reward_expectancy_bt,2022.2.4,Win32,60.03842459,Chrome,1920,1080,,,,,10,958,,,,,,,,,,,,,,,,,B,139,triangle,1,0,,,,,,,,,,,,,,,,repeat,letter,lettRpt,d,0.6268,Hi,,,,,,4,,,,,,,,high,3,0,3,0,1,,,,,,,,,
296509,2022-12-05_23h15.20.791,vts_reward_expectancy_bt,2022.2.4,Win32,60.03842459,Chrome,1920,1080,,,,,1,959,,,,,,,,,,,,,,,,,U,167,circle,1,0,,,,,,,,,,,,,,,,repeat,letter,lettRpt,f,0.6499,Lo,,,,,,4,,,,,,,,high,4,0,4,0,1,,,,,,,,,
296509,2022-12-05_23h15.20.791,vts_reward_expectancy_bt,2022.2.4,Win32,60.03842459,Chrome,1920,1080,,,,,0,959,,,,,,,,,,,,,,,,,S,160,hexagon,0,0,,,,,,,,,,,,,,,,repeat,letter,NA,d,0.6336,Lo,,,,,,4,,,,,,,,high,5,0,5,0,1,,,,,,,,,
296509,2022-12-05_23h15.20.791,vts_reward_expectancy_bt,2022.2.4,Win32,60.03842459,Chrome,1920,1080,,,,,0,959,,,,,,,,,,,,,,,,,H,174,star,1,1,,,,,,,,,,,,,,,,switch,number,numSwt,k,0.6501,Hi,,,,,,4,,,,,,,,high,6,0,6,0,1,,,,,,,,,
296509,2022-12-05_23h15.20.791,vts_reward_expectancy_bt,2022.2.4,Win32,60.03842459,Chrome,1920,1080,,,,,0,959,,,,,,,,,,,,,,,,,D,146,triangle,1,0,,,,,,,,,,,,,,,,repeat,number,numRpt,j,0.7541,Hi,,,,,,4,,,,,,,,high,7,0,7,0,1,,,,,,,,,
296509,2022-12-05_23h15.20.791,vts_reward_expectancy_bt,2022.2.4,Win32,60.03842459,Chrome,1920,1080,,,,,1,960,,,,,,,,,,,,,,,,,W,181,circle,1,0,,,,,,,,,,,,,,,,repeat,number,numRpt,k,0.4163,Lo,,,,,,4,,,,,,,,high,8,0,8,0,1,,,,,,,,,
296509,2022-12-05_23h15.20.791,vts_reward_expectancy_bt,2022.2.4,Win32,60.03842459,Chrome,1920,1080,,,,,1,961,,,,,,,,,,,,,,,,,Y,132,hexagon,1,0,,,,,,,,,,,,,,,,repeat,number,numRpt,j,0.4828,Lo,,,,,,4,,,,,,,,high,9,0,9,0,1,,,,,,,,,
296509,2022-12-05_23h15.20.791,vts_reward_expectancy_bt,2022.2.4,Win32,60.03842459,Chrome,1920,1080,,,,,0,961,,,,,,,,,,,,,,,,,F,125,star,1,0,,,,,,,,,,,,,,,,switch,letter,lettSwt,d,0.895,Hi,,,,,,4,,,,,,,,high,10,0,10,0,1,,,,,,,,,
296509,2022-12-05_23h15.20.791,vts_reward_expectancy_bt,2022.2.4,Win32,60.03842459,Chrome,1920,1080,,,,,10,971,,,,,,,,,,,,,,,,,B,139,triangle,1,0,,,,,,,,,,,,,,,,repeat,letter,lettRpt,d,0.5167,Hi,,,,,,4,,,,,,,,high,11,0,11,0,1,,,,,,,,,
296509,2022-12-05_23h15.20.791,vts_reward_expectancy_bt,2022.2.4,Win32,60.03842459,Chrome,1920,1080,,,,,10,981,,,,,,,,,,,,,,,,,U,167,star,1,0,,,,,,,,,,,,,,,,repeat,letter,lettRpt,f,0.6172,Hi,,,,,,4,,,,,,,,high,12,0,12,0,1,,,,,,,,,
296509,2022-12-05_23h15.20.791,vts_reward_expectancy_bt,2022.2.4,Win32,60.03842459,Chrome,1920,1080,,,,,1,982,,,,,,,,,,,,,,,,,S,160,hexagon,1,0,,,,,,,,,,,,,,,,repeat,letter,lettRpt,f,0.678,Lo,,,,,,4,,,,,,,,high,13,0,13,0,1,,,,,,,,,
296509,2022-12-05_23h15.20.791,vts_reward_expectancy_bt,2022.2.4,Win32,60.03842459,Chrome,1920,1080,,,,,1,983,,,,,,,,,,,,,,,,,H,174,circle,1,0,,,,,,,,,,,,,,,,switch,number,numSwt,k,0.5549,Lo,,,,,,4,,,,,,,,high,14,0,14,0,1,,,,,,,,,
296509,2022-12-05_23h15.20.791,vts_reward_expectancy_bt,2022.2.4,Win32,60.03842459,Chrome,1920,1080,,,,,10,993,,,,,,,,,,,,,,,,,D,146,triangle,1,0,,,,,,,,,,,,,,,,repeat,number,numRpt,j,0.5377,Hi,,,,,,4,,,,,,,,high,15,0,15,0,1,,,,,,,,,
296509,2022-12-05_23h15.20.791,vts_reward_expectancy_bt,2022.2.4,Win32,60.03842459,Chrome,1920,1080,,,,,1,994,,,,,,,,,,,,,,,,,B,125,hexagon,1,0,,,,,,,,,,,,,,,,repeat,number,numRpt,j,0.5674,Lo,,,,,,4,,,,,,,,high,16,0,16,0,1,,,,,,,,,
296509,2022-12-05_23h15.20.791,vts_reward_expectancy_bt,2022.2.4,Win32,60.03842459,Chrome,1920,1080,,,,,10,1004,,,,,,,,,,,,,,,,,Y,174,triangle,1,0,,,,,,,,,,,,,,,,switch,letter,lettSwt,f,0.5996,Hi,,,,,,4,,,,,,,,high,17,0,17,0,1,,,,,,,,,
296509,2022-12-05_23h15.20.791,vts_reward_expectancy_bt,2022.2.4,Win32,60.03842459,Chrome,1920,1080,,,,,1,1005,,,,,,,,,,,,,,,,,W,160,star,1,0,,,,,,,,,,,,,,,,switch,number,numSwt,k,0.5859,Hi,,,,,,4,,,,,,,,high,18,0,18,0,1,,,,,,,,,
296509,2022-12-05_23h15.20.791,vts_reward_expectancy_bt,2022.2.4,Win32,60.03842459,Chrome,1920,1080,,,,,10,1015,,,,,,,,,,,,,,,,,H,139,circle,1,0,,,,,,,,,,,,,,,,switch,letter,lettSwt,d,0.8502,Lo,,,,,,4,,,,,,,,high,19,0,19,0,1,,,,,,,,,
296509,2022-12-05_23h15.20.791,vts_reward_expectancy_bt,2022.2.4,Win32,60.03842459,Chrome,1920,1080,,,,,1,1016,,,,,,,,,,,,,,,,,D,167,hexagon,1,0,,,,,,,,,,,,,,,,repeat,letter,lettRpt,d,0.5336,Lo,,,,,,4,,,,,,,,high,20,0,20,0,1,,,,,,,,,
296509,2022-12-05_23h15.20.791,vts_reward_expectancy_bt,2022.2.4,Win32,60.03842459,Chrome,1920,1080,,,,,1,1017,,,,,,,,,,,,,,,,,S,181,circle,1,0,,,,,,,,,,,,,,,,switch,number,numSwt,k,0.4548,Lo,,,,,,4,,,,,,,,high,21,0,21,0,1,,,,,,,,,
296509,2022-12-05_23h15.20.791,vts_reward_expectancy_bt,2022.2.4,Win32,60.03842459,Chrome,1920,1080,,,,,10,1027,,,,,,,,,,,,,,,,,U,132,star,1,0,,,,,,,,,,,,,,,,repeat,number,numRpt,j,0.5259,Hi,,,,,,4,,,,,,,,high,22,0,22,0,1,,,,,,,,,
296509,2022-12-05_23h15.20.791,vts_reward_expectancy_bt,2022.2.4,Win32,60.03842459,Chrome,1920,1080,,,,,0,1027,,,,,,,,,,,,,,,,,F,146,triangle,1,0,,,,,,,,,,,,,,,,switch,letter,lettSwt,d,0.8329,Hi,,,,,,4,,,,,,,,high,23,0,23,0,1,,,,,,,,,
296509,2022-12-05_23h15.20.791,vts_reward_expectancy_bt,2022.2.4,Win32,60.03842459,Chrome,1920,1080,,,,,1,1028,,,,,,,,,,,,,,,,,W,174,hexagon,1,0,,,,,,,,,,,,,,,,repeat,letter,lettRpt,f,0.7378,Lo,,,,,,4,,,,,,,,high,24,0,24,0,1,,,,,,,,,
296509,2022-12-05_23h15.20.791,vts_reward_expectancy_bt,2022.2.4,Win32,60.03842459,Chrome,1920,1080,,,,,10,1038,,,,,,,,,,,,,,,,,D,160,triangle,1,0,,,,,,,,,,,,,,,,repeat,letter,lettRpt,d,0.4994,Hi,,,,,,4,,,,,,,,high,25,0,25,0,1,,,,,,,,,
296509,2022-12-05_23h15.20.791,vts_reward_expectancy_bt,2022.2.4,Win32,60.03842459,Chrome,1920,1080,,,,,1,1039,,,,,,,,,,,,,,,,,Y,167,circle,1,0,,,,,,,,,,,,,,,,switch,number,numSwt,k,0.5668,Lo,,,,,,4,,,,,,,,high,26,0,26,0,1,,,,,,,,,
296509,2022-12-05_23h15.20.791,vts_reward_expectancy_bt,2022.2.4,Win32,60.03842459,Chrome,1920,1080,,,,,0,1039,,,,,,,,,,,,,,,,,H,181,star,1,0,,,,,,,,,,,,,,,,switch,letter,lettSwt,d,0.7503,Hi,,,,,,4,,,,,,,,high,27,0,27,0,1,,,,,,,,,
296509,2022-12-05_23h15.20.791,vts_reward_expectancy_bt,2022.2.4,Win32,60.03842459,Chrome,1920,1080,,,,,1,1040,,,,,,,,,,,,,,,,,F,132,circle,1,0,,,,,,,,,,,,,,,,switch,number,numSwt,j,0.7343,Lo,,,,,,4,,,,,,,,high,28,0,28,0,1,,,,,,,,,
296509,2022-12-05_23h15.20.791,vts_reward_expectancy_bt,2022.2.4,Win32,60.03842459,Chrome,1920,1080,,,,,0,1040,,,,,,,,,,,,,,,,,B,125,triangle,1,0,,,,,,,,,,,,,,,,switch,letter,lettSwt,d,0.6237,Hi,,,,,,4,,,,,,,,high,29,0,29,0,1,,,,,,,,,
296509,2022-12-05_23h15.20.791,vts_reward_expectancy_bt,2022.2.4,Win32,60.03842459,Chrome,1920,1080,,,,,10,1050,,,,,,,,,,,,,,,,,S,146,star,1,0,,,,,,,,,,,,,,,,repeat,letter,lettRpt,f,0.5406,Hi,,,,,,4,,,,,,,,high,30,0,30,0,1,,,,,,,,,
296509,2022-12-05_23h15.20.791,vts_reward_expectancy_bt,2022.2.4,Win32,60.03842459,Chrome,1920,1080,,,,,10,1060,,,,,,,,,,,,,,,,,U,139,hexagon,1,0,,,,,,,,,,,,,,,,repeat,letter,lettRpt,f,0.617,Lo,,,,,,4,,,,,,,,high,31,0,31,0,1,,,,,,,,,
296509,2022-12-05_23h15.20.791,vts_reward_expectancy_bt,2022.2.4,Win32,60.03842459,Chrome,1920,1080,,,,,0,1060,,,,,,,,,,,,,,,,,W,132,triangle,1,0,,,,,,,,,,,,,,,,repeat,letter,lettRpt,f,0.821,Hi,,,,,,5,,,,,,space,1.3119,high,0,0,0,0,1,,,,,,,,,
296509,2022-12-05_23h15.20.791,vts_reward_expectancy_bt,2022.2.4,Win32,60.03842459,Chrome,1920,1080,,,,,1,1061,,,,,,,,,,,,,,,,,H,181,circle,1,0,,,,,,,,,,,,,,,,repeat,letter,lettRpt,d,0.7918,Lo,,,,,,5,,,,,,,,high,1,0,1,0,1,,,,,,,,,
296509,2022-12-05_23h15.20.791,vts_reward_expectancy_bt,2022.2.4,Win32,60.03842459,Chrome,1920,1080,,,,,1,1062,,,,,,,,,,,,,,,,,F,167,hexagon,1,0,,,,,,,,,,,,,,,,repeat,letter,lettRpt,d,0.7677,Lo,,,,,,5,,,,,,,,high,2,0,2,0,1,,,,,,,,,
296509,2022-12-05_23h15.20.791,vts_reward_expectancy_bt,2022.2.4,Win32,60.03842459,Chrome,1920,1080,,,,,0,1062,,,,,,,,,,,,,,,,,Y,125,star,1,0,,,,,,,,,,,,,,,,switch,number,numSwt,j,0.5887,Hi,,,,,,5,,,,,,,,high,3,0,3,0,1,,,,,,,,,
296509,2022-12-05_23h15.20.791,vts_reward_expectancy_bt,2022.2.4,Win32,60.03842459,Chrome,1920,1080,,,,,10,1072,,,,,,,,,,,,,,,,,B,160,triangle,1,0,,,,,,,,,,,,,,,,repeat,number,numRpt,k,0.5,Hi,,,,,,5,,,,,,,,high,4,0,4,0,1,,,,,,,,,
296509,2022-12-05_23h15.20.791,vts_reward_expectancy_bt,2022.2.4,Win32,60.03842459,Chrome,1920,1080,,,,,1,1073,,,,,,,,,,,,,,,,,D,146,circle,1,0,,,,,,,,,,,,,,,,repeat,number,numRpt,j,0.677,Lo,,,,,,5,,,,,,,,high,5,0,5,0,1,,,,,,,,,
