participant,date,expName,psychopyVersion,OS,frameRate,browser,xResolution,yResolution,key_resp.keys,key_resp.rt,training_resp.keys,training_resp.rt,points_trial,points_cumul,trainBlock,training.thisRepN,training.thisTrialN,training.thisN,training.thisIndex,training.ran,LTriangleOpac,LCircleOpac,LHexagonOpac,LStarOpac,RTriangleOpac,RCircleOpac,RHexagonOpac,RStarOpac,LShape_ID,RShape_ID,curr_topStim,curr_bottStim,curr_shape,acc,E1,target_resp_prac1.keys,target_resp_prac1.rt,pracBlock,task1_prac_trials.thisRepN,task1_prac_trials.thisTrialN,task1_prac_trials.thisN,task1_prac_trials.thisIndex,task1_prac_trials.ran,target_resp_prac2.keys,target_resp_prac2.rt,task2_praac_trials.thisRepN,task2_praac_trials.thisTrialN,task2_praac_trials.thisN,task2_praac_trials.thisIndex,task2_praac_trials.ran,alt,task,condition,target_resp.keys,target_resp.rt,rewCond,vts_practice_trials.thisRepN,vts_practice_trials.thisTrialN,vts_practice_trials.thisN,vts_practice_trials.thisIndex,vts_practice_trials.ran,blockNum,trials_norew.thisRepN,trials_norew.thisTrialN,trials_norew.thisN,trials_norew.thisIndex,trials_norew.ran,key_resp_2.keys,key_resp_2.rt,rewExpectancy,trials_rew.thisRepN,trials_rew.thisTrialN,trials_rew.thisN,trials_rew.thisIndex,trials_rew.ran,Q1,Q2,Q2_text,Q3,Q4,Q5,Q5_text,xRes,yRes
296590,2022-12-02_22h18.46.897,vts_reward_expectancy_bt,2022.2.4,MacIntel,58.82352941,Safari,1440,900,,,,,,,,,,,,,,,,,,,,,,,,,,,,,,,,,,,,,,,,,,,,,,,,,,,,,,,,,,,,,,,,,,,,,,,,,,,,
296590,2022-12-02_22h18.46.897,vts_reward_expectancy_bt,2022.2.4,MacIntel,58.82352941,Safari,1440,900,space,19.006,,,,,,,,,,,,,,,,,,,,,,,,,,,,,,,,,,,,,,,,,,,,,,,,,,,,,,,,,,,,,,,,,,,,,,,,,,
296590,2022-12-02_22h18.46.897,vts_reward_expectancy_bt,2022.2.4,MacIntel,58.82352941,Safari,1440,900,,,,,,,,,,,,,,,,,,,,,,,,,,,,,,,,,,,,,,,,,,,,,,,,,,,,,,,,,,,,,,,,,,,,,,,,,,,,
296590,2022-12-02_22h18.46.897,vts_reward_expectancy_bt,2022.2.4,MacIntel,58.82352941,Safari,1440,900,,,a,2.152,1,1,0,0,0,0,6,1,0,0,1,0,1,0,0,0,hexagon,triangle,,,,,,,,,,,,,,,,,,,,,,,,,,,,,,,,,,,,,,,,,,,,,,,,,,,,,,
296590,2022-12-02_22h18.46.897,vts_reward_expectancy_bt,2022.2.4,MacIntel,58.82352941,Safari,1440,900,,,l,1.564,1,2,0,0,1,1,9,1,0,0,0,1,1,0,0,0,star,triangle,,,,,,,,,,,,,,,,,,,,,,,,,,,,,,,,,,,,,,,,,,,,,,,,,,,,,,
296590,2022-12-02_22h18.46.897,vts_reward_expectancy_bt,2022.2.4,MacIntel,58.82352941,Safari,1440,900,,,l,1.349,10,12,0,0,2,2,2,1,1,0,0,0,0,0,0,1,triangle,star,,,,,,,,,,,,,,,,,,,,,,,,,,,,,,,,,,,,,,,,,,,,,,,,,,,,,,
296590,2022-12-02_22h18.46.897,vts_reward_expectancy_bt,2022.2.4,MacIntel,58.82352941,Safari,1440,900,,,a,1.402,1,13,0,0,3,3,7,1,0,0,1,0,0,1,0,0,hexagon,circle,,,,,,,,,,,,,,,,,,,,,,,,,,,,,,,,,,,,,,,,,,,,,,,,,,,,,,
296590,2022-12-02_22h18.46.897,vts_reward_expectancy_bt,2022.2.4,MacIntel,58.82352941,Safari,1440,900,,,a,1.198,10,23,0,0,4,4,11,1,0,0,0,1,0,0,1,0,star,hexagon,,,,,,,,,,,,,,,,,,,,,,,,,,,,,,,,,,,,,,,,,,,,,,,,,,,,,,
296590,2022-12-02_22h18.46.897,vts_reward_expectancy_bt,2022.2.4,MacIntel,58.82352941,Safari,1440,900,,,l,1.263,10,33,0,0,5,5,5,1,0,1,0,0,0,0,0,1,circle,star,,,,,,,,,,,,,,,,,,,,,,,,,,,,,,,,,,,,,,,,,,,,,,,,,,,,,,
296590,2022-12-02_22h18.46.897,vts_reward_expectancy_bt,2022.2.4,MacIntel,58.82352941,Safari,1440,900,,,a,0.705,10,43,0,0,6,6,3,1,0,1,0,0,1,0,0,0,circle,triangle,,,,,,,,,,,,,,,,,,,,,,,,,,,,,,,,,,,,,,,,,,,,,,,,,,,,,,
296590,2022-12-02_22h18.46.897,vts_reward_expectancy_bt,2022.2.4,MacIntel,58.82352941,Safari,1440,900,,,l,1.296,10,53,0,0,7,7,0,1,1,0,0,0,0,1,0,0,triangle,circle,,,,,,,,,,,,,,,,,,,,,,,,,,,,,,,,,,,,,,,,,,,,,,,,,,,,,,
296590,2022-12-02_22h18.46.897,vts_reward_expectancy_bt,2022.2.4,MacIntel,58.82352941,Safari,1440,900,,,a,1.683,10,63,0,0,8,8,1,1,1,0,0,0,0,0,1,0,triangle,hexagon,,,,,,,,,,,,,,,,,,,,,,,,,,,,,,,,,,,,,,,,,,,,,,,,,,,,,,
296590,2022-12-02_22h18.46.897,vts_reward_expectancy_bt,2022.2.4,MacIntel,58.82352941,Safari,1440,900,,,a,0.89,10,73,0,0,9,9,10,1,0,0,0,1,0,1,0,0,star ,circle,,,,,,,,,,,,,,,,,,,,,,,,,,,,,,,,,,,,,,,,,,,,,,,,,,,,,,
296590,2022-12-02_22h18.46.897,vts_reward_expectancy_bt,2022.2.4,MacIntel,58.82352941,Safari,1440,900,,,l,0.685,10,83,0,0,10,10,8,1,0,0,1,0,0,0,0,1,hexagon,star,,,,,,,,,,,,,,,,,,,,,,,,,,,,,,,,,,,,,,,,,,,,,,,,,,,,,,
296590,2022-12-02_22h18.46.897,vts_reward_expectancy_bt,2022.2.4,MacIntel,58.82352941,Safari,1440,900,,,l,1.05,10,93,0,0,11,11,4,1,0,1,0,0,0,0,1,0,circle,hexagon,,,,,,,,,,,,,,,,,,,,,,,,,,,,,,,,,,,,,,,,,,,,,,,,,,,,,,
296590,2022-12-02_22h18.46.897,vts_reward_expectancy_bt,2022.2.4,MacIntel,58.82352941,Safari,1440,900,,,l,0.989,1,94,0,1,0,12,8,1,0,0,1,0,0,0,0,1,hexagon,star,,,,,,,,,,,,,,,,,,,,,,,,,,,,,,,,,,,,,,,,,,,,,,,,,,,,,,
296590,2022-12-02_22h18.46.897,vts_reward_expectancy_bt,2022.2.4,MacIntel,58.82352941,Safari,1440,900,,,a,1.051,10,104,0,1,1,13,7,1,0,0,1,0,0,1,0,0,hexagon,circle,,,,,,,,,,,,,,,,,,,,,,,,,,,,,,,,,,,,,,,,,,,,,,,,,,,,,,
296590,2022-12-02_22h18.46.897,vts_reward_expectancy_bt,2022.2.4,MacIntel,58.82352941,Safari,1440,900,,,l,0.997,10,114,0,1,2,14,5,1,0,1,0,0,0,0,0,1,circle,star,,,,,,,,,,,,,,,,,,,,,,,,,,,,,,,,,,,,,,,,,,,,,,,,,,,,,,
296590,2022-12-02_22h18.46.897,vts_reward_expectancy_bt,2022.2.4,MacIntel,58.82352941,Safari,1440,900,,,a,1.65,1,115,0,1,3,15,4,1,0,1,0,0,0,0,1,0,circle,hexagon,,,,,,,,,,,,,,,,,,,,,,,,,,,,,,,,,,,,,,,,,,,,,,,,,,,,,,
296590,2022-12-02_22h18.46.897,vts_reward_expectancy_bt,2022.2.4,MacIntel,58.82352941,Safari,1440,900,,,a,0.89,1,116,0,1,4,16,9,1,0,0,0,1,1,0,0,0,star,triangle,,,,,,,,,,,,,,,,,,,,,,,,,,,,,,,,,,,,,,,,,,,,,,,,,,,,,,
296590,2022-12-02_22h18.46.897,vts_reward_expectancy_bt,2022.2.4,MacIntel,58.82352941,Safari,1440,900,,,a,1.486,10,126,0,1,5,17,2,1,1,0,0,0,0,0,0,1,triangle,star,,,,,,,,,,,,,,,,,,,,,,,,,,,,,,,,,,,,,,,,,,,,,,,,,,,,,,
296590,2022-12-02_22h18.46.897,vts_reward_expectancy_bt,2022.2.4,MacIntel,58.82352941,Safari,1440,900,,,a,2.414,10,136,0,1,6,18,10,1,0,0,0,1,0,1,0,0,star ,circle,,,,,,,,,,,,,,,,,,,,,,,,,,,,,,,,,,,,,,,,,,,,,,,,,,,,,,
296590,2022-12-02_22h18.46.897,vts_reward_expectancy_bt,2022.2.4,MacIntel,58.82352941,Safari,1440,900,,,l,1.332,1,137,0,1,7,19,6,1,0,0,1,0,1,0,0,0,hexagon,triangle,,,,,,,,,,,,,,,,,,,,,,,,,,,,,,,,,,,,,,,,,,,,,,,,,,,,,,
296590,2022-12-02_22h18.46.897,vts_reward_expectancy_bt,2022.2.4,MacIntel,58.82352941,Safari,1440,900,,,a,1.421,10,147,0,1,8,20,1,1,1,0,0,0,0,0,1,0,triangle,hexagon,,,,,,,,,,,,,,,,,,,,,,,,,,,,,,,,,,,,,,,,,,,,,,,,,,,,,,
296590,2022-12-02_22h18.46.897,vts_reward_expectancy_bt,2022.2.4,MacIntel,58.82352941,Safari,1440,900,,,a,1.842,10,157,0,1,9,21,0,1,1,0,0,0,0,1,0,0,triangle,circle,,,,,,,,,,,,,,,,,,,,,,,,,,,,,,,,,,,,,,,,,,,,,,,,,,,,,,
296590,2022-12-02_22h18.46.897,vts_reward_expectancy_bt,2022.2.4,MacIntel,58.82352941,Safari,1440,900,,,l,2.883,1,158,0,1,10,22,11,1,0,0,0,1,0,0,1,0,star,hexagon,,,,,,,,,,,,,,,,,,,,,,,,,,,,,,,,,,,,,,,,,,,,,,,,,,,,,,
296590,2022-12-02_22h18.46.897,vts_reward_expectancy_bt,2022.2.4,MacIntel,58.82352941,Safari,1440,900,,,l,1.263,1,159,0,1,11,23,3,1,0,1,0,0,1,0,0,0,circle,triangle,,,,,,,,,,,,,,,,,,,,,,,,,,,,,,,,,,,,,,,,,,,,,,,,,,,,,,
296590,2022-12-02_22h18.46.897,vts_reward_expectancy_bt,2022.2.4,MacIntel,58.82352941,Safari,1440,900,,,l,0.887,10,169,0,2,0,24,2,1,1,0,0,0,0,0,0,1,triangle,star,,,,,,,,,,,,,,,,,,,,,,,,,,,,,,,,,,,,,,,,,,,,,,,,,,,,,,
296590,2022-12-02_22h18.46.897,vts_reward_expectancy_bt,2022.2.4,MacIntel,58.82352941,Safari,1440,900,,,a,1.734,1,170,0,2,1,25,8,1,0,0,1,0,0,0,0,1,hexagon,star,,,,,,,,,,,,,,,,,,,,,,,,,,,,,,,,,,,,,,,,,,,,,,,,,,,,,,
296590,2022-12-02_22h18.46.897,vts_reward_expectancy_bt,2022.2.4,MacIntel,58.82352941,Safari,1440,900,,,a,0.8,10,180,0,2,2,26,1,1,1,0,0,0,0,0,1,0,triangle,hexagon,,,,,,,,,,,,,,,,,,,,,,,,,,,,,,,,,,,,,,,,,,,,,,,,,,,,,,
296590,2022-12-02_22h18.46.897,vts_reward_expectancy_bt,2022.2.4,MacIntel,58.82352941,Safari,1440,900,,,a,1.833,10,190,0,2,3,27,11,1,0,0,0,1,0,0,1,0,star,hexagon,,,,,,,,,,,,,,,,,,,,,,,,,,,,,,,,,,,,,,,,,,,,,,,,,,,,,,
296590,2022-12-02_22h18.46.897,vts_reward_expectancy_bt,2022.2.4,MacIntel,58.82352941,Safari,1440,900,,,a,1.574,10,200,0,2,4,28,9,1,0,0,0,1,1,0,0,0,star,triangle,,,,,,,,,,,,,,,,,,,,,,,,,,,,,,,,,,,,,,,,,,,,,,,,,,,,,,
296590,2022-12-02_22h18.46.897,vts_reward_expectancy_bt,2022.2.4,MacIntel,58.82352941,Safari,1440,900,,,l,1.132,10,210,0,2,5,29,5,1,0,1,0,0,0,0,0,1,circle,star,,,,,,,,,,,,,,,,,,,,,,,,,,,,,,,,,,,,,,,,,,,,,,,,,,,,,,
296590,2022-12-02_22h18.46.897,vts_reward_expectancy_bt,2022.2.4,MacIntel,58.82352941,Safari,1440,900,,,a,0.834,10,220,0,2,6,30,10,1,0,0,0,1,0,1,0,0,star ,circle,,,,,,,,,,,,,,,,,,,,,,,,,,,,,,,,,,,,,,,,,,,,,,,,,,,,,,
296590,2022-12-02_22h18.46.897,vts_reward_expectancy_bt,2022.2.4,MacIntel,58.82352941,Safari,1440,900,,,a,1.867,1,221,0,2,7,31,6,1,0,0,1,0,1,0,0,0,hexagon,triangle,,,,,,,,,,,,,,,,,,,,,,,,,,,,,,,,,,,,,,,,,,,,,,,,,,,,,,
296590,2022-12-02_22h18.46.897,vts_reward_expectancy_bt,2022.2.4,MacIntel,58.82352941,Safari,1440,900,,,l,1.383,1,222,0,2,8,32,7,1,0,0,1,0,0,1,0,0,hexagon,circle,,,,,,,,,,,,,,,,,,,,,,,,,,,,,,,,,,,,,,,,,,,,,,,,,,,,,,
296590,2022-12-02_22h18.46.897,vts_reward_expectancy_bt,2022.2.4,MacIntel,58.82352941,Safari,1440,900,,,a,1.283,10,232,0,2,9,33,4,1,0,1,0,0,0,0,1,0,circle,hexagon,,,,,,,,,,,,,,,,,,,,,,,,,,,,,,,,,,,,,,,,,,,,,,,,,,,,,,
296590,2022-12-02_22h18.46.897,vts_reward_expectancy_bt,2022.2.4,MacIntel,58.82352941,Safari,1440,900,,,a,1.091,1,233,0,2,10,34,0,1,1,0,0,0,0,1,0,0,triangle,circle,,,,,,,,,,,,,,,,,,,,,,,,,,,,,,,,,,,,,,,,,,,,,,,,,,,,,,
296590,2022-12-02_22h18.46.897,vts_reward_expectancy_bt,2022.2.4,MacIntel,58.82352941,Safari,1440,900,,,a,1,10,243,0,2,11,35,3,1,0,1,0,0,1,0,0,0,circle,triangle,,,,,,,,,,,,,,,,,,,,,,,,,,,,,,,,,,,,,,,,,,,,,,,,,,,,,,
296590,2022-12-02_22h18.46.897,vts_reward_expectancy_bt,2022.2.4,MacIntel,58.82352941,Safari,1440,900,,,a,2.746,1,244,1,0,0,0,6,1,0,0,1,0,1,0,0,0,hexagon,triangle,,,,,,,,,,,,,,,,,,,,,,,,,,,,,,,,,,,,,,,,,,,,,,,,,,,,,,
296590,2022-12-02_22h18.46.897,vts_reward_expectancy_bt,2022.2.4,MacIntel,58.82352941,Safari,1440,900,,,l,1.548,1,245,1,0,1,1,3,1,0,1,0,0,1,0,0,0,circle,triangle,,,,,,,,,,,,,,,,,,,,,,,,,,,,,,,,,,,,,,,,,,,,,,,,,,,,,,
296590,2022-12-02_22h18.46.897,vts_reward_expectancy_bt,2022.2.4,MacIntel,58.82352941,Safari,1440,900,,,a,0.881,1,246,1,0,2,2,10,1,0,0,0,1,0,1,0,0,star ,circle,,,,,,,,,,,,,,,,,,,,,,,,,,,,,,,,,,,,,,,,,,,,,,,,,,,,,,
296590,2022-12-02_22h18.46.897,vts_reward_expectancy_bt,2022.2.4,MacIntel,58.82352941,Safari,1440,900,,,l,0.829,10,256,1,0,3,3,5,1,0,1,0,0,0,0,0,1,circle,star,,,,,,,,,,,,,,,,,,,,,,,,,,,,,,,,,,,,,,,,,,,,,,,,,,,,,,
296590,2022-12-02_22h18.46.897,vts_reward_expectancy_bt,2022.2.4,MacIntel,58.82352941,Safari,1440,900,,,l,2.549,1,257,1,0,4,4,11,1,0,0,0,1,0,0,1,0,star,hexagon,,,,,,,,,,,,,,,,,,,,,,,,,,,,,,,,,,,,,,,,,,,,,,,,,,,,,,
296590,2022-12-02_22h18.46.897,vts_reward_expectancy_bt,2022.2.4,MacIntel,58.82352941,Safari,1440,900,,,a,1.542,10,267,1,0,5,5,0,1,1,0,0,0,0,1,0,0,triangle,circle,,,,,,,,,,,,,,,,,,,,,,,,,,,,,,,,,,,,,,,,,,,,,,,,,,,,,,
296590,2022-12-02_22h18.46.897,vts_reward_expectancy_bt,2022.2.4,MacIntel,58.82352941,Safari,1440,900,,,a,1.134,10,277,1,0,6,6,9,1,0,0,0,1,1,0,0,0,star,triangle,,,,,,,,,,,,,,,,,,,,,,,,,,,,,,,,,,,,,,,,,,,,,,,,,,,,,,
296590,2022-12-02_22h18.46.897,vts_reward_expectancy_bt,2022.2.4,MacIntel,58.82352941,Safari,1440,900,,,a,2.133,10,287,1,0,7,7,7,1,0,0,1,0,0,1,0,0,hexagon,circle,,,,,,,,,,,,,,,,,,,,,,,,,,,,,,,,,,,,,,,,,,,,,,,,,,,,,,
296590,2022-12-02_22h18.46.897,vts_reward_expectancy_bt,2022.2.4,MacIntel,58.82352941,Safari,1440,900,,,a,1.767,1,288,1,0,8,8,1,1,1,0,0,0,0,0,1,0,triangle,hexagon,,,,,,,,,,,,,,,,,,,,,,,,,,,,,,,,,,,,,,,,,,,,,,,,,,,,,,
296590,2022-12-02_22h18.46.897,vts_reward_expectancy_bt,2022.2.4,MacIntel,58.82352941,Safari,1440,900,,,l,0.852,1,289,1,0,9,9,2,1,1,0,0,0,0,0,0,1,triangle,star,,,,,,,,,,,,,,,,,,,,,,,,,,,,,,,,,,,,,,,,,,,,,,,,,,,,,,
296590,2022-12-02_22h18.46.897,vts_reward_expectancy_bt,2022.2.4,MacIntel,58.82352941,Safari,1440,900,,,l,1.717,10,299,1,0,10,10,4,1,0,1,0,0,0,0,1,0,circle,hexagon,,,,,,,,,,,,,,,,,,,,,,,,,,,,,,,,,,,,,,,,,,,,,,,,,,,,,,
296590,2022-12-02_22h18.46.897,vts_reward_expectancy_bt,2022.2.4,MacIntel,58.82352941,Safari,1440,900,,,l,0.888,10,309,1,0,11,11,8,1,0,0,1,0,0,0,0,1,hexagon,star,,,,,,,,,,,,,,,,,,,,,,,,,,,,,,,,,,,,,,,,,,,,,,,,,,,,,,
296590,2022-12-02_22h18.46.897,vts_reward_expectancy_bt,2022.2.4,MacIntel,58.82352941,Safari,1440,900,,,a,0.884,10,319,1,1,0,12,11,1,0,0,0,1,0,0,1,0,star,hexagon,,,,,,,,,,,,,,,,,,,,,,,,,,,,,,,,,,,,,,,,,,,,,,,,,,,,,,
296590,2022-12-02_22h18.46.897,vts_reward_expectancy_bt,2022.2.4,MacIntel,58.82352941,Safari,1440,900,,,l,1.001,1,320,1,1,1,13,8,1,0,0,1,0,0,0,0,1,hexagon,star,,,,,,,,,,,,,,,,,,,,,,,,,,,,,,,,,,,,,,,,,,,,,,,,,,,,,,
296590,2022-12-02_22h18.46.897,vts_reward_expectancy_bt,2022.2.4,MacIntel,58.82352941,Safari,1440,900,,,l,1.401,10,330,1,1,2,14,6,1,0,0,1,0,1,0,0,0,hexagon,triangle,,,,,,,,,,,,,,,,,,,,,,,,,,,,,,,,,,,,,,,,,,,,,,,,,,,,,,
296590,2022-12-02_22h18.46.897,vts_reward_expectancy_bt,2022.2.4,MacIntel,58.82352941,Safari,1440,900,,,a,0.834,10,340,1,1,3,15,7,1,0,0,1,0,0,1,0,0,hexagon,circle,,,,,,,,,,,,,,,,,,,,,,,,,,,,,,,,,,,,,,,,,,,,,,,,,,,,,,
296590,2022-12-02_22h18.46.897,vts_reward_expectancy_bt,2022.2.4,MacIntel,58.82352941,Safari,1440,900,,,l,1.62,10,350,1,1,4,16,0,1,1,0,0,0,0,1,0,0,triangle,circle,,,,,,,,,,,,,,,,,,,,,,,,,,,,,,,,,,,,,,,,,,,,,,,,,,,,,,
296590,2022-12-02_22h18.46.897,vts_reward_expectancy_bt,2022.2.4,MacIntel,58.82352941,Safari,1440,900,,,l,1.583,1,351,1,1,5,17,10,1,0,0,0,1,0,1,0,0,star ,circle,,,,,,,,,,,,,,,,,,,,,,,,,,,,,,,,,,,,,,,,,,,,,,,,,,,,,,
296590,2022-12-02_22h18.46.897,vts_reward_expectancy_bt,2022.2.4,MacIntel,58.82352941,Safari,1440,900,,,a,0.802,1,352,1,1,6,18,9,1,0,0,0,1,1,0,0,0,star,triangle,,,,,,,,,,,,,,,,,,,,,,,,,,,,,,,,,,,,,,,,,,,,,,,,,,,,,,
296590,2022-12-02_22h18.46.897,vts_reward_expectancy_bt,2022.2.4,MacIntel,58.82352941,Safari,1440,900,,,l,3.632,1,353,1,1,7,19,4,1,0,1,0,0,0,0,1,0,circle,hexagon,,,,,,,,,,,,,,,,,,,,,,,,,,,,,,,,,,,,,,,,,,,,,,,,,,,,,,
296590,2022-12-02_22h18.46.897,vts_reward_expectancy_bt,2022.2.4,MacIntel,58.82352941,Safari,1440,900,,,l,1.359,1,354,1,1,8,20,1,1,1,0,0,0,0,0,1,0,triangle,hexagon,,,,,,,,,,,,,,,,,,,,,,,,,,,,,,,,,,,,,,,,,,,,,,,,,,,,,,
296590,2022-12-02_22h18.46.897,vts_reward_expectancy_bt,2022.2.4,MacIntel,58.82352941,Safari,1440,900,,,l,0.87,10,364,1,1,9,21,2,1,1,0,0,0,0,0,0,1,triangle,star,,,,,,,,,,,,,,,,,,,,,,,,,,,,,,,,,,,,,,,,,,,,,,,,,,,,,,
296590,2022-12-02_22h18.46.897,vts_reward_expectancy_bt,2022.2.4,MacIntel,58.82352941,Safari,1440,900,,,l,1.317,1,365,1,1,10,22,3,1,0,1,0,0,1,0,0,0,circle,triangle,,,,,,,,,,,,,,,,,,,,,,,,,,,,,,,,,,,,,,,,,,,,,,,,,,,,,,
296590,2022-12-02_22h18.46.897,vts_reward_expectancy_bt,2022.2.4,MacIntel,58.82352941,Safari,1440,900,,,a,1.317,10,375,1,1,11,23,5,1,0,1,0,0,0,0,0,1,circle,star,,,,,,,,,,,,,,,,,,,,,,,,,,,,,,,,,,,,,,,,,,,,,,,,,,,,,,
296590,2022-12-02_22h18.46.897,vts_reward_expectancy_bt,2022.2.4,MacIntel,58.82352941,Safari,1440,900,,,l,1.934,10,385,1,2,0,24,2,1,1,0,0,0,0,0,0,1,triangle,star,,,,,,,,,,,,,,,,,,,,,,,,,,,,,,,,,,,,,,,,,,,,,,,,,,,,,,
296590,2022-12-02_22h18.46.897,vts_reward_expectancy_bt,2022.2.4,MacIntel,58.82352941,Safari,1440,900,,,a,0.987,10,395,1,2,1,25,10,1,0,0,0,1,0,1,0,0,star ,circle,,,,,,,,,,,,,,,,,,,,,,,,,,,,,,,,,,,,,,,,,,,,,,,,,,,,,,
296590,2022-12-02_22h18.46.897,vts_reward_expectancy_bt,2022.2.4,MacIntel,58.82352941,Safari,1440,900,,,l,1.82,1,396,1,2,2,26,6,1,0,0,1,0,1,0,0,0,hexagon,triangle,,,,,,,,,,,,,,,,,,,,,,,,,,,,,,,,,,,,,,,,,,,,,,,,,,,,,,
296590,2022-12-02_22h18.46.897,vts_reward_expectancy_bt,2022.2.4,MacIntel,58.82352941,Safari,1440,900,,,a,4.462,10,406,1,2,3,27,0,1,1,0,0,0,0,1,0,0,triangle,circle,,,,,,,,,,,,,,,,,,,,,,,,,,,,,,,,,,,,,,,,,,,,,,,,,,,,,,
296590,2022-12-02_22h18.46.897,vts_reward_expectancy_bt,2022.2.4,MacIntel,58.82352941,Safari,1440,900,,,l,1.4,10,416,1,2,4,28,9,1,0,0,0,1,1,0,0,0,star,triangle,,,,,,,,,,,,,,,,,,,,,,,,,,,,,,,,,,,,,,,,,,,,,,,,,,,,,,
296590,2022-12-02_22h18.46.897,vts_reward_expectancy_bt,2022.2.4,MacIntel,58.82352941,Safari,1440,900,,,a,1.781,10,426,1,2,5,29,5,1,0,1,0,0,0,0,0,1,circle,star,,,,,,,,,,,,,,,,,,,,,,,,,,,,,,,,,,,,,,,,,,,,,,,,,,,,,,
296590,2022-12-02_22h18.46.897,vts_reward_expectancy_bt,2022.2.4,MacIntel,58.82352941,Safari,1440,900,,,a,1.083,1,427,1,2,6,30,11,1,0,0,0,1,0,0,1,0,star,hexagon,,,,,,,,,,,,,,,,,,,,,,,,,,,,,,,,,,,,,,,,,,,,,,,,,,,,,,
296590,2022-12-02_22h18.46.897,vts_reward_expectancy_bt,2022.2.4,MacIntel,58.82352941,Safari,1440,900,,,l,1.116,10,437,1,2,7,31,4,1,0,1,0,0,0,0,1,0,circle,hexagon,,,,,,,,,,,,,,,,,,,,,,,,,,,,,,,,,,,,,,,,,,,,,,,,,,,,,,
296590,2022-12-02_22h18.46.897,vts_reward_expectancy_bt,2022.2.4,MacIntel,58.82352941,Safari,1440,900,,,l,1.575,10,447,1,2,8,32,3,1,0,1,0,0,1,0,0,0,circle,triangle,,,,,,,,,,,,,,,,,,,,,,,,,,,,,,,,,,,,,,,,,,,,,,,,,,,,,,
296590,2022-12-02_22h18.46.897,vts_reward_expectancy_bt,2022.2.4,MacIntel,58.82352941,Safari,1440,900,,,a,1.019,1,448,1,2,9,33,1,1,1,0,0,0,0,0,1,0,triangle,hexagon,,,,,,,,,,,,,,,,,,,,,,,,,,,,,,,,,,,,,,,,,,,,,,,,,,,,,,
296590,2022-12-02_22h18.46.897,vts_reward_expectancy_bt,2022.2.4,MacIntel,58.82352941,Safari,1440,900,,,a,1.966,1,449,1,2,10,34,7,1,0,0,1,0,0,1,0,0,hexagon,circle,,,,,,,,,,,,,,,,,,,,,,,,,,,,,,,,,,,,,,,,,,,,,,,,,,,,,,
296590,2022-12-02_22h18.46.897,vts_reward_expectancy_bt,2022.2.4,MacIntel,58.82352941,Safari,1440,900,,,l,2.116,10,459,1,2,11,35,8,1,0,0,1,0,0,0,0,1,hexagon,star,,,,,,,,,,,,,,,,,,,,,,,,,,,,,,,,,,,,,,,,,,,,,,,,,,,,,,
296590,2022-12-02_22h18.46.897,vts_reward_expectancy_bt,2022.2.4,MacIntel,58.82352941,Safari,1440,900,,,a,2.341,10,469,2,0,0,0,9,1,0,0,0,1,1,0,0,0,star,triangle,,,,,,,,,,,,,,,,,,,,,,,,,,,,,,,,,,,,,,,,,,,,,,,,,,,,,,
296590,2022-12-02_22h18.46.897,vts_reward_expectancy_bt,2022.2.4,MacIntel,58.82352941,Safari,1440,900,,,l,0.836,10,479,2,0,1,1,2,1,1,0,0,0,0,0,0,1,triangle,star,,,,,,,,,,,,,,,,,,,,,,,,,,,,,,,,,,,,,,,,,,,,,,,,,,,,,,
296590,2022-12-02_22h18.46.897,vts_reward_expectancy_bt,2022.2.4,MacIntel,58.82352941,Safari,1440,900,,,a,2.983,1,480,2,0,2,2,1,1,1,0,0,0,0,0,1,0,triangle,hexagon,,,,,,,,,,,,,,,,,,,,,,,,,,,,,,,,,,,,,,,,,,,,,,,,,,,,,,
296590,2022-12-02_22h18.46.897,vts_reward_expectancy_bt,2022.2.4,MacIntel,58.82352941,Safari,1440,900,,,a,1.221,10,490,2,0,3,3,5,1,0,1,0,0,0,0,0,1,circle,star,,,,,,,,,,,,,,,,,,,,,,,,,,,,,,,,,,,,,,,,,,,,,,,,,,,,,,
296590,2022-12-02_22h18.46.897,vts_reward_expectancy_bt,2022.2.4,MacIntel,58.82352941,Safari,1440,900,,,l,0.817,10,500,2,0,4,4,10,1,0,0,0,1,0,1,0,0,star ,circle,,,,,,,,,,,,,,,,,,,,,,,,,,,,,,,,,,,,,,,,,,,,,,,,,,,,,,
296590,2022-12-02_22h18.46.897,vts_reward_expectancy_bt,2022.2.4,MacIntel,58.82352941,Safari,1440,900,,,a,1.664,1,501,2,0,5,5,8,1,0,0,1,0,0,0,0,1,hexagon,star,,,,,,,,,,,,,,,,,,,,,,,,,,,,,,,,,,,,,,,,,,,,,,,,,,,,,,
296590,2022-12-02_22h18.46.897,vts_reward_expectancy_bt,2022.2.4,MacIntel,58.82352941,Safari,1440,900,,,a,0.883,10,511,2,0,6,6,11,1,0,0,0,1,0,0,1,0,star,hexagon,,,,,,,,,,,,,,,,,,,,,,,,,,,,,,,,,,,,,,,,,,,,,,,,,,,,,,
296590,2022-12-02_22h18.46.897,vts_reward_expectancy_bt,2022.2.4,MacIntel,58.82352941,Safari,1440,900,,,l,1.066,10,521,2,0,7,7,7,1,0,0,1,0,0,1,0,0,hexagon,circle,,,,,,,,,,,,,,,,,,,,,,,,,,,,,,,,,,,,,,,,,,,,,,,,,,,,,,
296590,2022-12-02_22h18.46.897,vts_reward_expectancy_bt,2022.2.4,MacIntel,58.82352941,Safari,1440,900,,,a,1.869,10,531,2,0,8,8,3,1,0,1,0,0,1,0,0,0,circle,triangle,,,,,,,,,,,,,,,,,,,,,,,,,,,,,,,,,,,,,,,,,,,,,,,,,,,,,,
296590,2022-12-02_22h18.46.897,vts_reward_expectancy_bt,2022.2.4,MacIntel,58.82352941,Safari,1440,900,,,a,2.706,10,541,2,0,9,9,4,1,0,1,0,0,0,0,1,0,circle,hexagon,,,,,,,,,,,,,,,,,,,,,,,,,,,,,,,,,,,,,,,,,,,,,,,,,,,,,,
296590,2022-12-02_22h18.46.897,vts_reward_expectancy_bt,2022.2.4,MacIntel,58.82352941,Safari,1440,900,,,l,1.584,1,542,2,0,10,10,0,1,1,0,0,0,0,1,0,0,triangle,circle,,,,,,,,,,,,,,,,,,,,,,,,,,,,,,,,,,,,,,,,,,,,,,,,,,,,,,
296590,2022-12-02_22h18.46.897,vts_reward_expectancy_bt,2022.2.4,MacIntel,58.82352941,Safari,1440,900,,,l,2.123,1,543,2,0,11,11,6,1,0,0,1,0,1,0,0,0,hexagon,triangle,,,,,,,,,,,,,,,,,,,,,,,,,,,,,,,,,,,,,,,,,,,,,,,,,,,,,,
296590,2022-12-02_22h18.46.897,vts_reward_expectancy_bt,2022.2.4,MacIntel,58.82352941,Safari,1440,900,,,l,1.818,1,544,2,1,0,12,9,1,0,0,0,1,1,0,0,0,star,triangle,,,,,,,,,,,,,,,,,,,,,,,,,,,,,,,,,,,,,,,,,,,,,,,,,,,,,,
296590,2022-12-02_22h18.46.897,vts_reward_expectancy_bt,2022.2.4,MacIntel,58.82352941,Safari,1440,900,,,l,2.216,1,545,2,1,1,13,6,1,0,0,1,0,1,0,0,0,hexagon,triangle,,,,,,,,,,,,,,,,,,,,,,,,,,,,,,,,,,,,,,,,,,,,,,,,,,,,,,
296590,2022-12-02_22h18.46.897,vts_reward_expectancy_bt,2022.2.4,MacIntel,58.82352941,Safari,1440,900,,,l,1.452,10,555,2,1,2,14,8,1,0,0,1,0,0,0,0,1,hexagon,star,,,,,,,,,,,,,,,,,,,,,,,,,,,,,,,,,,,,,,,,,,,,,,,,,,,,,,
296590,2022-12-02_22h18.46.897,vts_reward_expectancy_bt,2022.2.4,MacIntel,58.82352941,Safari,1440,900,,,a,0.875,10,565,2,1,3,15,1,1,1,0,0,0,0,0,1,0,triangle,hexagon,,,,,,,,,,,,,,,,,,,,,,,,,,,,,,,,,,,,,,,,,,,,,,,,,,,,,,
296590,2022-12-02_22h18.46.897,vts_reward_expectancy_bt,2022.2.4,MacIntel,58.82352941,Safari,1440,900,,,l,1.738,1,566,2,1,4,16,7,1,0,0,1,0,0,1,0,0,hexagon,circle,,,,,,,,,,,,,,,,,,,,,,,,,,,,,,,,,,,,,,,,,,,,,,,,,,,,,,
296590,2022-12-02_22h18.46.897,vts_reward_expectancy_bt,2022.2.4,MacIntel,58.82352941,Safari,1440,900,,,l,3.235,10,576,2,1,5,17,2,1,1,0,0,0,0,0,0,1,triangle,star,,,,,,,,,,,,,,,,,,,,,,,,,,,,,,,,,,,,,,,,,,,,,,,,,,,,,,
296590,2022-12-02_22h18.46.897,vts_reward_expectancy_bt,2022.2.4,MacIntel,58.82352941,Safari,1440,900,,,l,3.133,10,586,2,1,6,18,5,1,0,1,0,0,0,0,0,1,circle,star,,,,,,,,,,,,,,,,,,,,,,,,,,,,,,,,,,,,,,,,,,,,,,,,,,,,,,
296590,2022-12-02_22h18.46.897,vts_reward_expectancy_bt,2022.2.4,MacIntel,58.82352941,Safari,1440,900,,,a,1,10,596,2,1,7,19,3,1,0,1,0,0,1,0,0,0,circle,triangle,,,,,,,,,,,,,,,,,,,,,,,,,,,,,,,,,,,,,,,,,,,,,,,,,,,,,,
296590,2022-12-02_22h18.46.897,vts_reward_expectancy_bt,2022.2.4,MacIntel,58.82352941,Safari,1440,900,,,a,1.5,10,606,2,1,8,20,11,1,0,0,0,1,0,0,1,0,star,hexagon,,,,,,,,,,,,,,,,,,,,,,,,,,,,,,,,,,,,,,,,,,,,,,,,,,,,,,
296590,2022-12-02_22h18.46.897,vts_reward_expectancy_bt,2022.2.4,MacIntel,58.82352941,Safari,1440,900,,,a,0.65,10,616,2,1,9,21,10,1,0,0,0,1,0,1,0,0,star ,circle,,,,,,,,,,,,,,,,,,,,,,,,,,,,,,,,,,,,,,,,,,,,,,,,,,,,,,
296590,2022-12-02_22h18.46.897,vts_reward_expectancy_bt,2022.2.4,MacIntel,58.82352941,Safari,1440,900,,,l,1.049,1,617,2,1,10,22,4,1,0,1,0,0,0,0,1,0,circle,hexagon,,,,,,,,,,,,,,,,,,,,,,,,,,,,,,,,,,,,,,,,,,,,,,,,,,,,,,
296590,2022-12-02_22h18.46.897,vts_reward_expectancy_bt,2022.2.4,MacIntel,58.82352941,Safari,1440,900,,,l,1.482,10,627,2,1,11,23,0,1,1,0,0,0,0,1,0,0,triangle,circle,,,,,,,,,,,,,,,,,,,,,,,,,,,,,,,,,,,,,,,,,,,,,,,,,,,,,,
296590,2022-12-02_22h18.46.897,vts_reward_expectancy_bt,2022.2.4,MacIntel,58.82352941,Safari,1440,900,,,a,0.949,10,637,2,2,0,24,5,1,0,1,0,0,0,0,0,1,circle,star,,,,,,,,,,,,,,,,,,,,,,,,,,,,,,,,,,,,,,,,,,,,,,,,,,,,,,
296590,2022-12-02_22h18.46.897,vts_reward_expectancy_bt,2022.2.4,MacIntel,58.82352941,Safari,1440,900,,,l,1.217,10,647,2,2,1,25,2,1,1,0,0,0,0,0,0,1,triangle,star,,,,,,,,,,,,,,,,,,,,,,,,,,,,,,,,,,,,,,,,,,,,,,,,,,,,,,
296590,2022-12-02_22h18.46.897,vts_reward_expectancy_bt,2022.2.4,MacIntel,58.82352941,Safari,1440,900,,,l,1.116,10,657,2,2,2,26,7,1,0,0,1,0,0,1,0,0,hexagon,circle,,,,,,,,,,,,,,,,,,,,,,,,,,,,,,,,,,,,,,,,,,,,,,,,,,,,,,
296590,2022-12-02_22h18.46.897,vts_reward_expectancy_bt,2022.2.4,MacIntel,58.82352941,Safari,1440,900,,,l,1.2,1,658,2,2,3,27,8,1,0,0,1,0,0,0,0,1,hexagon,star,,,,,,,,,,,,,,,,,,,,,,,,,,,,,,,,,,,,,,,,,,,,,,,,,,,,,,
296590,2022-12-02_22h18.46.897,vts_reward_expectancy_bt,2022.2.4,MacIntel,58.82352941,Safari,1440,900,,,l,1.034,1,659,2,2,4,28,1,1,1,0,0,0,0,0,1,0,triangle,hexagon,,,,,,,,,,,,,,,,,,,,,,,,,,,,,,,,,,,,,,,,,,,,,,,,,,,,,,
296590,2022-12-02_22h18.46.897,vts_reward_expectancy_bt,2022.2.4,MacIntel,58.82352941,Safari,1440,900,,,l,1.484,1,660,2,2,5,29,11,1,0,0,0,1,0,0,1,0,star,hexagon,,,,,,,,,,,,,,,,,,,,,,,,,,,,,,,,,,,,,,,,,,,,,,,,,,,,,,
296590,2022-12-02_22h18.46.897,vts_reward_expectancy_bt,2022.2.4,MacIntel,58.82352941,Safari,1440,900,,,a,0.717,1,661,2,2,6,30,10,1,0,0,0,1,0,1,0,0,star ,circle,,,,,,,,,,,,,,,,,,,,,,,,,,,,,,,,,,,,,,,,,,,,,,,,,,,,,,
296590,2022-12-02_22h18.46.897,vts_reward_expectancy_bt,2022.2.4,MacIntel,58.82352941,Safari,1440,900,,,a,1.48,10,671,2,2,7,31,0,1,1,0,0,0,0,1,0,0,triangle,circle,,,,,,,,,,,,,,,,,,,,,,,,,,,,,,,,,,,,,,,,,,,,,,,,,,,,,,
296590,2022-12-02_22h18.46.897,vts_reward_expectancy_bt,2022.2.4,MacIntel,58.82352941,Safari,1440,900,,,a,1.899,10,681,2,2,8,32,4,1,0,1,0,0,0,0,1,0,circle,hexagon,,,,,,,,,,,,,,,,,,,,,,,,,,,,,,,,,,,,,,,,,,,,,,,,,,,,,,
296590,2022-12-02_22h18.46.897,vts_reward_expectancy_bt,2022.2.4,MacIntel,58.82352941,Safari,1440,900,,,a,1.718,1,682,2,2,9,33,6,1,0,0,1,0,1,0,0,0,hexagon,triangle,,,,,,,,,,,,,,,,,,,,,,,,,,,,,,,,,,,,,,,,,,,,,,,,,,,,,,
296590,2022-12-02_22h18.46.897,vts_reward_expectancy_bt,2022.2.4,MacIntel,58.82352941,Safari,1440,900,,,a,0.834,1,683,2,2,10,34,9,1,0,0,0,1,1,0,0,0,star,triangle,,,,,,,,,,,,,,,,,,,,,,,,,,,,,,,,,,,,,,,,,,,,,,,,,,,,,,
296590,2022-12-02_22h18.46.897,vts_reward_expectancy_bt,2022.2.4,MacIntel,58.82352941,Safari,1440,900,,,l,1.357,10,693,2,2,11,35,3,1,0,1,0,0,1,0,0,0,circle,triangle,,,,,,,,,,,,,,,,,,,,,,,,,,,,,,,,,,,,,,,,,,,,,,,,,,,,,,
296590,2022-12-02_22h18.46.897,vts_reward_expectancy_bt,2022.2.4,MacIntel,58.82352941,Safari,1440,900,,,,,,,,,,,,,,,,,,,,,,,125,W,triangle,1,0,d,2.791,0,0,0,0,0,1,,,,,,,,,,,,,,,,,,,,,,,,,,,,,,,,,,,,,,,,,
296590,2022-12-02_22h18.46.897,vts_reward_expectancy_bt,2022.2.4,MacIntel,58.82352941,Safari,1440,900,,,,,,,,,,,,,,,,,,,,,,,132,H,star,1,0,d,0.875,0,1,0,1,0,1,,,,,,,,,,,,,,,,,,,,,,,,,,,,,,,,,,,,,,,,,
296590,2022-12-02_22h18.46.897,vts_reward_expectancy_bt,2022.2.4,MacIntel,58.82352941,Safari,1440,900,,,,,,,,,,,,,,,,,,,,,,,160,U,hexagon,1,0,f,0.977,0,2,0,2,0,1,,,,,,,,,,,,,,,,,,,,,,,,,,,,,,,,,,,,,,,,,
296590,2022-12-02_22h18.46.897,vts_reward_expectancy_bt,2022.2.4,MacIntel,58.82352941,Safari,1440,900,,,,,,,,,,,,,,,,,,,,,,,139,D,circle,1,0,d,1.299,0,3,0,3,0,1,,,,,,,,,,,,,,,,,,,,,,,,,,,,,,,,,,,,,,,,,
296590,2022-12-02_22h18.46.897,vts_reward_expectancy_bt,2022.2.4,MacIntel,58.82352941,Safari,1440,900,,,,,,,,,,,,,,,,,,,,,,,181,S,triangle,1,0,f,0.666,0,4,0,4,0,1,,,,,,,,,,,,,,,,,,,,,,,,,,,,,,,,,,,,,,,,,
296590,2022-12-02_22h18.46.897,vts_reward_expectancy_bt,2022.2.4,MacIntel,58.82352941,Safari,1440,900,,,,,,,,,,,,,,,,,,,,,,,167,B,star,1,0,f,0.944,0,5,0,5,0,1,,,,,,,,,,,,,,,,,,,,,,,,,,,,,,,,,,,,,,,,,
296590,2022-12-02_22h18.46.897,vts_reward_expectancy_bt,2022.2.4,MacIntel,58.82352941,Safari,1440,900,,,,,,,,,,,,,,,,,,,,,,,146,F,hexagon,0,0,f,1.309,0,6,0,6,0,1,,,,,,,,,,,,,,,,,,,,,,,,,,,,,,,,,,,,,,,,,
296590,2022-12-02_22h18.46.897,vts_reward_expectancy_bt,2022.2.4,MacIntel,58.82352941,Safari,1440,900,,,,,,,,,,,,,,,,,,,,,,,174,Y,circle,1,1,f,0.83,0,7,0,7,0,1,,,,,,,,,,,,,,,,,,,,,,,,,,,,,,,,,,,,,,,,,
296590,2022-12-02_22h18.46.897,vts_reward_expectancy_bt,2022.2.4,MacIntel,58.82352941,Safari,1440,900,,,,,,,,,,,,,,,,,,,,,,,125,W,circle,1,0,d,0.626,0,8,0,8,0,1,,,,,,,,,,,,,,,,,,,,,,,,,,,,,,,,,,,,,,,,,
296590,2022-12-02_22h18.46.897,vts_reward_expectancy_bt,2022.2.4,MacIntel,58.82352941,Safari,1440,900,,,,,,,,,,,,,,,,,,,,,,,132,H,hexagon,1,0,d,0.693,0,9,0,9,0,1,,,,,,,,,,,,,,,,,,,,,,,,,,,,,,,,,,,,,,,,,
296590,2022-12-02_22h18.46.897,vts_reward_expectancy_bt,2022.2.4,MacIntel,58.82352941,Safari,1440,900,,,,,,,,,,,,,,,,,,,,,,,139,Y,triangle,1,0,,,1,,,,,,k,0.993,0,0,0,0,1,,,,,,,,,,,,,,,,,,,,,,,,,,,,,,,,,,
296590,2022-12-02_22h18.46.897,vts_reward_expectancy_bt,2022.2.4,MacIntel,58.82352941,Safari,1440,900,,,,,,,,,,,,,,,,,,,,,,,160,U,hexagon,1,0,,,1,,,,,,k,0.693,1,0,1,0,1,,,,,,,,,,,,,,,,,,,,,,,,,,,,,,,,,,
296590,2022-12-02_22h18.46.897,vts_reward_expectancy_bt,2022.2.4,MacIntel,58.82352941,Safari,1440,900,,,,,,,,,,,,,,,,,,,,,,,132,H,circle,1,0,,,1,,,,,,j,0.744,2,0,2,0,1,,,,,,,,,,,,,,,,,,,,,,,,,,,,,,,,,,
296590,2022-12-02_22h18.46.897,vts_reward_expectancy_bt,2022.2.4,MacIntel,58.82352941,Safari,1440,900,,,,,,,,,,,,,,,,,,,,,,,125,B,star,1,0,,,1,,,,,,j,0.658,3,0,3,0,1,,,,,,,,,,,,,,,,,,,,,,,,,,,,,,,,,,
296590,2022-12-02_22h18.46.897,vts_reward_expectancy_bt,2022.2.4,MacIntel,58.82352941,Safari,1440,900,,,,,,,,,,,,,,,,,,,,,,,167,W,triangle,1,0,,,1,,,,,,k,0.679,4,0,4,0,1,,,,,,,,,,,,,,,,,,,,,,,,,,,,,,,,,,
296590,2022-12-02_22h18.46.897,vts_reward_expectancy_bt,2022.2.4,MacIntel,58.82352941,Safari,1440,900,,,,,,,,,,,,,,,,,,,,,,,181,D,hexagon,1,0,,,1,,,,,,j,0.659,5,0,5,0,1,,,,,,,,,,,,,,,,,,,,,,,,,,,,,,,,,,
296590,2022-12-02_22h18.46.897,vts_reward_expectancy_bt,2022.2.4,MacIntel,58.82352941,Safari,1440,900,,,,,,,,,,,,,,,,,,,,,,,174,F,circle,1,0,,,1,,,,,,j,0.742,6,0,6,0,1,,,,,,,,,,,,,,,,,,,,,,,,,,,,,,,,,,
296590,2022-12-02_22h18.46.897,vts_reward_expectancy_bt,2022.2.4,MacIntel,58.82352941,Safari,1440,900,,,,,,,,,,,,,,,,,,,,,,,146,S,star,1,0,,,1,,,,,,k,0.859,7,0,7,0,1,,,,,,,,,,,,,,,,,,,,,,,,,,,,,,,,,,
296590,2022-12-02_22h18.46.897,vts_reward_expectancy_bt,2022.2.4,MacIntel,58.82352941,Safari,1440,900,,,,,,,,,,,,,,,,,,,,,,,139,Y,circle,1,0,,,1,,,,,,k,0.86,8,0,8,0,1,,,,,,,,,,,,,,,,,,,,,,,,,,,,,,,,,,
296590,2022-12-02_22h18.46.897,vts_reward_expectancy_bt,2022.2.4,MacIntel,58.82352941,Safari,1440,900,,,,,,,,,,,,,,,,,,,,,,,160,U,star,1,0,,,1,,,,,,k,0.845,9,0,9,0,1,,,,,,,,,,,,,,,,,,,,,,,,,,,,,,,,,,
296590,2022-12-02_22h18.46.897,vts_reward_expectancy_bt,2022.2.4,MacIntel,58.82352941,Safari,1440,900,,,,,0,693,,,,,,,,,,,,,,,,,139,B,circle,1,0,,,2,,,,,,,,,,,,,-1,number,NA,d,1.873,vtsPrac,0,0,0,0,1,,,,,,,,,,,,,,,,,,,,,,,
296590,2022-12-02_22h18.46.897,vts_reward_expectancy_bt,2022.2.4,MacIntel,58.82352941,Safari,1440,900,,,,,0,693,,,,,,,,,,,,,,,,,174,F,triangle,1,0,,,2,,,,,,,,,,,,,repeat,number,numRpt,f,0.922,vtsPrac,1,0,1,0,1,,,,,,,,,,,,,,,,,,,,,,,
296590,2022-12-02_22h18.46.897,vts_reward_expectancy_bt,2022.2.4,MacIntel,58.82352941,Safari,1440,900,,,,,0,693,,,,,,,,,,,,,,,,,181,U,circle,1,0,,,2,,,,,,,,,,,,,switch,letter,lettSwt,k,0.742,vtsPrac,2,0,2,0,1,,,,,,,,,,,,,,,,,,,,,,,
296590,2022-12-02_22h18.46.897,vts_reward_expectancy_bt,2022.2.4,MacIntel,58.82352941,Safari,1440,900,,,,,0,693,,,,,,,,,,,,,,,,,167,S,triangle,1,0,,,2,,,,,,,,,,,,,switch,number,numSwt,f,0.609,vtsPrac,3,0,3,0,1,,,,,,,,,,,,,,,,,,,,,,,
296590,2022-12-02_22h18.46.897,vts_reward_expectancy_bt,2022.2.4,MacIntel,58.82352941,Safari,1440,900,,,,,0,693,,,,,,,,,,,,,,,,,139,B,hexagon,1,0,,,2,,,,,,,,,,,,,switch,letter,lettSwt,j,0.426,vtsPrac,4,0,4,0,1,,,,,,,,,,,,,,,,,,,,,,,
296590,2022-12-02_22h18.46.897,vts_reward_expectancy_bt,2022.2.4,MacIntel,58.82352941,Safari,1440,900,,,,,0,693,,,,,,,,,,,,,,,,,174,F,circle,1,0,,,2,,,,,,,,,,,,,switch,number,numSwt,f,0.626,vtsPrac,5,0,5,0,1,,,,,,,,,,,,,,,,,,,,,,,
296590,2022-12-02_22h18.46.897,vts_reward_expectancy_bt,2022.2.4,MacIntel,58.82352941,Safari,1440,900,,,,,0,693,,,,,,,,,,,,,,,,,181,U,star,1,0,,,2,,,,,,,,,,,,,repeat,number,numRpt,f,0.478,vtsPrac,6,0,6,0,1,,,,,,,,,,,,,,,,,,,,,,,
296590,2022-12-02_22h18.46.897,vts_reward_expectancy_bt,2022.2.4,MacIntel,58.82352941,Safari,1440,900,,,,,0,693,,,,,,,,,,,,,,,,,167,S,circle,1,0,,,2,,,,,,,,,,,,,switch,letter,lettSwt,k,0.559,vtsPrac,7,0,7,0,1,,,,,,,,,,,,,,,,,,,,,,,
296590,2022-12-02_22h18.46.897,vts_reward_expectancy_bt,2022.2.4,MacIntel,58.82352941,Safari,1440,900,,,,,0,693,,,,,,,,,,,,,,,,,181,B,triangle,1,0,,,2,,,,,,,,,,,,,switch,number,numSwt,f,0.595,vtsPrac,8,0,8,0,1,,,,,,,,,,,,,,,,,,,,,,,
296590,2022-12-02_22h18.46.897,vts_reward_expectancy_bt,2022.2.4,MacIntel,58.82352941,Safari,1440,900,,,,,0,693,,,,,,,,,,,,,,,,,160,S,star,1,0,,,2,,,,,,,,,,,,,switch,letter,lettSwt,k,0.726,vtsPrac,9,0,9,0,1,,,,,,,,,,,,,,,,,,,,,,,
296590,2022-12-02_22h18.46.897,vts_reward_expectancy_bt,2022.2.4,MacIntel,58.82352941,Safari,1440,900,,,,,0,693,,,,,,,,,,,,,,,,,125,F,star,1,0,,,2,,,,,,,,,,,,,repeat,letter,lettRpt,j,0.642,vtsPrac,10,0,10,0,1,,,,,,,,,,,,,,,,,,,,,,,
296590,2022-12-02_22h18.46.897,vts_reward_expectancy_bt,2022.2.4,MacIntel,58.82352941,Safari,1440,900,,,,,0,693,,,,,,,,,,,,,,,,,132,Y,hexagon,1,0,,,2,,,,,,,,,,,,,switch,number,numSwt,d,0.796,vtsPrac,11,0,11,0,1,,,,,,,,,,,,,,,,,,,,,,,
296590,2022-12-02_22h18.46.897,vts_reward_expectancy_bt,2022.2.4,MacIntel,58.82352941,Safari,1440,900,,,,,0,693,,,,,,,,,,,,,,,,,167,F,star,1,0,,,2,,,,,,,,,,,,,repeat,number,numRpt,f,0.551,vtsPrac,12,0,12,0,1,,,,,,,,,,,,,,,,,,,,,,,
296590,2022-12-02_22h18.46.897,vts_reward_expectancy_bt,2022.2.4,MacIntel,58.82352941,Safari,1440,900,,,,,0,693,,,,,,,,,,,,,,,,,125,U,hexagon,1,0,,,2,,,,,,,,,,,,,switch,letter,lettSwt,k,0.992,vtsPrac,13,0,13,0,1,,,,,,,,,,,,,,,,,,,,,,,
296590,2022-12-02_22h18.46.897,vts_reward_expectancy_bt,2022.2.4,MacIntel,58.82352941,Safari,1440,900,,,,,0,693,,,,,,,,,,,,,,,,,132,S,hexagon,1,0,,,2,,,,,,,,,,,,,switch,number,numSwt,d,0.593,vtsPrac,14,0,14,0,1,,,,,,,,,,,,,,,,,,,,,,,
296590,2022-12-02_22h18.46.897,vts_reward_expectancy_bt,2022.2.4,MacIntel,58.82352941,Safari,1440,900,,,,,0,693,,,,,,,,,,,,,,,,,181,W,circle,1,0,,,2,,,,,,,,,,,,,switch,letter,lettSwt,k,0.684,vtsPrac,15,0,15,0,1,,,,,,,,,,,,,,,,,,,,,,,
296590,2022-12-02_22h18.46.897,vts_reward_expectancy_bt,2022.2.4,MacIntel,58.82352941,Safari,1440,900,,,,,0,693,,,,,,,,,,,,,,,,,139,D,circle,1,0,,,2,,,,,,,,,,,,,repeat,letter,lettRpt,j,0.659,vtsPrac,16,0,16,0,1,,,,,,,,,,,,,,,,,,,,,,,
296590,2022-12-02_22h18.46.897,vts_reward_expectancy_bt,2022.2.4,MacIntel,58.82352941,Safari,1440,900,,,,,0,693,,,,,,,,,,,,,,,,,167,W,triangle,1,0,,,2,,,,,,,,,,,,,switch,number,numSwt,f,0.727,vtsPrac,17,0,17,0,1,,,,,,,,,,,,,,,,,,,,,,,
296590,2022-12-02_22h18.46.897,vts_reward_expectancy_bt,2022.2.4,MacIntel,58.82352941,Safari,1440,900,,,,,0,693,,,,,,,,,,,,,,,,,146,U,triangle,1,0,,,2,,,,,,,,,,,,,repeat,number,numRpt,d,0.675,vtsPrac,18,0,18,0,1,,,,,,,,,,,,,,,,,,,,,,,
296590,2022-12-02_22h18.46.897,vts_reward_expectancy_bt,2022.2.4,MacIntel,58.82352941,Safari,1440,900,,,,,0,693,,,,,,,,,,,,,,,,,181,B,star,1,0,,,2,,,,,,,,,,,,,switch,letter,lettSwt,j,0.616,vtsPrac,19,0,19,0,1,,,,,,,,,,,,,,,,,,,,,,,
296590,2022-12-02_22h18.46.897,vts_reward_expectancy_bt,2022.2.4,MacIntel,58.82352941,Safari,1440,900,,,,,0,693,,,,,,,,,,,,,,,,,132,D,hexagon,1,0,,,2,,,,,,,,,,,,,repeat,letter,lettRpt,j,0.659,vtsPrac,20,0,20,0,1,,,,,,,,,,,,,,,,,,,,,,,
296590,2022-12-02_22h18.46.897,vts_reward_expectancy_bt,2022.2.4,MacIntel,58.82352941,Safari,1440,900,,,,,0,693,,,,,,,,,,,,,,,,,139,B,circle,1,0,,,2,,,,,,,,,,,,,switch,number,numSwt,d,0.694,vtsPrac,21,0,21,0,1,,,,,,,,,,,,,,,,,,,,,,,
296590,2022-12-02_22h18.46.897,vts_reward_expectancy_bt,2022.2.4,MacIntel,58.82352941,Safari,1440,900,,,,,0,693,,,,,,,,,,,,,,,,,146,F,circle,1,0,,,2,,,,,,,,,,,,,switch,letter,lettSwt,j,0.658,vtsPrac,22,0,22,0,1,,,,,,,,,,,,,,,,,,,,,,,
296590,2022-12-02_22h18.46.897,vts_reward_expectancy_bt,2022.2.4,MacIntel,58.82352941,Safari,1440,900,,,,,0,693,,,,,,,,,,,,,,,,,167,U,hexagon,1,0,,,2,,,,,,,,,,,,,switch,number,numSwt,f,0.494,vtsPrac,23,0,23,0,1,,,,,,,,,,,,,,,,,,,,,,,
296590,2022-12-02_22h18.46.897,vts_reward_expectancy_bt,2022.2.4,MacIntel,58.82352941,Safari,1440,900,,,,,0,693,,,,,,,,,,,,,,,,,167,F,star,1,0,,,2,,,,,,,,,,,,,repeat,number,numRpt,f,0.563,vtsPrac,24,0,24,0,1,,,,,,,,,,,,,,,,,,,,,,,
296590,2022-12-02_22h18.46.897,vts_reward_expectancy_bt,2022.2.4,MacIntel,58.82352941,Safari,1440,900,,,,,0,693,,,,,,,,,,,,,,,,,146,S,circle,1,0,,,2,,,,,,,,,,,,,switch,letter,lettSwt,k,0.761,vtsPrac,25,0,25,0,1,,,,,,,,,,,,,,,,,,,,,,,
296590,2022-12-02_22h18.46.897,vts_reward_expectancy_bt,2022.2.4,MacIntel,58.82352941,Safari,1440,900,,,,,0,693,,,,,,,,,,,,,,,,,174,U,hexagon,1,0,,,2,,,,,,,,,,,,,repeat,letter,lettRpt,k,0.626,vtsPrac,26,0,26,0,1,,,,,,,,,,,,,,,,,,,,,,,
296590,2022-12-02_22h18.46.897,vts_reward_expectancy_bt,2022.2.4,MacIntel,58.82352941,Safari,1440,900,,,,,0,693,,,,,,,,,,,,,,,,,181,B,triangle,1,0,,,2,,,,,,,,,,,,,repeat,letter,lettRpt,j,0.576,vtsPrac,27,0,27,0,1,,,,,,,,,,,,,,,,,,,,,,,
296590,2022-12-02_22h18.46.897,vts_reward_expectancy_bt,2022.2.4,MacIntel,58.82352941,Safari,1440,900,,,,,0,693,,,,,,,,,,,,,,,,,125,U,triangle,1,0,,,2,,,,,,,,,,,,,switch,number,numSwt,d,1.968,vtsPrac,28,0,28,0,1,,,,,,,,,,,,,,,,,,,,,,,
296590,2022-12-02_22h18.46.897,vts_reward_expectancy_bt,2022.2.4,MacIntel,58.82352941,Safari,1440,900,,,,,0,693,,,,,,,,,,,,,,,,,132,S,hexagon,1,0,,,2,,,,,,,,,,,,,repeat,number,numRpt,d,0.657,vtsPrac,29,0,29,0,1,,,,,,,,,,,,,,,,,,,,,,,
296590,2022-12-02_22h18.46.897,vts_reward_expectancy_bt,2022.2.4,MacIntel,58.82352941,Safari,1440,900,,,,,0,693,,,,,,,,,,,,,,,,,167,D,circle,1,0,,,2,,,,,,,,,,,,,repeat,number,numRpt,f,0.757,vtsPrac,30,0,30,0,1,,,,,,,,,,,,,,,,,,,,,,,
296590,2022-12-02_22h18.46.897,vts_reward_expectancy_bt,2022.2.4,MacIntel,58.82352941,Safari,1440,900,,,,,0,693,,,,,,,,,,,,,,,,,160,Y,triangle,1,0,,,2,,,,,,,,,,,,,switch,letter,lettSwt,k,0.825,vtsPrac,31,0,31,0,1,,,,,,,,,,,,,,,,,,,,,,,
296590,2022-12-02_22h18.46.897,vts_reward_expectancy_bt,2022.2.4,MacIntel,58.82352941,Safari,1440,900,,,,,,,,,,,,,,,,,,,,,,,,,,,,,,,,,,,,,,,,,,,,,,,,,,,,,,,,,,,,,,,,,,,,,,,,,,,,
296590,2022-12-02_22h18.46.897,vts_reward_expectancy_bt,2022.2.4,MacIntel,58.82352941,Safari,1440,900,,,,,,,,,,,,,,,,,,,,,,,,,,,,,,,,,,,,,,,,,,,,,,,,,,,,,,,,,,,,,,,,,,,,,,,,,,,,
296590,2022-12-02_22h18.46.897,vts_reward_expectancy_bt,2022.2.4,MacIntel,58.82352941,Safari,1440,900,,,,,0,693,,,,,,,,,,,,,,,,,167,W,hexagon,1,0,,,,,,,,,,,,,,,,repeat,letter,lettRpt,k,1.159,noRew,,,,,,0,0,0,0,0,1,,,,,,,,,,,,,,,,,
296590,2022-12-02_22h18.46.897,vts_reward_expectancy_bt,2022.2.4,MacIntel,58.82352941,Safari,1440,900,,,,,0,693,,,,,,,,,,,,,,,,,139,U,star,0,0,,,,,,,,,,,,,,,,repeat,letter,NA,j,0.597,noRew,,,,,,0,1,0,1,0,1,,,,,,,,,,,,,,,,,
296590,2022-12-02_22h18.46.897,vts_reward_expectancy_bt,2022.2.4,MacIntel,58.82352941,Safari,1440,900,,,,,0,693,,,,,,,,,,,,,,,,,132,F,hexagon,1,1,,,,,,,,,,,,,,,,switch,number,numSwt,d,0.959,noRew,,,,,,0,2,0,2,0,1,,,,,,,,,,,,,,,,,
296590,2022-12-02_22h18.46.897,vts_reward_expectancy_bt,2022.2.4,MacIntel,58.82352941,Safari,1440,900,,,,,0,693,,,,,,,,,,,,,,,,,174,B,star,1,0,,,,,,,,,,,,,,,,repeat,number,numRpt,f,1.258,noRew,,,,,,0,3,0,3,0,1,,,,,,,,,,,,,,,,,
296590,2022-12-02_22h18.46.897,vts_reward_expectancy_bt,2022.2.4,MacIntel,58.82352941,Safari,1440,900,,,,,0,693,,,,,,,,,,,,,,,,,167,W,triangle,1,0,,,,,,,,,,,,,,,,switch,letter,lettSwt,k,0.732,noRew,,,,,,0,4,0,4,0,1,,,,,,,,,,,,,,,,,
296590,2022-12-02_22h18.46.897,vts_reward_expectancy_bt,2022.2.4,MacIntel,58.82352941,Safari,1440,900,,,,,0,693,,,,,,,,,,,,,,,,,139,U,hexagon,1,0,,,,,,,,,,,,,,,,repeat,letter,lettRpt,k,0.862,noRew,,,,,,0,5,0,5,0,1,,,,,,,,,,,,,,,,,
296590,2022-12-02_22h18.46.897,vts_reward_expectancy_bt,2022.2.4,MacIntel,58.82352941,Safari,1440,900,,,,,0,693,,,,,,,,,,,,,,,,,132,F,star,1,0,,,,,,,,,,,,,,,,repeat,letter,lettRpt,j,0.933,noRew,,,,,,0,6,0,6,0,1,,,,,,,,,,,,,,,,,
296590,2022-12-02_22h18.46.897,vts_reward_expectancy_bt,2022.2.4,MacIntel,58.82352941,Safari,1440,900,,,,,0,693,,,,,,,,,,,,,,,,,174,B,hexagon,1,0,,,,,,,,,,,,,,,,switch,number,numSwt,f,0.567,noRew,,,,,,0,7,0,7,0,1,,,,,,,,,,,,,,,,,
296590,2022-12-02_22h18.46.897,vts_reward_expectancy_bt,2022.2.4,MacIntel,58.82352941,Safari,1440,900,,,,,0,693,,,,,,,,,,,,,,,,,174,H,star,1,0,,,,,,,,,,,,,,,,repeat,number,numRpt,f,0.829,noRew,,,,,,0,8,0,8,0,1,,,,,,,,,,,,,,,,,
296590,2022-12-02_22h18.46.897,vts_reward_expectancy_bt,2022.2.4,MacIntel,58.82352941,Safari,1440,900,,,,,0,693,,,,,,,,,,,,,,,,,167,B,triangle,1,0,,,,,,,,,,,,,,,,repeat,number,numRpt,f,0.675,noRew,,,,,,0,9,0,9,0,1,,,,,,,,,,,,,,,,,
296590,2022-12-02_22h18.46.897,vts_reward_expectancy_bt,2022.2.4,MacIntel,58.82352941,Safari,1440,900,,,,,0,693,,,,,,,,,,,,,,,,,146,Y,circle,0,0,,,,,,,,,,,,,,,,switch,letter,NA,j,0.584,noRew,,,,,,0,10,0,10,0,1,,,,,,,,,,,,,,,,,
296590,2022-12-02_22h18.46.897,vts_reward_expectancy_bt,2022.2.4,MacIntel,58.82352941,Safari,1440,900,,,,,0,693,,,,,,,,,,,,,,,,,160,U,hexagon,1,1,,,,,,,,,,,,,,,,repeat,letter,lettRpt,k,0.641,noRew,,,,,,0,11,0,11,0,1,,,,,,,,,,,,,,,,,
296590,2022-12-02_22h18.46.897,vts_reward_expectancy_bt,2022.2.4,MacIntel,58.82352941,Safari,1440,900,,,,,0,693,,,,,,,,,,,,,,,,,160,H,hexagon,1,0,,,,,,,,,,,,,,,,repeat,letter,lettRpt,j,0.946,noRew,,,,,,0,12,0,12,0,1,,,,,,,,,,,,,,,,,
296590,2022-12-02_22h18.46.897,vts_reward_expectancy_bt,2022.2.4,MacIntel,58.82352941,Safari,1440,900,,,,,0,693,,,,,,,,,,,,,,,,,139,Y,triangle,1,0,,,,,,,,,,,,,,,,switch,number,numSwt,d,1.427,noRew,,,,,,0,13,0,13,0,1,,,,,,,,,,,,,,,,,
296590,2022-12-02_22h18.46.897,vts_reward_expectancy_bt,2022.2.4,MacIntel,58.82352941,Safari,1440,900,,,,,0,693,,,,,,,,,,,,,,,,,174,B,triangle,1,0,,,,,,,,,,,,,,,,repeat,number,numRpt,f,0.747,noRew,,,,,,0,14,0,14,0,1,,,,,,,,,,,,,,,,,
296590,2022-12-02_22h18.46.897,vts_reward_expectancy_bt,2022.2.4,MacIntel,58.82352941,Safari,1440,900,,,,,0,693,,,,,,,,,,,,,,,,,132,U,star,1,0,,,,,,,,,,,,,,,,switch,letter,lettSwt,k,1.548,noRew,,,,,,0,15,0,15,0,1,,,,,,,,,,,,,,,,,
296590,2022-12-02_22h18.46.897,vts_reward_expectancy_bt,2022.2.4,MacIntel,58.82352941,Safari,1440,900,,,,,0,693,,,,,,,,,,,,,,,,,146,Y,circle,1,0,,,,,,,,,,,,,,,,switch,number,numSwt,d,0.843,noRew,,,,,,0,16,0,16,0,1,,,,,,,,,,,,,,,,,
296590,2022-12-02_22h18.46.897,vts_reward_expectancy_bt,2022.2.4,MacIntel,58.82352941,Safari,1440,900,,,,,0,693,,,,,,,,,,,,,,,,,139,F,triangle,1,0,,,,,,,,,,,,,,,,switch,letter,lettSwt,j,0.693,noRew,,,,,,0,17,0,17,0,1,,,,,,,,,,,,,,,,,
296590,2022-12-02_22h18.46.897,vts_reward_expectancy_bt,2022.2.4,MacIntel,58.82352941,Safari,1440,900,,,,,0,693,,,,,,,,,,,,,,,,,167,H,star,1,0,,,,,,,,,,,,,,,,repeat,letter,lettRpt,j,0.713,noRew,,,,,,0,18,0,18,0,1,,,,,,,,,,,,,,,,,
296590,2022-12-02_22h18.46.897,vts_reward_expectancy_bt,2022.2.4,MacIntel,58.82352941,Safari,1440,900,,,,,0,693,,,,,,,,,,,,,,,,,125,W,hexagon,1,0,,,,,,,,,,,,,,,,switch,number,numSwt,d,0.942,noRew,,,,,,0,19,0,19,0,1,,,,,,,,,,,,,,,,,
296590,2022-12-02_22h18.46.897,vts_reward_expectancy_bt,2022.2.4,MacIntel,58.82352941,Safari,1440,900,,,,,0,693,,,,,,,,,,,,,,,,,174,Y,triangle,1,0,,,,,,,,,,,,,,,,repeat,number,numRpt,f,0.717,noRew,,,,,,0,20,0,20,0,1,,,,,,,,,,,,,,,,,
296590,2022-12-02_22h18.46.897,vts_reward_expectancy_bt,2022.2.4,MacIntel,58.82352941,Safari,1440,900,,,,,0,693,,,,,,,,,,,,,,,,,132,B,circle,1,0,,,,,,,,,,,,,,,,repeat,number,numRpt,d,0.811,noRew,,,,,,0,21,0,21,0,1,,,,,,,,,,,,,,,,,
296590,2022-12-02_22h18.46.897,vts_reward_expectancy_bt,2022.2.4,MacIntel,58.82352941,Safari,1440,900,,,,,0,693,,,,,,,,,,,,,,,,,125,W,circle,1,0,,,,,,,,,,,,,,,,switch,letter,lettSwt,k,1.028,noRew,,,,,,0,22,0,22,0,1,,,,,,,,,,,,,,,,,
296590,2022-12-02_22h18.46.897,vts_reward_expectancy_bt,2022.2.4,MacIntel,58.82352941,Safari,1440,900,,,,,0,693,,,,,,,,,,,,,,,,,181,H,triangle,1,0,,,,,,,,,,,,,,,,repeat,letter,lettRpt,j,1.342,noRew,,,,,,0,23,0,23,0,1,,,,,,,,,,,,,,,,,
296590,2022-12-02_22h18.46.897,vts_reward_expectancy_bt,2022.2.4,MacIntel,58.82352941,Safari,1440,900,,,,,0,693,,,,,,,,,,,,,,,,,132,Y,triangle,1,0,,,,,,,,,,,,,,,,repeat,letter,lettRpt,k,1.277,noRew,,,,,,0,24,0,24,0,1,,,,,,,,,,,,,,,,,
296590,2022-12-02_22h18.46.897,vts_reward_expectancy_bt,2022.2.4,MacIntel,58.82352941,Safari,1440,900,,,,,0,693,,,,,,,,,,,,,,,,,146,F,star,1,0,,,,,,,,,,,,,,,,switch,number,numSwt,d,0.859,noRew,,,,,,0,25,0,25,0,1,,,,,,,,,,,,,,,,,
296590,2022-12-02_22h18.46.897,vts_reward_expectancy_bt,2022.2.4,MacIntel,58.82352941,Safari,1440,900,,,,,0,693,,,,,,,,,,,,,,,,,139,B,triangle,1,0,,,,,,,,,,,,,,,,switch,letter,lettSwt,j,0.716,noRew,,,,,,0,26,0,26,0,1,,,,,,,,,,,,,,,,,
296590,2022-12-02_22h18.46.897,vts_reward_expectancy_bt,2022.2.4,MacIntel,58.82352941,Safari,1440,900,,,,,0,693,,,,,,,,,,,,,,,,,125,W,hexagon,1,0,,,,,,,,,,,,,,,,switch,number,numSwt,d,0.742,noRew,,,,,,0,27,0,27,0,1,,,,,,,,,,,,,,,,,
296590,2022-12-02_22h18.46.897,vts_reward_expectancy_bt,2022.2.4,MacIntel,58.82352941,Safari,1440,900,,,,,0,693,,,,,,,,,,,,,,,,,181,B,star,1,0,,,,,,,,,,,,,,,,repeat,number,numRpt,f,1.933,noRew,,,,,,0,28,0,28,0,1,,,,,,,,,,,,,,,,,
296590,2022-12-02_22h18.46.897,vts_reward_expectancy_bt,2022.2.4,MacIntel,58.82352941,Safari,1440,900,,,,,0,693,,,,,,,,,,,,,,,,,174,D,hexagon,1,0,,,,,,,,,,,,,,,,repeat,number,numRpt,f,0.659,noRew,,,,,,0,29,0,29,0,1,,,,,,,,,,,,,,,,,
296590,2022-12-02_22h18.46.897,vts_reward_expectancy_bt,2022.2.4,MacIntel,58.82352941,Safari,1440,900,,,,,0,693,,,,,,,,,,,,,,,,,160,U,hexagon,1,0,,,,,,,,,,,,,,,,switch,letter,lettSwt,k,1.094,noRew,,,,,,0,30,0,30,0,1,,,,,,,,,,,,,,,,,
296590,2022-12-02_22h18.46.897,vts_reward_expectancy_bt,2022.2.4,MacIntel,58.82352941,Safari,1440,900,,,,,0,693,,,,,,,,,,,,,,,,,167,F,star,1,0,,,,,,,,,,,,,,,,repeat,letter,lettRpt,j,0.891,noRew,,,,,,0,31,0,31,0,1,,,,,,,,,,,,,,,,,
296590,2022-12-02_22h18.46.897,vts_reward_expectancy_bt,2022.2.4,MacIntel,58.82352941,Safari,1440,900,,,,,0,693,,,,,,,,,,,,,,,,,125,F,hexagon,1,0,,,,,,,,,,,,,,,,switch,number,numSwt,d,0.927,noRew,,,,,,0,32,0,32,0,1,,,,,,,,,,,,,,,,,
296590,2022-12-02_22h18.46.897,vts_reward_expectancy_bt,2022.2.4,MacIntel,58.82352941,Safari,1440,900,,,,,0,693,,,,,,,,,,,,,,,,,174,B,triangle,1,0,,,,,,,,,,,,,,,,repeat,number,numRpt,f,1.218,noRew,,,,,,0,33,0,33,0,1,,,,,,,,,,,,,,,,,
296590,2022-12-02_22h18.46.897,vts_reward_expectancy_bt,2022.2.4,MacIntel,58.82352941,Safari,1440,900,,,,,0,693,,,,,,,,,,,,,,,,,139,Y,circle,1,0,,,,,,,,,,,,,,,,switch,letter,lettSwt,k,1.2,noRew,,,,,,0,34,0,34,0,1,,,,,,,,,,,,,,,,,
296590,2022-12-02_22h18.46.897,vts_reward_expectancy_bt,2022.2.4,MacIntel,58.82352941,Safari,1440,900,,,,,0,693,,,,,,,,,,,,,,,,,181,U,triangle,1,0,,,,,,,,,,,,,,,,switch,number,numSwt,f,1.002,noRew,,,,,,0,35,0,35,0,1,,,,,,,,,,,,,,,,,
296590,2022-12-02_22h18.46.897,vts_reward_expectancy_bt,2022.2.4,MacIntel,58.82352941,Safari,1440,900,,,,,0,693,,,,,,,,,,,,,,,,,132,W,circle,1,0,,,,,,,,,,,,,,,,switch,letter,lettSwt,k,1.027,noRew,,,,,,0,36,0,36,0,1,,,,,,,,,,,,,,,,,
296590,2022-12-02_22h18.46.897,vts_reward_expectancy_bt,2022.2.4,MacIntel,58.82352941,Safari,1440,900,,,,,0,693,,,,,,,,,,,,,,,,,167,Y,hexagon,1,0,,,,,,,,,,,,,,,,repeat,letter,lettRpt,k,0.861,noRew,,,,,,0,37,0,37,0,1,,,,,,,,,,,,,,,,,
296590,2022-12-02_22h18.46.897,vts_reward_expectancy_bt,2022.2.4,MacIntel,58.82352941,Safari,1440,900,,,,,0,693,,,,,,,,,,,,,,,,,139,U,triangle,1,0,,,,,,,,,,,,,,,,repeat,letter,lettRpt,k,0.826,noRew,,,,,,0,38,0,38,0,1,,,,,,,,,,,,,,,,,
296590,2022-12-02_22h18.46.897,vts_reward_expectancy_bt,2022.2.4,MacIntel,58.82352941,Safari,1440,900,,,,,0,693,,,,,,,,,,,,,,,,,125,F,hexagon,1,0,,,,,,,,,,,,,,,,switch,number,numSwt,d,0.814,noRew,,,,,,0,39,0,39,0,1,,,,,,,,,,,,,,,,,
296590,2022-12-02_22h18.46.897,vts_reward_expectancy_bt,2022.2.4,MacIntel,58.82352941,Safari,1440,900,,,,,0,693,,,,,,,,,,,,,,,,,160,B,star,1,0,,,,,,,,,,,,,,,,switch,letter,lettSwt,j,0.742,noRew,,,,,,0,40,0,40,0,1,,,,,,,,,,,,,,,,,
296590,2022-12-02_22h18.46.897,vts_reward_expectancy_bt,2022.2.4,MacIntel,58.82352941,Safari,1440,900,,,,,0,693,,,,,,,,,,,,,,,,,146,S,triangle,1,0,,,,,,,,,,,,,,,,switch,number,numSwt,d,1.043,noRew,,,,,,0,41,0,41,0,1,,,,,,,,,,,,,,,,,
296590,2022-12-02_22h18.46.897,vts_reward_expectancy_bt,2022.2.4,MacIntel,58.82352941,Safari,1440,900,,,,,0,693,,,,,,,,,,,,,,,,,174,W,circle,1,0,,,,,,,,,,,,,,,,repeat,number,numRpt,f,0.842,noRew,,,,,,0,42,0,42,0,1,,,,,,,,,,,,,,,,,
296590,2022-12-02_22h18.46.897,vts_reward_expectancy_bt,2022.2.4,MacIntel,58.82352941,Safari,1440,900,,,,,0,693,,,,,,,,,,,,,,,,,167,F,triangle,1,0,,,,,,,,,,,,,,,,switch,letter,lettSwt,j,0.627,noRew,,,,,,0,43,0,43,0,1,,,,,,,,,,,,,,,,,
296590,2022-12-02_22h18.46.897,vts_reward_expectancy_bt,2022.2.4,MacIntel,58.82352941,Safari,1440,900,,,,,0,693,,,,,,,,,,,,,,,,,146,U,circle,1,0,,,,,,,,,,,,,,,,repeat,letter,lettRpt,k,0.997,noRew,,,,,,0,44,0,44,0,1,,,,,,,,,,,,,,,,,
296590,2022-12-02_22h18.46.897,vts_reward_expectancy_bt,2022.2.4,MacIntel,58.82352941,Safari,1440,900,,,,,0,693,,,,,,,,,,,,,,,,,125,W,hexagon,1,0,,,,,,,,,,,,,,,,repeat,letter,lettRpt,k,0.967,noRew,,,,,,0,45,0,45,0,1,,,,,,,,,,,,,,,,,
296590,2022-12-02_22h18.46.897,vts_reward_expectancy_bt,2022.2.4,MacIntel,58.82352941,Safari,1440,900,,,,,0,693,,,,,,,,,,,,,,,,,132,F,triangle,1,0,,,,,,,,,,,,,,,,repeat,letter,lettRpt,j,0.792,noRew,,,,,,0,46,0,46,0,1,,,,,,,,,,,,,,,,,
296590,2022-12-02_22h18.46.897,vts_reward_expectancy_bt,2022.2.4,MacIntel,58.82352941,Safari,1440,900,,,,,0,693,,,,,,,,,,,,,,,,,181,B,hexagon,1,0,,,,,,,,,,,,,,,,repeat,letter,lettRpt,j,0.743,noRew,,,,,,0,47,0,47,0,1,,,,,,,,,,,,,,,,,
296590,2022-12-02_22h18.46.897,vts_reward_expectancy_bt,2022.2.4,MacIntel,58.82352941,Safari,1440,900,,,,,0,693,,,,,,,,,,,,,,,,,125,D,star,0,0,,,,,,,,,,,,,,,,repeat,letter,NA,k,1.059,noRew,,,,,,0,48,0,48,0,1,,,,,,,,,,,,,,,,,
296590,2022-12-02_22h18.46.897,vts_reward_expectancy_bt,2022.2.4,MacIntel,58.82352941,Safari,1440,900,,,,,0,693,,,,,,,,,,,,,,,,,167,F,circle,1,1,,,,,,,,,,,,,,,,repeat,letter,lettRpt,j,1.025,noRew,,,,,,0,49,0,49,0,1,,,,,,,,,,,,,,,,,
296590,2022-12-02_22h18.46.897,vts_reward_expectancy_bt,2022.2.4,MacIntel,58.82352941,Safari,1440,900,,,,,0,693,,,,,,,,,,,,,,,,,160,B,star,1,0,,,,,,,,,,,,,,,,switch,number,numSwt,f,1.294,noRew,,,,,,0,50,0,50,0,1,,,,,,,,,,,,,,,,,
296590,2022-12-02_22h18.46.897,vts_reward_expectancy_bt,2022.2.4,MacIntel,58.82352941,Safari,1440,900,,,,,0,693,,,,,,,,,,,,,,,,,139,H,circle,1,0,,,,,,,,,,,,,,,,switch,letter,lettSwt,j,0.758,noRew,,,,,,0,51,0,51,0,1,,,,,,,,,,,,,,,,,
296590,2022-12-02_22h18.46.897,vts_reward_expectancy_bt,2022.2.4,MacIntel,58.82352941,Safari,1440,900,,,,,0,693,,,,,,,,,,,,,,,,,146,D,triangle,1,0,,,,,,,,,,,,,,,,switch,number,numSwt,d,1.328,noRew,,,,,,0,52,0,52,0,1,,,,,,,,,,,,,,,,,
296590,2022-12-02_22h18.46.897,vts_reward_expectancy_bt,2022.2.4,MacIntel,58.82352941,Safari,1440,900,,,,,0,693,,,,,,,,,,,,,,,,,167,U,star,1,0,,,,,,,,,,,,,,,,repeat,number,numRpt,f,0.816,noRew,,,,,,0,53,0,53,0,1,,,,,,,,,,,,,,,,,
296590,2022-12-02_22h18.46.897,vts_reward_expectancy_bt,2022.2.4,MacIntel,58.82352941,Safari,1440,900,,,,,0,693,,,,,,,,,,,,,,,,,160,H,circle,1,0,,,,,,,,,,,,,,,,repeat,number,numRpt,f,0.909,noRew,,,,,,0,54,0,54,0,1,,,,,,,,,,,,,,,,,
296590,2022-12-02_22h18.46.897,vts_reward_expectancy_bt,2022.2.4,MacIntel,58.82352941,Safari,1440,900,,,,,0,693,,,,,,,,,,,,,,,,,125,S,star,1,0,,,,,,,,,,,,,,,,repeat,number,numRpt,d,1.445,noRew,,,,,,0,55,0,55,0,1,,,,,,,,,,,,,,,,,
296590,2022-12-02_22h18.46.897,vts_reward_expectancy_bt,2022.2.4,MacIntel,58.82352941,Safari,1440,900,,,,,0,693,,,,,,,,,,,,,,,,,174,W,hexagon,1,0,,,,,,,,,,,,,,,,repeat,number,numRpt,f,0.943,noRew,,,,,,0,56,0,56,0,1,,,,,,,,,,,,,,,,,
296590,2022-12-02_22h18.46.897,vts_reward_expectancy_bt,2022.2.4,MacIntel,58.82352941,Safari,1440,900,,,,,0,693,,,,,,,,,,,,,,,,,139,H,circle,1,0,,,,,,,,,,,,,,,,switch,letter,lettSwt,j,1.092,noRew,,,,,,0,57,0,57,0,1,,,,,,,,,,,,,,,,,
296590,2022-12-02_22h18.46.897,vts_reward_expectancy_bt,2022.2.4,MacIntel,58.82352941,Safari,1440,900,,,,,0,693,,,,,,,,,,,,,,,,,160,B,hexagon,1,0,,,,,,,,,,,,,,,,repeat,letter,lettRpt,j,0.576,noRew,,,,,,0,58,0,58,0,1,,,,,,,,,,,,,,,,,
296590,2022-12-02_22h18.46.897,vts_reward_expectancy_bt,2022.2.4,MacIntel,58.82352941,Safari,1440,900,,,,,0,693,,,,,,,,,,,,,,,,,167,Y,star,1,0,,,,,,,,,,,,,,,,repeat,letter,lettRpt,k,1.627,noRew,,,,,,0,59,0,59,0,1,,,,,,,,,,,,,,,,,
296590,2022-12-02_22h18.46.897,vts_reward_expectancy_bt,2022.2.4,MacIntel,58.82352941,Safari,1440,900,,,,,0,693,,,,,,,,,,,,,,,,,181,B,star,1,0,,,,,,,,,,,,,,,,repeat,letter,lettRpt,j,0.743,noRew,,,,,,0,60,0,60,0,1,,,,,,,,,,,,,,,,,
296590,2022-12-02_22h18.46.897,vts_reward_expectancy_bt,2022.2.4,MacIntel,58.82352941,Safari,1440,900,,,,,0,693,,,,,,,,,,,,,,,,,167,W,triangle,1,0,,,,,,,,,,,,,,,,switch,number,numSwt,f,1.744,noRew,,,,,,0,61,0,61,0,1,,,,,,,,,,,,,,,,,
296590,2022-12-02_22h18.46.897,vts_reward_expectancy_bt,2022.2.4,MacIntel,58.82352941,Safari,1440,900,,,,,0,693,,,,,,,,,,,,,,,,,146,F,circle,1,0,,,,,,,,,,,,,,,,switch,letter,lettSwt,j,2.377,noRew,,,,,,0,62,0,62,0,1,,,,,,,,,,,,,,,,,
296590,2022-12-02_22h18.46.897,vts_reward_expectancy_bt,2022.2.4,MacIntel,58.82352941,Safari,1440,900,,,,,0,693,,,,,,,,,,,,,,,,,160,S,hexagon,1,0,,,,,,,,,,,,,,,,switch,number,numSwt,f,0.56,noRew,,,,,,0,63,0,63,0,1,,,,,,,,,,,,,,,,,
296590,2022-12-02_22h18.46.897,vts_reward_expectancy_bt,2022.2.4,MacIntel,58.82352941,Safari,1440,900,,,,,,,,,,,,,,,,,,,,,,,,,,,,,,,,,,,,,,,,,,,,,,,,,,,,,,,,,,,,,,,,,,,,,,,,,,,,
296590,2022-12-02_22h18.46.897,vts_reward_expectancy_bt,2022.2.4,MacIntel,58.82352941,Safari,1440,900,,,,,0,693,,,,,,,,,,,,,,,,,174,H,circle,1,0,,,,,,,,,,,,,,,,repeat,number,numRpt,f,1.175,Hi,,,,,,0,,,,,,space,9.897,low,0,0,0,0,1,,,,,,,,,
296590,2022-12-02_22h18.46.897,vts_reward_expectancy_bt,2022.2.4,MacIntel,58.82352941,Safari,1440,900,,,,,1,694,,,,,,,,,,,,,,,,,181,W,triangle,1,0,,,,,,,,,,,,,,,,repeat,number,numRpt,f,0.776,Lo,,,,,,0,,,,,,,,low,1,0,1,0,1,,,,,,,,,
296590,2022-12-02_22h18.46.897,vts_reward_expectancy_bt,2022.2.4,MacIntel,58.82352941,Safari,1440,900,,,,,0,694,,,,,,,,,,,,,,,,,132,F,star,1,0,,,,,,,,,,,,,,,,switch,letter,lettSwt,j,0.746,Hi,,,,,,0,,,,,,,,low,2,0,2,0,1,,,,,,,,,
296590,2022-12-02_22h18.46.897,vts_reward_expectancy_bt,2022.2.4,MacIntel,58.82352941,Safari,1440,900,,,,,1,695,,,,,,,,,,,,,,,,,160,U,hexagon,1,0,,,,,,,,,,,,,,,,switch,number,numSwt,f,0.645,Lo,,,,,,0,,,,,,,,low,3,0,3,0,1,,,,,,,,,
296590,2022-12-02_22h18.46.897,vts_reward_expectancy_bt,2022.2.4,MacIntel,58.82352941,Safari,1440,900,,,,,10,705,,,,,,,,,,,,,,,,,125,B,circle,1,0,,,,,,,,,,,,,,,,repeat,number,numRpt,d,0.567,Hi,,,,,,0,,,,,,,,low,4,0,4,0,1,,,,,,,,,
296590,2022-12-02_22h18.46.897,vts_reward_expectancy_bt,2022.2.4,MacIntel,58.82352941,Safari,1440,900,,,,,1,706,,,,,,,,,,,,,,,,,139,Y,triangle,1,0,,,,,,,,,,,,,,,,switch,letter,lettSwt,k,0.645,Lo,,,,,,0,,,,,,,,low,5,0,5,0,1,,,,,,,,,
296590,2022-12-02_22h18.46.897,vts_reward_expectancy_bt,2022.2.4,MacIntel,58.82352941,Safari,1440,900,,,,,10,716,,,,,,,,,,,,,,,,,167,S,star,1,0,,,,,,,,,,,,,,,,repeat,letter,lettRpt,k,0.526,Hi,,,,,,0,,,,,,,,low,6,0,6,0,1,,,,,,,,,
296590,2022-12-02_22h18.46.897,vts_reward_expectancy_bt,2022.2.4,MacIntel,58.82352941,Safari,1440,900,,,,,1,717,,,,,,,,,,,,,,,,,146,D,hexagon,1,0,,,,,,,,,,,,,,,,repeat,letter,lettRpt,j,0.475,Lo,,,,,,0,,,,,,,,low,7,0,7,0,1,,,,,,,,,
296590,2022-12-02_22h18.46.897,vts_reward_expectancy_bt,2022.2.4,MacIntel,58.82352941,Safari,1440,900,,,,,10,727,,,,,,,,,,,,,,,,,174,H,circle,1,0,,,,,,,,,,,,,,,,switch,number,numSwt,f,0.512,Hi,,,,,,0,,,,,,,,low,8,0,8,0,1,,,,,,,,,
296590,2022-12-02_22h18.46.897,vts_reward_expectancy_bt,2022.2.4,MacIntel,58.82352941,Safari,1440,900,,,,,0,727,,,,,,,,,,,,,,,,,181,W,hexagon,0,0,,,,,,,,,,,,,,,,switch,letter,NA,j,0.509,Hi,,,,,,0,,,,,,,,low,9,0,9,0,1,,,,,,,,,
296590,2022-12-02_22h18.46.897,vts_reward_expectancy_bt,2022.2.4,MacIntel,58.82352941,Safari,1440,900,,,,,0,727,,,,,,,,,,,,,,,,,132,F,triangle,0,1,,,,,,,,,,,,,,,,repeat,letter,NA,k,0.76,Hi,,,,,,0,,,,,,,,low,10,0,10,0,1,,,,,,,,,
296590,2022-12-02_22h18.46.897,vts_reward_expectancy_bt,2022.2.4,MacIntel,58.82352941,Safari,1440,900,,,,,1,728,,,,,,,,,,,,,,,,,160,U,star,1,1,,,,,,,,,,,,,,,,switch,number,numSwt,f,0.798,Hi,,,,,,0,,,,,,,,low,11,0,11,0,1,,,,,,,,,
296590,2022-12-02_22h18.46.897,vts_reward_expectancy_bt,2022.2.4,MacIntel,58.82352941,Safari,1440,900,,,,,0,728,,,,,,,,,,,,,,,,,125,B,star,1,0,,,,,,,,,,,,,,,,switch,letter,lettSwt,j,0.834,Hi,,,,,,0,,,,,,,,low,12,0,12,0,1,,,,,,,,,
296590,2022-12-02_22h18.46.897,vts_reward_expectancy_bt,2022.2.4,MacIntel,58.82352941,Safari,1440,900,,,,,1,729,,,,,,,,,,,,,,,,,139,Y,hexagon,1,0,,,,,,,,,,,,,,,,switch,number,numSwt,d,0.741,Lo,,,,,,0,,,,,,,,low,13,0,13,0,1,,,,,,,,,
296590,2022-12-02_22h18.46.897,vts_reward_expectancy_bt,2022.2.4,MacIntel,58.82352941,Safari,1440,900,,,,,1,730,,,,,,,,,,,,,,,,,167,S,triangle,1,0,,,,,,,,,,,,,,,,repeat,number,numRpt,f,0.465,Lo,,,,,,0,,,,,,,,low,14,0,14,0,1,,,,,,,,,
296590,2022-12-02_22h18.46.897,vts_reward_expectancy_bt,2022.2.4,MacIntel,58.82352941,Safari,1440,900,,,,,0,730,,,,,,,,,,,,,,,,,146,D,circle,0,0,,,,,,,,,,,,,,,,repeat,number,NA,f,1.058,Lo,,,,,,0,,,,,,,,low,15,0,15,0,1,,,,,,,,,
296590,2022-12-02_22h18.46.897,vts_reward_expectancy_bt,2022.2.4,MacIntel,58.82352941,Safari,1440,900,,,,,1,731,,,,,,,,,,,,,,,,,181,Y,triangle,1,1,,,,,,,,,,,,,,,,switch,letter,lettSwt,k,0.694,Lo,,,,,,0,,,,,,,,low,16,0,16,0,1,,,,,,,,,
296590,2022-12-02_22h18.46.897,vts_reward_expectancy_bt,2022.2.4,MacIntel,58.82352941,Safari,1440,900,,,,,0,731,,,,,,,,,,,,,,,,,132,F,star,1,0,,,,,,,,,,,,,,,,switch,number,numSwt,d,0.945,Hi,,,,,,0,,,,,,,,low,17,0,17,0,1,,,,,,,,,
296590,2022-12-02_22h18.46.897,vts_reward_expectancy_bt,2022.2.4,MacIntel,58.82352941,Safari,1440,900,,,,,1,732,,,,,,,,,,,,,,,,,146,B,hexagon,1,0,,,,,,,,,,,,,,,,repeat,number,numRpt,d,0.692,Lo,,,,,,0,,,,,,,,low,18,0,18,0,1,,,,,,,,,
296590,2022-12-02_22h18.46.897,vts_reward_expectancy_bt,2022.2.4,MacIntel,58.82352941,Safari,1440,900,,,,,1,733,,,,,,,,,,,,,,,,,160,S,circle,1,0,,,,,,,,,,,,,,,,switch,letter,lettSwt,k,0.558,Hi,,,,,,0,,,,,,,,low,19,0,19,0,1,,,,,,,,,
296590,2022-12-02_22h18.46.897,vts_reward_expectancy_bt,2022.2.4,MacIntel,58.82352941,Safari,1440,900,,,,,1,734,,,,,,,,,,,,,,,,,125,H,circle,1,0,,,,,,,,,,,,,,,,repeat,letter,lettRpt,j,0.759,Hi,,,,,,0,,,,,,,,low,20,0,20,0,1,,,,,,,,,
296590,2022-12-02_22h18.46.897,vts_reward_expectancy_bt,2022.2.4,MacIntel,58.82352941,Safari,1440,900,,,,,1,735,,,,,,,,,,,,,,,,,174,D,triangle,1,0,,,,,,,,,,,,,,,,repeat,letter,lettRpt,j,0.643,Lo,,,,,,0,,,,,,,,low,21,0,21,0,1,,,,,,,,,
296590,2022-12-02_22h18.46.897,vts_reward_expectancy_bt,2022.2.4,MacIntel,58.82352941,Safari,1440,900,,,,,1,736,,,,,,,,,,,,,,,,,139,U,hexagon,1,0,,,,,,,,,,,,,,,,switch,number,numSwt,d,0.609,Lo,,,,,,0,,,,,,,,low,22,0,22,0,1,,,,,,,,,
296590,2022-12-02_22h18.46.897,vts_reward_expectancy_bt,2022.2.4,MacIntel,58.82352941,Safari,1440,900,,,,,1,737,,,,,,,,,,,,,,,,,167,W,star,1,0,,,,,,,,,,,,,,,,repeat,number,numRpt,f,0.561,Hi,,,,,,0,,,,,,,,low,23,0,23,0,1,,,,,,,,,
296590,2022-12-02_22h18.46.897,vts_reward_expectancy_bt,2022.2.4,MacIntel,58.82352941,Safari,1440,900,,,,,10,747,,,,,,,,,,,,,,,,,181,U,circle,1,0,,,,,,,,,,,,,,,,switch,letter,lettSwt,k,0.582,Hi,,,,,,0,,,,,,,,low,24,0,24,0,1,,,,,,,,,
296590,2022-12-02_22h18.46.897,vts_reward_expectancy_bt,2022.2.4,MacIntel,58.82352941,Safari,1440,900,,,,,1,748,,,,,,,,,,,,,,,,,160,D,hexagon,1,0,,,,,,,,,,,,,,,,switch,number,numSwt,f,0.643,Lo,,,,,,0,,,,,,,,low,25,0,25,0,1,,,,,,,,,
296590,2022-12-02_22h18.46.897,vts_reward_expectancy_bt,2022.2.4,MacIntel,58.82352941,Safari,1440,900,,,,,10,758,,,,,,,,,,,,,,,,,139,W,triangle,1,0,,,,,,,,,,,,,,,,repeat,number,numRpt,d,0.643,Lo,,,,,,0,,,,,,,,low,26,0,26,0,1,,,,,,,,,
296590,2022-12-02_22h18.46.897,vts_reward_expectancy_bt,2022.2.4,MacIntel,58.82352941,Safari,1440,900,,,,,10,768,,,,,,,,,,,,,,,,,167,Y,star,1,0,,,,,,,,,,,,,,,,switch,letter,lettSwt,k,0.647,Hi,,,,,,0,,,,,,,,low,27,0,27,0,1,,,,,,,,,
296590,2022-12-02_22h18.46.897,vts_reward_expectancy_bt,2022.2.4,MacIntel,58.82352941,Safari,1440,900,,,,,1,769,,,,,,,,,,,,,,,,,132,S,hexagon,1,0,,,,,,,,,,,,,,,,repeat,letter,lettRpt,k,0.842,Lo,,,,,,0,,,,,,,,low,28,0,28,0,1,,,,,,,,,
296590,2022-12-02_22h18.46.897,vts_reward_expectancy_bt,2022.2.4,MacIntel,58.82352941,Safari,1440,900,,,,,10,779,,,,,,,,,,,,,,,,,125,B,star,1,0,,,,,,,,,,,,,,,,switch,number,numSwt,d,0.495,Hi,,,,,,0,,,,,,,,low,29,0,29,0,1,,,,,,,,,
296590,2022-12-02_22h18.46.897,vts_reward_expectancy_bt,2022.2.4,MacIntel,58.82352941,Safari,1440,900,,,,,1,780,,,,,,,,,,,,,,,,,146,H,triangle,1,0,,,,,,,,,,,,,,,,switch,letter,lettSwt,j,0.58,Lo,,,,,,0,,,,,,,,low,30,0,30,0,1,,,,,,,,,
296590,2022-12-02_22h18.46.897,vts_reward_expectancy_bt,2022.2.4,MacIntel,58.82352941,Safari,1440,900,,,,,1,781,,,,,,,,,,,,,,,,,174,F,circle,1,0,,,,,,,,,,,,,,,,repeat,letter,lettRpt,j,0.66,Hi,,,,,,0,,,,,,,,low,31,0,31,0,1,,,,,,,,,
296590,2022-12-02_22h18.46.897,vts_reward_expectancy_bt,2022.2.4,MacIntel,58.82352941,Safari,1440,900,,,,,1,782,,,,,,,,,,,,,,,,,125,Y,star,1,0,,,,,,,,,,,,,,,,repeat,letter,lettRpt,k,0.584,Hi,,,,,,1,,,,,,space,1.65,low,0,0,0,0,1,,,,,,,,,
296590,2022-12-02_22h18.46.897,vts_reward_expectancy_bt,2022.2.4,MacIntel,58.82352941,Safari,1440,900,,,,,1,783,,,,,,,,,,,,,,,,,139,W,circle,1,0,,,,,,,,,,,,,,,,switch,number,numSwt,d,0.483,Hi,,,,,,1,,,,,,,,low,1,0,1,0,1,,,,,,,,,
296590,2022-12-02_22h18.46.897,vts_reward_expectancy_bt,2022.2.4,MacIntel,58.82352941,Safari,1440,900,,,,,0,783,,,,,,,,,,,,,,,,,160,F,hexagon,0,0,,,,,,,,,,,,,,,,switch,letter,NA,k,0.577,Hi,,,,,,1,,,,,,,,low,2,0,2,0,1,,,,,,,,,
296590,2022-12-02_22h18.46.897,vts_reward_expectancy_bt,2022.2.4,MacIntel,58.82352941,Safari,1440,900,,,,,10,793,,,,,,,,,,,,,,,,,146,D,triangle,1,1,,,,,,,,,,,,,,,,repeat,letter,lettRpt,j,0.542,Lo,,,,,,1,,,,,,,,low,3,0,3,0,1,,,,,,,,,
296590,2022-12-02_22h18.46.897,vts_reward_expectancy_bt,2022.2.4,MacIntel,58.82352941,Safari,1440,900,,,,,1,794,,,,,,,,,,,,,,,,,181,H,star,1,0,,,,,,,,,,,,,,,,switch,number,numSwt,f,0.491,Hi,,,,,,1,,,,,,,,low,4,0,4,0,1,,,,,,,,,
296590,2022-12-02_22h18.46.897,vts_reward_expectancy_bt,2022.2.4,MacIntel,58.82352941,Safari,1440,900,,,,,0,794,,,,,,,,,,,,,,,,,132,U,circle,1,0,,,,,,,,,,,,,,,,repeat,number,numRpt,d,0.668,Hi,,,,,,1,,,,,,,,low,5,0,5,0,1,,,,,,,,,
296590,2022-12-02_22h18.46.897,vts_reward_expectancy_bt,2022.2.4,MacIntel,58.82352941,Safari,1440,900,,,,,1,795,,,,,,,,,,,,,,,,,167,S,hexagon,1,0,,,,,,,,,,,,,,,,switch,letter,lettSwt,k,0.868,Lo,,,,,,1,,,,,,,,low,6,0,6,0,1,,,,,,,,,
296590,2022-12-02_22h18.46.897,vts_reward_expectancy_bt,2022.2.4,MacIntel,58.82352941,Safari,1440,900,,,,,1,796,,,,,,,,,,,,,,,,,174,B,triangle,1,0,,,,,,,,,,,,,,,,switch,number,numSwt,f,0.798,Lo,,,,,,1,,,,,,,,low,7,0,7,0,1,,,,,,,,,
296590,2022-12-02_22h18.46.897,vts_reward_expectancy_bt,2022.2.4,MacIntel,58.82352941,Safari,1440,900,,,,,0,796,,,,,,,,,,,,,,,,,125,Y,hexagon,0,0,,,,,,,,,,,,,,,,repeat,number,NA,f,0.611,Lo,,,,,,1,,,,,,,,low,8,0,8,0,1,,,,,,,,,
296590,2022-12-02_22h18.46.897,vts_reward_expectancy_bt,2022.2.4,MacIntel,58.82352941,Safari,1440,900,,,,,0,796,,,,,,,,,,,,,,,,,139,W,star,1,1,,,,,,,,,,,,,,,,switch,letter,lettSwt,k,0.726,Hi,,,,,,1,,,,,,,,low,9,0,9,0,1,,,,,,,,,
296590,2022-12-02_22h18.46.897,vts_reward_expectancy_bt,2022.2.4,MacIntel,58.82352941,Safari,1440,900,,,,,0,796,,,,,,,,,,,,,,,,,160,F,circle,1,0,,,,,,,,,,,,,,,,repeat,letter,lettRpt,j,0.659,Hi,,,,,,1,,,,,,,,low,10,0,10,0,1,,,,,,,,,
296590,2022-12-02_22h18.46.897,vts_reward_expectancy_bt,2022.2.4,MacIntel,58.82352941,Safari,1440,900,,,,,10,806,,,,,,,,,,,,,,,,,146,D,triangle,1,0,,,,,,,,,,,,,,,,repeat,letter,lettRpt,j,0.752,Lo,,,,,,1,,,,,,,,low,11,0,11,0,1,,,,,,,,,
296590,2022-12-02_22h18.46.897,vts_reward_expectancy_bt,2022.2.4,MacIntel,58.82352941,Safari,1440,900,,,,,10,816,,,,,,,,,,,,,,,,,181,H,hexagon,1,0,,,,,,,,,,,,,,,,repeat,letter,lettRpt,j,0.669,Lo,,,,,,1,,,,,,,,low,12,0,12,0,1,,,,,,,,,
296590,2022-12-02_22h18.46.897,vts_reward_expectancy_bt,2022.2.4,MacIntel,58.82352941,Safari,1440,900,,,,,0,816,,,,,,,,,,,,,,,,,132,U,star,1,0,,,,,,,,,,,,,,,,repeat,letter,lettRpt,k,0.689,Hi,,,,,,1,,,,,,,,low,13,0,13,0,1,,,,,,,,,
296590,2022-12-02_22h18.46.897,vts_reward_expectancy_bt,2022.2.4,MacIntel,58.82352941,Safari,1440,900,,,,,10,826,,,,,,,,,,,,,,,,,167,S,triangle,1,0,,,,,,,,,,,,,,,,switch,number,numSwt,f,0.794,Lo,,,,,,1,,,,,,,,low,14,0,14,0,1,,,,,,,,,
296590,2022-12-02_22h18.46.897,vts_reward_expectancy_bt,2022.2.4,MacIntel,58.82352941,Safari,1440,900,,,,,0,826,,,,,,,,,,,,,,,,,174,B,circle,1,0,,,,,,,,,,,,,,,,repeat,number,numRpt,f,0.57,Hi,,,,,,1,,,,,,,,low,15,0,15,0,1,,,,,,,,,
296590,2022-12-02_22h18.46.897,vts_reward_expectancy_bt,2022.2.4,MacIntel,58.82352941,Safari,1440,900,,,,,0,826,,,,,,,,,,,,,,,,,125,F,star,1,0,,,,,,,,,,,,,,,,repeat,number,numRpt,d,0.613,Hi,,,,,,1,,,,,,,,low,16,0,16,0,1,,,,,,,,,
296590,2022-12-02_22h18.46.897,vts_reward_expectancy_bt,2022.2.4,MacIntel,58.82352941,Safari,1440,900,,,,,10,836,,,,,,,,,,,,,,,,,174,Y,circle,1,0,,,,,,,,,,,,,,,,repeat,number,numRpt,f,0.528,Hi,,,,,,1,,,,,,,,low,17,0,17,0,1,,,,,,,,,
296590,2022-12-02_22h18.46.897,vts_reward_expectancy_bt,2022.2.4,MacIntel,58.82352941,Safari,1440,900,,,,,10,846,,,,,,,,,,,,,,,,,132,D,hexagon,1,0,,,,,,,,,,,,,,,,repeat,number,numRpt,d,0.725,Lo,,,,,,1,,,,,,,,low,18,0,18,0,1,,,,,,,,,
296590,2022-12-02_22h18.46.897,vts_reward_expectancy_bt,2022.2.4,MacIntel,58.82352941,Safari,1440,900,,,,,10,856,,,,,,,,,,,,,,,,,139,H,triangle,1,0,,,,,,,,,,,,,,,,switch,letter,lettSwt,j,0.782,Lo,,,,,,1,,,,,,,,low,19,0,19,0,1,,,,,,,,,
296590,2022-12-02_22h18.46.897,vts_reward_expectancy_bt,2022.2.4,MacIntel,58.82352941,Safari,1440,900,,,,,0,856,,,,,,,,,,,,,,,,,167,B,triangle,0,0,,,,,,,,,,,,,,,,repeat,letter,NA,k,0.743,Lo,,,,,,1,,,,,,,,low,20,0,20,0,1,,,,,,,,,
296590,2022-12-02_22h18.46.897,vts_reward_expectancy_bt,2022.2.4,MacIntel,58.82352941,Safari,1440,900,,,,,0,856,,,,,,,,,,,,,,,,,160,S,hexagon,0,1,,,,,,,,,,,,,,,,repeat,letter,NA,j,1.08,Lo,,,,,,1,,,,,,,,low,21,0,21,0,1,,,,,,,,,
296590,2022-12-02_22h18.46.897,vts_reward_expectancy_bt,2022.2.4,MacIntel,58.82352941,Safari,1440,900,,,,,10,866,,,,,,,,,,,,,,,,,146,U,circle,1,1,,,,,,,,,,,,,,,,repeat,letter,lettRpt,k,0.576,Hi,,,,,,1,,,,,,,,low,22,0,22,0,1,,,,,,,,,
296590,2022-12-02_22h18.46.897,vts_reward_expectancy_bt,2022.2.4,MacIntel,58.82352941,Safari,1440,900,,,,,0,866,,,,,,,,,,,,,,,,,181,W,star,1,0,,,,,,,,,,,,,,,,repeat,letter,lettRpt,k,0.625,Hi,,,,,,1,,,,,,,,low,23,0,23,0,1,,,,,,,,,
296590,2022-12-02_22h18.46.897,vts_reward_expectancy_bt,2022.2.4,MacIntel,58.82352941,Safari,1440,900,,,,,0,866,,,,,,,,,,,,,,,,,139,W,circle,0,0,,,,,,,,,,,,,,,,switch,number,NA,f,0.512,Hi,,,,,,1,,,,,,,,low,24,0,24,0,1,,,,,,,,,
296590,2022-12-02_22h18.46.897,vts_reward_expectancy_bt,2022.2.4,MacIntel,58.82352941,Safari,1440,900,,,,,10,876,,,,,,,,,,,,,,,,,160,S,hexagon,1,1,,,,,,,,,,,,,,,,repeat,number,numRpt,f,0.877,Lo,,,,,,1,,,,,,,,low,25,0,25,0,1,,,,,,,,,
296590,2022-12-02_22h18.46.897,vts_reward_expectancy_bt,2022.2.4,MacIntel,58.82352941,Safari,1440,900,,,,,0,876,,,,,,,,,,,,,,,,,167,D,star,1,0,,,,,,,,,,,,,,,,repeat,number,numRpt,f,0.68,Hi,,,,,,1,,,,,,,,low,26,0,26,0,1,,,,,,,,,
296590,2022-12-02_22h18.46.897,vts_reward_expectancy_bt,2022.2.4,MacIntel,58.82352941,Safari,1440,900,,,,,1,877,,,,,,,,,,,,,,,,,132,B,triangle,1,0,,,,,,,,,,,,,,,,repeat,number,numRpt,d,0.695,Lo,,,,,,1,,,,,,,,low,27,0,27,0,1,,,,,,,,,
296590,2022-12-02_22h18.46.897,vts_reward_expectancy_bt,2022.2.4,MacIntel,58.82352941,Safari,1440,900,,,,,0,877,,,,,,,,,,,,,,,,,174,F,hexagon,0,0,,,,,,,,,,,,,,,,switch,letter,NA,k,1.229,Lo,,,,,,1,,,,,,,,low,28,0,28,0,1,,,,,,,,,
296590,2022-12-02_22h18.46.897,vts_reward_expectancy_bt,2022.2.4,MacIntel,58.82352941,Safari,1440,900,,,,,0,877,,,,,,,,,,,,,,,,,125,H,circle,1,1,,,,,,,,,,,,,,,,repeat,letter,lettRpt,j,0.61,Hi,,,,,,1,,,,,,,,low,29,0,29,0,1,,,,,,,,,
296590,2022-12-02_22h18.46.897,vts_reward_expectancy_bt,2022.2.4,MacIntel,58.82352941,Safari,1440,900,,,,,0,877,,,,,,,,,,,,,,,,,146,Y,star,1,0,,,,,,,,,,,,,,,,repeat,letter,lettRpt,k,0.66,Hi,,,,,,1,,,,,,,,low,30,0,30,0,1,,,,,,,,,
296590,2022-12-02_22h18.46.897,vts_reward_expectancy_bt,2022.2.4,MacIntel,58.82352941,Safari,1440,900,,,,,1,878,,,,,,,,,,,,,,,,,181,U,triangle,1,0,,,,,,,,,,,,,,,,switch,number,numSwt,f,0.882,Lo,,,,,,1,,,,,,,,low,31,0,31,0,1,,,,,,,,,
296590,2022-12-02_22h18.46.897,vts_reward_expectancy_bt,2022.2.4,MacIntel,58.82352941,Safari,1440,900,,,,,1,879,,,,,,,,,,,,,,,,,174,F,triangle,1,0,,,,,,,,,,,,,,,,switch,letter,lettSwt,j,0.743,Lo,,,,,,2,,,,,,space,1.632,low,0,0,0,0,1,,,,,,,,,
296590,2022-12-02_22h18.46.897,vts_reward_expectancy_bt,2022.2.4,MacIntel,58.82352941,Safari,1440,900,,,,,0,879,,,,,,,,,,,,,,,,,139,S,star,0,0,,,,,,,,,,,,,,,,switch,number,NA,f,0.574,Lo,,,,,,2,,,,,,,,low,1,0,1,0,1,,,,,,,,,
296590,2022-12-02_22h18.46.897,vts_reward_expectancy_bt,2022.2.4,MacIntel,58.82352941,Safari,1440,900,,,,,1,880,,,,,,,,,,,,,,,,,146,B,hexagon,1,1,,,,,,,,,,,,,,,,repeat,number,numRpt,d,0.493,Lo,,,,,,2,,,,,,,,low,2,0,2,0,1,,,,,,,,,
296590,2022-12-02_22h18.46.897,vts_reward_expectancy_bt,2022.2.4,MacIntel,58.82352941,Safari,1440,900,,,,,10,890,,,,,,,,,,,,,,,,,167,U,circle,1,0,,,,,,,,,,,,,,,,switch,letter,lettSwt,k,0.577,Hi,,,,,,2,,,,,,,,low,3,0,3,0,1,,,,,,,,,
296590,2022-12-02_22h18.46.897,vts_reward_expectancy_bt,2022.2.4,MacIntel,58.82352941,Safari,1440,900,,,,,1,891,,,,,,,,,,,,,,,,,181,W,triangle,1,0,,,,,,,,,,,,,,,,repeat,letter,lettRpt,k,0.692,Lo,,,,,,2,,,,,,,,low,4,0,4,0,1,,,,,,,,,
296590,2022-12-02_22h18.46.897,vts_reward_expectancy_bt,2022.2.4,MacIntel,58.82352941,Safari,1440,900,,,,,10,901,,,,,,,,,,,,,,,,,160,H,star,1,0,,,,,,,,,,,,,,,,repeat,letter,lettRpt,j,0.608,Hi,,,,,,2,,,,,,,,low,5,0,5,0,1,,,,,,,,,
296590,2022-12-02_22h18.46.897,vts_reward_expectancy_bt,2022.2.4,MacIntel,58.82352941,Safari,1440,900,,,,,1,902,,,,,,,,,,,,,,,,,125,D,hexagon,1,0,,,,,,,,,,,,,,,,switch,number,numSwt,d,0.609,Lo,,,,,,2,,,,,,,,low,6,0,6,0,1,,,,,,,,,
296590,2022-12-02_22h18.46.897,vts_reward_expectancy_bt,2022.2.4,MacIntel,58.82352941,Safari,1440,900,,,,,0,902,,,,,,,,,,,,,,,,,132,Y,circle,1,0,,,,,,,,,,,,,,,,repeat,number,numRpt,d,0.709,Hi,,,,,,2,,,,,,,,low,7,0,7,0,1,,,,,,,,,
296590,2022-12-02_22h18.46.897,vts_reward_expectancy_bt,2022.2.4,MacIntel,58.82352941,Safari,1440,900,,,,,10,912,,,,,,,,,,,,,,,,,174,F,star,1,0,,,,,,,,,,,,,,,,switch,letter,lettSwt,j,0.71,Hi,,,,,,2,,,,,,,,low,8,0,8,0,1,,,,,,,,,
296590,2022-12-02_22h18.46.897,vts_reward_expectancy_bt,2022.2.4,MacIntel,58.82352941,Safari,1440,900,,,,,1,913,,,,,,,,,,,,,,,,,139,S,hexagon,1,0,,,,,,,,,,,,,,,,switch,number,numSwt,d,0.684,Lo,,,,,,2,,,,,,,,low,9,0,9,0,1,,,,,,,,,
296590,2022-12-02_22h18.46.897,vts_reward_expectancy_bt,2022.2.4,MacIntel,58.82352941,Safari,1440,900,,,,,1,914,,,,,,,,,,,,,,,,,146,B,triangle,1,0,,,,,,,,,,,,,,,,switch,letter,lettSwt,j,0.643,Lo,,,,,,2,,,,,,,,low,10,0,10,0,1,,,,,,,,,
296590,2022-12-02_22h18.46.897,vts_reward_expectancy_bt,2022.2.4,MacIntel,58.82352941,Safari,1440,900,,,,,0,914,,,,,,,,,,,,,,,,,167,U,circle,1,0,,,,,,,,,,,,,,,,switch,number,numSwt,f,0.643,Hi,,,,,,2,,,,,,,,low,11,0,11,0,1,,,,,,,,,
296590,2022-12-02_22h18.46.897,vts_reward_expectancy_bt,2022.2.4,MacIntel,58.82352941,Safari,1440,900,,,,,10,924,,,,,,,,,,,,,,,,,181,W,star,1,0,,,,,,,,,,,,,,,,repeat,number,numRpt,f,0.541,Hi,,,,,,2,,,,,,,,low,12,0,12,0,1,,,,,,,,,
296590,2022-12-02_22h18.46.897,vts_reward_expectancy_bt,2022.2.4,MacIntel,58.82352941,Safari,1440,900,,,,,0,924,,,,,,,,,,,,,,,,,160,H,hexagon,0,0,,,,,,,,,,,,,,,,switch,letter,NA,k,0.775,Hi,,,,,,2,,,,,,,,low,13,0,13,0,1,,,,,,,,,
296590,2022-12-02_22h18.46.897,vts_reward_expectancy_bt,2022.2.4,MacIntel,58.82352941,Safari,1440,900,,,,,10,934,,,,,,,,,,,,,,,,,125,D,circle,1,1,,,,,,,,,,,,,,,,repeat,letter,lettRpt,j,0.545,Hi,,,,,,2,,,,,,,,low,14,0,14,0,1,,,,,,,,,
296590,2022-12-02_22h18.46.897,vts_reward_expectancy_bt,2022.2.4,MacIntel,58.82352941,Safari,1440,900,,,,,1,935,,,,,,,,,,,,,,,,,132,Y,triangle,1,0,,,,,,,,,,,,,,,,switch,number,numSwt,d,0.592,Lo,,,,,,2,,,,,,,,low,15,0,15,0,1,,,,,,,,,
296590,2022-12-02_22h18.46.897,vts_reward_expectancy_bt,2022.2.4,MacIntel,58.82352941,Safari,1440,900,,,,,0,935,,,,,,,,,,,,,,,,,181,S,star,1,0,,,,,,,,,,,,,,,,repeat,number,numRpt,f,0.896,Hi,,,,,,2,,,,,,,,low,16,0,16,0,1,,,,,,,,,
296590,2022-12-02_22h18.46.897,vts_reward_expectancy_bt,2022.2.4,MacIntel,58.82352941,Safari,1440,900,,,,,1,936,,,,,,,,,,,,,,,,,160,B,hexagon,1,0,,,,,,,,,,,,,,,,repeat,number,numRpt,f,0.558,Lo,,,,,,2,,,,,,,,low,17,0,17,0,1,,,,,,,,,
296590,2022-12-02_22h18.46.897,vts_reward_expectancy_bt,2022.2.4,MacIntel,58.82352941,Safari,1440,900,,,,,1,937,,,,,,,,,,,,,,,,,167,D,triangle,1,0,,,,,,,,,,,,,,,,switch,letter,lettSwt,j,0.614,Lo,,,,,,2,,,,,,,,low,18,0,18,0,1,,,,,,,,,
296590,2022-12-02_22h18.46.897,vts_reward_expectancy_bt,2022.2.4,MacIntel,58.82352941,Safari,1440,900,,,,,1,938,,,,,,,,,,,,,,,,,125,W,circle,1,0,,,,,,,,,,,,,,,,repeat,letter,lettRpt,k,0.527,Hi,,,,,,2,,,,,,,,low,19,0,19,0,1,,,,,,,,,
296590,2022-12-02_22h18.46.897,vts_reward_expectancy_bt,2022.2.4,MacIntel,58.82352941,Safari,1440,900,,,,,0,938,,,,,,,,,,,,,,,,,146,F,triangle,0,0,,,,,,,,,,,,,,,,repeat,letter,NA,k,0.693,Hi,,,,,,2,,,,,,,,low,20,0,20,0,1,,,,,,,,,
296590,2022-12-02_22h18.46.897,vts_reward_expectancy_bt,2022.2.4,MacIntel,58.82352941,Safari,1440,900,,,,,10,948,,,,,,,,,,,,,,,,,174,U,hexagon,1,1,,,,,,,,,,,,,,,,switch,number,numSwt,f,0.53,Lo,,,,,,2,,,,,,,,low,21,0,21,0,1,,,,,,,,,
296590,2022-12-02_22h18.46.897,vts_reward_expectancy_bt,2022.2.4,MacIntel,58.82352941,Safari,1440,900,,,,,0,948,,,,,,,,,,,,,,,,,132,Y,circle,1,0,,,,,,,,,,,,,,,,repeat,number,numRpt,d,0.665,Hi,,,,,,2,,,,,,,,low,22,0,22,0,1,,,,,,,,,
296590,2022-12-02_22h18.46.897,vts_reward_expectancy_bt,2022.2.4,MacIntel,58.82352941,Safari,1440,900,,,,,1,949,,,,,,,,,,,,,,,,,139,H,star,1,0,,,,,,,,,,,,,,,,repeat,number,numRpt,d,0.459,Hi,,,,,,2,,,,,,,,low,23,0,23,0,1,,,,,,,,,
296590,2022-12-02_22h18.46.897,vts_reward_expectancy_bt,2022.2.4,MacIntel,58.82352941,Safari,1440,900,,,,,1,950,,,,,,,,,,,,,,,,,132,H,star,1,0,,,,,,,,,,,,,,,,switch,letter,lettSwt,j,0.517,Hi,,,,,,2,,,,,,,,low,24,0,24,0,1,,,,,,,,,
296590,2022-12-02_22h18.46.897,vts_reward_expectancy_bt,2022.2.4,MacIntel,58.82352941,Safari,1440,900,,,,,10,960,,,,,,,,,,,,,,,,,139,F,triangle,1,0,,,,,,,,,,,,,,,,repeat,letter,lettRpt,j,0.876,Lo,,,,,,2,,,,,,,,low,25,0,25,0,1,,,,,,,,,
296590,2022-12-02_22h18.46.897,vts_reward_expectancy_bt,2022.2.4,MacIntel,58.82352941,Safari,1440,900,,,,,1,961,,,,,,,,,,,,,,,,,181,W,hexagon,1,0,,,,,,,,,,,,,,,,repeat,letter,lettRpt,k,0.641,Lo,,,,,,2,,,,,,,,low,26,0,26,0,1,,,,,,,,,
296590,2022-12-02_22h18.46.897,vts_reward_expectancy_bt,2022.2.4,MacIntel,58.82352941,Safari,1440,900,,,,,0,961,,,,,,,,,,,,,,,,,146,D,circle,1,0,,,,,,,,,,,,,,,,switch,number,numSwt,d,0.724,Hi,,,,,,2,,,,,,,,low,27,0,27,0,1,,,,,,,,,
296590,2022-12-02_22h18.46.897,vts_reward_expectancy_bt,2022.2.4,MacIntel,58.82352941,Safari,1440,900,,,,,10,971,,,,,,,,,,,,,,,,,160,S,star,1,0,,,,,,,,,,,,,,,,repeat,number,numRpt,f,0.584,Hi,,,,,,2,,,,,,,,low,28,0,28,0,1,,,,,,,,,
296590,2022-12-02_22h18.46.897,vts_reward_expectancy_bt,2022.2.4,MacIntel,58.82352941,Safari,1440,900,,,,,10,981,,,,,,,,,,,,,,,,,174,Y,hexagon,1,0,,,,,,,,,,,,,,,,switch,letter,lettSwt,k,0.643,Lo,,,,,,2,,,,,,,,low,29,0,29,0,1,,,,,,,,,
296590,2022-12-02_22h18.46.897,vts_reward_expectancy_bt,2022.2.4,MacIntel,58.82352941,Safari,1440,900,,,,,0,981,,,,,,,,,,,,,,,,,167,U,circle,0,0,,,,,,,,,,,,,,,,repeat,letter,NA,j,0.491,Lo,,,,,,2,,,,,,,,low,30,0,30,0,1,,,,,,,,,
296590,2022-12-02_22h18.46.897,vts_reward_expectancy_bt,2022.2.4,MacIntel,58.82352941,Safari,1440,900,,,,,1,982,,,,,,,,,,,,,,,,,125,B,triangle,1,1,,,,,,,,,,,,,,,,repeat,letter,lettRpt,j,0.46,Lo,,,,,,2,,,,,,,,low,31,0,31,0,1,,,,,,,,,
296590,2022-12-02_22h18.46.897,vts_reward_expectancy_bt,2022.2.4,MacIntel,58.82352941,Safari,1440,900,,,,,0,982,,,,,,,,,,,,,,,,,160,H,hexagon,0,0,,,,,,,,,,,,,,,,repeat,letter,NA,k,1.433,Lo,,,,,,3,,,,,,space,0.867,low,0,0,0,0,1,,,,,,,,,
296590,2022-12-02_22h18.46.897,vts_reward_expectancy_bt,2022.2.4,MacIntel,58.82352941,Safari,1440,900,,,,,10,992,,,,,,,,,,,,,,,,,139,U,triangle,1,1,,,,,,,,,,,,,,,,repeat,letter,lettRpt,k,0.677,Lo,,,,,,3,,,,,,,,low,1,0,1,0,1,,,,,,,,,
296590,2022-12-02_22h18.46.897,vts_reward_expectancy_bt,2022.2.4,MacIntel,58.82352941,Safari,1440,900,,,,,0,992,,,,,,,,,,,,,,,,,167,Y,star,0,0,,,,,,,,,,,,,,,,switch,number,NA,d,0.686,Lo,,,,,,3,,,,,,,,low,2,0,2,0,1,,,,,,,,,
296590,2022-12-02_22h18.46.897,vts_reward_expectancy_bt,2022.2.4,MacIntel,58.82352941,Safari,1440,900,,,,,0,992,,,,,,,,,,,,,,,,,146,F,circle,0,1,,,,,,,,,,,,,,,,repeat,number,NA,f,0.675,Lo,,,,,,3,,,,,,,,low,3,0,3,0,1,,,,,,,,,
296590,2022-12-02_22h18.46.897,vts_reward_expectancy_bt,2022.2.4,MacIntel,58.82352941,Safari,1440,900,,,,,1,993,,,,,,,,,,,,,,,,,181,B,hexagon,1,1,,,,,,,,,,,,,,,,repeat,number,numRpt,f,0.811,Lo,,,,,,3,,,,,,,,low,4,0,4,0,1,,,,,,,,,
296590,2022-12-02_22h18.46.897,vts_reward_expectancy_bt,2022.2.4,MacIntel,58.82352941,Safari,1440,900,,,,,10,1003,,,,,,,,,,,,,,,,,125,S,triangle,1,0,,,,,,,,,,,,,,,,switch,letter,lettSwt,k,0.592,Lo,,,,,,3,,,,,,,,low,5,0,5,0,1,,,,,,,,,
296590,2022-12-02_22h18.46.897,vts_reward_expectancy_bt,2022.2.4,MacIntel,58.82352941,Safari,1440,900,,,,,0,1003,,,,,,,,,,,,,,,,,132,W,star,0,0,,,,,,,,,,,,,,,,repeat,letter,NA,j,0.593,Lo,,,,,,3,,,,,,,,low,6,0,6,0,1,,,,,,,,,
296590,2022-12-02_22h18.46.897,vts_reward_expectancy_bt,2022.2.4,MacIntel,58.82352941,Safari,1440,900,,,,,10,1013,,,,,,,,,,,,,,,,,174,D,circle,1,1,,,,,,,,,,,,,,,,switch,number,numSwt,f,0.576,Hi,,,,,,3,,,,,,,,low,7,0,7,0,1,,,,,,,,,
296590,2022-12-02_22h18.46.897,vts_reward_expectancy_bt,2022.2.4,MacIntel,58.82352941,Safari,1440,900,,,,,1,1014,,,,,,,,,,,,,,,,,160,H,hexagon,1,0,,,,,,,,,,,,,,,,switch,letter,lettSwt,j,0.543,Lo,,,,,,3,,,,,,,,low,8,0,8,0,1,,,,,,,,,
296590,2022-12-02_22h18.46.897,vts_reward_expectancy_bt,2022.2.4,MacIntel,58.82352941,Safari,1440,900,,,,,10,1024,,,,,,,,,,,,,,,,,139,U,star,1,0,,,,,,,,,,,,,,,,repeat,letter,lettRpt,k,0.543,Hi,,,,,,3,,,,,,,,low,9,0,9,0,1,,,,,,,,,
296590,2022-12-02_22h18.46.897,vts_reward_expectancy_bt,2022.2.4,MacIntel,58.82352941,Safari,1440,900,,,,,10,1034,,,,,,,,,,,,,,,,,167,Y,triangle,1,0,,,,,,,,,,,,,,,,switch,number,numSwt,f,0.692,Lo,,,,,,3,,,,,,,,low,10,0,10,0,1,,,,,,,,,
296590,2022-12-02_22h18.46.897,vts_reward_expectancy_bt,2022.2.4,MacIntel,58.82352941,Safari,1440,900,,,,,10,1044,,,,,,,,,,,,,,,,,146,F,circle,1,0,,,,,,,,,,,,,,,,switch,letter,lettSwt,j,0.509,Hi,,,,,,3,,,,,,,,low,11,0,11,0,1,,,,,,,,,
296590,2022-12-02_22h18.46.897,vts_reward_expectancy_bt,2022.2.4,MacIntel,58.82352941,Safari,1440,900,,,,,0,1044,,,,,,,,,,,,,,,,,181,B,circle,1,0,,,,,,,,,,,,,,,,repeat,letter,lettRpt,j,0.56,Hi,,,,,,3,,,,,,,,low,12,0,12,0,1,,,,,,,,,
296590,2022-12-02_22h18.46.897,vts_reward_expectancy_bt,2022.2.4,MacIntel,58.82352941,Safari,1440,900,,,,,10,1054,,,,,,,,,,,,,,,,,125,S,hexagon,1,0,,,,,,,,,,,,,,,,repeat,letter,lettRpt,k,0.869,Lo,,,,,,3,,,,,,,,low,13,0,13,0,1,,,,,,,,,
296590,2022-12-02_22h18.46.897,vts_reward_expectancy_bt,2022.2.4,MacIntel,58.82352941,Safari,1440,900,,,,,0,1054,,,,,,,,,,,,,,,,,132,W,star,1,0,,,,,,,,,,,,,,,,switch,number,numSwt,d,0.677,Hi,,,,,,3,,,,,,,,low,14,0,14,0,1,,,,,,,,,
296590,2022-12-02_22h18.46.897,vts_reward_expectancy_bt,2022.2.4,MacIntel,58.82352941,Safari,1440,900,,,,,0,1054,,,,,,,,,,,,,,,,,174,D,triangle,0,0,,,,,,,,,,,,,,,,switch,letter,NA,k,0.893,Hi,,,,,,3,,,,,,,,low,15,0,15,0,1,,,,,,,,,
296590,2022-12-02_22h18.46.897,vts_reward_expectancy_bt,2022.2.4,MacIntel,58.82352941,Safari,1440,900,,,,,0,1054,,,,,,,,,,,,,,,,,167,Y,star,1,1,,,,,,,,,,,,,,,,switch,number,numSwt,f,0.815,Hi,,,,,,3,,,,,,,,low,16,0,16,0,1,,,,,,,,,
296590,2022-12-02_22h18.46.897,vts_reward_expectancy_bt,2022.2.4,MacIntel,58.82352941,Safari,1440,900,,,,,1,1055,,,,,,,,,,,,,,,,,146,W,hexagon,1,0,,,,,,,,,,,,,,,,switch,letter,lettSwt,k,0.658,Lo,,,,,,3,,,,,,,,low,17,0,17,0,1,,,,,,,,,
296590,2022-12-02_22h18.46.897,vts_reward_expectancy_bt,2022.2.4,MacIntel,58.82352941,Safari,1440,900,,,,,1,1056,,,,,,,,,,,,,,,,,181,S,circle,1,0,,,,,,,,,,,,,,,,switch,number,numSwt,f,0.481,Hi,,,,,,3,,,,,,,,low,18,0,18,0,1,,,,,,,,,
296590,2022-12-02_22h18.46.897,vts_reward_expectancy_bt,2022.2.4,MacIntel,58.82352941,Safari,1440,900,,,,,10,1066,,,,,,,,,,,,,,,,,160,D,triangle,1,0,,,,,,,,,,,,,,,,repeat,number,numRpt,f,0.679,Lo,,,,,,3,,,,,,,,low,19,0,19,0,1,,,,,,,,,
296590,2022-12-02_22h18.46.897,vts_reward_expectancy_bt,2022.2.4,MacIntel,58.82352941,Safari,1440,900,,,,,1,1067,,,,,,,,,,,,,,,,,174,H,star,1,0,,,,,,,,,,,,,,,,switch,letter,lettSwt,j,0.567,Hi,,,,,,3,,,,,,,,low,20,0,20,0,1,,,,,,,,,
296590,2022-12-02_22h18.46.897,vts_reward_expectancy_bt,2022.2.4,MacIntel,58.82352941,Safari,1440,900,,,,,10,1077,,,,,,,,,,,,,,,,,132,B,hexagon,1,0,,,,,,,,,,,,,,,,switch,number,numSwt,d,0.509,Lo,,,,,,3,,,,,,,,low,21,0,21,0,1,,,,,,,,,
296590,2022-12-02_22h18.46.897,vts_reward_expectancy_bt,2022.2.4,MacIntel,58.82352941,Safari,1440,900,,,,,10,1087,,,,,,,,,,,,,,,,,139,F,triangle,1,0,,,,,,,,,,,,,,,,switch,letter,lettSwt,j,0.66,Lo,,,,,,3,,,,,,,,low,22,0,22,0,1,,,,,,,,,
296590,2022-12-02_22h18.46.897,vts_reward_expectancy_bt,2022.2.4,MacIntel,58.82352941,Safari,1440,900,,,,,0,1087,,,,,,,,,,,,,,,,,125,U,circle,1,0,,,,,,,,,,,,,,,,repeat,letter,lettRpt,k,0.697,Hi,,,,,,3,,,,,,,,low,23,0,23,0,1,,,,,,,,,
296590,2022-12-02_22h18.46.897,vts_reward_expectancy_bt,2022.2.4,MacIntel,58.82352941,Safari,1440,900,,,,,1,1088,,,,,,,,,,,,,,,,,167,Y,circle,1,0,,,,,,,,,,,,,,,,repeat,letter,lettRpt,k,0.526,Hi,,,,,,3,,,,,,,,low,24,0,24,0,1,,,,,,,,,
296590,2022-12-02_22h18.46.897,vts_reward_expectancy_bt,2022.2.4,MacIntel,58.82352941,Safari,1440,900,,,,,1,1089,,,,,,,,,,,,,,,,,125,F,hexagon,1,0,,,,,,,,,,,,,,,,switch,number,numSwt,d,0.595,Lo,,,,,,3,,,,,,,,low,25,0,25,0,1,,,,,,,,,
296590,2022-12-02_22h18.46.897,vts_reward_expectancy_bt,2022.2.4,MacIntel,58.82352941,Safari,1440,900,,,,,0,1089,,,,,,,,,,,,,,,,,160,H,triangle,0,0,,,,,,,,,,,,,,,,switch,letter,NA,k,0.876,Lo,,,,,,3,,,,,,,,low,26,0,26,0,1,,,,,,,,,
296590,2022-12-02_22h18.46.897,vts_reward_expectancy_bt,2022.2.4,MacIntel,58.82352941,Safari,1440,900,,,,,0,1089,,,,,,,,,,,,,,,,,132,B,star,1,1,,,,,,,,,,,,,,,,switch,number,numSwt,d,1.128,Hi,,,,,,3,,,,,,,,low,27,0,27,0,1,,,,,,,,,
296590,2022-12-02_22h18.46.897,vts_reward_expectancy_bt,2022.2.4,MacIntel,58.82352941,Safari,1440,900,,,,,1,1090,,,,,,,,,,,,,,,,,174,D,hexagon,1,0,,,,,,,,,,,,,,,,switch,letter,lettSwt,j,0.579,Lo,,,,,,3,,,,,,,,low,28,0,28,0,1,,,,,,,,,
296590,2022-12-02_22h18.46.897,vts_reward_expectancy_bt,2022.2.4,MacIntel,58.82352941,Safari,1440,900,,,,,10,1100,,,,,,,,,,,,,,,,,139,S,triangle,1,0,,,,,,,,,,,,,,,,switch,number,numSwt,d,1.16,Lo,,,,,,3,,,,,,,,low,29,0,29,0,1,,,,,,,,,
296590,2022-12-02_22h18.46.897,vts_reward_expectancy_bt,2022.2.4,MacIntel,58.82352941,Safari,1440,900,,,,,0,1100,,,,,,,,,,,,,,,,,146,W,star,1,0,,,,,,,,,,,,,,,,switch,letter,lettSwt,k,0.83,Hi,,,,,,3,,,,,,,,low,30,0,30,0,1,,,,,,,,,
296590,2022-12-02_22h18.46.897,vts_reward_expectancy_bt,2022.2.4,MacIntel,58.82352941,Safari,1440,900,,,,,0,1100,,,,,,,,,,,,,,,,,181,U,circle,1,0,,,,,,,,,,,,,,,,repeat,letter,lettRpt,k,0.908,Hi,,,,,,3,,,,,,,,low,31,0,31,0,1,,,,,,,,,
296590,2022-12-02_22h18.46.897,vts_reward_expectancy_bt,2022.2.4,MacIntel,58.82352941,Safari,1440,900,,,,,0,1100,,,,,,,,,,,,,,,,,125,Y,star,1,0,,,,,,,,,,,,,,,,switch,number,numSwt,d,0.734,Hi,,,,,,4,,,,,,space,1.332,low,0,0,0,0,1,,,,,,,,,
296590,2022-12-02_22h18.46.897,vts_reward_expectancy_bt,2022.2.4,MacIntel,58.82352941,Safari,1440,900,,,,,10,1110,,,,,,,,,,,,,,,,,174,W,circle,1,0,,,,,,,,,,,,,,,,repeat,number,numRpt,f,0.527,Hi,,,,,,4,,,,,,,,low,1,0,1,0,1,,,,,,,,,
296590,2022-12-02_22h18.46.897,vts_reward_expectancy_bt,2022.2.4,MacIntel,58.82352941,Safari,1440,900,,,,,1,1111,,,,,,,,,,,,,,,,,146,S,triangle,1,0,,,,,,,,,,,,,,,,switch,letter,lettSwt,k,0.527,Lo,,,,,,4,,,,,,,,low,2,0,2,0,1,,,,,,,,,
296590,2022-12-02_22h18.46.897,vts_reward_expectancy_bt,2022.2.4,MacIntel,58.82352941,Safari,1440,900,,,,,1,1112,,,,,,,,,,,,,,,,,160,U,hexagon,1,0,,,,,,,,,,,,,,,,repeat,letter,lettRpt,k,0.778,Lo,,,,,,4,,,,,,,,low,3,0,3,0,1,,,,,,,,,
296590,2022-12-02_22h18.46.897,vts_reward_expectancy_bt,2022.2.4,MacIntel,58.82352941,Safari,1440,900,,,,,0,1112,,,,,,,,,,,,,,,,,139,H,star,1,0,,,,,,,,,,,,,,,,switch,number,numSwt,d,0.613,Hi,,,,,,4,,,,,,,,low,4,0,4,0,1,,,,,,,,,
296590,2022-12-02_22h18.46.897,vts_reward_expectancy_bt,2022.2.4,MacIntel,58.82352941,Safari,1440,900,,,,,1,1113,,,,,,,,,,,,,,,,,132,D,circle,1,0,,,,,,,,,,,,,,,,repeat,number,numRpt,d,0.575,Hi,,,,,,4,,,,,,,,low,5,0,5,0,1,,,,,,,,,
296590,2022-12-02_22h18.46.897,vts_reward_expectancy_bt,2022.2.4,MacIntel,58.82352941,Safari,1440,900,,,,,1,1114,,,,,,,,,,,,,,,,,167,B,triangle,1,0,,,,,,,,,,,,,,,,switch,letter,lettSwt,j,0.615,Lo,,,,,,4,,,,,,,,low,6,0,6,0,1,,,,,,,,,
296590,2022-12-02_22h18.46.897,vts_reward_expectancy_bt,2022.2.4,MacIntel,58.82352941,Safari,1440,900,,,,,10,1124,,,,,,,,,,,,,,,,,181,F,hexagon,1,0,,,,,,,,,,,,,,,,repeat,letter,lettRpt,j,0.726,Lo,,,,,,4,,,,,,,,low,7,0,7,0,1,,,,,,,,,
296590,2022-12-02_22h18.46.897,vts_reward_expectancy_bt,2022.2.4,MacIntel,58.82352941,Safari,1440,900,,,,,0,1124,,,,,,,,,,,,,,,,,125,Y,circle,1,0,,,,,,,,,,,,,,,,switch,number,numSwt,d,0.714,Hi,,,,,,4,,,,,,,,low,8,0,8,0,1,,,,,,,,,
296590,2022-12-02_22h18.46.897,vts_reward_expectancy_bt,2022.2.4,MacIntel,58.82352941,Safari,1440,900,,,,,1,1125,,,,,,,,,,,,,,,,,174,W,hexagon,1,0,,,,,,,,,,,,,,,,repeat,number,numRpt,f,0.601,Lo,,,,,,4,,,,,,,,low,9,0,9,0,1,,,,,,,,,
296590,2022-12-02_22h18.46.897,vts_reward_expectancy_bt,2022.2.4,MacIntel,58.82352941,Safari,1440,900,,,,,1,1126,,,,,,,,,,,,,,,,,146,S,star,1,0,,,,,,,,,,,,,,,,repeat,number,numRpt,d,0.642,Hi,,,,,,4,,,,,,,,low,10,0,10,0,1,,,,,,,,,
296590,2022-12-02_22h18.46.897,vts_reward_expectancy_bt,2022.2.4,MacIntel,58.82352941,Safari,1440,900,,,,,1,1127,,,,,,,,,,,,,,,,,160,U,triangle,1,0,,,,,,,,,,,,,,,,repeat,number,numRpt,f,0.626,Lo,,,,,,4,,,,,,,,low,11,0,11,0,1,,,,,,,,,
296590,2022-12-02_22h18.46.897,vts_reward_expectancy_bt,2022.2.4,MacIntel,58.82352941,Safari,1440,900,,,,,0,1127,,,,,,,,,,,,,,,,,139,H,circle,1,0,,,,,,,,,,,,,,,,switch,letter,lettSwt,j,0.742,Hi,,,,,,4,,,,,,,,low,12,0,12,0,1,,,,,,,,,
296590,2022-12-02_22h18.46.897,vts_reward_expectancy_bt,2022.2.4,MacIntel,58.82352941,Safari,1440,900,,,,,10,1137,,,,,,,,,,,,,,,,,132,D,star,1,0,,,,,,,,,,,,,,,,switch,number,numSwt,d,0.509,Hi,,,,,,4,,,,,,,,low,13,0,13,0,1,,,,,,,,,
296590,2022-12-02_22h18.46.897,vts_reward_expectancy_bt,2022.2.4,MacIntel,58.82352941,Safari,1440,900,,,,,0,1137,,,,,,,,,,,,,,,,,167,B,hexagon,0,0,,,,,,,,,,,,,,,,switch,letter,NA,k,0.474,Hi,,,,,,4,,,,,,,,low,14,0,14,0,1,,,,,,,,,
296590,2022-12-02_22h18.46.897,vts_reward_expectancy_bt,2022.2.4,MacIntel,58.82352941,Safari,1440,900,,,,,1,1138,,,,,,,,,,,,,,,,,181,F,triangle,1,1,,,,,,,,,,,,,,,,repeat,letter,lettRpt,j,0.625,Lo,,,,,,4,,,,,,,,low,15,0,15,0,1,,,,,,,,,
296590,2022-12-02_22h18.46.897,vts_reward_expectancy_bt,2022.2.4,MacIntel,58.82352941,Safari,1440,900,,,,,1,1139,,,,,,,,,,,,,,,,,167,B,circle,1,0,,,,,,,,,,,,,,,,repeat,letter,lettRpt,j,0.526,Hi,,,,,,4,,,,,,,,low,16,0,16,0,1,,,,,,,,,
296590,2022-12-02_22h18.46.897,vts_reward_expectancy_bt,2022.2.4,MacIntel,58.82352941,Safari,1440,900,,,,,0,1139,,,,,,,,,,,,,,,,,132,W,star,1,0,,,,,,,,,,,,,,,,repeat,letter,lettRpt,k,0.659,Hi,,,,,,4,,,,,,,,low,17,0,17,0,1,,,,,,,,,
296590,2022-12-02_22h18.46.897,vts_reward_expectancy_bt,2022.2.4,MacIntel,58.82352941,Safari,1440,900,,,,,1,1140,,,,,,,,,,,,,,,,,146,S,hexagon,1,0,,,,,,,,,,,,,,,,switch,number,numSwt,d,0.847,Lo,,,,,,4,,,,,,,,low,18,0,18,0,1,,,,,,,,,
296590,2022-12-02_22h18.46.897,vts_reward_expectancy_bt,2022.2.4,MacIntel,58.82352941,Safari,1440,900,,,,,1,1141,,,,,,,,,,,,,,,,,160,F,triangle,1,0,,,,,,,,,,,,,,,,repeat,number,numRpt,f,1.077,Lo,,,,,,4,,,,,,,,low,19,0,19,0,1,,,,,,,,,
296590,2022-12-02_22h18.46.897,vts_reward_expectancy_bt,2022.2.4,MacIntel,58.82352941,Safari,1440,900,,,,,0,1141,,,,,,,,,,,,,,,,,174,D,circle,1,0,,,,,,,,,,,,,,,,switch,letter,lettSwt,j,0.745,Hi,,,,,,4,,,,,,,,low,20,0,20,0,1,,,,,,,,,
296590,2022-12-02_22h18.46.897,vts_reward_expectancy_bt,2022.2.4,MacIntel,58.82352941,Safari,1440,900,,,,,10,1151,,,,,,,,,,,,,,,,,125,U,hexagon,1,0,,,,,,,,,,,,,,,,repeat,letter,lettRpt,k,0.61,Lo,,,,,,4,,,,,,,,low,21,0,21,0,1,,,,,,,,,
296590,2022-12-02_22h18.46.897,vts_reward_expectancy_bt,2022.2.4,MacIntel,58.82352941,Safari,1440,900,,,,,1,1152,,,,,,,,,,,,,,,,,139,Y,triangle,1,0,,,,,,,,,,,,,,,,switch,number,numSwt,d,0.728,Lo,,,,,,4,,,,,,,,low,22,0,22,0,1,,,,,,,,,
296590,2022-12-02_22h18.46.897,vts_reward_expectancy_bt,2022.2.4,MacIntel,58.82352941,Safari,1440,900,,,,,10,1162,,,,,,,,,,,,,,,,,181,H,star,1,0,,,,,,,,,,,,,,,,repeat,number,numRpt,f,0.598,Hi,,,,,,4,,,,,,,,low,23,0,23,0,1,,,,,,,,,
296590,2022-12-02_22h18.46.897,vts_reward_expectancy_bt,2022.2.4,MacIntel,58.82352941,Safari,1440,900,,,,,10,1172,,,,,,,,,,,,,,,,,174,W,circle,1,0,,,,,,,,,,,,,,,,repeat,number,numRpt,f,0.565,Hi,,,,,,4,,,,,,,,low,24,0,24,0,1,,,,,,,,,
296590,2022-12-02_22h18.46.897,vts_reward_expectancy_bt,2022.2.4,MacIntel,58.82352941,Safari,1440,900,,,,,1,1173,,,,,,,,,,,,,,,,,181,F,hexagon,1,0,,,,,,,,,,,,,,,,switch,letter,lettSwt,j,0.678,Lo,,,,,,4,,,,,,,,low,25,0,25,0,1,,,,,,,,,
296590,2022-12-02_22h18.46.897,vts_reward_expectancy_bt,2022.2.4,MacIntel,58.82352941,Safari,1440,900,,,,,0,1173,,,,,,,,,,,,,,,,,160,B,star,1,0,,,,,,,,,,,,,,,,switch,number,numSwt,f,0.844,Hi,,,,,,4,,,,,,,,low,26,0,26,0,1,,,,,,,,,
296590,2022-12-02_22h18.46.897,vts_reward_expectancy_bt,2022.2.4,MacIntel,58.82352941,Safari,1440,900,,,,,1,1174,,,,,,,,,,,,,,,,,139,H,triangle,1,0,,,,,,,,,,,,,,,,switch,letter,lettSwt,j,0.948,Lo,,,,,,4,,,,,,,,low,27,0,27,0,1,,,,,,,,,
296590,2022-12-02_22h18.46.897,vts_reward_expectancy_bt,2022.2.4,MacIntel,58.82352941,Safari,1440,900,,,,,10,1184,,,,,,,,,,,,,,,,,167,U,star,1,0,,,,,,,,,,,,,,,,repeat,letter,lettRpt,k,0.544,Hi,,,,,,4,,,,,,,,low,28,0,28,0,1,,,,,,,,,
296590,2022-12-02_22h18.46.897,vts_reward_expectancy_bt,2022.2.4,MacIntel,58.82352941,Safari,1440,900,,,,,1,1185,,,,,,,,,,,,,,,,,146,Y,circle,1,0,,,,,,,,,,,,,,,,repeat,letter,lettRpt,k,0.475,Hi,,,,,,4,,,,,,,,low,29,0,29,0,1,,,,,,,,,
296590,2022-12-02_22h18.46.897,vts_reward_expectancy_bt,2022.2.4,MacIntel,58.82352941,Safari,1440,900,,,,,0,1185,,,,,,,,,,,,,,,,,132,D,hexagon,0,0,,,,,,,,,,,,,,,,repeat,letter,NA,k,0.562,Hi,,,,,,4,,,,,,,,low,30,0,30,0,1,,,,,,,,,
296590,2022-12-02_22h18.46.897,vts_reward_expectancy_bt,2022.2.4,MacIntel,58.82352941,Safari,1440,900,,,,,1,1186,,,,,,,,,,,,,,,,,125,S,triangle,1,1,,,,,,,,,,,,,,,,repeat,letter,lettRpt,k,0.793,Lo,,,,,,4,,,,,,,,low,31,0,31,0,1,,,,,,,,,
296590,2022-12-02_22h18.46.897,vts_reward_expectancy_bt,2022.2.4,MacIntel,58.82352941,Safari,1440,900,,,,,10,1196,,,,,,,,,,,,,,,,,146,Y,circle,1,0,,,,,,,,,,,,,,,,repeat,letter,lettRpt,k,0.558,Hi,,,,,,5,,,,,,space,2.645,low,0,0,0,0,1,,,,,,,,,
296590,2022-12-02_22h18.46.897,vts_reward_expectancy_bt,2022.2.4,MacIntel,58.82352941,Safari,1440,900,,,,,10,1206,,,,,,,,,,,,,,,,,139,H,hexagon,1,0,,,,,,,,,,,,,,,,switch,number,numSwt,d,0.625,Lo,,,,,,5,,,,,,,,low,1,0,1,0,1,,,,,,,,,
296590,2022-12-02_22h18.46.897,vts_reward_expectancy_bt,2022.2.4,MacIntel,58.82352941,Safari,1440,900,,,,,0,1206,,,,,,,,,,,,,,,,,181,F,triangle,0,0,,,,,,,,,,,,,,,,repeat,number,NA,d,0.726,Lo,,,,,,5,,,,,,,,low,2,0,2,0,1,,,,,,,,,
296590,2022-12-02_22h18.46.897,vts_reward_expectancy_bt,2022.2.4,MacIntel,58.82352941,Safari,1440,900,,,,,10,1216,,,,,,,,,,,,,,,,,174,B,star,1,1,,,,,,,,,,,,,,,,switch,letter,lettSwt,j,0.608,Hi,,,,,,5,,,,,,,,low,3,0,3,0,1,,,,,,,,,
296590,2022-12-02_22h18.46.897,vts_reward_expectancy_bt,2022.2.4,MacIntel,58.82352941,Safari,1440,900,,,,,0,1216,,,,,,,,,,,,,,,,,167,S,circle,1,0,,,,,,,,,,,,,,,,repeat,letter,lettRpt,k,0.632,Hi,,,,,,5,,,,,,,,low,4,0,4,0,1,,,,,,,,,
296590,2022-12-02_22h18.46.897,vts_reward_expectancy_bt,2022.2.4,MacIntel,58.82352941,Safari,1440,900,,,,,10,1226,,,,,,,,,,,,,,,,,160,U,hexagon,1,0,,,,,,,,,,,,,,,,switch,number,numSwt,f,0.617,Lo,,,,,,5,,,,,,,,low,5,0,5,0,1,,,,,,,,,
296590,2022-12-02_22h18.46.897,vts_reward_expectancy_bt,2022.2.4,MacIntel,58.82352941,Safari,1440,900,,,,,10,1236,,,,,,,,,,,,,,,,,125,D,triangle,1,0,,,,,,,,,,,,,,,,repeat,number,numRpt,d,0.645,Lo,,,,,,5,,,,,,,,low,6,0,6,0,1,,,,,,,,,
296590,2022-12-02_22h18.46.897,vts_reward_expectancy_bt,2022.2.4,MacIntel,58.82352941,Safari,1440,900,,,,,0,1236,,,,,,,,,,,,,,,,,132,W,star,1,0,,,,,,,,,,,,,,,,switch,letter,lettSwt,k,0.944,Hi,,,,,,5,,,,,,,,low,7,0,7,0,1,,,,,,,,,
296590,2022-12-02_22h18.46.897,vts_reward_expectancy_bt,2022.2.4,MacIntel,58.82352941,Safari,1440,900,,,,,0,1236,,,,,,,,,,,,,,,,,146,Y,star,0,0,,,,,,,,,,,,,,,,switch,number,NA,f,0.625,Hi,,,,,,5,,,,,,,,low,8,0,8,0,1,,,,,,,,,
296590,2022-12-02_22h18.46.897,vts_reward_expectancy_bt,2022.2.4,MacIntel,58.82352941,Safari,1440,900,,,,,10,1246,,,,,,,,,,,,,,,,,139,H,triangle,1,1,,,,,,,,,,,,,,,,repeat,number,numRpt,d,0.761,Lo,,,,,,5,,,,,,,,low,9,0,9,0,1,,,,,,,,,
296590,2022-12-02_22h18.46.897,vts_reward_expectancy_bt,2022.2.4,MacIntel,58.82352941,Safari,1440,900,,,,,1,1247,,,,,,,,,,,,,,,,,181,F,hexagon,1,0,,,,,,,,,,,,,,,,switch,letter,lettSwt,j,0.644,Lo,,,,,,5,,,,,,,,low,10,0,10,0,1,,,,,,,,,
296590,2022-12-02_22h18.46.897,vts_reward_expectancy_bt,2022.2.4,MacIntel,58.82352941,Safari,1440,900,,,,,0,1247,,,,,,,,,,,,,,,,,174,B,circle,1,0,,,,,,,,,,,,,,,,repeat,letter,lettRpt,j,0.643,Hi,,,,,,5,,,,,,,,low,11,0,11,0,1,,,,,,,,,
296590,2022-12-02_22h18.46.897,vts_reward_expectancy_bt,2022.2.4,MacIntel,58.82352941,Safari,1440,900,,,,,10,1257,,,,,,,,,,,,,,,,,167,S,hexagon,1,0,,,,,,,,,,,,,,,,repeat,letter,lettRpt,k,0.708,Lo,,,,,,5,,,,,,,,low,12,0,12,0,1,,,,,,,,,
296590,2022-12-02_22h18.46.897,vts_reward_expectancy_bt,2022.2.4,MacIntel,58.82352941,Safari,1440,900,,,,,0,1257,,,,,,,,,,,,,,,,,160,U,circle,1,0,,,,,,,,,,,,,,,,repeat,letter,lettRpt,k,0.61,Hi,,,,,,5,,,,,,,,low,13,0,13,0,1,,,,,,,,,
296590,2022-12-02_22h18.46.897,vts_reward_expectancy_bt,2022.2.4,MacIntel,58.82352941,Safari,1440,900,,,,,1,1258,,,,,,,,,,,,,,,,,125,D,star,1,0,,,,,,,,,,,,,,,,switch,number,numSwt,d,0.61,Hi,,,,,,5,,,,,,,,low,14,0,14,0,1,,,,,,,,,
296590,2022-12-02_22h18.46.897,vts_reward_expectancy_bt,2022.2.4,MacIntel,58.82352941,Safari,1440,900,,,,,0,1258,,,,,,,,,,,,,,,,,132,W,triangle,0,0,,,,,,,,,,,,,,,,switch,letter,NA,j,0.492,Hi,,,,,,5,,,,,,,,low,15,0,15,0,1,,,,,,,,,
296590,2022-12-02_22h18.46.897,vts_reward_expectancy_bt,2022.2.4,MacIntel,58.82352941,Safari,1440,900,,,,,10,1268,,,,,,,,,,,,,,,,,181,W,triangle,1,1,,,,,,,,,,,,,,,,switch,number,numSwt,f,0.63,Lo,,,,,,5,,,,,,,,low,16,0,16,0,1,,,,,,,,,
296590,2022-12-02_22h18.46.897,vts_reward_expectancy_bt,2022.2.4,MacIntel,58.82352941,Safari,1440,900,,,,,1,1269,,,,,,,,,,,,,,,,,132,D,hexagon,1,0,,,,,,,,,,,,,,,,switch,letter,lettSwt,j,0.93,Lo,,,,,,5,,,,,,,,low,17,0,17,0,1,,,,,,,,,
296590,2022-12-02_22h18.46.897,vts_reward_expectancy_bt,2022.2.4,MacIntel,58.82352941,Safari,1440,900,,,,,0,1269,,,,,,,,,,,,,,,,,160,H,circle,0,0,,,,,,,,,,,,,,,,repeat,letter,NA,k,0.747,Lo,,,,,,5,,,,,,,,low,18,0,18,0,1,,,,,,,,,
296590,2022-12-02_22h18.46.897,vts_reward_expectancy_bt,2022.2.4,MacIntel,58.82352941,Safari,1440,900,,,,,0,1269,,,,,,,,,,,,,,,,,167,Y,star,1,1,,,,,,,,,,,,,,,,repeat,letter,lettRpt,k,0.692,Hi,,,,,,5,,,,,,,,low,19,0,19,0,1,,,,,,,,,
296590,2022-12-02_22h18.46.897,vts_reward_expectancy_bt,2022.2.4,MacIntel,58.82352941,Safari,1440,900,,,,,10,1279,,,,,,,,,,,,,,,,,125,U,circle,1,0,,,,,,,,,,,,,,,,switch,number,numSwt,d,0.584,Hi,,,,,,5,,,,,,,,low,20,0,20,0,1,,,,,,,,,
296590,2022-12-02_22h18.46.897,vts_reward_expectancy_bt,2022.2.4,MacIntel,58.82352941,Safari,1440,900,,,,,10,1289,,,,,,,,,,,,,,,,,139,B,triangle,1,0,,,,,,,,,,,,,,,,switch,letter,lettSwt,j,0.661,Lo,,,,,,5,,,,,,,,low,21,0,21,0,1,,,,,,,,,
296590,2022-12-02_22h18.46.897,vts_reward_expectancy_bt,2022.2.4,MacIntel,58.82352941,Safari,1440,900,,,,,0,1289,,,,,,,,,,,,,,,,,146,S,star,1,0,,,,,,,,,,,,,,,,repeat,letter,lettRpt,k,0.692,Hi,,,,,,5,,,,,,,,low,22,0,22,0,1,,,,,,,,,
296590,2022-12-02_22h18.46.897,vts_reward_expectancy_bt,2022.2.4,MacIntel,58.82352941,Safari,1440,900,,,,,1,1290,,,,,,,,,,,,,,,,,174,F,hexagon,1,0,,,,,,,,,,,,,,,,switch,number,numSwt,f,0.581,Lo,,,,,,5,,,,,,,,low,23,0,23,0,1,,,,,,,,,
296590,2022-12-02_22h18.46.897,vts_reward_expectancy_bt,2022.2.4,MacIntel,58.82352941,Safari,1440,900,,,,,0,1290,,,,,,,,,,,,,,,,,174,Y,star,1,0,,,,,,,,,,,,,,,,repeat,number,numRpt,f,0.762,Hi,,,,,,5,,,,,,,,low,24,0,24,0,1,,,,,,,,,
296590,2022-12-02_22h18.46.897,vts_reward_expectancy_bt,2022.2.4,MacIntel,58.82352941,Safari,1440,900,,,,,0,1290,,,,,,,,,,,,,,,,,139,H,circle,0,0,,,,,,,,,,,,,,,,switch,letter,NA,k,0.781,Hi,,,,,,5,,,,,,,,low,25,0,25,0,1,,,,,,,,,
296590,2022-12-02_22h18.46.897,vts_reward_expectancy_bt,2022.2.4,MacIntel,58.82352941,Safari,1440,900,,,,,1,1291,,,,,,,,,,,,,,,,,146,B,triangle,1,1,,,,,,,,,,,,,,,,repeat,letter,lettRpt,j,0.726,Lo,,,,,,5,,,,,,,,low,26,0,26,0,1,,,,,,,,,
296590,2022-12-02_22h18.46.897,vts_reward_expectancy_bt,2022.2.4,MacIntel,58.82352941,Safari,1440,900,,,,,1,1292,,,,,,,,,,,,,,,,,167,S,hexagon,1,0,,,,,,,,,,,,,,,,repeat,letter,lettRpt,k,0.71,Lo,,,,,,5,,,,,,,,low,27,0,27,0,1,,,,,,,,,
296590,2022-12-02_22h18.46.897,vts_reward_expectancy_bt,2022.2.4,MacIntel,58.82352941,Safari,1440,900,,,,,10,1302,,,,,,,,,,,,,,,,,160,U,circle,1,0,,,,,,,,,,,,,,,,switch,number,numSwt,f,0.48,Hi,,,,,,5,,,,,,,,low,28,0,28,0,1,,,,,,,,,
296590,2022-12-02_22h18.46.897,vts_reward_expectancy_bt,2022.2.4,MacIntel,58.82352941,Safari,1440,900,,,,,0,1302,,,,,,,,,,,,,,,,,132,F,star,1,0,,,,,,,,,,,,,,,,repeat,number,numRpt,d,0.718,Hi,,,,,,5,,,,,,,,low,29,0,29,0,1,,,,,,,,,
296590,2022-12-02_22h18.46.897,vts_reward_expectancy_bt,2022.2.4,MacIntel,58.82352941,Safari,1440,900,,,,,1,1303,,,,,,,,,,,,,,,,,181,W,hexagon,1,0,,,,,,,,,,,,,,,,switch,letter,lettSwt,k,0.61,Lo,,,,,,5,,,,,,,,low,30,0,30,0,1,,,,,,,,,
296590,2022-12-02_22h18.46.897,vts_reward_expectancy_bt,2022.2.4,MacIntel,58.82352941,Safari,1440,900,,,,,10,1313,,,,,,,,,,,,,,,,,125,D,triangle,1,0,,,,,,,,,,,,,,,,switch,number,numSwt,d,0.593,Lo,,,,,,5,,,,,,,,low,31,0,31,0,1,,,,,,,,,
296590,2022-12-02_22h18.46.897,vts_reward_expectancy_bt,2022.2.4,MacIntel,58.82352941,Safari,1440,900,,,,,10,1323,,,,,,,,,,,,,,,,,132,D,circle,1,0,,,,,,,,,,,,,,,,switch,letter,lettSwt,j,0.561,Hi,,,,,,6,,,,,,space,0.73,low,0,0,0,0,1,,,,,,,,,
296590,2022-12-02_22h18.46.897,vts_reward_expectancy_bt,2022.2.4,MacIntel,58.82352941,Safari,1440,900,,,,,10,1333,,,,,,,,,,,,,,,,,174,B,hexagon,1,0,,,,,,,,,,,,,,,,repeat,letter,lettRpt,j,0.694,Lo,,,,,,6,,,,,,,,low,1,0,1,0,1,,,,,,,,,
296590,2022-12-02_22h18.46.897,vts_reward_expectancy_bt,2022.2.4,MacIntel,58.82352941,Safari,1440,900,,,,,1,1334,,,,,,,,,,,,,,,,,181,W,triangle,1,0,,,,,,,,,,,,,,,,switch,number,numSwt,f,0.492,Lo,,,,,,6,,,,,,,,low,2,0,2,0,1,,,,,,,,,
296590,2022-12-02_22h18.46.897,vts_reward_expectancy_bt,2022.2.4,MacIntel,58.82352941,Safari,1440,900,,,,,0,1334,,,,,,,,,,,,,,,,,146,H,star,1,0,,,,,,,,,,,,,,,,repeat,number,numRpt,d,0.741,Hi,,,,,,6,,,,,,,,low,3,0,3,0,1,,,,,,,,,
296590,2022-12-02_22h18.46.897,vts_reward_expectancy_bt,2022.2.4,MacIntel,58.82352941,Safari,1440,900,,,,,1,1335,,,,,,,,,,,,,,,,,139,U,circle,1,0,,,,,,,,,,,,,,,,repeat,number,numRpt,d,0.634,Hi,,,,,,6,,,,,,,,low,4,0,4,0,1,,,,,,,,,
296590,2022-12-02_22h18.46.897,vts_reward_expectancy_bt,2022.2.4,MacIntel,58.82352941,Safari,1440,900,,,,,1,1336,,,,,,,,,,,,,,,,,167,Y,hexagon,1,0,,,,,,,,,,,,,,,,repeat,number,numRpt,f,0.648,Lo,,,,,,6,,,,,,,,low,5,0,5,0,1,,,,,,,,,
296590,2022-12-02_22h18.46.897,vts_reward_expectancy_bt,2022.2.4,MacIntel,58.82352941,Safari,1440,900,,,,,1,1337,,,,,,,,,,,,,,,,,160,F,triangle,1,0,,,,,,,,,,,,,,,,switch,letter,lettSwt,j,0.593,Lo,,,,,,6,,,,,,,,low,6,0,6,0,1,,,,,,,,,
296590,2022-12-02_22h18.46.897,vts_reward_expectancy_bt,2022.2.4,MacIntel,58.82352941,Safari,1440,900,,,,,0,1337,,,,,,,,,,,,,,,,,125,S,star,1,0,,,,,,,,,,,,,,,,repeat,letter,lettRpt,k,0.71,Hi,,,,,,6,,,,,,,,low,7,0,7,0,1,,,,,,,,,
296590,2022-12-02_22h18.46.897,vts_reward_expectancy_bt,2022.2.4,MacIntel,58.82352941,Safari,1440,900,,,,,10,1347,,,,,,,,,,,,,,,,,132,D,circle,1,0,,,,,,,,,,,,,,,,repeat,letter,lettRpt,j,0.564,Hi,,,,,,6,,,,,,,,low,8,0,8,0,1,,,,,,,,,
296590,2022-12-02_22h18.46.897,vts_reward_expectancy_bt,2022.2.4,MacIntel,58.82352941,Safari,1440,900,,,,,10,1357,,,,,,,,,,,,,,,,,174,B,hexagon,1,0,,,,,,,,,,,,,,,,repeat,letter,lettRpt,j,0.695,Lo,,,,,,6,,,,,,,,low,9,0,9,0,1,,,,,,,,,
296590,2022-12-02_22h18.46.897,vts_reward_expectancy_bt,2022.2.4,MacIntel,58.82352941,Safari,1440,900,,,,,0,1357,,,,,,,,,,,,,,,,,181,W,star,1,0,,,,,,,,,,,,,,,,switch,number,numSwt,f,0.592,Hi,,,,,,6,,,,,,,,low,10,0,10,0,1,,,,,,,,,
296590,2022-12-02_22h18.46.897,vts_reward_expectancy_bt,2022.2.4,MacIntel,58.82352941,Safari,1440,900,,,,,1,1358,,,,,,,,,,,,,,,,,146,H,triangle,1,0,,,,,,,,,,,,,,,,repeat,number,numRpt,d,0.719,Lo,,,,,,6,,,,,,,,low,11,0,11,0,1,,,,,,,,,
296590,2022-12-02_22h18.46.897,vts_reward_expectancy_bt,2022.2.4,MacIntel,58.82352941,Safari,1440,900,,,,,1,1359,,,,,,,,,,,,,,,,,139,U,star,1,0,,,,,,,,,,,,,,,,switch,letter,lettSwt,k,0.491,Hi,,,,,,6,,,,,,,,low,12,0,12,0,1,,,,,,,,,
