participant,date,expName,psychopyVersion,OS,frameRate,browser,xResolution,yResolution,key_resp.keys,key_resp.rt,training_resp.keys,training_resp.rt,points_trial,points_cumul,trainBlock,training.thisRepN,training.thisTrialN,training.thisN,training.thisIndex,training.ran,LTriangleOpac,LCircleOpac,LHexagonOpac,LStarOpac,RTriangleOpac,RCircleOpac,RHexagonOpac,RStarOpac,LShape_ID,RShape_ID,curr_topStim,curr_bottStim,curr_shape,acc,E1,target_resp_prac1.keys,target_resp_prac1.rt,pracBlock,task1_prac_trials.thisRepN,task1_prac_trials.thisTrialN,task1_prac_trials.thisN,task1_prac_trials.thisIndex,task1_prac_trials.ran,target_resp_prac2.keys,target_resp_prac2.rt,task2_praac_trials.thisRepN,task2_praac_trials.thisTrialN,task2_praac_trials.thisN,task2_praac_trials.thisIndex,task2_praac_trials.ran,alt,task,condition,target_resp.keys,target_resp.rt,rewCond,vts_practice_trials.thisRepN,vts_practice_trials.thisTrialN,vts_practice_trials.thisN,vts_practice_trials.thisIndex,vts_practice_trials.ran,blockNum,trials_norew.thisRepN,trials_norew.thisTrialN,trials_norew.thisN,trials_norew.thisIndex,trials_norew.ran,key_resp_2.keys,key_resp_2.rt,rewExpectancy,trials_rew.thisRepN,trials_rew.thisTrialN,trials_rew.thisN,trials_rew.thisIndex,trials_rew.ran,Q1,Q2,Q2_text,Q3,Q4,Q5_text,Q5,xRes,yRes
296527,2022-11-30_20h25.05.938,vts_reward_expectancy_bt,2022.2.4,Win32,59.53444067,Chrome,1368,912,,,,,,,,,,,,,,,,,,,,,,,,,,,,,,,,,,,,,,,,,,,,,,,,,,,,,,,,,,,,,,,,,,,,,,,,,,,,
296527,2022-11-30_20h25.05.938,vts_reward_expectancy_bt,2022.2.4,Win32,59.53444067,Chrome,1368,912,space,33.5872,,,,,,,,,,,,,,,,,,,,,,,,,,,,,,,,,,,,,,,,,,,,,,,,,,,,,,,,,,,,,,,,,,,,,,,,,,
296527,2022-11-30_20h25.05.938,vts_reward_expectancy_bt,2022.2.4,Win32,59.53444067,Chrome,1368,912,,,,,,,,,,,,,,,,,,,,,,,,,,,,,,,,,,,,,,,,,,,,,,,,,,,,,,,,,,,,,,,,,,,,,,,,,,,,
296527,2022-11-30_20h25.05.938,vts_reward_expectancy_bt,2022.2.4,Win32,59.53444067,Chrome,1368,912,,,a,2.4657,1,1,0,0,0,0,3,1,0,1,0,0,1,0,0,0,circle,triangle,,,,,,,,,,,,,,,,,,,,,,,,,,,,,,,,,,,,,,,,,,,,,,,,,,,,,,
296527,2022-11-30_20h25.05.938,vts_reward_expectancy_bt,2022.2.4,Win32,59.53444067,Chrome,1368,912,,,a,0.8728,10,11,0,0,1,1,0,1,1,0,0,0,0,1,0,0,triangle,circle,,,,,,,,,,,,,,,,,,,,,,,,,,,,,,,,,,,,,,,,,,,,,,,,,,,,,,
296527,2022-11-30_20h25.05.938,vts_reward_expectancy_bt,2022.2.4,Win32,59.53444067,Chrome,1368,912,,,l,0.9687,1,12,0,0,2,2,7,1,0,0,1,0,0,1,0,0,hexagon,circle,,,,,,,,,,,,,,,,,,,,,,,,,,,,,,,,,,,,,,,,,,,,,,,,,,,,,,
296527,2022-11-30_20h25.05.938,vts_reward_expectancy_bt,2022.2.4,Win32,59.53444067,Chrome,1368,912,,,l,332.3868,1,13,0,0,3,3,11,1,0,0,0,1,0,0,1,0,star,hexagon,,,,,,,,,,,,,,,,,,,,,,,,,,,,,,,,,,,,,,,,,,,,,,,,,,,,,,
296527,2022-11-30_20h25.05.938,vts_reward_expectancy_bt,2022.2.4,Win32,59.53444067,Chrome,1368,912,,,l,2.1538,1,14,0,0,4,4,2,1,1,0,0,0,0,0,0,1,triangle,star,,,,,,,,,,,,,,,,,,,,,,,,,,,,,,,,,,,,,,,,,,,,,,,,,,,,,,
296527,2022-11-30_20h25.05.938,vts_reward_expectancy_bt,2022.2.4,Win32,59.53444067,Chrome,1368,912,,,a,0.9398,1,15,0,0,5,5,6,1,0,0,1,0,1,0,0,0,hexagon,triangle,,,,,,,,,,,,,,,,,,,,,,,,,,,,,,,,,,,,,,,,,,,,,,,,,,,,,,
296527,2022-11-30_20h25.05.938,vts_reward_expectancy_bt,2022.2.4,Win32,59.53444067,Chrome,1368,912,,,l,0.441,1,16,0,0,6,6,9,1,0,0,0,1,1,0,0,0,star,triangle,,,,,,,,,,,,,,,,,,,,,,,,,,,,,,,,,,,,,,,,,,,,,,,,,,,,,,
296527,2022-11-30_20h25.05.938,vts_reward_expectancy_bt,2022.2.4,Win32,59.53444067,Chrome,1368,912,,,l,0.9438,1,17,0,0,7,7,1,1,1,0,0,0,0,0,1,0,triangle,hexagon,,,,,,,,,,,,,,,,,,,,,,,,,,,,,,,,,,,,,,,,,,,,,,,,,,,,,,
296527,2022-11-30_20h25.05.938,vts_reward_expectancy_bt,2022.2.4,Win32,59.53444067,Chrome,1368,912,,,a,0.519,10,27,0,0,8,8,4,1,0,1,0,0,0,0,1,0,circle,hexagon,,,,,,,,,,,,,,,,,,,,,,,,,,,,,,,,,,,,,,,,,,,,,,,,,,,,,,
296527,2022-11-30_20h25.05.938,vts_reward_expectancy_bt,2022.2.4,Win32,59.53444067,Chrome,1368,912,,,a,1.0347,1,28,0,0,9,9,8,1,0,0,1,0,0,0,0,1,hexagon,star,,,,,,,,,,,,,,,,,,,,,,,,,,,,,,,,,,,,,,,,,,,,,,,,,,,,,,
296527,2022-11-30_20h25.05.938,vts_reward_expectancy_bt,2022.2.4,Win32,59.53444067,Chrome,1368,912,,,a,31.504,1,29,0,0,10,10,10,1,0,0,0,1,0,1,0,0,star ,circle,,,,,,,,,,,,,,,,,,,,,,,,,,,,,,,,,,,,,,,,,,,,,,,,,,,,,,
296527,2022-11-30_20h25.05.938,vts_reward_expectancy_bt,2022.2.4,Win32,59.53444067,Chrome,1368,912,,,a,2.8042,1,30,0,0,11,11,5,1,0,1,0,0,0,0,0,1,circle,star,,,,,,,,,,,,,,,,,,,,,,,,,,,,,,,,,,,,,,,,,,,,,,,,,,,,,,
296527,2022-11-30_20h25.05.938,vts_reward_expectancy_bt,2022.2.4,Win32,59.53444067,Chrome,1368,912,,,a,4.9762,1,31,0,1,0,12,7,1,0,0,1,0,0,1,0,0,hexagon,circle,,,,,,,,,,,,,,,,,,,,,,,,,,,,,,,,,,,,,,,,,,,,,,,,,,,,,,
296527,2022-11-30_20h25.05.938,vts_reward_expectancy_bt,2022.2.4,Win32,59.53444067,Chrome,1368,912,,,a,8.4624,10,41,0,1,1,13,2,1,1,0,0,0,0,0,0,1,triangle,star,,,,,,,,,,,,,,,,,,,,,,,,,,,,,,,,,,,,,,,,,,,,,,,,,,,,,,
296527,2022-11-30_20h25.05.938,vts_reward_expectancy_bt,2022.2.4,Win32,59.53444067,Chrome,1368,912,,,l,5.6222,1,42,0,1,2,14,1,1,1,0,0,0,0,0,1,0,triangle,hexagon,,,,,,,,,,,,,,,,,,,,,,,,,,,,,,,,,,,,,,,,,,,,,,,,,,,,,,
296527,2022-11-30_20h25.05.938,vts_reward_expectancy_bt,2022.2.4,Win32,59.53444067,Chrome,1368,912,,,l,3.608,10,52,0,1,3,15,11,1,0,0,0,1,0,0,1,0,star,hexagon,,,,,,,,,,,,,,,,,,,,,,,,,,,,,,,,,,,,,,,,,,,,,,,,,,,,,,
296527,2022-11-30_20h25.05.938,vts_reward_expectancy_bt,2022.2.4,Win32,59.53444067,Chrome,1368,912,,,l,1.4594,1,53,0,1,4,16,10,1,0,0,0,1,0,1,0,0,star ,circle,,,,,,,,,,,,,,,,,,,,,,,,,,,,,,,,,,,,,,,,,,,,,,,,,,,,,,
296527,2022-11-30_20h25.05.938,vts_reward_expectancy_bt,2022.2.4,Win32,59.53444067,Chrome,1368,912,,,a,2.186,10,63,0,1,5,17,9,1,0,0,0,1,1,0,0,0,star,triangle,,,,,,,,,,,,,,,,,,,,,,,,,,,,,,,,,,,,,,,,,,,,,,,,,,,,,,
296527,2022-11-30_20h25.05.938,vts_reward_expectancy_bt,2022.2.4,Win32,59.53444067,Chrome,1368,912,,,l,1.7178,10,73,0,1,6,18,3,1,0,1,0,0,1,0,0,0,circle,triangle,,,,,,,,,,,,,,,,,,,,,,,,,,,,,,,,,,,,,,,,,,,,,,,,,,,,,,
296527,2022-11-30_20h25.05.938,vts_reward_expectancy_bt,2022.2.4,Win32,59.53444067,Chrome,1368,912,,,l,1.1857,10,83,0,1,7,19,6,1,0,0,1,0,1,0,0,0,hexagon,triangle,,,,,,,,,,,,,,,,,,,,,,,,,,,,,,,,,,,,,,,,,,,,,,,,,,,,,,
296527,2022-11-30_20h25.05.938,vts_reward_expectancy_bt,2022.2.4,Win32,59.53444067,Chrome,1368,912,,,a,0.7844,1,84,0,1,8,20,4,1,0,1,0,0,0,0,1,0,circle,hexagon,,,,,,,,,,,,,,,,,,,,,,,,,,,,,,,,,,,,,,,,,,,,,,,,,,,,,,
296527,2022-11-30_20h25.05.938,vts_reward_expectancy_bt,2022.2.4,Win32,59.53444067,Chrome,1368,912,,,a,0.8855,1,85,0,1,9,21,5,1,0,1,0,0,0,0,0,1,circle,star,,,,,,,,,,,,,,,,,,,,,,,,,,,,,,,,,,,,,,,,,,,,,,,,,,,,,,
296527,2022-11-30_20h25.05.938,vts_reward_expectancy_bt,2022.2.4,Win32,59.53444067,Chrome,1368,912,,,l,0.4087,10,95,0,1,10,22,8,1,0,0,1,0,0,0,0,1,hexagon,star,,,,,,,,,,,,,,,,,,,,,,,,,,,,,,,,,,,,,,,,,,,,,,,,,,,,,,
296527,2022-11-30_20h25.05.938,vts_reward_expectancy_bt,2022.2.4,Win32,59.53444067,Chrome,1368,912,,,l,1.2505,1,96,0,1,11,23,0,1,1,0,0,0,0,1,0,0,triangle,circle,,,,,,,,,,,,,,,,,,,,,,,,,,,,,,,,,,,,,,,,,,,,,,,,,,,,,,
296527,2022-11-30_20h25.05.938,vts_reward_expectancy_bt,2022.2.4,Win32,59.53444067,Chrome,1368,912,,,a,0.8845,1,97,0,2,0,24,0,1,1,0,0,0,0,1,0,0,triangle,circle,,,,,,,,,,,,,,,,,,,,,,,,,,,,,,,,,,,,,,,,,,,,,,,,,,,,,,
296527,2022-11-30_20h25.05.938,vts_reward_expectancy_bt,2022.2.4,Win32,59.53444067,Chrome,1368,912,,,l,0.9536,10,107,0,2,1,25,6,1,0,0,1,0,1,0,0,0,hexagon,triangle,,,,,,,,,,,,,,,,,,,,,,,,,,,,,,,,,,,,,,,,,,,,,,,,,,,,,,
296527,2022-11-30_20h25.05.938,vts_reward_expectancy_bt,2022.2.4,Win32,59.53444067,Chrome,1368,912,,,a,0.6742,10,117,0,2,2,26,9,1,0,0,0,1,1,0,0,0,star,triangle,,,,,,,,,,,,,,,,,,,,,,,,,,,,,,,,,,,,,,,,,,,,,,,,,,,,,,
296527,2022-11-30_20h25.05.938,vts_reward_expectancy_bt,2022.2.4,Win32,59.53444067,Chrome,1368,912,,,a,0.8734,1,118,0,2,3,27,4,1,0,1,0,0,0,0,1,0,circle,hexagon,,,,,,,,,,,,,,,,,,,,,,,,,,,,,,,,,,,,,,,,,,,,,,,,,,,,,,
296527,2022-11-30_20h25.05.938,vts_reward_expectancy_bt,2022.2.4,Win32,59.53444067,Chrome,1368,912,,,l,0.657,10,128,0,2,4,28,5,1,0,1,0,0,0,0,0,1,circle,star,,,,,,,,,,,,,,,,,,,,,,,,,,,,,,,,,,,,,,,,,,,,,,,,,,,,,,
296527,2022-11-30_20h25.05.938,vts_reward_expectancy_bt,2022.2.4,Win32,59.53444067,Chrome,1368,912,,,l,1.0515,10,138,0,2,5,29,2,1,1,0,0,0,0,0,0,1,triangle,star,,,,,,,,,,,,,,,,,,,,,,,,,,,,,,,,,,,,,,,,,,,,,,,,,,,,,,
296527,2022-11-30_20h25.05.938,vts_reward_expectancy_bt,2022.2.4,Win32,59.53444067,Chrome,1368,912,,,a,0.9231,1,139,0,2,6,30,11,1,0,0,0,1,0,0,1,0,star,hexagon,,,,,,,,,,,,,,,,,,,,,,,,,,,,,,,,,,,,,,,,,,,,,,,,,,,,,,
296527,2022-11-30_20h25.05.938,vts_reward_expectancy_bt,2022.2.4,Win32,59.53444067,Chrome,1368,912,,,a,0.6672,10,149,0,2,7,31,1,1,1,0,0,0,0,0,1,0,triangle,hexagon,,,,,,,,,,,,,,,,,,,,,,,,,,,,,,,,,,,,,,,,,,,,,,,,,,,,,,
296527,2022-11-30_20h25.05.938,vts_reward_expectancy_bt,2022.2.4,Win32,59.53444067,Chrome,1368,912,,,a,0.8685,1,150,0,2,8,32,7,1,0,0,1,0,0,1,0,0,hexagon,circle,,,,,,,,,,,,,,,,,,,,,,,,,,,,,,,,,,,,,,,,,,,,,,,,,,,,,,
296527,2022-11-30_20h25.05.938,vts_reward_expectancy_bt,2022.2.4,Win32,59.53444067,Chrome,1368,912,,,a,0.7261,1,151,0,2,9,33,3,1,0,1,0,0,1,0,0,0,circle,triangle,,,,,,,,,,,,,,,,,,,,,,,,,,,,,,,,,,,,,,,,,,,,,,,,,,,,,,
296527,2022-11-30_20h25.05.938,vts_reward_expectancy_bt,2022.2.4,Win32,59.53444067,Chrome,1368,912,,,l,0.4559,1,152,0,2,10,34,10,1,0,0,0,1,0,1,0,0,star ,circle,,,,,,,,,,,,,,,,,,,,,,,,,,,,,,,,,,,,,,,,,,,,,,,,,,,,,,
296527,2022-11-30_20h25.05.938,vts_reward_expectancy_bt,2022.2.4,Win32,59.53444067,Chrome,1368,912,,,l,0.8507,10,162,0,2,11,35,8,1,0,0,1,0,0,0,0,1,hexagon,star,,,,,,,,,,,,,,,,,,,,,,,,,,,,,,,,,,,,,,,,,,,,,,,,,,,,,,
296527,2022-11-30_20h25.05.938,vts_reward_expectancy_bt,2022.2.4,Win32,59.53444067,Chrome,1368,912,,,a,6.1807,10,172,1,0,0,0,2,1,1,0,0,0,0,0,0,1,triangle,star,,,,,,,,,,,,,,,,,,,,,,,,,,,,,,,,,,,,,,,,,,,,,,,,,,,,,,
296527,2022-11-30_20h25.05.938,vts_reward_expectancy_bt,2022.2.4,Win32,59.53444067,Chrome,1368,912,,,l,0.7181,10,182,1,0,1,1,0,1,1,0,0,0,0,1,0,0,triangle,circle,,,,,,,,,,,,,,,,,,,,,,,,,,,,,,,,,,,,,,,,,,,,,,,,,,,,,,
296527,2022-11-30_20h25.05.938,vts_reward_expectancy_bt,2022.2.4,Win32,59.53444067,Chrome,1368,912,,,l,2.2886,10,192,1,0,2,2,10,1,0,0,0,1,0,1,0,0,star ,circle,,,,,,,,,,,,,,,,,,,,,,,,,,,,,,,,,,,,,,,,,,,,,,,,,,,,,,
296527,2022-11-30_20h25.05.938,vts_reward_expectancy_bt,2022.2.4,Win32,59.53444067,Chrome,1368,912,,,a,0.9521,10,202,1,0,3,3,1,1,1,0,0,0,0,0,1,0,triangle,hexagon,,,,,,,,,,,,,,,,,,,,,,,,,,,,,,,,,,,,,,,,,,,,,,,,,,,,,,
296527,2022-11-30_20h25.05.938,vts_reward_expectancy_bt,2022.2.4,Win32,59.53444067,Chrome,1368,912,,,a,2.3177,10,212,1,0,4,4,3,1,0,1,0,0,1,0,0,0,circle,triangle,,,,,,,,,,,,,,,,,,,,,,,,,,,,,,,,,,,,,,,,,,,,,,,,,,,,,,
296527,2022-11-30_20h25.05.938,vts_reward_expectancy_bt,2022.2.4,Win32,59.53444067,Chrome,1368,912,,,a,2.6375,10,222,1,0,5,5,9,1,0,0,0,1,1,0,0,0,star,triangle,,,,,,,,,,,,,,,,,,,,,,,,,,,,,,,,,,,,,,,,,,,,,,,,,,,,,,
296527,2022-11-30_20h25.05.938,vts_reward_expectancy_bt,2022.2.4,Win32,59.53444067,Chrome,1368,912,,,l,1.7382,1,223,1,0,6,6,7,1,0,0,1,0,0,1,0,0,hexagon,circle,,,,,,,,,,,,,,,,,,,,,,,,,,,,,,,,,,,,,,,,,,,,,,,,,,,,,,
296527,2022-11-30_20h25.05.938,vts_reward_expectancy_bt,2022.2.4,Win32,59.53444067,Chrome,1368,912,,,a,2.7294,1,224,1,0,7,7,6,1,0,0,1,0,1,0,0,0,hexagon,triangle,,,,,,,,,,,,,,,,,,,,,,,,,,,,,,,,,,,,,,,,,,,,,,,,,,,,,,
296527,2022-11-30_20h25.05.938,vts_reward_expectancy_bt,2022.2.4,Win32,59.53444067,Chrome,1368,912,,,a,1.3855,1,225,1,0,8,8,5,1,0,1,0,0,0,0,0,1,circle,star,,,,,,,,,,,,,,,,,,,,,,,,,,,,,,,,,,,,,,,,,,,,,,,,,,,,,,
296527,2022-11-30_20h25.05.938,vts_reward_expectancy_bt,2022.2.4,Win32,59.53444067,Chrome,1368,912,,,l,0.7776,10,235,1,0,9,9,8,1,0,0,1,0,0,0,0,1,hexagon,star,,,,,,,,,,,,,,,,,,,,,,,,,,,,,,,,,,,,,,,,,,,,,,,,,,,,,,
296527,2022-11-30_20h25.05.938,vts_reward_expectancy_bt,2022.2.4,Win32,59.53444067,Chrome,1368,912,,,a,0.8083,10,245,1,0,10,10,11,1,0,0,0,1,0,0,1,0,star,hexagon,,,,,,,,,,,,,,,,,,,,,,,,,,,,,,,,,,,,,,,,,,,,,,,,,,,,,,
296527,2022-11-30_20h25.05.938,vts_reward_expectancy_bt,2022.2.4,Win32,59.53444067,Chrome,1368,912,,,l,1.0995,1,246,1,0,11,11,4,1,0,1,0,0,0,0,1,0,circle,hexagon,,,,,,,,,,,,,,,,,,,,,,,,,,,,,,,,,,,,,,,,,,,,,,,,,,,,,,
296527,2022-11-30_20h25.05.938,vts_reward_expectancy_bt,2022.2.4,Win32,59.53444067,Chrome,1368,912,,,l,0.5497,10,256,1,1,0,12,9,1,0,0,0,1,1,0,0,0,star,triangle,,,,,,,,,,,,,,,,,,,,,,,,,,,,,,,,,,,,,,,,,,,,,,,,,,,,,,
296527,2022-11-30_20h25.05.938,vts_reward_expectancy_bt,2022.2.4,Win32,59.53444067,Chrome,1368,912,,,l,3.3266,1,257,1,1,1,13,7,1,0,0,1,0,0,1,0,0,hexagon,circle,,,,,,,,,,,,,,,,,,,,,,,,,,,,,,,,,,,,,,,,,,,,,,,,,,,,,,
296527,2022-11-30_20h25.05.938,vts_reward_expectancy_bt,2022.2.4,Win32,59.53444067,Chrome,1368,912,,,a,2.0548,1,258,1,1,2,14,5,1,0,1,0,0,0,0,0,1,circle,star,,,,,,,,,,,,,,,,,,,,,,,,,,,,,,,,,,,,,,,,,,,,,,,,,,,,,,
296527,2022-11-30_20h25.05.938,vts_reward_expectancy_bt,2022.2.4,Win32,59.53444067,Chrome,1368,912,,,l,0.6511,10,268,1,1,3,15,3,1,0,1,0,0,1,0,0,0,circle,triangle,,,,,,,,,,,,,,,,,,,,,,,,,,,,,,,,,,,,,,,,,,,,,,,,,,,,,,
296527,2022-11-30_20h25.05.938,vts_reward_expectancy_bt,2022.2.4,Win32,59.53444067,Chrome,1368,912,,,l,0.617,1,269,1,1,4,16,4,1,0,1,0,0,0,0,1,0,circle,hexagon,,,,,,,,,,,,,,,,,,,,,,,,,,,,,,,,,,,,,,,,,,,,,,,,,,,,,,
296527,2022-11-30_20h25.05.938,vts_reward_expectancy_bt,2022.2.4,Win32,59.53444067,Chrome,1368,912,,,l,0.5332,1,270,1,1,5,17,11,1,0,0,0,1,0,0,1,0,star,hexagon,,,,,,,,,,,,,,,,,,,,,,,,,,,,,,,,,,,,,,,,,,,,,,,,,,,,,,
296527,2022-11-30_20h25.05.938,vts_reward_expectancy_bt,2022.2.4,Win32,59.53444067,Chrome,1368,912,,,l,0.4236,10,280,1,1,6,18,1,1,1,0,0,0,0,0,1,0,triangle,hexagon,,,,,,,,,,,,,,,,,,,,,,,,,,,,,,,,,,,,,,,,,,,,,,,,,,,,,,
296527,2022-11-30_20h25.05.938,vts_reward_expectancy_bt,2022.2.4,Win32,59.53444067,Chrome,1368,912,,,a,0.4383,10,290,1,1,7,19,10,1,0,0,0,1,0,1,0,0,star ,circle,,,,,,,,,,,,,,,,,,,,,,,,,,,,,,,,,,,,,,,,,,,,,,,,,,,,,,
296527,2022-11-30_20h25.05.938,vts_reward_expectancy_bt,2022.2.4,Win32,59.53444067,Chrome,1368,912,,,a,0.5469,1,291,1,1,8,20,6,1,0,0,1,0,1,0,0,0,hexagon,triangle,,,,,,,,,,,,,,,,,,,,,,,,,,,,,,,,,,,,,,,,,,,,,,,,,,,,,,
296527,2022-11-30_20h25.05.938,vts_reward_expectancy_bt,2022.2.4,Win32,59.53444067,Chrome,1368,912,,,l,0.5051,1,292,1,1,9,21,8,1,0,0,1,0,0,0,0,1,hexagon,star,,,,,,,,,,,,,,,,,,,,,,,,,,,,,,,,,,,,,,,,,,,,,,,,,,,,,,
296527,2022-11-30_20h25.05.938,vts_reward_expectancy_bt,2022.2.4,Win32,59.53444067,Chrome,1368,912,,,l,0.4837,10,302,1,1,10,22,2,1,1,0,0,0,0,0,0,1,triangle,star,,,,,,,,,,,,,,,,,,,,,,,,,,,,,,,,,,,,,,,,,,,,,,,,,,,,,,
296527,2022-11-30_20h25.05.938,vts_reward_expectancy_bt,2022.2.4,Win32,59.53444067,Chrome,1368,912,,,a,0.4143,10,312,1,1,11,23,0,1,1,0,0,0,0,1,0,0,triangle,circle,,,,,,,,,,,,,,,,,,,,,,,,,,,,,,,,,,,,,,,,,,,,,,,,,,,,,,
296527,2022-11-30_20h25.05.938,vts_reward_expectancy_bt,2022.2.4,Win32,59.53444067,Chrome,1368,912,,,l,1.2021,1,313,1,2,0,24,4,1,0,1,0,0,0,0,1,0,circle,hexagon,,,,,,,,,,,,,,,,,,,,,,,,,,,,,,,,,,,,,,,,,,,,,,,,,,,,,,
296527,2022-11-30_20h25.05.938,vts_reward_expectancy_bt,2022.2.4,Win32,59.53444067,Chrome,1368,912,,,l,0.9042,10,323,1,2,1,25,7,1,0,0,1,0,0,1,0,0,hexagon,circle,,,,,,,,,,,,,,,,,,,,,,,,,,,,,,,,,,,,,,,,,,,,,,,,,,,,,,
296527,2022-11-30_20h25.05.938,vts_reward_expectancy_bt,2022.2.4,Win32,59.53444067,Chrome,1368,912,,,a,0.5316,10,333,1,2,2,26,9,1,0,0,0,1,1,0,0,0,star,triangle,,,,,,,,,,,,,,,,,,,,,,,,,,,,,,,,,,,,,,,,,,,,,,,,,,,,,,
296527,2022-11-30_20h25.05.938,vts_reward_expectancy_bt,2022.2.4,Win32,59.53444067,Chrome,1368,912,,,a,0.5574,1,334,1,2,3,27,6,1,0,0,1,0,1,0,0,0,hexagon,triangle,,,,,,,,,,,,,,,,,,,,,,,,,,,,,,,,,,,,,,,,,,,,,,,,,,,,,,
296527,2022-11-30_20h25.05.938,vts_reward_expectancy_bt,2022.2.4,Win32,59.53444067,Chrome,1368,912,,,l,0.566,1,335,1,2,4,28,11,1,0,0,0,1,0,0,1,0,star,hexagon,,,,,,,,,,,,,,,,,,,,,,,,,,,,,,,,,,,,,,,,,,,,,,,,,,,,,,
296527,2022-11-30_20h25.05.938,vts_reward_expectancy_bt,2022.2.4,Win32,59.53444067,Chrome,1368,912,,,a,0.6806,10,345,1,2,5,29,2,1,1,0,0,0,0,0,0,1,triangle,star,,,,,,,,,,,,,,,,,,,,,,,,,,,,,,,,,,,,,,,,,,,,,,,,,,,,,,
296527,2022-11-30_20h25.05.938,vts_reward_expectancy_bt,2022.2.4,Win32,59.53444067,Chrome,1368,912,,,a,0.7051,10,355,1,2,6,30,10,1,0,0,0,1,0,1,0,0,star ,circle,,,,,,,,,,,,,,,,,,,,,,,,,,,,,,,,,,,,,,,,,,,,,,,,,,,,,,
296527,2022-11-30_20h25.05.938,vts_reward_expectancy_bt,2022.2.4,Win32,59.53444067,Chrome,1368,912,,,a,0.4237,10,365,1,2,7,31,1,1,1,0,0,0,0,0,1,0,triangle,hexagon,,,,,,,,,,,,,,,,,,,,,,,,,,,,,,,,,,,,,,,,,,,,,,,,,,,,,,
296527,2022-11-30_20h25.05.938,vts_reward_expectancy_bt,2022.2.4,Win32,59.53444067,Chrome,1368,912,,,l,0.7484,10,375,1,2,8,32,3,1,0,1,0,0,1,0,0,0,circle,triangle,,,,,,,,,,,,,,,,,,,,,,,,,,,,,,,,,,,,,,,,,,,,,,,,,,,,,,
296527,2022-11-30_20h25.05.938,vts_reward_expectancy_bt,2022.2.4,Win32,59.53444067,Chrome,1368,912,,,l,0.6063,10,385,1,2,9,33,8,1,0,0,1,0,0,0,0,1,hexagon,star,,,,,,,,,,,,,,,,,,,,,,,,,,,,,,,,,,,,,,,,,,,,,,,,,,,,,,
296527,2022-11-30_20h25.05.938,vts_reward_expectancy_bt,2022.2.4,Win32,59.53444067,Chrome,1368,912,,,a,0.4362,10,395,1,2,10,34,0,1,1,0,0,0,0,1,0,0,triangle,circle,,,,,,,,,,,,,,,,,,,,,,,,,,,,,,,,,,,,,,,,,,,,,,,,,,,,,,
296527,2022-11-30_20h25.05.938,vts_reward_expectancy_bt,2022.2.4,Win32,59.53444067,Chrome,1368,912,,,l,0.5034,10,405,1,2,11,35,5,1,0,1,0,0,0,0,0,1,circle,star,,,,,,,,,,,,,,,,,,,,,,,,,,,,,,,,,,,,,,,,,,,,,,,,,,,,,,
296527,2022-11-30_20h25.05.938,vts_reward_expectancy_bt,2022.2.4,Win32,59.53444067,Chrome,1368,912,,,l,0.9887,10,415,2,0,0,0,9,1,0,0,0,1,1,0,0,0,star,triangle,,,,,,,,,,,,,,,,,,,,,,,,,,,,,,,,,,,,,,,,,,,,,,,,,,,,,,
296527,2022-11-30_20h25.05.938,vts_reward_expectancy_bt,2022.2.4,Win32,59.53444067,Chrome,1368,912,,,l,0.374,1,416,2,0,1,1,0,1,1,0,0,0,0,1,0,0,triangle,circle,,,,,,,,,,,,,,,,,,,,,,,,,,,,,,,,,,,,,,,,,,,,,,,,,,,,,,
296527,2022-11-30_20h25.05.938,vts_reward_expectancy_bt,2022.2.4,Win32,59.53444067,Chrome,1368,912,,,l,0.3314,1,417,2,0,2,2,11,1,0,0,0,1,0,0,1,0,star,hexagon,,,,,,,,,,,,,,,,,,,,,,,,,,,,,,,,,,,,,,,,,,,,,,,,,,,,,,
296527,2022-11-30_20h25.05.938,vts_reward_expectancy_bt,2022.2.4,Win32,59.53444067,Chrome,1368,912,,,a,0.5471,1,418,2,0,3,3,7,1,0,0,1,0,0,1,0,0,hexagon,circle,,,,,,,,,,,,,,,,,,,,,,,,,,,,,,,,,,,,,,,,,,,,,,,,,,,,,,
296527,2022-11-30_20h25.05.938,vts_reward_expectancy_bt,2022.2.4,Win32,59.53444067,Chrome,1368,912,,,l,0.4163,10,428,2,0,4,4,5,1,0,1,0,0,0,0,0,1,circle,star,,,,,,,,,,,,,,,,,,,,,,,,,,,,,,,,,,,,,,,,,,,,,,,,,,,,,,
296527,2022-11-30_20h25.05.938,vts_reward_expectancy_bt,2022.2.4,Win32,59.53444067,Chrome,1368,912,,,a,0.4306,1,429,2,0,5,5,8,1,0,0,1,0,0,0,0,1,hexagon,star,,,,,,,,,,,,,,,,,,,,,,,,,,,,,,,,,,,,,,,,,,,,,,,,,,,,,,
296527,2022-11-30_20h25.05.938,vts_reward_expectancy_bt,2022.2.4,Win32,59.53444067,Chrome,1368,912,,,l,0.9979,1,430,2,0,6,6,1,1,1,0,0,0,0,0,1,0,triangle,hexagon,,,,,,,,,,,,,,,,,,,,,,,,,,,,,,,,,,,,,,,,,,,,,,,,,,,,,,
296527,2022-11-30_20h25.05.938,vts_reward_expectancy_bt,2022.2.4,Win32,59.53444067,Chrome,1368,912,,,l,0.5737,10,440,2,0,7,7,2,1,1,0,0,0,0,0,0,1,triangle,star,,,,,,,,,,,,,,,,,,,,,,,,,,,,,,,,,,,,,,,,,,,,,,,,,,,,,,
296527,2022-11-30_20h25.05.938,vts_reward_expectancy_bt,2022.2.4,Win32,59.53444067,Chrome,1368,912,,,a,0.4649,10,450,2,0,8,8,10,1,0,0,0,1,0,1,0,0,star ,circle,,,,,,,,,,,,,,,,,,,,,,,,,,,,,,,,,,,,,,,,,,,,,,,,,,,,,,
296527,2022-11-30_20h25.05.938,vts_reward_expectancy_bt,2022.2.4,Win32,59.53444067,Chrome,1368,912,,,a,0.4644,1,451,2,0,9,9,4,1,0,1,0,0,0,0,1,0,circle,hexagon,,,,,,,,,,,,,,,,,,,,,,,,,,,,,,,,,,,,,,,,,,,,,,,,,,,,,,
296527,2022-11-30_20h25.05.938,vts_reward_expectancy_bt,2022.2.4,Win32,59.53444067,Chrome,1368,912,,,l,0.5054,10,461,2,0,10,10,6,1,0,0,1,0,1,0,0,0,hexagon,triangle,,,,,,,,,,,,,,,,,,,,,,,,,,,,,,,,,,,,,,,,,,,,,,,,,,,,,,
296527,2022-11-30_20h25.05.938,vts_reward_expectancy_bt,2022.2.4,Win32,59.53444067,Chrome,1368,912,,,l,0.4027,10,471,2,0,11,11,3,1,0,1,0,0,1,0,0,0,circle,triangle,,,,,,,,,,,,,,,,,,,,,,,,,,,,,,,,,,,,,,,,,,,,,,,,,,,,,,
296527,2022-11-30_20h25.05.938,vts_reward_expectancy_bt,2022.2.4,Win32,59.53444067,Chrome,1368,912,,,a,0.451,10,481,2,1,0,12,11,1,0,0,0,1,0,0,1,0,star,hexagon,,,,,,,,,,,,,,,,,,,,,,,,,,,,,,,,,,,,,,,,,,,,,,,,,,,,,,
296527,2022-11-30_20h25.05.938,vts_reward_expectancy_bt,2022.2.4,Win32,59.53444067,Chrome,1368,912,,,a,0.6238,1,482,2,1,1,13,7,1,0,0,1,0,0,1,0,0,hexagon,circle,,,,,,,,,,,,,,,,,,,,,,,,,,,,,,,,,,,,,,,,,,,,,,,,,,,,,,
296527,2022-11-30_20h25.05.938,vts_reward_expectancy_bt,2022.2.4,Win32,59.53444067,Chrome,1368,912,,,l,0.4473,1,483,2,1,2,14,4,1,0,1,0,0,0,0,1,0,circle,hexagon,,,,,,,,,,,,,,,,,,,,,,,,,,,,,,,,,,,,,,,,,,,,,,,,,,,,,,
296527,2022-11-30_20h25.05.938,vts_reward_expectancy_bt,2022.2.4,Win32,59.53444067,Chrome,1368,912,,,l,0.4347,1,484,2,1,3,15,6,1,0,0,1,0,1,0,0,0,hexagon,triangle,,,,,,,,,,,,,,,,,,,,,,,,,,,,,,,,,,,,,,,,,,,,,,,,,,,,,,
296527,2022-11-30_20h25.05.938,vts_reward_expectancy_bt,2022.2.4,Win32,59.53444067,Chrome,1368,912,,,l,0.6639,1,485,2,1,4,16,9,1,0,0,0,1,1,0,0,0,star,triangle,,,,,,,,,,,,,,,,,,,,,,,,,,,,,,,,,,,,,,,,,,,,,,,,,,,,,,
296527,2022-11-30_20h25.05.938,vts_reward_expectancy_bt,2022.2.4,Win32,59.53444067,Chrome,1368,912,,,l,0.5057,10,495,2,1,5,17,3,1,0,1,0,0,1,0,0,0,circle,triangle,,,,,,,,,,,,,,,,,,,,,,,,,,,,,,,,,,,,,,,,,,,,,,,,,,,,,,
296527,2022-11-30_20h25.05.938,vts_reward_expectancy_bt,2022.2.4,Win32,59.53444067,Chrome,1368,912,,,a,0.3672,10,505,2,1,6,18,1,1,1,0,0,0,0,0,1,0,triangle,hexagon,,,,,,,,,,,,,,,,,,,,,,,,,,,,,,,,,,,,,,,,,,,,,,,,,,,,,,
296527,2022-11-30_20h25.05.938,vts_reward_expectancy_bt,2022.2.4,Win32,59.53444067,Chrome,1368,912,,,a,0.5004,10,515,2,1,7,19,10,1,0,0,0,1,0,1,0,0,star ,circle,,,,,,,,,,,,,,,,,,,,,,,,,,,,,,,,,,,,,,,,,,,,,,,,,,,,,,
296527,2022-11-30_20h25.05.938,vts_reward_expectancy_bt,2022.2.4,Win32,59.53444067,Chrome,1368,912,,,a,0.7681,1,516,2,1,8,20,0,1,1,0,0,0,0,1,0,0,triangle,circle,,,,,,,,,,,,,,,,,,,,,,,,,,,,,,,,,,,,,,,,,,,,,,,,,,,,,,
296527,2022-11-30_20h25.05.938,vts_reward_expectancy_bt,2022.2.4,Win32,59.53444067,Chrome,1368,912,,,l,1.2553,10,526,2,1,9,21,2,1,1,0,0,0,0,0,0,1,triangle,star,,,,,,,,,,,,,,,,,,,,,,,,,,,,,,,,,,,,,,,,,,,,,,,,,,,,,,
296527,2022-11-30_20h25.05.938,vts_reward_expectancy_bt,2022.2.4,Win32,59.53444067,Chrome,1368,912,,,l,1.1673,1,527,2,1,10,22,5,1,0,1,0,0,0,0,0,1,circle,star,,,,,,,,,,,,,,,,,,,,,,,,,,,,,,,,,,,,,,,,,,,,,,,,,,,,,,
296527,2022-11-30_20h25.05.938,vts_reward_expectancy_bt,2022.2.4,Win32,59.53444067,Chrome,1368,912,,,a,0.9682,1,528,2,1,11,23,8,1,0,0,1,0,0,0,0,1,hexagon,star,,,,,,,,,,,,,,,,,,,,,,,,,,,,,,,,,,,,,,,,,,,,,,,,,,,,,,
296527,2022-11-30_20h25.05.938,vts_reward_expectancy_bt,2022.2.4,Win32,59.53444067,Chrome,1368,912,,,a,0.5008,1,529,2,2,0,24,5,1,0,1,0,0,0,0,0,1,circle,star,,,,,,,,,,,,,,,,,,,,,,,,,,,,,,,,,,,,,,,,,,,,,,,,,,,,,,
296527,2022-11-30_20h25.05.938,vts_reward_expectancy_bt,2022.2.4,Win32,59.53444067,Chrome,1368,912,,,a,0.6177,1,530,2,2,1,25,10,1,0,0,0,1,0,1,0,0,star ,circle,,,,,,,,,,,,,,,,,,,,,,,,,,,,,,,,,,,,,,,,,,,,,,,,,,,,,,
296527,2022-11-30_20h25.05.938,vts_reward_expectancy_bt,2022.2.4,Win32,59.53444067,Chrome,1368,912,,,a,0.801,10,540,2,2,2,26,1,1,1,0,0,0,0,0,1,0,triangle,hexagon,,,,,,,,,,,,,,,,,,,,,,,,,,,,,,,,,,,,,,,,,,,,,,,,,,,,,,
296527,2022-11-30_20h25.05.938,vts_reward_expectancy_bt,2022.2.4,Win32,59.53444067,Chrome,1368,912,,,l,0.5358,10,550,2,2,3,27,2,1,1,0,0,0,0,0,0,1,triangle,star,,,,,,,,,,,,,,,,,,,,,,,,,,,,,,,,,,,,,,,,,,,,,,,,,,,,,,
296527,2022-11-30_20h25.05.938,vts_reward_expectancy_bt,2022.2.4,Win32,59.53444067,Chrome,1368,912,,,a,0.6567,10,560,2,2,4,28,11,1,0,0,0,1,0,0,1,0,star,hexagon,,,,,,,,,,,,,,,,,,,,,,,,,,,,,,,,,,,,,,,,,,,,,,,,,,,,,,
296527,2022-11-30_20h25.05.938,vts_reward_expectancy_bt,2022.2.4,Win32,59.53444067,Chrome,1368,912,,,a,0.7849,1,561,2,2,5,29,4,1,0,1,0,0,0,0,1,0,circle,hexagon,,,,,,,,,,,,,,,,,,,,,,,,,,,,,,,,,,,,,,,,,,,,,,,,,,,,,,
296527,2022-11-30_20h25.05.938,vts_reward_expectancy_bt,2022.2.4,Win32,59.53444067,Chrome,1368,912,,,l,0.6528,10,571,2,2,6,30,9,1,0,0,0,1,1,0,0,0,star,triangle,,,,,,,,,,,,,,,,,,,,,,,,,,,,,,,,,,,,,,,,,,,,,,,,,,,,,,
296527,2022-11-30_20h25.05.938,vts_reward_expectancy_bt,2022.2.4,Win32,59.53444067,Chrome,1368,912,,,l,0.6682,10,581,2,2,7,31,8,1,0,0,1,0,0,0,0,1,hexagon,star,,,,,,,,,,,,,,,,,,,,,,,,,,,,,,,,,,,,,,,,,,,,,,,,,,,,,,
296527,2022-11-30_20h25.05.938,vts_reward_expectancy_bt,2022.2.4,Win32,59.53444067,Chrome,1368,912,,,l,0.6843,10,591,2,2,8,32,0,1,1,0,0,0,0,1,0,0,triangle,circle,,,,,,,,,,,,,,,,,,,,,,,,,,,,,,,,,,,,,,,,,,,,,,,,,,,,,,
296527,2022-11-30_20h25.05.938,vts_reward_expectancy_bt,2022.2.4,Win32,59.53444067,Chrome,1368,912,,,a,0.4009,1,592,2,2,9,33,6,1,0,0,1,0,1,0,0,0,hexagon,triangle,,,,,,,,,,,,,,,,,,,,,,,,,,,,,,,,,,,,,,,,,,,,,,,,,,,,,,
296527,2022-11-30_20h25.05.938,vts_reward_expectancy_bt,2022.2.4,Win32,59.53444067,Chrome,1368,912,,,l,0.4846,10,602,2,2,10,34,3,1,0,1,0,0,1,0,0,0,circle,triangle,,,,,,,,,,,,,,,,,,,,,,,,,,,,,,,,,,,,,,,,,,,,,,,,,,,,,,
296527,2022-11-30_20h25.05.938,vts_reward_expectancy_bt,2022.2.4,Win32,59.53444067,Chrome,1368,912,,,l,0.9681,1,603,2,2,11,35,7,1,0,0,1,0,0,1,0,0,hexagon,circle,,,,,,,,,,,,,,,,,,,,,,,,,,,,,,,,,,,,,,,,,,,,,,,,,,,,,,
296527,2022-11-30_20h25.05.938,vts_reward_expectancy_bt,2022.2.4,Win32,59.53444067,Chrome,1368,912,,,,,,,,,,,,,,,,,,,,,,,139,U,circle,1,0,d,2.1036,0,0,0,0,0,1,,,,,,,,,,,,,,,,,,,,,,,,,,,,,,,,,,,,,,,,,
296527,2022-11-30_20h25.05.938,vts_reward_expectancy_bt,2022.2.4,Win32,59.53444067,Chrome,1368,912,,,,,,,,,,,,,,,,,,,,,,,160,D,star,1,0,f,0.9678,0,1,0,1,0,1,,,,,,,,,,,,,,,,,,,,,,,,,,,,,,,,,,,,,,,,,
296527,2022-11-30_20h25.05.938,vts_reward_expectancy_bt,2022.2.4,Win32,59.53444067,Chrome,1368,912,,,,,,,,,,,,,,,,,,,,,,,125,Y,triangle,1,0,d,0.7526,0,2,0,2,0,1,,,,,,,,,,,,,,,,,,,,,,,,,,,,,,,,,,,,,,,,,
296527,2022-11-30_20h25.05.938,vts_reward_expectancy_bt,2022.2.4,Win32,59.53444067,Chrome,1368,912,,,,,,,,,,,,,,,,,,,,,,,132,F,hexagon,1,0,d,1.0005,0,3,0,3,0,1,,,,,,,,,,,,,,,,,,,,,,,,,,,,,,,,,,,,,,,,,
296527,2022-11-30_20h25.05.938,vts_reward_expectancy_bt,2022.2.4,Win32,59.53444067,Chrome,1368,912,,,,,,,,,,,,,,,,,,,,,,,181,H,circle,1,0,f,0.5575,0,4,0,4,0,1,,,,,,,,,,,,,,,,,,,,,,,,,,,,,,,,,,,,,,,,,
296527,2022-11-30_20h25.05.938,vts_reward_expectancy_bt,2022.2.4,Win32,59.53444067,Chrome,1368,912,,,,,,,,,,,,,,,,,,,,,,,174,B,star,1,0,f,0.5843,0,5,0,5,0,1,,,,,,,,,,,,,,,,,,,,,,,,,,,,,,,,,,,,,,,,,
296527,2022-11-30_20h25.05.938,vts_reward_expectancy_bt,2022.2.4,Win32,59.53444067,Chrome,1368,912,,,,,,,,,,,,,,,,,,,,,,,146,S,triangle,1,0,d,1.0848,0,6,0,6,0,1,,,,,,,,,,,,,,,,,,,,,,,,,,,,,,,,,,,,,,,,,
296527,2022-11-30_20h25.05.938,vts_reward_expectancy_bt,2022.2.4,Win32,59.53444067,Chrome,1368,912,,,,,,,,,,,,,,,,,,,,,,,167,W,hexagon,1,0,f,0.5429,0,7,0,7,0,1,,,,,,,,,,,,,,,,,,,,,,,,,,,,,,,,,,,,,,,,,
296527,2022-11-30_20h25.05.938,vts_reward_expectancy_bt,2022.2.4,Win32,59.53444067,Chrome,1368,912,,,,,,,,,,,,,,,,,,,,,,,139,U,star,1,0,d,1.0178,0,8,0,8,0,1,,,,,,,,,,,,,,,,,,,,,,,,,,,,,,,,,,,,,,,,,
296527,2022-11-30_20h25.05.938,vts_reward_expectancy_bt,2022.2.4,Win32,59.53444067,Chrome,1368,912,,,,,,,,,,,,,,,,,,,,,,,160,D,triangle,1,0,f,0.65,0,9,0,9,0,1,,,,,,,,,,,,,,,,,,,,,,,,,,,,,,,,,,,,,,,,,
296527,2022-11-30_20h25.05.938,vts_reward_expectancy_bt,2022.2.4,Win32,59.53444067,Chrome,1368,912,,,,,,,,,,,,,,,,,,,,,,,146,U,hexagon,1,0,,,1,,,,,,k,1.1143,0,0,0,0,1,,,,,,,,,,,,,,,,,,,,,,,,,,,,,,,,,,
296527,2022-11-30_20h25.05.938,vts_reward_expectancy_bt,2022.2.4,Win32,59.53444067,Chrome,1368,912,,,,,,,,,,,,,,,,,,,,,,,160,H,star,1,0,,,1,,,,,,j,0.7177,1,0,1,0,1,,,,,,,,,,,,,,,,,,,,,,,,,,,,,,,,,,
296527,2022-11-30_20h25.05.938,vts_reward_expectancy_bt,2022.2.4,Win32,59.53444067,Chrome,1368,912,,,,,,,,,,,,,,,,,,,,,,,125,S,triangle,1,0,,,1,,,,,,k,1.5121,2,0,2,0,1,,,,,,,,,,,,,,,,,,,,,,,,,,,,,,,,,,
296527,2022-11-30_20h25.05.938,vts_reward_expectancy_bt,2022.2.4,Win32,59.53444067,Chrome,1368,912,,,,,,,,,,,,,,,,,,,,,,,174,F,circle,1,0,,,1,,,,,,j,0.7813,3,0,3,0,1,,,,,,,,,,,,,,,,,,,,,,,,,,,,,,,,,,
296527,2022-11-30_20h25.05.938,vts_reward_expectancy_bt,2022.2.4,Win32,59.53444067,Chrome,1368,912,,,,,,,,,,,,,,,,,,,,,,,132,W,hexagon,1,0,,,1,,,,,,k,1.2298,4,0,4,0,1,,,,,,,,,,,,,,,,,,,,,,,,,,,,,,,,,,
296527,2022-11-30_20h25.05.938,vts_reward_expectancy_bt,2022.2.4,Win32,59.53444067,Chrome,1368,912,,,,,,,,,,,,,,,,,,,,,,,181,B,star,1,0,,,1,,,,,,j,0.7865,5,0,5,0,1,,,,,,,,,,,,,,,,,,,,,,,,,,,,,,,,,,
296527,2022-11-30_20h25.05.938,vts_reward_expectancy_bt,2022.2.4,Win32,59.53444067,Chrome,1368,912,,,,,,,,,,,,,,,,,,,,,,,167,Y,triangle,1,0,,,1,,,,,,k,0.6457,6,0,6,0,1,,,,,,,,,,,,,,,,,,,,,,,,,,,,,,,,,,
296527,2022-11-30_20h25.05.938,vts_reward_expectancy_bt,2022.2.4,Win32,59.53444067,Chrome,1368,912,,,,,,,,,,,,,,,,,,,,,,,139,D,circle,1,0,,,1,,,,,,j,0.6795,7,0,7,0,1,,,,,,,,,,,,,,,,,,,,,,,,,,,,,,,,,,
296527,2022-11-30_20h25.05.938,vts_reward_expectancy_bt,2022.2.4,Win32,59.53444067,Chrome,1368,912,,,,,,,,,,,,,,,,,,,,,,,146,U,triangle,1,0,,,1,,,,,,k,0.8987,8,0,8,0,1,,,,,,,,,,,,,,,,,,,,,,,,,,,,,,,,,,
296527,2022-11-30_20h25.05.938,vts_reward_expectancy_bt,2022.2.4,Win32,59.53444067,Chrome,1368,912,,,,,,,,,,,,,,,,,,,,,,,160,H,circle,1,0,,,1,,,,,,j,0.7952,9,0,9,0,1,,,,,,,,,,,,,,,,,,,,,,,,,,,,,,,,,,
296527,2022-11-30_20h25.05.938,vts_reward_expectancy_bt,2022.2.4,Win32,59.53444067,Chrome,1368,912,,,,,0,603,,,,,,,,,,,,,,,,,139,W,circle,1,0,,,2,,,,,,,,,,,,,-1,number,NA,d,2.2196,vtsPrac,0,0,0,0,1,,,,,,,,,,,,,,,,,,,,,,,
296527,2022-11-30_20h25.05.938,vts_reward_expectancy_bt,2022.2.4,Win32,59.53444067,Chrome,1368,912,,,,,0,603,,,,,,,,,,,,,,,,,146,F,star,1,0,,,2,,,,,,,,,,,,,repeat,number,numRpt,d,1.3219,vtsPrac,1,0,1,0,1,,,,,,,,,,,,,,,,,,,,,,,
296527,2022-11-30_20h25.05.938,vts_reward_expectancy_bt,2022.2.4,Win32,59.53444067,Chrome,1368,912,,,,,0,603,,,,,,,,,,,,,,,,,125,H,circle,1,0,,,2,,,,,,,,,,,,,switch,letter,lettSwt,j,1.2267,vtsPrac,2,0,2,0,1,,,,,,,,,,,,,,,,,,,,,,,
296527,2022-11-30_20h25.05.938,vts_reward_expectancy_bt,2022.2.4,Win32,59.53444067,Chrome,1368,912,,,,,0,603,,,,,,,,,,,,,,,,,174,D,star,1,0,,,2,,,,,,,,,,,,,repeat,letter,lettRpt,j,0.9788,vtsPrac,3,0,3,0,1,,,,,,,,,,,,,,,,,,,,,,,
296527,2022-11-30_20h25.05.938,vts_reward_expectancy_bt,2022.2.4,Win32,59.53444067,Chrome,1368,912,,,,,0,603,,,,,,,,,,,,,,,,,139,W,circle,1,0,,,2,,,,,,,,,,,,,repeat,letter,lettRpt,k,0.8835,vtsPrac,4,0,4,0,1,,,,,,,,,,,,,,,,,,,,,,,
296527,2022-11-30_20h25.05.938,vts_reward_expectancy_bt,2022.2.4,Win32,59.53444067,Chrome,1368,912,,,,,0,603,,,,,,,,,,,,,,,,,146,F,triangle,1,0,,,2,,,,,,,,,,,,,switch,number,numSwt,d,1.0172,vtsPrac,5,0,5,0,1,,,,,,,,,,,,,,,,,,,,,,,
296527,2022-11-30_20h25.05.938,vts_reward_expectancy_bt,2022.2.4,Win32,59.53444067,Chrome,1368,912,,,,,0,603,,,,,,,,,,,,,,,,,125,H,star,1,0,,,2,,,,,,,,,,,,,switch,letter,lettSwt,j,1.2386,vtsPrac,6,0,6,0,1,,,,,,,,,,,,,,,,,,,,,,,
296527,2022-11-30_20h25.05.938,vts_reward_expectancy_bt,2022.2.4,Win32,59.53444067,Chrome,1368,912,,,,,0,603,,,,,,,,,,,,,,,,,174,D,triangle,1,0,,,2,,,,,,,,,,,,,switch,number,numSwt,f,1.0896,vtsPrac,7,0,7,0,1,,,,,,,,,,,,,,,,,,,,,,,
296527,2022-11-30_20h25.05.938,vts_reward_expectancy_bt,2022.2.4,Win32,59.53444067,Chrome,1368,912,,,,,0,603,,,,,,,,,,,,,,,,,146,U,hexagon,1,0,,,2,,,,,,,,,,,,,switch,letter,lettSwt,k,1.7019,vtsPrac,8,0,8,0,1,,,,,,,,,,,,,,,,,,,,,,,
296527,2022-11-30_20h25.05.938,vts_reward_expectancy_bt,2022.2.4,Win32,59.53444067,Chrome,1368,912,,,,,0,603,,,,,,,,,,,,,,,,,139,Y,circle,1,0,,,2,,,,,,,,,,,,,repeat,letter,lettRpt,k,1.6707,vtsPrac,9,0,9,0,1,,,,,,,,,,,,,,,,,,,,,,,
296527,2022-11-30_20h25.05.938,vts_reward_expectancy_bt,2022.2.4,Win32,59.53444067,Chrome,1368,912,,,,,0,603,,,,,,,,,,,,,,,,,167,S,circle,1,0,,,2,,,,,,,,,,,,,switch,number,numSwt,f,0.9175,vtsPrac,10,0,10,0,1,,,,,,,,,,,,,,,,,,,,,,,
296527,2022-11-30_20h25.05.938,vts_reward_expectancy_bt,2022.2.4,Win32,59.53444067,Chrome,1368,912,,,,,0,603,,,,,,,,,,,,,,,,,132,B,star,1,0,,,2,,,,,,,,,,,,,repeat,number,numRpt,d,1.0867,vtsPrac,11,0,11,0,1,,,,,,,,,,,,,,,,,,,,,,,
296527,2022-11-30_20h25.05.938,vts_reward_expectancy_bt,2022.2.4,Win32,59.53444067,Chrome,1368,912,,,,,0,603,,,,,,,,,,,,,,,,,160,W,hexagon,1,0,,,2,,,,,,,,,,,,,switch,letter,lettSwt,k,1.3339,vtsPrac,12,0,12,0,1,,,,,,,,,,,,,,,,,,,,,,,
296527,2022-11-30_20h25.05.938,vts_reward_expectancy_bt,2022.2.4,Win32,59.53444067,Chrome,1368,912,,,,,0,603,,,,,,,,,,,,,,,,,181,F,triangle,1,0,,,2,,,,,,,,,,,,,switch,number,numSwt,f,1.3688,vtsPrac,13,0,13,0,1,,,,,,,,,,,,,,,,,,,,,,,
296527,2022-11-30_20h25.05.938,vts_reward_expectancy_bt,2022.2.4,Win32,59.53444067,Chrome,1368,912,,,,,0,603,,,,,,,,,,,,,,,,,139,U,circle,1,0,,,2,,,,,,,,,,,,,repeat,number,numRpt,d,1.2935,vtsPrac,14,0,14,0,1,,,,,,,,,,,,,,,,,,,,,,,
296527,2022-11-30_20h25.05.938,vts_reward_expectancy_bt,2022.2.4,Win32,59.53444067,Chrome,1368,912,,,,,0,603,,,,,,,,,,,,,,,,,174,S,star,1,0,,,2,,,,,,,,,,,,,repeat,number,numRpt,f,1.4717,vtsPrac,15,0,15,0,1,,,,,,,,,,,,,,,,,,,,,,,
296527,2022-11-30_20h25.05.938,vts_reward_expectancy_bt,2022.2.4,Win32,59.53444067,Chrome,1368,912,,,,,0,603,,,,,,,,,,,,,,,,,174,D,hexagon,1,0,,,2,,,,,,,,,,,,,switch,letter,lettSwt,j,1.2092,vtsPrac,16,0,16,0,1,,,,,,,,,,,,,,,,,,,,,,,
296527,2022-11-30_20h25.05.938,vts_reward_expectancy_bt,2022.2.4,Win32,59.53444067,Chrome,1368,912,,,,,0,603,,,,,,,,,,,,,,,,,132,Y,star,1,0,,,2,,,,,,,,,,,,,repeat,letter,lettRpt,k,1.5258,vtsPrac,17,0,17,0,1,,,,,,,,,,,,,,,,,,,,,,,
296527,2022-11-30_20h25.05.938,vts_reward_expectancy_bt,2022.2.4,Win32,59.53444067,Chrome,1368,912,,,,,0,603,,,,,,,,,,,,,,,,,160,F,circle,1,0,,,2,,,,,,,,,,,,,repeat,letter,lettRpt,j,1.0356,vtsPrac,18,0,18,0,1,,,,,,,,,,,,,,,,,,,,,,,
296527,2022-11-30_20h25.05.938,vts_reward_expectancy_bt,2022.2.4,Win32,59.53444067,Chrome,1368,912,,,,,0,603,,,,,,,,,,,,,,,,,181,H,triangle,1,0,,,2,,,,,,,,,,,,,repeat,letter,lettRpt,j,1.1842,vtsPrac,19,0,19,0,1,,,,,,,,,,,,,,,,,,,,,,,
296527,2022-11-30_20h25.05.938,vts_reward_expectancy_bt,2022.2.4,Win32,59.53444067,Chrome,1368,912,,,,,0,603,,,,,,,,,,,,,,,,,132,U,circle,1,0,,,2,,,,,,,,,,,,,switch,number,numSwt,d,1.5347,vtsPrac,20,0,20,0,1,,,,,,,,,,,,,,,,,,,,,,,
296527,2022-11-30_20h25.05.938,vts_reward_expectancy_bt,2022.2.4,Win32,59.53444067,Chrome,1368,912,,,,,0,603,,,,,,,,,,,,,,,,,174,F,hexagon,1,0,,,2,,,,,,,,,,,,,repeat,number,numRpt,f,1.0012,vtsPrac,21,0,21,0,1,,,,,,,,,,,,,,,,,,,,,,,
296527,2022-11-30_20h25.05.938,vts_reward_expectancy_bt,2022.2.4,Win32,59.53444067,Chrome,1368,912,,,,,0,603,,,,,,,,,,,,,,,,,125,S,triangle,1,0,,,2,,,,,,,,,,,,,repeat,number,numRpt,d,1.0376,vtsPrac,22,0,22,0,1,,,,,,,,,,,,,,,,,,,,,,,
296527,2022-11-30_20h25.05.938,vts_reward_expectancy_bt,2022.2.4,Win32,59.53444067,Chrome,1368,912,,,,,0,603,,,,,,,,,,,,,,,,,181,Y,hexagon,1,0,,,2,,,,,,,,,,,,,switch,letter,lettSwt,k,0.7075,vtsPrac,23,0,23,0,1,,,,,,,,,,,,,,,,,,,,,,,
296527,2022-11-30_20h25.05.938,vts_reward_expectancy_bt,2022.2.4,Win32,59.53444067,Chrome,1368,912,,,,,0,603,,,,,,,,,,,,,,,,,139,D,star,1,0,,,2,,,,,,,,,,,,,switch,number,numSwt,d,0.6674,vtsPrac,24,0,24,0,1,,,,,,,,,,,,,,,,,,,,,,,
296527,2022-11-30_20h25.05.938,vts_reward_expectancy_bt,2022.2.4,Win32,59.53444067,Chrome,1368,912,,,,,0,603,,,,,,,,,,,,,,,,,167,U,circle,1,0,,,2,,,,,,,,,,,,,repeat,number,numRpt,f,1.1346,vtsPrac,25,0,25,0,1,,,,,,,,,,,,,,,,,,,,,,,
296527,2022-11-30_20h25.05.938,vts_reward_expectancy_bt,2022.2.4,Win32,59.53444067,Chrome,1368,912,,,,,0,603,,,,,,,,,,,,,,,,,174,B,star,1,0,,,2,,,,,,,,,,,,,switch,letter,lettSwt,j,0.8077,vtsPrac,26,0,26,0,1,,,,,,,,,,,,,,,,,,,,,,,
296527,2022-11-30_20h25.05.938,vts_reward_expectancy_bt,2022.2.4,Win32,59.53444067,Chrome,1368,912,,,,,0,603,,,,,,,,,,,,,,,,,160,W,triangle,1,0,,,2,,,,,,,,,,,,,switch,number,numSwt,f,0.8707,vtsPrac,27,0,27,0,1,,,,,,,,,,,,,,,,,,,,,,,
296527,2022-11-30_20h25.05.938,vts_reward_expectancy_bt,2022.2.4,Win32,59.53444067,Chrome,1368,912,,,,,0,603,,,,,,,,,,,,,,,,,125,D,circle,1,0,,,2,,,,,,,,,,,,,repeat,number,numRpt,d,0.9404,vtsPrac,28,0,28,0,1,,,,,,,,,,,,,,,,,,,,,,,
296527,2022-11-30_20h25.05.938,vts_reward_expectancy_bt,2022.2.4,Win32,59.53444067,Chrome,1368,912,,,,,0,603,,,,,,,,,,,,,,,,,132,U,hexagon,1,0,,,2,,,,,,,,,,,,,repeat,number,numRpt,d,1.1072,vtsPrac,29,0,29,0,1,,,,,,,,,,,,,,,,,,,,,,,
296527,2022-11-30_20h25.05.938,vts_reward_expectancy_bt,2022.2.4,Win32,59.53444067,Chrome,1368,912,,,,,0,603,,,,,,,,,,,,,,,,,160,W,circle,1,0,,,2,,,,,,,,,,,,,switch,letter,lettSwt,k,0.6836,vtsPrac,30,0,30,0,1,,,,,,,,,,,,,,,,,,,,,,,
296527,2022-11-30_20h25.05.938,vts_reward_expectancy_bt,2022.2.4,Win32,59.53444067,Chrome,1368,912,,,,,0,603,,,,,,,,,,,,,,,,,139,S,triangle,1,0,,,2,,,,,,,,,,,,,repeat,letter,lettRpt,k,1.5852,vtsPrac,31,0,31,0,1,,,,,,,,,,,,,,,,,,,,,,,
296527,2022-11-30_20h25.05.938,vts_reward_expectancy_bt,2022.2.4,Win32,59.53444067,Chrome,1368,912,,,,,,,,,,,,,,,,,,,,,,,,,,,,,,,,,,,,,,,,,,,,,,,,,,,,,,,,,,,,,,,,,,,,,,,,,,,,
296527,2022-11-30_20h25.05.938,vts_reward_expectancy_bt,2022.2.4,Win32,59.53444067,Chrome,1368,912,,,,,,,,,,,,,,,,,,,,,,,,,,,,,,,,,,,,,,,,,,,,,,,,,,,,,,,,,,,,,,,,,,,,,,,,,,,,
296527,2022-11-30_20h25.05.938,vts_reward_expectancy_bt,2022.2.4,Win32,59.53444067,Chrome,1368,912,,,,,0,603,,,,,,,,,,,,,,,,,132,F,hexagon,1,0,,,,,,,,,,,,,,,,switch,number,numSwt,d,0.7677,noRew,,,,,,0,0,0,0,0,1,,,,,,,,,,,,,,,,,
296527,2022-11-30_20h25.05.938,vts_reward_expectancy_bt,2022.2.4,Win32,59.53444067,Chrome,1368,912,,,,,0,603,,,,,,,,,,,,,,,,,167,H,circle,1,0,,,,,,,,,,,,,,,,switch,letter,lettSwt,j,0.9851,noRew,,,,,,0,1,0,1,0,1,,,,,,,,,,,,,,,,,
296527,2022-11-30_20h25.05.938,vts_reward_expectancy_bt,2022.2.4,Win32,59.53444067,Chrome,1368,912,,,,,0,603,,,,,,,,,,,,,,,,,181,Y,hexagon,1,0,,,,,,,,,,,,,,,,repeat,letter,lettRpt,k,0.6068,noRew,,,,,,0,2,0,2,0,1,,,,,,,,,,,,,,,,,
296527,2022-11-30_20h25.05.938,vts_reward_expectancy_bt,2022.2.4,Win32,59.53444067,Chrome,1368,912,,,,,0,603,,,,,,,,,,,,,,,,,139,D,circle,1,0,,,,,,,,,,,,,,,,repeat,letter,lettRpt,j,0.6504,noRew,,,,,,0,3,0,3,0,1,,,,,,,,,,,,,,,,,
296527,2022-11-30_20h25.05.938,vts_reward_expectancy_bt,2022.2.4,Win32,59.53444067,Chrome,1368,912,,,,,0,603,,,,,,,,,,,,,,,,,132,F,hexagon,1,0,,,,,,,,,,,,,,,,switch,number,numSwt,d,1.1899,noRew,,,,,,0,4,0,4,0,1,,,,,,,,,,,,,,,,,
296527,2022-11-30_20h25.05.938,vts_reward_expectancy_bt,2022.2.4,Win32,59.53444067,Chrome,1368,912,,,,,0,603,,,,,,,,,,,,,,,,,167,H,star,1,0,,,,,,,,,,,,,,,,repeat,number,numRpt,f,0.735,noRew,,,,,,0,5,0,5,0,1,,,,,,,,,,,,,,,,,
296527,2022-11-30_20h25.05.938,vts_reward_expectancy_bt,2022.2.4,Win32,59.53444067,Chrome,1368,912,,,,,0,603,,,,,,,,,,,,,,,,,181,Y,circle,1,0,,,,,,,,,,,,,,,,switch,letter,lettSwt,k,2.0695,noRew,,,,,,0,6,0,6,0,1,,,,,,,,,,,,,,,,,
296527,2022-11-30_20h25.05.938,vts_reward_expectancy_bt,2022.2.4,Win32,59.53444067,Chrome,1368,912,,,,,0,603,,,,,,,,,,,,,,,,,139,D,star,1,0,,,,,,,,,,,,,,,,switch,number,numSwt,d,0.9064,noRew,,,,,,0,7,0,7,0,1,,,,,,,,,,,,,,,,,
296527,2022-11-30_20h25.05.938,vts_reward_expectancy_bt,2022.2.4,Win32,59.53444067,Chrome,1368,912,,,,,0,603,,,,,,,,,,,,,,,,,132,Y,circle,1,0,,,,,,,,,,,,,,,,repeat,number,numRpt,d,0.7585,noRew,,,,,,0,8,0,8,0,1,,,,,,,,,,,,,,,,,
296527,2022-11-30_20h25.05.938,vts_reward_expectancy_bt,2022.2.4,Win32,59.53444067,Chrome,1368,912,,,,,0,603,,,,,,,,,,,,,,,,,160,F,star,1,0,,,,,,,,,,,,,,,,repeat,number,numRpt,f,1.2005,noRew,,,,,,0,9,0,9,0,1,,,,,,,,,,,,,,,,,
296527,2022-11-30_20h25.05.938,vts_reward_expectancy_bt,2022.2.4,Win32,59.53444067,Chrome,1368,912,,,,,0,603,,,,,,,,,,,,,,,,,167,H,star,1,0,,,,,,,,,,,,,,,,repeat,number,numRpt,f,0.8864,noRew,,,,,,0,10,0,10,0,1,,,,,,,,,,,,,,,,,
296527,2022-11-30_20h25.05.938,vts_reward_expectancy_bt,2022.2.4,Win32,59.53444067,Chrome,1368,912,,,,,0,603,,,,,,,,,,,,,,,,,125,D,hexagon,1,0,,,,,,,,,,,,,,,,repeat,number,numRpt,d,0.5677,noRew,,,,,,0,11,0,11,0,1,,,,,,,,,,,,,,,,,
296527,2022-11-30_20h25.05.938,vts_reward_expectancy_bt,2022.2.4,Win32,59.53444067,Chrome,1368,912,,,,,0,603,,,,,,,,,,,,,,,,,132,F,circle,1,0,,,,,,,,,,,,,,,,repeat,number,numRpt,d,0.7501,noRew,,,,,,0,12,0,12,0,1,,,,,,,,,,,,,,,,,
296527,2022-11-30_20h25.05.938,vts_reward_expectancy_bt,2022.2.4,Win32,59.53444067,Chrome,1368,912,,,,,0,603,,,,,,,,,,,,,,,,,160,Y,triangle,1,0,,,,,,,,,,,,,,,,repeat,number,numRpt,f,0.6183,noRew,,,,,,0,13,0,13,0,1,,,,,,,,,,,,,,,,,
296527,2022-11-30_20h25.05.938,vts_reward_expectancy_bt,2022.2.4,Win32,59.53444067,Chrome,1368,912,,,,,0,603,,,,,,,,,,,,,,,,,174,B,circle,1,0,,,,,,,,,,,,,,,,switch,letter,lettSwt,j,0.7678,noRew,,,,,,0,14,0,14,0,1,,,,,,,,,,,,,,,,,
296527,2022-11-30_20h25.05.938,vts_reward_expectancy_bt,2022.2.4,Win32,59.53444067,Chrome,1368,912,,,,,0,603,,,,,,,,,,,,,,,,,181,S,hexagon,1,0,,,,,,,,,,,,,,,,repeat,letter,lettRpt,k,1.5517,noRew,,,,,,0,15,0,15,0,1,,,,,,,,,,,,,,,,,
296527,2022-11-30_20h25.05.938,vts_reward_expectancy_bt,2022.2.4,Win32,59.53444067,Chrome,1368,912,,,,,0,603,,,,,,,,,,,,,,,,,139,W,triangle,1,0,,,,,,,,,,,,,,,,repeat,letter,lettRpt,k,1.0433,noRew,,,,,,0,16,0,16,0,1,,,,,,,,,,,,,,,,,
296527,2022-11-30_20h25.05.938,vts_reward_expectancy_bt,2022.2.4,Win32,59.53444067,Chrome,1368,912,,,,,0,603,,,,,,,,,,,,,,,,,132,B,star,1,0,,,,,,,,,,,,,,,,switch,number,numSwt,d,0.7344,noRew,,,,,,0,17,0,17,0,1,,,,,,,,,,,,,,,,,
296527,2022-11-30_20h25.05.938,vts_reward_expectancy_bt,2022.2.4,Win32,59.53444067,Chrome,1368,912,,,,,0,603,,,,,,,,,,,,,,,,,160,S,circle,1,0,,,,,,,,,,,,,,,,repeat,number,numRpt,f,0.7731,noRew,,,,,,0,18,0,18,0,1,,,,,,,,,,,,,,,,,
296527,2022-11-30_20h25.05.938,vts_reward_expectancy_bt,2022.2.4,Win32,59.53444067,Chrome,1368,912,,,,,0,603,,,,,,,,,,,,,,,,,167,Y,star,1,0,,,,,,,,,,,,,,,,switch,letter,lettSwt,k,1.2589,noRew,,,,,,0,19,0,19,0,1,,,,,,,,,,,,,,,,,
296527,2022-11-30_20h25.05.938,vts_reward_expectancy_bt,2022.2.4,Win32,59.53444067,Chrome,1368,912,,,,,0,603,,,,,,,,,,,,,,,,,167,Y,triangle,1,0,,,,,,,,,,,,,,,,repeat,letter,lettRpt,k,0.7398,noRew,,,,,,0,20,0,20,0,1,,,,,,,,,,,,,,,,,
296527,2022-11-30_20h25.05.938,vts_reward_expectancy_bt,2022.2.4,Win32,59.53444067,Chrome,1368,912,,,,,0,603,,,,,,,,,,,,,,,,,146,B,star,1,0,,,,,,,,,,,,,,,,switch,number,numSwt,d,0.7886,noRew,,,,,,0,21,0,21,0,1,,,,,,,,,,,,,,,,,
296527,2022-11-30_20h25.05.938,vts_reward_expectancy_bt,2022.2.4,Win32,59.53444067,Chrome,1368,912,,,,,0,603,,,,,,,,,,,,,,,,,125,U,star,1,0,,,,,,,,,,,,,,,,switch,letter,lettSwt,k,1.0095,noRew,,,,,,0,22,0,22,0,1,,,,,,,,,,,,,,,,,
296527,2022-11-30_20h25.05.938,vts_reward_expectancy_bt,2022.2.4,Win32,59.53444067,Chrome,1368,912,,,,,0,603,,,,,,,,,,,,,,,,,132,H,triangle,1,0,,,,,,,,,,,,,,,,switch,number,numSwt,d,1.2844,noRew,,,,,,0,23,0,23,0,1,,,,,,,,,,,,,,,,,
296527,2022-11-30_20h25.05.938,vts_reward_expectancy_bt,2022.2.4,Win32,59.53444067,Chrome,1368,912,,,,,0,603,,,,,,,,,,,,,,,,,139,H,circle,1,0,,,,,,,,,,,,,,,,switch,letter,lettSwt,j,0.7549,noRew,,,,,,0,24,0,24,0,1,,,,,,,,,,,,,,,,,
296527,2022-11-30_20h25.05.938,vts_reward_expectancy_bt,2022.2.4,Win32,59.53444067,Chrome,1368,912,,,,,0,603,,,,,,,,,,,,,,,,,174,B,triangle,1,0,,,,,,,,,,,,,,,,repeat,letter,lettRpt,j,1.2904,noRew,,,,,,0,25,0,25,0,1,,,,,,,,,,,,,,,,,
296527,2022-11-30_20h25.05.938,vts_reward_expectancy_bt,2022.2.4,Win32,59.53444067,Chrome,1368,912,,,,,0,603,,,,,,,,,,,,,,,,,132,W,triangle,1,0,,,,,,,,,,,,,,,,switch,number,numSwt,d,0.7394,noRew,,,,,,0,26,0,26,0,1,,,,,,,,,,,,,,,,,
296527,2022-11-30_20h25.05.938,vts_reward_expectancy_bt,2022.2.4,Win32,59.53444067,Chrome,1368,912,,,,,0,603,,,,,,,,,,,,,,,,,146,D,circle,1,0,,,,,,,,,,,,,,,,repeat,number,numRpt,d,0.7508,noRew,,,,,,0,27,0,27,0,1,,,,,,,,,,,,,,,,,
296527,2022-11-30_20h25.05.938,vts_reward_expectancy_bt,2022.2.4,Win32,59.53444067,Chrome,1368,912,,,,,0,603,,,,,,,,,,,,,,,,,160,S,hexagon,1,0,,,,,,,,,,,,,,,,switch,letter,lettSwt,k,1.5425,noRew,,,,,,0,28,0,28,0,1,,,,,,,,,,,,,,,,,
296527,2022-11-30_20h25.05.938,vts_reward_expectancy_bt,2022.2.4,Win32,59.53444067,Chrome,1368,912,,,,,0,603,,,,,,,,,,,,,,,,,146,D,triangle,1,0,,,,,,,,,,,,,,,,switch,number,numSwt,d,0.6406,noRew,,,,,,0,29,0,29,0,1,,,,,,,,,,,,,,,,,
296527,2022-11-30_20h25.05.938,vts_reward_expectancy_bt,2022.2.4,Win32,59.53444067,Chrome,1368,912,,,,,0,603,,,,,,,,,,,,,,,,,132,B,hexagon,1,0,,,,,,,,,,,,,,,,switch,letter,lettSwt,j,0.8726,noRew,,,,,,0,30,0,30,0,1,,,,,,,,,,,,,,,,,
296527,2022-11-30_20h25.05.938,vts_reward_expectancy_bt,2022.2.4,Win32,59.53444067,Chrome,1368,912,,,,,0,603,,,,,,,,,,,,,,,,,167,W,triangle,1,0,,,,,,,,,,,,,,,,switch,number,numSwt,f,0.7851,noRew,,,,,,0,31,0,31,0,1,,,,,,,,,,,,,,,,,
296527,2022-11-30_20h25.05.938,vts_reward_expectancy_bt,2022.2.4,Win32,59.53444067,Chrome,1368,912,,,,,0,603,,,,,,,,,,,,,,,,,146,S,triangle,1,0,,,,,,,,,,,,,,,,repeat,number,numRpt,d,1.0043,noRew,,,,,,0,32,0,32,0,1,,,,,,,,,,,,,,,,,
296527,2022-11-30_20h25.05.938,vts_reward_expectancy_bt,2022.2.4,Win32,59.53444067,Chrome,1368,912,,,,,0,603,,,,,,,,,,,,,,,,,160,B,circle,1,0,,,,,,,,,,,,,,,,switch,letter,lettSwt,j,1.0303,noRew,,,,,,0,33,0,33,0,1,,,,,,,,,,,,,,,,,
296527,2022-11-30_20h25.05.938,vts_reward_expectancy_bt,2022.2.4,Win32,59.53444067,Chrome,1368,912,,,,,0,603,,,,,,,,,,,,,,,,,139,U,circle,1,0,,,,,,,,,,,,,,,,switch,number,numSwt,d,1.0122,noRew,,,,,,0,34,0,34,0,1,,,,,,,,,,,,,,,,,
296527,2022-11-30_20h25.05.938,vts_reward_expectancy_bt,2022.2.4,Win32,59.53444067,Chrome,1368,912,,,,,0,603,,,,,,,,,,,,,,,,,167,Y,star,1,0,,,,,,,,,,,,,,,,switch,letter,lettSwt,k,1.4967,noRew,,,,,,0,35,0,35,0,1,,,,,,,,,,,,,,,,,
296527,2022-11-30_20h25.05.938,vts_reward_expectancy_bt,2022.2.4,Win32,59.53444067,Chrome,1368,912,,,,,0,603,,,,,,,,,,,,,,,,,139,S,circle,1,0,,,,,,,,,,,,,,,,switch,number,numSwt,d,1.0616,noRew,,,,,,0,36,0,36,0,1,,,,,,,,,,,,,,,,,
296527,2022-11-30_20h25.05.938,vts_reward_expectancy_bt,2022.2.4,Win32,59.53444067,Chrome,1368,912,,,,,0,603,,,,,,,,,,,,,,,,,132,W,star,1,0,,,,,,,,,,,,,,,,repeat,number,numRpt,d,0.9774,noRew,,,,,,0,37,0,37,0,1,,,,,,,,,,,,,,,,,
296527,2022-11-30_20h25.05.938,vts_reward_expectancy_bt,2022.2.4,Win32,59.53444067,Chrome,1368,912,,,,,0,603,,,,,,,,,,,,,,,,,181,F,circle,0,0,,,,,,,,,,,,,,,,repeat,number,NA,d,0.8794,noRew,,,,,,0,38,0,38,0,1,,,,,,,,,,,,,,,,,
296527,2022-11-30_20h25.05.938,vts_reward_expectancy_bt,2022.2.4,Win32,59.53444067,Chrome,1368,912,,,,,0,603,,,,,,,,,,,,,,,,,160,D,triangle,1,1,,,,,,,,,,,,,,,,repeat,number,numRpt,f,1.2472,noRew,,,,,,0,39,0,39,0,1,,,,,,,,,,,,,,,,,
296527,2022-11-30_20h25.05.938,vts_reward_expectancy_bt,2022.2.4,Win32,59.53444067,Chrome,1368,912,,,,,0,603,,,,,,,,,,,,,,,,,181,B,triangle,1,0,,,,,,,,,,,,,,,,switch,letter,lettSwt,j,1.1614,noRew,,,,,,0,40,0,40,0,1,,,,,,,,,,,,,,,,,
296527,2022-11-30_20h25.05.938,vts_reward_expectancy_bt,2022.2.4,Win32,59.53444067,Chrome,1368,912,,,,,0,603,,,,,,,,,,,,,,,,,132,U,star,1,0,,,,,,,,,,,,,,,,repeat,letter,lettRpt,k,1.4125,noRew,,,,,,0,41,0,41,0,1,,,,,,,,,,,,,,,,,
296527,2022-11-30_20h25.05.938,vts_reward_expectancy_bt,2022.2.4,Win32,59.53444067,Chrome,1368,912,,,,,0,603,,,,,,,,,,,,,,,,,174,F,triangle,1,0,,,,,,,,,,,,,,,,switch,number,numSwt,f,1.6334,noRew,,,,,,0,42,0,42,0,1,,,,,,,,,,,,,,,,,
296527,2022-11-30_20h25.05.938,vts_reward_expectancy_bt,2022.2.4,Win32,59.53444067,Chrome,1368,912,,,,,0,603,,,,,,,,,,,,,,,,,167,D,hexagon,1,0,,,,,,,,,,,,,,,,repeat,number,numRpt,f,1.35,noRew,,,,,,0,43,0,43,0,1,,,,,,,,,,,,,,,,,
296527,2022-11-30_20h25.05.938,vts_reward_expectancy_bt,2022.2.4,Win32,59.53444067,Chrome,1368,912,,,,,0,603,,,,,,,,,,,,,,,,,125,W,circle,1,0,,,,,,,,,,,,,,,,repeat,number,numRpt,d,0.8793,noRew,,,,,,0,44,0,44,0,1,,,,,,,,,,,,,,,,,
296527,2022-11-30_20h25.05.938,vts_reward_expectancy_bt,2022.2.4,Win32,59.53444067,Chrome,1368,912,,,,,0,603,,,,,,,,,,,,,,,,,160,Y,hexagon,1,0,,,,,,,,,,,,,,,,switch,letter,lettSwt,k,0.8164,noRew,,,,,,0,45,0,45,0,1,,,,,,,,,,,,,,,,,
296527,2022-11-30_20h25.05.938,vts_reward_expectancy_bt,2022.2.4,Win32,59.53444067,Chrome,1368,912,,,,,0,603,,,,,,,,,,,,,,,,,146,B,hexagon,1,0,,,,,,,,,,,,,,,,repeat,letter,lettRpt,j,1.1336,noRew,,,,,,0,46,0,46,0,1,,,,,,,,,,,,,,,,,
296527,2022-11-30_20h25.05.938,vts_reward_expectancy_bt,2022.2.4,Win32,59.53444067,Chrome,1368,912,,,,,0,603,,,,,,,,,,,,,,,,,132,H,triangle,1,0,,,,,,,,,,,,,,,,repeat,letter,lettRpt,j,1.2547,noRew,,,,,,0,47,0,47,0,1,,,,,,,,,,,,,,,,,
296527,2022-11-30_20h25.05.938,vts_reward_expectancy_bt,2022.2.4,Win32,59.53444067,Chrome,1368,912,,,,,0,603,,,,,,,,,,,,,,,,,146,B,hexagon,1,0,,,,,,,,,,,,,,,,repeat,letter,lettRpt,j,2.0794,noRew,,,,,,0,48,0,48,0,1,,,,,,,,,,,,,,,,,
296527,2022-11-30_20h25.05.938,vts_reward_expectancy_bt,2022.2.4,Win32,59.53444067,Chrome,1368,912,,,,,0,603,,,,,,,,,,,,,,,,,174,H,triangle,1,0,,,,,,,,,,,,,,,,switch,number,numSwt,f,1.1704,noRew,,,,,,0,49,0,49,0,1,,,,,,,,,,,,,,,,,
296527,2022-11-30_20h25.05.938,vts_reward_expectancy_bt,2022.2.4,Win32,59.53444067,Chrome,1368,912,,,,,0,603,,,,,,,,,,,,,,,,,167,F,circle,1,0,,,,,,,,,,,,,,,,repeat,number,numRpt,f,0.863,noRew,,,,,,0,50,0,50,0,1,,,,,,,,,,,,,,,,,
296527,2022-11-30_20h25.05.938,vts_reward_expectancy_bt,2022.2.4,Win32,59.53444067,Chrome,1368,912,,,,,0,603,,,,,,,,,,,,,,,,,125,D,star,1,0,,,,,,,,,,,,,,,,switch,letter,lettSwt,j,1.1632,noRew,,,,,,0,51,0,51,0,1,,,,,,,,,,,,,,,,,
296527,2022-11-30_20h25.05.938,vts_reward_expectancy_bt,2022.2.4,Win32,59.53444067,Chrome,1368,912,,,,,0,603,,,,,,,,,,,,,,,,,181,D,circle,1,0,,,,,,,,,,,,,,,,switch,number,numSwt,f,0.7661,noRew,,,,,,0,52,0,52,0,1,,,,,,,,,,,,,,,,,
296527,2022-11-30_20h25.05.938,vts_reward_expectancy_bt,2022.2.4,Win32,59.53444067,Chrome,1368,912,,,,,0,603,,,,,,,,,,,,,,,,,139,U,star,1,0,,,,,,,,,,,,,,,,switch,letter,lettSwt,k,1.114,noRew,,,,,,0,53,0,53,0,1,,,,,,,,,,,,,,,,,
296527,2022-11-30_20h25.05.938,vts_reward_expectancy_bt,2022.2.4,Win32,59.53444067,Chrome,1368,912,,,,,0,603,,,,,,,,,,,,,,,,,125,S,star,1,0,,,,,,,,,,,,,,,,repeat,letter,lettRpt,k,1.1663,noRew,,,,,,0,54,0,54,0,1,,,,,,,,,,,,,,,,,
296527,2022-11-30_20h25.05.938,vts_reward_expectancy_bt,2022.2.4,Win32,59.53444067,Chrome,1368,912,,,,,0,603,,,,,,,,,,,,,,,,,174,H,circle,1,0,,,,,,,,,,,,,,,,switch,number,numSwt,f,0.8623,noRew,,,,,,0,55,0,55,0,1,,,,,,,,,,,,,,,,,
296527,2022-11-30_20h25.05.938,vts_reward_expectancy_bt,2022.2.4,Win32,59.53444067,Chrome,1368,912,,,,,0,603,,,,,,,,,,,,,,,,,174,W,hexagon,1,0,,,,,,,,,,,,,,,,switch,letter,lettSwt,k,1.2256,noRew,,,,,,0,56,0,56,0,1,,,,,,,,,,,,,,,,,
296527,2022-11-30_20h25.05.938,vts_reward_expectancy_bt,2022.2.4,Win32,59.53444067,Chrome,1368,912,,,,,0,603,,,,,,,,,,,,,,,,,167,U,triangle,1,0,,,,,,,,,,,,,,,,switch,number,numSwt,f,0.8655,noRew,,,,,,0,57,0,57,0,1,,,,,,,,,,,,,,,,,
296527,2022-11-30_20h25.05.938,vts_reward_expectancy_bt,2022.2.4,Win32,59.53444067,Chrome,1368,912,,,,,0,603,,,,,,,,,,,,,,,,,160,B,triangle,1,0,,,,,,,,,,,,,,,,repeat,number,numRpt,f,1.1374,noRew,,,,,,0,58,0,58,0,1,,,,,,,,,,,,,,,,,
296527,2022-11-30_20h25.05.938,vts_reward_expectancy_bt,2022.2.4,Win32,59.53444067,Chrome,1368,912,,,,,0,603,,,,,,,,,,,,,,,,,132,H,circle,1,0,,,,,,,,,,,,,,,,switch,letter,lettSwt,j,1.0699,noRew,,,,,,0,59,0,59,0,1,,,,,,,,,,,,,,,,,
296527,2022-11-30_20h25.05.938,vts_reward_expectancy_bt,2022.2.4,Win32,59.53444067,Chrome,1368,912,,,,,0,603,,,,,,,,,,,,,,,,,146,B,hexagon,1,0,,,,,,,,,,,,,,,,switch,number,numSwt,d,0.8564,noRew,,,,,,0,60,0,60,0,1,,,,,,,,,,,,,,,,,
296527,2022-11-30_20h25.05.938,vts_reward_expectancy_bt,2022.2.4,Win32,59.53444067,Chrome,1368,912,,,,,0,603,,,,,,,,,,,,,,,,,174,W,star,1,0,,,,,,,,,,,,,,,,switch,letter,lettSwt,k,2.1519,noRew,,,,,,0,61,0,61,0,1,,,,,,,,,,,,,,,,,
296527,2022-11-30_20h25.05.938,vts_reward_expectancy_bt,2022.2.4,Win32,59.53444067,Chrome,1368,912,,,,,0,603,,,,,,,,,,,,,,,,,181,U,circle,-1,0,,,,,,,,,,,,,,,,switch,no_choice,NA,,,noRew,,,,,,0,62,0,62,0,1,,,,,,,,,,,,,,,,,
296527,2022-11-30_20h25.05.938,vts_reward_expectancy_bt,2022.2.4,Win32,59.53444067,Chrome,1368,912,,,,,0,603,,,,,,,,,,,,,,,,,132,F,triangle,1,0,,,,,,,,,,,,,,,,switch,letter,lettSwt,j,1.1518,noRew,,,,,,0,63,0,63,0,1,,,,,,,,,,,,,,,,,
296527,2022-11-30_20h25.05.938,vts_reward_expectancy_bt,2022.2.4,Win32,59.53444067,Chrome,1368,912,,,,,,,,,,,,,,,,,,,,,,,,,,,,,,,,,,,,,,,,,,,,,,,,,,,,,,,,,,,,,,,,,,,,,,,,,,,,
296527,2022-11-30_20h25.05.938,vts_reward_expectancy_bt,2022.2.4,Win32,59.53444067,Chrome,1368,912,,,,,1,604,,,,,,,,,,,,,,,,,160,H,hexagon,1,0,,,,,,,,,,,,,,,,switch,number,numSwt,f,0.6673,Lo,,,,,,0,,,,,,space,21.5173,high,0,0,0,0,1,,,,,,,,,
296527,2022-11-30_20h25.05.938,vts_reward_expectancy_bt,2022.2.4,Win32,59.53444067,Chrome,1368,912,,,,,1,605,,,,,,,,,,,,,,,,,146,Y,circle,1,0,,,,,,,,,,,,,,,,repeat,number,numRpt,d,0.6684,Lo,,,,,,0,,,,,,,,high,1,0,1,0,1,,,,,,,,,
296527,2022-11-30_20h25.05.938,vts_reward_expectancy_bt,2022.2.4,Win32,59.53444067,Chrome,1368,912,,,,,0,605,,,,,,,,,,,,,,,,,174,U,star,1,0,,,,,,,,,,,,,,,,repeat,number,numRpt,f,0.9339,Hi,,,,,,0,,,,,,,,high,2,0,2,0,1,,,,,,,,,
296527,2022-11-30_20h25.05.938,vts_reward_expectancy_bt,2022.2.4,Win32,59.53444067,Chrome,1368,912,,,,,10,615,,,,,,,,,,,,,,,,,132,W,triangle,1,0,,,,,,,,,,,,,,,,repeat,number,numRpt,d,0.5721,Hi,,,,,,0,,,,,,,,high,3,0,3,0,1,,,,,,,,,
296527,2022-11-30_20h25.05.938,vts_reward_expectancy_bt,2022.2.4,Win32,59.53444067,Chrome,1368,912,,,,,1,616,,,,,,,,,,,,,,,,,181,F,hexagon,1,0,,,,,,,,,,,,,,,,repeat,number,numRpt,f,0.7742,Lo,,,,,,0,,,,,,,,high,4,0,4,0,1,,,,,,,,,
296527,2022-11-30_20h25.05.938,vts_reward_expectancy_bt,2022.2.4,Win32,59.53444067,Chrome,1368,912,,,,,10,626,,,,,,,,,,,,,,,,,139,S,circle,1,0,,,,,,,,,,,,,,,,switch,letter,lettSwt,k,0.6411,Lo,,,,,,0,,,,,,,,high,5,0,5,0,1,,,,,,,,,
296527,2022-11-30_20h25.05.938,vts_reward_expectancy_bt,2022.2.4,Win32,59.53444067,Chrome,1368,912,,,,,10,636,,,,,,,,,,,,,,,,,167,D,star,1,0,,,,,,,,,,,,,,,,repeat,letter,lettRpt,j,0.8346,Hi,,,,,,0,,,,,,,,high,6,0,6,0,1,,,,,,,,,
296527,2022-11-30_20h25.05.938,vts_reward_expectancy_bt,2022.2.4,Win32,59.53444067,Chrome,1368,912,,,,,10,646,,,,,,,,,,,,,,,,,125,B,triangle,1,0,,,,,,,,,,,,,,,,repeat,letter,lettRpt,j,0.6705,Hi,,,,,,0,,,,,,,,high,7,0,7,0,1,,,,,,,,,
296527,2022-11-30_20h25.05.938,vts_reward_expectancy_bt,2022.2.4,Win32,59.53444067,Chrome,1368,912,,,,,10,656,,,,,,,,,,,,,,,,,160,H,star,1,0,,,,,,,,,,,,,,,,repeat,letter,lettRpt,j,0.6182,Hi,,,,,,0,,,,,,,,high,8,0,8,0,1,,,,,,,,,
296527,2022-11-30_20h25.05.938,vts_reward_expectancy_bt,2022.2.4,Win32,59.53444067,Chrome,1368,912,,,,,1,657,,,,,,,,,,,,,,,,,146,Y,circle,1,0,,,,,,,,,,,,,,,,switch,number,numSwt,d,0.6085,Lo,,,,,,0,,,,,,,,high,9,0,9,0,1,,,,,,,,,
296527,2022-11-30_20h25.05.938,vts_reward_expectancy_bt,2022.2.4,Win32,59.53444067,Chrome,1368,912,,,,,10,667,,,,,,,,,,,,,,,,,174,U,triangle,1,0,,,,,,,,,,,,,,,,switch,letter,lettSwt,k,0.9842,Hi,,,,,,0,,,,,,,,high,10,0,10,0,1,,,,,,,,,
296527,2022-11-30_20h25.05.938,vts_reward_expectancy_bt,2022.2.4,Win32,59.53444067,Chrome,1368,912,,,,,1,668,,,,,,,,,,,,,,,,,132,W,hexagon,1,0,,,,,,,,,,,,,,,,switch,number,numSwt,d,0.8575,Lo,,,,,,0,,,,,,,,high,11,0,11,0,1,,,,,,,,,
296527,2022-11-30_20h25.05.938,vts_reward_expectancy_bt,2022.2.4,Win32,59.53444067,Chrome,1368,912,,,,,10,678,,,,,,,,,,,,,,,,,181,F,triangle,1,0,,,,,,,,,,,,,,,,switch,letter,lettSwt,j,0.7732,Hi,,,,,,0,,,,,,,,high,12,0,12,0,1,,,,,,,,,
296527,2022-11-30_20h25.05.938,vts_reward_expectancy_bt,2022.2.4,Win32,59.53444067,Chrome,1368,912,,,,,1,679,,,,,,,,,,,,,,,,,139,S,circle,1,0,,,,,,,,,,,,,,,,repeat,letter,lettRpt,k,0.9578,Lo,,,,,,0,,,,,,,,high,13,0,13,0,1,,,,,,,,,
296527,2022-11-30_20h25.05.938,vts_reward_expectancy_bt,2022.2.4,Win32,59.53444067,Chrome,1368,912,,,,,10,689,,,,,,,,,,,,,,,,,167,D,star,1,0,,,,,,,,,,,,,,,,repeat,letter,lettRpt,j,0.921,Hi,,,,,,0,,,,,,,,high,14,0,14,0,1,,,,,,,,,
296527,2022-11-30_20h25.05.938,vts_reward_expectancy_bt,2022.2.4,Win32,59.53444067,Chrome,1368,912,,,,,1,690,,,,,,,,,,,,,,,,,125,B,hexagon,1,0,,,,,,,,,,,,,,,,repeat,letter,lettRpt,j,0.8581,Lo,,,,,,0,,,,,,,,high,15,0,15,0,1,,,,,,,,,
296527,2022-11-30_20h25.05.938,vts_reward_expectancy_bt,2022.2.4,Win32,59.53444067,Chrome,1368,912,,,,,1,691,,,,,,,,,,,,,,,,,132,D,circle,1,0,,,,,,,,,,,,,,,,repeat,letter,lettRpt,j,0.7345,Lo,,,,,,0,,,,,,,,high,16,0,16,0,1,,,,,,,,,
296527,2022-11-30_20h25.05.938,vts_reward_expectancy_bt,2022.2.4,Win32,59.53444067,Chrome,1368,912,,,,,1,692,,,,,,,,,,,,,,,,,146,H,star,1,0,,,,,,,,,,,,,,,,repeat,letter,lettRpt,j,0.6669,Hi,,,,,,0,,,,,,,,high,17,0,17,0,1,,,,,,,,,
296527,2022-11-30_20h25.05.938,vts_reward_expectancy_bt,2022.2.4,Win32,59.53444067,Chrome,1368,912,,,,,1,693,,,,,,,,,,,,,,,,,125,U,hexagon,1,0,,,,,,,,,,,,,,,,switch,number,numSwt,d,0.8176,Lo,,,,,,0,,,,,,,,high,18,0,18,0,1,,,,,,,,,
296527,2022-11-30_20h25.05.938,vts_reward_expectancy_bt,2022.2.4,Win32,59.53444067,Chrome,1368,912,,,,,10,703,,,,,,,,,,,,,,,,,167,S,triangle,1,0,,,,,,,,,,,,,,,,switch,letter,lettSwt,k,0.5675,Hi,,,,,,0,,,,,,,,high,19,0,19,0,1,,,,,,,,,
296527,2022-11-30_20h25.05.938,vts_reward_expectancy_bt,2022.2.4,Win32,59.53444067,Chrome,1368,912,,,,,1,704,,,,,,,,,,,,,,,,,139,B,hexagon,1,0,,,,,,,,,,,,,,,,repeat,letter,lettRpt,j,0.7076,Lo,,,,,,0,,,,,,,,high,20,0,20,0,1,,,,,,,,,
296527,2022-11-30_20h25.05.938,vts_reward_expectancy_bt,2022.2.4,Win32,59.53444067,Chrome,1368,912,,,,,0,704,,,,,,,,,,,,,,,,,174,W,star,1,0,,,,,,,,,,,,,,,,switch,number,numSwt,f,0.9558,Hi,,,,,,0,,,,,,,,high,21,0,21,0,1,,,,,,,,,
296527,2022-11-30_20h25.05.938,vts_reward_expectancy_bt,2022.2.4,Win32,59.53444067,Chrome,1368,912,,,,,1,705,,,,,,,,,,,,,,,,,181,F,triangle,1,0,,,,,,,,,,,,,,,,repeat,number,numRpt,f,0.54,Hi,,,,,,0,,,,,,,,high,22,0,22,0,1,,,,,,,,,
296527,2022-11-30_20h25.05.938,vts_reward_expectancy_bt,2022.2.4,Win32,59.53444067,Chrome,1368,912,,,,,10,715,,,,,,,,,,,,,,,,,160,Y,circle,1,0,,,,,,,,,,,,,,,,switch,letter,lettSwt,k,0.55,Lo,,,,,,0,,,,,,,,high,23,0,23,0,1,,,,,,,,,
296527,2022-11-30_20h25.05.938,vts_reward_expectancy_bt,2022.2.4,Win32,59.53444067,Chrome,1368,912,,,,,0,715,,,,,,,,,,,,,,,,,146,S,star,1,0,,,,,,,,,,,,,,,,repeat,letter,lettRpt,k,1.3896,Hi,,,,,,0,,,,,,,,high,24,0,24,0,1,,,,,,,,,
296527,2022-11-30_20h25.05.938,vts_reward_expectancy_bt,2022.2.4,Win32,59.53444067,Chrome,1368,912,,,,,10,725,,,,,,,,,,,,,,,,,174,B,triangle,1,0,,,,,,,,,,,,,,,,switch,number,numSwt,f,0.7341,Hi,,,,,,0,,,,,,,,high,25,0,25,0,1,,,,,,,,,
296527,2022-11-30_20h25.05.938,vts_reward_expectancy_bt,2022.2.4,Win32,59.53444067,Chrome,1368,912,,,,,1,726,,,,,,,,,,,,,,,,,132,W,hexagon,1,0,,,,,,,,,,,,,,,,switch,letter,lettSwt,k,0.6843,Lo,,,,,,0,,,,,,,,high,26,0,26,0,1,,,,,,,,,
296527,2022-11-30_20h25.05.938,vts_reward_expectancy_bt,2022.2.4,Win32,59.53444067,Chrome,1368,912,,,,,1,727,,,,,,,,,,,,,,,,,125,D,circle,1,0,,,,,,,,,,,,,,,,switch,number,numSwt,d,0.5753,Lo,,,,,,0,,,,,,,,high,27,0,27,0,1,,,,,,,,,
296527,2022-11-30_20h25.05.938,vts_reward_expectancy_bt,2022.2.4,Win32,59.53444067,Chrome,1368,912,,,,,1,728,,,,,,,,,,,,,,,,,160,Y,circle,1,0,,,,,,,,,,,,,,,,switch,letter,lettSwt,k,0.6252,Lo,,,,,,0,,,,,,,,high,28,0,28,0,1,,,,,,,,,
296527,2022-11-30_20h25.05.938,vts_reward_expectancy_bt,2022.2.4,Win32,59.53444067,Chrome,1368,912,,,,,10,738,,,,,,,,,,,,,,,,,139,H,star,1,0,,,,,,,,,,,,,,,,repeat,letter,lettRpt,j,0.6725,Hi,,,,,,0,,,,,,,,high,29,0,29,0,1,,,,,,,,,
296527,2022-11-30_20h25.05.938,vts_reward_expectancy_bt,2022.2.4,Win32,59.53444067,Chrome,1368,912,,,,,1,739,,,,,,,,,,,,,,,,,181,F,hexagon,1,0,,,,,,,,,,,,,,,,repeat,letter,lettRpt,j,0.8846,Lo,,,,,,0,,,,,,,,high,30,0,30,0,1,,,,,,,,,
296527,2022-11-30_20h25.05.938,vts_reward_expectancy_bt,2022.2.4,Win32,59.53444067,Chrome,1368,912,,,,,0,739,,,,,,,,,,,,,,,,,167,U,triangle,1,0,,,,,,,,,,,,,,,,switch,number,numSwt,f,0.8006,Hi,,,,,,0,,,,,,,,high,31,0,31,0,1,,,,,,,,,
296527,2022-11-30_20h25.05.938,vts_reward_expectancy_bt,2022.2.4,Win32,59.53444067,Chrome,1368,912,,,,,1,740,,,,,,,,,,,,,,,,,174,F,circle,1,0,,,,,,,,,,,,,,,,switch,letter,lettSwt,j,0.9317,Lo,,,,,,1,,,,,,space,4.8531,high,0,0,0,0,1,,,,,,,,,
296527,2022-11-30_20h25.05.938,vts_reward_expectancy_bt,2022.2.4,Win32,59.53444067,Chrome,1368,912,,,,,10,750,,,,,,,,,,,,,,,,,160,B,hexagon,1,0,,,,,,,,,,,,,,,,repeat,letter,lettRpt,j,0.7219,Lo,,,,,,1,,,,,,,,high,1,0,1,0,1,,,,,,,,,
296527,2022-11-30_20h25.05.938,vts_reward_expectancy_bt,2022.2.4,Win32,59.53444067,Chrome,1368,912,,,,,0,750,,,,,,,,,,,,,,,,,167,W,triangle,1,0,,,,,,,,,,,,,,,,repeat,letter,lettRpt,k,0.9816,Hi,,,,,,1,,,,,,,,high,2,0,2,0,1,,,,,,,,,
296527,2022-11-30_20h25.05.938,vts_reward_expectancy_bt,2022.2.4,Win32,59.53444067,Chrome,1368,912,,,,,0,750,,,,,,,,,,,,,,,,,139,H,star,0,0,,,,,,,,,,,,,,,,repeat,letter,NA,k,0.6216,Hi,,,,,,1,,,,,,,,high,3,0,3,0,1,,,,,,,,,
296527,2022-11-30_20h25.05.938,vts_reward_expectancy_bt,2022.2.4,Win32,59.53444067,Chrome,1368,912,,,,,10,760,,,,,,,,,,,,,,,,,125,D,circle,1,1,,,,,,,,,,,,,,,,repeat,letter,lettRpt,j,0.5824,Lo,,,,,,1,,,,,,,,high,4,0,4,0,1,,,,,,,,,
296527,2022-11-30_20h25.05.938,vts_reward_expectancy_bt,2022.2.4,Win32,59.53444067,Chrome,1368,912,,,,,1,761,,,,,,,,,,,,,,,,,146,S,hexagon,1,0,,,,,,,,,,,,,,,,switch,number,numSwt,d,0.6319,Lo,,,,,,1,,,,,,,,high,5,0,5,0,1,,,,,,,,,
296527,2022-11-30_20h25.05.938,vts_reward_expectancy_bt,2022.2.4,Win32,59.53444067,Chrome,1368,912,,,,,0,761,,,,,,,,,,,,,,,,,181,U,triangle,1,0,,,,,,,,,,,,,,,,repeat,number,numRpt,f,0.6821,Hi,,,,,,1,,,,,,,,high,6,0,6,0,1,,,,,,,,,
296527,2022-11-30_20h25.05.938,vts_reward_expectancy_bt,2022.2.4,Win32,59.53444067,Chrome,1368,912,,,,,0,761,,,,,,,,,,,,,,,,,132,Y,star,1,0,,,,,,,,,,,,,,,,repeat,number,numRpt,d,0.7548,Hi,,,,,,1,,,,,,,,high,7,0,7,0,1,,,,,,,,,
296527,2022-11-30_20h25.05.938,vts_reward_expectancy_bt,2022.2.4,Win32,59.53444067,Chrome,1368,912,,,,,1,762,,,,,,,,,,,,,,,,,174,F,hexagon,1,0,,,,,,,,,,,,,,,,switch,letter,lettSwt,j,0.5348,Lo,,,,,,1,,,,,,,,high,8,0,8,0,1,,,,,,,,,
296527,2022-11-30_20h25.05.938,vts_reward_expectancy_bt,2022.2.4,Win32,59.53444067,Chrome,1368,912,,,,,10,772,,,,,,,,,,,,,,,,,160,B,circle,1,0,,,,,,,,,,,,,,,,switch,number,numSwt,f,0.5652,Lo,,,,,,1,,,,,,,,high,9,0,9,0,1,,,,,,,,,
296527,2022-11-30_20h25.05.938,vts_reward_expectancy_bt,2022.2.4,Win32,59.53444067,Chrome,1368,912,,,,,10,782,,,,,,,,,,,,,,,,,167,W,star,1,0,,,,,,,,,,,,,,,,switch,letter,lettSwt,k,0.5982,Hi,,,,,,1,,,,,,,,high,10,0,10,0,1,,,,,,,,,
296527,2022-11-30_20h25.05.938,vts_reward_expectancy_bt,2022.2.4,Win32,59.53444067,Chrome,1368,912,,,,,0,782,,,,,,,,,,,,,,,,,139,H,triangle,1,0,,,,,,,,,,,,,,,,repeat,letter,lettRpt,j,0.7989,Hi,,,,,,1,,,,,,,,high,11,0,11,0,1,,,,,,,,,
296527,2022-11-30_20h25.05.938,vts_reward_expectancy_bt,2022.2.4,Win32,59.53444067,Chrome,1368,912,,,,,0,782,,,,,,,,,,,,,,,,,125,D,circle,0,0,,,,,,,,,,,,,,,,switch,number,NA,f,0.6561,Hi,,,,,,1,,,,,,,,high,12,0,12,0,1,,,,,,,,,
296527,2022-11-30_20h25.05.938,vts_reward_expectancy_bt,2022.2.4,Win32,59.53444067,Chrome,1368,912,,,,,0,782,,,,,,,,,,,,,,,,,146,S,triangle,1,1,,,,,,,,,,,,,,,,repeat,number,numRpt,d,0.7829,Hi,,,,,,1,,,,,,,,high,13,0,13,0,1,,,,,,,,,
296527,2022-11-30_20h25.05.938,vts_reward_expectancy_bt,2022.2.4,Win32,59.53444067,Chrome,1368,912,,,,,1,783,,,,,,,,,,,,,,,,,181,U,hexagon,1,0,,,,,,,,,,,,,,,,repeat,number,numRpt,f,0.6657,Lo,,,,,,1,,,,,,,,high,14,0,14,0,1,,,,,,,,,
296527,2022-11-30_20h25.05.938,vts_reward_expectancy_bt,2022.2.4,Win32,59.53444067,Chrome,1368,912,,,,,1,784,,,,,,,,,,,,,,,,,132,Y,star,1,0,,,,,,,,,,,,,,,,switch,letter,lettSwt,k,0.5484,Hi,,,,,,1,,,,,,,,high,15,0,15,0,1,,,,,,,,,
296527,2022-11-30_20h25.05.938,vts_reward_expectancy_bt,2022.2.4,Win32,59.53444067,Chrome,1368,912,,,,,1,785,,,,,,,,,,,,,,,,,146,D,hexagon,1,0,,,,,,,,,,,,,,,,switch,number,numSwt,d,0.7868,Lo,,,,,,1,,,,,,,,high,16,0,16,0,1,,,,,,,,,
296527,2022-11-30_20h25.05.938,vts_reward_expectancy_bt,2022.2.4,Win32,59.53444067,Chrome,1368,912,,,,,0,785,,,,,,,,,,,,,,,,,132,B,star,1,0,,,,,,,,,,,,,,,,switch,letter,lettSwt,j,0.8025,Hi,,,,,,1,,,,,,,,high,17,0,17,0,1,,,,,,,,,
296527,2022-11-30_20h25.05.938,vts_reward_expectancy_bt,2022.2.4,Win32,59.53444067,Chrome,1368,912,,,,,1,786,,,,,,,,,,,,,,,,,125,S,circle,1,0,,,,,,,,,,,,,,,,repeat,letter,lettRpt,k,0.732,Lo,,,,,,1,,,,,,,,high,18,0,18,0,1,,,,,,,,,
296527,2022-11-30_20h25.05.938,vts_reward_expectancy_bt,2022.2.4,Win32,59.53444067,Chrome,1368,912,,,,,0,786,,,,,,,,,,,,,,,,,139,U,triangle,1,0,,,,,,,,,,,,,,,,repeat,letter,lettRpt,k,0.9647,Hi,,,,,,1,,,,,,,,high,19,0,19,0,1,,,,,,,,,
296527,2022-11-30_20h25.05.938,vts_reward_expectancy_bt,2022.2.4,Win32,59.53444067,Chrome,1368,912,,,,,0,786,,,,,,,,,,,,,,,,,181,Y,hexagon,0,0,,,,,,,,,,,,,,,,switch,number,NA,d,0.8848,Hi,,,,,,1,,,,,,,,high,20,0,20,0,1,,,,,,,,,
296527,2022-11-30_20h25.05.938,vts_reward_expectancy_bt,2022.2.4,Win32,59.53444067,Chrome,1368,912,,,,,0,786,,,,,,,,,,,,,,,,,174,F,star,1,1,,,,,,,,,,,,,,,,repeat,number,numRpt,f,0.9498,Hi,,,,,,1,,,,,,,,high,21,0,21,0,1,,,,,,,,,
296527,2022-11-30_20h25.05.938,vts_reward_expectancy_bt,2022.2.4,Win32,59.53444067,Chrome,1368,912,,,,,1,787,,,,,,,,,,,,,,,,,167,W,circle,1,0,,,,,,,,,,,,,,,,switch,letter,lettSwt,k,0.551,Lo,,,,,,1,,,,,,,,high,22,0,22,0,1,,,,,,,,,
296527,2022-11-30_20h25.05.938,vts_reward_expectancy_bt,2022.2.4,Win32,59.53444067,Chrome,1368,912,,,,,0,787,,,,,,,,,,,,,,,,,160,H,triangle,0,0,,,,,,,,,,,,,,,,repeat,letter,NA,k,0.5003,Lo,,,,,,1,,,,,,,,high,23,0,23,0,1,,,,,,,,,
296527,2022-11-30_20h25.05.938,vts_reward_expectancy_bt,2022.2.4,Win32,59.53444067,Chrome,1368,912,,,,,0,787,,,,,,,,,,,,,,,,,125,W,triangle,1,1,,,,,,,,,,,,,,,,repeat,letter,lettRpt,k,1.0709,Hi,,,,,,1,,,,,,,,high,24,0,24,0,1,,,,,,,,,
296527,2022-11-30_20h25.05.938,vts_reward_expectancy_bt,2022.2.4,Win32,59.53444067,Chrome,1368,912,,,,,1,788,,,,,,,,,,,,,,,,,167,Y,circle,1,0,,,,,,,,,,,,,,,,repeat,letter,lettRpt,k,0.6544,Lo,,,,,,1,,,,,,,,high,25,0,25,0,1,,,,,,,,,
296527,2022-11-30_20h25.05.938,vts_reward_expectancy_bt,2022.2.4,Win32,59.53444067,Chrome,1368,912,,,,,10,798,,,,,,,,,,,,,,,,,132,U,star,1,0,,,,,,,,,,,,,,,,switch,number,numSwt,d,0.6499,Hi,,,,,,1,,,,,,,,high,26,0,26,0,1,,,,,,,,,
296527,2022-11-30_20h25.05.938,vts_reward_expectancy_bt,2022.2.4,Win32,59.53444067,Chrome,1368,912,,,,,1,799,,,,,,,,,,,,,,,,,139,B,hexagon,1,0,,,,,,,,,,,,,,,,repeat,number,numRpt,d,0.8312,Lo,,,,,,1,,,,,,,,high,27,0,27,0,1,,,,,,,,,
296527,2022-11-30_20h25.05.938,vts_reward_expectancy_bt,2022.2.4,Win32,59.53444067,Chrome,1368,912,,,,,0,799,,,,,,,,,,,,,,,,,146,S,circle,0,0,,,,,,,,,,,,,,,,switch,letter,NA,j,0.617,Lo,,,,,,1,,,,,,,,high,28,0,28,0,1,,,,,,,,,
296527,2022-11-30_20h25.05.938,vts_reward_expectancy_bt,2022.2.4,Win32,59.53444067,Chrome,1368,912,,,,,1,800,,,,,,,,,,,,,,,,,181,D,hexagon,1,1,,,,,,,,,,,,,,,,repeat,letter,lettRpt,j,0.7011,Lo,,,,,,1,,,,,,,,high,29,0,29,0,1,,,,,,,,,
296527,2022-11-30_20h25.05.938,vts_reward_expectancy_bt,2022.2.4,Win32,59.53444067,Chrome,1368,912,,,,,0,800,,,,,,,,,,,,,,,,,160,F,star,1,0,,,,,,,,,,,,,,,,switch,number,numSwt,f,0.8158,Hi,,,,,,1,,,,,,,,high,30,0,30,0,1,,,,,,,,,
296527,2022-11-30_20h25.05.938,vts_reward_expectancy_bt,2022.2.4,Win32,59.53444067,Chrome,1368,912,,,,,10,810,,,,,,,,,,,,,,,,,174,H,triangle,1,0,,,,,,,,,,,,,,,,switch,letter,lettSwt,j,0.5644,Hi,,,,,,1,,,,,,,,high,31,0,31,0,1,,,,,,,,,
296527,2022-11-30_20h25.05.938,vts_reward_expectancy_bt,2022.2.4,Win32,59.53444067,Chrome,1368,912,,,,,0,810,,,,,,,,,,,,,,,,,160,S,triangle,1,0,,,,,,,,,,,,,,,,switch,number,numSwt,f,0.7978,Hi,,,,,,2,,,,,,space,0.918,high,0,0,0,0,1,,,,,,,,,
296527,2022-11-30_20h25.05.938,vts_reward_expectancy_bt,2022.2.4,Win32,59.53444067,Chrome,1368,912,,,,,1,811,,,,,,,,,,,,,,,,,181,B,circle,1,0,,,,,,,,,,,,,,,,switch,letter,lettSwt,j,0.5823,Lo,,,,,,2,,,,,,,,high,1,0,1,0,1,,,,,,,,,
296527,2022-11-30_20h25.05.938,vts_reward_expectancy_bt,2022.2.4,Win32,59.53444067,Chrome,1368,912,,,,,0,811,,,,,,,,,,,,,,,,,125,Y,star,1,0,,,,,,,,,,,,,,,,switch,number,numSwt,d,0.7209,Hi,,,,,,2,,,,,,,,high,2,0,2,0,1,,,,,,,,,
296527,2022-11-30_20h25.05.938,vts_reward_expectancy_bt,2022.2.4,Win32,59.53444067,Chrome,1368,912,,,,,10,821,,,,,,,,,,,,,,,,,139,D,hexagon,1,0,,,,,,,,,,,,,,,,repeat,number,numRpt,d,0.615,Lo,,,,,,2,,,,,,,,high,3,0,3,0,1,,,,,,,,,
296527,2022-11-30_20h25.05.938,vts_reward_expectancy_bt,2022.2.4,Win32,59.53444067,Chrome,1368,912,,,,,10,831,,,,,,,,,,,,,,,,,132,U,triangle,1,0,,,,,,,,,,,,,,,,switch,letter,lettSwt,k,0.5381,Hi,,,,,,2,,,,,,,,high,4,0,4,0,1,,,,,,,,,
296527,2022-11-30_20h25.05.938,vts_reward_expectancy_bt,2022.2.4,Win32,59.53444067,Chrome,1368,912,,,,,1,832,,,,,,,,,,,,,,,,,167,F,circle,1,0,,,,,,,,,,,,,,,,repeat,letter,lettRpt,j,0.6982,Lo,,,,,,2,,,,,,,,high,5,0,5,0,1,,,,,,,,,
296527,2022-11-30_20h25.05.938,vts_reward_expectancy_bt,2022.2.4,Win32,59.53444067,Chrome,1368,912,,,,,0,832,,,,,,,,,,,,,,,,,174,W,star,1,0,,,,,,,,,,,,,,,,repeat,letter,lettRpt,k,1.135,Hi,,,,,,2,,,,,,,,high,6,0,6,0,1,,,,,,,,,
296527,2022-11-30_20h25.05.938,vts_reward_expectancy_bt,2022.2.4,Win32,59.53444067,Chrome,1368,912,,,,,10,842,,,,,,,,,,,,,,,,,146,H,hexagon,1,0,,,,,,,,,,,,,,,,repeat,letter,lettRpt,j,0.8159,Lo,,,,,,2,,,,,,,,high,7,0,7,0,1,,,,,,,,,
296527,2022-11-30_20h25.05.938,vts_reward_expectancy_bt,2022.2.4,Win32,59.53444067,Chrome,1368,912,,,,,1,843,,,,,,,,,,,,,,,,,160,S,hexagon,1,0,,,,,,,,,,,,,,,,switch,number,numSwt,f,0.715,Lo,,,,,,2,,,,,,,,high,8,0,8,0,1,,,,,,,,,
296527,2022-11-30_20h25.05.938,vts_reward_expectancy_bt,2022.2.4,Win32,59.53444067,Chrome,1368,912,,,,,1,844,,,,,,,,,,,,,,,,,181,B,circle,1,0,,,,,,,,,,,,,,,,switch,letter,lettSwt,j,0.7381,Lo,,,,,,2,,,,,,,,high,9,0,9,0,1,,,,,,,,,
296527,2022-11-30_20h25.05.938,vts_reward_expectancy_bt,2022.2.4,Win32,59.53444067,Chrome,1368,912,,,,,0,844,,,,,,,,,,,,,,,,,125,Y,triangle,1,0,,,,,,,,,,,,,,,,switch,number,numSwt,d,0.6481,Hi,,,,,,2,,,,,,,,high,10,0,10,0,1,,,,,,,,,
296527,2022-11-30_20h25.05.938,vts_reward_expectancy_bt,2022.2.4,Win32,59.53444067,Chrome,1368,912,,,,,0,844,,,,,,,,,,,,,,,,,139,D,star,0,0,,,,,,,,,,,,,,,,switch,letter,NA,k,0.7332,Hi,,,,,,2,,,,,,,,high,11,0,11,0,1,,,,,,,,,
296527,2022-11-30_20h25.05.938,vts_reward_expectancy_bt,2022.2.4,Win32,59.53444067,Chrome,1368,912,,,,,0,844,,,,,,,,,,,,,,,,,132,U,triangle,1,1,,,,,,,,,,,,,,,,repeat,letter,lettRpt,k,1.0989,Hi,,,,,,2,,,,,,,,high,12,0,12,0,1,,,,,,,,,
296527,2022-11-30_20h25.05.938,vts_reward_expectancy_bt,2022.2.4,Win32,59.53444067,Chrome,1368,912,,,,,1,845,,,,,,,,,,,,,,,,,167,F,hexagon,1,0,,,,,,,,,,,,,,,,repeat,letter,lettRpt,j,0.7649,Lo,,,,,,2,,,,,,,,high,13,0,13,0,1,,,,,,,,,
296527,2022-11-30_20h25.05.938,vts_reward_expectancy_bt,2022.2.4,Win32,59.53444067,Chrome,1368,912,,,,,1,846,,,,,,,,,,,,,,,,,174,W,circle,1,0,,,,,,,,,,,,,,,,repeat,letter,lettRpt,k,0.4987,Lo,,,,,,2,,,,,,,,high,14,0,14,0,1,,,,,,,,,
296527,2022-11-30_20h25.05.938,vts_reward_expectancy_bt,2022.2.4,Win32,59.53444067,Chrome,1368,912,,,,,0,846,,,,,,,,,,,,,,,,,146,H,star,1,0,,,,,,,,,,,,,,,,switch,number,numSwt,d,0.8359,Hi,,,,,,2,,,,,,,,high,15,0,15,0,1,,,,,,,,,
296527,2022-11-30_20h25.05.938,vts_reward_expectancy_bt,2022.2.4,Win32,59.53444067,Chrome,1368,912,,,,,1,847,,,,,,,,,,,,,,,,,167,D,hexagon,1,0,,,,,,,,,,,,,,,,repeat,number,numRpt,f,0.4527,Lo,,,,,,2,,,,,,,,high,16,0,16,0,1,,,,,,,,,
296527,2022-11-30_20h25.05.938,vts_reward_expectancy_bt,2022.2.4,Win32,59.53444067,Chrome,1368,912,,,,,10,857,,,,,,,,,,,,,,,,,132,B,triangle,1,0,,,,,,,,,,,,,,,,switch,letter,lettSwt,j,0.4524,Hi,,,,,,2,,,,,,,,high,17,0,17,0,1,,,,,,,,,
296527,2022-11-30_20h25.05.938,vts_reward_expectancy_bt,2022.2.4,Win32,59.53444067,Chrome,1368,912,,,,,1,858,,,,,,,,,,,,,,,,,181,W,circle,1,0,,,,,,,,,,,,,,,,switch,number,numSwt,f,0.5834,Lo,,,,,,2,,,,,,,,high,18,0,18,0,1,,,,,,,,,
296527,2022-11-30_20h25.05.938,vts_reward_expectancy_bt,2022.2.4,Win32,59.53444067,Chrome,1368,912,,,,,1,859,,,,,,,,,,,,,,,,,160,H,star,1,0,,,,,,,,,,,,,,,,repeat,number,numRpt,f,0.6468,Hi,,,,,,2,,,,,,,,high,19,0,19,0,1,,,,,,,,,
296527,2022-11-30_20h25.05.938,vts_reward_expectancy_bt,2022.2.4,Win32,59.53444067,Chrome,1368,912,,,,,1,860,,,,,,,,,,,,,,,,,139,Y,hexagon,1,0,,,,,,,,,,,,,,,,repeat,number,numRpt,d,0.5654,Lo,,,,,,2,,,,,,,,high,20,0,20,0,1,,,,,,,,,
296527,2022-11-30_20h25.05.938,vts_reward_expectancy_bt,2022.2.4,Win32,59.53444067,Chrome,1368,912,,,,,0,860,,,,,,,,,,,,,,,,,146,F,triangle,1,0,,,,,,,,,,,,,,,,switch,letter,lettSwt,j,0.7047,Hi,,,,,,2,,,,,,,,high,21,0,21,0,1,,,,,,,,,
296527,2022-11-30_20h25.05.938,vts_reward_expectancy_bt,2022.2.4,Win32,59.53444067,Chrome,1368,912,,,,,0,860,,,,,,,,,,,,,,,,,125,S,star,0,0,,,,,,,,,,,,,,,,repeat,letter,NA,j,0.7317,Hi,,,,,,2,,,,,,,,high,22,0,22,0,1,,,,,,,,,
296527,2022-11-30_20h25.05.938,vts_reward_expectancy_bt,2022.2.4,Win32,59.53444067,Chrome,1368,912,,,,,1,861,,,,,,,,,,,,,,,,,174,U,circle,1,1,,,,,,,,,,,,,,,,repeat,letter,lettRpt,k,0.7013,Lo,,,,,,2,,,,,,,,high,23,0,23,0,1,,,,,,,,,
296527,2022-11-30_20h25.05.938,vts_reward_expectancy_bt,2022.2.4,Win32,59.53444067,Chrome,1368,912,,,,,0,861,,,,,,,,,,,,,,,,,167,H,circle,0,0,,,,,,,,,,,,,,,,switch,number,NA,d,0.9985,Lo,,,,,,2,,,,,,,,high,24,0,24,0,1,,,,,,,,,
296527,2022-11-30_20h25.05.938,vts_reward_expectancy_bt,2022.2.4,Win32,59.53444067,Chrome,1368,912,,,,,0,861,,,,,,,,,,,,,,,,,160,D,triangle,1,1,,,,,,,,,,,,,,,,repeat,number,numRpt,f,1.0829,Hi,,,,,,2,,,,,,,,high,25,0,25,0,1,,,,,,,,,
296527,2022-11-30_20h25.05.938,vts_reward_expectancy_bt,2022.2.4,Win32,59.53444067,Chrome,1368,912,,,,,1,862,,,,,,,,,,,,,,,,,132,W,hexagon,1,0,,,,,,,,,,,,,,,,repeat,number,numRpt,d,0.5375,Lo,,,,,,2,,,,,,,,high,26,0,26,0,1,,,,,,,,,
296527,2022-11-30_20h25.05.938,vts_reward_expectancy_bt,2022.2.4,Win32,59.53444067,Chrome,1368,912,,,,,0,862,,,,,,,,,,,,,,,,,139,B,star,1,0,,,,,,,,,,,,,,,,repeat,number,numRpt,d,0.8343,Hi,,,,,,2,,,,,,,,high,27,0,27,0,1,,,,,,,,,
296527,2022-11-30_20h25.05.938,vts_reward_expectancy_bt,2022.2.4,Win32,59.53444067,Chrome,1368,912,,,,,1,863,,,,,,,,,,,,,,,,,181,S,circle,1,0,,,,,,,,,,,,,,,,repeat,number,numRpt,f,0.7479,Lo,,,,,,2,,,,,,,,high,28,0,28,0,1,,,,,,,,,
296527,2022-11-30_20h25.05.938,vts_reward_expectancy_bt,2022.2.4,Win32,59.53444067,Chrome,1368,912,,,,,1,864,,,,,,,,,,,,,,,,,146,U,hexagon,1,0,,,,,,,,,,,,,,,,repeat,number,numRpt,d,0.6501,Lo,,,,,,2,,,,,,,,high,29,0,29,0,1,,,,,,,,,
296527,2022-11-30_20h25.05.938,vts_reward_expectancy_bt,2022.2.4,Win32,59.53444067,Chrome,1368,912,,,,,10,874,,,,,,,,,,,,,,,,,125,F,triangle,1,0,,,,,,,,,,,,,,,,switch,letter,lettSwt,j,0.4656,Hi,,,,,,2,,,,,,,,high,30,0,30,0,1,,,,,,,,,
296527,2022-11-30_20h25.05.938,vts_reward_expectancy_bt,2022.2.4,Win32,59.53444067,Chrome,1368,912,,,,,10,884,,,,,,,,,,,,,,,,,174,Y,star,1,0,,,,,,,,,,,,,,,,repeat,letter,lettRpt,k,0.6986,Hi,,,,,,2,,,,,,,,high,31,0,31,0,1,,,,,,,,,
296527,2022-11-30_20h25.05.938,vts_reward_expectancy_bt,2022.2.4,Win32,59.53444067,Chrome,1368,912,,,,,10,894,,,,,,,,,,,,,,,,,181,Y,hexagon,1,0,,,,,,,,,,,,,,,,repeat,letter,lettRpt,k,0.701,Lo,,,,,,3,,,,,,space,1.2745,high,0,0,0,0,1,,,,,,,,,
296527,2022-11-30_20h25.05.938,vts_reward_expectancy_bt,2022.2.4,Win32,59.53444067,Chrome,1368,912,,,,,1,895,,,,,,,,,,,,,,,,,146,H,circle,1,0,,,,,,,,,,,,,,,,repeat,letter,lettRpt,j,0.5495,Lo,,,,,,3,,,,,,,,high,1,0,1,0,1,,,,,,,,,
296527,2022-11-30_20h25.05.938,vts_reward_expectancy_bt,2022.2.4,Win32,59.53444067,Chrome,1368,912,,,,,10,905,,,,,,,,,,,,,,,,,139,D,star,1,0,,,,,,,,,,,,,,,,repeat,letter,lettRpt,j,0.5643,Hi,,,,,,3,,,,,,,,high,2,0,2,0,1,,,,,,,,,
296527,2022-11-30_20h25.05.938,vts_reward_expectancy_bt,2022.2.4,Win32,59.53444067,Chrome,1368,912,,,,,0,905,,,,,,,,,,,,,,,,,160,B,triangle,1,0,,,,,,,,,,,,,,,,repeat,letter,lettRpt,j,0.6995,Hi,,,,,,3,,,,,,,,high,3,0,3,0,1,,,,,,,,,
296527,2022-11-30_20h25.05.938,vts_reward_expectancy_bt,2022.2.4,Win32,59.53444067,Chrome,1368,912,,,,,1,906,,,,,,,,,,,,,,,,,132,S,hexagon,1,0,,,,,,,,,,,,,,,,repeat,letter,lettRpt,k,0.4668,Lo,,,,,,3,,,,,,,,high,4,0,4,0,1,,,,,,,,,
296527,2022-11-30_20h25.05.938,vts_reward_expectancy_bt,2022.2.4,Win32,59.53444067,Chrome,1368,912,,,,,10,916,,,,,,,,,,,,,,,,,125,F,circle,1,0,,,,,,,,,,,,,,,,repeat,letter,lettRpt,j,0.632,Lo,,,,,,3,,,,,,,,high,5,0,5,0,1,,,,,,,,,
296527,2022-11-30_20h25.05.938,vts_reward_expectancy_bt,2022.2.4,Win32,59.53444067,Chrome,1368,912,,,,,10,926,,,,,,,,,,,,,,,,,174,W,star,1,0,,,,,,,,,,,,,,,,repeat,letter,lettRpt,k,0.6822,Hi,,,,,,3,,,,,,,,high,6,0,6,0,1,,,,,,,,,
296527,2022-11-30_20h25.05.938,vts_reward_expectancy_bt,2022.2.4,Win32,59.53444067,Chrome,1368,912,,,,,0,926,,,,,,,,,,,,,,,,,167,U,triangle,0,0,,,,,,,,,,,,,,,,repeat,letter,NA,j,0.9548,Hi,,,,,,3,,,,,,,,high,7,0,7,0,1,,,,,,,,,
296527,2022-11-30_20h25.05.938,vts_reward_expectancy_bt,2022.2.4,Win32,59.53444067,Chrome,1368,912,,,,,10,936,,,,,,,,,,,,,,,,,181,Y,star,1,1,,,,,,,,,,,,,,,,switch,number,numSwt,f,0.5485,Hi,,,,,,3,,,,,,,,high,8,0,8,0,1,,,,,,,,,
296527,2022-11-30_20h25.05.938,vts_reward_expectancy_bt,2022.2.4,Win32,59.53444067,Chrome,1368,912,,,,,1,937,,,,,,,,,,,,,,,,,146,H,hexagon,1,0,,,,,,,,,,,,,,,,switch,letter,lettSwt,j,0.5367,Lo,,,,,,3,,,,,,,,high,9,0,9,0,1,,,,,,,,,
296527,2022-11-30_20h25.05.938,vts_reward_expectancy_bt,2022.2.4,Win32,59.53444067,Chrome,1368,912,,,,,10,947,,,,,,,,,,,,,,,,,139,D,triangle,1,0,,,,,,,,,,,,,,,,repeat,letter,lettRpt,j,0.6498,Hi,,,,,,3,,,,,,,,high,10,0,10,0,1,,,,,,,,,
296527,2022-11-30_20h25.05.938,vts_reward_expectancy_bt,2022.2.4,Win32,59.53444067,Chrome,1368,912,,,,,10,957,,,,,,,,,,,,,,,,,160,B,circle,1,0,,,,,,,,,,,,,,,,switch,number,numSwt,f,0.5651,Lo,,,,,,3,,,,,,,,high,11,0,11,0,1,,,,,,,,,
296527,2022-11-30_20h25.05.938,vts_reward_expectancy_bt,2022.2.4,Win32,59.53444067,Chrome,1368,912,,,,,0,957,,,,,,,,,,,,,,,,,132,S,hexagon,0,0,,,,,,,,,,,,,,,,switch,letter,NA,j,0.7159,Lo,,,,,,3,,,,,,,,high,12,0,12,0,1,,,,,,,,,
296527,2022-11-30_20h25.05.938,vts_reward_expectancy_bt,2022.2.4,Win32,59.53444067,Chrome,1368,912,,,,,0,957,,,,,,,,,,,,,,,,,125,F,star,1,1,,,,,,,,,,,,,,,,repeat,letter,lettRpt,j,1.0154,Hi,,,,,,3,,,,,,,,high,13,0,13,0,1,,,,,,,,,
296527,2022-11-30_20h25.05.938,vts_reward_expectancy_bt,2022.2.4,Win32,59.53444067,Chrome,1368,912,,,,,10,967,,,,,,,,,,,,,,,,,174,W,triangle,1,0,,,,,,,,,,,,,,,,repeat,letter,lettRpt,k,0.5649,Hi,,,,,,3,,,,,,,,high,14,0,14,0,1,,,,,,,,,
296527,2022-11-30_20h25.05.938,vts_reward_expectancy_bt,2022.2.4,Win32,59.53444067,Chrome,1368,912,,,,,1,968,,,,,,,,,,,,,,,,,167,U,circle,1,0,,,,,,,,,,,,,,,,switch,number,numSwt,f,0.582,Lo,,,,,,3,,,,,,,,high,15,0,15,0,1,,,,,,,,,
296527,2022-11-30_20h25.05.938,vts_reward_expectancy_bt,2022.2.4,Win32,59.53444067,Chrome,1368,912,,,,,0,968,,,,,,,,,,,,,,,,,132,D,triangle,1,0,,,,,,,,,,,,,,,,switch,letter,lettSwt,j,0.5656,Hi,,,,,,3,,,,,,,,high,16,0,16,0,1,,,,,,,,,
296527,2022-11-30_20h25.05.938,vts_reward_expectancy_bt,2022.2.4,Win32,59.53444067,Chrome,1368,912,,,,,1,969,,,,,,,,,,,,,,,,,160,U,hexagon,1,0,,,,,,,,,,,,,,,,repeat,letter,lettRpt,k,0.7871,Lo,,,,,,3,,,,,,,,high,17,0,17,0,1,,,,,,,,,
296527,2022-11-30_20h25.05.938,vts_reward_expectancy_bt,2022.2.4,Win32,59.53444067,Chrome,1368,912,,,,,10,979,,,,,,,,,,,,,,,,,125,B,circle,1,0,,,,,,,,,,,,,,,,repeat,letter,lettRpt,j,0.5481,Lo,,,,,,3,,,,,,,,high,18,0,18,0,1,,,,,,,,,
296527,2022-11-30_20h25.05.938,vts_reward_expectancy_bt,2022.2.4,Win32,59.53444067,Chrome,1368,912,,,,,10,989,,,,,,,,,,,,,,,,,139,H,star,1,0,,,,,,,,,,,,,,,,repeat,letter,lettRpt,j,0.6525,Hi,,,,,,3,,,,,,,,high,19,0,19,0,1,,,,,,,,,
296527,2022-11-30_20h25.05.938,vts_reward_expectancy_bt,2022.2.4,Win32,59.53444067,Chrome,1368,912,,,,,1,990,,,,,,,,,,,,,,,,,174,S,circle,1,0,,,,,,,,,,,,,,,,repeat,letter,lettRpt,k,0.4656,Lo,,,,,,3,,,,,,,,high,20,0,20,0,1,,,,,,,,,
296527,2022-11-30_20h25.05.938,vts_reward_expectancy_bt,2022.2.4,Win32,59.53444067,Chrome,1368,912,,,,,1,991,,,,,,,,,,,,,,,,,146,F,hexagon,1,0,,,,,,,,,,,,,,,,switch,number,numSwt,d,0.6989,Lo,,,,,,3,,,,,,,,high,21,0,21,0,1,,,,,,,,,
296527,2022-11-30_20h25.05.938,vts_reward_expectancy_bt,2022.2.4,Win32,59.53444067,Chrome,1368,912,,,,,0,991,,,,,,,,,,,,,,,,,181,W,star,1,0,,,,,,,,,,,,,,,,switch,letter,lettSwt,k,0.6488,Hi,,,,,,3,,,,,,,,high,22,0,22,0,1,,,,,,,,,
296527,2022-11-30_20h25.05.938,vts_reward_expectancy_bt,2022.2.4,Win32,59.53444067,Chrome,1368,912,,,,,10,1001,,,,,,,,,,,,,,,,,167,Y,triangle,1,0,,,,,,,,,,,,,,,,switch,number,numSwt,f,0.538,Hi,,,,,,3,,,,,,,,high,23,0,23,0,1,,,,,,,,,
296527,2022-11-30_20h25.05.938,vts_reward_expectancy_bt,2022.2.4,Win32,59.53444067,Chrome,1368,912,,,,,1,1002,,,,,,,,,,,,,,,,,167,H,circle,1,0,,,,,,,,,,,,,,,,switch,letter,lettSwt,j,0.5507,Lo,,,,,,3,,,,,,,,high,24,0,24,0,1,,,,,,,,,
296527,2022-11-30_20h25.05.938,vts_reward_expectancy_bt,2022.2.4,Win32,59.53444067,Chrome,1368,912,,,,,1,1003,,,,,,,,,,,,,,,,,160,U,star,1,0,,,,,,,,,,,,,,,,repeat,letter,lettRpt,k,0.5839,Hi,,,,,,3,,,,,,,,high,25,0,25,0,1,,,,,,,,,
296527,2022-11-30_20h25.05.938,vts_reward_expectancy_bt,2022.2.4,Win32,59.53444067,Chrome,1368,912,,,,,10,1013,,,,,,,,,,,,,,,,,174,B,triangle,1,0,,,,,,,,,,,,,,,,repeat,letter,lettRpt,j,0.5517,Hi,,,,,,3,,,,,,,,high,26,0,26,0,1,,,,,,,,,
296527,2022-11-30_20h25.05.938,vts_reward_expectancy_bt,2022.2.4,Win32,59.53444067,Chrome,1368,912,,,,,0,1013,,,,,,,,,,,,,,,,,139,S,hexagon,0,0,,,,,,,,,,,,,,,,switch,number,NA,f,0.6488,Hi,,,,,,3,,,,,,,,high,27,0,27,0,1,,,,,,,,,
296527,2022-11-30_20h25.05.938,vts_reward_expectancy_bt,2022.2.4,Win32,59.53444067,Chrome,1368,912,,,,,0,1013,,,,,,,,,,,,,,,,,125,Y,star,1,1,,,,,,,,,,,,,,,,repeat,number,numRpt,d,0.7487,Hi,,,,,,3,,,,,,,,high,28,0,28,0,1,,,,,,,,,
296527,2022-11-30_20h25.05.938,vts_reward_expectancy_bt,2022.2.4,Win32,59.53444067,Chrome,1368,912,,,,,1,1014,,,,,,,,,,,,,,,,,181,D,hexagon,1,0,,,,,,,,,,,,,,,,repeat,number,numRpt,f,0.4321,Lo,,,,,,3,,,,,,,,high,29,0,29,0,1,,,,,,,,,
296527,2022-11-30_20h25.05.938,vts_reward_expectancy_bt,2022.2.4,Win32,59.53444067,Chrome,1368,912,,,,,0,1014,,,,,,,,,,,,,,,,,146,W,triangle,1,0,,,,,,,,,,,,,,,,repeat,number,numRpt,d,0.6655,Hi,,,,,,3,,,,,,,,high,30,0,30,0,1,,,,,,,,,
296527,2022-11-30_20h25.05.938,vts_reward_expectancy_bt,2022.2.4,Win32,59.53444067,Chrome,1368,912,,,,,1,1015,,,,,,,,,,,,,,,,,132,F,circle,1,0,,,,,,,,,,,,,,,,repeat,number,numRpt,d,0.7165,Lo,,,,,,3,,,,,,,,high,31,0,31,0,1,,,,,,,,,
296527,2022-11-30_20h25.05.938,vts_reward_expectancy_bt,2022.2.4,Win32,59.53444067,Chrome,1368,912,,,,,10,1025,,,,,,,,,,,,,,,,,132,Y,triangle,1,0,,,,,,,,,,,,,,,,repeat,number,numRpt,d,0.5666,Hi,,,,,,4,,,,,,space,67.2354,high,0,0,0,0,1,,,,,,,,,
296527,2022-11-30_20h25.05.938,vts_reward_expectancy_bt,2022.2.4,Win32,59.53444067,Chrome,1368,912,,,,,1,1026,,,,,,,,,,,,,,,,,174,F,star,1,0,,,,,,,,,,,,,,,,switch,letter,lettSwt,j,0.5152,Hi,,,,,,4,,,,,,,,high,1,0,1,0,1,,,,,,,,,
296527,2022-11-30_20h25.05.938,vts_reward_expectancy_bt,2022.2.4,Win32,59.53444067,Chrome,1368,912,,,,,1,1027,,,,,,,,,,,,,,,,,167,W,hexagon,1,0,,,,,,,,,,,,,,,,switch,number,numSwt,f,0.5334,Lo,,,,,,4,,,,,,,,high,2,0,2,0,1,,,,,,,,,
296527,2022-11-30_20h25.05.938,vts_reward_expectancy_bt,2022.2.4,Win32,59.53444067,Chrome,1368,912,,,,,1,1028,,,,,,,,,,,,,,,,,125,B,circle,1,0,,,,,,,,,,,,,,,,switch,letter,lettSwt,j,0.5503,Lo,,,,,,4,,,,,,,,high,3,0,3,0,1,,,,,,,,,
296527,2022-11-30_20h25.05.938,vts_reward_expectancy_bt,2022.2.4,Win32,59.53444067,Chrome,1368,912,,,,,10,1038,,,,,,,,,,,,,,,,,146,U,triangle,1,0,,,,,,,,,,,,,,,,repeat,letter,lettRpt,k,0.5015,Hi,,,,,,4,,,,,,,,high,4,0,4,0,1,,,,,,,,,
296527,2022-11-30_20h25.05.938,vts_reward_expectancy_bt,2022.2.4,Win32,59.53444067,Chrome,1368,912,,,,,0,1038,,,,,,,,,,,,,,,,,160,H,star,1,0,,,,,,,,,,,,,,,,repeat,letter,lettRpt,j,0.6481,Hi,,,,,,4,,,,,,,,high,5,0,5,0,1,,,,,,,,,
296527,2022-11-30_20h25.05.938,vts_reward_expectancy_bt,2022.2.4,Win32,59.53444067,Chrome,1368,912,,,,,1,1039,,,,,,,,,,,,,,,,,181,S,hexagon,1,0,,,,,,,,,,,,,,,,repeat,letter,lettRpt,k,0.9713,Lo,,,,,,4,,,,,,,,high,6,0,6,0,1,,,,,,,,,
296527,2022-11-30_20h25.05.938,vts_reward_expectancy_bt,2022.2.4,Win32,59.53444067,Chrome,1368,912,,,,,1,1040,,,,,,,,,,,,,,,,,139,D,circle,1,0,,,,,,,,,,,,,,,,switch,number,numSwt,d,0.7043,Lo,,,,,,4,,,,,,,,high,7,0,7,0,1,,,,,,,,,
296527,2022-11-30_20h25.05.938,vts_reward_expectancy_bt,2022.2.4,Win32,59.53444067,Chrome,1368,912,,,,,1,1041,,,,,,,,,,,,,,,,,132,Y,hexagon,1,0,,,,,,,,,,,,,,,,repeat,number,numRpt,d,0.6986,Lo,,,,,,4,,,,,,,,high,8,0,8,0,1,,,,,,,,,
296527,2022-11-30_20h25.05.938,vts_reward_expectancy_bt,2022.2.4,Win32,59.53444067,Chrome,1368,912,,,,,0,1041,,,,,,,,,,,,,,,,,174,F,triangle,1,0,,,,,,,,,,,,,,,,repeat,number,numRpt,f,0.7847,Hi,,,,,,4,,,,,,,,high,9,0,9,0,1,,,,,,,,,
296527,2022-11-30_20h25.05.938,vts_reward_expectancy_bt,2022.2.4,Win32,59.53444067,Chrome,1368,912,,,,,1,1042,,,,,,,,,,,,,,,,,167,W,circle,1,0,,,,,,,,,,,,,,,,repeat,number,numRpt,f,0.647,Lo,,,,,,4,,,,,,,,high,10,0,10,0,1,,,,,,,,,
296527,2022-11-30_20h25.05.938,vts_reward_expectancy_bt,2022.2.4,Win32,59.53444067,Chrome,1368,912,,,,,0,1042,,,,,,,,,,,,,,,,,125,B,star,1,0,,,,,,,,,,,,,,,,repeat,number,numRpt,d,0.6656,Hi,,,,,,4,,,,,,,,high,11,0,11,0,1,,,,,,,,,
296527,2022-11-30_20h25.05.938,vts_reward_expectancy_bt,2022.2.4,Win32,59.53444067,Chrome,1368,912,,,,,0,1042,,,,,,,,,,,,,,,,,146,U,star,1,0,,,,,,,,,,,,,,,,switch,letter,lettSwt,k,0.7325,Hi,,,,,,4,,,,,,,,high,12,0,12,0,1,,,,,,,,,
296527,2022-11-30_20h25.05.938,vts_reward_expectancy_bt,2022.2.4,Win32,59.53444067,Chrome,1368,912,,,,,10,1052,,,,,,,,,,,,,,,,,160,H,hexagon,1,0,,,,,,,,,,,,,,,,repeat,letter,lettRpt,j,0.4989,Lo,,,,,,4,,,,,,,,high,13,0,13,0,1,,,,,,,,,
296527,2022-11-30_20h25.05.938,vts_reward_expectancy_bt,2022.2.4,Win32,59.53444067,Chrome,1368,912,,,,,10,1062,,,,,,,,,,,,,,,,,181,S,triangle,1,0,,,,,,,,,,,,,,,,repeat,letter,lettRpt,k,0.4988,Hi,,,,,,4,,,,,,,,high,14,0,14,0,1,,,,,,,,,
296527,2022-11-30_20h25.05.938,vts_reward_expectancy_bt,2022.2.4,Win32,59.53444067,Chrome,1368,912,,,,,1,1063,,,,,,,,,,,,,,,,,139,D,circle,1,0,,,,,,,,,,,,,,,,repeat,letter,lettRpt,j,0.5018,Lo,,,,,,4,,,,,,,,high,15,0,15,0,1,,,,,,,,,
296527,2022-11-30_20h25.05.938,vts_reward_expectancy_bt,2022.2.4,Win32,59.53444067,Chrome,1368,912,,,,,10,1073,,,,,,,,,,,,,,,,,132,B,circle,1,0,,,,,,,,,,,,,,,,switch,number,numSwt,d,0.4821,Lo,,,,,,4,,,,,,,,high,16,0,16,0,1,,,,,,,,,
296527,2022-11-30_20h25.05.938,vts_reward_expectancy_bt,2022.2.4,Win32,59.53444067,Chrome,1368,912,,,,,1,1074,,,,,,,,,,,,,,,,,174,Y,triangle,1,0,,,,,,,,,,,,,,,,switch,letter,lettSwt,k,0.5488,Hi,,,,,,4,,,,,,,,high,17,0,17,0,1,,,,,,,,,
296527,2022-11-30_20h25.05.938,vts_reward_expectancy_bt,2022.2.4,Win32,59.53444067,Chrome,1368,912,,,,,10,1084,,,,,,,,,,,,,,,,,181,H,star,1,0,,,,,,,,,,,,,,,,repeat,letter,lettRpt,j,0.5187,Hi,,,,,,4,,,,,,,,high,18,0,18,0,1,,,,,,,,,
296527,2022-11-30_20h25.05.938,vts_reward_expectancy_bt,2022.2.4,Win32,59.53444067,Chrome,1368,912,,,,,0,1084,,,,,,,,,,,,,,,,,160,W,hexagon,0,0,,,,,,,,,,,,,,,,switch,number,NA,d,0.5984,Hi,,,,,,4,,,,,,,,high,19,0,19,0,1,,,,,,,,,
296527,2022-11-30_20h25.05.938,vts_reward_expectancy_bt,2022.2.4,Win32,59.53444067,Chrome,1368,912,,,,,0,1084,,,,,,,,,,,,,,,,,139,D,triangle,1,1,,,,,,,,,,,,,,,,repeat,number,numRpt,d,0.6648,Hi,,,,,,4,,,,,,,,high,20,0,20,0,1,,,,,,,,,
296527,2022-11-30_20h25.05.938,vts_reward_expectancy_bt,2022.2.4,Win32,59.53444067,Chrome,1368,912,,,,,10,1094,,,,,,,,,,,,,,,,,125,F,star,1,0,,,,,,,,,,,,,,,,repeat,number,numRpt,d,0.486,Hi,,,,,,4,,,,,,,,high,21,0,21,0,1,,,,,,,,,
296527,2022-11-30_20h25.05.938,vts_reward_expectancy_bt,2022.2.4,Win32,59.53444067,Chrome,1368,912,,,,,0,1094,,,,,,,,,,,,,,,,,146,S,hexagon,0,0,,,,,,,,,,,,,,,,repeat,number,NA,f,0.584,Hi,,,,,,4,,,,,,,,high,22,0,22,0,1,,,,,,,,,
296527,2022-11-30_20h25.05.938,vts_reward_expectancy_bt,2022.2.4,Win32,59.53444067,Chrome,1368,912,,,,,1,1095,,,,,,,,,,,,,,,,,167,U,circle,1,1,,,,,,,,,,,,,,,,repeat,number,numRpt,f,0.5325,Lo,,,,,,4,,,,,,,,high,23,0,23,0,1,,,,,,,,,
296527,2022-11-30_20h25.05.938,vts_reward_expectancy_bt,2022.2.4,Win32,59.53444067,Chrome,1368,912,,,,,1,1096,,,,,,,,,,,,,,,,,139,B,circle,1,0,,,,,,,,,,,,,,,,switch,letter,lettSwt,j,0.4651,Lo,,,,,,4,,,,,,,,high,24,0,24,0,1,,,,,,,,,
296527,2022-11-30_20h25.05.938,vts_reward_expectancy_bt,2022.2.4,Win32,59.53444067,Chrome,1368,912,,,,,1,1097,,,,,,,,,,,,,,,,,160,W,star,1,0,,,,,,,,,,,,,,,,repeat,letter,lettRpt,k,0.4149,Hi,,,,,,4,,,,,,,,high,25,0,25,0,1,,,,,,,,,
296527,2022-11-30_20h25.05.938,vts_reward_expectancy_bt,2022.2.4,Win32,59.53444067,Chrome,1368,912,,,,,10,1107,,,,,,,,,,,,,,,,,167,S,triangle,1,0,,,,,,,,,,,,,,,,repeat,letter,lettRpt,k,0.4821,Hi,,,,,,4,,,,,,,,high,26,0,26,0,1,,,,,,,,,
296527,2022-11-30_20h25.05.938,vts_reward_expectancy_bt,2022.2.4,Win32,59.53444067,Chrome,1368,912,,,,,1,1108,,,,,,,,,,,,,,,,,174,D,hexagon,1,0,,,,,,,,,,,,,,,,switch,number,numSwt,f,0.6214,Lo,,,,,,4,,,,,,,,high,27,0,27,0,1,,,,,,,,,
296527,2022-11-30_20h25.05.938,vts_reward_expectancy_bt,2022.2.4,Win32,59.53444067,Chrome,1368,912,,,,,10,1118,,,,,,,,,,,,,,,,,181,Y,hexagon,1,0,,,,,,,,,,,,,,,,repeat,number,numRpt,f,0.7048,Lo,,,,,,4,,,,,,,,high,28,0,28,0,1,,,,,,,,,
296527,2022-11-30_20h25.05.938,vts_reward_expectancy_bt,2022.2.4,Win32,59.53444067,Chrome,1368,912,,,,,0,1118,,,,,,,,,,,,,,,,,146,U,triangle,0,0,,,,,,,,,,,,,,,,switch,letter,NA,j,0.732,Lo,,,,,,4,,,,,,,,high,29,0,29,0,1,,,,,,,,,
296527,2022-11-30_20h25.05.938,vts_reward_expectancy_bt,2022.2.4,Win32,59.53444067,Chrome,1368,912,,,,,0,1118,,,,,,,,,,,,,,,,,125,F,star,1,1,,,,,,,,,,,,,,,,repeat,letter,lettRpt,j,0.7821,Hi,,,,,,4,,,,,,,,high,30,0,30,0,1,,,,,,,,,
296527,2022-11-30_20h25.05.938,vts_reward_expectancy_bt,2022.2.4,Win32,59.53444067,Chrome,1368,912,,,,,10,1128,,,,,,,,,,,,,,,,,132,H,circle,1,0,,,,,,,,,,,,,,,,repeat,letter,lettRpt,j,0.6658,Lo,,,,,,4,,,,,,,,high,31,0,31,0,1,,,,,,,,,
296527,2022-11-30_20h25.05.938,vts_reward_expectancy_bt,2022.2.4,Win32,59.53444067,Chrome,1368,912,,,,,1,1129,,,,,,,,,,,,,,,,,160,H,hexagon,1,0,,,,,,,,,,,,,,,,switch,number,numSwt,f,0.4514,Lo,,,,,,5,,,,,,space,0.842,high,0,0,0,0,1,,,,,,,,,
296527,2022-11-30_20h25.05.938,vts_reward_expectancy_bt,2022.2.4,Win32,59.53444067,Chrome,1368,912,,,,,1,1130,,,,,,,,,,,,,,,,,146,U,circle,1,0,,,,,,,,,,,,,,,,switch,letter,lettSwt,k,0.7368,Lo,,,,,,5,,,,,,,,high,1,0,1,0,1,,,,,,,,,
296527,2022-11-30_20h25.05.938,vts_reward_expectancy_bt,2022.2.4,Win32,59.53444067,Chrome,1368,912,,,,,0,1130,,,,,,,,,,,,,,,,,174,D,star,1,0,,,,,,,,,,,,,,,,repeat,letter,lettRpt,j,0.602,Hi,,,,,,5,,,,,,,,high,2,0,2,0,1,,,,,,,,,
296527,2022-11-30_20h25.05.938,vts_reward_expectancy_bt,2022.2.4,Win32,59.53444067,Chrome,1368,912,,,,,10,1140,,,,,,,,,,,,,,,,,125,B,triangle,1,0,,,,,,,,,,,,,,,,repeat,letter,lettRpt,j,0.4727,Hi,,,,,,5,,,,,,,,high,3,0,3,0,1,,,,,,,,,
296527,2022-11-30_20h25.05.938,vts_reward_expectancy_bt,2022.2.4,Win32,59.53444067,Chrome,1368,912,,,,,1,1141,,,,,,,,,,,,,,,,,181,Y,hexagon,1,0,,,,,,,,,,,,,,,,repeat,letter,lettRpt,k,0.5117,Lo,,,,,,5,,,,,,,,high,4,0,4,0,1,,,,,,,,,
296527,2022-11-30_20h25.05.938,vts_reward_expectancy_bt,2022.2.4,Win32,59.53444067,Chrome,1368,912,,,,,1,1142,,,,,,,,,,,,,,,,,167,F,circle,1,0,,,,,,,,,,,,,,,,switch,number,numSwt,f,0.5475,Lo,,,,,,5,,,,,,,,high,5,0,5,0,1,,,,,,,,,
296527,2022-11-30_20h25.05.938,vts_reward_expectancy_bt,2022.2.4,Win32,59.53444067,Chrome,1368,912,,,,,0,1142,,,,,,,,,,,,,,,,,132,W,star,1,0,,,,,,,,,,,,,,,,repeat,number,numRpt,d,0.6208,Hi,,,,,,5,,,,,,,,high,6,0,6,0,1,,,,,,,,,
296527,2022-11-30_20h25.05.938,vts_reward_expectancy_bt,2022.2.4,Win32,59.53444067,Chrome,1368,912,,,,,0,1142,,,,,,,,,,,,,,,,,139,S,triangle,0,0,,,,,,,,,,,,,,,,switch,letter,NA,j,0.6304,Hi,,,,,,5,,,,,,,,high,7,0,7,0,1,,,,,,,,,
296527,2022-11-30_20h25.05.938,vts_reward_expectancy_bt,2022.2.4,Win32,59.53444067,Chrome,1368,912,,,,,1,1143,,,,,,,,,,,,,,,,,160,H,circle,1,1,,,,,,,,,,,,,,,,repeat,letter,lettRpt,j,0.7327,Lo,,,,,,5,,,,,,,,high,8,0,8,0,1,,,,,,,,,
296527,2022-11-30_20h25.05.938,vts_reward_expectancy_bt,2022.2.4,Win32,59.53444067,Chrome,1368,912,,,,,10,1153,,,,,,,,,,,,,,,,,146,U,triangle,1,0,,,,,,,,,,,,,,,,repeat,letter,lettRpt,k,0.4649,Hi,,,,,,5,,,,,,,,high,9,0,9,0,1,,,,,,,,,
296527,2022-11-30_20h25.05.938,vts_reward_expectancy_bt,2022.2.4,Win32,59.53444067,Chrome,1368,912,,,,,10,1163,,,,,,,,,,,,,,,,,174,D,hexagon,1,0,,,,,,,,,,,,,,,,repeat,letter,lettRpt,j,0.5703,Lo,,,,,,5,,,,,,,,high,10,0,10,0,1,,,,,,,,,
296527,2022-11-30_20h25.05.938,vts_reward_expectancy_bt,2022.2.4,Win32,59.53444067,Chrome,1368,912,,,,,0,1163,,,,,,,,,,,,,,,,,125,B,star,1,0,,,,,,,,,,,,,,,,repeat,letter,lettRpt,j,0.6312,Hi,,,,,,5,,,,,,,,high,11,0,11,0,1,,,,,,,,,
296527,2022-11-30_20h25.05.938,vts_reward_expectancy_bt,2022.2.4,Win32,59.53444067,Chrome,1368,912,,,,,0,1163,,,,,,,,,,,,,,,,,181,Y,star,1,0,,,,,,,,,,,,,,,,repeat,letter,lettRpt,k,0.8003,Hi,,,,,,5,,,,,,,,high,12,0,12,0,1,,,,,,,,,
296527,2022-11-30_20h25.05.938,vts_reward_expectancy_bt,2022.2.4,Win32,59.53444067,Chrome,1368,912,,,,,0,1163,,,,,,,,,,,,,,,,,167,F,circle,0,0,,,,,,,,,,,,,,,,repeat,letter,NA,k,0.5646,Hi,,,,,,5,,,,,,,,high,13,0,13,0,1,,,,,,,,,
296527,2022-11-30_20h25.05.938,vts_reward_expectancy_bt,2022.2.4,Win32,59.53444067,Chrome,1368,912,,,,,10,1173,,,,,,,,,,,,,,,,,132,W,hexagon,1,1,,,,,,,,,,,,,,,,repeat,letter,lettRpt,k,0.8489,Lo,,,,,,5,,,,,,,,high,14,0,14,0,1,,,,,,,,,
296527,2022-11-30_20h25.05.938,vts_reward_expectancy_bt,2022.2.4,Win32,59.53444067,Chrome,1368,912,,,,,0,1173,,,,,,,,,,,,,,,,,139,S,triangle,0,0,,,,,,,,,,,,,,,,switch,number,NA,f,0.5995,Lo,,,,,,5,,,,,,,,high,15,0,15,0,1,,,,,,,,,
296527,2022-11-30_20h25.05.938,vts_reward_expectancy_bt,2022.2.4,Win32,59.53444067,Chrome,1368,912,,,,,10,1183,,,,,,,,,,,,,,,,,167,D,circle,1,1,,,,,,,,,,,,,,,,repeat,number,numRpt,f,0.5147,Lo,,,,,,5,,,,,,,,high,16,0,16,0,1,,,,,,,,,
296527,2022-11-30_20h25.05.938,vts_reward_expectancy_bt,2022.2.4,Win32,59.53444067,Chrome,1368,912,,,,,0,1183,,,,,,,,,,,,,,,,,174,H,triangle,1,0,,,,,,,,,,,,,,,,switch,letter,lettSwt,j,0.8157,Hi,,,,,,5,,,,,,,,high,17,0,17,0,1,,,,,,,,,
296527,2022-11-30_20h25.05.938,vts_reward_expectancy_bt,2022.2.4,Win32,59.53444067,Chrome,1368,912,,,,,10,1193,,,,,,,,,,,,,,,,,125,Y,star,1,0,,,,,,,,,,,,,,,,repeat,letter,lettRpt,k,0.4725,Hi,,,,,,5,,,,,,,,high,18,0,18,0,1,,,,,,,,,
296527,2022-11-30_20h25.05.938,vts_reward_expectancy_bt,2022.2.4,Win32,59.53444067,Chrome,1368,912,,,,,10,1203,,,,,,,,,,,,,,,,,160,B,hexagon,1,0,,,,,,,,,,,,,,,,switch,number,numSwt,f,0.6048,Lo,,,,,,5,,,,,,,,high,19,0,19,0,1,,,,,,,,,
296527,2022-11-30_20h25.05.938,vts_reward_expectancy_bt,2022.2.4,Win32,59.53444067,Chrome,1368,912,,,,,1,1204,,,,,,,,,,,,,,,,,181,S,star,1,0,,,,,,,,,,,,,,,,repeat,number,numRpt,f,0.5313,Hi,,,,,,5,,,,,,,,high,20,0,20,0,1,,,,,,,,,
296527,2022-11-30_20h25.05.938,vts_reward_expectancy_bt,2022.2.4,Win32,59.53444067,Chrome,1368,912,,,,,0,1204,,,,,,,,,,,,,,,,,139,U,triangle,1,0,,,,,,,,,,,,,,,,switch,letter,lettSwt,k,0.603,Hi,,,,,,5,,,,,,,,high,21,0,21,0,1,,,,,,,,,
296527,2022-11-30_20h25.05.938,vts_reward_expectancy_bt,2022.2.4,Win32,59.53444067,Chrome,1368,912,,,,,1,1205,,,,,,,,,,,,,,,,,132,W,hexagon,1,0,,,,,,,,,,,,,,,,repeat,letter,lettRpt,k,0.4519,Lo,,,,,,5,,,,,,,,high,22,0,22,0,1,,,,,,,,,
296527,2022-11-30_20h25.05.938,vts_reward_expectancy_bt,2022.2.4,Win32,59.53444067,Chrome,1368,912,,,,,1,1206,,,,,,,,,,,,,,,,,146,F,circle,1,0,,,,,,,,,,,,,,,,switch,number,numSwt,d,0.599,Lo,,,,,,5,,,,,,,,high,23,0,23,0,1,,,,,,,,,
296527,2022-11-30_20h25.05.938,vts_reward_expectancy_bt,2022.2.4,Win32,59.53444067,Chrome,1368,912,,,,,1,1207,,,,,,,,,,,,,,,,,174,D,circle,1,0,,,,,,,,,,,,,,,,switch,letter,lettSwt,j,0.6157,Lo,,,,,,5,,,,,,,,high,24,0,24,0,1,,,,,,,,,
296527,2022-11-30_20h25.05.938,vts_reward_expectancy_bt,2022.2.4,Win32,59.53444067,Chrome,1368,912,,,,,0,1207,,,,,,,,,,,,,,,,,181,U,star,0,0,,,,,,,,,,,,,,,,repeat,letter,NA,j,0.5562,Lo,,,,,,5,,,,,,,,high,25,0,25,0,1,,,,,,,,,
296527,2022-11-30_20h25.05.938,vts_reward_expectancy_bt,2022.2.4,Win32,59.53444067,Chrome,1368,912,,,,,10,1217,,,,,,,,,,,,,,,,,160,W,triangle,1,1,,,,,,,,,,,,,,,,switch,number,numSwt,f,0.5158,Hi,,,,,,5,,,,,,,,high,26,0,26,0,1,,,,,,,,,
296527,2022-11-30_20h25.05.938,vts_reward_expectancy_bt,2022.2.4,Win32,59.53444067,Chrome,1368,912,,,,,1,1218,,,,,,,,,,,,,,,,,139,F,hexagon,1,0,,,,,,,,,,,,,,,,switch,letter,lettSwt,j,0.7205,Lo,,,,,,5,,,,,,,,high,27,0,27,0,1,,,,,,,,,
296527,2022-11-30_20h25.05.938,vts_reward_expectancy_bt,2022.2.4,Win32,59.53444067,Chrome,1368,912,,,,,0,1218,,,,,,,,,,,,,,,,,132,Y,star,1,0,,,,,,,,,,,,,,,,repeat,letter,lettRpt,k,0.598,Hi,,,,,,5,,,,,,,,high,28,0,28,0,1,,,,,,,,,
296527,2022-11-30_20h25.05.938,vts_reward_expectancy_bt,2022.2.4,Win32,59.53444067,Chrome,1368,912,,,,,1,1219,,,,,,,,,,,,,,,,,167,H,circle,1,0,,,,,,,,,,,,,,,,repeat,letter,lettRpt,j,0.5147,Lo,,,,,,5,,,,,,,,high,29,0,29,0,1,,,,,,,,,
296527,2022-11-30_20h25.05.938,vts_reward_expectancy_bt,2022.2.4,Win32,59.53444067,Chrome,1368,912,,,,,0,1219,,,,,,,,,,,,,,,,,146,B,triangle,1,0,,,,,,,,,,,,,,,,switch,number,numSwt,d,0.6149,Hi,,,,,,5,,,,,,,,high,30,0,30,0,1,,,,,,,,,
296527,2022-11-30_20h25.05.938,vts_reward_expectancy_bt,2022.2.4,Win32,59.53444067,Chrome,1368,912,,,,,1,1220,,,,,,,,,,,,,,,,,125,S,hexagon,1,0,,,,,,,,,,,,,,,,repeat,number,numRpt,d,0.5651,Lo,,,,,,5,,,,,,,,high,31,0,31,0,1,,,,,,,,,
296527,2022-11-30_20h25.05.938,vts_reward_expectancy_bt,2022.2.4,Win32,59.53444067,Chrome,1368,912,,,,,0,1220,,,,,,,,,,,,,,,,,146,D,triangle,0,0,,,,,,,,,,,,,,,,repeat,number,NA,f,0.6181,Lo,,,,,,6,,,,,,space,1.1515,high,0,0,0,0,1,,,,,,,,,
296527,2022-11-30_20h25.05.938,vts_reward_expectancy_bt,2022.2.4,Win32,59.53444067,Chrome,1368,912,,,,,0,1220,,,,,,,,,,,,,,,,,132,W,star,1,1,,,,,,,,,,,,,,,,repeat,number,numRpt,d,0.6309,Hi,,,,,,6,,,,,,,,high,1,0,1,0,1,,,,,,,,,
296527,2022-11-30_20h25.05.938,vts_reward_expectancy_bt,2022.2.4,Win32,59.53444067,Chrome,1368,912,,,,,10,1230,,,,,,,,,,,,,,,,,174,S,hexagon,1,0,,,,,,,,,,,,,,,,switch,letter,lettSwt,k,0.6885,Lo,,,,,,6,,,,,,,,high,2,0,2,0,1,,,,,,,,,
296527,2022-11-30_20h25.05.938,vts_reward_expectancy_bt,2022.2.4,Win32,59.53444067,Chrome,1368,912,,,,,1,1231,,,,,,,,,,,,,,,,,139,F,circle,1,0,,,,,,,,,,,,,,,,repeat,letter,lettRpt,j,0.5853,Lo,,,,,,6,,,,,,,,high,3,0,3,0,1,,,,,,,,,
296527,2022-11-30_20h25.05.938,vts_reward_expectancy_bt,2022.2.4,Win32,59.53444067,Chrome,1368,912,,,,,1,1232,,,,,,,,,,,,,,,,,167,U,triangle,1,0,,,,,,,,,,,,,,,,switch,number,numSwt,f,0.4157,Hi,,,,,,6,,,,,,,,high,4,0,4,0,1,,,,,,,,,
296527,2022-11-30_20h25.05.938,vts_reward_expectancy_bt,2022.2.4,Win32,59.53444067,Chrome,1368,912,,,,,0,1232,,,,,,,,,,,,,,,,,160,Y,star,1,0,,,,,,,,,,,,,,,,repeat,number,numRpt,f,0.7357,Hi,,,,,,6,,,,,,,,high,5,0,5,0,1,,,,,,,,,
296527,2022-11-30_20h25.05.938,vts_reward_expectancy_bt,2022.2.4,Win32,59.53444067,Chrome,1368,912,,,,,10,1242,,,,,,,,,,,,,,,,,181,B,hexagon,1,0,,,,,,,,,,,,,,,,repeat,number,numRpt,f,0.5515,Lo,,,,,,6,,,,,,,,high,6,0,6,0,1,,,,,,,,,
296527,2022-11-30_20h25.05.938,vts_reward_expectancy_bt,2022.2.4,Win32,59.53444067,Chrome,1368,912,,,,,1,1243,,,,,,,,,,,,,,,,,125,H,circle,1,0,,,,,,,,,,,,,,,,switch,letter,lettSwt,j,0.7997,Lo,,,,,,6,,,,,,,,high,7,0,7,0,1,,,,,,,,,
296527,2022-11-30_20h25.05.938,vts_reward_expectancy_bt,2022.2.4,Win32,59.53444067,Chrome,1368,912,,,,,0,1243,,,,,,,,,,,,,,,,,146,D,star,1,0,,,,,,,,,,,,,,,,repeat,letter,lettRpt,j,0.5528,Hi,,,,,,6,,,,,,,,high,8,0,8,0,1,,,,,,,,,
296527,2022-11-30_20h25.05.938,vts_reward_expectancy_bt,2022.2.4,Win32,59.53444067,Chrome,1368,912,,,,,0,1243,,,,,,,,,,,,,,,,,132,W,triangle,1,0,,,,,,,,,,,,,,,,repeat,letter,lettRpt,k,0.5321,Hi,,,,,,6,,,,,,,,high,9,0,9,0,1,,,,,,,,,
296527,2022-11-30_20h25.05.938,vts_reward_expectancy_bt,2022.2.4,Win32,59.53444067,Chrome,1368,912,,,,,0,1243,,,,,,,,,,,,,,,,,174,S,hexagon,0,0,,,,,,,,,,,,,,,,repeat,letter,NA,j,0.6319,Hi,,,,,,6,,,,,,,,high,10,0,10,0,1,,,,,,,,,
296527,2022-11-30_20h25.05.938,vts_reward_expectancy_bt,2022.2.4,Win32,59.53444067,Chrome,1368,912,,,,,0,1243,,,,,,,,,,,,,,,,,139,F,circle,0,1,,,,,,,,,,,,,,,,repeat,letter,NA,k,0.6148,Hi,,,,,,6,,,,,,,,high,11,0,11,0,1,,,,,,,,,
296527,2022-11-30_20h25.05.938,vts_reward_expectancy_bt,2022.2.4,Win32,59.53444067,Chrome,1368,912,,,,,0,1243,,,,,,,,,,,,,,,,,167,U,star,0,1,,,,,,,,,,,,,,,,repeat,letter,NA,j,0.6653,Hi,,,,,,6,,,,,,,,high,12,0,12,0,1,,,,,,,,,
296527,2022-11-30_20h25.05.938,vts_reward_expectancy_bt,2022.2.4,Win32,59.53444067,Chrome,1368,912,,,,,1,1244,,,,,,,,,,,,,,,,,160,Y,circle,1,1,,,,,,,,,,,,,,,,repeat,letter,lettRpt,k,0.5649,Lo,,,,,,6,,,,,,,,high,13,0,13,0,1,,,,,,,,,
296527,2022-11-30_20h25.05.938,vts_reward_expectancy_bt,2022.2.4,Win32,59.53444067,Chrome,1368,912,,,,,10,1254,,,,,,,,,,,,,,,,,181,B,triangle,1,0,,,,,,,,,,,,,,,,switch,number,numSwt,f,0.4653,Hi,,,,,,6,,,,,,,,high,14,0,14,0,1,,,,,,,,,
296527,2022-11-30_20h25.05.938,vts_reward_expectancy_bt,2022.2.4,Win32,59.53444067,Chrome,1368,912,,,,,1,1255,,,,,,,,,,,,,,,,,125,H,hexagon,1,0,,,,,,,,,,,,,,,,repeat,number,numRpt,d,0.5207,Lo,,,,,,6,,,,,,,,high,15,0,15,0,1,,,,,,,,,
