participant,date,expName,psychopyVersion,OS,frameRate,browser,xResolution,yResolution,key_resp.keys,key_resp.rt,training_resp.keys,training_resp.rt,points_trial,points_cumul,trainBlock,training.thisRepN,training.thisTrialN,training.thisN,training.thisIndex,training.ran,LTriangleOpac,LCircleOpac,LHexagonOpac,LStarOpac,RTriangleOpac,RCircleOpac,RHexagonOpac,RStarOpac,LShape_ID,RShape_ID,curr_topStim,curr_bottStim,curr_shape,acc,E1,target_resp_prac1.keys,pracBlock,task1_prac_trials.thisRepN,task1_prac_trials.thisTrialN,task1_prac_trials.thisN,task1_prac_trials.thisIndex,task1_prac_trials.ran,target_resp_prac1.rt,target_resp_prac2.keys,target_resp_prac2.rt,task2_praac_trials.thisRepN,task2_praac_trials.thisTrialN,task2_praac_trials.thisN,task2_praac_trials.thisIndex,task2_praac_trials.ran,alt,task,condition,target_resp.keys,target_resp.rt,rewCond,vts_practice_trials.thisRepN,vts_practice_trials.thisTrialN,vts_practice_trials.thisN,vts_practice_trials.thisIndex,vts_practice_trials.ran,blockNum,trials_norew.thisRepN,trials_norew.thisTrialN,trials_norew.thisN,trials_norew.thisIndex,trials_norew.ran,key_resp_2.keys,key_resp_2.rt,rewExpectancy,trials_rew.thisRepN,trials_rew.thisTrialN,trials_rew.thisN,trials_rew.thisIndex,trials_rew.ran,Q1,Q2,Q2_text,Q3,Q4,Q5_text,Q5,xRes,yRes
296593,2022-11-27_17h47.10.734,vts_reward_expectancy_bt,2022.2.4,MacIntel,62.5,Safari,1440,900,,,,,,,,,,,,,,,,,,,,,,,,,,,,,,,,,,,,,,,,,,,,,,,,,,,,,,,,,,,,,,,,,,,,,,,,,,,,
296593,2022-11-27_17h47.10.734,vts_reward_expectancy_bt,2022.2.4,MacIntel,62.5,Safari,1440,900,space,26.097,,,,,,,,,,,,,,,,,,,,,,,,,,,,,,,,,,,,,,,,,,,,,,,,,,,,,,,,,,,,,,,,,,,,,,,,,,
296593,2022-11-27_17h47.10.734,vts_reward_expectancy_bt,2022.2.4,MacIntel,62.5,Safari,1440,900,,,,,,,,,,,,,,,,,,,,,,,,,,,,,,,,,,,,,,,,,,,,,,,,,,,,,,,,,,,,,,,,,,,,,,,,,,,,
296593,2022-11-27_17h47.10.734,vts_reward_expectancy_bt,2022.2.4,MacIntel,62.5,Safari,1440,900,,,a,2.15,1,1,0,0,0,0,7,1,0,0,1,0,0,1,0,0,hexagon,circle,,,,,,,,,,,,,,,,,,,,,,,,,,,,,,,,,,,,,,,,,,,,,,,,,,,,,,
296593,2022-11-27_17h47.10.734,vts_reward_expectancy_bt,2022.2.4,MacIntel,62.5,Safari,1440,900,,,l,1.663,1,2,0,0,1,1,11,1,0,0,0,1,0,0,1,0,star,hexagon,,,,,,,,,,,,,,,,,,,,,,,,,,,,,,,,,,,,,,,,,,,,,,,,,,,,,,
296593,2022-11-27_17h47.10.734,vts_reward_expectancy_bt,2022.2.4,MacIntel,62.5,Safari,1440,900,,,a,2.4,10,12,0,0,2,2,1,1,1,0,0,0,0,0,1,0,triangle,hexagon,,,,,,,,,,,,,,,,,,,,,,,,,,,,,,,,,,,,,,,,,,,,,,,,,,,,,,
296593,2022-11-27_17h47.10.734,vts_reward_expectancy_bt,2022.2.4,MacIntel,62.5,Safari,1440,900,,,l,2.832,10,22,0,0,3,3,5,1,0,1,0,0,0,0,0,1,circle,star,,,,,,,,,,,,,,,,,,,,,,,,,,,,,,,,,,,,,,,,,,,,,,,,,,,,,,
296593,2022-11-27_17h47.10.734,vts_reward_expectancy_bt,2022.2.4,MacIntel,62.5,Safari,1440,900,,,a,2.198,10,32,0,0,4,4,10,1,0,0,0,1,0,1,0,0,star ,circle,,,,,,,,,,,,,,,,,,,,,,,,,,,,,,,,,,,,,,,,,,,,,,,,,,,,,,
296593,2022-11-27_17h47.10.734,vts_reward_expectancy_bt,2022.2.4,MacIntel,62.5,Safari,1440,900,,,a,1.8,10,42,0,0,5,5,2,1,1,0,0,0,0,0,0,1,triangle,star,,,,,,,,,,,,,,,,,,,,,,,,,,,,,,,,,,,,,,,,,,,,,,,,,,,,,,
296593,2022-11-27_17h47.10.734,vts_reward_expectancy_bt,2022.2.4,MacIntel,62.5,Safari,1440,900,,,l,2.232,10,52,0,0,6,6,9,1,0,0,0,1,1,0,0,0,star,triangle,,,,,,,,,,,,,,,,,,,,,,,,,,,,,,,,,,,,,,,,,,,,,,,,,,,,,,
296593,2022-11-27_17h47.10.734,vts_reward_expectancy_bt,2022.2.4,MacIntel,62.5,Safari,1440,900,,,l,2.646,1,53,0,0,7,7,0,1,1,0,0,0,0,1,0,0,triangle,circle,,,,,,,,,,,,,,,,,,,,,,,,,,,,,,,,,,,,,,,,,,,,,,,,,,,,,,
296593,2022-11-27_17h47.10.734,vts_reward_expectancy_bt,2022.2.4,MacIntel,62.5,Safari,1440,900,,,l,1.69,10,63,0,0,8,8,6,1,0,0,1,0,1,0,0,0,hexagon,triangle,,,,,,,,,,,,,,,,,,,,,,,,,,,,,,,,,,,,,,,,,,,,,,,,,,,,,,
296593,2022-11-27_17h47.10.734,vts_reward_expectancy_bt,2022.2.4,MacIntel,62.5,Safari,1440,900,,,l,1.45,1,64,0,0,9,9,8,1,0,0,1,0,0,0,0,1,hexagon,star,,,,,,,,,,,,,,,,,,,,,,,,,,,,,,,,,,,,,,,,,,,,,,,,,,,,,,
296593,2022-11-27_17h47.10.734,vts_reward_expectancy_bt,2022.2.4,MacIntel,62.5,Safari,1440,900,,,a,1.765,1,65,0,0,10,10,4,1,0,1,0,0,0,0,1,0,circle,hexagon,,,,,,,,,,,,,,,,,,,,,,,,,,,,,,,,,,,,,,,,,,,,,,,,,,,,,,
296593,2022-11-27_17h47.10.734,vts_reward_expectancy_bt,2022.2.4,MacIntel,62.5,Safari,1440,900,,,l,1.067,10,75,0,0,11,11,3,1,0,1,0,0,1,0,0,0,circle,triangle,,,,,,,,,,,,,,,,,,,,,,,,,,,,,,,,,,,,,,,,,,,,,,,,,,,,,,
296593,2022-11-27_17h47.10.734,vts_reward_expectancy_bt,2022.2.4,MacIntel,62.5,Safari,1440,900,,,a,2.5,1,76,0,1,0,12,1,1,1,0,0,0,0,0,1,0,triangle,hexagon,,,,,,,,,,,,,,,,,,,,,,,,,,,,,,,,,,,,,,,,,,,,,,,,,,,,,,
296593,2022-11-27_17h47.10.734,vts_reward_expectancy_bt,2022.2.4,MacIntel,62.5,Safari,1440,900,,,l,4.015,1,77,0,1,1,13,5,1,0,1,0,0,0,0,0,1,circle,star,,,,,,,,,,,,,,,,,,,,,,,,,,,,,,,,,,,,,,,,,,,,,,,,,,,,,,
296593,2022-11-27_17h47.10.734,vts_reward_expectancy_bt,2022.2.4,MacIntel,62.5,Safari,1440,900,,,a,2.138,10,87,0,1,2,14,0,1,1,0,0,0,0,1,0,0,triangle,circle,,,,,,,,,,,,,,,,,,,,,,,,,,,,,,,,,,,,,,,,,,,,,,,,,,,,,,
296593,2022-11-27_17h47.10.734,vts_reward_expectancy_bt,2022.2.4,MacIntel,62.5,Safari,1440,900,,,l,5.733,10,97,0,1,3,15,10,1,0,0,0,1,0,1,0,0,star ,circle,,,,,,,,,,,,,,,,,,,,,,,,,,,,,,,,,,,,,,,,,,,,,,,,,,,,,,
296593,2022-11-27_17h47.10.734,vts_reward_expectancy_bt,2022.2.4,MacIntel,62.5,Safari,1440,900,,,a,2.016,1,98,0,1,4,16,3,1,0,1,0,0,1,0,0,0,circle,triangle,,,,,,,,,,,,,,,,,,,,,,,,,,,,,,,,,,,,,,,,,,,,,,,,,,,,,,
296593,2022-11-27_17h47.10.734,vts_reward_expectancy_bt,2022.2.4,MacIntel,62.5,Safari,1440,900,,,l,2.07,1,99,0,1,5,17,9,1,0,0,0,1,1,0,0,0,star,triangle,,,,,,,,,,,,,,,,,,,,,,,,,,,,,,,,,,,,,,,,,,,,,,,,,,,,,,
296593,2022-11-27_17h47.10.734,vts_reward_expectancy_bt,2022.2.4,MacIntel,62.5,Safari,1440,900,,,a,1.835,1,100,0,1,6,18,11,1,0,0,0,1,0,0,1,0,star,hexagon,,,,,,,,,,,,,,,,,,,,,,,,,,,,,,,,,,,,,,,,,,,,,,,,,,,,,,
296593,2022-11-27_17h47.10.734,vts_reward_expectancy_bt,2022.2.4,MacIntel,62.5,Safari,1440,900,,,l,8.005,1,101,0,1,7,19,2,1,1,0,0,0,0,0,0,1,triangle,star,,,,,,,,,,,,,,,,,,,,,,,,,,,,,,,,,,,,,,,,,,,,,,,,,,,,,,
296593,2022-11-27_17h47.10.734,vts_reward_expectancy_bt,2022.2.4,MacIntel,62.5,Safari,1440,900,,,l,3.001,10,111,0,1,8,20,6,1,0,0,1,0,1,0,0,0,hexagon,triangle,,,,,,,,,,,,,,,,,,,,,,,,,,,,,,,,,,,,,,,,,,,,,,,,,,,,,,
296593,2022-11-27_17h47.10.734,vts_reward_expectancy_bt,2022.2.4,MacIntel,62.5,Safari,1440,900,,,a,2.983,1,112,0,1,9,21,8,1,0,0,1,0,0,0,0,1,hexagon,star,,,,,,,,,,,,,,,,,,,,,,,,,,,,,,,,,,,,,,,,,,,,,,,,,,,,,,
296593,2022-11-27_17h47.10.734,vts_reward_expectancy_bt,2022.2.4,MacIntel,62.5,Safari,1440,900,,,l,1.323,1,113,0,1,10,22,7,1,0,0,1,0,0,1,0,0,hexagon,circle,,,,,,,,,,,,,,,,,,,,,,,,,,,,,,,,,,,,,,,,,,,,,,,,,,,,,,
296593,2022-11-27_17h47.10.734,vts_reward_expectancy_bt,2022.2.4,MacIntel,62.5,Safari,1440,900,,,a,3.933,1,114,0,1,11,23,4,1,0,1,0,0,0,0,1,0,circle,hexagon,,,,,,,,,,,,,,,,,,,,,,,,,,,,,,,,,,,,,,,,,,,,,,,,,,,,,,
296593,2022-11-27_17h47.10.734,vts_reward_expectancy_bt,2022.2.4,MacIntel,62.5,Safari,1440,900,,,a,3.369,10,124,0,2,0,24,6,1,0,0,1,0,1,0,0,0,hexagon,triangle,,,,,,,,,,,,,,,,,,,,,,,,,,,,,,,,,,,,,,,,,,,,,,,,,,,,,,
296593,2022-11-27_17h47.10.734,vts_reward_expectancy_bt,2022.2.4,MacIntel,62.5,Safari,1440,900,,,l,2.699,10,134,0,2,1,25,0,1,1,0,0,0,0,1,0,0,triangle,circle,,,,,,,,,,,,,,,,,,,,,,,,,,,,,,,,,,,,,,,,,,,,,,,,,,,,,,
296593,2022-11-27_17h47.10.734,vts_reward_expectancy_bt,2022.2.4,MacIntel,62.5,Safari,1440,900,,,a,1.391,1,135,0,2,2,26,7,1,0,0,1,0,0,1,0,0,hexagon,circle,,,,,,,,,,,,,,,,,,,,,,,,,,,,,,,,,,,,,,,,,,,,,,,,,,,,,,
296593,2022-11-27_17h47.10.734,vts_reward_expectancy_bt,2022.2.4,MacIntel,62.5,Safari,1440,900,,,l,1.358,10,145,0,2,3,27,10,1,0,0,0,1,0,1,0,0,star ,circle,,,,,,,,,,,,,,,,,,,,,,,,,,,,,,,,,,,,,,,,,,,,,,,,,,,,,,
296593,2022-11-27_17h47.10.734,vts_reward_expectancy_bt,2022.2.4,MacIntel,62.5,Safari,1440,900,,,a,2.339,10,155,0,2,4,28,5,1,0,1,0,0,0,0,0,1,circle,star,,,,,,,,,,,,,,,,,,,,,,,,,,,,,,,,,,,,,,,,,,,,,,,,,,,,,,
296593,2022-11-27_17h47.10.734,vts_reward_expectancy_bt,2022.2.4,MacIntel,62.5,Safari,1440,900,,,a,1.934,10,165,0,2,5,29,9,1,0,0,0,1,1,0,0,0,star,triangle,,,,,,,,,,,,,,,,,,,,,,,,,,,,,,,,,,,,,,,,,,,,,,,,,,,,,,
296593,2022-11-27_17h47.10.734,vts_reward_expectancy_bt,2022.2.4,MacIntel,62.5,Safari,1440,900,,,a,2.433,1,166,0,2,6,30,8,1,0,0,1,0,0,0,0,1,hexagon,star,,,,,,,,,,,,,,,,,,,,,,,,,,,,,,,,,,,,,,,,,,,,,,,,,,,,,,
296593,2022-11-27_17h47.10.734,vts_reward_expectancy_bt,2022.2.4,MacIntel,62.5,Safari,1440,900,,,a,1.082,10,176,0,2,7,31,4,1,0,1,0,0,0,0,1,0,circle,hexagon,,,,,,,,,,,,,,,,,,,,,,,,,,,,,,,,,,,,,,,,,,,,,,,,,,,,,,
296593,2022-11-27_17h47.10.734,vts_reward_expectancy_bt,2022.2.4,MacIntel,62.5,Safari,1440,900,,,a,1.3,10,186,0,2,8,32,3,1,0,1,0,0,1,0,0,0,circle,triangle,,,,,,,,,,,,,,,,,,,,,,,,,,,,,,,,,,,,,,,,,,,,,,,,,,,,,,
296593,2022-11-27_17h47.10.734,vts_reward_expectancy_bt,2022.2.4,MacIntel,62.5,Safari,1440,900,,,l,1.891,1,187,0,2,9,33,1,1,1,0,0,0,0,0,1,0,triangle,hexagon,,,,,,,,,,,,,,,,,,,,,,,,,,,,,,,,,,,,,,,,,,,,,,,,,,,,,,
296593,2022-11-27_17h47.10.734,vts_reward_expectancy_bt,2022.2.4,MacIntel,62.5,Safari,1440,900,,,l,1.785,1,188,0,2,10,34,2,1,1,0,0,0,0,0,0,1,triangle,star,,,,,,,,,,,,,,,,,,,,,,,,,,,,,,,,,,,,,,,,,,,,,,,,,,,,,,
296593,2022-11-27_17h47.10.734,vts_reward_expectancy_bt,2022.2.4,MacIntel,62.5,Safari,1440,900,,,a,1.352,10,198,0,2,11,35,11,1,0,0,0,1,0,0,1,0,star,hexagon,,,,,,,,,,,,,,,,,,,,,,,,,,,,,,,,,,,,,,,,,,,,,,,,,,,,,,
296593,2022-11-27_17h47.10.734,vts_reward_expectancy_bt,2022.2.4,MacIntel,62.5,Safari,1440,900,,,a,1.39,10,208,1,0,0,0,3,1,0,1,0,0,1,0,0,0,circle,triangle,,,,,,,,,,,,,,,,,,,,,,,,,,,,,,,,,,,,,,,,,,,,,,,,,,,,,,
296593,2022-11-27_17h47.10.734,vts_reward_expectancy_bt,2022.2.4,MacIntel,62.5,Safari,1440,900,,,l,2.014,1,209,1,0,1,1,2,1,1,0,0,0,0,0,0,1,triangle,star,,,,,,,,,,,,,,,,,,,,,,,,,,,,,,,,,,,,,,,,,,,,,,,,,,,,,,
296593,2022-11-27_17h47.10.734,vts_reward_expectancy_bt,2022.2.4,MacIntel,62.5,Safari,1440,900,,,l,1.184,10,219,1,0,2,2,10,1,0,0,0,1,0,1,0,0,star ,circle,,,,,,,,,,,,,,,,,,,,,,,,,,,,,,,,,,,,,,,,,,,,,,,,,,,,,,
296593,2022-11-27_17h47.10.734,vts_reward_expectancy_bt,2022.2.4,MacIntel,62.5,Safari,1440,900,,,a,2.033,10,229,1,0,3,3,4,1,0,1,0,0,0,0,1,0,circle,hexagon,,,,,,,,,,,,,,,,,,,,,,,,,,,,,,,,,,,,,,,,,,,,,,,,,,,,,,
296593,2022-11-27_17h47.10.734,vts_reward_expectancy_bt,2022.2.4,MacIntel,62.5,Safari,1440,900,,,l,3.383,10,239,1,0,4,4,1,1,1,0,0,0,0,0,1,0,triangle,hexagon,,,,,,,,,,,,,,,,,,,,,,,,,,,,,,,,,,,,,,,,,,,,,,,,,,,,,,
296593,2022-11-27_17h47.10.734,vts_reward_expectancy_bt,2022.2.4,MacIntel,62.5,Safari,1440,900,,,l,1.556,10,249,1,0,5,5,6,1,0,0,1,0,1,0,0,0,hexagon,triangle,,,,,,,,,,,,,,,,,,,,,,,,,,,,,,,,,,,,,,,,,,,,,,,,,,,,,,
296593,2022-11-27_17h47.10.734,vts_reward_expectancy_bt,2022.2.4,MacIntel,62.5,Safari,1440,900,,,l,1.505,1,250,1,0,6,6,8,1,0,0,1,0,0,0,0,1,hexagon,star,,,,,,,,,,,,,,,,,,,,,,,,,,,,,,,,,,,,,,,,,,,,,,,,,,,,,,
296593,2022-11-27_17h47.10.734,vts_reward_expectancy_bt,2022.2.4,MacIntel,62.5,Safari,1440,900,,,a,1.222,1,251,1,0,7,7,11,1,0,0,0,1,0,0,1,0,star,hexagon,,,,,,,,,,,,,,,,,,,,,,,,,,,,,,,,,,,,,,,,,,,,,,,,,,,,,,
296593,2022-11-27_17h47.10.734,vts_reward_expectancy_bt,2022.2.4,MacIntel,62.5,Safari,1440,900,,,l,0.798,1,252,1,0,8,8,7,1,0,0,1,0,0,1,0,0,hexagon,circle,,,,,,,,,,,,,,,,,,,,,,,,,,,,,,,,,,,,,,,,,,,,,,,,,,,,,,
296593,2022-11-27_17h47.10.734,vts_reward_expectancy_bt,2022.2.4,MacIntel,62.5,Safari,1440,900,,,l,3.719,1,253,1,0,9,9,0,1,1,0,0,0,0,1,0,0,triangle,circle,,,,,,,,,,,,,,,,,,,,,,,,,,,,,,,,,,,,,,,,,,,,,,,,,,,,,,
296593,2022-11-27_17h47.10.734,vts_reward_expectancy_bt,2022.2.4,MacIntel,62.5,Safari,1440,900,,,a,1.27,1,254,1,0,10,10,9,1,0,0,0,1,1,0,0,0,star,triangle,,,,,,,,,,,,,,,,,,,,,,,,,,,,,,,,,,,,,,,,,,,,,,,,,,,,,,
296593,2022-11-27_17h47.10.734,vts_reward_expectancy_bt,2022.2.4,MacIntel,62.5,Safari,1440,900,,,a,0.733,10,264,1,0,11,11,5,1,0,1,0,0,0,0,0,1,circle,star,,,,,,,,,,,,,,,,,,,,,,,,,,,,,,,,,,,,,,,,,,,,,,,,,,,,,,
296593,2022-11-27_17h47.10.734,vts_reward_expectancy_bt,2022.2.4,MacIntel,62.5,Safari,1440,900,,,a,1.035,1,265,1,1,0,12,8,1,0,0,1,0,0,0,0,1,hexagon,star,,,,,,,,,,,,,,,,,,,,,,,,,,,,,,,,,,,,,,,,,,,,,,,,,,,,,,
296593,2022-11-27_17h47.10.734,vts_reward_expectancy_bt,2022.2.4,MacIntel,62.5,Safari,1440,900,,,l,0.686,10,275,1,1,1,13,7,1,0,0,1,0,0,1,0,0,hexagon,circle,,,,,,,,,,,,,,,,,,,,,,,,,,,,,,,,,,,,,,,,,,,,,,,,,,,,,,
296593,2022-11-27_17h47.10.734,vts_reward_expectancy_bt,2022.2.4,MacIntel,62.5,Safari,1440,900,,,a,1.067,1,276,1,1,2,14,3,1,0,1,0,0,1,0,0,0,circle,triangle,,,,,,,,,,,,,,,,,,,,,,,,,,,,,,,,,,,,,,,,,,,,,,,,,,,,,,
296593,2022-11-27_17h47.10.734,vts_reward_expectancy_bt,2022.2.4,MacIntel,62.5,Safari,1440,900,,,a,1.65,1,277,1,1,3,15,2,1,1,0,0,0,0,0,0,1,triangle,star,,,,,,,,,,,,,,,,,,,,,,,,,,,,,,,,,,,,,,,,,,,,,,,,,,,,,,
296593,2022-11-27_17h47.10.734,vts_reward_expectancy_bt,2022.2.4,MacIntel,62.5,Safari,1440,900,,,a,1.264,10,287,1,1,4,16,4,1,0,1,0,0,0,0,1,0,circle,hexagon,,,,,,,,,,,,,,,,,,,,,,,,,,,,,,,,,,,,,,,,,,,,,,,,,,,,,,
296593,2022-11-27_17h47.10.734,vts_reward_expectancy_bt,2022.2.4,MacIntel,62.5,Safari,1440,900,,,l,0.95,10,297,1,1,5,17,6,1,0,0,1,0,1,0,0,0,hexagon,triangle,,,,,,,,,,,,,,,,,,,,,,,,,,,,,,,,,,,,,,,,,,,,,,,,,,,,,,
296593,2022-11-27_17h47.10.734,vts_reward_expectancy_bt,2022.2.4,MacIntel,62.5,Safari,1440,900,,,l,1.14,10,307,1,1,6,18,11,1,0,0,0,1,0,0,1,0,star,hexagon,,,,,,,,,,,,,,,,,,,,,,,,,,,,,,,,,,,,,,,,,,,,,,,,,,,,,,
296593,2022-11-27_17h47.10.734,vts_reward_expectancy_bt,2022.2.4,MacIntel,62.5,Safari,1440,900,,,l,2.683,1,308,1,1,7,19,5,1,0,1,0,0,0,0,0,1,circle,star,,,,,,,,,,,,,,,,,,,,,,,,,,,,,,,,,,,,,,,,,,,,,,,,,,,,,,
296593,2022-11-27_17h47.10.734,vts_reward_expectancy_bt,2022.2.4,MacIntel,62.5,Safari,1440,900,,,l,1.057,10,318,1,1,8,20,9,1,0,0,0,1,1,0,0,0,star,triangle,,,,,,,,,,,,,,,,,,,,,,,,,,,,,,,,,,,,,,,,,,,,,,,,,,,,,,
296593,2022-11-27_17h47.10.734,vts_reward_expectancy_bt,2022.2.4,MacIntel,62.5,Safari,1440,900,,,l,1.436,10,328,1,1,9,21,10,1,0,0,0,1,0,1,0,0,star ,circle,,,,,,,,,,,,,,,,,,,,,,,,,,,,,,,,,,,,,,,,,,,,,,,,,,,,,,
296593,2022-11-27_17h47.10.734,vts_reward_expectancy_bt,2022.2.4,MacIntel,62.5,Safari,1440,900,,,l,1.817,1,329,1,1,10,22,1,1,1,0,0,0,0,0,1,0,triangle,hexagon,,,,,,,,,,,,,,,,,,,,,,,,,,,,,,,,,,,,,,,,,,,,,,,,,,,,,,
296593,2022-11-27_17h47.10.734,vts_reward_expectancy_bt,2022.2.4,MacIntel,62.5,Safari,1440,900,,,l,1.056,10,339,1,1,11,23,0,1,1,0,0,0,0,1,0,0,triangle,circle,,,,,,,,,,,,,,,,,,,,,,,,,,,,,,,,,,,,,,,,,,,,,,,,,,,,,,
296593,2022-11-27_17h47.10.734,vts_reward_expectancy_bt,2022.2.4,MacIntel,62.5,Safari,1440,900,,,l,1.357,10,349,1,2,0,24,10,1,0,0,0,1,0,1,0,0,star ,circle,,,,,,,,,,,,,,,,,,,,,,,,,,,,,,,,,,,,,,,,,,,,,,,,,,,,,,
296593,2022-11-27_17h47.10.734,vts_reward_expectancy_bt,2022.2.4,MacIntel,62.5,Safari,1440,900,,,l,3.323,10,359,1,2,1,25,9,1,0,0,0,1,1,0,0,0,star,triangle,,,,,,,,,,,,,,,,,,,,,,,,,,,,,,,,,,,,,,,,,,,,,,,,,,,,,,
296593,2022-11-27_17h47.10.734,vts_reward_expectancy_bt,2022.2.4,MacIntel,62.5,Safari,1440,900,,,a,1.133,1,360,1,2,2,26,2,1,1,0,0,0,0,0,0,1,triangle,star,,,,,,,,,,,,,,,,,,,,,,,,,,,,,,,,,,,,,,,,,,,,,,,,,,,,,,
296593,2022-11-27_17h47.10.734,vts_reward_expectancy_bt,2022.2.4,MacIntel,62.5,Safari,1440,900,,,a,1.767,10,370,1,2,3,27,5,1,0,1,0,0,0,0,0,1,circle,star,,,,,,,,,,,,,,,,,,,,,,,,,,,,,,,,,,,,,,,,,,,,,,,,,,,,,,
296593,2022-11-27_17h47.10.734,vts_reward_expectancy_bt,2022.2.4,MacIntel,62.5,Safari,1440,900,,,a,2.45,10,380,1,2,4,28,3,1,0,1,0,0,1,0,0,0,circle,triangle,,,,,,,,,,,,,,,,,,,,,,,,,,,,,,,,,,,,,,,,,,,,,,,,,,,,,,
296593,2022-11-27_17h47.10.734,vts_reward_expectancy_bt,2022.2.4,MacIntel,62.5,Safari,1440,900,,,l,1.935,1,381,1,2,5,29,4,1,0,1,0,0,0,0,1,0,circle,hexagon,,,,,,,,,,,,,,,,,,,,,,,,,,,,,,,,,,,,,,,,,,,,,,,,,,,,,,
296593,2022-11-27_17h47.10.734,vts_reward_expectancy_bt,2022.2.4,MacIntel,62.5,Safari,1440,900,,,l,1.273,10,391,1,2,6,30,6,1,0,0,1,0,1,0,0,0,hexagon,triangle,,,,,,,,,,,,,,,,,,,,,,,,,,,,,,,,,,,,,,,,,,,,,,,,,,,,,,
296593,2022-11-27_17h47.10.734,vts_reward_expectancy_bt,2022.2.4,MacIntel,62.5,Safari,1440,900,,,l,2.655,1,392,1,2,7,31,1,1,1,0,0,0,0,0,1,0,triangle,hexagon,,,,,,,,,,,,,,,,,,,,,,,,,,,,,,,,,,,,,,,,,,,,,,,,,,,,,,
296593,2022-11-27_17h47.10.734,vts_reward_expectancy_bt,2022.2.4,MacIntel,62.5,Safari,1440,900,,,l,0.938,10,402,1,2,8,32,7,1,0,0,1,0,0,1,0,0,hexagon,circle,,,,,,,,,,,,,,,,,,,,,,,,,,,,,,,,,,,,,,,,,,,,,,,,,,,,,,
296593,2022-11-27_17h47.10.734,vts_reward_expectancy_bt,2022.2.4,MacIntel,62.5,Safari,1440,900,,,a,2.151,1,403,1,2,9,33,8,1,0,0,1,0,0,0,0,1,hexagon,star,,,,,,,,,,,,,,,,,,,,,,,,,,,,,,,,,,,,,,,,,,,,,,,,,,,,,,
296593,2022-11-27_17h47.10.734,vts_reward_expectancy_bt,2022.2.4,MacIntel,62.5,Safari,1440,900,,,a,2.45,1,404,1,2,10,34,11,1,0,0,0,1,0,0,1,0,star,hexagon,,,,,,,,,,,,,,,,,,,,,,,,,,,,,,,,,,,,,,,,,,,,,,,,,,,,,,
296593,2022-11-27_17h47.10.734,vts_reward_expectancy_bt,2022.2.4,MacIntel,62.5,Safari,1440,900,,,l,2.639,10,414,1,2,11,35,0,1,1,0,0,0,0,1,0,0,triangle,circle,,,,,,,,,,,,,,,,,,,,,,,,,,,,,,,,,,,,,,,,,,,,,,,,,,,,,,
296593,2022-11-27_17h47.10.734,vts_reward_expectancy_bt,2022.2.4,MacIntel,62.5,Safari,1440,900,,,l,1.275,10,424,2,0,0,0,3,1,0,1,0,0,1,0,0,0,circle,triangle,,,,,,,,,,,,,,,,,,,,,,,,,,,,,,,,,,,,,,,,,,,,,,,,,,,,,,
296593,2022-11-27_17h47.10.734,vts_reward_expectancy_bt,2022.2.4,MacIntel,62.5,Safari,1440,900,,,l,1.15,1,425,2,0,1,1,1,1,1,0,0,0,0,0,1,0,triangle,hexagon,,,,,,,,,,,,,,,,,,,,,,,,,,,,,,,,,,,,,,,,,,,,,,,,,,,,,,
296593,2022-11-27_17h47.10.734,vts_reward_expectancy_bt,2022.2.4,MacIntel,62.5,Safari,1440,900,,,a,0.867,10,435,2,0,2,2,5,1,0,1,0,0,0,0,0,1,circle,star,,,,,,,,,,,,,,,,,,,,,,,,,,,,,,,,,,,,,,,,,,,,,,,,,,,,,,
296593,2022-11-27_17h47.10.734,vts_reward_expectancy_bt,2022.2.4,MacIntel,62.5,Safari,1440,900,,,l,0.85,10,445,2,0,3,3,7,1,0,0,1,0,0,1,0,0,hexagon,circle,,,,,,,,,,,,,,,,,,,,,,,,,,,,,,,,,,,,,,,,,,,,,,,,,,,,,,
296593,2022-11-27_17h47.10.734,vts_reward_expectancy_bt,2022.2.4,MacIntel,62.5,Safari,1440,900,,,l,1.158,1,446,2,0,4,4,11,1,0,0,0,1,0,0,1,0,star,hexagon,,,,,,,,,,,,,,,,,,,,,,,,,,,,,,,,,,,,,,,,,,,,,,,,,,,,,,
296593,2022-11-27_17h47.10.734,vts_reward_expectancy_bt,2022.2.4,MacIntel,62.5,Safari,1440,900,,,a,0.656,1,447,2,0,5,5,10,1,0,0,0,1,0,1,0,0,star ,circle,,,,,,,,,,,,,,,,,,,,,,,,,,,,,,,,,,,,,,,,,,,,,,,,,,,,,,
296593,2022-11-27_17h47.10.734,vts_reward_expectancy_bt,2022.2.4,MacIntel,62.5,Safari,1440,900,,,l,0.783,10,457,2,0,6,6,9,1,0,0,0,1,1,0,0,0,star,triangle,,,,,,,,,,,,,,,,,,,,,,,,,,,,,,,,,,,,,,,,,,,,,,,,,,,,,,
296593,2022-11-27_17h47.10.734,vts_reward_expectancy_bt,2022.2.4,MacIntel,62.5,Safari,1440,900,,,a,1.279,1,458,2,0,7,7,4,1,0,1,0,0,0,0,1,0,circle,hexagon,,,,,,,,,,,,,,,,,,,,,,,,,,,,,,,,,,,,,,,,,,,,,,,,,,,,,,
296593,2022-11-27_17h47.10.734,vts_reward_expectancy_bt,2022.2.4,MacIntel,62.5,Safari,1440,900,,,l,1.252,1,459,2,0,8,8,2,1,1,0,0,0,0,0,0,1,triangle,star,,,,,,,,,,,,,,,,,,,,,,,,,,,,,,,,,,,,,,,,,,,,,,,,,,,,,,
296593,2022-11-27_17h47.10.734,vts_reward_expectancy_bt,2022.2.4,MacIntel,62.5,Safari,1440,900,,,l,0.756,10,469,2,0,9,9,6,1,0,0,1,0,1,0,0,0,hexagon,triangle,,,,,,,,,,,,,,,,,,,,,,,,,,,,,,,,,,,,,,,,,,,,,,,,,,,,,,
296593,2022-11-27_17h47.10.734,vts_reward_expectancy_bt,2022.2.4,MacIntel,62.5,Safari,1440,900,,,l,1.334,1,470,2,0,10,10,8,1,0,0,1,0,0,0,0,1,hexagon,star,,,,,,,,,,,,,,,,,,,,,,,,,,,,,,,,,,,,,,,,,,,,,,,,,,,,,,
296593,2022-11-27_17h47.10.734,vts_reward_expectancy_bt,2022.2.4,MacIntel,62.5,Safari,1440,900,,,l,1.002,10,480,2,0,11,11,0,1,1,0,0,0,0,1,0,0,triangle,circle,,,,,,,,,,,,,,,,,,,,,,,,,,,,,,,,,,,,,,,,,,,,,,,,,,,,,,
296593,2022-11-27_17h47.10.734,vts_reward_expectancy_bt,2022.2.4,MacIntel,62.5,Safari,1440,900,,,l,1.225,10,490,2,1,0,12,7,1,0,0,1,0,0,1,0,0,hexagon,circle,,,,,,,,,,,,,,,,,,,,,,,,,,,,,,,,,,,,,,,,,,,,,,,,,,,,,,
296593,2022-11-27_17h47.10.734,vts_reward_expectancy_bt,2022.2.4,MacIntel,62.5,Safari,1440,900,,,l,1.75,1,491,2,1,1,13,6,1,0,0,1,0,1,0,0,0,hexagon,triangle,,,,,,,,,,,,,,,,,,,,,,,,,,,,,,,,,,,,,,,,,,,,,,,,,,,,,,
296593,2022-11-27_17h47.10.734,vts_reward_expectancy_bt,2022.2.4,MacIntel,62.5,Safari,1440,900,,,a,1.2,10,501,2,1,2,14,1,1,1,0,0,0,0,0,1,0,triangle,hexagon,,,,,,,,,,,,,,,,,,,,,,,,,,,,,,,,,,,,,,,,,,,,,,,,,,,,,,
296593,2022-11-27_17h47.10.734,vts_reward_expectancy_bt,2022.2.4,MacIntel,62.5,Safari,1440,900,,,l,4.857,1,502,2,1,3,15,4,1,0,1,0,0,0,0,1,0,circle,hexagon,,,,,,,,,,,,,,,,,,,,,,,,,,,,,,,,,,,,,,,,,,,,,,,,,,,,,,
296593,2022-11-27_17h47.10.734,vts_reward_expectancy_bt,2022.2.4,MacIntel,62.5,Safari,1440,900,,,l,2.017,10,512,2,1,4,16,9,1,0,0,0,1,1,0,0,0,star,triangle,,,,,,,,,,,,,,,,,,,,,,,,,,,,,,,,,,,,,,,,,,,,,,,,,,,,,,
296593,2022-11-27_17h47.10.734,vts_reward_expectancy_bt,2022.2.4,MacIntel,62.5,Safari,1440,900,,,l,0.982,10,522,2,1,5,17,10,1,0,0,0,1,0,1,0,0,star ,circle,,,,,,,,,,,,,,,,,,,,,,,,,,,,,,,,,,,,,,,,,,,,,,,,,,,,,,
296593,2022-11-27_17h47.10.734,vts_reward_expectancy_bt,2022.2.4,MacIntel,62.5,Safari,1440,900,,,l,1.433,10,532,2,1,6,18,0,1,1,0,0,0,0,1,0,0,triangle,circle,,,,,,,,,,,,,,,,,,,,,,,,,,,,,,,,,,,,,,,,,,,,,,,,,,,,,,
296593,2022-11-27_17h47.10.734,vts_reward_expectancy_bt,2022.2.4,MacIntel,62.5,Safari,1440,900,,,a,1.799,10,542,2,1,7,19,5,1,0,1,0,0,0,0,0,1,circle,star,,,,,,,,,,,,,,,,,,,,,,,,,,,,,,,,,,,,,,,,,,,,,,,,,,,,,,
296593,2022-11-27_17h47.10.734,vts_reward_expectancy_bt,2022.2.4,MacIntel,62.5,Safari,1440,900,,,a,1.233,1,543,2,1,8,20,2,1,1,0,0,0,0,0,0,1,triangle,star,,,,,,,,,,,,,,,,,,,,,,,,,,,,,,,,,,,,,,,,,,,,,,,,,,,,,,
296593,2022-11-27_17h47.10.734,vts_reward_expectancy_bt,2022.2.4,MacIntel,62.5,Safari,1440,900,,,a,2.9,1,544,2,1,9,21,8,1,0,0,1,0,0,0,0,1,hexagon,star,,,,,,,,,,,,,,,,,,,,,,,,,,,,,,,,,,,,,,,,,,,,,,,,,,,,,,
296593,2022-11-27_17h47.10.734,vts_reward_expectancy_bt,2022.2.4,MacIntel,62.5,Safari,1440,900,,,l,1.189,1,545,2,1,10,22,11,1,0,0,0,1,0,0,1,0,star,hexagon,,,,,,,,,,,,,,,,,,,,,,,,,,,,,,,,,,,,,,,,,,,,,,,,,,,,,,
296593,2022-11-27_17h47.10.734,vts_reward_expectancy_bt,2022.2.4,MacIntel,62.5,Safari,1440,900,,,l,1.473,1,546,2,1,11,23,3,1,0,1,0,0,1,0,0,0,circle,triangle,,,,,,,,,,,,,,,,,,,,,,,,,,,,,,,,,,,,,,,,,,,,,,,,,,,,,,
296593,2022-11-27_17h47.10.734,vts_reward_expectancy_bt,2022.2.4,MacIntel,62.5,Safari,1440,900,,,l,1.165,1,547,2,2,0,24,0,1,1,0,0,0,0,1,0,0,triangle,circle,,,,,,,,,,,,,,,,,,,,,,,,,,,,,,,,,,,,,,,,,,,,,,,,,,,,,,
296593,2022-11-27_17h47.10.734,vts_reward_expectancy_bt,2022.2.4,MacIntel,62.5,Safari,1440,900,,,l,1.935,1,548,2,2,1,25,3,1,0,1,0,0,1,0,0,0,circle,triangle,,,,,,,,,,,,,,,,,,,,,,,,,,,,,,,,,,,,,,,,,,,,,,,,,,,,,,
296593,2022-11-27_17h47.10.734,vts_reward_expectancy_bt,2022.2.4,MacIntel,62.5,Safari,1440,900,,,a,1.717,1,549,2,2,2,26,8,1,0,0,1,0,0,0,0,1,hexagon,star,,,,,,,,,,,,,,,,,,,,,,,,,,,,,,,,,,,,,,,,,,,,,,,,,,,,,,
296593,2022-11-27_17h47.10.734,vts_reward_expectancy_bt,2022.2.4,MacIntel,62.5,Safari,1440,900,,,a,0.9,1,550,2,2,3,27,5,1,0,1,0,0,0,0,0,1,circle,star,,,,,,,,,,,,,,,,,,,,,,,,,,,,,,,,,,,,,,,,,,,,,,,,,,,,,,
296593,2022-11-27_17h47.10.734,vts_reward_expectancy_bt,2022.2.4,MacIntel,62.5,Safari,1440,900,,,l,1.333,10,560,2,2,4,28,7,1,0,0,1,0,0,1,0,0,hexagon,circle,,,,,,,,,,,,,,,,,,,,,,,,,,,,,,,,,,,,,,,,,,,,,,,,,,,,,,
296593,2022-11-27_17h47.10.734,vts_reward_expectancy_bt,2022.2.4,MacIntel,62.5,Safari,1440,900,,,l,1.969,10,570,2,2,5,29,6,1,0,0,1,0,1,0,0,0,hexagon,triangle,,,,,,,,,,,,,,,,,,,,,,,,,,,,,,,,,,,,,,,,,,,,,,,,,,,,,,
296593,2022-11-27_17h47.10.734,vts_reward_expectancy_bt,2022.2.4,MacIntel,62.5,Safari,1440,900,,,l,1.951,1,571,2,2,6,30,10,1,0,0,0,1,0,1,0,0,star ,circle,,,,,,,,,,,,,,,,,,,,,,,,,,,,,,,,,,,,,,,,,,,,,,,,,,,,,,
296593,2022-11-27_17h47.10.734,vts_reward_expectancy_bt,2022.2.4,MacIntel,62.5,Safari,1440,900,,,l,2.206,1,572,2,2,7,31,11,1,0,0,0,1,0,0,1,0,star,hexagon,,,,,,,,,,,,,,,,,,,,,,,,,,,,,,,,,,,,,,,,,,,,,,,,,,,,,,
296593,2022-11-27_17h47.10.734,vts_reward_expectancy_bt,2022.2.4,MacIntel,62.5,Safari,1440,900,,,a,2.353,10,582,2,2,8,32,4,1,0,1,0,0,0,0,1,0,circle,hexagon,,,,,,,,,,,,,,,,,,,,,,,,,,,,,,,,,,,,,,,,,,,,,,,,,,,,,,
296593,2022-11-27_17h47.10.734,vts_reward_expectancy_bt,2022.2.4,MacIntel,62.5,Safari,1440,900,,,a,1.901,1,583,2,2,9,33,9,1,0,0,0,1,1,0,0,0,star,triangle,,,,,,,,,,,,,,,,,,,,,,,,,,,,,,,,,,,,,,,,,,,,,,,,,,,,,,
296593,2022-11-27_17h47.10.734,vts_reward_expectancy_bt,2022.2.4,MacIntel,62.5,Safari,1440,900,,,l,3.986,1,584,2,2,10,34,2,1,1,0,0,0,0,0,0,1,triangle,star,,,,,,,,,,,,,,,,,,,,,,,,,,,,,,,,,,,,,,,,,,,,,,,,,,,,,,
296593,2022-11-27_17h47.10.734,vts_reward_expectancy_bt,2022.2.4,MacIntel,62.5,Safari,1440,900,,,l,1.583,1,585,2,2,11,35,1,1,1,0,0,0,0,0,1,0,triangle,hexagon,,,,,,,,,,,,,,,,,,,,,,,,,,,,,,,,,,,,,,,,,,,,,,,,,,,,,,
296593,2022-11-27_17h47.10.734,vts_reward_expectancy_bt,2022.2.4,MacIntel,62.5,Safari,1440,900,,,,,,,,,,,,,,,,,,,,,,,146,D,circle,0,0,,0,0,0,0,0,1,,,,,,,,,,,,,,,,,,,,,,,,,,,,,,,,,,,,,,,,,,
296593,2022-11-27_17h47.10.734,vts_reward_expectancy_bt,2022.2.4,MacIntel,62.5,Safari,1440,900,,,,,,,,,,,,,,,,,,,,,,,181,U,hexagon,1,1,f,0,1,0,1,0,1,1.035,,,,,,,,,,,,,,,,,,,,,,,,,,,,,,,,,,,,,,,,,
296593,2022-11-27_17h47.10.734,vts_reward_expectancy_bt,2022.2.4,MacIntel,62.5,Safari,1440,900,,,,,,,,,,,,,,,,,,,,,,,139,H,triangle,1,0,d,0,2,0,2,0,1,1.081,,,,,,,,,,,,,,,,,,,,,,,,,,,,,,,,,,,,,,,,,
296593,2022-11-27_17h47.10.734,vts_reward_expectancy_bt,2022.2.4,MacIntel,62.5,Safari,1440,900,,,,,,,,,,,,,,,,,,,,,,,132,W,star,1,0,d,0,3,0,3,0,1,0.796,,,,,,,,,,,,,,,,,,,,,,,,,,,,,,,,,,,,,,,,,
296593,2022-11-27_17h47.10.734,vts_reward_expectancy_bt,2022.2.4,MacIntel,62.5,Safari,1440,900,,,,,,,,,,,,,,,,,,,,,,,125,Y,circle,1,0,d,0,4,0,4,0,1,0.913,,,,,,,,,,,,,,,,,,,,,,,,,,,,,,,,,,,,,,,,,
296593,2022-11-27_17h47.10.734,vts_reward_expectancy_bt,2022.2.4,MacIntel,62.5,Safari,1440,900,,,,,,,,,,,,,,,,,,,,,,,174,S,hexagon,1,0,f,0,5,0,5,0,1,0.996,,,,,,,,,,,,,,,,,,,,,,,,,,,,,,,,,,,,,,,,,
296593,2022-11-27_17h47.10.734,vts_reward_expectancy_bt,2022.2.4,MacIntel,62.5,Safari,1440,900,,,,,,,,,,,,,,,,,,,,,,,160,B,triangle,1,0,f,0,6,0,6,0,1,1.063,,,,,,,,,,,,,,,,,,,,,,,,,,,,,,,,,,,,,,,,,
296593,2022-11-27_17h47.10.734,vts_reward_expectancy_bt,2022.2.4,MacIntel,62.5,Safari,1440,900,,,,,,,,,,,,,,,,,,,,,,,167,F,star,1,0,f,0,7,0,7,0,1,1.948,,,,,,,,,,,,,,,,,,,,,,,,,,,,,,,,,,,,,,,,,
296593,2022-11-27_17h47.10.734,vts_reward_expectancy_bt,2022.2.4,MacIntel,62.5,Safari,1440,900,,,,,,,,,,,,,,,,,,,,,,,146,D,triangle,1,0,d,0,8,0,8,0,1,2.262,,,,,,,,,,,,,,,,,,,,,,,,,,,,,,,,,,,,,,,,,
296593,2022-11-27_17h47.10.734,vts_reward_expectancy_bt,2022.2.4,MacIntel,62.5,Safari,1440,900,,,,,,,,,,,,,,,,,,,,,,,181,U,circle,1,0,f,0,9,0,9,0,1,1.097,,,,,,,,,,,,,,,,,,,,,,,,,,,,,,,,,,,,,,,,,
296593,2022-11-27_17h47.10.734,vts_reward_expectancy_bt,2022.2.4,MacIntel,62.5,Safari,1440,900,,,,,,,,,,,,,,,,,,,,,,,132,Y,hexagon,1,0,,1,,,,,,,k,1.598,0,0,0,0,1,,,,,,,,,,,,,,,,,,,,,,,,,,,,,,,,,,
296593,2022-11-27_17h47.10.734,vts_reward_expectancy_bt,2022.2.4,MacIntel,62.5,Safari,1440,900,,,,,,,,,,,,,,,,,,,,,,,125,F,triangle,1,0,,1,,,,,,,j,1.262,1,0,1,0,1,,,,,,,,,,,,,,,,,,,,,,,,,,,,,,,,,,
296593,2022-11-27_17h47.10.734,vts_reward_expectancy_bt,2022.2.4,MacIntel,62.5,Safari,1440,900,,,,,,,,,,,,,,,,,,,,,,,181,S,star,1,0,,1,,,,,,,k,1.094,2,0,2,0,1,,,,,,,,,,,,,,,,,,,,,,,,,,,,,,,,,,
296593,2022-11-27_17h47.10.734,vts_reward_expectancy_bt,2022.2.4,MacIntel,62.5,Safari,1440,900,,,,,,,,,,,,,,,,,,,,,,,160,D,circle,1,0,,1,,,,,,,j,0.946,3,0,3,0,1,,,,,,,,,,,,,,,,,,,,,,,,,,,,,,,,,,
296593,2022-11-27_17h47.10.734,vts_reward_expectancy_bt,2022.2.4,MacIntel,62.5,Safari,1440,900,,,,,,,,,,,,,,,,,,,,,,,139,H,hexagon,1,0,,1,,,,,,,j,1.431,4,0,4,0,1,,,,,,,,,,,,,,,,,,,,,,,,,,,,,,,,,,
296593,2022-11-27_17h47.10.734,vts_reward_expectancy_bt,2022.2.4,MacIntel,62.5,Safari,1440,900,,,,,,,,,,,,,,,,,,,,,,,167,U,triangle,1,0,,1,,,,,,,k,1.721,5,0,5,0,1,,,,,,,,,,,,,,,,,,,,,,,,,,,,,,,,,,
296593,2022-11-27_17h47.10.734,vts_reward_expectancy_bt,2022.2.4,MacIntel,62.5,Safari,1440,900,,,,,,,,,,,,,,,,,,,,,,,174,W,star,1,0,,1,,,,,,,k,1.192,6,0,6,0,1,,,,,,,,,,,,,,,,,,,,,,,,,,,,,,,,,,
296593,2022-11-27_17h47.10.734,vts_reward_expectancy_bt,2022.2.4,MacIntel,62.5,Safari,1440,900,,,,,,,,,,,,,,,,,,,,,,,146,B,circle,1,0,,1,,,,,,,j,0.996,7,0,7,0,1,,,,,,,,,,,,,,,,,,,,,,,,,,,,,,,,,,
296593,2022-11-27_17h47.10.734,vts_reward_expectancy_bt,2022.2.4,MacIntel,62.5,Safari,1440,900,,,,,,,,,,,,,,,,,,,,,,,132,Y,star,1,0,,1,,,,,,,k,1.531,8,0,8,0,1,,,,,,,,,,,,,,,,,,,,,,,,,,,,,,,,,,
296593,2022-11-27_17h47.10.734,vts_reward_expectancy_bt,2022.2.4,MacIntel,62.5,Safari,1440,900,,,,,,,,,,,,,,,,,,,,,,,125,F,hexagon,1,0,,1,,,,,,,j,1.35,9,0,9,0,1,,,,,,,,,,,,,,,,,,,,,,,,,,,,,,,,,,
296593,2022-11-27_17h47.10.734,vts_reward_expectancy_bt,2022.2.4,MacIntel,62.5,Safari,1440,900,,,,,0,585,,,,,,,,,,,,,,,,,160,D,hexagon,0,0,,2,,,,,,,,,,,,,,-1,number,NA,d,1.76,vtsPrac,0,0,0,0,1,,,,,,,,,,,,,,,,,,,,,,,
296593,2022-11-27_17h47.10.734,vts_reward_expectancy_bt,2022.2.4,MacIntel,62.5,Safari,1440,900,,,,,0,585,,,,,,,,,,,,,,,,,181,B,triangle,-1,1,,2,,,,,,,,,,,,,,switch,no_choice,NA,,,vtsPrac,1,0,1,0,1,,,,,,,,,,,,,,,,,,,,,,,
296593,2022-11-27_17h47.10.734,vts_reward_expectancy_bt,2022.2.4,MacIntel,62.5,Safari,1440,900,,,,,0,585,,,,,,,,,,,,,,,,,146,H,hexagon,1,0,,2,,,,,,,,,,,,,,switch,number,numSwt,d,1.311,vtsPrac,2,0,2,0,1,,,,,,,,,,,,,,,,,,,,,,,
296593,2022-11-27_17h47.10.734,vts_reward_expectancy_bt,2022.2.4,MacIntel,62.5,Safari,1440,900,,,,,0,585,,,,,,,,,,,,,,,,,132,F,triangle,1,0,,2,,,,,,,,,,,,,,switch,letter,lettSwt,j,1.104,vtsPrac,3,0,3,0,1,,,,,,,,,,,,,,,,,,,,,,,
296593,2022-11-27_17h47.10.734,vts_reward_expectancy_bt,2022.2.4,MacIntel,62.5,Safari,1440,900,,,,,0,585,,,,,,,,,,,,,,,,,160,D,hexagon,0,0,,2,,,,,,,,,,,,,,repeat,letter,NA,k,1.42,vtsPrac,4,0,4,0,1,,,,,,,,,,,,,,,,,,,,,,,
296593,2022-11-27_17h47.10.734,vts_reward_expectancy_bt,2022.2.4,MacIntel,62.5,Safari,1440,900,,,,,0,585,,,,,,,,,,,,,,,,,181,B,circle,1,1,,2,,,,,,,,,,,,,,switch,number,numSwt,f,2.585,vtsPrac,5,0,5,0,1,,,,,,,,,,,,,,,,,,,,,,,
296593,2022-11-27_17h47.10.734,vts_reward_expectancy_bt,2022.2.4,MacIntel,62.5,Safari,1440,900,,,,,0,585,,,,,,,,,,,,,,,,,146,H,triangle,1,0,,2,,,,,,,,,,,,,,switch,letter,lettSwt,j,1.763,vtsPrac,6,0,6,0,1,,,,,,,,,,,,,,,,,,,,,,,
296593,2022-11-27_17h47.10.734,vts_reward_expectancy_bt,2022.2.4,MacIntel,62.5,Safari,1440,900,,,,,0,585,,,,,,,,,,,,,,,,,132,F,star,1,0,,2,,,,,,,,,,,,,,repeat,letter,lettRpt,j,1.021,vtsPrac,7,0,7,0,1,,,,,,,,,,,,,,,,,,,,,,,
296593,2022-11-27_17h47.10.734,vts_reward_expectancy_bt,2022.2.4,MacIntel,62.5,Safari,1440,900,,,,,0,585,,,,,,,,,,,,,,,,,132,D,star,1,0,,2,,,,,,,,,,,,,,repeat,letter,lettRpt,j,1.049,vtsPrac,8,0,8,0,1,,,,,,,,,,,,,,,,,,,,,,,
296593,2022-11-27_17h47.10.734,vts_reward_expectancy_bt,2022.2.4,MacIntel,62.5,Safari,1440,900,,,,,0,585,,,,,,,,,,,,,,,,,146,S,hexagon,1,0,,2,,,,,,,,,,,,,,repeat,letter,lettRpt,k,1.864,vtsPrac,9,0,9,0,1,,,,,,,,,,,,,,,,,,,,,,,
296593,2022-11-27_17h47.10.734,vts_reward_expectancy_bt,2022.2.4,MacIntel,62.5,Safari,1440,900,,,,,0,585,,,,,,,,,,,,,,,,,167,F,triangle,1,0,,2,,,,,,,,,,,,,,repeat,letter,lettRpt,j,2.03,vtsPrac,10,0,10,0,1,,,,,,,,,,,,,,,,,,,,,,,
296593,2022-11-27_17h47.10.734,vts_reward_expectancy_bt,2022.2.4,MacIntel,62.5,Safari,1440,900,,,,,0,585,,,,,,,,,,,,,,,,,125,W,circle,1,0,,2,,,,,,,,,,,,,,repeat,letter,lettRpt,k,2.264,vtsPrac,11,0,11,0,1,,,,,,,,,,,,,,,,,,,,,,,
296593,2022-11-27_17h47.10.734,vts_reward_expectancy_bt,2022.2.4,MacIntel,62.5,Safari,1440,900,,,,,0,585,,,,,,,,,,,,,,,,,160,U,circle,1,0,,2,,,,,,,,,,,,,,repeat,letter,lettRpt,k,1.614,vtsPrac,12,0,12,0,1,,,,,,,,,,,,,,,,,,,,,,,
296593,2022-11-27_17h47.10.734,vts_reward_expectancy_bt,2022.2.4,MacIntel,62.5,Safari,1440,900,,,,,0,585,,,,,,,,,,,,,,,,,146,B,star,1,0,,2,,,,,,,,,,,,,,repeat,letter,lettRpt,j,1.147,vtsPrac,13,0,13,0,1,,,,,,,,,,,,,,,,,,,,,,,
296593,2022-11-27_17h47.10.734,vts_reward_expectancy_bt,2022.2.4,MacIntel,62.5,Safari,1440,900,,,,,0,585,,,,,,,,,,,,,,,,,181,W,circle,1,0,,2,,,,,,,,,,,,,,repeat,letter,lettRpt,k,0.954,vtsPrac,14,0,14,0,1,,,,,,,,,,,,,,,,,,,,,,,
296593,2022-11-27_17h47.10.734,vts_reward_expectancy_bt,2022.2.4,MacIntel,62.5,Safari,1440,900,,,,,0,585,,,,,,,,,,,,,,,,,132,D,triangle,1,0,,2,,,,,,,,,,,,,,switch,number,numSwt,d,1.117,vtsPrac,15,0,15,0,1,,,,,,,,,,,,,,,,,,,,,,,
296593,2022-11-27_17h47.10.734,vts_reward_expectancy_bt,2022.2.4,MacIntel,62.5,Safari,1440,900,,,,,0,585,,,,,,,,,,,,,,,,,146,S,star,1,0,,2,,,,,,,,,,,,,,switch,letter,lettSwt,k,1.764,vtsPrac,16,0,16,0,1,,,,,,,,,,,,,,,,,,,,,,,
296593,2022-11-27_17h47.10.734,vts_reward_expectancy_bt,2022.2.4,MacIntel,62.5,Safari,1440,900,,,,,0,585,,,,,,,,,,,,,,,,,125,F,circle,1,0,,2,,,,,,,,,,,,,,repeat,letter,lettRpt,j,1.302,vtsPrac,17,0,17,0,1,,,,,,,,,,,,,,,,,,,,,,,
296593,2022-11-27_17h47.10.734,vts_reward_expectancy_bt,2022.2.4,MacIntel,62.5,Safari,1440,900,,,,,0,585,,,,,,,,,,,,,,,,,181,W,star,1,0,,2,,,,,,,,,,,,,,repeat,letter,lettRpt,k,1.003,vtsPrac,18,0,18,0,1,,,,,,,,,,,,,,,,,,,,,,,
296593,2022-11-27_17h47.10.734,vts_reward_expectancy_bt,2022.2.4,MacIntel,62.5,Safari,1440,900,,,,,0,585,,,,,,,,,,,,,,,,,167,U,hexagon,1,0,,2,,,,,,,,,,,,,,repeat,letter,lettRpt,k,1.303,vtsPrac,19,0,19,0,1,,,,,,,,,,,,,,,,,,,,,,,
296593,2022-11-27_17h47.10.734,vts_reward_expectancy_bt,2022.2.4,MacIntel,62.5,Safari,1440,900,,,,,0,585,,,,,,,,,,,,,,,,,174,F,star,0,0,,2,,,,,,,,,,,,,,repeat,letter,NA,k,0.78,vtsPrac,20,0,20,0,1,,,,,,,,,,,,,,,,,,,,,,,
296593,2022-11-27_17h47.10.734,vts_reward_expectancy_bt,2022.2.4,MacIntel,62.5,Safari,1440,900,,,,,0,585,,,,,,,,,,,,,,,,,146,Y,circle,1,1,,2,,,,,,,,,,,,,,repeat,letter,lettRpt,k,1.809,vtsPrac,21,0,21,0,1,,,,,,,,,,,,,,,,,,,,,,,
296593,2022-11-27_17h47.10.734,vts_reward_expectancy_bt,2022.2.4,MacIntel,62.5,Safari,1440,900,,,,,0,585,,,,,,,,,,,,,,,,,125,W,triangle,1,0,,2,,,,,,,,,,,,,,repeat,letter,lettRpt,k,1.712,vtsPrac,22,0,22,0,1,,,,,,,,,,,,,,,,,,,,,,,
296593,2022-11-27_17h47.10.734,vts_reward_expectancy_bt,2022.2.4,MacIntel,62.5,Safari,1440,900,,,,,0,585,,,,,,,,,,,,,,,,,132,S,hexagon,1,0,,2,,,,,,,,,,,,,,switch,number,numSwt,d,1.433,vtsPrac,23,0,23,0,1,,,,,,,,,,,,,,,,,,,,,,,
296593,2022-11-27_17h47.10.734,vts_reward_expectancy_bt,2022.2.4,MacIntel,62.5,Safari,1440,900,,,,,0,585,,,,,,,,,,,,,,,,,160,D,circle,1,0,,2,,,,,,,,,,,,,,switch,letter,lettSwt,j,1.987,vtsPrac,24,0,24,0,1,,,,,,,,,,,,,,,,,,,,,,,
296593,2022-11-27_17h47.10.734,vts_reward_expectancy_bt,2022.2.4,MacIntel,62.5,Safari,1440,900,,,,,0,585,,,,,,,,,,,,,,,,,139,W,star,1,0,,2,,,,,,,,,,,,,,switch,number,numSwt,d,1.896,vtsPrac,25,0,25,0,1,,,,,,,,,,,,,,,,,,,,,,,
296593,2022-11-27_17h47.10.734,vts_reward_expectancy_bt,2022.2.4,MacIntel,62.5,Safari,1440,900,,,,,0,585,,,,,,,,,,,,,,,,,132,U,hexagon,1,0,,2,,,,,,,,,,,,,,switch,letter,lettSwt,k,1.312,vtsPrac,26,0,26,0,1,,,,,,,,,,,,,,,,,,,,,,,
296593,2022-11-27_17h47.10.734,vts_reward_expectancy_bt,2022.2.4,MacIntel,62.5,Safari,1440,900,,,,,0,585,,,,,,,,,,,,,,,,,167,S,triangle,1,0,,2,,,,,,,,,,,,,,repeat,letter,lettRpt,k,1.347,vtsPrac,27,0,27,0,1,,,,,,,,,,,,,,,,,,,,,,,
296593,2022-11-27_17h47.10.734,vts_reward_expectancy_bt,2022.2.4,MacIntel,62.5,Safari,1440,900,,,,,0,585,,,,,,,,,,,,,,,,,125,F,hexagon,1,0,,2,,,,,,,,,,,,,,repeat,letter,lettRpt,j,1.663,vtsPrac,28,0,28,0,1,,,,,,,,,,,,,,,,,,,,,,,
296593,2022-11-27_17h47.10.734,vts_reward_expectancy_bt,2022.2.4,MacIntel,62.5,Safari,1440,900,,,,,0,585,,,,,,,,,,,,,,,,,132,Y,circle,1,0,,2,,,,,,,,,,,,,,repeat,letter,lettRpt,k,1.547,vtsPrac,29,0,29,0,1,,,,,,,,,,,,,,,,,,,,,,,
296593,2022-11-27_17h47.10.734,vts_reward_expectancy_bt,2022.2.4,MacIntel,62.5,Safari,1440,900,,,,,0,585,,,,,,,,,,,,,,,,,174,U,triangle,1,0,,2,,,,,,,,,,,,,,repeat,letter,lettRpt,k,1.416,vtsPrac,30,0,30,0,1,,,,,,,,,,,,,,,,,,,,,,,
296593,2022-11-27_17h47.10.734,vts_reward_expectancy_bt,2022.2.4,MacIntel,62.5,Safari,1440,900,,,,,0,585,,,,,,,,,,,,,,,,,146,B,star,1,0,,2,,,,,,,,,,,,,,repeat,letter,lettRpt,j,2.413,vtsPrac,31,0,31,0,1,,,,,,,,,,,,,,,,,,,,,,,
296593,2022-11-27_17h47.10.734,vts_reward_expectancy_bt,2022.2.4,MacIntel,62.5,Safari,1440,900,,,,,,,,,,,,,,,,,,,,,,,,,,,,,,,,,,,,,,,,,,,,,,,,,,,,,,,,,,,,,,,,,,,,,,,,,,,,
296593,2022-11-27_17h47.10.734,vts_reward_expectancy_bt,2022.2.4,MacIntel,62.5,Safari,1440,900,,,,,,,,,,,,,,,,,,,,,,,,,,,,,,,,,,,,,,,,,,,,,,,,,,,,,,,,,,,,,,,,,,,,,,,,,,,,
296593,2022-11-27_17h47.10.734,vts_reward_expectancy_bt,2022.2.4,MacIntel,62.5,Safari,1440,900,,,,,0,585,,,,,,,,,,,,,,,,,160,B,hexagon,0,0,,,,,,,,,,,,,,,,switch,number,NA,d,2.497,noRew,,,,,,0,0,0,0,0,1,,,,,,,,,,,,,,,,,
296593,2022-11-27_17h47.10.734,vts_reward_expectancy_bt,2022.2.4,MacIntel,62.5,Safari,1440,900,,,,,0,585,,,,,,,,,,,,,,,,,146,Y,star,1,1,,,,,,,,,,,,,,,,repeat,number,numRpt,d,2.068,noRew,,,,,,0,1,0,1,0,1,,,,,,,,,,,,,,,,,
296593,2022-11-27_17h47.10.734,vts_reward_expectancy_bt,2022.2.4,MacIntel,62.5,Safari,1440,900,,,,,0,585,,,,,,,,,,,,,,,,,181,D,hexagon,1,0,,,,,,,,,,,,,,,,repeat,number,numRpt,f,2.562,noRew,,,,,,0,2,0,2,0,1,,,,,,,,,,,,,,,,,
296593,2022-11-27_17h47.10.734,vts_reward_expectancy_bt,2022.2.4,MacIntel,62.5,Safari,1440,900,,,,,0,585,,,,,,,,,,,,,,,,,167,S,star,1,0,,,,,,,,,,,,,,,,switch,letter,lettSwt,k,1.446,noRew,,,,,,0,3,0,3,0,1,,,,,,,,,,,,,,,,,
296593,2022-11-27_17h47.10.734,vts_reward_expectancy_bt,2022.2.4,MacIntel,62.5,Safari,1440,900,,,,,0,585,,,,,,,,,,,,,,,,,160,B,star,1,0,,,,,,,,,,,,,,,,repeat,letter,lettRpt,j,2.938,noRew,,,,,,0,4,0,4,0,1,,,,,,,,,,,,,,,,,
296593,2022-11-27_17h47.10.734,vts_reward_expectancy_bt,2022.2.4,MacIntel,62.5,Safari,1440,900,,,,,0,585,,,,,,,,,,,,,,,,,146,Y,circle,0,0,,,,,,,,,,,,,,,,switch,number,NA,f,1.485,noRew,,,,,,0,5,0,5,0,1,,,,,,,,,,,,,,,,,
296593,2022-11-27_17h47.10.734,vts_reward_expectancy_bt,2022.2.4,MacIntel,62.5,Safari,1440,900,,,,,0,585,,,,,,,,,,,,,,,,,181,D,star,1,1,,,,,,,,,,,,,,,,switch,letter,lettSwt,j,2.235,noRew,,,,,,0,6,0,6,0,1,,,,,,,,,,,,,,,,,
296593,2022-11-27_17h47.10.734,vts_reward_expectancy_bt,2022.2.4,MacIntel,62.5,Safari,1440,900,,,,,0,585,,,,,,,,,,,,,,,,,167,S,hexagon,1,0,,,,,,,,,,,,,,,,repeat,letter,lettRpt,k,1.283,noRew,,,,,,0,7,0,7,0,1,,,,,,,,,,,,,,,,,
296593,2022-11-27_17h47.10.734,vts_reward_expectancy_bt,2022.2.4,MacIntel,62.5,Safari,1440,900,,,,,0,585,,,,,,,,,,,,,,,,,181,U,circle,1,0,,,,,,,,,,,,,,,,repeat,letter,lettRpt,k,1.265,noRew,,,,,,0,8,0,8,0,1,,,,,,,,,,,,,,,,,
296593,2022-11-27_17h47.10.734,vts_reward_expectancy_bt,2022.2.4,MacIntel,62.5,Safari,1440,900,,,,,0,585,,,,,,,,,,,,,,,,,167,S,hexagon,1,0,,,,,,,,,,,,,,,,repeat,letter,lettRpt,k,1.415,noRew,,,,,,0,9,0,9,0,1,,,,,,,,,,,,,,,,,
296593,2022-11-27_17h47.10.734,vts_reward_expectancy_bt,2022.2.4,MacIntel,62.5,Safari,1440,900,,,,,0,585,,,,,,,,,,,,,,,,,160,W,star,1,0,,,,,,,,,,,,,,,,switch,number,numSwt,f,1.163,noRew,,,,,,0,10,0,10,0,1,,,,,,,,,,,,,,,,,
296593,2022-11-27_17h47.10.734,vts_reward_expectancy_bt,2022.2.4,MacIntel,62.5,Safari,1440,900,,,,,0,585,,,,,,,,,,,,,,,,,146,F,circle,1,0,,,,,,,,,,,,,,,,switch,letter,lettSwt,j,2.099,noRew,,,,,,0,11,0,11,0,1,,,,,,,,,,,,,,,,,
296593,2022-11-27_17h47.10.734,vts_reward_expectancy_bt,2022.2.4,MacIntel,62.5,Safari,1440,900,,,,,0,585,,,,,,,,,,,,,,,,,139,W,hexagon,1,0,,,,,,,,,,,,,,,,switch,number,numSwt,d,1.514,noRew,,,,,,0,12,0,12,0,1,,,,,,,,,,,,,,,,,
296593,2022-11-27_17h47.10.734,vts_reward_expectancy_bt,2022.2.4,MacIntel,62.5,Safari,1440,900,,,,,0,585,,,,,,,,,,,,,,,,,167,B,circle,1,0,,,,,,,,,,,,,,,,repeat,number,numRpt,f,2.163,noRew,,,,,,0,13,0,13,0,1,,,,,,,,,,,,,,,,,
296593,2022-11-27_17h47.10.734,vts_reward_expectancy_bt,2022.2.4,MacIntel,62.5,Safari,1440,900,,,,,0,585,,,,,,,,,,,,,,,,,132,H,circle,1,0,,,,,,,,,,,,,,,,switch,letter,lettSwt,j,1.447,noRew,,,,,,0,14,0,14,0,1,,,,,,,,,,,,,,,,,
296593,2022-11-27_17h47.10.734,vts_reward_expectancy_bt,2022.2.4,MacIntel,62.5,Safari,1440,900,,,,,0,585,,,,,,,,,,,,,,,,,146,Y,hexagon,1,0,,,,,,,,,,,,,,,,switch,number,numSwt,d,1.847,noRew,,,,,,0,15,0,15,0,1,,,,,,,,,,,,,,,,,
296593,2022-11-27_17h47.10.734,vts_reward_expectancy_bt,2022.2.4,MacIntel,62.5,Safari,1440,900,,,,,0,585,,,,,,,,,,,,,,,,,125,B,circle,1,0,,,,,,,,,,,,,,,,switch,letter,lettSwt,j,1.146,noRew,,,,,,0,16,0,16,0,1,,,,,,,,,,,,,,,,,
296593,2022-11-27_17h47.10.734,vts_reward_expectancy_bt,2022.2.4,MacIntel,62.5,Safari,1440,900,,,,,0,585,,,,,,,,,,,,,,,,,160,U,triangle,1,0,,,,,,,,,,,,,,,,switch,number,numSwt,f,1.264,noRew,,,,,,0,17,0,17,0,1,,,,,,,,,,,,,,,,,
296593,2022-11-27_17h47.10.734,vts_reward_expectancy_bt,2022.2.4,MacIntel,62.5,Safari,1440,900,,,,,0,585,,,,,,,,,,,,,,,,,167,D,triangle,-1,0,,,,,,,,,,,,,,,,switch,no_choice,NA,,,noRew,,,,,,0,18,0,18,0,1,,,,,,,,,,,,,,,,,
296593,2022-11-27_17h47.10.734,vts_reward_expectancy_bt,2022.2.4,MacIntel,62.5,Safari,1440,900,,,,,0,585,,,,,,,,,,,,,,,,,146,H,hexagon,1,0,,,,,,,,,,,,,,,,switch,number,numSwt,d,1.485,noRew,,,,,,0,19,0,19,0,1,,,,,,,,,,,,,,,,,
296593,2022-11-27_17h47.10.734,vts_reward_expectancy_bt,2022.2.4,MacIntel,62.5,Safari,1440,900,,,,,0,585,,,,,,,,,,,,,,,,,139,F,triangle,1,0,,,,,,,,,,,,,,,,repeat,number,numRpt,d,1.297,noRew,,,,,,0,20,0,20,0,1,,,,,,,,,,,,,,,,,
296593,2022-11-27_17h47.10.734,vts_reward_expectancy_bt,2022.2.4,MacIntel,62.5,Safari,1440,900,,,,,0,585,,,,,,,,,,,,,,,,,146,B,star,1,0,,,,,,,,,,,,,,,,switch,letter,lettSwt,j,1.246,noRew,,,,,,0,21,0,21,0,1,,,,,,,,,,,,,,,,,
296593,2022-11-27_17h47.10.734,vts_reward_expectancy_bt,2022.2.4,MacIntel,62.5,Safari,1440,900,,,,,0,585,,,,,,,,,,,,,,,,,132,D,star,1,0,,,,,,,,,,,,,,,,switch,number,numSwt,d,1.463,noRew,,,,,,0,22,0,22,0,1,,,,,,,,,,,,,,,,,
296593,2022-11-27_17h47.10.734,vts_reward_expectancy_bt,2022.2.4,MacIntel,62.5,Safari,1440,900,,,,,0,585,,,,,,,,,,,,,,,,,181,U,circle,1,0,,,,,,,,,,,,,,,,repeat,number,numRpt,f,1.213,noRew,,,,,,0,23,0,23,0,1,,,,,,,,,,,,,,,,,
296593,2022-11-27_17h47.10.734,vts_reward_expectancy_bt,2022.2.4,MacIntel,62.5,Safari,1440,900,,,,,0,585,,,,,,,,,,,,,,,,,139,S,circle,1,0,,,,,,,,,,,,,,,,repeat,number,numRpt,d,1.42,noRew,,,,,,0,24,0,24,0,1,,,,,,,,,,,,,,,,,
296593,2022-11-27_17h47.10.734,vts_reward_expectancy_bt,2022.2.4,MacIntel,62.5,Safari,1440,900,,,,,0,585,,,,,,,,,,,,,,,,,132,F,triangle,1,0,,,,,,,,,,,,,,,,repeat,number,numRpt,d,1.187,noRew,,,,,,0,25,0,25,0,1,,,,,,,,,,,,,,,,,
296593,2022-11-27_17h47.10.734,vts_reward_expectancy_bt,2022.2.4,MacIntel,62.5,Safari,1440,900,,,,,0,585,,,,,,,,,,,,,,,,,174,U,triangle,1,0,,,,,,,,,,,,,,,,switch,letter,lettSwt,k,1.313,noRew,,,,,,0,26,0,26,0,1,,,,,,,,,,,,,,,,,
296593,2022-11-27_17h47.10.734,vts_reward_expectancy_bt,2022.2.4,MacIntel,62.5,Safari,1440,900,,,,,0,585,,,,,,,,,,,,,,,,,146,H,hexagon,1,0,,,,,,,,,,,,,,,,switch,number,numSwt,d,1.915,noRew,,,,,,0,27,0,27,0,1,,,,,,,,,,,,,,,,,
296593,2022-11-27_17h47.10.734,vts_reward_expectancy_bt,2022.2.4,MacIntel,62.5,Safari,1440,900,,,,,0,585,,,,,,,,,,,,,,,,,174,D,star,-1,0,,,,,,,,,,,,,,,,switch,no_choice,NA,,,noRew,,,,,,0,28,0,28,0,1,,,,,,,,,,,,,,,,,
296593,2022-11-27_17h47.10.734,vts_reward_expectancy_bt,2022.2.4,MacIntel,62.5,Safari,1440,900,,,,,0,585,,,,,,,,,,,,,,,,,139,Y,triangle,1,0,,,,,,,,,,,,,,,,switch,letter,lettSwt,k,2.063,noRew,,,,,,0,29,0,29,0,1,,,,,,,,,,,,,,,,,
296593,2022-11-27_17h47.10.734,vts_reward_expectancy_bt,2022.2.4,MacIntel,62.5,Safari,1440,900,,,,,0,585,,,,,,,,,,,,,,,,,181,B,star,1,0,,,,,,,,,,,,,,,,switch,number,numSwt,f,1.582,noRew,,,,,,0,30,0,30,0,1,,,,,,,,,,,,,,,,,
296593,2022-11-27_17h47.10.734,vts_reward_expectancy_bt,2022.2.4,MacIntel,62.5,Safari,1440,900,,,,,0,585,,,,,,,,,,,,,,,,,167,F,triangle,1,0,,,,,,,,,,,,,,,,switch,letter,lettSwt,j,1.631,noRew,,,,,,0,31,0,31,0,1,,,,,,,,,,,,,,,,,
296593,2022-11-27_17h47.10.734,vts_reward_expectancy_bt,2022.2.4,MacIntel,62.5,Safari,1440,900,,,,,0,585,,,,,,,,,,,,,,,,,160,Y,triangle,1,0,,,,,,,,,,,,,,,,switch,number,numSwt,f,1.129,noRew,,,,,,0,32,0,32,0,1,,,,,,,,,,,,,,,,,
296593,2022-11-27_17h47.10.734,vts_reward_expectancy_bt,2022.2.4,MacIntel,62.5,Safari,1440,900,,,,,0,585,,,,,,,,,,,,,,,,,125,H,star,1,0,,,,,,,,,,,,,,,,switch,letter,lettSwt,j,1.166,noRew,,,,,,0,33,0,33,0,1,,,,,,,,,,,,,,,,,
296593,2022-11-27_17h47.10.734,vts_reward_expectancy_bt,2022.2.4,MacIntel,62.5,Safari,1440,900,,,,,0,585,,,,,,,,,,,,,,,,,139,D,star,1,0,,,,,,,,,,,,,,,,switch,number,numSwt,d,1.114,noRew,,,,,,0,34,0,34,0,1,,,,,,,,,,,,,,,,,
296593,2022-11-27_17h47.10.734,vts_reward_expectancy_bt,2022.2.4,MacIntel,62.5,Safari,1440,900,,,,,0,585,,,,,,,,,,,,,,,,,181,B,triangle,1,0,,,,,,,,,,,,,,,,switch,letter,lettSwt,j,1.63,noRew,,,,,,0,35,0,35,0,1,,,,,,,,,,,,,,,,,
296593,2022-11-27_17h47.10.734,vts_reward_expectancy_bt,2022.2.4,MacIntel,62.5,Safari,1440,900,,,,,0,585,,,,,,,,,,,,,,,,,160,Y,hexagon,1,0,,,,,,,,,,,,,,,,switch,number,numSwt,f,1.43,noRew,,,,,,0,36,0,36,0,1,,,,,,,,,,,,,,,,,
296593,2022-11-27_17h47.10.734,vts_reward_expectancy_bt,2022.2.4,MacIntel,62.5,Safari,1440,900,,,,,0,585,,,,,,,,,,,,,,,,,125,S,star,1,0,,,,,,,,,,,,,,,,switch,letter,lettSwt,k,2.022,noRew,,,,,,0,37,0,37,0,1,,,,,,,,,,,,,,,,,
296593,2022-11-27_17h47.10.734,vts_reward_expectancy_bt,2022.2.4,MacIntel,62.5,Safari,1440,900,,,,,0,585,,,,,,,,,,,,,,,,,146,W,circle,1,0,,,,,,,,,,,,,,,,repeat,letter,lettRpt,k,2.014,noRew,,,,,,0,38,0,38,0,1,,,,,,,,,,,,,,,,,
296593,2022-11-27_17h47.10.734,vts_reward_expectancy_bt,2022.2.4,MacIntel,62.5,Safari,1440,900,,,,,0,585,,,,,,,,,,,,,,,,,174,D,hexagon,1,0,,,,,,,,,,,,,,,,repeat,letter,lettRpt,j,2.315,noRew,,,,,,0,39,0,39,0,1,,,,,,,,,,,,,,,,,
296593,2022-11-27_17h47.10.734,vts_reward_expectancy_bt,2022.2.4,MacIntel,62.5,Safari,1440,900,,,,,0,585,,,,,,,,,,,,,,,,,160,U,hexagon,1,0,,,,,,,,,,,,,,,,repeat,letter,lettRpt,k,1.162,noRew,,,,,,0,40,0,40,0,1,,,,,,,,,,,,,,,,,
296593,2022-11-27_17h47.10.734,vts_reward_expectancy_bt,2022.2.4,MacIntel,62.5,Safari,1440,900,,,,,0,585,,,,,,,,,,,,,,,,,167,S,triangle,1,0,,,,,,,,,,,,,,,,switch,number,numSwt,f,1.345,noRew,,,,,,0,41,0,41,0,1,,,,,,,,,,,,,,,,,
296593,2022-11-27_17h47.10.734,vts_reward_expectancy_bt,2022.2.4,MacIntel,62.5,Safari,1440,900,,,,,0,585,,,,,,,,,,,,,,,,,125,H,star,1,0,,,,,,,,,,,,,,,,switch,letter,lettSwt,j,1.136,noRew,,,,,,0,42,0,42,0,1,,,,,,,,,,,,,,,,,
296593,2022-11-27_17h47.10.734,vts_reward_expectancy_bt,2022.2.4,MacIntel,62.5,Safari,1440,900,,,,,0,585,,,,,,,,,,,,,,,,,132,D,circle,1,0,,,,,,,,,,,,,,,,repeat,letter,lettRpt,j,1.08,noRew,,,,,,0,43,0,43,0,1,,,,,,,,,,,,,,,,,
296593,2022-11-27_17h47.10.734,vts_reward_expectancy_bt,2022.2.4,MacIntel,62.5,Safari,1440,900,,,,,0,585,,,,,,,,,,,,,,,,,139,B,star,1,0,,,,,,,,,,,,,,,,switch,number,numSwt,d,0.97,noRew,,,,,,0,44,0,44,0,1,,,,,,,,,,,,,,,,,
296593,2022-11-27_17h47.10.734,vts_reward_expectancy_bt,2022.2.4,MacIntel,62.5,Safari,1440,900,,,,,0,585,,,,,,,,,,,,,,,,,174,U,triangle,1,0,,,,,,,,,,,,,,,,repeat,number,numRpt,f,0.98,noRew,,,,,,0,45,0,45,0,1,,,,,,,,,,,,,,,,,
296593,2022-11-27_17h47.10.734,vts_reward_expectancy_bt,2022.2.4,MacIntel,62.5,Safari,1440,900,,,,,0,585,,,,,,,,,,,,,,,,,146,H,hexagon,1,0,,,,,,,,,,,,,,,,repeat,number,numRpt,d,1.831,noRew,,,,,,0,46,0,46,0,1,,,,,,,,,,,,,,,,,
296593,2022-11-27_17h47.10.734,vts_reward_expectancy_bt,2022.2.4,MacIntel,62.5,Safari,1440,900,,,,,0,585,,,,,,,,,,,,,,,,,181,D,triangle,1,0,,,,,,,,,,,,,,,,repeat,number,numRpt,f,1.502,noRew,,,,,,0,47,0,47,0,1,,,,,,,,,,,,,,,,,
296593,2022-11-27_17h47.10.734,vts_reward_expectancy_bt,2022.2.4,MacIntel,62.5,Safari,1440,900,,,,,0,585,,,,,,,,,,,,,,,,,125,S,circle,1,0,,,,,,,,,,,,,,,,repeat,number,numRpt,d,2.802,noRew,,,,,,0,48,0,48,0,1,,,,,,,,,,,,,,,,,
296593,2022-11-27_17h47.10.734,vts_reward_expectancy_bt,2022.2.4,MacIntel,62.5,Safari,1440,900,,,,,0,585,,,,,,,,,,,,,,,,,139,B,star,1,0,,,,,,,,,,,,,,,,repeat,number,numRpt,d,1.363,noRew,,,,,,0,49,0,49,0,1,,,,,,,,,,,,,,,,,
296593,2022-11-27_17h47.10.734,vts_reward_expectancy_bt,2022.2.4,MacIntel,62.5,Safari,1440,900,,,,,0,585,,,,,,,,,,,,,,,,,132,H,star,1,0,,,,,,,,,,,,,,,,switch,letter,lettSwt,j,1.13,noRew,,,,,,0,50,0,50,0,1,,,,,,,,,,,,,,,,,
296593,2022-11-27_17h47.10.734,vts_reward_expectancy_bt,2022.2.4,MacIntel,62.5,Safari,1440,900,,,,,0,585,,,,,,,,,,,,,,,,,181,F,circle,1,0,,,,,,,,,,,,,,,,repeat,letter,lettRpt,j,1.936,noRew,,,,,,0,51,0,51,0,1,,,,,,,,,,,,,,,,,
296593,2022-11-27_17h47.10.734,vts_reward_expectancy_bt,2022.2.4,MacIntel,62.5,Safari,1440,900,,,,,0,585,,,,,,,,,,,,,,,,,160,Y,triangle,1,0,,,,,,,,,,,,,,,,repeat,letter,lettRpt,k,1.151,noRew,,,,,,0,52,0,52,0,1,,,,,,,,,,,,,,,,,
296593,2022-11-27_17h47.10.734,vts_reward_expectancy_bt,2022.2.4,MacIntel,62.5,Safari,1440,900,,,,,0,585,,,,,,,,,,,,,,,,,146,D,star,1,0,,,,,,,,,,,,,,,,switch,number,numSwt,d,1.121,noRew,,,,,,0,53,0,53,0,1,,,,,,,,,,,,,,,,,
296593,2022-11-27_17h47.10.734,vts_reward_expectancy_bt,2022.2.4,MacIntel,62.5,Safari,1440,900,,,,,0,585,,,,,,,,,,,,,,,,,132,S,triangle,1,0,,,,,,,,,,,,,,,,switch,letter,lettSwt,k,1.997,noRew,,,,,,0,54,0,54,0,1,,,,,,,,,,,,,,,,,
296593,2022-11-27_17h47.10.734,vts_reward_expectancy_bt,2022.2.4,MacIntel,62.5,Safari,1440,900,,,,,0,585,,,,,,,,,,,,,,,,,167,U,circle,1,0,,,,,,,,,,,,,,,,repeat,letter,lettRpt,k,1.193,noRew,,,,,,0,55,0,55,0,1,,,,,,,,,,,,,,,,,
296593,2022-11-27_17h47.10.734,vts_reward_expectancy_bt,2022.2.4,MacIntel,62.5,Safari,1440,900,,,,,0,585,,,,,,,,,,,,,,,,,132,S,circle,1,0,,,,,,,,,,,,,,,,switch,number,numSwt,d,1.729,noRew,,,,,,0,56,0,56,0,1,,,,,,,,,,,,,,,,,
296593,2022-11-27_17h47.10.734,vts_reward_expectancy_bt,2022.2.4,MacIntel,62.5,Safari,1440,900,,,,,0,585,,,,,,,,,,,,,,,,,181,Y,triangle,1,0,,,,,,,,,,,,,,,,switch,letter,lettSwt,k,0.947,noRew,,,,,,0,57,0,57,0,1,,,,,,,,,,,,,,,,,
296593,2022-11-27_17h47.10.734,vts_reward_expectancy_bt,2022.2.4,MacIntel,62.5,Safari,1440,900,,,,,0,585,,,,,,,,,,,,,,,,,160,F,triangle,0,0,,,,,,,,,,,,,,,,repeat,letter,NA,k,1.113,noRew,,,,,,0,58,0,58,0,1,,,,,,,,,,,,,,,,,
296593,2022-11-27_17h47.10.734,vts_reward_expectancy_bt,2022.2.4,MacIntel,62.5,Safari,1440,900,,,,,0,585,,,,,,,,,,,,,,,,,125,H,hexagon,1,1,,,,,,,,,,,,,,,,switch,number,numSwt,d,1.1,noRew,,,,,,0,59,0,59,0,1,,,,,,,,,,,,,,,,,
296593,2022-11-27_17h47.10.734,vts_reward_expectancy_bt,2022.2.4,MacIntel,62.5,Safari,1440,900,,,,,0,585,,,,,,,,,,,,,,,,,132,D,circle,1,0,,,,,,,,,,,,,,,,switch,letter,lettSwt,j,1.114,noRew,,,,,,0,60,0,60,0,1,,,,,,,,,,,,,,,,,
296593,2022-11-27_17h47.10.734,vts_reward_expectancy_bt,2022.2.4,MacIntel,62.5,Safari,1440,900,,,,,0,585,,,,,,,,,,,,,,,,,160,F,hexagon,1,0,,,,,,,,,,,,,,,,switch,number,numSwt,f,1.78,noRew,,,,,,0,61,0,61,0,1,,,,,,,,,,,,,,,,,
296593,2022-11-27_17h47.10.734,vts_reward_expectancy_bt,2022.2.4,MacIntel,62.5,Safari,1440,900,,,,,0,585,,,,,,,,,,,,,,,,,167,U,hexagon,1,0,,,,,,,,,,,,,,,,repeat,number,numRpt,f,1.147,noRew,,,,,,0,62,0,62,0,1,,,,,,,,,,,,,,,,,
296593,2022-11-27_17h47.10.734,vts_reward_expectancy_bt,2022.2.4,MacIntel,62.5,Safari,1440,900,,,,,0,585,,,,,,,,,,,,,,,,,181,B,triangle,1,0,,,,,,,,,,,,,,,,switch,letter,lettSwt,j,1.497,noRew,,,,,,0,63,0,63,0,1,,,,,,,,,,,,,,,,,
296593,2022-11-27_17h47.10.734,vts_reward_expectancy_bt,2022.2.4,MacIntel,62.5,Safari,1440,900,,,,,,,,,,,,,,,,,,,,,,,,,,,,,,,,,,,,,,,,,,,,,,,,,,,,,,,,,,,,,,,,,,,,,,,,,,,,
296593,2022-11-27_17h47.10.734,vts_reward_expectancy_bt,2022.2.4,MacIntel,62.5,Safari,1440,900,,,,,0,585,,,,,,,,,,,,,,,,,132,D,triangle,1,0,,,,,,,,,,,,,,,,repeat,letter,lettRpt,j,1.263,Hi,,,,,,0,,,,,,space,28.892,high,0,0,0,0,1,,,,,,,,,
296593,2022-11-27_17h47.10.734,vts_reward_expectancy_bt,2022.2.4,MacIntel,62.5,Safari,1440,900,,,,,1,586,,,,,,,,,,,,,,,,,167,F,hexagon,1,0,,,,,,,,,,,,,,,,repeat,letter,lettRpt,j,2.281,Lo,,,,,,0,,,,,,,,high,1,0,1,0,1,,,,,,,,,
296593,2022-11-27_17h47.10.734,vts_reward_expectancy_bt,2022.2.4,MacIntel,62.5,Safari,1440,900,,,,,1,587,,,,,,,,,,,,,,,,,139,W,star,1,0,,,,,,,,,,,,,,,,repeat,letter,lettRpt,k,2.613,Lo,,,,,,0,,,,,,,,high,2,0,2,0,1,,,,,,,,,
296593,2022-11-27_17h47.10.734,vts_reward_expectancy_bt,2022.2.4,MacIntel,62.5,Safari,1440,900,,,,,0,587,,,,,,,,,,,,,,,,,160,U,circle,1,0,,,,,,,,,,,,,,,,repeat,letter,lettRpt,k,2.846,Hi,,,,,,0,,,,,,,,high,3,0,3,0,1,,,,,,,,,
296593,2022-11-27_17h47.10.734,vts_reward_expectancy_bt,2022.2.4,MacIntel,62.5,Safari,1440,900,,,,,0,587,,,,,,,,,,,,,,,,,146,S,triangle,0,0,,,,,,,,,,,,,,,,repeat,letter,NA,j,2.599,Hi,,,,,,0,,,,,,,,high,4,0,4,0,1,,,,,,,,,
296593,2022-11-27_17h47.10.734,vts_reward_expectancy_bt,2022.2.4,MacIntel,62.5,Safari,1440,900,,,,,1,588,,,,,,,,,,,,,,,,,125,Y,hexagon,1,1,,,,,,,,,,,,,,,,switch,number,numSwt,d,2.087,Lo,,,,,,0,,,,,,,,high,5,0,5,0,1,,,,,,,,,
296593,2022-11-27_17h47.10.734,vts_reward_expectancy_bt,2022.2.4,MacIntel,62.5,Safari,1440,900,,,,,1,589,,,,,,,,,,,,,,,,,174,H,star,1,0,,,,,,,,,,,,,,,,switch,letter,lettSwt,j,2.221,Lo,,,,,,0,,,,,,,,high,6,0,6,0,1,,,,,,,,,
296593,2022-11-27_17h47.10.734,vts_reward_expectancy_bt,2022.2.4,MacIntel,62.5,Safari,1440,900,,,,,0,589,,,,,,,,,,,,,,,,,181,B,circle,1,0,,,,,,,,,,,,,,,,repeat,letter,lettRpt,j,2.037,Hi,,,,,,0,,,,,,,,high,7,0,7,0,1,,,,,,,,,
296593,2022-11-27_17h47.10.734,vts_reward_expectancy_bt,2022.2.4,MacIntel,62.5,Safari,1440,900,,,,,0,589,,,,,,,,,,,,,,,,,132,D,triangle,1,0,,,,,,,,,,,,,,,,switch,number,numSwt,d,1.797,Hi,,,,,,0,,,,,,,,high,8,0,8,0,1,,,,,,,,,
296593,2022-11-27_17h47.10.734,vts_reward_expectancy_bt,2022.2.4,MacIntel,62.5,Safari,1440,900,,,,,1,590,,,,,,,,,,,,,,,,,167,F,star,1,0,,,,,,,,,,,,,,,,switch,letter,lettSwt,j,2.338,Lo,,,,,,0,,,,,,,,high,9,0,9,0,1,,,,,,,,,
296593,2022-11-27_17h47.10.734,vts_reward_expectancy_bt,2022.2.4,MacIntel,62.5,Safari,1440,900,,,,,0,590,,,,,,,,,,,,,,,,,139,W,circle,1,0,,,,,,,,,,,,,,,,repeat,letter,lettRpt,k,2.146,Hi,,,,,,0,,,,,,,,high,10,0,10,0,1,,,,,,,,,
296593,2022-11-27_17h47.10.734,vts_reward_expectancy_bt,2022.2.4,MacIntel,62.5,Safari,1440,900,,,,,10,600,,,,,,,,,,,,,,,,,160,U,hexagon,1,0,,,,,,,,,,,,,,,,repeat,letter,lettRpt,k,0.954,Lo,,,,,,0,,,,,,,,high,11,0,11,0,1,,,,,,,,,
296593,2022-11-27_17h47.10.734,vts_reward_expectancy_bt,2022.2.4,MacIntel,62.5,Safari,1440,900,,,,,10,610,,,,,,,,,,,,,,,,,146,S,star,1,0,,,,,,,,,,,,,,,,switch,number,numSwt,d,1.547,Lo,,,,,,0,,,,,,,,high,12,0,12,0,1,,,,,,,,,
296593,2022-11-27_17h47.10.734,vts_reward_expectancy_bt,2022.2.4,MacIntel,62.5,Safari,1440,900,,,,,1,611,,,,,,,,,,,,,,,,,125,Y,hexagon,1,0,,,,,,,,,,,,,,,,repeat,number,numRpt,d,1.397,Lo,,,,,,0,,,,,,,,high,13,0,13,0,1,,,,,,,,,
296593,2022-11-27_17h47.10.734,vts_reward_expectancy_bt,2022.2.4,MacIntel,62.5,Safari,1440,900,,,,,0,611,,,,,,,,,,,,,,,,,174,H,triangle,1,0,,,,,,,,,,,,,,,,switch,letter,lettSwt,j,2.183,Hi,,,,,,0,,,,,,,,high,14,0,14,0,1,,,,,,,,,
296593,2022-11-27_17h47.10.734,vts_reward_expectancy_bt,2022.2.4,MacIntel,62.5,Safari,1440,900,,,,,0,611,,,,,,,,,,,,,,,,,181,B,circle,1,0,,,,,,,,,,,,,,,,repeat,letter,lettRpt,j,1.715,Hi,,,,,,0,,,,,,,,high,15,0,15,0,1,,,,,,,,,
296593,2022-11-27_17h47.10.734,vts_reward_expectancy_bt,2022.2.4,MacIntel,62.5,Safari,1440,900,,,,,1,612,,,,,,,,,,,,,,,,,181,H,star,1,0,,,,,,,,,,,,,,,,switch,number,numSwt,f,1.382,Lo,,,,,,0,,,,,,,,high,16,0,16,0,1,,,,,,,,,
296593,2022-11-27_17h47.10.734,vts_reward_expectancy_bt,2022.2.4,MacIntel,62.5,Safari,1440,900,,,,,10,622,,,,,,,,,,,,,,,,,160,S,circle,1,0,,,,,,,,,,,,,,,,switch,letter,lettSwt,k,1.049,Hi,,,,,,0,,,,,,,,high,17,0,17,0,1,,,,,,,,,
296593,2022-11-27_17h47.10.734,vts_reward_expectancy_bt,2022.2.4,MacIntel,62.5,Safari,1440,900,,,,,0,622,,,,,,,,,,,,,,,,,146,Y,triangle,1,0,,,,,,,,,,,,,,,,repeat,letter,lettRpt,k,2.597,Hi,,,,,,0,,,,,,,,high,18,0,18,0,1,,,,,,,,,
296593,2022-11-27_17h47.10.734,vts_reward_expectancy_bt,2022.2.4,MacIntel,62.5,Safari,1440,900,,,,,10,632,,,,,,,,,,,,,,,,,125,W,hexagon,1,0,,,,,,,,,,,,,,,,repeat,letter,lettRpt,k,1.415,Lo,,,,,,0,,,,,,,,high,19,0,19,0,1,,,,,,,,,
296593,2022-11-27_17h47.10.734,vts_reward_expectancy_bt,2022.2.4,MacIntel,62.5,Safari,1440,900,,,,,0,632,,,,,,,,,,,,,,,,,167,B,circle,1,0,,,,,,,,,,,,,,,,switch,number,numSwt,f,1.797,Hi,,,,,,0,,,,,,,,high,20,0,20,0,1,,,,,,,,,
296593,2022-11-27_17h47.10.734,vts_reward_expectancy_bt,2022.2.4,MacIntel,62.5,Safari,1440,900,,,,,1,633,,,,,,,,,,,,,,,,,174,F,hexagon,1,0,,,,,,,,,,,,,,,,switch,letter,lettSwt,j,1.781,Lo,,,,,,0,,,,,,,,high,21,0,21,0,1,,,,,,,,,
296593,2022-11-27_17h47.10.734,vts_reward_expectancy_bt,2022.2.4,MacIntel,62.5,Safari,1440,900,,,,,1,634,,,,,,,,,,,,,,,,,132,U,star,1,0,,,,,,,,,,,,,,,,switch,number,numSwt,d,1.531,Lo,,,,,,0,,,,,,,,high,22,0,22,0,1,,,,,,,,,
296593,2022-11-27_17h47.10.734,vts_reward_expectancy_bt,2022.2.4,MacIntel,62.5,Safari,1440,900,,,,,0,634,,,,,,,,,,,,,,,,,139,D,triangle,1,0,,,,,,,,,,,,,,,,repeat,number,numRpt,d,1.632,Hi,,,,,,0,,,,,,,,high,23,0,23,0,1,,,,,,,,,
296593,2022-11-27_17h47.10.734,vts_reward_expectancy_bt,2022.2.4,MacIntel,62.5,Safari,1440,900,,,,,0,634,,,,,,,,,,,,,,,,,125,S,triangle,1,0,,,,,,,,,,,,,,,,switch,letter,lettSwt,k,1.364,Hi,,,,,,0,,,,,,,,high,24,0,24,0,1,,,,,,,,,
296593,2022-11-27_17h47.10.734,vts_reward_expectancy_bt,2022.2.4,MacIntel,62.5,Safari,1440,900,,,,,1,635,,,,,,,,,,,,,,,,,181,B,hexagon,1,0,,,,,,,,,,,,,,,,repeat,letter,lettRpt,j,1.158,Lo,,,,,,0,,,,,,,,high,25,0,25,0,1,,,,,,,,,
296593,2022-11-27_17h47.10.734,vts_reward_expectancy_bt,2022.2.4,MacIntel,62.5,Safari,1440,900,,,,,1,636,,,,,,,,,,,,,,,,,174,Y,circle,1,0,,,,,,,,,,,,,,,,repeat,letter,lettRpt,k,1.013,Hi,,,,,,0,,,,,,,,high,26,0,26,0,1,,,,,,,,,
296593,2022-11-27_17h47.10.734,vts_reward_expectancy_bt,2022.2.4,MacIntel,62.5,Safari,1440,900,,,,,1,637,,,,,,,,,,,,,,,,,167,U,star,1,0,,,,,,,,,,,,,,,,repeat,letter,lettRpt,k,0.837,Lo,,,,,,0,,,,,,,,high,27,0,27,0,1,,,,,,,,,
296593,2022-11-27_17h47.10.734,vts_reward_expectancy_bt,2022.2.4,MacIntel,62.5,Safari,1440,900,,,,,0,637,,,,,,,,,,,,,,,,,160,H,circle,0,0,,,,,,,,,,,,,,,,repeat,letter,NA,k,0.837,Lo,,,,,,0,,,,,,,,high,28,0,28,0,1,,,,,,,,,
296593,2022-11-27_17h47.10.734,vts_reward_expectancy_bt,2022.2.4,MacIntel,62.5,Safari,1440,900,,,,,0,637,,,,,,,,,,,,,,,,,132,W,triangle,-1,1,,,,,,,,,,,,,,,,switch,no_choice,NA,,,Lo,,,,,,0,,,,,,,,high,29,0,29,0,1,,,,,,,,,
296593,2022-11-27_17h47.10.734,vts_reward_expectancy_bt,2022.2.4,MacIntel,62.5,Safari,1440,900,,,,,1,638,,,,,,,,,,,,,,,,,139,D,hexagon,1,0,,,,,,,,,,,,,,,,switch,number,numSwt,d,1.135,Lo,,,,,,0,,,,,,,,high,30,0,30,0,1,,,,,,,,,
296593,2022-11-27_17h47.10.734,vts_reward_expectancy_bt,2022.2.4,MacIntel,62.5,Safari,1440,900,,,,,1,639,,,,,,,,,,,,,,,,,146,F,star,1,0,,,,,,,,,,,,,,,,switch,letter,lettSwt,j,1.033,Lo,,,,,,0,,,,,,,,high,31,0,31,0,1,,,,,,,,,
296593,2022-11-27_17h47.10.734,vts_reward_expectancy_bt,2022.2.4,MacIntel,62.5,Safari,1440,900,,,,,0,639,,,,,,,,,,,,,,,,,181,F,circle,1,0,,,,,,,,,,,,,,,,repeat,letter,lettRpt,j,1.431,Hi,,,,,,1,,,,,,space,9.334,high,0,0,0,0,1,,,,,,,,,
296593,2022-11-27_17h47.10.734,vts_reward_expectancy_bt,2022.2.4,MacIntel,62.5,Safari,1440,900,,,,,1,640,,,,,,,,,,,,,,,,,174,S,star,1,0,,,,,,,,,,,,,,,,switch,number,numSwt,f,0.851,Lo,,,,,,1,,,,,,,,high,1,0,1,0,1,,,,,,,,,
296593,2022-11-27_17h47.10.734,vts_reward_expectancy_bt,2022.2.4,MacIntel,62.5,Safari,1440,900,,,,,10,650,,,,,,,,,,,,,,,,,160,D,hexagon,1,0,,,,,,,,,,,,,,,,repeat,number,numRpt,f,1.147,Lo,,,,,,1,,,,,,,,high,2,0,2,0,1,,,,,,,,,
296593,2022-11-27_17h47.10.734,vts_reward_expectancy_bt,2022.2.4,MacIntel,62.5,Safari,1440,900,,,,,1,651,,,,,,,,,,,,,,,,,139,B,triangle,1,0,,,,,,,,,,,,,,,,switch,letter,lettSwt,j,0.946,Hi,,,,,,1,,,,,,,,high,3,0,3,0,1,,,,,,,,,
296593,2022-11-27_17h47.10.734,vts_reward_expectancy_bt,2022.2.4,MacIntel,62.5,Safari,1440,900,,,,,10,661,,,,,,,,,,,,,,,,,146,H,circle,1,0,,,,,,,,,,,,,,,,switch,number,numSwt,d,1.146,Hi,,,,,,1,,,,,,,,high,4,0,4,0,1,,,,,,,,,
296593,2022-11-27_17h47.10.734,vts_reward_expectancy_bt,2022.2.4,MacIntel,62.5,Safari,1440,900,,,,,1,662,,,,,,,,,,,,,,,,,125,U,star,1,0,,,,,,,,,,,,,,,,repeat,number,numRpt,d,1.03,Lo,,,,,,1,,,,,,,,high,5,0,5,0,1,,,,,,,,,
296593,2022-11-27_17h47.10.734,vts_reward_expectancy_bt,2022.2.4,MacIntel,62.5,Safari,1440,900,,,,,1,663,,,,,,,,,,,,,,,,,167,Y,hexagon,1,0,,,,,,,,,,,,,,,,repeat,number,numRpt,f,1.045,Lo,,,,,,1,,,,,,,,high,6,0,6,0,1,,,,,,,,,
296593,2022-11-27_17h47.10.734,vts_reward_expectancy_bt,2022.2.4,MacIntel,62.5,Safari,1440,900,,,,,10,673,,,,,,,,,,,,,,,,,132,W,triangle,1,0,,,,,,,,,,,,,,,,repeat,number,numRpt,d,1.264,Hi,,,,,,1,,,,,,,,high,7,0,7,0,1,,,,,,,,,
296593,2022-11-27_17h47.10.734,vts_reward_expectancy_bt,2022.2.4,MacIntel,62.5,Safari,1440,900,,,,,0,673,,,,,,,,,,,,,,,,,181,F,hexagon,0,0,,,,,,,,,,,,,,,,switch,letter,NA,k,0.83,Hi,,,,,,1,,,,,,,,high,8,0,8,0,1,,,,,,,,,
296593,2022-11-27_17h47.10.734,vts_reward_expectancy_bt,2022.2.4,MacIntel,62.5,Safari,1440,900,,,,,1,674,,,,,,,,,,,,,,,,,174,S,star,1,1,,,,,,,,,,,,,,,,switch,number,numSwt,f,0.964,Lo,,,,,,1,,,,,,,,high,9,0,9,0,1,,,,,,,,,
296593,2022-11-27_17h47.10.734,vts_reward_expectancy_bt,2022.2.4,MacIntel,62.5,Safari,1440,900,,,,,0,674,,,,,,,,,,,,,,,,,160,D,triangle,1,0,,,,,,,,,,,,,,,,repeat,number,numRpt,f,1.414,Hi,,,,,,1,,,,,,,,high,10,0,10,0,1,,,,,,,,,
296593,2022-11-27_17h47.10.734,vts_reward_expectancy_bt,2022.2.4,MacIntel,62.5,Safari,1440,900,,,,,10,684,,,,,,,,,,,,,,,,,139,B,circle,1,0,,,,,,,,,,,,,,,,repeat,number,numRpt,d,0.804,Hi,,,,,,1,,,,,,,,high,11,0,11,0,1,,,,,,,,,
296593,2022-11-27_17h47.10.734,vts_reward_expectancy_bt,2022.2.4,MacIntel,62.5,Safari,1440,900,,,,,1,685,,,,,,,,,,,,,,,,,146,H,star,1,0,,,,,,,,,,,,,,,,repeat,number,numRpt,d,0.863,Lo,,,,,,1,,,,,,,,high,12,0,12,0,1,,,,,,,,,
296593,2022-11-27_17h47.10.734,vts_reward_expectancy_bt,2022.2.4,MacIntel,62.5,Safari,1440,900,,,,,10,695,,,,,,,,,,,,,,,,,125,U,circle,1,0,,,,,,,,,,,,,,,,repeat,number,numRpt,d,1.131,Hi,,,,,,1,,,,,,,,high,13,0,13,0,1,,,,,,,,,
296593,2022-11-27_17h47.10.734,vts_reward_expectancy_bt,2022.2.4,MacIntel,62.5,Safari,1440,900,,,,,1,696,,,,,,,,,,,,,,,,,167,Y,hexagon,1,0,,,,,,,,,,,,,,,,switch,letter,lettSwt,k,0.964,Lo,,,,,,1,,,,,,,,high,14,0,14,0,1,,,,,,,,,
296593,2022-11-27_17h47.10.734,vts_reward_expectancy_bt,2022.2.4,MacIntel,62.5,Safari,1440,900,,,,,10,706,,,,,,,,,,,,,,,,,132,W,triangle,1,0,,,,,,,,,,,,,,,,switch,number,numSwt,d,1.071,Hi,,,,,,1,,,,,,,,high,15,0,15,0,1,,,,,,,,,
296593,2022-11-27_17h47.10.734,vts_reward_expectancy_bt,2022.2.4,MacIntel,62.5,Safari,1440,900,,,,,1,707,,,,,,,,,,,,,,,,,139,S,hexagon,1,0,,,,,,,,,,,,,,,,repeat,number,numRpt,d,1.363,Lo,,,,,,1,,,,,,,,high,16,0,16,0,1,,,,,,,,,
296593,2022-11-27_17h47.10.734,vts_reward_expectancy_bt,2022.2.4,MacIntel,62.5,Safari,1440,900,,,,,10,717,,,,,,,,,,,,,,,,,125,F,circle,1,0,,,,,,,,,,,,,,,,repeat,number,numRpt,d,0.771,Hi,,,,,,1,,,,,,,,high,17,0,17,0,1,,,,,,,,,
296593,2022-11-27_17h47.10.734,vts_reward_expectancy_bt,2022.2.4,MacIntel,62.5,Safari,1440,900,,,,,1,718,,,,,,,,,,,,,,,,,174,W,star,1,0,,,,,,,,,,,,,,,,repeat,number,numRpt,f,0.748,Lo,,,,,,1,,,,,,,,high,18,0,18,0,1,,,,,,,,,
296593,2022-11-27_17h47.10.734,vts_reward_expectancy_bt,2022.2.4,MacIntel,62.5,Safari,1440,900,,,,,1,719,,,,,,,,,,,,,,,,,132,U,triangle,1,0,,,,,,,,,,,,,,,,repeat,number,numRpt,d,1.081,Hi,,,,,,1,,,,,,,,high,19,0,19,0,1,,,,,,,,,
296593,2022-11-27_17h47.10.734,vts_reward_expectancy_bt,2022.2.4,MacIntel,62.5,Safari,1440,900,,,,,10,729,,,,,,,,,,,,,,,,,160,Y,triangle,1,0,,,,,,,,,,,,,,,,repeat,number,numRpt,f,0.884,Hi,,,,,,1,,,,,,,,high,20,0,20,0,1,,,,,,,,,
296593,2022-11-27_17h47.10.734,vts_reward_expectancy_bt,2022.2.4,MacIntel,62.5,Safari,1440,900,,,,,0,729,,,,,,,,,,,,,,,,,181,H,star,0,0,,,,,,,,,,,,,,,,repeat,number,NA,d,1.167,Hi,,,,,,1,,,,,,,,high,21,0,21,0,1,,,,,,,,,
296593,2022-11-27_17h47.10.734,vts_reward_expectancy_bt,2022.2.4,MacIntel,62.5,Safari,1440,900,,,,,10,739,,,,,,,,,,,,,,,,,146,D,circle,1,1,,,,,,,,,,,,,,,,repeat,number,numRpt,d,1.097,Hi,,,,,,1,,,,,,,,high,22,0,22,0,1,,,,,,,,,
296593,2022-11-27_17h47.10.734,vts_reward_expectancy_bt,2022.2.4,MacIntel,62.5,Safari,1440,900,,,,,1,740,,,,,,,,,,,,,,,,,167,B,hexagon,1,0,,,,,,,,,,,,,,,,repeat,number,numRpt,f,1.181,Lo,,,,,,1,,,,,,,,high,23,0,23,0,1,,,,,,,,,
296593,2022-11-27_17h47.10.734,vts_reward_expectancy_bt,2022.2.4,MacIntel,62.5,Safari,1440,900,,,,,1,741,,,,,,,,,,,,,,,,,132,B,star,1,0,,,,,,,,,,,,,,,,repeat,number,numRpt,d,0.889,Lo,,,,,,1,,,,,,,,high,24,0,24,0,1,,,,,,,,,
296593,2022-11-27_17h47.10.734,vts_reward_expectancy_bt,2022.2.4,MacIntel,62.5,Safari,1440,900,,,,,10,751,,,,,,,,,,,,,,,,,139,F,triangle,1,0,,,,,,,,,,,,,,,,repeat,number,numRpt,d,1.069,Hi,,,,,,1,,,,,,,,high,25,0,25,0,1,,,,,,,,,
296593,2022-11-27_17h47.10.734,vts_reward_expectancy_bt,2022.2.4,MacIntel,62.5,Safari,1440,900,,,,,0,751,,,,,,,,,,,,,,,,,160,D,circle,1,0,,,,,,,,,,,,,,,,switch,letter,lettSwt,j,1.913,Hi,,,,,,1,,,,,,,,high,26,0,26,0,1,,,,,,,,,
296593,2022-11-27_17h47.10.734,vts_reward_expectancy_bt,2022.2.4,MacIntel,62.5,Safari,1440,900,,,,,1,752,,,,,,,,,,,,,,,,,174,S,hexagon,1,0,,,,,,,,,,,,,,,,switch,number,numSwt,f,1.047,Lo,,,,,,1,,,,,,,,high,27,0,27,0,1,,,,,,,,,
296593,2022-11-27_17h47.10.734,vts_reward_expectancy_bt,2022.2.4,MacIntel,62.5,Safari,1440,900,,,,,10,762,,,,,,,,,,,,,,,,,125,W,star,1,0,,,,,,,,,,,,,,,,repeat,number,numRpt,d,1.581,Lo,,,,,,1,,,,,,,,high,28,0,28,0,1,,,,,,,,,
296593,2022-11-27_17h47.10.734,vts_reward_expectancy_bt,2022.2.4,MacIntel,62.5,Safari,1440,900,,,,,0,762,,,,,,,,,,,,,,,,,181,H,triangle,1,0,,,,,,,,,,,,,,,,repeat,number,numRpt,f,2.066,Hi,,,,,,1,,,,,,,,high,29,0,29,0,1,,,,,,,,,
296593,2022-11-27_17h47.10.734,vts_reward_expectancy_bt,2022.2.4,MacIntel,62.5,Safari,1440,900,,,,,1,763,,,,,,,,,,,,,,,,,167,U,circle,1,0,,,,,,,,,,,,,,,,switch,letter,lettSwt,k,1.08,Hi,,,,,,1,,,,,,,,high,30,0,30,0,1,,,,,,,,,
296593,2022-11-27_17h47.10.734,vts_reward_expectancy_bt,2022.2.4,MacIntel,62.5,Safari,1440,900,,,,,1,764,,,,,,,,,,,,,,,,,146,Y,hexagon,1,0,,,,,,,,,,,,,,,,switch,number,numSwt,d,1.531,Lo,,,,,,1,,,,,,,,high,31,0,31,0,1,,,,,,,,,
296593,2022-11-27_17h47.10.734,vts_reward_expectancy_bt,2022.2.4,MacIntel,62.5,Safari,1440,900,,,,,10,774,,,,,,,,,,,,,,,,,181,B,circle,1,0,,,,,,,,,,,,,,,,switch,letter,lettSwt,j,0.914,Hi,,,,,,2,,,,,,space,1.903,high,0,0,0,0,1,,,,,,,,,
296593,2022-11-27_17h47.10.734,vts_reward_expectancy_bt,2022.2.4,MacIntel,62.5,Safari,1440,900,,,,,1,775,,,,,,,,,,,,,,,,,160,H,star,1,0,,,,,,,,,,,,,,,,repeat,letter,lettRpt,j,1.998,Lo,,,,,,2,,,,,,,,high,1,0,1,0,1,,,,,,,,,
296593,2022-11-27_17h47.10.734,vts_reward_expectancy_bt,2022.2.4,MacIntel,62.5,Safari,1440,900,,,,,1,776,,,,,,,,,,,,,,,,,132,S,hexagon,1,0,,,,,,,,,,,,,,,,repeat,letter,lettRpt,k,1.297,Lo,,,,,,2,,,,,,,,high,2,0,2,0,1,,,,,,,,,
296593,2022-11-27_17h47.10.734,vts_reward_expectancy_bt,2022.2.4,MacIntel,62.5,Safari,1440,900,,,,,10,786,,,,,,,,,,,,,,,,,174,W,triangle,1,0,,,,,,,,,,,,,,,,repeat,letter,lettRpt,k,1.43,Hi,,,,,,2,,,,,,,,high,3,0,3,0,1,,,,,,,,,
296593,2022-11-27_17h47.10.734,vts_reward_expectancy_bt,2022.2.4,MacIntel,62.5,Safari,1440,900,,,,,0,786,,,,,,,,,,,,,,,,,125,D,circle,1,0,,,,,,,,,,,,,,,,switch,number,numSwt,d,1.148,Hi,,,,,,2,,,,,,,,high,4,0,4,0,1,,,,,,,,,
296593,2022-11-27_17h47.10.734,vts_reward_expectancy_bt,2022.2.4,MacIntel,62.5,Safari,1440,900,,,,,10,796,,,,,,,,,,,,,,,,,167,Y,star,1,0,,,,,,,,,,,,,,,,switch,letter,lettSwt,k,1.047,Lo,,,,,,2,,,,,,,,high,5,0,5,0,1,,,,,,,,,
296593,2022-11-27_17h47.10.734,vts_reward_expectancy_bt,2022.2.4,MacIntel,62.5,Safari,1440,900,,,,,1,797,,,,,,,,,,,,,,,,,146,F,hexagon,1,0,,,,,,,,,,,,,,,,switch,number,numSwt,d,0.929,Lo,,,,,,2,,,,,,,,high,6,0,6,0,1,,,,,,,,,
296593,2022-11-27_17h47.10.734,vts_reward_expectancy_bt,2022.2.4,MacIntel,62.5,Safari,1440,900,,,,,10,807,,,,,,,,,,,,,,,,,139,U,triangle,1,0,,,,,,,,,,,,,,,,repeat,number,numRpt,d,0.652,Hi,,,,,,2,,,,,,,,high,7,0,7,0,1,,,,,,,,,
296593,2022-11-27_17h47.10.734,vts_reward_expectancy_bt,2022.2.4,MacIntel,62.5,Safari,1440,900,,,,,10,817,,,,,,,,,,,,,,,,,181,B,star,1,0,,,,,,,,,,,,,,,,repeat,number,numRpt,f,1.629,Lo,,,,,,2,,,,,,,,high,8,0,8,0,1,,,,,,,,,
296593,2022-11-27_17h47.10.734,vts_reward_expectancy_bt,2022.2.4,MacIntel,62.5,Safari,1440,900,,,,,0,817,,,,,,,,,,,,,,,,,160,H,circle,1,0,,,,,,,,,,,,,,,,switch,letter,lettSwt,j,1.431,Hi,,,,,,2,,,,,,,,high,9,0,9,0,1,,,,,,,,,
296593,2022-11-27_17h47.10.734,vts_reward_expectancy_bt,2022.2.4,MacIntel,62.5,Safari,1440,900,,,,,1,818,,,,,,,,,,,,,,,,,132,S,hexagon,1,0,,,,,,,,,,,,,,,,switch,number,numSwt,d,1.18,Lo,,,,,,2,,,,,,,,high,10,0,10,0,1,,,,,,,,,
296593,2022-11-27_17h47.10.734,vts_reward_expectancy_bt,2022.2.4,MacIntel,62.5,Safari,1440,900,,,,,1,819,,,,,,,,,,,,,,,,,174,W,triangle,1,0,,,,,,,,,,,,,,,,repeat,number,numRpt,f,0.948,Hi,,,,,,2,,,,,,,,high,11,0,11,0,1,,,,,,,,,
296593,2022-11-27_17h47.10.734,vts_reward_expectancy_bt,2022.2.4,MacIntel,62.5,Safari,1440,900,,,,,0,819,,,,,,,,,,,,,,,,,125,D,triangle,1,0,,,,,,,,,,,,,,,,repeat,number,numRpt,d,1.263,Hi,,,,,,2,,,,,,,,high,12,0,12,0,1,,,,,,,,,
296593,2022-11-27_17h47.10.734,vts_reward_expectancy_bt,2022.2.4,MacIntel,62.5,Safari,1440,900,,,,,10,829,,,,,,,,,,,,,,,,,167,Y,hexagon,1,0,,,,,,,,,,,,,,,,repeat,number,numRpt,f,0.98,Lo,,,,,,2,,,,,,,,high,13,0,13,0,1,,,,,,,,,
296593,2022-11-27_17h47.10.734,vts_reward_expectancy_bt,2022.2.4,MacIntel,62.5,Safari,1440,900,,,,,1,830,,,,,,,,,,,,,,,,,146,F,star,1,0,,,,,,,,,,,,,,,,repeat,number,numRpt,d,0.997,Lo,,,,,,2,,,,,,,,high,14,0,14,0,1,,,,,,,,,
296593,2022-11-27_17h47.10.734,vts_reward_expectancy_bt,2022.2.4,MacIntel,62.5,Safari,1440,900,,,,,0,830,,,,,,,,,,,,,,,,,139,U,circle,1,0,,,,,,,,,,,,,,,,repeat,number,numRpt,d,1.233,Hi,,,,,,2,,,,,,,,high,15,0,15,0,1,,,,,,,,,
296593,2022-11-27_17h47.10.734,vts_reward_expectancy_bt,2022.2.4,MacIntel,62.5,Safari,1440,900,,,,,1,831,,,,,,,,,,,,,,,,,139,W,star,1,0,,,,,,,,,,,,,,,,repeat,number,numRpt,d,1.248,Lo,,,,,,2,,,,,,,,high,16,0,16,0,1,,,,,,,,,
296593,2022-11-27_17h47.10.734,vts_reward_expectancy_bt,2022.2.4,MacIntel,62.5,Safari,1440,900,,,,,1,832,,,,,,,,,,,,,,,,,146,F,hexagon,1,0,,,,,,,,,,,,,,,,switch,letter,lettSwt,j,0.997,Lo,,,,,,2,,,,,,,,high,17,0,17,0,1,,,,,,,,,
296593,2022-11-27_17h47.10.734,vts_reward_expectancy_bt,2022.2.4,MacIntel,62.5,Safari,1440,900,,,,,10,842,,,,,,,,,,,,,,,,,167,S,circle,1,0,,,,,,,,,,,,,,,,switch,number,numSwt,f,0.937,Hi,,,,,,2,,,,,,,,high,18,0,18,0,1,,,,,,,,,
296593,2022-11-27_17h47.10.734,vts_reward_expectancy_bt,2022.2.4,MacIntel,62.5,Safari,1440,900,,,,,0,842,,,,,,,,,,,,,,,,,181,D,triangle,1,0,,,,,,,,,,,,,,,,repeat,number,numRpt,f,1.229,Hi,,,,,,2,,,,,,,,high,19,0,19,0,1,,,,,,,,,
296593,2022-11-27_17h47.10.734,vts_reward_expectancy_bt,2022.2.4,MacIntel,62.5,Safari,1440,900,,,,,1,843,,,,,,,,,,,,,,,,,125,U,star,1,0,,,,,,,,,,,,,,,,repeat,number,numRpt,d,1.415,Lo,,,,,,2,,,,,,,,high,20,0,20,0,1,,,,,,,,,
296593,2022-11-27_17h47.10.734,vts_reward_expectancy_bt,2022.2.4,MacIntel,62.5,Safari,1440,900,,,,,10,853,,,,,,,,,,,,,,,,,132,H,triangle,1,0,,,,,,,,,,,,,,,,repeat,number,numRpt,d,1.001,Hi,,,,,,2,,,,,,,,high,21,0,21,0,1,,,,,,,,,
296593,2022-11-27_17h47.10.734,vts_reward_expectancy_bt,2022.2.4,MacIntel,62.5,Safari,1440,900,,,,,1,854,,,,,,,,,,,,,,,,,174,B,hexagon,1,0,,,,,,,,,,,,,,,,repeat,number,numRpt,f,1.165,Lo,,,,,,2,,,,,,,,high,22,0,22,0,1,,,,,,,,,
296593,2022-11-27_17h47.10.734,vts_reward_expectancy_bt,2022.2.4,MacIntel,62.5,Safari,1440,900,,,,,1,855,,,,,,,,,,,,,,,,,160,Y,circle,1,0,,,,,,,,,,,,,,,,switch,letter,lettSwt,k,0.796,Hi,,,,,,2,,,,,,,,high,23,0,23,0,1,,,,,,,,,
296593,2022-11-27_17h47.10.734,vts_reward_expectancy_bt,2022.2.4,MacIntel,62.5,Safari,1440,900,,,,,10,865,,,,,,,,,,,,,,,,,146,W,circle,1,0,,,,,,,,,,,,,,,,repeat,letter,lettRpt,k,1.064,Hi,,,,,,2,,,,,,,,high,24,0,24,0,1,,,,,,,,,
296593,2022-11-27_17h47.10.734,vts_reward_expectancy_bt,2022.2.4,MacIntel,62.5,Safari,1440,900,,,,,1,866,,,,,,,,,,,,,,,,,132,S,hexagon,1,0,,,,,,,,,,,,,,,,repeat,letter,lettRpt,k,1.564,Lo,,,,,,2,,,,,,,,high,25,0,25,0,1,,,,,,,,,
296593,2022-11-27_17h47.10.734,vts_reward_expectancy_bt,2022.2.4,MacIntel,62.5,Safari,1440,900,,,,,0,866,,,,,,,,,,,,,,,,,181,D,star,0,0,,,,,,,,,,,,,,,,repeat,letter,NA,k,1.247,Lo,,,,,,2,,,,,,,,high,26,0,26,0,1,,,,,,,,,
296593,2022-11-27_17h47.10.734,vts_reward_expectancy_bt,2022.2.4,MacIntel,62.5,Safari,1440,900,,,,,0,866,,,,,,,,,,,,,,,,,125,Y,triangle,1,1,,,,,,,,,,,,,,,,repeat,letter,lettRpt,k,1.914,Hi,,,,,,2,,,,,,,,high,27,0,27,0,1,,,,,,,,,
296593,2022-11-27_17h47.10.734,vts_reward_expectancy_bt,2022.2.4,MacIntel,62.5,Safari,1440,900,,,,,1,867,,,,,,,,,,,,,,,,,139,B,star,1,0,,,,,,,,,,,,,,,,switch,number,numSwt,d,1.149,Lo,,,,,,2,,,,,,,,high,28,0,28,0,1,,,,,,,,,
296593,2022-11-27_17h47.10.734,vts_reward_expectancy_bt,2022.2.4,MacIntel,62.5,Safari,1440,900,,,,,10,877,,,,,,,,,,,,,,,,,174,U,hexagon,1,0,,,,,,,,,,,,,,,,switch,letter,lettSwt,k,1.514,Lo,,,,,,2,,,,,,,,high,29,0,29,0,1,,,,,,,,,
296593,2022-11-27_17h47.10.734,vts_reward_expectancy_bt,2022.2.4,MacIntel,62.5,Safari,1440,900,,,,,0,877,,,,,,,,,,,,,,,,,160,H,triangle,1,0,,,,,,,,,,,,,,,,switch,number,numSwt,f,1.035,Hi,,,,,,2,,,,,,,,high,30,0,30,0,1,,,,,,,,,
296593,2022-11-27_17h47.10.734,vts_reward_expectancy_bt,2022.2.4,MacIntel,62.5,Safari,1440,900,,,,,0,877,,,,,,,,,,,,,,,,,167,F,circle,1,0,,,,,,,,,,,,,,,,switch,letter,lettSwt,j,1.804,Hi,,,,,,2,,,,,,,,high,31,0,31,0,1,,,,,,,,,
296593,2022-11-27_17h47.10.734,vts_reward_expectancy_bt,2022.2.4,MacIntel,62.5,Safari,1440,900,,,,,1,878,,,,,,,,,,,,,,,,,146,F,star,1,0,,,,,,,,,,,,,,,,repeat,letter,lettRpt,j,1.397,Lo,,,,,,3,,,,,,space,3.367,high,0,0,0,0,1,,,,,,,,,
296593,2022-11-27_17h47.10.734,vts_reward_expectancy_bt,2022.2.4,MacIntel,62.5,Safari,1440,900,,,,,1,879,,,,,,,,,,,,,,,,,167,Y,hexagon,1,0,,,,,,,,,,,,,,,,switch,number,numSwt,f,0.899,Lo,,,,,,3,,,,,,,,high,1,0,1,0,1,,,,,,,,,
296593,2022-11-27_17h47.10.734,vts_reward_expectancy_bt,2022.2.4,MacIntel,62.5,Safari,1440,900,,,,,0,879,,,,,,,,,,,,,,,,,174,B,triangle,1,0,,,,,,,,,,,,,,,,switch,letter,lettSwt,j,1.067,Hi,,,,,,3,,,,,,,,high,2,0,2,0,1,,,,,,,,,
296593,2022-11-27_17h47.10.734,vts_reward_expectancy_bt,2022.2.4,MacIntel,62.5,Safari,1440,900,,,,,0,879,,,,,,,,,,,,,,,,,139,W,circle,1,0,,,,,,,,,,,,,,,,repeat,letter,lettRpt,k,1.63,Hi,,,,,,3,,,,,,,,high,3,0,3,0,1,,,,,,,,,
296593,2022-11-27_17h47.10.734,vts_reward_expectancy_bt,2022.2.4,MacIntel,62.5,Safari,1440,900,,,,,1,880,,,,,,,,,,,,,,,,,160,U,star,1,0,,,,,,,,,,,,,,,,switch,number,numSwt,f,1.014,Lo,,,,,,3,,,,,,,,high,4,0,4,0,1,,,,,,,,,
296593,2022-11-27_17h47.10.734,vts_reward_expectancy_bt,2022.2.4,MacIntel,62.5,Safari,1440,900,,,,,1,881,,,,,,,,,,,,,,,,,181,D,hexagon,1,0,,,,,,,,,,,,,,,,repeat,number,numRpt,f,1.163,Lo,,,,,,3,,,,,,,,high,5,0,5,0,1,,,,,,,,,
296593,2022-11-27_17h47.10.734,vts_reward_expectancy_bt,2022.2.4,MacIntel,62.5,Safari,1440,900,,,,,0,881,,,,,,,,,,,,,,,,,132,S,triangle,1,0,,,,,,,,,,,,,,,,repeat,number,numRpt,d,1.096,Hi,,,,,,3,,,,,,,,high,6,0,6,0,1,,,,,,,,,
296593,2022-11-27_17h47.10.734,vts_reward_expectancy_bt,2022.2.4,MacIntel,62.5,Safari,1440,900,,,,,0,881,,,,,,,,,,,,,,,,,125,H,circle,1,0,,,,,,,,,,,,,,,,repeat,number,numRpt,d,1.296,Hi,,,,,,3,,,,,,,,high,7,0,7,0,1,,,,,,,,,
296593,2022-11-27_17h47.10.734,vts_reward_expectancy_bt,2022.2.4,MacIntel,62.5,Safari,1440,900,,,,,0,881,,,,,,,,,,,,,,,,,146,F,circle,1,0,,,,,,,,,,,,,,,,repeat,number,numRpt,d,1.013,Hi,,,,,,3,,,,,,,,high,8,0,8,0,1,,,,,,,,,
296593,2022-11-27_17h47.10.734,vts_reward_expectancy_bt,2022.2.4,MacIntel,62.5,Safari,1440,900,,,,,10,891,,,,,,,,,,,,,,,,,167,Y,star,1,0,,,,,,,,,,,,,,,,repeat,number,numRpt,f,1.463,Lo,,,,,,3,,,,,,,,high,9,0,9,0,1,,,,,,,,,
296593,2022-11-27_17h47.10.734,vts_reward_expectancy_bt,2022.2.4,MacIntel,62.5,Safari,1440,900,,,,,1,892,,,,,,,,,,,,,,,,,174,B,hexagon,1,0,,,,,,,,,,,,,,,,switch,letter,lettSwt,j,1.195,Lo,,,,,,3,,,,,,,,high,10,0,10,0,1,,,,,,,,,
296593,2022-11-27_17h47.10.734,vts_reward_expectancy_bt,2022.2.4,MacIntel,62.5,Safari,1440,900,,,,,1,893,,,,,,,,,,,,,,,,,139,W,triangle,1,0,,,,,,,,,,,,,,,,repeat,letter,lettRpt,k,1.083,Hi,,,,,,3,,,,,,,,high,11,0,11,0,1,,,,,,,,,
296593,2022-11-27_17h47.10.734,vts_reward_expectancy_bt,2022.2.4,MacIntel,62.5,Safari,1440,900,,,,,10,903,,,,,,,,,,,,,,,,,160,U,triangle,1,0,,,,,,,,,,,,,,,,repeat,letter,lettRpt,k,0.83,Hi,,,,,,3,,,,,,,,high,12,0,12,0,1,,,,,,,,,
296593,2022-11-27_17h47.10.734,vts_reward_expectancy_bt,2022.2.4,MacIntel,62.5,Safari,1440,900,,,,,0,903,,,,,,,,,,,,,,,,,181,D,star,0,0,,,,,,,,,,,,,,,,repeat,letter,NA,k,1.116,Hi,,,,,,3,,,,,,,,high,13,0,13,0,1,,,,,,,,,
296593,2022-11-27_17h47.10.734,vts_reward_expectancy_bt,2022.2.4,MacIntel,62.5,Safari,1440,900,,,,,0,903,,,,,,,,,,,,,,,,,132,S,circle,1,1,,,,,,,,,,,,,,,,repeat,letter,lettRpt,k,1.846,Hi,,,,,,3,,,,,,,,high,14,0,14,0,1,,,,,,,,,
296593,2022-11-27_17h47.10.734,vts_reward_expectancy_bt,2022.2.4,MacIntel,62.5,Safari,1440,900,,,,,1,904,,,,,,,,,,,,,,,,,125,H,hexagon,1,0,,,,,,,,,,,,,,,,repeat,letter,lettRpt,j,1.502,Lo,,,,,,3,,,,,,,,high,15,0,15,0,1,,,,,,,,,
296593,2022-11-27_17h47.10.734,vts_reward_expectancy_bt,2022.2.4,MacIntel,62.5,Safari,1440,900,,,,,1,905,,,,,,,,,,,,,,,,,132,Y,circle,1,0,,,,,,,,,,,,,,,,repeat,letter,lettRpt,k,1.248,Hi,,,,,,3,,,,,,,,high,16,0,16,0,1,,,,,,,,,
296593,2022-11-27_17h47.10.734,vts_reward_expectancy_bt,2022.2.4,MacIntel,62.5,Safari,1440,900,,,,,1,906,,,,,,,,,,,,,,,,,125,D,star,1,0,,,,,,,,,,,,,,,,repeat,letter,lettRpt,j,0.861,Lo,,,,,,3,,,,,,,,high,17,0,17,0,1,,,,,,,,,
296593,2022-11-27_17h47.10.734,vts_reward_expectancy_bt,2022.2.4,MacIntel,62.5,Safari,1440,900,,,,,10,916,,,,,,,,,,,,,,,,,160,W,triangle,1,0,,,,,,,,,,,,,,,,repeat,letter,lettRpt,k,0.913,Hi,,,,,,3,,,,,,,,high,18,0,18,0,1,,,,,,,,,
296593,2022-11-27_17h47.10.734,vts_reward_expectancy_bt,2022.2.4,MacIntel,62.5,Safari,1440,900,,,,,0,916,,,,,,,,,,,,,,,,,146,S,hexagon,0,0,,,,,,,,,,,,,,,,repeat,letter,NA,j,0.749,Hi,,,,,,3,,,,,,,,high,19,0,19,0,1,,,,,,,,,
296593,2022-11-27_17h47.10.734,vts_reward_expectancy_bt,2022.2.4,MacIntel,62.5,Safari,1440,900,,,,,10,926,,,,,,,,,,,,,,,,,167,H,triangle,1,1,,,,,,,,,,,,,,,,repeat,letter,lettRpt,j,1.287,Hi,,,,,,3,,,,,,,,high,20,0,20,0,1,,,,,,,,,
296593,2022-11-27_17h47.10.734,vts_reward_expectancy_bt,2022.2.4,MacIntel,62.5,Safari,1440,900,,,,,1,927,,,,,,,,,,,,,,,,,181,F,star,1,0,,,,,,,,,,,,,,,,switch,number,numSwt,f,1.133,Lo,,,,,,3,,,,,,,,high,21,0,21,0,1,,,,,,,,,
296593,2022-11-27_17h47.10.734,vts_reward_expectancy_bt,2022.2.4,MacIntel,62.5,Safari,1440,900,,,,,1,928,,,,,,,,,,,,,,,,,139,B,hexagon,1,0,,,,,,,,,,,,,,,,repeat,number,numRpt,d,0.816,Lo,,,,,,3,,,,,,,,high,22,0,22,0,1,,,,,,,,,
296593,2022-11-27_17h47.10.734,vts_reward_expectancy_bt,2022.2.4,MacIntel,62.5,Safari,1440,900,,,,,10,938,,,,,,,,,,,,,,,,,174,U,circle,1,0,,,,,,,,,,,,,,,,repeat,number,numRpt,f,0.997,Hi,,,,,,3,,,,,,,,high,23,0,23,0,1,,,,,,,,,
296593,2022-11-27_17h47.10.734,vts_reward_expectancy_bt,2022.2.4,MacIntel,62.5,Safari,1440,900,,,,,10,948,,,,,,,,,,,,,,,,,139,F,circle,1,0,,,,,,,,,,,,,,,,switch,letter,lettSwt,j,0.815,Hi,,,,,,3,,,,,,,,high,24,0,24,0,1,,,,,,,,,
296593,2022-11-27_17h47.10.734,vts_reward_expectancy_bt,2022.2.4,MacIntel,62.5,Safari,1440,900,,,,,10,958,,,,,,,,,,,,,,,,,160,S,star,1,0,,,,,,,,,,,,,,,,repeat,letter,lettRpt,k,0.88,Lo,,,,,,3,,,,,,,,high,25,0,25,0,1,,,,,,,,,
296593,2022-11-27_17h47.10.734,vts_reward_expectancy_bt,2022.2.4,MacIntel,62.5,Safari,1440,900,,,,,0,958,,,,,,,,,,,,,,,,,174,D,triangle,1,0,,,,,,,,,,,,,,,,switch,number,numSwt,f,1.18,Hi,,,,,,3,,,,,,,,high,26,0,26,0,1,,,,,,,,,
296593,2022-11-27_17h47.10.734,vts_reward_expectancy_bt,2022.2.4,MacIntel,62.5,Safari,1440,900,,,,,10,968,,,,,,,,,,,,,,,,,167,B,hexagon,1,0,,,,,,,,,,,,,,,,repeat,number,numRpt,f,1.197,Lo,,,,,,3,,,,,,,,high,27,0,27,0,1,,,,,,,,,
296593,2022-11-27_17h47.10.734,vts_reward_expectancy_bt,2022.2.4,MacIntel,62.5,Safari,1440,900,,,,,10,978,,,,,,,,,,,,,,,,,132,U,hexagon,1,0,,,,,,,,,,,,,,,,switch,letter,lettSwt,k,0.983,Lo,,,,,,3,,,,,,,,high,28,0,28,0,1,,,,,,,,,
296593,2022-11-27_17h47.10.734,vts_reward_expectancy_bt,2022.2.4,MacIntel,62.5,Safari,1440,900,,,,,1,979,,,,,,,,,,,,,,,,,125,Y,star,1,0,,,,,,,,,,,,,,,,switch,number,numSwt,d,1.303,Lo,,,,,,3,,,,,,,,high,29,0,29,0,1,,,,,,,,,
296593,2022-11-27_17h47.10.734,vts_reward_expectancy_bt,2022.2.4,MacIntel,62.5,Safari,1440,900,,,,,0,979,,,,,,,,,,,,,,,,,181,H,circle,0,0,,,,,,,,,,,,,,,,switch,letter,NA,k,1.102,Lo,,,,,,3,,,,,,,,high,30,0,30,0,1,,,,,,,,,
296593,2022-11-27_17h47.10.734,vts_reward_expectancy_bt,2022.2.4,MacIntel,62.5,Safari,1440,900,,,,,10,989,,,,,,,,,,,,,,,,,146,W,triangle,1,1,,,,,,,,,,,,,,,,repeat,letter,lettRpt,k,1.213,Hi,,,,,,3,,,,,,,,high,31,0,31,0,1,,,,,,,,,
296593,2022-11-27_17h47.10.734,vts_reward_expectancy_bt,2022.2.4,MacIntel,62.5,Safari,1440,900,,,,,1,990,,,,,,,,,,,,,,,,,132,B,hexagon,1,0,,,,,,,,,,,,,,,,switch,number,numSwt,d,1.064,Lo,,,,,,4,,,,,,space,1.7,high,0,0,0,0,1,,,,,,,,,
296593,2022-11-27_17h47.10.734,vts_reward_expectancy_bt,2022.2.4,MacIntel,62.5,Safari,1440,900,,,,,1,991,,,,,,,,,,,,,,,,,160,H,star,1,0,,,,,,,,,,,,,,,,switch,letter,lettSwt,j,1.381,Lo,,,,,,4,,,,,,,,high,1,0,1,0,1,,,,,,,,,
296593,2022-11-27_17h47.10.734,vts_reward_expectancy_bt,2022.2.4,MacIntel,62.5,Safari,1440,900,,,,,0,991,,,,,,,,,,,,,,,,,146,U,circle,1,0,,,,,,,,,,,,,,,,switch,number,numSwt,d,1.331,Hi,,,,,,4,,,,,,,,high,2,0,2,0,1,,,,,,,,,
296593,2022-11-27_17h47.10.734,vts_reward_expectancy_bt,2022.2.4,MacIntel,62.5,Safari,1440,900,,,,,0,991,,,,,,,,,,,,,,,,,174,Y,triangle,1,0,,,,,,,,,,,,,,,,switch,letter,lettSwt,k,1.014,Hi,,,,,,4,,,,,,,,high,3,0,3,0,1,,,,,,,,,
296593,2022-11-27_17h47.10.734,vts_reward_expectancy_bt,2022.2.4,MacIntel,62.5,Safari,1440,900,,,,,10,1001,,,,,,,,,,,,,,,,,181,W,hexagon,1,0,,,,,,,,,,,,,,,,switch,number,numSwt,f,1.013,Lo,,,,,,4,,,,,,,,high,4,0,4,0,1,,,,,,,,,
296593,2022-11-27_17h47.10.734,vts_reward_expectancy_bt,2022.2.4,MacIntel,62.5,Safari,1440,900,,,,,1,1002,,,,,,,,,,,,,,,,,125,F,star,1,0,,,,,,,,,,,,,,,,repeat,number,numRpt,d,1.136,Lo,,,,,,4,,,,,,,,high,5,0,5,0,1,,,,,,,,,
296593,2022-11-27_17h47.10.734,vts_reward_expectancy_bt,2022.2.4,MacIntel,62.5,Safari,1440,900,,,,,0,1002,,,,,,,,,,,,,,,,,167,D,circle,1,0,,,,,,,,,,,,,,,,repeat,number,numRpt,f,1.129,Hi,,,,,,4,,,,,,,,high,6,0,6,0,1,,,,,,,,,
296593,2022-11-27_17h47.10.734,vts_reward_expectancy_bt,2022.2.4,MacIntel,62.5,Safari,1440,900,,,,,10,1012,,,,,,,,,,,,,,,,,139,S,triangle,1,0,,,,,,,,,,,,,,,,repeat,number,numRpt,d,0.981,Hi,,,,,,4,,,,,,,,high,7,0,7,0,1,,,,,,,,,
296593,2022-11-27_17h47.10.734,vts_reward_expectancy_bt,2022.2.4,MacIntel,62.5,Safari,1440,900,,,,,10,1022,,,,,,,,,,,,,,,,,132,B,star,1,0,,,,,,,,,,,,,,,,repeat,number,numRpt,d,0.931,Lo,,,,,,4,,,,,,,,high,8,0,8,0,1,,,,,,,,,
296593,2022-11-27_17h47.10.734,vts_reward_expectancy_bt,2022.2.4,MacIntel,62.5,Safari,1440,900,,,,,0,1022,,,,,,,,,,,,,,,,,160,H,circle,0,0,,,,,,,,,,,,,,,,switch,letter,NA,k,1.198,Lo,,,,,,4,,,,,,,,high,9,0,9,0,1,,,,,,,,,
296593,2022-11-27_17h47.10.734,vts_reward_expectancy_bt,2022.2.4,MacIntel,62.5,Safari,1440,900,,,,,1,1023,,,,,,,,,,,,,,,,,146,U,hexagon,1,1,,,,,,,,,,,,,,,,repeat,letter,lettRpt,k,1.319,Lo,,,,,,4,,,,,,,,high,10,0,10,0,1,,,,,,,,,
296593,2022-11-27_17h47.10.734,vts_reward_expectancy_bt,2022.2.4,MacIntel,62.5,Safari,1440,900,,,,,10,1033,,,,,,,,,,,,,,,,,174,Y,triangle,1,0,,,,,,,,,,,,,,,,repeat,letter,lettRpt,k,0.981,Hi,,,,,,4,,,,,,,,high,11,0,11,0,1,,,,,,,,,
296593,2022-11-27_17h47.10.734,vts_reward_expectancy_bt,2022.2.4,MacIntel,62.5,Safari,1440,900,,,,,10,1043,,,,,,,,,,,,,,,,,181,W,circle,1,0,,,,,,,,,,,,,,,,repeat,letter,lettRpt,k,0.747,Hi,,,,,,4,,,,,,,,high,12,0,12,0,1,,,,,,,,,
296593,2022-11-27_17h47.10.734,vts_reward_expectancy_bt,2022.2.4,MacIntel,62.5,Safari,1440,900,,,,,1,1044,,,,,,,,,,,,,,,,,125,F,hexagon,1,0,,,,,,,,,,,,,,,,repeat,letter,lettRpt,j,1.329,Lo,,,,,,4,,,,,,,,high,13,0,13,0,1,,,,,,,,,
296593,2022-11-27_17h47.10.734,vts_reward_expectancy_bt,2022.2.4,MacIntel,62.5,Safari,1440,900,,,,,1,1045,,,,,,,,,,,,,,,,,167,D,star,1,0,,,,,,,,,,,,,,,,switch,number,numSwt,f,1.165,Lo,,,,,,4,,,,,,,,high,14,0,14,0,1,,,,,,,,,
296593,2022-11-27_17h47.10.734,vts_reward_expectancy_bt,2022.2.4,MacIntel,62.5,Safari,1440,900,,,,,0,1045,,,,,,,,,,,,,,,,,139,S,triangle,1,0,,,,,,,,,,,,,,,,repeat,number,numRpt,d,1.814,Hi,,,,,,4,,,,,,,,high,15,0,15,0,1,,,,,,,,,
296593,2022-11-27_17h47.10.734,vts_reward_expectancy_bt,2022.2.4,MacIntel,62.5,Safari,1440,900,,,,,0,1045,,,,,,,,,,,,,,,,,146,D,circle,1,0,,,,,,,,,,,,,,,,repeat,number,numRpt,d,1.272,Hi,,,,,,4,,,,,,,,high,16,0,16,0,1,,,,,,,,,
296593,2022-11-27_17h47.10.734,vts_reward_expectancy_bt,2022.2.4,MacIntel,62.5,Safari,1440,900,,,,,1,1046,,,,,,,,,,,,,,,,,160,Y,hexagon,1,0,,,,,,,,,,,,,,,,switch,letter,lettSwt,k,1.014,Lo,,,,,,4,,,,,,,,high,17,0,17,0,1,,,,,,,,,
296593,2022-11-27_17h47.10.734,vts_reward_expectancy_bt,2022.2.4,MacIntel,62.5,Safari,1440,900,,,,,0,1046,,,,,,,,,,,,,,,,,139,B,triangle,1,0,,,,,,,,,,,,,,,,repeat,letter,lettRpt,j,1.067,Hi,,,,,,4,,,,,,,,high,18,0,18,0,1,,,,,,,,,
296593,2022-11-27_17h47.10.734,vts_reward_expectancy_bt,2022.2.4,MacIntel,62.5,Safari,1440,900,,,,,1,1047,,,,,,,,,,,,,,,,,174,W,star,1,0,,,,,,,,,,,,,,,,repeat,letter,lettRpt,k,0.945,Lo,,,,,,4,,,,,,,,high,19,0,19,0,1,,,,,,,,,
296593,2022-11-27_17h47.10.734,vts_reward_expectancy_bt,2022.2.4,MacIntel,62.5,Safari,1440,900,,,,,1,1048,,,,,,,,,,,,,,,,,167,U,circle,1,0,,,,,,,,,,,,,,,,repeat,letter,lettRpt,k,0.814,Hi,,,,,,4,,,,,,,,high,20,0,20,0,1,,,,,,,,,
296593,2022-11-27_17h47.10.734,vts_reward_expectancy_bt,2022.2.4,MacIntel,62.5,Safari,1440,900,,,,,10,1058,,,,,,,,,,,,,,,,,125,H,triangle,1,0,,,,,,,,,,,,,,,,switch,number,numSwt,d,0.33,Hi,,,,,,4,,,,,,,,high,21,0,21,0,1,,,,,,,,,
296593,2022-11-27_17h47.10.734,vts_reward_expectancy_bt,2022.2.4,MacIntel,62.5,Safari,1440,900,,,,,1,1059,,,,,,,,,,,,,,,,,132,S,star,1,0,,,,,,,,,,,,,,,,switch,letter,lettSwt,k,1.28,Lo,,,,,,4,,,,,,,,high,22,0,22,0,1,,,,,,,,,
296593,2022-11-27_17h47.10.734,vts_reward_expectancy_bt,2022.2.4,MacIntel,62.5,Safari,1440,900,,,,,1,1060,,,,,,,,,,,,,,,,,181,F,hexagon,1,0,,,,,,,,,,,,,,,,switch,number,numSwt,f,1.331,Lo,,,,,,4,,,,,,,,high,23,0,23,0,1,,,,,,,,,
296593,2022-11-27_17h47.10.734,vts_reward_expectancy_bt,2022.2.4,MacIntel,62.5,Safari,1440,900,,,,,10,1070,,,,,,,,,,,,,,,,,160,B,hexagon,1,0,,,,,,,,,,,,,,,,repeat,number,numRpt,f,1.268,Lo,,,,,,4,,,,,,,,high,24,0,24,0,1,,,,,,,,,
296593,2022-11-27_17h47.10.734,vts_reward_expectancy_bt,2022.2.4,MacIntel,62.5,Safari,1440,900,,,,,0,1070,,,,,,,,,,,,,,,,,181,F,circle,1,0,,,,,,,,,,,,,,,,repeat,number,numRpt,f,1.07,Hi,,,,,,4,,,,,,,,high,25,0,25,0,1,,,,,,,,,
296593,2022-11-27_17h47.10.734,vts_reward_expectancy_bt,2022.2.4,MacIntel,62.5,Safari,1440,900,,,,,0,1070,,,,,,,,,,,,,,,,,132,U,triangle,0,0,,,,,,,,,,,,,,,,switch,letter,NA,j,0,Hi,,,,,,4,,,,,,,,high,26,0,26,0,1,,,,,,,,,
296593,2022-11-27_17h47.10.734,vts_reward_expectancy_bt,2022.2.4,MacIntel,62.5,Safari,1440,900,,,,,10,1080,,,,,,,,,,,,,,,,,146,D,star,1,1,,,,,,,,,,,,,,,,repeat,letter,lettRpt,j,1.314,Lo,,,,,,4,,,,,,,,high,27,0,27,0,1,,,,,,,,,
296593,2022-11-27_17h47.10.734,vts_reward_expectancy_bt,2022.2.4,MacIntel,62.5,Safari,1440,900,,,,,10,1090,,,,,,,,,,,,,,,,,125,Y,hexagon,1,0,,,,,,,,,,,,,,,,repeat,letter,lettRpt,k,0.78,Lo,,,,,,4,,,,,,,,high,28,0,28,0,1,,,,,,,,,
296593,2022-11-27_17h47.10.734,vts_reward_expectancy_bt,2022.2.4,MacIntel,62.5,Safari,1440,900,,,,,1,1091,,,,,,,,,,,,,,,,,174,S,star,1,0,,,,,,,,,,,,,,,,repeat,letter,lettRpt,k,1.012,Lo,,,,,,4,,,,,,,,high,29,0,29,0,1,,,,,,,,,
296593,2022-11-27_17h47.10.734,vts_reward_expectancy_bt,2022.2.4,MacIntel,62.5,Safari,1440,900,,,,,0,1091,,,,,,,,,,,,,,,,,167,H,triangle,0,0,,,,,,,,,,,,,,,,repeat,letter,NA,k,0.663,Lo,,,,,,4,,,,,,,,high,30,0,30,0,1,,,,,,,,,
296593,2022-11-27_17h47.10.734,vts_reward_expectancy_bt,2022.2.4,MacIntel,62.5,Safari,1440,900,,,,,0,1091,,,,,,,,,,,,,,,,,139,W,circle,1,1,,,,,,,,,,,,,,,,switch,number,numSwt,d,1.447,Hi,,,,,,4,,,,,,,,high,31,0,31,0,1,,,,,,,,,
296593,2022-11-27_17h47.10.734,vts_reward_expectancy_bt,2022.2.4,MacIntel,62.5,Safari,1440,900,,,,,0,1091,,,,,,,,,,,,,,,,,167,D,circle,0,0,,,,,,,,,,,,,,,,switch,letter,NA,k,1.082,Hi,,,,,,5,,,,,,space,1.25,high,0,0,0,0,1,,,,,,,,,
296593,2022-11-27_17h47.10.734,vts_reward_expectancy_bt,2022.2.4,MacIntel,62.5,Safari,1440,900,,,,,1,1092,,,,,,,,,,,,,,,,,132,H,hexagon,1,1,,,,,,,,,,,,,,,,switch,number,numSwt,d,0.951,Lo,,,,,,5,,,,,,,,high,1,0,1,0,1,,,,,,,,,
296593,2022-11-27_17h47.10.734,vts_reward_expectancy_bt,2022.2.4,MacIntel,62.5,Safari,1440,900,,,,,1,1093,,,,,,,,,,,,,,,,,125,F,triangle,1,0,,,,,,,,,,,,,,,,repeat,number,numRpt,d,1.046,Hi,,,,,,5,,,,,,,,high,2,0,2,0,1,,,,,,,,,
296593,2022-11-27_17h47.10.734,vts_reward_expectancy_bt,2022.2.4,MacIntel,62.5,Safari,1440,900,,,,,1,1094,,,,,,,,,,,,,,,,,139,Y,star,1,0,,,,,,,,,,,,,,,,switch,letter,lettSwt,k,1.02,Lo,,,,,,5,,,,,,,,high,3,0,3,0,1,,,,,,,,,
296593,2022-11-27_17h47.10.734,vts_reward_expectancy_bt,2022.2.4,MacIntel,62.5,Safari,1440,900,,,,,10,1104,,,,,,,,,,,,,,,,,174,U,circle,1,0,,,,,,,,,,,,,,,,repeat,letter,lettRpt,k,0.92,Hi,,,,,,5,,,,,,,,high,4,0,4,0,1,,,,,,,,,
296593,2022-11-27_17h47.10.734,vts_reward_expectancy_bt,2022.2.4,MacIntel,62.5,Safari,1440,900,,,,,10,1114,,,,,,,,,,,,,,,,,146,W,hexagon,1,0,,,,,,,,,,,,,,,,switch,number,numSwt,d,0.931,Lo,,,,,,5,,,,,,,,high,5,0,5,0,1,,,,,,,,,
296593,2022-11-27_17h47.10.734,vts_reward_expectancy_bt,2022.2.4,MacIntel,62.5,Safari,1440,900,,,,,0,1114,,,,,,,,,,,,,,,,,160,B,triangle,0,0,,,,,,,,,,,,,,,,switch,letter,NA,k,1.113,Lo,,,,,,5,,,,,,,,high,6,0,6,0,1,,,,,,,,,
296593,2022-11-27_17h47.10.734,vts_reward_expectancy_bt,2022.2.4,MacIntel,62.5,Safari,1440,900,,,,,1,1115,,,,,,,,,,,,,,,,,181,S,star,1,1,,,,,,,,,,,,,,,,repeat,letter,lettRpt,k,0.931,Lo,,,,,,5,,,,,,,,high,7,0,7,0,1,,,,,,,,,
296593,2022-11-27_17h47.10.734,vts_reward_expectancy_bt,2022.2.4,MacIntel,62.5,Safari,1440,900,,,,,10,1125,,,,,,,,,,,,,,,,,167,D,star,1,0,,,,,,,,,,,,,,,,switch,number,numSwt,f,1.102,Lo,,,,,,5,,,,,,,,high,8,0,8,0,1,,,,,,,,,
296593,2022-11-27_17h47.10.734,vts_reward_expectancy_bt,2022.2.4,MacIntel,62.5,Safari,1440,900,,,,,10,1135,,,,,,,,,,,,,,,,,132,H,circle,1,0,,,,,,,,,,,,,,,,switch,letter,lettSwt,j,0.963,Hi,,,,,,5,,,,,,,,high,9,0,9,0,1,,,,,,,,,
296593,2022-11-27_17h47.10.734,vts_reward_expectancy_bt,2022.2.4,MacIntel,62.5,Safari,1440,900,,,,,1,1136,,,,,,,,,,,,,,,,,125,F,hexagon,1,0,,,,,,,,,,,,,,,,switch,number,numSwt,d,0.896,Lo,,,,,,5,,,,,,,,high,10,0,10,0,1,,,,,,,,,
296593,2022-11-27_17h47.10.734,vts_reward_expectancy_bt,2022.2.4,MacIntel,62.5,Safari,1440,900,,,,,0,1136,,,,,,,,,,,,,,,,,139,Y,triangle,0,0,,,,,,,,,,,,,,,,repeat,number,NA,f,1.131,Lo,,,,,,5,,,,,,,,high,11,0,11,0,1,,,,,,,,,
296593,2022-11-27_17h47.10.734,vts_reward_expectancy_bt,2022.2.4,MacIntel,62.5,Safari,1440,900,,,,,1,1137,,,,,,,,,,,,,,,,,174,U,star,1,1,,,,,,,,,,,,,,,,switch,letter,lettSwt,k,0.797,Lo,,,,,,5,,,,,,,,high,12,0,12,0,1,,,,,,,,,
296593,2022-11-27_17h47.10.734,vts_reward_expectancy_bt,2022.2.4,MacIntel,62.5,Safari,1440,900,,,,,0,1137,,,,,,,,,,,,,,,,,146,W,circle,1,0,,,,,,,,,,,,,,,,switch,number,numSwt,d,1.213,Hi,,,,,,5,,,,,,,,high,13,0,13,0,1,,,,,,,,,
296593,2022-11-27_17h47.10.734,vts_reward_expectancy_bt,2022.2.4,MacIntel,62.5,Safari,1440,900,,,,,0,1137,,,,,,,,,,,,,,,,,160,B,hexagon,0,0,,,,,,,,,,,,,,,,repeat,number,NA,d,1.202,Hi,,,,,,5,,,,,,,,high,14,0,14,0,1,,,,,,,,,
296593,2022-11-27_17h47.10.734,vts_reward_expectancy_bt,2022.2.4,MacIntel,62.5,Safari,1440,900,,,,,10,1147,,,,,,,,,,,,,,,,,181,S,triangle,1,1,,,,,,,,,,,,,,,,switch,letter,lettSwt,k,0.847,Hi,,,,,,5,,,,,,,,high,15,0,15,0,1,,,,,,,,,
296593,2022-11-27_17h47.10.734,vts_reward_expectancy_bt,2022.2.4,MacIntel,62.5,Safari,1440,900,,,,,10,1157,,,,,,,,,,,,,,,,,160,S,triangle,1,0,,,,,,,,,,,,,,,,switch,number,numSwt,f,0.865,Hi,,,,,,5,,,,,,,,high,16,0,16,0,1,,,,,,,,,
296593,2022-11-27_17h47.10.734,vts_reward_expectancy_bt,2022.2.4,MacIntel,62.5,Safari,1440,900,,,,,0,1157,,,,,,,,,,,,,,,,,167,B,hexagon,0,0,,,,,,,,,,,,,,,,switch,letter,NA,k,0.798,Hi,,,,,,5,,,,,,,,high,17,0,17,0,1,,,,,,,,,
296593,2022-11-27_17h47.10.734,vts_reward_expectancy_bt,2022.2.4,MacIntel,62.5,Safari,1440,900,,,,,1,1158,,,,,,,,,,,,,,,,,181,F,star,1,1,,,,,,,,,,,,,,,,switch,number,numSwt,f,1.182,Lo,,,,,,5,,,,,,,,high,18,0,18,0,1,,,,,,,,,
296593,2022-11-27_17h47.10.734,vts_reward_expectancy_bt,2022.2.4,MacIntel,62.5,Safari,1440,900,,,,,0,1158,,,,,,,,,,,,,,,,,146,Y,circle,1,0,,,,,,,,,,,,,,,,repeat,number,numRpt,d,1.405,Hi,,,,,,5,,,,,,,,high,19,0,19,0,1,,,,,,,,,
296593,2022-11-27_17h47.10.734,vts_reward_expectancy_bt,2022.2.4,MacIntel,62.5,Safari,1440,900,,,,,1,1159,,,,,,,,,,,,,,,,,132,H,hexagon,1,0,,,,,,,,,,,,,,,,repeat,number,numRpt,d,0.931,Lo,,,,,,5,,,,,,,,high,20,0,20,0,1,,,,,,,,,
296593,2022-11-27_17h47.10.734,vts_reward_expectancy_bt,2022.2.4,MacIntel,62.5,Safari,1440,900,,,,,1,1160,,,,,,,,,,,,,,,,,174,W,circle,1,0,,,,,,,,,,,,,,,,switch,letter,lettSwt,k,0.785,Hi,,,,,,5,,,,,,,,high,21,0,21,0,1,,,,,,,,,
296593,2022-11-27_17h47.10.734,vts_reward_expectancy_bt,2022.2.4,MacIntel,62.5,Safari,1440,900,,,,,0,1160,,,,,,,,,,,,,,,,,139,U,triangle,1,0,,,,,,,,,,,,,,,,repeat,letter,lettRpt,k,1.264,Hi,,,,,,5,,,,,,,,high,22,0,22,0,1,,,,,,,,,
296593,2022-11-27_17h47.10.734,vts_reward_expectancy_bt,2022.2.4,MacIntel,62.5,Safari,1440,900,,,,,1,1161,,,,,,,,,,,,,,,,,125,D,star,1,0,,,,,,,,,,,,,,,,repeat,letter,lettRpt,j,1.054,Lo,,,,,,5,,,,,,,,high,23,0,23,0,1,,,,,,,,,
296593,2022-11-27_17h47.10.734,vts_reward_expectancy_bt,2022.2.4,MacIntel,62.5,Safari,1440,900,,,,,1,1162,,,,,,,,,,,,,,,,,181,B,hexagon,1,0,,,,,,,,,,,,,,,,switch,number,numSwt,f,1.264,Lo,,,,,,5,,,,,,,,high,24,0,24,0,1,,,,,,,,,
296593,2022-11-27_17h47.10.734,vts_reward_expectancy_bt,2022.2.4,MacIntel,62.5,Safari,1440,900,,,,,0,1162,,,,,,,,,,,,,,,,,132,D,circle,1,0,,,,,,,,,,,,,,,,repeat,number,numRpt,d,1.113,Hi,,,,,,5,,,,,,,,high,25,0,25,0,1,,,,,,,,,
296593,2022-11-27_17h47.10.734,vts_reward_expectancy_bt,2022.2.4,MacIntel,62.5,Safari,1440,900,,,,,0,1162,,,,,,,,,,,,,,,,,125,S,triangle,1,0,,,,,,,,,,,,,,,,switch,letter,lettSwt,k,1.114,Hi,,,,,,5,,,,,,,,high,26,0,26,0,1,,,,,,,,,
296593,2022-11-27_17h47.10.734,vts_reward_expectancy_bt,2022.2.4,MacIntel,62.5,Safari,1440,900,,,,,10,1172,,,,,,,,,,,,,,,,,160,F,star,1,0,,,,,,,,,,,,,,,,repeat,letter,lettRpt,j,1.471,Lo,,,,,,5,,,,,,,,high,27,0,27,0,1,,,,,,,,,
296593,2022-11-27_17h47.10.734,vts_reward_expectancy_bt,2022.2.4,MacIntel,62.5,Safari,1440,900,,,,,0,1172,,,,,,,,,,,,,,,,,146,W,circle,1,0,,,,,,,,,,,,,,,,repeat,letter,lettRpt,k,1.481,Hi,,,,,,5,,,,,,,,high,28,0,28,0,1,,,,,,,,,
296593,2022-11-27_17h47.10.734,vts_reward_expectancy_bt,2022.2.4,MacIntel,62.5,Safari,1440,900,,,,,1,1173,,,,,,,,,,,,,,,,,174,Y,hexagon,1,0,,,,,,,,,,,,,,,,repeat,letter,lettRpt,k,1.364,Lo,,,,,,5,,,,,,,,high,29,0,29,0,1,,,,,,,,,
296593,2022-11-27_17h47.10.734,vts_reward_expectancy_bt,2022.2.4,MacIntel,62.5,Safari,1440,900,,,,,0,1173,,,,,,,,,,,,,,,,,139,H,triangle,1,0,,,,,,,,,,,,,,,,repeat,letter,lettRpt,j,1.499,Hi,,,,,,5,,,,,,,,high,30,0,30,0,1,,,,,,,,,
296593,2022-11-27_17h47.10.734,vts_reward_expectancy_bt,2022.2.4,MacIntel,62.5,Safari,1440,900,,,,,1,1174,,,,,,,,,,,,,,,,,167,U,star,1,0,,,,,,,,,,,,,,,,repeat,letter,lettRpt,k,0.931,Lo,,,,,,5,,,,,,,,high,31,0,31,0,1,,,,,,,,,
296593,2022-11-27_17h47.10.734,vts_reward_expectancy_bt,2022.2.4,MacIntel,62.5,Safari,1440,900,,,,,10,1184,,,,,,,,,,,,,,,,,146,D,triangle,1,0,,,,,,,,,,,,,,,,switch,number,numSwt,d,0.931,Hi,,,,,,6,,,,,,space,3.815,high,0,0,0,0,1,,,,,,,,,
296593,2022-11-27_17h47.10.734,vts_reward_expectancy_bt,2022.2.4,MacIntel,62.5,Safari,1440,900,,,,,10,1194,,,,,,,,,,,,,,,,,181,B,star,1,0,,,,,,,,,,,,,,,,switch,letter,lettSwt,j,1.347,Lo,,,,,,6,,,,,,,,high,1,0,1,0,1,,,,,,,,,
296593,2022-11-27_17h47.10.734,vts_reward_expectancy_bt,2022.2.4,MacIntel,62.5,Safari,1440,900,,,,,1,1195,,,,,,,,,,,,,,,,,167,Y,hexagon,1,0,,,,,,,,,,,,,,,,repeat,letter,lettRpt,k,0.864,Lo,,,,,,6,,,,,,,,high,2,0,2,0,1,,,,,,,,,
296593,2022-11-27_17h47.10.734,vts_reward_expectancy_bt,2022.2.4,MacIntel,62.5,Safari,1440,900,,,,,0,1195,,,,,,,,,,,,,,,,,139,F,circle,1,0,,,,,,,,,,,,,,,,switch,number,numSwt,d,0.947,Hi,,,,,,6,,,,,,,,high,3,0,3,0,1,,,,,,,,,
296593,2022-11-27_17h47.10.734,vts_reward_expectancy_bt,2022.2.4,MacIntel,62.5,Safari,1440,900,,,,,10,1205,,,,,,,,,,,,,,,,,132,H,triangle,1,0,,,,,,,,,,,,,,,,repeat,number,numRpt,d,0.785,Hi,,,,,,6,,,,,,,,high,4,0,4,0,1,,,,,,,,,
296593,2022-11-27_17h47.10.734,vts_reward_expectancy_bt,2022.2.4,MacIntel,62.5,Safari,1440,900,,,,,1,1206,,,,,,,,,,,,,,,,,174,U,star,1,0,,,,,,,,,,,,,,,,repeat,number,numRpt,f,0.814,Lo,,,,,,6,,,,,,,,high,5,0,5,0,1,,,,,,,,,
296593,2022-11-27_17h47.10.734,vts_reward_expectancy_bt,2022.2.4,MacIntel,62.5,Safari,1440,900,,,,,1,1207,,,,,,,,,,,,,,,,,160,W,hexagon,1,0,,,,,,,,,,,,,,,,switch,letter,lettSwt,k,0.763,Lo,,,,,,6,,,,,,,,high,6,0,6,0,1,,,,,,,,,
296593,2022-11-27_17h47.10.734,vts_reward_expectancy_bt,2022.2.4,MacIntel,62.5,Safari,1440,900,,,,,0,1207,,,,,,,,,,,,,,,,,125,S,circle,1,0,,,,,,,,,,,,,,,,switch,number,numSwt,d,1.18,Hi,,,,,,6,,,,,,,,high,7,0,7,0,1,,,,,,,,,
296593,2022-11-27_17h47.10.734,vts_reward_expectancy_bt,2022.2.4,MacIntel,62.5,Safari,1440,900,,,,,0,1207,,,,,,,,,,,,,,,,,146,D,circle,0,0,,,,,,,,,,,,,,,,switch,letter,NA,k,1.963,Hi,,,,,,6,,,,,,,,high,8,0,8,0,1,,,,,,,,,
296593,2022-11-27_17h47.10.734,vts_reward_expectancy_bt,2022.2.4,MacIntel,62.5,Safari,1440,900,,,,,1,1208,,,,,,,,,,,,,,,,,181,B,star,1,1,,,,,,,,,,,,,,,,repeat,letter,lettRpt,j,1.514,Lo,,,,,,6,,,,,,,,high,9,0,9,0,1,,,,,,,,,
296593,2022-11-27_17h47.10.734,vts_reward_expectancy_bt,2022.2.4,MacIntel,62.5,Safari,1440,900,,,,,10,1218,,,,,,,,,,,,,,,,,167,Y,triangle,1,0,,,,,,,,,,,,,,,,repeat,letter,lettRpt,k,0.912,Hi,,,,,,6,,,,,,,,high,10,0,10,0,1,,,,,,,,,
296593,2022-11-27_17h47.10.734,vts_reward_expectancy_bt,2022.2.4,MacIntel,62.5,Safari,1440,900,,,,,1,1219,,,,,,,,,,,,,,,,,139,F,hexagon,1,0,,,,,,,,,,,,,,,,switch,number,numSwt,d,0.971,Lo,,,,,,6,,,,,,,,high,11,0,11,0,1,,,,,,,,,
296593,2022-11-27_17h47.10.734,vts_reward_expectancy_bt,2022.2.4,MacIntel,62.5,Safari,1440,900,,,,,1,1220,,,,,,,,,,,,,,,,,132,H,hexagon,1,0,,,,,,,,,,,,,,,,repeat,number,numRpt,d,0.997,Lo,,,,,,6,,,,,,,,high,12,0,12,0,1,,,,,,,,,
296593,2022-11-27_17h47.10.734,vts_reward_expectancy_bt,2022.2.4,MacIntel,62.5,Safari,1440,900,,,,,1,1221,,,,,,,,,,,,,,,,,174,U,star,1,0,,,,,,,,,,,,,,,,switch,letter,lettSwt,k,0.78,Lo,,,,,,6,,,,,,,,high,13,0,13,0,1,,,,,,,,,
296593,2022-11-27_17h47.10.734,vts_reward_expectancy_bt,2022.2.4,MacIntel,62.5,Safari,1440,900,,,,,10,1231,,,,,,,,,,,,,,,,,160,W,triangle,1,0,,,,,,,,,,,,,,,,repeat,letter,lettRpt,k,0.964,Hi,,,,,,6,,,,,,,,high,14,0,14,0,1,,,,,,,,,
296593,2022-11-27_17h47.10.734,vts_reward_expectancy_bt,2022.2.4,MacIntel,62.5,Safari,1440,900,,,,,0,1231,,,,,,,,,,,,,,,,,125,S,circle,1,0,,,,,,,,,,,,,,,,switch,number,numSwt,d,1.12,Hi,,,,,,6,,,,,,,,high,15,0,15,0,1,,,,,,,,,
296593,2022-11-27_17h47.10.734,vts_reward_expectancy_bt,2022.2.4,MacIntel,62.5,Safari,1440,900,,,,,0,1231,,,,,,,,,,,,,,,,,174,H,circle,0,0,,,,,,,,,,,,,,,,switch,letter,NA,k,0.919,Hi,,,,,,6,,,,,,,,high,16,0,16,0,1,,,,,,,,,
296593,2022-11-27_17h47.10.734,vts_reward_expectancy_bt,2022.2.4,MacIntel,62.5,Safari,1440,900,,,,,10,1241,,,,,,,,,,,,,,,,,181,B,star,1,1,,,,,,,,,,,,,,,,switch,number,numSwt,f,1.447,Lo,,,,,,6,,,,,,,,high,17,0,17,0,1,,,,,,,,,
296593,2022-11-27_17h47.10.734,vts_reward_expectancy_bt,2022.2.4,MacIntel,62.5,Safari,1440,900,,,,,0,1241,,,,,,,,,,,,,,,,,132,U,triangle,0,0,,,,,,,,,,,,,,,,repeat,number,NA,f,2.015,Lo,,,,,,6,,,,,,,,high,18,0,18,0,1,,,,,,,,,
296593,2022-11-27_17h47.10.734,vts_reward_expectancy_bt,2022.2.4,MacIntel,62.5,Safari,1440,900,,,,,1,1242,,,,,,,,,,,,,,,,,125,D,hexagon,1,1,,,,,,,,,,,,,,,,repeat,number,numRpt,d,1.662,Lo,,,,,,6,,,,,,,,high,19,0,19,0,1,,,,,,,,,
296593,2022-11-27_17h47.10.734,vts_reward_expectancy_bt,2022.2.4,MacIntel,62.5,Safari,1440,900,,,,,0,1242,,,,,,,,,,,,,,,,,146,S,circle,1,0,,,,,,,,,,,,,,,,switch,letter,lettSwt,k,1.186,Hi,,,,,,6,,,,,,,,high,20,0,20,0,1,,,,,,,,,
296593,2022-11-27_17h47.10.734,vts_reward_expectancy_bt,2022.2.4,MacIntel,62.5,Safari,1440,900,,,,,1,1243,,,,,,,,,,,,,,,,,139,F,hexagon,1,0,,,,,,,,,,,,,,,,switch,number,numSwt,d,0.981,Lo,,,,,,6,,,,,,,,high,21,0,21,0,1,,,,,,,,,
296593,2022-11-27_17h47.10.734,vts_reward_expectancy_bt,2022.2.4,MacIntel,62.5,Safari,1440,900,,,,,1,1244,,,,,,,,,,,,,,,,,160,W,star,1,0,,,,,,,,,,,,,,,,switch,letter,lettSwt,k,1.013,Lo,,,,,,6,,,,,,,,high,22,0,22,0,1,,,,,,,,,
296593,2022-11-27_17h47.10.734,vts_reward_expectancy_bt,2022.2.4,MacIntel,62.5,Safari,1440,900,,,,,10,1254,,,,,,,,,,,,,,,,,167,Y,triangle,1,0,,,,,,,,,,,,,,,,repeat,letter,lettRpt,k,0.848,Hi,,,,,,6,,,,,,,,high,23,0,23,0,1,,,,,,,,,
296593,2022-11-27_17h47.10.734,vts_reward_expectancy_bt,2022.2.4,MacIntel,62.5,Safari,1440,900,,,,,10,1264,,,,,,,,,,,,,,,,,174,W,circle,1,0,,,,,,,,,,,,,,,,repeat,letter,lettRpt,k,0.697,Hi,,,,,,6,,,,,,,,high,24,0,24,0,1,,,,,,,,,
296593,2022-11-27_17h47.10.734,vts_reward_expectancy_bt,2022.2.4,MacIntel,62.5,Safari,1440,900,,,,,0,1264,,,,,,,,,,,,,,,,,125,S,hexagon,0,0,,,,,,,,,,,,,,,,repeat,letter,NA,j,1.013,Hi,,,,,,6,,,,,,,,high,25,0,25,0,1,,,,,,,,,
