participant,date,expName,psychopyVersion,OS,frameRate,browser,xResolution,yResolution,key_resp.keys,key_resp.rt,training_resp.keys,training_resp.rt,points_trial,points_cumul,trainBlock,training.thisRepN,training.thisTrialN,training.thisN,training.thisIndex,training.ran,LTriangleOpac,LCircleOpac,LHexagonOpac,LStarOpac,RTriangleOpac,RCircleOpac,RHexagonOpac,RStarOpac,LShape_ID,RShape_ID,curr_topStim,curr_bottStim,curr_shape,acc,E1,target_resp_prac1.keys,pracBlock,task1_prac_trials.thisRepN,task1_prac_trials.thisTrialN,task1_prac_trials.thisN,task1_prac_trials.thisIndex,task1_prac_trials.ran,target_resp_prac1.rt,target_resp_prac2.keys,target_resp_prac2.rt,task2_praac_trials.thisRepN,task2_praac_trials.thisTrialN,task2_praac_trials.thisN,task2_praac_trials.thisIndex,task2_praac_trials.ran,alt,task,condition,target_resp.keys,target_resp.rt,rewCond,vts_practice_trials.thisRepN,vts_practice_trials.thisTrialN,vts_practice_trials.thisN,vts_practice_trials.thisIndex,vts_practice_trials.ran,blockNum,trials_norew.thisRepN,trials_norew.thisTrialN,trials_norew.thisN,trials_norew.thisIndex,trials_norew.ran,key_resp_2.keys,key_resp_2.rt,rewExpectancy,trials_rew.thisRepN,trials_rew.thisTrialN,trials_rew.thisN,trials_rew.thisIndex,trials_rew.ran,Q1,Q2,Q2_text,Q3,Q4,Q5_text,Q5,xRes,yRes
296539,2022-11-28_12h10.00.521,vts_reward_expectancy_bt,2022.2.4,MacIntel,59.99880002,Chrome,1440,900,,,,,,,,,,,,,,,,,,,,,,,,,,,,,,,,,,,,,,,,,,,,,,,,,,,,,,,,,,,,,,,,,,,,,,,,,,,,
296539,2022-11-28_12h10.00.521,vts_reward_expectancy_bt,2022.2.4,MacIntel,59.99880002,Chrome,1440,900,space,7.7177,,,,,,,,,,,,,,,,,,,,,,,,,,,,,,,,,,,,,,,,,,,,,,,,,,,,,,,,,,,,,,,,,,,,,,,,,,
296539,2022-11-28_12h10.00.521,vts_reward_expectancy_bt,2022.2.4,MacIntel,59.99880002,Chrome,1440,900,,,,,,,,,,,,,,,,,,,,,,,,,,,,,,,,,,,,,,,,,,,,,,,,,,,,,,,,,,,,,,,,,,,,,,,,,,,,
296539,2022-11-28_12h10.00.521,vts_reward_expectancy_bt,2022.2.4,MacIntel,59.99880002,Chrome,1440,900,,,a,1.3367,10,10,0,0,0,0,0,1,1,0,0,0,0,1,0,0,triangle,circle,,,,,,,,,,,,,,,,,,,,,,,,,,,,,,,,,,,,,,,,,,,,,,,,,,,,,,
296539,2022-11-28_12h10.00.521,vts_reward_expectancy_bt,2022.2.4,MacIntel,59.99880002,Chrome,1440,900,,,a,0.9479,10,20,0,0,1,1,2,1,1,0,0,0,0,0,0,1,triangle,star,,,,,,,,,,,,,,,,,,,,,,,,,,,,,,,,,,,,,,,,,,,,,,,,,,,,,,
296539,2022-11-28_12h10.00.521,vts_reward_expectancy_bt,2022.2.4,MacIntel,59.99880002,Chrome,1440,900,,,a,1.3816,1,21,0,0,2,2,7,1,0,0,1,0,0,1,0,0,hexagon,circle,,,,,,,,,,,,,,,,,,,,,,,,,,,,,,,,,,,,,,,,,,,,,,,,,,,,,,
296539,2022-11-28_12h10.00.521,vts_reward_expectancy_bt,2022.2.4,MacIntel,59.99880002,Chrome,1440,900,,,l,1.3383,1,22,0,0,3,3,4,1,0,1,0,0,0,0,1,0,circle,hexagon,,,,,,,,,,,,,,,,,,,,,,,,,,,,,,,,,,,,,,,,,,,,,,,,,,,,,,
296539,2022-11-28_12h10.00.521,vts_reward_expectancy_bt,2022.2.4,MacIntel,59.99880002,Chrome,1440,900,,,l,1.8696,10,32,0,0,4,4,8,1,0,0,1,0,0,0,0,1,hexagon,star,,,,,,,,,,,,,,,,,,,,,,,,,,,,,,,,,,,,,,,,,,,,,,,,,,,,,,
296539,2022-11-28_12h10.00.521,vts_reward_expectancy_bt,2022.2.4,MacIntel,59.99880002,Chrome,1440,900,,,a,1.1197,10,42,0,0,5,5,6,1,0,0,1,0,1,0,0,0,hexagon,triangle,,,,,,,,,,,,,,,,,,,,,,,,,,,,,,,,,,,,,,,,,,,,,,,,,,,,,,
296539,2022-11-28_12h10.00.521,vts_reward_expectancy_bt,2022.2.4,MacIntel,59.99880002,Chrome,1440,900,,,l,0.6854,10,52,0,0,6,6,10,1,0,0,0,1,0,1,0,0,star ,circle,,,,,,,,,,,,,,,,,,,,,,,,,,,,,,,,,,,,,,,,,,,,,,,,,,,,,,
296539,2022-11-28_12h10.00.521,vts_reward_expectancy_bt,2022.2.4,MacIntel,59.99880002,Chrome,1440,900,,,a,0.839,10,62,0,0,7,7,9,1,0,0,0,1,1,0,0,0,star,triangle,,,,,,,,,,,,,,,,,,,,,,,,,,,,,,,,,,,,,,,,,,,,,,,,,,,,,,
296539,2022-11-28_12h10.00.521,vts_reward_expectancy_bt,2022.2.4,MacIntel,59.99880002,Chrome,1440,900,,,a,0.7782,1,63,0,0,8,8,11,1,0,0,0,1,0,0,1,0,star,hexagon,,,,,,,,,,,,,,,,,,,,,,,,,,,,,,,,,,,,,,,,,,,,,,,,,,,,,,
296539,2022-11-28_12h10.00.521,vts_reward_expectancy_bt,2022.2.4,MacIntel,59.99880002,Chrome,1440,900,,,l,0.9166,10,73,0,0,9,9,1,1,1,0,0,0,0,0,1,0,triangle,hexagon,,,,,,,,,,,,,,,,,,,,,,,,,,,,,,,,,,,,,,,,,,,,,,,,,,,,,,
296539,2022-11-28_12h10.00.521,vts_reward_expectancy_bt,2022.2.4,MacIntel,59.99880002,Chrome,1440,900,,,a,1.2936,10,83,0,0,10,10,3,1,0,1,0,0,1,0,0,0,circle,triangle,,,,,,,,,,,,,,,,,,,,,,,,,,,,,,,,,,,,,,,,,,,,,,,,,,,,,,
296539,2022-11-28_12h10.00.521,vts_reward_expectancy_bt,2022.2.4,MacIntel,59.99880002,Chrome,1440,900,,,a,2.0035,1,84,0,0,11,11,5,1,0,1,0,0,0,0,0,1,circle,star,,,,,,,,,,,,,,,,,,,,,,,,,,,,,,,,,,,,,,,,,,,,,,,,,,,,,,
296539,2022-11-28_12h10.00.521,vts_reward_expectancy_bt,2022.2.4,MacIntel,59.99880002,Chrome,1440,900,,,l,1.2385,10,94,0,1,0,12,2,1,1,0,0,0,0,0,0,1,triangle,star,,,,,,,,,,,,,,,,,,,,,,,,,,,,,,,,,,,,,,,,,,,,,,,,,,,,,,
296539,2022-11-28_12h10.00.521,vts_reward_expectancy_bt,2022.2.4,MacIntel,59.99880002,Chrome,1440,900,,,l,1.2084,1,95,0,1,1,13,8,1,0,0,1,0,0,0,0,1,hexagon,star,,,,,,,,,,,,,,,,,,,,,,,,,,,,,,,,,,,,,,,,,,,,,,,,,,,,,,
296539,2022-11-28_12h10.00.521,vts_reward_expectancy_bt,2022.2.4,MacIntel,59.99880002,Chrome,1440,900,,,a,0.8385,10,105,0,1,2,14,3,1,0,1,0,0,1,0,0,0,circle,triangle,,,,,,,,,,,,,,,,,,,,,,,,,,,,,,,,,,,,,,,,,,,,,,,,,,,,,,
296539,2022-11-28_12h10.00.521,vts_reward_expectancy_bt,2022.2.4,MacIntel,59.99880002,Chrome,1440,900,,,l,1.1466,1,106,0,1,3,15,0,1,1,0,0,0,0,1,0,0,triangle,circle,,,,,,,,,,,,,,,,,,,,,,,,,,,,,,,,,,,,,,,,,,,,,,,,,,,,,,
296539,2022-11-28_12h10.00.521,vts_reward_expectancy_bt,2022.2.4,MacIntel,59.99880002,Chrome,1440,900,,,a,0.6523,10,116,0,1,4,16,11,1,0,0,0,1,0,0,1,0,star,hexagon,,,,,,,,,,,,,,,,,,,,,,,,,,,,,,,,,,,,,,,,,,,,,,,,,,,,,,
296539,2022-11-28_12h10.00.521,vts_reward_expectancy_bt,2022.2.4,MacIntel,59.99880002,Chrome,1440,900,,,a,0.9023,10,126,0,1,5,17,9,1,0,0,0,1,1,0,0,0,star,triangle,,,,,,,,,,,,,,,,,,,,,,,,,,,,,,,,,,,,,,,,,,,,,,,,,,,,,,
296539,2022-11-28_12h10.00.521,vts_reward_expectancy_bt,2022.2.4,MacIntel,59.99880002,Chrome,1440,900,,,l,0.9859,10,136,0,1,6,18,5,1,0,1,0,0,0,0,0,1,circle,star,,,,,,,,,,,,,,,,,,,,,,,,,,,,,,,,,,,,,,,,,,,,,,,,,,,,,,
296539,2022-11-28_12h10.00.521,vts_reward_expectancy_bt,2022.2.4,MacIntel,59.99880002,Chrome,1440,900,,,l,1.0694,10,146,0,1,7,19,4,1,0,1,0,0,0,0,1,0,circle,hexagon,,,,,,,,,,,,,,,,,,,,,,,,,,,,,,,,,,,,,,,,,,,,,,,,,,,,,,
296539,2022-11-28_12h10.00.521,vts_reward_expectancy_bt,2022.2.4,MacIntel,59.99880002,Chrome,1440,900,,,a,1.0003,10,156,0,1,8,20,10,1,0,0,0,1,0,1,0,0,star ,circle,,,,,,,,,,,,,,,,,,,,,,,,,,,,,,,,,,,,,,,,,,,,,,,,,,,,,,
296539,2022-11-28_12h10.00.521,vts_reward_expectancy_bt,2022.2.4,MacIntel,59.99880002,Chrome,1440,900,,,l,1.7506,1,157,0,1,9,21,7,1,0,0,1,0,0,1,0,0,hexagon,circle,,,,,,,,,,,,,,,,,,,,,,,,,,,,,,,,,,,,,,,,,,,,,,,,,,,,,,
296539,2022-11-28_12h10.00.521,vts_reward_expectancy_bt,2022.2.4,MacIntel,59.99880002,Chrome,1440,900,,,l,1.3047,10,167,0,1,10,22,1,1,1,0,0,0,0,0,1,0,triangle,hexagon,,,,,,,,,,,,,,,,,,,,,,,,,,,,,,,,,,,,,,,,,,,,,,,,,,,,,,
296539,2022-11-28_12h10.00.521,vts_reward_expectancy_bt,2022.2.4,MacIntel,59.99880002,Chrome,1440,900,,,a,0.8346,1,168,0,1,11,23,6,1,0,0,1,0,1,0,0,0,hexagon,triangle,,,,,,,,,,,,,,,,,,,,,,,,,,,,,,,,,,,,,,,,,,,,,,,,,,,,,,
296539,2022-11-28_12h10.00.521,vts_reward_expectancy_bt,2022.2.4,MacIntel,59.99880002,Chrome,1440,900,,,l,0.6199,10,178,0,2,0,24,3,1,0,1,0,0,1,0,0,0,circle,triangle,,,,,,,,,,,,,,,,,,,,,,,,,,,,,,,,,,,,,,,,,,,,,,,,,,,,,,
296539,2022-11-28_12h10.00.521,vts_reward_expectancy_bt,2022.2.4,MacIntel,59.99880002,Chrome,1440,900,,,a,0.8028,1,179,0,2,1,25,9,1,0,0,0,1,1,0,0,0,star,triangle,,,,,,,,,,,,,,,,,,,,,,,,,,,,,,,,,,,,,,,,,,,,,,,,,,,,,,
296539,2022-11-28_12h10.00.521,vts_reward_expectancy_bt,2022.2.4,MacIntel,59.99880002,Chrome,1440,900,,,l,0.9206,10,189,0,2,2,26,0,1,1,0,0,0,0,1,0,0,triangle,circle,,,,,,,,,,,,,,,,,,,,,,,,,,,,,,,,,,,,,,,,,,,,,,,,,,,,,,
296539,2022-11-28_12h10.00.521,vts_reward_expectancy_bt,2022.2.4,MacIntel,59.99880002,Chrome,1440,900,,,l,0.2741,1,190,0,2,3,27,11,1,0,0,0,1,0,0,1,0,star,hexagon,,,,,,,,,,,,,,,,,,,,,,,,,,,,,,,,,,,,,,,,,,,,,,,,,,,,,,
296539,2022-11-28_12h10.00.521,vts_reward_expectancy_bt,2022.2.4,MacIntel,59.99880002,Chrome,1440,900,,,l,0.289,1,191,0,2,4,28,1,1,1,0,0,0,0,0,1,0,triangle,hexagon,,,,,,,,,,,,,,,,,,,,,,,,,,,,,,,,,,,,,,,,,,,,,,,,,,,,,,
296539,2022-11-28_12h10.00.521,vts_reward_expectancy_bt,2022.2.4,MacIntel,59.99880002,Chrome,1440,900,,,l,0.3156,1,192,0,2,5,29,7,1,0,0,1,0,0,1,0,0,hexagon,circle,,,,,,,,,,,,,,,,,,,,,,,,,,,,,,,,,,,,,,,,,,,,,,,,,,,,,,
296539,2022-11-28_12h10.00.521,vts_reward_expectancy_bt,2022.2.4,MacIntel,59.99880002,Chrome,1440,900,,,l,0.4787,10,202,0,2,6,30,5,1,0,1,0,0,0,0,0,1,circle,star,,,,,,,,,,,,,,,,,,,,,,,,,,,,,,,,,,,,,,,,,,,,,,,,,,,,,,
296539,2022-11-28_12h10.00.521,vts_reward_expectancy_bt,2022.2.4,MacIntel,59.99880002,Chrome,1440,900,,,l,0.437,10,212,0,2,7,31,8,1,0,0,1,0,0,0,0,1,hexagon,star,,,,,,,,,,,,,,,,,,,,,,,,,,,,,,,,,,,,,,,,,,,,,,,,,,,,,,
296539,2022-11-28_12h10.00.521,vts_reward_expectancy_bt,2022.2.4,MacIntel,59.99880002,Chrome,1440,900,,,l,0.4845,10,222,0,2,8,32,6,1,0,0,1,0,1,0,0,0,hexagon,triangle,,,,,,,,,,,,,,,,,,,,,,,,,,,,,,,,,,,,,,,,,,,,,,,,,,,,,,
296539,2022-11-28_12h10.00.521,vts_reward_expectancy_bt,2022.2.4,MacIntel,59.99880002,Chrome,1440,900,,,l,1.2335,1,223,0,2,9,33,4,1,0,1,0,0,0,0,1,0,circle,hexagon,,,,,,,,,,,,,,,,,,,,,,,,,,,,,,,,,,,,,,,,,,,,,,,,,,,,,,
296539,2022-11-28_12h10.00.521,vts_reward_expectancy_bt,2022.2.4,MacIntel,59.99880002,Chrome,1440,900,,,a,0.8901,1,224,0,2,10,34,10,1,0,0,0,1,0,1,0,0,star ,circle,,,,,,,,,,,,,,,,,,,,,,,,,,,,,,,,,,,,,,,,,,,,,,,,,,,,,,
296539,2022-11-28_12h10.00.521,vts_reward_expectancy_bt,2022.2.4,MacIntel,59.99880002,Chrome,1440,900,,,l,1.0351,10,234,0,2,11,35,2,1,1,0,0,0,0,0,0,1,triangle,star,,,,,,,,,,,,,,,,,,,,,,,,,,,,,,,,,,,,,,,,,,,,,,,,,,,,,,
296539,2022-11-28_12h10.00.521,vts_reward_expectancy_bt,2022.2.4,MacIntel,59.99880002,Chrome,1440,900,,,a,0.7739,10,244,1,0,0,0,10,1,0,0,0,1,0,1,0,0,star ,circle,,,,,,,,,,,,,,,,,,,,,,,,,,,,,,,,,,,,,,,,,,,,,,,,,,,,,,
296539,2022-11-28_12h10.00.521,vts_reward_expectancy_bt,2022.2.4,MacIntel,59.99880002,Chrome,1440,900,,,a,0.717,10,254,1,0,1,1,6,1,0,0,1,0,1,0,0,0,hexagon,triangle,,,,,,,,,,,,,,,,,,,,,,,,,,,,,,,,,,,,,,,,,,,,,,,,,,,,,,
296539,2022-11-28_12h10.00.521,vts_reward_expectancy_bt,2022.2.4,MacIntel,59.99880002,Chrome,1440,900,,,a,0.6207,10,264,1,0,2,2,11,1,0,0,0,1,0,0,1,0,star,hexagon,,,,,,,,,,,,,,,,,,,,,,,,,,,,,,,,,,,,,,,,,,,,,,,,,,,,,,
296539,2022-11-28_12h10.00.521,vts_reward_expectancy_bt,2022.2.4,MacIntel,59.99880002,Chrome,1440,900,,,a,0.6033,10,274,1,0,3,3,0,1,1,0,0,0,0,1,0,0,triangle,circle,,,,,,,,,,,,,,,,,,,,,,,,,,,,,,,,,,,,,,,,,,,,,,,,,,,,,,
296539,2022-11-28_12h10.00.521,vts_reward_expectancy_bt,2022.2.4,MacIntel,59.99880002,Chrome,1440,900,,,l,0.7697,1,275,1,0,4,4,1,1,1,0,0,0,0,0,1,0,triangle,hexagon,,,,,,,,,,,,,,,,,,,,,,,,,,,,,,,,,,,,,,,,,,,,,,,,,,,,,,
296539,2022-11-28_12h10.00.521,vts_reward_expectancy_bt,2022.2.4,MacIntel,59.99880002,Chrome,1440,900,,,a,0.4457,10,285,1,0,5,5,7,1,0,0,1,0,0,1,0,0,hexagon,circle,,,,,,,,,,,,,,,,,,,,,,,,,,,,,,,,,,,,,,,,,,,,,,,,,,,,,,
296539,2022-11-28_12h10.00.521,vts_reward_expectancy_bt,2022.2.4,MacIntel,59.99880002,Chrome,1440,900,,,a,0.5281,10,295,1,0,6,6,9,1,0,0,0,1,1,0,0,0,star,triangle,,,,,,,,,,,,,,,,,,,,,,,,,,,,,,,,,,,,,,,,,,,,,,,,,,,,,,
296539,2022-11-28_12h10.00.521,vts_reward_expectancy_bt,2022.2.4,MacIntel,59.99880002,Chrome,1440,900,,,l,0.5358,10,305,1,0,7,7,5,1,0,1,0,0,0,0,0,1,circle,star,,,,,,,,,,,,,,,,,,,,,,,,,,,,,,,,,,,,,,,,,,,,,,,,,,,,,,
296539,2022-11-28_12h10.00.521,vts_reward_expectancy_bt,2022.2.4,MacIntel,59.99880002,Chrome,1440,900,,,l,0.9681,10,315,1,0,8,8,3,1,0,1,0,0,1,0,0,0,circle,triangle,,,,,,,,,,,,,,,,,,,,,,,,,,,,,,,,,,,,,,,,,,,,,,,,,,,,,,
296539,2022-11-28_12h10.00.521,vts_reward_expectancy_bt,2022.2.4,MacIntel,59.99880002,Chrome,1440,900,,,l,0.8204,10,325,1,0,9,9,4,1,0,1,0,0,0,0,1,0,circle,hexagon,,,,,,,,,,,,,,,,,,,,,,,,,,,,,,,,,,,,,,,,,,,,,,,,,,,,,,
296539,2022-11-28_12h10.00.521,vts_reward_expectancy_bt,2022.2.4,MacIntel,59.99880002,Chrome,1440,900,,,l,0.632,1,326,1,0,10,10,8,1,0,0,1,0,0,0,0,1,hexagon,star,,,,,,,,,,,,,,,,,,,,,,,,,,,,,,,,,,,,,,,,,,,,,,,,,,,,,,
296539,2022-11-28_12h10.00.521,vts_reward_expectancy_bt,2022.2.4,MacIntel,59.99880002,Chrome,1440,900,,,l,0.6022,1,327,1,0,11,11,2,1,1,0,0,0,0,0,0,1,triangle,star,,,,,,,,,,,,,,,,,,,,,,,,,,,,,,,,,,,,,,,,,,,,,,,,,,,,,,
296539,2022-11-28_12h10.00.521,vts_reward_expectancy_bt,2022.2.4,MacIntel,59.99880002,Chrome,1440,900,,,a,0.5552,1,328,1,1,0,12,10,1,0,0,0,1,0,1,0,0,star ,circle,,,,,,,,,,,,,,,,,,,,,,,,,,,,,,,,,,,,,,,,,,,,,,,,,,,,,,
296539,2022-11-28_12h10.00.521,vts_reward_expectancy_bt,2022.2.4,MacIntel,59.99880002,Chrome,1440,900,,,l,0.4894,1,329,1,1,1,13,7,1,0,0,1,0,0,1,0,0,hexagon,circle,,,,,,,,,,,,,,,,,,,,,,,,,,,,,,,,,,,,,,,,,,,,,,,,,,,,,,
296539,2022-11-28_12h10.00.521,vts_reward_expectancy_bt,2022.2.4,MacIntel,59.99880002,Chrome,1440,900,,,a,0.7024,10,339,1,1,2,14,0,1,1,0,0,0,0,1,0,0,triangle,circle,,,,,,,,,,,,,,,,,,,,,,,,,,,,,,,,,,,,,,,,,,,,,,,,,,,,,,
296539,2022-11-28_12h10.00.521,vts_reward_expectancy_bt,2022.2.4,MacIntel,59.99880002,Chrome,1440,900,,,a,1.2566,10,349,1,1,3,15,9,1,0,0,0,1,1,0,0,0,star,triangle,,,,,,,,,,,,,,,,,,,,,,,,,,,,,,,,,,,,,,,,,,,,,,,,,,,,,,
296539,2022-11-28_12h10.00.521,vts_reward_expectancy_bt,2022.2.4,MacIntel,59.99880002,Chrome,1440,900,,,a,1.8895,1,350,1,1,4,16,4,1,0,1,0,0,0,0,1,0,circle,hexagon,,,,,,,,,,,,,,,,,,,,,,,,,,,,,,,,,,,,,,,,,,,,,,,,,,,,,,
296539,2022-11-28_12h10.00.521,vts_reward_expectancy_bt,2022.2.4,MacIntel,59.99880002,Chrome,1440,900,,,l,2.1362,1,351,1,1,5,17,3,1,0,1,0,0,1,0,0,0,circle,triangle,,,,,,,,,,,,,,,,,,,,,,,,,,,,,,,,,,,,,,,,,,,,,,,,,,,,,,
296539,2022-11-28_12h10.00.521,vts_reward_expectancy_bt,2022.2.4,MacIntel,59.99880002,Chrome,1440,900,,,l,1.2029,1,352,1,1,6,18,1,1,1,0,0,0,0,0,1,0,triangle,hexagon,,,,,,,,,,,,,,,,,,,,,,,,,,,,,,,,,,,,,,,,,,,,,,,,,,,,,,
296539,2022-11-28_12h10.00.521,vts_reward_expectancy_bt,2022.2.4,MacIntel,59.99880002,Chrome,1440,900,,,l,2.0719,10,362,1,1,7,19,2,1,1,0,0,0,0,0,0,1,triangle,star,,,,,,,,,,,,,,,,,,,,,,,,,,,,,,,,,,,,,,,,,,,,,,,,,,,,,,
296539,2022-11-28_12h10.00.521,vts_reward_expectancy_bt,2022.2.4,MacIntel,59.99880002,Chrome,1440,900,,,a,0.6857,1,363,1,1,8,20,5,1,0,1,0,0,0,0,0,1,circle,star,,,,,,,,,,,,,,,,,,,,,,,,,,,,,,,,,,,,,,,,,,,,,,,,,,,,,,
296539,2022-11-28_12h10.00.521,vts_reward_expectancy_bt,2022.2.4,MacIntel,59.99880002,Chrome,1440,900,,,l,0.4064,10,373,1,1,9,21,6,1,0,0,1,0,1,0,0,0,hexagon,triangle,,,,,,,,,,,,,,,,,,,,,,,,,,,,,,,,,,,,,,,,,,,,,,,,,,,,,,
296539,2022-11-28_12h10.00.521,vts_reward_expectancy_bt,2022.2.4,MacIntel,59.99880002,Chrome,1440,900,,,l,0.3848,10,383,1,1,10,22,8,1,0,0,1,0,0,0,0,1,hexagon,star,,,,,,,,,,,,,,,,,,,,,,,,,,,,,,,,,,,,,,,,,,,,,,,,,,,,,,
296539,2022-11-28_12h10.00.521,vts_reward_expectancy_bt,2022.2.4,MacIntel,59.99880002,Chrome,1440,900,,,l,0.47,1,384,1,1,11,23,11,1,0,0,0,1,0,0,1,0,star,hexagon,,,,,,,,,,,,,,,,,,,,,,,,,,,,,,,,,,,,,,,,,,,,,,,,,,,,,,
296539,2022-11-28_12h10.00.521,vts_reward_expectancy_bt,2022.2.4,MacIntel,59.99880002,Chrome,1440,900,,,l,0.3494,1,385,1,2,0,24,1,1,1,0,0,0,0,0,1,0,triangle,hexagon,,,,,,,,,,,,,,,,,,,,,,,,,,,,,,,,,,,,,,,,,,,,,,,,,,,,,,
296539,2022-11-28_12h10.00.521,vts_reward_expectancy_bt,2022.2.4,MacIntel,59.99880002,Chrome,1440,900,,,l,0.4327,10,395,1,2,1,25,8,1,0,0,1,0,0,0,0,1,hexagon,star,,,,,,,,,,,,,,,,,,,,,,,,,,,,,,,,,,,,,,,,,,,,,,,,,,,,,,
296539,2022-11-28_12h10.00.521,vts_reward_expectancy_bt,2022.2.4,MacIntel,59.99880002,Chrome,1440,900,,,a,0.4037,10,405,1,2,2,26,11,1,0,0,0,1,0,0,1,0,star,hexagon,,,,,,,,,,,,,,,,,,,,,,,,,,,,,,,,,,,,,,,,,,,,,,,,,,,,,,
296539,2022-11-28_12h10.00.521,vts_reward_expectancy_bt,2022.2.4,MacIntel,59.99880002,Chrome,1440,900,,,a,0.3055,10,415,1,2,3,27,5,1,0,1,0,0,0,0,0,1,circle,star,,,,,,,,,,,,,,,,,,,,,,,,,,,,,,,,,,,,,,,,,,,,,,,,,,,,,,
296539,2022-11-28_12h10.00.521,vts_reward_expectancy_bt,2022.2.4,MacIntel,59.99880002,Chrome,1440,900,,,l,0.3173,1,416,1,2,4,28,10,1,0,0,0,1,0,1,0,0,star ,circle,,,,,,,,,,,,,,,,,,,,,,,,,,,,,,,,,,,,,,,,,,,,,,,,,,,,,,
296539,2022-11-28_12h10.00.521,vts_reward_expectancy_bt,2022.2.4,MacIntel,59.99880002,Chrome,1440,900,,,l,0.3174,10,426,1,2,5,29,2,1,1,0,0,0,0,0,0,1,triangle,star,,,,,,,,,,,,,,,,,,,,,,,,,,,,,,,,,,,,,,,,,,,,,,,,,,,,,,
296539,2022-11-28_12h10.00.521,vts_reward_expectancy_bt,2022.2.4,MacIntel,59.99880002,Chrome,1440,900,,,a,0.3325,1,427,1,2,6,30,4,1,0,1,0,0,0,0,1,0,circle,hexagon,,,,,,,,,,,,,,,,,,,,,,,,,,,,,,,,,,,,,,,,,,,,,,,,,,,,,,
296539,2022-11-28_12h10.00.521,vts_reward_expectancy_bt,2022.2.4,MacIntel,59.99880002,Chrome,1440,900,,,a,0.4219,1,428,1,2,7,31,3,1,0,1,0,0,1,0,0,0,circle,triangle,,,,,,,,,,,,,,,,,,,,,,,,,,,,,,,,,,,,,,,,,,,,,,,,,,,,,,
296539,2022-11-28_12h10.00.521,vts_reward_expectancy_bt,2022.2.4,MacIntel,59.99880002,Chrome,1440,900,,,a,0.4504,1,429,1,2,8,32,7,1,0,0,1,0,0,1,0,0,hexagon,circle,,,,,,,,,,,,,,,,,,,,,,,,,,,,,,,,,,,,,,,,,,,,,,,,,,,,,,
296539,2022-11-28_12h10.00.521,vts_reward_expectancy_bt,2022.2.4,MacIntel,59.99880002,Chrome,1440,900,,,a,0.302,1,430,1,2,9,33,0,1,1,0,0,0,0,1,0,0,triangle,circle,,,,,,,,,,,,,,,,,,,,,,,,,,,,,,,,,,,,,,,,,,,,,,,,,,,,,,
296539,2022-11-28_12h10.00.521,vts_reward_expectancy_bt,2022.2.4,MacIntel,59.99880002,Chrome,1440,900,,,a,0.2512,10,440,1,2,10,34,9,1,0,0,0,1,1,0,0,0,star,triangle,,,,,,,,,,,,,,,,,,,,,,,,,,,,,,,,,,,,,,,,,,,,,,,,,,,,,,
296539,2022-11-28_12h10.00.521,vts_reward_expectancy_bt,2022.2.4,MacIntel,59.99880002,Chrome,1440,900,,,a,0.3351,1,441,1,2,11,35,6,1,0,0,1,0,1,0,0,0,hexagon,triangle,,,,,,,,,,,,,,,,,,,,,,,,,,,,,,,,,,,,,,,,,,,,,,,,,,,,,,
296539,2022-11-28_12h10.00.521,vts_reward_expectancy_bt,2022.2.4,MacIntel,59.99880002,Chrome,1440,900,,,l,0.6845,1,442,2,0,0,0,2,1,1,0,0,0,0,0,0,1,triangle,star,,,,,,,,,,,,,,,,,,,,,,,,,,,,,,,,,,,,,,,,,,,,,,,,,,,,,,
296539,2022-11-28_12h10.00.521,vts_reward_expectancy_bt,2022.2.4,MacIntel,59.99880002,Chrome,1440,900,,,l,0.1524,1,443,2,0,1,1,7,1,0,0,1,0,0,1,0,0,hexagon,circle,,,,,,,,,,,,,,,,,,,,,,,,,,,,,,,,,,,,,,,,,,,,,,,,,,,,,,
296539,2022-11-28_12h10.00.521,vts_reward_expectancy_bt,2022.2.4,MacIntel,59.99880002,Chrome,1440,900,,,l,0.3354,1,444,2,0,2,2,0,1,1,0,0,0,0,1,0,0,triangle,circle,,,,,,,,,,,,,,,,,,,,,,,,,,,,,,,,,,,,,,,,,,,,,,,,,,,,,,
296539,2022-11-28_12h10.00.521,vts_reward_expectancy_bt,2022.2.4,MacIntel,59.99880002,Chrome,1440,900,,,a,0.2832,10,454,2,0,3,3,1,1,1,0,0,0,0,0,1,0,triangle,hexagon,,,,,,,,,,,,,,,,,,,,,,,,,,,,,,,,,,,,,,,,,,,,,,,,,,,,,,
296539,2022-11-28_12h10.00.521,vts_reward_expectancy_bt,2022.2.4,MacIntel,59.99880002,Chrome,1440,900,,,l,0.0911,10,464,2,0,4,4,6,1,0,0,1,0,1,0,0,0,hexagon,triangle,,,,,,,,,,,,,,,,,,,,,,,,,,,,,,,,,,,,,,,,,,,,,,,,,,,,,,
296539,2022-11-28_12h10.00.521,vts_reward_expectancy_bt,2022.2.4,MacIntel,59.99880002,Chrome,1440,900,,,l,0.3169,1,465,2,0,5,5,4,1,0,1,0,0,0,0,1,0,circle,hexagon,,,,,,,,,,,,,,,,,,,,,,,,,,,,,,,,,,,,,,,,,,,,,,,,,,,,,,
296539,2022-11-28_12h10.00.521,vts_reward_expectancy_bt,2022.2.4,MacIntel,59.99880002,Chrome,1440,900,,,l,0.3512,1,466,2,0,6,6,11,1,0,0,0,1,0,0,1,0,star,hexagon,,,,,,,,,,,,,,,,,,,,,,,,,,,,,,,,,,,,,,,,,,,,,,,,,,,,,,
296539,2022-11-28_12h10.00.521,vts_reward_expectancy_bt,2022.2.4,MacIntel,59.99880002,Chrome,1440,900,,,a,0.0006,10,476,2,0,7,7,5,1,0,1,0,0,0,0,0,1,circle,star,,,,,,,,,,,,,,,,,,,,,,,,,,,,,,,,,,,,,,,,,,,,,,,,,,,,,,
296539,2022-11-28_12h10.00.521,vts_reward_expectancy_bt,2022.2.4,MacIntel,59.99880002,Chrome,1440,900,,,l,0.221,10,486,2,0,8,8,9,1,0,0,0,1,1,0,0,0,star,triangle,,,,,,,,,,,,,,,,,,,,,,,,,,,,,,,,,,,,,,,,,,,,,,,,,,,,,,
296539,2022-11-28_12h10.00.521,vts_reward_expectancy_bt,2022.2.4,MacIntel,59.99880002,Chrome,1440,900,,,a,0.2512,10,496,2,0,9,9,10,1,0,0,0,1,0,1,0,0,star ,circle,,,,,,,,,,,,,,,,,,,,,,,,,,,,,,,,,,,,,,,,,,,,,,,,,,,,,,
296539,2022-11-28_12h10.00.521,vts_reward_expectancy_bt,2022.2.4,MacIntel,59.99880002,Chrome,1440,900,,,l,0.1735,10,506,2,0,10,10,8,1,0,0,1,0,0,0,0,1,hexagon,star,,,,,,,,,,,,,,,,,,,,,,,,,,,,,,,,,,,,,,,,,,,,,,,,,,,,,,
296539,2022-11-28_12h10.00.521,vts_reward_expectancy_bt,2022.2.4,MacIntel,59.99880002,Chrome,1440,900,,,a,0.2815,1,507,2,0,11,11,3,1,0,1,0,0,1,0,0,0,circle,triangle,,,,,,,,,,,,,,,,,,,,,,,,,,,,,,,,,,,,,,,,,,,,,,,,,,,,,,
296539,2022-11-28_12h10.00.521,vts_reward_expectancy_bt,2022.2.4,MacIntel,59.99880002,Chrome,1440,900,,,a,0.1663,1,508,2,1,0,12,9,1,0,0,0,1,1,0,0,0,star,triangle,,,,,,,,,,,,,,,,,,,,,,,,,,,,,,,,,,,,,,,,,,,,,,,,,,,,,,
296539,2022-11-28_12h10.00.521,vts_reward_expectancy_bt,2022.2.4,MacIntel,59.99880002,Chrome,1440,900,,,l,0.3384,1,509,2,1,1,13,7,1,0,0,1,0,0,1,0,0,hexagon,circle,,,,,,,,,,,,,,,,,,,,,,,,,,,,,,,,,,,,,,,,,,,,,,,,,,,,,,
296539,2022-11-28_12h10.00.521,vts_reward_expectancy_bt,2022.2.4,MacIntel,59.99880002,Chrome,1440,900,,,a,0.2673,10,519,2,1,2,14,11,1,0,0,0,1,0,0,1,0,star,hexagon,,,,,,,,,,,,,,,,,,,,,,,,,,,,,,,,,,,,,,,,,,,,,,,,,,,,,,
296539,2022-11-28_12h10.00.521,vts_reward_expectancy_bt,2022.2.4,MacIntel,59.99880002,Chrome,1440,900,,,a,0.1873,10,529,2,1,3,15,10,1,0,0,0,1,0,1,0,0,star ,circle,,,,,,,,,,,,,,,,,,,,,,,,,,,,,,,,,,,,,,,,,,,,,,,,,,,,,,
296539,2022-11-28_12h10.00.521,vts_reward_expectancy_bt,2022.2.4,MacIntel,59.99880002,Chrome,1440,900,,,a,0.1314,10,539,2,1,4,16,6,1,0,0,1,0,1,0,0,0,hexagon,triangle,,,,,,,,,,,,,,,,,,,,,,,,,,,,,,,,,,,,,,,,,,,,,,,,,,,,,,
296539,2022-11-28_12h10.00.521,vts_reward_expectancy_bt,2022.2.4,MacIntel,59.99880002,Chrome,1440,900,,,a,0.9,1,540,2,1,5,17,1,1,1,0,0,0,0,0,1,0,triangle,hexagon,,,,,,,,,,,,,,,,,,,,,,,,,,,,,,,,,,,,,,,,,,,,,,,,,,,,,,
296539,2022-11-28_12h10.00.521,vts_reward_expectancy_bt,2022.2.4,MacIntel,59.99880002,Chrome,1440,900,,,l,0.3486,1,541,2,1,6,18,0,1,1,0,0,0,0,1,0,0,triangle,circle,,,,,,,,,,,,,,,,,,,,,,,,,,,,,,,,,,,,,,,,,,,,,,,,,,,,,,
296539,2022-11-28_12h10.00.521,vts_reward_expectancy_bt,2022.2.4,MacIntel,59.99880002,Chrome,1440,900,,,a,0.2858,1,542,2,1,7,19,8,1,0,0,1,0,0,0,0,1,hexagon,star,,,,,,,,,,,,,,,,,,,,,,,,,,,,,,,,,,,,,,,,,,,,,,,,,,,,,,
296539,2022-11-28_12h10.00.521,vts_reward_expectancy_bt,2022.2.4,MacIntel,59.99880002,Chrome,1440,900,,,l,0.2013,10,552,2,1,8,20,3,1,0,1,0,0,1,0,0,0,circle,triangle,,,,,,,,,,,,,,,,,,,,,,,,,,,,,,,,,,,,,,,,,,,,,,,,,,,,,,
296539,2022-11-28_12h10.00.521,vts_reward_expectancy_bt,2022.2.4,MacIntel,59.99880002,Chrome,1440,900,,,l,0.2506,1,553,2,1,9,21,5,1,0,1,0,0,0,0,0,1,circle,star,,,,,,,,,,,,,,,,,,,,,,,,,,,,,,,,,,,,,,,,,,,,,,,,,,,,,,
296539,2022-11-28_12h10.00.521,vts_reward_expectancy_bt,2022.2.4,MacIntel,59.99880002,Chrome,1440,900,,,l,0.35,10,563,2,1,10,22,4,1,0,1,0,0,0,0,1,0,circle,hexagon,,,,,,,,,,,,,,,,,,,,,,,,,,,,,,,,,,,,,,,,,,,,,,,,,,,,,,
296539,2022-11-28_12h10.00.521,vts_reward_expectancy_bt,2022.2.4,MacIntel,59.99880002,Chrome,1440,900,,,l,0.3035,1,564,2,1,11,23,2,1,1,0,0,0,0,0,0,1,triangle,star,,,,,,,,,,,,,,,,,,,,,,,,,,,,,,,,,,,,,,,,,,,,,,,,,,,,,,
296539,2022-11-28_12h10.00.521,vts_reward_expectancy_bt,2022.2.4,MacIntel,59.99880002,Chrome,1440,900,,,a,0.285,10,574,2,2,0,24,6,1,0,0,1,0,1,0,0,0,hexagon,triangle,,,,,,,,,,,,,,,,,,,,,,,,,,,,,,,,,,,,,,,,,,,,,,,,,,,,,,
296539,2022-11-28_12h10.00.521,vts_reward_expectancy_bt,2022.2.4,MacIntel,59.99880002,Chrome,1440,900,,,a,0.2701,10,584,2,2,1,25,1,1,1,0,0,0,0,0,1,0,triangle,hexagon,,,,,,,,,,,,,,,,,,,,,,,,,,,,,,,,,,,,,,,,,,,,,,,,,,,,,,
296539,2022-11-28_12h10.00.521,vts_reward_expectancy_bt,2022.2.4,MacIntel,59.99880002,Chrome,1440,900,,,a,0.3077,10,594,2,2,2,26,10,1,0,0,0,1,0,1,0,0,star ,circle,,,,,,,,,,,,,,,,,,,,,,,,,,,,,,,,,,,,,,,,,,,,,,,,,,,,,,
296539,2022-11-28_12h10.00.521,vts_reward_expectancy_bt,2022.2.4,MacIntel,59.99880002,Chrome,1440,900,,,a,0.3029,1,595,2,2,3,27,5,1,0,1,0,0,0,0,0,1,circle,star,,,,,,,,,,,,,,,,,,,,,,,,,,,,,,,,,,,,,,,,,,,,,,,,,,,,,,
296539,2022-11-28_12h10.00.521,vts_reward_expectancy_bt,2022.2.4,MacIntel,59.99880002,Chrome,1440,900,,,l,0.3495,1,596,2,2,4,28,4,1,0,1,0,0,0,0,1,0,circle,hexagon,,,,,,,,,,,,,,,,,,,,,,,,,,,,,,,,,,,,,,,,,,,,,,,,,,,,,,
296539,2022-11-28_12h10.00.521,vts_reward_expectancy_bt,2022.2.4,MacIntel,59.99880002,Chrome,1440,900,,,a,0.1612,10,606,2,2,5,29,0,1,1,0,0,0,0,1,0,0,triangle,circle,,,,,,,,,,,,,,,,,,,,,,,,,,,,,,,,,,,,,,,,,,,,,,,,,,,,,,
296539,2022-11-28_12h10.00.521,vts_reward_expectancy_bt,2022.2.4,MacIntel,59.99880002,Chrome,1440,900,,,a,0.4339,10,616,2,2,6,30,2,1,1,0,0,0,0,0,0,1,triangle,star,,,,,,,,,,,,,,,,,,,,,,,,,,,,,,,,,,,,,,,,,,,,,,,,,,,,,,
296539,2022-11-28_12h10.00.521,vts_reward_expectancy_bt,2022.2.4,MacIntel,59.99880002,Chrome,1440,900,,,a,0.3872,1,617,2,2,7,31,11,1,0,0,0,1,0,0,1,0,star,hexagon,,,,,,,,,,,,,,,,,,,,,,,,,,,,,,,,,,,,,,,,,,,,,,,,,,,,,,
296539,2022-11-28_12h10.00.521,vts_reward_expectancy_bt,2022.2.4,MacIntel,59.99880002,Chrome,1440,900,,,l,0.1193,10,627,2,2,8,32,3,1,0,1,0,0,1,0,0,0,circle,triangle,,,,,,,,,,,,,,,,,,,,,,,,,,,,,,,,,,,,,,,,,,,,,,,,,,,,,,
296539,2022-11-28_12h10.00.521,vts_reward_expectancy_bt,2022.2.4,MacIntel,59.99880002,Chrome,1440,900,,,l,0.2355,1,628,2,2,9,33,7,1,0,0,1,0,0,1,0,0,hexagon,circle,,,,,,,,,,,,,,,,,,,,,,,,,,,,,,,,,,,,,,,,,,,,,,,,,,,,,,
296539,2022-11-28_12h10.00.521,vts_reward_expectancy_bt,2022.2.4,MacIntel,59.99880002,Chrome,1440,900,,,a,0.1875,10,638,2,2,10,34,9,1,0,0,0,1,1,0,0,0,star,triangle,,,,,,,,,,,,,,,,,,,,,,,,,,,,,,,,,,,,,,,,,,,,,,,,,,,,,,
296539,2022-11-28_12h10.00.521,vts_reward_expectancy_bt,2022.2.4,MacIntel,59.99880002,Chrome,1440,900,,,a,0.2535,1,639,2,2,11,35,8,1,0,0,1,0,0,0,0,1,hexagon,star,,,,,,,,,,,,,,,,,,,,,,,,,,,,,,,,,,,,,,,,,,,,,,,,,,,,,,
296539,2022-11-28_12h10.00.521,vts_reward_expectancy_bt,2022.2.4,MacIntel,59.99880002,Chrome,1440,900,,,,,,,,,,,,,,,,,,,,,,,B,174,triangle,0,0,,0,0,0,0,0,1,,,,,,,,,,,,,,,,,,,,,,,,,,,,,,,,,,,,,,,,,,
296539,2022-11-28_12h10.00.521,vts_reward_expectancy_bt,2022.2.4,MacIntel,59.99880002,Chrome,1440,900,,,,,,,,,,,,,,,,,,,,,,,F,167,star,1,1,d,0,1,0,1,0,1,1.083,,,,,,,,,,,,,,,,,,,,,,,,,,,,,,,,,,,,,,,,,
296539,2022-11-28_12h10.00.521,vts_reward_expectancy_bt,2022.2.4,MacIntel,59.99880002,Chrome,1440,900,,,,,,,,,,,,,,,,,,,,,,,D,139,hexagon,1,0,d,0,2,0,2,0,1,0.6166,,,,,,,,,,,,,,,,,,,,,,,,,,,,,,,,,,,,,,,,,
296539,2022-11-28_12h10.00.521,vts_reward_expectancy_bt,2022.2.4,MacIntel,59.99880002,Chrome,1440,900,,,,,,,,,,,,,,,,,,,,,,,W,160,circle,1,0,f,0,3,0,3,0,1,0.6656,,,,,,,,,,,,,,,,,,,,,,,,,,,,,,,,,,,,,,,,,
296539,2022-11-28_12h10.00.521,vts_reward_expectancy_bt,2022.2.4,MacIntel,59.99880002,Chrome,1440,900,,,,,,,,,,,,,,,,,,,,,,,U,181,triangle,1,0,f,0,4,0,4,0,1,0.7856,,,,,,,,,,,,,,,,,,,,,,,,,,,,,,,,,,,,,,,,,
296539,2022-11-28_12h10.00.521,vts_reward_expectancy_bt,2022.2.4,MacIntel,59.99880002,Chrome,1440,900,,,,,,,,,,,,,,,,,,,,,,,H,132,star,1,0,d,0,5,0,5,0,1,0.7307,,,,,,,,,,,,,,,,,,,,,,,,,,,,,,,,,,,,,,,,,
296539,2022-11-28_12h10.00.521,vts_reward_expectancy_bt,2022.2.4,MacIntel,59.99880002,Chrome,1440,900,,,,,,,,,,,,,,,,,,,,,,,Y,125,hexagon,1,0,f,0,6,0,6,0,1,0.6662,,,,,,,,,,,,,,,,,,,,,,,,,,,,,,,,,,,,,,,,,
296539,2022-11-28_12h10.00.521,vts_reward_expectancy_bt,2022.2.4,MacIntel,59.99880002,Chrome,1440,900,,,,,,,,,,,,,,,,,,,,,,,S,146,circle,1,0,f,0,7,0,7,0,1,0.6979,,,,,,,,,,,,,,,,,,,,,,,,,,,,,,,,,,,,,,,,,
296539,2022-11-28_12h10.00.521,vts_reward_expectancy_bt,2022.2.4,MacIntel,59.99880002,Chrome,1440,900,,,,,,,,,,,,,,,,,,,,,,,B,174,triangle,1,0,d,0,8,0,8,0,1,0.7345,,,,,,,,,,,,,,,,,,,,,,,,,,,,,,,,,,,,,,,,,
296539,2022-11-28_12h10.00.521,vts_reward_expectancy_bt,2022.2.4,MacIntel,59.99880002,Chrome,1440,900,,,,,,,,,,,,,,,,,,,,,,,F,167,star,1,0,d,0,9,0,9,0,1,0.7849,,,,,,,,,,,,,,,,,,,,,,,,,,,,,,,,,,,,,,,,,
296539,2022-11-28_12h10.00.521,vts_reward_expectancy_bt,2022.2.4,MacIntel,59.99880002,Chrome,1440,900,,,,,,,,,,,,,,,,,,,,,,,F,125,triangle,1,0,,1,,,,,,,j,0.8219,0,0,0,0,1,,,,,,,,,,,,,,,,,,,,,,,,,,,,,,,,,,
296539,2022-11-28_12h10.00.521,vts_reward_expectancy_bt,2022.2.4,MacIntel,59.99880002,Chrome,1440,900,,,,,,,,,,,,,,,,,,,,,,,B,146,hexagon,1,0,,1,,,,,,,j,0.7711,1,0,1,0,1,,,,,,,,,,,,,,,,,,,,,,,,,,,,,,,,,,
296539,2022-11-28_12h10.00.521,vts_reward_expectancy_bt,2022.2.4,MacIntel,59.99880002,Chrome,1440,900,,,,,,,,,,,,,,,,,,,,,,,U,139,circle,1,0,,1,,,,,,,j,0.5958,2,0,2,0,1,,,,,,,,,,,,,,,,,,,,,,,,,,,,,,,,,,
296539,2022-11-28_12h10.00.521,vts_reward_expectancy_bt,2022.2.4,MacIntel,59.99880002,Chrome,1440,900,,,,,,,,,,,,,,,,,,,,,,,Y,132,star,1,0,,1,,,,,,,j,0.5859,3,0,3,0,1,,,,,,,,,,,,,,,,,,,,,,,,,,,,,,,,,,
296539,2022-11-28_12h10.00.521,vts_reward_expectancy_bt,2022.2.4,MacIntel,59.99880002,Chrome,1440,900,,,,,,,,,,,,,,,,,,,,,,,D,167,triangle,1,0,,1,,,,,,,k,1.6461,4,0,4,0,1,,,,,,,,,,,,,,,,,,,,,,,,,,,,,,,,,,
296539,2022-11-28_12h10.00.521,vts_reward_expectancy_bt,2022.2.4,MacIntel,59.99880002,Chrome,1440,900,,,,,,,,,,,,,,,,,,,,,,,H,174,hexagon,0,0,,1,,,,,,,,,5,0,5,0,1,,,,,,,,,,,,,,,,,,,,,,,,,,,,,,,,,,
296539,2022-11-28_12h10.00.521,vts_reward_expectancy_bt,2022.2.4,MacIntel,59.99880002,Chrome,1440,900,,,,,,,,,,,,,,,,,,,,,,,S,181,circle,1,1,,1,,,,,,,k,0.3321,6,0,6,0,1,,,,,,,,,,,,,,,,,,,,,,,,,,,,,,,,,,
296539,2022-11-28_12h10.00.521,vts_reward_expectancy_bt,2022.2.4,MacIntel,59.99880002,Chrome,1440,900,,,,,,,,,,,,,,,,,,,,,,,W,160,star,0,0,,1,,,,,,,,,7,0,7,0,1,,,,,,,,,,,,,,,,,,,,,,,,,,,,,,,,,,
296539,2022-11-28_12h10.00.521,vts_reward_expectancy_bt,2022.2.4,MacIntel,59.99880002,Chrome,1440,900,,,,,,,,,,,,,,,,,,,,,,,F,125,hexagon,0,1,,1,,,,,,,,,8,0,8,0,1,,,,,,,,,,,,,,,,,,,,,,,,,,,,,,,,,,
296539,2022-11-28_12h10.00.521,vts_reward_expectancy_bt,2022.2.4,MacIntel,59.99880002,Chrome,1440,900,,,,,,,,,,,,,,,,,,,,,,,B,146,triangle,1,1,,1,,,,,,,j,0.9509,9,0,9,0,1,,,,,,,,,,,,,,,,,,,,,,,,,,,,,,,,,,
296539,2022-11-28_12h10.00.521,vts_reward_expectancy_bt,2022.2.4,MacIntel,59.99880002,Chrome,1440,900,,,,,,,,,,,,,,,,,,,,,,,H,167,triangle,1,0,,2,,,,,,,k,0.7284,0,0,0,0,1,,,,,,,,,,,,,,,,,,,,,,,,,,,,,,,,,,
296539,2022-11-28_12h10.00.521,vts_reward_expectancy_bt,2022.2.4,MacIntel,59.99880002,Chrome,1440,900,,,,,,,,,,,,,,,,,,,,,,,F,125,star,1,0,,2,,,,,,,j,0.5658,1,0,1,0,1,,,,,,,,,,,,,,,,,,,,,,,,,,,,,,,,,,
296539,2022-11-28_12h10.00.521,vts_reward_expectancy_bt,2022.2.4,MacIntel,59.99880002,Chrome,1440,900,,,,,,,,,,,,,,,,,,,,,,,Y,160,circle,1,0,,2,,,,,,,k,0.5974,2,0,2,0,1,,,,,,,,,,,,,,,,,,,,,,,,,,,,,,,,,,
296539,2022-11-28_12h10.00.521,vts_reward_expectancy_bt,2022.2.4,MacIntel,59.99880002,Chrome,1440,900,,,,,,,,,,,,,,,,,,,,,,,S,174,hexagon,1,0,,2,,,,,,,k,0.5978,3,0,3,0,1,,,,,,,,,,,,,,,,,,,,,,,,,,,,,,,,,,
296539,2022-11-28_12h10.00.521,vts_reward_expectancy_bt,2022.2.4,MacIntel,59.99880002,Chrome,1440,900,,,,,,,,,,,,,,,,,,,,,,,W,146,triangle,1,0,,2,,,,,,,j,0.9517,4,0,4,0,1,,,,,,,,,,,,,,,,,,,,,,,,,,,,,,,,,,
296539,2022-11-28_12h10.00.521,vts_reward_expectancy_bt,2022.2.4,MacIntel,59.99880002,Chrome,1440,900,,,,,,,,,,,,,,,,,,,,,,,U,181,star,1,0,,2,,,,,,,k,0.6138,5,0,5,0,1,,,,,,,,,,,,,,,,,,,,,,,,,,,,,,,,,,
296539,2022-11-28_12h10.00.521,vts_reward_expectancy_bt,2022.2.4,MacIntel,59.99880002,Chrome,1440,900,,,,,,,,,,,,,,,,,,,,,,,D,139,circle,1,0,,2,,,,,,,j,0.7506,6,0,6,0,1,,,,,,,,,,,,,,,,,,,,,,,,,,,,,,,,,,
296539,2022-11-28_12h10.00.521,vts_reward_expectancy_bt,2022.2.4,MacIntel,59.99880002,Chrome,1440,900,,,,,,,,,,,,,,,,,,,,,,,B,132,hexagon,1,0,,2,,,,,,,j,0.6325,7,0,7,0,1,,,,,,,,,,,,,,,,,,,,,,,,,,,,,,,,,,
296539,2022-11-28_12h10.00.521,vts_reward_expectancy_bt,2022.2.4,MacIntel,59.99880002,Chrome,1440,900,,,,,,,,,,,,,,,,,,,,,,,H,167,hexagon,1,0,,2,,,,,,,k,0.7827,8,0,8,0,1,,,,,,,,,,,,,,,,,,,,,,,,,,,,,,,,,,
296539,2022-11-28_12h10.00.521,vts_reward_expectancy_bt,2022.2.4,MacIntel,59.99880002,Chrome,1440,900,,,,,,,,,,,,,,,,,,,,,,,F,125,triangle,1,0,,2,,,,,,,j,0.6335,9,0,9,0,1,,,,,,,,,,,,,,,,,,,,,,,,,,,,,,,,,,
296539,2022-11-28_12h10.00.521,vts_reward_expectancy_bt,2022.2.4,MacIntel,59.99880002,Chrome,1440,900,,,,,0,639,,,,,,,,,,,,,,,,,S,139,hexagon,0,0,,3,,,,,,,,,,,,,,-1,letter,NA,d,0.1101,vtsPrac,0,0,0,0,1,,,,,,,,,,,,,,,,,,,,,,,
296539,2022-11-28_12h10.00.521,vts_reward_expectancy_bt,2022.2.4,MacIntel,59.99880002,Chrome,1440,900,,,,,0,639,,,,,,,,,,,,,,,,,F,160,triangle,1,1,,3,,,,,,,,,,,,,,repeat,letter,lettRpt,d,1.3664,vtsPrac,1,0,1,0,1,,,,,,,,,,,,,,,,,,,,,,,
296539,2022-11-28_12h10.00.521,vts_reward_expectancy_bt,2022.2.4,MacIntel,59.99880002,Chrome,1440,900,,,,,0,639,,,,,,,,,,,,,,,,,H,174,hexagon,1,0,,3,,,,,,,,,,,,,,repeat,letter,lettRpt,d,0.9812,vtsPrac,2,0,2,0,1,,,,,,,,,,,,,,,,,,,,,,,
296539,2022-11-28_12h10.00.521,vts_reward_expectancy_bt,2022.2.4,MacIntel,59.99880002,Chrome,1440,900,,,,,0,639,,,,,,,,,,,,,,,,,Y,167,triangle,1,0,,3,,,,,,,,,,,,,,repeat,letter,lettRpt,f,2.4815,vtsPrac,3,0,3,0,1,,,,,,,,,,,,,,,,,,,,,,,
296539,2022-11-28_12h10.00.521,vts_reward_expectancy_bt,2022.2.4,MacIntel,59.99880002,Chrome,1440,900,,,,,0,639,,,,,,,,,,,,,,,,,S,139,star,1,0,,3,,,,,,,,,,,,,,repeat,letter,lettRpt,f,1.0109,vtsPrac,4,0,4,0,1,,,,,,,,,,,,,,,,,,,,,,,
296539,2022-11-28_12h10.00.521,vts_reward_expectancy_bt,2022.2.4,MacIntel,59.99880002,Chrome,1440,900,,,,,0,639,,,,,,,,,,,,,,,,,F,160,triangle,1,0,,3,,,,,,,,,,,,,,repeat,letter,lettRpt,d,0.831,vtsPrac,5,0,5,0,1,,,,,,,,,,,,,,,,,,,,,,,
296539,2022-11-28_12h10.00.521,vts_reward_expectancy_bt,2022.2.4,MacIntel,59.99880002,Chrome,1440,900,,,,,0,639,,,,,,,,,,,,,,,,,H,174,triangle,1,0,,3,,,,,,,,,,,,,,repeat,letter,lettRpt,d,0.637,vtsPrac,6,0,6,0,1,,,,,,,,,,,,,,,,,,,,,,,
296539,2022-11-28_12h10.00.521,vts_reward_expectancy_bt,2022.2.4,MacIntel,59.99880002,Chrome,1440,900,,,,,0,639,,,,,,,,,,,,,,,,,Y,167,circle,1,0,,3,,,,,,,,,,,,,,repeat,letter,lettRpt,f,0.6895,vtsPrac,7,0,7,0,1,,,,,,,,,,,,,,,,,,,,,,,
296539,2022-11-28_12h10.00.521,vts_reward_expectancy_bt,2022.2.4,MacIntel,59.99880002,Chrome,1440,900,,,,,0,639,,,,,,,,,,,,,,,,,U,160,hexagon,1,0,,3,,,,,,,,,,,,,,repeat,letter,lettRpt,f,0.7318,vtsPrac,8,0,8,0,1,,,,,,,,,,,,,,,,,,,,,,,
296539,2022-11-28_12h10.00.521,vts_reward_expectancy_bt,2022.2.4,MacIntel,59.99880002,Chrome,1440,900,,,,,0,639,,,,,,,,,,,,,,,,,Y,125,triangle,1,0,,3,,,,,,,,,,,,,,repeat,letter,lettRpt,f,0.7341,vtsPrac,9,0,9,0,1,,,,,,,,,,,,,,,,,,,,,,,
296539,2022-11-28_12h10.00.521,vts_reward_expectancy_bt,2022.2.4,MacIntel,59.99880002,Chrome,1440,900,,,,,0,639,,,,,,,,,,,,,,,,,F,139,hexagon,1,0,,3,,,,,,,,,,,,,,repeat,letter,lettRpt,d,1.4182,vtsPrac,10,0,10,0,1,,,,,,,,,,,,,,,,,,,,,,,
296539,2022-11-28_12h10.00.521,vts_reward_expectancy_bt,2022.2.4,MacIntel,59.99880002,Chrome,1440,900,,,,,0,639,,,,,,,,,,,,,,,,,B,167,triangle,0,0,,3,,,,,,,,,,,,,,repeat,letter,NA,f,0.3458,vtsPrac,11,0,11,0,1,,,,,,,,,,,,,,,,,,,,,,,
296539,2022-11-28_12h10.00.521,vts_reward_expectancy_bt,2022.2.4,MacIntel,59.99880002,Chrome,1440,900,,,,,0,639,,,,,,,,,,,,,,,,,U,139,star,1,1,,3,,,,,,,,,,,,,,repeat,letter,lettRpt,f,0.802,vtsPrac,12,0,12,0,1,,,,,,,,,,,,,,,,,,,,,,,
296539,2022-11-28_12h10.00.521,vts_reward_expectancy_bt,2022.2.4,MacIntel,59.99880002,Chrome,1440,900,,,,,0,639,,,,,,,,,,,,,,,,,H,146,circle,1,0,,3,,,,,,,,,,,,,,repeat,letter,lettRpt,d,0.7829,vtsPrac,13,0,13,0,1,,,,,,,,,,,,,,,,,,,,,,,
296539,2022-11-28_12h10.00.521,vts_reward_expectancy_bt,2022.2.4,MacIntel,59.99880002,Chrome,1440,900,,,,,0,639,,,,,,,,,,,,,,,,,D,167,circle,1,0,,3,,,,,,,,,,,,,,repeat,letter,lettRpt,d,1.0545,vtsPrac,14,0,14,0,1,,,,,,,,,,,,,,,,,,,,,,,
296539,2022-11-28_12h10.00.521,vts_reward_expectancy_bt,2022.2.4,MacIntel,59.99880002,Chrome,1440,900,,,,,0,639,,,,,,,,,,,,,,,,,S,132,star,1,0,,3,,,,,,,,,,,,,,repeat,letter,lettRpt,f,0.9556,vtsPrac,15,0,15,0,1,,,,,,,,,,,,,,,,,,,,,,,
296539,2022-11-28_12h10.00.521,vts_reward_expectancy_bt,2022.2.4,MacIntel,59.99880002,Chrome,1440,900,,,,,0,639,,,,,,,,,,,,,,,,,S,167,hexagon,1,0,,3,,,,,,,,,,,,,,repeat,letter,lettRpt,f,1.4009,vtsPrac,16,0,16,0,1,,,,,,,,,,,,,,,,,,,,,,,
296539,2022-11-28_12h10.00.521,vts_reward_expectancy_bt,2022.2.4,MacIntel,59.99880002,Chrome,1440,900,,,,,0,639,,,,,,,,,,,,,,,,,H,139,triangle,1,0,,3,,,,,,,,,,,,,,repeat,letter,lettRpt,d,0.8345,vtsPrac,17,0,17,0,1,,,,,,,,,,,,,,,,,,,,,,,
296539,2022-11-28_12h10.00.521,vts_reward_expectancy_bt,2022.2.4,MacIntel,59.99880002,Chrome,1440,900,,,,,0,639,,,,,,,,,,,,,,,,,U,146,star,1,0,,3,,,,,,,,,,,,,,repeat,letter,lettRpt,f,0.7834,vtsPrac,18,0,18,0,1,,,,,,,,,,,,,,,,,,,,,,,
296539,2022-11-28_12h10.00.521,vts_reward_expectancy_bt,2022.2.4,MacIntel,59.99880002,Chrome,1440,900,,,,,0,639,,,,,,,,,,,,,,,,,Y,160,hexagon,1,0,,3,,,,,,,,,,,,,,repeat,letter,lettRpt,f,0.8337,vtsPrac,19,0,19,0,1,,,,,,,,,,,,,,,,,,,,,,,
296539,2022-11-28_12h10.00.521,vts_reward_expectancy_bt,2022.2.4,MacIntel,59.99880002,Chrome,1440,900,,,,,0,639,,,,,,,,,,,,,,,,,D,132,triangle,1,0,,3,,,,,,,,,,,,,,repeat,letter,lettRpt,d,0.7669,vtsPrac,20,0,20,0,1,,,,,,,,,,,,,,,,,,,,,,,
296539,2022-11-28_12h10.00.521,vts_reward_expectancy_bt,2022.2.4,MacIntel,59.99880002,Chrome,1440,900,,,,,0,639,,,,,,,,,,,,,,,,,F,167,circle,1,0,,3,,,,,,,,,,,,,,repeat,letter,lettRpt,d,0.8505,vtsPrac,21,0,21,0,1,,,,,,,,,,,,,,,,,,,,,,,
296539,2022-11-28_12h10.00.521,vts_reward_expectancy_bt,2022.2.4,MacIntel,59.99880002,Chrome,1440,900,,,,,0,639,,,,,,,,,,,,,,,,,H,181,hexagon,1,0,,3,,,,,,,,,,,,,,repeat,letter,lettRpt,d,0.8491,vtsPrac,22,0,22,0,1,,,,,,,,,,,,,,,,,,,,,,,
296539,2022-11-28_12h10.00.521,vts_reward_expectancy_bt,2022.2.4,MacIntel,59.99880002,Chrome,1440,900,,,,,0,639,,,,,,,,,,,,,,,,,Y,174,star,1,0,,3,,,,,,,,,,,,,,repeat,letter,lettRpt,f,0.7944,vtsPrac,23,0,23,0,1,,,,,,,,,,,,,,,,,,,,,,,
296539,2022-11-28_12h10.00.521,vts_reward_expectancy_bt,2022.2.4,MacIntel,59.99880002,Chrome,1440,900,,,,,0,639,,,,,,,,,,,,,,,,,W,146,star,1,0,,3,,,,,,,,,,,,,,repeat,letter,lettRpt,f,0.6814,vtsPrac,24,0,24,0,1,,,,,,,,,,,,,,,,,,,,,,,
296539,2022-11-28_12h10.00.521,vts_reward_expectancy_bt,2022.2.4,MacIntel,59.99880002,Chrome,1440,900,,,,,0,639,,,,,,,,,,,,,,,,,S,174,hexagon,1,0,,3,,,,,,,,,,,,,,repeat,letter,lettRpt,f,0.7349,vtsPrac,25,0,25,0,1,,,,,,,,,,,,,,,,,,,,,,,
296539,2022-11-28_12h10.00.521,vts_reward_expectancy_bt,2022.2.4,MacIntel,59.99880002,Chrome,1440,900,,,,,0,639,,,,,,,,,,,,,,,,,B,167,hexagon,1,0,,3,,,,,,,,,,,,,,repeat,letter,lettRpt,d,0.6482,vtsPrac,26,0,26,0,1,,,,,,,,,,,,,,,,,,,,,,,
296539,2022-11-28_12h10.00.521,vts_reward_expectancy_bt,2022.2.4,MacIntel,59.99880002,Chrome,1440,900,,,,,0,639,,,,,,,,,,,,,,,,,Y,139,star,1,0,,3,,,,,,,,,,,,,,repeat,letter,lettRpt,f,0.6802,vtsPrac,27,0,27,0,1,,,,,,,,,,,,,,,,,,,,,,,
296539,2022-11-28_12h10.00.521,vts_reward_expectancy_bt,2022.2.4,MacIntel,59.99880002,Chrome,1440,900,,,,,0,639,,,,,,,,,,,,,,,,,B,132,star,1,0,,3,,,,,,,,,,,,,,repeat,letter,lettRpt,d,1.0131,vtsPrac,28,0,28,0,1,,,,,,,,,,,,,,,,,,,,,,,
296539,2022-11-28_12h10.00.521,vts_reward_expectancy_bt,2022.2.4,MacIntel,59.99880002,Chrome,1440,900,,,,,0,639,,,,,,,,,,,,,,,,,F,160,circle,1,0,,3,,,,,,,,,,,,,,repeat,letter,lettRpt,d,0.7632,vtsPrac,29,0,29,0,1,,,,,,,,,,,,,,,,,,,,,,,
296539,2022-11-28_12h10.00.521,vts_reward_expectancy_bt,2022.2.4,MacIntel,59.99880002,Chrome,1440,900,,,,,0,639,,,,,,,,,,,,,,,,,S,181,circle,1,0,,3,,,,,,,,,,,,,,repeat,letter,lettRpt,f,0.8358,vtsPrac,30,0,30,0,1,,,,,,,,,,,,,,,,,,,,,,,
296539,2022-11-28_12h10.00.521,vts_reward_expectancy_bt,2022.2.4,MacIntel,59.99880002,Chrome,1440,900,,,,,0,639,,,,,,,,,,,,,,,,,D,125,star,1,0,,3,,,,,,,,,,,,,,repeat,letter,lettRpt,d,0.7318,vtsPrac,31,0,31,0,1,,,,,,,,,,,,,,,,,,,,,,,
296539,2022-11-28_12h10.00.521,vts_reward_expectancy_bt,2022.2.4,MacIntel,59.99880002,Chrome,1440,900,,,,,0,639,,,,,,,,,,,,,,,,,B,146,hexagon,1,0,,4,,,,,,,,,,,,,,repeat,letter,lettRpt,d,0.8476,vtsPrac,0,0,0,0,1,,,,,,,,,,,,,,,,,,,,,,,
296539,2022-11-28_12h10.00.521,vts_reward_expectancy_bt,2022.2.4,MacIntel,59.99880002,Chrome,1440,900,,,,,0,639,,,,,,,,,,,,,,,,,U,132,triangle,1,0,,4,,,,,,,,,,,,,,switch,number,numSwt,j,0.762,vtsPrac,1,0,1,0,1,,,,,,,,,,,,,,,,,,,,,,,
296539,2022-11-28_12h10.00.521,vts_reward_expectancy_bt,2022.2.4,MacIntel,59.99880002,Chrome,1440,900,,,,,0,639,,,,,,,,,,,,,,,,,F,167,hexagon,1,0,,4,,,,,,,,,,,,,,switch,letter,lettSwt,d,0.7454,vtsPrac,2,0,2,0,1,,,,,,,,,,,,,,,,,,,,,,,
296539,2022-11-28_12h10.00.521,vts_reward_expectancy_bt,2022.2.4,MacIntel,59.99880002,Chrome,1440,900,,,,,0,639,,,,,,,,,,,,,,,,,Y,125,triangle,1,0,,4,,,,,,,,,,,,,,switch,number,numSwt,j,0.7285,vtsPrac,3,0,3,0,1,,,,,,,,,,,,,,,,,,,,,,,
296539,2022-11-28_12h10.00.521,vts_reward_expectancy_bt,2022.2.4,MacIntel,59.99880002,Chrome,1440,900,,,,,0,639,,,,,,,,,,,,,,,,,B,146,star,1,0,,4,,,,,,,,,,,,,,switch,letter,lettSwt,d,0.6743,vtsPrac,4,0,4,0,1,,,,,,,,,,,,,,,,,,,,,,,
296539,2022-11-28_12h10.00.521,vts_reward_expectancy_bt,2022.2.4,MacIntel,59.99880002,Chrome,1440,900,,,,,0,639,,,,,,,,,,,,,,,,,U,132,triangle,1,0,,4,,,,,,,,,,,,,,switch,number,numSwt,j,0.9652,vtsPrac,5,0,5,0,1,,,,,,,,,,,,,,,,,,,,,,,
296539,2022-11-28_12h10.00.521,vts_reward_expectancy_bt,2022.2.4,MacIntel,59.99880002,Chrome,1440,900,,,,,0,639,,,,,,,,,,,,,,,,,F,167,hexagon,1,0,,4,,,,,,,,,,,,,,switch,letter,lettSwt,d,0.7167,vtsPrac,6,0,6,0,1,,,,,,,,,,,,,,,,,,,,,,,
296539,2022-11-28_12h10.00.521,vts_reward_expectancy_bt,2022.2.4,MacIntel,59.99880002,Chrome,1440,900,,,,,0,639,,,,,,,,,,,,,,,,,Y,125,circle,1,0,,4,,,,,,,,,,,,,,switch,number,numSwt,j,0.8186,vtsPrac,7,0,7,0,1,,,,,,,,,,,,,,,,,,,,,,,
296539,2022-11-28_12h10.00.521,vts_reward_expectancy_bt,2022.2.4,MacIntel,59.99880002,Chrome,1440,900,,,,,0,639,,,,,,,,,,,,,,,,,U,167,star,1,0,,4,,,,,,,,,,,,,,switch,letter,lettSwt,f,1.816,vtsPrac,8,0,8,0,1,,,,,,,,,,,,,,,,,,,,,,,
296539,2022-11-28_12h10.00.521,vts_reward_expectancy_bt,2022.2.4,MacIntel,59.99880002,Chrome,1440,900,,,,,0,639,,,,,,,,,,,,,,,,,B,139,circle,1,0,,4,,,,,,,,,,,,,,switch,number,numSwt,j,0.884,vtsPrac,9,0,9,0,1,,,,,,,,,,,,,,,,,,,,,,,
296539,2022-11-28_12h10.00.521,vts_reward_expectancy_bt,2022.2.4,MacIntel,59.99880002,Chrome,1440,900,,,,,0,639,,,,,,,,,,,,,,,,,S,125,triangle,1,0,,4,,,,,,,,,,,,,,switch,letter,lettSwt,f,0.7471,vtsPrac,10,0,10,0,1,,,,,,,,,,,,,,,,,,,,,,,
296539,2022-11-28_12h10.00.521,vts_reward_expectancy_bt,2022.2.4,MacIntel,59.99880002,Chrome,1440,900,,,,,0,639,,,,,,,,,,,,,,,,,Y,146,hexagon,1,0,,4,,,,,,,,,,,,,,switch,number,numSwt,j,0.7618,vtsPrac,11,0,11,0,1,,,,,,,,,,,,,,,,,,,,,,,
296539,2022-11-28_12h10.00.521,vts_reward_expectancy_bt,2022.2.4,MacIntel,59.99880002,Chrome,1440,900,,,,,0,639,,,,,,,,,,,,,,,,,S,146,hexagon,1,0,,4,,,,,,,,,,,,,,switch,letter,lettSwt,f,1.1542,vtsPrac,12,0,12,0,1,,,,,,,,,,,,,,,,,,,,,,,
296539,2022-11-28_12h10.00.521,vts_reward_expectancy_bt,2022.2.4,MacIntel,59.99880002,Chrome,1440,900,,,,,0,639,,,,,,,,,,,,,,,,,U,174,triangle,1,0,,4,,,,,,,,,,,,,,switch,number,numSwt,k,0.5973,vtsPrac,13,0,13,0,1,,,,,,,,,,,,,,,,,,,,,,,
296539,2022-11-28_12h10.00.521,vts_reward_expectancy_bt,2022.2.4,MacIntel,59.99880002,Chrome,1440,900,,,,,0,639,,,,,,,,,,,,,,,,,F,139,circle,1,0,,4,,,,,,,,,,,,,,switch,letter,lettSwt,d,0.7671,vtsPrac,14,0,14,0,1,,,,,,,,,,,,,,,,,,,,,,,
296539,2022-11-28_12h10.00.521,vts_reward_expectancy_bt,2022.2.4,MacIntel,59.99880002,Chrome,1440,900,,,,,0,639,,,,,,,,,,,,,,,,,B,181,hexagon,1,0,,4,,,,,,,,,,,,,,switch,number,numSwt,k,0.6519,vtsPrac,15,0,15,0,1,,,,,,,,,,,,,,,,,,,,,,,
296539,2022-11-28_12h10.00.521,vts_reward_expectancy_bt,2022.2.4,MacIntel,59.99880002,Chrome,1440,900,,,,,0,639,,,,,,,,,,,,,,,,,Y,146,star,1,0,,4,,,,,,,,,,,,,,switch,letter,lettSwt,f,1.9159,vtsPrac,16,0,16,0,1,,,,,,,,,,,,,,,,,,,,,,,
296539,2022-11-28_12h10.00.521,vts_reward_expectancy_bt,2022.2.4,MacIntel,59.99880002,Chrome,1440,900,,,,,0,639,,,,,,,,,,,,,,,,,F,160,triangle,1,0,,4,,,,,,,,,,,,,,switch,number,numSwt,k,0.9665,vtsPrac,17,0,17,0,1,,,,,,,,,,,,,,,,,,,,,,,
296539,2022-11-28_12h10.00.521,vts_reward_expectancy_bt,2022.2.4,MacIntel,59.99880002,Chrome,1440,900,,,,,0,639,,,,,,,,,,,,,,,,,D,174,circle,1,0,,4,,,,,,,,,,,,,,repeat,number,numRpt,k,0.9464,vtsPrac,18,0,18,0,1,,,,,,,,,,,,,,,,,,,,,,,
296539,2022-11-28_12h10.00.521,vts_reward_expectancy_bt,2022.2.4,MacIntel,59.99880002,Chrome,1440,900,,,,,0,639,,,,,,,,,,,,,,,,,H,125,star,1,0,,4,,,,,,,,,,,,,,switch,letter,lettSwt,d,0.8499,vtsPrac,19,0,19,0,1,,,,,,,,,,,,,,,,,,,,,,,
296539,2022-11-28_12h10.00.521,vts_reward_expectancy_bt,2022.2.4,MacIntel,59.99880002,Chrome,1440,900,,,,,0,639,,,,,,,,,,,,,,,,,H,125,circle,1,0,,4,,,,,,,,,,,,,,repeat,letter,lettRpt,d,0.7379,vtsPrac,20,0,20,0,1,,,,,,,,,,,,,,,,,,,,,,,
296539,2022-11-28_12h10.00.521,vts_reward_expectancy_bt,2022.2.4,MacIntel,59.99880002,Chrome,1440,900,,,,,0,639,,,,,,,,,,,,,,,,,U,132,triangle,1,0,,4,,,,,,,,,,,,,,switch,number,numSwt,j,0.7332,vtsPrac,21,0,21,0,1,,,,,,,,,,,,,,,,,,,,,,,
296539,2022-11-28_12h10.00.521,vts_reward_expectancy_bt,2022.2.4,MacIntel,59.99880002,Chrome,1440,900,,,,,0,639,,,,,,,,,,,,,,,,,Y,181,star,1,0,,4,,,,,,,,,,,,,,switch,letter,lettSwt,f,1.8155,vtsPrac,22,0,22,0,1,,,,,,,,,,,,,,,,,,,,,,,
296539,2022-11-28_12h10.00.521,vts_reward_expectancy_bt,2022.2.4,MacIntel,59.99880002,Chrome,1440,900,,,,,0,639,,,,,,,,,,,,,,,,,D,167,triangle,1,0,,4,,,,,,,,,,,,,,repeat,letter,lettRpt,d,1.3186,vtsPrac,23,0,23,0,1,,,,,,,,,,,,,,,,,,,,,,,
296539,2022-11-28_12h10.00.521,vts_reward_expectancy_bt,2022.2.4,MacIntel,59.99880002,Chrome,1440,900,,,,,0,639,,,,,,,,,,,,,,,,,H,167,circle,1,0,,4,,,,,,,,,,,,,,switch,number,numSwt,k,1.0012,vtsPrac,24,0,24,0,1,,,,,,,,,,,,,,,,,,,,,,,
296539,2022-11-28_12h10.00.521,vts_reward_expectancy_bt,2022.2.4,MacIntel,59.99880002,Chrome,1440,900,,,,,0,639,,,,,,,,,,,,,,,,,F,125,hexagon,1,0,,4,,,,,,,,,,,,,,repeat,number,numRpt,j,0.7473,vtsPrac,25,0,25,0,1,,,,,,,,,,,,,,,,,,,,,,,
296539,2022-11-28_12h10.00.521,vts_reward_expectancy_bt,2022.2.4,MacIntel,59.99880002,Chrome,1440,900,,,,,0,639,,,,,,,,,,,,,,,,,D,174,star,1,0,,4,,,,,,,,,,,,,,switch,letter,lettSwt,d,0.617,vtsPrac,26,0,26,0,1,,,,,,,,,,,,,,,,,,,,,,,
296539,2022-11-28_12h10.00.521,vts_reward_expectancy_bt,2022.2.4,MacIntel,59.99880002,Chrome,1440,900,,,,,0,639,,,,,,,,,,,,,,,,,W,160,triangle,1,0,,4,,,,,,,,,,,,,,switch,number,numSwt,k,0.7004,vtsPrac,27,0,27,0,1,,,,,,,,,,,,,,,,,,,,,,,
296539,2022-11-28_12h10.00.521,vts_reward_expectancy_bt,2022.2.4,MacIntel,59.99880002,Chrome,1440,900,,,,,0,639,,,,,,,,,,,,,,,,,Y,167,triangle,1,0,,4,,,,,,,,,,,,,,switch,letter,lettSwt,f,1.0482,vtsPrac,28,0,28,0,1,,,,,,,,,,,,,,,,,,,,,,,
296539,2022-11-28_12h10.00.521,vts_reward_expectancy_bt,2022.2.4,MacIntel,59.99880002,Chrome,1440,900,,,,,0,639,,,,,,,,,,,,,,,,,D,146,star,1,0,,4,,,,,,,,,,,,,,switch,number,numSwt,j,0.9149,vtsPrac,29,0,29,0,1,,,,,,,,,,,,,,,,,,,,,,,
296539,2022-11-28_12h10.00.521,vts_reward_expectancy_bt,2022.2.4,MacIntel,59.99880002,Chrome,1440,900,,,,,0,639,,,,,,,,,,,,,,,,,U,139,star,1,0,,4,,,,,,,,,,,,,,switch,letter,lettSwt,f,1.3477,vtsPrac,30,0,30,0,1,,,,,,,,,,,,,,,,,,,,,,,
296539,2022-11-28_12h10.00.521,vts_reward_expectancy_bt,2022.2.4,MacIntel,59.99880002,Chrome,1440,900,,,,,0,639,,,,,,,,,,,,,,,,,B,125,circle,1,0,,4,,,,,,,,,,,,,,switch,number,numSwt,j,0.9471,vtsPrac,31,0,31,0,1,,,,,,,,,,,,,,,,,,,,,,,
296539,2022-11-28_12h10.00.521,vts_reward_expectancy_bt,2022.2.4,MacIntel,59.99880002,Chrome,1440,900,,,,,0,639,,,,,,,,,,,,,,,,,D,181,circle,1,0,,5,,,,,,,,,,,,,,switch,letter,lettSwt,d,0.7946,vtsPrac,0,0,0,0,1,,,,,,,,,,,,,,,,,,,,,,,
296539,2022-11-28_12h10.00.521,vts_reward_expectancy_bt,2022.2.4,MacIntel,59.99880002,Chrome,1440,900,,,,,0,639,,,,,,,,,,,,,,,,,F,132,triangle,1,0,,5,,,,,,,,,,,,,,repeat,letter,lettRpt,d,0.7332,vtsPrac,1,0,1,0,1,,,,,,,,,,,,,,,,,,,,,,,
296539,2022-11-28_12h10.00.521,vts_reward_expectancy_bt,2022.2.4,MacIntel,59.99880002,Chrome,1440,900,,,,,0,639,,,,,,,,,,,,,,,,,B,174,circle,1,0,,5,,,,,,,,,,,,,,repeat,letter,lettRpt,d,0.798,vtsPrac,2,0,2,0,1,,,,,,,,,,,,,,,,,,,,,,,
296539,2022-11-28_12h10.00.521,vts_reward_expectancy_bt,2022.2.4,MacIntel,59.99880002,Chrome,1440,900,,,,,0,639,,,,,,,,,,,,,,,,,H,160,triangle,1,0,,5,,,,,,,,,,,,,,switch,number,numSwt,k,0.8972,vtsPrac,3,0,3,0,1,,,,,,,,,,,,,,,,,,,,,,,
296539,2022-11-28_12h10.00.521,vts_reward_expectancy_bt,2022.2.4,MacIntel,59.99880002,Chrome,1440,900,,,,,0,639,,,,,,,,,,,,,,,,,D,181,star,1,0,,5,,,,,,,,,,,,,,repeat,number,numRpt,k,0.7164,vtsPrac,4,0,4,0,1,,,,,,,,,,,,,,,,,,,,,,,
296539,2022-11-28_12h10.00.521,vts_reward_expectancy_bt,2022.2.4,MacIntel,59.99880002,Chrome,1440,900,,,,,0,639,,,,,,,,,,,,,,,,,F,132,circle,1,0,,5,,,,,,,,,,,,,,repeat,number,numRpt,j,1.2022,vtsPrac,5,0,5,0,1,,,,,,,,,,,,,,,,,,,,,,,
296539,2022-11-28_12h10.00.521,vts_reward_expectancy_bt,2022.2.4,MacIntel,59.99880002,Chrome,1440,900,,,,,0,639,,,,,,,,,,,,,,,,,B,174,star,1,0,,5,,,,,,,,,,,,,,switch,letter,lettSwt,d,0.9649,vtsPrac,6,0,6,0,1,,,,,,,,,,,,,,,,,,,,,,,
296539,2022-11-28_12h10.00.521,vts_reward_expectancy_bt,2022.2.4,MacIntel,59.99880002,Chrome,1440,900,,,,,0,639,,,,,,,,,,,,,,,,,H,160,triangle,1,0,,5,,,,,,,,,,,,,,repeat,letter,lettRpt,d,0.6618,vtsPrac,7,0,7,0,1,,,,,,,,,,,,,,,,,,,,,,,
296539,2022-11-28_12h10.00.521,vts_reward_expectancy_bt,2022.2.4,MacIntel,59.99880002,Chrome,1440,900,,,,,0,639,,,,,,,,,,,,,,,,,B,174,circle,1,0,,5,,,,,,,,,,,,,,repeat,letter,lettRpt,d,0.6513,vtsPrac,8,0,8,0,1,,,,,,,,,,,,,,,,,,,,,,,
296539,2022-11-28_12h10.00.521,vts_reward_expectancy_bt,2022.2.4,MacIntel,59.99880002,Chrome,1440,900,,,,,0,639,,,,,,,,,,,,,,,,,S,139,hexagon,1,0,,5,,,,,,,,,,,,,,switch,number,numSwt,j,0.8339,vtsPrac,9,0,9,0,1,,,,,,,,,,,,,,,,,,,,,,,
296539,2022-11-28_12h10.00.521,vts_reward_expectancy_bt,2022.2.4,MacIntel,59.99880002,Chrome,1440,900,,,,,0,639,,,,,,,,,,,,,,,,,H,125,star,1,0,,5,,,,,,,,,,,,,,repeat,number,numRpt,j,1.2652,vtsPrac,10,0,10,0,1,,,,,,,,,,,,,,,,,,,,,,,
296539,2022-11-28_12h10.00.521,vts_reward_expectancy_bt,2022.2.4,MacIntel,59.99880002,Chrome,1440,900,,,,,0,639,,,,,,,,,,,,,,,,,F,160,hexagon,1,0,,5,,,,,,,,,,,,,,repeat,number,numRpt,k,0.6445,vtsPrac,11,0,11,0,1,,,,,,,,,,,,,,,,,,,,,,,
296539,2022-11-28_12h10.00.521,vts_reward_expectancy_bt,2022.2.4,MacIntel,59.99880002,Chrome,1440,900,,,,,0,639,,,,,,,,,,,,,,,,,S,174,star,1,0,,5,,,,,,,,,,,,,,switch,letter,lettSwt,f,0.7843,vtsPrac,12,0,12,0,1,,,,,,,,,,,,,,,,,,,,,,,
296539,2022-11-28_12h10.00.521,vts_reward_expectancy_bt,2022.2.4,MacIntel,59.99880002,Chrome,1440,900,,,,,0,639,,,,,,,,,,,,,,,,,Y,132,hexagon,1,0,,5,,,,,,,,,,,,,,repeat,letter,lettRpt,f,0.7855,vtsPrac,13,0,13,0,1,,,,,,,,,,,,,,,,,,,,,,,
296539,2022-11-28_12h10.00.521,vts_reward_expectancy_bt,2022.2.4,MacIntel,59.99880002,Chrome,1440,900,,,,,0,639,,,,,,,,,,,,,,,,,U,139,star,1,0,,5,,,,,,,,,,,,,,repeat,letter,lettRpt,f,0.7188,vtsPrac,14,0,14,0,1,,,,,,,,,,,,,,,,,,,,,,,
296539,2022-11-28_12h10.00.521,vts_reward_expectancy_bt,2022.2.4,MacIntel,59.99880002,Chrome,1440,900,,,,,0,639,,,,,,,,,,,,,,,,,F,181,circle,1,0,,5,,,,,,,,,,,,,,switch,number,numSwt,k,1.8997,vtsPrac,15,0,15,0,1,,,,,,,,,,,,,,,,,,,,,,,
296539,2022-11-28_12h10.00.521,vts_reward_expectancy_bt,2022.2.4,MacIntel,59.99880002,Chrome,1440,900,,,,,0,639,,,,,,,,,,,,,,,,,H,125,star,1,0,,5,,,,,,,,,,,,,,repeat,number,numRpt,j,0.8105,vtsPrac,16,0,16,0,1,,,,,,,,,,,,,,,,,,,,,,,
296539,2022-11-28_12h10.00.521,vts_reward_expectancy_bt,2022.2.4,MacIntel,59.99880002,Chrome,1440,900,,,,,0,639,,,,,,,,,,,,,,,,,Y,181,circle,1,0,,5,,,,,,,,,,,,,,repeat,number,numRpt,k,0.8361,vtsPrac,17,0,17,0,1,,,,,,,,,,,,,,,,,,,,,,,
296539,2022-11-28_12h10.00.521,vts_reward_expectancy_bt,2022.2.4,MacIntel,59.99880002,Chrome,1440,900,,,,,0,639,,,,,,,,,,,,,,,,,W,174,circle,1,0,,5,,,,,,,,,,,,,,repeat,number,numRpt,k,0.7164,vtsPrac,18,0,18,0,1,,,,,,,,,,,,,,,,,,,,,,,
296539,2022-11-28_12h10.00.521,vts_reward_expectancy_bt,2022.2.4,MacIntel,59.99880002,Chrome,1440,900,,,,,0,639,,,,,,,,,,,,,,,,,D,146,star,-1,0,,5,,,,,,,,,,,,,,switch,no_choice,NA,,,vtsPrac,19,0,19,0,1,,,,,,,,,,,,,,,,,,,,,,,
296539,2022-11-28_12h10.00.521,vts_reward_expectancy_bt,2022.2.4,MacIntel,59.99880002,Chrome,1440,900,,,,,0,639,,,,,,,,,,,,,,,,,B,167,triangle,1,0,,5,,,,,,,,,,,,,,switch,number,numSwt,k,1.4674,vtsPrac,20,0,20,0,1,,,,,,,,,,,,,,,,,,,,,,,
296539,2022-11-28_12h10.00.521,vts_reward_expectancy_bt,2022.2.4,MacIntel,59.99880002,Chrome,1440,900,,,,,0,639,,,,,,,,,,,,,,,,,H,125,hexagon,1,0,,5,,,,,,,,,,,,,,switch,letter,lettSwt,d,1.1971,vtsPrac,21,0,21,0,1,,,,,,,,,,,,,,,,,,,,,,,
296539,2022-11-28_12h10.00.521,vts_reward_expectancy_bt,2022.2.4,MacIntel,59.99880002,Chrome,1440,900,,,,,0,639,,,,,,,,,,,,,,,,,F,174,circle,1,0,,5,,,,,,,,,,,,,,repeat,letter,lettRpt,d,1.4802,vtsPrac,22,0,22,0,1,,,,,,,,,,,,,,,,,,,,,,,
296539,2022-11-28_12h10.00.521,vts_reward_expectancy_bt,2022.2.4,MacIntel,59.99880002,Chrome,1440,900,,,,,0,639,,,,,,,,,,,,,,,,,W,139,star,1,0,,5,,,,,,,,,,,,,,repeat,letter,lettRpt,f,0.9665,vtsPrac,23,0,23,0,1,,,,,,,,,,,,,,,,,,,,,,,
296539,2022-11-28_12h10.00.521,vts_reward_expectancy_bt,2022.2.4,MacIntel,59.99880002,Chrome,1440,900,,,,,0,639,,,,,,,,,,,,,,,,,H,125,triangle,1,0,,5,,,,,,,,,,,,,,switch,number,numSwt,j,1.2871,vtsPrac,24,0,24,0,1,,,,,,,,,,,,,,,,,,,,,,,
296539,2022-11-28_12h10.00.521,vts_reward_expectancy_bt,2022.2.4,MacIntel,59.99880002,Chrome,1440,900,,,,,0,639,,,,,,,,,,,,,,,,,W,146,hexagon,1,0,,5,,,,,,,,,,,,,,repeat,number,numRpt,j,0.8022,vtsPrac,25,0,25,0,1,,,,,,,,,,,,,,,,,,,,,,,
296539,2022-11-28_12h10.00.521,vts_reward_expectancy_bt,2022.2.4,MacIntel,59.99880002,Chrome,1440,900,,,,,0,639,,,,,,,,,,,,,,,,,Y,181,hexagon,1,0,,5,,,,,,,,,,,,,,repeat,number,numRpt,k,0.8641,vtsPrac,26,0,26,0,1,,,,,,,,,,,,,,,,,,,,,,,
296539,2022-11-28_12h10.00.521,vts_reward_expectancy_bt,2022.2.4,MacIntel,59.99880002,Chrome,1440,900,,,,,0,639,,,,,,,,,,,,,,,,,S,139,triangle,1,0,,5,,,,,,,,,,,,,,switch,letter,lettSwt,f,0.6522,vtsPrac,27,0,27,0,1,,,,,,,,,,,,,,,,,,,,,,,
296539,2022-11-28_12h10.00.521,vts_reward_expectancy_bt,2022.2.4,MacIntel,59.99880002,Chrome,1440,900,,,,,0,639,,,,,,,,,,,,,,,,,H,146,star,1,0,,5,,,,,,,,,,,,,,repeat,letter,lettRpt,d,0.7877,vtsPrac,28,0,28,0,1,,,,,,,,,,,,,,,,,,,,,,,
296539,2022-11-28_12h10.00.521,vts_reward_expectancy_bt,2022.2.4,MacIntel,59.99880002,Chrome,1440,900,,,,,0,639,,,,,,,,,,,,,,,,,B,125,triangle,1,0,,5,,,,,,,,,,,,,,repeat,letter,lettRpt,d,0.8024,vtsPrac,29,0,29,0,1,,,,,,,,,,,,,,,,,,,,,,,
296539,2022-11-28_12h10.00.521,vts_reward_expectancy_bt,2022.2.4,MacIntel,59.99880002,Chrome,1440,900,,,,,0,639,,,,,,,,,,,,,,,,,D,139,hexagon,1,0,,5,,,,,,,,,,,,,,switch,number,numSwt,j,2.5856,vtsPrac,30,0,30,0,1,,,,,,,,,,,,,,,,,,,,,,,
296539,2022-11-28_12h10.00.521,vts_reward_expectancy_bt,2022.2.4,MacIntel,59.99880002,Chrome,1440,900,,,,,0,639,,,,,,,,,,,,,,,,,S,174,triangle,1,0,,5,,,,,,,,,,,,,,repeat,number,numRpt,k,0.85,vtsPrac,31,0,31,0,1,,,,,,,,,,,,,,,,,,,,,,,
296539,2022-11-28_12h10.00.521,vts_reward_expectancy_bt,2022.2.4,MacIntel,59.99880002,Chrome,1440,900,,,,,,,,,,,,,,,,,,,,,,,,,,,,,,,,,,,,,,,,,,,,,,,,,,,,,,,,,,,,,,,,,,,,,,,,,,,,
296539,2022-11-28_12h10.00.521,vts_reward_expectancy_bt,2022.2.4,MacIntel,59.99880002,Chrome,1440,900,,,,,,,,,,,,,,,,,,,,,,,,,,,,,,,,,,,,,,,,,,,,,,,,,,,,,,,,,,,,,,,,,,,,,,,,,,,,
296539,2022-11-28_12h10.00.521,vts_reward_expectancy_bt,2022.2.4,MacIntel,59.99880002,Chrome,1440,900,,,,,0,639,,,,,,,,,,,,,,,,,Y,125,hexagon,1,0,,,,,,,,,,,,,,,,switch,letter,lettSwt,f,1.828,noRew,,,,,,0,0,0,0,0,1,,,,,,,,,,,,,,,,,
296539,2022-11-28_12h10.00.521,vts_reward_expectancy_bt,2022.2.4,MacIntel,59.99880002,Chrome,1440,900,,,,,0,639,,,,,,,,,,,,,,,,,F,181,circle,1,0,,,,,,,,,,,,,,,,switch,number,numSwt,k,1.4493,noRew,,,,,,0,1,0,1,0,1,,,,,,,,,,,,,,,,,
296539,2022-11-28_12h10.00.521,vts_reward_expectancy_bt,2022.2.4,MacIntel,59.99880002,Chrome,1440,900,,,,,0,639,,,,,,,,,,,,,,,,,S,146,hexagon,1,0,,,,,,,,,,,,,,,,switch,letter,lettSwt,f,0.8646,noRew,,,,,,0,2,0,2,0,1,,,,,,,,,,,,,,,,,
296539,2022-11-28_12h10.00.521,vts_reward_expectancy_bt,2022.2.4,MacIntel,59.99880002,Chrome,1440,900,,,,,0,639,,,,,,,,,,,,,,,,,U,174,circle,1,0,,,,,,,,,,,,,,,,repeat,letter,lettRpt,f,1.1648,noRew,,,,,,0,3,0,3,0,1,,,,,,,,,,,,,,,,,
296539,2022-11-28_12h10.00.521,vts_reward_expectancy_bt,2022.2.4,MacIntel,59.99880002,Chrome,1440,900,,,,,0,639,,,,,,,,,,,,,,,,,Y,125,triangle,1,0,,,,,,,,,,,,,,,,repeat,letter,lettRpt,f,1.0794,noRew,,,,,,0,4,0,4,0,1,,,,,,,,,,,,,,,,,
296539,2022-11-28_12h10.00.521,vts_reward_expectancy_bt,2022.2.4,MacIntel,59.99880002,Chrome,1440,900,,,,,0,639,,,,,,,,,,,,,,,,,F,181,hexagon,1,0,,,,,,,,,,,,,,,,switch,number,numSwt,k,0.5677,noRew,,,,,,0,5,0,5,0,1,,,,,,,,,,,,,,,,,
296539,2022-11-28_12h10.00.521,vts_reward_expectancy_bt,2022.2.4,MacIntel,59.99880002,Chrome,1440,900,,,,,0,639,,,,,,,,,,,,,,,,,S,146,hexagon,1,0,,,,,,,,,,,,,,,,switch,letter,lettSwt,f,0.747,noRew,,,,,,0,6,0,6,0,1,,,,,,,,,,,,,,,,,
296539,2022-11-28_12h10.00.521,vts_reward_expectancy_bt,2022.2.4,MacIntel,59.99880002,Chrome,1440,900,,,,,0,639,,,,,,,,,,,,,,,,,U,174,triangle,1,0,,,,,,,,,,,,,,,,switch,number,numSwt,k,0.6984,noRew,,,,,,0,7,0,7,0,1,,,,,,,,,,,,,,,,,
296539,2022-11-28_12h10.00.521,vts_reward_expectancy_bt,2022.2.4,MacIntel,59.99880002,Chrome,1440,900,,,,,0,639,,,,,,,,,,,,,,,,,F,160,triangle,1,0,,,,,,,,,,,,,,,,repeat,number,numRpt,k,0.6456,noRew,,,,,,0,8,0,8,0,1,,,,,,,,,,,,,,,,,
296539,2022-11-28_12h10.00.521,vts_reward_expectancy_bt,2022.2.4,MacIntel,59.99880002,Chrome,1440,900,,,,,0,639,,,,,,,,,,,,,,,,,W,132,circle,1,0,,,,,,,,,,,,,,,,switch,letter,lettSwt,f,1.168,noRew,,,,,,0,9,0,9,0,1,,,,,,,,,,,,,,,,,
296539,2022-11-28_12h10.00.521,vts_reward_expectancy_bt,2022.2.4,MacIntel,59.99880002,Chrome,1440,900,,,,,0,639,,,,,,,,,,,,,,,,,D,174,circle,1,0,,,,,,,,,,,,,,,,switch,number,numSwt,k,0.8834,noRew,,,,,,0,10,0,10,0,1,,,,,,,,,,,,,,,,,
296539,2022-11-28_12h10.00.521,vts_reward_expectancy_bt,2022.2.4,MacIntel,59.99880002,Chrome,1440,900,,,,,0,639,,,,,,,,,,,,,,,,,B,146,star,1,0,,,,,,,,,,,,,,,,repeat,number,numRpt,j,0.9181,noRew,,,,,,0,11,0,11,0,1,,,,,,,,,,,,,,,,,
296539,2022-11-28_12h10.00.521,vts_reward_expectancy_bt,2022.2.4,MacIntel,59.99880002,Chrome,1440,900,,,,,0,639,,,,,,,,,,,,,,,,,U,181,circle,1,0,,,,,,,,,,,,,,,,switch,letter,lettSwt,f,0.7796,noRew,,,,,,0,12,0,12,0,1,,,,,,,,,,,,,,,,,
296539,2022-11-28_12h10.00.521,vts_reward_expectancy_bt,2022.2.4,MacIntel,59.99880002,Chrome,1440,900,,,,,0,639,,,,,,,,,,,,,,,,,S,160,triangle,-1,0,,,,,,,,,,,,,,,,switch,no_choice,NA,,,noRew,,,,,,0,13,0,13,0,1,,,,,,,,,,,,,,,,,
296539,2022-11-28_12h10.00.521,vts_reward_expectancy_bt,2022.2.4,MacIntel,59.99880002,Chrome,1440,900,,,,,0,639,,,,,,,,,,,,,,,,,H,174,star,0,0,,,,,,,,,,,,,,,,switch,letter,NA,f,0.9465,noRew,,,,,,0,14,0,14,0,1,,,,,,,,,,,,,,,,,
296539,2022-11-28_12h10.00.521,vts_reward_expectancy_bt,2022.2.4,MacIntel,59.99880002,Chrome,1440,900,,,,,0,639,,,,,,,,,,,,,,,,,W,167,circle,1,1,,,,,,,,,,,,,,,,switch,number,numSwt,k,1.0768,noRew,,,,,,0,15,0,15,0,1,,,,,,,,,,,,,,,,,
296539,2022-11-28_12h10.00.521,vts_reward_expectancy_bt,2022.2.4,MacIntel,59.99880002,Chrome,1440,900,,,,,0,639,,,,,,,,,,,,,,,,,B,146,hexagon,1,0,,,,,,,,,,,,,,,,repeat,number,numRpt,j,1.3667,noRew,,,,,,0,16,0,16,0,1,,,,,,,,,,,,,,,,,
296539,2022-11-28_12h10.00.521,vts_reward_expectancy_bt,2022.2.4,MacIntel,59.99880002,Chrome,1440,900,,,,,0,639,,,,,,,,,,,,,,,,,F,160,triangle,1,0,,,,,,,,,,,,,,,,switch,letter,lettSwt,d,0.9002,noRew,,,,,,0,17,0,17,0,1,,,,,,,,,,,,,,,,,
296539,2022-11-28_12h10.00.521,vts_reward_expectancy_bt,2022.2.4,MacIntel,59.99880002,Chrome,1440,900,,,,,0,639,,,,,,,,,,,,,,,,,W,125,hexagon,1,0,,,,,,,,,,,,,,,,switch,number,numSwt,j,0.849,noRew,,,,,,0,18,0,18,0,1,,,,,,,,,,,,,,,,,
296539,2022-11-28_12h10.00.521,vts_reward_expectancy_bt,2022.2.4,MacIntel,59.99880002,Chrome,1440,900,,,,,0,639,,,,,,,,,,,,,,,,,U,132,star,0,0,,,,,,,,,,,,,,,,repeat,number,NA,k,1.4197,noRew,,,,,,0,19,0,19,0,1,,,,,,,,,,,,,,,,,
296539,2022-11-28_12h10.00.521,vts_reward_expectancy_bt,2022.2.4,MacIntel,59.99880002,Chrome,1440,900,,,,,0,639,,,,,,,,,,,,,,,,,D,181,hexagon,1,1,,,,,,,,,,,,,,,,switch,letter,lettSwt,d,0.732,noRew,,,,,,0,20,0,20,0,1,,,,,,,,,,,,,,,,,
296539,2022-11-28_12h10.00.521,vts_reward_expectancy_bt,2022.2.4,MacIntel,59.99880002,Chrome,1440,900,,,,,0,639,,,,,,,,,,,,,,,,,Y,132,triangle,1,0,,,,,,,,,,,,,,,,repeat,letter,lettRpt,f,0.8998,noRew,,,,,,0,21,0,21,0,1,,,,,,,,,,,,,,,,,
296539,2022-11-28_12h10.00.521,vts_reward_expectancy_bt,2022.2.4,MacIntel,59.99880002,Chrome,1440,900,,,,,0,639,,,,,,,,,,,,,,,,,H,174,circle,1,0,,,,,,,,,,,,,,,,switch,number,numSwt,k,0.7326,noRew,,,,,,0,22,0,22,0,1,,,,,,,,,,,,,,,,,
296539,2022-11-28_12h10.00.521,vts_reward_expectancy_bt,2022.2.4,MacIntel,59.99880002,Chrome,1440,900,,,,,0,639,,,,,,,,,,,,,,,,,U,125,star,1,0,,,,,,,,,,,,,,,,switch,letter,lettSwt,f,0.8498,noRew,,,,,,0,23,0,23,0,1,,,,,,,,,,,,,,,,,
296539,2022-11-28_12h10.00.521,vts_reward_expectancy_bt,2022.2.4,MacIntel,59.99880002,Chrome,1440,900,,,,,0,639,,,,,,,,,,,,,,,,,D,160,circle,1,0,,,,,,,,,,,,,,,,repeat,letter,lettRpt,d,1.1489,noRew,,,,,,0,24,0,24,0,1,,,,,,,,,,,,,,,,,
296539,2022-11-28_12h10.00.521,vts_reward_expectancy_bt,2022.2.4,MacIntel,59.99880002,Chrome,1440,900,,,,,0,639,,,,,,,,,,,,,,,,,B,132,hexagon,1,0,,,,,,,,,,,,,,,,switch,number,numSwt,j,0.7951,noRew,,,,,,0,25,0,25,0,1,,,,,,,,,,,,,,,,,
296539,2022-11-28_12h10.00.521,vts_reward_expectancy_bt,2022.2.4,MacIntel,59.99880002,Chrome,1440,900,,,,,0,639,,,,,,,,,,,,,,,,,S,167,triangle,1,0,,,,,,,,,,,,,,,,repeat,number,numRpt,k,1.2995,noRew,,,,,,0,26,0,26,0,1,,,,,,,,,,,,,,,,,
296539,2022-11-28_12h10.00.521,vts_reward_expectancy_bt,2022.2.4,MacIntel,59.99880002,Chrome,1440,900,,,,,0,639,,,,,,,,,,,,,,,,,F,174,star,1,0,,,,,,,,,,,,,,,,repeat,number,numRpt,k,1.0648,noRew,,,,,,0,27,0,27,0,1,,,,,,,,,,,,,,,,,
296539,2022-11-28_12h10.00.521,vts_reward_expectancy_bt,2022.2.4,MacIntel,59.99880002,Chrome,1440,900,,,,,0,639,,,,,,,,,,,,,,,,,H,160,star,1,0,,,,,,,,,,,,,,,,repeat,number,numRpt,k,1.0795,noRew,,,,,,0,28,0,28,0,1,,,,,,,,,,,,,,,,,
296539,2022-11-28_12h10.00.521,vts_reward_expectancy_bt,2022.2.4,MacIntel,59.99880002,Chrome,1440,900,,,,,0,639,,,,,,,,,,,,,,,,,Y,139,hexagon,1,0,,,,,,,,,,,,,,,,switch,letter,lettSwt,f,0.8681,noRew,,,,,,0,29,0,29,0,1,,,,,,,,,,,,,,,,,
296539,2022-11-28_12h10.00.521,vts_reward_expectancy_bt,2022.2.4,MacIntel,59.99880002,Chrome,1440,900,,,,,0,639,,,,,,,,,,,,,,,,,U,125,circle,1,0,,,,,,,,,,,,,,,,repeat,letter,lettRpt,f,0.7996,noRew,,,,,,0,30,0,30,0,1,,,,,,,,,,,,,,,,,
296539,2022-11-28_12h10.00.521,vts_reward_expectancy_bt,2022.2.4,MacIntel,59.99880002,Chrome,1440,900,,,,,0,639,,,,,,,,,,,,,,,,,S,174,hexagon,1,0,,,,,,,,,,,,,,,,repeat,letter,lettRpt,f,0.846,noRew,,,,,,0,31,0,31,0,1,,,,,,,,,,,,,,,,,
296539,2022-11-28_12h10.00.521,vts_reward_expectancy_bt,2022.2.4,MacIntel,59.99880002,Chrome,1440,900,,,,,0,639,,,,,,,,,,,,,,,,,Y,139,triangle,1,0,,,,,,,,,,,,,,,,repeat,letter,lettRpt,f,0.8016,noRew,,,,,,0,32,0,32,0,1,,,,,,,,,,,,,,,,,
296539,2022-11-28_12h10.00.521,vts_reward_expectancy_bt,2022.2.4,MacIntel,59.99880002,Chrome,1440,900,,,,,0,639,,,,,,,,,,,,,,,,,B,167,circle,1,0,,,,,,,,,,,,,,,,repeat,letter,lettRpt,d,1.7804,noRew,,,,,,0,33,0,33,0,1,,,,,,,,,,,,,,,,,
296539,2022-11-28_12h10.00.521,vts_reward_expectancy_bt,2022.2.4,MacIntel,59.99880002,Chrome,1440,900,,,,,0,639,,,,,,,,,,,,,,,,,H,181,triangle,1,0,,,,,,,,,,,,,,,,switch,number,numSwt,k,0.85,noRew,,,,,,0,34,0,34,0,1,,,,,,,,,,,,,,,,,
296539,2022-11-28_12h10.00.521,vts_reward_expectancy_bt,2022.2.4,MacIntel,59.99880002,Chrome,1440,900,,,,,0,639,,,,,,,,,,,,,,,,,W,146,hexagon,1,0,,,,,,,,,,,,,,,,switch,letter,lettSwt,f,1.2391,noRew,,,,,,0,35,0,35,0,1,,,,,,,,,,,,,,,,,
296539,2022-11-28_12h10.00.521,vts_reward_expectancy_bt,2022.2.4,MacIntel,59.99880002,Chrome,1440,900,,,,,0,639,,,,,,,,,,,,,,,,,D,146,star,1,0,,,,,,,,,,,,,,,,switch,number,numSwt,j,1.1866,noRew,,,,,,0,36,0,36,0,1,,,,,,,,,,,,,,,,,
296539,2022-11-28_12h10.00.521,vts_reward_expectancy_bt,2022.2.4,MacIntel,59.99880002,Chrome,1440,900,,,,,0,639,,,,,,,,,,,,,,,,,W,132,hexagon,1,0,,,,,,,,,,,,,,,,switch,letter,lettSwt,f,1.8148,noRew,,,,,,0,37,0,37,0,1,,,,,,,,,,,,,,,,,
296539,2022-11-28_12h10.00.521,vts_reward_expectancy_bt,2022.2.4,MacIntel,59.99880002,Chrome,1440,900,,,,,0,639,,,,,,,,,,,,,,,,,B,125,hexagon,1,0,,,,,,,,,,,,,,,,repeat,letter,lettRpt,d,0.8964,noRew,,,,,,0,38,0,38,0,1,,,,,,,,,,,,,,,,,
296539,2022-11-28_12h10.00.521,vts_reward_expectancy_bt,2022.2.4,MacIntel,59.99880002,Chrome,1440,900,,,,,0,639,,,,,,,,,,,,,,,,,S,174,star,1,0,,,,,,,,,,,,,,,,repeat,letter,lettRpt,f,1.5483,noRew,,,,,,0,39,0,39,0,1,,,,,,,,,,,,,,,,,
296539,2022-11-28_12h10.00.521,vts_reward_expectancy_bt,2022.2.4,MacIntel,59.99880002,Chrome,1440,900,,,,,0,639,,,,,,,,,,,,,,,,,F,132,circle,1,0,,,,,,,,,,,,,,,,repeat,letter,lettRpt,d,0.9805,noRew,,,,,,0,40,0,40,0,1,,,,,,,,,,,,,,,,,
296539,2022-11-28_12h10.00.521,vts_reward_expectancy_bt,2022.2.4,MacIntel,59.99880002,Chrome,1440,900,,,,,0,639,,,,,,,,,,,,,,,,,U,139,star,1,0,,,,,,,,,,,,,,,,repeat,letter,lettRpt,f,2.1301,noRew,,,,,,0,41,0,41,0,1,,,,,,,,,,,,,,,,,
296539,2022-11-28_12h10.00.521,vts_reward_expectancy_bt,2022.2.4,MacIntel,59.99880002,Chrome,1440,900,,,,,0,639,,,,,,,,,,,,,,,,,B,181,triangle,1,0,,,,,,,,,,,,,,,,repeat,letter,lettRpt,d,1.4467,noRew,,,,,,0,42,0,42,0,1,,,,,,,,,,,,,,,,,
296539,2022-11-28_12h10.00.521,vts_reward_expectancy_bt,2022.2.4,MacIntel,59.99880002,Chrome,1440,900,,,,,0,639,,,,,,,,,,,,,,,,,Y,160,circle,1,0,,,,,,,,,,,,,,,,switch,number,numSwt,k,0.8154,noRew,,,,,,0,43,0,43,0,1,,,,,,,,,,,,,,,,,
296539,2022-11-28_12h10.00.521,vts_reward_expectancy_bt,2022.2.4,MacIntel,59.99880002,Chrome,1440,900,,,,,0,639,,,,,,,,,,,,,,,,,F,160,circle,1,0,,,,,,,,,,,,,,,,switch,letter,lettSwt,d,0.8524,noRew,,,,,,0,44,0,44,0,1,,,,,,,,,,,,,,,,,
296539,2022-11-28_12h10.00.521,vts_reward_expectancy_bt,2022.2.4,MacIntel,59.99880002,Chrome,1440,900,,,,,0,639,,,,,,,,,,,,,,,,,D,139,hexagon,1,0,,,,,,,,,,,,,,,,repeat,letter,lettRpt,d,1.0326,noRew,,,,,,0,45,0,45,0,1,,,,,,,,,,,,,,,,,
296539,2022-11-28_12h10.00.521,vts_reward_expectancy_bt,2022.2.4,MacIntel,59.99880002,Chrome,1440,900,,,,,0,639,,,,,,,,,,,,,,,,,Y,132,hexagon,1,0,,,,,,,,,,,,,,,,switch,number,numSwt,j,1.0658,noRew,,,,,,0,46,0,46,0,1,,,,,,,,,,,,,,,,,
296539,2022-11-28_12h10.00.521,vts_reward_expectancy_bt,2022.2.4,MacIntel,59.99880002,Chrome,1440,900,,,,,0,639,,,,,,,,,,,,,,,,,B,125,triangle,1,0,,,,,,,,,,,,,,,,switch,letter,lettSwt,d,0.8811,noRew,,,,,,0,47,0,47,0,1,,,,,,,,,,,,,,,,,
296539,2022-11-28_12h10.00.521,vts_reward_expectancy_bt,2022.2.4,MacIntel,59.99880002,Chrome,1440,900,,,,,0,639,,,,,,,,,,,,,,,,,W,125,triangle,1,0,,,,,,,,,,,,,,,,repeat,letter,lettRpt,f,0.7685,noRew,,,,,,0,48,0,48,0,1,,,,,,,,,,,,,,,,,
296539,2022-11-28_12h10.00.521,vts_reward_expectancy_bt,2022.2.4,MacIntel,59.99880002,Chrome,1440,900,,,,,0,639,,,,,,,,,,,,,,,,,S,174,star,1,0,,,,,,,,,,,,,,,,repeat,letter,lettRpt,f,1.2518,noRew,,,,,,0,49,0,49,0,1,,,,,,,,,,,,,,,,,
296539,2022-11-28_12h10.00.521,vts_reward_expectancy_bt,2022.2.4,MacIntel,59.99880002,Chrome,1440,900,,,,,0,639,,,,,,,,,,,,,,,,,F,160,star,1,0,,,,,,,,,,,,,,,,switch,number,numSwt,k,1.0148,noRew,,,,,,0,50,0,50,0,1,,,,,,,,,,,,,,,,,
296539,2022-11-28_12h10.00.521,vts_reward_expectancy_bt,2022.2.4,MacIntel,59.99880002,Chrome,1440,900,,,,,0,639,,,,,,,,,,,,,,,,,U,146,hexagon,1,0,,,,,,,,,,,,,,,,repeat,number,numRpt,j,0.9947,noRew,,,,,,0,51,0,51,0,1,,,,,,,,,,,,,,,,,
296539,2022-11-28_12h10.00.521,vts_reward_expectancy_bt,2022.2.4,MacIntel,59.99880002,Chrome,1440,900,,,,,0,639,,,,,,,,,,,,,,,,,Y,139,star,1,0,,,,,,,,,,,,,,,,switch,letter,lettSwt,f,1.2966,noRew,,,,,,0,52,0,52,0,1,,,,,,,,,,,,,,,,,
296539,2022-11-28_12h10.00.521,vts_reward_expectancy_bt,2022.2.4,MacIntel,59.99880002,Chrome,1440,900,,,,,0,639,,,,,,,,,,,,,,,,,D,160,triangle,1,0,,,,,,,,,,,,,,,,repeat,letter,lettRpt,d,0.8325,noRew,,,,,,0,53,0,53,0,1,,,,,,,,,,,,,,,,,
296539,2022-11-28_12h10.00.521,vts_reward_expectancy_bt,2022.2.4,MacIntel,59.99880002,Chrome,1440,900,,,,,0,639,,,,,,,,,,,,,,,,,S,167,star,1,0,,,,,,,,,,,,,,,,repeat,letter,lettRpt,f,0.9359,noRew,,,,,,0,54,0,54,0,1,,,,,,,,,,,,,,,,,
296539,2022-11-28_12h10.00.521,vts_reward_expectancy_bt,2022.2.4,MacIntel,59.99880002,Chrome,1440,900,,,,,0,639,,,,,,,,,,,,,,,,,B,181,circle,1,0,,,,,,,,,,,,,,,,switch,number,numSwt,k,1.2632,noRew,,,,,,0,55,0,55,0,1,,,,,,,,,,,,,,,,,
296539,2022-11-28_12h10.00.521,vts_reward_expectancy_bt,2022.2.4,MacIntel,59.99880002,Chrome,1440,900,,,,,0,639,,,,,,,,,,,,,,,,,Y,167,hexagon,1,0,,,,,,,,,,,,,,,,repeat,number,numRpt,k,0.7494,noRew,,,,,,0,56,0,56,0,1,,,,,,,,,,,,,,,,,
296539,2022-11-28_12h10.00.521,vts_reward_expectancy_bt,2022.2.4,MacIntel,59.99880002,Chrome,1440,900,,,,,0,639,,,,,,,,,,,,,,,,,S,160,star,0,0,,,,,,,,,,,,,,,,repeat,number,NA,j,1.4518,noRew,,,,,,0,57,0,57,0,1,,,,,,,,,,,,,,,,,
296539,2022-11-28_12h10.00.521,vts_reward_expectancy_bt,2022.2.4,MacIntel,59.99880002,Chrome,1440,900,,,,,0,639,,,,,,,,,,,,,,,,,D,174,star,1,1,,,,,,,,,,,,,,,,repeat,number,numRpt,k,0.7888,noRew,,,,,,0,58,0,58,0,1,,,,,,,,,,,,,,,,,
296539,2022-11-28_12h10.00.521,vts_reward_expectancy_bt,2022.2.4,MacIntel,59.99880002,Chrome,1440,900,,,,,0,639,,,,,,,,,,,,,,,,,U,146,circle,1,0,,,,,,,,,,,,,,,,switch,letter,lettSwt,f,0.9539,noRew,,,,,,0,59,0,59,0,1,,,,,,,,,,,,,,,,,
296539,2022-11-28_12h10.00.521,vts_reward_expectancy_bt,2022.2.4,MacIntel,59.99880002,Chrome,1440,900,,,,,0,639,,,,,,,,,,,,,,,,,W,146,hexagon,1,0,,,,,,,,,,,,,,,,repeat,letter,lettRpt,f,0.7023,noRew,,,,,,0,60,0,60,0,1,,,,,,,,,,,,,,,,,
296539,2022-11-28_12h10.00.521,vts_reward_expectancy_bt,2022.2.4,MacIntel,59.99880002,Chrome,1440,900,,,,,0,639,,,,,,,,,,,,,,,,,D,125,star,1,0,,,,,,,,,,,,,,,,repeat,letter,lettRpt,d,0.719,noRew,,,,,,0,61,0,61,0,1,,,,,,,,,,,,,,,,,
296539,2022-11-28_12h10.00.521,vts_reward_expectancy_bt,2022.2.4,MacIntel,59.99880002,Chrome,1440,900,,,,,0,639,,,,,,,,,,,,,,,,,Y,160,triangle,1,0,,,,,,,,,,,,,,,,switch,number,numSwt,k,0.7294,noRew,,,,,,0,62,0,62,0,1,,,,,,,,,,,,,,,,,
296539,2022-11-28_12h10.00.521,vts_reward_expectancy_bt,2022.2.4,MacIntel,59.99880002,Chrome,1440,900,,,,,0,639,,,,,,,,,,,,,,,,,H,139,circle,1,0,,,,,,,,,,,,,,,,repeat,number,numRpt,j,1.2967,noRew,,,,,,0,63,0,63,0,1,,,,,,,,,,,,,,,,,
296539,2022-11-28_12h10.00.521,vts_reward_expectancy_bt,2022.2.4,MacIntel,59.99880002,Chrome,1440,900,,,,,,,,,,,,,,,,,,,,,,,,,,,,,,,,,,,,,,,,,,,,,,,,,,,,,,,,,,,,,,,,,,,,,,,,,,,,
296539,2022-11-28_12h10.00.521,vts_reward_expectancy_bt,2022.2.4,MacIntel,59.99880002,Chrome,1440,900,,,,,0,639,,,,,,,,,,,,,,,,,S,167,triangle,0,0,,,,,,,,,,,,,,,,repeat,number,NA,j,1.8671,noRew,,,,,,0,,,,,,space,13.8346,high,0,0,0,0,1,,,,,,,,,
296539,2022-11-28_12h10.00.521,vts_reward_expectancy_bt,2022.2.4,MacIntel,59.99880002,Chrome,1440,900,,,,,1,640,,,,,,,,,,,,,,,,,Y,132,circle,1,1,,,,,,,,,,,,,,,,switch,letter,lettSwt,f,0.8823,Lo,,,,,,0,,,,,,,,high,1,0,1,0,1,,,,,,,,,
296539,2022-11-28_12h10.00.521,vts_reward_expectancy_bt,2022.2.4,MacIntel,59.99880002,Chrome,1440,900,,,,,10,650,,,,,,,,,,,,,,,,,B,139,star,1,0,,,,,,,,,,,,,,,,repeat,letter,lettRpt,d,0.7309,Hi,,,,,,0,,,,,,,,high,2,0,2,0,1,,,,,,,,,
296539,2022-11-28_12h10.00.521,vts_reward_expectancy_bt,2022.2.4,MacIntel,59.99880002,Chrome,1440,900,,,,,1,651,,,,,,,,,,,,,,,,,F,174,hexagon,1,0,,,,,,,,,,,,,,,,repeat,letter,lettRpt,d,0.9842,Lo,,,,,,0,,,,,,,,high,3,0,3,0,1,,,,,,,,,
296539,2022-11-28_12h10.00.521,vts_reward_expectancy_bt,2022.2.4,MacIntel,59.99880002,Chrome,1440,900,,,,,10,661,,,,,,,,,,,,,,,,,U,125,triangle,1,0,,,,,,,,,,,,,,,,switch,number,numSwt,j,0.5306,Hi,,,,,,0,,,,,,,,high,4,0,4,0,1,,,,,,,,,
296539,2022-11-28_12h10.00.521,vts_reward_expectancy_bt,2022.2.4,MacIntel,59.99880002,Chrome,1440,900,,,,,1,662,,,,,,,,,,,,,,,,,H,181,circle,1,0,,,,,,,,,,,,,,,,repeat,number,numRpt,k,0.6499,Lo,,,,,,0,,,,,,,,high,5,0,5,0,1,,,,,,,,,
296539,2022-11-28_12h10.00.521,vts_reward_expectancy_bt,2022.2.4,MacIntel,59.99880002,Chrome,1440,900,,,,,10,672,,,,,,,,,,,,,,,,,D,160,star,1,0,,,,,,,,,,,,,,,,repeat,number,numRpt,k,0.5332,Hi,,,,,,0,,,,,,,,high,6,0,6,0,1,,,,,,,,,
296539,2022-11-28_12h10.00.521,vts_reward_expectancy_bt,2022.2.4,MacIntel,59.99880002,Chrome,1440,900,,,,,0,672,,,,,,,,,,,,,,,,,W,146,hexagon,0,0,,,,,,,,,,,,,,,,repeat,number,NA,k,0.964,Hi,,,,,,0,,,,,,,,high,7,0,7,0,1,,,,,,,,,
296539,2022-11-28_12h10.00.521,vts_reward_expectancy_bt,2022.2.4,MacIntel,59.99880002,Chrome,1440,900,,,,,1,673,,,,,,,,,,,,,,,,,S,167,star,1,1,,,,,,,,,,,,,,,,repeat,number,numRpt,k,0.7475,Hi,,,,,,0,,,,,,,,high,8,0,8,0,1,,,,,,,,,
296539,2022-11-28_12h10.00.521,vts_reward_expectancy_bt,2022.2.4,MacIntel,59.99880002,Chrome,1440,900,,,,,1,674,,,,,,,,,,,,,,,,,Y,132,hexagon,1,0,,,,,,,,,,,,,,,,switch,letter,lettSwt,f,0.6773,Lo,,,,,,0,,,,,,,,high,9,0,9,0,1,,,,,,,,,
296539,2022-11-28_12h10.00.521,vts_reward_expectancy_bt,2022.2.4,MacIntel,59.99880002,Chrome,1440,900,,,,,0,674,,,,,,,,,,,,,,,,,B,139,triangle,1,0,,,,,,,,,,,,,,,,switch,number,numSwt,j,1.4289,Hi,,,,,,0,,,,,,,,high,10,0,10,0,1,,,,,,,,,
296539,2022-11-28_12h10.00.521,vts_reward_expectancy_bt,2022.2.4,MacIntel,59.99880002,Chrome,1440,900,,,,,10,684,,,,,,,,,,,,,,,,,F,174,circle,1,0,,,,,,,,,,,,,,,,switch,letter,lettSwt,d,0.9297,Lo,,,,,,0,,,,,,,,high,11,0,11,0,1,,,,,,,,,
296539,2022-11-28_12h10.00.521,vts_reward_expectancy_bt,2022.2.4,MacIntel,59.99880002,Chrome,1440,900,,,,,1,685,,,,,,,,,,,,,,,,,U,125,hexagon,1,0,,,,,,,,,,,,,,,,switch,number,numSwt,j,0.7634,Lo,,,,,,0,,,,,,,,high,12,0,12,0,1,,,,,,,,,
296539,2022-11-28_12h10.00.521,vts_reward_expectancy_bt,2022.2.4,MacIntel,59.99880002,Chrome,1440,900,,,,,1,686,,,,,,,,,,,,,,,,,H,181,circle,1,0,,,,,,,,,,,,,,,,switch,letter,lettSwt,d,1.1522,Lo,,,,,,0,,,,,,,,high,13,0,13,0,1,,,,,,,,,
296539,2022-11-28_12h10.00.521,vts_reward_expectancy_bt,2022.2.4,MacIntel,59.99880002,Chrome,1440,900,,,,,1,687,,,,,,,,,,,,,,,,,D,160,triangle,1,0,,,,,,,,,,,,,,,,repeat,letter,lettRpt,d,0.5365,Hi,,,,,,0,,,,,,,,high,14,0,14,0,1,,,,,,,,,
296539,2022-11-28_12h10.00.521,vts_reward_expectancy_bt,2022.2.4,MacIntel,59.99880002,Chrome,1440,900,,,,,10,697,,,,,,,,,,,,,,,,,W,146,star,1,0,,,,,,,,,,,,,,,,repeat,letter,lettRpt,f,0.7178,Hi,,,,,,0,,,,,,,,high,15,0,15,0,1,,,,,,,,,
296539,2022-11-28_12h10.00.521,vts_reward_expectancy_bt,2022.2.4,MacIntel,59.99880002,Chrome,1440,900,,,,,10,707,,,,,,,,,,,,,,,,,S,146,circle,1,0,,,,,,,,,,,,,,,,repeat,letter,lettRpt,f,0.7478,Lo,,,,,,0,,,,,,,,high,16,0,16,0,1,,,,,,,,,
296539,2022-11-28_12h10.00.521,vts_reward_expectancy_bt,2022.2.4,MacIntel,59.99880002,Chrome,1440,900,,,,,0,707,,,,,,,,,,,,,,,,,H,139,star,1,0,,,,,,,,,,,,,,,,repeat,letter,lettRpt,d,1.1511,Hi,,,,,,0,,,,,,,,high,17,0,17,0,1,,,,,,,,,
296539,2022-11-28_12h10.00.521,vts_reward_expectancy_bt,2022.2.4,MacIntel,59.99880002,Chrome,1440,900,,,,,1,708,,,,,,,,,,,,,,,,,U,160,hexagon,1,0,,,,,,,,,,,,,,,,repeat,letter,lettRpt,f,0.7496,Lo,,,,,,0,,,,,,,,high,18,0,18,0,1,,,,,,,,,
296539,2022-11-28_12h10.00.521,vts_reward_expectancy_bt,2022.2.4,MacIntel,59.99880002,Chrome,1440,900,,,,,10,718,,,,,,,,,,,,,,,,,F,181,triangle,1,0,,,,,,,,,,,,,,,,repeat,letter,lettRpt,d,0.8006,Hi,,,,,,0,,,,,,,,high,19,0,19,0,1,,,,,,,,,
296539,2022-11-28_12h10.00.521,vts_reward_expectancy_bt,2022.2.4,MacIntel,59.99880002,Chrome,1440,900,,,,,10,728,,,,,,,,,,,,,,,,,D,125,triangle,1,0,,,,,,,,,,,,,,,,repeat,letter,lettRpt,d,0.6838,Hi,,,,,,0,,,,,,,,high,20,0,20,0,1,,,,,,,,,
296539,2022-11-28_12h10.00.521,vts_reward_expectancy_bt,2022.2.4,MacIntel,59.99880002,Chrome,1440,900,,,,,10,738,,,,,,,,,,,,,,,,,Y,132,star,1,0,,,,,,,,,,,,,,,,repeat,letter,lettRpt,f,0.7319,Hi,,,,,,0,,,,,,,,high,21,0,21,0,1,,,,,,,,,
296539,2022-11-28_12h10.00.521,vts_reward_expectancy_bt,2022.2.4,MacIntel,59.99880002,Chrome,1440,900,,,,,1,739,,,,,,,,,,,,,,,,,B,174,circle,1,0,,,,,,,,,,,,,,,,repeat,letter,lettRpt,d,0.666,Lo,,,,,,0,,,,,,,,high,22,0,22,0,1,,,,,,,,,
296539,2022-11-28_12h10.00.521,vts_reward_expectancy_bt,2022.2.4,MacIntel,59.99880002,Chrome,1440,900,,,,,1,740,,,,,,,,,,,,,,,,,W,167,hexagon,1,0,,,,,,,,,,,,,,,,repeat,letter,lettRpt,f,0.6347,Lo,,,,,,0,,,,,,,,high,23,0,23,0,1,,,,,,,,,
296539,2022-11-28_12h10.00.521,vts_reward_expectancy_bt,2022.2.4,MacIntel,59.99880002,Chrome,1440,900,,,,,10,750,,,,,,,,,,,,,,,,,F,160,star,1,0,,,,,,,,,,,,,,,,repeat,letter,lettRpt,d,0.6632,Hi,,,,,,0,,,,,,,,high,24,0,24,0,1,,,,,,,,,
296539,2022-11-28_12h10.00.521,vts_reward_expectancy_bt,2022.2.4,MacIntel,59.99880002,Chrome,1440,900,,,,,1,751,,,,,,,,,,,,,,,,,D,174,hexagon,1,0,,,,,,,,,,,,,,,,repeat,letter,lettRpt,d,0.5665,Lo,,,,,,0,,,,,,,,high,25,0,25,0,1,,,,,,,,,
296539,2022-11-28_12h10.00.521,vts_reward_expectancy_bt,2022.2.4,MacIntel,59.99880002,Chrome,1440,900,,,,,1,752,,,,,,,,,,,,,,,,,Y,146,circle,1,0,,,,,,,,,,,,,,,,switch,number,numSwt,j,0.608,Lo,,,,,,0,,,,,,,,high,26,0,26,0,1,,,,,,,,,
296539,2022-11-28_12h10.00.521,vts_reward_expectancy_bt,2022.2.4,MacIntel,59.99880002,Chrome,1440,900,,,,,0,752,,,,,,,,,,,,,,,,,U,167,triangle,1,0,,,,,,,,,,,,,,,,repeat,number,numRpt,k,0.9218,Hi,,,,,,0,,,,,,,,high,27,0,27,0,1,,,,,,,,,
296539,2022-11-28_12h10.00.521,vts_reward_expectancy_bt,2022.2.4,MacIntel,59.99880002,Chrome,1440,900,,,,,10,762,,,,,,,,,,,,,,,,,S,139,triangle,1,0,,,,,,,,,,,,,,,,repeat,number,numRpt,j,0.662,Hi,,,,,,0,,,,,,,,high,28,0,28,0,1,,,,,,,,,
296539,2022-11-28_12h10.00.521,vts_reward_expectancy_bt,2022.2.4,MacIntel,59.99880002,Chrome,1440,900,,,,,1,763,,,,,,,,,,,,,,,,,W,132,hexagon,1,0,,,,,,,,,,,,,,,,repeat,number,numRpt,j,0.7498,Lo,,,,,,0,,,,,,,,high,29,0,29,0,1,,,,,,,,,
296539,2022-11-28_12h10.00.521,vts_reward_expectancy_bt,2022.2.4,MacIntel,59.99880002,Chrome,1440,900,,,,,10,773,,,,,,,,,,,,,,,,,H,181,star,1,0,,,,,,,,,,,,,,,,repeat,number,numRpt,k,0.7301,Hi,,,,,,0,,,,,,,,high,30,0,30,0,1,,,,,,,,,
296539,2022-11-28_12h10.00.521,vts_reward_expectancy_bt,2022.2.4,MacIntel,59.99880002,Chrome,1440,900,,,,,1,774,,,,,,,,,,,,,,,,,B,125,circle,1,0,,,,,,,,,,,,,,,,repeat,number,numRpt,j,0.5974,Lo,,,,,,0,,,,,,,,high,31,0,31,0,1,,,,,,,,,
296539,2022-11-28_12h10.00.521,vts_reward_expectancy_bt,2022.2.4,MacIntel,59.99880002,Chrome,1440,900,,,,,10,784,,,,,,,,,,,,,,,,,F,146,triangle,1,0,,,,,,,,,,,,,,,,switch,letter,lettSwt,d,0.7153,Hi,,,,,,1,,,,,,space,2.8576,high,0,0,0,0,1,,,,,,,,,
296539,2022-11-28_12h10.00.521,vts_reward_expectancy_bt,2022.2.4,MacIntel,59.99880002,Chrome,1440,900,,,,,0,784,,,,,,,,,,,,,,,,,Y,181,star,1,0,,,,,,,,,,,,,,,,repeat,letter,lettRpt,f,0.7658,Hi,,,,,,1,,,,,,,,high,1,0,1,0,1,,,,,,,,,
296539,2022-11-28_12h10.00.521,vts_reward_expectancy_bt,2022.2.4,MacIntel,59.99880002,Chrome,1440,900,,,,,1,785,,,,,,,,,,,,,,,,,D,125,hexagon,1,0,,,,,,,,,,,,,,,,switch,number,numSwt,j,0.6945,Lo,,,,,,1,,,,,,,,high,2,0,2,0,1,,,,,,,,,
296539,2022-11-28_12h10.00.521,vts_reward_expectancy_bt,2022.2.4,MacIntel,59.99880002,Chrome,1440,900,,,,,1,786,,,,,,,,,,,,,,,,,H,174,circle,1,0,,,,,,,,,,,,,,,,repeat,number,numRpt,k,0.6515,Lo,,,,,,1,,,,,,,,high,3,0,3,0,1,,,,,,,,,
296539,2022-11-28_12h10.00.521,vts_reward_expectancy_bt,2022.2.4,MacIntel,59.99880002,Chrome,1440,900,,,,,0,786,,,,,,,,,,,,,,,,,W,132,triangle,1,0,,,,,,,,,,,,,,,,repeat,number,numRpt,j,0.856,Hi,,,,,,1,,,,,,,,high,4,0,4,0,1,,,,,,,,,
296539,2022-11-28_12h10.00.521,vts_reward_expectancy_bt,2022.2.4,MacIntel,59.99880002,Chrome,1440,900,,,,,10,796,,,,,,,,,,,,,,,,,S,167,star,1,0,,,,,,,,,,,,,,,,repeat,number,numRpt,k,0.6346,Hi,,,,,,1,,,,,,,,high,5,0,5,0,1,,,,,,,,,
296539,2022-11-28_12h10.00.521,vts_reward_expectancy_bt,2022.2.4,MacIntel,59.99880002,Chrome,1440,900,,,,,1,797,,,,,,,,,,,,,,,,,U,139,hexagon,1,0,,,,,,,,,,,,,,,,repeat,number,numRpt,j,0.6655,Lo,,,,,,1,,,,,,,,high,6,0,6,0,1,,,,,,,,,
296539,2022-11-28_12h10.00.521,vts_reward_expectancy_bt,2022.2.4,MacIntel,59.99880002,Chrome,1440,900,,,,,10,807,,,,,,,,,,,,,,,,,B,160,circle,1,0,,,,,,,,,,,,,,,,repeat,number,numRpt,k,0.5852,Lo,,,,,,1,,,,,,,,high,7,0,7,0,1,,,,,,,,,
296539,2022-11-28_12h10.00.521,vts_reward_expectancy_bt,2022.2.4,MacIntel,59.99880002,Chrome,1440,900,,,,,1,808,,,,,,,,,,,,,,,,,F,146,circle,1,0,,,,,,,,,,,,,,,,repeat,number,numRpt,j,0.5971,Lo,,,,,,1,,,,,,,,high,8,0,8,0,1,,,,,,,,,
296539,2022-11-28_12h10.00.521,vts_reward_expectancy_bt,2022.2.4,MacIntel,59.99880002,Chrome,1440,900,,,,,0,808,,,,,,,,,,,,,,,,,Y,181,star,1,0,,,,,,,,,,,,,,,,repeat,number,numRpt,k,0.6659,Hi,,,,,,1,,,,,,,,high,9,0,9,0,1,,,,,,,,,
296539,2022-11-28_12h10.00.521,vts_reward_expectancy_bt,2022.2.4,MacIntel,59.99880002,Chrome,1440,900,,,,,10,818,,,,,,,,,,,,,,,,,D,125,triangle,1,0,,,,,,,,,,,,,,,,repeat,number,numRpt,j,0.5676,Hi,,,,,,1,,,,,,,,high,10,0,10,0,1,,,,,,,,,
296539,2022-11-28_12h10.00.521,vts_reward_expectancy_bt,2022.2.4,MacIntel,59.99880002,Chrome,1440,900,,,,,1,819,,,,,,,,,,,,,,,,,H,174,hexagon,1,0,,,,,,,,,,,,,,,,repeat,number,numRpt,k,0.5317,Lo,,,,,,1,,,,,,,,high,11,0,11,0,1,,,,,,,,,
296539,2022-11-28_12h10.00.521,vts_reward_expectancy_bt,2022.2.4,MacIntel,59.99880002,Chrome,1440,900,,,,,1,820,,,,,,,,,,,,,,,,,W,132,hexagon,1,0,,,,,,,,,,,,,,,,repeat,number,numRpt,j,0.3798,Lo,,,,,,1,,,,,,,,high,12,0,12,0,1,,,,,,,,,
296539,2022-11-28_12h10.00.521,vts_reward_expectancy_bt,2022.2.4,MacIntel,59.99880002,Chrome,1440,900,,,,,10,830,,,,,,,,,,,,,,,,,S,167,triangle,1,0,,,,,,,,,,,,,,,,repeat,number,numRpt,k,0.4498,Hi,,,,,,1,,,,,,,,high,13,0,13,0,1,,,,,,,,,
296539,2022-11-28_12h10.00.521,vts_reward_expectancy_bt,2022.2.4,MacIntel,59.99880002,Chrome,1440,900,,,,,1,831,,,,,,,,,,,,,,,,,U,139,star,1,0,,,,,,,,,,,,,,,,repeat,number,numRpt,j,0.4971,Hi,,,,,,1,,,,,,,,high,14,0,14,0,1,,,,,,,,,
296539,2022-11-28_12h10.00.521,vts_reward_expectancy_bt,2022.2.4,MacIntel,59.99880002,Chrome,1440,900,,,,,10,841,,,,,,,,,,,,,,,,,B,160,circle,1,0,,,,,,,,,,,,,,,,repeat,number,numRpt,k,0.5697,Lo,,,,,,1,,,,,,,,high,15,0,15,0,1,,,,,,,,,
296539,2022-11-28_12h10.00.521,vts_reward_expectancy_bt,2022.2.4,MacIntel,59.99880002,Chrome,1440,900,,,,,1,842,,,,,,,,,,,,,,,,,W,181,circle,1,0,,,,,,,,,,,,,,,,repeat,number,numRpt,k,0.5288,Lo,,,,,,1,,,,,,,,high,16,0,16,0,1,,,,,,,,,
296539,2022-11-28_12h10.00.521,vts_reward_expectancy_bt,2022.2.4,MacIntel,59.99880002,Chrome,1440,900,,,,,1,843,,,,,,,,,,,,,,,,,H,167,triangle,1,0,,,,,,,,,,,,,,,,switch,letter,lettSwt,d,0.6994,Hi,,,,,,1,,,,,,,,high,17,0,17,0,1,,,,,,,,,
296539,2022-11-28_12h10.00.521,vts_reward_expectancy_bt,2022.2.4,MacIntel,59.99880002,Chrome,1440,900,,,,,1,844,,,,,,,,,,,,,,,,,D,160,hexagon,1,0,,,,,,,,,,,,,,,,repeat,letter,lettRpt,d,0.6823,Lo,,,,,,1,,,,,,,,high,18,0,18,0,1,,,,,,,,,
296539,2022-11-28_12h10.00.521,vts_reward_expectancy_bt,2022.2.4,MacIntel,59.99880002,Chrome,1440,900,,,,,0,844,,,,,,,,,,,,,,,,,F,174,star,1,0,,,,,,,,,,,,,,,,repeat,letter,lettRpt,d,0.9486,Hi,,,,,,1,,,,,,,,high,19,0,19,0,1,,,,,,,,,
296539,2022-11-28_12h10.00.521,vts_reward_expectancy_bt,2022.2.4,MacIntel,59.99880002,Chrome,1440,900,,,,,0,844,,,,,,,,,,,,,,,,,Y,139,star,1,0,,,,,,,,,,,,,,,,repeat,letter,lettRpt,f,0.7788,Hi,,,,,,1,,,,,,,,high,20,0,20,0,1,,,,,,,,,
296539,2022-11-28_12h10.00.521,vts_reward_expectancy_bt,2022.2.4,MacIntel,59.99880002,Chrome,1440,900,,,,,1,845,,,,,,,,,,,,,,,,,U,132,circle,1,0,,,,,,,,,,,,,,,,switch,number,numSwt,j,0.5172,Lo,,,,,,1,,,,,,,,high,21,0,21,0,1,,,,,,,,,
296539,2022-11-28_12h10.00.521,vts_reward_expectancy_bt,2022.2.4,MacIntel,59.99880002,Chrome,1440,900,,,,,1,846,,,,,,,,,,,,,,,,,B,146,hexagon,1,0,,,,,,,,,,,,,,,,repeat,number,numRpt,j,0.6077,Lo,,,,,,1,,,,,,,,high,22,0,22,0,1,,,,,,,,,
296539,2022-11-28_12h10.00.521,vts_reward_expectancy_bt,2022.2.4,MacIntel,59.99880002,Chrome,1440,900,,,,,10,856,,,,,,,,,,,,,,,,,S,125,triangle,1,0,,,,,,,,,,,,,,,,repeat,number,numRpt,j,0.6503,Hi,,,,,,1,,,,,,,,high,23,0,23,0,1,,,,,,,,,
296539,2022-11-28_12h10.00.521,vts_reward_expectancy_bt,2022.2.4,MacIntel,59.99880002,Chrome,1440,900,,,,,1,857,,,,,,,,,,,,,,,,,Y,174,hexagon,1,0,,,,,,,,,,,,,,,,repeat,number,numRpt,k,0.6686,Lo,,,,,,1,,,,,,,,high,24,0,24,0,1,,,,,,,,,
296539,2022-11-28_12h10.00.521,vts_reward_expectancy_bt,2022.2.4,MacIntel,59.99880002,Chrome,1440,900,,,,,10,867,,,,,,,,,,,,,,,,,U,139,circle,1,0,,,,,,,,,,,,,,,,repeat,number,numRpt,j,0.6805,Lo,,,,,,1,,,,,,,,high,25,0,25,0,1,,,,,,,,,
296539,2022-11-28_12h10.00.521,vts_reward_expectancy_bt,2022.2.4,MacIntel,59.99880002,Chrome,1440,900,,,,,0,867,,,,,,,,,,,,,,,,,D,167,star,1,0,,,,,,,,,,,,,,,,repeat,number,numRpt,k,0.7126,Hi,,,,,,1,,,,,,,,high,26,0,26,0,1,,,,,,,,,
296539,2022-11-28_12h10.00.521,vts_reward_expectancy_bt,2022.2.4,MacIntel,59.99880002,Chrome,1440,900,,,,,0,867,,,,,,,,,,,,,,,,,B,181,triangle,1,0,,,,,,,,,,,,,,,,repeat,number,numRpt,k,0.6635,Hi,,,,,,1,,,,,,,,high,27,0,27,0,1,,,,,,,,,
296539,2022-11-28_12h10.00.521,vts_reward_expectancy_bt,2022.2.4,MacIntel,59.99880002,Chrome,1440,900,,,,,1,868,,,,,,,,,,,,,,,,,F,160,circle,1,0,,,,,,,,,,,,,,,,repeat,number,numRpt,k,0.5626,Lo,,,,,,1,,,,,,,,high,28,0,28,0,1,,,,,,,,,
296539,2022-11-28_12h10.00.521,vts_reward_expectancy_bt,2022.2.4,MacIntel,59.99880002,Chrome,1440,900,,,,,10,878,,,,,,,,,,,,,,,,,H,132,triangle,1,0,,,,,,,,,,,,,,,,repeat,number,numRpt,j,0.6141,Hi,,,,,,1,,,,,,,,high,29,0,29,0,1,,,,,,,,,
296539,2022-11-28_12h10.00.521,vts_reward_expectancy_bt,2022.2.4,MacIntel,59.99880002,Chrome,1440,900,,,,,1,879,,,,,,,,,,,,,,,,,S,146,hexagon,1,0,,,,,,,,,,,,,,,,repeat,number,numRpt,j,0.598,Lo,,,,,,1,,,,,,,,high,30,0,30,0,1,,,,,,,,,
296539,2022-11-28_12h10.00.521,vts_reward_expectancy_bt,2022.2.4,MacIntel,59.99880002,Chrome,1440,900,,,,,10,889,,,,,,,,,,,,,,,,,W,125,star,1,0,,,,,,,,,,,,,,,,repeat,number,numRpt,j,0.5671,Hi,,,,,,1,,,,,,,,high,31,0,31,0,1,,,,,,,,,
296539,2022-11-28_12h10.00.521,vts_reward_expectancy_bt,2022.2.4,MacIntel,59.99880002,Chrome,1440,900,,,,,1,890,,,,,,,,,,,,,,,,,B,139,star,1,0,,,,,,,,,,,,,,,,repeat,number,numRpt,j,0.4118,Hi,,,,,,2,,,,,,space,0.7122,high,0,0,0,0,1,,,,,,,,,
296539,2022-11-28_12h10.00.521,vts_reward_expectancy_bt,2022.2.4,MacIntel,59.99880002,Chrome,1440,900,,,,,0,890,,,,,,,,,,,,,,,,,Y,167,triangle,1,0,,,,,,,,,,,,,,,,repeat,number,numRpt,k,0.6177,Hi,,,,,,2,,,,,,,,high,1,0,1,0,1,,,,,,,,,
296539,2022-11-28_12h10.00.521,vts_reward_expectancy_bt,2022.2.4,MacIntel,59.99880002,Chrome,1440,900,,,,,10,900,,,,,,,,,,,,,,,,,D,132,circle,1,0,,,,,,,,,,,,,,,,repeat,number,numRpt,j,0.5827,Lo,,,,,,2,,,,,,,,high,2,0,2,0,1,,,,,,,,,
296539,2022-11-28_12h10.00.521,vts_reward_expectancy_bt,2022.2.4,MacIntel,59.99880002,Chrome,1440,900,,,,,1,901,,,,,,,,,,,,,,,,,W,125,hexagon,1,0,,,,,,,,,,,,,,,,repeat,number,numRpt,j,0.7122,Lo,,,,,,2,,,,,,,,high,3,0,3,0,1,,,,,,,,,
296539,2022-11-28_12h10.00.521,vts_reward_expectancy_bt,2022.2.4,MacIntel,59.99880002,Chrome,1440,900,,,,,0,901,,,,,,,,,,,,,,,,,S,146,star,1,0,,,,,,,,,,,,,,,,repeat,number,numRpt,j,0.7684,Hi,,,,,,2,,,,,,,,high,4,0,4,0,1,,,,,,,,,
296539,2022-11-28_12h10.00.521,vts_reward_expectancy_bt,2022.2.4,MacIntel,59.99880002,Chrome,1440,900,,,,,0,901,,,,,,,,,,,,,,,,,H,174,triangle,0,0,,,,,,,,,,,,,,,,repeat,number,NA,j,0.9826,Hi,,,,,,2,,,,,,,,high,5,0,5,0,1,,,,,,,,,
296539,2022-11-28_12h10.00.521,vts_reward_expectancy_bt,2022.2.4,MacIntel,59.99880002,Chrome,1440,900,,,,,10,911,,,,,,,,,,,,,,,,,F,181,circle,1,1,,,,,,,,,,,,,,,,repeat,number,numRpt,k,0.6137,Lo,,,,,,2,,,,,,,,high,6,0,6,0,1,,,,,,,,,
296539,2022-11-28_12h10.00.521,vts_reward_expectancy_bt,2022.2.4,MacIntel,59.99880002,Chrome,1440,900,,,,,1,912,,,,,,,,,,,,,,,,,U,160,hexagon,1,0,,,,,,,,,,,,,,,,repeat,number,numRpt,k,0.5968,Lo,,,,,,2,,,,,,,,high,7,0,7,0,1,,,,,,,,,
296539,2022-11-28_12h10.00.521,vts_reward_expectancy_bt,2022.2.4,MacIntel,59.99880002,Chrome,1440,900,,,,,10,922,,,,,,,,,,,,,,,,,B,139,circle,1,0,,,,,,,,,,,,,,,,repeat,number,numRpt,j,0.5523,Lo,,,,,,2,,,,,,,,high,8,0,8,0,1,,,,,,,,,
296539,2022-11-28_12h10.00.521,vts_reward_expectancy_bt,2022.2.4,MacIntel,59.99880002,Chrome,1440,900,,,,,0,922,,,,,,,,,,,,,,,,,Y,167,triangle,1,0,,,,,,,,,,,,,,,,repeat,number,numRpt,k,0.8516,Hi,,,,,,2,,,,,,,,high,9,0,9,0,1,,,,,,,,,
296539,2022-11-28_12h10.00.521,vts_reward_expectancy_bt,2022.2.4,MacIntel,59.99880002,Chrome,1440,900,,,,,0,922,,,,,,,,,,,,,,,,,D,132,star,1,0,,,,,,,,,,,,,,,,repeat,number,numRpt,j,0.6182,Hi,,,,,,2,,,,,,,,high,10,0,10,0,1,,,,,,,,,
296539,2022-11-28_12h10.00.521,vts_reward_expectancy_bt,2022.2.4,MacIntel,59.99880002,Chrome,1440,900,,,,,1,923,,,,,,,,,,,,,,,,,W,125,hexagon,1,0,,,,,,,,,,,,,,,,repeat,number,numRpt,j,0.6671,Lo,,,,,,2,,,,,,,,high,11,0,11,0,1,,,,,,,,,
296539,2022-11-28_12h10.00.521,vts_reward_expectancy_bt,2022.2.4,MacIntel,59.99880002,Chrome,1440,900,,,,,1,924,,,,,,,,,,,,,,,,,S,146,circle,1,0,,,,,,,,,,,,,,,,repeat,number,numRpt,j,0.5633,Lo,,,,,,2,,,,,,,,high,12,0,12,0,1,,,,,,,,,
296539,2022-11-28_12h10.00.521,vts_reward_expectancy_bt,2022.2.4,MacIntel,59.99880002,Chrome,1440,900,,,,,0,924,,,,,,,,,,,,,,,,,H,174,star,1,0,,,,,,,,,,,,,,,,repeat,number,numRpt,k,0.5864,Hi,,,,,,2,,,,,,,,high,13,0,13,0,1,,,,,,,,,
296539,2022-11-28_12h10.00.521,vts_reward_expectancy_bt,2022.2.4,MacIntel,59.99880002,Chrome,1440,900,,,,,10,934,,,,,,,,,,,,,,,,,F,181,hexagon,1,0,,,,,,,,,,,,,,,,repeat,number,numRpt,k,0.7839,Lo,,,,,,2,,,,,,,,high,14,0,14,0,1,,,,,,,,,
296539,2022-11-28_12h10.00.521,vts_reward_expectancy_bt,2022.2.4,MacIntel,59.99880002,Chrome,1440,900,,,,,0,934,,,,,,,,,,,,,,,,,U,160,triangle,0,0,,,,,,,,,,,,,,,,repeat,number,NA,j,0.6491,Lo,,,,,,2,,,,,,,,high,15,0,15,0,1,,,,,,,,,
296539,2022-11-28_12h10.00.521,vts_reward_expectancy_bt,2022.2.4,MacIntel,59.99880002,Chrome,1440,900,,,,,1,935,,,,,,,,,,,,,,,,,U,167,circle,1,1,,,,,,,,,,,,,,,,repeat,number,numRpt,k,0.6025,Lo,,,,,,2,,,,,,,,high,16,0,16,0,1,,,,,,,,,
296539,2022-11-28_12h10.00.521,vts_reward_expectancy_bt,2022.2.4,MacIntel,59.99880002,Chrome,1440,900,,,,,0,935,,,,,,,,,,,,,,,,,H,174,star,1,0,,,,,,,,,,,,,,,,repeat,number,numRpt,k,0.5813,Hi,,,,,,2,,,,,,,,high,17,0,17,0,1,,,,,,,,,
296539,2022-11-28_12h10.00.521,vts_reward_expectancy_bt,2022.2.4,MacIntel,59.99880002,Chrome,1440,900,,,,,10,945,,,,,,,,,,,,,,,,,D,132,triangle,1,0,,,,,,,,,,,,,,,,repeat,number,numRpt,j,0.5633,Hi,,,,,,2,,,,,,,,high,18,0,18,0,1,,,,,,,,,
296539,2022-11-28_12h10.00.521,vts_reward_expectancy_bt,2022.2.4,MacIntel,59.99880002,Chrome,1440,900,,,,,1,946,,,,,,,,,,,,,,,,,F,146,hexagon,1,0,,,,,,,,,,,,,,,,repeat,number,numRpt,j,0.6839,Lo,,,,,,2,,,,,,,,high,19,0,19,0,1,,,,,,,,,
296539,2022-11-28_12h10.00.521,vts_reward_expectancy_bt,2022.2.4,MacIntel,59.99880002,Chrome,1440,900,,,,,0,946,,,,,,,,,,,,,,,,,W,139,star,1,0,,,,,,,,,,,,,,,,repeat,number,numRpt,j,0.9632,Hi,,,,,,2,,,,,,,,high,20,0,20,0,1,,,,,,,,,
296539,2022-11-28_12h10.00.521,vts_reward_expectancy_bt,2022.2.4,MacIntel,59.99880002,Chrome,1440,900,,,,,1,947,,,,,,,,,,,,,,,,,B,160,circle,1,0,,,,,,,,,,,,,,,,repeat,number,numRpt,k,0.6675,Lo,,,,,,2,,,,,,,,high,21,0,21,0,1,,,,,,,,,
296539,2022-11-28_12h10.00.521,vts_reward_expectancy_bt,2022.2.4,MacIntel,59.99880002,Chrome,1440,900,,,,,1,948,,,,,,,,,,,,,,,,,Y,125,hexagon,1,0,,,,,,,,,,,,,,,,repeat,number,numRpt,j,0.5643,Lo,,,,,,2,,,,,,,,high,22,0,22,0,1,,,,,,,,,
296539,2022-11-28_12h10.00.521,vts_reward_expectancy_bt,2022.2.4,MacIntel,59.99880002,Chrome,1440,900,,,,,0,948,,,,,,,,,,,,,,,,,S,181,triangle,1,0,,,,,,,,,,,,,,,,repeat,number,numRpt,k,0.5988,Hi,,,,,,2,,,,,,,,high,23,0,23,0,1,,,,,,,,,
296539,2022-11-28_12h10.00.521,vts_reward_expectancy_bt,2022.2.4,MacIntel,59.99880002,Chrome,1440,900,,,,,1,949,,,,,,,,,,,,,,,,,D,139,circle,1,0,,,,,,,,,,,,,,,,repeat,number,numRpt,j,0.58,Lo,,,,,,2,,,,,,,,high,24,0,24,0,1,,,,,,,,,
296539,2022-11-28_12h10.00.521,vts_reward_expectancy_bt,2022.2.4,MacIntel,59.99880002,Chrome,1440,900,,,,,10,959,,,,,,,,,,,,,,,,,S,132,triangle,1,0,,,,,,,,,,,,,,,,repeat,number,numRpt,j,0.5303,Hi,,,,,,2,,,,,,,,high,25,0,25,0,1,,,,,,,,,
296539,2022-11-28_12h10.00.521,vts_reward_expectancy_bt,2022.2.4,MacIntel,59.99880002,Chrome,1440,900,,,,,0,959,,,,,,,,,,,,,,,,,F,181,star,1,0,,,,,,,,,,,,,,,,repeat,number,numRpt,k,0.7134,Hi,,,,,,2,,,,,,,,high,26,0,26,0,1,,,,,,,,,
296539,2022-11-28_12h10.00.521,vts_reward_expectancy_bt,2022.2.4,MacIntel,59.99880002,Chrome,1440,900,,,,,1,960,,,,,,,,,,,,,,,,,U,160,hexagon,1,0,,,,,,,,,,,,,,,,repeat,number,numRpt,k,0.6,Lo,,,,,,2,,,,,,,,high,27,0,27,0,1,,,,,,,,,
296539,2022-11-28_12h10.00.521,vts_reward_expectancy_bt,2022.2.4,MacIntel,59.99880002,Chrome,1440,900,,,,,0,960,,,,,,,,,,,,,,,,,Y,146,star,1,0,,,,,,,,,,,,,,,,repeat,number,numRpt,j,0.582,Hi,,,,,,2,,,,,,,,high,28,0,28,0,1,,,,,,,,,
296539,2022-11-28_12h10.00.521,vts_reward_expectancy_bt,2022.2.4,MacIntel,59.99880002,Chrome,1440,900,,,,,10,970,,,,,,,,,,,,,,,,,H,125,hexagon,1,0,,,,,,,,,,,,,,,,repeat,number,numRpt,j,0.5698,Lo,,,,,,2,,,,,,,,high,29,0,29,0,1,,,,,,,,,
296539,2022-11-28_12h10.00.521,vts_reward_expectancy_bt,2022.2.4,MacIntel,59.99880002,Chrome,1440,900,,,,,0,970,,,,,,,,,,,,,,,,,W,174,triangle,1,0,,,,,,,,,,,,,,,,repeat,number,numRpt,k,0.654,Hi,,,,,,2,,,,,,,,high,30,0,30,0,1,,,,,,,,,
296539,2022-11-28_12h10.00.521,vts_reward_expectancy_bt,2022.2.4,MacIntel,59.99880002,Chrome,1440,900,,,,,1,971,,,,,,,,,,,,,,,,,B,167,circle,1,0,,,,,,,,,,,,,,,,repeat,number,numRpt,k,0.5983,Lo,,,,,,2,,,,,,,,high,31,0,31,0,1,,,,,,,,,
296539,2022-11-28_12h10.00.521,vts_reward_expectancy_bt,2022.2.4,MacIntel,59.99880002,Chrome,1440,900,,,,,1,972,,,,,,,,,,,,,,,,,S,174,hexagon,1,0,,,,,,,,,,,,,,,,repeat,number,numRpt,k,0.5843,Lo,,,,,,3,,,,,,space,1.088,high,0,0,0,0,1,,,,,,,,,
296539,2022-11-28_12h10.00.521,vts_reward_expectancy_bt,2022.2.4,MacIntel,59.99880002,Chrome,1440,900,,,,,10,982,,,,,,,,,,,,,,,,,Y,132,star,1,0,,,,,,,,,,,,,,,,repeat,number,numRpt,j,0.4696,Hi,,,,,,3,,,,,,,,high,1,0,1,0,1,,,,,,,,,
296539,2022-11-28_12h10.00.521,vts_reward_expectancy_bt,2022.2.4,MacIntel,59.99880002,Chrome,1440,900,,,,,1,983,,,,,,,,,,,,,,,,,U,125,triangle,1,0,,,,,,,,,,,,,,,,repeat,number,numRpt,j,0.4286,Hi,,,,,,3,,,,,,,,high,2,0,2,0,1,,,,,,,,,
296539,2022-11-28_12h10.00.521,vts_reward_expectancy_bt,2022.2.4,MacIntel,59.99880002,Chrome,1440,900,,,,,1,984,,,,,,,,,,,,,,,,,F,160,circle,1,0,,,,,,,,,,,,,,,,repeat,number,numRpt,k,0.5324,Lo,,,,,,3,,,,,,,,high,3,0,3,0,1,,,,,,,,,
296539,2022-11-28_12h10.00.521,vts_reward_expectancy_bt,2022.2.4,MacIntel,59.99880002,Chrome,1440,900,,,,,1,985,,,,,,,,,,,,,,,,,B,146,hexagon,1,0,,,,,,,,,,,,,,,,repeat,number,numRpt,j,0.6504,Lo,,,,,,3,,,,,,,,high,4,0,4,0,1,,,,,,,,,
296539,2022-11-28_12h10.00.521,vts_reward_expectancy_bt,2022.2.4,MacIntel,59.99880002,Chrome,1440,900,,,,,10,995,,,,,,,,,,,,,,,,,H,139,star,1,0,,,,,,,,,,,,,,,,repeat,number,numRpt,j,0.569,Hi,,,,,,3,,,,,,,,high,5,0,5,0,1,,,,,,,,,
296539,2022-11-28_12h10.00.521,vts_reward_expectancy_bt,2022.2.4,MacIntel,59.99880002,Chrome,1440,900,,,,,10,1005,,,,,,,,,,,,,,,,,D,181,triangle,1,0,,,,,,,,,,,,,,,,repeat,number,numRpt,k,0.4813,Hi,,,,,,3,,,,,,,,high,6,0,6,0,1,,,,,,,,,
296539,2022-11-28_12h10.00.521,vts_reward_expectancy_bt,2022.2.4,MacIntel,59.99880002,Chrome,1440,900,,,,,1,1006,,,,,,,,,,,,,,,,,W,167,circle,1,0,,,,,,,,,,,,,,,,repeat,number,numRpt,k,0.5789,Lo,,,,,,3,,,,,,,,high,7,0,7,0,1,,,,,,,,,
296539,2022-11-28_12h10.00.521,vts_reward_expectancy_bt,2022.2.4,MacIntel,59.99880002,Chrome,1440,900,,,,,10,1016,,,,,,,,,,,,,,,,,S,174,star,1,0,,,,,,,,,,,,,,,,repeat,number,numRpt,k,0.5296,Hi,,,,,,3,,,,,,,,high,8,0,8,0,1,,,,,,,,,
296539,2022-11-28_12h10.00.521,vts_reward_expectancy_bt,2022.2.4,MacIntel,59.99880002,Chrome,1440,900,,,,,1,1017,,,,,,,,,,,,,,,,,Y,132,hexagon,1,0,,,,,,,,,,,,,,,,repeat,number,numRpt,j,0.5449,Lo,,,,,,3,,,,,,,,high,9,0,9,0,1,,,,,,,,,
296539,2022-11-28_12h10.00.521,vts_reward_expectancy_bt,2022.2.4,MacIntel,59.99880002,Chrome,1440,900,,,,,1,1018,,,,,,,,,,,,,,,,,U,125,circle,1,0,,,,,,,,,,,,,,,,repeat,number,numRpt,j,1.0325,Lo,,,,,,3,,,,,,,,high,10,0,10,0,1,,,,,,,,,
296539,2022-11-28_12h10.00.521,vts_reward_expectancy_bt,2022.2.4,MacIntel,59.99880002,Chrome,1440,900,,,,,10,1028,,,,,,,,,,,,,,,,,F,160,triangle,1,0,,,,,,,,,,,,,,,,repeat,number,numRpt,k,0.519,Hi,,,,,,3,,,,,,,,high,11,0,11,0,1,,,,,,,,,
296539,2022-11-28_12h10.00.521,vts_reward_expectancy_bt,2022.2.4,MacIntel,59.99880002,Chrome,1440,900,,,,,1,1029,,,,,,,,,,,,,,,,,B,146,hexagon,1,0,,,,,,,,,,,,,,,,repeat,number,numRpt,j,0.58,Lo,,,,,,3,,,,,,,,high,12,0,12,0,1,,,,,,,,,
296539,2022-11-28_12h10.00.521,vts_reward_expectancy_bt,2022.2.4,MacIntel,59.99880002,Chrome,1440,900,,,,,0,1029,,,,,,,,,,,,,,,,,H,139,triangle,1,0,,,,,,,,,,,,,,,,repeat,number,numRpt,j,0.679,Hi,,,,,,3,,,,,,,,high,13,0,13,0,1,,,,,,,,,
296539,2022-11-28_12h10.00.521,vts_reward_expectancy_bt,2022.2.4,MacIntel,59.99880002,Chrome,1440,900,,,,,0,1029,,,,,,,,,,,,,,,,,D,181,star,1,0,,,,,,,,,,,,,,,,repeat,number,numRpt,k,0.5862,Hi,,,,,,3,,,,,,,,high,14,0,14,0,1,,,,,,,,,
296539,2022-11-28_12h10.00.521,vts_reward_expectancy_bt,2022.2.4,MacIntel,59.99880002,Chrome,1440,900,,,,,1,1030,,,,,,,,,,,,,,,,,W,167,circle,1,0,,,,,,,,,,,,,,,,repeat,number,numRpt,k,0.7479,Lo,,,,,,3,,,,,,,,high,15,0,15,0,1,,,,,,,,,
296539,2022-11-28_12h10.00.521,vts_reward_expectancy_bt,2022.2.4,MacIntel,59.99880002,Chrome,1440,900,,,,,10,1040,,,,,,,,,,,,,,,,,F,167,triangle,1,0,,,,,,,,,,,,,,,,repeat,number,numRpt,k,0.4991,Hi,,,,,,3,,,,,,,,high,16,0,16,0,1,,,,,,,,,
296539,2022-11-28_12h10.00.521,vts_reward_expectancy_bt,2022.2.4,MacIntel,59.99880002,Chrome,1440,900,,,,,10,1050,,,,,,,,,,,,,,,,,B,160,star,1,0,,,,,,,,,,,,,,,,repeat,number,numRpt,k,0.4627,Hi,,,,,,3,,,,,,,,high,17,0,17,0,1,,,,,,,,,
296539,2022-11-28_12h10.00.521,vts_reward_expectancy_bt,2022.2.4,MacIntel,59.99880002,Chrome,1440,900,,,,,1,1051,,,,,,,,,,,,,,,,,Y,181,circle,1,0,,,,,,,,,,,,,,,,repeat,number,numRpt,k,0.6806,Lo,,,,,,3,,,,,,,,high,18,0,18,0,1,,,,,,,,,
296539,2022-11-28_12h10.00.521,vts_reward_expectancy_bt,2022.2.4,MacIntel,59.99880002,Chrome,1440,900,,,,,1,1052,,,,,,,,,,,,,,,,,S,139,hexagon,1,0,,,,,,,,,,,,,,,,repeat,number,numRpt,j,0.5953,Lo,,,,,,3,,,,,,,,high,19,0,19,0,1,,,,,,,,,
296539,2022-11-28_12h10.00.521,vts_reward_expectancy_bt,2022.2.4,MacIntel,59.99880002,Chrome,1440,900,,,,,1,1053,,,,,,,,,,,,,,,,,U,146,hexagon,1,0,,,,,,,,,,,,,,,,repeat,number,numRpt,j,0.6189,Lo,,,,,,3,,,,,,,,high,20,0,20,0,1,,,,,,,,,
296539,2022-11-28_12h10.00.521,vts_reward_expectancy_bt,2022.2.4,MacIntel,59.99880002,Chrome,1440,900,,,,,1,1054,,,,,,,,,,,,,,,,,D,132,star,1,0,,,,,,,,,,,,,,,,repeat,number,numRpt,j,0.547,Hi,,,,,,3,,,,,,,,high,21,0,21,0,1,,,,,,,,,
296539,2022-11-28_12h10.00.521,vts_reward_expectancy_bt,2022.2.4,MacIntel,59.99880002,Chrome,1440,900,,,,,1,1055,,,,,,,,,,,,,,,,,H,174,circle,1,0,,,,,,,,,,,,,,,,repeat,number,numRpt,k,0.5964,Lo,,,,,,3,,,,,,,,high,22,0,22,0,1,,,,,,,,,
296539,2022-11-28_12h10.00.521,vts_reward_expectancy_bt,2022.2.4,MacIntel,59.99880002,Chrome,1440,900,,,,,10,1065,,,,,,,,,,,,,,,,,W,125,triangle,1,0,,,,,,,,,,,,,,,,repeat,number,numRpt,j,0.5809,Hi,,,,,,3,,,,,,,,high,23,0,23,0,1,,,,,,,,,
296539,2022-11-28_12h10.00.521,vts_reward_expectancy_bt,2022.2.4,MacIntel,59.99880002,Chrome,1440,900,,,,,1,1066,,,,,,,,,,,,,,,,,U,181,circle,1,0,,,,,,,,,,,,,,,,repeat,number,numRpt,k,0.5826,Lo,,,,,,3,,,,,,,,high,24,0,24,0,1,,,,,,,,,
296539,2022-11-28_12h10.00.521,vts_reward_expectancy_bt,2022.2.4,MacIntel,59.99880002,Chrome,1440,900,,,,,1,1067,,,,,,,,,,,,,,,,,F,160,hexagon,1,0,,,,,,,,,,,,,,,,repeat,number,numRpt,k,0.5149,Lo,,,,,,3,,,,,,,,high,25,0,25,0,1,,,,,,,,,
296539,2022-11-28_12h10.00.521,vts_reward_expectancy_bt,2022.2.4,MacIntel,59.99880002,Chrome,1440,900,,,,,10,1077,,,,,,,,,,,,,,,,,Y,125,triangle,1,0,,,,,,,,,,,,,,,,repeat,number,numRpt,j,0.5239,Hi,,,,,,3,,,,,,,,high,26,0,26,0,1,,,,,,,,,
296539,2022-11-28_12h10.00.521,vts_reward_expectancy_bt,2022.2.4,MacIntel,59.99880002,Chrome,1440,900,,,,,0,1077,,,,,,,,,,,,,,,,,H,146,star,1,0,,,,,,,,,,,,,,,,repeat,number,numRpt,j,0.7135,Hi,,,,,,3,,,,,,,,high,27,0,27,0,1,,,,,,,,,
296539,2022-11-28_12h10.00.521,vts_reward_expectancy_bt,2022.2.4,MacIntel,59.99880002,Chrome,1440,900,,,,,10,1087,,,,,,,,,,,,,,,,,B,174,circle,1,0,,,,,,,,,,,,,,,,repeat,number,numRpt,k,0.568,Lo,,,,,,3,,,,,,,,high,28,0,28,0,1,,,,,,,,,
296539,2022-11-28_12h10.00.521,vts_reward_expectancy_bt,2022.2.4,MacIntel,59.99880002,Chrome,1440,900,,,,,10,1097,,,,,,,,,,,,,,,,,D,139,triangle,1,0,,,,,,,,,,,,,,,,repeat,number,numRpt,j,0.5143,Hi,,,,,,3,,,,,,,,high,29,0,29,0,1,,,,,,,,,
296539,2022-11-28_12h10.00.521,vts_reward_expectancy_bt,2022.2.4,MacIntel,59.99880002,Chrome,1440,900,,,,,1,1098,,,,,,,,,,,,,,,,,W,167,hexagon,1,0,,,,,,,,,,,,,,,,repeat,number,numRpt,k,0.6319,Lo,,,,,,3,,,,,,,,high,30,0,30,0,1,,,,,,,,,
296539,2022-11-28_12h10.00.521,vts_reward_expectancy_bt,2022.2.4,MacIntel,59.99880002,Chrome,1440,900,,,,,0,1098,,,,,,,,,,,,,,,,,S,132,star,1,0,,,,,,,,,,,,,,,,repeat,number,numRpt,j,0.629,Hi,,,,,,3,,,,,,,,high,31,0,31,0,1,,,,,,,,,
296539,2022-11-28_12h10.00.521,vts_reward_expectancy_bt,2022.2.4,MacIntel,59.99880002,Chrome,1440,900,,,,,10,1108,,,,,,,,,,,,,,,,,Y,167,hexagon,1,0,,,,,,,,,,,,,,,,repeat,number,numRpt,k,0.8177,Lo,,,,,,4,,,,,,space,1.0913,high,0,0,0,0,1,,,,,,,,,
296539,2022-11-28_12h10.00.521,vts_reward_expectancy_bt,2022.2.4,MacIntel,59.99880002,Chrome,1440,900,,,,,0,1108,,,,,,,,,,,,,,,,,D,139,triangle,1,0,,,,,,,,,,,,,,,,repeat,number,numRpt,j,0.8701,Hi,,,,,,4,,,,,,,,high,1,0,1,0,1,,,,,,,,,
