participant,date,expName,psychopyVersion,OS,frameRate,browser,xResolution,yResolution,key_resp.keys,key_resp.rt,training_resp.keys,training_resp.rt,points_trial,points_cumul,trainBlock,training.thisRepN,training.thisTrialN,training.thisN,training.thisIndex,training.ran,LTriangleOpac,LCircleOpac,LHexagonOpac,LStarOpac,RTriangleOpac,RCircleOpac,RHexagonOpac,RStarOpac,LShape_ID,RShape_ID,curr_topStim,curr_bottStim,curr_shape,acc,E1,target_resp_prac1.keys,target_resp_prac1.rt,pracBlock,task1_prac_trials.thisRepN,task1_prac_trials.thisTrialN,task1_prac_trials.thisN,task1_prac_trials.thisIndex,task1_prac_trials.ran,target_resp_prac2.keys,target_resp_prac2.rt,task2_praac_trials.thisRepN,task2_praac_trials.thisTrialN,task2_praac_trials.thisN,task2_praac_trials.thisIndex,task2_praac_trials.ran,alt,task,condition,target_resp.keys,rewCond,vts_practice_trials.thisRepN,vts_practice_trials.thisTrialN,vts_practice_trials.thisN,vts_practice_trials.thisIndex,vts_practice_trials.ran,target_resp.rt,blockNum,trials_norew.thisRepN,trials_norew.thisTrialN,trials_norew.thisN,trials_norew.thisIndex,trials_norew.ran,key_resp_2.keys,key_resp_2.rt,rewExpectancy,trials_rew.thisRepN,trials_rew.thisTrialN,trials_rew.thisN,trials_rew.thisIndex,trials_rew.ran,Q1,Q2,Q2_text,Q3,Q4,Q5_text,Q5,xRes,yRes
296521,2022-11-27_20h49.14.673,vts_reward_expectancy_bt,2022.2.4,MacIntel,60.0024001,Chrome,1440,900,,,,,,,,,,,,,,,,,,,,,,,,,,,,,,,,,,,,,,,,,,,,,,,,,,,,,,,,,,,,,,,,,,,,,,,,,,,,
296521,2022-11-27_20h49.14.673,vts_reward_expectancy_bt,2022.2.4,MacIntel,60.0024001,Chrome,1440,900,space,52.0575,,,,,,,,,,,,,,,,,,,,,,,,,,,,,,,,,,,,,,,,,,,,,,,,,,,,,,,,,,,,,,,,,,,,,,,,,,
296521,2022-11-27_20h49.14.673,vts_reward_expectancy_bt,2022.2.4,MacIntel,60.0024001,Chrome,1440,900,,,,,,,,,,,,,,,,,,,,,,,,,,,,,,,,,,,,,,,,,,,,,,,,,,,,,,,,,,,,,,,,,,,,,,,,,,,,
296521,2022-11-27_20h49.14.673,vts_reward_expectancy_bt,2022.2.4,MacIntel,60.0024001,Chrome,1440,900,,,l,2.6515,10,10,0,0,0,0,1,1,1,0,0,0,0,0,1,0,triangle,hexagon,,,,,,,,,,,,,,,,,,,,,,,,,,,,,,,,,,,,,,,,,,,,,,,,,,,,,,
296521,2022-11-27_20h49.14.673,vts_reward_expectancy_bt,2022.2.4,MacIntel,60.0024001,Chrome,1440,900,,,a,1.0667,10,20,0,0,1,1,7,1,0,0,1,0,0,1,0,0,hexagon,circle,,,,,,,,,,,,,,,,,,,,,,,,,,,,,,,,,,,,,,,,,,,,,,,,,,,,,,
296521,2022-11-27_20h49.14.673,vts_reward_expectancy_bt,2022.2.4,MacIntel,60.0024001,Chrome,1440,900,,,a,0.7481,10,30,0,0,2,2,10,1,0,0,0,1,0,1,0,0,star ,circle,,,,,,,,,,,,,,,,,,,,,,,,,,,,,,,,,,,,,,,,,,,,,,,,,,,,,,
296521,2022-11-27_20h49.14.673,vts_reward_expectancy_bt,2022.2.4,MacIntel,60.0024001,Chrome,1440,900,,,l,0.5224,10,40,0,0,3,3,5,1,0,1,0,0,0,0,0,1,circle,star,,,,,,,,,,,,,,,,,,,,,,,,,,,,,,,,,,,,,,,,,,,,,,,,,,,,,,
296521,2022-11-27_20h49.14.673,vts_reward_expectancy_bt,2022.2.4,MacIntel,60.0024001,Chrome,1440,900,,,l,0.6111,10,50,0,0,4,4,2,1,1,0,0,0,0,0,0,1,triangle,star,,,,,,,,,,,,,,,,,,,,,,,,,,,,,,,,,,,,,,,,,,,,,,,,,,,,,,
296521,2022-11-27_20h49.14.673,vts_reward_expectancy_bt,2022.2.4,MacIntel,60.0024001,Chrome,1440,900,,,a,1.1241,1,51,0,0,5,5,0,1,1,0,0,0,0,1,0,0,triangle,circle,,,,,,,,,,,,,,,,,,,,,,,,,,,,,,,,,,,,,,,,,,,,,,,,,,,,,,
296521,2022-11-27_20h49.14.673,vts_reward_expectancy_bt,2022.2.4,MacIntel,60.0024001,Chrome,1440,900,,,a,0.8904,10,61,0,0,6,6,11,1,0,0,0,1,0,0,1,0,star,hexagon,,,,,,,,,,,,,,,,,,,,,,,,,,,,,,,,,,,,,,,,,,,,,,,,,,,,,,
296521,2022-11-27_20h49.14.673,vts_reward_expectancy_bt,2022.2.4,MacIntel,60.0024001,Chrome,1440,900,,,l,2.2418,1,62,0,0,7,7,4,1,0,1,0,0,0,0,1,0,circle,hexagon,,,,,,,,,,,,,,,,,,,,,,,,,,,,,,,,,,,,,,,,,,,,,,,,,,,,,,
296521,2022-11-27_20h49.14.673,vts_reward_expectancy_bt,2022.2.4,MacIntel,60.0024001,Chrome,1440,900,,,a,0.6605,1,63,0,0,8,8,9,1,0,0,0,1,1,0,0,0,star,triangle,,,,,,,,,,,,,,,,,,,,,,,,,,,,,,,,,,,,,,,,,,,,,,,,,,,,,,
296521,2022-11-27_20h49.14.673,vts_reward_expectancy_bt,2022.2.4,MacIntel,60.0024001,Chrome,1440,900,,,a,1.0586,1,64,0,0,9,9,3,1,0,1,0,0,1,0,0,0,circle,triangle,,,,,,,,,,,,,,,,,,,,,,,,,,,,,,,,,,,,,,,,,,,,,,,,,,,,,,
296521,2022-11-27_20h49.14.673,vts_reward_expectancy_bt,2022.2.4,MacIntel,60.0024001,Chrome,1440,900,,,l,1.1653,10,74,0,0,10,10,6,1,0,0,1,0,1,0,0,0,hexagon,triangle,,,,,,,,,,,,,,,,,,,,,,,,,,,,,,,,,,,,,,,,,,,,,,,,,,,,,,
296521,2022-11-27_20h49.14.673,vts_reward_expectancy_bt,2022.2.4,MacIntel,60.0024001,Chrome,1440,900,,,a,0.9924,10,84,0,0,11,11,8,1,0,0,1,0,0,0,0,1,hexagon,star,,,,,,,,,,,,,,,,,,,,,,,,,,,,,,,,,,,,,,,,,,,,,,,,,,,,,,
296521,2022-11-27_20h49.14.673,vts_reward_expectancy_bt,2022.2.4,MacIntel,60.0024001,Chrome,1440,900,,,a,1.6557,1,85,0,1,0,12,4,1,0,1,0,0,0,0,1,0,circle,hexagon,,,,,,,,,,,,,,,,,,,,,,,,,,,,,,,,,,,,,,,,,,,,,,,,,,,,,,
296521,2022-11-27_20h49.14.673,vts_reward_expectancy_bt,2022.2.4,MacIntel,60.0024001,Chrome,1440,900,,,a,0.6607,1,86,0,1,1,13,10,1,0,0,0,1,0,1,0,0,star ,circle,,,,,,,,,,,,,,,,,,,,,,,,,,,,,,,,,,,,,,,,,,,,,,,,,,,,,,
296521,2022-11-27_20h49.14.673,vts_reward_expectancy_bt,2022.2.4,MacIntel,60.0024001,Chrome,1440,900,,,l,0.7619,10,96,0,1,2,14,5,1,0,1,0,0,0,0,0,1,circle,star,,,,,,,,,,,,,,,,,,,,,,,,,,,,,,,,,,,,,,,,,,,,,,,,,,,,,,
296521,2022-11-27_20h49.14.673,vts_reward_expectancy_bt,2022.2.4,MacIntel,60.0024001,Chrome,1440,900,,,a,0.3695,1,97,0,1,3,15,3,1,0,1,0,0,1,0,0,0,circle,triangle,,,,,,,,,,,,,,,,,,,,,,,,,,,,,,,,,,,,,,,,,,,,,,,,,,,,,,
296521,2022-11-27_20h49.14.673,vts_reward_expectancy_bt,2022.2.4,MacIntel,60.0024001,Chrome,1440,900,,,l,0.4836,10,107,0,1,4,16,1,1,1,0,0,0,0,0,1,0,triangle,hexagon,,,,,,,,,,,,,,,,,,,,,,,,,,,,,,,,,,,,,,,,,,,,,,,,,,,,,,
296521,2022-11-27_20h49.14.673,vts_reward_expectancy_bt,2022.2.4,MacIntel,60.0024001,Chrome,1440,900,,,l,0.5742,10,117,0,1,5,17,2,1,1,0,0,0,0,0,0,1,triangle,star,,,,,,,,,,,,,,,,,,,,,,,,,,,,,,,,,,,,,,,,,,,,,,,,,,,,,,
296521,2022-11-27_20h49.14.673,vts_reward_expectancy_bt,2022.2.4,MacIntel,60.0024001,Chrome,1440,900,,,l,1.169,10,127,0,1,6,18,11,1,0,0,0,1,0,0,1,0,star,hexagon,,,,,,,,,,,,,,,,,,,,,,,,,,,,,,,,,,,,,,,,,,,,,,,,,,,,,,
296521,2022-11-27_20h49.14.673,vts_reward_expectancy_bt,2022.2.4,MacIntel,60.0024001,Chrome,1440,900,,,l,0.987,1,128,0,1,7,19,9,1,0,0,0,1,1,0,0,0,star,triangle,,,,,,,,,,,,,,,,,,,,,,,,,,,,,,,,,,,,,,,,,,,,,,,,,,,,,,
296521,2022-11-27_20h49.14.673,vts_reward_expectancy_bt,2022.2.4,MacIntel,60.0024001,Chrome,1440,900,,,a,0.6838,10,138,0,1,8,20,6,1,0,0,1,0,1,0,0,0,hexagon,triangle,,,,,,,,,,,,,,,,,,,,,,,,,,,,,,,,,,,,,,,,,,,,,,,,,,,,,,
296521,2022-11-27_20h49.14.673,vts_reward_expectancy_bt,2022.2.4,MacIntel,60.0024001,Chrome,1440,900,,,l,0.9478,10,148,0,1,9,21,0,1,1,0,0,0,0,1,0,0,triangle,circle,,,,,,,,,,,,,,,,,,,,,,,,,,,,,,,,,,,,,,,,,,,,,,,,,,,,,,
296521,2022-11-27_20h49.14.673,vts_reward_expectancy_bt,2022.2.4,MacIntel,60.0024001,Chrome,1440,900,,,a,1.2768,10,158,0,1,10,22,7,1,0,0,1,0,0,1,0,0,hexagon,circle,,,,,,,,,,,,,,,,,,,,,,,,,,,,,,,,,,,,,,,,,,,,,,,,,,,,,,
296521,2022-11-27_20h49.14.673,vts_reward_expectancy_bt,2022.2.4,MacIntel,60.0024001,Chrome,1440,900,,,a,1.2507,1,159,0,1,11,23,8,1,0,0,1,0,0,0,0,1,hexagon,star,,,,,,,,,,,,,,,,,,,,,,,,,,,,,,,,,,,,,,,,,,,,,,,,,,,,,,
296521,2022-11-27_20h49.14.673,vts_reward_expectancy_bt,2022.2.4,MacIntel,60.0024001,Chrome,1440,900,,,l,1.3453,1,160,0,2,0,24,6,1,0,0,1,0,1,0,0,0,hexagon,triangle,,,,,,,,,,,,,,,,,,,,,,,,,,,,,,,,,,,,,,,,,,,,,,,,,,,,,,
296521,2022-11-27_20h49.14.673,vts_reward_expectancy_bt,2022.2.4,MacIntel,60.0024001,Chrome,1440,900,,,l,1.1784,1,161,0,2,1,25,9,1,0,0,0,1,1,0,0,0,star,triangle,,,,,,,,,,,,,,,,,,,,,,,,,,,,,,,,,,,,,,,,,,,,,,,,,,,,,,
296521,2022-11-27_20h49.14.673,vts_reward_expectancy_bt,2022.2.4,MacIntel,60.0024001,Chrome,1440,900,,,l,0.7057,10,171,0,2,2,26,5,1,0,1,0,0,0,0,0,1,circle,star,,,,,,,,,,,,,,,,,,,,,,,,,,,,,,,,,,,,,,,,,,,,,,,,,,,,,,
296521,2022-11-27_20h49.14.673,vts_reward_expectancy_bt,2022.2.4,MacIntel,60.0024001,Chrome,1440,900,,,l,0.3132,10,181,0,2,3,27,11,1,0,0,0,1,0,0,1,0,star,hexagon,,,,,,,,,,,,,,,,,,,,,,,,,,,,,,,,,,,,,,,,,,,,,,,,,,,,,,
296521,2022-11-27_20h49.14.673,vts_reward_expectancy_bt,2022.2.4,MacIntel,60.0024001,Chrome,1440,900,,,a,1.5228,10,191,0,2,4,28,8,1,0,0,1,0,0,0,0,1,hexagon,star,,,,,,,,,,,,,,,,,,,,,,,,,,,,,,,,,,,,,,,,,,,,,,,,,,,,,,
296521,2022-11-27_20h49.14.673,vts_reward_expectancy_bt,2022.2.4,MacIntel,60.0024001,Chrome,1440,900,,,l,1.0034,1,192,0,2,5,29,10,1,0,0,0,1,0,1,0,0,star ,circle,,,,,,,,,,,,,,,,,,,,,,,,,,,,,,,,,,,,,,,,,,,,,,,,,,,,,,
296521,2022-11-27_20h49.14.673,vts_reward_expectancy_bt,2022.2.4,MacIntel,60.0024001,Chrome,1440,900,,,l,0.6173,10,202,0,2,6,30,4,1,0,1,0,0,0,0,1,0,circle,hexagon,,,,,,,,,,,,,,,,,,,,,,,,,,,,,,,,,,,,,,,,,,,,,,,,,,,,,,
296521,2022-11-27_20h49.14.673,vts_reward_expectancy_bt,2022.2.4,MacIntel,60.0024001,Chrome,1440,900,,,l,0.4174,10,212,0,2,7,31,1,1,1,0,0,0,0,0,1,0,triangle,hexagon,,,,,,,,,,,,,,,,,,,,,,,,,,,,,,,,,,,,,,,,,,,,,,,,,,,,,,
296521,2022-11-27_20h49.14.673,vts_reward_expectancy_bt,2022.2.4,MacIntel,60.0024001,Chrome,1440,900,,,l,0.8716,10,222,0,2,8,32,3,1,0,1,0,0,1,0,0,0,circle,triangle,,,,,,,,,,,,,,,,,,,,,,,,,,,,,,,,,,,,,,,,,,,,,,,,,,,,,,
296521,2022-11-27_20h49.14.673,vts_reward_expectancy_bt,2022.2.4,MacIntel,60.0024001,Chrome,1440,900,,,a,1.2576,10,232,0,2,9,33,7,1,0,0,1,0,0,1,0,0,hexagon,circle,,,,,,,,,,,,,,,,,,,,,,,,,,,,,,,,,,,,,,,,,,,,,,,,,,,,,,
296521,2022-11-27_20h49.14.673,vts_reward_expectancy_bt,2022.2.4,MacIntel,60.0024001,Chrome,1440,900,,,a,1.157,1,233,0,2,10,34,2,1,1,0,0,0,0,0,0,1,triangle,star,,,,,,,,,,,,,,,,,,,,,,,,,,,,,,,,,,,,,,,,,,,,,,,,,,,,,,
296521,2022-11-27_20h49.14.673,vts_reward_expectancy_bt,2022.2.4,MacIntel,60.0024001,Chrome,1440,900,,,l,0.6078,10,243,0,2,11,35,0,1,1,0,0,0,0,1,0,0,triangle,circle,,,,,,,,,,,,,,,,,,,,,,,,,,,,,,,,,,,,,,,,,,,,,,,,,,,,,,
296521,2022-11-27_20h49.14.673,vts_reward_expectancy_bt,2022.2.4,MacIntel,60.0024001,Chrome,1440,900,,,l,1.047,1,244,1,0,0,0,10,1,0,0,0,1,0,1,0,0,star ,circle,,,,,,,,,,,,,,,,,,,,,,,,,,,,,,,,,,,,,,,,,,,,,,,,,,,,,,
296521,2022-11-27_20h49.14.673,vts_reward_expectancy_bt,2022.2.4,MacIntel,60.0024001,Chrome,1440,900,,,l,0.429,1,245,1,0,1,1,4,1,0,1,0,0,0,0,1,0,circle,hexagon,,,,,,,,,,,,,,,,,,,,,,,,,,,,,,,,,,,,,,,,,,,,,,,,,,,,,,
296521,2022-11-27_20h49.14.673,vts_reward_expectancy_bt,2022.2.4,MacIntel,60.0024001,Chrome,1440,900,,,l,0.2957,10,255,1,0,2,2,2,1,1,0,0,0,0,0,0,1,triangle,star,,,,,,,,,,,,,,,,,,,,,,,,,,,,,,,,,,,,,,,,,,,,,,,,,,,,,,
296521,2022-11-27_20h49.14.673,vts_reward_expectancy_bt,2022.2.4,MacIntel,60.0024001,Chrome,1440,900,,,a,0.66,10,265,1,0,3,3,6,1,0,0,1,0,1,0,0,0,hexagon,triangle,,,,,,,,,,,,,,,,,,,,,,,,,,,,,,,,,,,,,,,,,,,,,,,,,,,,,,
296521,2022-11-27_20h49.14.673,vts_reward_expectancy_bt,2022.2.4,MacIntel,60.0024001,Chrome,1440,900,,,l,0.4279,10,275,1,0,4,4,5,1,0,1,0,0,0,0,0,1,circle,star,,,,,,,,,,,,,,,,,,,,,,,,,,,,,,,,,,,,,,,,,,,,,,,,,,,,,,
296521,2022-11-27_20h49.14.673,vts_reward_expectancy_bt,2022.2.4,MacIntel,60.0024001,Chrome,1440,900,,,a,0.4203,1,276,1,0,5,5,9,1,0,0,0,1,1,0,0,0,star,triangle,,,,,,,,,,,,,,,,,,,,,,,,,,,,,,,,,,,,,,,,,,,,,,,,,,,,,,
296521,2022-11-27_20h49.14.673,vts_reward_expectancy_bt,2022.2.4,MacIntel,60.0024001,Chrome,1440,900,,,l,0.646,1,277,1,0,6,6,0,1,1,0,0,0,0,1,0,0,triangle,circle,,,,,,,,,,,,,,,,,,,,,,,,,,,,,,,,,,,,,,,,,,,,,,,,,,,,,,
296521,2022-11-27_20h49.14.673,vts_reward_expectancy_bt,2022.2.4,MacIntel,60.0024001,Chrome,1440,900,,,l,0.2976,10,287,1,0,7,7,11,1,0,0,0,1,0,0,1,0,star,hexagon,,,,,,,,,,,,,,,,,,,,,,,,,,,,,,,,,,,,,,,,,,,,,,,,,,,,,,
296521,2022-11-27_20h49.14.673,vts_reward_expectancy_bt,2022.2.4,MacIntel,60.0024001,Chrome,1440,900,,,l,0.369,10,297,1,0,8,8,8,1,0,0,1,0,0,0,0,1,hexagon,star,,,,,,,,,,,,,,,,,,,,,,,,,,,,,,,,,,,,,,,,,,,,,,,,,,,,,,
296521,2022-11-27_20h49.14.673,vts_reward_expectancy_bt,2022.2.4,MacIntel,60.0024001,Chrome,1440,900,,,l,0.2886,10,307,1,0,9,9,1,1,1,0,0,0,0,0,1,0,triangle,hexagon,,,,,,,,,,,,,,,,,,,,,,,,,,,,,,,,,,,,,,,,,,,,,,,,,,,,,,
296521,2022-11-27_20h49.14.673,vts_reward_expectancy_bt,2022.2.4,MacIntel,60.0024001,Chrome,1440,900,,,l,0.4512,1,308,1,0,10,10,3,1,0,1,0,0,1,0,0,0,circle,triangle,,,,,,,,,,,,,,,,,,,,,,,,,,,,,,,,,,,,,,,,,,,,,,,,,,,,,,
296521,2022-11-27_20h49.14.673,vts_reward_expectancy_bt,2022.2.4,MacIntel,60.0024001,Chrome,1440,900,,,l,0.3573,10,318,1,0,11,11,7,1,0,0,1,0,0,1,0,0,hexagon,circle,,,,,,,,,,,,,,,,,,,,,,,,,,,,,,,,,,,,,,,,,,,,,,,,,,,,,,
296521,2022-11-27_20h49.14.673,vts_reward_expectancy_bt,2022.2.4,MacIntel,60.0024001,Chrome,1440,900,,,l,0.3409,1,319,1,1,0,12,11,1,0,0,0,1,0,0,1,0,star,hexagon,,,,,,,,,,,,,,,,,,,,,,,,,,,,,,,,,,,,,,,,,,,,,,,,,,,,,,
296521,2022-11-27_20h49.14.673,vts_reward_expectancy_bt,2022.2.4,MacIntel,60.0024001,Chrome,1440,900,,,l,0.343,10,329,1,1,1,13,2,1,1,0,0,0,0,0,0,1,triangle,star,,,,,,,,,,,,,,,,,,,,,,,,,,,,,,,,,,,,,,,,,,,,,,,,,,,,,,
296521,2022-11-27_20h49.14.673,vts_reward_expectancy_bt,2022.2.4,MacIntel,60.0024001,Chrome,1440,900,,,l,0.3941,10,339,1,1,2,14,7,1,0,0,1,0,0,1,0,0,hexagon,circle,,,,,,,,,,,,,,,,,,,,,,,,,,,,,,,,,,,,,,,,,,,,,,,,,,,,,,
296521,2022-11-27_20h49.14.673,vts_reward_expectancy_bt,2022.2.4,MacIntel,60.0024001,Chrome,1440,900,,,l,0.3761,1,340,1,1,3,15,0,1,1,0,0,0,0,1,0,0,triangle,circle,,,,,,,,,,,,,,,,,,,,,,,,,,,,,,,,,,,,,,,,,,,,,,,,,,,,,,
296521,2022-11-27_20h49.14.673,vts_reward_expectancy_bt,2022.2.4,MacIntel,60.0024001,Chrome,1440,900,,,l,0.3841,1,341,1,1,4,16,6,1,0,0,1,0,1,0,0,0,hexagon,triangle,,,,,,,,,,,,,,,,,,,,,,,,,,,,,,,,,,,,,,,,,,,,,,,,,,,,,,
296521,2022-11-27_20h49.14.673,vts_reward_expectancy_bt,2022.2.4,MacIntel,60.0024001,Chrome,1440,900,,,l,0.0005,10,351,1,1,5,17,4,1,0,1,0,0,0,0,1,0,circle,hexagon,,,,,,,,,,,,,,,,,,,,,,,,,,,,,,,,,,,,,,,,,,,,,,,,,,,,,,
296521,2022-11-27_20h49.14.673,vts_reward_expectancy_bt,2022.2.4,MacIntel,60.0024001,Chrome,1440,900,,,l,0.399,1,352,1,1,6,18,1,1,1,0,0,0,0,0,1,0,triangle,hexagon,,,,,,,,,,,,,,,,,,,,,,,,,,,,,,,,,,,,,,,,,,,,,,,,,,,,,,
296521,2022-11-27_20h49.14.673,vts_reward_expectancy_bt,2022.2.4,MacIntel,60.0024001,Chrome,1440,900,,,l,0.4008,1,353,1,1,7,19,9,1,0,0,0,1,1,0,0,0,star,triangle,,,,,,,,,,,,,,,,,,,,,,,,,,,,,,,,,,,,,,,,,,,,,,,,,,,,,,
296521,2022-11-27_20h49.14.673,vts_reward_expectancy_bt,2022.2.4,MacIntel,60.0024001,Chrome,1440,900,,,l,0.3399,10,363,1,1,8,20,5,1,0,1,0,0,0,0,0,1,circle,star,,,,,,,,,,,,,,,,,,,,,,,,,,,,,,,,,,,,,,,,,,,,,,,,,,,,,,
296521,2022-11-27_20h49.14.673,vts_reward_expectancy_bt,2022.2.4,MacIntel,60.0024001,Chrome,1440,900,,,l,0.7135,1,364,1,1,9,21,10,1,0,0,0,1,0,1,0,0,star ,circle,,,,,,,,,,,,,,,,,,,,,,,,,,,,,,,,,,,,,,,,,,,,,,,,,,,,,,
296521,2022-11-27_20h49.14.673,vts_reward_expectancy_bt,2022.2.4,MacIntel,60.0024001,Chrome,1440,900,,,l,0.189,10,374,1,1,10,22,3,1,0,1,0,0,1,0,0,0,circle,triangle,,,,,,,,,,,,,,,,,,,,,,,,,,,,,,,,,,,,,,,,,,,,,,,,,,,,,,
296521,2022-11-27_20h49.14.673,vts_reward_expectancy_bt,2022.2.4,MacIntel,60.0024001,Chrome,1440,900,,,l,0.1068,1,375,1,1,11,23,8,1,0,0,1,0,0,0,0,1,hexagon,star,,,,,,,,,,,,,,,,,,,,,,,,,,,,,,,,,,,,,,,,,,,,,,,,,,,,,,
296521,2022-11-27_20h49.14.673,vts_reward_expectancy_bt,2022.2.4,MacIntel,60.0024001,Chrome,1440,900,,,l,1.1496,1,376,1,2,0,24,0,1,1,0,0,0,0,1,0,0,triangle,circle,,,,,,,,,,,,,,,,,,,,,,,,,,,,,,,,,,,,,,,,,,,,,,,,,,,,,,
296521,2022-11-27_20h49.14.673,vts_reward_expectancy_bt,2022.2.4,MacIntel,60.0024001,Chrome,1440,900,,,l,0.9012,10,386,1,2,1,25,4,1,0,1,0,0,0,0,1,0,circle,hexagon,,,,,,,,,,,,,,,,,,,,,,,,,,,,,,,,,,,,,,,,,,,,,,,,,,,,,,
296521,2022-11-27_20h49.14.673,vts_reward_expectancy_bt,2022.2.4,MacIntel,60.0024001,Chrome,1440,900,,,l,0.7706,1,387,1,2,2,26,7,1,0,0,1,0,0,1,0,0,hexagon,circle,,,,,,,,,,,,,,,,,,,,,,,,,,,,,,,,,,,,,,,,,,,,,,,,,,,,,,
296521,2022-11-27_20h49.14.673,vts_reward_expectancy_bt,2022.2.4,MacIntel,60.0024001,Chrome,1440,900,,,l,1.2188,10,397,1,2,3,27,8,1,0,0,1,0,0,0,0,1,hexagon,star,,,,,,,,,,,,,,,,,,,,,,,,,,,,,,,,,,,,,,,,,,,,,,,,,,,,,,
296521,2022-11-27_20h49.14.673,vts_reward_expectancy_bt,2022.2.4,MacIntel,60.0024001,Chrome,1440,900,,,l,0.6241,1,398,1,2,4,28,9,1,0,0,0,1,1,0,0,0,star,triangle,,,,,,,,,,,,,,,,,,,,,,,,,,,,,,,,,,,,,,,,,,,,,,,,,,,,,,
296521,2022-11-27_20h49.14.673,vts_reward_expectancy_bt,2022.2.4,MacIntel,60.0024001,Chrome,1440,900,,,l,0.3412,10,408,1,2,5,29,10,1,0,0,0,1,0,1,0,0,star ,circle,,,,,,,,,,,,,,,,,,,,,,,,,,,,,,,,,,,,,,,,,,,,,,,,,,,,,,
296521,2022-11-27_20h49.14.673,vts_reward_expectancy_bt,2022.2.4,MacIntel,60.0024001,Chrome,1440,900,,,a,1.1762,1,409,1,2,6,30,5,1,0,1,0,0,0,0,0,1,circle,star,,,,,,,,,,,,,,,,,,,,,,,,,,,,,,,,,,,,,,,,,,,,,,,,,,,,,,
296521,2022-11-27_20h49.14.673,vts_reward_expectancy_bt,2022.2.4,MacIntel,60.0024001,Chrome,1440,900,,,a,0.35,1,410,1,2,7,31,1,1,1,0,0,0,0,0,1,0,triangle,hexagon,,,,,,,,,,,,,,,,,,,,,,,,,,,,,,,,,,,,,,,,,,,,,,,,,,,,,,
296521,2022-11-27_20h49.14.673,vts_reward_expectancy_bt,2022.2.4,MacIntel,60.0024001,Chrome,1440,900,,,a,0.3005,1,411,1,2,8,32,2,1,1,0,0,0,0,0,0,1,triangle,star,,,,,,,,,,,,,,,,,,,,,,,,,,,,,,,,,,,,,,,,,,,,,,,,,,,,,,
296521,2022-11-27_20h49.14.673,vts_reward_expectancy_bt,2022.2.4,MacIntel,60.0024001,Chrome,1440,900,,,l,0.3812,10,421,1,2,9,33,11,1,0,0,0,1,0,0,1,0,star,hexagon,,,,,,,,,,,,,,,,,,,,,,,,,,,,,,,,,,,,,,,,,,,,,,,,,,,,,,
296521,2022-11-27_20h49.14.673,vts_reward_expectancy_bt,2022.2.4,MacIntel,60.0024001,Chrome,1440,900,,,l,0.2999,1,422,1,2,10,34,6,1,0,0,1,0,1,0,0,0,hexagon,triangle,,,,,,,,,,,,,,,,,,,,,,,,,,,,,,,,,,,,,,,,,,,,,,,,,,,,,,
296521,2022-11-27_20h49.14.673,vts_reward_expectancy_bt,2022.2.4,MacIntel,60.0024001,Chrome,1440,900,,,l,0.8934,1,423,1,2,11,35,3,1,0,1,0,0,1,0,0,0,circle,triangle,,,,,,,,,,,,,,,,,,,,,,,,,,,,,,,,,,,,,,,,,,,,,,,,,,,,,,
296521,2022-11-27_20h49.14.673,vts_reward_expectancy_bt,2022.2.4,MacIntel,60.0024001,Chrome,1440,900,,,l,1.4405,1,424,2,0,0,0,5,1,0,1,0,0,0,0,0,1,circle,star,,,,,,,,,,,,,,,,,,,,,,,,,,,,,,,,,,,,,,,,,,,,,,,,,,,,,,
296521,2022-11-27_20h49.14.673,vts_reward_expectancy_bt,2022.2.4,MacIntel,60.0024001,Chrome,1440,900,,,l,0.3021,1,425,2,0,1,1,3,1,0,1,0,0,1,0,0,0,circle,triangle,,,,,,,,,,,,,,,,,,,,,,,,,,,,,,,,,,,,,,,,,,,,,,,,,,,,,,
296521,2022-11-27_20h49.14.673,vts_reward_expectancy_bt,2022.2.4,MacIntel,60.0024001,Chrome,1440,900,,,a,0.4562,10,435,2,0,2,2,8,1,0,0,1,0,0,0,0,1,hexagon,star,,,,,,,,,,,,,,,,,,,,,,,,,,,,,,,,,,,,,,,,,,,,,,,,,,,,,,
296521,2022-11-27_20h49.14.673,vts_reward_expectancy_bt,2022.2.4,MacIntel,60.0024001,Chrome,1440,900,,,a,0.3578,1,436,2,0,3,3,1,1,1,0,0,0,0,0,1,0,triangle,hexagon,,,,,,,,,,,,,,,,,,,,,,,,,,,,,,,,,,,,,,,,,,,,,,,,,,,,,,
296521,2022-11-27_20h49.14.673,vts_reward_expectancy_bt,2022.2.4,MacIntel,60.0024001,Chrome,1440,900,,,a,0.5019,10,446,2,0,4,4,9,1,0,0,0,1,1,0,0,0,star,triangle,,,,,,,,,,,,,,,,,,,,,,,,,,,,,,,,,,,,,,,,,,,,,,,,,,,,,,
296521,2022-11-27_20h49.14.673,vts_reward_expectancy_bt,2022.2.4,MacIntel,60.0024001,Chrome,1440,900,,,l,0.9997,1,447,2,0,5,5,6,1,0,0,1,0,1,0,0,0,hexagon,triangle,,,,,,,,,,,,,,,,,,,,,,,,,,,,,,,,,,,,,,,,,,,,,,,,,,,,,,
296521,2022-11-27_20h49.14.673,vts_reward_expectancy_bt,2022.2.4,MacIntel,60.0024001,Chrome,1440,900,,,l,0.6217,10,457,2,0,6,6,4,1,0,1,0,0,0,0,1,0,circle,hexagon,,,,,,,,,,,,,,,,,,,,,,,,,,,,,,,,,,,,,,,,,,,,,,,,,,,,,,
296521,2022-11-27_20h49.14.673,vts_reward_expectancy_bt,2022.2.4,MacIntel,60.0024001,Chrome,1440,900,,,l,0.4392,10,467,2,0,7,7,11,1,0,0,0,1,0,0,1,0,star,hexagon,,,,,,,,,,,,,,,,,,,,,,,,,,,,,,,,,,,,,,,,,,,,,,,,,,,,,,
296521,2022-11-27_20h49.14.673,vts_reward_expectancy_bt,2022.2.4,MacIntel,60.0024001,Chrome,1440,900,,,a,1.0009,1,468,2,0,8,8,0,1,1,0,0,0,0,1,0,0,triangle,circle,,,,,,,,,,,,,,,,,,,,,,,,,,,,,,,,,,,,,,,,,,,,,,,,,,,,,,
296521,2022-11-27_20h49.14.673,vts_reward_expectancy_bt,2022.2.4,MacIntel,60.0024001,Chrome,1440,900,,,a,1.241,1,469,2,0,9,9,2,1,1,0,0,0,0,0,0,1,triangle,star,,,,,,,,,,,,,,,,,,,,,,,,,,,,,,,,,,,,,,,,,,,,,,,,,,,,,,
296521,2022-11-27_20h49.14.673,vts_reward_expectancy_bt,2022.2.4,MacIntel,60.0024001,Chrome,1440,900,,,a,1.4627,1,470,2,0,10,10,10,1,0,0,0,1,0,1,0,0,star ,circle,,,,,,,,,,,,,,,,,,,,,,,,,,,,,,,,,,,,,,,,,,,,,,,,,,,,,,
296521,2022-11-27_20h49.14.673,vts_reward_expectancy_bt,2022.2.4,MacIntel,60.0024001,Chrome,1440,900,,,l,0.2313,1,471,2,0,11,11,7,1,0,0,1,0,0,1,0,0,hexagon,circle,,,,,,,,,,,,,,,,,,,,,,,,,,,,,,,,,,,,,,,,,,,,,,,,,,,,,,
296521,2022-11-27_20h49.14.673,vts_reward_expectancy_bt,2022.2.4,MacIntel,60.0024001,Chrome,1440,900,,,l,0.3455,1,472,2,1,0,12,0,1,1,0,0,0,0,1,0,0,triangle,circle,,,,,,,,,,,,,,,,,,,,,,,,,,,,,,,,,,,,,,,,,,,,,,,,,,,,,,
296521,2022-11-27_20h49.14.673,vts_reward_expectancy_bt,2022.2.4,MacIntel,60.0024001,Chrome,1440,900,,,l,0.3411,1,473,2,1,1,13,9,1,0,0,0,1,1,0,0,0,star,triangle,,,,,,,,,,,,,,,,,,,,,,,,,,,,,,,,,,,,,,,,,,,,,,,,,,,,,,
296521,2022-11-27_20h49.14.673,vts_reward_expectancy_bt,2022.2.4,MacIntel,60.0024001,Chrome,1440,900,,,l,0.413,1,474,2,1,2,14,3,1,0,1,0,0,1,0,0,0,circle,triangle,,,,,,,,,,,,,,,,,,,,,,,,,,,,,,,,,,,,,,,,,,,,,,,,,,,,,,
296521,2022-11-27_20h49.14.673,vts_reward_expectancy_bt,2022.2.4,MacIntel,60.0024001,Chrome,1440,900,,,a,0.815,1,475,2,1,3,15,5,1,0,1,0,0,0,0,0,1,circle,star,,,,,,,,,,,,,,,,,,,,,,,,,,,,,,,,,,,,,,,,,,,,,,,,,,,,,,
296521,2022-11-27_20h49.14.673,vts_reward_expectancy_bt,2022.2.4,MacIntel,60.0024001,Chrome,1440,900,,,l,0.3,1,476,2,1,4,16,6,1,0,0,1,0,1,0,0,0,hexagon,triangle,,,,,,,,,,,,,,,,,,,,,,,,,,,,,,,,,,,,,,,,,,,,,,,,,,,,,,
296521,2022-11-27_20h49.14.673,vts_reward_expectancy_bt,2022.2.4,MacIntel,60.0024001,Chrome,1440,900,,,l,0.1666,10,486,2,1,5,17,10,1,0,0,0,1,0,1,0,0,star ,circle,,,,,,,,,,,,,,,,,,,,,,,,,,,,,,,,,,,,,,,,,,,,,,,,,,,,,,
296521,2022-11-27_20h49.14.673,vts_reward_expectancy_bt,2022.2.4,MacIntel,60.0024001,Chrome,1440,900,,,l,0.8142,1,487,2,1,6,18,1,1,1,0,0,0,0,0,1,0,triangle,hexagon,,,,,,,,,,,,,,,,,,,,,,,,,,,,,,,,,,,,,,,,,,,,,,,,,,,,,,
296521,2022-11-27_20h49.14.673,vts_reward_expectancy_bt,2022.2.4,MacIntel,60.0024001,Chrome,1440,900,,,l,0.0732,10,497,2,1,7,19,2,1,1,0,0,0,0,0,0,1,triangle,star,,,,,,,,,,,,,,,,,,,,,,,,,,,,,,,,,,,,,,,,,,,,,,,,,,,,,,
296521,2022-11-27_20h49.14.673,vts_reward_expectancy_bt,2022.2.4,MacIntel,60.0024001,Chrome,1440,900,,,l,0.7013,10,507,2,1,8,20,8,1,0,0,1,0,0,0,0,1,hexagon,star,,,,,,,,,,,,,,,,,,,,,,,,,,,,,,,,,,,,,,,,,,,,,,,,,,,,,,
296521,2022-11-27_20h49.14.673,vts_reward_expectancy_bt,2022.2.4,MacIntel,60.0024001,Chrome,1440,900,,,l,0.5229,10,517,2,1,9,21,11,1,0,0,0,1,0,0,1,0,star,hexagon,,,,,,,,,,,,,,,,,,,,,,,,,,,,,,,,,,,,,,,,,,,,,,,,,,,,,,
296521,2022-11-27_20h49.14.673,vts_reward_expectancy_bt,2022.2.4,MacIntel,60.0024001,Chrome,1440,900,,,l,0.6988,10,527,2,1,10,22,4,1,0,1,0,0,0,0,1,0,circle,hexagon,,,,,,,,,,,,,,,,,,,,,,,,,,,,,,,,,,,,,,,,,,,,,,,,,,,,,,
296521,2022-11-27_20h49.14.673,vts_reward_expectancy_bt,2022.2.4,MacIntel,60.0024001,Chrome,1440,900,,,l,0.6801,10,537,2,1,11,23,7,1,0,0,1,0,0,1,0,0,hexagon,circle,,,,,,,,,,,,,,,,,,,,,,,,,,,,,,,,,,,,,,,,,,,,,,,,,,,,,,
296521,2022-11-27_20h49.14.673,vts_reward_expectancy_bt,2022.2.4,MacIntel,60.0024001,Chrome,1440,900,,,l,0.1008,10,547,2,2,0,24,10,1,0,0,0,1,0,1,0,0,star ,circle,,,,,,,,,,,,,,,,,,,,,,,,,,,,,,,,,,,,,,,,,,,,,,,,,,,,,,
296521,2022-11-27_20h49.14.673,vts_reward_expectancy_bt,2022.2.4,MacIntel,60.0024001,Chrome,1440,900,,,l,0.0661,10,557,2,2,1,25,8,1,0,0,1,0,0,0,0,1,hexagon,star,,,,,,,,,,,,,,,,,,,,,,,,,,,,,,,,,,,,,,,,,,,,,,,,,,,,,,
296521,2022-11-27_20h49.14.673,vts_reward_expectancy_bt,2022.2.4,MacIntel,60.0024001,Chrome,1440,900,,,l,0.0003,10,567,2,2,2,26,1,1,1,0,0,0,0,0,1,0,triangle,hexagon,,,,,,,,,,,,,,,,,,,,,,,,,,,,,,,,,,,,,,,,,,,,,,,,,,,,,,
296521,2022-11-27_20h49.14.673,vts_reward_expectancy_bt,2022.2.4,MacIntel,60.0024001,Chrome,1440,900,,,a,0.7958,1,568,2,2,3,27,3,1,0,1,0,0,1,0,0,0,circle,triangle,,,,,,,,,,,,,,,,,,,,,,,,,,,,,,,,,,,,,,,,,,,,,,,,,,,,,,
296521,2022-11-27_20h49.14.673,vts_reward_expectancy_bt,2022.2.4,MacIntel,60.0024001,Chrome,1440,900,,,a,0.4618,10,578,2,2,4,28,7,1,0,0,1,0,0,1,0,0,hexagon,circle,,,,,,,,,,,,,,,,,,,,,,,,,,,,,,,,,,,,,,,,,,,,,,,,,,,,,,
296521,2022-11-27_20h49.14.673,vts_reward_expectancy_bt,2022.2.4,MacIntel,60.0024001,Chrome,1440,900,,,a,0.3497,1,579,2,2,5,29,5,1,0,1,0,0,0,0,0,1,circle,star,,,,,,,,,,,,,,,,,,,,,,,,,,,,,,,,,,,,,,,,,,,,,,,,,,,,,,
296521,2022-11-27_20h49.14.673,vts_reward_expectancy_bt,2022.2.4,MacIntel,60.0024001,Chrome,1440,900,,,l,0.3589,1,580,2,2,6,30,6,1,0,0,1,0,1,0,0,0,hexagon,triangle,,,,,,,,,,,,,,,,,,,,,,,,,,,,,,,,,,,,,,,,,,,,,,,,,,,,,,
296521,2022-11-27_20h49.14.673,vts_reward_expectancy_bt,2022.2.4,MacIntel,60.0024001,Chrome,1440,900,,,a,0.0688,1,581,2,2,7,31,11,1,0,0,0,1,0,0,1,0,star,hexagon,,,,,,,,,,,,,,,,,,,,,,,,,,,,,,,,,,,,,,,,,,,,,,,,,,,,,,
296521,2022-11-27_20h49.14.673,vts_reward_expectancy_bt,2022.2.4,MacIntel,60.0024001,Chrome,1440,900,,,a,1.3674,1,582,2,2,8,32,9,1,0,0,0,1,1,0,0,0,star,triangle,,,,,,,,,,,,,,,,,,,,,,,,,,,,,,,,,,,,,,,,,,,,,,,,,,,,,,
296521,2022-11-27_20h49.14.673,vts_reward_expectancy_bt,2022.2.4,MacIntel,60.0024001,Chrome,1440,900,,,a,0.434,1,583,2,2,9,33,4,1,0,1,0,0,0,0,1,0,circle,hexagon,,,,,,,,,,,,,,,,,,,,,,,,,,,,,,,,,,,,,,,,,,,,,,,,,,,,,,
296521,2022-11-27_20h49.14.673,vts_reward_expectancy_bt,2022.2.4,MacIntel,60.0024001,Chrome,1440,900,,,l,0.4084,1,584,2,2,10,34,0,1,1,0,0,0,0,1,0,0,triangle,circle,,,,,,,,,,,,,,,,,,,,,,,,,,,,,,,,,,,,,,,,,,,,,,,,,,,,,,
296521,2022-11-27_20h49.14.673,vts_reward_expectancy_bt,2022.2.4,MacIntel,60.0024001,Chrome,1440,900,,,l,0.5857,10,594,2,2,11,35,2,1,1,0,0,0,0,0,0,1,triangle,star,,,,,,,,,,,,,,,,,,,,,,,,,,,,,,,,,,,,,,,,,,,,,,,,,,,,,,
296521,2022-11-27_20h49.14.673,vts_reward_expectancy_bt,2022.2.4,MacIntel,60.0024001,Chrome,1440,900,,,,,,,,,,,,,,,,,,,,,,,D,132,triangle,1,0,d,2.4726,0,0,0,0,0,1,,,,,,,,,,,,,,,,,,,,,,,,,,,,,,,,,,,,,,,,,
296521,2022-11-27_20h49.14.673,vts_reward_expectancy_bt,2022.2.4,MacIntel,60.0024001,Chrome,1440,900,,,,,,,,,,,,,,,,,,,,,,,B,146,star,1,0,d,0.652,0,1,0,1,0,1,,,,,,,,,,,,,,,,,,,,,,,,,,,,,,,,,,,,,,,,,
296521,2022-11-27_20h49.14.673,vts_reward_expectancy_bt,2022.2.4,MacIntel,60.0024001,Chrome,1440,900,,,,,,,,,,,,,,,,,,,,,,,S,181,hexagon,1,0,f,0.688,0,2,0,2,0,1,,,,,,,,,,,,,,,,,,,,,,,,,,,,,,,,,,,,,,,,,
296521,2022-11-27_20h49.14.673,vts_reward_expectancy_bt,2022.2.4,MacIntel,60.0024001,Chrome,1440,900,,,,,,,,,,,,,,,,,,,,,,,F,174,circle,1,0,d,1.0717,0,3,0,3,0,1,,,,,,,,,,,,,,,,,,,,,,,,,,,,,,,,,,,,,,,,,
296521,2022-11-27_20h49.14.673,vts_reward_expectancy_bt,2022.2.4,MacIntel,60.0024001,Chrome,1440,900,,,,,,,,,,,,,,,,,,,,,,,Y,125,triangle,1,0,f,0.7902,0,4,0,4,0,1,,,,,,,,,,,,,,,,,,,,,,,,,,,,,,,,,,,,,,,,,
296521,2022-11-27_20h49.14.673,vts_reward_expectancy_bt,2022.2.4,MacIntel,60.0024001,Chrome,1440,900,,,,,,,,,,,,,,,,,,,,,,,U,167,star,1,0,f,0.8394,0,5,0,5,0,1,,,,,,,,,,,,,,,,,,,,,,,,,,,,,,,,,,,,,,,,,
296521,2022-11-27_20h49.14.673,vts_reward_expectancy_bt,2022.2.4,MacIntel,60.0024001,Chrome,1440,900,,,,,,,,,,,,,,,,,,,,,,,W,160,hexagon,1,0,f,0.7147,0,6,0,6,0,1,,,,,,,,,,,,,,,,,,,,,,,,,,,,,,,,,,,,,,,,,
296521,2022-11-27_20h49.14.673,vts_reward_expectancy_bt,2022.2.4,MacIntel,60.0024001,Chrome,1440,900,,,,,,,,,,,,,,,,,,,,,,,H,139,circle,1,0,d,0.9243,0,7,0,7,0,1,,,,,,,,,,,,,,,,,,,,,,,,,,,,,,,,,,,,,,,,,
296521,2022-11-27_20h49.14.673,vts_reward_expectancy_bt,2022.2.4,MacIntel,60.0024001,Chrome,1440,900,,,,,,,,,,,,,,,,,,,,,,,D,132,hexagon,1,0,d,0.7061,0,8,0,8,0,1,,,,,,,,,,,,,,,,,,,,,,,,,,,,,,,,,,,,,,,,,
296521,2022-11-27_20h49.14.673,vts_reward_expectancy_bt,2022.2.4,MacIntel,60.0024001,Chrome,1440,900,,,,,,,,,,,,,,,,,,,,,,,B,146,circle,1,0,d,0.6614,0,9,0,9,0,1,,,,,,,,,,,,,,,,,,,,,,,,,,,,,,,,,,,,,,,,,
296521,2022-11-27_20h49.14.673,vts_reward_expectancy_bt,2022.2.4,MacIntel,60.0024001,Chrome,1440,900,,,,,,,,,,,,,,,,,,,,,,,U,167,star,0,0,,,1,,,,,,j,2.5949,0,0,0,0,1,,,,,,,,,,,,,,,,,,,,,,,,,,,,,,,,,,
296521,2022-11-27_20h49.14.673,vts_reward_expectancy_bt,2022.2.4,MacIntel,60.0024001,Chrome,1440,900,,,,,,,,,,,,,,,,,,,,,,,S,181,hexagon,1,1,,,1,,,,,,k,1.7274,1,0,1,0,1,,,,,,,,,,,,,,,,,,,,,,,,,,,,,,,,,,
296521,2022-11-27_20h49.14.673,vts_reward_expectancy_bt,2022.2.4,MacIntel,60.0024001,Chrome,1440,900,,,,,,,,,,,,,,,,,,,,,,,H,132,triangle,1,0,,,1,,,,,,j,0.8815,2,0,2,0,1,,,,,,,,,,,,,,,,,,,,,,,,,,,,,,,,,,
296521,2022-11-27_20h49.14.673,vts_reward_expectancy_bt,2022.2.4,MacIntel,60.0024001,Chrome,1440,900,,,,,,,,,,,,,,,,,,,,,,,F,125,circle,1,0,,,1,,,,,,j,1.1284,3,0,3,0,1,,,,,,,,,,,,,,,,,,,,,,,,,,,,,,,,,,
296521,2022-11-27_20h49.14.673,vts_reward_expectancy_bt,2022.2.4,MacIntel,60.0024001,Chrome,1440,900,,,,,,,,,,,,,,,,,,,,,,,Y,174,star,1,0,,,1,,,,,,k,0.6545,4,0,4,0,1,,,,,,,,,,,,,,,,,,,,,,,,,,,,,,,,,,
296521,2022-11-27_20h49.14.673,vts_reward_expectancy_bt,2022.2.4,MacIntel,60.0024001,Chrome,1440,900,,,,,,,,,,,,,,,,,,,,,,,B,146,hexagon,1,0,,,1,,,,,,j,1.2475,5,0,5,0,1,,,,,,,,,,,,,,,,,,,,,,,,,,,,,,,,,,
296521,2022-11-27_20h49.14.673,vts_reward_expectancy_bt,2022.2.4,MacIntel,60.0024001,Chrome,1440,900,,,,,,,,,,,,,,,,,,,,,,,D,160,triangle,1,0,,,1,,,,,,k,0.8874,6,0,6,0,1,,,,,,,,,,,,,,,,,,,,,,,,,,,,,,,,,,
296521,2022-11-27_20h49.14.673,vts_reward_expectancy_bt,2022.2.4,MacIntel,60.0024001,Chrome,1440,900,,,,,,,,,,,,,,,,,,,,,,,W,139,circle,1,0,,,1,,,,,,j,1.576,7,0,7,0,1,,,,,,,,,,,,,,,,,,,,,,,,,,,,,,,,,,
296521,2022-11-27_20h49.14.673,vts_reward_expectancy_bt,2022.2.4,MacIntel,60.0024001,Chrome,1440,900,,,,,,,,,,,,,,,,,,,,,,,U,167,circle,1,0,,,1,,,,,,k,0.9551,8,0,8,0,1,,,,,,,,,,,,,,,,,,,,,,,,,,,,,,,,,,
296521,2022-11-27_20h49.14.673,vts_reward_expectancy_bt,2022.2.4,MacIntel,60.0024001,Chrome,1440,900,,,,,,,,,,,,,,,,,,,,,,,S,181,star,1,0,,,1,,,,,,k,0.8115,9,0,9,0,1,,,,,,,,,,,,,,,,,,,,,,,,,,,,,,,,,,
296521,2022-11-27_20h49.14.673,vts_reward_expectancy_bt,2022.2.4,MacIntel,60.0024001,Chrome,1440,900,,,,,0,594,,,,,,,,,,,,,,,,,D,146,circle,-1,0,,,2,,,,,,,,,,,,,-1,no_choice,NA,,vtsPrac,0,0,0,0,1,,,,,,,,,,,,,,,,,,,,,,,,
296521,2022-11-27_20h49.14.673,vts_reward_expectancy_bt,2022.2.4,MacIntel,60.0024001,Chrome,1440,900,,,,,0,594,,,,,,,,,,,,,,,,,U,139,hexagon,1,0,,,2,,,,,,,,,,,,,switch,letter,lettSwt,f,vtsPrac,1,0,1,0,1,1.5962,,,,,,,,,,,,,,,,,,,,,,,
296521,2022-11-27_20h49.14.673,vts_reward_expectancy_bt,2022.2.4,MacIntel,60.0024001,Chrome,1440,900,,,,,0,594,,,,,,,,,,,,,,,,,H,167,circle,1,0,,,2,,,,,,,,,,,,,switch,number,numSwt,k,vtsPrac,2,0,2,0,1,1.5557,,,,,,,,,,,,,,,,,,,,,,,
296521,2022-11-27_20h49.14.673,vts_reward_expectancy_bt,2022.2.4,MacIntel,60.0024001,Chrome,1440,900,,,,,0,594,,,,,,,,,,,,,,,,,W,181,hexagon,1,0,,,2,,,,,,,,,,,,,repeat,number,numRpt,k,vtsPrac,3,0,3,0,1,1.259,,,,,,,,,,,,,,,,,,,,,,,
296521,2022-11-27_20h49.14.673,vts_reward_expectancy_bt,2022.2.4,MacIntel,60.0024001,Chrome,1440,900,,,,,0,594,,,,,,,,,,,,,,,,,D,146,hexagon,1,0,,,2,,,,,,,,,,,,,switch,letter,lettSwt,d,vtsPrac,4,0,4,0,1,1.9551,,,,,,,,,,,,,,,,,,,,,,,
296521,2022-11-27_20h49.14.673,vts_reward_expectancy_bt,2022.2.4,MacIntel,60.0024001,Chrome,1440,900,,,,,0,594,,,,,,,,,,,,,,,,,U,139,star,1,0,,,2,,,,,,,,,,,,,switch,number,numSwt,j,vtsPrac,5,0,5,0,1,1.4137,,,,,,,,,,,,,,,,,,,,,,,
296521,2022-11-27_20h49.14.673,vts_reward_expectancy_bt,2022.2.4,MacIntel,60.0024001,Chrome,1440,900,,,,,0,594,,,,,,,,,,,,,,,,,H,167,hexagon,1,0,,,2,,,,,,,,,,,,,switch,letter,lettSwt,d,vtsPrac,6,0,6,0,1,1.4222,,,,,,,,,,,,,,,,,,,,,,,
296521,2022-11-27_20h49.14.673,vts_reward_expectancy_bt,2022.2.4,MacIntel,60.0024001,Chrome,1440,900,,,,,0,594,,,,,,,,,,,,,,,,,W,181,triangle,1,0,,,2,,,,,,,,,,,,,repeat,letter,lettRpt,f,vtsPrac,7,0,7,0,1,0.7894,,,,,,,,,,,,,,,,,,,,,,,
296521,2022-11-27_20h49.14.673,vts_reward_expectancy_bt,2022.2.4,MacIntel,60.0024001,Chrome,1440,900,,,,,0,594,,,,,,,,,,,,,,,,,D,160,circle,1,0,,,2,,,,,,,,,,,,,repeat,letter,lettRpt,d,vtsPrac,8,0,8,0,1,1.5283,,,,,,,,,,,,,,,,,,,,,,,
296521,2022-11-27_20h49.14.673,vts_reward_expectancy_bt,2022.2.4,MacIntel,60.0024001,Chrome,1440,900,,,,,0,594,,,,,,,,,,,,,,,,,B,174,hexagon,1,0,,,2,,,,,,,,,,,,,switch,number,numSwt,k,vtsPrac,9,0,9,0,1,0.9886,,,,,,,,,,,,,,,,,,,,,,,
296521,2022-11-27_20h49.14.673,vts_reward_expectancy_bt,2022.2.4,MacIntel,60.0024001,Chrome,1440,900,,,,,0,594,,,,,,,,,,,,,,,,,S,146,circle,1,0,,,2,,,,,,,,,,,,,repeat,number,numRpt,j,vtsPrac,10,0,10,0,1,1.5871,,,,,,,,,,,,,,,,,,,,,,,
296521,2022-11-27_20h49.14.673,vts_reward_expectancy_bt,2022.2.4,MacIntel,60.0024001,Chrome,1440,900,,,,,0,594,,,,,,,,,,,,,,,,,Y,167,hexagon,1,0,,,2,,,,,,,,,,,,,repeat,number,numRpt,k,vtsPrac,11,0,11,0,1,0.6709,,,,,,,,,,,,,,,,,,,,,,,
296521,2022-11-27_20h49.14.673,vts_reward_expectancy_bt,2022.2.4,MacIntel,60.0024001,Chrome,1440,900,,,,,0,594,,,,,,,,,,,,,,,,,Y,181,triangle,1,0,,,2,,,,,,,,,,,,,repeat,number,numRpt,k,vtsPrac,12,0,12,0,1,0.7093,,,,,,,,,,,,,,,,,,,,,,,
296521,2022-11-27_20h49.14.673,vts_reward_expectancy_bt,2022.2.4,MacIntel,60.0024001,Chrome,1440,900,,,,,0,594,,,,,,,,,,,,,,,,,S,125,circle,1,0,,,2,,,,,,,,,,,,,switch,letter,lettSwt,f,vtsPrac,13,0,13,0,1,1.524,,,,,,,,,,,,,,,,,,,,,,,
296521,2022-11-27_20h49.14.673,vts_reward_expectancy_bt,2022.2.4,MacIntel,60.0024001,Chrome,1440,900,,,,,0,594,,,,,,,,,,,,,,,,,D,139,star,1,0,,,2,,,,,,,,,,,,,repeat,letter,lettRpt,d,vtsPrac,14,0,14,0,1,0.7419,,,,,,,,,,,,,,,,,,,,,,,
296521,2022-11-27_20h49.14.673,vts_reward_expectancy_bt,2022.2.4,MacIntel,60.0024001,Chrome,1440,900,,,,,0,594,,,,,,,,,,,,,,,,,H,132,circle,1,0,,,2,,,,,,,,,,,,,repeat,letter,lettRpt,d,vtsPrac,15,0,15,0,1,0.7737,,,,,,,,,,,,,,,,,,,,,,,
296521,2022-11-27_20h49.14.673,vts_reward_expectancy_bt,2022.2.4,MacIntel,60.0024001,Chrome,1440,900,,,,,0,594,,,,,,,,,,,,,,,,,H,160,star,1,0,,,2,,,,,,,,,,,,,repeat,letter,lettRpt,d,vtsPrac,16,0,16,0,1,0.7343,,,,,,,,,,,,,,,,,,,,,,,
296521,2022-11-27_20h49.14.673,vts_reward_expectancy_bt,2022.2.4,MacIntel,60.0024001,Chrome,1440,900,,,,,0,594,,,,,,,,,,,,,,,,,F,146,hexagon,1,0,,,2,,,,,,,,,,,,,repeat,letter,lettRpt,d,vtsPrac,17,0,17,0,1,0.805,,,,,,,,,,,,,,,,,,,,,,,
296521,2022-11-27_20h49.14.673,vts_reward_expectancy_bt,2022.2.4,MacIntel,60.0024001,Chrome,1440,900,,,,,0,594,,,,,,,,,,,,,,,,,D,125,triangle,1,0,,,2,,,,,,,,,,,,,switch,number,numSwt,j,vtsPrac,18,0,18,0,1,0.8059,,,,,,,,,,,,,,,,,,,,,,,
296521,2022-11-27_20h49.14.673,vts_reward_expectancy_bt,2022.2.4,MacIntel,60.0024001,Chrome,1440,900,,,,,0,594,,,,,,,,,,,,,,,,,U,181,hexagon,1,0,,,2,,,,,,,,,,,,,repeat,number,numRpt,k,vtsPrac,19,0,19,0,1,0.7164,,,,,,,,,,,,,,,,,,,,,,,
296521,2022-11-27_20h49.14.673,vts_reward_expectancy_bt,2022.2.4,MacIntel,60.0024001,Chrome,1440,900,,,,,0,594,,,,,,,,,,,,,,,,,W,167,triangle,1,0,,,2,,,,,,,,,,,,,switch,letter,lettSwt,f,vtsPrac,20,0,20,0,1,1.8435,,,,,,,,,,,,,,,,,,,,,,,
296521,2022-11-27_20h49.14.673,vts_reward_expectancy_bt,2022.2.4,MacIntel,60.0024001,Chrome,1440,900,,,,,0,594,,,,,,,,,,,,,,,,,U,181,circle,1,0,,,2,,,,,,,,,,,,,switch,number,numSwt,k,vtsPrac,21,0,21,0,1,0.8095,,,,,,,,,,,,,,,,,,,,,,,
296521,2022-11-27_20h49.14.673,vts_reward_expectancy_bt,2022.2.4,MacIntel,60.0024001,Chrome,1440,900,,,,,0,594,,,,,,,,,,,,,,,,,S,174,star,1,0,,,2,,,,,,,,,,,,,repeat,number,numRpt,k,vtsPrac,22,0,22,0,1,0.6894,,,,,,,,,,,,,,,,,,,,,,,
296521,2022-11-27_20h49.14.673,vts_reward_expectancy_bt,2022.2.4,MacIntel,60.0024001,Chrome,1440,900,,,,,0,594,,,,,,,,,,,,,,,,,B,160,hexagon,1,0,,,2,,,,,,,,,,,,,switch,letter,lettSwt,d,vtsPrac,23,0,23,0,1,1.5378,,,,,,,,,,,,,,,,,,,,,,,
296521,2022-11-27_20h49.14.673,vts_reward_expectancy_bt,2022.2.4,MacIntel,60.0024001,Chrome,1440,900,,,,,0,594,,,,,,,,,,,,,,,,,F,125,circle,1,0,,,2,,,,,,,,,,,,,repeat,letter,lettRpt,d,vtsPrac,24,0,24,0,1,1.6049,,,,,,,,,,,,,,,,,,,,,,,
296521,2022-11-27_20h49.14.673,vts_reward_expectancy_bt,2022.2.4,MacIntel,60.0024001,Chrome,1440,900,,,,,0,594,,,,,,,,,,,,,,,,,S,160,hexagon,1,0,,,2,,,,,,,,,,,,,switch,number,numSwt,k,vtsPrac,25,0,25,0,1,1.9371,,,,,,,,,,,,,,,,,,,,,,,
296521,2022-11-27_20h49.14.673,vts_reward_expectancy_bt,2022.2.4,MacIntel,60.0024001,Chrome,1440,900,,,,,0,594,,,,,,,,,,,,,,,,,B,181,hexagon,1,0,,,2,,,,,,,,,,,,,switch,letter,lettSwt,d,vtsPrac,26,0,26,0,1,1.1248,,,,,,,,,,,,,,,,,,,,,,,
296521,2022-11-27_20h49.14.673,vts_reward_expectancy_bt,2022.2.4,MacIntel,60.0024001,Chrome,1440,900,,,,,0,594,,,,,,,,,,,,,,,,,H,167,triangle,1,0,,,2,,,,,,,,,,,,,switch,number,numSwt,k,vtsPrac,27,0,27,0,1,1.324,,,,,,,,,,,,,,,,,,,,,,,
296521,2022-11-27_20h49.14.673,vts_reward_expectancy_bt,2022.2.4,MacIntel,60.0024001,Chrome,1440,900,,,,,0,594,,,,,,,,,,,,,,,,,Y,174,star,1,0,,,2,,,,,,,,,,,,,repeat,number,numRpt,k,vtsPrac,28,0,28,0,1,1.8545,,,,,,,,,,,,,,,,,,,,,,,
296521,2022-11-27_20h49.14.673,vts_reward_expectancy_bt,2022.2.4,MacIntel,60.0024001,Chrome,1440,900,,,,,0,594,,,,,,,,,,,,,,,,,H,146,triangle,1,0,,,2,,,,,,,,,,,,,switch,letter,lettSwt,d,vtsPrac,29,0,29,0,1,0.7633,,,,,,,,,,,,,,,,,,,,,,,
296521,2022-11-27_20h49.14.673,vts_reward_expectancy_bt,2022.2.4,MacIntel,60.0024001,Chrome,1440,900,,,,,0,594,,,,,,,,,,,,,,,,,U,139,star,1,0,,,2,,,,,,,,,,,,,repeat,letter,lettRpt,f,vtsPrac,30,0,30,0,1,2.1734,,,,,,,,,,,,,,,,,,,,,,,
296521,2022-11-27_20h49.14.673,vts_reward_expectancy_bt,2022.2.4,MacIntel,60.0024001,Chrome,1440,900,,,,,0,594,,,,,,,,,,,,,,,,,F,181,hexagon,1,0,,,2,,,,,,,,,,,,,repeat,letter,lettRpt,d,vtsPrac,31,0,31,0,1,0.8285,,,,,,,,,,,,,,,,,,,,,,,
296521,2022-11-27_20h49.14.673,vts_reward_expectancy_bt,2022.2.4,MacIntel,60.0024001,Chrome,1440,900,,,,,,,,,,,,,,,,,,,,,,,,,,,,,,,,,,,,,,,,,,,,,,,,,,,,,,,,,,,,,,,,,,,,,,,,,,,,
296521,2022-11-27_20h49.14.673,vts_reward_expectancy_bt,2022.2.4,MacIntel,60.0024001,Chrome,1440,900,,,,,,,,,,,,,,,,,,,,,,,,,,,,,,,,,,,,,,,,,,,,,,,,,,,,,,,,,,,,,,,,,,,,,,,,,,,,
296521,2022-11-27_20h49.14.673,vts_reward_expectancy_bt,2022.2.4,MacIntel,60.0024001,Chrome,1440,900,,,,,0,594,,,,,,,,,,,,,,,,,S,125,star,1,0,,,,,,,,,,,,,,,,repeat,letter,lettRpt,f,noRew,,,,,,0.9186,0,0,0,0,0,1,,,,,,,,,,,,,,,,,
296521,2022-11-27_20h49.14.673,vts_reward_expectancy_bt,2022.2.4,MacIntel,60.0024001,Chrome,1440,900,,,,,0,594,,,,,,,,,,,,,,,,,W,132,circle,1,0,,,,,,,,,,,,,,,,switch,number,numSwt,j,noRew,,,,,,1.2736,0,1,0,1,0,1,,,,,,,,,,,,,,,,,
296521,2022-11-27_20h49.14.673,vts_reward_expectancy_bt,2022.2.4,MacIntel,60.0024001,Chrome,1440,900,,,,,0,594,,,,,,,,,,,,,,,,,Y,181,star,1,0,,,,,,,,,,,,,,,,switch,letter,lettSwt,f,noRew,,,,,,0.9381,0,2,0,2,0,1,,,,,,,,,,,,,,,,,
296521,2022-11-27_20h49.14.673,vts_reward_expectancy_bt,2022.2.4,MacIntel,60.0024001,Chrome,1440,900,,,,,0,594,,,,,,,,,,,,,,,,,U,174,circle,1,0,,,,,,,,,,,,,,,,switch,number,numSwt,k,noRew,,,,,,0.9707,0,3,0,3,0,1,,,,,,,,,,,,,,,,,
296521,2022-11-27_20h49.14.673,vts_reward_expectancy_bt,2022.2.4,MacIntel,60.0024001,Chrome,1440,900,,,,,0,594,,,,,,,,,,,,,,,,,S,125,hexagon,1,0,,,,,,,,,,,,,,,,switch,letter,lettSwt,f,noRew,,,,,,1.0399,0,4,0,4,0,1,,,,,,,,,,,,,,,,,
296521,2022-11-27_20h49.14.673,vts_reward_expectancy_bt,2022.2.4,MacIntel,60.0024001,Chrome,1440,900,,,,,0,594,,,,,,,,,,,,,,,,,W,132,star,1,0,,,,,,,,,,,,,,,,switch,number,numSwt,j,noRew,,,,,,0.9873,0,5,0,5,0,1,,,,,,,,,,,,,,,,,
296521,2022-11-27_20h49.14.673,vts_reward_expectancy_bt,2022.2.4,MacIntel,60.0024001,Chrome,1440,900,,,,,0,594,,,,,,,,,,,,,,,,,Y,181,hexagon,1,0,,,,,,,,,,,,,,,,switch,letter,lettSwt,f,noRew,,,,,,1.0869,0,6,0,6,0,1,,,,,,,,,,,,,,,,,
296521,2022-11-27_20h49.14.673,vts_reward_expectancy_bt,2022.2.4,MacIntel,60.0024001,Chrome,1440,900,,,,,0,594,,,,,,,,,,,,,,,,,U,174,triangle,1,0,,,,,,,,,,,,,,,,switch,number,numSwt,k,noRew,,,,,,1.5379,0,7,0,7,0,1,,,,,,,,,,,,,,,,,
296521,2022-11-27_20h49.14.673,vts_reward_expectancy_bt,2022.2.4,MacIntel,60.0024001,Chrome,1440,900,,,,,0,594,,,,,,,,,,,,,,,,,U,167,hexagon,1,0,,,,,,,,,,,,,,,,switch,letter,lettSwt,f,noRew,,,,,,0.9234,0,8,0,8,0,1,,,,,,,,,,,,,,,,,
296521,2022-11-27_20h49.14.673,vts_reward_expectancy_bt,2022.2.4,MacIntel,60.0024001,Chrome,1440,900,,,,,0,594,,,,,,,,,,,,,,,,,Y,146,circle,1,0,,,,,,,,,,,,,,,,switch,number,numSwt,j,noRew,,,,,,1.227,0,9,0,9,0,1,,,,,,,,,,,,,,,,,
296521,2022-11-27_20h49.14.673,vts_reward_expectancy_bt,2022.2.4,MacIntel,60.0024001,Chrome,1440,900,,,,,0,594,,,,,,,,,,,,,,,,,S,132,circle,1,0,,,,,,,,,,,,,,,,switch,letter,lettSwt,f,noRew,,,,,,1.6284,0,10,0,10,0,1,,,,,,,,,,,,,,,,,
296521,2022-11-27_20h49.14.673,vts_reward_expectancy_bt,2022.2.4,MacIntel,60.0024001,Chrome,1440,900,,,,,0,594,,,,,,,,,,,,,,,,,B,181,star,1,0,,,,,,,,,,,,,,,,switch,number,numSwt,k,noRew,,,,,,0.8398,0,11,0,11,0,1,,,,,,,,,,,,,,,,,
296521,2022-11-27_20h49.14.673,vts_reward_expectancy_bt,2022.2.4,MacIntel,60.0024001,Chrome,1440,900,,,,,0,594,,,,,,,,,,,,,,,,,S,132,hexagon,1,0,,,,,,,,,,,,,,,,switch,letter,lettSwt,f,noRew,,,,,,1.3472,0,12,0,12,0,1,,,,,,,,,,,,,,,,,
296521,2022-11-27_20h49.14.673,vts_reward_expectancy_bt,2022.2.4,MacIntel,60.0024001,Chrome,1440,900,,,,,0,594,,,,,,,,,,,,,,,,,B,139,star,1,0,,,,,,,,,,,,,,,,switch,number,numSwt,j,noRew,,,,,,1.7197,0,13,0,13,0,1,,,,,,,,,,,,,,,,,
296521,2022-11-27_20h49.14.673,vts_reward_expectancy_bt,2022.2.4,MacIntel,60.0024001,Chrome,1440,900,,,,,0,594,,,,,,,,,,,,,,,,,U,125,triangle,1,0,,,,,,,,,,,,,,,,switch,letter,lettSwt,f,noRew,,,,,,1.5894,0,14,0,14,0,1,,,,,,,,,,,,,,,,,
296521,2022-11-27_20h49.14.673,vts_reward_expectancy_bt,2022.2.4,MacIntel,60.0024001,Chrome,1440,900,,,,,0,594,,,,,,,,,,,,,,,,,D,174,star,1,0,,,,,,,,,,,,,,,,switch,number,numSwt,k,noRew,,,,,,1.7693,0,15,0,15,0,1,,,,,,,,,,,,,,,,,
296521,2022-11-27_20h49.14.673,vts_reward_expectancy_bt,2022.2.4,MacIntel,60.0024001,Chrome,1440,900,,,,,0,594,,,,,,,,,,,,,,,,,H,167,hexagon,1,0,,,,,,,,,,,,,,,,switch,letter,lettSwt,d,noRew,,,,,,2.5518,0,16,0,16,0,1,,,,,,,,,,,,,,,,,
296521,2022-11-27_20h49.14.673,vts_reward_expectancy_bt,2022.2.4,MacIntel,60.0024001,Chrome,1440,900,,,,,0,594,,,,,,,,,,,,,,,,,B,181,triangle,1,0,,,,,,,,,,,,,,,,switch,number,numSwt,k,noRew,,,,,,0.9425,0,17,0,17,0,1,,,,,,,,,,,,,,,,,
296521,2022-11-27_20h49.14.673,vts_reward_expectancy_bt,2022.2.4,MacIntel,60.0024001,Chrome,1440,900,,,,,0,594,,,,,,,,,,,,,,,,,F,146,triangle,1,0,,,,,,,,,,,,,,,,switch,letter,lettSwt,d,noRew,,,,,,0.7765,0,18,0,18,0,1,,,,,,,,,,,,,,,,,
296521,2022-11-27_20h49.14.673,vts_reward_expectancy_bt,2022.2.4,MacIntel,60.0024001,Chrome,1440,900,,,,,0,594,,,,,,,,,,,,,,,,,Y,174,circle,1,0,,,,,,,,,,,,,,,,switch,number,numSwt,k,noRew,,,,,,0.6358,0,19,0,19,0,1,,,,,,,,,,,,,,,,,
296521,2022-11-27_20h49.14.673,vts_reward_expectancy_bt,2022.2.4,MacIntel,60.0024001,Chrome,1440,900,,,,,0,594,,,,,,,,,,,,,,,,,H,174,triangle,1,0,,,,,,,,,,,,,,,,switch,letter,lettSwt,d,noRew,,,,,,0.7079,0,20,0,20,0,1,,,,,,,,,,,,,,,,,
296521,2022-11-27_20h49.14.673,vts_reward_expectancy_bt,2022.2.4,MacIntel,60.0024001,Chrome,1440,900,,,,,0,594,,,,,,,,,,,,,,,,,D,146,circle,0,0,,,,,,,,,,,,,,,,switch,number,NA,k,noRew,,,,,,1.2938,0,21,0,21,0,1,,,,,,,,,,,,,,,,,
296521,2022-11-27_20h49.14.673,vts_reward_expectancy_bt,2022.2.4,MacIntel,60.0024001,Chrome,1440,900,,,,,0,594,,,,,,,,,,,,,,,,,U,181,star,1,1,,,,,,,,,,,,,,,,switch,letter,lettSwt,f,noRew,,,,,,1.8644,0,22,0,22,0,1,,,,,,,,,,,,,,,,,
296521,2022-11-27_20h49.14.673,vts_reward_expectancy_bt,2022.2.4,MacIntel,60.0024001,Chrome,1440,900,,,,,0,594,,,,,,,,,,,,,,,,,S,160,circle,1,0,,,,,,,,,,,,,,,,switch,number,numSwt,k,noRew,,,,,,1.419,0,23,0,23,0,1,,,,,,,,,,,,,,,,,
296521,2022-11-27_20h49.14.673,vts_reward_expectancy_bt,2022.2.4,MacIntel,60.0024001,Chrome,1440,900,,,,,0,594,,,,,,,,,,,,,,,,,D,139,hexagon,1,0,,,,,,,,,,,,,,,,switch,letter,lettSwt,d,noRew,,,,,,0.8854,0,24,0,24,0,1,,,,,,,,,,,,,,,,,
296521,2022-11-27_20h49.14.673,vts_reward_expectancy_bt,2022.2.4,MacIntel,60.0024001,Chrome,1440,900,,,,,0,594,,,,,,,,,,,,,,,,,F,181,circle,1,0,,,,,,,,,,,,,,,,switch,number,numSwt,k,noRew,,,,,,0.8034,0,25,0,25,0,1,,,,,,,,,,,,,,,,,
296521,2022-11-27_20h49.14.673,vts_reward_expectancy_bt,2022.2.4,MacIntel,60.0024001,Chrome,1440,900,,,,,0,594,,,,,,,,,,,,,,,,,U,174,triangle,1,0,,,,,,,,,,,,,,,,switch,letter,lettSwt,f,noRew,,,,,,1.8215,0,26,0,26,0,1,,,,,,,,,,,,,,,,,
296521,2022-11-27_20h49.14.673,vts_reward_expectancy_bt,2022.2.4,MacIntel,60.0024001,Chrome,1440,900,,,,,0,594,,,,,,,,,,,,,,,,,W,167,circle,1,0,,,,,,,,,,,,,,,,switch,number,numSwt,k,noRew,,,,,,2.0353,0,27,0,27,0,1,,,,,,,,,,,,,,,,,
296521,2022-11-27_20h49.14.673,vts_reward_expectancy_bt,2022.2.4,MacIntel,60.0024001,Chrome,1440,900,,,,,0,594,,,,,,,,,,,,,,,,,U,167,circle,1,0,,,,,,,,,,,,,,,,switch,letter,lettSwt,f,noRew,,,,,,1.1954,0,28,0,28,0,1,,,,,,,,,,,,,,,,,
296521,2022-11-27_20h49.14.673,vts_reward_expectancy_bt,2022.2.4,MacIntel,60.0024001,Chrome,1440,900,,,,,0,594,,,,,,,,,,,,,,,,,B,181,star,1,0,,,,,,,,,,,,,,,,switch,number,numSwt,k,noRew,,,,,,1.3301,0,29,0,29,0,1,,,,,,,,,,,,,,,,,
296521,2022-11-27_20h49.14.673,vts_reward_expectancy_bt,2022.2.4,MacIntel,60.0024001,Chrome,1440,900,,,,,0,594,,,,,,,,,,,,,,,,,Y,125,triangle,1,0,,,,,,,,,,,,,,,,repeat,number,numRpt,j,noRew,,,,,,1.7362,0,30,0,30,0,1,,,,,,,,,,,,,,,,,
296521,2022-11-27_20h49.14.673,vts_reward_expectancy_bt,2022.2.4,MacIntel,60.0024001,Chrome,1440,900,,,,,0,594,,,,,,,,,,,,,,,,,W,132,star,1,0,,,,,,,,,,,,,,,,switch,letter,lettSwt,f,noRew,,,,,,2.7837,0,31,0,31,0,1,,,,,,,,,,,,,,,,,
296521,2022-11-27_20h49.14.673,vts_reward_expectancy_bt,2022.2.4,MacIntel,60.0024001,Chrome,1440,900,,,,,0,594,,,,,,,,,,,,,,,,,S,132,circle,1,0,,,,,,,,,,,,,,,,switch,number,numSwt,j,noRew,,,,,,0.9718,0,32,0,32,0,1,,,,,,,,,,,,,,,,,
296521,2022-11-27_20h49.14.673,vts_reward_expectancy_bt,2022.2.4,MacIntel,60.0024001,Chrome,1440,900,,,,,0,594,,,,,,,,,,,,,,,,,H,181,triangle,1,0,,,,,,,,,,,,,,,,switch,letter,lettSwt,d,noRew,,,,,,1.4165,0,33,0,33,0,1,,,,,,,,,,,,,,,,,
296521,2022-11-27_20h49.14.673,vts_reward_expectancy_bt,2022.2.4,MacIntel,60.0024001,Chrome,1440,900,,,,,0,594,,,,,,,,,,,,,,,,,D,125,triangle,1,0,,,,,,,,,,,,,,,,repeat,letter,lettRpt,d,noRew,,,,,,1.5725,0,34,0,34,0,1,,,,,,,,,,,,,,,,,
296521,2022-11-27_20h49.14.673,vts_reward_expectancy_bt,2022.2.4,MacIntel,60.0024001,Chrome,1440,900,,,,,0,594,,,,,,,,,,,,,,,,,B,160,hexagon,1,0,,,,,,,,,,,,,,,,switch,number,numSwt,k,noRew,,,,,,1.9889,0,35,0,35,0,1,,,,,,,,,,,,,,,,,
296521,2022-11-27_20h49.14.673,vts_reward_expectancy_bt,2022.2.4,MacIntel,60.0024001,Chrome,1440,900,,,,,0,594,,,,,,,,,,,,,,,,,W,167,circle,-1,0,,,,,,,,,,,,,,,,switch,no_choice,NA,,noRew,,,,,,,0,36,0,36,0,1,,,,,,,,,,,,,,,,,
296521,2022-11-27_20h49.14.673,vts_reward_expectancy_bt,2022.2.4,MacIntel,60.0024001,Chrome,1440,900,,,,,0,594,,,,,,,,,,,,,,,,,F,125,star,1,0,,,,,,,,,,,,,,,,switch,number,numSwt,j,noRew,,,,,,1.1693,0,37,0,37,0,1,,,,,,,,,,,,,,,,,
296521,2022-11-27_20h49.14.673,vts_reward_expectancy_bt,2022.2.4,MacIntel,60.0024001,Chrome,1440,900,,,,,0,594,,,,,,,,,,,,,,,,,D,181,star,1,0,,,,,,,,,,,,,,,,switch,letter,lettSwt,d,noRew,,,,,,0.7044,0,38,0,38,0,1,,,,,,,,,,,,,,,,,
296521,2022-11-27_20h49.14.673,vts_reward_expectancy_bt,2022.2.4,MacIntel,60.0024001,Chrome,1440,900,,,,,0,594,,,,,,,,,,,,,,,,,H,132,circle,1,0,,,,,,,,,,,,,,,,switch,number,numSwt,j,noRew,,,,,,1.2533,0,39,0,39,0,1,,,,,,,,,,,,,,,,,
296521,2022-11-27_20h49.14.673,vts_reward_expectancy_bt,2022.2.4,MacIntel,60.0024001,Chrome,1440,900,,,,,0,594,,,,,,,,,,,,,,,,,U,146,circle,1,0,,,,,,,,,,,,,,,,switch,letter,lettSwt,f,noRew,,,,,,1.4206,0,40,0,40,0,1,,,,,,,,,,,,,,,,,
296521,2022-11-27_20h49.14.673,vts_reward_expectancy_bt,2022.2.4,MacIntel,60.0024001,Chrome,1440,900,,,,,0,594,,,,,,,,,,,,,,,,,H,174,hexagon,1,0,,,,,,,,,,,,,,,,repeat,letter,lettRpt,d,noRew,,,,,,1.8208,0,41,0,41,0,1,,,,,,,,,,,,,,,,,
296521,2022-11-27_20h49.14.673,vts_reward_expectancy_bt,2022.2.4,MacIntel,60.0024001,Chrome,1440,900,,,,,0,594,,,,,,,,,,,,,,,,,Y,139,circle,1,0,,,,,,,,,,,,,,,,switch,number,numSwt,j,noRew,,,,,,1.6346,0,42,0,42,0,1,,,,,,,,,,,,,,,,,
296521,2022-11-27_20h49.14.673,vts_reward_expectancy_bt,2022.2.4,MacIntel,60.0024001,Chrome,1440,900,,,,,0,594,,,,,,,,,,,,,,,,,D,132,star,1,0,,,,,,,,,,,,,,,,repeat,number,numRpt,j,noRew,,,,,,1.2177,0,43,0,43,0,1,,,,,,,,,,,,,,,,,
296521,2022-11-27_20h49.14.673,vts_reward_expectancy_bt,2022.2.4,MacIntel,60.0024001,Chrome,1440,900,,,,,0,594,,,,,,,,,,,,,,,,,H,125,star,1,0,,,,,,,,,,,,,,,,switch,letter,lettSwt,d,noRew,,,,,,0.9247,0,44,0,44,0,1,,,,,,,,,,,,,,,,,
296521,2022-11-27_20h49.14.673,vts_reward_expectancy_bt,2022.2.4,MacIntel,60.0024001,Chrome,1440,900,,,,,0,594,,,,,,,,,,,,,,,,,Y,167,triangle,1,0,,,,,,,,,,,,,,,,switch,number,numSwt,k,noRew,,,,,,0.7696,0,45,0,45,0,1,,,,,,,,,,,,,,,,,
296521,2022-11-27_20h49.14.673,vts_reward_expectancy_bt,2022.2.4,MacIntel,60.0024001,Chrome,1440,900,,,,,0,594,,,,,,,,,,,,,,,,,W,174,triangle,1,0,,,,,,,,,,,,,,,,switch,letter,lettSwt,f,noRew,,,,,,1.3535,0,46,0,46,0,1,,,,,,,,,,,,,,,,,
296521,2022-11-27_20h49.14.673,vts_reward_expectancy_bt,2022.2.4,MacIntel,60.0024001,Chrome,1440,900,,,,,0,594,,,,,,,,,,,,,,,,,D,146,circle,1,0,,,,,,,,,,,,,,,,switch,number,numSwt,j,noRew,,,,,,0.9857,0,47,0,47,0,1,,,,,,,,,,,,,,,,,
296521,2022-11-27_20h49.14.673,vts_reward_expectancy_bt,2022.2.4,MacIntel,60.0024001,Chrome,1440,900,,,,,0,594,,,,,,,,,,,,,,,,,D,167,circle,1,0,,,,,,,,,,,,,,,,switch,letter,lettSwt,d,noRew,,,,,,0.7562,0,48,0,48,0,1,,,,,,,,,,,,,,,,,
296521,2022-11-27_20h49.14.673,vts_reward_expectancy_bt,2022.2.4,MacIntel,60.0024001,Chrome,1440,900,,,,,0,594,,,,,,,,,,,,,,,,,H,181,triangle,1,0,,,,,,,,,,,,,,,,switch,number,numSwt,k,noRew,,,,,,1.0833,0,49,0,49,0,1,,,,,,,,,,,,,,,,,
296521,2022-11-27_20h49.14.673,vts_reward_expectancy_bt,2022.2.4,MacIntel,60.0024001,Chrome,1440,900,,,,,0,594,,,,,,,,,,,,,,,,,S,139,triangle,1,0,,,,,,,,,,,,,,,,switch,letter,lettSwt,f,noRew,,,,,,1.173,0,50,0,50,0,1,,,,,,,,,,,,,,,,,
296521,2022-11-27_20h49.14.673,vts_reward_expectancy_bt,2022.2.4,MacIntel,60.0024001,Chrome,1440,900,,,,,0,594,,,,,,,,,,,,,,,,,B,146,circle,1,0,,,,,,,,,,,,,,,,switch,number,numSwt,j,noRew,,,,,,0.9851,0,51,0,51,0,1,,,,,,,,,,,,,,,,,
296521,2022-11-27_20h49.14.673,vts_reward_expectancy_bt,2022.2.4,MacIntel,60.0024001,Chrome,1440,900,,,,,0,594,,,,,,,,,,,,,,,,,Y,125,star,1,0,,,,,,,,,,,,,,,,switch,letter,lettSwt,f,noRew,,,,,,0.9103,0,52,0,52,0,1,,,,,,,,,,,,,,,,,
296521,2022-11-27_20h49.14.673,vts_reward_expectancy_bt,2022.2.4,MacIntel,60.0024001,Chrome,1440,900,,,,,0,594,,,,,,,,,,,,,,,,,B,174,hexagon,1,0,,,,,,,,,,,,,,,,switch,number,numSwt,k,noRew,,,,,,0.7201,0,53,0,53,0,1,,,,,,,,,,,,,,,,,
296521,2022-11-27_20h49.14.673,vts_reward_expectancy_bt,2022.2.4,MacIntel,60.0024001,Chrome,1440,900,,,,,0,594,,,,,,,,,,,,,,,,,F,132,triangle,1,0,,,,,,,,,,,,,,,,switch,letter,lettSwt,d,noRew,,,,,,1.1197,0,54,0,54,0,1,,,,,,,,,,,,,,,,,
296521,2022-11-27_20h49.14.673,vts_reward_expectancy_bt,2022.2.4,MacIntel,60.0024001,Chrome,1440,900,,,,,0,594,,,,,,,,,,,,,,,,,D,146,circle,1,0,,,,,,,,,,,,,,,,switch,number,numSwt,j,noRew,,,,,,1.1005,0,55,0,55,0,1,,,,,,,,,,,,,,,,,
296521,2022-11-27_20h49.14.673,vts_reward_expectancy_bt,2022.2.4,MacIntel,60.0024001,Chrome,1440,900,,,,,0,594,,,,,,,,,,,,,,,,,D,160,star,1,0,,,,,,,,,,,,,,,,switch,letter,lettSwt,d,noRew,,,,,,1.5551,0,56,0,56,0,1,,,,,,,,,,,,,,,,,
296521,2022-11-27_20h49.14.673,vts_reward_expectancy_bt,2022.2.4,MacIntel,60.0024001,Chrome,1440,900,,,,,0,594,,,,,,,,,,,,,,,,,H,125,hexagon,1,0,,,,,,,,,,,,,,,,switch,number,numSwt,j,noRew,,,,,,1.173,0,57,0,57,0,1,,,,,,,,,,,,,,,,,
296521,2022-11-27_20h49.14.673,vts_reward_expectancy_bt,2022.2.4,MacIntel,60.0024001,Chrome,1440,900,,,,,0,594,,,,,,,,,,,,,,,,,Y,132,hexagon,1,0,,,,,,,,,,,,,,,,switch,letter,lettSwt,f,noRew,,,,,,1.2388,0,58,0,58,0,1,,,,,,,,,,,,,,,,,
296521,2022-11-27_20h49.14.673,vts_reward_expectancy_bt,2022.2.4,MacIntel,60.0024001,Chrome,1440,900,,,,,0,594,,,,,,,,,,,,,,,,,B,167,triangle,1,0,,,,,,,,,,,,,,,,switch,number,numSwt,k,noRew,,,,,,1.2692,0,59,0,59,0,1,,,,,,,,,,,,,,,,,
296521,2022-11-27_20h49.14.673,vts_reward_expectancy_bt,2022.2.4,MacIntel,60.0024001,Chrome,1440,900,,,,,0,594,,,,,,,,,,,,,,,,,F,181,star,1,0,,,,,,,,,,,,,,,,switch,letter,lettSwt,d,noRew,,,,,,0.9737,0,60,0,60,0,1,,,,,,,,,,,,,,,,,
296521,2022-11-27_20h49.14.673,vts_reward_expectancy_bt,2022.2.4,MacIntel,60.0024001,Chrome,1440,900,,,,,0,594,,,,,,,,,,,,,,,,,H,132,triangle,1,0,,,,,,,,,,,,,,,,switch,number,numSwt,j,noRew,,,,,,1.5571,0,61,0,61,0,1,,,,,,,,,,,,,,,,,
296521,2022-11-27_20h49.14.673,vts_reward_expectancy_bt,2022.2.4,MacIntel,60.0024001,Chrome,1440,900,,,,,0,594,,,,,,,,,,,,,,,,,U,174,hexagon,1,0,,,,,,,,,,,,,,,,switch,letter,lettSwt,f,noRew,,,,,,0.7509,0,62,0,62,0,1,,,,,,,,,,,,,,,,,
296521,2022-11-27_20h49.14.673,vts_reward_expectancy_bt,2022.2.4,MacIntel,60.0024001,Chrome,1440,900,,,,,0,594,,,,,,,,,,,,,,,,,S,146,circle,1,0,,,,,,,,,,,,,,,,switch,number,numSwt,j,noRew,,,,,,1.5768,0,63,0,63,0,1,,,,,,,,,,,,,,,,,
296521,2022-11-27_20h49.14.673,vts_reward_expectancy_bt,2022.2.4,MacIntel,60.0024001,Chrome,1440,900,,,,,,,,,,,,,,,,,,,,,,,,,,,,,,,,,,,,,,,,,,,,,,,,,,,,,,,,,,,,,,,,,,,,,,,,,,,,
296521,2022-11-27_20h49.14.673,vts_reward_expectancy_bt,2022.2.4,MacIntel,60.0024001,Chrome,1440,900,,,,,0,594,,,,,,,,,,,,,,,,,Y,167,star,1,0,,,,,,,,,,,,,,,,switch,letter,lettSwt,f,Hi,,,,,,1.0164,0,,,,,,space,13.1015,high,0,0,0,0,1,,,,,,,,,
296521,2022-11-27_20h49.14.673,vts_reward_expectancy_bt,2022.2.4,MacIntel,60.0024001,Chrome,1440,900,,,,,1,595,,,,,,,,,,,,,,,,,H,146,circle,1,0,,,,,,,,,,,,,,,,repeat,letter,lettRpt,d,Lo,,,,,,0.6355,0,,,,,,,,high,1,0,1,0,1,,,,,,,,,
296521,2022-11-27_20h49.14.673,vts_reward_expectancy_bt,2022.2.4,MacIntel,60.0024001,Chrome,1440,900,,,,,1,596,,,,,,,,,,,,,,,,,B,181,hexagon,1,0,,,,,,,,,,,,,,,,repeat,letter,lettRpt,d,Hi,,,,,,0.5386,0,,,,,,,,high,2,0,2,0,1,,,,,,,,,
296521,2022-11-27_20h49.14.673,vts_reward_expectancy_bt,2022.2.4,MacIntel,60.0024001,Chrome,1440,900,,,,,1,597,,,,,,,,,,,,,,,,,U,160,triangle,1,0,,,,,,,,,,,,,,,,switch,number,numSwt,k,Lo,,,,,,0.675,0,,,,,,,,high,3,0,3,0,1,,,,,,,,,
296521,2022-11-27_20h49.14.673,vts_reward_expectancy_bt,2022.2.4,MacIntel,60.0024001,Chrome,1440,900,,,,,10,607,,,,,,,,,,,,,,,,,W,139,star,1,0,,,,,,,,,,,,,,,,switch,letter,lettSwt,f,Hi,,,,,,0.6699,0,,,,,,,,high,4,0,4,0,1,,,,,,,,,
296521,2022-11-27_20h49.14.673,vts_reward_expectancy_bt,2022.2.4,MacIntel,60.0024001,Chrome,1440,900,,,,,1,608,,,,,,,,,,,,,,,,,F,132,circle,1,0,,,,,,,,,,,,,,,,switch,number,numSwt,j,Lo,,,,,,0.7508,0,,,,,,,,high,5,0,5,0,1,,,,,,,,,
296521,2022-11-27_20h49.14.673,vts_reward_expectancy_bt,2022.2.4,MacIntel,60.0024001,Chrome,1440,900,,,,,10,618,,,,,,,,,,,,,,,,,S,125,hexagon,1,0,,,,,,,,,,,,,,,,repeat,number,numRpt,j,Hi,,,,,,0.9101,0,,,,,,,,high,6,0,6,0,1,,,,,,,,,
296521,2022-11-27_20h49.14.673,vts_reward_expectancy_bt,2022.2.4,MacIntel,60.0024001,Chrome,1440,900,,,,,10,628,,,,,,,,,,,,,,,,,D,174,triangle,1,0,,,,,,,,,,,,,,,,switch,letter,lettSwt,d,Lo,,,,,,0.9363,0,,,,,,,,high,7,0,7,0,1,,,,,,,,,
296521,2022-11-27_20h49.14.673,vts_reward_expectancy_bt,2022.2.4,MacIntel,60.0024001,Chrome,1440,900,,,,,1,629,,,,,,,,,,,,,,,,,Y,167,star,1,0,,,,,,,,,,,,,,,,repeat,letter,lettRpt,f,Hi,,,,,,1.0212,0,,,,,,,,high,8,0,8,0,1,,,,,,,,,
296521,2022-11-27_20h49.14.673,vts_reward_expectancy_bt,2022.2.4,MacIntel,60.0024001,Chrome,1440,900,,,,,1,630,,,,,,,,,,,,,,,,,H,146,triangle,1,0,,,,,,,,,,,,,,,,repeat,letter,lettRpt,d,Lo,,,,,,0.5872,0,,,,,,,,high,9,0,9,0,1,,,,,,,,,
296521,2022-11-27_20h49.14.673,vts_reward_expectancy_bt,2022.2.4,MacIntel,60.0024001,Chrome,1440,900,,,,,0,630,,,,,,,,,,,,,,,,,B,181,hexagon,0,0,,,,,,,,,,,,,,,,repeat,letter,NA,f,Lo,,,,,,0.555,0,,,,,,,,high,10,0,10,0,1,,,,,,,,,
296521,2022-11-27_20h49.14.673,vts_reward_expectancy_bt,2022.2.4,MacIntel,60.0024001,Chrome,1440,900,,,,,1,631,,,,,,,,,,,,,,,,,U,160,circle,1,1,,,,,,,,,,,,,,,,repeat,letter,lettRpt,f,Lo,,,,,,0.7845,0,,,,,,,,high,11,0,11,0,1,,,,,,,,,
296521,2022-11-27_20h49.14.673,vts_reward_expectancy_bt,2022.2.4,MacIntel,60.0024001,Chrome,1440,900,,,,,10,641,,,,,,,,,,,,,,,,,W,139,hexagon,1,0,,,,,,,,,,,,,,,,repeat,letter,lettRpt,f,Hi,,,,,,0.6104,0,,,,,,,,high,12,0,12,0,1,,,,,,,,,
296521,2022-11-27_20h49.14.673,vts_reward_expectancy_bt,2022.2.4,MacIntel,60.0024001,Chrome,1440,900,,,,,1,642,,,,,,,,,,,,,,,,,F,132,triangle,1,0,,,,,,,,,,,,,,,,repeat,letter,lettRpt,d,Lo,,,,,,0.6737,0,,,,,,,,high,13,0,13,0,1,,,,,,,,,
296521,2022-11-27_20h49.14.673,vts_reward_expectancy_bt,2022.2.4,MacIntel,60.0024001,Chrome,1440,900,,,,,10,652,,,,,,,,,,,,,,,,,S,125,star,1,0,,,,,,,,,,,,,,,,repeat,letter,lettRpt,f,Hi,,,,,,0.6374,0,,,,,,,,high,14,0,14,0,1,,,,,,,,,
296521,2022-11-27_20h49.14.673,vts_reward_expectancy_bt,2022.2.4,MacIntel,60.0024001,Chrome,1440,900,,,,,1,653,,,,,,,,,,,,,,,,,D,174,circle,1,0,,,,,,,,,,,,,,,,repeat,letter,lettRpt,d,Lo,,,,,,0.7928,0,,,,,,,,high,15,0,15,0,1,,,,,,,,,
296521,2022-11-27_20h49.14.673,vts_reward_expectancy_bt,2022.2.4,MacIntel,60.0024001,Chrome,1440,900,,,,,1,654,,,,,,,,,,,,,,,,,Y,160,circle,1,0,,,,,,,,,,,,,,,,repeat,letter,lettRpt,f,Lo,,,,,,0.5987,0,,,,,,,,high,16,0,16,0,1,,,,,,,,,
296521,2022-11-27_20h49.14.673,vts_reward_expectancy_bt,2022.2.4,MacIntel,60.0024001,Chrome,1440,900,,,,,10,664,,,,,,,,,,,,,,,,,F,146,star,1,0,,,,,,,,,,,,,,,,repeat,letter,lettRpt,d,Hi,,,,,,0.789,0,,,,,,,,high,17,0,17,0,1,,,,,,,,,
296521,2022-11-27_20h49.14.673,vts_reward_expectancy_bt,2022.2.4,MacIntel,60.0024001,Chrome,1440,900,,,,,10,674,,,,,,,,,,,,,,,,,B,174,hexagon,1,0,,,,,,,,,,,,,,,,repeat,letter,lettRpt,d,Hi,,,,,,0.8196,0,,,,,,,,high,18,0,18,0,1,,,,,,,,,
296521,2022-11-27_20h49.14.673,vts_reward_expectancy_bt,2022.2.4,MacIntel,60.0024001,Chrome,1440,900,,,,,1,675,,,,,,,,,,,,,,,,,S,167,triangle,1,0,,,,,,,,,,,,,,,,repeat,letter,lettRpt,f,Lo,,,,,,0.6355,0,,,,,,,,high,19,0,19,0,1,,,,,,,,,
296521,2022-11-27_20h49.14.673,vts_reward_expectancy_bt,2022.2.4,MacIntel,60.0024001,Chrome,1440,900,,,,,1,676,,,,,,,,,,,,,,,,,H,132,circle,1,0,,,,,,,,,,,,,,,,repeat,letter,lettRpt,d,Lo,,,,,,1.009,0,,,,,,,,high,20,0,20,0,1,,,,,,,,,
296521,2022-11-27_20h49.14.673,vts_reward_expectancy_bt,2022.2.4,MacIntel,60.0024001,Chrome,1440,900,,,,,1,677,,,,,,,,,,,,,,,,,U,181,triangle,1,0,,,,,,,,,,,,,,,,repeat,letter,lettRpt,f,Lo,,,,,,0.6993,0,,,,,,,,high,21,0,21,0,1,,,,,,,,,
296521,2022-11-27_20h49.14.673,vts_reward_expectancy_bt,2022.2.4,MacIntel,60.0024001,Chrome,1440,900,,,,,10,687,,,,,,,,,,,,,,,,,W,139,hexagon,1,0,,,,,,,,,,,,,,,,repeat,letter,lettRpt,f,Hi,,,,,,0.8016,0,,,,,,,,high,22,0,22,0,1,,,,,,,,,
296521,2022-11-27_20h49.14.673,vts_reward_expectancy_bt,2022.2.4,MacIntel,60.0024001,Chrome,1440,900,,,,,1,688,,,,,,,,,,,,,,,,,D,125,star,1,0,,,,,,,,,,,,,,,,repeat,letter,lettRpt,d,Hi,,,,,,0.5665,0,,,,,,,,high,23,0,23,0,1,,,,,,,,,
296521,2022-11-27_20h49.14.673,vts_reward_expectancy_bt,2022.2.4,MacIntel,60.0024001,Chrome,1440,900,,,,,1,689,,,,,,,,,,,,,,,,,B,125,triangle,1,0,,,,,,,,,,,,,,,,repeat,letter,lettRpt,d,Lo,,,,,,1.006,0,,,,,,,,high,24,0,24,0,1,,,,,,,,,
296521,2022-11-27_20h49.14.673,vts_reward_expectancy_bt,2022.2.4,MacIntel,60.0024001,Chrome,1440,900,,,,,1,690,,,,,,,,,,,,,,,,,S,132,circle,1,0,,,,,,,,,,,,,,,,repeat,letter,lettRpt,f,Lo,,,,,,1.3696,0,,,,,,,,high,25,0,25,0,1,,,,,,,,,
296521,2022-11-27_20h49.14.673,vts_reward_expectancy_bt,2022.2.4,MacIntel,60.0024001,Chrome,1440,900,,,,,1,691,,,,,,,,,,,,,,,,,D,139,hexagon,1,0,,,,,,,,,,,,,,,,repeat,letter,lettRpt,d,Hi,,,,,,0.7351,0,,,,,,,,high,26,0,26,0,1,,,,,,,,,
296521,2022-11-27_20h49.14.673,vts_reward_expectancy_bt,2022.2.4,MacIntel,60.0024001,Chrome,1440,900,,,,,0,691,,,,,,,,,,,,,,,,,H,181,star,1,0,,,,,,,,,,,,,,,,repeat,letter,lettRpt,d,Hi,,,,,,1.7272,0,,,,,,,,high,27,0,27,0,1,,,,,,,,,
296521,2022-11-27_20h49.14.673,vts_reward_expectancy_bt,2022.2.4,MacIntel,60.0024001,Chrome,1440,900,,,,,1,692,,,,,,,,,,,,,,,,,F,167,circle,1,0,,,,,,,,,,,,,,,,repeat,letter,lettRpt,d,Lo,,,,,,0.8622,0,,,,,,,,high,28,0,28,0,1,,,,,,,,,
296521,2022-11-27_20h49.14.673,vts_reward_expectancy_bt,2022.2.4,MacIntel,60.0024001,Chrome,1440,900,,,,,10,702,,,,,,,,,,,,,,,,,U,146,hexagon,1,0,,,,,,,,,,,,,,,,repeat,letter,lettRpt,f,Hi,,,,,,0.6031,0,,,,,,,,high,29,0,29,0,1,,,,,,,,,
296521,2022-11-27_20h49.14.673,vts_reward_expectancy_bt,2022.2.4,MacIntel,60.0024001,Chrome,1440,900,,,,,1,703,,,,,,,,,,,,,,,,,Y,160,triangle,1,0,,,,,,,,,,,,,,,,repeat,letter,lettRpt,f,Lo,,,,,,1.0683,0,,,,,,,,high,30,0,30,0,1,,,,,,,,,
296521,2022-11-27_20h49.14.673,vts_reward_expectancy_bt,2022.2.4,MacIntel,60.0024001,Chrome,1440,900,,,,,10,713,,,,,,,,,,,,,,,,,W,174,star,1,0,,,,,,,,,,,,,,,,repeat,letter,lettRpt,f,Hi,,,,,,0.803,0,,,,,,,,high,31,0,31,0,1,,,,,,,,,
296521,2022-11-27_20h49.14.673,vts_reward_expectancy_bt,2022.2.4,MacIntel,60.0024001,Chrome,1440,900,,,,,0,713,,,,,,,,,,,,,,,,,H,167,hexagon,1,0,,,,,,,,,,,,,,,,repeat,letter,lettRpt,d,Hi,,,,,,0.871,1,,,,,,space,3.943,high,0,0,0,0,1,,,,,,,,,
296521,2022-11-27_20h49.14.673,vts_reward_expectancy_bt,2022.2.4,MacIntel,60.0024001,Chrome,1440,900,,,,,0,713,,,,,,,,,,,,,,,,,B,132,star,0,0,,,,,,,,,,,,,,,,repeat,letter,NA,f,Hi,,,,,,0.0552,1,,,,,,,,high,1,0,1,0,1,,,,,,,,,
296521,2022-11-27_20h49.14.673,vts_reward_expectancy_bt,2022.2.4,MacIntel,60.0024001,Chrome,1440,900,,,,,10,723,,,,,,,,,,,,,,,,,F,160,circle,1,1,,,,,,,,,,,,,,,,repeat,letter,lettRpt,d,Lo,,,,,,0.3046,1,,,,,,,,high,2,0,2,0,1,,,,,,,,,
296521,2022-11-27_20h49.14.673,vts_reward_expectancy_bt,2022.2.4,MacIntel,60.0024001,Chrome,1440,900,,,,,1,724,,,,,,,,,,,,,,,,,D,125,triangle,1,0,,,,,,,,,,,,,,,,repeat,letter,lettRpt,d,Lo,,,,,,0.087,1,,,,,,,,high,3,0,3,0,1,,,,,,,,,
296521,2022-11-27_20h49.14.673,vts_reward_expectancy_bt,2022.2.4,MacIntel,60.0024001,Chrome,1440,900,,,,,10,734,,,,,,,,,,,,,,,,,Y,174,hexagon,1,0,,,,,,,,,,,,,,,,repeat,letter,lettRpt,f,Hi,,,,,,0.5542,1,,,,,,,,high,4,0,4,0,1,,,,,,,,,
296521,2022-11-27_20h49.14.673,vts_reward_expectancy_bt,2022.2.4,MacIntel,60.0024001,Chrome,1440,900,,,,,10,744,,,,,,,,,,,,,,,,,W,146,star,1,0,,,,,,,,,,,,,,,,repeat,letter,lettRpt,f,Hi,,,,,,0.5198,1,,,,,,,,high,5,0,5,0,1,,,,,,,,,
296521,2022-11-27_20h49.14.673,vts_reward_expectancy_bt,2022.2.4,MacIntel,60.0024001,Chrome,1440,900,,,,,1,745,,,,,,,,,,,,,,,,,S,139,circle,1,0,,,,,,,,,,,,,,,,repeat,letter,lettRpt,f,Lo,,,,,,0.7095,1,,,,,,,,high,6,0,6,0,1,,,,,,,,,
296521,2022-11-27_20h49.14.673,vts_reward_expectancy_bt,2022.2.4,MacIntel,60.0024001,Chrome,1440,900,,,,,1,746,,,,,,,,,,,,,,,,,U,181,triangle,1,0,,,,,,,,,,,,,,,,repeat,letter,lettRpt,f,Lo,,,,,,0.5255,1,,,,,,,,high,7,0,7,0,1,,,,,,,,,
296521,2022-11-27_20h49.14.673,vts_reward_expectancy_bt,2022.2.4,MacIntel,60.0024001,Chrome,1440,900,,,,,1,747,,,,,,,,,,,,,,,,,H,167,circle,1,0,,,,,,,,,,,,,,,,repeat,letter,lettRpt,d,Lo,,,,,,0.789,1,,,,,,,,high,8,0,8,0,1,,,,,,,,,
296521,2022-11-27_20h49.14.673,vts_reward_expectancy_bt,2022.2.4,MacIntel,60.0024001,Chrome,1440,900,,,,,1,748,,,,,,,,,,,,,,,,,B,132,triangle,1,0,,,,,,,,,,,,,,,,repeat,letter,lettRpt,d,Lo,,,,,,0.5899,1,,,,,,,,high,9,0,9,0,1,,,,,,,,,
296521,2022-11-27_20h49.14.673,vts_reward_expectancy_bt,2022.2.4,MacIntel,60.0024001,Chrome,1440,900,,,,,0,748,,,,,,,,,,,,,,,,,F,160,star,1,0,,,,,,,,,,,,,,,,repeat,letter,lettRpt,d,Hi,,,,,,0.7284,1,,,,,,,,high,10,0,10,0,1,,,,,,,,,
296521,2022-11-27_20h49.14.673,vts_reward_expectancy_bt,2022.2.4,MacIntel,60.0024001,Chrome,1440,900,,,,,10,758,,,,,,,,,,,,,,,,,D,125,hexagon,1,0,,,,,,,,,,,,,,,,repeat,letter,lettRpt,d,Hi,,,,,,0.5889,1,,,,,,,,high,11,0,11,0,1,,,,,,,,,
296521,2022-11-27_20h49.14.673,vts_reward_expectancy_bt,2022.2.4,MacIntel,60.0024001,Chrome,1440,900,,,,,0,758,,,,,,,,,,,,,,,,,Y,174,star,1,0,,,,,,,,,,,,,,,,repeat,letter,lettRpt,f,Hi,,,,,,0.7242,1,,,,,,,,high,12,0,12,0,1,,,,,,,,,
296521,2022-11-27_20h49.14.673,vts_reward_expectancy_bt,2022.2.4,MacIntel,60.0024001,Chrome,1440,900,,,,,1,759,,,,,,,,,,,,,,,,,W,146,triangle,1,0,,,,,,,,,,,,,,,,repeat,letter,lettRpt,f,Lo,,,,,,0.6584,1,,,,,,,,high,13,0,13,0,1,,,,,,,,,
296521,2022-11-27_20h49.14.673,vts_reward_expectancy_bt,2022.2.4,MacIntel,60.0024001,Chrome,1440,900,,,,,1,760,,,,,,,,,,,,,,,,,S,139,circle,1,0,,,,,,,,,,,,,,,,repeat,letter,lettRpt,f,Lo,,,,,,0.6707,1,,,,,,,,high,14,0,14,0,1,,,,,,,,,
296521,2022-11-27_20h49.14.673,vts_reward_expectancy_bt,2022.2.4,MacIntel,60.0024001,Chrome,1440,900,,,,,10,770,,,,,,,,,,,,,,,,,U,181,hexagon,1,0,,,,,,,,,,,,,,,,repeat,letter,lettRpt,f,Hi,,,,,,0.5549,1,,,,,,,,high,15,0,15,0,1,,,,,,,,,
296521,2022-11-27_20h49.14.673,vts_reward_expectancy_bt,2022.2.4,MacIntel,60.0024001,Chrome,1440,900,,,,,10,780,,,,,,,,,,,,,,,,,U,146,hexagon,1,0,,,,,,,,,,,,,,,,repeat,letter,lettRpt,f,Hi,,,,,,0.5751,1,,,,,,,,high,16,0,16,0,1,,,,,,,,,
296521,2022-11-27_20h49.14.673,vts_reward_expectancy_bt,2022.2.4,MacIntel,60.0024001,Chrome,1440,900,,,,,1,781,,,,,,,,,,,,,,,,,B,167,circle,1,0,,,,,,,,,,,,,,,,repeat,letter,lettRpt,d,Lo,,,,,,0.6951,1,,,,,,,,high,17,0,17,0,1,,,,,,,,,
296521,2022-11-27_20h49.14.673,vts_reward_expectancy_bt,2022.2.4,MacIntel,60.0024001,Chrome,1440,900,,,,,1,782,,,,,,,,,,,,,,,,,H,160,triangle,1,0,,,,,,,,,,,,,,,,repeat,letter,lettRpt,d,Lo,,,,,,1.2872,1,,,,,,,,high,18,0,18,0,1,,,,,,,,,
296521,2022-11-27_20h49.14.673,vts_reward_expectancy_bt,2022.2.4,MacIntel,60.0024001,Chrome,1440,900,,,,,0,782,,,,,,,,,,,,,,,,,D,139,star,0,0,,,,,,,,,,,,,,,,repeat,letter,NA,f,Lo,,,,,,0.6192,1,,,,,,,,high,19,0,19,0,1,,,,,,,,,
296521,2022-11-27_20h49.14.673,vts_reward_expectancy_bt,2022.2.4,MacIntel,60.0024001,Chrome,1440,900,,,,,1,783,,,,,,,,,,,,,,,,,S,181,circle,1,1,,,,,,,,,,,,,,,,repeat,letter,lettRpt,f,Lo,,,,,,1.722,1,,,,,,,,high,20,0,20,0,1,,,,,,,,,
296521,2022-11-27_20h49.14.673,vts_reward_expectancy_bt,2022.2.4,MacIntel,60.0024001,Chrome,1440,900,,,,,0,783,,,,,,,,,,,,,,,,,Y,174,hexagon,1,0,,,,,,,,,,,,,,,,repeat,letter,lettRpt,f,Hi,,,,,,0.6456,1,,,,,,,,high,21,0,21,0,1,,,,,,,,,
296521,2022-11-27_20h49.14.673,vts_reward_expectancy_bt,2022.2.4,MacIntel,60.0024001,Chrome,1440,900,,,,,0,783,,,,,,,,,,,,,,,,,W,132,star,1,0,,,,,,,,,,,,,,,,repeat,letter,lettRpt,f,Hi,,,,,,1.7272,1,,,,,,,,high,22,0,22,0,1,,,,,,,,,
296521,2022-11-27_20h49.14.673,vts_reward_expectancy_bt,2022.2.4,MacIntel,60.0024001,Chrome,1440,900,,,,,0,783,,,,,,,,,,,,,,,,,F,125,triangle,0,0,,,,,,,,,,,,,,,,repeat,letter,NA,f,Hi,,,,,,0.0005,1,,,,,,,,high,23,0,23,0,1,,,,,,,,,
296521,2022-11-27_20h49.14.673,vts_reward_expectancy_bt,2022.2.4,MacIntel,60.0024001,Chrome,1440,900,,,,,0,783,,,,,,,,,,,,,,,,,B,174,star,0,1,,,,,,,,,,,,,,,,repeat,letter,NA,f,Hi,,,,,,0.3209,1,,,,,,,,high,24,0,24,0,1,,,,,,,,,
296521,2022-11-27_20h49.14.673,vts_reward_expectancy_bt,2022.2.4,MacIntel,60.0024001,Chrome,1440,900,,,,,1,784,,,,,,,,,,,,,,,,,U,139,circle,1,1,,,,,,,,,,,,,,,,repeat,letter,lettRpt,f,Lo,,,,,,0.7117,1,,,,,,,,high,25,0,25,0,1,,,,,,,,,
296521,2022-11-27_20h49.14.673,vts_reward_expectancy_bt,2022.2.4,MacIntel,60.0024001,Chrome,1440,900,,,,,10,794,,,,,,,,,,,,,,,,,W,181,hexagon,1,0,,,,,,,,,,,,,,,,repeat,letter,lettRpt,f,Hi,,,,,,0.0551,1,,,,,,,,high,26,0,26,0,1,,,,,,,,,
296521,2022-11-27_20h49.14.673,vts_reward_expectancy_bt,2022.2.4,MacIntel,60.0024001,Chrome,1440,900,,,,,10,804,,,,,,,,,,,,,,,,,Y,125,triangle,1,0,,,,,,,,,,,,,,,,repeat,letter,lettRpt,f,Lo,,,,,,0.1239,1,,,,,,,,high,27,0,27,0,1,,,,,,,,,
296521,2022-11-27_20h49.14.673,vts_reward_expectancy_bt,2022.2.4,MacIntel,60.0024001,Chrome,1440,900,,,,,1,805,,,,,,,,,,,,,,,,,S,146,triangle,1,0,,,,,,,,,,,,,,,,repeat,letter,lettRpt,f,Lo,,,,,,0.1083,1,,,,,,,,high,28,0,28,0,1,,,,,,,,,
296521,2022-11-27_20h49.14.673,vts_reward_expectancy_bt,2022.2.4,MacIntel,60.0024001,Chrome,1440,900,,,,,0,805,,,,,,,,,,,,,,,,,H,167,circle,0,0,,,,,,,,,,,,,,,,repeat,letter,NA,f,Lo,,,,,,0.4121,1,,,,,,,,high,29,0,29,0,1,,,,,,,,,
296521,2022-11-27_20h49.14.673,vts_reward_expectancy_bt,2022.2.4,MacIntel,60.0024001,Chrome,1440,900,,,,,0,805,,,,,,,,,,,,,,,,,D,160,star,0,1,,,,,,,,,,,,,,,,repeat,letter,NA,f,Lo,,,,,,0.1559,1,,,,,,,,high,30,0,30,0,1,,,,,,,,,
296521,2022-11-27_20h49.14.673,vts_reward_expectancy_bt,2022.2.4,MacIntel,60.0024001,Chrome,1440,900,,,,,0,805,,,,,,,,,,,,,,,,,F,132,hexagon,0,1,,,,,,,,,,,,,,,,repeat,letter,NA,f,Lo,,,,,,0.4087,1,,,,,,,,high,31,0,31,0,1,,,,,,,,,
296521,2022-11-27_20h49.14.673,vts_reward_expectancy_bt,2022.2.4,MacIntel,60.0024001,Chrome,1440,900,,,,,1,806,,,,,,,,,,,,,,,,,Y,174,circle,1,1,,,,,,,,,,,,,,,,repeat,letter,lettRpt,f,Lo,,,,,,0.3379,2,,,,,,space,1.3577,high,0,0,0,0,1,,,,,,,,,
296521,2022-11-27_20h49.14.673,vts_reward_expectancy_bt,2022.2.4,MacIntel,60.0024001,Chrome,1440,900,,,,,0,806,,,,,,,,,,,,,,,,,U,139,star,1,0,,,,,,,,,,,,,,,,repeat,letter,lettRpt,f,Hi,,,,,,1.214,2,,,,,,,,high,1,0,1,0,1,,,,,,,,,
296521,2022-11-27_20h49.14.673,vts_reward_expectancy_bt,2022.2.4,MacIntel,60.0024001,Chrome,1440,900,,,,,1,807,,,,,,,,,,,,,,,,,W,181,triangle,1,0,,,,,,,,,,,,,,,,repeat,letter,lettRpt,f,Lo,,,,,,0.3913,2,,,,,,,,high,2,0,2,0,1,,,,,,,,,
296521,2022-11-27_20h49.14.673,vts_reward_expectancy_bt,2022.2.4,MacIntel,60.0024001,Chrome,1440,900,,,,,10,817,,,,,,,,,,,,,,,,,S,146,hexagon,1,0,,,,,,,,,,,,,,,,repeat,letter,lettRpt,f,Hi,,,,,,0.3722,2,,,,,,,,high,3,0,3,0,1,,,,,,,,,
296521,2022-11-27_20h49.14.673,vts_reward_expectancy_bt,2022.2.4,MacIntel,60.0024001,Chrome,1440,900,,,,,0,817,,,,,,,,,,,,,,,,,B,132,circle,0,0,,,,,,,,,,,,,,,,repeat,letter,NA,f,Hi,,,,,,0.7218,2,,,,,,,,high,4,0,4,0,1,,,,,,,,,
296521,2022-11-27_20h49.14.673,vts_reward_expectancy_bt,2022.2.4,MacIntel,60.0024001,Chrome,1440,900,,,,,0,817,,,,,,,,,,,,,,,,,F,125,star,0,1,,,,,,,,,,,,,,,,repeat,letter,NA,f,Hi,,,,,,1.3368,2,,,,,,,,high,5,0,5,0,1,,,,,,,,,
296521,2022-11-27_20h49.14.673,vts_reward_expectancy_bt,2022.2.4,MacIntel,60.0024001,Chrome,1440,900,,,,,0,817,,,,,,,,,,,,,,,,,H,160,triangle,0,1,,,,,,,,,,,,,,,,repeat,letter,NA,f,Hi,,,,,,0.8247,2,,,,,,,,high,6,0,6,0,1,,,,,,,,,
296521,2022-11-27_20h49.14.673,vts_reward_expectancy_bt,2022.2.4,MacIntel,60.0024001,Chrome,1440,900,,,,,0,817,,,,,,,,,,,,,,,,,D,167,hexagon,0,1,,,,,,,,,,,,,,,,repeat,letter,NA,f,Hi,,,,,,1.5241,2,,,,,,,,high,7,0,7,0,1,,,,,,,,,
296521,2022-11-27_20h49.14.673,vts_reward_expectancy_bt,2022.2.4,MacIntel,60.0024001,Chrome,1440,900,,,,,10,827,,,,,,,,,,,,,,,,,Y,174,star,1,1,,,,,,,,,,,,,,,,repeat,letter,lettRpt,f,Hi,,,,,,0.5087,2,,,,,,,,high,8,0,8,0,1,,,,,,,,,
296521,2022-11-27_20h49.14.673,vts_reward_expectancy_bt,2022.2.4,MacIntel,60.0024001,Chrome,1440,900,,,,,0,827,,,,,,,,,,,,,,,,,U,139,hexagon,1,0,,,,,,,,,,,,,,,,repeat,letter,lettRpt,f,Hi,,,,,,0.7076,2,,,,,,,,high,9,0,9,0,1,,,,,,,,,
296521,2022-11-27_20h49.14.673,vts_reward_expectancy_bt,2022.2.4,MacIntel,60.0024001,Chrome,1440,900,,,,,1,828,,,,,,,,,,,,,,,,,W,181,circle,1,0,,,,,,,,,,,,,,,,repeat,letter,lettRpt,f,Lo,,,,,,0.3088,2,,,,,,,,high,10,0,10,0,1,,,,,,,,,
296521,2022-11-27_20h49.14.673,vts_reward_expectancy_bt,2022.2.4,MacIntel,60.0024001,Chrome,1440,900,,,,,1,829,,,,,,,,,,,,,,,,,S,146,triangle,1,0,,,,,,,,,,,,,,,,repeat,letter,lettRpt,f,Lo,,,,,,0.6551,2,,,,,,,,high,11,0,11,0,1,,,,,,,,,
296521,2022-11-27_20h49.14.673,vts_reward_expectancy_bt,2022.2.4,MacIntel,60.0024001,Chrome,1440,900,,,,,0,829,,,,,,,,,,,,,,,,,B,132,star,0,0,,,,,,,,,,,,,,,,repeat,letter,NA,f,Lo,,,,,,0.4413,2,,,,,,,,high,12,0,12,0,1,,,,,,,,,
296521,2022-11-27_20h49.14.673,vts_reward_expectancy_bt,2022.2.4,MacIntel,60.0024001,Chrome,1440,900,,,,,0,829,,,,,,,,,,,,,,,,,F,125,hexagon,0,1,,,,,,,,,,,,,,,,repeat,letter,NA,f,Lo,,,,,,0.3737,2,,,,,,,,high,13,0,13,0,1,,,,,,,,,
296521,2022-11-27_20h49.14.673,vts_reward_expectancy_bt,2022.2.4,MacIntel,60.0024001,Chrome,1440,900,,,,,0,829,,,,,,,,,,,,,,,,,H,160,circle,0,1,,,,,,,,,,,,,,,,repeat,letter,NA,f,Lo,,,,,,0.6063,2,,,,,,,,high,14,0,14,0,1,,,,,,,,,
296521,2022-11-27_20h49.14.673,vts_reward_expectancy_bt,2022.2.4,MacIntel,60.0024001,Chrome,1440,900,,,,,0,829,,,,,,,,,,,,,,,,,D,167,triangle,0,1,,,,,,,,,,,,,,,,repeat,letter,NA,f,Lo,,,,,,0.106,2,,,,,,,,high,15,0,15,0,1,,,,,,,,,
296521,2022-11-27_20h49.14.673,vts_reward_expectancy_bt,2022.2.4,MacIntel,60.0024001,Chrome,1440,900,,,,,0,829,,,,,,,,,,,,,,,,,B,146,circle,0,1,,,,,,,,,,,,,,,,repeat,letter,NA,f,Lo,,,,,,0.4576,2,,,,,,,,high,16,0,16,0,1,,,,,,,,,
296521,2022-11-27_20h49.14.673,vts_reward_expectancy_bt,2022.2.4,MacIntel,60.0024001,Chrome,1440,900,,,,,0,829,,,,,,,,,,,,,,,,,H,125,hexagon,0,1,,,,,,,,,,,,,,,,repeat,letter,NA,f,Lo,,,,,,0.2737,2,,,,,,,,high,17,0,17,0,1,,,,,,,,,
296521,2022-11-27_20h49.14.673,vts_reward_expectancy_bt,2022.2.4,MacIntel,60.0024001,Chrome,1440,900,,,,,1,830,,,,,,,,,,,,,,,,,U,139,triangle,1,1,,,,,,,,,,,,,,,,repeat,letter,lettRpt,f,Lo,,,,,,0.723,2,,,,,,,,high,18,0,18,0,1,,,,,,,,,
296521,2022-11-27_20h49.14.673,vts_reward_expectancy_bt,2022.2.4,MacIntel,60.0024001,Chrome,1440,900,,,,,1,831,,,,,,,,,,,,,,,,,S,181,star,1,0,,,,,,,,,,,,,,,,repeat,letter,lettRpt,f,Hi,,,,,,0.1892,2,,,,,,,,high,19,0,19,0,1,,,,,,,,,
296521,2022-11-27_20h49.14.673,vts_reward_expectancy_bt,2022.2.4,MacIntel,60.0024001,Chrome,1440,900,,,,,1,832,,,,,,,,,,,,,,,,,W,132,hexagon,1,0,,,,,,,,,,,,,,,,repeat,letter,lettRpt,f,Hi,,,,,,0.4257,2,,,,,,,,high,20,0,20,0,1,,,,,,,,,
296521,2022-11-27_20h49.14.673,vts_reward_expectancy_bt,2022.2.4,MacIntel,60.0024001,Chrome,1440,900,,,,,0,832,,,,,,,,,,,,,,,,,F,174,circle,0,0,,,,,,,,,,,,,,,,repeat,letter,NA,f,Hi,,,,,,0.59,2,,,,,,,,high,21,0,21,0,1,,,,,,,,,
296521,2022-11-27_20h49.14.673,vts_reward_expectancy_bt,2022.2.4,MacIntel,60.0024001,Chrome,1440,900,,,,,0,832,,,,,,,,,,,,,,,,,D,167,triangle,0,1,,,,,,,,,,,,,,,,repeat,letter,NA,f,Hi,,,,,,2.1567,2,,,,,,,,high,22,0,22,0,1,,,,,,,,,
296521,2022-11-27_20h49.14.673,vts_reward_expectancy_bt,2022.2.4,MacIntel,60.0024001,Chrome,1440,900,,,,,10,842,,,,,,,,,,,,,,,,,Y,160,star,1,1,,,,,,,,,,,,,,,,repeat,letter,lettRpt,f,Hi,,,,,,0.4372,2,,,,,,,,high,23,0,23,0,1,,,,,,,,,
296521,2022-11-27_20h49.14.673,vts_reward_expectancy_bt,2022.2.4,MacIntel,60.0024001,Chrome,1440,900,,,,,0,842,,,,,,,,,,,,,,,,,B,174,star,0,0,,,,,,,,,,,,,,,,repeat,letter,NA,f,Hi,,,,,,0.4066,2,,,,,,,,high,24,0,24,0,1,,,,,,,,,
296521,2022-11-27_20h49.14.673,vts_reward_expectancy_bt,2022.2.4,MacIntel,60.0024001,Chrome,1440,900,,,,,1,843,,,,,,,,,,,,,,,,,Y,125,triangle,1,1,,,,,,,,,,,,,,,,repeat,letter,lettRpt,f,Lo,,,,,,0.278,2,,,,,,,,high,25,0,25,0,1,,,,,,,,,
296521,2022-11-27_20h49.14.673,vts_reward_expectancy_bt,2022.2.4,MacIntel,60.0024001,Chrome,1440,900,,,,,10,853,,,,,,,,,,,,,,,,,W,132,circle,1,0,,,,,,,,,,,,,,,,repeat,letter,lettRpt,f,Lo,,,,,,0.4725,2,,,,,,,,high,26,0,26,0,1,,,,,,,,,
296521,2022-11-27_20h49.14.673,vts_reward_expectancy_bt,2022.2.4,MacIntel,60.0024001,Chrome,1440,900,,,,,0,853,,,,,,,,,,,,,,,,,D,160,hexagon,0,0,,,,,,,,,,,,,,,,repeat,letter,NA,f,Lo,,,,,,0.2129,2,,,,,,,,high,27,0,27,0,1,,,,,,,,,
296521,2022-11-27_20h49.14.673,vts_reward_expectancy_bt,2022.2.4,MacIntel,60.0024001,Chrome,1440,900,,,,,0,853,,,,,,,,,,,,,,,,,H,167,circle,0,1,,,,,,,,,,,,,,,,repeat,letter,NA,f,Lo,,,,,,0.3141,2,,,,,,,,high,28,0,28,0,1,,,,,,,,,
296521,2022-11-27_20h49.14.673,vts_reward_expectancy_bt,2022.2.4,MacIntel,60.0024001,Chrome,1440,900,,,,,1,854,,,,,,,,,,,,,,,,,S,146,hexagon,1,1,,,,,,,,,,,,,,,,repeat,letter,lettRpt,f,Hi,,,,,,0.0217,2,,,,,,,,high,29,0,29,0,1,,,,,,,,,
296521,2022-11-27_20h49.14.673,vts_reward_expectancy_bt,2022.2.4,MacIntel,60.0024001,Chrome,1440,900,,,,,10,864,,,,,,,,,,,,,,,,,U,181,star,1,0,,,,,,,,,,,,,,,,repeat,letter,lettRpt,f,Hi,,,,,,0.3892,2,,,,,,,,high,30,0,30,0,1,,,,,,,,,
296521,2022-11-27_20h49.14.673,vts_reward_expectancy_bt,2022.2.4,MacIntel,60.0024001,Chrome,1440,900,,,,,0,864,,,,,,,,,,,,,,,,,F,139,triangle,0,0,,,,,,,,,,,,,,,,repeat,letter,NA,f,Hi,,,,,,0.047,2,,,,,,,,high,31,0,31,0,1,,,,,,,,,
296521,2022-11-27_20h49.14.673,vts_reward_expectancy_bt,2022.2.4,MacIntel,60.0024001,Chrome,1440,900,,,,,1,865,,,,,,,,,,,,,,,,,F,125,circle,1,1,,,,,,,,,,,,,,,,repeat,letter,lettRpt,d,Lo,,,,,,0.589,3,,,,,,space,0.9115,high,0,0,0,0,1,,,,,,,,,
296521,2022-11-27_20h49.14.673,vts_reward_expectancy_bt,2022.2.4,MacIntel,60.0024001,Chrome,1440,900,,,,,0,865,,,,,,,,,,,,,,,,,D,174,hexagon,1,0,,,,,,,,,,,,,,,,repeat,letter,lettRpt,d,Hi,,,,,,0.9882,3,,,,,,,,high,1,0,1,0,1,,,,,,,,,
296521,2022-11-27_20h49.14.673,vts_reward_expectancy_bt,2022.2.4,MacIntel,60.0024001,Chrome,1440,900,,,,,0,865,,,,,,,,,,,,,,,,,S,146,star,0,0,,,,,,,,,,,,,,,,repeat,letter,NA,d,Hi,,,,,,0.3125,3,,,,,,,,high,2,0,2,0,1,,,,,,,,,
296521,2022-11-27_20h49.14.673,vts_reward_expectancy_bt,2022.2.4,MacIntel,60.0024001,Chrome,1440,900,,,,,0,865,,,,,,,,,,,,,,,,,Y,167,triangle,0,1,,,,,,,,,,,,,,,,repeat,letter,NA,d,Hi,,,,,,0.3373,3,,,,,,,,high,3,0,3,0,1,,,,,,,,,
296521,2022-11-27_20h49.14.673,vts_reward_expectancy_bt,2022.2.4,MacIntel,60.0024001,Chrome,1440,900,,,,,10,875,,,,,,,,,,,,,,,,,B,132,circle,1,1,,,,,,,,,,,,,,,,repeat,letter,lettRpt,d,Lo,,,,,,0.8285,3,,,,,,,,high,4,0,4,0,1,,,,,,,,,
296521,2022-11-27_20h49.14.673,vts_reward_expectancy_bt,2022.2.4,MacIntel,60.0024001,Chrome,1440,900,,,,,0,875,,,,,,,,,,,,,,,,,U,160,hexagon,0,0,,,,,,,,,,,,,,,,repeat,letter,NA,d,Lo,,,,,,0.5275,3,,,,,,,,high,5,0,5,0,1,,,,,,,,,
296521,2022-11-27_20h49.14.673,vts_reward_expectancy_bt,2022.2.4,MacIntel,60.0024001,Chrome,1440,900,,,,,0,875,,,,,,,,,,,,,,,,,H,139,star,1,1,,,,,,,,,,,,,,,,repeat,letter,lettRpt,d,Hi,,,,,,0.3734,3,,,,,,,,high,6,0,6,0,1,,,,,,,,,
296521,2022-11-27_20h49.14.673,vts_reward_expectancy_bt,2022.2.4,MacIntel,60.0024001,Chrome,1440,900,,,,,1,876,,,,,,,,,,,,,,,,,W,181,triangle,1,0,,,,,,,,,,,,,,,,repeat,letter,lettRpt,f,Lo,,,,,,0.6567,3,,,,,,,,high,7,0,7,0,1,,,,,,,,,
296521,2022-11-27_20h49.14.673,vts_reward_expectancy_bt,2022.2.4,MacIntel,60.0024001,Chrome,1440,900,,,,,0,876,,,,,,,,,,,,,,,,,F,125,hexagon,1,0,,,,,,,,,,,,,,,,repeat,letter,lettRpt,d,Hi,,,,,,0.6826,3,,,,,,,,high,8,0,8,0,1,,,,,,,,,
296521,2022-11-27_20h49.14.673,vts_reward_expectancy_bt,2022.2.4,MacIntel,60.0024001,Chrome,1440,900,,,,,1,877,,,,,,,,,,,,,,,,,D,174,circle,1,0,,,,,,,,,,,,,,,,repeat,letter,lettRpt,d,Lo,,,,,,0.6643,3,,,,,,,,high,9,0,9,0,1,,,,,,,,,
296521,2022-11-27_20h49.14.673,vts_reward_expectancy_bt,2022.2.4,MacIntel,60.0024001,Chrome,1440,900,,,,,0,877,,,,,,,,,,,,,,,,,S,146,star,1,0,,,,,,,,,,,,,,,,repeat,letter,lettRpt,f,Hi,,,,,,0.7315,3,,,,,,,,high,10,0,10,0,1,,,,,,,,,
296521,2022-11-27_20h49.14.673,vts_reward_expectancy_bt,2022.2.4,MacIntel,60.0024001,Chrome,1440,900,,,,,1,878,,,,,,,,,,,,,,,,,Y,167,triangle,1,0,,,,,,,,,,,,,,,,repeat,letter,lettRpt,f,Lo,,,,,,0.7587,3,,,,,,,,high,11,0,11,0,1,,,,,,,,,
296521,2022-11-27_20h49.14.673,vts_reward_expectancy_bt,2022.2.4,MacIntel,60.0024001,Chrome,1440,900,,,,,0,878,,,,,,,,,,,,,,,,,B,132,hexagon,1,0,,,,,,,,,,,,,,,,repeat,letter,lettRpt,d,Hi,,,,,,0.7569,3,,,,,,,,high,12,0,12,0,1,,,,,,,,,
296521,2022-11-27_20h49.14.673,vts_reward_expectancy_bt,2022.2.4,MacIntel,60.0024001,Chrome,1440,900,,,,,10,888,,,,,,,,,,,,,,,,,U,160,circle,1,0,,,,,,,,,,,,,,,,repeat,letter,lettRpt,f,Lo,,,,,,0.5782,3,,,,,,,,high,13,0,13,0,1,,,,,,,,,
296521,2022-11-27_20h49.14.673,vts_reward_expectancy_bt,2022.2.4,MacIntel,60.0024001,Chrome,1440,900,,,,,0,888,,,,,,,,,,,,,,,,,H,139,star,0,0,,,,,,,,,,,,,,,,repeat,letter,NA,f,Lo,,,,,,0.9986,3,,,,,,,,high,14,0,14,0,1,,,,,,,,,
296521,2022-11-27_20h49.14.673,vts_reward_expectancy_bt,2022.2.4,MacIntel,60.0024001,Chrome,1440,900,,,,,10,898,,,,,,,,,,,,,,,,,W,181,triangle,1,1,,,,,,,,,,,,,,,,repeat,letter,lettRpt,f,Lo,,,,,,0.6751,3,,,,,,,,high,15,0,15,0,1,,,,,,,,,
296521,2022-11-27_20h49.14.673,vts_reward_expectancy_bt,2022.2.4,MacIntel,60.0024001,Chrome,1440,900,,,,,1,899,,,,,,,,,,,,,,,,,F,181,circle,1,0,,,,,,,,,,,,,,,,repeat,letter,lettRpt,d,Lo,,,,,,0.7572,3,,,,,,,,high,16,0,16,0,1,,,,,,,,,
296521,2022-11-27_20h49.14.673,vts_reward_expectancy_bt,2022.2.4,MacIntel,60.0024001,Chrome,1440,900,,,,,0,899,,,,,,,,,,,,,,,,,S,139,star,1,0,,,,,,,,,,,,,,,,repeat,letter,lettRpt,f,Hi,,,,,,0.707,3,,,,,,,,high,17,0,17,0,1,,,,,,,,,
296521,2022-11-27_20h49.14.673,vts_reward_expectancy_bt,2022.2.4,MacIntel,60.0024001,Chrome,1440,900,,,,,1,900,,,,,,,,,,,,,,,,,H,174,triangle,1,0,,,,,,,,,,,,,,,,repeat,letter,lettRpt,d,Lo,,,,,,1.0241,3,,,,,,,,high,18,0,18,0,1,,,,,,,,,
296521,2022-11-27_20h49.14.673,vts_reward_expectancy_bt,2022.2.4,MacIntel,60.0024001,Chrome,1440,900,,,,,0,900,,,,,,,,,,,,,,,,,B,125,hexagon,1,0,,,,,,,,,,,,,,,,repeat,letter,lettRpt,d,Hi,,,,,,0.8789,3,,,,,,,,high,19,0,19,0,1,,,,,,,,,
296521,2022-11-27_20h49.14.673,vts_reward_expectancy_bt,2022.2.4,MacIntel,60.0024001,Chrome,1440,900,,,,,1,901,,,,,,,,,,,,,,,,,U,160,circle,1,0,,,,,,,,,,,,,,,,repeat,letter,lettRpt,f,Lo,,,,,,1.2084,3,,,,,,,,high,20,0,20,0,1,,,,,,,,,
296521,2022-11-27_20h49.14.673,vts_reward_expectancy_bt,2022.2.4,MacIntel,60.0024001,Chrome,1440,900,,,,,1,902,,,,,,,,,,,,,,,,,Y,167,triangle,1,0,,,,,,,,,,,,,,,,repeat,letter,lettRpt,f,Lo,,,,,,0.7231,3,,,,,,,,high,21,0,21,0,1,,,,,,,,,
296521,2022-11-27_20h49.14.673,vts_reward_expectancy_bt,2022.2.4,MacIntel,60.0024001,Chrome,1440,900,,,,,0,902,,,,,,,,,,,,,,,,,D,132,star,0,0,,,,,,,,,,,,,,,,repeat,letter,NA,f,Lo,,,,,,0.8577,3,,,,,,,,high,22,0,22,0,1,,,,,,,,,
296521,2022-11-27_20h49.14.673,vts_reward_expectancy_bt,2022.2.4,MacIntel,60.0024001,Chrome,1440,900,,,,,0,902,,,,,,,,,,,,,,,,,W,146,hexagon,1,1,,,,,,,,,,,,,,,,repeat,letter,lettRpt,f,Hi,,,,,,0.8581,3,,,,,,,,high,23,0,23,0,1,,,,,,,,,
296521,2022-11-27_20h49.14.673,vts_reward_expectancy_bt,2022.2.4,MacIntel,60.0024001,Chrome,1440,900,,,,,0,902,,,,,,,,,,,,,,,,,U,125,circle,0,0,,,,,,,,,,,,,,,,repeat,letter,NA,d,Hi,,,,,,0.2071,3,,,,,,,,high,24,0,24,0,1,,,,,,,,,
296521,2022-11-27_20h49.14.673,vts_reward_expectancy_bt,2022.2.4,MacIntel,60.0024001,Chrome,1440,900,,,,,0,902,,,,,,,,,,,,,,,,,D,181,triangle,0,1,,,,,,,,,,,,,,,,repeat,letter,NA,f,Hi,,,,,,0.4581,3,,,,,,,,high,25,0,25,0,1,,,,,,,,,
296521,2022-11-27_20h49.14.673,vts_reward_expectancy_bt,2022.2.4,MacIntel,60.0024001,Chrome,1440,900,,,,,0,902,,,,,,,,,,,,,,,,,B,167,star,1,1,,,,,,,,,,,,,,,,repeat,letter,lettRpt,d,Hi,,,,,,0.623,3,,,,,,,,high,26,0,26,0,1,,,,,,,,,
296521,2022-11-27_20h49.14.673,vts_reward_expectancy_bt,2022.2.4,MacIntel,60.0024001,Chrome,1440,900,,,,,0,902,,,,,,,,,,,,,,,,,W,139,hexagon,1,0,,,,,,,,,,,,,,,,repeat,letter,lettRpt,f,Hi,,,,,,1.4603,3,,,,,,,,high,27,0,27,0,1,,,,,,,,,
296521,2022-11-27_20h49.14.673,vts_reward_expectancy_bt,2022.2.4,MacIntel,60.0024001,Chrome,1440,900,,,,,0,902,,,,,,,,,,,,,,,,,H,132,star,1,0,,,,,,,,,,,,,,,,repeat,letter,lettRpt,d,Hi,,,,,,1.2229,3,,,,,,,,high,28,0,28,0,1,,,,,,,,,
296521,2022-11-27_20h49.14.673,vts_reward_expectancy_bt,2022.2.4,MacIntel,60.0024001,Chrome,1440,900,,,,,0,902,,,,,,,,,,,,,,,,,F,146,hexagon,1,0,,,,,,,,,,,,,,,,repeat,letter,lettRpt,d,Hi,,,,,,1.246,3,,,,,,,,high,29,0,29,0,1,,,,,,,,,
296521,2022-11-27_20h49.14.673,vts_reward_expectancy_bt,2022.2.4,MacIntel,60.0024001,Chrome,1440,900,,,,,1,903,,,,,,,,,,,,,,,,,Y,160,circle,1,0,,,,,,,,,,,,,,,,repeat,letter,lettRpt,f,Lo,,,,,,0.6573,3,,,,,,,,high,30,0,30,0,1,,,,,,,,,
296521,2022-11-27_20h49.14.673,vts_reward_expectancy_bt,2022.2.4,MacIntel,60.0024001,Chrome,1440,900,,,,,1,904,,,,,,,,,,,,,,,,,S,174,triangle,1,0,,,,,,,,,,,,,,,,repeat,letter,lettRpt,f,Lo,,,,,,0.7398,3,,,,,,,,high,31,0,31,0,1,,,,,,,,,
296521,2022-11-27_20h49.14.673,vts_reward_expectancy_bt,2022.2.4,MacIntel,60.0024001,Chrome,1440,900,,,,,1,905,,,,,,,,,,,,,,,,,B,181,circle,1,0,,,,,,,,,,,,,,,,repeat,letter,lettRpt,d,Lo,,,,,,0.8256,4,,,,,,space,9.6618,high,0,0,0,0,1,,,,,,,,,
296521,2022-11-27_20h49.14.673,vts_reward_expectancy_bt,2022.2.4,MacIntel,60.0024001,Chrome,1440,900,,,,,10,915,,,,,,,,,,,,,,,,,Y,174,star,1,0,,,,,,,,,,,,,,,,repeat,letter,lettRpt,f,Hi,,,,,,0.5365,4,,,,,,,,high,1,0,1,0,1,,,,,,,,,
296521,2022-11-27_20h49.14.673,vts_reward_expectancy_bt,2022.2.4,MacIntel,60.0024001,Chrome,1440,900,,,,,10,925,,,,,,,,,,,,,,,,,H,139,hexagon,1,0,,,,,,,,,,,,,,,,repeat,letter,lettRpt,d,Hi,,,,,,0.6699,4,,,,,,,,high,2,0,2,0,1,,,,,,,,,
296521,2022-11-27_20h49.14.673,vts_reward_expectancy_bt,2022.2.4,MacIntel,60.0024001,Chrome,1440,900,,,,,1,926,,,,,,,,,,,,,,,,,F,160,triangle,1,0,,,,,,,,,,,,,,,,repeat,letter,lettRpt,d,Lo,,,,,,0.6039,4,,,,,,,,high,3,0,3,0,1,,,,,,,,,
296521,2022-11-27_20h49.14.673,vts_reward_expectancy_bt,2022.2.4,MacIntel,60.0024001,Chrome,1440,900,,,,,0,926,,,,,,,,,,,,,,,,,S,146,circle,0,0,,,,,,,,,,,,,,,,repeat,letter,NA,d,Lo,,,,,,0.5417,4,,,,,,,,high,4,0,4,0,1,,,,,,,,,
296521,2022-11-27_20h49.14.673,vts_reward_expectancy_bt,2022.2.4,MacIntel,60.0024001,Chrome,1440,900,,,,,10,936,,,,,,,,,,,,,,,,,D,132,star,1,1,,,,,,,,,,,,,,,,repeat,letter,lettRpt,d,Hi,,,,,,0.6153,4,,,,,,,,high,5,0,5,0,1,,,,,,,,,
296521,2022-11-27_20h49.14.673,vts_reward_expectancy_bt,2022.2.4,MacIntel,60.0024001,Chrome,1440,900,,,,,0,936,,,,,,,,,,,,,,,,,U,167,hexagon,1,0,,,,,,,,,,,,,,,,repeat,letter,lettRpt,f,Hi,,,,,,0.8716,4,,,,,,,,high,6,0,6,0,1,,,,,,,,,
296521,2022-11-27_20h49.14.673,vts_reward_expectancy_bt,2022.2.4,MacIntel,60.0024001,Chrome,1440,900,,,,,1,937,,,,,,,,,,,,,,,,,W,125,triangle,1,0,,,,,,,,,,,,,,,,repeat,letter,lettRpt,f,Lo,,,,,,0.5896,4,,,,,,,,high,7,0,7,0,1,,,,,,,,,
296521,2022-11-27_20h49.14.673,vts_reward_expectancy_bt,2022.2.4,MacIntel,60.0024001,Chrome,1440,900,,,,,10,947,,,,,,,,,,,,,,,,,B,181,triangle,1,0,,,,,,,,,,,,,,,,repeat,letter,lettRpt,d,Lo,,,,,,0.8027,4,,,,,,,,high,8,0,8,0,1,,,,,,,,,
296521,2022-11-27_20h49.14.673,vts_reward_expectancy_bt,2022.2.4,MacIntel,60.0024001,Chrome,1440,900,,,,,10,957,,,,,,,,,,,,,,,,,Y,174,star,1,0,,,,,,,,,,,,,,,,repeat,letter,lettRpt,f,Hi,,,,,,0.5549,4,,,,,,,,high,9,0,9,0,1,,,,,,,,,
296521,2022-11-27_20h49.14.673,vts_reward_expectancy_bt,2022.2.4,MacIntel,60.0024001,Chrome,1440,900,,,,,1,958,,,,,,,,,,,,,,,,,H,139,circle,1,0,,,,,,,,,,,,,,,,repeat,letter,lettRpt,d,Lo,,,,,,0.7903,4,,,,,,,,high,10,0,10,0,1,,,,,,,,,
296521,2022-11-27_20h49.14.673,vts_reward_expectancy_bt,2022.2.4,MacIntel,60.0024001,Chrome,1440,900,,,,,0,958,,,,,,,,,,,,,,,,,F,160,hexagon,1,0,,,,,,,,,,,,,,,,repeat,letter,lettRpt,d,Hi,,,,,,0.9789,4,,,,,,,,high,11,0,11,0,1,,,,,,,,,
296521,2022-11-27_20h49.14.673,vts_reward_expectancy_bt,2022.2.4,MacIntel,60.0024001,Chrome,1440,900,,,,,1,959,,,,,,,,,,,,,,,,,S,146,circle,1,0,,,,,,,,,,,,,,,,repeat,letter,lettRpt,f,Lo,,,,,,0.66,4,,,,,,,,high,12,0,12,0,1,,,,,,,,,
296521,2022-11-27_20h49.14.673,vts_reward_expectancy_bt,2022.2.4,MacIntel,60.0024001,Chrome,1440,900,,,,,0,959,,,,,,,,,,,,,,,,,D,132,star,1,0,,,,,,,,,,,,,,,,repeat,letter,lettRpt,d,Hi,,,,,,0.9208,4,,,,,,,,high,13,0,13,0,1,,,,,,,,,
296521,2022-11-27_20h49.14.673,vts_reward_expectancy_bt,2022.2.4,MacIntel,60.0024001,Chrome,1440,900,,,,,10,969,,,,,,,,,,,,,,,,,U,167,hexagon,1,0,,,,,,,,,,,,,,,,repeat,letter,lettRpt,f,Hi,,,,,,0.6364,4,,,,,,,,high,14,0,14,0,1,,,,,,,,,
296521,2022-11-27_20h49.14.673,vts_reward_expectancy_bt,2022.2.4,MacIntel,60.0024001,Chrome,1440,900,,,,,10,979,,,,,,,,,,,,,,,,,W,125,triangle,1,0,,,,,,,,,,,,,,,,repeat,letter,lettRpt,f,Lo,,,,,,0.5749,4,,,,,,,,high,15,0,15,0,1,,,,,,,,,
296521,2022-11-27_20h49.14.673,vts_reward_expectancy_bt,2022.2.4,MacIntel,60.0024001,Chrome,1440,900,,,,,10,989,,,,,,,,,,,,,,,,,W,125,triangle,1,0,,,,,,,,,,,,,,,,repeat,letter,lettRpt,f,Lo,,,,,,0.7004,4,,,,,,,,high,16,0,16,0,1,,,,,,,,,
296521,2022-11-27_20h49.14.673,vts_reward_expectancy_bt,2022.2.4,MacIntel,60.0024001,Chrome,1440,900,,,,,1,990,,,,,,,,,,,,,,,,,S,181,circle,1,0,,,,,,,,,,,,,,,,repeat,letter,lettRpt,f,Lo,,,,,,0.7221,4,,,,,,,,high,17,0,17,0,1,,,,,,,,,
296521,2022-11-27_20h49.14.673,vts_reward_expectancy_bt,2022.2.4,MacIntel,60.0024001,Chrome,1440,900,,,,,10,1000,,,,,,,,,,,,,,,,,Y,139,star,1,0,,,,,,,,,,,,,,,,repeat,letter,lettRpt,f,Hi,,,,,,0.6363,4,,,,,,,,high,18,0,18,0,1,,,,,,,,,
296521,2022-11-27_20h49.14.673,vts_reward_expectancy_bt,2022.2.4,MacIntel,60.0024001,Chrome,1440,900,,,,,10,1010,,,,,,,,,,,,,,,,,D,167,hexagon,1,0,,,,,,,,,,,,,,,,repeat,letter,lettRpt,d,Hi,,,,,,0.64,4,,,,,,,,high,19,0,19,0,1,,,,,,,,,
296521,2022-11-27_20h49.14.673,vts_reward_expectancy_bt,2022.2.4,MacIntel,60.0024001,Chrome,1440,900,,,,,0,1010,,,,,,,,,,,,,,,,,B,146,hexagon,1,0,,,,,,,,,,,,,,,,repeat,letter,lettRpt,d,Hi,,,,,,0.7194,4,,,,,,,,high,20,0,20,0,1,,,,,,,,,
296521,2022-11-27_20h49.14.673,vts_reward_expectancy_bt,2022.2.4,MacIntel,60.0024001,Chrome,1440,900,,,,,0,1010,,,,,,,,,,,,,,,,,F,174,star,0,0,,,,,,,,,,,,,,,,repeat,letter,NA,f,Hi,,,,,,0.4892,4,,,,,,,,high,21,0,21,0,1,,,,,,,,,
296521,2022-11-27_20h49.14.673,vts_reward_expectancy_bt,2022.2.4,MacIntel,60.0024001,Chrome,1440,900,,,,,1,1011,,,,,,,,,,,,,,,,,U,132,triangle,1,1,,,,,,,,,,,,,,,,repeat,letter,lettRpt,f,Lo,,,,,,0.5698,4,,,,,,,,high,22,0,22,0,1,,,,,,,,,
296521,2022-11-27_20h49.14.673,vts_reward_expectancy_bt,2022.2.4,MacIntel,60.0024001,Chrome,1440,900,,,,,1,1012,,,,,,,,,,,,,,,,,H,160,circle,1,0,,,,,,,,,,,,,,,,repeat,letter,lettRpt,d,Lo,,,,,,0.8259,4,,,,,,,,high,23,0,23,0,1,,,,,,,,,
296521,2022-11-27_20h49.14.673,vts_reward_expectancy_bt,2022.2.4,MacIntel,60.0024001,Chrome,1440,900,,,,,1,1013,,,,,,,,,,,,,,,,,S,167,circle,1,0,,,,,,,,,,,,,,,,repeat,letter,lettRpt,f,Lo,,,,,,0.6074,4,,,,,,,,high,24,0,24,0,1,,,,,,,,,
296521,2022-11-27_20h49.14.673,vts_reward_expectancy_bt,2022.2.4,MacIntel,60.0024001,Chrome,1440,900,,,,,0,1013,,,,,,,,,,,,,,,,,D,132,hexagon,1,0,,,,,,,,,,,,,,,,repeat,letter,lettRpt,d,Hi,,,,,,1.0442,4,,,,,,,,high,25,0,25,0,1,,,,,,,,,
296521,2022-11-27_20h49.14.673,vts_reward_expectancy_bt,2022.2.4,MacIntel,60.0024001,Chrome,1440,900,,,,,1,1014,,,,,,,,,,,,,,,,,U,146,triangle,1,0,,,,,,,,,,,,,,,,repeat,letter,lettRpt,f,Lo,,,,,,0.5594,4,,,,,,,,high,26,0,26,0,1,,,,,,,,,
296521,2022-11-27_20h49.14.673,vts_reward_expectancy_bt,2022.2.4,MacIntel,60.0024001,Chrome,1440,900,,,,,0,1014,,,,,,,,,,,,,,,,,F,125,star,0,0,,,,,,,,,,,,,,,,repeat,letter,NA,f,Lo,,,,,,0.8204,4,,,,,,,,high,27,0,27,0,1,,,,,,,,,
296521,2022-11-27_20h49.14.673,vts_reward_expectancy_bt,2022.2.4,MacIntel,60.0024001,Chrome,1440,900,,,,,1,1015,,,,,,,,,,,,,,,,,W,174,circle,1,1,,,,,,,,,,,,,,,,repeat,letter,lettRpt,f,Lo,,,,,,0.7178,4,,,,,,,,high,28,0,28,0,1,,,,,,,,,
296521,2022-11-27_20h49.14.673,vts_reward_expectancy_bt,2022.2.4,MacIntel,60.0024001,Chrome,1440,900,,,,,1,1016,,,,,,,,,,,,,,,,,H,160,triangle,1,0,,,,,,,,,,,,,,,,repeat,letter,lettRpt,d,Lo,,,,,,0.6222,4,,,,,,,,high,29,0,29,0,1,,,,,,,,,
296521,2022-11-27_20h49.14.673,vts_reward_expectancy_bt,2022.2.4,MacIntel,60.0024001,Chrome,1440,900,,,,,10,1026,,,,,,,,,,,,,,,,,B,181,hexagon,1,0,,,,,,,,,,,,,,,,repeat,letter,lettRpt,d,Hi,,,,,,0.6722,4,,,,,,,,high,30,0,30,0,1,,,,,,,,,
296521,2022-11-27_20h49.14.673,vts_reward_expectancy_bt,2022.2.4,MacIntel,60.0024001,Chrome,1440,900,,,,,0,1026,,,,,,,,,,,,,,,,,Y,139,star,1,0,,,,,,,,,,,,,,,,repeat,letter,lettRpt,f,Hi,,,,,,0.9371,4,,,,,,,,high,31,0,31,0,1,,,,,,,,,
296521,2022-11-27_20h49.14.673,vts_reward_expectancy_bt,2022.2.4,MacIntel,60.0024001,Chrome,1440,900,,,,,1,1027,,,,,,,,,,,,,,,,,F,139,triangle,1,0,,,,,,,,,,,,,,,,repeat,letter,lettRpt,d,Lo,,,,,,0.7913,5,,,,,,space,8.8521,high,0,0,0,0,1,,,,,,,,,
296521,2022-11-27_20h49.14.673,vts_reward_expectancy_bt,2022.2.4,MacIntel,60.0024001,Chrome,1440,900,,,,,0,1027,,,,,,,,,,,,,,,,,U,174,hexagon,1,0,,,,,,,,,,,,,,,,repeat,letter,lettRpt,f,Hi,,,,,,0.6298,5,,,,,,,,high,1,0,1,0,1,,,,,,,,,
296521,2022-11-27_20h49.14.673,vts_reward_expectancy_bt,2022.2.4,MacIntel,60.0024001,Chrome,1440,900,,,,,0,1027,,,,,,,,,,,,,,,,,D,167,star,1,0,,,,,,,,,,,,,,,,repeat,letter,lettRpt,d,Hi,,,,,,0.8378,5,,,,,,,,high,2,0,2,0,1,,,,,,,,,
296521,2022-11-27_20h49.14.673,vts_reward_expectancy_bt,2022.2.4,MacIntel,60.0024001,Chrome,1440,900,,,,,10,1037,,,,,,,,,,,,,,,,,S,132,circle,1,0,,,,,,,,,,,,,,,,repeat,letter,lettRpt,f,Lo,,,,,,0.6932,5,,,,,,,,high,3,0,3,0,1,,,,,,,,,
296521,2022-11-27_20h49.14.673,vts_reward_expectancy_bt,2022.2.4,MacIntel,60.0024001,Chrome,1440,900,,,,,1,1038,,,,,,,,,,,,,,,,,Y,160,triangle,1,0,,,,,,,,,,,,,,,,repeat,letter,lettRpt,f,Lo,,,,,,0.5368,5,,,,,,,,high,4,0,4,0,1,,,,,,,,,
296521,2022-11-27_20h49.14.673,vts_reward_expectancy_bt,2022.2.4,MacIntel,60.0024001,Chrome,1440,900,,,,,0,1038,,,,,,,,,,,,,,,,,B,125,hexagon,1,0,,,,,,,,,,,,,,,,repeat,letter,lettRpt,d,Hi,,,,,,1.1036,5,,,,,,,,high,5,0,5,0,1,,,,,,,,,
296521,2022-11-27_20h49.14.673,vts_reward_expectancy_bt,2022.2.4,MacIntel,60.0024001,Chrome,1440,900,,,,,0,1038,,,,,,,,,,,,,,,,,H,146,star,1,0,,,,,,,,,,,,,,,,repeat,letter,lettRpt,d,Hi,,,,,,0.7341,5,,,,,,,,high,6,0,6,0,1,,,,,,,,,
296521,2022-11-27_20h49.14.673,vts_reward_expectancy_bt,2022.2.4,MacIntel,60.0024001,Chrome,1440,900,,,,,1,1039,,,,,,,,,,,,,,,,,W,181,circle,1,0,,,,,,,,,,,,,,,,repeat,letter,lettRpt,f,Lo,,,,,,0.6216,5,,,,,,,,high,7,0,7,0,1,,,,,,,,,
296521,2022-11-27_20h49.14.673,vts_reward_expectancy_bt,2022.2.4,MacIntel,60.0024001,Chrome,1440,900,,,,,1,1040,,,,,,,,,,,,,,,,,F,139,triangle,1,0,,,,,,,,,,,,,,,,repeat,letter,lettRpt,d,Lo,,,,,,0.6185,5,,,,,,,,high,8,0,8,0,1,,,,,,,,,
296521,2022-11-27_20h49.14.673,vts_reward_expectancy_bt,2022.2.4,MacIntel,60.0024001,Chrome,1440,900,,,,,10,1050,,,,,,,,,,,,,,,,,U,174,hexagon,1,0,,,,,,,,,,,,,,,,repeat,letter,lettRpt,f,Hi,,,,,,0.6018,5,,,,,,,,high,9,0,9,0,1,,,,,,,,,
296521,2022-11-27_20h49.14.673,vts_reward_expectancy_bt,2022.2.4,MacIntel,60.0024001,Chrome,1440,900,,,,,1,1051,,,,,,,,,,,,,,,,,D,167,circle,1,0,,,,,,,,,,,,,,,,repeat,letter,lettRpt,d,Lo,,,,,,0.6037,5,,,,,,,,high,10,0,10,0,1,,,,,,,,,
296521,2022-11-27_20h49.14.673,vts_reward_expectancy_bt,2022.2.4,MacIntel,60.0024001,Chrome,1440,900,,,,,0,1051,,,,,,,,,,,,,,,,,S,132,star,1,0,,,,,,,,,,,,,,,,repeat,letter,lettRpt,f,Hi,,,,,,0.6875,5,,,,,,,,high,11,0,11,0,1,,,,,,,,,
296521,2022-11-27_20h49.14.673,vts_reward_expectancy_bt,2022.2.4,MacIntel,60.0024001,Chrome,1440,900,,,,,10,1061,,,,,,,,,,,,,,,,,Y,160,hexagon,1,0,,,,,,,,,,,,,,,,repeat,letter,lettRpt,f,Hi,,,,,,0.6223,5,,,,,,,,high,12,0,12,0,1,,,,,,,,,
296521,2022-11-27_20h49.14.673,vts_reward_expectancy_bt,2022.2.4,MacIntel,60.0024001,Chrome,1440,900,,,,,10,1071,,,,,,,,,,,,,,,,,B,125,star,1,0,,,,,,,,,,,,,,,,repeat,letter,lettRpt,d,Hi,,,,,,0.5603,5,,,,,,,,high,13,0,13,0,1,,,,,,,,,
296521,2022-11-27_20h49.14.673,vts_reward_expectancy_bt,2022.2.4,MacIntel,60.0024001,Chrome,1440,900,,,,,1,1072,,,,,,,,,,,,,,,,,H,146,triangle,1,0,,,,,,,,,,,,,,,,repeat,letter,lettRpt,d,Lo,,,,,,0.6704,5,,,,,,,,high,14,0,14,0,1,,,,,,,,,
296521,2022-11-27_20h49.14.673,vts_reward_expectancy_bt,2022.2.4,MacIntel,60.0024001,Chrome,1440,900,,,,,1,1073,,,,,,,,,,,,,,,,,W,181,circle,1,0,,,,,,,,,,,,,,,,repeat,letter,lettRpt,f,Lo,,,,,,0.6308,5,,,,,,,,high,15,0,15,0,1,,,,,,,,,
296521,2022-11-27_20h49.14.673,vts_reward_expectancy_bt,2022.2.4,MacIntel,60.0024001,Chrome,1440,900,,,,,10,1083,,,,,,,,,,,,,,,,,U,167,star,1,0,,,,,,,,,,,,,,,,repeat,letter,lettRpt,f,Hi,,,,,,0.5723,5,,,,,,,,high,16,0,16,0,1,,,,,,,,,
296521,2022-11-27_20h49.14.673,vts_reward_expectancy_bt,2022.2.4,MacIntel,60.0024001,Chrome,1440,900,,,,,1,1084,,,,,,,,,,,,,,,,,S,125,triangle,1,0,,,,,,,,,,,,,,,,repeat,letter,lettRpt,f,Lo,,,,,,0.8381,5,,,,,,,,high,17,0,17,0,1,,,,,,,,,
296521,2022-11-27_20h49.14.673,vts_reward_expectancy_bt,2022.2.4,MacIntel,60.0024001,Chrome,1440,900,,,,,0,1084,,,,,,,,,,,,,,,,,W,160,hexagon,1,0,,,,,,,,,,,,,,,,repeat,letter,lettRpt,f,Hi,,,,,,1.0872,5,,,,,,,,high,18,0,18,0,1,,,,,,,,,
296521,2022-11-27_20h49.14.673,vts_reward_expectancy_bt,2022.2.4,MacIntel,60.0024001,Chrome,1440,900,,,,,1,1085,,,,,,,,,,,,,,,,,H,132,circle,1,0,,,,,,,,,,,,,,,,repeat,letter,lettRpt,d,Lo,,,,,,0.6514,5,,,,,,,,high,19,0,19,0,1,,,,,,,,,
296521,2022-11-27_20h49.14.673,vts_reward_expectancy_bt,2022.2.4,MacIntel,60.0024001,Chrome,1440,900,,,,,10,1095,,,,,,,,,,,,,,,,,D,146,triangle,1,0,,,,,,,,,,,,,,,,repeat,letter,lettRpt,d,Lo,,,,,,0.9509,5,,,,,,,,high,20,0,20,0,1,,,,,,,,,
296521,2022-11-27_20h49.14.673,vts_reward_expectancy_bt,2022.2.4,MacIntel,60.0024001,Chrome,1440,900,,,,,0,1095,,,,,,,,,,,,,,,,,F,174,hexagon,1,0,,,,,,,,,,,,,,,,repeat,letter,lettRpt,d,Hi,,,,,,0.6347,5,,,,,,,,high,21,0,21,0,1,,,,,,,,,
296521,2022-11-27_20h49.14.673,vts_reward_expectancy_bt,2022.2.4,MacIntel,60.0024001,Chrome,1440,900,,,,,0,1095,,,,,,,,,,,,,,,,,Y,139,star,1,0,,,,,,,,,,,,,,,,repeat,letter,lettRpt,f,Hi,,,,,,0.694,5,,,,,,,,high,22,0,22,0,1,,,,,,,,,
296521,2022-11-27_20h49.14.673,vts_reward_expectancy_bt,2022.2.4,MacIntel,60.0024001,Chrome,1440,900,,,,,1,1096,,,,,,,,,,,,,,,,,B,181,circle,1,0,,,,,,,,,,,,,,,,repeat,letter,lettRpt,d,Lo,,,,,,1.6359,5,,,,,,,,high,23,0,23,0,1,,,,,,,,,
296521,2022-11-27_20h49.14.673,vts_reward_expectancy_bt,2022.2.4,MacIntel,60.0024001,Chrome,1440,900,,,,,10,1106,,,,,,,,,,,,,,,,,B,125,triangle,1,0,,,,,,,,,,,,,,,,repeat,letter,lettRpt,d,Lo,,,,,,1.1258,5,,,,,,,,high,24,0,24,0,1,,,,,,,,,
296521,2022-11-27_20h49.14.673,vts_reward_expectancy_bt,2022.2.4,MacIntel,60.0024001,Chrome,1440,900,,,,,0,1106,,,,,,,,,,,,,,,,,F,167,hexagon,1,0,,,,,,,,,,,,,,,,repeat,letter,lettRpt,d,Hi,,,,,,0.8354,5,,,,,,,,high,25,0,25,0,1,,,,,,,,,
296521,2022-11-27_20h49.14.673,vts_reward_expectancy_bt,2022.2.4,MacIntel,60.0024001,Chrome,1440,900,,,,,0,1106,,,,,,,,,,,,,,,,,Y,181,star,0,0,,,,,,,,,,,,,,,,repeat,letter,NA,d,Hi,,,,,,0.8515,5,,,,,,,,high,26,0,26,0,1,,,,,,,,,
296521,2022-11-27_20h49.14.673,vts_reward_expectancy_bt,2022.2.4,MacIntel,60.0024001,Chrome,1440,900,,,,,0,1106,,,,,,,,,,,,,,,,,S,160,circle,0,1,,,,,,,,,,,,,,,,repeat,letter,NA,d,Hi,,,,,,1.3058,5,,,,,,,,high,27,0,27,0,1,,,,,,,,,
296521,2022-11-27_20h49.14.673,vts_reward_expectancy_bt,2022.2.4,MacIntel,60.0024001,Chrome,1440,900,,,,,10,1116,,,,,,,,,,,,,,,,,D,139,circle,1,1,,,,,,,,,,,,,,,,repeat,letter,lettRpt,d,Lo,,,,,,1.1696,5,,,,,,,,high,28,0,28,0,1,,,,,,,,,
296521,2022-11-27_20h49.14.673,vts_reward_expectancy_bt,2022.2.4,MacIntel,60.0024001,Chrome,1440,900,,,,,0,1116,,,,,,,,,,,,,,,,,H,146,star,1,0,,,,,,,,,,,,,,,,repeat,letter,lettRpt,d,Hi,,,,,,0.8677,5,,,,,,,,high,29,0,29,0,1,,,,,,,,,
296521,2022-11-27_20h49.14.673,vts_reward_expectancy_bt,2022.2.4,MacIntel,60.0024001,Chrome,1440,900,,,,,10,1126,,,,,,,,,,,,,,,,,U,174,hexagon,1,0,,,,,,,,,,,,,,,,repeat,letter,lettRpt,f,Hi,,,,,,0.5548,5,,,,,,,,high,30,0,30,0,1,,,,,,,,,
296521,2022-11-27_20h49.14.673,vts_reward_expectancy_bt,2022.2.4,MacIntel,60.0024001,Chrome,1440,900,,,,,1,1127,,,,,,,,,,,,,,,,,W,132,triangle,1,0,,,,,,,,,,,,,,,,repeat,letter,lettRpt,f,Lo,,,,,,0.6226,5,,,,,,,,high,31,0,31,0,1,,,,,,,,,
296521,2022-11-27_20h49.14.673,vts_reward_expectancy_bt,2022.2.4,MacIntel,60.0024001,Chrome,1440,900,,,,,10,1137,,,,,,,,,,,,,,,,,F,139,hexagon,1,0,,,,,,,,,,,,,,,,switch,number,numSwt,j,Hi,,,,,,1.0364,6,,,,,,space,1.0451,high,0,0,0,0,1,,,,,,,,,
296521,2022-11-27_20h49.14.673,vts_reward_expectancy_bt,2022.2.4,MacIntel,60.0024001,Chrome,1440,900,,,,,10,1147,,,,,,,,,,,,,,,,,W,132,triangle,1,0,,,,,,,,,,,,,,,,repeat,number,numRpt,j,Lo,,,,,,0.6376,6,,,,,,,,high,1,0,1,0,1,,,,,,,,,
296521,2022-11-27_20h49.14.673,vts_reward_expectancy_bt,2022.2.4,MacIntel,60.0024001,Chrome,1440,900,,,,,1,1148,,,,,,,,,,,,,,,,,D,160,circle,1,0,,,,,,,,,,,,,,,,repeat,number,numRpt,k,Lo,,,,,,0.7225,6,,,,,,,,high,2,0,2,0,1,,,,,,,,,
296521,2022-11-27_20h49.14.673,vts_reward_expectancy_bt,2022.2.4,MacIntel,60.0024001,Chrome,1440,900,,,,,1,1149,,,,,,,,,,,,,,,,,H,146,star,1,0,,,,,,,,,,,,,,,,repeat,number,numRpt,j,Hi,,,,,,0.8555,6,,,,,,,,high,3,0,3,0,1,,,,,,,,,
296521,2022-11-27_20h49.14.673,vts_reward_expectancy_bt,2022.2.4,MacIntel,60.0024001,Chrome,1440,900,,,,,10,1159,,,,,,,,,,,,,,,,,U,181,hexagon,1,0,,,,,,,,,,,,,,,,repeat,number,numRpt,k,Hi,,,,,,0.6697,6,,,,,,,,high,4,0,4,0,1,,,,,,,,,
296521,2022-11-27_20h49.14.673,vts_reward_expectancy_bt,2022.2.4,MacIntel,60.0024001,Chrome,1440,900,,,,,1,1160,,,,,,,,,,,,,,,,,Y,125,triangle,1,0,,,,,,,,,,,,,,,,repeat,number,numRpt,j,Lo,,,,,,0.6686,6,,,,,,,,high,5,0,5,0,1,,,,,,,,,
296521,2022-11-27_20h49.14.673,vts_reward_expectancy_bt,2022.2.4,MacIntel,60.0024001,Chrome,1440,900,,,,,1,1161,,,,,,,,,,,,,,,,,S,174,circle,1,0,,,,,,,,,,,,,,,,repeat,number,numRpt,k,Lo,,,,,,0.701,6,,,,,,,,high,6,0,6,0,1,,,,,,,,,
296521,2022-11-27_20h49.14.673,vts_reward_expectancy_bt,2022.2.4,MacIntel,60.0024001,Chrome,1440,900,,,,,0,1161,,,,,,,,,,,,,,,,,B,167,star,0,0,,,,,,,,,,,,,,,,repeat,number,NA,j,Lo,,,,,,0.7193,6,,,,,,,,high,7,0,7,0,1,,,,,,,,,
296521,2022-11-27_20h49.14.673,vts_reward_expectancy_bt,2022.2.4,MacIntel,60.0024001,Chrome,1440,900,,,,,10,1171,,,,,,,,,,,,,,,,,F,139,star,1,1,,,,,,,,,,,,,,,,repeat,number,numRpt,j,Hi,,,,,,0.9097,6,,,,,,,,high,8,0,8,0,1,,,,,,,,,
296521,2022-11-27_20h49.14.673,vts_reward_expectancy_bt,2022.2.4,MacIntel,60.0024001,Chrome,1440,900,,,,,1,1172,,,,,,,,,,,,,,,,,W,132,hexagon,1,0,,,,,,,,,,,,,,,,repeat,number,numRpt,j,Hi,,,,,,0.6215,6,,,,,,,,high,9,0,9,0,1,,,,,,,,,
296521,2022-11-27_20h49.14.673,vts_reward_expectancy_bt,2022.2.4,MacIntel,60.0024001,Chrome,1440,900,,,,,0,1172,,,,,,,,,,,,,,,,,D,160,circle,0,0,,,,,,,,,,,,,,,,repeat,number,NA,j,Hi,,,,,,1.0913,6,,,,,,,,high,10,0,10,0,1,,,,,,,,,
296521,2022-11-27_20h49.14.673,vts_reward_expectancy_bt,2022.2.4,MacIntel,60.0024001,Chrome,1440,900,,,,,1,1173,,,,,,,,,,,,,,,,,H,146,triangle,1,1,,,,,,,,,,,,,,,,repeat,number,numRpt,j,Lo,,,,,,0.7743,6,,,,,,,,high,11,0,11,0,1,,,,,,,,,
