participant,date,expName,psychopyVersion,OS,frameRate,browser,xResolution,yResolution,key_resp.keys,key_resp.rt,training_resp.keys,training_resp.rt,points_trial,points_cumul,trainBlock,training.thisRepN,training.thisTrialN,training.thisN,training.thisIndex,training.ran,LTriangleOpac,LCircleOpac,LHexagonOpac,LStarOpac,RTriangleOpac,RCircleOpac,RHexagonOpac,RStarOpac,LShape_ID,RShape_ID,curr_topStim,curr_bottStim,curr_shape,acc,E1,target_resp_prac1.keys,target_resp_prac1.rt,pracBlock,task1_prac_trials.thisRepN,task1_prac_trials.thisTrialN,task1_prac_trials.thisN,task1_prac_trials.thisIndex,task1_prac_trials.ran,target_resp_prac2.keys,target_resp_prac2.rt,task2_praac_trials.thisRepN,task2_praac_trials.thisTrialN,task2_praac_trials.thisN,task2_praac_trials.thisIndex,task2_praac_trials.ran,alt,task,condition,target_resp.keys,target_resp.rt,rewCond,vts_practice_trials.thisRepN,vts_practice_trials.thisTrialN,vts_practice_trials.thisN,vts_practice_trials.thisIndex,vts_practice_trials.ran,blockNum,trials_norew.thisRepN,trials_norew.thisTrialN,trials_norew.thisN,trials_norew.thisIndex,trials_norew.ran,key_resp_2.keys,key_resp_2.rt,rewExpectancy,trials_rew.thisRepN,trials_rew.thisTrialN,trials_rew.thisN,trials_rew.thisIndex,trials_rew.ran,Q1,Q2,Q2_text,Q3,Q4,Q5_text,Q5,xRes,yRes
296671,2022-11-25_11h21.25.995,vts_reward_expectancy_bt,2022.2.4,Win32,59.16459591,Chrome,1368,912,,,,,,,,,,,,,,,,,,,,,,,,,,,,,,,,,,,,,,,,,,,,,,,,,,,,,,,,,,,,,,,,,,,,,,,,,,,,
296671,2022-11-25_11h21.25.995,vts_reward_expectancy_bt,2022.2.4,Win32,59.16459591,Chrome,1368,912,space,10.3028,,,,,,,,,,,,,,,,,,,,,,,,,,,,,,,,,,,,,,,,,,,,,,,,,,,,,,,,,,,,,,,,,,,,,,,,,,
296671,2022-11-25_11h21.25.995,vts_reward_expectancy_bt,2022.2.4,Win32,59.16459591,Chrome,1368,912,,,,,,,,,,,,,,,,,,,,,,,,,,,,,,,,,,,,,,,,,,,,,,,,,,,,,,,,,,,,,,,,,,,,,,,,,,,,
296671,2022-11-25_11h21.25.995,vts_reward_expectancy_bt,2022.2.4,Win32,59.16459591,Chrome,1368,912,,,a,1.7279,10,10,0,0,0,0,4,1,0,1,0,0,0,0,1,0,circle,hexagon,,,,,,,,,,,,,,,,,,,,,,,,,,,,,,,,,,,,,,,,,,,,,,,,,,,,,,
296671,2022-11-25_11h21.25.995,vts_reward_expectancy_bt,2022.2.4,Win32,59.16459591,Chrome,1368,912,,,l,1.8187,10,20,0,0,1,1,0,1,1,0,0,0,0,1,0,0,triangle,circle,,,,,,,,,,,,,,,,,,,,,,,,,,,,,,,,,,,,,,,,,,,,,,,,,,,,,,
296671,2022-11-25_11h21.25.995,vts_reward_expectancy_bt,2022.2.4,Win32,59.16459591,Chrome,1368,912,,,l,1.5437,1,21,0,0,2,2,8,1,0,0,1,0,0,0,0,1,hexagon,star,,,,,,,,,,,,,,,,,,,,,,,,,,,,,,,,,,,,,,,,,,,,,,,,,,,,,,
296671,2022-11-25_11h21.25.995,vts_reward_expectancy_bt,2022.2.4,Win32,59.16459591,Chrome,1368,912,,,l,1.4154,10,31,0,0,3,3,1,1,1,0,0,0,0,0,1,0,triangle,hexagon,,,,,,,,,,,,,,,,,,,,,,,,,,,,,,,,,,,,,,,,,,,,,,,,,,,,,,
296671,2022-11-25_11h21.25.995,vts_reward_expectancy_bt,2022.2.4,Win32,59.16459591,Chrome,1368,912,,,a,0.7089,10,41,0,0,4,4,5,1,0,1,0,0,0,0,0,1,circle,star,,,,,,,,,,,,,,,,,,,,,,,,,,,,,,,,,,,,,,,,,,,,,,,,,,,,,,
296671,2022-11-25_11h21.25.995,vts_reward_expectancy_bt,2022.2.4,Win32,59.16459591,Chrome,1368,912,,,a,1.7516,1,42,0,0,5,5,2,1,1,0,0,0,0,0,0,1,triangle,star,,,,,,,,,,,,,,,,,,,,,,,,,,,,,,,,,,,,,,,,,,,,,,,,,,,,,,
296671,2022-11-25_11h21.25.995,vts_reward_expectancy_bt,2022.2.4,Win32,59.16459591,Chrome,1368,912,,,l,1.6048,10,52,0,0,6,6,11,1,0,0,0,1,0,0,1,0,star,hexagon,,,,,,,,,,,,,,,,,,,,,,,,,,,,,,,,,,,,,,,,,,,,,,,,,,,,,,
296671,2022-11-25_11h21.25.995,vts_reward_expectancy_bt,2022.2.4,Win32,59.16459591,Chrome,1368,912,,,a,1.2394,10,62,0,0,7,7,6,1,0,0,1,0,1,0,0,0,hexagon,triangle,,,,,,,,,,,,,,,,,,,,,,,,,,,,,,,,,,,,,,,,,,,,,,,,,,,,,,
296671,2022-11-25_11h21.25.995,vts_reward_expectancy_bt,2022.2.4,Win32,59.16459591,Chrome,1368,912,,,l,0.9339,10,72,0,0,8,8,10,1,0,0,0,1,0,1,0,0,star ,circle,,,,,,,,,,,,,,,,,,,,,,,,,,,,,,,,,,,,,,,,,,,,,,,,,,,,,,
296671,2022-11-25_11h21.25.995,vts_reward_expectancy_bt,2022.2.4,Win32,59.16459591,Chrome,1368,912,,,l,1.4509,1,73,0,0,9,9,7,1,0,0,1,0,0,1,0,0,hexagon,circle,,,,,,,,,,,,,,,,,,,,,,,,,,,,,,,,,,,,,,,,,,,,,,,,,,,,,,
296671,2022-11-25_11h21.25.995,vts_reward_expectancy_bt,2022.2.4,Win32,59.16459591,Chrome,1368,912,,,a,0.9423,1,74,0,0,10,10,3,1,0,1,0,0,1,0,0,0,circle,triangle,,,,,,,,,,,,,,,,,,,,,,,,,,,,,,,,,,,,,,,,,,,,,,,,,,,,,,
296671,2022-11-25_11h21.25.995,vts_reward_expectancy_bt,2022.2.4,Win32,59.16459591,Chrome,1368,912,,,l,1.9037,1,75,0,0,11,11,9,1,0,0,0,1,1,0,0,0,star,triangle,,,,,,,,,,,,,,,,,,,,,,,,,,,,,,,,,,,,,,,,,,,,,,,,,,,,,,
296671,2022-11-25_11h21.25.995,vts_reward_expectancy_bt,2022.2.4,Win32,59.16459591,Chrome,1368,912,,,l,2.7969,10,85,0,1,0,12,4,1,0,1,0,0,0,0,1,0,circle,hexagon,,,,,,,,,,,,,,,,,,,,,,,,,,,,,,,,,,,,,,,,,,,,,,,,,,,,,,
296671,2022-11-25_11h21.25.995,vts_reward_expectancy_bt,2022.2.4,Win32,59.16459591,Chrome,1368,912,,,a,1.0599,10,95,0,1,1,13,8,1,0,0,1,0,0,0,0,1,hexagon,star,,,,,,,,,,,,,,,,,,,,,,,,,,,,,,,,,,,,,,,,,,,,,,,,,,,,,,
296671,2022-11-25_11h21.25.995,vts_reward_expectancy_bt,2022.2.4,Win32,59.16459591,Chrome,1368,912,,,a,1.4438,1,96,0,1,2,14,1,1,1,0,0,0,0,0,1,0,triangle,hexagon,,,,,,,,,,,,,,,,,,,,,,,,,,,,,,,,,,,,,,,,,,,,,,,,,,,,,,
296671,2022-11-25_11h21.25.995,vts_reward_expectancy_bt,2022.2.4,Win32,59.16459591,Chrome,1368,912,,,a,1.6717,1,97,0,1,3,15,3,1,0,1,0,0,1,0,0,0,circle,triangle,,,,,,,,,,,,,,,,,,,,,,,,,,,,,,,,,,,,,,,,,,,,,,,,,,,,,,
296671,2022-11-25_11h21.25.995,vts_reward_expectancy_bt,2022.2.4,Win32,59.16459591,Chrome,1368,912,,,a,1.1988,10,107,0,1,4,16,5,1,0,1,0,0,0,0,0,1,circle,star,,,,,,,,,,,,,,,,,,,,,,,,,,,,,,,,,,,,,,,,,,,,,,,,,,,,,,
296671,2022-11-25_11h21.25.995,vts_reward_expectancy_bt,2022.2.4,Win32,59.16459591,Chrome,1368,912,,,l,1.9086,10,117,0,1,5,17,2,1,1,0,0,0,0,0,0,1,triangle,star,,,,,,,,,,,,,,,,,,,,,,,,,,,,,,,,,,,,,,,,,,,,,,,,,,,,,,
296671,2022-11-25_11h21.25.995,vts_reward_expectancy_bt,2022.2.4,Win32,59.16459591,Chrome,1368,912,,,l,1.9108,1,118,0,1,6,18,9,1,0,0,0,1,1,0,0,0,star,triangle,,,,,,,,,,,,,,,,,,,,,,,,,,,,,,,,,,,,,,,,,,,,,,,,,,,,,,
296671,2022-11-25_11h21.25.995,vts_reward_expectancy_bt,2022.2.4,Win32,59.16459591,Chrome,1368,912,,,a,3.9849,1,119,0,1,7,19,6,1,0,0,1,0,1,0,0,0,hexagon,triangle,,,,,,,,,,,,,,,,,,,,,,,,,,,,,,,,,,,,,,,,,,,,,,,,,,,,,,
296671,2022-11-25_11h21.25.995,vts_reward_expectancy_bt,2022.2.4,Win32,59.16459591,Chrome,1368,912,,,l,1.2619,1,120,0,1,8,20,10,1,0,0,0,1,0,1,0,0,star ,circle,,,,,,,,,,,,,,,,,,,,,,,,,,,,,,,,,,,,,,,,,,,,,,,,,,,,,,
296671,2022-11-25_11h21.25.995,vts_reward_expectancy_bt,2022.2.4,Win32,59.16459591,Chrome,1368,912,,,l,0.7296,10,130,0,1,9,21,7,1,0,0,1,0,0,1,0,0,hexagon,circle,,,,,,,,,,,,,,,,,,,,,,,,,,,,,,,,,,,,,,,,,,,,,,,,,,,,,,
296671,2022-11-25_11h21.25.995,vts_reward_expectancy_bt,2022.2.4,Win32,59.16459591,Chrome,1368,912,,,a,1.5523,10,140,0,1,10,22,0,1,1,0,0,0,0,1,0,0,triangle,circle,,,,,,,,,,,,,,,,,,,,,,,,,,,,,,,,,,,,,,,,,,,,,,,,,,,,,,
296671,2022-11-25_11h21.25.995,vts_reward_expectancy_bt,2022.2.4,Win32,59.16459591,Chrome,1368,912,,,a,1.2104,1,141,0,1,11,23,11,1,0,0,0,1,0,0,1,0,star,hexagon,,,,,,,,,,,,,,,,,,,,,,,,,,,,,,,,,,,,,,,,,,,,,,,,,,,,,,
296671,2022-11-25_11h21.25.995,vts_reward_expectancy_bt,2022.2.4,Win32,59.16459591,Chrome,1368,912,,,l,0.63,10,151,0,2,0,24,10,1,0,0,0,1,0,1,0,0,star ,circle,,,,,,,,,,,,,,,,,,,,,,,,,,,,,,,,,,,,,,,,,,,,,,,,,,,,,,
296671,2022-11-25_11h21.25.995,vts_reward_expectancy_bt,2022.2.4,Win32,59.16459591,Chrome,1368,912,,,l,0.7615,10,161,0,2,1,25,0,1,1,0,0,0,0,1,0,0,triangle,circle,,,,,,,,,,,,,,,,,,,,,,,,,,,,,,,,,,,,,,,,,,,,,,,,,,,,,,
296671,2022-11-25_11h21.25.995,vts_reward_expectancy_bt,2022.2.4,Win32,59.16459591,Chrome,1368,912,,,a,1.3683,1,162,0,2,2,26,1,1,1,0,0,0,0,0,1,0,triangle,hexagon,,,,,,,,,,,,,,,,,,,,,,,,,,,,,,,,,,,,,,,,,,,,,,,,,,,,,,
296671,2022-11-25_11h21.25.995,vts_reward_expectancy_bt,2022.2.4,Win32,59.16459591,Chrome,1368,912,,,a,1.3236,10,172,0,2,3,27,8,1,0,0,1,0,0,0,0,1,hexagon,star,,,,,,,,,,,,,,,,,,,,,,,,,,,,,,,,,,,,,,,,,,,,,,,,,,,,,,
296671,2022-11-25_11h21.25.995,vts_reward_expectancy_bt,2022.2.4,Win32,59.16459591,Chrome,1368,912,,,a,1.4655,10,182,0,2,4,28,9,1,0,0,0,1,1,0,0,0,star,triangle,,,,,,,,,,,,,,,,,,,,,,,,,,,,,,,,,,,,,,,,,,,,,,,,,,,,,,
296671,2022-11-25_11h21.25.995,vts_reward_expectancy_bt,2022.2.4,Win32,59.16459591,Chrome,1368,912,,,a,1.2741,10,192,0,2,5,29,5,1,0,1,0,0,0,0,0,1,circle,star,,,,,,,,,,,,,,,,,,,,,,,,,,,,,,,,,,,,,,,,,,,,,,,,,,,,,,
296671,2022-11-25_11h21.25.995,vts_reward_expectancy_bt,2022.2.4,Win32,59.16459591,Chrome,1368,912,,,a,2.7842,10,202,0,2,6,30,6,1,0,0,1,0,1,0,0,0,hexagon,triangle,,,,,,,,,,,,,,,,,,,,,,,,,,,,,,,,,,,,,,,,,,,,,,,,,,,,,,
296671,2022-11-25_11h21.25.995,vts_reward_expectancy_bt,2022.2.4,Win32,59.16459591,Chrome,1368,912,,,a,1.623,1,203,0,2,7,31,11,1,0,0,0,1,0,0,1,0,star,hexagon,,,,,,,,,,,,,,,,,,,,,,,,,,,,,,,,,,,,,,,,,,,,,,,,,,,,,,
296671,2022-11-25_11h21.25.995,vts_reward_expectancy_bt,2022.2.4,Win32,59.16459591,Chrome,1368,912,,,a,1.6323,10,213,0,2,8,32,2,1,1,0,0,0,0,0,0,1,triangle,star,,,,,,,,,,,,,,,,,,,,,,,,,,,,,,,,,,,,,,,,,,,,,,,,,,,,,,
296671,2022-11-25_11h21.25.995,vts_reward_expectancy_bt,2022.2.4,Win32,59.16459591,Chrome,1368,912,,,a,2.0889,10,223,0,2,9,33,7,1,0,0,1,0,0,1,0,0,hexagon,circle,,,,,,,,,,,,,,,,,,,,,,,,,,,,,,,,,,,,,,,,,,,,,,,,,,,,,,
296671,2022-11-25_11h21.25.995,vts_reward_expectancy_bt,2022.2.4,Win32,59.16459591,Chrome,1368,912,,,l,1.2021,10,233,0,2,10,34,4,1,0,1,0,0,0,0,1,0,circle,hexagon,,,,,,,,,,,,,,,,,,,,,,,,,,,,,,,,,,,,,,,,,,,,,,,,,,,,,,
296671,2022-11-25_11h21.25.995,vts_reward_expectancy_bt,2022.2.4,Win32,59.16459591,Chrome,1368,912,,,a,1.0809,10,243,0,2,11,35,3,1,0,1,0,0,1,0,0,0,circle,triangle,,,,,,,,,,,,,,,,,,,,,,,,,,,,,,,,,,,,,,,,,,,,,,,,,,,,,,
296671,2022-11-25_11h21.25.995,vts_reward_expectancy_bt,2022.2.4,Win32,59.16459591,Chrome,1368,912,,,a,3.4427,10,253,1,0,0,0,1,1,1,0,0,0,0,0,1,0,triangle,hexagon,,,,,,,,,,,,,,,,,,,,,,,,,,,,,,,,,,,,,,,,,,,,,,,,,,,,,,
296671,2022-11-25_11h21.25.995,vts_reward_expectancy_bt,2022.2.4,Win32,59.16459591,Chrome,1368,912,,,l,2.1721,1,254,1,0,1,1,6,1,0,0,1,0,1,0,0,0,hexagon,triangle,,,,,,,,,,,,,,,,,,,,,,,,,,,,,,,,,,,,,,,,,,,,,,,,,,,,,,
296671,2022-11-25_11h21.25.995,vts_reward_expectancy_bt,2022.2.4,Win32,59.16459591,Chrome,1368,912,,,l,1.0488,1,255,1,0,2,2,10,1,0,0,0,1,0,1,0,0,star ,circle,,,,,,,,,,,,,,,,,,,,,,,,,,,,,,,,,,,,,,,,,,,,,,,,,,,,,,
296671,2022-11-25_11h21.25.995,vts_reward_expectancy_bt,2022.2.4,Win32,59.16459591,Chrome,1368,912,,,a,0.86,1,256,1,0,3,3,5,1,0,1,0,0,0,0,0,1,circle,star,,,,,,,,,,,,,,,,,,,,,,,,,,,,,,,,,,,,,,,,,,,,,,,,,,,,,,
296671,2022-11-25_11h21.25.995,vts_reward_expectancy_bt,2022.2.4,Win32,59.16459591,Chrome,1368,912,,,l,1.919,10,266,1,0,4,4,4,1,0,1,0,0,0,0,1,0,circle,hexagon,,,,,,,,,,,,,,,,,,,,,,,,,,,,,,,,,,,,,,,,,,,,,,,,,,,,,,
296671,2022-11-25_11h21.25.995,vts_reward_expectancy_bt,2022.2.4,Win32,59.16459591,Chrome,1368,912,,,l,3.3475,10,276,1,0,5,5,0,1,1,0,0,0,0,1,0,0,triangle,circle,,,,,,,,,,,,,,,,,,,,,,,,,,,,,,,,,,,,,,,,,,,,,,,,,,,,,,
296671,2022-11-25_11h21.25.995,vts_reward_expectancy_bt,2022.2.4,Win32,59.16459591,Chrome,1368,912,,,l,1.4504,1,277,1,0,6,6,9,1,0,0,0,1,1,0,0,0,star,triangle,,,,,,,,,,,,,,,,,,,,,,,,,,,,,,,,,,,,,,,,,,,,,,,,,,,,,,
296671,2022-11-25_11h21.25.995,vts_reward_expectancy_bt,2022.2.4,Win32,59.16459591,Chrome,1368,912,,,l,5.0509,1,278,1,0,7,7,3,1,0,1,0,0,1,0,0,0,circle,triangle,,,,,,,,,,,,,,,,,,,,,,,,,,,,,,,,,,,,,,,,,,,,,,,,,,,,,,
296671,2022-11-25_11h21.25.995,vts_reward_expectancy_bt,2022.2.4,Win32,59.16459591,Chrome,1368,912,,,a,1.3448,1,279,1,0,8,8,11,1,0,0,0,1,0,0,1,0,star,hexagon,,,,,,,,,,,,,,,,,,,,,,,,,,,,,,,,,,,,,,,,,,,,,,,,,,,,,,
296671,2022-11-25_11h21.25.995,vts_reward_expectancy_bt,2022.2.4,Win32,59.16459591,Chrome,1368,912,,,a,1.65,10,289,1,0,9,9,8,1,0,0,1,0,0,0,0,1,hexagon,star,,,,,,,,,,,,,,,,,,,,,,,,,,,,,,,,,,,,,,,,,,,,,,,,,,,,,,
296671,2022-11-25_11h21.25.995,vts_reward_expectancy_bt,2022.2.4,Win32,59.16459591,Chrome,1368,912,,,a,1.6484,10,299,1,0,10,10,7,1,0,0,1,0,0,1,0,0,hexagon,circle,,,,,,,,,,,,,,,,,,,,,,,,,,,,,,,,,,,,,,,,,,,,,,,,,,,,,,
296671,2022-11-25_11h21.25.995,vts_reward_expectancy_bt,2022.2.4,Win32,59.16459591,Chrome,1368,912,,,l,1.6129,1,300,1,0,11,11,2,1,1,0,0,0,0,0,0,1,triangle,star,,,,,,,,,,,,,,,,,,,,,,,,,,,,,,,,,,,,,,,,,,,,,,,,,,,,,,
296671,2022-11-25_11h21.25.995,vts_reward_expectancy_bt,2022.2.4,Win32,59.16459591,Chrome,1368,912,,,a,0.8155,1,301,1,1,0,12,3,1,0,1,0,0,1,0,0,0,circle,triangle,,,,,,,,,,,,,,,,,,,,,,,,,,,,,,,,,,,,,,,,,,,,,,,,,,,,,,
296671,2022-11-25_11h21.25.995,vts_reward_expectancy_bt,2022.2.4,Win32,59.16459591,Chrome,1368,912,,,a,0.7327,1,302,1,1,1,13,5,1,0,1,0,0,0,0,0,1,circle,star,,,,,,,,,,,,,,,,,,,,,,,,,,,,,,,,,,,,,,,,,,,,,,,,,,,,,,
296671,2022-11-25_11h21.25.995,vts_reward_expectancy_bt,2022.2.4,Win32,59.16459591,Chrome,1368,912,,,a,1.7681,1,303,1,1,2,14,2,1,1,0,0,0,0,0,0,1,triangle,star,,,,,,,,,,,,,,,,,,,,,,,,,,,,,,,,,,,,,,,,,,,,,,,,,,,,,,
296671,2022-11-25_11h21.25.995,vts_reward_expectancy_bt,2022.2.4,Win32,59.16459591,Chrome,1368,912,,,l,1.2329,10,313,1,1,3,15,8,1,0,0,1,0,0,0,0,1,hexagon,star,,,,,,,,,,,,,,,,,,,,,,,,,,,,,,,,,,,,,,,,,,,,,,,,,,,,,,
296671,2022-11-25_11h21.25.995,vts_reward_expectancy_bt,2022.2.4,Win32,59.16459591,Chrome,1368,912,,,a,0.9662,1,314,1,1,4,16,9,1,0,0,0,1,1,0,0,0,star,triangle,,,,,,,,,,,,,,,,,,,,,,,,,,,,,,,,,,,,,,,,,,,,,,,,,,,,,,
296671,2022-11-25_11h21.25.995,vts_reward_expectancy_bt,2022.2.4,Win32,59.16459591,Chrome,1368,912,,,l,1.4553,1,315,1,1,5,17,6,1,0,0,1,0,1,0,0,0,hexagon,triangle,,,,,,,,,,,,,,,,,,,,,,,,,,,,,,,,,,,,,,,,,,,,,,,,,,,,,,
296671,2022-11-25_11h21.25.995,vts_reward_expectancy_bt,2022.2.4,Win32,59.16459591,Chrome,1368,912,,,l,1.5172,10,325,1,1,6,18,1,1,1,0,0,0,0,0,1,0,triangle,hexagon,,,,,,,,,,,,,,,,,,,,,,,,,,,,,,,,,,,,,,,,,,,,,,,,,,,,,,
296671,2022-11-25_11h21.25.995,vts_reward_expectancy_bt,2022.2.4,Win32,59.16459591,Chrome,1368,912,,,a,1.9636,1,326,1,1,7,19,7,1,0,0,1,0,0,1,0,0,hexagon,circle,,,,,,,,,,,,,,,,,,,,,,,,,,,,,,,,,,,,,,,,,,,,,,,,,,,,,,
296671,2022-11-25_11h21.25.995,vts_reward_expectancy_bt,2022.2.4,Win32,59.16459591,Chrome,1368,912,,,a,2.5018,1,327,1,1,8,20,0,1,1,0,0,0,0,1,0,0,triangle,circle,,,,,,,,,,,,,,,,,,,,,,,,,,,,,,,,,,,,,,,,,,,,,,,,,,,,,,
296671,2022-11-25_11h21.25.995,vts_reward_expectancy_bt,2022.2.4,Win32,59.16459591,Chrome,1368,912,,,a,0.5811,10,337,1,1,9,21,11,1,0,0,0,1,0,0,1,0,star,hexagon,,,,,,,,,,,,,,,,,,,,,,,,,,,,,,,,,,,,,,,,,,,,,,,,,,,,,,
296671,2022-11-25_11h21.25.995,vts_reward_expectancy_bt,2022.2.4,Win32,59.16459591,Chrome,1368,912,,,l,0.6853,10,347,1,1,10,22,4,1,0,1,0,0,0,0,1,0,circle,hexagon,,,,,,,,,,,,,,,,,,,,,,,,,,,,,,,,,,,,,,,,,,,,,,,,,,,,,,
296671,2022-11-25_11h21.25.995,vts_reward_expectancy_bt,2022.2.4,Win32,59.16459591,Chrome,1368,912,,,a,0.6346,10,357,1,1,11,23,10,1,0,0,0,1,0,1,0,0,star ,circle,,,,,,,,,,,,,,,,,,,,,,,,,,,,,,,,,,,,,,,,,,,,,,,,,,,,,,
296671,2022-11-25_11h21.25.995,vts_reward_expectancy_bt,2022.2.4,Win32,59.16459591,Chrome,1368,912,,,a,0.7178,1,358,1,2,0,24,0,1,1,0,0,0,0,1,0,0,triangle,circle,,,,,,,,,,,,,,,,,,,,,,,,,,,,,,,,,,,,,,,,,,,,,,,,,,,,,,
296671,2022-11-25_11h21.25.995,vts_reward_expectancy_bt,2022.2.4,Win32,59.16459591,Chrome,1368,912,,,l,0.62,1,359,1,2,1,25,8,1,0,0,1,0,0,0,0,1,hexagon,star,,,,,,,,,,,,,,,,,,,,,,,,,,,,,,,,,,,,,,,,,,,,,,,,,,,,,,
296671,2022-11-25_11h21.25.995,vts_reward_expectancy_bt,2022.2.4,Win32,59.16459591,Chrome,1368,912,,,a,1.3159,1,360,1,2,2,26,1,1,1,0,0,0,0,0,1,0,triangle,hexagon,,,,,,,,,,,,,,,,,,,,,,,,,,,,,,,,,,,,,,,,,,,,,,,,,,,,,,
296671,2022-11-25_11h21.25.995,vts_reward_expectancy_bt,2022.2.4,Win32,59.16459591,Chrome,1368,912,,,l,0.9671,1,361,1,2,3,27,3,1,0,1,0,0,1,0,0,0,circle,triangle,,,,,,,,,,,,,,,,,,,,,,,,,,,,,,,,,,,,,,,,,,,,,,,,,,,,,,
296671,2022-11-25_11h21.25.995,vts_reward_expectancy_bt,2022.2.4,Win32,59.16459591,Chrome,1368,912,,,a,0.8095,10,371,1,2,4,28,7,1,0,0,1,0,0,1,0,0,hexagon,circle,,,,,,,,,,,,,,,,,,,,,,,,,,,,,,,,,,,,,,,,,,,,,,,,,,,,,,
296671,2022-11-25_11h21.25.995,vts_reward_expectancy_bt,2022.2.4,Win32,59.16459591,Chrome,1368,912,,,l,0.7217,1,372,1,2,5,29,2,1,1,0,0,0,0,0,0,1,triangle,star,,,,,,,,,,,,,,,,,,,,,,,,,,,,,,,,,,,,,,,,,,,,,,,,,,,,,,
296671,2022-11-25_11h21.25.995,vts_reward_expectancy_bt,2022.2.4,Win32,59.16459591,Chrome,1368,912,,,l,1.2922,10,382,1,2,6,30,4,1,0,1,0,0,0,0,1,0,circle,hexagon,,,,,,,,,,,,,,,,,,,,,,,,,,,,,,,,,,,,,,,,,,,,,,,,,,,,,,
296671,2022-11-25_11h21.25.995,vts_reward_expectancy_bt,2022.2.4,Win32,59.16459591,Chrome,1368,912,,,l,1.1903,10,392,1,2,7,31,9,1,0,0,0,1,1,0,0,0,star,triangle,,,,,,,,,,,,,,,,,,,,,,,,,,,,,,,,,,,,,,,,,,,,,,,,,,,,,,
296671,2022-11-25_11h21.25.995,vts_reward_expectancy_bt,2022.2.4,Win32,59.16459591,Chrome,1368,912,,,l,0.9321,1,393,1,2,8,32,5,1,0,1,0,0,0,0,0,1,circle,star,,,,,,,,,,,,,,,,,,,,,,,,,,,,,,,,,,,,,,,,,,,,,,,,,,,,,,
296671,2022-11-25_11h21.25.995,vts_reward_expectancy_bt,2022.2.4,Win32,59.16459591,Chrome,1368,912,,,a,0.9684,1,394,1,2,9,33,11,1,0,0,0,1,0,0,1,0,star,hexagon,,,,,,,,,,,,,,,,,,,,,,,,,,,,,,,,,,,,,,,,,,,,,,,,,,,,,,
296671,2022-11-25_11h21.25.995,vts_reward_expectancy_bt,2022.2.4,Win32,59.16459591,Chrome,1368,912,,,l,1.9626,10,404,1,2,10,34,10,1,0,0,0,1,0,1,0,0,star ,circle,,,,,,,,,,,,,,,,,,,,,,,,,,,,,,,,,,,,,,,,,,,,,,,,,,,,,,
296671,2022-11-25_11h21.25.995,vts_reward_expectancy_bt,2022.2.4,Win32,59.16459591,Chrome,1368,912,,,l,1.0678,1,405,1,2,11,35,6,1,0,0,1,0,1,0,0,0,hexagon,triangle,,,,,,,,,,,,,,,,,,,,,,,,,,,,,,,,,,,,,,,,,,,,,,,,,,,,,,
296671,2022-11-25_11h21.25.995,vts_reward_expectancy_bt,2022.2.4,Win32,59.16459591,Chrome,1368,912,,,a,2.4691,1,406,2,0,0,0,4,1,0,1,0,0,0,0,1,0,circle,hexagon,,,,,,,,,,,,,,,,,,,,,,,,,,,,,,,,,,,,,,,,,,,,,,,,,,,,,,
296671,2022-11-25_11h21.25.995,vts_reward_expectancy_bt,2022.2.4,Win32,59.16459591,Chrome,1368,912,,,l,1.3157,10,416,2,0,1,1,1,1,1,0,0,0,0,0,1,0,triangle,hexagon,,,,,,,,,,,,,,,,,,,,,,,,,,,,,,,,,,,,,,,,,,,,,,,,,,,,,,
296671,2022-11-25_11h21.25.995,vts_reward_expectancy_bt,2022.2.4,Win32,59.16459591,Chrome,1368,912,,,a,1.1188,1,417,2,0,2,2,0,1,1,0,0,0,0,1,0,0,triangle,circle,,,,,,,,,,,,,,,,,,,,,,,,,,,,,,,,,,,,,,,,,,,,,,,,,,,,,,
296671,2022-11-25_11h21.25.995,vts_reward_expectancy_bt,2022.2.4,Win32,59.16459591,Chrome,1368,912,,,a,1.5268,10,427,2,0,3,3,9,1,0,0,0,1,1,0,0,0,star,triangle,,,,,,,,,,,,,,,,,,,,,,,,,,,,,,,,,,,,,,,,,,,,,,,,,,,,,,
296671,2022-11-25_11h21.25.995,vts_reward_expectancy_bt,2022.2.4,Win32,59.16459591,Chrome,1368,912,,,a,1.1325,10,437,2,0,4,4,6,1,0,0,1,0,1,0,0,0,hexagon,triangle,,,,,,,,,,,,,,,,,,,,,,,,,,,,,,,,,,,,,,,,,,,,,,,,,,,,,,
296671,2022-11-25_11h21.25.995,vts_reward_expectancy_bt,2022.2.4,Win32,59.16459591,Chrome,1368,912,,,a,2.4196,1,438,2,0,5,5,11,1,0,0,0,1,0,0,1,0,star,hexagon,,,,,,,,,,,,,,,,,,,,,,,,,,,,,,,,,,,,,,,,,,,,,,,,,,,,,,
296671,2022-11-25_11h21.25.995,vts_reward_expectancy_bt,2022.2.4,Win32,59.16459591,Chrome,1368,912,,,a,0.5778,1,439,2,0,6,6,10,1,0,0,0,1,0,1,0,0,star ,circle,,,,,,,,,,,,,,,,,,,,,,,,,,,,,,,,,,,,,,,,,,,,,,,,,,,,,,
296671,2022-11-25_11h21.25.995,vts_reward_expectancy_bt,2022.2.4,Win32,59.16459591,Chrome,1368,912,,,l,0.4758,1,440,2,0,7,7,2,1,1,0,0,0,0,0,0,1,triangle,star,,,,,,,,,,,,,,,,,,,,,,,,,,,,,,,,,,,,,,,,,,,,,,,,,,,,,,
296671,2022-11-25_11h21.25.995,vts_reward_expectancy_bt,2022.2.4,Win32,59.16459591,Chrome,1368,912,,,l,1.0682,1,441,2,0,8,8,7,1,0,0,1,0,0,1,0,0,hexagon,circle,,,,,,,,,,,,,,,,,,,,,,,,,,,,,,,,,,,,,,,,,,,,,,,,,,,,,,
296671,2022-11-25_11h21.25.995,vts_reward_expectancy_bt,2022.2.4,Win32,59.16459591,Chrome,1368,912,,,l,0.5032,1,442,2,0,9,9,5,1,0,1,0,0,0,0,0,1,circle,star,,,,,,,,,,,,,,,,,,,,,,,,,,,,,,,,,,,,,,,,,,,,,,,,,,,,,,
296671,2022-11-25_11h21.25.995,vts_reward_expectancy_bt,2022.2.4,Win32,59.16459591,Chrome,1368,912,,,a,0.788,1,443,2,0,10,10,3,1,0,1,0,0,1,0,0,0,circle,triangle,,,,,,,,,,,,,,,,,,,,,,,,,,,,,,,,,,,,,,,,,,,,,,,,,,,,,,
296671,2022-11-25_11h21.25.995,vts_reward_expectancy_bt,2022.2.4,Win32,59.16459591,Chrome,1368,912,,,a,0.7004,10,453,2,0,11,11,8,1,0,0,1,0,0,0,0,1,hexagon,star,,,,,,,,,,,,,,,,,,,,,,,,,,,,,,,,,,,,,,,,,,,,,,,,,,,,,,
296671,2022-11-25_11h21.25.995,vts_reward_expectancy_bt,2022.2.4,Win32,59.16459591,Chrome,1368,912,,,l,0.759,10,463,2,1,0,12,4,1,0,1,0,0,0,0,1,0,circle,hexagon,,,,,,,,,,,,,,,,,,,,,,,,,,,,,,,,,,,,,,,,,,,,,,,,,,,,,,
296671,2022-11-25_11h21.25.995,vts_reward_expectancy_bt,2022.2.4,Win32,59.16459591,Chrome,1368,912,,,a,0.731,10,473,2,1,1,13,2,1,1,0,0,0,0,0,0,1,triangle,star,,,,,,,,,,,,,,,,,,,,,,,,,,,,,,,,,,,,,,,,,,,,,,,,,,,,,,
296671,2022-11-25_11h21.25.995,vts_reward_expectancy_bt,2022.2.4,Win32,59.16459591,Chrome,1368,912,,,l,0.6667,10,483,2,1,2,14,10,1,0,0,0,1,0,1,0,0,star ,circle,,,,,,,,,,,,,,,,,,,,,,,,,,,,,,,,,,,,,,,,,,,,,,,,,,,,,,
296671,2022-11-25_11h21.25.995,vts_reward_expectancy_bt,2022.2.4,Win32,59.16459591,Chrome,1368,912,,,l,0.5178,1,484,2,1,3,15,9,1,0,0,0,1,1,0,0,0,star,triangle,,,,,,,,,,,,,,,,,,,,,,,,,,,,,,,,,,,,,,,,,,,,,,,,,,,,,,
296671,2022-11-25_11h21.25.995,vts_reward_expectancy_bt,2022.2.4,Win32,59.16459591,Chrome,1368,912,,,l,2.5365,10,494,2,1,4,16,11,1,0,0,0,1,0,0,1,0,star,hexagon,,,,,,,,,,,,,,,,,,,,,,,,,,,,,,,,,,,,,,,,,,,,,,,,,,,,,,
296671,2022-11-25_11h21.25.995,vts_reward_expectancy_bt,2022.2.4,Win32,59.16459591,Chrome,1368,912,,,l,0.5487,10,504,2,1,5,17,1,1,1,0,0,0,0,0,1,0,triangle,hexagon,,,,,,,,,,,,,,,,,,,,,,,,,,,,,,,,,,,,,,,,,,,,,,,,,,,,,,
296671,2022-11-25_11h21.25.995,vts_reward_expectancy_bt,2022.2.4,Win32,59.16459591,Chrome,1368,912,,,a,0.6785,10,514,2,1,6,18,5,1,0,1,0,0,0,0,0,1,circle,star,,,,,,,,,,,,,,,,,,,,,,,,,,,,,,,,,,,,,,,,,,,,,,,,,,,,,,
296671,2022-11-25_11h21.25.995,vts_reward_expectancy_bt,2022.2.4,Win32,59.16459591,Chrome,1368,912,,,a,0.6818,1,515,2,1,7,19,8,1,0,0,1,0,0,0,0,1,hexagon,star,,,,,,,,,,,,,,,,,,,,,,,,,,,,,,,,,,,,,,,,,,,,,,,,,,,,,,
296671,2022-11-25_11h21.25.995,vts_reward_expectancy_bt,2022.2.4,Win32,59.16459591,Chrome,1368,912,,,a,1.402,10,525,2,1,8,20,3,1,0,1,0,0,1,0,0,0,circle,triangle,,,,,,,,,,,,,,,,,,,,,,,,,,,,,,,,,,,,,,,,,,,,,,,,,,,,,,
296671,2022-11-25_11h21.25.995,vts_reward_expectancy_bt,2022.2.4,Win32,59.16459591,Chrome,1368,912,,,l,1.2753,10,535,2,1,9,21,0,1,1,0,0,0,0,1,0,0,triangle,circle,,,,,,,,,,,,,,,,,,,,,,,,,,,,,,,,,,,,,,,,,,,,,,,,,,,,,,
296671,2022-11-25_11h21.25.995,vts_reward_expectancy_bt,2022.2.4,Win32,59.16459591,Chrome,1368,912,,,l,0.6175,10,545,2,1,10,22,7,1,0,0,1,0,0,1,0,0,hexagon,circle,,,,,,,,,,,,,,,,,,,,,,,,,,,,,,,,,,,,,,,,,,,,,,,,,,,,,,
296671,2022-11-25_11h21.25.995,vts_reward_expectancy_bt,2022.2.4,Win32,59.16459591,Chrome,1368,912,,,a,1.0977,10,555,2,1,11,23,6,1,0,0,1,0,1,0,0,0,hexagon,triangle,,,,,,,,,,,,,,,,,,,,,,,,,,,,,,,,,,,,,,,,,,,,,,,,,,,,,,
296671,2022-11-25_11h21.25.995,vts_reward_expectancy_bt,2022.2.4,Win32,59.16459591,Chrome,1368,912,,,a,0.5913,10,565,2,2,0,24,5,1,0,1,0,0,0,0,0,1,circle,star,,,,,,,,,,,,,,,,,,,,,,,,,,,,,,,,,,,,,,,,,,,,,,,,,,,,,,
296671,2022-11-25_11h21.25.995,vts_reward_expectancy_bt,2022.2.4,Win32,59.16459591,Chrome,1368,912,,,l,1.1397,10,575,2,2,1,25,0,1,1,0,0,0,0,1,0,0,triangle,circle,,,,,,,,,,,,,,,,,,,,,,,,,,,,,,,,,,,,,,,,,,,,,,,,,,,,,,
296671,2022-11-25_11h21.25.995,vts_reward_expectancy_bt,2022.2.4,Win32,59.16459591,Chrome,1368,912,,,l,1.0013,1,576,2,2,2,26,6,1,0,0,1,0,1,0,0,0,hexagon,triangle,,,,,,,,,,,,,,,,,,,,,,,,,,,,,,,,,,,,,,,,,,,,,,,,,,,,,,
296671,2022-11-25_11h21.25.995,vts_reward_expectancy_bt,2022.2.4,Win32,59.16459591,Chrome,1368,912,,,a,1.0986,10,586,2,2,3,27,4,1,0,1,0,0,0,0,1,0,circle,hexagon,,,,,,,,,,,,,,,,,,,,,,,,,,,,,,,,,,,,,,,,,,,,,,,,,,,,,,
296671,2022-11-25_11h21.25.995,vts_reward_expectancy_bt,2022.2.4,Win32,59.16459591,Chrome,1368,912,,,a,2.2067,1,587,2,2,4,28,9,1,0,0,0,1,1,0,0,0,star,triangle,,,,,,,,,,,,,,,,,,,,,,,,,,,,,,,,,,,,,,,,,,,,,,,,,,,,,,
296671,2022-11-25_11h21.25.995,vts_reward_expectancy_bt,2022.2.4,Win32,59.16459591,Chrome,1368,912,,,l,0.6319,10,597,2,2,5,29,10,1,0,0,0,1,0,1,0,0,star ,circle,,,,,,,,,,,,,,,,,,,,,,,,,,,,,,,,,,,,,,,,,,,,,,,,,,,,,,
296671,2022-11-25_11h21.25.995,vts_reward_expectancy_bt,2022.2.4,Win32,59.16459591,Chrome,1368,912,,,l,1.0406,10,607,2,2,6,30,1,1,1,0,0,0,0,0,1,0,triangle,hexagon,,,,,,,,,,,,,,,,,,,,,,,,,,,,,,,,,,,,,,,,,,,,,,,,,,,,,,
296671,2022-11-25_11h21.25.995,vts_reward_expectancy_bt,2022.2.4,Win32,59.16459591,Chrome,1368,912,,,a,0.4835,10,617,2,2,7,31,8,1,0,0,1,0,0,0,0,1,hexagon,star,,,,,,,,,,,,,,,,,,,,,,,,,,,,,,,,,,,,,,,,,,,,,,,,,,,,,,
296671,2022-11-25_11h21.25.995,vts_reward_expectancy_bt,2022.2.4,Win32,59.16459591,Chrome,1368,912,,,a,0.4331,10,627,2,2,8,32,3,1,0,1,0,0,1,0,0,0,circle,triangle,,,,,,,,,,,,,,,,,,,,,,,,,,,,,,,,,,,,,,,,,,,,,,,,,,,,,,
296671,2022-11-25_11h21.25.995,vts_reward_expectancy_bt,2022.2.4,Win32,59.16459591,Chrome,1368,912,,,l,0.3988,10,637,2,2,9,33,11,1,0,0,0,1,0,0,1,0,star,hexagon,,,,,,,,,,,,,,,,,,,,,,,,,,,,,,,,,,,,,,,,,,,,,,,,,,,,,,
296671,2022-11-25_11h21.25.995,vts_reward_expectancy_bt,2022.2.4,Win32,59.16459591,Chrome,1368,912,,,a,0.4215,1,638,2,2,10,34,2,1,1,0,0,0,0,0,0,1,triangle,star,,,,,,,,,,,,,,,,,,,,,,,,,,,,,,,,,,,,,,,,,,,,,,,,,,,,,,
296671,2022-11-25_11h21.25.995,vts_reward_expectancy_bt,2022.2.4,Win32,59.16459591,Chrome,1368,912,,,l,0.5751,10,648,2,2,11,35,7,1,0,0,1,0,0,1,0,0,hexagon,circle,,,,,,,,,,,,,,,,,,,,,,,,,,,,,,,,,,,,,,,,,,,,,,,,,,,,,,
296671,2022-11-25_11h21.25.995,vts_reward_expectancy_bt,2022.2.4,Win32,59.16459591,Chrome,1368,912,,,,,,,,,,,,,,,,,,,,,,,125,D,hexagon,1,0,d,0.5103,0,0,0,0,0,1,,,,,,,,,,,,,,,,,,,,,,,,,,,,,,,,,,,,,,,,,
296671,2022-11-25_11h21.25.995,vts_reward_expectancy_bt,2022.2.4,Win32,59.16459591,Chrome,1368,912,,,,,,,,,,,,,,,,,,,,,,,160,U,triangle,1,0,f,1.0851,0,1,0,1,0,1,,,,,,,,,,,,,,,,,,,,,,,,,,,,,,,,,,,,,,,,,
296671,2022-11-25_11h21.25.995,vts_reward_expectancy_bt,2022.2.4,Win32,59.16459591,Chrome,1368,912,,,,,,,,,,,,,,,,,,,,,,,174,Y,circle,1,0,f,0.5677,0,2,0,2,0,1,,,,,,,,,,,,,,,,,,,,,,,,,,,,,,,,,,,,,,,,,
296671,2022-11-25_11h21.25.995,vts_reward_expectancy_bt,2022.2.4,Win32,59.16459591,Chrome,1368,912,,,,,,,,,,,,,,,,,,,,,,,146,B,star,1,0,d,0.601,0,3,0,3,0,1,,,,,,,,,,,,,,,,,,,,,,,,,,,,,,,,,,,,,,,,,
296671,2022-11-25_11h21.25.995,vts_reward_expectancy_bt,2022.2.4,Win32,59.16459591,Chrome,1368,912,,,,,,,,,,,,,,,,,,,,,,,167,S,hexagon,1,0,f,0.5175,0,4,0,4,0,1,,,,,,,,,,,,,,,,,,,,,,,,,,,,,,,,,,,,,,,,,
296671,2022-11-25_11h21.25.995,vts_reward_expectancy_bt,2022.2.4,Win32,59.16459591,Chrome,1368,912,,,,,,,,,,,,,,,,,,,,,,,181,H,triangle,1,0,f,0.6679,0,5,0,5,0,1,,,,,,,,,,,,,,,,,,,,,,,,,,,,,,,,,,,,,,,,,
296671,2022-11-25_11h21.25.995,vts_reward_expectancy_bt,2022.2.4,Win32,59.16459591,Chrome,1368,912,,,,,,,,,,,,,,,,,,,,,,,132,W,circle,1,0,d,0.5011,0,6,0,6,0,1,,,,,,,,,,,,,,,,,,,,,,,,,,,,,,,,,,,,,,,,,
296671,2022-11-25_11h21.25.995,vts_reward_expectancy_bt,2022.2.4,Win32,59.16459591,Chrome,1368,912,,,,,,,,,,,,,,,,,,,,,,,139,F,star,1,0,d,0.5676,0,7,0,7,0,1,,,,,,,,,,,,,,,,,,,,,,,,,,,,,,,,,,,,,,,,,
296671,2022-11-25_11h21.25.995,vts_reward_expectancy_bt,2022.2.4,Win32,59.16459591,Chrome,1368,912,,,,,,,,,,,,,,,,,,,,,,,125,D,triangle,1,0,d,0.4744,0,8,0,8,0,1,,,,,,,,,,,,,,,,,,,,,,,,,,,,,,,,,,,,,,,,,
296671,2022-11-25_11h21.25.995,vts_reward_expectancy_bt,2022.2.4,Win32,59.16459591,Chrome,1368,912,,,,,,,,,,,,,,,,,,,,,,,160,U,circle,1,0,f,0.4842,0,9,0,9,0,1,,,,,,,,,,,,,,,,,,,,,,,,,,,,,,,,,,,,,,,,,
296671,2022-11-25_11h21.25.995,vts_reward_expectancy_bt,2022.2.4,Win32,59.16459591,Chrome,1368,912,,,,,,,,,,,,,,,,,,,,,,,125,D,star,1,0,,,1,,,,,,j,1.9186,0,0,0,0,1,,,,,,,,,,,,,,,,,,,,,,,,,,,,,,,,,,
296671,2022-11-25_11h21.25.995,vts_reward_expectancy_bt,2022.2.4,Win32,59.16459591,Chrome,1368,912,,,,,,,,,,,,,,,,,,,,,,,167,H,hexagon,1,0,,,1,,,,,,j,0.8682,1,0,1,0,1,,,,,,,,,,,,,,,,,,,,,,,,,,,,,,,,,,
296671,2022-11-25_11h21.25.995,vts_reward_expectancy_bt,2022.2.4,Win32,59.16459591,Chrome,1368,912,,,,,,,,,,,,,,,,,,,,,,,181,B,circle,1,0,,,1,,,,,,j,0.6678,2,0,2,0,1,,,,,,,,,,,,,,,,,,,,,,,,,,,,,,,,,,
296671,2022-11-25_11h21.25.995,vts_reward_expectancy_bt,2022.2.4,Win32,59.16459591,Chrome,1368,912,,,,,,,,,,,,,,,,,,,,,,,139,S,triangle,1,0,,,1,,,,,,k,0.7684,3,0,3,0,1,,,,,,,,,,,,,,,,,,,,,,,,,,,,,,,,,,
296671,2022-11-25_11h21.25.995,vts_reward_expectancy_bt,2022.2.4,Win32,59.16459591,Chrome,1368,912,,,,,,,,,,,,,,,,,,,,,,,146,W,star,1,0,,,1,,,,,,k,0.8847,4,0,4,0,1,,,,,,,,,,,,,,,,,,,,,,,,,,,,,,,,,,
296671,2022-11-25_11h21.25.995,vts_reward_expectancy_bt,2022.2.4,Win32,59.16459591,Chrome,1368,912,,,,,,,,,,,,,,,,,,,,,,,174,U,hexagon,1,0,,,1,,,,,,k,0.7843,5,0,5,0,1,,,,,,,,,,,,,,,,,,,,,,,,,,,,,,,,,,
296671,2022-11-25_11h21.25.995,vts_reward_expectancy_bt,2022.2.4,Win32,59.16459591,Chrome,1368,912,,,,,,,,,,,,,,,,,,,,,,,160,F,circle,1,0,,,1,,,,,,j,0.8848,6,0,6,0,1,,,,,,,,,,,,,,,,,,,,,,,,,,,,,,,,,,
296671,2022-11-25_11h21.25.995,vts_reward_expectancy_bt,2022.2.4,Win32,59.16459591,Chrome,1368,912,,,,,,,,,,,,,,,,,,,,,,,132,Y,triangle,1,0,,,1,,,,,,k,0.7009,7,0,7,0,1,,,,,,,,,,,,,,,,,,,,,,,,,,,,,,,,,,
296671,2022-11-25_11h21.25.995,vts_reward_expectancy_bt,2022.2.4,Win32,59.16459591,Chrome,1368,912,,,,,,,,,,,,,,,,,,,,,,,125,D,circle,1,0,,,1,,,,,,j,0.7009,8,0,8,0,1,,,,,,,,,,,,,,,,,,,,,,,,,,,,,,,,,,
296671,2022-11-25_11h21.25.995,vts_reward_expectancy_bt,2022.2.4,Win32,59.16459591,Chrome,1368,912,,,,,,,,,,,,,,,,,,,,,,,167,H,star,0,0,,,1,,,,,,k,0.9512,9,0,9,0,1,,,,,,,,,,,,,,,,,,,,,,,,,,,,,,,,,,
296671,2022-11-25_11h21.25.995,vts_reward_expectancy_bt,2022.2.4,Win32,59.16459591,Chrome,1368,912,,,,,0,648,,,,,,,,,,,,,,,,,167,W,star,0,1,,,2,,,,,,,,,,,,,-1,number,NA,d,0.0008,vtsPrac,0,0,0,0,1,,,,,,,,,,,,,,,,,,,,,,,
296671,2022-11-25_11h21.25.995,vts_reward_expectancy_bt,2022.2.4,Win32,59.16459591,Chrome,1368,912,,,,,0,648,,,,,,,,,,,,,,,,,174,D,circle,1,1,,,2,,,,,,,,,,,,,switch,letter,lettSwt,j,1.1846,vtsPrac,1,0,1,0,1,,,,,,,,,,,,,,,,,,,,,,,
296671,2022-11-25_11h21.25.995,vts_reward_expectancy_bt,2022.2.4,Win32,59.16459591,Chrome,1368,912,,,,,0,648,,,,,,,,,,,,,,,,,139,Y,star,1,0,,,2,,,,,,,,,,,,,repeat,letter,lettRpt,k,0.8846,vtsPrac,2,0,2,0,1,,,,,,,,,,,,,,,,,,,,,,,
296671,2022-11-25_11h21.25.995,vts_reward_expectancy_bt,2022.2.4,Win32,59.16459591,Chrome,1368,912,,,,,0,648,,,,,,,,,,,,,,,,,125,S,circle,1,0,,,2,,,,,,,,,,,,,switch,number,numSwt,d,0.5178,vtsPrac,3,0,3,0,1,,,,,,,,,,,,,,,,,,,,,,,
296671,2022-11-25_11h21.25.995,vts_reward_expectancy_bt,2022.2.4,Win32,59.16459591,Chrome,1368,912,,,,,0,648,,,,,,,,,,,,,,,,,167,W,hexagon,1,0,,,2,,,,,,,,,,,,,switch,letter,lettSwt,k,0.6514,vtsPrac,4,0,4,0,1,,,,,,,,,,,,,,,,,,,,,,,
296671,2022-11-25_11h21.25.995,vts_reward_expectancy_bt,2022.2.4,Win32,59.16459591,Chrome,1368,912,,,,,0,648,,,,,,,,,,,,,,,,,174,D,triangle,1,0,,,2,,,,,,,,,,,,,switch,number,numSwt,f,0.5366,vtsPrac,5,0,5,0,1,,,,,,,,,,,,,,,,,,,,,,,
296671,2022-11-25_11h21.25.995,vts_reward_expectancy_bt,2022.2.4,Win32,59.16459591,Chrome,1368,912,,,,,0,648,,,,,,,,,,,,,,,,,139,Y,star,1,0,,,2,,,,,,,,,,,,,repeat,number,numRpt,d,0.4467,vtsPrac,6,0,6,0,1,,,,,,,,,,,,,,,,,,,,,,,
296671,2022-11-25_11h21.25.995,vts_reward_expectancy_bt,2022.2.4,Win32,59.16459591,Chrome,1368,912,,,,,0,648,,,,,,,,,,,,,,,,,125,S,hexagon,1,0,,,2,,,,,,,,,,,,,repeat,number,numRpt,d,0.5046,vtsPrac,7,0,7,0,1,,,,,,,,,,,,,,,,,,,,,,,
296671,2022-11-25_11h21.25.995,vts_reward_expectancy_bt,2022.2.4,Win32,59.16459591,Chrome,1368,912,,,,,0,648,,,,,,,,,,,,,,,,,125,S,circle,1,0,,,2,,,,,,,,,,,,,repeat,number,numRpt,d,0.4341,vtsPrac,8,0,8,0,1,,,,,,,,,,,,,,,,,,,,,,,
296671,2022-11-25_11h21.25.995,vts_reward_expectancy_bt,2022.2.4,Win32,59.16459591,Chrome,1368,912,,,,,0,648,,,,,,,,,,,,,,,,,174,W,triangle,1,0,,,2,,,,,,,,,,,,,switch,letter,lettSwt,k,0.6305,vtsPrac,9,0,9,0,1,,,,,,,,,,,,,,,,,,,,,,,
296671,2022-11-25_11h21.25.995,vts_reward_expectancy_bt,2022.2.4,Win32,59.16459591,Chrome,1368,912,,,,,0,648,,,,,,,,,,,,,,,,,132,H,hexagon,1,0,,,2,,,,,,,,,,,,,repeat,letter,lettRpt,j,0.851,vtsPrac,10,0,10,0,1,,,,,,,,,,,,,,,,,,,,,,,
296671,2022-11-25_11h21.25.995,vts_reward_expectancy_bt,2022.2.4,Win32,59.16459591,Chrome,1368,912,,,,,0,648,,,,,,,,,,,,,,,,,167,U,star,1,0,,,2,,,,,,,,,,,,,switch,number,numSwt,f,0.8722,vtsPrac,11,0,11,0,1,,,,,,,,,,,,,,,,,,,,,,,
296671,2022-11-25_11h21.25.995,vts_reward_expectancy_bt,2022.2.4,Win32,59.16459591,Chrome,1368,912,,,,,0,648,,,,,,,,,,,,,,,,,125,H,star,1,0,,,2,,,,,,,,,,,,,repeat,number,numRpt,d,0.6678,vtsPrac,12,0,12,0,1,,,,,,,,,,,,,,,,,,,,,,,
296671,2022-11-25_11h21.25.995,vts_reward_expectancy_bt,2022.2.4,Win32,59.16459591,Chrome,1368,912,,,,,0,648,,,,,,,,,,,,,,,,,139,U,hexagon,1,0,,,2,,,,,,,,,,,,,repeat,number,numRpt,d,0.7014,vtsPrac,13,0,13,0,1,,,,,,,,,,,,,,,,,,,,,,,
296671,2022-11-25_11h21.25.995,vts_reward_expectancy_bt,2022.2.4,Win32,59.16459591,Chrome,1368,912,,,,,0,648,,,,,,,,,,,,,,,,,174,S,star,1,0,,,2,,,,,,,,,,,,,repeat,number,numRpt,f,0.5858,vtsPrac,14,0,14,0,1,,,,,,,,,,,,,,,,,,,,,,,
296671,2022-11-25_11h21.25.995,vts_reward_expectancy_bt,2022.2.4,Win32,59.16459591,Chrome,1368,912,,,,,0,648,,,,,,,,,,,,,,,,,181,F,triangle,1,0,,,2,,,,,,,,,,,,,switch,letter,lettSwt,j,0.8178,vtsPrac,15,0,15,0,1,,,,,,,,,,,,,,,,,,,,,,,
296671,2022-11-25_11h21.25.995,vts_reward_expectancy_bt,2022.2.4,Win32,59.16459591,Chrome,1368,912,,,,,0,648,,,,,,,,,,,,,,,,,132,H,star,1,0,,,2,,,,,,,,,,,,,repeat,letter,lettRpt,j,0.8089,vtsPrac,16,0,16,0,1,,,,,,,,,,,,,,,,,,,,,,,
296671,2022-11-25_11h21.25.995,vts_reward_expectancy_bt,2022.2.4,Win32,59.16459591,Chrome,1368,912,,,,,0,648,,,,,,,,,,,,,,,,,139,Y,circle,1,0,,,2,,,,,,,,,,,,,repeat,letter,lettRpt,k,0.7514,vtsPrac,17,0,17,0,1,,,,,,,,,,,,,,,,,,,,,,,
296671,2022-11-25_11h21.25.995,vts_reward_expectancy_bt,2022.2.4,Win32,59.16459591,Chrome,1368,912,,,,,0,648,,,,,,,,,,,,,,,,,181,W,triangle,1,0,,,2,,,,,,,,,,,,,switch,number,numSwt,f,0.6514,vtsPrac,18,0,18,0,1,,,,,,,,,,,,,,,,,,,,,,,
296671,2022-11-25_11h21.25.995,vts_reward_expectancy_bt,2022.2.4,Win32,59.16459591,Chrome,1368,912,,,,,0,648,,,,,,,,,,,,,,,,,167,D,hexagon,1,0,,,2,,,,,,,,,,,,,repeat,number,numRpt,f,0.7348,vtsPrac,19,0,19,0,1,,,,,,,,,,,,,,,,,,,,,,,
296671,2022-11-25_11h21.25.995,vts_reward_expectancy_bt,2022.2.4,Win32,59.16459591,Chrome,1368,912,,,,,0,648,,,,,,,,,,,,,,,,,160,H,star,1,0,,,2,,,,,,,,,,,,,repeat,number,numRpt,f,0.6616,vtsPrac,20,0,20,0,1,,,,,,,,,,,,,,,,,,,,,,,
296671,2022-11-25_11h21.25.995,vts_reward_expectancy_bt,2022.2.4,Win32,59.16459591,Chrome,1368,912,,,,,0,648,,,,,,,,,,,,,,,,,146,Y,hexagon,1,0,,,2,,,,,,,,,,,,,switch,letter,lettSwt,k,0.8451,vtsPrac,21,0,21,0,1,,,,,,,,,,,,,,,,,,,,,,,
296671,2022-11-25_11h21.25.995,vts_reward_expectancy_bt,2022.2.4,Win32,59.16459591,Chrome,1368,912,,,,,0,648,,,,,,,,,,,,,,,,,125,D,hexagon,1,0,,,2,,,,,,,,,,,,,repeat,letter,lettRpt,j,0.5956,vtsPrac,22,0,22,0,1,,,,,,,,,,,,,,,,,,,,,,,
296671,2022-11-25_11h21.25.995,vts_reward_expectancy_bt,2022.2.4,Win32,59.16459591,Chrome,1368,912,,,,,0,648,,,,,,,,,,,,,,,,,167,F,circle,1,0,,,2,,,,,,,,,,,,,switch,number,numSwt,f,0.5041,vtsPrac,23,0,23,0,1,,,,,,,,,,,,,,,,,,,,,,,
296671,2022-11-25_11h21.25.995,vts_reward_expectancy_bt,2022.2.4,Win32,59.16459591,Chrome,1368,912,,,,,0,648,,,,,,,,,,,,,,,,,132,S,hexagon,1,0,,,2,,,,,,,,,,,,,switch,letter,lettSwt,k,1.0448,vtsPrac,24,0,24,0,1,,,,,,,,,,,,,,,,,,,,,,,
296671,2022-11-25_11h21.25.995,vts_reward_expectancy_bt,2022.2.4,Win32,59.16459591,Chrome,1368,912,,,,,0,648,,,,,,,,,,,,,,,,,125,D,circle,1,0,,,2,,,,,,,,,,,,,switch,number,numSwt,d,0.7836,vtsPrac,25,0,25,0,1,,,,,,,,,,,,,,,,,,,,,,,
296671,2022-11-25_11h21.25.995,vts_reward_expectancy_bt,2022.2.4,Win32,59.16459591,Chrome,1368,912,,,,,0,648,,,,,,,,,,,,,,,,,181,W,hexagon,1,0,,,2,,,,,,,,,,,,,repeat,number,numRpt,f,0.5448,vtsPrac,26,0,26,0,1,,,,,,,,,,,,,,,,,,,,,,,
296671,2022-11-25_11h21.25.995,vts_reward_expectancy_bt,2022.2.4,Win32,59.16459591,Chrome,1368,912,,,,,0,648,,,,,,,,,,,,,,,,,146,H,triangle,1,0,,,2,,,,,,,,,,,,,repeat,number,numRpt,d,0.6307,vtsPrac,27,0,27,0,1,,,,,,,,,,,,,,,,,,,,,,,
296671,2022-11-25_11h21.25.995,vts_reward_expectancy_bt,2022.2.4,Win32,59.16459591,Chrome,1368,912,,,,,0,648,,,,,,,,,,,,,,,,,160,B,triangle,1,0,,,2,,,,,,,,,,,,,switch,letter,lettSwt,j,0.716,vtsPrac,28,0,28,0,1,,,,,,,,,,,,,,,,,,,,,,,
296671,2022-11-25_11h21.25.995,vts_reward_expectancy_bt,2022.2.4,Win32,59.16459591,Chrome,1368,912,,,,,0,648,,,,,,,,,,,,,,,,,132,W,circle,1,0,,,2,,,,,,,,,,,,,repeat,letter,lettRpt,k,0.6441,vtsPrac,29,0,29,0,1,,,,,,,,,,,,,,,,,,,,,,,
296671,2022-11-25_11h21.25.995,vts_reward_expectancy_bt,2022.2.4,Win32,59.16459591,Chrome,1368,912,,,,,0,648,,,,,,,,,,,,,,,,,167,S,star,0,0,,,2,,,,,,,,,,,,,switch,number,NA,d,0.6725,vtsPrac,30,0,30,0,1,,,,,,,,,,,,,,,,,,,,,,,
296671,2022-11-25_11h21.25.995,vts_reward_expectancy_bt,2022.2.4,Win32,59.16459591,Chrome,1368,912,,,,,0,648,,,,,,,,,,,,,,,,,181,H,triangle,1,1,,,2,,,,,,,,,,,,,repeat,number,numRpt,f,0.6634,vtsPrac,31,0,31,0,1,,,,,,,,,,,,,,,,,,,,,,,
296671,2022-11-25_11h21.25.995,vts_reward_expectancy_bt,2022.2.4,Win32,59.16459591,Chrome,1368,912,,,,,,,,,,,,,,,,,,,,,,,,,,,,,,,,,,,,,,,,,,,,,,,,,,,,,,,,,,,,,,,,,,,,,,,,,,,,
296671,2022-11-25_11h21.25.995,vts_reward_expectancy_bt,2022.2.4,Win32,59.16459591,Chrome,1368,912,,,,,,,,,,,,,,,,,,,,,,,,,,,,,,,,,,,,,,,,,,,,,,,,,,,,,,,,,,,,,,,,,,,,,,,,,,,,
296671,2022-11-25_11h21.25.995,vts_reward_expectancy_bt,2022.2.4,Win32,59.16459591,Chrome,1368,912,,,,,0,648,,,,,,,,,,,,,,,,,139,U,star,0,0,,,,,,,,,,,,,,,,repeat,number,NA,f,0.6957,noRew,,,,,,0,0,0,0,0,1,,,,,,,,,,,,,,,,,
296671,2022-11-25_11h21.25.995,vts_reward_expectancy_bt,2022.2.4,Win32,59.16459591,Chrome,1368,912,,,,,0,648,,,,,,,,,,,,,,,,,181,H,triangle,1,1,,,,,,,,,,,,,,,,repeat,number,numRpt,f,0.6958,noRew,,,,,,0,1,0,1,0,1,,,,,,,,,,,,,,,,,
296671,2022-11-25_11h21.25.995,vts_reward_expectancy_bt,2022.2.4,Win32,59.16459591,Chrome,1368,912,,,,,0,648,,,,,,,,,,,,,,,,,167,D,star,1,0,,,,,,,,,,,,,,,,switch,letter,lettSwt,j,0.5789,noRew,,,,,,0,2,0,2,0,1,,,,,,,,,,,,,,,,,
296671,2022-11-25_11h21.25.995,vts_reward_expectancy_bt,2022.2.4,Win32,59.16459591,Chrome,1368,912,,,,,0,648,,,,,,,,,,,,,,,,,174,B,triangle,1,0,,,,,,,,,,,,,,,,switch,number,numSwt,f,0.5963,noRew,,,,,,0,3,0,3,0,1,,,,,,,,,,,,,,,,,
296671,2022-11-25_11h21.25.995,vts_reward_expectancy_bt,2022.2.4,Win32,59.16459591,Chrome,1368,912,,,,,0,648,,,,,,,,,,,,,,,,,139,U,hexagon,1,0,,,,,,,,,,,,,,,,switch,letter,lettSwt,k,0.8236,noRew,,,,,,0,4,0,4,0,1,,,,,,,,,,,,,,,,,
296671,2022-11-25_11h21.25.995,vts_reward_expectancy_bt,2022.2.4,Win32,59.16459591,Chrome,1368,912,,,,,0,648,,,,,,,,,,,,,,,,,181,H,triangle,0,0,,,,,,,,,,,,,,,,switch,number,NA,d,0.8907,noRew,,,,,,0,5,0,5,0,1,,,,,,,,,,,,,,,,,
296671,2022-11-25_11h21.25.995,vts_reward_expectancy_bt,2022.2.4,Win32,59.16459591,Chrome,1368,912,,,,,0,648,,,,,,,,,,,,,,,,,167,D,star,1,1,,,,,,,,,,,,,,,,repeat,number,numRpt,f,1.9312,noRew,,,,,,0,6,0,6,0,1,,,,,,,,,,,,,,,,,
296671,2022-11-25_11h21.25.995,vts_reward_expectancy_bt,2022.2.4,Win32,59.16459591,Chrome,1368,912,,,,,0,648,,,,,,,,,,,,,,,,,174,B,circle,1,0,,,,,,,,,,,,,,,,repeat,number,numRpt,f,0.496,noRew,,,,,,0,7,0,7,0,1,,,,,,,,,,,,,,,,,
296671,2022-11-25_11h21.25.995,vts_reward_expectancy_bt,2022.2.4,Win32,59.16459591,Chrome,1368,912,,,,,0,648,,,,,,,,,,,,,,,,,181,F,star,1,0,,,,,,,,,,,,,,,,switch,letter,lettSwt,j,1.2063,noRew,,,,,,0,8,0,8,0,1,,,,,,,,,,,,,,,,,
296671,2022-11-25_11h21.25.995,vts_reward_expectancy_bt,2022.2.4,Win32,59.16459591,Chrome,1368,912,,,,,0,648,,,,,,,,,,,,,,,,,139,D,circle,1,0,,,,,,,,,,,,,,,,repeat,letter,lettRpt,j,0.5674,noRew,,,,,,0,9,0,9,0,1,,,,,,,,,,,,,,,,,
296671,2022-11-25_11h21.25.995,vts_reward_expectancy_bt,2022.2.4,Win32,59.16459591,Chrome,1368,912,,,,,0,648,,,,,,,,,,,,,,,,,167,W,star,1,0,,,,,,,,,,,,,,,,switch,number,numSwt,f,0.6244,noRew,,,,,,0,10,0,10,0,1,,,,,,,,,,,,,,,,,
296671,2022-11-25_11h21.25.995,vts_reward_expectancy_bt,2022.2.4,Win32,59.16459591,Chrome,1368,912,,,,,0,648,,,,,,,,,,,,,,,,,132,U,circle,1,0,,,,,,,,,,,,,,,,repeat,number,numRpt,d,0.6289,noRew,,,,,,0,11,0,11,0,1,,,,,,,,,,,,,,,,,
296671,2022-11-25_11h21.25.995,vts_reward_expectancy_bt,2022.2.4,Win32,59.16459591,Chrome,1368,912,,,,,0,648,,,,,,,,,,,,,,,,,181,F,hexagon,1,0,,,,,,,,,,,,,,,,switch,letter,lettSwt,j,0.5043,noRew,,,,,,0,12,0,12,0,1,,,,,,,,,,,,,,,,,
296671,2022-11-25_11h21.25.995,vts_reward_expectancy_bt,2022.2.4,Win32,59.16459591,Chrome,1368,912,,,,,0,648,,,,,,,,,,,,,,,,,167,Y,star,1,0,,,,,,,,,,,,,,,,switch,number,numSwt,f,0.5987,noRew,,,,,,0,13,0,13,0,1,,,,,,,,,,,,,,,,,
296671,2022-11-25_11h21.25.995,vts_reward_expectancy_bt,2022.2.4,Win32,59.16459591,Chrome,1368,912,,,,,0,648,,,,,,,,,,,,,,,,,132,H,star,1,0,,,,,,,,,,,,,,,,switch,letter,lettSwt,j,0.5904,noRew,,,,,,0,14,0,14,0,1,,,,,,,,,,,,,,,,,
296671,2022-11-25_11h21.25.995,vts_reward_expectancy_bt,2022.2.4,Win32,59.16459591,Chrome,1368,912,,,,,0,648,,,,,,,,,,,,,,,,,174,U,hexagon,1,0,,,,,,,,,,,,,,,,switch,number,numSwt,f,0.6297,noRew,,,,,,0,15,0,15,0,1,,,,,,,,,,,,,,,,,
296671,2022-11-25_11h21.25.995,vts_reward_expectancy_bt,2022.2.4,Win32,59.16459591,Chrome,1368,912,,,,,0,648,,,,,,,,,,,,,,,,,167,F,star,1,0,,,,,,,,,,,,,,,,repeat,number,numRpt,f,0.5577,noRew,,,,,,0,16,0,16,0,1,,,,,,,,,,,,,,,,,
296671,2022-11-25_11h21.25.995,vts_reward_expectancy_bt,2022.2.4,Win32,59.16459591,Chrome,1368,912,,,,,0,648,,,,,,,,,,,,,,,,,132,Y,hexagon,1,0,,,,,,,,,,,,,,,,switch,letter,lettSwt,k,1.1795,noRew,,,,,,0,17,0,17,0,1,,,,,,,,,,,,,,,,,
296671,2022-11-25_11h21.25.995,vts_reward_expectancy_bt,2022.2.4,Win32,59.16459591,Chrome,1368,912,,,,,0,648,,,,,,,,,,,,,,,,,125,S,star,1,0,,,,,,,,,,,,,,,,repeat,letter,lettRpt,k,0.6065,noRew,,,,,,0,18,0,18,0,1,,,,,,,,,,,,,,,,,
296671,2022-11-25_11h21.25.995,vts_reward_expectancy_bt,2022.2.4,Win32,59.16459591,Chrome,1368,912,,,,,0,648,,,,,,,,,,,,,,,,,181,D,triangle,0,0,,,,,,,,,,,,,,,,switch,number,NA,d,1.2087,noRew,,,,,,0,19,0,19,0,1,,,,,,,,,,,,,,,,,
296671,2022-11-25_11h21.25.995,vts_reward_expectancy_bt,2022.2.4,Win32,59.16459591,Chrome,1368,912,,,,,0,648,,,,,,,,,,,,,,,,,132,S,hexagon,0,1,,,,,,,,,,,,,,,,switch,letter,NA,j,2.0856,noRew,,,,,,0,20,0,20,0,1,,,,,,,,,,,,,,,,,
296671,2022-11-25_11h21.25.995,vts_reward_expectancy_bt,2022.2.4,Win32,59.16459591,Chrome,1368,912,,,,,0,648,,,,,,,,,,,,,,,,,146,F,circle,1,1,,,,,,,,,,,,,,,,repeat,letter,lettRpt,j,0.818,noRew,,,,,,0,21,0,21,0,1,,,,,,,,,,,,,,,,,
296671,2022-11-25_11h21.25.995,vts_reward_expectancy_bt,2022.2.4,Win32,59.16459591,Chrome,1368,912,,,,,0,648,,,,,,,,,,,,,,,,,181,B,circle,1,0,,,,,,,,,,,,,,,,repeat,letter,lettRpt,j,0.4175,noRew,,,,,,0,22,0,22,0,1,,,,,,,,,,,,,,,,,
296671,2022-11-25_11h21.25.995,vts_reward_expectancy_bt,2022.2.4,Win32,59.16459591,Chrome,1368,912,,,,,0,648,,,,,,,,,,,,,,,,,167,Y,triangle,1,0,,,,,,,,,,,,,,,,switch,number,numSwt,f,0.5009,noRew,,,,,,0,23,0,23,0,1,,,,,,,,,,,,,,,,,
296671,2022-11-25_11h21.25.995,vts_reward_expectancy_bt,2022.2.4,Win32,59.16459591,Chrome,1368,912,,,,,0,648,,,,,,,,,,,,,,,,,174,U,hexagon,1,0,,,,,,,,,,,,,,,,repeat,number,numRpt,f,0.7341,noRew,,,,,,0,24,0,24,0,1,,,,,,,,,,,,,,,,,
296671,2022-11-25_11h21.25.995,vts_reward_expectancy_bt,2022.2.4,Win32,59.16459591,Chrome,1368,912,,,,,0,648,,,,,,,,,,,,,,,,,167,Y,triangle,1,0,,,,,,,,,,,,,,,,repeat,number,numRpt,f,0.8679,noRew,,,,,,0,25,0,25,0,1,,,,,,,,,,,,,,,,,
296671,2022-11-25_11h21.25.995,vts_reward_expectancy_bt,2022.2.4,Win32,59.16459591,Chrome,1368,912,,,,,0,648,,,,,,,,,,,,,,,,,146,F,star,1,0,,,,,,,,,,,,,,,,switch,letter,lettSwt,j,1.513,noRew,,,,,,0,26,0,26,0,1,,,,,,,,,,,,,,,,,
296671,2022-11-25_11h21.25.995,vts_reward_expectancy_bt,2022.2.4,Win32,59.16459591,Chrome,1368,912,,,,,0,648,,,,,,,,,,,,,,,,,125,B,triangle,1,0,,,,,,,,,,,,,,,,switch,number,numSwt,d,1.244,noRew,,,,,,0,27,0,27,0,1,,,,,,,,,,,,,,,,,
296671,2022-11-25_11h21.25.995,vts_reward_expectancy_bt,2022.2.4,Win32,59.16459591,Chrome,1368,912,,,,,0,648,,,,,,,,,,,,,,,,,132,U,circle,1,0,,,,,,,,,,,,,,,,switch,letter,lettSwt,k,1.0953,noRew,,,,,,0,28,0,28,0,1,,,,,,,,,,,,,,,,,
296671,2022-11-25_11h21.25.995,vts_reward_expectancy_bt,2022.2.4,Win32,59.16459591,Chrome,1368,912,,,,,0,648,,,,,,,,,,,,,,,,,146,H,star,1,0,,,,,,,,,,,,,,,,repeat,letter,lettRpt,j,0.977,noRew,,,,,,0,29,0,29,0,1,,,,,,,,,,,,,,,,,
296671,2022-11-25_11h21.25.995,vts_reward_expectancy_bt,2022.2.4,Win32,59.16459591,Chrome,1368,912,,,,,0,648,,,,,,,,,,,,,,,,,125,B,star,1,0,,,,,,,,,,,,,,,,switch,number,numSwt,d,0.7175,noRew,,,,,,0,30,0,30,0,1,,,,,,,,,,,,,,,,,
296671,2022-11-25_11h21.25.995,vts_reward_expectancy_bt,2022.2.4,Win32,59.16459591,Chrome,1368,912,,,,,0,648,,,,,,,,,,,,,,,,,139,Y,triangle,1,0,,,,,,,,,,,,,,,,repeat,number,numRpt,d,0.8964,noRew,,,,,,0,31,0,31,0,1,,,,,,,,,,,,,,,,,
296671,2022-11-25_11h21.25.995,vts_reward_expectancy_bt,2022.2.4,Win32,59.16459591,Chrome,1368,912,,,,,0,648,,,,,,,,,,,,,,,,,167,D,triangle,1,0,,,,,,,,,,,,,,,,switch,letter,lettSwt,j,0.8506,noRew,,,,,,0,32,0,32,0,1,,,,,,,,,,,,,,,,,
296671,2022-11-25_11h21.25.995,vts_reward_expectancy_bt,2022.2.4,Win32,59.16459591,Chrome,1368,912,,,,,0,648,,,,,,,,,,,,,,,,,125,S,star,1,0,,,,,,,,,,,,,,,,repeat,letter,lettRpt,k,0.8631,noRew,,,,,,0,33,0,33,0,1,,,,,,,,,,,,,,,,,
296671,2022-11-25_11h21.25.995,vts_reward_expectancy_bt,2022.2.4,Win32,59.16459591,Chrome,1368,912,,,,,0,648,,,,,,,,,,,,,,,,,181,H,hexagon,1,0,,,,,,,,,,,,,,,,switch,number,numSwt,f,0.6854,noRew,,,,,,0,34,0,34,0,1,,,,,,,,,,,,,,,,,
296671,2022-11-25_11h21.25.995,vts_reward_expectancy_bt,2022.2.4,Win32,59.16459591,Chrome,1368,912,,,,,0,648,,,,,,,,,,,,,,,,,160,Y,triangle,1,0,,,,,,,,,,,,,,,,switch,letter,lettSwt,k,0.9011,noRew,,,,,,0,35,0,35,0,1,,,,,,,,,,,,,,,,,
296671,2022-11-25_11h21.25.995,vts_reward_expectancy_bt,2022.2.4,Win32,59.16459591,Chrome,1368,912,,,,,0,648,,,,,,,,,,,,,,,,,139,W,hexagon,1,0,,,,,,,,,,,,,,,,switch,number,numSwt,d,0.9014,noRew,,,,,,0,36,0,36,0,1,,,,,,,,,,,,,,,,,
296671,2022-11-25_11h21.25.995,vts_reward_expectancy_bt,2022.2.4,Win32,59.16459591,Chrome,1368,912,,,,,0,648,,,,,,,,,,,,,,,,,160,S,star,1,0,,,,,,,,,,,,,,,,switch,letter,lettSwt,k,1.0958,noRew,,,,,,0,37,0,37,0,1,,,,,,,,,,,,,,,,,
296671,2022-11-25_11h21.25.995,vts_reward_expectancy_bt,2022.2.4,Win32,59.16459591,Chrome,1368,912,,,,,0,648,,,,,,,,,,,,,,,,,174,D,hexagon,1,0,,,,,,,,,,,,,,,,switch,number,numSwt,f,0.7816,noRew,,,,,,0,38,0,38,0,1,,,,,,,,,,,,,,,,,
296671,2022-11-25_11h21.25.995,vts_reward_expectancy_bt,2022.2.4,Win32,59.16459591,Chrome,1368,912,,,,,0,648,,,,,,,,,,,,,,,,,132,F,triangle,1,0,,,,,,,,,,,,,,,,switch,letter,lettSwt,j,0.9903,noRew,,,,,,0,39,0,39,0,1,,,,,,,,,,,,,,,,,
296671,2022-11-25_11h21.25.995,vts_reward_expectancy_bt,2022.2.4,Win32,59.16459591,Chrome,1368,912,,,,,0,648,,,,,,,,,,,,,,,,,160,S,hexagon,1,0,,,,,,,,,,,,,,,,repeat,letter,lettRpt,k,0.8348,noRew,,,,,,0,40,0,40,0,1,,,,,,,,,,,,,,,,,
296671,2022-11-25_11h21.25.995,vts_reward_expectancy_bt,2022.2.4,Win32,59.16459591,Chrome,1368,912,,,,,0,648,,,,,,,,,,,,,,,,,167,D,circle,1,0,,,,,,,,,,,,,,,,switch,number,numSwt,f,0.6141,noRew,,,,,,0,41,0,41,0,1,,,,,,,,,,,,,,,,,
296671,2022-11-25_11h21.25.995,vts_reward_expectancy_bt,2022.2.4,Win32,59.16459591,Chrome,1368,912,,,,,0,648,,,,,,,,,,,,,,,,,181,F,star,1,0,,,,,,,,,,,,,,,,repeat,number,numRpt,f,0.5787,noRew,,,,,,0,42,0,42,0,1,,,,,,,,,,,,,,,,,
296671,2022-11-25_11h21.25.995,vts_reward_expectancy_bt,2022.2.4,Win32,59.16459591,Chrome,1368,912,,,,,0,648,,,,,,,,,,,,,,,,,174,U,hexagon,1,0,,,,,,,,,,,,,,,,repeat,number,numRpt,f,0.6279,noRew,,,,,,0,43,0,43,0,1,,,,,,,,,,,,,,,,,
296671,2022-11-25_11h21.25.995,vts_reward_expectancy_bt,2022.2.4,Win32,59.16459591,Chrome,1368,912,,,,,0,648,,,,,,,,,,,,,,,,,125,W,hexagon,1,0,,,,,,,,,,,,,,,,repeat,number,numRpt,d,0.824,noRew,,,,,,0,44,0,44,0,1,,,,,,,,,,,,,,,,,
296671,2022-11-25_11h21.25.995,vts_reward_expectancy_bt,2022.2.4,Win32,59.16459591,Chrome,1368,912,,,,,0,648,,,,,,,,,,,,,,,,,146,D,triangle,1,0,,,,,,,,,,,,,,,,switch,letter,lettSwt,j,1.1489,noRew,,,,,,0,45,0,45,0,1,,,,,,,,,,,,,,,,,
296671,2022-11-25_11h21.25.995,vts_reward_expectancy_bt,2022.2.4,Win32,59.16459591,Chrome,1368,912,,,,,0,648,,,,,,,,,,,,,,,,,132,H,hexagon,1,0,,,,,,,,,,,,,,,,repeat,letter,lettRpt,j,1.0487,noRew,,,,,,0,46,0,46,0,1,,,,,,,,,,,,,,,,,
296671,2022-11-25_11h21.25.995,vts_reward_expectancy_bt,2022.2.4,Win32,59.16459591,Chrome,1368,912,,,,,0,648,,,,,,,,,,,,,,,,,174,U,circle,1,0,,,,,,,,,,,,,,,,repeat,letter,lettRpt,k,1.2186,noRew,,,,,,0,47,0,47,0,1,,,,,,,,,,,,,,,,,
296671,2022-11-25_11h21.25.995,vts_reward_expectancy_bt,2022.2.4,Win32,59.16459591,Chrome,1368,912,,,,,0,648,,,,,,,,,,,,,,,,,139,F,circle,1,0,,,,,,,,,,,,,,,,switch,number,numSwt,d,0.7127,noRew,,,,,,0,48,0,48,0,1,,,,,,,,,,,,,,,,,
296671,2022-11-25_11h21.25.995,vts_reward_expectancy_bt,2022.2.4,Win32,59.16459591,Chrome,1368,912,,,,,0,648,,,,,,,,,,,,,,,,,174,W,star,1,0,,,,,,,,,,,,,,,,repeat,number,numRpt,f,0.5293,noRew,,,,,,0,49,0,49,0,1,,,,,,,,,,,,,,,,,
296671,2022-11-25_11h21.25.995,vts_reward_expectancy_bt,2022.2.4,Win32,59.16459591,Chrome,1368,912,,,,,0,648,,,,,,,,,,,,,,,,,146,D,star,1,0,,,,,,,,,,,,,,,,repeat,number,numRpt,d,0.6327,noRew,,,,,,0,50,0,50,0,1,,,,,,,,,,,,,,,,,
296671,2022-11-25_11h21.25.995,vts_reward_expectancy_bt,2022.2.4,Win32,59.16459591,Chrome,1368,912,,,,,0,648,,,,,,,,,,,,,,,,,181,B,triangle,1,0,,,,,,,,,,,,,,,,switch,letter,lettSwt,j,0.6403,noRew,,,,,,0,51,0,51,0,1,,,,,,,,,,,,,,,,,
296671,2022-11-25_11h21.25.995,vts_reward_expectancy_bt,2022.2.4,Win32,59.16459591,Chrome,1368,912,,,,,0,648,,,,,,,,,,,,,,,,,139,U,hexagon,1,0,,,,,,,,,,,,,,,,switch,number,numSwt,d,0.5414,noRew,,,,,,0,52,0,52,0,1,,,,,,,,,,,,,,,,,
296671,2022-11-25_11h21.25.995,vts_reward_expectancy_bt,2022.2.4,Win32,59.16459591,Chrome,1368,912,,,,,0,648,,,,,,,,,,,,,,,,,167,H,triangle,1,0,,,,,,,,,,,,,,,,repeat,number,numRpt,f,0.4908,noRew,,,,,,0,53,0,53,0,1,,,,,,,,,,,,,,,,,
296671,2022-11-25_11h21.25.995,vts_reward_expectancy_bt,2022.2.4,Win32,59.16459591,Chrome,1368,912,,,,,0,648,,,,,,,,,,,,,,,,,174,Y,hexagon,1,0,,,,,,,,,,,,,,,,repeat,number,numRpt,f,0.6351,noRew,,,,,,0,54,0,54,0,1,,,,,,,,,,,,,,,,,
296671,2022-11-25_11h21.25.995,vts_reward_expectancy_bt,2022.2.4,Win32,59.16459591,Chrome,1368,912,,,,,0,648,,,,,,,,,,,,,,,,,160,D,circle,1,0,,,,,,,,,,,,,,,,switch,letter,lettSwt,j,0.6732,noRew,,,,,,0,55,0,55,0,1,,,,,,,,,,,,,,,,,
296671,2022-11-25_11h21.25.995,vts_reward_expectancy_bt,2022.2.4,Win32,59.16459591,Chrome,1368,912,,,,,0,648,,,,,,,,,,,,,,,,,181,H,triangle,1,0,,,,,,,,,,,,,,,,repeat,letter,lettRpt,j,0.8629,noRew,,,,,,0,56,0,56,0,1,,,,,,,,,,,,,,,,,
296671,2022-11-25_11h21.25.995,vts_reward_expectancy_bt,2022.2.4,Win32,59.16459591,Chrome,1368,912,,,,,0,648,,,,,,,,,,,,,,,,,139,Y,star,1,0,,,,,,,,,,,,,,,,switch,number,numSwt,d,0.4824,noRew,,,,,,0,57,0,57,0,1,,,,,,,,,,,,,,,,,
296671,2022-11-25_11h21.25.995,vts_reward_expectancy_bt,2022.2.4,Win32,59.16459591,Chrome,1368,912,,,,,0,648,,,,,,,,,,,,,,,,,167,S,triangle,0,0,,,,,,,,,,,,,,,,repeat,number,NA,d,0.5699,noRew,,,,,,0,58,0,58,0,1,,,,,,,,,,,,,,,,,
296671,2022-11-25_11h21.25.995,vts_reward_expectancy_bt,2022.2.4,Win32,59.16459591,Chrome,1368,912,,,,,0,648,,,,,,,,,,,,,,,,,174,U,star,0,1,,,,,,,,,,,,,,,,switch,letter,NA,j,2.0627,noRew,,,,,,0,59,0,59,0,1,,,,,,,,,,,,,,,,,
296671,2022-11-25_11h21.25.995,vts_reward_expectancy_bt,2022.2.4,Win32,59.16459591,Chrome,1368,912,,,,,0,648,,,,,,,,,,,,,,,,,125,Y,hexagon,1,1,,,,,,,,,,,,,,,,repeat,letter,lettRpt,k,0.7969,noRew,,,,,,0,60,0,60,0,1,,,,,,,,,,,,,,,,,
296671,2022-11-25_11h21.25.995,vts_reward_expectancy_bt,2022.2.4,Win32,59.16459591,Chrome,1368,912,,,,,0,648,,,,,,,,,,,,,,,,,181,B,star,1,0,,,,,,,,,,,,,,,,switch,number,numSwt,f,0.5153,noRew,,,,,,0,61,0,61,0,1,,,,,,,,,,,,,,,,,
296671,2022-11-25_11h21.25.995,vts_reward_expectancy_bt,2022.2.4,Win32,59.16459591,Chrome,1368,912,,,,,0,648,,,,,,,,,,,,,,,,,132,W,star,1,0,,,,,,,,,,,,,,,,repeat,number,numRpt,d,0.6116,noRew,,,,,,0,62,0,62,0,1,,,,,,,,,,,,,,,,,
296671,2022-11-25_11h21.25.995,vts_reward_expectancy_bt,2022.2.4,Win32,59.16459591,Chrome,1368,912,,,,,0,648,,,,,,,,,,,,,,,,,146,S,circle,1,0,,,,,,,,,,,,,,,,repeat,number,numRpt,d,0.7018,noRew,,,,,,0,63,0,63,0,1,,,,,,,,,,,,,,,,,
296671,2022-11-25_11h21.25.995,vts_reward_expectancy_bt,2022.2.4,Win32,59.16459591,Chrome,1368,912,,,,,,,,,,,,,,,,,,,,,,,,,,,,,,,,,,,,,,,,,,,,,,,,,,,,,,,,,,,,,,,,,,,,,,,,,,,,
296671,2022-11-25_11h21.25.995,vts_reward_expectancy_bt,2022.2.4,Win32,59.16459591,Chrome,1368,912,,,,,1,649,,,,,,,,,,,,,,,,,139,W,star,1,0,,,,,,,,,,,,,,,,repeat,number,numRpt,d,0.3789,Lo,,,,,,0,,,,,,space,22.9056,high,0,0,0,0,1,,,,,,,,,
296671,2022-11-25_11h21.25.995,vts_reward_expectancy_bt,2022.2.4,Win32,59.16459591,Chrome,1368,912,,,,,1,650,,,,,,,,,,,,,,,,,160,B,hexagon,1,0,,,,,,,,,,,,,,,,repeat,number,numRpt,f,0.4344,Hi,,,,,,0,,,,,,,,high,1,0,1,0,1,,,,,,,,,
296671,2022-11-25_11h21.25.995,vts_reward_expectancy_bt,2022.2.4,Win32,59.16459591,Chrome,1368,912,,,,,1,651,,,,,,,,,,,,,,,,,132,Y,triangle,1,0,,,,,,,,,,,,,,,,switch,letter,lettSwt,k,0.5179,Lo,,,,,,0,,,,,,,,high,2,0,2,0,1,,,,,,,,,
296671,2022-11-25_11h21.25.995,vts_reward_expectancy_bt,2022.2.4,Win32,59.16459591,Chrome,1368,912,,,,,1,652,,,,,,,,,,,,,,,,,146,D,circle,1,0,,,,,,,,,,,,,,,,repeat,letter,lettRpt,j,0.3843,Hi,,,,,,0,,,,,,,,high,3,0,3,0,1,,,,,,,,,
296671,2022-11-25_11h21.25.995,vts_reward_expectancy_bt,2022.2.4,Win32,59.16459591,Chrome,1368,912,,,,,10,662,,,,,,,,,,,,,,,,,174,F,star,1,0,,,,,,,,,,,,,,,,switch,number,numSwt,f,0.6013,Lo,,,,,,0,,,,,,,,high,4,0,4,0,1,,,,,,,,,
296671,2022-11-25_11h21.25.995,vts_reward_expectancy_bt,2022.2.4,Win32,59.16459591,Chrome,1368,912,,,,,10,672,,,,,,,,,,,,,,,,,125,U,hexagon,1,0,,,,,,,,,,,,,,,,repeat,number,numRpt,d,0.5089,Hi,,,,,,0,,,,,,,,high,5,0,5,0,1,,,,,,,,,
296671,2022-11-25_11h21.25.995,vts_reward_expectancy_bt,2022.2.4,Win32,59.16459591,Chrome,1368,912,,,,,0,672,,,,,,,,,,,,,,,,,167,H,triangle,0,0,,,,,,,,,,,,,,,,switch,letter,NA,k,0.53,Hi,,,,,,0,,,,,,,,high,6,0,6,0,1,,,,,,,,,
296671,2022-11-25_11h21.25.995,vts_reward_expectancy_bt,2022.2.4,Win32,59.16459591,Chrome,1368,912,,,,,10,682,,,,,,,,,,,,,,,,,181,S,circle,1,1,,,,,,,,,,,,,,,,switch,number,numSwt,f,0.4702,Hi,,,,,,0,,,,,,,,high,7,0,7,0,1,,,,,,,,,
296671,2022-11-25_11h21.25.995,vts_reward_expectancy_bt,2022.2.4,Win32,59.16459591,Chrome,1368,912,,,,,1,683,,,,,,,,,,,,,,,,,139,W,star,1,0,,,,,,,,,,,,,,,,repeat,number,numRpt,d,0.4022,Lo,,,,,,0,,,,,,,,high,8,0,8,0,1,,,,,,,,,
296671,2022-11-25_11h21.25.995,vts_reward_expectancy_bt,2022.2.4,Win32,59.16459591,Chrome,1368,912,,,,,1,684,,,,,,,,,,,,,,,,,160,B,triangle,1,0,,,,,,,,,,,,,,,,repeat,number,numRpt,f,0.4513,Lo,,,,,,0,,,,,,,,high,9,0,9,0,1,,,,,,,,,
296671,2022-11-25_11h21.25.995,vts_reward_expectancy_bt,2022.2.4,Win32,59.16459591,Chrome,1368,912,,,,,10,694,,,,,,,,,,,,,,,,,132,Y,hexagon,1,0,,,,,,,,,,,,,,,,switch,letter,lettSwt,k,0.5512,Hi,,,,,,0,,,,,,,,high,10,0,10,0,1,,,,,,,,,
296671,2022-11-25_11h21.25.995,vts_reward_expectancy_bt,2022.2.4,Win32,59.16459591,Chrome,1368,912,,,,,1,695,,,,,,,,,,,,,,,,,146,D,circle,1,0,,,,,,,,,,,,,,,,repeat,letter,lettRpt,j,0.7181,Hi,,,,,,0,,,,,,,,high,11,0,11,0,1,,,,,,,,,
296671,2022-11-25_11h21.25.995,vts_reward_expectancy_bt,2022.2.4,Win32,59.16459591,Chrome,1368,912,,,,,1,696,,,,,,,,,,,,,,,,,174,F,triangle,1,0,,,,,,,,,,,,,,,,switch,number,numSwt,f,0.5513,Lo,,,,,,0,,,,,,,,high,12,0,12,0,1,,,,,,,,,
296671,2022-11-25_11h21.25.995,vts_reward_expectancy_bt,2022.2.4,Win32,59.16459591,Chrome,1368,912,,,,,1,697,,,,,,,,,,,,,,,,,125,U,star,1,0,,,,,,,,,,,,,,,,switch,letter,lettSwt,k,0.9848,Lo,,,,,,0,,,,,,,,high,13,0,13,0,1,,,,,,,,,
296671,2022-11-25_11h21.25.995,vts_reward_expectancy_bt,2022.2.4,Win32,59.16459591,Chrome,1368,912,,,,,1,698,,,,,,,,,,,,,,,,,167,H,circle,1,0,,,,,,,,,,,,,,,,switch,number,numSwt,f,0.4177,Hi,,,,,,0,,,,,,,,high,14,0,14,0,1,,,,,,,,,
296671,2022-11-25_11h21.25.995,vts_reward_expectancy_bt,2022.2.4,Win32,59.16459591,Chrome,1368,912,,,,,10,708,,,,,,,,,,,,,,,,,181,S,hexagon,1,0,,,,,,,,,,,,,,,,switch,letter,lettSwt,k,0.6845,Hi,,,,,,0,,,,,,,,high,15,0,15,0,1,,,,,,,,,
296671,2022-11-25_11h21.25.995,vts_reward_expectancy_bt,2022.2.4,Win32,59.16459591,Chrome,1368,912,,,,,1,709,,,,,,,,,,,,,,,,,146,H,star,1,0,,,,,,,,,,,,,,,,switch,number,numSwt,d,0.9034,Lo,,,,,,0,,,,,,,,high,16,0,16,0,1,,,,,,,,,
296671,2022-11-25_11h21.25.995,vts_reward_expectancy_bt,2022.2.4,Win32,59.16459591,Chrome,1368,912,,,,,10,719,,,,,,,,,,,,,,,,,160,S,circle,1,0,,,,,,,,,,,,,,,,repeat,number,numRpt,f,0.4888,Hi,,,,,,0,,,,,,,,high,17,0,17,0,1,,,,,,,,,
296671,2022-11-25_11h21.25.995,vts_reward_expectancy_bt,2022.2.4,Win32,59.16459591,Chrome,1368,912,,,,,1,720,,,,,,,,,,,,,,,,,132,W,hexagon,1,0,,,,,,,,,,,,,,,,repeat,number,numRpt,d,0.5952,Hi,,,,,,0,,,,,,,,high,18,0,18,0,1,,,,,,,,,
296671,2022-11-25_11h21.25.995,vts_reward_expectancy_bt,2022.2.4,Win32,59.16459591,Chrome,1368,912,,,,,1,721,,,,,,,,,,,,,,,,,167,U,triangle,1,0,,,,,,,,,,,,,,,,repeat,number,numRpt,f,0.6846,Lo,,,,,,0,,,,,,,,high,19,0,19,0,1,,,,,,,,,
296671,2022-11-25_11h21.25.995,vts_reward_expectancy_bt,2022.2.4,Win32,59.16459591,Chrome,1368,912,,,,,1,722,,,,,,,,,,,,,,,,,125,Y,star,1,0,,,,,,,,,,,,,,,,switch,letter,lettSwt,k,1.1514,Lo,,,,,,0,,,,,,,,high,20,0,20,0,1,,,,,,,,,
296671,2022-11-25_11h21.25.995,vts_reward_expectancy_bt,2022.2.4,Win32,59.16459591,Chrome,1368,912,,,,,10,732,,,,,,,,,,,,,,,,,174,D,circle,1,0,,,,,,,,,,,,,,,,switch,number,numSwt,f,0.5842,Hi,,,,,,0,,,,,,,,high,21,0,21,0,1,,,,,,,,,
296671,2022-11-25_11h21.25.995,vts_reward_expectancy_bt,2022.2.4,Win32,59.16459591,Chrome,1368,912,,,,,1,733,,,,,,,,,,,,,,,,,181,F,triangle,1,0,,,,,,,,,,,,,,,,repeat,number,numRpt,f,0.6031,Lo,,,,,,0,,,,,,,,high,22,0,22,0,1,,,,,,,,,
296671,2022-11-25_11h21.25.995,vts_reward_expectancy_bt,2022.2.4,Win32,59.16459591,Chrome,1368,912,,,,,10,743,,,,,,,,,,,,,,,,,139,B,hexagon,1,0,,,,,,,,,,,,,,,,switch,letter,lettSwt,j,0.6847,Hi,,,,,,0,,,,,,,,high,23,0,23,0,1,,,,,,,,,
296671,2022-11-25_11h21.25.995,vts_reward_expectancy_bt,2022.2.4,Win32,59.16459591,Chrome,1368,912,,,,,10,753,,,,,,,,,,,,,,,,,125,W,star,1,0,,,,,,,,,,,,,,,,repeat,letter,lettRpt,k,0.9197,Lo,,,,,,0,,,,,,,,high,24,0,24,0,1,,,,,,,,,
296671,2022-11-25_11h21.25.995,vts_reward_expectancy_bt,2022.2.4,Win32,59.16459591,Chrome,1368,912,,,,,10,763,,,,,,,,,,,,,,,,,167,D,hexagon,1,0,,,,,,,,,,,,,,,,switch,number,numSwt,f,0.4678,Hi,,,,,,0,,,,,,,,high,25,0,25,0,1,,,,,,,,,
296671,2022-11-25_11h21.25.995,vts_reward_expectancy_bt,2022.2.4,Win32,59.16459591,Chrome,1368,912,,,,,0,763,,,,,,,,,,,,,,,,,146,F,circle,1,0,,,,,,,,,,,,,,,,switch,letter,lettSwt,j,1.118,Hi,,,,,,0,,,,,,,,high,26,0,26,0,1,,,,,,,,,
296671,2022-11-25_11h21.25.995,vts_reward_expectancy_bt,2022.2.4,Win32,59.16459591,Chrome,1368,912,,,,,1,764,,,,,,,,,,,,,,,,,174,B,triangle,1,0,,,,,,,,,,,,,,,,switch,number,numSwt,f,0.465,Lo,,,,,,0,,,,,,,,high,27,0,27,0,1,,,,,,,,,
296671,2022-11-25_11h21.25.995,vts_reward_expectancy_bt,2022.2.4,Win32,59.16459591,Chrome,1368,912,,,,,1,765,,,,,,,,,,,,,,,,,132,U,star,1,0,,,,,,,,,,,,,,,,switch,letter,lettSwt,k,0.5632,Lo,,,,,,0,,,,,,,,high,28,0,28,0,1,,,,,,,,,
296671,2022-11-25_11h21.25.995,vts_reward_expectancy_bt,2022.2.4,Win32,59.16459591,Chrome,1368,912,,,,,10,775,,,,,,,,,,,,,,,,,181,S,circle,1,0,,,,,,,,,,,,,,,,switch,number,numSwt,f,0.4635,Hi,,,,,,0,,,,,,,,high,29,0,29,0,1,,,,,,,,,
296671,2022-11-25_11h21.25.995,vts_reward_expectancy_bt,2022.2.4,Win32,59.16459591,Chrome,1368,912,,,,,0,775,,,,,,,,,,,,,,,,,139,H,triangle,0,0,,,,,,,,,,,,,,,,switch,letter,NA,k,0.966,Hi,,,,,,0,,,,,,,,high,30,0,30,0,1,,,,,,,,,
296671,2022-11-25_11h21.25.995,vts_reward_expectancy_bt,2022.2.4,Win32,59.16459591,Chrome,1368,912,,,,,10,785,,,,,,,,,,,,,,,,,160,Y,hexagon,1,1,,,,,,,,,,,,,,,,switch,number,numSwt,f,0.5896,Hi,,,,,,0,,,,,,,,high,31,0,31,0,1,,,,,,,,,
296671,2022-11-25_11h21.25.995,vts_reward_expectancy_bt,2022.2.4,Win32,59.16459591,Chrome,1368,912,,,,,1,786,,,,,,,,,,,,,,,,,181,F,hexagon,1,0,,,,,,,,,,,,,,,,repeat,number,numRpt,f,0.3507,Hi,,,,,,1,,,,,,space,2.1626,high,0,0,0,0,1,,,,,,,,,
296671,2022-11-25_11h21.25.995,vts_reward_expectancy_bt,2022.2.4,Win32,59.16459591,Chrome,1368,912,,,,,0,786,,,,,,,,,,,,,,,,,160,W,circle,1,0,,,,,,,,,,,,,,,,switch,letter,lettSwt,k,0.6509,Hi,,,,,,1,,,,,,,,high,1,0,1,0,1,,,,,,,,,
296671,2022-11-25_11h21.25.995,vts_reward_expectancy_bt,2022.2.4,Win32,59.16459591,Chrome,1368,912,,,,,1,787,,,,,,,,,,,,,,,,,125,H,triangle,1,0,,,,,,,,,,,,,,,,switch,number,numSwt,d,0.498,Lo,,,,,,1,,,,,,,,high,2,0,2,0,1,,,,,,,,,
296671,2022-11-25_11h21.25.995,vts_reward_expectancy_bt,2022.2.4,Win32,59.16459591,Chrome,1368,912,,,,,10,797,,,,,,,,,,,,,,,,,174,Y,star,1,0,,,,,,,,,,,,,,,,repeat,number,numRpt,f,0.6183,Lo,,,,,,1,,,,,,,,high,3,0,3,0,1,,,,,,,,,
296671,2022-11-25_11h21.25.995,vts_reward_expectancy_bt,2022.2.4,Win32,59.16459591,Chrome,1368,912,,,,,0,797,,,,,,,,,,,,,,,,,132,B,hexagon,1,0,,,,,,,,,,,,,,,,repeat,number,numRpt,d,0.5084,Hi,,,,,,1,,,,,,,,high,4,0,4,0,1,,,,,,,,,
296671,2022-11-25_11h21.25.995,vts_reward_expectancy_bt,2022.2.4,Win32,59.16459591,Chrome,1368,912,,,,,0,797,,,,,,,,,,,,,,,,,146,U,circle,1,0,,,,,,,,,,,,,,,,repeat,number,numRpt,d,0.5343,Hi,,,,,,1,,,,,,,,high,5,0,5,0,1,,,,,,,,,
296671,2022-11-25_11h21.25.995,vts_reward_expectancy_bt,2022.2.4,Win32,59.16459591,Chrome,1368,912,,,,,0,797,,,,,,,,,,,,,,,,,167,D,triangle,0,0,,,,,,,,,,,,,,,,switch,letter,NA,k,0.8892,Hi,,,,,,1,,,,,,,,high,6,0,6,0,1,,,,,,,,,
296671,2022-11-25_11h21.25.995,vts_reward_expectancy_bt,2022.2.4,Win32,59.16459591,Chrome,1368,912,,,,,1,798,,,,,,,,,,,,,,,,,139,S,star,1,1,,,,,,,,,,,,,,,,switch,number,numSwt,d,0.6678,Lo,,,,,,1,,,,,,,,high,7,0,7,0,1,,,,,,,,,
296671,2022-11-25_11h21.25.995,vts_reward_expectancy_bt,2022.2.4,Win32,59.16459591,Chrome,1368,912,,,,,0,798,,,,,,,,,,,,,,,,,181,F,hexagon,1,0,,,,,,,,,,,,,,,,switch,letter,lettSwt,j,0.7678,Hi,,,,,,1,,,,,,,,high,8,0,8,0,1,,,,,,,,,
296671,2022-11-25_11h21.25.995,vts_reward_expectancy_bt,2022.2.4,Win32,59.16459591,Chrome,1368,912,,,,,0,798,,,,,,,,,,,,,,,,,160,W,circle,1,0,,,,,,,,,,,,,,,,switch,number,numSwt,f,0.5015,Hi,,,,,,1,,,,,,,,high,9,0,9,0,1,,,,,,,,,
296671,2022-11-25_11h21.25.995,vts_reward_expectancy_bt,2022.2.4,Win32,59.16459591,Chrome,1368,912,,,,,0,798,,,,,,,,,,,,,,,,,125,H,triangle,0,0,,,,,,,,,,,,,,,,repeat,number,NA,f,0.1506,Hi,,,,,,1,,,,,,,,high,10,0,10,0,1,,,,,,,,,
296671,2022-11-25_11h21.25.995,vts_reward_expectancy_bt,2022.2.4,Win32,59.16459591,Chrome,1368,912,,,,,1,799,,,,,,,,,,,,,,,,,174,Y,star,1,1,,,,,,,,,,,,,,,,repeat,number,numRpt,f,0.4847,Lo,,,,,,1,,,,,,,,high,11,0,11,0,1,,,,,,,,,
296671,2022-11-25_11h21.25.995,vts_reward_expectancy_bt,2022.2.4,Win32,59.16459591,Chrome,1368,912,,,,,10,809,,,,,,,,,,,,,,,,,132,B,circle,1,0,,,,,,,,,,,,,,,,switch,letter,lettSwt,j,0.4514,Hi,,,,,,1,,,,,,,,high,12,0,12,0,1,,,,,,,,,
296671,2022-11-25_11h21.25.995,vts_reward_expectancy_bt,2022.2.4,Win32,59.16459591,Chrome,1368,912,,,,,0,809,,,,,,,,,,,,,,,,,146,U,hexagon,1,0,,,,,,,,,,,,,,,,repeat,letter,lettRpt,k,0.7347,Hi,,,,,,1,,,,,,,,high,13,0,13,0,1,,,,,,,,,
296671,2022-11-25_11h21.25.995,vts_reward_expectancy_bt,2022.2.4,Win32,59.16459591,Chrome,1368,912,,,,,1,810,,,,,,,,,,,,,,,,,167,D,triangle,1,0,,,,,,,,,,,,,,,,repeat,letter,lettRpt,j,0.6129,Lo,,,,,,1,,,,,,,,high,14,0,14,0,1,,,,,,,,,
296671,2022-11-25_11h21.25.995,vts_reward_expectancy_bt,2022.2.4,Win32,59.16459591,Chrome,1368,912,,,,,0,810,,,,,,,,,,,,,,,,,139,S,star,0,0,,,,,,,,,,,,,,,,switch,number,NA,f,0.4755,Lo,,,,,,1,,,,,,,,high,15,0,15,0,1,,,,,,,,,
296671,2022-11-25_11h21.25.995,vts_reward_expectancy_bt,2022.2.4,Win32,59.16459591,Chrome,1368,912,,,,,1,811,,,,,,,,,,,,,,,,,125,Y,star,1,1,,,,,,,,,,,,,,,,repeat,number,numRpt,d,0.5206,Lo,,,,,,1,,,,,,,,high,16,0,16,0,1,,,,,,,,,
296671,2022-11-25_11h21.25.995,vts_reward_expectancy_bt,2022.2.4,Win32,59.16459591,Chrome,1368,912,,,,,10,821,,,,,,,,,,,,,,,,,167,D,triangle,1,0,,,,,,,,,,,,,,,,repeat,number,numRpt,f,0.6455,Lo,,,,,,1,,,,,,,,high,17,0,17,0,1,,,,,,,,,
296671,2022-11-25_11h21.25.995,vts_reward_expectancy_bt,2022.2.4,Win32,59.16459591,Chrome,1368,912,,,,,0,821,,,,,,,,,,,,,,,,,181,F,hexagon,1,0,,,,,,,,,,,,,,,,switch,letter,lettSwt,j,0.6525,Hi,,,,,,1,,,,,,,,high,18,0,18,0,1,,,,,,,,,
296671,2022-11-25_11h21.25.995,vts_reward_expectancy_bt,2022.2.4,Win32,59.16459591,Chrome,1368,912,,,,,0,821,,,,,,,,,,,,,,,,,174,S,circle,1,0,,,,,,,,,,,,,,,,switch,number,numSwt,f,0.5012,Hi,,,,,,1,,,,,,,,high,19,0,19,0,1,,,,,,,,,
296671,2022-11-25_11h21.25.995,vts_reward_expectancy_bt,2022.2.4,Win32,59.16459591,Chrome,1368,912,,,,,10,831,,,,,,,,,,,,,,,,,160,H,circle,1,0,,,,,,,,,,,,,,,,switch,letter,lettSwt,j,0.4844,Hi,,,,,,1,,,,,,,,high,20,0,20,0,1,,,,,,,,,
296671,2022-11-25_11h21.25.995,vts_reward_expectancy_bt,2022.2.4,Win32,59.16459591,Chrome,1368,912,,,,,10,841,,,,,,,,,,,,,,,,,139,B,triangle,1,0,,,,,,,,,,,,,,,,switch,number,numSwt,d,0.5012,Lo,,,,,,1,,,,,,,,high,21,0,21,0,1,,,,,,,,,
296671,2022-11-25_11h21.25.995,vts_reward_expectancy_bt,2022.2.4,Win32,59.16459591,Chrome,1368,912,,,,,10,851,,,,,,,,,,,,,,,,,146,U,star,1,0,,,,,,,,,,,,,,,,repeat,number,numRpt,d,0.4675,Lo,,,,,,1,,,,,,,,high,22,0,22,0,1,,,,,,,,,
296671,2022-11-25_11h21.25.995,vts_reward_expectancy_bt,2022.2.4,Win32,59.16459591,Chrome,1368,912,,,,,0,851,,,,,,,,,,,,,,,,,132,W,hexagon,1,0,,,,,,,,,,,,,,,,switch,letter,lettSwt,k,0.8324,Hi,,,,,,1,,,,,,,,high,23,0,23,0,1,,,,,,,,,
296671,2022-11-25_11h21.25.995,vts_reward_expectancy_bt,2022.2.4,Win32,59.16459591,Chrome,1368,912,,,,,1,852,,,,,,,,,,,,,,,,,174,S,triangle,1,0,,,,,,,,,,,,,,,,repeat,letter,lettRpt,k,0.484,Lo,,,,,,1,,,,,,,,high,24,0,24,0,1,,,,,,,,,
296671,2022-11-25_11h21.25.995,vts_reward_expectancy_bt,2022.2.4,Win32,59.16459591,Chrome,1368,912,,,,,0,852,,,,,,,,,,,,,,,,,181,Y,circle,1,0,,,,,,,,,,,,,,,,switch,number,numSwt,f,0.5817,Hi,,,,,,1,,,,,,,,high,25,0,25,0,1,,,,,,,,,
296671,2022-11-25_11h21.25.995,vts_reward_expectancy_bt,2022.2.4,Win32,59.16459591,Chrome,1368,912,,,,,0,852,,,,,,,,,,,,,,,,,125,H,hexagon,0,0,,,,,,,,,,,,,,,,repeat,number,NA,f,0.2697,Hi,,,,,,1,,,,,,,,high,26,0,26,0,1,,,,,,,,,
296671,2022-11-25_11h21.25.995,vts_reward_expectancy_bt,2022.2.4,Win32,59.16459591,Chrome,1368,912,,,,,0,852,,,,,,,,,,,,,,,,,139,U,star,0,1,,,,,,,,,,,,,,,,repeat,number,NA,f,0.1027,Hi,,,,,,1,,,,,,,,high,27,0,27,0,1,,,,,,,,,
296671,2022-11-25_11h21.25.995,vts_reward_expectancy_bt,2022.2.4,Win32,59.16459591,Chrome,1368,912,,,,,10,862,,,,,,,,,,,,,,,,,167,F,triangle,1,1,,,,,,,,,,,,,,,,repeat,number,numRpt,f,0.297,Lo,,,,,,1,,,,,,,,high,28,0,28,0,1,,,,,,,,,
296671,2022-11-25_11h21.25.995,vts_reward_expectancy_bt,2022.2.4,Win32,59.16459591,Chrome,1368,912,,,,,0,862,,,,,,,,,,,,,,,,,160,W,star,0,0,,,,,,,,,,,,,,,,repeat,number,NA,d,0.2639,Lo,,,,,,1,,,,,,,,high,29,0,29,0,1,,,,,,,,,
296671,2022-11-25_11h21.25.995,vts_reward_expectancy_bt,2022.2.4,Win32,59.16459591,Chrome,1368,912,,,,,0,862,,,,,,,,,,,,,,,,,132,B,hexagon,1,1,,,,,,,,,,,,,,,,repeat,number,numRpt,d,0.4476,Hi,,,,,,1,,,,,,,,high,30,0,30,0,1,,,,,,,,,
296671,2022-11-25_11h21.25.995,vts_reward_expectancy_bt,2022.2.4,Win32,59.16459591,Chrome,1368,912,,,,,10,872,,,,,,,,,,,,,,,,,146,D,circle,1,0,,,,,,,,,,,,,,,,switch,letter,lettSwt,j,0.4509,Hi,,,,,,1,,,,,,,,high,31,0,31,0,1,,,,,,,,,
296671,2022-11-25_11h21.25.995,vts_reward_expectancy_bt,2022.2.4,Win32,59.16459591,Chrome,1368,912,,,,,0,872,,,,,,,,,,,,,,,,,146,F,triangle,-1,0,,,,,,,,,,,,,,,,switch,no_choice,NA,,,Hi,,,,,,2,,,,,,space,0.6745,high,0,0,0,0,1,,,,,,,,,
296671,2022-11-25_11h21.25.995,vts_reward_expectancy_bt,2022.2.4,Win32,59.16459591,Chrome,1368,912,,,,,0,872,,,,,,,,,,,,,,,,,139,D,star,-1,0,,,,,,,,,,,,,,,,repeat,no_choice,NA,,,Hi,,,,,,2,,,,,,,,high,1,0,1,0,1,,,,,,,,,
296671,2022-11-25_11h21.25.995,vts_reward_expectancy_bt,2022.2.4,Win32,59.16459591,Chrome,1368,912,,,,,0,872,,,,,,,,,,,,,,,,,181,S,hexagon,1,0,,,,,,,,,,,,,,,,switch,letter,lettSwt,k,1.2177,Hi,,,,,,2,,,,,,,,high,2,0,2,0,1,,,,,,,,,
296671,2022-11-25_11h21.25.995,vts_reward_expectancy_bt,2022.2.4,Win32,59.16459591,Chrome,1368,912,,,,,0,872,,,,,,,,,,,,,,,,,125,U,circle,1,0,,,,,,,,,,,,,,,,repeat,letter,lettRpt,k,0.7457,Hi,,,,,,2,,,,,,,,high,3,0,3,0,1,,,,,,,,,
296671,2022-11-25_11h21.25.995,vts_reward_expectancy_bt,2022.2.4,Win32,59.16459591,Chrome,1368,912,,,,,0,872,,,,,,,,,,,,,,,,,132,H,triangle,0,0,,,,,,,,,,,,,,,,repeat,letter,NA,k,0.9125,Hi,,,,,,2,,,,,,,,high,4,0,4,0,1,,,,,,,,,
296671,2022-11-25_11h21.25.995,vts_reward_expectancy_bt,2022.2.4,Win32,59.16459591,Chrome,1368,912,,,,,1,873,,,,,,,,,,,,,,,,,174,B,star,1,1,,,,,,,,,,,,,,,,repeat,letter,lettRpt,j,0.6959,Lo,,,,,,2,,,,,,,,high,5,0,5,0,1,,,,,,,,,
296671,2022-11-25_11h21.25.995,vts_reward_expectancy_bt,2022.2.4,Win32,59.16459591,Chrome,1368,912,,,,,0,873,,,,,,,,,,,,,,,,,167,W,hexagon,1,0,,,,,,,,,,,,,,,,repeat,letter,lettRpt,k,0.7159,Hi,,,,,,2,,,,,,,,high,6,0,6,0,1,,,,,,,,,
296671,2022-11-25_11h21.25.995,vts_reward_expectancy_bt,2022.2.4,Win32,59.16459591,Chrome,1368,912,,,,,0,873,,,,,,,,,,,,,,,,,160,Y,circle,1,0,,,,,,,,,,,,,,,,repeat,letter,lettRpt,k,1.2292,Hi,,,,,,2,,,,,,,,high,7,0,7,0,1,,,,,,,,,
296671,2022-11-25_11h21.25.995,vts_reward_expectancy_bt,2022.2.4,Win32,59.16459591,Chrome,1368,912,,,,,0,873,,,,,,,,,,,,,,,,,146,F,circle,1,0,,,,,,,,,,,,,,,,repeat,letter,lettRpt,j,0.9145,Hi,,,,,,2,,,,,,,,high,8,0,8,0,1,,,,,,,,,
296671,2022-11-25_11h21.25.995,vts_reward_expectancy_bt,2022.2.4,Win32,59.16459591,Chrome,1368,912,,,,,10,883,,,,,,,,,,,,,,,,,139,D,star,1,0,,,,,,,,,,,,,,,,switch,number,numSwt,d,0.7681,Lo,,,,,,2,,,,,,,,high,9,0,9,0,1,,,,,,,,,
296671,2022-11-25_11h21.25.995,vts_reward_expectancy_bt,2022.2.4,Win32,59.16459591,Chrome,1368,912,,,,,0,883,,,,,,,,,,,,,,,,,181,S,hexagon,1,0,,,,,,,,,,,,,,,,switch,letter,lettSwt,k,0.9518,Hi,,,,,,2,,,,,,,,high,10,0,10,0,1,,,,,,,,,
296671,2022-11-25_11h21.25.995,vts_reward_expectancy_bt,2022.2.4,Win32,59.16459591,Chrome,1368,912,,,,,1,884,,,,,,,,,,,,,,,,,125,U,triangle,1,0,,,,,,,,,,,,,,,,switch,number,numSwt,d,1.0042,Lo,,,,,,2,,,,,,,,high,11,0,11,0,1,,,,,,,,,
296671,2022-11-25_11h21.25.995,vts_reward_expectancy_bt,2022.2.4,Win32,59.16459591,Chrome,1368,912,,,,,0,884,,,,,,,,,,,,,,,,,132,H,circle,1,0,,,,,,,,,,,,,,,,repeat,number,numRpt,d,1.0803,Hi,,,,,,2,,,,,,,,high,12,0,12,0,1,,,,,,,,,
296671,2022-11-25_11h21.25.995,vts_reward_expectancy_bt,2022.2.4,Win32,59.16459591,Chrome,1368,912,,,,,1,885,,,,,,,,,,,,,,,,,174,B,triangle,1,0,,,,,,,,,,,,,,,,repeat,number,numRpt,f,1.1298,Lo,,,,,,2,,,,,,,,high,13,0,13,0,1,,,,,,,,,
296671,2022-11-25_11h21.25.995,vts_reward_expectancy_bt,2022.2.4,Win32,59.16459591,Chrome,1368,912,,,,,1,886,,,,,,,,,,,,,,,,,167,W,star,1,0,,,,,,,,,,,,,,,,repeat,number,numRpt,f,1.0804,Lo,,,,,,2,,,,,,,,high,14,0,14,0,1,,,,,,,,,
296671,2022-11-25_11h21.25.995,vts_reward_expectancy_bt,2022.2.4,Win32,59.16459591,Chrome,1368,912,,,,,0,886,,,,,,,,,,,,,,,,,160,Y,hexagon,1,0,,,,,,,,,,,,,,,,repeat,number,numRpt,f,0.5287,Hi,,,,,,2,,,,,,,,high,15,0,15,0,1,,,,,,,,,
296671,2022-11-25_11h21.25.995,vts_reward_expectancy_bt,2022.2.4,Win32,59.16459591,Chrome,1368,912,,,,,0,886,,,,,,,,,,,,,,,,,139,W,hexagon,1,0,,,,,,,,,,,,,,,,switch,letter,lettSwt,k,0.7534,Hi,,,,,,2,,,,,,,,high,16,0,16,0,1,,,,,,,,,
296671,2022-11-25_11h21.25.995,vts_reward_expectancy_bt,2022.2.4,Win32,59.16459591,Chrome,1368,912,,,,,1,887,,,,,,,,,,,,,,,,,167,D,triangle,1,0,,,,,,,,,,,,,,,,switch,number,numSwt,f,0.5543,Lo,,,,,,2,,,,,,,,high,17,0,17,0,1,,,,,,,,,
296671,2022-11-25_11h21.25.995,vts_reward_expectancy_bt,2022.2.4,Win32,59.16459591,Chrome,1368,912,,,,,1,888,,,,,,,,,,,,,,,,,146,Y,star,1,0,,,,,,,,,,,,,,,,repeat,number,numRpt,d,0.5284,Lo,,,,,,2,,,,,,,,high,18,0,18,0,1,,,,,,,,,
296671,2022-11-25_11h21.25.995,vts_reward_expectancy_bt,2022.2.4,Win32,59.16459591,Chrome,1368,912,,,,,0,888,,,,,,,,,,,,,,,,,174,S,circle,1,0,,,,,,,,,,,,,,,,repeat,number,numRpt,f,1.0204,Hi,,,,,,2,,,,,,,,high,19,0,19,0,1,,,,,,,,,
296671,2022-11-25_11h21.25.995,vts_reward_expectancy_bt,2022.2.4,Win32,59.16459591,Chrome,1368,912,,,,,1,889,,,,,,,,,,,,,,,,,125,H,star,1,0,,,,,,,,,,,,,,,,repeat,number,numRpt,d,0.6036,Lo,,,,,,2,,,,,,,,high,20,0,20,0,1,,,,,,,,,
296671,2022-11-25_11h21.25.995,vts_reward_expectancy_bt,2022.2.4,Win32,59.16459591,Chrome,1368,912,,,,,1,890,,,,,,,,,,,,,,,,,181,F,triangle,1,0,,,,,,,,,,,,,,,,repeat,number,numRpt,f,0.664,Lo,,,,,,2,,,,,,,,high,21,0,21,0,1,,,,,,,,,
296671,2022-11-25_11h21.25.995,vts_reward_expectancy_bt,2022.2.4,Win32,59.16459591,Chrome,1368,912,,,,,0,890,,,,,,,,,,,,,,,,,132,U,hexagon,0,0,,,,,,,,,,,,,,,,switch,letter,NA,j,0.3369,Lo,,,,,,2,,,,,,,,high,22,0,22,0,1,,,,,,,,,
296671,2022-11-25_11h21.25.995,vts_reward_expectancy_bt,2022.2.4,Win32,59.16459591,Chrome,1368,912,,,,,0,890,,,,,,,,,,,,,,,,,160,B,circle,1,1,,,,,,,,,,,,,,,,repeat,letter,lettRpt,j,0.6346,Hi,,,,,,2,,,,,,,,high,23,0,23,0,1,,,,,,,,,
296671,2022-11-25_11h21.25.995,vts_reward_expectancy_bt,2022.2.4,Win32,59.16459591,Chrome,1368,912,,,,,10,900,,,,,,,,,,,,,,,,,132,D,circle,1,0,,,,,,,,,,,,,,,,repeat,letter,lettRpt,j,0.2508,Hi,,,,,,2,,,,,,,,high,24,0,24,0,1,,,,,,,,,
296671,2022-11-25_11h21.25.995,vts_reward_expectancy_bt,2022.2.4,Win32,59.16459591,Chrome,1368,912,,,,,10,910,,,,,,,,,,,,,,,,,174,B,triangle,1,0,,,,,,,,,,,,,,,,repeat,letter,lettRpt,j,0.8126,Lo,,,,,,2,,,,,,,,high,25,0,25,0,1,,,,,,,,,
296671,2022-11-25_11h21.25.995,vts_reward_expectancy_bt,2022.2.4,Win32,59.16459591,Chrome,1368,912,,,,,1,911,,,,,,,,,,,,,,,,,181,F,star,1,0,,,,,,,,,,,,,,,,switch,number,numSwt,f,0.5572,Lo,,,,,,2,,,,,,,,high,26,0,26,0,1,,,,,,,,,
296671,2022-11-25_11h21.25.995,vts_reward_expectancy_bt,2022.2.4,Win32,59.16459591,Chrome,1368,912,,,,,0,911,,,,,,,,,,,,,,,,,167,W,hexagon,1,0,,,,,,,,,,,,,,,,repeat,number,numRpt,f,0.8368,Hi,,,,,,2,,,,,,,,high,27,0,27,0,1,,,,,,,,,
296671,2022-11-25_11h21.25.995,vts_reward_expectancy_bt,2022.2.4,Win32,59.16459591,Chrome,1368,912,,,,,1,912,,,,,,,,,,,,,,,,,160,S,star,1,0,,,,,,,,,,,,,,,,repeat,number,numRpt,f,0.7959,Lo,,,,,,2,,,,,,,,high,28,0,28,0,1,,,,,,,,,
296671,2022-11-25_11h21.25.995,vts_reward_expectancy_bt,2022.2.4,Win32,59.16459591,Chrome,1368,912,,,,,1,913,,,,,,,,,,,,,,,,,125,H,triangle,1,0,,,,,,,,,,,,,,,,switch,letter,lettSwt,j,0.4521,Lo,,,,,,2,,,,,,,,high,29,0,29,0,1,,,,,,,,,
296671,2022-11-25_11h21.25.995,vts_reward_expectancy_bt,2022.2.4,Win32,59.16459591,Chrome,1368,912,,,,,0,913,,,,,,,,,,,,,,,,,139,U,circle,0,0,,,,,,,,,,,,,,,,repeat,letter,NA,j,0.2521,Lo,,,,,,2,,,,,,,,high,30,0,30,0,1,,,,,,,,,
296671,2022-11-25_11h21.25.995,vts_reward_expectancy_bt,2022.2.4,Win32,59.16459591,Chrome,1368,912,,,,,0,913,,,,,,,,,,,,,,,,,146,Y,hexagon,1,1,,,,,,,,,,,,,,,,repeat,letter,lettRpt,k,0.6829,Hi,,,,,,2,,,,,,,,high,31,0,31,0,1,,,,,,,,,
296671,2022-11-25_11h21.25.995,vts_reward_expectancy_bt,2022.2.4,Win32,59.16459591,Chrome,1368,912,,,,,10,923,,,,,,,,,,,,,,,,,167,W,star,1,0,,,,,,,,,,,,,,,,repeat,letter,lettRpt,k,0.6331,Lo,,,,,,3,,,,,,space,0.7142,high,0,0,0,0,1,,,,,,,,,
296671,2022-11-25_11h21.25.995,vts_reward_expectancy_bt,2022.2.4,Win32,59.16459591,Chrome,1368,912,,,,,0,923,,,,,,,,,,,,,,,,,132,F,hexagon,1,0,,,,,,,,,,,,,,,,repeat,letter,lettRpt,j,0.7957,Hi,,,,,,3,,,,,,,,high,1,0,1,0,1,,,,,,,,,
296671,2022-11-25_11h21.25.995,vts_reward_expectancy_bt,2022.2.4,Win32,59.16459591,Chrome,1368,912,,,,,10,933,,,,,,,,,,,,,,,,,160,B,circle,1,0,,,,,,,,,,,,,,,,switch,number,numSwt,f,0.521,Hi,,,,,,3,,,,,,,,high,2,0,2,0,1,,,,,,,,,
296671,2022-11-25_11h21.25.995,vts_reward_expectancy_bt,2022.2.4,Win32,59.16459591,Chrome,1368,912,,,,,1,934,,,,,,,,,,,,,,,,,174,H,triangle,1,0,,,,,,,,,,,,,,,,repeat,number,numRpt,f,0.4643,Lo,,,,,,3,,,,,,,,high,3,0,3,0,1,,,,,,,,,
296671,2022-11-25_11h21.25.995,vts_reward_expectancy_bt,2022.2.4,Win32,59.16459591,Chrome,1368,912,,,,,1,935,,,,,,,,,,,,,,,,,139,D,star,1,0,,,,,,,,,,,,,,,,repeat,number,numRpt,d,0.6388,Lo,,,,,,3,,,,,,,,high,4,0,4,0,1,,,,,,,,,
296671,2022-11-25_11h21.25.995,vts_reward_expectancy_bt,2022.2.4,Win32,59.16459591,Chrome,1368,912,,,,,0,935,,,,,,,,,,,,,,,,,125,U,hexagon,1,0,,,,,,,,,,,,,,,,switch,letter,lettSwt,k,1.0797,Hi,,,,,,3,,,,,,,,high,5,0,5,0,1,,,,,,,,,
296671,2022-11-25_11h21.25.995,vts_reward_expectancy_bt,2022.2.4,Win32,59.16459591,Chrome,1368,912,,,,,10,945,,,,,,,,,,,,,,,,,146,Y,circle,1,0,,,,,,,,,,,,,,,,repeat,letter,lettRpt,k,0.5454,Hi,,,,,,3,,,,,,,,high,6,0,6,0,1,,,,,,,,,
296671,2022-11-25_11h21.25.995,vts_reward_expectancy_bt,2022.2.4,Win32,59.16459591,Chrome,1368,912,,,,,1,946,,,,,,,,,,,,,,,,,181,S,triangle,1,0,,,,,,,,,,,,,,,,repeat,letter,lettRpt,k,0.712,Lo,,,,,,3,,,,,,,,high,7,0,7,0,1,,,,,,,,,
296671,2022-11-25_11h21.25.995,vts_reward_expectancy_bt,2022.2.4,Win32,59.16459591,Chrome,1368,912,,,,,10,956,,,,,,,,,,,,,,,,,167,W,hexagon,1,0,,,,,,,,,,,,,,,,switch,number,numSwt,f,0.4558,Hi,,,,,,3,,,,,,,,high,8,0,8,0,1,,,,,,,,,
296671,2022-11-25_11h21.25.995,vts_reward_expectancy_bt,2022.2.4,Win32,59.16459591,Chrome,1368,912,,,,,1,957,,,,,,,,,,,,,,,,,132,F,triangle,1,0,,,,,,,,,,,,,,,,repeat,number,numRpt,d,0.4327,Lo,,,,,,3,,,,,,,,high,9,0,9,0,1,,,,,,,,,
296671,2022-11-25_11h21.25.995,vts_reward_expectancy_bt,2022.2.4,Win32,59.16459591,Chrome,1368,912,,,,,1,958,,,,,,,,,,,,,,,,,160,B,star,1,0,,,,,,,,,,,,,,,,repeat,number,numRpt,f,0.5791,Lo,,,,,,3,,,,,,,,high,10,0,10,0,1,,,,,,,,,
296671,2022-11-25_11h21.25.995,vts_reward_expectancy_bt,2022.2.4,Win32,59.16459591,Chrome,1368,912,,,,,10,968,,,,,,,,,,,,,,,,,174,H,circle,1,0,,,,,,,,,,,,,,,,repeat,number,numRpt,f,0.624,Hi,,,,,,3,,,,,,,,high,11,0,11,0,1,,,,,,,,,
296671,2022-11-25_11h21.25.995,vts_reward_expectancy_bt,2022.2.4,Win32,59.16459591,Chrome,1368,912,,,,,1,969,,,,,,,,,,,,,,,,,139,D,triangle,1,0,,,,,,,,,,,,,,,,repeat,number,numRpt,d,0.5426,Lo,,,,,,3,,,,,,,,high,12,0,12,0,1,,,,,,,,,
296671,2022-11-25_11h21.25.995,vts_reward_expectancy_bt,2022.2.4,Win32,59.16459591,Chrome,1368,912,,,,,10,979,,,,,,,,,,,,,,,,,125,U,hexagon,1,0,,,,,,,,,,,,,,,,switch,letter,lettSwt,k,0.7156,Hi,,,,,,3,,,,,,,,high,13,0,13,0,1,,,,,,,,,
296671,2022-11-25_11h21.25.995,vts_reward_expectancy_bt,2022.2.4,Win32,59.16459591,Chrome,1368,912,,,,,1,980,,,,,,,,,,,,,,,,,146,Y,star,1,0,,,,,,,,,,,,,,,,repeat,letter,lettRpt,k,0.512,Lo,,,,,,3,,,,,,,,high,14,0,14,0,1,,,,,,,,,
296671,2022-11-25_11h21.25.995,vts_reward_expectancy_bt,2022.2.4,Win32,59.16459591,Chrome,1368,912,,,,,10,990,,,,,,,,,,,,,,,,,181,S,circle,1,0,,,,,,,,,,,,,,,,switch,number,numSwt,f,0.5116,Hi,,,,,,3,,,,,,,,high,15,0,15,0,1,,,,,,,,,
296671,2022-11-25_11h21.25.995,vts_reward_expectancy_bt,2022.2.4,Win32,59.16459591,Chrome,1368,912,,,,,10,1000,,,,,,,,,,,,,,,,,167,Y,circle,1,0,,,,,,,,,,,,,,,,switch,letter,lettSwt,k,0.6167,Hi,,,,,,3,,,,,,,,high,16,0,16,0,1,,,,,,,,,
296671,2022-11-25_11h21.25.995,vts_reward_expectancy_bt,2022.2.4,Win32,59.16459591,Chrome,1368,912,,,,,1,1001,,,,,,,,,,,,,,,,,181,B,triangle,1,0,,,,,,,,,,,,,,,,repeat,letter,lettRpt,j,0.9299,Lo,,,,,,3,,,,,,,,high,17,0,17,0,1,,,,,,,,,
296671,2022-11-25_11h21.25.995,vts_reward_expectancy_bt,2022.2.4,Win32,59.16459591,Chrome,1368,912,,,,,0,1001,,,,,,,,,,,,,,,,,146,H,hexagon,0,0,,,,,,,,,,,,,,,,switch,number,NA,f,0.5367,Lo,,,,,,3,,,,,,,,high,18,0,18,0,1,,,,,,,,,
296671,2022-11-25_11h21.25.995,vts_reward_expectancy_bt,2022.2.4,Win32,59.16459591,Chrome,1368,912,,,,,10,1011,,,,,,,,,,,,,,,,,160,S,star,1,1,,,,,,,,,,,,,,,,repeat,number,numRpt,f,0.4864,Lo,,,,,,3,,,,,,,,high,19,0,19,0,1,,,,,,,,,
296671,2022-11-25_11h21.25.995,vts_reward_expectancy_bt,2022.2.4,Win32,59.16459591,Chrome,1368,912,,,,,10,1021,,,,,,,,,,,,,,,,,125,F,circle,1,0,,,,,,,,,,,,,,,,switch,letter,lettSwt,j,0.6996,Hi,,,,,,3,,,,,,,,high,20,0,20,0,1,,,,,,,,,
296671,2022-11-25_11h21.25.995,vts_reward_expectancy_bt,2022.2.4,Win32,59.16459591,Chrome,1368,912,,,,,10,1031,,,,,,,,,,,,,,,,,139,W,star,1,0,,,,,,,,,,,,,,,,switch,number,numSwt,d,0.6953,Lo,,,,,,3,,,,,,,,high,21,0,21,0,1,,,,,,,,,
296671,2022-11-25_11h21.25.995,vts_reward_expectancy_bt,2022.2.4,Win32,59.16459591,Chrome,1368,912,,,,,10,1041,,,,,,,,,,,,,,,,,132,U,hexagon,1,0,,,,,,,,,,,,,,,,switch,letter,lettSwt,k,0.7129,Hi,,,,,,3,,,,,,,,high,22,0,22,0,1,,,,,,,,,
296671,2022-11-25_11h21.25.995,vts_reward_expectancy_bt,2022.2.4,Win32,59.16459591,Chrome,1368,912,,,,,1,1042,,,,,,,,,,,,,,,,,174,D,triangle,1,0,,,,,,,,,,,,,,,,switch,number,numSwt,f,0.5369,Lo,,,,,,3,,,,,,,,high,23,0,23,0,1,,,,,,,,,
296671,2022-11-25_11h21.25.995,vts_reward_expectancy_bt,2022.2.4,Win32,59.16459591,Chrome,1368,912,,,,,1,1043,,,,,,,,,,,,,,,,,174,F,triangle,1,0,,,,,,,,,,,,,,,,switch,letter,lettSwt,j,0.4811,Lo,,,,,,3,,,,,,,,high,24,0,24,0,1,,,,,,,,,
296671,2022-11-25_11h21.25.995,vts_reward_expectancy_bt,2022.2.4,Win32,59.16459591,Chrome,1368,912,,,,,0,1043,,,,,,,,,,,,,,,,,132,H,hexagon,0,0,,,,,,,,,,,,,,,,repeat,letter,NA,k,0.6704,Lo,,,,,,3,,,,,,,,high,25,0,25,0,1,,,,,,,,,
296671,2022-11-25_11h21.25.995,vts_reward_expectancy_bt,2022.2.4,Win32,59.16459591,Chrome,1368,912,,,,,1,1044,,,,,,,,,,,,,,,,,125,Y,star,1,1,,,,,,,,,,,,,,,,switch,number,numSwt,d,0.5455,Lo,,,,,,3,,,,,,,,high,26,0,26,0,1,,,,,,,,,
296671,2022-11-25_11h21.25.995,vts_reward_expectancy_bt,2022.2.4,Win32,59.16459591,Chrome,1368,912,,,,,0,1044,,,,,,,,,,,,,,,,,181,U,circle,1,0,,,,,,,,,,,,,,,,repeat,number,numRpt,f,0.696,Hi,,,,,,3,,,,,,,,high,27,0,27,0,1,,,,,,,,,
296671,2022-11-25_11h21.25.995,vts_reward_expectancy_bt,2022.2.4,Win32,59.16459591,Chrome,1368,912,,,,,10,1054,,,,,,,,,,,,,,,,,160,B,star,1,0,,,,,,,,,,,,,,,,switch,letter,lettSwt,j,0.5342,Lo,,,,,,3,,,,,,,,high,28,0,28,0,1,,,,,,,,,
296671,2022-11-25_11h21.25.995,vts_reward_expectancy_bt,2022.2.4,Win32,59.16459591,Chrome,1368,912,,,,,1,1055,,,,,,,,,,,,,,,,,167,W,triangle,1,0,,,,,,,,,,,,,,,,repeat,letter,lettRpt,k,0.6133,Lo,,,,,,3,,,,,,,,high,29,0,29,0,1,,,,,,,,,
296671,2022-11-25_11h21.25.995,vts_reward_expectancy_bt,2022.2.4,Win32,59.16459591,Chrome,1368,912,,,,,10,1065,,,,,,,,,,,,,,,,,139,S,hexagon,1,0,,,,,,,,,,,,,,,,repeat,letter,lettRpt,k,0.5142,Hi,,,,,,3,,,,,,,,high,30,0,30,0,1,,,,,,,,,
296671,2022-11-25_11h21.25.995,vts_reward_expectancy_bt,2022.2.4,Win32,59.16459591,Chrome,1368,912,,,,,0,1065,,,,,,,,,,,,,,,,,146,D,circle,1,0,,,,,,,,,,,,,,,,switch,number,numSwt,d,0.6292,Hi,,,,,,3,,,,,,,,high,31,0,31,0,1,,,,,,,,,
296671,2022-11-25_11h21.25.995,vts_reward_expectancy_bt,2022.2.4,Win32,59.16459591,Chrome,1368,912,,,,,0,1065,,,,,,,,,,,,,,,,,139,B,circle,1,0,,,,,,,,,,,,,,,,repeat,number,numRpt,d,0.5319,Hi,,,,,,4,,,,,,space,1.0513,high,0,0,0,0,1,,,,,,,,,
296671,2022-11-25_11h21.25.995,vts_reward_expectancy_bt,2022.2.4,Win32,59.16459591,Chrome,1368,912,,,,,0,1065,,,,,,,,,,,,,,,,,146,D,hexagon,0,0,,,,,,,,,,,,,,,,repeat,number,NA,f,0.6413,Hi,,,,,,4,,,,,,,,high,1,0,1,0,1,,,,,,,,,
296671,2022-11-25_11h21.25.995,vts_reward_expectancy_bt,2022.2.4,Win32,59.16459591,Chrome,1368,912,,,,,1,1066,,,,,,,,,,,,,,,,,167,U,triangle,1,1,,,,,,,,,,,,,,,,switch,letter,lettSwt,k,0.8788,Lo,,,,,,4,,,,,,,,high,2,0,2,0,1,,,,,,,,,
296671,2022-11-25_11h21.25.995,vts_reward_expectancy_bt,2022.2.4,Win32,59.16459591,Chrome,1368,912,,,,,1,1067,,,,,,,,,,,,,,,,,174,H,star,1,0,,,,,,,,,,,,,,,,switch,number,numSwt,f,0.7454,Lo,,,,,,4,,,,,,,,high,3,0,3,0,1,,,,,,,,,
296671,2022-11-25_11h21.25.995,vts_reward_expectancy_bt,2022.2.4,Win32,59.16459591,Chrome,1368,912,,,,,0,1067,,,,,,,,,,,,,,,,,160,S,circle,1,0,,,,,,,,,,,,,,,,repeat,number,numRpt,f,0.6439,Hi,,,,,,4,,,,,,,,high,4,0,4,0,1,,,,,,,,,
296671,2022-11-25_11h21.25.995,vts_reward_expectancy_bt,2022.2.4,Win32,59.16459591,Chrome,1368,912,,,,,0,1067,,,,,,,,,,,,,,,,,181,Y,hexagon,1,0,,,,,,,,,,,,,,,,switch,letter,lettSwt,k,0.8028,Hi,,,,,,4,,,,,,,,high,5,0,5,0,1,,,,,,,,,
296671,2022-11-25_11h21.25.995,vts_reward_expectancy_bt,2022.2.4,Win32,59.16459591,Chrome,1368,912,,,,,1,1068,,,,,,,,,,,,,,,,,125,W,triangle,1,0,,,,,,,,,,,,,,,,repeat,letter,lettRpt,k,0.5243,Lo,,,,,,4,,,,,,,,high,6,0,6,0,1,,,,,,,,,
296671,2022-11-25_11h21.25.995,vts_reward_expectancy_bt,2022.2.4,Win32,59.16459591,Chrome,1368,912,,,,,1,1069,,,,,,,,,,,,,,,,,132,F,star,1,0,,,,,,,,,,,,,,,,switch,number,numSwt,d,0.557,Lo,,,,,,4,,,,,,,,high,7,0,7,0,1,,,,,,,,,
296671,2022-11-25_11h21.25.995,vts_reward_expectancy_bt,2022.2.4,Win32,59.16459591,Chrome,1368,912,,,,,0,1069,,,,,,,,,,,,,,,,,139,B,circle,1,0,,,,,,,,,,,,,,,,repeat,number,numRpt,d,0.5493,Hi,,,,,,4,,,,,,,,high,8,0,8,0,1,,,,,,,,,
296671,2022-11-25_11h21.25.995,vts_reward_expectancy_bt,2022.2.4,Win32,59.16459591,Chrome,1368,912,,,,,1,1070,,,,,,,,,,,,,,,,,146,D,star,1,0,,,,,,,,,,,,,,,,switch,letter,lettSwt,j,0.4696,Lo,,,,,,4,,,,,,,,high,9,0,9,0,1,,,,,,,,,
296671,2022-11-25_11h21.25.995,vts_reward_expectancy_bt,2022.2.4,Win32,59.16459591,Chrome,1368,912,,,,,1,1071,,,,,,,,,,,,,,,,,167,U,triangle,1,0,,,,,,,,,,,,,,,,repeat,letter,lettRpt,k,0.6039,Lo,,,,,,4,,,,,,,,high,10,0,10,0,1,,,,,,,,,
296671,2022-11-25_11h21.25.995,vts_reward_expectancy_bt,2022.2.4,Win32,59.16459591,Chrome,1368,912,,,,,0,1071,,,,,,,,,,,,,,,,,174,H,hexagon,0,0,,,,,,,,,,,,,,,,repeat,letter,NA,k,1.1532,Lo,,,,,,4,,,,,,,,high,11,0,11,0,1,,,,,,,,,
296671,2022-11-25_11h21.25.995,vts_reward_expectancy_bt,2022.2.4,Win32,59.16459591,Chrome,1368,912,,,,,0,1071,,,,,,,,,,,,,,,,,160,S,star,0,1,,,,,,,,,,,,,,,,repeat,letter,NA,j,1.5835,Lo,,,,,,4,,,,,,,,high,12,0,12,0,1,,,,,,,,,
296671,2022-11-25_11h21.25.995,vts_reward_expectancy_bt,2022.2.4,Win32,59.16459591,Chrome,1368,912,,,,,1,1072,,,,,,,,,,,,,,,,,181,Y,circle,1,1,,,,,,,,,,,,,,,,switch,number,numSwt,f,0.4987,Hi,,,,,,4,,,,,,,,high,13,0,13,0,1,,,,,,,,,
296671,2022-11-25_11h21.25.995,vts_reward_expectancy_bt,2022.2.4,Win32,59.16459591,Chrome,1368,912,,,,,0,1072,,,,,,,,,,,,,,,,,125,W,hexagon,1,0,,,,,,,,,,,,,,,,repeat,number,numRpt,d,0.5622,Hi,,,,,,4,,,,,,,,high,14,0,14,0,1,,,,,,,,,
296671,2022-11-25_11h21.25.995,vts_reward_expectancy_bt,2022.2.4,Win32,59.16459591,Chrome,1368,912,,,,,1,1073,,,,,,,,,,,,,,,,,132,F,triangle,1,0,,,,,,,,,,,,,,,,switch,letter,lettSwt,j,1.0539,Lo,,,,,,4,,,,,,,,high,15,0,15,0,1,,,,,,,,,
296671,2022-11-25_11h21.25.995,vts_reward_expectancy_bt,2022.2.4,Win32,59.16459591,Chrome,1368,912,,,,,0,1073,,,,,,,,,,,,,,,,,160,W,circle,1,0,,,,,,,,,,,,,,,,repeat,letter,lettRpt,k,1.1463,Hi,,,,,,4,,,,,,,,high,16,0,16,0,1,,,,,,,,,
296671,2022-11-25_11h21.25.995,vts_reward_expectancy_bt,2022.2.4,Win32,59.16459591,Chrome,1368,912,,,,,1,1074,,,,,,,,,,,,,,,,,174,S,triangle,1,0,,,,,,,,,,,,,,,,repeat,letter,lettRpt,k,0.6825,Lo,,,,,,4,,,,,,,,high,17,0,17,0,1,,,,,,,,,
296671,2022-11-25_11h21.25.995,vts_reward_expectancy_bt,2022.2.4,Win32,59.16459591,Chrome,1368,912,,,,,1,1075,,,,,,,,,,,,,,,,,146,Y,star,1,0,,,,,,,,,,,,,,,,repeat,letter,lettRpt,k,0.7693,Lo,,,,,,4,,,,,,,,high,18,0,18,0,1,,,,,,,,,
296671,2022-11-25_11h21.25.995,vts_reward_expectancy_bt,2022.2.4,Win32,59.16459591,Chrome,1368,912,,,,,0,1075,,,,,,,,,,,,,,,,,167,B,hexagon,1,0,,,,,,,,,,,,,,,,switch,number,numSwt,f,0.6949,Hi,,,,,,4,,,,,,,,high,19,0,19,0,1,,,,,,,,,
296671,2022-11-25_11h21.25.995,vts_reward_expectancy_bt,2022.2.4,Win32,59.16459591,Chrome,1368,912,,,,,0,1075,,,,,,,,,,,,,,,,,132,H,circle,1,0,,,,,,,,,,,,,,,,repeat,number,numRpt,d,0.5457,Hi,,,,,,4,,,,,,,,high,20,0,20,0,1,,,,,,,,,
296671,2022-11-25_11h21.25.995,vts_reward_expectancy_bt,2022.2.4,Win32,59.16459591,Chrome,1368,912,,,,,0,1075,,,,,,,,,,,,,,,,,181,F,hexagon,1,0,,,,,,,,,,,,,,,,repeat,number,numRpt,f,0.6557,Hi,,,,,,4,,,,,,,,high,21,0,21,0,1,,,,,,,,,
296671,2022-11-25_11h21.25.995,vts_reward_expectancy_bt,2022.2.4,Win32,59.16459591,Chrome,1368,912,,,,,10,1085,,,,,,,,,,,,,,,,,125,D,star,1,0,,,,,,,,,,,,,,,,repeat,number,numRpt,d,0.4745,Lo,,,,,,4,,,,,,,,high,22,0,22,0,1,,,,,,,,,
296671,2022-11-25_11h21.25.995,vts_reward_expectancy_bt,2022.2.4,Win32,59.16459591,Chrome,1368,912,,,,,1,1086,,,,,,,,,,,,,,,,,139,U,triangle,1,0,,,,,,,,,,,,,,,,repeat,number,numRpt,d,0.6624,Lo,,,,,,4,,,,,,,,high,23,0,23,0,1,,,,,,,,,
296671,2022-11-25_11h21.25.995,vts_reward_expectancy_bt,2022.2.4,Win32,59.16459591,Chrome,1368,912,,,,,0,1086,,,,,,,,,,,,,,,,,160,U,circle,1,0,,,,,,,,,,,,,,,,switch,letter,lettSwt,k,0.9038,Hi,,,,,,4,,,,,,,,high,24,0,24,0,1,,,,,,,,,
296671,2022-11-25_11h21.25.995,vts_reward_expectancy_bt,2022.2.4,Win32,59.16459591,Chrome,1368,912,,,,,1,1087,,,,,,,,,,,,,,,,,181,W,star,1,0,,,,,,,,,,,,,,,,switch,number,numSwt,f,0.5457,Lo,,,,,,4,,,,,,,,high,25,0,25,0,1,,,,,,,,,
296671,2022-11-25_11h21.25.995,vts_reward_expectancy_bt,2022.2.4,Win32,59.16459591,Chrome,1368,912,,,,,1,1088,,,,,,,,,,,,,,,,,125,H,triangle,1,0,,,,,,,,,,,,,,,,repeat,number,numRpt,d,0.5461,Lo,,,,,,4,,,,,,,,high,26,0,26,0,1,,,,,,,,,
296671,2022-11-25_11h21.25.995,vts_reward_expectancy_bt,2022.2.4,Win32,59.16459591,Chrome,1368,912,,,,,0,1088,,,,,,,,,,,,,,,,,174,B,hexagon,1,0,,,,,,,,,,,,,,,,switch,letter,lettSwt,j,0.9515,Hi,,,,,,4,,,,,,,,high,27,0,27,0,1,,,,,,,,,
296671,2022-11-25_11h21.25.995,vts_reward_expectancy_bt,2022.2.4,Win32,59.16459591,Chrome,1368,912,,,,,1,1089,,,,,,,,,,,,,,,,,146,F,star,1,0,,,,,,,,,,,,,,,,repeat,letter,lettRpt,j,0.6126,Lo,,,,,,4,,,,,,,,high,28,0,28,0,1,,,,,,,,,
296671,2022-11-25_11h21.25.995,vts_reward_expectancy_bt,2022.2.4,Win32,59.16459591,Chrome,1368,912,,,,,0,1089,,,,,,,,,,,,,,,,,139,S,hexagon,1,0,,,,,,,,,,,,,,,,repeat,letter,lettRpt,k,0.6961,Hi,,,,,,4,,,,,,,,high,29,0,29,0,1,,,,,,,,,
296671,2022-11-25_11h21.25.995,vts_reward_expectancy_bt,2022.2.4,Win32,59.16459591,Chrome,1368,912,,,,,1,1090,,,,,,,,,,,,,,,,,132,Y,triangle,1,0,,,,,,,,,,,,,,,,switch,number,numSwt,d,1.2855,Lo,,,,,,4,,,,,,,,high,30,0,30,0,1,,,,,,,,,
296671,2022-11-25_11h21.25.995,vts_reward_expectancy_bt,2022.2.4,Win32,59.16459591,Chrome,1368,912,,,,,0,1090,,,,,,,,,,,,,,,,,167,D,circle,1,0,,,,,,,,,,,,,,,,repeat,number,numRpt,f,1.3466,Hi,,,,,,4,,,,,,,,high,31,0,31,0,1,,,,,,,,,
296671,2022-11-25_11h21.25.995,vts_reward_expectancy_bt,2022.2.4,Win32,59.16459591,Chrome,1368,912,,,,,1,1091,,,,,,,,,,,,,,,,,132,F,triangle,1,0,,,,,,,,,,,,,,,,repeat,number,numRpt,d,0.4624,Lo,,,,,,5,,,,,,space,0.8669,high,0,0,0,0,1,,,,,,,,,
296671,2022-11-25_11h21.25.995,vts_reward_expectancy_bt,2022.2.4,Win32,59.16459591,Chrome,1368,912,,,,,0,1091,,,,,,,,,,,,,,,,,146,D,circle,1,0,,,,,,,,,,,,,,,,repeat,number,numRpt,d,0.646,Hi,,,,,,5,,,,,,,,high,1,0,1,0,1,,,,,,,,,
296671,2022-11-25_11h21.25.995,vts_reward_expectancy_bt,2022.2.4,Win32,59.16459591,Chrome,1368,912,,,,,1,1092,,,,,,,,,,,,,,,,,174,W,star,1,0,,,,,,,,,,,,,,,,switch,letter,lettSwt,k,0.5815,Lo,,,,,,5,,,,,,,,high,2,0,2,0,1,,,,,,,,,
296671,2022-11-25_11h21.25.995,vts_reward_expectancy_bt,2022.2.4,Win32,59.16459591,Chrome,1368,912,,,,,0,1092,,,,,,,,,,,,,,,,,139,U,hexagon,1,0,,,,,,,,,,,,,,,,repeat,letter,lettRpt,k,1.0798,Hi,,,,,,5,,,,,,,,high,3,0,3,0,1,,,,,,,,,
296671,2022-11-25_11h21.25.995,vts_reward_expectancy_bt,2022.2.4,Win32,59.16459591,Chrome,1368,912,,,,,1,1093,,,,,,,,,,,,,,,,,125,B,triangle,1,0,,,,,,,,,,,,,,,,switch,number,numSwt,d,0.8345,Lo,,,,,,5,,,,,,,,high,4,0,4,0,1,,,,,,,,,
296671,2022-11-25_11h21.25.995,vts_reward_expectancy_bt,2022.2.4,Win32,59.16459591,Chrome,1368,912,,,,,0,1093,,,,,,,,,,,,,,,,,160,S,circle,1,0,,,,,,,,,,,,,,,,repeat,number,numRpt,f,0.9236,Hi,,,,,,5,,,,,,,,high,5,0,5,0,1,,,,,,,,,
296671,2022-11-25_11h21.25.995,vts_reward_expectancy_bt,2022.2.4,Win32,59.16459591,Chrome,1368,912,,,,,1,1094,,,,,,,,,,,,,,,,,167,Y,star,1,0,,,,,,,,,,,,,,,,switch,letter,lettSwt,k,0.8794,Lo,,,,,,5,,,,,,,,high,6,0,6,0,1,,,,,,,,,
296671,2022-11-25_11h21.25.995,vts_reward_expectancy_bt,2022.2.4,Win32,59.16459591,Chrome,1368,912,,,,,0,1094,,,,,,,,,,,,,,,,,181,H,hexagon,1,0,,,,,,,,,,,,,,,,repeat,letter,lettRpt,j,1.382,Hi,,,,,,5,,,,,,,,high,7,0,7,0,1,,,,,,,,,
296671,2022-11-25_11h21.25.995,vts_reward_expectancy_bt,2022.2.4,Win32,59.16459591,Chrome,1368,912,,,,,10,1104,,,,,,,,,,,,,,,,,132,F,triangle,1,0,,,,,,,,,,,,,,,,switch,number,numSwt,d,0.7879,Lo,,,,,,5,,,,,,,,high,8,0,8,0,1,,,,,,,,,
296671,2022-11-25_11h21.25.995,vts_reward_expectancy_bt,2022.2.4,Win32,59.16459591,Chrome,1368,912,,,,,10,1114,,,,,,,,,,,,,,,,,146,D,star,1,0,,,,,,,,,,,,,,,,repeat,number,numRpt,d,0.5795,Lo,,,,,,5,,,,,,,,high,9,0,9,0,1,,,,,,,,,
296671,2022-11-25_11h21.25.995,vts_reward_expectancy_bt,2022.2.4,Win32,59.16459591,Chrome,1368,912,,,,,0,1114,,,,,,,,,,,,,,,,,174,W,hexagon,1,0,,,,,,,,,,,,,,,,repeat,number,numRpt,f,0.6313,Hi,,,,,,5,,,,,,,,high,10,0,10,0,1,,,,,,,,,
296671,2022-11-25_11h21.25.995,vts_reward_expectancy_bt,2022.2.4,Win32,59.16459591,Chrome,1368,912,,,,,10,1124,,,,,,,,,,,,,,,,,139,U,circle,1,0,,,,,,,,,,,,,,,,repeat,number,numRpt,d,0.498,Hi,,,,,,5,,,,,,,,high,11,0,11,0,1,,,,,,,,,
296671,2022-11-25_11h21.25.995,vts_reward_expectancy_bt,2022.2.4,Win32,59.16459591,Chrome,1368,912,,,,,0,1124,,,,,,,,,,,,,,,,,125,B,circle,1,0,,,,,,,,,,,,,,,,repeat,number,numRpt,d,0.648,Hi,,,,,,5,,,,,,,,high,12,0,12,0,1,,,,,,,,,
296671,2022-11-25_11h21.25.995,vts_reward_expectancy_bt,2022.2.4,Win32,59.16459591,Chrome,1368,912,,,,,10,1134,,,,,,,,,,,,,,,,,160,S,triangle,1,0,,,,,,,,,,,,,,,,repeat,number,numRpt,f,0.5675,Lo,,,,,,5,,,,,,,,high,13,0,13,0,1,,,,,,,,,
296671,2022-11-25_11h21.25.995,vts_reward_expectancy_bt,2022.2.4,Win32,59.16459591,Chrome,1368,912,,,,,1,1135,,,,,,,,,,,,,,,,,167,Y,star,1,0,,,,,,,,,,,,,,,,repeat,number,numRpt,f,1.1017,Lo,,,,,,5,,,,,,,,high,14,0,14,0,1,,,,,,,,,
296671,2022-11-25_11h21.25.995,vts_reward_expectancy_bt,2022.2.4,Win32,59.16459591,Chrome,1368,912,,,,,0,1135,,,,,,,,,,,,,,,,,181,H,hexagon,1,0,,,,,,,,,,,,,,,,switch,letter,lettSwt,j,1.2626,Hi,,,,,,5,,,,,,,,high,15,0,15,0,1,,,,,,,,,
296671,2022-11-25_11h21.25.995,vts_reward_expectancy_bt,2022.2.4,Win32,59.16459591,Chrome,1368,912,,,,,0,1135,,,,,,,,,,,,,,,,,146,S,circle,1,0,,,,,,,,,,,,,,,,switch,number,numSwt,d,0.6294,Hi,,,,,,5,,,,,,,,high,16,0,16,0,1,,,,,,,,,
296671,2022-11-25_11h21.25.995,vts_reward_expectancy_bt,2022.2.4,Win32,59.16459591,Chrome,1368,912,,,,,1,1136,,,,,,,,,,,,,,,,,160,H,triangle,1,0,,,,,,,,,,,,,,,,repeat,number,numRpt,f,0.7737,Lo,,,,,,5,,,,,,,,high,17,0,17,0,1,,,,,,,,,
296671,2022-11-25_11h21.25.995,vts_reward_expectancy_bt,2022.2.4,Win32,59.16459591,Chrome,1368,912,,,,,0,1136,,,,,,,,,,,,,,,,,181,F,hexagon,1,0,,,,,,,,,,,,,,,,repeat,number,numRpt,f,1.0345,Hi,,,,,,5,,,,,,,,high,18,0,18,0,1,,,,,,,,,
296671,2022-11-25_11h21.25.995,vts_reward_expectancy_bt,2022.2.4,Win32,59.16459591,Chrome,1368,912,,,,,10,1146,,,,,,,,,,,,,,,,,174,B,star,1,0,,,,,,,,,,,,,,,,switch,letter,lettSwt,j,0.6228,Lo,,,,,,5,,,,,,,,high,19,0,19,0,1,,,,,,,,,
296671,2022-11-25_11h21.25.995,vts_reward_expectancy_bt,2022.2.4,Win32,59.16459591,Chrome,1368,912,,,,,10,1156,,,,,,,,,,,,,,,,,167,W,circle,1,0,,,,,,,,,,,,,,,,repeat,letter,lettRpt,k,0.5143,Hi,,,,,,5,,,,,,,,high,20,0,20,0,1,,,,,,,,,
296671,2022-11-25_11h21.25.995,vts_reward_expectancy_bt,2022.2.4,Win32,59.16459591,Chrome,1368,912,,,,,1,1157,,,,,,,,,,,,,,,,,125,U,star,1,0,,,,,,,,,,,,,,,,switch,number,numSwt,d,0.4897,Lo,,,,,,5,,,,,,,,high,21,0,21,0,1,,,,,,,,,
296671,2022-11-25_11h21.25.995,vts_reward_expectancy_bt,2022.2.4,Win32,59.16459591,Chrome,1368,912,,,,,10,1167,,,,,,,,,,,,,,,,,132,Y,triangle,1,0,,,,,,,,,,,,,,,,switch,letter,lettSwt,k,0.7794,Lo,,,,,,5,,,,,,,,high,22,0,22,0,1,,,,,,,,,
296671,2022-11-25_11h21.25.995,vts_reward_expectancy_bt,2022.2.4,Win32,59.16459591,Chrome,1368,912,,,,,10,1177,,,,,,,,,,,,,,,,,139,D,hexagon,1,0,,,,,,,,,,,,,,,,repeat,letter,lettRpt,j,0.6012,Hi,,,,,,5,,,,,,,,high,23,0,23,0,1,,,,,,,,,
296671,2022-11-25_11h21.25.995,vts_reward_expectancy_bt,2022.2.4,Win32,59.16459591,Chrome,1368,912,,,,,0,1177,,,,,,,,,,,,,,,,,139,F,hexagon,1,0,,,,,,,,,,,,,,,,repeat,letter,lettRpt,j,0.6846,Hi,,,,,,5,,,,,,,,high,24,0,24,0,1,,,,,,,,,
296671,2022-11-25_11h21.25.995,vts_reward_expectancy_bt,2022.2.4,Win32,59.16459591,Chrome,1368,912,,,,,0,1177,,,,,,,,,,,,,,,,,125,W,circle,1,0,,,,,,,,,,,,,,,,repeat,letter,lettRpt,k,0.9718,Hi,,,,,,5,,,,,,,,high,25,0,25,0,1,,,,,,,,,
296671,2022-11-25_11h21.25.995,vts_reward_expectancy_bt,2022.2.4,Win32,59.16459591,Chrome,1368,912,,,,,1,1178,,,,,,,,,,,,,,,,,146,Y,star,1,0,,,,,,,,,,,,,,,,repeat,letter,lettRpt,k,0.7651,Lo,,,,,,5,,,,,,,,high,26,0,26,0,1,,,,,,,,,
296671,2022-11-25_11h21.25.995,vts_reward_expectancy_bt,2022.2.4,Win32,59.16459591,Chrome,1368,912,,,,,1,1179,,,,,,,,,,,,,,,,,132,S,triangle,1,0,,,,,,,,,,,,,,,,repeat,letter,lettRpt,k,0.6195,Lo,,,,,,5,,,,,,,,high,27,0,27,0,1,,,,,,,,,
296671,2022-11-25_11h21.25.995,vts_reward_expectancy_bt,2022.2.4,Win32,59.16459591,Chrome,1368,912,,,,,0,1179,,,,,,,,,,,,,,,,,174,B,circle,1,0,,,,,,,,,,,,,,,,switch,number,numSwt,f,1.0135,Hi,,,,,,5,,,,,,,,high,28,0,28,0,1,,,,,,,,,
296671,2022-11-25_11h21.25.995,vts_reward_expectancy_bt,2022.2.4,Win32,59.16459591,Chrome,1368,912,,,,,0,1179,,,,,,,,,,,,,,,,,167,D,hexagon,1,0,,,,,,,,,,,,,,,,repeat,number,numRpt,f,0.8354,Hi,,,,,,5,,,,,,,,high,29,0,29,0,1,,,,,,,,,
296671,2022-11-25_11h21.25.995,vts_reward_expectancy_bt,2022.2.4,Win32,59.16459591,Chrome,1368,912,,,,,10,1189,,,,,,,,,,,,,,,,,181,U,star,1,0,,,,,,,,,,,,,,,,repeat,number,numRpt,f,0.7532,Lo,,,,,,5,,,,,,,,high,30,0,30,0,1,,,,,,,,,
296671,2022-11-25_11h21.25.995,vts_reward_expectancy_bt,2022.2.4,Win32,59.16459591,Chrome,1368,912,,,,,1,1190,,,,,,,,,,,,,,,,,160,H,triangle,1,0,,,,,,,,,,,,,,,,repeat,number,numRpt,f,0.9522,Lo,,,,,,5,,,,,,,,high,31,0,31,0,1,,,,,,,,,
296671,2022-11-25_11h21.25.995,vts_reward_expectancy_bt,2022.2.4,Win32,59.16459591,Chrome,1368,912,,,,,0,1190,,,,,,,,,,,,,,,,,160,F,triangle,-1,0,,,,,,,,,,,,,,,,switch,no_choice,NA,,,Lo,,,,,,6,,,,,,space,0.9484,high,0,0,0,0,1,,,,,,,,,
296671,2022-11-25_11h21.25.995,vts_reward_expectancy_bt,2022.2.4,Win32,59.16459591,Chrome,1368,912,,,,,10,1200,,,,,,,,,,,,,,,,,174,B,circle,1,0,,,,,,,,,,,,,,,,switch,number,numSwt,f,0.5178,Hi,,,,,,6,,,,,,,,high,1,0,1,0,1,,,,,,,,,
296671,2022-11-25_11h21.25.995,vts_reward_expectancy_bt,2022.2.4,Win32,59.16459591,Chrome,1368,912,,,,,10,1210,,,,,,,,,,,,,,,,,167,Y,star,1,0,,,,,,,,,,,,,,,,repeat,number,numRpt,f,0.4509,Lo,,,,,,6,,,,,,,,high,2,0,2,0,1,,,,,,,,,
296671,2022-11-25_11h21.25.995,vts_reward_expectancy_bt,2022.2.4,Win32,59.16459591,Chrome,1368,912,,,,,0,1210,,,,,,,,,,,,,,,,,139,W,hexagon,1,0,,,,,,,,,,,,,,,,repeat,number,numRpt,d,0.7677,Hi,,,,,,6,,,,,,,,high,3,0,3,0,1,,,,,,,,,
296671,2022-11-25_11h21.25.995,vts_reward_expectancy_bt,2022.2.4,Win32,59.16459591,Chrome,1368,912,,,,,1,1211,,,,,,,,,,,,,,,,,146,U,triangle,1,0,,,,,,,,,,,,,,,,switch,letter,lettSwt,k,1.2216,Lo,,,,,,6,,,,,,,,high,4,0,4,0,1,,,,,,,,,
296671,2022-11-25_11h21.25.995,vts_reward_expectancy_bt,2022.2.4,Win32,59.16459591,Chrome,1368,912,,,,,0,1211,,,,,,,,,,,,,,,,,125,D,circle,1,0,,,,,,,,,,,,,,,,repeat,letter,lettRpt,j,1.0647,Hi,,,,,,6,,,,,,,,high,5,0,5,0,1,,,,,,,,,
296671,2022-11-25_11h21.25.995,vts_reward_expectancy_bt,2022.2.4,Win32,59.16459591,Chrome,1368,912,,,,,0,1211,,,,,,,,,,,,,,,,,181,H,star,0,0,,,,,,,,,,,,,,,,repeat,letter,NA,k,1.1175,Hi,,,,,,6,,,,,,,,high,6,0,6,0,1,,,,,,,,,
296671,2022-11-25_11h21.25.995,vts_reward_expectancy_bt,2022.2.4,Win32,59.16459591,Chrome,1368,912,,,,,10,1221,,,,,,,,,,,,,,,,,132,S,hexagon,1,1,,,,,,,,,,,,,,,,repeat,letter,lettRpt,k,0.6184,Hi,,,,,,6,,,,,,,,high,7,0,7,0,1,,,,,,,,,
296671,2022-11-25_11h21.25.995,vts_reward_expectancy_bt,2022.2.4,Win32,59.16459591,Chrome,1368,912,,,,,10,1231,,,,,,,,,,,,,,,,,160,F,hexagon,1,0,,,,,,,,,,,,,,,,switch,number,numSwt,f,0.5508,Hi,,,,,,6,,,,,,,,high,8,0,8,0,1,,,,,,,,,
296671,2022-11-25_11h21.25.995,vts_reward_expectancy_bt,2022.2.4,Win32,59.16459591,Chrome,1368,912,,,,,10,1241,,,,,,,,,,,,,,,,,174,B,star,1,0,,,,,,,,,,,,,,,,repeat,number,numRpt,f,0.5763,Lo,,,,,,6,,,,,,,,high,9,0,9,0,1,,,,,,,,,
296671,2022-11-25_11h21.25.995,vts_reward_expectancy_bt,2022.2.4,Win32,59.16459591,Chrome,1368,912,,,,,1,1242,,,,,,,,,,,,,,,,,167,Y,triangle,1,0,,,,,,,,,,,,,,,,repeat,number,numRpt,f,0.6908,Lo,,,,,,6,,,,,,,,high,10,0,10,0,1,,,,,,,,,
296671,2022-11-25_11h21.25.995,vts_reward_expectancy_bt,2022.2.4,Win32,59.16459591,Chrome,1368,912,,,,,0,1242,,,,,,,,,,,,,,,,,139,W,circle,1,0,,,,,,,,,,,,,,,,repeat,number,numRpt,d,0.6512,Hi,,,,,,6,,,,,,,,high,11,0,11,0,1,,,,,,,,,
296671,2022-11-25_11h21.25.995,vts_reward_expectancy_bt,2022.2.4,Win32,59.16459591,Chrome,1368,912,,,,,0,1242,,,,,,,,,,,,,,,,,146,U,hexagon,1,0,,,,,,,,,,,,,,,,switch,letter,lettSwt,k,1.0844,Hi,,,,,,6,,,,,,,,high,12,0,12,0,1,,,,,,,,,
296671,2022-11-25_11h21.25.995,vts_reward_expectancy_bt,2022.2.4,Win32,59.16459591,Chrome,1368,912,,,,,10,1252,,,,,,,,,,,,,,,,,125,D,triangle,1,0,,,,,,,,,,,,,,,,repeat,letter,lettRpt,j,1.018,Lo,,,,,,6,,,,,,,,high,13,0,13,0,1,,,,,,,,,
296671,2022-11-25_11h21.25.995,vts_reward_expectancy_bt,2022.2.4,Win32,59.16459591,Chrome,1368,912,,,,,1,1253,,,,,,,,,,,,,,,,,181,H,star,1,0,,,,,,,,,,,,,,,,repeat,letter,lettRpt,j,1.1465,Lo,,,,,,6,,,,,,,,high,14,0,14,0,1,,,,,,,,,
296671,2022-11-25_11h21.25.995,vts_reward_expectancy_bt,2022.2.4,Win32,59.16459591,Chrome,1368,912,,,,,0,1253,,,,,,,,,,,,,,,,,132,S,circle,1,0,,,,,,,,,,,,,,,,repeat,letter,lettRpt,k,0.8573,Hi,,,,,,6,,,,,,,,high,15,0,15,0,1,,,,,,,,,
