participant,date,expName,psychopyVersion,OS,frameRate,browser,xResolution,yResolution,key_resp.keys,key_resp.rt,training_resp.keys,training_resp.rt,points_trial,points_cumul,trainBlock,training.thisRepN,training.thisTrialN,training.thisN,training.thisIndex,training.ran,LTriangleOpac,LCircleOpac,LHexagonOpac,LStarOpac,RTriangleOpac,RCircleOpac,RHexagonOpac,RStarOpac,LShape_ID,RShape_ID,curr_topStim,curr_bottStim,curr_shape,acc,E1,target_resp_prac1.keys,target_resp_prac1.rt,pracBlock,task1_prac_trials.thisRepN,task1_prac_trials.thisTrialN,task1_prac_trials.thisN,task1_prac_trials.thisIndex,task1_prac_trials.ran,target_resp_prac2.keys,target_resp_prac2.rt,task2_praac_trials.thisRepN,task2_praac_trials.thisTrialN,task2_praac_trials.thisN,task2_praac_trials.thisIndex,task2_praac_trials.ran,alt,task,condition,target_resp.keys,target_resp.rt,rewCond,vts_practice_trials.thisRepN,vts_practice_trials.thisTrialN,vts_practice_trials.thisN,vts_practice_trials.thisIndex,vts_practice_trials.ran,blockNum,trials_norew.thisRepN,trials_norew.thisTrialN,trials_norew.thisN,trials_norew.thisIndex,trials_norew.ran,key_resp_2.keys,key_resp_2.rt,rewExpectancy,trials_rew.thisRepN,trials_rew.thisTrialN,trials_rew.thisN,trials_rew.thisIndex,trials_rew.ran,Q1,Q2,Q2_text,Q3,Q4,Q5,Q5_text,xRes,yRes
296680,2022-11-29_11h32.37.949,vts_reward_expectancy_bt,2022.2.4,MacIntel,29.41176471,Safari,1440,900,,,,,,,,,,,,,,,,,,,,,,,,,,,,,,,,,,,,,,,,,,,,,,,,,,,,,,,,,,,,,,,,,,,,,,,,,,,,
296680,2022-11-29_11h32.37.949,vts_reward_expectancy_bt,2022.2.4,MacIntel,29.41176471,Safari,1440,900,space,11.934,,,,,,,,,,,,,,,,,,,,,,,,,,,,,,,,,,,,,,,,,,,,,,,,,,,,,,,,,,,,,,,,,,,,,,,,,,
296680,2022-11-29_11h32.37.949,vts_reward_expectancy_bt,2022.2.4,MacIntel,29.41176471,Safari,1440,900,,,,,,,,,,,,,,,,,,,,,,,,,,,,,,,,,,,,,,,,,,,,,,,,,,,,,,,,,,,,,,,,,,,,,,,,,,,,
296680,2022-11-29_11h32.37.949,vts_reward_expectancy_bt,2022.2.4,MacIntel,29.41176471,Safari,1440,900,,,l,3.065,10,10,0,0,0,0,9,1,0,0,0,1,1,0,0,0,star,triangle,,,,,,,,,,,,,,,,,,,,,,,,,,,,,,,,,,,,,,,,,,,,,,,,,,,,,,
296680,2022-11-29_11h32.37.949,vts_reward_expectancy_bt,2022.2.4,MacIntel,29.41176471,Safari,1440,900,,,a,0.995,10,20,0,0,1,1,2,1,1,0,0,0,0,0,0,1,triangle,star,,,,,,,,,,,,,,,,,,,,,,,,,,,,,,,,,,,,,,,,,,,,,,,,,,,,,,
296680,2022-11-29_11h32.37.949,vts_reward_expectancy_bt,2022.2.4,MacIntel,29.41176471,Safari,1440,900,,,l,1.261,10,30,0,0,2,2,4,1,0,1,0,0,0,0,1,0,circle,hexagon,,,,,,,,,,,,,,,,,,,,,,,,,,,,,,,,,,,,,,,,,,,,,,,,,,,,,,
296680,2022-11-29_11h32.37.949,vts_reward_expectancy_bt,2022.2.4,MacIntel,29.41176471,Safari,1440,900,,,l,1.462,10,40,0,0,3,3,10,1,0,0,0,1,0,1,0,0,star ,circle,,,,,,,,,,,,,,,,,,,,,,,,,,,,,,,,,,,,,,,,,,,,,,,,,,,,,,
296680,2022-11-29_11h32.37.949,vts_reward_expectancy_bt,2022.2.4,MacIntel,29.41176471,Safari,1440,900,,,l,1.297,10,50,0,0,4,4,0,1,1,0,0,0,0,1,0,0,triangle,circle,,,,,,,,,,,,,,,,,,,,,,,,,,,,,,,,,,,,,,,,,,,,,,,,,,,,,,
296680,2022-11-29_11h32.37.949,vts_reward_expectancy_bt,2022.2.4,MacIntel,29.41176471,Safari,1440,900,,,a,0.458,10,60,0,0,5,5,11,1,0,0,0,1,0,0,1,0,star,hexagon,,,,,,,,,,,,,,,,,,,,,,,,,,,,,,,,,,,,,,,,,,,,,,,,,,,,,,
296680,2022-11-29_11h32.37.949,vts_reward_expectancy_bt,2022.2.4,MacIntel,29.41176471,Safari,1440,900,,,l,0.314,10,70,0,0,6,6,8,1,0,0,1,0,0,0,0,1,hexagon,star,,,,,,,,,,,,,,,,,,,,,,,,,,,,,,,,,,,,,,,,,,,,,,,,,,,,,,
296680,2022-11-29_11h32.37.949,vts_reward_expectancy_bt,2022.2.4,MacIntel,29.41176471,Safari,1440,900,,,a,0.328,10,80,0,0,7,7,5,1,0,1,0,0,0,0,0,1,circle,star,,,,,,,,,,,,,,,,,,,,,,,,,,,,,,,,,,,,,,,,,,,,,,,,,,,,,,
296680,2022-11-29_11h32.37.949,vts_reward_expectancy_bt,2022.2.4,MacIntel,29.41176471,Safari,1440,900,,,l,0.115,10,90,0,0,8,8,1,1,1,0,0,0,0,0,1,0,triangle,hexagon,,,,,,,,,,,,,,,,,,,,,,,,,,,,,,,,,,,,,,,,,,,,,,,,,,,,,,
296680,2022-11-29_11h32.37.949,vts_reward_expectancy_bt,2022.2.4,MacIntel,29.41176471,Safari,1440,900,,,l,0.183,10,100,0,0,9,9,6,1,0,0,1,0,1,0,0,0,hexagon,triangle,,,,,,,,,,,,,,,,,,,,,,,,,,,,,,,,,,,,,,,,,,,,,,,,,,,,,,
296680,2022-11-29_11h32.37.949,vts_reward_expectancy_bt,2022.2.4,MacIntel,29.41176471,Safari,1440,900,,,l,0.278,1,101,0,0,10,10,7,1,0,0,1,0,0,1,0,0,hexagon,circle,,,,,,,,,,,,,,,,,,,,,,,,,,,,,,,,,,,,,,,,,,,,,,,,,,,,,,
296680,2022-11-29_11h32.37.949,vts_reward_expectancy_bt,2022.2.4,MacIntel,29.41176471,Safari,1440,900,,,a,0.385,10,111,0,0,11,11,3,1,0,1,0,0,1,0,0,0,circle,triangle,,,,,,,,,,,,,,,,,,,,,,,,,,,,,,,,,,,,,,,,,,,,,,,,,,,,,,
296680,2022-11-29_11h32.37.949,vts_reward_expectancy_bt,2022.2.4,MacIntel,29.41176471,Safari,1440,900,,,l,0.514,1,112,0,1,0,12,4,1,0,1,0,0,0,0,1,0,circle,hexagon,,,,,,,,,,,,,,,,,,,,,,,,,,,,,,,,,,,,,,,,,,,,,,,,,,,,,,
296680,2022-11-29_11h32.37.949,vts_reward_expectancy_bt,2022.2.4,MacIntel,29.41176471,Safari,1440,900,,,l,0.284,10,122,0,1,1,13,9,1,0,0,0,1,1,0,0,0,star,triangle,,,,,,,,,,,,,,,,,,,,,,,,,,,,,,,,,,,,,,,,,,,,,,,,,,,,,,
296680,2022-11-29_11h32.37.949,vts_reward_expectancy_bt,2022.2.4,MacIntel,29.41176471,Safari,1440,900,,,l,0.279,10,132,0,1,2,14,5,1,0,1,0,0,0,0,0,1,circle,star,,,,,,,,,,,,,,,,,,,,,,,,,,,,,,,,,,,,,,,,,,,,,,,,,,,,,,
296680,2022-11-29_11h32.37.949,vts_reward_expectancy_bt,2022.2.4,MacIntel,29.41176471,Safari,1440,900,,,a,0.304,1,133,0,1,3,15,7,1,0,0,1,0,0,1,0,0,hexagon,circle,,,,,,,,,,,,,,,,,,,,,,,,,,,,,,,,,,,,,,,,,,,,,,,,,,,,,,
296680,2022-11-29_11h32.37.949,vts_reward_expectancy_bt,2022.2.4,MacIntel,29.41176471,Safari,1440,900,,,a,0.82,10,143,0,1,4,16,2,1,1,0,0,0,0,0,0,1,triangle,star,,,,,,,,,,,,,,,,,,,,,,,,,,,,,,,,,,,,,,,,,,,,,,,,,,,,,,
296680,2022-11-29_11h32.37.949,vts_reward_expectancy_bt,2022.2.4,MacIntel,29.41176471,Safari,1440,900,,,l,0.831,10,153,0,1,5,17,8,1,0,0,1,0,0,0,0,1,hexagon,star,,,,,,,,,,,,,,,,,,,,,,,,,,,,,,,,,,,,,,,,,,,,,,,,,,,,,,
296680,2022-11-29_11h32.37.949,vts_reward_expectancy_bt,2022.2.4,MacIntel,29.41176471,Safari,1440,900,,,a,0.616,10,163,0,1,6,18,10,1,0,0,0,1,0,1,0,0,star ,circle,,,,,,,,,,,,,,,,,,,,,,,,,,,,,,,,,,,,,,,,,,,,,,,,,,,,,,
296680,2022-11-29_11h32.37.949,vts_reward_expectancy_bt,2022.2.4,MacIntel,29.41176471,Safari,1440,900,,,a,0.73,10,173,0,1,7,19,3,1,0,1,0,0,1,0,0,0,circle,triangle,,,,,,,,,,,,,,,,,,,,,,,,,,,,,,,,,,,,,,,,,,,,,,,,,,,,,,
296680,2022-11-29_11h32.37.949,vts_reward_expectancy_bt,2022.2.4,MacIntel,29.41176471,Safari,1440,900,,,a,1.518,1,174,0,1,8,20,1,1,1,0,0,0,0,0,1,0,triangle,hexagon,,,,,,,,,,,,,,,,,,,,,,,,,,,,,,,,,,,,,,,,,,,,,,,,,,,,,,
296680,2022-11-29_11h32.37.949,vts_reward_expectancy_bt,2022.2.4,MacIntel,29.41176471,Safari,1440,900,,,l,0.954,10,184,0,1,9,21,0,1,1,0,0,0,0,1,0,0,triangle,circle,,,,,,,,,,,,,,,,,,,,,,,,,,,,,,,,,,,,,,,,,,,,,,,,,,,,,,
296680,2022-11-29_11h32.37.949,vts_reward_expectancy_bt,2022.2.4,MacIntel,29.41176471,Safari,1440,900,,,l,0.689,1,185,0,1,10,22,11,1,0,0,0,1,0,0,1,0,star,hexagon,,,,,,,,,,,,,,,,,,,,,,,,,,,,,,,,,,,,,,,,,,,,,,,,,,,,,,
296680,2022-11-29_11h32.37.949,vts_reward_expectancy_bt,2022.2.4,MacIntel,29.41176471,Safari,1440,900,,,a,0.987,1,186,0,1,11,23,6,1,0,0,1,0,1,0,0,0,hexagon,triangle,,,,,,,,,,,,,,,,,,,,,,,,,,,,,,,,,,,,,,,,,,,,,,,,,,,,,,
296680,2022-11-29_11h32.37.949,vts_reward_expectancy_bt,2022.2.4,MacIntel,29.41176471,Safari,1440,900,,,l,0.514,1,187,0,2,0,24,5,1,0,1,0,0,0,0,0,1,circle,star,,,,,,,,,,,,,,,,,,,,,,,,,,,,,,,,,,,,,,,,,,,,,,,,,,,,,,
296680,2022-11-29_11h32.37.949,vts_reward_expectancy_bt,2022.2.4,MacIntel,29.41176471,Safari,1440,900,,,a,0.563,1,188,0,2,1,25,10,1,0,0,0,1,0,1,0,0,star ,circle,,,,,,,,,,,,,,,,,,,,,,,,,,,,,,,,,,,,,,,,,,,,,,,,,,,,,,
296680,2022-11-29_11h32.37.949,vts_reward_expectancy_bt,2022.2.4,MacIntel,29.41176471,Safari,1440,900,,,l,0.719,1,189,0,2,2,26,0,1,1,0,0,0,0,1,0,0,triangle,circle,,,,,,,,,,,,,,,,,,,,,,,,,,,,,,,,,,,,,,,,,,,,,,,,,,,,,,
296680,2022-11-29_11h32.37.949,vts_reward_expectancy_bt,2022.2.4,MacIntel,29.41176471,Safari,1440,900,,,a,0.897,10,199,0,2,3,27,11,1,0,0,0,1,0,0,1,0,star,hexagon,,,,,,,,,,,,,,,,,,,,,,,,,,,,,,,,,,,,,,,,,,,,,,,,,,,,,,
296680,2022-11-29_11h32.37.949,vts_reward_expectancy_bt,2022.2.4,MacIntel,29.41176471,Safari,1440,900,,,a,1.483,1,200,0,2,4,28,3,1,0,1,0,0,1,0,0,0,circle,triangle,,,,,,,,,,,,,,,,,,,,,,,,,,,,,,,,,,,,,,,,,,,,,,,,,,,,,,
296680,2022-11-29_11h32.37.949,vts_reward_expectancy_bt,2022.2.4,MacIntel,29.41176471,Safari,1440,900,,,l,1.071,1,201,0,2,5,29,6,1,0,0,1,0,1,0,0,0,hexagon,triangle,,,,,,,,,,,,,,,,,,,,,,,,,,,,,,,,,,,,,,,,,,,,,,,,,,,,,,
296680,2022-11-29_11h32.37.949,vts_reward_expectancy_bt,2022.2.4,MacIntel,29.41176471,Safari,1440,900,,,l,0.781,10,211,0,2,6,30,1,1,1,0,0,0,0,0,1,0,triangle,hexagon,,,,,,,,,,,,,,,,,,,,,,,,,,,,,,,,,,,,,,,,,,,,,,,,,,,,,,
296680,2022-11-29_11h32.37.949,vts_reward_expectancy_bt,2022.2.4,MacIntel,29.41176471,Safari,1440,900,,,a,0.386,10,221,0,2,7,31,2,1,1,0,0,0,0,0,0,1,triangle,star,,,,,,,,,,,,,,,,,,,,,,,,,,,,,,,,,,,,,,,,,,,,,,,,,,,,,,
296680,2022-11-29_11h32.37.949,vts_reward_expectancy_bt,2022.2.4,MacIntel,29.41176471,Safari,1440,900,,,l,0.748,1,222,0,2,8,32,4,1,0,1,0,0,0,0,1,0,circle,hexagon,,,,,,,,,,,,,,,,,,,,,,,,,,,,,,,,,,,,,,,,,,,,,,,,,,,,,,
296680,2022-11-29_11h32.37.949,vts_reward_expectancy_bt,2022.2.4,MacIntel,29.41176471,Safari,1440,900,,,l,0.657,1,223,0,2,9,33,7,1,0,0,1,0,0,1,0,0,hexagon,circle,,,,,,,,,,,,,,,,,,,,,,,,,,,,,,,,,,,,,,,,,,,,,,,,,,,,,,
296680,2022-11-29_11h32.37.949,vts_reward_expectancy_bt,2022.2.4,MacIntel,29.41176471,Safari,1440,900,,,l,0.751,1,224,0,2,10,34,8,1,0,0,1,0,0,0,0,1,hexagon,star,,,,,,,,,,,,,,,,,,,,,,,,,,,,,,,,,,,,,,,,,,,,,,,,,,,,,,
296680,2022-11-29_11h32.37.949,vts_reward_expectancy_bt,2022.2.4,MacIntel,29.41176471,Safari,1440,900,,,a,0.365,10,234,0,2,11,35,9,1,0,0,0,1,1,0,0,0,star,triangle,,,,,,,,,,,,,,,,,,,,,,,,,,,,,,,,,,,,,,,,,,,,,,,,,,,,,,
296680,2022-11-29_11h32.37.949,vts_reward_expectancy_bt,2022.2.4,MacIntel,29.41176471,Safari,1440,900,,,l,1.491,10,244,1,0,0,0,5,1,0,1,0,0,0,0,0,1,circle,star,,,,,,,,,,,,,,,,,,,,,,,,,,,,,,,,,,,,,,,,,,,,,,,,,,,,,,
296680,2022-11-29_11h32.37.949,vts_reward_expectancy_bt,2022.2.4,MacIntel,29.41176471,Safari,1440,900,,,l,0.623,10,254,1,0,1,1,10,1,0,0,0,1,0,1,0,0,star ,circle,,,,,,,,,,,,,,,,,,,,,,,,,,,,,,,,,,,,,,,,,,,,,,,,,,,,,,
296680,2022-11-29_11h32.37.949,vts_reward_expectancy_bt,2022.2.4,MacIntel,29.41176471,Safari,1440,900,,,a,0.33,1,255,1,0,2,2,4,1,0,1,0,0,0,0,1,0,circle,hexagon,,,,,,,,,,,,,,,,,,,,,,,,,,,,,,,,,,,,,,,,,,,,,,,,,,,,,,
296680,2022-11-29_11h32.37.949,vts_reward_expectancy_bt,2022.2.4,MacIntel,29.41176471,Safari,1440,900,,,l,0.291,1,256,1,0,3,3,1,1,1,0,0,0,0,0,1,0,triangle,hexagon,,,,,,,,,,,,,,,,,,,,,,,,,,,,,,,,,,,,,,,,,,,,,,,,,,,,,,
296680,2022-11-29_11h32.37.949,vts_reward_expectancy_bt,2022.2.4,MacIntel,29.41176471,Safari,1440,900,,,l,0.487,10,266,1,0,4,4,2,1,1,0,0,0,0,0,0,1,triangle,star,,,,,,,,,,,,,,,,,,,,,,,,,,,,,,,,,,,,,,,,,,,,,,,,,,,,,,
296680,2022-11-29_11h32.37.949,vts_reward_expectancy_bt,2022.2.4,MacIntel,29.41176471,Safari,1440,900,,,a,0.455,1,267,1,0,5,5,8,1,0,0,1,0,0,0,0,1,hexagon,star,,,,,,,,,,,,,,,,,,,,,,,,,,,,,,,,,,,,,,,,,,,,,,,,,,,,,,
296680,2022-11-29_11h32.37.949,vts_reward_expectancy_bt,2022.2.4,MacIntel,29.41176471,Safari,1440,900,,,a,0.583,1,268,1,0,6,6,7,1,0,0,1,0,0,1,0,0,hexagon,circle,,,,,,,,,,,,,,,,,,,,,,,,,,,,,,,,,,,,,,,,,,,,,,,,,,,,,,
296680,2022-11-29_11h32.37.949,vts_reward_expectancy_bt,2022.2.4,MacIntel,29.41176471,Safari,1440,900,,,a,0.702,1,269,1,0,7,7,3,1,0,1,0,0,1,0,0,0,circle,triangle,,,,,,,,,,,,,,,,,,,,,,,,,,,,,,,,,,,,,,,,,,,,,,,,,,,,,,
296680,2022-11-29_11h32.37.949,vts_reward_expectancy_bt,2022.2.4,MacIntel,29.41176471,Safari,1440,900,,,a,0.73,1,270,1,0,8,8,11,1,0,0,0,1,0,0,1,0,star,hexagon,,,,,,,,,,,,,,,,,,,,,,,,,,,,,,,,,,,,,,,,,,,,,,,,,,,,,,
296680,2022-11-29_11h32.37.949,vts_reward_expectancy_bt,2022.2.4,MacIntel,29.41176471,Safari,1440,900,,,l,0.346,10,280,1,0,9,9,0,1,1,0,0,0,0,1,0,0,triangle,circle,,,,,,,,,,,,,,,,,,,,,,,,,,,,,,,,,,,,,,,,,,,,,,,,,,,,,,
296680,2022-11-29_11h32.37.949,vts_reward_expectancy_bt,2022.2.4,MacIntel,29.41176471,Safari,1440,900,,,a,0.283,1,281,1,0,10,10,9,1,0,0,0,1,1,0,0,0,star,triangle,,,,,,,,,,,,,,,,,,,,,,,,,,,,,,,,,,,,,,,,,,,,,,,,,,,,,,
296680,2022-11-29_11h32.37.949,vts_reward_expectancy_bt,2022.2.4,MacIntel,29.41176471,Safari,1440,900,,,l,0.27,1,282,1,0,11,11,6,1,0,0,1,0,1,0,0,0,hexagon,triangle,,,,,,,,,,,,,,,,,,,,,,,,,,,,,,,,,,,,,,,,,,,,,,,,,,,,,,
296680,2022-11-29_11h32.37.949,vts_reward_expectancy_bt,2022.2.4,MacIntel,29.41176471,Safari,1440,900,,,a,0.331,1,283,1,1,0,12,7,1,0,0,1,0,0,1,0,0,hexagon,circle,,,,,,,,,,,,,,,,,,,,,,,,,,,,,,,,,,,,,,,,,,,,,,,,,,,,,,
296680,2022-11-29_11h32.37.949,vts_reward_expectancy_bt,2022.2.4,MacIntel,29.41176471,Safari,1440,900,,,a,0.865,1,284,1,1,1,13,11,1,0,0,0,1,0,0,1,0,star,hexagon,,,,,,,,,,,,,,,,,,,,,,,,,,,,,,,,,,,,,,,,,,,,,,,,,,,,,,
296680,2022-11-29_11h32.37.949,vts_reward_expectancy_bt,2022.2.4,MacIntel,29.41176471,Safari,1440,900,,,l,0.289,1,285,1,1,2,14,8,1,0,0,1,0,0,0,0,1,hexagon,star,,,,,,,,,,,,,,,,,,,,,,,,,,,,,,,,,,,,,,,,,,,,,,,,,,,,,,
296680,2022-11-29_11h32.37.949,vts_reward_expectancy_bt,2022.2.4,MacIntel,29.41176471,Safari,1440,900,,,l,0.292,10,295,1,1,3,15,9,1,0,0,0,1,1,0,0,0,star,triangle,,,,,,,,,,,,,,,,,,,,,,,,,,,,,,,,,,,,,,,,,,,,,,,,,,,,,,
296680,2022-11-29_11h32.37.949,vts_reward_expectancy_bt,2022.2.4,MacIntel,29.41176471,Safari,1440,900,,,l,0.315,10,305,1,1,4,16,3,1,0,1,0,0,1,0,0,0,circle,triangle,,,,,,,,,,,,,,,,,,,,,,,,,,,,,,,,,,,,,,,,,,,,,,,,,,,,,,
296680,2022-11-29_11h32.37.949,vts_reward_expectancy_bt,2022.2.4,MacIntel,29.41176471,Safari,1440,900,,,l,0.348,10,315,1,1,5,17,10,1,0,0,0,1,0,1,0,0,star ,circle,,,,,,,,,,,,,,,,,,,,,,,,,,,,,,,,,,,,,,,,,,,,,,,,,,,,,,
296680,2022-11-29_11h32.37.949,vts_reward_expectancy_bt,2022.2.4,MacIntel,29.41176471,Safari,1440,900,,,a,0.28,10,325,1,1,6,18,5,1,0,1,0,0,0,0,0,1,circle,star,,,,,,,,,,,,,,,,,,,,,,,,,,,,,,,,,,,,,,,,,,,,,,,,,,,,,,
296680,2022-11-29_11h32.37.949,vts_reward_expectancy_bt,2022.2.4,MacIntel,29.41176471,Safari,1440,900,,,l,0.685,1,326,1,1,7,19,2,1,1,0,0,0,0,0,0,1,triangle,star,,,,,,,,,,,,,,,,,,,,,,,,,,,,,,,,,,,,,,,,,,,,,,,,,,,,,,
296680,2022-11-29_11h32.37.949,vts_reward_expectancy_bt,2022.2.4,MacIntel,29.41176471,Safari,1440,900,,,a,0.321,1,327,1,1,8,20,1,1,1,0,0,0,0,0,1,0,triangle,hexagon,,,,,,,,,,,,,,,,,,,,,,,,,,,,,,,,,,,,,,,,,,,,,,,,,,,,,,
296680,2022-11-29_11h32.37.949,vts_reward_expectancy_bt,2022.2.4,MacIntel,29.41176471,Safari,1440,900,,,a,0.365,1,328,1,1,9,21,6,1,0,0,1,0,1,0,0,0,hexagon,triangle,,,,,,,,,,,,,,,,,,,,,,,,,,,,,,,,,,,,,,,,,,,,,,,,,,,,,,
296680,2022-11-29_11h32.37.949,vts_reward_expectancy_bt,2022.2.4,MacIntel,29.41176471,Safari,1440,900,,,a,0.324,10,338,1,1,10,22,4,1,0,1,0,0,0,0,1,0,circle,hexagon,,,,,,,,,,,,,,,,,,,,,,,,,,,,,,,,,,,,,,,,,,,,,,,,,,,,,,
296680,2022-11-29_11h32.37.949,vts_reward_expectancy_bt,2022.2.4,MacIntel,29.41176471,Safari,1440,900,,,a,0.415,10,348,1,1,11,23,0,1,1,0,0,0,0,1,0,0,triangle,circle,,,,,,,,,,,,,,,,,,,,,,,,,,,,,,,,,,,,,,,,,,,,,,,,,,,,,,
296680,2022-11-29_11h32.37.949,vts_reward_expectancy_bt,2022.2.4,MacIntel,29.41176471,Safari,1440,900,,,a,0.317,10,358,1,2,0,24,10,1,0,0,0,1,0,1,0,0,star ,circle,,,,,,,,,,,,,,,,,,,,,,,,,,,,,,,,,,,,,,,,,,,,,,,,,,,,,,
296680,2022-11-29_11h32.37.949,vts_reward_expectancy_bt,2022.2.4,MacIntel,29.41176471,Safari,1440,900,,,l,0.49,10,368,1,2,1,25,7,1,0,0,1,0,0,1,0,0,hexagon,circle,,,,,,,,,,,,,,,,,,,,,,,,,,,,,,,,,,,,,,,,,,,,,,,,,,,,,,
296680,2022-11-29_11h32.37.949,vts_reward_expectancy_bt,2022.2.4,MacIntel,29.41176471,Safari,1440,900,,,l,0.533,1,369,1,2,2,26,11,1,0,0,0,1,0,0,1,0,star,hexagon,,,,,,,,,,,,,,,,,,,,,,,,,,,,,,,,,,,,,,,,,,,,,,,,,,,,,,
296680,2022-11-29_11h32.37.949,vts_reward_expectancy_bt,2022.2.4,MacIntel,29.41176471,Safari,1440,900,,,a,0.192,1,370,1,2,3,27,1,1,1,0,0,0,0,0,1,0,triangle,hexagon,,,,,,,,,,,,,,,,,,,,,,,,,,,,,,,,,,,,,,,,,,,,,,,,,,,,,,
296680,2022-11-29_11h32.37.949,vts_reward_expectancy_bt,2022.2.4,MacIntel,29.41176471,Safari,1440,900,,,l,0.233,10,380,1,2,4,28,4,1,0,1,0,0,0,0,1,0,circle,hexagon,,,,,,,,,,,,,,,,,,,,,,,,,,,,,,,,,,,,,,,,,,,,,,,,,,,,,,
296680,2022-11-29_11h32.37.949,vts_reward_expectancy_bt,2022.2.4,MacIntel,29.41176471,Safari,1440,900,,,l,0.507,10,390,1,2,5,29,8,1,0,0,1,0,0,0,0,1,hexagon,star,,,,,,,,,,,,,,,,,,,,,,,,,,,,,,,,,,,,,,,,,,,,,,,,,,,,,,
296680,2022-11-29_11h32.37.949,vts_reward_expectancy_bt,2022.2.4,MacIntel,29.41176471,Safari,1440,900,,,l,0.552,1,391,1,2,6,30,5,1,0,1,0,0,0,0,0,1,circle,star,,,,,,,,,,,,,,,,,,,,,,,,,,,,,,,,,,,,,,,,,,,,,,,,,,,,,,
296680,2022-11-29_11h32.37.949,vts_reward_expectancy_bt,2022.2.4,MacIntel,29.41176471,Safari,1440,900,,,a,0.403,1,392,1,2,7,31,3,1,0,1,0,0,1,0,0,0,circle,triangle,,,,,,,,,,,,,,,,,,,,,,,,,,,,,,,,,,,,,,,,,,,,,,,,,,,,,,
296680,2022-11-29_11h32.37.949,vts_reward_expectancy_bt,2022.2.4,MacIntel,29.41176471,Safari,1440,900,,,l,0.388,10,402,1,2,8,32,9,1,0,0,0,1,1,0,0,0,star,triangle,,,,,,,,,,,,,,,,,,,,,,,,,,,,,,,,,,,,,,,,,,,,,,,,,,,,,,
296680,2022-11-29_11h32.37.949,vts_reward_expectancy_bt,2022.2.4,MacIntel,29.41176471,Safari,1440,900,,,a,0.388,10,412,1,2,9,33,0,1,1,0,0,0,0,1,0,0,triangle,circle,,,,,,,,,,,,,,,,,,,,,,,,,,,,,,,,,,,,,,,,,,,,,,,,,,,,,,
296680,2022-11-29_11h32.37.949,vts_reward_expectancy_bt,2022.2.4,MacIntel,29.41176471,Safari,1440,900,,,a,0.349,10,422,1,2,10,34,6,1,0,0,1,0,1,0,0,0,hexagon,triangle,,,,,,,,,,,,,,,,,,,,,,,,,,,,,,,,,,,,,,,,,,,,,,,,,,,,,,
296680,2022-11-29_11h32.37.949,vts_reward_expectancy_bt,2022.2.4,MacIntel,29.41176471,Safari,1440,900,,,l,0.315,10,432,1,2,11,35,2,1,1,0,0,0,0,0,0,1,triangle,star,,,,,,,,,,,,,,,,,,,,,,,,,,,,,,,,,,,,,,,,,,,,,,,,,,,,,,
296680,2022-11-29_11h32.37.949,vts_reward_expectancy_bt,2022.2.4,MacIntel,29.41176471,Safari,1440,900,,,a,2.28,10,442,2,0,0,0,3,1,0,1,0,0,1,0,0,0,circle,triangle,,,,,,,,,,,,,,,,,,,,,,,,,,,,,,,,,,,,,,,,,,,,,,,,,,,,,,
296680,2022-11-29_11h32.37.949,vts_reward_expectancy_bt,2022.2.4,MacIntel,29.41176471,Safari,1440,900,,,a,0.797,10,452,2,0,1,1,9,1,0,0,0,1,1,0,0,0,star,triangle,,,,,,,,,,,,,,,,,,,,,,,,,,,,,,,,,,,,,,,,,,,,,,,,,,,,,,
296680,2022-11-29_11h32.37.949,vts_reward_expectancy_bt,2022.2.4,MacIntel,29.41176471,Safari,1440,900,,,l,0.282,10,462,2,0,2,2,10,1,0,0,0,1,0,1,0,0,star ,circle,,,,,,,,,,,,,,,,,,,,,,,,,,,,,,,,,,,,,,,,,,,,,,,,,,,,,,
296680,2022-11-29_11h32.37.949,vts_reward_expectancy_bt,2022.2.4,MacIntel,29.41176471,Safari,1440,900,,,a,0.111,10,472,2,0,3,3,2,1,1,0,0,0,0,0,0,1,triangle,star,,,,,,,,,,,,,,,,,,,,,,,,,,,,,,,,,,,,,,,,,,,,,,,,,,,,,,
296680,2022-11-29_11h32.37.949,vts_reward_expectancy_bt,2022.2.4,MacIntel,29.41176471,Safari,1440,900,,,a,0.302,10,482,2,0,4,4,6,1,0,0,1,0,1,0,0,0,hexagon,triangle,,,,,,,,,,,,,,,,,,,,,,,,,,,,,,,,,,,,,,,,,,,,,,,,,,,,,,
296680,2022-11-29_11h32.37.949,vts_reward_expectancy_bt,2022.2.4,MacIntel,29.41176471,Safari,1440,900,,,l,0.27,10,492,2,0,5,5,7,1,0,0,1,0,0,1,0,0,hexagon,circle,,,,,,,,,,,,,,,,,,,,,,,,,,,,,,,,,,,,,,,,,,,,,,,,,,,,,,
296680,2022-11-29_11h32.37.949,vts_reward_expectancy_bt,2022.2.4,MacIntel,29.41176471,Safari,1440,900,,,a,0.201,1,493,2,0,6,6,4,1,0,1,0,0,0,0,1,0,circle,hexagon,,,,,,,,,,,,,,,,,,,,,,,,,,,,,,,,,,,,,,,,,,,,,,,,,,,,,,
296680,2022-11-29_11h32.37.949,vts_reward_expectancy_bt,2022.2.4,MacIntel,29.41176471,Safari,1440,900,,,l,0.159,1,494,2,0,7,7,5,1,0,1,0,0,0,0,0,1,circle,star,,,,,,,,,,,,,,,,,,,,,,,,,,,,,,,,,,,,,,,,,,,,,,,,,,,,,,
296680,2022-11-29_11h32.37.949,vts_reward_expectancy_bt,2022.2.4,MacIntel,29.41176471,Safari,1440,900,,,l,0.116,1,495,2,0,8,8,1,1,1,0,0,0,0,0,1,0,triangle,hexagon,,,,,,,,,,,,,,,,,,,,,,,,,,,,,,,,,,,,,,,,,,,,,,,,,,,,,,
296680,2022-11-29_11h32.37.949,vts_reward_expectancy_bt,2022.2.4,MacIntel,29.41176471,Safari,1440,900,,,a,0.232,1,496,2,0,9,9,8,1,0,0,1,0,0,0,0,1,hexagon,star,,,,,,,,,,,,,,,,,,,,,,,,,,,,,,,,,,,,,,,,,,,,,,,,,,,,,,
296680,2022-11-29_11h32.37.949,vts_reward_expectancy_bt,2022.2.4,MacIntel,29.41176471,Safari,1440,900,,,l,0.331,1,497,2,0,10,10,11,1,0,0,0,1,0,0,1,0,star,hexagon,,,,,,,,,,,,,,,,,,,,,,,,,,,,,,,,,,,,,,,,,,,,,,,,,,,,,,
296680,2022-11-29_11h32.37.949,vts_reward_expectancy_bt,2022.2.4,MacIntel,29.41176471,Safari,1440,900,,,a,0.049,10,507,2,0,11,11,0,1,1,0,0,0,0,1,0,0,triangle,circle,,,,,,,,,,,,,,,,,,,,,,,,,,,,,,,,,,,,,,,,,,,,,,,,,,,,,,
296680,2022-11-29_11h32.37.949,vts_reward_expectancy_bt,2022.2.4,MacIntel,29.41176471,Safari,1440,900,,,a,0.348,1,508,2,1,0,12,1,1,1,0,0,0,0,0,1,0,triangle,hexagon,,,,,,,,,,,,,,,,,,,,,,,,,,,,,,,,,,,,,,,,,,,,,,,,,,,,,,
296680,2022-11-29_11h32.37.949,vts_reward_expectancy_bt,2022.2.4,MacIntel,29.41176471,Safari,1440,900,,,a,1.426,10,518,2,1,1,13,6,1,0,0,1,0,1,0,0,0,hexagon,triangle,,,,,,,,,,,,,,,,,,,,,,,,,,,,,,,,,,,,,,,,,,,,,,,,,,,,,,
296680,2022-11-29_11h32.37.949,vts_reward_expectancy_bt,2022.2.4,MacIntel,29.41176471,Safari,1440,900,,,l,0.515,1,519,2,1,2,14,5,1,0,1,0,0,0,0,0,1,circle,star,,,,,,,,,,,,,,,,,,,,,,,,,,,,,,,,,,,,,,,,,,,,,,,,,,,,,,
296680,2022-11-29_11h32.37.949,vts_reward_expectancy_bt,2022.2.4,MacIntel,29.41176471,Safari,1440,900,,,l,0.549,1,520,2,1,3,15,0,1,1,0,0,0,0,1,0,0,triangle,circle,,,,,,,,,,,,,,,,,,,,,,,,,,,,,,,,,,,,,,,,,,,,,,,,,,,,,,
296680,2022-11-29_11h32.37.949,vts_reward_expectancy_bt,2022.2.4,MacIntel,29.41176471,Safari,1440,900,,,a,1.467,10,530,2,1,4,16,8,1,0,0,1,0,0,0,0,1,hexagon,star,,,,,,,,,,,,,,,,,,,,,,,,,,,,,,,,,,,,,,,,,,,,,,,,,,,,,,
296680,2022-11-29_11h32.37.949,vts_reward_expectancy_bt,2022.2.4,MacIntel,29.41176471,Safari,1440,900,,,l,1.417,1,531,2,1,5,17,4,1,0,1,0,0,0,0,1,0,circle,hexagon,,,,,,,,,,,,,,,,,,,,,,,,,,,,,,,,,,,,,,,,,,,,,,,,,,,,,,
296680,2022-11-29_11h32.37.949,vts_reward_expectancy_bt,2022.2.4,MacIntel,29.41176471,Safari,1440,900,,,a,0.965,10,541,2,1,6,18,3,1,0,1,0,0,1,0,0,0,circle,triangle,,,,,,,,,,,,,,,,,,,,,,,,,,,,,,,,,,,,,,,,,,,,,,,,,,,,,,
296680,2022-11-29_11h32.37.949,vts_reward_expectancy_bt,2022.2.4,MacIntel,29.41176471,Safari,1440,900,,,l,0.631,10,551,2,1,7,19,10,1,0,0,0,1,0,1,0,0,star ,circle,,,,,,,,,,,,,,,,,,,,,,,,,,,,,,,,,,,,,,,,,,,,,,,,,,,,,,
296680,2022-11-29_11h32.37.949,vts_reward_expectancy_bt,2022.2.4,MacIntel,29.41176471,Safari,1440,900,,,l,0.831,10,561,2,1,8,20,7,1,0,0,1,0,0,1,0,0,hexagon,circle,,,,,,,,,,,,,,,,,,,,,,,,,,,,,,,,,,,,,,,,,,,,,,,,,,,,,,
296680,2022-11-29_11h32.37.949,vts_reward_expectancy_bt,2022.2.4,MacIntel,29.41176471,Safari,1440,900,,,a,0.936,1,562,2,1,9,21,2,1,1,0,0,0,0,0,0,1,triangle,star,,,,,,,,,,,,,,,,,,,,,,,,,,,,,,,,,,,,,,,,,,,,,,,,,,,,,,
296680,2022-11-29_11h32.37.949,vts_reward_expectancy_bt,2022.2.4,MacIntel,29.41176471,Safari,1440,900,,,a,0.687,1,563,2,1,10,22,9,1,0,0,0,1,1,0,0,0,star,triangle,,,,,,,,,,,,,,,,,,,,,,,,,,,,,,,,,,,,,,,,,,,,,,,,,,,,,,
296680,2022-11-29_11h32.37.949,vts_reward_expectancy_bt,2022.2.4,MacIntel,29.41176471,Safari,1440,900,,,l,0.333,1,564,2,1,11,23,11,1,0,0,0,1,0,0,1,0,star,hexagon,,,,,,,,,,,,,,,,,,,,,,,,,,,,,,,,,,,,,,,,,,,,,,,,,,,,,,
296680,2022-11-29_11h32.37.949,vts_reward_expectancy_bt,2022.2.4,MacIntel,29.41176471,Safari,1440,900,,,a,0.082,1,565,2,2,0,24,3,1,0,1,0,0,1,0,0,0,circle,triangle,,,,,,,,,,,,,,,,,,,,,,,,,,,,,,,,,,,,,,,,,,,,,,,,,,,,,,
296680,2022-11-29_11h32.37.949,vts_reward_expectancy_bt,2022.2.4,MacIntel,29.41176471,Safari,1440,900,,,l,0.03,10,575,2,2,1,25,11,1,0,0,0,1,0,0,1,0,star,hexagon,,,,,,,,,,,,,,,,,,,,,,,,,,,,,,,,,,,,,,,,,,,,,,,,,,,,,,
296680,2022-11-29_11h32.37.949,vts_reward_expectancy_bt,2022.2.4,MacIntel,29.41176471,Safari,1440,900,,,l,0.055,10,585,2,2,2,26,7,1,0,0,1,0,0,1,0,0,hexagon,circle,,,,,,,,,,,,,,,,,,,,,,,,,,,,,,,,,,,,,,,,,,,,,,,,,,,,,,
296680,2022-11-29_11h32.37.949,vts_reward_expectancy_bt,2022.2.4,MacIntel,29.41176471,Safari,1440,900,,,a,0.08,10,595,2,2,3,27,5,1,0,1,0,0,0,0,0,1,circle,star,,,,,,,,,,,,,,,,,,,,,,,,,,,,,,,,,,,,,,,,,,,,,,,,,,,,,,
296680,2022-11-29_11h32.37.949,vts_reward_expectancy_bt,2022.2.4,MacIntel,29.41176471,Safari,1440,900,,,l,0,1,596,2,2,4,28,0,1,1,0,0,0,0,1,0,0,triangle,circle,,,,,,,,,,,,,,,,,,,,,,,,,,,,,,,,,,,,,,,,,,,,,,,,,,,,,,
296680,2022-11-29_11h32.37.949,vts_reward_expectancy_bt,2022.2.4,MacIntel,29.41176471,Safari,1440,900,,,a,0.069,1,597,2,2,5,29,10,1,0,0,0,1,0,1,0,0,star ,circle,,,,,,,,,,,,,,,,,,,,,,,,,,,,,,,,,,,,,,,,,,,,,,,,,,,,,,
296680,2022-11-29_11h32.37.949,vts_reward_expectancy_bt,2022.2.4,MacIntel,29.41176471,Safari,1440,900,,,l,0.001,10,607,2,2,6,30,9,1,0,0,0,1,1,0,0,0,star,triangle,,,,,,,,,,,,,,,,,,,,,,,,,,,,,,,,,,,,,,,,,,,,,,,,,,,,,,
296680,2022-11-29_11h32.37.949,vts_reward_expectancy_bt,2022.2.4,MacIntel,29.41176471,Safari,1440,900,,,l,0.001,1,608,2,2,7,31,8,1,0,0,1,0,0,0,0,1,hexagon,star,,,,,,,,,,,,,,,,,,,,,,,,,,,,,,,,,,,,,,,,,,,,,,,,,,,,,,
296680,2022-11-29_11h32.37.949,vts_reward_expectancy_bt,2022.2.4,MacIntel,29.41176471,Safari,1440,900,,,l,0.47,10,618,2,2,8,32,4,1,0,1,0,0,0,0,1,0,circle,hexagon,,,,,,,,,,,,,,,,,,,,,,,,,,,,,,,,,,,,,,,,,,,,,,,,,,,,,,
296680,2022-11-29_11h32.37.949,vts_reward_expectancy_bt,2022.2.4,MacIntel,29.41176471,Safari,1440,900,,,a,0.438,1,619,2,2,9,33,6,1,0,0,1,0,1,0,0,0,hexagon,triangle,,,,,,,,,,,,,,,,,,,,,,,,,,,,,,,,,,,,,,,,,,,,,,,,,,,,,,
296680,2022-11-29_11h32.37.949,vts_reward_expectancy_bt,2022.2.4,MacIntel,29.41176471,Safari,1440,900,,,l,0.317,10,629,2,2,10,34,1,1,1,0,0,0,0,0,1,0,triangle,hexagon,,,,,,,,,,,,,,,,,,,,,,,,,,,,,,,,,,,,,,,,,,,,,,,,,,,,,,
296680,2022-11-29_11h32.37.949,vts_reward_expectancy_bt,2022.2.4,MacIntel,29.41176471,Safari,1440,900,,,l,0.354,10,639,2,2,11,35,2,1,1,0,0,0,0,0,0,1,triangle,star,,,,,,,,,,,,,,,,,,,,,,,,,,,,,,,,,,,,,,,,,,,,,,,,,,,,,,
296680,2022-11-29_11h32.37.949,vts_reward_expectancy_bt,2022.2.4,MacIntel,29.41176471,Safari,1440,900,,,,,,,,,,,,,,,,,,,,,,,139,F,circle,1,0,d,1.125,0,0,0,0,0,1,,,,,,,,,,,,,,,,,,,,,,,,,,,,,,,,,,,,,,,,,
296680,2022-11-29_11h32.37.949,vts_reward_expectancy_bt,2022.2.4,MacIntel,29.41176471,Safari,1440,900,,,,,,,,,,,,,,,,,,,,,,,181,W,hexagon,1,0,f,0.508,0,1,0,1,0,1,,,,,,,,,,,,,,,,,,,,,,,,,,,,,,,,,,,,,,,,,
296680,2022-11-29_11h32.37.949,vts_reward_expectancy_bt,2022.2.4,MacIntel,29.41176471,Safari,1440,900,,,,,,,,,,,,,,,,,,,,,,,125,Y,triangle,1,0,d,0.559,0,2,0,2,0,1,,,,,,,,,,,,,,,,,,,,,,,,,,,,,,,,,,,,,,,,,
296680,2022-11-29_11h32.37.949,vts_reward_expectancy_bt,2022.2.4,MacIntel,29.41176471,Safari,1440,900,,,,,,,,,,,,,,,,,,,,,,,132,H,star,1,0,d,0.672,0,3,0,3,0,1,,,,,,,,,,,,,,,,,,,,,,,,,,,,,,,,,,,,,,,,,
296680,2022-11-29_11h32.37.949,vts_reward_expectancy_bt,2022.2.4,MacIntel,29.41176471,Safari,1440,900,,,,,,,,,,,,,,,,,,,,,,,167,D,circle,1,0,f,0.634,0,4,0,4,0,1,,,,,,,,,,,,,,,,,,,,,,,,,,,,,,,,,,,,,,,,,
296680,2022-11-29_11h32.37.949,vts_reward_expectancy_bt,2022.2.4,MacIntel,29.41176471,Safari,1440,900,,,,,,,,,,,,,,,,,,,,,,,174,B,hexagon,1,0,f,0.79,0,5,0,5,0,1,,,,,,,,,,,,,,,,,,,,,,,,,,,,,,,,,,,,,,,,,
296680,2022-11-29_11h32.37.949,vts_reward_expectancy_bt,2022.2.4,MacIntel,29.41176471,Safari,1440,900,,,,,,,,,,,,,,,,,,,,,,,146,S,triangle,1,0,d,1.108,0,6,0,6,0,1,,,,,,,,,,,,,,,,,,,,,,,,,,,,,,,,,,,,,,,,,
296680,2022-11-29_11h32.37.949,vts_reward_expectancy_bt,2022.2.4,MacIntel,29.41176471,Safari,1440,900,,,,,,,,,,,,,,,,,,,,,,,160,U,star,1,0,f,0.69,0,7,0,7,0,1,,,,,,,,,,,,,,,,,,,,,,,,,,,,,,,,,,,,,,,,,
296680,2022-11-29_11h32.37.949,vts_reward_expectancy_bt,2022.2.4,MacIntel,29.41176471,Safari,1440,900,,,,,,,,,,,,,,,,,,,,,,,139,F,hexagon,1,0,d,0.716,0,8,0,8,0,1,,,,,,,,,,,,,,,,,,,,,,,,,,,,,,,,,,,,,,,,,
296680,2022-11-29_11h32.37.949,vts_reward_expectancy_bt,2022.2.4,MacIntel,29.41176471,Safari,1440,900,,,,,,,,,,,,,,,,,,,,,,,181,W,star,1,0,f,1.057,0,9,0,9,0,1,,,,,,,,,,,,,,,,,,,,,,,,,,,,,,,,,,,,,,,,,
296680,2022-11-29_11h32.37.949,vts_reward_expectancy_bt,2022.2.4,MacIntel,29.41176471,Safari,1440,900,,,,,,,,,,,,,,,,,,,,,,,139,U,hexagon,1,0,,,1,,,,,,k,0.676,0,0,0,0,1,,,,,,,,,,,,,,,,,,,,,,,,,,,,,,,,,,
296680,2022-11-29_11h32.37.949,vts_reward_expectancy_bt,2022.2.4,MacIntel,29.41176471,Safari,1440,900,,,,,,,,,,,,,,,,,,,,,,,167,D,triangle,1,0,,,1,,,,,,j,0.591,1,0,1,0,1,,,,,,,,,,,,,,,,,,,,,,,,,,,,,,,,,,
296680,2022-11-29_11h32.37.949,vts_reward_expectancy_bt,2022.2.4,MacIntel,29.41176471,Safari,1440,900,,,,,,,,,,,,,,,,,,,,,,,125,W,circle,1,0,,,1,,,,,,k,0.641,2,0,2,0,1,,,,,,,,,,,,,,,,,,,,,,,,,,,,,,,,,,
296680,2022-11-29_11h32.37.949,vts_reward_expectancy_bt,2022.2.4,MacIntel,29.41176471,Safari,1440,900,,,,,,,,,,,,,,,,,,,,,,,160,B,star,1,0,,,1,,,,,,j,0.513,3,0,3,0,1,,,,,,,,,,,,,,,,,,,,,,,,,,,,,,,,,,
296680,2022-11-29_11h32.37.949,vts_reward_expectancy_bt,2022.2.4,MacIntel,29.41176471,Safari,1440,900,,,,,,,,,,,,,,,,,,,,,,,146,H,hexagon,1,0,,,1,,,,,,j,0.808,4,0,4,0,1,,,,,,,,,,,,,,,,,,,,,,,,,,,,,,,,,,
296680,2022-11-29_11h32.37.949,vts_reward_expectancy_bt,2022.2.4,MacIntel,29.41176471,Safari,1440,900,,,,,,,,,,,,,,,,,,,,,,,174,S,triangle,1,0,,,1,,,,,,k,0.577,5,0,5,0,1,,,,,,,,,,,,,,,,,,,,,,,,,,,,,,,,,,
296680,2022-11-29_11h32.37.949,vts_reward_expectancy_bt,2022.2.4,MacIntel,29.41176471,Safari,1440,900,,,,,,,,,,,,,,,,,,,,,,,132,Y,circle,1,0,,,1,,,,,,k,0.708,6,0,6,0,1,,,,,,,,,,,,,,,,,,,,,,,,,,,,,,,,,,
296680,2022-11-29_11h32.37.949,vts_reward_expectancy_bt,2022.2.4,MacIntel,29.41176471,Safari,1440,900,,,,,,,,,,,,,,,,,,,,,,,181,F,star,1,0,,,1,,,,,,j,0.476,7,0,7,0,1,,,,,,,,,,,,,,,,,,,,,,,,,,,,,,,,,,
296680,2022-11-29_11h32.37.949,vts_reward_expectancy_bt,2022.2.4,MacIntel,29.41176471,Safari,1440,900,,,,,,,,,,,,,,,,,,,,,,,139,U,circle,1,0,,,1,,,,,,k,0.412,8,0,8,0,1,,,,,,,,,,,,,,,,,,,,,,,,,,,,,,,,,,
296680,2022-11-29_11h32.37.949,vts_reward_expectancy_bt,2022.2.4,MacIntel,29.41176471,Safari,1440,900,,,,,,,,,,,,,,,,,,,,,,,167,D,hexagon,1,0,,,1,,,,,,j,0.509,9,0,9,0,1,,,,,,,,,,,,,,,,,,,,,,,,,,,,,,,,,,
296680,2022-11-29_11h32.37.949,vts_reward_expectancy_bt,2022.2.4,MacIntel,29.41176471,Safari,1440,900,,,,,0,639,,,,,,,,,,,,,,,,,132,Y,star,1,0,,,2,,,,,,,,,,,,,-1,number,NA,d,0.984,vtsPrac,0,0,0,0,1,,,,,,,,,,,,,,,,,,,,,,,
296680,2022-11-29_11h32.37.949,vts_reward_expectancy_bt,2022.2.4,MacIntel,29.41176471,Safari,1440,900,,,,,0,639,,,,,,,,,,,,,,,,,174,H,hexagon,1,0,,,2,,,,,,,,,,,,,repeat,number,numRpt,f,2.089,vtsPrac,1,0,1,0,1,,,,,,,,,,,,,,,,,,,,,,,
296680,2022-11-29_11h32.37.949,vts_reward_expectancy_bt,2022.2.4,MacIntel,29.41176471,Safari,1440,900,,,,,0,639,,,,,,,,,,,,,,,,,167,F,star,1,0,,,2,,,,,,,,,,,,,switch,letter,lettSwt,j,0.641,vtsPrac,2,0,2,0,1,,,,,,,,,,,,,,,,,,,,,,,
296680,2022-11-29_11h32.37.949,vts_reward_expectancy_bt,2022.2.4,MacIntel,29.41176471,Safari,1440,900,,,,,0,639,,,,,,,,,,,,,,,,,139,U,hexagon,1,0,,,2,,,,,,,,,,,,,switch,number,numSwt,d,1.894,vtsPrac,3,0,3,0,1,,,,,,,,,,,,,,,,,,,,,,,
296680,2022-11-29_11h32.37.949,vts_reward_expectancy_bt,2022.2.4,MacIntel,29.41176471,Safari,1440,900,,,,,0,639,,,,,,,,,,,,,,,,,132,Y,star,1,0,,,2,,,,,,,,,,,,,switch,letter,lettSwt,k,1.608,vtsPrac,4,0,4,0,1,,,,,,,,,,,,,,,,,,,,,,,
296680,2022-11-29_11h32.37.949,vts_reward_expectancy_bt,2022.2.4,MacIntel,29.41176471,Safari,1440,900,,,,,0,639,,,,,,,,,,,,,,,,,174,H,circle,1,0,,,2,,,,,,,,,,,,,repeat,letter,lettRpt,j,0.66,vtsPrac,5,0,5,0,1,,,,,,,,,,,,,,,,,,,,,,,
296680,2022-11-29_11h32.37.949,vts_reward_expectancy_bt,2022.2.4,MacIntel,29.41176471,Safari,1440,900,,,,,0,639,,,,,,,,,,,,,,,,,167,F,star,1,0,,,2,,,,,,,,,,,,,switch,number,numSwt,f,1.457,vtsPrac,6,0,6,0,1,,,,,,,,,,,,,,,,,,,,,,,
296680,2022-11-29_11h32.37.949,vts_reward_expectancy_bt,2022.2.4,MacIntel,29.41176471,Safari,1440,900,,,,,0,639,,,,,,,,,,,,,,,,,139,U,circle,1,0,,,2,,,,,,,,,,,,,repeat,number,numRpt,d,1.523,vtsPrac,7,0,7,0,1,,,,,,,,,,,,,,,,,,,,,,,
296680,2022-11-29_11h32.37.949,vts_reward_expectancy_bt,2022.2.4,MacIntel,29.41176471,Safari,1440,900,,,,,0,639,,,,,,,,,,,,,,,,,132,U,star,1,0,,,2,,,,,,,,,,,,,switch,letter,lettSwt,k,1.497,vtsPrac,8,0,8,0,1,,,,,,,,,,,,,,,,,,,,,,,
296680,2022-11-29_11h32.37.949,vts_reward_expectancy_bt,2022.2.4,MacIntel,29.41176471,Safari,1440,900,,,,,0,639,,,,,,,,,,,,,,,,,139,W,circle,1,0,,,2,,,,,,,,,,,,,switch,number,numSwt,d,1.143,vtsPrac,9,0,9,0,1,,,,,,,,,,,,,,,,,,,,,,,
296680,2022-11-29_11h32.37.949,vts_reward_expectancy_bt,2022.2.4,MacIntel,29.41176471,Safari,1440,900,,,,,0,639,,,,,,,,,,,,,,,,,146,Y,star,1,0,,,2,,,,,,,,,,,,,switch,letter,lettSwt,k,0.683,vtsPrac,10,0,10,0,1,,,,,,,,,,,,,,,,,,,,,,,
296680,2022-11-29_11h32.37.949,vts_reward_expectancy_bt,2022.2.4,MacIntel,29.41176471,Safari,1440,900,,,,,0,639,,,,,,,,,,,,,,,,,174,B,triangle,1,0,,,2,,,,,,,,,,,,,repeat,letter,lettRpt,j,1.375,vtsPrac,11,0,11,0,1,,,,,,,,,,,,,,,,,,,,,,,
296680,2022-11-29_11h32.37.949,vts_reward_expectancy_bt,2022.2.4,MacIntel,29.41176471,Safari,1440,900,,,,,0,639,,,,,,,,,,,,,,,,,167,H,hexagon,1,0,,,2,,,,,,,,,,,,,repeat,letter,lettRpt,j,1.375,vtsPrac,12,0,12,0,1,,,,,,,,,,,,,,,,,,,,,,,
296680,2022-11-29_11h32.37.949,vts_reward_expectancy_bt,2022.2.4,MacIntel,29.41176471,Safari,1440,900,,,,,0,639,,,,,,,,,,,,,,,,,125,W,star,1,0,,,2,,,,,,,,,,,,,switch,number,numSwt,d,1.176,vtsPrac,13,0,13,0,1,,,,,,,,,,,,,,,,,,,,,,,
296680,2022-11-29_11h32.37.949,vts_reward_expectancy_bt,2022.2.4,MacIntel,29.41176471,Safari,1440,900,,,,,0,639,,,,,,,,,,,,,,,,,146,S,circle,1,0,,,2,,,,,,,,,,,,,switch,letter,lettSwt,k,2.558,vtsPrac,14,0,14,0,1,,,,,,,,,,,,,,,,,,,,,,,
296680,2022-11-29_11h32.37.949,vts_reward_expectancy_bt,2022.2.4,MacIntel,29.41176471,Safari,1440,900,,,,,0,639,,,,,,,,,,,,,,,,,174,F,star,1,0,,,2,,,,,,,,,,,,,switch,number,numSwt,f,0.583,vtsPrac,15,0,15,0,1,,,,,,,,,,,,,,,,,,,,,,,
296680,2022-11-29_11h32.37.949,vts_reward_expectancy_bt,2022.2.4,MacIntel,29.41176471,Safari,1440,900,,,,,0,639,,,,,,,,,,,,,,,,,125,D,circle,1,0,,,2,,,,,,,,,,,,,repeat,number,numRpt,d,0.843,vtsPrac,16,0,16,0,1,,,,,,,,,,,,,,,,,,,,,,,
296680,2022-11-29_11h32.37.949,vts_reward_expectancy_bt,2022.2.4,MacIntel,29.41176471,Safari,1440,900,,,,,0,639,,,,,,,,,,,,,,,,,146,S,hexagon,1,0,,,2,,,,,,,,,,,,,switch,letter,lettSwt,k,0.643,vtsPrac,17,0,17,0,1,,,,,,,,,,,,,,,,,,,,,,,
296680,2022-11-29_11h32.37.949,vts_reward_expectancy_bt,2022.2.4,MacIntel,29.41176471,Safari,1440,900,,,,,0,639,,,,,,,,,,,,,,,,,139,U,hexagon,1,0,,,2,,,,,,,,,,,,,repeat,letter,lettRpt,k,0.79,vtsPrac,18,0,18,0,1,,,,,,,,,,,,,,,,,,,,,,,
296680,2022-11-29_11h32.37.949,vts_reward_expectancy_bt,2022.2.4,MacIntel,29.41176471,Safari,1440,900,,,,,0,639,,,,,,,,,,,,,,,,,160,W,triangle,1,0,,,2,,,,,,,,,,,,,switch,number,numSwt,f,0.574,vtsPrac,19,0,19,0,1,,,,,,,,,,,,,,,,,,,,,,,
296680,2022-11-29_11h32.37.949,vts_reward_expectancy_bt,2022.2.4,MacIntel,29.41176471,Safari,1440,900,,,,,0,639,,,,,,,,,,,,,,,,,146,W,triangle,1,0,,,2,,,,,,,,,,,,,repeat,number,numRpt,d,0.946,vtsPrac,20,0,20,0,1,,,,,,,,,,,,,,,,,,,,,,,
296680,2022-11-29_11h32.37.949,vts_reward_expectancy_bt,2022.2.4,MacIntel,29.41176471,Safari,1440,900,,,,,0,639,,,,,,,,,,,,,,,,,160,H,star,1,0,,,2,,,,,,,,,,,,,switch,letter,lettSwt,j,0.576,vtsPrac,21,0,21,0,1,,,,,,,,,,,,,,,,,,,,,,,
296680,2022-11-29_11h32.37.949,vts_reward_expectancy_bt,2022.2.4,MacIntel,29.41176471,Safari,1440,900,,,,,0,639,,,,,,,,,,,,,,,,,181,B,hexagon,1,0,,,2,,,,,,,,,,,,,switch,number,numSwt,f,1.343,vtsPrac,22,0,22,0,1,,,,,,,,,,,,,,,,,,,,,,,
296680,2022-11-29_11h32.37.949,vts_reward_expectancy_bt,2022.2.4,MacIntel,29.41176471,Safari,1440,900,,,,,0,639,,,,,,,,,,,,,,,,,132,U,triangle,1,0,,,2,,,,,,,,,,,,,switch,letter,lettSwt,k,0.642,vtsPrac,23,0,23,0,1,,,,,,,,,,,,,,,,,,,,,,,
296680,2022-11-29_11h32.37.949,vts_reward_expectancy_bt,2022.2.4,MacIntel,29.41176471,Safari,1440,900,,,,,0,639,,,,,,,,,,,,,,,,,160,B,triangle,1,0,,,2,,,,,,,,,,,,,repeat,letter,lettRpt,j,0.709,vtsPrac,24,0,24,0,1,,,,,,,,,,,,,,,,,,,,,,,
296680,2022-11-29_11h32.37.949,vts_reward_expectancy_bt,2022.2.4,MacIntel,29.41176471,Safari,1440,900,,,,,0,639,,,,,,,,,,,,,,,,,139,D,star,1,0,,,2,,,,,,,,,,,,,repeat,letter,lettRpt,j,0.859,vtsPrac,25,0,25,0,1,,,,,,,,,,,,,,,,,,,,,,,
296680,2022-11-29_11h32.37.949,vts_reward_expectancy_bt,2022.2.4,MacIntel,29.41176471,Safari,1440,900,,,,,0,639,,,,,,,,,,,,,,,,,174,H,triangle,1,0,,,2,,,,,,,,,,,,,switch,number,numSwt,f,0.607,vtsPrac,26,0,26,0,1,,,,,,,,,,,,,,,,,,,,,,,
296680,2022-11-29_11h32.37.949,vts_reward_expectancy_bt,2022.2.4,MacIntel,29.41176471,Safari,1440,900,,,,,0,639,,,,,,,,,,,,,,,,,167,W,circle,1,0,,,2,,,,,,,,,,,,,repeat,number,numRpt,f,1.311,vtsPrac,27,0,27,0,1,,,,,,,,,,,,,,,,,,,,,,,
296680,2022-11-29_11h32.37.949,vts_reward_expectancy_bt,2022.2.4,MacIntel,29.41176471,Safari,1440,900,,,,,0,639,,,,,,,,,,,,,,,,,174,W,hexagon,1,0,,,2,,,,,,,,,,,,,switch,letter,lettSwt,k,0.726,vtsPrac,28,0,28,0,1,,,,,,,,,,,,,,,,,,,,,,,
296680,2022-11-29_11h32.37.949,vts_reward_expectancy_bt,2022.2.4,MacIntel,29.41176471,Safari,1440,900,,,,,0,639,,,,,,,,,,,,,,,,,181,U,circle,1,0,,,2,,,,,,,,,,,,,repeat,letter,lettRpt,k,0.746,vtsPrac,29,0,29,0,1,,,,,,,,,,,,,,,,,,,,,,,
296680,2022-11-29_11h32.37.949,vts_reward_expectancy_bt,2022.2.4,MacIntel,29.41176471,Safari,1440,900,,,,,0,639,,,,,,,,,,,,,,,,,146,B,star,1,0,,,2,,,,,,,,,,,,,switch,number,numSwt,d,1.224,vtsPrac,30,0,30,0,1,,,,,,,,,,,,,,,,,,,,,,,
296680,2022-11-29_11h32.37.949,vts_reward_expectancy_bt,2022.2.4,MacIntel,29.41176471,Safari,1440,900,,,,,0,639,,,,,,,,,,,,,,,,,132,Y,hexagon,1,0,,,2,,,,,,,,,,,,,repeat,number,numRpt,d,1.124,vtsPrac,31,0,31,0,1,,,,,,,,,,,,,,,,,,,,,,,
296680,2022-11-29_11h32.37.949,vts_reward_expectancy_bt,2022.2.4,MacIntel,29.41176471,Safari,1440,900,,,,,,,,,,,,,,,,,,,,,,,,,,,,,,,,,,,,,,,,,,,,,,,,,,,,,,,,,,,,,,,,,,,,,,,,,,,,
296680,2022-11-29_11h32.37.949,vts_reward_expectancy_bt,2022.2.4,MacIntel,29.41176471,Safari,1440,900,,,,,,,,,,,,,,,,,,,,,,,,,,,,,,,,,,,,,,,,,,,,,,,,,,,,,,,,,,,,,,,,,,,,,,,,,,,,
296680,2022-11-29_11h32.37.949,vts_reward_expectancy_bt,2022.2.4,MacIntel,29.41176471,Safari,1440,900,,,,,0,639,,,,,,,,,,,,,,,,,139,D,hexagon,1,0,,,,,,,,,,,,,,,,repeat,number,numRpt,d,0.884,noRew,,,,,,0,0,0,0,0,1,,,,,,,,,,,,,,,,,
296680,2022-11-29_11h32.37.949,vts_reward_expectancy_bt,2022.2.4,MacIntel,29.41176471,Safari,1440,900,,,,,0,639,,,,,,,,,,,,,,,,,167,B,circle,1,0,,,,,,,,,,,,,,,,switch,letter,lettSwt,j,0.925,noRew,,,,,,0,1,0,1,0,1,,,,,,,,,,,,,,,,,
296680,2022-11-29_11h32.37.949,vts_reward_expectancy_bt,2022.2.4,MacIntel,29.41176471,Safari,1440,900,,,,,0,639,,,,,,,,,,,,,,,,,160,W,hexagon,1,0,,,,,,,,,,,,,,,,repeat,letter,lettRpt,k,0.55,noRew,,,,,,0,2,0,2,0,1,,,,,,,,,,,,,,,,,
296680,2022-11-29_11h32.37.949,vts_reward_expectancy_bt,2022.2.4,MacIntel,29.41176471,Safari,1440,900,,,,,0,639,,,,,,,,,,,,,,,,,132,S,circle,1,0,,,,,,,,,,,,,,,,switch,number,numSwt,d,0.542,noRew,,,,,,0,3,0,3,0,1,,,,,,,,,,,,,,,,,
296680,2022-11-29_11h32.37.949,vts_reward_expectancy_bt,2022.2.4,MacIntel,29.41176471,Safari,1440,900,,,,,0,639,,,,,,,,,,,,,,,,,139,D,hexagon,1,0,,,,,,,,,,,,,,,,switch,letter,lettSwt,j,0.807,noRew,,,,,,0,4,0,4,0,1,,,,,,,,,,,,,,,,,
296680,2022-11-29_11h32.37.949,vts_reward_expectancy_bt,2022.2.4,MacIntel,29.41176471,Safari,1440,900,,,,,0,639,,,,,,,,,,,,,,,,,167,B,triangle,1,0,,,,,,,,,,,,,,,,switch,number,numSwt,f,1.09,noRew,,,,,,0,5,0,5,0,1,,,,,,,,,,,,,,,,,
296680,2022-11-29_11h32.37.949,vts_reward_expectancy_bt,2022.2.4,MacIntel,29.41176471,Safari,1440,900,,,,,0,639,,,,,,,,,,,,,,,,,160,W,circle,1,0,,,,,,,,,,,,,,,,repeat,number,numRpt,f,0.608,noRew,,,,,,0,6,0,6,0,1,,,,,,,,,,,,,,,,,
296680,2022-11-29_11h32.37.949,vts_reward_expectancy_bt,2022.2.4,MacIntel,29.41176471,Safari,1440,900,,,,,0,639,,,,,,,,,,,,,,,,,132,S,triangle,1,0,,,,,,,,,,,,,,,,switch,letter,lettSwt,k,0.88,noRew,,,,,,0,7,0,7,0,1,,,,,,,,,,,,,,,,,
296680,2022-11-29_11h32.37.949,vts_reward_expectancy_bt,2022.2.4,MacIntel,29.41176471,Safari,1440,900,,,,,0,639,,,,,,,,,,,,,,,,,146,S,circle,1,0,,,,,,,,,,,,,,,,repeat,letter,lettRpt,k,0.568,noRew,,,,,,0,8,0,8,0,1,,,,,,,,,,,,,,,,,
296680,2022-11-29_11h32.37.949,vts_reward_expectancy_bt,2022.2.4,MacIntel,29.41176471,Safari,1440,900,,,,,0,639,,,,,,,,,,,,,,,,,160,D,hexagon,1,0,,,,,,,,,,,,,,,,repeat,letter,lettRpt,j,0.628,noRew,,,,,,0,9,0,9,0,1,,,,,,,,,,,,,,,,,
296680,2022-11-29_11h32.37.949,vts_reward_expectancy_bt,2022.2.4,MacIntel,29.41176471,Safari,1440,900,,,,,0,639,,,,,,,,,,,,,,,,,125,Y,hexagon,1,0,,,,,,,,,,,,,,,,switch,number,numSwt,d,1.073,noRew,,,,,,0,10,0,10,0,1,,,,,,,,,,,,,,,,,
296680,2022-11-29_11h32.37.949,vts_reward_expectancy_bt,2022.2.4,MacIntel,29.41176471,Safari,1440,900,,,,,0,639,,,,,,,,,,,,,,,,,139,F,triangle,1,0,,,,,,,,,,,,,,,,repeat,number,numRpt,d,1.384,noRew,,,,,,0,11,0,11,0,1,,,,,,,,,,,,,,,,,
296680,2022-11-29_11h32.37.949,vts_reward_expectancy_bt,2022.2.4,MacIntel,29.41176471,Safari,1440,900,,,,,0,639,,,,,,,,,,,,,,,,,167,S,hexagon,1,0,,,,,,,,,,,,,,,,switch,letter,lettSwt,k,0.959,noRew,,,,,,0,12,0,12,0,1,,,,,,,,,,,,,,,,,
296680,2022-11-29_11h32.37.949,vts_reward_expectancy_bt,2022.2.4,MacIntel,29.41176471,Safari,1440,900,,,,,0,639,,,,,,,,,,,,,,,,,125,W,circle,1,0,,,,,,,,,,,,,,,,repeat,letter,lettRpt,k,0.94,noRew,,,,,,0,13,0,13,0,1,,,,,,,,,,,,,,,,,
296680,2022-11-29_11h32.37.949,vts_reward_expectancy_bt,2022.2.4,MacIntel,29.41176471,Safari,1440,900,,,,,0,639,,,,,,,,,,,,,,,,,132,H,circle,1,0,,,,,,,,,,,,,,,,switch,number,numSwt,d,0.682,noRew,,,,,,0,14,0,14,0,1,,,,,,,,,,,,,,,,,
296680,2022-11-29_11h32.37.949,vts_reward_expectancy_bt,2022.2.4,MacIntel,29.41176471,Safari,1440,900,,,,,0,639,,,,,,,,,,,,,,,,,139,D,hexagon,1,0,,,,,,,,,,,,,,,,repeat,number,numRpt,d,0.99,noRew,,,,,,0,15,0,15,0,1,,,,,,,,,,,,,,,,,
296680,2022-11-29_11h32.37.949,vts_reward_expectancy_bt,2022.2.4,MacIntel,29.41176471,Safari,1440,900,,,,,0,639,,,,,,,,,,,,,,,,,174,B,triangle,1,0,,,,,,,,,,,,,,,,repeat,number,numRpt,f,0.682,noRew,,,,,,0,16,0,16,0,1,,,,,,,,,,,,,,,,,
296680,2022-11-29_11h32.37.949,vts_reward_expectancy_bt,2022.2.4,MacIntel,29.41176471,Safari,1440,900,,,,,0,639,,,,,,,,,,,,,,,,,167,Y,hexagon,1,0,,,,,,,,,,,,,,,,switch,letter,lettSwt,k,0.59,noRew,,,,,,0,17,0,17,0,1,,,,,,,,,,,,,,,,,
296680,2022-11-29_11h32.37.949,vts_reward_expectancy_bt,2022.2.4,MacIntel,29.41176471,Safari,1440,900,,,,,0,639,,,,,,,,,,,,,,,,,132,F,circle,1,0,,,,,,,,,,,,,,,,switch,number,numSwt,d,0.527,noRew,,,,,,0,18,0,18,0,1,,,,,,,,,,,,,,,,,
296680,2022-11-29_11h32.37.949,vts_reward_expectancy_bt,2022.2.4,MacIntel,29.41176471,Safari,1440,900,,,,,0,639,,,,,,,,,,,,,,,,,146,H,hexagon,1,0,,,,,,,,,,,,,,,,switch,letter,lettSwt,j,1.058,noRew,,,,,,0,19,0,19,0,1,,,,,,,,,,,,,,,,,
296680,2022-11-29_11h32.37.949,vts_reward_expectancy_bt,2022.2.4,MacIntel,29.41176471,Safari,1440,900,,,,,0,639,,,,,,,,,,,,,,,,,139,W,star,1,0,,,,,,,,,,,,,,,,repeat,letter,lettRpt,k,0.592,noRew,,,,,,0,20,0,20,0,1,,,,,,,,,,,,,,,,,
296680,2022-11-29_11h32.37.949,vts_reward_expectancy_bt,2022.2.4,MacIntel,29.41176471,Safari,1440,900,,,,,0,639,,,,,,,,,,,,,,,,,160,H,triangle,1,0,,,,,,,,,,,,,,,,repeat,letter,lettRpt,j,0.696,noRew,,,,,,0,21,0,21,0,1,,,,,,,,,,,,,,,,,
296680,2022-11-29_11h32.37.949,vts_reward_expectancy_bt,2022.2.4,MacIntel,29.41176471,Safari,1440,900,,,,,0,639,,,,,,,,,,,,,,,,,146,D,star,1,0,,,,,,,,,,,,,,,,switch,number,numSwt,d,1.28,noRew,,,,,,0,22,0,22,0,1,,,,,,,,,,,,,,,,,
296680,2022-11-29_11h32.37.949,vts_reward_expectancy_bt,2022.2.4,MacIntel,29.41176471,Safari,1440,900,,,,,0,639,,,,,,,,,,,,,,,,,174,U,hexagon,1,0,,,,,,,,,,,,,,,,repeat,number,numRpt,f,0.609,noRew,,,,,,0,23,0,23,0,1,,,,,,,,,,,,,,,,,
296680,2022-11-29_11h32.37.949,vts_reward_expectancy_bt,2022.2.4,MacIntel,29.41176471,Safari,1440,900,,,,,0,639,,,,,,,,,,,,,,,,,160,W,circle,1,0,,,,,,,,,,,,,,,,switch,letter,lettSwt,k,0.976,noRew,,,,,,0,24,0,24,0,1,,,,,,,,,,,,,,,,,
296680,2022-11-29_11h32.37.949,vts_reward_expectancy_bt,2022.2.4,MacIntel,29.41176471,Safari,1440,900,,,,,0,639,,,,,,,,,,,,,,,,,146,H,hexagon,1,0,,,,,,,,,,,,,,,,switch,number,numSwt,d,0.641,noRew,,,,,,0,25,0,25,0,1,,,,,,,,,,,,,,,,,
296680,2022-11-29_11h32.37.949,vts_reward_expectancy_bt,2022.2.4,MacIntel,29.41176471,Safari,1440,900,,,,,0,639,,,,,,,,,,,,,,,,,174,Y,hexagon,1,0,,,,,,,,,,,,,,,,repeat,number,numRpt,f,0.573,noRew,,,,,,0,26,0,26,0,1,,,,,,,,,,,,,,,,,
296680,2022-11-29_11h32.37.949,vts_reward_expectancy_bt,2022.2.4,MacIntel,29.41176471,Safari,1440,900,,,,,0,639,,,,,,,,,,,,,,,,,167,F,triangle,1,0,,,,,,,,,,,,,,,,switch,letter,lettSwt,j,1.148,noRew,,,,,,0,27,0,27,0,1,,,,,,,,,,,,,,,,,
296680,2022-11-29_11h32.37.949,vts_reward_expectancy_bt,2022.2.4,MacIntel,29.41176471,Safari,1440,900,,,,,0,639,,,,,,,,,,,,,,,,,132,S,circle,1,0,,,,,,,,,,,,,,,,repeat,letter,lettRpt,k,1.758,noRew,,,,,,0,28,0,28,0,1,,,,,,,,,,,,,,,,,
296680,2022-11-29_11h32.37.949,vts_reward_expectancy_bt,2022.2.4,MacIntel,29.41176471,Safari,1440,900,,,,,0,639,,,,,,,,,,,,,,,,,167,H,hexagon,1,0,,,,,,,,,,,,,,,,repeat,letter,lettRpt,j,1.079,noRew,,,,,,0,29,0,29,0,1,,,,,,,,,,,,,,,,,
296680,2022-11-29_11h32.37.949,vts_reward_expectancy_bt,2022.2.4,MacIntel,29.41176471,Safari,1440,900,,,,,0,639,,,,,,,,,,,,,,,,,125,U,circle,1,0,,,,,,,,,,,,,,,,switch,number,numSwt,d,0.778,noRew,,,,,,0,30,0,30,0,1,,,,,,,,,,,,,,,,,
296680,2022-11-29_11h32.37.949,vts_reward_expectancy_bt,2022.2.4,MacIntel,29.41176471,Safari,1440,900,,,,,0,639,,,,,,,,,,,,,,,,,160,Y,star,1,0,,,,,,,,,,,,,,,,repeat,number,numRpt,f,1.124,noRew,,,,,,0,31,0,31,0,1,,,,,,,,,,,,,,,,,
296680,2022-11-29_11h32.37.949,vts_reward_expectancy_bt,2022.2.4,MacIntel,29.41176471,Safari,1440,900,,,,,0,639,,,,,,,,,,,,,,,,,132,H,star,1,0,,,,,,,,,,,,,,,,repeat,number,numRpt,d,0.743,noRew,,,,,,0,32,0,32,0,1,,,,,,,,,,,,,,,,,
296680,2022-11-29_11h32.37.949,vts_reward_expectancy_bt,2022.2.4,MacIntel,29.41176471,Safari,1440,900,,,,,0,639,,,,,,,,,,,,,,,,,146,U,circle,1,0,,,,,,,,,,,,,,,,switch,letter,lettSwt,k,0.909,noRew,,,,,,0,33,0,33,0,1,,,,,,,,,,,,,,,,,
296680,2022-11-29_11h32.37.949,vts_reward_expectancy_bt,2022.2.4,MacIntel,29.41176471,Safari,1440,900,,,,,0,639,,,,,,,,,,,,,,,,,139,S,triangle,1,0,,,,,,,,,,,,,,,,repeat,letter,lettRpt,k,0.699,noRew,,,,,,0,34,0,34,0,1,,,,,,,,,,,,,,,,,
296680,2022-11-29_11h32.37.949,vts_reward_expectancy_bt,2022.2.4,MacIntel,29.41176471,Safari,1440,900,,,,,0,639,,,,,,,,,,,,,,,,,181,B,hexagon,1,0,,,,,,,,,,,,,,,,repeat,letter,lettRpt,j,1.157,noRew,,,,,,0,35,0,35,0,1,,,,,,,,,,,,,,,,,
296680,2022-11-29_11h32.37.949,vts_reward_expectancy_bt,2022.2.4,MacIntel,29.41176471,Safari,1440,900,,,,,0,639,,,,,,,,,,,,,,,,,132,H,hexagon,1,0,,,,,,,,,,,,,,,,switch,number,numSwt,d,0.451,noRew,,,,,,0,36,0,36,0,1,,,,,,,,,,,,,,,,,
296680,2022-11-29_11h32.37.949,vts_reward_expectancy_bt,2022.2.4,MacIntel,29.41176471,Safari,1440,900,,,,,0,639,,,,,,,,,,,,,,,,,139,Y,star,1,0,,,,,,,,,,,,,,,,repeat,number,numRpt,d,0.913,noRew,,,,,,0,37,0,37,0,1,,,,,,,,,,,,,,,,,
296680,2022-11-29_11h32.37.949,vts_reward_expectancy_bt,2022.2.4,MacIntel,29.41176471,Safari,1440,900,,,,,0,639,,,,,,,,,,,,,,,,,181,S,hexagon,1,0,,,,,,,,,,,,,,,,switch,letter,lettSwt,k,0.758,noRew,,,,,,0,38,0,38,0,1,,,,,,,,,,,,,,,,,
296680,2022-11-29_11h32.37.949,vts_reward_expectancy_bt,2022.2.4,MacIntel,29.41176471,Safari,1440,900,,,,,0,639,,,,,,,,,,,,,,,,,167,F,triangle,1,0,,,,,,,,,,,,,,,,switch,number,numSwt,f,2.125,noRew,,,,,,0,39,0,39,0,1,,,,,,,,,,,,,,,,,
296680,2022-11-29_11h32.37.949,vts_reward_expectancy_bt,2022.2.4,MacIntel,29.41176471,Safari,1440,900,,,,,0,639,,,,,,,,,,,,,,,,,167,D,circle,1,0,,,,,,,,,,,,,,,,switch,letter,lettSwt,j,1.658,noRew,,,,,,0,40,0,40,0,1,,,,,,,,,,,,,,,,,
296680,2022-11-29_11h32.37.949,vts_reward_expectancy_bt,2022.2.4,MacIntel,29.41176471,Safari,1440,900,,,,,0,639,,,,,,,,,,,,,,,,,132,S,triangle,1,0,,,,,,,,,,,,,,,,switch,number,numSwt,d,0.681,noRew,,,,,,0,41,0,41,0,1,,,,,,,,,,,,,,,,,
296680,2022-11-29_11h32.37.949,vts_reward_expectancy_bt,2022.2.4,MacIntel,29.41176471,Safari,1440,900,,,,,0,639,,,,,,,,,,,,,,,,,181,H,hexagon,1,0,,,,,,,,,,,,,,,,repeat,number,numRpt,f,0.692,noRew,,,,,,0,42,0,42,0,1,,,,,,,,,,,,,,,,,
296680,2022-11-29_11h32.37.949,vts_reward_expectancy_bt,2022.2.4,MacIntel,29.41176471,Safari,1440,900,,,,,0,639,,,,,,,,,,,,,,,,,146,F,triangle,1,0,,,,,,,,,,,,,,,,switch,letter,lettSwt,j,0.943,noRew,,,,,,0,43,0,43,0,1,,,,,,,,,,,,,,,,,
296680,2022-11-29_11h32.37.949,vts_reward_expectancy_bt,2022.2.4,MacIntel,29.41176471,Safari,1440,900,,,,,0,639,,,,,,,,,,,,,,,,,125,D,star,1,0,,,,,,,,,,,,,,,,repeat,letter,lettRpt,j,0.918,noRew,,,,,,0,44,0,44,0,1,,,,,,,,,,,,,,,,,
296680,2022-11-29_11h32.37.949,vts_reward_expectancy_bt,2022.2.4,MacIntel,29.41176471,Safari,1440,900,,,,,0,639,,,,,,,,,,,,,,,,,181,F,hexagon,1,0,,,,,,,,,,,,,,,,switch,number,numSwt,f,1.296,noRew,,,,,,0,45,0,45,0,1,,,,,,,,,,,,,,,,,
296680,2022-11-29_11h32.37.949,vts_reward_expectancy_bt,2022.2.4,MacIntel,29.41176471,Safari,1440,900,,,,,0,639,,,,,,,,,,,,,,,,,146,Y,hexagon,1,0,,,,,,,,,,,,,,,,switch,letter,lettSwt,k,0.748,noRew,,,,,,0,46,0,46,0,1,,,,,,,,,,,,,,,,,
296680,2022-11-29_11h32.37.949,vts_reward_expectancy_bt,2022.2.4,MacIntel,29.41176471,Safari,1440,900,,,,,0,639,,,,,,,,,,,,,,,,,174,W,star,1,0,,,,,,,,,,,,,,,,repeat,letter,lettRpt,k,1.011,noRew,,,,,,0,47,0,47,0,1,,,,,,,,,,,,,,,,,
296680,2022-11-29_11h32.37.949,vts_reward_expectancy_bt,2022.2.4,MacIntel,29.41176471,Safari,1440,900,,,,,0,639,,,,,,,,,,,,,,,,,174,F,circle,1,0,,,,,,,,,,,,,,,,repeat,letter,lettRpt,j,0.96,noRew,,,,,,0,48,0,48,0,1,,,,,,,,,,,,,,,,,
296680,2022-11-29_11h32.37.949,vts_reward_expectancy_bt,2022.2.4,MacIntel,29.41176471,Safari,1440,900,,,,,0,639,,,,,,,,,,,,,,,,,139,D,hexagon,1,0,,,,,,,,,,,,,,,,switch,number,numSwt,d,0.86,noRew,,,,,,0,49,0,49,0,1,,,,,,,,,,,,,,,,,
296680,2022-11-29_11h32.37.949,vts_reward_expectancy_bt,2022.2.4,MacIntel,29.41176471,Safari,1440,900,,,,,0,639,,,,,,,,,,,,,,,,,167,Y,circle,1,0,,,,,,,,,,,,,,,,repeat,number,numRpt,f,1.191,noRew,,,,,,0,50,0,50,0,1,,,,,,,,,,,,,,,,,
296680,2022-11-29_11h32.37.949,vts_reward_expectancy_bt,2022.2.4,MacIntel,29.41176471,Safari,1440,900,,,,,0,639,,,,,,,,,,,,,,,,,160,U,triangle,1,0,,,,,,,,,,,,,,,,switch,letter,lettSwt,k,0.758,noRew,,,,,,0,51,0,51,0,1,,,,,,,,,,,,,,,,,
296680,2022-11-29_11h32.37.949,vts_reward_expectancy_bt,2022.2.4,MacIntel,29.41176471,Safari,1440,900,,,,,0,639,,,,,,,,,,,,,,,,,181,Y,circle,1,0,,,,,,,,,,,,,,,,switch,number,numSwt,f,0.783,noRew,,,,,,0,52,0,52,0,1,,,,,,,,,,,,,,,,,
296680,2022-11-29_11h32.37.949,vts_reward_expectancy_bt,2022.2.4,MacIntel,29.41176471,Safari,1440,900,,,,,0,639,,,,,,,,,,,,,,,,,125,B,star,1,0,,,,,,,,,,,,,,,,repeat,number,numRpt,d,0.544,noRew,,,,,,0,53,0,53,0,1,,,,,,,,,,,,,,,,,
296680,2022-11-29_11h32.37.949,vts_reward_expectancy_bt,2022.2.4,MacIntel,29.41176471,Safari,1440,900,,,,,0,639,,,,,,,,,,,,,,,,,167,F,triangle,1,0,,,,,,,,,,,,,,,,switch,letter,lettSwt,j,1.101,noRew,,,,,,0,54,0,54,0,1,,,,,,,,,,,,,,,,,
296680,2022-11-29_11h32.37.949,vts_reward_expectancy_bt,2022.2.4,MacIntel,29.41176471,Safari,1440,900,,,,,0,639,,,,,,,,,,,,,,,,,146,H,star,1,0,,,,,,,,,,,,,,,,repeat,letter,lettRpt,j,1.245,noRew,,,,,,0,55,0,55,0,1,,,,,,,,,,,,,,,,,
296680,2022-11-29_11h32.37.949,vts_reward_expectancy_bt,2022.2.4,MacIntel,29.41176471,Safari,1440,900,,,,,0,639,,,,,,,,,,,,,,,,,160,W,hexagon,1,0,,,,,,,,,,,,,,,,switch,number,numSwt,f,0.707,noRew,,,,,,0,56,0,56,0,1,,,,,,,,,,,,,,,,,
296680,2022-11-29_11h32.37.949,vts_reward_expectancy_bt,2022.2.4,MacIntel,29.41176471,Safari,1440,900,,,,,0,639,,,,,,,,,,,,,,,,,125,U,star,1,0,,,,,,,,,,,,,,,,switch,letter,lettSwt,k,0.794,noRew,,,,,,0,57,0,57,0,1,,,,,,,,,,,,,,,,,
296680,2022-11-29_11h32.37.949,vts_reward_expectancy_bt,2022.2.4,MacIntel,29.41176471,Safari,1440,900,,,,,0,639,,,,,,,,,,,,,,,,,146,Y,hexagon,1,0,,,,,,,,,,,,,,,,repeat,letter,lettRpt,k,1.75,noRew,,,,,,0,58,0,58,0,1,,,,,,,,,,,,,,,,,
296680,2022-11-29_11h32.37.949,vts_reward_expectancy_bt,2022.2.4,MacIntel,29.41176471,Safari,1440,900,,,,,0,639,,,,,,,,,,,,,,,,,132,H,star,1,0,,,,,,,,,,,,,,,,switch,number,numSwt,d,1.923,noRew,,,,,,0,59,0,59,0,1,,,,,,,,,,,,,,,,,
296680,2022-11-29_11h32.37.949,vts_reward_expectancy_bt,2022.2.4,MacIntel,29.41176471,Safari,1440,900,,,,,0,639,,,,,,,,,,,,,,,,,139,W,triangle,1,0,,,,,,,,,,,,,,,,repeat,number,numRpt,d,1.158,noRew,,,,,,0,60,0,60,0,1,,,,,,,,,,,,,,,,,
296680,2022-11-29_11h32.37.949,vts_reward_expectancy_bt,2022.2.4,MacIntel,29.41176471,Safari,1440,900,,,,,0,639,,,,,,,,,,,,,,,,,146,Y,star,1,0,,,,,,,,,,,,,,,,switch,letter,lettSwt,k,1.094,noRew,,,,,,0,61,0,61,0,1,,,,,,,,,,,,,,,,,
296680,2022-11-29_11h32.37.949,vts_reward_expectancy_bt,2022.2.4,MacIntel,29.41176471,Safari,1440,900,,,,,0,639,,,,,,,,,,,,,,,,,125,B,triangle,1,0,,,,,,,,,,,,,,,,switch,number,numSwt,d,1.251,noRew,,,,,,0,62,0,62,0,1,,,,,,,,,,,,,,,,,
296680,2022-11-29_11h32.37.949,vts_reward_expectancy_bt,2022.2.4,MacIntel,29.41176471,Safari,1440,900,,,,,0,639,,,,,,,,,,,,,,,,,167,S,circle,1,0,,,,,,,,,,,,,,,,switch,letter,lettSwt,k,1.277,noRew,,,,,,0,63,0,63,0,1,,,,,,,,,,,,,,,,,
296680,2022-11-29_11h32.37.949,vts_reward_expectancy_bt,2022.2.4,MacIntel,29.41176471,Safari,1440,900,,,,,,,,,,,,,,,,,,,,,,,,,,,,,,,,,,,,,,,,,,,,,,,,,,,,,,,,,,,,,,,,,,,,,,,,,,,,
296680,2022-11-29_11h32.37.949,vts_reward_expectancy_bt,2022.2.4,MacIntel,29.41176471,Safari,1440,900,,,,,0,639,,,,,,,,,,,,,,,,,167,U,circle,1,0,,,,,,,,,,,,,,,,switch,number,numSwt,f,1.115,Hi,,,,,,0,,,,,,space,14.54,low,0,0,0,0,1,,,,,,,,,
296680,2022-11-29_11h32.37.949,vts_reward_expectancy_bt,2022.2.4,MacIntel,29.41176471,Safari,1440,900,,,,,1,640,,,,,,,,,,,,,,,,,132,S,star,1,0,,,,,,,,,,,,,,,,switch,letter,lettSwt,k,0.613,Lo,,,,,,0,,,,,,,,low,1,0,1,0,1,,,,,,,,,
296680,2022-11-29_11h32.37.949,vts_reward_expectancy_bt,2022.2.4,MacIntel,29.41176471,Safari,1440,900,,,,,10,650,,,,,,,,,,,,,,,,,160,W,hexagon,1,0,,,,,,,,,,,,,,,,switch,number,numSwt,f,0.505,Lo,,,,,,0,,,,,,,,low,2,0,2,0,1,,,,,,,,,
296680,2022-11-29_11h32.37.949,vts_reward_expectancy_bt,2022.2.4,MacIntel,29.41176471,Safari,1440,900,,,,,1,651,,,,,,,,,,,,,,,,,139,H,triangle,1,0,,,,,,,,,,,,,,,,switch,letter,lettSwt,j,0.506,Hi,,,,,,0,,,,,,,,low,3,0,3,0,1,,,,,,,,,
296680,2022-11-29_11h32.37.949,vts_reward_expectancy_bt,2022.2.4,MacIntel,29.41176471,Safari,1440,900,,,,,10,661,,,,,,,,,,,,,,,,,181,Y,circle,1,0,,,,,,,,,,,,,,,,repeat,letter,lettRpt,k,0.441,Hi,,,,,,0,,,,,,,,low,4,0,4,0,1,,,,,,,,,
296680,2022-11-29_11h32.37.949,vts_reward_expectancy_bt,2022.2.4,MacIntel,29.41176471,Safari,1440,900,,,,,1,662,,,,,,,,,,,,,,,,,125,B,star,1,0,,,,,,,,,,,,,,,,switch,number,numSwt,d,0.484,Lo,,,,,,0,,,,,,,,low,5,0,5,0,1,,,,,,,,,
296680,2022-11-29_11h32.37.949,vts_reward_expectancy_bt,2022.2.4,MacIntel,29.41176471,Safari,1440,900,,,,,1,663,,,,,,,,,,,,,,,,,174,F,hexagon,1,0,,,,,,,,,,,,,,,,repeat,number,numRpt,f,0.509,Lo,,,,,,0,,,,,,,,low,6,0,6,0,1,,,,,,,,,
296680,2022-11-29_11h32.37.949,vts_reward_expectancy_bt,2022.2.4,MacIntel,29.41176471,Safari,1440,900,,,,,0,663,,,,,,,,,,,,,,,,,146,D,triangle,0,0,,,,,,,,,,,,,,,,switch,letter,NA,k,0.489,Lo,,,,,,0,,,,,,,,low,7,0,7,0,1,,,,,,,,,
296680,2022-11-29_11h32.37.949,vts_reward_expectancy_bt,2022.2.4,MacIntel,29.41176471,Safari,1440,900,,,,,1,664,,,,,,,,,,,,,,,,,167,U,hexagon,1,1,,,,,,,,,,,,,,,,repeat,letter,lettRpt,k,0.521,Lo,,,,,,0,,,,,,,,low,8,0,8,0,1,,,,,,,,,
296680,2022-11-29_11h32.37.949,vts_reward_expectancy_bt,2022.2.4,MacIntel,29.41176471,Safari,1440,900,,,,,10,674,,,,,,,,,,,,,,,,,132,S,circle,1,0,,,,,,,,,,,,,,,,switch,number,numSwt,d,0.516,Hi,,,,,,0,,,,,,,,low,9,0,9,0,1,,,,,,,,,
296680,2022-11-29_11h32.37.949,vts_reward_expectancy_bt,2022.2.4,MacIntel,29.41176471,Safari,1440,900,,,,,10,684,,,,,,,,,,,,,,,,,160,W,star,1,0,,,,,,,,,,,,,,,,switch,letter,lettSwt,k,0.443,Lo,,,,,,0,,,,,,,,low,10,0,10,0,1,,,,,,,,,
296680,2022-11-29_11h32.37.949,vts_reward_expectancy_bt,2022.2.4,MacIntel,29.41176471,Safari,1440,900,,,,,10,694,,,,,,,,,,,,,,,,,139,H,triangle,1,0,,,,,,,,,,,,,,,,switch,number,numSwt,d,0.592,Hi,,,,,,0,,,,,,,,low,11,0,11,0,1,,,,,,,,,
296680,2022-11-29_11h32.37.949,vts_reward_expectancy_bt,2022.2.4,MacIntel,29.41176471,Safari,1440,900,,,,,1,695,,,,,,,,,,,,,,,,,181,Y,triangle,1,0,,,,,,,,,,,,,,,,switch,letter,lettSwt,k,0.444,Hi,,,,,,0,,,,,,,,low,12,0,12,0,1,,,,,,,,,
296680,2022-11-29_11h32.37.949,vts_reward_expectancy_bt,2022.2.4,MacIntel,29.41176471,Safari,1440,900,,,,,1,696,,,,,,,,,,,,,,,,,125,B,star,1,0,,,,,,,,,,,,,,,,repeat,letter,lettRpt,j,0.661,Lo,,,,,,0,,,,,,,,low,13,0,13,0,1,,,,,,,,,
296680,2022-11-29_11h32.37.949,vts_reward_expectancy_bt,2022.2.4,MacIntel,29.41176471,Safari,1440,900,,,,,10,706,,,,,,,,,,,,,,,,,174,F,hexagon,1,0,,,,,,,,,,,,,,,,switch,number,numSwt,f,0.596,Lo,,,,,,0,,,,,,,,low,14,0,14,0,1,,,,,,,,,
296680,2022-11-29_11h32.37.949,vts_reward_expectancy_bt,2022.2.4,MacIntel,29.41176471,Safari,1440,900,,,,,1,707,,,,,,,,,,,,,,,,,146,D,circle,1,0,,,,,,,,,,,,,,,,switch,letter,lettSwt,j,0.516,Hi,,,,,,0,,,,,,,,low,15,0,15,0,1,,,,,,,,,
296680,2022-11-29_11h32.37.949,vts_reward_expectancy_bt,2022.2.4,MacIntel,29.41176471,Safari,1440,900,,,,,0,707,,,,,,,,,,,,,,,,,146,W,circle,1,0,,,,,,,,,,,,,,,,repeat,letter,lettRpt,k,2.568,Hi,,,,,,0,,,,,,,,low,16,0,16,0,1,,,,,,,,,
296680,2022-11-29_11h32.37.949,vts_reward_expectancy_bt,2022.2.4,MacIntel,29.41176471,Safari,1440,900,,,,,1,708,,,,,,,,,,,,,,,,,174,U,hexagon,1,0,,,,,,,,,,,,,,,,repeat,letter,lettRpt,k,1.458,Lo,,,,,,0,,,,,,,,low,17,0,17,0,1,,,,,,,,,
296680,2022-11-29_11h32.37.949,vts_reward_expectancy_bt,2022.2.4,MacIntel,29.41176471,Safari,1440,900,,,,,1,709,,,,,,,,,,,,,,,,,181,H,star,1,0,,,,,,,,,,,,,,,,switch,number,numSwt,f,0.691,Lo,,,,,,0,,,,,,,,low,18,0,18,0,1,,,,,,,,,
296680,2022-11-29_11h32.37.949,vts_reward_expectancy_bt,2022.2.4,MacIntel,29.41176471,Safari,1440,900,,,,,10,719,,,,,,,,,,,,,,,,,125,D,triangle,1,0,,,,,,,,,,,,,,,,repeat,number,numRpt,d,0.43,Hi,,,,,,0,,,,,,,,low,19,0,19,0,1,,,,,,,,,
296680,2022-11-29_11h32.37.949,vts_reward_expectancy_bt,2022.2.4,MacIntel,29.41176471,Safari,1440,900,,,,,10,729,,,,,,,,,,,,,,,,,132,F,hexagon,1,0,,,,,,,,,,,,,,,,switch,letter,lettSwt,j,0.623,Lo,,,,,,0,,,,,,,,low,20,0,20,0,1,,,,,,,,,
296680,2022-11-29_11h32.37.949,vts_reward_expectancy_bt,2022.2.4,MacIntel,29.41176471,Safari,1440,900,,,,,0,729,,,,,,,,,,,,,,,,,139,Y,triangle,1,0,,,,,,,,,,,,,,,,repeat,letter,lettRpt,k,1.351,Hi,,,,,,0,,,,,,,,low,21,0,21,0,1,,,,,,,,,
296680,2022-11-29_11h32.37.949,vts_reward_expectancy_bt,2022.2.4,MacIntel,29.41176471,Safari,1440,900,,,,,1,730,,,,,,,,,,,,,,,,,167,B,star,1,0,,,,,,,,,,,,,,,,repeat,letter,lettRpt,j,0.345,Lo,,,,,,0,,,,,,,,low,22,0,22,0,1,,,,,,,,,
296680,2022-11-29_11h32.37.949,vts_reward_expectancy_bt,2022.2.4,MacIntel,29.41176471,Safari,1440,900,,,,,10,740,,,,,,,,,,,,,,,,,160,S,circle,1,0,,,,,,,,,,,,,,,,switch,number,numSwt,f,0.443,Hi,,,,,,0,,,,,,,,low,23,0,23,0,1,,,,,,,,,
296680,2022-11-29_11h32.37.949,vts_reward_expectancy_bt,2022.2.4,MacIntel,29.41176471,Safari,1440,900,,,,,1,741,,,,,,,,,,,,,,,,,174,B,hexagon,1,0,,,,,,,,,,,,,,,,repeat,number,numRpt,f,0.726,Lo,,,,,,0,,,,,,,,low,24,0,24,0,1,,,,,,,,,
296680,2022-11-29_11h32.37.949,vts_reward_expectancy_bt,2022.2.4,MacIntel,29.41176471,Safari,1440,900,,,,,10,751,,,,,,,,,,,,,,,,,146,U,circle,1,0,,,,,,,,,,,,,,,,switch,letter,lettSwt,k,0.737,Hi,,,,,,0,,,,,,,,low,25,0,25,0,1,,,,,,,,,
296680,2022-11-29_11h32.37.949,vts_reward_expectancy_bt,2022.2.4,MacIntel,29.41176471,Safari,1440,900,,,,,10,761,,,,,,,,,,,,,,,,,132,H,triangle,1,0,,,,,,,,,,,,,,,,repeat,letter,lettRpt,j,0.48,Hi,,,,,,0,,,,,,,,low,26,0,26,0,1,,,,,,,,,
296680,2022-11-29_11h32.37.949,vts_reward_expectancy_bt,2022.2.4,MacIntel,29.41176471,Safari,1440,900,,,,,10,771,,,,,,,,,,,,,,,,,167,D,star,1,0,,,,,,,,,,,,,,,,switch,number,numSwt,f,0.484,Lo,,,,,,0,,,,,,,,low,27,0,27,0,1,,,,,,,,,
296680,2022-11-29_11h32.37.949,vts_reward_expectancy_bt,2022.2.4,MacIntel,29.41176471,Safari,1440,900,,,,,0,771,,,,,,,,,,,,,,,,,139,Y,triangle,1,0,,,,,,,,,,,,,,,,repeat,number,numRpt,d,1.013,Hi,,,,,,0,,,,,,,,low,28,0,28,0,1,,,,,,,,,
296680,2022-11-29_11h32.37.949,vts_reward_expectancy_bt,2022.2.4,MacIntel,29.41176471,Safari,1440,900,,,,,1,772,,,,,,,,,,,,,,,,,125,W,star,1,0,,,,,,,,,,,,,,,,switch,letter,lettSwt,k,0.595,Lo,,,,,,0,,,,,,,,low,29,0,29,0,1,,,,,,,,,
296680,2022-11-29_11h32.37.949,vts_reward_expectancy_bt,2022.2.4,MacIntel,29.41176471,Safari,1440,900,,,,,1,773,,,,,,,,,,,,,,,,,160,S,hexagon,1,0,,,,,,,,,,,,,,,,switch,number,numSwt,f,0.509,Lo,,,,,,0,,,,,,,,low,30,0,30,0,1,,,,,,,,,
296680,2022-11-29_11h32.37.949,vts_reward_expectancy_bt,2022.2.4,MacIntel,29.41176471,Safari,1440,900,,,,,10,783,,,,,,,,,,,,,,,,,181,F,circle,1,0,,,,,,,,,,,,,,,,switch,letter,lettSwt,j,0.509,Hi,,,,,,0,,,,,,,,low,31,0,31,0,1,,,,,,,,,
296680,2022-11-29_11h32.37.949,vts_reward_expectancy_bt,2022.2.4,MacIntel,29.41176471,Safari,1440,900,,,,,0,783,,,,,,,,,,,,,,,,,146,U,triangle,0,0,,,,,,,,,,,,,,,,switch,number,NA,f,0.458,Hi,,,,,,1,,,,,,space,1.632,low,0,0,0,0,1,,,,,,,,,
296680,2022-11-29_11h32.37.949,vts_reward_expectancy_bt,2022.2.4,MacIntel,29.41176471,Safari,1440,900,,,,,10,793,,,,,,,,,,,,,,,,,167,W,hexagon,1,1,,,,,,,,,,,,,,,,switch,letter,lettSwt,k,0.551,Lo,,,,,,1,,,,,,,,low,1,0,1,0,1,,,,,,,,,
296680,2022-11-29_11h32.37.949,vts_reward_expectancy_bt,2022.2.4,MacIntel,29.41176471,Safari,1440,900,,,,,0,793,,,,,,,,,,,,,,,,,181,D,circle,0,0,,,,,,,,,,,,,,,,switch,number,NA,d,0.512,Lo,,,,,,1,,,,,,,,low,2,0,2,0,1,,,,,,,,,
296680,2022-11-29_11h32.37.949,vts_reward_expectancy_bt,2022.2.4,MacIntel,29.41176471,Safari,1440,900,,,,,0,793,,,,,,,,,,,,,,,,,174,B,star,0,1,,,,,,,,,,,,,,,,repeat,number,NA,d,0.343,Lo,,,,,,1,,,,,,,,low,3,0,3,0,1,,,,,,,,,
296680,2022-11-29_11h32.37.949,vts_reward_expectancy_bt,2022.2.4,MacIntel,29.41176471,Safari,1440,900,,,,,0,793,,,,,,,,,,,,,,,,,160,H,triangle,1,1,,,,,,,,,,,,,,,,repeat,number,numRpt,f,0.748,Hi,,,,,,1,,,,,,,,low,4,0,4,0,1,,,,,,,,,
296680,2022-11-29_11h32.37.949,vts_reward_expectancy_bt,2022.2.4,MacIntel,29.41176471,Safari,1440,900,,,,,10,803,,,,,,,,,,,,,,,,,125,Y,hexagon,1,0,,,,,,,,,,,,,,,,switch,letter,lettSwt,k,0.483,Lo,,,,,,1,,,,,,,,low,5,0,5,0,1,,,,,,,,,
296680,2022-11-29_11h32.37.949,vts_reward_expectancy_bt,2022.2.4,MacIntel,29.41176471,Safari,1440,900,,,,,0,803,,,,,,,,,,,,,,,,,132,F,circle,1,0,,,,,,,,,,,,,,,,repeat,letter,lettRpt,j,0.674,Hi,,,,,,1,,,,,,,,low,6,0,6,0,1,,,,,,,,,
296680,2022-11-29_11h32.37.949,vts_reward_expectancy_bt,2022.2.4,MacIntel,29.41176471,Safari,1440,900,,,,,10,813,,,,,,,,,,,,,,,,,139,S,star,1,0,,,,,,,,,,,,,,,,switch,number,numSwt,d,0.411,Lo,,,,,,1,,,,,,,,low,7,0,7,0,1,,,,,,,,,
296680,2022-11-29_11h32.37.949,vts_reward_expectancy_bt,2022.2.4,MacIntel,29.41176471,Safari,1440,900,,,,,1,814,,,,,,,,,,,,,,,,,146,U,circle,1,0,,,,,,,,,,,,,,,,switch,letter,lettSwt,k,0.41,Hi,,,,,,1,,,,,,,,low,8,0,8,0,1,,,,,,,,,
296680,2022-11-29_11h32.37.949,vts_reward_expectancy_bt,2022.2.4,MacIntel,29.41176471,Safari,1440,900,,,,,0,814,,,,,,,,,,,,,,,,,167,W,triangle,1,0,,,,,,,,,,,,,,,,repeat,letter,lettRpt,k,0.509,Hi,,,,,,1,,,,,,,,low,9,0,9,0,1,,,,,,,,,
296680,2022-11-29_11h32.37.949,vts_reward_expectancy_bt,2022.2.4,MacIntel,29.41176471,Safari,1440,900,,,,,1,815,,,,,,,,,,,,,,,,,181,D,star,1,0,,,,,,,,,,,,,,,,switch,number,numSwt,f,0.766,Lo,,,,,,1,,,,,,,,low,10,0,10,0,1,,,,,,,,,
296680,2022-11-29_11h32.37.949,vts_reward_expectancy_bt,2022.2.4,MacIntel,29.41176471,Safari,1440,900,,,,,10,825,,,,,,,,,,,,,,,,,174,B,hexagon,1,0,,,,,,,,,,,,,,,,switch,letter,lettSwt,j,0.545,Lo,,,,,,1,,,,,,,,low,11,0,11,0,1,,,,,,,,,
296680,2022-11-29_11h32.37.949,vts_reward_expectancy_bt,2022.2.4,MacIntel,29.41176471,Safari,1440,900,,,,,1,826,,,,,,,,,,,,,,,,,160,H,hexagon,1,0,,,,,,,,,,,,,,,,repeat,letter,lettRpt,j,1.774,Lo,,,,,,1,,,,,,,,low,12,0,12,0,1,,,,,,,,,
296680,2022-11-29_11h32.37.949,vts_reward_expectancy_bt,2022.2.4,MacIntel,29.41176471,Safari,1440,900,,,,,0,826,,,,,,,,,,,,,,,,,125,Y,triangle,1,0,,,,,,,,,,,,,,,,repeat,letter,lettRpt,k,1.495,Hi,,,,,,1,,,,,,,,low,13,0,13,0,1,,,,,,,,,
296680,2022-11-29_11h32.37.949,vts_reward_expectancy_bt,2022.2.4,MacIntel,29.41176471,Safari,1440,900,,,,,0,826,,,,,,,,,,,,,,,,,132,F,circle,1,0,,,,,,,,,,,,,,,,switch,number,numSwt,d,0.916,Hi,,,,,,1,,,,,,,,low,14,0,14,0,1,,,,,,,,,
296680,2022-11-29_11h32.37.949,vts_reward_expectancy_bt,2022.2.4,MacIntel,29.41176471,Safari,1440,900,,,,,1,827,,,,,,,,,,,,,,,,,139,S,star,1,0,,,,,,,,,,,,,,,,repeat,number,numRpt,d,0.531,Lo,,,,,,1,,,,,,,,low,15,0,15,0,1,,,,,,,,,
296680,2022-11-29_11h32.37.949,vts_reward_expectancy_bt,2022.2.4,MacIntel,29.41176471,Safari,1440,900,,,,,1,828,,,,,,,,,,,,,,,,,132,D,hexagon,1,0,,,,,,,,,,,,,,,,switch,letter,lettSwt,j,1.727,Lo,,,,,,1,,,,,,,,low,16,0,16,0,1,,,,,,,,,
296680,2022-11-29_11h32.37.949,vts_reward_expectancy_bt,2022.2.4,MacIntel,29.41176471,Safari,1440,900,,,,,0,828,,,,,,,,,,,,,,,,,139,B,circle,1,0,,,,,,,,,,,,,,,,switch,number,numSwt,d,0.918,Hi,,,,,,1,,,,,,,,low,17,0,17,0,1,,,,,,,,,
296680,2022-11-29_11h32.37.949,vts_reward_expectancy_bt,2022.2.4,MacIntel,29.41176471,Safari,1440,900,,,,,0,828,,,,,,,,,,,,,,,,,160,Y,triangle,1,0,,,,,,,,,,,,,,,,switch,letter,lettSwt,k,0.527,Hi,,,,,,1,,,,,,,,low,18,0,18,0,1,,,,,,,,,
296680,2022-11-29_11h32.37.949,vts_reward_expectancy_bt,2022.2.4,MacIntel,29.41176471,Safari,1440,900,,,,,1,829,,,,,,,,,,,,,,,,,125,W,star,1,0,,,,,,,,,,,,,,,,repeat,letter,lettRpt,k,0.873,Lo,,,,,,1,,,,,,,,low,19,0,19,0,1,,,,,,,,,
296680,2022-11-29_11h32.37.949,vts_reward_expectancy_bt,2022.2.4,MacIntel,29.41176471,Safari,1440,900,,,,,10,839,,,,,,,,,,,,,,,,,174,H,star,1,0,,,,,,,,,,,,,,,,repeat,letter,lettRpt,j,0.692,Lo,,,,,,1,,,,,,,,low,20,0,20,0,1,,,,,,,,,
296680,2022-11-29_11h32.37.949,vts_reward_expectancy_bt,2022.2.4,MacIntel,29.41176471,Safari,1440,900,,,,,0,839,,,,,,,,,,,,,,,,,146,S,circle,0,0,,,,,,,,,,,,,,,,switch,number,NA,f,0.925,Lo,,,,,,1,,,,,,,,low,21,0,21,0,1,,,,,,,,,
296680,2022-11-29_11h32.37.949,vts_reward_expectancy_bt,2022.2.4,MacIntel,29.41176471,Safari,1440,900,,,,,10,849,,,,,,,,,,,,,,,,,181,U,hexagon,1,1,,,,,,,,,,,,,,,,switch,letter,lettSwt,k,1.26,Lo,,,,,,1,,,,,,,,low,22,0,22,0,1,,,,,,,,,
296680,2022-11-29_11h32.37.949,vts_reward_expectancy_bt,2022.2.4,MacIntel,29.41176471,Safari,1440,900,,,,,0,849,,,,,,,,,,,,,,,,,167,F,triangle,1,0,,,,,,,,,,,,,,,,repeat,letter,lettRpt,j,0.757,Hi,,,,,,1,,,,,,,,low,23,0,23,0,1,,,,,,,,,
296680,2022-11-29_11h32.37.949,vts_reward_expectancy_bt,2022.2.4,MacIntel,29.41176471,Safari,1440,900,,,,,10,859,,,,,,,,,,,,,,,,,125,U,star,1,0,,,,,,,,,,,,,,,,repeat,letter,lettRpt,k,0.852,Lo,,,,,,1,,,,,,,,low,24,0,24,0,1,,,,,,,,,
296680,2022-11-29_11h32.37.949,vts_reward_expectancy_bt,2022.2.4,MacIntel,29.41176471,Safari,1440,900,,,,,0,859,,,,,,,,,,,,,,,,,167,F,circle,1,0,,,,,,,,,,,,,,,,switch,number,numSwt,f,0.99,Hi,,,,,,1,,,,,,,,low,25,0,25,0,1,,,,,,,,,
296680,2022-11-29_11h32.37.949,vts_reward_expectancy_bt,2022.2.4,MacIntel,29.41176471,Safari,1440,900,,,,,0,859,,,,,,,,,,,,,,,,,132,B,triangle,1,0,,,,,,,,,,,,,,,,switch,letter,lettSwt,j,0.909,Hi,,,,,,1,,,,,,,,low,26,0,26,0,1,,,,,,,,,
296680,2022-11-29_11h32.37.949,vts_reward_expectancy_bt,2022.2.4,MacIntel,29.41176471,Safari,1440,900,,,,,10,869,,,,,,,,,,,,,,,,,146,H,hexagon,1,0,,,,,,,,,,,,,,,,repeat,letter,lettRpt,j,0.709,Lo,,,,,,1,,,,,,,,low,27,0,27,0,1,,,,,,,,,
296680,2022-11-29_11h32.37.949,vts_reward_expectancy_bt,2022.2.4,MacIntel,29.41176471,Safari,1440,900,,,,,0,869,,,,,,,,,,,,,,,,,174,S,triangle,1,0,,,,,,,,,,,,,,,,switch,number,numSwt,f,1.839,Hi,,,,,,1,,,,,,,,low,28,0,28,0,1,,,,,,,,,
296680,2022-11-29_11h32.37.949,vts_reward_expectancy_bt,2022.2.4,MacIntel,29.41176471,Safari,1440,900,,,,,10,879,,,,,,,,,,,,,,,,,181,W,hexagon,1,0,,,,,,,,,,,,,,,,repeat,number,numRpt,f,0.689,Lo,,,,,,1,,,,,,,,low,29,0,29,0,1,,,,,,,,,
296680,2022-11-29_11h32.37.949,vts_reward_expectancy_bt,2022.2.4,MacIntel,29.41176471,Safari,1440,900,,,,,0,879,,,,,,,,,,,,,,,,,160,D,circle,1,0,,,,,,,,,,,,,,,,repeat,number,numRpt,f,0.925,Hi,,,,,,1,,,,,,,,low,30,0,30,0,1,,,,,,,,,
296680,2022-11-29_11h32.37.949,vts_reward_expectancy_bt,2022.2.4,MacIntel,29.41176471,Safari,1440,900,,,,,0,879,,,,,,,,,,,,,,,,,139,Y,star,0,0,,,,,,,,,,,,,,,,switch,letter,NA,j,0.859,Hi,,,,,,1,,,,,,,,low,31,0,31,0,1,,,,,,,,,
296680,2022-11-29_11h32.37.949,vts_reward_expectancy_bt,2022.2.4,MacIntel,29.41176471,Safari,1440,900,,,,,10,889,,,,,,,,,,,,,,,,,181,F,star,1,1,,,,,,,,,,,,,,,,repeat,letter,lettRpt,j,0.543,Lo,,,,,,2,,,,,,space,2.589,low,0,0,0,0,1,,,,,,,,,
296680,2022-11-29_11h32.37.949,vts_reward_expectancy_bt,2022.2.4,MacIntel,29.41176471,Safari,1440,900,,,,,1,890,,,,,,,,,,,,,,,,,139,Y,circle,1,0,,,,,,,,,,,,,,,,switch,number,numSwt,d,0.758,Hi,,,,,,2,,,,,,,,low,1,0,1,0,1,,,,,,,,,
296680,2022-11-29_11h32.37.949,vts_reward_expectancy_bt,2022.2.4,MacIntel,29.41176471,Safari,1440,900,,,,,1,891,,,,,,,,,,,,,,,,,167,S,triangle,1,0,,,,,,,,,,,,,,,,repeat,number,numRpt,f,0.492,Hi,,,,,,2,,,,,,,,low,2,0,2,0,1,,,,,,,,,
296680,2022-11-29_11h32.37.949,vts_reward_expectancy_bt,2022.2.4,MacIntel,29.41176471,Safari,1440,900,,,,,10,901,,,,,,,,,,,,,,,,,146,D,hexagon,1,0,,,,,,,,,,,,,,,,switch,letter,lettSwt,j,0.908,Lo,,,,,,2,,,,,,,,low,3,0,3,0,1,,,,,,,,,
296680,2022-11-29_11h32.37.949,vts_reward_expectancy_bt,2022.2.4,MacIntel,29.41176471,Safari,1440,900,,,,,1,902,,,,,,,,,,,,,,,,,125,W,star,1,0,,,,,,,,,,,,,,,,repeat,letter,lettRpt,k,0.632,Lo,,,,,,2,,,,,,,,low,4,0,4,0,1,,,,,,,,,
296680,2022-11-29_11h32.37.949,vts_reward_expectancy_bt,2022.2.4,MacIntel,29.41176471,Safari,1440,900,,,,,10,912,,,,,,,,,,,,,,,,,132,H,circle,1,0,,,,,,,,,,,,,,,,switch,number,numSwt,d,0.633,Hi,,,,,,2,,,,,,,,low,5,0,5,0,1,,,,,,,,,
296680,2022-11-29_11h32.37.949,vts_reward_expectancy_bt,2022.2.4,MacIntel,29.41176471,Safari,1440,900,,,,,0,912,,,,,,,,,,,,,,,,,160,B,triangle,1,0,,,,,,,,,,,,,,,,switch,letter,lettSwt,j,1.572,Hi,,,,,,2,,,,,,,,low,6,0,6,0,1,,,,,,,,,
296680,2022-11-29_11h32.37.949,vts_reward_expectancy_bt,2022.2.4,MacIntel,29.41176471,Safari,1440,900,,,,,1,913,,,,,,,,,,,,,,,,,174,U,hexagon,1,0,,,,,,,,,,,,,,,,repeat,letter,lettRpt,k,0.519,Lo,,,,,,2,,,,,,,,low,7,0,7,0,1,,,,,,,,,
296680,2022-11-29_11h32.37.949,vts_reward_expectancy_bt,2022.2.4,MacIntel,29.41176471,Safari,1440,900,,,,,10,923,,,,,,,,,,,,,,,,,181,F,triangle,1,0,,,,,,,,,,,,,,,,switch,number,numSwt,f,0.674,Hi,,,,,,2,,,,,,,,low,8,0,8,0,1,,,,,,,,,
296680,2022-11-29_11h32.37.949,vts_reward_expectancy_bt,2022.2.4,MacIntel,29.41176471,Safari,1440,900,,,,,10,933,,,,,,,,,,,,,,,,,139,Y,star,1,0,,,,,,,,,,,,,,,,switch,letter,lettSwt,k,1.11,Lo,,,,,,2,,,,,,,,low,9,0,9,0,1,,,,,,,,,
296680,2022-11-29_11h32.37.949,vts_reward_expectancy_bt,2022.2.4,MacIntel,29.41176471,Safari,1440,900,,,,,0,933,,,,,,,,,,,,,,,,,167,S,circle,1,0,,,,,,,,,,,,,,,,repeat,letter,lettRpt,k,0.741,Hi,,,,,,2,,,,,,,,low,10,0,10,0,1,,,,,,,,,
296680,2022-11-29_11h32.37.949,vts_reward_expectancy_bt,2022.2.4,MacIntel,29.41176471,Safari,1440,900,,,,,1,934,,,,,,,,,,,,,,,,,146,D,hexagon,1,0,,,,,,,,,,,,,,,,switch,number,numSwt,d,0.784,Lo,,,,,,2,,,,,,,,low,11,0,11,0,1,,,,,,,,,
296680,2022-11-29_11h32.37.949,vts_reward_expectancy_bt,2022.2.4,MacIntel,29.41176471,Safari,1440,900,,,,,1,935,,,,,,,,,,,,,,,,,125,W,star,1,0,,,,,,,,,,,,,,,,repeat,number,numRpt,d,0.524,Lo,,,,,,2,,,,,,,,low,12,0,12,0,1,,,,,,,,,
296680,2022-11-29_11h32.37.949,vts_reward_expectancy_bt,2022.2.4,MacIntel,29.41176471,Safari,1440,900,,,,,0,935,,,,,,,,,,,,,,,,,132,H,hexagon,0,0,,,,,,,,,,,,,,,,switch,letter,NA,k,0.496,Lo,,,,,,2,,,,,,,,low,13,0,13,0,1,,,,,,,,,
296680,2022-11-29_11h32.37.949,vts_reward_expectancy_bt,2022.2.4,MacIntel,29.41176471,Safari,1440,900,,,,,10,945,,,,,,,,,,,,,,,,,160,B,triangle,1,1,,,,,,,,,,,,,,,,repeat,letter,lettRpt,j,0.523,Hi,,,,,,2,,,,,,,,low,14,0,14,0,1,,,,,,,,,
296680,2022-11-29_11h32.37.949,vts_reward_expectancy_bt,2022.2.4,MacIntel,29.41176471,Safari,1440,900,,,,,0,945,,,,,,,,,,,,,,,,,174,U,circle,1,0,,,,,,,,,,,,,,,,repeat,letter,lettRpt,k,0.718,Hi,,,,,,2,,,,,,,,low,15,0,15,0,1,,,,,,,,,
296680,2022-11-29_11h32.37.949,vts_reward_expectancy_bt,2022.2.4,MacIntel,29.41176471,Safari,1440,900,,,,,1,946,,,,,,,,,,,,,,,,,167,W,star,1,0,,,,,,,,,,,,,,,,repeat,letter,lettRpt,k,0.679,Lo,,,,,,2,,,,,,,,low,16,0,16,0,1,,,,,,,,,
296680,2022-11-29_11h32.37.949,vts_reward_expectancy_bt,2022.2.4,MacIntel,29.41176471,Safari,1440,900,,,,,0,946,,,,,,,,,,,,,,,,,160,S,triangle,1,0,,,,,,,,,,,,,,,,switch,number,numSwt,f,0.877,Hi,,,,,,2,,,,,,,,low,17,0,17,0,1,,,,,,,,,
296680,2022-11-29_11h32.37.949,vts_reward_expectancy_bt,2022.2.4,MacIntel,29.41176471,Safari,1440,900,,,,,0,946,,,,,,,,,,,,,,,,,174,D,circle,0,0,,,,,,,,,,,,,,,,repeat,number,NA,d,0.934,Hi,,,,,,2,,,,,,,,low,18,0,18,0,1,,,,,,,,,
296680,2022-11-29_11h32.37.949,vts_reward_expectancy_bt,2022.2.4,MacIntel,29.41176471,Safari,1440,900,,,,,1,947,,,,,,,,,,,,,,,,,125,Y,hexagon,1,1,,,,,,,,,,,,,,,,repeat,number,numRpt,d,0.991,Lo,,,,,,2,,,,,,,,low,19,0,19,0,1,,,,,,,,,
296680,2022-11-29_11h32.37.949,vts_reward_expectancy_bt,2022.2.4,MacIntel,29.41176471,Safari,1440,900,,,,,10,957,,,,,,,,,,,,,,,,,181,F,star,1,0,,,,,,,,,,,,,,,,switch,letter,lettSwt,j,0.476,Lo,,,,,,2,,,,,,,,low,20,0,20,0,1,,,,,,,,,
296680,2022-11-29_11h32.37.949,vts_reward_expectancy_bt,2022.2.4,MacIntel,29.41176471,Safari,1440,900,,,,,1,958,,,,,,,,,,,,,,,,,139,B,circle,1,0,,,,,,,,,,,,,,,,switch,number,numSwt,d,0.779,Hi,,,,,,2,,,,,,,,low,21,0,21,0,1,,,,,,,,,
296680,2022-11-29_11h32.37.949,vts_reward_expectancy_bt,2022.2.4,MacIntel,29.41176471,Safari,1440,900,,,,,1,959,,,,,,,,,,,,,,,,,132,H,hexagon,1,0,,,,,,,,,,,,,,,,repeat,number,numRpt,d,0.811,Lo,,,,,,2,,,,,,,,low,22,0,22,0,1,,,,,,,,,
296680,2022-11-29_11h32.37.949,vts_reward_expectancy_bt,2022.2.4,MacIntel,29.41176471,Safari,1440,900,,,,,0,959,,,,,,,,,,,,,,,,,146,U,triangle,1,0,,,,,,,,,,,,,,,,switch,letter,lettSwt,k,2.228,Hi,,,,,,2,,,,,,,,low,23,0,23,0,1,,,,,,,,,
296680,2022-11-29_11h32.37.949,vts_reward_expectancy_bt,2022.2.4,MacIntel,29.41176471,Safari,1440,900,,,,,0,959,,,,,,,,,,,,,,,,,160,W,triangle,1,0,,,,,,,,,,,,,,,,repeat,letter,lettRpt,k,1.893,Hi,,,,,,2,,,,,,,,low,24,0,24,0,1,,,,,,,,,
296680,2022-11-29_11h32.37.949,vts_reward_expectancy_bt,2022.2.4,MacIntel,29.41176471,Safari,1440,900,,,,,1,960,,,,,,,,,,,,,,,,,146,U,star,1,0,,,,,,,,,,,,,,,,repeat,letter,lettRpt,k,1.295,Lo,,,,,,2,,,,,,,,low,25,0,25,0,1,,,,,,,,,
296680,2022-11-29_11h32.37.949,vts_reward_expectancy_bt,2022.2.4,MacIntel,29.41176471,Safari,1440,900,,,,,0,960,,,,,,,,,,,,,,,,,174,B,hexagon,0,0,,,,,,,,,,,,,,,,repeat,letter,NA,k,0.645,Lo,,,,,,2,,,,,,,,low,26,0,26,0,1,,,,,,,,,
296680,2022-11-29_11h32.37.949,vts_reward_expectancy_bt,2022.2.4,MacIntel,29.41176471,Safari,1440,900,,,,,0,960,,,,,,,,,,,,,,,,,181,Y,circle,1,1,,,,,,,,,,,,,,,,switch,number,numSwt,f,0.909,Hi,,,,,,2,,,,,,,,low,27,0,27,0,1,,,,,,,,,
296680,2022-11-29_11h32.37.949,vts_reward_expectancy_bt,2022.2.4,MacIntel,29.41176471,Safari,1440,900,,,,,10,970,,,,,,,,,,,,,,,,,167,S,star,1,0,,,,,,,,,,,,,,,,switch,letter,lettSwt,k,0.543,Lo,,,,,,2,,,,,,,,low,28,0,28,0,1,,,,,,,,,
296680,2022-11-29_11h32.37.949,vts_reward_expectancy_bt,2022.2.4,MacIntel,29.41176471,Safari,1440,900,,,,,10,980,,,,,,,,,,,,,,,,,125,H,circle,1,0,,,,,,,,,,,,,,,,repeat,letter,lettRpt,j,0.579,Hi,,,,,,2,,,,,,,,low,29,0,29,0,1,,,,,,,,,
296680,2022-11-29_11h32.37.949,vts_reward_expectancy_bt,2022.2.4,MacIntel,29.41176471,Safari,1440,900,,,,,1,981,,,,,,,,,,,,,,,,,139,D,hexagon,1,0,,,,,,,,,,,,,,,,switch,number,numSwt,d,0.612,Lo,,,,,,2,,,,,,,,low,30,0,30,0,1,,,,,,,,,
296680,2022-11-29_11h32.37.949,vts_reward_expectancy_bt,2022.2.4,MacIntel,29.41176471,Safari,1440,900,,,,,0,981,,,,,,,,,,,,,,,,,132,F,triangle,1,0,,,,,,,,,,,,,,,,switch,letter,lettSwt,j,0.729,Hi,,,,,,2,,,,,,,,low,31,0,31,0,1,,,,,,,,,
296680,2022-11-29_11h32.37.949,vts_reward_expectancy_bt,2022.2.4,MacIntel,29.41176471,Safari,1440,900,,,,,10,991,,,,,,,,,,,,,,,,,160,U,hexagon,1,0,,,,,,,,,,,,,,,,repeat,letter,lettRpt,k,0.575,Lo,,,,,,3,,,,,,space,3.999,low,0,0,0,0,1,,,,,,,,,
296680,2022-11-29_11h32.37.949,vts_reward_expectancy_bt,2022.2.4,MacIntel,29.41176471,Safari,1440,900,,,,,1,992,,,,,,,,,,,,,,,,,125,Y,circle,1,0,,,,,,,,,,,,,,,,switch,number,numSwt,d,0.482,Hi,,,,,,3,,,,,,,,low,1,0,1,0,1,,,,,,,,,
296680,2022-11-29_11h32.37.949,vts_reward_expectancy_bt,2022.2.4,MacIntel,29.41176471,Safari,1440,900,,,,,1,993,,,,,,,,,,,,,,,,,139,D,triangle,1,0,,,,,,,,,,,,,,,,repeat,number,numRpt,d,0.51,Hi,,,,,,3,,,,,,,,low,2,0,2,0,1,,,,,,,,,
296680,2022-11-29_11h32.37.949,vts_reward_expectancy_bt,2022.2.4,MacIntel,29.41176471,Safari,1440,900,,,,,1,994,,,,,,,,,,,,,,,,,181,S,star,1,0,,,,,,,,,,,,,,,,switch,letter,lettSwt,k,0.492,Lo,,,,,,3,,,,,,,,low,3,0,3,0,1,,,,,,,,,
296680,2022-11-29_11h32.37.949,vts_reward_expectancy_bt,2022.2.4,MacIntel,29.41176471,Safari,1440,900,,,,,1,995,,,,,,,,,,,,,,,,,132,W,hexagon,1,0,,,,,,,,,,,,,,,,repeat,letter,lettRpt,k,0.527,Lo,,,,,,3,,,,,,,,low,4,0,4,0,1,,,,,,,,,
296680,2022-11-29_11h32.37.949,vts_reward_expectancy_bt,2022.2.4,MacIntel,29.41176471,Safari,1440,900,,,,,10,1005,,,,,,,,,,,,,,,,,167,B,circle,1,0,,,,,,,,,,,,,,,,repeat,letter,lettRpt,j,0.565,Hi,,,,,,3,,,,,,,,low,5,0,5,0,1,,,,,,,,,
296680,2022-11-29_11h32.37.949,vts_reward_expectancy_bt,2022.2.4,MacIntel,29.41176471,Safari,1440,900,,,,,0,1005,,,,,,,,,,,,,,,,,174,F,triangle,1,0,,,,,,,,,,,,,,,,switch,number,numSwt,f,0.797,Hi,,,,,,3,,,,,,,,low,6,0,6,0,1,,,,,,,,,
296680,2022-11-29_11h32.37.949,vts_reward_expectancy_bt,2022.2.4,MacIntel,29.41176471,Safari,1440,900,,,,,0,1005,,,,,,,,,,,,,,,,,146,H,star,0,0,,,,,,,,,,,,,,,,repeat,number,NA,f,0.846,Hi,,,,,,3,,,,,,,,low,7,0,7,0,1,,,,,,,,,
296680,2022-11-29_11h32.37.949,vts_reward_expectancy_bt,2022.2.4,MacIntel,29.41176471,Safari,1440,900,,,,,1,1006,,,,,,,,,,,,,,,,,160,U,triangle,1,1,,,,,,,,,,,,,,,,switch,letter,lettSwt,k,0.605,Hi,,,,,,3,,,,,,,,low,8,0,8,0,1,,,,,,,,,
296680,2022-11-29_11h32.37.949,vts_reward_expectancy_bt,2022.2.4,MacIntel,29.41176471,Safari,1440,900,,,,,1,1007,,,,,,,,,,,,,,,,,125,Y,hexagon,1,0,,,,,,,,,,,,,,,,switch,number,numSwt,d,0.44,Lo,,,,,,3,,,,,,,,low,9,0,9,0,1,,,,,,,,,
296680,2022-11-29_11h32.37.949,vts_reward_expectancy_bt,2022.2.4,MacIntel,29.41176471,Safari,1440,900,,,,,1,1008,,,,,,,,,,,,,,,,,139,D,star,1,0,,,,,,,,,,,,,,,,repeat,number,numRpt,d,0.593,Lo,,,,,,3,,,,,,,,low,10,0,10,0,1,,,,,,,,,
296680,2022-11-29_11h32.37.949,vts_reward_expectancy_bt,2022.2.4,MacIntel,29.41176471,Safari,1440,900,,,,,10,1018,,,,,,,,,,,,,,,,,181,S,circle,1,0,,,,,,,,,,,,,,,,switch,letter,lettSwt,k,0.39,Hi,,,,,,3,,,,,,,,low,11,0,11,0,1,,,,,,,,,
296680,2022-11-29_11h32.37.949,vts_reward_expectancy_bt,2022.2.4,MacIntel,29.41176471,Safari,1440,900,,,,,1,1019,,,,,,,,,,,,,,,,,132,W,star,1,0,,,,,,,,,,,,,,,,repeat,letter,lettRpt,k,0.458,Lo,,,,,,3,,,,,,,,low,12,0,12,0,1,,,,,,,,,
296680,2022-11-29_11h32.37.949,vts_reward_expectancy_bt,2022.2.4,MacIntel,29.41176471,Safari,1440,900,,,,,0,1019,,,,,,,,,,,,,,,,,167,B,triangle,1,0,,,,,,,,,,,,,,,,repeat,letter,lettRpt,j,0.609,Hi,,,,,,3,,,,,,,,low,13,0,13,0,1,,,,,,,,,
296680,2022-11-29_11h32.37.949,vts_reward_expectancy_bt,2022.2.4,MacIntel,29.41176471,Safari,1440,900,,,,,1,1020,,,,,,,,,,,,,,,,,174,F,hexagon,1,0,,,,,,,,,,,,,,,,switch,number,numSwt,f,0.482,Lo,,,,,,3,,,,,,,,low,14,0,14,0,1,,,,,,,,,
296680,2022-11-29_11h32.37.949,vts_reward_expectancy_bt,2022.2.4,MacIntel,29.41176471,Safari,1440,900,,,,,0,1020,,,,,,,,,,,,,,,,,146,H,circle,1,0,,,,,,,,,,,,,,,,repeat,number,numRpt,d,2.109,Hi,,,,,,3,,,,,,,,low,15,0,15,0,1,,,,,,,,,
296680,2022-11-29_11h32.37.949,vts_reward_expectancy_bt,2022.2.4,MacIntel,29.41176471,Safari,1440,900,,,,,1,1021,,,,,,,,,,,,,,,,,174,S,hexagon,1,0,,,,,,,,,,,,,,,,switch,letter,lettSwt,k,1.124,Lo,,,,,,3,,,,,,,,low,16,0,16,0,1,,,,,,,,,
296680,2022-11-29_11h32.37.949,vts_reward_expectancy_bt,2022.2.4,MacIntel,29.41176471,Safari,1440,900,,,,,0,1021,,,,,,,,,,,,,,,,,132,F,triangle,0,0,,,,,,,,,,,,,,,,repeat,letter,NA,k,0.93,Lo,,,,,,3,,,,,,,,low,17,0,17,0,1,,,,,,,,,
296680,2022-11-29_11h32.37.949,vts_reward_expectancy_bt,2022.2.4,MacIntel,29.41176471,Safari,1440,900,,,,,0,1021,,,,,,,,,,,,,,,,,167,D,circle,1,1,,,,,,,,,,,,,,,,repeat,letter,lettRpt,j,0.71,Hi,,,,,,3,,,,,,,,low,18,0,18,0,1,,,,,,,,,
296680,2022-11-29_11h32.37.949,vts_reward_expectancy_bt,2022.2.4,MacIntel,29.41176471,Safari,1440,900,,,,,1,1022,,,,,,,,,,,,,,,,,139,Y,star,1,0,,,,,,,,,,,,,,,,repeat,letter,lettRpt,k,0.843,Lo,,,,,,3,,,,,,,,low,19,0,19,0,1,,,,,,,,,
296680,2022-11-29_11h32.37.949,vts_reward_expectancy_bt,2022.2.4,MacIntel,29.41176471,Safari,1440,900,,,,,1,1023,,,,,,,,,,,,,,,,,160,W,star,1,0,,,,,,,,,,,,,,,,switch,number,numSwt,f,0.545,Lo,,,,,,3,,,,,,,,low,20,0,20,0,1,,,,,,,,,
296680,2022-11-29_11h32.37.949,vts_reward_expectancy_bt,2022.2.4,MacIntel,29.41176471,Safari,1440,900,,,,,0,1023,,,,,,,,,,,,,,,,,181,H,circle,1,0,,,,,,,,,,,,,,,,switch,letter,lettSwt,j,0.961,Hi,,,,,,3,,,,,,,,low,21,0,21,0,1,,,,,,,,,
296680,2022-11-29_11h32.37.949,vts_reward_expectancy_bt,2022.2.4,MacIntel,29.41176471,Safari,1440,900,,,,,1,1024,,,,,,,,,,,,,,,,,125,B,triangle,1,0,,,,,,,,,,,,,,,,switch,number,numSwt,d,0.442,Hi,,,,,,3,,,,,,,,low,22,0,22,0,1,,,,,,,,,
296680,2022-11-29_11h32.37.949,vts_reward_expectancy_bt,2022.2.4,MacIntel,29.41176471,Safari,1440,900,,,,,1,1025,,,,,,,,,,,,,,,,,146,U,hexagon,1,0,,,,,,,,,,,,,,,,switch,letter,lettSwt,k,0.498,Lo,,,,,,3,,,,,,,,low,23,0,23,0,1,,,,,,,,,
296680,2022-11-29_11h32.37.949,vts_reward_expectancy_bt,2022.2.4,MacIntel,29.41176471,Safari,1440,900,,,,,10,1035,,,,,,,,,,,,,,,,,125,W,triangle,1,0,,,,,,,,,,,,,,,,repeat,letter,lettRpt,k,0.459,Hi,,,,,,3,,,,,,,,low,24,0,24,0,1,,,,,,,,,
296680,2022-11-29_11h32.37.949,vts_reward_expectancy_bt,2022.2.4,MacIntel,29.41176471,Safari,1440,900,,,,,10,1045,,,,,,,,,,,,,,,,,132,Y,hexagon,1,0,,,,,,,,,,,,,,,,switch,number,numSwt,d,0.672,Lo,,,,,,3,,,,,,,,low,25,0,25,0,1,,,,,,,,,
296680,2022-11-29_11h32.37.949,vts_reward_expectancy_bt,2022.2.4,MacIntel,29.41176471,Safari,1440,900,,,,,10,1055,,,,,,,,,,,,,,,,,160,B,star,1,0,,,,,,,,,,,,,,,,switch,letter,lettSwt,j,0.752,Lo,,,,,,3,,,,,,,,low,26,0,26,0,1,,,,,,,,,
296680,2022-11-29_11h32.37.949,vts_reward_expectancy_bt,2022.2.4,MacIntel,29.41176471,Safari,1440,900,,,,,1,1056,,,,,,,,,,,,,,,,,167,F,circle,1,0,,,,,,,,,,,,,,,,repeat,letter,lettRpt,j,0.534,Hi,,,,,,3,,,,,,,,low,27,0,27,0,1,,,,,,,,,
296680,2022-11-29_11h32.37.949,vts_reward_expectancy_bt,2022.2.4,MacIntel,29.41176471,Safari,1440,900,,,,,0,1056,,,,,,,,,,,,,,,,,181,S,triangle,1,0,,,,,,,,,,,,,,,,switch,number,numSwt,f,1.432,Hi,,,,,,3,,,,,,,,low,28,0,28,0,1,,,,,,,,,
296680,2022-11-29_11h32.37.949,vts_reward_expectancy_bt,2022.2.4,MacIntel,29.41176471,Safari,1440,900,,,,,10,1066,,,,,,,,,,,,,,,,,146,D,circle,1,0,,,,,,,,,,,,,,,,switch,letter,lettSwt,j,0.595,Hi,,,,,,3,,,,,,,,low,29,0,29,0,1,,,,,,,,,
296680,2022-11-29_11h32.37.949,vts_reward_expectancy_bt,2022.2.4,MacIntel,29.41176471,Safari,1440,900,,,,,1,1067,,,,,,,,,,,,,,,,,174,U,hexagon,1,0,,,,,,,,,,,,,,,,repeat,letter,lettRpt,k,0.552,Lo,,,,,,3,,,,,,,,low,30,0,30,0,1,,,,,,,,,
296680,2022-11-29_11h32.37.949,vts_reward_expectancy_bt,2022.2.4,MacIntel,29.41176471,Safari,1440,900,,,,,10,1077,,,,,,,,,,,,,,,,,139,H,star,1,0,,,,,,,,,,,,,,,,repeat,letter,lettRpt,j,0.391,Lo,,,,,,3,,,,,,,,low,31,0,31,0,1,,,,,,,,,
296680,2022-11-29_11h32.37.949,vts_reward_expectancy_bt,2022.2.4,MacIntel,29.41176471,Safari,1440,900,,,,,0,1077,,,,,,,,,,,,,,,,,125,U,circle,1,0,,,,,,,,,,,,,,,,switch,number,numSwt,d,0.68,Hi,,,,,,4,,,,,,space,0.991,low,0,0,0,0,1,,,,,,,,,
296680,2022-11-29_11h32.37.949,vts_reward_expectancy_bt,2022.2.4,MacIntel,29.41176471,Safari,1440,900,,,,,1,1078,,,,,,,,,,,,,,,,,160,S,star,1,0,,,,,,,,,,,,,,,,switch,letter,lettSwt,k,0.344,Lo,,,,,,4,,,,,,,,low,1,0,1,0,1,,,,,,,,,
296680,2022-11-29_11h32.37.949,vts_reward_expectancy_bt,2022.2.4,MacIntel,29.41176471,Safari,1440,900,,,,,10,1088,,,,,,,,,,,,,,,,,146,F,triangle,1,0,,,,,,,,,,,,,,,,repeat,letter,lettRpt,j,0.458,Hi,,,,,,4,,,,,,,,low,2,0,2,0,1,,,,,,,,,
296680,2022-11-29_11h32.37.949,vts_reward_expectancy_bt,2022.2.4,MacIntel,29.41176471,Safari,1440,900,,,,,10,1098,,,,,,,,,,,,,,,,,139,B,hexagon,1,0,,,,,,,,,,,,,,,,switch,number,numSwt,d,0.58,Lo,,,,,,4,,,,,,,,low,3,0,3,0,1,,,,,,,,,
296680,2022-11-29_11h32.37.949,vts_reward_expectancy_bt,2022.2.4,MacIntel,29.41176471,Safari,1440,900,,,,,10,1108,,,,,,,,,,,,,,,,,132,Y,circle,1,0,,,,,,,,,,,,,,,,switch,letter,lettSwt,k,0.524,Hi,,,,,,4,,,,,,,,low,4,0,4,0,1,,,,,,,,,
296680,2022-11-29_11h32.37.949,vts_reward_expectancy_bt,2022.2.4,MacIntel,29.41176471,Safari,1440,900,,,,,1,1109,,,,,,,,,,,,,,,,,167,D,star,1,0,,,,,,,,,,,,,,,,switch,number,numSwt,f,0.741,Lo,,,,,,4,,,,,,,,low,5,0,5,0,1,,,,,,,,,
296680,2022-11-29_11h32.37.949,vts_reward_expectancy_bt,2022.2.4,MacIntel,29.41176471,Safari,1440,900,,,,,1,1110,,,,,,,,,,,,,,,,,174,H,triangle,1,0,,,,,,,,,,,,,,,,repeat,number,numRpt,f,0.494,Hi,,,,,,4,,,,,,,,low,6,0,6,0,1,,,,,,,,,
296680,2022-11-29_11h32.37.949,vts_reward_expectancy_bt,2022.2.4,MacIntel,29.41176471,Safari,1440,900,,,,,1,1111,,,,,,,,,,,,,,,,,181,W,hexagon,1,0,,,,,,,,,,,,,,,,switch,letter,lettSwt,k,0.509,Lo,,,,,,4,,,,,,,,low,7,0,7,0,1,,,,,,,,,
296680,2022-11-29_11h32.37.949,vts_reward_expectancy_bt,2022.2.4,MacIntel,29.41176471,Safari,1440,900,,,,,0,1111,,,,,,,,,,,,,,,,,125,U,triangle,1,0,,,,,,,,,,,,,,,,switch,number,numSwt,d,0.667,Hi,,,,,,4,,,,,,,,low,8,0,8,0,1,,,,,,,,,
296680,2022-11-29_11h32.37.949,vts_reward_expectancy_bt,2022.2.4,MacIntel,29.41176471,Safari,1440,900,,,,,0,1111,,,,,,,,,,,,,,,,,160,S,circle,1,0,,,,,,,,,,,,,,,,switch,letter,lettSwt,k,0.611,Hi,,,,,,4,,,,,,,,low,9,0,9,0,1,,,,,,,,,
296680,2022-11-29_11h32.37.949,vts_reward_expectancy_bt,2022.2.4,MacIntel,29.41176471,Safari,1440,900,,,,,1,1112,,,,,,,,,,,,,,,,,146,F,hexagon,1,0,,,,,,,,,,,,,,,,repeat,letter,lettRpt,j,2.027,Lo,,,,,,4,,,,,,,,low,10,0,10,0,1,,,,,,,,,
296680,2022-11-29_11h32.37.949,vts_reward_expectancy_bt,2022.2.4,MacIntel,29.41176471,Safari,1440,900,,,,,10,1122,,,,,,,,,,,,,,,,,139,B,star,1,0,,,,,,,,,,,,,,,,switch,number,numSwt,d,0.767,Lo,,,,,,4,,,,,,,,low,11,0,11,0,1,,,,,,,,,
296680,2022-11-29_11h32.37.949,vts_reward_expectancy_bt,2022.2.4,MacIntel,29.41176471,Safari,1440,900,,,,,1,1123,,,,,,,,,,,,,,,,,132,Y,hexagon,1,0,,,,,,,,,,,,,,,,switch,letter,lettSwt,k,0.613,Lo,,,,,,4,,,,,,,,low,12,0,12,0,1,,,,,,,,,
296680,2022-11-29_11h32.37.949,vts_reward_expectancy_bt,2022.2.4,MacIntel,29.41176471,Safari,1440,900,,,,,0,1123,,,,,,,,,,,,,,,,,167,D,triangle,1,0,,,,,,,,,,,,,,,,switch,number,numSwt,f,0.775,Hi,,,,,,4,,,,,,,,low,13,0,13,0,1,,,,,,,,,
296680,2022-11-29_11h32.37.949,vts_reward_expectancy_bt,2022.2.4,MacIntel,29.41176471,Safari,1440,900,,,,,0,1123,,,,,,,,,,,,,,,,,174,H,circle,1,0,,,,,,,,,,,,,,,,switch,letter,lettSwt,j,0.589,Hi,,,,,,4,,,,,,,,low,14,0,14,0,1,,,,,,,,,
296680,2022-11-29_11h32.37.949,vts_reward_expectancy_bt,2022.2.4,MacIntel,29.41176471,Safari,1440,900,,,,,10,1133,,,,,,,,,,,,,,,,,181,W,star,1,0,,,,,,,,,,,,,,,,repeat,letter,lettRpt,k,0.656,Lo,,,,,,4,,,,,,,,low,15,0,15,0,1,,,,,,,,,
296680,2022-11-29_11h32.37.949,vts_reward_expectancy_bt,2022.2.4,MacIntel,29.41176471,Safari,1440,900,,,,,1,1134,,,,,,,,,,,,,,,,,174,F,star,1,0,,,,,,,,,,,,,,,,repeat,letter,lettRpt,j,0.542,Lo,,,,,,4,,,,,,,,low,16,0,16,0,1,,,,,,,,,
296680,2022-11-29_11h32.37.949,vts_reward_expectancy_bt,2022.2.4,MacIntel,29.41176471,Safari,1440,900,,,,,1,1135,,,,,,,,,,,,,,,,,132,S,hexagon,1,0,,,,,,,,,,,,,,,,switch,number,numSwt,d,0.64,Lo,,,,,,4,,,,,,,,low,17,0,17,0,1,,,,,,,,,
296680,2022-11-29_11h32.37.949,vts_reward_expectancy_bt,2022.2.4,MacIntel,29.41176471,Safari,1440,900,,,,,0,1135,,,,,,,,,,,,,,,,,139,B,triangle,1,0,,,,,,,,,,,,,,,,repeat,number,numRpt,d,0.658,Hi,,,,,,4,,,,,,,,low,18,0,18,0,1,,,,,,,,,
296680,2022-11-29_11h32.37.949,vts_reward_expectancy_bt,2022.2.4,MacIntel,29.41176471,Safari,1440,900,,,,,10,1145,,,,,,,,,,,,,,,,,167,U,circle,1,0,,,,,,,,,,,,,,,,switch,letter,lettSwt,k,0.427,Hi,,,,,,4,,,,,,,,low,19,0,19,0,1,,,,,,,,,
296680,2022-11-29_11h32.37.949,vts_reward_expectancy_bt,2022.2.4,MacIntel,29.41176471,Safari,1440,900,,,,,0,1145,,,,,,,,,,,,,,,,,160,D,circle,1,0,,,,,,,,,,,,,,,,repeat,letter,lettRpt,j,0.549,Hi,,,,,,4,,,,,,,,low,20,0,20,0,1,,,,,,,,,
296680,2022-11-29_11h32.37.949,vts_reward_expectancy_bt,2022.2.4,MacIntel,29.41176471,Safari,1440,900,,,,,0,1145,,,,,,,,,,,,,,,,,125,Y,triangle,1,0,,,,,,,,,,,,,,,,switch,number,numSwt,d,0.59,Hi,,,,,,4,,,,,,,,low,21,0,21,0,1,,,,,,,,,
296680,2022-11-29_11h32.37.949,vts_reward_expectancy_bt,2022.2.4,MacIntel,29.41176471,Safari,1440,900,,,,,0,1145,,,,,,,,,,,,,,,,,146,H,hexagon,0,0,,,,,,,,,,,,,,,,repeat,number,NA,f,0.527,Hi,,,,,,4,,,,,,,,low,22,0,22,0,1,,,,,,,,,
296680,2022-11-29_11h32.37.949,vts_reward_expectancy_bt,2022.2.4,MacIntel,29.41176471,Safari,1440,900,,,,,1,1146,,,,,,,,,,,,,,,,,181,W,star,1,1,,,,,,,,,,,,,,,,repeat,number,numRpt,f,1.293,Lo,,,,,,4,,,,,,,,low,23,0,23,0,1,,,,,,,,,
296680,2022-11-29_11h32.37.949,vts_reward_expectancy_bt,2022.2.4,MacIntel,29.41176471,Safari,1440,900,,,,,0,1146,,,,,,,,,,,,,,,,,146,B,circle,1,0,,,,,,,,,,,,,,,,switch,letter,lettSwt,j,0.797,Hi,,,,,,4,,,,,,,,low,24,0,24,0,1,,,,,,,,,
296680,2022-11-29_11h32.37.949,vts_reward_expectancy_bt,2022.2.4,MacIntel,29.41176471,Safari,1440,900,,,,,1,1147,,,,,,,,,,,,,,,,,139,W,hexagon,1,0,,,,,,,,,,,,,,,,repeat,letter,lettRpt,k,0.595,Lo,,,,,,4,,,,,,,,low,25,0,25,0,1,,,,,,,,,
296680,2022-11-29_11h32.37.949,vts_reward_expectancy_bt,2022.2.4,MacIntel,29.41176471,Safari,1440,900,,,,,1,1148,,,,,,,,,,,,,,,,,181,U,star,1,0,,,,,,,,,,,,,,,,repeat,letter,lettRpt,k,0.933,Lo,,,,,,4,,,,,,,,low,26,0,26,0,1,,,,,,,,,
296680,2022-11-29_11h32.37.949,vts_reward_expectancy_bt,2022.2.4,MacIntel,29.41176471,Safari,1440,900,,,,,0,1148,,,,,,,,,,,,,,,,,125,Y,triangle,1,0,,,,,,,,,,,,,,,,switch,number,numSwt,d,0.513,Hi,,,,,,4,,,,,,,,low,27,0,27,0,1,,,,,,,,,
296680,2022-11-29_11h32.37.949,vts_reward_expectancy_bt,2022.2.4,MacIntel,29.41176471,Safari,1440,900,,,,,0,1148,,,,,,,,,,,,,,,,,132,S,circle,1,0,,,,,,,,,,,,,,,,repeat,number,numRpt,d,0.712,Hi,,,,,,4,,,,,,,,low,28,0,28,0,1,,,,,,,,,
296680,2022-11-29_11h32.37.949,vts_reward_expectancy_bt,2022.2.4,MacIntel,29.41176471,Safari,1440,900,,,,,0,1148,,,,,,,,,,,,,,,,,160,F,triangle,1,0,,,,,,,,,,,,,,,,repeat,number,numRpt,f,0.677,Hi,,,,,,4,,,,,,,,low,29,0,29,0,1,,,,,,,,,
296680,2022-11-29_11h32.37.949,vts_reward_expectancy_bt,2022.2.4,MacIntel,29.41176471,Safari,1440,900,,,,,1,1149,,,,,,,,,,,,,,,,,174,D,star,1,0,,,,,,,,,,,,,,,,repeat,number,numRpt,f,0.977,Lo,,,,,,4,,,,,,,,low,30,0,30,0,1,,,,,,,,,
296680,2022-11-29_11h32.37.949,vts_reward_expectancy_bt,2022.2.4,MacIntel,29.41176471,Safari,1440,900,,,,,1,1150,,,,,,,,,,,,,,,,,167,H,hexagon,1,0,,,,,,,,,,,,,,,,switch,letter,lettSwt,j,0.744,Lo,,,,,,4,,,,,,,,low,31,0,31,0,1,,,,,,,,,
296680,2022-11-29_11h32.37.949,vts_reward_expectancy_bt,2022.2.4,MacIntel,29.41176471,Safari,1440,900,,,,,1,1151,,,,,,,,,,,,,,,,,132,H,hexagon,1,0,,,,,,,,,,,,,,,,switch,number,numSwt,d,0.541,Lo,,,,,,5,,,,,,space,3.716,low,0,0,0,0,1,,,,,,,,,
296680,2022-11-29_11h32.37.949,vts_reward_expectancy_bt,2022.2.4,MacIntel,29.41176471,Safari,1440,900,,,,,0,1151,,,,,,,,,,,,,,,,,146,F,star,0,0,,,,,,,,,,,,,,,,switch,letter,NA,k,0.397,Lo,,,,,,5,,,,,,,,low,1,0,1,0,1,,,,,,,,,
296680,2022-11-29_11h32.37.949,vts_reward_expectancy_bt,2022.2.4,MacIntel,29.41176471,Safari,1440,900,,,,,0,1151,,,,,,,,,,,,,,,,,167,D,circle,1,1,,,,,,,,,,,,,,,,repeat,letter,lettRpt,j,0.552,Hi,,,,,,5,,,,,,,,low,2,0,2,0,1,,,,,,,,,
296680,2022-11-29_11h32.37.949,vts_reward_expectancy_bt,2022.2.4,MacIntel,29.41176471,Safari,1440,900,,,,,0,1151,,,,,,,,,,,,,,,,,125,B,triangle,1,0,,,,,,,,,,,,,,,,repeat,letter,lettRpt,j,0.592,Hi,,,,,,5,,,,,,,,low,3,0,3,0,1,,,,,,,,,
296680,2022-11-29_11h32.37.949,vts_reward_expectancy_bt,2022.2.4,MacIntel,29.41176471,Safari,1440,900,,,,,1,1152,,,,,,,,,,,,,,,,,139,W,hexagon,1,0,,,,,,,,,,,,,,,,switch,number,numSwt,d,0.544,Lo,,,,,,5,,,,,,,,low,4,0,4,0,1,,,,,,,,,
296680,2022-11-29_11h32.37.949,vts_reward_expectancy_bt,2022.2.4,MacIntel,29.41176471,Safari,1440,900,,,,,1,1153,,,,,,,,,,,,,,,,,160,Y,star,1,0,,,,,,,,,,,,,,,,repeat,number,numRpt,f,0.532,Lo,,,,,,5,,,,,,,,low,5,0,5,0,1,,,,,,,,,
296680,2022-11-29_11h32.37.949,vts_reward_expectancy_bt,2022.2.4,MacIntel,29.41176471,Safari,1440,900,,,,,1,1154,,,,,,,,,,,,,,,,,174,S,circle,1,0,,,,,,,,,,,,,,,,repeat,number,numRpt,f,0.562,Hi,,,,,,5,,,,,,,,low,6,0,6,0,1,,,,,,,,,
296680,2022-11-29_11h32.37.949,vts_reward_expectancy_bt,2022.2.4,MacIntel,29.41176471,Safari,1440,900,,,,,0,1154,,,,,,,,,,,,,,,,,181,U,triangle,1,0,,,,,,,,,,,,,,,,switch,letter,lettSwt,k,1.109,Hi,,,,,,5,,,,,,,,low,7,0,7,0,1,,,,,,,,,
296680,2022-11-29_11h32.37.949,vts_reward_expectancy_bt,2022.2.4,MacIntel,29.41176471,Safari,1440,900,,,,,1,1155,,,,,,,,,,,,,,,,,132,H,triangle,1,0,,,,,,,,,,,,,,,,repeat,letter,lettRpt,j,0.409,Hi,,,,,,5,,,,,,,,low,8,0,8,0,1,,,,,,,,,
296680,2022-11-29_11h32.37.949,vts_reward_expectancy_bt,2022.2.4,MacIntel,29.41176471,Safari,1440,900,,,,,1,1156,,,,,,,,,,,,,,,,,146,F,star,1,0,,,,,,,,,,,,,,,,switch,number,numSwt,d,0.79,Lo,,,,,,5,,,,,,,,low,9,0,9,0,1,,,,,,,,,
296680,2022-11-29_11h32.37.949,vts_reward_expectancy_bt,2022.2.4,MacIntel,29.41176471,Safari,1440,900,,,,,0,1156,,,,,,,,,,,,,,,,,167,D,circle,1,0,,,,,,,,,,,,,,,,switch,letter,lettSwt,j,0.851,Hi,,,,,,5,,,,,,,,low,10,0,10,0,1,,,,,,,,,
296680,2022-11-29_11h32.37.949,vts_reward_expectancy_bt,2022.2.4,MacIntel,29.41176471,Safari,1440,900,,,,,10,1166,,,,,,,,,,,,,,,,,125,B,hexagon,1,0,,,,,,,,,,,,,,,,repeat,letter,lettRpt,j,0.54,Lo,,,,,,5,,,,,,,,low,11,0,11,0,1,,,,,,,,,
296680,2022-11-29_11h32.37.949,vts_reward_expectancy_bt,2022.2.4,MacIntel,29.41176471,Safari,1440,900,,,,,1,1167,,,,,,,,,,,,,,,,,139,W,hexagon,1,0,,,,,,,,,,,,,,,,switch,number,numSwt,d,0.482,Lo,,,,,,5,,,,,,,,low,12,0,12,0,1,,,,,,,,,
296680,2022-11-29_11h32.37.949,vts_reward_expectancy_bt,2022.2.4,MacIntel,29.41176471,Safari,1440,900,,,,,1,1168,,,,,,,,,,,,,,,,,160,Y,star,1,0,,,,,,,,,,,,,,,,repeat,number,numRpt,f,0.724,Lo,,,,,,5,,,,,,,,low,13,0,13,0,1,,,,,,,,,
296680,2022-11-29_11h32.37.949,vts_reward_expectancy_bt,2022.2.4,MacIntel,29.41176471,Safari,1440,900,,,,,0,1168,,,,,,,,,,,,,,,,,174,S,triangle,1,0,,,,,,,,,,,,,,,,switch,letter,lettSwt,k,1.541,Hi,,,,,,5,,,,,,,,low,14,0,14,0,1,,,,,,,,,
296680,2022-11-29_11h32.37.949,vts_reward_expectancy_bt,2022.2.4,MacIntel,29.41176471,Safari,1440,900,,,,,0,1168,,,,,,,,,,,,,,,,,181,U,circle,1,0,,,,,,,,,,,,,,,,repeat,letter,lettRpt,k,0.625,Hi,,,,,,5,,,,,,,,low,15,0,15,0,1,,,,,,,,,
296680,2022-11-29_11h32.37.949,vts_reward_expectancy_bt,2022.2.4,MacIntel,29.41176471,Safari,1440,900,,,,,1,1169,,,,,,,,,,,,,,,,,139,H,hexagon,1,0,,,,,,,,,,,,,,,,repeat,letter,lettRpt,j,1.707,Lo,,,,,,5,,,,,,,,low,16,0,16,0,1,,,,,,,,,
296680,2022-11-29_11h32.37.949,vts_reward_expectancy_bt,2022.2.4,MacIntel,29.41176471,Safari,1440,900,,,,,0,1169,,,,,,,,,,,,,,,,,174,F,circle,1,0,,,,,,,,,,,,,,,,repeat,letter,lettRpt,j,2.825,Hi,,,,,,5,,,,,,,,low,17,0,17,0,1,,,,,,,,,
296680,2022-11-29_11h32.37.949,vts_reward_expectancy_bt,2022.2.4,MacIntel,29.41176471,Safari,1440,900,,,,,10,1179,,,,,,,,,,,,,,,,,181,B,star,1,0,,,,,,,,,,,,,,,,switch,number,numSwt,f,0.95,Lo,,,,,,5,,,,,,,,low,18,0,18,0,1,,,,,,,,,
296680,2022-11-29_11h32.37.949,vts_reward_expectancy_bt,2022.2.4,MacIntel,29.41176471,Safari,1440,900,,,,,10,1189,,,,,,,,,,,,,,,,,125,Y,triangle,1,0,,,,,,,,,,,,,,,,repeat,number,numRpt,d,0.525,Hi,,,,,,5,,,,,,,,low,19,0,19,0,1,,,,,,,,,
296680,2022-11-29_11h32.37.949,vts_reward_expectancy_bt,2022.2.4,MacIntel,29.41176471,Safari,1440,900,,,,,10,1199,,,,,,,,,,,,,,,,,167,S,star,1,0,,,,,,,,,,,,,,,,switch,letter,lettSwt,k,0.496,Lo,,,,,,5,,,,,,,,low,20,0,20,0,1,,,,,,,,,
296680,2022-11-29_11h32.37.949,vts_reward_expectancy_bt,2022.2.4,MacIntel,29.41176471,Safari,1440,900,,,,,1,1200,,,,,,,,,,,,,,,,,146,U,hexagon,1,0,,,,,,,,,,,,,,,,switch,number,numSwt,d,1.184,Lo,,,,,,5,,,,,,,,low,21,0,21,0,1,,,,,,,,,
296680,2022-11-29_11h32.37.949,vts_reward_expectancy_bt,2022.2.4,MacIntel,29.41176471,Safari,1440,900,,,,,1,1201,,,,,,,,,,,,,,,,,132,W,triangle,1,0,,,,,,,,,,,,,,,,repeat,number,numRpt,d,0.522,Hi,,,,,,5,,,,,,,,low,22,0,22,0,1,,,,,,,,,
296680,2022-11-29_11h32.37.949,vts_reward_expectancy_bt,2022.2.4,MacIntel,29.41176471,Safari,1440,900,,,,,0,1201,,,,,,,,,,,,,,,,,160,D,circle,1,0,,,,,,,,,,,,,,,,switch,letter,lettSwt,j,0.613,Hi,,,,,,5,,,,,,,,low,23,0,23,0,1,,,,,,,,,
296680,2022-11-29_11h32.37.949,vts_reward_expectancy_bt,2022.2.4,MacIntel,29.41176471,Safari,1440,900,,,,,10,1211,,,,,,,,,,,,,,,,,160,F,hexagon,1,0,,,,,,,,,,,,,,,,repeat,letter,lettRpt,j,0.811,Lo,,,,,,5,,,,,,,,low,24,0,24,0,1,,,,,,,,,
296680,2022-11-29_11h32.37.949,vts_reward_expectancy_bt,2022.2.4,MacIntel,29.41176471,Safari,1440,900,,,,,0,1211,,,,,,,,,,,,,,,,,167,Y,triangle,1,0,,,,,,,,,,,,,,,,switch,number,numSwt,f,0.94,Hi,,,,,,5,,,,,,,,low,25,0,25,0,1,,,,,,,,,
296680,2022-11-29_11h32.37.949,vts_reward_expectancy_bt,2022.2.4,MacIntel,29.41176471,Safari,1440,900,,,,,0,1211,,,,,,,,,,,,,,,,,139,H,circle,1,0,,,,,,,,,,,,,,,,switch,letter,lettSwt,j,0.742,Hi,,,,,,5,,,,,,,,low,26,0,26,0,1,,,,,,,,,
296680,2022-11-29_11h32.37.949,vts_reward_expectancy_bt,2022.2.4,MacIntel,29.41176471,Safari,1440,900,,,,,1,1212,,,,,,,,,,,,,,,,,125,B,star,1,0,,,,,,,,,,,,,,,,repeat,letter,lettRpt,j,0.726,Lo,,,,,,5,,,,,,,,low,27,0,27,0,1,,,,,,,,,
296680,2022-11-29_11h32.37.949,vts_reward_expectancy_bt,2022.2.4,MacIntel,29.41176471,Safari,1440,900,,,,,1,1213,,,,,,,,,,,,,,,,,132,W,star,1,0,,,,,,,,,,,,,,,,repeat,letter,lettRpt,k,0.474,Lo,,,,,,5,,,,,,,,low,28,0,28,0,1,,,,,,,,,
296680,2022-11-29_11h32.37.949,vts_reward_expectancy_bt,2022.2.4,MacIntel,29.41176471,Safari,1440,900,,,,,0,1213,,,,,,,,,,,,,,,,,181,S,triangle,1,0,,,,,,,,,,,,,,,,switch,number,numSwt,f,0.926,Hi,,,,,,5,,,,,,,,low,29,0,29,0,1,,,,,,,,,
296680,2022-11-29_11h32.37.949,vts_reward_expectancy_bt,2022.2.4,MacIntel,29.41176471,Safari,1440,900,,,,,0,1213,,,,,,,,,,,,,,,,,174,U,circle,1,0,,,,,,,,,,,,,,,,repeat,number,numRpt,f,0.875,Hi,,,,,,5,,,,,,,,low,30,0,30,0,1,,,,,,,,,
296680,2022-11-29_11h32.37.949,vts_reward_expectancy_bt,2022.2.4,MacIntel,29.41176471,Safari,1440,900,,,,,0,1213,,,,,,,,,,,,,,,,,146,D,hexagon,0,0,,,,,,,,,,,,,,,,repeat,number,NA,f,0.815,Hi,,,,,,5,,,,,,,,low,31,0,31,0,1,,,,,,,,,
296680,2022-11-29_11h32.37.949,vts_reward_expectancy_bt,2022.2.4,MacIntel,29.41176471,Safari,1440,900,,,,,1,1214,,,,,,,,,,,,,,,,,181,U,triangle,1,1,,,,,,,,,,,,,,,,switch,letter,lettSwt,k,0.423,Hi,,,,,,6,,,,,,space,1.865,low,0,0,0,0,1,,,,,,,,,
296680,2022-11-29_11h32.37.949,vts_reward_expectancy_bt,2022.2.4,MacIntel,29.41176471,Safari,1440,900,,,,,0,1214,,,,,,,,,,,,,,,,,132,W,circle,1,0,,,,,,,,,,,,,,,,repeat,letter,lettRpt,k,0.924,Hi,,,,,,6,,,,,,,,low,1,0,1,0,1,,,,,,,,,
296680,2022-11-29_11h32.37.949,vts_reward_expectancy_bt,2022.2.4,MacIntel,29.41176471,Safari,1440,900,,,,,1,1215,,,,,,,,,,,,,,,,,174,B,hexagon,1,0,,,,,,,,,,,,,,,,repeat,letter,lettRpt,j,1.45,Lo,,,,,,6,,,,,,,,low,2,0,2,0,1,,,,,,,,,
296680,2022-11-29_11h32.37.949,vts_reward_expectancy_bt,2022.2.4,MacIntel,29.41176471,Safari,1440,900,,,,,1,1216,,,,,,,,,,,,,,,,,125,D,star,1,0,,,,,,,,,,,,,,,,switch,number,numSwt,d,0.846,Lo,,,,,,6,,,,,,,,low,3,0,3,0,1,,,,,,,,,
296680,2022-11-29_11h32.37.949,vts_reward_expectancy_bt,2022.2.4,MacIntel,29.41176471,Safari,1440,900,,,,,0,1216,,,,,,,,,,,,,,,,,139,Y,triangle,1,0,,,,,,,,,,,,,,,,repeat,number,numRpt,d,2.017,Hi,,,,,,6,,,,,,,,low,4,0,4,0,1,,,,,,,,,
296680,2022-11-29_11h32.37.949,vts_reward_expectancy_bt,2022.2.4,MacIntel,29.41176471,Safari,1440,900,,,,,0,1216,,,,,,,,,,,,,,,,,160,H,circle,1,0,,,,,,,,,,,,,,,,repeat,number,numRpt,f,0.877,Hi,,,,,,6,,,,,,,,low,5,0,5,0,1,,,,,,,,,
296680,2022-11-29_11h32.37.949,vts_reward_expectancy_bt,2022.2.4,MacIntel,29.41176471,Safari,1440,900,,,,,1,1217,,,,,,,,,,,,,,,,,146,S,hexagon,1,0,,,,,,,,,,,,,,,,repeat,number,numRpt,d,1.125,Lo,,,,,,6,,,,,,,,low,6,0,6,0,1,,,,,,,,,
296680,2022-11-29_11h32.37.949,vts_reward_expectancy_bt,2022.2.4,MacIntel,29.41176471,Safari,1440,900,,,,,10,1227,,,,,,,,,,,,,,,,,167,F,star,1,0,,,,,,,,,,,,,,,,switch,letter,lettSwt,j,1.411,Lo,,,,,,6,,,,,,,,low,7,0,7,0,1,,,,,,,,,
296680,2022-11-29_11h32.37.949,vts_reward_expectancy_bt,2022.2.4,MacIntel,29.41176471,Safari,1440,900,,,,,0,1227,,,,,,,,,,,,,,,,,181,U,circle,1,0,,,,,,,,,,,,,,,,repeat,letter,lettRpt,k,0.664,Hi,,,,,,6,,,,,,,,low,8,0,8,0,1,,,,,,,,,
296680,2022-11-29_11h32.37.949,vts_reward_expectancy_bt,2022.2.4,MacIntel,29.41176471,Safari,1440,900,,,,,1,1228,,,,,,,,,,,,,,,,,132,W,hexagon,1,0,,,,,,,,,,,,,,,,repeat,letter,lettRpt,k,1.176,Lo,,,,,,6,,,,,,,,low,9,0,9,0,1,,,,,,,,,
296680,2022-11-29_11h32.37.949,vts_reward_expectancy_bt,2022.2.4,MacIntel,29.41176471,Safari,1440,900,,,,,0,1228,,,,,,,,,,,,,,,,,174,B,triangle,1,0,,,,,,,,,,,,,,,,repeat,letter,lettRpt,j,0.716,Hi,,,,,,6,,,,,,,,low,10,0,10,0,1,,,,,,,,,
296680,2022-11-29_11h32.37.949,vts_reward_expectancy_bt,2022.2.4,MacIntel,29.41176471,Safari,1440,900,,,,,1,1229,,,,,,,,,,,,,,,,,125,D,star,1,0,,,,,,,,,,,,,,,,repeat,letter,lettRpt,j,1.092,Lo,,,,,,6,,,,,,,,low,11,0,11,0,1,,,,,,,,,
296680,2022-11-29_11h32.37.949,vts_reward_expectancy_bt,2022.2.4,MacIntel,29.41176471,Safari,1440,900,,,,,0,1229,,,,,,,,,,,,,,,,,139,Y,circle,1,0,,,,,,,,,,,,,,,,repeat,letter,lettRpt,k,0.694,Hi,,,,,,6,,,,,,,,low,12,0,12,0,1,,,,,,,,,
