participant,date,expName,psychopyVersion,OS,frameRate,browser,xResolution,yResolution,key_resp.keys,key_resp.rt,training_resp.keys,training_resp.rt,points_trial,points_cumul,trainBlock,training.thisRepN,training.thisTrialN,training.thisN,training.thisIndex,training.ran,LTriangleOpac,LCircleOpac,LHexagonOpac,LStarOpac,RTriangleOpac,RCircleOpac,RHexagonOpac,RStarOpac,LShape_ID,RShape_ID,curr_topStim,curr_bottStim,curr_shape,acc,E1,target_resp_prac1.keys,pracBlock,task1_prac_trials.thisRepN,task1_prac_trials.thisTrialN,task1_prac_trials.thisN,task1_prac_trials.thisIndex,task1_prac_trials.ran,target_resp_prac1.rt,target_resp_prac2.keys,target_resp_prac2.rt,task2_praac_trials.thisRepN,task2_praac_trials.thisTrialN,task2_praac_trials.thisN,task2_praac_trials.thisIndex,task2_praac_trials.ran,alt,task,condition,target_resp.keys,target_resp.rt,rewCond,vts_practice_trials.thisRepN,vts_practice_trials.thisTrialN,vts_practice_trials.thisN,vts_practice_trials.thisIndex,vts_practice_trials.ran,blockNum,trials_norew.thisRepN,trials_norew.thisTrialN,trials_norew.thisN,trials_norew.thisIndex,trials_norew.ran,key_resp_2.keys,key_resp_2.rt,rewExpectancy,trials_rew.thisRepN,trials_rew.thisTrialN,trials_rew.thisN,trials_rew.thisIndex,trials_rew.ran,Q1,Q2,Q2_text,Q3,Q4,Q5_text,Q5,xRes,yRes
296626,2022-11-28_14h41.22.064,vts_reward_expectancy_bt,2022.2.4,MacIntel,60.0024001,Chrome,1792,1120,,,,,,,,,,,,,,,,,,,,,,,,,,,,,,,,,,,,,,,,,,,,,,,,,,,,,,,,,,,,,,,,,,,,,,,,,,,,
296626,2022-11-28_14h41.22.064,vts_reward_expectancy_bt,2022.2.4,MacIntel,60.0024001,Chrome,1792,1120,space,17.1327,,,,,,,,,,,,,,,,,,,,,,,,,,,,,,,,,,,,,,,,,,,,,,,,,,,,,,,,,,,,,,,,,,,,,,,,,,
296626,2022-11-28_14h41.22.064,vts_reward_expectancy_bt,2022.2.4,MacIntel,60.0024001,Chrome,1792,1120,,,,,,,,,,,,,,,,,,,,,,,,,,,,,,,,,,,,,,,,,,,,,,,,,,,,,,,,,,,,,,,,,,,,,,,,,,,,
296626,2022-11-28_14h41.22.064,vts_reward_expectancy_bt,2022.2.4,MacIntel,60.0024001,Chrome,1792,1120,,,l,6.249,10,10,0,0,0,0,1,1,1,0,0,0,0,0,1,0,triangle,hexagon,,,,,,,,,,,,,,,,,,,,,,,,,,,,,,,,,,,,,,,,,,,,,,,,,,,,,,
296626,2022-11-28_14h41.22.064,vts_reward_expectancy_bt,2022.2.4,MacIntel,60.0024001,Chrome,1792,1120,,,a,1.3683,1,11,0,0,1,1,11,1,0,0,0,1,0,0,1,0,star,hexagon,,,,,,,,,,,,,,,,,,,,,,,,,,,,,,,,,,,,,,,,,,,,,,,,,,,,,,
296626,2022-11-28_14h41.22.064,vts_reward_expectancy_bt,2022.2.4,MacIntel,60.0024001,Chrome,1792,1120,,,a,1.4129,1,12,0,0,2,2,5,1,0,1,0,0,0,0,0,1,circle,star,,,,,,,,,,,,,,,,,,,,,,,,,,,,,,,,,,,,,,,,,,,,,,,,,,,,,,
296626,2022-11-28_14h41.22.064,vts_reward_expectancy_bt,2022.2.4,MacIntel,60.0024001,Chrome,1792,1120,,,a,1.7389,10,22,0,0,3,3,6,1,0,0,1,0,1,0,0,0,hexagon,triangle,,,,,,,,,,,,,,,,,,,,,,,,,,,,,,,,,,,,,,,,,,,,,,,,,,,,,,
296626,2022-11-28_14h41.22.064,vts_reward_expectancy_bt,2022.2.4,MacIntel,60.0024001,Chrome,1792,1120,,,l,2.305,1,23,0,0,4,4,3,1,0,1,0,0,1,0,0,0,circle,triangle,,,,,,,,,,,,,,,,,,,,,,,,,,,,,,,,,,,,,,,,,,,,,,,,,,,,,,
296626,2022-11-28_14h41.22.064,vts_reward_expectancy_bt,2022.2.4,MacIntel,60.0024001,Chrome,1792,1120,,,l,1.3239,1,24,0,0,5,5,4,1,0,1,0,0,0,0,1,0,circle,hexagon,,,,,,,,,,,,,,,,,,,,,,,,,,,,,,,,,,,,,,,,,,,,,,,,,,,,,,
296626,2022-11-28_14h41.22.064,vts_reward_expectancy_bt,2022.2.4,MacIntel,60.0024001,Chrome,1792,1120,,,l,1.4716,1,25,0,0,6,6,9,1,0,0,0,1,1,0,0,0,star,triangle,,,,,,,,,,,,,,,,,,,,,,,,,,,,,,,,,,,,,,,,,,,,,,,,,,,,,,
296626,2022-11-28_14h41.22.064,vts_reward_expectancy_bt,2022.2.4,MacIntel,60.0024001,Chrome,1792,1120,,,a,1.6558,10,35,0,0,7,7,2,1,1,0,0,0,0,0,0,1,triangle,star,,,,,,,,,,,,,,,,,,,,,,,,,,,,,,,,,,,,,,,,,,,,,,,,,,,,,,
296626,2022-11-28_14h41.22.064,vts_reward_expectancy_bt,2022.2.4,MacIntel,60.0024001,Chrome,1792,1120,,,a,2.6158,10,45,0,0,8,8,0,1,1,0,0,0,0,1,0,0,triangle,circle,,,,,,,,,,,,,,,,,,,,,,,,,,,,,,,,,,,,,,,,,,,,,,,,,,,,,,
296626,2022-11-28_14h41.22.064,vts_reward_expectancy_bt,2022.2.4,MacIntel,60.0024001,Chrome,1792,1120,,,a,1.1932,1,46,0,0,9,9,7,1,0,0,1,0,0,1,0,0,hexagon,circle,,,,,,,,,,,,,,,,,,,,,,,,,,,,,,,,,,,,,,,,,,,,,,,,,,,,,,
296626,2022-11-28_14h41.22.064,vts_reward_expectancy_bt,2022.2.4,MacIntel,60.0024001,Chrome,1792,1120,,,a,0.9305,1,47,0,0,10,10,8,1,0,0,1,0,0,0,0,1,hexagon,star,,,,,,,,,,,,,,,,,,,,,,,,,,,,,,,,,,,,,,,,,,,,,,,,,,,,,,
296626,2022-11-28_14h41.22.064,vts_reward_expectancy_bt,2022.2.4,MacIntel,60.0024001,Chrome,1792,1120,,,l,0.9098,1,48,0,0,11,11,10,1,0,0,0,1,0,1,0,0,star ,circle,,,,,,,,,,,,,,,,,,,,,,,,,,,,,,,,,,,,,,,,,,,,,,,,,,,,,,
296626,2022-11-28_14h41.22.064,vts_reward_expectancy_bt,2022.2.4,MacIntel,60.0024001,Chrome,1792,1120,,,a,1.1326,10,58,0,1,0,12,7,1,0,0,1,0,0,1,0,0,hexagon,circle,,,,,,,,,,,,,,,,,,,,,,,,,,,,,,,,,,,,,,,,,,,,,,,,,,,,,,
296626,2022-11-28_14h41.22.064,vts_reward_expectancy_bt,2022.2.4,MacIntel,60.0024001,Chrome,1792,1120,,,l,1.4219,1,59,0,1,1,13,1,1,1,0,0,0,0,0,1,0,triangle,hexagon,,,,,,,,,,,,,,,,,,,,,,,,,,,,,,,,,,,,,,,,,,,,,,,,,,,,,,
296626,2022-11-28_14h41.22.064,vts_reward_expectancy_bt,2022.2.4,MacIntel,60.0024001,Chrome,1792,1120,,,a,0.8916,1,60,0,1,2,14,2,1,1,0,0,0,0,0,0,1,triangle,star,,,,,,,,,,,,,,,,,,,,,,,,,,,,,,,,,,,,,,,,,,,,,,,,,,,,,,
296626,2022-11-28_14h41.22.064,vts_reward_expectancy_bt,2022.2.4,MacIntel,60.0024001,Chrome,1792,1120,,,a,0.7845,10,70,0,1,3,15,5,1,0,1,0,0,0,0,0,1,circle,star,,,,,,,,,,,,,,,,,,,,,,,,,,,,,,,,,,,,,,,,,,,,,,,,,,,,,,
296626,2022-11-28_14h41.22.064,vts_reward_expectancy_bt,2022.2.4,MacIntel,60.0024001,Chrome,1792,1120,,,l,0.8327,10,80,0,1,4,16,0,1,1,0,0,0,0,1,0,0,triangle,circle,,,,,,,,,,,,,,,,,,,,,,,,,,,,,,,,,,,,,,,,,,,,,,,,,,,,,,
296626,2022-11-28_14h41.22.064,vts_reward_expectancy_bt,2022.2.4,MacIntel,60.0024001,Chrome,1792,1120,,,a,1.0562,10,90,0,1,5,17,8,1,0,0,1,0,0,0,0,1,hexagon,star,,,,,,,,,,,,,,,,,,,,,,,,,,,,,,,,,,,,,,,,,,,,,,,,,,,,,,
296626,2022-11-28_14h41.22.064,vts_reward_expectancy_bt,2022.2.4,MacIntel,60.0024001,Chrome,1792,1120,,,a,1.9496,1,91,0,1,6,18,4,1,0,1,0,0,0,0,1,0,circle,hexagon,,,,,,,,,,,,,,,,,,,,,,,,,,,,,,,,,,,,,,,,,,,,,,,,,,,,,,
296626,2022-11-28_14h41.22.064,vts_reward_expectancy_bt,2022.2.4,MacIntel,60.0024001,Chrome,1792,1120,,,l,1.3461,1,92,0,1,7,19,9,1,0,0,0,1,1,0,0,0,star,triangle,,,,,,,,,,,,,,,,,,,,,,,,,,,,,,,,,,,,,,,,,,,,,,,,,,,,,,
296626,2022-11-28_14h41.22.064,vts_reward_expectancy_bt,2022.2.4,MacIntel,60.0024001,Chrome,1792,1120,,,a,0.9073,1,93,0,1,8,20,3,1,0,1,0,0,1,0,0,0,circle,triangle,,,,,,,,,,,,,,,,,,,,,,,,,,,,,,,,,,,,,,,,,,,,,,,,,,,,,,
296626,2022-11-28_14h41.22.064,vts_reward_expectancy_bt,2022.2.4,MacIntel,60.0024001,Chrome,1792,1120,,,l,0.9179,10,103,0,1,9,21,10,1,0,0,0,1,0,1,0,0,star ,circle,,,,,,,,,,,,,,,,,,,,,,,,,,,,,,,,,,,,,,,,,,,,,,,,,,,,,,
296626,2022-11-28_14h41.22.064,vts_reward_expectancy_bt,2022.2.4,MacIntel,60.0024001,Chrome,1792,1120,,,l,1.1761,10,113,0,1,10,22,11,1,0,0,0,1,0,0,1,0,star,hexagon,,,,,,,,,,,,,,,,,,,,,,,,,,,,,,,,,,,,,,,,,,,,,,,,,,,,,,
296626,2022-11-28_14h41.22.064,vts_reward_expectancy_bt,2022.2.4,MacIntel,60.0024001,Chrome,1792,1120,,,a,2.8046,10,123,0,1,11,23,6,1,0,0,1,0,1,0,0,0,hexagon,triangle,,,,,,,,,,,,,,,,,,,,,,,,,,,,,,,,,,,,,,,,,,,,,,,,,,,,,,
296626,2022-11-28_14h41.22.064,vts_reward_expectancy_bt,2022.2.4,MacIntel,60.0024001,Chrome,1792,1120,,,a,2.1557,10,133,0,2,0,24,10,1,0,0,0,1,0,1,0,0,star ,circle,,,,,,,,,,,,,,,,,,,,,,,,,,,,,,,,,,,,,,,,,,,,,,,,,,,,,,
296626,2022-11-28_14h41.22.064,vts_reward_expectancy_bt,2022.2.4,MacIntel,60.0024001,Chrome,1792,1120,,,l,1.8085,1,134,0,2,1,25,6,1,0,0,1,0,1,0,0,0,hexagon,triangle,,,,,,,,,,,,,,,,,,,,,,,,,,,,,,,,,,,,,,,,,,,,,,,,,,,,,,
296626,2022-11-28_14h41.22.064,vts_reward_expectancy_bt,2022.2.4,MacIntel,60.0024001,Chrome,1792,1120,,,l,1.4597,1,135,0,2,2,26,5,1,0,1,0,0,0,0,0,1,circle,star,,,,,,,,,,,,,,,,,,,,,,,,,,,,,,,,,,,,,,,,,,,,,,,,,,,,,,
296626,2022-11-28_14h41.22.064,vts_reward_expectancy_bt,2022.2.4,MacIntel,60.0024001,Chrome,1792,1120,,,a,1.4746,10,145,0,2,3,27,9,1,0,0,0,1,1,0,0,0,star,triangle,,,,,,,,,,,,,,,,,,,,,,,,,,,,,,,,,,,,,,,,,,,,,,,,,,,,,,
296626,2022-11-28_14h41.22.064,vts_reward_expectancy_bt,2022.2.4,MacIntel,60.0024001,Chrome,1792,1120,,,a,0.8659,1,146,0,2,4,28,0,1,1,0,0,0,0,1,0,0,triangle,circle,,,,,,,,,,,,,,,,,,,,,,,,,,,,,,,,,,,,,,,,,,,,,,,,,,,,,,
296626,2022-11-28_14h41.22.064,vts_reward_expectancy_bt,2022.2.4,MacIntel,60.0024001,Chrome,1792,1120,,,l,0.6719,10,156,0,2,5,29,11,1,0,0,0,1,0,0,1,0,star,hexagon,,,,,,,,,,,,,,,,,,,,,,,,,,,,,,,,,,,,,,,,,,,,,,,,,,,,,,
296626,2022-11-28_14h41.22.064,vts_reward_expectancy_bt,2022.2.4,MacIntel,60.0024001,Chrome,1792,1120,,,a,1.0005,10,166,0,2,6,30,8,1,0,0,1,0,0,0,0,1,hexagon,star,,,,,,,,,,,,,,,,,,,,,,,,,,,,,,,,,,,,,,,,,,,,,,,,,,,,,,
296626,2022-11-28_14h41.22.064,vts_reward_expectancy_bt,2022.2.4,MacIntel,60.0024001,Chrome,1792,1120,,,a,0.9414,1,167,0,2,7,31,7,1,0,0,1,0,0,1,0,0,hexagon,circle,,,,,,,,,,,,,,,,,,,,,,,,,,,,,,,,,,,,,,,,,,,,,,,,,,,,,,
296626,2022-11-28_14h41.22.064,vts_reward_expectancy_bt,2022.2.4,MacIntel,60.0024001,Chrome,1792,1120,,,l,1.1544,10,177,0,2,8,32,1,1,1,0,0,0,0,0,1,0,triangle,hexagon,,,,,,,,,,,,,,,,,,,,,,,,,,,,,,,,,,,,,,,,,,,,,,,,,,,,,,
296626,2022-11-28_14h41.22.064,vts_reward_expectancy_bt,2022.2.4,MacIntel,60.0024001,Chrome,1792,1120,,,a,1.2285,1,178,0,2,9,33,2,1,1,0,0,0,0,0,0,1,triangle,star,,,,,,,,,,,,,,,,,,,,,,,,,,,,,,,,,,,,,,,,,,,,,,,,,,,,,,
296626,2022-11-28_14h41.22.064,vts_reward_expectancy_bt,2022.2.4,MacIntel,60.0024001,Chrome,1792,1120,,,l,1.0845,1,179,0,2,10,34,3,1,0,1,0,0,1,0,0,0,circle,triangle,,,,,,,,,,,,,,,,,,,,,,,,,,,,,,,,,,,,,,,,,,,,,,,,,,,,,,
296626,2022-11-28_14h41.22.064,vts_reward_expectancy_bt,2022.2.4,MacIntel,60.0024001,Chrome,1792,1120,,,l,0.9743,10,189,0,2,11,35,4,1,0,1,0,0,0,0,1,0,circle,hexagon,,,,,,,,,,,,,,,,,,,,,,,,,,,,,,,,,,,,,,,,,,,,,,,,,,,,,,
296626,2022-11-28_14h41.22.064,vts_reward_expectancy_bt,2022.2.4,MacIntel,60.0024001,Chrome,1792,1120,,,a,3.5649,10,199,1,0,0,0,10,1,0,0,0,1,0,1,0,0,star ,circle,,,,,,,,,,,,,,,,,,,,,,,,,,,,,,,,,,,,,,,,,,,,,,,,,,,,,,
296626,2022-11-28_14h41.22.064,vts_reward_expectancy_bt,2022.2.4,MacIntel,60.0024001,Chrome,1792,1120,,,l,9.6394,10,209,1,0,1,1,5,1,0,1,0,0,0,0,0,1,circle,star,,,,,,,,,,,,,,,,,,,,,,,,,,,,,,,,,,,,,,,,,,,,,,,,,,,,,,
296626,2022-11-28_14h41.22.064,vts_reward_expectancy_bt,2022.2.4,MacIntel,60.0024001,Chrome,1792,1120,,,a,1.4067,10,219,1,0,2,2,8,1,0,0,1,0,0,0,0,1,hexagon,star,,,,,,,,,,,,,,,,,,,,,,,,,,,,,,,,,,,,,,,,,,,,,,,,,,,,,,
296626,2022-11-28_14h41.22.064,vts_reward_expectancy_bt,2022.2.4,MacIntel,60.0024001,Chrome,1792,1120,,,a,10.2653,10,229,1,0,3,3,7,1,0,0,1,0,0,1,0,0,hexagon,circle,,,,,,,,,,,,,,,,,,,,,,,,,,,,,,,,,,,,,,,,,,,,,,,,,,,,,,
296626,2022-11-28_14h41.22.064,vts_reward_expectancy_bt,2022.2.4,MacIntel,60.0024001,Chrome,1792,1120,,,a,2.2075,1,230,1,0,4,4,4,1,0,1,0,0,0,0,1,0,circle,hexagon,,,,,,,,,,,,,,,,,,,,,,,,,,,,,,,,,,,,,,,,,,,,,,,,,,,,,,
296626,2022-11-28_14h41.22.064,vts_reward_expectancy_bt,2022.2.4,MacIntel,60.0024001,Chrome,1792,1120,,,l,1.9227,1,231,1,0,5,5,1,1,1,0,0,0,0,0,1,0,triangle,hexagon,,,,,,,,,,,,,,,,,,,,,,,,,,,,,,,,,,,,,,,,,,,,,,,,,,,,,,
296626,2022-11-28_14h41.22.064,vts_reward_expectancy_bt,2022.2.4,MacIntel,60.0024001,Chrome,1792,1120,,,a,0.9417,1,232,1,0,6,6,0,1,1,0,0,0,0,1,0,0,triangle,circle,,,,,,,,,,,,,,,,,,,,,,,,,,,,,,,,,,,,,,,,,,,,,,,,,,,,,,
296626,2022-11-28_14h41.22.064,vts_reward_expectancy_bt,2022.2.4,MacIntel,60.0024001,Chrome,1792,1120,,,l,1.1045,10,242,1,0,7,7,11,1,0,0,0,1,0,0,1,0,star,hexagon,,,,,,,,,,,,,,,,,,,,,,,,,,,,,,,,,,,,,,,,,,,,,,,,,,,,,,
296626,2022-11-28_14h41.22.064,vts_reward_expectancy_bt,2022.2.4,MacIntel,60.0024001,Chrome,1792,1120,,,l,1.6055,1,243,1,0,8,8,2,1,1,0,0,0,0,0,0,1,triangle,star,,,,,,,,,,,,,,,,,,,,,,,,,,,,,,,,,,,,,,,,,,,,,,,,,,,,,,
296626,2022-11-28_14h41.22.064,vts_reward_expectancy_bt,2022.2.4,MacIntel,60.0024001,Chrome,1792,1120,,,a,1.3138,10,253,1,0,9,9,6,1,0,0,1,0,1,0,0,0,hexagon,triangle,,,,,,,,,,,,,,,,,,,,,,,,,,,,,,,,,,,,,,,,,,,,,,,,,,,,,,
296626,2022-11-28_14h41.22.064,vts_reward_expectancy_bt,2022.2.4,MacIntel,60.0024001,Chrome,1792,1120,,,a,5.0383,1,254,1,0,10,10,9,1,0,0,0,1,1,0,0,0,star,triangle,,,,,,,,,,,,,,,,,,,,,,,,,,,,,,,,,,,,,,,,,,,,,,,,,,,,,,
296626,2022-11-28_14h41.22.064,vts_reward_expectancy_bt,2022.2.4,MacIntel,60.0024001,Chrome,1792,1120,,,l,1.793,1,255,1,0,11,11,3,1,0,1,0,0,1,0,0,0,circle,triangle,,,,,,,,,,,,,,,,,,,,,,,,,,,,,,,,,,,,,,,,,,,,,,,,,,,,,,
296626,2022-11-28_14h41.22.064,vts_reward_expectancy_bt,2022.2.4,MacIntel,60.0024001,Chrome,1792,1120,,,l,1.3979,10,265,1,1,0,12,2,1,1,0,0,0,0,0,0,1,triangle,star,,,,,,,,,,,,,,,,,,,,,,,,,,,,,,,,,,,,,,,,,,,,,,,,,,,,,,
296626,2022-11-28_14h41.22.064,vts_reward_expectancy_bt,2022.2.4,MacIntel,60.0024001,Chrome,1792,1120,,,a,1.3483,10,275,1,1,1,13,6,1,0,0,1,0,1,0,0,0,hexagon,triangle,,,,,,,,,,,,,,,,,,,,,,,,,,,,,,,,,,,,,,,,,,,,,,,,,,,,,,
296626,2022-11-28_14h41.22.064,vts_reward_expectancy_bt,2022.2.4,MacIntel,60.0024001,Chrome,1792,1120,,,a,2.4082,10,285,1,1,2,14,8,1,0,0,1,0,0,0,0,1,hexagon,star,,,,,,,,,,,,,,,,,,,,,,,,,,,,,,,,,,,,,,,,,,,,,,,,,,,,,,
296626,2022-11-28_14h41.22.064,vts_reward_expectancy_bt,2022.2.4,MacIntel,60.0024001,Chrome,1792,1120,,,l,0.879,10,295,1,1,3,15,1,1,1,0,0,0,0,0,1,0,triangle,hexagon,,,,,,,,,,,,,,,,,,,,,,,,,,,,,,,,,,,,,,,,,,,,,,,,,,,,,,
296626,2022-11-28_14h41.22.064,vts_reward_expectancy_bt,2022.2.4,MacIntel,60.0024001,Chrome,1792,1120,,,l,1.577,10,305,1,1,4,16,5,1,0,1,0,0,0,0,0,1,circle,star,,,,,,,,,,,,,,,,,,,,,,,,,,,,,,,,,,,,,,,,,,,,,,,,,,,,,,
296626,2022-11-28_14h41.22.064,vts_reward_expectancy_bt,2022.2.4,MacIntel,60.0024001,Chrome,1792,1120,,,a,1.3327,10,315,1,1,5,17,10,1,0,0,0,1,0,1,0,0,star ,circle,,,,,,,,,,,,,,,,,,,,,,,,,,,,,,,,,,,,,,,,,,,,,,,,,,,,,,
296626,2022-11-28_14h41.22.064,vts_reward_expectancy_bt,2022.2.4,MacIntel,60.0024001,Chrome,1792,1120,,,a,0.9737,1,316,1,1,6,18,7,1,0,0,1,0,0,1,0,0,hexagon,circle,,,,,,,,,,,,,,,,,,,,,,,,,,,,,,,,,,,,,,,,,,,,,,,,,,,,,,
296626,2022-11-28_14h41.22.064,vts_reward_expectancy_bt,2022.2.4,MacIntel,60.0024001,Chrome,1792,1120,,,a,1.3077,10,326,1,1,7,19,9,1,0,0,0,1,1,0,0,0,star,triangle,,,,,,,,,,,,,,,,,,,,,,,,,,,,,,,,,,,,,,,,,,,,,,,,,,,,,,
296626,2022-11-28_14h41.22.064,vts_reward_expectancy_bt,2022.2.4,MacIntel,60.0024001,Chrome,1792,1120,,,l,1.0821,10,336,1,1,8,20,0,1,1,0,0,0,0,1,0,0,triangle,circle,,,,,,,,,,,,,,,,,,,,,,,,,,,,,,,,,,,,,,,,,,,,,,,,,,,,,,
296626,2022-11-28_14h41.22.064,vts_reward_expectancy_bt,2022.2.4,MacIntel,60.0024001,Chrome,1792,1120,,,a,1.7257,1,337,1,1,9,21,11,1,0,0,0,1,0,0,1,0,star,hexagon,,,,,,,,,,,,,,,,,,,,,,,,,,,,,,,,,,,,,,,,,,,,,,,,,,,,,,
296626,2022-11-28_14h41.22.064,vts_reward_expectancy_bt,2022.2.4,MacIntel,60.0024001,Chrome,1792,1120,,,l,1.2267,1,338,1,1,10,22,4,1,0,1,0,0,0,0,1,0,circle,hexagon,,,,,,,,,,,,,,,,,,,,,,,,,,,,,,,,,,,,,,,,,,,,,,,,,,,,,,
296626,2022-11-28_14h41.22.064,vts_reward_expectancy_bt,2022.2.4,MacIntel,60.0024001,Chrome,1792,1120,,,a,1.1167,1,339,1,1,11,23,3,1,0,1,0,0,1,0,0,0,circle,triangle,,,,,,,,,,,,,,,,,,,,,,,,,,,,,,,,,,,,,,,,,,,,,,,,,,,,,,
296626,2022-11-28_14h41.22.064,vts_reward_expectancy_bt,2022.2.4,MacIntel,60.0024001,Chrome,1792,1120,,,l,0.9432,1,340,1,2,0,24,2,1,1,0,0,0,0,0,0,1,triangle,star,,,,,,,,,,,,,,,,,,,,,,,,,,,,,,,,,,,,,,,,,,,,,,,,,,,,,,
296626,2022-11-28_14h41.22.064,vts_reward_expectancy_bt,2022.2.4,MacIntel,60.0024001,Chrome,1792,1120,,,a,1.5031,10,350,1,2,1,25,11,1,0,0,0,1,0,0,1,0,star,hexagon,,,,,,,,,,,,,,,,,,,,,,,,,,,,,,,,,,,,,,,,,,,,,,,,,,,,,,
296626,2022-11-28_14h41.22.064,vts_reward_expectancy_bt,2022.2.4,MacIntel,60.0024001,Chrome,1792,1120,,,l,1.3634,1,351,1,2,2,26,8,1,0,0,1,0,0,0,0,1,hexagon,star,,,,,,,,,,,,,,,,,,,,,,,,,,,,,,,,,,,,,,,,,,,,,,,,,,,,,,
296626,2022-11-28_14h41.22.064,vts_reward_expectancy_bt,2022.2.4,MacIntel,60.0024001,Chrome,1792,1120,,,a,1.8898,1,352,1,2,3,27,1,1,1,0,0,0,0,0,1,0,triangle,hexagon,,,,,,,,,,,,,,,,,,,,,,,,,,,,,,,,,,,,,,,,,,,,,,,,,,,,,,
296626,2022-11-28_14h41.22.064,vts_reward_expectancy_bt,2022.2.4,MacIntel,60.0024001,Chrome,1792,1120,,,a,1.0557,1,353,1,2,4,28,9,1,0,0,0,1,1,0,0,0,star,triangle,,,,,,,,,,,,,,,,,,,,,,,,,,,,,,,,,,,,,,,,,,,,,,,,,,,,,,
296626,2022-11-28_14h41.22.064,vts_reward_expectancy_bt,2022.2.4,MacIntel,60.0024001,Chrome,1792,1120,,,l,1.0498,1,354,1,2,5,29,5,1,0,1,0,0,0,0,0,1,circle,star,,,,,,,,,,,,,,,,,,,,,,,,,,,,,,,,,,,,,,,,,,,,,,,,,,,,,,
296626,2022-11-28_14h41.22.064,vts_reward_expectancy_bt,2022.2.4,MacIntel,60.0024001,Chrome,1792,1120,,,l,1.0732,10,364,1,2,6,30,10,1,0,0,0,1,0,1,0,0,star ,circle,,,,,,,,,,,,,,,,,,,,,,,,,,,,,,,,,,,,,,,,,,,,,,,,,,,,,,
296626,2022-11-28_14h41.22.064,vts_reward_expectancy_bt,2022.2.4,MacIntel,60.0024001,Chrome,1792,1120,,,l,1.8724,10,374,1,2,7,31,3,1,0,1,0,0,1,0,0,0,circle,triangle,,,,,,,,,,,,,,,,,,,,,,,,,,,,,,,,,,,,,,,,,,,,,,,,,,,,,,
296626,2022-11-28_14h41.22.064,vts_reward_expectancy_bt,2022.2.4,MacIntel,60.0024001,Chrome,1792,1120,,,a,1.3391,1,375,1,2,8,32,6,1,0,0,1,0,1,0,0,0,hexagon,triangle,,,,,,,,,,,,,,,,,,,,,,,,,,,,,,,,,,,,,,,,,,,,,,,,,,,,,,
296626,2022-11-28_14h41.22.064,vts_reward_expectancy_bt,2022.2.4,MacIntel,60.0024001,Chrome,1792,1120,,,l,1.2422,10,385,1,2,9,33,4,1,0,1,0,0,0,0,1,0,circle,hexagon,,,,,,,,,,,,,,,,,,,,,,,,,,,,,,,,,,,,,,,,,,,,,,,,,,,,,,
296626,2022-11-28_14h41.22.064,vts_reward_expectancy_bt,2022.2.4,MacIntel,60.0024001,Chrome,1792,1120,,,a,1.0571,10,395,1,2,10,34,7,1,0,0,1,0,0,1,0,0,hexagon,circle,,,,,,,,,,,,,,,,,,,,,,,,,,,,,,,,,,,,,,,,,,,,,,,,,,,,,,
296626,2022-11-28_14h41.22.064,vts_reward_expectancy_bt,2022.2.4,MacIntel,60.0024001,Chrome,1792,1120,,,l,1.9184,10,405,1,2,11,35,0,1,1,0,0,0,0,1,0,0,triangle,circle,,,,,,,,,,,,,,,,,,,,,,,,,,,,,,,,,,,,,,,,,,,,,,,,,,,,,,
296626,2022-11-28_14h41.22.064,vts_reward_expectancy_bt,2022.2.4,MacIntel,60.0024001,Chrome,1792,1120,,,l,0.9174,10,415,2,0,0,0,8,1,0,0,1,0,0,0,0,1,hexagon,star,,,,,,,,,,,,,,,,,,,,,,,,,,,,,,,,,,,,,,,,,,,,,,,,,,,,,,
296626,2022-11-28_14h41.22.064,vts_reward_expectancy_bt,2022.2.4,MacIntel,60.0024001,Chrome,1792,1120,,,a,1.1173,10,425,2,0,1,1,10,1,0,0,0,1,0,1,0,0,star ,circle,,,,,,,,,,,,,,,,,,,,,,,,,,,,,,,,,,,,,,,,,,,,,,,,,,,,,,
296626,2022-11-28_14h41.22.064,vts_reward_expectancy_bt,2022.2.4,MacIntel,60.0024001,Chrome,1792,1120,,,l,1.2897,1,426,2,0,2,2,5,1,0,1,0,0,0,0,0,1,circle,star,,,,,,,,,,,,,,,,,,,,,,,,,,,,,,,,,,,,,,,,,,,,,,,,,,,,,,
296626,2022-11-28_14h41.22.064,vts_reward_expectancy_bt,2022.2.4,MacIntel,60.0024001,Chrome,1792,1120,,,l,1.2668,1,427,2,0,3,3,0,1,1,0,0,0,0,1,0,0,triangle,circle,,,,,,,,,,,,,,,,,,,,,,,,,,,,,,,,,,,,,,,,,,,,,,,,,,,,,,
296626,2022-11-28_14h41.22.064,vts_reward_expectancy_bt,2022.2.4,MacIntel,60.0024001,Chrome,1792,1120,,,a,0.7103,1,428,2,0,4,4,11,1,0,0,0,1,0,0,1,0,star,hexagon,,,,,,,,,,,,,,,,,,,,,,,,,,,,,,,,,,,,,,,,,,,,,,,,,,,,,,
296626,2022-11-28_14h41.22.064,vts_reward_expectancy_bt,2022.2.4,MacIntel,60.0024001,Chrome,1792,1120,,,a,0.7999,10,438,2,0,5,5,6,1,0,0,1,0,1,0,0,0,hexagon,triangle,,,,,,,,,,,,,,,,,,,,,,,,,,,,,,,,,,,,,,,,,,,,,,,,,,,,,,
296626,2022-11-28_14h41.22.064,vts_reward_expectancy_bt,2022.2.4,MacIntel,60.0024001,Chrome,1792,1120,,,l,0.6557,1,439,2,0,6,6,1,1,1,0,0,0,0,0,1,0,triangle,hexagon,,,,,,,,,,,,,,,,,,,,,,,,,,,,,,,,,,,,,,,,,,,,,,,,,,,,,,
296626,2022-11-28_14h41.22.064,vts_reward_expectancy_bt,2022.2.4,MacIntel,60.0024001,Chrome,1792,1120,,,a,0.3825,1,440,2,0,7,7,7,1,0,0,1,0,0,1,0,0,hexagon,circle,,,,,,,,,,,,,,,,,,,,,,,,,,,,,,,,,,,,,,,,,,,,,,,,,,,,,,
296626,2022-11-28_14h41.22.064,vts_reward_expectancy_bt,2022.2.4,MacIntel,60.0024001,Chrome,1792,1120,,,l,0.8633,1,441,2,0,8,8,2,1,1,0,0,0,0,0,0,1,triangle,star,,,,,,,,,,,,,,,,,,,,,,,,,,,,,,,,,,,,,,,,,,,,,,,,,,,,,,
296626,2022-11-28_14h41.22.064,vts_reward_expectancy_bt,2022.2.4,MacIntel,60.0024001,Chrome,1792,1120,,,a,1.1802,1,442,2,0,9,9,3,1,0,1,0,0,1,0,0,0,circle,triangle,,,,,,,,,,,,,,,,,,,,,,,,,,,,,,,,,,,,,,,,,,,,,,,,,,,,,,
296626,2022-11-28_14h41.22.064,vts_reward_expectancy_bt,2022.2.4,MacIntel,60.0024001,Chrome,1792,1120,,,l,0.6318,1,443,2,0,10,10,4,1,0,1,0,0,0,0,1,0,circle,hexagon,,,,,,,,,,,,,,,,,,,,,,,,,,,,,,,,,,,,,,,,,,,,,,,,,,,,,,
296626,2022-11-28_14h41.22.064,vts_reward_expectancy_bt,2022.2.4,MacIntel,60.0024001,Chrome,1792,1120,,,a,0.7583,10,453,2,0,11,11,9,1,0,0,0,1,1,0,0,0,star,triangle,,,,,,,,,,,,,,,,,,,,,,,,,,,,,,,,,,,,,,,,,,,,,,,,,,,,,,
296626,2022-11-28_14h41.22.064,vts_reward_expectancy_bt,2022.2.4,MacIntel,60.0024001,Chrome,1792,1120,,,a,0.7826,10,463,2,1,0,12,10,1,0,0,0,1,0,1,0,0,star ,circle,,,,,,,,,,,,,,,,,,,,,,,,,,,,,,,,,,,,,,,,,,,,,,,,,,,,,,
296626,2022-11-28_14h41.22.064,vts_reward_expectancy_bt,2022.2.4,MacIntel,60.0024001,Chrome,1792,1120,,,a,0.7881,10,473,2,1,1,13,9,1,0,0,0,1,1,0,0,0,star,triangle,,,,,,,,,,,,,,,,,,,,,,,,,,,,,,,,,,,,,,,,,,,,,,,,,,,,,,
296626,2022-11-28_14h41.22.064,vts_reward_expectancy_bt,2022.2.4,MacIntel,60.0024001,Chrome,1792,1120,,,a,1.2306,1,474,2,1,2,14,6,1,0,0,1,0,1,0,0,0,hexagon,triangle,,,,,,,,,,,,,,,,,,,,,,,,,,,,,,,,,,,,,,,,,,,,,,,,,,,,,,
296626,2022-11-28_14h41.22.064,vts_reward_expectancy_bt,2022.2.4,MacIntel,60.0024001,Chrome,1792,1120,,,l,0.8484,10,484,2,1,3,15,5,1,0,1,0,0,0,0,0,1,circle,star,,,,,,,,,,,,,,,,,,,,,,,,,,,,,,,,,,,,,,,,,,,,,,,,,,,,,,
296626,2022-11-28_14h41.22.064,vts_reward_expectancy_bt,2022.2.4,MacIntel,60.0024001,Chrome,1792,1120,,,a,1.6063,1,485,2,1,4,16,0,1,1,0,0,0,0,1,0,0,triangle,circle,,,,,,,,,,,,,,,,,,,,,,,,,,,,,,,,,,,,,,,,,,,,,,,,,,,,,,
296626,2022-11-28_14h41.22.064,vts_reward_expectancy_bt,2022.2.4,MacIntel,60.0024001,Chrome,1792,1120,,,a,0.7571,10,495,2,1,5,17,7,1,0,0,1,0,0,1,0,0,hexagon,circle,,,,,,,,,,,,,,,,,,,,,,,,,,,,,,,,,,,,,,,,,,,,,,,,,,,,,,
296626,2022-11-28_14h41.22.064,vts_reward_expectancy_bt,2022.2.4,MacIntel,60.0024001,Chrome,1792,1120,,,l,0.8647,10,505,2,1,6,18,2,1,1,0,0,0,0,0,0,1,triangle,star,,,,,,,,,,,,,,,,,,,,,,,,,,,,,,,,,,,,,,,,,,,,,,,,,,,,,,
296626,2022-11-28_14h41.22.064,vts_reward_expectancy_bt,2022.2.4,MacIntel,60.0024001,Chrome,1792,1120,,,l,1.0925,1,506,2,1,7,19,3,1,0,1,0,0,1,0,0,0,circle,triangle,,,,,,,,,,,,,,,,,,,,,,,,,,,,,,,,,,,,,,,,,,,,,,,,,,,,,,
296626,2022-11-28_14h41.22.064,vts_reward_expectancy_bt,2022.2.4,MacIntel,60.0024001,Chrome,1792,1120,,,l,1.1642,10,516,2,1,8,20,1,1,1,0,0,0,0,0,1,0,triangle,hexagon,,,,,,,,,,,,,,,,,,,,,,,,,,,,,,,,,,,,,,,,,,,,,,,,,,,,,,
296626,2022-11-28_14h41.22.064,vts_reward_expectancy_bt,2022.2.4,MacIntel,60.0024001,Chrome,1792,1120,,,a,2.0122,10,526,2,1,9,21,4,1,0,1,0,0,0,0,1,0,circle,hexagon,,,,,,,,,,,,,,,,,,,,,,,,,,,,,,,,,,,,,,,,,,,,,,,,,,,,,,
296626,2022-11-28_14h41.22.064,vts_reward_expectancy_bt,2022.2.4,MacIntel,60.0024001,Chrome,1792,1120,,,l,0.9248,10,536,2,1,10,22,8,1,0,0,1,0,0,0,0,1,hexagon,star,,,,,,,,,,,,,,,,,,,,,,,,,,,,,,,,,,,,,,,,,,,,,,,,,,,,,,
296626,2022-11-28_14h41.22.064,vts_reward_expectancy_bt,2022.2.4,MacIntel,60.0024001,Chrome,1792,1120,,,a,1.2218,10,546,2,1,11,23,11,1,0,0,0,1,0,0,1,0,star,hexagon,,,,,,,,,,,,,,,,,,,,,,,,,,,,,,,,,,,,,,,,,,,,,,,,,,,,,,
296626,2022-11-28_14h41.22.064,vts_reward_expectancy_bt,2022.2.4,MacIntel,60.0024001,Chrome,1792,1120,,,a,1.4617,10,556,2,2,0,24,10,1,0,0,0,1,0,1,0,0,star ,circle,,,,,,,,,,,,,,,,,,,,,,,,,,,,,,,,,,,,,,,,,,,,,,,,,,,,,,
296626,2022-11-28_14h41.22.064,vts_reward_expectancy_bt,2022.2.4,MacIntel,60.0024001,Chrome,1792,1120,,,l,1.2575,10,566,2,2,1,25,7,1,0,0,1,0,0,1,0,0,hexagon,circle,,,,,,,,,,,,,,,,,,,,,,,,,,,,,,,,,,,,,,,,,,,,,,,,,,,,,,
296626,2022-11-28_14h41.22.064,vts_reward_expectancy_bt,2022.2.4,MacIntel,60.0024001,Chrome,1792,1120,,,a,0.9976,1,567,2,2,2,26,1,1,1,0,0,0,0,0,1,0,triangle,hexagon,,,,,,,,,,,,,,,,,,,,,,,,,,,,,,,,,,,,,,,,,,,,,,,,,,,,,,
296626,2022-11-28_14h41.22.064,vts_reward_expectancy_bt,2022.2.4,MacIntel,60.0024001,Chrome,1792,1120,,,a,1.624,10,577,2,2,3,27,3,1,0,1,0,0,1,0,0,0,circle,triangle,,,,,,,,,,,,,,,,,,,,,,,,,,,,,,,,,,,,,,,,,,,,,,,,,,,,,,
296626,2022-11-28_14h41.22.064,vts_reward_expectancy_bt,2022.2.4,MacIntel,60.0024001,Chrome,1792,1120,,,l,1.3791,1,578,2,2,4,28,6,1,0,0,1,0,1,0,0,0,hexagon,triangle,,,,,,,,,,,,,,,,,,,,,,,,,,,,,,,,,,,,,,,,,,,,,,,,,,,,,,
296626,2022-11-28_14h41.22.064,vts_reward_expectancy_bt,2022.2.4,MacIntel,60.0024001,Chrome,1792,1120,,,l,2.0366,10,588,2,2,5,29,0,1,1,0,0,0,0,1,0,0,triangle,circle,,,,,,,,,,,,,,,,,,,,,,,,,,,,,,,,,,,,,,,,,,,,,,,,,,,,,,
296626,2022-11-28_14h41.22.064,vts_reward_expectancy_bt,2022.2.4,MacIntel,60.0024001,Chrome,1792,1120,,,a,0.9087,1,589,2,2,6,30,11,1,0,0,0,1,0,0,1,0,star,hexagon,,,,,,,,,,,,,,,,,,,,,,,,,,,,,,,,,,,,,,,,,,,,,,,,,,,,,,
296626,2022-11-28_14h41.22.064,vts_reward_expectancy_bt,2022.2.4,MacIntel,60.0024001,Chrome,1792,1120,,,a,1.2074,10,599,2,2,7,31,4,1,0,1,0,0,0,0,1,0,circle,hexagon,,,,,,,,,,,,,,,,,,,,,,,,,,,,,,,,,,,,,,,,,,,,,,,,,,,,,,
296626,2022-11-28_14h41.22.064,vts_reward_expectancy_bt,2022.2.4,MacIntel,60.0024001,Chrome,1792,1120,,,l,0.8497,1,600,2,2,8,32,8,1,0,0,1,0,0,0,0,1,hexagon,star,,,,,,,,,,,,,,,,,,,,,,,,,,,,,,,,,,,,,,,,,,,,,,,,,,,,,,
296626,2022-11-28_14h41.22.064,vts_reward_expectancy_bt,2022.2.4,MacIntel,60.0024001,Chrome,1792,1120,,,a,0.7443,1,601,2,2,9,33,9,1,0,0,0,1,1,0,0,0,star,triangle,,,,,,,,,,,,,,,,,,,,,,,,,,,,,,,,,,,,,,,,,,,,,,,,,,,,,,
296626,2022-11-28_14h41.22.064,vts_reward_expectancy_bt,2022.2.4,MacIntel,60.0024001,Chrome,1792,1120,,,l,0.7876,1,602,2,2,10,34,5,1,0,1,0,0,0,0,0,1,circle,star,,,,,,,,,,,,,,,,,,,,,,,,,,,,,,,,,,,,,,,,,,,,,,,,,,,,,,
296626,2022-11-28_14h41.22.064,vts_reward_expectancy_bt,2022.2.4,MacIntel,60.0024001,Chrome,1792,1120,,,a,0.5089,1,603,2,2,11,35,2,1,1,0,0,0,0,0,0,1,triangle,star,,,,,,,,,,,,,,,,,,,,,,,,,,,,,,,,,,,,,,,,,,,,,,,,,,,,,,
296626,2022-11-28_14h41.22.064,vts_reward_expectancy_bt,2022.2.4,MacIntel,60.0024001,Chrome,1792,1120,,,,,,,,,,,,,,,,,,,,,,,S,174,hexagon,0,0,,0,0,0,0,0,1,,,,,,,,,,,,,,,,,,,,,,,,,,,,,,,,,,,,,,,,,,
296626,2022-11-28_14h41.22.064,vts_reward_expectancy_bt,2022.2.4,MacIntel,60.0024001,Chrome,1792,1120,,,,,,,,,,,,,,,,,,,,,,,F,181,star,0,1,f,0,1,0,1,0,1,0.8661,,,,,,,,,,,,,,,,,,,,,,,,,,,,,,,,,,,,,,,,,
296626,2022-11-28_14h41.22.064,vts_reward_expectancy_bt,2022.2.4,MacIntel,60.0024001,Chrome,1792,1120,,,,,,,,,,,,,,,,,,,,,,,B,146,circle,1,1,d,0,2,0,2,0,1,0.3003,,,,,,,,,,,,,,,,,,,,,,,,,,,,,,,,,,,,,,,,,
296626,2022-11-28_14h41.22.064,vts_reward_expectancy_bt,2022.2.4,MacIntel,60.0024001,Chrome,1792,1120,,,,,,,,,,,,,,,,,,,,,,,D,132,triangle,1,0,d,0,3,0,3,0,1,1.9816,,,,,,,,,,,,,,,,,,,,,,,,,,,,,,,,,,,,,,,,,
296626,2022-11-28_14h41.22.064,vts_reward_expectancy_bt,2022.2.4,MacIntel,60.0024001,Chrome,1792,1120,,,,,,,,,,,,,,,,,,,,,,,Y,160,hexagon,1,0,f,0,4,0,4,0,1,1.0841,,,,,,,,,,,,,,,,,,,,,,,,,,,,,,,,,,,,,,,,,
296626,2022-11-28_14h41.22.064,vts_reward_expectancy_bt,2022.2.4,MacIntel,60.0024001,Chrome,1792,1120,,,,,,,,,,,,,,,,,,,,,,,W,167,star,1,0,f,0,5,0,5,0,1,1.2952,,,,,,,,,,,,,,,,,,,,,,,,,,,,,,,,,,,,,,,,,
296626,2022-11-28_14h41.22.064,vts_reward_expectancy_bt,2022.2.4,MacIntel,60.0024001,Chrome,1792,1120,,,,,,,,,,,,,,,,,,,,,,,H,125,circle,1,0,d,0,6,0,6,0,1,1.2464,,,,,,,,,,,,,,,,,,,,,,,,,,,,,,,,,,,,,,,,,
296626,2022-11-28_14h41.22.064,vts_reward_expectancy_bt,2022.2.4,MacIntel,60.0024001,Chrome,1792,1120,,,,,,,,,,,,,,,,,,,,,,,U,139,triangle,1,0,f,0,7,0,7,0,1,0.8175,,,,,,,,,,,,,,,,,,,,,,,,,,,,,,,,,,,,,,,,,
296626,2022-11-28_14h41.22.064,vts_reward_expectancy_bt,2022.2.4,MacIntel,60.0024001,Chrome,1792,1120,,,,,,,,,,,,,,,,,,,,,,,S,174,hexagon,1,0,f,0,8,0,8,0,1,0.8706,,,,,,,,,,,,,,,,,,,,,,,,,,,,,,,,,,,,,,,,,
296626,2022-11-28_14h41.22.064,vts_reward_expectancy_bt,2022.2.4,MacIntel,60.0024001,Chrome,1792,1120,,,,,,,,,,,,,,,,,,,,,,,F,181,triangle,1,0,d,0,9,0,9,0,1,0.9989,,,,,,,,,,,,,,,,,,,,,,,,,,,,,,,,,,,,,,,,,
296626,2022-11-28_14h41.22.064,vts_reward_expectancy_bt,2022.2.4,MacIntel,60.0024001,Chrome,1792,1120,,,,,,,,,,,,,,,,,,,,,,,W,181,hexagon,1,0,f,1,0,0,0,0,1,1.066,,,,,,,,,,,,,,,,,,,,,,,,,,,,,,,,,,,,,,,,,
296626,2022-11-28_14h41.22.064,vts_reward_expectancy_bt,2022.2.4,MacIntel,60.0024001,Chrome,1792,1120,,,,,,,,,,,,,,,,,,,,,,,B,160,triangle,1,0,d,1,1,0,1,0,1,0.6546,,,,,,,,,,,,,,,,,,,,,,,,,,,,,,,,,,,,,,,,,
296626,2022-11-28_14h41.22.064,vts_reward_expectancy_bt,2022.2.4,MacIntel,60.0024001,Chrome,1792,1120,,,,,,,,,,,,,,,,,,,,,,,D,139,circle,1,0,d,1,2,0,2,0,1,0.6865,,,,,,,,,,,,,,,,,,,,,,,,,,,,,,,,,,,,,,,,,
296626,2022-11-28_14h41.22.064,vts_reward_expectancy_bt,2022.2.4,MacIntel,60.0024001,Chrome,1792,1120,,,,,,,,,,,,,,,,,,,,,,,U,125,star,1,0,f,1,3,0,3,0,1,0.7663,,,,,,,,,,,,,,,,,,,,,,,,,,,,,,,,,,,,,,,,,
296626,2022-11-28_14h41.22.064,vts_reward_expectancy_bt,2022.2.4,MacIntel,60.0024001,Chrome,1792,1120,,,,,,,,,,,,,,,,,,,,,,,S,167,hexagon,1,0,f,1,4,0,4,0,1,0.9977,,,,,,,,,,,,,,,,,,,,,,,,,,,,,,,,,,,,,,,,,
296626,2022-11-28_14h41.22.064,vts_reward_expectancy_bt,2022.2.4,MacIntel,60.0024001,Chrome,1792,1120,,,,,,,,,,,,,,,,,,,,,,,F,132,triangle,1,0,d,1,5,0,5,0,1,0.9167,,,,,,,,,,,,,,,,,,,,,,,,,,,,,,,,,,,,,,,,,
296626,2022-11-28_14h41.22.064,vts_reward_expectancy_bt,2022.2.4,MacIntel,60.0024001,Chrome,1792,1120,,,,,,,,,,,,,,,,,,,,,,,H,174,circle,1,0,d,1,6,0,6,0,1,0.9536,,,,,,,,,,,,,,,,,,,,,,,,,,,,,,,,,,,,,,,,,
296626,2022-11-28_14h41.22.064,vts_reward_expectancy_bt,2022.2.4,MacIntel,60.0024001,Chrome,1792,1120,,,,,,,,,,,,,,,,,,,,,,,Y,146,star,1,0,f,1,7,0,7,0,1,0.9299,,,,,,,,,,,,,,,,,,,,,,,,,,,,,,,,,,,,,,,,,
296626,2022-11-28_14h41.22.064,vts_reward_expectancy_bt,2022.2.4,MacIntel,60.0024001,Chrome,1792,1120,,,,,,,,,,,,,,,,,,,,,,,W,181,star,1,0,f,1,8,0,8,0,1,0.9368,,,,,,,,,,,,,,,,,,,,,,,,,,,,,,,,,,,,,,,,,
296626,2022-11-28_14h41.22.064,vts_reward_expectancy_bt,2022.2.4,MacIntel,60.0024001,Chrome,1792,1120,,,,,,,,,,,,,,,,,,,,,,,B,160,circle,1,0,d,1,9,0,9,0,1,0.8914,,,,,,,,,,,,,,,,,,,,,,,,,,,,,,,,,,,,,,,,,
296626,2022-11-28_14h41.22.064,vts_reward_expectancy_bt,2022.2.4,MacIntel,60.0024001,Chrome,1792,1120,,,,,,,,,,,,,,,,,,,,,,,B,146,hexagon,2,0,,2,,,,,,,d,1.7806,0,0,0,0,1,,,,,,,,,,,,,,,,,,,,,,,,,,,,,,,,,,
296626,2022-11-28_14h41.22.064,vts_reward_expectancy_bt,2022.2.4,MacIntel,60.0024001,Chrome,1792,1120,,,,,,,,,,,,,,,,,,,,,,,F,174,triangle,1,0,,2,,,,,,,k,0.8153,1,0,1,0,1,,,,,,,,,,,,,,,,,,,,,,,,,,,,,,,,,,
296626,2022-11-28_14h41.22.064,vts_reward_expectancy_bt,2022.2.4,MacIntel,60.0024001,Chrome,1792,1120,,,,,,,,,,,,,,,,,,,,,,,S,132,circle,0,0,,2,,,,,,,k,1.237,2,0,2,0,1,,,,,,,,,,,,,,,,,,,,,,,,,,,,,,,,,,
296626,2022-11-28_14h41.22.064,vts_reward_expectancy_bt,2022.2.4,MacIntel,60.0024001,Chrome,1792,1120,,,,,,,,,,,,,,,,,,,,,,,W,125,star,1,1,,2,,,,,,,j,1.9013,3,0,3,0,1,,,,,,,,,,,,,,,,,,,,,,,,,,,,,,,,,,
296626,2022-11-28_14h41.22.064,vts_reward_expectancy_bt,2022.2.4,MacIntel,60.0024001,Chrome,1792,1120,,,,,,,,,,,,,,,,,,,,,,,D,139,hexagon,1,0,,2,,,,,,,j,0.5659,4,0,4,0,1,,,,,,,,,,,,,,,,,,,,,,,,,,,,,,,,,,
296626,2022-11-28_14h41.22.064,vts_reward_expectancy_bt,2022.2.4,MacIntel,60.0024001,Chrome,1792,1120,,,,,,,,,,,,,,,,,,,,,,,H,181,triangle,1,0,,2,,,,,,,k,0.6468,5,0,5,0,1,,,,,,,,,,,,,,,,,,,,,,,,,,,,,,,,,,
296626,2022-11-28_14h41.22.064,vts_reward_expectancy_bt,2022.2.4,MacIntel,60.0024001,Chrome,1792,1120,,,,,,,,,,,,,,,,,,,,,,,U,160,circle,1,0,,2,,,,,,,k,0.8333,6,0,6,0,1,,,,,,,,,,,,,,,,,,,,,,,,,,,,,,,,,,
296626,2022-11-28_14h41.22.064,vts_reward_expectancy_bt,2022.2.4,MacIntel,60.0024001,Chrome,1792,1120,,,,,,,,,,,,,,,,,,,,,,,Y,167,star,1,0,,2,,,,,,,k,0.6956,7,0,7,0,1,,,,,,,,,,,,,,,,,,,,,,,,,,,,,,,,,,
296626,2022-11-28_14h41.22.064,vts_reward_expectancy_bt,2022.2.4,MacIntel,60.0024001,Chrome,1792,1120,,,,,,,,,,,,,,,,,,,,,,,B,146,circle,1,0,,2,,,,,,,j,1.0132,8,0,8,0,1,,,,,,,,,,,,,,,,,,,,,,,,,,,,,,,,,,
296626,2022-11-28_14h41.22.064,vts_reward_expectancy_bt,2022.2.4,MacIntel,60.0024001,Chrome,1792,1120,,,,,,,,,,,,,,,,,,,,,,,F,174,star,1,0,,2,,,,,,,k,0.8342,9,0,9,0,1,,,,,,,,,,,,,,,,,,,,,,,,,,,,,,,,,,
296626,2022-11-28_14h41.22.064,vts_reward_expectancy_bt,2022.2.4,MacIntel,60.0024001,Chrome,1792,1120,,,,,,,,,,,,,,,,,,,,,,,Y,160,star,1,0,,3,,,,,,,k,0.5852,0,0,0,0,1,,,,,,,,,,,,,,,,,,,,,,,,,,,,,,,,,,
296626,2022-11-28_14h41.22.064,vts_reward_expectancy_bt,2022.2.4,MacIntel,60.0024001,Chrome,1792,1120,,,,,,,,,,,,,,,,,,,,,,,W,132,triangle,1,0,,3,,,,,,,j,0.5205,1,0,1,0,1,,,,,,,,,,,,,,,,,,,,,,,,,,,,,,,,,,
296626,2022-11-28_14h41.22.064,vts_reward_expectancy_bt,2022.2.4,MacIntel,60.0024001,Chrome,1792,1120,,,,,,,,,,,,,,,,,,,,,,,U,167,hexagon,1,0,,3,,,,,,,k,0.5681,2,0,2,0,1,,,,,,,,,,,,,,,,,,,,,,,,,,,,,,,,,,
296626,2022-11-28_14h41.22.064,vts_reward_expectancy_bt,2022.2.4,MacIntel,60.0024001,Chrome,1792,1120,,,,,,,,,,,,,,,,,,,,,,,H,174,circle,1,0,,3,,,,,,,k,0.7137,3,0,3,0,1,,,,,,,,,,,,,,,,,,,,,,,,,,,,,,,,,,
296626,2022-11-28_14h41.22.064,vts_reward_expectancy_bt,2022.2.4,MacIntel,60.0024001,Chrome,1792,1120,,,,,,,,,,,,,,,,,,,,,,,F,125,star,0,0,,3,,,,,,,k,0.8637,4,0,4,0,1,,,,,,,,,,,,,,,,,,,,,,,,,,,,,,,,,,
296626,2022-11-28_14h41.22.064,vts_reward_expectancy_bt,2022.2.4,MacIntel,60.0024001,Chrome,1792,1120,,,,,,,,,,,,,,,,,,,,,,,D,139,triangle,1,1,,3,,,,,,,j,1.1473,5,0,5,0,1,,,,,,,,,,,,,,,,,,,,,,,,,,,,,,,,,,
296626,2022-11-28_14h41.22.064,vts_reward_expectancy_bt,2022.2.4,MacIntel,60.0024001,Chrome,1792,1120,,,,,,,,,,,,,,,,,,,,,,,B,181,hexagon,1,0,,3,,,,,,,k,0.5527,6,0,6,0,1,,,,,,,,,,,,,,,,,,,,,,,,,,,,,,,,,,
296626,2022-11-28_14h41.22.064,vts_reward_expectancy_bt,2022.2.4,MacIntel,60.0024001,Chrome,1792,1120,,,,,,,,,,,,,,,,,,,,,,,S,146,circle,1,0,,3,,,,,,,j,0.9472,7,0,7,0,1,,,,,,,,,,,,,,,,,,,,,,,,,,,,,,,,,,
296626,2022-11-28_14h41.22.064,vts_reward_expectancy_bt,2022.2.4,MacIntel,60.0024001,Chrome,1792,1120,,,,,,,,,,,,,,,,,,,,,,,Y,160,circle,1,0,,3,,,,,,,k,0.7358,8,0,8,0,1,,,,,,,,,,,,,,,,,,,,,,,,,,,,,,,,,,
296626,2022-11-28_14h41.22.064,vts_reward_expectancy_bt,2022.2.4,MacIntel,60.0024001,Chrome,1792,1120,,,,,,,,,,,,,,,,,,,,,,,W,132,star,1,0,,3,,,,,,,j,0.7033,9,0,9,0,1,,,,,,,,,,,,,,,,,,,,,,,,,,,,,,,,,,
296626,2022-11-28_14h41.22.064,vts_reward_expectancy_bt,2022.2.4,MacIntel,60.0024001,Chrome,1792,1120,,,,,0,603,,,,,,,,,,,,,,,,,B,167,circle,1,0,,4,,,,,,,,,,,,,,-1,letter,NA,d,1.0484,vtsPrac,0,0,0,0,1,,,,,,,,,,,,,,,,,,,,,,,
296626,2022-11-28_14h41.22.064,vts_reward_expectancy_bt,2022.2.4,MacIntel,60.0024001,Chrome,1792,1120,,,,,0,603,,,,,,,,,,,,,,,,,F,181,star,1,0,,4,,,,,,,,,,,,,,switch,number,numSwt,k,0.9149,vtsPrac,1,0,1,0,1,,,,,,,,,,,,,,,,,,,,,,,
296626,2022-11-28_14h41.22.064,vts_reward_expectancy_bt,2022.2.4,MacIntel,60.0024001,Chrome,1792,1120,,,,,0,603,,,,,,,,,,,,,,,,,U,125,circle,1,0,,4,,,,,,,,,,,,,,repeat,number,numRpt,j,1.2489,vtsPrac,2,0,2,0,1,,,,,,,,,,,,,,,,,,,,,,,
296626,2022-11-28_14h41.22.064,vts_reward_expectancy_bt,2022.2.4,MacIntel,60.0024001,Chrome,1792,1120,,,,,0,603,,,,,,,,,,,,,,,,,H,160,star,1,0,,4,,,,,,,,,,,,,,repeat,number,numRpt,k,1.4551,vtsPrac,3,0,3,0,1,,,,,,,,,,,,,,,,,,,,,,,
296626,2022-11-28_14h41.22.064,vts_reward_expectancy_bt,2022.2.4,MacIntel,60.0024001,Chrome,1792,1120,,,,,0,603,,,,,,,,,,,,,,,,,B,167,hexagon,1,0,,4,,,,,,,,,,,,,,switch,letter,lettSwt,d,0.8299,vtsPrac,4,0,4,0,1,,,,,,,,,,,,,,,,,,,,,,,
296626,2022-11-28_14h41.22.064,vts_reward_expectancy_bt,2022.2.4,MacIntel,60.0024001,Chrome,1792,1120,,,,,0,603,,,,,,,,,,,,,,,,,F,181,triangle,1,0,,4,,,,,,,,,,,,,,repeat,letter,lettRpt,d,1.9136,vtsPrac,5,0,5,0,1,,,,,,,,,,,,,,,,,,,,,,,
296626,2022-11-28_14h41.22.064,vts_reward_expectancy_bt,2022.2.4,MacIntel,60.0024001,Chrome,1792,1120,,,,,0,603,,,,,,,,,,,,,,,,,U,125,circle,1,0,,4,,,,,,,,,,,,,,switch,number,numSwt,j,0.7043,vtsPrac,6,0,6,0,1,,,,,,,,,,,,,,,,,,,,,,,
296626,2022-11-28_14h41.22.064,vts_reward_expectancy_bt,2022.2.4,MacIntel,60.0024001,Chrome,1792,1120,,,,,0,603,,,,,,,,,,,,,,,,,H,160,triangle,1,0,,4,,,,,,,,,,,,,,repeat,number,numRpt,k,0.7624,vtsPrac,7,0,7,0,1,,,,,,,,,,,,,,,,,,,,,,,
296626,2022-11-28_14h41.22.064,vts_reward_expectancy_bt,2022.2.4,MacIntel,60.0024001,Chrome,1792,1120,,,,,0,603,,,,,,,,,,,,,,,,,D,167,hexagon,1,0,,4,,,,,,,,,,,,,,repeat,number,numRpt,k,0.6007,vtsPrac,8,0,8,0,1,,,,,,,,,,,,,,,,,,,,,,,
296626,2022-11-28_14h41.22.064,vts_reward_expectancy_bt,2022.2.4,MacIntel,60.0024001,Chrome,1792,1120,,,,,0,603,,,,,,,,,,,,,,,,,F,181,circle,1,0,,4,,,,,,,,,,,,,,repeat,number,numRpt,k,1.3646,vtsPrac,9,0,9,0,1,,,,,,,,,,,,,,,,,,,,,,,
296626,2022-11-28_14h41.22.064,vts_reward_expectancy_bt,2022.2.4,MacIntel,60.0024001,Chrome,1792,1120,,,,,0,603,,,,,,,,,,,,,,,,,U,174,circle,1,0,,4,,,,,,,,,,,,,,repeat,number,numRpt,k,0.8302,vtsPrac,10,0,10,0,1,,,,,,,,,,,,,,,,,,,,,,,
296626,2022-11-28_14h41.22.064,vts_reward_expectancy_bt,2022.2.4,MacIntel,60.0024001,Chrome,1792,1120,,,,,0,603,,,,,,,,,,,,,,,,,S,132,star,1,0,,4,,,,,,,,,,,,,,switch,letter,lettSwt,f,1.5646,vtsPrac,11,0,11,0,1,,,,,,,,,,,,,,,,,,,,,,,
296626,2022-11-28_14h41.22.064,vts_reward_expectancy_bt,2022.2.4,MacIntel,60.0024001,Chrome,1792,1120,,,,,0,603,,,,,,,,,,,,,,,,,U,181,star,1,0,,4,,,,,,,,,,,,,,switch,number,numSwt,k,0.8208,vtsPrac,12,0,12,0,1,,,,,,,,,,,,,,,,,,,,,,,
296626,2022-11-28_14h41.22.064,vts_reward_expectancy_bt,2022.2.4,MacIntel,60.0024001,Chrome,1792,1120,,,,,0,603,,,,,,,,,,,,,,,,,F,132,triangle,1,0,,4,,,,,,,,,,,,,,repeat,number,numRpt,j,0.9324,vtsPrac,13,0,13,0,1,,,,,,,,,,,,,,,,,,,,,,,
296626,2022-11-28_14h41.22.064,vts_reward_expectancy_bt,2022.2.4,MacIntel,60.0024001,Chrome,1792,1120,,,,,0,603,,,,,,,,,,,,,,,,,W,167,star,1,0,,4,,,,,,,,,,,,,,repeat,number,numRpt,k,0.6504,vtsPrac,14,0,14,0,1,,,,,,,,,,,,,,,,,,,,,,,
296626,2022-11-28_14h41.22.064,vts_reward_expectancy_bt,2022.2.4,MacIntel,60.0024001,Chrome,1792,1120,,,,,0,603,,,,,,,,,,,,,,,,,H,174,hexagon,1,0,,4,,,,,,,,,,,,,,repeat,number,numRpt,k,1.232,vtsPrac,15,0,15,0,1,,,,,,,,,,,,,,,,,,,,,,,
296626,2022-11-28_14h41.22.064,vts_reward_expectancy_bt,2022.2.4,MacIntel,60.0024001,Chrome,1792,1120,,,,,0,603,,,,,,,,,,,,,,,,,B,132,hexagon,1,0,,4,,,,,,,,,,,,,,repeat,number,numRpt,j,0.7639,vtsPrac,16,0,16,0,1,,,,,,,,,,,,,,,,,,,,,,,
296626,2022-11-28_14h41.22.064,vts_reward_expectancy_bt,2022.2.4,MacIntel,60.0024001,Chrome,1792,1120,,,,,0,603,,,,,,,,,,,,,,,,,Y,146,circle,1,0,,4,,,,,,,,,,,,,,repeat,number,numRpt,j,1.7014,vtsPrac,17,0,17,0,1,,,,,,,,,,,,,,,,,,,,,,,
296626,2022-11-28_14h41.22.064,vts_reward_expectancy_bt,2022.2.4,MacIntel,60.0024001,Chrome,1792,1120,,,,,0,603,,,,,,,,,,,,,,,,,D,167,circle,1,0,,4,,,,,,,,,,,,,,repeat,number,numRpt,k,0.8222,vtsPrac,18,0,18,0,1,,,,,,,,,,,,,,,,,,,,,,,
296626,2022-11-28_14h41.22.064,vts_reward_expectancy_bt,2022.2.4,MacIntel,60.0024001,Chrome,1792,1120,,,,,0,603,,,,,,,,,,,,,,,,,S,160,star,1,0,,4,,,,,,,,,,,,,,repeat,number,numRpt,k,1.3846,vtsPrac,19,0,19,0,1,,,,,,,,,,,,,,,,,,,,,,,
296626,2022-11-28_14h41.22.064,vts_reward_expectancy_bt,2022.2.4,MacIntel,60.0024001,Chrome,1792,1120,,,,,0,603,,,,,,,,,,,,,,,,,F,146,star,1,0,,4,,,,,,,,,,,,,,repeat,number,numRpt,j,1.5972,vtsPrac,20,0,20,0,1,,,,,,,,,,,,,,,,,,,,,,,
296626,2022-11-28_14h41.22.064,vts_reward_expectancy_bt,2022.2.4,MacIntel,60.0024001,Chrome,1792,1120,,,,,0,603,,,,,,,,,,,,,,,,,W,160,triangle,1,0,,4,,,,,,,,,,,,,,repeat,number,numRpt,k,1.1978,vtsPrac,21,0,21,0,1,,,,,,,,,,,,,,,,,,,,,,,
296626,2022-11-28_14h41.22.064,vts_reward_expectancy_bt,2022.2.4,MacIntel,60.0024001,Chrome,1792,1120,,,,,0,603,,,,,,,,,,,,,,,,,U,174,circle,1,0,,4,,,,,,,,,,,,,,repeat,number,numRpt,k,1.4301,vtsPrac,22,0,22,0,1,,,,,,,,,,,,,,,,,,,,,,,
296626,2022-11-28_14h41.22.064,vts_reward_expectancy_bt,2022.2.4,MacIntel,60.0024001,Chrome,1792,1120,,,,,0,603,,,,,,,,,,,,,,,,,D,125,triangle,1,0,,4,,,,,,,,,,,,,,switch,letter,lettSwt,d,0.881,vtsPrac,23,0,23,0,1,,,,,,,,,,,,,,,,,,,,,,,
296626,2022-11-28_14h41.22.064,vts_reward_expectancy_bt,2022.2.4,MacIntel,60.0024001,Chrome,1792,1120,,,,,0,603,,,,,,,,,,,,,,,,,U,160,triangle,1,0,,4,,,,,,,,,,,,,,switch,number,numSwt,k,1.3971,vtsPrac,24,0,24,0,1,,,,,,,,,,,,,,,,,,,,,,,
296626,2022-11-28_14h41.22.064,vts_reward_expectancy_bt,2022.2.4,MacIntel,60.0024001,Chrome,1792,1120,,,,,0,603,,,,,,,,,,,,,,,,,D,146,hexagon,1,0,,4,,,,,,,,,,,,,,switch,letter,lettSwt,d,0.8496,vtsPrac,25,0,25,0,1,,,,,,,,,,,,,,,,,,,,,,,
296626,2022-11-28_14h41.22.064,vts_reward_expectancy_bt,2022.2.4,MacIntel,60.0024001,Chrome,1792,1120,,,,,0,603,,,,,,,,,,,,,,,,,B,181,triangle,1,0,,4,,,,,,,,,,,,,,switch,number,numSwt,k,0.6848,vtsPrac,26,0,26,0,1,,,,,,,,,,,,,,,,,,,,,,,
296626,2022-11-28_14h41.22.064,vts_reward_expectancy_bt,2022.2.4,MacIntel,60.0024001,Chrome,1792,1120,,,,,0,603,,,,,,,,,,,,,,,,,W,125,circle,1,0,,4,,,,,,,,,,,,,,repeat,number,numRpt,j,1.0999,vtsPrac,27,0,27,0,1,,,,,,,,,,,,,,,,,,,,,,,
296626,2022-11-28_14h41.22.064,vts_reward_expectancy_bt,2022.2.4,MacIntel,60.0024001,Chrome,1792,1120,,,,,0,603,,,,,,,,,,,,,,,,,Y,160,triangle,1,0,,4,,,,,,,,,,,,,,repeat,number,numRpt,k,1.8156,vtsPrac,28,0,28,0,1,,,,,,,,,,,,,,,,,,,,,,,
296626,2022-11-28_14h41.22.064,vts_reward_expectancy_bt,2022.2.4,MacIntel,60.0024001,Chrome,1792,1120,,,,,0,603,,,,,,,,,,,,,,,,,S,181,circle,1,0,,4,,,,,,,,,,,,,,repeat,number,numRpt,k,1.5345,vtsPrac,29,0,29,0,1,,,,,,,,,,,,,,,,,,,,,,,
296626,2022-11-28_14h41.22.064,vts_reward_expectancy_bt,2022.2.4,MacIntel,60.0024001,Chrome,1792,1120,,,,,0,603,,,,,,,,,,,,,,,,,B,146,circle,1,0,,4,,,,,,,,,,,,,,switch,letter,lettSwt,d,0.672,vtsPrac,30,0,30,0,1,,,,,,,,,,,,,,,,,,,,,,,
296626,2022-11-28_14h41.22.064,vts_reward_expectancy_bt,2022.2.4,MacIntel,60.0024001,Chrome,1792,1120,,,,,0,603,,,,,,,,,,,,,,,,,H,174,triangle,1,0,,4,,,,,,,,,,,,,,switch,number,numSwt,k,1.3488,vtsPrac,31,0,31,0,1,,,,,,,,,,,,,,,,,,,,,,,
296626,2022-11-28_14h41.22.064,vts_reward_expectancy_bt,2022.2.4,MacIntel,60.0024001,Chrome,1792,1120,,,,,,,,,,,,,,,,,,,,,,,,,,,,,,,,,,,,,,,,,,,,,,,,,,,,,,,,,,,,,,,,,,,,,,,,,,,,
296626,2022-11-28_14h41.22.064,vts_reward_expectancy_bt,2022.2.4,MacIntel,60.0024001,Chrome,1792,1120,,,,,,,,,,,,,,,,,,,,,,,,,,,,,,,,,,,,,,,,,,,,,,,,,,,,,,,,,,,,,,,,,,,,,,,,,,,,
296626,2022-11-28_14h41.22.064,vts_reward_expectancy_bt,2022.2.4,MacIntel,60.0024001,Chrome,1792,1120,,,,,0,603,,,,,,,,,,,,,,,,,S,174,triangle,1,0,,,,,,,,,,,,,,,,repeat,number,numRpt,k,2.2164,noRew,,,,,,0,0,0,0,0,1,,,,,,,,,,,,,,,,,
296626,2022-11-28_14h41.22.064,vts_reward_expectancy_bt,2022.2.4,MacIntel,60.0024001,Chrome,1792,1120,,,,,0,603,,,,,,,,,,,,,,,,,W,125,hexagon,1,0,,,,,,,,,,,,,,,,switch,letter,lettSwt,f,1.6825,noRew,,,,,,0,1,0,1,0,1,,,,,,,,,,,,,,,,,
296626,2022-11-28_14h41.22.064,vts_reward_expectancy_bt,2022.2.4,MacIntel,60.0024001,Chrome,1792,1120,,,,,0,603,,,,,,,,,,,,,,,,,H,132,triangle,1,0,,,,,,,,,,,,,,,,switch,number,numSwt,j,1.8464,noRew,,,,,,0,2,0,2,0,1,,,,,,,,,,,,,,,,,
296626,2022-11-28_14h41.22.064,vts_reward_expectancy_bt,2022.2.4,MacIntel,60.0024001,Chrome,1792,1120,,,,,0,603,,,,,,,,,,,,,,,,,D,167,hexagon,1,0,,,,,,,,,,,,,,,,switch,letter,lettSwt,d,0.847,noRew,,,,,,0,3,0,3,0,1,,,,,,,,,,,,,,,,,
296626,2022-11-28_14h41.22.064,vts_reward_expectancy_bt,2022.2.4,MacIntel,60.0024001,Chrome,1792,1120,,,,,0,603,,,,,,,,,,,,,,,,,S,174,star,1,0,,,,,,,,,,,,,,,,switch,number,numSwt,k,1.5994,noRew,,,,,,0,4,0,4,0,1,,,,,,,,,,,,,,,,,
296626,2022-11-28_14h41.22.064,vts_reward_expectancy_bt,2022.2.4,MacIntel,60.0024001,Chrome,1792,1120,,,,,0,603,,,,,,,,,,,,,,,,,W,125,hexagon,1,0,,,,,,,,,,,,,,,,repeat,number,numRpt,j,2.3797,noRew,,,,,,0,5,0,5,0,1,,,,,,,,,,,,,,,,,
296626,2022-11-28_14h41.22.064,vts_reward_expectancy_bt,2022.2.4,MacIntel,60.0024001,Chrome,1792,1120,,,,,0,603,,,,,,,,,,,,,,,,,H,132,hexagon,1,0,,,,,,,,,,,,,,,,repeat,number,numRpt,j,2.1139,noRew,,,,,,0,6,0,6,0,1,,,,,,,,,,,,,,,,,
296626,2022-11-28_14h41.22.064,vts_reward_expectancy_bt,2022.2.4,MacIntel,60.0024001,Chrome,1792,1120,,,,,0,603,,,,,,,,,,,,,,,,,D,167,triangle,1,0,,,,,,,,,,,,,,,,switch,letter,lettSwt,d,0.9998,noRew,,,,,,0,7,0,7,0,1,,,,,,,,,,,,,,,,,
296626,2022-11-28_14h41.22.064,vts_reward_expectancy_bt,2022.2.4,MacIntel,60.0024001,Chrome,1792,1120,,,,,0,603,,,,,,,,,,,,,,,,,D,125,hexagon,1,0,,,,,,,,,,,,,,,,repeat,letter,lettRpt,d,1.3987,noRew,,,,,,0,8,0,8,0,1,,,,,,,,,,,,,,,,,
296626,2022-11-28_14h41.22.064,vts_reward_expectancy_bt,2022.2.4,MacIntel,60.0024001,Chrome,1792,1120,,,,,0,603,,,,,,,,,,,,,,,,,W,167,star,1,0,,,,,,,,,,,,,,,,switch,number,numSwt,k,1.4468,noRew,,,,,,0,9,0,9,0,1,,,,,,,,,,,,,,,,,
296626,2022-11-28_14h41.22.064,vts_reward_expectancy_bt,2022.2.4,MacIntel,60.0024001,Chrome,1792,1120,,,,,0,603,,,,,,,,,,,,,,,,,Y,181,hexagon,1,0,,,,,,,,,,,,,,,,switch,letter,lettSwt,f,1.6358,noRew,,,,,,0,10,0,10,0,1,,,,,,,,,,,,,,,,,
296626,2022-11-28_14h41.22.064,vts_reward_expectancy_bt,2022.2.4,MacIntel,60.0024001,Chrome,1792,1120,,,,,0,603,,,,,,,,,,,,,,,,,B,132,circle,1,0,,,,,,,,,,,,,,,,repeat,letter,lettRpt,d,0.8145,noRew,,,,,,0,11,0,11,0,1,,,,,,,,,,,,,,,,,
296626,2022-11-28_14h41.22.064,vts_reward_expectancy_bt,2022.2.4,MacIntel,60.0024001,Chrome,1792,1120,,,,,0,603,,,,,,,,,,,,,,,,,F,160,hexagon,0,0,,,,,,,,,,,,,,,,repeat,letter,NA,f,1.3878,noRew,,,,,,0,12,0,12,0,1,,,,,,,,,,,,,,,,,
296626,2022-11-28_14h41.22.064,vts_reward_expectancy_bt,2022.2.4,MacIntel,60.0024001,Chrome,1792,1120,,,,,0,603,,,,,,,,,,,,,,,,,H,146,triangle,1,1,,,,,,,,,,,,,,,,switch,number,numSwt,j,2.6837,noRew,,,,,,0,13,0,13,0,1,,,,,,,,,,,,,,,,,
296626,2022-11-28_14h41.22.064,vts_reward_expectancy_bt,2022.2.4,MacIntel,60.0024001,Chrome,1792,1120,,,,,0,603,,,,,,,,,,,,,,,,,Y,181,circle,1,0,,,,,,,,,,,,,,,,repeat,number,numRpt,k,2.7143,noRew,,,,,,0,14,0,14,0,1,,,,,,,,,,,,,,,,,
296626,2022-11-28_14h41.22.064,vts_reward_expectancy_bt,2022.2.4,MacIntel,60.0024001,Chrome,1792,1120,,,,,0,603,,,,,,,,,,,,,,,,,D,125,star,1,0,,,,,,,,,,,,,,,,switch,letter,lettSwt,d,0.8133,noRew,,,,,,0,15,0,15,0,1,,,,,,,,,,,,,,,,,
296626,2022-11-28_14h41.22.064,vts_reward_expectancy_bt,2022.2.4,MacIntel,60.0024001,Chrome,1792,1120,,,,,0,603,,,,,,,,,,,,,,,,,B,125,triangle,1,0,,,,,,,,,,,,,,,,repeat,letter,lettRpt,d,0.7139,noRew,,,,,,0,16,0,16,0,1,,,,,,,,,,,,,,,,,
296626,2022-11-28_14h41.22.064,vts_reward_expectancy_bt,2022.2.4,MacIntel,60.0024001,Chrome,1792,1120,,,,,0,603,,,,,,,,,,,,,,,,,H,160,hexagon,-1,0,,,,,,,,,,,,,,,,switch,no_choice,NA,,,noRew,,,,,,0,17,0,17,0,1,,,,,,,,,,,,,,,,,
296626,2022-11-28_14h41.22.064,vts_reward_expectancy_bt,2022.2.4,MacIntel,60.0024001,Chrome,1792,1120,,,,,0,603,,,,,,,,,,,,,,,,,Y,167,hexagon,1,0,,,,,,,,,,,,,,,,switch,number,numSwt,k,0.7497,noRew,,,,,,0,18,0,18,0,1,,,,,,,,,,,,,,,,,
296626,2022-11-28_14h41.22.064,vts_reward_expectancy_bt,2022.2.4,MacIntel,60.0024001,Chrome,1792,1120,,,,,0,603,,,,,,,,,,,,,,,,,U,174,star,1,0,,,,,,,,,,,,,,,,repeat,number,numRpt,k,0.7145,noRew,,,,,,0,19,0,19,0,1,,,,,,,,,,,,,,,,,
296626,2022-11-28_14h41.22.064,vts_reward_expectancy_bt,2022.2.4,MacIntel,60.0024001,Chrome,1792,1120,,,,,0,603,,,,,,,,,,,,,,,,,W,146,triangle,1,0,,,,,,,,,,,,,,,,repeat,number,numRpt,j,0.886,noRew,,,,,,0,20,0,20,0,1,,,,,,,,,,,,,,,,,
296626,2022-11-28_14h41.22.064,vts_reward_expectancy_bt,2022.2.4,MacIntel,60.0024001,Chrome,1792,1120,,,,,0,603,,,,,,,,,,,,,,,,,S,174,hexagon,1,0,,,,,,,,,,,,,,,,switch,letter,lettSwt,f,1.5345,noRew,,,,,,0,21,0,21,0,1,,,,,,,,,,,,,,,,,
296626,2022-11-28_14h41.22.064,vts_reward_expectancy_bt,2022.2.4,MacIntel,60.0024001,Chrome,1792,1120,,,,,0,603,,,,,,,,,,,,,,,,,Y,181,star,1,0,,,,,,,,,,,,,,,,switch,number,numSwt,k,2.1133,noRew,,,,,,0,22,0,22,0,1,,,,,,,,,,,,,,,,,
296626,2022-11-28_14h41.22.064,vts_reward_expectancy_bt,2022.2.4,MacIntel,60.0024001,Chrome,1792,1120,,,,,0,603,,,,,,,,,,,,,,,,,H,160,hexagon,1,0,,,,,,,,,,,,,,,,repeat,number,numRpt,k,1.2962,noRew,,,,,,0,23,0,23,0,1,,,,,,,,,,,,,,,,,
296626,2022-11-28_14h41.22.064,vts_reward_expectancy_bt,2022.2.4,MacIntel,60.0024001,Chrome,1792,1120,,,,,0,603,,,,,,,,,,,,,,,,,W,125,star,1,0,,,,,,,,,,,,,,,,repeat,number,numRpt,j,1.616,noRew,,,,,,0,24,0,24,0,1,,,,,,,,,,,,,,,,,
296626,2022-11-28_14h41.22.064,vts_reward_expectancy_bt,2022.2.4,MacIntel,60.0024001,Chrome,1792,1120,,,,,0,603,,,,,,,,,,,,,,,,,B,174,hexagon,1,0,,,,,,,,,,,,,,,,switch,letter,lettSwt,d,0.6981,noRew,,,,,,0,25,0,25,0,1,,,,,,,,,,,,,,,,,
296626,2022-11-28_14h41.22.064,vts_reward_expectancy_bt,2022.2.4,MacIntel,60.0024001,Chrome,1792,1120,,,,,0,603,,,,,,,,,,,,,,,,,Y,146,hexagon,1,0,,,,,,,,,,,,,,,,switch,number,numSwt,j,1.9,noRew,,,,,,0,26,0,26,0,1,,,,,,,,,,,,,,,,,
296626,2022-11-28_14h41.22.064,vts_reward_expectancy_bt,2022.2.4,MacIntel,60.0024001,Chrome,1792,1120,,,,,0,603,,,,,,,,,,,,,,,,,F,139,star,1,0,,,,,,,,,,,,,,,,switch,letter,lettSwt,d,1.3628,noRew,,,,,,0,27,0,27,0,1,,,,,,,,,,,,,,,,,
296626,2022-11-28_14h41.22.064,vts_reward_expectancy_bt,2022.2.4,MacIntel,60.0024001,Chrome,1792,1120,,,,,0,603,,,,,,,,,,,,,,,,,B,181,star,1,0,,,,,,,,,,,,,,,,repeat,letter,lettRpt,d,1.7962,noRew,,,,,,0,28,0,28,0,1,,,,,,,,,,,,,,,,,
296626,2022-11-28_14h41.22.064,vts_reward_expectancy_bt,2022.2.4,MacIntel,60.0024001,Chrome,1792,1120,,,,,0,603,,,,,,,,,,,,,,,,,H,125,triangle,1,0,,,,,,,,,,,,,,,,switch,number,numSwt,j,1.0967,noRew,,,,,,0,29,0,29,0,1,,,,,,,,,,,,,,,,,
296626,2022-11-28_14h41.22.064,vts_reward_expectancy_bt,2022.2.4,MacIntel,60.0024001,Chrome,1792,1120,,,,,0,603,,,,,,,,,,,,,,,,,U,146,circle,1,0,,,,,,,,,,,,,,,,switch,letter,lettSwt,f,1.8028,noRew,,,,,,0,30,0,30,0,1,,,,,,,,,,,,,,,,,
296626,2022-11-28_14h41.22.064,vts_reward_expectancy_bt,2022.2.4,MacIntel,60.0024001,Chrome,1792,1120,,,,,0,603,,,,,,,,,,,,,,,,,F,167,triangle,1,0,,,,,,,,,,,,,,,,switch,number,numSwt,k,1.1544,noRew,,,,,,0,31,0,31,0,1,,,,,,,,,,,,,,,,,
296626,2022-11-28_14h41.22.064,vts_reward_expectancy_bt,2022.2.4,MacIntel,60.0024001,Chrome,1792,1120,,,,,0,603,,,,,,,,,,,,,,,,,F,139,star,1,0,,,,,,,,,,,,,,,,switch,letter,lettSwt,d,1.3213,noRew,,,,,,0,32,0,32,0,1,,,,,,,,,,,,,,,,,
296626,2022-11-28_14h41.22.064,vts_reward_expectancy_bt,2022.2.4,MacIntel,60.0024001,Chrome,1792,1120,,,,,0,603,,,,,,,,,,,,,,,,,D,125,triangle,1,0,,,,,,,,,,,,,,,,repeat,letter,lettRpt,d,2.2658,noRew,,,,,,0,33,0,33,0,1,,,,,,,,,,,,,,,,,
296626,2022-11-28_14h41.22.064,vts_reward_expectancy_bt,2022.2.4,MacIntel,60.0024001,Chrome,1792,1120,,,,,0,603,,,,,,,,,,,,,,,,,U,167,triangle,1,0,,,,,,,,,,,,,,,,switch,number,numSwt,k,1.3874,noRew,,,,,,0,34,0,34,0,1,,,,,,,,,,,,,,,,,
296626,2022-11-28_14h41.22.064,vts_reward_expectancy_bt,2022.2.4,MacIntel,60.0024001,Chrome,1792,1120,,,,,0,603,,,,,,,,,,,,,,,,,W,146,circle,1,0,,,,,,,,,,,,,,,,switch,letter,lettSwt,f,1.5183,noRew,,,,,,0,35,0,35,0,1,,,,,,,,,,,,,,,,,
296626,2022-11-28_14h41.22.064,vts_reward_expectancy_bt,2022.2.4,MacIntel,60.0024001,Chrome,1792,1120,,,,,0,603,,,,,,,,,,,,,,,,,U,146,star,1,0,,,,,,,,,,,,,,,,switch,number,numSwt,j,1.2696,noRew,,,,,,0,36,0,36,0,1,,,,,,,,,,,,,,,,,
296626,2022-11-28_14h41.22.064,vts_reward_expectancy_bt,2022.2.4,MacIntel,60.0024001,Chrome,1792,1120,,,,,0,603,,,,,,,,,,,,,,,,,D,181,triangle,1,0,,,,,,,,,,,,,,,,switch,letter,lettSwt,d,0.7545,noRew,,,,,,0,37,0,37,0,1,,,,,,,,,,,,,,,,,
296626,2022-11-28_14h41.22.064,vts_reward_expectancy_bt,2022.2.4,MacIntel,60.0024001,Chrome,1792,1120,,,,,0,603,,,,,,,,,,,,,,,,,F,139,circle,1,0,,,,,,,,,,,,,,,,switch,number,numSwt,j,0.6033,noRew,,,,,,0,38,0,38,0,1,,,,,,,,,,,,,,,,,
296626,2022-11-28_14h41.22.064,vts_reward_expectancy_bt,2022.2.4,MacIntel,60.0024001,Chrome,1792,1120,,,,,0,603,,,,,,,,,,,,,,,,,W,167,triangle,1,0,,,,,,,,,,,,,,,,repeat,number,numRpt,k,0.8837,noRew,,,,,,0,39,0,39,0,1,,,,,,,,,,,,,,,,,
296626,2022-11-28_14h41.22.064,vts_reward_expectancy_bt,2022.2.4,MacIntel,60.0024001,Chrome,1792,1120,,,,,0,603,,,,,,,,,,,,,,,,,F,132,hexagon,1,0,,,,,,,,,,,,,,,,switch,letter,lettSwt,d,1.3138,noRew,,,,,,0,40,0,40,0,1,,,,,,,,,,,,,,,,,
296626,2022-11-28_14h41.22.064,vts_reward_expectancy_bt,2022.2.4,MacIntel,60.0024001,Chrome,1792,1120,,,,,0,603,,,,,,,,,,,,,,,,,Y,181,triangle,1,0,,,,,,,,,,,,,,,,repeat,letter,lettRpt,f,1.2366,noRew,,,,,,0,41,0,41,0,1,,,,,,,,,,,,,,,,,
296626,2022-11-28_14h41.22.064,vts_reward_expectancy_bt,2022.2.4,MacIntel,60.0024001,Chrome,1792,1120,,,,,0,603,,,,,,,,,,,,,,,,,D,146,hexagon,1,0,,,,,,,,,,,,,,,,switch,number,numSwt,j,1.8141,noRew,,,,,,0,42,0,42,0,1,,,,,,,,,,,,,,,,,
296626,2022-11-28_14h41.22.064,vts_reward_expectancy_bt,2022.2.4,MacIntel,60.0024001,Chrome,1792,1120,,,,,0,603,,,,,,,,,,,,,,,,,W,160,star,1,0,,,,,,,,,,,,,,,,repeat,number,numRpt,k,0.9139,noRew,,,,,,0,43,0,43,0,1,,,,,,,,,,,,,,,,,
296626,2022-11-28_14h41.22.064,vts_reward_expectancy_bt,2022.2.4,MacIntel,60.0024001,Chrome,1792,1120,,,,,0,603,,,,,,,,,,,,,,,,,H,174,triangle,1,0,,,,,,,,,,,,,,,,repeat,number,numRpt,k,1.0965,noRew,,,,,,0,44,0,44,0,1,,,,,,,,,,,,,,,,,
296626,2022-11-28_14h41.22.064,vts_reward_expectancy_bt,2022.2.4,MacIntel,60.0024001,Chrome,1792,1120,,,,,0,603,,,,,,,,,,,,,,,,,D,139,circle,1,0,,,,,,,,,,,,,,,,repeat,number,numRpt,j,1.0789,noRew,,,,,,0,45,0,45,0,1,,,,,,,,,,,,,,,,,
296626,2022-11-28_14h41.22.064,vts_reward_expectancy_bt,2022.2.4,MacIntel,60.0024001,Chrome,1792,1120,,,,,0,603,,,,,,,,,,,,,,,,,W,132,star,1,0,,,,,,,,,,,,,,,,repeat,number,numRpt,j,0.7501,noRew,,,,,,0,46,0,46,0,1,,,,,,,,,,,,,,,,,
296626,2022-11-28_14h41.22.064,vts_reward_expectancy_bt,2022.2.4,MacIntel,60.0024001,Chrome,1792,1120,,,,,0,603,,,,,,,,,,,,,,,,,Y,125,hexagon,1,0,,,,,,,,,,,,,,,,repeat,number,numRpt,j,0.7129,noRew,,,,,,0,47,0,47,0,1,,,,,,,,,,,,,,,,,
296626,2022-11-28_14h41.22.064,vts_reward_expectancy_bt,2022.2.4,MacIntel,60.0024001,Chrome,1792,1120,,,,,0,603,,,,,,,,,,,,,,,,,B,146,star,1,0,,,,,,,,,,,,,,,,switch,letter,lettSwt,d,0.5999,noRew,,,,,,0,48,0,48,0,1,,,,,,,,,,,,,,,,,
296626,2022-11-28_14h41.22.064,vts_reward_expectancy_bt,2022.2.4,MacIntel,60.0024001,Chrome,1792,1120,,,,,0,603,,,,,,,,,,,,,,,,,F,160,circle,1,0,,,,,,,,,,,,,,,,switch,number,numSwt,k,1.1789,noRew,,,,,,0,49,0,49,0,1,,,,,,,,,,,,,,,,,
296626,2022-11-28_14h41.22.064,vts_reward_expectancy_bt,2022.2.4,MacIntel,60.0024001,Chrome,1792,1120,,,,,0,603,,,,,,,,,,,,,,,,,U,139,triangle,1,0,,,,,,,,,,,,,,,,repeat,number,numRpt,j,1.3007,noRew,,,,,,0,50,0,50,0,1,,,,,,,,,,,,,,,,,
296626,2022-11-28_14h41.22.064,vts_reward_expectancy_bt,2022.2.4,MacIntel,60.0024001,Chrome,1792,1120,,,,,0,603,,,,,,,,,,,,,,,,,S,174,star,1,0,,,,,,,,,,,,,,,,repeat,number,numRpt,k,2.0509,noRew,,,,,,0,51,0,51,0,1,,,,,,,,,,,,,,,,,
296626,2022-11-28_14h41.22.064,vts_reward_expectancy_bt,2022.2.4,MacIntel,60.0024001,Chrome,1792,1120,,,,,0,603,,,,,,,,,,,,,,,,,S,146,star,1,0,,,,,,,,,,,,,,,,repeat,number,numRpt,j,1.5165,noRew,,,,,,0,52,0,52,0,1,,,,,,,,,,,,,,,,,
296626,2022-11-28_14h41.22.064,vts_reward_expectancy_bt,2022.2.4,MacIntel,60.0024001,Chrome,1792,1120,,,,,0,603,,,,,,,,,,,,,,,,,W,125,circle,1,0,,,,,,,,,,,,,,,,switch,letter,lettSwt,f,2.4665,noRew,,,,,,0,53,0,53,0,1,,,,,,,,,,,,,,,,,
296626,2022-11-28_14h41.22.064,vts_reward_expectancy_bt,2022.2.4,MacIntel,60.0024001,Chrome,1792,1120,,,,,0,603,,,,,,,,,,,,,,,,,H,181,triangle,1,0,,,,,,,,,,,,,,,,repeat,letter,lettRpt,d,0.864,noRew,,,,,,0,54,0,54,0,1,,,,,,,,,,,,,,,,,
296626,2022-11-28_14h41.22.064,vts_reward_expectancy_bt,2022.2.4,MacIntel,60.0024001,Chrome,1792,1120,,,,,0,603,,,,,,,,,,,,,,,,,U,139,star,1,0,,,,,,,,,,,,,,,,repeat,letter,lettRpt,f,0.7474,noRew,,,,,,0,55,0,55,0,1,,,,,,,,,,,,,,,,,
296626,2022-11-28_14h41.22.064,vts_reward_expectancy_bt,2022.2.4,MacIntel,60.0024001,Chrome,1792,1120,,,,,0,603,,,,,,,,,,,,,,,,,Y,167,star,0,0,,,,,,,,,,,,,,,,repeat,letter,NA,d,0.9153,noRew,,,,,,0,56,0,56,0,1,,,,,,,,,,,,,,,,,
296626,2022-11-28_14h41.22.064,vts_reward_expectancy_bt,2022.2.4,MacIntel,60.0024001,Chrome,1792,1120,,,,,0,603,,,,,,,,,,,,,,,,,U,181,hexagon,1,1,,,,,,,,,,,,,,,,repeat,letter,lettRpt,f,1.6373,noRew,,,,,,0,57,0,57,0,1,,,,,,,,,,,,,,,,,
296626,2022-11-28_14h41.22.064,vts_reward_expectancy_bt,2022.2.4,MacIntel,60.0024001,Chrome,1792,1120,,,,,0,603,,,,,,,,,,,,,,,,,B,174,hexagon,1,0,,,,,,,,,,,,,,,,repeat,letter,lettRpt,d,0.6998,noRew,,,,,,0,58,0,58,0,1,,,,,,,,,,,,,,,,,
296626,2022-11-28_14h41.22.064,vts_reward_expectancy_bt,2022.2.4,MacIntel,60.0024001,Chrome,1792,1120,,,,,0,603,,,,,,,,,,,,,,,,,S,125,star,1,0,,,,,,,,,,,,,,,,repeat,letter,lettRpt,f,1.1323,noRew,,,,,,0,59,0,59,0,1,,,,,,,,,,,,,,,,,
296626,2022-11-28_14h41.22.064,vts_reward_expectancy_bt,2022.2.4,MacIntel,60.0024001,Chrome,1792,1120,,,,,0,603,,,,,,,,,,,,,,,,,D,125,hexagon,1,0,,,,,,,,,,,,,,,,repeat,letter,lettRpt,d,0.8652,noRew,,,,,,0,60,0,60,0,1,,,,,,,,,,,,,,,,,
296626,2022-11-28_14h41.22.064,vts_reward_expectancy_bt,2022.2.4,MacIntel,60.0024001,Chrome,1792,1120,,,,,0,603,,,,,,,,,,,,,,,,,U,174,star,1,0,,,,,,,,,,,,,,,,repeat,letter,lettRpt,f,1.2684,noRew,,,,,,0,61,0,61,0,1,,,,,,,,,,,,,,,,,
296626,2022-11-28_14h41.22.064,vts_reward_expectancy_bt,2022.2.4,MacIntel,60.0024001,Chrome,1792,1120,,,,,0,603,,,,,,,,,,,,,,,,,W,146,circle,1,0,,,,,,,,,,,,,,,,repeat,letter,lettRpt,f,1.2661,noRew,,,,,,0,62,0,62,0,1,,,,,,,,,,,,,,,,,
296626,2022-11-28_14h41.22.064,vts_reward_expectancy_bt,2022.2.4,MacIntel,60.0024001,Chrome,1792,1120,,,,,0,603,,,,,,,,,,,,,,,,,B,139,triangle,1,0,,,,,,,,,,,,,,,,repeat,letter,lettRpt,d,0.8178,noRew,,,,,,0,63,0,63,0,1,,,,,,,,,,,,,,,,,
296626,2022-11-28_14h41.22.064,vts_reward_expectancy_bt,2022.2.4,MacIntel,60.0024001,Chrome,1792,1120,,,,,,,,,,,,,,,,,,,,,,,,,,,,,,,,,,,,,,,,,,,,,,,,,,,,,,,,,,,,,,,,,,,,,,,,,,,,
296626,2022-11-28_14h41.22.064,vts_reward_expectancy_bt,2022.2.4,MacIntel,60.0024001,Chrome,1792,1120,,,,,0,603,,,,,,,,,,,,,,,,,B,139,hexagon,1,0,,,,,,,,,,,,,,,,repeat,letter,lettRpt,d,1.4176,Hi,,,,,,0,,,,,,space,4.5229,low,0,0,0,0,1,,,,,,,,,
296626,2022-11-28_14h41.22.064,vts_reward_expectancy_bt,2022.2.4,MacIntel,60.0024001,Chrome,1792,1120,,,,,10,613,,,,,,,,,,,,,,,,,U,125,triangle,1,0,,,,,,,,,,,,,,,,repeat,letter,lettRpt,f,0.9801,Lo,,,,,,0,,,,,,,,low,1,0,1,0,1,,,,,,,,,
296626,2022-11-28_14h41.22.064,vts_reward_expectancy_bt,2022.2.4,MacIntel,60.0024001,Chrome,1792,1120,,,,,10,623,,,,,,,,,,,,,,,,,H,160,circle,1,0,,,,,,,,,,,,,,,,switch,number,numSwt,k,0.8132,Hi,,,,,,0,,,,,,,,low,2,0,2,0,1,,,,,,,,,
296626,2022-11-28_14h41.22.064,vts_reward_expectancy_bt,2022.2.4,MacIntel,60.0024001,Chrome,1792,1120,,,,,0,623,,,,,,,,,,,,,,,,,Y,167,star,0,0,,,,,,,,,,,,,,,,switch,letter,NA,d,0.8972,Hi,,,,,,0,,,,,,,,low,3,0,3,0,1,,,,,,,,,
296626,2022-11-28_14h41.22.064,vts_reward_expectancy_bt,2022.2.4,MacIntel,60.0024001,Chrome,1792,1120,,,,,10,633,,,,,,,,,,,,,,,,,D,174,hexagon,1,1,,,,,,,,,,,,,,,,repeat,letter,lettRpt,d,0.7673,Hi,,,,,,0,,,,,,,,low,4,0,4,0,1,,,,,,,,,
296626,2022-11-28_14h41.22.064,vts_reward_expectancy_bt,2022.2.4,MacIntel,60.0024001,Chrome,1792,1120,,,,,1,634,,,,,,,,,,,,,,,,,F,132,triangle,1,0,,,,,,,,,,,,,,,,repeat,letter,lettRpt,d,1.4332,Lo,,,,,,0,,,,,,,,low,5,0,5,0,1,,,,,,,,,
296626,2022-11-28_14h41.22.064,vts_reward_expectancy_bt,2022.2.4,MacIntel,60.0024001,Chrome,1792,1120,,,,,0,634,,,,,,,,,,,,,,,,,W,146,circle,1,0,,,,,,,,,,,,,,,,repeat,letter,lettRpt,f,1.1313,Hi,,,,,,0,,,,,,,,low,6,0,6,0,1,,,,,,,,,
296626,2022-11-28_14h41.22.064,vts_reward_expectancy_bt,2022.2.4,MacIntel,60.0024001,Chrome,1792,1120,,,,,1,635,,,,,,,,,,,,,,,,,S,181,star,1,0,,,,,,,,,,,,,,,,switch,number,numSwt,k,1.1322,Lo,,,,,,0,,,,,,,,low,7,0,7,0,1,,,,,,,,,
296626,2022-11-28_14h41.22.064,vts_reward_expectancy_bt,2022.2.4,MacIntel,60.0024001,Chrome,1792,1120,,,,,0,635,,,,,,,,,,,,,,,,,B,139,hexagon,1,0,,,,,,,,,,,,,,,,repeat,number,numRpt,j,1.0805,Hi,,,,,,0,,,,,,,,low,8,0,8,0,1,,,,,,,,,
296626,2022-11-28_14h41.22.064,vts_reward_expectancy_bt,2022.2.4,MacIntel,60.0024001,Chrome,1792,1120,,,,,10,645,,,,,,,,,,,,,,,,,U,125,circle,1,0,,,,,,,,,,,,,,,,repeat,number,numRpt,j,0.6674,Hi,,,,,,0,,,,,,,,low,9,0,9,0,1,,,,,,,,,
296626,2022-11-28_14h41.22.064,vts_reward_expectancy_bt,2022.2.4,MacIntel,60.0024001,Chrome,1792,1120,,,,,1,646,,,,,,,,,,,,,,,,,H,160,triangle,1,0,,,,,,,,,,,,,,,,repeat,number,numRpt,k,1.0162,Lo,,,,,,0,,,,,,,,low,10,0,10,0,1,,,,,,,,,
296626,2022-11-28_14h41.22.064,vts_reward_expectancy_bt,2022.2.4,MacIntel,60.0024001,Chrome,1792,1120,,,,,0,646,,,,,,,,,,,,,,,,,Y,167,star,0,0,,,,,,,,,,,,,,,,repeat,number,NA,j,0.9802,Lo,,,,,,0,,,,,,,,low,11,0,11,0,1,,,,,,,,,
296626,2022-11-28_14h41.22.064,vts_reward_expectancy_bt,2022.2.4,MacIntel,60.0024001,Chrome,1792,1120,,,,,10,656,,,,,,,,,,,,,,,,,D,174,triangle,1,1,,,,,,,,,,,,,,,,repeat,number,numRpt,k,0.6311,Lo,,,,,,0,,,,,,,,low,12,0,12,0,1,,,,,,,,,
296626,2022-11-28_14h41.22.064,vts_reward_expectancy_bt,2022.2.4,MacIntel,60.0024001,Chrome,1792,1120,,,,,10,666,,,,,,,,,,,,,,,,,F,132,hexagon,1,0,,,,,,,,,,,,,,,,repeat,number,numRpt,j,0.7642,Hi,,,,,,0,,,,,,,,low,13,0,13,0,1,,,,,,,,,
296626,2022-11-28_14h41.22.064,vts_reward_expectancy_bt,2022.2.4,MacIntel,60.0024001,Chrome,1792,1120,,,,,1,667,,,,,,,,,,,,,,,,,W,146,star,1,0,,,,,,,,,,,,,,,,repeat,number,numRpt,j,0.6981,Lo,,,,,,0,,,,,,,,low,14,0,14,0,1,,,,,,,,,
296626,2022-11-28_14h41.22.064,vts_reward_expectancy_bt,2022.2.4,MacIntel,60.0024001,Chrome,1792,1120,,,,,1,668,,,,,,,,,,,,,,,,,S,181,circle,1,0,,,,,,,,,,,,,,,,repeat,number,numRpt,k,0.4138,Hi,,,,,,0,,,,,,,,low,15,0,15,0,1,,,,,,,,,
296626,2022-11-28_14h41.22.064,vts_reward_expectancy_bt,2022.2.4,MacIntel,60.0024001,Chrome,1792,1120,,,,,1,669,,,,,,,,,,,,,,,,,B,181,star,1,0,,,,,,,,,,,,,,,,repeat,number,numRpt,k,0.7982,Lo,,,,,,0,,,,,,,,low,16,0,16,0,1,,,,,,,,,
296626,2022-11-28_14h41.22.064,vts_reward_expectancy_bt,2022.2.4,MacIntel,60.0024001,Chrome,1792,1120,,,,,10,679,,,,,,,,,,,,,,,,,D,125,hexagon,1,0,,,,,,,,,,,,,,,,repeat,number,numRpt,j,0.7816,Hi,,,,,,0,,,,,,,,low,17,0,17,0,1,,,,,,,,,
296626,2022-11-28_14h41.22.064,vts_reward_expectancy_bt,2022.2.4,MacIntel,60.0024001,Chrome,1792,1120,,,,,10,689,,,,,,,,,,,,,,,,,F,139,circle,1,0,,,,,,,,,,,,,,,,switch,letter,lettSwt,d,0.7694,Hi,,,,,,0,,,,,,,,low,18,0,18,0,1,,,,,,,,,
296626,2022-11-28_14h41.22.064,vts_reward_expectancy_bt,2022.2.4,MacIntel,60.0024001,Chrome,1792,1120,,,,,1,690,,,,,,,,,,,,,,,,,S,167,triangle,1,0,,,,,,,,,,,,,,,,repeat,letter,lettRpt,f,1.1693,Lo,,,,,,0,,,,,,,,low,19,0,19,0,1,,,,,,,,,
296626,2022-11-28_14h41.22.064,vts_reward_expectancy_bt,2022.2.4,MacIntel,60.0024001,Chrome,1792,1120,,,,,1,691,,,,,,,,,,,,,,,,,Y,174,star,1,0,,,,,,,,,,,,,,,,repeat,letter,lettRpt,f,0.8299,Lo,,,,,,0,,,,,,,,low,20,0,20,0,1,,,,,,,,,
296626,2022-11-28_14h41.22.064,vts_reward_expectancy_bt,2022.2.4,MacIntel,60.0024001,Chrome,1792,1120,,,,,0,691,,,,,,,,,,,,,,,,,H,146,hexagon,1,0,,,,,,,,,,,,,,,,repeat,letter,lettRpt,d,1.8298,Hi,,,,,,0,,,,,,,,low,21,0,21,0,1,,,,,,,,,
296626,2022-11-28_14h41.22.064,vts_reward_expectancy_bt,2022.2.4,MacIntel,60.0024001,Chrome,1792,1120,,,,,10,701,,,,,,,,,,,,,,,,,W,132,triangle,1,0,,,,,,,,,,,,,,,,repeat,letter,lettRpt,f,0.9984,Lo,,,,,,0,,,,,,,,low,22,0,22,0,1,,,,,,,,,
296626,2022-11-28_14h41.22.064,vts_reward_expectancy_bt,2022.2.4,MacIntel,60.0024001,Chrome,1792,1120,,,,,10,711,,,,,,,,,,,,,,,,,U,160,circle,1,0,,,,,,,,,,,,,,,,switch,number,numSwt,k,0.6833,Hi,,,,,,0,,,,,,,,low,23,0,23,0,1,,,,,,,,,
296626,2022-11-28_14h41.22.064,vts_reward_expectancy_bt,2022.2.4,MacIntel,60.0024001,Chrome,1792,1120,,,,,0,711,,,,,,,,,,,,,,,,,H,160,hexagon,1,0,,,,,,,,,,,,,,,,switch,letter,lettSwt,d,1.7497,Hi,,,,,,0,,,,,,,,low,24,0,24,0,1,,,,,,,,,
296626,2022-11-28_14h41.22.064,vts_reward_expectancy_bt,2022.2.4,MacIntel,60.0024001,Chrome,1792,1120,,,,,0,711,,,,,,,,,,,,,,,,,U,132,circle,1,0,,,,,,,,,,,,,,,,repeat,letter,lettRpt,f,0.8646,Hi,,,,,,0,,,,,,,,low,25,0,25,0,1,,,,,,,,,
296626,2022-11-28_14h41.22.064,vts_reward_expectancy_bt,2022.2.4,MacIntel,60.0024001,Chrome,1792,1120,,,,,10,721,,,,,,,,,,,,,,,,,Y,139,triangle,1,0,,,,,,,,,,,,,,,,repeat,letter,lettRpt,f,1.3472,Lo,,,,,,0,,,,,,,,low,26,0,26,0,1,,,,,,,,,
296626,2022-11-28_14h41.22.064,vts_reward_expectancy_bt,2022.2.4,MacIntel,60.0024001,Chrome,1792,1120,,,,,10,731,,,,,,,,,,,,,,,,,S,181,star,1,0,,,,,,,,,,,,,,,,switch,number,numSwt,k,0.8008,Lo,,,,,,0,,,,,,,,low,27,0,27,0,1,,,,,,,,,
296626,2022-11-28_14h41.22.064,vts_reward_expectancy_bt,2022.2.4,MacIntel,60.0024001,Chrome,1792,1120,,,,,10,741,,,,,,,,,,,,,,,,,F,125,triangle,1,0,,,,,,,,,,,,,,,,repeat,number,numRpt,j,0.8862,Lo,,,,,,0,,,,,,,,low,28,0,28,0,1,,,,,,,,,
296626,2022-11-28_14h41.22.064,vts_reward_expectancy_bt,2022.2.4,MacIntel,60.0024001,Chrome,1792,1120,,,,,1,742,,,,,,,,,,,,,,,,,D,174,star,1,0,,,,,,,,,,,,,,,,repeat,number,numRpt,k,0.5016,Lo,,,,,,0,,,,,,,,low,29,0,29,0,1,,,,,,,,,
296626,2022-11-28_14h41.22.064,vts_reward_expectancy_bt,2022.2.4,MacIntel,60.0024001,Chrome,1792,1120,,,,,1,743,,,,,,,,,,,,,,,,,W,167,circle,1,0,,,,,,,,,,,,,,,,repeat,number,numRpt,k,0.5722,Hi,,,,,,0,,,,,,,,low,30,0,30,0,1,,,,,,,,,
296626,2022-11-28_14h41.22.064,vts_reward_expectancy_bt,2022.2.4,MacIntel,60.0024001,Chrome,1792,1120,,,,,1,744,,,,,,,,,,,,,,,,,B,146,hexagon,1,0,,,,,,,,,,,,,,,,repeat,number,numRpt,j,0.483,Hi,,,,,,0,,,,,,,,low,31,0,31,0,1,,,,,,,,,
296626,2022-11-28_14h41.22.064,vts_reward_expectancy_bt,2022.2.4,MacIntel,60.0024001,Chrome,1792,1120,,,,,10,754,,,,,,,,,,,,,,,,,D,139,star,1,0,,,,,,,,,,,,,,,,switch,letter,lettSwt,d,0.6974,Lo,,,,,,1,,,,,,space,2.1076,low,0,0,0,0,1,,,,,,,,,
296626,2022-11-28_14h41.22.064,vts_reward_expectancy_bt,2022.2.4,MacIntel,60.0024001,Chrome,1792,1120,,,,,10,764,,,,,,,,,,,,,,,,,F,167,hexagon,1,0,,,,,,,,,,,,,,,,repeat,letter,lettRpt,d,0.9325,Hi,,,,,,1,,,,,,,,low,1,0,1,0,1,,,,,,,,,
296626,2022-11-28_14h41.22.064,vts_reward_expectancy_bt,2022.2.4,MacIntel,60.0024001,Chrome,1792,1120,,,,,1,765,,,,,,,,,,,,,,,,,U,146,circle,1,0,,,,,,,,,,,,,,,,repeat,letter,lettRpt,f,0.8664,Hi,,,,,,1,,,,,,,,low,2,0,2,0,1,,,,,,,,,
296626,2022-11-28_14h41.22.064,vts_reward_expectancy_bt,2022.2.4,MacIntel,60.0024001,Chrome,1792,1120,,,,,10,775,,,,,,,,,,,,,,,,,W,174,triangle,1,0,,,,,,,,,,,,,,,,repeat,letter,lettRpt,f,0.7169,Lo,,,,,,1,,,,,,,,low,3,0,3,0,1,,,,,,,,,
296626,2022-11-28_14h41.22.064,vts_reward_expectancy_bt,2022.2.4,MacIntel,60.0024001,Chrome,1792,1120,,,,,1,776,,,,,,,,,,,,,,,,,H,160,star,1,0,,,,,,,,,,,,,,,,repeat,letter,lettRpt,d,1.3164,Lo,,,,,,1,,,,,,,,low,4,0,4,0,1,,,,,,,,,
296626,2022-11-28_14h41.22.064,vts_reward_expectancy_bt,2022.2.4,MacIntel,60.0024001,Chrome,1792,1120,,,,,10,786,,,,,,,,,,,,,,,,,Y,181,hexagon,1,0,,,,,,,,,,,,,,,,repeat,letter,lettRpt,f,0.7825,Hi,,,,,,1,,,,,,,,low,5,0,5,0,1,,,,,,,,,
296626,2022-11-28_14h41.22.064,vts_reward_expectancy_bt,2022.2.4,MacIntel,60.0024001,Chrome,1792,1120,,,,,1,787,,,,,,,,,,,,,,,,,B,132,circle,1,0,,,,,,,,,,,,,,,,repeat,letter,lettRpt,d,0.6478,Hi,,,,,,1,,,,,,,,low,6,0,6,0,1,,,,,,,,,
296626,2022-11-28_14h41.22.064,vts_reward_expectancy_bt,2022.2.4,MacIntel,60.0024001,Chrome,1792,1120,,,,,1,788,,,,,,,,,,,,,,,,,S,125,triangle,1,0,,,,,,,,,,,,,,,,switch,number,numSwt,j,1.5,Lo,,,,,,1,,,,,,,,low,7,0,7,0,1,,,,,,,,,
296626,2022-11-28_14h41.22.064,vts_reward_expectancy_bt,2022.2.4,MacIntel,60.0024001,Chrome,1792,1120,,,,,10,798,,,,,,,,,,,,,,,,,D,139,triangle,1,0,,,,,,,,,,,,,,,,switch,letter,lettSwt,d,0.8353,Lo,,,,,,1,,,,,,,,low,8,0,8,0,1,,,,,,,,,
296626,2022-11-28_14h41.22.064,vts_reward_expectancy_bt,2022.2.4,MacIntel,60.0024001,Chrome,1792,1120,,,,,10,808,,,,,,,,,,,,,,,,,F,167,star,1,0,,,,,,,,,,,,,,,,repeat,letter,lettRpt,d,1.3046,Lo,,,,,,1,,,,,,,,low,9,0,9,0,1,,,,,,,,,
296626,2022-11-28_14h41.22.064,vts_reward_expectancy_bt,2022.2.4,MacIntel,60.0024001,Chrome,1792,1120,,,,,10,818,,,,,,,,,,,,,,,,,U,146,hexagon,1,0,,,,,,,,,,,,,,,,repeat,letter,lettRpt,f,0.8665,Hi,,,,,,1,,,,,,,,low,10,0,10,0,1,,,,,,,,,
296626,2022-11-28_14h41.22.064,vts_reward_expectancy_bt,2022.2.4,MacIntel,60.0024001,Chrome,1792,1120,,,,,0,818,,,,,,,,,,,,,,,,,W,174,circle,1,0,,,,,,,,,,,,,,,,repeat,letter,lettRpt,f,1.0483,Hi,,,,,,1,,,,,,,,low,11,0,11,0,1,,,,,,,,,
296626,2022-11-28_14h41.22.064,vts_reward_expectancy_bt,2022.2.4,MacIntel,60.0024001,Chrome,1792,1120,,,,,0,818,,,,,,,,,,,,,,,,,H,160,hexagon,1,0,,,,,,,,,,,,,,,,switch,number,numSwt,k,1.449,Hi,,,,,,1,,,,,,,,low,12,0,12,0,1,,,,,,,,,
296626,2022-11-28_14h41.22.064,vts_reward_expectancy_bt,2022.2.4,MacIntel,60.0024001,Chrome,1792,1120,,,,,1,819,,,,,,,,,,,,,,,,,Y,181,star,1,0,,,,,,,,,,,,,,,,repeat,number,numRpt,k,0.8654,Lo,,,,,,1,,,,,,,,low,13,0,13,0,1,,,,,,,,,
296626,2022-11-28_14h41.22.064,vts_reward_expectancy_bt,2022.2.4,MacIntel,60.0024001,Chrome,1792,1120,,,,,0,819,,,,,,,,,,,,,,,,,B,132,circle,1,0,,,,,,,,,,,,,,,,repeat,number,numRpt,j,0.6984,Hi,,,,,,1,,,,,,,,low,14,0,14,0,1,,,,,,,,,
296626,2022-11-28_14h41.22.064,vts_reward_expectancy_bt,2022.2.4,MacIntel,60.0024001,Chrome,1792,1120,,,,,1,820,,,,,,,,,,,,,,,,,S,125,triangle,1,0,,,,,,,,,,,,,,,,repeat,number,numRpt,j,0.6666,Lo,,,,,,1,,,,,,,,low,15,0,15,0,1,,,,,,,,,
296626,2022-11-28_14h41.22.064,vts_reward_expectancy_bt,2022.2.4,MacIntel,60.0024001,Chrome,1792,1120,,,,,10,830,,,,,,,,,,,,,,,,,B,132,circle,1,0,,,,,,,,,,,,,,,,repeat,number,numRpt,j,0.5029,Hi,,,,,,1,,,,,,,,low,16,0,16,0,1,,,,,,,,,
296626,2022-11-28_14h41.22.064,vts_reward_expectancy_bt,2022.2.4,MacIntel,60.0024001,Chrome,1792,1120,,,,,0,830,,,,,,,,,,,,,,,,,U,125,hexagon,1,0,,,,,,,,,,,,,,,,repeat,number,numRpt,j,0.7001,Hi,,,,,,1,,,,,,,,low,17,0,17,0,1,,,,,,,,,
296626,2022-11-28_14h41.22.064,vts_reward_expectancy_bt,2022.2.4,MacIntel,60.0024001,Chrome,1792,1120,,,,,1,831,,,,,,,,,,,,,,,,,Y,167,triangle,1,0,,,,,,,,,,,,,,,,repeat,number,numRpt,k,0.7212,Lo,,,,,,1,,,,,,,,low,18,0,18,0,1,,,,,,,,,
296626,2022-11-28_14h41.22.064,vts_reward_expectancy_bt,2022.2.4,MacIntel,60.0024001,Chrome,1792,1120,,,,,10,841,,,,,,,,,,,,,,,,,S,160,star,1,0,,,,,,,,,,,,,,,,switch,letter,lettSwt,f,1.5323,Lo,,,,,,1,,,,,,,,low,19,0,19,0,1,,,,,,,,,
296626,2022-11-28_14h41.22.064,vts_reward_expectancy_bt,2022.2.4,MacIntel,60.0024001,Chrome,1792,1120,,,,,1,842,,,,,,,,,,,,,,,,,F,146,hexagon,1,0,,,,,,,,,,,,,,,,repeat,letter,lettRpt,d,0.849,Hi,,,,,,1,,,,,,,,low,20,0,20,0,1,,,,,,,,,
296626,2022-11-28_14h41.22.064,vts_reward_expectancy_bt,2022.2.4,MacIntel,60.0024001,Chrome,1792,1120,,,,,1,843,,,,,,,,,,,,,,,,,W,181,star,1,0,,,,,,,,,,,,,,,,switch,number,numSwt,k,1.1639,Lo,,,,,,1,,,,,,,,low,21,0,21,0,1,,,,,,,,,
296626,2022-11-28_14h41.22.064,vts_reward_expectancy_bt,2022.2.4,MacIntel,60.0024001,Chrome,1792,1120,,,,,0,843,,,,,,,,,,,,,,,,,H,139,circle,1,0,,,,,,,,,,,,,,,,switch,letter,lettSwt,d,0.95,Hi,,,,,,1,,,,,,,,low,22,0,22,0,1,,,,,,,,,
296626,2022-11-28_14h41.22.064,vts_reward_expectancy_bt,2022.2.4,MacIntel,60.0024001,Chrome,1792,1120,,,,,1,844,,,,,,,,,,,,,,,,,D,174,triangle,1,0,,,,,,,,,,,,,,,,repeat,letter,lettRpt,d,0.6462,Lo,,,,,,1,,,,,,,,low,23,0,23,0,1,,,,,,,,,
296626,2022-11-28_14h41.22.064,vts_reward_expectancy_bt,2022.2.4,MacIntel,60.0024001,Chrome,1792,1120,,,,,0,844,,,,,,,,,,,,,,,,,H,167,circle,1,0,,,,,,,,,,,,,,,,repeat,letter,lettRpt,d,1.2471,Hi,,,,,,1,,,,,,,,low,24,0,24,0,1,,,,,,,,,
296626,2022-11-28_14h41.22.064,vts_reward_expectancy_bt,2022.2.4,MacIntel,60.0024001,Chrome,1792,1120,,,,,1,845,,,,,,,,,,,,,,,,,Y,139,triangle,1,0,,,,,,,,,,,,,,,,switch,number,numSwt,j,0.8811,Lo,,,,,,1,,,,,,,,low,25,0,25,0,1,,,,,,,,,
296626,2022-11-28_14h41.22.064,vts_reward_expectancy_bt,2022.2.4,MacIntel,60.0024001,Chrome,1792,1120,,,,,1,846,,,,,,,,,,,,,,,,,U,181,hexagon,1,0,,,,,,,,,,,,,,,,repeat,number,numRpt,k,0.5161,Hi,,,,,,1,,,,,,,,low,26,0,26,0,1,,,,,,,,,
296626,2022-11-28_14h41.22.064,vts_reward_expectancy_bt,2022.2.4,MacIntel,60.0024001,Chrome,1792,1120,,,,,1,847,,,,,,,,,,,,,,,,,B,174,star,1,0,,,,,,,,,,,,,,,,repeat,number,numRpt,k,0.8144,Lo,,,,,,1,,,,,,,,low,27,0,27,0,1,,,,,,,,,
296626,2022-11-28_14h41.22.064,vts_reward_expectancy_bt,2022.2.4,MacIntel,60.0024001,Chrome,1792,1120,,,,,0,847,,,,,,,,,,,,,,,,,W,132,circle,1,0,,,,,,,,,,,,,,,,repeat,number,numRpt,j,0.8197,Hi,,,,,,1,,,,,,,,low,28,0,28,0,1,,,,,,,,,
296626,2022-11-28_14h41.22.064,vts_reward_expectancy_bt,2022.2.4,MacIntel,60.0024001,Chrome,1792,1120,,,,,1,848,,,,,,,,,,,,,,,,,D,125,hexagon,1,0,,,,,,,,,,,,,,,,repeat,number,numRpt,j,0.5678,Hi,,,,,,1,,,,,,,,low,29,0,29,0,1,,,,,,,,,
296626,2022-11-28_14h41.22.064,vts_reward_expectancy_bt,2022.2.4,MacIntel,60.0024001,Chrome,1792,1120,,,,,0,848,,,,,,,,,,,,,,,,,S,146,triangle,0,0,,,,,,,,,,,,,,,,repeat,number,NA,k,0.5145,Hi,,,,,,1,,,,,,,,low,30,0,30,0,1,,,,,,,,,
296626,2022-11-28_14h41.22.064,vts_reward_expectancy_bt,2022.2.4,MacIntel,60.0024001,Chrome,1792,1120,,,,,1,849,,,,,,,,,,,,,,,,,F,160,star,1,1,,,,,,,,,,,,,,,,switch,letter,lettSwt,d,0.9981,Lo,,,,,,1,,,,,,,,low,31,0,31,0,1,,,,,,,,,
296626,2022-11-28_14h41.22.064,vts_reward_expectancy_bt,2022.2.4,MacIntel,60.0024001,Chrome,1792,1120,,,,,10,859,,,,,,,,,,,,,,,,,D,132,hexagon,1,0,,,,,,,,,,,,,,,,switch,number,numSwt,j,0.419,Hi,,,,,,2,,,,,,space,3.5935,low,0,0,0,0,1,,,,,,,,,
296626,2022-11-28_14h41.22.064,vts_reward_expectancy_bt,2022.2.4,MacIntel,60.0024001,Chrome,1792,1120,,,,,10,869,,,,,,,,,,,,,,,,,U,125,circle,1,0,,,,,,,,,,,,,,,,repeat,number,numRpt,j,0.5972,Hi,,,,,,2,,,,,,,,low,1,0,1,0,1,,,,,,,,,
296626,2022-11-28_14h41.22.064,vts_reward_expectancy_bt,2022.2.4,MacIntel,60.0024001,Chrome,1792,1120,,,,,10,879,,,,,,,,,,,,,,,,,Y,167,triangle,1,0,,,,,,,,,,,,,,,,repeat,number,numRpt,k,0.5528,Lo,,,,,,2,,,,,,,,low,2,0,2,0,1,,,,,,,,,
296626,2022-11-28_14h41.22.064,vts_reward_expectancy_bt,2022.2.4,MacIntel,60.0024001,Chrome,1792,1120,,,,,1,880,,,,,,,,,,,,,,,,,F,181,star,1,0,,,,,,,,,,,,,,,,repeat,number,numRpt,k,0.6199,Lo,,,,,,2,,,,,,,,low,3,0,3,0,1,,,,,,,,,
296626,2022-11-28_14h41.22.064,vts_reward_expectancy_bt,2022.2.4,MacIntel,60.0024001,Chrome,1792,1120,,,,,1,881,,,,,,,,,,,,,,,,,S,139,hexagon,1,0,,,,,,,,,,,,,,,,repeat,number,numRpt,j,0.5192,Hi,,,,,,2,,,,,,,,low,4,0,4,0,1,,,,,,,,,
296626,2022-11-28_14h41.22.064,vts_reward_expectancy_bt,2022.2.4,MacIntel,60.0024001,Chrome,1792,1120,,,,,1,882,,,,,,,,,,,,,,,,,W,146,circle,1,0,,,,,,,,,,,,,,,,repeat,number,numRpt,j,0.5838,Hi,,,,,,2,,,,,,,,low,5,0,5,0,1,,,,,,,,,
296626,2022-11-28_14h41.22.064,vts_reward_expectancy_bt,2022.2.4,MacIntel,60.0024001,Chrome,1792,1120,,,,,1,883,,,,,,,,,,,,,,,,,B,160,triangle,1,0,,,,,,,,,,,,,,,,repeat,number,numRpt,k,0.5808,Lo,,,,,,2,,,,,,,,low,6,0,6,0,1,,,,,,,,,
296626,2022-11-28_14h41.22.064,vts_reward_expectancy_bt,2022.2.4,MacIntel,60.0024001,Chrome,1792,1120,,,,,10,893,,,,,,,,,,,,,,,,,H,174,star,1,0,,,,,,,,,,,,,,,,repeat,number,numRpt,k,1.1651,Lo,,,,,,2,,,,,,,,low,7,0,7,0,1,,,,,,,,,
296626,2022-11-28_14h41.22.064,vts_reward_expectancy_bt,2022.2.4,MacIntel,60.0024001,Chrome,1792,1120,,,,,1,894,,,,,,,,,,,,,,,,,D,132,star,1,0,,,,,,,,,,,,,,,,repeat,number,numRpt,j,0.7872,Lo,,,,,,2,,,,,,,,low,8,0,8,0,1,,,,,,,,,
296626,2022-11-28_14h41.22.064,vts_reward_expectancy_bt,2022.2.4,MacIntel,60.0024001,Chrome,1792,1120,,,,,0,894,,,,,,,,,,,,,,,,,U,125,circle,1,0,,,,,,,,,,,,,,,,repeat,number,numRpt,j,0.6646,Hi,,,,,,2,,,,,,,,low,9,0,9,0,1,,,,,,,,,
296626,2022-11-28_14h41.22.064,vts_reward_expectancy_bt,2022.2.4,MacIntel,60.0024001,Chrome,1792,1120,,,,,10,904,,,,,,,,,,,,,,,,,Y,167,triangle,1,0,,,,,,,,,,,,,,,,repeat,number,numRpt,k,0.5298,Lo,,,,,,2,,,,,,,,low,10,0,10,0,1,,,,,,,,,
296626,2022-11-28_14h41.22.064,vts_reward_expectancy_bt,2022.2.4,MacIntel,60.0024001,Chrome,1792,1120,,,,,10,914,,,,,,,,,,,,,,,,,F,181,hexagon,1,0,,,,,,,,,,,,,,,,repeat,number,numRpt,k,0.4993,Hi,,,,,,2,,,,,,,,low,11,0,11,0,1,,,,,,,,,
296626,2022-11-28_14h41.22.064,vts_reward_expectancy_bt,2022.2.4,MacIntel,60.0024001,Chrome,1792,1120,,,,,0,914,,,,,,,,,,,,,,,,,S,139,hexagon,1,0,,,,,,,,,,,,,,,,repeat,number,numRpt,j,1.4138,Hi,,,,,,2,,,,,,,,low,12,0,12,0,1,,,,,,,,,
296626,2022-11-28_14h41.22.064,vts_reward_expectancy_bt,2022.2.4,MacIntel,60.0024001,Chrome,1792,1120,,,,,1,915,,,,,,,,,,,,,,,,,W,146,star,1,0,,,,,,,,,,,,,,,,switch,letter,lettSwt,f,1.9049,Lo,,,,,,2,,,,,,,,low,13,0,13,0,1,,,,,,,,,
296626,2022-11-28_14h41.22.064,vts_reward_expectancy_bt,2022.2.4,MacIntel,60.0024001,Chrome,1792,1120,,,,,10,925,,,,,,,,,,,,,,,,,B,160,circle,1,0,,,,,,,,,,,,,,,,repeat,letter,lettRpt,d,0.4971,Hi,,,,,,2,,,,,,,,low,14,0,14,0,1,,,,,,,,,
296626,2022-11-28_14h41.22.064,vts_reward_expectancy_bt,2022.2.4,MacIntel,60.0024001,Chrome,1792,1120,,,,,0,925,,,,,,,,,,,,,,,,,H,174,triangle,0,0,,,,,,,,,,,,,,,,repeat,letter,NA,f,1.5644,Hi,,,,,,2,,,,,,,,low,15,0,15,0,1,,,,,,,,,
296626,2022-11-28_14h41.22.064,vts_reward_expectancy_bt,2022.2.4,MacIntel,60.0024001,Chrome,1792,1120,,,,,0,925,,,,,,,,,,,,,,,,,F,139,hexagon,1,1,,,,,,,,,,,,,,,,repeat,letter,lettRpt,d,1.5816,Hi,,,,,,2,,,,,,,,low,16,0,16,0,1,,,,,,,,,
296626,2022-11-28_14h41.22.064,vts_reward_expectancy_bt,2022.2.4,MacIntel,60.0024001,Chrome,1792,1120,,,,,1,926,,,,,,,,,,,,,,,,,W,125,star,1,0,,,,,,,,,,,,,,,,repeat,letter,lettRpt,f,0.8374,Lo,,,,,,2,,,,,,,,low,17,0,17,0,1,,,,,,,,,
296626,2022-11-28_14h41.22.064,vts_reward_expectancy_bt,2022.2.4,MacIntel,60.0024001,Chrome,1792,1120,,,,,10,936,,,,,,,,,,,,,,,,,U,146,circle,1,0,,,,,,,,,,,,,,,,switch,number,numSwt,j,0.7484,Hi,,,,,,2,,,,,,,,low,18,0,18,0,1,,,,,,,,,
296626,2022-11-28_14h41.22.064,vts_reward_expectancy_bt,2022.2.4,MacIntel,60.0024001,Chrome,1792,1120,,,,,1,937,,,,,,,,,,,,,,,,,H,181,triangle,1,0,,,,,,,,,,,,,,,,repeat,number,numRpt,k,0.8361,Lo,,,,,,2,,,,,,,,low,19,0,19,0,1,,,,,,,,,
296626,2022-11-28_14h41.22.064,vts_reward_expectancy_bt,2022.2.4,MacIntel,60.0024001,Chrome,1792,1120,,,,,1,938,,,,,,,,,,,,,,,,,D,132,circle,1,0,,,,,,,,,,,,,,,,repeat,number,numRpt,j,0.4641,Hi,,,,,,2,,,,,,,,low,20,0,20,0,1,,,,,,,,,
296626,2022-11-28_14h41.22.064,vts_reward_expectancy_bt,2022.2.4,MacIntel,60.0024001,Chrome,1792,1120,,,,,1,939,,,,,,,,,,,,,,,,,Y,174,hexagon,1,0,,,,,,,,,,,,,,,,repeat,number,numRpt,k,0.6021,Hi,,,,,,2,,,,,,,,low,21,0,21,0,1,,,,,,,,,
296626,2022-11-28_14h41.22.064,vts_reward_expectancy_bt,2022.2.4,MacIntel,60.0024001,Chrome,1792,1120,,,,,1,940,,,,,,,,,,,,,,,,,S,160,star,1,0,,,,,,,,,,,,,,,,repeat,number,numRpt,k,2.2375,Lo,,,,,,2,,,,,,,,low,22,0,22,0,1,,,,,,,,,
296626,2022-11-28_14h41.22.064,vts_reward_expectancy_bt,2022.2.4,MacIntel,60.0024001,Chrome,1792,1120,,,,,1,941,,,,,,,,,,,,,,,,,B,167,triangle,1,0,,,,,,,,,,,,,,,,repeat,number,numRpt,k,0.9366,Lo,,,,,,2,,,,,,,,low,23,0,23,0,1,,,,,,,,,
296626,2022-11-28_14h41.22.064,vts_reward_expectancy_bt,2022.2.4,MacIntel,60.0024001,Chrome,1792,1120,,,,,1,942,,,,,,,,,,,,,,,,,D,132,star,1,0,,,,,,,,,,,,,,,,switch,letter,lettSwt,d,0.631,Lo,,,,,,2,,,,,,,,low,24,0,24,0,1,,,,,,,,,
296626,2022-11-28_14h41.22.064,vts_reward_expectancy_bt,2022.2.4,MacIntel,60.0024001,Chrome,1792,1120,,,,,0,942,,,,,,,,,,,,,,,,,F,167,hexagon,1,0,,,,,,,,,,,,,,,,repeat,letter,lettRpt,d,0.9808,Hi,,,,,,2,,,,,,,,low,25,0,25,0,1,,,,,,,,,
296626,2022-11-28_14h41.22.064,vts_reward_expectancy_bt,2022.2.4,MacIntel,60.0024001,Chrome,1792,1120,,,,,10,952,,,,,,,,,,,,,,,,,H,181,circle,1,0,,,,,,,,,,,,,,,,switch,number,numSwt,k,1.0133,Hi,,,,,,2,,,,,,,,low,26,0,26,0,1,,,,,,,,,
296626,2022-11-28_14h41.22.064,vts_reward_expectancy_bt,2022.2.4,MacIntel,60.0024001,Chrome,1792,1120,,,,,1,953,,,,,,,,,,,,,,,,,S,160,triangle,1,0,,,,,,,,,,,,,,,,repeat,number,numRpt,k,0.7535,Lo,,,,,,2,,,,,,,,low,27,0,27,0,1,,,,,,,,,
296626,2022-11-28_14h41.22.064,vts_reward_expectancy_bt,2022.2.4,MacIntel,60.0024001,Chrome,1792,1120,,,,,1,954,,,,,,,,,,,,,,,,,W,125,star,1,0,,,,,,,,,,,,,,,,repeat,number,numRpt,j,0.7305,Lo,,,,,,2,,,,,,,,low,28,0,28,0,1,,,,,,,,,
296626,2022-11-28_14h41.22.064,vts_reward_expectancy_bt,2022.2.4,MacIntel,60.0024001,Chrome,1792,1120,,,,,0,954,,,,,,,,,,,,,,,,,B,139,hexagon,1,0,,,,,,,,,,,,,,,,repeat,number,numRpt,j,0.8808,Hi,,,,,,2,,,,,,,,low,29,0,29,0,1,,,,,,,,,
296626,2022-11-28_14h41.22.064,vts_reward_expectancy_bt,2022.2.4,MacIntel,60.0024001,Chrome,1792,1120,,,,,10,964,,,,,,,,,,,,,,,,,Y,146,circle,1,0,,,,,,,,,,,,,,,,repeat,number,numRpt,j,0.5309,Hi,,,,,,2,,,,,,,,low,30,0,30,0,1,,,,,,,,,
296626,2022-11-28_14h41.22.064,vts_reward_expectancy_bt,2022.2.4,MacIntel,60.0024001,Chrome,1792,1120,,,,,10,974,,,,,,,,,,,,,,,,,U,174,triangle,1,0,,,,,,,,,,,,,,,,repeat,number,numRpt,k,0.6326,Lo,,,,,,2,,,,,,,,low,31,0,31,0,1,,,,,,,,,
296626,2022-11-28_14h41.22.064,vts_reward_expectancy_bt,2022.2.4,MacIntel,60.0024001,Chrome,1792,1120,,,,,1,975,,,,,,,,,,,,,,,,,S,125,star,1,0,,,,,,,,,,,,,,,,switch,letter,lettSwt,f,1.0836,Lo,,,,,,3,,,,,,space,5.3749,low,0,0,0,0,1,,,,,,,,,
296626,2022-11-28_14h41.22.064,vts_reward_expectancy_bt,2022.2.4,MacIntel,60.0024001,Chrome,1792,1120,,,,,10,985,,,,,,,,,,,,,,,,,Y,167,circle,1,0,,,,,,,,,,,,,,,,repeat,letter,lettRpt,f,0.6667,Hi,,,,,,3,,,,,,,,low,1,0,1,0,1,,,,,,,,,
296626,2022-11-28_14h41.22.064,vts_reward_expectancy_bt,2022.2.4,MacIntel,60.0024001,Chrome,1792,1120,,,,,0,985,,,,,,,,,,,,,,,,,H,139,hexagon,1,0,,,,,,,,,,,,,,,,repeat,letter,lettRpt,d,1.5296,Hi,,,,,,3,,,,,,,,low,2,0,2,0,1,,,,,,,,,
296626,2022-11-28_14h41.22.064,vts_reward_expectancy_bt,2022.2.4,MacIntel,60.0024001,Chrome,1792,1120,,,,,10,995,,,,,,,,,,,,,,,,,F,160,triangle,1,0,,,,,,,,,,,,,,,,repeat,letter,lettRpt,d,0.8996,Lo,,,,,,3,,,,,,,,low,3,0,3,0,1,,,,,,,,,
296626,2022-11-28_14h41.22.064,vts_reward_expectancy_bt,2022.2.4,MacIntel,60.0024001,Chrome,1792,1120,,,,,1,996,,,,,,,,,,,,,,,,,B,146,star,1,0,,,,,,,,,,,,,,,,repeat,letter,lettRpt,d,0.6478,Lo,,,,,,3,,,,,,,,low,4,0,4,0,1,,,,,,,,,
296626,2022-11-28_14h41.22.064,vts_reward_expectancy_bt,2022.2.4,MacIntel,60.0024001,Chrome,1792,1120,,,,,0,996,,,,,,,,,,,,,,,,,D,132,circle,1,0,,,,,,,,,,,,,,,,repeat,letter,lettRpt,d,0.9645,Hi,,,,,,3,,,,,,,,low,5,0,5,0,1,,,,,,,,,
296626,2022-11-28_14h41.22.064,vts_reward_expectancy_bt,2022.2.4,MacIntel,60.0024001,Chrome,1792,1120,,,,,0,996,,,,,,,,,,,,,,,,,W,181,hexagon,1,0,,,,,,,,,,,,,,,,repeat,letter,lettRpt,f,1.2191,Hi,,,,,,3,,,,,,,,low,6,0,6,0,1,,,,,,,,,
296626,2022-11-28_14h41.22.064,vts_reward_expectancy_bt,2022.2.4,MacIntel,60.0024001,Chrome,1792,1120,,,,,1,997,,,,,,,,,,,,,,,,,U,174,triangle,1,0,,,,,,,,,,,,,,,,switch,number,numSwt,k,0.616,Lo,,,,,,3,,,,,,,,low,7,0,7,0,1,,,,,,,,,
296626,2022-11-28_14h41.22.064,vts_reward_expectancy_bt,2022.2.4,MacIntel,60.0024001,Chrome,1792,1120,,,,,10,1007,,,,,,,,,,,,,,,,,S,125,triangle,1,0,,,,,,,,,,,,,,,,repeat,number,numRpt,j,0.467,Lo,,,,,,3,,,,,,,,low,8,0,8,0,1,,,,,,,,,
296626,2022-11-28_14h41.22.064,vts_reward_expectancy_bt,2022.2.4,MacIntel,60.0024001,Chrome,1792,1120,,,,,0,1007,,,,,,,,,,,,,,,,,Y,167,circle,1,0,,,,,,,,,,,,,,,,repeat,number,numRpt,k,0.6385,Hi,,,,,,3,,,,,,,,low,9,0,9,0,1,,,,,,,,,
296626,2022-11-28_14h41.22.064,vts_reward_expectancy_bt,2022.2.4,MacIntel,60.0024001,Chrome,1792,1120,,,,,10,1017,,,,,,,,,,,,,,,,,H,139,star,1,0,,,,,,,,,,,,,,,,repeat,number,numRpt,j,1.4469,Lo,,,,,,3,,,,,,,,low,10,0,10,0,1,,,,,,,,,
296626,2022-11-28_14h41.22.064,vts_reward_expectancy_bt,2022.2.4,MacIntel,60.0024001,Chrome,1792,1120,,,,,0,1017,,,,,,,,,,,,,,,,,F,160,hexagon,1,0,,,,,,,,,,,,,,,,repeat,number,numRpt,k,1.1991,Hi,,,,,,3,,,,,,,,low,11,0,11,0,1,,,,,,,,,
296626,2022-11-28_14h41.22.064,vts_reward_expectancy_bt,2022.2.4,MacIntel,60.0024001,Chrome,1792,1120,,,,,0,1017,,,,,,,,,,,,,,,,,B,146,hexagon,1,0,,,,,,,,,,,,,,,,repeat,number,numRpt,j,0.6825,Hi,,,,,,3,,,,,,,,low,12,0,12,0,1,,,,,,,,,
296626,2022-11-28_14h41.22.064,vts_reward_expectancy_bt,2022.2.4,MacIntel,60.0024001,Chrome,1792,1120,,,,,1,1018,,,,,,,,,,,,,,,,,D,132,triangle,1,0,,,,,,,,,,,,,,,,repeat,number,numRpt,j,0.7325,Lo,,,,,,3,,,,,,,,low,13,0,13,0,1,,,,,,,,,
296626,2022-11-28_14h41.22.064,vts_reward_expectancy_bt,2022.2.4,MacIntel,60.0024001,Chrome,1792,1120,,,,,10,1028,,,,,,,,,,,,,,,,,W,181,circle,1,0,,,,,,,,,,,,,,,,switch,letter,lettSwt,f,1.164,Hi,,,,,,3,,,,,,,,low,14,0,14,0,1,,,,,,,,,
296626,2022-11-28_14h41.22.064,vts_reward_expectancy_bt,2022.2.4,MacIntel,60.0024001,Chrome,1792,1120,,,,,10,1038,,,,,,,,,,,,,,,,,U,174,star,1,0,,,,,,,,,,,,,,,,switch,number,numSwt,k,0.6828,Lo,,,,,,3,,,,,,,,low,15,0,15,0,1,,,,,,,,,
296626,2022-11-28_14h41.22.064,vts_reward_expectancy_bt,2022.2.4,MacIntel,60.0024001,Chrome,1792,1120,,,,,0,1038,,,,,,,,,,,,,,,,,S,125,circle,1,0,,,,,,,,,,,,,,,,repeat,number,numRpt,j,0.887,Hi,,,,,,3,,,,,,,,low,16,0,16,0,1,,,,,,,,,
296626,2022-11-28_14h41.22.064,vts_reward_expectancy_bt,2022.2.4,MacIntel,60.0024001,Chrome,1792,1120,,,,,1,1039,,,,,,,,,,,,,,,,,U,167,triangle,1,0,,,,,,,,,,,,,,,,switch,letter,lettSwt,f,0.8973,Lo,,,,,,3,,,,,,,,low,17,0,17,0,1,,,,,,,,,
296626,2022-11-28_14h41.22.064,vts_reward_expectancy_bt,2022.2.4,MacIntel,60.0024001,Chrome,1792,1120,,,,,1,1040,,,,,,,,,,,,,,,,,Y,160,star,1,0,,,,,,,,,,,,,,,,repeat,letter,lettRpt,f,1.0493,Lo,,,,,,3,,,,,,,,low,18,0,18,0,1,,,,,,,,,
296626,2022-11-28_14h41.22.064,vts_reward_expectancy_bt,2022.2.4,MacIntel,60.0024001,Chrome,1792,1120,,,,,0,1040,,,,,,,,,,,,,,,,,W,132,hexagon,1,0,,,,,,,,,,,,,,,,repeat,letter,lettRpt,f,1.2501,Hi,,,,,,3,,,,,,,,low,19,0,19,0,1,,,,,,,,,
296626,2022-11-28_14h41.22.064,vts_reward_expectancy_bt,2022.2.4,MacIntel,60.0024001,Chrome,1792,1120,,,,,0,1040,,,,,,,,,,,,,,,,,F,146,circle,1,0,,,,,,,,,,,,,,,,repeat,letter,lettRpt,d,1.0861,Hi,,,,,,3,,,,,,,,low,20,0,20,0,1,,,,,,,,,
296626,2022-11-28_14h41.22.064,vts_reward_expectancy_bt,2022.2.4,MacIntel,60.0024001,Chrome,1792,1120,,,,,0,1040,,,,,,,,,,,,,,,,,H,139,hexagon,1,0,,,,,,,,,,,,,,,,repeat,letter,lettRpt,d,1.9525,Hi,,,,,,3,,,,,,,,low,21,0,21,0,1,,,,,,,,,
296626,2022-11-28_14h41.22.064,vts_reward_expectancy_bt,2022.2.4,MacIntel,60.0024001,Chrome,1792,1120,,,,,1,1041,,,,,,,,,,,,,,,,,B,174,triangle,1,0,,,,,,,,,,,,,,,,switch,number,numSwt,k,0.9204,Lo,,,,,,3,,,,,,,,low,22,0,22,0,1,,,,,,,,,
296626,2022-11-28_14h41.22.064,vts_reward_expectancy_bt,2022.2.4,MacIntel,60.0024001,Chrome,1792,1120,,,,,1,1042,,,,,,,,,,,,,,,,,D,181,star,1,0,,,,,,,,,,,,,,,,repeat,number,numRpt,k,0.866,Lo,,,,,,3,,,,,,,,low,23,0,23,0,1,,,,,,,,,
296626,2022-11-28_14h41.22.064,vts_reward_expectancy_bt,2022.2.4,MacIntel,60.0024001,Chrome,1792,1120,,,,,0,1042,,,,,,,,,,,,,,,,,Y,160,circle,1,0,,,,,,,,,,,,,,,,repeat,number,numRpt,k,0.7799,Hi,,,,,,3,,,,,,,,low,24,0,24,0,1,,,,,,,,,
296626,2022-11-28_14h41.22.064,vts_reward_expectancy_bt,2022.2.4,MacIntel,60.0024001,Chrome,1792,1120,,,,,1,1043,,,,,,,,,,,,,,,,,U,181,triangle,1,0,,,,,,,,,,,,,,,,switch,letter,lettSwt,f,0.8368,Lo,,,,,,3,,,,,,,,low,25,0,25,0,1,,,,,,,,,
296626,2022-11-28_14h41.22.064,vts_reward_expectancy_bt,2022.2.4,MacIntel,60.0024001,Chrome,1792,1120,,,,,10,1053,,,,,,,,,,,,,,,,,F,146,star,1,0,,,,,,,,,,,,,,,,repeat,letter,lettRpt,d,1.013,Lo,,,,,,3,,,,,,,,low,26,0,26,0,1,,,,,,,,,
296626,2022-11-28_14h41.22.064,vts_reward_expectancy_bt,2022.2.4,MacIntel,60.0024001,Chrome,1792,1120,,,,,0,1053,,,,,,,,,,,,,,,,,S,174,hexagon,1,0,,,,,,,,,,,,,,,,switch,number,numSwt,k,0.8864,Hi,,,,,,3,,,,,,,,low,27,0,27,0,1,,,,,,,,,
296626,2022-11-28_14h41.22.064,vts_reward_expectancy_bt,2022.2.4,MacIntel,60.0024001,Chrome,1792,1120,,,,,10,1063,,,,,,,,,,,,,,,,,B,139,hexagon,1,0,,,,,,,,,,,,,,,,switch,letter,lettSwt,d,0.7645,Hi,,,,,,3,,,,,,,,low,28,0,28,0,1,,,,,,,,,
296626,2022-11-28_14h41.22.064,vts_reward_expectancy_bt,2022.2.4,MacIntel,60.0024001,Chrome,1792,1120,,,,,10,1073,,,,,,,,,,,,,,,,,W,132,star,1,0,,,,,,,,,,,,,,,,repeat,letter,lettRpt,f,1.001,Lo,,,,,,3,,,,,,,,low,29,0,29,0,1,,,,,,,,,
296626,2022-11-28_14h41.22.064,vts_reward_expectancy_bt,2022.2.4,MacIntel,60.0024001,Chrome,1792,1120,,,,,10,1083,,,,,,,,,,,,,,,,,D,167,triangle,1,0,,,,,,,,,,,,,,,,repeat,letter,lettRpt,d,0.6966,Lo,,,,,,3,,,,,,,,low,30,0,30,0,1,,,,,,,,,
296626,2022-11-28_14h41.22.064,vts_reward_expectancy_bt,2022.2.4,MacIntel,60.0024001,Chrome,1792,1120,,,,,0,1083,,,,,,,,,,,,,,,,,H,125,circle,1,0,,,,,,,,,,,,,,,,switch,number,numSwt,j,1.7879,Hi,,,,,,3,,,,,,,,low,31,0,31,0,1,,,,,,,,,
296626,2022-11-28_14h41.22.064,vts_reward_expectancy_bt,2022.2.4,MacIntel,60.0024001,Chrome,1792,1120,,,,,1,1084,,,,,,,,,,,,,,,,,B,139,star,1,0,,,,,,,,,,,,,,,,switch,letter,lettSwt,d,0.5647,Lo,,,,,,4,,,,,,space,3.2129,low,0,0,0,0,1,,,,,,,,,
296626,2022-11-28_14h41.22.064,vts_reward_expectancy_bt,2022.2.4,MacIntel,60.0024001,Chrome,1792,1120,,,,,10,1094,,,,,,,,,,,,,,,,,F,160,circle,1,0,,,,,,,,,,,,,,,,repeat,letter,lettRpt,d,0.9495,Hi,,,,,,4,,,,,,,,low,1,0,1,0,1,,,,,,,,,
296626,2022-11-28_14h41.22.064,vts_reward_expectancy_bt,2022.2.4,MacIntel,60.0024001,Chrome,1792,1120,,,,,1,1095,,,,,,,,,,,,,,,,,H,132,triangle,1,0,,,,,,,,,,,,,,,,repeat,letter,lettRpt,d,0.9972,Lo,,,,,,4,,,,,,,,low,2,0,2,0,1,,,,,,,,,
296626,2022-11-28_14h41.22.064,vts_reward_expectancy_bt,2022.2.4,MacIntel,60.0024001,Chrome,1792,1120,,,,,0,1095,,,,,,,,,,,,,,,,,W,125,hexagon,1,0,,,,,,,,,,,,,,,,repeat,letter,lettRpt,f,1.0019,Hi,,,,,,4,,,,,,,,low,3,0,3,0,1,,,,,,,,,
296626,2022-11-28_14h41.22.064,vts_reward_expectancy_bt,2022.2.4,MacIntel,60.0024001,Chrome,1792,1120,,,,,1,1096,,,,,,,,,,,,,,,,,D,174,star,1,0,,,,,,,,,,,,,,,,repeat,letter,lettRpt,d,0.7296,Lo,,,,,,4,,,,,,,,low,4,0,4,0,1,,,,,,,,,
296626,2022-11-28_14h41.22.064,vts_reward_expectancy_bt,2022.2.4,MacIntel,60.0024001,Chrome,1792,1120,,,,,10,1106,,,,,,,,,,,,,,,,,Y,181,circle,1,0,,,,,,,,,,,,,,,,repeat,letter,lettRpt,f,0.8812,Hi,,,,,,4,,,,,,,,low,5,0,5,0,1,,,,,,,,,
296626,2022-11-28_14h41.22.064,vts_reward_expectancy_bt,2022.2.4,MacIntel,60.0024001,Chrome,1792,1120,,,,,10,1116,,,,,,,,,,,,,,,,,U,146,triangle,1,0,,,,,,,,,,,,,,,,repeat,letter,lettRpt,f,0.6967,Lo,,,,,,4,,,,,,,,low,6,0,6,0,1,,,,,,,,,
296626,2022-11-28_14h41.22.064,vts_reward_expectancy_bt,2022.2.4,MacIntel,60.0024001,Chrome,1792,1120,,,,,10,1126,,,,,,,,,,,,,,,,,S,167,hexagon,1,0,,,,,,,,,,,,,,,,repeat,letter,lettRpt,f,0.7978,Hi,,,,,,4,,,,,,,,low,7,0,7,0,1,,,,,,,,,
296626,2022-11-28_14h41.22.064,vts_reward_expectancy_bt,2022.2.4,MacIntel,60.0024001,Chrome,1792,1120,,,,,10,1136,,,,,,,,,,,,,,,,,B,139,circle,1,0,,,,,,,,,,,,,,,,repeat,letter,lettRpt,d,0.619,Hi,,,,,,4,,,,,,,,low,8,0,8,0,1,,,,,,,,,
296626,2022-11-28_14h41.22.064,vts_reward_expectancy_bt,2022.2.4,MacIntel,60.0024001,Chrome,1792,1120,,,,,0,1136,,,,,,,,,,,,,,,,,F,160,hexagon,1,0,,,,,,,,,,,,,,,,repeat,letter,lettRpt,d,1.1128,Hi,,,,,,4,,,,,,,,low,9,0,9,0,1,,,,,,,,,
296626,2022-11-28_14h41.22.064,vts_reward_expectancy_bt,2022.2.4,MacIntel,60.0024001,Chrome,1792,1120,,,,,0,1136,,,,,,,,,,,,,,,,,H,132,triangle,0,0,,,,,,,,,,,,,,,,repeat,letter,NA,f,1.0975,Hi,,,,,,4,,,,,,,,low,10,0,10,0,1,,,,,,,,,
296626,2022-11-28_14h41.22.064,vts_reward_expectancy_bt,2022.2.4,MacIntel,60.0024001,Chrome,1792,1120,,,,,1,1137,,,,,,,,,,,,,,,,,W,125,star,1,1,,,,,,,,,,,,,,,,repeat,letter,lettRpt,f,0.8326,Lo,,,,,,4,,,,,,,,low,11,0,11,0,1,,,,,,,,,
296626,2022-11-28_14h41.22.064,vts_reward_expectancy_bt,2022.2.4,MacIntel,60.0024001,Chrome,1792,1120,,,,,1,1138,,,,,,,,,,,,,,,,,D,174,triangle,1,0,,,,,,,,,,,,,,,,repeat,letter,lettRpt,d,0.7858,Lo,,,,,,4,,,,,,,,low,12,0,12,0,1,,,,,,,,,
296626,2022-11-28_14h41.22.064,vts_reward_expectancy_bt,2022.2.4,MacIntel,60.0024001,Chrome,1792,1120,,,,,0,1138,,,,,,,,,,,,,,,,,Y,181,star,0,0,,,,,,,,,,,,,,,,repeat,letter,NA,d,1.5796,Lo,,,,,,4,,,,,,,,low,13,0,13,0,1,,,,,,,,,
296626,2022-11-28_14h41.22.064,vts_reward_expectancy_bt,2022.2.4,MacIntel,60.0024001,Chrome,1792,1120,,,,,1,1139,,,,,,,,,,,,,,,,,U,146,circle,1,1,,,,,,,,,,,,,,,,repeat,letter,lettRpt,f,0.8803,Hi,,,,,,4,,,,,,,,low,14,0,14,0,1,,,,,,,,,
296626,2022-11-28_14h41.22.064,vts_reward_expectancy_bt,2022.2.4,MacIntel,60.0024001,Chrome,1792,1120,,,,,0,1139,,,,,,,,,,,,,,,,,S,167,hexagon,1,0,,,,,,,,,,,,,,,,repeat,letter,lettRpt,f,1.7986,Hi,,,,,,4,,,,,,,,low,15,0,15,0,1,,,,,,,,,
296626,2022-11-28_14h41.22.064,vts_reward_expectancy_bt,2022.2.4,MacIntel,60.0024001,Chrome,1792,1120,,,,,1,1140,,,,,,,,,,,,,,,,,F,132,star,1,0,,,,,,,,,,,,,,,,repeat,letter,lettRpt,d,0.813,Lo,,,,,,4,,,,,,,,low,16,0,16,0,1,,,,,,,,,
296626,2022-11-28_14h41.22.064,vts_reward_expectancy_bt,2022.2.4,MacIntel,60.0024001,Chrome,1792,1120,,,,,10,1150,,,,,,,,,,,,,,,,,W,125,triangle,1,0,,,,,,,,,,,,,,,,repeat,letter,lettRpt,f,0.9139,Lo,,,,,,4,,,,,,,,low,17,0,17,0,1,,,,,,,,,
296626,2022-11-28_14h41.22.064,vts_reward_expectancy_bt,2022.2.4,MacIntel,60.0024001,Chrome,1792,1120,,,,,0,1150,,,,,,,,,,,,,,,,,Y,146,circle,1,0,,,,,,,,,,,,,,,,repeat,letter,lettRpt,f,1.0965,Hi,,,,,,4,,,,,,,,low,18,0,18,0,1,,,,,,,,,
296626,2022-11-28_14h41.22.064,vts_reward_expectancy_bt,2022.2.4,MacIntel,60.0024001,Chrome,1792,1120,,,,,0,1150,,,,,,,,,,,,,,,,,S,160,hexagon,1,0,,,,,,,,,,,,,,,,repeat,letter,lettRpt,f,1.7971,Hi,,,,,,4,,,,,,,,low,19,0,19,0,1,,,,,,,,,
296626,2022-11-28_14h41.22.064,vts_reward_expectancy_bt,2022.2.4,MacIntel,60.0024001,Chrome,1792,1120,,,,,10,1160,,,,,,,,,,,,,,,,,B,167,hexagon,1,0,,,,,,,,,,,,,,,,repeat,letter,lettRpt,d,0.5802,Hi,,,,,,4,,,,,,,,low,20,0,20,0,1,,,,,,,,,
296626,2022-11-28_14h41.22.064,vts_reward_expectancy_bt,2022.2.4,MacIntel,60.0024001,Chrome,1792,1120,,,,,0,1160,,,,,,,,,,,,,,,,,U,181,circle,-1,0,,,,,,,,,,,,,,,,switch,no_choice,NA,,,Hi,,,,,,4,,,,,,,,low,21,0,21,0,1,,,,,,,,,
296626,2022-11-28_14h41.22.064,vts_reward_expectancy_bt,2022.2.4,MacIntel,60.0024001,Chrome,1792,1120,,,,,1,1161,,,,,,,,,,,,,,,,,H,139,star,1,0,,,,,,,,,,,,,,,,switch,number,numSwt,j,2.0325,Lo,,,,,,4,,,,,,,,low,22,0,22,0,1,,,,,,,,,
296626,2022-11-28_14h41.22.064,vts_reward_expectancy_bt,2022.2.4,MacIntel,60.0024001,Chrome,1792,1120,,,,,10,1171,,,,,,,,,,,,,,,,,D,174,triangle,1,0,,,,,,,,,,,,,,,,switch,letter,lettSwt,d,1.2798,Lo,,,,,,4,,,,,,,,low,23,0,23,0,1,,,,,,,,,
296626,2022-11-28_14h41.22.064,vts_reward_expectancy_bt,2022.2.4,MacIntel,60.0024001,Chrome,1792,1120,,,,,1,1172,,,,,,,,,,,,,,,,,D,125,star,1,0,,,,,,,,,,,,,,,,switch,number,numSwt,j,0.5372,Lo,,,,,,4,,,,,,,,low,24,0,24,0,1,,,,,,,,,
296626,2022-11-28_14h41.22.064,vts_reward_expectancy_bt,2022.2.4,MacIntel,60.0024001,Chrome,1792,1120,,,,,0,1172,,,,,,,,,,,,,,,,,Y,139,hexagon,1,0,,,,,,,,,,,,,,,,repeat,number,numRpt,j,1.0858,Hi,,,,,,4,,,,,,,,low,25,0,25,0,1,,,,,,,,,
296626,2022-11-28_14h41.22.064,vts_reward_expectancy_bt,2022.2.4,MacIntel,60.0024001,Chrome,1792,1120,,,,,0,1172,,,,,,,,,,,,,,,,,F,167,circle,1,0,,,,,,,,,,,,,,,,repeat,number,numRpt,k,0.8969,Hi,,,,,,4,,,,,,,,low,26,0,26,0,1,,,,,,,,,
296626,2022-11-28_14h41.22.064,vts_reward_expectancy_bt,2022.2.4,MacIntel,60.0024001,Chrome,1792,1120,,,,,1,1173,,,,,,,,,,,,,,,,,S,160,triangle,1,0,,,,,,,,,,,,,,,,repeat,number,numRpt,k,0.8839,Lo,,,,,,4,,,,,,,,low,27,0,27,0,1,,,,,,,,,
296626,2022-11-28_14h41.22.064,vts_reward_expectancy_bt,2022.2.4,MacIntel,60.0024001,Chrome,1792,1120,,,,,10,1183,,,,,,,,,,,,,,,,,U,181,star,1,0,,,,,,,,,,,,,,,,repeat,number,numRpt,k,0.7301,Lo,,,,,,4,,,,,,,,low,28,0,28,0,1,,,,,,,,,
296626,2022-11-28_14h41.22.064,vts_reward_expectancy_bt,2022.2.4,MacIntel,60.0024001,Chrome,1792,1120,,,,,10,1193,,,,,,,,,,,,,,,,,H,132,hexagon,1,0,,,,,,,,,,,,,,,,repeat,number,numRpt,j,0.6668,Hi,,,,,,4,,,,,,,,low,29,0,29,0,1,,,,,,,,,
296626,2022-11-28_14h41.22.064,vts_reward_expectancy_bt,2022.2.4,MacIntel,60.0024001,Chrome,1792,1120,,,,,1,1194,,,,,,,,,,,,,,,,,W,146,triangle,1,0,,,,,,,,,,,,,,,,repeat,number,numRpt,j,0.6304,Lo,,,,,,4,,,,,,,,low,30,0,30,0,1,,,,,,,,,
296626,2022-11-28_14h41.22.064,vts_reward_expectancy_bt,2022.2.4,MacIntel,60.0024001,Chrome,1792,1120,,,,,0,1194,,,,,,,,,,,,,,,,,B,174,circle,1,0,,,,,,,,,,,,,,,,repeat,number,numRpt,k,0.7181,Hi,,,,,,4,,,,,,,,low,31,0,31,0,1,,,,,,,,,
296626,2022-11-28_14h41.22.064,vts_reward_expectancy_bt,2022.2.4,MacIntel,60.0024001,Chrome,1792,1120,,,,,10,1204,,,,,,,,,,,,,,,,,F,167,star,1,0,,,,,,,,,,,,,,,,repeat,number,numRpt,k,0.8289,Lo,,,,,,5,,,,,,space,4.7264,low,0,0,0,0,1,,,,,,,,,
296626,2022-11-28_14h41.22.064,vts_reward_expectancy_bt,2022.2.4,MacIntel,60.0024001,Chrome,1792,1120,,,,,0,1204,,,,,,,,,,,,,,,,,S,160,circle,1,0,,,,,,,,,,,,,,,,repeat,number,numRpt,k,0.8336,Hi,,,,,,5,,,,,,,,low,1,0,1,0,1,,,,,,,,,
296626,2022-11-28_14h41.22.064,vts_reward_expectancy_bt,2022.2.4,MacIntel,60.0024001,Chrome,1792,1120,,,,,1,1205,,,,,,,,,,,,,,,,,H,146,triangle,1,0,,,,,,,,,,,,,,,,repeat,number,numRpt,j,0.534,Lo,,,,,,5,,,,,,,,low,2,0,2,0,1,,,,,,,,,
296626,2022-11-28_14h41.22.064,vts_reward_expectancy_bt,2022.2.4,MacIntel,60.0024001,Chrome,1792,1120,,,,,1,1206,,,,,,,,,,,,,,,,,U,132,hexagon,1,0,,,,,,,,,,,,,,,,repeat,number,numRpt,j,0.5473,Hi,,,,,,5,,,,,,,,low,3,0,3,0,1,,,,,,,,,
296626,2022-11-28_14h41.22.064,vts_reward_expectancy_bt,2022.2.4,MacIntel,60.0024001,Chrome,1792,1120,,,,,10,1216,,,,,,,,,,,,,,,,,W,139,star,1,0,,,,,,,,,,,,,,,,repeat,number,numRpt,j,1.0276,Lo,,,,,,5,,,,,,,,low,4,0,4,0,1,,,,,,,,,
296626,2022-11-28_14h41.22.064,vts_reward_expectancy_bt,2022.2.4,MacIntel,60.0024001,Chrome,1792,1120,,,,,0,1216,,,,,,,,,,,,,,,,,D,125,circle,1,0,,,,,,,,,,,,,,,,switch,letter,lettSwt,d,0.7141,Hi,,,,,,5,,,,,,,,low,5,0,5,0,1,,,,,,,,,
296626,2022-11-28_14h41.22.064,vts_reward_expectancy_bt,2022.2.4,MacIntel,60.0024001,Chrome,1792,1120,,,,,1,1217,,,,,,,,,,,,,,,,,Y,181,triangle,1,0,,,,,,,,,,,,,,,,switch,number,numSwt,k,0.68,Lo,,,,,,5,,,,,,,,low,6,0,6,0,1,,,,,,,,,
296626,2022-11-28_14h41.22.064,vts_reward_expectancy_bt,2022.2.4,MacIntel,60.0024001,Chrome,1792,1120,,,,,0,1217,,,,,,,,,,,,,,,,,B,174,hexagon,1,0,,,,,,,,,,,,,,,,switch,letter,lettSwt,d,0.7983,Hi,,,,,,5,,,,,,,,low,7,0,7,0,1,,,,,,,,,
296626,2022-11-28_14h41.22.064,vts_reward_expectancy_bt,2022.2.4,MacIntel,60.0024001,Chrome,1792,1120,,,,,1,1218,,,,,,,,,,,,,,,,,F,167,star,1,0,,,,,,,,,,,,,,,,repeat,letter,lettRpt,d,1.1958,Lo,,,,,,5,,,,,,,,low,8,0,8,0,1,,,,,,,,,
296626,2022-11-28_14h41.22.064,vts_reward_expectancy_bt,2022.2.4,MacIntel,60.0024001,Chrome,1792,1120,,,,,10,1228,,,,,,,,,,,,,,,,,S,160,hexagon,1,0,,,,,,,,,,,,,,,,switch,number,numSwt,k,0.7458,Hi,,,,,,5,,,,,,,,low,9,0,9,0,1,,,,,,,,,
296626,2022-11-28_14h41.22.064,vts_reward_expectancy_bt,2022.2.4,MacIntel,60.0024001,Chrome,1792,1120,,,,,0,1228,,,,,,,,,,,,,,,,,H,146,circle,1,0,,,,,,,,,,,,,,,,repeat,number,numRpt,j,0.7625,Hi,,,,,,5,,,,,,,,low,10,0,10,0,1,,,,,,,,,
296626,2022-11-28_14h41.22.064,vts_reward_expectancy_bt,2022.2.4,MacIntel,60.0024001,Chrome,1792,1120,,,,,10,1238,,,,,,,,,,,,,,,,,U,132,triangle,1,0,,,,,,,,,,,,,,,,repeat,number,numRpt,j,0.6119,Lo,,,,,,5,,,,,,,,low,11,0,11,0,1,,,,,,,,,
296626,2022-11-28_14h41.22.064,vts_reward_expectancy_bt,2022.2.4,MacIntel,60.0024001,Chrome,1792,1120,,,,,10,1248,,,,,,,,,,,,,,,,,W,139,circle,1,0,,,,,,,,,,,,,,,,repeat,number,numRpt,j,0.663,Hi,,,,,,5,,,,,,,,low,12,0,12,0,1,,,,,,,,,
296626,2022-11-28_14h41.22.064,vts_reward_expectancy_bt,2022.2.4,MacIntel,60.0024001,Chrome,1792,1120,,,,,10,1258,,,,,,,,,,,,,,,,,D,125,star,1,0,,,,,,,,,,,,,,,,repeat,number,numRpt,j,0.813,Lo,,,,,,5,,,,,,,,low,13,0,13,0,1,,,,,,,,,
296626,2022-11-28_14h41.22.064,vts_reward_expectancy_bt,2022.2.4,MacIntel,60.0024001,Chrome,1792,1120,,,,,0,1258,,,,,,,,,,,,,,,,,Y,181,hexagon,1,0,,,,,,,,,,,,,,,,switch,letter,lettSwt,f,1.7031,Hi,,,,,,5,,,,,,,,low,14,0,14,0,1,,,,,,,,,
296626,2022-11-28_14h41.22.064,vts_reward_expectancy_bt,2022.2.4,MacIntel,60.0024001,Chrome,1792,1120,,,,,10,1268,,,,,,,,,,,,,,,,,B,174,triangle,1,0,,,,,,,,,,,,,,,,switch,number,numSwt,k,0.6511,Lo,,,,,,5,,,,,,,,low,15,0,15,0,1,,,,,,,,,
296626,2022-11-28_14h41.22.064,vts_reward_expectancy_bt,2022.2.4,MacIntel,60.0024001,Chrome,1792,1120,,,,,10,1278,,,,,,,,,,,,,,,,,Y,139,star,1,0,,,,,,,,,,,,,,,,repeat,number,numRpt,j,0.8298,Lo,,,,,,5,,,,,,,,low,16,0,16,0,1,,,,,,,,,
296626,2022-11-28_14h41.22.064,vts_reward_expectancy_bt,2022.2.4,MacIntel,60.0024001,Chrome,1792,1120,,,,,0,1278,,,,,,,,,,,,,,,,,U,132,circle,1,0,,,,,,,,,,,,,,,,repeat,number,numRpt,j,0.917,Hi,,,,,,5,,,,,,,,low,17,0,17,0,1,,,,,,,,,
296626,2022-11-28_14h41.22.064,vts_reward_expectancy_bt,2022.2.4,MacIntel,60.0024001,Chrome,1792,1120,,,,,0,1278,,,,,,,,,,,,,,,,,H,174,hexagon,1,0,,,,,,,,,,,,,,,,repeat,number,numRpt,k,0.9473,Hi,,,,,,5,,,,,,,,low,18,0,18,0,1,,,,,,,,,
296626,2022-11-28_14h41.22.064,vts_reward_expectancy_bt,2022.2.4,MacIntel,60.0024001,Chrome,1792,1120,,,,,1,1279,,,,,,,,,,,,,,,,,W,160,triangle,1,0,,,,,,,,,,,,,,,,repeat,number,numRpt,k,0.8121,Lo,,,,,,5,,,,,,,,low,19,0,19,0,1,,,,,,,,,
296626,2022-11-28_14h41.22.064,vts_reward_expectancy_bt,2022.2.4,MacIntel,60.0024001,Chrome,1792,1120,,,,,1,1280,,,,,,,,,,,,,,,,,D,125,triangle,1,0,,,,,,,,,,,,,,,,switch,letter,lettSwt,d,0.7957,Lo,,,,,,5,,,,,,,,low,20,0,20,0,1,,,,,,,,,
296626,2022-11-28_14h41.22.064,vts_reward_expectancy_bt,2022.2.4,MacIntel,60.0024001,Chrome,1792,1120,,,,,1,1281,,,,,,,,,,,,,,,,,F,167,hexagon,1,0,,,,,,,,,,,,,,,,switch,number,numSwt,k,0.5803,Hi,,,,,,5,,,,,,,,low,21,0,21,0,1,,,,,,,,,
296626,2022-11-28_14h41.22.064,vts_reward_expectancy_bt,2022.2.4,MacIntel,60.0024001,Chrome,1792,1120,,,,,10,1291,,,,,,,,,,,,,,,,,B,181,circle,1,0,,,,,,,,,,,,,,,,switch,letter,lettSwt,d,0.4529,Hi,,,,,,5,,,,,,,,low,22,0,22,0,1,,,,,,,,,
296626,2022-11-28_14h41.22.064,vts_reward_expectancy_bt,2022.2.4,MacIntel,60.0024001,Chrome,1792,1120,,,,,1,1292,,,,,,,,,,,,,,,,,S,146,star,1,0,,,,,,,,,,,,,,,,repeat,letter,lettRpt,f,1.5791,Lo,,,,,,5,,,,,,,,low,23,0,23,0,1,,,,,,,,,
296626,2022-11-28_14h41.22.064,vts_reward_expectancy_bt,2022.2.4,MacIntel,60.0024001,Chrome,1792,1120,,,,,1,1293,,,,,,,,,,,,,,,,,D,160,triangle,1,0,,,,,,,,,,,,,,,,repeat,letter,lettRpt,d,0.868,Lo,,,,,,5,,,,,,,,low,24,0,24,0,1,,,,,,,,,
296626,2022-11-28_14h41.22.064,vts_reward_expectancy_bt,2022.2.4,MacIntel,60.0024001,Chrome,1792,1120,,,,,1,1294,,,,,,,,,,,,,,,,,H,174,star,1,0,,,,,,,,,,,,,,,,repeat,letter,lettRpt,d,2.3303,Lo,,,,,,5,,,,,,,,low,25,0,25,0,1,,,,,,,,,
