participant,date,expName,psychopyVersion,OS,frameRate,browser,xResolution,yResolution,key_resp.keys,key_resp.rt,training_resp.keys,training_resp.rt,points_trial,points_cumul,trainBlock,training.thisRepN,training.thisTrialN,training.thisN,training.thisIndex,training.ran,LTriangleOpac,LCircleOpac,LHexagonOpac,LStarOpac,RTriangleOpac,RCircleOpac,RHexagonOpac,RStarOpac,LShape_ID,RShape_ID,curr_topStim,curr_bottStim,curr_shape,acc,E1,target_resp_prac1.keys,target_resp_prac1.rt,pracBlock,task1_prac_trials.thisRepN,task1_prac_trials.thisTrialN,task1_prac_trials.thisN,task1_prac_trials.thisIndex,task1_prac_trials.ran,target_resp_prac2.keys,target_resp_prac2.rt,task2_praac_trials.thisRepN,task2_praac_trials.thisTrialN,task2_praac_trials.thisN,task2_praac_trials.thisIndex,task2_praac_trials.ran,alt,task,condition,target_resp.keys,target_resp.rt,rewCond,vts_practice_trials.thisRepN,vts_practice_trials.thisTrialN,vts_practice_trials.thisN,vts_practice_trials.thisIndex,vts_practice_trials.ran,blockNum,trials_norew.thisRepN,trials_norew.thisTrialN,trials_norew.thisN,trials_norew.thisIndex,trials_norew.ran,key_resp_2.keys,key_resp_2.rt,rewExpectancy,trials_rew.thisRepN,trials_rew.thisTrialN,trials_rew.thisN,trials_rew.thisIndex,trials_rew.ran,Q1,Q2,Q2_text,Q3,Q4,Q5,Q5_text,xRes,yRes
296746,2022-11-23_10h48.30.292,vts_reward_expectancy_bt,2022.2.4,Win32,60.10699044,Chrome,1920,1080,,,,,,,,,,,,,,,,,,,,,,,,,,,,,,,,,,,,,,,,,,,,,,,,,,,,,,,,,,,,,,,,,,,,,,,,,,,,
296746,2022-11-23_10h48.30.292,vts_reward_expectancy_bt,2022.2.4,Win32,60.10699044,Chrome,1920,1080,space,7.8246,,,,,,,,,,,,,,,,,,,,,,,,,,,,,,,,,,,,,,,,,,,,,,,,,,,,,,,,,,,,,,,,,,,,,,,,,,
296746,2022-11-23_10h48.30.292,vts_reward_expectancy_bt,2022.2.4,Win32,60.10699044,Chrome,1920,1080,,,,,,,,,,,,,,,,,,,,,,,,,,,,,,,,,,,,,,,,,,,,,,,,,,,,,,,,,,,,,,,,,,,,,,,,,,,,
296746,2022-11-23_10h48.30.292,vts_reward_expectancy_bt,2022.2.4,Win32,60.10699044,Chrome,1920,1080,,,l,1.2666,10,10,0,0,0,0,8,1,0,0,1,0,0,0,0,1,hexagon,star,,,,,,,,,,,,,,,,,,,,,,,,,,,,,,,,,,,,,,,,,,,,,,,,,,,,,,
296746,2022-11-23_10h48.30.292,vts_reward_expectancy_bt,2022.2.4,Win32,60.10699044,Chrome,1920,1080,,,a,1.7601,1,11,0,0,1,1,0,1,1,0,0,0,0,1,0,0,triangle,circle,,,,,,,,,,,,,,,,,,,,,,,,,,,,,,,,,,,,,,,,,,,,,,,,,,,,,,
296746,2022-11-23_10h48.30.292,vts_reward_expectancy_bt,2022.2.4,Win32,60.10699044,Chrome,1920,1080,,,a,1.1932,1,12,0,0,2,2,6,1,0,0,1,0,1,0,0,0,hexagon,triangle,,,,,,,,,,,,,,,,,,,,,,,,,,,,,,,,,,,,,,,,,,,,,,,,,,,,,,
296746,2022-11-23_10h48.30.292,vts_reward_expectancy_bt,2022.2.4,Win32,60.10699044,Chrome,1920,1080,,,a,1.0956,10,22,0,0,3,3,4,1,0,1,0,0,0,0,1,0,circle,hexagon,,,,,,,,,,,,,,,,,,,,,,,,,,,,,,,,,,,,,,,,,,,,,,,,,,,,,,
296746,2022-11-23_10h48.30.292,vts_reward_expectancy_bt,2022.2.4,Win32,60.10699044,Chrome,1920,1080,,,l,0.6011,10,32,0,0,4,4,10,1,0,0,0,1,0,1,0,0,star ,circle,,,,,,,,,,,,,,,,,,,,,,,,,,,,,,,,,,,,,,,,,,,,,,,,,,,,,,
296746,2022-11-23_10h48.30.292,vts_reward_expectancy_bt,2022.2.4,Win32,60.10699044,Chrome,1920,1080,,,l,0.8748,10,42,0,0,5,5,2,1,1,0,0,0,0,0,0,1,triangle,star,,,,,,,,,,,,,,,,,,,,,,,,,,,,,,,,,,,,,,,,,,,,,,,,,,,,,,
296746,2022-11-23_10h48.30.292,vts_reward_expectancy_bt,2022.2.4,Win32,60.10699044,Chrome,1920,1080,,,a,1.0832,1,43,0,0,6,6,11,1,0,0,0,1,0,0,1,0,star,hexagon,,,,,,,,,,,,,,,,,,,,,,,,,,,,,,,,,,,,,,,,,,,,,,,,,,,,,,
296746,2022-11-23_10h48.30.292,vts_reward_expectancy_bt,2022.2.4,Win32,60.10699044,Chrome,1920,1080,,,l,1.0886,1,44,0,0,7,7,1,1,1,0,0,0,0,0,1,0,triangle,hexagon,,,,,,,,,,,,,,,,,,,,,,,,,,,,,,,,,,,,,,,,,,,,,,,,,,,,,,
296746,2022-11-23_10h48.30.292,vts_reward_expectancy_bt,2022.2.4,Win32,60.10699044,Chrome,1920,1080,,,l,0.4848,1,45,0,0,8,8,5,1,0,1,0,0,0,0,0,1,circle,star,,,,,,,,,,,,,,,,,,,,,,,,,,,,,,,,,,,,,,,,,,,,,,,,,,,,,,
296746,2022-11-23_10h48.30.292,vts_reward_expectancy_bt,2022.2.4,Win32,60.10699044,Chrome,1920,1080,,,l,0.5316,10,55,0,0,9,9,9,1,0,0,0,1,1,0,0,0,star,triangle,,,,,,,,,,,,,,,,,,,,,,,,,,,,,,,,,,,,,,,,,,,,,,,,,,,,,,
296746,2022-11-23_10h48.30.292,vts_reward_expectancy_bt,2022.2.4,Win32,60.10699044,Chrome,1920,1080,,,l,0.5396,10,65,0,0,10,10,7,1,0,0,1,0,0,1,0,0,hexagon,circle,,,,,,,,,,,,,,,,,,,,,,,,,,,,,,,,,,,,,,,,,,,,,,,,,,,,,,
296746,2022-11-23_10h48.30.292,vts_reward_expectancy_bt,2022.2.4,Win32,60.10699044,Chrome,1920,1080,,,a,0.6898,10,75,0,0,11,11,3,1,0,1,0,0,1,0,0,0,circle,triangle,,,,,,,,,,,,,,,,,,,,,,,,,,,,,,,,,,,,,,,,,,,,,,,,,,,,,,
296746,2022-11-23_10h48.30.292,vts_reward_expectancy_bt,2022.2.4,Win32,60.10699044,Chrome,1920,1080,,,l,0.373,1,76,0,1,0,12,11,1,0,0,0,1,0,0,1,0,star,hexagon,,,,,,,,,,,,,,,,,,,,,,,,,,,,,,,,,,,,,,,,,,,,,,,,,,,,,,
296746,2022-11-23_10h48.30.292,vts_reward_expectancy_bt,2022.2.4,Win32,60.10699044,Chrome,1920,1080,,,a,0.246,10,86,0,1,1,13,0,1,1,0,0,0,0,1,0,0,triangle,circle,,,,,,,,,,,,,,,,,,,,,,,,,,,,,,,,,,,,,,,,,,,,,,,,,,,,,,
296746,2022-11-23_10h48.30.292,vts_reward_expectancy_bt,2022.2.4,Win32,60.10699044,Chrome,1920,1080,,,a,0.1528,1,87,0,1,2,14,6,1,0,0,1,0,1,0,0,0,hexagon,triangle,,,,,,,,,,,,,,,,,,,,,,,,,,,,,,,,,,,,,,,,,,,,,,,,,,,,,,
296746,2022-11-23_10h48.30.292,vts_reward_expectancy_bt,2022.2.4,Win32,60.10699044,Chrome,1920,1080,,,l,0.2609,10,97,0,1,3,15,7,1,0,0,1,0,0,1,0,0,hexagon,circle,,,,,,,,,,,,,,,,,,,,,,,,,,,,,,,,,,,,,,,,,,,,,,,,,,,,,,
296746,2022-11-23_10h48.30.292,vts_reward_expectancy_bt,2022.2.4,Win32,60.10699044,Chrome,1920,1080,,,a,0.9477,10,107,0,1,4,16,1,1,1,0,0,0,0,0,1,0,triangle,hexagon,,,,,,,,,,,,,,,,,,,,,,,,,,,,,,,,,,,,,,,,,,,,,,,,,,,,,,
296746,2022-11-23_10h48.30.292,vts_reward_expectancy_bt,2022.2.4,Win32,60.10699044,Chrome,1920,1080,,,a,0.7308,1,108,0,1,5,17,2,1,1,0,0,0,0,0,0,1,triangle,star,,,,,,,,,,,,,,,,,,,,,,,,,,,,,,,,,,,,,,,,,,,,,,,,,,,,,,
296746,2022-11-23_10h48.30.292,vts_reward_expectancy_bt,2022.2.4,Win32,60.10699044,Chrome,1920,1080,,,a,0.6108,1,109,0,1,6,18,4,1,0,1,0,0,0,0,1,0,circle,hexagon,,,,,,,,,,,,,,,,,,,,,,,,,,,,,,,,,,,,,,,,,,,,,,,,,,,,,,
296746,2022-11-23_10h48.30.292,vts_reward_expectancy_bt,2022.2.4,Win32,60.10699044,Chrome,1920,1080,,,a,0.3699,10,119,0,1,7,19,5,1,0,1,0,0,0,0,0,1,circle,star,,,,,,,,,,,,,,,,,,,,,,,,,,,,,,,,,,,,,,,,,,,,,,,,,,,,,,
296746,2022-11-23_10h48.30.292,vts_reward_expectancy_bt,2022.2.4,Win32,60.10699044,Chrome,1920,1080,,,a,0.4824,1,120,0,1,8,20,3,1,0,1,0,0,1,0,0,0,circle,triangle,,,,,,,,,,,,,,,,,,,,,,,,,,,,,,,,,,,,,,,,,,,,,,,,,,,,,,
296746,2022-11-23_10h48.30.292,vts_reward_expectancy_bt,2022.2.4,Win32,60.10699044,Chrome,1920,1080,,,l,0.3245,1,121,0,1,9,21,10,1,0,0,0,1,0,1,0,0,star ,circle,,,,,,,,,,,,,,,,,,,,,,,,,,,,,,,,,,,,,,,,,,,,,,,,,,,,,,
296746,2022-11-23_10h48.30.292,vts_reward_expectancy_bt,2022.2.4,Win32,60.10699044,Chrome,1920,1080,,,a,0.3044,1,122,0,1,10,22,8,1,0,0,1,0,0,0,0,1,hexagon,star,,,,,,,,,,,,,,,,,,,,,,,,,,,,,,,,,,,,,,,,,,,,,,,,,,,,,,
296746,2022-11-23_10h48.30.292,vts_reward_expectancy_bt,2022.2.4,Win32,60.10699044,Chrome,1920,1080,,,l,0.216,10,132,0,1,11,23,9,1,0,0,0,1,1,0,0,0,star,triangle,,,,,,,,,,,,,,,,,,,,,,,,,,,,,,,,,,,,,,,,,,,,,,,,,,,,,,
296746,2022-11-23_10h48.30.292,vts_reward_expectancy_bt,2022.2.4,Win32,60.10699044,Chrome,1920,1080,,,a,0.403,10,142,0,2,0,24,2,1,1,0,0,0,0,0,0,1,triangle,star,,,,,,,,,,,,,,,,,,,,,,,,,,,,,,,,,,,,,,,,,,,,,,,,,,,,,,
296746,2022-11-23_10h48.30.292,vts_reward_expectancy_bt,2022.2.4,Win32,60.10699044,Chrome,1920,1080,,,l,0.0368,10,152,0,2,1,25,9,1,0,0,0,1,1,0,0,0,star,triangle,,,,,,,,,,,,,,,,,,,,,,,,,,,,,,,,,,,,,,,,,,,,,,,,,,,,,,
296746,2022-11-23_10h48.30.292,vts_reward_expectancy_bt,2022.2.4,Win32,60.10699044,Chrome,1920,1080,,,a,0.298,10,162,0,2,2,26,1,1,1,0,0,0,0,0,1,0,triangle,hexagon,,,,,,,,,,,,,,,,,,,,,,,,,,,,,,,,,,,,,,,,,,,,,,,,,,,,,,
296746,2022-11-23_10h48.30.292,vts_reward_expectancy_bt,2022.2.4,Win32,60.10699044,Chrome,1920,1080,,,l,0.2019,1,163,0,2,3,27,11,1,0,0,0,1,0,0,1,0,star,hexagon,,,,,,,,,,,,,,,,,,,,,,,,,,,,,,,,,,,,,,,,,,,,,,,,,,,,,,
296746,2022-11-23_10h48.30.292,vts_reward_expectancy_bt,2022.2.4,Win32,60.10699044,Chrome,1920,1080,,,a,0.251,1,164,0,2,4,28,5,1,0,1,0,0,0,0,0,1,circle,star,,,,,,,,,,,,,,,,,,,,,,,,,,,,,,,,,,,,,,,,,,,,,,,,,,,,,,
296746,2022-11-23_10h48.30.292,vts_reward_expectancy_bt,2022.2.4,Win32,60.10699044,Chrome,1920,1080,,,l,0.1276,10,174,0,2,5,29,7,1,0,0,1,0,0,1,0,0,hexagon,circle,,,,,,,,,,,,,,,,,,,,,,,,,,,,,,,,,,,,,,,,,,,,,,,,,,,,,,
296746,2022-11-23_10h48.30.292,vts_reward_expectancy_bt,2022.2.4,Win32,60.10699044,Chrome,1920,1080,,,a,0.2991,10,184,0,2,6,30,3,1,0,1,0,0,1,0,0,0,circle,triangle,,,,,,,,,,,,,,,,,,,,,,,,,,,,,,,,,,,,,,,,,,,,,,,,,,,,,,
296746,2022-11-23_10h48.30.292,vts_reward_expectancy_bt,2022.2.4,Win32,60.10699044,Chrome,1920,1080,,,l,0.1629,10,194,0,2,7,31,10,1,0,0,0,1,0,1,0,0,star ,circle,,,,,,,,,,,,,,,,,,,,,,,,,,,,,,,,,,,,,,,,,,,,,,,,,,,,,,
296746,2022-11-23_10h48.30.292,vts_reward_expectancy_bt,2022.2.4,Win32,60.10699044,Chrome,1920,1080,,,a,0.2342,1,195,0,2,8,32,6,1,0,0,1,0,1,0,0,0,hexagon,triangle,,,,,,,,,,,,,,,,,,,,,,,,,,,,,,,,,,,,,,,,,,,,,,,,,,,,,,
296746,2022-11-23_10h48.30.292,vts_reward_expectancy_bt,2022.2.4,Win32,60.10699044,Chrome,1920,1080,,,l,0.2043,10,205,0,2,9,33,8,1,0,0,1,0,0,0,0,1,hexagon,star,,,,,,,,,,,,,,,,,,,,,,,,,,,,,,,,,,,,,,,,,,,,,,,,,,,,,,
296746,2022-11-23_10h48.30.292,vts_reward_expectancy_bt,2022.2.4,Win32,60.10699044,Chrome,1920,1080,,,a,0.2321,10,215,0,2,10,34,0,1,1,0,0,0,0,1,0,0,triangle,circle,,,,,,,,,,,,,,,,,,,,,,,,,,,,,,,,,,,,,,,,,,,,,,,,,,,,,,
296746,2022-11-23_10h48.30.292,vts_reward_expectancy_bt,2022.2.4,Win32,60.10699044,Chrome,1920,1080,,,l,0.2337,10,225,0,2,11,35,4,1,0,1,0,0,0,0,1,0,circle,hexagon,,,,,,,,,,,,,,,,,,,,,,,,,,,,,,,,,,,,,,,,,,,,,,,,,,,,,,
296746,2022-11-23_10h48.30.292,vts_reward_expectancy_bt,2022.2.4,Win32,60.10699044,Chrome,1920,1080,,,a,0.5057,10,235,1,0,0,0,6,1,0,0,1,0,1,0,0,0,hexagon,triangle,,,,,,,,,,,,,,,,,,,,,,,,,,,,,,,,,,,,,,,,,,,,,,,,,,,,,,
296746,2022-11-23_10h48.30.292,vts_reward_expectancy_bt,2022.2.4,Win32,60.10699044,Chrome,1920,1080,,,l,0.2905,10,245,1,0,1,1,3,1,0,1,0,0,1,0,0,0,circle,triangle,,,,,,,,,,,,,,,,,,,,,,,,,,,,,,,,,,,,,,,,,,,,,,,,,,,,,,
296746,2022-11-23_10h48.30.292,vts_reward_expectancy_bt,2022.2.4,Win32,60.10699044,Chrome,1920,1080,,,a,0.2672,10,255,1,0,2,2,5,1,0,1,0,0,0,0,0,1,circle,star,,,,,,,,,,,,,,,,,,,,,,,,,,,,,,,,,,,,,,,,,,,,,,,,,,,,,,
296746,2022-11-23_10h48.30.292,vts_reward_expectancy_bt,2022.2.4,Win32,60.10699044,Chrome,1920,1080,,,l,0.2965,1,256,1,0,3,3,4,1,0,1,0,0,0,0,1,0,circle,hexagon,,,,,,,,,,,,,,,,,,,,,,,,,,,,,,,,,,,,,,,,,,,,,,,,,,,,,,
296746,2022-11-23_10h48.30.292,vts_reward_expectancy_bt,2022.2.4,Win32,60.10699044,Chrome,1920,1080,,,a,1.049,10,266,1,0,4,4,2,1,1,0,0,0,0,0,0,1,triangle,star,,,,,,,,,,,,,,,,,,,,,,,,,,,,,,,,,,,,,,,,,,,,,,,,,,,,,,
296746,2022-11-23_10h48.30.292,vts_reward_expectancy_bt,2022.2.4,Win32,60.10699044,Chrome,1920,1080,,,l,0.8137,10,276,1,0,5,5,7,1,0,0,1,0,0,1,0,0,hexagon,circle,,,,,,,,,,,,,,,,,,,,,,,,,,,,,,,,,,,,,,,,,,,,,,,,,,,,,,
296746,2022-11-23_10h48.30.292,vts_reward_expectancy_bt,2022.2.4,Win32,60.10699044,Chrome,1920,1080,,,l,1.7866,10,286,1,0,6,6,9,1,0,0,0,1,1,0,0,0,star,triangle,,,,,,,,,,,,,,,,,,,,,,,,,,,,,,,,,,,,,,,,,,,,,,,,,,,,,,
296746,2022-11-23_10h48.30.292,vts_reward_expectancy_bt,2022.2.4,Win32,60.10699044,Chrome,1920,1080,,,l,0.7213,10,296,1,0,7,7,0,1,1,0,0,0,0,1,0,0,triangle,circle,,,,,,,,,,,,,,,,,,,,,,,,,,,,,,,,,,,,,,,,,,,,,,,,,,,,,,
296746,2022-11-23_10h48.30.292,vts_reward_expectancy_bt,2022.2.4,Win32,60.10699044,Chrome,1920,1080,,,a,0.8145,10,306,1,0,8,8,8,1,0,0,1,0,0,0,0,1,hexagon,star,,,,,,,,,,,,,,,,,,,,,,,,,,,,,,,,,,,,,,,,,,,,,,,,,,,,,,
296746,2022-11-23_10h48.30.292,vts_reward_expectancy_bt,2022.2.4,Win32,60.10699044,Chrome,1920,1080,,,a,0.987,10,316,1,0,9,9,1,1,1,0,0,0,0,0,1,0,triangle,hexagon,,,,,,,,,,,,,,,,,,,,,,,,,,,,,,,,,,,,,,,,,,,,,,,,,,,,,,
296746,2022-11-23_10h48.30.292,vts_reward_expectancy_bt,2022.2.4,Win32,60.10699044,Chrome,1920,1080,,,l,1.0794,10,326,1,0,10,10,10,1,0,0,0,1,0,1,0,0,star ,circle,,,,,,,,,,,,,,,,,,,,,,,,,,,,,,,,,,,,,,,,,,,,,,,,,,,,,,
296746,2022-11-23_10h48.30.292,vts_reward_expectancy_bt,2022.2.4,Win32,60.10699044,Chrome,1920,1080,,,a,1.1161,1,327,1,0,11,11,11,1,0,0,0,1,0,0,1,0,star,hexagon,,,,,,,,,,,,,,,,,,,,,,,,,,,,,,,,,,,,,,,,,,,,,,,,,,,,,,
296746,2022-11-23_10h48.30.292,vts_reward_expectancy_bt,2022.2.4,Win32,60.10699044,Chrome,1920,1080,,,a,0.5088,10,337,1,1,0,12,5,1,0,1,0,0,0,0,0,1,circle,star,,,,,,,,,,,,,,,,,,,,,,,,,,,,,,,,,,,,,,,,,,,,,,,,,,,,,,
296746,2022-11-23_10h48.30.292,vts_reward_expectancy_bt,2022.2.4,Win32,60.10699044,Chrome,1920,1080,,,l,0.717,10,347,1,1,1,13,9,1,0,0,0,1,1,0,0,0,star,triangle,,,,,,,,,,,,,,,,,,,,,,,,,,,,,,,,,,,,,,,,,,,,,,,,,,,,,,
296746,2022-11-23_10h48.30.292,vts_reward_expectancy_bt,2022.2.4,Win32,60.10699044,Chrome,1920,1080,,,a,0.4202,1,348,1,1,2,14,6,1,0,0,1,0,1,0,0,0,hexagon,triangle,,,,,,,,,,,,,,,,,,,,,,,,,,,,,,,,,,,,,,,,,,,,,,,,,,,,,,
296746,2022-11-23_10h48.30.292,vts_reward_expectancy_bt,2022.2.4,Win32,60.10699044,Chrome,1920,1080,,,l,0.4972,1,349,1,1,3,15,0,1,1,0,0,0,0,1,0,0,triangle,circle,,,,,,,,,,,,,,,,,,,,,,,,,,,,,,,,,,,,,,,,,,,,,,,,,,,,,,
296746,2022-11-23_10h48.30.292,vts_reward_expectancy_bt,2022.2.4,Win32,60.10699044,Chrome,1920,1080,,,a,0.3534,1,350,1,1,4,16,1,1,1,0,0,0,0,0,1,0,triangle,hexagon,,,,,,,,,,,,,,,,,,,,,,,,,,,,,,,,,,,,,,,,,,,,,,,,,,,,,,
296746,2022-11-23_10h48.30.292,vts_reward_expectancy_bt,2022.2.4,Win32,60.10699044,Chrome,1920,1080,,,a,0.7649,1,351,1,1,5,17,8,1,0,0,1,0,0,0,0,1,hexagon,star,,,,,,,,,,,,,,,,,,,,,,,,,,,,,,,,,,,,,,,,,,,,,,,,,,,,,,
296746,2022-11-23_10h48.30.292,vts_reward_expectancy_bt,2022.2.4,Win32,60.10699044,Chrome,1920,1080,,,a,0.6033,1,352,1,1,6,18,4,1,0,1,0,0,0,0,1,0,circle,hexagon,,,,,,,,,,,,,,,,,,,,,,,,,,,,,,,,,,,,,,,,,,,,,,,,,,,,,,
296746,2022-11-23_10h48.30.292,vts_reward_expectancy_bt,2022.2.4,Win32,60.10699044,Chrome,1920,1080,,,a,1.4686,10,362,1,1,7,19,11,1,0,0,0,1,0,0,1,0,star,hexagon,,,,,,,,,,,,,,,,,,,,,,,,,,,,,,,,,,,,,,,,,,,,,,,,,,,,,,
296746,2022-11-23_10h48.30.292,vts_reward_expectancy_bt,2022.2.4,Win32,60.10699044,Chrome,1920,1080,,,l,0.6899,1,363,1,1,8,20,7,1,0,0,1,0,0,1,0,0,hexagon,circle,,,,,,,,,,,,,,,,,,,,,,,,,,,,,,,,,,,,,,,,,,,,,,,,,,,,,,
296746,2022-11-23_10h48.30.292,vts_reward_expectancy_bt,2022.2.4,Win32,60.10699044,Chrome,1920,1080,,,a,0.3649,10,373,1,1,9,21,2,1,1,0,0,0,0,0,0,1,triangle,star,,,,,,,,,,,,,,,,,,,,,,,,,,,,,,,,,,,,,,,,,,,,,,,,,,,,,,
296746,2022-11-23_10h48.30.292,vts_reward_expectancy_bt,2022.2.4,Win32,60.10699044,Chrome,1920,1080,,,l,0.5545,10,383,1,1,10,22,3,1,0,1,0,0,1,0,0,0,circle,triangle,,,,,,,,,,,,,,,,,,,,,,,,,,,,,,,,,,,,,,,,,,,,,,,,,,,,,,
296746,2022-11-23_10h48.30.292,vts_reward_expectancy_bt,2022.2.4,Win32,60.10699044,Chrome,1920,1080,,,l,0.7846,10,393,1,1,11,23,10,1,0,0,0,1,0,1,0,0,star ,circle,,,,,,,,,,,,,,,,,,,,,,,,,,,,,,,,,,,,,,,,,,,,,,,,,,,,,,
296746,2022-11-23_10h48.30.292,vts_reward_expectancy_bt,2022.2.4,Win32,60.10699044,Chrome,1920,1080,,,a,0.5839,1,394,1,2,0,24,3,1,0,1,0,0,1,0,0,0,circle,triangle,,,,,,,,,,,,,,,,,,,,,,,,,,,,,,,,,,,,,,,,,,,,,,,,,,,,,,
296746,2022-11-23_10h48.30.292,vts_reward_expectancy_bt,2022.2.4,Win32,60.10699044,Chrome,1920,1080,,,l,0.5648,1,395,1,2,1,25,6,1,0,0,1,0,1,0,0,0,hexagon,triangle,,,,,,,,,,,,,,,,,,,,,,,,,,,,,,,,,,,,,,,,,,,,,,,,,,,,,,
296746,2022-11-23_10h48.30.292,vts_reward_expectancy_bt,2022.2.4,Win32,60.10699044,Chrome,1920,1080,,,a,0.6937,10,405,1,2,2,26,5,1,0,1,0,0,0,0,0,1,circle,star,,,,,,,,,,,,,,,,,,,,,,,,,,,,,,,,,,,,,,,,,,,,,,,,,,,,,,
296746,2022-11-23_10h48.30.292,vts_reward_expectancy_bt,2022.2.4,Win32,60.10699044,Chrome,1920,1080,,,a,1.0643,1,406,1,2,3,27,9,1,0,0,0,1,1,0,0,0,star,triangle,,,,,,,,,,,,,,,,,,,,,,,,,,,,,,,,,,,,,,,,,,,,,,,,,,,,,,
296746,2022-11-23_10h48.30.292,vts_reward_expectancy_bt,2022.2.4,Win32,60.10699044,Chrome,1920,1080,,,a,0.6651,10,416,1,2,4,28,1,1,1,0,0,0,0,0,1,0,triangle,hexagon,,,,,,,,,,,,,,,,,,,,,,,,,,,,,,,,,,,,,,,,,,,,,,,,,,,,,,
296746,2022-11-23_10h48.30.292,vts_reward_expectancy_bt,2022.2.4,Win32,60.10699044,Chrome,1920,1080,,,l,0.5325,10,426,1,2,5,29,11,1,0,0,0,1,0,0,1,0,star,hexagon,,,,,,,,,,,,,,,,,,,,,,,,,,,,,,,,,,,,,,,,,,,,,,,,,,,,,,
296746,2022-11-23_10h48.30.292,vts_reward_expectancy_bt,2022.2.4,Win32,60.10699044,Chrome,1920,1080,,,a,0.5004,10,436,1,2,6,30,4,1,0,1,0,0,0,0,1,0,circle,hexagon,,,,,,,,,,,,,,,,,,,,,,,,,,,,,,,,,,,,,,,,,,,,,,,,,,,,,,
296746,2022-11-23_10h48.30.292,vts_reward_expectancy_bt,2022.2.4,Win32,60.10699044,Chrome,1920,1080,,,l,0.4164,10,446,1,2,7,31,7,1,0,0,1,0,0,1,0,0,hexagon,circle,,,,,,,,,,,,,,,,,,,,,,,,,,,,,,,,,,,,,,,,,,,,,,,,,,,,,,
296746,2022-11-23_10h48.30.292,vts_reward_expectancy_bt,2022.2.4,Win32,60.10699044,Chrome,1920,1080,,,a,0.3426,1,447,1,2,8,32,8,1,0,0,1,0,0,0,0,1,hexagon,star,,,,,,,,,,,,,,,,,,,,,,,,,,,,,,,,,,,,,,,,,,,,,,,,,,,,,,
296746,2022-11-23_10h48.30.292,vts_reward_expectancy_bt,2022.2.4,Win32,60.10699044,Chrome,1920,1080,,,l,0.2468,10,457,1,2,9,33,10,1,0,0,0,1,0,1,0,0,star ,circle,,,,,,,,,,,,,,,,,,,,,,,,,,,,,,,,,,,,,,,,,,,,,,,,,,,,,,
296746,2022-11-23_10h48.30.292,vts_reward_expectancy_bt,2022.2.4,Win32,60.10699044,Chrome,1920,1080,,,a,0.5543,10,467,1,2,10,34,2,1,1,0,0,0,0,0,0,1,triangle,star,,,,,,,,,,,,,,,,,,,,,,,,,,,,,,,,,,,,,,,,,,,,,,,,,,,,,,
296746,2022-11-23_10h48.30.292,vts_reward_expectancy_bt,2022.2.4,Win32,60.10699044,Chrome,1920,1080,,,l,0.4984,10,477,1,2,11,35,0,1,1,0,0,0,0,1,0,0,triangle,circle,,,,,,,,,,,,,,,,,,,,,,,,,,,,,,,,,,,,,,,,,,,,,,,,,,,,,,
296746,2022-11-23_10h48.30.292,vts_reward_expectancy_bt,2022.2.4,Win32,60.10699044,Chrome,1920,1080,,,a,1.0841,10,487,2,0,0,0,5,1,0,1,0,0,0,0,0,1,circle,star,,,,,,,,,,,,,,,,,,,,,,,,,,,,,,,,,,,,,,,,,,,,,,,,,,,,,,
296746,2022-11-23_10h48.30.292,vts_reward_expectancy_bt,2022.2.4,Win32,60.10699044,Chrome,1920,1080,,,a,0.5698,10,497,2,0,1,1,4,1,0,1,0,0,0,0,1,0,circle,hexagon,,,,,,,,,,,,,,,,,,,,,,,,,,,,,,,,,,,,,,,,,,,,,,,,,,,,,,
296746,2022-11-23_10h48.30.292,vts_reward_expectancy_bt,2022.2.4,Win32,60.10699044,Chrome,1920,1080,,,l,0.9916,1,498,2,0,2,2,6,1,0,0,1,0,1,0,0,0,hexagon,triangle,,,,,,,,,,,,,,,,,,,,,,,,,,,,,,,,,,,,,,,,,,,,,,,,,,,,,,
296746,2022-11-23_10h48.30.292,vts_reward_expectancy_bt,2022.2.4,Win32,60.10699044,Chrome,1920,1080,,,a,0.737,10,508,2,0,3,3,9,1,0,0,0,1,1,0,0,0,star,triangle,,,,,,,,,,,,,,,,,,,,,,,,,,,,,,,,,,,,,,,,,,,,,,,,,,,,,,
296746,2022-11-23_10h48.30.292,vts_reward_expectancy_bt,2022.2.4,Win32,60.10699044,Chrome,1920,1080,,,a,0.406,10,518,2,0,4,4,7,1,0,0,1,0,0,1,0,0,hexagon,circle,,,,,,,,,,,,,,,,,,,,,,,,,,,,,,,,,,,,,,,,,,,,,,,,,,,,,,
296746,2022-11-23_10h48.30.292,vts_reward_expectancy_bt,2022.2.4,Win32,60.10699044,Chrome,1920,1080,,,a,0.2397,10,528,2,0,5,5,2,1,1,0,0,0,0,0,0,1,triangle,star,,,,,,,,,,,,,,,,,,,,,,,,,,,,,,,,,,,,,,,,,,,,,,,,,,,,,,
296746,2022-11-23_10h48.30.292,vts_reward_expectancy_bt,2022.2.4,Win32,60.10699044,Chrome,1920,1080,,,a,0.4629,1,529,2,0,6,6,0,1,1,0,0,0,0,1,0,0,triangle,circle,,,,,,,,,,,,,,,,,,,,,,,,,,,,,,,,,,,,,,,,,,,,,,,,,,,,,,
296746,2022-11-23_10h48.30.292,vts_reward_expectancy_bt,2022.2.4,Win32,60.10699044,Chrome,1920,1080,,,a,0.3134,10,539,2,0,7,7,3,1,0,1,0,0,1,0,0,0,circle,triangle,,,,,,,,,,,,,,,,,,,,,,,,,,,,,,,,,,,,,,,,,,,,,,,,,,,,,,
296746,2022-11-23_10h48.30.292,vts_reward_expectancy_bt,2022.2.4,Win32,60.10699044,Chrome,1920,1080,,,a,1.2652,10,549,2,0,8,8,1,1,1,0,0,0,0,0,1,0,triangle,hexagon,,,,,,,,,,,,,,,,,,,,,,,,,,,,,,,,,,,,,,,,,,,,,,,,,,,,,,
296746,2022-11-23_10h48.30.292,vts_reward_expectancy_bt,2022.2.4,Win32,60.10699044,Chrome,1920,1080,,,l,1.3535,1,550,2,0,9,9,11,1,0,0,0,1,0,0,1,0,star,hexagon,,,,,,,,,,,,,,,,,,,,,,,,,,,,,,,,,,,,,,,,,,,,,,,,,,,,,,
296746,2022-11-23_10h48.30.292,vts_reward_expectancy_bt,2022.2.4,Win32,60.10699044,Chrome,1920,1080,,,a,0.3231,1,551,2,0,10,10,8,1,0,0,1,0,0,0,0,1,hexagon,star,,,,,,,,,,,,,,,,,,,,,,,,,,,,,,,,,,,,,,,,,,,,,,,,,,,,,,
296746,2022-11-23_10h48.30.292,vts_reward_expectancy_bt,2022.2.4,Win32,60.10699044,Chrome,1920,1080,,,a,0.266,1,552,2,0,11,11,10,1,0,0,0,1,0,1,0,0,star ,circle,,,,,,,,,,,,,,,,,,,,,,,,,,,,,,,,,,,,,,,,,,,,,,,,,,,,,,
296746,2022-11-23_10h48.30.292,vts_reward_expectancy_bt,2022.2.4,Win32,60.10699044,Chrome,1920,1080,,,a,0.6427,10,562,2,1,0,12,8,1,0,0,1,0,0,0,0,1,hexagon,star,,,,,,,,,,,,,,,,,,,,,,,,,,,,,,,,,,,,,,,,,,,,,,,,,,,,,,
296746,2022-11-23_10h48.30.292,vts_reward_expectancy_bt,2022.2.4,Win32,60.10699044,Chrome,1920,1080,,,a,4.2901,1,563,2,1,1,13,7,1,0,0,1,0,0,1,0,0,hexagon,circle,,,,,,,,,,,,,,,,,,,,,,,,,,,,,,,,,,,,,,,,,,,,,,,,,,,,,,
296746,2022-11-23_10h48.30.292,vts_reward_expectancy_bt,2022.2.4,Win32,60.10699044,Chrome,1920,1080,,,l,0.0379,1,564,2,1,2,14,2,1,1,0,0,0,0,0,0,1,triangle,star,,,,,,,,,,,,,,,,,,,,,,,,,,,,,,,,,,,,,,,,,,,,,,,,,,,,,,
296746,2022-11-23_10h48.30.292,vts_reward_expectancy_bt,2022.2.4,Win32,60.10699044,Chrome,1920,1080,,,a,0.6816,1,565,2,1,3,15,1,1,1,0,0,0,0,0,1,0,triangle,hexagon,,,,,,,,,,,,,,,,,,,,,,,,,,,,,,,,,,,,,,,,,,,,,,,,,,,,,,
296746,2022-11-23_10h48.30.292,vts_reward_expectancy_bt,2022.2.4,Win32,60.10699044,Chrome,1920,1080,,,l,0.4816,10,575,2,1,4,16,6,1,0,0,1,0,1,0,0,0,hexagon,triangle,,,,,,,,,,,,,,,,,,,,,,,,,,,,,,,,,,,,,,,,,,,,,,,,,,,,,,
296746,2022-11-23_10h48.30.292,vts_reward_expectancy_bt,2022.2.4,Win32,60.10699044,Chrome,1920,1080,,,l,0.8893,10,585,2,1,5,17,11,1,0,0,0,1,0,0,1,0,star,hexagon,,,,,,,,,,,,,,,,,,,,,,,,,,,,,,,,,,,,,,,,,,,,,,,,,,,,,,
296746,2022-11-23_10h48.30.292,vts_reward_expectancy_bt,2022.2.4,Win32,60.10699044,Chrome,1920,1080,,,a,0.9046,10,595,2,1,6,18,9,1,0,0,0,1,1,0,0,0,star,triangle,,,,,,,,,,,,,,,,,,,,,,,,,,,,,,,,,,,,,,,,,,,,,,,,,,,,,,
296746,2022-11-23_10h48.30.292,vts_reward_expectancy_bt,2022.2.4,Win32,60.10699044,Chrome,1920,1080,,,a,0.4076,10,605,2,1,7,19,0,1,1,0,0,0,0,1,0,0,triangle,circle,,,,,,,,,,,,,,,,,,,,,,,,,,,,,,,,,,,,,,,,,,,,,,,,,,,,,,
296746,2022-11-23_10h48.30.292,vts_reward_expectancy_bt,2022.2.4,Win32,60.10699044,Chrome,1920,1080,,,a,0.3312,1,606,2,1,8,20,5,1,0,1,0,0,0,0,0,1,circle,star,,,,,,,,,,,,,,,,,,,,,,,,,,,,,,,,,,,,,,,,,,,,,,,,,,,,,,
296746,2022-11-23_10h48.30.292,vts_reward_expectancy_bt,2022.2.4,Win32,60.10699044,Chrome,1920,1080,,,l,0.2969,1,607,2,1,9,21,10,1,0,0,0,1,0,1,0,0,star ,circle,,,,,,,,,,,,,,,,,,,,,,,,,,,,,,,,,,,,,,,,,,,,,,,,,,,,,,
296746,2022-11-23_10h48.30.292,vts_reward_expectancy_bt,2022.2.4,Win32,60.10699044,Chrome,1920,1080,,,a,0.2643,1,608,2,1,10,22,4,1,0,1,0,0,0,0,1,0,circle,hexagon,,,,,,,,,,,,,,,,,,,,,,,,,,,,,,,,,,,,,,,,,,,,,,,,,,,,,,
296746,2022-11-23_10h48.30.292,vts_reward_expectancy_bt,2022.2.4,Win32,60.10699044,Chrome,1920,1080,,,l,0.402,10,618,2,1,11,23,3,1,0,1,0,0,1,0,0,0,circle,triangle,,,,,,,,,,,,,,,,,,,,,,,,,,,,,,,,,,,,,,,,,,,,,,,,,,,,,,
296746,2022-11-23_10h48.30.292,vts_reward_expectancy_bt,2022.2.4,Win32,60.10699044,Chrome,1920,1080,,,a,0.2337,10,628,2,2,0,24,10,1,0,0,0,1,0,1,0,0,star ,circle,,,,,,,,,,,,,,,,,,,,,,,,,,,,,,,,,,,,,,,,,,,,,,,,,,,,,,
296746,2022-11-23_10h48.30.292,vts_reward_expectancy_bt,2022.2.4,Win32,60.10699044,Chrome,1920,1080,,,a,0.3369,10,638,2,2,1,25,4,1,0,1,0,0,0,0,1,0,circle,hexagon,,,,,,,,,,,,,,,,,,,,,,,,,,,,,,,,,,,,,,,,,,,,,,,,,,,,,,
296746,2022-11-23_10h48.30.292,vts_reward_expectancy_bt,2022.2.4,Win32,60.10699044,Chrome,1920,1080,,,a,0.2502,1,639,2,2,2,26,7,1,0,0,1,0,0,1,0,0,hexagon,circle,,,,,,,,,,,,,,,,,,,,,,,,,,,,,,,,,,,,,,,,,,,,,,,,,,,,,,
296746,2022-11-23_10h48.30.292,vts_reward_expectancy_bt,2022.2.4,Win32,60.10699044,Chrome,1920,1080,,,l,0.2404,1,640,2,2,3,27,8,1,0,0,1,0,0,0,0,1,hexagon,star,,,,,,,,,,,,,,,,,,,,,,,,,,,,,,,,,,,,,,,,,,,,,,,,,,,,,,
296746,2022-11-23_10h48.30.292,vts_reward_expectancy_bt,2022.2.4,Win32,60.10699044,Chrome,1920,1080,,,a,0.2168,10,650,2,2,4,28,6,1,0,0,1,0,1,0,0,0,hexagon,triangle,,,,,,,,,,,,,,,,,,,,,,,,,,,,,,,,,,,,,,,,,,,,,,,,,,,,,,
296746,2022-11-23_10h48.30.292,vts_reward_expectancy_bt,2022.2.4,Win32,60.10699044,Chrome,1920,1080,,,l,0.4132,1,651,2,2,5,29,5,1,0,1,0,0,0,0,0,1,circle,star,,,,,,,,,,,,,,,,,,,,,,,,,,,,,,,,,,,,,,,,,,,,,,,,,,,,,,
296746,2022-11-23_10h48.30.292,vts_reward_expectancy_bt,2022.2.4,Win32,60.10699044,Chrome,1920,1080,,,a,0.2887,10,661,2,2,6,30,9,1,0,0,0,1,1,0,0,0,star,triangle,,,,,,,,,,,,,,,,,,,,,,,,,,,,,,,,,,,,,,,,,,,,,,,,,,,,,,
296746,2022-11-23_10h48.30.292,vts_reward_expectancy_bt,2022.2.4,Win32,60.10699044,Chrome,1920,1080,,,l,0.8886,10,671,2,2,7,31,3,1,0,1,0,0,1,0,0,0,circle,triangle,,,,,,,,,,,,,,,,,,,,,,,,,,,,,,,,,,,,,,,,,,,,,,,,,,,,,,
296746,2022-11-23_10h48.30.292,vts_reward_expectancy_bt,2022.2.4,Win32,60.10699044,Chrome,1920,1080,,,a,0.7916,1,672,2,2,8,32,2,1,1,0,0,0,0,0,0,1,triangle,star,,,,,,,,,,,,,,,,,,,,,,,,,,,,,,,,,,,,,,,,,,,,,,,,,,,,,,
296746,2022-11-23_10h48.30.292,vts_reward_expectancy_bt,2022.2.4,Win32,60.10699044,Chrome,1920,1080,,,a,0.8694,10,682,2,2,9,33,0,1,1,0,0,0,0,1,0,0,triangle,circle,,,,,,,,,,,,,,,,,,,,,,,,,,,,,,,,,,,,,,,,,,,,,,,,,,,,,,
296746,2022-11-23_10h48.30.292,vts_reward_expectancy_bt,2022.2.4,Win32,60.10699044,Chrome,1920,1080,,,a,1.355,1,683,2,2,10,34,11,1,0,0,0,1,0,0,1,0,star,hexagon,,,,,,,,,,,,,,,,,,,,,,,,,,,,,,,,,,,,,,,,,,,,,,,,,,,,,,
296746,2022-11-23_10h48.30.292,vts_reward_expectancy_bt,2022.2.4,Win32,60.10699044,Chrome,1920,1080,,,l,0.2568,1,684,2,2,11,35,1,1,1,0,0,0,0,0,1,0,triangle,hexagon,,,,,,,,,,,,,,,,,,,,,,,,,,,,,,,,,,,,,,,,,,,,,,,,,,,,,,
296746,2022-11-23_10h48.30.292,vts_reward_expectancy_bt,2022.2.4,Win32,60.10699044,Chrome,1920,1080,,,,,,,,,,,,,,,,,,,,,,,W,174,circle,1,0,f,1.8504,0,0,0,0,0,1,,,,,,,,,,,,,,,,,,,,,,,,,,,,,,,,,,,,,,,,,
296746,2022-11-23_10h48.30.292,vts_reward_expectancy_bt,2022.2.4,Win32,60.10699044,Chrome,1920,1080,,,,,,,,,,,,,,,,,,,,,,,B,146,triangle,1,0,d,0.5438,0,1,0,1,0,1,,,,,,,,,,,,,,,,,,,,,,,,,,,,,,,,,,,,,,,,,
296746,2022-11-23_10h48.30.292,vts_reward_expectancy_bt,2022.2.4,Win32,60.10699044,Chrome,1920,1080,,,,,,,,,,,,,,,,,,,,,,,F,167,star,1,0,d,1.6198,0,2,0,2,0,1,,,,,,,,,,,,,,,,,,,,,,,,,,,,,,,,,,,,,,,,,
296746,2022-11-23_10h48.30.292,vts_reward_expectancy_bt,2022.2.4,Win32,60.10699044,Chrome,1920,1080,,,,,,,,,,,,,,,,,,,,,,,S,181,hexagon,1,0,f,0.748,0,3,0,3,0,1,,,,,,,,,,,,,,,,,,,,,,,,,,,,,,,,,,,,,,,,,
296746,2022-11-23_10h48.30.292,vts_reward_expectancy_bt,2022.2.4,Win32,60.10699044,Chrome,1920,1080,,,,,,,,,,,,,,,,,,,,,,,H,132,circle,1,0,d,1.0162,0,4,0,4,0,1,,,,,,,,,,,,,,,,,,,,,,,,,,,,,,,,,,,,,,,,,
296746,2022-11-23_10h48.30.292,vts_reward_expectancy_bt,2022.2.4,Win32,60.10699044,Chrome,1920,1080,,,,,,,,,,,,,,,,,,,,,,,D,160,triangle,1,0,d,0.5331,0,5,0,5,0,1,,,,,,,,,,,,,,,,,,,,,,,,,,,,,,,,,,,,,,,,,
296746,2022-11-23_10h48.30.292,vts_reward_expectancy_bt,2022.2.4,Win32,60.10699044,Chrome,1920,1080,,,,,,,,,,,,,,,,,,,,,,,Y,125,star,0,0,d,0.5604,0,6,0,6,0,1,,,,,,,,,,,,,,,,,,,,,,,,,,,,,,,,,,,,,,,,,
296746,2022-11-23_10h48.30.292,vts_reward_expectancy_bt,2022.2.4,Win32,60.10699044,Chrome,1920,1080,,,,,,,,,,,,,,,,,,,,,,,U,139,hexagon,1,1,f,0.6205,0,7,0,7,0,1,,,,,,,,,,,,,,,,,,,,,,,,,,,,,,,,,,,,,,,,,
296746,2022-11-23_10h48.30.292,vts_reward_expectancy_bt,2022.2.4,Win32,60.10699044,Chrome,1920,1080,,,,,,,,,,,,,,,,,,,,,,,W,174,triangle,1,0,f,0.8846,0,8,0,8,0,1,,,,,,,,,,,,,,,,,,,,,,,,,,,,,,,,,,,,,,,,,
296746,2022-11-23_10h48.30.292,vts_reward_expectancy_bt,2022.2.4,Win32,60.10699044,Chrome,1920,1080,,,,,,,,,,,,,,,,,,,,,,,B,146,hexagon,1,0,d,0.5519,0,9,0,9,0,1,,,,,,,,,,,,,,,,,,,,,,,,,,,,,,,,,,,,,,,,,
296746,2022-11-23_10h48.30.292,vts_reward_expectancy_bt,2022.2.4,Win32,60.10699044,Chrome,1920,1080,,,,,,,,,,,,,,,,,,,,,,,H,160,hexagon,1,0,,,1,,,,,,k,1.9468,0,0,0,0,1,,,,,,,,,,,,,,,,,,,,,,,,,,,,,,,,,,
296746,2022-11-23_10h48.30.292,vts_reward_expectancy_bt,2022.2.4,Win32,60.10699044,Chrome,1920,1080,,,,,,,,,,,,,,,,,,,,,,,F,167,circle,0,0,,,1,,,,,,j,1.8631,1,0,1,0,1,,,,,,,,,,,,,,,,,,,,,,,,,,,,,,,,,,
296746,2022-11-23_10h48.30.292,vts_reward_expectancy_bt,2022.2.4,Win32,60.10699044,Chrome,1920,1080,,,,,,,,,,,,,,,,,,,,,,,B,174,star,1,1,,,1,,,,,,k,1.23,2,0,2,0,1,,,,,,,,,,,,,,,,,,,,,,,,,,,,,,,,,,
296746,2022-11-23_10h48.30.292,vts_reward_expectancy_bt,2022.2.4,Win32,60.10699044,Chrome,1920,1080,,,,,,,,,,,,,,,,,,,,,,,U,125,triangle,1,0,,,1,,,,,,j,0.6497,3,0,3,0,1,,,,,,,,,,,,,,,,,,,,,,,,,,,,,,,,,,
296746,2022-11-23_10h48.30.292,vts_reward_expectancy_bt,2022.2.4,Win32,60.10699044,Chrome,1920,1080,,,,,,,,,,,,,,,,,,,,,,,D,181,hexagon,1,0,,,1,,,,,,k,0.6149,4,0,4,0,1,,,,,,,,,,,,,,,,,,,,,,,,,,,,,,,,,,
296746,2022-11-23_10h48.30.292,vts_reward_expectancy_bt,2022.2.4,Win32,60.10699044,Chrome,1920,1080,,,,,,,,,,,,,,,,,,,,,,,S,146,circle,1,0,,,1,,,,,,j,0.7683,5,0,5,0,1,,,,,,,,,,,,,,,,,,,,,,,,,,,,,,,,,,
296746,2022-11-23_10h48.30.292,vts_reward_expectancy_bt,2022.2.4,Win32,60.10699044,Chrome,1920,1080,,,,,,,,,,,,,,,,,,,,,,,W,132,star,1,0,,,1,,,,,,j,0.8141,6,0,6,0,1,,,,,,,,,,,,,,,,,,,,,,,,,,,,,,,,,,
296746,2022-11-23_10h48.30.292,vts_reward_expectancy_bt,2022.2.4,Win32,60.10699044,Chrome,1920,1080,,,,,,,,,,,,,,,,,,,,,,,Y,139,triangle,1,0,,,1,,,,,,j,1.6013,7,0,7,0,1,,,,,,,,,,,,,,,,,,,,,,,,,,,,,,,,,,
296746,2022-11-23_10h48.30.292,vts_reward_expectancy_bt,2022.2.4,Win32,60.10699044,Chrome,1920,1080,,,,,,,,,,,,,,,,,,,,,,,H,160,circle,0,0,,,1,,,,,,j,1.7629,8,0,8,0,1,,,,,,,,,,,,,,,,,,,,,,,,,,,,,,,,,,
296746,2022-11-23_10h48.30.292,vts_reward_expectancy_bt,2022.2.4,Win32,60.10699044,Chrome,1920,1080,,,,,,,,,,,,,,,,,,,,,,,F,167,hexagon,0,1,,,1,,,,,,j,1.13,9,0,9,0,1,,,,,,,,,,,,,,,,,,,,,,,,,,,,,,,,,,
296746,2022-11-23_10h48.30.292,vts_reward_expectancy_bt,2022.2.4,Win32,60.10699044,Chrome,1920,1080,,,,,,,,,,,,,,,,,,,,,,,F,125,star,1,1,,,2,,,,,,j,0.604,0,0,0,0,1,,,,,,,,,,,,,,,,,,,,,,,,,,,,,,,,,,
296746,2022-11-23_10h48.30.292,vts_reward_expectancy_bt,2022.2.4,Win32,60.10699044,Chrome,1920,1080,,,,,,,,,,,,,,,,,,,,,,,D,132,circle,1,0,,,2,,,,,,j,0.5456,1,0,1,0,1,,,,,,,,,,,,,,,,,,,,,,,,,,,,,,,,,,
296746,2022-11-23_10h48.30.292,vts_reward_expectancy_bt,2022.2.4,Win32,60.10699044,Chrome,1920,1080,,,,,,,,,,,,,,,,,,,,,,,S,139,hexagon,1,0,,,2,,,,,,j,1.8128,2,0,2,0,1,,,,,,,,,,,,,,,,,,,,,,,,,,,,,,,,,,
296746,2022-11-23_10h48.30.292,vts_reward_expectancy_bt,2022.2.4,Win32,60.10699044,Chrome,1920,1080,,,,,,,,,,,,,,,,,,,,,,,W,146,triangle,1,0,,,2,,,,,,j,0.4447,3,0,3,0,1,,,,,,,,,,,,,,,,,,,,,,,,,,,,,,,,,,
296746,2022-11-23_10h48.30.292,vts_reward_expectancy_bt,2022.2.4,Win32,60.10699044,Chrome,1920,1080,,,,,,,,,,,,,,,,,,,,,,,H,174,star,1,0,,,2,,,,,,k,0.5875,4,0,4,0,1,,,,,,,,,,,,,,,,,,,,,,,,,,,,,,,,,,
296746,2022-11-23_10h48.30.292,vts_reward_expectancy_bt,2022.2.4,Win32,60.10699044,Chrome,1920,1080,,,,,,,,,,,,,,,,,,,,,,,Y,167,circle,1,0,,,2,,,,,,k,1.5316,5,0,5,0,1,,,,,,,,,,,,,,,,,,,,,,,,,,,,,,,,,,
296746,2022-11-23_10h48.30.292,vts_reward_expectancy_bt,2022.2.4,Win32,60.10699044,Chrome,1920,1080,,,,,,,,,,,,,,,,,,,,,,,U,181,hexagon,1,0,,,2,,,,,,k,1.1141,6,0,6,0,1,,,,,,,,,,,,,,,,,,,,,,,,,,,,,,,,,,
296746,2022-11-23_10h48.30.292,vts_reward_expectancy_bt,2022.2.4,Win32,60.10699044,Chrome,1920,1080,,,,,,,,,,,,,,,,,,,,,,,B,160,triangle,1,0,,,2,,,,,,k,1.2841,7,0,7,0,1,,,,,,,,,,,,,,,,,,,,,,,,,,,,,,,,,,
296746,2022-11-23_10h48.30.292,vts_reward_expectancy_bt,2022.2.4,Win32,60.10699044,Chrome,1920,1080,,,,,,,,,,,,,,,,,,,,,,,F,125,triangle,0,0,,,2,,,,,,,,8,0,8,0,1,,,,,,,,,,,,,,,,,,,,,,,,,,,,,,,,,,
296746,2022-11-23_10h48.30.292,vts_reward_expectancy_bt,2022.2.4,Win32,60.10699044,Chrome,1920,1080,,,,,,,,,,,,,,,,,,,,,,,D,132,circle,1,1,,,2,,,,,,j,0.4777,9,0,9,0,1,,,,,,,,,,,,,,,,,,,,,,,,,,,,,,,,,,
296746,2022-11-23_10h48.30.292,vts_reward_expectancy_bt,2022.2.4,Win32,60.10699044,Chrome,1920,1080,,,,,0,684,,,,,,,,,,,,,,,,,D,174,circle,1,0,,,3,,,,,,,,,,,,,-1,letter,NA,d,1.1117,vtsPrac,0,0,0,0,1,,,,,,,,,,,,,,,,,,,,,,,
296746,2022-11-23_10h48.30.292,vts_reward_expectancy_bt,2022.2.4,Win32,60.10699044,Chrome,1920,1080,,,,,0,684,,,,,,,,,,,,,,,,,U,160,star,0,0,,,3,,,,,,,,,,,,,switch,number,NA,j,2.6773,vtsPrac,1,0,1,0,1,,,,,,,,,,,,,,,,,,,,,,,
296746,2022-11-23_10h48.30.292,vts_reward_expectancy_bt,2022.2.4,Win32,60.10699044,Chrome,1920,1080,,,,,0,684,,,,,,,,,,,,,,,,,B,181,circle,1,1,,,3,,,,,,,,,,,,,switch,letter,lettSwt,d,0.5772,vtsPrac,2,0,2,0,1,,,,,,,,,,,,,,,,,,,,,,,
296746,2022-11-23_10h48.30.292,vts_reward_expectancy_bt,2022.2.4,Win32,60.10699044,Chrome,1920,1080,,,,,0,684,,,,,,,,,,,,,,,,,H,125,star,1,0,,,3,,,,,,,,,,,,,switch,number,numSwt,j,1.6556,vtsPrac,3,0,3,0,1,,,,,,,,,,,,,,,,,,,,,,,
296746,2022-11-23_10h48.30.292,vts_reward_expectancy_bt,2022.2.4,Win32,60.10699044,Chrome,1920,1080,,,,,0,684,,,,,,,,,,,,,,,,,D,174,triangle,1,0,,,3,,,,,,,,,,,,,switch,letter,lettSwt,d,0.6266,vtsPrac,4,0,4,0,1,,,,,,,,,,,,,,,,,,,,,,,
296746,2022-11-23_10h48.30.292,vts_reward_expectancy_bt,2022.2.4,Win32,60.10699044,Chrome,1920,1080,,,,,0,684,,,,,,,,,,,,,,,,,U,160,hexagon,1,0,,,3,,,,,,,,,,,,,repeat,letter,lettRpt,f,1.0775,vtsPrac,5,0,5,0,1,,,,,,,,,,,,,,,,,,,,,,,
296746,2022-11-23_10h48.30.292,vts_reward_expectancy_bt,2022.2.4,Win32,60.10699044,Chrome,1920,1080,,,,,0,684,,,,,,,,,,,,,,,,,B,181,circle,1,0,,,3,,,,,,,,,,,,,switch,number,numSwt,k,0.7442,vtsPrac,6,0,6,0,1,,,,,,,,,,,,,,,,,,,,,,,
296746,2022-11-23_10h48.30.292,vts_reward_expectancy_bt,2022.2.4,Win32,60.10699044,Chrome,1920,1080,,,,,0,684,,,,,,,,,,,,,,,,,H,125,star,1,0,,,3,,,,,,,,,,,,,switch,letter,lettSwt,d,0.6142,vtsPrac,7,0,7,0,1,,,,,,,,,,,,,,,,,,,,,,,
296746,2022-11-23_10h48.30.292,vts_reward_expectancy_bt,2022.2.4,Win32,60.10699044,Chrome,1920,1080,,,,,0,684,,,,,,,,,,,,,,,,,U,125,circle,1,0,,,3,,,,,,,,,,,,,switch,number,numSwt,j,0.6302,vtsPrac,8,0,8,0,1,,,,,,,,,,,,,,,,,,,,,,,
296746,2022-11-23_10h48.30.292,vts_reward_expectancy_bt,2022.2.4,Win32,60.10699044,Chrome,1920,1080,,,,,0,684,,,,,,,,,,,,,,,,,F,139,hexagon,1,0,,,3,,,,,,,,,,,,,repeat,number,numRpt,j,0.8627,vtsPrac,9,0,9,0,1,,,,,,,,,,,,,,,,,,,,,,,
296746,2022-11-23_10h48.30.292,vts_reward_expectancy_bt,2022.2.4,Win32,60.10699044,Chrome,1920,1080,,,,,0,684,,,,,,,,,,,,,,,,,B,132,hexagon,1,0,,,3,,,,,,,,,,,,,repeat,number,numRpt,j,0.6777,vtsPrac,10,0,10,0,1,,,,,,,,,,,,,,,,,,,,,,,
296746,2022-11-23_10h48.30.292,vts_reward_expectancy_bt,2022.2.4,Win32,60.10699044,Chrome,1920,1080,,,,,0,684,,,,,,,,,,,,,,,,,D,160,star,1,0,,,3,,,,,,,,,,,,,switch,letter,lettSwt,d,0.6174,vtsPrac,11,0,11,0,1,,,,,,,,,,,,,,,,,,,,,,,
296746,2022-11-23_10h48.30.292,vts_reward_expectancy_bt,2022.2.4,Win32,60.10699044,Chrome,1920,1080,,,,,0,684,,,,,,,,,,,,,,,,,W,146,star,1,0,,,3,,,,,,,,,,,,,switch,number,numSwt,j,0.9428,vtsPrac,12,0,12,0,1,,,,,,,,,,,,,,,,,,,,,,,
296746,2022-11-23_10h48.30.292,vts_reward_expectancy_bt,2022.2.4,Win32,60.10699044,Chrome,1920,1080,,,,,0,684,,,,,,,,,,,,,,,,,B,181,triangle,1,0,,,3,,,,,,,,,,,,,switch,letter,lettSwt,d,0.7936,vtsPrac,13,0,13,0,1,,,,,,,,,,,,,,,,,,,,,,,
296746,2022-11-23_10h48.30.292,vts_reward_expectancy_bt,2022.2.4,Win32,60.10699044,Chrome,1920,1080,,,,,0,684,,,,,,,,,,,,,,,,,S,139,star,1,0,,,3,,,,,,,,,,,,,switch,number,numSwt,j,0.864,vtsPrac,14,0,14,0,1,,,,,,,,,,,,,,,,,,,,,,,
296746,2022-11-23_10h48.30.292,vts_reward_expectancy_bt,2022.2.4,Win32,60.10699044,Chrome,1920,1080,,,,,0,684,,,,,,,,,,,,,,,,,Y,132,hexagon,1,0,,,3,,,,,,,,,,,,,repeat,number,numRpt,j,0.6438,vtsPrac,15,0,15,0,1,,,,,,,,,,,,,,,,,,,,,,,
296746,2022-11-23_10h48.30.292,vts_reward_expectancy_bt,2022.2.4,Win32,60.10699044,Chrome,1920,1080,,,,,0,684,,,,,,,,,,,,,,,,,H,139,star,1,0,,,3,,,,,,,,,,,,,switch,letter,lettSwt,d,0.6284,vtsPrac,16,0,16,0,1,,,,,,,,,,,,,,,,,,,,,,,
296746,2022-11-23_10h48.30.292,vts_reward_expectancy_bt,2022.2.4,Win32,60.10699044,Chrome,1920,1080,,,,,0,684,,,,,,,,,,,,,,,,,U,174,hexagon,1,0,,,3,,,,,,,,,,,,,repeat,letter,lettRpt,f,0.7638,vtsPrac,17,0,17,0,1,,,,,,,,,,,,,,,,,,,,,,,
296746,2022-11-23_10h48.30.292,vts_reward_expectancy_bt,2022.2.4,Win32,60.10699044,Chrome,1920,1080,,,,,0,684,,,,,,,,,,,,,,,,,Y,167,circle,1,0,,,3,,,,,,,,,,,,,switch,number,numSwt,k,1.2811,vtsPrac,18,0,18,0,1,,,,,,,,,,,,,,,,,,,,,,,
296746,2022-11-23_10h48.30.292,vts_reward_expectancy_bt,2022.2.4,Win32,60.10699044,Chrome,1920,1080,,,,,0,684,,,,,,,,,,,,,,,,,S,181,triangle,1,0,,,3,,,,,,,,,,,,,repeat,number,numRpt,k,0.647,vtsPrac,19,0,19,0,1,,,,,,,,,,,,,,,,,,,,,,,
296746,2022-11-23_10h48.30.292,vts_reward_expectancy_bt,2022.2.4,Win32,60.10699044,Chrome,1920,1080,,,,,0,684,,,,,,,,,,,,,,,,,Y,146,circle,1,0,,,3,,,,,,,,,,,,,switch,letter,lettSwt,f,0.826,vtsPrac,20,0,20,0,1,,,,,,,,,,,,,,,,,,,,,,,
296746,2022-11-23_10h48.30.292,vts_reward_expectancy_bt,2022.2.4,Win32,60.10699044,Chrome,1920,1080,,,,,0,684,,,,,,,,,,,,,,,,,F,167,triangle,1,0,,,3,,,,,,,,,,,,,repeat,letter,lettRpt,d,0.746,vtsPrac,21,0,21,0,1,,,,,,,,,,,,,,,,,,,,,,,
296746,2022-11-23_10h48.30.292,vts_reward_expectancy_bt,2022.2.4,Win32,60.10699044,Chrome,1920,1080,,,,,0,684,,,,,,,,,,,,,,,,,D,181,star,1,0,,,3,,,,,,,,,,,,,switch,number,numSwt,k,0.7785,vtsPrac,22,0,22,0,1,,,,,,,,,,,,,,,,,,,,,,,
296746,2022-11-23_10h48.30.292,vts_reward_expectancy_bt,2022.2.4,Win32,60.10699044,Chrome,1920,1080,,,,,0,684,,,,,,,,,,,,,,,,,B,160,triangle,1,0,,,3,,,,,,,,,,,,,switch,letter,lettSwt,d,0.5706,vtsPrac,23,0,23,0,1,,,,,,,,,,,,,,,,,,,,,,,
296746,2022-11-23_10h48.30.292,vts_reward_expectancy_bt,2022.2.4,Win32,60.10699044,Chrome,1920,1080,,,,,0,684,,,,,,,,,,,,,,,,,D,146,hexagon,1,0,,,3,,,,,,,,,,,,,repeat,letter,lettRpt,d,0.629,vtsPrac,24,0,24,0,1,,,,,,,,,,,,,,,,,,,,,,,
296746,2022-11-23_10h48.30.292,vts_reward_expectancy_bt,2022.2.4,Win32,60.10699044,Chrome,1920,1080,,,,,0,684,,,,,,,,,,,,,,,,,U,125,triangle,1,0,,,3,,,,,,,,,,,,,switch,number,numSwt,j,0.7798,vtsPrac,25,0,25,0,1,,,,,,,,,,,,,,,,,,,,,,,
296746,2022-11-23_10h48.30.292,vts_reward_expectancy_bt,2022.2.4,Win32,60.10699044,Chrome,1920,1080,,,,,0,684,,,,,,,,,,,,,,,,,H,181,hexagon,1,0,,,3,,,,,,,,,,,,,repeat,number,numRpt,k,0.5765,vtsPrac,26,0,26,0,1,,,,,,,,,,,,,,,,,,,,,,,
296746,2022-11-23_10h48.30.292,vts_reward_expectancy_bt,2022.2.4,Win32,60.10699044,Chrome,1920,1080,,,,,0,684,,,,,,,,,,,,,,,,,Y,132,circle,1,0,,,3,,,,,,,,,,,,,repeat,number,numRpt,j,0.6954,vtsPrac,27,0,27,0,1,,,,,,,,,,,,,,,,,,,,,,,
296746,2022-11-23_10h48.30.292,vts_reward_expectancy_bt,2022.2.4,Win32,60.10699044,Chrome,1920,1080,,,,,0,684,,,,,,,,,,,,,,,,,W,139,star,1,0,,,3,,,,,,,,,,,,,switch,letter,lettSwt,f,1.5777,vtsPrac,28,0,28,0,1,,,,,,,,,,,,,,,,,,,,,,,
296746,2022-11-23_10h48.30.292,vts_reward_expectancy_bt,2022.2.4,Win32,60.10699044,Chrome,1920,1080,,,,,0,684,,,,,,,,,,,,,,,,,D,167,circle,1,0,,,3,,,,,,,,,,,,,repeat,letter,lettRpt,d,1.227,vtsPrac,29,0,29,0,1,,,,,,,,,,,,,,,,,,,,,,,
296746,2022-11-23_10h48.30.292,vts_reward_expectancy_bt,2022.2.4,Win32,60.10699044,Chrome,1920,1080,,,,,0,684,,,,,,,,,,,,,,,,,H,160,hexagon,1,0,,,3,,,,,,,,,,,,,switch,number,numSwt,k,2.2321,vtsPrac,30,0,30,0,1,,,,,,,,,,,,,,,,,,,,,,,
296746,2022-11-23_10h48.30.292,vts_reward_expectancy_bt,2022.2.4,Win32,60.10699044,Chrome,1920,1080,,,,,0,684,,,,,,,,,,,,,,,,,Y,125,circle,1,0,,,3,,,,,,,,,,,,,repeat,number,numRpt,j,1.1114,vtsPrac,31,0,31,0,1,,,,,,,,,,,,,,,,,,,,,,,
296746,2022-11-23_10h48.30.292,vts_reward_expectancy_bt,2022.2.4,Win32,60.10699044,Chrome,1920,1080,,,,,,,,,,,,,,,,,,,,,,,,,,,,,,,,,,,,,,,,,,,,,,,,,,,,,,,,,,,,,,,,,,,,,,,,,,,,
296746,2022-11-23_10h48.30.292,vts_reward_expectancy_bt,2022.2.4,Win32,60.10699044,Chrome,1920,1080,,,,,,,,,,,,,,,,,,,,,,,,,,,,,,,,,,,,,,,,,,,,,,,,,,,,,,,,,,,,,,,,,,,,,,,,,,,,
296746,2022-11-23_10h48.30.292,vts_reward_expectancy_bt,2022.2.4,Win32,60.10699044,Chrome,1920,1080,,,,,0,684,,,,,,,,,,,,,,,,,F,174,star,1,0,,,,,,,,,,,,,,,,switch,letter,lettSwt,d,1.2849,noRew,,,,,,0,0,0,0,0,1,,,,,,,,,,,,,,,,,
296746,2022-11-23_10h48.30.292,vts_reward_expectancy_bt,2022.2.4,Win32,60.10699044,Chrome,1920,1080,,,,,0,684,,,,,,,,,,,,,,,,,D,139,hexagon,1,0,,,,,,,,,,,,,,,,switch,number,numSwt,j,1.3127,noRew,,,,,,0,1,0,1,0,1,,,,,,,,,,,,,,,,,
296746,2022-11-23_10h48.30.292,vts_reward_expectancy_bt,2022.2.4,Win32,60.10699044,Chrome,1920,1080,,,,,0,684,,,,,,,,,,,,,,,,,S,181,star,1,0,,,,,,,,,,,,,,,,switch,letter,lettSwt,f,0.9979,noRew,,,,,,0,2,0,2,0,1,,,,,,,,,,,,,,,,,
296746,2022-11-23_10h48.30.292,vts_reward_expectancy_bt,2022.2.4,Win32,60.10699044,Chrome,1920,1080,,,,,0,684,,,,,,,,,,,,,,,,,Y,125,hexagon,1,0,,,,,,,,,,,,,,,,switch,number,numSwt,j,1.0188,noRew,,,,,,0,3,0,3,0,1,,,,,,,,,,,,,,,,,
296746,2022-11-23_10h48.30.292,vts_reward_expectancy_bt,2022.2.4,Win32,60.10699044,Chrome,1920,1080,,,,,0,684,,,,,,,,,,,,,,,,,F,174,hexagon,1,0,,,,,,,,,,,,,,,,switch,letter,lettSwt,d,0.9492,noRew,,,,,,0,4,0,4,0,1,,,,,,,,,,,,,,,,,
296746,2022-11-23_10h48.30.292,vts_reward_expectancy_bt,2022.2.4,Win32,60.10699044,Chrome,1920,1080,,,,,0,684,,,,,,,,,,,,,,,,,D,139,star,1,0,,,,,,,,,,,,,,,,switch,number,numSwt,j,0.859,noRew,,,,,,0,5,0,5,0,1,,,,,,,,,,,,,,,,,
296746,2022-11-23_10h48.30.292,vts_reward_expectancy_bt,2022.2.4,Win32,60.10699044,Chrome,1920,1080,,,,,0,684,,,,,,,,,,,,,,,,,S,181,hexagon,1,0,,,,,,,,,,,,,,,,switch,letter,lettSwt,f,0.9609,noRew,,,,,,0,6,0,6,0,1,,,,,,,,,,,,,,,,,
296746,2022-11-23_10h48.30.292,vts_reward_expectancy_bt,2022.2.4,Win32,60.10699044,Chrome,1920,1080,,,,,0,684,,,,,,,,,,,,,,,,,Y,125,star,1,0,,,,,,,,,,,,,,,,repeat,letter,lettRpt,f,0.8534,noRew,,,,,,0,7,0,7,0,1,,,,,,,,,,,,,,,,,
296746,2022-11-23_10h48.30.292,vts_reward_expectancy_bt,2022.2.4,Win32,60.10699044,Chrome,1920,1080,,,,,0,684,,,,,,,,,,,,,,,,,W,160,hexagon,1,0,,,,,,,,,,,,,,,,switch,number,numSwt,k,1.0645,noRew,,,,,,0,8,0,8,0,1,,,,,,,,,,,,,,,,,
296746,2022-11-23_10h48.30.292,vts_reward_expectancy_bt,2022.2.4,Win32,60.10699044,Chrome,1920,1080,,,,,0,684,,,,,,,,,,,,,,,,,H,174,triangle,1,0,,,,,,,,,,,,,,,,repeat,number,numRpt,k,0.944,noRew,,,,,,0,9,0,9,0,1,,,,,,,,,,,,,,,,,
296746,2022-11-23_10h48.30.292,vts_reward_expectancy_bt,2022.2.4,Win32,60.10699044,Chrome,1920,1080,,,,,0,684,,,,,,,,,,,,,,,,,S,139,hexagon,1,0,,,,,,,,,,,,,,,,switch,letter,lettSwt,f,0.8541,noRew,,,,,,0,10,0,10,0,1,,,,,,,,,,,,,,,,,
296746,2022-11-23_10h48.30.292,vts_reward_expectancy_bt,2022.2.4,Win32,60.10699044,Chrome,1920,1080,,,,,0,684,,,,,,,,,,,,,,,,,U,167,circle,1,0,,,,,,,,,,,,,,,,switch,number,numSwt,k,1.1112,noRew,,,,,,0,11,0,11,0,1,,,,,,,,,,,,,,,,,
296746,2022-11-23_10h48.30.292,vts_reward_expectancy_bt,2022.2.4,Win32,60.10699044,Chrome,1920,1080,,,,,0,684,,,,,,,,,,,,,,,,,D,167,star,-1,0,,,,,,,,,,,,,,,,switch,no_choice,NA,,,noRew,,,,,,0,12,0,12,0,1,,,,,,,,,,,,,,,,,
296746,2022-11-23_10h48.30.292,vts_reward_expectancy_bt,2022.2.4,Win32,60.10699044,Chrome,1920,1080,,,,,0,684,,,,,,,,,,,,,,,,,B,160,circle,1,0,,,,,,,,,,,,,,,,switch,letter,lettSwt,d,0.598,noRew,,,,,,0,13,0,13,0,1,,,,,,,,,,,,,,,,,
296746,2022-11-23_10h48.30.292,vts_reward_expectancy_bt,2022.2.4,Win32,60.10699044,Chrome,1920,1080,,,,,0,684,,,,,,,,,,,,,,,,,Y,132,circle,1,0,,,,,,,,,,,,,,,,repeat,letter,lettRpt,f,1.0447,noRew,,,,,,0,14,0,14,0,1,,,,,,,,,,,,,,,,,
296746,2022-11-23_10h48.30.292,vts_reward_expectancy_bt,2022.2.4,Win32,60.10699044,Chrome,1920,1080,,,,,0,684,,,,,,,,,,,,,,,,,U,174,hexagon,1,0,,,,,,,,,,,,,,,,switch,number,numSwt,k,0.7785,noRew,,,,,,0,15,0,15,0,1,,,,,,,,,,,,,,,,,
296746,2022-11-23_10h48.30.292,vts_reward_expectancy_bt,2022.2.4,Win32,60.10699044,Chrome,1920,1080,,,,,0,684,,,,,,,,,,,,,,,,,W,181,star,1,0,,,,,,,,,,,,,,,,repeat,number,numRpt,k,0.7306,noRew,,,,,,0,16,0,16,0,1,,,,,,,,,,,,,,,,,
296746,2022-11-23_10h48.30.292,vts_reward_expectancy_bt,2022.2.4,Win32,60.10699044,Chrome,1920,1080,,,,,0,684,,,,,,,,,,,,,,,,,B,125,circle,1,0,,,,,,,,,,,,,,,,switch,letter,lettSwt,d,0.6775,noRew,,,,,,0,17,0,17,0,1,,,,,,,,,,,,,,,,,
296746,2022-11-23_10h48.30.292,vts_reward_expectancy_bt,2022.2.4,Win32,60.10699044,Chrome,1920,1080,,,,,0,684,,,,,,,,,,,,,,,,,H,132,circle,1,0,,,,,,,,,,,,,,,,repeat,letter,lettRpt,d,0.6665,noRew,,,,,,0,18,0,18,0,1,,,,,,,,,,,,,,,,,
296746,2022-11-23_10h48.30.292,vts_reward_expectancy_bt,2022.2.4,Win32,60.10699044,Chrome,1920,1080,,,,,0,684,,,,,,,,,,,,,,,,,S,174,triangle,1,0,,,,,,,,,,,,,,,,switch,number,numSwt,k,2.1355,noRew,,,,,,0,19,0,19,0,1,,,,,,,,,,,,,,,,,
296746,2022-11-23_10h48.30.292,vts_reward_expectancy_bt,2022.2.4,Win32,60.10699044,Chrome,1920,1080,,,,,0,684,,,,,,,,,,,,,,,,,D,160,hexagon,1,0,,,,,,,,,,,,,,,,repeat,number,numRpt,k,0.5788,noRew,,,,,,0,20,0,20,0,1,,,,,,,,,,,,,,,,,
296746,2022-11-23_10h48.30.292,vts_reward_expectancy_bt,2022.2.4,Win32,60.10699044,Chrome,1920,1080,,,,,0,684,,,,,,,,,,,,,,,,,U,125,triangle,1,0,,,,,,,,,,,,,,,,switch,letter,lettSwt,f,0.9025,noRew,,,,,,0,21,0,21,0,1,,,,,,,,,,,,,,,,,
296746,2022-11-23_10h48.30.292,vts_reward_expectancy_bt,2022.2.4,Win32,60.10699044,Chrome,1920,1080,,,,,0,684,,,,,,,,,,,,,,,,,W,167,circle,1,0,,,,,,,,,,,,,,,,switch,number,numSwt,k,1.0129,noRew,,,,,,0,22,0,22,0,1,,,,,,,,,,,,,,,,,
296746,2022-11-23_10h48.30.292,vts_reward_expectancy_bt,2022.2.4,Win32,60.10699044,Chrome,1920,1080,,,,,0,684,,,,,,,,,,,,,,,,,Y,146,triangle,1,0,,,,,,,,,,,,,,,,switch,letter,lettSwt,f,0.896,noRew,,,,,,0,23,0,23,0,1,,,,,,,,,,,,,,,,,
296746,2022-11-23_10h48.30.292,vts_reward_expectancy_bt,2022.2.4,Win32,60.10699044,Chrome,1920,1080,,,,,0,684,,,,,,,,,,,,,,,,,U,167,circle,1,0,,,,,,,,,,,,,,,,repeat,letter,lettRpt,f,0.747,noRew,,,,,,0,24,0,24,0,1,,,,,,,,,,,,,,,,,
296746,2022-11-23_10h48.30.292,vts_reward_expectancy_bt,2022.2.4,Win32,60.10699044,Chrome,1920,1080,,,,,0,684,,,,,,,,,,,,,,,,,H,125,hexagon,1,0,,,,,,,,,,,,,,,,switch,number,numSwt,j,1.1452,noRew,,,,,,0,25,0,25,0,1,,,,,,,,,,,,,,,,,
296746,2022-11-23_10h48.30.292,vts_reward_expectancy_bt,2022.2.4,Win32,60.10699044,Chrome,1920,1080,,,,,0,684,,,,,,,,,,,,,,,,,Y,139,circle,1,0,,,,,,,,,,,,,,,,switch,letter,lettSwt,f,1.0771,noRew,,,,,,0,26,0,26,0,1,,,,,,,,,,,,,,,,,
296746,2022-11-23_10h48.30.292,vts_reward_expectancy_bt,2022.2.4,Win32,60.10699044,Chrome,1920,1080,,,,,0,684,,,,,,,,,,,,,,,,,D,146,star,1,0,,,,,,,,,,,,,,,,switch,number,numSwt,j,1.0108,noRew,,,,,,0,27,0,27,0,1,,,,,,,,,,,,,,,,,
296746,2022-11-23_10h48.30.292,vts_reward_expectancy_bt,2022.2.4,Win32,60.10699044,Chrome,1920,1080,,,,,0,684,,,,,,,,,,,,,,,,,S,146,hexagon,1,0,,,,,,,,,,,,,,,,repeat,number,numRpt,j,1.284,noRew,,,,,,0,28,0,28,0,1,,,,,,,,,,,,,,,,,
296746,2022-11-23_10h48.30.292,vts_reward_expectancy_bt,2022.2.4,Win32,60.10699044,Chrome,1920,1080,,,,,0,684,,,,,,,,,,,,,,,,,H,125,circle,1,0,,,,,,,,,,,,,,,,switch,letter,lettSwt,d,0.9174,noRew,,,,,,0,29,0,29,0,1,,,,,,,,,,,,,,,,,
296746,2022-11-23_10h48.30.292,vts_reward_expectancy_bt,2022.2.4,Win32,60.10699044,Chrome,1920,1080,,,,,0,684,,,,,,,,,,,,,,,,,F,160,hexagon,1,0,,,,,,,,,,,,,,,,repeat,letter,lettRpt,d,1.0133,noRew,,,,,,0,30,0,30,0,1,,,,,,,,,,,,,,,,,
296746,2022-11-23_10h48.30.292,vts_reward_expectancy_bt,2022.2.4,Win32,60.10699044,Chrome,1920,1080,,,,,0,684,,,,,,,,,,,,,,,,,U,139,star,1,0,,,,,,,,,,,,,,,,switch,number,numSwt,j,0.6282,noRew,,,,,,0,31,0,31,0,1,,,,,,,,,,,,,,,,,
296746,2022-11-23_10h48.30.292,vts_reward_expectancy_bt,2022.2.4,Win32,60.10699044,Chrome,1920,1080,,,,,0,684,,,,,,,,,,,,,,,,,S,174,hexagon,1,0,,,,,,,,,,,,,,,,repeat,number,numRpt,k,1.3496,noRew,,,,,,0,32,0,32,0,1,,,,,,,,,,,,,,,,,
296746,2022-11-23_10h48.30.292,vts_reward_expectancy_bt,2022.2.4,Win32,60.10699044,Chrome,1920,1080,,,,,0,684,,,,,,,,,,,,,,,,,H,132,triangle,1,0,,,,,,,,,,,,,,,,switch,letter,lettSwt,d,0.7144,noRew,,,,,,0,33,0,33,0,1,,,,,,,,,,,,,,,,,
296746,2022-11-23_10h48.30.292,vts_reward_expectancy_bt,2022.2.4,Win32,60.10699044,Chrome,1920,1080,,,,,0,684,,,,,,,,,,,,,,,,,D,167,hexagon,1,0,,,,,,,,,,,,,,,,repeat,letter,lettRpt,d,0.6695,noRew,,,,,,0,34,0,34,0,1,,,,,,,,,,,,,,,,,
296746,2022-11-23_10h48.30.292,vts_reward_expectancy_bt,2022.2.4,Win32,60.10699044,Chrome,1920,1080,,,,,0,684,,,,,,,,,,,,,,,,,F,160,triangle,0,0,,,,,,,,,,,,,,,,switch,number,NA,j,1.2659,noRew,,,,,,0,35,0,35,0,1,,,,,,,,,,,,,,,,,
296746,2022-11-23_10h48.30.292,vts_reward_expectancy_bt,2022.2.4,Win32,60.10699044,Chrome,1920,1080,,,,,0,684,,,,,,,,,,,,,,,,,H,139,star,1,1,,,,,,,,,,,,,,,,repeat,number,numRpt,j,0.9187,noRew,,,,,,0,36,0,36,0,1,,,,,,,,,,,,,,,,,
296746,2022-11-23_10h48.30.292,vts_reward_expectancy_bt,2022.2.4,Win32,60.10699044,Chrome,1920,1080,,,,,0,684,,,,,,,,,,,,,,,,,S,181,hexagon,1,0,,,,,,,,,,,,,,,,switch,letter,lettSwt,f,1.0692,noRew,,,,,,0,37,0,37,0,1,,,,,,,,,,,,,,,,,
296746,2022-11-23_10h48.30.292,vts_reward_expectancy_bt,2022.2.4,Win32,60.10699044,Chrome,1920,1080,,,,,0,684,,,,,,,,,,,,,,,,,Y,125,circle,0,0,,,,,,,,,,,,,,,,repeat,letter,NA,d,0.0609,noRew,,,,,,0,38,0,38,0,1,,,,,,,,,,,,,,,,,
296746,2022-11-23_10h48.30.292,vts_reward_expectancy_bt,2022.2.4,Win32,60.10699044,Chrome,1920,1080,,,,,0,684,,,,,,,,,,,,,,,,,B,174,triangle,1,1,,,,,,,,,,,,,,,,repeat,letter,lettRpt,d,1.3315,noRew,,,,,,0,39,0,39,0,1,,,,,,,,,,,,,,,,,
296746,2022-11-23_10h48.30.292,vts_reward_expectancy_bt,2022.2.4,Win32,60.10699044,Chrome,1920,1080,,,,,0,684,,,,,,,,,,,,,,,,,S,181,star,1,0,,,,,,,,,,,,,,,,switch,number,numSwt,k,1.7198,noRew,,,,,,0,40,0,40,0,1,,,,,,,,,,,,,,,,,
296746,2022-11-23_10h48.30.292,vts_reward_expectancy_bt,2022.2.4,Win32,60.10699044,Chrome,1920,1080,,,,,0,684,,,,,,,,,,,,,,,,,Y,132,triangle,1,0,,,,,,,,,,,,,,,,repeat,number,numRpt,j,2.3624,noRew,,,,,,0,41,0,41,0,1,,,,,,,,,,,,,,,,,
296746,2022-11-23_10h48.30.292,vts_reward_expectancy_bt,2022.2.4,Win32,60.10699044,Chrome,1920,1080,,,,,0,684,,,,,,,,,,,,,,,,,W,146,triangle,1,0,,,,,,,,,,,,,,,,switch,letter,lettSwt,f,1.6829,noRew,,,,,,0,42,0,42,0,1,,,,,,,,,,,,,,,,,
296746,2022-11-23_10h48.30.292,vts_reward_expectancy_bt,2022.2.4,Win32,60.10699044,Chrome,1920,1080,,,,,0,684,,,,,,,,,,,,,,,,,U,160,star,1,0,,,,,,,,,,,,,,,,repeat,letter,lettRpt,f,0.6483,noRew,,,,,,0,43,0,43,0,1,,,,,,,,,,,,,,,,,
296746,2022-11-23_10h48.30.292,vts_reward_expectancy_bt,2022.2.4,Win32,60.10699044,Chrome,1920,1080,,,,,0,684,,,,,,,,,,,,,,,,,U,139,hexagon,1,0,,,,,,,,,,,,,,,,switch,number,numSwt,j,0.881,noRew,,,,,,0,44,0,44,0,1,,,,,,,,,,,,,,,,,
296746,2022-11-23_10h48.30.292,vts_reward_expectancy_bt,2022.2.4,Win32,60.10699044,Chrome,1920,1080,,,,,0,684,,,,,,,,,,,,,,,,,Y,125,star,1,0,,,,,,,,,,,,,,,,switch,letter,lettSwt,f,0.7138,noRew,,,,,,0,45,0,45,0,1,,,,,,,,,,,,,,,,,
296746,2022-11-23_10h48.30.292,vts_reward_expectancy_bt,2022.2.4,Win32,60.10699044,Chrome,1920,1080,,,,,0,684,,,,,,,,,,,,,,,,,D,181,circle,1,0,,,,,,,,,,,,,,,,switch,number,numSwt,k,0.8531,noRew,,,,,,0,46,0,46,0,1,,,,,,,,,,,,,,,,,
296746,2022-11-23_10h48.30.292,vts_reward_expectancy_bt,2022.2.4,Win32,60.10699044,Chrome,1920,1080,,,,,0,684,,,,,,,,,,,,,,,,,H,167,hexagon,1,0,,,,,,,,,,,,,,,,switch,letter,lettSwt,d,1.0957,noRew,,,,,,0,47,0,47,0,1,,,,,,,,,,,,,,,,,
296746,2022-11-23_10h48.30.292,vts_reward_expectancy_bt,2022.2.4,Win32,60.10699044,Chrome,1920,1080,,,,,0,684,,,,,,,,,,,,,,,,,W,125,star,1,0,,,,,,,,,,,,,,,,repeat,letter,lettRpt,f,1.5273,noRew,,,,,,0,48,0,48,0,1,,,,,,,,,,,,,,,,,
296746,2022-11-23_10h48.30.292,vts_reward_expectancy_bt,2022.2.4,Win32,60.10699044,Chrome,1920,1080,,,,,0,684,,,,,,,,,,,,,,,,,D,160,circle,1,0,,,,,,,,,,,,,,,,switch,number,numSwt,k,1.237,noRew,,,,,,0,49,0,49,0,1,,,,,,,,,,,,,,,,,
296746,2022-11-23_10h48.30.292,vts_reward_expectancy_bt,2022.2.4,Win32,60.10699044,Chrome,1920,1080,,,,,0,684,,,,,,,,,,,,,,,,,B,132,star,1,0,,,,,,,,,,,,,,,,switch,letter,lettSwt,d,0.948,noRew,,,,,,0,50,0,50,0,1,,,,,,,,,,,,,,,,,
296746,2022-11-23_10h48.30.292,vts_reward_expectancy_bt,2022.2.4,Win32,60.10699044,Chrome,1920,1080,,,,,0,684,,,,,,,,,,,,,,,,,H,146,hexagon,1,0,,,,,,,,,,,,,,,,repeat,letter,lettRpt,d,1.4609,noRew,,,,,,0,51,0,51,0,1,,,,,,,,,,,,,,,,,
296746,2022-11-23_10h48.30.292,vts_reward_expectancy_bt,2022.2.4,Win32,60.10699044,Chrome,1920,1080,,,,,0,684,,,,,,,,,,,,,,,,,F,167,star,1,0,,,,,,,,,,,,,,,,repeat,letter,lettRpt,d,0.8605,noRew,,,,,,0,52,0,52,0,1,,,,,,,,,,,,,,,,,
296746,2022-11-23_10h48.30.292,vts_reward_expectancy_bt,2022.2.4,Win32,60.10699044,Chrome,1920,1080,,,,,0,684,,,,,,,,,,,,,,,,,U,174,hexagon,1,0,,,,,,,,,,,,,,,,repeat,letter,lettRpt,f,1.5033,noRew,,,,,,0,53,0,53,0,1,,,,,,,,,,,,,,,,,
296746,2022-11-23_10h48.30.292,vts_reward_expectancy_bt,2022.2.4,Win32,60.10699044,Chrome,1920,1080,,,,,0,684,,,,,,,,,,,,,,,,,B,146,circle,1,0,,,,,,,,,,,,,,,,repeat,letter,lettRpt,d,0.9532,noRew,,,,,,0,54,0,54,0,1,,,,,,,,,,,,,,,,,
296746,2022-11-23_10h48.30.292,vts_reward_expectancy_bt,2022.2.4,Win32,60.10699044,Chrome,1920,1080,,,,,0,684,,,,,,,,,,,,,,,,,Y,132,triangle,1,0,,,,,,,,,,,,,,,,repeat,letter,lettRpt,f,1.3534,noRew,,,,,,0,55,0,55,0,1,,,,,,,,,,,,,,,,,
296746,2022-11-23_10h48.30.292,vts_reward_expectancy_bt,2022.2.4,Win32,60.10699044,Chrome,1920,1080,,,,,0,684,,,,,,,,,,,,,,,,,W,146,triangle,1,0,,,,,,,,,,,,,,,,repeat,letter,lettRpt,f,1.3105,noRew,,,,,,0,56,0,56,0,1,,,,,,,,,,,,,,,,,
296746,2022-11-23_10h48.30.292,vts_reward_expectancy_bt,2022.2.4,Win32,60.10699044,Chrome,1920,1080,,,,,0,684,,,,,,,,,,,,,,,,,B,181,hexagon,1,0,,,,,,,,,,,,,,,,repeat,letter,lettRpt,d,1.344,noRew,,,,,,0,57,0,57,0,1,,,,,,,,,,,,,,,,,
296746,2022-11-23_10h48.30.292,vts_reward_expectancy_bt,2022.2.4,Win32,60.10699044,Chrome,1920,1080,,,,,0,684,,,,,,,,,,,,,,,,,F,139,hexagon,1,0,,,,,,,,,,,,,,,,switch,number,numSwt,j,1.5437,noRew,,,,,,0,58,0,58,0,1,,,,,,,,,,,,,,,,,
296746,2022-11-23_10h48.30.292,vts_reward_expectancy_bt,2022.2.4,Win32,60.10699044,Chrome,1920,1080,,,,,0,684,,,,,,,,,,,,,,,,,Y,125,star,1,0,,,,,,,,,,,,,,,,switch,letter,lettSwt,f,1.467,noRew,,,,,,0,59,0,59,0,1,,,,,,,,,,,,,,,,,
296746,2022-11-23_10h48.30.292,vts_reward_expectancy_bt,2022.2.4,Win32,60.10699044,Chrome,1920,1080,,,,,0,684,,,,,,,,,,,,,,,,,U,181,star,1,0,,,,,,,,,,,,,,,,repeat,letter,lettRpt,f,1.4287,noRew,,,,,,0,60,0,60,0,1,,,,,,,,,,,,,,,,,
296746,2022-11-23_10h48.30.292,vts_reward_expectancy_bt,2022.2.4,Win32,60.10699044,Chrome,1920,1080,,,,,0,684,,,,,,,,,,,,,,,,,D,132,hexagon,1,0,,,,,,,,,,,,,,,,switch,number,numSwt,j,1.0795,noRew,,,,,,0,61,0,61,0,1,,,,,,,,,,,,,,,,,
296746,2022-11-23_10h48.30.292,vts_reward_expectancy_bt,2022.2.4,Win32,60.10699044,Chrome,1920,1080,,,,,0,684,,,,,,,,,,,,,,,,,Y,146,hexagon,1,0,,,,,,,,,,,,,,,,repeat,number,numRpt,j,1.0684,noRew,,,,,,0,62,0,62,0,1,,,,,,,,,,,,,,,,,
296746,2022-11-23_10h48.30.292,vts_reward_expectancy_bt,2022.2.4,Win32,60.10699044,Chrome,1920,1080,,,,,0,684,,,,,,,,,,,,,,,,,B,174,circle,1,0,,,,,,,,,,,,,,,,switch,letter,lettSwt,d,0.6338,noRew,,,,,,0,63,0,63,0,1,,,,,,,,,,,,,,,,,
296746,2022-11-23_10h48.30.292,vts_reward_expectancy_bt,2022.2.4,Win32,60.10699044,Chrome,1920,1080,,,,,,,,,,,,,,,,,,,,,,,,,,,,,,,,,,,,,,,,,,,,,,,,,,,,,,,,,,,,,,,,,,,,,,,,,,,,
296746,2022-11-23_10h48.30.292,vts_reward_expectancy_bt,2022.2.4,Win32,60.10699044,Chrome,1920,1080,,,,,1,685,,,,,,,,,,,,,,,,,S,132,triangle,1,0,,,,,,,,,,,,,,,,repeat,letter,lettRpt,f,0.7679,Hi,,,,,,0,,,,,,space,7.4486,low,0,0,0,0,1,,,,,,,,,
296746,2022-11-23_10h48.30.292,vts_reward_expectancy_bt,2022.2.4,Win32,60.10699044,Chrome,1920,1080,,,,,1,686,,,,,,,,,,,,,,,,,B,181,hexagon,1,0,,,,,,,,,,,,,,,,repeat,letter,lettRpt,d,0.4059,Lo,,,,,,0,,,,,,,,low,1,0,1,0,1,,,,,,,,,
296746,2022-11-23_10h48.30.292,vts_reward_expectancy_bt,2022.2.4,Win32,60.10699044,Chrome,1920,1080,,,,,1,687,,,,,,,,,,,,,,,,,D,174,star,1,0,,,,,,,,,,,,,,,,repeat,letter,lettRpt,d,0.484,Lo,,,,,,0,,,,,,,,low,2,0,2,0,1,,,,,,,,,
296746,2022-11-23_10h48.30.292,vts_reward_expectancy_bt,2022.2.4,Win32,60.10699044,Chrome,1920,1080,,,,,10,697,,,,,,,,,,,,,,,,,U,167,circle,1,0,,,,,,,,,,,,,,,,repeat,letter,lettRpt,f,0.6182,Hi,,,,,,0,,,,,,,,low,3,0,3,0,1,,,,,,,,,
296746,2022-11-23_10h48.30.292,vts_reward_expectancy_bt,2022.2.4,Win32,60.10699044,Chrome,1920,1080,,,,,1,698,,,,,,,,,,,,,,,,,H,160,triangle,1,0,,,,,,,,,,,,,,,,repeat,letter,lettRpt,d,0.831,Hi,,,,,,0,,,,,,,,low,4,0,4,0,1,,,,,,,,,
296746,2022-11-23_10h48.30.292,vts_reward_expectancy_bt,2022.2.4,Win32,60.10699044,Chrome,1920,1080,,,,,1,699,,,,,,,,,,,,,,,,,Y,146,hexagon,1,0,,,,,,,,,,,,,,,,repeat,letter,lettRpt,f,0.6422,Lo,,,,,,0,,,,,,,,low,5,0,5,0,1,,,,,,,,,
296746,2022-11-23_10h48.30.292,vts_reward_expectancy_bt,2022.2.4,Win32,60.10699044,Chrome,1920,1080,,,,,10,709,,,,,,,,,,,,,,,,,W,139,star,1,0,,,,,,,,,,,,,,,,repeat,letter,lettRpt,f,0.7339,Lo,,,,,,0,,,,,,,,low,6,0,6,0,1,,,,,,,,,
296746,2022-11-23_10h48.30.292,vts_reward_expectancy_bt,2022.2.4,Win32,60.10699044,Chrome,1920,1080,,,,,1,710,,,,,,,,,,,,,,,,,F,125,circle,1,0,,,,,,,,,,,,,,,,repeat,letter,lettRpt,d,0.6671,Hi,,,,,,0,,,,,,,,low,7,0,7,0,1,,,,,,,,,
296746,2022-11-23_10h48.30.292,vts_reward_expectancy_bt,2022.2.4,Win32,60.10699044,Chrome,1920,1080,,,,,0,710,,,,,,,,,,,,,,,,,S,132,circle,1,0,,,,,,,,,,,,,,,,repeat,letter,lettRpt,f,1.1077,Hi,,,,,,0,,,,,,,,low,8,0,8,0,1,,,,,,,,,
296746,2022-11-23_10h48.30.292,vts_reward_expectancy_bt,2022.2.4,Win32,60.10699044,Chrome,1920,1080,,,,,10,720,,,,,,,,,,,,,,,,,B,181,triangle,1,0,,,,,,,,,,,,,,,,repeat,letter,lettRpt,d,0.6136,Hi,,,,,,0,,,,,,,,low,9,0,9,0,1,,,,,,,,,
296746,2022-11-23_10h48.30.292,vts_reward_expectancy_bt,2022.2.4,Win32,60.10699044,Chrome,1920,1080,,,,,1,721,,,,,,,,,,,,,,,,,D,174,hexagon,1,0,,,,,,,,,,,,,,,,repeat,letter,lettRpt,d,0.5875,Lo,,,,,,0,,,,,,,,low,10,0,10,0,1,,,,,,,,,
296746,2022-11-23_10h48.30.292,vts_reward_expectancy_bt,2022.2.4,Win32,60.10699044,Chrome,1920,1080,,,,,1,722,,,,,,,,,,,,,,,,,U,167,star,1,0,,,,,,,,,,,,,,,,repeat,letter,lettRpt,f,0.8623,Lo,,,,,,0,,,,,,,,low,11,0,11,0,1,,,,,,,,,
296746,2022-11-23_10h48.30.292,vts_reward_expectancy_bt,2022.2.4,Win32,60.10699044,Chrome,1920,1080,,,,,1,723,,,,,,,,,,,,,,,,,H,160,circle,1,0,,,,,,,,,,,,,,,,switch,number,numSwt,k,0.9945,Hi,,,,,,0,,,,,,,,low,12,0,12,0,1,,,,,,,,,
296746,2022-11-23_10h48.30.292,vts_reward_expectancy_bt,2022.2.4,Win32,60.10699044,Chrome,1920,1080,,,,,0,723,,,,,,,,,,,,,,,,,Y,146,triangle,1,0,,,,,,,,,,,,,,,,repeat,number,numRpt,j,1.4657,Hi,,,,,,0,,,,,,,,low,13,0,13,0,1,,,,,,,,,
296746,2022-11-23_10h48.30.292,vts_reward_expectancy_bt,2022.2.4,Win32,60.10699044,Chrome,1920,1080,,,,,1,724,,,,,,,,,,,,,,,,,W,139,hexagon,1,0,,,,,,,,,,,,,,,,repeat,number,numRpt,j,0.3675,Lo,,,,,,0,,,,,,,,low,14,0,14,0,1,,,,,,,,,
296746,2022-11-23_10h48.30.292,vts_reward_expectancy_bt,2022.2.4,Win32,60.10699044,Chrome,1920,1080,,,,,10,734,,,,,,,,,,,,,,,,,F,125,star,1,0,,,,,,,,,,,,,,,,switch,letter,lettSwt,d,0.8173,Lo,,,,,,0,,,,,,,,low,15,0,15,0,1,,,,,,,,,
296746,2022-11-23_10h48.30.292,vts_reward_expectancy_bt,2022.2.4,Win32,60.10699044,Chrome,1920,1080,,,,,0,734,,,,,,,,,,,,,,,,,W,167,triangle,1,0,,,,,,,,,,,,,,,,switch,number,numSwt,k,1.1191,Hi,,,,,,0,,,,,,,,low,16,0,16,0,1,,,,,,,,,
296746,2022-11-23_10h48.30.292,vts_reward_expectancy_bt,2022.2.4,Win32,60.10699044,Chrome,1920,1080,,,,,1,735,,,,,,,,,,,,,,,,,F,181,hexagon,1,0,,,,,,,,,,,,,,,,repeat,number,numRpt,k,0.4953,Lo,,,,,,0,,,,,,,,low,17,0,17,0,1,,,,,,,,,
296746,2022-11-23_10h48.30.292,vts_reward_expectancy_bt,2022.2.4,Win32,60.10699044,Chrome,1920,1080,,,,,10,745,,,,,,,,,,,,,,,,,Y,160,star,1,0,,,,,,,,,,,,,,,,switch,letter,lettSwt,f,0.6032,Lo,,,,,,0,,,,,,,,low,18,0,18,0,1,,,,,,,,,
296746,2022-11-23_10h48.30.292,vts_reward_expectancy_bt,2022.2.4,Win32,60.10699044,Chrome,1920,1080,,,,,10,755,,,,,,,,,,,,,,,,,B,132,circle,1,0,,,,,,,,,,,,,,,,repeat,letter,lettRpt,d,0.6208,Hi,,,,,,0,,,,,,,,low,19,0,19,0,1,,,,,,,,,
296746,2022-11-23_10h48.30.292,vts_reward_expectancy_bt,2022.2.4,Win32,60.10699044,Chrome,1920,1080,,,,,1,756,,,,,,,,,,,,,,,,,S,139,hexagon,1,0,,,,,,,,,,,,,,,,repeat,letter,lettRpt,f,0.7106,Lo,,,,,,0,,,,,,,,low,20,0,20,0,1,,,,,,,,,
296746,2022-11-23_10h48.30.292,vts_reward_expectancy_bt,2022.2.4,Win32,60.10699044,Chrome,1920,1080,,,,,0,756,,,,,,,,,,,,,,,,,U,146,circle,1,0,,,,,,,,,,,,,,,,repeat,letter,lettRpt,f,1.128,Hi,,,,,,0,,,,,,,,low,21,0,21,0,1,,,,,,,,,
296746,2022-11-23_10h48.30.292,vts_reward_expectancy_bt,2022.2.4,Win32,60.10699044,Chrome,1920,1080,,,,,0,756,,,,,,,,,,,,,,,,,D,125,triangle,0,0,,,,,,,,,,,,,,,,repeat,letter,NA,f,0.2675,Hi,,,,,,0,,,,,,,,low,22,0,22,0,1,,,,,,,,,
296746,2022-11-23_10h48.30.292,vts_reward_expectancy_bt,2022.2.4,Win32,60.10699044,Chrome,1920,1080,,,,,0,756,,,,,,,,,,,,,,,,,H,174,star,0,1,,,,,,,,,,,,,,,,repeat,letter,NA,f,0.3844,Hi,,,,,,0,,,,,,,,low,23,0,23,0,1,,,,,,,,,
296746,2022-11-23_10h48.30.292,vts_reward_expectancy_bt,2022.2.4,Win32,60.10699044,Chrome,1920,1080,,,,,1,757,,,,,,,,,,,,,,,,,U,146,hexagon,1,1,,,,,,,,,,,,,,,,repeat,letter,lettRpt,f,0.4753,Lo,,,,,,0,,,,,,,,low,24,0,24,0,1,,,,,,,,,
296746,2022-11-23_10h48.30.292,vts_reward_expectancy_bt,2022.2.4,Win32,60.10699044,Chrome,1920,1080,,,,,1,758,,,,,,,,,,,,,,,,,Y,125,circle,1,0,,,,,,,,,,,,,,,,repeat,letter,lettRpt,f,0.6168,Hi,,,,,,0,,,,,,,,low,25,0,25,0,1,,,,,,,,,
296746,2022-11-23_10h48.30.292,vts_reward_expectancy_bt,2022.2.4,Win32,60.10699044,Chrome,1920,1080,,,,,0,758,,,,,,,,,,,,,,,,,B,132,triangle,1,0,,,,,,,,,,,,,,,,repeat,letter,lettRpt,d,1.0672,Hi,,,,,,0,,,,,,,,low,26,0,26,0,1,,,,,,,,,
296746,2022-11-23_10h48.30.292,vts_reward_expectancy_bt,2022.2.4,Win32,60.10699044,Chrome,1920,1080,,,,,0,758,,,,,,,,,,,,,,,,,S,139,star,0,0,,,,,,,,,,,,,,,,repeat,letter,NA,d,0.2355,Hi,,,,,,0,,,,,,,,low,27,0,27,0,1,,,,,,,,,
296746,2022-11-23_10h48.30.292,vts_reward_expectancy_bt,2022.2.4,Win32,60.10699044,Chrome,1920,1080,,,,,10,768,,,,,,,,,,,,,,,,,W,167,triangle,1,1,,,,,,,,,,,,,,,,repeat,letter,lettRpt,f,0.6704,Hi,,,,,,0,,,,,,,,low,28,0,28,0,1,,,,,,,,,
296746,2022-11-23_10h48.30.292,vts_reward_expectancy_bt,2022.2.4,Win32,60.10699044,Chrome,1920,1080,,,,,0,768,,,,,,,,,,,,,,,,,F,181,star,0,0,,,,,,,,,,,,,,,,repeat,letter,NA,f,0.141,Hi,,,,,,0,,,,,,,,low,29,0,29,0,1,,,,,,,,,
296746,2022-11-23_10h48.30.292,vts_reward_expectancy_bt,2022.2.4,Win32,60.10699044,Chrome,1920,1080,,,,,1,769,,,,,,,,,,,,,,,,,H,174,hexagon,1,1,,,,,,,,,,,,,,,,switch,number,numSwt,k,0.4839,Lo,,,,,,0,,,,,,,,low,30,0,30,0,1,,,,,,,,,
296746,2022-11-23_10h48.30.292,vts_reward_expectancy_bt,2022.2.4,Win32,60.10699044,Chrome,1920,1080,,,,,10,779,,,,,,,,,,,,,,,,,D,160,circle,1,0,,,,,,,,,,,,,,,,repeat,number,numRpt,k,0.5417,Hi,,,,,,0,,,,,,,,low,31,0,31,0,1,,,,,,,,,
296746,2022-11-23_10h48.30.292,vts_reward_expectancy_bt,2022.2.4,Win32,60.10699044,Chrome,1920,1080,,,,,0,779,,,,,,,,,,,,,,,,,D,167,circle,1,0,,,,,,,,,,,,,,,,repeat,number,numRpt,k,0.754,Hi,,,,,,1,,,,,,space,0.3074,low,0,0,0,0,1,,,,,,,,,
296746,2022-11-23_10h48.30.292,vts_reward_expectancy_bt,2022.2.4,Win32,60.10699044,Chrome,1920,1080,,,,,0,779,,,,,,,,,,,,,,,,,W,146,triangle,0,0,,,,,,,,,,,,,,,,repeat,number,NA,k,0.1386,Hi,,,,,,1,,,,,,,,low,1,0,1,0,1,,,,,,,,,
296746,2022-11-23_10h48.30.292,vts_reward_expectancy_bt,2022.2.4,Win32,60.10699044,Chrome,1920,1080,,,,,1,780,,,,,,,,,,,,,,,,,U,132,star,1,1,,,,,,,,,,,,,,,,repeat,number,numRpt,j,0.356,Lo,,,,,,1,,,,,,,,low,2,0,2,0,1,,,,,,,,,
296746,2022-11-23_10h48.30.292,vts_reward_expectancy_bt,2022.2.4,Win32,60.10699044,Chrome,1920,1080,,,,,10,790,,,,,,,,,,,,,,,,,Y,139,hexagon,1,0,,,,,,,,,,,,,,,,repeat,number,numRpt,j,0.4844,Lo,,,,,,1,,,,,,,,low,3,0,3,0,1,,,,,,,,,
296746,2022-11-23_10h48.30.292,vts_reward_expectancy_bt,2022.2.4,Win32,60.10699044,Chrome,1920,1080,,,,,0,790,,,,,,,,,,,,,,,,,F,181,circle,1,0,,,,,,,,,,,,,,,,repeat,number,numRpt,k,0.5025,Hi,,,,,,1,,,,,,,,low,4,0,4,0,1,,,,,,,,,
296746,2022-11-23_10h48.30.292,vts_reward_expectancy_bt,2022.2.4,Win32,60.10699044,Chrome,1920,1080,,,,,10,800,,,,,,,,,,,,,,,,,H,160,triangle,1,0,,,,,,,,,,,,,,,,repeat,number,numRpt,k,0.2168,Hi,,,,,,1,,,,,,,,low,5,0,5,0,1,,,,,,,,,
296746,2022-11-23_10h48.30.292,vts_reward_expectancy_bt,2022.2.4,Win32,60.10699044,Chrome,1920,1080,,,,,1,801,,,,,,,,,,,,,,,,,S,125,star,1,0,,,,,,,,,,,,,,,,repeat,number,numRpt,j,0.0949,Lo,,,,,,1,,,,,,,,low,6,0,6,0,1,,,,,,,,,
296746,2022-11-23_10h48.30.292,vts_reward_expectancy_bt,2022.2.4,Win32,60.10699044,Chrome,1920,1080,,,,,10,811,,,,,,,,,,,,,,,,,B,174,hexagon,1,0,,,,,,,,,,,,,,,,repeat,number,numRpt,k,0.2642,Lo,,,,,,1,,,,,,,,low,7,0,7,0,1,,,,,,,,,
296746,2022-11-23_10h48.30.292,vts_reward_expectancy_bt,2022.2.4,Win32,60.10699044,Chrome,1920,1080,,,,,0,811,,,,,,,,,,,,,,,,,D,167,hexagon,0,0,,,,,,,,,,,,,,,,repeat,number,NA,j,0.5947,Lo,,,,,,1,,,,,,,,low,8,0,8,0,1,,,,,,,,,
296746,2022-11-23_10h48.30.292,vts_reward_expectancy_bt,2022.2.4,Win32,60.10699044,Chrome,1920,1080,,,,,0,811,,,,,,,,,,,,,,,,,W,146,star,0,1,,,,,,,,,,,,,,,,repeat,number,NA,k,0.3283,Lo,,,,,,1,,,,,,,,low,9,0,9,0,1,,,,,,,,,
296746,2022-11-23_10h48.30.292,vts_reward_expectancy_bt,2022.2.4,Win32,60.10699044,Chrome,1920,1080,,,,,0,811,,,,,,,,,,,,,,,,,U,132,circle,1,1,,,,,,,,,,,,,,,,repeat,number,numRpt,j,0.5283,Hi,,,,,,1,,,,,,,,low,10,0,10,0,1,,,,,,,,,
296746,2022-11-23_10h48.30.292,vts_reward_expectancy_bt,2022.2.4,Win32,60.10699044,Chrome,1920,1080,,,,,1,812,,,,,,,,,,,,,,,,,Y,139,triangle,1,0,,,,,,,,,,,,,,,,repeat,number,numRpt,j,0.1944,Hi,,,,,,1,,,,,,,,low,11,0,11,0,1,,,,,,,,,
296746,2022-11-23_10h48.30.292,vts_reward_expectancy_bt,2022.2.4,Win32,60.10699044,Chrome,1920,1080,,,,,1,813,,,,,,,,,,,,,,,,,F,181,hexagon,1,0,,,,,,,,,,,,,,,,repeat,number,numRpt,k,0.2041,Lo,,,,,,1,,,,,,,,low,12,0,12,0,1,,,,,,,,,
296746,2022-11-23_10h48.30.292,vts_reward_expectancy_bt,2022.2.4,Win32,60.10699044,Chrome,1920,1080,,,,,10,823,,,,,,,,,,,,,,,,,H,160,triangle,1,0,,,,,,,,,,,,,,,,repeat,number,numRpt,k,0.1947,Hi,,,,,,1,,,,,,,,low,13,0,13,0,1,,,,,,,,,
296746,2022-11-23_10h48.30.292,vts_reward_expectancy_bt,2022.2.4,Win32,60.10699044,Chrome,1920,1080,,,,,0,823,,,,,,,,,,,,,,,,,S,125,star,0,0,,,,,,,,,,,,,,,,repeat,number,NA,k,0.2505,Hi,,,,,,1,,,,,,,,low,14,0,14,0,1,,,,,,,,,
296746,2022-11-23_10h48.30.292,vts_reward_expectancy_bt,2022.2.4,Win32,60.10699044,Chrome,1920,1080,,,,,0,823,,,,,,,,,,,,,,,,,B,174,circle,1,1,,,,,,,,,,,,,,,,repeat,number,numRpt,k,0.7038,Hi,,,,,,1,,,,,,,,low,15,0,15,0,1,,,,,,,,,
296746,2022-11-23_10h48.30.292,vts_reward_expectancy_bt,2022.2.4,Win32,60.10699044,Chrome,1920,1080,,,,,0,823,,,,,,,,,,,,,,,,,Y,139,hexagon,0,0,,,,,,,,,,,,,,,,repeat,number,NA,k,0.2818,Hi,,,,,,1,,,,,,,,low,16,0,16,0,1,,,,,,,,,
296746,2022-11-23_10h48.30.292,vts_reward_expectancy_bt,2022.2.4,Win32,60.10699044,Chrome,1920,1080,,,,,0,823,,,,,,,,,,,,,,,,,B,181,star,0,1,,,,,,,,,,,,,,,,repeat,number,NA,j,0.1976,Hi,,,,,,1,,,,,,,,low,17,0,17,0,1,,,,,,,,,
296746,2022-11-23_10h48.30.292,vts_reward_expectancy_bt,2022.2.4,Win32,60.10699044,Chrome,1920,1080,,,,,0,823,,,,,,,,,,,,,,,,,S,167,triangle,1,1,,,,,,,,,,,,,,,,repeat,number,numRpt,k,0.5969,Hi,,,,,,1,,,,,,,,low,18,0,18,0,1,,,,,,,,,
296746,2022-11-23_10h48.30.292,vts_reward_expectancy_bt,2022.2.4,Win32,60.10699044,Chrome,1920,1080,,,,,0,823,,,,,,,,,,,,,,,,,H,160,circle,0,0,,,,,,,,,,,,,,,,repeat,number,NA,j,0.3457,Hi,,,,,,1,,,,,,,,low,19,0,19,0,1,,,,,,,,,
296746,2022-11-23_10h48.30.292,vts_reward_expectancy_bt,2022.2.4,Win32,60.10699044,Chrome,1920,1080,,,,,0,823,,,,,,,,,,,,,,,,,F,174,triangle,0,1,,,,,,,,,,,,,,,,repeat,number,NA,j,0.1441,Hi,,,,,,1,,,,,,,,low,20,0,20,0,1,,,,,,,,,
296746,2022-11-23_10h48.30.292,vts_reward_expectancy_bt,2022.2.4,Win32,60.10699044,Chrome,1920,1080,,,,,0,823,,,,,,,,,,,,,,,,,U,146,circle,0,1,,,,,,,,,,,,,,,,repeat,number,NA,k,0.2679,Hi,,,,,,1,,,,,,,,low,21,0,21,0,1,,,,,,,,,
296746,2022-11-23_10h48.30.292,vts_reward_expectancy_bt,2022.2.4,Win32,60.10699044,Chrome,1920,1080,,,,,1,824,,,,,,,,,,,,,,,,,D,125,star,1,1,,,,,,,,,,,,,,,,repeat,number,numRpt,j,0.1037,Lo,,,,,,1,,,,,,,,low,22,0,22,0,1,,,,,,,,,
296746,2022-11-23_10h48.30.292,vts_reward_expectancy_bt,2022.2.4,Win32,60.10699044,Chrome,1920,1080,,,,,10,834,,,,,,,,,,,,,,,,,W,132,hexagon,1,0,,,,,,,,,,,,,,,,repeat,number,numRpt,j,0.0782,Lo,,,,,,1,,,,,,,,low,23,0,23,0,1,,,,,,,,,
296746,2022-11-23_10h48.30.292,vts_reward_expectancy_bt,2022.2.4,Win32,60.10699044,Chrome,1920,1080,,,,,0,834,,,,,,,,,,,,,,,,,B,181,hexagon,0,0,,,,,,,,,,,,,,,,repeat,number,NA,j,0.3111,Lo,,,,,,1,,,,,,,,low,24,0,24,0,1,,,,,,,,,
296746,2022-11-23_10h48.30.292,vts_reward_expectancy_bt,2022.2.4,Win32,60.10699044,Chrome,1920,1080,,,,,10,844,,,,,,,,,,,,,,,,,S,146,triangle,1,1,,,,,,,,,,,,,,,,repeat,number,numRpt,j,0.2777,Hi,,,,,,1,,,,,,,,low,25,0,25,0,1,,,,,,,,,
296746,2022-11-23_10h48.30.292,vts_reward_expectancy_bt,2022.2.4,Win32,60.10699044,Chrome,1920,1080,,,,,0,844,,,,,,,,,,,,,,,,,D,132,circle,0,0,,,,,,,,,,,,,,,,repeat,number,NA,k,0.0135,Hi,,,,,,1,,,,,,,,low,26,0,26,0,1,,,,,,,,,
296746,2022-11-23_10h48.30.292,vts_reward_expectancy_bt,2022.2.4,Win32,60.10699044,Chrome,1920,1080,,,,,1,845,,,,,,,,,,,,,,,,,W,167,star,1,1,,,,,,,,,,,,,,,,repeat,number,numRpt,k,0.4661,Lo,,,,,,1,,,,,,,,low,27,0,27,0,1,,,,,,,,,
296746,2022-11-23_10h48.30.292,vts_reward_expectancy_bt,2022.2.4,Win32,60.10699044,Chrome,1920,1080,,,,,10,855,,,,,,,,,,,,,,,,,U,139,star,1,0,,,,,,,,,,,,,,,,repeat,number,numRpt,j,0.1785,Lo,,,,,,1,,,,,,,,low,28,0,28,0,1,,,,,,,,,
296746,2022-11-23_10h48.30.292,vts_reward_expectancy_bt,2022.2.4,Win32,60.10699044,Chrome,1920,1080,,,,,10,865,,,,,,,,,,,,,,,,,Y,125,circle,1,0,,,,,,,,,,,,,,,,repeat,number,numRpt,j,0.4674,Hi,,,,,,1,,,,,,,,low,29,0,29,0,1,,,,,,,,,
296746,2022-11-23_10h48.30.292,vts_reward_expectancy_bt,2022.2.4,Win32,60.10699044,Chrome,1920,1080,,,,,0,865,,,,,,,,,,,,,,,,,F,174,hexagon,0,0,,,,,,,,,,,,,,,,repeat,number,NA,j,0.3377,Hi,,,,,,1,,,,,,,,low,30,0,30,0,1,,,,,,,,,
296746,2022-11-23_10h48.30.292,vts_reward_expectancy_bt,2022.2.4,Win32,60.10699044,Chrome,1920,1080,,,,,0,865,,,,,,,,,,,,,,,,,H,160,triangle,1,1,,,,,,,,,,,,,,,,repeat,number,numRpt,k,0.534,Hi,,,,,,1,,,,,,,,low,31,0,31,0,1,,,,,,,,,
296746,2022-11-23_10h48.30.292,vts_reward_expectancy_bt,2022.2.4,Win32,60.10699044,Chrome,1920,1080,,,,,0,865,,,,,,,,,,,,,,,,,H,174,hexagon,0,0,,,,,,,,,,,,,,,,repeat,number,NA,j,0.4412,Hi,,,,,,2,,,,,,space,5.2984,low,0,0,0,0,1,,,,,,,,,
296746,2022-11-23_10h48.30.292,vts_reward_expectancy_bt,2022.2.4,Win32,60.10699044,Chrome,1920,1080,,,,,0,865,,,,,,,,,,,,,,,,,D,132,circle,0,1,,,,,,,,,,,,,,,,repeat,number,NA,k,0.001,Hi,,,,,,2,,,,,,,,low,1,0,1,0,1,,,,,,,,,
296746,2022-11-23_10h48.30.292,vts_reward_expectancy_bt,2022.2.4,Win32,60.10699044,Chrome,1920,1080,,,,,0,865,,,,,,,,,,,,,,,,,B,125,star,0,1,,,,,,,,,,,,,,,,repeat,number,NA,k,0.1054,Hi,,,,,,2,,,,,,,,low,2,0,2,0,1,,,,,,,,,
296746,2022-11-23_10h48.30.292,vts_reward_expectancy_bt,2022.2.4,Win32,60.10699044,Chrome,1920,1080,,,,,10,875,,,,,,,,,,,,,,,,,W,146,triangle,1,1,,,,,,,,,,,,,,,,repeat,number,numRpt,j,0.1269,Hi,,,,,,2,,,,,,,,low,3,0,3,0,1,,,,,,,,,
296746,2022-11-23_10h48.30.292,vts_reward_expectancy_bt,2022.2.4,Win32,60.10699044,Chrome,1920,1080,,,,,0,875,,,,,,,,,,,,,,,,,S,181,hexagon,0,0,,,,,,,,,,,,,,,,repeat,number,NA,j,0.2175,Hi,,,,,,2,,,,,,,,low,4,0,4,0,1,,,,,,,,,
296746,2022-11-23_10h48.30.292,vts_reward_expectancy_bt,2022.2.4,Win32,60.10699044,Chrome,1920,1080,,,,,0,875,,,,,,,,,,,,,,,,,F,160,circle,1,1,,,,,,,,,,,,,,,,repeat,number,numRpt,k,0.5606,Hi,,,,,,2,,,,,,,,low,5,0,5,0,1,,,,,,,,,
296746,2022-11-23_10h48.30.292,vts_reward_expectancy_bt,2022.2.4,Win32,60.10699044,Chrome,1920,1080,,,,,0,875,,,,,,,,,,,,,,,,,U,167,star,0,0,,,,,,,,,,,,,,,,repeat,number,NA,j,0.2388,Hi,,,,,,2,,,,,,,,low,6,0,6,0,1,,,,,,,,,
296746,2022-11-23_10h48.30.292,vts_reward_expectancy_bt,2022.2.4,Win32,60.10699044,Chrome,1920,1080,,,,,0,875,,,,,,,,,,,,,,,,,Y,139,triangle,0,1,,,,,,,,,,,,,,,,repeat,number,NA,k,0.001,Hi,,,,,,2,,,,,,,,low,7,0,7,0,1,,,,,,,,,
296746,2022-11-23_10h48.30.292,vts_reward_expectancy_bt,2022.2.4,Win32,60.10699044,Chrome,1920,1080,,,,,0,875,,,,,,,,,,,,,,,,,H,174,star,0,1,,,,,,,,,,,,,,,,repeat,number,NA,j,0.1144,Hi,,,,,,2,,,,,,,,low,8,0,8,0,1,,,,,,,,,
296746,2022-11-23_10h48.30.292,vts_reward_expectancy_bt,2022.2.4,Win32,60.10699044,Chrome,1920,1080,,,,,0,875,,,,,,,,,,,,,,,,,D,132,hexagon,0,1,,,,,,,,,,,,,,,,repeat,number,NA,k,0.0683,Hi,,,,,,2,,,,,,,,low,9,0,9,0,1,,,,,,,,,
296746,2022-11-23_10h48.30.292,vts_reward_expectancy_bt,2022.2.4,Win32,60.10699044,Chrome,1920,1080,,,,,1,876,,,,,,,,,,,,,,,,,B,125,circle,1,1,,,,,,,,,,,,,,,,repeat,number,numRpt,j,0.0396,Hi,,,,,,2,,,,,,,,low,10,0,10,0,1,,,,,,,,,
296746,2022-11-23_10h48.30.292,vts_reward_expectancy_bt,2022.2.4,Win32,60.10699044,Chrome,1920,1080,,,,,10,886,,,,,,,,,,,,,,,,,W,146,triangle,1,0,,,,,,,,,,,,,,,,repeat,number,numRpt,j,0.0077,Hi,,,,,,2,,,,,,,,low,11,0,11,0,1,,,,,,,,,
296746,2022-11-23_10h48.30.292,vts_reward_expectancy_bt,2022.2.4,Win32,60.10699044,Chrome,1920,1080,,,,,0,886,,,,,,,,,,,,,,,,,S,181,triangle,1,0,,,,,,,,,,,,,,,,repeat,number,numRpt,k,0.2548,Hi,,,,,,2,,,,,,,,low,12,0,12,0,1,,,,,,,,,
296746,2022-11-23_10h48.30.292,vts_reward_expectancy_bt,2022.2.4,Win32,60.10699044,Chrome,1920,1080,,,,,0,886,,,,,,,,,,,,,,,,,F,160,star,0,0,,,,,,,,,,,,,,,,repeat,number,NA,j,0.0573,Hi,,,,,,2,,,,,,,,low,13,0,13,0,1,,,,,,,,,
296746,2022-11-23_10h48.30.292,vts_reward_expectancy_bt,2022.2.4,Win32,60.10699044,Chrome,1920,1080,,,,,0,886,,,,,,,,,,,,,,,,,U,167,hexagon,0,1,,,,,,,,,,,,,,,,repeat,number,NA,j,0.0011,Hi,,,,,,2,,,,,,,,low,14,0,14,0,1,,,,,,,,,
296746,2022-11-23_10h48.30.292,vts_reward_expectancy_bt,2022.2.4,Win32,60.10699044,Chrome,1920,1080,,,,,0,886,,,,,,,,,,,,,,,,,Y,139,circle,0,1,,,,,,,,,,,,,,,,repeat,number,NA,k,0.0177,Hi,,,,,,2,,,,,,,,low,15,0,15,0,1,,,,,,,,,
296746,2022-11-23_10h48.30.292,vts_reward_expectancy_bt,2022.2.4,Win32,60.10699044,Chrome,1920,1080,,,,,1,887,,,,,,,,,,,,,,,,,S,160,hexagon,1,1,,,,,,,,,,,,,,,,repeat,number,numRpt,k,0.0012,Lo,,,,,,2,,,,,,,,low,16,0,16,0,1,,,,,,,,,
296746,2022-11-23_10h48.30.292,vts_reward_expectancy_bt,2022.2.4,Win32,60.10699044,Chrome,1920,1080,,,,,0,887,,,,,,,,,,,,,,,,,W,174,circle,1,0,,,,,,,,,,,,,,,,repeat,number,numRpt,k,0.4566,Hi,,,,,,2,,,,,,,,low,17,0,17,0,1,,,,,,,,,
296746,2022-11-23_10h48.30.292,vts_reward_expectancy_bt,2022.2.4,Win32,60.10699044,Chrome,1920,1080,,,,,0,887,,,,,,,,,,,,,,,,,D,139,star,0,0,,,,,,,,,,,,,,,,repeat,number,NA,k,0.0477,Hi,,,,,,2,,,,,,,,low,18,0,18,0,1,,,,,,,,,
296746,2022-11-23_10h48.30.292,vts_reward_expectancy_bt,2022.2.4,Win32,60.10699044,Chrome,1920,1080,,,,,0,887,,,,,,,,,,,,,,,,,U,125,triangle,0,1,,,,,,,,,,,,,,,,repeat,number,NA,k,0.0177,Hi,,,,,,2,,,,,,,,low,19,0,19,0,1,,,,,,,,,
296746,2022-11-23_10h48.30.292,vts_reward_expectancy_bt,2022.2.4,Win32,60.10699044,Chrome,1920,1080,,,,,1,888,,,,,,,,,,,,,,,,,B,181,circle,1,1,,,,,,,,,,,,,,,,repeat,number,numRpt,k,0.1241,Hi,,,,,,2,,,,,,,,low,20,0,20,0,1,,,,,,,,,
296746,2022-11-23_10h48.30.292,vts_reward_expectancy_bt,2022.2.4,Win32,60.10699044,Chrome,1920,1080,,,,,10,898,,,,,,,,,,,,,,,,,H,132,star,1,0,,,,,,,,,,,,,,,,repeat,number,numRpt,j,0.001,Lo,,,,,,2,,,,,,,,low,21,0,21,0,1,,,,,,,,,
296746,2022-11-23_10h48.30.292,vts_reward_expectancy_bt,2022.2.4,Win32,60.10699044,Chrome,1920,1080,,,,,1,899,,,,,,,,,,,,,,,,,Y,146,hexagon,1,0,,,,,,,,,,,,,,,,repeat,number,numRpt,j,0.0346,Lo,,,,,,2,,,,,,,,low,22,0,22,0,1,,,,,,,,,
296746,2022-11-23_10h48.30.292,vts_reward_expectancy_bt,2022.2.4,Win32,60.10699044,Chrome,1920,1080,,,,,0,899,,,,,,,,,,,,,,,,,F,167,triangle,0,0,,,,,,,,,,,,,,,,repeat,number,NA,j,0.1375,Lo,,,,,,2,,,,,,,,low,23,0,23,0,1,,,,,,,,,
296746,2022-11-23_10h48.30.292,vts_reward_expectancy_bt,2022.2.4,Win32,60.10699044,Chrome,1920,1080,,,,,1,900,,,,,,,,,,,,,,,,,D,132,star,1,1,,,,,,,,,,,,,,,,repeat,number,numRpt,j,0.0378,Lo,,,,,,2,,,,,,,,low,24,0,24,0,1,,,,,,,,,
296746,2022-11-23_10h48.30.292,vts_reward_expectancy_bt,2022.2.4,Win32,60.10699044,Chrome,1920,1080,,,,,0,900,,,,,,,,,,,,,,,,,B,139,triangle,0,0,,,,,,,,,,,,,,,,repeat,number,NA,k,0.0009,Lo,,,,,,2,,,,,,,,low,25,0,25,0,1,,,,,,,,,
296746,2022-11-23_10h48.30.292,vts_reward_expectancy_bt,2022.2.4,Win32,60.10699044,Chrome,1920,1080,,,,,10,910,,,,,,,,,,,,,,,,,U,174,hexagon,1,1,,,,,,,,,,,,,,,,repeat,number,numRpt,k,0.1013,Lo,,,,,,2,,,,,,,,low,26,0,26,0,1,,,,,,,,,
296746,2022-11-23_10h48.30.292,vts_reward_expectancy_bt,2022.2.4,Win32,60.10699044,Chrome,1920,1080,,,,,0,910,,,,,,,,,,,,,,,,,W,146,circle,0,0,,,,,,,,,,,,,,,,repeat,number,NA,k,0.1815,Lo,,,,,,2,,,,,,,,low,27,0,27,0,1,,,,,,,,,
296746,2022-11-23_10h48.30.292,vts_reward_expectancy_bt,2022.2.4,Win32,60.10699044,Chrome,1920,1080,,,,,1,911,,,,,,,,,,,,,,,,,H,160,star,1,1,,,,,,,,,,,,,,,,repeat,number,numRpt,k,0.001,Lo,,,,,,2,,,,,,,,low,28,0,28,0,1,,,,,,,,,
296746,2022-11-23_10h48.30.292,vts_reward_expectancy_bt,2022.2.4,Win32,60.10699044,Chrome,1920,1080,,,,,1,912,,,,,,,,,,,,,,,,,Y,181,hexagon,1,0,,,,,,,,,,,,,,,,repeat,number,numRpt,k,0.001,Lo,,,,,,2,,,,,,,,low,29,0,29,0,1,,,,,,,,,
296746,2022-11-23_10h48.30.292,vts_reward_expectancy_bt,2022.2.4,Win32,60.10699044,Chrome,1920,1080,,,,,0,912,,,,,,,,,,,,,,,,,F,125,circle,0,0,,,,,,,,,,,,,,,,repeat,number,NA,k,0.1011,Lo,,,,,,2,,,,,,,,low,30,0,30,0,1,,,,,,,,,
296746,2022-11-23_10h48.30.292,vts_reward_expectancy_bt,2022.2.4,Win32,60.10699044,Chrome,1920,1080,,,,,10,922,,,,,,,,,,,,,,,,,S,167,triangle,1,1,,,,,,,,,,,,,,,,repeat,number,numRpt,k,0.0076,Hi,,,,,,2,,,,,,,,low,31,0,31,0,1,,,,,,,,,
296746,2022-11-23_10h48.30.292,vts_reward_expectancy_bt,2022.2.4,Win32,60.10699044,Chrome,1920,1080,,,,,1,923,,,,,,,,,,,,,,,,,W,139,hexagon,1,0,,,,,,,,,,,,,,,,repeat,number,numRpt,j,0.3949,Lo,,,,,,3,,,,,,space,2.0511,low,0,0,0,0,1,,,,,,,,,
296746,2022-11-23_10h48.30.292,vts_reward_expectancy_bt,2022.2.4,Win32,60.10699044,Chrome,1920,1080,,,,,10,933,,,,,,,,,,,,,,,,,S,132,star,1,0,,,,,,,,,,,,,,,,repeat,number,numRpt,j,0.4359,Lo,,,,,,3,,,,,,,,low,1,0,1,0,1,,,,,,,,,
296746,2022-11-23_10h48.30.292,vts_reward_expectancy_bt,2022.2.4,Win32,60.10699044,Chrome,1920,1080,,,,,0,933,,,,,,,,,,,,,,,,,D,181,triangle,1,0,,,,,,,,,,,,,,,,repeat,number,numRpt,k,0.4861,Hi,,,,,,3,,,,,,,,low,2,0,2,0,1,,,,,,,,,
296746,2022-11-23_10h48.30.292,vts_reward_expectancy_bt,2022.2.4,Win32,60.10699044,Chrome,1920,1080,,,,,0,933,,,,,,,,,,,,,,,,,H,146,circle,1,0,,,,,,,,,,,,,,,,repeat,number,numRpt,j,0.7476,Hi,,,,,,3,,,,,,,,low,3,0,3,0,1,,,,,,,,,
296746,2022-11-23_10h48.30.292,vts_reward_expectancy_bt,2022.2.4,Win32,60.10699044,Chrome,1920,1080,,,,,1,934,,,,,,,,,,,,,,,,,F,160,hexagon,1,0,,,,,,,,,,,,,,,,repeat,number,numRpt,k,0.4664,Lo,,,,,,3,,,,,,,,low,4,0,4,0,1,,,,,,,,,
296746,2022-11-23_10h48.30.292,vts_reward_expectancy_bt,2022.2.4,Win32,60.10699044,Chrome,1920,1080,,,,,1,935,,,,,,,,,,,,,,,,,B,125,star,1,0,,,,,,,,,,,,,,,,repeat,number,numRpt,j,0.5291,Lo,,,,,,3,,,,,,,,low,5,0,5,0,1,,,,,,,,,
296746,2022-11-23_10h48.30.292,vts_reward_expectancy_bt,2022.2.4,Win32,60.10699044,Chrome,1920,1080,,,,,0,935,,,,,,,,,,,,,,,,,Y,174,triangle,1,0,,,,,,,,,,,,,,,,repeat,number,numRpt,k,0.495,Hi,,,,,,3,,,,,,,,low,6,0,6,0,1,,,,,,,,,
296746,2022-11-23_10h48.30.292,vts_reward_expectancy_bt,2022.2.4,Win32,60.10699044,Chrome,1920,1080,,,,,0,935,,,,,,,,,,,,,,,,,U,167,circle,1,0,,,,,,,,,,,,,,,,repeat,number,numRpt,k,0.3796,Hi,,,,,,3,,,,,,,,low,7,0,7,0,1,,,,,,,,,
296746,2022-11-23_10h48.30.292,vts_reward_expectancy_bt,2022.2.4,Win32,60.10699044,Chrome,1920,1080,,,,,1,936,,,,,,,,,,,,,,,,,W,139,hexagon,1,0,,,,,,,,,,,,,,,,repeat,number,numRpt,j,0.1282,Lo,,,,,,3,,,,,,,,low,8,0,8,0,1,,,,,,,,,
296746,2022-11-23_10h48.30.292,vts_reward_expectancy_bt,2022.2.4,Win32,60.10699044,Chrome,1920,1080,,,,,0,936,,,,,,,,,,,,,,,,,S,132,triangle,1,0,,,,,,,,,,,,,,,,repeat,number,numRpt,j,0.0286,Hi,,,,,,3,,,,,,,,low,9,0,9,0,1,,,,,,,,,
296746,2022-11-23_10h48.30.292,vts_reward_expectancy_bt,2022.2.4,Win32,60.10699044,Chrome,1920,1080,,,,,0,936,,,,,,,,,,,,,,,,,D,181,circle,0,0,,,,,,,,,,,,,,,,repeat,number,NA,j,0.1293,Hi,,,,,,3,,,,,,,,low,10,0,10,0,1,,,,,,,,,
296746,2022-11-23_10h48.30.292,vts_reward_expectancy_bt,2022.2.4,Win32,60.10699044,Chrome,1920,1080,,,,,1,937,,,,,,,,,,,,,,,,,H,146,star,1,1,,,,,,,,,,,,,,,,repeat,number,numRpt,j,0.112,Lo,,,,,,3,,,,,,,,low,11,0,11,0,1,,,,,,,,,
296746,2022-11-23_10h48.30.292,vts_reward_expectancy_bt,2022.2.4,Win32,60.10699044,Chrome,1920,1080,,,,,0,937,,,,,,,,,,,,,,,,,F,160,circle,0,0,,,,,,,,,,,,,,,,repeat,number,NA,j,0.0445,Lo,,,,,,3,,,,,,,,low,12,0,12,0,1,,,,,,,,,
296746,2022-11-23_10h48.30.292,vts_reward_expectancy_bt,2022.2.4,Win32,60.10699044,Chrome,1920,1080,,,,,0,937,,,,,,,,,,,,,,,,,B,125,star,0,1,,,,,,,,,,,,,,,,repeat,number,NA,k,0.0783,Lo,,,,,,3,,,,,,,,low,13,0,13,0,1,,,,,,,,,
296746,2022-11-23_10h48.30.292,vts_reward_expectancy_bt,2022.2.4,Win32,60.10699044,Chrome,1920,1080,,,,,1,938,,,,,,,,,,,,,,,,,Y,174,hexagon,1,1,,,,,,,,,,,,,,,,repeat,number,numRpt,k,0.3442,Lo,,,,,,3,,,,,,,,low,14,0,14,0,1,,,,,,,,,
296746,2022-11-23_10h48.30.292,vts_reward_expectancy_bt,2022.2.4,Win32,60.10699044,Chrome,1920,1080,,,,,0,938,,,,,,,,,,,,,,,,,U,167,triangle,1,0,,,,,,,,,,,,,,,,repeat,number,numRpt,k,0.0163,Hi,,,,,,3,,,,,,,,low,15,0,15,0,1,,,,,,,,,
296746,2022-11-23_10h48.30.292,vts_reward_expectancy_bt,2022.2.4,Win32,60.10699044,Chrome,1920,1080,,,,,0,938,,,,,,,,,,,,,,,,,U,139,circle,0,0,,,,,,,,,,,,,,,,repeat,number,NA,k,0.2311,Hi,,,,,,3,,,,,,,,low,16,0,16,0,1,,,,,,,,,
296746,2022-11-23_10h48.30.292,vts_reward_expectancy_bt,2022.2.4,Win32,60.10699044,Chrome,1920,1080,,,,,0,938,,,,,,,,,,,,,,,,,D,167,star,0,1,,,,,,,,,,,,,,,,repeat,number,NA,j,0.0987,Hi,,,,,,3,,,,,,,,low,17,0,17,0,1,,,,,,,,,
296746,2022-11-23_10h48.30.292,vts_reward_expectancy_bt,2022.2.4,Win32,60.10699044,Chrome,1920,1080,,,,,0,938,,,,,,,,,,,,,,,,,Y,174,triangle,1,1,,,,,,,,,,,,,,,,repeat,number,numRpt,k,0.0525,Hi,,,,,,3,,,,,,,,low,18,0,18,0,1,,,,,,,,,
296746,2022-11-23_10h48.30.292,vts_reward_expectancy_bt,2022.2.4,Win32,60.10699044,Chrome,1920,1080,,,,,10,948,,,,,,,,,,,,,,,,,W,132,hexagon,1,0,,,,,,,,,,,,,,,,repeat,number,numRpt,j,0.0777,Lo,,,,,,3,,,,,,,,low,19,0,19,0,1,,,,,,,,,
296746,2022-11-23_10h48.30.292,vts_reward_expectancy_bt,2022.2.4,Win32,60.10699044,Chrome,1920,1080,,,,,10,958,,,,,,,,,,,,,,,,,B,125,star,1,0,,,,,,,,,,,,,,,,repeat,number,numRpt,j,0.2109,Lo,,,,,,3,,,,,,,,low,20,0,20,0,1,,,,,,,,,
296746,2022-11-23_10h48.30.292,vts_reward_expectancy_bt,2022.2.4,Win32,60.10699044,Chrome,1920,1080,,,,,0,958,,,,,,,,,,,,,,,,,H,181,triangle,1,0,,,,,,,,,,,,,,,,repeat,number,numRpt,k,0.2954,Hi,,,,,,3,,,,,,,,low,21,0,21,0,1,,,,,,,,,
296746,2022-11-23_10h48.30.292,vts_reward_expectancy_bt,2022.2.4,Win32,60.10699044,Chrome,1920,1080,,,,,1,959,,,,,,,,,,,,,,,,,S,146,hexagon,1,0,,,,,,,,,,,,,,,,repeat,number,numRpt,j,0.2113,Lo,,,,,,3,,,,,,,,low,22,0,22,0,1,,,,,,,,,
296746,2022-11-23_10h48.30.292,vts_reward_expectancy_bt,2022.2.4,Win32,60.10699044,Chrome,1920,1080,,,,,0,959,,,,,,,,,,,,,,,,,F,160,circle,0,0,,,,,,,,,,,,,,,,repeat,number,NA,j,0.001,Lo,,,,,,3,,,,,,,,low,23,0,23,0,1,,,,,,,,,
296746,2022-11-23_10h48.30.292,vts_reward_expectancy_bt,2022.2.4,Win32,60.10699044,Chrome,1920,1080,,,,,10,969,,,,,,,,,,,,,,,,,S,146,circle,1,1,,,,,,,,,,,,,,,,repeat,number,numRpt,j,0.001,Hi,,,,,,3,,,,,,,,low,24,0,24,0,1,,,,,,,,,
296746,2022-11-23_10h48.30.292,vts_reward_expectancy_bt,2022.2.4,Win32,60.10699044,Chrome,1920,1080,,,,,10,979,,,,,,,,,,,,,,,,,B,139,hexagon,1,0,,,,,,,,,,,,,,,,repeat,number,numRpt,j,0.1962,Lo,,,,,,3,,,,,,,,low,25,0,25,0,1,,,,,,,,,
296746,2022-11-23_10h48.30.292,vts_reward_expectancy_bt,2022.2.4,Win32,60.10699044,Chrome,1920,1080,,,,,0,979,,,,,,,,,,,,,,,,,W,181,star,0,0,,,,,,,,,,,,,,,,repeat,number,NA,j,0.0614,Lo,,,,,,3,,,,,,,,low,26,0,26,0,1,,,,,,,,,
296746,2022-11-23_10h48.30.292,vts_reward_expectancy_bt,2022.2.4,Win32,60.10699044,Chrome,1920,1080,,,,,0,979,,,,,,,,,,,,,,,,,H,125,triangle,0,1,,,,,,,,,,,,,,,,repeat,number,NA,k,0.062,Lo,,,,,,3,,,,,,,,low,27,0,27,0,1,,,,,,,,,
296746,2022-11-23_10h48.30.292,vts_reward_expectancy_bt,2022.2.4,Win32,60.10699044,Chrome,1920,1080,,,,,1,980,,,,,,,,,,,,,,,,,D,174,hexagon,1,1,,,,,,,,,,,,,,,,repeat,number,numRpt,k,0.1998,Lo,,,,,,3,,,,,,,,low,28,0,28,0,1,,,,,,,,,
296746,2022-11-23_10h48.30.292,vts_reward_expectancy_bt,2022.2.4,Win32,60.10699044,Chrome,1920,1080,,,,,0,980,,,,,,,,,,,,,,,,,F,167,triangle,0,0,,,,,,,,,,,,,,,,repeat,number,NA,j,0.021,Lo,,,,,,3,,,,,,,,low,29,0,29,0,1,,,,,,,,,
296746,2022-11-23_10h48.30.292,vts_reward_expectancy_bt,2022.2.4,Win32,60.10699044,Chrome,1920,1080,,,,,0,980,,,,,,,,,,,,,,,,,U,160,circle,1,1,,,,,,,,,,,,,,,,repeat,number,numRpt,k,0.2329,Hi,,,,,,3,,,,,,,,low,30,0,30,0,1,,,,,,,,,
296746,2022-11-23_10h48.30.292,vts_reward_expectancy_bt,2022.2.4,Win32,60.10699044,Chrome,1920,1080,,,,,0,980,,,,,,,,,,,,,,,,,Y,132,star,0,0,,,,,,,,,,,,,,,,repeat,number,NA,k,0.0468,Hi,,,,,,3,,,,,,,,low,31,0,31,0,1,,,,,,,,,
296746,2022-11-23_10h48.30.292,vts_reward_expectancy_bt,2022.2.4,Win32,60.10699044,Chrome,1920,1080,,,,,1,981,,,,,,,,,,,,,,,,,W,181,triangle,1,1,,,,,,,,,,,,,,,,repeat,number,numRpt,k,0.0625,Hi,,,,,,4,,,,,,space,0.2954,low,0,0,0,0,1,,,,,,,,,
296746,2022-11-23_10h48.30.292,vts_reward_expectancy_bt,2022.2.4,Win32,60.10699044,Chrome,1920,1080,,,,,0,981,,,,,,,,,,,,,,,,,U,146,star,0,0,,,,,,,,,,,,,,,,repeat,number,NA,k,0.0011,Hi,,,,,,4,,,,,,,,low,1,0,1,0,1,,,,,,,,,
296746,2022-11-23_10h48.30.292,vts_reward_expectancy_bt,2022.2.4,Win32,60.10699044,Chrome,1920,1080,,,,,10,991,,,,,,,,,,,,,,,,,D,167,circle,1,1,,,,,,,,,,,,,,,,repeat,number,numRpt,k,0.0967,Hi,,,,,,4,,,,,,,,low,2,0,2,0,1,,,,,,,,,
296746,2022-11-23_10h48.30.292,vts_reward_expectancy_bt,2022.2.4,Win32,60.10699044,Chrome,1920,1080,,,,,0,991,,,,,,,,,,,,,,,,,Y,125,hexagon,0,0,,,,,,,,,,,,,,,,repeat,number,NA,k,0.1141,Hi,,,,,,4,,,,,,,,low,3,0,3,0,1,,,,,,,,,
296746,2022-11-23_10h48.30.292,vts_reward_expectancy_bt,2022.2.4,Win32,60.10699044,Chrome,1920,1080,,,,,0,991,,,,,,,,,,,,,,,,,B,139,triangle,0,1,,,,,,,,,,,,,,,,repeat,number,NA,k,0.2276,Hi,,,,,,4,,,,,,,,low,4,0,4,0,1,,,,,,,,,
296746,2022-11-23_10h48.30.292,vts_reward_expectancy_bt,2022.2.4,Win32,60.10699044,Chrome,1920,1080,,,,,0,991,,,,,,,,,,,,,,,,,H,160,star,0,1,,,,,,,,,,,,,,,,repeat,number,NA,j,0.0615,Hi,,,,,,4,,,,,,,,low,5,0,5,0,1,,,,,,,,,
296746,2022-11-23_10h48.30.292,vts_reward_expectancy_bt,2022.2.4,Win32,60.10699044,Chrome,1920,1080,,,,,0,991,,,,,,,,,,,,,,,,,F,174,circle,0,1,,,,,,,,,,,,,,,,repeat,number,NA,j,0.0505,Hi,,,,,,4,,,,,,,,low,6,0,6,0,1,,,,,,,,,
296746,2022-11-23_10h48.30.292,vts_reward_expectancy_bt,2022.2.4,Win32,60.10699044,Chrome,1920,1080,,,,,1,992,,,,,,,,,,,,,,,,,S,132,hexagon,1,1,,,,,,,,,,,,,,,,repeat,number,numRpt,j,0.0307,Lo,,,,,,4,,,,,,,,low,7,0,7,0,1,,,,,,,,,
296746,2022-11-23_10h48.30.292,vts_reward_expectancy_bt,2022.2.4,Win32,60.10699044,Chrome,1920,1080,,,,,10,1002,,,,,,,,,,,,,,,,,W,181,hexagon,1,0,,,,,,,,,,,,,,,,repeat,number,numRpt,k,0.0497,Lo,,,,,,4,,,,,,,,low,8,0,8,0,1,,,,,,,,,
296746,2022-11-23_10h48.30.292,vts_reward_expectancy_bt,2022.2.4,Win32,60.10699044,Chrome,1920,1080,,,,,0,1002,,,,,,,,,,,,,,,,,U,146,star,0,0,,,,,,,,,,,,,,,,repeat,number,NA,k,0.001,Lo,,,,,,4,,,,,,,,low,9,0,9,0,1,,,,,,,,,
296746,2022-11-23_10h48.30.292,vts_reward_expectancy_bt,2022.2.4,Win32,60.10699044,Chrome,1920,1080,,,,,0,1002,,,,,,,,,,,,,,,,,D,167,circle,0,1,,,,,,,,,,,,,,,,repeat,number,NA,j,0.2452,Lo,,,,,,4,,,,,,,,low,10,0,10,0,1,,,,,,,,,
296746,2022-11-23_10h48.30.292,vts_reward_expectancy_bt,2022.2.4,Win32,60.10699044,Chrome,1920,1080,,,,,0,1002,,,,,,,,,,,,,,,,,Y,125,triangle,1,1,,,,,,,,,,,,,,,,repeat,number,numRpt,j,0.4793,Hi,,,,,,4,,,,,,,,low,11,0,11,0,1,,,,,,,,,
296746,2022-11-23_10h48.30.292,vts_reward_expectancy_bt,2022.2.4,Win32,60.10699044,Chrome,1920,1080,,,,,0,1002,,,,,,,,,,,,,,,,,B,139,triangle,0,0,,,,,,,,,,,,,,,,repeat,number,NA,k,0.0334,Hi,,,,,,4,,,,,,,,low,12,0,12,0,1,,,,,,,,,
296746,2022-11-23_10h48.30.292,vts_reward_expectancy_bt,2022.2.4,Win32,60.10699044,Chrome,1920,1080,,,,,10,1012,,,,,,,,,,,,,,,,,H,160,circle,1,1,,,,,,,,,,,,,,,,repeat,number,numRpt,k,0.0111,Hi,,,,,,4,,,,,,,,low,13,0,13,0,1,,,,,,,,,
296746,2022-11-23_10h48.30.292,vts_reward_expectancy_bt,2022.2.4,Win32,60.10699044,Chrome,1920,1080,,,,,1,1013,,,,,,,,,,,,,,,,,F,174,star,1,0,,,,,,,,,,,,,,,,repeat,number,numRpt,k,0.0617,Lo,,,,,,4,,,,,,,,low,14,0,14,0,1,,,,,,,,,
296746,2022-11-23_10h48.30.292,vts_reward_expectancy_bt,2022.2.4,Win32,60.10699044,Chrome,1920,1080,,,,,0,1013,,,,,,,,,,,,,,,,,S,132,hexagon,0,0,,,,,,,,,,,,,,,,repeat,number,NA,k,0.111,Lo,,,,,,4,,,,,,,,low,15,0,15,0,1,,,,,,,,,
296746,2022-11-23_10h48.30.292,vts_reward_expectancy_bt,2022.2.4,Win32,60.10699044,Chrome,1920,1080,,,,,0,1013,,,,,,,,,,,,,,,,,B,125,circle,1,1,,,,,,,,,,,,,,,,repeat,number,numRpt,j,0.5171,Hi,,,,,,4,,,,,,,,low,16,0,16,0,1,,,,,,,,,
296746,2022-11-23_10h48.30.292,vts_reward_expectancy_bt,2022.2.4,Win32,60.10699044,Chrome,1920,1080,,,,,10,1023,,,,,,,,,,,,,,,,,Y,146,hexagon,1,0,,,,,,,,,,,,,,,,repeat,number,numRpt,j,0.0803,Lo,,,,,,4,,,,,,,,low,17,0,17,0,1,,,,,,,,,
296746,2022-11-23_10h48.30.292,vts_reward_expectancy_bt,2022.2.4,Win32,60.10699044,Chrome,1920,1080,,,,,10,1033,,,,,,,,,,,,,,,,,D,160,triangle,1,0,,,,,,,,,,,,,,,,repeat,number,numRpt,k,0.0134,Hi,,,,,,4,,,,,,,,low,18,0,18,0,1,,,,,,,,,
296746,2022-11-23_10h48.30.292,vts_reward_expectancy_bt,2022.2.4,Win32,60.10699044,Chrome,1920,1080,,,,,10,1043,,,,,,,,,,,,,,,,,U,167,star,1,0,,,,,,,,,,,,,,,,repeat,number,numRpt,k,0.0501,Lo,,,,,,4,,,,,,,,low,19,0,19,0,1,,,,,,,,,
296746,2022-11-23_10h48.30.292,vts_reward_expectancy_bt,2022.2.4,Win32,60.10699044,Chrome,1920,1080,,,,,0,1043,,,,,,,,,,,,,,,,,S,174,hexagon,0,0,,,,,,,,,,,,,,,,repeat,number,NA,j,0.3491,Lo,,,,,,4,,,,,,,,low,20,0,20,0,1,,,,,,,,,
296746,2022-11-23_10h48.30.292,vts_reward_expectancy_bt,2022.2.4,Win32,60.10699044,Chrome,1920,1080,,,,,10,1053,,,,,,,,,,,,,,,,,W,132,star,1,1,,,,,,,,,,,,,,,,repeat,number,numRpt,j,0.1171,Lo,,,,,,4,,,,,,,,low,21,0,21,0,1,,,,,,,,,
296746,2022-11-23_10h48.30.292,vts_reward_expectancy_bt,2022.2.4,Win32,60.10699044,Chrome,1920,1080,,,,,0,1053,,,,,,,,,,,,,,,,,F,139,triangle,0,0,,,,,,,,,,,,,,,,repeat,number,NA,k,0.1005,Lo,,,,,,4,,,,,,,,low,22,0,22,0,1,,,,,,,,,
296746,2022-11-23_10h48.30.292,vts_reward_expectancy_bt,2022.2.4,Win32,60.10699044,Chrome,1920,1080,,,,,0,1053,,,,,,,,,,,,,,,,,H,181,circle,0,1,,,,,,,,,,,,,,,,repeat,number,NA,j,0.0598,Lo,,,,,,4,,,,,,,,low,23,0,23,0,1,,,,,,,,,
296746,2022-11-23_10h48.30.292,vts_reward_expectancy_bt,2022.2.4,Win32,60.10699044,Chrome,1920,1080,,,,,10,1063,,,,,,,,,,,,,,,,,H,167,hexagon,1,1,,,,,,,,,,,,,,,,repeat,number,numRpt,k,0.3007,Lo,,,,,,4,,,,,,,,low,24,0,24,0,1,,,,,,,,,
296746,2022-11-23_10h48.30.292,vts_reward_expectancy_bt,2022.2.4,Win32,60.10699044,Chrome,1920,1080,,,,,0,1063,,,,,,,,,,,,,,,,,B,160,triangle,1,0,,,,,,,,,,,,,,,,repeat,number,numRpt,k,0.4177,Hi,,,,,,4,,,,,,,,low,25,0,25,0,1,,,,,,,,,
296746,2022-11-23_10h48.30.292,vts_reward_expectancy_bt,2022.2.4,Win32,60.10699044,Chrome,1920,1080,,,,,10,1073,,,,,,,,,,,,,,,,,F,146,star,1,0,,,,,,,,,,,,,,,,repeat,number,numRpt,j,0.025,Lo,,,,,,4,,,,,,,,low,26,0,26,0,1,,,,,,,,,
296746,2022-11-23_10h48.30.292,vts_reward_expectancy_bt,2022.2.4,Win32,60.10699044,Chrome,1920,1080,,,,,10,1083,,,,,,,,,,,,,,,,,S,125,circle,1,0,,,,,,,,,,,,,,,,repeat,number,numRpt,j,0.1005,Hi,,,,,,4,,,,,,,,low,27,0,27,0,1,,,,,,,,,
296746,2022-11-23_10h48.30.292,vts_reward_expectancy_bt,2022.2.4,Win32,60.10699044,Chrome,1920,1080,,,,,0,1083,,,,,,,,,,,,,,,,,W,181,triangle,0,0,,,,,,,,,,,,,,,,repeat,number,NA,j,0.0815,Hi,,,,,,4,,,,,,,,low,28,0,28,0,1,,,,,,,,,
296746,2022-11-23_10h48.30.292,vts_reward_expectancy_bt,2022.2.4,Win32,60.10699044,Chrome,1920,1080,,,,,0,1083,,,,,,,,,,,,,,,,,D,132,star,0,1,,,,,,,,,,,,,,,,repeat,number,NA,k,0.0343,Hi,,,,,,4,,,,,,,,low,29,0,29,0,1,,,,,,,,,
296746,2022-11-23_10h48.30.292,vts_reward_expectancy_bt,2022.2.4,Win32,60.10699044,Chrome,1920,1080,,,,,0,1083,,,,,,,,,,,,,,,,,U,174,hexagon,0,1,,,,,,,,,,,,,,,,repeat,number,NA,j,0.152,Hi,,,,,,4,,,,,,,,low,30,0,30,0,1,,,,,,,,,
296746,2022-11-23_10h48.30.292,vts_reward_expectancy_bt,2022.2.4,Win32,60.10699044,Chrome,1920,1080,,,,,0,1083,,,,,,,,,,,,,,,,,Y,139,circle,0,1,,,,,,,,,,,,,,,,repeat,number,NA,k,0.001,Hi,,,,,,4,,,,,,,,low,31,0,31,0,1,,,,,,,,,
296746,2022-11-23_10h48.30.292,vts_reward_expectancy_bt,2022.2.4,Win32,60.10699044,Chrome,1920,1080,,,,,1,1084,,,,,,,,,,,,,,,,,D,167,hexagon,1,1,,,,,,,,,,,,,,,,repeat,number,numRpt,k,0.0838,Lo,,,,,,5,,,,,,space,0.4778,low,0,0,0,0,1,,,,,,,,,
296746,2022-11-23_10h48.30.292,vts_reward_expectancy_bt,2022.2.4,Win32,60.10699044,Chrome,1920,1080,,,,,0,1084,,,,,,,,,,,,,,,,,W,125,circle,1,0,,,,,,,,,,,,,,,,repeat,number,numRpt,j,0.4619,Hi,,,,,,5,,,,,,,,low,1,0,1,0,1,,,,,,,,,
296746,2022-11-23_10h48.30.292,vts_reward_expectancy_bt,2022.2.4,Win32,60.10699044,Chrome,1920,1080,,,,,0,1084,,,,,,,,,,,,,,,,,F,139,triangle,1,0,,,,,,,,,,,,,,,,repeat,number,numRpt,j,0.079,Hi,,,,,,5,,,,,,,,low,2,0,2,0,1,,,,,,,,,
296746,2022-11-23_10h48.30.292,vts_reward_expectancy_bt,2022.2.4,Win32,60.10699044,Chrome,1920,1080,,,,,1,1085,,,,,,,,,,,,,,,,,S,146,star,1,0,,,,,,,,,,,,,,,,repeat,number,numRpt,j,0.1272,Lo,,,,,,5,,,,,,,,low,3,0,3,0,1,,,,,,,,,
296746,2022-11-23_10h48.30.292,vts_reward_expectancy_bt,2022.2.4,Win32,60.10699044,Chrome,1920,1080,,,,,0,1085,,,,,,,,,,,,,,,,,Y,181,hexagon,0,0,,,,,,,,,,,,,,,,repeat,number,NA,j,0.0343,Lo,,,,,,5,,,,,,,,low,4,0,4,0,1,,,,,,,,,
296746,2022-11-23_10h48.30.292,vts_reward_expectancy_bt,2022.2.4,Win32,60.10699044,Chrome,1920,1080,,,,,0,1085,,,,,,,,,,,,,,,,,B,174,circle,0,1,,,,,,,,,,,,,,,,repeat,number,NA,j,0.3469,Lo,,,,,,5,,,,,,,,low,5,0,5,0,1,,,,,,,,,
296746,2022-11-23_10h48.30.292,vts_reward_expectancy_bt,2022.2.4,Win32,60.10699044,Chrome,1920,1080,,,,,0,1085,,,,,,,,,,,,,,,,,H,132,triangle,0,1,,,,,,,,,,,,,,,,repeat,number,NA,k,0.0123,Lo,,,,,,5,,,,,,,,low,6,0,6,0,1,,,,,,,,,
296746,2022-11-23_10h48.30.292,vts_reward_expectancy_bt,2022.2.4,Win32,60.10699044,Chrome,1920,1080,,,,,10,1095,,,,,,,,,,,,,,,,,U,160,star,1,1,,,,,,,,,,,,,,,,repeat,number,numRpt,k,0.1464,Lo,,,,,,5,,,,,,,,low,7,0,7,0,1,,,,,,,,,
296746,2022-11-23_10h48.30.292,vts_reward_expectancy_bt,2022.2.4,Win32,60.10699044,Chrome,1920,1080,,,,,0,1095,,,,,,,,,,,,,,,,,D,167,triangle,1,0,,,,,,,,,,,,,,,,repeat,number,numRpt,k,0.3948,Hi,,,,,,5,,,,,,,,low,8,0,8,0,1,,,,,,,,,
296746,2022-11-23_10h48.30.292,vts_reward_expectancy_bt,2022.2.4,Win32,60.10699044,Chrome,1920,1080,,,,,10,1105,,,,,,,,,,,,,,,,,W,125,star,1,0,,,,,,,,,,,,,,,,repeat,number,numRpt,j,0.0155,Lo,,,,,,5,,,,,,,,low,9,0,9,0,1,,,,,,,,,
296746,2022-11-23_10h48.30.292,vts_reward_expectancy_bt,2022.2.4,Win32,60.10699044,Chrome,1920,1080,,,,,10,1115,,,,,,,,,,,,,,,,,F,139,circle,1,0,,,,,,,,,,,,,,,,repeat,number,numRpt,j,0.0282,Hi,,,,,,5,,,,,,,,low,10,0,10,0,1,,,,,,,,,
296746,2022-11-23_10h48.30.292,vts_reward_expectancy_bt,2022.2.4,Win32,60.10699044,Chrome,1920,1080,,,,,10,1125,,,,,,,,,,,,,,,,,S,146,hexagon,1,0,,,,,,,,,,,,,,,,repeat,number,numRpt,j,0.0679,Lo,,,,,,5,,,,,,,,low,11,0,11,0,1,,,,,,,,,
296746,2022-11-23_10h48.30.292,vts_reward_expectancy_bt,2022.2.4,Win32,60.10699044,Chrome,1920,1080,,,,,1,1126,,,,,,,,,,,,,,,,,Y,181,hexagon,1,0,,,,,,,,,,,,,,,,repeat,number,numRpt,k,0.0011,Lo,,,,,,5,,,,,,,,low,12,0,12,0,1,,,,,,,,,
296746,2022-11-23_10h48.30.292,vts_reward_expectancy_bt,2022.2.4,Win32,60.10699044,Chrome,1920,1080,,,,,0,1126,,,,,,,,,,,,,,,,,B,174,triangle,0,0,,,,,,,,,,,,,,,,repeat,number,NA,j,0.1823,Lo,,,,,,5,,,,,,,,low,13,0,13,0,1,,,,,,,,,
296746,2022-11-23_10h48.30.292,vts_reward_expectancy_bt,2022.2.4,Win32,60.10699044,Chrome,1920,1080,,,,,0,1126,,,,,,,,,,,,,,,,,H,132,circle,1,1,,,,,,,,,,,,,,,,repeat,number,numRpt,j,0.0534,Hi,,,,,,5,,,,,,,,low,14,0,14,0,1,,,,,,,,,
296746,2022-11-23_10h48.30.292,vts_reward_expectancy_bt,2022.2.4,Win32,60.10699044,Chrome,1920,1080,,,,,0,1126,,,,,,,,,,,,,,,,,U,160,star,0,0,,,,,,,,,,,,,,,,repeat,number,NA,j,0.1139,Hi,,,,,,5,,,,,,,,low,15,0,15,0,1,,,,,,,,,
296746,2022-11-23_10h48.30.292,vts_reward_expectancy_bt,2022.2.4,Win32,60.10699044,Chrome,1920,1080,,,,,0,1126,,,,,,,,,,,,,,,,,F,146,circle,0,1,,,,,,,,,,,,,,,,repeat,number,NA,k,0.0622,Hi,,,,,,5,,,,,,,,low,16,0,16,0,1,,,,,,,,,
296746,2022-11-23_10h48.30.292,vts_reward_expectancy_bt,2022.2.4,Win32,60.10699044,Chrome,1920,1080,,,,,0,1126,,,,,,,,,,,,,,,,,H,174,triangle,0,1,,,,,,,,,,,,,,,,repeat,number,NA,j,0.014,Hi,,,,,,5,,,,,,,,low,17,0,17,0,1,,,,,,,,,
296746,2022-11-23_10h48.30.292,vts_reward_expectancy_bt,2022.2.4,Win32,60.10699044,Chrome,1920,1080,,,,,10,1136,,,,,,,,,,,,,,,,,S,139,hexagon,1,1,,,,,,,,,,,,,,,,repeat,number,numRpt,j,0.0107,Lo,,,,,,5,,,,,,,,low,18,0,18,0,1,,,,,,,,,
296746,2022-11-23_10h48.30.292,vts_reward_expectancy_bt,2022.2.4,Win32,60.10699044,Chrome,1920,1080,,,,,0,1136,,,,,,,,,,,,,,,,,Y,181,star,0,0,,,,,,,,,,,,,,,,repeat,number,NA,j,0.001,Lo,,,,,,5,,,,,,,,low,19,0,19,0,1,,,,,,,,,
296746,2022-11-23_10h48.30.292,vts_reward_expectancy_bt,2022.2.4,Win32,60.10699044,Chrome,1920,1080,,,,,10,1146,,,,,,,,,,,,,,,,,B,160,star,1,1,,,,,,,,,,,,,,,,repeat,number,numRpt,k,0.0811,Lo,,,,,,5,,,,,,,,low,20,0,20,0,1,,,,,,,,,
296746,2022-11-23_10h48.30.292,vts_reward_expectancy_bt,2022.2.4,Win32,60.10699044,Chrome,1920,1080,,,,,0,1146,,,,,,,,,,,,,,,,,W,125,hexagon,0,0,,,,,,,,,,,,,,,,repeat,number,NA,k,0.015,Lo,,,,,,5,,,,,,,,low,21,0,21,0,1,,,,,,,,,
296746,2022-11-23_10h48.30.292,vts_reward_expectancy_bt,2022.2.4,Win32,60.10699044,Chrome,1920,1080,,,,,0,1146,,,,,,,,,,,,,,,,,U,167,circle,0,1,,,,,,,,,,,,,,,,repeat,number,NA,j,0.0011,Lo,,,,,,5,,,,,,,,low,22,0,22,0,1,,,,,,,,,
296746,2022-11-23_10h48.30.292,vts_reward_expectancy_bt,2022.2.4,Win32,60.10699044,Chrome,1920,1080,,,,,10,1156,,,,,,,,,,,,,,,,,D,132,triangle,1,1,,,,,,,,,,,,,,,,repeat,number,numRpt,j,0.0186,Hi,,,,,,5,,,,,,,,low,23,0,23,0,1,,,,,,,,,
296746,2022-11-23_10h48.30.292,vts_reward_expectancy_bt,2022.2.4,Win32,60.10699044,Chrome,1920,1080,,,,,1,1157,,,,,,,,,,,,,,,,,S,125,star,1,0,,,,,,,,,,,,,,,,repeat,number,numRpt,j,0.0645,Lo,,,,,,5,,,,,,,,low,24,0,24,0,1,,,,,,,,,
296746,2022-11-23_10h48.30.292,vts_reward_expectancy_bt,2022.2.4,Win32,60.10699044,Chrome,1920,1080,,,,,1,1158,,,,,,,,,,,,,,,,,Y,139,triangle,1,0,,,,,,,,,,,,,,,,repeat,number,numRpt,j,0.045,Hi,,,,,,5,,,,,,,,low,25,0,25,0,1,,,,,,,,,
296746,2022-11-23_10h48.30.292,vts_reward_expectancy_bt,2022.2.4,Win32,60.10699044,Chrome,1920,1080,,,,,0,1158,,,,,,,,,,,,,,,,,F,174,hexagon,0,0,,,,,,,,,,,,,,,,repeat,number,NA,j,0.0313,Hi,,,,,,5,,,,,,,,low,26,0,26,0,1,,,,,,,,,
296746,2022-11-23_10h48.30.292,vts_reward_expectancy_bt,2022.2.4,Win32,60.10699044,Chrome,1920,1080,,,,,0,1158,,,,,,,,,,,,,,,,,B,167,circle,0,1,,,,,,,,,,,,,,,,repeat,number,NA,j,0.1782,Hi,,,,,,5,,,,,,,,low,27,0,27,0,1,,,,,,,,,
296746,2022-11-23_10h48.30.292,vts_reward_expectancy_bt,2022.2.4,Win32,60.10699044,Chrome,1920,1080,,,,,0,1158,,,,,,,,,,,,,,,,,D,146,hexagon,0,1,,,,,,,,,,,,,,,,repeat,number,NA,k,0.0011,Hi,,,,,,5,,,,,,,,low,28,0,28,0,1,,,,,,,,,
296746,2022-11-23_10h48.30.292,vts_reward_expectancy_bt,2022.2.4,Win32,60.10699044,Chrome,1920,1080,,,,,1,1159,,,,,,,,,,,,,,,,,U,132,triangle,1,1,,,,,,,,,,,,,,,,repeat,number,numRpt,j,0.001,Hi,,,,,,5,,,,,,,,low,29,0,29,0,1,,,,,,,,,
296746,2022-11-23_10h48.30.292,vts_reward_expectancy_bt,2022.2.4,Win32,60.10699044,Chrome,1920,1080,,,,,0,1159,,,,,,,,,,,,,,,,,H,181,star,0,0,,,,,,,,,,,,,,,,repeat,number,NA,j,0.0516,Hi,,,,,,5,,,,,,,,low,30,0,30,0,1,,,,,,,,,
296746,2022-11-23_10h48.30.292,vts_reward_expectancy_bt,2022.2.4,Win32,60.10699044,Chrome,1920,1080,,,,,0,1159,,,,,,,,,,,,,,,,,W,160,circle,1,1,,,,,,,,,,,,,,,,repeat,number,numRpt,k,0.3664,Hi,,,,,,5,,,,,,,,low,31,0,31,0,1,,,,,,,,,
296746,2022-11-23_10h48.30.292,vts_reward_expectancy_bt,2022.2.4,Win32,60.10699044,Chrome,1920,1080,,,,,1,1160,,,,,,,,,,,,,,,,,B,125,star,1,0,,,,,,,,,,,,,,,,repeat,number,numRpt,j,0.1954,Lo,,,,,,6,,,,,,space,0.5841,low,0,0,0,0,1,,,,,,,,,
296746,2022-11-23_10h48.30.292,vts_reward_expectancy_bt,2022.2.4,Win32,60.10699044,Chrome,1920,1080,,,,,10,1170,,,,,,,,,,,,,,,,,Y,132,hexagon,1,0,,,,,,,,,,,,,,,,repeat,number,numRpt,j,0.0011,Lo,,,,,,6,,,,,,,,low,1,0,1,0,1,,,,,,,,,
296746,2022-11-23_10h48.30.292,vts_reward_expectancy_bt,2022.2.4,Win32,60.10699044,Chrome,1920,1080,,,,,0,1170,,,,,,,,,,,,,,,,,U,146,triangle,1,0,,,,,,,,,,,,,,,,repeat,number,numRpt,j,0.4528,Hi,,,,,,6,,,,,,,,low,2,0,2,0,1,,,,,,,,,
296746,2022-11-23_10h48.30.292,vts_reward_expectancy_bt,2022.2.4,Win32,60.10699044,Chrome,1920,1080,,,,,0,1170,,,,,,,,,,,,,,,,,S,174,circle,0,0,,,,,,,,,,,,,,,,repeat,number,NA,j,0.4853,Hi,,,,,,6,,,,,,,,low,3,0,3,0,1,,,,,,,,,
296746,2022-11-23_10h48.30.292,vts_reward_expectancy_bt,2022.2.4,Win32,60.10699044,Chrome,1920,1080,,,,,1,1171,,,,,,,,,,,,,,,,,D,167,star,1,1,,,,,,,,,,,,,,,,repeat,number,numRpt,k,0.0008,Lo,,,,,,6,,,,,,,,low,4,0,4,0,1,,,,,,,,,
296746,2022-11-23_10h48.30.292,vts_reward_expectancy_bt,2022.2.4,Win32,60.10699044,Chrome,1920,1080,,,,,0,1171,,,,,,,,,,,,,,,,,H,181,hexagon,0,0,,,,,,,,,,,,,,,,repeat,number,NA,j,0.145,Lo,,,,,,6,,,,,,,,low,5,0,5,0,1,,,,,,,,,
296746,2022-11-23_10h48.30.292,vts_reward_expectancy_bt,2022.2.4,Win32,60.10699044,Chrome,1920,1080,,,,,10,1181,,,,,,,,,,,,,,,,,W,160,triangle,1,1,,,,,,,,,,,,,,,,repeat,number,numRpt,k,0.0141,Hi,,,,,,6,,,,,,,,low,6,0,6,0,1,,,,,,,,,
296746,2022-11-23_10h48.30.292,vts_reward_expectancy_bt,2022.2.4,Win32,60.10699044,Chrome,1920,1080,,,,,0,1181,,,,,,,,,,,,,,,,,F,139,circle,0,0,,,,,,,,,,,,,,,,repeat,number,NA,k,0.0125,Hi,,,,,,6,,,,,,,,low,7,0,7,0,1,,,,,,,,,
