participant,date,expName,psychopyVersion,OS,frameRate,browser,xResolution,yResolution,key_resp.keys,key_resp.rt,training_resp.keys,training_resp.rt,points_trial,points_cumul,trainBlock,training.thisRepN,training.thisTrialN,training.thisN,training.thisIndex,training.ran,LTriangleOpac,LCircleOpac,LHexagonOpac,LStarOpac,RTriangleOpac,RCircleOpac,RHexagonOpac,RStarOpac,LShape_ID,RShape_ID,curr_topStim,curr_bottStim,curr_shape,acc,E1,target_resp_prac1.keys,target_resp_prac1.rt,pracBlock,task1_prac_trials.thisRepN,task1_prac_trials.thisTrialN,task1_prac_trials.thisN,task1_prac_trials.thisIndex,task1_prac_trials.ran,target_resp_prac2.keys,target_resp_prac2.rt,task2_praac_trials.thisRepN,task2_praac_trials.thisTrialN,task2_praac_trials.thisN,task2_praac_trials.thisIndex,task2_praac_trials.ran,alt,task,condition,target_resp.keys,target_resp.rt,rewCond,vts_practice_trials.thisRepN,vts_practice_trials.thisTrialN,vts_practice_trials.thisN,vts_practice_trials.thisIndex,vts_practice_trials.ran,blockNum,trials_norew.thisRepN,trials_norew.thisTrialN,trials_norew.thisN,trials_norew.thisIndex,trials_norew.ran,key_resp_2.keys,key_resp_2.rt,rewExpectancy,trials_rew.thisRepN,trials_rew.thisTrialN,trials_rew.thisN,trials_rew.thisIndex,trials_rew.ran,Q1,Q2,Q2_text,Q3,Q4,Q5,Q5_text,xRes,yRes
296737,2022-11-27_20h47.26.049,vts_reward_expectancy_bt,2022.2.4,MacIntel,58.82352941,Safari,1440,900,,,,,,,,,,,,,,,,,,,,,,,,,,,,,,,,,,,,,,,,,,,,,,,,,,,,,,,,,,,,,,,,,,,,,,,,,,,,
296737,2022-11-27_20h47.26.049,vts_reward_expectancy_bt,2022.2.4,MacIntel,58.82352941,Safari,1440,900,space,14.138,,,,,,,,,,,,,,,,,,,,,,,,,,,,,,,,,,,,,,,,,,,,,,,,,,,,,,,,,,,,,,,,,,,,,,,,,,
296737,2022-11-27_20h47.26.049,vts_reward_expectancy_bt,2022.2.4,MacIntel,58.82352941,Safari,1440,900,,,,,,,,,,,,,,,,,,,,,,,,,,,,,,,,,,,,,,,,,,,,,,,,,,,,,,,,,,,,,,,,,,,,,,,,,,,,
296737,2022-11-27_20h47.26.049,vts_reward_expectancy_bt,2022.2.4,MacIntel,58.82352941,Safari,1440,900,,,a,1.837,1,1,0,0,0,0,11,1,0,0,0,1,0,0,1,0,star,hexagon,,,,,,,,,,,,,,,,,,,,,,,,,,,,,,,,,,,,,,,,,,,,,,,,,,,,,,
296737,2022-11-27_20h47.26.049,vts_reward_expectancy_bt,2022.2.4,MacIntel,58.82352941,Safari,1440,900,,,l,2.277,1,2,0,0,1,1,5,1,0,1,0,0,0,0,0,1,circle,star,,,,,,,,,,,,,,,,,,,,,,,,,,,,,,,,,,,,,,,,,,,,,,,,,,,,,,
296737,2022-11-27_20h47.26.049,vts_reward_expectancy_bt,2022.2.4,MacIntel,58.82352941,Safari,1440,900,,,l,1.698,10,12,0,0,2,2,2,1,1,0,0,0,0,0,0,1,triangle,star,,,,,,,,,,,,,,,,,,,,,,,,,,,,,,,,,,,,,,,,,,,,,,,,,,,,,,
296737,2022-11-27_20h47.26.049,vts_reward_expectancy_bt,2022.2.4,MacIntel,58.82352941,Safari,1440,900,,,l,2.111,1,13,0,0,3,3,10,1,0,0,0,1,0,1,0,0,star ,circle,,,,,,,,,,,,,,,,,,,,,,,,,,,,,,,,,,,,,,,,,,,,,,,,,,,,,,
296737,2022-11-27_20h47.26.049,vts_reward_expectancy_bt,2022.2.4,MacIntel,58.82352941,Safari,1440,900,,,a,0.997,10,23,0,0,4,4,4,1,0,1,0,0,0,0,1,0,circle,hexagon,,,,,,,,,,,,,,,,,,,,,,,,,,,,,,,,,,,,,,,,,,,,,,,,,,,,,,
296737,2022-11-27_20h47.26.049,vts_reward_expectancy_bt,2022.2.4,MacIntel,58.82352941,Safari,1440,900,,,l,1.104,10,33,0,0,5,5,6,1,0,0,1,0,1,0,0,0,hexagon,triangle,,,,,,,,,,,,,,,,,,,,,,,,,,,,,,,,,,,,,,,,,,,,,,,,,,,,,,
296737,2022-11-27_20h47.26.049,vts_reward_expectancy_bt,2022.2.4,MacIntel,58.82352941,Safari,1440,900,,,l,1.747,10,43,0,0,6,6,0,1,1,0,0,0,0,1,0,0,triangle,circle,,,,,,,,,,,,,,,,,,,,,,,,,,,,,,,,,,,,,,,,,,,,,,,,,,,,,,
296737,2022-11-27_20h47.26.049,vts_reward_expectancy_bt,2022.2.4,MacIntel,58.82352941,Safari,1440,900,,,l,1.048,10,53,0,0,7,7,7,1,0,0,1,0,0,1,0,0,hexagon,circle,,,,,,,,,,,,,,,,,,,,,,,,,,,,,,,,,,,,,,,,,,,,,,,,,,,,,,
296737,2022-11-27_20h47.26.049,vts_reward_expectancy_bt,2022.2.4,MacIntel,58.82352941,Safari,1440,900,,,a,1.114,10,63,0,0,8,8,1,1,1,0,0,0,0,0,1,0,triangle,hexagon,,,,,,,,,,,,,,,,,,,,,,,,,,,,,,,,,,,,,,,,,,,,,,,,,,,,,,
296737,2022-11-27_20h47.26.049,vts_reward_expectancy_bt,2022.2.4,MacIntel,58.82352941,Safari,1440,900,,,l,1.124,10,73,0,0,9,9,3,1,0,1,0,0,1,0,0,0,circle,triangle,,,,,,,,,,,,,,,,,,,,,,,,,,,,,,,,,,,,,,,,,,,,,,,,,,,,,,
296737,2022-11-27_20h47.26.049,vts_reward_expectancy_bt,2022.2.4,MacIntel,58.82352941,Safari,1440,900,,,l,0.883,1,74,0,0,10,10,8,1,0,0,1,0,0,0,0,1,hexagon,star,,,,,,,,,,,,,,,,,,,,,,,,,,,,,,,,,,,,,,,,,,,,,,,,,,,,,,
296737,2022-11-27_20h47.26.049,vts_reward_expectancy_bt,2022.2.4,MacIntel,58.82352941,Safari,1440,900,,,l,0.644,10,84,0,0,11,11,9,1,0,0,0,1,1,0,0,0,star,triangle,,,,,,,,,,,,,,,,,,,,,,,,,,,,,,,,,,,,,,,,,,,,,,,,,,,,,,
296737,2022-11-27_20h47.26.049,vts_reward_expectancy_bt,2022.2.4,MacIntel,58.82352941,Safari,1440,900,,,a,1.097,10,94,0,1,0,12,0,1,1,0,0,0,0,1,0,0,triangle,circle,,,,,,,,,,,,,,,,,,,,,,,,,,,,,,,,,,,,,,,,,,,,,,,,,,,,,,
296737,2022-11-27_20h47.26.049,vts_reward_expectancy_bt,2022.2.4,MacIntel,58.82352941,Safari,1440,900,,,l,1.002,10,104,0,1,1,13,10,1,0,0,0,1,0,1,0,0,star ,circle,,,,,,,,,,,,,,,,,,,,,,,,,,,,,,,,,,,,,,,,,,,,,,,,,,,,,,
296737,2022-11-27_20h47.26.049,vts_reward_expectancy_bt,2022.2.4,MacIntel,58.82352941,Safari,1440,900,,,l,2.588,10,114,0,1,2,14,3,1,0,1,0,0,1,0,0,0,circle,triangle,,,,,,,,,,,,,,,,,,,,,,,,,,,,,,,,,,,,,,,,,,,,,,,,,,,,,,
296737,2022-11-27_20h47.26.049,vts_reward_expectancy_bt,2022.2.4,MacIntel,58.82352941,Safari,1440,900,,,l,0.883,1,115,0,1,3,15,6,1,0,0,1,0,1,0,0,0,hexagon,triangle,,,,,,,,,,,,,,,,,,,,,,,,,,,,,,,,,,,,,,,,,,,,,,,,,,,,,,
296737,2022-11-27_20h47.26.049,vts_reward_expectancy_bt,2022.2.4,MacIntel,58.82352941,Safari,1440,900,,,a,1.024,1,116,0,1,4,16,8,1,0,0,1,0,0,0,0,1,hexagon,star,,,,,,,,,,,,,,,,,,,,,,,,,,,,,,,,,,,,,,,,,,,,,,,,,,,,,,
296737,2022-11-27_20h47.26.049,vts_reward_expectancy_bt,2022.2.4,MacIntel,58.82352941,Safari,1440,900,,,a,0.766,1,117,0,1,5,17,9,1,0,0,0,1,1,0,0,0,star,triangle,,,,,,,,,,,,,,,,,,,,,,,,,,,,,,,,,,,,,,,,,,,,,,,,,,,,,,
296737,2022-11-27_20h47.26.049,vts_reward_expectancy_bt,2022.2.4,MacIntel,58.82352941,Safari,1440,900,,,a,0.762,10,127,0,1,6,18,5,1,0,1,0,0,0,0,0,1,circle,star,,,,,,,,,,,,,,,,,,,,,,,,,,,,,,,,,,,,,,,,,,,,,,,,,,,,,,
296737,2022-11-27_20h47.26.049,vts_reward_expectancy_bt,2022.2.4,MacIntel,58.82352941,Safari,1440,900,,,a,1.632,1,128,0,1,7,19,4,1,0,1,0,0,0,0,1,0,circle,hexagon,,,,,,,,,,,,,,,,,,,,,,,,,,,,,,,,,,,,,,,,,,,,,,,,,,,,,,
296737,2022-11-27_20h47.26.049,vts_reward_expectancy_bt,2022.2.4,MacIntel,58.82352941,Safari,1440,900,,,l,0.924,1,129,0,1,8,20,1,1,1,0,0,0,0,0,1,0,triangle,hexagon,,,,,,,,,,,,,,,,,,,,,,,,,,,,,,,,,,,,,,,,,,,,,,,,,,,,,,
296737,2022-11-27_20h47.26.049,vts_reward_expectancy_bt,2022.2.4,MacIntel,58.82352941,Safari,1440,900,,,a,2.228,1,130,0,1,9,21,7,1,0,0,1,0,0,1,0,0,hexagon,circle,,,,,,,,,,,,,,,,,,,,,,,,,,,,,,,,,,,,,,,,,,,,,,,,,,,,,,
296737,2022-11-27_20h47.26.049,vts_reward_expectancy_bt,2022.2.4,MacIntel,58.82352941,Safari,1440,900,,,a,0.803,1,131,0,1,10,22,2,1,1,0,0,0,0,0,0,1,triangle,star,,,,,,,,,,,,,,,,,,,,,,,,,,,,,,,,,,,,,,,,,,,,,,,,,,,,,,
296737,2022-11-27_20h47.26.049,vts_reward_expectancy_bt,2022.2.4,MacIntel,58.82352941,Safari,1440,900,,,l,0.451,1,132,0,1,11,23,11,1,0,0,0,1,0,0,1,0,star,hexagon,,,,,,,,,,,,,,,,,,,,,,,,,,,,,,,,,,,,,,,,,,,,,,,,,,,,,,
296737,2022-11-27_20h47.26.049,vts_reward_expectancy_bt,2022.2.4,MacIntel,58.82352941,Safari,1440,900,,,a,0.499,1,133,0,2,0,24,0,1,1,0,0,0,0,1,0,0,triangle,circle,,,,,,,,,,,,,,,,,,,,,,,,,,,,,,,,,,,,,,,,,,,,,,,,,,,,,,
296737,2022-11-27_20h47.26.049,vts_reward_expectancy_bt,2022.2.4,MacIntel,58.82352941,Safari,1440,900,,,a,0.698,10,143,0,2,1,25,4,1,0,1,0,0,0,0,1,0,circle,hexagon,,,,,,,,,,,,,,,,,,,,,,,,,,,,,,,,,,,,,,,,,,,,,,,,,,,,,,
296737,2022-11-27_20h47.26.049,vts_reward_expectancy_bt,2022.2.4,MacIntel,58.82352941,Safari,1440,900,,,a,0.45,10,153,0,2,2,26,5,1,0,1,0,0,0,0,0,1,circle,star,,,,,,,,,,,,,,,,,,,,,,,,,,,,,,,,,,,,,,,,,,,,,,,,,,,,,,
296737,2022-11-27_20h47.26.049,vts_reward_expectancy_bt,2022.2.4,MacIntel,58.82352941,Safari,1440,900,,,l,0.7,1,154,0,2,3,27,11,1,0,0,0,1,0,0,1,0,star,hexagon,,,,,,,,,,,,,,,,,,,,,,,,,,,,,,,,,,,,,,,,,,,,,,,,,,,,,,
296737,2022-11-27_20h47.26.049,vts_reward_expectancy_bt,2022.2.4,MacIntel,58.82352941,Safari,1440,900,,,a,0.716,10,164,0,2,4,28,1,1,1,0,0,0,0,0,1,0,triangle,hexagon,,,,,,,,,,,,,,,,,,,,,,,,,,,,,,,,,,,,,,,,,,,,,,,,,,,,,,
296737,2022-11-27_20h47.26.049,vts_reward_expectancy_bt,2022.2.4,MacIntel,58.82352941,Safari,1440,900,,,l,0.513,1,165,0,2,5,29,3,1,0,1,0,0,1,0,0,0,circle,triangle,,,,,,,,,,,,,,,,,,,,,,,,,,,,,,,,,,,,,,,,,,,,,,,,,,,,,,
296737,2022-11-27_20h47.26.049,vts_reward_expectancy_bt,2022.2.4,MacIntel,58.82352941,Safari,1440,900,,,a,0.864,1,166,0,2,6,30,8,1,0,0,1,0,0,0,0,1,hexagon,star,,,,,,,,,,,,,,,,,,,,,,,,,,,,,,,,,,,,,,,,,,,,,,,,,,,,,,
296737,2022-11-27_20h47.26.049,vts_reward_expectancy_bt,2022.2.4,MacIntel,58.82352941,Safari,1440,900,,,a,0.514,1,167,0,2,7,31,7,1,0,0,1,0,0,1,0,0,hexagon,circle,,,,,,,,,,,,,,,,,,,,,,,,,,,,,,,,,,,,,,,,,,,,,,,,,,,,,,
296737,2022-11-27_20h47.26.049,vts_reward_expectancy_bt,2022.2.4,MacIntel,58.82352941,Safari,1440,900,,,l,1.367,10,177,0,2,8,32,9,1,0,0,0,1,1,0,0,0,star,triangle,,,,,,,,,,,,,,,,,,,,,,,,,,,,,,,,,,,,,,,,,,,,,,,,,,,,,,
296737,2022-11-27_20h47.26.049,vts_reward_expectancy_bt,2022.2.4,MacIntel,58.82352941,Safari,1440,900,,,l,0.625,10,187,0,2,9,33,10,1,0,0,0,1,0,1,0,0,star ,circle,,,,,,,,,,,,,,,,,,,,,,,,,,,,,,,,,,,,,,,,,,,,,,,,,,,,,,
296737,2022-11-27_20h47.26.049,vts_reward_expectancy_bt,2022.2.4,MacIntel,58.82352941,Safari,1440,900,,,l,0.734,10,197,0,2,10,34,6,1,0,0,1,0,1,0,0,0,hexagon,triangle,,,,,,,,,,,,,,,,,,,,,,,,,,,,,,,,,,,,,,,,,,,,,,,,,,,,,,
296737,2022-11-27_20h47.26.049,vts_reward_expectancy_bt,2022.2.4,MacIntel,58.82352941,Safari,1440,900,,,a,0.633,10,207,0,2,11,35,2,1,1,0,0,0,0,0,0,1,triangle,star,,,,,,,,,,,,,,,,,,,,,,,,,,,,,,,,,,,,,,,,,,,,,,,,,,,,,,
296737,2022-11-27_20h47.26.049,vts_reward_expectancy_bt,2022.2.4,MacIntel,58.82352941,Safari,1440,900,,,l,0.824,10,217,1,0,0,0,6,1,0,0,1,0,1,0,0,0,hexagon,triangle,,,,,,,,,,,,,,,,,,,,,,,,,,,,,,,,,,,,,,,,,,,,,,,,,,,,,,
296737,2022-11-27_20h47.26.049,vts_reward_expectancy_bt,2022.2.4,MacIntel,58.82352941,Safari,1440,900,,,a,0.441,1,218,1,0,1,1,7,1,0,0,1,0,0,1,0,0,hexagon,circle,,,,,,,,,,,,,,,,,,,,,,,,,,,,,,,,,,,,,,,,,,,,,,,,,,,,,,
296737,2022-11-27_20h47.26.049,vts_reward_expectancy_bt,2022.2.4,MacIntel,58.82352941,Safari,1440,900,,,a,0.69,10,228,1,0,2,2,3,1,0,1,0,0,1,0,0,0,circle,triangle,,,,,,,,,,,,,,,,,,,,,,,,,,,,,,,,,,,,,,,,,,,,,,,,,,,,,,
296737,2022-11-27_20h47.26.049,vts_reward_expectancy_bt,2022.2.4,MacIntel,58.82352941,Safari,1440,900,,,l,1.235,10,238,1,0,3,3,1,1,1,0,0,0,0,0,1,0,triangle,hexagon,,,,,,,,,,,,,,,,,,,,,,,,,,,,,,,,,,,,,,,,,,,,,,,,,,,,,,
296737,2022-11-27_20h47.26.049,vts_reward_expectancy_bt,2022.2.4,MacIntel,58.82352941,Safari,1440,900,,,a,1.184,10,248,1,0,4,4,2,1,1,0,0,0,0,0,0,1,triangle,star,,,,,,,,,,,,,,,,,,,,,,,,,,,,,,,,,,,,,,,,,,,,,,,,,,,,,,
296737,2022-11-27_20h47.26.049,vts_reward_expectancy_bt,2022.2.4,MacIntel,58.82352941,Safari,1440,900,,,a,0.791,1,249,1,0,5,5,8,1,0,0,1,0,0,0,0,1,hexagon,star,,,,,,,,,,,,,,,,,,,,,,,,,,,,,,,,,,,,,,,,,,,,,,,,,,,,,,
296737,2022-11-27_20h47.26.049,vts_reward_expectancy_bt,2022.2.4,MacIntel,58.82352941,Safari,1440,900,,,l,2.2,10,259,1,0,6,6,9,1,0,0,0,1,1,0,0,0,star,triangle,,,,,,,,,,,,,,,,,,,,,,,,,,,,,,,,,,,,,,,,,,,,,,,,,,,,,,
296737,2022-11-27_20h47.26.049,vts_reward_expectancy_bt,2022.2.4,MacIntel,58.82352941,Safari,1440,900,,,l,1.899,1,260,1,0,7,7,5,1,0,1,0,0,0,0,0,1,circle,star,,,,,,,,,,,,,,,,,,,,,,,,,,,,,,,,,,,,,,,,,,,,,,,,,,,,,,
296737,2022-11-27_20h47.26.049,vts_reward_expectancy_bt,2022.2.4,MacIntel,58.82352941,Safari,1440,900,,,l,0.737,1,261,1,0,8,8,11,1,0,0,0,1,0,0,1,0,star,hexagon,,,,,,,,,,,,,,,,,,,,,,,,,,,,,,,,,,,,,,,,,,,,,,,,,,,,,,
296737,2022-11-27_20h47.26.049,vts_reward_expectancy_bt,2022.2.4,MacIntel,58.82352941,Safari,1440,900,,,a,1.15,10,271,1,0,9,9,4,1,0,1,0,0,0,0,1,0,circle,hexagon,,,,,,,,,,,,,,,,,,,,,,,,,,,,,,,,,,,,,,,,,,,,,,,,,,,,,,
296737,2022-11-27_20h47.26.049,vts_reward_expectancy_bt,2022.2.4,MacIntel,58.82352941,Safari,1440,900,,,a,1.179,10,281,1,0,10,10,10,1,0,0,0,1,0,1,0,0,star ,circle,,,,,,,,,,,,,,,,,,,,,,,,,,,,,,,,,,,,,,,,,,,,,,,,,,,,,,
296737,2022-11-27_20h47.26.049,vts_reward_expectancy_bt,2022.2.4,MacIntel,58.82352941,Safari,1440,900,,,l,1.786,10,291,1,0,11,11,0,1,1,0,0,0,0,1,0,0,triangle,circle,,,,,,,,,,,,,,,,,,,,,,,,,,,,,,,,,,,,,,,,,,,,,,,,,,,,,,
296737,2022-11-27_20h47.26.049,vts_reward_expectancy_bt,2022.2.4,MacIntel,58.82352941,Safari,1440,900,,,a,2.198,10,301,1,1,0,12,3,1,0,1,0,0,1,0,0,0,circle,triangle,,,,,,,,,,,,,,,,,,,,,,,,,,,,,,,,,,,,,,,,,,,,,,,,,,,,,,
296737,2022-11-27_20h47.26.049,vts_reward_expectancy_bt,2022.2.4,MacIntel,58.82352941,Safari,1440,900,,,a,1.352,1,302,1,1,1,13,11,1,0,0,0,1,0,0,1,0,star,hexagon,,,,,,,,,,,,,,,,,,,,,,,,,,,,,,,,,,,,,,,,,,,,,,,,,,,,,,
296737,2022-11-27_20h47.26.049,vts_reward_expectancy_bt,2022.2.4,MacIntel,58.82352941,Safari,1440,900,,,l,0.998,10,312,1,1,2,14,5,1,0,1,0,0,0,0,0,1,circle,star,,,,,,,,,,,,,,,,,,,,,,,,,,,,,,,,,,,,,,,,,,,,,,,,,,,,,,
296737,2022-11-27_20h47.26.049,vts_reward_expectancy_bt,2022.2.4,MacIntel,58.82352941,Safari,1440,900,,,l,1.051,1,313,1,1,3,15,2,1,1,0,0,0,0,0,0,1,triangle,star,,,,,,,,,,,,,,,,,,,,,,,,,,,,,,,,,,,,,,,,,,,,,,,,,,,,,,
296737,2022-11-27_20h47.26.049,vts_reward_expectancy_bt,2022.2.4,MacIntel,58.82352941,Safari,1440,900,,,a,0.734,10,323,1,1,4,16,7,1,0,0,1,0,0,1,0,0,hexagon,circle,,,,,,,,,,,,,,,,,,,,,,,,,,,,,,,,,,,,,,,,,,,,,,,,,,,,,,
296737,2022-11-27_20h47.26.049,vts_reward_expectancy_bt,2022.2.4,MacIntel,58.82352941,Safari,1440,900,,,a,1.534,10,333,1,1,5,17,1,1,1,0,0,0,0,0,1,0,triangle,hexagon,,,,,,,,,,,,,,,,,,,,,,,,,,,,,,,,,,,,,,,,,,,,,,,,,,,,,,
296737,2022-11-27_20h47.26.049,vts_reward_expectancy_bt,2022.2.4,MacIntel,58.82352941,Safari,1440,900,,,a,0.637,1,334,1,1,6,18,8,1,0,0,1,0,0,0,0,1,hexagon,star,,,,,,,,,,,,,,,,,,,,,,,,,,,,,,,,,,,,,,,,,,,,,,,,,,,,,,
296737,2022-11-27_20h47.26.049,vts_reward_expectancy_bt,2022.2.4,MacIntel,58.82352941,Safari,1440,900,,,l,2.136,10,344,1,1,7,19,10,1,0,0,0,1,0,1,0,0,star ,circle,,,,,,,,,,,,,,,,,,,,,,,,,,,,,,,,,,,,,,,,,,,,,,,,,,,,,,
296737,2022-11-27_20h47.26.049,vts_reward_expectancy_bt,2022.2.4,MacIntel,58.82352941,Safari,1440,900,,,l,1.308,10,354,1,1,8,20,6,1,0,0,1,0,1,0,0,0,hexagon,triangle,,,,,,,,,,,,,,,,,,,,,,,,,,,,,,,,,,,,,,,,,,,,,,,,,,,,,,
296737,2022-11-27_20h47.26.049,vts_reward_expectancy_bt,2022.2.4,MacIntel,58.82352941,Safari,1440,900,,,l,0.934,10,364,1,1,9,21,9,1,0,0,0,1,1,0,0,0,star,triangle,,,,,,,,,,,,,,,,,,,,,,,,,,,,,,,,,,,,,,,,,,,,,,,,,,,,,,
296737,2022-11-27_20h47.26.049,vts_reward_expectancy_bt,2022.2.4,MacIntel,58.82352941,Safari,1440,900,,,a,0.441,1,365,1,1,10,22,0,1,1,0,0,0,0,1,0,0,triangle,circle,,,,,,,,,,,,,,,,,,,,,,,,,,,,,,,,,,,,,,,,,,,,,,,,,,,,,,
296737,2022-11-27_20h47.26.049,vts_reward_expectancy_bt,2022.2.4,MacIntel,58.82352941,Safari,1440,900,,,a,0.481,10,375,1,1,11,23,4,1,0,1,0,0,0,0,1,0,circle,hexagon,,,,,,,,,,,,,,,,,,,,,,,,,,,,,,,,,,,,,,,,,,,,,,,,,,,,,,
296737,2022-11-27_20h47.26.049,vts_reward_expectancy_bt,2022.2.4,MacIntel,58.82352941,Safari,1440,900,,,l,0.606,10,385,1,2,0,24,7,1,0,0,1,0,0,1,0,0,hexagon,circle,,,,,,,,,,,,,,,,,,,,,,,,,,,,,,,,,,,,,,,,,,,,,,,,,,,,,,
296737,2022-11-27_20h47.26.049,vts_reward_expectancy_bt,2022.2.4,MacIntel,58.82352941,Safari,1440,900,,,a,0.541,10,395,1,2,1,25,0,1,1,0,0,0,0,1,0,0,triangle,circle,,,,,,,,,,,,,,,,,,,,,,,,,,,,,,,,,,,,,,,,,,,,,,,,,,,,,,
296737,2022-11-27_20h47.26.049,vts_reward_expectancy_bt,2022.2.4,MacIntel,58.82352941,Safari,1440,900,,,l,0.685,10,405,1,2,2,26,10,1,0,0,0,1,0,1,0,0,star ,circle,,,,,,,,,,,,,,,,,,,,,,,,,,,,,,,,,,,,,,,,,,,,,,,,,,,,,,
296737,2022-11-27_20h47.26.049,vts_reward_expectancy_bt,2022.2.4,MacIntel,58.82352941,Safari,1440,900,,,a,0.633,10,415,1,2,3,27,2,1,1,0,0,0,0,0,0,1,triangle,star,,,,,,,,,,,,,,,,,,,,,,,,,,,,,,,,,,,,,,,,,,,,,,,,,,,,,,
296737,2022-11-27_20h47.26.049,vts_reward_expectancy_bt,2022.2.4,MacIntel,58.82352941,Safari,1440,900,,,a,0.684,1,416,1,2,4,28,4,1,0,1,0,0,0,0,1,0,circle,hexagon,,,,,,,,,,,,,,,,,,,,,,,,,,,,,,,,,,,,,,,,,,,,,,,,,,,,,,
296737,2022-11-27_20h47.26.049,vts_reward_expectancy_bt,2022.2.4,MacIntel,58.82352941,Safari,1440,900,,,l,0.817,10,426,1,2,5,29,6,1,0,0,1,0,1,0,0,0,hexagon,triangle,,,,,,,,,,,,,,,,,,,,,,,,,,,,,,,,,,,,,,,,,,,,,,,,,,,,,,
296737,2022-11-27_20h47.26.049,vts_reward_expectancy_bt,2022.2.4,MacIntel,58.82352941,Safari,1440,900,,,a,1.423,10,436,1,2,6,30,11,1,0,0,0,1,0,0,1,0,star,hexagon,,,,,,,,,,,,,,,,,,,,,,,,,,,,,,,,,,,,,,,,,,,,,,,,,,,,,,
296737,2022-11-27_20h47.26.049,vts_reward_expectancy_bt,2022.2.4,MacIntel,58.82352941,Safari,1440,900,,,a,1.099,10,446,1,2,7,31,5,1,0,1,0,0,0,0,0,1,circle,star,,,,,,,,,,,,,,,,,,,,,,,,,,,,,,,,,,,,,,,,,,,,,,,,,,,,,,
296737,2022-11-27_20h47.26.049,vts_reward_expectancy_bt,2022.2.4,MacIntel,58.82352941,Safari,1440,900,,,a,1.266,1,447,1,2,8,32,8,1,0,0,1,0,0,0,0,1,hexagon,star,,,,,,,,,,,,,,,,,,,,,,,,,,,,,,,,,,,,,,,,,,,,,,,,,,,,,,
296737,2022-11-27_20h47.26.049,vts_reward_expectancy_bt,2022.2.4,MacIntel,58.82352941,Safari,1440,900,,,l,1.034,10,457,1,2,9,33,9,1,0,0,0,1,1,0,0,0,star,triangle,,,,,,,,,,,,,,,,,,,,,,,,,,,,,,,,,,,,,,,,,,,,,,,,,,,,,,
296737,2022-11-27_20h47.26.049,vts_reward_expectancy_bt,2022.2.4,MacIntel,58.82352941,Safari,1440,900,,,a,1.453,10,467,1,2,10,34,1,1,1,0,0,0,0,0,1,0,triangle,hexagon,,,,,,,,,,,,,,,,,,,,,,,,,,,,,,,,,,,,,,,,,,,,,,,,,,,,,,
296737,2022-11-27_20h47.26.049,vts_reward_expectancy_bt,2022.2.4,MacIntel,58.82352941,Safari,1440,900,,,l,1.433,10,477,1,2,11,35,3,1,0,1,0,0,1,0,0,0,circle,triangle,,,,,,,,,,,,,,,,,,,,,,,,,,,,,,,,,,,,,,,,,,,,,,,,,,,,,,
296737,2022-11-27_20h47.26.049,vts_reward_expectancy_bt,2022.2.4,MacIntel,58.82352941,Safari,1440,900,,,a,2.095,1,478,2,0,0,0,1,1,1,0,0,0,0,0,1,0,triangle,hexagon,,,,,,,,,,,,,,,,,,,,,,,,,,,,,,,,,,,,,,,,,,,,,,,,,,,,,,
296737,2022-11-27_20h47.26.049,vts_reward_expectancy_bt,2022.2.4,MacIntel,58.82352941,Safari,1440,900,,,l,1.217,10,488,2,0,1,1,6,1,0,0,1,0,1,0,0,0,hexagon,triangle,,,,,,,,,,,,,,,,,,,,,,,,,,,,,,,,,,,,,,,,,,,,,,,,,,,,,,
296737,2022-11-27_20h47.26.049,vts_reward_expectancy_bt,2022.2.4,MacIntel,58.82352941,Safari,1440,900,,,l,3.29,10,498,2,0,2,2,9,1,0,0,0,1,1,0,0,0,star,triangle,,,,,,,,,,,,,,,,,,,,,,,,,,,,,,,,,,,,,,,,,,,,,,,,,,,,,,
296737,2022-11-27_20h47.26.049,vts_reward_expectancy_bt,2022.2.4,MacIntel,58.82352941,Safari,1440,900,,,l,1.216,1,499,2,0,3,3,7,1,0,0,1,0,0,1,0,0,hexagon,circle,,,,,,,,,,,,,,,,,,,,,,,,,,,,,,,,,,,,,,,,,,,,,,,,,,,,,,
296737,2022-11-27_20h47.26.049,vts_reward_expectancy_bt,2022.2.4,MacIntel,58.82352941,Safari,1440,900,,,a,0.431,10,509,2,0,4,4,2,1,1,0,0,0,0,0,0,1,triangle,star,,,,,,,,,,,,,,,,,,,,,,,,,,,,,,,,,,,,,,,,,,,,,,,,,,,,,,
296737,2022-11-27_20h47.26.049,vts_reward_expectancy_bt,2022.2.4,MacIntel,58.82352941,Safari,1440,900,,,l,0.607,10,519,2,0,5,5,10,1,0,0,0,1,0,1,0,0,star ,circle,,,,,,,,,,,,,,,,,,,,,,,,,,,,,,,,,,,,,,,,,,,,,,,,,,,,,,
296737,2022-11-27_20h47.26.049,vts_reward_expectancy_bt,2022.2.4,MacIntel,58.82352941,Safari,1440,900,,,a,0.506,10,529,2,0,6,6,5,1,0,1,0,0,0,0,0,1,circle,star,,,,,,,,,,,,,,,,,,,,,,,,,,,,,,,,,,,,,,,,,,,,,,,,,,,,,,
296737,2022-11-27_20h47.26.049,vts_reward_expectancy_bt,2022.2.4,MacIntel,58.82352941,Safari,1440,900,,,a,0.634,1,530,2,0,7,7,4,1,0,1,0,0,0,0,1,0,circle,hexagon,,,,,,,,,,,,,,,,,,,,,,,,,,,,,,,,,,,,,,,,,,,,,,,,,,,,,,
296737,2022-11-27_20h47.26.049,vts_reward_expectancy_bt,2022.2.4,MacIntel,58.82352941,Safari,1440,900,,,l,3.8,1,531,2,0,8,8,11,1,0,0,0,1,0,0,1,0,star,hexagon,,,,,,,,,,,,,,,,,,,,,,,,,,,,,,,,,,,,,,,,,,,,,,,,,,,,,,
296737,2022-11-27_20h47.26.049,vts_reward_expectancy_bt,2022.2.4,MacIntel,58.82352941,Safari,1440,900,,,a,0.549,10,541,2,0,9,9,0,1,1,0,0,0,0,1,0,0,triangle,circle,,,,,,,,,,,,,,,,,,,,,,,,,,,,,,,,,,,,,,,,,,,,,,,,,,,,,,
296737,2022-11-27_20h47.26.049,vts_reward_expectancy_bt,2022.2.4,MacIntel,58.82352941,Safari,1440,900,,,l,3.388,1,542,2,0,10,10,3,1,0,1,0,0,1,0,0,0,circle,triangle,,,,,,,,,,,,,,,,,,,,,,,,,,,,,,,,,,,,,,,,,,,,,,,,,,,,,,
296737,2022-11-27_20h47.26.049,vts_reward_expectancy_bt,2022.2.4,MacIntel,58.82352941,Safari,1440,900,,,a,3.305,1,543,2,0,11,11,8,1,0,0,1,0,0,0,0,1,hexagon,star,,,,,,,,,,,,,,,,,,,,,,,,,,,,,,,,,,,,,,,,,,,,,,,,,,,,,,
296737,2022-11-27_20h47.26.049,vts_reward_expectancy_bt,2022.2.4,MacIntel,58.82352941,Safari,1440,900,,,a,0.606,10,553,2,1,0,12,0,1,1,0,0,0,0,1,0,0,triangle,circle,,,,,,,,,,,,,,,,,,,,,,,,,,,,,,,,,,,,,,,,,,,,,,,,,,,,,,
296737,2022-11-27_20h47.26.049,vts_reward_expectancy_bt,2022.2.4,MacIntel,58.82352941,Safari,1440,900,,,l,0.436,10,563,2,1,1,13,6,1,0,0,1,0,1,0,0,0,hexagon,triangle,,,,,,,,,,,,,,,,,,,,,,,,,,,,,,,,,,,,,,,,,,,,,,,,,,,,,,
296737,2022-11-27_20h47.26.049,vts_reward_expectancy_bt,2022.2.4,MacIntel,58.82352941,Safari,1440,900,,,a,0.517,1,564,2,1,2,14,1,1,1,0,0,0,0,0,1,0,triangle,hexagon,,,,,,,,,,,,,,,,,,,,,,,,,,,,,,,,,,,,,,,,,,,,,,,,,,,,,,
296737,2022-11-27_20h47.26.049,vts_reward_expectancy_bt,2022.2.4,MacIntel,58.82352941,Safari,1440,900,,,l,0.616,10,574,2,1,3,15,7,1,0,0,1,0,0,1,0,0,hexagon,circle,,,,,,,,,,,,,,,,,,,,,,,,,,,,,,,,,,,,,,,,,,,,,,,,,,,,,,
296737,2022-11-27_20h47.26.049,vts_reward_expectancy_bt,2022.2.4,MacIntel,58.82352941,Safari,1440,900,,,l,0.467,1,575,2,1,4,16,9,1,0,0,0,1,1,0,0,0,star,triangle,,,,,,,,,,,,,,,,,,,,,,,,,,,,,,,,,,,,,,,,,,,,,,,,,,,,,,
296737,2022-11-27_20h47.26.049,vts_reward_expectancy_bt,2022.2.4,MacIntel,58.82352941,Safari,1440,900,,,l,0.434,1,576,2,1,5,17,5,1,0,1,0,0,0,0,0,1,circle,star,,,,,,,,,,,,,,,,,,,,,,,,,,,,,,,,,,,,,,,,,,,,,,,,,,,,,,
296737,2022-11-27_20h47.26.049,vts_reward_expectancy_bt,2022.2.4,MacIntel,58.82352941,Safari,1440,900,,,l,0.516,1,577,2,1,6,18,10,1,0,0,0,1,0,1,0,0,star ,circle,,,,,,,,,,,,,,,,,,,,,,,,,,,,,,,,,,,,,,,,,,,,,,,,,,,,,,
296737,2022-11-27_20h47.26.049,vts_reward_expectancy_bt,2022.2.4,MacIntel,58.82352941,Safari,1440,900,,,a,1.068,1,578,2,1,7,19,8,1,0,0,1,0,0,0,0,1,hexagon,star,,,,,,,,,,,,,,,,,,,,,,,,,,,,,,,,,,,,,,,,,,,,,,,,,,,,,,
296737,2022-11-27_20h47.26.049,vts_reward_expectancy_bt,2022.2.4,MacIntel,58.82352941,Safari,1440,900,,,l,0.452,10,588,2,1,8,20,3,1,0,1,0,0,1,0,0,0,circle,triangle,,,,,,,,,,,,,,,,,,,,,,,,,,,,,,,,,,,,,,,,,,,,,,,,,,,,,,
296737,2022-11-27_20h47.26.049,vts_reward_expectancy_bt,2022.2.4,MacIntel,58.82352941,Safari,1440,900,,,a,0.416,10,598,2,1,9,21,2,1,1,0,0,0,0,0,0,1,triangle,star,,,,,,,,,,,,,,,,,,,,,,,,,,,,,,,,,,,,,,,,,,,,,,,,,,,,,,
296737,2022-11-27_20h47.26.049,vts_reward_expectancy_bt,2022.2.4,MacIntel,58.82352941,Safari,1440,900,,,a,1.525,1,599,2,1,10,22,11,1,0,0,0,1,0,0,1,0,star,hexagon,,,,,,,,,,,,,,,,,,,,,,,,,,,,,,,,,,,,,,,,,,,,,,,,,,,,,,
296737,2022-11-27_20h47.26.049,vts_reward_expectancy_bt,2022.2.4,MacIntel,58.82352941,Safari,1440,900,,,l,0.816,1,600,2,1,11,23,4,1,0,1,0,0,0,0,1,0,circle,hexagon,,,,,,,,,,,,,,,,,,,,,,,,,,,,,,,,,,,,,,,,,,,,,,,,,,,,,,
296737,2022-11-27_20h47.26.049,vts_reward_expectancy_bt,2022.2.4,MacIntel,58.82352941,Safari,1440,900,,,l,0.816,1,601,2,2,0,24,11,1,0,0,0,1,0,0,1,0,star,hexagon,,,,,,,,,,,,,,,,,,,,,,,,,,,,,,,,,,,,,,,,,,,,,,,,,,,,,,
296737,2022-11-27_20h47.26.049,vts_reward_expectancy_bt,2022.2.4,MacIntel,58.82352941,Safari,1440,900,,,a,0.567,1,602,2,2,1,25,5,1,0,1,0,0,0,0,0,1,circle,star,,,,,,,,,,,,,,,,,,,,,,,,,,,,,,,,,,,,,,,,,,,,,,,,,,,,,,
296737,2022-11-27_20h47.26.049,vts_reward_expectancy_bt,2022.2.4,MacIntel,58.82352941,Safari,1440,900,,,a,1.017,10,612,2,2,2,26,4,1,0,1,0,0,0,0,1,0,circle,hexagon,,,,,,,,,,,,,,,,,,,,,,,,,,,,,,,,,,,,,,,,,,,,,,,,,,,,,,
296737,2022-11-27_20h47.26.049,vts_reward_expectancy_bt,2022.2.4,MacIntel,58.82352941,Safari,1440,900,,,a,0.45,10,622,2,2,3,27,1,1,1,0,0,0,0,0,1,0,triangle,hexagon,,,,,,,,,,,,,,,,,,,,,,,,,,,,,,,,,,,,,,,,,,,,,,,,,,,,,,
296737,2022-11-27_20h47.26.049,vts_reward_expectancy_bt,2022.2.4,MacIntel,58.82352941,Safari,1440,900,,,l,0.719,1,623,2,2,4,28,9,1,0,0,0,1,1,0,0,0,star,triangle,,,,,,,,,,,,,,,,,,,,,,,,,,,,,,,,,,,,,,,,,,,,,,,,,,,,,,
296737,2022-11-27_20h47.26.049,vts_reward_expectancy_bt,2022.2.4,MacIntel,58.82352941,Safari,1440,900,,,a,0.499,1,624,2,2,5,29,7,1,0,0,1,0,0,1,0,0,hexagon,circle,,,,,,,,,,,,,,,,,,,,,,,,,,,,,,,,,,,,,,,,,,,,,,,,,,,,,,
296737,2022-11-27_20h47.26.049,vts_reward_expectancy_bt,2022.2.4,MacIntel,58.82352941,Safari,1440,900,,,a,0.601,1,625,2,2,6,30,6,1,0,0,1,0,1,0,0,0,hexagon,triangle,,,,,,,,,,,,,,,,,,,,,,,,,,,,,,,,,,,,,,,,,,,,,,,,,,,,,,
296737,2022-11-27_20h47.26.049,vts_reward_expectancy_bt,2022.2.4,MacIntel,58.82352941,Safari,1440,900,,,l,0.453,10,635,2,2,7,31,3,1,0,1,0,0,1,0,0,0,circle,triangle,,,,,,,,,,,,,,,,,,,,,,,,,,,,,,,,,,,,,,,,,,,,,,,,,,,,,,
296737,2022-11-27_20h47.26.049,vts_reward_expectancy_bt,2022.2.4,MacIntel,58.82352941,Safari,1440,900,,,a,1.053,10,645,2,2,8,32,10,1,0,0,0,1,0,1,0,0,star ,circle,,,,,,,,,,,,,,,,,,,,,,,,,,,,,,,,,,,,,,,,,,,,,,,,,,,,,,
296737,2022-11-27_20h47.26.049,vts_reward_expectancy_bt,2022.2.4,MacIntel,58.82352941,Safari,1440,900,,,a,0.788,10,655,2,2,9,33,2,1,1,0,0,0,0,0,0,1,triangle,star,,,,,,,,,,,,,,,,,,,,,,,,,,,,,,,,,,,,,,,,,,,,,,,,,,,,,,
296737,2022-11-27_20h47.26.049,vts_reward_expectancy_bt,2022.2.4,MacIntel,58.82352941,Safari,1440,900,,,l,0.984,1,656,2,2,10,34,0,1,1,0,0,0,0,1,0,0,triangle,circle,,,,,,,,,,,,,,,,,,,,,,,,,,,,,,,,,,,,,,,,,,,,,,,,,,,,,,
296737,2022-11-27_20h47.26.049,vts_reward_expectancy_bt,2022.2.4,MacIntel,58.82352941,Safari,1440,900,,,a,0.55,10,666,2,2,11,35,8,1,0,0,1,0,0,0,0,1,hexagon,star,,,,,,,,,,,,,,,,,,,,,,,,,,,,,,,,,,,,,,,,,,,,,,,,,,,,,,
296737,2022-11-27_20h47.26.049,vts_reward_expectancy_bt,2022.2.4,MacIntel,58.82352941,Safari,1440,900,,,,,,,,,,,,,,,,,,,,,,,F,174,circle,0,0,f,0.194,0,0,0,0,0,1,,,,,,,,,,,,,,,,,,,,,,,,,,,,,,,,,,,,,,,,,
296737,2022-11-27_20h47.26.049,vts_reward_expectancy_bt,2022.2.4,MacIntel,58.82352941,Safari,1440,900,,,,,,,,,,,,,,,,,,,,,,,D,160,hexagon,1,1,d,0.742,0,1,0,1,0,1,,,,,,,,,,,,,,,,,,,,,,,,,,,,,,,,,,,,,,,,,
296737,2022-11-27_20h47.26.049,vts_reward_expectancy_bt,2022.2.4,MacIntel,58.82352941,Safari,1440,900,,,,,,,,,,,,,,,,,,,,,,,W,132,triangle,1,0,f,0.86,0,2,0,2,0,1,,,,,,,,,,,,,,,,,,,,,,,,,,,,,,,,,,,,,,,,,
296737,2022-11-27_20h47.26.049,vts_reward_expectancy_bt,2022.2.4,MacIntel,58.82352941,Safari,1440,900,,,,,,,,,,,,,,,,,,,,,,,U,181,star,1,0,f,1.21,0,3,0,3,0,1,,,,,,,,,,,,,,,,,,,,,,,,,,,,,,,,,,,,,,,,,
296737,2022-11-27_20h47.26.049,vts_reward_expectancy_bt,2022.2.4,MacIntel,58.82352941,Safari,1440,900,,,,,,,,,,,,,,,,,,,,,,,Y,146,circle,1,0,f,0.843,0,4,0,4,0,1,,,,,,,,,,,,,,,,,,,,,,,,,,,,,,,,,,,,,,,,,
296737,2022-11-27_20h47.26.049,vts_reward_expectancy_bt,2022.2.4,MacIntel,58.82352941,Safari,1440,900,,,,,,,,,,,,,,,,,,,,,,,H,139,hexagon,1,0,d,0.992,0,5,0,5,0,1,,,,,,,,,,,,,,,,,,,,,,,,,,,,,,,,,,,,,,,,,
296737,2022-11-27_20h47.26.049,vts_reward_expectancy_bt,2022.2.4,MacIntel,58.82352941,Safari,1440,900,,,,,,,,,,,,,,,,,,,,,,,S,125,triangle,1,0,f,0.87,0,6,0,6,0,1,,,,,,,,,,,,,,,,,,,,,,,,,,,,,,,,,,,,,,,,,
296737,2022-11-27_20h47.26.049,vts_reward_expectancy_bt,2022.2.4,MacIntel,58.82352941,Safari,1440,900,,,,,,,,,,,,,,,,,,,,,,,B,167,star,1,0,d,0.561,0,7,0,7,0,1,,,,,,,,,,,,,,,,,,,,,,,,,,,,,,,,,,,,,,,,,
296737,2022-11-27_20h47.26.049,vts_reward_expectancy_bt,2022.2.4,MacIntel,58.82352941,Safari,1440,900,,,,,,,,,,,,,,,,,,,,,,,F,174,triangle,1,0,d,0.716,0,8,0,8,0,1,,,,,,,,,,,,,,,,,,,,,,,,,,,,,,,,,,,,,,,,,
296737,2022-11-27_20h47.26.049,vts_reward_expectancy_bt,2022.2.4,MacIntel,58.82352941,Safari,1440,900,,,,,,,,,,,,,,,,,,,,,,,D,160,star,1,0,d,0.548,0,9,0,9,0,1,,,,,,,,,,,,,,,,,,,,,,,,,,,,,,,,,,,,,,,,,
296737,2022-11-27_20h47.26.049,vts_reward_expectancy_bt,2022.2.4,MacIntel,58.82352941,Safari,1440,900,,,,,,,,,,,,,,,,,,,,,,,S,132,circle,1,0,,,1,,,,,,j,1.06,0,0,0,0,1,,,,,,,,,,,,,,,,,,,,,,,,,,,,,,,,,,
296737,2022-11-27_20h47.26.049,vts_reward_expectancy_bt,2022.2.4,MacIntel,58.82352941,Safari,1440,900,,,,,,,,,,,,,,,,,,,,,,,F,181,triangle,1,0,,,1,,,,,,k,1.194,1,0,1,0,1,,,,,,,,,,,,,,,,,,,,,,,,,,,,,,,,,,
296737,2022-11-27_20h47.26.049,vts_reward_expectancy_bt,2022.2.4,MacIntel,58.82352941,Safari,1440,900,,,,,,,,,,,,,,,,,,,,,,,B,125,star,1,0,,,1,,,,,,j,0.88,2,0,2,0,1,,,,,,,,,,,,,,,,,,,,,,,,,,,,,,,,,,
296737,2022-11-27_20h47.26.049,vts_reward_expectancy_bt,2022.2.4,MacIntel,58.82352941,Safari,1440,900,,,,,,,,,,,,,,,,,,,,,,,Y,160,hexagon,1,0,,,1,,,,,,k,0.662,3,0,3,0,1,,,,,,,,,,,,,,,,,,,,,,,,,,,,,,,,,,
296737,2022-11-27_20h47.26.049,vts_reward_expectancy_bt,2022.2.4,MacIntel,58.82352941,Safari,1440,900,,,,,,,,,,,,,,,,,,,,,,,U,146,circle,1,0,,,1,,,,,,j,0.694,4,0,4,0,1,,,,,,,,,,,,,,,,,,,,,,,,,,,,,,,,,,
296737,2022-11-27_20h47.26.049,vts_reward_expectancy_bt,2022.2.4,MacIntel,58.82352941,Safari,1440,900,,,,,,,,,,,,,,,,,,,,,,,D,174,triangle,1,0,,,1,,,,,,k,0.63,5,0,5,0,1,,,,,,,,,,,,,,,,,,,,,,,,,,,,,,,,,,
296737,2022-11-27_20h47.26.049,vts_reward_expectancy_bt,2022.2.4,MacIntel,58.82352941,Safari,1440,900,,,,,,,,,,,,,,,,,,,,,,,W,139,star,1,0,,,1,,,,,,j,1.11,6,0,6,0,1,,,,,,,,,,,,,,,,,,,,,,,,,,,,,,,,,,
296737,2022-11-27_20h47.26.049,vts_reward_expectancy_bt,2022.2.4,MacIntel,58.82352941,Safari,1440,900,,,,,,,,,,,,,,,,,,,,,,,H,167,hexagon,0,0,,,1,,,,,,j,0.843,7,0,7,0,1,,,,,,,,,,,,,,,,,,,,,,,,,,,,,,,,,,
296737,2022-11-27_20h47.26.049,vts_reward_expectancy_bt,2022.2.4,MacIntel,58.82352941,Safari,1440,900,,,,,,,,,,,,,,,,,,,,,,,S,132,hexagon,0,1,,,1,,,,,,,,8,0,8,0,1,,,,,,,,,,,,,,,,,,,,,,,,,,,,,,,,,,
296737,2022-11-27_20h47.26.049,vts_reward_expectancy_bt,2022.2.4,MacIntel,58.82352941,Safari,1440,900,,,,,,,,,,,,,,,,,,,,,,,F,181,triangle,0,1,,,1,,,,,,,,9,0,9,0,1,,,,,,,,,,,,,,,,,,,,,,,,,,,,,,,,,,
296737,2022-11-27_20h47.26.049,vts_reward_expectancy_bt,2022.2.4,MacIntel,58.82352941,Safari,1440,900,,,,,,,,,,,,,,,,,,,,,,,W,181,hexagon,1,1,,,2,,,,,,k,0.682,0,0,0,0,1,,,,,,,,,,,,,,,,,,,,,,,,,,,,,,,,,,
296737,2022-11-27_20h47.26.049,vts_reward_expectancy_bt,2022.2.4,MacIntel,58.82352941,Safari,1440,900,,,,,,,,,,,,,,,,,,,,,,,U,174,circle,1,0,,,2,,,,,,k,0.593,1,0,1,0,1,,,,,,,,,,,,,,,,,,,,,,,,,,,,,,,,,,
296737,2022-11-27_20h47.26.049,vts_reward_expectancy_bt,2022.2.4,MacIntel,58.82352941,Safari,1440,900,,,,,,,,,,,,,,,,,,,,,,,H,125,star,1,0,,,2,,,,,,j,0.827,2,0,2,0,1,,,,,,,,,,,,,,,,,,,,,,,,,,,,,,,,,,
296737,2022-11-27_20h47.26.049,vts_reward_expectancy_bt,2022.2.4,MacIntel,58.82352941,Safari,1440,900,,,,,,,,,,,,,,,,,,,,,,,S,160,triangle,1,0,,,2,,,,,,k,1.129,3,0,3,0,1,,,,,,,,,,,,,,,,,,,,,,,,,,,,,,,,,,
296737,2022-11-27_20h47.26.049,vts_reward_expectancy_bt,2022.2.4,MacIntel,58.82352941,Safari,1440,900,,,,,,,,,,,,,,,,,,,,,,,F,167,hexagon,1,0,,,2,,,,,,k,1.312,4,0,4,0,1,,,,,,,,,,,,,,,,,,,,,,,,,,,,,,,,,,
296737,2022-11-27_20h47.26.049,vts_reward_expectancy_bt,2022.2.4,MacIntel,58.82352941,Safari,1440,900,,,,,,,,,,,,,,,,,,,,,,,D,132,circle,1,0,,,2,,,,,,j,0.844,5,0,5,0,1,,,,,,,,,,,,,,,,,,,,,,,,,,,,,,,,,,
296737,2022-11-27_20h47.26.049,vts_reward_expectancy_bt,2022.2.4,MacIntel,58.82352941,Safari,1440,900,,,,,,,,,,,,,,,,,,,,,,,B,146,star,1,0,,,2,,,,,,j,0.727,6,0,6,0,1,,,,,,,,,,,,,,,,,,,,,,,,,,,,,,,,,,
296737,2022-11-27_20h47.26.049,vts_reward_expectancy_bt,2022.2.4,MacIntel,58.82352941,Safari,1440,900,,,,,,,,,,,,,,,,,,,,,,,Y,139,triangle,1,0,,,2,,,,,,j,0.727,7,0,7,0,1,,,,,,,,,,,,,,,,,,,,,,,,,,,,,,,,,,
296737,2022-11-27_20h47.26.049,vts_reward_expectancy_bt,2022.2.4,MacIntel,58.82352941,Safari,1440,900,,,,,,,,,,,,,,,,,,,,,,,W,181,triangle,1,0,,,2,,,,,,k,0.544,8,0,8,0,1,,,,,,,,,,,,,,,,,,,,,,,,,,,,,,,,,,
296737,2022-11-27_20h47.26.049,vts_reward_expectancy_bt,2022.2.4,MacIntel,58.82352941,Safari,1440,900,,,,,,,,,,,,,,,,,,,,,,,U,174,star,1,0,,,2,,,,,,k,0.711,9,0,9,0,1,,,,,,,,,,,,,,,,,,,,,,,,,,,,,,,,,,
296737,2022-11-27_20h47.26.049,vts_reward_expectancy_bt,2022.2.4,MacIntel,58.82352941,Safari,1440,900,,,,,0,666,,,,,,,,,,,,,,,,,S,174,star,1,0,,,3,,,,,,,,,,,,,-1,letter,NA,f,1.848,vtsPrac,0,0,0,0,1,,,,,,,,,,,,,,,,,,,,,,,
296737,2022-11-27_20h47.26.049,vts_reward_expectancy_bt,2022.2.4,MacIntel,58.82352941,Safari,1440,900,,,,,0,666,,,,,,,,,,,,,,,,,W,139,hexagon,1,0,,,3,,,,,,,,,,,,,repeat,letter,lettRpt,f,0.83,vtsPrac,1,0,1,0,1,,,,,,,,,,,,,,,,,,,,,,,
296737,2022-11-27_20h47.26.049,vts_reward_expectancy_bt,2022.2.4,MacIntel,58.82352941,Safari,1440,900,,,,,0,666,,,,,,,,,,,,,,,,,U,132,star,1,0,,,3,,,,,,,,,,,,,switch,number,numSwt,j,0.91,vtsPrac,2,0,2,0,1,,,,,,,,,,,,,,,,,,,,,,,
296737,2022-11-27_20h47.26.049,vts_reward_expectancy_bt,2022.2.4,MacIntel,58.82352941,Safari,1440,900,,,,,0,666,,,,,,,,,,,,,,,,,B,181,hexagon,1,0,,,3,,,,,,,,,,,,,switch,letter,lettSwt,d,0.625,vtsPrac,3,0,3,0,1,,,,,,,,,,,,,,,,,,,,,,,
296737,2022-11-27_20h47.26.049,vts_reward_expectancy_bt,2022.2.4,MacIntel,58.82352941,Safari,1440,900,,,,,0,666,,,,,,,,,,,,,,,,,S,174,hexagon,1,0,,,3,,,,,,,,,,,,,switch,number,numSwt,k,0.677,vtsPrac,4,0,4,0,1,,,,,,,,,,,,,,,,,,,,,,,
296737,2022-11-27_20h47.26.049,vts_reward_expectancy_bt,2022.2.4,MacIntel,58.82352941,Safari,1440,900,,,,,0,666,,,,,,,,,,,,,,,,,W,139,star,1,0,,,3,,,,,,,,,,,,,switch,letter,lettSwt,f,0.543,vtsPrac,5,0,5,0,1,,,,,,,,,,,,,,,,,,,,,,,
296737,2022-11-27_20h47.26.049,vts_reward_expectancy_bt,2022.2.4,MacIntel,58.82352941,Safari,1440,900,,,,,0,666,,,,,,,,,,,,,,,,,U,132,star,1,0,,,3,,,,,,,,,,,,,switch,number,numSwt,j,1.635,vtsPrac,6,0,6,0,1,,,,,,,,,,,,,,,,,,,,,,,
296737,2022-11-27_20h47.26.049,vts_reward_expectancy_bt,2022.2.4,MacIntel,58.82352941,Safari,1440,900,,,,,0,666,,,,,,,,,,,,,,,,,B,181,triangle,1,0,,,3,,,,,,,,,,,,,switch,letter,lettSwt,d,0.529,vtsPrac,7,0,7,0,1,,,,,,,,,,,,,,,,,,,,,,,
296737,2022-11-27_20h47.26.049,vts_reward_expectancy_bt,2022.2.4,MacIntel,58.82352941,Safari,1440,900,,,,,0,666,,,,,,,,,,,,,,,,,S,181,hexagon,1,0,,,3,,,,,,,,,,,,,repeat,letter,lettRpt,f,0.833,vtsPrac,8,0,8,0,1,,,,,,,,,,,,,,,,,,,,,,,
296737,2022-11-27_20h47.26.049,vts_reward_expectancy_bt,2022.2.4,MacIntel,58.82352941,Safari,1440,900,,,,,0,666,,,,,,,,,,,,,,,,,H,174,triangle,1,0,,,3,,,,,,,,,,,,,switch,number,numSwt,k,0.626,vtsPrac,9,0,9,0,1,,,,,,,,,,,,,,,,,,,,,,,
296737,2022-11-27_20h47.26.049,vts_reward_expectancy_bt,2022.2.4,MacIntel,58.82352941,Safari,1440,900,,,,,0,666,,,,,,,,,,,,,,,,,U,132,triangle,1,0,,,3,,,,,,,,,,,,,repeat,number,numRpt,j,0.645,vtsPrac,10,0,10,0,1,,,,,,,,,,,,,,,,,,,,,,,
296737,2022-11-27_20h47.26.049,vts_reward_expectancy_bt,2022.2.4,MacIntel,58.82352941,Safari,1440,900,,,,,0,666,,,,,,,,,,,,,,,,,B,160,hexagon,1,0,,,3,,,,,,,,,,,,,switch,letter,lettSwt,d,0.694,vtsPrac,11,0,11,0,1,,,,,,,,,,,,,,,,,,,,,,,
296737,2022-11-27_20h47.26.049,vts_reward_expectancy_bt,2022.2.4,MacIntel,58.82352941,Safari,1440,900,,,,,0,666,,,,,,,,,,,,,,,,,H,167,triangle,1,0,,,3,,,,,,,,,,,,,switch,number,numSwt,k,1.647,vtsPrac,12,0,12,0,1,,,,,,,,,,,,,,,,,,,,,,,
296737,2022-11-27_20h47.26.049,vts_reward_expectancy_bt,2022.2.4,MacIntel,58.82352941,Safari,1440,900,,,,,0,666,,,,,,,,,,,,,,,,,Y,132,circle,1,0,,,3,,,,,,,,,,,,,switch,letter,lettSwt,f,0.731,vtsPrac,13,0,13,0,1,,,,,,,,,,,,,,,,,,,,,,,
296737,2022-11-27_20h47.26.049,vts_reward_expectancy_bt,2022.2.4,MacIntel,58.82352941,Safari,1440,900,,,,,0,666,,,,,,,,,,,,,,,,,F,125,hexagon,1,0,,,3,,,,,,,,,,,,,repeat,letter,lettRpt,d,0.861,vtsPrac,14,0,14,0,1,,,,,,,,,,,,,,,,,,,,,,,
296737,2022-11-27_20h47.26.049,vts_reward_expectancy_bt,2022.2.4,MacIntel,58.82352941,Safari,1440,900,,,,,0,666,,,,,,,,,,,,,,,,,U,174,star,1,0,,,3,,,,,,,,,,,,,switch,number,numSwt,k,0.577,vtsPrac,15,0,15,0,1,,,,,,,,,,,,,,,,,,,,,,,
296737,2022-11-27_20h47.26.049,vts_reward_expectancy_bt,2022.2.4,MacIntel,58.82352941,Safari,1440,900,,,,,0,666,,,,,,,,,,,,,,,,,Y,146,star,1,0,,,3,,,,,,,,,,,,,repeat,number,numRpt,j,0.792,vtsPrac,16,0,16,0,1,,,,,,,,,,,,,,,,,,,,,,,
296737,2022-11-27_20h47.26.049,vts_reward_expectancy_bt,2022.2.4,MacIntel,58.82352941,Safari,1440,900,,,,,0,666,,,,,,,,,,,,,,,,,S,125,hexagon,1,0,,,3,,,,,,,,,,,,,switch,letter,lettSwt,f,0.764,vtsPrac,17,0,17,0,1,,,,,,,,,,,,,,,,,,,,,,,
296737,2022-11-27_20h47.26.049,vts_reward_expectancy_bt,2022.2.4,MacIntel,58.82352941,Safari,1440,900,,,,,0,666,,,,,,,,,,,,,,,,,H,132,circle,1,0,,,3,,,,,,,,,,,,,switch,number,numSwt,j,0.61,vtsPrac,18,0,18,0,1,,,,,,,,,,,,,,,,,,,,,,,
296737,2022-11-27_20h47.26.049,vts_reward_expectancy_bt,2022.2.4,MacIntel,58.82352941,Safari,1440,900,,,,,0,666,,,,,,,,,,,,,,,,,B,181,triangle,1,0,,,3,,,,,,,,,,,,,repeat,number,numRpt,k,0.796,vtsPrac,19,0,19,0,1,,,,,,,,,,,,,,,,,,,,,,,
296737,2022-11-27_20h47.26.049,vts_reward_expectancy_bt,2022.2.4,MacIntel,58.82352941,Safari,1440,900,,,,,0,666,,,,,,,,,,,,,,,,,D,181,circle,1,0,,,3,,,,,,,,,,,,,switch,letter,lettSwt,d,0.629,vtsPrac,20,0,20,0,1,,,,,,,,,,,,,,,,,,,,,,,
296737,2022-11-27_20h47.26.049,vts_reward_expectancy_bt,2022.2.4,MacIntel,58.82352941,Safari,1440,900,,,,,0,666,,,,,,,,,,,,,,,,,F,125,star,1,0,,,3,,,,,,,,,,,,,repeat,letter,lettRpt,d,0.879,vtsPrac,21,0,21,0,1,,,,,,,,,,,,,,,,,,,,,,,
296737,2022-11-27_20h47.26.049,vts_reward_expectancy_bt,2022.2.4,MacIntel,58.82352941,Safari,1440,900,,,,,0,666,,,,,,,,,,,,,,,,,B,132,star,1,0,,,3,,,,,,,,,,,,,repeat,letter,lettRpt,d,0.71,vtsPrac,22,0,22,0,1,,,,,,,,,,,,,,,,,,,,,,,
296737,2022-11-27_20h47.26.049,vts_reward_expectancy_bt,2022.2.4,MacIntel,58.82352941,Safari,1440,900,,,,,0,666,,,,,,,,,,,,,,,,,S,139,circle,1,0,,,3,,,,,,,,,,,,,switch,number,numSwt,j,0.944,vtsPrac,23,0,23,0,1,,,,,,,,,,,,,,,,,,,,,,,
296737,2022-11-27_20h47.26.049,vts_reward_expectancy_bt,2022.2.4,MacIntel,58.82352941,Safari,1440,900,,,,,0,666,,,,,,,,,,,,,,,,,Y,139,triangle,1,0,,,3,,,,,,,,,,,,,switch,letter,lettSwt,f,1.265,vtsPrac,24,0,24,0,1,,,,,,,,,,,,,,,,,,,,,,,
296737,2022-11-27_20h47.26.049,vts_reward_expectancy_bt,2022.2.4,MacIntel,58.82352941,Safari,1440,900,,,,,0,666,,,,,,,,,,,,,,,,,D,125,hexagon,1,0,,,3,,,,,,,,,,,,,switch,number,numSwt,j,1.044,vtsPrac,25,0,25,0,1,,,,,,,,,,,,,,,,,,,,,,,
296737,2022-11-27_20h47.26.049,vts_reward_expectancy_bt,2022.2.4,MacIntel,58.82352941,Safari,1440,900,,,,,0,666,,,,,,,,,,,,,,,,,B,160,star,1,0,,,3,,,,,,,,,,,,,repeat,number,numRpt,k,0.577,vtsPrac,26,0,26,0,1,,,,,,,,,,,,,,,,,,,,,,,
296737,2022-11-27_20h47.26.049,vts_reward_expectancy_bt,2022.2.4,MacIntel,58.82352941,Safari,1440,900,,,,,0,666,,,,,,,,,,,,,,,,,S,132,hexagon,1,0,,,3,,,,,,,,,,,,,switch,letter,lettSwt,f,0.626,vtsPrac,27,0,27,0,1,,,,,,,,,,,,,,,,,,,,,,,
296737,2022-11-27_20h47.26.049,vts_reward_expectancy_bt,2022.2.4,MacIntel,58.82352941,Safari,1440,900,,,,,0,666,,,,,,,,,,,,,,,,,Y,125,hexagon,1,0,,,3,,,,,,,,,,,,,switch,number,numSwt,j,0.994,vtsPrac,28,0,28,0,1,,,,,,,,,,,,,,,,,,,,,,,
296737,2022-11-27_20h47.26.049,vts_reward_expectancy_bt,2022.2.4,MacIntel,58.82352941,Safari,1440,900,,,,,0,666,,,,,,,,,,,,,,,,,D,181,circle,1,0,,,3,,,,,,,,,,,,,switch,letter,lettSwt,d,0.81,vtsPrac,29,0,29,0,1,,,,,,,,,,,,,,,,,,,,,,,
296737,2022-11-27_20h47.26.049,vts_reward_expectancy_bt,2022.2.4,MacIntel,58.82352941,Safari,1440,900,,,,,0,666,,,,,,,,,,,,,,,,,S,146,hexagon,1,0,,,3,,,,,,,,,,,,,switch,number,numSwt,j,2.518,vtsPrac,30,0,30,0,1,,,,,,,,,,,,,,,,,,,,,,,
296737,2022-11-27_20h47.26.049,vts_reward_expectancy_bt,2022.2.4,MacIntel,58.82352941,Safari,1440,900,,,,,0,666,,,,,,,,,,,,,,,,,U,139,triangle,1,0,,,3,,,,,,,,,,,,,repeat,number,numRpt,j,2.947,vtsPrac,31,0,31,0,1,,,,,,,,,,,,,,,,,,,,,,,
296737,2022-11-27_20h47.26.049,vts_reward_expectancy_bt,2022.2.4,MacIntel,58.82352941,Safari,1440,900,,,,,,,,,,,,,,,,,,,,,,,,,,,,,,,,,,,,,,,,,,,,,,,,,,,,,,,,,,,,,,,,,,,,,,,,,,,,
296737,2022-11-27_20h47.26.049,vts_reward_expectancy_bt,2022.2.4,MacIntel,58.82352941,Safari,1440,900,,,,,,,,,,,,,,,,,,,,,,,,,,,,,,,,,,,,,,,,,,,,,,,,,,,,,,,,,,,,,,,,,,,,,,,,,,,,
296737,2022-11-27_20h47.26.049,vts_reward_expectancy_bt,2022.2.4,MacIntel,58.82352941,Safari,1440,900,,,,,0,666,,,,,,,,,,,,,,,,,U,160,star,1,0,,,,,,,,,,,,,,,,repeat,number,numRpt,k,1.945,noRew,,,,,,0,0,0,0,0,1,,,,,,,,,,,,,,,,,
296737,2022-11-27_20h47.26.049,vts_reward_expectancy_bt,2022.2.4,MacIntel,58.82352941,Safari,1440,900,,,,,0,666,,,,,,,,,,,,,,,,,Y,167,circle,1,0,,,,,,,,,,,,,,,,repeat,number,numRpt,k,0.828,noRew,,,,,,0,1,0,1,0,1,,,,,,,,,,,,,,,,,
296737,2022-11-27_20h47.26.049,vts_reward_expectancy_bt,2022.2.4,MacIntel,58.82352941,Safari,1440,900,,,,,0,666,,,,,,,,,,,,,,,,,H,146,star,1,0,,,,,,,,,,,,,,,,switch,letter,lettSwt,d,1.161,noRew,,,,,,0,2,0,2,0,1,,,,,,,,,,,,,,,,,
296737,2022-11-27_20h47.26.049,vts_reward_expectancy_bt,2022.2.4,MacIntel,58.82352941,Safari,1440,900,,,,,0,666,,,,,,,,,,,,,,,,,W,174,circle,1,0,,,,,,,,,,,,,,,,repeat,letter,lettRpt,f,0.965,noRew,,,,,,0,3,0,3,0,1,,,,,,,,,,,,,,,,,
296737,2022-11-27_20h47.26.049,vts_reward_expectancy_bt,2022.2.4,MacIntel,58.82352941,Safari,1440,900,,,,,0,666,,,,,,,,,,,,,,,,,U,160,triangle,1,0,,,,,,,,,,,,,,,,repeat,letter,lettRpt,f,0.696,noRew,,,,,,0,4,0,4,0,1,,,,,,,,,,,,,,,,,
296737,2022-11-27_20h47.26.049,vts_reward_expectancy_bt,2022.2.4,MacIntel,58.82352941,Safari,1440,900,,,,,0,666,,,,,,,,,,,,,,,,,Y,167,star,1,0,,,,,,,,,,,,,,,,switch,number,numSwt,k,1.328,noRew,,,,,,0,5,0,5,0,1,,,,,,,,,,,,,,,,,
296737,2022-11-27_20h47.26.049,vts_reward_expectancy_bt,2022.2.4,MacIntel,58.82352941,Safari,1440,900,,,,,0,666,,,,,,,,,,,,,,,,,H,146,hexagon,1,0,,,,,,,,,,,,,,,,repeat,number,numRpt,j,1.845,noRew,,,,,,0,6,0,6,0,1,,,,,,,,,,,,,,,,,
296737,2022-11-27_20h47.26.049,vts_reward_expectancy_bt,2022.2.4,MacIntel,58.82352941,Safari,1440,900,,,,,0,666,,,,,,,,,,,,,,,,,W,174,circle,1,0,,,,,,,,,,,,,,,,switch,letter,lettSwt,f,1.027,noRew,,,,,,0,7,0,7,0,1,,,,,,,,,,,,,,,,,
296737,2022-11-27_20h47.26.049,vts_reward_expectancy_bt,2022.2.4,MacIntel,58.82352941,Safari,1440,900,,,,,0,666,,,,,,,,,,,,,,,,,Y,132,triangle,1,0,,,,,,,,,,,,,,,,repeat,letter,lettRpt,f,0.697,noRew,,,,,,0,8,0,8,0,1,,,,,,,,,,,,,,,,,
296737,2022-11-27_20h47.26.049,vts_reward_expectancy_bt,2022.2.4,MacIntel,58.82352941,Safari,1440,900,,,,,0,666,,,,,,,,,,,,,,,,,D,181,hexagon,1,0,,,,,,,,,,,,,,,,switch,number,numSwt,k,1.927,noRew,,,,,,0,9,0,9,0,1,,,,,,,,,,,,,,,,,
296737,2022-11-27_20h47.26.049,vts_reward_expectancy_bt,2022.2.4,MacIntel,58.82352941,Safari,1440,900,,,,,0,666,,,,,,,,,,,,,,,,,F,146,star,1,0,,,,,,,,,,,,,,,,switch,letter,lettSwt,d,0.942,noRew,,,,,,0,10,0,10,0,1,,,,,,,,,,,,,,,,,
296737,2022-11-27_20h47.26.049,vts_reward_expectancy_bt,2022.2.4,MacIntel,58.82352941,Safari,1440,900,,,,,0,666,,,,,,,,,,,,,,,,,H,139,triangle,1,0,,,,,,,,,,,,,,,,switch,number,numSwt,j,0.661,noRew,,,,,,0,11,0,11,0,1,,,,,,,,,,,,,,,,,
296737,2022-11-27_20h47.26.049,vts_reward_expectancy_bt,2022.2.4,MacIntel,58.82352941,Safari,1440,900,,,,,0,666,,,,,,,,,,,,,,,,,H,174,hexagon,1,0,,,,,,,,,,,,,,,,repeat,number,numRpt,k,0.83,noRew,,,,,,0,12,0,12,0,1,,,,,,,,,,,,,,,,,
296737,2022-11-27_20h47.26.049,vts_reward_expectancy_bt,2022.2.4,MacIntel,58.82352941,Safari,1440,900,,,,,0,666,,,,,,,,,,,,,,,,,S,160,circle,1,0,,,,,,,,,,,,,,,,switch,letter,lettSwt,f,0.695,noRew,,,,,,0,13,0,13,0,1,,,,,,,,,,,,,,,,,
296737,2022-11-27_20h47.26.049,vts_reward_expectancy_bt,2022.2.4,MacIntel,58.82352941,Safari,1440,900,,,,,0,666,,,,,,,,,,,,,,,,,Y,132,hexagon,1,0,,,,,,,,,,,,,,,,repeat,letter,lettRpt,f,0.728,noRew,,,,,,0,14,0,14,0,1,,,,,,,,,,,,,,,,,
296737,2022-11-27_20h47.26.049,vts_reward_expectancy_bt,2022.2.4,MacIntel,58.82352941,Safari,1440,900,,,,,0,666,,,,,,,,,,,,,,,,,W,139,triangle,1,0,,,,,,,,,,,,,,,,repeat,letter,lettRpt,f,0.826,noRew,,,,,,0,15,0,15,0,1,,,,,,,,,,,,,,,,,
296737,2022-11-27_20h47.26.049,vts_reward_expectancy_bt,2022.2.4,MacIntel,58.82352941,Safari,1440,900,,,,,0,666,,,,,,,,,,,,,,,,,H,125,star,1,0,,,,,,,,,,,,,,,,switch,number,numSwt,j,0.678,noRew,,,,,,0,16,0,16,0,1,,,,,,,,,,,,,,,,,
296737,2022-11-27_20h47.26.049,vts_reward_expectancy_bt,2022.2.4,MacIntel,58.82352941,Safari,1440,900,,,,,0,666,,,,,,,,,,,,,,,,,W,160,hexagon,1,0,,,,,,,,,,,,,,,,repeat,number,numRpt,k,0.476,noRew,,,,,,0,17,0,17,0,1,,,,,,,,,,,,,,,,,
296737,2022-11-27_20h47.26.049,vts_reward_expectancy_bt,2022.2.4,MacIntel,58.82352941,Safari,1440,900,,,,,0,666,,,,,,,,,,,,,,,,,B,139,hexagon,1,0,,,,,,,,,,,,,,,,switch,letter,lettSwt,d,0.518,noRew,,,,,,0,18,0,18,0,1,,,,,,,,,,,,,,,,,
296737,2022-11-27_20h47.26.049,vts_reward_expectancy_bt,2022.2.4,MacIntel,58.82352941,Safari,1440,900,,,,,0,666,,,,,,,,,,,,,,,,,Y,181,star,1,0,,,,,,,,,,,,,,,,repeat,letter,lettRpt,f,0.909,noRew,,,,,,0,19,0,19,0,1,,,,,,,,,,,,,,,,,
296737,2022-11-27_20h47.26.049,vts_reward_expectancy_bt,2022.2.4,MacIntel,58.82352941,Safari,1440,900,,,,,0,666,,,,,,,,,,,,,,,,,U,125,triangle,1,0,,,,,,,,,,,,,,,,switch,number,numSwt,j,0.733,noRew,,,,,,0,20,0,20,0,1,,,,,,,,,,,,,,,,,
296737,2022-11-27_20h47.26.049,vts_reward_expectancy_bt,2022.2.4,MacIntel,58.82352941,Safari,1440,900,,,,,0,666,,,,,,,,,,,,,,,,,W,167,hexagon,1,0,,,,,,,,,,,,,,,,repeat,number,numRpt,k,0.528,noRew,,,,,,0,21,0,21,0,1,,,,,,,,,,,,,,,,,
296737,2022-11-27_20h47.26.049,vts_reward_expectancy_bt,2022.2.4,MacIntel,58.82352941,Safari,1440,900,,,,,0,666,,,,,,,,,,,,,,,,,F,174,circle,1,0,,,,,,,,,,,,,,,,switch,letter,lettSwt,d,0.744,noRew,,,,,,0,22,0,22,0,1,,,,,,,,,,,,,,,,,
296737,2022-11-27_20h47.26.049,vts_reward_expectancy_bt,2022.2.4,MacIntel,58.82352941,Safari,1440,900,,,,,0,666,,,,,,,,,,,,,,,,,D,181,hexagon,1,0,,,,,,,,,,,,,,,,repeat,letter,lettRpt,d,0.52,noRew,,,,,,0,23,0,23,0,1,,,,,,,,,,,,,,,,,
296737,2022-11-27_20h47.26.049,vts_reward_expectancy_bt,2022.2.4,MacIntel,58.82352941,Safari,1440,900,,,,,0,666,,,,,,,,,,,,,,,,,U,160,circle,1,0,,,,,,,,,,,,,,,,switch,number,numSwt,k,1.593,noRew,,,,,,0,24,0,24,0,1,,,,,,,,,,,,,,,,,
296737,2022-11-27_20h47.26.049,vts_reward_expectancy_bt,2022.2.4,MacIntel,58.82352941,Safari,1440,900,,,,,0,666,,,,,,,,,,,,,,,,,D,139,star,1,0,,,,,,,,,,,,,,,,switch,letter,lettSwt,d,0.693,noRew,,,,,,0,25,0,25,0,1,,,,,,,,,,,,,,,,,
296737,2022-11-27_20h47.26.049,vts_reward_expectancy_bt,2022.2.4,MacIntel,58.82352941,Safari,1440,900,,,,,0,666,,,,,,,,,,,,,,,,,W,132,star,1,0,,,,,,,,,,,,,,,,repeat,letter,lettRpt,f,0.795,noRew,,,,,,0,26,0,26,0,1,,,,,,,,,,,,,,,,,
296737,2022-11-27_20h47.26.049,vts_reward_expectancy_bt,2022.2.4,MacIntel,58.82352941,Safari,1440,900,,,,,0,666,,,,,,,,,,,,,,,,,S,181,triangle,1,0,,,,,,,,,,,,,,,,switch,number,numSwt,k,0.796,noRew,,,,,,0,27,0,27,0,1,,,,,,,,,,,,,,,,,
296737,2022-11-27_20h47.26.049,vts_reward_expectancy_bt,2022.2.4,MacIntel,58.82352941,Safari,1440,900,,,,,0,666,,,,,,,,,,,,,,,,,H,174,circle,1,0,,,,,,,,,,,,,,,,repeat,number,numRpt,k,0.594,noRew,,,,,,0,28,0,28,0,1,,,,,,,,,,,,,,,,,
296737,2022-11-27_20h47.26.049,vts_reward_expectancy_bt,2022.2.4,MacIntel,58.82352941,Safari,1440,900,,,,,0,666,,,,,,,,,,,,,,,,,B,139,hexagon,1,0,,,,,,,,,,,,,,,,repeat,number,numRpt,j,0.777,noRew,,,,,,0,29,0,29,0,1,,,,,,,,,,,,,,,,,
296737,2022-11-27_20h47.26.049,vts_reward_expectancy_bt,2022.2.4,MacIntel,58.82352941,Safari,1440,900,,,,,0,666,,,,,,,,,,,,,,,,,U,146,star,1,0,,,,,,,,,,,,,,,,repeat,number,numRpt,j,1.129,noRew,,,,,,0,30,0,30,0,1,,,,,,,,,,,,,,,,,
296737,2022-11-27_20h47.26.049,vts_reward_expectancy_bt,2022.2.4,MacIntel,58.82352941,Safari,1440,900,,,,,0,666,,,,,,,,,,,,,,,,,F,181,triangle,1,0,,,,,,,,,,,,,,,,switch,letter,lettSwt,d,0.644,noRew,,,,,,0,31,0,31,0,1,,,,,,,,,,,,,,,,,
296737,2022-11-27_20h47.26.049,vts_reward_expectancy_bt,2022.2.4,MacIntel,58.82352941,Safari,1440,900,,,,,0,666,,,,,,,,,,,,,,,,,F,174,hexagon,1,0,,,,,,,,,,,,,,,,switch,number,numSwt,k,0.914,noRew,,,,,,0,32,0,32,0,1,,,,,,,,,,,,,,,,,
296737,2022-11-27_20h47.26.049,vts_reward_expectancy_bt,2022.2.4,MacIntel,58.82352941,Safari,1440,900,,,,,0,666,,,,,,,,,,,,,,,,,W,125,triangle,1,0,,,,,,,,,,,,,,,,switch,letter,lettSwt,f,0.646,noRew,,,,,,0,33,0,33,0,1,,,,,,,,,,,,,,,,,
296737,2022-11-27_20h47.26.049,vts_reward_expectancy_bt,2022.2.4,MacIntel,58.82352941,Safari,1440,900,,,,,0,666,,,,,,,,,,,,,,,,,S,160,circle,1,0,,,,,,,,,,,,,,,,repeat,letter,lettRpt,f,0.677,noRew,,,,,,0,34,0,34,0,1,,,,,,,,,,,,,,,,,
296737,2022-11-27_20h47.26.049,vts_reward_expectancy_bt,2022.2.4,MacIntel,58.82352941,Safari,1440,900,,,,,0,666,,,,,,,,,,,,,,,,,U,167,triangle,1,0,,,,,,,,,,,,,,,,repeat,letter,lettRpt,f,1.16,noRew,,,,,,0,35,0,35,0,1,,,,,,,,,,,,,,,,,
296737,2022-11-27_20h47.26.049,vts_reward_expectancy_bt,2022.2.4,MacIntel,58.82352941,Safari,1440,900,,,,,0,666,,,,,,,,,,,,,,,,,D,139,triangle,1,0,,,,,,,,,,,,,,,,switch,number,numSwt,j,0.711,noRew,,,,,,0,36,0,36,0,1,,,,,,,,,,,,,,,,,
296737,2022-11-27_20h47.26.049,vts_reward_expectancy_bt,2022.2.4,MacIntel,58.82352941,Safari,1440,900,,,,,0,666,,,,,,,,,,,,,,,,,F,160,hexagon,1,0,,,,,,,,,,,,,,,,switch,letter,lettSwt,d,1.411,noRew,,,,,,0,37,0,37,0,1,,,,,,,,,,,,,,,,,
296737,2022-11-27_20h47.26.049,vts_reward_expectancy_bt,2022.2.4,MacIntel,58.82352941,Safari,1440,900,,,,,0,666,,,,,,,,,,,,,,,,,H,125,circle,1,0,,,,,,,,,,,,,,,,switch,number,numSwt,j,1.311,noRew,,,,,,0,38,0,38,0,1,,,,,,,,,,,,,,,,,
296737,2022-11-27_20h47.26.049,vts_reward_expectancy_bt,2022.2.4,MacIntel,58.82352941,Safari,1440,900,,,,,0,666,,,,,,,,,,,,,,,,,W,167,triangle,1,0,,,,,,,,,,,,,,,,switch,letter,lettSwt,f,2.285,noRew,,,,,,0,39,0,39,0,1,,,,,,,,,,,,,,,,,
296737,2022-11-27_20h47.26.049,vts_reward_expectancy_bt,2022.2.4,MacIntel,58.82352941,Safari,1440,900,,,,,0,666,,,,,,,,,,,,,,,,,Y,181,circle,1,0,,,,,,,,,,,,,,,,repeat,letter,lettRpt,f,1.21,noRew,,,,,,0,40,0,40,0,1,,,,,,,,,,,,,,,,,
296737,2022-11-27_20h47.26.049,vts_reward_expectancy_bt,2022.2.4,MacIntel,58.82352941,Safari,1440,900,,,,,0,666,,,,,,,,,,,,,,,,,D,160,star,1,0,,,,,,,,,,,,,,,,repeat,letter,lettRpt,d,2.21,noRew,,,,,,0,41,0,41,0,1,,,,,,,,,,,,,,,,,
296737,2022-11-27_20h47.26.049,vts_reward_expectancy_bt,2022.2.4,MacIntel,58.82352941,Safari,1440,900,,,,,0,666,,,,,,,,,,,,,,,,,S,146,triangle,1,0,,,,,,,,,,,,,,,,switch,number,numSwt,j,0.552,noRew,,,,,,0,42,0,42,0,1,,,,,,,,,,,,,,,,,
296737,2022-11-27_20h47.26.049,vts_reward_expectancy_bt,2022.2.4,MacIntel,58.82352941,Safari,1440,900,,,,,0,666,,,,,,,,,,,,,,,,,H,167,circle,1,0,,,,,,,,,,,,,,,,repeat,number,numRpt,k,0.994,noRew,,,,,,0,43,0,43,0,1,,,,,,,,,,,,,,,,,
296737,2022-11-27_20h47.26.049,vts_reward_expectancy_bt,2022.2.4,MacIntel,58.82352941,Safari,1440,900,,,,,0,666,,,,,,,,,,,,,,,,,W,125,star,1,0,,,,,,,,,,,,,,,,repeat,number,numRpt,j,1.111,noRew,,,,,,0,44,0,44,0,1,,,,,,,,,,,,,,,,,
296737,2022-11-27_20h47.26.049,vts_reward_expectancy_bt,2022.2.4,MacIntel,58.82352941,Safari,1440,900,,,,,0,666,,,,,,,,,,,,,,,,,U,174,triangle,1,0,,,,,,,,,,,,,,,,repeat,number,numRpt,k,1.411,noRew,,,,,,0,45,0,45,0,1,,,,,,,,,,,,,,,,,
296737,2022-11-27_20h47.26.049,vts_reward_expectancy_bt,2022.2.4,MacIntel,58.82352941,Safari,1440,900,,,,,0,666,,,,,,,,,,,,,,,,,B,160,circle,0,0,,,,,,,,,,,,,,,,repeat,number,NA,j,0.699,noRew,,,,,,0,46,0,46,0,1,,,,,,,,,,,,,,,,,
296737,2022-11-27_20h47.26.049,vts_reward_expectancy_bt,2022.2.4,MacIntel,58.82352941,Safari,1440,900,,,,,0,666,,,,,,,,,,,,,,,,,F,139,hexagon,1,1,,,,,,,,,,,,,,,,repeat,number,numRpt,j,1.361,noRew,,,,,,0,47,0,47,0,1,,,,,,,,,,,,,,,,,
296737,2022-11-27_20h47.26.049,vts_reward_expectancy_bt,2022.2.4,MacIntel,58.82352941,Safari,1440,900,,,,,0,666,,,,,,,,,,,,,,,,,H,132,hexagon,1,0,,,,,,,,,,,,,,,,repeat,number,numRpt,j,1.426,noRew,,,,,,0,48,0,48,0,1,,,,,,,,,,,,,,,,,
296737,2022-11-27_20h47.26.049,vts_reward_expectancy_bt,2022.2.4,MacIntel,58.82352941,Safari,1440,900,,,,,0,666,,,,,,,,,,,,,,,,,W,181,triangle,1,0,,,,,,,,,,,,,,,,switch,letter,lettSwt,f,0.661,noRew,,,,,,0,49,0,49,0,1,,,,,,,,,,,,,,,,,
296737,2022-11-27_20h47.26.049,vts_reward_expectancy_bt,2022.2.4,MacIntel,58.82352941,Safari,1440,900,,,,,0,666,,,,,,,,,,,,,,,,,U,160,hexagon,1,0,,,,,,,,,,,,,,,,switch,number,numSwt,k,1.481,noRew,,,,,,0,50,0,50,0,1,,,,,,,,,,,,,,,,,
296737,2022-11-27_20h47.26.049,vts_reward_expectancy_bt,2022.2.4,MacIntel,58.82352941,Safari,1440,900,,,,,0,666,,,,,,,,,,,,,,,,,B,125,star,1,0,,,,,,,,,,,,,,,,repeat,number,numRpt,j,0.832,noRew,,,,,,0,51,0,51,0,1,,,,,,,,,,,,,,,,,
296737,2022-11-27_20h47.26.049,vts_reward_expectancy_bt,2022.2.4,MacIntel,58.82352941,Safari,1440,900,,,,,0,666,,,,,,,,,,,,,,,,,D,132,star,1,0,,,,,,,,,,,,,,,,switch,letter,lettSwt,d,0.875,noRew,,,,,,0,52,0,52,0,1,,,,,,,,,,,,,,,,,
296737,2022-11-27_20h47.26.049,vts_reward_expectancy_bt,2022.2.4,MacIntel,58.82352941,Safari,1440,900,,,,,0,666,,,,,,,,,,,,,,,,,F,139,triangle,1,0,,,,,,,,,,,,,,,,repeat,letter,lettRpt,d,0.681,noRew,,,,,,0,53,0,53,0,1,,,,,,,,,,,,,,,,,
296737,2022-11-27_20h47.26.049,vts_reward_expectancy_bt,2022.2.4,MacIntel,58.82352941,Safari,1440,900,,,,,0,666,,,,,,,,,,,,,,,,,H,125,triangle,1,0,,,,,,,,,,,,,,,,repeat,letter,lettRpt,d,0.817,noRew,,,,,,0,54,0,54,0,1,,,,,,,,,,,,,,,,,
296737,2022-11-27_20h47.26.049,vts_reward_expectancy_bt,2022.2.4,MacIntel,58.82352941,Safari,1440,900,,,,,0,666,,,,,,,,,,,,,,,,,Y,181,star,1,0,,,,,,,,,,,,,,,,repeat,letter,lettRpt,f,1.366,noRew,,,,,,0,55,0,55,0,1,,,,,,,,,,,,,,,,,
296737,2022-11-27_20h47.26.049,vts_reward_expectancy_bt,2022.2.4,MacIntel,58.82352941,Safari,1440,900,,,,,0,666,,,,,,,,,,,,,,,,,W,160,circle,1,0,,,,,,,,,,,,,,,,repeat,letter,lettRpt,f,1.417,noRew,,,,,,0,56,0,56,0,1,,,,,,,,,,,,,,,,,
296737,2022-11-27_20h47.26.049,vts_reward_expectancy_bt,2022.2.4,MacIntel,58.82352941,Safari,1440,900,,,,,0,666,,,,,,,,,,,,,,,,,S,132,hexagon,1,0,,,,,,,,,,,,,,,,repeat,letter,lettRpt,f,2.428,noRew,,,,,,0,57,0,57,0,1,,,,,,,,,,,,,,,,,
296737,2022-11-27_20h47.26.049,vts_reward_expectancy_bt,2022.2.4,MacIntel,58.82352941,Safari,1440,900,,,,,0,666,,,,,,,,,,,,,,,,,D,146,star,1,0,,,,,,,,,,,,,,,,switch,number,numSwt,j,1.999,noRew,,,,,,0,58,0,58,0,1,,,,,,,,,,,,,,,,,
296737,2022-11-27_20h47.26.049,vts_reward_expectancy_bt,2022.2.4,MacIntel,58.82352941,Safari,1440,900,,,,,0,666,,,,,,,,,,,,,,,,,B,181,circle,1,0,,,,,,,,,,,,,,,,switch,letter,lettSwt,d,1.314,noRew,,,,,,0,59,0,59,0,1,,,,,,,,,,,,,,,,,
296737,2022-11-27_20h47.26.049,vts_reward_expectancy_bt,2022.2.4,MacIntel,58.82352941,Safari,1440,900,,,,,0,666,,,,,,,,,,,,,,,,,U,167,circle,1,0,,,,,,,,,,,,,,,,switch,number,numSwt,k,1.242,noRew,,,,,,0,60,0,60,0,1,,,,,,,,,,,,,,,,,
296737,2022-11-27_20h47.26.049,vts_reward_expectancy_bt,2022.2.4,MacIntel,58.82352941,Safari,1440,900,,,,,0,666,,,,,,,,,,,,,,,,,D,132,star,-1,0,,,,,,,,,,,,,,,,switch,no_choice,NA,,,noRew,,,,,,0,61,0,61,0,1,,,,,,,,,,,,,,,,,
296737,2022-11-27_20h47.26.049,vts_reward_expectancy_bt,2022.2.4,MacIntel,58.82352941,Safari,1440,900,,,,,0,666,,,,,,,,,,,,,,,,,B,139,circle,1,0,,,,,,,,,,,,,,,,switch,letter,lettSwt,d,0.867,noRew,,,,,,0,62,0,62,0,1,,,,,,,,,,,,,,,,,
296737,2022-11-27_20h47.26.049,vts_reward_expectancy_bt,2022.2.4,MacIntel,58.82352941,Safari,1440,900,,,,,0,666,,,,,,,,,,,,,,,,,H,146,hexagon,1,0,,,,,,,,,,,,,,,,repeat,letter,lettRpt,d,1.518,noRew,,,,,,0,63,0,63,0,1,,,,,,,,,,,,,,,,,
296737,2022-11-27_20h47.26.049,vts_reward_expectancy_bt,2022.2.4,MacIntel,58.82352941,Safari,1440,900,,,,,,,,,,,,,,,,,,,,,,,,,,,,,,,,,,,,,,,,,,,,,,,,,,,,,,,,,,,,,,,,,,,,,,,,,,,,
296737,2022-11-27_20h47.26.049,vts_reward_expectancy_bt,2022.2.4,MacIntel,58.82352941,Safari,1440,900,,,,,1,667,,,,,,,,,,,,,,,,,S,125,star,1,0,,,,,,,,,,,,,,,,repeat,letter,lettRpt,f,1.416,Lo,,,,,,0,,,,,,space,8.779,high,0,0,0,0,1,,,,,,,,,
296737,2022-11-27_20h47.26.049,vts_reward_expectancy_bt,2022.2.4,MacIntel,58.82352941,Safari,1440,900,,,,,10,677,,,,,,,,,,,,,,,,,F,139,circle,1,0,,,,,,,,,,,,,,,,switch,number,numSwt,j,0.677,Hi,,,,,,0,,,,,,,,high,1,0,1,0,1,,,,,,,,,
296737,2022-11-27_20h47.26.049,vts_reward_expectancy_bt,2022.2.4,MacIntel,58.82352941,Safari,1440,900,,,,,1,678,,,,,,,,,,,,,,,,,D,181,hexagon,1,0,,,,,,,,,,,,,,,,repeat,number,numRpt,k,1.326,Lo,,,,,,0,,,,,,,,high,2,0,2,0,1,,,,,,,,,
296737,2022-11-27_20h47.26.049,vts_reward_expectancy_bt,2022.2.4,MacIntel,58.82352941,Safari,1440,900,,,,,10,688,,,,,,,,,,,,,,,,,Y,132,triangle,1,0,,,,,,,,,,,,,,,,switch,letter,lettSwt,f,0.544,Hi,,,,,,0,,,,,,,,high,3,0,3,0,1,,,,,,,,,
296737,2022-11-27_20h47.26.049,vts_reward_expectancy_bt,2022.2.4,MacIntel,58.82352941,Safari,1440,900,,,,,1,689,,,,,,,,,,,,,,,,,B,146,star,1,0,,,,,,,,,,,,,,,,repeat,letter,lettRpt,d,0.544,Lo,,,,,,0,,,,,,,,high,4,0,4,0,1,,,,,,,,,
296737,2022-11-27_20h47.26.049,vts_reward_expectancy_bt,2022.2.4,MacIntel,58.82352941,Safari,1440,900,,,,,10,699,,,,,,,,,,,,,,,,,H,174,circle,1,0,,,,,,,,,,,,,,,,switch,number,numSwt,k,0.733,Hi,,,,,,0,,,,,,,,high,5,0,5,0,1,,,,,,,,,
296737,2022-11-27_20h47.26.049,vts_reward_expectancy_bt,2022.2.4,MacIntel,58.82352941,Safari,1440,900,,,,,1,700,,,,,,,,,,,,,,,,,U,160,hexagon,1,0,,,,,,,,,,,,,,,,repeat,number,numRpt,k,0.676,Lo,,,,,,0,,,,,,,,high,6,0,6,0,1,,,,,,,,,
296737,2022-11-27_20h47.26.049,vts_reward_expectancy_bt,2022.2.4,MacIntel,58.82352941,Safari,1440,900,,,,,0,700,,,,,,,,,,,,,,,,,W,167,triangle,1,0,,,,,,,,,,,,,,,,switch,letter,lettSwt,f,1.812,Hi,,,,,,0,,,,,,,,high,7,0,7,0,1,,,,,,,,,
296737,2022-11-27_20h47.26.049,vts_reward_expectancy_bt,2022.2.4,MacIntel,58.82352941,Safari,1440,900,,,,,10,710,,,,,,,,,,,,,,,,,S,125,star,1,0,,,,,,,,,,,,,,,,repeat,letter,lettRpt,f,0.544,Lo,,,,,,0,,,,,,,,high,8,0,8,0,1,,,,,,,,,
296737,2022-11-27_20h47.26.049,vts_reward_expectancy_bt,2022.2.4,MacIntel,58.82352941,Safari,1440,900,,,,,0,710,,,,,,,,,,,,,,,,,F,139,circle,1,0,,,,,,,,,,,,,,,,switch,number,numSwt,j,1.361,Hi,,,,,,0,,,,,,,,high,9,0,9,0,1,,,,,,,,,
296737,2022-11-27_20h47.26.049,vts_reward_expectancy_bt,2022.2.4,MacIntel,58.82352941,Safari,1440,900,,,,,1,711,,,,,,,,,,,,,,,,,D,181,hexagon,1,0,,,,,,,,,,,,,,,,repeat,number,numRpt,k,1.032,Lo,,,,,,0,,,,,,,,high,10,0,10,0,1,,,,,,,,,
296737,2022-11-27_20h47.26.049,vts_reward_expectancy_bt,2022.2.4,MacIntel,58.82352941,Safari,1440,900,,,,,10,721,,,,,,,,,,,,,,,,,Y,132,triangle,1,0,,,,,,,,,,,,,,,,repeat,number,numRpt,j,0.827,Hi,,,,,,0,,,,,,,,high,11,0,11,0,1,,,,,,,,,
296737,2022-11-27_20h47.26.049,vts_reward_expectancy_bt,2022.2.4,MacIntel,58.82352941,Safari,1440,900,,,,,1,722,,,,,,,,,,,,,,,,,B,146,hexagon,1,0,,,,,,,,,,,,,,,,switch,letter,lettSwt,d,0.76,Lo,,,,,,0,,,,,,,,high,12,0,12,0,1,,,,,,,,,
296737,2022-11-27_20h47.26.049,vts_reward_expectancy_bt,2022.2.4,MacIntel,58.82352941,Safari,1440,900,,,,,0,722,,,,,,,,,,,,,,,,,H,174,triangle,1,0,,,,,,,,,,,,,,,,switch,number,numSwt,k,1.06,Hi,,,,,,0,,,,,,,,high,13,0,13,0,1,,,,,,,,,
296737,2022-11-27_20h47.26.049,vts_reward_expectancy_bt,2022.2.4,MacIntel,58.82352941,Safari,1440,900,,,,,1,723,,,,,,,,,,,,,,,,,U,160,star,1,0,,,,,,,,,,,,,,,,repeat,number,numRpt,k,0.878,Lo,,,,,,0,,,,,,,,high,14,0,14,0,1,,,,,,,,,
296737,2022-11-27_20h47.26.049,vts_reward_expectancy_bt,2022.2.4,MacIntel,58.82352941,Safari,1440,900,,,,,10,733,,,,,,,,,,,,,,,,,W,167,circle,1,0,,,,,,,,,,,,,,,,switch,letter,lettSwt,f,0.546,Hi,,,,,,0,,,,,,,,high,15,0,15,0,1,,,,,,,,,
296737,2022-11-27_20h47.26.049,vts_reward_expectancy_bt,2022.2.4,MacIntel,58.82352941,Safari,1440,900,,,,,1,734,,,,,,,,,,,,,,,,,F,160,star,1,0,,,,,,,,,,,,,,,,repeat,letter,lettRpt,d,0.677,Lo,,,,,,0,,,,,,,,high,16,0,16,0,1,,,,,,,,,
296737,2022-11-27_20h47.26.049,vts_reward_expectancy_bt,2022.2.4,MacIntel,58.82352941,Safari,1440,900,,,,,10,744,,,,,,,,,,,,,,,,,D,139,circle,1,0,,,,,,,,,,,,,,,,switch,number,numSwt,j,0.627,Hi,,,,,,0,,,,,,,,high,17,0,17,0,1,,,,,,,,,
296737,2022-11-27_20h47.26.049,vts_reward_expectancy_bt,2022.2.4,MacIntel,58.82352941,Safari,1440,900,,,,,0,744,,,,,,,,,,,,,,,,,Y,132,triangle,0,0,,,,,,,,,,,,,,,,switch,letter,NA,d,1.186,Hi,,,,,,0,,,,,,,,high,18,0,18,0,1,,,,,,,,,
296737,2022-11-27_20h47.26.049,vts_reward_expectancy_bt,2022.2.4,MacIntel,58.82352941,Safari,1440,900,,,,,1,745,,,,,,,,,,,,,,,,,S,174,hexagon,1,1,,,,,,,,,,,,,,,,repeat,letter,lettRpt,f,1.028,Lo,,,,,,0,,,,,,,,high,19,0,19,0,1,,,,,,,,,
296737,2022-11-27_20h47.26.049,vts_reward_expectancy_bt,2022.2.4,MacIntel,58.82352941,Safari,1440,900,,,,,1,746,,,,,,,,,,,,,,,,,B,125,hexagon,1,0,,,,,,,,,,,,,,,,repeat,letter,lettRpt,d,0.594,Lo,,,,,,0,,,,,,,,high,20,0,20,0,1,,,,,,,,,
296737,2022-11-27_20h47.26.049,vts_reward_expectancy_bt,2022.2.4,MacIntel,58.82352941,Safari,1440,900,,,,,10,756,,,,,,,,,,,,,,,,,H,181,star,1,0,,,,,,,,,,,,,,,,switch,number,numSwt,k,0.515,Lo,,,,,,0,,,,,,,,high,21,0,21,0,1,,,,,,,,,
296737,2022-11-27_20h47.26.049,vts_reward_expectancy_bt,2022.2.4,MacIntel,58.82352941,Safari,1440,900,,,,,0,756,,,,,,,,,,,,,,,,,U,146,triangle,1,0,,,,,,,,,,,,,,,,repeat,number,numRpt,j,0.911,Hi,,,,,,0,,,,,,,,high,22,0,22,0,1,,,,,,,,,
296737,2022-11-27_20h47.26.049,vts_reward_expectancy_bt,2022.2.4,MacIntel,58.82352941,Safari,1440,900,,,,,10,766,,,,,,,,,,,,,,,,,W,167,circle,1,0,,,,,,,,,,,,,,,,repeat,number,numRpt,k,0.677,Hi,,,,,,0,,,,,,,,high,23,0,23,0,1,,,,,,,,,
296737,2022-11-27_20h47.26.049,vts_reward_expectancy_bt,2022.2.4,MacIntel,58.82352941,Safari,1440,900,,,,,10,776,,,,,,,,,,,,,,,,,F,167,triangle,1,0,,,,,,,,,,,,,,,,repeat,number,numRpt,k,0.696,Hi,,,,,,0,,,,,,,,high,24,0,24,0,1,,,,,,,,,
296737,2022-11-27_20h47.26.049,vts_reward_expectancy_bt,2022.2.4,MacIntel,58.82352941,Safari,1440,900,,,,,1,777,,,,,,,,,,,,,,,,,D,174,star,1,0,,,,,,,,,,,,,,,,repeat,number,numRpt,k,0.834,Lo,,,,,,0,,,,,,,,high,25,0,25,0,1,,,,,,,,,
296737,2022-11-27_20h47.26.049,vts_reward_expectancy_bt,2022.2.4,MacIntel,58.82352941,Safari,1440,900,,,,,1,778,,,,,,,,,,,,,,,,,H,181,hexagon,1,0,,,,,,,,,,,,,,,,switch,letter,lettSwt,d,0.893,Lo,,,,,,0,,,,,,,,high,26,0,26,0,1,,,,,,,,,
296737,2022-11-27_20h47.26.049,vts_reward_expectancy_bt,2022.2.4,MacIntel,58.82352941,Safari,1440,900,,,,,0,778,,,,,,,,,,,,,,,,,U,125,circle,0,0,,,,,,,,,,,,,,,,repeat,letter,NA,d,1.393,Lo,,,,,,0,,,,,,,,high,27,0,27,0,1,,,,,,,,,
296737,2022-11-27_20h47.26.049,vts_reward_expectancy_bt,2022.2.4,MacIntel,58.82352941,Safari,1440,900,,,,,1,779,,,,,,,,,,,,,,,,,B,160,star,1,1,,,,,,,,,,,,,,,,switch,number,numSwt,k,0.793,Lo,,,,,,0,,,,,,,,high,28,0,28,0,1,,,,,,,,,
296737,2022-11-27_20h47.26.049,vts_reward_expectancy_bt,2022.2.4,MacIntel,58.82352941,Safari,1440,900,,,,,0,779,,,,,,,,,,,,,,,,,Y,139,circle,1,0,,,,,,,,,,,,,,,,switch,letter,lettSwt,f,0.718,Hi,,,,,,0,,,,,,,,high,29,0,29,0,1,,,,,,,,,
296737,2022-11-27_20h47.26.049,vts_reward_expectancy_bt,2022.2.4,MacIntel,58.82352941,Safari,1440,900,,,,,1,780,,,,,,,,,,,,,,,,,W,132,hexagon,1,0,,,,,,,,,,,,,,,,repeat,letter,lettRpt,f,0.945,Lo,,,,,,0,,,,,,,,high,30,0,30,0,1,,,,,,,,,
296737,2022-11-27_20h47.26.049,vts_reward_expectancy_bt,2022.2.4,MacIntel,58.82352941,Safari,1440,900,,,,,0,780,,,,,,,,,,,,,,,,,S,146,triangle,1,0,,,,,,,,,,,,,,,,switch,number,numSwt,j,0.811,Hi,,,,,,0,,,,,,,,high,31,0,31,0,1,,,,,,,,,
296737,2022-11-27_20h47.26.049,vts_reward_expectancy_bt,2022.2.4,MacIntel,58.82352941,Safari,1440,900,,,,,0,780,,,,,,,,,,,,,,,,,F,125,triangle,1,0,,,,,,,,,,,,,,,,switch,letter,lettSwt,d,0.927,Hi,,,,,,1,,,,,,space,3.601,high,0,0,0,0,1,,,,,,,,,
296737,2022-11-27_20h47.26.049,vts_reward_expectancy_bt,2022.2.4,MacIntel,58.82352941,Safari,1440,900,,,,,10,790,,,,,,,,,,,,,,,,,D,181,circle,1,0,,,,,,,,,,,,,,,,repeat,letter,lettRpt,d,0.559,Hi,,,,,,1,,,,,,,,high,1,0,1,0,1,,,,,,,,,
296737,2022-11-27_20h47.26.049,vts_reward_expectancy_bt,2022.2.4,MacIntel,58.82352941,Safari,1440,900,,,,,0,790,,,,,,,,,,,,,,,,,B,160,star,0,0,,,,,,,,,,,,,,,,switch,number,NA,j,0.629,Hi,,,,,,1,,,,,,,,high,2,0,2,0,1,,,,,,,,,
296737,2022-11-27_20h47.26.049,vts_reward_expectancy_bt,2022.2.4,MacIntel,58.82352941,Safari,1440,900,,,,,10,800,,,,,,,,,,,,,,,,,Y,146,hexagon,1,1,,,,,,,,,,,,,,,,repeat,number,numRpt,j,1.077,Lo,,,,,,1,,,,,,,,high,3,0,3,0,1,,,,,,,,,
296737,2022-11-27_20h47.26.049,vts_reward_expectancy_bt,2022.2.4,MacIntel,58.82352941,Safari,1440,900,,,,,0,800,,,,,,,,,,,,,,,,,H,174,triangle,1,0,,,,,,,,,,,,,,,,repeat,number,numRpt,k,1.368,Hi,,,,,,1,,,,,,,,high,4,0,4,0,1,,,,,,,,,
296737,2022-11-27_20h47.26.049,vts_reward_expectancy_bt,2022.2.4,MacIntel,58.82352941,Safari,1440,900,,,,,0,800,,,,,,,,,,,,,,,,,U,167,circle,0,0,,,,,,,,,,,,,,,,repeat,number,NA,j,0.815,Hi,,,,,,1,,,,,,,,high,5,0,5,0,1,,,,,,,,,
296737,2022-11-27_20h47.26.049,vts_reward_expectancy_bt,2022.2.4,MacIntel,58.82352941,Safari,1440,900,,,,,1,801,,,,,,,,,,,,,,,,,S,139,star,1,1,,,,,,,,,,,,,,,,repeat,number,numRpt,j,0.927,Lo,,,,,,1,,,,,,,,high,6,0,6,0,1,,,,,,,,,
296737,2022-11-27_20h47.26.049,vts_reward_expectancy_bt,2022.2.4,MacIntel,58.82352941,Safari,1440,900,,,,,0,801,,,,,,,,,,,,,,,,,W,132,hexagon,0,0,,,,,,,,,,,,,,,,switch,letter,NA,d,1.163,Lo,,,,,,1,,,,,,,,high,7,0,7,0,1,,,,,,,,,
296737,2022-11-27_20h47.26.049,vts_reward_expectancy_bt,2022.2.4,MacIntel,58.82352941,Safari,1440,900,,,,,1,802,,,,,,,,,,,,,,,,,F,125,star,1,1,,,,,,,,,,,,,,,,repeat,letter,lettRpt,d,0.846,Lo,,,,,,1,,,,,,,,high,8,0,8,0,1,,,,,,,,,
296737,2022-11-27_20h47.26.049,vts_reward_expectancy_bt,2022.2.4,MacIntel,58.82352941,Safari,1440,900,,,,,0,802,,,,,,,,,,,,,,,,,D,181,triangle,1,0,,,,,,,,,,,,,,,,switch,number,numSwt,k,0.993,Hi,,,,,,1,,,,,,,,high,9,0,9,0,1,,,,,,,,,
296737,2022-11-27_20h47.26.049,vts_reward_expectancy_bt,2022.2.4,MacIntel,58.82352941,Safari,1440,900,,,,,10,812,,,,,,,,,,,,,,,,,B,160,circle,1,0,,,,,,,,,,,,,,,,repeat,number,numRpt,k,0.777,Hi,,,,,,1,,,,,,,,high,10,0,10,0,1,,,,,,,,,
296737,2022-11-27_20h47.26.049,vts_reward_expectancy_bt,2022.2.4,MacIntel,58.82352941,Safari,1440,900,,,,,1,813,,,,,,,,,,,,,,,,,Y,146,hexagon,1,0,,,,,,,,,,,,,,,,repeat,number,numRpt,j,1.042,Lo,,,,,,1,,,,,,,,high,11,0,11,0,1,,,,,,,,,
296737,2022-11-27_20h47.26.049,vts_reward_expectancy_bt,2022.2.4,MacIntel,58.82352941,Safari,1440,900,,,,,1,814,,,,,,,,,,,,,,,,,H,174,hexagon,1,0,,,,,,,,,,,,,,,,repeat,number,numRpt,k,0.803,Lo,,,,,,1,,,,,,,,high,12,0,12,0,1,,,,,,,,,
296737,2022-11-27_20h47.26.049,vts_reward_expectancy_bt,2022.2.4,MacIntel,58.82352941,Safari,1440,900,,,,,0,814,,,,,,,,,,,,,,,,,U,167,triangle,1,0,,,,,,,,,,,,,,,,switch,letter,lettSwt,f,0.661,Hi,,,,,,1,,,,,,,,high,13,0,13,0,1,,,,,,,,,
296737,2022-11-27_20h47.26.049,vts_reward_expectancy_bt,2022.2.4,MacIntel,58.82352941,Safari,1440,900,,,,,10,824,,,,,,,,,,,,,,,,,S,139,circle,1,0,,,,,,,,,,,,,,,,repeat,letter,lettRpt,f,0.544,Hi,,,,,,1,,,,,,,,high,14,0,14,0,1,,,,,,,,,
296737,2022-11-27_20h47.26.049,vts_reward_expectancy_bt,2022.2.4,MacIntel,58.82352941,Safari,1440,900,,,,,1,825,,,,,,,,,,,,,,,,,W,132,star,1,0,,,,,,,,,,,,,,,,repeat,letter,lettRpt,f,0.795,Lo,,,,,,1,,,,,,,,high,15,0,15,0,1,,,,,,,,,
296737,2022-11-27_20h47.26.049,vts_reward_expectancy_bt,2022.2.4,MacIntel,58.82352941,Safari,1440,900,,,,,0,825,,,,,,,,,,,,,,,,,H,160,triangle,1,0,,,,,,,,,,,,,,,,repeat,letter,lettRpt,d,1.193,Hi,,,,,,1,,,,,,,,high,16,0,16,0,1,,,,,,,,,
296737,2022-11-27_20h47.26.049,vts_reward_expectancy_bt,2022.2.4,MacIntel,58.82352941,Safari,1440,900,,,,,1,826,,,,,,,,,,,,,,,,,F,139,star,1,0,,,,,,,,,,,,,,,,switch,number,numSwt,j,0.829,Lo,,,,,,1,,,,,,,,high,17,0,17,0,1,,,,,,,,,
296737,2022-11-27_20h47.26.049,vts_reward_expectancy_bt,2022.2.4,MacIntel,58.82352941,Safari,1440,900,,,,,10,836,,,,,,,,,,,,,,,,,U,174,circle,1,0,,,,,,,,,,,,,,,,repeat,number,numRpt,k,0.593,Hi,,,,,,1,,,,,,,,high,18,0,18,0,1,,,,,,,,,
296737,2022-11-27_20h47.26.049,vts_reward_expectancy_bt,2022.2.4,MacIntel,58.82352941,Safari,1440,900,,,,,10,846,,,,,,,,,,,,,,,,,B,146,hexagon,1,0,,,,,,,,,,,,,,,,switch,letter,lettSwt,d,0.746,Lo,,,,,,1,,,,,,,,high,19,0,19,0,1,,,,,,,,,
296737,2022-11-27_20h47.26.049,vts_reward_expectancy_bt,2022.2.4,MacIntel,58.82352941,Safari,1440,900,,,,,0,846,,,,,,,,,,,,,,,,,Y,181,circle,1,0,,,,,,,,,,,,,,,,repeat,letter,lettRpt,f,0.676,Hi,,,,,,1,,,,,,,,high,20,0,20,0,1,,,,,,,,,
296737,2022-11-27_20h47.26.049,vts_reward_expectancy_bt,2022.2.4,MacIntel,58.82352941,Safari,1440,900,,,,,0,846,,,,,,,,,,,,,,,,,S,125,triangle,1,0,,,,,,,,,,,,,,,,switch,number,numSwt,j,1.54,Hi,,,,,,1,,,,,,,,high,21,0,21,0,1,,,,,,,,,
296737,2022-11-27_20h47.26.049,vts_reward_expectancy_bt,2022.2.4,MacIntel,58.82352941,Safari,1440,900,,,,,1,847,,,,,,,,,,,,,,,,,D,132,hexagon,1,0,,,,,,,,,,,,,,,,repeat,number,numRpt,j,1.043,Lo,,,,,,1,,,,,,,,high,22,0,22,0,1,,,,,,,,,
296737,2022-11-27_20h47.26.049,vts_reward_expectancy_bt,2022.2.4,MacIntel,58.82352941,Safari,1440,900,,,,,1,848,,,,,,,,,,,,,,,,,W,167,star,1,0,,,,,,,,,,,,,,,,repeat,number,numRpt,k,0.728,Lo,,,,,,1,,,,,,,,high,23,0,23,0,1,,,,,,,,,
296737,2022-11-27_20h47.26.049,vts_reward_expectancy_bt,2022.2.4,MacIntel,58.82352941,Safari,1440,900,,,,,0,848,,,,,,,,,,,,,,,,,U,181,circle,0,0,,,,,,,,,,,,,,,,switch,letter,NA,d,1.41,Lo,,,,,,1,,,,,,,,high,24,0,24,0,1,,,,,,,,,
296737,2022-11-27_20h47.26.049,vts_reward_expectancy_bt,2022.2.4,MacIntel,58.82352941,Safari,1440,900,,,,,1,849,,,,,,,,,,,,,,,,,W,174,hexagon,1,1,,,,,,,,,,,,,,,,switch,number,numSwt,k,0.56,Lo,,,,,,1,,,,,,,,high,25,0,25,0,1,,,,,,,,,
296737,2022-11-27_20h47.26.049,vts_reward_expectancy_bt,2022.2.4,MacIntel,58.82352941,Safari,1440,900,,,,,1,850,,,,,,,,,,,,,,,,,Y,125,star,1,0,,,,,,,,,,,,,,,,repeat,number,numRpt,j,1.063,Lo,,,,,,1,,,,,,,,high,26,0,26,0,1,,,,,,,,,
296737,2022-11-27_20h47.26.049,vts_reward_expectancy_bt,2022.2.4,MacIntel,58.82352941,Safari,1440,900,,,,,0,850,,,,,,,,,,,,,,,,,F,132,triangle,1,0,,,,,,,,,,,,,,,,repeat,number,numRpt,j,1.277,Hi,,,,,,1,,,,,,,,high,27,0,27,0,1,,,,,,,,,
296737,2022-11-27_20h47.26.049,vts_reward_expectancy_bt,2022.2.4,MacIntel,58.82352941,Safari,1440,900,,,,,0,850,,,,,,,,,,,,,,,,,H,167,circle,0,0,,,,,,,,,,,,,,,,repeat,number,NA,j,1.046,Hi,,,,,,1,,,,,,,,high,28,0,28,0,1,,,,,,,,,
296737,2022-11-27_20h47.26.049,vts_reward_expectancy_bt,2022.2.4,MacIntel,58.82352941,Safari,1440,900,,,,,10,860,,,,,,,,,,,,,,,,,B,146,star,1,1,,,,,,,,,,,,,,,,repeat,number,numRpt,j,2.313,Lo,,,,,,1,,,,,,,,high,29,0,29,0,1,,,,,,,,,
296737,2022-11-27_20h47.26.049,vts_reward_expectancy_bt,2022.2.4,MacIntel,58.82352941,Safari,1440,900,,,,,0,860,,,,,,,,,,,,,,,,,D,160,triangle,0,0,,,,,,,,,,,,,,,,switch,letter,NA,f,1.297,Lo,,,,,,1,,,,,,,,high,30,0,30,0,1,,,,,,,,,
296737,2022-11-27_20h47.26.049,vts_reward_expectancy_bt,2022.2.4,MacIntel,58.82352941,Safari,1440,900,,,,,1,861,,,,,,,,,,,,,,,,,S,139,hexagon,1,1,,,,,,,,,,,,,,,,switch,number,numSwt,j,0.898,Lo,,,,,,1,,,,,,,,high,31,0,31,0,1,,,,,,,,,
296737,2022-11-27_20h47.26.049,vts_reward_expectancy_bt,2022.2.4,MacIntel,58.82352941,Safari,1440,900,,,,,1,862,,,,,,,,,,,,,,,,,D,181,triangle,1,0,,,,,,,,,,,,,,,,switch,letter,lettSwt,d,0.598,Hi,,,,,,2,,,,,,space,5.348,high,0,0,0,0,1,,,,,,,,,
296737,2022-11-27_20h47.26.049,vts_reward_expectancy_bt,2022.2.4,MacIntel,58.82352941,Safari,1440,900,,,,,1,863,,,,,,,,,,,,,,,,,S,167,hexagon,1,0,,,,,,,,,,,,,,,,repeat,letter,lettRpt,f,0.863,Lo,,,,,,2,,,,,,,,high,1,0,1,0,1,,,,,,,,,
296737,2022-11-27_20h47.26.049,vts_reward_expectancy_bt,2022.2.4,MacIntel,58.82352941,Safari,1440,900,,,,,0,863,,,,,,,,,,,,,,,,,U,174,circle,1,0,,,,,,,,,,,,,,,,switch,number,numSwt,k,1.527,Hi,,,,,,2,,,,,,,,high,2,0,2,0,1,,,,,,,,,
296737,2022-11-27_20h47.26.049,vts_reward_expectancy_bt,2022.2.4,MacIntel,58.82352941,Safari,1440,900,,,,,0,863,,,,,,,,,,,,,,,,,F,146,star,0,0,,,,,,,,,,,,,,,,switch,letter,NA,f,1.459,Hi,,,,,,2,,,,,,,,high,3,0,3,0,1,,,,,,,,,
296737,2022-11-27_20h47.26.049,vts_reward_expectancy_bt,2022.2.4,MacIntel,58.82352941,Safari,1440,900,,,,,0,863,,,,,,,,,,,,,,,,,H,160,triangle,0,1,,,,,,,,,,,,,,,,switch,number,NA,j,0.862,Hi,,,,,,2,,,,,,,,high,4,0,4,0,1,,,,,,,,,
296737,2022-11-27_20h47.26.049,vts_reward_expectancy_bt,2022.2.4,MacIntel,58.82352941,Safari,1440,900,,,,,1,864,,,,,,,,,,,,,,,,,Y,139,hexagon,1,1,,,,,,,,,,,,,,,,switch,letter,lettSwt,f,0.61,Lo,,,,,,2,,,,,,,,high,5,0,5,0,1,,,,,,,,,
296737,2022-11-27_20h47.26.049,vts_reward_expectancy_bt,2022.2.4,MacIntel,58.82352941,Safari,1440,900,,,,,0,864,,,,,,,,,,,,,,,,,W,125,circle,1,0,,,,,,,,,,,,,,,,switch,number,numSwt,j,1.136,Hi,,,,,,2,,,,,,,,high,6,0,6,0,1,,,,,,,,,
296737,2022-11-27_20h47.26.049,vts_reward_expectancy_bt,2022.2.4,MacIntel,58.82352941,Safari,1440,900,,,,,1,865,,,,,,,,,,,,,,,,,B,132,star,1,0,,,,,,,,,,,,,,,,repeat,number,numRpt,j,0.437,Lo,,,,,,2,,,,,,,,high,7,0,7,0,1,,,,,,,,,
296737,2022-11-27_20h47.26.049,vts_reward_expectancy_bt,2022.2.4,MacIntel,58.82352941,Safari,1440,900,,,,,1,866,,,,,,,,,,,,,,,,,D,181,circle,1,0,,,,,,,,,,,,,,,,repeat,number,numRpt,k,0.543,Hi,,,,,,2,,,,,,,,high,8,0,8,0,1,,,,,,,,,
296737,2022-11-27_20h47.26.049,vts_reward_expectancy_bt,2022.2.4,MacIntel,58.82352941,Safari,1440,900,,,,,10,876,,,,,,,,,,,,,,,,,S,167,triangle,1,0,,,,,,,,,,,,,,,,switch,letter,lettSwt,f,0.594,Hi,,,,,,2,,,,,,,,high,9,0,9,0,1,,,,,,,,,
296737,2022-11-27_20h47.26.049,vts_reward_expectancy_bt,2022.2.4,MacIntel,58.82352941,Safari,1440,900,,,,,0,876,,,,,,,,,,,,,,,,,U,174,star,0,0,,,,,,,,,,,,,,,,switch,number,NA,j,1.044,Hi,,,,,,2,,,,,,,,high,10,0,10,0,1,,,,,,,,,
296737,2022-11-27_20h47.26.049,vts_reward_expectancy_bt,2022.2.4,MacIntel,58.82352941,Safari,1440,900,,,,,1,877,,,,,,,,,,,,,,,,,F,146,hexagon,1,1,,,,,,,,,,,,,,,,repeat,number,numRpt,j,0.561,Lo,,,,,,2,,,,,,,,high,11,0,11,0,1,,,,,,,,,
296737,2022-11-27_20h47.26.049,vts_reward_expectancy_bt,2022.2.4,MacIntel,58.82352941,Safari,1440,900,,,,,0,877,,,,,,,,,,,,,,,,,H,160,triangle,1,0,,,,,,,,,,,,,,,,repeat,number,numRpt,k,0.894,Hi,,,,,,2,,,,,,,,high,12,0,12,0,1,,,,,,,,,
296737,2022-11-27_20h47.26.049,vts_reward_expectancy_bt,2022.2.4,MacIntel,58.82352941,Safari,1440,900,,,,,0,877,,,,,,,,,,,,,,,,,Y,139,circle,1,0,,,,,,,,,,,,,,,,switch,letter,lettSwt,f,1.01,Hi,,,,,,2,,,,,,,,high,13,0,13,0,1,,,,,,,,,
296737,2022-11-27_20h47.26.049,vts_reward_expectancy_bt,2022.2.4,MacIntel,58.82352941,Safari,1440,900,,,,,1,878,,,,,,,,,,,,,,,,,W,125,hexagon,1,0,,,,,,,,,,,,,,,,repeat,letter,lettRpt,f,1.093,Lo,,,,,,2,,,,,,,,high,14,0,14,0,1,,,,,,,,,
296737,2022-11-27_20h47.26.049,vts_reward_expectancy_bt,2022.2.4,MacIntel,58.82352941,Safari,1440,900,,,,,1,879,,,,,,,,,,,,,,,,,B,132,star,1,0,,,,,,,,,,,,,,,,repeat,letter,lettRpt,d,0.626,Lo,,,,,,2,,,,,,,,high,15,0,15,0,1,,,,,,,,,
296737,2022-11-27_20h47.26.049,vts_reward_expectancy_bt,2022.2.4,MacIntel,58.82352941,Safari,1440,900,,,,,10,889,,,,,,,,,,,,,,,,,D,146,circle,1,0,,,,,,,,,,,,,,,,switch,number,numSwt,j,0.493,Hi,,,,,,2,,,,,,,,high,16,0,16,0,1,,,,,,,,,
296737,2022-11-27_20h47.26.049,vts_reward_expectancy_bt,2022.2.4,MacIntel,58.82352941,Safari,1440,900,,,,,1,890,,,,,,,,,,,,,,,,,F,132,star,1,0,,,,,,,,,,,,,,,,repeat,number,numRpt,j,0.593,Lo,,,,,,2,,,,,,,,high,17,0,17,0,1,,,,,,,,,
296737,2022-11-27_20h47.26.049,vts_reward_expectancy_bt,2022.2.4,MacIntel,58.82352941,Safari,1440,900,,,,,1,891,,,,,,,,,,,,,,,,,U,160,hexagon,1,0,,,,,,,,,,,,,,,,switch,letter,lettSwt,f,1.027,Lo,,,,,,2,,,,,,,,high,18,0,18,0,1,,,,,,,,,
296737,2022-11-27_20h47.26.049,vts_reward_expectancy_bt,2022.2.4,MacIntel,58.82352941,Safari,1440,900,,,,,0,891,,,,,,,,,,,,,,,,,S,139,triangle,1,0,,,,,,,,,,,,,,,,repeat,letter,lettRpt,f,0.761,Hi,,,,,,2,,,,,,,,high,19,0,19,0,1,,,,,,,,,
296737,2022-11-27_20h47.26.049,vts_reward_expectancy_bt,2022.2.4,MacIntel,58.82352941,Safari,1440,900,,,,,1,892,,,,,,,,,,,,,,,,,H,167,hexagon,1,0,,,,,,,,,,,,,,,,repeat,letter,lettRpt,d,0.654,Lo,,,,,,2,,,,,,,,high,20,0,20,0,1,,,,,,,,,
296737,2022-11-27_20h47.26.049,vts_reward_expectancy_bt,2022.2.4,MacIntel,58.82352941,Safari,1440,900,,,,,0,892,,,,,,,,,,,,,,,,,Y,181,triangle,1,0,,,,,,,,,,,,,,,,repeat,letter,lettRpt,f,0.918,Hi,,,,,,2,,,,,,,,high,21,0,21,0,1,,,,,,,,,
296737,2022-11-27_20h47.26.049,vts_reward_expectancy_bt,2022.2.4,MacIntel,58.82352941,Safari,1440,900,,,,,1,893,,,,,,,,,,,,,,,,,W,174,star,1,0,,,,,,,,,,,,,,,,switch,number,numSwt,k,0.784,Lo,,,,,,2,,,,,,,,high,22,0,22,0,1,,,,,,,,,
296737,2022-11-27_20h47.26.049,vts_reward_expectancy_bt,2022.2.4,MacIntel,58.82352941,Safari,1440,900,,,,,10,903,,,,,,,,,,,,,,,,,B,125,circle,1,0,,,,,,,,,,,,,,,,repeat,number,numRpt,j,0.645,Hi,,,,,,2,,,,,,,,high,23,0,23,0,1,,,,,,,,,
296737,2022-11-27_20h47.26.049,vts_reward_expectancy_bt,2022.2.4,MacIntel,58.82352941,Safari,1440,900,,,,,1,904,,,,,,,,,,,,,,,,,F,167,star,1,0,,,,,,,,,,,,,,,,repeat,number,numRpt,k,1.146,Lo,,,,,,2,,,,,,,,high,24,0,24,0,1,,,,,,,,,
296737,2022-11-27_20h47.26.049,vts_reward_expectancy_bt,2022.2.4,MacIntel,58.82352941,Safari,1440,900,,,,,1,905,,,,,,,,,,,,,,,,,S,125,triangle,1,0,,,,,,,,,,,,,,,,repeat,number,numRpt,j,0.762,Hi,,,,,,2,,,,,,,,high,25,0,25,0,1,,,,,,,,,
296737,2022-11-27_20h47.26.049,vts_reward_expectancy_bt,2022.2.4,MacIntel,58.82352941,Safari,1440,900,,,,,10,915,,,,,,,,,,,,,,,,,W,160,circle,1,0,,,,,,,,,,,,,,,,switch,letter,lettSwt,f,0.567,Hi,,,,,,2,,,,,,,,high,26,0,26,0,1,,,,,,,,,
296737,2022-11-27_20h47.26.049,vts_reward_expectancy_bt,2022.2.4,MacIntel,58.82352941,Safari,1440,900,,,,,10,925,,,,,,,,,,,,,,,,,D,146,hexagon,1,0,,,,,,,,,,,,,,,,repeat,letter,lettRpt,d,1.044,Lo,,,,,,2,,,,,,,,high,27,0,27,0,1,,,,,,,,,
296737,2022-11-27_20h47.26.049,vts_reward_expectancy_bt,2022.2.4,MacIntel,58.82352941,Safari,1440,900,,,,,10,935,,,,,,,,,,,,,,,,,Y,139,triangle,1,0,,,,,,,,,,,,,,,,repeat,letter,lettRpt,f,0.611,Hi,,,,,,2,,,,,,,,high,28,0,28,0,1,,,,,,,,,
296737,2022-11-27_20h47.26.049,vts_reward_expectancy_bt,2022.2.4,MacIntel,58.82352941,Safari,1440,900,,,,,10,945,,,,,,,,,,,,,,,,,B,174,circle,1,0,,,,,,,,,,,,,,,,repeat,letter,lettRpt,d,0.537,Hi,,,,,,2,,,,,,,,high,29,0,29,0,1,,,,,,,,,
296737,2022-11-27_20h47.26.049,vts_reward_expectancy_bt,2022.2.4,MacIntel,58.82352941,Safari,1440,900,,,,,10,955,,,,,,,,,,,,,,,,,U,132,star,1,0,,,,,,,,,,,,,,,,switch,number,numSwt,j,0.51,Lo,,,,,,2,,,,,,,,high,30,0,30,0,1,,,,,,,,,
296737,2022-11-27_20h47.26.049,vts_reward_expectancy_bt,2022.2.4,MacIntel,58.82352941,Safari,1440,900,,,,,1,956,,,,,,,,,,,,,,,,,H,181,hexagon,1,0,,,,,,,,,,,,,,,,repeat,number,numRpt,k,0.694,Lo,,,,,,2,,,,,,,,high,31,0,31,0,1,,,,,,,,,
296737,2022-11-27_20h47.26.049,vts_reward_expectancy_bt,2022.2.4,MacIntel,58.82352941,Safari,1440,900,,,,,0,956,,,,,,,,,,,,,,,,,W,146,triangle,1,0,,,,,,,,,,,,,,,,switch,letter,lettSwt,f,1.226,Hi,,,,,,3,,,,,,space,2.63,high,0,0,0,0,1,,,,,,,,,
296737,2022-11-27_20h47.26.049,vts_reward_expectancy_bt,2022.2.4,MacIntel,58.82352941,Safari,1440,900,,,,,0,956,,,,,,,,,,,,,,,,,U,160,circle,0,0,,,,,,,,,,,,,,,,repeat,letter,NA,d,0.833,Hi,,,,,,3,,,,,,,,high,1,0,1,0,1,,,,,,,,,
296737,2022-11-27_20h47.26.049,vts_reward_expectancy_bt,2022.2.4,MacIntel,58.82352941,Safari,1440,900,,,,,1,957,,,,,,,,,,,,,,,,,D,139,hexagon,1,1,,,,,,,,,,,,,,,,repeat,letter,lettRpt,d,0.627,Lo,,,,,,3,,,,,,,,high,2,0,2,0,1,,,,,,,,,
296737,2022-11-27_20h47.26.049,vts_reward_expectancy_bt,2022.2.4,MacIntel,58.82352941,Safari,1440,900,,,,,10,967,,,,,,,,,,,,,,,,,B,174,star,1,0,,,,,,,,,,,,,,,,repeat,letter,lettRpt,d,0.544,Lo,,,,,,3,,,,,,,,high,3,0,3,0,1,,,,,,,,,
296737,2022-11-27_20h47.26.049,vts_reward_expectancy_bt,2022.2.4,MacIntel,58.82352941,Safari,1440,900,,,,,0,967,,,,,,,,,,,,,,,,,F,132,triangle,1,0,,,,,,,,,,,,,,,,repeat,letter,lettRpt,d,1.462,Hi,,,,,,3,,,,,,,,high,4,0,4,0,1,,,,,,,,,
296737,2022-11-27_20h47.26.049,vts_reward_expectancy_bt,2022.2.4,MacIntel,58.82352941,Safari,1440,900,,,,,0,967,,,,,,,,,,,,,,,,,Y,125,circle,0,0,,,,,,,,,,,,,,,,switch,number,NA,k,1.011,Hi,,,,,,3,,,,,,,,high,5,0,5,0,1,,,,,,,,,
296737,2022-11-27_20h47.26.049,vts_reward_expectancy_bt,2022.2.4,MacIntel,58.82352941,Safari,1440,900,,,,,0,967,,,,,,,,,,,,,,,,,S,167,hexagon,0,1,,,,,,,,,,,,,,,,switch,letter,NA,d,0.877,Hi,,,,,,3,,,,,,,,high,6,0,6,0,1,,,,,,,,,
296737,2022-11-27_20h47.26.049,vts_reward_expectancy_bt,2022.2.4,MacIntel,58.82352941,Safari,1440,900,,,,,1,968,,,,,,,,,,,,,,,,,H,181,star,1,1,,,,,,,,,,,,,,,,repeat,letter,lettRpt,d,0.627,Lo,,,,,,3,,,,,,,,high,7,0,7,0,1,,,,,,,,,
296737,2022-11-27_20h47.26.049,vts_reward_expectancy_bt,2022.2.4,MacIntel,58.82352941,Safari,1440,900,,,,,0,968,,,,,,,,,,,,,,,,,W,146,triangle,1,0,,,,,,,,,,,,,,,,repeat,letter,lettRpt,f,0.835,Hi,,,,,,3,,,,,,,,high,8,0,8,0,1,,,,,,,,,
296737,2022-11-27_20h47.26.049,vts_reward_expectancy_bt,2022.2.4,MacIntel,58.82352941,Safari,1440,900,,,,,10,978,,,,,,,,,,,,,,,,,U,160,hexagon,1,0,,,,,,,,,,,,,,,,switch,number,numSwt,k,0.552,Lo,,,,,,3,,,,,,,,high,9,0,9,0,1,,,,,,,,,
296737,2022-11-27_20h47.26.049,vts_reward_expectancy_bt,2022.2.4,MacIntel,58.82352941,Safari,1440,900,,,,,1,979,,,,,,,,,,,,,,,,,D,139,star,1,0,,,,,,,,,,,,,,,,repeat,number,numRpt,j,0.55,Lo,,,,,,3,,,,,,,,high,10,0,10,0,1,,,,,,,,,
296737,2022-11-27_20h47.26.049,vts_reward_expectancy_bt,2022.2.4,MacIntel,58.82352941,Safari,1440,900,,,,,10,989,,,,,,,,,,,,,,,,,B,174,circle,1,0,,,,,,,,,,,,,,,,repeat,number,numRpt,k,0.551,Hi,,,,,,3,,,,,,,,high,11,0,11,0,1,,,,,,,,,
296737,2022-11-27_20h47.26.049,vts_reward_expectancy_bt,2022.2.4,MacIntel,58.82352941,Safari,1440,900,,,,,0,989,,,,,,,,,,,,,,,,,F,132,circle,1,0,,,,,,,,,,,,,,,,repeat,number,numRpt,j,1.228,Hi,,,,,,3,,,,,,,,high,12,0,12,0,1,,,,,,,,,
296737,2022-11-27_20h47.26.049,vts_reward_expectancy_bt,2022.2.4,MacIntel,58.82352941,Safari,1440,900,,,,,1,990,,,,,,,,,,,,,,,,,Y,125,star,1,0,,,,,,,,,,,,,,,,repeat,number,numRpt,j,1.276,Lo,,,,,,3,,,,,,,,high,13,0,13,0,1,,,,,,,,,
296737,2022-11-27_20h47.26.049,vts_reward_expectancy_bt,2022.2.4,MacIntel,58.82352941,Safari,1440,900,,,,,10,1000,,,,,,,,,,,,,,,,,S,167,hexagon,1,0,,,,,,,,,,,,,,,,switch,letter,lettSwt,f,1.644,Lo,,,,,,3,,,,,,,,high,14,0,14,0,1,,,,,,,,,
296737,2022-11-27_20h47.26.049,vts_reward_expectancy_bt,2022.2.4,MacIntel,58.82352941,Safari,1440,900,,,,,0,1000,,,,,,,,,,,,,,,,,H,181,triangle,1,0,,,,,,,,,,,,,,,,repeat,letter,lettRpt,d,0.678,Hi,,,,,,3,,,,,,,,high,15,0,15,0,1,,,,,,,,,
296737,2022-11-27_20h47.26.049,vts_reward_expectancy_bt,2022.2.4,MacIntel,58.82352941,Safari,1440,900,,,,,0,1000,,,,,,,,,,,,,,,,,D,125,circle,1,0,,,,,,,,,,,,,,,,switch,number,numSwt,j,0.893,Hi,,,,,,3,,,,,,,,high,16,0,16,0,1,,,,,,,,,
296737,2022-11-27_20h47.26.049,vts_reward_expectancy_bt,2022.2.4,MacIntel,58.82352941,Safari,1440,900,,,,,1,1001,,,,,,,,,,,,,,,,,W,139,star,1,0,,,,,,,,,,,,,,,,switch,letter,lettSwt,f,0.815,Lo,,,,,,3,,,,,,,,high,17,0,17,0,1,,,,,,,,,
296737,2022-11-27_20h47.26.049,vts_reward_expectancy_bt,2022.2.4,MacIntel,58.82352941,Safari,1440,900,,,,,0,1001,,,,,,,,,,,,,,,,,U,146,triangle,1,0,,,,,,,,,,,,,,,,switch,number,numSwt,j,0.665,Hi,,,,,,3,,,,,,,,high,18,0,18,0,1,,,,,,,,,
296737,2022-11-27_20h47.26.049,vts_reward_expectancy_bt,2022.2.4,MacIntel,58.82352941,Safari,1440,900,,,,,1,1002,,,,,,,,,,,,,,,,,Y,167,hexagon,1,0,,,,,,,,,,,,,,,,repeat,number,numRpt,k,1.278,Lo,,,,,,3,,,,,,,,high,19,0,19,0,1,,,,,,,,,
296737,2022-11-27_20h47.26.049,vts_reward_expectancy_bt,2022.2.4,MacIntel,58.82352941,Safari,1440,900,,,,,1,1003,,,,,,,,,,,,,,,,,F,160,hexagon,1,0,,,,,,,,,,,,,,,,repeat,number,numRpt,k,1.235,Lo,,,,,,3,,,,,,,,high,20,0,20,0,1,,,,,,,,,
296737,2022-11-27_20h47.26.049,vts_reward_expectancy_bt,2022.2.4,MacIntel,58.82352941,Safari,1440,900,,,,,0,1003,,,,,,,,,,,,,,,,,H,181,star,0,0,,,,,,,,,,,,,,,,switch,letter,NA,f,1.177,Lo,,,,,,3,,,,,,,,high,21,0,21,0,1,,,,,,,,,
296737,2022-11-27_20h47.26.049,vts_reward_expectancy_bt,2022.2.4,MacIntel,58.82352941,Safari,1440,900,,,,,0,1003,,,,,,,,,,,,,,,,,S,132,triangle,1,1,,,,,,,,,,,,,,,,repeat,letter,lettRpt,f,1.333,Hi,,,,,,3,,,,,,,,high,22,0,22,0,1,,,,,,,,,
296737,2022-11-27_20h47.26.049,vts_reward_expectancy_bt,2022.2.4,MacIntel,58.82352941,Safari,1440,900,,,,,0,1003,,,,,,,,,,,,,,,,,B,174,circle,1,0,,,,,,,,,,,,,,,,repeat,letter,lettRpt,d,0.926,Hi,,,,,,3,,,,,,,,high,23,0,23,0,1,,,,,,,,,
296737,2022-11-27_20h47.26.049,vts_reward_expectancy_bt,2022.2.4,MacIntel,58.82352941,Safari,1440,900,,,,,1,1004,,,,,,,,,,,,,,,,,F,125,hexagon,1,0,,,,,,,,,,,,,,,,switch,number,numSwt,j,0.916,Lo,,,,,,3,,,,,,,,high,24,0,24,0,1,,,,,,,,,
296737,2022-11-27_20h47.26.049,vts_reward_expectancy_bt,2022.2.4,MacIntel,58.82352941,Safari,1440,900,,,,,0,1004,,,,,,,,,,,,,,,,,S,139,circle,0,0,,,,,,,,,,,,,,,,switch,letter,NA,d,0.845,Lo,,,,,,3,,,,,,,,high,25,0,25,0,1,,,,,,,,,
296737,2022-11-27_20h47.26.049,vts_reward_expectancy_bt,2022.2.4,MacIntel,58.82352941,Safari,1440,900,,,,,0,1004,,,,,,,,,,,,,,,,,Y,146,triangle,1,1,,,,,,,,,,,,,,,,repeat,letter,lettRpt,f,0.794,Hi,,,,,,3,,,,,,,,high,26,0,26,0,1,,,,,,,,,
296737,2022-11-27_20h47.26.049,vts_reward_expectancy_bt,2022.2.4,MacIntel,58.82352941,Safari,1440,900,,,,,1,1005,,,,,,,,,,,,,,,,,U,132,star,1,0,,,,,,,,,,,,,,,,switch,number,numSwt,j,0.944,Lo,,,,,,3,,,,,,,,high,27,0,27,0,1,,,,,,,,,
296737,2022-11-27_20h47.26.049,vts_reward_expectancy_bt,2022.2.4,MacIntel,58.82352941,Safari,1440,900,,,,,0,1005,,,,,,,,,,,,,,,,,B,174,star,0,0,,,,,,,,,,,,,,,,switch,letter,NA,f,0.915,Lo,,,,,,3,,,,,,,,high,28,0,28,0,1,,,,,,,,,
296737,2022-11-27_20h47.26.049,vts_reward_expectancy_bt,2022.2.4,MacIntel,58.82352941,Safari,1440,900,,,,,0,1005,,,,,,,,,,,,,,,,,W,160,triangle,1,1,,,,,,,,,,,,,,,,repeat,letter,lettRpt,f,1.43,Hi,,,,,,3,,,,,,,,high,29,0,29,0,1,,,,,,,,,
296737,2022-11-27_20h47.26.049,vts_reward_expectancy_bt,2022.2.4,MacIntel,58.82352941,Safari,1440,900,,,,,0,1005,,,,,,,,,,,,,,,,,H,167,hexagon,0,0,,,,,,,,,,,,,,,,repeat,letter,NA,f,1.294,Hi,,,,,,3,,,,,,,,high,30,0,30,0,1,,,,,,,,,
296737,2022-11-27_20h47.26.049,vts_reward_expectancy_bt,2022.2.4,MacIntel,58.82352941,Safari,1440,900,,,,,0,1005,,,,,,,,,,,,,,,,,D,181,circle,0,1,,,,,,,,,,,,,,,,repeat,letter,NA,f,1.031,Hi,,,,,,3,,,,,,,,high,31,0,31,0,1,,,,,,,,,
296737,2022-11-27_20h47.26.049,vts_reward_expectancy_bt,2022.2.4,MacIntel,58.82352941,Safari,1440,900,,,,,0,1005,,,,,,,,,,,,,,,,,D,125,triangle,1,1,,,,,,,,,,,,,,,,repeat,letter,lettRpt,d,0.73,Hi,,,,,,4,,,,,,space,1.381,high,0,0,0,0,1,,,,,,,,,
296737,2022-11-27_20h47.26.049,vts_reward_expectancy_bt,2022.2.4,MacIntel,58.82352941,Safari,1440,900,,,,,10,1015,,,,,,,,,,,,,,,,,U,139,circle,1,0,,,,,,,,,,,,,,,,switch,number,numSwt,j,0.71,Hi,,,,,,4,,,,,,,,high,1,0,1,0,1,,,,,,,,,
296737,2022-11-27_20h47.26.049,vts_reward_expectancy_bt,2022.2.4,MacIntel,58.82352941,Safari,1440,900,,,,,1,1016,,,,,,,,,,,,,,,,,H,181,star,1,0,,,,,,,,,,,,,,,,repeat,number,numRpt,k,0.512,Lo,,,,,,4,,,,,,,,high,2,0,2,0,1,,,,,,,,,
296737,2022-11-27_20h47.26.049,vts_reward_expectancy_bt,2022.2.4,MacIntel,58.82352941,Safari,1440,900,,,,,1,1017,,,,,,,,,,,,,,,,,F,167,hexagon,1,0,,,,,,,,,,,,,,,,switch,letter,lettSwt,d,1.413,Lo,,,,,,4,,,,,,,,high,3,0,3,0,1,,,,,,,,,
296737,2022-11-27_20h47.26.049,vts_reward_expectancy_bt,2022.2.4,MacIntel,58.82352941,Safari,1440,900,,,,,0,1017,,,,,,,,,,,,,,,,,B,146,triangle,1,0,,,,,,,,,,,,,,,,repeat,letter,lettRpt,d,0.947,Hi,,,,,,4,,,,,,,,high,4,0,4,0,1,,,,,,,,,
296737,2022-11-27_20h47.26.049,vts_reward_expectancy_bt,2022.2.4,MacIntel,58.82352941,Safari,1440,900,,,,,10,1027,,,,,,,,,,,,,,,,,Y,132,circle,1,0,,,,,,,,,,,,,,,,repeat,letter,lettRpt,f,0.577,Hi,,,,,,4,,,,,,,,high,5,0,5,0,1,,,,,,,,,
296737,2022-11-27_20h47.26.049,vts_reward_expectancy_bt,2022.2.4,MacIntel,58.82352941,Safari,1440,900,,,,,0,1027,,,,,,,,,,,,,,,,,W,174,star,0,0,,,,,,,,,,,,,,,,repeat,letter,NA,d,0.751,Hi,,,,,,4,,,,,,,,high,6,0,6,0,1,,,,,,,,,
296737,2022-11-27_20h47.26.049,vts_reward_expectancy_bt,2022.2.4,MacIntel,58.82352941,Safari,1440,900,,,,,10,1037,,,,,,,,,,,,,,,,,S,160,hexagon,1,1,,,,,,,,,,,,,,,,switch,number,numSwt,k,1.078,Lo,,,,,,4,,,,,,,,high,7,0,7,0,1,,,,,,,,,
296737,2022-11-27_20h47.26.049,vts_reward_expectancy_bt,2022.2.4,MacIntel,58.82352941,Safari,1440,900,,,,,1,1038,,,,,,,,,,,,,,,,,D,125,star,1,0,,,,,,,,,,,,,,,,repeat,number,numRpt,j,0.929,Lo,,,,,,4,,,,,,,,high,8,0,8,0,1,,,,,,,,,
296737,2022-11-27_20h47.26.049,vts_reward_expectancy_bt,2022.2.4,MacIntel,58.82352941,Safari,1440,900,,,,,10,1048,,,,,,,,,,,,,,,,,U,139,triangle,1,0,,,,,,,,,,,,,,,,switch,letter,lettSwt,f,0.661,Hi,,,,,,4,,,,,,,,high,9,0,9,0,1,,,,,,,,,
296737,2022-11-27_20h47.26.049,vts_reward_expectancy_bt,2022.2.4,MacIntel,58.82352941,Safari,1440,900,,,,,1,1049,,,,,,,,,,,,,,,,,H,181,hexagon,1,0,,,,,,,,,,,,,,,,repeat,letter,lettRpt,d,0.845,Lo,,,,,,4,,,,,,,,high,10,0,10,0,1,,,,,,,,,
296737,2022-11-27_20h47.26.049,vts_reward_expectancy_bt,2022.2.4,MacIntel,58.82352941,Safari,1440,900,,,,,0,1049,,,,,,,,,,,,,,,,,F,167,circle,1,0,,,,,,,,,,,,,,,,repeat,letter,lettRpt,d,0.678,Hi,,,,,,4,,,,,,,,high,11,0,11,0,1,,,,,,,,,
296737,2022-11-27_20h47.26.049,vts_reward_expectancy_bt,2022.2.4,MacIntel,58.82352941,Safari,1440,900,,,,,1,1050,,,,,,,,,,,,,,,,,B,146,circle,1,0,,,,,,,,,,,,,,,,repeat,letter,lettRpt,d,0.593,Hi,,,,,,4,,,,,,,,high,12,0,12,0,1,,,,,,,,,
296737,2022-11-27_20h47.26.049,vts_reward_expectancy_bt,2022.2.4,MacIntel,58.82352941,Safari,1440,900,,,,,10,1060,,,,,,,,,,,,,,,,,Y,132,triangle,1,0,,,,,,,,,,,,,,,,repeat,letter,lettRpt,f,0.61,Hi,,,,,,4,,,,,,,,high,13,0,13,0,1,,,,,,,,,
296737,2022-11-27_20h47.26.049,vts_reward_expectancy_bt,2022.2.4,MacIntel,58.82352941,Safari,1440,900,,,,,1,1061,,,,,,,,,,,,,,,,,W,174,star,1,0,,,,,,,,,,,,,,,,switch,number,numSwt,k,0.681,Lo,,,,,,4,,,,,,,,high,14,0,14,0,1,,,,,,,,,
296737,2022-11-27_20h47.26.049,vts_reward_expectancy_bt,2022.2.4,MacIntel,58.82352941,Safari,1440,900,,,,,10,1071,,,,,,,,,,,,,,,,,S,160,hexagon,1,0,,,,,,,,,,,,,,,,switch,letter,lettSwt,f,1.211,Lo,,,,,,4,,,,,,,,high,15,0,15,0,1,,,,,,,,,
296737,2022-11-27_20h47.26.049,vts_reward_expectancy_bt,2022.2.4,MacIntel,58.82352941,Safari,1440,900,,,,,10,1081,,,,,,,,,,,,,,,,,B,125,circle,1,0,,,,,,,,,,,,,,,,switch,number,numSwt,j,0.603,Hi,,,,,,4,,,,,,,,high,16,0,16,0,1,,,,,,,,,
296737,2022-11-27_20h47.26.049,vts_reward_expectancy_bt,2022.2.4,MacIntel,58.82352941,Safari,1440,900,,,,,1,1082,,,,,,,,,,,,,,,,,D,139,star,1,0,,,,,,,,,,,,,,,,switch,letter,lettSwt,d,0.796,Lo,,,,,,4,,,,,,,,high,17,0,17,0,1,,,,,,,,,
296737,2022-11-27_20h47.26.049,vts_reward_expectancy_bt,2022.2.4,MacIntel,58.82352941,Safari,1440,900,,,,,0,1082,,,,,,,,,,,,,,,,,U,167,triangle,1,0,,,,,,,,,,,,,,,,switch,number,numSwt,k,0.794,Hi,,,,,,4,,,,,,,,high,18,0,18,0,1,,,,,,,,,
296737,2022-11-27_20h47.26.049,vts_reward_expectancy_bt,2022.2.4,MacIntel,58.82352941,Safari,1440,900,,,,,1,1083,,,,,,,,,,,,,,,,,F,146,hexagon,1,0,,,,,,,,,,,,,,,,repeat,number,numRpt,j,0.861,Lo,,,,,,4,,,,,,,,high,19,0,19,0,1,,,,,,,,,
296737,2022-11-27_20h47.26.049,vts_reward_expectancy_bt,2022.2.4,MacIntel,58.82352941,Safari,1440,900,,,,,1,1084,,,,,,,,,,,,,,,,,S,160,hexagon,1,0,,,,,,,,,,,,,,,,repeat,number,numRpt,k,0.612,Lo,,,,,,4,,,,,,,,high,20,0,20,0,1,,,,,,,,,
296737,2022-11-27_20h47.26.049,vts_reward_expectancy_bt,2022.2.4,MacIntel,58.82352941,Safari,1440,900,,,,,1,1085,,,,,,,,,,,,,,,,,H,132,star,1,0,,,,,,,,,,,,,,,,switch,letter,lettSwt,d,0.612,Lo,,,,,,4,,,,,,,,high,21,0,21,0,1,,,,,,,,,
296737,2022-11-27_20h47.26.049,vts_reward_expectancy_bt,2022.2.4,MacIntel,58.82352941,Safari,1440,900,,,,,10,1095,,,,,,,,,,,,,,,,,W,174,circle,1,0,,,,,,,,,,,,,,,,repeat,letter,lettRpt,f,0.593,Hi,,,,,,4,,,,,,,,high,22,0,22,0,1,,,,,,,,,
296737,2022-11-27_20h47.26.049,vts_reward_expectancy_bt,2022.2.4,MacIntel,58.82352941,Safari,1440,900,,,,,10,1105,,,,,,,,,,,,,,,,,Y,181,triangle,1,0,,,,,,,,,,,,,,,,repeat,letter,lettRpt,f,0.579,Hi,,,,,,4,,,,,,,,high,23,0,23,0,1,,,,,,,,,
296737,2022-11-27_20h47.26.049,vts_reward_expectancy_bt,2022.2.4,MacIntel,58.82352941,Safari,1440,900,,,,,0,1105,,,,,,,,,,,,,,,,,D,125,triangle,1,0,,,,,,,,,,,,,,,,switch,number,numSwt,j,1.095,Hi,,,,,,4,,,,,,,,high,24,0,24,0,1,,,,,,,,,
296737,2022-11-27_20h47.26.049,vts_reward_expectancy_bt,2022.2.4,MacIntel,58.82352941,Safari,1440,900,,,,,0,1105,,,,,,,,,,,,,,,,,U,132,star,0,0,,,,,,,,,,,,,,,,switch,letter,NA,d,1.367,Hi,,,,,,4,,,,,,,,high,25,0,25,0,1,,,,,,,,,
296737,2022-11-27_20h47.26.049,vts_reward_expectancy_bt,2022.2.4,MacIntel,58.82352941,Safari,1440,900,,,,,0,1105,,,,,,,,,,,,,,,,,S,139,circle,1,1,,,,,,,,,,,,,,,,switch,number,numSwt,j,0.947,Hi,,,,,,4,,,,,,,,high,26,0,26,0,1,,,,,,,,,
296737,2022-11-27_20h47.26.049,vts_reward_expectancy_bt,2022.2.4,MacIntel,58.82352941,Safari,1440,900,,,,,10,1115,,,,,,,,,,,,,,,,,W,174,hexagon,1,0,,,,,,,,,,,,,,,,switch,letter,lettSwt,f,0.777,Lo,,,,,,4,,,,,,,,high,27,0,27,0,1,,,,,,,,,
296737,2022-11-27_20h47.26.049,vts_reward_expectancy_bt,2022.2.4,MacIntel,58.82352941,Safari,1440,900,,,,,0,1115,,,,,,,,,,,,,,,,,F,167,triangle,1,0,,,,,,,,,,,,,,,,switch,number,numSwt,k,0.836,Hi,,,,,,4,,,,,,,,high,28,0,28,0,1,,,,,,,,,
296737,2022-11-27_20h47.26.049,vts_reward_expectancy_bt,2022.2.4,MacIntel,58.82352941,Safari,1440,900,,,,,0,1115,,,,,,,,,,,,,,,,,B,160,hexagon,0,0,,,,,,,,,,,,,,,,switch,letter,NA,f,0.863,Hi,,,,,,4,,,,,,,,high,29,0,29,0,1,,,,,,,,,
296737,2022-11-27_20h47.26.049,vts_reward_expectancy_bt,2022.2.4,MacIntel,58.82352941,Safari,1440,900,,,,,0,1115,,,,,,,,,,,,,,,,,Y,181,circle,1,1,,,,,,,,,,,,,,,,repeat,letter,lettRpt,f,0.795,Hi,,,,,,4,,,,,,,,high,30,0,30,0,1,,,,,,,,,
296737,2022-11-27_20h47.26.049,vts_reward_expectancy_bt,2022.2.4,MacIntel,58.82352941,Safari,1440,900,,,,,1,1116,,,,,,,,,,,,,,,,,H,146,star,1,0,,,,,,,,,,,,,,,,repeat,letter,lettRpt,d,0.747,Lo,,,,,,4,,,,,,,,high,31,0,31,0,1,,,,,,,,,
296737,2022-11-27_20h47.26.049,vts_reward_expectancy_bt,2022.2.4,MacIntel,58.82352941,Safari,1440,900,,,,,0,1116,,,,,,,,,,,,,,,,,F,146,triangle,1,0,,,,,,,,,,,,,,,,repeat,letter,lettRpt,d,0.614,Hi,,,,,,5,,,,,,space,2.547,high,0,0,0,0,1,,,,,,,,,
296737,2022-11-27_20h47.26.049,vts_reward_expectancy_bt,2022.2.4,MacIntel,58.82352941,Safari,1440,900,,,,,0,1116,,,,,,,,,,,,,,,,,S,181,hexagon,0,0,,,,,,,,,,,,,,,,repeat,letter,NA,d,0.394,Hi,,,,,,5,,,,,,,,high,1,0,1,0,1,,,,,,,,,
296737,2022-11-27_20h47.26.049,vts_reward_expectancy_bt,2022.2.4,MacIntel,58.82352941,Safari,1440,900,,,,,10,1126,,,,,,,,,,,,,,,,,H,125,circle,1,1,,,,,,,,,,,,,,,,switch,number,numSwt,j,0.443,Hi,,,,,,5,,,,,,,,high,2,0,2,0,1,,,,,,,,,
296737,2022-11-27_20h47.26.049,vts_reward_expectancy_bt,2022.2.4,MacIntel,58.82352941,Safari,1440,900,,,,,1,1127,,,,,,,,,,,,,,,,,Y,167,star,1,0,,,,,,,,,,,,,,,,repeat,number,numRpt,k,0.562,Lo,,,,,,5,,,,,,,,high,3,0,3,0,1,,,,,,,,,
296737,2022-11-27_20h47.26.049,vts_reward_expectancy_bt,2022.2.4,MacIntel,58.82352941,Safari,1440,900,,,,,0,1127,,,,,,,,,,,,,,,,,U,139,triangle,1,0,,,,,,,,,,,,,,,,repeat,number,numRpt,j,0.715,Hi,,,,,,5,,,,,,,,high,4,0,4,0,1,,,,,,,,,
296737,2022-11-27_20h47.26.049,vts_reward_expectancy_bt,2022.2.4,MacIntel,58.82352941,Safari,1440,900,,,,,1,1128,,,,,,,,,,,,,,,,,B,174,hexagon,1,0,,,,,,,,,,,,,,,,repeat,number,numRpt,k,0.663,Lo,,,,,,5,,,,,,,,high,5,0,5,0,1,,,,,,,,,
296737,2022-11-27_20h47.26.049,vts_reward_expectancy_bt,2022.2.4,MacIntel,58.82352941,Safari,1440,900,,,,,0,1128,,,,,,,,,,,,,,,,,W,132,circle,0,0,,,,,,,,,,,,,,,,switch,letter,NA,d,0.56,Lo,,,,,,5,,,,,,,,high,6,0,6,0,1,,,,,,,,,
296737,2022-11-27_20h47.26.049,vts_reward_expectancy_bt,2022.2.4,MacIntel,58.82352941,Safari,1440,900,,,,,1,1129,,,,,,,,,,,,,,,,,D,160,star,1,1,,,,,,,,,,,,,,,,repeat,letter,lettRpt,d,0.736,Lo,,,,,,5,,,,,,,,high,7,0,7,0,1,,,,,,,,,
296737,2022-11-27_20h47.26.049,vts_reward_expectancy_bt,2022.2.4,MacIntel,58.82352941,Safari,1440,900,,,,,1,1130,,,,,,,,,,,,,,,,,F,146,star,1,0,,,,,,,,,,,,,,,,repeat,letter,lettRpt,d,0.577,Lo,,,,,,5,,,,,,,,high,8,0,8,0,1,,,,,,,,,
296737,2022-11-27_20h47.26.049,vts_reward_expectancy_bt,2022.2.4,MacIntel,58.82352941,Safari,1440,900,,,,,0,1130,,,,,,,,,,,,,,,,,S,181,circle,1,0,,,,,,,,,,,,,,,,switch,number,numSwt,k,0.861,Hi,,,,,,5,,,,,,,,high,9,0,9,0,1,,,,,,,,,
296737,2022-11-27_20h47.26.049,vts_reward_expectancy_bt,2022.2.4,MacIntel,58.82352941,Safari,1440,900,,,,,0,1130,,,,,,,,,,,,,,,,,H,125,triangle,1,0,,,,,,,,,,,,,,,,repeat,number,numRpt,j,0.911,Hi,,,,,,5,,,,,,,,high,10,0,10,0,1,,,,,,,,,
296737,2022-11-27_20h47.26.049,vts_reward_expectancy_bt,2022.2.4,MacIntel,58.82352941,Safari,1440,900,,,,,10,1140,,,,,,,,,,,,,,,,,Y,167,hexagon,1,0,,,,,,,,,,,,,,,,repeat,number,numRpt,k,0.744,Lo,,,,,,5,,,,,,,,high,11,0,11,0,1,,,,,,,,,
296737,2022-11-27_20h47.26.049,vts_reward_expectancy_bt,2022.2.4,MacIntel,58.82352941,Safari,1440,900,,,,,1,1141,,,,,,,,,,,,,,,,,U,139,star,1,0,,,,,,,,,,,,,,,,repeat,number,numRpt,j,0.645,Lo,,,,,,5,,,,,,,,high,12,0,12,0,1,,,,,,,,,
296737,2022-11-27_20h47.26.049,vts_reward_expectancy_bt,2022.2.4,MacIntel,58.82352941,Safari,1440,900,,,,,0,1141,,,,,,,,,,,,,,,,,B,174,triangle,1,0,,,,,,,,,,,,,,,,repeat,number,numRpt,k,0.628,Hi,,,,,,5,,,,,,,,high,13,0,13,0,1,,,,,,,,,
296737,2022-11-27_20h47.26.049,vts_reward_expectancy_bt,2022.2.4,MacIntel,58.82352941,Safari,1440,900,,,,,0,1141,,,,,,,,,,,,,,,,,W,132,hexagon,0,0,,,,,,,,,,,,,,,,switch,letter,NA,d,0.797,Hi,,,,,,5,,,,,,,,high,14,0,14,0,1,,,,,,,,,
296737,2022-11-27_20h47.26.049,vts_reward_expectancy_bt,2022.2.4,MacIntel,58.82352941,Safari,1440,900,,,,,10,1151,,,,,,,,,,,,,,,,,D,160,circle,1,1,,,,,,,,,,,,,,,,repeat,letter,lettRpt,d,0.561,Hi,,,,,,5,,,,,,,,high,15,0,15,0,1,,,,,,,,,
296737,2022-11-27_20h47.26.049,vts_reward_expectancy_bt,2022.2.4,MacIntel,58.82352941,Safari,1440,900,,,,,0,1151,,,,,,,,,,,,,,,,,S,139,hexagon,0,0,,,,,,,,,,,,,,,,repeat,letter,NA,d,0.547,Hi,,,,,,5,,,,,,,,high,16,0,16,0,1,,,,,,,,,
296737,2022-11-27_20h47.26.049,vts_reward_expectancy_bt,2022.2.4,MacIntel,58.82352941,Safari,1440,900,,,,,10,1161,,,,,,,,,,,,,,,,,W,146,circle,1,1,,,,,,,,,,,,,,,,switch,number,numSwt,j,0.616,Hi,,,,,,5,,,,,,,,high,17,0,17,0,1,,,,,,,,,
296737,2022-11-27_20h47.26.049,vts_reward_expectancy_bt,2022.2.4,MacIntel,58.82352941,Safari,1440,900,,,,,1,1162,,,,,,,,,,,,,,,,,Y,167,star,1,0,,,,,,,,,,,,,,,,repeat,number,numRpt,k,1.327,Lo,,,,,,5,,,,,,,,high,18,0,18,0,1,,,,,,,,,
296737,2022-11-27_20h47.26.049,vts_reward_expectancy_bt,2022.2.4,MacIntel,58.82352941,Safari,1440,900,,,,,0,1162,,,,,,,,,,,,,,,,,D,174,triangle,0,0,,,,,,,,,,,,,,,,repeat,number,NA,j,0.78,Lo,,,,,,5,,,,,,,,high,19,0,19,0,1,,,,,,,,,
296737,2022-11-27_20h47.26.049,vts_reward_expectancy_bt,2022.2.4,MacIntel,58.82352941,Safari,1440,900,,,,,0,1162,,,,,,,,,,,,,,,,,F,160,circle,1,1,,,,,,,,,,,,,,,,repeat,number,numRpt,k,0.928,Hi,,,,,,5,,,,,,,,high,20,0,20,0,1,,,,,,,,,
296737,2022-11-27_20h47.26.049,vts_reward_expectancy_bt,2022.2.4,MacIntel,58.82352941,Safari,1440,900,,,,,0,1162,,,,,,,,,,,,,,,,,U,181,triangle,1,0,,,,,,,,,,,,,,,,repeat,number,numRpt,k,0.611,Hi,,,,,,5,,,,,,,,high,21,0,21,0,1,,,,,,,,,
296737,2022-11-27_20h47.26.049,vts_reward_expectancy_bt,2022.2.4,MacIntel,58.82352941,Safari,1440,900,,,,,0,1162,,,,,,,,,,,,,,,,,B,125,hexagon,0,0,,,,,,,,,,,,,,,,repeat,number,NA,k,0.91,Hi,,,,,,5,,,,,,,,high,22,0,22,0,1,,,,,,,,,
296737,2022-11-27_20h47.26.049,vts_reward_expectancy_bt,2022.2.4,MacIntel,58.82352941,Safari,1440,900,,,,,1,1163,,,,,,,,,,,,,,,,,H,132,star,1,1,,,,,,,,,,,,,,,,repeat,number,numRpt,j,0.729,Lo,,,,,,5,,,,,,,,high,23,0,23,0,1,,,,,,,,,
296737,2022-11-27_20h47.26.049,vts_reward_expectancy_bt,2022.2.4,MacIntel,58.82352941,Safari,1440,900,,,,,0,1163,,,,,,,,,,,,,,,,,F,181,circle,1,0,,,,,,,,,,,,,,,,switch,letter,lettSwt,d,0.946,Hi,,,,,,5,,,,,,,,high,24,0,24,0,1,,,,,,,,,
296737,2022-11-27_20h47.26.049,vts_reward_expectancy_bt,2022.2.4,MacIntel,58.82352941,Safari,1440,900,,,,,0,1163,,,,,,,,,,,,,,,,,S,139,triangle,0,0,,,,,,,,,,,,,,,,repeat,letter,NA,d,1.178,Hi,,,,,,5,,,,,,,,high,25,0,25,0,1,,,,,,,,,
296737,2022-11-27_20h47.26.049,vts_reward_expectancy_bt,2022.2.4,MacIntel,58.82352941,Safari,1440,900,,,,,1,1164,,,,,,,,,,,,,,,,,Y,125,hexagon,1,1,,,,,,,,,,,,,,,,switch,number,numSwt,j,1.012,Lo,,,,,,5,,,,,,,,high,26,0,26,0,1,,,,,,,,,
296737,2022-11-27_20h47.26.049,vts_reward_expectancy_bt,2022.2.4,MacIntel,58.82352941,Safari,1440,900,,,,,1,1165,,,,,,,,,,,,,,,,,B,160,star,1,0,,,,,,,,,,,,,,,,switch,letter,lettSwt,d,1.078,Lo,,,,,,5,,,,,,,,high,27,0,27,0,1,,,,,,,,,
296737,2022-11-27_20h47.26.049,vts_reward_expectancy_bt,2022.2.4,MacIntel,58.82352941,Safari,1440,900,,,,,0,1165,,,,,,,,,,,,,,,,,D,174,circle,1,0,,,,,,,,,,,,,,,,repeat,letter,lettRpt,d,0.628,Hi,,,,,,5,,,,,,,,high,28,0,28,0,1,,,,,,,,,
296737,2022-11-27_20h47.26.049,vts_reward_expectancy_bt,2022.2.4,MacIntel,58.82352941,Safari,1440,900,,,,,0,1165,,,,,,,,,,,,,,,,,U,167,star,0,0,,,,,,,,,,,,,,,,repeat,letter,NA,d,1.193,Hi,,,,,,5,,,,,,,,high,29,0,29,0,1,,,,,,,,,
296737,2022-11-27_20h47.26.049,vts_reward_expectancy_bt,2022.2.4,MacIntel,58.82352941,Safari,1440,900,,,,,1,1166,,,,,,,,,,,,,,,,,H,132,hexagon,1,1,,,,,,,,,,,,,,,,switch,number,numSwt,j,0.876,Lo,,,,,,5,,,,,,,,high,30,0,30,0,1,,,,,,,,,
296737,2022-11-27_20h47.26.049,vts_reward_expectancy_bt,2022.2.4,MacIntel,58.82352941,Safari,1440,900,,,,,0,1166,,,,,,,,,,,,,,,,,W,146,triangle,1,0,,,,,,,,,,,,,,,,switch,letter,lettSwt,f,0.86,Hi,,,,,,5,,,,,,,,high,31,0,31,0,1,,,,,,,,,
296737,2022-11-27_20h47.26.049,vts_reward_expectancy_bt,2022.2.4,MacIntel,58.82352941,Safari,1440,900,,,,,0,1166,,,,,,,,,,,,,,,,,H,167,triangle,1,0,,,,,,,,,,,,,,,,repeat,letter,lettRpt,d,0.961,Hi,,,,,,6,,,,,,space,1.43,high,0,0,0,0,1,,,,,,,,,
296737,2022-11-27_20h47.26.049,vts_reward_expectancy_bt,2022.2.4,MacIntel,58.82352941,Safari,1440,900,,,,,1,1167,,,,,,,,,,,,,,,,,Y,174,star,1,0,,,,,,,,,,,,,,,,repeat,letter,lettRpt,f,0.711,Lo,,,,,,6,,,,,,,,high,1,0,1,0,1,,,,,,,,,
296737,2022-11-27_20h47.26.049,vts_reward_expectancy_bt,2022.2.4,MacIntel,58.82352941,Safari,1440,900,,,,,1,1168,,,,,,,,,,,,,,,,,U,139,circle,1,0,,,,,,,,,,,,,,,,switch,number,numSwt,j,0.528,Hi,,,,,,6,,,,,,,,high,2,0,2,0,1,,,,,,,,,
296737,2022-11-27_20h47.26.049,vts_reward_expectancy_bt,2022.2.4,MacIntel,58.82352941,Safari,1440,900,,,,,10,1178,,,,,,,,,,,,,,,,,S,146,hexagon,1,0,,,,,,,,,,,,,,,,repeat,number,numRpt,j,0.594,Lo,,,,,,6,,,,,,,,high,3,0,3,0,1,,,,,,,,,
