participant,date,expName,psychopyVersion,OS,frameRate,browser,xResolution,yResolution,key_resp.keys,key_resp.rt,training_resp.keys,training_resp.rt,points_trial,points_cumul,trainBlock,training.thisRepN,training.thisTrialN,training.thisN,training.thisIndex,training.ran,LTriangleOpac,LCircleOpac,LHexagonOpac,LStarOpac,RTriangleOpac,RCircleOpac,RHexagonOpac,RStarOpac,LShape_ID,RShape_ID,curr_topStim,curr_bottStim,curr_shape,acc,E1,target_resp_prac1.keys,target_resp_prac1.rt,pracBlock,task1_prac_trials.thisRepN,task1_prac_trials.thisTrialN,task1_prac_trials.thisN,task1_prac_trials.thisIndex,task1_prac_trials.ran,target_resp_prac2.keys,target_resp_prac2.rt,task2_praac_trials.thisRepN,task2_praac_trials.thisTrialN,task2_praac_trials.thisN,task2_praac_trials.thisIndex,task2_praac_trials.ran,alt,task,condition,target_resp.keys,target_resp.rt,rewCond,vts_practice_trials.thisRepN,vts_practice_trials.thisTrialN,vts_practice_trials.thisN,vts_practice_trials.thisIndex,vts_practice_trials.ran,blockNum,trials_norew.thisRepN,trials_norew.thisTrialN,trials_norew.thisN,trials_norew.thisIndex,trials_norew.ran,key_resp_2.keys,key_resp_2.rt,rewExpectancy,trials_rew.thisRepN,trials_rew.thisTrialN,trials_rew.thisN,trials_rew.thisIndex,trials_rew.ran,Q1,Q2,Q2_text,Q3,Q4,Q5_text,Q5,xRes,yRes
296710,2022-12-05_23h10.24.609,vts_reward_expectancy_bt,2022.2.4,Win32,60.86056844,Chrome,1504,1003,,,,,,,,,,,,,,,,,,,,,,,,,,,,,,,,,,,,,,,,,,,,,,,,,,,,,,,,,,,,,,,,,,,,,,,,,,,,
296710,2022-12-05_23h10.24.609,vts_reward_expectancy_bt,2022.2.4,Win32,60.86056844,Chrome,1504,1003,space,1.7077,,,,,,,,,,,,,,,,,,,,,,,,,,,,,,,,,,,,,,,,,,,,,,,,,,,,,,,,,,,,,,,,,,,,,,,,,,
296710,2022-12-05_23h10.24.609,vts_reward_expectancy_bt,2022.2.4,Win32,60.86056844,Chrome,1504,1003,,,,,,,,,,,,,,,,,,,,,,,,,,,,,,,,,,,,,,,,,,,,,,,,,,,,,,,,,,,,,,,,,,,,,,,,,,,,
296710,2022-12-05_23h10.24.609,vts_reward_expectancy_bt,2022.2.4,Win32,60.86056844,Chrome,1504,1003,,,l,0.796,10,10,0,0,0,0,6,1,0,0,1,0,1,0,0,0,hexagon,triangle,,,,,,,,,,,,,,,,,,,,,,,,,,,,,,,,,,,,,,,,,,,,,,,,,,,,,,
296710,2022-12-05_23h10.24.609,vts_reward_expectancy_bt,2022.2.4,Win32,60.86056844,Chrome,1504,1003,,,a,0.6009,10,20,0,0,1,1,5,1,0,1,0,0,0,0,0,1,circle,star,,,,,,,,,,,,,,,,,,,,,,,,,,,,,,,,,,,,,,,,,,,,,,,,,,,,,,
296710,2022-12-05_23h10.24.609,vts_reward_expectancy_bt,2022.2.4,Win32,60.86056844,Chrome,1504,1003,,,l,0.6674,1,21,0,0,2,2,1,1,1,0,0,0,0,0,1,0,triangle,hexagon,,,,,,,,,,,,,,,,,,,,,,,,,,,,,,,,,,,,,,,,,,,,,,,,,,,,,,
296710,2022-12-05_23h10.24.609,vts_reward_expectancy_bt,2022.2.4,Win32,60.86056844,Chrome,1504,1003,,,l,0.8401,10,31,0,0,3,3,11,1,0,0,0,1,0,0,1,0,star,hexagon,,,,,,,,,,,,,,,,,,,,,,,,,,,,,,,,,,,,,,,,,,,,,,,,,,,,,,
296710,2022-12-05_23h10.24.609,vts_reward_expectancy_bt,2022.2.4,Win32,60.86056844,Chrome,1504,1003,,,a,0.5498,10,41,0,0,4,4,2,1,1,0,0,0,0,0,0,1,triangle,star,,,,,,,,,,,,,,,,,,,,,,,,,,,,,,,,,,,,,,,,,,,,,,,,,,,,,,
296710,2022-12-05_23h10.24.609,vts_reward_expectancy_bt,2022.2.4,Win32,60.86056844,Chrome,1504,1003,,,l,0.4009,1,42,0,0,5,5,10,1,0,0,0,1,0,1,0,0,star ,circle,,,,,,,,,,,,,,,,,,,,,,,,,,,,,,,,,,,,,,,,,,,,,,,,,,,,,,
296710,2022-12-05_23h10.24.609,vts_reward_expectancy_bt,2022.2.4,Win32,60.86056844,Chrome,1504,1003,,,a,0.4082,1,43,0,0,6,6,8,1,0,0,1,0,0,0,0,1,hexagon,star,,,,,,,,,,,,,,,,,,,,,,,,,,,,,,,,,,,,,,,,,,,,,,,,,,,,,,
296710,2022-12-05_23h10.24.609,vts_reward_expectancy_bt,2022.2.4,Win32,60.86056844,Chrome,1504,1003,,,a,0.4381,1,44,0,0,7,7,4,1,0,1,0,0,0,0,1,0,circle,hexagon,,,,,,,,,,,,,,,,,,,,,,,,,,,,,,,,,,,,,,,,,,,,,,,,,,,,,,
296710,2022-12-05_23h10.24.609,vts_reward_expectancy_bt,2022.2.4,Win32,60.86056844,Chrome,1504,1003,,,a,0.4549,10,54,0,0,8,8,9,1,0,0,0,1,1,0,0,0,star,triangle,,,,,,,,,,,,,,,,,,,,,,,,,,,,,,,,,,,,,,,,,,,,,,,,,,,,,,
296710,2022-12-05_23h10.24.609,vts_reward_expectancy_bt,2022.2.4,Win32,60.86056844,Chrome,1504,1003,,,a,0.4838,1,55,0,0,9,9,7,1,0,0,1,0,0,1,0,0,hexagon,circle,,,,,,,,,,,,,,,,,,,,,,,,,,,,,,,,,,,,,,,,,,,,,,,,,,,,,,
296710,2022-12-05_23h10.24.609,vts_reward_expectancy_bt,2022.2.4,Win32,60.86056844,Chrome,1504,1003,,,a,0.434,10,65,0,0,10,10,3,1,0,1,0,0,1,0,0,0,circle,triangle,,,,,,,,,,,,,,,,,,,,,,,,,,,,,,,,,,,,,,,,,,,,,,,,,,,,,,
296710,2022-12-05_23h10.24.609,vts_reward_expectancy_bt,2022.2.4,Win32,60.86056844,Chrome,1504,1003,,,a,0.3586,10,75,0,0,11,11,0,1,1,0,0,0,0,1,0,0,triangle,circle,,,,,,,,,,,,,,,,,,,,,,,,,,,,,,,,,,,,,,,,,,,,,,,,,,,,,,
296710,2022-12-05_23h10.24.609,vts_reward_expectancy_bt,2022.2.4,Win32,60.86056844,Chrome,1504,1003,,,l,0.2897,10,85,0,1,0,12,9,1,0,0,0,1,1,0,0,0,star,triangle,,,,,,,,,,,,,,,,,,,,,,,,,,,,,,,,,,,,,,,,,,,,,,,,,,,,,,
296710,2022-12-05_23h10.24.609,vts_reward_expectancy_bt,2022.2.4,Win32,60.86056844,Chrome,1504,1003,,,l,0.5062,10,95,0,1,1,13,11,1,0,0,0,1,0,0,1,0,star,hexagon,,,,,,,,,,,,,,,,,,,,,,,,,,,,,,,,,,,,,,,,,,,,,,,,,,,,,,
296710,2022-12-05_23h10.24.609,vts_reward_expectancy_bt,2022.2.4,Win32,60.86056844,Chrome,1504,1003,,,a,0.15,1,96,0,1,2,14,5,1,0,1,0,0,0,0,0,1,circle,star,,,,,,,,,,,,,,,,,,,,,,,,,,,,,,,,,,,,,,,,,,,,,,,,,,,,,,
296710,2022-12-05_23h10.24.609,vts_reward_expectancy_bt,2022.2.4,Win32,60.86056844,Chrome,1504,1003,,,l,0.2761,1,97,0,1,3,15,3,1,0,1,0,0,1,0,0,0,circle,triangle,,,,,,,,,,,,,,,,,,,,,,,,,,,,,,,,,,,,,,,,,,,,,,,,,,,,,,
296710,2022-12-05_23h10.24.609,vts_reward_expectancy_bt,2022.2.4,Win32,60.86056844,Chrome,1504,1003,,,a,0.5228,1,98,0,1,4,16,6,1,0,0,1,0,1,0,0,0,hexagon,triangle,,,,,,,,,,,,,,,,,,,,,,,,,,,,,,,,,,,,,,,,,,,,,,,,,,,,,,
296710,2022-12-05_23h10.24.609,vts_reward_expectancy_bt,2022.2.4,Win32,60.86056844,Chrome,1504,1003,,,l,0.4333,10,108,0,1,5,17,1,1,1,0,0,0,0,0,1,0,triangle,hexagon,,,,,,,,,,,,,,,,,,,,,,,,,,,,,,,,,,,,,,,,,,,,,,,,,,,,,,
296710,2022-12-05_23h10.24.609,vts_reward_expectancy_bt,2022.2.4,Win32,60.86056844,Chrome,1504,1003,,,a,0.4485,10,118,0,1,6,18,4,1,0,1,0,0,0,0,1,0,circle,hexagon,,,,,,,,,,,,,,,,,,,,,,,,,,,,,,,,,,,,,,,,,,,,,,,,,,,,,,
296710,2022-12-05_23h10.24.609,vts_reward_expectancy_bt,2022.2.4,Win32,60.86056844,Chrome,1504,1003,,,l,0.5669,1,119,0,1,7,19,2,1,1,0,0,0,0,0,0,1,triangle,star,,,,,,,,,,,,,,,,,,,,,,,,,,,,,,,,,,,,,,,,,,,,,,,,,,,,,,
296710,2022-12-05_23h10.24.609,vts_reward_expectancy_bt,2022.2.4,Win32,60.86056844,Chrome,1504,1003,,,a,0.3672,1,120,0,1,8,20,8,1,0,0,1,0,0,0,0,1,hexagon,star,,,,,,,,,,,,,,,,,,,,,,,,,,,,,,,,,,,,,,,,,,,,,,,,,,,,,,
296710,2022-12-05_23h10.24.609,vts_reward_expectancy_bt,2022.2.4,Win32,60.86056844,Chrome,1504,1003,,,l,0.5336,1,121,0,1,9,21,10,1,0,0,0,1,0,1,0,0,star ,circle,,,,,,,,,,,,,,,,,,,,,,,,,,,,,,,,,,,,,,,,,,,,,,,,,,,,,,
296710,2022-12-05_23h10.24.609,vts_reward_expectancy_bt,2022.2.4,Win32,60.86056844,Chrome,1504,1003,,,l,0.4344,1,122,0,1,10,22,0,1,1,0,0,0,0,1,0,0,triangle,circle,,,,,,,,,,,,,,,,,,,,,,,,,,,,,,,,,,,,,,,,,,,,,,,,,,,,,,
296710,2022-12-05_23h10.24.609,vts_reward_expectancy_bt,2022.2.4,Win32,60.86056844,Chrome,1504,1003,,,l,0.7538,1,123,0,1,11,23,7,1,0,0,1,0,0,1,0,0,hexagon,circle,,,,,,,,,,,,,,,,,,,,,,,,,,,,,,,,,,,,,,,,,,,,,,,,,,,,,,
296710,2022-12-05_23h10.24.609,vts_reward_expectancy_bt,2022.2.4,Win32,60.86056844,Chrome,1504,1003,,,a,0.671,1,124,0,2,0,24,7,1,0,0,1,0,0,1,0,0,hexagon,circle,,,,,,,,,,,,,,,,,,,,,,,,,,,,,,,,,,,,,,,,,,,,,,,,,,,,,,
296710,2022-12-05_23h10.24.609,vts_reward_expectancy_bt,2022.2.4,Win32,60.86056844,Chrome,1504,1003,,,a,0.7059,10,134,0,2,1,25,9,1,0,0,0,1,1,0,0,0,star,triangle,,,,,,,,,,,,,,,,,,,,,,,,,,,,,,,,,,,,,,,,,,,,,,,,,,,,,,
296710,2022-12-05_23h10.24.609,vts_reward_expectancy_bt,2022.2.4,Win32,60.86056844,Chrome,1504,1003,,,l,0.5054,10,144,0,2,2,26,1,1,1,0,0,0,0,0,1,0,triangle,hexagon,,,,,,,,,,,,,,,,,,,,,,,,,,,,,,,,,,,,,,,,,,,,,,,,,,,,,,
296710,2022-12-05_23h10.24.609,vts_reward_expectancy_bt,2022.2.4,Win32,60.86056844,Chrome,1504,1003,,,a,0.7729,10,154,0,2,3,27,10,1,0,0,0,1,0,1,0,0,star ,circle,,,,,,,,,,,,,,,,,,,,,,,,,,,,,,,,,,,,,,,,,,,,,,,,,,,,,,
296710,2022-12-05_23h10.24.609,vts_reward_expectancy_bt,2022.2.4,Win32,60.86056844,Chrome,1504,1003,,,a,0.9692,10,164,0,2,4,28,3,1,0,1,0,0,1,0,0,0,circle,triangle,,,,,,,,,,,,,,,,,,,,,,,,,,,,,,,,,,,,,,,,,,,,,,,,,,,,,,
296710,2022-12-05_23h10.24.609,vts_reward_expectancy_bt,2022.2.4,Win32,60.86056844,Chrome,1504,1003,,,l,0.958,10,174,0,2,5,29,5,1,0,1,0,0,0,0,0,1,circle,star,,,,,,,,,,,,,,,,,,,,,,,,,,,,,,,,,,,,,,,,,,,,,,,,,,,,,,
296710,2022-12-05_23h10.24.609,vts_reward_expectancy_bt,2022.2.4,Win32,60.86056844,Chrome,1504,1003,,,l,0.7409,10,184,0,2,6,30,2,1,1,0,0,0,0,0,0,1,triangle,star,,,,,,,,,,,,,,,,,,,,,,,,,,,,,,,,,,,,,,,,,,,,,,,,,,,,,,
296710,2022-12-05_23h10.24.609,vts_reward_expectancy_bt,2022.2.4,Win32,60.86056844,Chrome,1504,1003,,,l,0.6195,10,194,0,2,7,31,11,1,0,0,0,1,0,0,1,0,star,hexagon,,,,,,,,,,,,,,,,,,,,,,,,,,,,,,,,,,,,,,,,,,,,,,,,,,,,,,
296710,2022-12-05_23h10.24.609,vts_reward_expectancy_bt,2022.2.4,Win32,60.86056844,Chrome,1504,1003,,,a,0.5838,1,195,0,2,8,32,6,1,0,0,1,0,1,0,0,0,hexagon,triangle,,,,,,,,,,,,,,,,,,,,,,,,,,,,,,,,,,,,,,,,,,,,,,,,,,,,,,
296710,2022-12-05_23h10.24.609,vts_reward_expectancy_bt,2022.2.4,Win32,60.86056844,Chrome,1504,1003,,,l,0.666,1,196,0,2,9,33,0,1,1,0,0,0,0,1,0,0,triangle,circle,,,,,,,,,,,,,,,,,,,,,,,,,,,,,,,,,,,,,,,,,,,,,,,,,,,,,,
296710,2022-12-05_23h10.24.609,vts_reward_expectancy_bt,2022.2.4,Win32,60.86056844,Chrome,1504,1003,,,l,1.2918,1,197,0,2,10,34,8,1,0,0,1,0,0,0,0,1,hexagon,star,,,,,,,,,,,,,,,,,,,,,,,,,,,,,,,,,,,,,,,,,,,,,,,,,,,,,,
296710,2022-12-05_23h10.24.609,vts_reward_expectancy_bt,2022.2.4,Win32,60.86056844,Chrome,1504,1003,,,a,0.4,1,198,0,2,11,35,4,1,0,1,0,0,0,0,1,0,circle,hexagon,,,,,,,,,,,,,,,,,,,,,,,,,,,,,,,,,,,,,,,,,,,,,,,,,,,,,,
296710,2022-12-05_23h10.24.609,vts_reward_expectancy_bt,2022.2.4,Win32,60.86056844,Chrome,1504,1003,,,l,1.0188,1,199,1,0,0,0,0,1,1,0,0,0,0,1,0,0,triangle,circle,,,,,,,,,,,,,,,,,,,,,,,,,,,,,,,,,,,,,,,,,,,,,,,,,,,,,,
296710,2022-12-05_23h10.24.609,vts_reward_expectancy_bt,2022.2.4,Win32,60.86056844,Chrome,1504,1003,,,a,0.3296,10,209,1,0,1,1,4,1,0,1,0,0,0,0,1,0,circle,hexagon,,,,,,,,,,,,,,,,,,,,,,,,,,,,,,,,,,,,,,,,,,,,,,,,,,,,,,
296710,2022-12-05_23h10.24.609,vts_reward_expectancy_bt,2022.2.4,Win32,60.86056844,Chrome,1504,1003,,,a,0.3551,10,219,1,0,2,2,1,1,1,0,0,0,0,0,1,0,triangle,hexagon,,,,,,,,,,,,,,,,,,,,,,,,,,,,,,,,,,,,,,,,,,,,,,,,,,,,,,
296710,2022-12-05_23h10.24.609,vts_reward_expectancy_bt,2022.2.4,Win32,60.86056844,Chrome,1504,1003,,,l,0.5377,10,229,1,0,3,3,9,1,0,0,0,1,1,0,0,0,star,triangle,,,,,,,,,,,,,,,,,,,,,,,,,,,,,,,,,,,,,,,,,,,,,,,,,,,,,,
296710,2022-12-05_23h10.24.609,vts_reward_expectancy_bt,2022.2.4,Win32,60.86056844,Chrome,1504,1003,,,a,0.3666,1,230,1,0,4,4,7,1,0,0,1,0,0,1,0,0,hexagon,circle,,,,,,,,,,,,,,,,,,,,,,,,,,,,,,,,,,,,,,,,,,,,,,,,,,,,,,
296710,2022-12-05_23h10.24.609,vts_reward_expectancy_bt,2022.2.4,Win32,60.86056844,Chrome,1504,1003,,,l,0.3359,1,231,1,0,5,5,5,1,0,1,0,0,0,0,0,1,circle,star,,,,,,,,,,,,,,,,,,,,,,,,,,,,,,,,,,,,,,,,,,,,,,,,,,,,,,
296710,2022-12-05_23h10.24.609,vts_reward_expectancy_bt,2022.2.4,Win32,60.86056844,Chrome,1504,1003,,,a,0.3667,10,241,1,0,6,6,3,1,0,1,0,0,1,0,0,0,circle,triangle,,,,,,,,,,,,,,,,,,,,,,,,,,,,,,,,,,,,,,,,,,,,,,,,,,,,,,
296710,2022-12-05_23h10.24.609,vts_reward_expectancy_bt,2022.2.4,Win32,60.86056844,Chrome,1504,1003,,,l,0.4988,10,251,1,0,7,7,10,1,0,0,0,1,0,1,0,0,star ,circle,,,,,,,,,,,,,,,,,,,,,,,,,,,,,,,,,,,,,,,,,,,,,,,,,,,,,,
296710,2022-12-05_23h10.24.609,vts_reward_expectancy_bt,2022.2.4,Win32,60.86056844,Chrome,1504,1003,,,a,0.5887,10,261,1,0,8,8,6,1,0,0,1,0,1,0,0,0,hexagon,triangle,,,,,,,,,,,,,,,,,,,,,,,,,,,,,,,,,,,,,,,,,,,,,,,,,,,,,,
296710,2022-12-05_23h10.24.609,vts_reward_expectancy_bt,2022.2.4,Win32,60.86056844,Chrome,1504,1003,,,l,0.5336,10,271,1,0,9,9,11,1,0,0,0,1,0,0,1,0,star,hexagon,,,,,,,,,,,,,,,,,,,,,,,,,,,,,,,,,,,,,,,,,,,,,,,,,,,,,,
296710,2022-12-05_23h10.24.609,vts_reward_expectancy_bt,2022.2.4,Win32,60.86056844,Chrome,1504,1003,,,a,0.5508,10,281,1,0,10,10,8,1,0,0,1,0,0,0,0,1,hexagon,star,,,,,,,,,,,,,,,,,,,,,,,,,,,,,,,,,,,,,,,,,,,,,,,,,,,,,,
296710,2022-12-05_23h10.24.609,vts_reward_expectancy_bt,2022.2.4,Win32,60.86056844,Chrome,1504,1003,,,l,0.9672,1,282,1,0,11,11,2,1,1,0,0,0,0,0,0,1,triangle,star,,,,,,,,,,,,,,,,,,,,,,,,,,,,,,,,,,,,,,,,,,,,,,,,,,,,,,
296710,2022-12-05_23h10.24.609,vts_reward_expectancy_bt,2022.2.4,Win32,60.86056844,Chrome,1504,1003,,,a,0.4697,1,283,1,1,0,12,5,1,0,1,0,0,0,0,0,1,circle,star,,,,,,,,,,,,,,,,,,,,,,,,,,,,,,,,,,,,,,,,,,,,,,,,,,,,,,
296710,2022-12-05_23h10.24.609,vts_reward_expectancy_bt,2022.2.4,Win32,60.86056844,Chrome,1504,1003,,,a,1.7842,10,293,1,1,1,13,6,1,0,0,1,0,1,0,0,0,hexagon,triangle,,,,,,,,,,,,,,,,,,,,,,,,,,,,,,,,,,,,,,,,,,,,,,,,,,,,,,
296710,2022-12-05_23h10.24.609,vts_reward_expectancy_bt,2022.2.4,Win32,60.86056844,Chrome,1504,1003,,,a,2.0847,10,303,1,1,2,14,9,1,0,0,0,1,1,0,0,0,star,triangle,,,,,,,,,,,,,,,,,,,,,,,,,,,,,,,,,,,,,,,,,,,,,,,,,,,,,,
296710,2022-12-05_23h10.24.609,vts_reward_expectancy_bt,2022.2.4,Win32,60.86056844,Chrome,1504,1003,,,l,0.6668,1,304,1,1,3,15,1,1,1,0,0,0,0,0,1,0,triangle,hexagon,,,,,,,,,,,,,,,,,,,,,,,,,,,,,,,,,,,,,,,,,,,,,,,,,,,,,,
296710,2022-12-05_23h10.24.609,vts_reward_expectancy_bt,2022.2.4,Win32,60.86056844,Chrome,1504,1003,,,l,1.9513,10,314,1,1,4,16,8,1,0,0,1,0,0,0,0,1,hexagon,star,,,,,,,,,,,,,,,,,,,,,,,,,,,,,,,,,,,,,,,,,,,,,,,,,,,,,,
296710,2022-12-05_23h10.24.609,vts_reward_expectancy_bt,2022.2.4,Win32,60.86056844,Chrome,1504,1003,,,l,1.3324,1,315,1,1,5,17,10,1,0,0,0,1,0,1,0,0,star ,circle,,,,,,,,,,,,,,,,,,,,,,,,,,,,,,,,,,,,,,,,,,,,,,,,,,,,,,
296710,2022-12-05_23h10.24.609,vts_reward_expectancy_bt,2022.2.4,Win32,60.86056844,Chrome,1504,1003,,,l,1.4342,1,316,1,1,6,18,0,1,1,0,0,0,0,1,0,0,triangle,circle,,,,,,,,,,,,,,,,,,,,,,,,,,,,,,,,,,,,,,,,,,,,,,,,,,,,,,
296710,2022-12-05_23h10.24.609,vts_reward_expectancy_bt,2022.2.4,Win32,60.86056844,Chrome,1504,1003,,,a,0.9172,10,326,1,1,7,19,2,1,1,0,0,0,0,0,0,1,triangle,star,,,,,,,,,,,,,,,,,,,,,,,,,,,,,,,,,,,,,,,,,,,,,,,,,,,,,,
296710,2022-12-05_23h10.24.609,vts_reward_expectancy_bt,2022.2.4,Win32,60.86056844,Chrome,1504,1003,,,l,0.7386,1,327,1,1,8,20,3,1,0,1,0,0,1,0,0,0,circle,triangle,,,,,,,,,,,,,,,,,,,,,,,,,,,,,,,,,,,,,,,,,,,,,,,,,,,,,,
296710,2022-12-05_23h10.24.609,vts_reward_expectancy_bt,2022.2.4,Win32,60.86056844,Chrome,1504,1003,,,l,1.9693,10,337,1,1,9,21,7,1,0,0,1,0,0,1,0,0,hexagon,circle,,,,,,,,,,,,,,,,,,,,,,,,,,,,,,,,,,,,,,,,,,,,,,,,,,,,,,
296710,2022-12-05_23h10.24.609,vts_reward_expectancy_bt,2022.2.4,Win32,60.86056844,Chrome,1504,1003,,,l,0.9881,1,338,1,1,10,22,11,1,0,0,0,1,0,0,1,0,star,hexagon,,,,,,,,,,,,,,,,,,,,,,,,,,,,,,,,,,,,,,,,,,,,,,,,,,,,,,
296710,2022-12-05_23h10.24.609,vts_reward_expectancy_bt,2022.2.4,Win32,60.86056844,Chrome,1504,1003,,,a,0.498,1,339,1,1,11,23,4,1,0,1,0,0,0,0,1,0,circle,hexagon,,,,,,,,,,,,,,,,,,,,,,,,,,,,,,,,,,,,,,,,,,,,,,,,,,,,,,
296710,2022-12-05_23h10.24.609,vts_reward_expectancy_bt,2022.2.4,Win32,60.86056844,Chrome,1504,1003,,,a,0.559,1,340,1,2,0,24,3,1,0,1,0,0,1,0,0,0,circle,triangle,,,,,,,,,,,,,,,,,,,,,,,,,,,,,,,,,,,,,,,,,,,,,,,,,,,,,,
296710,2022-12-05_23h10.24.609,vts_reward_expectancy_bt,2022.2.4,Win32,60.86056844,Chrome,1504,1003,,,a,0.8883,1,341,1,2,1,25,2,1,1,0,0,0,0,0,0,1,triangle,star,,,,,,,,,,,,,,,,,,,,,,,,,,,,,,,,,,,,,,,,,,,,,,,,,,,,,,
296710,2022-12-05_23h10.24.609,vts_reward_expectancy_bt,2022.2.4,Win32,60.86056844,Chrome,1504,1003,,,l,0.5739,10,351,1,2,2,26,7,1,0,0,1,0,0,1,0,0,hexagon,circle,,,,,,,,,,,,,,,,,,,,,,,,,,,,,,,,,,,,,,,,,,,,,,,,,,,,,,
296710,2022-12-05_23h10.24.609,vts_reward_expectancy_bt,2022.2.4,Win32,60.86056844,Chrome,1504,1003,,,l,0.5499,10,361,1,2,3,27,10,1,0,0,0,1,0,1,0,0,star ,circle,,,,,,,,,,,,,,,,,,,,,,,,,,,,,,,,,,,,,,,,,,,,,,,,,,,,,,
296710,2022-12-05_23h10.24.609,vts_reward_expectancy_bt,2022.2.4,Win32,60.86056844,Chrome,1504,1003,,,l,0.4184,1,362,1,2,4,28,0,1,1,0,0,0,0,1,0,0,triangle,circle,,,,,,,,,,,,,,,,,,,,,,,,,,,,,,,,,,,,,,,,,,,,,,,,,,,,,,
296710,2022-12-05_23h10.24.609,vts_reward_expectancy_bt,2022.2.4,Win32,60.86056844,Chrome,1504,1003,,,a,0.5336,1,363,1,2,5,29,4,1,0,1,0,0,0,0,1,0,circle,hexagon,,,,,,,,,,,,,,,,,,,,,,,,,,,,,,,,,,,,,,,,,,,,,,,,,,,,,,
296710,2022-12-05_23h10.24.609,vts_reward_expectancy_bt,2022.2.4,Win32,60.86056844,Chrome,1504,1003,,,l,0.5505,1,364,1,2,6,30,11,1,0,0,0,1,0,0,1,0,star,hexagon,,,,,,,,,,,,,,,,,,,,,,,,,,,,,,,,,,,,,,,,,,,,,,,,,,,,,,
296710,2022-12-05_23h10.24.609,vts_reward_expectancy_bt,2022.2.4,Win32,60.86056844,Chrome,1504,1003,,,l,1.2005,10,374,1,2,7,31,9,1,0,0,0,1,1,0,0,0,star,triangle,,,,,,,,,,,,,,,,,,,,,,,,,,,,,,,,,,,,,,,,,,,,,,,,,,,,,,
296710,2022-12-05_23h10.24.609,vts_reward_expectancy_bt,2022.2.4,Win32,60.86056844,Chrome,1504,1003,,,l,0.7606,1,375,1,2,8,32,6,1,0,0,1,0,1,0,0,0,hexagon,triangle,,,,,,,,,,,,,,,,,,,,,,,,,,,,,,,,,,,,,,,,,,,,,,,,,,,,,,
296710,2022-12-05_23h10.24.609,vts_reward_expectancy_bt,2022.2.4,Win32,60.86056844,Chrome,1504,1003,,,a,0.5005,10,385,1,2,9,33,8,1,0,0,1,0,0,0,0,1,hexagon,star,,,,,,,,,,,,,,,,,,,,,,,,,,,,,,,,,,,,,,,,,,,,,,,,,,,,,,
296710,2022-12-05_23h10.24.609,vts_reward_expectancy_bt,2022.2.4,Win32,60.86056844,Chrome,1504,1003,,,a,0.6687,1,386,1,2,10,34,5,1,0,1,0,0,0,0,0,1,circle,star,,,,,,,,,,,,,,,,,,,,,,,,,,,,,,,,,,,,,,,,,,,,,,,,,,,,,,
296710,2022-12-05_23h10.24.609,vts_reward_expectancy_bt,2022.2.4,Win32,60.86056844,Chrome,1504,1003,,,a,1.2672,1,387,1,2,11,35,1,1,1,0,0,0,0,0,1,0,triangle,hexagon,,,,,,,,,,,,,,,,,,,,,,,,,,,,,,,,,,,,,,,,,,,,,,,,,,,,,,
296710,2022-12-05_23h10.24.609,vts_reward_expectancy_bt,2022.2.4,Win32,60.86056844,Chrome,1504,1003,,,a,0.8197,1,388,2,0,0,0,7,1,0,0,1,0,0,1,0,0,hexagon,circle,,,,,,,,,,,,,,,,,,,,,,,,,,,,,,,,,,,,,,,,,,,,,,,,,,,,,,
296710,2022-12-05_23h10.24.609,vts_reward_expectancy_bt,2022.2.4,Win32,60.86056844,Chrome,1504,1003,,,a,0.7207,10,398,2,0,1,1,2,1,1,0,0,0,0,0,0,1,triangle,star,,,,,,,,,,,,,,,,,,,,,,,,,,,,,,,,,,,,,,,,,,,,,,,,,,,,,,
296710,2022-12-05_23h10.24.609,vts_reward_expectancy_bt,2022.2.4,Win32,60.86056844,Chrome,1504,1003,,,l,0.637,10,408,2,0,2,2,11,1,0,0,0,1,0,0,1,0,star,hexagon,,,,,,,,,,,,,,,,,,,,,,,,,,,,,,,,,,,,,,,,,,,,,,,,,,,,,,
296710,2022-12-05_23h10.24.609,vts_reward_expectancy_bt,2022.2.4,Win32,60.86056844,Chrome,1504,1003,,,a,0.4505,1,409,2,0,3,3,3,1,0,1,0,0,1,0,0,0,circle,triangle,,,,,,,,,,,,,,,,,,,,,,,,,,,,,,,,,,,,,,,,,,,,,,,,,,,,,,
296710,2022-12-05_23h10.24.609,vts_reward_expectancy_bt,2022.2.4,Win32,60.86056844,Chrome,1504,1003,,,l,0.3756,10,419,2,0,4,4,8,1,0,0,1,0,0,0,0,1,hexagon,star,,,,,,,,,,,,,,,,,,,,,,,,,,,,,,,,,,,,,,,,,,,,,,,,,,,,,,
296710,2022-12-05_23h10.24.609,vts_reward_expectancy_bt,2022.2.4,Win32,60.86056844,Chrome,1504,1003,,,l,0.3999,10,429,2,0,5,5,5,1,0,1,0,0,0,0,0,1,circle,star,,,,,,,,,,,,,,,,,,,,,,,,,,,,,,,,,,,,,,,,,,,,,,,,,,,,,,
296710,2022-12-05_23h10.24.609,vts_reward_expectancy_bt,2022.2.4,Win32,60.86056844,Chrome,1504,1003,,,l,0.371,1,430,2,0,6,6,1,1,1,0,0,0,0,0,1,0,triangle,hexagon,,,,,,,,,,,,,,,,,,,,,,,,,,,,,,,,,,,,,,,,,,,,,,,,,,,,,,
296710,2022-12-05_23h10.24.609,vts_reward_expectancy_bt,2022.2.4,Win32,60.86056844,Chrome,1504,1003,,,l,0.7056,10,440,2,0,7,7,10,1,0,0,0,1,0,1,0,0,star ,circle,,,,,,,,,,,,,,,,,,,,,,,,,,,,,,,,,,,,,,,,,,,,,,,,,,,,,,
296710,2022-12-05_23h10.24.609,vts_reward_expectancy_bt,2022.2.4,Win32,60.86056844,Chrome,1504,1003,,,l,0.3835,10,450,2,0,8,8,4,1,0,1,0,0,0,0,1,0,circle,hexagon,,,,,,,,,,,,,,,,,,,,,,,,,,,,,,,,,,,,,,,,,,,,,,,,,,,,,,
296710,2022-12-05_23h10.24.609,vts_reward_expectancy_bt,2022.2.4,Win32,60.86056844,Chrome,1504,1003,,,l,0.3229,1,451,2,0,9,9,9,1,0,0,0,1,1,0,0,0,star,triangle,,,,,,,,,,,,,,,,,,,,,,,,,,,,,,,,,,,,,,,,,,,,,,,,,,,,,,
296710,2022-12-05_23h10.24.609,vts_reward_expectancy_bt,2022.2.4,Win32,60.86056844,Chrome,1504,1003,,,l,0.4002,1,452,2,0,10,10,0,1,1,0,0,0,0,1,0,0,triangle,circle,,,,,,,,,,,,,,,,,,,,,,,,,,,,,,,,,,,,,,,,,,,,,,,,,,,,,,
296710,2022-12-05_23h10.24.609,vts_reward_expectancy_bt,2022.2.4,Win32,60.86056844,Chrome,1504,1003,,,l,0.001,10,462,2,0,11,11,6,1,0,0,1,0,1,0,0,0,hexagon,triangle,,,,,,,,,,,,,,,,,,,,,,,,,,,,,,,,,,,,,,,,,,,,,,,,,,,,,,
296710,2022-12-05_23h10.24.609,vts_reward_expectancy_bt,2022.2.4,Win32,60.86056844,Chrome,1504,1003,,,l,0.4003,1,463,2,1,0,12,0,1,1,0,0,0,0,1,0,0,triangle,circle,,,,,,,,,,,,,,,,,,,,,,,,,,,,,,,,,,,,,,,,,,,,,,,,,,,,,,
296710,2022-12-05_23h10.24.609,vts_reward_expectancy_bt,2022.2.4,Win32,60.86056844,Chrome,1504,1003,,,a,1.0339,10,473,2,1,1,13,2,1,1,0,0,0,0,0,0,1,triangle,star,,,,,,,,,,,,,,,,,,,,,,,,,,,,,,,,,,,,,,,,,,,,,,,,,,,,,,
296710,2022-12-05_23h10.24.609,vts_reward_expectancy_bt,2022.2.4,Win32,60.86056844,Chrome,1504,1003,,,l,0.3713,1,474,2,1,2,14,1,1,1,0,0,0,0,0,1,0,triangle,hexagon,,,,,,,,,,,,,,,,,,,,,,,,,,,,,,,,,,,,,,,,,,,,,,,,,,,,,,
296710,2022-12-05_23h10.24.609,vts_reward_expectancy_bt,2022.2.4,Win32,60.86056844,Chrome,1504,1003,,,a,1.2999,10,484,2,1,3,15,6,1,0,0,1,0,1,0,0,0,hexagon,triangle,,,,,,,,,,,,,,,,,,,,,,,,,,,,,,,,,,,,,,,,,,,,,,,,,,,,,,
296710,2022-12-05_23h10.24.609,vts_reward_expectancy_bt,2022.2.4,Win32,60.86056844,Chrome,1504,1003,,,a,0.6081,1,485,2,1,4,16,7,1,0,0,1,0,0,1,0,0,hexagon,circle,,,,,,,,,,,,,,,,,,,,,,,,,,,,,,,,,,,,,,,,,,,,,,,,,,,,,,
296710,2022-12-05_23h10.24.609,vts_reward_expectancy_bt,2022.2.4,Win32,60.86056844,Chrome,1504,1003,,,a,0.6836,10,495,2,1,5,17,3,1,0,1,0,0,1,0,0,0,circle,triangle,,,,,,,,,,,,,,,,,,,,,,,,,,,,,,,,,,,,,,,,,,,,,,,,,,,,,,
296710,2022-12-05_23h10.24.609,vts_reward_expectancy_bt,2022.2.4,Win32,60.86056844,Chrome,1504,1003,,,a,0.4836,1,496,2,1,6,18,5,1,0,1,0,0,0,0,0,1,circle,star,,,,,,,,,,,,,,,,,,,,,,,,,,,,,,,,,,,,,,,,,,,,,,,,,,,,,,
296710,2022-12-05_23h10.24.609,vts_reward_expectancy_bt,2022.2.4,Win32,60.86056844,Chrome,1504,1003,,,a,0.9501,1,497,2,1,7,19,10,1,0,0,0,1,0,1,0,0,star ,circle,,,,,,,,,,,,,,,,,,,,,,,,,,,,,,,,,,,,,,,,,,,,,,,,,,,,,,
296710,2022-12-05_23h10.24.609,vts_reward_expectancy_bt,2022.2.4,Win32,60.86056844,Chrome,1504,1003,,,l,1.6329,1,498,2,1,8,20,11,1,0,0,0,1,0,0,1,0,star,hexagon,,,,,,,,,,,,,,,,,,,,,,,,,,,,,,,,,,,,,,,,,,,,,,,,,,,,,,
296710,2022-12-05_23h10.24.609,vts_reward_expectancy_bt,2022.2.4,Win32,60.86056844,Chrome,1504,1003,,,a,0.401,1,499,2,1,9,21,4,1,0,1,0,0,0,0,1,0,circle,hexagon,,,,,,,,,,,,,,,,,,,,,,,,,,,,,,,,,,,,,,,,,,,,,,,,,,,,,,
296710,2022-12-05_23h10.24.609,vts_reward_expectancy_bt,2022.2.4,Win32,60.86056844,Chrome,1504,1003,,,l,0.6088,1,500,2,1,10,22,9,1,0,0,0,1,1,0,0,0,star,triangle,,,,,,,,,,,,,,,,,,,,,,,,,,,,,,,,,,,,,,,,,,,,,,,,,,,,,,
296710,2022-12-05_23h10.24.609,vts_reward_expectancy_bt,2022.2.4,Win32,60.86056844,Chrome,1504,1003,,,a,0.8026,10,510,2,1,11,23,8,1,0,0,1,0,0,0,0,1,hexagon,star,,,,,,,,,,,,,,,,,,,,,,,,,,,,,,,,,,,,,,,,,,,,,,,,,,,,,,
296710,2022-12-05_23h10.24.609,vts_reward_expectancy_bt,2022.2.4,Win32,60.86056844,Chrome,1504,1003,,,a,1.2367,1,511,2,2,0,24,6,1,0,0,1,0,1,0,0,0,hexagon,triangle,,,,,,,,,,,,,,,,,,,,,,,,,,,,,,,,,,,,,,,,,,,,,,,,,,,,,,
296710,2022-12-05_23h10.24.609,vts_reward_expectancy_bt,2022.2.4,Win32,60.86056844,Chrome,1504,1003,,,l,0.5664,1,512,2,2,1,25,0,1,1,0,0,0,0,1,0,0,triangle,circle,,,,,,,,,,,,,,,,,,,,,,,,,,,,,,,,,,,,,,,,,,,,,,,,,,,,,,
296710,2022-12-05_23h10.24.609,vts_reward_expectancy_bt,2022.2.4,Win32,60.86056844,Chrome,1504,1003,,,l,1.349,1,513,2,2,2,26,8,1,0,0,1,0,0,0,0,1,hexagon,star,,,,,,,,,,,,,,,,,,,,,,,,,,,,,,,,,,,,,,,,,,,,,,,,,,,,,,
296710,2022-12-05_23h10.24.609,vts_reward_expectancy_bt,2022.2.4,Win32,60.86056844,Chrome,1504,1003,,,l,0.9338,10,523,2,2,3,27,9,1,0,0,0,1,1,0,0,0,star,triangle,,,,,,,,,,,,,,,,,,,,,,,,,,,,,,,,,,,,,,,,,,,,,,,,,,,,,,
296710,2022-12-05_23h10.24.609,vts_reward_expectancy_bt,2022.2.4,Win32,60.86056844,Chrome,1504,1003,,,l,0.467,1,524,2,2,4,28,11,1,0,0,0,1,0,0,1,0,star,hexagon,,,,,,,,,,,,,,,,,,,,,,,,,,,,,,,,,,,,,,,,,,,,,,,,,,,,,,
296710,2022-12-05_23h10.24.609,vts_reward_expectancy_bt,2022.2.4,Win32,60.86056844,Chrome,1504,1003,,,a,0.9337,10,534,2,2,5,29,2,1,1,0,0,0,0,0,0,1,triangle,star,,,,,,,,,,,,,,,,,,,,,,,,,,,,,,,,,,,,,,,,,,,,,,,,,,,,,,
296710,2022-12-05_23h10.24.609,vts_reward_expectancy_bt,2022.2.4,Win32,60.86056844,Chrome,1504,1003,,,a,1.3576,1,535,2,2,6,30,1,1,1,0,0,0,0,0,1,0,triangle,hexagon,,,,,,,,,,,,,,,,,,,,,,,,,,,,,,,,,,,,,,,,,,,,,,,,,,,,,,
296710,2022-12-05_23h10.24.609,vts_reward_expectancy_bt,2022.2.4,Win32,60.86056844,Chrome,1504,1003,,,l,0.4274,10,545,2,2,7,31,10,1,0,0,0,1,0,1,0,0,star ,circle,,,,,,,,,,,,,,,,,,,,,,,,,,,,,,,,,,,,,,,,,,,,,,,,,,,,,,
296710,2022-12-05_23h10.24.609,vts_reward_expectancy_bt,2022.2.4,Win32,60.86056844,Chrome,1504,1003,,,a,0.6007,10,555,2,2,8,32,5,1,0,1,0,0,0,0,0,1,circle,star,,,,,,,,,,,,,,,,,,,,,,,,,,,,,,,,,,,,,,,,,,,,,,,,,,,,,,
296710,2022-12-05_23h10.24.609,vts_reward_expectancy_bt,2022.2.4,Win32,60.86056844,Chrome,1504,1003,,,a,0.7041,1,556,2,2,9,33,4,1,0,1,0,0,0,0,1,0,circle,hexagon,,,,,,,,,,,,,,,,,,,,,,,,,,,,,,,,,,,,,,,,,,,,,,,,,,,,,,
296710,2022-12-05_23h10.24.609,vts_reward_expectancy_bt,2022.2.4,Win32,60.86056844,Chrome,1504,1003,,,a,1.0864,1,557,2,2,10,34,3,1,0,1,0,0,1,0,0,0,circle,triangle,,,,,,,,,,,,,,,,,,,,,,,,,,,,,,,,,,,,,,,,,,,,,,,,,,,,,,
296710,2022-12-05_23h10.24.609,vts_reward_expectancy_bt,2022.2.4,Win32,60.86056844,Chrome,1504,1003,,,a,1.2002,10,567,2,2,11,35,7,1,0,0,1,0,0,1,0,0,hexagon,circle,,,,,,,,,,,,,,,,,,,,,,,,,,,,,,,,,,,,,,,,,,,,,,,,,,,,,,
296710,2022-12-05_23h10.24.609,vts_reward_expectancy_bt,2022.2.4,Win32,60.86056844,Chrome,1504,1003,,,,,,,,,,,,,,,,,,,,,,,H,146,hexagon,1,0,d,2.5404,0,0,0,0,0,1,,,,,,,,,,,,,,,,,,,,,,,,,,,,,,,,,,,,,,,,,
296710,2022-12-05_23h10.24.609,vts_reward_expectancy_bt,2022.2.4,Win32,60.86056844,Chrome,1504,1003,,,,,,,,,,,,,,,,,,,,,,,U,139,triangle,1,0,f,1.3565,0,1,0,1,0,1,,,,,,,,,,,,,,,,,,,,,,,,,,,,,,,,,,,,,,,,,
296710,2022-12-05_23h10.24.609,vts_reward_expectancy_bt,2022.2.4,Win32,60.86056844,Chrome,1504,1003,,,,,,,,,,,,,,,,,,,,,,,Y,160,star,1,0,f,1.3511,0,2,0,2,0,1,,,,,,,,,,,,,,,,,,,,,,,,,,,,,,,,,,,,,,,,,
296710,2022-12-05_23h10.24.609,vts_reward_expectancy_bt,2022.2.4,Win32,60.86056844,Chrome,1504,1003,,,,,,,,,,,,,,,,,,,,,,,W,125,circle,1,0,f,2.3585,0,3,0,3,0,1,,,,,,,,,,,,,,,,,,,,,,,,,,,,,,,,,,,,,,,,,
296710,2022-12-05_23h10.24.609,vts_reward_expectancy_bt,2022.2.4,Win32,60.86056844,Chrome,1504,1003,,,,,,,,,,,,,,,,,,,,,,,D,167,hexagon,1,0,d,0.5538,0,4,0,4,0,1,,,,,,,,,,,,,,,,,,,,,,,,,,,,,,,,,,,,,,,,,
296710,2022-12-05_23h10.24.609,vts_reward_expectancy_bt,2022.2.4,Win32,60.86056844,Chrome,1504,1003,,,,,,,,,,,,,,,,,,,,,,,S,132,triangle,0,0,,,0,5,0,5,0,1,,,,,,,,,,,,,,,,,,,,,,,,,,,,,,,,,,,,,,,,,
296710,2022-12-05_23h10.24.609,vts_reward_expectancy_bt,2022.2.4,Win32,60.86056844,Chrome,1504,1003,,,,,,,,,,,,,,,,,,,,,,,B,174,star,1,1,d,0.6504,0,6,0,6,0,1,,,,,,,,,,,,,,,,,,,,,,,,,,,,,,,,,,,,,,,,,
296710,2022-12-05_23h10.24.609,vts_reward_expectancy_bt,2022.2.4,Win32,60.86056844,Chrome,1504,1003,,,,,,,,,,,,,,,,,,,,,,,F,181,circle,1,0,d,1.3679,0,7,0,7,0,1,,,,,,,,,,,,,,,,,,,,,,,,,,,,,,,,,,,,,,,,,
296710,2022-12-05_23h10.24.609,vts_reward_expectancy_bt,2022.2.4,Win32,60.86056844,Chrome,1504,1003,,,,,,,,,,,,,,,,,,,,,,,H,146,circle,1,0,d,1.117,0,8,0,8,0,1,,,,,,,,,,,,,,,,,,,,,,,,,,,,,,,,,,,,,,,,,
296710,2022-12-05_23h10.24.609,vts_reward_expectancy_bt,2022.2.4,Win32,60.86056844,Chrome,1504,1003,,,,,,,,,,,,,,,,,,,,,,,U,139,triangle,1,0,f,0.667,0,9,0,9,0,1,,,,,,,,,,,,,,,,,,,,,,,,,,,,,,,,,,,,,,,,,
296710,2022-12-05_23h10.24.609,vts_reward_expectancy_bt,2022.2.4,Win32,60.86056844,Chrome,1504,1003,,,,,,,,,,,,,,,,,,,,,,,W,174,hexagon,1,0,,,1,,,,,,k,1.8779,0,0,0,0,1,,,,,,,,,,,,,,,,,,,,,,,,,,,,,,,,,,
296710,2022-12-05_23h10.24.609,vts_reward_expectancy_bt,2022.2.4,Win32,60.86056844,Chrome,1504,1003,,,,,,,,,,,,,,,,,,,,,,,S,132,circle,1,0,,,1,,,,,,j,1.6043,1,0,1,0,1,,,,,,,,,,,,,,,,,,,,,,,,,,,,,,,,,,
296710,2022-12-05_23h10.24.609,vts_reward_expectancy_bt,2022.2.4,Win32,60.86056844,Chrome,1504,1003,,,,,,,,,,,,,,,,,,,,,,,H,167,star,1,0,,,1,,,,,,k,0.8606,2,0,2,0,1,,,,,,,,,,,,,,,,,,,,,,,,,,,,,,,,,,
296710,2022-12-05_23h10.24.609,vts_reward_expectancy_bt,2022.2.4,Win32,60.86056844,Chrome,1504,1003,,,,,,,,,,,,,,,,,,,,,,,D,160,triangle,1,0,,,1,,,,,,k,0.6528,3,0,3,0,1,,,,,,,,,,,,,,,,,,,,,,,,,,,,,,,,,,
296710,2022-12-05_23h10.24.609,vts_reward_expectancy_bt,2022.2.4,Win32,60.86056844,Chrome,1504,1003,,,,,,,,,,,,,,,,,,,,,,,B,146,hexagon,1,0,,,1,,,,,,j,0.6497,4,0,4,0,1,,,,,,,,,,,,,,,,,,,,,,,,,,,,,,,,,,
296710,2022-12-05_23h10.24.609,vts_reward_expectancy_bt,2022.2.4,Win32,60.86056844,Chrome,1504,1003,,,,,,,,,,,,,,,,,,,,,,,Y,139,circle,1,0,,,1,,,,,,j,0.9004,5,0,5,0,1,,,,,,,,,,,,,,,,,,,,,,,,,,,,,,,,,,
296710,2022-12-05_23h10.24.609,vts_reward_expectancy_bt,2022.2.4,Win32,60.86056844,Chrome,1504,1003,,,,,,,,,,,,,,,,,,,,,,,F,125,star,1,0,,,1,,,,,,j,1.1396,6,0,6,0,1,,,,,,,,,,,,,,,,,,,,,,,,,,,,,,,,,,
296710,2022-12-05_23h10.24.609,vts_reward_expectancy_bt,2022.2.4,Win32,60.86056844,Chrome,1504,1003,,,,,,,,,,,,,,,,,,,,,,,U,181,triangle,1,0,,,1,,,,,,k,0.7565,7,0,7,0,1,,,,,,,,,,,,,,,,,,,,,,,,,,,,,,,,,,
296710,2022-12-05_23h10.24.609,vts_reward_expectancy_bt,2022.2.4,Win32,60.86056844,Chrome,1504,1003,,,,,,,,,,,,,,,,,,,,,,,W,174,triangle,1,0,,,1,,,,,,k,0.9001,8,0,8,0,1,,,,,,,,,,,,,,,,,,,,,,,,,,,,,,,,,,
296710,2022-12-05_23h10.24.609,vts_reward_expectancy_bt,2022.2.4,Win32,60.86056844,Chrome,1504,1003,,,,,,,,,,,,,,,,,,,,,,,S,132,hexagon,1,0,,,1,,,,,,j,0.774,9,0,9,0,1,,,,,,,,,,,,,,,,,,,,,,,,,,,,,,,,,,
296710,2022-12-05_23h10.24.609,vts_reward_expectancy_bt,2022.2.4,Win32,60.86056844,Chrome,1504,1003,,,,,0,567,,,,,,,,,,,,,,,,,B,139,star,1,0,,,2,,,,,,,,,,,,,-1,letter,NA,d,1.8352,vtsPrac,0,0,0,0,1,,,,,,,,,,,,,,,,,,,,,,,
296710,2022-12-05_23h10.24.609,vts_reward_expectancy_bt,2022.2.4,Win32,60.86056844,Chrome,1504,1003,,,,,0,567,,,,,,,,,,,,,,,,,H,132,triangle,1,0,,,2,,,,,,,,,,,,,switch,number,numSwt,j,2.7786,vtsPrac,1,0,1,0,1,,,,,,,,,,,,,,,,,,,,,,,
296710,2022-12-05_23h10.24.609,vts_reward_expectancy_bt,2022.2.4,Win32,60.86056844,Chrome,1504,1003,,,,,0,567,,,,,,,,,,,,,,,,,Y,167,star,1,0,,,2,,,,,,,,,,,,,switch,letter,lettSwt,f,2.5668,vtsPrac,2,0,2,0,1,,,,,,,,,,,,,,,,,,,,,,,
296710,2022-12-05_23h10.24.609,vts_reward_expectancy_bt,2022.2.4,Win32,60.86056844,Chrome,1504,1003,,,,,0,567,,,,,,,,,,,,,,,,,U,174,triangle,1,0,,,2,,,,,,,,,,,,,switch,number,numSwt,k,0.7584,vtsPrac,3,0,3,0,1,,,,,,,,,,,,,,,,,,,,,,,
296710,2022-12-05_23h10.24.609,vts_reward_expectancy_bt,2022.2.4,Win32,60.86056844,Chrome,1504,1003,,,,,0,567,,,,,,,,,,,,,,,,,B,139,triangle,1,0,,,2,,,,,,,,,,,,,repeat,number,numRpt,j,0.6501,vtsPrac,4,0,4,0,1,,,,,,,,,,,,,,,,,,,,,,,
296710,2022-12-05_23h10.24.609,vts_reward_expectancy_bt,2022.2.4,Win32,60.86056844,Chrome,1504,1003,,,,,0,567,,,,,,,,,,,,,,,,,H,132,hexagon,1,0,,,2,,,,,,,,,,,,,switch,letter,lettSwt,d,1.517,vtsPrac,5,0,5,0,1,,,,,,,,,,,,,,,,,,,,,,,
296710,2022-12-05_23h10.24.609,vts_reward_expectancy_bt,2022.2.4,Win32,60.86056844,Chrome,1504,1003,,,,,0,567,,,,,,,,,,,,,,,,,Y,167,circle,1,0,,,2,,,,,,,,,,,,,switch,number,numSwt,k,1.1062,vtsPrac,6,0,6,0,1,,,,,,,,,,,,,,,,,,,,,,,
296710,2022-12-05_23h10.24.609,vts_reward_expectancy_bt,2022.2.4,Win32,60.86056844,Chrome,1504,1003,,,,,0,567,,,,,,,,,,,,,,,,,U,174,hexagon,1,0,,,2,,,,,,,,,,,,,switch,letter,lettSwt,f,1.0199,vtsPrac,7,0,7,0,1,,,,,,,,,,,,,,,,,,,,,,,
296710,2022-12-05_23h10.24.609,vts_reward_expectancy_bt,2022.2.4,Win32,60.86056844,Chrome,1504,1003,,,,,0,567,,,,,,,,,,,,,,,,,D,132,circle,1,0,,,2,,,,,,,,,,,,,repeat,letter,lettRpt,d,0.8672,vtsPrac,8,0,8,0,1,,,,,,,,,,,,,,,,,,,,,,,
296710,2022-12-05_23h10.24.609,vts_reward_expectancy_bt,2022.2.4,Win32,60.86056844,Chrome,1504,1003,,,,,0,567,,,,,,,,,,,,,,,,,W,146,hexagon,1,0,,,2,,,,,,,,,,,,,switch,number,numSwt,j,2.0871,vtsPrac,9,0,9,0,1,,,,,,,,,,,,,,,,,,,,,,,
296710,2022-12-05_23h10.24.609,vts_reward_expectancy_bt,2022.2.4,Win32,60.86056844,Chrome,1504,1003,,,,,0,567,,,,,,,,,,,,,,,,,Y,160,star,1,0,,,2,,,,,,,,,,,,,switch,letter,lettSwt,f,0.9847,vtsPrac,10,0,10,0,1,,,,,,,,,,,,,,,,,,,,,,,
296710,2022-12-05_23h10.24.609,vts_reward_expectancy_bt,2022.2.4,Win32,60.86056844,Chrome,1504,1003,,,,,0,567,,,,,,,,,,,,,,,,,B,174,triangle,1,0,,,2,,,,,,,,,,,,,switch,number,numSwt,k,0.6537,vtsPrac,11,0,11,0,1,,,,,,,,,,,,,,,,,,,,,,,
296710,2022-12-05_23h10.24.609,vts_reward_expectancy_bt,2022.2.4,Win32,60.86056844,Chrome,1504,1003,,,,,0,567,,,,,,,,,,,,,,,,,D,139,star,1,0,,,2,,,,,,,,,,,,,repeat,number,numRpt,j,1.238,vtsPrac,12,0,12,0,1,,,,,,,,,,,,,,,,,,,,,,,
296710,2022-12-05_23h10.24.609,vts_reward_expectancy_bt,2022.2.4,Win32,60.86056844,Chrome,1504,1003,,,,,0,567,,,,,,,,,,,,,,,,,S,132,circle,1,0,,,2,,,,,,,,,,,,,switch,letter,lettSwt,f,0.9701,vtsPrac,13,0,13,0,1,,,,,,,,,,,,,,,,,,,,,,,
296710,2022-12-05_23h10.24.609,vts_reward_expectancy_bt,2022.2.4,Win32,60.86056844,Chrome,1504,1003,,,,,0,567,,,,,,,,,,,,,,,,,U,181,hexagon,1,0,,,2,,,,,,,,,,,,,repeat,letter,lettRpt,f,0.8761,vtsPrac,14,0,14,0,1,,,,,,,,,,,,,,,,,,,,,,,
296710,2022-12-05_23h10.24.609,vts_reward_expectancy_bt,2022.2.4,Win32,60.86056844,Chrome,1504,1003,,,,,0,567,,,,,,,,,,,,,,,,,Y,125,triangle,1,0,,,2,,,,,,,,,,,,,repeat,letter,lettRpt,f,0.9932,vtsPrac,15,0,15,0,1,,,,,,,,,,,,,,,,,,,,,,,
296710,2022-12-05_23h10.24.609,vts_reward_expectancy_bt,2022.2.4,Win32,60.86056844,Chrome,1504,1003,,,,,0,567,,,,,,,,,,,,,,,,,D,181,star,1,0,,,2,,,,,,,,,,,,,switch,number,numSwt,k,0.7223,vtsPrac,16,0,16,0,1,,,,,,,,,,,,,,,,,,,,,,,
296710,2022-12-05_23h10.24.609,vts_reward_expectancy_bt,2022.2.4,Win32,60.86056844,Chrome,1504,1003,,,,,0,567,,,,,,,,,,,,,,,,,Y,139,triangle,1,0,,,2,,,,,,,,,,,,,repeat,number,numRpt,j,0.675,vtsPrac,17,0,17,0,1,,,,,,,,,,,,,,,,,,,,,,,
296710,2022-12-05_23h10.24.609,vts_reward_expectancy_bt,2022.2.4,Win32,60.86056844,Chrome,1504,1003,,,,,0,567,,,,,,,,,,,,,,,,,W,167,hexagon,1,0,,,2,,,,,,,,,,,,,repeat,number,numRpt,k,0.9508,vtsPrac,18,0,18,0,1,,,,,,,,,,,,,,,,,,,,,,,
296710,2022-12-05_23h10.24.609,vts_reward_expectancy_bt,2022.2.4,Win32,60.86056844,Chrome,1504,1003,,,,,0,567,,,,,,,,,,,,,,,,,F,125,triangle,1,0,,,2,,,,,,,,,,,,,switch,letter,lettSwt,d,1.2002,vtsPrac,19,0,19,0,1,,,,,,,,,,,,,,,,,,,,,,,
296710,2022-12-05_23h10.24.609,vts_reward_expectancy_bt,2022.2.4,Win32,60.86056844,Chrome,1504,1003,,,,,0,567,,,,,,,,,,,,,,,,,B,146,star,1,0,,,2,,,,,,,,,,,,,switch,number,numSwt,j,1.8547,vtsPrac,20,0,20,0,1,,,,,,,,,,,,,,,,,,,,,,,
296710,2022-12-05_23h10.24.609,vts_reward_expectancy_bt,2022.2.4,Win32,60.86056844,Chrome,1504,1003,,,,,0,567,,,,,,,,,,,,,,,,,D,132,hexagon,1,0,,,2,,,,,,,,,,,,,switch,letter,lettSwt,d,0.9266,vtsPrac,21,0,21,0,1,,,,,,,,,,,,,,,,,,,,,,,
296710,2022-12-05_23h10.24.609,vts_reward_expectancy_bt,2022.2.4,Win32,60.86056844,Chrome,1504,1003,,,,,0,567,,,,,,,,,,,,,,,,,F,181,hexagon,1,0,,,2,,,,,,,,,,,,,repeat,letter,lettRpt,d,1.3064,vtsPrac,22,0,22,0,1,,,,,,,,,,,,,,,,,,,,,,,
296710,2022-12-05_23h10.24.609,vts_reward_expectancy_bt,2022.2.4,Win32,60.86056844,Chrome,1504,1003,,,,,0,567,,,,,,,,,,,,,,,,,H,167,circle,1,0,,,2,,,,,,,,,,,,,switch,number,numSwt,k,1.0038,vtsPrac,23,0,23,0,1,,,,,,,,,,,,,,,,,,,,,,,
296710,2022-12-05_23h10.24.609,vts_reward_expectancy_bt,2022.2.4,Win32,60.86056844,Chrome,1504,1003,,,,,0,567,,,,,,,,,,,,,,,,,F,181,hexagon,1,0,,,2,,,,,,,,,,,,,repeat,number,numRpt,k,0.8837,vtsPrac,24,0,24,0,1,,,,,,,,,,,,,,,,,,,,,,,
296710,2022-12-05_23h10.24.609,vts_reward_expectancy_bt,2022.2.4,Win32,60.86056844,Chrome,1504,1003,,,,,0,567,,,,,,,,,,,,,,,,,H,160,circle,1,0,,,2,,,,,,,,,,,,,switch,letter,lettSwt,d,1.2936,vtsPrac,25,0,25,0,1,,,,,,,,,,,,,,,,,,,,,,,
296710,2022-12-05_23h10.24.609,vts_reward_expectancy_bt,2022.2.4,Win32,60.86056844,Chrome,1504,1003,,,,,0,567,,,,,,,,,,,,,,,,,W,146,circle,-1,0,,,2,,,,,,,,,,,,,switch,no_choice,NA,,,vtsPrac,26,0,26,0,1,,,,,,,,,,,,,,,,,,,,,,,
296710,2022-12-05_23h10.24.609,vts_reward_expectancy_bt,2022.2.4,Win32,60.86056844,Chrome,1504,1003,,,,,0,567,,,,,,,,,,,,,,,,,S,125,star,1,0,,,2,,,,,,,,,,,,,switch,letter,lettSwt,f,1.3719,vtsPrac,27,0,27,0,1,,,,,,,,,,,,,,,,,,,,,,,
296710,2022-12-05_23h10.24.609,vts_reward_expectancy_bt,2022.2.4,Win32,60.86056844,Chrome,1504,1003,,,,,0,567,,,,,,,,,,,,,,,,,H,132,hexagon,1,0,,,2,,,,,,,,,,,,,switch,number,numSwt,j,0.8176,vtsPrac,28,0,28,0,1,,,,,,,,,,,,,,,,,,,,,,,
296710,2022-12-05_23h10.24.609,vts_reward_expectancy_bt,2022.2.4,Win32,60.86056844,Chrome,1504,1003,,,,,0,567,,,,,,,,,,,,,,,,,F,139,star,1,0,,,2,,,,,,,,,,,,,repeat,number,numRpt,j,0.6863,vtsPrac,29,0,29,0,1,,,,,,,,,,,,,,,,,,,,,,,
296710,2022-12-05_23h10.24.609,vts_reward_expectancy_bt,2022.2.4,Win32,60.86056844,Chrome,1504,1003,,,,,0,567,,,,,,,,,,,,,,,,,U,125,circle,1,0,,,2,,,,,,,,,,,,,switch,letter,lettSwt,f,0.7549,vtsPrac,30,0,30,0,1,,,,,,,,,,,,,,,,,,,,,,,
296710,2022-12-05_23h10.24.609,vts_reward_expectancy_bt,2022.2.4,Win32,60.86056844,Chrome,1504,1003,,,,,0,567,,,,,,,,,,,,,,,,,Y,181,hexagon,1,0,,,2,,,,,,,,,,,,,switch,number,numSwt,k,1.2211,vtsPrac,31,0,31,0,1,,,,,,,,,,,,,,,,,,,,,,,
296710,2022-12-05_23h10.24.609,vts_reward_expectancy_bt,2022.2.4,Win32,60.86056844,Chrome,1504,1003,,,,,,,,,,,,,,,,,,,,,,,,,,,,,,,,,,,,,,,,,,,,,,,,,,,,,,,,,,,,,,,,,,,,,,,,,,,,
296710,2022-12-05_23h10.24.609,vts_reward_expectancy_bt,2022.2.4,Win32,60.86056844,Chrome,1504,1003,,,,,,,,,,,,,,,,,,,,,,,,,,,,,,,,,,,,,,,,,,,,,,,,,,,,,,,,,,,,,,,,,,,,,,,,,,,,
296710,2022-12-05_23h10.24.609,vts_reward_expectancy_bt,2022.2.4,Win32,60.86056844,Chrome,1504,1003,,,,,0,567,,,,,,,,,,,,,,,,,B,167,star,1,0,,,,,,,,,,,,,,,,switch,letter,lettSwt,d,1.3176,noRew,,,,,,0,0,0,0,0,1,,,,,,,,,,,,,,,,,
296710,2022-12-05_23h10.24.609,vts_reward_expectancy_bt,2022.2.4,Win32,60.86056844,Chrome,1504,1003,,,,,0,567,,,,,,,,,,,,,,,,,Y,132,hexagon,1,0,,,,,,,,,,,,,,,,repeat,letter,lettRpt,f,1.0831,noRew,,,,,,0,1,0,1,0,1,,,,,,,,,,,,,,,,,
296710,2022-12-05_23h10.24.609,vts_reward_expectancy_bt,2022.2.4,Win32,60.86056844,Chrome,1504,1003,,,,,0,567,,,,,,,,,,,,,,,,,H,160,star,1,0,,,,,,,,,,,,,,,,switch,number,numSwt,k,0.8036,noRew,,,,,,0,2,0,2,0,1,,,,,,,,,,,,,,,,,
296710,2022-12-05_23h10.24.609,vts_reward_expectancy_bt,2022.2.4,Win32,60.86056844,Chrome,1504,1003,,,,,0,567,,,,,,,,,,,,,,,,,W,146,hexagon,1,0,,,,,,,,,,,,,,,,switch,letter,lettSwt,f,0.884,noRew,,,,,,0,3,0,3,0,1,,,,,,,,,,,,,,,,,
296710,2022-12-05_23h10.24.609,vts_reward_expectancy_bt,2022.2.4,Win32,60.86056844,Chrome,1504,1003,,,,,0,567,,,,,,,,,,,,,,,,,B,167,circle,1,0,,,,,,,,,,,,,,,,repeat,letter,lettRpt,d,1.0002,noRew,,,,,,0,4,0,4,0,1,,,,,,,,,,,,,,,,,
296710,2022-12-05_23h10.24.609,vts_reward_expectancy_bt,2022.2.4,Win32,60.86056844,Chrome,1504,1003,,,,,0,567,,,,,,,,,,,,,,,,,Y,132,hexagon,1,0,,,,,,,,,,,,,,,,switch,number,numSwt,j,0.7563,noRew,,,,,,0,5,0,5,0,1,,,,,,,,,,,,,,,,,
296710,2022-12-05_23h10.24.609,vts_reward_expectancy_bt,2022.2.4,Win32,60.86056844,Chrome,1504,1003,,,,,0,567,,,,,,,,,,,,,,,,,H,160,circle,1,0,,,,,,,,,,,,,,,,repeat,number,numRpt,k,0.617,noRew,,,,,,0,6,0,6,0,1,,,,,,,,,,,,,,,,,
296710,2022-12-05_23h10.24.609,vts_reward_expectancy_bt,2022.2.4,Win32,60.86056844,Chrome,1504,1003,,,,,0,567,,,,,,,,,,,,,,,,,W,146,triangle,1,0,,,,,,,,,,,,,,,,switch,letter,lettSwt,f,0.8704,noRew,,,,,,0,7,0,7,0,1,,,,,,,,,,,,,,,,,
296710,2022-12-05_23h10.24.609,vts_reward_expectancy_bt,2022.2.4,Win32,60.86056844,Chrome,1504,1003,,,,,0,567,,,,,,,,,,,,,,,,,F,132,hexagon,1,0,,,,,,,,,,,,,,,,switch,number,numSwt,j,0.8339,noRew,,,,,,0,8,0,8,0,1,,,,,,,,,,,,,,,,,
296710,2022-12-05_23h10.24.609,vts_reward_expectancy_bt,2022.2.4,Win32,60.86056844,Chrome,1504,1003,,,,,0,567,,,,,,,,,,,,,,,,,U,181,circle,1,0,,,,,,,,,,,,,,,,repeat,number,numRpt,k,0.9501,noRew,,,,,,0,9,0,9,0,1,,,,,,,,,,,,,,,,,
296710,2022-12-05_23h10.24.609,vts_reward_expectancy_bt,2022.2.4,Win32,60.86056844,Chrome,1504,1003,,,,,0,567,,,,,,,,,,,,,,,,,D,139,star,1,0,,,,,,,,,,,,,,,,repeat,number,numRpt,j,0.8761,noRew,,,,,,0,10,0,10,0,1,,,,,,,,,,,,,,,,,
296710,2022-12-05_23h10.24.609,vts_reward_expectancy_bt,2022.2.4,Win32,60.86056844,Chrome,1504,1003,,,,,0,567,,,,,,,,,,,,,,,,,B,125,triangle,1,0,,,,,,,,,,,,,,,,switch,letter,lettSwt,d,0.9166,noRew,,,,,,0,11,0,11,0,1,,,,,,,,,,,,,,,,,
296710,2022-12-05_23h10.24.609,vts_reward_expectancy_bt,2022.2.4,Win32,60.86056844,Chrome,1504,1003,,,,,0,567,,,,,,,,,,,,,,,,,D,160,circle,1,0,,,,,,,,,,,,,,,,repeat,letter,lettRpt,d,0.8208,noRew,,,,,,0,12,0,12,0,1,,,,,,,,,,,,,,,,,
296710,2022-12-05_23h10.24.609,vts_reward_expectancy_bt,2022.2.4,Win32,60.86056844,Chrome,1504,1003,,,,,0,567,,,,,,,,,,,,,,,,,Y,139,star,1,0,,,,,,,,,,,,,,,,switch,number,numSwt,j,1.1665,noRew,,,,,,0,13,0,13,0,1,,,,,,,,,,,,,,,,,
296710,2022-12-05_23h10.24.609,vts_reward_expectancy_bt,2022.2.4,Win32,60.86056844,Chrome,1504,1003,,,,,0,567,,,,,,,,,,,,,,,,,W,174,hexagon,1,0,,,,,,,,,,,,,,,,switch,letter,lettSwt,f,0.6834,noRew,,,,,,0,14,0,14,0,1,,,,,,,,,,,,,,,,,
296710,2022-12-05_23h10.24.609,vts_reward_expectancy_bt,2022.2.4,Win32,60.86056844,Chrome,1504,1003,,,,,0,567,,,,,,,,,,,,,,,,,U,181,star,1,0,,,,,,,,,,,,,,,,switch,number,numSwt,k,0.7428,noRew,,,,,,0,15,0,15,0,1,,,,,,,,,,,,,,,,,
296710,2022-12-05_23h10.24.609,vts_reward_expectancy_bt,2022.2.4,Win32,60.86056844,Chrome,1504,1003,,,,,0,567,,,,,,,,,,,,,,,,,D,174,circle,1,0,,,,,,,,,,,,,,,,repeat,number,numRpt,k,1.0706,noRew,,,,,,0,16,0,16,0,1,,,,,,,,,,,,,,,,,
296710,2022-12-05_23h10.24.609,vts_reward_expectancy_bt,2022.2.4,Win32,60.86056844,Chrome,1504,1003,,,,,0,567,,,,,,,,,,,,,,,,,U,146,star,1,0,,,,,,,,,,,,,,,,switch,letter,lettSwt,f,0.8171,noRew,,,,,,0,17,0,17,0,1,,,,,,,,,,,,,,,,,
296710,2022-12-05_23h10.24.609,vts_reward_expectancy_bt,2022.2.4,Win32,60.86056844,Chrome,1504,1003,,,,,0,567,,,,,,,,,,,,,,,,,H,181,triangle,1,0,,,,,,,,,,,,,,,,repeat,letter,lettRpt,d,1.3535,noRew,,,,,,0,18,0,18,0,1,,,,,,,,,,,,,,,,,
296710,2022-12-05_23h10.24.609,vts_reward_expectancy_bt,2022.2.4,Win32,60.86056844,Chrome,1504,1003,,,,,0,567,,,,,,,,,,,,,,,,,B,160,circle,1,0,,,,,,,,,,,,,,,,repeat,letter,lettRpt,d,0.6694,noRew,,,,,,0,19,0,19,0,1,,,,,,,,,,,,,,,,,
296710,2022-12-05_23h10.24.609,vts_reward_expectancy_bt,2022.2.4,Win32,60.86056844,Chrome,1504,1003,,,,,0,567,,,,,,,,,,,,,,,,,S,146,circle,1,0,,,,,,,,,,,,,,,,switch,number,numSwt,j,2.2245,noRew,,,,,,0,20,0,20,0,1,,,,,,,,,,,,,,,,,
296710,2022-12-05_23h10.24.609,vts_reward_expectancy_bt,2022.2.4,Win32,60.86056844,Chrome,1504,1003,,,,,0,567,,,,,,,,,,,,,,,,,U,160,star,0,0,,,,,,,,,,,,,,,,switch,letter,NA,d,1.1004,noRew,,,,,,0,21,0,21,0,1,,,,,,,,,,,,,,,,,
296710,2022-12-05_23h10.24.609,vts_reward_expectancy_bt,2022.2.4,Win32,60.86056844,Chrome,1504,1003,,,,,0,567,,,,,,,,,,,,,,,,,H,139,circle,1,1,,,,,,,,,,,,,,,,repeat,letter,lettRpt,d,1.6076,noRew,,,,,,0,22,0,22,0,1,,,,,,,,,,,,,,,,,
296710,2022-12-05_23h10.24.609,vts_reward_expectancy_bt,2022.2.4,Win32,60.86056844,Chrome,1504,1003,,,,,0,567,,,,,,,,,,,,,,,,,Y,132,star,1,0,,,,,,,,,,,,,,,,switch,number,numSwt,j,0.8838,noRew,,,,,,0,23,0,23,0,1,,,,,,,,,,,,,,,,,
296710,2022-12-05_23h10.24.609,vts_reward_expectancy_bt,2022.2.4,Win32,60.86056844,Chrome,1504,1003,,,,,0,567,,,,,,,,,,,,,,,,,Y,132,triangle,1,0,,,,,,,,,,,,,,,,switch,letter,lettSwt,f,1.2346,noRew,,,,,,0,24,0,24,0,1,,,,,,,,,,,,,,,,,
296710,2022-12-05_23h10.24.609,vts_reward_expectancy_bt,2022.2.4,Win32,60.86056844,Chrome,1504,1003,,,,,0,567,,,,,,,,,,,,,,,,,W,146,circle,1,0,,,,,,,,,,,,,,,,switch,number,numSwt,j,1.1359,noRew,,,,,,0,25,0,25,0,1,,,,,,,,,,,,,,,,,
296710,2022-12-05_23h10.24.609,vts_reward_expectancy_bt,2022.2.4,Win32,60.86056844,Chrome,1504,1003,,,,,0,567,,,,,,,,,,,,,,,,,D,139,circle,1,0,,,,,,,,,,,,,,,,switch,letter,lettSwt,d,0.8682,noRew,,,,,,0,26,0,26,0,1,,,,,,,,,,,,,,,,,
296710,2022-12-05_23h10.24.609,vts_reward_expectancy_bt,2022.2.4,Win32,60.86056844,Chrome,1504,1003,,,,,0,567,,,,,,,,,,,,,,,,,S,160,hexagon,1,0,,,,,,,,,,,,,,,,switch,number,numSwt,k,1.9168,noRew,,,,,,0,27,0,27,0,1,,,,,,,,,,,,,,,,,
296710,2022-12-05_23h10.24.609,vts_reward_expectancy_bt,2022.2.4,Win32,60.86056844,Chrome,1504,1003,,,,,0,567,,,,,,,,,,,,,,,,,H,139,circle,1,0,,,,,,,,,,,,,,,,repeat,number,numRpt,j,0.7998,noRew,,,,,,0,28,0,28,0,1,,,,,,,,,,,,,,,,,
296710,2022-12-05_23h10.24.609,vts_reward_expectancy_bt,2022.2.4,Win32,60.86056844,Chrome,1504,1003,,,,,0,567,,,,,,,,,,,,,,,,,W,167,hexagon,1,0,,,,,,,,,,,,,,,,switch,letter,lettSwt,f,0.9069,noRew,,,,,,0,29,0,29,0,1,,,,,,,,,,,,,,,,,
296710,2022-12-05_23h10.24.609,vts_reward_expectancy_bt,2022.2.4,Win32,60.86056844,Chrome,1504,1003,,,,,0,567,,,,,,,,,,,,,,,,,F,132,star,1,0,,,,,,,,,,,,,,,,repeat,letter,lettRpt,d,1.4164,noRew,,,,,,0,30,0,30,0,1,,,,,,,,,,,,,,,,,
296710,2022-12-05_23h10.24.609,vts_reward_expectancy_bt,2022.2.4,Win32,60.86056844,Chrome,1504,1003,,,,,0,567,,,,,,,,,,,,,,,,,B,160,triangle,1,0,,,,,,,,,,,,,,,,repeat,letter,lettRpt,d,0.7006,noRew,,,,,,0,31,0,31,0,1,,,,,,,,,,,,,,,,,
296710,2022-12-05_23h10.24.609,vts_reward_expectancy_bt,2022.2.4,Win32,60.86056844,Chrome,1504,1003,,,,,0,567,,,,,,,,,,,,,,,,,B,167,triangle,1,0,,,,,,,,,,,,,,,,switch,number,numSwt,k,2.0167,noRew,,,,,,0,32,0,32,0,1,,,,,,,,,,,,,,,,,
296710,2022-12-05_23h10.24.609,vts_reward_expectancy_bt,2022.2.4,Win32,60.86056844,Chrome,1504,1003,,,,,0,567,,,,,,,,,,,,,,,,,W,125,hexagon,1,0,,,,,,,,,,,,,,,,repeat,number,numRpt,j,0.7546,noRew,,,,,,0,33,0,33,0,1,,,,,,,,,,,,,,,,,
296710,2022-12-05_23h10.24.609,vts_reward_expectancy_bt,2022.2.4,Win32,60.86056844,Chrome,1504,1003,,,,,0,567,,,,,,,,,,,,,,,,,F,132,hexagon,1,0,,,,,,,,,,,,,,,,repeat,number,numRpt,j,1.9595,noRew,,,,,,0,34,0,34,0,1,,,,,,,,,,,,,,,,,
296710,2022-12-05_23h10.24.609,vts_reward_expectancy_bt,2022.2.4,Win32,60.86056844,Chrome,1504,1003,,,,,0,567,,,,,,,,,,,,,,,,,S,174,star,1,0,,,,,,,,,,,,,,,,switch,letter,lettSwt,f,0.8338,noRew,,,,,,0,35,0,35,0,1,,,,,,,,,,,,,,,,,
296710,2022-12-05_23h10.24.609,vts_reward_expectancy_bt,2022.2.4,Win32,60.86056844,Chrome,1504,1003,,,,,0,567,,,,,,,,,,,,,,,,,D,174,hexagon,1,0,,,,,,,,,,,,,,,,repeat,letter,lettRpt,d,0.7506,noRew,,,,,,0,36,0,36,0,1,,,,,,,,,,,,,,,,,
296710,2022-12-05_23h10.24.609,vts_reward_expectancy_bt,2022.2.4,Win32,60.86056844,Chrome,1504,1003,,,,,0,567,,,,,,,,,,,,,,,,,S,132,star,1,0,,,,,,,,,,,,,,,,repeat,letter,lettRpt,f,2.1832,noRew,,,,,,0,37,0,37,0,1,,,,,,,,,,,,,,,,,
296710,2022-12-05_23h10.24.609,vts_reward_expectancy_bt,2022.2.4,Win32,60.86056844,Chrome,1504,1003,,,,,0,567,,,,,,,,,,,,,,,,,B,167,circle,1,0,,,,,,,,,,,,,,,,repeat,letter,lettRpt,d,1.3548,noRew,,,,,,0,38,0,38,0,1,,,,,,,,,,,,,,,,,
296710,2022-12-05_23h10.24.609,vts_reward_expectancy_bt,2022.2.4,Win32,60.86056844,Chrome,1504,1003,,,,,0,567,,,,,,,,,,,,,,,,,H,160,hexagon,1,0,,,,,,,,,,,,,,,,switch,number,numSwt,k,0.7703,noRew,,,,,,0,39,0,39,0,1,,,,,,,,,,,,,,,,,
296710,2022-12-05_23h10.24.609,vts_reward_expectancy_bt,2022.2.4,Win32,60.86056844,Chrome,1504,1003,,,,,0,567,,,,,,,,,,,,,,,,,D,132,hexagon,1,0,,,,,,,,,,,,,,,,repeat,number,numRpt,j,1.0674,noRew,,,,,,0,40,0,40,0,1,,,,,,,,,,,,,,,,,
296710,2022-12-05_23h10.24.609,vts_reward_expectancy_bt,2022.2.4,Win32,60.86056844,Chrome,1504,1003,,,,,0,567,,,,,,,,,,,,,,,,,F,139,star,1,0,,,,,,,,,,,,,,,,repeat,number,numRpt,j,0.6217,noRew,,,,,,0,41,0,41,0,1,,,,,,,,,,,,,,,,,
296710,2022-12-05_23h10.24.609,vts_reward_expectancy_bt,2022.2.4,Win32,60.86056844,Chrome,1504,1003,,,,,0,567,,,,,,,,,,,,,,,,,S,146,hexagon,1,0,,,,,,,,,,,,,,,,switch,letter,lettSwt,f,1.8191,noRew,,,,,,0,42,0,42,0,1,,,,,,,,,,,,,,,,,
296710,2022-12-05_23h10.24.609,vts_reward_expectancy_bt,2022.2.4,Win32,60.86056844,Chrome,1504,1003,,,,,0,567,,,,,,,,,,,,,,,,,B,167,triangle,1,0,,,,,,,,,,,,,,,,switch,number,numSwt,k,1.0672,noRew,,,,,,0,43,0,43,0,1,,,,,,,,,,,,,,,,,
296710,2022-12-05_23h10.24.609,vts_reward_expectancy_bt,2022.2.4,Win32,60.86056844,Chrome,1504,1003,,,,,0,567,,,,,,,,,,,,,,,,,W,146,circle,1,0,,,,,,,,,,,,,,,,switch,letter,lettSwt,f,1.6685,noRew,,,,,,0,44,0,44,0,1,,,,,,,,,,,,,,,,,
296710,2022-12-05_23h10.24.609,vts_reward_expectancy_bt,2022.2.4,Win32,60.86056844,Chrome,1504,1003,,,,,0,567,,,,,,,,,,,,,,,,,D,174,hexagon,1,0,,,,,,,,,,,,,,,,switch,number,numSwt,k,1.1237,noRew,,,,,,0,45,0,45,0,1,,,,,,,,,,,,,,,,,
296710,2022-12-05_23h10.24.609,vts_reward_expectancy_bt,2022.2.4,Win32,60.86056844,Chrome,1504,1003,,,,,0,567,,,,,,,,,,,,,,,,,B,132,circle,1,0,,,,,,,,,,,,,,,,switch,letter,lettSwt,d,0.8516,noRew,,,,,,0,46,0,46,0,1,,,,,,,,,,,,,,,,,
296710,2022-12-05_23h10.24.609,vts_reward_expectancy_bt,2022.2.4,Win32,60.86056844,Chrome,1504,1003,,,,,0,567,,,,,,,,,,,,,,,,,S,160,star,1,0,,,,,,,,,,,,,,,,repeat,letter,lettRpt,f,1.4045,noRew,,,,,,0,47,0,47,0,1,,,,,,,,,,,,,,,,,
296710,2022-12-05_23h10.24.609,vts_reward_expectancy_bt,2022.2.4,Win32,60.86056844,Chrome,1504,1003,,,,,0,567,,,,,,,,,,,,,,,,,D,125,triangle,1,0,,,,,,,,,,,,,,,,switch,number,numSwt,j,2.134,noRew,,,,,,0,48,0,48,0,1,,,,,,,,,,,,,,,,,
296710,2022-12-05_23h10.24.609,vts_reward_expectancy_bt,2022.2.4,Win32,60.86056844,Chrome,1504,1003,,,,,0,567,,,,,,,,,,,,,,,,,S,181,circle,1,0,,,,,,,,,,,,,,,,repeat,number,numRpt,k,0.8365,noRew,,,,,,0,49,0,49,0,1,,,,,,,,,,,,,,,,,
296710,2022-12-05_23h10.24.609,vts_reward_expectancy_bt,2022.2.4,Win32,60.86056844,Chrome,1504,1003,,,,,0,567,,,,,,,,,,,,,,,,,W,174,triangle,1,0,,,,,,,,,,,,,,,,switch,letter,lettSwt,f,2.0366,noRew,,,,,,0,50,0,50,0,1,,,,,,,,,,,,,,,,,
296710,2022-12-05_23h10.24.609,vts_reward_expectancy_bt,2022.2.4,Win32,60.86056844,Chrome,1504,1003,,,,,0,567,,,,,,,,,,,,,,,,,Y,146,hexagon,1,0,,,,,,,,,,,,,,,,repeat,letter,lettRpt,f,0.9194,noRew,,,,,,0,51,0,51,0,1,,,,,,,,,,,,,,,,,
296710,2022-12-05_23h10.24.609,vts_reward_expectancy_bt,2022.2.4,Win32,60.86056844,Chrome,1504,1003,,,,,0,567,,,,,,,,,,,,,,,,,H,146,triangle,1,0,,,,,,,,,,,,,,,,switch,number,numSwt,j,2.3836,noRew,,,,,,0,52,0,52,0,1,,,,,,,,,,,,,,,,,
296710,2022-12-05_23h10.24.609,vts_reward_expectancy_bt,2022.2.4,Win32,60.86056844,Chrome,1504,1003,,,,,0,567,,,,,,,,,,,,,,,,,U,125,hexagon,1,0,,,,,,,,,,,,,,,,switch,letter,lettSwt,f,1.6824,noRew,,,,,,0,53,0,53,0,1,,,,,,,,,,,,,,,,,
296710,2022-12-05_23h10.24.609,vts_reward_expectancy_bt,2022.2.4,Win32,60.86056844,Chrome,1504,1003,,,,,0,567,,,,,,,,,,,,,,,,,S,132,triangle,1,0,,,,,,,,,,,,,,,,repeat,letter,lettRpt,f,2.3003,noRew,,,,,,0,54,0,54,0,1,,,,,,,,,,,,,,,,,
296710,2022-12-05_23h10.24.609,vts_reward_expectancy_bt,2022.2.4,Win32,60.86056844,Chrome,1504,1003,,,,,0,567,,,,,,,,,,,,,,,,,F,160,hexagon,1,0,,,,,,,,,,,,,,,,switch,number,numSwt,k,0.8188,noRew,,,,,,0,55,0,55,0,1,,,,,,,,,,,,,,,,,
296710,2022-12-05_23h10.24.609,vts_reward_expectancy_bt,2022.2.4,Win32,60.86056844,Chrome,1504,1003,,,,,0,567,,,,,,,,,,,,,,,,,U,139,star,1,0,,,,,,,,,,,,,,,,repeat,number,numRpt,j,2.0235,noRew,,,,,,0,56,0,56,0,1,,,,,,,,,,,,,,,,,
296710,2022-12-05_23h10.24.609,vts_reward_expectancy_bt,2022.2.4,Win32,60.86056844,Chrome,1504,1003,,,,,0,567,,,,,,,,,,,,,,,,,S,167,circle,1,0,,,,,,,,,,,,,,,,switch,letter,lettSwt,f,1.8013,noRew,,,,,,0,57,0,57,0,1,,,,,,,,,,,,,,,,,
296710,2022-12-05_23h10.24.609,vts_reward_expectancy_bt,2022.2.4,Win32,60.86056844,Chrome,1504,1003,,,,,0,567,,,,,,,,,,,,,,,,,F,181,circle,0,0,,,,,,,,,,,,,,,,repeat,letter,NA,f,1.7358,noRew,,,,,,0,58,0,58,0,1,,,,,,,,,,,,,,,,,
296710,2022-12-05_23h10.24.609,vts_reward_expectancy_bt,2022.2.4,Win32,60.86056844,Chrome,1504,1003,,,,,0,567,,,,,,,,,,,,,,,,,H,146,triangle,1,1,,,,,,,,,,,,,,,,switch,number,numSwt,j,2.8673,noRew,,,,,,0,59,0,59,0,1,,,,,,,,,,,,,,,,,
296710,2022-12-05_23h10.24.609,vts_reward_expectancy_bt,2022.2.4,Win32,60.86056844,Chrome,1504,1003,,,,,0,567,,,,,,,,,,,,,,,,,D,174,star,1,0,,,,,,,,,,,,,,,,repeat,number,numRpt,k,0.7843,noRew,,,,,,0,60,0,60,0,1,,,,,,,,,,,,,,,,,
296710,2022-12-05_23h10.24.609,vts_reward_expectancy_bt,2022.2.4,Win32,60.86056844,Chrome,1504,1003,,,,,0,567,,,,,,,,,,,,,,,,,F,181,circle,1,0,,,,,,,,,,,,,,,,switch,letter,lettSwt,d,1.6008,noRew,,,,,,0,61,0,61,0,1,,,,,,,,,,,,,,,,,
296710,2022-12-05_23h10.24.609,vts_reward_expectancy_bt,2022.2.4,Win32,60.86056844,Chrome,1504,1003,,,,,0,567,,,,,,,,,,,,,,,,,H,146,star,1,0,,,,,,,,,,,,,,,,repeat,letter,lettRpt,d,1.9862,noRew,,,,,,0,62,0,62,0,1,,,,,,,,,,,,,,,,,
296710,2022-12-05_23h10.24.609,vts_reward_expectancy_bt,2022.2.4,Win32,60.86056844,Chrome,1504,1003,,,,,0,567,,,,,,,,,,,,,,,,,B,125,circle,1,0,,,,,,,,,,,,,,,,repeat,letter,lettRpt,d,0.7502,noRew,,,,,,0,63,0,63,0,1,,,,,,,,,,,,,,,,,
296710,2022-12-05_23h10.24.609,vts_reward_expectancy_bt,2022.2.4,Win32,60.86056844,Chrome,1504,1003,,,,,,,,,,,,,,,,,,,,,,,,,,,,,,,,,,,,,,,,,,,,,,,,,,,,,,,,,,,,,,,,,,,,,,,,,,,,
296710,2022-12-05_23h10.24.609,vts_reward_expectancy_bt,2022.2.4,Win32,60.86056844,Chrome,1504,1003,,,,,1,568,,,,,,,,,,,,,,,,,D,160,circle,1,0,,,,,,,,,,,,,,,,repeat,letter,lettRpt,d,0.9261,Lo,,,,,,0,,,,,,space,21.3415,low,0,0,0,0,1,,,,,,,,,
296710,2022-12-05_23h10.24.609,vts_reward_expectancy_bt,2022.2.4,Win32,60.86056844,Chrome,1504,1003,,,,,0,568,,,,,,,,,,,,,,,,,S,146,triangle,1,0,,,,,,,,,,,,,,,,repeat,letter,lettRpt,f,1.0833,Hi,,,,,,0,,,,,,,,low,1,0,1,0,1,,,,,,,,,
296710,2022-12-05_23h10.24.609,vts_reward_expectancy_bt,2022.2.4,Win32,60.86056844,Chrome,1504,1003,,,,,1,569,,,,,,,,,,,,,,,,,Y,125,star,1,0,,,,,,,,,,,,,,,,switch,number,numSwt,j,0.6712,Hi,,,,,,0,,,,,,,,low,2,0,2,0,1,,,,,,,,,
296710,2022-12-05_23h10.24.609,vts_reward_expectancy_bt,2022.2.4,Win32,60.86056844,Chrome,1504,1003,,,,,1,570,,,,,,,,,,,,,,,,,H,167,hexagon,1,0,,,,,,,,,,,,,,,,repeat,number,numRpt,k,0.4185,Lo,,,,,,0,,,,,,,,low,3,0,3,0,1,,,,,,,,,
296710,2022-12-05_23h10.24.609,vts_reward_expectancy_bt,2022.2.4,Win32,60.86056844,Chrome,1504,1003,,,,,1,571,,,,,,,,,,,,,,,,,U,174,circle,1,0,,,,,,,,,,,,,,,,switch,letter,lettSwt,f,0.7703,Lo,,,,,,0,,,,,,,,low,4,0,4,0,1,,,,,,,,,
296710,2022-12-05_23h10.24.609,vts_reward_expectancy_bt,2022.2.4,Win32,60.86056844,Chrome,1504,1003,,,,,1,572,,,,,,,,,,,,,,,,,W,181,triangle,1,0,,,,,,,,,,,,,,,,repeat,letter,lettRpt,f,0.668,Hi,,,,,,0,,,,,,,,low,5,0,5,0,1,,,,,,,,,
296710,2022-12-05_23h10.24.609,vts_reward_expectancy_bt,2022.2.4,Win32,60.86056844,Chrome,1504,1003,,,,,10,582,,,,,,,,,,,,,,,,,F,139,star,1,0,,,,,,,,,,,,,,,,switch,number,numSwt,j,0.8143,Hi,,,,,,0,,,,,,,,low,6,0,6,0,1,,,,,,,,,
296710,2022-12-05_23h10.24.609,vts_reward_expectancy_bt,2022.2.4,Win32,60.86056844,Chrome,1504,1003,,,,,1,583,,,,,,,,,,,,,,,,,B,132,hexagon,1,0,,,,,,,,,,,,,,,,switch,letter,lettSwt,d,0.6527,Lo,,,,,,0,,,,,,,,low,7,0,7,0,1,,,,,,,,,
296710,2022-12-05_23h10.24.609,vts_reward_expectancy_bt,2022.2.4,Win32,60.86056844,Chrome,1504,1003,,,,,1,584,,,,,,,,,,,,,,,,,D,160,hexagon,1,0,,,,,,,,,,,,,,,,switch,number,numSwt,k,0.4071,Lo,,,,,,0,,,,,,,,low,8,0,8,0,1,,,,,,,,,
296710,2022-12-05_23h10.24.609,vts_reward_expectancy_bt,2022.2.4,Win32,60.86056844,Chrome,1504,1003,,,,,0,584,,,,,,,,,,,,,,,,,S,146,triangle,1,0,,,,,,,,,,,,,,,,repeat,number,numRpt,j,1.3499,Hi,,,,,,0,,,,,,,,low,9,0,9,0,1,,,,,,,,,
296710,2022-12-05_23h10.24.609,vts_reward_expectancy_bt,2022.2.4,Win32,60.86056844,Chrome,1504,1003,,,,,10,594,,,,,,,,,,,,,,,,,Y,125,circle,1,0,,,,,,,,,,,,,,,,repeat,number,numRpt,j,0.58,Lo,,,,,,0,,,,,,,,low,10,0,10,0,1,,,,,,,,,
296710,2022-12-05_23h10.24.609,vts_reward_expectancy_bt,2022.2.4,Win32,60.86056844,Chrome,1504,1003,,,,,0,594,,,,,,,,,,,,,,,,,H,167,star,1,0,,,,,,,,,,,,,,,,switch,letter,lettSwt,d,1.0156,Hi,,,,,,0,,,,,,,,low,11,0,11,0,1,,,,,,,,,
296710,2022-12-05_23h10.24.609,vts_reward_expectancy_bt,2022.2.4,Win32,60.86056844,Chrome,1504,1003,,,,,1,595,,,,,,,,,,,,,,,,,U,174,hexagon,1,0,,,,,,,,,,,,,,,,repeat,letter,lettRpt,f,0.5468,Lo,,,,,,0,,,,,,,,low,12,0,12,0,1,,,,,,,,,
296710,2022-12-05_23h10.24.609,vts_reward_expectancy_bt,2022.2.4,Win32,60.86056844,Chrome,1504,1003,,,,,0,595,,,,,,,,,,,,,,,,,W,181,circle,0,0,,,,,,,,,,,,,,,,switch,number,NA,j,0.4991,Lo,,,,,,0,,,,,,,,low,13,0,13,0,1,,,,,,,,,
296710,2022-12-05_23h10.24.609,vts_reward_expectancy_bt,2022.2.4,Win32,60.86056844,Chrome,1504,1003,,,,,1,596,,,,,,,,,,,,,,,,,F,139,star,1,1,,,,,,,,,,,,,,,,repeat,number,numRpt,j,0.7521,Hi,,,,,,0,,,,,,,,low,14,0,14,0,1,,,,,,,,,
296710,2022-12-05_23h10.24.609,vts_reward_expectancy_bt,2022.2.4,Win32,60.86056844,Chrome,1504,1003,,,,,10,606,,,,,,,,,,,,,,,,,B,132,triangle,1,0,,,,,,,,,,,,,,,,switch,letter,lettSwt,d,0.4476,Hi,,,,,,0,,,,,,,,low,15,0,15,0,1,,,,,,,,,
296710,2022-12-05_23h10.24.609,vts_reward_expectancy_bt,2022.2.4,Win32,60.86056844,Chrome,1504,1003,,,,,10,616,,,,,,,,,,,,,,,,,S,146,star,1,0,,,,,,,,,,,,,,,,repeat,letter,lettRpt,f,0.6131,Hi,,,,,,0,,,,,,,,low,16,0,16,0,1,,,,,,,,,
296710,2022-12-05_23h10.24.609,vts_reward_expectancy_bt,2022.2.4,Win32,60.86056844,Chrome,1504,1003,,,,,1,617,,,,,,,,,,,,,,,,,Y,167,triangle,1,0,,,,,,,,,,,,,,,,switch,number,numSwt,k,0.6014,Hi,,,,,,0,,,,,,,,low,17,0,17,0,1,,,,,,,,,
296710,2022-12-05_23h10.24.609,vts_reward_expectancy_bt,2022.2.4,Win32,60.86056844,Chrome,1504,1003,,,,,1,618,,,,,,,,,,,,,,,,,F,132,circle,1,0,,,,,,,,,,,,,,,,repeat,number,numRpt,j,0.612,Lo,,,,,,0,,,,,,,,low,18,0,18,0,1,,,,,,,,,
296710,2022-12-05_23h10.24.609,vts_reward_expectancy_bt,2022.2.4,Win32,60.86056844,Chrome,1504,1003,,,,,10,628,,,,,,,,,,,,,,,,,U,139,hexagon,1,0,,,,,,,,,,,,,,,,switch,letter,lettSwt,f,0.6304,Lo,,,,,,0,,,,,,,,low,19,0,19,0,1,,,,,,,,,
296710,2022-12-05_23h10.24.609,vts_reward_expectancy_bt,2022.2.4,Win32,60.86056844,Chrome,1504,1003,,,,,10,638,,,,,,,,,,,,,,,,,D,125,triangle,1,0,,,,,,,,,,,,,,,,switch,number,numSwt,j,0.53,Hi,,,,,,0,,,,,,,,low,20,0,20,0,1,,,,,,,,,
296710,2022-12-05_23h10.24.609,vts_reward_expectancy_bt,2022.2.4,Win32,60.86056844,Chrome,1504,1003,,,,,10,648,,,,,,,,,,,,,,,,,H,160,circle,1,0,,,,,,,,,,,,,,,,switch,letter,lettSwt,d,0.9853,Lo,,,,,,0,,,,,,,,low,21,0,21,0,1,,,,,,,,,
296710,2022-12-05_23h10.24.609,vts_reward_expectancy_bt,2022.2.4,Win32,60.86056844,Chrome,1504,1003,,,,,1,649,,,,,,,,,,,,,,,,,B,181,hexagon,1,0,,,,,,,,,,,,,,,,repeat,letter,lettRpt,d,0.7862,Lo,,,,,,0,,,,,,,,low,22,0,22,0,1,,,,,,,,,
296710,2022-12-05_23h10.24.609,vts_reward_expectancy_bt,2022.2.4,Win32,60.86056844,Chrome,1504,1003,,,,,1,650,,,,,,,,,,,,,,,,,W,174,star,1,0,,,,,,,,,,,,,,,,switch,number,numSwt,k,0.4512,Hi,,,,,,0,,,,,,,,low,23,0,23,0,1,,,,,,,,,
296710,2022-12-05_23h10.24.609,vts_reward_expectancy_bt,2022.2.4,Win32,60.86056844,Chrome,1504,1003,,,,,0,650,,,,,,,,,,,,,,,,,U,125,star,1,0,,,,,,,,,,,,,,,,switch,letter,lettSwt,f,1.0976,Hi,,,,,,0,,,,,,,,low,24,0,24,0,1,,,,,,,,,
296710,2022-12-05_23h10.24.609,vts_reward_expectancy_bt,2022.2.4,Win32,60.86056844,Chrome,1504,1003,,,,,10,660,,,,,,,,,,,,,,,,,H,132,hexagon,1,0,,,,,,,,,,,,,,,,repeat,letter,lettRpt,d,0.8883,Lo,,,,,,0,,,,,,,,low,25,0,25,0,1,,,,,,,,,
296710,2022-12-05_23h10.24.609,vts_reward_expectancy_bt,2022.2.4,Win32,60.86056844,Chrome,1504,1003,,,,,10,670,,,,,,,,,,,,,,,,,S,139,triangle,1,0,,,,,,,,,,,,,,,,switch,number,numSwt,j,0.5504,Hi,,,,,,0,,,,,,,,low,26,0,26,0,1,,,,,,,,,
296710,2022-12-05_23h10.24.609,vts_reward_expectancy_bt,2022.2.4,Win32,60.86056844,Chrome,1504,1003,,,,,1,671,,,,,,,,,,,,,,,,,B,160,circle,1,0,,,,,,,,,,,,,,,,repeat,number,numRpt,k,0.5142,Lo,,,,,,0,,,,,,,,low,27,0,27,0,1,,,,,,,,,
296710,2022-12-05_23h10.24.609,vts_reward_expectancy_bt,2022.2.4,Win32,60.86056844,Chrome,1504,1003,,,,,10,681,,,,,,,,,,,,,,,,,W,167,circle,1,0,,,,,,,,,,,,,,,,repeat,number,numRpt,k,0.6805,Lo,,,,,,0,,,,,,,,low,28,0,28,0,1,,,,,,,,,
296710,2022-12-05_23h10.24.609,vts_reward_expectancy_bt,2022.2.4,Win32,60.86056844,Chrome,1504,1003,,,,,1,682,,,,,,,,,,,,,,,,,Y,174,star,1,0,,,,,,,,,,,,,,,,switch,letter,lettSwt,f,0.7168,Hi,,,,,,0,,,,,,,,low,29,0,29,0,1,,,,,,,,,
296710,2022-12-05_23h10.24.609,vts_reward_expectancy_bt,2022.2.4,Win32,60.86056844,Chrome,1504,1003,,,,,0,682,,,,,,,,,,,,,,,,,F,146,triangle,1,0,,,,,,,,,,,,,,,,repeat,letter,lettRpt,d,1.1202,Hi,,,,,,0,,,,,,,,low,30,0,30,0,1,,,,,,,,,
296710,2022-12-05_23h10.24.609,vts_reward_expectancy_bt,2022.2.4,Win32,60.86056844,Chrome,1504,1003,,,,,1,683,,,,,,,,,,,,,,,,,D,181,hexagon,1,0,,,,,,,,,,,,,,,,switch,number,numSwt,k,0.6337,Lo,,,,,,0,,,,,,,,low,31,0,31,0,1,,,,,,,,,
296710,2022-12-05_23h10.24.609,vts_reward_expectancy_bt,2022.2.4,Win32,60.86056844,Chrome,1504,1003,,,,,1,684,,,,,,,,,,,,,,,,,U,132,triangle,1,0,,,,,,,,,,,,,,,,switch,letter,lettSwt,f,0.6644,Hi,,,,,,1,,,,,,space,5.7294,low,0,0,0,0,1,,,,,,,,,
296710,2022-12-05_23h10.24.609,vts_reward_expectancy_bt,2022.2.4,Win32,60.86056844,Chrome,1504,1003,,,,,0,684,,,,,,,,,,,,,,,,,F,167,star,0,0,,,,,,,,,,,,,,,,repeat,letter,NA,f,0.7971,Hi,,,,,,1,,,,,,,,low,1,0,1,0,1,,,,,,,,,
296710,2022-12-05_23h10.24.609,vts_reward_expectancy_bt,2022.2.4,Win32,60.86056844,Chrome,1504,1003,,,,,10,694,,,,,,,,,,,,,,,,,W,174,hexagon,1,1,,,,,,,,,,,,,,,,switch,number,numSwt,k,0.4794,Lo,,,,,,1,,,,,,,,low,2,0,2,0,1,,,,,,,,,
296710,2022-12-05_23h10.24.609,vts_reward_expectancy_bt,2022.2.4,Win32,60.86056844,Chrome,1504,1003,,,,,10,704,,,,,,,,,,,,,,,,,Y,125,circle,1,0,,,,,,,,,,,,,,,,repeat,number,numRpt,j,0.5379,Lo,,,,,,1,,,,,,,,low,3,0,3,0,1,,,,,,,,,
296710,2022-12-05_23h10.24.609,vts_reward_expectancy_bt,2022.2.4,Win32,60.86056844,Chrome,1504,1003,,,,,10,714,,,,,,,,,,,,,,,,,S,146,triangle,1,0,,,,,,,,,,,,,,,,switch,letter,lettSwt,f,0.5863,Hi,,,,,,1,,,,,,,,low,4,0,4,0,1,,,,,,,,,
296710,2022-12-05_23h10.24.609,vts_reward_expectancy_bt,2022.2.4,Win32,60.86056844,Chrome,1504,1003,,,,,10,724,,,,,,,,,,,,,,,,,B,139,star,1,0,,,,,,,,,,,,,,,,repeat,letter,lettRpt,d,0.5297,Hi,,,,,,1,,,,,,,,low,5,0,5,0,1,,,,,,,,,
296710,2022-12-05_23h10.24.609,vts_reward_expectancy_bt,2022.2.4,Win32,60.86056844,Chrome,1504,1003,,,,,10,734,,,,,,,,,,,,,,,,,D,181,hexagon,1,0,,,,,,,,,,,,,,,,switch,number,numSwt,k,0.4846,Lo,,,,,,1,,,,,,,,low,6,0,6,0,1,,,,,,,,,
296710,2022-12-05_23h10.24.609,vts_reward_expectancy_bt,2022.2.4,Win32,60.86056844,Chrome,1504,1003,,,,,10,744,,,,,,,,,,,,,,,,,H,160,circle,1,0,,,,,,,,,,,,,,,,switch,letter,lettSwt,d,0.7002,Lo,,,,,,1,,,,,,,,low,7,0,7,0,1,,,,,,,,,
296710,2022-12-05_23h10.24.609,vts_reward_expectancy_bt,2022.2.4,Win32,60.86056844,Chrome,1504,1003,,,,,10,754,,,,,,,,,,,,,,,,,U,132,circle,1,0,,,,,,,,,,,,,,,,repeat,letter,lettRpt,f,0.5807,Lo,,,,,,1,,,,,,,,low,8,0,8,0,1,,,,,,,,,
296710,2022-12-05_23h10.24.609,vts_reward_expectancy_bt,2022.2.4,Win32,60.86056844,Chrome,1504,1003,,,,,0,754,,,,,,,,,,,,,,,,,F,167,triangle,1,0,,,,,,,,,,,,,,,,switch,number,numSwt,k,0.5628,Hi,,,,,,1,,,,,,,,low,9,0,9,0,1,,,,,,,,,
296710,2022-12-05_23h10.24.609,vts_reward_expectancy_bt,2022.2.4,Win32,60.86056844,Chrome,1504,1003,,,,,1,755,,,,,,,,,,,,,,,,,W,174,star,1,0,,,,,,,,,,,,,,,,repeat,number,numRpt,k,0.4157,Hi,,,,,,1,,,,,,,,low,10,0,10,0,1,,,,,,,,,
296710,2022-12-05_23h10.24.609,vts_reward_expectancy_bt,2022.2.4,Win32,60.86056844,Chrome,1504,1003,,,,,1,756,,,,,,,,,,,,,,,,,Y,125,hexagon,1,0,,,,,,,,,,,,,,,,repeat,number,numRpt,j,0.4624,Lo,,,,,,1,,,,,,,,low,11,0,11,0,1,,,,,,,,,
296710,2022-12-05_23h10.24.609,vts_reward_expectancy_bt,2022.2.4,Win32,60.86056844,Chrome,1504,1003,,,,,10,766,,,,,,,,,,,,,,,,,S,146,triangle,1,0,,,,,,,,,,,,,,,,switch,letter,lettSwt,f,0.551,Hi,,,,,,1,,,,,,,,low,12,0,12,0,1,,,,,,,,,
296710,2022-12-05_23h10.24.609,vts_reward_expectancy_bt,2022.2.4,Win32,60.86056844,Chrome,1504,1003,,,,,1,767,,,,,,,,,,,,,,,,,B,139,star,1,0,,,,,,,,,,,,,,,,repeat,letter,lettRpt,d,0.4651,Hi,,,,,,1,,,,,,,,low,13,0,13,0,1,,,,,,,,,
296710,2022-12-05_23h10.24.609,vts_reward_expectancy_bt,2022.2.4,Win32,60.86056844,Chrome,1504,1003,,,,,0,767,,,,,,,,,,,,,,,,,D,181,circle,0,0,,,,,,,,,,,,,,,,repeat,letter,NA,f,0.5631,Hi,,,,,,1,,,,,,,,low,14,0,14,0,1,,,,,,,,,
296710,2022-12-05_23h10.24.609,vts_reward_expectancy_bt,2022.2.4,Win32,60.86056844,Chrome,1504,1003,,,,,1,768,,,,,,,,,,,,,,,,,H,160,hexagon,1,1,,,,,,,,,,,,,,,,repeat,letter,lettRpt,d,1.0316,Lo,,,,,,1,,,,,,,,low,15,0,15,0,1,,,,,,,,,
296710,2022-12-05_23h10.24.609,vts_reward_expectancy_bt,2022.2.4,Win32,60.86056844,Chrome,1504,1003,,,,,10,778,,,,,,,,,,,,,,,,,B,139,hexagon,1,0,,,,,,,,,,,,,,,,switch,number,numSwt,j,0.5304,Lo,,,,,,1,,,,,,,,low,16,0,16,0,1,,,,,,,,,
296710,2022-12-05_23h10.24.609,vts_reward_expectancy_bt,2022.2.4,Win32,60.86056844,Chrome,1504,1003,,,,,10,788,,,,,,,,,,,,,,,,,U,160,star,1,0,,,,,,,,,,,,,,,,repeat,number,numRpt,k,0.3685,Hi,,,,,,1,,,,,,,,low,17,0,17,0,1,,,,,,,,,
296710,2022-12-05_23h10.24.609,vts_reward_expectancy_bt,2022.2.4,Win32,60.86056844,Chrome,1504,1003,,,,,10,798,,,,,,,,,,,,,,,,,W,181,triangle,1,0,,,,,,,,,,,,,,,,repeat,number,numRpt,k,0.5188,Hi,,,,,,1,,,,,,,,low,18,0,18,0,1,,,,,,,,,
296710,2022-12-05_23h10.24.609,vts_reward_expectancy_bt,2022.2.4,Win32,60.86056844,Chrome,1504,1003,,,,,0,798,,,,,,,,,,,,,,,,,F,174,circle,0,0,,,,,,,,,,,,,,,,switch,letter,NA,f,0.5304,Hi,,,,,,1,,,,,,,,low,19,0,19,0,1,,,,,,,,,
296710,2022-12-05_23h10.24.609,vts_reward_expectancy_bt,2022.2.4,Win32,60.86056844,Chrome,1504,1003,,,,,10,808,,,,,,,,,,,,,,,,,S,167,circle,1,1,,,,,,,,,,,,,,,,repeat,letter,lettRpt,f,0.7963,Lo,,,,,,1,,,,,,,,low,20,0,20,0,1,,,,,,,,,
296710,2022-12-05_23h10.24.609,vts_reward_expectancy_bt,2022.2.4,Win32,60.86056844,Chrome,1504,1003,,,,,0,808,,,,,,,,,,,,,,,,,H,132,star,1,0,,,,,,,,,,,,,,,,repeat,letter,lettRpt,d,0.7154,Hi,,,,,,1,,,,,,,,low,21,0,21,0,1,,,,,,,,,
296710,2022-12-05_23h10.24.609,vts_reward_expectancy_bt,2022.2.4,Win32,60.86056844,Chrome,1504,1003,,,,,0,808,,,,,,,,,,,,,,,,,Y,125,triangle,1,0,,,,,,,,,,,,,,,,switch,number,numSwt,j,0.6016,Hi,,,,,,1,,,,,,,,low,22,0,22,0,1,,,,,,,,,
296710,2022-12-05_23h10.24.609,vts_reward_expectancy_bt,2022.2.4,Win32,60.86056844,Chrome,1504,1003,,,,,0,808,,,,,,,,,,,,,,,,,D,146,hexagon,0,0,,,,,,,,,,,,,,,,repeat,number,NA,k,0.9331,Hi,,,,,,1,,,,,,,,low,23,0,23,0,1,,,,,,,,,
296710,2022-12-05_23h10.24.609,vts_reward_expectancy_bt,2022.2.4,Win32,60.86056844,Chrome,1504,1003,,,,,0,808,,,,,,,,,,,,,,,,,B,181,star,1,1,,,,,,,,,,,,,,,,repeat,number,numRpt,k,0.5825,Hi,,,,,,1,,,,,,,,low,24,0,24,0,1,,,,,,,,,
296710,2022-12-05_23h10.24.609,vts_reward_expectancy_bt,2022.2.4,Win32,60.86056844,Chrome,1504,1003,,,,,10,818,,,,,,,,,,,,,,,,,Y,125,hexagon,1,0,,,,,,,,,,,,,,,,switch,letter,lettSwt,f,1.7139,Lo,,,,,,1,,,,,,,,low,25,0,25,0,1,,,,,,,,,
296710,2022-12-05_23h10.24.609,vts_reward_expectancy_bt,2022.2.4,Win32,60.86056844,Chrome,1504,1003,,,,,1,819,,,,,,,,,,,,,,,,,U,160,circle,1,0,,,,,,,,,,,,,,,,repeat,letter,lettRpt,f,0.8214,Lo,,,,,,1,,,,,,,,low,26,0,26,0,1,,,,,,,,,
296710,2022-12-05_23h10.24.609,vts_reward_expectancy_bt,2022.2.4,Win32,60.86056844,Chrome,1504,1003,,,,,0,819,,,,,,,,,,,,,,,,,W,139,triangle,1,0,,,,,,,,,,,,,,,,switch,number,numSwt,j,0.731,Hi,,,,,,1,,,,,,,,low,27,0,27,0,1,,,,,,,,,
296710,2022-12-05_23h10.24.609,vts_reward_expectancy_bt,2022.2.4,Win32,60.86056844,Chrome,1504,1003,,,,,10,829,,,,,,,,,,,,,,,,,H,167,triangle,1,0,,,,,,,,,,,,,,,,repeat,number,numRpt,k,0.3806,Hi,,,,,,1,,,,,,,,low,28,0,28,0,1,,,,,,,,,
296710,2022-12-05_23h10.24.609,vts_reward_expectancy_bt,2022.2.4,Win32,60.86056844,Chrome,1504,1003,,,,,10,839,,,,,,,,,,,,,,,,,S,146,hexagon,1,0,,,,,,,,,,,,,,,,repeat,number,numRpt,j,0.5504,Lo,,,,,,1,,,,,,,,low,29,0,29,0,1,,,,,,,,,
296710,2022-12-05_23h10.24.609,vts_reward_expectancy_bt,2022.2.4,Win32,60.86056844,Chrome,1504,1003,,,,,1,840,,,,,,,,,,,,,,,,,D,132,star,1,0,,,,,,,,,,,,,,,,switch,letter,lettSwt,d,0.6036,Hi,,,,,,1,,,,,,,,low,30,0,30,0,1,,,,,,,,,
296710,2022-12-05_23h10.24.609,vts_reward_expectancy_bt,2022.2.4,Win32,60.86056844,Chrome,1504,1003,,,,,1,841,,,,,,,,,,,,,,,,,F,174,circle,1,0,,,,,,,,,,,,,,,,repeat,letter,lettRpt,d,1.0035,Lo,,,,,,1,,,,,,,,low,31,0,31,0,1,,,,,,,,,
296710,2022-12-05_23h10.24.609,vts_reward_expectancy_bt,2022.2.4,Win32,60.86056844,Chrome,1504,1003,,,,,0,841,,,,,,,,,,,,,,,,,S,132,star,1,0,,,,,,,,,,,,,,,,switch,number,numSwt,j,0.5362,Hi,,,,,,2,,,,,,space,2.3031,low,0,0,0,0,1,,,,,,,,,
296710,2022-12-05_23h10.24.609,vts_reward_expectancy_bt,2022.2.4,Win32,60.86056844,Chrome,1504,1003,,,,,10,851,,,,,,,,,,,,,,,,,B,181,hexagon,1,0,,,,,,,,,,,,,,,,switch,letter,lettSwt,d,0.5069,Lo,,,,,,2,,,,,,,,low,1,0,1,0,1,,,,,,,,,
296710,2022-12-05_23h10.24.609,vts_reward_expectancy_bt,2022.2.4,Win32,60.86056844,Chrome,1504,1003,,,,,10,861,,,,,,,,,,,,,,,,,D,146,triangle,1,0,,,,,,,,,,,,,,,,repeat,letter,lettRpt,d,0.4167,Hi,,,,,,2,,,,,,,,low,2,0,2,0,1,,,,,,,,,
296710,2022-12-05_23h10.24.609,vts_reward_expectancy_bt,2022.2.4,Win32,60.86056844,Chrome,1504,1003,,,,,1,862,,,,,,,,,,,,,,,,,F,174,circle,1,0,,,,,,,,,,,,,,,,switch,number,numSwt,k,0.3843,Lo,,,,,,2,,,,,,,,low,3,0,3,0,1,,,,,,,,,
296710,2022-12-05_23h10.24.609,vts_reward_expectancy_bt,2022.2.4,Win32,60.86056844,Chrome,1504,1003,,,,,0,862,,,,,,,,,,,,,,,,,W,160,star,1,0,,,,,,,,,,,,,,,,repeat,number,numRpt,k,0.488,Hi,,,,,,2,,,,,,,,low,4,0,4,0,1,,,,,,,,,
296710,2022-12-05_23h10.24.609,vts_reward_expectancy_bt,2022.2.4,Win32,60.86056844,Chrome,1504,1003,,,,,0,862,,,,,,,,,,,,,,,,,Y,125,hexagon,0,0,,,,,,,,,,,,,,,,switch,letter,NA,d,0.4541,Hi,,,,,,2,,,,,,,,low,5,0,5,0,1,,,,,,,,,
296710,2022-12-05_23h10.24.609,vts_reward_expectancy_bt,2022.2.4,Win32,60.86056844,Chrome,1504,1003,,,,,0,862,,,,,,,,,,,,,,,,,H,139,triangle,1,1,,,,,,,,,,,,,,,,repeat,letter,lettRpt,d,0.7676,Hi,,,,,,2,,,,,,,,low,6,0,6,0,1,,,,,,,,,
296710,2022-12-05_23h10.24.609,vts_reward_expectancy_bt,2022.2.4,Win32,60.86056844,Chrome,1504,1003,,,,,1,863,,,,,,,,,,,,,,,,,U,167,circle,1,0,,,,,,,,,,,,,,,,switch,number,numSwt,k,0.4215,Lo,,,,,,2,,,,,,,,low,7,0,7,0,1,,,,,,,,,
296710,2022-12-05_23h10.24.609,vts_reward_expectancy_bt,2022.2.4,Win32,60.86056844,Chrome,1504,1003,,,,,10,873,,,,,,,,,,,,,,,,,S,132,star,1,0,,,,,,,,,,,,,,,,repeat,number,numRpt,j,0.3172,Hi,,,,,,2,,,,,,,,low,8,0,8,0,1,,,,,,,,,
296710,2022-12-05_23h10.24.609,vts_reward_expectancy_bt,2022.2.4,Win32,60.86056844,Chrome,1504,1003,,,,,1,874,,,,,,,,,,,,,,,,,B,181,hexagon,1,0,,,,,,,,,,,,,,,,repeat,number,numRpt,k,0.388,Lo,,,,,,2,,,,,,,,low,9,0,9,0,1,,,,,,,,,
296710,2022-12-05_23h10.24.609,vts_reward_expectancy_bt,2022.2.4,Win32,60.86056844,Chrome,1504,1003,,,,,1,875,,,,,,,,,,,,,,,,,D,146,circle,1,0,,,,,,,,,,,,,,,,switch,letter,lettSwt,d,0.2716,Lo,,,,,,2,,,,,,,,low,10,0,10,0,1,,,,,,,,,
296710,2022-12-05_23h10.24.609,vts_reward_expectancy_bt,2022.2.4,Win32,60.86056844,Chrome,1504,1003,,,,,1,876,,,,,,,,,,,,,,,,,F,174,triangle,1,0,,,,,,,,,,,,,,,,repeat,letter,lettRpt,d,0.4224,Hi,,,,,,2,,,,,,,,low,11,0,11,0,1,,,,,,,,,
296710,2022-12-05_23h10.24.609,vts_reward_expectancy_bt,2022.2.4,Win32,60.86056844,Chrome,1504,1003,,,,,10,886,,,,,,,,,,,,,,,,,W,160,star,1,0,,,,,,,,,,,,,,,,switch,number,numSwt,k,0.3026,Hi,,,,,,2,,,,,,,,low,12,0,12,0,1,,,,,,,,,
296710,2022-12-05_23h10.24.609,vts_reward_expectancy_bt,2022.2.4,Win32,60.86056844,Chrome,1504,1003,,,,,1,887,,,,,,,,,,,,,,,,,Y,125,hexagon,1,0,,,,,,,,,,,,,,,,repeat,number,numRpt,j,0.3025,Lo,,,,,,2,,,,,,,,low,13,0,13,0,1,,,,,,,,,
296710,2022-12-05_23h10.24.609,vts_reward_expectancy_bt,2022.2.4,Win32,60.86056844,Chrome,1504,1003,,,,,10,897,,,,,,,,,,,,,,,,,H,139,triangle,1,0,,,,,,,,,,,,,,,,switch,letter,lettSwt,d,0.3099,Hi,,,,,,2,,,,,,,,low,14,0,14,0,1,,,,,,,,,
296710,2022-12-05_23h10.24.609,vts_reward_expectancy_bt,2022.2.4,Win32,60.86056844,Chrome,1504,1003,,,,,1,898,,,,,,,,,,,,,,,,,U,167,circle,1,0,,,,,,,,,,,,,,,,switch,number,numSwt,k,0.2424,Lo,,,,,,2,,,,,,,,low,15,0,15,0,1,,,,,,,,,
296710,2022-12-05_23h10.24.609,vts_reward_expectancy_bt,2022.2.4,Win32,60.86056844,Chrome,1504,1003,,,,,0,898,,,,,,,,,,,,,,,,,W,181,triangle,0,0,,,,,,,,,,,,,,,,switch,letter,NA,d,0.3242,Lo,,,,,,2,,,,,,,,low,16,0,16,0,1,,,,,,,,,
296710,2022-12-05_23h10.24.609,vts_reward_expectancy_bt,2022.2.4,Win32,60.86056844,Chrome,1504,1003,,,,,1,899,,,,,,,,,,,,,,,,,U,167,circle,1,1,,,,,,,,,,,,,,,,repeat,letter,lettRpt,f,0.6002,Lo,,,,,,2,,,,,,,,low,17,0,17,0,1,,,,,,,,,
296710,2022-12-05_23h10.24.609,vts_reward_expectancy_bt,2022.2.4,Win32,60.86056844,Chrome,1504,1003,,,,,10,909,,,,,,,,,,,,,,,,,D,174,star,1,0,,,,,,,,,,,,,,,,repeat,letter,lettRpt,d,0.6054,Hi,,,,,,2,,,,,,,,low,18,0,18,0,1,,,,,,,,,
296710,2022-12-05_23h10.24.609,vts_reward_expectancy_bt,2022.2.4,Win32,60.86056844,Chrome,1504,1003,,,,,10,919,,,,,,,,,,,,,,,,,H,125,hexagon,1,0,,,,,,,,,,,,,,,,repeat,letter,lettRpt,d,0.8513,Lo,,,,,,2,,,,,,,,low,19,0,19,0,1,,,,,,,,,
296710,2022-12-05_23h10.24.609,vts_reward_expectancy_bt,2022.2.4,Win32,60.86056844,Chrome,1504,1003,,,,,0,919,,,,,,,,,,,,,,,,,F,146,triangle,1,0,,,,,,,,,,,,,,,,repeat,letter,lettRpt,d,1.1069,Hi,,,,,,2,,,,,,,,low,20,0,20,0,1,,,,,,,,,
296710,2022-12-05_23h10.24.609,vts_reward_expectancy_bt,2022.2.4,Win32,60.86056844,Chrome,1504,1003,,,,,1,920,,,,,,,,,,,,,,,,,B,139,hexagon,1,0,,,,,,,,,,,,,,,,repeat,letter,lettRpt,d,0.2268,Lo,,,,,,2,,,,,,,,low,21,0,21,0,1,,,,,,,,,
296710,2022-12-05_23h10.24.609,vts_reward_expectancy_bt,2022.2.4,Win32,60.86056844,Chrome,1504,1003,,,,,1,921,,,,,,,,,,,,,,,,,S,132,star,1,0,,,,,,,,,,,,,,,,repeat,letter,lettRpt,f,0.2761,Hi,,,,,,2,,,,,,,,low,22,0,22,0,1,,,,,,,,,
296710,2022-12-05_23h10.24.609,vts_reward_expectancy_bt,2022.2.4,Win32,60.86056844,Chrome,1504,1003,,,,,10,931,,,,,,,,,,,,,,,,,Y,160,circle,1,0,,,,,,,,,,,,,,,,repeat,letter,lettRpt,f,0.918,Lo,,,,,,2,,,,,,,,low,23,0,23,0,1,,,,,,,,,
296710,2022-12-05_23h10.24.609,vts_reward_expectancy_bt,2022.2.4,Win32,60.86056844,Chrome,1504,1003,,,,,1,932,,,,,,,,,,,,,,,,,B,174,circle,1,0,,,,,,,,,,,,,,,,repeat,letter,lettRpt,d,0.7512,Lo,,,,,,2,,,,,,,,low,24,0,24,0,1,,,,,,,,,
296710,2022-12-05_23h10.24.609,vts_reward_expectancy_bt,2022.2.4,Win32,60.86056844,Chrome,1504,1003,,,,,10,942,,,,,,,,,,,,,,,,,F,160,star,1,0,,,,,,,,,,,,,,,,switch,number,numSwt,k,0.3001,Hi,,,,,,2,,,,,,,,low,25,0,25,0,1,,,,,,,,,
296710,2022-12-05_23h10.24.609,vts_reward_expectancy_bt,2022.2.4,Win32,60.86056844,Chrome,1504,1003,,,,,10,952,,,,,,,,,,,,,,,,,D,125,hexagon,1,0,,,,,,,,,,,,,,,,repeat,number,numRpt,j,0.4747,Lo,,,,,,2,,,,,,,,low,26,0,26,0,1,,,,,,,,,
296710,2022-12-05_23h10.24.609,vts_reward_expectancy_bt,2022.2.4,Win32,60.86056844,Chrome,1504,1003,,,,,0,952,,,,,,,,,,,,,,,,,H,146,triangle,0,0,,,,,,,,,,,,,,,,repeat,number,NA,k,0.3506,Lo,,,,,,2,,,,,,,,low,27,0,27,0,1,,,,,,,,,
296710,2022-12-05_23h10.24.609,vts_reward_expectancy_bt,2022.2.4,Win32,60.86056844,Chrome,1504,1003,,,,,0,952,,,,,,,,,,,,,,,,,U,167,triangle,1,1,,,,,,,,,,,,,,,,repeat,number,numRpt,k,0.5838,Hi,,,,,,2,,,,,,,,low,28,0,28,0,1,,,,,,,,,
296710,2022-12-05_23h10.24.609,vts_reward_expectancy_bt,2022.2.4,Win32,60.86056844,Chrome,1504,1003,,,,,1,953,,,,,,,,,,,,,,,,,S,139,hexagon,1,0,,,,,,,,,,,,,,,,repeat,number,numRpt,j,0.8075,Lo,,,,,,2,,,,,,,,low,29,0,29,0,1,,,,,,,,,
296710,2022-12-05_23h10.24.609,vts_reward_expectancy_bt,2022.2.4,Win32,60.86056844,Chrome,1504,1003,,,,,1,954,,,,,,,,,,,,,,,,,W,181,circle,1,0,,,,,,,,,,,,,,,,switch,letter,lettSwt,f,0.8182,Lo,,,,,,2,,,,,,,,low,30,0,30,0,1,,,,,,,,,
296710,2022-12-05_23h10.24.609,vts_reward_expectancy_bt,2022.2.4,Win32,60.86056844,Chrome,1504,1003,,,,,0,954,,,,,,,,,,,,,,,,,Y,132,star,1,0,,,,,,,,,,,,,,,,repeat,letter,lettRpt,f,0.9567,Hi,,,,,,2,,,,,,,,low,31,0,31,0,1,,,,,,,,,
296710,2022-12-05_23h10.24.609,vts_reward_expectancy_bt,2022.2.4,Win32,60.86056844,Chrome,1504,1003,,,,,0,954,,,,,,,,,,,,,,,,,D,160,triangle,1,0,,,,,,,,,,,,,,,,repeat,letter,lettRpt,d,0.6374,Hi,,,,,,3,,,,,,space,0.8656,low,0,0,0,0,1,,,,,,,,,
296710,2022-12-05_23h10.24.609,vts_reward_expectancy_bt,2022.2.4,Win32,60.86056844,Chrome,1504,1003,,,,,1,955,,,,,,,,,,,,,,,,,H,174,star,1,0,,,,,,,,,,,,,,,,switch,number,numSwt,k,0.2832,Hi,,,,,,3,,,,,,,,low,1,0,1,0,1,,,,,,,,,
296710,2022-12-05_23h10.24.609,vts_reward_expectancy_bt,2022.2.4,Win32,60.86056844,Chrome,1504,1003,,,,,10,965,,,,,,,,,,,,,,,,,Y,146,circle,1,0,,,,,,,,,,,,,,,,switch,letter,lettSwt,f,0.5499,Lo,,,,,,3,,,,,,,,low,2,0,2,0,1,,,,,,,,,
296710,2022-12-05_23h10.24.609,vts_reward_expectancy_bt,2022.2.4,Win32,60.86056844,Chrome,1504,1003,,,,,1,966,,,,,,,,,,,,,,,,,B,139,hexagon,1,0,,,,,,,,,,,,,,,,repeat,letter,lettRpt,d,0.5851,Lo,,,,,,3,,,,,,,,low,3,0,3,0,1,,,,,,,,,
296710,2022-12-05_23h10.24.609,vts_reward_expectancy_bt,2022.2.4,Win32,60.86056844,Chrome,1504,1003,,,,,0,966,,,,,,,,,,,,,,,,,F,167,triangle,1,0,,,,,,,,,,,,,,,,switch,number,numSwt,k,0.3903,Hi,,,,,,3,,,,,,,,low,4,0,4,0,1,,,,,,,,,
296710,2022-12-05_23h10.24.609,vts_reward_expectancy_bt,2022.2.4,Win32,60.86056844,Chrome,1504,1003,,,,,0,966,,,,,,,,,,,,,,,,,U,132,star,1,0,,,,,,,,,,,,,,,,repeat,number,numRpt,j,0.7666,Hi,,,,,,3,,,,,,,,low,5,0,5,0,1,,,,,,,,,
296710,2022-12-05_23h10.24.609,vts_reward_expectancy_bt,2022.2.4,Win32,60.86056844,Chrome,1504,1003,,,,,1,967,,,,,,,,,,,,,,,,,S,181,circle,1,0,,,,,,,,,,,,,,,,repeat,number,numRpt,k,0.775,Lo,,,,,,3,,,,,,,,low,6,0,6,0,1,,,,,,,,,
296710,2022-12-05_23h10.24.609,vts_reward_expectancy_bt,2022.2.4,Win32,60.86056844,Chrome,1504,1003,,,,,10,977,,,,,,,,,,,,,,,,,W,125,hexagon,1,0,,,,,,,,,,,,,,,,repeat,number,numRpt,j,0.6927,Lo,,,,,,3,,,,,,,,low,7,0,7,0,1,,,,,,,,,
296710,2022-12-05_23h10.24.609,vts_reward_expectancy_bt,2022.2.4,Win32,60.86056844,Chrome,1504,1003,,,,,10,987,,,,,,,,,,,,,,,,,D,160,triangle,1,0,,,,,,,,,,,,,,,,repeat,number,numRpt,k,0.3687,Hi,,,,,,3,,,,,,,,low,8,0,8,0,1,,,,,,,,,
296710,2022-12-05_23h10.24.609,vts_reward_expectancy_bt,2022.2.4,Win32,60.86056844,Chrome,1504,1003,,,,,0,987,,,,,,,,,,,,,,,,,H,174,circle,0,0,,,,,,,,,,,,,,,,switch,letter,NA,f,0.5008,Hi,,,,,,3,,,,,,,,low,9,0,9,0,1,,,,,,,,,
296710,2022-12-05_23h10.24.609,vts_reward_expectancy_bt,2022.2.4,Win32,60.86056844,Chrome,1504,1003,,,,,0,987,,,,,,,,,,,,,,,,,Y,146,star,1,1,,,,,,,,,,,,,,,,repeat,letter,lettRpt,f,0.6085,Hi,,,,,,3,,,,,,,,low,10,0,10,0,1,,,,,,,,,
296710,2022-12-05_23h10.24.609,vts_reward_expectancy_bt,2022.2.4,Win32,60.86056844,Chrome,1504,1003,,,,,1,988,,,,,,,,,,,,,,,,,B,139,hexagon,1,0,,,,,,,,,,,,,,,,repeat,letter,lettRpt,d,0.7585,Lo,,,,,,3,,,,,,,,low,11,0,11,0,1,,,,,,,,,
296710,2022-12-05_23h10.24.609,vts_reward_expectancy_bt,2022.2.4,Win32,60.86056844,Chrome,1504,1003,,,,,10,998,,,,,,,,,,,,,,,,,F,167,hexagon,1,0,,,,,,,,,,,,,,,,switch,number,numSwt,k,1.3497,Lo,,,,,,3,,,,,,,,low,12,0,12,0,1,,,,,,,,,
296710,2022-12-05_23h10.24.609,vts_reward_expectancy_bt,2022.2.4,Win32,60.86056844,Chrome,1504,1003,,,,,0,998,,,,,,,,,,,,,,,,,U,132,star,1,0,,,,,,,,,,,,,,,,switch,letter,lettSwt,f,0.8713,Hi,,,,,,3,,,,,,,,low,13,0,13,0,1,,,,,,,,,
296710,2022-12-05_23h10.24.609,vts_reward_expectancy_bt,2022.2.4,Win32,60.86056844,Chrome,1504,1003,,,,,0,998,,,,,,,,,,,,,,,,,S,181,triangle,1,0,,,,,,,,,,,,,,,,repeat,letter,lettRpt,f,0.9661,Hi,,,,,,3,,,,,,,,low,14,0,14,0,1,,,,,,,,,
296710,2022-12-05_23h10.24.609,vts_reward_expectancy_bt,2022.2.4,Win32,60.86056844,Chrome,1504,1003,,,,,10,1008,,,,,,,,,,,,,,,,,W,125,circle,1,0,,,,,,,,,,,,,,,,repeat,letter,lettRpt,f,0.9202,Lo,,,,,,3,,,,,,,,low,15,0,15,0,1,,,,,,,,,
296710,2022-12-05_23h10.24.609,vts_reward_expectancy_bt,2022.2.4,Win32,60.86056844,Chrome,1504,1003,,,,,1,1009,,,,,,,,,,,,,,,,,F,160,circle,1,0,,,,,,,,,,,,,,,,switch,number,numSwt,k,0.4941,Lo,,,,,,3,,,,,,,,low,16,0,16,0,1,,,,,,,,,
296710,2022-12-05_23h10.24.609,vts_reward_expectancy_bt,2022.2.4,Win32,60.86056844,Chrome,1504,1003,,,,,10,1019,,,,,,,,,,,,,,,,,S,174,hexagon,1,0,,,,,,,,,,,,,,,,repeat,number,numRpt,k,0.8671,Lo,,,,,,3,,,,,,,,low,17,0,17,0,1,,,,,,,,,
296710,2022-12-05_23h10.24.609,vts_reward_expectancy_bt,2022.2.4,Win32,60.86056844,Chrome,1504,1003,,,,,0,1019,,,,,,,,,,,,,,,,,U,167,triangle,1,0,,,,,,,,,,,,,,,,repeat,number,numRpt,k,0.5437,Hi,,,,,,3,,,,,,,,low,18,0,18,0,1,,,,,,,,,
296710,2022-12-05_23h10.24.609,vts_reward_expectancy_bt,2022.2.4,Win32,60.86056844,Chrome,1504,1003,,,,,0,1019,,,,,,,,,,,,,,,,,Y,132,star,0,0,,,,,,,,,,,,,,,,switch,letter,NA,d,0.7002,Hi,,,,,,3,,,,,,,,low,19,0,19,0,1,,,,,,,,,
296710,2022-12-05_23h10.24.609,vts_reward_expectancy_bt,2022.2.4,Win32,60.86056844,Chrome,1504,1003,,,,,0,1019,,,,,,,,,,,,,,,,,D,146,hexagon,0,1,,,,,,,,,,,,,,,,repeat,letter,NA,f,0.9843,Hi,,,,,,3,,,,,,,,low,20,0,20,0,1,,,,,,,,,
296710,2022-12-05_23h10.24.609,vts_reward_expectancy_bt,2022.2.4,Win32,60.86056844,Chrome,1504,1003,,,,,0,1019,,,,,,,,,,,,,,,,,H,139,triangle,1,1,,,,,,,,,,,,,,,,switch,number,numSwt,j,1.3096,Hi,,,,,,3,,,,,,,,low,21,0,21,0,1,,,,,,,,,
296710,2022-12-05_23h10.24.609,vts_reward_expectancy_bt,2022.2.4,Win32,60.86056844,Chrome,1504,1003,,,,,0,1019,,,,,,,,,,,,,,,,,W,181,circle,0,0,,,,,,,,,,,,,,,,repeat,number,NA,j,0.5342,Hi,,,,,,3,,,,,,,,low,22,0,22,0,1,,,,,,,,,
296710,2022-12-05_23h10.24.609,vts_reward_expectancy_bt,2022.2.4,Win32,60.86056844,Chrome,1504,1003,,,,,0,1019,,,,,,,,,,,,,,,,,B,125,star,1,1,,,,,,,,,,,,,,,,repeat,number,numRpt,j,0.6118,Hi,,,,,,3,,,,,,,,low,23,0,23,0,1,,,,,,,,,
296710,2022-12-05_23h10.24.609,vts_reward_expectancy_bt,2022.2.4,Win32,60.86056844,Chrome,1504,1003,,,,,0,1019,,,,,,,,,,,,,,,,,H,167,star,1,0,,,,,,,,,,,,,,,,repeat,number,numRpt,k,0.6541,Hi,,,,,,3,,,,,,,,low,24,0,24,0,1,,,,,,,,,
296710,2022-12-05_23h10.24.609,vts_reward_expectancy_bt,2022.2.4,Win32,60.86056844,Chrome,1504,1003,,,,,0,1019,,,,,,,,,,,,,,,,,U,139,triangle,1,0,,,,,,,,,,,,,,,,switch,letter,lettSwt,f,0.5947,Hi,,,,,,3,,,,,,,,low,25,0,25,0,1,,,,,,,,,
296710,2022-12-05_23h10.24.609,vts_reward_expectancy_bt,2022.2.4,Win32,60.86056844,Chrome,1504,1003,,,,,1,1020,,,,,,,,,,,,,,,,,Y,146,circle,1,0,,,,,,,,,,,,,,,,repeat,letter,lettRpt,f,0.6155,Lo,,,,,,3,,,,,,,,low,26,0,26,0,1,,,,,,,,,
296710,2022-12-05_23h10.24.609,vts_reward_expectancy_bt,2022.2.4,Win32,60.86056844,Chrome,1504,1003,,,,,0,1020,,,,,,,,,,,,,,,,,F,132,hexagon,0,0,,,,,,,,,,,,,,,,repeat,letter,NA,f,0.6033,Lo,,,,,,3,,,,,,,,low,27,0,27,0,1,,,,,,,,,
296710,2022-12-05_23h10.24.609,vts_reward_expectancy_bt,2022.2.4,Win32,60.86056844,Chrome,1504,1003,,,,,10,1030,,,,,,,,,,,,,,,,,S,160,hexagon,1,1,,,,,,,,,,,,,,,,repeat,letter,lettRpt,f,1.501,Lo,,,,,,3,,,,,,,,low,28,0,28,0,1,,,,,,,,,
296710,2022-12-05_23h10.24.609,vts_reward_expectancy_bt,2022.2.4,Win32,60.86056844,Chrome,1504,1003,,,,,0,1030,,,,,,,,,,,,,,,,,B,174,star,1,0,,,,,,,,,,,,,,,,switch,number,numSwt,k,0.6568,Hi,,,,,,3,,,,,,,,low,29,0,29,0,1,,,,,,,,,
296710,2022-12-05_23h10.24.609,vts_reward_expectancy_bt,2022.2.4,Win32,60.86056844,Chrome,1504,1003,,,,,0,1030,,,,,,,,,,,,,,,,,W,125,triangle,1,0,,,,,,,,,,,,,,,,repeat,number,numRpt,j,0.7168,Hi,,,,,,3,,,,,,,,low,30,0,30,0,1,,,,,,,,,
296710,2022-12-05_23h10.24.609,vts_reward_expectancy_bt,2022.2.4,Win32,60.86056844,Chrome,1504,1003,,,,,1,1031,,,,,,,,,,,,,,,,,D,181,circle,1,0,,,,,,,,,,,,,,,,repeat,number,numRpt,k,1.3069,Lo,,,,,,3,,,,,,,,low,31,0,31,0,1,,,,,,,,,
296710,2022-12-05_23h10.24.609,vts_reward_expectancy_bt,2022.2.4,Win32,60.86056844,Chrome,1504,1003,,,,,0,1031,,,,,,,,,,,,,,,,,F,167,hexagon,0,0,,,,,,,,,,,,,,,,switch,letter,NA,f,0.5746,Lo,,,,,,4,,,,,,space,4.1396,low,0,0,0,0,1,,,,,,,,,
296710,2022-12-05_23h10.24.609,vts_reward_expectancy_bt,2022.2.4,Win32,60.86056844,Chrome,1504,1003,,,,,10,1041,,,,,,,,,,,,,,,,,D,125,circle,1,1,,,,,,,,,,,,,,,,repeat,letter,lettRpt,d,0.6249,Lo,,,,,,4,,,,,,,,low,1,0,1,0,1,,,,,,,,,
296710,2022-12-05_23h10.24.609,vts_reward_expectancy_bt,2022.2.4,Win32,60.86056844,Chrome,1504,1003,,,,,0,1041,,,,,,,,,,,,,,,,,Y,160,star,1,0,,,,,,,,,,,,,,,,repeat,letter,lettRpt,f,0.7225,Hi,,,,,,4,,,,,,,,low,2,0,2,0,1,,,,,,,,,
296710,2022-12-05_23h10.24.609,vts_reward_expectancy_bt,2022.2.4,Win32,60.86056844,Chrome,1504,1003,,,,,0,1041,,,,,,,,,,,,,,,,,W,132,triangle,1,0,,,,,,,,,,,,,,,,repeat,letter,lettRpt,f,0.8326,Hi,,,,,,4,,,,,,,,low,3,0,3,0,1,,,,,,,,,
296710,2022-12-05_23h10.24.609,vts_reward_expectancy_bt,2022.2.4,Win32,60.86056844,Chrome,1504,1003,,,,,1,1042,,,,,,,,,,,,,,,,,B,139,hexagon,1,0,,,,,,,,,,,,,,,,switch,number,numSwt,j,0.7168,Lo,,,,,,4,,,,,,,,low,4,0,4,0,1,,,,,,,,,
296710,2022-12-05_23h10.24.609,vts_reward_expectancy_bt,2022.2.4,Win32,60.86056844,Chrome,1504,1003,,,,,1,1043,,,,,,,,,,,,,,,,,S,181,circle,1,0,,,,,,,,,,,,,,,,repeat,number,numRpt,k,0.3229,Lo,,,,,,4,,,,,,,,low,5,0,5,0,1,,,,,,,,,
296710,2022-12-05_23h10.24.609,vts_reward_expectancy_bt,2022.2.4,Win32,60.86056844,Chrome,1504,1003,,,,,1,1044,,,,,,,,,,,,,,,,,U,146,star,1,0,,,,,,,,,,,,,,,,repeat,number,numRpt,j,0.4394,Hi,,,,,,4,,,,,,,,low,6,0,6,0,1,,,,,,,,,
296710,2022-12-05_23h10.24.609,vts_reward_expectancy_bt,2022.2.4,Win32,60.86056844,Chrome,1504,1003,,,,,1,1045,,,,,,,,,,,,,,,,,H,174,triangle,1,0,,,,,,,,,,,,,,,,repeat,number,numRpt,k,0.3532,Hi,,,,,,4,,,,,,,,low,7,0,7,0,1,,,,,,,,,
296710,2022-12-05_23h10.24.609,vts_reward_expectancy_bt,2022.2.4,Win32,60.86056844,Chrome,1504,1003,,,,,0,1045,,,,,,,,,,,,,,,,,F,167,star,1,0,,,,,,,,,,,,,,,,switch,letter,lettSwt,d,0.5842,Hi,,,,,,4,,,,,,,,low,8,0,8,0,1,,,,,,,,,
296710,2022-12-05_23h10.24.609,vts_reward_expectancy_bt,2022.2.4,Win32,60.86056844,Chrome,1504,1003,,,,,1,1046,,,,,,,,,,,,,,,,,D,125,circle,1,0,,,,,,,,,,,,,,,,repeat,letter,lettRpt,d,0.4751,Lo,,,,,,4,,,,,,,,low,9,0,9,0,1,,,,,,,,,
296710,2022-12-05_23h10.24.609,vts_reward_expectancy_bt,2022.2.4,Win32,60.86056844,Chrome,1504,1003,,,,,0,1046,,,,,,,,,,,,,,,,,Y,160,hexagon,0,0,,,,,,,,,,,,,,,,repeat,letter,NA,d,0.3839,Lo,,,,,,4,,,,,,,,low,10,0,10,0,1,,,,,,,,,
296710,2022-12-05_23h10.24.609,vts_reward_expectancy_bt,2022.2.4,Win32,60.86056844,Chrome,1504,1003,,,,,0,1046,,,,,,,,,,,,,,,,,W,132,triangle,0,1,,,,,,,,,,,,,,,,switch,number,NA,k,0.2887,Lo,,,,,,4,,,,,,,,low,11,0,11,0,1,,,,,,,,,
296710,2022-12-05_23h10.24.609,vts_reward_expectancy_bt,2022.2.4,Win32,60.86056844,Chrome,1504,1003,,,,,0,1046,,,,,,,,,,,,,,,,,B,139,hexagon,0,1,,,,,,,,,,,,,,,,repeat,number,NA,k,0.3173,Lo,,,,,,4,,,,,,,,low,12,0,12,0,1,,,,,,,,,
296710,2022-12-05_23h10.24.609,vts_reward_expectancy_bt,2022.2.4,Win32,60.86056844,Chrome,1504,1003,,,,,10,1056,,,,,,,,,,,,,,,,,S,181,star,1,1,,,,,,,,,,,,,,,,repeat,number,numRpt,k,0.4217,Hi,,,,,,4,,,,,,,,low,13,0,13,0,1,,,,,,,,,
296710,2022-12-05_23h10.24.609,vts_reward_expectancy_bt,2022.2.4,Win32,60.86056844,Chrome,1504,1003,,,,,10,1066,,,,,,,,,,,,,,,,,U,146,triangle,1,0,,,,,,,,,,,,,,,,repeat,number,numRpt,j,0.5839,Hi,,,,,,4,,,,,,,,low,14,0,14,0,1,,,,,,,,,
296710,2022-12-05_23h10.24.609,vts_reward_expectancy_bt,2022.2.4,Win32,60.86056844,Chrome,1504,1003,,,,,10,1076,,,,,,,,,,,,,,,,,H,174,circle,1,0,,,,,,,,,,,,,,,,switch,letter,lettSwt,d,0.2547,Lo,,,,,,4,,,,,,,,low,15,0,15,0,1,,,,,,,,,
296710,2022-12-05_23h10.24.609,vts_reward_expectancy_bt,2022.2.4,Win32,60.86056844,Chrome,1504,1003,,,,,1,1077,,,,,,,,,,,,,,,,,Y,160,circle,1,0,,,,,,,,,,,,,,,,repeat,letter,lettRpt,f,0.5083,Lo,,,,,,4,,,,,,,,low,16,0,16,0,1,,,,,,,,,
296710,2022-12-05_23h10.24.609,vts_reward_expectancy_bt,2022.2.4,Win32,60.86056844,Chrome,1504,1003,,,,,0,1077,,,,,,,,,,,,,,,,,U,146,hexagon,0,0,,,,,,,,,,,,,,,,repeat,letter,NA,d,0.3413,Lo,,,,,,4,,,,,,,,low,17,0,17,0,1,,,,,,,,,
296710,2022-12-05_23h10.24.609,vts_reward_expectancy_bt,2022.2.4,Win32,60.86056844,Chrome,1504,1003,,,,,0,1077,,,,,,,,,,,,,,,,,H,174,triangle,1,1,,,,,,,,,,,,,,,,switch,number,numSwt,k,0.6004,Hi,,,,,,4,,,,,,,,low,18,0,18,0,1,,,,,,,,,
296710,2022-12-05_23h10.24.609,vts_reward_expectancy_bt,2022.2.4,Win32,60.86056844,Chrome,1504,1003,,,,,10,1087,,,,,,,,,,,,,,,,,D,125,star,1,0,,,,,,,,,,,,,,,,repeat,number,numRpt,j,0.6503,Hi,,,,,,4,,,,,,,,low,19,0,19,0,1,,,,,,,,,
296710,2022-12-05_23h10.24.609,vts_reward_expectancy_bt,2022.2.4,Win32,60.86056844,Chrome,1504,1003,,,,,1,1088,,,,,,,,,,,,,,,,,S,167,circle,1,0,,,,,,,,,,,,,,,,repeat,number,numRpt,k,0.4077,Lo,,,,,,4,,,,,,,,low,20,0,20,0,1,,,,,,,,,
296710,2022-12-05_23h10.24.609,vts_reward_expectancy_bt,2022.2.4,Win32,60.86056844,Chrome,1504,1003,,,,,10,1098,,,,,,,,,,,,,,,,,F,139,hexagon,1,0,,,,,,,,,,,,,,,,switch,letter,lettSwt,d,0.5891,Lo,,,,,,4,,,,,,,,low,21,0,21,0,1,,,,,,,,,
296710,2022-12-05_23h10.24.609,vts_reward_expectancy_bt,2022.2.4,Win32,60.86056844,Chrome,1504,1003,,,,,0,1098,,,,,,,,,,,,,,,,,B,132,star,1,0,,,,,,,,,,,,,,,,repeat,letter,lettRpt,d,0.7874,Hi,,,,,,4,,,,,,,,low,22,0,22,0,1,,,,,,,,,
296710,2022-12-05_23h10.24.609,vts_reward_expectancy_bt,2022.2.4,Win32,60.86056844,Chrome,1504,1003,,,,,0,1098,,,,,,,,,,,,,,,,,W,181,triangle,0,0,,,,,,,,,,,,,,,,repeat,letter,NA,d,0.6009,Hi,,,,,,4,,,,,,,,low,23,0,23,0,1,,,,,,,,,
296710,2022-12-05_23h10.24.609,vts_reward_expectancy_bt,2022.2.4,Win32,60.86056844,Chrome,1504,1003,,,,,0,1098,,,,,,,,,,,,,,,,,Y,139,star,0,1,,,,,,,,,,,,,,,,switch,number,NA,k,0.284,Hi,,,,,,4,,,,,,,,low,24,0,24,0,1,,,,,,,,,
296710,2022-12-05_23h10.24.609,vts_reward_expectancy_bt,2022.2.4,Win32,60.86056844,Chrome,1504,1003,,,,,10,1108,,,,,,,,,,,,,,,,,U,181,triangle,1,1,,,,,,,,,,,,,,,,repeat,number,numRpt,k,0.5183,Hi,,,,,,4,,,,,,,,low,25,0,25,0,1,,,,,,,,,
296710,2022-12-05_23h10.24.609,vts_reward_expectancy_bt,2022.2.4,Win32,60.86056844,Chrome,1504,1003,,,,,0,1108,,,,,,,,,,,,,,,,,S,146,hexagon,0,0,,,,,,,,,,,,,,,,switch,letter,NA,d,0.4676,Hi,,,,,,4,,,,,,,,low,26,0,26,0,1,,,,,,,,,
296710,2022-12-05_23h10.24.609,vts_reward_expectancy_bt,2022.2.4,Win32,60.86056844,Chrome,1504,1003,,,,,10,1118,,,,,,,,,,,,,,,,,D,160,circle,1,1,,,,,,,,,,,,,,,,repeat,letter,lettRpt,d,0.319,Lo,,,,,,4,,,,,,,,low,27,0,27,0,1,,,,,,,,,
296710,2022-12-05_23h10.24.609,vts_reward_expectancy_bt,2022.2.4,Win32,60.86056844,Chrome,1504,1003,,,,,1,1119,,,,,,,,,,,,,,,,,H,132,hexagon,1,0,,,,,,,,,,,,,,,,repeat,letter,lettRpt,d,1.0837,Lo,,,,,,4,,,,,,,,low,28,0,28,0,1,,,,,,,,,
296710,2022-12-05_23h10.24.609,vts_reward_expectancy_bt,2022.2.4,Win32,60.86056844,Chrome,1504,1003,,,,,0,1119,,,,,,,,,,,,,,,,,W,167,star,0,0,,,,,,,,,,,,,,,,repeat,letter,NA,d,0.6174,Lo,,,,,,4,,,,,,,,low,29,0,29,0,1,,,,,,,,,
296710,2022-12-05_23h10.24.609,vts_reward_expectancy_bt,2022.2.4,Win32,60.86056844,Chrome,1504,1003,,,,,1,1120,,,,,,,,,,,,,,,,,B,174,circle,1,1,,,,,,,,,,,,,,,,repeat,letter,lettRpt,d,0.5185,Lo,,,,,,4,,,,,,,,low,30,0,30,0,1,,,,,,,,,
296710,2022-12-05_23h10.24.609,vts_reward_expectancy_bt,2022.2.4,Win32,60.86056844,Chrome,1504,1003,,,,,0,1120,,,,,,,,,,,,,,,,,F,125,triangle,1,0,,,,,,,,,,,,,,,,switch,number,numSwt,j,0.5681,Hi,,,,,,4,,,,,,,,low,31,0,31,0,1,,,,,,,,,
296710,2022-12-05_23h10.24.609,vts_reward_expectancy_bt,2022.2.4,Win32,60.86056844,Chrome,1504,1003,,,,,1,1121,,,,,,,,,,,,,,,,,H,174,hexagon,1,0,,,,,,,,,,,,,,,,repeat,number,numRpt,k,0.6708,Lo,,,,,,5,,,,,,space,0.752,low,0,0,0,0,1,,,,,,,,,
296710,2022-12-05_23h10.24.609,vts_reward_expectancy_bt,2022.2.4,Win32,60.86056844,Chrome,1504,1003,,,,,0,1121,,,,,,,,,,,,,,,,,D,125,star,1,0,,,,,,,,,,,,,,,,repeat,number,numRpt,j,0.6189,Hi,,,,,,5,,,,,,,,low,1,0,1,0,1,,,,,,,,,
296710,2022-12-05_23h10.24.609,vts_reward_expectancy_bt,2022.2.4,Win32,60.86056844,Chrome,1504,1003,,,,,1,1122,,,,,,,,,,,,,,,,,W,160,circle,1,0,,,,,,,,,,,,,,,,repeat,number,numRpt,k,0.5184,Lo,,,,,,5,,,,,,,,low,2,0,2,0,1,,,,,,,,,
296710,2022-12-05_23h10.24.609,vts_reward_expectancy_bt,2022.2.4,Win32,60.86056844,Chrome,1504,1003,,,,,0,1122,,,,,,,,,,,,,,,,,U,132,triangle,1,0,,,,,,,,,,,,,,,,switch,letter,lettSwt,f,1.1067,Hi,,,,,,5,,,,,,,,low,3,0,3,0,1,,,,,,,,,
296710,2022-12-05_23h10.24.609,vts_reward_expectancy_bt,2022.2.4,Win32,60.86056844,Chrome,1504,1003,,,,,0,1122,,,,,,,,,,,,,,,,,S,139,hexagon,0,0,,,,,,,,,,,,,,,,repeat,letter,NA,d,0.2869,Hi,,,,,,5,,,,,,,,low,4,0,4,0,1,,,,,,,,,
296710,2022-12-05_23h10.24.609,vts_reward_expectancy_bt,2022.2.4,Win32,60.86056844,Chrome,1504,1003,,,,,1,1123,,,,,,,,,,,,,,,,,Y,181,star,1,1,,,,,,,,,,,,,,,,repeat,letter,lettRpt,f,0.5053,Hi,,,,,,5,,,,,,,,low,5,0,5,0,1,,,,,,,,,
296710,2022-12-05_23h10.24.609,vts_reward_expectancy_bt,2022.2.4,Win32,60.86056844,Chrome,1504,1003,,,,,1,1124,,,,,,,,,,,,,,,,,F,146,circle,1,0,,,,,,,,,,,,,,,,repeat,letter,lettRpt,d,0.3336,Lo,,,,,,5,,,,,,,,low,6,0,6,0,1,,,,,,,,,
296710,2022-12-05_23h10.24.609,vts_reward_expectancy_bt,2022.2.4,Win32,60.86056844,Chrome,1504,1003,,,,,1,1125,,,,,,,,,,,,,,,,,B,167,triangle,1,0,,,,,,,,,,,,,,,,switch,number,numSwt,k,0.3248,Hi,,,,,,5,,,,,,,,low,7,0,7,0,1,,,,,,,,,
296710,2022-12-05_23h10.24.609,vts_reward_expectancy_bt,2022.2.4,Win32,60.86056844,Chrome,1504,1003,,,,,10,1135,,,,,,,,,,,,,,,,,H,174,hexagon,1,0,,,,,,,,,,,,,,,,repeat,number,numRpt,k,0.5004,Lo,,,,,,5,,,,,,,,low,8,0,8,0,1,,,,,,,,,
296710,2022-12-05_23h10.24.609,vts_reward_expectancy_bt,2022.2.4,Win32,60.86056844,Chrome,1504,1003,,,,,1,1136,,,,,,,,,,,,,,,,,D,125,circle,1,0,,,,,,,,,,,,,,,,repeat,number,numRpt,j,0.5706,Lo,,,,,,5,,,,,,,,low,9,0,9,0,1,,,,,,,,,
296710,2022-12-05_23h10.24.609,vts_reward_expectancy_bt,2022.2.4,Win32,60.86056844,Chrome,1504,1003,,,,,0,1136,,,,,,,,,,,,,,,,,W,160,triangle,1,0,,,,,,,,,,,,,,,,repeat,number,numRpt,k,0.5844,Hi,,,,,,5,,,,,,,,low,10,0,10,0,1,,,,,,,,,
296710,2022-12-05_23h10.24.609,vts_reward_expectancy_bt,2022.2.4,Win32,60.86056844,Chrome,1504,1003,,,,,0,1136,,,,,,,,,,,,,,,,,U,132,star,1,0,,,,,,,,,,,,,,,,switch,letter,lettSwt,f,0.7699,Hi,,,,,,5,,,,,,,,low,11,0,11,0,1,,,,,,,,,
296710,2022-12-05_23h10.24.609,vts_reward_expectancy_bt,2022.2.4,Win32,60.86056844,Chrome,1504,1003,,,,,0,1136,,,,,,,,,,,,,,,,,S,139,star,0,0,,,,,,,,,,,,,,,,repeat,letter,NA,d,0.35,Hi,,,,,,5,,,,,,,,low,12,0,12,0,1,,,,,,,,,
296710,2022-12-05_23h10.24.609,vts_reward_expectancy_bt,2022.2.4,Win32,60.86056844,Chrome,1504,1003,,,,,0,1136,,,,,,,,,,,,,,,,,Y,181,triangle,1,1,,,,,,,,,,,,,,,,repeat,letter,lettRpt,f,0.7674,Hi,,,,,,5,,,,,,,,low,13,0,13,0,1,,,,,,,,,
296710,2022-12-05_23h10.24.609,vts_reward_expectancy_bt,2022.2.4,Win32,60.86056844,Chrome,1504,1003,,,,,0,1136,,,,,,,,,,,,,,,,,F,146,circle,0,0,,,,,,,,,,,,,,,,switch,number,NA,k,0.4507,Hi,,,,,,5,,,,,,,,low,14,0,14,0,1,,,,,,,,,
296710,2022-12-05_23h10.24.609,vts_reward_expectancy_bt,2022.2.4,Win32,60.86056844,Chrome,1504,1003,,,,,1,1137,,,,,,,,,,,,,,,,,B,167,hexagon,1,1,,,,,,,,,,,,,,,,repeat,number,numRpt,k,0.4681,Lo,,,,,,5,,,,,,,,low,15,0,15,0,1,,,,,,,,,
296710,2022-12-05_23h10.24.609,vts_reward_expectancy_bt,2022.2.4,Win32,60.86056844,Chrome,1504,1003,,,,,10,1147,,,,,,,,,,,,,,,,,F,160,hexagon,1,0,,,,,,,,,,,,,,,,repeat,number,numRpt,k,0.4277,Lo,,,,,,5,,,,,,,,low,16,0,16,0,1,,,,,,,,,
296710,2022-12-05_23h10.24.609,vts_reward_expectancy_bt,2022.2.4,Win32,60.86056844,Chrome,1504,1003,,,,,1,1148,,,,,,,,,,,,,,,,,D,181,star,1,0,,,,,,,,,,,,,,,,switch,letter,lettSwt,d,0.256,Hi,,,,,,5,,,,,,,,low,17,0,17,0,1,,,,,,,,,
296710,2022-12-05_23h10.24.609,vts_reward_expectancy_bt,2022.2.4,Win32,60.86056844,Chrome,1504,1003,,,,,0,1148,,,,,,,,,,,,,,,,,Y,132,triangle,0,0,,,,,,,,,,,,,,,,repeat,letter,NA,d,0.7168,Hi,,,,,,5,,,,,,,,low,18,0,18,0,1,,,,,,,,,
296710,2022-12-05_23h10.24.609,vts_reward_expectancy_bt,2022.2.4,Win32,60.86056844,Chrome,1504,1003,,,,,1,1149,,,,,,,,,,,,,,,,,W,174,circle,1,1,,,,,,,,,,,,,,,,switch,number,numSwt,k,0.4506,Lo,,,,,,5,,,,,,,,low,19,0,19,0,1,,,,,,,,,
296710,2022-12-05_23h10.24.609,vts_reward_expectancy_bt,2022.2.4,Win32,60.86056844,Chrome,1504,1003,,,,,0,1149,,,,,,,,,,,,,,,,,H,139,triangle,1,0,,,,,,,,,,,,,,,,repeat,number,numRpt,j,0.8767,Hi,,,,,,5,,,,,,,,low,20,0,20,0,1,,,,,,,,,
296710,2022-12-05_23h10.24.609,vts_reward_expectancy_bt,2022.2.4,Win32,60.86056844,Chrome,1504,1003,,,,,10,1159,,,,,,,,,,,,,,,,,U,125,circle,1,0,,,,,,,,,,,,,,,,repeat,number,numRpt,j,0.5887,Lo,,,,,,5,,,,,,,,low,21,0,21,0,1,,,,,,,,,
296710,2022-12-05_23h10.24.609,vts_reward_expectancy_bt,2022.2.4,Win32,60.86056844,Chrome,1504,1003,,,,,10,1169,,,,,,,,,,,,,,,,,B,146,hexagon,1,0,,,,,,,,,,,,,,,,switch,letter,lettSwt,d,0.2662,Lo,,,,,,5,,,,,,,,low,22,0,22,0,1,,,,,,,,,
296710,2022-12-05_23h10.24.609,vts_reward_expectancy_bt,2022.2.4,Win32,60.86056844,Chrome,1504,1003,,,,,0,1169,,,,,,,,,,,,,,,,,S,167,star,1,0,,,,,,,,,,,,,,,,repeat,letter,lettRpt,f,0.9763,Hi,,,,,,5,,,,,,,,low,23,0,23,0,1,,,,,,,,,
296710,2022-12-05_23h10.24.609,vts_reward_expectancy_bt,2022.2.4,Win32,60.86056844,Chrome,1504,1003,,,,,0,1169,,,,,,,,,,,,,,,,,U,181,hexagon,0,0,,,,,,,,,,,,,,,,repeat,letter,NA,d,0.5251,Hi,,,,,,5,,,,,,,,low,24,0,24,0,1,,,,,,,,,
296710,2022-12-05_23h10.24.609,vts_reward_expectancy_bt,2022.2.4,Win32,60.86056844,Chrome,1504,1003,,,,,0,1169,,,,,,,,,,,,,,,,,Y,167,star,0,1,,,,,,,,,,,,,,,,repeat,letter,NA,d,0.3908,Hi,,,,,,5,,,,,,,,low,25,0,25,0,1,,,,,,,,,
296710,2022-12-05_23h10.24.609,vts_reward_expectancy_bt,2022.2.4,Win32,60.86056844,Chrome,1504,1003,,,,,10,1179,,,,,,,,,,,,,,,,,S,139,circle,1,1,,,,,,,,,,,,,,,,repeat,letter,lettRpt,f,0.7338,Lo,,,,,,5,,,,,,,,low,26,0,26,0,1,,,,,,,,,
296710,2022-12-05_23h10.24.609,vts_reward_expectancy_bt,2022.2.4,Win32,60.86056844,Chrome,1504,1003,,,,,10,1189,,,,,,,,,,,,,,,,,W,132,triangle,1,0,,,,,,,,,,,,,,,,switch,number,numSwt,j,0.455,Hi,,,,,,5,,,,,,,,low,27,0,27,0,1,,,,,,,,,
296710,2022-12-05_23h10.24.609,vts_reward_expectancy_bt,2022.2.4,Win32,60.86056844,Chrome,1504,1003,,,,,0,1189,,,,,,,,,,,,,,,,,F,146,triangle,1,0,,,,,,,,,,,,,,,,repeat,number,numRpt,j,0.9202,Hi,,,,,,5,,,,,,,,low,28,0,28,0,1,,,,,,,,,
296710,2022-12-05_23h10.24.609,vts_reward_expectancy_bt,2022.2.4,Win32,60.86056844,Chrome,1504,1003,,,,,10,1199,,,,,,,,,,,,,,,,,D,125,circle,1,0,,,,,,,,,,,,,,,,repeat,number,numRpt,j,0.5733,Lo,,,,,,5,,,,,,,,low,29,0,29,0,1,,,,,,,,,
296710,2022-12-05_23h10.24.609,vts_reward_expectancy_bt,2022.2.4,Win32,60.86056844,Chrome,1504,1003,,,,,10,1209,,,,,,,,,,,,,,,,,H,160,hexagon,1,0,,,,,,,,,,,,,,,,repeat,number,numRpt,k,0.6003,Lo,,,,,,5,,,,,,,,low,30,0,30,0,1,,,,,,,,,
296710,2022-12-05_23h10.24.609,vts_reward_expectancy_bt,2022.2.4,Win32,60.86056844,Chrome,1504,1003,,,,,0,1209,,,,,,,,,,,,,,,,,B,174,star,1,0,,,,,,,,,,,,,,,,switch,letter,lettSwt,d,0.5344,Hi,,,,,,5,,,,,,,,low,31,0,31,0,1,,,,,,,,,
296710,2022-12-05_23h10.24.609,vts_reward_expectancy_bt,2022.2.4,Win32,60.86056844,Chrome,1504,1003,,,,,1,1210,,,,,,,,,,,,,,,,,B,132,circle,1,0,,,,,,,,,,,,,,,,repeat,letter,lettRpt,d,0.6338,Lo,,,,,,6,,,,,,space,1.6564,low,0,0,0,0,1,,,,,,,,,
296710,2022-12-05_23h10.24.609,vts_reward_expectancy_bt,2022.2.4,Win32,60.86056844,Chrome,1504,1003,,,,,0,1210,,,,,,,,,,,,,,,,,Y,146,triangle,0,0,,,,,,,,,,,,,,,,switch,number,NA,k,0.3019,Lo,,,,,,6,,,,,,,,low,1,0,1,0,1,,,,,,,,,
296710,2022-12-05_23h10.24.609,vts_reward_expectancy_bt,2022.2.4,Win32,60.86056844,Chrome,1504,1003,,,,,1,1211,,,,,,,,,,,,,,,,,S,167,hexagon,1,1,,,,,,,,,,,,,,,,repeat,number,numRpt,k,0.5004,Lo,,,,,,6,,,,,,,,low,2,0,2,0,1,,,,,,,,,
296710,2022-12-05_23h10.24.609,vts_reward_expectancy_bt,2022.2.4,Win32,60.86056844,Chrome,1504,1003,,,,,0,1211,,,,,,,,,,,,,,,,,U,174,star,0,0,,,,,,,,,,,,,,,,switch,letter,NA,d,0.2673,Lo,,,,,,6,,,,,,,,low,3,0,3,0,1,,,,,,,,,
296710,2022-12-05_23h10.24.609,vts_reward_expectancy_bt,2022.2.4,Win32,60.86056844,Chrome,1504,1003,,,,,0,1211,,,,,,,,,,,,,,,,,D,181,circle,0,1,,,,,,,,,,,,,,,,repeat,letter,NA,f,0.4862,Lo,,,,,,6,,,,,,,,low,4,0,4,0,1,,,,,,,,,
296710,2022-12-05_23h10.24.609,vts_reward_expectancy_bt,2022.2.4,Win32,60.86056844,Chrome,1504,1003,,,,,10,1221,,,,,,,,,,,,,,,,,F,125,triangle,1,1,,,,,,,,,,,,,,,,repeat,letter,lettRpt,d,0.3166,Hi,,,,,,6,,,,,,,,low,5,0,5,0,1,,,,,,,,,
296710,2022-12-05_23h10.24.609,vts_reward_expectancy_bt,2022.2.4,Win32,60.86056844,Chrome,1504,1003,,,,,0,1221,,,,,,,,,,,,,,,,,H,139,hexagon,0,0,,,,,,,,,,,,,,,,switch,number,NA,k,0.0566,Hi,,,,,,6,,,,,,,,low,6,0,6,0,1,,,,,,,,,
296710,2022-12-05_23h10.24.609,vts_reward_expectancy_bt,2022.2.4,Win32,60.86056844,Chrome,1504,1003,,,,,1,1222,,,,,,,,,,,,,,,,,W,160,star,1,1,,,,,,,,,,,,,,,,repeat,number,numRpt,k,0.2574,Hi,,,,,,6,,,,,,,,low,7,0,7,0,1,,,,,,,,,
296710,2022-12-05_23h10.24.609,vts_reward_expectancy_bt,2022.2.4,Win32,60.86056844,Chrome,1504,1003,,,,,0,1222,,,,,,,,,,,,,,,,,B,132,circle,0,0,,,,,,,,,,,,,,,,repeat,number,NA,k,0.3836,Hi,,,,,,6,,,,,,,,low,8,0,8,0,1,,,,,,,,,
296710,2022-12-05_23h10.24.609,vts_reward_expectancy_bt,2022.2.4,Win32,60.86056844,Chrome,1504,1003,,,,,0,1222,,,,,,,,,,,,,,,,,Y,146,triangle,0,1,,,,,,,,,,,,,,,,switch,letter,NA,d,0.4168,Hi,,,,,,6,,,,,,,,low,9,0,9,0,1,,,,,,,,,
296710,2022-12-05_23h10.24.609,vts_reward_expectancy_bt,2022.2.4,Win32,60.86056844,Chrome,1504,1003,,,,,0,1222,,,,,,,,,,,,,,,,,S,167,hexagon,0,1,,,,,,,,,,,,,,,,repeat,letter,NA,d,0.3841,Hi,,,,,,6,,,,,,,,low,10,0,10,0,1,,,,,,,,,
296710,2022-12-05_23h10.24.609,vts_reward_expectancy_bt,2022.2.4,Win32,60.86056844,Chrome,1504,1003,,,,,0,1222,,,,,,,,,,,,,,,,,U,174,star,1,1,,,,,,,,,,,,,,,,switch,number,numSwt,k,0.9007,Hi,,,,,,6,,,,,,,,low,11,0,11,0,1,,,,,,,,,
296710,2022-12-05_23h10.24.609,vts_reward_expectancy_bt,2022.2.4,Win32,60.86056844,Chrome,1504,1003,,,,,10,1232,,,,,,,,,,,,,,,,,D,181,triangle,1,0,,,,,,,,,,,,,,,,repeat,number,numRpt,k,0.2895,Hi,,,,,,6,,,,,,,,low,12,0,12,0,1,,,,,,,,,
296710,2022-12-05_23h10.24.609,vts_reward_expectancy_bt,2022.2.4,Win32,60.86056844,Chrome,1504,1003,,,,,0,1232,,,,,,,,,,,,,,,,,F,125,circle,0,0,,,,,,,,,,,,,,,,repeat,number,NA,k,0.4166,Hi,,,,,,6,,,,,,,,low,13,0,13,0,1,,,,,,,,,
296710,2022-12-05_23h10.24.609,vts_reward_expectancy_bt,2022.2.4,Win32,60.86056844,Chrome,1504,1003,,,,,10,1242,,,,,,,,,,,,,,,,,H,139,star,1,1,,,,,,,,,,,,,,,,repeat,number,numRpt,j,0.4836,Hi,,,,,,6,,,,,,,,low,14,0,14,0,1,,,,,,,,,
