participant,date,expName,psychopyVersion,OS,frameRate,browser,xResolution,yResolution,key_resp.keys,key_resp.rt,training_resp.keys,training_resp.rt,points_trial,points_cumul,trainBlock,training.thisRepN,training.thisTrialN,training.thisN,training.thisIndex,training.ran,LTriangleOpac,LCircleOpac,LHexagonOpac,LStarOpac,RTriangleOpac,RCircleOpac,RHexagonOpac,RStarOpac,LShape_ID,RShape_ID,curr_topStim,curr_bottStim,curr_shape,acc,E1,target_resp_prac1.keys,target_resp_prac1.rt,pracBlock,task1_prac_trials.thisRepN,task1_prac_trials.thisTrialN,task1_prac_trials.thisN,task1_prac_trials.thisIndex,task1_prac_trials.ran,target_resp_prac2.keys,target_resp_prac2.rt,task2_praac_trials.thisRepN,task2_praac_trials.thisTrialN,task2_praac_trials.thisN,task2_praac_trials.thisIndex,task2_praac_trials.ran,alt,task,condition,target_resp.keys,target_resp.rt,rewCond,vts_practice_trials.thisRepN,vts_practice_trials.thisTrialN,vts_practice_trials.thisN,vts_practice_trials.thisIndex,vts_practice_trials.ran,blockNum,trials_norew.thisRepN,trials_norew.thisTrialN,trials_norew.thisN,trials_norew.thisIndex,trials_norew.ran,key_resp_2.keys,key_resp_2.rt,rewExpectancy,trials_rew.thisRepN,trials_rew.thisTrialN,trials_rew.thisN,trials_rew.thisIndex,trials_rew.ran,Q1,Q2,Q2_text,Q3,Q4,Q5_text,Q5,xRes,yRes
296845,2022-11-27_23h13.57.362,vts_reward_expectancy_bt,2022.2.4,MacIntel,83.33333333,Safari,1440,900,,,,,,,,,,,,,,,,,,,,,,,,,,,,,,,,,,,,,,,,,,,,,,,,,,,,,,,,,,,,,,,,,,,,,,,,,,,,
296845,2022-11-27_23h13.57.362,vts_reward_expectancy_bt,2022.2.4,MacIntel,83.33333333,Safari,1440,900,space,12.345,,,,,,,,,,,,,,,,,,,,,,,,,,,,,,,,,,,,,,,,,,,,,,,,,,,,,,,,,,,,,,,,,,,,,,,,,,
296845,2022-11-27_23h13.57.362,vts_reward_expectancy_bt,2022.2.4,MacIntel,83.33333333,Safari,1440,900,,,,,,,,,,,,,,,,,,,,,,,,,,,,,,,,,,,,,,,,,,,,,,,,,,,,,,,,,,,,,,,,,,,,,,,,,,,,
296845,2022-11-27_23h13.57.362,vts_reward_expectancy_bt,2022.2.4,MacIntel,83.33333333,Safari,1440,900,,,a,1.669,1,1,0,0,0,0,5,1,0,1,0,0,0,0,0,1,circle,star,,,,,,,,,,,,,,,,,,,,,,,,,,,,,,,,,,,,,,,,,,,,,,,,,,,,,,
296845,2022-11-27_23h13.57.362,vts_reward_expectancy_bt,2022.2.4,MacIntel,83.33333333,Safari,1440,900,,,a,4.928,10,11,0,0,1,1,1,1,1,0,0,0,0,0,1,0,triangle,hexagon,,,,,,,,,,,,,,,,,,,,,,,,,,,,,,,,,,,,,,,,,,,,,,,,,,,,,,
296845,2022-11-27_23h13.57.362,vts_reward_expectancy_bt,2022.2.4,MacIntel,83.33333333,Safari,1440,900,,,a,1.167,10,21,0,0,2,2,2,1,1,0,0,0,0,0,0,1,triangle,star,,,,,,,,,,,,,,,,,,,,,,,,,,,,,,,,,,,,,,,,,,,,,,,,,,,,,,
296845,2022-11-27_23h13.57.362,vts_reward_expectancy_bt,2022.2.4,MacIntel,83.33333333,Safari,1440,900,,,l,0.799,10,31,0,0,3,3,11,1,0,0,0,1,0,0,1,0,star,hexagon,,,,,,,,,,,,,,,,,,,,,,,,,,,,,,,,,,,,,,,,,,,,,,,,,,,,,,
296845,2022-11-27_23h13.57.362,vts_reward_expectancy_bt,2022.2.4,MacIntel,83.33333333,Safari,1440,900,,,a,0.718,10,41,0,0,4,4,9,1,0,0,0,1,1,0,0,0,star,triangle,,,,,,,,,,,,,,,,,,,,,,,,,,,,,,,,,,,,,,,,,,,,,,,,,,,,,,
296845,2022-11-27_23h13.57.362,vts_reward_expectancy_bt,2022.2.4,MacIntel,83.33333333,Safari,1440,900,,,a,0.931,1,42,0,0,5,5,3,1,0,1,0,0,1,0,0,0,circle,triangle,,,,,,,,,,,,,,,,,,,,,,,,,,,,,,,,,,,,,,,,,,,,,,,,,,,,,,
296845,2022-11-27_23h13.57.362,vts_reward_expectancy_bt,2022.2.4,MacIntel,83.33333333,Safari,1440,900,,,a,0.866,10,52,0,0,6,6,6,1,0,0,1,0,1,0,0,0,hexagon,triangle,,,,,,,,,,,,,,,,,,,,,,,,,,,,,,,,,,,,,,,,,,,,,,,,,,,,,,
296845,2022-11-27_23h13.57.362,vts_reward_expectancy_bt,2022.2.4,MacIntel,83.33333333,Safari,1440,900,,,l,0.977,1,53,0,0,7,7,0,1,1,0,0,0,0,1,0,0,triangle,circle,,,,,,,,,,,,,,,,,,,,,,,,,,,,,,,,,,,,,,,,,,,,,,,,,,,,,,
296845,2022-11-27_23h13.57.362,vts_reward_expectancy_bt,2022.2.4,MacIntel,83.33333333,Safari,1440,900,,,l,1.214,10,63,0,0,8,8,8,1,0,0,1,0,0,0,0,1,hexagon,star,,,,,,,,,,,,,,,,,,,,,,,,,,,,,,,,,,,,,,,,,,,,,,,,,,,,,,
296845,2022-11-27_23h13.57.362,vts_reward_expectancy_bt,2022.2.4,MacIntel,83.33333333,Safari,1440,900,,,a,2.322,1,64,0,0,9,9,4,1,0,1,0,0,0,0,1,0,circle,hexagon,,,,,,,,,,,,,,,,,,,,,,,,,,,,,,,,,,,,,,,,,,,,,,,,,,,,,,
296845,2022-11-27_23h13.57.362,vts_reward_expectancy_bt,2022.2.4,MacIntel,83.33333333,Safari,1440,900,,,l,2.118,1,65,0,0,10,10,10,1,0,0,0,1,0,1,0,0,star ,circle,,,,,,,,,,,,,,,,,,,,,,,,,,,,,,,,,,,,,,,,,,,,,,,,,,,,,,
296845,2022-11-27_23h13.57.362,vts_reward_expectancy_bt,2022.2.4,MacIntel,83.33333333,Safari,1440,900,,,a,2.149,10,75,0,0,11,11,7,1,0,0,1,0,0,1,0,0,hexagon,circle,,,,,,,,,,,,,,,,,,,,,,,,,,,,,,,,,,,,,,,,,,,,,,,,,,,,,,
296845,2022-11-27_23h13.57.362,vts_reward_expectancy_bt,2022.2.4,MacIntel,83.33333333,Safari,1440,900,,,a,2.31,1,76,0,1,0,12,4,1,0,1,0,0,0,0,1,0,circle,hexagon,,,,,,,,,,,,,,,,,,,,,,,,,,,,,,,,,,,,,,,,,,,,,,,,,,,,,,
296845,2022-11-27_23h13.57.362,vts_reward_expectancy_bt,2022.2.4,MacIntel,83.33333333,Safari,1440,900,,,a,1.116,10,86,0,1,1,13,1,1,1,0,0,0,0,0,1,0,triangle,hexagon,,,,,,,,,,,,,,,,,,,,,,,,,,,,,,,,,,,,,,,,,,,,,,,,,,,,,,
296845,2022-11-27_23h13.57.362,vts_reward_expectancy_bt,2022.2.4,MacIntel,83.33333333,Safari,1440,900,,,l,1.064,10,96,0,1,2,14,11,1,0,0,0,1,0,0,1,0,star,hexagon,,,,,,,,,,,,,,,,,,,,,,,,,,,,,,,,,,,,,,,,,,,,,,,,,,,,,,
296845,2022-11-27_23h13.57.362,vts_reward_expectancy_bt,2022.2.4,MacIntel,83.33333333,Safari,1440,900,,,l,2.25,10,106,0,1,3,15,5,1,0,1,0,0,0,0,0,1,circle,star,,,,,,,,,,,,,,,,,,,,,,,,,,,,,,,,,,,,,,,,,,,,,,,,,,,,,,
296845,2022-11-27_23h13.57.362,vts_reward_expectancy_bt,2022.2.4,MacIntel,83.33333333,Safari,1440,900,,,a,0.967,10,116,0,1,4,16,0,1,1,0,0,0,0,1,0,0,triangle,circle,,,,,,,,,,,,,,,,,,,,,,,,,,,,,,,,,,,,,,,,,,,,,,,,,,,,,,
296845,2022-11-27_23h13.57.362,vts_reward_expectancy_bt,2022.2.4,MacIntel,83.33333333,Safari,1440,900,,,l,1.954,1,117,0,1,5,17,10,1,0,0,0,1,0,1,0,0,star ,circle,,,,,,,,,,,,,,,,,,,,,,,,,,,,,,,,,,,,,,,,,,,,,,,,,,,,,,
296845,2022-11-27_23h13.57.362,vts_reward_expectancy_bt,2022.2.4,MacIntel,83.33333333,Safari,1440,900,,,l,0.75,1,118,0,1,6,18,8,1,0,0,1,0,0,0,0,1,hexagon,star,,,,,,,,,,,,,,,,,,,,,,,,,,,,,,,,,,,,,,,,,,,,,,,,,,,,,,
296845,2022-11-27_23h13.57.362,vts_reward_expectancy_bt,2022.2.4,MacIntel,83.33333333,Safari,1440,900,,,l,1.012,10,128,0,1,7,19,9,1,0,0,0,1,1,0,0,0,star,triangle,,,,,,,,,,,,,,,,,,,,,,,,,,,,,,,,,,,,,,,,,,,,,,,,,,,,,,
296845,2022-11-27_23h13.57.362,vts_reward_expectancy_bt,2022.2.4,MacIntel,83.33333333,Safari,1440,900,,,a,0.783,1,129,0,1,8,20,2,1,1,0,0,0,0,0,0,1,triangle,star,,,,,,,,,,,,,,,,,,,,,,,,,,,,,,,,,,,,,,,,,,,,,,,,,,,,,,
296845,2022-11-27_23h13.57.362,vts_reward_expectancy_bt,2022.2.4,MacIntel,83.33333333,Safari,1440,900,,,l,0.782,10,139,0,1,9,21,3,1,0,1,0,0,1,0,0,0,circle,triangle,,,,,,,,,,,,,,,,,,,,,,,,,,,,,,,,,,,,,,,,,,,,,,,,,,,,,,
296845,2022-11-27_23h13.57.362,vts_reward_expectancy_bt,2022.2.4,MacIntel,83.33333333,Safari,1440,900,,,l,3.332,1,140,0,1,10,22,7,1,0,0,1,0,0,1,0,0,hexagon,circle,,,,,,,,,,,,,,,,,,,,,,,,,,,,,,,,,,,,,,,,,,,,,,,,,,,,,,
296845,2022-11-27_23h13.57.362,vts_reward_expectancy_bt,2022.2.4,MacIntel,83.33333333,Safari,1440,900,,,a,0.967,10,150,0,1,11,23,6,1,0,0,1,0,1,0,0,0,hexagon,triangle,,,,,,,,,,,,,,,,,,,,,,,,,,,,,,,,,,,,,,,,,,,,,,,,,,,,,,
296845,2022-11-27_23h13.57.362,vts_reward_expectancy_bt,2022.2.4,MacIntel,83.33333333,Safari,1440,900,,,a,1.135,10,160,0,2,0,24,5,1,0,1,0,0,0,0,0,1,circle,star,,,,,,,,,,,,,,,,,,,,,,,,,,,,,,,,,,,,,,,,,,,,,,,,,,,,,,
296845,2022-11-27_23h13.57.362,vts_reward_expectancy_bt,2022.2.4,MacIntel,83.33333333,Safari,1440,900,,,a,1.007,10,170,0,2,1,25,6,1,0,0,1,0,1,0,0,0,hexagon,triangle,,,,,,,,,,,,,,,,,,,,,,,,,,,,,,,,,,,,,,,,,,,,,,,,,,,,,,
296845,2022-11-27_23h13.57.362,vts_reward_expectancy_bt,2022.2.4,MacIntel,83.33333333,Safari,1440,900,,,a,1.05,1,171,0,2,2,26,3,1,0,1,0,0,1,0,0,0,circle,triangle,,,,,,,,,,,,,,,,,,,,,,,,,,,,,,,,,,,,,,,,,,,,,,,,,,,,,,
296845,2022-11-27_23h13.57.362,vts_reward_expectancy_bt,2022.2.4,MacIntel,83.33333333,Safari,1440,900,,,a,0.847,10,181,0,2,3,27,2,1,1,0,0,0,0,0,0,1,triangle,star,,,,,,,,,,,,,,,,,,,,,,,,,,,,,,,,,,,,,,,,,,,,,,,,,,,,,,
296845,2022-11-27_23h13.57.362,vts_reward_expectancy_bt,2022.2.4,MacIntel,83.33333333,Safari,1440,900,,,a,0.882,10,191,0,2,4,28,1,1,1,0,0,0,0,0,1,0,triangle,hexagon,,,,,,,,,,,,,,,,,,,,,,,,,,,,,,,,,,,,,,,,,,,,,,,,,,,,,,
296845,2022-11-27_23h13.57.362,vts_reward_expectancy_bt,2022.2.4,MacIntel,83.33333333,Safari,1440,900,,,l,0.768,1,192,0,2,5,29,11,1,0,0,0,1,0,0,1,0,star,hexagon,,,,,,,,,,,,,,,,,,,,,,,,,,,,,,,,,,,,,,,,,,,,,,,,,,,,,,
296845,2022-11-27_23h13.57.362,vts_reward_expectancy_bt,2022.2.4,MacIntel,83.33333333,Safari,1440,900,,,l,0.613,10,202,0,2,6,30,4,1,0,1,0,0,0,0,1,0,circle,hexagon,,,,,,,,,,,,,,,,,,,,,,,,,,,,,,,,,,,,,,,,,,,,,,,,,,,,,,
296845,2022-11-27_23h13.57.362,vts_reward_expectancy_bt,2022.2.4,MacIntel,83.33333333,Safari,1440,900,,,a,0.752,1,203,0,2,7,31,0,1,1,0,0,0,0,1,0,0,triangle,circle,,,,,,,,,,,,,,,,,,,,,,,,,,,,,,,,,,,,,,,,,,,,,,,,,,,,,,
296845,2022-11-27_23h13.57.362,vts_reward_expectancy_bt,2022.2.4,MacIntel,83.33333333,Safari,1440,900,,,a,0.633,1,204,0,2,8,32,8,1,0,0,1,0,0,0,0,1,hexagon,star,,,,,,,,,,,,,,,,,,,,,,,,,,,,,,,,,,,,,,,,,,,,,,,,,,,,,,
296845,2022-11-27_23h13.57.362,vts_reward_expectancy_bt,2022.2.4,MacIntel,83.33333333,Safari,1440,900,,,a,0.701,10,214,0,2,9,33,7,1,0,0,1,0,0,1,0,0,hexagon,circle,,,,,,,,,,,,,,,,,,,,,,,,,,,,,,,,,,,,,,,,,,,,,,,,,,,,,,
296845,2022-11-27_23h13.57.362,vts_reward_expectancy_bt,2022.2.4,MacIntel,83.33333333,Safari,1440,900,,,l,0.52,10,224,0,2,10,34,10,1,0,0,0,1,0,1,0,0,star ,circle,,,,,,,,,,,,,,,,,,,,,,,,,,,,,,,,,,,,,,,,,,,,,,,,,,,,,,
296845,2022-11-27_23h13.57.362,vts_reward_expectancy_bt,2022.2.4,MacIntel,83.33333333,Safari,1440,900,,,l,0.57,10,234,0,2,11,35,9,1,0,0,0,1,1,0,0,0,star,triangle,,,,,,,,,,,,,,,,,,,,,,,,,,,,,,,,,,,,,,,,,,,,,,,,,,,,,,
296845,2022-11-27_23h13.57.362,vts_reward_expectancy_bt,2022.2.4,MacIntel,83.33333333,Safari,1440,900,,,l,1.001,1,235,1,0,0,0,7,1,0,0,1,0,0,1,0,0,hexagon,circle,,,,,,,,,,,,,,,,,,,,,,,,,,,,,,,,,,,,,,,,,,,,,,,,,,,,,,
296845,2022-11-27_23h13.57.362,vts_reward_expectancy_bt,2022.2.4,MacIntel,83.33333333,Safari,1440,900,,,a,0.528,1,236,1,0,1,1,11,1,0,0,0,1,0,0,1,0,star,hexagon,,,,,,,,,,,,,,,,,,,,,,,,,,,,,,,,,,,,,,,,,,,,,,,,,,,,,,
296845,2022-11-27_23h13.57.362,vts_reward_expectancy_bt,2022.2.4,MacIntel,83.33333333,Safari,1440,900,,,a,0.599,10,246,1,0,2,2,2,1,1,0,0,0,0,0,0,1,triangle,star,,,,,,,,,,,,,,,,,,,,,,,,,,,,,,,,,,,,,,,,,,,,,,,,,,,,,,
296845,2022-11-27_23h13.57.362,vts_reward_expectancy_bt,2022.2.4,MacIntel,83.33333333,Safari,1440,900,,,l,0.78,1,247,1,0,3,3,10,1,0,0,0,1,0,1,0,0,star ,circle,,,,,,,,,,,,,,,,,,,,,,,,,,,,,,,,,,,,,,,,,,,,,,,,,,,,,,
296845,2022-11-27_23h13.57.362,vts_reward_expectancy_bt,2022.2.4,MacIntel,83.33333333,Safari,1440,900,,,a,0.485,1,248,1,0,4,4,5,1,0,1,0,0,0,0,0,1,circle,star,,,,,,,,,,,,,,,,,,,,,,,,,,,,,,,,,,,,,,,,,,,,,,,,,,,,,,
296845,2022-11-27_23h13.57.362,vts_reward_expectancy_bt,2022.2.4,MacIntel,83.33333333,Safari,1440,900,,,a,0.781,1,249,1,0,5,5,4,1,0,1,0,0,0,0,1,0,circle,hexagon,,,,,,,,,,,,,,,,,,,,,,,,,,,,,,,,,,,,,,,,,,,,,,,,,,,,,,
296845,2022-11-27_23h13.57.362,vts_reward_expectancy_bt,2022.2.4,MacIntel,83.33333333,Safari,1440,900,,,l,1.51,1,250,1,0,6,6,6,1,0,0,1,0,1,0,0,0,hexagon,triangle,,,,,,,,,,,,,,,,,,,,,,,,,,,,,,,,,,,,,,,,,,,,,,,,,,,,,,
296845,2022-11-27_23h13.57.362,vts_reward_expectancy_bt,2022.2.4,MacIntel,83.33333333,Safari,1440,900,,,a,0.515,10,260,1,0,7,7,1,1,1,0,0,0,0,0,1,0,triangle,hexagon,,,,,,,,,,,,,,,,,,,,,,,,,,,,,,,,,,,,,,,,,,,,,,,,,,,,,,
296845,2022-11-27_23h13.57.362,vts_reward_expectancy_bt,2022.2.4,MacIntel,83.33333333,Safari,1440,900,,,a,0.6,1,261,1,0,8,8,8,1,0,0,1,0,0,0,0,1,hexagon,star,,,,,,,,,,,,,,,,,,,,,,,,,,,,,,,,,,,,,,,,,,,,,,,,,,,,,,
296845,2022-11-27_23h13.57.362,vts_reward_expectancy_bt,2022.2.4,MacIntel,83.33333333,Safari,1440,900,,,a,1.198,1,262,1,0,9,9,3,1,0,1,0,0,1,0,0,0,circle,triangle,,,,,,,,,,,,,,,,,,,,,,,,,,,,,,,,,,,,,,,,,,,,,,,,,,,,,,
296845,2022-11-27_23h13.57.362,vts_reward_expectancy_bt,2022.2.4,MacIntel,83.33333333,Safari,1440,900,,,l,0.211,10,272,1,0,10,10,0,1,1,0,0,0,0,1,0,0,triangle,circle,,,,,,,,,,,,,,,,,,,,,,,,,,,,,,,,,,,,,,,,,,,,,,,,,,,,,,
296845,2022-11-27_23h13.57.362,vts_reward_expectancy_bt,2022.2.4,MacIntel,83.33333333,Safari,1440,900,,,a,0.633,10,282,1,0,11,11,9,1,0,0,0,1,1,0,0,0,star,triangle,,,,,,,,,,,,,,,,,,,,,,,,,,,,,,,,,,,,,,,,,,,,,,,,,,,,,,
296845,2022-11-27_23h13.57.362,vts_reward_expectancy_bt,2022.2.4,MacIntel,83.33333333,Safari,1440,900,,,a,0.958,1,283,1,1,0,12,6,1,0,0,1,0,1,0,0,0,hexagon,triangle,,,,,,,,,,,,,,,,,,,,,,,,,,,,,,,,,,,,,,,,,,,,,,,,,,,,,,
296845,2022-11-27_23h13.57.362,vts_reward_expectancy_bt,2022.2.4,MacIntel,83.33333333,Safari,1440,900,,,l,0.451,1,284,1,1,1,13,10,1,0,0,0,1,0,1,0,0,star ,circle,,,,,,,,,,,,,,,,,,,,,,,,,,,,,,,,,,,,,,,,,,,,,,,,,,,,,,
296845,2022-11-27_23h13.57.362,vts_reward_expectancy_bt,2022.2.4,MacIntel,83.33333333,Safari,1440,900,,,a,0.402,10,294,1,1,2,14,0,1,1,0,0,0,0,1,0,0,triangle,circle,,,,,,,,,,,,,,,,,,,,,,,,,,,,,,,,,,,,,,,,,,,,,,,,,,,,,,
296845,2022-11-27_23h13.57.362,vts_reward_expectancy_bt,2022.2.4,MacIntel,83.33333333,Safari,1440,900,,,a,0.579,1,295,1,1,3,15,3,1,0,1,0,0,1,0,0,0,circle,triangle,,,,,,,,,,,,,,,,,,,,,,,,,,,,,,,,,,,,,,,,,,,,,,,,,,,,,,
296845,2022-11-27_23h13.57.362,vts_reward_expectancy_bt,2022.2.4,MacIntel,83.33333333,Safari,1440,900,,,a,0.369,10,305,1,1,4,16,8,1,0,0,1,0,0,0,0,1,hexagon,star,,,,,,,,,,,,,,,,,,,,,,,,,,,,,,,,,,,,,,,,,,,,,,,,,,,,,,
296845,2022-11-27_23h13.57.362,vts_reward_expectancy_bt,2022.2.4,MacIntel,83.33333333,Safari,1440,900,,,l,0.484,1,306,1,1,5,17,1,1,1,0,0,0,0,0,1,0,triangle,hexagon,,,,,,,,,,,,,,,,,,,,,,,,,,,,,,,,,,,,,,,,,,,,,,,,,,,,,,
296845,2022-11-27_23h13.57.362,vts_reward_expectancy_bt,2022.2.4,MacIntel,83.33333333,Safari,1440,900,,,a,0.501,10,316,1,1,6,18,2,1,1,0,0,0,0,0,0,1,triangle,star,,,,,,,,,,,,,,,,,,,,,,,,,,,,,,,,,,,,,,,,,,,,,,,,,,,,,,
296845,2022-11-27_23h13.57.362,vts_reward_expectancy_bt,2022.2.4,MacIntel,83.33333333,Safari,1440,900,,,a,0.481,10,326,1,1,7,19,4,1,0,1,0,0,0,0,1,0,circle,hexagon,,,,,,,,,,,,,,,,,,,,,,,,,,,,,,,,,,,,,,,,,,,,,,,,,,,,,,
296845,2022-11-27_23h13.57.362,vts_reward_expectancy_bt,2022.2.4,MacIntel,83.33333333,Safari,1440,900,,,l,0.551,10,336,1,1,8,20,11,1,0,0,0,1,0,0,1,0,star,hexagon,,,,,,,,,,,,,,,,,,,,,,,,,,,,,,,,,,,,,,,,,,,,,,,,,,,,,,
296845,2022-11-27_23h13.57.362,vts_reward_expectancy_bt,2022.2.4,MacIntel,83.33333333,Safari,1440,900,,,a,0.599,1,337,1,1,9,21,9,1,0,0,0,1,1,0,0,0,star,triangle,,,,,,,,,,,,,,,,,,,,,,,,,,,,,,,,,,,,,,,,,,,,,,,,,,,,,,
296845,2022-11-27_23h13.57.362,vts_reward_expectancy_bt,2022.2.4,MacIntel,83.33333333,Safari,1440,900,,,l,0.685,1,338,1,1,10,22,5,1,0,1,0,0,0,0,0,1,circle,star,,,,,,,,,,,,,,,,,,,,,,,,,,,,,,,,,,,,,,,,,,,,,,,,,,,,,,
296845,2022-11-27_23h13.57.362,vts_reward_expectancy_bt,2022.2.4,MacIntel,83.33333333,Safari,1440,900,,,l,1,10,348,1,1,11,23,7,1,0,0,1,0,0,1,0,0,hexagon,circle,,,,,,,,,,,,,,,,,,,,,,,,,,,,,,,,,,,,,,,,,,,,,,,,,,,,,,
296845,2022-11-27_23h13.57.362,vts_reward_expectancy_bt,2022.2.4,MacIntel,83.33333333,Safari,1440,900,,,a,0.514,10,358,1,2,0,24,10,1,0,0,0,1,0,1,0,0,star ,circle,,,,,,,,,,,,,,,,,,,,,,,,,,,,,,,,,,,,,,,,,,,,,,,,,,,,,,
296845,2022-11-27_23h13.57.362,vts_reward_expectancy_bt,2022.2.4,MacIntel,83.33333333,Safari,1440,900,,,a,0.811,1,359,1,2,1,25,5,1,0,1,0,0,0,0,0,1,circle,star,,,,,,,,,,,,,,,,,,,,,,,,,,,,,,,,,,,,,,,,,,,,,,,,,,,,,,
296845,2022-11-27_23h13.57.362,vts_reward_expectancy_bt,2022.2.4,MacIntel,83.33333333,Safari,1440,900,,,l,0.76,10,369,1,2,2,26,0,1,1,0,0,0,0,1,0,0,triangle,circle,,,,,,,,,,,,,,,,,,,,,,,,,,,,,,,,,,,,,,,,,,,,,,,,,,,,,,
296845,2022-11-27_23h13.57.362,vts_reward_expectancy_bt,2022.2.4,MacIntel,83.33333333,Safari,1440,900,,,a,0.455,1,370,1,2,3,27,1,1,1,0,0,0,0,0,1,0,triangle,hexagon,,,,,,,,,,,,,,,,,,,,,,,,,,,,,,,,,,,,,,,,,,,,,,,,,,,,,,
296845,2022-11-27_23h13.57.362,vts_reward_expectancy_bt,2022.2.4,MacIntel,83.33333333,Safari,1440,900,,,a,0.256,10,380,1,2,4,28,7,1,0,0,1,0,0,1,0,0,hexagon,circle,,,,,,,,,,,,,,,,,,,,,,,,,,,,,,,,,,,,,,,,,,,,,,,,,,,,,,
296845,2022-11-27_23h13.57.362,vts_reward_expectancy_bt,2022.2.4,MacIntel,83.33333333,Safari,1440,900,,,a,0.37,1,381,1,2,5,29,9,1,0,0,0,1,1,0,0,0,star,triangle,,,,,,,,,,,,,,,,,,,,,,,,,,,,,,,,,,,,,,,,,,,,,,,,,,,,,,
296845,2022-11-27_23h13.57.362,vts_reward_expectancy_bt,2022.2.4,MacIntel,83.33333333,Safari,1440,900,,,a,0.45,1,382,1,2,6,30,4,1,0,1,0,0,0,0,1,0,circle,hexagon,,,,,,,,,,,,,,,,,,,,,,,,,,,,,,,,,,,,,,,,,,,,,,,,,,,,,,
296845,2022-11-27_23h13.57.362,vts_reward_expectancy_bt,2022.2.4,MacIntel,83.33333333,Safari,1440,900,,,l,0.467,1,383,1,2,7,31,2,1,1,0,0,0,0,0,0,1,triangle,star,,,,,,,,,,,,,,,,,,,,,,,,,,,,,,,,,,,,,,,,,,,,,,,,,,,,,,
296845,2022-11-27_23h13.57.362,vts_reward_expectancy_bt,2022.2.4,MacIntel,83.33333333,Safari,1440,900,,,a,0.531,1,384,1,2,8,32,3,1,0,1,0,0,1,0,0,0,circle,triangle,,,,,,,,,,,,,,,,,,,,,,,,,,,,,,,,,,,,,,,,,,,,,,,,,,,,,,
296845,2022-11-27_23h13.57.362,vts_reward_expectancy_bt,2022.2.4,MacIntel,83.33333333,Safari,1440,900,,,l,0.686,10,394,1,2,9,33,6,1,0,0,1,0,1,0,0,0,hexagon,triangle,,,,,,,,,,,,,,,,,,,,,,,,,,,,,,,,,,,,,,,,,,,,,,,,,,,,,,
296845,2022-11-27_23h13.57.362,vts_reward_expectancy_bt,2022.2.4,MacIntel,83.33333333,Safari,1440,900,,,a,0.975,10,404,1,2,10,34,8,1,0,0,1,0,0,0,0,1,hexagon,star,,,,,,,,,,,,,,,,,,,,,,,,,,,,,,,,,,,,,,,,,,,,,,,,,,,,,,
296845,2022-11-27_23h13.57.362,vts_reward_expectancy_bt,2022.2.4,MacIntel,83.33333333,Safari,1440,900,,,l,0.655,10,414,1,2,11,35,11,1,0,0,0,1,0,0,1,0,star,hexagon,,,,,,,,,,,,,,,,,,,,,,,,,,,,,,,,,,,,,,,,,,,,,,,,,,,,,,
296845,2022-11-27_23h13.57.362,vts_reward_expectancy_bt,2022.2.4,MacIntel,83.33333333,Safari,1440,900,,,l,2.055,1,415,2,0,0,0,6,1,0,0,1,0,1,0,0,0,hexagon,triangle,,,,,,,,,,,,,,,,,,,,,,,,,,,,,,,,,,,,,,,,,,,,,,,,,,,,,,
296845,2022-11-27_23h13.57.362,vts_reward_expectancy_bt,2022.2.4,MacIntel,83.33333333,Safari,1440,900,,,a,0.976,10,425,2,0,1,1,1,1,1,0,0,0,0,0,1,0,triangle,hexagon,,,,,,,,,,,,,,,,,,,,,,,,,,,,,,,,,,,,,,,,,,,,,,,,,,,,,,
296845,2022-11-27_23h13.57.362,vts_reward_expectancy_bt,2022.2.4,MacIntel,83.33333333,Safari,1440,900,,,a,0.967,1,426,2,0,2,2,7,1,0,0,1,0,0,1,0,0,hexagon,circle,,,,,,,,,,,,,,,,,,,,,,,,,,,,,,,,,,,,,,,,,,,,,,,,,,,,,,
296845,2022-11-27_23h13.57.362,vts_reward_expectancy_bt,2022.2.4,MacIntel,83.33333333,Safari,1440,900,,,l,0.835,10,436,2,0,3,3,9,1,0,0,0,1,1,0,0,0,star,triangle,,,,,,,,,,,,,,,,,,,,,,,,,,,,,,,,,,,,,,,,,,,,,,,,,,,,,,
296845,2022-11-27_23h13.57.362,vts_reward_expectancy_bt,2022.2.4,MacIntel,83.33333333,Safari,1440,900,,,l,0.568,1,437,2,0,4,4,10,1,0,0,0,1,0,1,0,0,star ,circle,,,,,,,,,,,,,,,,,,,,,,,,,,,,,,,,,,,,,,,,,,,,,,,,,,,,,,
296845,2022-11-27_23h13.57.362,vts_reward_expectancy_bt,2022.2.4,MacIntel,83.33333333,Safari,1440,900,,,a,0.928,10,447,2,0,5,5,0,1,1,0,0,0,0,1,0,0,triangle,circle,,,,,,,,,,,,,,,,,,,,,,,,,,,,,,,,,,,,,,,,,,,,,,,,,,,,,,
296845,2022-11-27_23h13.57.362,vts_reward_expectancy_bt,2022.2.4,MacIntel,83.33333333,Safari,1440,900,,,a,0.986,10,457,2,0,6,6,8,1,0,0,1,0,0,0,0,1,hexagon,star,,,,,,,,,,,,,,,,,,,,,,,,,,,,,,,,,,,,,,,,,,,,,,,,,,,,,,
296845,2022-11-27_23h13.57.362,vts_reward_expectancy_bt,2022.2.4,MacIntel,83.33333333,Safari,1440,900,,,a,0.768,10,467,2,0,7,7,2,1,1,0,0,0,0,0,0,1,triangle,star,,,,,,,,,,,,,,,,,,,,,,,,,,,,,,,,,,,,,,,,,,,,,,,,,,,,,,
296845,2022-11-27_23h13.57.362,vts_reward_expectancy_bt,2022.2.4,MacIntel,83.33333333,Safari,1440,900,,,a,0.765,1,468,2,0,8,8,5,1,0,1,0,0,0,0,0,1,circle,star,,,,,,,,,,,,,,,,,,,,,,,,,,,,,,,,,,,,,,,,,,,,,,,,,,,,,,
296845,2022-11-27_23h13.57.362,vts_reward_expectancy_bt,2022.2.4,MacIntel,83.33333333,Safari,1440,900,,,l,0.765,10,478,2,0,9,9,11,1,0,0,0,1,0,0,1,0,star,hexagon,,,,,,,,,,,,,,,,,,,,,,,,,,,,,,,,,,,,,,,,,,,,,,,,,,,,,,
296845,2022-11-27_23h13.57.362,vts_reward_expectancy_bt,2022.2.4,MacIntel,83.33333333,Safari,1440,900,,,a,1.014,10,488,2,0,10,10,3,1,0,1,0,0,1,0,0,0,circle,triangle,,,,,,,,,,,,,,,,,,,,,,,,,,,,,,,,,,,,,,,,,,,,,,,,,,,,,,
296845,2022-11-27_23h13.57.362,vts_reward_expectancy_bt,2022.2.4,MacIntel,83.33333333,Safari,1440,900,,,a,1.027,1,489,2,0,11,11,4,1,0,1,0,0,0,0,1,0,circle,hexagon,,,,,,,,,,,,,,,,,,,,,,,,,,,,,,,,,,,,,,,,,,,,,,,,,,,,,,
296845,2022-11-27_23h13.57.362,vts_reward_expectancy_bt,2022.2.4,MacIntel,83.33333333,Safari,1440,900,,,a,1.068,1,490,2,1,0,12,8,1,0,0,1,0,0,0,0,1,hexagon,star,,,,,,,,,,,,,,,,,,,,,,,,,,,,,,,,,,,,,,,,,,,,,,,,,,,,,,
296845,2022-11-27_23h13.57.362,vts_reward_expectancy_bt,2022.2.4,MacIntel,83.33333333,Safari,1440,900,,,a,1.103,1,491,2,1,1,13,0,1,1,0,0,0,0,1,0,0,triangle,circle,,,,,,,,,,,,,,,,,,,,,,,,,,,,,,,,,,,,,,,,,,,,,,,,,,,,,,
296845,2022-11-27_23h13.57.362,vts_reward_expectancy_bt,2022.2.4,MacIntel,83.33333333,Safari,1440,900,,,l,1.24,10,501,2,1,2,14,2,1,1,0,0,0,0,0,0,1,triangle,star,,,,,,,,,,,,,,,,,,,,,,,,,,,,,,,,,,,,,,,,,,,,,,,,,,,,,,
296845,2022-11-27_23h13.57.362,vts_reward_expectancy_bt,2022.2.4,MacIntel,83.33333333,Safari,1440,900,,,l,0.683,1,502,2,1,3,15,5,1,0,1,0,0,0,0,0,1,circle,star,,,,,,,,,,,,,,,,,,,,,,,,,,,,,,,,,,,,,,,,,,,,,,,,,,,,,,
296845,2022-11-27_23h13.57.362,vts_reward_expectancy_bt,2022.2.4,MacIntel,83.33333333,Safari,1440,900,,,l,1.068,10,512,2,1,4,16,10,1,0,0,0,1,0,1,0,0,star ,circle,,,,,,,,,,,,,,,,,,,,,,,,,,,,,,,,,,,,,,,,,,,,,,,,,,,,,,
296845,2022-11-27_23h13.57.362,vts_reward_expectancy_bt,2022.2.4,MacIntel,83.33333333,Safari,1440,900,,,a,0.808,1,513,2,1,5,17,11,1,0,0,0,1,0,0,1,0,star,hexagon,,,,,,,,,,,,,,,,,,,,,,,,,,,,,,,,,,,,,,,,,,,,,,,,,,,,,,
296845,2022-11-27_23h13.57.362,vts_reward_expectancy_bt,2022.2.4,MacIntel,83.33333333,Safari,1440,900,,,l,1.013,10,523,2,1,6,18,6,1,0,0,1,0,1,0,0,0,hexagon,triangle,,,,,,,,,,,,,,,,,,,,,,,,,,,,,,,,,,,,,,,,,,,,,,,,,,,,,,
296845,2022-11-27_23h13.57.362,vts_reward_expectancy_bt,2022.2.4,MacIntel,83.33333333,Safari,1440,900,,,a,0.369,1,524,2,1,7,19,1,1,1,0,0,0,0,0,1,0,triangle,hexagon,,,,,,,,,,,,,,,,,,,,,,,,,,,,,,,,,,,,,,,,,,,,,,,,,,,,,,
296845,2022-11-27_23h13.57.362,vts_reward_expectancy_bt,2022.2.4,MacIntel,83.33333333,Safari,1440,900,,,a,0.449,1,525,2,1,8,20,3,1,0,1,0,0,1,0,0,0,circle,triangle,,,,,,,,,,,,,,,,,,,,,,,,,,,,,,,,,,,,,,,,,,,,,,,,,,,,,,
296845,2022-11-27_23h13.57.362,vts_reward_expectancy_bt,2022.2.4,MacIntel,83.33333333,Safari,1440,900,,,a,0.352,10,535,2,1,9,21,4,1,0,1,0,0,0,0,1,0,circle,hexagon,,,,,,,,,,,,,,,,,,,,,,,,,,,,,,,,,,,,,,,,,,,,,,,,,,,,,,
296845,2022-11-27_23h13.57.362,vts_reward_expectancy_bt,2022.2.4,MacIntel,83.33333333,Safari,1440,900,,,a,1.196,10,545,2,1,10,22,7,1,0,0,1,0,0,1,0,0,hexagon,circle,,,,,,,,,,,,,,,,,,,,,,,,,,,,,,,,,,,,,,,,,,,,,,,,,,,,,,
296845,2022-11-27_23h13.57.362,vts_reward_expectancy_bt,2022.2.4,MacIntel,83.33333333,Safari,1440,900,,,l,1.014,10,555,2,1,11,23,9,1,0,0,0,1,1,0,0,0,star,triangle,,,,,,,,,,,,,,,,,,,,,,,,,,,,,,,,,,,,,,,,,,,,,,,,,,,,,,
296845,2022-11-27_23h13.57.362,vts_reward_expectancy_bt,2022.2.4,MacIntel,83.33333333,Safari,1440,900,,,a,0.55,1,556,2,2,0,24,5,1,0,1,0,0,0,0,0,1,circle,star,,,,,,,,,,,,,,,,,,,,,,,,,,,,,,,,,,,,,,,,,,,,,,,,,,,,,,
296845,2022-11-27_23h13.57.362,vts_reward_expectancy_bt,2022.2.4,MacIntel,83.33333333,Safari,1440,900,,,a,0.285,1,557,2,2,1,25,2,1,1,0,0,0,0,0,0,1,triangle,star,,,,,,,,,,,,,,,,,,,,,,,,,,,,,,,,,,,,,,,,,,,,,,,,,,,,,,
296845,2022-11-27_23h13.57.362,vts_reward_expectancy_bt,2022.2.4,MacIntel,83.33333333,Safari,1440,900,,,l,0.749,1,558,2,2,2,26,0,1,1,0,0,0,0,1,0,0,triangle,circle,,,,,,,,,,,,,,,,,,,,,,,,,,,,,,,,,,,,,,,,,,,,,,,,,,,,,,
296845,2022-11-27_23h13.57.362,vts_reward_expectancy_bt,2022.2.4,MacIntel,83.33333333,Safari,1440,900,,,a,0.382,10,568,2,2,3,27,4,1,0,1,0,0,0,0,1,0,circle,hexagon,,,,,,,,,,,,,,,,,,,,,,,,,,,,,,,,,,,,,,,,,,,,,,,,,,,,,,
296845,2022-11-27_23h13.57.362,vts_reward_expectancy_bt,2022.2.4,MacIntel,83.33333333,Safari,1440,900,,,l,0.149,1,569,2,2,4,28,8,1,0,0,1,0,0,0,0,1,hexagon,star,,,,,,,,,,,,,,,,,,,,,,,,,,,,,,,,,,,,,,,,,,,,,,,,,,,,,,
296845,2022-11-27_23h13.57.362,vts_reward_expectancy_bt,2022.2.4,MacIntel,83.33333333,Safari,1440,900,,,a,0.302,1,570,2,2,5,29,11,1,0,0,0,1,0,0,1,0,star,hexagon,,,,,,,,,,,,,,,,,,,,,,,,,,,,,,,,,,,,,,,,,,,,,,,,,,,,,,
296845,2022-11-27_23h13.57.362,vts_reward_expectancy_bt,2022.2.4,MacIntel,83.33333333,Safari,1440,900,,,a,0.14,10,580,2,2,6,30,1,1,1,0,0,0,0,0,1,0,triangle,hexagon,,,,,,,,,,,,,,,,,,,,,,,,,,,,,,,,,,,,,,,,,,,,,,,,,,,,,,
296845,2022-11-27_23h13.57.362,vts_reward_expectancy_bt,2022.2.4,MacIntel,83.33333333,Safari,1440,900,,,l,0.017,10,590,2,2,7,31,10,1,0,0,0,1,0,1,0,0,star ,circle,,,,,,,,,,,,,,,,,,,,,,,,,,,,,,,,,,,,,,,,,,,,,,,,,,,,,,
296845,2022-11-27_23h13.57.362,vts_reward_expectancy_bt,2022.2.4,MacIntel,83.33333333,Safari,1440,900,,,a,0.215,10,600,2,2,8,32,6,1,0,0,1,0,1,0,0,0,hexagon,triangle,,,,,,,,,,,,,,,,,,,,,,,,,,,,,,,,,,,,,,,,,,,,,,,,,,,,,,
296845,2022-11-27_23h13.57.362,vts_reward_expectancy_bt,2022.2.4,MacIntel,83.33333333,Safari,1440,900,,,l,0.384,10,610,2,2,9,33,9,1,0,0,0,1,1,0,0,0,star,triangle,,,,,,,,,,,,,,,,,,,,,,,,,,,,,,,,,,,,,,,,,,,,,,,,,,,,,,
296845,2022-11-27_23h13.57.362,vts_reward_expectancy_bt,2022.2.4,MacIntel,83.33333333,Safari,1440,900,,,l,0.358,1,611,2,2,10,34,3,1,0,1,0,0,1,0,0,0,circle,triangle,,,,,,,,,,,,,,,,,,,,,,,,,,,,,,,,,,,,,,,,,,,,,,,,,,,,,,
296845,2022-11-27_23h13.57.362,vts_reward_expectancy_bt,2022.2.4,MacIntel,83.33333333,Safari,1440,900,,,l,0.705,1,612,2,2,11,35,7,1,0,0,1,0,0,1,0,0,hexagon,circle,,,,,,,,,,,,,,,,,,,,,,,,,,,,,,,,,,,,,,,,,,,,,,,,,,,,,,
296845,2022-11-27_23h13.57.362,vts_reward_expectancy_bt,2022.2.4,MacIntel,83.33333333,Safari,1440,900,,,,,,,,,,,,,,,,,,,,,,,132,H,triangle,1,0,d,1.957,0,0,0,0,0,1,,,,,,,,,,,,,,,,,,,,,,,,,,,,,,,,,,,,,,,,,
296845,2022-11-27_23h13.57.362,vts_reward_expectancy_bt,2022.2.4,MacIntel,83.33333333,Safari,1440,900,,,,,,,,,,,,,,,,,,,,,,,181,W,hexagon,1,0,f,0.679,0,1,0,1,0,1,,,,,,,,,,,,,,,,,,,,,,,,,,,,,,,,,,,,,,,,,
296845,2022-11-27_23h13.57.362,vts_reward_expectancy_bt,2022.2.4,MacIntel,83.33333333,Safari,1440,900,,,,,,,,,,,,,,,,,,,,,,,160,U,circle,1,0,f,0.674,0,2,0,2,0,1,,,,,,,,,,,,,,,,,,,,,,,,,,,,,,,,,,,,,,,,,
296845,2022-11-27_23h13.57.362,vts_reward_expectancy_bt,2022.2.4,MacIntel,83.33333333,Safari,1440,900,,,,,,,,,,,,,,,,,,,,,,,125,Y,star,1,0,d,0.76,0,3,0,3,0,1,,,,,,,,,,,,,,,,,,,,,,,,,,,,,,,,,,,,,,,,,
296845,2022-11-27_23h13.57.362,vts_reward_expectancy_bt,2022.2.4,MacIntel,83.33333333,Safari,1440,900,,,,,,,,,,,,,,,,,,,,,,,174,D,triangle,1,0,f,1.07,0,4,0,4,0,1,,,,,,,,,,,,,,,,,,,,,,,,,,,,,,,,,,,,,,,,,
296845,2022-11-27_23h13.57.362,vts_reward_expectancy_bt,2022.2.4,MacIntel,83.33333333,Safari,1440,900,,,,,,,,,,,,,,,,,,,,,,,139,S,hexagon,1,0,d,0.788,0,5,0,5,0,1,,,,,,,,,,,,,,,,,,,,,,,,,,,,,,,,,,,,,,,,,
296845,2022-11-27_23h13.57.362,vts_reward_expectancy_bt,2022.2.4,MacIntel,83.33333333,Safari,1440,900,,,,,,,,,,,,,,,,,,,,,,,167,B,circle,0,0,d,0.451,0,6,0,6,0,1,,,,,,,,,,,,,,,,,,,,,,,,,,,,,,,,,,,,,,,,,
296845,2022-11-27_23h13.57.362,vts_reward_expectancy_bt,2022.2.4,MacIntel,83.33333333,Safari,1440,900,,,,,,,,,,,,,,,,,,,,,,,146,F,star,1,1,d,0.874,0,7,0,7,0,1,,,,,,,,,,,,,,,,,,,,,,,,,,,,,,,,,,,,,,,,,
296845,2022-11-27_23h13.57.362,vts_reward_expectancy_bt,2022.2.4,MacIntel,83.33333333,Safari,1440,900,,,,,,,,,,,,,,,,,,,,,,,132,H,star,1,0,d,0.8,0,8,0,8,0,1,,,,,,,,,,,,,,,,,,,,,,,,,,,,,,,,,,,,,,,,,
296845,2022-11-27_23h13.57.362,vts_reward_expectancy_bt,2022.2.4,MacIntel,83.33333333,Safari,1440,900,,,,,,,,,,,,,,,,,,,,,,,181,W,hexagon,1,0,f,0.731,0,9,0,9,0,1,,,,,,,,,,,,,,,,,,,,,,,,,,,,,,,,,,,,,,,,,
296845,2022-11-27_23h13.57.362,vts_reward_expectancy_bt,2022.2.4,MacIntel,83.33333333,Safari,1440,900,,,,,,,,,,,,,,,,,,,,,,,139,W,triangle,1,0,,,1,,,,,,k,0.946,0,0,0,0,1,,,,,,,,,,,,,,,,,,,,,,,,,,,,,,,,,,
296845,2022-11-27_23h13.57.362,vts_reward_expectancy_bt,2022.2.4,MacIntel,83.33333333,Safari,1440,900,,,,,,,,,,,,,,,,,,,,,,,174,F,star,1,0,,,1,,,,,,j,0.762,1,0,1,0,1,,,,,,,,,,,,,,,,,,,,,,,,,,,,,,,,,,
296845,2022-11-27_23h13.57.362,vts_reward_expectancy_bt,2022.2.4,MacIntel,83.33333333,Safari,1440,900,,,,,,,,,,,,,,,,,,,,,,,181,S,hexagon,1,0,,,1,,,,,,k,0.973,2,0,2,0,1,,,,,,,,,,,,,,,,,,,,,,,,,,,,,,,,,,
296845,2022-11-27_23h13.57.362,vts_reward_expectancy_bt,2022.2.4,MacIntel,83.33333333,Safari,1440,900,,,,,,,,,,,,,,,,,,,,,,,132,Y,circle,1,0,,,1,,,,,,k,0.923,3,0,3,0,1,,,,,,,,,,,,,,,,,,,,,,,,,,,,,,,,,,
296845,2022-11-27_23h13.57.362,vts_reward_expectancy_bt,2022.2.4,MacIntel,83.33333333,Safari,1440,900,,,,,,,,,,,,,,,,,,,,,,,167,D,triangle,1,0,,,1,,,,,,j,0.539,4,0,4,0,1,,,,,,,,,,,,,,,,,,,,,,,,,,,,,,,,,,
296845,2022-11-27_23h13.57.362,vts_reward_expectancy_bt,2022.2.4,MacIntel,83.33333333,Safari,1440,900,,,,,,,,,,,,,,,,,,,,,,,160,H,star,1,0,,,1,,,,,,j,0.702,5,0,5,0,1,,,,,,,,,,,,,,,,,,,,,,,,,,,,,,,,,,
296845,2022-11-27_23h13.57.362,vts_reward_expectancy_bt,2022.2.4,MacIntel,83.33333333,Safari,1440,900,,,,,,,,,,,,,,,,,,,,,,,146,U,hexagon,1,0,,,1,,,,,,k,0.802,6,0,6,0,1,,,,,,,,,,,,,,,,,,,,,,,,,,,,,,,,,,
296845,2022-11-27_23h13.57.362,vts_reward_expectancy_bt,2022.2.4,MacIntel,83.33333333,Safari,1440,900,,,,,,,,,,,,,,,,,,,,,,,125,B,circle,1,0,,,1,,,,,,j,1.281,7,0,7,0,1,,,,,,,,,,,,,,,,,,,,,,,,,,,,,,,,,,
296845,2022-11-27_23h13.57.362,vts_reward_expectancy_bt,2022.2.4,MacIntel,83.33333333,Safari,1440,900,,,,,,,,,,,,,,,,,,,,,,,139,W,hexagon,1,0,,,1,,,,,,k,1.761,8,0,8,0,1,,,,,,,,,,,,,,,,,,,,,,,,,,,,,,,,,,
296845,2022-11-27_23h13.57.362,vts_reward_expectancy_bt,2022.2.4,MacIntel,83.33333333,Safari,1440,900,,,,,,,,,,,,,,,,,,,,,,,174,F,triangle,0,0,,,1,,,,,,,,9,0,9,0,1,,,,,,,,,,,,,,,,,,,,,,,,,,,,,,,,,,
296845,2022-11-27_23h13.57.362,vts_reward_expectancy_bt,2022.2.4,MacIntel,83.33333333,Safari,1440,900,,,,,0,612,,,,,,,,,,,,,,,,,139,U,hexagon,1,1,,,2,,,,,,,,,,,,,-1,number,NA,d,1.706,vtsPrac,0,0,0,0,1,,,,,,,,,,,,,,,,,,,,,,,
296845,2022-11-27_23h13.57.362,vts_reward_expectancy_bt,2022.2.4,MacIntel,83.33333333,Safari,1440,900,,,,,0,612,,,,,,,,,,,,,,,,,160,F,star,1,0,,,2,,,,,,,,,,,,,switch,letter,lettSwt,j,1.195,vtsPrac,1,0,1,0,1,,,,,,,,,,,,,,,,,,,,,,,
296845,2022-11-27_23h13.57.362,vts_reward_expectancy_bt,2022.2.4,MacIntel,83.33333333,Safari,1440,900,,,,,0,612,,,,,,,,,,,,,,,,,167,D,hexagon,1,0,,,2,,,,,,,,,,,,,switch,number,numSwt,f,1.142,vtsPrac,2,0,2,0,1,,,,,,,,,,,,,,,,,,,,,,,
296845,2022-11-27_23h13.57.362,vts_reward_expectancy_bt,2022.2.4,MacIntel,83.33333333,Safari,1440,900,,,,,0,612,,,,,,,,,,,,,,,,,125,H,star,1,0,,,2,,,,,,,,,,,,,switch,letter,lettSwt,j,1.799,vtsPrac,3,0,3,0,1,,,,,,,,,,,,,,,,,,,,,,,
296845,2022-11-27_23h13.57.362,vts_reward_expectancy_bt,2022.2.4,MacIntel,83.33333333,Safari,1440,900,,,,,0,612,,,,,,,,,,,,,,,,,139,U,circle,0,0,,,2,,,,,,,,,,,,,repeat,letter,NA,j,2.254,vtsPrac,4,0,4,0,1,,,,,,,,,,,,,,,,,,,,,,,
296845,2022-11-27_23h13.57.362,vts_reward_expectancy_bt,2022.2.4,MacIntel,83.33333333,Safari,1440,900,,,,,0,612,,,,,,,,,,,,,,,,,160,F,hexagon,1,1,,,2,,,,,,,,,,,,,repeat,letter,lettRpt,j,0.895,vtsPrac,5,0,5,0,1,,,,,,,,,,,,,,,,,,,,,,,
296845,2022-11-27_23h13.57.362,vts_reward_expectancy_bt,2022.2.4,MacIntel,83.33333333,Safari,1440,900,,,,,0,612,,,,,,,,,,,,,,,,,167,D,hexagon,1,0,,,2,,,,,,,,,,,,,switch,number,numSwt,f,0.961,vtsPrac,6,0,6,0,1,,,,,,,,,,,,,,,,,,,,,,,
296845,2022-11-27_23h13.57.362,vts_reward_expectancy_bt,2022.2.4,MacIntel,83.33333333,Safari,1440,900,,,,,0,612,,,,,,,,,,,,,,,,,125,H,star,1,0,,,2,,,,,,,,,,,,,repeat,number,numRpt,d,1.49,vtsPrac,7,0,7,0,1,,,,,,,,,,,,,,,,,,,,,,,
296845,2022-11-27_23h13.57.362,vts_reward_expectancy_bt,2022.2.4,MacIntel,83.33333333,Safari,1440,900,,,,,0,612,,,,,,,,,,,,,,,,,174,S,star,1,0,,,2,,,,,,,,,,,,,switch,letter,lettSwt,k,1.271,vtsPrac,8,0,8,0,1,,,,,,,,,,,,,,,,,,,,,,,
296845,2022-11-27_23h13.57.362,vts_reward_expectancy_bt,2022.2.4,MacIntel,83.33333333,Safari,1440,900,,,,,0,612,,,,,,,,,,,,,,,,,167,D,hexagon,1,0,,,2,,,,,,,,,,,,,switch,number,numSwt,f,1.021,vtsPrac,9,0,9,0,1,,,,,,,,,,,,,,,,,,,,,,,
296845,2022-11-27_23h13.57.362,vts_reward_expectancy_bt,2022.2.4,MacIntel,83.33333333,Safari,1440,900,,,,,0,612,,,,,,,,,,,,,,,,,139,H,circle,1,0,,,2,,,,,,,,,,,,,repeat,number,numRpt,d,0.733,vtsPrac,10,0,10,0,1,,,,,,,,,,,,,,,,,,,,,,,
296845,2022-11-27_23h13.57.362,vts_reward_expectancy_bt,2022.2.4,MacIntel,83.33333333,Safari,1440,900,,,,,0,612,,,,,,,,,,,,,,,,,146,F,triangle,1,0,,,2,,,,,,,,,,,,,switch,letter,lettSwt,j,1.212,vtsPrac,11,0,11,0,1,,,,,,,,,,,,,,,,,,,,,,,
296845,2022-11-27_23h13.57.362,vts_reward_expectancy_bt,2022.2.4,MacIntel,83.33333333,Safari,1440,900,,,,,0,612,,,,,,,,,,,,,,,,,132,F,circle,1,0,,,2,,,,,,,,,,,,,switch,number,numSwt,d,1.029,vtsPrac,12,0,12,0,1,,,,,,,,,,,,,,,,,,,,,,,
296845,2022-11-27_23h13.57.362,vts_reward_expectancy_bt,2022.2.4,MacIntel,83.33333333,Safari,1440,900,,,,,0,612,,,,,,,,,,,,,,,,,181,Y,star,1,0,,,2,,,,,,,,,,,,,repeat,number,numRpt,f,0.757,vtsPrac,13,0,13,0,1,,,,,,,,,,,,,,,,,,,,,,,
296845,2022-11-27_23h13.57.362,vts_reward_expectancy_bt,2022.2.4,MacIntel,83.33333333,Safari,1440,900,,,,,0,612,,,,,,,,,,,,,,,,,139,B,triangle,1,0,,,2,,,,,,,,,,,,,repeat,number,numRpt,d,0.792,vtsPrac,14,0,14,0,1,,,,,,,,,,,,,,,,,,,,,,,
296845,2022-11-27_23h13.57.362,vts_reward_expectancy_bt,2022.2.4,MacIntel,83.33333333,Safari,1440,900,,,,,0,612,,,,,,,,,,,,,,,,,125,S,star,1,0,,,2,,,,,,,,,,,,,repeat,number,numRpt,d,0.848,vtsPrac,15,0,15,0,1,,,,,,,,,,,,,,,,,,,,,,,
296845,2022-11-27_23h13.57.362,vts_reward_expectancy_bt,2022.2.4,MacIntel,83.33333333,Safari,1440,900,,,,,0,612,,,,,,,,,,,,,,,,,125,B,triangle,1,0,,,2,,,,,,,,,,,,,switch,letter,lettSwt,j,0.83,vtsPrac,16,0,16,0,1,,,,,,,,,,,,,,,,,,,,,,,
296845,2022-11-27_23h13.57.362,vts_reward_expectancy_bt,2022.2.4,MacIntel,83.33333333,Safari,1440,900,,,,,0,612,,,,,,,,,,,,,,,,,160,S,star,1,0,,,2,,,,,,,,,,,,,repeat,letter,lettRpt,k,1.073,vtsPrac,17,0,17,0,1,,,,,,,,,,,,,,,,,,,,,,,
296845,2022-11-27_23h13.57.362,vts_reward_expectancy_bt,2022.2.4,MacIntel,83.33333333,Safari,1440,900,,,,,0,612,,,,,,,,,,,,,,,,,167,U,triangle,1,0,,,2,,,,,,,,,,,,,switch,number,numSwt,f,0.817,vtsPrac,18,0,18,0,1,,,,,,,,,,,,,,,,,,,,,,,
296845,2022-11-27_23h13.57.362,vts_reward_expectancy_bt,2022.2.4,MacIntel,83.33333333,Safari,1440,900,,,,,0,612,,,,,,,,,,,,,,,,,181,F,circle,1,0,,,2,,,,,,,,,,,,,repeat,number,numRpt,f,0.773,vtsPrac,19,0,19,0,1,,,,,,,,,,,,,,,,,,,,,,,
296845,2022-11-27_23h13.57.362,vts_reward_expectancy_bt,2022.2.4,MacIntel,83.33333333,Safari,1440,900,,,,,0,612,,,,,,,,,,,,,,,,,139,D,hexagon,1,0,,,2,,,,,,,,,,,,,switch,letter,lettSwt,j,0.85,vtsPrac,20,0,20,0,1,,,,,,,,,,,,,,,,,,,,,,,
296845,2022-11-27_23h13.57.362,vts_reward_expectancy_bt,2022.2.4,MacIntel,83.33333333,Safari,1440,900,,,,,0,612,,,,,,,,,,,,,,,,,181,Y,circle,1,0,,,2,,,,,,,,,,,,,repeat,letter,lettRpt,k,1.027,vtsPrac,21,0,21,0,1,,,,,,,,,,,,,,,,,,,,,,,
296845,2022-11-27_23h13.57.362,vts_reward_expectancy_bt,2022.2.4,MacIntel,83.33333333,Safari,1440,900,,,,,0,612,,,,,,,,,,,,,,,,,146,U,circle,0,0,,,2,,,,,,,,,,,,,repeat,letter,NA,j,1.255,vtsPrac,22,0,22,0,1,,,,,,,,,,,,,,,,,,,,,,,
296845,2022-11-27_23h13.57.362,vts_reward_expectancy_bt,2022.2.4,MacIntel,83.33333333,Safari,1440,900,,,,,0,612,,,,,,,,,,,,,,,,,160,B,triangle,1,1,,,2,,,,,,,,,,,,,switch,number,numSwt,f,0.74,vtsPrac,23,0,23,0,1,,,,,,,,,,,,,,,,,,,,,,,
296845,2022-11-27_23h13.57.362,vts_reward_expectancy_bt,2022.2.4,MacIntel,83.33333333,Safari,1440,900,,,,,0,612,,,,,,,,,,,,,,,,,174,D,star,1,0,,,2,,,,,,,,,,,,,repeat,number,numRpt,f,0.958,vtsPrac,24,0,24,0,1,,,,,,,,,,,,,,,,,,,,,,,
296845,2022-11-27_23h13.57.362,vts_reward_expectancy_bt,2022.2.4,MacIntel,83.33333333,Safari,1440,900,,,,,0,612,,,,,,,,,,,,,,,,,160,Y,triangle,1,0,,,2,,,,,,,,,,,,,switch,letter,lettSwt,k,0.829,vtsPrac,25,0,25,0,1,,,,,,,,,,,,,,,,,,,,,,,
296845,2022-11-27_23h13.57.362,vts_reward_expectancy_bt,2022.2.4,MacIntel,83.33333333,Safari,1440,900,,,,,0,612,,,,,,,,,,,,,,,,,125,F,hexagon,1,0,,,2,,,,,,,,,,,,,repeat,letter,lettRpt,j,0.923,vtsPrac,26,0,26,0,1,,,,,,,,,,,,,,,,,,,,,,,
296845,2022-11-27_23h13.57.362,vts_reward_expectancy_bt,2022.2.4,MacIntel,83.33333333,Safari,1440,900,,,,,0,612,,,,,,,,,,,,,,,,,167,W,triangle,1,0,,,2,,,,,,,,,,,,,repeat,letter,lettRpt,k,0.662,vtsPrac,27,0,27,0,1,,,,,,,,,,,,,,,,,,,,,,,
296845,2022-11-27_23h13.57.362,vts_reward_expectancy_bt,2022.2.4,MacIntel,83.33333333,Safari,1440,900,,,,,0,612,,,,,,,,,,,,,,,,,181,F,star,1,0,,,2,,,,,,,,,,,,,repeat,letter,lettRpt,j,0.807,vtsPrac,28,0,28,0,1,,,,,,,,,,,,,,,,,,,,,,,
296845,2022-11-27_23h13.57.362,vts_reward_expectancy_bt,2022.2.4,MacIntel,83.33333333,Safari,1440,900,,,,,0,612,,,,,,,,,,,,,,,,,132,D,hexagon,1,0,,,2,,,,,,,,,,,,,repeat,letter,lettRpt,j,0.872,vtsPrac,29,0,29,0,1,,,,,,,,,,,,,,,,,,,,,,,
296845,2022-11-27_23h13.57.362,vts_reward_expectancy_bt,2022.2.4,MacIntel,83.33333333,Safari,1440,900,,,,,0,612,,,,,,,,,,,,,,,,,139,W,star,1,0,,,2,,,,,,,,,,,,,repeat,letter,lettRpt,k,1.067,vtsPrac,30,0,30,0,1,,,,,,,,,,,,,,,,,,,,,,,
296845,2022-11-27_23h13.57.362,vts_reward_expectancy_bt,2022.2.4,MacIntel,83.33333333,Safari,1440,900,,,,,0,612,,,,,,,,,,,,,,,,,160,H,triangle,1,0,,,2,,,,,,,,,,,,,repeat,letter,lettRpt,j,0.694,vtsPrac,31,0,31,0,1,,,,,,,,,,,,,,,,,,,,,,,
296845,2022-11-27_23h13.57.362,vts_reward_expectancy_bt,2022.2.4,MacIntel,83.33333333,Safari,1440,900,,,,,,,,,,,,,,,,,,,,,,,,,,,,,,,,,,,,,,,,,,,,,,,,,,,,,,,,,,,,,,,,,,,,,,,,,,,,
296845,2022-11-27_23h13.57.362,vts_reward_expectancy_bt,2022.2.4,MacIntel,83.33333333,Safari,1440,900,,,,,,,,,,,,,,,,,,,,,,,,,,,,,,,,,,,,,,,,,,,,,,,,,,,,,,,,,,,,,,,,,,,,,,,,,,,,
296845,2022-11-27_23h13.57.362,vts_reward_expectancy_bt,2022.2.4,MacIntel,83.33333333,Safari,1440,900,,,,,0,612,,,,,,,,,,,,,,,,,132,D,circle,1,0,,,,,,,,,,,,,,,,switch,number,numSwt,d,0.898,noRew,,,,,,0,0,0,0,0,1,,,,,,,,,,,,,,,,,
296845,2022-11-27_23h13.57.362,vts_reward_expectancy_bt,2022.2.4,MacIntel,83.33333333,Safari,1440,900,,,,,0,612,,,,,,,,,,,,,,,,,139,S,star,1,0,,,,,,,,,,,,,,,,repeat,number,numRpt,d,0.559,noRew,,,,,,0,1,0,1,0,1,,,,,,,,,,,,,,,,,
296845,2022-11-27_23h13.57.362,vts_reward_expectancy_bt,2022.2.4,MacIntel,83.33333333,Safari,1440,900,,,,,0,612,,,,,,,,,,,,,,,,,125,Y,circle,1,0,,,,,,,,,,,,,,,,repeat,number,numRpt,d,0.86,noRew,,,,,,0,2,0,2,0,1,,,,,,,,,,,,,,,,,
296845,2022-11-27_23h13.57.362,vts_reward_expectancy_bt,2022.2.4,MacIntel,83.33333333,Safari,1440,900,,,,,0,612,,,,,,,,,,,,,,,,,174,W,star,1,0,,,,,,,,,,,,,,,,repeat,number,numRpt,f,0.669,noRew,,,,,,0,3,0,3,0,1,,,,,,,,,,,,,,,,,
296845,2022-11-27_23h13.57.362,vts_reward_expectancy_bt,2022.2.4,MacIntel,83.33333333,Safari,1440,900,,,,,0,612,,,,,,,,,,,,,,,,,132,D,triangle,0,0,,,,,,,,,,,,,,,,switch,letter,NA,k,0.318,noRew,,,,,,0,4,0,4,0,1,,,,,,,,,,,,,,,,,
296845,2022-11-27_23h13.57.362,vts_reward_expectancy_bt,2022.2.4,MacIntel,83.33333333,Safari,1440,900,,,,,0,612,,,,,,,,,,,,,,,,,139,S,star,1,1,,,,,,,,,,,,,,,,switch,number,numSwt,d,0.683,noRew,,,,,,0,5,0,5,0,1,,,,,,,,,,,,,,,,,
296845,2022-11-27_23h13.57.362,vts_reward_expectancy_bt,2022.2.4,MacIntel,83.33333333,Safari,1440,900,,,,,0,612,,,,,,,,,,,,,,,,,125,Y,circle,1,0,,,,,,,,,,,,,,,,switch,letter,lettSwt,k,0.827,noRew,,,,,,0,6,0,6,0,1,,,,,,,,,,,,,,,,,
296845,2022-11-27_23h13.57.362,vts_reward_expectancy_bt,2022.2.4,MacIntel,83.33333333,Safari,1440,900,,,,,0,612,,,,,,,,,,,,,,,,,174,W,triangle,1,0,,,,,,,,,,,,,,,,switch,number,numSwt,f,0.808,noRew,,,,,,0,7,0,7,0,1,,,,,,,,,,,,,,,,,
296845,2022-11-27_23h13.57.362,vts_reward_expectancy_bt,2022.2.4,MacIntel,83.33333333,Safari,1440,900,,,,,0,612,,,,,,,,,,,,,,,,,181,S,star,1,0,,,,,,,,,,,,,,,,switch,letter,lettSwt,k,0.616,noRew,,,,,,0,8,0,8,0,1,,,,,,,,,,,,,,,,,
296845,2022-11-27_23h13.57.362,vts_reward_expectancy_bt,2022.2.4,MacIntel,83.33333333,Safari,1440,900,,,,,0,612,,,,,,,,,,,,,,,,,139,F,circle,1,0,,,,,,,,,,,,,,,,switch,number,numSwt,d,0.639,noRew,,,,,,0,9,0,9,0,1,,,,,,,,,,,,,,,,,
296845,2022-11-27_23h13.57.362,vts_reward_expectancy_bt,2022.2.4,MacIntel,83.33333333,Safari,1440,900,,,,,0,612,,,,,,,,,,,,,,,,,160,U,star,1,0,,,,,,,,,,,,,,,,switch,letter,lettSwt,k,0.799,noRew,,,,,,0,10,0,10,0,1,,,,,,,,,,,,,,,,,
296845,2022-11-27_23h13.57.362,vts_reward_expectancy_bt,2022.2.4,MacIntel,83.33333333,Safari,1440,900,,,,,0,612,,,,,,,,,,,,,,,,,125,W,triangle,1,0,,,,,,,,,,,,,,,,repeat,letter,lettRpt,k,0.734,noRew,,,,,,0,11,0,11,0,1,,,,,,,,,,,,,,,,,
296845,2022-11-27_23h13.57.362,vts_reward_expectancy_bt,2022.2.4,MacIntel,83.33333333,Safari,1440,900,,,,,0,612,,,,,,,,,,,,,,,,,160,B,hexagon,1,0,,,,,,,,,,,,,,,,switch,number,numSwt,f,1.085,noRew,,,,,,0,12,0,12,0,1,,,,,,,,,,,,,,,,,
296845,2022-11-27_23h13.57.362,vts_reward_expectancy_bt,2022.2.4,MacIntel,83.33333333,Safari,1440,900,,,,,0,612,,,,,,,,,,,,,,,,,181,S,triangle,0,0,,,,,,,,,,,,,,,,switch,letter,NA,j,0.888,noRew,,,,,,0,13,0,13,0,1,,,,,,,,,,,,,,,,,
296845,2022-11-27_23h13.57.362,vts_reward_expectancy_bt,2022.2.4,MacIntel,83.33333333,Safari,1440,900,,,,,0,612,,,,,,,,,,,,,,,,,132,W,circle,1,1,,,,,,,,,,,,,,,,switch,number,numSwt,d,0.761,noRew,,,,,,0,14,0,14,0,1,,,,,,,,,,,,,,,,,
296845,2022-11-27_23h13.57.362,vts_reward_expectancy_bt,2022.2.4,MacIntel,83.33333333,Safari,1440,900,,,,,0,612,,,,,,,,,,,,,,,,,146,H,star,0,0,,,,,,,,,,,,,,,,repeat,number,NA,f,1.233,noRew,,,,,,0,15,0,15,0,1,,,,,,,,,,,,,,,,,
296845,2022-11-27_23h13.57.362,vts_reward_expectancy_bt,2022.2.4,MacIntel,83.33333333,Safari,1440,900,,,,,0,612,,,,,,,,,,,,,,,,,139,W,triangle,1,1,,,,,,,,,,,,,,,,repeat,number,numRpt,d,0.907,noRew,,,,,,0,16,0,16,0,1,,,,,,,,,,,,,,,,,
296845,2022-11-27_23h13.57.362,vts_reward_expectancy_bt,2022.2.4,MacIntel,83.33333333,Safari,1440,900,,,,,0,612,,,,,,,,,,,,,,,,,132,Y,star,1,0,,,,,,,,,,,,,,,,switch,letter,lettSwt,k,0.667,noRew,,,,,,0,17,0,17,0,1,,,,,,,,,,,,,,,,,
296845,2022-11-27_23h13.57.362,vts_reward_expectancy_bt,2022.2.4,MacIntel,83.33333333,Safari,1440,900,,,,,0,612,,,,,,,,,,,,,,,,,174,D,circle,1,0,,,,,,,,,,,,,,,,repeat,letter,lettRpt,j,0.74,noRew,,,,,,0,18,0,18,0,1,,,,,,,,,,,,,,,,,
296845,2022-11-27_23h13.57.362,vts_reward_expectancy_bt,2022.2.4,MacIntel,83.33333333,Safari,1440,900,,,,,0,612,,,,,,,,,,,,,,,,,160,S,star,1,0,,,,,,,,,,,,,,,,repeat,letter,lettRpt,k,0.79,noRew,,,,,,0,19,0,19,0,1,,,,,,,,,,,,,,,,,
296845,2022-11-27_23h13.57.362,vts_reward_expectancy_bt,2022.2.4,MacIntel,83.33333333,Safari,1440,900,,,,,0,612,,,,,,,,,,,,,,,,,146,U,hexagon,1,0,,,,,,,,,,,,,,,,switch,number,numSwt,d,1.105,noRew,,,,,,0,20,0,20,0,1,,,,,,,,,,,,,,,,,
296845,2022-11-27_23h13.57.362,vts_reward_expectancy_bt,2022.2.4,MacIntel,83.33333333,Safari,1440,900,,,,,0,612,,,,,,,,,,,,,,,,,174,W,circle,1,0,,,,,,,,,,,,,,,,switch,letter,lettSwt,k,0.662,noRew,,,,,,0,21,0,21,0,1,,,,,,,,,,,,,,,,,
296845,2022-11-27_23h13.57.362,vts_reward_expectancy_bt,2022.2.4,MacIntel,83.33333333,Safari,1440,900,,,,,0,612,,,,,,,,,,,,,,,,,139,H,star,1,0,,,,,,,,,,,,,,,,switch,number,numSwt,d,0.94,noRew,,,,,,0,22,0,22,0,1,,,,,,,,,,,,,,,,,
296845,2022-11-27_23h13.57.362,vts_reward_expectancy_bt,2022.2.4,MacIntel,83.33333333,Safari,1440,900,,,,,0,612,,,,,,,,,,,,,,,,,132,B,triangle,1,0,,,,,,,,,,,,,,,,repeat,number,numRpt,d,0.606,noRew,,,,,,0,23,0,23,0,1,,,,,,,,,,,,,,,,,
296845,2022-11-27_23h13.57.362,vts_reward_expectancy_bt,2022.2.4,MacIntel,83.33333333,Safari,1440,900,,,,,0,612,,,,,,,,,,,,,,,,,160,Y,hexagon,1,0,,,,,,,,,,,,,,,,switch,letter,lettSwt,k,0.834,noRew,,,,,,0,24,0,24,0,1,,,,,,,,,,,,,,,,,
296845,2022-11-27_23h13.57.362,vts_reward_expectancy_bt,2022.2.4,MacIntel,83.33333333,Safari,1440,900,,,,,0,612,,,,,,,,,,,,,,,,,139,F,circle,1,0,,,,,,,,,,,,,,,,switch,number,numSwt,d,0.974,noRew,,,,,,0,25,0,25,0,1,,,,,,,,,,,,,,,,,
296845,2022-11-27_23h13.57.362,vts_reward_expectancy_bt,2022.2.4,MacIntel,83.33333333,Safari,1440,900,,,,,0,612,,,,,,,,,,,,,,,,,132,H,star,1,0,,,,,,,,,,,,,,,,switch,letter,lettSwt,j,1.937,noRew,,,,,,0,26,0,26,0,1,,,,,,,,,,,,,,,,,
296845,2022-11-27_23h13.57.362,vts_reward_expectancy_bt,2022.2.4,MacIntel,83.33333333,Safari,1440,900,,,,,0,612,,,,,,,,,,,,,,,,,146,D,hexagon,1,0,,,,,,,,,,,,,,,,repeat,letter,lettRpt,j,1.059,noRew,,,,,,0,27,0,27,0,1,,,,,,,,,,,,,,,,,
296845,2022-11-27_23h13.57.362,vts_reward_expectancy_bt,2022.2.4,MacIntel,83.33333333,Safari,1440,900,,,,,0,612,,,,,,,,,,,,,,,,,132,F,star,1,0,,,,,,,,,,,,,,,,switch,number,numSwt,d,1.074,noRew,,,,,,0,28,0,28,0,1,,,,,,,,,,,,,,,,,
296845,2022-11-27_23h13.57.362,vts_reward_expectancy_bt,2022.2.4,MacIntel,83.33333333,Safari,1440,900,,,,,0,612,,,,,,,,,,,,,,,,,167,S,triangle,1,0,,,,,,,,,,,,,,,,repeat,number,numRpt,f,2.466,noRew,,,,,,0,29,0,29,0,1,,,,,,,,,,,,,,,,,
296845,2022-11-27_23h13.57.362,vts_reward_expectancy_bt,2022.2.4,MacIntel,83.33333333,Safari,1440,900,,,,,0,612,,,,,,,,,,,,,,,,,146,D,hexagon,1,0,,,,,,,,,,,,,,,,switch,letter,lettSwt,j,2.219,noRew,,,,,,0,30,0,30,0,1,,,,,,,,,,,,,,,,,
296845,2022-11-27_23h13.57.362,vts_reward_expectancy_bt,2022.2.4,MacIntel,83.33333333,Safari,1440,900,,,,,0,612,,,,,,,,,,,,,,,,,160,B,star,1,0,,,,,,,,,,,,,,,,switch,number,numSwt,f,1.133,noRew,,,,,,0,31,0,31,0,1,,,,,,,,,,,,,,,,,
296845,2022-11-27_23h13.57.362,vts_reward_expectancy_bt,2022.2.4,MacIntel,83.33333333,Safari,1440,900,,,,,0,612,,,,,,,,,,,,,,,,,125,H,triangle,1,0,,,,,,,,,,,,,,,,switch,letter,lettSwt,j,0.857,noRew,,,,,,0,32,0,32,0,1,,,,,,,,,,,,,,,,,
296845,2022-11-27_23h13.57.362,vts_reward_expectancy_bt,2022.2.4,MacIntel,83.33333333,Safari,1440,900,,,,,0,612,,,,,,,,,,,,,,,,,167,F,circle,1,0,,,,,,,,,,,,,,,,repeat,letter,lettRpt,j,0.69,noRew,,,,,,0,33,0,33,0,1,,,,,,,,,,,,,,,,,
296845,2022-11-27_23h13.57.362,vts_reward_expectancy_bt,2022.2.4,MacIntel,83.33333333,Safari,1440,900,,,,,0,612,,,,,,,,,,,,,,,,,174,W,hexagon,0,0,,,,,,,,,,,,,,,,repeat,letter,NA,j,0.706,noRew,,,,,,0,34,0,34,0,1,,,,,,,,,,,,,,,,,
296845,2022-11-27_23h13.57.362,vts_reward_expectancy_bt,2022.2.4,MacIntel,83.33333333,Safari,1440,900,,,,,0,612,,,,,,,,,,,,,,,,,160,Y,circle,1,1,,,,,,,,,,,,,,,,repeat,letter,lettRpt,k,0.851,noRew,,,,,,0,35,0,35,0,1,,,,,,,,,,,,,,,,,
296845,2022-11-27_23h13.57.362,vts_reward_expectancy_bt,2022.2.4,MacIntel,83.33333333,Safari,1440,900,,,,,0,612,,,,,,,,,,,,,,,,,181,Y,star,1,0,,,,,,,,,,,,,,,,repeat,letter,lettRpt,k,0.829,noRew,,,,,,0,36,0,36,0,1,,,,,,,,,,,,,,,,,
296845,2022-11-27_23h13.57.362,vts_reward_expectancy_bt,2022.2.4,MacIntel,83.33333333,Safari,1440,900,,,,,0,612,,,,,,,,,,,,,,,,,167,B,hexagon,1,0,,,,,,,,,,,,,,,,switch,number,numSwt,f,0.69,noRew,,,,,,0,37,0,37,0,1,,,,,,,,,,,,,,,,,
296845,2022-11-27_23h13.57.362,vts_reward_expectancy_bt,2022.2.4,MacIntel,83.33333333,Safari,1440,900,,,,,0,612,,,,,,,,,,,,,,,,,125,W,star,1,0,,,,,,,,,,,,,,,,switch,letter,lettSwt,k,1.242,noRew,,,,,,0,38,0,38,0,1,,,,,,,,,,,,,,,,,
296845,2022-11-27_23h13.57.362,vts_reward_expectancy_bt,2022.2.4,MacIntel,83.33333333,Safari,1440,900,,,,,0,612,,,,,,,,,,,,,,,,,146,H,hexagon,1,0,,,,,,,,,,,,,,,,repeat,letter,lettRpt,j,0.845,noRew,,,,,,0,39,0,39,0,1,,,,,,,,,,,,,,,,,
296845,2022-11-27_23h13.57.362,vts_reward_expectancy_bt,2022.2.4,MacIntel,83.33333333,Safari,1440,900,,,,,0,612,,,,,,,,,,,,,,,,,139,Y,hexagon,1,0,,,,,,,,,,,,,,,,switch,number,numSwt,d,1.167,noRew,,,,,,0,40,0,40,0,1,,,,,,,,,,,,,,,,,
296845,2022-11-27_23h13.57.362,vts_reward_expectancy_bt,2022.2.4,MacIntel,83.33333333,Safari,1440,900,,,,,0,612,,,,,,,,,,,,,,,,,132,S,star,1,0,,,,,,,,,,,,,,,,repeat,number,numRpt,d,0.873,noRew,,,,,,0,41,0,41,0,1,,,,,,,,,,,,,,,,,
296845,2022-11-27_23h13.57.362,vts_reward_expectancy_bt,2022.2.4,MacIntel,83.33333333,Safari,1440,900,,,,,0,612,,,,,,,,,,,,,,,,,125,F,star,1,0,,,,,,,,,,,,,,,,switch,letter,lettSwt,j,0.849,noRew,,,,,,0,42,0,42,0,1,,,,,,,,,,,,,,,,,
296845,2022-11-27_23h13.57.362,vts_reward_expectancy_bt,2022.2.4,MacIntel,83.33333333,Safari,1440,900,,,,,0,612,,,,,,,,,,,,,,,,,167,U,hexagon,1,0,,,,,,,,,,,,,,,,switch,number,numSwt,f,0.675,noRew,,,,,,0,43,0,43,0,1,,,,,,,,,,,,,,,,,
296845,2022-11-27_23h13.57.362,vts_reward_expectancy_bt,2022.2.4,MacIntel,83.33333333,Safari,1440,900,,,,,0,612,,,,,,,,,,,,,,,,,125,H,circle,1,0,,,,,,,,,,,,,,,,repeat,number,numRpt,d,0.457,noRew,,,,,,0,44,0,44,0,1,,,,,,,,,,,,,,,,,
296845,2022-11-27_23h13.57.362,vts_reward_expectancy_bt,2022.2.4,MacIntel,83.33333333,Safari,1440,900,,,,,0,612,,,,,,,,,,,,,,,,,174,F,hexagon,1,0,,,,,,,,,,,,,,,,switch,letter,lettSwt,j,0.816,noRew,,,,,,0,45,0,45,0,1,,,,,,,,,,,,,,,,,
296845,2022-11-27_23h13.57.362,vts_reward_expectancy_bt,2022.2.4,MacIntel,83.33333333,Safari,1440,900,,,,,0,612,,,,,,,,,,,,,,,,,167,S,star,1,0,,,,,,,,,,,,,,,,repeat,letter,lettRpt,k,0.594,noRew,,,,,,0,46,0,46,0,1,,,,,,,,,,,,,,,,,
296845,2022-11-27_23h13.57.362,vts_reward_expectancy_bt,2022.2.4,MacIntel,83.33333333,Safari,1440,900,,,,,0,612,,,,,,,,,,,,,,,,,132,Y,hexagon,1,0,,,,,,,,,,,,,,,,switch,number,numSwt,d,1.141,noRew,,,,,,0,47,0,47,0,1,,,,,,,,,,,,,,,,,
296845,2022-11-27_23h13.57.362,vts_reward_expectancy_bt,2022.2.4,MacIntel,83.33333333,Safari,1440,900,,,,,0,612,,,,,,,,,,,,,,,,,139,F,triangle,1,0,,,,,,,,,,,,,,,,repeat,number,numRpt,d,1.158,noRew,,,,,,0,48,0,48,0,1,,,,,,,,,,,,,,,,,
296845,2022-11-27_23h13.57.362,vts_reward_expectancy_bt,2022.2.4,MacIntel,83.33333333,Safari,1440,900,,,,,0,612,,,,,,,,,,,,,,,,,146,S,hexagon,1,0,,,,,,,,,,,,,,,,repeat,number,numRpt,d,1.178,noRew,,,,,,0,49,0,49,0,1,,,,,,,,,,,,,,,,,
296845,2022-11-27_23h13.57.362,vts_reward_expectancy_bt,2022.2.4,MacIntel,83.33333333,Safari,1440,900,,,,,0,612,,,,,,,,,,,,,,,,,174,U,star,1,0,,,,,,,,,,,,,,,,switch,letter,lettSwt,k,1.314,noRew,,,,,,0,50,0,50,0,1,,,,,,,,,,,,,,,,,
296845,2022-11-27_23h13.57.362,vts_reward_expectancy_bt,2022.2.4,MacIntel,83.33333333,Safari,1440,900,,,,,0,612,,,,,,,,,,,,,,,,,160,B,triangle,1,0,,,,,,,,,,,,,,,,repeat,letter,lettRpt,j,1.059,noRew,,,,,,0,51,0,51,0,1,,,,,,,,,,,,,,,,,
296845,2022-11-27_23h13.57.362,vts_reward_expectancy_bt,2022.2.4,MacIntel,83.33333333,Safari,1440,900,,,,,0,612,,,,,,,,,,,,,,,,,125,D,hexagon,1,0,,,,,,,,,,,,,,,,repeat,letter,lettRpt,j,0.891,noRew,,,,,,0,52,0,52,0,1,,,,,,,,,,,,,,,,,
296845,2022-11-27_23h13.57.362,vts_reward_expectancy_bt,2022.2.4,MacIntel,83.33333333,Safari,1440,900,,,,,0,612,,,,,,,,,,,,,,,,,132,Y,star,1,0,,,,,,,,,,,,,,,,repeat,letter,lettRpt,k,1.224,noRew,,,,,,0,53,0,53,0,1,,,,,,,,,,,,,,,,,
296845,2022-11-27_23h13.57.362,vts_reward_expectancy_bt,2022.2.4,MacIntel,83.33333333,Safari,1440,900,,,,,0,612,,,,,,,,,,,,,,,,,167,U,triangle,1,0,,,,,,,,,,,,,,,,repeat,letter,lettRpt,k,1.253,noRew,,,,,,0,54,0,54,0,1,,,,,,,,,,,,,,,,,
296845,2022-11-27_23h13.57.362,vts_reward_expectancy_bt,2022.2.4,MacIntel,83.33333333,Safari,1440,900,,,,,0,612,,,,,,,,,,,,,,,,,146,F,star,1,0,,,,,,,,,,,,,,,,repeat,letter,lettRpt,j,1.688,noRew,,,,,,0,55,0,55,0,1,,,,,,,,,,,,,,,,,
296845,2022-11-27_23h13.57.362,vts_reward_expectancy_bt,2022.2.4,MacIntel,83.33333333,Safari,1440,900,,,,,0,612,,,,,,,,,,,,,,,,,181,U,star,1,0,,,,,,,,,,,,,,,,switch,number,numSwt,f,1.373,noRew,,,,,,0,56,0,56,0,1,,,,,,,,,,,,,,,,,
296845,2022-11-27_23h13.57.362,vts_reward_expectancy_bt,2022.2.4,MacIntel,83.33333333,Safari,1440,900,,,,,0,612,,,,,,,,,,,,,,,,,160,F,hexagon,1,0,,,,,,,,,,,,,,,,switch,letter,lettSwt,j,1.056,noRew,,,,,,0,57,0,57,0,1,,,,,,,,,,,,,,,,,
296845,2022-11-27_23h13.57.362,vts_reward_expectancy_bt,2022.2.4,MacIntel,83.33333333,Safari,1440,900,,,,,0,612,,,,,,,,,,,,,,,,,125,H,star,1,0,,,,,,,,,,,,,,,,repeat,letter,lettRpt,j,2.175,noRew,,,,,,0,58,0,58,0,1,,,,,,,,,,,,,,,,,
296845,2022-11-27_23h13.57.362,vts_reward_expectancy_bt,2022.2.4,MacIntel,83.33333333,Safari,1440,900,,,,,0,612,,,,,,,,,,,,,,,,,167,Y,circle,1,0,,,,,,,,,,,,,,,,switch,number,numSwt,f,1.04,noRew,,,,,,0,59,0,59,0,1,,,,,,,,,,,,,,,,,
296845,2022-11-27_23h13.57.362,vts_reward_expectancy_bt,2022.2.4,MacIntel,83.33333333,Safari,1440,900,,,,,0,612,,,,,,,,,,,,,,,,,139,F,triangle,1,0,,,,,,,,,,,,,,,,switch,letter,lettSwt,j,1.361,noRew,,,,,,0,60,0,60,0,1,,,,,,,,,,,,,,,,,
296845,2022-11-27_23h13.57.362,vts_reward_expectancy_bt,2022.2.4,MacIntel,83.33333333,Safari,1440,900,,,,,0,612,,,,,,,,,,,,,,,,,160,D,hexagon,1,0,,,,,,,,,,,,,,,,repeat,letter,lettRpt,j,1.61,noRew,,,,,,0,61,0,61,0,1,,,,,,,,,,,,,,,,,
296845,2022-11-27_23h13.57.362,vts_reward_expectancy_bt,2022.2.4,MacIntel,83.33333333,Safari,1440,900,,,,,0,612,,,,,,,,,,,,,,,,,174,W,star,1,0,,,,,,,,,,,,,,,,repeat,letter,lettRpt,k,1.073,noRew,,,,,,0,62,0,62,0,1,,,,,,,,,,,,,,,,,
296845,2022-11-27_23h13.57.362,vts_reward_expectancy_bt,2022.2.4,MacIntel,83.33333333,Safari,1440,900,,,,,0,612,,,,,,,,,,,,,,,,,146,Y,triangle,-1,0,,,,,,,,,,,,,,,,switch,no_choice,NA,,,noRew,,,,,,0,63,0,63,0,1,,,,,,,,,,,,,,,,,
296845,2022-11-27_23h13.57.362,vts_reward_expectancy_bt,2022.2.4,MacIntel,83.33333333,Safari,1440,900,,,,,,,,,,,,,,,,,,,,,,,,,,,,,,,,,,,,,,,,,,,,,,,,,,,,,,,,,,,,,,,,,,,,,,,,,,,,
296845,2022-11-27_23h13.57.362,vts_reward_expectancy_bt,2022.2.4,MacIntel,83.33333333,Safari,1440,900,,,,,1,613,,,,,,,,,,,,,,,,,125,D,star,1,0,,,,,,,,,,,,,,,,switch,number,numSwt,d,1.636,Lo,,,,,,0,,,,,,space,5.848,high,0,0,0,0,1,,,,,,,,,
296845,2022-11-27_23h13.57.362,vts_reward_expectancy_bt,2022.2.4,MacIntel,83.33333333,Safari,1440,900,,,,,0,613,,,,,,,,,,,,,,,,,139,W,triangle,1,0,,,,,,,,,,,,,,,,repeat,number,numRpt,d,0.672,Hi,,,,,,0,,,,,,,,high,1,0,1,0,1,,,,,,,,,
296845,2022-11-27_23h13.57.362,vts_reward_expectancy_bt,2022.2.4,MacIntel,83.33333333,Safari,1440,900,,,,,1,614,,,,,,,,,,,,,,,,,167,H,hexagon,1,0,,,,,,,,,,,,,,,,switch,letter,lettSwt,j,0.589,Hi,,,,,,0,,,,,,,,high,2,0,2,0,1,,,,,,,,,
296845,2022-11-27_23h13.57.362,vts_reward_expectancy_bt,2022.2.4,MacIntel,83.33333333,Safari,1440,900,,,,,1,615,,,,,,,,,,,,,,,,,181,U,circle,1,0,,,,,,,,,,,,,,,,repeat,letter,lettRpt,k,0.49,Lo,,,,,,0,,,,,,,,high,3,0,3,0,1,,,,,,,,,
296845,2022-11-27_23h13.57.362,vts_reward_expectancy_bt,2022.2.4,MacIntel,83.33333333,Safari,1440,900,,,,,0,615,,,,,,,,,,,,,,,,,132,S,star,0,0,,,,,,,,,,,,,,,,repeat,letter,NA,j,0.422,Lo,,,,,,0,,,,,,,,high,4,0,4,0,1,,,,,,,,,
296845,2022-11-27_23h13.57.362,vts_reward_expectancy_bt,2022.2.4,MacIntel,83.33333333,Safari,1440,900,,,,,10,625,,,,,,,,,,,,,,,,,146,B,triangle,1,1,,,,,,,,,,,,,,,,switch,number,numSwt,d,0.47,Hi,,,,,,0,,,,,,,,high,5,0,5,0,1,,,,,,,,,
296845,2022-11-27_23h13.57.362,vts_reward_expectancy_bt,2022.2.4,MacIntel,83.33333333,Safari,1440,900,,,,,10,635,,,,,,,,,,,,,,,,,174,Y,hexagon,1,0,,,,,,,,,,,,,,,,repeat,number,numRpt,f,0.656,Hi,,,,,,0,,,,,,,,high,6,0,6,0,1,,,,,,,,,
296845,2022-11-27_23h13.57.362,vts_reward_expectancy_bt,2022.2.4,MacIntel,83.33333333,Safari,1440,900,,,,,1,636,,,,,,,,,,,,,,,,,160,F,circle,1,0,,,,,,,,,,,,,,,,switch,letter,lettSwt,j,0.724,Lo,,,,,,0,,,,,,,,high,7,0,7,0,1,,,,,,,,,
296845,2022-11-27_23h13.57.362,vts_reward_expectancy_bt,2022.2.4,MacIntel,83.33333333,Safari,1440,900,,,,,10,646,,,,,,,,,,,,,,,,,125,D,circle,1,0,,,,,,,,,,,,,,,,switch,number,numSwt,d,0.498,Lo,,,,,,0,,,,,,,,high,8,0,8,0,1,,,,,,,,,
296845,2022-11-27_23h13.57.362,vts_reward_expectancy_bt,2022.2.4,MacIntel,83.33333333,Safari,1440,900,,,,,1,647,,,,,,,,,,,,,,,,,139,W,star,1,0,,,,,,,,,,,,,,,,repeat,number,numRpt,d,0.64,Lo,,,,,,0,,,,,,,,high,9,0,9,0,1,,,,,,,,,
296845,2022-11-27_23h13.57.362,vts_reward_expectancy_bt,2022.2.4,MacIntel,83.33333333,Safari,1440,900,,,,,10,657,,,,,,,,,,,,,,,,,167,H,triangle,1,0,,,,,,,,,,,,,,,,repeat,number,numRpt,f,0.522,Hi,,,,,,0,,,,,,,,high,10,0,10,0,1,,,,,,,,,
296845,2022-11-27_23h13.57.362,vts_reward_expectancy_bt,2022.2.4,MacIntel,83.33333333,Safari,1440,900,,,,,10,667,,,,,,,,,,,,,,,,,181,U,hexagon,1,0,,,,,,,,,,,,,,,,repeat,number,numRpt,f,0.451,Hi,,,,,,0,,,,,,,,high,11,0,11,0,1,,,,,,,,,
296845,2022-11-27_23h13.57.362,vts_reward_expectancy_bt,2022.2.4,MacIntel,83.33333333,Safari,1440,900,,,,,10,677,,,,,,,,,,,,,,,,,132,S,hexagon,1,0,,,,,,,,,,,,,,,,repeat,number,numRpt,d,0.274,Hi,,,,,,0,,,,,,,,high,12,0,12,0,1,,,,,,,,,
296845,2022-11-27_23h13.57.362,vts_reward_expectancy_bt,2022.2.4,MacIntel,83.33333333,Safari,1440,900,,,,,0,677,,,,,,,,,,,,,,,,,146,B,triangle,0,0,,,,,,,,,,,,,,,,repeat,number,NA,f,0.543,Hi,,,,,,0,,,,,,,,high,13,0,13,0,1,,,,,,,,,
296845,2022-11-27_23h13.57.362,vts_reward_expectancy_bt,2022.2.4,MacIntel,83.33333333,Safari,1440,900,,,,,1,678,,,,,,,,,,,,,,,,,174,Y,circle,1,1,,,,,,,,,,,,,,,,repeat,number,numRpt,f,0.573,Lo,,,,,,0,,,,,,,,high,14,0,14,0,1,,,,,,,,,
296845,2022-11-27_23h13.57.362,vts_reward_expectancy_bt,2022.2.4,MacIntel,83.33333333,Safari,1440,900,,,,,1,679,,,,,,,,,,,,,,,,,160,F,star,1,0,,,,,,,,,,,,,,,,repeat,number,numRpt,f,0.541,Lo,,,,,,0,,,,,,,,high,15,0,15,0,1,,,,,,,,,
296845,2022-11-27_23h13.57.362,vts_reward_expectancy_bt,2022.2.4,MacIntel,83.33333333,Safari,1440,900,,,,,1,680,,,,,,,,,,,,,,,,,125,S,triangle,1,0,,,,,,,,,,,,,,,,repeat,number,numRpt,d,0.273,Hi,,,,,,0,,,,,,,,high,16,0,16,0,1,,,,,,,,,
296845,2022-11-27_23h13.57.362,vts_reward_expectancy_bt,2022.2.4,MacIntel,83.33333333,Safari,1440,900,,,,,1,681,,,,,,,,,,,,,,,,,139,Y,circle,1,0,,,,,,,,,,,,,,,,switch,letter,lettSwt,k,0.559,Lo,,,,,,0,,,,,,,,high,17,0,17,0,1,,,,,,,,,
296845,2022-11-27_23h13.57.362,vts_reward_expectancy_bt,2022.2.4,MacIntel,83.33333333,Safari,1440,900,,,,,10,691,,,,,,,,,,,,,,,,,146,F,star,1,0,,,,,,,,,,,,,,,,repeat,letter,lettRpt,j,0.962,Lo,,,,,,0,,,,,,,,high,18,0,18,0,1,,,,,,,,,
296845,2022-11-27_23h13.57.362,vts_reward_expectancy_bt,2022.2.4,MacIntel,83.33333333,Safari,1440,900,,,,,10,701,,,,,,,,,,,,,,,,,181,D,hexagon,1,0,,,,,,,,,,,,,,,,switch,number,numSwt,f,0.476,Hi,,,,,,0,,,,,,,,high,19,0,19,0,1,,,,,,,,,
296845,2022-11-27_23h13.57.362,vts_reward_expectancy_bt,2022.2.4,MacIntel,83.33333333,Safari,1440,900,,,,,1,702,,,,,,,,,,,,,,,,,160,B,star,1,0,,,,,,,,,,,,,,,,switch,letter,lettSwt,j,0.459,Lo,,,,,,0,,,,,,,,high,20,0,20,0,1,,,,,,,,,
296845,2022-11-27_23h13.57.362,vts_reward_expectancy_bt,2022.2.4,MacIntel,83.33333333,Safari,1440,900,,,,,10,712,,,,,,,,,,,,,,,,,174,W,hexagon,1,0,,,,,,,,,,,,,,,,repeat,letter,lettRpt,k,0.507,Hi,,,,,,0,,,,,,,,high,21,0,21,0,1,,,,,,,,,
296845,2022-11-27_23h13.57.362,vts_reward_expectancy_bt,2022.2.4,MacIntel,83.33333333,Safari,1440,900,,,,,1,713,,,,,,,,,,,,,,,,,167,U,circle,1,0,,,,,,,,,,,,,,,,switch,number,numSwt,f,0.474,Lo,,,,,,0,,,,,,,,high,22,0,22,0,1,,,,,,,,,
296845,2022-11-27_23h13.57.362,vts_reward_expectancy_bt,2022.2.4,MacIntel,83.33333333,Safari,1440,900,,,,,0,713,,,,,,,,,,,,,,,,,132,H,triangle,0,0,,,,,,,,,,,,,,,,repeat,number,NA,f,0.415,Lo,,,,,,0,,,,,,,,high,23,0,23,0,1,,,,,,,,,
296845,2022-11-27_23h13.57.362,vts_reward_expectancy_bt,2022.2.4,MacIntel,83.33333333,Safari,1440,900,,,,,0,713,,,,,,,,,,,,,,,,,167,S,star,0,1,,,,,,,,,,,,,,,,repeat,number,NA,d,0.508,Lo,,,,,,0,,,,,,,,high,24,0,24,0,1,,,,,,,,,
296845,2022-11-27_23h13.57.362,vts_reward_expectancy_bt,2022.2.4,MacIntel,83.33333333,Safari,1440,900,,,,,0,713,,,,,,,,,,,,,,,,,146,H,hexagon,1,1,,,,,,,,,,,,,,,,switch,letter,lettSwt,j,1.026,Hi,,,,,,0,,,,,,,,high,25,0,25,0,1,,,,,,,,,
296845,2022-11-27_23h13.57.362,vts_reward_expectancy_bt,2022.2.4,MacIntel,83.33333333,Safari,1440,900,,,,,10,723,,,,,,,,,,,,,,,,,174,D,triangle,1,0,,,,,,,,,,,,,,,,switch,number,numSwt,f,0.542,Hi,,,,,,0,,,,,,,,high,26,0,26,0,1,,,,,,,,,
296845,2022-11-27_23h13.57.362,vts_reward_expectancy_bt,2022.2.4,MacIntel,83.33333333,Safari,1440,900,,,,,1,724,,,,,,,,,,,,,,,,,160,B,circle,1,0,,,,,,,,,,,,,,,,repeat,number,numRpt,f,0.553,Lo,,,,,,0,,,,,,,,high,27,0,27,0,1,,,,,,,,,
296845,2022-11-27_23h13.57.362,vts_reward_expectancy_bt,2022.2.4,MacIntel,83.33333333,Safari,1440,900,,,,,10,734,,,,,,,,,,,,,,,,,181,W,triangle,1,0,,,,,,,,,,,,,,,,switch,letter,lettSwt,k,0.551,Hi,,,,,,0,,,,,,,,high,28,0,28,0,1,,,,,,,,,
296845,2022-11-27_23h13.57.362,vts_reward_expectancy_bt,2022.2.4,MacIntel,83.33333333,Safari,1440,900,,,,,0,734,,,,,,,,,,,,,,,,,132,U,hexagon,0,0,,,,,,,,,,,,,,,,repeat,letter,NA,j,0.405,Hi,,,,,,0,,,,,,,,high,29,0,29,0,1,,,,,,,,,
296845,2022-11-27_23h13.57.362,vts_reward_expectancy_bt,2022.2.4,MacIntel,83.33333333,Safari,1440,900,,,,,10,744,,,,,,,,,,,,,,,,,125,Y,star,1,1,,,,,,,,,,,,,,,,repeat,letter,lettRpt,k,0.478,Lo,,,,,,0,,,,,,,,high,30,0,30,0,1,,,,,,,,,
296845,2022-11-27_23h13.57.362,vts_reward_expectancy_bt,2022.2.4,MacIntel,83.33333333,Safari,1440,900,,,,,0,744,,,,,,,,,,,,,,,,,139,F,circle,0,0,,,,,,,,,,,,,,,,switch,number,NA,f,0.511,Lo,,,,,,0,,,,,,,,high,31,0,31,0,1,,,,,,,,,
296845,2022-11-27_23h13.57.362,vts_reward_expectancy_bt,2022.2.4,MacIntel,83.33333333,Safari,1440,900,,,,,0,744,,,,,,,,,,,,,,,,,125,F,triangle,1,1,,,,,,,,,,,,,,,,switch,letter,lettSwt,j,0.951,Hi,,,,,,1,,,,,,space,2.197,high,0,0,0,0,1,,,,,,,,,
296845,2022-11-27_23h13.57.362,vts_reward_expectancy_bt,2022.2.4,MacIntel,83.33333333,Safari,1440,900,,,,,1,745,,,,,,,,,,,,,,,,,132,B,circle,1,0,,,,,,,,,,,,,,,,switch,number,numSwt,d,0.479,Lo,,,,,,1,,,,,,,,high,1,0,1,0,1,,,,,,,,,
296845,2022-11-27_23h13.57.362,vts_reward_expectancy_bt,2022.2.4,MacIntel,83.33333333,Safari,1440,900,,,,,1,746,,,,,,,,,,,,,,,,,160,S,star,1,0,,,,,,,,,,,,,,,,repeat,number,numRpt,f,0.76,Lo,,,,,,1,,,,,,,,high,2,0,2,0,1,,,,,,,,,
296845,2022-11-27_23h13.57.362,vts_reward_expectancy_bt,2022.2.4,MacIntel,83.33333333,Safari,1440,900,,,,,0,746,,,,,,,,,,,,,,,,,146,U,hexagon,1,0,,,,,,,,,,,,,,,,repeat,number,numRpt,d,0.559,Hi,,,,,,1,,,,,,,,high,3,0,3,0,1,,,,,,,,,
296845,2022-11-27_23h13.57.362,vts_reward_expectancy_bt,2022.2.4,MacIntel,83.33333333,Safari,1440,900,,,,,10,756,,,,,,,,,,,,,,,,,181,Y,triangle,1,0,,,,,,,,,,,,,,,,repeat,number,numRpt,f,0.44,Hi,,,,,,1,,,,,,,,high,4,0,4,0,1,,,,,,,,,
296845,2022-11-27_23h13.57.362,vts_reward_expectancy_bt,2022.2.4,MacIntel,83.33333333,Safari,1440,900,,,,,1,757,,,,,,,,,,,,,,,,,139,D,circle,1,0,,,,,,,,,,,,,,,,repeat,number,numRpt,d,0.658,Lo,,,,,,1,,,,,,,,high,5,0,5,0,1,,,,,,,,,
296845,2022-11-27_23h13.57.362,vts_reward_expectancy_bt,2022.2.4,MacIntel,83.33333333,Safari,1440,900,,,,,1,758,,,,,,,,,,,,,,,,,167,W,star,1,0,,,,,,,,,,,,,,,,switch,letter,lettSwt,k,0.48,Lo,,,,,,1,,,,,,,,high,6,0,6,0,1,,,,,,,,,
296845,2022-11-27_23h13.57.362,vts_reward_expectancy_bt,2022.2.4,MacIntel,83.33333333,Safari,1440,900,,,,,0,758,,,,,,,,,,,,,,,,,174,H,hexagon,1,0,,,,,,,,,,,,,,,,switch,number,numSwt,f,0.509,Hi,,,,,,1,,,,,,,,high,7,0,7,0,1,,,,,,,,,
296845,2022-11-27_23h13.57.362,vts_reward_expectancy_bt,2022.2.4,MacIntel,83.33333333,Safari,1440,900,,,,,10,768,,,,,,,,,,,,,,,,,125,F,star,1,0,,,,,,,,,,,,,,,,repeat,number,numRpt,d,0.496,Lo,,,,,,1,,,,,,,,high,8,0,8,0,1,,,,,,,,,
296845,2022-11-27_23h13.57.362,vts_reward_expectancy_bt,2022.2.4,MacIntel,83.33333333,Safari,1440,900,,,,,10,778,,,,,,,,,,,,,,,,,132,B,circle,1,0,,,,,,,,,,,,,,,,repeat,number,numRpt,d,0.475,Lo,,,,,,1,,,,,,,,high,9,0,9,0,1,,,,,,,,,
296845,2022-11-27_23h13.57.362,vts_reward_expectancy_bt,2022.2.4,MacIntel,83.33333333,Safari,1440,900,,,,,10,788,,,,,,,,,,,,,,,,,160,S,triangle,1,0,,,,,,,,,,,,,,,,repeat,number,numRpt,f,0.327,Hi,,,,,,1,,,,,,,,high,10,0,10,0,1,,,,,,,,,
296845,2022-11-27_23h13.57.362,vts_reward_expectancy_bt,2022.2.4,MacIntel,83.33333333,Safari,1440,900,,,,,10,798,,,,,,,,,,,,,,,,,146,U,hexagon,1,0,,,,,,,,,,,,,,,,switch,letter,lettSwt,k,0.468,Hi,,,,,,1,,,,,,,,high,11,0,11,0,1,,,,,,,,,
296845,2022-11-27_23h13.57.362,vts_reward_expectancy_bt,2022.2.4,MacIntel,83.33333333,Safari,1440,900,,,,,10,808,,,,,,,,,,,,,,,,,181,Y,star,1,0,,,,,,,,,,,,,,,,switch,number,numSwt,f,0.506,Lo,,,,,,1,,,,,,,,high,12,0,12,0,1,,,,,,,,,
296845,2022-11-27_23h13.57.362,vts_reward_expectancy_bt,2022.2.4,MacIntel,83.33333333,Safari,1440,900,,,,,0,808,,,,,,,,,,,,,,,,,139,D,hexagon,0,0,,,,,,,,,,,,,,,,repeat,number,NA,f,0.447,Lo,,,,,,1,,,,,,,,high,13,0,13,0,1,,,,,,,,,
296845,2022-11-27_23h13.57.362,vts_reward_expectancy_bt,2022.2.4,MacIntel,83.33333333,Safari,1440,900,,,,,1,809,,,,,,,,,,,,,,,,,167,W,triangle,1,1,,,,,,,,,,,,,,,,switch,letter,lettSwt,k,0.375,Hi,,,,,,1,,,,,,,,high,14,0,14,0,1,,,,,,,,,
296845,2022-11-27_23h13.57.362,vts_reward_expectancy_bt,2022.2.4,MacIntel,83.33333333,Safari,1440,900,,,,,0,809,,,,,,,,,,,,,,,,,174,H,circle,0,0,,,,,,,,,,,,,,,,repeat,letter,NA,k,0.436,Hi,,,,,,1,,,,,,,,high,15,0,15,0,1,,,,,,,,,
296845,2022-11-27_23h13.57.362,vts_reward_expectancy_bt,2022.2.4,MacIntel,83.33333333,Safari,1440,900,,,,,10,819,,,,,,,,,,,,,,,,,146,S,circle,1,1,,,,,,,,,,,,,,,,switch,number,numSwt,d,1.051,Lo,,,,,,1,,,,,,,,high,16,0,16,0,1,,,,,,,,,
296845,2022-11-27_23h13.57.362,vts_reward_expectancy_bt,2022.2.4,MacIntel,83.33333333,Safari,1440,900,,,,,1,820,,,,,,,,,,,,,,,,,181,B,star,1,0,,,,,,,,,,,,,,,,switch,letter,lettSwt,j,0.558,Lo,,,,,,1,,,,,,,,high,17,0,17,0,1,,,,,,,,,
296845,2022-11-27_23h13.57.362,vts_reward_expectancy_bt,2022.2.4,MacIntel,83.33333333,Safari,1440,900,,,,,0,820,,,,,,,,,,,,,,,,,125,H,triangle,1,0,,,,,,,,,,,,,,,,repeat,letter,lettRpt,j,0.794,Hi,,,,,,1,,,,,,,,high,18,0,18,0,1,,,,,,,,,
296845,2022-11-27_23h13.57.362,vts_reward_expectancy_bt,2022.2.4,MacIntel,83.33333333,Safari,1440,900,,,,,0,820,,,,,,,,,,,,,,,,,139,W,hexagon,0,0,,,,,,,,,,,,,,,,repeat,letter,NA,j,0.445,Hi,,,,,,1,,,,,,,,high,19,0,19,0,1,,,,,,,,,
296845,2022-11-27_23h13.57.362,vts_reward_expectancy_bt,2022.2.4,MacIntel,83.33333333,Safari,1440,900,,,,,0,820,,,,,,,,,,,,,,,,,167,D,circle,0,1,,,,,,,,,,,,,,,,switch,number,NA,d,0.509,Hi,,,,,,1,,,,,,,,high,20,0,20,0,1,,,,,,,,,
296845,2022-11-27_23h13.57.362,vts_reward_expectancy_bt,2022.2.4,MacIntel,83.33333333,Safari,1440,900,,,,,0,820,,,,,,,,,,,,,,,,,132,F,hexagon,1,1,,,,,,,,,,,,,,,,repeat,number,numRpt,d,0.525,Hi,,,,,,1,,,,,,,,high,21,0,21,0,1,,,,,,,,,
296845,2022-11-27_23h13.57.362,vts_reward_expectancy_bt,2022.2.4,MacIntel,83.33333333,Safari,1440,900,,,,,1,821,,,,,,,,,,,,,,,,,160,Y,star,1,0,,,,,,,,,,,,,,,,repeat,number,numRpt,f,0.554,Lo,,,,,,1,,,,,,,,high,22,0,22,0,1,,,,,,,,,
296845,2022-11-27_23h13.57.362,vts_reward_expectancy_bt,2022.2.4,MacIntel,83.33333333,Safari,1440,900,,,,,0,821,,,,,,,,,,,,,,,,,174,U,triangle,1,0,,,,,,,,,,,,,,,,switch,letter,lettSwt,k,0.575,Hi,,,,,,1,,,,,,,,high,23,0,23,0,1,,,,,,,,,
296845,2022-11-27_23h13.57.362,vts_reward_expectancy_bt,2022.2.4,MacIntel,83.33333333,Safari,1440,900,,,,,0,821,,,,,,,,,,,,,,,,,174,W,triangle,1,0,,,,,,,,,,,,,,,,repeat,letter,lettRpt,k,0.501,Hi,,,,,,1,,,,,,,,high,24,0,24,0,1,,,,,,,,,
296845,2022-11-27_23h13.57.362,vts_reward_expectancy_bt,2022.2.4,MacIntel,83.33333333,Safari,1440,900,,,,,1,822,,,,,,,,,,,,,,,,,146,U,star,1,0,,,,,,,,,,,,,,,,repeat,letter,lettRpt,k,0.455,Lo,,,,,,1,,,,,,,,high,25,0,25,0,1,,,,,,,,,
296845,2022-11-27_23h13.57.362,vts_reward_expectancy_bt,2022.2.4,MacIntel,83.33333333,Safari,1440,900,,,,,1,823,,,,,,,,,,,,,,,,,160,D,circle,1,0,,,,,,,,,,,,,,,,switch,number,numSwt,f,0.321,Lo,,,,,,1,,,,,,,,high,26,0,26,0,1,,,,,,,,,
296845,2022-11-27_23h13.57.362,vts_reward_expectancy_bt,2022.2.4,MacIntel,83.33333333,Safari,1440,900,,,,,10,833,,,,,,,,,,,,,,,,,181,S,hexagon,1,0,,,,,,,,,,,,,,,,repeat,number,numRpt,f,0.506,Hi,,,,,,1,,,,,,,,high,27,0,27,0,1,,,,,,,,,
296845,2022-11-27_23h13.57.362,vts_reward_expectancy_bt,2022.2.4,MacIntel,83.33333333,Safari,1440,900,,,,,0,833,,,,,,,,,,,,,,,,,167,H,hexagon,1,0,,,,,,,,,,,,,,,,switch,letter,lettSwt,j,0.857,Hi,,,,,,1,,,,,,,,high,28,0,28,0,1,,,,,,,,,
296845,2022-11-27_23h13.57.362,vts_reward_expectancy_bt,2022.2.4,MacIntel,83.33333333,Safari,1440,900,,,,,0,833,,,,,,,,,,,,,,,,,125,B,triangle,1,0,,,,,,,,,,,,,,,,repeat,letter,lettRpt,j,0.541,Hi,,,,,,1,,,,,,,,high,29,0,29,0,1,,,,,,,,,
296845,2022-11-27_23h13.57.362,vts_reward_expectancy_bt,2022.2.4,MacIntel,83.33333333,Safari,1440,900,,,,,10,843,,,,,,,,,,,,,,,,,139,Y,circle,1,0,,,,,,,,,,,,,,,,repeat,letter,lettRpt,k,0.375,Lo,,,,,,1,,,,,,,,high,30,0,30,0,1,,,,,,,,,
296845,2022-11-27_23h13.57.362,vts_reward_expectancy_bt,2022.2.4,MacIntel,83.33333333,Safari,1440,900,,,,,0,843,,,,,,,,,,,,,,,,,132,F,star,0,0,,,,,,,,,,,,,,,,repeat,letter,NA,k,0.53,Lo,,,,,,1,,,,,,,,high,31,0,31,0,1,,,,,,,,,
296845,2022-11-27_23h13.57.362,vts_reward_expectancy_bt,2022.2.4,MacIntel,83.33333333,Safari,1440,900,,,,,0,843,,,,,,,,,,,,,,,,,167,Y,circle,0,1,,,,,,,,,,,,,,,,switch,number,NA,d,0.429,Lo,,,,,,2,,,,,,space,2.334,high,0,0,0,0,1,,,,,,,,,
296845,2022-11-27_23h13.57.362,vts_reward_expectancy_bt,2022.2.4,MacIntel,83.33333333,Safari,1440,900,,,,,1,844,,,,,,,,,,,,,,,,,125,S,star,1,1,,,,,,,,,,,,,,,,repeat,number,numRpt,d,0.544,Lo,,,,,,2,,,,,,,,high,1,0,1,0,1,,,,,,,,,
296845,2022-11-27_23h13.57.362,vts_reward_expectancy_bt,2022.2.4,MacIntel,83.33333333,Safari,1440,900,,,,,0,844,,,,,,,,,,,,,,,,,146,D,triangle,1,0,,,,,,,,,,,,,,,,repeat,number,numRpt,d,0.625,Hi,,,,,,2,,,,,,,,high,2,0,2,0,1,,,,,,,,,
296845,2022-11-27_23h13.57.362,vts_reward_expectancy_bt,2022.2.4,MacIntel,83.33333333,Safari,1440,900,,,,,10,854,,,,,,,,,,,,,,,,,181,F,hexagon,1,0,,,,,,,,,,,,,,,,repeat,number,numRpt,f,0.441,Hi,,,,,,2,,,,,,,,high,3,0,3,0,1,,,,,,,,,
296845,2022-11-27_23h13.57.362,vts_reward_expectancy_bt,2022.2.4,MacIntel,83.33333333,Safari,1440,900,,,,,10,864,,,,,,,,,,,,,,,,,139,U,circle,1,0,,,,,,,,,,,,,,,,switch,letter,lettSwt,k,0.456,Lo,,,,,,2,,,,,,,,high,4,0,4,0,1,,,,,,,,,
296845,2022-11-27_23h13.57.362,vts_reward_expectancy_bt,2022.2.4,MacIntel,83.33333333,Safari,1440,900,,,,,1,865,,,,,,,,,,,,,,,,,160,W,star,1,0,,,,,,,,,,,,,,,,repeat,letter,lettRpt,k,0.517,Lo,,,,,,2,,,,,,,,high,5,0,5,0,1,,,,,,,,,
296845,2022-11-27_23h13.57.362,vts_reward_expectancy_bt,2022.2.4,MacIntel,83.33333333,Safari,1440,900,,,,,0,865,,,,,,,,,,,,,,,,,174,B,triangle,0,0,,,,,,,,,,,,,,,,switch,number,NA,d,0.593,Lo,,,,,,2,,,,,,,,high,6,0,6,0,1,,,,,,,,,
296845,2022-11-27_23h13.57.362,vts_reward_expectancy_bt,2022.2.4,MacIntel,83.33333333,Safari,1440,900,,,,,10,875,,,,,,,,,,,,,,,,,132,H,hexagon,1,1,,,,,,,,,,,,,,,,repeat,number,numRpt,d,0.394,Hi,,,,,,2,,,,,,,,high,7,0,7,0,1,,,,,,,,,
296845,2022-11-27_23h13.57.362,vts_reward_expectancy_bt,2022.2.4,MacIntel,83.33333333,Safari,1440,900,,,,,1,876,,,,,,,,,,,,,,,,,167,Y,star,1,0,,,,,,,,,,,,,,,,repeat,number,numRpt,f,0.621,Lo,,,,,,2,,,,,,,,high,8,0,8,0,1,,,,,,,,,
296845,2022-11-27_23h13.57.362,vts_reward_expectancy_bt,2022.2.4,MacIntel,83.33333333,Safari,1440,900,,,,,0,876,,,,,,,,,,,,,,,,,125,S,triangle,1,0,,,,,,,,,,,,,,,,switch,letter,lettSwt,k,0.559,Hi,,,,,,2,,,,,,,,high,9,0,9,0,1,,,,,,,,,
296845,2022-11-27_23h13.57.362,vts_reward_expectancy_bt,2022.2.4,MacIntel,83.33333333,Safari,1440,900,,,,,0,876,,,,,,,,,,,,,,,,,146,D,hexagon,1,0,,,,,,,,,,,,,,,,repeat,letter,lettRpt,j,0.607,Hi,,,,,,2,,,,,,,,high,10,0,10,0,1,,,,,,,,,
296845,2022-11-27_23h13.57.362,vts_reward_expectancy_bt,2022.2.4,MacIntel,83.33333333,Safari,1440,900,,,,,0,876,,,,,,,,,,,,,,,,,181,F,circle,0,0,,,,,,,,,,,,,,,,repeat,letter,NA,k,0.468,Hi,,,,,,2,,,,,,,,high,11,0,11,0,1,,,,,,,,,
296845,2022-11-27_23h13.57.362,vts_reward_expectancy_bt,2022.2.4,MacIntel,83.33333333,Safari,1440,900,,,,,0,876,,,,,,,,,,,,,,,,,139,U,triangle,1,1,,,,,,,,,,,,,,,,repeat,letter,lettRpt,k,0.51,Hi,,,,,,2,,,,,,,,high,12,0,12,0,1,,,,,,,,,
296845,2022-11-27_23h13.57.362,vts_reward_expectancy_bt,2022.2.4,MacIntel,83.33333333,Safari,1440,900,,,,,1,877,,,,,,,,,,,,,,,,,160,W,circle,1,0,,,,,,,,,,,,,,,,repeat,letter,lettRpt,k,0.381,Lo,,,,,,2,,,,,,,,high,13,0,13,0,1,,,,,,,,,
296845,2022-11-27_23h13.57.362,vts_reward_expectancy_bt,2022.2.4,MacIntel,83.33333333,Safari,1440,900,,,,,0,877,,,,,,,,,,,,,,,,,174,B,hexagon,1,0,,,,,,,,,,,,,,,,repeat,letter,lettRpt,j,0.542,Hi,,,,,,2,,,,,,,,high,14,0,14,0,1,,,,,,,,,
296845,2022-11-27_23h13.57.362,vts_reward_expectancy_bt,2022.2.4,MacIntel,83.33333333,Safari,1440,900,,,,,1,878,,,,,,,,,,,,,,,,,132,H,star,1,0,,,,,,,,,,,,,,,,repeat,letter,lettRpt,j,0.64,Lo,,,,,,2,,,,,,,,high,15,0,15,0,1,,,,,,,,,
296845,2022-11-27_23h13.57.362,vts_reward_expectancy_bt,2022.2.4,MacIntel,83.33333333,Safari,1440,900,,,,,0,878,,,,,,,,,,,,,,,,,174,B,hexagon,0,0,,,,,,,,,,,,,,,,repeat,letter,NA,k,0.403,Lo,,,,,,2,,,,,,,,high,16,0,16,0,1,,,,,,,,,
296845,2022-11-27_23h13.57.362,vts_reward_expectancy_bt,2022.2.4,MacIntel,83.33333333,Safari,1440,900,,,,,1,879,,,,,,,,,,,,,,,,,146,D,circle,1,1,,,,,,,,,,,,,,,,repeat,letter,lettRpt,j,0.58,Lo,,,,,,2,,,,,,,,high,17,0,17,0,1,,,,,,,,,
296845,2022-11-27_23h13.57.362,vts_reward_expectancy_bt,2022.2.4,MacIntel,83.33333333,Safari,1440,900,,,,,10,889,,,,,,,,,,,,,,,,,125,Y,star,1,0,,,,,,,,,,,,,,,,repeat,letter,lettRpt,k,0.56,Lo,,,,,,2,,,,,,,,high,18,0,18,0,1,,,,,,,,,
296845,2022-11-27_23h13.57.362,vts_reward_expectancy_bt,2022.2.4,MacIntel,83.33333333,Safari,1440,900,,,,,0,889,,,,,,,,,,,,,,,,,167,U,triangle,1,0,,,,,,,,,,,,,,,,repeat,letter,lettRpt,k,0.712,Hi,,,,,,2,,,,,,,,high,19,0,19,0,1,,,,,,,,,
296845,2022-11-27_23h13.57.362,vts_reward_expectancy_bt,2022.2.4,MacIntel,83.33333333,Safari,1440,900,,,,,0,889,,,,,,,,,,,,,,,,,160,S,hexagon,1,0,,,,,,,,,,,,,,,,repeat,letter,lettRpt,k,0.645,Hi,,,,,,2,,,,,,,,high,20,0,20,0,1,,,,,,,,,
296845,2022-11-27_23h13.57.362,vts_reward_expectancy_bt,2022.2.4,MacIntel,83.33333333,Safari,1440,900,,,,,0,889,,,,,,,,,,,,,,,,,139,H,triangle,0,0,,,,,,,,,,,,,,,,repeat,letter,NA,k,0.406,Hi,,,,,,2,,,,,,,,high,21,0,21,0,1,,,,,,,,,
296845,2022-11-27_23h13.57.362,vts_reward_expectancy_bt,2022.2.4,MacIntel,83.33333333,Safari,1440,900,,,,,10,899,,,,,,,,,,,,,,,,,181,F,circle,1,1,,,,,,,,,,,,,,,,repeat,letter,lettRpt,j,0.491,Lo,,,,,,2,,,,,,,,high,22,0,22,0,1,,,,,,,,,
296845,2022-11-27_23h13.57.362,vts_reward_expectancy_bt,2022.2.4,MacIntel,83.33333333,Safari,1440,900,,,,,1,900,,,,,,,,,,,,,,,,,132,W,star,1,0,,,,,,,,,,,,,,,,repeat,letter,lettRpt,k,0.527,Lo,,,,,,2,,,,,,,,high,23,0,23,0,1,,,,,,,,,
296845,2022-11-27_23h13.57.362,vts_reward_expectancy_bt,2022.2.4,MacIntel,83.33333333,Safari,1440,900,,,,,0,900,,,,,,,,,,,,,,,,,132,F,triangle,1,0,,,,,,,,,,,,,,,,switch,number,numSwt,d,0.965,Hi,,,,,,2,,,,,,,,high,24,0,24,0,1,,,,,,,,,
296845,2022-11-27_23h13.57.362,vts_reward_expectancy_bt,2022.2.4,MacIntel,83.33333333,Safari,1440,900,,,,,1,901,,,,,,,,,,,,,,,,,167,B,circle,1,0,,,,,,,,,,,,,,,,repeat,number,numRpt,f,0.358,Lo,,,,,,2,,,,,,,,high,25,0,25,0,1,,,,,,,,,
296845,2022-11-27_23h13.57.362,vts_reward_expectancy_bt,2022.2.4,MacIntel,83.33333333,Safari,1440,900,,,,,10,911,,,,,,,,,,,,,,,,,174,D,hexagon,1,0,,,,,,,,,,,,,,,,repeat,number,numRpt,f,0.481,Hi,,,,,,2,,,,,,,,high,26,0,26,0,1,,,,,,,,,
296845,2022-11-27_23h13.57.362,vts_reward_expectancy_bt,2022.2.4,MacIntel,83.33333333,Safari,1440,900,,,,,0,911,,,,,,,,,,,,,,,,,139,H,star,0,0,,,,,,,,,,,,,,,,repeat,number,NA,f,0.533,Hi,,,,,,2,,,,,,,,high,27,0,27,0,1,,,,,,,,,
296845,2022-11-27_23h13.57.362,vts_reward_expectancy_bt,2022.2.4,MacIntel,83.33333333,Safari,1440,900,,,,,10,921,,,,,,,,,,,,,,,,,160,U,hexagon,1,1,,,,,,,,,,,,,,,,repeat,number,numRpt,f,0.09,Hi,,,,,,2,,,,,,,,high,28,0,28,0,1,,,,,,,,,
296845,2022-11-27_23h13.57.362,vts_reward_expectancy_bt,2022.2.4,MacIntel,83.33333333,Safari,1440,900,,,,,0,921,,,,,,,,,,,,,,,,,181,S,star,0,0,,,,,,,,,,,,,,,,repeat,number,NA,d,0.239,Hi,,,,,,2,,,,,,,,high,29,0,29,0,1,,,,,,,,,
296845,2022-11-27_23h13.57.362,vts_reward_expectancy_bt,2022.2.4,MacIntel,83.33333333,Safari,1440,900,,,,,0,921,,,,,,,,,,,,,,,,,125,W,triangle,1,1,,,,,,,,,,,,,,,,repeat,number,numRpt,d,0.498,Hi,,,,,,2,,,,,,,,high,30,0,30,0,1,,,,,,,,,
296845,2022-11-27_23h13.57.362,vts_reward_expectancy_bt,2022.2.4,MacIntel,83.33333333,Safari,1440,900,,,,,0,921,,,,,,,,,,,,,,,,,146,Y,circle,0,0,,,,,,,,,,,,,,,,repeat,number,NA,f,0.302,Hi,,,,,,2,,,,,,,,high,31,0,31,0,1,,,,,,,,,
296845,2022-11-27_23h13.57.362,vts_reward_expectancy_bt,2022.2.4,MacIntel,83.33333333,Safari,1440,900,,,,,1,922,,,,,,,,,,,,,,,,,125,Y,circle,1,1,,,,,,,,,,,,,,,,switch,letter,lettSwt,k,0.568,Lo,,,,,,3,,,,,,space,3.498,high,0,0,0,0,1,,,,,,,,,
296845,2022-11-27_23h13.57.362,vts_reward_expectancy_bt,2022.2.4,MacIntel,83.33333333,Safari,1440,900,,,,,1,923,,,,,,,,,,,,,,,,,167,D,star,1,0,,,,,,,,,,,,,,,,switch,number,numSwt,f,0.559,Lo,,,,,,3,,,,,,,,high,1,0,1,0,1,,,,,,,,,
296845,2022-11-27_23h13.57.362,vts_reward_expectancy_bt,2022.2.4,MacIntel,83.33333333,Safari,1440,900,,,,,0,923,,,,,,,,,,,,,,,,,139,S,triangle,1,0,,,,,,,,,,,,,,,,switch,letter,lettSwt,k,0.864,Hi,,,,,,3,,,,,,,,high,2,0,2,0,1,,,,,,,,,
296845,2022-11-27_23h13.57.362,vts_reward_expectancy_bt,2022.2.4,MacIntel,83.33333333,Safari,1440,900,,,,,0,923,,,,,,,,,,,,,,,,,132,F,hexagon,0,0,,,,,,,,,,,,,,,,repeat,letter,NA,k,0.422,Hi,,,,,,3,,,,,,,,high,3,0,3,0,1,,,,,,,,,
296845,2022-11-27_23h13.57.362,vts_reward_expectancy_bt,2022.2.4,MacIntel,83.33333333,Safari,1440,900,,,,,10,933,,,,,,,,,,,,,,,,,174,W,circle,1,1,,,,,,,,,,,,,,,,switch,number,numSwt,f,0.444,Lo,,,,,,3,,,,,,,,high,4,0,4,0,1,,,,,,,,,
296845,2022-11-27_23h13.57.362,vts_reward_expectancy_bt,2022.2.4,MacIntel,83.33333333,Safari,1440,900,,,,,1,934,,,,,,,,,,,,,,,,,181,B,star,1,0,,,,,,,,,,,,,,,,switch,letter,lettSwt,j,0.685,Lo,,,,,,3,,,,,,,,high,5,0,5,0,1,,,,,,,,,
296845,2022-11-27_23h13.57.362,vts_reward_expectancy_bt,2022.2.4,MacIntel,83.33333333,Safari,1440,900,,,,,0,934,,,,,,,,,,,,,,,,,146,H,triangle,1,0,,,,,,,,,,,,,,,,switch,number,numSwt,d,1.187,Hi,,,,,,3,,,,,,,,high,6,0,6,0,1,,,,,,,,,
296845,2022-11-27_23h13.57.362,vts_reward_expectancy_bt,2022.2.4,MacIntel,83.33333333,Safari,1440,900,,,,,0,934,,,,,,,,,,,,,,,,,160,U,hexagon,1,0,,,,,,,,,,,,,,,,repeat,number,numRpt,f,2.045,Hi,,,,,,3,,,,,,,,high,7,0,7,0,1,,,,,,,,,
296845,2022-11-27_23h13.57.362,vts_reward_expectancy_bt,2022.2.4,MacIntel,83.33333333,Safari,1440,900,,,,,0,934,,,,,,,,,,,,,,,,,125,Y,hexagon,1,0,,,,,,,,,,,,,,,,switch,letter,lettSwt,k,0.755,Hi,,,,,,3,,,,,,,,high,8,0,8,0,1,,,,,,,,,
296845,2022-11-27_23h13.57.362,vts_reward_expectancy_bt,2022.2.4,MacIntel,83.33333333,Safari,1440,900,,,,,1,935,,,,,,,,,,,,,,,,,167,D,circle,1,0,,,,,,,,,,,,,,,,repeat,letter,lettRpt,j,1.092,Lo,,,,,,3,,,,,,,,high,9,0,9,0,1,,,,,,,,,
296845,2022-11-27_23h13.57.362,vts_reward_expectancy_bt,2022.2.4,MacIntel,83.33333333,Safari,1440,900,,,,,0,935,,,,,,,,,,,,,,,,,139,S,triangle,1,0,,,,,,,,,,,,,,,,repeat,letter,lettRpt,k,0.696,Hi,,,,,,3,,,,,,,,high,10,0,10,0,1,,,,,,,,,
296845,2022-11-27_23h13.57.362,vts_reward_expectancy_bt,2022.2.4,MacIntel,83.33333333,Safari,1440,900,,,,,1,936,,,,,,,,,,,,,,,,,132,F,star,1,0,,,,,,,,,,,,,,,,repeat,letter,lettRpt,j,0.599,Lo,,,,,,3,,,,,,,,high,11,0,11,0,1,,,,,,,,,
296845,2022-11-27_23h13.57.362,vts_reward_expectancy_bt,2022.2.4,MacIntel,83.33333333,Safari,1440,900,,,,,1,937,,,,,,,,,,,,,,,,,174,W,circle,1,0,,,,,,,,,,,,,,,,repeat,letter,lettRpt,k,0.46,Lo,,,,,,3,,,,,,,,high,12,0,12,0,1,,,,,,,,,
296845,2022-11-27_23h13.57.362,vts_reward_expectancy_bt,2022.2.4,MacIntel,83.33333333,Safari,1440,900,,,,,0,937,,,,,,,,,,,,,,,,,181,B,hexagon,0,0,,,,,,,,,,,,,,,,switch,number,NA,d,0.541,Lo,,,,,,3,,,,,,,,high,13,0,13,0,1,,,,,,,,,
296845,2022-11-27_23h13.57.362,vts_reward_expectancy_bt,2022.2.4,MacIntel,83.33333333,Safari,1440,900,,,,,0,937,,,,,,,,,,,,,,,,,146,H,triangle,1,1,,,,,,,,,,,,,,,,repeat,number,numRpt,d,0.463,Hi,,,,,,3,,,,,,,,high,14,0,14,0,1,,,,,,,,,
296845,2022-11-27_23h13.57.362,vts_reward_expectancy_bt,2022.2.4,MacIntel,83.33333333,Safari,1440,900,,,,,0,937,,,,,,,,,,,,,,,,,160,U,star,0,0,,,,,,,,,,,,,,,,repeat,number,NA,d,0.459,Hi,,,,,,3,,,,,,,,high,15,0,15,0,1,,,,,,,,,
296845,2022-11-27_23h13.57.362,vts_reward_expectancy_bt,2022.2.4,MacIntel,83.33333333,Safari,1440,900,,,,,10,947,,,,,,,,,,,,,,,,,132,D,circle,1,1,,,,,,,,,,,,,,,,repeat,number,numRpt,d,0.576,Lo,,,,,,3,,,,,,,,high,16,0,16,0,1,,,,,,,,,
296845,2022-11-27_23h13.57.362,vts_reward_expectancy_bt,2022.2.4,MacIntel,83.33333333,Safari,1440,900,,,,,0,947,,,,,,,,,,,,,,,,,167,S,hexagon,1,0,,,,,,,,,,,,,,,,repeat,number,numRpt,f,0.456,Hi,,,,,,3,,,,,,,,high,17,0,17,0,1,,,,,,,,,
296845,2022-11-27_23h13.57.362,vts_reward_expectancy_bt,2022.2.4,MacIntel,83.33333333,Safari,1440,900,,,,,1,948,,,,,,,,,,,,,,,,,160,U,star,1,0,,,,,,,,,,,,,,,,repeat,number,numRpt,f,0.602,Lo,,,,,,3,,,,,,,,high,18,0,18,0,1,,,,,,,,,
296845,2022-11-27_23h13.57.362,vts_reward_expectancy_bt,2022.2.4,MacIntel,83.33333333,Safari,1440,900,,,,,0,948,,,,,,,,,,,,,,,,,125,H,triangle,0,0,,,,,,,,,,,,,,,,switch,letter,NA,k,0.612,Lo,,,,,,3,,,,,,,,high,19,0,19,0,1,,,,,,,,,
296845,2022-11-27_23h13.57.362,vts_reward_expectancy_bt,2022.2.4,MacIntel,83.33333333,Safari,1440,900,,,,,10,958,,,,,,,,,,,,,,,,,174,Y,triangle,1,1,,,,,,,,,,,,,,,,repeat,letter,lettRpt,k,0.477,Hi,,,,,,3,,,,,,,,high,20,0,20,0,1,,,,,,,,,
296845,2022-11-27_23h13.57.362,vts_reward_expectancy_bt,2022.2.4,MacIntel,83.33333333,Safari,1440,900,,,,,0,958,,,,,,,,,,,,,,,,,146,W,hexagon,1,0,,,,,,,,,,,,,,,,repeat,letter,lettRpt,k,0.589,Hi,,,,,,3,,,,,,,,high,21,0,21,0,1,,,,,,,,,
296845,2022-11-27_23h13.57.362,vts_reward_expectancy_bt,2022.2.4,MacIntel,83.33333333,Safari,1440,900,,,,,1,959,,,,,,,,,,,,,,,,,181,B,star,1,0,,,,,,,,,,,,,,,,repeat,letter,lettRpt,j,0.637,Lo,,,,,,3,,,,,,,,high,22,0,22,0,1,,,,,,,,,
296845,2022-11-27_23h13.57.362,vts_reward_expectancy_bt,2022.2.4,MacIntel,83.33333333,Safari,1440,900,,,,,1,960,,,,,,,,,,,,,,,,,139,F,circle,1,0,,,,,,,,,,,,,,,,switch,number,numSwt,d,0.734,Lo,,,,,,3,,,,,,,,high,23,0,23,0,1,,,,,,,,,
296845,2022-11-27_23h13.57.362,vts_reward_expectancy_bt,2022.2.4,MacIntel,83.33333333,Safari,1440,900,,,,,0,960,,,,,,,,,,,,,,,,,167,Y,triangle,1,0,,,,,,,,,,,,,,,,repeat,number,numRpt,f,0.44,Hi,,,,,,3,,,,,,,,high,24,0,24,0,1,,,,,,,,,
296845,2022-11-27_23h13.57.362,vts_reward_expectancy_bt,2022.2.4,MacIntel,83.33333333,Safari,1440,900,,,,,0,960,,,,,,,,,,,,,,,,,132,H,hexagon,1,0,,,,,,,,,,,,,,,,repeat,number,numRpt,d,0.505,Hi,,,,,,3,,,,,,,,high,25,0,25,0,1,,,,,,,,,
296845,2022-11-27_23h13.57.362,vts_reward_expectancy_bt,2022.2.4,MacIntel,83.33333333,Safari,1440,900,,,,,1,961,,,,,,,,,,,,,,,,,139,S,star,1,0,,,,,,,,,,,,,,,,repeat,number,numRpt,d,0.579,Lo,,,,,,3,,,,,,,,high,26,0,26,0,1,,,,,,,,,
296845,2022-11-27_23h13.57.362,vts_reward_expectancy_bt,2022.2.4,MacIntel,83.33333333,Safari,1440,900,,,,,1,962,,,,,,,,,,,,,,,,,174,F,circle,1,0,,,,,,,,,,,,,,,,switch,letter,lettSwt,j,0.841,Lo,,,,,,3,,,,,,,,high,27,0,27,0,1,,,,,,,,,
296845,2022-11-27_23h13.57.362,vts_reward_expectancy_bt,2022.2.4,MacIntel,83.33333333,Safari,1440,900,,,,,1,963,,,,,,,,,,,,,,,,,181,D,star,1,0,,,,,,,,,,,,,,,,repeat,letter,lettRpt,j,0.542,Lo,,,,,,3,,,,,,,,high,28,0,28,0,1,,,,,,,,,
296845,2022-11-27_23h13.57.362,vts_reward_expectancy_bt,2022.2.4,MacIntel,83.33333333,Safari,1440,900,,,,,0,963,,,,,,,,,,,,,,,,,125,W,triangle,1,0,,,,,,,,,,,,,,,,repeat,letter,lettRpt,k,0.554,Hi,,,,,,3,,,,,,,,high,29,0,29,0,1,,,,,,,,,
296845,2022-11-27_23h13.57.362,vts_reward_expectancy_bt,2022.2.4,MacIntel,83.33333333,Safari,1440,900,,,,,10,973,,,,,,,,,,,,,,,,,146,U,circle,1,0,,,,,,,,,,,,,,,,repeat,letter,lettRpt,k,0.658,Lo,,,,,,3,,,,,,,,high,30,0,30,0,1,,,,,,,,,
296845,2022-11-27_23h13.57.362,vts_reward_expectancy_bt,2022.2.4,MacIntel,83.33333333,Safari,1440,900,,,,,1,974,,,,,,,,,,,,,,,,,160,B,hexagon,1,0,,,,,,,,,,,,,,,,switch,number,numSwt,f,0.621,Hi,,,,,,3,,,,,,,,high,31,0,31,0,1,,,,,,,,,
296845,2022-11-27_23h13.57.362,vts_reward_expectancy_bt,2022.2.4,MacIntel,83.33333333,Safari,1440,900,,,,,0,974,,,,,,,,,,,,,,,,,174,D,star,0,0,,,,,,,,,,,,,,,,switch,letter,NA,k,0.69,Hi,,,,,,4,,,,,,space,1.019,high,0,0,0,0,1,,,,,,,,,
296845,2022-11-27_23h13.57.362,vts_reward_expectancy_bt,2022.2.4,MacIntel,83.33333333,Safari,1440,900,,,,,1,975,,,,,,,,,,,,,,,,,167,S,circle,1,1,,,,,,,,,,,,,,,,repeat,letter,lettRpt,k,0.558,Lo,,,,,,4,,,,,,,,high,1,0,1,0,1,,,,,,,,,
296845,2022-11-27_23h13.57.362,vts_reward_expectancy_bt,2022.2.4,MacIntel,83.33333333,Safari,1440,900,,,,,0,975,,,,,,,,,,,,,,,,,139,B,hexagon,1,0,,,,,,,,,,,,,,,,repeat,letter,lettRpt,j,1.357,Hi,,,,,,4,,,,,,,,high,2,0,2,0,1,,,,,,,,,
296845,2022-11-27_23h13.57.362,vts_reward_expectancy_bt,2022.2.4,MacIntel,83.33333333,Safari,1440,900,,,,,0,975,,,,,,,,,,,,,,,,,181,H,triangle,1,0,,,,,,,,,,,,,,,,repeat,letter,lettRpt,j,0.731,Hi,,,,,,4,,,,,,,,high,3,0,3,0,1,,,,,,,,,
296845,2022-11-27_23h13.57.362,vts_reward_expectancy_bt,2022.2.4,MacIntel,83.33333333,Safari,1440,900,,,,,10,985,,,,,,,,,,,,,,,,,146,Y,star,1,0,,,,,,,,,,,,,,,,repeat,letter,lettRpt,k,0.473,Lo,,,,,,4,,,,,,,,high,4,0,4,0,1,,,,,,,,,
296845,2022-11-27_23h13.57.362,vts_reward_expectancy_bt,2022.2.4,MacIntel,83.33333333,Safari,1440,900,,,,,1,986,,,,,,,,,,,,,,,,,125,W,circle,1,0,,,,,,,,,,,,,,,,repeat,letter,lettRpt,k,0.593,Lo,,,,,,4,,,,,,,,high,5,0,5,0,1,,,,,,,,,
296845,2022-11-27_23h13.57.362,vts_reward_expectancy_bt,2022.2.4,MacIntel,83.33333333,Safari,1440,900,,,,,0,986,,,,,,,,,,,,,,,,,160,U,hexagon,0,0,,,,,,,,,,,,,,,,switch,number,NA,d,0.525,Lo,,,,,,4,,,,,,,,high,6,0,6,0,1,,,,,,,,,
296845,2022-11-27_23h13.57.362,vts_reward_expectancy_bt,2022.2.4,MacIntel,83.33333333,Safari,1440,900,,,,,0,986,,,,,,,,,,,,,,,,,132,F,triangle,1,1,,,,,,,,,,,,,,,,repeat,number,numRpt,d,0.593,Hi,,,,,,4,,,,,,,,high,7,0,7,0,1,,,,,,,,,
296845,2022-11-27_23h13.57.362,vts_reward_expectancy_bt,2022.2.4,MacIntel,83.33333333,Safari,1440,900,,,,,0,986,,,,,,,,,,,,,,,,,174,D,triangle,1,0,,,,,,,,,,,,,,,,repeat,number,numRpt,f,0.569,Hi,,,,,,4,,,,,,,,high,8,0,8,0,1,,,,,,,,,
296845,2022-11-27_23h13.57.362,vts_reward_expectancy_bt,2022.2.4,MacIntel,83.33333333,Safari,1440,900,,,,,0,986,,,,,,,,,,,,,,,,,167,S,hexagon,1,0,,,,,,,,,,,,,,,,repeat,number,numRpt,f,0.526,Hi,,,,,,4,,,,,,,,high,9,0,9,0,1,,,,,,,,,
296845,2022-11-27_23h13.57.362,vts_reward_expectancy_bt,2022.2.4,MacIntel,83.33333333,Safari,1440,900,,,,,1,987,,,,,,,,,,,,,,,,,139,B,circle,1,0,,,,,,,,,,,,,,,,repeat,number,numRpt,d,0.592,Lo,,,,,,4,,,,,,,,high,10,0,10,0,1,,,,,,,,,
296845,2022-11-27_23h13.57.362,vts_reward_expectancy_bt,2022.2.4,MacIntel,83.33333333,Safari,1440,900,,,,,1,988,,,,,,,,,,,,,,,,,181,H,star,1,0,,,,,,,,,,,,,,,,repeat,number,numRpt,f,0.577,Lo,,,,,,4,,,,,,,,high,11,0,11,0,1,,,,,,,,,
296845,2022-11-27_23h13.57.362,vts_reward_expectancy_bt,2022.2.4,MacIntel,83.33333333,Safari,1440,900,,,,,10,998,,,,,,,,,,,,,,,,,146,Y,star,1,0,,,,,,,,,,,,,,,,switch,letter,lettSwt,k,0.507,Lo,,,,,,4,,,,,,,,high,12,0,12,0,1,,,,,,,,,
296845,2022-11-27_23h13.57.362,vts_reward_expectancy_bt,2022.2.4,MacIntel,83.33333333,Safari,1440,900,,,,,10,1008,,,,,,,,,,,,,,,,,125,W,circle,1,0,,,,,,,,,,,,,,,,repeat,letter,lettRpt,k,0.539,Lo,,,,,,4,,,,,,,,high,13,0,13,0,1,,,,,,,,,
296845,2022-11-27_23h13.57.362,vts_reward_expectancy_bt,2022.2.4,MacIntel,83.33333333,Safari,1440,900,,,,,0,1008,,,,,,,,,,,,,,,,,160,U,triangle,1,0,,,,,,,,,,,,,,,,switch,number,numSwt,f,0.588,Hi,,,,,,4,,,,,,,,high,14,0,14,0,1,,,,,,,,,
296845,2022-11-27_23h13.57.362,vts_reward_expectancy_bt,2022.2.4,MacIntel,83.33333333,Safari,1440,900,,,,,10,1018,,,,,,,,,,,,,,,,,132,F,hexagon,1,0,,,,,,,,,,,,,,,,repeat,number,numRpt,d,0.443,Hi,,,,,,4,,,,,,,,high,15,0,15,0,1,,,,,,,,,
296845,2022-11-27_23h13.57.362,vts_reward_expectancy_bt,2022.2.4,MacIntel,83.33333333,Safari,1440,900,,,,,1,1019,,,,,,,,,,,,,,,,,160,B,star,1,0,,,,,,,,,,,,,,,,switch,letter,lettSwt,j,0.61,Lo,,,,,,4,,,,,,,,high,16,0,16,0,1,,,,,,,,,
296845,2022-11-27_23h13.57.362,vts_reward_expectancy_bt,2022.2.4,MacIntel,83.33333333,Safari,1440,900,,,,,0,1019,,,,,,,,,,,,,,,,,167,W,hexagon,0,0,,,,,,,,,,,,,,,,switch,number,NA,d,0.643,Lo,,,,,,4,,,,,,,,high,17,0,17,0,1,,,,,,,,,
296845,2022-11-27_23h13.57.362,vts_reward_expectancy_bt,2022.2.4,MacIntel,83.33333333,Safari,1440,900,,,,,10,1029,,,,,,,,,,,,,,,,,181,S,triangle,1,1,,,,,,,,,,,,,,,,switch,letter,lettSwt,k,0.561,Hi,,,,,,4,,,,,,,,high,18,0,18,0,1,,,,,,,,,
296845,2022-11-27_23h13.57.362,vts_reward_expectancy_bt,2022.2.4,MacIntel,83.33333333,Safari,1440,900,,,,,10,1039,,,,,,,,,,,,,,,,,174,H,circle,1,0,,,,,,,,,,,,,,,,switch,number,numSwt,f,0.407,Lo,,,,,,4,,,,,,,,high,19,0,19,0,1,,,,,,,,,
296845,2022-11-27_23h13.57.362,vts_reward_expectancy_bt,2022.2.4,MacIntel,83.33333333,Safari,1440,900,,,,,1,1040,,,,,,,,,,,,,,,,,146,Y,star,1,0,,,,,,,,,,,,,,,,repeat,number,numRpt,d,0.372,Lo,,,,,,4,,,,,,,,high,20,0,20,0,1,,,,,,,,,
296845,2022-11-27_23h13.57.362,vts_reward_expectancy_bt,2022.2.4,MacIntel,83.33333333,Safari,1440,900,,,,,0,1040,,,,,,,,,,,,,,,,,139,D,hexagon,0,0,,,,,,,,,,,,,,,,switch,letter,NA,k,0.274,Lo,,,,,,4,,,,,,,,high,21,0,21,0,1,,,,,,,,,
296845,2022-11-27_23h13.57.362,vts_reward_expectancy_bt,2022.2.4,MacIntel,83.33333333,Safari,1440,900,,,,,0,1040,,,,,,,,,,,,,,,,,125,F,triangle,1,1,,,,,,,,,,,,,,,,repeat,letter,lettRpt,j,0.628,Hi,,,,,,4,,,,,,,,high,22,0,22,0,1,,,,,,,,,
296845,2022-11-27_23h13.57.362,vts_reward_expectancy_bt,2022.2.4,MacIntel,83.33333333,Safari,1440,900,,,,,1,1041,,,,,,,,,,,,,,,,,132,U,circle,1,0,,,,,,,,,,,,,,,,repeat,letter,lettRpt,k,0.609,Lo,,,,,,4,,,,,,,,high,23,0,23,0,1,,,,,,,,,
296845,2022-11-27_23h13.57.362,vts_reward_expectancy_bt,2022.2.4,MacIntel,83.33333333,Safari,1440,900,,,,,1,1042,,,,,,,,,,,,,,,,,160,H,star,1,0,,,,,,,,,,,,,,,,repeat,letter,lettRpt,j,0.709,Lo,,,,,,4,,,,,,,,high,24,0,24,0,1,,,,,,,,,
296845,2022-11-27_23h13.57.362,vts_reward_expectancy_bt,2022.2.4,MacIntel,83.33333333,Safari,1440,900,,,,,10,1052,,,,,,,,,,,,,,,,,132,D,hexagon,1,0,,,,,,,,,,,,,,,,switch,number,numSwt,d,0.543,Hi,,,,,,4,,,,,,,,high,25,0,25,0,1,,,,,,,,,
296845,2022-11-27_23h13.57.362,vts_reward_expectancy_bt,2022.2.4,MacIntel,83.33333333,Safari,1440,900,,,,,0,1052,,,,,,,,,,,,,,,,,146,Y,triangle,1,0,,,,,,,,,,,,,,,,repeat,number,numRpt,d,0.624,Hi,,,,,,4,,,,,,,,high,26,0,26,0,1,,,,,,,,,
296845,2022-11-27_23h13.57.362,vts_reward_expectancy_bt,2022.2.4,MacIntel,83.33333333,Safari,1440,900,,,,,0,1052,,,,,,,,,,,,,,,,,167,U,circle,0,0,,,,,,,,,,,,,,,,repeat,number,NA,d,0.759,Hi,,,,,,4,,,,,,,,high,27,0,27,0,1,,,,,,,,,
296845,2022-11-27_23h13.57.362,vts_reward_expectancy_bt,2022.2.4,MacIntel,83.33333333,Safari,1440,900,,,,,1,1053,,,,,,,,,,,,,,,,,125,F,star,1,1,,,,,,,,,,,,,,,,switch,letter,lettSwt,j,0.525,Lo,,,,,,4,,,,,,,,high,28,0,28,0,1,,,,,,,,,
296845,2022-11-27_23h13.57.362,vts_reward_expectancy_bt,2022.2.4,MacIntel,83.33333333,Safari,1440,900,,,,,1,1054,,,,,,,,,,,,,,,,,139,B,circle,1,0,,,,,,,,,,,,,,,,switch,number,numSwt,d,0.494,Lo,,,,,,4,,,,,,,,high,29,0,29,0,1,,,,,,,,,
296845,2022-11-27_23h13.57.362,vts_reward_expectancy_bt,2022.2.4,MacIntel,83.33333333,Safari,1440,900,,,,,0,1054,,,,,,,,,,,,,,,,,181,W,triangle,1,0,,,,,,,,,,,,,,,,switch,letter,lettSwt,k,0.921,Hi,,,,,,4,,,,,,,,high,30,0,30,0,1,,,,,,,,,
296845,2022-11-27_23h13.57.362,vts_reward_expectancy_bt,2022.2.4,MacIntel,83.33333333,Safari,1440,900,,,,,10,1064,,,,,,,,,,,,,,,,,174,S,hexagon,1,0,,,,,,,,,,,,,,,,repeat,letter,lettRpt,k,0.513,Hi,,,,,,4,,,,,,,,high,31,0,31,0,1,,,,,,,,,
296845,2022-11-27_23h13.57.362,vts_reward_expectancy_bt,2022.2.4,MacIntel,83.33333333,Safari,1440,900,,,,,1,1065,,,,,,,,,,,,,,,,,132,H,star,1,0,,,,,,,,,,,,,,,,switch,number,numSwt,d,0.492,Lo,,,,,,5,,,,,,space,0.63,high,0,0,0,0,1,,,,,,,,,
296845,2022-11-27_23h13.57.362,vts_reward_expectancy_bt,2022.2.4,MacIntel,83.33333333,Safari,1440,900,,,,,10,1075,,,,,,,,,,,,,,,,,146,U,hexagon,1,0,,,,,,,,,,,,,,,,repeat,number,numRpt,d,0.509,Hi,,,,,,5,,,,,,,,high,1,0,1,0,1,,,,,,,,,
296845,2022-11-27_23h13.57.362,vts_reward_expectancy_bt,2022.2.4,MacIntel,83.33333333,Safari,1440,900,,,,,0,1075,,,,,,,,,,,,,,,,,125,D,triangle,1,0,,,,,,,,,,,,,,,,switch,letter,lettSwt,j,0.537,Hi,,,,,,5,,,,,,,,high,2,0,2,0,1,,,,,,,,,
296845,2022-11-27_23h13.57.362,vts_reward_expectancy_bt,2022.2.4,MacIntel,83.33333333,Safari,1440,900,,,,,10,1085,,,,,,,,,,,,,,,,,181,W,circle,1,0,,,,,,,,,,,,,,,,repeat,letter,lettRpt,k,0.536,Lo,,,,,,5,,,,,,,,high,3,0,3,0,1,,,,,,,,,
296845,2022-11-27_23h13.57.362,vts_reward_expectancy_bt,2022.2.4,MacIntel,83.33333333,Safari,1440,900,,,,,1,1086,,,,,,,,,,,,,,,,,139,B,star,1,0,,,,,,,,,,,,,,,,repeat,letter,lettRpt,j,0.69,Lo,,,,,,5,,,,,,,,high,4,0,4,0,1,,,,,,,,,
296845,2022-11-27_23h13.57.362,vts_reward_expectancy_bt,2022.2.4,MacIntel,83.33333333,Safari,1440,900,,,,,0,1086,,,,,,,,,,,,,,,,,160,S,hexagon,1,0,,,,,,,,,,,,,,,,switch,number,numSwt,f,0.64,Hi,,,,,,5,,,,,,,,high,5,0,5,0,1,,,,,,,,,
296845,2022-11-27_23h13.57.362,vts_reward_expectancy_bt,2022.2.4,MacIntel,83.33333333,Safari,1440,900,,,,,0,1086,,,,,,,,,,,,,,,,,174,Y,triangle,1,0,,,,,,,,,,,,,,,,repeat,number,numRpt,f,0.576,Hi,,,,,,5,,,,,,,,high,6,0,6,0,1,,,,,,,,,
296845,2022-11-27_23h13.57.362,vts_reward_expectancy_bt,2022.2.4,MacIntel,83.33333333,Safari,1440,900,,,,,10,1096,,,,,,,,,,,,,,,,,167,F,circle,1,0,,,,,,,,,,,,,,,,repeat,number,numRpt,f,0.761,Lo,,,,,,5,,,,,,,,high,7,0,7,0,1,,,,,,,,,
296845,2022-11-27_23h13.57.362,vts_reward_expectancy_bt,2022.2.4,MacIntel,83.33333333,Safari,1440,900,,,,,0,1096,,,,,,,,,,,,,,,,,132,H,hexagon,1,0,,,,,,,,,,,,,,,,switch,letter,lettSwt,j,0.707,Hi,,,,,,5,,,,,,,,high,8,0,8,0,1,,,,,,,,,
296845,2022-11-27_23h13.57.362,vts_reward_expectancy_bt,2022.2.4,MacIntel,83.33333333,Safari,1440,900,,,,,1,1097,,,,,,,,,,,,,,,,,146,U,star,1,0,,,,,,,,,,,,,,,,repeat,letter,lettRpt,k,0.546,Lo,,,,,,5,,,,,,,,high,9,0,9,0,1,,,,,,,,,
296845,2022-11-27_23h13.57.362,vts_reward_expectancy_bt,2022.2.4,MacIntel,83.33333333,Safari,1440,900,,,,,0,1097,,,,,,,,,,,,,,,,,125,D,triangle,1,0,,,,,,,,,,,,,,,,repeat,letter,lettRpt,j,0.892,Hi,,,,,,5,,,,,,,,high,10,0,10,0,1,,,,,,,,,
296845,2022-11-27_23h13.57.362,vts_reward_expectancy_bt,2022.2.4,MacIntel,83.33333333,Safari,1440,900,,,,,1,1098,,,,,,,,,,,,,,,,,181,W,circle,1,0,,,,,,,,,,,,,,,,repeat,letter,lettRpt,k,0.457,Lo,,,,,,5,,,,,,,,high,11,0,11,0,1,,,,,,,,,
296845,2022-11-27_23h13.57.362,vts_reward_expectancy_bt,2022.2.4,MacIntel,83.33333333,Safari,1440,900,,,,,0,1098,,,,,,,,,,,,,,,,,139,B,hexagon,1,0,,,,,,,,,,,,,,,,repeat,letter,lettRpt,j,0.61,Hi,,,,,,5,,,,,,,,high,12,0,12,0,1,,,,,,,,,
296845,2022-11-27_23h13.57.362,vts_reward_expectancy_bt,2022.2.4,MacIntel,83.33333333,Safari,1440,900,,,,,0,1098,,,,,,,,,,,,,,,,,160,S,triangle,1,0,,,,,,,,,,,,,,,,switch,number,numSwt,f,0.545,Hi,,,,,,5,,,,,,,,high,13,0,13,0,1,,,,,,,,,
296845,2022-11-27_23h13.57.362,vts_reward_expectancy_bt,2022.2.4,MacIntel,83.33333333,Safari,1440,900,,,,,1,1099,,,,,,,,,,,,,,,,,174,Y,star,1,0,,,,,,,,,,,,,,,,repeat,number,numRpt,f,0.518,Lo,,,,,,5,,,,,,,,high,14,0,14,0,1,,,,,,,,,
296845,2022-11-27_23h13.57.362,vts_reward_expectancy_bt,2022.2.4,MacIntel,83.33333333,Safari,1440,900,,,,,1,1100,,,,,,,,,,,,,,,,,167,F,circle,1,0,,,,,,,,,,,,,,,,repeat,number,numRpt,f,0.639,Lo,,,,,,5,,,,,,,,high,15,0,15,0,1,,,,,,,,,
296845,2022-11-27_23h13.57.362,vts_reward_expectancy_bt,2022.2.4,MacIntel,83.33333333,Safari,1440,900,,,,,10,1110,,,,,,,,,,,,,,,,,139,D,circle,1,0,,,,,,,,,,,,,,,,repeat,number,numRpt,d,0.693,Lo,,,,,,5,,,,,,,,high,16,0,16,0,1,,,,,,,,,
296845,2022-11-27_23h13.57.362,vts_reward_expectancy_bt,2022.2.4,MacIntel,83.33333333,Safari,1440,900,,,,,1,1111,,,,,,,,,,,,,,,,,125,F,star,1,0,,,,,,,,,,,,,,,,repeat,number,numRpt,d,0.577,Lo,,,,,,5,,,,,,,,high,17,0,17,0,1,,,,,,,,,
296845,2022-11-27_23h13.57.362,vts_reward_expectancy_bt,2022.2.4,MacIntel,83.33333333,Safari,1440,900,,,,,10,1121,,,,,,,,,,,,,,,,,132,B,hexagon,1,0,,,,,,,,,,,,,,,,repeat,number,numRpt,d,0.458,Hi,,,,,,5,,,,,,,,high,18,0,18,0,1,,,,,,,,,
296845,2022-11-27_23h13.57.362,vts_reward_expectancy_bt,2022.2.4,MacIntel,83.33333333,Safari,1440,900,,,,,0,1121,,,,,,,,,,,,,,,,,181,W,triangle,1,0,,,,,,,,,,,,,,,,repeat,number,numRpt,f,0.691,Hi,,,,,,5,,,,,,,,high,19,0,19,0,1,,,,,,,,,
296845,2022-11-27_23h13.57.362,vts_reward_expectancy_bt,2022.2.4,MacIntel,83.33333333,Safari,1440,900,,,,,0,1121,,,,,,,,,,,,,,,,,174,H,triangle,1,0,,,,,,,,,,,,,,,,repeat,number,numRpt,f,0.575,Hi,,,,,,5,,,,,,,,high,20,0,20,0,1,,,,,,,,,
296845,2022-11-27_23h13.57.362,vts_reward_expectancy_bt,2022.2.4,MacIntel,83.33333333,Safari,1440,900,,,,,0,1121,,,,,,,,,,,,,,,,,167,Y,star,0,0,,,,,,,,,,,,,,,,repeat,number,NA,d,0.827,Hi,,,,,,5,,,,,,,,high,21,0,21,0,1,,,,,,,,,
296845,2022-11-27_23h13.57.362,vts_reward_expectancy_bt,2022.2.4,MacIntel,83.33333333,Safari,1440,900,,,,,1,1122,,,,,,,,,,,,,,,,,146,S,circle,1,1,,,,,,,,,,,,,,,,switch,letter,lettSwt,k,0.477,Lo,,,,,,5,,,,,,,,high,22,0,22,0,1,,,,,,,,,
296845,2022-11-27_23h13.57.362,vts_reward_expectancy_bt,2022.2.4,MacIntel,83.33333333,Safari,1440,900,,,,,0,1122,,,,,,,,,,,,,,,,,160,U,hexagon,0,0,,,,,,,,,,,,,,,,repeat,letter,NA,j,0.343,Lo,,,,,,5,,,,,,,,high,23,0,23,0,1,,,,,,,,,
296845,2022-11-27_23h13.57.362,vts_reward_expectancy_bt,2022.2.4,MacIntel,83.33333333,Safari,1440,900,,,,,0,1122,,,,,,,,,,,,,,,,,181,H,triangle,1,1,,,,,,,,,,,,,,,,repeat,letter,lettRpt,j,0.822,Hi,,,,,,5,,,,,,,,high,24,0,24,0,1,,,,,,,,,
296845,2022-11-27_23h13.57.362,vts_reward_expectancy_bt,2022.2.4,MacIntel,83.33333333,Safari,1440,900,,,,,1,1123,,,,,,,,,,,,,,,,,146,D,circle,1,0,,,,,,,,,,,,,,,,repeat,letter,lettRpt,j,0.706,Lo,,,,,,5,,,,,,,,high,25,0,25,0,1,,,,,,,,,
296845,2022-11-27_23h13.57.362,vts_reward_expectancy_bt,2022.2.4,MacIntel,83.33333333,Safari,1440,900,,,,,1,1124,,,,,,,,,,,,,,,,,132,B,star,1,0,,,,,,,,,,,,,,,,repeat,letter,lettRpt,j,0.939,Lo,,,,,,5,,,,,,,,high,26,0,26,0,1,,,,,,,,,
296845,2022-11-27_23h13.57.362,vts_reward_expectancy_bt,2022.2.4,MacIntel,83.33333333,Safari,1440,900,,,,,0,1124,,,,,,,,,,,,,,,,,167,Y,hexagon,0,0,,,,,,,,,,,,,,,,repeat,letter,NA,j,1.025,Lo,,,,,,5,,,,,,,,high,27,0,27,0,1,,,,,,,,,
296845,2022-11-27_23h13.57.362,vts_reward_expectancy_bt,2022.2.4,MacIntel,83.33333333,Safari,1440,900,,,,,1,1125,,,,,,,,,,,,,,,,,160,U,star,1,1,,,,,,,,,,,,,,,,repeat,letter,lettRpt,k,0.776,Lo,,,,,,5,,,,,,,,high,28,0,28,0,1,,,,,,,,,
296845,2022-11-27_23h13.57.362,vts_reward_expectancy_bt,2022.2.4,MacIntel,83.33333333,Safari,1440,900,,,,,0,1125,,,,,,,,,,,,,,,,,174,F,triangle,1,0,,,,,,,,,,,,,,,,switch,number,numSwt,f,0.907,Hi,,,,,,5,,,,,,,,high,29,0,29,0,1,,,,,,,,,
296845,2022-11-27_23h13.57.362,vts_reward_expectancy_bt,2022.2.4,MacIntel,83.33333333,Safari,1440,900,,,,,1,1126,,,,,,,,,,,,,,,,,139,S,circle,1,0,,,,,,,,,,,,,,,,repeat,number,numRpt,d,0.651,Lo,,,,,,5,,,,,,,,high,30,0,30,0,1,,,,,,,,,
296845,2022-11-27_23h13.57.362,vts_reward_expectancy_bt,2022.2.4,MacIntel,83.33333333,Safari,1440,900,,,,,10,1136,,,,,,,,,,,,,,,,,125,W,hexagon,1,0,,,,,,,,,,,,,,,,repeat,number,numRpt,d,0.489,Hi,,,,,,5,,,,,,,,high,31,0,31,0,1,,,,,,,,,
296845,2022-11-27_23h13.57.362,vts_reward_expectancy_bt,2022.2.4,MacIntel,83.33333333,Safari,1440,900,,,,,0,1136,,,,,,,,,,,,,,,,,167,F,triangle,1,0,,,,,,,,,,,,,,,,repeat,number,numRpt,f,1.312,Hi,,,,,,6,,,,,,space,0.233,high,0,0,0,0,1,,,,,,,,,
296845,2022-11-27_23h13.57.362,vts_reward_expectancy_bt,2022.2.4,MacIntel,83.33333333,Safari,1440,900,,,,,1,1137,,,,,,,,,,,,,,,,,132,H,circle,1,0,,,,,,,,,,,,,,,,repeat,number,numRpt,d,0.439,Lo,,,,,,6,,,,,,,,high,1,0,1,0,1,,,,,,,,,
296845,2022-11-27_23h13.57.362,vts_reward_expectancy_bt,2022.2.4,MacIntel,83.33333333,Safari,1440,900,,,,,10,1147,,,,,,,,,,,,,,,,,146,B,hexagon,1,0,,,,,,,,,,,,,,,,switch,letter,lettSwt,j,0.474,Hi,,,,,,6,,,,,,,,high,2,0,2,0,1,,,,,,,,,
296845,2022-11-27_23h13.57.362,vts_reward_expectancy_bt,2022.2.4,MacIntel,83.33333333,Safari,1440,900,,,,,10,1157,,,,,,,,,,,,,,,,,174,Y,star,1,0,,,,,,,,,,,,,,,,repeat,letter,lettRpt,k,0.743,Lo,,,,,,6,,,,,,,,high,3,0,3,0,1,,,,,,,,,
296845,2022-11-27_23h13.57.362,vts_reward_expectancy_bt,2022.2.4,MacIntel,83.33333333,Safari,1440,900,,,,,0,1157,,,,,,,,,,,,,,,,,139,S,triangle,1,0,,,,,,,,,,,,,,,,repeat,letter,lettRpt,k,0.61,Hi,,,,,,6,,,,,,,,high,4,0,4,0,1,,,,,,,,,
296845,2022-11-27_23h13.57.362,vts_reward_expectancy_bt,2022.2.4,MacIntel,83.33333333,Safari,1440,900,,,,,10,1167,,,,,,,,,,,,,,,,,181,U,circle,1,0,,,,,,,,,,,,,,,,repeat,letter,lettRpt,k,0.493,Lo,,,,,,6,,,,,,,,high,5,0,5,0,1,,,,,,,,,
296845,2022-11-27_23h13.57.362,vts_reward_expectancy_bt,2022.2.4,MacIntel,83.33333333,Safari,1440,900,,,,,0,1167,,,,,,,,,,,,,,,,,160,D,hexagon,1,0,,,,,,,,,,,,,,,,repeat,letter,lettRpt,j,0.646,Hi,,,,,,6,,,,,,,,high,6,0,6,0,1,,,,,,,,,
296845,2022-11-27_23h13.57.362,vts_reward_expectancy_bt,2022.2.4,MacIntel,83.33333333,Safari,1440,900,,,,,10,1177,,,,,,,,,,,,,,,,,125,W,star,1,0,,,,,,,,,,,,,,,,switch,number,numSwt,d,0.544,Lo,,,,,,6,,,,,,,,high,7,0,7,0,1,,,,,,,,,
296845,2022-11-27_23h13.57.362,vts_reward_expectancy_bt,2022.2.4,MacIntel,83.33333333,Safari,1440,900,,,,,1,1178,,,,,,,,,,,,,,,,,167,F,triangle,1,0,,,,,,,,,,,,,,,,repeat,number,numRpt,f,0.539,Hi,,,,,,6,,,,,,,,high,8,0,8,0,1,,,,,,,,,
296845,2022-11-27_23h13.57.362,vts_reward_expectancy_bt,2022.2.4,MacIntel,83.33333333,Safari,1440,900,,,,,1,1179,,,,,,,,,,,,,,,,,132,H,star,1,0,,,,,,,,,,,,,,,,repeat,number,numRpt,d,0.488,Lo,,,,,,6,,,,,,,,high,9,0,9,0,1,,,,,,,,,
296845,2022-11-27_23h13.57.362,vts_reward_expectancy_bt,2022.2.4,MacIntel,83.33333333,Safari,1440,900,,,,,0,1179,,,,,,,,,,,,,,,,,146,B,hexagon,1,0,,,,,,,,,,,,,,,,repeat,number,numRpt,d,0.575,Hi,,,,,,6,,,,,,,,high,10,0,10,0,1,,,,,,,,,
296845,2022-11-27_23h13.57.362,vts_reward_expectancy_bt,2022.2.4,MacIntel,83.33333333,Safari,1440,900,,,,,1,1180,,,,,,,,,,,,,,,,,174,Y,circle,1,0,,,,,,,,,,,,,,,,switch,letter,lettSwt,k,0.559,Lo,,,,,,6,,,,,,,,high,11,0,11,0,1,,,,,,,,,
296845,2022-11-27_23h13.57.362,vts_reward_expectancy_bt,2022.2.4,MacIntel,83.33333333,Safari,1440,900,,,,,0,1180,,,,,,,,,,,,,,,,,139,S,triangle,1,0,,,,,,,,,,,,,,,,repeat,letter,lettRpt,k,0.707,Hi,,,,,,6,,,,,,,,high,12,0,12,0,1,,,,,,,,,
