participant,date,expName,psychopyVersion,OS,frameRate,browser,xResolution,yResolution,key_resp.keys,key_resp.rt,training_resp.keys,training_resp.rt,points_trial,points_cumul,trainBlock,training.thisRepN,training.thisTrialN,training.thisN,training.thisIndex,training.ran,LTriangleOpac,LCircleOpac,LHexagonOpac,LStarOpac,RTriangleOpac,RCircleOpac,RHexagonOpac,RStarOpac,LShape_ID,RShape_ID,curr_topStim,curr_bottStim,curr_shape,acc,E1,target_resp_prac1.keys,pracBlock,task1_prac_trials.thisRepN,task1_prac_trials.thisTrialN,task1_prac_trials.thisN,task1_prac_trials.thisIndex,task1_prac_trials.ran,target_resp_prac1.rt,target_resp_prac2.keys,target_resp_prac2.rt,task2_praac_trials.thisRepN,task2_praac_trials.thisTrialN,task2_praac_trials.thisN,task2_praac_trials.thisIndex,task2_praac_trials.ran,alt,task,condition,target_resp.keys,target_resp.rt,rewCond,vts_practice_trials.thisRepN,vts_practice_trials.thisTrialN,vts_practice_trials.thisN,vts_practice_trials.thisIndex,vts_practice_trials.ran,blockNum,trials_norew.thisRepN,trials_norew.thisTrialN,trials_norew.thisN,trials_norew.thisIndex,trials_norew.ran,key_resp_2.keys,key_resp_2.rt,rewExpectancy,trials_rew.thisRepN,trials_rew.thisTrialN,trials_rew.thisN,trials_rew.thisIndex,trials_rew.ran,Q1,Q2,Q2_text,Q3,Q4,Q5_text,Q5,xRes,yRes
296830,2022-11-29_13h00.56.054,vts_reward_expectancy_bt,2022.2.4,MacIntel,58.82352941,Safari,1470,956,,,,,,,,,,,,,,,,,,,,,,,,,,,,,,,,,,,,,,,,,,,,,,,,,,,,,,,,,,,,,,,,,,,,,,,,,,,,
296830,2022-11-29_13h00.56.054,vts_reward_expectancy_bt,2022.2.4,MacIntel,58.82352941,Safari,1470,956,space,18.618,,,,,,,,,,,,,,,,,,,,,,,,,,,,,,,,,,,,,,,,,,,,,,,,,,,,,,,,,,,,,,,,,,,,,,,,,,
296830,2022-11-29_13h00.56.054,vts_reward_expectancy_bt,2022.2.4,MacIntel,58.82352941,Safari,1470,956,,,,,,,,,,,,,,,,,,,,,,,,,,,,,,,,,,,,,,,,,,,,,,,,,,,,,,,,,,,,,,,,,,,,,,,,,,,,
296830,2022-11-29_13h00.56.054,vts_reward_expectancy_bt,2022.2.4,MacIntel,58.82352941,Safari,1470,956,,,l,1.12,10,10,0,0,0,0,5,1,0,1,0,0,0,0,0,1,circle,star,,,,,,,,,,,,,,,,,,,,,,,,,,,,,,,,,,,,,,,,,,,,,,,,,,,,,,
296830,2022-11-29_13h00.56.054,vts_reward_expectancy_bt,2022.2.4,MacIntel,58.82352941,Safari,1470,956,,,a,0.928,1,11,0,0,1,1,11,1,0,0,0,1,0,0,1,0,star,hexagon,,,,,,,,,,,,,,,,,,,,,,,,,,,,,,,,,,,,,,,,,,,,,,,,,,,,,,
296830,2022-11-29_13h00.56.054,vts_reward_expectancy_bt,2022.2.4,MacIntel,58.82352941,Safari,1470,956,,,l,0.773,1,12,0,0,2,2,1,1,1,0,0,0,0,0,1,0,triangle,hexagon,,,,,,,,,,,,,,,,,,,,,,,,,,,,,,,,,,,,,,,,,,,,,,,,,,,,,,
296830,2022-11-29_13h00.56.054,vts_reward_expectancy_bt,2022.2.4,MacIntel,58.82352941,Safari,1470,956,,,l,0.598,1,13,0,0,3,3,2,1,1,0,0,0,0,0,0,1,triangle,star,,,,,,,,,,,,,,,,,,,,,,,,,,,,,,,,,,,,,,,,,,,,,,,,,,,,,,
296830,2022-11-29_13h00.56.054,vts_reward_expectancy_bt,2022.2.4,MacIntel,58.82352941,Safari,1470,956,,,a,0.7,10,23,0,0,4,4,9,1,0,0,0,1,1,0,0,0,star,triangle,,,,,,,,,,,,,,,,,,,,,,,,,,,,,,,,,,,,,,,,,,,,,,,,,,,,,,
296830,2022-11-29_13h00.56.054,vts_reward_expectancy_bt,2022.2.4,MacIntel,58.82352941,Safari,1470,956,,,a,1.147,1,24,0,0,5,5,0,1,1,0,0,0,0,1,0,0,triangle,circle,,,,,,,,,,,,,,,,,,,,,,,,,,,,,,,,,,,,,,,,,,,,,,,,,,,,,,
296830,2022-11-29_13h00.56.054,vts_reward_expectancy_bt,2022.2.4,MacIntel,58.82352941,Safari,1470,956,,,l,1.405,10,34,0,0,6,6,10,1,0,0,0,1,0,1,0,0,star ,circle,,,,,,,,,,,,,,,,,,,,,,,,,,,,,,,,,,,,,,,,,,,,,,,,,,,,,,
296830,2022-11-29_13h00.56.054,vts_reward_expectancy_bt,2022.2.4,MacIntel,58.82352941,Safari,1470,956,,,l,1.66,1,35,0,0,7,7,4,1,0,1,0,0,0,0,1,0,circle,hexagon,,,,,,,,,,,,,,,,,,,,,,,,,,,,,,,,,,,,,,,,,,,,,,,,,,,,,,
296830,2022-11-29_13h00.56.054,vts_reward_expectancy_bt,2022.2.4,MacIntel,58.82352941,Safari,1470,956,,,l,1.03,10,45,0,0,8,8,8,1,0,0,1,0,0,0,0,1,hexagon,star,,,,,,,,,,,,,,,,,,,,,,,,,,,,,,,,,,,,,,,,,,,,,,,,,,,,,,
296830,2022-11-29_13h00.56.054,vts_reward_expectancy_bt,2022.2.4,MacIntel,58.82352941,Safari,1470,956,,,a,0.664,1,46,0,0,9,9,3,1,0,1,0,0,1,0,0,0,circle,triangle,,,,,,,,,,,,,,,,,,,,,,,,,,,,,,,,,,,,,,,,,,,,,,,,,,,,,,
296830,2022-11-29_13h00.56.054,vts_reward_expectancy_bt,2022.2.4,MacIntel,58.82352941,Safari,1470,956,,,a,3.058,1,47,0,0,10,10,6,1,0,0,1,0,1,0,0,0,hexagon,triangle,,,,,,,,,,,,,,,,,,,,,,,,,,,,,,,,,,,,,,,,,,,,,,,,,,,,,,
296830,2022-11-29_13h00.56.054,vts_reward_expectancy_bt,2022.2.4,MacIntel,58.82352941,Safari,1470,956,,,a,2.612,10,57,0,0,11,11,7,1,0,0,1,0,0,1,0,0,hexagon,circle,,,,,,,,,,,,,,,,,,,,,,,,,,,,,,,,,,,,,,,,,,,,,,,,,,,,,,
296830,2022-11-29_13h00.56.054,vts_reward_expectancy_bt,2022.2.4,MacIntel,58.82352941,Safari,1470,956,,,l,2.183,1,58,0,1,0,12,10,1,0,0,0,1,0,1,0,0,star ,circle,,,,,,,,,,,,,,,,,,,,,,,,,,,,,,,,,,,,,,,,,,,,,,,,,,,,,,
296830,2022-11-29_13h00.56.054,vts_reward_expectancy_bt,2022.2.4,MacIntel,58.82352941,Safari,1470,956,,,a,1.434,10,68,0,1,1,13,1,1,1,0,0,0,0,0,1,0,triangle,hexagon,,,,,,,,,,,,,,,,,,,,,,,,,,,,,,,,,,,,,,,,,,,,,,,,,,,,,,
296830,2022-11-29_13h00.56.054,vts_reward_expectancy_bt,2022.2.4,MacIntel,58.82352941,Safari,1470,956,,,l,0.968,1,69,0,1,2,14,8,1,0,0,1,0,0,0,0,1,hexagon,star,,,,,,,,,,,,,,,,,,,,,,,,,,,,,,,,,,,,,,,,,,,,,,,,,,,,,,
296830,2022-11-29_13h00.56.054,vts_reward_expectancy_bt,2022.2.4,MacIntel,58.82352941,Safari,1470,956,,,l,1.959,10,79,0,1,3,15,6,1,0,0,1,0,1,0,0,0,hexagon,triangle,,,,,,,,,,,,,,,,,,,,,,,,,,,,,,,,,,,,,,,,,,,,,,,,,,,,,,
296830,2022-11-29_13h00.56.054,vts_reward_expectancy_bt,2022.2.4,MacIntel,58.82352941,Safari,1470,956,,,l,1.17,10,89,0,1,4,16,2,1,1,0,0,0,0,0,0,1,triangle,star,,,,,,,,,,,,,,,,,,,,,,,,,,,,,,,,,,,,,,,,,,,,,,,,,,,,,,
296830,2022-11-29_13h00.56.054,vts_reward_expectancy_bt,2022.2.4,MacIntel,58.82352941,Safari,1470,956,,,a,0.983,1,90,0,1,5,17,11,1,0,0,0,1,0,0,1,0,star,hexagon,,,,,,,,,,,,,,,,,,,,,,,,,,,,,,,,,,,,,,,,,,,,,,,,,,,,,,
296830,2022-11-29_13h00.56.054,vts_reward_expectancy_bt,2022.2.4,MacIntel,58.82352941,Safari,1470,956,,,a,2.356,10,100,0,1,6,18,5,1,0,1,0,0,0,0,0,1,circle,star,,,,,,,,,,,,,,,,,,,,,,,,,,,,,,,,,,,,,,,,,,,,,,,,,,,,,,
296830,2022-11-29_13h00.56.054,vts_reward_expectancy_bt,2022.2.4,MacIntel,58.82352941,Safari,1470,956,,,a,2.085,10,110,0,1,7,19,0,1,1,0,0,0,0,1,0,0,triangle,circle,,,,,,,,,,,,,,,,,,,,,,,,,,,,,,,,,,,,,,,,,,,,,,,,,,,,,,
296830,2022-11-29_13h00.56.054,vts_reward_expectancy_bt,2022.2.4,MacIntel,58.82352941,Safari,1470,956,,,l,1.068,10,120,0,1,8,20,7,1,0,0,1,0,0,1,0,0,hexagon,circle,,,,,,,,,,,,,,,,,,,,,,,,,,,,,,,,,,,,,,,,,,,,,,,,,,,,,,
296830,2022-11-29_13h00.56.054,vts_reward_expectancy_bt,2022.2.4,MacIntel,58.82352941,Safari,1470,956,,,l,0.788,1,121,0,1,9,21,9,1,0,0,0,1,1,0,0,0,star,triangle,,,,,,,,,,,,,,,,,,,,,,,,,,,,,,,,,,,,,,,,,,,,,,,,,,,,,,
296830,2022-11-29_13h00.56.054,vts_reward_expectancy_bt,2022.2.4,MacIntel,58.82352941,Safari,1470,956,,,a,0.635,1,122,0,1,10,22,3,1,0,1,0,0,1,0,0,0,circle,triangle,,,,,,,,,,,,,,,,,,,,,,,,,,,,,,,,,,,,,,,,,,,,,,,,,,,,,,
296830,2022-11-29_13h00.56.054,vts_reward_expectancy_bt,2022.2.4,MacIntel,58.82352941,Safari,1470,956,,,a,0.918,1,123,0,1,11,23,4,1,0,1,0,0,0,0,1,0,circle,hexagon,,,,,,,,,,,,,,,,,,,,,,,,,,,,,,,,,,,,,,,,,,,,,,,,,,,,,,
296830,2022-11-29_13h00.56.054,vts_reward_expectancy_bt,2022.2.4,MacIntel,58.82352941,Safari,1470,956,,,l,1.786,10,133,0,2,0,24,6,1,0,0,1,0,1,0,0,0,hexagon,triangle,,,,,,,,,,,,,,,,,,,,,,,,,,,,,,,,,,,,,,,,,,,,,,,,,,,,,,
296830,2022-11-29_13h00.56.054,vts_reward_expectancy_bt,2022.2.4,MacIntel,58.82352941,Safari,1470,956,,,a,1.1,1,134,0,2,1,25,1,1,1,0,0,0,0,0,1,0,triangle,hexagon,,,,,,,,,,,,,,,,,,,,,,,,,,,,,,,,,,,,,,,,,,,,,,,,,,,,,,
296830,2022-11-29_13h00.56.054,vts_reward_expectancy_bt,2022.2.4,MacIntel,58.82352941,Safari,1470,956,,,l,1.684,10,144,0,2,2,26,0,1,1,0,0,0,0,1,0,0,triangle,circle,,,,,,,,,,,,,,,,,,,,,,,,,,,,,,,,,,,,,,,,,,,,,,,,,,,,,,
296830,2022-11-29_13h00.56.054,vts_reward_expectancy_bt,2022.2.4,MacIntel,58.82352941,Safari,1470,956,,,l,0.884,10,154,0,2,3,27,2,1,1,0,0,0,0,0,0,1,triangle,star,,,,,,,,,,,,,,,,,,,,,,,,,,,,,,,,,,,,,,,,,,,,,,,,,,,,,,
296830,2022-11-29_13h00.56.054,vts_reward_expectancy_bt,2022.2.4,MacIntel,58.82352941,Safari,1470,956,,,a,0.736,10,164,0,2,4,28,9,1,0,0,0,1,1,0,0,0,star,triangle,,,,,,,,,,,,,,,,,,,,,,,,,,,,,,,,,,,,,,,,,,,,,,,,,,,,,,
296830,2022-11-29_13h00.56.054,vts_reward_expectancy_bt,2022.2.4,MacIntel,58.82352941,Safari,1470,956,,,l,1.152,10,174,0,2,5,29,11,1,0,0,0,1,0,0,1,0,star,hexagon,,,,,,,,,,,,,,,,,,,,,,,,,,,,,,,,,,,,,,,,,,,,,,,,,,,,,,
296830,2022-11-29_13h00.56.054,vts_reward_expectancy_bt,2022.2.4,MacIntel,58.82352941,Safari,1470,956,,,l,0.922,1,175,0,2,6,30,10,1,0,0,0,1,0,1,0,0,star ,circle,,,,,,,,,,,,,,,,,,,,,,,,,,,,,,,,,,,,,,,,,,,,,,,,,,,,,,
296830,2022-11-29_13h00.56.054,vts_reward_expectancy_bt,2022.2.4,MacIntel,58.82352941,Safari,1470,956,,,l,1.135,10,185,0,2,7,31,7,1,0,0,1,0,0,1,0,0,hexagon,circle,,,,,,,,,,,,,,,,,,,,,,,,,,,,,,,,,,,,,,,,,,,,,,,,,,,,,,
296830,2022-11-29_13h00.56.054,vts_reward_expectancy_bt,2022.2.4,MacIntel,58.82352941,Safari,1470,956,,,a,0.648,10,195,0,2,8,32,4,1,0,1,0,0,0,0,1,0,circle,hexagon,,,,,,,,,,,,,,,,,,,,,,,,,,,,,,,,,,,,,,,,,,,,,,,,,,,,,,
296830,2022-11-29_13h00.56.054,vts_reward_expectancy_bt,2022.2.4,MacIntel,58.82352941,Safari,1470,956,,,l,1.724,1,196,0,2,9,33,5,1,0,1,0,0,0,0,0,1,circle,star,,,,,,,,,,,,,,,,,,,,,,,,,,,,,,,,,,,,,,,,,,,,,,,,,,,,,,
296830,2022-11-29_13h00.56.054,vts_reward_expectancy_bt,2022.2.4,MacIntel,58.82352941,Safari,1470,956,,,l,0.868,10,206,0,2,10,34,8,1,0,0,1,0,0,0,0,1,hexagon,star,,,,,,,,,,,,,,,,,,,,,,,,,,,,,,,,,,,,,,,,,,,,,,,,,,,,,,
296830,2022-11-29_13h00.56.054,vts_reward_expectancy_bt,2022.2.4,MacIntel,58.82352941,Safari,1470,956,,,a,0.668,1,207,0,2,11,35,3,1,0,1,0,0,1,0,0,0,circle,triangle,,,,,,,,,,,,,,,,,,,,,,,,,,,,,,,,,,,,,,,,,,,,,,,,,,,,,,
296830,2022-11-29_13h00.56.054,vts_reward_expectancy_bt,2022.2.4,MacIntel,58.82352941,Safari,1470,956,,,l,0.754,10,217,1,0,0,0,2,1,1,0,0,0,0,0,0,1,triangle,star,,,,,,,,,,,,,,,,,,,,,,,,,,,,,,,,,,,,,,,,,,,,,,,,,,,,,,
296830,2022-11-29_13h00.56.054,vts_reward_expectancy_bt,2022.2.4,MacIntel,58.82352941,Safari,1470,956,,,l,1.519,10,227,1,0,1,1,1,1,1,0,0,0,0,0,1,0,triangle,hexagon,,,,,,,,,,,,,,,,,,,,,,,,,,,,,,,,,,,,,,,,,,,,,,,,,,,,,,
296830,2022-11-29_13h00.56.054,vts_reward_expectancy_bt,2022.2.4,MacIntel,58.82352941,Safari,1470,956,,,a,1.515,1,228,1,0,2,2,7,1,0,0,1,0,0,1,0,0,hexagon,circle,,,,,,,,,,,,,,,,,,,,,,,,,,,,,,,,,,,,,,,,,,,,,,,,,,,,,,
296830,2022-11-29_13h00.56.054,vts_reward_expectancy_bt,2022.2.4,MacIntel,58.82352941,Safari,1470,956,,,l,0.951,1,229,1,0,3,3,9,1,0,0,0,1,1,0,0,0,star,triangle,,,,,,,,,,,,,,,,,,,,,,,,,,,,,,,,,,,,,,,,,,,,,,,,,,,,,,
296830,2022-11-29_13h00.56.054,vts_reward_expectancy_bt,2022.2.4,MacIntel,58.82352941,Safari,1470,956,,,l,1.386,10,239,1,0,4,4,5,1,0,1,0,0,0,0,0,1,circle,star,,,,,,,,,,,,,,,,,,,,,,,,,,,,,,,,,,,,,,,,,,,,,,,,,,,,,,
296830,2022-11-29_13h00.56.054,vts_reward_expectancy_bt,2022.2.4,MacIntel,58.82352941,Safari,1470,956,,,a,1.351,10,249,1,0,5,5,8,1,0,0,1,0,0,0,0,1,hexagon,star,,,,,,,,,,,,,,,,,,,,,,,,,,,,,,,,,,,,,,,,,,,,,,,,,,,,,,
296830,2022-11-29_13h00.56.054,vts_reward_expectancy_bt,2022.2.4,MacIntel,58.82352941,Safari,1470,956,,,l,1.419,1,250,1,0,6,6,4,1,0,1,0,0,0,0,1,0,circle,hexagon,,,,,,,,,,,,,,,,,,,,,,,,,,,,,,,,,,,,,,,,,,,,,,,,,,,,,,
296830,2022-11-29_13h00.56.054,vts_reward_expectancy_bt,2022.2.4,MacIntel,58.82352941,Safari,1470,956,,,a,1.218,10,260,1,0,7,7,6,1,0,0,1,0,1,0,0,0,hexagon,triangle,,,,,,,,,,,,,,,,,,,,,,,,,,,,,,,,,,,,,,,,,,,,,,,,,,,,,,
296830,2022-11-29_13h00.56.054,vts_reward_expectancy_bt,2022.2.4,MacIntel,58.82352941,Safari,1470,956,,,l,1.872,10,270,1,0,8,8,3,1,0,1,0,0,1,0,0,0,circle,triangle,,,,,,,,,,,,,,,,,,,,,,,,,,,,,,,,,,,,,,,,,,,,,,,,,,,,,,
296830,2022-11-29_13h00.56.054,vts_reward_expectancy_bt,2022.2.4,MacIntel,58.82352941,Safari,1470,956,,,a,1.367,10,280,1,0,9,9,11,1,0,0,0,1,0,0,1,0,star,hexagon,,,,,,,,,,,,,,,,,,,,,,,,,,,,,,,,,,,,,,,,,,,,,,,,,,,,,,
296830,2022-11-29_13h00.56.054,vts_reward_expectancy_bt,2022.2.4,MacIntel,58.82352941,Safari,1470,956,,,a,1.699,10,290,1,0,10,10,0,1,1,0,0,0,0,1,0,0,triangle,circle,,,,,,,,,,,,,,,,,,,,,,,,,,,,,,,,,,,,,,,,,,,,,,,,,,,,,,
296830,2022-11-29_13h00.56.054,vts_reward_expectancy_bt,2022.2.4,MacIntel,58.82352941,Safari,1470,956,,,l,0.851,10,300,1,0,11,11,10,1,0,0,0,1,0,1,0,0,star ,circle,,,,,,,,,,,,,,,,,,,,,,,,,,,,,,,,,,,,,,,,,,,,,,,,,,,,,,
296830,2022-11-29_13h00.56.054,vts_reward_expectancy_bt,2022.2.4,MacIntel,58.82352941,Safari,1470,956,,,a,2.172,1,301,1,1,0,12,1,1,1,0,0,0,0,0,1,0,triangle,hexagon,,,,,,,,,,,,,,,,,,,,,,,,,,,,,,,,,,,,,,,,,,,,,,,,,,,,,,
296830,2022-11-29_13h00.56.054,vts_reward_expectancy_bt,2022.2.4,MacIntel,58.82352941,Safari,1470,956,,,a,3.45,1,302,1,1,1,13,0,1,1,0,0,0,0,1,0,0,triangle,circle,,,,,,,,,,,,,,,,,,,,,,,,,,,,,,,,,,,,,,,,,,,,,,,,,,,,,,
296830,2022-11-29_13h00.56.054,vts_reward_expectancy_bt,2022.2.4,MacIntel,58.82352941,Safari,1470,956,,,a,2.392,1,303,1,1,2,14,9,1,0,0,0,1,1,0,0,0,star,triangle,,,,,,,,,,,,,,,,,,,,,,,,,,,,,,,,,,,,,,,,,,,,,,,,,,,,,,
296830,2022-11-29_13h00.56.054,vts_reward_expectancy_bt,2022.2.4,MacIntel,58.82352941,Safari,1470,956,,,a,2.072,1,304,1,1,3,15,11,1,0,0,0,1,0,0,1,0,star,hexagon,,,,,,,,,,,,,,,,,,,,,,,,,,,,,,,,,,,,,,,,,,,,,,,,,,,,,,
296830,2022-11-29_13h00.56.054,vts_reward_expectancy_bt,2022.2.4,MacIntel,58.82352941,Safari,1470,956,,,a,4.034,1,305,1,1,4,16,6,1,0,0,1,0,1,0,0,0,hexagon,triangle,,,,,,,,,,,,,,,,,,,,,,,,,,,,,,,,,,,,,,,,,,,,,,,,,,,,,,
296830,2022-11-29_13h00.56.054,vts_reward_expectancy_bt,2022.2.4,MacIntel,58.82352941,Safari,1470,956,,,a,1.133,1,306,1,1,5,17,4,1,0,1,0,0,0,0,1,0,circle,hexagon,,,,,,,,,,,,,,,,,,,,,,,,,,,,,,,,,,,,,,,,,,,,,,,,,,,,,,
296830,2022-11-29_13h00.56.054,vts_reward_expectancy_bt,2022.2.4,MacIntel,58.82352941,Safari,1470,956,,,l,0.666,10,316,1,1,6,18,8,1,0,0,1,0,0,0,0,1,hexagon,star,,,,,,,,,,,,,,,,,,,,,,,,,,,,,,,,,,,,,,,,,,,,,,,,,,,,,,
296830,2022-11-29_13h00.56.054,vts_reward_expectancy_bt,2022.2.4,MacIntel,58.82352941,Safari,1470,956,,,a,0.617,10,326,1,1,7,19,10,1,0,0,0,1,0,1,0,0,star ,circle,,,,,,,,,,,,,,,,,,,,,,,,,,,,,,,,,,,,,,,,,,,,,,,,,,,,,,
296830,2022-11-29_13h00.56.054,vts_reward_expectancy_bt,2022.2.4,MacIntel,58.82352941,Safari,1470,956,,,l,0.717,10,336,1,1,8,20,5,1,0,1,0,0,0,0,0,1,circle,star,,,,,,,,,,,,,,,,,,,,,,,,,,,,,,,,,,,,,,,,,,,,,,,,,,,,,,
296830,2022-11-29_13h00.56.054,vts_reward_expectancy_bt,2022.2.4,MacIntel,58.82352941,Safari,1470,956,,,l,2.456,10,346,1,1,9,21,7,1,0,0,1,0,0,1,0,0,hexagon,circle,,,,,,,,,,,,,,,,,,,,,,,,,,,,,,,,,,,,,,,,,,,,,,,,,,,,,,
296830,2022-11-29_13h00.56.054,vts_reward_expectancy_bt,2022.2.4,MacIntel,58.82352941,Safari,1470,956,,,a,0.402,1,347,1,1,10,22,3,1,0,1,0,0,1,0,0,0,circle,triangle,,,,,,,,,,,,,,,,,,,,,,,,,,,,,,,,,,,,,,,,,,,,,,,,,,,,,,
296830,2022-11-29_13h00.56.054,vts_reward_expectancy_bt,2022.2.4,MacIntel,58.82352941,Safari,1470,956,,,l,1.651,10,357,1,1,11,23,2,1,1,0,0,0,0,0,0,1,triangle,star,,,,,,,,,,,,,,,,,,,,,,,,,,,,,,,,,,,,,,,,,,,,,,,,,,,,,,
296830,2022-11-29_13h00.56.054,vts_reward_expectancy_bt,2022.2.4,MacIntel,58.82352941,Safari,1470,956,,,l,2.084,10,367,1,2,0,24,5,1,0,1,0,0,0,0,0,1,circle,star,,,,,,,,,,,,,,,,,,,,,,,,,,,,,,,,,,,,,,,,,,,,,,,,,,,,,,
296830,2022-11-29_13h00.56.054,vts_reward_expectancy_bt,2022.2.4,MacIntel,58.82352941,Safari,1470,956,,,l,2.182,10,377,1,2,1,25,8,1,0,0,1,0,0,0,0,1,hexagon,star,,,,,,,,,,,,,,,,,,,,,,,,,,,,,,,,,,,,,,,,,,,,,,,,,,,,,,
296830,2022-11-29_13h00.56.054,vts_reward_expectancy_bt,2022.2.4,MacIntel,58.82352941,Safari,1470,956,,,a,1.699,10,387,1,2,2,26,3,1,0,1,0,0,1,0,0,0,circle,triangle,,,,,,,,,,,,,,,,,,,,,,,,,,,,,,,,,,,,,,,,,,,,,,,,,,,,,,
296830,2022-11-29_13h00.56.054,vts_reward_expectancy_bt,2022.2.4,MacIntel,58.82352941,Safari,1470,956,,,a,1.285,1,388,1,2,3,27,11,1,0,0,0,1,0,0,1,0,star,hexagon,,,,,,,,,,,,,,,,,,,,,,,,,,,,,,,,,,,,,,,,,,,,,,,,,,,,,,
296830,2022-11-29_13h00.56.054,vts_reward_expectancy_bt,2022.2.4,MacIntel,58.82352941,Safari,1470,956,,,l,0.719,10,398,1,2,4,28,1,1,1,0,0,0,0,0,1,0,triangle,hexagon,,,,,,,,,,,,,,,,,,,,,,,,,,,,,,,,,,,,,,,,,,,,,,,,,,,,,,
296830,2022-11-29_13h00.56.054,vts_reward_expectancy_bt,2022.2.4,MacIntel,58.82352941,Safari,1470,956,,,a,0.665,1,399,1,2,5,29,0,1,1,0,0,0,0,1,0,0,triangle,circle,,,,,,,,,,,,,,,,,,,,,,,,,,,,,,,,,,,,,,,,,,,,,,,,,,,,,,
296830,2022-11-29_13h00.56.054,vts_reward_expectancy_bt,2022.2.4,MacIntel,58.82352941,Safari,1470,956,,,a,2.669,1,400,1,2,6,30,7,1,0,0,1,0,0,1,0,0,hexagon,circle,,,,,,,,,,,,,,,,,,,,,,,,,,,,,,,,,,,,,,,,,,,,,,,,,,,,,,
296830,2022-11-29_13h00.56.054,vts_reward_expectancy_bt,2022.2.4,MacIntel,58.82352941,Safari,1470,956,,,a,1.516,10,410,1,2,7,31,9,1,0,0,0,1,1,0,0,0,star,triangle,,,,,,,,,,,,,,,,,,,,,,,,,,,,,,,,,,,,,,,,,,,,,,,,,,,,,,
296830,2022-11-29_13h00.56.054,vts_reward_expectancy_bt,2022.2.4,MacIntel,58.82352941,Safari,1470,956,,,a,1.118,1,411,1,2,8,32,4,1,0,1,0,0,0,0,1,0,circle,hexagon,,,,,,,,,,,,,,,,,,,,,,,,,,,,,,,,,,,,,,,,,,,,,,,,,,,,,,
296830,2022-11-29_13h00.56.054,vts_reward_expectancy_bt,2022.2.4,MacIntel,58.82352941,Safari,1470,956,,,l,1.717,10,421,1,2,9,33,6,1,0,0,1,0,1,0,0,0,hexagon,triangle,,,,,,,,,,,,,,,,,,,,,,,,,,,,,,,,,,,,,,,,,,,,,,,,,,,,,,
296830,2022-11-29_13h00.56.054,vts_reward_expectancy_bt,2022.2.4,MacIntel,58.82352941,Safari,1470,956,,,a,0.752,10,431,1,2,10,34,10,1,0,0,0,1,0,1,0,0,star ,circle,,,,,,,,,,,,,,,,,,,,,,,,,,,,,,,,,,,,,,,,,,,,,,,,,,,,,,
296830,2022-11-29_13h00.56.054,vts_reward_expectancy_bt,2022.2.4,MacIntel,58.82352941,Safari,1470,956,,,l,0.752,1,432,1,2,11,35,2,1,1,0,0,0,0,0,0,1,triangle,star,,,,,,,,,,,,,,,,,,,,,,,,,,,,,,,,,,,,,,,,,,,,,,,,,,,,,,
296830,2022-11-29_13h00.56.054,vts_reward_expectancy_bt,2022.2.4,MacIntel,58.82352941,Safari,1470,956,,,a,1.15,10,442,2,0,0,0,6,1,0,0,1,0,1,0,0,0,hexagon,triangle,,,,,,,,,,,,,,,,,,,,,,,,,,,,,,,,,,,,,,,,,,,,,,,,,,,,,,
296830,2022-11-29_13h00.56.054,vts_reward_expectancy_bt,2022.2.4,MacIntel,58.82352941,Safari,1470,956,,,l,1.217,10,452,2,0,1,1,7,1,0,0,1,0,0,1,0,0,hexagon,circle,,,,,,,,,,,,,,,,,,,,,,,,,,,,,,,,,,,,,,,,,,,,,,,,,,,,,,
296830,2022-11-29_13h00.56.054,vts_reward_expectancy_bt,2022.2.4,MacIntel,58.82352941,Safari,1470,956,,,a,0.793,1,453,2,0,2,2,0,1,1,0,0,0,0,1,0,0,triangle,circle,,,,,,,,,,,,,,,,,,,,,,,,,,,,,,,,,,,,,,,,,,,,,,,,,,,,,,
296830,2022-11-29_13h00.56.054,vts_reward_expectancy_bt,2022.2.4,MacIntel,58.82352941,Safari,1470,956,,,a,1.032,1,454,2,0,3,3,10,1,0,0,0,1,0,1,0,0,star ,circle,,,,,,,,,,,,,,,,,,,,,,,,,,,,,,,,,,,,,,,,,,,,,,,,,,,,,,
296830,2022-11-29_13h00.56.054,vts_reward_expectancy_bt,2022.2.4,MacIntel,58.82352941,Safari,1470,956,,,l,0.69,10,464,2,0,4,4,5,1,0,1,0,0,0,0,0,1,circle,star,,,,,,,,,,,,,,,,,,,,,,,,,,,,,,,,,,,,,,,,,,,,,,,,,,,,,,
296830,2022-11-29_13h00.56.054,vts_reward_expectancy_bt,2022.2.4,MacIntel,58.82352941,Safari,1470,956,,,a,1.555,1,465,2,0,5,5,8,1,0,0,1,0,0,0,0,1,hexagon,star,,,,,,,,,,,,,,,,,,,,,,,,,,,,,,,,,,,,,,,,,,,,,,,,,,,,,,
296830,2022-11-29_13h00.56.054,vts_reward_expectancy_bt,2022.2.4,MacIntel,58.82352941,Safari,1470,956,,,a,1.952,10,475,2,0,6,6,3,1,0,1,0,0,1,0,0,0,circle,triangle,,,,,,,,,,,,,,,,,,,,,,,,,,,,,,,,,,,,,,,,,,,,,,,,,,,,,,
296830,2022-11-29_13h00.56.054,vts_reward_expectancy_bt,2022.2.4,MacIntel,58.82352941,Safari,1470,956,,,l,1.6,1,476,2,0,7,7,2,1,1,0,0,0,0,0,0,1,triangle,star,,,,,,,,,,,,,,,,,,,,,,,,,,,,,,,,,,,,,,,,,,,,,,,,,,,,,,
296830,2022-11-29_13h00.56.054,vts_reward_expectancy_bt,2022.2.4,MacIntel,58.82352941,Safari,1470,956,,,a,1.309,10,486,2,0,8,8,4,1,0,1,0,0,0,0,1,0,circle,hexagon,,,,,,,,,,,,,,,,,,,,,,,,,,,,,,,,,,,,,,,,,,,,,,,,,,,,,,
296830,2022-11-29_13h00.56.054,vts_reward_expectancy_bt,2022.2.4,MacIntel,58.82352941,Safari,1470,956,,,a,0.866,1,487,2,0,9,9,9,1,0,0,0,1,1,0,0,0,star,triangle,,,,,,,,,,,,,,,,,,,,,,,,,,,,,,,,,,,,,,,,,,,,,,,,,,,,,,
296830,2022-11-29_13h00.56.054,vts_reward_expectancy_bt,2022.2.4,MacIntel,58.82352941,Safari,1470,956,,,a,2.368,10,497,2,0,10,10,1,1,1,0,0,0,0,0,1,0,triangle,hexagon,,,,,,,,,,,,,,,,,,,,,,,,,,,,,,,,,,,,,,,,,,,,,,,,,,,,,,
296830,2022-11-29_13h00.56.054,vts_reward_expectancy_bt,2022.2.4,MacIntel,58.82352941,Safari,1470,956,,,a,2.625,10,507,2,0,11,11,11,1,0,0,0,1,0,0,1,0,star,hexagon,,,,,,,,,,,,,,,,,,,,,,,,,,,,,,,,,,,,,,,,,,,,,,,,,,,,,,
296830,2022-11-29_13h00.56.054,vts_reward_expectancy_bt,2022.2.4,MacIntel,58.82352941,Safari,1470,956,,,l,0.617,10,517,2,1,0,12,7,1,0,0,1,0,0,1,0,0,hexagon,circle,,,,,,,,,,,,,,,,,,,,,,,,,,,,,,,,,,,,,,,,,,,,,,,,,,,,,,
296830,2022-11-29_13h00.56.054,vts_reward_expectancy_bt,2022.2.4,MacIntel,58.82352941,Safari,1470,956,,,l,2.174,10,527,2,1,1,13,5,1,0,1,0,0,0,0,0,1,circle,star,,,,,,,,,,,,,,,,,,,,,,,,,,,,,,,,,,,,,,,,,,,,,,,,,,,,,,
296830,2022-11-29_13h00.56.054,vts_reward_expectancy_bt,2022.2.4,MacIntel,58.82352941,Safari,1470,956,,,a,2.685,10,537,2,1,2,14,9,1,0,0,0,1,1,0,0,0,star,triangle,,,,,,,,,,,,,,,,,,,,,,,,,,,,,,,,,,,,,,,,,,,,,,,,,,,,,,
296830,2022-11-29_13h00.56.054,vts_reward_expectancy_bt,2022.2.4,MacIntel,58.82352941,Safari,1470,956,,,l,1.883,10,547,2,1,3,15,10,1,0,0,0,1,0,1,0,0,star ,circle,,,,,,,,,,,,,,,,,,,,,,,,,,,,,,,,,,,,,,,,,,,,,,,,,,,,,,
296830,2022-11-29_13h00.56.054,vts_reward_expectancy_bt,2022.2.4,MacIntel,58.82352941,Safari,1470,956,,,l,1.466,1,548,2,1,4,16,0,1,1,0,0,0,0,1,0,0,triangle,circle,,,,,,,,,,,,,,,,,,,,,,,,,,,,,,,,,,,,,,,,,,,,,,,,,,,,,,
296830,2022-11-29_13h00.56.054,vts_reward_expectancy_bt,2022.2.4,MacIntel,58.82352941,Safari,1470,956,,,a,1.713,10,558,2,1,5,17,1,1,1,0,0,0,0,0,1,0,triangle,hexagon,,,,,,,,,,,,,,,,,,,,,,,,,,,,,,,,,,,,,,,,,,,,,,,,,,,,,,
296830,2022-11-29_13h00.56.054,vts_reward_expectancy_bt,2022.2.4,MacIntel,58.82352941,Safari,1470,956,,,a,1.219,1,559,2,1,6,18,8,1,0,0,1,0,0,0,0,1,hexagon,star,,,,,,,,,,,,,,,,,,,,,,,,,,,,,,,,,,,,,,,,,,,,,,,,,,,,,,
296830,2022-11-29_13h00.56.054,vts_reward_expectancy_bt,2022.2.4,MacIntel,58.82352941,Safari,1470,956,,,l,2.052,10,569,2,1,7,19,2,1,1,0,0,0,0,0,0,1,triangle,star,,,,,,,,,,,,,,,,,,,,,,,,,,,,,,,,,,,,,,,,,,,,,,,,,,,,,,
296830,2022-11-29_13h00.56.054,vts_reward_expectancy_bt,2022.2.4,MacIntel,58.82352941,Safari,1470,956,,,a,1.132,1,570,2,1,8,20,6,1,0,0,1,0,1,0,0,0,hexagon,triangle,,,,,,,,,,,,,,,,,,,,,,,,,,,,,,,,,,,,,,,,,,,,,,,,,,,,,,
296830,2022-11-29_13h00.56.054,vts_reward_expectancy_bt,2022.2.4,MacIntel,58.82352941,Safari,1470,956,,,l,1.505,1,571,2,1,9,21,3,1,0,1,0,0,1,0,0,0,circle,triangle,,,,,,,,,,,,,,,,,,,,,,,,,,,,,,,,,,,,,,,,,,,,,,,,,,,,,,
296830,2022-11-29_13h00.56.054,vts_reward_expectancy_bt,2022.2.4,MacIntel,58.82352941,Safari,1470,956,,,a,0.585,10,581,2,1,10,22,11,1,0,0,0,1,0,0,1,0,star,hexagon,,,,,,,,,,,,,,,,,,,,,,,,,,,,,,,,,,,,,,,,,,,,,,,,,,,,,,
296830,2022-11-29_13h00.56.054,vts_reward_expectancy_bt,2022.2.4,MacIntel,58.82352941,Safari,1470,956,,,a,1.451,10,591,2,1,11,23,4,1,0,1,0,0,0,0,1,0,circle,hexagon,,,,,,,,,,,,,,,,,,,,,,,,,,,,,,,,,,,,,,,,,,,,,,,,,,,,,,
296830,2022-11-29_13h00.56.054,vts_reward_expectancy_bt,2022.2.4,MacIntel,58.82352941,Safari,1470,956,,,l,0.72,10,601,2,2,0,24,2,1,1,0,0,0,0,0,0,1,triangle,star,,,,,,,,,,,,,,,,,,,,,,,,,,,,,,,,,,,,,,,,,,,,,,,,,,,,,,
296830,2022-11-29_13h00.56.054,vts_reward_expectancy_bt,2022.2.4,MacIntel,58.82352941,Safari,1470,956,,,a,0.986,10,611,2,2,1,25,1,1,1,0,0,0,0,0,1,0,triangle,hexagon,,,,,,,,,,,,,,,,,,,,,,,,,,,,,,,,,,,,,,,,,,,,,,,,,,,,,,
296830,2022-11-29_13h00.56.054,vts_reward_expectancy_bt,2022.2.4,MacIntel,58.82352941,Safari,1470,956,,,l,0.741,10,621,2,2,2,26,4,1,0,1,0,0,0,0,1,0,circle,hexagon,,,,,,,,,,,,,,,,,,,,,,,,,,,,,,,,,,,,,,,,,,,,,,,,,,,,,,
296830,2022-11-29_13h00.56.054,vts_reward_expectancy_bt,2022.2.4,MacIntel,58.82352941,Safari,1470,956,,,a,0.634,1,622,2,2,3,27,3,1,0,1,0,0,1,0,0,0,circle,triangle,,,,,,,,,,,,,,,,,,,,,,,,,,,,,,,,,,,,,,,,,,,,,,,,,,,,,,
296830,2022-11-29_13h00.56.054,vts_reward_expectancy_bt,2022.2.4,MacIntel,58.82352941,Safari,1470,956,,,a,0.568,10,632,2,2,4,28,9,1,0,0,0,1,1,0,0,0,star,triangle,,,,,,,,,,,,,,,,,,,,,,,,,,,,,,,,,,,,,,,,,,,,,,,,,,,,,,
296830,2022-11-29_13h00.56.054,vts_reward_expectancy_bt,2022.2.4,MacIntel,58.82352941,Safari,1470,956,,,l,0.648,10,642,2,2,5,29,6,1,0,0,1,0,1,0,0,0,hexagon,triangle,,,,,,,,,,,,,,,,,,,,,,,,,,,,,,,,,,,,,,,,,,,,,,,,,,,,,,
296830,2022-11-29_13h00.56.054,vts_reward_expectancy_bt,2022.2.4,MacIntel,58.82352941,Safari,1470,956,,,a,0.734,10,652,2,2,6,30,0,1,1,0,0,0,0,1,0,0,triangle,circle,,,,,,,,,,,,,,,,,,,,,,,,,,,,,,,,,,,,,,,,,,,,,,,,,,,,,,
296830,2022-11-29_13h00.56.054,vts_reward_expectancy_bt,2022.2.4,MacIntel,58.82352941,Safari,1470,956,,,a,1.37,1,653,2,2,7,31,5,1,0,1,0,0,0,0,0,1,circle,star,,,,,,,,,,,,,,,,,,,,,,,,,,,,,,,,,,,,,,,,,,,,,,,,,,,,,,
296830,2022-11-29_13h00.56.054,vts_reward_expectancy_bt,2022.2.4,MacIntel,58.82352941,Safari,1470,956,,,l,0.334,1,654,2,2,8,32,7,1,0,0,1,0,0,1,0,0,hexagon,circle,,,,,,,,,,,,,,,,,,,,,,,,,,,,,,,,,,,,,,,,,,,,,,,,,,,,,,
296830,2022-11-29_13h00.56.054,vts_reward_expectancy_bt,2022.2.4,MacIntel,58.82352941,Safari,1470,956,,,a,0.567,1,655,2,2,9,33,10,1,0,0,0,1,0,1,0,0,star ,circle,,,,,,,,,,,,,,,,,,,,,,,,,,,,,,,,,,,,,,,,,,,,,,,,,,,,,,
296830,2022-11-29_13h00.56.054,vts_reward_expectancy_bt,2022.2.4,MacIntel,58.82352941,Safari,1470,956,,,l,1.191,10,665,2,2,10,34,8,1,0,0,1,0,0,0,0,1,hexagon,star,,,,,,,,,,,,,,,,,,,,,,,,,,,,,,,,,,,,,,,,,,,,,,,,,,,,,,
296830,2022-11-29_13h00.56.054,vts_reward_expectancy_bt,2022.2.4,MacIntel,58.82352941,Safari,1470,956,,,a,0.533,1,666,2,2,11,35,11,1,0,0,0,1,0,0,1,0,star,hexagon,,,,,,,,,,,,,,,,,,,,,,,,,,,,,,,,,,,,,,,,,,,,,,,,,,,,,,
296830,2022-11-29_13h00.56.054,vts_reward_expectancy_bt,2022.2.4,MacIntel,58.82352941,Safari,1470,956,,,,,,,,,,,,,,,,,,,,,,,W,160,circle,0,0,,0,0,0,0,0,1,,,,,,,,,,,,,,,,,,,,,,,,,,,,,,,,,,,,,,,,,,
296830,2022-11-29_13h00.56.054,vts_reward_expectancy_bt,2022.2.4,MacIntel,58.82352941,Safari,1470,956,,,,,,,,,,,,,,,,,,,,,,,B,181,triangle,1,1,d,0,1,0,1,0,1,0.709,,,,,,,,,,,,,,,,,,,,,,,,,,,,,,,,,,,,,,,,,
296830,2022-11-29_13h00.56.054,vts_reward_expectancy_bt,2022.2.4,MacIntel,58.82352941,Safari,1470,956,,,,,,,,,,,,,,,,,,,,,,,D,132,star,1,0,d,0,2,0,2,0,1,0.623,,,,,,,,,,,,,,,,,,,,,,,,,,,,,,,,,,,,,,,,,
296830,2022-11-29_13h00.56.054,vts_reward_expectancy_bt,2022.2.4,MacIntel,58.82352941,Safari,1470,956,,,,,,,,,,,,,,,,,,,,,,,H,174,hexagon,0,0,f,0,3,0,3,0,1,0.622,,,,,,,,,,,,,,,,,,,,,,,,,,,,,,,,,,,,,,,,,
296830,2022-11-29_13h00.56.054,vts_reward_expectancy_bt,2022.2.4,MacIntel,58.82352941,Safari,1470,956,,,,,,,,,,,,,,,,,,,,,,,U,125,circle,1,1,f,0,4,0,4,0,1,0.791,,,,,,,,,,,,,,,,,,,,,,,,,,,,,,,,,,,,,,,,,
296830,2022-11-29_13h00.56.054,vts_reward_expectancy_bt,2022.2.4,MacIntel,58.82352941,Safari,1470,956,,,,,,,,,,,,,,,,,,,,,,,Y,167,triangle,1,0,f,0,5,0,5,0,1,0.631,,,,,,,,,,,,,,,,,,,,,,,,,,,,,,,,,,,,,,,,,
296830,2022-11-29_13h00.56.054,vts_reward_expectancy_bt,2022.2.4,MacIntel,58.82352941,Safari,1470,956,,,,,,,,,,,,,,,,,,,,,,,S,146,star,1,0,f,0,6,0,6,0,1,0.64,,,,,,,,,,,,,,,,,,,,,,,,,,,,,,,,,,,,,,,,,
296830,2022-11-29_13h00.56.054,vts_reward_expectancy_bt,2022.2.4,MacIntel,58.82352941,Safari,1470,956,,,,,,,,,,,,,,,,,,,,,,,F,139,hexagon,1,0,d,0,7,0,7,0,1,0.681,,,,,,,,,,,,,,,,,,,,,,,,,,,,,,,,,,,,,,,,,
296830,2022-11-29_13h00.56.054,vts_reward_expectancy_bt,2022.2.4,MacIntel,58.82352941,Safari,1470,956,,,,,,,,,,,,,,,,,,,,,,,W,160,star,1,0,f,0,8,0,8,0,1,0.444,,,,,,,,,,,,,,,,,,,,,,,,,,,,,,,,,,,,,,,,,
296830,2022-11-29_13h00.56.054,vts_reward_expectancy_bt,2022.2.4,MacIntel,58.82352941,Safari,1470,956,,,,,,,,,,,,,,,,,,,,,,,B,181,circle,1,0,d,0,9,0,9,0,1,0.428,,,,,,,,,,,,,,,,,,,,,,,,,,,,,,,,,,,,,,,,,
296830,2022-11-29_13h00.56.054,vts_reward_expectancy_bt,2022.2.4,MacIntel,58.82352941,Safari,1470,956,,,,,,,,,,,,,,,,,,,,,,,W,132,circle,1,0,f,1,0,0,0,0,1,0.728,,,,,,,,,,,,,,,,,,,,,,,,,,,,,,,,,,,,,,,,,
296830,2022-11-29_13h00.56.054,vts_reward_expectancy_bt,2022.2.4,MacIntel,58.82352941,Safari,1470,956,,,,,,,,,,,,,,,,,,,,,,,B,174,triangle,1,0,d,1,1,0,1,0,1,0.433,,,,,,,,,,,,,,,,,,,,,,,,,,,,,,,,,,,,,,,,,
296830,2022-11-29_13h00.56.054,vts_reward_expectancy_bt,2022.2.4,MacIntel,58.82352941,Safari,1470,956,,,,,,,,,,,,,,,,,,,,,,,H,181,star,0,0,f,1,2,0,2,0,1,0.627,,,,,,,,,,,,,,,,,,,,,,,,,,,,,,,,,,,,,,,,,
296830,2022-11-29_13h00.56.054,vts_reward_expectancy_bt,2022.2.4,MacIntel,58.82352941,Safari,1470,956,,,,,,,,,,,,,,,,,,,,,,,Y,167,hexagon,1,1,f,1,3,0,3,0,1,0.564,,,,,,,,,,,,,,,,,,,,,,,,,,,,,,,,,,,,,,,,,
296830,2022-11-29_13h00.56.054,vts_reward_expectancy_bt,2022.2.4,MacIntel,58.82352941,Safari,1470,956,,,,,,,,,,,,,,,,,,,,,,,F,139,circle,1,0,d,1,4,0,4,0,1,0.529,,,,,,,,,,,,,,,,,,,,,,,,,,,,,,,,,,,,,,,,,
296830,2022-11-29_13h00.56.054,vts_reward_expectancy_bt,2022.2.4,MacIntel,58.82352941,Safari,1470,956,,,,,,,,,,,,,,,,,,,,,,,D,125,triangle,1,0,d,1,5,0,5,0,1,0.477,,,,,,,,,,,,,,,,,,,,,,,,,,,,,,,,,,,,,,,,,
296830,2022-11-29_13h00.56.054,vts_reward_expectancy_bt,2022.2.4,MacIntel,58.82352941,Safari,1470,956,,,,,,,,,,,,,,,,,,,,,,,S,146,star,1,0,f,1,6,0,6,0,1,0.493,,,,,,,,,,,,,,,,,,,,,,,,,,,,,,,,,,,,,,,,,
296830,2022-11-29_13h00.56.054,vts_reward_expectancy_bt,2022.2.4,MacIntel,58.82352941,Safari,1470,956,,,,,,,,,,,,,,,,,,,,,,,U,160,hexagon,1,0,f,1,7,0,7,0,1,0.515,,,,,,,,,,,,,,,,,,,,,,,,,,,,,,,,,,,,,,,,,
296830,2022-11-29_13h00.56.054,vts_reward_expectancy_bt,2022.2.4,MacIntel,58.82352941,Safari,1470,956,,,,,,,,,,,,,,,,,,,,,,,W,132,star,0,0,d,1,8,0,8,0,1,0.543,,,,,,,,,,,,,,,,,,,,,,,,,,,,,,,,,,,,,,,,,
296830,2022-11-29_13h00.56.054,vts_reward_expectancy_bt,2022.2.4,MacIntel,58.82352941,Safari,1470,956,,,,,,,,,,,,,,,,,,,,,,,B,174,hexagon,1,1,d,1,9,0,9,0,1,0.509,,,,,,,,,,,,,,,,,,,,,,,,,,,,,,,,,,,,,,,,,
296830,2022-11-29_13h00.56.054,vts_reward_expectancy_bt,2022.2.4,MacIntel,58.82352941,Safari,1470,956,,,,,,,,,,,,,,,,,,,,,,,F,160,triangle,1,0,d,2,0,0,0,0,1,0.725,,,,,,,,,,,,,,,,,,,,,,,,,,,,,,,,,,,,,,,,,
296830,2022-11-29_13h00.56.054,vts_reward_expectancy_bt,2022.2.4,MacIntel,58.82352941,Safari,1470,956,,,,,,,,,,,,,,,,,,,,,,,U,181,star,1,0,f,2,1,0,1,0,1,0.594,,,,,,,,,,,,,,,,,,,,,,,,,,,,,,,,,,,,,,,,,
296830,2022-11-29_13h00.56.054,vts_reward_expectancy_bt,2022.2.4,MacIntel,58.82352941,Safari,1470,956,,,,,,,,,,,,,,,,,,,,,,,B,132,hexagon,1,0,d,2,2,0,2,0,1,0.514,,,,,,,,,,,,,,,,,,,,,,,,,,,,,,,,,,,,,,,,,
296830,2022-11-29_13h00.56.054,vts_reward_expectancy_bt,2022.2.4,MacIntel,58.82352941,Safari,1470,956,,,,,,,,,,,,,,,,,,,,,,,W,139,circle,1,0,f,2,3,0,3,0,1,0.477,,,,,,,,,,,,,,,,,,,,,,,,,,,,,,,,,,,,,,,,,
296830,2022-11-29_13h00.56.054,vts_reward_expectancy_bt,2022.2.4,MacIntel,58.82352941,Safari,1470,956,,,,,,,,,,,,,,,,,,,,,,,Y,125,triangle,1,0,f,2,4,0,4,0,1,0.524,,,,,,,,,,,,,,,,,,,,,,,,,,,,,,,,,,,,,,,,,
296830,2022-11-29_13h00.56.054,vts_reward_expectancy_bt,2022.2.4,MacIntel,58.82352941,Safari,1470,956,,,,,,,,,,,,,,,,,,,,,,,D,167,star,1,0,d,2,5,0,5,0,1,0.594,,,,,,,,,,,,,,,,,,,,,,,,,,,,,,,,,,,,,,,,,
296830,2022-11-29_13h00.56.054,vts_reward_expectancy_bt,2022.2.4,MacIntel,58.82352941,Safari,1470,956,,,,,,,,,,,,,,,,,,,,,,,S,174,hexagon,1,0,f,2,6,0,6,0,1,0.575,,,,,,,,,,,,,,,,,,,,,,,,,,,,,,,,,,,,,,,,,
296830,2022-11-29_13h00.56.054,vts_reward_expectancy_bt,2022.2.4,MacIntel,58.82352941,Safari,1470,956,,,,,,,,,,,,,,,,,,,,,,,H,146,circle,0,0,f,2,7,0,7,0,1,0.898,,,,,,,,,,,,,,,,,,,,,,,,,,,,,,,,,,,,,,,,,
296830,2022-11-29_13h00.56.054,vts_reward_expectancy_bt,2022.2.4,MacIntel,58.82352941,Safari,1470,956,,,,,,,,,,,,,,,,,,,,,,,F,160,star,1,1,d,2,8,0,8,0,1,0.676,,,,,,,,,,,,,,,,,,,,,,,,,,,,,,,,,,,,,,,,,
296830,2022-11-29_13h00.56.054,vts_reward_expectancy_bt,2022.2.4,MacIntel,58.82352941,Safari,1470,956,,,,,,,,,,,,,,,,,,,,,,,U,181,triangle,1,0,f,2,9,0,9,0,1,0.661,,,,,,,,,,,,,,,,,,,,,,,,,,,,,,,,,,,,,,,,,
296830,2022-11-29_13h00.56.054,vts_reward_expectancy_bt,2022.2.4,MacIntel,58.82352941,Safari,1470,956,,,,,,,,,,,,,,,,,,,,,,,U,160,star,1,0,,3,,,,,,,k,0.827,0,0,0,0,1,,,,,,,,,,,,,,,,,,,,,,,,,,,,,,,,,,
296830,2022-11-29_13h00.56.054,vts_reward_expectancy_bt,2022.2.4,MacIntel,58.82352941,Safari,1470,956,,,,,,,,,,,,,,,,,,,,,,,H,181,triangle,1,0,,3,,,,,,,k,0.592,1,0,1,0,1,,,,,,,,,,,,,,,,,,,,,,,,,,,,,,,,,,
296830,2022-11-29_13h00.56.054,vts_reward_expectancy_bt,2022.2.4,MacIntel,58.82352941,Safari,1470,956,,,,,,,,,,,,,,,,,,,,,,,W,174,hexagon,1,0,,3,,,,,,,k,0.476,2,0,2,0,1,,,,,,,,,,,,,,,,,,,,,,,,,,,,,,,,,,
296830,2022-11-29_13h00.56.054,vts_reward_expectancy_bt,2022.2.4,MacIntel,58.82352941,Safari,1470,956,,,,,,,,,,,,,,,,,,,,,,,F,167,circle,1,0,,3,,,,,,,k,0.609,3,0,3,0,1,,,,,,,,,,,,,,,,,,,,,,,,,,,,,,,,,,
296830,2022-11-29_13h00.56.054,vts_reward_expectancy_bt,2022.2.4,MacIntel,58.82352941,Safari,1470,956,,,,,,,,,,,,,,,,,,,,,,,S,132,star,1,0,,3,,,,,,,j,0.414,4,0,4,0,1,,,,,,,,,,,,,,,,,,,,,,,,,,,,,,,,,,
296830,2022-11-29_13h00.56.054,vts_reward_expectancy_bt,2022.2.4,MacIntel,58.82352941,Safari,1470,956,,,,,,,,,,,,,,,,,,,,,,,B,146,triangle,1,0,,3,,,,,,,j,1.144,5,0,5,0,1,,,,,,,,,,,,,,,,,,,,,,,,,,,,,,,,,,
296830,2022-11-29_13h00.56.054,vts_reward_expectancy_bt,2022.2.4,MacIntel,58.82352941,Safari,1470,956,,,,,,,,,,,,,,,,,,,,,,,D,139,hexagon,1,0,,3,,,,,,,j,0.577,6,0,6,0,1,,,,,,,,,,,,,,,,,,,,,,,,,,,,,,,,,,
296830,2022-11-29_13h00.56.054,vts_reward_expectancy_bt,2022.2.4,MacIntel,58.82352941,Safari,1470,956,,,,,,,,,,,,,,,,,,,,,,,Y,125,circle,1,0,,3,,,,,,,j,0.591,7,0,7,0,1,,,,,,,,,,,,,,,,,,,,,,,,,,,,,,,,,,
296830,2022-11-29_13h00.56.054,vts_reward_expectancy_bt,2022.2.4,MacIntel,58.82352941,Safari,1470,956,,,,,,,,,,,,,,,,,,,,,,,U,160,star,1,0,,3,,,,,,,k,0.66,8,0,8,0,1,,,,,,,,,,,,,,,,,,,,,,,,,,,,,,,,,,
296830,2022-11-29_13h00.56.054,vts_reward_expectancy_bt,2022.2.4,MacIntel,58.82352941,Safari,1470,956,,,,,,,,,,,,,,,,,,,,,,,H,181,triangle,1,0,,3,,,,,,,k,0.559,9,0,9,0,1,,,,,,,,,,,,,,,,,,,,,,,,,,,,,,,,,,
296830,2022-11-29_13h00.56.054,vts_reward_expectancy_bt,2022.2.4,MacIntel,58.82352941,Safari,1470,956,,,,,0,666,,,,,,,,,,,,,,,,,Y,160,hexagon,1,0,,4,,,,,,,,,,,,,,-1,letter,NA,f,1.602,vtsPrac,0,0,0,0,1,,,,,,,,,,,,,,,,,,,,,,,
296830,2022-11-29_13h00.56.054,vts_reward_expectancy_bt,2022.2.4,MacIntel,58.82352941,Safari,1470,956,,,,,0,666,,,,,,,,,,,,,,,,,W,139,circle,0,0,,4,,,,,,,,,,,,,,switch,number,NA,k,0.515,vtsPrac,1,0,1,0,1,,,,,,,,,,,,,,,,,,,,,,,
296830,2022-11-29_13h00.56.054,vts_reward_expectancy_bt,2022.2.4,MacIntel,58.82352941,Safari,1470,956,,,,,0,666,,,,,,,,,,,,,,,,,D,146,hexagon,1,1,,4,,,,,,,,,,,,,,switch,letter,lettSwt,d,1.258,vtsPrac,2,0,2,0,1,,,,,,,,,,,,,,,,,,,,,,,
296830,2022-11-29_13h00.56.054,vts_reward_expectancy_bt,2022.2.4,MacIntel,58.82352941,Safari,1470,956,,,,,0,666,,,,,,,,,,,,,,,,,B,181,circle,1,0,,4,,,,,,,,,,,,,,repeat,letter,lettRpt,d,0.627,vtsPrac,3,0,3,0,1,,,,,,,,,,,,,,,,,,,,,,,
296830,2022-11-29_13h00.56.054,vts_reward_expectancy_bt,2022.2.4,MacIntel,58.82352941,Safari,1470,956,,,,,0,666,,,,,,,,,,,,,,,,,Y,160,triangle,1,0,,4,,,,,,,,,,,,,,switch,number,numSwt,k,0.758,vtsPrac,4,0,4,0,1,,,,,,,,,,,,,,,,,,,,,,,
296830,2022-11-29_13h00.56.054,vts_reward_expectancy_bt,2022.2.4,MacIntel,58.82352941,Safari,1470,956,,,,,0,666,,,,,,,,,,,,,,,,,W,139,hexagon,1,0,,4,,,,,,,,,,,,,,repeat,number,numRpt,j,0.699,vtsPrac,5,0,5,0,1,,,,,,,,,,,,,,,,,,,,,,,
296830,2022-11-29_13h00.56.054,vts_reward_expectancy_bt,2022.2.4,MacIntel,58.82352941,Safari,1470,956,,,,,0,666,,,,,,,,,,,,,,,,,D,146,circle,1,0,,4,,,,,,,,,,,,,,switch,letter,lettSwt,d,0.712,vtsPrac,6,0,6,0,1,,,,,,,,,,,,,,,,,,,,,,,
296830,2022-11-29_13h00.56.054,vts_reward_expectancy_bt,2022.2.4,MacIntel,58.82352941,Safari,1470,956,,,,,0,666,,,,,,,,,,,,,,,,,B,181,star,1,0,,4,,,,,,,,,,,,,,switch,number,numSwt,k,0.63,vtsPrac,7,0,7,0,1,,,,,,,,,,,,,,,,,,,,,,,
296830,2022-11-29_13h00.56.054,vts_reward_expectancy_bt,2022.2.4,MacIntel,58.82352941,Safari,1470,956,,,,,0,666,,,,,,,,,,,,,,,,,F,132,triangle,1,0,,4,,,,,,,,,,,,,,switch,letter,lettSwt,d,1.14,vtsPrac,8,0,8,0,1,,,,,,,,,,,,,,,,,,,,,,,
296830,2022-11-29_13h00.56.054,vts_reward_expectancy_bt,2022.2.4,MacIntel,58.82352941,Safari,1470,956,,,,,0,666,,,,,,,,,,,,,,,,,S,167,hexagon,1,0,,4,,,,,,,,,,,,,,switch,number,numSwt,k,0.776,vtsPrac,9,0,9,0,1,,,,,,,,,,,,,,,,,,,,,,,
296830,2022-11-29_13h00.56.054,vts_reward_expectancy_bt,2022.2.4,MacIntel,58.82352941,Safari,1470,956,,,,,0,666,,,,,,,,,,,,,,,,,B,160,star,1,0,,4,,,,,,,,,,,,,,repeat,number,numRpt,k,0.674,vtsPrac,10,0,10,0,1,,,,,,,,,,,,,,,,,,,,,,,
296830,2022-11-29_13h00.56.054,vts_reward_expectancy_bt,2022.2.4,MacIntel,58.82352941,Safari,1470,956,,,,,0,666,,,,,,,,,,,,,,,,,Y,146,triangle,1,0,,4,,,,,,,,,,,,,,switch,letter,lettSwt,f,1.058,vtsPrac,11,0,11,0,1,,,,,,,,,,,,,,,,,,,,,,,
296830,2022-11-29_13h00.56.054,vts_reward_expectancy_bt,2022.2.4,MacIntel,58.82352941,Safari,1470,956,,,,,0,666,,,,,,,,,,,,,,,,,B,125,circle,0,0,,4,,,,,,,,,,,,,,repeat,letter,NA,f,0.944,vtsPrac,12,0,12,0,1,,,,,,,,,,,,,,,,,,,,,,,
296830,2022-11-29_13h00.56.054,vts_reward_expectancy_bt,2022.2.4,MacIntel,58.82352941,Safari,1470,956,,,,,0,666,,,,,,,,,,,,,,,,,W,167,star,1,1,,4,,,,,,,,,,,,,,switch,number,numSwt,k,0.83,vtsPrac,13,0,13,0,1,,,,,,,,,,,,,,,,,,,,,,,
296830,2022-11-29_13h00.56.054,vts_reward_expectancy_bt,2022.2.4,MacIntel,58.82352941,Safari,1470,956,,,,,0,666,,,,,,,,,,,,,,,,,F,174,circle,1,0,,4,,,,,,,,,,,,,,switch,letter,lettSwt,d,0.806,vtsPrac,14,0,14,0,1,,,,,,,,,,,,,,,,,,,,,,,
296830,2022-11-29_13h00.56.054,vts_reward_expectancy_bt,2022.2.4,MacIntel,58.82352941,Safari,1470,956,,,,,0,666,,,,,,,,,,,,,,,,,H,160,hexagon,1,0,,4,,,,,,,,,,,,,,switch,number,numSwt,k,1.359,vtsPrac,15,0,15,0,1,,,,,,,,,,,,,,,,,,,,,,,
296830,2022-11-29_13h00.56.054,vts_reward_expectancy_bt,2022.2.4,MacIntel,58.82352941,Safari,1470,956,,,,,0,666,,,,,,,,,,,,,,,,,U,125,star,1,0,,4,,,,,,,,,,,,,,repeat,number,numRpt,j,0.575,vtsPrac,16,0,16,0,1,,,,,,,,,,,,,,,,,,,,,,,
296830,2022-11-29_13h00.56.054,vts_reward_expectancy_bt,2022.2.4,MacIntel,58.82352941,Safari,1470,956,,,,,0,666,,,,,,,,,,,,,,,,,W,139,triangle,1,0,,4,,,,,,,,,,,,,,switch,letter,lettSwt,f,1.456,vtsPrac,17,0,17,0,1,,,,,,,,,,,,,,,,,,,,,,,
296830,2022-11-29_13h00.56.054,vts_reward_expectancy_bt,2022.2.4,MacIntel,58.82352941,Safari,1470,956,,,,,0,666,,,,,,,,,,,,,,,,,H,146,circle,1,0,,4,,,,,,,,,,,,,,repeat,letter,lettRpt,d,0.976,vtsPrac,18,0,18,0,1,,,,,,,,,,,,,,,,,,,,,,,
296830,2022-11-29_13h00.56.054,vts_reward_expectancy_bt,2022.2.4,MacIntel,58.82352941,Safari,1470,956,,,,,0,666,,,,,,,,,,,,,,,,,D,174,triangle,1,0,,4,,,,,,,,,,,,,,repeat,letter,lettRpt,d,0.826,vtsPrac,19,0,19,0,1,,,,,,,,,,,,,,,,,,,,,,,
296830,2022-11-29_13h00.56.054,vts_reward_expectancy_bt,2022.2.4,MacIntel,58.82352941,Safari,1470,956,,,,,0,666,,,,,,,,,,,,,,,,,D,174,circle,1,0,,4,,,,,,,,,,,,,,switch,number,numSwt,k,1.151,vtsPrac,20,0,20,0,1,,,,,,,,,,,,,,,,,,,,,,,
296830,2022-11-29_13h00.56.054,vts_reward_expectancy_bt,2022.2.4,MacIntel,58.82352941,Safari,1470,956,,,,,0,666,,,,,,,,,,,,,,,,,F,167,triangle,1,0,,4,,,,,,,,,,,,,,switch,letter,lettSwt,d,0.907,vtsPrac,21,0,21,0,1,,,,,,,,,,,,,,,,,,,,,,,
296830,2022-11-29_13h00.56.054,vts_reward_expectancy_bt,2022.2.4,MacIntel,58.82352941,Safari,1470,956,,,,,0,666,,,,,,,,,,,,,,,,,W,132,circle,1,0,,4,,,,,,,,,,,,,,switch,number,numSwt,j,0.675,vtsPrac,22,0,22,0,1,,,,,,,,,,,,,,,,,,,,,,,
296830,2022-11-29_13h00.56.054,vts_reward_expectancy_bt,2022.2.4,MacIntel,58.82352941,Safari,1470,956,,,,,0,666,,,,,,,,,,,,,,,,,U,139,star,0,0,,4,,,,,,,,,,,,,,repeat,number,NA,k,1.102,vtsPrac,23,0,23,0,1,,,,,,,,,,,,,,,,,,,,,,,
296830,2022-11-29_13h00.56.054,vts_reward_expectancy_bt,2022.2.4,MacIntel,58.82352941,Safari,1470,956,,,,,0,666,,,,,,,,,,,,,,,,,D,181,star,1,1,,4,,,,,,,,,,,,,,repeat,number,numRpt,k,0.71,vtsPrac,24,0,24,0,1,,,,,,,,,,,,,,,,,,,,,,,
296830,2022-11-29_13h00.56.054,vts_reward_expectancy_bt,2022.2.4,MacIntel,58.82352941,Safari,1470,956,,,,,0,666,,,,,,,,,,,,,,,,,H,146,triangle,1,0,,4,,,,,,,,,,,,,,switch,letter,lettSwt,d,1.578,vtsPrac,25,0,25,0,1,,,,,,,,,,,,,,,,,,,,,,,
296830,2022-11-29_13h00.56.054,vts_reward_expectancy_bt,2022.2.4,MacIntel,58.82352941,Safari,1470,956,,,,,0,666,,,,,,,,,,,,,,,,,B,167,hexagon,1,0,,4,,,,,,,,,,,,,,switch,number,numSwt,k,0.609,vtsPrac,26,0,26,0,1,,,,,,,,,,,,,,,,,,,,,,,
296830,2022-11-29_13h00.56.054,vts_reward_expectancy_bt,2022.2.4,MacIntel,58.82352941,Safari,1470,956,,,,,0,666,,,,,,,,,,,,,,,,,S,125,triangle,1,0,,4,,,,,,,,,,,,,,switch,letter,lettSwt,f,1.075,vtsPrac,27,0,27,0,1,,,,,,,,,,,,,,,,,,,,,,,
296830,2022-11-29_13h00.56.054,vts_reward_expectancy_bt,2022.2.4,MacIntel,58.82352941,Safari,1470,956,,,,,0,666,,,,,,,,,,,,,,,,,Y,139,triangle,1,0,,4,,,,,,,,,,,,,,repeat,letter,lettRpt,f,0.961,vtsPrac,28,0,28,0,1,,,,,,,,,,,,,,,,,,,,,,,
296830,2022-11-29_13h00.56.054,vts_reward_expectancy_bt,2022.2.4,MacIntel,58.82352941,Safari,1470,956,,,,,0,666,,,,,,,,,,,,,,,,,H,181,star,1,0,,4,,,,,,,,,,,,,,switch,number,numSwt,k,0.992,vtsPrac,29,0,29,0,1,,,,,,,,,,,,,,,,,,,,,,,
296830,2022-11-29_13h00.56.054,vts_reward_expectancy_bt,2022.2.4,MacIntel,58.82352941,Safari,1470,956,,,,,0,666,,,,,,,,,,,,,,,,,B,174,hexagon,1,0,,4,,,,,,,,,,,,,,repeat,number,numRpt,k,0.728,vtsPrac,30,0,30,0,1,,,,,,,,,,,,,,,,,,,,,,,
296830,2022-11-29_13h00.56.054,vts_reward_expectancy_bt,2022.2.4,MacIntel,58.82352941,Safari,1470,956,,,,,0,666,,,,,,,,,,,,,,,,,F,146,circle,1,0,,4,,,,,,,,,,,,,,switch,letter,lettSwt,d,0.975,vtsPrac,31,0,31,0,1,,,,,,,,,,,,,,,,,,,,,,,
296830,2022-11-29_13h00.56.054,vts_reward_expectancy_bt,2022.2.4,MacIntel,58.82352941,Safari,1470,956,,,,,,,,,,,,,,,,,,,,,,,,,,,,,,,,,,,,,,,,,,,,,,,,,,,,,,,,,,,,,,,,,,,,,,,,,,,,
296830,2022-11-29_13h00.56.054,vts_reward_expectancy_bt,2022.2.4,MacIntel,58.82352941,Safari,1470,956,,,,,,,,,,,,,,,,,,,,,,,,,,,,,,,,,,,,,,,,,,,,,,,,,,,,,,,,,,,,,,,,,,,,,,,,,,,,
296830,2022-11-29_13h00.56.054,vts_reward_expectancy_bt,2022.2.4,MacIntel,58.82352941,Safari,1470,956,,,,,0,666,,,,,,,,,,,,,,,,,D,160,hexagon,1,0,,,,,,,,,,,,,,,,repeat,letter,lettRpt,d,0.691,noRew,,,,,,0,0,0,0,0,1,,,,,,,,,,,,,,,,,
296830,2022-11-29_13h00.56.054,vts_reward_expectancy_bt,2022.2.4,MacIntel,58.82352941,Safari,1470,956,,,,,0,666,,,,,,,,,,,,,,,,,F,167,circle,1,0,,,,,,,,,,,,,,,,switch,number,numSwt,k,0.507,noRew,,,,,,0,1,0,1,0,1,,,,,,,,,,,,,,,,,
296830,2022-11-29_13h00.56.054,vts_reward_expectancy_bt,2022.2.4,MacIntel,58.82352941,Safari,1470,956,,,,,0,666,,,,,,,,,,,,,,,,,B,181,hexagon,1,0,,,,,,,,,,,,,,,,switch,letter,lettSwt,d,0.493,noRew,,,,,,0,2,0,2,0,1,,,,,,,,,,,,,,,,,
296830,2022-11-29_13h00.56.054,vts_reward_expectancy_bt,2022.2.4,MacIntel,58.82352941,Safari,1470,956,,,,,0,666,,,,,,,,,,,,,,,,,W,174,circle,1,0,,,,,,,,,,,,,,,,repeat,letter,lettRpt,f,0.676,noRew,,,,,,0,3,0,3,0,1,,,,,,,,,,,,,,,,,
296830,2022-11-29_13h00.56.054,vts_reward_expectancy_bt,2022.2.4,MacIntel,58.82352941,Safari,1470,956,,,,,0,666,,,,,,,,,,,,,,,,,D,160,hexagon,1,0,,,,,,,,,,,,,,,,switch,number,numSwt,k,0.795,noRew,,,,,,0,4,0,4,0,1,,,,,,,,,,,,,,,,,
296830,2022-11-29_13h00.56.054,vts_reward_expectancy_bt,2022.2.4,MacIntel,58.82352941,Safari,1470,956,,,,,0,666,,,,,,,,,,,,,,,,,F,167,star,1,0,,,,,,,,,,,,,,,,repeat,number,numRpt,k,0.544,noRew,,,,,,0,5,0,5,0,1,,,,,,,,,,,,,,,,,
296830,2022-11-29_13h00.56.054,vts_reward_expectancy_bt,2022.2.4,MacIntel,58.82352941,Safari,1470,956,,,,,0,666,,,,,,,,,,,,,,,,,B,181,hexagon,1,0,,,,,,,,,,,,,,,,switch,letter,lettSwt,d,0.464,noRew,,,,,,0,6,0,6,0,1,,,,,,,,,,,,,,,,,
296830,2022-11-29_13h00.56.054,vts_reward_expectancy_bt,2022.2.4,MacIntel,58.82352941,Safari,1470,956,,,,,0,666,,,,,,,,,,,,,,,,,W,174,circle,1,0,,,,,,,,,,,,,,,,switch,number,numSwt,k,0.677,noRew,,,,,,0,7,0,7,0,1,,,,,,,,,,,,,,,,,
296830,2022-11-29_13h00.56.054,vts_reward_expectancy_bt,2022.2.4,MacIntel,58.82352941,Safari,1470,956,,,,,0,666,,,,,,,,,,,,,,,,,H,146,star,1,0,,,,,,,,,,,,,,,,switch,letter,lettSwt,d,0.926,noRew,,,,,,0,8,0,8,0,1,,,,,,,,,,,,,,,,,
296830,2022-11-29_13h00.56.054,vts_reward_expectancy_bt,2022.2.4,MacIntel,58.82352941,Safari,1470,956,,,,,0,666,,,,,,,,,,,,,,,,,U,125,triangle,1,0,,,,,,,,,,,,,,,,repeat,letter,lettRpt,f,1.682,noRew,,,,,,0,9,0,9,0,1,,,,,,,,,,,,,,,,,
296830,2022-11-29_13h00.56.054,vts_reward_expectancy_bt,2022.2.4,MacIntel,58.82352941,Safari,1470,956,,,,,0,666,,,,,,,,,,,,,,,,,F,181,star,1,0,,,,,,,,,,,,,,,,switch,number,numSwt,k,0.592,noRew,,,,,,0,10,0,10,0,1,,,,,,,,,,,,,,,,,
296830,2022-11-29_13h00.56.054,vts_reward_expectancy_bt,2022.2.4,MacIntel,58.82352941,Safari,1470,956,,,,,0,666,,,,,,,,,,,,,,,,,W,174,circle,1,0,,,,,,,,,,,,,,,,repeat,number,numRpt,k,0.514,noRew,,,,,,0,11,0,11,0,1,,,,,,,,,,,,,,,,,
296830,2022-11-29_13h00.56.054,vts_reward_expectancy_bt,2022.2.4,MacIntel,58.82352941,Safari,1470,956,,,,,0,666,,,,,,,,,,,,,,,,,F,146,hexagon,1,0,,,,,,,,,,,,,,,,switch,letter,lettSwt,d,0.799,noRew,,,,,,0,12,0,12,0,1,,,,,,,,,,,,,,,,,
296830,2022-11-29_13h00.56.054,vts_reward_expectancy_bt,2022.2.4,MacIntel,58.82352941,Safari,1470,956,,,,,0,666,,,,,,,,,,,,,,,,,U,174,star,1,0,,,,,,,,,,,,,,,,switch,number,numSwt,k,0.527,noRew,,,,,,0,13,0,13,0,1,,,,,,,,,,,,,,,,,
296830,2022-11-29_13h00.56.054,vts_reward_expectancy_bt,2022.2.4,MacIntel,58.82352941,Safari,1470,956,,,,,0,666,,,,,,,,,,,,,,,,,B,139,star,1,0,,,,,,,,,,,,,,,,repeat,number,numRpt,j,0.477,noRew,,,,,,0,14,0,14,0,1,,,,,,,,,,,,,,,,,
296830,2022-11-29_13h00.56.054,vts_reward_expectancy_bt,2022.2.4,MacIntel,58.82352941,Safari,1470,956,,,,,0,666,,,,,,,,,,,,,,,,,S,167,triangle,1,0,,,,,,,,,,,,,,,,switch,letter,lettSwt,f,1.166,noRew,,,,,,0,15,0,15,0,1,,,,,,,,,,,,,,,,,
296830,2022-11-29_13h00.56.054,vts_reward_expectancy_bt,2022.2.4,MacIntel,58.82352941,Safari,1470,956,,,,,0,666,,,,,,,,,,,,,,,,,W,132,star,1,0,,,,,,,,,,,,,,,,repeat,letter,lettRpt,f,0.957,noRew,,,,,,0,16,0,16,0,1,,,,,,,,,,,,,,,,,
296830,2022-11-29_13h00.56.054,vts_reward_expectancy_bt,2022.2.4,MacIntel,58.82352941,Safari,1470,956,,,,,0,666,,,,,,,,,,,,,,,,,H,181,circle,1,0,,,,,,,,,,,,,,,,repeat,letter,lettRpt,d,1.03,noRew,,,,,,0,17,0,17,0,1,,,,,,,,,,,,,,,,,
296830,2022-11-29_13h00.56.054,vts_reward_expectancy_bt,2022.2.4,MacIntel,58.82352941,Safari,1470,956,,,,,0,666,,,,,,,,,,,,,,,,,B,160,hexagon,1,0,,,,,,,,,,,,,,,,switch,number,numSwt,k,1.01,noRew,,,,,,0,18,0,18,0,1,,,,,,,,,,,,,,,,,
296830,2022-11-29_13h00.56.054,vts_reward_expectancy_bt,2022.2.4,MacIntel,58.82352941,Safari,1470,956,,,,,0,666,,,,,,,,,,,,,,,,,S,167,circle,1,0,,,,,,,,,,,,,,,,repeat,number,numRpt,k,0.625,noRew,,,,,,0,19,0,19,0,1,,,,,,,,,,,,,,,,,
296830,2022-11-29_13h00.56.054,vts_reward_expectancy_bt,2022.2.4,MacIntel,58.82352941,Safari,1470,956,,,,,0,666,,,,,,,,,,,,,,,,,B,181,star,1,0,,,,,,,,,,,,,,,,repeat,number,numRpt,k,0.612,noRew,,,,,,0,20,0,20,0,1,,,,,,,,,,,,,,,,,
296830,2022-11-29_13h00.56.054,vts_reward_expectancy_bt,2022.2.4,MacIntel,58.82352941,Safari,1470,956,,,,,0,666,,,,,,,,,,,,,,,,,D,174,hexagon,1,0,,,,,,,,,,,,,,,,switch,letter,lettSwt,d,0.908,noRew,,,,,,0,21,0,21,0,1,,,,,,,,,,,,,,,,,
296830,2022-11-29_13h00.56.054,vts_reward_expectancy_bt,2022.2.4,MacIntel,58.82352941,Safari,1470,956,,,,,0,666,,,,,,,,,,,,,,,,,Y,167,triangle,1,0,,,,,,,,,,,,,,,,repeat,letter,lettRpt,f,0.833,noRew,,,,,,0,22,0,22,0,1,,,,,,,,,,,,,,,,,
296830,2022-11-29_13h00.56.054,vts_reward_expectancy_bt,2022.2.4,MacIntel,58.82352941,Safari,1470,956,,,,,0,666,,,,,,,,,,,,,,,,,W,132,star,1,0,,,,,,,,,,,,,,,,switch,number,numSwt,j,1.676,noRew,,,,,,0,23,0,23,0,1,,,,,,,,,,,,,,,,,
296830,2022-11-29_13h00.56.054,vts_reward_expectancy_bt,2022.2.4,MacIntel,58.82352941,Safari,1470,956,,,,,0,666,,,,,,,,,,,,,,,,,F,160,star,1,0,,,,,,,,,,,,,,,,switch,letter,lettSwt,d,0.993,noRew,,,,,,0,24,0,24,0,1,,,,,,,,,,,,,,,,,
296830,2022-11-29_13h00.56.054,vts_reward_expectancy_bt,2022.2.4,MacIntel,58.82352941,Safari,1470,956,,,,,0,666,,,,,,,,,,,,,,,,,U,125,hexagon,1,0,,,,,,,,,,,,,,,,repeat,letter,lettRpt,f,0.59,noRew,,,,,,0,25,0,25,0,1,,,,,,,,,,,,,,,,,
296830,2022-11-29_13h00.56.054,vts_reward_expectancy_bt,2022.2.4,MacIntel,58.82352941,Safari,1470,956,,,,,0,666,,,,,,,,,,,,,,,,,S,167,triangle,1,0,,,,,,,,,,,,,,,,switch,number,numSwt,k,0.497,noRew,,,,,,0,26,0,26,0,1,,,,,,,,,,,,,,,,,
296830,2022-11-29_13h00.56.054,vts_reward_expectancy_bt,2022.2.4,MacIntel,58.82352941,Safari,1470,956,,,,,0,666,,,,,,,,,,,,,,,,,B,146,hexagon,1,0,,,,,,,,,,,,,,,,switch,letter,lettSwt,d,0.693,noRew,,,,,,0,27,0,27,0,1,,,,,,,,,,,,,,,,,
296830,2022-11-29_13h00.56.054,vts_reward_expectancy_bt,2022.2.4,MacIntel,58.82352941,Safari,1470,956,,,,,0,666,,,,,,,,,,,,,,,,,H,160,hexagon,1,0,,,,,,,,,,,,,,,,repeat,letter,lettRpt,d,0.894,noRew,,,,,,0,28,0,28,0,1,,,,,,,,,,,,,,,,,
296830,2022-11-29_13h00.56.054,vts_reward_expectancy_bt,2022.2.4,MacIntel,58.82352941,Safari,1470,956,,,,,0,666,,,,,,,,,,,,,,,,,U,132,triangle,1,0,,,,,,,,,,,,,,,,switch,number,numSwt,j,0.626,noRew,,,,,,0,29,0,29,0,1,,,,,,,,,,,,,,,,,
296830,2022-11-29_13h00.56.054,vts_reward_expectancy_bt,2022.2.4,MacIntel,58.82352941,Safari,1470,956,,,,,0,666,,,,,,,,,,,,,,,,,F,167,circle,1,0,,,,,,,,,,,,,,,,repeat,number,numRpt,k,0.727,noRew,,,,,,0,30,0,30,0,1,,,,,,,,,,,,,,,,,
296830,2022-11-29_13h00.56.054,vts_reward_expectancy_bt,2022.2.4,MacIntel,58.82352941,Safari,1470,956,,,,,0,666,,,,,,,,,,,,,,,,,D,174,star,1,0,,,,,,,,,,,,,,,,switch,letter,lettSwt,d,0.606,noRew,,,,,,0,31,0,31,0,1,,,,,,,,,,,,,,,,,
296830,2022-11-29_13h00.56.054,vts_reward_expectancy_bt,2022.2.4,MacIntel,58.82352941,Safari,1470,956,,,,,0,666,,,,,,,,,,,,,,,,,D,174,hexagon,1,0,,,,,,,,,,,,,,,,switch,number,numSwt,k,0.469,noRew,,,,,,0,32,0,32,0,1,,,,,,,,,,,,,,,,,
296830,2022-11-29_13h00.56.054,vts_reward_expectancy_bt,2022.2.4,MacIntel,58.82352941,Safari,1470,956,,,,,0,666,,,,,,,,,,,,,,,,,H,125,circle,1,0,,,,,,,,,,,,,,,,repeat,number,numRpt,j,0.681,noRew,,,,,,0,33,0,33,0,1,,,,,,,,,,,,,,,,,
296830,2022-11-29_13h00.56.054,vts_reward_expectancy_bt,2022.2.4,MacIntel,58.82352941,Safari,1470,956,,,,,0,666,,,,,,,,,,,,,,,,,S,181,triangle,1,0,,,,,,,,,,,,,,,,switch,letter,lettSwt,f,0.847,noRew,,,,,,0,34,0,34,0,1,,,,,,,,,,,,,,,,,
296830,2022-11-29_13h00.56.054,vts_reward_expectancy_bt,2022.2.4,MacIntel,58.82352941,Safari,1470,956,,,,,0,666,,,,,,,,,,,,,,,,,Y,139,hexagon,1,0,,,,,,,,,,,,,,,,repeat,letter,lettRpt,f,0.839,noRew,,,,,,0,35,0,35,0,1,,,,,,,,,,,,,,,,,
296830,2022-11-29_13h00.56.054,vts_reward_expectancy_bt,2022.2.4,MacIntel,58.82352941,Safari,1470,956,,,,,0,666,,,,,,,,,,,,,,,,,D,139,circle,1,0,,,,,,,,,,,,,,,,switch,number,numSwt,j,0.45,noRew,,,,,,0,36,0,36,0,1,,,,,,,,,,,,,,,,,
296830,2022-11-29_13h00.56.054,vts_reward_expectancy_bt,2022.2.4,MacIntel,58.82352941,Safari,1470,956,,,,,0,666,,,,,,,,,,,,,,,,,Y,181,hexagon,1,0,,,,,,,,,,,,,,,,repeat,number,numRpt,k,0.607,noRew,,,,,,0,37,0,37,0,1,,,,,,,,,,,,,,,,,
296830,2022-11-29_13h00.56.054,vts_reward_expectancy_bt,2022.2.4,MacIntel,58.82352941,Safari,1470,956,,,,,0,666,,,,,,,,,,,,,,,,,B,125,hexagon,1,0,,,,,,,,,,,,,,,,repeat,number,numRpt,j,0.677,noRew,,,,,,0,38,0,38,0,1,,,,,,,,,,,,,,,,,
296830,2022-11-29_13h00.56.054,vts_reward_expectancy_bt,2022.2.4,MacIntel,58.82352941,Safari,1470,956,,,,,0,666,,,,,,,,,,,,,,,,,S,160,star,1,0,,,,,,,,,,,,,,,,switch,letter,lettSwt,f,0.733,noRew,,,,,,0,39,0,39,0,1,,,,,,,,,,,,,,,,,
296830,2022-11-29_13h00.56.054,vts_reward_expectancy_bt,2022.2.4,MacIntel,58.82352941,Safari,1470,956,,,,,0,666,,,,,,,,,,,,,,,,,D,125,triangle,1,0,,,,,,,,,,,,,,,,switch,number,numSwt,j,0.722,noRew,,,,,,0,40,0,40,0,1,,,,,,,,,,,,,,,,,
296830,2022-11-29_13h00.56.054,vts_reward_expectancy_bt,2022.2.4,MacIntel,58.82352941,Safari,1470,956,,,,,0,666,,,,,,,,,,,,,,,,,S,174,circle,1,0,,,,,,,,,,,,,,,,switch,letter,lettSwt,f,0.575,noRew,,,,,,0,41,0,41,0,1,,,,,,,,,,,,,,,,,
296830,2022-11-29_13h00.56.054,vts_reward_expectancy_bt,2022.2.4,MacIntel,58.82352941,Safari,1470,956,,,,,0,666,,,,,,,,,,,,,,,,,Y,146,circle,1,0,,,,,,,,,,,,,,,,repeat,letter,lettRpt,f,0.691,noRew,,,,,,0,42,0,42,0,1,,,,,,,,,,,,,,,,,
296830,2022-11-29_13h00.56.054,vts_reward_expectancy_bt,2022.2.4,MacIntel,58.82352941,Safari,1470,956,,,,,0,666,,,,,,,,,,,,,,,,,F,181,star,1,0,,,,,,,,,,,,,,,,switch,number,numSwt,k,0.472,noRew,,,,,,0,43,0,43,0,1,,,,,,,,,,,,,,,,,
296830,2022-11-29_13h00.56.054,vts_reward_expectancy_bt,2022.2.4,MacIntel,58.82352941,Safari,1470,956,,,,,0,666,,,,,,,,,,,,,,,,,B,174,triangle,1,0,,,,,,,,,,,,,,,,repeat,number,numRpt,k,0.749,noRew,,,,,,0,44,0,44,0,1,,,,,,,,,,,,,,,,,
296830,2022-11-29_13h00.56.054,vts_reward_expectancy_bt,2022.2.4,MacIntel,58.82352941,Safari,1470,956,,,,,0,666,,,,,,,,,,,,,,,,,F,181,circle,1,0,,,,,,,,,,,,,,,,switch,letter,lettSwt,d,0.96,noRew,,,,,,0,45,0,45,0,1,,,,,,,,,,,,,,,,,
296830,2022-11-29_13h00.56.054,vts_reward_expectancy_bt,2022.2.4,MacIntel,58.82352941,Safari,1470,956,,,,,0,666,,,,,,,,,,,,,,,,,D,146,triangle,1,0,,,,,,,,,,,,,,,,repeat,letter,lettRpt,d,0.644,noRew,,,,,,0,46,0,46,0,1,,,,,,,,,,,,,,,,,
296830,2022-11-29_13h00.56.054,vts_reward_expectancy_bt,2022.2.4,MacIntel,58.82352941,Safari,1470,956,,,,,0,666,,,,,,,,,,,,,,,,,W,132,star,1,0,,,,,,,,,,,,,,,,repeat,letter,lettRpt,f,0.577,noRew,,,,,,0,47,0,47,0,1,,,,,,,,,,,,,,,,,
296830,2022-11-29_13h00.56.054,vts_reward_expectancy_bt,2022.2.4,MacIntel,58.82352941,Safari,1470,956,,,,,0,666,,,,,,,,,,,,,,,,,F,139,star,1,0,,,,,,,,,,,,,,,,switch,number,numSwt,j,1.21,noRew,,,,,,0,48,0,48,0,1,,,,,,,,,,,,,,,,,
296830,2022-11-29_13h00.56.054,vts_reward_expectancy_bt,2022.2.4,MacIntel,58.82352941,Safari,1470,956,,,,,0,666,,,,,,,,,,,,,,,,,U,160,triangle,1,0,,,,,,,,,,,,,,,,repeat,number,numRpt,k,0.749,noRew,,,,,,0,49,0,49,0,1,,,,,,,,,,,,,,,,,
296830,2022-11-29_13h00.56.054,vts_reward_expectancy_bt,2022.2.4,MacIntel,58.82352941,Safari,1470,956,,,,,0,666,,,,,,,,,,,,,,,,,S,174,star,1,0,,,,,,,,,,,,,,,,repeat,number,numRpt,k,0.877,noRew,,,,,,0,50,0,50,0,1,,,,,,,,,,,,,,,,,
296830,2022-11-29_13h00.56.054,vts_reward_expectancy_bt,2022.2.4,MacIntel,58.82352941,Safari,1470,956,,,,,0,666,,,,,,,,,,,,,,,,,D,125,triangle,1,0,,,,,,,,,,,,,,,,switch,letter,lettSwt,d,1.233,noRew,,,,,,0,51,0,51,0,1,,,,,,,,,,,,,,,,,
296830,2022-11-29_13h00.56.054,vts_reward_expectancy_bt,2022.2.4,MacIntel,58.82352941,Safari,1470,956,,,,,0,666,,,,,,,,,,,,,,,,,B,160,circle,1,0,,,,,,,,,,,,,,,,repeat,letter,lettRpt,d,0.726,noRew,,,,,,0,52,0,52,0,1,,,,,,,,,,,,,,,,,
296830,2022-11-29_13h00.56.054,vts_reward_expectancy_bt,2022.2.4,MacIntel,58.82352941,Safari,1470,956,,,,,0,666,,,,,,,,,,,,,,,,,D,146,triangle,1,0,,,,,,,,,,,,,,,,switch,number,numSwt,j,0.693,noRew,,,,,,0,53,0,53,0,1,,,,,,,,,,,,,,,,,
296830,2022-11-29_13h00.56.054,vts_reward_expectancy_bt,2022.2.4,MacIntel,58.82352941,Safari,1470,956,,,,,0,666,,,,,,,,,,,,,,,,,S,132,triangle,1,0,,,,,,,,,,,,,,,,repeat,number,numRpt,j,0.458,noRew,,,,,,0,54,0,54,0,1,,,,,,,,,,,,,,,,,
296830,2022-11-29_13h00.56.054,vts_reward_expectancy_bt,2022.2.4,MacIntel,58.82352941,Safari,1470,956,,,,,0,666,,,,,,,,,,,,,,,,,F,181,star,1,0,,,,,,,,,,,,,,,,switch,letter,lettSwt,d,0.41,noRew,,,,,,0,55,0,55,0,1,,,,,,,,,,,,,,,,,
296830,2022-11-29_13h00.56.054,vts_reward_expectancy_bt,2022.2.4,MacIntel,58.82352941,Safari,1470,956,,,,,0,666,,,,,,,,,,,,,,,,,S,167,circle,1,0,,,,,,,,,,,,,,,,repeat,letter,lettRpt,f,0.826,noRew,,,,,,0,56,0,56,0,1,,,,,,,,,,,,,,,,,
296830,2022-11-29_13h00.56.054,vts_reward_expectancy_bt,2022.2.4,MacIntel,58.82352941,Safari,1470,956,,,,,0,666,,,,,,,,,,,,,,,,,W,160,triangle,1,0,,,,,,,,,,,,,,,,repeat,letter,lettRpt,f,0.842,noRew,,,,,,0,57,0,57,0,1,,,,,,,,,,,,,,,,,
296830,2022-11-29_13h00.56.054,vts_reward_expectancy_bt,2022.2.4,MacIntel,58.82352941,Safari,1470,956,,,,,0,666,,,,,,,,,,,,,,,,,B,146,circle,1,0,,,,,,,,,,,,,,,,repeat,letter,lettRpt,d,0.743,noRew,,,,,,0,58,0,58,0,1,,,,,,,,,,,,,,,,,
296830,2022-11-29_13h00.56.054,vts_reward_expectancy_bt,2022.2.4,MacIntel,58.82352941,Safari,1470,956,,,,,0,666,,,,,,,,,,,,,,,,,D,132,star,1,0,,,,,,,,,,,,,,,,switch,number,numSwt,j,0.783,noRew,,,,,,0,59,0,59,0,1,,,,,,,,,,,,,,,,,
296830,2022-11-29_13h00.56.054,vts_reward_expectancy_bt,2022.2.4,MacIntel,58.82352941,Safari,1470,956,,,,,0,666,,,,,,,,,,,,,,,,,U,125,circle,1,0,,,,,,,,,,,,,,,,repeat,number,numRpt,j,0.844,noRew,,,,,,0,60,0,60,0,1,,,,,,,,,,,,,,,,,
296830,2022-11-29_13h00.56.054,vts_reward_expectancy_bt,2022.2.4,MacIntel,58.82352941,Safari,1470,956,,,,,0,666,,,,,,,,,,,,,,,,,B,146,hexagon,1,0,,,,,,,,,,,,,,,,repeat,number,numRpt,j,0.926,noRew,,,,,,0,61,0,61,0,1,,,,,,,,,,,,,,,,,
296830,2022-11-29_13h00.56.054,vts_reward_expectancy_bt,2022.2.4,MacIntel,58.82352941,Safari,1470,956,,,,,0,666,,,,,,,,,,,,,,,,,H,139,hexagon,1,0,,,,,,,,,,,,,,,,switch,letter,lettSwt,d,1.043,noRew,,,,,,0,62,0,62,0,1,,,,,,,,,,,,,,,,,
296830,2022-11-29_13h00.56.054,vts_reward_expectancy_bt,2022.2.4,MacIntel,58.82352941,Safari,1470,956,,,,,0,666,,,,,,,,,,,,,,,,,D,160,star,1,0,,,,,,,,,,,,,,,,repeat,letter,lettRpt,d,0.526,noRew,,,,,,0,63,0,63,0,1,,,,,,,,,,,,,,,,,
296830,2022-11-29_13h00.56.054,vts_reward_expectancy_bt,2022.2.4,MacIntel,58.82352941,Safari,1470,956,,,,,,,,,,,,,,,,,,,,,,,,,,,,,,,,,,,,,,,,,,,,,,,,,,,,,,,,,,,,,,,,,,,,,,,,,,,,
296830,2022-11-29_13h00.56.054,vts_reward_expectancy_bt,2022.2.4,MacIntel,58.82352941,Safari,1470,956,,,,,10,676,,,,,,,,,,,,,,,,,D,132,star,1,0,,,,,,,,,,,,,,,,repeat,letter,lettRpt,d,0.443,Hi,,,,,,0,,,,,,space,5.604,low,0,0,0,0,1,,,,,,,,,
296830,2022-11-29_13h00.56.054,vts_reward_expectancy_bt,2022.2.4,MacIntel,58.82352941,Safari,1470,956,,,,,1,677,,,,,,,,,,,,,,,,,Y,174,circle,1,0,,,,,,,,,,,,,,,,switch,number,numSwt,k,0.841,Lo,,,,,,0,,,,,,,,low,1,0,1,0,1,,,,,,,,,
296830,2022-11-29_13h00.56.054,vts_reward_expectancy_bt,2022.2.4,MacIntel,58.82352941,Safari,1470,956,,,,,0,677,,,,,,,,,,,,,,,,,W,139,triangle,0,0,,,,,,,,,,,,,,,,repeat,number,NA,k,0.693,Lo,,,,,,0,,,,,,,,low,2,0,2,0,1,,,,,,,,,
296830,2022-11-29_13h00.56.054,vts_reward_expectancy_bt,2022.2.4,MacIntel,58.82352941,Safari,1470,956,,,,,1,678,,,,,,,,,,,,,,,,,S,146,hexagon,1,1,,,,,,,,,,,,,,,,switch,letter,lettSwt,f,0.64,Lo,,,,,,0,,,,,,,,low,3,0,3,0,1,,,,,,,,,
296830,2022-11-29_13h00.56.054,vts_reward_expectancy_bt,2022.2.4,MacIntel,58.82352941,Safari,1470,956,,,,,0,678,,,,,,,,,,,,,,,,,H,160,star,1,0,,,,,,,,,,,,,,,,switch,number,numSwt,k,0.626,Hi,,,,,,0,,,,,,,,low,4,0,4,0,1,,,,,,,,,
296830,2022-11-29_13h00.56.054,vts_reward_expectancy_bt,2022.2.4,MacIntel,58.82352941,Safari,1470,956,,,,,10,688,,,,,,,,,,,,,,,,,U,181,circle,1,0,,,,,,,,,,,,,,,,switch,letter,lettSwt,f,0.526,Lo,,,,,,0,,,,,,,,low,5,0,5,0,1,,,,,,,,,
296830,2022-11-29_13h00.56.054,vts_reward_expectancy_bt,2022.2.4,MacIntel,58.82352941,Safari,1470,956,,,,,10,698,,,,,,,,,,,,,,,,,B,125,triangle,1,0,,,,,,,,,,,,,,,,repeat,letter,lettRpt,d,0.559,Hi,,,,,,0,,,,,,,,low,6,0,6,0,1,,,,,,,,,
296830,2022-11-29_13h00.56.054,vts_reward_expectancy_bt,2022.2.4,MacIntel,58.82352941,Safari,1470,956,,,,,1,699,,,,,,,,,,,,,,,,,F,167,hexagon,1,0,,,,,,,,,,,,,,,,switch,number,numSwt,k,0.493,Lo,,,,,,0,,,,,,,,low,7,0,7,0,1,,,,,,,,,
296830,2022-11-29_13h00.56.054,vts_reward_expectancy_bt,2022.2.4,MacIntel,58.82352941,Safari,1470,956,,,,,10,709,,,,,,,,,,,,,,,,,D,132,star,1,0,,,,,,,,,,,,,,,,repeat,number,numRpt,j,0.544,Hi,,,,,,0,,,,,,,,low,8,0,8,0,1,,,,,,,,,
296830,2022-11-29_13h00.56.054,vts_reward_expectancy_bt,2022.2.4,MacIntel,58.82352941,Safari,1470,956,,,,,1,710,,,,,,,,,,,,,,,,,Y,174,circle,1,0,,,,,,,,,,,,,,,,switch,letter,lettSwt,f,0.609,Lo,,,,,,0,,,,,,,,low,9,0,9,0,1,,,,,,,,,
296830,2022-11-29_13h00.56.054,vts_reward_expectancy_bt,2022.2.4,MacIntel,58.82352941,Safari,1470,956,,,,,1,711,,,,,,,,,,,,,,,,,W,139,hexagon,1,0,,,,,,,,,,,,,,,,repeat,letter,lettRpt,f,0.517,Lo,,,,,,0,,,,,,,,low,10,0,10,0,1,,,,,,,,,
296830,2022-11-29_13h00.56.054,vts_reward_expectancy_bt,2022.2.4,MacIntel,58.82352941,Safari,1470,956,,,,,1,712,,,,,,,,,,,,,,,,,S,146,triangle,1,0,,,,,,,,,,,,,,,,repeat,letter,lettRpt,f,0.561,Hi,,,,,,0,,,,,,,,low,11,0,11,0,1,,,,,,,,,
296830,2022-11-29_13h00.56.054,vts_reward_expectancy_bt,2022.2.4,MacIntel,58.82352941,Safari,1470,956,,,,,0,712,,,,,,,,,,,,,,,,,H,160,star,1,0,,,,,,,,,,,,,,,,switch,number,numSwt,k,0.784,Hi,,,,,,0,,,,,,,,low,12,0,12,0,1,,,,,,,,,
296830,2022-11-29_13h00.56.054,vts_reward_expectancy_bt,2022.2.4,MacIntel,58.82352941,Safari,1470,956,,,,,10,722,,,,,,,,,,,,,,,,,U,181,triangle,1,0,,,,,,,,,,,,,,,,switch,letter,lettSwt,f,0.612,Hi,,,,,,0,,,,,,,,low,13,0,13,0,1,,,,,,,,,
296830,2022-11-29_13h00.56.054,vts_reward_expectancy_bt,2022.2.4,MacIntel,58.82352941,Safari,1470,956,,,,,10,732,,,,,,,,,,,,,,,,,B,125,circle,1,0,,,,,,,,,,,,,,,,switch,number,numSwt,j,0.682,Lo,,,,,,0,,,,,,,,low,14,0,14,0,1,,,,,,,,,
296830,2022-11-29_13h00.56.054,vts_reward_expectancy_bt,2022.2.4,MacIntel,58.82352941,Safari,1470,956,,,,,0,732,,,,,,,,,,,,,,,,,F,167,hexagon,0,0,,,,,,,,,,,,,,,,switch,letter,NA,f,0.627,Lo,,,,,,0,,,,,,,,low,15,0,15,0,1,,,,,,,,,
296830,2022-11-29_13h00.56.054,vts_reward_expectancy_bt,2022.2.4,MacIntel,58.82352941,Safari,1470,956,,,,,1,733,,,,,,,,,,,,,,,,,H,146,hexagon,1,1,,,,,,,,,,,,,,,,repeat,letter,lettRpt,d,0.697,Lo,,,,,,0,,,,,,,,low,16,0,16,0,1,,,,,,,,,
296830,2022-11-29_13h00.56.054,vts_reward_expectancy_bt,2022.2.4,MacIntel,58.82352941,Safari,1470,956,,,,,0,733,,,,,,,,,,,,,,,,,U,132,star,1,0,,,,,,,,,,,,,,,,switch,number,numSwt,j,0.609,Hi,,,,,,0,,,,,,,,low,17,0,17,0,1,,,,,,,,,
296830,2022-11-29_13h00.56.054,vts_reward_expectancy_bt,2022.2.4,MacIntel,58.82352941,Safari,1470,956,,,,,0,733,,,,,,,,,,,,,,,,,F,139,triangle,1,0,,,,,,,,,,,,,,,,repeat,number,numRpt,j,1.231,Hi,,,,,,0,,,,,,,,low,18,0,18,0,1,,,,,,,,,
296830,2022-11-29_13h00.56.054,vts_reward_expectancy_bt,2022.2.4,MacIntel,58.82352941,Safari,1470,956,,,,,1,734,,,,,,,,,,,,,,,,,B,125,circle,1,0,,,,,,,,,,,,,,,,switch,letter,lettSwt,d,0.449,Lo,,,,,,0,,,,,,,,low,19,0,19,0,1,,,,,,,,,
296830,2022-11-29_13h00.56.054,vts_reward_expectancy_bt,2022.2.4,MacIntel,58.82352941,Safari,1470,956,,,,,10,744,,,,,,,,,,,,,,,,,W,174,hexagon,1,0,,,,,,,,,,,,,,,,switch,number,numSwt,k,0.507,Lo,,,,,,0,,,,,,,,low,20,0,20,0,1,,,,,,,,,
296830,2022-11-29_13h00.56.054,vts_reward_expectancy_bt,2022.2.4,MacIntel,58.82352941,Safari,1470,956,,,,,10,754,,,,,,,,,,,,,,,,,D,167,circle,1,0,,,,,,,,,,,,,,,,switch,letter,lettSwt,d,0.41,Lo,,,,,,0,,,,,,,,low,21,0,21,0,1,,,,,,,,,
296830,2022-11-29_13h00.56.054,vts_reward_expectancy_bt,2022.2.4,MacIntel,58.82352941,Safari,1470,956,,,,,10,764,,,,,,,,,,,,,,,,,Y,181,star,1,0,,,,,,,,,,,,,,,,switch,number,numSwt,k,0.492,Hi,,,,,,0,,,,,,,,low,22,0,22,0,1,,,,,,,,,
296830,2022-11-29_13h00.56.054,vts_reward_expectancy_bt,2022.2.4,MacIntel,58.82352941,Safari,1470,956,,,,,0,764,,,,,,,,,,,,,,,,,S,160,triangle,0,0,,,,,,,,,,,,,,,,repeat,number,NA,j,0.591,Hi,,,,,,0,,,,,,,,low,23,0,23,0,1,,,,,,,,,
296830,2022-11-29_13h00.56.054,vts_reward_expectancy_bt,2022.2.4,MacIntel,58.82352941,Safari,1470,956,,,,,1,765,,,,,,,,,,,,,,,,,B,146,star,1,1,,,,,,,,,,,,,,,,repeat,number,numRpt,j,0.442,Hi,,,,,,0,,,,,,,,low,24,0,24,0,1,,,,,,,,,
296830,2022-11-29_13h00.56.054,vts_reward_expectancy_bt,2022.2.4,MacIntel,58.82352941,Safari,1470,956,,,,,10,775,,,,,,,,,,,,,,,,,H,125,hexagon,1,0,,,,,,,,,,,,,,,,switch,letter,lettSwt,d,0.707,Lo,,,,,,0,,,,,,,,low,25,0,25,0,1,,,,,,,,,
296830,2022-11-29_13h00.56.054,vts_reward_expectancy_bt,2022.2.4,MacIntel,58.82352941,Safari,1470,956,,,,,0,775,,,,,,,,,,,,,,,,,S,160,triangle,1,0,,,,,,,,,,,,,,,,switch,number,numSwt,k,0.565,Hi,,,,,,0,,,,,,,,low,26,0,26,0,1,,,,,,,,,
296830,2022-11-29_13h00.56.054,vts_reward_expectancy_bt,2022.2.4,MacIntel,58.82352941,Safari,1470,956,,,,,1,776,,,,,,,,,,,,,,,,,F,174,circle,1,0,,,,,,,,,,,,,,,,repeat,number,numRpt,k,0.543,Lo,,,,,,0,,,,,,,,low,27,0,27,0,1,,,,,,,,,
296830,2022-11-29_13h00.56.054,vts_reward_expectancy_bt,2022.2.4,MacIntel,58.82352941,Safari,1470,956,,,,,10,786,,,,,,,,,,,,,,,,,Y,139,hexagon,1,0,,,,,,,,,,,,,,,,switch,letter,lettSwt,f,0.594,Lo,,,,,,0,,,,,,,,low,28,0,28,0,1,,,,,,,,,
296830,2022-11-29_13h00.56.054,vts_reward_expectancy_bt,2022.2.4,MacIntel,58.82352941,Safari,1470,956,,,,,10,796,,,,,,,,,,,,,,,,,W,181,circle,1,0,,,,,,,,,,,,,,,,switch,number,numSwt,k,0.525,Lo,,,,,,0,,,,,,,,low,29,0,29,0,1,,,,,,,,,
296830,2022-11-29_13h00.56.054,vts_reward_expectancy_bt,2022.2.4,MacIntel,58.82352941,Safari,1470,956,,,,,10,806,,,,,,,,,,,,,,,,,U,132,triangle,1,0,,,,,,,,,,,,,,,,switch,letter,lettSwt,f,0.449,Hi,,,,,,0,,,,,,,,low,30,0,30,0,1,,,,,,,,,
296830,2022-11-29_13h00.56.054,vts_reward_expectancy_bt,2022.2.4,MacIntel,58.82352941,Safari,1470,956,,,,,10,816,,,,,,,,,,,,,,,,,D,167,star,1,0,,,,,,,,,,,,,,,,repeat,letter,lettRpt,d,0.514,Hi,,,,,,0,,,,,,,,low,31,0,31,0,1,,,,,,,,,
296830,2022-11-29_13h00.56.054,vts_reward_expectancy_bt,2022.2.4,MacIntel,58.82352941,Safari,1470,956,,,,,1,817,,,,,,,,,,,,,,,,,W,160,circle,1,0,,,,,,,,,,,,,,,,repeat,letter,lettRpt,f,0.591,Lo,,,,,,1,,,,,,space,2.314,low,0,0,0,0,1,,,,,,,,,
296830,2022-11-29_13h00.56.054,vts_reward_expectancy_bt,2022.2.4,MacIntel,58.82352941,Safari,1470,956,,,,,0,817,,,,,,,,,,,,,,,,,D,125,triangle,1,0,,,,,,,,,,,,,,,,repeat,letter,lettRpt,d,0.593,Hi,,,,,,1,,,,,,,,low,1,0,1,0,1,,,,,,,,,
296830,2022-11-29_13h00.56.054,vts_reward_expectancy_bt,2022.2.4,MacIntel,58.82352941,Safari,1470,956,,,,,1,818,,,,,,,,,,,,,,,,,H,132,star,1,0,,,,,,,,,,,,,,,,switch,number,numSwt,j,0.408,Hi,,,,,,1,,,,,,,,low,2,0,2,0,1,,,,,,,,,
296830,2022-11-29_13h00.56.054,vts_reward_expectancy_bt,2022.2.4,MacIntel,58.82352941,Safari,1470,956,,,,,1,819,,,,,,,,,,,,,,,,,S,167,hexagon,1,0,,,,,,,,,,,,,,,,repeat,number,numRpt,k,0.372,Lo,,,,,,1,,,,,,,,low,3,0,3,0,1,,,,,,,,,
296830,2022-11-29_13h00.56.054,vts_reward_expectancy_bt,2022.2.4,MacIntel,58.82352941,Safari,1470,956,,,,,1,820,,,,,,,,,,,,,,,,,B,139,circle,1,0,,,,,,,,,,,,,,,,switch,letter,lettSwt,d,0.578,Lo,,,,,,1,,,,,,,,low,4,0,4,0,1,,,,,,,,,
296830,2022-11-29_13h00.56.054,vts_reward_expectancy_bt,2022.2.4,MacIntel,58.82352941,Safari,1470,956,,,,,0,820,,,,,,,,,,,,,,,,,F,174,triangle,1,0,,,,,,,,,,,,,,,,repeat,letter,lettRpt,d,0.743,Hi,,,,,,1,,,,,,,,low,5,0,5,0,1,,,,,,,,,
296830,2022-11-29_13h00.56.054,vts_reward_expectancy_bt,2022.2.4,MacIntel,58.82352941,Safari,1470,956,,,,,0,820,,,,,,,,,,,,,,,,,Y,146,star,0,0,,,,,,,,,,,,,,,,repeat,letter,NA,d,0.483,Hi,,,,,,1,,,,,,,,low,6,0,6,0,1,,,,,,,,,
296830,2022-11-29_13h00.56.054,vts_reward_expectancy_bt,2022.2.4,MacIntel,58.82352941,Safari,1470,956,,,,,10,830,,,,,,,,,,,,,,,,,U,181,hexagon,1,1,,,,,,,,,,,,,,,,repeat,letter,lettRpt,f,0.633,Lo,,,,,,1,,,,,,,,low,7,0,7,0,1,,,,,,,,,
296830,2022-11-29_13h00.56.054,vts_reward_expectancy_bt,2022.2.4,MacIntel,58.82352941,Safari,1470,956,,,,,1,831,,,,,,,,,,,,,,,,,W,160,circle,1,0,,,,,,,,,,,,,,,,switch,number,numSwt,k,0.725,Lo,,,,,,1,,,,,,,,low,8,0,8,0,1,,,,,,,,,
296830,2022-11-29_13h00.56.054,vts_reward_expectancy_bt,2022.2.4,MacIntel,58.82352941,Safari,1470,956,,,,,0,831,,,,,,,,,,,,,,,,,D,125,triangle,1,0,,,,,,,,,,,,,,,,repeat,number,numRpt,j,0.627,Hi,,,,,,1,,,,,,,,low,9,0,9,0,1,,,,,,,,,
296830,2022-11-29_13h00.56.054,vts_reward_expectancy_bt,2022.2.4,MacIntel,58.82352941,Safari,1470,956,,,,,0,831,,,,,,,,,,,,,,,,,H,132,star,1,0,,,,,,,,,,,,,,,,repeat,number,numRpt,j,0.548,Hi,,,,,,1,,,,,,,,low,10,0,10,0,1,,,,,,,,,
296830,2022-11-29_13h00.56.054,vts_reward_expectancy_bt,2022.2.4,MacIntel,58.82352941,Safari,1470,956,,,,,0,831,,,,,,,,,,,,,,,,,S,167,hexagon,0,0,,,,,,,,,,,,,,,,switch,letter,NA,d,0.449,Hi,,,,,,1,,,,,,,,low,11,0,11,0,1,,,,,,,,,
296830,2022-11-29_13h00.56.054,vts_reward_expectancy_bt,2022.2.4,MacIntel,58.82352941,Safari,1470,956,,,,,1,832,,,,,,,,,,,,,,,,,B,139,hexagon,1,1,,,,,,,,,,,,,,,,repeat,letter,lettRpt,d,0.544,Lo,,,,,,1,,,,,,,,low,12,0,12,0,1,,,,,,,,,
296830,2022-11-29_13h00.56.054,vts_reward_expectancy_bt,2022.2.4,MacIntel,58.82352941,Safari,1470,956,,,,,10,842,,,,,,,,,,,,,,,,,F,174,triangle,1,0,,,,,,,,,,,,,,,,repeat,letter,lettRpt,d,0.493,Hi,,,,,,1,,,,,,,,low,13,0,13,0,1,,,,,,,,,
296830,2022-11-29_13h00.56.054,vts_reward_expectancy_bt,2022.2.4,MacIntel,58.82352941,Safari,1470,956,,,,,1,843,,,,,,,,,,,,,,,,,Y,146,circle,1,0,,,,,,,,,,,,,,,,switch,number,numSwt,j,0.525,Lo,,,,,,1,,,,,,,,low,14,0,14,0,1,,,,,,,,,
296830,2022-11-29_13h00.56.054,vts_reward_expectancy_bt,2022.2.4,MacIntel,58.82352941,Safari,1470,956,,,,,10,853,,,,,,,,,,,,,,,,,U,181,star,1,0,,,,,,,,,,,,,,,,repeat,number,numRpt,k,0.351,Hi,,,,,,1,,,,,,,,low,15,0,15,0,1,,,,,,,,,
296830,2022-11-29_13h00.56.054,vts_reward_expectancy_bt,2022.2.4,MacIntel,58.82352941,Safari,1470,956,,,,,1,854,,,,,,,,,,,,,,,,,H,167,circle,1,0,,,,,,,,,,,,,,,,repeat,number,numRpt,k,0.399,Lo,,,,,,1,,,,,,,,low,16,0,16,0,1,,,,,,,,,
296830,2022-11-29_13h00.56.054,vts_reward_expectancy_bt,2022.2.4,MacIntel,58.82352941,Safari,1470,956,,,,,10,864,,,,,,,,,,,,,,,,,W,125,star,1,0,,,,,,,,,,,,,,,,repeat,number,numRpt,j,0.415,Hi,,,,,,1,,,,,,,,low,17,0,17,0,1,,,,,,,,,
296830,2022-11-29_13h00.56.054,vts_reward_expectancy_bt,2022.2.4,MacIntel,58.82352941,Safari,1470,956,,,,,10,874,,,,,,,,,,,,,,,,,D,139,triangle,1,0,,,,,,,,,,,,,,,,switch,letter,lettSwt,d,0.476,Hi,,,,,,1,,,,,,,,low,18,0,18,0,1,,,,,,,,,
296830,2022-11-29_13h00.56.054,vts_reward_expectancy_bt,2022.2.4,MacIntel,58.82352941,Safari,1470,956,,,,,0,874,,,,,,,,,,,,,,,,,U,174,hexagon,0,0,,,,,,,,,,,,,,,,repeat,letter,NA,d,0.493,Hi,,,,,,1,,,,,,,,low,19,0,19,0,1,,,,,,,,,
296830,2022-11-29_13h00.56.054,vts_reward_expectancy_bt,2022.2.4,MacIntel,58.82352941,Safari,1470,956,,,,,0,874,,,,,,,,,,,,,,,,,S,146,triangle,1,1,,,,,,,,,,,,,,,,repeat,letter,lettRpt,f,0.53,Hi,,,,,,1,,,,,,,,low,20,0,20,0,1,,,,,,,,,
296830,2022-11-29_13h00.56.054,vts_reward_expectancy_bt,2022.2.4,MacIntel,58.82352941,Safari,1470,956,,,,,10,884,,,,,,,,,,,,,,,,,B,132,hexagon,1,0,,,,,,,,,,,,,,,,switch,number,numSwt,j,0.444,Lo,,,,,,1,,,,,,,,low,21,0,21,0,1,,,,,,,,,
296830,2022-11-29_13h00.56.054,vts_reward_expectancy_bt,2022.2.4,MacIntel,58.82352941,Safari,1470,956,,,,,1,885,,,,,,,,,,,,,,,,,F,160,circle,1,0,,,,,,,,,,,,,,,,repeat,number,numRpt,k,0.427,Lo,,,,,,1,,,,,,,,low,22,0,22,0,1,,,,,,,,,
296830,2022-11-29_13h00.56.054,vts_reward_expectancy_bt,2022.2.4,MacIntel,58.82352941,Safari,1470,956,,,,,1,886,,,,,,,,,,,,,,,,,Y,181,star,1,0,,,,,,,,,,,,,,,,switch,letter,lettSwt,f,0.441,Hi,,,,,,1,,,,,,,,low,23,0,23,0,1,,,,,,,,,
296830,2022-11-29_13h00.56.054,vts_reward_expectancy_bt,2022.2.4,MacIntel,58.82352941,Safari,1470,956,,,,,0,886,,,,,,,,,,,,,,,,,F,139,hexagon,0,0,,,,,,,,,,,,,,,,repeat,letter,NA,f,0.778,Hi,,,,,,1,,,,,,,,low,24,0,24,0,1,,,,,,,,,
296830,2022-11-29_13h00.56.054,vts_reward_expectancy_bt,2022.2.4,MacIntel,58.82352941,Safari,1470,956,,,,,0,886,,,,,,,,,,,,,,,,,W,160,triangle,1,1,,,,,,,,,,,,,,,,switch,number,numSwt,k,0.715,Hi,,,,,,1,,,,,,,,low,25,0,25,0,1,,,,,,,,,
296830,2022-11-29_13h00.56.054,vts_reward_expectancy_bt,2022.2.4,MacIntel,58.82352941,Safari,1470,956,,,,,0,886,,,,,,,,,,,,,,,,,Y,174,star,1,0,,,,,,,,,,,,,,,,switch,letter,lettSwt,f,0.545,Hi,,,,,,1,,,,,,,,low,26,0,26,0,1,,,,,,,,,
296830,2022-11-29_13h00.56.054,vts_reward_expectancy_bt,2022.2.4,MacIntel,58.82352941,Safari,1470,956,,,,,1,887,,,,,,,,,,,,,,,,,D,167,circle,1,0,,,,,,,,,,,,,,,,repeat,letter,lettRpt,d,0.426,Lo,,,,,,1,,,,,,,,low,27,0,27,0,1,,,,,,,,,
296830,2022-11-29_13h00.56.054,vts_reward_expectancy_bt,2022.2.4,MacIntel,58.82352941,Safari,1470,956,,,,,0,887,,,,,,,,,,,,,,,,,H,181,circle,0,0,,,,,,,,,,,,,,,,repeat,letter,NA,f,0.493,Lo,,,,,,1,,,,,,,,low,28,0,28,0,1,,,,,,,,,
296830,2022-11-29_13h00.56.054,vts_reward_expectancy_bt,2022.2.4,MacIntel,58.82352941,Safari,1470,956,,,,,0,887,,,,,,,,,,,,,,,,,U,132,hexagon,0,1,,,,,,,,,,,,,,,,switch,number,NA,k,0.475,Lo,,,,,,1,,,,,,,,low,29,0,29,0,1,,,,,,,,,
296830,2022-11-29_13h00.56.054,vts_reward_expectancy_bt,2022.2.4,MacIntel,58.82352941,Safari,1470,956,,,,,0,887,,,,,,,,,,,,,,,,,S,125,star,1,1,,,,,,,,,,,,,,,,repeat,number,numRpt,j,0.625,Hi,,,,,,1,,,,,,,,low,30,0,30,0,1,,,,,,,,,
296830,2022-11-29_13h00.56.054,vts_reward_expectancy_bt,2022.2.4,MacIntel,58.82352941,Safari,1470,956,,,,,0,887,,,,,,,,,,,,,,,,,B,146,triangle,1,0,,,,,,,,,,,,,,,,repeat,number,numRpt,j,0.578,Hi,,,,,,1,,,,,,,,low,31,0,31,0,1,,,,,,,,,
296830,2022-11-29_13h00.56.054,vts_reward_expectancy_bt,2022.2.4,MacIntel,58.82352941,Safari,1470,956,,,,,10,897,,,,,,,,,,,,,,,,,H,160,circle,1,0,,,,,,,,,,,,,,,,switch,letter,lettSwt,d,1.221,Lo,,,,,,2,,,,,,space,7.06,low,0,0,0,0,1,,,,,,,,,
296830,2022-11-29_13h00.56.054,vts_reward_expectancy_bt,2022.2.4,MacIntel,58.82352941,Safari,1470,956,,,,,0,897,,,,,,,,,,,,,,,,,D,167,triangle,0,0,,,,,,,,,,,,,,,,repeat,letter,NA,f,1.049,Lo,,,,,,2,,,,,,,,low,1,0,1,0,1,,,,,,,,,
296830,2022-11-29_13h00.56.054,vts_reward_expectancy_bt,2022.2.4,MacIntel,58.82352941,Safari,1470,956,,,,,0,897,,,,,,,,,,,,,,,,,S,125,hexagon,0,1,,,,,,,,,,,,,,,,repeat,letter,NA,d,0.777,Lo,,,,,,2,,,,,,,,low,2,0,2,0,1,,,,,,,,,
296830,2022-11-29_13h00.56.054,vts_reward_expectancy_bt,2022.2.4,MacIntel,58.82352941,Safari,1470,956,,,,,10,907,,,,,,,,,,,,,,,,,Y,146,star,1,1,,,,,,,,,,,,,,,,repeat,letter,lettRpt,f,0.531,Hi,,,,,,2,,,,,,,,low,3,0,3,0,1,,,,,,,,,
296830,2022-11-29_13h00.56.054,vts_reward_expectancy_bt,2022.2.4,MacIntel,58.82352941,Safari,1470,956,,,,,10,917,,,,,,,,,,,,,,,,,U,139,circle,1,0,,,,,,,,,,,,,,,,switch,number,numSwt,j,0.421,Lo,,,,,,2,,,,,,,,low,4,0,4,0,1,,,,,,,,,
296830,2022-11-29_13h00.56.054,vts_reward_expectancy_bt,2022.2.4,MacIntel,58.82352941,Safari,1470,956,,,,,0,917,,,,,,,,,,,,,,,,,F,132,triangle,1,0,,,,,,,,,,,,,,,,repeat,number,numRpt,j,0.457,Hi,,,,,,2,,,,,,,,low,5,0,5,0,1,,,,,,,,,
296830,2022-11-29_13h00.56.054,vts_reward_expectancy_bt,2022.2.4,MacIntel,58.82352941,Safari,1470,956,,,,,10,927,,,,,,,,,,,,,,,,,W,181,hexagon,1,0,,,,,,,,,,,,,,,,repeat,number,numRpt,k,0.43,Lo,,,,,,2,,,,,,,,low,6,0,6,0,1,,,,,,,,,
296830,2022-11-29_13h00.56.054,vts_reward_expectancy_bt,2022.2.4,MacIntel,58.82352941,Safari,1470,956,,,,,0,927,,,,,,,,,,,,,,,,,B,174,star,1,0,,,,,,,,,,,,,,,,repeat,number,numRpt,k,0.513,Hi,,,,,,2,,,,,,,,low,7,0,7,0,1,,,,,,,,,
296830,2022-11-29_13h00.56.054,vts_reward_expectancy_bt,2022.2.4,MacIntel,58.82352941,Safari,1470,956,,,,,1,928,,,,,,,,,,,,,,,,,H,160,hexagon,1,0,,,,,,,,,,,,,,,,switch,letter,lettSwt,d,0.676,Lo,,,,,,2,,,,,,,,low,8,0,8,0,1,,,,,,,,,
296830,2022-11-29_13h00.56.054,vts_reward_expectancy_bt,2022.2.4,MacIntel,58.82352941,Safari,1470,956,,,,,1,929,,,,,,,,,,,,,,,,,D,167,circle,1,0,,,,,,,,,,,,,,,,repeat,letter,lettRpt,d,0.712,Lo,,,,,,2,,,,,,,,low,9,0,9,0,1,,,,,,,,,
296830,2022-11-29_13h00.56.054,vts_reward_expectancy_bt,2022.2.4,MacIntel,58.82352941,Safari,1470,956,,,,,0,929,,,,,,,,,,,,,,,,,S,125,triangle,1,0,,,,,,,,,,,,,,,,repeat,letter,lettRpt,f,0.559,Hi,,,,,,2,,,,,,,,low,10,0,10,0,1,,,,,,,,,
296830,2022-11-29_13h00.56.054,vts_reward_expectancy_bt,2022.2.4,MacIntel,58.82352941,Safari,1470,956,,,,,0,929,,,,,,,,,,,,,,,,,Y,146,star,1,0,,,,,,,,,,,,,,,,repeat,letter,lettRpt,f,0.633,Hi,,,,,,2,,,,,,,,low,11,0,11,0,1,,,,,,,,,
296830,2022-11-29_13h00.56.054,vts_reward_expectancy_bt,2022.2.4,MacIntel,58.82352941,Safari,1470,956,,,,,0,929,,,,,,,,,,,,,,,,,U,139,triangle,1,0,,,,,,,,,,,,,,,,switch,number,numSwt,j,0.575,Hi,,,,,,2,,,,,,,,low,12,0,12,0,1,,,,,,,,,
296830,2022-11-29_13h00.56.054,vts_reward_expectancy_bt,2022.2.4,MacIntel,58.82352941,Safari,1470,956,,,,,1,930,,,,,,,,,,,,,,,,,F,132,circle,1,0,,,,,,,,,,,,,,,,switch,letter,lettSwt,d,0.809,Lo,,,,,,2,,,,,,,,low,13,0,13,0,1,,,,,,,,,
296830,2022-11-29_13h00.56.054,vts_reward_expectancy_bt,2022.2.4,MacIntel,58.82352941,Safari,1470,956,,,,,10,940,,,,,,,,,,,,,,,,,W,181,star,1,0,,,,,,,,,,,,,,,,repeat,letter,lettRpt,f,0.41,Hi,,,,,,2,,,,,,,,low,14,0,14,0,1,,,,,,,,,
296830,2022-11-29_13h00.56.054,vts_reward_expectancy_bt,2022.2.4,MacIntel,58.82352941,Safari,1470,956,,,,,1,941,,,,,,,,,,,,,,,,,B,174,hexagon,1,0,,,,,,,,,,,,,,,,repeat,letter,lettRpt,d,0.462,Lo,,,,,,2,,,,,,,,low,15,0,15,0,1,,,,,,,,,
296830,2022-11-29_13h00.56.054,vts_reward_expectancy_bt,2022.2.4,MacIntel,58.82352941,Safari,1470,956,,,,,10,951,,,,,,,,,,,,,,,,,U,125,star,1,0,,,,,,,,,,,,,,,,switch,number,numSwt,j,0.427,Hi,,,,,,2,,,,,,,,low,16,0,16,0,1,,,,,,,,,
296830,2022-11-29_13h00.56.054,vts_reward_expectancy_bt,2022.2.4,MacIntel,58.82352941,Safari,1470,956,,,,,10,961,,,,,,,,,,,,,,,,,W,160,triangle,1,0,,,,,,,,,,,,,,,,repeat,number,numRpt,k,0.361,Hi,,,,,,2,,,,,,,,low,17,0,17,0,1,,,,,,,,,
296830,2022-11-29_13h00.56.054,vts_reward_expectancy_bt,2022.2.4,MacIntel,58.82352941,Safari,1470,956,,,,,10,971,,,,,,,,,,,,,,,,,F,132,hexagon,1,0,,,,,,,,,,,,,,,,switch,letter,lettSwt,d,0.362,Lo,,,,,,2,,,,,,,,low,18,0,18,0,1,,,,,,,,,
296830,2022-11-29_13h00.56.054,vts_reward_expectancy_bt,2022.2.4,MacIntel,58.82352941,Safari,1470,956,,,,,10,981,,,,,,,,,,,,,,,,,B,146,circle,1,0,,,,,,,,,,,,,,,,repeat,letter,lettRpt,d,0.475,Lo,,,,,,2,,,,,,,,low,19,0,19,0,1,,,,,,,,,
296830,2022-11-29_13h00.56.054,vts_reward_expectancy_bt,2022.2.4,MacIntel,58.82352941,Safari,1470,956,,,,,0,981,,,,,,,,,,,,,,,,,S,167,star,1,0,,,,,,,,,,,,,,,,switch,number,numSwt,k,0.507,Hi,,,,,,2,,,,,,,,low,20,0,20,0,1,,,,,,,,,
296830,2022-11-29_13h00.56.054,vts_reward_expectancy_bt,2022.2.4,MacIntel,58.82352941,Safari,1470,956,,,,,1,982,,,,,,,,,,,,,,,,,H,181,circle,1,0,,,,,,,,,,,,,,,,repeat,number,numRpt,k,0.528,Lo,,,,,,2,,,,,,,,low,21,0,21,0,1,,,,,,,,,
296830,2022-11-29_13h00.56.054,vts_reward_expectancy_bt,2022.2.4,MacIntel,58.82352941,Safari,1470,956,,,,,0,982,,,,,,,,,,,,,,,,,Y,174,triangle,0,0,,,,,,,,,,,,,,,,switch,letter,NA,d,0.415,Lo,,,,,,2,,,,,,,,low,22,0,22,0,1,,,,,,,,,
296830,2022-11-29_13h00.56.054,vts_reward_expectancy_bt,2022.2.4,MacIntel,58.82352941,Safari,1470,956,,,,,0,982,,,,,,,,,,,,,,,,,D,139,hexagon,0,1,,,,,,,,,,,,,,,,repeat,letter,NA,f,0.465,Lo,,,,,,2,,,,,,,,low,23,0,23,0,1,,,,,,,,,
296830,2022-11-29_13h00.56.054,vts_reward_expectancy_bt,2022.2.4,MacIntel,58.82352941,Safari,1470,956,,,,,0,982,,,,,,,,,,,,,,,,,F,160,circle,0,1,,,,,,,,,,,,,,,,repeat,letter,NA,f,0.56,Lo,,,,,,2,,,,,,,,low,24,0,24,0,1,,,,,,,,,
296830,2022-11-29_13h00.56.054,vts_reward_expectancy_bt,2022.2.4,MacIntel,58.82352941,Safari,1470,956,,,,,0,982,,,,,,,,,,,,,,,,,S,174,star,1,1,,,,,,,,,,,,,,,,switch,number,numSwt,k,0.499,Hi,,,,,,2,,,,,,,,low,25,0,25,0,1,,,,,,,,,
296830,2022-11-29_13h00.56.054,vts_reward_expectancy_bt,2022.2.4,MacIntel,58.82352941,Safari,1470,956,,,,,0,982,,,,,,,,,,,,,,,,,D,181,triangle,1,0,,,,,,,,,,,,,,,,repeat,number,numRpt,k,0.503,Hi,,,,,,2,,,,,,,,low,26,0,26,0,1,,,,,,,,,
296830,2022-11-29_13h00.56.054,vts_reward_expectancy_bt,2022.2.4,MacIntel,58.82352941,Safari,1470,956,,,,,10,992,,,,,,,,,,,,,,,,,U,167,hexagon,1,0,,,,,,,,,,,,,,,,repeat,number,numRpt,k,0.41,Lo,,,,,,2,,,,,,,,low,27,0,27,0,1,,,,,,,,,
296830,2022-11-29_13h00.56.054,vts_reward_expectancy_bt,2022.2.4,MacIntel,58.82352941,Safari,1470,956,,,,,10,1002,,,,,,,,,,,,,,,,,H,132,hexagon,1,0,,,,,,,,,,,,,,,,repeat,number,numRpt,j,0.544,Lo,,,,,,2,,,,,,,,low,28,0,28,0,1,,,,,,,,,
296830,2022-11-29_13h00.56.054,vts_reward_expectancy_bt,2022.2.4,MacIntel,58.82352941,Safari,1470,956,,,,,1,1003,,,,,,,,,,,,,,,,,Y,139,circle,1,0,,,,,,,,,,,,,,,,repeat,number,numRpt,j,0.544,Lo,,,,,,2,,,,,,,,low,29,0,29,0,1,,,,,,,,,
296830,2022-11-29_13h00.56.054,vts_reward_expectancy_bt,2022.2.4,MacIntel,58.82352941,Safari,1470,956,,,,,0,1003,,,,,,,,,,,,,,,,,B,125,triangle,1,0,,,,,,,,,,,,,,,,switch,letter,lettSwt,d,0.514,Hi,,,,,,2,,,,,,,,low,30,0,30,0,1,,,,,,,,,
296830,2022-11-29_13h00.56.054,vts_reward_expectancy_bt,2022.2.4,MacIntel,58.82352941,Safari,1470,956,,,,,0,1003,,,,,,,,,,,,,,,,,W,146,star,1,0,,,,,,,,,,,,,,,,repeat,letter,lettRpt,f,0.626,Hi,,,,,,2,,,,,,,,low,31,0,31,0,1,,,,,,,,,
296830,2022-11-29_13h00.56.054,vts_reward_expectancy_bt,2022.2.4,MacIntel,58.82352941,Safari,1470,956,,,,,0,1003,,,,,,,,,,,,,,,,,D,181,triangle,1,0,,,,,,,,,,,,,,,,repeat,letter,lettRpt,d,0.842,Hi,,,,,,3,,,,,,space,2.312,low,0,0,0,0,1,,,,,,,,,
296830,2022-11-29_13h00.56.054,vts_reward_expectancy_bt,2022.2.4,MacIntel,58.82352941,Safari,1470,956,,,,,10,1013,,,,,,,,,,,,,,,,,F,125,hexagon,1,0,,,,,,,,,,,,,,,,repeat,letter,lettRpt,d,0.332,Lo,,,,,,3,,,,,,,,low,1,0,1,0,1,,,,,,,,,
296830,2022-11-29_13h00.56.054,vts_reward_expectancy_bt,2022.2.4,MacIntel,58.82352941,Safari,1470,956,,,,,10,1023,,,,,,,,,,,,,,,,,B,132,circle,1,0,,,,,,,,,,,,,,,,switch,number,numSwt,j,0.444,Lo,,,,,,3,,,,,,,,low,2,0,2,0,1,,,,,,,,,
296830,2022-11-29_13h00.56.054,vts_reward_expectancy_bt,2022.2.4,MacIntel,58.82352941,Safari,1470,956,,,,,0,1023,,,,,,,,,,,,,,,,,Y,139,star,1,0,,,,,,,,,,,,,,,,repeat,number,numRpt,j,0.481,Hi,,,,,,3,,,,,,,,low,3,0,3,0,1,,,,,,,,,
296830,2022-11-29_13h00.56.054,vts_reward_expectancy_bt,2022.2.4,MacIntel,58.82352941,Safari,1470,956,,,,,0,1023,,,,,,,,,,,,,,,,,H,174,triangle,1,0,,,,,,,,,,,,,,,,switch,letter,lettSwt,d,1.475,Hi,,,,,,3,,,,,,,,low,4,0,4,0,1,,,,,,,,,
296830,2022-11-29_13h00.56.054,vts_reward_expectancy_bt,2022.2.4,MacIntel,58.82352941,Safari,1470,956,,,,,10,1033,,,,,,,,,,,,,,,,,S,146,hexagon,1,0,,,,,,,,,,,,,,,,repeat,letter,lettRpt,f,0.612,Lo,,,,,,3,,,,,,,,low,5,0,5,0,1,,,,,,,,,
296830,2022-11-29_13h00.56.054,vts_reward_expectancy_bt,2022.2.4,MacIntel,58.82352941,Safari,1470,956,,,,,1,1034,,,,,,,,,,,,,,,,,W,167,circle,1,0,,,,,,,,,,,,,,,,repeat,letter,lettRpt,f,0.477,Lo,,,,,,3,,,,,,,,low,6,0,6,0,1,,,,,,,,,
296830,2022-11-29_13h00.56.054,vts_reward_expectancy_bt,2022.2.4,MacIntel,58.82352941,Safari,1470,956,,,,,1,1035,,,,,,,,,,,,,,,,,U,160,star,1,0,,,,,,,,,,,,,,,,switch,number,numSwt,k,0.359,Hi,,,,,,3,,,,,,,,low,7,0,7,0,1,,,,,,,,,
296830,2022-11-29_13h00.56.054,vts_reward_expectancy_bt,2022.2.4,MacIntel,58.82352941,Safari,1470,956,,,,,1,1036,,,,,,,,,,,,,,,,,D,181,hexagon,1,0,,,,,,,,,,,,,,,,repeat,number,numRpt,k,0.446,Lo,,,,,,3,,,,,,,,low,8,0,8,0,1,,,,,,,,,
296830,2022-11-29_13h00.56.054,vts_reward_expectancy_bt,2022.2.4,MacIntel,58.82352941,Safari,1470,956,,,,,10,1046,,,,,,,,,,,,,,,,,F,125,circle,1,0,,,,,,,,,,,,,,,,repeat,number,numRpt,j,0.66,Lo,,,,,,3,,,,,,,,low,9,0,9,0,1,,,,,,,,,
296830,2022-11-29_13h00.56.054,vts_reward_expectancy_bt,2022.2.4,MacIntel,58.82352941,Safari,1470,956,,,,,0,1046,,,,,,,,,,,,,,,,,B,132,star,1,0,,,,,,,,,,,,,,,,repeat,number,numRpt,j,0.482,Hi,,,,,,3,,,,,,,,low,10,0,10,0,1,,,,,,,,,
296830,2022-11-29_13h00.56.054,vts_reward_expectancy_bt,2022.2.4,MacIntel,58.82352941,Safari,1470,956,,,,,1,1047,,,,,,,,,,,,,,,,,Y,139,triangle,1,0,,,,,,,,,,,,,,,,switch,letter,lettSwt,f,0.542,Hi,,,,,,3,,,,,,,,low,11,0,11,0,1,,,,,,,,,
296830,2022-11-29_13h00.56.054,vts_reward_expectancy_bt,2022.2.4,MacIntel,58.82352941,Safari,1470,956,,,,,1,1048,,,,,,,,,,,,,,,,,H,174,hexagon,1,0,,,,,,,,,,,,,,,,repeat,letter,lettRpt,d,0.543,Lo,,,,,,3,,,,,,,,low,12,0,12,0,1,,,,,,,,,
296830,2022-11-29_13h00.56.054,vts_reward_expectancy_bt,2022.2.4,MacIntel,58.82352941,Safari,1470,956,,,,,0,1048,,,,,,,,,,,,,,,,,S,146,circle,0,0,,,,,,,,,,,,,,,,repeat,letter,NA,d,0.525,Lo,,,,,,3,,,,,,,,low,13,0,13,0,1,,,,,,,,,
296830,2022-11-29_13h00.56.054,vts_reward_expectancy_bt,2022.2.4,MacIntel,58.82352941,Safari,1470,956,,,,,0,1048,,,,,,,,,,,,,,,,,W,167,triangle,1,1,,,,,,,,,,,,,,,,repeat,letter,lettRpt,f,0.508,Hi,,,,,,3,,,,,,,,low,14,0,14,0,1,,,,,,,,,
296830,2022-11-29_13h00.56.054,vts_reward_expectancy_bt,2022.2.4,MacIntel,58.82352941,Safari,1470,956,,,,,0,1048,,,,,,,,,,,,,,,,,U,160,star,1,0,,,,,,,,,,,,,,,,switch,number,numSwt,k,0.456,Hi,,,,,,3,,,,,,,,low,15,0,15,0,1,,,,,,,,,
296830,2022-11-29_13h00.56.054,vts_reward_expectancy_bt,2022.2.4,MacIntel,58.82352941,Safari,1470,956,,,,,1,1049,,,,,,,,,,,,,,,,,Y,174,circle,1,0,,,,,,,,,,,,,,,,repeat,number,numRpt,k,0.474,Lo,,,,,,3,,,,,,,,low,16,0,16,0,1,,,,,,,,,
296830,2022-11-29_13h00.56.054,vts_reward_expectancy_bt,2022.2.4,MacIntel,58.82352941,Safari,1470,956,,,,,10,1059,,,,,,,,,,,,,,,,,S,132,star,1,0,,,,,,,,,,,,,,,,repeat,number,numRpt,j,0.408,Hi,,,,,,3,,,,,,,,low,17,0,17,0,1,,,,,,,,,
296830,2022-11-29_13h00.56.054,vts_reward_expectancy_bt,2022.2.4,MacIntel,58.82352941,Safari,1470,956,,,,,1,1060,,,,,,,,,,,,,,,,,H,167,triangle,1,0,,,,,,,,,,,,,,,,switch,letter,lettSwt,d,0.54,Hi,,,,,,3,,,,,,,,low,18,0,18,0,1,,,,,,,,,
296830,2022-11-29_13h00.56.054,vts_reward_expectancy_bt,2022.2.4,MacIntel,58.82352941,Safari,1470,956,,,,,1,1061,,,,,,,,,,,,,,,,,D,146,hexagon,1,0,,,,,,,,,,,,,,,,repeat,letter,lettRpt,d,0.462,Lo,,,,,,3,,,,,,,,low,19,0,19,0,1,,,,,,,,,
296830,2022-11-29_13h00.56.054,vts_reward_expectancy_bt,2022.2.4,MacIntel,58.82352941,Safari,1470,956,,,,,0,1061,,,,,,,,,,,,,,,,,W,125,triangle,1,0,,,,,,,,,,,,,,,,switch,number,numSwt,j,0.461,Hi,,,,,,3,,,,,,,,low,20,0,20,0,1,,,,,,,,,
296830,2022-11-29_13h00.56.054,vts_reward_expectancy_bt,2022.2.4,MacIntel,58.82352941,Safari,1470,956,,,,,0,1061,,,,,,,,,,,,,,,,,B,139,hexagon,0,0,,,,,,,,,,,,,,,,repeat,number,NA,k,0.43,Hi,,,,,,3,,,,,,,,low,21,0,21,0,1,,,,,,,,,
296830,2022-11-29_13h00.56.054,vts_reward_expectancy_bt,2022.2.4,MacIntel,58.82352941,Safari,1470,956,,,,,1,1062,,,,,,,,,,,,,,,,,F,160,circle,1,1,,,,,,,,,,,,,,,,switch,letter,lettSwt,d,0.392,Lo,,,,,,3,,,,,,,,low,22,0,22,0,1,,,,,,,,,
296830,2022-11-29_13h00.56.054,vts_reward_expectancy_bt,2022.2.4,MacIntel,58.82352941,Safari,1470,956,,,,,0,1062,,,,,,,,,,,,,,,,,U,181,star,1,0,,,,,,,,,,,,,,,,switch,number,numSwt,k,0.624,Hi,,,,,,3,,,,,,,,low,23,0,23,0,1,,,,,,,,,
296830,2022-11-29_13h00.56.054,vts_reward_expectancy_bt,2022.2.4,MacIntel,58.82352941,Safari,1470,956,,,,,1,1063,,,,,,,,,,,,,,,,,S,139,hexagon,1,0,,,,,,,,,,,,,,,,switch,letter,lettSwt,f,0.58,Lo,,,,,,3,,,,,,,,low,24,0,24,0,1,,,,,,,,,
296830,2022-11-29_13h00.56.054,vts_reward_expectancy_bt,2022.2.4,MacIntel,58.82352941,Safari,1470,956,,,,,0,1063,,,,,,,,,,,,,,,,,F,181,triangle,1,0,,,,,,,,,,,,,,,,repeat,letter,lettRpt,d,0.56,Hi,,,,,,3,,,,,,,,low,25,0,25,0,1,,,,,,,,,
296830,2022-11-29_13h00.56.054,vts_reward_expectancy_bt,2022.2.4,MacIntel,58.82352941,Safari,1470,956,,,,,1,1064,,,,,,,,,,,,,,,,,W,125,circle,1,0,,,,,,,,,,,,,,,,repeat,letter,lettRpt,f,0.46,Lo,,,,,,3,,,,,,,,low,26,0,26,0,1,,,,,,,,,
296830,2022-11-29_13h00.56.054,vts_reward_expectancy_bt,2022.2.4,MacIntel,58.82352941,Safari,1470,956,,,,,10,1074,,,,,,,,,,,,,,,,,U,160,star,1,0,,,,,,,,,,,,,,,,switch,number,numSwt,k,0.443,Hi,,,,,,3,,,,,,,,low,27,0,27,0,1,,,,,,,,,
296830,2022-11-29_13h00.56.054,vts_reward_expectancy_bt,2022.2.4,MacIntel,58.82352941,Safari,1470,956,,,,,1,1075,,,,,,,,,,,,,,,,,H,167,hexagon,1,0,,,,,,,,,,,,,,,,repeat,number,numRpt,k,0.427,Lo,,,,,,3,,,,,,,,low,28,0,28,0,1,,,,,,,,,
296830,2022-11-29_13h00.56.054,vts_reward_expectancy_bt,2022.2.4,MacIntel,58.82352941,Safari,1470,956,,,,,0,1075,,,,,,,,,,,,,,,,,Y,146,circle,0,0,,,,,,,,,,,,,,,,switch,letter,NA,d,0.45,Lo,,,,,,3,,,,,,,,low,29,0,29,0,1,,,,,,,,,
296830,2022-11-29_13h00.56.054,vts_reward_expectancy_bt,2022.2.4,MacIntel,58.82352941,Safari,1470,956,,,,,10,1085,,,,,,,,,,,,,,,,,B,132,triangle,1,1,,,,,,,,,,,,,,,,repeat,letter,lettRpt,d,0.46,Hi,,,,,,3,,,,,,,,low,30,0,30,0,1,,,,,,,,,
296830,2022-11-29_13h00.56.054,vts_reward_expectancy_bt,2022.2.4,MacIntel,58.82352941,Safari,1470,956,,,,,1,1086,,,,,,,,,,,,,,,,,D,174,star,1,0,,,,,,,,,,,,,,,,switch,number,numSwt,k,0.376,Hi,,,,,,3,,,,,,,,low,31,0,31,0,1,,,,,,,,,
296830,2022-11-29_13h00.56.054,vts_reward_expectancy_bt,2022.2.4,MacIntel,58.82352941,Safari,1470,956,,,,,1,1087,,,,,,,,,,,,,,,,,B,146,circle,1,0,,,,,,,,,,,,,,,,switch,letter,lettSwt,d,0.726,Lo,,,,,,4,,,,,,space,1.248,low,0,0,0,0,1,,,,,,,,,
296830,2022-11-29_13h00.56.054,vts_reward_expectancy_bt,2022.2.4,MacIntel,58.82352941,Safari,1470,956,,,,,1,1088,,,,,,,,,,,,,,,,,F,167,hexagon,1,0,,,,,,,,,,,,,,,,repeat,letter,lettRpt,d,0.674,Lo,,,,,,4,,,,,,,,low,1,0,1,0,1,,,,,,,,,
296830,2022-11-29_13h00.56.054,vts_reward_expectancy_bt,2022.2.4,MacIntel,58.82352941,Safari,1470,956,,,,,10,1098,,,,,,,,,,,,,,,,,Y,181,triangle,1,0,,,,,,,,,,,,,,,,switch,number,numSwt,k,0.425,Hi,,,,,,4,,,,,,,,low,2,0,2,0,1,,,,,,,,,
296830,2022-11-29_13h00.56.054,vts_reward_expectancy_bt,2022.2.4,MacIntel,58.82352941,Safari,1470,956,,,,,0,1098,,,,,,,,,,,,,,,,,S,160,star,1,0,,,,,,,,,,,,,,,,repeat,number,numRpt,k,0.526,Hi,,,,,,4,,,,,,,,low,3,0,3,0,1,,,,,,,,,
296830,2022-11-29_13h00.56.054,vts_reward_expectancy_bt,2022.2.4,MacIntel,58.82352941,Safari,1470,956,,,,,0,1098,,,,,,,,,,,,,,,,,U,139,circle,0,0,,,,,,,,,,,,,,,,repeat,number,NA,k,0.591,Hi,,,,,,4,,,,,,,,low,4,0,4,0,1,,,,,,,,,
296830,2022-11-29_13h00.56.054,vts_reward_expectancy_bt,2022.2.4,MacIntel,58.82352941,Safari,1470,956,,,,,0,1098,,,,,,,,,,,,,,,,,H,125,hexagon,0,1,,,,,,,,,,,,,,,,switch,letter,NA,f,0.414,Hi,,,,,,4,,,,,,,,low,5,0,5,0,1,,,,,,,,,
296830,2022-11-29_13h00.56.054,vts_reward_expectancy_bt,2022.2.4,MacIntel,58.82352941,Safari,1470,956,,,,,0,1098,,,,,,,,,,,,,,,,,W,132,triangle,1,1,,,,,,,,,,,,,,,,repeat,letter,lettRpt,f,0.511,Hi,,,,,,4,,,,,,,,low,6,0,6,0,1,,,,,,,,,
296830,2022-11-29_13h00.56.054,vts_reward_expectancy_bt,2022.2.4,MacIntel,58.82352941,Safari,1470,956,,,,,0,1098,,,,,,,,,,,,,,,,,D,174,star,1,0,,,,,,,,,,,,,,,,repeat,letter,lettRpt,d,0.48,Hi,,,,,,4,,,,,,,,low,7,0,7,0,1,,,,,,,,,
296830,2022-11-29_13h00.56.054,vts_reward_expectancy_bt,2022.2.4,MacIntel,58.82352941,Safari,1470,956,,,,,10,1108,,,,,,,,,,,,,,,,,B,146,hexagon,1,0,,,,,,,,,,,,,,,,repeat,letter,lettRpt,d,0.38,Lo,,,,,,4,,,,,,,,low,8,0,8,0,1,,,,,,,,,
296830,2022-11-29_13h00.56.054,vts_reward_expectancy_bt,2022.2.4,MacIntel,58.82352941,Safari,1470,956,,,,,10,1118,,,,,,,,,,,,,,,,,F,167,circle,1,0,,,,,,,,,,,,,,,,repeat,letter,lettRpt,d,0.343,Lo,,,,,,4,,,,,,,,low,9,0,9,0,1,,,,,,,,,
296830,2022-11-29_13h00.56.054,vts_reward_expectancy_bt,2022.2.4,MacIntel,58.82352941,Safari,1470,956,,,,,0,1118,,,,,,,,,,,,,,,,,Y,181,star,1,0,,,,,,,,,,,,,,,,switch,number,numSwt,k,0.442,Hi,,,,,,4,,,,,,,,low,10,0,10,0,1,,,,,,,,,
296830,2022-11-29_13h00.56.054,vts_reward_expectancy_bt,2022.2.4,MacIntel,58.82352941,Safari,1470,956,,,,,10,1128,,,,,,,,,,,,,,,,,S,160,triangle,1,0,,,,,,,,,,,,,,,,repeat,number,numRpt,k,0.442,Hi,,,,,,4,,,,,,,,low,11,0,11,0,1,,,,,,,,,
296830,2022-11-29_13h00.56.054,vts_reward_expectancy_bt,2022.2.4,MacIntel,58.82352941,Safari,1470,956,,,,,0,1128,,,,,,,,,,,,,,,,,U,139,hexagon,0,0,,,,,,,,,,,,,,,,repeat,number,NA,k,0.384,Hi,,,,,,4,,,,,,,,low,12,0,12,0,1,,,,,,,,,
296830,2022-11-29_13h00.56.054,vts_reward_expectancy_bt,2022.2.4,MacIntel,58.82352941,Safari,1470,956,,,,,1,1129,,,,,,,,,,,,,,,,,H,125,circle,1,1,,,,,,,,,,,,,,,,switch,letter,lettSwt,d,0.44,Lo,,,,,,4,,,,,,,,low,13,0,13,0,1,,,,,,,,,
296830,2022-11-29_13h00.56.054,vts_reward_expectancy_bt,2022.2.4,MacIntel,58.82352941,Safari,1470,956,,,,,0,1129,,,,,,,,,,,,,,,,,W,132,triangle,1,0,,,,,,,,,,,,,,,,repeat,letter,lettRpt,f,0.476,Hi,,,,,,4,,,,,,,,low,14,0,14,0,1,,,,,,,,,
296830,2022-11-29_13h00.56.054,vts_reward_expectancy_bt,2022.2.4,MacIntel,58.82352941,Safari,1470,956,,,,,0,1129,,,,,,,,,,,,,,,,,D,174,star,1,0,,,,,,,,,,,,,,,,switch,number,numSwt,k,0.46,Hi,,,,,,4,,,,,,,,low,15,0,15,0,1,,,,,,,,,
296830,2022-11-29_13h00.56.054,vts_reward_expectancy_bt,2022.2.4,MacIntel,58.82352941,Safari,1470,956,,,,,10,1139,,,,,,,,,,,,,,,,,D,146,star,1,0,,,,,,,,,,,,,,,,repeat,number,numRpt,j,0.362,Hi,,,,,,4,,,,,,,,low,16,0,16,0,1,,,,,,,,,
296830,2022-11-29_13h00.56.054,vts_reward_expectancy_bt,2022.2.4,MacIntel,58.82352941,Safari,1470,956,,,,,1,1140,,,,,,,,,,,,,,,,,B,181,hexagon,1,0,,,,,,,,,,,,,,,,repeat,number,numRpt,k,0.583,Lo,,,,,,4,,,,,,,,low,17,0,17,0,1,,,,,,,,,
296830,2022-11-29_13h00.56.054,vts_reward_expectancy_bt,2022.2.4,MacIntel,58.82352941,Safari,1470,956,,,,,1,1141,,,,,,,,,,,,,,,,,W,139,circle,1,0,,,,,,,,,,,,,,,,switch,letter,lettSwt,f,0.642,Lo,,,,,,4,,,,,,,,low,18,0,18,0,1,,,,,,,,,
296830,2022-11-29_13h00.56.054,vts_reward_expectancy_bt,2022.2.4,MacIntel,58.82352941,Safari,1470,956,,,,,0,1141,,,,,,,,,,,,,,,,,S,167,triangle,1,0,,,,,,,,,,,,,,,,repeat,letter,lettRpt,f,0.543,Hi,,,,,,4,,,,,,,,low,19,0,19,0,1,,,,,,,,,
296830,2022-11-29_13h00.56.054,vts_reward_expectancy_bt,2022.2.4,MacIntel,58.82352941,Safari,1470,956,,,,,0,1141,,,,,,,,,,,,,,,,,H,174,hexagon,0,0,,,,,,,,,,,,,,,,switch,number,NA,j,0.477,Hi,,,,,,4,,,,,,,,low,20,0,20,0,1,,,,,,,,,
296830,2022-11-29_13h00.56.054,vts_reward_expectancy_bt,2022.2.4,MacIntel,58.82352941,Safari,1470,956,,,,,1,1142,,,,,,,,,,,,,,,,,Y,125,circle,1,1,,,,,,,,,,,,,,,,repeat,number,numRpt,j,0.594,Lo,,,,,,4,,,,,,,,low,21,0,21,0,1,,,,,,,,,
296830,2022-11-29_13h00.56.054,vts_reward_expectancy_bt,2022.2.4,MacIntel,58.82352941,Safari,1470,956,,,,,1,1143,,,,,,,,,,,,,,,,,U,160,triangle,1,0,,,,,,,,,,,,,,,,switch,letter,lettSwt,f,0.399,Hi,,,,,,4,,,,,,,,low,22,0,22,0,1,,,,,,,,,
296830,2022-11-29_13h00.56.054,vts_reward_expectancy_bt,2022.2.4,MacIntel,58.82352941,Safari,1470,956,,,,,0,1143,,,,,,,,,,,,,,,,,F,132,star,0,0,,,,,,,,,,,,,,,,repeat,letter,NA,f,0.476,Hi,,,,,,4,,,,,,,,low,23,0,23,0,1,,,,,,,,,
296830,2022-11-29_13h00.56.054,vts_reward_expectancy_bt,2022.2.4,MacIntel,58.82352941,Safari,1470,956,,,,,1,1144,,,,,,,,,,,,,,,,,D,146,hexagon,1,1,,,,,,,,,,,,,,,,switch,number,numSwt,j,0.559,Lo,,,,,,4,,,,,,,,low,24,0,24,0,1,,,,,,,,,
296830,2022-11-29_13h00.56.054,vts_reward_expectancy_bt,2022.2.4,MacIntel,58.82352941,Safari,1470,956,,,,,0,1144,,,,,,,,,,,,,,,,,Y,174,star,1,0,,,,,,,,,,,,,,,,repeat,number,numRpt,k,0.546,Hi,,,,,,4,,,,,,,,low,25,0,25,0,1,,,,,,,,,
296830,2022-11-29_13h00.56.054,vts_reward_expectancy_bt,2022.2.4,MacIntel,58.82352941,Safari,1470,956,,,,,1,1145,,,,,,,,,,,,,,,,,H,139,circle,1,0,,,,,,,,,,,,,,,,repeat,number,numRpt,j,0.733,Lo,,,,,,4,,,,,,,,low,26,0,26,0,1,,,,,,,,,
296830,2022-11-29_13h00.56.054,vts_reward_expectancy_bt,2022.2.4,MacIntel,58.82352941,Safari,1470,956,,,,,10,1155,,,,,,,,,,,,,,,,,B,181,triangle,1,0,,,,,,,,,,,,,,,,repeat,number,numRpt,k,0.394,Hi,,,,,,4,,,,,,,,low,27,0,27,0,1,,,,,,,,,
296830,2022-11-29_13h00.56.054,vts_reward_expectancy_bt,2022.2.4,MacIntel,58.82352941,Safari,1470,956,,,,,0,1155,,,,,,,,,,,,,,,,,S,167,triangle,0,0,,,,,,,,,,,,,,,,switch,letter,NA,d,0.926,Hi,,,,,,4,,,,,,,,low,28,0,28,0,1,,,,,,,,,
296830,2022-11-29_13h00.56.054,vts_reward_expectancy_bt,2022.2.4,MacIntel,58.82352941,Safari,1470,956,,,,,0,1155,,,,,,,,,,,,,,,,,U,125,star,1,1,,,,,,,,,,,,,,,,repeat,letter,lettRpt,f,0.709,Hi,,,,,,4,,,,,,,,low,29,0,29,0,1,,,,,,,,,
296830,2022-11-29_13h00.56.054,vts_reward_expectancy_bt,2022.2.4,MacIntel,58.82352941,Safari,1470,956,,,,,10,1165,,,,,,,,,,,,,,,,,F,160,circle,1,0,,,,,,,,,,,,,,,,repeat,letter,lettRpt,d,0.576,Lo,,,,,,4,,,,,,,,low,30,0,30,0,1,,,,,,,,,
296830,2022-11-29_13h00.56.054,vts_reward_expectancy_bt,2022.2.4,MacIntel,58.82352941,Safari,1470,956,,,,,1,1166,,,,,,,,,,,,,,,,,W,132,hexagon,1,0,,,,,,,,,,,,,,,,repeat,letter,lettRpt,f,0.577,Lo,,,,,,4,,,,,,,,low,31,0,31,0,1,,,,,,,,,
296830,2022-11-29_13h00.56.054,vts_reward_expectancy_bt,2022.2.4,MacIntel,58.82352941,Safari,1470,956,,,,,1,1167,,,,,,,,,,,,,,,,,F,160,circle,1,0,,,,,,,,,,,,,,,,repeat,letter,lettRpt,d,0.659,Lo,,,,,,5,,,,,,space,1.06,low,0,0,0,0,1,,,,,,,,,
296830,2022-11-29_13h00.56.054,vts_reward_expectancy_bt,2022.2.4,MacIntel,58.82352941,Safari,1470,956,,,,,10,1177,,,,,,,,,,,,,,,,,W,132,star,1,0,,,,,,,,,,,,,,,,repeat,letter,lettRpt,f,0.39,Hi,,,,,,5,,,,,,,,low,1,0,1,0,1,,,,,,,,,
296830,2022-11-29_13h00.56.054,vts_reward_expectancy_bt,2022.2.4,MacIntel,58.82352941,Safari,1470,956,,,,,10,1187,,,,,,,,,,,,,,,,,H,181,hexagon,1,0,,,,,,,,,,,,,,,,switch,number,numSwt,k,0.475,Lo,,,,,,5,,,,,,,,low,2,0,2,0,1,,,,,,,,,
296830,2022-11-29_13h00.56.054,vts_reward_expectancy_bt,2022.2.4,MacIntel,58.82352941,Safari,1470,956,,,,,1,1188,,,,,,,,,,,,,,,,,B,125,triangle,1,0,,,,,,,,,,,,,,,,repeat,number,numRpt,j,0.41,Hi,,,,,,5,,,,,,,,low,3,0,3,0,1,,,,,,,,,
296830,2022-11-29_13h00.56.054,vts_reward_expectancy_bt,2022.2.4,MacIntel,58.82352941,Safari,1470,956,,,,,1,1189,,,,,,,,,,,,,,,,,S,146,circle,1,0,,,,,,,,,,,,,,,,switch,letter,lettSwt,f,0.727,Lo,,,,,,5,,,,,,,,low,4,0,4,0,1,,,,,,,,,
296830,2022-11-29_13h00.56.054,vts_reward_expectancy_bt,2022.2.4,MacIntel,58.82352941,Safari,1470,956,,,,,10,1199,,,,,,,,,,,,,,,,,D,139,star,1,0,,,,,,,,,,,,,,,,repeat,letter,lettRpt,d,0.395,Hi,,,,,,5,,,,,,,,low,5,0,5,0,1,,,,,,,,,
296830,2022-11-29_13h00.56.054,vts_reward_expectancy_bt,2022.2.4,MacIntel,58.82352941,Safari,1470,956,,,,,1,1200,,,,,,,,,,,,,,,,,U,167,hexagon,1,0,,,,,,,,,,,,,,,,switch,number,numSwt,k,0.444,Lo,,,,,,5,,,,,,,,low,6,0,6,0,1,,,,,,,,,
296830,2022-11-29_13h00.56.054,vts_reward_expectancy_bt,2022.2.4,MacIntel,58.82352941,Safari,1470,956,,,,,10,1210,,,,,,,,,,,,,,,,,Y,174,triangle,1,0,,,,,,,,,,,,,,,,repeat,number,numRpt,k,0.408,Hi,,,,,,5,,,,,,,,low,7,0,7,0,1,,,,,,,,,
296830,2022-11-29_13h00.56.054,vts_reward_expectancy_bt,2022.2.4,MacIntel,58.82352941,Safari,1470,956,,,,,0,1210,,,,,,,,,,,,,,,,,F,160,triangle,1,0,,,,,,,,,,,,,,,,switch,letter,lettSwt,d,0.564,Hi,,,,,,5,,,,,,,,low,8,0,8,0,1,,,,,,,,,
296830,2022-11-29_13h00.56.054,vts_reward_expectancy_bt,2022.2.4,MacIntel,58.82352941,Safari,1470,956,,,,,1,1211,,,,,,,,,,,,,,,,,W,132,circle,1,0,,,,,,,,,,,,,,,,repeat,letter,lettRpt,f,0.492,Lo,,,,,,5,,,,,,,,low,9,0,9,0,1,,,,,,,,,
296830,2022-11-29_13h00.56.054,vts_reward_expectancy_bt,2022.2.4,MacIntel,58.82352941,Safari,1470,956,,,,,0,1211,,,,,,,,,,,,,,,,,H,181,star,0,0,,,,,,,,,,,,,,,,repeat,letter,NA,f,0.41,Lo,,,,,,5,,,,,,,,low,10,0,10,0,1,,,,,,,,,
296830,2022-11-29_13h00.56.054,vts_reward_expectancy_bt,2022.2.4,MacIntel,58.82352941,Safari,1470,956,,,,,10,1221,,,,,,,,,,,,,,,,,B,125,hexagon,1,1,,,,,,,,,,,,,,,,repeat,letter,lettRpt,d,0.484,Lo,,,,,,5,,,,,,,,low,11,0,11,0,1,,,,,,,,,
296830,2022-11-29_13h00.56.054,vts_reward_expectancy_bt,2022.2.4,MacIntel,58.82352941,Safari,1470,956,,,,,0,1221,,,,,,,,,,,,,,,,,S,146,triangle,1,0,,,,,,,,,,,,,,,,switch,number,numSwt,j,0.492,Hi,,,,,,5,,,,,,,,low,12,0,12,0,1,,,,,,,,,
296830,2022-11-29_13h00.56.054,vts_reward_expectancy_bt,2022.2.4,MacIntel,58.82352941,Safari,1470,956,,,,,1,1222,,,,,,,,,,,,,,,,,D,139,hexagon,1,0,,,,,,,,,,,,,,,,repeat,number,numRpt,j,0.688,Lo,,,,,,5,,,,,,,,low,13,0,13,0,1,,,,,,,,,
296830,2022-11-29_13h00.56.054,vts_reward_expectancy_bt,2022.2.4,MacIntel,58.82352941,Safari,1470,956,,,,,10,1232,,,,,,,,,,,,,,,,,U,167,star,1,0,,,,,,,,,,,,,,,,repeat,number,numRpt,k,0.383,Hi,,,,,,5,,,,,,,,low,14,0,14,0,1,,,,,,,,,
296830,2022-11-29_13h00.56.054,vts_reward_expectancy_bt,2022.2.4,MacIntel,58.82352941,Safari,1470,956,,,,,1,1233,,,,,,,,,,,,,,,,,Y,174,circle,1,0,,,,,,,,,,,,,,,,switch,letter,lettSwt,f,0.462,Lo,,,,,,5,,,,,,,,low,15,0,15,0,1,,,,,,,,,
296830,2022-11-29_13h00.56.054,vts_reward_expectancy_bt,2022.2.4,MacIntel,58.82352941,Safari,1470,956,,,,,1,1234,,,,,,,,,,,,,,,,,H,167,circle,1,0,,,,,,,,,,,,,,,,repeat,letter,lettRpt,d,0.409,Lo,,,,,,5,,,,,,,,low,16,0,16,0,1,,,,,,,,,
296830,2022-11-29_13h00.56.054,vts_reward_expectancy_bt,2022.2.4,MacIntel,58.82352941,Safari,1470,956,,,,,1,1235,,,,,,,,,,,,,,,,,D,174,hexagon,1,0,,,,,,,,,,,,,,,,switch,number,numSwt,k,0.48,Lo,,,,,,5,,,,,,,,low,17,0,17,0,1,,,,,,,,,
296830,2022-11-29_13h00.56.054,vts_reward_expectancy_bt,2022.2.4,MacIntel,58.82352941,Safari,1470,956,,,,,1,1236,,,,,,,,,,,,,,,,,S,132,triangle,1,0,,,,,,,,,,,,,,,,repeat,number,numRpt,j,0.41,Hi,,,,,,5,,,,,,,,low,18,0,18,0,1,,,,,,,,,
296830,2022-11-29_13h00.56.054,vts_reward_expectancy_bt,2022.2.4,MacIntel,58.82352941,Safari,1470,956,,,,,10,1246,,,,,,,,,,,,,,,,,F,139,star,1,0,,,,,,,,,,,,,,,,switch,letter,lettSwt,d,0.383,Hi,,,,,,5,,,,,,,,low,19,0,19,0,1,,,,,,,,,
296830,2022-11-29_13h00.56.054,vts_reward_expectancy_bt,2022.2.4,MacIntel,58.82352941,Safari,1470,956,,,,,0,1246,,,,,,,,,,,,,,,,,Y,160,hexagon,0,0,,,,,,,,,,,,,,,,repeat,letter,NA,d,0.423,Hi,,,,,,5,,,,,,,,low,20,0,20,0,1,,,,,,,,,
296830,2022-11-29_13h00.56.054,vts_reward_expectancy_bt,2022.2.4,MacIntel,58.82352941,Safari,1470,956,,,,,1,1247,,,,,,,,,,,,,,,,,U,181,star,1,1,,,,,,,,,,,,,,,,repeat,letter,lettRpt,f,0.475,Hi,,,,,,5,,,,,,,,low,21,0,21,0,1,,,,,,,,,
296830,2022-11-29_13h00.56.054,vts_reward_expectancy_bt,2022.2.4,MacIntel,58.82352941,Safari,1470,956,,,,,1,1248,,,,,,,,,,,,,,,,,W,146,triangle,1,0,,,,,,,,,,,,,,,,repeat,letter,lettRpt,f,0.443,Hi,,,,,,5,,,,,,,,low,22,0,22,0,1,,,,,,,,,
296830,2022-11-29_13h00.56.054,vts_reward_expectancy_bt,2022.2.4,MacIntel,58.82352941,Safari,1470,956,,,,,10,1258,,,,,,,,,,,,,,,,,B,125,circle,1,0,,,,,,,,,,,,,,,,repeat,letter,lettRpt,d,0.347,Lo,,,,,,5,,,,,,,,low,23,0,23,0,1,,,,,,,,,
296830,2022-11-29_13h00.56.054,vts_reward_expectancy_bt,2022.2.4,MacIntel,58.82352941,Safari,1470,956,,,,,0,1258,,,,,,,,,,,,,,,,,D,139,star,1,0,,,,,,,,,,,,,,,,switch,number,numSwt,j,0.522,Hi,,,,,,5,,,,,,,,low,24,0,24,0,1,,,,,,,,,
296830,2022-11-29_13h00.56.054,vts_reward_expectancy_bt,2022.2.4,MacIntel,58.82352941,Safari,1470,956,,,,,10,1268,,,,,,,,,,,,,,,,,U,125,triangle,1,0,,,,,,,,,,,,,,,,repeat,number,numRpt,j,0.41,Hi,,,,,,5,,,,,,,,low,25,0,25,0,1,,,,,,,,,
296830,2022-11-29_13h00.56.054,vts_reward_expectancy_bt,2022.2.4,MacIntel,58.82352941,Safari,1470,956,,,,,1,1269,,,,,,,,,,,,,,,,,W,132,hexagon,1,0,,,,,,,,,,,,,,,,repeat,number,numRpt,j,0.443,Lo,,,,,,5,,,,,,,,low,26,0,26,0,1,,,,,,,,,
296830,2022-11-29_13h00.56.054,vts_reward_expectancy_bt,2022.2.4,MacIntel,58.82352941,Safari,1470,956,,,,,1,1270,,,,,,,,,,,,,,,,,S,167,circle,1,0,,,,,,,,,,,,,,,,switch,letter,lettSwt,f,0.55,Lo,,,,,,5,,,,,,,,low,27,0,27,0,1,,,,,,,,,
