participant,date,expName,psychopyVersion,OS,frameRate,browser,xResolution,yResolution,key_resp.keys,key_resp.rt,training_resp.keys,training_resp.rt,points_trial,points_cumul,trainBlock,training.thisRepN,training.thisTrialN,training.thisN,training.thisIndex,training.ran,LTriangleOpac,LCircleOpac,LHexagonOpac,LStarOpac,RTriangleOpac,RCircleOpac,RHexagonOpac,RStarOpac,LShape_ID,RShape_ID,curr_topStim,curr_bottStim,curr_shape,acc,E1,target_resp_prac1.keys,target_resp_prac1.rt,pracBlock,task1_prac_trials.thisRepN,task1_prac_trials.thisTrialN,task1_prac_trials.thisN,task1_prac_trials.thisIndex,task1_prac_trials.ran,target_resp_prac2.keys,target_resp_prac2.rt,task2_praac_trials.thisRepN,task2_praac_trials.thisTrialN,task2_praac_trials.thisN,task2_praac_trials.thisIndex,task2_praac_trials.ran,alt,task,condition,target_resp.keys,target_resp.rt,rewCond,vts_practice_trials.thisRepN,vts_practice_trials.thisTrialN,vts_practice_trials.thisN,vts_practice_trials.thisIndex,vts_practice_trials.ran,blockNum,trials_norew.thisRepN,trials_norew.thisTrialN,trials_norew.thisN,trials_norew.thisIndex,trials_norew.ran,key_resp_2.keys,key_resp_2.rt,rewExpectancy,trials_rew.thisRepN,trials_rew.thisTrialN,trials_rew.thisN,trials_rew.thisIndex,trials_rew.ran,Q1,Q2,Q2_text,Q3,Q4,Q5_text,Q5,xRes,yRes
296926,2022-11-29_14h03.38.389,vts_reward_expectancy_bt,2022.2.4,MacIntel,60.0024001,Chrome,1440,900,,,,,,,,,,,,,,,,,,,,,,,,,,,,,,,,,,,,,,,,,,,,,,,,,,,,,,,,,,,,,,,,,,,,,,,,,,,,
296926,2022-11-29_14h03.38.389,vts_reward_expectancy_bt,2022.2.4,MacIntel,60.0024001,Chrome,1440,900,space,59.569,,,,,,,,,,,,,,,,,,,,,,,,,,,,,,,,,,,,,,,,,,,,,,,,,,,,,,,,,,,,,,,,,,,,,,,,,,
296926,2022-11-29_14h03.38.389,vts_reward_expectancy_bt,2022.2.4,MacIntel,60.0024001,Chrome,1440,900,,,,,,,,,,,,,,,,,,,,,,,,,,,,,,,,,,,,,,,,,,,,,,,,,,,,,,,,,,,,,,,,,,,,,,,,,,,,
296926,2022-11-29_14h03.38.389,vts_reward_expectancy_bt,2022.2.4,MacIntel,60.0024001,Chrome,1440,900,,,l,2.8883,1,1,0,0,0,0,3,1,0,1,0,0,1,0,0,0,circle,triangle,,,,,,,,,,,,,,,,,,,,,,,,,,,,,,,,,,,,,,,,,,,,,,,,,,,,,,
296926,2022-11-29_14h03.38.389,vts_reward_expectancy_bt,2022.2.4,MacIntel,60.0024001,Chrome,1440,900,,,a,2.7247,1,2,0,0,1,1,10,1,0,0,0,1,0,1,0,0,star ,circle,,,,,,,,,,,,,,,,,,,,,,,,,,,,,,,,,,,,,,,,,,,,,,,,,,,,,,
296926,2022-11-29_14h03.38.389,vts_reward_expectancy_bt,2022.2.4,MacIntel,60.0024001,Chrome,1440,900,,,l,2.0854,10,12,0,0,2,2,1,1,1,0,0,0,0,0,1,0,triangle,hexagon,,,,,,,,,,,,,,,,,,,,,,,,,,,,,,,,,,,,,,,,,,,,,,,,,,,,,,
296926,2022-11-29_14h03.38.389,vts_reward_expectancy_bt,2022.2.4,MacIntel,60.0024001,Chrome,1440,900,,,a,1.9123,10,22,0,0,3,3,8,1,0,0,1,0,0,0,0,1,hexagon,star,,,,,,,,,,,,,,,,,,,,,,,,,,,,,,,,,,,,,,,,,,,,,,,,,,,,,,
296926,2022-11-29_14h03.38.389,vts_reward_expectancy_bt,2022.2.4,MacIntel,60.0024001,Chrome,1440,900,,,a,2.9159,1,23,0,0,4,4,2,1,1,0,0,0,0,0,0,1,triangle,star,,,,,,,,,,,,,,,,,,,,,,,,,,,,,,,,,,,,,,,,,,,,,,,,,,,,,,
296926,2022-11-29_14h03.38.389,vts_reward_expectancy_bt,2022.2.4,MacIntel,60.0024001,Chrome,1440,900,,,l,1.1537,1,24,0,0,5,5,0,1,1,0,0,0,0,1,0,0,triangle,circle,,,,,,,,,,,,,,,,,,,,,,,,,,,,,,,,,,,,,,,,,,,,,,,,,,,,,,
296926,2022-11-29_14h03.38.389,vts_reward_expectancy_bt,2022.2.4,MacIntel,60.0024001,Chrome,1440,900,,,l,3.7836,1,25,0,0,6,6,4,1,0,1,0,0,0,0,1,0,circle,hexagon,,,,,,,,,,,,,,,,,,,,,,,,,,,,,,,,,,,,,,,,,,,,,,,,,,,,,,
296926,2022-11-29_14h03.38.389,vts_reward_expectancy_bt,2022.2.4,MacIntel,60.0024001,Chrome,1440,900,,,a,1.1813,1,26,0,0,7,7,9,1,0,0,0,1,1,0,0,0,star,triangle,,,,,,,,,,,,,,,,,,,,,,,,,,,,,,,,,,,,,,,,,,,,,,,,,,,,,,
296926,2022-11-29_14h03.38.389,vts_reward_expectancy_bt,2022.2.4,MacIntel,60.0024001,Chrome,1440,900,,,l,0.7851,10,36,0,0,8,8,11,1,0,0,0,1,0,0,1,0,star,hexagon,,,,,,,,,,,,,,,,,,,,,,,,,,,,,,,,,,,,,,,,,,,,,,,,,,,,,,
296926,2022-11-29_14h03.38.389,vts_reward_expectancy_bt,2022.2.4,MacIntel,60.0024001,Chrome,1440,900,,,l,1.5647,10,46,0,0,9,9,5,1,0,1,0,0,0,0,0,1,circle,star,,,,,,,,,,,,,,,,,,,,,,,,,,,,,,,,,,,,,,,,,,,,,,,,,,,,,,
296926,2022-11-29_14h03.38.389,vts_reward_expectancy_bt,2022.2.4,MacIntel,60.0024001,Chrome,1440,900,,,l,3.6181,10,56,0,0,10,10,7,1,0,0,1,0,0,1,0,0,hexagon,circle,,,,,,,,,,,,,,,,,,,,,,,,,,,,,,,,,,,,,,,,,,,,,,,,,,,,,,
296926,2022-11-29_14h03.38.389,vts_reward_expectancy_bt,2022.2.4,MacIntel,60.0024001,Chrome,1440,900,,,a,1.0348,10,66,0,0,11,11,6,1,0,0,1,0,1,0,0,0,hexagon,triangle,,,,,,,,,,,,,,,,,,,,,,,,,,,,,,,,,,,,,,,,,,,,,,,,,,,,,,
296926,2022-11-29_14h03.38.389,vts_reward_expectancy_bt,2022.2.4,MacIntel,60.0024001,Chrome,1440,900,,,l,1.4818,1,67,0,1,0,12,2,1,1,0,0,0,0,0,0,1,triangle,star,,,,,,,,,,,,,,,,,,,,,,,,,,,,,,,,,,,,,,,,,,,,,,,,,,,,,,
296926,2022-11-29_14h03.38.389,vts_reward_expectancy_bt,2022.2.4,MacIntel,60.0024001,Chrome,1440,900,,,a,0.8682,10,77,0,1,1,13,1,1,1,0,0,0,0,0,1,0,triangle,hexagon,,,,,,,,,,,,,,,,,,,,,,,,,,,,,,,,,,,,,,,,,,,,,,,,,,,,,,
296926,2022-11-29_14h03.38.389,vts_reward_expectancy_bt,2022.2.4,MacIntel,60.0024001,Chrome,1440,900,,,a,1.1587,10,87,0,1,2,14,5,1,0,1,0,0,0,0,0,1,circle,star,,,,,,,,,,,,,,,,,,,,,,,,,,,,,,,,,,,,,,,,,,,,,,,,,,,,,,
296926,2022-11-29_14h03.38.389,vts_reward_expectancy_bt,2022.2.4,MacIntel,60.0024001,Chrome,1440,900,,,l,1.264,10,97,0,1,3,15,6,1,0,0,1,0,1,0,0,0,hexagon,triangle,,,,,,,,,,,,,,,,,,,,,,,,,,,,,,,,,,,,,,,,,,,,,,,,,,,,,,
296926,2022-11-29_14h03.38.389,vts_reward_expectancy_bt,2022.2.4,MacIntel,60.0024001,Chrome,1440,900,,,l,1.3004,1,98,0,1,4,16,7,1,0,0,1,0,0,1,0,0,hexagon,circle,,,,,,,,,,,,,,,,,,,,,,,,,,,,,,,,,,,,,,,,,,,,,,,,,,,,,,
296926,2022-11-29_14h03.38.389,vts_reward_expectancy_bt,2022.2.4,MacIntel,60.0024001,Chrome,1440,900,,,a,1.0059,10,108,0,1,5,17,4,1,0,1,0,0,0,0,1,0,circle,hexagon,,,,,,,,,,,,,,,,,,,,,,,,,,,,,,,,,,,,,,,,,,,,,,,,,,,,,,
296926,2022-11-29_14h03.38.389,vts_reward_expectancy_bt,2022.2.4,MacIntel,60.0024001,Chrome,1440,900,,,a,0.8474,1,109,0,1,6,18,9,1,0,0,0,1,1,0,0,0,star,triangle,,,,,,,,,,,,,,,,,,,,,,,,,,,,,,,,,,,,,,,,,,,,,,,,,,,,,,
296926,2022-11-29_14h03.38.389,vts_reward_expectancy_bt,2022.2.4,MacIntel,60.0024001,Chrome,1440,900,,,l,0.7553,10,119,0,1,7,19,10,1,0,0,0,1,0,1,0,0,star ,circle,,,,,,,,,,,,,,,,,,,,,,,,,,,,,,,,,,,,,,,,,,,,,,,,,,,,,,
296926,2022-11-29_14h03.38.389,vts_reward_expectancy_bt,2022.2.4,MacIntel,60.0024001,Chrome,1440,900,,,a,1.1315,10,129,0,1,8,20,8,1,0,0,1,0,0,0,0,1,hexagon,star,,,,,,,,,,,,,,,,,,,,,,,,,,,,,,,,,,,,,,,,,,,,,,,,,,,,,,
296926,2022-11-29_14h03.38.389,vts_reward_expectancy_bt,2022.2.4,MacIntel,60.0024001,Chrome,1440,900,,,a,2.9173,10,139,0,1,9,21,11,1,0,0,0,1,0,0,1,0,star,hexagon,,,,,,,,,,,,,,,,,,,,,,,,,,,,,,,,,,,,,,,,,,,,,,,,,,,,,,
296926,2022-11-29_14h03.38.389,vts_reward_expectancy_bt,2022.2.4,MacIntel,60.0024001,Chrome,1440,900,,,a,23.635,10,149,0,1,10,22,0,1,1,0,0,0,0,1,0,0,triangle,circle,,,,,,,,,,,,,,,,,,,,,,,,,,,,,,,,,,,,,,,,,,,,,,,,,,,,,,
296926,2022-11-29_14h03.38.389,vts_reward_expectancy_bt,2022.2.4,MacIntel,60.0024001,Chrome,1440,900,,,l,0.932,10,159,0,1,11,23,3,1,0,1,0,0,1,0,0,0,circle,triangle,,,,,,,,,,,,,,,,,,,,,,,,,,,,,,,,,,,,,,,,,,,,,,,,,,,,,,
296926,2022-11-29_14h03.38.389,vts_reward_expectancy_bt,2022.2.4,MacIntel,60.0024001,Chrome,1440,900,,,a,0.8142,1,160,0,2,0,24,4,1,0,1,0,0,0,0,1,0,circle,hexagon,,,,,,,,,,,,,,,,,,,,,,,,,,,,,,,,,,,,,,,,,,,,,,,,,,,,,,
296926,2022-11-29_14h03.38.389,vts_reward_expectancy_bt,2022.2.4,MacIntel,60.0024001,Chrome,1440,900,,,l,0.795,1,161,0,2,1,25,8,1,0,0,1,0,0,0,0,1,hexagon,star,,,,,,,,,,,,,,,,,,,,,,,,,,,,,,,,,,,,,,,,,,,,,,,,,,,,,,
296926,2022-11-29_14h03.38.389,vts_reward_expectancy_bt,2022.2.4,MacIntel,60.0024001,Chrome,1440,900,,,a,0.6376,10,171,0,2,2,26,2,1,1,0,0,0,0,0,0,1,triangle,star,,,,,,,,,,,,,,,,,,,,,,,,,,,,,,,,,,,,,,,,,,,,,,,,,,,,,,
296926,2022-11-29_14h03.38.389,vts_reward_expectancy_bt,2022.2.4,MacIntel,60.0024001,Chrome,1440,900,,,a,1.2159,10,181,0,2,3,27,3,1,0,1,0,0,1,0,0,0,circle,triangle,,,,,,,,,,,,,,,,,,,,,,,,,,,,,,,,,,,,,,,,,,,,,,,,,,,,,,
296926,2022-11-29_14h03.38.389,vts_reward_expectancy_bt,2022.2.4,MacIntel,60.0024001,Chrome,1440,900,,,l,0.8019,10,191,0,2,4,28,7,1,0,0,1,0,0,1,0,0,hexagon,circle,,,,,,,,,,,,,,,,,,,,,,,,,,,,,,,,,,,,,,,,,,,,,,,,,,,,,,
296926,2022-11-29_14h03.38.389,vts_reward_expectancy_bt,2022.2.4,MacIntel,60.0024001,Chrome,1440,900,,,a,0.7294,1,192,0,2,5,29,11,1,0,0,0,1,0,0,1,0,star,hexagon,,,,,,,,,,,,,,,,,,,,,,,,,,,,,,,,,,,,,,,,,,,,,,,,,,,,,,
296926,2022-11-29_14h03.38.389,vts_reward_expectancy_bt,2022.2.4,MacIntel,60.0024001,Chrome,1440,900,,,l,1.1004,10,202,0,2,6,30,6,1,0,0,1,0,1,0,0,0,hexagon,triangle,,,,,,,,,,,,,,,,,,,,,,,,,,,,,,,,,,,,,,,,,,,,,,,,,,,,,,
296926,2022-11-29_14h03.38.389,vts_reward_expectancy_bt,2022.2.4,MacIntel,60.0024001,Chrome,1440,900,,,l,1.1768,1,203,0,2,7,31,0,1,1,0,0,0,0,1,0,0,triangle,circle,,,,,,,,,,,,,,,,,,,,,,,,,,,,,,,,,,,,,,,,,,,,,,,,,,,,,,
296926,2022-11-29_14h03.38.389,vts_reward_expectancy_bt,2022.2.4,MacIntel,60.0024001,Chrome,1440,900,,,l,1.2345,10,213,0,2,8,32,10,1,0,0,0,1,0,1,0,0,star ,circle,,,,,,,,,,,,,,,,,,,,,,,,,,,,,,,,,,,,,,,,,,,,,,,,,,,,,,
296926,2022-11-29_14h03.38.389,vts_reward_expectancy_bt,2022.2.4,MacIntel,60.0024001,Chrome,1440,900,,,l,1.1211,10,223,0,2,9,33,5,1,0,1,0,0,0,0,0,1,circle,star,,,,,,,,,,,,,,,,,,,,,,,,,,,,,,,,,,,,,,,,,,,,,,,,,,,,,,
296926,2022-11-29_14h03.38.389,vts_reward_expectancy_bt,2022.2.4,MacIntel,60.0024001,Chrome,1440,900,,,l,1.517,1,224,0,2,10,34,9,1,0,0,0,1,1,0,0,0,star,triangle,,,,,,,,,,,,,,,,,,,,,,,,,,,,,,,,,,,,,,,,,,,,,,,,,,,,,,
296926,2022-11-29_14h03.38.389,vts_reward_expectancy_bt,2022.2.4,MacIntel,60.0024001,Chrome,1440,900,,,l,1.0177,10,234,0,2,11,35,1,1,1,0,0,0,0,0,1,0,triangle,hexagon,,,,,,,,,,,,,,,,,,,,,,,,,,,,,,,,,,,,,,,,,,,,,,,,,,,,,,
296926,2022-11-29_14h03.38.389,vts_reward_expectancy_bt,2022.2.4,MacIntel,60.0024001,Chrome,1440,900,,,a,0.7358,1,235,1,0,0,0,11,1,0,0,0,1,0,0,1,0,star,hexagon,,,,,,,,,,,,,,,,,,,,,,,,,,,,,,,,,,,,,,,,,,,,,,,,,,,,,,
296926,2022-11-29_14h03.38.389,vts_reward_expectancy_bt,2022.2.4,MacIntel,60.0024001,Chrome,1440,900,,,l,0.9365,10,245,1,0,1,1,4,1,0,1,0,0,0,0,1,0,circle,hexagon,,,,,,,,,,,,,,,,,,,,,,,,,,,,,,,,,,,,,,,,,,,,,,,,,,,,,,
296926,2022-11-29_14h03.38.389,vts_reward_expectancy_bt,2022.2.4,MacIntel,60.0024001,Chrome,1440,900,,,l,0.8052,1,246,1,0,2,2,5,1,0,1,0,0,0,0,0,1,circle,star,,,,,,,,,,,,,,,,,,,,,,,,,,,,,,,,,,,,,,,,,,,,,,,,,,,,,,
296926,2022-11-29_14h03.38.389,vts_reward_expectancy_bt,2022.2.4,MacIntel,60.0024001,Chrome,1440,900,,,a,0.5505,1,247,1,0,3,3,10,1,0,0,0,1,0,1,0,0,star ,circle,,,,,,,,,,,,,,,,,,,,,,,,,,,,,,,,,,,,,,,,,,,,,,,,,,,,,,
296926,2022-11-29_14h03.38.389,vts_reward_expectancy_bt,2022.2.4,MacIntel,60.0024001,Chrome,1440,900,,,l,2.7194,1,248,1,0,4,4,3,1,0,1,0,0,1,0,0,0,circle,triangle,,,,,,,,,,,,,,,,,,,,,,,,,,,,,,,,,,,,,,,,,,,,,,,,,,,,,,
296926,2022-11-29_14h03.38.389,vts_reward_expectancy_bt,2022.2.4,MacIntel,60.0024001,Chrome,1440,900,,,a,0.6158,10,258,1,0,5,5,8,1,0,0,1,0,0,0,0,1,hexagon,star,,,,,,,,,,,,,,,,,,,,,,,,,,,,,,,,,,,,,,,,,,,,,,,,,,,,,,
296926,2022-11-29_14h03.38.389,vts_reward_expectancy_bt,2022.2.4,MacIntel,60.0024001,Chrome,1440,900,,,a,0.5222,1,259,1,0,6,6,6,1,0,0,1,0,1,0,0,0,hexagon,triangle,,,,,,,,,,,,,,,,,,,,,,,,,,,,,,,,,,,,,,,,,,,,,,,,,,,,,,
296926,2022-11-29_14h03.38.389,vts_reward_expectancy_bt,2022.2.4,MacIntel,60.0024001,Chrome,1440,900,,,l,0.9303,1,260,1,0,7,7,9,1,0,0,0,1,1,0,0,0,star,triangle,,,,,,,,,,,,,,,,,,,,,,,,,,,,,,,,,,,,,,,,,,,,,,,,,,,,,,
296926,2022-11-29_14h03.38.389,vts_reward_expectancy_bt,2022.2.4,MacIntel,60.0024001,Chrome,1440,900,,,a,1.0152,10,270,1,0,8,8,1,1,1,0,0,0,0,0,1,0,triangle,hexagon,,,,,,,,,,,,,,,,,,,,,,,,,,,,,,,,,,,,,,,,,,,,,,,,,,,,,,
296926,2022-11-29_14h03.38.389,vts_reward_expectancy_bt,2022.2.4,MacIntel,60.0024001,Chrome,1440,900,,,l,0.9646,1,271,1,0,9,9,0,1,1,0,0,0,0,1,0,0,triangle,circle,,,,,,,,,,,,,,,,,,,,,,,,,,,,,,,,,,,,,,,,,,,,,,,,,,,,,,
296926,2022-11-29_14h03.38.389,vts_reward_expectancy_bt,2022.2.4,MacIntel,60.0024001,Chrome,1440,900,,,a,0.6509,1,272,1,0,10,10,7,1,0,0,1,0,0,1,0,0,hexagon,circle,,,,,,,,,,,,,,,,,,,,,,,,,,,,,,,,,,,,,,,,,,,,,,,,,,,,,,
296926,2022-11-29_14h03.38.389,vts_reward_expectancy_bt,2022.2.4,MacIntel,60.0024001,Chrome,1440,900,,,l,0.6714,1,273,1,0,11,11,2,1,1,0,0,0,0,0,0,1,triangle,star,,,,,,,,,,,,,,,,,,,,,,,,,,,,,,,,,,,,,,,,,,,,,,,,,,,,,,
296926,2022-11-29_14h03.38.389,vts_reward_expectancy_bt,2022.2.4,MacIntel,60.0024001,Chrome,1440,900,,,a,0.683,1,274,1,1,0,12,3,1,0,1,0,0,1,0,0,0,circle,triangle,,,,,,,,,,,,,,,,,,,,,,,,,,,,,,,,,,,,,,,,,,,,,,,,,,,,,,
296926,2022-11-29_14h03.38.389,vts_reward_expectancy_bt,2022.2.4,MacIntel,60.0024001,Chrome,1440,900,,,a,1.0454,1,275,1,1,1,13,7,1,0,0,1,0,0,1,0,0,hexagon,circle,,,,,,,,,,,,,,,,,,,,,,,,,,,,,,,,,,,,,,,,,,,,,,,,,,,,,,
296926,2022-11-29_14h03.38.389,vts_reward_expectancy_bt,2022.2.4,MacIntel,60.0024001,Chrome,1440,900,,,a,0.4823,10,285,1,1,2,14,5,1,0,1,0,0,0,0,0,1,circle,star,,,,,,,,,,,,,,,,,,,,,,,,,,,,,,,,,,,,,,,,,,,,,,,,,,,,,,
296926,2022-11-29_14h03.38.389,vts_reward_expectancy_bt,2022.2.4,MacIntel,60.0024001,Chrome,1440,900,,,l,1.1971,10,295,1,1,3,15,6,1,0,0,1,0,1,0,0,0,hexagon,triangle,,,,,,,,,,,,,,,,,,,,,,,,,,,,,,,,,,,,,,,,,,,,,,,,,,,,,,
296926,2022-11-29_14h03.38.389,vts_reward_expectancy_bt,2022.2.4,MacIntel,60.0024001,Chrome,1440,900,,,a,3.4315,1,296,1,1,4,16,0,1,1,0,0,0,0,1,0,0,triangle,circle,,,,,,,,,,,,,,,,,,,,,,,,,,,,,,,,,,,,,,,,,,,,,,,,,,,,,,
296926,2022-11-29_14h03.38.389,vts_reward_expectancy_bt,2022.2.4,MacIntel,60.0024001,Chrome,1440,900,,,a,1.1042,1,297,1,1,5,17,9,1,0,0,0,1,1,0,0,0,star,triangle,,,,,,,,,,,,,,,,,,,,,,,,,,,,,,,,,,,,,,,,,,,,,,,,,,,,,,
296926,2022-11-29_14h03.38.389,vts_reward_expectancy_bt,2022.2.4,MacIntel,60.0024001,Chrome,1440,900,,,l,1.0104,10,307,1,1,6,18,1,1,1,0,0,0,0,0,1,0,triangle,hexagon,,,,,,,,,,,,,,,,,,,,,,,,,,,,,,,,,,,,,,,,,,,,,,,,,,,,,,
296926,2022-11-29_14h03.38.389,vts_reward_expectancy_bt,2022.2.4,MacIntel,60.0024001,Chrome,1440,900,,,l,0.601,1,308,1,1,7,19,2,1,1,0,0,0,0,0,0,1,triangle,star,,,,,,,,,,,,,,,,,,,,,,,,,,,,,,,,,,,,,,,,,,,,,,,,,,,,,,
296926,2022-11-29_14h03.38.389,vts_reward_expectancy_bt,2022.2.4,MacIntel,60.0024001,Chrome,1440,900,,,l,0.4807,10,318,1,1,8,20,4,1,0,1,0,0,0,0,1,0,circle,hexagon,,,,,,,,,,,,,,,,,,,,,,,,,,,,,,,,,,,,,,,,,,,,,,,,,,,,,,
296926,2022-11-29_14h03.38.389,vts_reward_expectancy_bt,2022.2.4,MacIntel,60.0024001,Chrome,1440,900,,,a,1.1182,1,319,1,1,9,21,11,1,0,0,0,1,0,0,1,0,star,hexagon,,,,,,,,,,,,,,,,,,,,,,,,,,,,,,,,,,,,,,,,,,,,,,,,,,,,,,
296926,2022-11-29_14h03.38.389,vts_reward_expectancy_bt,2022.2.4,MacIntel,60.0024001,Chrome,1440,900,,,l,0.5811,10,329,1,1,10,22,10,1,0,0,0,1,0,1,0,0,star ,circle,,,,,,,,,,,,,,,,,,,,,,,,,,,,,,,,,,,,,,,,,,,,,,,,,,,,,,
296926,2022-11-29_14h03.38.389,vts_reward_expectancy_bt,2022.2.4,MacIntel,60.0024001,Chrome,1440,900,,,l,0.9042,1,330,1,1,11,23,8,1,0,0,1,0,0,0,0,1,hexagon,star,,,,,,,,,,,,,,,,,,,,,,,,,,,,,,,,,,,,,,,,,,,,,,,,,,,,,,
296926,2022-11-29_14h03.38.389,vts_reward_expectancy_bt,2022.2.4,MacIntel,60.0024001,Chrome,1440,900,,,l,1.0841,10,340,1,2,0,24,0,1,1,0,0,0,0,1,0,0,triangle,circle,,,,,,,,,,,,,,,,,,,,,,,,,,,,,,,,,,,,,,,,,,,,,,,,,,,,,,
296926,2022-11-29_14h03.38.389,vts_reward_expectancy_bt,2022.2.4,MacIntel,60.0024001,Chrome,1440,900,,,a,0.482,10,350,1,2,1,25,11,1,0,0,0,1,0,0,1,0,star,hexagon,,,,,,,,,,,,,,,,,,,,,,,,,,,,,,,,,,,,,,,,,,,,,,,,,,,,,,
296926,2022-11-29_14h03.38.389,vts_reward_expectancy_bt,2022.2.4,MacIntel,60.0024001,Chrome,1440,900,,,l,0.501,10,360,1,2,2,26,10,1,0,0,0,1,0,1,0,0,star ,circle,,,,,,,,,,,,,,,,,,,,,,,,,,,,,,,,,,,,,,,,,,,,,,,,,,,,,,
296926,2022-11-29_14h03.38.389,vts_reward_expectancy_bt,2022.2.4,MacIntel,60.0024001,Chrome,1440,900,,,a,0.3289,1,361,1,2,3,27,4,1,0,1,0,0,0,0,1,0,circle,hexagon,,,,,,,,,,,,,,,,,,,,,,,,,,,,,,,,,,,,,,,,,,,,,,,,,,,,,,
296926,2022-11-29_14h03.38.389,vts_reward_expectancy_bt,2022.2.4,MacIntel,60.0024001,Chrome,1440,900,,,l,0.8289,1,362,1,2,4,28,8,1,0,0,1,0,0,0,0,1,hexagon,star,,,,,,,,,,,,,,,,,,,,,,,,,,,,,,,,,,,,,,,,,,,,,,,,,,,,,,
296926,2022-11-29_14h03.38.389,vts_reward_expectancy_bt,2022.2.4,MacIntel,60.0024001,Chrome,1440,900,,,l,0.6145,1,363,1,2,5,29,9,1,0,0,0,1,1,0,0,0,star,triangle,,,,,,,,,,,,,,,,,,,,,,,,,,,,,,,,,,,,,,,,,,,,,,,,,,,,,,
296926,2022-11-29_14h03.38.389,vts_reward_expectancy_bt,2022.2.4,MacIntel,60.0024001,Chrome,1440,900,,,l,0.7663,1,364,1,2,6,30,5,1,0,1,0,0,0,0,0,1,circle,star,,,,,,,,,,,,,,,,,,,,,,,,,,,,,,,,,,,,,,,,,,,,,,,,,,,,,,
296926,2022-11-29_14h03.38.389,vts_reward_expectancy_bt,2022.2.4,MacIntel,60.0024001,Chrome,1440,900,,,l,0.7007,10,374,1,2,7,31,2,1,1,0,0,0,0,0,0,1,triangle,star,,,,,,,,,,,,,,,,,,,,,,,,,,,,,,,,,,,,,,,,,,,,,,,,,,,,,,
296926,2022-11-29_14h03.38.389,vts_reward_expectancy_bt,2022.2.4,MacIntel,60.0024001,Chrome,1440,900,,,a,1.0012,10,384,1,2,8,32,6,1,0,0,1,0,1,0,0,0,hexagon,triangle,,,,,,,,,,,,,,,,,,,,,,,,,,,,,,,,,,,,,,,,,,,,,,,,,,,,,,
296926,2022-11-29_14h03.38.389,vts_reward_expectancy_bt,2022.2.4,MacIntel,60.0024001,Chrome,1440,900,,,a,1.7814,1,385,1,2,9,33,3,1,0,1,0,0,1,0,0,0,circle,triangle,,,,,,,,,,,,,,,,,,,,,,,,,,,,,,,,,,,,,,,,,,,,,,,,,,,,,,
296926,2022-11-29_14h03.38.389,vts_reward_expectancy_bt,2022.2.4,MacIntel,60.0024001,Chrome,1440,900,,,a,0.6323,10,395,1,2,10,34,7,1,0,0,1,0,0,1,0,0,hexagon,circle,,,,,,,,,,,,,,,,,,,,,,,,,,,,,,,,,,,,,,,,,,,,,,,,,,,,,,
296926,2022-11-29_14h03.38.389,vts_reward_expectancy_bt,2022.2.4,MacIntel,60.0024001,Chrome,1440,900,,,l,1.0312,10,405,1,2,11,35,1,1,1,0,0,0,0,0,1,0,triangle,hexagon,,,,,,,,,,,,,,,,,,,,,,,,,,,,,,,,,,,,,,,,,,,,,,,,,,,,,,
296926,2022-11-29_14h03.38.389,vts_reward_expectancy_bt,2022.2.4,MacIntel,60.0024001,Chrome,1440,900,,,a,1.4896,10,415,2,0,0,0,1,1,1,0,0,0,0,0,1,0,triangle,hexagon,,,,,,,,,,,,,,,,,,,,,,,,,,,,,,,,,,,,,,,,,,,,,,,,,,,,,,
296926,2022-11-29_14h03.38.389,vts_reward_expectancy_bt,2022.2.4,MacIntel,60.0024001,Chrome,1440,900,,,l,0.8825,1,416,2,0,1,1,8,1,0,0,1,0,0,0,0,1,hexagon,star,,,,,,,,,,,,,,,,,,,,,,,,,,,,,,,,,,,,,,,,,,,,,,,,,,,,,,
296926,2022-11-29_14h03.38.389,vts_reward_expectancy_bt,2022.2.4,MacIntel,60.0024001,Chrome,1440,900,,,a,1.0873,1,417,2,0,2,2,4,1,0,1,0,0,0,0,1,0,circle,hexagon,,,,,,,,,,,,,,,,,,,,,,,,,,,,,,,,,,,,,,,,,,,,,,,,,,,,,,
296926,2022-11-29_14h03.38.389,vts_reward_expectancy_bt,2022.2.4,MacIntel,60.0024001,Chrome,1440,900,,,a,1.0809,10,427,2,0,3,3,11,1,0,0,0,1,0,0,1,0,star,hexagon,,,,,,,,,,,,,,,,,,,,,,,,,,,,,,,,,,,,,,,,,,,,,,,,,,,,,,
296926,2022-11-29_14h03.38.389,vts_reward_expectancy_bt,2022.2.4,MacIntel,60.0024001,Chrome,1440,900,,,l,0.8295,1,428,2,0,4,4,7,1,0,0,1,0,0,1,0,0,hexagon,circle,,,,,,,,,,,,,,,,,,,,,,,,,,,,,,,,,,,,,,,,,,,,,,,,,,,,,,
296926,2022-11-29_14h03.38.389,vts_reward_expectancy_bt,2022.2.4,MacIntel,60.0024001,Chrome,1440,900,,,a,0.5819,1,429,2,0,5,5,10,1,0,0,0,1,0,1,0,0,star ,circle,,,,,,,,,,,,,,,,,,,,,,,,,,,,,,,,,,,,,,,,,,,,,,,,,,,,,,
296926,2022-11-29_14h03.38.389,vts_reward_expectancy_bt,2022.2.4,MacIntel,60.0024001,Chrome,1440,900,,,l,0.5643,10,439,2,0,6,6,0,1,1,0,0,0,0,1,0,0,triangle,circle,,,,,,,,,,,,,,,,,,,,,,,,,,,,,,,,,,,,,,,,,,,,,,,,,,,,,,
296926,2022-11-29_14h03.38.389,vts_reward_expectancy_bt,2022.2.4,MacIntel,60.0024001,Chrome,1440,900,,,a,1.1975,10,449,2,0,7,7,2,1,1,0,0,0,0,0,0,1,triangle,star,,,,,,,,,,,,,,,,,,,,,,,,,,,,,,,,,,,,,,,,,,,,,,,,,,,,,,
296926,2022-11-29_14h03.38.389,vts_reward_expectancy_bt,2022.2.4,MacIntel,60.0024001,Chrome,1440,900,,,l,0.4987,1,450,2,0,8,8,6,1,0,0,1,0,1,0,0,0,hexagon,triangle,,,,,,,,,,,,,,,,,,,,,,,,,,,,,,,,,,,,,,,,,,,,,,,,,,,,,,
296926,2022-11-29_14h03.38.389,vts_reward_expectancy_bt,2022.2.4,MacIntel,60.0024001,Chrome,1440,900,,,a,1.0464,10,460,2,0,9,9,3,1,0,1,0,0,1,0,0,0,circle,triangle,,,,,,,,,,,,,,,,,,,,,,,,,,,,,,,,,,,,,,,,,,,,,,,,,,,,,,
296926,2022-11-29_14h03.38.389,vts_reward_expectancy_bt,2022.2.4,MacIntel,60.0024001,Chrome,1440,900,,,l,1.8809,10,470,2,0,10,10,9,1,0,0,0,1,1,0,0,0,star,triangle,,,,,,,,,,,,,,,,,,,,,,,,,,,,,,,,,,,,,,,,,,,,,,,,,,,,,,
296926,2022-11-29_14h03.38.389,vts_reward_expectancy_bt,2022.2.4,MacIntel,60.0024001,Chrome,1440,900,,,a,1.0145,10,480,2,0,11,11,5,1,0,1,0,0,0,0,0,1,circle,star,,,,,,,,,,,,,,,,,,,,,,,,,,,,,,,,,,,,,,,,,,,,,,,,,,,,,,
296926,2022-11-29_14h03.38.389,vts_reward_expectancy_bt,2022.2.4,MacIntel,60.0024001,Chrome,1440,900,,,a,3.3303,1,481,2,1,0,12,1,1,1,0,0,0,0,0,1,0,triangle,hexagon,,,,,,,,,,,,,,,,,,,,,,,,,,,,,,,,,,,,,,,,,,,,,,,,,,,,,,
296926,2022-11-29_14h03.38.389,vts_reward_expectancy_bt,2022.2.4,MacIntel,60.0024001,Chrome,1440,900,,,l,0.9819,10,491,2,1,1,13,0,1,1,0,0,0,0,1,0,0,triangle,circle,,,,,,,,,,,,,,,,,,,,,,,,,,,,,,,,,,,,,,,,,,,,,,,,,,,,,,
296926,2022-11-29_14h03.38.389,vts_reward_expectancy_bt,2022.2.4,MacIntel,60.0024001,Chrome,1440,900,,,l,0.8311,10,501,2,1,2,14,4,1,0,1,0,0,0,0,1,0,circle,hexagon,,,,,,,,,,,,,,,,,,,,,,,,,,,,,,,,,,,,,,,,,,,,,,,,,,,,,,
296926,2022-11-29_14h03.38.389,vts_reward_expectancy_bt,2022.2.4,MacIntel,60.0024001,Chrome,1440,900,,,a,0.5467,10,511,2,1,3,15,11,1,0,0,0,1,0,0,1,0,star,hexagon,,,,,,,,,,,,,,,,,,,,,,,,,,,,,,,,,,,,,,,,,,,,,,,,,,,,,,
296926,2022-11-29_14h03.38.389,vts_reward_expectancy_bt,2022.2.4,MacIntel,60.0024001,Chrome,1440,900,,,l,1.199,1,512,2,1,4,16,3,1,0,1,0,0,1,0,0,0,circle,triangle,,,,,,,,,,,,,,,,,,,,,,,,,,,,,,,,,,,,,,,,,,,,,,,,,,,,,,
296926,2022-11-29_14h03.38.389,vts_reward_expectancy_bt,2022.2.4,MacIntel,60.0024001,Chrome,1440,900,,,a,0.5823,1,513,2,1,5,17,10,1,0,0,0,1,0,1,0,0,star ,circle,,,,,,,,,,,,,,,,,,,,,,,,,,,,,,,,,,,,,,,,,,,,,,,,,,,,,,
296926,2022-11-29_14h03.38.389,vts_reward_expectancy_bt,2022.2.4,MacIntel,60.0024001,Chrome,1440,900,,,a,2.2173,10,523,2,1,6,18,6,1,0,0,1,0,1,0,0,0,hexagon,triangle,,,,,,,,,,,,,,,,,,,,,,,,,,,,,,,,,,,,,,,,,,,,,,,,,,,,,,
296926,2022-11-29_14h03.38.389,vts_reward_expectancy_bt,2022.2.4,MacIntel,60.0024001,Chrome,1440,900,,,l,0.6146,10,533,2,1,7,19,2,1,1,0,0,0,0,0,0,1,triangle,star,,,,,,,,,,,,,,,,,,,,,,,,,,,,,,,,,,,,,,,,,,,,,,,,,,,,,,
296926,2022-11-29_14h03.38.389,vts_reward_expectancy_bt,2022.2.4,MacIntel,60.0024001,Chrome,1440,900,,,a,0.6681,1,534,2,1,8,20,8,1,0,0,1,0,0,0,0,1,hexagon,star,,,,,,,,,,,,,,,,,,,,,,,,,,,,,,,,,,,,,,,,,,,,,,,,,,,,,,
296926,2022-11-29_14h03.38.389,vts_reward_expectancy_bt,2022.2.4,MacIntel,60.0024001,Chrome,1440,900,,,l,0.7699,1,535,2,1,9,21,5,1,0,1,0,0,0,0,0,1,circle,star,,,,,,,,,,,,,,,,,,,,,,,,,,,,,,,,,,,,,,,,,,,,,,,,,,,,,,
296926,2022-11-29_14h03.38.389,vts_reward_expectancy_bt,2022.2.4,MacIntel,60.0024001,Chrome,1440,900,,,l,0.6147,10,545,2,1,10,22,7,1,0,0,1,0,0,1,0,0,hexagon,circle,,,,,,,,,,,,,,,,,,,,,,,,,,,,,,,,,,,,,,,,,,,,,,,,,,,,,,
296926,2022-11-29_14h03.38.389,vts_reward_expectancy_bt,2022.2.4,MacIntel,60.0024001,Chrome,1440,900,,,l,1.2993,1,546,2,1,11,23,9,1,0,0,0,1,1,0,0,0,star,triangle,,,,,,,,,,,,,,,,,,,,,,,,,,,,,,,,,,,,,,,,,,,,,,,,,,,,,,
296926,2022-11-29_14h03.38.389,vts_reward_expectancy_bt,2022.2.4,MacIntel,60.0024001,Chrome,1440,900,,,a,0.5867,1,547,2,2,0,24,10,1,0,0,0,1,0,1,0,0,star ,circle,,,,,,,,,,,,,,,,,,,,,,,,,,,,,,,,,,,,,,,,,,,,,,,,,,,,,,
296926,2022-11-29_14h03.38.389,vts_reward_expectancy_bt,2022.2.4,MacIntel,60.0024001,Chrome,1440,900,,,l,0.5498,1,548,2,2,1,25,11,1,0,0,0,1,0,0,1,0,star,hexagon,,,,,,,,,,,,,,,,,,,,,,,,,,,,,,,,,,,,,,,,,,,,,,,,,,,,,,
296926,2022-11-29_14h03.38.389,vts_reward_expectancy_bt,2022.2.4,MacIntel,60.0024001,Chrome,1440,900,,,l,0.3826,10,558,2,2,2,26,8,1,0,0,1,0,0,0,0,1,hexagon,star,,,,,,,,,,,,,,,,,,,,,,,,,,,,,,,,,,,,,,,,,,,,,,,,,,,,,,
296926,2022-11-29_14h03.38.389,vts_reward_expectancy_bt,2022.2.4,MacIntel,60.0024001,Chrome,1440,900,,,a,0.8173,1,559,2,2,3,27,1,1,1,0,0,0,0,0,1,0,triangle,hexagon,,,,,,,,,,,,,,,,,,,,,,,,,,,,,,,,,,,,,,,,,,,,,,,,,,,,,,
296926,2022-11-29_14h03.38.389,vts_reward_expectancy_bt,2022.2.4,MacIntel,60.0024001,Chrome,1440,900,,,l,0.8654,1,560,2,2,4,28,7,1,0,0,1,0,0,1,0,0,hexagon,circle,,,,,,,,,,,,,,,,,,,,,,,,,,,,,,,,,,,,,,,,,,,,,,,,,,,,,,
296926,2022-11-29_14h03.38.389,vts_reward_expectancy_bt,2022.2.4,MacIntel,60.0024001,Chrome,1440,900,,,l,0.7474,1,561,2,2,5,29,2,1,1,0,0,0,0,0,0,1,triangle,star,,,,,,,,,,,,,,,,,,,,,,,,,,,,,,,,,,,,,,,,,,,,,,,,,,,,,,
296926,2022-11-29_14h03.38.389,vts_reward_expectancy_bt,2022.2.4,MacIntel,60.0024001,Chrome,1440,900,,,l,0.5139,10,571,2,2,6,30,3,1,0,1,0,0,1,0,0,0,circle,triangle,,,,,,,,,,,,,,,,,,,,,,,,,,,,,,,,,,,,,,,,,,,,,,,,,,,,,,
296926,2022-11-29_14h03.38.389,vts_reward_expectancy_bt,2022.2.4,MacIntel,60.0024001,Chrome,1440,900,,,a,1.298,10,581,2,2,7,31,4,1,0,1,0,0,0,0,1,0,circle,hexagon,,,,,,,,,,,,,,,,,,,,,,,,,,,,,,,,,,,,,,,,,,,,,,,,,,,,,,
296926,2022-11-29_14h03.38.389,vts_reward_expectancy_bt,2022.2.4,MacIntel,60.0024001,Chrome,1440,900,,,l,1.1309,1,582,2,2,8,32,6,1,0,0,1,0,1,0,0,0,hexagon,triangle,,,,,,,,,,,,,,,,,,,,,,,,,,,,,,,,,,,,,,,,,,,,,,,,,,,,,,
296926,2022-11-29_14h03.38.389,vts_reward_expectancy_bt,2022.2.4,MacIntel,60.0024001,Chrome,1440,900,,,a,1.1644,1,583,2,2,9,33,0,1,1,0,0,0,0,1,0,0,triangle,circle,,,,,,,,,,,,,,,,,,,,,,,,,,,,,,,,,,,,,,,,,,,,,,,,,,,,,,
296926,2022-11-29_14h03.38.389,vts_reward_expectancy_bt,2022.2.4,MacIntel,60.0024001,Chrome,1440,900,,,a,1.1159,10,593,2,2,10,34,9,1,0,0,0,1,1,0,0,0,star,triangle,,,,,,,,,,,,,,,,,,,,,,,,,,,,,,,,,,,,,,,,,,,,,,,,,,,,,,
296926,2022-11-29_14h03.38.389,vts_reward_expectancy_bt,2022.2.4,MacIntel,60.0024001,Chrome,1440,900,,,l,1.0148,1,594,2,2,11,35,5,1,0,1,0,0,0,0,0,1,circle,star,,,,,,,,,,,,,,,,,,,,,,,,,,,,,,,,,,,,,,,,,,,,,,,,,,,,,,
296926,2022-11-29_14h03.38.389,vts_reward_expectancy_bt,2022.2.4,MacIntel,60.0024001,Chrome,1440,900,,,,,,,,,,,,,,,,,,,,,,,139,D,hexagon,1,0,d,2.0289,0,0,0,0,0,1,,,,,,,,,,,,,,,,,,,,,,,,,,,,,,,,,,,,,,,,,
296926,2022-11-29_14h03.38.389,vts_reward_expectancy_bt,2022.2.4,MacIntel,60.0024001,Chrome,1440,900,,,,,,,,,,,,,,,,,,,,,,,132,B,triangle,1,0,d,2.9064,0,1,0,1,0,1,,,,,,,,,,,,,,,,,,,,,,,,,,,,,,,,,,,,,,,,,
296926,2022-11-29_14h03.38.389,vts_reward_expectancy_bt,2022.2.4,MacIntel,60.0024001,Chrome,1440,900,,,,,,,,,,,,,,,,,,,,,,,146,U,circle,1,0,d,0.6427,0,2,0,2,0,1,,,,,,,,,,,,,,,,,,,,,,,,,,,,,,,,,,,,,,,,,
296926,2022-11-29_14h03.38.389,vts_reward_expectancy_bt,2022.2.4,MacIntel,60.0024001,Chrome,1440,900,,,,,,,,,,,,,,,,,,,,,,,125,F,star,1,0,d,0.4575,0,3,0,3,0,1,,,,,,,,,,,,,,,,,,,,,,,,,,,,,,,,,,,,,,,,,
296926,2022-11-29_14h03.38.389,vts_reward_expectancy_bt,2022.2.4,MacIntel,60.0024001,Chrome,1440,900,,,,,,,,,,,,,,,,,,,,,,,167,H,hexagon,1,0,f,0.8457,0,4,0,4,0,1,,,,,,,,,,,,,,,,,,,,,,,,,,,,,,,,,,,,,,,,,
296926,2022-11-29_14h03.38.389,vts_reward_expectancy_bt,2022.2.4,MacIntel,60.0024001,Chrome,1440,900,,,,,,,,,,,,,,,,,,,,,,,160,Y,triangle,1,0,f,0.9532,0,5,0,5,0,1,,,,,,,,,,,,,,,,,,,,,,,,,,,,,,,,,,,,,,,,,
296926,2022-11-29_14h03.38.389,vts_reward_expectancy_bt,2022.2.4,MacIntel,60.0024001,Chrome,1440,900,,,,,,,,,,,,,,,,,,,,,,,181,S,circle,1,0,f,0.6944,0,6,0,6,0,1,,,,,,,,,,,,,,,,,,,,,,,,,,,,,,,,,,,,,,,,,
296926,2022-11-29_14h03.38.389,vts_reward_expectancy_bt,2022.2.4,MacIntel,60.0024001,Chrome,1440,900,,,,,,,,,,,,,,,,,,,,,,,174,W,star,1,0,f,0.4763,0,7,0,7,0,1,,,,,,,,,,,,,,,,,,,,,,,,,,,,,,,,,,,,,,,,,
296926,2022-11-29_14h03.38.389,vts_reward_expectancy_bt,2022.2.4,MacIntel,60.0024001,Chrome,1440,900,,,,,,,,,,,,,,,,,,,,,,,139,D,hexagon,1,0,d,0.8963,0,8,0,8,0,1,,,,,,,,,,,,,,,,,,,,,,,,,,,,,,,,,,,,,,,,,
296926,2022-11-29_14h03.38.389,vts_reward_expectancy_bt,2022.2.4,MacIntel,60.0024001,Chrome,1440,900,,,,,,,,,,,,,,,,,,,,,,,132,B,triangle,1,0,d,0.7913,0,9,0,9,0,1,,,,,,,,,,,,,,,,,,,,,,,,,,,,,,,,,,,,,,,,,
296926,2022-11-29_14h03.38.389,vts_reward_expectancy_bt,2022.2.4,MacIntel,60.0024001,Chrome,1440,900,,,,,,,,,,,,,,,,,,,,,,,160,D,triangle,1,0,,,1,,,,,,j,1.0138,0,0,0,0,1,,,,,,,,,,,,,,,,,,,,,,,,,,,,,,,,,,
296926,2022-11-29_14h03.38.389,vts_reward_expectancy_bt,2022.2.4,MacIntel,60.0024001,Chrome,1440,900,,,,,,,,,,,,,,,,,,,,,,,167,H,circle,1,0,,,1,,,,,,j,0.7932,1,0,1,0,1,,,,,,,,,,,,,,,,,,,,,,,,,,,,,,,,,,
296926,2022-11-29_14h03.38.389,vts_reward_expectancy_bt,2022.2.4,MacIntel,60.0024001,Chrome,1440,900,,,,,,,,,,,,,,,,,,,,,,,125,Y,star,1,0,,,1,,,,,,k,0.4663,2,0,2,0,1,,,,,,,,,,,,,,,,,,,,,,,,,,,,,,,,,,
296926,2022-11-29_14h03.38.389,vts_reward_expectancy_bt,2022.2.4,MacIntel,60.0024001,Chrome,1440,900,,,,,,,,,,,,,,,,,,,,,,,181,U,hexagon,1,0,,,1,,,,,,k,1.3112,3,0,3,0,1,,,,,,,,,,,,,,,,,,,,,,,,,,,,,,,,,,
296926,2022-11-29_14h03.38.389,vts_reward_expectancy_bt,2022.2.4,MacIntel,60.0024001,Chrome,1440,900,,,,,,,,,,,,,,,,,,,,,,,139,B,triangle,1,0,,,1,,,,,,j,0.7407,4,0,4,0,1,,,,,,,,,,,,,,,,,,,,,,,,,,,,,,,,,,
296926,2022-11-29_14h03.38.389,vts_reward_expectancy_bt,2022.2.4,MacIntel,60.0024001,Chrome,1440,900,,,,,,,,,,,,,,,,,,,,,,,174,W,circle,1,0,,,1,,,,,,k,0.8133,5,0,5,0,1,,,,,,,,,,,,,,,,,,,,,,,,,,,,,,,,,,
296926,2022-11-29_14h03.38.389,vts_reward_expectancy_bt,2022.2.4,MacIntel,60.0024001,Chrome,1440,900,,,,,,,,,,,,,,,,,,,,,,,132,S,star,1,0,,,1,,,,,,k,0.8109,6,0,6,0,1,,,,,,,,,,,,,,,,,,,,,,,,,,,,,,,,,,
296926,2022-11-29_14h03.38.389,vts_reward_expectancy_bt,2022.2.4,MacIntel,60.0024001,Chrome,1440,900,,,,,,,,,,,,,,,,,,,,,,,146,F,hexagon,1,0,,,1,,,,,,j,0.7778,7,0,7,0,1,,,,,,,,,,,,,,,,,,,,,,,,,,,,,,,,,,
296926,2022-11-29_14h03.38.389,vts_reward_expectancy_bt,2022.2.4,MacIntel,60.0024001,Chrome,1440,900,,,,,,,,,,,,,,,,,,,,,,,160,D,star,1,0,,,1,,,,,,j,0.8631,8,0,8,0,1,,,,,,,,,,,,,,,,,,,,,,,,,,,,,,,,,,
296926,2022-11-29_14h03.38.389,vts_reward_expectancy_bt,2022.2.4,MacIntel,60.0024001,Chrome,1440,900,,,,,,,,,,,,,,,,,,,,,,,167,H,hexagon,1,0,,,1,,,,,,j,0.6918,9,0,9,0,1,,,,,,,,,,,,,,,,,,,,,,,,,,,,,,,,,,
296926,2022-11-29_14h03.38.389,vts_reward_expectancy_bt,2022.2.4,MacIntel,60.0024001,Chrome,1440,900,,,,,0,594,,,,,,,,,,,,,,,,,146,W,triangle,1,0,,,2,,,,,,,,,,,,,-1,number,NA,d,1.7718,vtsPrac,0,0,0,0,1,,,,,,,,,,,,,,,,,,,,,,,
296926,2022-11-29_14h03.38.389,vts_reward_expectancy_bt,2022.2.4,MacIntel,60.0024001,Chrome,1440,900,,,,,0,594,,,,,,,,,,,,,,,,,139,B,circle,1,0,,,2,,,,,,,,,,,,,switch,letter,lettSwt,j,0.811,vtsPrac,1,0,1,0,1,,,,,,,,,,,,,,,,,,,,,,,
296926,2022-11-29_14h03.38.389,vts_reward_expectancy_bt,2022.2.4,MacIntel,60.0024001,Chrome,1440,900,,,,,0,594,,,,,,,,,,,,,,,,,167,S,triangle,1,0,,,2,,,,,,,,,,,,,switch,number,numSwt,f,1.8425,vtsPrac,2,0,2,0,1,,,,,,,,,,,,,,,,,,,,,,,
296926,2022-11-29_14h03.38.389,vts_reward_expectancy_bt,2022.2.4,MacIntel,60.0024001,Chrome,1440,900,,,,,0,594,,,,,,,,,,,,,,,,,132,D,circle,1,0,,,2,,,,,,,,,,,,,switch,letter,lettSwt,j,0.7593,vtsPrac,3,0,3,0,1,,,,,,,,,,,,,,,,,,,,,,,
296926,2022-11-29_14h03.38.389,vts_reward_expectancy_bt,2022.2.4,MacIntel,60.0024001,Chrome,1440,900,,,,,0,594,,,,,,,,,,,,,,,,,146,W,hexagon,1,0,,,2,,,,,,,,,,,,,switch,number,numSwt,d,0.8902,vtsPrac,4,0,4,0,1,,,,,,,,,,,,,,,,,,,,,,,
296926,2022-11-29_14h03.38.389,vts_reward_expectancy_bt,2022.2.4,MacIntel,60.0024001,Chrome,1440,900,,,,,0,594,,,,,,,,,,,,,,,,,139,B,star,1,0,,,2,,,,,,,,,,,,,switch,letter,lettSwt,j,1.0431,vtsPrac,5,0,5,0,1,,,,,,,,,,,,,,,,,,,,,,,
296926,2022-11-29_14h03.38.389,vts_reward_expectancy_bt,2022.2.4,MacIntel,60.0024001,Chrome,1440,900,,,,,0,594,,,,,,,,,,,,,,,,,167,S,star,1,0,,,2,,,,,,,,,,,,,switch,number,numSwt,f,1.3472,vtsPrac,6,0,6,0,1,,,,,,,,,,,,,,,,,,,,,,,
296926,2022-11-29_14h03.38.389,vts_reward_expectancy_bt,2022.2.4,MacIntel,60.0024001,Chrome,1440,900,,,,,0,594,,,,,,,,,,,,,,,,,132,D,circle,1,0,,,2,,,,,,,,,,,,,switch,letter,lettSwt,j,0.7604,vtsPrac,7,0,7,0,1,,,,,,,,,,,,,,,,,,,,,,,
296926,2022-11-29_14h03.38.389,vts_reward_expectancy_bt,2022.2.4,MacIntel,60.0024001,Chrome,1440,900,,,,,0,594,,,,,,,,,,,,,,,,,125,D,circle,1,0,,,2,,,,,,,,,,,,,switch,number,numSwt,d,1.2419,vtsPrac,8,0,8,0,1,,,,,,,,,,,,,,,,,,,,,,,
296926,2022-11-29_14h03.38.389,vts_reward_expectancy_bt,2022.2.4,MacIntel,60.0024001,Chrome,1440,900,,,,,0,594,,,,,,,,,,,,,,,,,132,U,star,1,0,,,2,,,,,,,,,,,,,switch,letter,lettSwt,k,1.3279,vtsPrac,9,0,9,0,1,,,,,,,,,,,,,,,,,,,,,,,
296926,2022-11-29_14h03.38.389,vts_reward_expectancy_bt,2022.2.4,MacIntel,60.0024001,Chrome,1440,900,,,,,0,594,,,,,,,,,,,,,,,,,181,W,hexagon,1,0,,,2,,,,,,,,,,,,,switch,number,numSwt,f,0.6257,vtsPrac,10,0,10,0,1,,,,,,,,,,,,,,,,,,,,,,,
296926,2022-11-29_14h03.38.389,vts_reward_expectancy_bt,2022.2.4,MacIntel,60.0024001,Chrome,1440,900,,,,,0,594,,,,,,,,,,,,,,,,,167,Y,star,-1,0,,,2,,,,,,,,,,,,,switch,no_choice,NA,,,vtsPrac,11,0,11,0,1,,,,,,,,,,,,,,,,,,,,,,,
296926,2022-11-29_14h03.38.389,vts_reward_expectancy_bt,2022.2.4,MacIntel,60.0024001,Chrome,1440,900,,,,,0,594,,,,,,,,,,,,,,,,,139,F,circle,1,0,,,2,,,,,,,,,,,,,switch,number,numSwt,d,1.9606,vtsPrac,12,0,12,0,1,,,,,,,,,,,,,,,,,,,,,,,
296926,2022-11-29_14h03.38.389,vts_reward_expectancy_bt,2022.2.4,MacIntel,60.0024001,Chrome,1440,900,,,,,0,594,,,,,,,,,,,,,,,,,167,H,hexagon,0,0,,,2,,,,,,,,,,,,,switch,letter,NA,k,1.455,vtsPrac,13,0,13,0,1,,,,,,,,,,,,,,,,,,,,,,,
296926,2022-11-29_14h03.38.389,vts_reward_expectancy_bt,2022.2.4,MacIntel,60.0024001,Chrome,1440,900,,,,,0,594,,,,,,,,,,,,,,,,,174,S,star,1,1,,,2,,,,,,,,,,,,,switch,number,numSwt,f,1.561,vtsPrac,14,0,14,0,1,,,,,,,,,,,,,,,,,,,,,,,
296926,2022-11-29_14h03.38.389,vts_reward_expectancy_bt,2022.2.4,MacIntel,60.0024001,Chrome,1440,900,,,,,0,594,,,,,,,,,,,,,,,,,160,B,circle,0,0,,,2,,,,,,,,,,,,,repeat,number,NA,d,1.4077,vtsPrac,15,0,15,0,1,,,,,,,,,,,,,,,,,,,,,,,
296926,2022-11-29_14h03.38.389,vts_reward_expectancy_bt,2022.2.4,MacIntel,60.0024001,Chrome,1440,900,,,,,0,594,,,,,,,,,,,,,,,,,139,S,star,1,1,,,2,,,,,,,,,,,,,repeat,number,numRpt,d,0.8604,vtsPrac,16,0,16,0,1,,,,,,,,,,,,,,,,,,,,,,,
296926,2022-11-29_14h03.38.389,vts_reward_expectancy_bt,2022.2.4,MacIntel,60.0024001,Chrome,1440,900,,,,,0,594,,,,,,,,,,,,,,,,,160,W,triangle,1,0,,,2,,,,,,,,,,,,,switch,letter,lettSwt,k,2.2926,vtsPrac,17,0,17,0,1,,,,,,,,,,,,,,,,,,,,,,,
296926,2022-11-29_14h03.38.389,vts_reward_expectancy_bt,2022.2.4,MacIntel,60.0024001,Chrome,1440,900,,,,,0,594,,,,,,,,,,,,,,,,,167,F,star,1,0,,,2,,,,,,,,,,,,,switch,number,numSwt,f,1.4903,vtsPrac,18,0,18,0,1,,,,,,,,,,,,,,,,,,,,,,,
296926,2022-11-29_14h03.38.389,vts_reward_expectancy_bt,2022.2.4,MacIntel,60.0024001,Chrome,1440,900,,,,,0,594,,,,,,,,,,,,,,,,,181,U,hexagon,1,0,,,2,,,,,,,,,,,,,switch,letter,lettSwt,k,0.8463,vtsPrac,19,0,19,0,1,,,,,,,,,,,,,,,,,,,,,,,
296926,2022-11-29_14h03.38.389,vts_reward_expectancy_bt,2022.2.4,MacIntel,60.0024001,Chrome,1440,900,,,,,0,594,,,,,,,,,,,,,,,,,160,U,hexagon,1,0,,,2,,,,,,,,,,,,,switch,number,numSwt,f,2.0163,vtsPrac,20,0,20,0,1,,,,,,,,,,,,,,,,,,,,,,,
296926,2022-11-29_14h03.38.389,vts_reward_expectancy_bt,2022.2.4,MacIntel,60.0024001,Chrome,1440,900,,,,,0,594,,,,,,,,,,,,,,,,,139,D,circle,1,0,,,2,,,,,,,,,,,,,repeat,number,numRpt,d,1.6653,vtsPrac,21,0,21,0,1,,,,,,,,,,,,,,,,,,,,,,,
296926,2022-11-29_14h03.38.389,vts_reward_expectancy_bt,2022.2.4,MacIntel,60.0024001,Chrome,1440,900,,,,,0,594,,,,,,,,,,,,,,,,,146,Y,triangle,1,0,,,2,,,,,,,,,,,,,switch,letter,lettSwt,k,0.7597,vtsPrac,22,0,22,0,1,,,,,,,,,,,,,,,,,,,,,,,
296926,2022-11-29_14h03.38.389,vts_reward_expectancy_bt,2022.2.4,MacIntel,60.0024001,Chrome,1440,900,,,,,0,594,,,,,,,,,,,,,,,,,174,H,circle,1,0,,,2,,,,,,,,,,,,,repeat,letter,lettRpt,j,1.0762,vtsPrac,23,0,23,0,1,,,,,,,,,,,,,,,,,,,,,,,
296926,2022-11-29_14h03.38.389,vts_reward_expectancy_bt,2022.2.4,MacIntel,60.0024001,Chrome,1440,900,,,,,0,594,,,,,,,,,,,,,,,,,139,B,hexagon,1,0,,,2,,,,,,,,,,,,,switch,number,numSwt,d,0.7311,vtsPrac,24,0,24,0,1,,,,,,,,,,,,,,,,,,,,,,,
296926,2022-11-29_14h03.38.389,vts_reward_expectancy_bt,2022.2.4,MacIntel,60.0024001,Chrome,1440,900,,,,,0,594,,,,,,,,,,,,,,,,,146,D,triangle,1,0,,,2,,,,,,,,,,,,,repeat,number,numRpt,d,0.9122,vtsPrac,25,0,25,0,1,,,,,,,,,,,,,,,,,,,,,,,
296926,2022-11-29_14h03.38.389,vts_reward_expectancy_bt,2022.2.4,MacIntel,60.0024001,Chrome,1440,900,,,,,0,594,,,,,,,,,,,,,,,,,160,H,star,1,0,,,2,,,,,,,,,,,,,repeat,number,numRpt,f,1.2219,vtsPrac,26,0,26,0,1,,,,,,,,,,,,,,,,,,,,,,,
296926,2022-11-29_14h03.38.389,vts_reward_expectancy_bt,2022.2.4,MacIntel,60.0024001,Chrome,1440,900,,,,,0,594,,,,,,,,,,,,,,,,,132,S,circle,1,0,,,2,,,,,,,,,,,,,switch,letter,lettSwt,k,0.8199,vtsPrac,27,0,27,0,1,,,,,,,,,,,,,,,,,,,,,,,
296926,2022-11-29_14h03.38.389,vts_reward_expectancy_bt,2022.2.4,MacIntel,60.0024001,Chrome,1440,900,,,,,0,594,,,,,,,,,,,,,,,,,125,B,hexagon,1,0,,,2,,,,,,,,,,,,,repeat,letter,lettRpt,j,0.7216,vtsPrac,28,0,28,0,1,,,,,,,,,,,,,,,,,,,,,,,
296926,2022-11-29_14h03.38.389,vts_reward_expectancy_bt,2022.2.4,MacIntel,60.0024001,Chrome,1440,900,,,,,0,594,,,,,,,,,,,,,,,,,160,S,circle,1,0,,,2,,,,,,,,,,,,,repeat,letter,lettRpt,k,1.2431,vtsPrac,29,0,29,0,1,,,,,,,,,,,,,,,,,,,,,,,
296926,2022-11-29_14h03.38.389,vts_reward_expectancy_bt,2022.2.4,MacIntel,60.0024001,Chrome,1440,900,,,,,0,594,,,,,,,,,,,,,,,,,167,F,hexagon,0,0,,,2,,,,,,,,,,,,,switch,number,NA,d,1.4937,vtsPrac,30,0,30,0,1,,,,,,,,,,,,,,,,,,,,,,,
296926,2022-11-29_14h03.38.389,vts_reward_expectancy_bt,2022.2.4,MacIntel,60.0024001,Chrome,1440,900,,,,,0,594,,,,,,,,,,,,,,,,,146,H,circle,1,1,,,2,,,,,,,,,,,,,repeat,number,numRpt,d,0.921,vtsPrac,31,0,31,0,1,,,,,,,,,,,,,,,,,,,,,,,
296926,2022-11-29_14h03.38.389,vts_reward_expectancy_bt,2022.2.4,MacIntel,60.0024001,Chrome,1440,900,,,,,,,,,,,,,,,,,,,,,,,,,,,,,,,,,,,,,,,,,,,,,,,,,,,,,,,,,,,,,,,,,,,,,,,,,,,,
296926,2022-11-29_14h03.38.389,vts_reward_expectancy_bt,2022.2.4,MacIntel,60.0024001,Chrome,1440,900,,,,,,,,,,,,,,,,,,,,,,,,,,,,,,,,,,,,,,,,,,,,,,,,,,,,,,,,,,,,,,,,,,,,,,,,,,,,
296926,2022-11-29_14h03.38.389,vts_reward_expectancy_bt,2022.2.4,MacIntel,60.0024001,Chrome,1440,900,,,,,0,594,,,,,,,,,,,,,,,,,174,S,circle,1,0,,,,,,,,,,,,,,,,repeat,number,numRpt,f,1.1121,noRew,,,,,,0,0,0,0,0,1,,,,,,,,,,,,,,,,,
296926,2022-11-29_14h03.38.389,vts_reward_expectancy_bt,2022.2.4,MacIntel,60.0024001,Chrome,1440,900,,,,,0,594,,,,,,,,,,,,,,,,,160,W,star,1,0,,,,,,,,,,,,,,,,switch,letter,lettSwt,k,1.9136,noRew,,,,,,0,1,0,1,0,1,,,,,,,,,,,,,,,,,
296926,2022-11-29_14h03.38.389,vts_reward_expectancy_bt,2022.2.4,MacIntel,60.0024001,Chrome,1440,900,,,,,0,594,,,,,,,,,,,,,,,,,181,F,circle,1,0,,,,,,,,,,,,,,,,switch,number,numSwt,f,1.4093,noRew,,,,,,0,2,0,2,0,1,,,,,,,,,,,,,,,,,
296926,2022-11-29_14h03.38.389,vts_reward_expectancy_bt,2022.2.4,MacIntel,60.0024001,Chrome,1440,900,,,,,0,594,,,,,,,,,,,,,,,,,125,B,star,1,0,,,,,,,,,,,,,,,,switch,letter,lettSwt,j,0.8979,noRew,,,,,,0,3,0,3,0,1,,,,,,,,,,,,,,,,,
296926,2022-11-29_14h03.38.389,vts_reward_expectancy_bt,2022.2.4,MacIntel,60.0024001,Chrome,1440,900,,,,,0,594,,,,,,,,,,,,,,,,,174,S,triangle,1,0,,,,,,,,,,,,,,,,switch,number,numSwt,f,0.9085,noRew,,,,,,0,4,0,4,0,1,,,,,,,,,,,,,,,,,
296926,2022-11-29_14h03.38.389,vts_reward_expectancy_bt,2022.2.4,MacIntel,60.0024001,Chrome,1440,900,,,,,0,594,,,,,,,,,,,,,,,,,160,W,star,1,0,,,,,,,,,,,,,,,,switch,letter,lettSwt,k,0.9603,noRew,,,,,,0,5,0,5,0,1,,,,,,,,,,,,,,,,,
296926,2022-11-29_14h03.38.389,vts_reward_expectancy_bt,2022.2.4,MacIntel,60.0024001,Chrome,1440,900,,,,,0,594,,,,,,,,,,,,,,,,,181,F,triangle,1,0,,,,,,,,,,,,,,,,switch,number,numSwt,f,1,noRew,,,,,,0,6,0,6,0,1,,,,,,,,,,,,,,,,,
296926,2022-11-29_14h03.38.389,vts_reward_expectancy_bt,2022.2.4,MacIntel,60.0024001,Chrome,1440,900,,,,,0,594,,,,,,,,,,,,,,,,,125,B,circle,1,0,,,,,,,,,,,,,,,,switch,letter,lettSwt,j,1.007,noRew,,,,,,0,7,0,7,0,1,,,,,,,,,,,,,,,,,
296926,2022-11-29_14h03.38.389,vts_reward_expectancy_bt,2022.2.4,MacIntel,60.0024001,Chrome,1440,900,,,,,0,594,,,,,,,,,,,,,,,,,181,B,circle,1,0,,,,,,,,,,,,,,,,switch,number,numSwt,f,1.8969,noRew,,,,,,0,8,0,8,0,1,,,,,,,,,,,,,,,,,
296926,2022-11-29_14h03.38.389,vts_reward_expectancy_bt,2022.2.4,MacIntel,60.0024001,Chrome,1440,900,,,,,0,594,,,,,,,,,,,,,,,,,132,Y,hexagon,1,0,,,,,,,,,,,,,,,,switch,letter,lettSwt,k,1.6271,noRew,,,,,,0,9,0,9,0,1,,,,,,,,,,,,,,,,,
296926,2022-11-29_14h03.38.389,vts_reward_expectancy_bt,2022.2.4,MacIntel,60.0024001,Chrome,1440,900,,,,,0,594,,,,,,,,,,,,,,,,,174,F,hexagon,1,0,,,,,,,,,,,,,,,,switch,number,numSwt,f,1.0885,noRew,,,,,,0,10,0,10,0,1,,,,,,,,,,,,,,,,,
296926,2022-11-29_14h03.38.389,vts_reward_expectancy_bt,2022.2.4,MacIntel,60.0024001,Chrome,1440,900,,,,,0,594,,,,,,,,,,,,,,,,,125,S,triangle,1,0,,,,,,,,,,,,,,,,repeat,number,numRpt,d,1.5401,noRew,,,,,,0,11,0,11,0,1,,,,,,,,,,,,,,,,,
296926,2022-11-29_14h03.38.389,vts_reward_expectancy_bt,2022.2.4,MacIntel,60.0024001,Chrome,1440,900,,,,,0,594,,,,,,,,,,,,,,,,,139,D,star,1,0,,,,,,,,,,,,,,,,switch,letter,lettSwt,j,1.8098,noRew,,,,,,0,12,0,12,0,1,,,,,,,,,,,,,,,,,
296926,2022-11-29_14h03.38.389,vts_reward_expectancy_bt,2022.2.4,MacIntel,60.0024001,Chrome,1440,900,,,,,0,594,,,,,,,,,,,,,,,,,160,W,triangle,1,0,,,,,,,,,,,,,,,,switch,number,numSwt,f,1.7612,noRew,,,,,,0,13,0,13,0,1,,,,,,,,,,,,,,,,,
296926,2022-11-29_14h03.38.389,vts_reward_expectancy_bt,2022.2.4,MacIntel,60.0024001,Chrome,1440,900,,,,,0,594,,,,,,,,,,,,,,,,,167,S,star,1,0,,,,,,,,,,,,,,,,switch,letter,lettSwt,k,1.6094,noRew,,,,,,0,14,0,14,0,1,,,,,,,,,,,,,,,,,
296926,2022-11-29_14h03.38.389,vts_reward_expectancy_bt,2022.2.4,MacIntel,60.0024001,Chrome,1440,900,,,,,0,594,,,,,,,,,,,,,,,,,181,B,hexagon,1,0,,,,,,,,,,,,,,,,switch,number,numSwt,f,2.4124,noRew,,,,,,0,15,0,15,0,1,,,,,,,,,,,,,,,,,
296926,2022-11-29_14h03.38.389,vts_reward_expectancy_bt,2022.2.4,MacIntel,60.0024001,Chrome,1440,900,,,,,0,594,,,,,,,,,,,,,,,,,167,H,hexagon,1,0,,,,,,,,,,,,,,,,switch,letter,lettSwt,j,1.2763,noRew,,,,,,0,16,0,16,0,1,,,,,,,,,,,,,,,,,
296926,2022-11-29_14h03.38.389,vts_reward_expectancy_bt,2022.2.4,MacIntel,60.0024001,Chrome,1440,900,,,,,0,594,,,,,,,,,,,,,,,,,174,U,triangle,1,0,,,,,,,,,,,,,,,,switch,number,numSwt,f,2.6946,noRew,,,,,,0,17,0,17,0,1,,,,,,,,,,,,,,,,,
296926,2022-11-29_14h03.38.389,vts_reward_expectancy_bt,2022.2.4,MacIntel,60.0024001,Chrome,1440,900,,,,,0,594,,,,,,,,,,,,,,,,,132,Y,triangle,1,0,,,,,,,,,,,,,,,,switch,letter,lettSwt,k,0.7284,noRew,,,,,,0,18,0,18,0,1,,,,,,,,,,,,,,,,,
296926,2022-11-29_14h03.38.389,vts_reward_expectancy_bt,2022.2.4,MacIntel,60.0024001,Chrome,1440,900,,,,,0,594,,,,,,,,,,,,,,,,,160,B,star,1,0,,,,,,,,,,,,,,,,switch,number,numSwt,f,0.8276,noRew,,,,,,0,19,0,19,0,1,,,,,,,,,,,,,,,,,
296926,2022-11-29_14h03.38.389,vts_reward_expectancy_bt,2022.2.4,MacIntel,60.0024001,Chrome,1440,900,,,,,0,594,,,,,,,,,,,,,,,,,160,W,star,1,0,,,,,,,,,,,,,,,,switch,letter,lettSwt,k,0.827,noRew,,,,,,0,20,0,20,0,1,,,,,,,,,,,,,,,,,
296926,2022-11-29_14h03.38.389,vts_reward_expectancy_bt,2022.2.4,MacIntel,60.0024001,Chrome,1440,900,,,,,0,594,,,,,,,,,,,,,,,,,139,S,triangle,1,0,,,,,,,,,,,,,,,,switch,number,numSwt,d,0.6098,noRew,,,,,,0,21,0,21,0,1,,,,,,,,,,,,,,,,,
296926,2022-11-29_14h03.38.389,vts_reward_expectancy_bt,2022.2.4,MacIntel,60.0024001,Chrome,1440,900,,,,,0,594,,,,,,,,,,,,,,,,,146,U,triangle,1,0,,,,,,,,,,,,,,,,switch,letter,lettSwt,k,1.0948,noRew,,,,,,0,22,0,22,0,1,,,,,,,,,,,,,,,,,
296926,2022-11-29_14h03.38.389,vts_reward_expectancy_bt,2022.2.4,MacIntel,60.0024001,Chrome,1440,900,,,,,0,594,,,,,,,,,,,,,,,,,132,H,hexagon,1,0,,,,,,,,,,,,,,,,switch,number,numSwt,d,0.7262,noRew,,,,,,0,23,0,23,0,1,,,,,,,,,,,,,,,,,
296926,2022-11-29_14h03.38.389,vts_reward_expectancy_bt,2022.2.4,MacIntel,60.0024001,Chrome,1440,900,,,,,0,594,,,,,,,,,,,,,,,,,160,B,circle,1,0,,,,,,,,,,,,,,,,switch,letter,lettSwt,j,0.7271,noRew,,,,,,0,24,0,24,0,1,,,,,,,,,,,,,,,,,
296926,2022-11-29_14h03.38.389,vts_reward_expectancy_bt,2022.2.4,MacIntel,60.0024001,Chrome,1440,900,,,,,0,594,,,,,,,,,,,,,,,,,146,U,triangle,1,0,,,,,,,,,,,,,,,,switch,number,numSwt,d,1.0941,noRew,,,,,,0,25,0,25,0,1,,,,,,,,,,,,,,,,,
296926,2022-11-29_14h03.38.389,vts_reward_expectancy_bt,2022.2.4,MacIntel,60.0024001,Chrome,1440,900,,,,,0,594,,,,,,,,,,,,,,,,,181,F,hexagon,1,0,,,,,,,,,,,,,,,,switch,letter,lettSwt,j,1.2103,noRew,,,,,,0,26,0,26,0,1,,,,,,,,,,,,,,,,,
296926,2022-11-29_14h03.38.389,vts_reward_expectancy_bt,2022.2.4,MacIntel,60.0024001,Chrome,1440,900,,,,,0,594,,,,,,,,,,,,,,,,,139,H,triangle,1,0,,,,,,,,,,,,,,,,switch,number,numSwt,d,1.0609,noRew,,,,,,0,27,0,27,0,1,,,,,,,,,,,,,,,,,
296926,2022-11-29_14h03.38.389,vts_reward_expectancy_bt,2022.2.4,MacIntel,60.0024001,Chrome,1440,900,,,,,0,594,,,,,,,,,,,,,,,,,160,S,triangle,1,0,,,,,,,,,,,,,,,,switch,letter,lettSwt,k,0.7459,noRew,,,,,,0,28,0,28,0,1,,,,,,,,,,,,,,,,,
296926,2022-11-29_14h03.38.389,vts_reward_expectancy_bt,2022.2.4,MacIntel,60.0024001,Chrome,1440,900,,,,,0,594,,,,,,,,,,,,,,,,,125,D,circle,1,0,,,,,,,,,,,,,,,,switch,number,numSwt,d,1.2254,noRew,,,,,,0,29,0,29,0,1,,,,,,,,,,,,,,,,,
296926,2022-11-29_14h03.38.389,vts_reward_expectancy_bt,2022.2.4,MacIntel,60.0024001,Chrome,1440,900,,,,,0,594,,,,,,,,,,,,,,,,,174,W,star,1,0,,,,,,,,,,,,,,,,switch,letter,lettSwt,k,1.1755,noRew,,,,,,0,30,0,30,0,1,,,,,,,,,,,,,,,,,
296926,2022-11-29_14h03.38.389,vts_reward_expectancy_bt,2022.2.4,MacIntel,60.0024001,Chrome,1440,900,,,,,0,594,,,,,,,,,,,,,,,,,167,F,circle,1,0,,,,,,,,,,,,,,,,switch,number,numSwt,f,2.0106,noRew,,,,,,0,31,0,31,0,1,,,,,,,,,,,,,,,,,
296926,2022-11-29_14h03.38.389,vts_reward_expectancy_bt,2022.2.4,MacIntel,60.0024001,Chrome,1440,900,,,,,0,594,,,,,,,,,,,,,,,,,181,Y,hexagon,1,0,,,,,,,,,,,,,,,,switch,letter,lettSwt,k,0.9623,noRew,,,,,,0,32,0,32,0,1,,,,,,,,,,,,,,,,,
296926,2022-11-29_14h03.38.389,vts_reward_expectancy_bt,2022.2.4,MacIntel,60.0024001,Chrome,1440,900,,,,,0,594,,,,,,,,,,,,,,,,,125,H,triangle,0,0,,,,,,,,,,,,,,,,switch,number,NA,f,1.4608,noRew,,,,,,0,33,0,33,0,1,,,,,,,,,,,,,,,,,
296926,2022-11-29_14h03.38.389,vts_reward_expectancy_bt,2022.2.4,MacIntel,60.0024001,Chrome,1440,900,,,,,0,594,,,,,,,,,,,,,,,,,174,D,triangle,1,1,,,,,,,,,,,,,,,,switch,letter,lettSwt,j,1.8116,noRew,,,,,,0,34,0,34,0,1,,,,,,,,,,,,,,,,,
296926,2022-11-29_14h03.38.389,vts_reward_expectancy_bt,2022.2.4,MacIntel,60.0024001,Chrome,1440,900,,,,,0,594,,,,,,,,,,,,,,,,,160,W,hexagon,1,0,,,,,,,,,,,,,,,,repeat,letter,lettRpt,k,1.1281,noRew,,,,,,0,35,0,35,0,1,,,,,,,,,,,,,,,,,
296926,2022-11-29_14h03.38.389,vts_reward_expectancy_bt,2022.2.4,MacIntel,60.0024001,Chrome,1440,900,,,,,0,594,,,,,,,,,,,,,,,,,132,D,circle,1,0,,,,,,,,,,,,,,,,switch,number,numSwt,d,1.2934,noRew,,,,,,0,36,0,36,0,1,,,,,,,,,,,,,,,,,
296926,2022-11-29_14h03.38.389,vts_reward_expectancy_bt,2022.2.4,MacIntel,60.0024001,Chrome,1440,900,,,,,0,594,,,,,,,,,,,,,,,,,181,F,hexagon,1,0,,,,,,,,,,,,,,,,switch,letter,lettSwt,j,1.3931,noRew,,,,,,0,37,0,37,0,1,,,,,,,,,,,,,,,,,
296926,2022-11-29_14h03.38.389,vts_reward_expectancy_bt,2022.2.4,MacIntel,60.0024001,Chrome,1440,900,,,,,0,594,,,,,,,,,,,,,,,,,167,B,star,1,0,,,,,,,,,,,,,,,,switch,number,numSwt,f,2.1268,noRew,,,,,,0,38,0,38,0,1,,,,,,,,,,,,,,,,,
296926,2022-11-29_14h03.38.389,vts_reward_expectancy_bt,2022.2.4,MacIntel,60.0024001,Chrome,1440,900,,,,,0,594,,,,,,,,,,,,,,,,,146,W,circle,1,0,,,,,,,,,,,,,,,,switch,letter,lettSwt,k,0.9951,noRew,,,,,,0,39,0,39,0,1,,,,,,,,,,,,,,,,,
296926,2022-11-29_14h03.38.389,vts_reward_expectancy_bt,2022.2.4,MacIntel,60.0024001,Chrome,1440,900,,,,,0,594,,,,,,,,,,,,,,,,,174,D,hexagon,1,0,,,,,,,,,,,,,,,,repeat,letter,lettRpt,j,1.3586,noRew,,,,,,0,40,0,40,0,1,,,,,,,,,,,,,,,,,
296926,2022-11-29_14h03.38.389,vts_reward_expectancy_bt,2022.2.4,MacIntel,60.0024001,Chrome,1440,900,,,,,0,594,,,,,,,,,,,,,,,,,139,U,triangle,1,0,,,,,,,,,,,,,,,,repeat,letter,lettRpt,k,1.2541,noRew,,,,,,0,41,0,41,0,1,,,,,,,,,,,,,,,,,
296926,2022-11-29_14h03.38.389,vts_reward_expectancy_bt,2022.2.4,MacIntel,60.0024001,Chrome,1440,900,,,,,0,594,,,,,,,,,,,,,,,,,132,B,hexagon,1,0,,,,,,,,,,,,,,,,switch,number,numSwt,d,0.8882,noRew,,,,,,0,42,0,42,0,1,,,,,,,,,,,,,,,,,
296926,2022-11-29_14h03.38.389,vts_reward_expectancy_bt,2022.2.4,MacIntel,60.0024001,Chrome,1440,900,,,,,0,594,,,,,,,,,,,,,,,,,167,F,circle,1,0,,,,,,,,,,,,,,,,switch,letter,lettSwt,j,0.9943,noRew,,,,,,0,43,0,43,0,1,,,,,,,,,,,,,,,,,
296926,2022-11-29_14h03.38.389,vts_reward_expectancy_bt,2022.2.4,MacIntel,60.0024001,Chrome,1440,900,,,,,0,594,,,,,,,,,,,,,,,,,160,H,hexagon,1,0,,,,,,,,,,,,,,,,repeat,letter,lettRpt,j,2.0794,noRew,,,,,,0,44,0,44,0,1,,,,,,,,,,,,,,,,,
296926,2022-11-29_14h03.38.389,vts_reward_expectancy_bt,2022.2.4,MacIntel,60.0024001,Chrome,1440,900,,,,,0,594,,,,,,,,,,,,,,,,,139,F,star,1,0,,,,,,,,,,,,,,,,switch,number,numSwt,d,1.5757,noRew,,,,,,0,45,0,45,0,1,,,,,,,,,,,,,,,,,
296926,2022-11-29_14h03.38.389,vts_reward_expectancy_bt,2022.2.4,MacIntel,60.0024001,Chrome,1440,900,,,,,0,594,,,,,,,,,,,,,,,,,167,W,triangle,1,0,,,,,,,,,,,,,,,,repeat,number,numRpt,f,0.9457,noRew,,,,,,0,46,0,46,0,1,,,,,,,,,,,,,,,,,
296926,2022-11-29_14h03.38.389,vts_reward_expectancy_bt,2022.2.4,MacIntel,60.0024001,Chrome,1440,900,,,,,0,594,,,,,,,,,,,,,,,,,174,B,hexagon,1,0,,,,,,,,,,,,,,,,switch,letter,lettSwt,j,0.9256,noRew,,,,,,0,47,0,47,0,1,,,,,,,,,,,,,,,,,
296926,2022-11-29_14h03.38.389,vts_reward_expectancy_bt,2022.2.4,MacIntel,60.0024001,Chrome,1440,900,,,,,0,594,,,,,,,,,,,,,,,,,174,U,triangle,1,0,,,,,,,,,,,,,,,,repeat,letter,lettRpt,k,0.9981,noRew,,,,,,0,48,0,48,0,1,,,,,,,,,,,,,,,,,
296926,2022-11-29_14h03.38.389,vts_reward_expectancy_bt,2022.2.4,MacIntel,60.0024001,Chrome,1440,900,,,,,0,594,,,,,,,,,,,,,,,,,160,S,circle,1,0,,,,,,,,,,,,,,,,repeat,letter,lettRpt,k,1.3464,noRew,,,,,,0,49,0,49,0,1,,,,,,,,,,,,,,,,,
296926,2022-11-29_14h03.38.389,vts_reward_expectancy_bt,2022.2.4,MacIntel,60.0024001,Chrome,1440,900,,,,,0,594,,,,,,,,,,,,,,,,,181,F,circle,1,0,,,,,,,,,,,,,,,,switch,number,numSwt,f,1.2444,noRew,,,,,,0,50,0,50,0,1,,,,,,,,,,,,,,,,,
296926,2022-11-29_14h03.38.389,vts_reward_expectancy_bt,2022.2.4,MacIntel,60.0024001,Chrome,1440,900,,,,,0,594,,,,,,,,,,,,,,,,,132,D,star,1,0,,,,,,,,,,,,,,,,switch,letter,lettSwt,j,1.1606,noRew,,,,,,0,51,0,51,0,1,,,,,,,,,,,,,,,,,
296926,2022-11-29_14h03.38.389,vts_reward_expectancy_bt,2022.2.4,MacIntel,60.0024001,Chrome,1440,900,,,,,0,594,,,,,,,,,,,,,,,,,139,Y,hexagon,1,0,,,,,,,,,,,,,,,,repeat,letter,lettRpt,k,1.0959,noRew,,,,,,0,52,0,52,0,1,,,,,,,,,,,,,,,,,
296926,2022-11-29_14h03.38.389,vts_reward_expectancy_bt,2022.2.4,MacIntel,60.0024001,Chrome,1440,900,,,,,0,594,,,,,,,,,,,,,,,,,174,W,triangle,1,0,,,,,,,,,,,,,,,,switch,number,numSwt,f,1.127,noRew,,,,,,0,53,0,53,0,1,,,,,,,,,,,,,,,,,
296926,2022-11-29_14h03.38.389,vts_reward_expectancy_bt,2022.2.4,MacIntel,60.0024001,Chrome,1440,900,,,,,0,594,,,,,,,,,,,,,,,,,160,F,star,1,0,,,,,,,,,,,,,,,,switch,letter,lettSwt,j,1.7938,noRew,,,,,,0,54,0,54,0,1,,,,,,,,,,,,,,,,,
296926,2022-11-29_14h03.38.389,vts_reward_expectancy_bt,2022.2.4,MacIntel,60.0024001,Chrome,1440,900,,,,,0,594,,,,,,,,,,,,,,,,,125,D,circle,1,0,,,,,,,,,,,,,,,,repeat,letter,lettRpt,j,2.6379,noRew,,,,,,0,55,0,55,0,1,,,,,,,,,,,,,,,,,
296926,2022-11-29_14h03.38.389,vts_reward_expectancy_bt,2022.2.4,MacIntel,60.0024001,Chrome,1440,900,,,,,0,594,,,,,,,,,,,,,,,,,167,U,triangle,1,0,,,,,,,,,,,,,,,,repeat,letter,lettRpt,k,0.9111,noRew,,,,,,0,56,0,56,0,1,,,,,,,,,,,,,,,,,
296926,2022-11-29_14h03.38.389,vts_reward_expectancy_bt,2022.2.4,MacIntel,60.0024001,Chrome,1440,900,,,,,0,594,,,,,,,,,,,,,,,,,125,H,hexagon,1,0,,,,,,,,,,,,,,,,switch,number,numSwt,d,0.7446,noRew,,,,,,0,57,0,57,0,1,,,,,,,,,,,,,,,,,
296926,2022-11-29_14h03.38.389,vts_reward_expectancy_bt,2022.2.4,MacIntel,60.0024001,Chrome,1440,900,,,,,0,594,,,,,,,,,,,,,,,,,146,W,hexagon,1,0,,,,,,,,,,,,,,,,switch,letter,lettSwt,k,1.0953,noRew,,,,,,0,58,0,58,0,1,,,,,,,,,,,,,,,,,
296926,2022-11-29_14h03.38.389,vts_reward_expectancy_bt,2022.2.4,MacIntel,60.0024001,Chrome,1440,900,,,,,0,594,,,,,,,,,,,,,,,,,139,F,circle,1,0,,,,,,,,,,,,,,,,repeat,letter,lettRpt,j,1.1478,noRew,,,,,,0,59,0,59,0,1,,,,,,,,,,,,,,,,,
296926,2022-11-29_14h03.38.389,vts_reward_expectancy_bt,2022.2.4,MacIntel,60.0024001,Chrome,1440,900,,,,,0,594,,,,,,,,,,,,,,,,,167,Y,triangle,1,0,,,,,,,,,,,,,,,,repeat,letter,lettRpt,k,2.3129,noRew,,,,,,0,60,0,60,0,1,,,,,,,,,,,,,,,,,
296926,2022-11-29_14h03.38.389,vts_reward_expectancy_bt,2022.2.4,MacIntel,60.0024001,Chrome,1440,900,,,,,0,594,,,,,,,,,,,,,,,,,125,F,star,1,0,,,,,,,,,,,,,,,,repeat,letter,lettRpt,j,1.176,noRew,,,,,,0,61,0,61,0,1,,,,,,,,,,,,,,,,,
296926,2022-11-29_14h03.38.389,vts_reward_expectancy_bt,2022.2.4,MacIntel,60.0024001,Chrome,1440,900,,,,,0,594,,,,,,,,,,,,,,,,,132,S,star,1,0,,,,,,,,,,,,,,,,repeat,letter,lettRpt,k,1.7392,noRew,,,,,,0,62,0,62,0,1,,,,,,,,,,,,,,,,,
296926,2022-11-29_14h03.38.389,vts_reward_expectancy_bt,2022.2.4,MacIntel,60.0024001,Chrome,1440,900,,,,,0,594,,,,,,,,,,,,,,,,,181,B,triangle,1,0,,,,,,,,,,,,,,,,switch,number,numSwt,f,0.6933,noRew,,,,,,0,63,0,63,0,1,,,,,,,,,,,,,,,,,
296926,2022-11-29_14h03.38.389,vts_reward_expectancy_bt,2022.2.4,MacIntel,60.0024001,Chrome,1440,900,,,,,,,,,,,,,,,,,,,,,,,,,,,,,,,,,,,,,,,,,,,,,,,,,,,,,,,,,,,,,,,,,,,,,,,,,,,,
296926,2022-11-29_14h03.38.389,vts_reward_expectancy_bt,2022.2.4,MacIntel,60.0024001,Chrome,1440,900,,,,,1,595,,,,,,,,,,,,,,,,,160,S,star,1,0,,,,,,,,,,,,,,,,repeat,number,numRpt,f,1.9008,Lo,,,,,,0,,,,,,space,184.9585,low,0,0,0,0,1,,,,,,,,,
296926,2022-11-29_14h03.38.389,vts_reward_expectancy_bt,2022.2.4,MacIntel,60.0024001,Chrome,1440,900,,,,,1,596,,,,,,,,,,,,,,,,,125,F,circle,1,0,,,,,,,,,,,,,,,,switch,letter,lettSwt,j,0.9052,Hi,,,,,,0,,,,,,,,low,1,0,1,0,1,,,,,,,,,
296926,2022-11-29_14h03.38.389,vts_reward_expectancy_bt,2022.2.4,MacIntel,60.0024001,Chrome,1440,900,,,,,1,597,,,,,,,,,,,,,,,,,139,U,triangle,1,0,,,,,,,,,,,,,,,,switch,number,numSwt,d,1.1127,Lo,,,,,,0,,,,,,,,low,2,0,2,0,1,,,,,,,,,
296926,2022-11-29_14h03.38.389,vts_reward_expectancy_bt,2022.2.4,MacIntel,60.0024001,Chrome,1440,900,,,,,1,598,,,,,,,,,,,,,,,,,167,Y,hexagon,1,0,,,,,,,,,,,,,,,,repeat,number,numRpt,f,0.8994,Hi,,,,,,0,,,,,,,,low,3,0,3,0,1,,,,,,,,,
296926,2022-11-29_14h03.38.389,vts_reward_expectancy_bt,2022.2.4,MacIntel,60.0024001,Chrome,1440,900,,,,,1,599,,,,,,,,,,,,,,,,,181,B,star,1,0,,,,,,,,,,,,,,,,switch,letter,lettSwt,j,0.7876,Lo,,,,,,0,,,,,,,,low,4,0,4,0,1,,,,,,,,,
296926,2022-11-29_14h03.38.389,vts_reward_expectancy_bt,2022.2.4,MacIntel,60.0024001,Chrome,1440,900,,,,,10,609,,,,,,,,,,,,,,,,,174,H,circle,1,0,,,,,,,,,,,,,,,,repeat,letter,lettRpt,j,0.6722,Hi,,,,,,0,,,,,,,,low,5,0,5,0,1,,,,,,,,,
296926,2022-11-29_14h03.38.389,vts_reward_expectancy_bt,2022.2.4,MacIntel,60.0024001,Chrome,1440,900,,,,,1,610,,,,,,,,,,,,,,,,,132,D,triangle,1,0,,,,,,,,,,,,,,,,switch,number,numSwt,d,0.5878,Lo,,,,,,0,,,,,,,,low,6,0,6,0,1,,,,,,,,,
296926,2022-11-29_14h03.38.389,vts_reward_expectancy_bt,2022.2.4,MacIntel,60.0024001,Chrome,1440,900,,,,,10,620,,,,,,,,,,,,,,,,,146,W,hexagon,1,0,,,,,,,,,,,,,,,,switch,letter,lettSwt,k,0.6253,Hi,,,,,,0,,,,,,,,low,7,0,7,0,1,,,,,,,,,
296926,2022-11-29_14h03.38.389,vts_reward_expectancy_bt,2022.2.4,MacIntel,60.0024001,Chrome,1440,900,,,,,10,630,,,,,,,,,,,,,,,,,160,S,hexagon,1,0,,,,,,,,,,,,,,,,switch,number,numSwt,f,0.7503,Hi,,,,,,0,,,,,,,,low,8,0,8,0,1,,,,,,,,,
296926,2022-11-29_14h03.38.389,vts_reward_expectancy_bt,2022.2.4,MacIntel,60.0024001,Chrome,1440,900,,,,,10,640,,,,,,,,,,,,,,,,,125,F,triangle,1,0,,,,,,,,,,,,,,,,switch,letter,lettSwt,j,0.7674,Lo,,,,,,0,,,,,,,,low,9,0,9,0,1,,,,,,,,,
296926,2022-11-29_14h03.38.389,vts_reward_expectancy_bt,2022.2.4,MacIntel,60.0024001,Chrome,1440,900,,,,,10,650,,,,,,,,,,,,,,,,,139,U,circle,1,0,,,,,,,,,,,,,,,,switch,number,numSwt,d,0.6623,Hi,,,,,,0,,,,,,,,low,10,0,10,0,1,,,,,,,,,
296926,2022-11-29_14h03.38.389,vts_reward_expectancy_bt,2022.2.4,MacIntel,60.0024001,Chrome,1440,900,,,,,10,660,,,,,,,,,,,,,,,,,167,Y,star,1,0,,,,,,,,,,,,,,,,switch,letter,lettSwt,k,0.8078,Lo,,,,,,0,,,,,,,,low,11,0,11,0,1,,,,,,,,,
296926,2022-11-29_14h03.38.389,vts_reward_expectancy_bt,2022.2.4,MacIntel,60.0024001,Chrome,1440,900,,,,,1,661,,,,,,,,,,,,,,,,,181,B,star,1,0,,,,,,,,,,,,,,,,switch,number,numSwt,f,0.8755,Lo,,,,,,0,,,,,,,,low,12,0,12,0,1,,,,,,,,,
296926,2022-11-29_14h03.38.389,vts_reward_expectancy_bt,2022.2.4,MacIntel,60.0024001,Chrome,1440,900,,,,,1,662,,,,,,,,,,,,,,,,,174,H,hexagon,1,0,,,,,,,,,,,,,,,,switch,letter,lettSwt,j,0.7942,Hi,,,,,,0,,,,,,,,low,13,0,13,0,1,,,,,,,,,
296926,2022-11-29_14h03.38.389,vts_reward_expectancy_bt,2022.2.4,MacIntel,60.0024001,Chrome,1440,900,,,,,10,672,,,,,,,,,,,,,,,,,132,D,triangle,1,0,,,,,,,,,,,,,,,,switch,number,numSwt,d,0.9883,Lo,,,,,,0,,,,,,,,low,14,0,14,0,1,,,,,,,,,
296926,2022-11-29_14h03.38.389,vts_reward_expectancy_bt,2022.2.4,MacIntel,60.0024001,Chrome,1440,900,,,,,0,672,,,,,,,,,,,,,,,,,146,W,circle,1,0,,,,,,,,,,,,,,,,switch,letter,lettSwt,k,1.0912,Hi,,,,,,0,,,,,,,,low,15,0,15,0,1,,,,,,,,,
296926,2022-11-29_14h03.38.389,vts_reward_expectancy_bt,2022.2.4,MacIntel,60.0024001,Chrome,1440,900,,,,,0,672,,,,,,,,,,,,,,,,,160,S,triangle,0,0,,,,,,,,,,,,,,,,switch,number,NA,d,0.6586,Hi,,,,,,0,,,,,,,,low,16,0,16,0,1,,,,,,,,,
296926,2022-11-29_14h03.38.389,vts_reward_expectancy_bt,2022.2.4,MacIntel,60.0024001,Chrome,1440,900,,,,,1,673,,,,,,,,,,,,,,,,,174,U,star,1,1,,,,,,,,,,,,,,,,repeat,number,numRpt,f,0.8262,Lo,,,,,,0,,,,,,,,low,17,0,17,0,1,,,,,,,,,
296926,2022-11-29_14h03.38.389,vts_reward_expectancy_bt,2022.2.4,MacIntel,60.0024001,Chrome,1440,900,,,,,10,683,,,,,,,,,,,,,,,,,167,Y,circle,1,0,,,,,,,,,,,,,,,,repeat,number,numRpt,f,0.6185,Hi,,,,,,0,,,,,,,,low,18,0,18,0,1,,,,,,,,,
296926,2022-11-29_14h03.38.389,vts_reward_expectancy_bt,2022.2.4,MacIntel,60.0024001,Chrome,1440,900,,,,,0,683,,,,,,,,,,,,,,,,,125,F,hexagon,1,0,,,,,,,,,,,,,,,,switch,letter,lettSwt,j,1.3987,Hi,,,,,,0,,,,,,,,low,19,0,19,0,1,,,,,,,,,
296926,2022-11-29_14h03.38.389,vts_reward_expectancy_bt,2022.2.4,MacIntel,60.0024001,Chrome,1440,900,,,,,10,693,,,,,,,,,,,,,,,,,132,H,hexagon,1,0,,,,,,,,,,,,,,,,switch,number,numSwt,d,0.7133,Hi,,,,,,0,,,,,,,,low,20,0,20,0,1,,,,,,,,,
296926,2022-11-29_14h03.38.389,vts_reward_expectancy_bt,2022.2.4,MacIntel,60.0024001,Chrome,1440,900,,,,,1,694,,,,,,,,,,,,,,,,,181,B,triangle,1,0,,,,,,,,,,,,,,,,switch,letter,lettSwt,j,0.3769,Lo,,,,,,0,,,,,,,,low,21,0,21,0,1,,,,,,,,,
296926,2022-11-29_14h03.38.389,vts_reward_expectancy_bt,2022.2.4,MacIntel,60.0024001,Chrome,1440,900,,,,,1,695,,,,,,,,,,,,,,,,,139,W,star,1,0,,,,,,,,,,,,,,,,repeat,letter,lettRpt,k,0.4886,Lo,,,,,,0,,,,,,,,low,22,0,22,0,1,,,,,,,,,
296926,2022-11-29_14h03.38.389,vts_reward_expectancy_bt,2022.2.4,MacIntel,60.0024001,Chrome,1440,900,,,,,1,696,,,,,,,,,,,,,,,,,146,D,circle,1,0,,,,,,,,,,,,,,,,repeat,letter,lettRpt,j,0.4447,Hi,,,,,,0,,,,,,,,low,23,0,23,0,1,,,,,,,,,
296926,2022-11-29_14h03.38.389,vts_reward_expectancy_bt,2022.2.4,MacIntel,60.0024001,Chrome,1440,900,,,,,10,706,,,,,,,,,,,,,,,,,160,H,hexagon,1,0,,,,,,,,,,,,,,,,switch,number,numSwt,f,0.8108,Hi,,,,,,0,,,,,,,,low,24,0,24,0,1,,,,,,,,,
296926,2022-11-29_14h03.38.389,vts_reward_expectancy_bt,2022.2.4,MacIntel,60.0024001,Chrome,1440,900,,,,,1,707,,,,,,,,,,,,,,,,,132,Y,star,1,0,,,,,,,,,,,,,,,,repeat,number,numRpt,d,0.9725,Lo,,,,,,0,,,,,,,,low,25,0,25,0,1,,,,,,,,,
296926,2022-11-29_14h03.38.389,vts_reward_expectancy_bt,2022.2.4,MacIntel,60.0024001,Chrome,1440,900,,,,,1,708,,,,,,,,,,,,,,,,,181,F,triangle,1,0,,,,,,,,,,,,,,,,repeat,number,numRpt,f,1.2388,Lo,,,,,,0,,,,,,,,low,26,0,26,0,1,,,,,,,,,
296926,2022-11-29_14h03.38.389,vts_reward_expectancy_bt,2022.2.4,MacIntel,60.0024001,Chrome,1440,900,,,,,1,709,,,,,,,,,,,,,,,,,125,U,circle,1,0,,,,,,,,,,,,,,,,repeat,number,numRpt,d,0.7569,Hi,,,,,,0,,,,,,,,low,27,0,27,0,1,,,,,,,,,
296926,2022-11-29_14h03.38.389,vts_reward_expectancy_bt,2022.2.4,MacIntel,60.0024001,Chrome,1440,900,,,,,10,719,,,,,,,,,,,,,,,,,146,B,hexagon,1,0,,,,,,,,,,,,,,,,switch,letter,lettSwt,j,0.7563,Hi,,,,,,0,,,,,,,,low,28,0,28,0,1,,,,,,,,,
296926,2022-11-29_14h03.38.389,vts_reward_expectancy_bt,2022.2.4,MacIntel,60.0024001,Chrome,1440,900,,,,,1,720,,,,,,,,,,,,,,,,,139,D,star,1,0,,,,,,,,,,,,,,,,switch,number,numSwt,d,0.8557,Lo,,,,,,0,,,,,,,,low,29,0,29,0,1,,,,,,,,,
296926,2022-11-29_14h03.38.389,vts_reward_expectancy_bt,2022.2.4,MacIntel,60.0024001,Chrome,1440,900,,,,,1,721,,,,,,,,,,,,,,,,,167,S,triangle,1,0,,,,,,,,,,,,,,,,repeat,number,numRpt,f,0.9162,Lo,,,,,,0,,,,,,,,low,30,0,30,0,1,,,,,,,,,
296926,2022-11-29_14h03.38.389,vts_reward_expectancy_bt,2022.2.4,MacIntel,60.0024001,Chrome,1440,900,,,,,10,731,,,,,,,,,,,,,,,,,174,W,circle,1,0,,,,,,,,,,,,,,,,repeat,number,numRpt,f,1.0004,Hi,,,,,,0,,,,,,,,low,31,0,31,0,1,,,,,,,,,
296926,2022-11-29_14h03.38.389,vts_reward_expectancy_bt,2022.2.4,MacIntel,60.0024001,Chrome,1440,900,,,,,0,731,,,,,,,,,,,,,,,,,146,W,hexagon,1,0,,,,,,,,,,,,,,,,repeat,number,numRpt,d,1.3453,Hi,,,,,,1,,,,,,space,3.405,low,0,0,0,0,1,,,,,,,,,
296926,2022-11-29_14h03.38.389,vts_reward_expectancy_bt,2022.2.4,MacIntel,60.0024001,Chrome,1440,900,,,,,1,732,,,,,,,,,,,,,,,,,132,B,triangle,1,0,,,,,,,,,,,,,,,,repeat,number,numRpt,d,0.8264,Lo,,,,,,1,,,,,,,,low,1,0,1,0,1,,,,,,,,,
296926,2022-11-29_14h03.38.389,vts_reward_expectancy_bt,2022.2.4,MacIntel,60.0024001,Chrome,1440,900,,,,,1,733,,,,,,,,,,,,,,,,,174,H,star,1,0,,,,,,,,,,,,,,,,repeat,number,numRpt,f,0.4262,Lo,,,,,,1,,,,,,,,low,2,0,2,0,1,,,,,,,,,
296926,2022-11-29_14h03.38.389,vts_reward_expectancy_bt,2022.2.4,MacIntel,60.0024001,Chrome,1440,900,,,,,10,743,,,,,,,,,,,,,,,,,160,U,circle,1,0,,,,,,,,,,,,,,,,repeat,number,numRpt,f,0.7421,Hi,,,,,,1,,,,,,,,low,3,0,3,0,1,,,,,,,,,
296926,2022-11-29_14h03.38.389,vts_reward_expectancy_bt,2022.2.4,MacIntel,60.0024001,Chrome,1440,900,,,,,10,753,,,,,,,,,,,,,,,,,139,S,hexagon,1,0,,,,,,,,,,,,,,,,repeat,number,numRpt,d,0.8439,Hi,,,,,,1,,,,,,,,low,4,0,4,0,1,,,,,,,,,
296926,2022-11-29_14h03.38.389,vts_reward_expectancy_bt,2022.2.4,MacIntel,60.0024001,Chrome,1440,900,,,,,10,763,,,,,,,,,,,,,,,,,167,D,triangle,1,0,,,,,,,,,,,,,,,,switch,letter,lettSwt,j,1.4617,Lo,,,,,,1,,,,,,,,low,5,0,5,0,1,,,,,,,,,
296926,2022-11-29_14h03.38.389,vts_reward_expectancy_bt,2022.2.4,MacIntel,60.0024001,Chrome,1440,900,,,,,1,764,,,,,,,,,,,,,,,,,125,F,star,1,0,,,,,,,,,,,,,,,,repeat,letter,lettRpt,j,1.4048,Lo,,,,,,1,,,,,,,,low,6,0,6,0,1,,,,,,,,,
296926,2022-11-29_14h03.38.389,vts_reward_expectancy_bt,2022.2.4,MacIntel,60.0024001,Chrome,1440,900,,,,,0,764,,,,,,,,,,,,,,,,,181,Y,circle,1,0,,,,,,,,,,,,,,,,switch,number,numSwt,f,0.7435,Hi,,,,,,1,,,,,,,,low,7,0,7,0,1,,,,,,,,,
296926,2022-11-29_14h03.38.389,vts_reward_expectancy_bt,2022.2.4,MacIntel,60.0024001,Chrome,1440,900,,,,,10,774,,,,,,,,,,,,,,,,,146,W,star,1,0,,,,,,,,,,,,,,,,switch,letter,lettSwt,k,0.5082,Lo,,,,,,1,,,,,,,,low,8,0,8,0,1,,,,,,,,,
296926,2022-11-29_14h03.38.389,vts_reward_expectancy_bt,2022.2.4,MacIntel,60.0024001,Chrome,1440,900,,,,,0,774,,,,,,,,,,,,,,,,,132,B,hexagon,1,0,,,,,,,,,,,,,,,,switch,number,numSwt,d,1.0077,Hi,,,,,,1,,,,,,,,low,9,0,9,0,1,,,,,,,,,
296926,2022-11-29_14h03.38.389,vts_reward_expectancy_bt,2022.2.4,MacIntel,60.0024001,Chrome,1440,900,,,,,10,784,,,,,,,,,,,,,,,,,174,H,circle,1,0,,,,,,,,,,,,,,,,switch,letter,lettSwt,j,0.6631,Hi,,,,,,1,,,,,,,,low,10,0,10,0,1,,,,,,,,,
296926,2022-11-29_14h03.38.389,vts_reward_expectancy_bt,2022.2.4,MacIntel,60.0024001,Chrome,1440,900,,,,,1,785,,,,,,,,,,,,,,,,,160,U,triangle,1,0,,,,,,,,,,,,,,,,switch,number,numSwt,f,1.1271,Lo,,,,,,1,,,,,,,,low,11,0,11,0,1,,,,,,,,,
296926,2022-11-29_14h03.38.389,vts_reward_expectancy_bt,2022.2.4,MacIntel,60.0024001,Chrome,1440,900,,,,,1,786,,,,,,,,,,,,,,,,,139,S,triangle,1,0,,,,,,,,,,,,,,,,repeat,number,numRpt,d,0.6753,Lo,,,,,,1,,,,,,,,low,12,0,12,0,1,,,,,,,,,
296926,2022-11-29_14h03.38.389,vts_reward_expectancy_bt,2022.2.4,MacIntel,60.0024001,Chrome,1440,900,,,,,10,796,,,,,,,,,,,,,,,,,167,D,circle,1,0,,,,,,,,,,,,,,,,repeat,number,numRpt,f,0.6936,Hi,,,,,,1,,,,,,,,low,13,0,13,0,1,,,,,,,,,
296926,2022-11-29_14h03.38.389,vts_reward_expectancy_bt,2022.2.4,MacIntel,60.0024001,Chrome,1440,900,,,,,1,797,,,,,,,,,,,,,,,,,125,F,star,1,0,,,,,,,,,,,,,,,,repeat,number,numRpt,d,0.706,Lo,,,,,,1,,,,,,,,low,14,0,14,0,1,,,,,,,,,
296926,2022-11-29_14h03.38.389,vts_reward_expectancy_bt,2022.2.4,MacIntel,60.0024001,Chrome,1440,900,,,,,10,807,,,,,,,,,,,,,,,,,181,Y,hexagon,1,0,,,,,,,,,,,,,,,,repeat,number,numRpt,f,0.778,Hi,,,,,,1,,,,,,,,low,15,0,15,0,1,,,,,,,,,
296926,2022-11-29_14h03.38.389,vts_reward_expectancy_bt,2022.2.4,MacIntel,60.0024001,Chrome,1440,900,,,,,10,817,,,,,,,,,,,,,,,,,139,D,circle,1,0,,,,,,,,,,,,,,,,repeat,number,numRpt,d,0.6768,Hi,,,,,,1,,,,,,,,low,16,0,16,0,1,,,,,,,,,
296926,2022-11-29_14h03.38.389,vts_reward_expectancy_bt,2022.2.4,MacIntel,60.0024001,Chrome,1440,900,,,,,1,818,,,,,,,,,,,,,,,,,132,W,star,1,0,,,,,,,,,,,,,,,,repeat,number,numRpt,d,0.8296,Lo,,,,,,1,,,,,,,,low,17,0,17,0,1,,,,,,,,,
296926,2022-11-29_14h03.38.389,vts_reward_expectancy_bt,2022.2.4,MacIntel,60.0024001,Chrome,1440,900,,,,,10,828,,,,,,,,,,,,,,,,,181,F,triangle,1,0,,,,,,,,,,,,,,,,repeat,number,numRpt,f,0.7446,Lo,,,,,,1,,,,,,,,low,18,0,18,0,1,,,,,,,,,
296926,2022-11-29_14h03.38.389,vts_reward_expectancy_bt,2022.2.4,MacIntel,60.0024001,Chrome,1440,900,,,,,10,838,,,,,,,,,,,,,,,,,125,U,hexagon,1,0,,,,,,,,,,,,,,,,repeat,number,numRpt,d,0.7108,Hi,,,,,,1,,,,,,,,low,19,0,19,0,1,,,,,,,,,
296926,2022-11-29_14h03.38.389,vts_reward_expectancy_bt,2022.2.4,MacIntel,60.0024001,Chrome,1440,900,,,,,0,838,,,,,,,,,,,,,,,,,160,H,hexagon,1,0,,,,,,,,,,,,,,,,switch,letter,lettSwt,j,0.7697,Hi,,,,,,1,,,,,,,,low,20,0,20,0,1,,,,,,,,,
296926,2022-11-29_14h03.38.389,vts_reward_expectancy_bt,2022.2.4,MacIntel,60.0024001,Chrome,1440,900,,,,,10,848,,,,,,,,,,,,,,,,,167,B,star,1,0,,,,,,,,,,,,,,,,repeat,letter,lettRpt,j,0.941,Lo,,,,,,1,,,,,,,,low,21,0,21,0,1,,,,,,,,,
296926,2022-11-29_14h03.38.389,vts_reward_expectancy_bt,2022.2.4,MacIntel,60.0024001,Chrome,1440,900,,,,,10,858,,,,,,,,,,,,,,,,,146,S,triangle,1,0,,,,,,,,,,,,,,,,repeat,letter,lettRpt,k,0.5787,Lo,,,,,,1,,,,,,,,low,22,0,22,0,1,,,,,,,,,
296926,2022-11-29_14h03.38.389,vts_reward_expectancy_bt,2022.2.4,MacIntel,60.0024001,Chrome,1440,900,,,,,10,868,,,,,,,,,,,,,,,,,174,Y,circle,1,0,,,,,,,,,,,,,,,,switch,number,numSwt,f,0.5638,Hi,,,,,,1,,,,,,,,low,23,0,23,0,1,,,,,,,,,
296926,2022-11-29_14h03.38.389,vts_reward_expectancy_bt,2022.2.4,MacIntel,60.0024001,Chrome,1440,900,,,,,0,868,,,,,,,,,,,,,,,,,160,H,hexagon,1,0,,,,,,,,,,,,,,,,repeat,number,numRpt,f,0.9594,Hi,,,,,,1,,,,,,,,low,24,0,24,0,1,,,,,,,,,
296926,2022-11-29_14h03.38.389,vts_reward_expectancy_bt,2022.2.4,MacIntel,60.0024001,Chrome,1440,900,,,,,0,868,,,,,,,,,,,,,,,,,125,B,circle,1,0,,,,,,,,,,,,,,,,repeat,number,numRpt,d,0.964,Hi,,,,,,1,,,,,,,,low,25,0,25,0,1,,,,,,,,,
296926,2022-11-29_14h03.38.389,vts_reward_expectancy_bt,2022.2.4,MacIntel,60.0024001,Chrome,1440,900,,,,,0,868,,,,,,,,,,,,,,,,,132,Y,triangle,0,0,,,,,,,,,,,,,,,,repeat,number,NA,f,0.6072,Hi,,,,,,1,,,,,,,,low,26,0,26,0,1,,,,,,,,,
296926,2022-11-29_14h03.38.389,vts_reward_expectancy_bt,2022.2.4,MacIntel,60.0024001,Chrome,1440,900,,,,,0,868,,,,,,,,,,,,,,,,,139,F,star,0,1,,,,,,,,,,,,,,,,repeat,number,NA,f,0.5937,Hi,,,,,,1,,,,,,,,low,27,0,27,0,1,,,,,,,,,
296926,2022-11-29_14h03.38.389,vts_reward_expectancy_bt,2022.2.4,MacIntel,60.0024001,Chrome,1440,900,,,,,10,878,,,,,,,,,,,,,,,,,167,U,triangle,1,1,,,,,,,,,,,,,,,,repeat,number,numRpt,f,0.7232,Lo,,,,,,1,,,,,,,,low,28,0,28,0,1,,,,,,,,,
296926,2022-11-29_14h03.38.389,vts_reward_expectancy_bt,2022.2.4,MacIntel,60.0024001,Chrome,1440,900,,,,,0,878,,,,,,,,,,,,,,,,,146,W,hexagon,1,0,,,,,,,,,,,,,,,,repeat,number,numRpt,d,0.8909,Hi,,,,,,1,,,,,,,,low,29,0,29,0,1,,,,,,,,,
296926,2022-11-29_14h03.38.389,vts_reward_expectancy_bt,2022.2.4,MacIntel,60.0024001,Chrome,1440,900,,,,,10,888,,,,,,,,,,,,,,,,,181,D,circle,1,0,,,,,,,,,,,,,,,,repeat,number,numRpt,f,0.594,Hi,,,,,,1,,,,,,,,low,30,0,30,0,1,,,,,,,,,
296926,2022-11-29_14h03.38.389,vts_reward_expectancy_bt,2022.2.4,MacIntel,60.0024001,Chrome,1440,900,,,,,1,889,,,,,,,,,,,,,,,,,174,S,star,1,0,,,,,,,,,,,,,,,,switch,letter,lettSwt,k,0.6745,Lo,,,,,,1,,,,,,,,low,31,0,31,0,1,,,,,,,,,
296926,2022-11-29_14h03.38.389,vts_reward_expectancy_bt,2022.2.4,MacIntel,60.0024001,Chrome,1440,900,,,,,1,890,,,,,,,,,,,,,,,,,167,Y,triangle,1,0,,,,,,,,,,,,,,,,switch,number,numSwt,f,0.9704,Lo,,,,,,2,,,,,,space,3.0377,low,0,0,0,0,1,,,,,,,,,
296926,2022-11-29_14h03.38.389,vts_reward_expectancy_bt,2022.2.4,MacIntel,60.0024001,Chrome,1440,900,,,,,0,890,,,,,,,,,,,,,,,,,139,H,hexagon,1,0,,,,,,,,,,,,,,,,repeat,number,numRpt,d,0.9079,Hi,,,,,,2,,,,,,,,low,1,0,1,0,1,,,,,,,,,
296926,2022-11-29_14h03.38.389,vts_reward_expectancy_bt,2022.2.4,MacIntel,60.0024001,Chrome,1440,900,,,,,10,900,,,,,,,,,,,,,,,,,160,S,circle,1,0,,,,,,,,,,,,,,,,switch,letter,lettSwt,k,0.3714,Hi,,,,,,2,,,,,,,,low,2,0,2,0,1,,,,,,,,,
296926,2022-11-29_14h03.38.389,vts_reward_expectancy_bt,2022.2.4,MacIntel,60.0024001,Chrome,1440,900,,,,,1,901,,,,,,,,,,,,,,,,,174,W,star,1,0,,,,,,,,,,,,,,,,switch,number,numSwt,f,0.8542,Lo,,,,,,2,,,,,,,,low,3,0,3,0,1,,,,,,,,,
296926,2022-11-29_14h03.38.389,vts_reward_expectancy_bt,2022.2.4,MacIntel,60.0024001,Chrome,1440,900,,,,,1,902,,,,,,,,,,,,,,,,,125,F,triangle,1,0,,,,,,,,,,,,,,,,repeat,number,numRpt,d,0.7575,Lo,,,,,,2,,,,,,,,low,4,0,4,0,1,,,,,,,,,
296926,2022-11-29_14h03.38.389,vts_reward_expectancy_bt,2022.2.4,MacIntel,60.0024001,Chrome,1440,900,,,,,0,902,,,,,,,,,,,,,,,,,181,U,hexagon,1,0,,,,,,,,,,,,,,,,repeat,number,numRpt,f,0.8269,Hi,,,,,,2,,,,,,,,low,5,0,5,0,1,,,,,,,,,
296926,2022-11-29_14h03.38.389,vts_reward_expectancy_bt,2022.2.4,MacIntel,60.0024001,Chrome,1440,900,,,,,0,902,,,,,,,,,,,,,,,,,146,B,circle,1,0,,,,,,,,,,,,,,,,repeat,number,numRpt,d,1.3047,Hi,,,,,,2,,,,,,,,low,6,0,6,0,1,,,,,,,,,
296926,2022-11-29_14h03.38.389,vts_reward_expectancy_bt,2022.2.4,MacIntel,60.0024001,Chrome,1440,900,,,,,1,903,,,,,,,,,,,,,,,,,132,D,star,1,0,,,,,,,,,,,,,,,,repeat,number,numRpt,d,1.0728,Lo,,,,,,2,,,,,,,,low,7,0,7,0,1,,,,,,,,,
296926,2022-11-29_14h03.38.389,vts_reward_expectancy_bt,2022.2.4,MacIntel,60.0024001,Chrome,1440,900,,,,,0,903,,,,,,,,,,,,,,,,,167,Y,hexagon,1,0,,,,,,,,,,,,,,,,switch,letter,lettSwt,k,0.7648,Hi,,,,,,2,,,,,,,,low,8,0,8,0,1,,,,,,,,,
296926,2022-11-29_14h03.38.389,vts_reward_expectancy_bt,2022.2.4,MacIntel,60.0024001,Chrome,1440,900,,,,,10,913,,,,,,,,,,,,,,,,,139,H,triangle,1,0,,,,,,,,,,,,,,,,switch,number,numSwt,d,0.706,Lo,,,,,,2,,,,,,,,low,9,0,9,0,1,,,,,,,,,
296926,2022-11-29_14h03.38.389,vts_reward_expectancy_bt,2022.2.4,MacIntel,60.0024001,Chrome,1440,900,,,,,0,913,,,,,,,,,,,,,,,,,160,S,circle,1,0,,,,,,,,,,,,,,,,repeat,number,numRpt,f,0.8897,Hi,,,,,,2,,,,,,,,low,10,0,10,0,1,,,,,,,,,
296926,2022-11-29_14h03.38.389,vts_reward_expectancy_bt,2022.2.4,MacIntel,60.0024001,Chrome,1440,900,,,,,10,923,,,,,,,,,,,,,,,,,174,W,star,1,0,,,,,,,,,,,,,,,,repeat,number,numRpt,f,0.4947,Lo,,,,,,2,,,,,,,,low,11,0,11,0,1,,,,,,,,,
296926,2022-11-29_14h03.38.389,vts_reward_expectancy_bt,2022.2.4,MacIntel,60.0024001,Chrome,1440,900,,,,,0,923,,,,,,,,,,,,,,,,,125,F,hexagon,1,0,,,,,,,,,,,,,,,,repeat,number,numRpt,d,0.7232,Hi,,,,,,2,,,,,,,,low,12,0,12,0,1,,,,,,,,,
296926,2022-11-29_14h03.38.389,vts_reward_expectancy_bt,2022.2.4,MacIntel,60.0024001,Chrome,1440,900,,,,,0,923,,,,,,,,,,,,,,,,,181,U,triangle,0,0,,,,,,,,,,,,,,,,repeat,number,NA,d,0.3895,Hi,,,,,,2,,,,,,,,low,13,0,13,0,1,,,,,,,,,
296926,2022-11-29_14h03.38.389,vts_reward_expectancy_bt,2022.2.4,MacIntel,60.0024001,Chrome,1440,900,,,,,1,924,,,,,,,,,,,,,,,,,146,B,circle,1,1,,,,,,,,,,,,,,,,repeat,number,numRpt,d,0.6735,Hi,,,,,,2,,,,,,,,low,14,0,14,0,1,,,,,,,,,
296926,2022-11-29_14h03.38.389,vts_reward_expectancy_bt,2022.2.4,MacIntel,60.0024001,Chrome,1440,900,,,,,1,925,,,,,,,,,,,,,,,,,132,D,star,1,0,,,,,,,,,,,,,,,,repeat,number,numRpt,d,0.4707,Lo,,,,,,2,,,,,,,,low,15,0,15,0,1,,,,,,,,,
296926,2022-11-29_14h03.38.389,vts_reward_expectancy_bt,2022.2.4,MacIntel,60.0024001,Chrome,1440,900,,,,,0,925,,,,,,,,,,,,,,,,,146,H,circle,1,0,,,,,,,,,,,,,,,,switch,letter,lettSwt,j,1.1425,Hi,,,,,,2,,,,,,,,low,16,0,16,0,1,,,,,,,,,
296926,2022-11-29_14h03.38.389,vts_reward_expectancy_bt,2022.2.4,MacIntel,60.0024001,Chrome,1440,900,,,,,10,935,,,,,,,,,,,,,,,,,181,Y,triangle,1,0,,,,,,,,,,,,,,,,repeat,letter,lettRpt,k,0.5896,Lo,,,,,,2,,,,,,,,low,17,0,17,0,1,,,,,,,,,
296926,2022-11-29_14h03.38.389,vts_reward_expectancy_bt,2022.2.4,MacIntel,60.0024001,Chrome,1440,900,,,,,10,945,,,,,,,,,,,,,,,,,139,D,hexagon,1,0,,,,,,,,,,,,,,,,repeat,letter,lettRpt,j,0.7772,Hi,,,,,,2,,,,,,,,low,18,0,18,0,1,,,,,,,,,
296926,2022-11-29_14h03.38.389,vts_reward_expectancy_bt,2022.2.4,MacIntel,60.0024001,Chrome,1440,900,,,,,1,946,,,,,,,,,,,,,,,,,174,W,star,1,0,,,,,,,,,,,,,,,,switch,number,numSwt,f,1.0414,Lo,,,,,,2,,,,,,,,low,19,0,19,0,1,,,,,,,,,
296926,2022-11-29_14h03.38.389,vts_reward_expectancy_bt,2022.2.4,MacIntel,60.0024001,Chrome,1440,900,,,,,1,947,,,,,,,,,,,,,,,,,125,F,star,1,0,,,,,,,,,,,,,,,,repeat,number,numRpt,d,0.8224,Lo,,,,,,2,,,,,,,,low,20,0,20,0,1,,,,,,,,,
296926,2022-11-29_14h03.38.389,vts_reward_expectancy_bt,2022.2.4,MacIntel,60.0024001,Chrome,1440,900,,,,,0,947,,,,,,,,,,,,,,,,,167,B,hexagon,1,0,,,,,,,,,,,,,,,,repeat,number,numRpt,f,1.5733,Hi,,,,,,2,,,,,,,,low,21,0,21,0,1,,,,,,,,,
296926,2022-11-29_14h03.38.389,vts_reward_expectancy_bt,2022.2.4,MacIntel,60.0024001,Chrome,1440,900,,,,,10,957,,,,,,,,,,,,,,,,,160,U,triangle,1,0,,,,,,,,,,,,,,,,switch,letter,lettSwt,k,0.7617,Lo,,,,,,2,,,,,,,,low,22,0,22,0,1,,,,,,,,,
296926,2022-11-29_14h03.38.389,vts_reward_expectancy_bt,2022.2.4,MacIntel,60.0024001,Chrome,1440,900,,,,,0,957,,,,,,,,,,,,,,,,,132,S,circle,1,0,,,,,,,,,,,,,,,,repeat,letter,lettRpt,k,1.0227,Hi,,,,,,2,,,,,,,,low,23,0,23,0,1,,,,,,,,,
296926,2022-11-29_14h03.38.389,vts_reward_expectancy_bt,2022.2.4,MacIntel,60.0024001,Chrome,1440,900,,,,,0,957,,,,,,,,,,,,,,,,,139,F,circle,1,0,,,,,,,,,,,,,,,,switch,number,numSwt,d,0.9455,Hi,,,,,,2,,,,,,,,low,24,0,24,0,1,,,,,,,,,
296926,2022-11-29_14h03.38.389,vts_reward_expectancy_bt,2022.2.4,MacIntel,60.0024001,Chrome,1440,900,,,,,1,958,,,,,,,,,,,,,,,,,125,S,hexagon,1,0,,,,,,,,,,,,,,,,repeat,number,numRpt,d,0.7088,Hi,,,,,,2,,,,,,,,low,25,0,25,0,1,,,,,,,,,
296926,2022-11-29_14h03.38.389,vts_reward_expectancy_bt,2022.2.4,MacIntel,60.0024001,Chrome,1440,900,,,,,1,959,,,,,,,,,,,,,,,,,146,Y,triangle,1,0,,,,,,,,,,,,,,,,repeat,number,numRpt,d,0.9302,Lo,,,,,,2,,,,,,,,low,26,0,26,0,1,,,,,,,,,
296926,2022-11-29_14h03.38.389,vts_reward_expectancy_bt,2022.2.4,MacIntel,60.0024001,Chrome,1440,900,,,,,10,969,,,,,,,,,,,,,,,,,181,D,star,1,0,,,,,,,,,,,,,,,,switch,letter,lettSwt,j,0.6889,Lo,,,,,,2,,,,,,,,low,27,0,27,0,1,,,,,,,,,
296926,2022-11-29_14h03.38.389,vts_reward_expectancy_bt,2022.2.4,MacIntel,60.0024001,Chrome,1440,900,,,,,10,979,,,,,,,,,,,,,,,,,160,U,hexagon,1,0,,,,,,,,,,,,,,,,repeat,letter,lettRpt,k,0.7904,Hi,,,,,,2,,,,,,,,low,28,0,28,0,1,,,,,,,,,
296926,2022-11-29_14h03.38.389,vts_reward_expectancy_bt,2022.2.4,MacIntel,60.0024001,Chrome,1440,900,,,,,10,989,,,,,,,,,,,,,,,,,132,B,star,1,0,,,,,,,,,,,,,,,,repeat,letter,lettRpt,j,0.6598,Lo,,,,,,2,,,,,,,,low,29,0,29,0,1,,,,,,,,,
296926,2022-11-29_14h03.38.389,vts_reward_expectancy_bt,2022.2.4,MacIntel,60.0024001,Chrome,1440,900,,,,,0,989,,,,,,,,,,,,,,,,,174,H,circle,1,0,,,,,,,,,,,,,,,,repeat,letter,lettRpt,j,0.8894,Hi,,,,,,2,,,,,,,,low,30,0,30,0,1,,,,,,,,,
296926,2022-11-29_14h03.38.389,vts_reward_expectancy_bt,2022.2.4,MacIntel,60.0024001,Chrome,1440,900,,,,,1,990,,,,,,,,,,,,,,,,,167,W,triangle,1,0,,,,,,,,,,,,,,,,repeat,letter,lettRpt,k,0.6599,Lo,,,,,,2,,,,,,,,low,31,0,31,0,1,,,,,,,,,
296926,2022-11-29_14h03.38.389,vts_reward_expectancy_bt,2022.2.4,MacIntel,60.0024001,Chrome,1440,900,,,,,1,991,,,,,,,,,,,,,,,,,167,S,triangle,1,0,,,,,,,,,,,,,,,,switch,number,numSwt,f,0.8286,Lo,,,,,,3,,,,,,space,0.9711,low,0,0,0,0,1,,,,,,,,,
296926,2022-11-29_14h03.38.389,vts_reward_expectancy_bt,2022.2.4,MacIntel,60.0024001,Chrome,1440,900,,,,,10,1001,,,,,,,,,,,,,,,,,160,F,hexagon,1,0,,,,,,,,,,,,,,,,repeat,number,numRpt,f,0.64,Hi,,,,,,3,,,,,,,,low,1,0,1,0,1,,,,,,,,,
296926,2022-11-29_14h03.38.389,vts_reward_expectancy_bt,2022.2.4,MacIntel,60.0024001,Chrome,1440,900,,,,,1,1002,,,,,,,,,,,,,,,,,181,Y,star,1,0,,,,,,,,,,,,,,,,repeat,number,numRpt,f,0.7643,Lo,,,,,,3,,,,,,,,low,2,0,2,0,1,,,,,,,,,
296926,2022-11-29_14h03.38.389,vts_reward_expectancy_bt,2022.2.4,MacIntel,60.0024001,Chrome,1440,900,,,,,0,1002,,,,,,,,,,,,,,,,,125,W,circle,1,0,,,,,,,,,,,,,,,,repeat,number,numRpt,d,0.7934,Hi,,,,,,3,,,,,,,,low,3,0,3,0,1,,,,,,,,,
296926,2022-11-29_14h03.38.389,vts_reward_expectancy_bt,2022.2.4,MacIntel,60.0024001,Chrome,1440,900,,,,,1,1003,,,,,,,,,,,,,,,,,139,U,triangle,1,0,,,,,,,,,,,,,,,,repeat,number,numRpt,d,0.8468,Lo,,,,,,3,,,,,,,,low,4,0,4,0,1,,,,,,,,,
296926,2022-11-29_14h03.38.389,vts_reward_expectancy_bt,2022.2.4,MacIntel,60.0024001,Chrome,1440,900,,,,,1,1004,,,,,,,,,,,,,,,,,174,B,hexagon,1,0,,,,,,,,,,,,,,,,switch,letter,lettSwt,j,0.3129,Hi,,,,,,3,,,,,,,,low,5,0,5,0,1,,,,,,,,,
296926,2022-11-29_14h03.38.389,vts_reward_expectancy_bt,2022.2.4,MacIntel,60.0024001,Chrome,1440,900,,,,,0,1004,,,,,,,,,,,,,,,,,146,D,star,0,0,,,,,,,,,,,,,,,,repeat,letter,NA,k,0.3108,Hi,,,,,,3,,,,,,,,low,6,0,6,0,1,,,,,,,,,
296926,2022-11-29_14h03.38.389,vts_reward_expectancy_bt,2022.2.4,MacIntel,60.0024001,Chrome,1440,900,,,,,0,1004,,,,,,,,,,,,,,,,,132,H,circle,0,1,,,,,,,,,,,,,,,,repeat,letter,NA,k,0.3783,Hi,,,,,,3,,,,,,,,low,7,0,7,0,1,,,,,,,,,
296926,2022-11-29_14h03.38.389,vts_reward_expectancy_bt,2022.2.4,MacIntel,60.0024001,Chrome,1440,900,,,,,1,1005,,,,,,,,,,,,,,,,,167,S,star,1,1,,,,,,,,,,,,,,,,repeat,letter,lettRpt,k,0.7455,Lo,,,,,,3,,,,,,,,low,8,0,8,0,1,,,,,,,,,
296926,2022-11-29_14h03.38.389,vts_reward_expectancy_bt,2022.2.4,MacIntel,60.0024001,Chrome,1440,900,,,,,0,1005,,,,,,,,,,,,,,,,,160,F,hexagon,1,0,,,,,,,,,,,,,,,,repeat,letter,lettRpt,j,0.662,Hi,,,,,,3,,,,,,,,low,9,0,9,0,1,,,,,,,,,
296926,2022-11-29_14h03.38.389,vts_reward_expectancy_bt,2022.2.4,MacIntel,60.0024001,Chrome,1440,900,,,,,0,1005,,,,,,,,,,,,,,,,,181,Y,circle,1,0,,,,,,,,,,,,,,,,switch,number,numSwt,f,1.0044,Hi,,,,,,3,,,,,,,,low,10,0,10,0,1,,,,,,,,,
296926,2022-11-29_14h03.38.389,vts_reward_expectancy_bt,2022.2.4,MacIntel,60.0024001,Chrome,1440,900,,,,,1,1006,,,,,,,,,,,,,,,,,125,W,triangle,1,0,,,,,,,,,,,,,,,,repeat,number,numRpt,d,0.644,Lo,,,,,,3,,,,,,,,low,11,0,11,0,1,,,,,,,,,
296926,2022-11-29_14h03.38.389,vts_reward_expectancy_bt,2022.2.4,MacIntel,60.0024001,Chrome,1440,900,,,,,1,1007,,,,,,,,,,,,,,,,,139,U,hexagon,1,0,,,,,,,,,,,,,,,,switch,letter,lettSwt,k,0.6558,Hi,,,,,,3,,,,,,,,low,12,0,12,0,1,,,,,,,,,
296926,2022-11-29_14h03.38.389,vts_reward_expectancy_bt,2022.2.4,MacIntel,60.0024001,Chrome,1440,900,,,,,1,1008,,,,,,,,,,,,,,,,,174,B,triangle,1,0,,,,,,,,,,,,,,,,repeat,letter,lettRpt,j,0.7339,Lo,,,,,,3,,,,,,,,low,13,0,13,0,1,,,,,,,,,
296926,2022-11-29_14h03.38.389,vts_reward_expectancy_bt,2022.2.4,MacIntel,60.0024001,Chrome,1440,900,,,,,1,1009,,,,,,,,,,,,,,,,,146,D,star,1,0,,,,,,,,,,,,,,,,switch,number,numSwt,d,1.1881,Lo,,,,,,3,,,,,,,,low,14,0,14,0,1,,,,,,,,,
296926,2022-11-29_14h03.38.389,vts_reward_expectancy_bt,2022.2.4,MacIntel,60.0024001,Chrome,1440,900,,,,,0,1009,,,,,,,,,,,,,,,,,132,H,circle,1,0,,,,,,,,,,,,,,,,repeat,number,numRpt,d,0.7429,Hi,,,,,,3,,,,,,,,low,15,0,15,0,1,,,,,,,,,
296926,2022-11-29_14h03.38.389,vts_reward_expectancy_bt,2022.2.4,MacIntel,60.0024001,Chrome,1440,900,,,,,1,1010,,,,,,,,,,,,,,,,,132,W,triangle,1,0,,,,,,,,,,,,,,,,repeat,number,numRpt,d,0.8097,Lo,,,,,,3,,,,,,,,low,16,0,16,0,1,,,,,,,,,
296926,2022-11-29_14h03.38.389,vts_reward_expectancy_bt,2022.2.4,MacIntel,60.0024001,Chrome,1440,900,,,,,0,1010,,,,,,,,,,,,,,,,,167,H,hexagon,1,0,,,,,,,,,,,,,,,,switch,letter,lettSwt,j,1.3623,Hi,,,,,,3,,,,,,,,low,17,0,17,0,1,,,,,,,,,
296926,2022-11-29_14h03.38.389,vts_reward_expectancy_bt,2022.2.4,MacIntel,60.0024001,Chrome,1440,900,,,,,10,1020,,,,,,,,,,,,,,,,,125,U,circle,1,0,,,,,,,,,,,,,,,,switch,number,numSwt,d,0.8396,Hi,,,,,,3,,,,,,,,low,18,0,18,0,1,,,,,,,,,
296926,2022-11-29_14h03.38.389,vts_reward_expectancy_bt,2022.2.4,MacIntel,60.0024001,Chrome,1440,900,,,,,1,1021,,,,,,,,,,,,,,,,,139,B,star,1,0,,,,,,,,,,,,,,,,repeat,number,numRpt,d,0.8117,Lo,,,,,,3,,,,,,,,low,19,0,19,0,1,,,,,,,,,
296926,2022-11-29_14h03.38.389,vts_reward_expectancy_bt,2022.2.4,MacIntel,60.0024001,Chrome,1440,900,,,,,1,1022,,,,,,,,,,,,,,,,,160,Y,triangle,1,0,,,,,,,,,,,,,,,,repeat,number,numRpt,f,0.6079,Lo,,,,,,3,,,,,,,,low,20,0,20,0,1,,,,,,,,,
296926,2022-11-29_14h03.38.389,vts_reward_expectancy_bt,2022.2.4,MacIntel,60.0024001,Chrome,1440,900,,,,,10,1032,,,,,,,,,,,,,,,,,146,D,star,1,0,,,,,,,,,,,,,,,,repeat,number,numRpt,d,0.6753,Lo,,,,,,3,,,,,,,,low,21,0,21,0,1,,,,,,,,,
296926,2022-11-29_14h03.38.389,vts_reward_expectancy_bt,2022.2.4,MacIntel,60.0024001,Chrome,1440,900,,,,,0,1032,,,,,,,,,,,,,,,,,181,S,hexagon,0,0,,,,,,,,,,,,,,,,repeat,number,NA,d,0.6887,Lo,,,,,,3,,,,,,,,low,22,0,22,0,1,,,,,,,,,
296926,2022-11-29_14h03.38.389,vts_reward_expectancy_bt,2022.2.4,MacIntel,60.0024001,Chrome,1440,900,,,,,0,1032,,,,,,,,,,,,,,,,,174,F,circle,1,1,,,,,,,,,,,,,,,,repeat,number,numRpt,f,0.9134,Hi,,,,,,3,,,,,,,,low,23,0,23,0,1,,,,,,,,,
296926,2022-11-29_14h03.38.389,vts_reward_expectancy_bt,2022.2.4,MacIntel,60.0024001,Chrome,1440,900,,,,,1,1033,,,,,,,,,,,,,,,,,167,D,star,1,0,,,,,,,,,,,,,,,,repeat,number,numRpt,f,1.0941,Lo,,,,,,3,,,,,,,,low,24,0,24,0,1,,,,,,,,,
296926,2022-11-29_14h03.38.389,vts_reward_expectancy_bt,2022.2.4,MacIntel,60.0024001,Chrome,1440,900,,,,,1,1034,,,,,,,,,,,,,,,,,174,B,triangle,1,0,,,,,,,,,,,,,,,,repeat,number,numRpt,f,0.848,Lo,,,,,,3,,,,,,,,low,25,0,25,0,1,,,,,,,,,
296926,2022-11-29_14h03.38.389,vts_reward_expectancy_bt,2022.2.4,MacIntel,60.0024001,Chrome,1440,900,,,,,0,1034,,,,,,,,,,,,,,,,,139,S,circle,1,0,,,,,,,,,,,,,,,,switch,letter,lettSwt,k,1.177,Hi,,,,,,3,,,,,,,,low,26,0,26,0,1,,,,,,,,,
296926,2022-11-29_14h03.38.389,vts_reward_expectancy_bt,2022.2.4,MacIntel,60.0024001,Chrome,1440,900,,,,,0,1034,,,,,,,,,,,,,,,,,181,W,hexagon,1,0,,,,,,,,,,,,,,,,repeat,letter,lettRpt,k,0.7596,Hi,,,,,,3,,,,,,,,low,27,0,27,0,1,,,,,,,,,
296926,2022-11-29_14h03.38.389,vts_reward_expectancy_bt,2022.2.4,MacIntel,60.0024001,Chrome,1440,900,,,,,0,1034,,,,,,,,,,,,,,,,,132,U,hexagon,1,0,,,,,,,,,,,,,,,,repeat,letter,lettRpt,k,0.6602,Hi,,,,,,3,,,,,,,,low,28,0,28,0,1,,,,,,,,,
296926,2022-11-29_14h03.38.389,vts_reward_expectancy_bt,2022.2.4,MacIntel,60.0024001,Chrome,1440,900,,,,,0,1034,,,,,,,,,,,,,,,,,125,F,circle,1,0,,,,,,,,,,,,,,,,repeat,letter,lettRpt,j,0.8271,Hi,,,,,,3,,,,,,,,low,29,0,29,0,1,,,,,,,,,
296926,2022-11-29_14h03.38.389,vts_reward_expectancy_bt,2022.2.4,MacIntel,60.0024001,Chrome,1440,900,,,,,10,1044,,,,,,,,,,,,,,,,,160,H,triangle,1,0,,,,,,,,,,,,,,,,switch,number,numSwt,f,0.5598,Lo,,,,,,3,,,,,,,,low,30,0,30,0,1,,,,,,,,,
296926,2022-11-29_14h03.38.389,vts_reward_expectancy_bt,2022.2.4,MacIntel,60.0024001,Chrome,1440,900,,,,,1,1045,,,,,,,,,,,,,,,,,146,Y,star,1,0,,,,,,,,,,,,,,,,repeat,number,numRpt,d,0.6128,Lo,,,,,,3,,,,,,,,low,31,0,31,0,1,,,,,,,,,
296926,2022-11-29_14h03.38.389,vts_reward_expectancy_bt,2022.2.4,MacIntel,60.0024001,Chrome,1440,900,,,,,1,1046,,,,,,,,,,,,,,,,,174,B,triangle,1,0,,,,,,,,,,,,,,,,repeat,number,numRpt,f,0.9331,Lo,,,,,,4,,,,,,space,1.6563,low,0,0,0,0,1,,,,,,,,,
296926,2022-11-29_14h03.38.389,vts_reward_expectancy_bt,2022.2.4,MacIntel,60.0024001,Chrome,1440,900,,,,,0,1046,,,,,,,,,,,,,,,,,160,S,circle,1,0,,,,,,,,,,,,,,,,repeat,number,numRpt,f,1.0597,Hi,,,,,,4,,,,,,,,low,1,0,1,0,1,,,,,,,,,
296926,2022-11-29_14h03.38.389,vts_reward_expectancy_bt,2022.2.4,MacIntel,60.0024001,Chrome,1440,900,,,,,10,1056,,,,,,,,,,,,,,,,,132,D,hexagon,1,0,,,,,,,,,,,,,,,,repeat,number,numRpt,d,0.4065,Hi,,,,,,4,,,,,,,,low,2,0,2,0,1,,,,,,,,,
296926,2022-11-29_14h03.38.389,vts_reward_expectancy_bt,2022.2.4,MacIntel,60.0024001,Chrome,1440,900,,,,,1,1057,,,,,,,,,,,,,,,,,139,W,star,1,0,,,,,,,,,,,,,,,,repeat,number,numRpt,d,0.4897,Lo,,,,,,4,,,,,,,,low,3,0,3,0,1,,,,,,,,,
296926,2022-11-29_14h03.38.389,vts_reward_expectancy_bt,2022.2.4,MacIntel,60.0024001,Chrome,1440,900,,,,,10,1067,,,,,,,,,,,,,,,,,146,U,triangle,1,0,,,,,,,,,,,,,,,,repeat,number,numRpt,d,0.6961,Lo,,,,,,4,,,,,,,,low,4,0,4,0,1,,,,,,,,,
296926,2022-11-29_14h03.38.389,vts_reward_expectancy_bt,2022.2.4,MacIntel,60.0024001,Chrome,1440,900,,,,,10,1077,,,,,,,,,,,,,,,,,125,Y,circle,1,0,,,,,,,,,,,,,,,,switch,letter,lettSwt,k,0.5961,Hi,,,,,,4,,,,,,,,low,5,0,5,0,1,,,,,,,,,
296926,2022-11-29_14h03.38.389,vts_reward_expectancy_bt,2022.2.4,MacIntel,60.0024001,Chrome,1440,900,,,,,10,1087,,,,,,,,,,,,,,,,,167,H,hexagon,1,0,,,,,,,,,,,,,,,,repeat,letter,lettRpt,j,0.4606,Hi,,,,,,4,,,,,,,,low,6,0,6,0,1,,,,,,,,,
296926,2022-11-29_14h03.38.389,vts_reward_expectancy_bt,2022.2.4,MacIntel,60.0024001,Chrome,1440,900,,,,,1,1088,,,,,,,,,,,,,,,,,181,F,star,1,0,,,,,,,,,,,,,,,,switch,number,numSwt,f,0.6612,Lo,,,,,,4,,,,,,,,low,7,0,7,0,1,,,,,,,,,
296926,2022-11-29_14h03.38.389,vts_reward_expectancy_bt,2022.2.4,MacIntel,60.0024001,Chrome,1440,900,,,,,0,1088,,,,,,,,,,,,,,,,,174,B,hexagon,0,0,,,,,,,,,,,,,,,,repeat,number,NA,d,0.5225,Lo,,,,,,4,,,,,,,,low,8,0,8,0,1,,,,,,,,,
296926,2022-11-29_14h03.38.389,vts_reward_expectancy_bt,2022.2.4,MacIntel,60.0024001,Chrome,1440,900,,,,,1,1089,,,,,,,,,,,,,,,,,160,S,star,1,1,,,,,,,,,,,,,,,,repeat,number,numRpt,f,0.7961,Lo,,,,,,4,,,,,,,,low,9,0,9,0,1,,,,,,,,,
296926,2022-11-29_14h03.38.389,vts_reward_expectancy_bt,2022.2.4,MacIntel,60.0024001,Chrome,1440,900,,,,,10,1099,,,,,,,,,,,,,,,,,132,D,circle,1,0,,,,,,,,,,,,,,,,repeat,number,numRpt,d,0.6758,Hi,,,,,,4,,,,,,,,low,10,0,10,0,1,,,,,,,,,
296926,2022-11-29_14h03.38.389,vts_reward_expectancy_bt,2022.2.4,MacIntel,60.0024001,Chrome,1440,900,,,,,1,1100,,,,,,,,,,,,,,,,,139,W,triangle,1,0,,,,,,,,,,,,,,,,repeat,number,numRpt,d,0.7246,Lo,,,,,,4,,,,,,,,low,11,0,11,0,1,,,,,,,,,
296926,2022-11-29_14h03.38.389,vts_reward_expectancy_bt,2022.2.4,MacIntel,60.0024001,Chrome,1440,900,,,,,1,1101,,,,,,,,,,,,,,,,,146,U,star,1,0,,,,,,,,,,,,,,,,repeat,number,numRpt,d,0.6578,Lo,,,,,,4,,,,,,,,low,12,0,12,0,1,,,,,,,,,
296926,2022-11-29_14h03.38.389,vts_reward_expectancy_bt,2022.2.4,MacIntel,60.0024001,Chrome,1440,900,,,,,1,1102,,,,,,,,,,,,,,,,,125,Y,triangle,1,0,,,,,,,,,,,,,,,,repeat,number,numRpt,d,0.6592,Lo,,,,,,4,,,,,,,,low,13,0,13,0,1,,,,,,,,,
296926,2022-11-29_14h03.38.389,vts_reward_expectancy_bt,2022.2.4,MacIntel,60.0024001,Chrome,1440,900,,,,,1,1103,,,,,,,,,,,,,,,,,167,H,circle,1,0,,,,,,,,,,,,,,,,repeat,number,numRpt,f,0.6252,Hi,,,,,,4,,,,,,,,low,14,0,14,0,1,,,,,,,,,
296926,2022-11-29_14h03.38.389,vts_reward_expectancy_bt,2022.2.4,MacIntel,60.0024001,Chrome,1440,900,,,,,10,1113,,,,,,,,,,,,,,,,,181,F,hexagon,1,0,,,,,,,,,,,,,,,,repeat,number,numRpt,f,0.6949,Hi,,,,,,4,,,,,,,,low,15,0,15,0,1,,,,,,,,,
296926,2022-11-29_14h03.38.389,vts_reward_expectancy_bt,2022.2.4,MacIntel,60.0024001,Chrome,1440,900,,,,,0,1113,,,,,,,,,,,,,,,,,167,H,hexagon,1,0,,,,,,,,,,,,,,,,repeat,number,numRpt,f,0.9933,Hi,,,,,,4,,,,,,,,low,16,0,16,0,1,,,,,,,,,
296926,2022-11-29_14h03.38.389,vts_reward_expectancy_bt,2022.2.4,MacIntel,60.0024001,Chrome,1440,900,,,,,1,1114,,,,,,,,,,,,,,,,,160,S,triangle,1,0,,,,,,,,,,,,,,,,switch,letter,lettSwt,k,0.5632,Lo,,,,,,4,,,,,,,,low,17,0,17,0,1,,,,,,,,,
296926,2022-11-29_14h03.38.389,vts_reward_expectancy_bt,2022.2.4,MacIntel,60.0024001,Chrome,1440,900,,,,,1,1115,,,,,,,,,,,,,,,,,174,F,circle,1,0,,,,,,,,,,,,,,,,repeat,letter,lettRpt,j,0.5411,Hi,,,,,,4,,,,,,,,low,18,0,18,0,1,,,,,,,,,
296926,2022-11-29_14h03.38.389,vts_reward_expectancy_bt,2022.2.4,MacIntel,60.0024001,Chrome,1440,900,,,,,10,1125,,,,,,,,,,,,,,,,,139,W,star,1,0,,,,,,,,,,,,,,,,repeat,letter,lettRpt,k,0.4758,Lo,,,,,,4,,,,,,,,low,19,0,19,0,1,,,,,,,,,
296926,2022-11-29_14h03.38.389,vts_reward_expectancy_bt,2022.2.4,MacIntel,60.0024001,Chrome,1440,900,,,,,10,1135,,,,,,,,,,,,,,,,,125,Y,circle,1,0,,,,,,,,,,,,,,,,repeat,letter,lettRpt,k,0.6589,Hi,,,,,,4,,,,,,,,low,20,0,20,0,1,,,,,,,,,
296926,2022-11-29_14h03.38.389,vts_reward_expectancy_bt,2022.2.4,MacIntel,60.0024001,Chrome,1440,900,,,,,10,1145,,,,,,,,,,,,,,,,,132,D,hexagon,1,0,,,,,,,,,,,,,,,,repeat,letter,lettRpt,j,0.5612,Hi,,,,,,4,,,,,,,,low,21,0,21,0,1,,,,,,,,,
296926,2022-11-29_14h03.38.389,vts_reward_expectancy_bt,2022.2.4,MacIntel,60.0024001,Chrome,1440,900,,,,,1,1146,,,,,,,,,,,,,,,,,146,U,star,1,0,,,,,,,,,,,,,,,,repeat,letter,lettRpt,k,0.6236,Lo,,,,,,4,,,,,,,,low,22,0,22,0,1,,,,,,,,,
296926,2022-11-29_14h03.38.389,vts_reward_expectancy_bt,2022.2.4,MacIntel,60.0024001,Chrome,1440,900,,,,,1,1147,,,,,,,,,,,,,,,,,181,B,triangle,1,0,,,,,,,,,,,,,,,,repeat,letter,lettRpt,j,0.4766,Lo,,,,,,4,,,,,,,,low,23,0,23,0,1,,,,,,,,,
296926,2022-11-29_14h03.38.389,vts_reward_expectancy_bt,2022.2.4,MacIntel,60.0024001,Chrome,1440,900,,,,,1,1148,,,,,,,,,,,,,,,,,125,F,hexagon,1,0,,,,,,,,,,,,,,,,switch,number,numSwt,d,0.46,Hi,,,,,,4,,,,,,,,low,24,0,24,0,1,,,,,,,,,
296926,2022-11-29_14h03.38.389,vts_reward_expectancy_bt,2022.2.4,MacIntel,60.0024001,Chrome,1440,900,,,,,1,1149,,,,,,,,,,,,,,,,,146,S,star,1,0,,,,,,,,,,,,,,,,repeat,number,numRpt,d,0.76,Lo,,,,,,4,,,,,,,,low,25,0,25,0,1,,,,,,,,,
296926,2022-11-29_14h03.38.389,vts_reward_expectancy_bt,2022.2.4,MacIntel,60.0024001,Chrome,1440,900,,,,,10,1159,,,,,,,,,,,,,,,,,132,H,circle,1,0,,,,,,,,,,,,,,,,repeat,number,numRpt,d,0.6713,Hi,,,,,,4,,,,,,,,low,26,0,26,0,1,,,,,,,,,
296926,2022-11-29_14h03.38.389,vts_reward_expectancy_bt,2022.2.4,MacIntel,60.0024001,Chrome,1440,900,,,,,1,1160,,,,,,,,,,,,,,,,,160,B,triangle,1,0,,,,,,,,,,,,,,,,repeat,number,numRpt,f,0.6462,Lo,,,,,,4,,,,,,,,low,27,0,27,0,1,,,,,,,,,
296926,2022-11-29_14h03.38.389,vts_reward_expectancy_bt,2022.2.4,MacIntel,60.0024001,Chrome,1440,900,,,,,10,1170,,,,,,,,,,,,,,,,,174,Y,star,1,0,,,,,,,,,,,,,,,,repeat,number,numRpt,f,0.6944,Lo,,,,,,4,,,,,,,,low,28,0,28,0,1,,,,,,,,,
296926,2022-11-29_14h03.38.389,vts_reward_expectancy_bt,2022.2.4,MacIntel,60.0024001,Chrome,1440,900,,,,,1,1171,,,,,,,,,,,,,,,,,167,U,triangle,1,0,,,,,,,,,,,,,,,,repeat,number,numRpt,f,0.5793,Lo,,,,,,4,,,,,,,,low,29,0,29,0,1,,,,,,,,,
296926,2022-11-29_14h03.38.389,vts_reward_expectancy_bt,2022.2.4,MacIntel,60.0024001,Chrome,1440,900,,,,,1,1172,,,,,,,,,,,,,,,,,181,D,circle,1,0,,,,,,,,,,,,,,,,repeat,number,numRpt,f,0.5953,Hi,,,,,,4,,,,,,,,low,30,0,30,0,1,,,,,,,,,
296926,2022-11-29_14h03.38.389,vts_reward_expectancy_bt,2022.2.4,MacIntel,60.0024001,Chrome,1440,900,,,,,0,1172,,,,,,,,,,,,,,,,,139,W,hexagon,0,0,,,,,,,,,,,,,,,,repeat,number,NA,f,0.4773,Hi,,,,,,4,,,,,,,,low,31,0,31,0,1,,,,,,,,,
296926,2022-11-29_14h03.38.389,vts_reward_expectancy_bt,2022.2.4,MacIntel,60.0024001,Chrome,1440,900,,,,,1,1173,,,,,,,,,,,,,,,,,132,H,star,1,1,,,,,,,,,,,,,,,,switch,letter,lettSwt,j,0.7815,Lo,,,,,,5,,,,,,space,0.2878,low,0,0,0,0,1,,,,,,,,,
296926,2022-11-29_14h03.38.389,vts_reward_expectancy_bt,2022.2.4,MacIntel,60.0024001,Chrome,1440,900,,,,,10,1183,,,,,,,,,,,,,,,,,139,W,triangle,1,0,,,,,,,,,,,,,,,,repeat,letter,lettRpt,k,0.4766,Lo,,,,,,5,,,,,,,,low,1,0,1,0,1,,,,,,,,,
296926,2022-11-29_14h03.38.389,vts_reward_expectancy_bt,2022.2.4,MacIntel,60.0024001,Chrome,1440,900,,,,,0,1183,,,,,,,,,,,,,,,,,167,U,hexagon,1,0,,,,,,,,,,,,,,,,repeat,letter,lettRpt,k,0.5616,Hi,,,,,,5,,,,,,,,low,2,0,2,0,1,,,,,,,,,
296926,2022-11-29_14h03.38.389,vts_reward_expectancy_bt,2022.2.4,MacIntel,60.0024001,Chrome,1440,900,,,,,10,1193,,,,,,,,,,,,,,,,,125,B,circle,1,0,,,,,,,,,,,,,,,,switch,number,numSwt,d,0.375,Hi,,,,,,5,,,,,,,,low,3,0,3,0,1,,,,,,,,,
296926,2022-11-29_14h03.38.389,vts_reward_expectancy_bt,2022.2.4,MacIntel,60.0024001,Chrome,1440,900,,,,,0,1193,,,,,,,,,,,,,,,,,146,Y,star,0,0,,,,,,,,,,,,,,,,repeat,number,NA,f,0.5605,Hi,,,,,,5,,,,,,,,low,4,0,4,0,1,,,,,,,,,
296926,2022-11-29_14h03.38.389,vts_reward_expectancy_bt,2022.2.4,MacIntel,60.0024001,Chrome,1440,900,,,,,0,1193,,,,,,,,,,,,,,,,,160,S,triangle,0,1,,,,,,,,,,,,,,,,repeat,number,NA,d,0.5288,Hi,,,,,,5,,,,,,,,low,5,0,5,0,1,,,,,,,,,
296926,2022-11-29_14h03.38.389,vts_reward_expectancy_bt,2022.2.4,MacIntel,60.0024001,Chrome,1440,900,,,,,10,1203,,,,,,,,,,,,,,,,,181,D,hexagon,1,1,,,,,,,,,,,,,,,,repeat,number,numRpt,f,0.5454,Hi,,,,,,5,,,,,,,,low,6,0,6,0,1,,,,,,,,,
296926,2022-11-29_14h03.38.389,vts_reward_expectancy_bt,2022.2.4,MacIntel,60.0024001,Chrome,1440,900,,,,,10,1213,,,,,,,,,,,,,,,,,174,F,circle,1,0,,,,,,,,,,,,,,,,repeat,number,numRpt,f,0.5312,Hi,,,,,,5,,,,,,,,low,7,0,7,0,1,,,,,,,,,
296926,2022-11-29_14h03.38.389,vts_reward_expectancy_bt,2022.2.4,MacIntel,60.0024001,Chrome,1440,900,,,,,1,1214,,,,,,,,,,,,,,,,,132,H,triangle,1,0,,,,,,,,,,,,,,,,repeat,number,numRpt,d,0.6808,Lo,,,,,,5,,,,,,,,low,8,0,8,0,1,,,,,,,,,
296926,2022-11-29_14h03.38.389,vts_reward_expectancy_bt,2022.2.4,MacIntel,60.0024001,Chrome,1440,900,,,,,0,1214,,,,,,,,,,,,,,,,,139,W,hexagon,1,0,,,,,,,,,,,,,,,,repeat,number,numRpt,d,0.6733,Hi,,,,,,5,,,,,,,,low,9,0,9,0,1,,,,,,,,,
296926,2022-11-29_14h03.38.389,vts_reward_expectancy_bt,2022.2.4,MacIntel,60.0024001,Chrome,1440,900,,,,,0,1214,,,,,,,,,,,,,,,,,167,U,circle,1,0,,,,,,,,,,,,,,,,switch,letter,lettSwt,k,0.6943,Hi,,,,,,5,,,,,,,,low,10,0,10,0,1,,,,,,,,,
296926,2022-11-29_14h03.38.389,vts_reward_expectancy_bt,2022.2.4,MacIntel,60.0024001,Chrome,1440,900,,,,,10,1224,,,,,,,,,,,,,,,,,125,B,star,1,0,,,,,,,,,,,,,,,,repeat,letter,lettRpt,j,0.3624,Lo,,,,,,5,,,,,,,,low,11,0,11,0,1,,,,,,,,,
296926,2022-11-29_14h03.38.389,vts_reward_expectancy_bt,2022.2.4,MacIntel,60.0024001,Chrome,1440,900,,,,,0,1224,,,,,,,,,,,,,,,,,146,Y,circle,1,0,,,,,,,,,,,,,,,,repeat,letter,lettRpt,k,0.5425,Hi,,,,,,5,,,,,,,,low,12,0,12,0,1,,,,,,,,,
296926,2022-11-29_14h03.38.389,vts_reward_expectancy_bt,2022.2.4,MacIntel,60.0024001,Chrome,1440,900,,,,,0,1224,,,,,,,,,,,,,,,,,160,S,triangle,0,0,,,,,,,,,,,,,,,,repeat,letter,NA,j,0.36,Hi,,,,,,5,,,,,,,,low,13,0,13,0,1,,,,,,,,,
296926,2022-11-29_14h03.38.389,vts_reward_expectancy_bt,2022.2.4,MacIntel,60.0024001,Chrome,1440,900,,,,,1,1225,,,,,,,,,,,,,,,,,181,D,star,1,1,,,,,,,,,,,,,,,,switch,number,numSwt,f,0.5215,Lo,,,,,,5,,,,,,,,low,14,0,14,0,1,,,,,,,,,
296926,2022-11-29_14h03.38.389,vts_reward_expectancy_bt,2022.2.4,MacIntel,60.0024001,Chrome,1440,900,,,,,1,1226,,,,,,,,,,,,,,,,,174,F,hexagon,1,0,,,,,,,,,,,,,,,,repeat,number,numRpt,f,0.6092,Hi,,,,,,5,,,,,,,,low,15,0,15,0,1,,,,,,,,,
296926,2022-11-29_14h03.38.389,vts_reward_expectancy_bt,2022.2.4,MacIntel,60.0024001,Chrome,1440,900,,,,,0,1226,,,,,,,,,,,,,,,,,139,S,triangle,0,0,,,,,,,,,,,,,,,,repeat,number,NA,f,0.5932,Hi,,,,,,5,,,,,,,,low,16,0,16,0,1,,,,,,,,,
296926,2022-11-29_14h03.38.389,vts_reward_expectancy_bt,2022.2.4,MacIntel,60.0024001,Chrome,1440,900,,,,,1,1227,,,,,,,,,,,,,,,,,181,D,star,1,1,,,,,,,,,,,,,,,,repeat,number,numRpt,f,0.6785,Lo,,,,,,5,,,,,,,,low,17,0,17,0,1,,,,,,,,,
296926,2022-11-29_14h03.38.389,vts_reward_expectancy_bt,2022.2.4,MacIntel,60.0024001,Chrome,1440,900,,,,,0,1227,,,,,,,,,,,,,,,,,174,F,circle,0,0,,,,,,,,,,,,,,,,repeat,number,NA,d,0.4087,Lo,,,,,,5,,,,,,,,low,18,0,18,0,1,,,,,,,,,
296926,2022-11-29_14h03.38.389,vts_reward_expectancy_bt,2022.2.4,MacIntel,60.0024001,Chrome,1440,900,,,,,10,1237,,,,,,,,,,,,,,,,,132,H,hexagon,1,1,,,,,,,,,,,,,,,,repeat,number,numRpt,d,0.6061,Hi,,,,,,5,,,,,,,,low,19,0,19,0,1,,,,,,,,,
296926,2022-11-29_14h03.38.389,vts_reward_expectancy_bt,2022.2.4,MacIntel,60.0024001,Chrome,1440,900,,,,,0,1237,,,,,,,,,,,,,,,,,125,B,hexagon,1,0,,,,,,,,,,,,,,,,repeat,number,numRpt,d,0.7369,Hi,,,,,,5,,,,,,,,low,20,0,20,0,1,,,,,,,,,
296926,2022-11-29_14h03.38.389,vts_reward_expectancy_bt,2022.2.4,MacIntel,60.0024001,Chrome,1440,900,,,,,10,1247,,,,,,,,,,,,,,,,,167,Y,circle,1,0,,,,,,,,,,,,,,,,switch,letter,lettSwt,k,0.5947,Hi,,,,,,5,,,,,,,,low,21,0,21,0,1,,,,,,,,,
296926,2022-11-29_14h03.38.389,vts_reward_expectancy_bt,2022.2.4,MacIntel,60.0024001,Chrome,1440,900,,,,,10,1257,,,,,,,,,,,,,,,,,146,U,star,1,0,,,,,,,,,,,,,,,,repeat,letter,lettRpt,k,0.6435,Lo,,,,,,5,,,,,,,,low,22,0,22,0,1,,,,,,,,,
296926,2022-11-29_14h03.38.389,vts_reward_expectancy_bt,2022.2.4,MacIntel,60.0024001,Chrome,1440,900,,,,,1,1258,,,,,,,,,,,,,,,,,160,W,triangle,1,0,,,,,,,,,,,,,,,,repeat,letter,lettRpt,k,0.6631,Lo,,,,,,5,,,,,,,,low,23,0,23,0,1,,,,,,,,,
296926,2022-11-29_14h03.38.389,vts_reward_expectancy_bt,2022.2.4,MacIntel,60.0024001,Chrome,1440,900,,,,,1,1259,,,,,,,,,,,,,,,,,167,S,triangle,1,0,,,,,,,,,,,,,,,,repeat,letter,lettRpt,k,0.776,Lo,,,,,,5,,,,,,,,low,24,0,24,0,1,,,,,,,,,
296926,2022-11-29_14h03.38.389,vts_reward_expectancy_bt,2022.2.4,MacIntel,60.0024001,Chrome,1440,900,,,,,0,1259,,,,,,,,,,,,,,,,,146,W,circle,1,0,,,,,,,,,,,,,,,,repeat,letter,lettRpt,k,0.6605,Hi,,,,,,5,,,,,,,,low,25,0,25,0,1,,,,,,,,,
296926,2022-11-29_14h03.38.389,vts_reward_expectancy_bt,2022.2.4,MacIntel,60.0024001,Chrome,1440,900,,,,,0,1259,,,,,,,,,,,,,,,,,125,B,star,0,0,,,,,,,,,,,,,,,,switch,number,NA,f,0.6368,Hi,,,,,,5,,,,,,,,low,26,0,26,0,1,,,,,,,,,
296926,2022-11-29_14h03.38.389,vts_reward_expectancy_bt,2022.2.4,MacIntel,60.0024001,Chrome,1440,900,,,,,0,1259,,,,,,,,,,,,,,,,,160,D,hexagon,1,1,,,,,,,,,,,,,,,,repeat,number,numRpt,f,1.0601,Hi,,,,,,5,,,,,,,,low,27,0,27,0,1,,,,,,,,,
296926,2022-11-29_14h03.38.389,vts_reward_expectancy_bt,2022.2.4,MacIntel,60.0024001,Chrome,1440,900,,,,,1,1260,,,,,,,,,,,,,,,,,174,F,triangle,1,0,,,,,,,,,,,,,,,,repeat,number,numRpt,f,0.8261,Lo,,,,,,5,,,,,,,,low,28,0,28,0,1,,,,,,,,,
296926,2022-11-29_14h03.38.389,vts_reward_expectancy_bt,2022.2.4,MacIntel,60.0024001,Chrome,1440,900,,,,,10,1270,,,,,,,,,,,,,,,,,132,U,star,1,0,,,,,,,,,,,,,,,,repeat,number,numRpt,d,0.4592,Lo,,,,,,5,,,,,,,,low,29,0,29,0,1,,,,,,,,,
296926,2022-11-29_14h03.38.389,vts_reward_expectancy_bt,2022.2.4,MacIntel,60.0024001,Chrome,1440,900,,,,,1,1271,,,,,,,,,,,,,,,,,139,Y,hexagon,1,0,,,,,,,,,,,,,,,,repeat,number,numRpt,d,0.612,Hi,,,,,,5,,,,,,,,low,30,0,30,0,1,,,,,,,,,
296926,2022-11-29_14h03.38.389,vts_reward_expectancy_bt,2022.2.4,MacIntel,60.0024001,Chrome,1440,900,,,,,10,1281,,,,,,,,,,,,,,,,,181,H,circle,1,0,,,,,,,,,,,,,,,,repeat,number,numRpt,f,0.3591,Hi,,,,,,5,,,,,,,,low,31,0,31,0,1,,,,,,,,,
296926,2022-11-29_14h03.38.389,vts_reward_expectancy_bt,2022.2.4,MacIntel,60.0024001,Chrome,1440,900,,,,,0,1281,,,,,,,,,,,,,,,,,139,W,circle,1,0,,,,,,,,,,,,,,,,repeat,number,numRpt,d,0.8264,Hi,,,,,,6,,,,,,space,2.3782,low,0,0,0,0,1,,,,,,,,,
296926,2022-11-29_14h03.38.389,vts_reward_expectancy_bt,2022.2.4,MacIntel,60.0024001,Chrome,1440,900,,,,,1,1282,,,,,,,,,,,,,,,,,125,D,star,1,0,,,,,,,,,,,,,,,,repeat,number,numRpt,d,0.5437,Lo,,,,,,6,,,,,,,,low,1,0,1,0,1,,,,,,,,,
296926,2022-11-29_14h03.38.389,vts_reward_expectancy_bt,2022.2.4,MacIntel,60.0024001,Chrome,1440,900,,,,,10,1292,,,,,,,,,,,,,,,,,132,B,hexagon,1,0,,,,,,,,,,,,,,,,repeat,number,numRpt,d,0.481,Hi,,,,,,6,,,,,,,,low,2,0,2,0,1,,,,,,,,,
296926,2022-11-29_14h03.38.389,vts_reward_expectancy_bt,2022.2.4,MacIntel,60.0024001,Chrome,1440,900,,,,,1,1293,,,,,,,,,,,,,,,,,174,H,triangle,1,0,,,,,,,,,,,,,,,,repeat,number,numRpt,f,0.4104,Lo,,,,,,6,,,,,,,,low,3,0,3,0,1,,,,,,,,,
296926,2022-11-29_14h03.38.389,vts_reward_expectancy_bt,2022.2.4,MacIntel,60.0024001,Chrome,1440,900,,,,,10,1303,,,,,,,,,,,,,,,,,167,U,circle,1,0,,,,,,,,,,,,,,,,repeat,number,numRpt,f,0.4936,Hi,,,,,,6,,,,,,,,low,4,0,4,0,1,,,,,,,,,
296926,2022-11-29_14h03.38.389,vts_reward_expectancy_bt,2022.2.4,MacIntel,60.0024001,Chrome,1440,900,,,,,10,1313,,,,,,,,,,,,,,,,,181,S,star,1,0,,,,,,,,,,,,,,,,repeat,number,numRpt,f,0.358,Lo,,,,,,6,,,,,,,,low,5,0,5,0,1,,,,,,,,,
296926,2022-11-29_14h03.38.389,vts_reward_expectancy_bt,2022.2.4,MacIntel,60.0024001,Chrome,1440,900,,,,,0,1313,,,,,,,,,,,,,,,,,160,F,hexagon,1,0,,,,,,,,,,,,,,,,repeat,number,numRpt,f,0.7766,Hi,,,,,,6,,,,,,,,low,6,0,6,0,1,,,,,,,,,
296926,2022-11-29_14h03.38.389,vts_reward_expectancy_bt,2022.2.4,MacIntel,60.0024001,Chrome,1440,900,,,,,0,1313,,,,,,,,,,,,,,,,,146,Y,triangle,0,0,,,,,,,,,,,,,,,,repeat,number,NA,f,0.4773,Hi,,,,,,6,,,,,,,,low,7,0,7,0,1,,,,,,,,,
296926,2022-11-29_14h03.38.389,vts_reward_expectancy_bt,2022.2.4,MacIntel,60.0024001,Chrome,1440,900,,,,,10,1323,,,,,,,,,,,,,,,,,139,W,triangle,1,1,,,,,,,,,,,,,,,,repeat,number,numRpt,d,0.4774,Lo,,,,,,6,,,,,,,,low,8,0,8,0,1,,,,,,,,,
296926,2022-11-29_14h03.38.389,vts_reward_expectancy_bt,2022.2.4,MacIntel,60.0024001,Chrome,1440,900,,,,,1,1324,,,,,,,,,,,,,,,,,125,D,circle,1,0,,,,,,,,,,,,,,,,repeat,number,numRpt,d,0.511,Hi,,,,,,6,,,,,,,,low,9,0,9,0,1,,,,,,,,,
296926,2022-11-29_14h03.38.389,vts_reward_expectancy_bt,2022.2.4,MacIntel,60.0024001,Chrome,1440,900,,,,,10,1334,,,,,,,,,,,,,,,,,132,B,hexagon,1,0,,,,,,,,,,,,,,,,repeat,number,numRpt,d,0.5129,Hi,,,,,,6,,,,,,,,low,10,0,10,0,1,,,,,,,,,
296926,2022-11-29_14h03.38.389,vts_reward_expectancy_bt,2022.2.4,MacIntel,60.0024001,Chrome,1440,900,,,,,10,1344,,,,,,,,,,,,,,,,,174,H,star,1,0,,,,,,,,,,,,,,,,repeat,number,numRpt,f,0.5447,Lo,,,,,,6,,,,,,,,low,11,0,11,0,1,,,,,,,,,
296926,2022-11-29_14h03.38.389,vts_reward_expectancy_bt,2022.2.4,MacIntel,60.0024001,Chrome,1440,900,,,,,1,1345,,,,,,,,,,,,,,,,,167,U,triangle,1,0,,,,,,,,,,,,,,,,repeat,number,numRpt,f,0.61,Lo,,,,,,6,,,,,,,,low,12,0,12,0,1,,,,,,,,,
