participant,date,expName,psychopyVersion,OS,frameRate,browser,xResolution,yResolution,key_resp.keys,key_resp.rt,training_resp.keys,training_resp.rt,points_trial,points_cumul,trainBlock,training.thisRepN,training.thisTrialN,training.thisN,training.thisIndex,training.ran,LTriangleOpac,LCircleOpac,LHexagonOpac,LStarOpac,RTriangleOpac,RCircleOpac,RHexagonOpac,RStarOpac,LShape_ID,RShape_ID,curr_topStim,curr_bottStim,curr_shape,acc,E1,target_resp_prac1.keys,target_resp_prac1.rt,pracBlock,task1_prac_trials.thisRepN,task1_prac_trials.thisTrialN,task1_prac_trials.thisN,task1_prac_trials.thisIndex,task1_prac_trials.ran,target_resp_prac2.keys,target_resp_prac2.rt,task2_praac_trials.thisRepN,task2_praac_trials.thisTrialN,task2_praac_trials.thisN,task2_praac_trials.thisIndex,task2_praac_trials.ran,alt,task,condition,target_resp.keys,rewCond,vts_practice_trials.thisRepN,vts_practice_trials.thisTrialN,vts_practice_trials.thisN,vts_practice_trials.thisIndex,vts_practice_trials.ran,target_resp.rt,blockNum,trials_norew.thisRepN,trials_norew.thisTrialN,trials_norew.thisN,trials_norew.thisIndex,trials_norew.ran,key_resp_2.keys,key_resp_2.rt,rewExpectancy,trials_rew.thisRepN,trials_rew.thisTrialN,trials_rew.thisN,trials_rew.thisIndex,trials_rew.ran,Q1,Q2,Q2_text,Q3,Q4,Q5,Q5_text,xRes,yRes
297097,2022-12-05_18h03.57.563,vts_reward_expectancy_bt,2022.2.4,MacIntel,60.0024001,Chrome,1470,956,,,,,,,,,,,,,,,,,,,,,,,,,,,,,,,,,,,,,,,,,,,,,,,,,,,,,,,,,,,,,,,,,,,,,,,,,,,,
297097,2022-12-05_18h03.57.563,vts_reward_expectancy_bt,2022.2.4,MacIntel,60.0024001,Chrome,1470,956,space,129.7132,,,,,,,,,,,,,,,,,,,,,,,,,,,,,,,,,,,,,,,,,,,,,,,,,,,,,,,,,,,,,,,,,,,,,,,,,,
297097,2022-12-05_18h03.57.563,vts_reward_expectancy_bt,2022.2.4,MacIntel,60.0024001,Chrome,1470,956,,,,,,,,,,,,,,,,,,,,,,,,,,,,,,,,,,,,,,,,,,,,,,,,,,,,,,,,,,,,,,,,,,,,,,,,,,,,
297097,2022-12-05_18h03.57.563,vts_reward_expectancy_bt,2022.2.4,MacIntel,60.0024001,Chrome,1470,956,,,a,3.8752,1,1,0,0,0,0,7,1,0,0,1,0,0,1,0,0,hexagon,circle,,,,,,,,,,,,,,,,,,,,,,,,,,,,,,,,,,,,,,,,,,,,,,,,,,,,,,
297097,2022-12-05_18h03.57.563,vts_reward_expectancy_bt,2022.2.4,MacIntel,60.0024001,Chrome,1470,956,,,l,0.9694,10,11,0,0,1,1,10,1,0,0,0,1,0,1,0,0,star ,circle,,,,,,,,,,,,,,,,,,,,,,,,,,,,,,,,,,,,,,,,,,,,,,,,,,,,,,
297097,2022-12-05_18h03.57.563,vts_reward_expectancy_bt,2022.2.4,MacIntel,60.0024001,Chrome,1470,956,,,a,0.7919,10,21,0,0,2,2,3,1,0,1,0,0,1,0,0,0,circle,triangle,,,,,,,,,,,,,,,,,,,,,,,,,,,,,,,,,,,,,,,,,,,,,,,,,,,,,,
297097,2022-12-05_18h03.57.563,vts_reward_expectancy_bt,2022.2.4,MacIntel,60.0024001,Chrome,1470,956,,,l,1.2916,1,22,0,0,3,3,11,1,0,0,0,1,0,0,1,0,star,hexagon,,,,,,,,,,,,,,,,,,,,,,,,,,,,,,,,,,,,,,,,,,,,,,,,,,,,,,
297097,2022-12-05_18h03.57.563,vts_reward_expectancy_bt,2022.2.4,MacIntel,60.0024001,Chrome,1470,956,,,l,4.7242,10,32,0,0,4,4,0,1,1,0,0,0,0,1,0,0,triangle,circle,,,,,,,,,,,,,,,,,,,,,,,,,,,,,,,,,,,,,,,,,,,,,,,,,,,,,,
297097,2022-12-05_18h03.57.563,vts_reward_expectancy_bt,2022.2.4,MacIntel,60.0024001,Chrome,1470,956,,,a,0.6721,10,42,0,0,5,5,5,1,0,1,0,0,0,0,0,1,circle,star,,,,,,,,,,,,,,,,,,,,,,,,,,,,,,,,,,,,,,,,,,,,,,,,,,,,,,
297097,2022-12-05_18h03.57.563,vts_reward_expectancy_bt,2022.2.4,MacIntel,60.0024001,Chrome,1470,956,,,a,0.5142,1,43,0,0,6,6,6,1,0,0,1,0,1,0,0,0,hexagon,triangle,,,,,,,,,,,,,,,,,,,,,,,,,,,,,,,,,,,,,,,,,,,,,,,,,,,,,,
297097,2022-12-05_18h03.57.563,vts_reward_expectancy_bt,2022.2.4,MacIntel,60.0024001,Chrome,1470,956,,,a,0.552,10,53,0,0,7,7,2,1,1,0,0,0,0,0,0,1,triangle,star,,,,,,,,,,,,,,,,,,,,,,,,,,,,,,,,,,,,,,,,,,,,,,,,,,,,,,
297097,2022-12-05_18h03.57.563,vts_reward_expectancy_bt,2022.2.4,MacIntel,60.0024001,Chrome,1470,956,,,l,0.6066,1,54,0,0,8,8,9,1,0,0,0,1,1,0,0,0,star,triangle,,,,,,,,,,,,,,,,,,,,,,,,,,,,,,,,,,,,,,,,,,,,,,,,,,,,,,
297097,2022-12-05_18h03.57.563,vts_reward_expectancy_bt,2022.2.4,MacIntel,60.0024001,Chrome,1470,956,,,a,0.7289,10,64,0,0,9,9,1,1,1,0,0,0,0,0,1,0,triangle,hexagon,,,,,,,,,,,,,,,,,,,,,,,,,,,,,,,,,,,,,,,,,,,,,,,,,,,,,,
297097,2022-12-05_18h03.57.563,vts_reward_expectancy_bt,2022.2.4,MacIntel,60.0024001,Chrome,1470,956,,,a,0.7769,1,65,0,0,10,10,8,1,0,0,1,0,0,0,0,1,hexagon,star,,,,,,,,,,,,,,,,,,,,,,,,,,,,,,,,,,,,,,,,,,,,,,,,,,,,,,
297097,2022-12-05_18h03.57.563,vts_reward_expectancy_bt,2022.2.4,MacIntel,60.0024001,Chrome,1470,956,,,l,0.2492,10,75,0,0,11,11,4,1,0,1,0,0,0,0,1,0,circle,hexagon,,,,,,,,,,,,,,,,,,,,,,,,,,,,,,,,,,,,,,,,,,,,,,,,,,,,,,
297097,2022-12-05_18h03.57.563,vts_reward_expectancy_bt,2022.2.4,MacIntel,60.0024001,Chrome,1470,956,,,l,0.5693,1,76,0,1,0,12,2,1,1,0,0,0,0,0,0,1,triangle,star,,,,,,,,,,,,,,,,,,,,,,,,,,,,,,,,,,,,,,,,,,,,,,,,,,,,,,
297097,2022-12-05_18h03.57.563,vts_reward_expectancy_bt,2022.2.4,MacIntel,60.0024001,Chrome,1470,956,,,a,0.31,1,77,0,1,1,13,7,1,0,0,1,0,0,1,0,0,hexagon,circle,,,,,,,,,,,,,,,,,,,,,,,,,,,,,,,,,,,,,,,,,,,,,,,,,,,,,,
297097,2022-12-05_18h03.57.563,vts_reward_expectancy_bt,2022.2.4,MacIntel,60.0024001,Chrome,1470,956,,,l,0.0845,1,78,0,1,2,14,0,1,1,0,0,0,0,1,0,0,triangle,circle,,,,,,,,,,,,,,,,,,,,,,,,,,,,,,,,,,,,,,,,,,,,,,,,,,,,,,
297097,2022-12-05_18h03.57.563,vts_reward_expectancy_bt,2022.2.4,MacIntel,60.0024001,Chrome,1470,956,,,l,0.5681,10,88,0,1,3,15,10,1,0,0,0,1,0,1,0,0,star ,circle,,,,,,,,,,,,,,,,,,,,,,,,,,,,,,,,,,,,,,,,,,,,,,,,,,,,,,
297097,2022-12-05_18h03.57.563,vts_reward_expectancy_bt,2022.2.4,MacIntel,60.0024001,Chrome,1470,956,,,a,0.486,10,98,0,1,4,16,11,1,0,0,0,1,0,0,1,0,star,hexagon,,,,,,,,,,,,,,,,,,,,,,,,,,,,,,,,,,,,,,,,,,,,,,,,,,,,,,
297097,2022-12-05_18h03.57.563,vts_reward_expectancy_bt,2022.2.4,MacIntel,60.0024001,Chrome,1470,956,,,l,0.3237,10,108,0,1,5,17,8,1,0,0,1,0,0,0,0,1,hexagon,star,,,,,,,,,,,,,,,,,,,,,,,,,,,,,,,,,,,,,,,,,,,,,,,,,,,,,,
297097,2022-12-05_18h03.57.563,vts_reward_expectancy_bt,2022.2.4,MacIntel,60.0024001,Chrome,1470,956,,,l,0.6006,10,118,0,1,6,18,6,1,0,0,1,0,1,0,0,0,hexagon,triangle,,,,,,,,,,,,,,,,,,,,,,,,,,,,,,,,,,,,,,,,,,,,,,,,,,,,,,
297097,2022-12-05_18h03.57.563,vts_reward_expectancy_bt,2022.2.4,MacIntel,60.0024001,Chrome,1470,956,,,l,0.6322,1,119,0,1,7,19,1,1,1,0,0,0,0,0,1,0,triangle,hexagon,,,,,,,,,,,,,,,,,,,,,,,,,,,,,,,,,,,,,,,,,,,,,,,,,,,,,,
297097,2022-12-05_18h03.57.563,vts_reward_expectancy_bt,2022.2.4,MacIntel,60.0024001,Chrome,1470,956,,,l,0.9851,1,120,0,1,8,20,3,1,0,1,0,0,1,0,0,0,circle,triangle,,,,,,,,,,,,,,,,,,,,,,,,,,,,,,,,,,,,,,,,,,,,,,,,,,,,,,
297097,2022-12-05_18h03.57.563,vts_reward_expectancy_bt,2022.2.4,MacIntel,60.0024001,Chrome,1470,956,,,a,0.5593,1,121,0,1,9,21,9,1,0,0,0,1,1,0,0,0,star,triangle,,,,,,,,,,,,,,,,,,,,,,,,,,,,,,,,,,,,,,,,,,,,,,,,,,,,,,
297097,2022-12-05_18h03.57.563,vts_reward_expectancy_bt,2022.2.4,MacIntel,60.0024001,Chrome,1470,956,,,l,0.1089,1,122,0,1,10,22,4,1,0,1,0,0,0,0,1,0,circle,hexagon,,,,,,,,,,,,,,,,,,,,,,,,,,,,,,,,,,,,,,,,,,,,,,,,,,,,,,
297097,2022-12-05_18h03.57.563,vts_reward_expectancy_bt,2022.2.4,MacIntel,60.0024001,Chrome,1470,956,,,a,0.1018,1,123,0,1,11,23,5,1,0,1,0,0,0,0,0,1,circle,star,,,,,,,,,,,,,,,,,,,,,,,,,,,,,,,,,,,,,,,,,,,,,,,,,,,,,,
297097,2022-12-05_18h03.57.563,vts_reward_expectancy_bt,2022.2.4,MacIntel,60.0024001,Chrome,1470,956,,,l,0.1103,1,124,0,2,0,24,8,1,0,0,1,0,0,0,0,1,hexagon,star,,,,,,,,,,,,,,,,,,,,,,,,,,,,,,,,,,,,,,,,,,,,,,,,,,,,,,
297097,2022-12-05_18h03.57.563,vts_reward_expectancy_bt,2022.2.4,MacIntel,60.0024001,Chrome,1470,956,,,l,0.0314,10,134,0,2,1,25,5,1,0,1,0,0,0,0,0,1,circle,star,,,,,,,,,,,,,,,,,,,,,,,,,,,,,,,,,,,,,,,,,,,,,,,,,,,,,,
297097,2022-12-05_18h03.57.563,vts_reward_expectancy_bt,2022.2.4,MacIntel,60.0024001,Chrome,1470,956,,,a,0.1031,1,135,0,2,2,26,9,1,0,0,0,1,1,0,0,0,star,triangle,,,,,,,,,,,,,,,,,,,,,,,,,,,,,,,,,,,,,,,,,,,,,,,,,,,,,,
297097,2022-12-05_18h03.57.563,vts_reward_expectancy_bt,2022.2.4,MacIntel,60.0024001,Chrome,1470,956,,,a,0.0696,1,136,0,2,3,27,10,1,0,0,0,1,0,1,0,0,star ,circle,,,,,,,,,,,,,,,,,,,,,,,,,,,,,,,,,,,,,,,,,,,,,,,,,,,,,,
297097,2022-12-05_18h03.57.563,vts_reward_expectancy_bt,2022.2.4,MacIntel,60.0024001,Chrome,1470,956,,,a,0.0095,10,146,0,2,4,28,3,1,0,1,0,0,1,0,0,0,circle,triangle,,,,,,,,,,,,,,,,,,,,,,,,,,,,,,,,,,,,,,,,,,,,,,,,,,,,,,
297097,2022-12-05_18h03.57.563,vts_reward_expectancy_bt,2022.2.4,MacIntel,60.0024001,Chrome,1470,956,,,a,0.0004,1,147,0,2,5,29,1,1,1,0,0,0,0,0,1,0,triangle,hexagon,,,,,,,,,,,,,,,,,,,,,,,,,,,,,,,,,,,,,,,,,,,,,,,,,,,,,,
297097,2022-12-05_18h03.57.563,vts_reward_expectancy_bt,2022.2.4,MacIntel,60.0024001,Chrome,1470,956,,,a,0.0333,10,157,0,2,6,30,4,1,0,1,0,0,0,0,1,0,circle,hexagon,,,,,,,,,,,,,,,,,,,,,,,,,,,,,,,,,,,,,,,,,,,,,,,,,,,,,,
297097,2022-12-05_18h03.57.563,vts_reward_expectancy_bt,2022.2.4,MacIntel,60.0024001,Chrome,1470,956,,,l,0.0877,1,158,0,2,7,31,2,1,1,0,0,0,0,0,0,1,triangle,star,,,,,,,,,,,,,,,,,,,,,,,,,,,,,,,,,,,,,,,,,,,,,,,,,,,,,,
297097,2022-12-05_18h03.57.563,vts_reward_expectancy_bt,2022.2.4,MacIntel,60.0024001,Chrome,1470,956,,,l,0.0002,1,159,0,2,8,32,11,1,0,0,0,1,0,0,1,0,star,hexagon,,,,,,,,,,,,,,,,,,,,,,,,,,,,,,,,,,,,,,,,,,,,,,,,,,,,,,
297097,2022-12-05_18h03.57.563,vts_reward_expectancy_bt,2022.2.4,MacIntel,60.0024001,Chrome,1470,956,,,a,0.0242,1,160,0,2,9,33,0,1,1,0,0,0,0,1,0,0,triangle,circle,,,,,,,,,,,,,,,,,,,,,,,,,,,,,,,,,,,,,,,,,,,,,,,,,,,,,,
297097,2022-12-05_18h03.57.563,vts_reward_expectancy_bt,2022.2.4,MacIntel,60.0024001,Chrome,1470,956,,,a,0.0121,1,161,0,2,10,34,7,1,0,0,1,0,0,1,0,0,hexagon,circle,,,,,,,,,,,,,,,,,,,,,,,,,,,,,,,,,,,,,,,,,,,,,,,,,,,,,,
297097,2022-12-05_18h03.57.563,vts_reward_expectancy_bt,2022.2.4,MacIntel,60.0024001,Chrome,1470,956,,,l,0.1351,10,171,0,2,11,35,6,1,0,0,1,0,1,0,0,0,hexagon,triangle,,,,,,,,,,,,,,,,,,,,,,,,,,,,,,,,,,,,,,,,,,,,,,,,,,,,,,
297097,2022-12-05_18h03.57.563,vts_reward_expectancy_bt,2022.2.4,MacIntel,60.0024001,Chrome,1470,956,,,a,1.8205,10,181,1,0,0,0,4,1,0,1,0,0,0,0,1,0,circle,hexagon,,,,,,,,,,,,,,,,,,,,,,,,,,,,,,,,,,,,,,,,,,,,,,,,,,,,,,
297097,2022-12-05_18h03.57.563,vts_reward_expectancy_bt,2022.2.4,MacIntel,60.0024001,Chrome,1470,956,,,a,3.8504,1,182,1,0,1,1,6,1,0,0,1,0,1,0,0,0,hexagon,triangle,,,,,,,,,,,,,,,,,,,,,,,,,,,,,,,,,,,,,,,,,,,,,,,,,,,,,,
297097,2022-12-05_18h03.57.563,vts_reward_expectancy_bt,2022.2.4,MacIntel,60.0024001,Chrome,1470,956,,,a,0.0001,10,192,1,0,2,2,3,1,0,1,0,0,1,0,0,0,circle,triangle,,,,,,,,,,,,,,,,,,,,,,,,,,,,,,,,,,,,,,,,,,,,,,,,,,,,,,
297097,2022-12-05_18h03.57.563,vts_reward_expectancy_bt,2022.2.4,MacIntel,60.0024001,Chrome,1470,956,,,l,0.0832,1,193,1,0,3,3,8,1,0,0,1,0,0,0,0,1,hexagon,star,,,,,,,,,,,,,,,,,,,,,,,,,,,,,,,,,,,,,,,,,,,,,,,,,,,,,,
297097,2022-12-05_18h03.57.563,vts_reward_expectancy_bt,2022.2.4,MacIntel,60.0024001,Chrome,1470,956,,,a,0.1437,1,194,1,0,4,4,7,1,0,0,1,0,0,1,0,0,hexagon,circle,,,,,,,,,,,,,,,,,,,,,,,,,,,,,,,,,,,,,,,,,,,,,,,,,,,,,,
297097,2022-12-05_18h03.57.563,vts_reward_expectancy_bt,2022.2.4,MacIntel,60.0024001,Chrome,1470,956,,,a,0.018,1,195,1,0,5,5,2,1,1,0,0,0,0,0,0,1,triangle,star,,,,,,,,,,,,,,,,,,,,,,,,,,,,,,,,,,,,,,,,,,,,,,,,,,,,,,
297097,2022-12-05_18h03.57.563,vts_reward_expectancy_bt,2022.2.4,MacIntel,60.0024001,Chrome,1470,956,,,a,0.1642,10,205,1,0,6,6,1,1,1,0,0,0,0,0,1,0,triangle,hexagon,,,,,,,,,,,,,,,,,,,,,,,,,,,,,,,,,,,,,,,,,,,,,,,,,,,,,,
297097,2022-12-05_18h03.57.563,vts_reward_expectancy_bt,2022.2.4,MacIntel,60.0024001,Chrome,1470,956,,,a,0.0859,10,215,1,0,7,7,0,1,1,0,0,0,0,1,0,0,triangle,circle,,,,,,,,,,,,,,,,,,,,,,,,,,,,,,,,,,,,,,,,,,,,,,,,,,,,,,
297097,2022-12-05_18h03.57.563,vts_reward_expectancy_bt,2022.2.4,MacIntel,60.0024001,Chrome,1470,956,,,l,0.5755,1,216,1,0,8,8,5,1,0,1,0,0,0,0,0,1,circle,star,,,,,,,,,,,,,,,,,,,,,,,,,,,,,,,,,,,,,,,,,,,,,,,,,,,,,,
297097,2022-12-05_18h03.57.563,vts_reward_expectancy_bt,2022.2.4,MacIntel,60.0024001,Chrome,1470,956,,,a,0.2339,1,217,1,0,9,9,9,1,0,0,0,1,1,0,0,0,star,triangle,,,,,,,,,,,,,,,,,,,,,,,,,,,,,,,,,,,,,,,,,,,,,,,,,,,,,,
297097,2022-12-05_18h03.57.563,vts_reward_expectancy_bt,2022.2.4,MacIntel,60.0024001,Chrome,1470,956,,,a,0.5935,1,218,1,0,10,10,11,1,0,0,0,1,0,0,1,0,star,hexagon,,,,,,,,,,,,,,,,,,,,,,,,,,,,,,,,,,,,,,,,,,,,,,,,,,,,,,
297097,2022-12-05_18h03.57.563,vts_reward_expectancy_bt,2022.2.4,MacIntel,60.0024001,Chrome,1470,956,,,l,0.5521,10,228,1,0,11,11,10,1,0,0,0,1,0,1,0,0,star ,circle,,,,,,,,,,,,,,,,,,,,,,,,,,,,,,,,,,,,,,,,,,,,,,,,,,,,,,
297097,2022-12-05_18h03.57.563,vts_reward_expectancy_bt,2022.2.4,MacIntel,60.0024001,Chrome,1470,956,,,l,0.5836,10,238,1,1,0,12,5,1,0,1,0,0,0,0,0,1,circle,star,,,,,,,,,,,,,,,,,,,,,,,,,,,,,,,,,,,,,,,,,,,,,,,,,,,,,,
297097,2022-12-05_18h03.57.563,vts_reward_expectancy_bt,2022.2.4,MacIntel,60.0024001,Chrome,1470,956,,,l,1.0484,10,248,1,1,1,13,3,1,0,1,0,0,1,0,0,0,circle,triangle,,,,,,,,,,,,,,,,,,,,,,,,,,,,,,,,,,,,,,,,,,,,,,,,,,,,,,
297097,2022-12-05_18h03.57.563,vts_reward_expectancy_bt,2022.2.4,MacIntel,60.0024001,Chrome,1470,956,,,a,60.8557,1,249,1,1,2,14,9,1,0,0,0,1,1,0,0,0,star,triangle,,,,,,,,,,,,,,,,,,,,,,,,,,,,,,,,,,,,,,,,,,,,,,,,,,,,,,
297097,2022-12-05_18h03.57.563,vts_reward_expectancy_bt,2022.2.4,MacIntel,60.0024001,Chrome,1470,956,,,l,0.5564,1,250,1,1,3,15,11,1,0,0,0,1,0,0,1,0,star,hexagon,,,,,,,,,,,,,,,,,,,,,,,,,,,,,,,,,,,,,,,,,,,,,,,,,,,,,,
297097,2022-12-05_18h03.57.563,vts_reward_expectancy_bt,2022.2.4,MacIntel,60.0024001,Chrome,1470,956,,,l,5.3103,1,251,1,1,4,16,2,1,1,0,0,0,0,0,0,1,triangle,star,,,,,,,,,,,,,,,,,,,,,,,,,,,,,,,,,,,,,,,,,,,,,,,,,,,,,,
297097,2022-12-05_18h03.57.563,vts_reward_expectancy_bt,2022.2.4,MacIntel,60.0024001,Chrome,1470,956,,,l,20.1388,10,261,1,1,5,17,7,1,0,0,1,0,0,1,0,0,hexagon,circle,,,,,,,,,,,,,,,,,,,,,,,,,,,,,,,,,,,,,,,,,,,,,,,,,,,,,,
297097,2022-12-05_18h03.57.563,vts_reward_expectancy_bt,2022.2.4,MacIntel,60.0024001,Chrome,1470,956,,,a,0.0553,10,271,1,1,6,18,4,1,0,1,0,0,0,0,1,0,circle,hexagon,,,,,,,,,,,,,,,,,,,,,,,,,,,,,,,,,,,,,,,,,,,,,,,,,,,,,,
297097,2022-12-05_18h03.57.563,vts_reward_expectancy_bt,2022.2.4,MacIntel,60.0024001,Chrome,1470,956,,,a,0.0369,10,281,1,1,7,19,0,1,1,0,0,0,0,1,0,0,triangle,circle,,,,,,,,,,,,,,,,,,,,,,,,,,,,,,,,,,,,,,,,,,,,,,,,,,,,,,
297097,2022-12-05_18h03.57.563,vts_reward_expectancy_bt,2022.2.4,MacIntel,60.0024001,Chrome,1470,956,,,l,0.0003,1,282,1,1,8,20,8,1,0,0,1,0,0,0,0,1,hexagon,star,,,,,,,,,,,,,,,,,,,,,,,,,,,,,,,,,,,,,,,,,,,,,,,,,,,,,,
297097,2022-12-05_18h03.57.563,vts_reward_expectancy_bt,2022.2.4,MacIntel,60.0024001,Chrome,1470,956,,,a,0.1726,1,283,1,1,9,21,10,1,0,0,0,1,0,1,0,0,star ,circle,,,,,,,,,,,,,,,,,,,,,,,,,,,,,,,,,,,,,,,,,,,,,,,,,,,,,,
297097,2022-12-05_18h03.57.563,vts_reward_expectancy_bt,2022.2.4,MacIntel,60.0024001,Chrome,1470,956,,,l,0.3039,10,293,1,1,10,22,6,1,0,0,1,0,1,0,0,0,hexagon,triangle,,,,,,,,,,,,,,,,,,,,,,,,,,,,,,,,,,,,,,,,,,,,,,,,,,,,,,
297097,2022-12-05_18h03.57.563,vts_reward_expectancy_bt,2022.2.4,MacIntel,60.0024001,Chrome,1470,956,,,a,0.0492,1,294,1,1,11,23,1,1,1,0,0,0,0,0,1,0,triangle,hexagon,,,,,,,,,,,,,,,,,,,,,,,,,,,,,,,,,,,,,,,,,,,,,,,,,,,,,,
297097,2022-12-05_18h03.57.563,vts_reward_expectancy_bt,2022.2.4,MacIntel,60.0024001,Chrome,1470,956,,,l,0.0246,10,304,1,2,0,24,2,1,1,0,0,0,0,0,0,1,triangle,star,,,,,,,,,,,,,,,,,,,,,,,,,,,,,,,,,,,,,,,,,,,,,,,,,,,,,,
297097,2022-12-05_18h03.57.563,vts_reward_expectancy_bt,2022.2.4,MacIntel,60.0024001,Chrome,1470,956,,,a,0.0269,1,305,1,2,1,25,11,1,0,0,0,1,0,0,1,0,star,hexagon,,,,,,,,,,,,,,,,,,,,,,,,,,,,,,,,,,,,,,,,,,,,,,,,,,,,,,
297097,2022-12-05_18h03.57.563,vts_reward_expectancy_bt,2022.2.4,MacIntel,60.0024001,Chrome,1470,956,,,a,0.0211,10,315,1,2,2,26,9,1,0,0,0,1,1,0,0,0,star,triangle,,,,,,,,,,,,,,,,,,,,,,,,,,,,,,,,,,,,,,,,,,,,,,,,,,,,,,
297097,2022-12-05_18h03.57.563,vts_reward_expectancy_bt,2022.2.4,MacIntel,60.0024001,Chrome,1470,956,,,l,0.0004,10,325,1,2,3,27,10,1,0,0,0,1,0,1,0,0,star ,circle,,,,,,,,,,,,,,,,,,,,,,,,,,,,,,,,,,,,,,,,,,,,,,,,,,,,,,
297097,2022-12-05_18h03.57.563,vts_reward_expectancy_bt,2022.2.4,MacIntel,60.0024001,Chrome,1470,956,,,l,0.0883,10,335,1,2,4,28,4,1,0,1,0,0,0,0,1,0,circle,hexagon,,,,,,,,,,,,,,,,,,,,,,,,,,,,,,,,,,,,,,,,,,,,,,,,,,,,,,
297097,2022-12-05_18h03.57.563,vts_reward_expectancy_bt,2022.2.4,MacIntel,60.0024001,Chrome,1470,956,,,l,0.0509,1,336,1,2,5,29,0,1,1,0,0,0,0,1,0,0,triangle,circle,,,,,,,,,,,,,,,,,,,,,,,,,,,,,,,,,,,,,,,,,,,,,,,,,,,,,,
297097,2022-12-05_18h03.57.563,vts_reward_expectancy_bt,2022.2.4,MacIntel,60.0024001,Chrome,1470,956,,,a,0.0415,10,346,1,2,6,30,3,1,0,1,0,0,1,0,0,0,circle,triangle,,,,,,,,,,,,,,,,,,,,,,,,,,,,,,,,,,,,,,,,,,,,,,,,,,,,,,
297097,2022-12-05_18h03.57.563,vts_reward_expectancy_bt,2022.2.4,MacIntel,60.0024001,Chrome,1470,956,,,a,0.1164,1,347,1,2,7,31,6,1,0,0,1,0,1,0,0,0,hexagon,triangle,,,,,,,,,,,,,,,,,,,,,,,,,,,,,,,,,,,,,,,,,,,,,,,,,,,,,,
297097,2022-12-05_18h03.57.563,vts_reward_expectancy_bt,2022.2.4,MacIntel,60.0024001,Chrome,1470,956,,,l,0.0226,10,357,1,2,8,32,7,1,0,0,1,0,0,1,0,0,hexagon,circle,,,,,,,,,,,,,,,,,,,,,,,,,,,,,,,,,,,,,,,,,,,,,,,,,,,,,,
297097,2022-12-05_18h03.57.563,vts_reward_expectancy_bt,2022.2.4,MacIntel,60.0024001,Chrome,1470,956,,,l,0.001,1,358,1,2,9,33,1,1,1,0,0,0,0,0,1,0,triangle,hexagon,,,,,,,,,,,,,,,,,,,,,,,,,,,,,,,,,,,,,,,,,,,,,,,,,,,,,,
297097,2022-12-05_18h03.57.563,vts_reward_expectancy_bt,2022.2.4,MacIntel,60.0024001,Chrome,1470,956,,,l,0.069,1,359,1,2,10,34,8,1,0,0,1,0,0,0,0,1,hexagon,star,,,,,,,,,,,,,,,,,,,,,,,,,,,,,,,,,,,,,,,,,,,,,,,,,,,,,,
297097,2022-12-05_18h03.57.563,vts_reward_expectancy_bt,2022.2.4,MacIntel,60.0024001,Chrome,1470,956,,,a,0.1575,1,360,1,2,11,35,5,1,0,1,0,0,0,0,0,1,circle,star,,,,,,,,,,,,,,,,,,,,,,,,,,,,,,,,,,,,,,,,,,,,,,,,,,,,,,
297097,2022-12-05_18h03.57.563,vts_reward_expectancy_bt,2022.2.4,MacIntel,60.0024001,Chrome,1470,956,,,a,0.6368,10,370,2,0,0,0,4,1,0,1,0,0,0,0,1,0,circle,hexagon,,,,,,,,,,,,,,,,,,,,,,,,,,,,,,,,,,,,,,,,,,,,,,,,,,,,,,
297097,2022-12-05_18h03.57.563,vts_reward_expectancy_bt,2022.2.4,MacIntel,60.0024001,Chrome,1470,956,,,l,0.0249,10,380,2,0,1,1,0,1,1,0,0,0,0,1,0,0,triangle,circle,,,,,,,,,,,,,,,,,,,,,,,,,,,,,,,,,,,,,,,,,,,,,,,,,,,,,,
297097,2022-12-05_18h03.57.563,vts_reward_expectancy_bt,2022.2.4,MacIntel,60.0024001,Chrome,1470,956,,,l,0.0495,10,390,2,0,2,2,10,1,0,0,0,1,0,1,0,0,star ,circle,,,,,,,,,,,,,,,,,,,,,,,,,,,,,,,,,,,,,,,,,,,,,,,,,,,,,,
297097,2022-12-05_18h03.57.563,vts_reward_expectancy_bt,2022.2.4,MacIntel,60.0024001,Chrome,1470,956,,,l,0.0003,10,400,2,0,3,3,6,1,0,0,1,0,1,0,0,0,hexagon,triangle,,,,,,,,,,,,,,,,,,,,,,,,,,,,,,,,,,,,,,,,,,,,,,,,,,,,,,
297097,2022-12-05_18h03.57.563,vts_reward_expectancy_bt,2022.2.4,MacIntel,60.0024001,Chrome,1470,956,,,l,0.1183,1,401,2,0,4,4,11,1,0,0,0,1,0,0,1,0,star,hexagon,,,,,,,,,,,,,,,,,,,,,,,,,,,,,,,,,,,,,,,,,,,,,,,,,,,,,,
297097,2022-12-05_18h03.57.563,vts_reward_expectancy_bt,2022.2.4,MacIntel,60.0024001,Chrome,1470,956,,,a,0.1232,1,402,2,0,5,5,9,1,0,0,0,1,1,0,0,0,star,triangle,,,,,,,,,,,,,,,,,,,,,,,,,,,,,,,,,,,,,,,,,,,,,,,,,,,,,,
297097,2022-12-05_18h03.57.563,vts_reward_expectancy_bt,2022.2.4,MacIntel,60.0024001,Chrome,1470,956,,,a,0.0858,1,403,2,0,6,6,8,1,0,0,1,0,0,0,0,1,hexagon,star,,,,,,,,,,,,,,,,,,,,,,,,,,,,,,,,,,,,,,,,,,,,,,,,,,,,,,
297097,2022-12-05_18h03.57.563,vts_reward_expectancy_bt,2022.2.4,MacIntel,60.0024001,Chrome,1470,956,,,l,0.0348,1,404,2,0,7,7,5,1,0,1,0,0,0,0,0,1,circle,star,,,,,,,,,,,,,,,,,,,,,,,,,,,,,,,,,,,,,,,,,,,,,,,,,,,,,,
297097,2022-12-05_18h03.57.563,vts_reward_expectancy_bt,2022.2.4,MacIntel,60.0024001,Chrome,1470,956,,,l,0.0521,1,405,2,0,8,8,7,1,0,0,1,0,0,1,0,0,hexagon,circle,,,,,,,,,,,,,,,,,,,,,,,,,,,,,,,,,,,,,,,,,,,,,,,,,,,,,,
297097,2022-12-05_18h03.57.563,vts_reward_expectancy_bt,2022.2.4,MacIntel,60.0024001,Chrome,1470,956,,,l,0.1524,1,406,2,0,9,9,1,1,1,0,0,0,0,0,1,0,triangle,hexagon,,,,,,,,,,,,,,,,,,,,,,,,,,,,,,,,,,,,,,,,,,,,,,,,,,,,,,
297097,2022-12-05_18h03.57.563,vts_reward_expectancy_bt,2022.2.4,MacIntel,60.0024001,Chrome,1470,956,,,a,0.0373,10,416,2,0,10,10,3,1,0,1,0,0,1,0,0,0,circle,triangle,,,,,,,,,,,,,,,,,,,,,,,,,,,,,,,,,,,,,,,,,,,,,,,,,,,,,,
297097,2022-12-05_18h03.57.563,vts_reward_expectancy_bt,2022.2.4,MacIntel,60.0024001,Chrome,1470,956,,,a,0.0687,10,426,2,0,11,11,2,1,1,0,0,0,0,0,0,1,triangle,star,,,,,,,,,,,,,,,,,,,,,,,,,,,,,,,,,,,,,,,,,,,,,,,,,,,,,,
297097,2022-12-05_18h03.57.563,vts_reward_expectancy_bt,2022.2.4,MacIntel,60.0024001,Chrome,1470,956,,,a,0.0246,10,436,2,1,0,12,1,1,1,0,0,0,0,0,1,0,triangle,hexagon,,,,,,,,,,,,,,,,,,,,,,,,,,,,,,,,,,,,,,,,,,,,,,,,,,,,,,
297097,2022-12-05_18h03.57.563,vts_reward_expectancy_bt,2022.2.4,MacIntel,60.0024001,Chrome,1470,956,,,l,0.0184,1,437,2,1,1,13,5,1,0,1,0,0,0,0,0,1,circle,star,,,,,,,,,,,,,,,,,,,,,,,,,,,,,,,,,,,,,,,,,,,,,,,,,,,,,,
297097,2022-12-05_18h03.57.563,vts_reward_expectancy_bt,2022.2.4,MacIntel,60.0024001,Chrome,1470,956,,,a,0.0848,1,438,2,1,2,14,10,1,0,0,0,1,0,1,0,0,star ,circle,,,,,,,,,,,,,,,,,,,,,,,,,,,,,,,,,,,,,,,,,,,,,,,,,,,,,,
297097,2022-12-05_18h03.57.563,vts_reward_expectancy_bt,2022.2.4,MacIntel,60.0024001,Chrome,1470,956,,,a,0.0861,10,448,2,1,3,15,9,1,0,0,0,1,1,0,0,0,star,triangle,,,,,,,,,,,,,,,,,,,,,,,,,,,,,,,,,,,,,,,,,,,,,,,,,,,,,,
297097,2022-12-05_18h03.57.563,vts_reward_expectancy_bt,2022.2.4,MacIntel,60.0024001,Chrome,1470,956,,,a,0.0357,1,449,2,1,4,16,3,1,0,1,0,0,1,0,0,0,circle,triangle,,,,,,,,,,,,,,,,,,,,,,,,,,,,,,,,,,,,,,,,,,,,,,,,,,,,,,
297097,2022-12-05_18h03.57.563,vts_reward_expectancy_bt,2022.2.4,MacIntel,60.0024001,Chrome,1470,956,,,a,0.1432,1,450,2,1,5,17,8,1,0,0,1,0,0,0,0,1,hexagon,star,,,,,,,,,,,,,,,,,,,,,,,,,,,,,,,,,,,,,,,,,,,,,,,,,,,,,,
297097,2022-12-05_18h03.57.563,vts_reward_expectancy_bt,2022.2.4,MacIntel,60.0024001,Chrome,1470,956,,,l,9.99999E-05,1,451,2,1,6,18,11,1,0,0,0,1,0,0,1,0,star,hexagon,,,,,,,,,,,,,,,,,,,,,,,,,,,,,,,,,,,,,,,,,,,,,,,,,,,,,,
297097,2022-12-05_18h03.57.563,vts_reward_expectancy_bt,2022.2.4,MacIntel,60.0024001,Chrome,1470,956,,,a,0.0187,10,461,2,1,7,19,2,1,1,0,0,0,0,0,0,1,triangle,star,,,,,,,,,,,,,,,,,,,,,,,,,,,,,,,,,,,,,,,,,,,,,,,,,,,,,,
297097,2022-12-05_18h03.57.563,vts_reward_expectancy_bt,2022.2.4,MacIntel,60.0024001,Chrome,1470,956,,,l,0.1186,10,471,2,1,8,20,0,1,1,0,0,0,0,1,0,0,triangle,circle,,,,,,,,,,,,,,,,,,,,,,,,,,,,,,,,,,,,,,,,,,,,,,,,,,,,,,
297097,2022-12-05_18h03.57.563,vts_reward_expectancy_bt,2022.2.4,MacIntel,60.0024001,Chrome,1470,956,,,a,0.0012,1,472,2,1,9,21,6,1,0,0,1,0,1,0,0,0,hexagon,triangle,,,,,,,,,,,,,,,,,,,,,,,,,,,,,,,,,,,,,,,,,,,,,,,,,,,,,,
297097,2022-12-05_18h03.57.563,vts_reward_expectancy_bt,2022.2.4,MacIntel,60.0024001,Chrome,1470,956,,,l,0.2325,1,473,2,1,10,22,4,1,0,1,0,0,0,0,1,0,circle,hexagon,,,,,,,,,,,,,,,,,,,,,,,,,,,,,,,,,,,,,,,,,,,,,,,,,,,,,,
297097,2022-12-05_18h03.57.563,vts_reward_expectancy_bt,2022.2.4,MacIntel,60.0024001,Chrome,1470,956,,,a,0.0162,1,474,2,1,11,23,7,1,0,0,1,0,0,1,0,0,hexagon,circle,,,,,,,,,,,,,,,,,,,,,,,,,,,,,,,,,,,,,,,,,,,,,,,,,,,,,,
297097,2022-12-05_18h03.57.563,vts_reward_expectancy_bt,2022.2.4,MacIntel,60.0024001,Chrome,1470,956,,,l,0.0202,1,475,2,2,0,24,8,1,0,0,1,0,0,0,0,1,hexagon,star,,,,,,,,,,,,,,,,,,,,,,,,,,,,,,,,,,,,,,,,,,,,,,,,,,,,,,
297097,2022-12-05_18h03.57.563,vts_reward_expectancy_bt,2022.2.4,MacIntel,60.0024001,Chrome,1470,956,,,l,3.2341,1,476,2,2,1,25,1,1,1,0,0,0,0,0,1,0,triangle,hexagon,,,,,,,,,,,,,,,,,,,,,,,,,,,,,,,,,,,,,,,,,,,,,,,,,,,,,,
297097,2022-12-05_18h03.57.563,vts_reward_expectancy_bt,2022.2.4,MacIntel,60.0024001,Chrome,1470,956,,,a,0.3087,1,477,2,2,2,26,9,1,0,0,0,1,1,0,0,0,star,triangle,,,,,,,,,,,,,,,,,,,,,,,,,,,,,,,,,,,,,,,,,,,,,,,,,,,,,,
297097,2022-12-05_18h03.57.563,vts_reward_expectancy_bt,2022.2.4,MacIntel,60.0024001,Chrome,1470,956,,,l,0.5086,10,487,2,2,3,27,7,1,0,0,1,0,0,1,0,0,hexagon,circle,,,,,,,,,,,,,,,,,,,,,,,,,,,,,,,,,,,,,,,,,,,,,,,,,,,,,,
297097,2022-12-05_18h03.57.563,vts_reward_expectancy_bt,2022.2.4,MacIntel,60.0024001,Chrome,1470,956,,,l,0.0663,1,488,2,2,4,28,4,1,0,1,0,0,0,0,1,0,circle,hexagon,,,,,,,,,,,,,,,,,,,,,,,,,,,,,,,,,,,,,,,,,,,,,,,,,,,,,,
297097,2022-12-05_18h03.57.563,vts_reward_expectancy_bt,2022.2.4,MacIntel,60.0024001,Chrome,1470,956,,,a,0.0818,1,489,2,2,5,29,2,1,1,0,0,0,0,0,0,1,triangle,star,,,,,,,,,,,,,,,,,,,,,,,,,,,,,,,,,,,,,,,,,,,,,,,,,,,,,,
297097,2022-12-05_18h03.57.563,vts_reward_expectancy_bt,2022.2.4,MacIntel,60.0024001,Chrome,1470,956,,,a,0.0584,1,490,2,2,6,30,10,1,0,0,0,1,0,1,0,0,star ,circle,,,,,,,,,,,,,,,,,,,,,,,,,,,,,,,,,,,,,,,,,,,,,,,,,,,,,,
297097,2022-12-05_18h03.57.563,vts_reward_expectancy_bt,2022.2.4,MacIntel,60.0024001,Chrome,1470,956,,,a,0.0548,10,500,2,2,7,31,3,1,0,1,0,0,1,0,0,0,circle,triangle,,,,,,,,,,,,,,,,,,,,,,,,,,,,,,,,,,,,,,,,,,,,,,,,,,,,,,
297097,2022-12-05_18h03.57.563,vts_reward_expectancy_bt,2022.2.4,MacIntel,60.0024001,Chrome,1470,956,,,a,0.1437,10,510,2,2,8,32,5,1,0,1,0,0,0,0,0,1,circle,star,,,,,,,,,,,,,,,,,,,,,,,,,,,,,,,,,,,,,,,,,,,,,,,,,,,,,,
297097,2022-12-05_18h03.57.563,vts_reward_expectancy_bt,2022.2.4,MacIntel,60.0024001,Chrome,1470,956,,,a,0.0752,1,511,2,2,9,33,11,1,0,0,0,1,0,0,1,0,star,hexagon,,,,,,,,,,,,,,,,,,,,,,,,,,,,,,,,,,,,,,,,,,,,,,,,,,,,,,
297097,2022-12-05_18h03.57.563,vts_reward_expectancy_bt,2022.2.4,MacIntel,60.0024001,Chrome,1470,956,,,a,0.0355,1,512,2,2,10,34,6,1,0,0,1,0,1,0,0,0,hexagon,triangle,,,,,,,,,,,,,,,,,,,,,,,,,,,,,,,,,,,,,,,,,,,,,,,,,,,,,,
297097,2022-12-05_18h03.57.563,vts_reward_expectancy_bt,2022.2.4,MacIntel,60.0024001,Chrome,1470,956,,,a,0.0326,10,522,2,2,11,35,0,1,1,0,0,0,0,1,0,0,triangle,circle,,,,,,,,,,,,,,,,,,,,,,,,,,,,,,,,,,,,,,,,,,,,,,,,,,,,,,
297097,2022-12-05_18h03.57.563,vts_reward_expectancy_bt,2022.2.4,MacIntel,60.0024001,Chrome,1470,956,,,,,,,,,,,,,,,,,,,,,,,181,D,star,1,0,f,1.3047,0,0,0,0,0,1,,,,,,,,,,,,,,,,,,,,,,,,,,,,,,,,,,,,,,,,,
297097,2022-12-05_18h03.57.563,vts_reward_expectancy_bt,2022.2.4,MacIntel,60.0024001,Chrome,1470,956,,,,,,,,,,,,,,,,,,,,,,,167,Y,hexagon,1,0,f,0.5227,0,1,0,1,0,1,,,,,,,,,,,,,,,,,,,,,,,,,,,,,,,,,,,,,,,,,
297097,2022-12-05_18h03.57.563,vts_reward_expectancy_bt,2022.2.4,MacIntel,60.0024001,Chrome,1470,956,,,,,,,,,,,,,,,,,,,,,,,125,U,triangle,1,0,d,0.8472,0,2,0,2,0,1,,,,,,,,,,,,,,,,,,,,,,,,,,,,,,,,,,,,,,,,,
297097,2022-12-05_18h03.57.563,vts_reward_expectancy_bt,2022.2.4,MacIntel,60.0024001,Chrome,1470,956,,,,,,,,,,,,,,,,,,,,,,,139,B,circle,0,0,f,1.3154,0,3,0,3,0,1,,,,,,,,,,,,,,,,,,,,,,,,,,,,,,,,,,,,,,,,,
297097,2022-12-05_18h03.57.563,vts_reward_expectancy_bt,2022.2.4,MacIntel,60.0024001,Chrome,1470,956,,,,,,,,,,,,,,,,,,,,,,,160,F,star,1,1,f,0.7992,0,4,0,4,0,1,,,,,,,,,,,,,,,,,,,,,,,,,,,,,,,,,,,,,,,,,
297097,2022-12-05_18h03.57.563,vts_reward_expectancy_bt,2022.2.4,MacIntel,60.0024001,Chrome,1470,956,,,,,,,,,,,,,,,,,,,,,,,132,W,hexagon,1,0,d,2.0963,0,5,0,5,0,1,,,,,,,,,,,,,,,,,,,,,,,,,,,,,,,,,,,,,,,,,
297097,2022-12-05_18h03.57.563,vts_reward_expectancy_bt,2022.2.4,MacIntel,60.0024001,Chrome,1470,956,,,,,,,,,,,,,,,,,,,,,,,174,S,triangle,0,0,,,0,6,0,6,0,1,,,,,,,,,,,,,,,,,,,,,,,,,,,,,,,,,,,,,,,,,
297097,2022-12-05_18h03.57.563,vts_reward_expectancy_bt,2022.2.4,MacIntel,60.0024001,Chrome,1470,956,,,,,,,,,,,,,,,,,,,,,,,146,H,circle,0,1,f,1.5324,0,7,0,7,0,1,,,,,,,,,,,,,,,,,,,,,,,,,,,,,,,,,,,,,,,,,
297097,2022-12-05_18h03.57.563,vts_reward_expectancy_bt,2022.2.4,MacIntel,60.0024001,Chrome,1470,956,,,,,,,,,,,,,,,,,,,,,,,181,D,triangle,1,1,f,1.0731,0,8,0,8,0,1,,,,,,,,,,,,,,,,,,,,,,,,,,,,,,,,,,,,,,,,,
297097,2022-12-05_18h03.57.563,vts_reward_expectancy_bt,2022.2.4,MacIntel,60.0024001,Chrome,1470,956,,,,,,,,,,,,,,,,,,,,,,,167,Y,circle,1,0,f,0.5985,0,9,0,9,0,1,,,,,,,,,,,,,,,,,,,,,,,,,,,,,,,,,,,,,,,,,
297097,2022-12-05_18h03.57.563,vts_reward_expectancy_bt,2022.2.4,MacIntel,60.0024001,Chrome,1470,956,,,,,,,,,,,,,,,,,,,,,,,132,F,circle,0,0,f,0.9791,1,0,0,0,0,1,,,,,,,,,,,,,,,,,,,,,,,,,,,,,,,,,,,,,,,,,
297097,2022-12-05_18h03.57.563,vts_reward_expectancy_bt,2022.2.4,MacIntel,60.0024001,Chrome,1470,956,,,,,,,,,,,,,,,,,,,,,,,146,D,star,1,1,d,1.2673,1,1,0,1,0,1,,,,,,,,,,,,,,,,,,,,,,,,,,,,,,,,,,,,,,,,,
297097,2022-12-05_18h03.57.563,vts_reward_expectancy_bt,2022.2.4,MacIntel,60.0024001,Chrome,1470,956,,,,,,,,,,,,,,,,,,,,,,,160,Y,hexagon,1,0,f,1.2677,1,2,0,2,0,1,,,,,,,,,,,,,,,,,,,,,,,,,,,,,,,,,,,,,,,,,
297097,2022-12-05_18h03.57.563,vts_reward_expectancy_bt,2022.2.4,MacIntel,60.0024001,Chrome,1470,956,,,,,,,,,,,,,,,,,,,,,,,174,W,triangle,1,0,f,1.4629,1,3,0,3,0,1,,,,,,,,,,,,,,,,,,,,,,,,,,,,,,,,,,,,,,,,,
297097,2022-12-05_18h03.57.563,vts_reward_expectancy_bt,2022.2.4,MacIntel,60.0024001,Chrome,1470,956,,,,,,,,,,,,,,,,,,,,,,,125,B,circle,1,0,d,0.6658,1,4,0,4,0,1,,,,,,,,,,,,,,,,,,,,,,,,,,,,,,,,,,,,,,,,,
297097,2022-12-05_18h03.57.563,vts_reward_expectancy_bt,2022.2.4,MacIntel,60.0024001,Chrome,1470,956,,,,,,,,,,,,,,,,,,,,,,,167,H,star,1,0,f,0.9869,1,5,0,5,0,1,,,,,,,,,,,,,,,,,,,,,,,,,,,,,,,,,,,,,,,,,
297097,2022-12-05_18h03.57.563,vts_reward_expectancy_bt,2022.2.4,MacIntel,60.0024001,Chrome,1470,956,,,,,,,,,,,,,,,,,,,,,,,181,S,hexagon,1,0,f,1.2136,1,6,0,6,0,1,,,,,,,,,,,,,,,,,,,,,,,,,,,,,,,,,,,,,,,,,
297097,2022-12-05_18h03.57.563,vts_reward_expectancy_bt,2022.2.4,MacIntel,60.0024001,Chrome,1470,956,,,,,,,,,,,,,,,,,,,,,,,139,U,triangle,1,0,d,0.9331,1,7,0,7,0,1,,,,,,,,,,,,,,,,,,,,,,,,,,,,,,,,,,,,,,,,,
297097,2022-12-05_18h03.57.563,vts_reward_expectancy_bt,2022.2.4,MacIntel,60.0024001,Chrome,1470,956,,,,,,,,,,,,,,,,,,,,,,,132,F,star,1,0,d,1.5502,1,8,0,8,0,1,,,,,,,,,,,,,,,,,,,,,,,,,,,,,,,,,,,,,,,,,
297097,2022-12-05_18h03.57.563,vts_reward_expectancy_bt,2022.2.4,MacIntel,60.0024001,Chrome,1470,956,,,,,,,,,,,,,,,,,,,,,,,146,D,hexagon,0,0,,,1,9,0,9,0,1,,,,,,,,,,,,,,,,,,,,,,,,,,,,,,,,,,,,,,,,,
297097,2022-12-05_18h03.57.563,vts_reward_expectancy_bt,2022.2.4,MacIntel,60.0024001,Chrome,1470,956,,,,,,,,,,,,,,,,,,,,,,,181,F,star,1,1,f,1.4658,2,0,0,0,0,1,,,,,,,,,,,,,,,,,,,,,,,,,,,,,,,,,,,,,,,,,
297097,2022-12-05_18h03.57.563,vts_reward_expectancy_bt,2022.2.4,MacIntel,60.0024001,Chrome,1470,956,,,,,,,,,,,,,,,,,,,,,,,160,B,hexagon,1,0,f,1.2282,2,1,0,1,0,1,,,,,,,,,,,,,,,,,,,,,,,,,,,,,,,,,,,,,,,,,
297097,2022-12-05_18h03.57.563,vts_reward_expectancy_bt,2022.2.4,MacIntel,60.0024001,Chrome,1470,956,,,,,,,,,,,,,,,,,,,,,,,174,Y,circle,1,0,f,0.6332,2,2,0,2,0,1,,,,,,,,,,,,,,,,,,,,,,,,,,,,,,,,,,,,,,,,,
297097,2022-12-05_18h03.57.563,vts_reward_expectancy_bt,2022.2.4,MacIntel,60.0024001,Chrome,1470,956,,,,,,,,,,,,,,,,,,,,,,,125,W,triangle,1,0,d,1.2314,2,3,0,3,0,1,,,,,,,,,,,,,,,,,,,,,,,,,,,,,,,,,,,,,,,,,
297097,2022-12-05_18h03.57.563,vts_reward_expectancy_bt,2022.2.4,MacIntel,60.0024001,Chrome,1470,956,,,,,,,,,,,,,,,,,,,,,,,146,S,star,1,0,d,1.0319,2,4,0,4,0,1,,,,,,,,,,,,,,,,,,,,,,,,,,,,,,,,,,,,,,,,,
297097,2022-12-05_18h03.57.563,vts_reward_expectancy_bt,2022.2.4,MacIntel,60.0024001,Chrome,1470,956,,,,,,,,,,,,,,,,,,,,,,,167,U,hexagon,1,0,f,0.9343,2,5,0,5,0,1,,,,,,,,,,,,,,,,,,,,,,,,,,,,,,,,,,,,,,,,,
297097,2022-12-05_18h03.57.563,vts_reward_expectancy_bt,2022.2.4,MacIntel,60.0024001,Chrome,1470,956,,,,,,,,,,,,,,,,,,,,,,,132,H,circle,1,0,d,1.63,2,6,0,6,0,1,,,,,,,,,,,,,,,,,,,,,,,,,,,,,,,,,,,,,,,,,
297097,2022-12-05_18h03.57.563,vts_reward_expectancy_bt,2022.2.4,MacIntel,60.0024001,Chrome,1470,956,,,,,,,,,,,,,,,,,,,,,,,139,D,triangle,0,0,f,0.9148,2,7,0,7,0,1,,,,,,,,,,,,,,,,,,,,,,,,,,,,,,,,,,,,,,,,,
297097,2022-12-05_18h03.57.563,vts_reward_expectancy_bt,2022.2.4,MacIntel,60.0024001,Chrome,1470,956,,,,,,,,,,,,,,,,,,,,,,,181,F,hexagon,1,1,f,1.122,2,8,0,8,0,1,,,,,,,,,,,,,,,,,,,,,,,,,,,,,,,,,,,,,,,,,
297097,2022-12-05_18h03.57.563,vts_reward_expectancy_bt,2022.2.4,MacIntel,60.0024001,Chrome,1470,956,,,,,,,,,,,,,,,,,,,,,,,160,B,star,1,0,f,0.8988,2,9,0,9,0,1,,,,,,,,,,,,,,,,,,,,,,,,,,,,,,,,,,,,,,,,,
297097,2022-12-05_18h03.57.563,vts_reward_expectancy_bt,2022.2.4,MacIntel,60.0024001,Chrome,1470,956,,,,,,,,,,,,,,,,,,,,,,,132,W,circle,1,0,,,3,,,,,,k,1.1253,0,0,0,0,1,,,,,,,,,,,,,,,,,,,,,,,,,,,,,,,,,,
297097,2022-12-05_18h03.57.563,vts_reward_expectancy_bt,2022.2.4,MacIntel,60.0024001,Chrome,1470,956,,,,,,,,,,,,,,,,,,,,,,,174,Y,star,1,0,,,3,,,,,,k,0.8835,1,0,1,0,1,,,,,,,,,,,,,,,,,,,,,,,,,,,,,,,,,,
297097,2022-12-05_18h03.57.563,vts_reward_expectancy_bt,2022.2.4,MacIntel,60.0024001,Chrome,1470,956,,,,,,,,,,,,,,,,,,,,,,,167,D,hexagon,1,0,,,3,,,,,,j,1.514,2,0,2,0,1,,,,,,,,,,,,,,,,,,,,,,,,,,,,,,,,,,
297097,2022-12-05_18h03.57.563,vts_reward_expectancy_bt,2022.2.4,MacIntel,60.0024001,Chrome,1470,956,,,,,,,,,,,,,,,,,,,,,,,139,F,triangle,1,0,,,3,,,,,,j,1.3119,3,0,3,0,1,,,,,,,,,,,,,,,,,,,,,,,,,,,,,,,,,,
297097,2022-12-05_18h03.57.563,vts_reward_expectancy_bt,2022.2.4,MacIntel,60.0024001,Chrome,1470,956,,,,,,,,,,,,,,,,,,,,,,,146,S,circle,1,0,,,3,,,,,,k,2.0147,4,0,4,0,1,,,,,,,,,,,,,,,,,,,,,,,,,,,,,,,,,,
297097,2022-12-05_18h03.57.563,vts_reward_expectancy_bt,2022.2.4,MacIntel,60.0024001,Chrome,1470,956,,,,,,,,,,,,,,,,,,,,,,,125,B,star,1,0,,,3,,,,,,j,0.8197,5,0,5,0,1,,,,,,,,,,,,,,,,,,,,,,,,,,,,,,,,,,
297097,2022-12-05_18h03.57.563,vts_reward_expectancy_bt,2022.2.4,MacIntel,60.0024001,Chrome,1470,956,,,,,,,,,,,,,,,,,,,,,,,160,H,hexagon,1,0,,,3,,,,,,j,0.8856,6,0,6,0,1,,,,,,,,,,,,,,,,,,,,,,,,,,,,,,,,,,
297097,2022-12-05_18h03.57.563,vts_reward_expectancy_bt,2022.2.4,MacIntel,60.0024001,Chrome,1470,956,,,,,,,,,,,,,,,,,,,,,,,181,U,triangle,1,0,,,3,,,,,,k,1.464,7,0,7,0,1,,,,,,,,,,,,,,,,,,,,,,,,,,,,,,,,,,
297097,2022-12-05_18h03.57.563,vts_reward_expectancy_bt,2022.2.4,MacIntel,60.0024001,Chrome,1470,956,,,,,,,,,,,,,,,,,,,,,,,132,W,triangle,1,0,,,3,,,,,,k,0.7483,8,0,8,0,1,,,,,,,,,,,,,,,,,,,,,,,,,,,,,,,,,,
297097,2022-12-05_18h03.57.563,vts_reward_expectancy_bt,2022.2.4,MacIntel,60.0024001,Chrome,1470,956,,,,,,,,,,,,,,,,,,,,,,,174,Y,star,1,0,,,3,,,,,,k,0.6479,9,0,9,0,1,,,,,,,,,,,,,,,,,,,,,,,,,,,,,,,,,,
297097,2022-12-05_18h03.57.563,vts_reward_expectancy_bt,2022.2.4,MacIntel,60.0024001,Chrome,1470,956,,,,,0,522,,,,,,,,,,,,,,,,,181,F,star,-1,0,,,4,,,,,,,,,,,,,-1,no_choice,NA,,vtsPrac,0,0,0,0,1,,,,,,,,,,,,,,,,,,,,,,,,
297097,2022-12-05_18h03.57.563,vts_reward_expectancy_bt,2022.2.4,MacIntel,60.0024001,Chrome,1470,956,,,,,0,522,,,,,,,,,,,,,,,,,167,U,circle,1,0,,,4,,,,,,,,,,,,,switch,number,numSwt,f,vtsPrac,1,0,1,0,1,1.1664,,,,,,,,,,,,,,,,,,,,,,,
297097,2022-12-05_18h03.57.563,vts_reward_expectancy_bt,2022.2.4,MacIntel,60.0024001,Chrome,1470,956,,,,,0,522,,,,,,,,,,,,,,,,,132,B,star,1,0,,,4,,,,,,,,,,,,,repeat,number,numRpt,d,vtsPrac,2,0,2,0,1,0.9304,,,,,,,,,,,,,,,,,,,,,,,
297097,2022-12-05_18h03.57.563,vts_reward_expectancy_bt,2022.2.4,MacIntel,60.0024001,Chrome,1470,956,,,,,0,522,,,,,,,,,,,,,,,,,146,H,circle,0,0,,,4,,,,,,,,,,,,,repeat,number,NA,f,vtsPrac,3,0,3,0,1,0.8714,,,,,,,,,,,,,,,,,,,,,,,
297097,2022-12-05_18h03.57.563,vts_reward_expectancy_bt,2022.2.4,MacIntel,60.0024001,Chrome,1470,956,,,,,0,522,,,,,,,,,,,,,,,,,181,F,hexagon,1,1,,,4,,,,,,,,,,,,,repeat,number,numRpt,f,vtsPrac,4,0,4,0,1,0.8813,,,,,,,,,,,,,,,,,,,,,,,
297097,2022-12-05_18h03.57.563,vts_reward_expectancy_bt,2022.2.4,MacIntel,60.0024001,Chrome,1470,956,,,,,0,522,,,,,,,,,,,,,,,,,167,U,star,1,0,,,4,,,,,,,,,,,,,repeat,number,numRpt,f,vtsPrac,5,0,5,0,1,0.7515,,,,,,,,,,,,,,,,,,,,,,,
297097,2022-12-05_18h03.57.563,vts_reward_expectancy_bt,2022.2.4,MacIntel,60.0024001,Chrome,1470,956,,,,,0,522,,,,,,,,,,,,,,,,,132,B,triangle,1,0,,,4,,,,,,,,,,,,,repeat,number,numRpt,d,vtsPrac,6,0,6,0,1,1.0231,,,,,,,,,,,,,,,,,,,,,,,
297097,2022-12-05_18h03.57.563,vts_reward_expectancy_bt,2022.2.4,MacIntel,60.0024001,Chrome,1470,956,,,,,0,522,,,,,,,,,,,,,,,,,146,H,circle,1,0,,,4,,,,,,,,,,,,,repeat,number,numRpt,d,vtsPrac,7,0,7,0,1,1.8708,,,,,,,,,,,,,,,,,,,,,,,
297097,2022-12-05_18h03.57.563,vts_reward_expectancy_bt,2022.2.4,MacIntel,60.0024001,Chrome,1470,956,,,,,0,522,,,,,,,,,,,,,,,,,125,F,star,1,0,,,4,,,,,,,,,,,,,repeat,number,numRpt,d,vtsPrac,8,0,8,0,1,2.2485,,,,,,,,,,,,,,,,,,,,,,,
297097,2022-12-05_18h03.57.563,vts_reward_expectancy_bt,2022.2.4,MacIntel,60.0024001,Chrome,1470,956,,,,,0,522,,,,,,,,,,,,,,,,,160,D,triangle,0,0,,,4,,,,,,,,,,,,,repeat,number,NA,d,vtsPrac,9,0,9,0,1,1.5066,,,,,,,,,,,,,,,,,,,,,,,
297097,2022-12-05_18h03.57.563,vts_reward_expectancy_bt,2022.2.4,MacIntel,60.0024001,Chrome,1470,956,,,,,0,522,,,,,,,,,,,,,,,,,146,U,circle,1,1,,,4,,,,,,,,,,,,,repeat,number,numRpt,d,vtsPrac,10,0,10,0,1,1.752,,,,,,,,,,,,,,,,,,,,,,,
297097,2022-12-05_18h03.57.563,vts_reward_expectancy_bt,2022.2.4,MacIntel,60.0024001,Chrome,1470,956,,,,,0,522,,,,,,,,,,,,,,,,,181,W,star,1,0,,,4,,,,,,,,,,,,,switch,letter,lettSwt,k,vtsPrac,11,0,11,0,1,1.1182,,,,,,,,,,,,,,,,,,,,,,,
297097,2022-12-05_18h03.57.563,vts_reward_expectancy_bt,2022.2.4,MacIntel,60.0024001,Chrome,1470,956,,,,,0,522,,,,,,,,,,,,,,,,,146,D,star,1,0,,,4,,,,,,,,,,,,,repeat,letter,lettRpt,j,vtsPrac,12,0,12,0,1,0.7897,,,,,,,,,,,,,,,,,,,,,,,
297097,2022-12-05_18h03.57.563,vts_reward_expectancy_bt,2022.2.4,MacIntel,60.0024001,Chrome,1470,956,,,,,0,522,,,,,,,,,,,,,,,,,125,Y,hexagon,1,0,,,4,,,,,,,,,,,,,repeat,letter,lettRpt,k,vtsPrac,13,0,13,0,1,1.3319,,,,,,,,,,,,,,,,,,,,,,,
297097,2022-12-05_18h03.57.563,vts_reward_expectancy_bt,2022.2.4,MacIntel,60.0024001,Chrome,1470,956,,,,,0,522,,,,,,,,,,,,,,,,,167,H,star,1,0,,,4,,,,,,,,,,,,,repeat,letter,lettRpt,j,vtsPrac,14,0,14,0,1,1.2161,,,,,,,,,,,,,,,,,,,,,,,
297097,2022-12-05_18h03.57.563,vts_reward_expectancy_bt,2022.2.4,MacIntel,60.0024001,Chrome,1470,956,,,,,0,522,,,,,,,,,,,,,,,,,181,F,hexagon,1,0,,,4,,,,,,,,,,,,,repeat,letter,lettRpt,j,vtsPrac,15,0,15,0,1,0.8723,,,,,,,,,,,,,,,,,,,,,,,
297097,2022-12-05_18h03.57.563,vts_reward_expectancy_bt,2022.2.4,MacIntel,60.0024001,Chrome,1470,956,,,,,0,522,,,,,,,,,,,,,,,,,125,H,hexagon,1,0,,,4,,,,,,,,,,,,,repeat,letter,lettRpt,j,vtsPrac,16,0,16,0,1,0.6797,,,,,,,,,,,,,,,,,,,,,,,
297097,2022-12-05_18h03.57.563,vts_reward_expectancy_bt,2022.2.4,MacIntel,60.0024001,Chrome,1470,956,,,,,0,522,,,,,,,,,,,,,,,,,160,W,star,1,0,,,4,,,,,,,,,,,,,repeat,letter,lettRpt,k,vtsPrac,17,0,17,0,1,0.8798,,,,,,,,,,,,,,,,,,,,,,,
297097,2022-12-05_18h03.57.563,vts_reward_expectancy_bt,2022.2.4,MacIntel,60.0024001,Chrome,1470,956,,,,,0,522,,,,,,,,,,,,,,,,,167,F,star,1,0,,,4,,,,,,,,,,,,,repeat,letter,lettRpt,j,vtsPrac,18,0,18,0,1,2.4317,,,,,,,,,,,,,,,,,,,,,,,
297097,2022-12-05_18h03.57.563,vts_reward_expectancy_bt,2022.2.4,MacIntel,60.0024001,Chrome,1470,956,,,,,0,522,,,,,,,,,,,,,,,,,174,B,circle,0,0,,,4,,,,,,,,,,,,,repeat,letter,NA,k,vtsPrac,19,0,19,0,1,1.6163,,,,,,,,,,,,,,,,,,,,,,,
297097,2022-12-05_18h03.57.563,vts_reward_expectancy_bt,2022.2.4,MacIntel,60.0024001,Chrome,1470,956,,,,,0,522,,,,,,,,,,,,,,,,,174,W,star,1,1,,,4,,,,,,,,,,,,,repeat,letter,lettRpt,k,vtsPrac,20,0,20,0,1,0.6751,,,,,,,,,,,,,,,,,,,,,,,
297097,2022-12-05_18h03.57.563,vts_reward_expectancy_bt,2022.2.4,MacIntel,60.0024001,Chrome,1470,956,,,,,0,522,,,,,,,,,,,,,,,,,132,F,circle,1,0,,,4,,,,,,,,,,,,,repeat,letter,lettRpt,j,vtsPrac,21,0,21,0,1,1.4403,,,,,,,,,,,,,,,,,,,,,,,
297097,2022-12-05_18h03.57.563,vts_reward_expectancy_bt,2022.2.4,MacIntel,60.0024001,Chrome,1470,956,,,,,0,522,,,,,,,,,,,,,,,,,167,S,hexagon,1,0,,,4,,,,,,,,,,,,,repeat,letter,lettRpt,k,vtsPrac,22,0,22,0,1,0.8357,,,,,,,,,,,,,,,,,,,,,,,
297097,2022-12-05_18h03.57.563,vts_reward_expectancy_bt,2022.2.4,MacIntel,60.0024001,Chrome,1470,956,,,,,0,522,,,,,,,,,,,,,,,,,146,H,circle,1,0,,,4,,,,,,,,,,,,,repeat,letter,lettRpt,j,vtsPrac,23,0,23,0,1,1.1834,,,,,,,,,,,,,,,,,,,,,,,
297097,2022-12-05_18h03.57.563,vts_reward_expectancy_bt,2022.2.4,MacIntel,60.0024001,Chrome,1470,956,,,,,0,522,,,,,,,,,,,,,,,,,146,U,hexagon,1,0,,,4,,,,,,,,,,,,,repeat,letter,lettRpt,k,vtsPrac,24,0,24,0,1,2.3719,,,,,,,,,,,,,,,,,,,,,,,
297097,2022-12-05_18h03.57.563,vts_reward_expectancy_bt,2022.2.4,MacIntel,60.0024001,Chrome,1470,956,,,,,0,522,,,,,,,,,,,,,,,,,125,Y,circle,-1,0,,,4,,,,,,,,,,,,,switch,no_choice,NA,,vtsPrac,25,0,25,0,1,,,,,,,,,,,,,,,,,,,,,,,,
297097,2022-12-05_18h03.57.563,vts_reward_expectancy_bt,2022.2.4,MacIntel,60.0024001,Chrome,1470,956,,,,,0,522,,,,,,,,,,,,,,,,,132,W,star,1,0,,,4,,,,,,,,,,,,,switch,letter,lettSwt,k,vtsPrac,26,0,26,0,1,2.9501,,,,,,,,,,,,,,,,,,,,,,,
297097,2022-12-05_18h03.57.563,vts_reward_expectancy_bt,2022.2.4,MacIntel,60.0024001,Chrome,1470,956,,,,,0,522,,,,,,,,,,,,,,,,,181,B,triangle,1,0,,,4,,,,,,,,,,,,,repeat,letter,lettRpt,j,vtsPrac,27,0,27,0,1,0.7786,,,,,,,,,,,,,,,,,,,,,,,
297097,2022-12-05_18h03.57.563,vts_reward_expectancy_bt,2022.2.4,MacIntel,60.0024001,Chrome,1470,956,,,,,0,522,,,,,,,,,,,,,,,,,181,D,star,1,0,,,4,,,,,,,,,,,,,repeat,letter,lettRpt,j,vtsPrac,28,0,28,0,1,1.264,,,,,,,,,,,,,,,,,,,,,,,
297097,2022-12-05_18h03.57.563,vts_reward_expectancy_bt,2022.2.4,MacIntel,60.0024001,Chrome,1470,956,,,,,0,522,,,,,,,,,,,,,,,,,146,S,hexagon,1,0,,,4,,,,,,,,,,,,,repeat,letter,lettRpt,k,vtsPrac,29,0,29,0,1,1.3816,,,,,,,,,,,,,,,,,,,,,,,
297097,2022-12-05_18h03.57.563,vts_reward_expectancy_bt,2022.2.4,MacIntel,60.0024001,Chrome,1470,956,,,,,0,522,,,,,,,,,,,,,,,,,139,U,hexagon,1,0,,,4,,,,,,,,,,,,,repeat,letter,lettRpt,k,vtsPrac,30,0,30,0,1,1.5143,,,,,,,,,,,,,,,,,,,,,,,
297097,2022-12-05_18h03.57.563,vts_reward_expectancy_bt,2022.2.4,MacIntel,60.0024001,Chrome,1470,956,,,,,0,522,,,,,,,,,,,,,,,,,174,W,triangle,1,0,,,4,,,,,,,,,,,,,repeat,letter,lettRpt,k,vtsPrac,31,0,31,0,1,0.9658,,,,,,,,,,,,,,,,,,,,,,,
297097,2022-12-05_18h03.57.563,vts_reward_expectancy_bt,2022.2.4,MacIntel,60.0024001,Chrome,1470,956,,,,,0,522,,,,,,,,,,,,,,,,,146,W,circle,1,0,,,5,,,,,,,,,,,,,switch,number,numSwt,d,vtsPrac,0,0,0,0,1,1.603,,,,,,,,,,,,,,,,,,,,,,,
297097,2022-12-05_18h03.57.563,vts_reward_expectancy_bt,2022.2.4,MacIntel,60.0024001,Chrome,1470,956,,,,,0,522,,,,,,,,,,,,,,,,,160,S,hexagon,1,0,,,5,,,,,,,,,,,,,switch,letter,lettSwt,k,vtsPrac,1,0,1,0,1,1.0726,,,,,,,,,,,,,,,,,,,,,,,
297097,2022-12-05_18h03.57.563,vts_reward_expectancy_bt,2022.2.4,MacIntel,60.0024001,Chrome,1470,956,,,,,0,522,,,,,,,,,,,,,,,,,139,F,circle,1,0,,,5,,,,,,,,,,,,,switch,number,numSwt,d,vtsPrac,2,0,2,0,1,2.2361,,,,,,,,,,,,,,,,,,,,,,,
297097,2022-12-05_18h03.57.563,vts_reward_expectancy_bt,2022.2.4,MacIntel,60.0024001,Chrome,1470,956,,,,,0,522,,,,,,,,,,,,,,,,,132,B,hexagon,1,0,,,5,,,,,,,,,,,,,switch,letter,lettSwt,j,vtsPrac,3,0,3,0,1,0.9457,,,,,,,,,,,,,,,,,,,,,,,
297097,2022-12-05_18h03.57.563,vts_reward_expectancy_bt,2022.2.4,MacIntel,60.0024001,Chrome,1470,956,,,,,0,522,,,,,,,,,,,,,,,,,146,W,circle,1,0,,,5,,,,,,,,,,,,,switch,number,numSwt,d,vtsPrac,4,0,4,0,1,1.0085,,,,,,,,,,,,,,,,,,,,,,,
297097,2022-12-05_18h03.57.563,vts_reward_expectancy_bt,2022.2.4,MacIntel,60.0024001,Chrome,1470,956,,,,,0,522,,,,,,,,,,,,,,,,,160,S,triangle,1,0,,,5,,,,,,,,,,,,,switch,letter,lettSwt,k,vtsPrac,5,0,5,0,1,1.0915,,,,,,,,,,,,,,,,,,,,,,,
297097,2022-12-05_18h03.57.563,vts_reward_expectancy_bt,2022.2.4,MacIntel,60.0024001,Chrome,1470,956,,,,,0,522,,,,,,,,,,,,,,,,,139,F,hexagon,1,0,,,5,,,,,,,,,,,,,switch,number,numSwt,d,vtsPrac,6,0,6,0,1,1.283,,,,,,,,,,,,,,,,,,,,,,,
297097,2022-12-05_18h03.57.563,vts_reward_expectancy_bt,2022.2.4,MacIntel,60.0024001,Chrome,1470,956,,,,,0,522,,,,,,,,,,,,,,,,,132,B,triangle,1,0,,,5,,,,,,,,,,,,,repeat,number,numRpt,d,vtsPrac,7,0,7,0,1,1.077,,,,,,,,,,,,,,,,,,,,,,,
297097,2022-12-05_18h03.57.563,vts_reward_expectancy_bt,2022.2.4,MacIntel,60.0024001,Chrome,1470,956,,,,,0,522,,,,,,,,,,,,,,,,,132,B,circle,1,0,,,5,,,,,,,,,,,,,switch,letter,lettSwt,j,vtsPrac,8,0,8,0,1,1.3238,,,,,,,,,,,,,,,,,,,,,,,
297097,2022-12-05_18h03.57.563,vts_reward_expectancy_bt,2022.2.4,MacIntel,60.0024001,Chrome,1470,956,,,,,0,522,,,,,,,,,,,,,,,,,181,D,star,1,0,,,5,,,,,,,,,,,,,repeat,letter,lettRpt,j,vtsPrac,9,0,9,0,1,1.0837,,,,,,,,,,,,,,,,,,,,,,,
297097,2022-12-05_18h03.57.563,vts_reward_expectancy_bt,2022.2.4,MacIntel,60.0024001,Chrome,1470,956,,,,,0,522,,,,,,,,,,,,,,,,,146,Y,star,-1,0,,,5,,,,,,,,,,,,,switch,no_choice,NA,,vtsPrac,10,0,10,0,1,,,,,,,,,,,,,,,,,,,,,,,,
297097,2022-12-05_18h03.57.563,vts_reward_expectancy_bt,2022.2.4,MacIntel,60.0024001,Chrome,1470,956,,,,,0,522,,,,,,,,,,,,,,,,,139,U,hexagon,1,0,,,5,,,,,,,,,,,,,switch,number,numSwt,d,vtsPrac,11,0,11,0,1,0.821,,,,,,,,,,,,,,,,,,,,,,,
297097,2022-12-05_18h03.57.563,vts_reward_expectancy_bt,2022.2.4,MacIntel,60.0024001,Chrome,1470,956,,,,,0,522,,,,,,,,,,,,,,,,,132,W,circle,1,0,,,5,,,,,,,,,,,,,repeat,number,numRpt,d,vtsPrac,12,0,12,0,1,0.6145,,,,,,,,,,,,,,,,,,,,,,,
297097,2022-12-05_18h03.57.563,vts_reward_expectancy_bt,2022.2.4,MacIntel,60.0024001,Chrome,1470,956,,,,,0,522,,,,,,,,,,,,,,,,,125,F,hexagon,1,0,,,5,,,,,,,,,,,,,switch,letter,lettSwt,j,vtsPrac,13,0,13,0,1,0.9661,,,,,,,,,,,,,,,,,,,,,,,
297097,2022-12-05_18h03.57.563,vts_reward_expectancy_bt,2022.2.4,MacIntel,60.0024001,Chrome,1470,956,,,,,0,522,,,,,,,,,,,,,,,,,146,Y,triangle,0,0,,,5,,,,,,,,,,,,,repeat,letter,NA,j,vtsPrac,14,0,14,0,1,0.5901,,,,,,,,,,,,,,,,,,,,,,,
297097,2022-12-05_18h03.57.563,vts_reward_expectancy_bt,2022.2.4,MacIntel,60.0024001,Chrome,1470,956,,,,,0,522,,,,,,,,,,,,,,,,,167,U,hexagon,1,1,,,5,,,,,,,,,,,,,switch,number,numSwt,f,vtsPrac,15,0,15,0,1,1.4224,,,,,,,,,,,,,,,,,,,,,,,
297097,2022-12-05_18h03.57.563,vts_reward_expectancy_bt,2022.2.4,MacIntel,60.0024001,Chrome,1470,956,,,,,0,522,,,,,,,,,,,,,,,,,174,Y,star,1,0,,,5,,,,,,,,,,,,,switch,letter,lettSwt,k,vtsPrac,16,0,16,0,1,2.241,,,,,,,,,,,,,,,,,,,,,,,
297097,2022-12-05_18h03.57.563,vts_reward_expectancy_bt,2022.2.4,MacIntel,60.0024001,Chrome,1470,956,,,,,0,522,,,,,,,,,,,,,,,,,181,F,circle,1,0,,,5,,,,,,,,,,,,,switch,number,numSwt,f,vtsPrac,17,0,17,0,1,1.2019,,,,,,,,,,,,,,,,,,,,,,,
297097,2022-12-05_18h03.57.563,vts_reward_expectancy_bt,2022.2.4,MacIntel,60.0024001,Chrome,1470,956,,,,,0,522,,,,,,,,,,,,,,,,,139,D,triangle,1,0,,,5,,,,,,,,,,,,,switch,letter,lettSwt,j,vtsPrac,18,0,18,0,1,1.7657,,,,,,,,,,,,,,,,,,,,,,,
297097,2022-12-05_18h03.57.563,vts_reward_expectancy_bt,2022.2.4,MacIntel,60.0024001,Chrome,1470,956,,,,,0,522,,,,,,,,,,,,,,,,,132,U,star,1,0,,,5,,,,,,,,,,,,,switch,number,numSwt,d,vtsPrac,19,0,19,0,1,1.1587,,,,,,,,,,,,,,,,,,,,,,,
297097,2022-12-05_18h03.57.563,vts_reward_expectancy_bt,2022.2.4,MacIntel,60.0024001,Chrome,1470,956,,,,,0,522,,,,,,,,,,,,,,,,,174,U,star,1,0,,,5,,,,,,,,,,,,,switch,letter,lettSwt,k,vtsPrac,20,0,20,0,1,0.9639,,,,,,,,,,,,,,,,,,,,,,,
297097,2022-12-05_18h03.57.563,vts_reward_expectancy_bt,2022.2.4,MacIntel,60.0024001,Chrome,1470,956,,,,,0,522,,,,,,,,,,,,,,,,,181,S,circle,1,0,,,5,,,,,,,,,,,,,switch,number,numSwt,f,vtsPrac,21,0,21,0,1,0.8651,,,,,,,,,,,,,,,,,,,,,,,
297097,2022-12-05_18h03.57.563,vts_reward_expectancy_bt,2022.2.4,MacIntel,60.0024001,Chrome,1470,956,,,,,0,522,,,,,,,,,,,,,,,,,139,B,star,1,0,,,5,,,,,,,,,,,,,switch,letter,lettSwt,j,vtsPrac,22,0,22,0,1,0.9398,,,,,,,,,,,,,,,,,,,,,,,
297097,2022-12-05_18h03.57.563,vts_reward_expectancy_bt,2022.2.4,MacIntel,60.0024001,Chrome,1470,956,,,,,0,522,,,,,,,,,,,,,,,,,167,Y,circle,1,0,,,5,,,,,,,,,,,,,switch,number,numSwt,f,vtsPrac,23,0,23,0,1,0.6997,,,,,,,,,,,,,,,,,,,,,,,
297097,2022-12-05_18h03.57.563,vts_reward_expectancy_bt,2022.2.4,MacIntel,60.0024001,Chrome,1470,956,,,,,0,522,,,,,,,,,,,,,,,,,125,W,circle,1,0,,,5,,,,,,,,,,,,,switch,letter,lettSwt,k,vtsPrac,24,0,24,0,1,0.9188,,,,,,,,,,,,,,,,,,,,,,,
297097,2022-12-05_18h03.57.563,vts_reward_expectancy_bt,2022.2.4,MacIntel,60.0024001,Chrome,1470,956,,,,,0,522,,,,,,,,,,,,,,,,,139,U,triangle,1,0,,,5,,,,,,,,,,,,,switch,number,numSwt,d,vtsPrac,25,0,25,0,1,1.1225,,,,,,,,,,,,,,,,,,,,,,,
297097,2022-12-05_18h03.57.563,vts_reward_expectancy_bt,2022.2.4,MacIntel,60.0024001,Chrome,1470,956,,,,,0,522,,,,,,,,,,,,,,,,,167,F,circle,1,0,,,5,,,,,,,,,,,,,repeat,number,numRpt,f,vtsPrac,26,0,26,0,1,1.2183,,,,,,,,,,,,,,,,,,,,,,,
297097,2022-12-05_18h03.57.563,vts_reward_expectancy_bt,2022.2.4,MacIntel,60.0024001,Chrome,1470,956,,,,,0,522,,,,,,,,,,,,,,,,,174,D,triangle,1,0,,,5,,,,,,,,,,,,,switch,letter,lettSwt,j,vtsPrac,27,0,27,0,1,0.8143,,,,,,,,,,,,,,,,,,,,,,,
297097,2022-12-05_18h03.57.563,vts_reward_expectancy_bt,2022.2.4,MacIntel,60.0024001,Chrome,1470,956,,,,,0,522,,,,,,,,,,,,,,,,,146,W,circle,0,0,,,5,,,,,,,,,,,,,switch,number,NA,f,vtsPrac,28,0,28,0,1,1.0292,,,,,,,,,,,,,,,,,,,,,,,
297097,2022-12-05_18h03.57.563,vts_reward_expectancy_bt,2022.2.4,MacIntel,60.0024001,Chrome,1470,956,,,,,0,522,,,,,,,,,,,,,,,,,132,Y,star,1,1,,,5,,,,,,,,,,,,,switch,letter,lettSwt,k,vtsPrac,29,0,29,0,1,1.0982,,,,,,,,,,,,,,,,,,,,,,,
297097,2022-12-05_18h03.57.563,vts_reward_expectancy_bt,2022.2.4,MacIntel,60.0024001,Chrome,1470,956,,,,,0,522,,,,,,,,,,,,,,,,,174,S,circle,1,0,,,5,,,,,,,,,,,,,switch,number,numSwt,f,vtsPrac,30,0,30,0,1,1.1141,,,,,,,,,,,,,,,,,,,,,,,
297097,2022-12-05_18h03.57.563,vts_reward_expectancy_bt,2022.2.4,MacIntel,60.0024001,Chrome,1470,956,,,,,0,522,,,,,,,,,,,,,,,,,139,F,triangle,1,0,,,5,,,,,,,,,,,,,switch,letter,lettSwt,j,vtsPrac,31,0,31,0,1,1.0155,,,,,,,,,,,,,,,,,,,,,,,
297097,2022-12-05_18h03.57.563,vts_reward_expectancy_bt,2022.2.4,MacIntel,60.0024001,Chrome,1470,956,,,,,0,522,,,,,,,,,,,,,,,,,181,B,hexagon,-1,0,,,6,,,,,,,,,,,,,switch,no_choice,NA,,vtsPrac,0,0,0,0,1,,,,,,,,,,,,,,,,,,,,,,,,
297097,2022-12-05_18h03.57.563,vts_reward_expectancy_bt,2022.2.4,MacIntel,60.0024001,Chrome,1470,956,,,,,0,522,,,,,,,,,,,,,,,,,174,H,star,1,0,,,6,,,,,,,,,,,,,switch,number,numSwt,f,vtsPrac,1,0,1,0,1,0.3833,,,,,,,,,,,,,,,,,,,,,,,
297097,2022-12-05_18h03.57.563,vts_reward_expectancy_bt,2022.2.4,MacIntel,60.0024001,Chrome,1470,956,,,,,0,522,,,,,,,,,,,,,,,,,139,Y,hexagon,0,0,,,6,,,,,,,,,,,,,repeat,number,NA,f,vtsPrac,2,0,2,0,1,2.5796,,,,,,,,,,,,,,,,,,,,,,,
297097,2022-12-05_18h03.57.563,vts_reward_expectancy_bt,2022.2.4,MacIntel,60.0024001,Chrome,1470,956,,,,,0,522,,,,,,,,,,,,,,,,,125,F,star,1,1,,,6,,,,,,,,,,,,,repeat,number,numRpt,d,vtsPrac,3,0,3,0,1,0.8895,,,,,,,,,,,,,,,,,,,,,,,
297097,2022-12-05_18h03.57.563,vts_reward_expectancy_bt,2022.2.4,MacIntel,60.0024001,Chrome,1470,956,,,,,0,522,,,,,,,,,,,,,,,,,181,B,circle,-1,0,,,6,,,,,,,,,,,,,switch,no_choice,NA,,vtsPrac,4,0,4,0,1,,,,,,,,,,,,,,,,,,,,,,,,
297097,2022-12-05_18h03.57.563,vts_reward_expectancy_bt,2022.2.4,MacIntel,60.0024001,Chrome,1470,956,,,,,0,522,,,,,,,,,,,,,,,,,174,H,triangle,1,0,,,6,,,,,,,,,,,,,switch,number,numSwt,f,vtsPrac,5,0,5,0,1,1.3976,,,,,,,,,,,,,,,,,,,,,,,
297097,2022-12-05_18h03.57.563,vts_reward_expectancy_bt,2022.2.4,MacIntel,60.0024001,Chrome,1470,956,,,,,0,522,,,,,,,,,,,,,,,,,139,Y,triangle,1,0,,,6,,,,,,,,,,,,,repeat,number,numRpt,d,vtsPrac,6,0,6,0,1,0.8983,,,,,,,,,,,,,,,,,,,,,,,
297097,2022-12-05_18h03.57.563,vts_reward_expectancy_bt,2022.2.4,MacIntel,60.0024001,Chrome,1470,956,,,,,0,522,,,,,,,,,,,,,,,,,125,F,circle,1,0,,,6,,,,,,,,,,,,,repeat,number,numRpt,d,vtsPrac,7,0,7,0,1,1.4506,,,,,,,,,,,,,,,,,,,,,,,
297097,2022-12-05_18h03.57.563,vts_reward_expectancy_bt,2022.2.4,MacIntel,60.0024001,Chrome,1470,956,,,,,0,522,,,,,,,,,,,,,,,,,125,D,circle,1,0,,,6,,,,,,,,,,,,,repeat,number,numRpt,d,vtsPrac,8,0,8,0,1,2.4399,,,,,,,,,,,,,,,,,,,,,,,
297097,2022-12-05_18h03.57.563,vts_reward_expectancy_bt,2022.2.4,MacIntel,60.0024001,Chrome,1470,956,,,,,0,522,,,,,,,,,,,,,,,,,174,W,hexagon,1,0,,,6,,,,,,,,,,,,,repeat,number,numRpt,f,vtsPrac,9,0,9,0,1,0.983,,,,,,,,,,,,,,,,,,,,,,,
297097,2022-12-05_18h03.57.563,vts_reward_expectancy_bt,2022.2.4,MacIntel,60.0024001,Chrome,1470,956,,,,,0,522,,,,,,,,,,,,,,,,,167,S,star,-1,0,,,6,,,,,,,,,,,,,switch,no_choice,NA,,vtsPrac,10,0,10,0,1,,,,,,,,,,,,,,,,,,,,,,,,
297097,2022-12-05_18h03.57.563,vts_reward_expectancy_bt,2022.2.4,MacIntel,60.0024001,Chrome,1470,956,,,,,0,522,,,,,,,,,,,,,,,,,181,B,hexagon,1,0,,,6,,,,,,,,,,,,,switch,number,numSwt,f,vtsPrac,11,0,11,0,1,0.1476,,,,,,,,,,,,,,,,,,,,,,,
297097,2022-12-05_18h03.57.563,vts_reward_expectancy_bt,2022.2.4,MacIntel,60.0024001,Chrome,1470,956,,,,,0,522,,,,,,,,,,,,,,,,,146,D,triangle,1,0,,,6,,,,,,,,,,,,,switch,letter,lettSwt,j,vtsPrac,12,0,12,0,1,2.4634,,,,,,,,,,,,,,,,,,,,,,,
297097,2022-12-05_18h03.57.563,vts_reward_expectancy_bt,2022.2.4,MacIntel,60.0024001,Chrome,1470,956,,,,,0,522,,,,,,,,,,,,,,,,,160,Y,star,1,0,,,6,,,,,,,,,,,,,repeat,letter,lettRpt,k,vtsPrac,13,0,13,0,1,1.0152,,,,,,,,,,,,,,,,,,,,,,,
297097,2022-12-05_18h03.57.563,vts_reward_expectancy_bt,2022.2.4,MacIntel,60.0024001,Chrome,1470,956,,,,,0,522,,,,,,,,,,,,,,,,,132,B,triangle,1,0,,,6,,,,,,,,,,,,,repeat,letter,lettRpt,j,vtsPrac,14,0,14,0,1,1.2346,,,,,,,,,,,,,,,,,,,,,,,
297097,2022-12-05_18h03.57.563,vts_reward_expectancy_bt,2022.2.4,MacIntel,60.0024001,Chrome,1470,956,,,,,0,522,,,,,,,,,,,,,,,,,139,F,circle,1,0,,,6,,,,,,,,,,,,,repeat,letter,lettRpt,j,vtsPrac,15,0,15,0,1,0.7805,,,,,,,,,,,,,,,,,,,,,,,
297097,2022-12-05_18h03.57.563,vts_reward_expectancy_bt,2022.2.4,MacIntel,60.0024001,Chrome,1470,956,,,,,0,522,,,,,,,,,,,,,,,,,146,W,circle,1,0,,,6,,,,,,,,,,,,,repeat,letter,lettRpt,k,vtsPrac,16,0,16,0,1,1.1824,,,,,,,,,,,,,,,,,,,,,,,
297097,2022-12-05_18h03.57.563,vts_reward_expectancy_bt,2022.2.4,MacIntel,60.0024001,Chrome,1470,956,,,,,0,522,,,,,,,,,,,,,,,,,139,H,hexagon,1,0,,,6,,,,,,,,,,,,,repeat,letter,lettRpt,j,vtsPrac,17,0,17,0,1,0.9744,,,,,,,,,,,,,,,,,,,,,,,
297097,2022-12-05_18h03.57.563,vts_reward_expectancy_bt,2022.2.4,MacIntel,60.0024001,Chrome,1470,956,,,,,0,522,,,,,,,,,,,,,,,,,132,U,star,1,0,,,6,,,,,,,,,,,,,repeat,letter,lettRpt,k,vtsPrac,18,0,18,0,1,0.7159,,,,,,,,,,,,,,,,,,,,,,,
297097,2022-12-05_18h03.57.563,vts_reward_expectancy_bt,2022.2.4,MacIntel,60.0024001,Chrome,1470,956,,,,,0,522,,,,,,,,,,,,,,,,,167,F,circle,1,0,,,6,,,,,,,,,,,,,repeat,letter,lettRpt,j,vtsPrac,19,0,19,0,1,0.9297,,,,,,,,,,,,,,,,,,,,,,,
297097,2022-12-05_18h03.57.563,vts_reward_expectancy_bt,2022.2.4,MacIntel,60.0024001,Chrome,1470,956,,,,,0,522,,,,,,,,,,,,,,,,,167,U,triangle,1,0,,,6,,,,,,,,,,,,,repeat,letter,lettRpt,k,vtsPrac,20,0,20,0,1,1.5832,,,,,,,,,,,,,,,,,,,,,,,
297097,2022-12-05_18h03.57.563,vts_reward_expectancy_bt,2022.2.4,MacIntel,60.0024001,Chrome,1470,956,,,,,0,522,,,,,,,,,,,,,,,,,181,D,hexagon,1,0,,,6,,,,,,,,,,,,,repeat,letter,lettRpt,j,vtsPrac,21,0,21,0,1,0.7664,,,,,,,,,,,,,,,,,,,,,,,
297097,2022-12-05_18h03.57.563,vts_reward_expectancy_bt,2022.2.4,MacIntel,60.0024001,Chrome,1470,956,,,,,0,522,,,,,,,,,,,,,,,,,146,S,hexagon,1,0,,,6,,,,,,,,,,,,,repeat,letter,lettRpt,k,vtsPrac,22,0,22,0,1,0.6325,,,,,,,,,,,,,,,,,,,,,,,
297097,2022-12-05_18h03.57.563,vts_reward_expectancy_bt,2022.2.4,MacIntel,60.0024001,Chrome,1470,956,,,,,0,522,,,,,,,,,,,,,,,,,132,W,star,1,0,,,6,,,,,,,,,,,,,repeat,letter,lettRpt,k,vtsPrac,23,0,23,0,1,2.4344,,,,,,,,,,,,,,,,,,,,,,,
297097,2022-12-05_18h03.57.563,vts_reward_expectancy_bt,2022.2.4,MacIntel,60.0024001,Chrome,1470,956,,,,,0,522,,,,,,,,,,,,,,,,,160,Y,hexagon,1,0,,,6,,,,,,,,,,,,,switch,number,numSwt,f,vtsPrac,24,0,24,0,1,0.7905,,,,,,,,,,,,,,,,,,,,,,,
297097,2022-12-05_18h03.57.563,vts_reward_expectancy_bt,2022.2.4,MacIntel,60.0024001,Chrome,1470,956,,,,,0,522,,,,,,,,,,,,,,,,,132,S,triangle,1,0,,,6,,,,,,,,,,,,,repeat,number,numRpt,d,vtsPrac,25,0,25,0,1,2.5971,,,,,,,,,,,,,,,,,,,,,,,
297097,2022-12-05_18h03.57.563,vts_reward_expectancy_bt,2022.2.4,MacIntel,60.0024001,Chrome,1470,956,,,,,0,522,,,,,,,,,,,,,,,,,125,B,circle,1,0,,,6,,,,,,,,,,,,,repeat,number,numRpt,d,vtsPrac,26,0,26,0,1,1.195,,,,,,,,,,,,,,,,,,,,,,,
297097,2022-12-05_18h03.57.563,vts_reward_expectancy_bt,2022.2.4,MacIntel,60.0024001,Chrome,1470,956,,,,,0,522,,,,,,,,,,,,,,,,,167,U,star,1,0,,,6,,,,,,,,,,,,,repeat,number,numRpt,f,vtsPrac,27,0,27,0,1,1.2299,,,,,,,,,,,,,,,,,,,,,,,
297097,2022-12-05_18h03.57.563,vts_reward_expectancy_bt,2022.2.4,MacIntel,60.0024001,Chrome,1470,956,,,,,0,522,,,,,,,,,,,,,,,,,167,F,circle,1,0,,,6,,,,,,,,,,,,,repeat,number,numRpt,f,vtsPrac,28,0,28,0,1,1.9986,,,,,,,,,,,,,,,,,,,,,,,
297097,2022-12-05_18h03.57.563,vts_reward_expectancy_bt,2022.2.4,MacIntel,60.0024001,Chrome,1470,956,,,,,0,522,,,,,,,,,,,,,,,,,146,Y,star,1,0,,,6,,,,,,,,,,,,,repeat,number,numRpt,d,vtsPrac,29,0,29,0,1,2.4631,,,,,,,,,,,,,,,,,,,,,,,
297097,2022-12-05_18h03.57.563,vts_reward_expectancy_bt,2022.2.4,MacIntel,60.0024001,Chrome,1470,956,,,,,0,522,,,,,,,,,,,,,,,,,174,U,triangle,1,0,,,6,,,,,,,,,,,,,repeat,number,numRpt,f,vtsPrac,30,0,30,0,1,0.998,,,,,,,,,,,,,,,,,,,,,,,
297097,2022-12-05_18h03.57.563,vts_reward_expectancy_bt,2022.2.4,MacIntel,60.0024001,Chrome,1470,956,,,,,0,522,,,,,,,,,,,,,,,,,160,H,star,1,0,,,6,,,,,,,,,,,,,repeat,number,numRpt,f,vtsPrac,31,0,31,0,1,2.1863,,,,,,,,,,,,,,,,,,,,,,,
297097,2022-12-05_18h03.57.563,vts_reward_expectancy_bt,2022.2.4,MacIntel,60.0024001,Chrome,1470,956,,,,,,,,,,,,,,,,,,,,,,,,,,,,,,,,,,,,,,,,,,,,,,,,,,,,,,,,,,,,,,,,,,,,,,,,,,,,
297097,2022-12-05_18h03.57.563,vts_reward_expectancy_bt,2022.2.4,MacIntel,60.0024001,Chrome,1470,956,,,,,,,,,,,,,,,,,,,,,,,,,,,,,,,,,,,,,,,,,,,,,,,,,,,,,,,,,,,,,,,,,,,,,,,,,,,,
297097,2022-12-05_18h03.57.563,vts_reward_expectancy_bt,2022.2.4,MacIntel,60.0024001,Chrome,1470,956,,,,,0,522,,,,,,,,,,,,,,,,,174,W,circle,1,0,,,,,,,,,,,,,,,,repeat,number,numRpt,f,noRew,,,,,,1.8138,0,0,0,0,0,1,,,,,,,,,,,,,,,,,
297097,2022-12-05_18h03.57.563,vts_reward_expectancy_bt,2022.2.4,MacIntel,60.0024001,Chrome,1470,956,,,,,0,522,,,,,,,,,,,,,,,,,132,U,triangle,1,0,,,,,,,,,,,,,,,,repeat,number,numRpt,d,noRew,,,,,,0.7066,0,1,0,1,0,1,,,,,,,,,,,,,,,,,
297097,2022-12-05_18h03.57.563,vts_reward_expectancy_bt,2022.2.4,MacIntel,60.0024001,Chrome,1470,956,,,,,0,522,,,,,,,,,,,,,,,,,139,F,circle,1,0,,,,,,,,,,,,,,,,repeat,number,numRpt,d,noRew,,,,,,1.0801,0,2,0,2,0,1,,,,,,,,,,,,,,,,,
297097,2022-12-05_18h03.57.563,vts_reward_expectancy_bt,2022.2.4,MacIntel,60.0024001,Chrome,1470,956,,,,,0,522,,,,,,,,,,,,,,,,,146,H,triangle,1,0,,,,,,,,,,,,,,,,repeat,number,numRpt,d,noRew,,,,,,0.8535,0,3,0,3,0,1,,,,,,,,,,,,,,,,,
297097,2022-12-05_18h03.57.563,vts_reward_expectancy_bt,2022.2.4,MacIntel,60.0024001,Chrome,1470,956,,,,,0,522,,,,,,,,,,,,,,,,,174,W,star,1,0,,,,,,,,,,,,,,,,repeat,number,numRpt,f,noRew,,,,,,0.7641,0,4,0,4,0,1,,,,,,,,,,,,,,,,,
297097,2022-12-05_18h03.57.563,vts_reward_expectancy_bt,2022.2.4,MacIntel,60.0024001,Chrome,1470,956,,,,,0,522,,,,,,,,,,,,,,,,,132,U,triangle,1,0,,,,,,,,,,,,,,,,switch,letter,lettSwt,k,noRew,,,,,,1.3215,0,5,0,5,0,1,,,,,,,,,,,,,,,,,
297097,2022-12-05_18h03.57.563,vts_reward_expectancy_bt,2022.2.4,MacIntel,60.0024001,Chrome,1470,956,,,,,0,522,,,,,,,,,,,,,,,,,139,F,triangle,1,0,,,,,,,,,,,,,,,,repeat,letter,lettRpt,j,noRew,,,,,,1.0467,0,6,0,6,0,1,,,,,,,,,,,,,,,,,
297097,2022-12-05_18h03.57.563,vts_reward_expectancy_bt,2022.2.4,MacIntel,60.0024001,Chrome,1470,956,,,,,0,522,,,,,,,,,,,,,,,,,146,H,hexagon,1,0,,,,,,,,,,,,,,,,repeat,letter,lettRpt,j,noRew,,,,,,0.9736,0,7,0,7,0,1,,,,,,,,,,,,,,,,,
297097,2022-12-05_18h03.57.563,vts_reward_expectancy_bt,2022.2.4,MacIntel,60.0024001,Chrome,1470,956,,,,,0,522,,,,,,,,,,,,,,,,,160,H,circle,1,0,,,,,,,,,,,,,,,,repeat,letter,lettRpt,j,noRew,,,,,,0.8675,0,8,0,8,0,1,,,,,,,,,,,,,,,,,
297097,2022-12-05_18h03.57.563,vts_reward_expectancy_bt,2022.2.4,MacIntel,60.0024001,Chrome,1470,956,,,,,0,522,,,,,,,,,,,,,,,,,167,U,hexagon,0,0,,,,,,,,,,,,,,,,repeat,letter,NA,j,noRew,,,,,,1.0498,0,9,0,9,0,1,,,,,,,,,,,,,,,,,
297097,2022-12-05_18h03.57.563,vts_reward_expectancy_bt,2022.2.4,MacIntel,60.0024001,Chrome,1470,956,,,,,0,522,,,,,,,,,,,,,,,,,181,F,circle,1,1,,,,,,,,,,,,,,,,repeat,letter,lettRpt,j,noRew,,,,,,0.79,0,10,0,10,0,1,,,,,,,,,,,,,,,,,
297097,2022-12-05_18h03.57.563,vts_reward_expectancy_bt,2022.2.4,MacIntel,60.0024001,Chrome,1470,956,,,,,0,522,,,,,,,,,,,,,,,,,174,W,star,1,0,,,,,,,,,,,,,,,,repeat,letter,lettRpt,k,noRew,,,,,,1.0963,0,11,0,11,0,1,,,,,,,,,,,,,,,,,
297097,2022-12-05_18h03.57.563,vts_reward_expectancy_bt,2022.2.4,MacIntel,60.0024001,Chrome,1470,956,,,,,0,522,,,,,,,,,,,,,,,,,174,F,hexagon,1,0,,,,,,,,,,,,,,,,repeat,letter,lettRpt,j,noRew,,,,,,1.0497,0,12,0,12,0,1,,,,,,,,,,,,,,,,,
297097,2022-12-05_18h03.57.563,vts_reward_expectancy_bt,2022.2.4,MacIntel,60.0024001,Chrome,1470,956,,,,,0,522,,,,,,,,,,,,,,,,,125,W,circle,1,0,,,,,,,,,,,,,,,,repeat,letter,lettRpt,k,noRew,,,,,,0.9464,0,13,0,13,0,1,,,,,,,,,,,,,,,,,
297097,2022-12-05_18h03.57.563,vts_reward_expectancy_bt,2022.2.4,MacIntel,60.0024001,Chrome,1470,956,,,,,0,522,,,,,,,,,,,,,,,,,167,Y,star,1,0,,,,,,,,,,,,,,,,repeat,letter,lettRpt,k,noRew,,,,,,2.1117,0,14,0,14,0,1,,,,,,,,,,,,,,,,,
297097,2022-12-05_18h03.57.563,vts_reward_expectancy_bt,2022.2.4,MacIntel,60.0024001,Chrome,1470,956,,,,,0,522,,,,,,,,,,,,,,,,,181,H,circle,1,0,,,,,,,,,,,,,,,,switch,number,numSwt,f,noRew,,,,,,1.4207,0,15,0,15,0,1,,,,,,,,,,,,,,,,,
297097,2022-12-05_18h03.57.563,vts_reward_expectancy_bt,2022.2.4,MacIntel,60.0024001,Chrome,1470,956,,,,,0,522,,,,,,,,,,,,,,,,,160,S,hexagon,1,0,,,,,,,,,,,,,,,,repeat,number,numRpt,f,noRew,,,,,,1.1508,0,16,0,16,0,1,,,,,,,,,,,,,,,,,
297097,2022-12-05_18h03.57.563,vts_reward_expectancy_bt,2022.2.4,MacIntel,60.0024001,Chrome,1470,956,,,,,0,522,,,,,,,,,,,,,,,,,132,F,triangle,1,0,,,,,,,,,,,,,,,,switch,letter,lettSwt,j,noRew,,,,,,1.6554,0,17,0,17,0,1,,,,,,,,,,,,,,,,,
297097,2022-12-05_18h03.57.563,vts_reward_expectancy_bt,2022.2.4,MacIntel,60.0024001,Chrome,1470,956,,,,,0,522,,,,,,,,,,,,,,,,,139,D,star,0,0,,,,,,,,,,,,,,,,repeat,letter,NA,k,noRew,,,,,,0.7966,0,18,0,18,0,1,,,,,,,,,,,,,,,,,
297097,2022-12-05_18h03.57.563,vts_reward_expectancy_bt,2022.2.4,MacIntel,60.0024001,Chrome,1470,956,,,,,0,522,,,,,,,,,,,,,,,,,146,U,hexagon,0,1,,,,,,,,,,,,,,,,repeat,letter,NA,j,noRew,,,,,,0.2461,0,19,0,19,0,1,,,,,,,,,,,,,,,,,
297097,2022-12-05_18h03.57.563,vts_reward_expectancy_bt,2022.2.4,MacIntel,60.0024001,Chrome,1470,956,,,,,0,522,,,,,,,,,,,,,,,,,167,H,star,0,1,,,,,,,,,,,,,,,,repeat,letter,NA,k,noRew,,,,,,0.2223,0,20,0,20,0,1,,,,,,,,,,,,,,,,,
297097,2022-12-05_18h03.57.563,vts_reward_expectancy_bt,2022.2.4,MacIntel,60.0024001,Chrome,1470,956,,,,,0,522,,,,,,,,,,,,,,,,,139,F,hexagon,0,1,,,,,,,,,,,,,,,,repeat,letter,NA,k,noRew,,,,,,0.0312,0,21,0,21,0,1,,,,,,,,,,,,,,,,,
297097,2022-12-05_18h03.57.563,vts_reward_expectancy_bt,2022.2.4,MacIntel,60.0024001,Chrome,1470,956,,,,,0,522,,,,,,,,,,,,,,,,,132,Y,star,1,1,,,,,,,,,,,,,,,,repeat,letter,lettRpt,k,noRew,,,,,,0.3991,0,22,0,22,0,1,,,,,,,,,,,,,,,,,
297097,2022-12-05_18h03.57.563,vts_reward_expectancy_bt,2022.2.4,MacIntel,60.0024001,Chrome,1470,956,,,,,0,522,,,,,,,,,,,,,,,,,174,W,triangle,1,0,,,,,,,,,,,,,,,,repeat,letter,lettRpt,k,noRew,,,,,,0.3561,0,23,0,23,0,1,,,,,,,,,,,,,,,,,
297097,2022-12-05_18h03.57.563,vts_reward_expectancy_bt,2022.2.4,MacIntel,60.0024001,Chrome,1470,956,,,,,0,522,,,,,,,,,,,,,,,,,132,F,star,1,0,,,,,,,,,,,,,,,,repeat,letter,lettRpt,j,noRew,,,,,,0.0004,0,24,0,24,0,1,,,,,,,,,,,,,,,,,
297097,2022-12-05_18h03.57.563,vts_reward_expectancy_bt,2022.2.4,MacIntel,60.0024001,Chrome,1470,956,,,,,0,522,,,,,,,,,,,,,,,,,139,S,circle,1,0,,,,,,,,,,,,,,,,switch,number,numSwt,d,noRew,,,,,,0.3136,0,25,0,25,0,1,,,,,,,,,,,,,,,,,
297097,2022-12-05_18h03.57.563,vts_reward_expectancy_bt,2022.2.4,MacIntel,60.0024001,Chrome,1470,956,,,,,0,522,,,,,,,,,,,,,,,,,146,Y,hexagon,1,0,,,,,,,,,,,,,,,,repeat,number,numRpt,d,noRew,,,,,,0.1984,0,26,0,26,0,1,,,,,,,,,,,,,,,,,
297097,2022-12-05_18h03.57.563,vts_reward_expectancy_bt,2022.2.4,MacIntel,60.0024001,Chrome,1470,956,,,,,0,522,,,,,,,,,,,,,,,,,174,U,triangle,0,0,,,,,,,,,,,,,,,,switch,letter,NA,j,noRew,,,,,,1.8896,0,27,0,27,0,1,,,,,,,,,,,,,,,,,
297097,2022-12-05_18h03.57.563,vts_reward_expectancy_bt,2022.2.4,MacIntel,60.0024001,Chrome,1470,956,,,,,0,522,,,,,,,,,,,,,,,,,125,H,star,1,1,,,,,,,,,,,,,,,,repeat,letter,lettRpt,j,noRew,,,,,,0.1334,0,28,0,28,0,1,,,,,,,,,,,,,,,,,
297097,2022-12-05_18h03.57.563,vts_reward_expectancy_bt,2022.2.4,MacIntel,60.0024001,Chrome,1470,956,,,,,0,522,,,,,,,,,,,,,,,,,174,U,triangle,0,0,,,,,,,,,,,,,,,,switch,number,NA,d,noRew,,,,,,0.0003,0,29,0,29,0,1,,,,,,,,,,,,,,,,,
297097,2022-12-05_18h03.57.563,vts_reward_expectancy_bt,2022.2.4,MacIntel,60.0024001,Chrome,1470,956,,,,,0,522,,,,,,,,,,,,,,,,,132,S,circle,1,1,,,,,,,,,,,,,,,,repeat,number,numRpt,d,noRew,,,,,,0.0404,0,30,0,30,0,1,,,,,,,,,,,,,,,,,
297097,2022-12-05_18h03.57.563,vts_reward_expectancy_bt,2022.2.4,MacIntel,60.0024001,Chrome,1470,956,,,,,0,522,,,,,,,,,,,,,,,,,139,Y,hexagon,0,0,,,,,,,,,,,,,,,,repeat,number,NA,f,noRew,,,,,,0.1187,0,31,0,31,0,1,,,,,,,,,,,,,,,,,
297097,2022-12-05_18h03.57.563,vts_reward_expectancy_bt,2022.2.4,MacIntel,60.0024001,Chrome,1470,956,,,,,0,522,,,,,,,,,,,,,,,,,167,F,triangle,0,1,,,,,,,,,,,,,,,,repeat,number,NA,d,noRew,,,,,,0.08,0,32,0,32,0,1,,,,,,,,,,,,,,,,,
297097,2022-12-05_18h03.57.563,vts_reward_expectancy_bt,2022.2.4,MacIntel,60.0024001,Chrome,1470,956,,,,,0,522,,,,,,,,,,,,,,,,,125,B,star,0,1,,,,,,,,,,,,,,,,repeat,number,NA,f,noRew,,,,,,0.2214,0,33,0,33,0,1,,,,,,,,,,,,,,,,,
297097,2022-12-05_18h03.57.563,vts_reward_expectancy_bt,2022.2.4,MacIntel,60.0024001,Chrome,1470,956,,,,,0,522,,,,,,,,,,,,,,,,,132,S,circle,-1,1,,,,,,,,,,,,,,,,switch,no_choice,NA,,noRew,,,,,,,0,34,0,34,0,1,,,,,,,,,,,,,,,,,
297097,2022-12-05_18h03.57.563,vts_reward_expectancy_bt,2022.2.4,MacIntel,60.0024001,Chrome,1470,956,,,,,0,522,,,,,,,,,,,,,,,,,146,Y,star,-1,0,,,,,,,,,,,,,,,,repeat,no_choice,NA,,noRew,,,,,,,0,35,0,35,0,1,,,,,,,,,,,,,,,,,
297097,2022-12-05_18h03.57.563,vts_reward_expectancy_bt,2022.2.4,MacIntel,60.0024001,Chrome,1470,956,,,,,0,522,,,,,,,,,,,,,,,,,125,Y,star,-1,0,,,,,,,,,,,,,,,,repeat,no_choice,NA,,noRew,,,,,,,0,36,0,36,0,1,,,,,,,,,,,,,,,,,
297097,2022-12-05_18h03.57.563,vts_reward_expectancy_bt,2022.2.4,MacIntel,60.0024001,Chrome,1470,956,,,,,0,522,,,,,,,,,,,,,,,,,160,H,circle,-1,0,,,,,,,,,,,,,,,,repeat,no_choice,NA,,noRew,,,,,,,0,37,0,37,0,1,,,,,,,,,,,,,,,,,
297097,2022-12-05_18h03.57.563,vts_reward_expectancy_bt,2022.2.4,MacIntel,60.0024001,Chrome,1470,956,,,,,0,522,,,,,,,,,,,,,,,,,132,W,circle,0,0,,,,,,,,,,,,,,,,switch,letter,NA,j,noRew,,,,,,0.1805,0,38,0,38,0,1,,,,,,,,,,,,,,,,,
297097,2022-12-05_18h03.57.563,vts_reward_expectancy_bt,2022.2.4,MacIntel,60.0024001,Chrome,1470,956,,,,,0,522,,,,,,,,,,,,,,,,,167,U,star,1,1,,,,,,,,,,,,,,,,repeat,letter,lettRpt,k,noRew,,,,,,0.0155,0,39,0,39,0,1,,,,,,,,,,,,,,,,,
297097,2022-12-05_18h03.57.563,vts_reward_expectancy_bt,2022.2.4,MacIntel,60.0024001,Chrome,1470,956,,,,,0,522,,,,,,,,,,,,,,,,,181,U,star,1,0,,,,,,,,,,,,,,,,switch,number,numSwt,f,noRew,,,,,,0.0514,0,40,0,40,0,1,,,,,,,,,,,,,,,,,
297097,2022-12-05_18h03.57.563,vts_reward_expectancy_bt,2022.2.4,MacIntel,60.0024001,Chrome,1470,956,,,,,0,522,,,,,,,,,,,,,,,,,167,B,hexagon,0,0,,,,,,,,,,,,,,,,repeat,number,NA,d,noRew,,,,,,0.0025,0,41,0,41,0,1,,,,,,,,,,,,,,,,,
297097,2022-12-05_18h03.57.563,vts_reward_expectancy_bt,2022.2.4,MacIntel,60.0024001,Chrome,1470,956,,,,,0,522,,,,,,,,,,,,,,,,,146,H,hexagon,0,1,,,,,,,,,,,,,,,,switch,letter,NA,k,noRew,,,,,,0.4816,0,42,0,42,0,1,,,,,,,,,,,,,,,,,
297097,2022-12-05_18h03.57.563,vts_reward_expectancy_bt,2022.2.4,MacIntel,60.0024001,Chrome,1470,956,,,,,0,522,,,,,,,,,,,,,,,,,132,W,star,0,1,,,,,,,,,,,,,,,,repeat,letter,NA,j,noRew,,,,,,0.966,0,43,0,43,0,1,,,,,,,,,,,,,,,,,
297097,2022-12-05_18h03.57.563,vts_reward_expectancy_bt,2022.2.4,MacIntel,60.0024001,Chrome,1470,956,,,,,0,522,,,,,,,,,,,,,,,,,160,Y,hexagon,1,1,,,,,,,,,,,,,,,,repeat,letter,lettRpt,k,noRew,,,,,,0.0312,0,44,0,44,0,1,,,,,,,,,,,,,,,,,
297097,2022-12-05_18h03.57.563,vts_reward_expectancy_bt,2022.2.4,MacIntel,60.0024001,Chrome,1470,956,,,,,0,522,,,,,,,,,,,,,,,,,167,U,triangle,1,0,,,,,,,,,,,,,,,,switch,number,numSwt,f,noRew,,,,,,0.1463,0,45,0,45,0,1,,,,,,,,,,,,,,,,,
297097,2022-12-05_18h03.57.563,vts_reward_expectancy_bt,2022.2.4,MacIntel,60.0024001,Chrome,1470,956,,,,,0,522,,,,,,,,,,,,,,,,,125,D,circle,1,0,,,,,,,,,,,,,,,,repeat,number,numRpt,d,noRew,,,,,,0.0808,0,46,0,46,0,1,,,,,,,,,,,,,,,,,
297097,2022-12-05_18h03.57.563,vts_reward_expectancy_bt,2022.2.4,MacIntel,60.0024001,Chrome,1470,956,,,,,0,522,,,,,,,,,,,,,,,,,139,S,triangle,1,0,,,,,,,,,,,,,,,,switch,letter,lettSwt,k,noRew,,,,,,0.0996,0,47,0,47,0,1,,,,,,,,,,,,,,,,,
297097,2022-12-05_18h03.57.563,vts_reward_expectancy_bt,2022.2.4,MacIntel,60.0024001,Chrome,1470,956,,,,,0,522,,,,,,,,,,,,,,,,,167,S,hexagon,1,0,,,,,,,,,,,,,,,,switch,number,numSwt,f,noRew,,,,,,0.022,0,48,0,48,0,1,,,,,,,,,,,,,,,,,
297097,2022-12-05_18h03.57.563,vts_reward_expectancy_bt,2022.2.4,MacIntel,60.0024001,Chrome,1470,956,,,,,0,522,,,,,,,,,,,,,,,,,181,Y,circle,0,0,,,,,,,,,,,,,,,,repeat,number,NA,d,noRew,,,,,,0.2237,0,49,0,49,0,1,,,,,,,,,,,,,,,,,
297097,2022-12-05_18h03.57.563,vts_reward_expectancy_bt,2022.2.4,MacIntel,60.0024001,Chrome,1470,956,,,,,0,522,,,,,,,,,,,,,,,,,125,W,triangle,1,1,,,,,,,,,,,,,,,,repeat,number,numRpt,d,noRew,,,,,,0.0322,0,50,0,50,0,1,,,,,,,,,,,,,,,,,
297097,2022-12-05_18h03.57.563,vts_reward_expectancy_bt,2022.2.4,MacIntel,60.0024001,Chrome,1470,956,,,,,0,522,,,,,,,,,,,,,,,,,146,H,hexagon,0,0,,,,,,,,,,,,,,,,repeat,number,NA,f,noRew,,,,,,0.2697,0,51,0,51,0,1,,,,,,,,,,,,,,,,,
297097,2022-12-05_18h03.57.563,vts_reward_expectancy_bt,2022.2.4,MacIntel,60.0024001,Chrome,1470,956,,,,,0,522,,,,,,,,,,,,,,,,,146,Y,star,1,1,,,,,,,,,,,,,,,,repeat,number,numRpt,d,noRew,,,,,,0.1687,0,52,0,52,0,1,,,,,,,,,,,,,,,,,
297097,2022-12-05_18h03.57.563,vts_reward_expectancy_bt,2022.2.4,MacIntel,60.0024001,Chrome,1470,956,,,,,0,522,,,,,,,,,,,,,,,,,160,U,hexagon,1,0,,,,,,,,,,,,,,,,switch,letter,lettSwt,k,noRew,,,,,,0.0481,0,53,0,53,0,1,,,,,,,,,,,,,,,,,
297097,2022-12-05_18h03.57.563,vts_reward_expectancy_bt,2022.2.4,MacIntel,60.0024001,Chrome,1470,956,,,,,0,522,,,,,,,,,,,,,,,,,181,S,circle,1,0,,,,,,,,,,,,,,,,switch,number,numSwt,f,noRew,,,,,,0.0131,0,54,0,54,0,1,,,,,,,,,,,,,,,,,
297097,2022-12-05_18h03.57.563,vts_reward_expectancy_bt,2022.2.4,MacIntel,60.0024001,Chrome,1470,956,,,,,0,522,,,,,,,,,,,,,,,,,125,F,triangle,0,0,,,,,,,,,,,,,,,,switch,letter,NA,k,noRew,,,,,,0.0639,0,55,0,55,0,1,,,,,,,,,,,,,,,,,
297097,2022-12-05_18h03.57.563,vts_reward_expectancy_bt,2022.2.4,MacIntel,60.0024001,Chrome,1470,956,,,,,0,522,,,,,,,,,,,,,,,,,139,Y,star,0,1,,,,,,,,,,,,,,,,switch,number,NA,f,noRew,,,,,,0.1317,0,56,0,56,0,1,,,,,,,,,,,,,,,,,
297097,2022-12-05_18h03.57.563,vts_reward_expectancy_bt,2022.2.4,MacIntel,60.0024001,Chrome,1470,956,,,,,0,522,,,,,,,,,,,,,,,,,125,S,circle,1,1,,,,,,,,,,,,,,,,switch,letter,lettSwt,k,noRew,,,,,,0.1406,0,57,0,57,0,1,,,,,,,,,,,,,,,,,
297097,2022-12-05_18h03.57.563,vts_reward_expectancy_bt,2022.2.4,MacIntel,60.0024001,Chrome,1470,956,,,,,0,522,,,,,,,,,,,,,,,,,167,U,hexagon,0,0,,,,,,,,,,,,,,,,switch,number,NA,d,noRew,,,,,,0.0004,0,58,0,58,0,1,,,,,,,,,,,,,,,,,
297097,2022-12-05_18h03.57.563,vts_reward_expectancy_bt,2022.2.4,MacIntel,60.0024001,Chrome,1470,956,,,,,0,522,,,,,,,,,,,,,,,,,132,D,star,0,1,,,,,,,,,,,,,,,,switch,letter,NA,k,noRew,,,,,,0.0228,0,59,0,59,0,1,,,,,,,,,,,,,,,,,
297097,2022-12-05_18h03.57.563,vts_reward_expectancy_bt,2022.2.4,MacIntel,60.0024001,Chrome,1470,956,,,,,0,522,,,,,,,,,,,,,,,,,139,W,circle,1,1,,,,,,,,,,,,,,,,repeat,letter,lettRpt,k,noRew,,,,,,0.083,0,60,0,60,0,1,,,,,,,,,,,,,,,,,
297097,2022-12-05_18h03.57.563,vts_reward_expectancy_bt,2022.2.4,MacIntel,60.0024001,Chrome,1470,956,,,,,0,522,,,,,,,,,,,,,,,,,125,S,hexagon,0,0,,,,,,,,,,,,,,,,repeat,letter,NA,j,noRew,,,,,,0.0004,0,61,0,61,0,1,,,,,,,,,,,,,,,,,
297097,2022-12-05_18h03.57.563,vts_reward_expectancy_bt,2022.2.4,MacIntel,60.0024001,Chrome,1470,956,,,,,0,522,,,,,,,,,,,,,,,,,181,H,triangle,0,1,,,,,,,,,,,,,,,,switch,number,NA,d,noRew,,,,,,0.097,0,62,0,62,0,1,,,,,,,,,,,,,,,,,
297097,2022-12-05_18h03.57.563,vts_reward_expectancy_bt,2022.2.4,MacIntel,60.0024001,Chrome,1470,956,,,,,0,522,,,,,,,,,,,,,,,,,146,D,hexagon,1,1,,,,,,,,,,,,,,,,repeat,number,numRpt,d,noRew,,,,,,0.0143,0,63,0,63,0,1,,,,,,,,,,,,,,,,,
297097,2022-12-05_18h03.57.563,vts_reward_expectancy_bt,2022.2.4,MacIntel,60.0024001,Chrome,1470,956,,,,,,,,,,,,,,,,,,,,,,,,,,,,,,,,,,,,,,,,,,,,,,,,,,,,,,,,,,,,,,,,,,,,,,,,,,,,
297097,2022-12-05_18h03.57.563,vts_reward_expectancy_bt,2022.2.4,MacIntel,60.0024001,Chrome,1470,956,,,,,1,523,,,,,,,,,,,,,,,,,174,D,star,1,0,,,,,,,,,,,,,,,,repeat,number,numRpt,f,Lo,,,,,,2.3171,0,,,,,,space,12.4872,high,0,0,0,0,1,,,,,,,,,
297097,2022-12-05_18h03.57.563,vts_reward_expectancy_bt,2022.2.4,MacIntel,60.0024001,Chrome,1470,956,,,,,0,523,,,,,,,,,,,,,,,,,160,W,triangle,1,0,,,,,,,,,,,,,,,,switch,letter,lettSwt,k,Hi,,,,,,0.5665,0,,,,,,,,high,1,0,1,0,1,,,,,,,,,
297097,2022-12-05_18h03.57.563,vts_reward_expectancy_bt,2022.2.4,MacIntel,60.0024001,Chrome,1470,956,,,,,0,523,,,,,,,,,,,,,,,,,181,F,hexagon,0,0,,,,,,,,,,,,,,,,repeat,letter,NA,k,Hi,,,,,,0.5961,0,,,,,,,,high,2,0,2,0,1,,,,,,,,,
297097,2022-12-05_18h03.57.563,vts_reward_expectancy_bt,2022.2.4,MacIntel,60.0024001,Chrome,1470,956,,,,,0,523,,,,,,,,,,,,,,,,,125,B,circle,1,1,,,,,,,,,,,,,,,,repeat,letter,lettRpt,j,Hi,,,,,,0.4684,0,,,,,,,,high,3,0,3,0,1,,,,,,,,,
297097,2022-12-05_18h03.57.563,vts_reward_expectancy_bt,2022.2.4,MacIntel,60.0024001,Chrome,1470,956,,,,,0,523,,,,,,,,,,,,,,,,,146,S,star,0,0,,,,,,,,,,,,,,,,switch,number,NA,f,Hi,,,,,,0.4138,0,,,,,,,,high,4,0,4,0,1,,,,,,,,,
297097,2022-12-05_18h03.57.563,vts_reward_expectancy_bt,2022.2.4,MacIntel,60.0024001,Chrome,1470,956,,,,,0,523,,,,,,,,,,,,,,,,,132,Y,triangle,1,1,,,,,,,,,,,,,,,,repeat,number,numRpt,d,Hi,,,,,,0.6732,0,,,,,,,,high,5,0,5,0,1,,,,,,,,,
297097,2022-12-05_18h03.57.563,vts_reward_expectancy_bt,2022.2.4,MacIntel,60.0024001,Chrome,1470,956,,,,,0,523,,,,,,,,,,,,,,,,,167,U,hexagon,0,0,,,,,,,,,,,,,,,,repeat,number,NA,d,Hi,,,,,,0.4957,0,,,,,,,,high,6,0,6,0,1,,,,,,,,,
297097,2022-12-05_18h03.57.563,vts_reward_expectancy_bt,2022.2.4,MacIntel,60.0024001,Chrome,1470,956,,,,,0,523,,,,,,,,,,,,,,,,,139,H,circle,0,1,,,,,,,,,,,,,,,,repeat,number,NA,f,Hi,,,,,,1.6205,0,,,,,,,,high,7,0,7,0,1,,,,,,,,,
297097,2022-12-05_18h03.57.563,vts_reward_expectancy_bt,2022.2.4,MacIntel,60.0024001,Chrome,1470,956,,,,,0,523,,,,,,,,,,,,,,,,,174,D,star,-1,1,,,,,,,,,,,,,,,,switch,no_choice,NA,,Hi,,,,,,,0,,,,,,,,high,8,0,8,0,1,,,,,,,,,
297097,2022-12-05_18h03.57.563,vts_reward_expectancy_bt,2022.2.4,MacIntel,60.0024001,Chrome,1470,956,,,,,0,523,,,,,,,,,,,,,,,,,160,W,triangle,0,0,,,,,,,,,,,,,,,,switch,number,NA,d,Hi,,,,,,0.0488,0,,,,,,,,high,9,0,9,0,1,,,,,,,,,
297097,2022-12-05_18h03.57.563,vts_reward_expectancy_bt,2022.2.4,MacIntel,60.0024001,Chrome,1470,956,,,,,0,523,,,,,,,,,,,,,,,,,181,F,circle,0,1,,,,,,,,,,,,,,,,repeat,number,NA,d,Hi,,,,,,0.0543,0,,,,,,,,high,10,0,10,0,1,,,,,,,,,
297097,2022-12-05_18h03.57.563,vts_reward_expectancy_bt,2022.2.4,MacIntel,60.0024001,Chrome,1470,956,,,,,10,533,,,,,,,,,,,,,,,,,125,B,hexagon,1,1,,,,,,,,,,,,,,,,repeat,number,numRpt,d,Lo,,,,,,0.1505,0,,,,,,,,high,11,0,11,0,1,,,,,,,,,
297097,2022-12-05_18h03.57.563,vts_reward_expectancy_bt,2022.2.4,MacIntel,60.0024001,Chrome,1470,956,,,,,0,533,,,,,,,,,,,,,,,,,146,S,triangle,0,0,,,,,,,,,,,,,,,,repeat,number,NA,f,Lo,,,,,,0.1643,0,,,,,,,,high,12,0,12,0,1,,,,,,,,,
297097,2022-12-05_18h03.57.563,vts_reward_expectancy_bt,2022.2.4,MacIntel,60.0024001,Chrome,1470,956,,,,,1,534,,,,,,,,,,,,,,,,,132,Y,hexagon,1,1,,,,,,,,,,,,,,,,repeat,number,numRpt,d,Lo,,,,,,0.0802,0,,,,,,,,high,13,0,13,0,1,,,,,,,,,
297097,2022-12-05_18h03.57.563,vts_reward_expectancy_bt,2022.2.4,MacIntel,60.0024001,Chrome,1470,956,,,,,0,534,,,,,,,,,,,,,,,,,167,U,circle,1,0,,,,,,,,,,,,,,,,repeat,number,numRpt,f,Hi,,,,,,1.2332,0,,,,,,,,high,14,0,14,0,1,,,,,,,,,
297097,2022-12-05_18h03.57.563,vts_reward_expectancy_bt,2022.2.4,MacIntel,60.0024001,Chrome,1470,956,,,,,1,535,,,,,,,,,,,,,,,,,139,H,star,1,0,,,,,,,,,,,,,,,,repeat,number,numRpt,d,Lo,,,,,,0.0745,0,,,,,,,,high,15,0,15,0,1,,,,,,,,,
297097,2022-12-05_18h03.57.563,vts_reward_expectancy_bt,2022.2.4,MacIntel,60.0024001,Chrome,1470,956,,,,,0,535,,,,,,,,,,,,,,,,,174,Y,triangle,1,0,,,,,,,,,,,,,,,,repeat,number,numRpt,f,Hi,,,,,,0.8157,0,,,,,,,,high,16,0,16,0,1,,,,,,,,,
297097,2022-12-05_18h03.57.563,vts_reward_expectancy_bt,2022.2.4,MacIntel,60.0024001,Chrome,1470,956,,,,,0,535,,,,,,,,,,,,,,,,,167,D,star,0,0,,,,,,,,,,,,,,,,repeat,number,NA,d,Hi,,,,,,0.0716,0,,,,,,,,high,17,0,17,0,1,,,,,,,,,
297097,2022-12-05_18h03.57.563,vts_reward_expectancy_bt,2022.2.4,MacIntel,60.0024001,Chrome,1470,956,,,,,1,536,,,,,,,,,,,,,,,,,125,U,hexagon,1,1,,,,,,,,,,,,,,,,repeat,number,numRpt,d,Lo,,,,,,0.2797,0,,,,,,,,high,18,0,18,0,1,,,,,,,,,
297097,2022-12-05_18h03.57.563,vts_reward_expectancy_bt,2022.2.4,MacIntel,60.0024001,Chrome,1470,956,,,,,0,536,,,,,,,,,,,,,,,,,139,S,circle,1,0,,,,,,,,,,,,,,,,repeat,number,numRpt,d,Hi,,,,,,0.4116,0,,,,,,,,high,19,0,19,0,1,,,,,,,,,
297097,2022-12-05_18h03.57.563,vts_reward_expectancy_bt,2022.2.4,MacIntel,60.0024001,Chrome,1470,956,,,,,10,546,,,,,,,,,,,,,,,,,181,H,triangle,1,0,,,,,,,,,,,,,,,,repeat,number,numRpt,f,Hi,,,,,,0.097,0,,,,,,,,high,20,0,20,0,1,,,,,,,,,
297097,2022-12-05_18h03.57.563,vts_reward_expectancy_bt,2022.2.4,MacIntel,60.0024001,Chrome,1470,956,,,,,0,546,,,,,,,,,,,,,,,,,146,W,star,-1,0,,,,,,,,,,,,,,,,switch,no_choice,NA,,Hi,,,,,,,0,,,,,,,,high,21,0,21,0,1,,,,,,,,,
297097,2022-12-05_18h03.57.563,vts_reward_expectancy_bt,2022.2.4,MacIntel,60.0024001,Chrome,1470,956,,,,,0,546,,,,,,,,,,,,,,,,,132,F,circle,0,0,,,,,,,,,,,,,,,,switch,number,NA,f,Hi,,,,,,1.518,0,,,,,,,,high,22,0,22,0,1,,,,,,,,,
297097,2022-12-05_18h03.57.563,vts_reward_expectancy_bt,2022.2.4,MacIntel,60.0024001,Chrome,1470,956,,,,,10,556,,,,,,,,,,,,,,,,,160,B,hexagon,1,1,,,,,,,,,,,,,,,,repeat,number,numRpt,f,Lo,,,,,,1.3251,0,,,,,,,,high,23,0,23,0,1,,,,,,,,,
297097,2022-12-05_18h03.57.563,vts_reward_expectancy_bt,2022.2.4,MacIntel,60.0024001,Chrome,1470,956,,,,,0,556,,,,,,,,,,,,,,,,,160,U,triangle,1,0,,,,,,,,,,,,,,,,repeat,number,numRpt,f,Hi,,,,,,0.8773,0,,,,,,,,high,24,0,24,0,1,,,,,,,,,
297097,2022-12-05_18h03.57.563,vts_reward_expectancy_bt,2022.2.4,MacIntel,60.0024001,Chrome,1470,956,,,,,0,556,,,,,,,,,,,,,,,,,146,Y,hexagon,0,0,,,,,,,,,,,,,,,,repeat,number,NA,f,Hi,,,,,,0.8307,0,,,,,,,,high,25,0,25,0,1,,,,,,,,,
297097,2022-12-05_18h03.57.563,vts_reward_expectancy_bt,2022.2.4,MacIntel,60.0024001,Chrome,1470,956,,,,,0,556,,,,,,,,,,,,,,,,,139,D,star,0,1,,,,,,,,,,,,,,,,repeat,number,NA,f,Hi,,,,,,1.6876,0,,,,,,,,high,26,0,26,0,1,,,,,,,,,
297097,2022-12-05_18h03.57.563,vts_reward_expectancy_bt,2022.2.4,MacIntel,60.0024001,Chrome,1470,956,,,,,0,556,,,,,,,,,,,,,,,,,132,F,circle,1,1,,,,,,,,,,,,,,,,repeat,number,numRpt,d,Hi,,,,,,0.4322,0,,,,,,,,high,27,0,27,0,1,,,,,,,,,
297097,2022-12-05_18h03.57.563,vts_reward_expectancy_bt,2022.2.4,MacIntel,60.0024001,Chrome,1470,956,,,,,0,556,,,,,,,,,,,,,,,,,181,B,star,0,0,,,,,,,,,,,,,,,,repeat,number,NA,d,Hi,,,,,,0.3956,0,,,,,,,,high,28,0,28,0,1,,,,,,,,,
297097,2022-12-05_18h03.57.563,vts_reward_expectancy_bt,2022.2.4,MacIntel,60.0024001,Chrome,1470,956,,,,,0,556,,,,,,,,,,,,,,,,,167,S,hexagon,0,1,,,,,,,,,,,,,,,,repeat,number,NA,d,Hi,,,,,,0.0805,0,,,,,,,,high,29,0,29,0,1,,,,,,,,,
297097,2022-12-05_18h03.57.563,vts_reward_expectancy_bt,2022.2.4,MacIntel,60.0024001,Chrome,1470,956,,,,,0,556,,,,,,,,,,,,,,,,,174,H,triangle,0,1,,,,,,,,,,,,,,,,repeat,number,NA,d,Hi,,,,,,0.1299,0,,,,,,,,high,30,0,30,0,1,,,,,,,,,
297097,2022-12-05_18h03.57.563,vts_reward_expectancy_bt,2022.2.4,MacIntel,60.0024001,Chrome,1470,956,,,,,1,557,,,,,,,,,,,,,,,,,125,W,circle,1,1,,,,,,,,,,,,,,,,repeat,number,numRpt,d,Hi,,,,,,0.0118,0,,,,,,,,high,31,0,31,0,1,,,,,,,,,
297097,2022-12-05_18h03.57.563,vts_reward_expectancy_bt,2022.2.4,MacIntel,60.0024001,Chrome,1470,956,,,,,1,558,,,,,,,,,,,,,,,,,160,F,star,1,0,,,,,,,,,,,,,,,,repeat,number,numRpt,f,Lo,,,,,,0.1157,1,,,,,,space,0.9572,high,0,0,0,0,1,,,,,,,,,
297097,2022-12-05_18h03.57.563,vts_reward_expectancy_bt,2022.2.4,MacIntel,60.0024001,Chrome,1470,956,,,,,1,559,,,,,,,,,,,,,,,,,139,Y,hexagon,1,0,,,,,,,,,,,,,,,,repeat,number,numRpt,d,Lo,,,,,,0.1322,1,,,,,,,,high,1,0,1,0,1,,,,,,,,,
297097,2022-12-05_18h03.57.563,vts_reward_expectancy_bt,2022.2.4,MacIntel,60.0024001,Chrome,1470,956,,,,,0,559,,,,,,,,,,,,,,,,,181,U,circle,0,0,,,,,,,,,,,,,,,,repeat,number,NA,d,Lo,,,,,,0.0535,1,,,,,,,,high,2,0,2,0,1,,,,,,,,,
297097,2022-12-05_18h03.57.563,vts_reward_expectancy_bt,2022.2.4,MacIntel,60.0024001,Chrome,1470,956,,,,,10,569,,,,,,,,,,,,,,,,,125,W,triangle,1,1,,,,,,,,,,,,,,,,repeat,number,numRpt,d,Hi,,,,,,0.1324,1,,,,,,,,high,3,0,3,0,1,,,,,,,,,
297097,2022-12-05_18h03.57.563,vts_reward_expectancy_bt,2022.2.4,MacIntel,60.0024001,Chrome,1470,956,,,,,0,569,,,,,,,,,,,,,,,,,146,H,star,0,0,,,,,,,,,,,,,,,,repeat,number,NA,f,Hi,,,,,,0.0973,1,,,,,,,,high,4,0,4,0,1,,,,,,,,,
297097,2022-12-05_18h03.57.563,vts_reward_expectancy_bt,2022.2.4,MacIntel,60.0024001,Chrome,1470,956,,,,,1,570,,,,,,,,,,,,,,,,,174,D,hexagon,1,1,,,,,,,,,,,,,,,,repeat,number,numRpt,f,Lo,,,,,,0.3659,1,,,,,,,,high,5,0,5,0,1,,,,,,,,,
297097,2022-12-05_18h03.57.563,vts_reward_expectancy_bt,2022.2.4,MacIntel,60.0024001,Chrome,1470,956,,,,,0,570,,,,,,,,,,,,,,,,,132,S,circle,0,0,,,,,,,,,,,,,,,,repeat,number,NA,f,Lo,,,,,,0.0003,1,,,,,,,,high,6,0,6,0,1,,,,,,,,,
297097,2022-12-05_18h03.57.563,vts_reward_expectancy_bt,2022.2.4,MacIntel,60.0024001,Chrome,1470,956,,,,,0,570,,,,,,,,,,,,,,,,,167,B,triangle,0,1,,,,,,,,,,,,,,,,repeat,number,NA,d,Lo,,,,,,0.2156,1,,,,,,,,high,7,0,7,0,1,,,,,,,,,
297097,2022-12-05_18h03.57.563,vts_reward_expectancy_bt,2022.2.4,MacIntel,60.0024001,Chrome,1470,956,,,,,10,580,,,,,,,,,,,,,,,,,160,F,hexagon,1,1,,,,,,,,,,,,,,,,repeat,number,numRpt,f,Lo,,,,,,0.0661,1,,,,,,,,high,8,0,8,0,1,,,,,,,,,
297097,2022-12-05_18h03.57.563,vts_reward_expectancy_bt,2022.2.4,MacIntel,60.0024001,Chrome,1470,956,,,,,0,580,,,,,,,,,,,,,,,,,139,Y,star,0,0,,,,,,,,,,,,,,,,repeat,number,NA,f,Lo,,,,,,0.0201,1,,,,,,,,high,9,0,9,0,1,,,,,,,,,
297097,2022-12-05_18h03.57.563,vts_reward_expectancy_bt,2022.2.4,MacIntel,60.0024001,Chrome,1470,956,,,,,10,590,,,,,,,,,,,,,,,,,181,U,triangle,1,1,,,,,,,,,,,,,,,,repeat,number,numRpt,f,Hi,,,,,,0.1035,1,,,,,,,,high,10,0,10,0,1,,,,,,,,,
297097,2022-12-05_18h03.57.563,vts_reward_expectancy_bt,2022.2.4,MacIntel,60.0024001,Chrome,1470,956,,,,,0,590,,,,,,,,,,,,,,,,,125,W,circle,0,0,,,,,,,,,,,,,,,,repeat,number,NA,f,Hi,,,,,,0.0334,1,,,,,,,,high,11,0,11,0,1,,,,,,,,,
297097,2022-12-05_18h03.57.563,vts_reward_expectancy_bt,2022.2.4,MacIntel,60.0024001,Chrome,1470,956,,,,,1,591,,,,,,,,,,,,,,,,,146,H,hexagon,1,1,,,,,,,,,,,,,,,,repeat,number,numRpt,d,Lo,,,,,,0.1703,1,,,,,,,,high,12,0,12,0,1,,,,,,,,,
297097,2022-12-05_18h03.57.563,vts_reward_expectancy_bt,2022.2.4,MacIntel,60.0024001,Chrome,1470,956,,,,,0,591,,,,,,,,,,,,,,,,,174,D,circle,0,0,,,,,,,,,,,,,,,,repeat,number,NA,d,Lo,,,,,,0.1733,1,,,,,,,,high,13,0,13,0,1,,,,,,,,,
297097,2022-12-05_18h03.57.563,vts_reward_expectancy_bt,2022.2.4,MacIntel,60.0024001,Chrome,1470,956,,,,,1,592,,,,,,,,,,,,,,,,,132,S,star,1,1,,,,,,,,,,,,,,,,repeat,number,numRpt,d,Lo,,,,,,0.0735,1,,,,,,,,high,14,0,14,0,1,,,,,,,,,
297097,2022-12-05_18h03.57.563,vts_reward_expectancy_bt,2022.2.4,MacIntel,60.0024001,Chrome,1470,956,,,,,10,602,,,,,,,,,,,,,,,,,167,B,triangle,1,0,,,,,,,,,,,,,,,,repeat,number,numRpt,f,Hi,,,,,,0.0003,1,,,,,,,,high,15,0,15,0,1,,,,,,,,,
297097,2022-12-05_18h03.57.563,vts_reward_expectancy_bt,2022.2.4,MacIntel,60.0024001,Chrome,1470,956,,,,,0,602,,,,,,,,,,,,,,,,,146,W,hexagon,0,0,,,,,,,,,,,,,,,,repeat,number,NA,f,Hi,,,,,,0.2394,1,,,,,,,,high,16,0,16,0,1,,,,,,,,,
297097,2022-12-05_18h03.57.563,vts_reward_expectancy_bt,2022.2.4,MacIntel,60.0024001,Chrome,1470,956,,,,,1,603,,,,,,,,,,,,,,,,,132,S,star,1,1,,,,,,,,,,,,,,,,repeat,number,numRpt,d,Lo,,,,,,0.0983,1,,,,,,,,high,17,0,17,0,1,,,,,,,,,
297097,2022-12-05_18h03.57.563,vts_reward_expectancy_bt,2022.2.4,MacIntel,60.0024001,Chrome,1470,956,,,,,0,603,,,,,,,,,,,,,,,,,160,B,triangle,0,0,,,,,,,,,,,,,,,,repeat,number,NA,d,Lo,,,,,,0.2144,1,,,,,,,,high,18,0,18,0,1,,,,,,,,,
297097,2022-12-05_18h03.57.563,vts_reward_expectancy_bt,2022.2.4,MacIntel,60.0024001,Chrome,1470,956,,,,,0,603,,,,,,,,,,,,,,,,,167,F,circle,0,1,,,,,,,,,,,,,,,,repeat,number,NA,d,Lo,,,,,,0.3063,1,,,,,,,,high,19,0,19,0,1,,,,,,,,,
297097,2022-12-05_18h03.57.563,vts_reward_expectancy_bt,2022.2.4,MacIntel,60.0024001,Chrome,1470,956,,,,,1,604,,,,,,,,,,,,,,,,,125,Y,triangle,1,1,,,,,,,,,,,,,,,,repeat,number,numRpt,d,Hi,,,,,,0.1136,1,,,,,,,,high,20,0,20,0,1,,,,,,,,,
297097,2022-12-05_18h03.57.563,vts_reward_expectancy_bt,2022.2.4,MacIntel,60.0024001,Chrome,1470,956,,,,,0,604,,,,,,,,,,,,,,,,,181,H,circle,-1,0,,,,,,,,,,,,,,,,switch,no_choice,NA,,Hi,,,,,,,1,,,,,,,,high,21,0,21,0,1,,,,,,,,,
297097,2022-12-05_18h03.57.563,vts_reward_expectancy_bt,2022.2.4,MacIntel,60.0024001,Chrome,1470,956,,,,,0,604,,,,,,,,,,,,,,,,,174,U,star,-1,0,,,,,,,,,,,,,,,,repeat,no_choice,NA,,Hi,,,,,,,1,,,,,,,,high,22,0,22,0,1,,,,,,,,,
297097,2022-12-05_18h03.57.563,vts_reward_expectancy_bt,2022.2.4,MacIntel,60.0024001,Chrome,1470,956,,,,,0,604,,,,,,,,,,,,,,,,,139,D,hexagon,-1,0,,,,,,,,,,,,,,,,repeat,no_choice,NA,,Hi,,,,,,,1,,,,,,,,high,23,0,23,0,1,,,,,,,,,
297097,2022-12-05_18h03.57.563,vts_reward_expectancy_bt,2022.2.4,MacIntel,60.0024001,Chrome,1470,956,,,,,0,604,,,,,,,,,,,,,,,,,132,W,circle,-1,0,,,,,,,,,,,,,,,,repeat,no_choice,NA,,Hi,,,,,,,1,,,,,,,,high,24,0,24,0,1,,,,,,,,,
297097,2022-12-05_18h03.57.563,vts_reward_expectancy_bt,2022.2.4,MacIntel,60.0024001,Chrome,1470,956,,,,,0,604,,,,,,,,,,,,,,,,,160,Y,star,-1,0,,,,,,,,,,,,,,,,repeat,no_choice,NA,,Hi,,,,,,,1,,,,,,,,high,25,0,25,0,1,,,,,,,,,
297097,2022-12-05_18h03.57.563,vts_reward_expectancy_bt,2022.2.4,MacIntel,60.0024001,Chrome,1470,956,,,,,0,604,,,,,,,,,,,,,,,,,125,D,triangle,-1,0,,,,,,,,,,,,,,,,repeat,no_choice,NA,,Hi,,,,,,,1,,,,,,,,high,26,0,26,0,1,,,,,,,,,
297097,2022-12-05_18h03.57.563,vts_reward_expectancy_bt,2022.2.4,MacIntel,60.0024001,Chrome,1470,956,,,,,0,604,,,,,,,,,,,,,,,,,146,S,hexagon,-1,0,,,,,,,,,,,,,,,,repeat,no_choice,NA,,Hi,,,,,,,1,,,,,,,,high,27,0,27,0,1,,,,,,,,,
297097,2022-12-05_18h03.57.563,vts_reward_expectancy_bt,2022.2.4,MacIntel,60.0024001,Chrome,1470,956,,,,,0,604,,,,,,,,,,,,,,,,,174,F,hexagon,0,0,,,,,,,,,,,,,,,,switch,number,NA,d,Hi,,,,,,0.7217,1,,,,,,,,high,28,0,28,0,1,,,,,,,,,
297097,2022-12-05_18h03.57.563,vts_reward_expectancy_bt,2022.2.4,MacIntel,60.0024001,Chrome,1470,956,,,,,0,604,,,,,,,,,,,,,,,,,139,H,triangle,0,1,,,,,,,,,,,,,,,,repeat,number,NA,f,Hi,,,,,,0.1141,1,,,,,,,,high,29,0,29,0,1,,,,,,,,,
297097,2022-12-05_18h03.57.563,vts_reward_expectancy_bt,2022.2.4,MacIntel,60.0024001,Chrome,1470,956,,,,,0,604,,,,,,,,,,,,,,,,,181,U,circle,0,1,,,,,,,,,,,,,,,,repeat,number,NA,d,Hi,,,,,,0.1662,1,,,,,,,,high,30,0,30,0,1,,,,,,,,,
297097,2022-12-05_18h03.57.563,vts_reward_expectancy_bt,2022.2.4,MacIntel,60.0024001,Chrome,1470,956,,,,,0,604,,,,,,,,,,,,,,,,,167,B,star,0,1,,,,,,,,,,,,,,,,repeat,number,NA,d,Hi,,,,,,0.122,1,,,,,,,,high,31,0,31,0,1,,,,,,,,,
297097,2022-12-05_18h03.57.563,vts_reward_expectancy_bt,2022.2.4,MacIntel,60.0024001,Chrome,1470,956,,,,,0,604,,,,,,,,,,,,,,,,,181,Y,star,0,1,,,,,,,,,,,,,,,,repeat,number,NA,d,Hi,,,,,,0.098,2,,,,,,space,1.6088,high,0,0,0,0,1,,,,,,,,,
297097,2022-12-05_18h03.57.563,vts_reward_expectancy_bt,2022.2.4,MacIntel,60.0024001,Chrome,1470,956,,,,,0,604,,,,,,,,,,,,,,,,,174,S,circle,0,1,,,,,,,,,,,,,,,,repeat,number,NA,d,Hi,,,,,,0.216,2,,,,,,,,high,1,0,1,0,1,,,,,,,,,
297097,2022-12-05_18h03.57.563,vts_reward_expectancy_bt,2022.2.4,MacIntel,60.0024001,Chrome,1470,956,,,,,1,605,,,,,,,,,,,,,,,,,132,D,hexagon,1,1,,,,,,,,,,,,,,,,repeat,number,numRpt,d,Lo,,,,,,0.0978,2,,,,,,,,high,2,0,2,0,1,,,,,,,,,
297097,2022-12-05_18h03.57.563,vts_reward_expectancy_bt,2022.2.4,MacIntel,60.0024001,Chrome,1470,956,,,,,0,605,,,,,,,,,,,,,,,,,125,W,triangle,1,0,,,,,,,,,,,,,,,,repeat,number,numRpt,d,Hi,,,,,,0.2068,2,,,,,,,,high,3,0,3,0,1,,,,,,,,,
297097,2022-12-05_18h03.57.563,vts_reward_expectancy_bt,2022.2.4,MacIntel,60.0024001,Chrome,1470,956,,,,,0,605,,,,,,,,,,,,,,,,,167,B,star,0,0,,,,,,,,,,,,,,,,repeat,number,NA,d,Hi,,,,,,0.1973,2,,,,,,,,high,4,0,4,0,1,,,,,,,,,
297097,2022-12-05_18h03.57.563,vts_reward_expectancy_bt,2022.2.4,MacIntel,60.0024001,Chrome,1470,956,,,,,0,605,,,,,,,,,,,,,,,,,139,H,circle,1,1,,,,,,,,,,,,,,,,repeat,number,numRpt,d,Hi,,,,,,0.1402,2,,,,,,,,high,5,0,5,0,1,,,,,,,,,
297097,2022-12-05_18h03.57.563,vts_reward_expectancy_bt,2022.2.4,MacIntel,60.0024001,Chrome,1470,956,,,,,1,606,,,,,,,,,,,,,,,,,146,F,hexagon,1,0,,,,,,,,,,,,,,,,repeat,number,numRpt,d,Lo,,,,,,0.0836,2,,,,,,,,high,6,0,6,0,1,,,,,,,,,
297097,2022-12-05_18h03.57.563,vts_reward_expectancy_bt,2022.2.4,MacIntel,60.0024001,Chrome,1470,956,,,,,10,616,,,,,,,,,,,,,,,,,160,U,triangle,1,0,,,,,,,,,,,,,,,,repeat,number,numRpt,f,Hi,,,,,,0.0504,2,,,,,,,,high,7,0,7,0,1,,,,,,,,,
297097,2022-12-05_18h03.57.563,vts_reward_expectancy_bt,2022.2.4,MacIntel,60.0024001,Chrome,1470,956,,,,,0,616,,,,,,,,,,,,,,,,,181,Y,star,0,0,,,,,,,,,,,,,,,,repeat,number,NA,d,Hi,,,,,,0.0304,2,,,,,,,,high,8,0,8,0,1,,,,,,,,,
297097,2022-12-05_18h03.57.563,vts_reward_expectancy_bt,2022.2.4,MacIntel,60.0024001,Chrome,1470,956,,,,,0,616,,,,,,,,,,,,,,,,,174,S,hexagon,0,1,,,,,,,,,,,,,,,,repeat,number,NA,d,Hi,,,,,,0.0329,2,,,,,,,,high,9,0,9,0,1,,,,,,,,,
297097,2022-12-05_18h03.57.563,vts_reward_expectancy_bt,2022.2.4,MacIntel,60.0024001,Chrome,1470,956,,,,,0,616,,,,,,,,,,,,,,,,,132,D,triangle,1,1,,,,,,,,,,,,,,,,repeat,number,numRpt,d,Hi,,,,,,0.129,2,,,,,,,,high,10,0,10,0,1,,,,,,,,,
297097,2022-12-05_18h03.57.563,vts_reward_expectancy_bt,2022.2.4,MacIntel,60.0024001,Chrome,1470,956,,,,,0,616,,,,,,,,,,,,,,,,,125,W,circle,1,0,,,,,,,,,,,,,,,,repeat,number,numRpt,d,Hi,,,,,,0.3661,2,,,,,,,,high,11,0,11,0,1,,,,,,,,,
297097,2022-12-05_18h03.57.563,vts_reward_expectancy_bt,2022.2.4,MacIntel,60.0024001,Chrome,1470,956,,,,,1,617,,,,,,,,,,,,,,,,,167,B,hexagon,1,0,,,,,,,,,,,,,,,,repeat,number,numRpt,f,Lo,,,,,,0.1305,2,,,,,,,,high,12,0,12,0,1,,,,,,,,,
297097,2022-12-05_18h03.57.563,vts_reward_expectancy_bt,2022.2.4,MacIntel,60.0024001,Chrome,1470,956,,,,,0,617,,,,,,,,,,,,,,,,,139,H,triangle,1,0,,,,,,,,,,,,,,,,repeat,number,numRpt,d,Hi,,,,,,0.2298,2,,,,,,,,high,13,0,13,0,1,,,,,,,,,
297097,2022-12-05_18h03.57.563,vts_reward_expectancy_bt,2022.2.4,MacIntel,60.0024001,Chrome,1470,956,,,,,1,618,,,,,,,,,,,,,,,,,146,F,star,1,0,,,,,,,,,,,,,,,,repeat,number,numRpt,d,Lo,,,,,,0.0373,2,,,,,,,,high,14,0,14,0,1,,,,,,,,,
297097,2022-12-05_18h03.57.563,vts_reward_expectancy_bt,2022.2.4,MacIntel,60.0024001,Chrome,1470,956,,,,,10,628,,,,,,,,,,,,,,,,,160,U,circle,1,0,,,,,,,,,,,,,,,,repeat,number,numRpt,f,Hi,,,,,,0.014,2,,,,,,,,high,15,0,15,0,1,,,,,,,,,
297097,2022-12-05_18h03.57.563,vts_reward_expectancy_bt,2022.2.4,MacIntel,60.0024001,Chrome,1470,956,,,,,0,628,,,,,,,,,,,,,,,,,174,Y,triangle,0,0,,,,,,,,,,,,,,,,repeat,number,NA,d,Hi,,,,,,0.0659,2,,,,,,,,high,16,0,16,0,1,,,,,,,,,
297097,2022-12-05_18h03.57.563,vts_reward_expectancy_bt,2022.2.4,MacIntel,60.0024001,Chrome,1470,956,,,,,0,628,,,,,,,,,,,,,,,,,139,U,circle,0,1,,,,,,,,,,,,,,,,repeat,number,NA,f,Hi,,,,,,0.1145,2,,,,,,,,high,17,0,17,0,1,,,,,,,,,
297097,2022-12-05_18h03.57.563,vts_reward_expectancy_bt,2022.2.4,MacIntel,60.0024001,Chrome,1470,956,,,,,0,628,,,,,,,,,,,,,,,,,167,D,hexagon,0,1,,,,,,,,,,,,,,,,repeat,number,NA,d,Hi,,,,,,0.0529,2,,,,,,,,high,18,0,18,0,1,,,,,,,,,
297097,2022-12-05_18h03.57.563,vts_reward_expectancy_bt,2022.2.4,MacIntel,60.0024001,Chrome,1470,956,,,,,1,629,,,,,,,,,,,,,,,,,132,F,star,1,1,,,,,,,,,,,,,,,,repeat,number,numRpt,d,Lo,,,,,,0.046,2,,,,,,,,high,19,0,19,0,1,,,,,,,,,
297097,2022-12-05_18h03.57.563,vts_reward_expectancy_bt,2022.2.4,MacIntel,60.0024001,Chrome,1470,956,,,,,0,629,,,,,,,,,,,,,,,,,146,W,star,0,0,,,,,,,,,,,,,,,,repeat,number,NA,f,Lo,,,,,,0.1314,2,,,,,,,,high,20,0,20,0,1,,,,,,,,,
297097,2022-12-05_18h03.57.563,vts_reward_expectancy_bt,2022.2.4,MacIntel,60.0024001,Chrome,1470,956,,,,,0,629,,,,,,,,,,,,,,,,,125,H,triangle,1,1,,,,,,,,,,,,,,,,repeat,number,numRpt,d,Hi,,,,,,1.8968,2,,,,,,,,high,21,0,21,0,1,,,,,,,,,
297097,2022-12-05_18h03.57.563,vts_reward_expectancy_bt,2022.2.4,MacIntel,60.0024001,Chrome,1470,956,,,,,0,629,,,,,,,,,,,,,,,,,181,B,hexagon,0,0,,,,,,,,,,,,,,,,repeat,number,NA,d,Hi,,,,,,1.3318,2,,,,,,,,high,22,0,22,0,1,,,,,,,,,
297097,2022-12-05_18h03.57.563,vts_reward_expectancy_bt,2022.2.4,MacIntel,60.0024001,Chrome,1470,956,,,,,10,639,,,,,,,,,,,,,,,,,160,S,circle,1,1,,,,,,,,,,,,,,,,repeat,number,numRpt,f,Hi,,,,,,0.0993,2,,,,,,,,high,23,0,23,0,1,,,,,,,,,
297097,2022-12-05_18h03.57.563,vts_reward_expectancy_bt,2022.2.4,MacIntel,60.0024001,Chrome,1470,956,,,,,0,639,,,,,,,,,,,,,,,,,181,S,hexagon,0,0,,,,,,,,,,,,,,,,repeat,number,NA,d,Hi,,,,,,0.1666,2,,,,,,,,high,24,0,24,0,1,,,,,,,,,
297097,2022-12-05_18h03.57.563,vts_reward_expectancy_bt,2022.2.4,MacIntel,60.0024001,Chrome,1470,956,,,,,0,639,,,,,,,,,,,,,,,,,132,D,circle,1,1,,,,,,,,,,,,,,,,repeat,number,numRpt,d,Hi,,,,,,0.183,2,,,,,,,,high,25,0,25,0,1,,,,,,,,,
297097,2022-12-05_18h03.57.563,vts_reward_expectancy_bt,2022.2.4,MacIntel,60.0024001,Chrome,1470,956,,,,,1,640,,,,,,,,,,,,,,,,,174,H,star,1,0,,,,,,,,,,,,,,,,repeat,number,numRpt,f,Lo,,,,,,0.166,2,,,,,,,,high,26,0,26,0,1,,,,,,,,,
297097,2022-12-05_18h03.57.563,vts_reward_expectancy_bt,2022.2.4,MacIntel,60.0024001,Chrome,1470,956,,,,,0,640,,,,,,,,,,,,,,,,,146,U,triangle,1,0,,,,,,,,,,,,,,,,repeat,number,numRpt,d,Hi,,,,,,0.1171,2,,,,,,,,high,27,0,27,0,1,,,,,,,,,
297097,2022-12-05_18h03.57.563,vts_reward_expectancy_bt,2022.2.4,MacIntel,60.0024001,Chrome,1470,956,,,,,1,641,,,,,,,,,,,,,,,,,160,Y,hexagon,1,0,,,,,,,,,,,,,,,,repeat,number,numRpt,f,Lo,,,,,,0.241,2,,,,,,,,high,28,0,28,0,1,,,,,,,,,
297097,2022-12-05_18h03.57.563,vts_reward_expectancy_bt,2022.2.4,MacIntel,60.0024001,Chrome,1470,956,,,,,1,642,,,,,,,,,,,,,,,,,125,W,star,1,0,,,,,,,,,,,,,,,,repeat,number,numRpt,d,Lo,,,,,,0.2727,2,,,,,,,,high,29,0,29,0,1,,,,,,,,,
297097,2022-12-05_18h03.57.563,vts_reward_expectancy_bt,2022.2.4,MacIntel,60.0024001,Chrome,1470,956,,,,,0,642,,,,,,,,,,,,,,,,,139,B,circle,0,0,,,,,,,,,,,,,,,,repeat,number,NA,f,Lo,,,,,,0.047,2,,,,,,,,high,30,0,30,0,1,,,,,,,,,
297097,2022-12-05_18h03.57.563,vts_reward_expectancy_bt,2022.2.4,MacIntel,60.0024001,Chrome,1470,956,,,,,0,642,,,,,,,,,,,,,,,,,167,F,triangle,0,1,,,,,,,,,,,,,,,,repeat,number,NA,d,Lo,,,,,,0.1187,2,,,,,,,,high,31,0,31,0,1,,,,,,,,,
297097,2022-12-05_18h03.57.563,vts_reward_expectancy_bt,2022.2.4,MacIntel,60.0024001,Chrome,1470,956,,,,,0,642,,,,,,,,,,,,,,,,,160,W,triangle,1,1,,,,,,,,,,,,,,,,repeat,number,numRpt,f,Hi,,,,,,0.1159,3,,,,,,space,1.6175,high,0,0,0,0,1,,,,,,,,,
297097,2022-12-05_18h03.57.563,vts_reward_expectancy_bt,2022.2.4,MacIntel,60.0024001,Chrome,1470,956,,,,,1,643,,,,,,,,,,,,,,,,,139,H,hexagon,1,0,,,,,,,,,,,,,,,,repeat,number,numRpt,d,Lo,,,,,,0.0003,3,,,,,,,,high,1,0,1,0,1,,,,,,,,,
297097,2022-12-05_18h03.57.563,vts_reward_expectancy_bt,2022.2.4,MacIntel,60.0024001,Chrome,1470,956,,,,,0,643,,,,,,,,,,,,,,,,,125,B,circle,1,0,,,,,,,,,,,,,,,,repeat,number,numRpt,d,Hi,,,,,,0.2013,3,,,,,,,,high,2,0,2,0,1,,,,,,,,,
297097,2022-12-05_18h03.57.563,vts_reward_expectancy_bt,2022.2.4,MacIntel,60.0024001,Chrome,1470,956,,,,,1,644,,,,,,,,,,,,,,,,,181,S,star,1,0,,,,,,,,,,,,,,,,repeat,number,numRpt,f,Lo,,,,,,1.3869,3,,,,,,,,high,3,0,3,0,1,,,,,,,,,
297097,2022-12-05_18h03.57.563,vts_reward_expectancy_bt,2022.2.4,MacIntel,60.0024001,Chrome,1470,956,,,,,0,644,,,,,,,,,,,,,,,,,167,F,triangle,1,0,,,,,,,,,,,,,,,,repeat,number,numRpt,f,Hi,,,,,,0.1638,3,,,,,,,,high,4,0,4,0,1,,,,,,,,,
297097,2022-12-05_18h03.57.563,vts_reward_expectancy_bt,2022.2.4,MacIntel,60.0024001,Chrome,1470,956,,,,,1,645,,,,,,,,,,,,,,,,,132,D,hexagon,1,0,,,,,,,,,,,,,,,,repeat,number,numRpt,d,Lo,,,,,,0.2011,3,,,,,,,,high,5,0,5,0,1,,,,,,,,,
297097,2022-12-05_18h03.57.563,vts_reward_expectancy_bt,2022.2.4,MacIntel,60.0024001,Chrome,1470,956,,,,,10,655,,,,,,,,,,,,,,,,,146,Y,circle,1,0,,,,,,,,,,,,,,,,repeat,number,numRpt,d,Hi,,,,,,0.0474,3,,,,,,,,high,6,0,6,0,1,,,,,,,,,
297097,2022-12-05_18h03.57.563,vts_reward_expectancy_bt,2022.2.4,MacIntel,60.0024001,Chrome,1470,956,,,,,1,656,,,,,,,,,,,,,,,,,174,U,star,1,0,,,,,,,,,,,,,,,,repeat,number,numRpt,f,Lo,,,,,,0.2639,3,,,,,,,,high,7,0,7,0,1,,,,,,,,,
297097,2022-12-05_18h03.57.563,vts_reward_expectancy_bt,2022.2.4,MacIntel,60.0024001,Chrome,1470,956,,,,,0,656,,,,,,,,,,,,,,,,,160,W,triangle,0,0,,,,,,,,,,,,,,,,repeat,number,NA,d,Lo,,,,,,0.3326,3,,,,,,,,high,8,0,8,0,1,,,,,,,,,
297097,2022-12-05_18h03.57.563,vts_reward_expectancy_bt,2022.2.4,MacIntel,60.0024001,Chrome,1470,956,,,,,0,656,,,,,,,,,,,,,,,,,139,H,circle,1,1,,,,,,,,,,,,,,,,repeat,number,numRpt,d,Hi,,,,,,0.3891,3,,,,,,,,high,9,0,9,0,1,,,,,,,,,
297097,2022-12-05_18h03.57.563,vts_reward_expectancy_bt,2022.2.4,MacIntel,60.0024001,Chrome,1470,956,,,,,1,657,,,,,,,,,,,,,,,,,125,B,hexagon,1,0,,,,,,,,,,,,,,,,repeat,number,numRpt,d,Lo,,,,,,0.4409,3,,,,,,,,high,10,0,10,0,1,,,,,,,,,
297097,2022-12-05_18h03.57.563,vts_reward_expectancy_bt,2022.2.4,MacIntel,60.0024001,Chrome,1470,956,,,,,0,657,,,,,,,,,,,,,,,,,181,S,star,0,0,,,,,,,,,,,,,,,,repeat,number,NA,d,Lo,,,,,,0.0003,3,,,,,,,,high,11,0,11,0,1,,,,,,,,,
297097,2022-12-05_18h03.57.563,vts_reward_expectancy_bt,2022.2.4,MacIntel,60.0024001,Chrome,1470,956,,,,,0,657,,,,,,,,,,,,,,,,,167,F,triangle,0,1,,,,,,,,,,,,,,,,repeat,number,NA,d,Lo,,,,,,0.0116,3,,,,,,,,high,12,0,12,0,1,,,,,,,,,
297097,2022-12-05_18h03.57.563,vts_reward_expectancy_bt,2022.2.4,MacIntel,60.0024001,Chrome,1470,956,,,,,1,658,,,,,,,,,,,,,,,,,132,D,star,1,1,,,,,,,,,,,,,,,,repeat,number,numRpt,d,Lo,,,,,,0.0542,3,,,,,,,,high,13,0,13,0,1,,,,,,,,,
297097,2022-12-05_18h03.57.563,vts_reward_expectancy_bt,2022.2.4,MacIntel,60.0024001,Chrome,1470,956,,,,,0,658,,,,,,,,,,,,,,,,,146,Y,circle,1,0,,,,,,,,,,,,,,,,repeat,number,numRpt,d,Hi,,,,,,0.1517,3,,,,,,,,high,14,0,14,0,1,,,,,,,,,
297097,2022-12-05_18h03.57.563,vts_reward_expectancy_bt,2022.2.4,MacIntel,60.0024001,Chrome,1470,956,,,,,1,659,,,,,,,,,,,,,,,,,174,U,hexagon,1,0,,,,,,,,,,,,,,,,repeat,number,numRpt,f,Lo,,,,,,0.1716,3,,,,,,,,high,15,0,15,0,1,,,,,,,,,
297097,2022-12-05_18h03.57.563,vts_reward_expectancy_bt,2022.2.4,MacIntel,60.0024001,Chrome,1470,956,,,,,0,659,,,,,,,,,,,,,,,,,146,U,hexagon,0,0,,,,,,,,,,,,,,,,repeat,number,NA,f,Lo,,,,,,0.2496,3,,,,,,,,high,16,0,16,0,1,,,,,,,,,
297097,2022-12-05_18h03.57.563,vts_reward_expectancy_bt,2022.2.4,MacIntel,60.0024001,Chrome,1470,956,,,,,0,659,,,,,,,,,,,,,,,,,174,H,star,0,1,,,,,,,,,,,,,,,,repeat,number,NA,d,Lo,,,,,,0.0492,3,,,,,,,,high,17,0,17,0,1,,,,,,,,,
297097,2022-12-05_18h03.57.563,vts_reward_expectancy_bt,2022.2.4,MacIntel,60.0024001,Chrome,1470,956,,,,,0,659,,,,,,,,,,,,,,,,,125,W,triangle,1,1,,,,,,,,,,,,,,,,repeat,number,numRpt,d,Hi,,,,,,0.1577,3,,,,,,,,high,18,0,18,0,1,,,,,,,,,
297097,2022-12-05_18h03.57.563,vts_reward_expectancy_bt,2022.2.4,MacIntel,60.0024001,Chrome,1470,956,,,,,0,659,,,,,,,,,,,,,,,,,160,S,circle,1,0,,,,,,,,,,,,,,,,repeat,number,numRpt,f,Hi,,,,,,0.1641,3,,,,,,,,high,19,0,19,0,1,,,,,,,,,
297097,2022-12-05_18h03.57.563,vts_reward_expectancy_bt,2022.2.4,MacIntel,60.0024001,Chrome,1470,956,,,,,0,659,,,,,,,,,,,,,,,,,139,D,star,0,0,,,,,,,,,,,,,,,,repeat,number,NA,f,Hi,,,,,,0.2738,3,,,,,,,,high,20,0,20,0,1,,,,,,,,,
297097,2022-12-05_18h03.57.563,vts_reward_expectancy_bt,2022.2.4,MacIntel,60.0024001,Chrome,1470,956,,,,,10,669,,,,,,,,,,,,,,,,,181,B,triangle,1,1,,,,,,,,,,,,,,,,repeat,number,numRpt,f,Hi,,,,,,0.0137,3,,,,,,,,high,21,0,21,0,1,,,,,,,,,
297097,2022-12-05_18h03.57.563,vts_reward_expectancy_bt,2022.2.4,MacIntel,60.0024001,Chrome,1470,956,,,,,0,669,,,,,,,,,,,,,,,,,132,Y,circle,0,0,,,,,,,,,,,,,,,,repeat,number,NA,f,Hi,,,,,,0.0304,3,,,,,,,,high,22,0,22,0,1,,,,,,,,,
297097,2022-12-05_18h03.57.563,vts_reward_expectancy_bt,2022.2.4,MacIntel,60.0024001,Chrome,1470,956,,,,,0,669,,,,,,,,,,,,,,,,,167,F,hexagon,0,1,,,,,,,,,,,,,,,,repeat,number,NA,d,Hi,,,,,,0.7833,3,,,,,,,,high,23,0,23,0,1,,,,,,,,,
297097,2022-12-05_18h03.57.563,vts_reward_expectancy_bt,2022.2.4,MacIntel,60.0024001,Chrome,1470,956,,,,,0,669,,,,,,,,,,,,,,,,,146,F,star,0,1,,,,,,,,,,,,,,,,repeat,number,NA,f,Hi,,,,,,1.057,3,,,,,,,,high,24,0,24,0,1,,,,,,,,,
297097,2022-12-05_18h03.57.563,vts_reward_expectancy_bt,2022.2.4,MacIntel,60.0024001,Chrome,1470,956,,,,,0,669,,,,,,,,,,,,,,,,,139,Y,hexagon,0,1,,,,,,,,,,,,,,,,repeat,number,NA,f,Hi,,,,,,0.3661,3,,,,,,,,high,25,0,25,0,1,,,,,,,,,
297097,2022-12-05_18h03.57.563,vts_reward_expectancy_bt,2022.2.4,MacIntel,60.0024001,Chrome,1470,956,,,,,1,670,,,,,,,,,,,,,,,,,132,B,triangle,1,1,,,,,,,,,,,,,,,,repeat,number,numRpt,d,Hi,,,,,,0.0034,3,,,,,,,,high,26,0,26,0,1,,,,,,,,,
297097,2022-12-05_18h03.57.563,vts_reward_expectancy_bt,2022.2.4,MacIntel,60.0024001,Chrome,1470,956,,,,,0,670,,,,,,,,,,,,,,,,,174,W,circle,1,0,,,,,,,,,,,,,,,,repeat,number,numRpt,f,Hi,,,,,,0.2297,3,,,,,,,,high,27,0,27,0,1,,,,,,,,,
297097,2022-12-05_18h03.57.563,vts_reward_expectancy_bt,2022.2.4,MacIntel,60.0024001,Chrome,1470,956,,,,,0,670,,,,,,,,,,,,,,,,,160,S,triangle,0,0,,,,,,,,,,,,,,,,repeat,number,NA,d,Hi,,,,,,0.2734,3,,,,,,,,high,28,0,28,0,1,,,,,,,,,
