participant,date,expName,psychopyVersion,OS,frameRate,browser,xResolution,yResolution,key_resp.keys,key_resp.rt,training_resp.keys,training_resp.rt,points_trial,points_cumul,trainBlock,training.thisRepN,training.thisTrialN,training.thisN,training.thisIndex,training.ran,LTriangleOpac,LCircleOpac,LHexagonOpac,LStarOpac,RTriangleOpac,RCircleOpac,RHexagonOpac,RStarOpac,LShape_ID,RShape_ID,curr_topStim,curr_bottStim,curr_shape,acc,E1,target_resp_prac1.keys,target_resp_prac1.rt,pracBlock,task1_prac_trials.thisRepN,task1_prac_trials.thisTrialN,task1_prac_trials.thisN,task1_prac_trials.thisIndex,task1_prac_trials.ran,target_resp_prac2.keys,target_resp_prac2.rt,task2_praac_trials.thisRepN,task2_praac_trials.thisTrialN,task2_praac_trials.thisN,task2_praac_trials.thisIndex,task2_praac_trials.ran,alt,task,condition,target_resp.keys,rewCond,vts_practice_trials.thisRepN,vts_practice_trials.thisTrialN,vts_practice_trials.thisN,vts_practice_trials.thisIndex,vts_practice_trials.ran,target_resp.rt,blockNum,trials_norew.thisRepN,trials_norew.thisTrialN,trials_norew.thisN,trials_norew.thisIndex,trials_norew.ran,key_resp_2.keys,key_resp_2.rt,rewExpectancy,trials_rew.thisRepN,trials_rew.thisTrialN,trials_rew.thisN,trials_rew.thisIndex,trials_rew.ran,Q1,Q2,Q2_text,Q3,Q4,Q5_text,Q5,xRes,yRes
297088,2022-11-25_10h22.39.382,vts_reward_expectancy_bt,2022.2.4,MacIntel,62.5,Safari,1470,956,,,,,,,,,,,,,,,,,,,,,,,,,,,,,,,,,,,,,,,,,,,,,,,,,,,,,,,,,,,,,,,,,,,,,,,,,,,,
297088,2022-11-25_10h22.39.382,vts_reward_expectancy_bt,2022.2.4,MacIntel,62.5,Safari,1470,956,space,20.599,,,,,,,,,,,,,,,,,,,,,,,,,,,,,,,,,,,,,,,,,,,,,,,,,,,,,,,,,,,,,,,,,,,,,,,,,,
297088,2022-11-25_10h22.39.382,vts_reward_expectancy_bt,2022.2.4,MacIntel,62.5,Safari,1470,956,,,,,,,,,,,,,,,,,,,,,,,,,,,,,,,,,,,,,,,,,,,,,,,,,,,,,,,,,,,,,,,,,,,,,,,,,,,,
297088,2022-11-25_10h22.39.382,vts_reward_expectancy_bt,2022.2.4,MacIntel,62.5,Safari,1470,956,,,a,3.342,10,10,0,0,0,0,0,1,1,0,0,0,0,1,0,0,triangle,circle,,,,,,,,,,,,,,,,,,,,,,,,,,,,,,,,,,,,,,,,,,,,,,,,,,,,,,
297088,2022-11-25_10h22.39.382,vts_reward_expectancy_bt,2022.2.4,MacIntel,62.5,Safari,1470,956,,,l,1.332,1,11,0,0,1,1,2,1,1,0,0,0,0,0,0,1,triangle,star,,,,,,,,,,,,,,,,,,,,,,,,,,,,,,,,,,,,,,,,,,,,,,,,,,,,,,
297088,2022-11-25_10h22.39.382,vts_reward_expectancy_bt,2022.2.4,MacIntel,62.5,Safari,1470,956,,,l,1.601,10,21,0,0,2,2,9,1,0,0,0,1,1,0,0,0,star,triangle,,,,,,,,,,,,,,,,,,,,,,,,,,,,,,,,,,,,,,,,,,,,,,,,,,,,,,
297088,2022-11-25_10h22.39.382,vts_reward_expectancy_bt,2022.2.4,MacIntel,62.5,Safari,1470,956,,,a,2.357,1,22,0,0,3,3,8,1,0,0,1,0,0,0,0,1,hexagon,star,,,,,,,,,,,,,,,,,,,,,,,,,,,,,,,,,,,,,,,,,,,,,,,,,,,,,,
297088,2022-11-25_10h22.39.382,vts_reward_expectancy_bt,2022.2.4,MacIntel,62.5,Safari,1470,956,,,l,2.077,1,23,0,0,4,4,1,1,1,0,0,0,0,0,1,0,triangle,hexagon,,,,,,,,,,,,,,,,,,,,,,,,,,,,,,,,,,,,,,,,,,,,,,,,,,,,,,
297088,2022-11-25_10h22.39.382,vts_reward_expectancy_bt,2022.2.4,MacIntel,62.5,Safari,1470,956,,,a,2.566,1,24,0,0,5,5,10,1,0,0,0,1,0,1,0,0,star ,circle,,,,,,,,,,,,,,,,,,,,,,,,,,,,,,,,,,,,,,,,,,,,,,,,,,,,,,
297088,2022-11-25_10h22.39.382,vts_reward_expectancy_bt,2022.2.4,MacIntel,62.5,Safari,1470,956,,,a,1.277,10,34,0,0,6,6,3,1,0,1,0,0,1,0,0,0,circle,triangle,,,,,,,,,,,,,,,,,,,,,,,,,,,,,,,,,,,,,,,,,,,,,,,,,,,,,,
297088,2022-11-25_10h22.39.382,vts_reward_expectancy_bt,2022.2.4,MacIntel,62.5,Safari,1470,956,,,a,1.772,1,35,0,0,7,7,7,1,0,0,1,0,0,1,0,0,hexagon,circle,,,,,,,,,,,,,,,,,,,,,,,,,,,,,,,,,,,,,,,,,,,,,,,,,,,,,,
297088,2022-11-25_10h22.39.382,vts_reward_expectancy_bt,2022.2.4,MacIntel,62.5,Safari,1470,956,,,a,1.916,1,36,0,0,8,8,11,1,0,0,0,1,0,0,1,0,star,hexagon,,,,,,,,,,,,,,,,,,,,,,,,,,,,,,,,,,,,,,,,,,,,,,,,,,,,,,
297088,2022-11-25_10h22.39.382,vts_reward_expectancy_bt,2022.2.4,MacIntel,62.5,Safari,1470,956,,,a,1.857,1,37,0,0,9,9,6,1,0,0,1,0,1,0,0,0,hexagon,triangle,,,,,,,,,,,,,,,,,,,,,,,,,,,,,,,,,,,,,,,,,,,,,,,,,,,,,,
297088,2022-11-25_10h22.39.382,vts_reward_expectancy_bt,2022.2.4,MacIntel,62.5,Safari,1470,956,,,a,1.333,1,38,0,0,10,10,5,1,0,1,0,0,0,0,0,1,circle,star,,,,,,,,,,,,,,,,,,,,,,,,,,,,,,,,,,,,,,,,,,,,,,,,,,,,,,
297088,2022-11-25_10h22.39.382,vts_reward_expectancy_bt,2022.2.4,MacIntel,62.5,Safari,1470,956,,,a,2.488,1,39,0,0,11,11,4,1,0,1,0,0,0,0,1,0,circle,hexagon,,,,,,,,,,,,,,,,,,,,,,,,,,,,,,,,,,,,,,,,,,,,,,,,,,,,,,
297088,2022-11-25_10h22.39.382,vts_reward_expectancy_bt,2022.2.4,MacIntel,62.5,Safari,1470,956,,,l,1.873,1,40,0,1,0,12,4,1,0,1,0,0,0,0,1,0,circle,hexagon,,,,,,,,,,,,,,,,,,,,,,,,,,,,,,,,,,,,,,,,,,,,,,,,,,,,,,
297088,2022-11-25_10h22.39.382,vts_reward_expectancy_bt,2022.2.4,MacIntel,62.5,Safari,1470,956,,,a,1.73,1,41,0,1,1,13,3,1,0,1,0,0,1,0,0,0,circle,triangle,,,,,,,,,,,,,,,,,,,,,,,,,,,,,,,,,,,,,,,,,,,,,,,,,,,,,,
297088,2022-11-25_10h22.39.382,vts_reward_expectancy_bt,2022.2.4,MacIntel,62.5,Safari,1470,956,,,a,1.95,1,42,0,1,2,14,0,1,1,0,0,0,0,1,0,0,triangle,circle,,,,,,,,,,,,,,,,,,,,,,,,,,,,,,,,,,,,,,,,,,,,,,,,,,,,,,
297088,2022-11-25_10h22.39.382,vts_reward_expectancy_bt,2022.2.4,MacIntel,62.5,Safari,1470,956,,,l,1.406,10,52,0,1,3,15,11,1,0,0,0,1,0,0,1,0,star,hexagon,,,,,,,,,,,,,,,,,,,,,,,,,,,,,,,,,,,,,,,,,,,,,,,,,,,,,,
297088,2022-11-25_10h22.39.382,vts_reward_expectancy_bt,2022.2.4,MacIntel,62.5,Safari,1470,956,,,l,1.285,1,53,0,1,4,16,10,1,0,0,0,1,0,1,0,0,star ,circle,,,,,,,,,,,,,,,,,,,,,,,,,,,,,,,,,,,,,,,,,,,,,,,,,,,,,,
297088,2022-11-25_10h22.39.382,vts_reward_expectancy_bt,2022.2.4,MacIntel,62.5,Safari,1470,956,,,a,2.636,1,54,0,1,5,17,6,1,0,0,1,0,1,0,0,0,hexagon,triangle,,,,,,,,,,,,,,,,,,,,,,,,,,,,,,,,,,,,,,,,,,,,,,,,,,,,,,
297088,2022-11-25_10h22.39.382,vts_reward_expectancy_bt,2022.2.4,MacIntel,62.5,Safari,1470,956,,,a,1.481,1,55,0,1,6,18,5,1,0,1,0,0,0,0,0,1,circle,star,,,,,,,,,,,,,,,,,,,,,,,,,,,,,,,,,,,,,,,,,,,,,,,,,,,,,,
297088,2022-11-25_10h22.39.382,vts_reward_expectancy_bt,2022.2.4,MacIntel,62.5,Safari,1470,956,,,a,2.649,10,65,0,1,7,19,1,1,1,0,0,0,0,0,1,0,triangle,hexagon,,,,,,,,,,,,,,,,,,,,,,,,,,,,,,,,,,,,,,,,,,,,,,,,,,,,,,
297088,2022-11-25_10h22.39.382,vts_reward_expectancy_bt,2022.2.4,MacIntel,62.5,Safari,1470,956,,,a,0.945,10,75,0,1,8,20,2,1,1,0,0,0,0,0,0,1,triangle,star,,,,,,,,,,,,,,,,,,,,,,,,,,,,,,,,,,,,,,,,,,,,,,,,,,,,,,
297088,2022-11-25_10h22.39.382,vts_reward_expectancy_bt,2022.2.4,MacIntel,62.5,Safari,1470,956,,,l,1.19,1,76,0,1,9,21,7,1,0,0,1,0,0,1,0,0,hexagon,circle,,,,,,,,,,,,,,,,,,,,,,,,,,,,,,,,,,,,,,,,,,,,,,,,,,,,,,
297088,2022-11-25_10h22.39.382,vts_reward_expectancy_bt,2022.2.4,MacIntel,62.5,Safari,1470,956,,,l,2.571,10,86,0,1,10,22,8,1,0,0,1,0,0,0,0,1,hexagon,star,,,,,,,,,,,,,,,,,,,,,,,,,,,,,,,,,,,,,,,,,,,,,,,,,,,,,,
297088,2022-11-25_10h22.39.382,vts_reward_expectancy_bt,2022.2.4,MacIntel,62.5,Safari,1470,956,,,l,2.01,10,96,0,1,11,23,9,1,0,0,0,1,1,0,0,0,star,triangle,,,,,,,,,,,,,,,,,,,,,,,,,,,,,,,,,,,,,,,,,,,,,,,,,,,,,,
297088,2022-11-25_10h22.39.382,vts_reward_expectancy_bt,2022.2.4,MacIntel,62.5,Safari,1470,956,,,l,1.891,1,97,0,2,0,24,10,1,0,0,0,1,0,1,0,0,star ,circle,,,,,,,,,,,,,,,,,,,,,,,,,,,,,,,,,,,,,,,,,,,,,,,,,,,,,,
297088,2022-11-25_10h22.39.382,vts_reward_expectancy_bt,2022.2.4,MacIntel,62.5,Safari,1470,956,,,a,1.284,1,98,0,2,1,25,0,1,1,0,0,0,0,1,0,0,triangle,circle,,,,,,,,,,,,,,,,,,,,,,,,,,,,,,,,,,,,,,,,,,,,,,,,,,,,,,
297088,2022-11-25_10h22.39.382,vts_reward_expectancy_bt,2022.2.4,MacIntel,62.5,Safari,1470,956,,,l,3.413,10,108,0,2,2,26,11,1,0,0,0,1,0,0,1,0,star,hexagon,,,,,,,,,,,,,,,,,,,,,,,,,,,,,,,,,,,,,,,,,,,,,,,,,,,,,,
297088,2022-11-25_10h22.39.382,vts_reward_expectancy_bt,2022.2.4,MacIntel,62.5,Safari,1470,956,,,a,1.4,10,118,0,2,3,27,2,1,1,0,0,0,0,0,0,1,triangle,star,,,,,,,,,,,,,,,,,,,,,,,,,,,,,,,,,,,,,,,,,,,,,,,,,,,,,,
297088,2022-11-25_10h22.39.382,vts_reward_expectancy_bt,2022.2.4,MacIntel,62.5,Safari,1470,956,,,a,2.53,1,119,0,2,4,28,3,1,0,1,0,0,1,0,0,0,circle,triangle,,,,,,,,,,,,,,,,,,,,,,,,,,,,,,,,,,,,,,,,,,,,,,,,,,,,,,
297088,2022-11-25_10h22.39.382,vts_reward_expectancy_bt,2022.2.4,MacIntel,62.5,Safari,1470,956,,,a,2.034,10,129,0,2,5,29,1,1,1,0,0,0,0,0,1,0,triangle,hexagon,,,,,,,,,,,,,,,,,,,,,,,,,,,,,,,,,,,,,,,,,,,,,,,,,,,,,,
297088,2022-11-25_10h22.39.382,vts_reward_expectancy_bt,2022.2.4,MacIntel,62.5,Safari,1470,956,,,l,2.922,10,139,0,2,6,30,5,1,0,1,0,0,0,0,0,1,circle,star,,,,,,,,,,,,,,,,,,,,,,,,,,,,,,,,,,,,,,,,,,,,,,,,,,,,,,
297088,2022-11-25_10h22.39.382,vts_reward_expectancy_bt,2022.2.4,MacIntel,62.5,Safari,1470,956,,,l,2.683,10,149,0,2,7,31,7,1,0,0,1,0,0,1,0,0,hexagon,circle,,,,,,,,,,,,,,,,,,,,,,,,,,,,,,,,,,,,,,,,,,,,,,,,,,,,,,
297088,2022-11-25_10h22.39.382,vts_reward_expectancy_bt,2022.2.4,MacIntel,62.5,Safari,1470,956,,,l,2.332,1,150,0,2,8,32,6,1,0,0,1,0,1,0,0,0,hexagon,triangle,,,,,,,,,,,,,,,,,,,,,,,,,,,,,,,,,,,,,,,,,,,,,,,,,,,,,,
297088,2022-11-25_10h22.39.382,vts_reward_expectancy_bt,2022.2.4,MacIntel,62.5,Safari,1470,956,,,l,1.916,10,160,0,2,9,33,9,1,0,0,0,1,1,0,0,0,star,triangle,,,,,,,,,,,,,,,,,,,,,,,,,,,,,,,,,,,,,,,,,,,,,,,,,,,,,,
297088,2022-11-25_10h22.39.382,vts_reward_expectancy_bt,2022.2.4,MacIntel,62.5,Safari,1470,956,,,a,1.688,1,161,0,2,10,34,8,1,0,0,1,0,0,0,0,1,hexagon,star,,,,,,,,,,,,,,,,,,,,,,,,,,,,,,,,,,,,,,,,,,,,,,,,,,,,,,
297088,2022-11-25_10h22.39.382,vts_reward_expectancy_bt,2022.2.4,MacIntel,62.5,Safari,1470,956,,,a,2.273,1,162,0,2,11,35,4,1,0,1,0,0,0,0,1,0,circle,hexagon,,,,,,,,,,,,,,,,,,,,,,,,,,,,,,,,,,,,,,,,,,,,,,,,,,,,,,
297088,2022-11-25_10h22.39.382,vts_reward_expectancy_bt,2022.2.4,MacIntel,62.5,Safari,1470,956,,,a,0.845,10,172,1,0,0,0,7,1,0,0,1,0,0,1,0,0,hexagon,circle,,,,,,,,,,,,,,,,,,,,,,,,,,,,,,,,,,,,,,,,,,,,,,,,,,,,,,
297088,2022-11-25_10h22.39.382,vts_reward_expectancy_bt,2022.2.4,MacIntel,62.5,Safari,1470,956,,,a,1.149,1,173,1,0,1,1,1,1,1,0,0,0,0,0,1,0,triangle,hexagon,,,,,,,,,,,,,,,,,,,,,,,,,,,,,,,,,,,,,,,,,,,,,,,,,,,,,,
297088,2022-11-25_10h22.39.382,vts_reward_expectancy_bt,2022.2.4,MacIntel,62.5,Safari,1470,956,,,a,1.011,10,183,1,0,2,2,0,1,1,0,0,0,0,1,0,0,triangle,circle,,,,,,,,,,,,,,,,,,,,,,,,,,,,,,,,,,,,,,,,,,,,,,,,,,,,,,
297088,2022-11-25_10h22.39.382,vts_reward_expectancy_bt,2022.2.4,MacIntel,62.5,Safari,1470,956,,,a,1.09,1,184,1,0,3,3,2,1,1,0,0,0,0,0,0,1,triangle,star,,,,,,,,,,,,,,,,,,,,,,,,,,,,,,,,,,,,,,,,,,,,,,,,,,,,,,
297088,2022-11-25_10h22.39.382,vts_reward_expectancy_bt,2022.2.4,MacIntel,62.5,Safari,1470,956,,,a,1.985,10,194,1,0,4,4,11,1,0,0,0,1,0,0,1,0,star,hexagon,,,,,,,,,,,,,,,,,,,,,,,,,,,,,,,,,,,,,,,,,,,,,,,,,,,,,,
297088,2022-11-25_10h22.39.382,vts_reward_expectancy_bt,2022.2.4,MacIntel,62.5,Safari,1470,956,,,a,2.317,1,195,1,0,5,5,4,1,0,1,0,0,0,0,1,0,circle,hexagon,,,,,,,,,,,,,,,,,,,,,,,,,,,,,,,,,,,,,,,,,,,,,,,,,,,,,,
297088,2022-11-25_10h22.39.382,vts_reward_expectancy_bt,2022.2.4,MacIntel,62.5,Safari,1470,956,,,l,1.018,1,196,1,0,6,6,6,1,0,0,1,0,1,0,0,0,hexagon,triangle,,,,,,,,,,,,,,,,,,,,,,,,,,,,,,,,,,,,,,,,,,,,,,,,,,,,,,
297088,2022-11-25_10h22.39.382,vts_reward_expectancy_bt,2022.2.4,MacIntel,62.5,Safari,1470,956,,,l,1.498,1,197,1,0,7,7,8,1,0,0,1,0,0,0,0,1,hexagon,star,,,,,,,,,,,,,,,,,,,,,,,,,,,,,,,,,,,,,,,,,,,,,,,,,,,,,,
297088,2022-11-25_10h22.39.382,vts_reward_expectancy_bt,2022.2.4,MacIntel,62.5,Safari,1470,956,,,l,1.4,10,207,1,0,8,8,10,1,0,0,0,1,0,1,0,0,star ,circle,,,,,,,,,,,,,,,,,,,,,,,,,,,,,,,,,,,,,,,,,,,,,,,,,,,,,,
297088,2022-11-25_10h22.39.382,vts_reward_expectancy_bt,2022.2.4,MacIntel,62.5,Safari,1470,956,,,a,1.579,10,217,1,0,9,9,3,1,0,1,0,0,1,0,0,0,circle,triangle,,,,,,,,,,,,,,,,,,,,,,,,,,,,,,,,,,,,,,,,,,,,,,,,,,,,,,
297088,2022-11-25_10h22.39.382,vts_reward_expectancy_bt,2022.2.4,MacIntel,62.5,Safari,1470,956,,,l,0.882,10,227,1,0,10,10,9,1,0,0,0,1,1,0,0,0,star,triangle,,,,,,,,,,,,,,,,,,,,,,,,,,,,,,,,,,,,,,,,,,,,,,,,,,,,,,
297088,2022-11-25_10h22.39.382,vts_reward_expectancy_bt,2022.2.4,MacIntel,62.5,Safari,1470,956,,,a,1.499,10,237,1,0,11,11,5,1,0,1,0,0,0,0,0,1,circle,star,,,,,,,,,,,,,,,,,,,,,,,,,,,,,,,,,,,,,,,,,,,,,,,,,,,,,,
297088,2022-11-25_10h22.39.382,vts_reward_expectancy_bt,2022.2.4,MacIntel,62.5,Safari,1470,956,,,a,1.281,1,238,1,1,0,12,6,1,0,0,1,0,1,0,0,0,hexagon,triangle,,,,,,,,,,,,,,,,,,,,,,,,,,,,,,,,,,,,,,,,,,,,,,,,,,,,,,
297088,2022-11-25_10h22.39.382,vts_reward_expectancy_bt,2022.2.4,MacIntel,62.5,Safari,1470,956,,,l,2.623,1,239,1,1,1,13,8,1,0,0,1,0,0,0,0,1,hexagon,star,,,,,,,,,,,,,,,,,,,,,,,,,,,,,,,,,,,,,,,,,,,,,,,,,,,,,,
297088,2022-11-25_10h22.39.382,vts_reward_expectancy_bt,2022.2.4,MacIntel,62.5,Safari,1470,956,,,l,2.233,1,240,1,1,2,14,11,1,0,0,0,1,0,0,1,0,star,hexagon,,,,,,,,,,,,,,,,,,,,,,,,,,,,,,,,,,,,,,,,,,,,,,,,,,,,,,
297088,2022-11-25_10h22.39.382,vts_reward_expectancy_bt,2022.2.4,MacIntel,62.5,Safari,1470,956,,,a,1.254,10,250,1,1,3,15,5,1,0,1,0,0,0,0,0,1,circle,star,,,,,,,,,,,,,,,,,,,,,,,,,,,,,,,,,,,,,,,,,,,,,,,,,,,,,,
297088,2022-11-25_10h22.39.382,vts_reward_expectancy_bt,2022.2.4,MacIntel,62.5,Safari,1470,956,,,l,1.028,10,260,1,1,4,16,10,1,0,0,0,1,0,1,0,0,star ,circle,,,,,,,,,,,,,,,,,,,,,,,,,,,,,,,,,,,,,,,,,,,,,,,,,,,,,,
297088,2022-11-25_10h22.39.382,vts_reward_expectancy_bt,2022.2.4,MacIntel,62.5,Safari,1470,956,,,a,1.15,10,270,1,1,5,17,0,1,1,0,0,0,0,1,0,0,triangle,circle,,,,,,,,,,,,,,,,,,,,,,,,,,,,,,,,,,,,,,,,,,,,,,,,,,,,,,
297088,2022-11-25_10h22.39.382,vts_reward_expectancy_bt,2022.2.4,MacIntel,62.5,Safari,1470,956,,,a,1.4,10,280,1,1,6,18,2,1,1,0,0,0,0,0,0,1,triangle,star,,,,,,,,,,,,,,,,,,,,,,,,,,,,,,,,,,,,,,,,,,,,,,,,,,,,,,
297088,2022-11-25_10h22.39.382,vts_reward_expectancy_bt,2022.2.4,MacIntel,62.5,Safari,1470,956,,,l,1.79,1,281,1,1,7,19,1,1,1,0,0,0,0,0,1,0,triangle,hexagon,,,,,,,,,,,,,,,,,,,,,,,,,,,,,,,,,,,,,,,,,,,,,,,,,,,,,,
297088,2022-11-25_10h22.39.382,vts_reward_expectancy_bt,2022.2.4,MacIntel,62.5,Safari,1470,956,,,l,1.586,1,282,1,1,8,20,4,1,0,1,0,0,0,0,1,0,circle,hexagon,,,,,,,,,,,,,,,,,,,,,,,,,,,,,,,,,,,,,,,,,,,,,,,,,,,,,,
297088,2022-11-25_10h22.39.382,vts_reward_expectancy_bt,2022.2.4,MacIntel,62.5,Safari,1470,956,,,l,2.934,10,292,1,1,9,21,7,1,0,0,1,0,0,1,0,0,hexagon,circle,,,,,,,,,,,,,,,,,,,,,,,,,,,,,,,,,,,,,,,,,,,,,,,,,,,,,,
297088,2022-11-25_10h22.39.382,vts_reward_expectancy_bt,2022.2.4,MacIntel,62.5,Safari,1470,956,,,l,2.567,10,302,1,1,10,22,9,1,0,0,0,1,1,0,0,0,star,triangle,,,,,,,,,,,,,,,,,,,,,,,,,,,,,,,,,,,,,,,,,,,,,,,,,,,,,,
297088,2022-11-25_10h22.39.382,vts_reward_expectancy_bt,2022.2.4,MacIntel,62.5,Safari,1470,956,,,a,3.149,10,312,1,1,11,23,3,1,0,1,0,0,1,0,0,0,circle,triangle,,,,,,,,,,,,,,,,,,,,,,,,,,,,,,,,,,,,,,,,,,,,,,,,,,,,,,
297088,2022-11-25_10h22.39.382,vts_reward_expectancy_bt,2022.2.4,MacIntel,62.5,Safari,1470,956,,,a,1.418,1,313,1,2,0,24,6,1,0,0,1,0,1,0,0,0,hexagon,triangle,,,,,,,,,,,,,,,,,,,,,,,,,,,,,,,,,,,,,,,,,,,,,,,,,,,,,,
297088,2022-11-25_10h22.39.382,vts_reward_expectancy_bt,2022.2.4,MacIntel,62.5,Safari,1470,956,,,l,1.68,10,323,1,2,1,25,9,1,0,0,0,1,1,0,0,0,star,triangle,,,,,,,,,,,,,,,,,,,,,,,,,,,,,,,,,,,,,,,,,,,,,,,,,,,,,,
297088,2022-11-25_10h22.39.382,vts_reward_expectancy_bt,2022.2.4,MacIntel,62.5,Safari,1470,956,,,a,2.475,1,324,1,2,2,26,8,1,0,0,1,0,0,0,0,1,hexagon,star,,,,,,,,,,,,,,,,,,,,,,,,,,,,,,,,,,,,,,,,,,,,,,,,,,,,,,
297088,2022-11-25_10h22.39.382,vts_reward_expectancy_bt,2022.2.4,MacIntel,62.5,Safari,1470,956,,,a,1.351,10,334,1,2,3,27,4,1,0,1,0,0,0,0,1,0,circle,hexagon,,,,,,,,,,,,,,,,,,,,,,,,,,,,,,,,,,,,,,,,,,,,,,,,,,,,,,
297088,2022-11-25_10h22.39.382,vts_reward_expectancy_bt,2022.2.4,MacIntel,62.5,Safari,1470,956,,,l,1.115,10,344,1,2,4,28,0,1,1,0,0,0,0,1,0,0,triangle,circle,,,,,,,,,,,,,,,,,,,,,,,,,,,,,,,,,,,,,,,,,,,,,,,,,,,,,,
297088,2022-11-25_10h22.39.382,vts_reward_expectancy_bt,2022.2.4,MacIntel,62.5,Safari,1470,956,,,l,1.707,1,345,1,2,5,29,2,1,1,0,0,0,0,0,0,1,triangle,star,,,,,,,,,,,,,,,,,,,,,,,,,,,,,,,,,,,,,,,,,,,,,,,,,,,,,,
297088,2022-11-25_10h22.39.382,vts_reward_expectancy_bt,2022.2.4,MacIntel,62.5,Safari,1470,956,,,a,1.249,1,346,1,2,6,30,3,1,0,1,0,0,1,0,0,0,circle,triangle,,,,,,,,,,,,,,,,,,,,,,,,,,,,,,,,,,,,,,,,,,,,,,,,,,,,,,
297088,2022-11-25_10h22.39.382,vts_reward_expectancy_bt,2022.2.4,MacIntel,62.5,Safari,1470,956,,,a,2.15,1,347,1,2,7,31,7,1,0,0,1,0,0,1,0,0,hexagon,circle,,,,,,,,,,,,,,,,,,,,,,,,,,,,,,,,,,,,,,,,,,,,,,,,,,,,,,
297088,2022-11-25_10h22.39.382,vts_reward_expectancy_bt,2022.2.4,MacIntel,62.5,Safari,1470,956,,,l,1.333,10,357,1,2,8,32,11,1,0,0,0,1,0,0,1,0,star,hexagon,,,,,,,,,,,,,,,,,,,,,,,,,,,,,,,,,,,,,,,,,,,,,,,,,,,,,,
297088,2022-11-25_10h22.39.382,vts_reward_expectancy_bt,2022.2.4,MacIntel,62.5,Safari,1470,956,,,l,1.967,10,367,1,2,9,33,5,1,0,1,0,0,0,0,0,1,circle,star,,,,,,,,,,,,,,,,,,,,,,,,,,,,,,,,,,,,,,,,,,,,,,,,,,,,,,
297088,2022-11-25_10h22.39.382,vts_reward_expectancy_bt,2022.2.4,MacIntel,62.5,Safari,1470,956,,,a,1.733,1,368,1,2,10,34,1,1,1,0,0,0,0,0,1,0,triangle,hexagon,,,,,,,,,,,,,,,,,,,,,,,,,,,,,,,,,,,,,,,,,,,,,,,,,,,,,,
297088,2022-11-25_10h22.39.382,vts_reward_expectancy_bt,2022.2.4,MacIntel,62.5,Safari,1470,956,,,l,2.283,1,369,1,2,11,35,10,1,0,0,0,1,0,1,0,0,star ,circle,,,,,,,,,,,,,,,,,,,,,,,,,,,,,,,,,,,,,,,,,,,,,,,,,,,,,,
297088,2022-11-25_10h22.39.382,vts_reward_expectancy_bt,2022.2.4,MacIntel,62.5,Safari,1470,956,,,a,1.186,10,379,2,0,0,0,0,1,1,0,0,0,0,1,0,0,triangle,circle,,,,,,,,,,,,,,,,,,,,,,,,,,,,,,,,,,,,,,,,,,,,,,,,,,,,,,
297088,2022-11-25_10h22.39.382,vts_reward_expectancy_bt,2022.2.4,MacIntel,62.5,Safari,1470,956,,,l,0.785,1,380,2,0,1,1,11,1,0,0,0,1,0,0,1,0,star,hexagon,,,,,,,,,,,,,,,,,,,,,,,,,,,,,,,,,,,,,,,,,,,,,,,,,,,,,,
297088,2022-11-25_10h22.39.382,vts_reward_expectancy_bt,2022.2.4,MacIntel,62.5,Safari,1470,956,,,a,0.983,10,390,2,0,2,2,2,1,1,0,0,0,0,0,0,1,triangle,star,,,,,,,,,,,,,,,,,,,,,,,,,,,,,,,,,,,,,,,,,,,,,,,,,,,,,,
297088,2022-11-25_10h22.39.382,vts_reward_expectancy_bt,2022.2.4,MacIntel,62.5,Safari,1470,956,,,a,1.237,10,400,2,0,3,3,1,1,1,0,0,0,0,0,1,0,triangle,hexagon,,,,,,,,,,,,,,,,,,,,,,,,,,,,,,,,,,,,,,,,,,,,,,,,,,,,,,
297088,2022-11-25_10h22.39.382,vts_reward_expectancy_bt,2022.2.4,MacIntel,62.5,Safari,1470,956,,,l,0.935,1,401,2,0,4,4,10,1,0,0,0,1,0,1,0,0,star ,circle,,,,,,,,,,,,,,,,,,,,,,,,,,,,,,,,,,,,,,,,,,,,,,,,,,,,,,
297088,2022-11-25_10h22.39.382,vts_reward_expectancy_bt,2022.2.4,MacIntel,62.5,Safari,1470,956,,,a,0.967,1,402,2,0,5,5,3,1,0,1,0,0,1,0,0,0,circle,triangle,,,,,,,,,,,,,,,,,,,,,,,,,,,,,,,,,,,,,,,,,,,,,,,,,,,,,,
297088,2022-11-25_10h22.39.382,vts_reward_expectancy_bt,2022.2.4,MacIntel,62.5,Safari,1470,956,,,l,1.288,1,403,2,0,6,6,9,1,0,0,0,1,1,0,0,0,star,triangle,,,,,,,,,,,,,,,,,,,,,,,,,,,,,,,,,,,,,,,,,,,,,,,,,,,,,,
297088,2022-11-25_10h22.39.382,vts_reward_expectancy_bt,2022.2.4,MacIntel,62.5,Safari,1470,956,,,l,2.155,10,413,2,0,7,7,5,1,0,1,0,0,0,0,0,1,circle,star,,,,,,,,,,,,,,,,,,,,,,,,,,,,,,,,,,,,,,,,,,,,,,,,,,,,,,
297088,2022-11-25_10h22.39.382,vts_reward_expectancy_bt,2022.2.4,MacIntel,62.5,Safari,1470,956,,,a,1.967,1,414,2,0,8,8,6,1,0,0,1,0,1,0,0,0,hexagon,triangle,,,,,,,,,,,,,,,,,,,,,,,,,,,,,,,,,,,,,,,,,,,,,,,,,,,,,,
297088,2022-11-25_10h22.39.382,vts_reward_expectancy_bt,2022.2.4,MacIntel,62.5,Safari,1470,956,,,l,1.458,10,424,2,0,9,9,8,1,0,0,1,0,0,0,0,1,hexagon,star,,,,,,,,,,,,,,,,,,,,,,,,,,,,,,,,,,,,,,,,,,,,,,,,,,,,,,
297088,2022-11-25_10h22.39.382,vts_reward_expectancy_bt,2022.2.4,MacIntel,62.5,Safari,1470,956,,,l,1.604,1,425,2,0,10,10,7,1,0,0,1,0,0,1,0,0,hexagon,circle,,,,,,,,,,,,,,,,,,,,,,,,,,,,,,,,,,,,,,,,,,,,,,,,,,,,,,
297088,2022-11-25_10h22.39.382,vts_reward_expectancy_bt,2022.2.4,MacIntel,62.5,Safari,1470,956,,,l,1.482,1,426,2,0,11,11,4,1,0,1,0,0,0,0,1,0,circle,hexagon,,,,,,,,,,,,,,,,,,,,,,,,,,,,,,,,,,,,,,,,,,,,,,,,,,,,,,
297088,2022-11-25_10h22.39.382,vts_reward_expectancy_bt,2022.2.4,MacIntel,62.5,Safari,1470,956,,,a,1.973,10,436,2,1,0,12,1,1,1,0,0,0,0,0,1,0,triangle,hexagon,,,,,,,,,,,,,,,,,,,,,,,,,,,,,,,,,,,,,,,,,,,,,,,,,,,,,,
297088,2022-11-25_10h22.39.382,vts_reward_expectancy_bt,2022.2.4,MacIntel,62.5,Safari,1470,956,,,a,1.636,1,437,2,1,1,13,7,1,0,0,1,0,0,1,0,0,hexagon,circle,,,,,,,,,,,,,,,,,,,,,,,,,,,,,,,,,,,,,,,,,,,,,,,,,,,,,,
297088,2022-11-25_10h22.39.382,vts_reward_expectancy_bt,2022.2.4,MacIntel,62.5,Safari,1470,956,,,a,1.438,10,447,2,1,2,14,6,1,0,0,1,0,1,0,0,0,hexagon,triangle,,,,,,,,,,,,,,,,,,,,,,,,,,,,,,,,,,,,,,,,,,,,,,,,,,,,,,
297088,2022-11-25_10h22.39.382,vts_reward_expectancy_bt,2022.2.4,MacIntel,62.5,Safari,1470,956,,,l,1.883,10,457,2,1,3,15,9,1,0,0,0,1,1,0,0,0,star,triangle,,,,,,,,,,,,,,,,,,,,,,,,,,,,,,,,,,,,,,,,,,,,,,,,,,,,,,
297088,2022-11-25_10h22.39.382,vts_reward_expectancy_bt,2022.2.4,MacIntel,62.5,Safari,1470,956,,,a,1.089,1,458,2,1,4,16,3,1,0,1,0,0,1,0,0,0,circle,triangle,,,,,,,,,,,,,,,,,,,,,,,,,,,,,,,,,,,,,,,,,,,,,,,,,,,,,,
297088,2022-11-25_10h22.39.382,vts_reward_expectancy_bt,2022.2.4,MacIntel,62.5,Safari,1470,956,,,a,1.05,1,459,2,1,5,17,0,1,1,0,0,0,0,1,0,0,triangle,circle,,,,,,,,,,,,,,,,,,,,,,,,,,,,,,,,,,,,,,,,,,,,,,,,,,,,,,
297088,2022-11-25_10h22.39.382,vts_reward_expectancy_bt,2022.2.4,MacIntel,62.5,Safari,1470,956,,,a,1.826,1,460,2,1,6,18,10,1,0,0,0,1,0,1,0,0,star ,circle,,,,,,,,,,,,,,,,,,,,,,,,,,,,,,,,,,,,,,,,,,,,,,,,,,,,,,
297088,2022-11-25_10h22.39.382,vts_reward_expectancy_bt,2022.2.4,MacIntel,62.5,Safari,1470,956,,,l,1.38,1,461,2,1,7,19,8,1,0,0,1,0,0,0,0,1,hexagon,star,,,,,,,,,,,,,,,,,,,,,,,,,,,,,,,,,,,,,,,,,,,,,,,,,,,,,,
297088,2022-11-25_10h22.39.382,vts_reward_expectancy_bt,2022.2.4,MacIntel,62.5,Safari,1470,956,,,a,1.53,10,471,2,1,8,20,5,1,0,1,0,0,0,0,0,1,circle,star,,,,,,,,,,,,,,,,,,,,,,,,,,,,,,,,,,,,,,,,,,,,,,,,,,,,,,
297088,2022-11-25_10h22.39.382,vts_reward_expectancy_bt,2022.2.4,MacIntel,62.5,Safari,1470,956,,,a,1.383,10,481,2,1,9,21,2,1,1,0,0,0,0,0,0,1,triangle,star,,,,,,,,,,,,,,,,,,,,,,,,,,,,,,,,,,,,,,,,,,,,,,,,,,,,,,
297088,2022-11-25_10h22.39.382,vts_reward_expectancy_bt,2022.2.4,MacIntel,62.5,Safari,1470,956,,,a,1.957,1,482,2,1,10,22,11,1,0,0,0,1,0,0,1,0,star,hexagon,,,,,,,,,,,,,,,,,,,,,,,,,,,,,,,,,,,,,,,,,,,,,,,,,,,,,,
297088,2022-11-25_10h22.39.382,vts_reward_expectancy_bt,2022.2.4,MacIntel,62.5,Safari,1470,956,,,a,4.403,1,483,2,1,11,23,4,1,0,1,0,0,0,0,1,0,circle,hexagon,,,,,,,,,,,,,,,,,,,,,,,,,,,,,,,,,,,,,,,,,,,,,,,,,,,,,,
297088,2022-11-25_10h22.39.382,vts_reward_expectancy_bt,2022.2.4,MacIntel,62.5,Safari,1470,956,,,l,0.706,10,493,2,2,0,24,2,1,1,0,0,0,0,0,0,1,triangle,star,,,,,,,,,,,,,,,,,,,,,,,,,,,,,,,,,,,,,,,,,,,,,,,,,,,,,,
297088,2022-11-25_10h22.39.382,vts_reward_expectancy_bt,2022.2.4,MacIntel,62.5,Safari,1470,956,,,l,1.405,1,494,2,2,1,25,3,1,0,1,0,0,1,0,0,0,circle,triangle,,,,,,,,,,,,,,,,,,,,,,,,,,,,,,,,,,,,,,,,,,,,,,,,,,,,,,
297088,2022-11-25_10h22.39.382,vts_reward_expectancy_bt,2022.2.4,MacIntel,62.5,Safari,1470,956,,,l,2.622,1,495,2,2,2,26,6,1,0,0,1,0,1,0,0,0,hexagon,triangle,,,,,,,,,,,,,,,,,,,,,,,,,,,,,,,,,,,,,,,,,,,,,,,,,,,,,,
297088,2022-11-25_10h22.39.382,vts_reward_expectancy_bt,2022.2.4,MacIntel,62.5,Safari,1470,956,,,a,1.295,1,496,2,2,3,27,8,1,0,0,1,0,0,0,0,1,hexagon,star,,,,,,,,,,,,,,,,,,,,,,,,,,,,,,,,,,,,,,,,,,,,,,,,,,,,,,
297088,2022-11-25_10h22.39.382,vts_reward_expectancy_bt,2022.2.4,MacIntel,62.5,Safari,1470,956,,,a,3.479,10,506,2,2,4,28,0,1,1,0,0,0,0,1,0,0,triangle,circle,,,,,,,,,,,,,,,,,,,,,,,,,,,,,,,,,,,,,,,,,,,,,,,,,,,,,,
297088,2022-11-25_10h22.39.382,vts_reward_expectancy_bt,2022.2.4,MacIntel,62.5,Safari,1470,956,,,l,1.324,1,507,2,2,5,29,1,1,1,0,0,0,0,0,1,0,triangle,hexagon,,,,,,,,,,,,,,,,,,,,,,,,,,,,,,,,,,,,,,,,,,,,,,,,,,,,,,
297088,2022-11-25_10h22.39.382,vts_reward_expectancy_bt,2022.2.4,MacIntel,62.5,Safari,1470,956,,,a,1.426,1,508,2,2,6,30,10,1,0,0,0,1,0,1,0,0,star ,circle,,,,,,,,,,,,,,,,,,,,,,,,,,,,,,,,,,,,,,,,,,,,,,,,,,,,,,
297088,2022-11-25_10h22.39.382,vts_reward_expectancy_bt,2022.2.4,MacIntel,62.5,Safari,1470,956,,,a,1.149,10,518,2,2,7,31,5,1,0,1,0,0,0,0,0,1,circle,star,,,,,,,,,,,,,,,,,,,,,,,,,,,,,,,,,,,,,,,,,,,,,,,,,,,,,,
297088,2022-11-25_10h22.39.382,vts_reward_expectancy_bt,2022.2.4,MacIntel,62.5,Safari,1470,956,,,a,1.468,1,519,2,2,8,32,7,1,0,0,1,0,0,1,0,0,hexagon,circle,,,,,,,,,,,,,,,,,,,,,,,,,,,,,,,,,,,,,,,,,,,,,,,,,,,,,,
297088,2022-11-25_10h22.39.382,vts_reward_expectancy_bt,2022.2.4,MacIntel,62.5,Safari,1470,956,,,l,1.888,10,529,2,2,9,33,9,1,0,0,0,1,1,0,0,0,star,triangle,,,,,,,,,,,,,,,,,,,,,,,,,,,,,,,,,,,,,,,,,,,,,,,,,,,,,,
297088,2022-11-25_10h22.39.382,vts_reward_expectancy_bt,2022.2.4,MacIntel,62.5,Safari,1470,956,,,a,2.268,1,530,2,2,10,34,11,1,0,0,0,1,0,0,1,0,star,hexagon,,,,,,,,,,,,,,,,,,,,,,,,,,,,,,,,,,,,,,,,,,,,,,,,,,,,,,
297088,2022-11-25_10h22.39.382,vts_reward_expectancy_bt,2022.2.4,MacIntel,62.5,Safari,1470,956,,,a,2.142,10,540,2,2,11,35,4,1,0,1,0,0,0,0,1,0,circle,hexagon,,,,,,,,,,,,,,,,,,,,,,,,,,,,,,,,,,,,,,,,,,,,,,,,,,,,,,
297088,2022-11-25_10h22.39.382,vts_reward_expectancy_bt,2022.2.4,MacIntel,62.5,Safari,1470,956,,,,,,,,,,,,,,,,,,,,,,,181,F,star,1,0,f,1.901,0,0,0,0,0,1,,,,,,,,,,,,,,,,,,,,,,,,,,,,,,,,,,,,,,,,,
297088,2022-11-25_10h22.39.382,vts_reward_expectancy_bt,2022.2.4,MacIntel,62.5,Safari,1470,956,,,,,,,,,,,,,,,,,,,,,,,132,W,circle,1,0,d,0.801,0,1,0,1,0,1,,,,,,,,,,,,,,,,,,,,,,,,,,,,,,,,,,,,,,,,,
297088,2022-11-25_10h22.39.382,vts_reward_expectancy_bt,2022.2.4,MacIntel,62.5,Safari,1470,956,,,,,,,,,,,,,,,,,,,,,,,167,Y,triangle,1,0,f,1.153,0,2,0,2,0,1,,,,,,,,,,,,,,,,,,,,,,,,,,,,,,,,,,,,,,,,,
297088,2022-11-25_10h22.39.382,vts_reward_expectancy_bt,2022.2.4,MacIntel,62.5,Safari,1470,956,,,,,,,,,,,,,,,,,,,,,,,139,U,hexagon,1,0,d,0.98,0,3,0,3,0,1,,,,,,,,,,,,,,,,,,,,,,,,,,,,,,,,,,,,,,,,,
297088,2022-11-25_10h22.39.382,vts_reward_expectancy_bt,2022.2.4,MacIntel,62.5,Safari,1470,956,,,,,,,,,,,,,,,,,,,,,,,125,H,star,1,0,d,0.732,0,4,0,4,0,1,,,,,,,,,,,,,,,,,,,,,,,,,,,,,,,,,,,,,,,,,
297088,2022-11-25_10h22.39.382,vts_reward_expectancy_bt,2022.2.4,MacIntel,62.5,Safari,1470,956,,,,,,,,,,,,,,,,,,,,,,,160,B,circle,1,0,f,0.713,0,5,0,5,0,1,,,,,,,,,,,,,,,,,,,,,,,,,,,,,,,,,,,,,,,,,
297088,2022-11-25_10h22.39.382,vts_reward_expectancy_bt,2022.2.4,MacIntel,62.5,Safari,1470,956,,,,,,,,,,,,,,,,,,,,,,,174,S,triangle,1,0,f,0.618,0,6,0,6,0,1,,,,,,,,,,,,,,,,,,,,,,,,,,,,,,,,,,,,,,,,,
297088,2022-11-25_10h22.39.382,vts_reward_expectancy_bt,2022.2.4,MacIntel,62.5,Safari,1470,956,,,,,,,,,,,,,,,,,,,,,,,146,D,hexagon,1,0,d,0.914,0,7,0,7,0,1,,,,,,,,,,,,,,,,,,,,,,,,,,,,,,,,,,,,,,,,,
297088,2022-11-25_10h22.39.382,vts_reward_expectancy_bt,2022.2.4,MacIntel,62.5,Safari,1470,956,,,,,,,,,,,,,,,,,,,,,,,181,F,circle,1,0,f,0.709,0,8,0,8,0,1,,,,,,,,,,,,,,,,,,,,,,,,,,,,,,,,,,,,,,,,,
297088,2022-11-25_10h22.39.382,vts_reward_expectancy_bt,2022.2.4,MacIntel,62.5,Safari,1470,956,,,,,,,,,,,,,,,,,,,,,,,132,W,star,1,0,d,0.646,0,9,0,9,0,1,,,,,,,,,,,,,,,,,,,,,,,,,,,,,,,,,,,,,,,,,
297088,2022-11-25_10h22.39.382,vts_reward_expectancy_bt,2022.2.4,MacIntel,62.5,Safari,1470,956,,,,,,,,,,,,,,,,,,,,,,,146,Y,star,1,0,,,1,,,,,,k,1.246,0,0,0,0,1,,,,,,,,,,,,,,,,,,,,,,,,,,,,,,,,,,
297088,2022-11-25_10h22.39.382,vts_reward_expectancy_bt,2022.2.4,MacIntel,62.5,Safari,1470,956,,,,,,,,,,,,,,,,,,,,,,,132,B,circle,1,0,,,1,,,,,,j,0.526,1,0,1,0,1,,,,,,,,,,,,,,,,,,,,,,,,,,,,,,,,,,
297088,2022-11-25_10h22.39.382,vts_reward_expectancy_bt,2022.2.4,MacIntel,62.5,Safari,1470,956,,,,,,,,,,,,,,,,,,,,,,,125,S,hexagon,1,0,,,1,,,,,,k,0.715,2,0,2,0,1,,,,,,,,,,,,,,,,,,,,,,,,,,,,,,,,,,
297088,2022-11-25_10h22.39.382,vts_reward_expectancy_bt,2022.2.4,MacIntel,62.5,Safari,1470,956,,,,,,,,,,,,,,,,,,,,,,,174,F,triangle,1,0,,,1,,,,,,j,0.802,3,0,3,0,1,,,,,,,,,,,,,,,,,,,,,,,,,,,,,,,,,,
297088,2022-11-25_10h22.39.382,vts_reward_expectancy_bt,2022.2.4,MacIntel,62.5,Safari,1470,956,,,,,,,,,,,,,,,,,,,,,,,181,U,star,1,0,,,1,,,,,,k,0.675,4,0,4,0,1,,,,,,,,,,,,,,,,,,,,,,,,,,,,,,,,,,
297088,2022-11-25_10h22.39.382,vts_reward_expectancy_bt,2022.2.4,MacIntel,62.5,Safari,1470,956,,,,,,,,,,,,,,,,,,,,,,,160,W,circle,1,0,,,1,,,,,,k,0.695,5,0,5,0,1,,,,,,,,,,,,,,,,,,,,,,,,,,,,,,,,,,
297088,2022-11-25_10h22.39.382,vts_reward_expectancy_bt,2022.2.4,MacIntel,62.5,Safari,1470,956,,,,,,,,,,,,,,,,,,,,,,,167,H,hexagon,1,0,,,1,,,,,,j,0.786,6,0,6,0,1,,,,,,,,,,,,,,,,,,,,,,,,,,,,,,,,,,
297088,2022-11-25_10h22.39.382,vts_reward_expectancy_bt,2022.2.4,MacIntel,62.5,Safari,1470,956,,,,,,,,,,,,,,,,,,,,,,,139,D,triangle,1,0,,,1,,,,,,j,0.61,7,0,7,0,1,,,,,,,,,,,,,,,,,,,,,,,,,,,,,,,,,,
297088,2022-11-25_10h22.39.382,vts_reward_expectancy_bt,2022.2.4,MacIntel,62.5,Safari,1470,956,,,,,,,,,,,,,,,,,,,,,,,146,Y,triangle,1,0,,,1,,,,,,k,0.609,8,0,8,0,1,,,,,,,,,,,,,,,,,,,,,,,,,,,,,,,,,,
297088,2022-11-25_10h22.39.382,vts_reward_expectancy_bt,2022.2.4,MacIntel,62.5,Safari,1470,956,,,,,,,,,,,,,,,,,,,,,,,132,B,star,1,0,,,1,,,,,,j,0.499,9,0,9,0,1,,,,,,,,,,,,,,,,,,,,,,,,,,,,,,,,,,
297088,2022-11-25_10h22.39.382,vts_reward_expectancy_bt,2022.2.4,MacIntel,62.5,Safari,1470,956,,,,,0,540,,,,,,,,,,,,,,,,,146,H,hexagon,-1,0,,,2,,,,,,,,,,,,,-1,no_choice,NA,,vtsPrac,0,0,0,0,1,,,,,,,,,,,,,,,,,,,,,,,,
297088,2022-11-25_10h22.39.382,vts_reward_expectancy_bt,2022.2.4,MacIntel,62.5,Safari,1470,956,,,,,0,540,,,,,,,,,,,,,,,,,181,D,star,1,0,,,2,,,,,,,,,,,,,switch,number,numSwt,f,vtsPrac,1,0,1,0,1,0.98,,,,,,,,,,,,,,,,,,,,,,,
297088,2022-11-25_10h22.39.382,vts_reward_expectancy_bt,2022.2.4,MacIntel,62.5,Safari,1470,956,,,,,0,540,,,,,,,,,,,,,,,,,174,Y,hexagon,1,0,,,2,,,,,,,,,,,,,switch,letter,lettSwt,k,vtsPrac,2,0,2,0,1,1.067,,,,,,,,,,,,,,,,,,,,,,,
297088,2022-11-25_10h22.39.382,vts_reward_expectancy_bt,2022.2.4,MacIntel,62.5,Safari,1470,956,,,,,0,540,,,,,,,,,,,,,,,,,160,B,star,1,0,,,2,,,,,,,,,,,,,repeat,letter,lettRpt,j,vtsPrac,3,0,3,0,1,0.779,,,,,,,,,,,,,,,,,,,,,,,
297088,2022-11-25_10h22.39.382,vts_reward_expectancy_bt,2022.2.4,MacIntel,62.5,Safari,1470,956,,,,,0,540,,,,,,,,,,,,,,,,,146,H,hexagon,1,0,,,2,,,,,,,,,,,,,repeat,letter,lettRpt,j,vtsPrac,4,0,4,0,1,0.856,,,,,,,,,,,,,,,,,,,,,,,
297088,2022-11-25_10h22.39.382,vts_reward_expectancy_bt,2022.2.4,MacIntel,62.5,Safari,1470,956,,,,,0,540,,,,,,,,,,,,,,,,,181,D,circle,1,0,,,2,,,,,,,,,,,,,switch,number,numSwt,f,vtsPrac,5,0,5,0,1,0.789,,,,,,,,,,,,,,,,,,,,,,,
297088,2022-11-25_10h22.39.382,vts_reward_expectancy_bt,2022.2.4,MacIntel,62.5,Safari,1470,956,,,,,0,540,,,,,,,,,,,,,,,,,174,Y,star,1,0,,,2,,,,,,,,,,,,,repeat,number,numRpt,f,vtsPrac,6,0,6,0,1,0.828,,,,,,,,,,,,,,,,,,,,,,,
297088,2022-11-25_10h22.39.382,vts_reward_expectancy_bt,2022.2.4,MacIntel,62.5,Safari,1470,956,,,,,0,540,,,,,,,,,,,,,,,,,160,B,hexagon,1,0,,,2,,,,,,,,,,,,,switch,letter,lettSwt,j,vtsPrac,7,0,7,0,1,0.554,,,,,,,,,,,,,,,,,,,,,,,
297088,2022-11-25_10h22.39.382,vts_reward_expectancy_bt,2022.2.4,MacIntel,62.5,Safari,1470,956,,,,,0,540,,,,,,,,,,,,,,,,,132,S,circle,1,0,,,2,,,,,,,,,,,,,switch,number,numSwt,d,vtsPrac,8,0,8,0,1,0.44,,,,,,,,,,,,,,,,,,,,,,,
297088,2022-11-25_10h22.39.382,vts_reward_expectancy_bt,2022.2.4,MacIntel,62.5,Safari,1470,956,,,,,0,540,,,,,,,,,,,,,,,,,125,F,triangle,1,0,,,2,,,,,,,,,,,,,switch,letter,lettSwt,j,vtsPrac,9,0,9,0,1,0.778,,,,,,,,,,,,,,,,,,,,,,,
297088,2022-11-25_10h22.39.382,vts_reward_expectancy_bt,2022.2.4,MacIntel,62.5,Safari,1470,956,,,,,0,540,,,,,,,,,,,,,,,,,139,Y,star,1,0,,,2,,,,,,,,,,,,,repeat,letter,lettRpt,k,vtsPrac,10,0,10,0,1,0.851,,,,,,,,,,,,,,,,,,,,,,,
297088,2022-11-25_10h22.39.382,vts_reward_expectancy_bt,2022.2.4,MacIntel,62.5,Safari,1470,956,,,,,0,540,,,,,,,,,,,,,,,,,146,H,circle,1,0,,,2,,,,,,,,,,,,,switch,number,numSwt,d,vtsPrac,11,0,11,0,1,1.022,,,,,,,,,,,,,,,,,,,,,,,
297088,2022-11-25_10h22.39.382,vts_reward_expectancy_bt,2022.2.4,MacIntel,62.5,Safari,1470,956,,,,,0,540,,,,,,,,,,,,,,,,,160,H,hexagon,1,0,,,2,,,,,,,,,,,,,switch,letter,lettSwt,j,vtsPrac,12,0,12,0,1,0.815,,,,,,,,,,,,,,,,,,,,,,,
297088,2022-11-25_10h22.39.382,vts_reward_expectancy_bt,2022.2.4,MacIntel,62.5,Safari,1470,956,,,,,0,540,,,,,,,,,,,,,,,,,125,S,triangle,1,0,,,2,,,,,,,,,,,,,switch,number,numSwt,d,vtsPrac,13,0,13,0,1,0.712,,,,,,,,,,,,,,,,,,,,,,,
297088,2022-11-25_10h22.39.382,vts_reward_expectancy_bt,2022.2.4,MacIntel,62.5,Safari,1470,956,,,,,0,540,,,,,,,,,,,,,,,,,167,D,star,1,0,,,2,,,,,,,,,,,,,repeat,number,numRpt,f,vtsPrac,14,0,14,0,1,0.73,,,,,,,,,,,,,,,,,,,,,,,
297088,2022-11-25_10h22.39.382,vts_reward_expectancy_bt,2022.2.4,MacIntel,62.5,Safari,1470,956,,,,,0,540,,,,,,,,,,,,,,,,,139,Y,triangle,1,0,,,2,,,,,,,,,,,,,switch,letter,lettSwt,k,vtsPrac,15,0,15,0,1,0.52,,,,,,,,,,,,,,,,,,,,,,,
297088,2022-11-25_10h22.39.382,vts_reward_expectancy_bt,2022.2.4,MacIntel,62.5,Safari,1470,956,,,,,0,540,,,,,,,,,,,,,,,,,174,B,hexagon,1,0,,,2,,,,,,,,,,,,,switch,number,numSwt,f,vtsPrac,16,0,16,0,1,0.81,,,,,,,,,,,,,,,,,,,,,,,
297088,2022-11-25_10h22.39.382,vts_reward_expectancy_bt,2022.2.4,MacIntel,62.5,Safari,1470,956,,,,,0,540,,,,,,,,,,,,,,,,,146,U,star,1,0,,,2,,,,,,,,,,,,,repeat,number,numRpt,d,vtsPrac,17,0,17,0,1,0.903,,,,,,,,,,,,,,,,,,,,,,,
297088,2022-11-25_10h22.39.382,vts_reward_expectancy_bt,2022.2.4,MacIntel,62.5,Safari,1470,956,,,,,0,540,,,,,,,,,,,,,,,,,181,H,triangle,1,0,,,2,,,,,,,,,,,,,switch,letter,lettSwt,j,vtsPrac,18,0,18,0,1,0.927,,,,,,,,,,,,,,,,,,,,,,,
297088,2022-11-25_10h22.39.382,vts_reward_expectancy_bt,2022.2.4,MacIntel,62.5,Safari,1470,956,,,,,0,540,,,,,,,,,,,,,,,,,167,S,hexagon,1,0,,,2,,,,,,,,,,,,,switch,number,numSwt,f,vtsPrac,19,0,19,0,1,0.822,,,,,,,,,,,,,,,,,,,,,,,
297088,2022-11-25_10h22.39.382,vts_reward_expectancy_bt,2022.2.4,MacIntel,62.5,Safari,1470,956,,,,,0,540,,,,,,,,,,,,,,,,,139,F,circle,1,0,,,2,,,,,,,,,,,,,repeat,number,numRpt,d,vtsPrac,20,0,20,0,1,0.645,,,,,,,,,,,,,,,,,,,,,,,
297088,2022-11-25_10h22.39.382,vts_reward_expectancy_bt,2022.2.4,MacIntel,62.5,Safari,1470,956,,,,,0,540,,,,,,,,,,,,,,,,,181,Y,triangle,1,0,,,2,,,,,,,,,,,,,repeat,number,numRpt,f,vtsPrac,21,0,21,0,1,0.767,,,,,,,,,,,,,,,,,,,,,,,
297088,2022-11-25_10h22.39.382,vts_reward_expectancy_bt,2022.2.4,MacIntel,62.5,Safari,1470,956,,,,,0,540,,,,,,,,,,,,,,,,,125,B,triangle,1,0,,,2,,,,,,,,,,,,,switch,letter,lettSwt,j,vtsPrac,22,0,22,0,1,0.662,,,,,,,,,,,,,,,,,,,,,,,
297088,2022-11-25_10h22.39.382,vts_reward_expectancy_bt,2022.2.4,MacIntel,62.5,Safari,1470,956,,,,,0,540,,,,,,,,,,,,,,,,,167,U,hexagon,1,0,,,2,,,,,,,,,,,,,switch,number,numSwt,f,vtsPrac,23,0,23,0,1,0.779,,,,,,,,,,,,,,,,,,,,,,,
297088,2022-11-25_10h22.39.382,vts_reward_expectancy_bt,2022.2.4,MacIntel,62.5,Safari,1470,956,,,,,0,540,,,,,,,,,,,,,,,,,181,U,star,1,0,,,2,,,,,,,,,,,,,repeat,number,numRpt,f,vtsPrac,24,0,24,0,1,0.748,,,,,,,,,,,,,,,,,,,,,,,
297088,2022-11-25_10h22.39.382,vts_reward_expectancy_bt,2022.2.4,MacIntel,62.5,Safari,1470,956,,,,,0,540,,,,,,,,,,,,,,,,,125,W,circle,1,0,,,2,,,,,,,,,,,,,switch,letter,lettSwt,k,vtsPrac,25,0,25,0,1,0.699,,,,,,,,,,,,,,,,,,,,,,,
297088,2022-11-25_10h22.39.382,vts_reward_expectancy_bt,2022.2.4,MacIntel,62.5,Safari,1470,956,,,,,0,540,,,,,,,,,,,,,,,,,160,F,circle,1,0,,,2,,,,,,,,,,,,,switch,number,numSwt,f,vtsPrac,26,0,26,0,1,0.866,,,,,,,,,,,,,,,,,,,,,,,
297088,2022-11-25_10h22.39.382,vts_reward_expectancy_bt,2022.2.4,MacIntel,62.5,Safari,1470,956,,,,,0,540,,,,,,,,,,,,,,,,,146,D,hexagon,1,0,,,2,,,,,,,,,,,,,switch,letter,lettSwt,j,vtsPrac,27,0,27,0,1,0.828,,,,,,,,,,,,,,,,,,,,,,,
297088,2022-11-25_10h22.39.382,vts_reward_expectancy_bt,2022.2.4,MacIntel,62.5,Safari,1470,956,,,,,0,540,,,,,,,,,,,,,,,,,125,B,circle,1,0,,,2,,,,,,,,,,,,,repeat,letter,lettRpt,j,vtsPrac,28,0,28,0,1,0.771,,,,,,,,,,,,,,,,,,,,,,,
297088,2022-11-25_10h22.39.382,vts_reward_expectancy_bt,2022.2.4,MacIntel,62.5,Safari,1470,956,,,,,0,540,,,,,,,,,,,,,,,,,181,F,star,1,0,,,2,,,,,,,,,,,,,switch,number,numSwt,f,vtsPrac,29,0,29,0,1,0.713,,,,,,,,,,,,,,,,,,,,,,,
297088,2022-11-25_10h22.39.382,vts_reward_expectancy_bt,2022.2.4,MacIntel,62.5,Safari,1470,956,,,,,0,540,,,,,,,,,,,,,,,,,132,Y,star,1,0,,,2,,,,,,,,,,,,,switch,letter,lettSwt,k,vtsPrac,30,0,30,0,1,0.656,,,,,,,,,,,,,,,,,,,,,,,
297088,2022-11-25_10h22.39.382,vts_reward_expectancy_bt,2022.2.4,MacIntel,62.5,Safari,1470,956,,,,,0,540,,,,,,,,,,,,,,,,,139,H,triangle,1,0,,,2,,,,,,,,,,,,,repeat,letter,lettRpt,j,vtsPrac,31,0,31,0,1,0.815,,,,,,,,,,,,,,,,,,,,,,,
297088,2022-11-25_10h22.39.382,vts_reward_expectancy_bt,2022.2.4,MacIntel,62.5,Safari,1470,956,,,,,,,,,,,,,,,,,,,,,,,,,,,,,,,,,,,,,,,,,,,,,,,,,,,,,,,,,,,,,,,,,,,,,,,,,,,,
297088,2022-11-25_10h22.39.382,vts_reward_expectancy_bt,2022.2.4,MacIntel,62.5,Safari,1470,956,,,,,,,,,,,,,,,,,,,,,,,,,,,,,,,,,,,,,,,,,,,,,,,,,,,,,,,,,,,,,,,,,,,,,,,,,,,,
297088,2022-11-25_10h22.39.382,vts_reward_expectancy_bt,2022.2.4,MacIntel,62.5,Safari,1470,956,,,,,0,540,,,,,,,,,,,,,,,,,160,F,triangle,1,0,,,,,,,,,,,,,,,,switch,number,numSwt,f,noRew,,,,,,0.962,0,0,0,0,0,1,,,,,,,,,,,,,,,,,
297088,2022-11-25_10h22.39.382,vts_reward_expectancy_bt,2022.2.4,MacIntel,62.5,Safari,1470,956,,,,,0,540,,,,,,,,,,,,,,,,,181,U,circle,1,0,,,,,,,,,,,,,,,,repeat,number,numRpt,f,noRew,,,,,,0.726,0,1,0,1,0,1,,,,,,,,,,,,,,,,,
297088,2022-11-25_10h22.39.382,vts_reward_expectancy_bt,2022.2.4,MacIntel,62.5,Safari,1470,956,,,,,0,540,,,,,,,,,,,,,,,,,125,S,triangle,1,0,,,,,,,,,,,,,,,,repeat,number,numRpt,d,noRew,,,,,,0.688,0,2,0,2,0,1,,,,,,,,,,,,,,,,,
297088,2022-11-25_10h22.39.382,vts_reward_expectancy_bt,2022.2.4,MacIntel,62.5,Safari,1470,956,,,,,0,540,,,,,,,,,,,,,,,,,146,B,circle,1,0,,,,,,,,,,,,,,,,switch,letter,lettSwt,j,noRew,,,,,,0.583,0,3,0,3,0,1,,,,,,,,,,,,,,,,,
297088,2022-11-25_10h22.39.382,vts_reward_expectancy_bt,2022.2.4,MacIntel,62.5,Safari,1470,956,,,,,0,540,,,,,,,,,,,,,,,,,160,F,hexagon,0,0,,,,,,,,,,,,,,,,repeat,letter,NA,k,noRew,,,,,,0.723,0,4,0,4,0,1,,,,,,,,,,,,,,,,,
297088,2022-11-25_10h22.39.382,vts_reward_expectancy_bt,2022.2.4,MacIntel,62.5,Safari,1470,956,,,,,0,540,,,,,,,,,,,,,,,,,181,U,triangle,1,1,,,,,,,,,,,,,,,,switch,number,numSwt,f,noRew,,,,,,0.893,0,5,0,5,0,1,,,,,,,,,,,,,,,,,
297088,2022-11-25_10h22.39.382,vts_reward_expectancy_bt,2022.2.4,MacIntel,62.5,Safari,1470,956,,,,,0,540,,,,,,,,,,,,,,,,,125,S,circle,1,0,,,,,,,,,,,,,,,,switch,letter,lettSwt,k,noRew,,,,,,0.7,0,6,0,6,0,1,,,,,,,,,,,,,,,,,
297088,2022-11-25_10h22.39.382,vts_reward_expectancy_bt,2022.2.4,MacIntel,62.5,Safari,1470,956,,,,,0,540,,,,,,,,,,,,,,,,,146,B,hexagon,1,0,,,,,,,,,,,,,,,,repeat,letter,lettRpt,j,noRew,,,,,,0.661,0,7,0,7,0,1,,,,,,,,,,,,,,,,,
297088,2022-11-25_10h22.39.382,vts_reward_expectancy_bt,2022.2.4,MacIntel,62.5,Safari,1470,956,,,,,0,540,,,,,,,,,,,,,,,,,139,F,triangle,1,0,,,,,,,,,,,,,,,,repeat,letter,lettRpt,j,noRew,,,,,,0.646,0,8,0,8,0,1,,,,,,,,,,,,,,,,,
297088,2022-11-25_10h22.39.382,vts_reward_expectancy_bt,2022.2.4,MacIntel,62.5,Safari,1470,956,,,,,0,540,,,,,,,,,,,,,,,,,132,Y,hexagon,1,0,,,,,,,,,,,,,,,,switch,number,numSwt,d,noRew,,,,,,1.278,0,9,0,9,0,1,,,,,,,,,,,,,,,,,
297088,2022-11-25_10h22.39.382,vts_reward_expectancy_bt,2022.2.4,MacIntel,62.5,Safari,1470,956,,,,,0,540,,,,,,,,,,,,,,,,,125,W,hexagon,1,0,,,,,,,,,,,,,,,,repeat,number,numRpt,d,noRew,,,,,,0.611,0,10,0,10,0,1,,,,,,,,,,,,,,,,,
297088,2022-11-25_10h22.39.382,vts_reward_expectancy_bt,2022.2.4,MacIntel,62.5,Safari,1470,956,,,,,0,540,,,,,,,,,,,,,,,,,146,H,circle,1,0,,,,,,,,,,,,,,,,switch,letter,lettSwt,j,noRew,,,,,,0.625,0,11,0,11,0,1,,,,,,,,,,,,,,,,,
297088,2022-11-25_10h22.39.382,vts_reward_expectancy_bt,2022.2.4,MacIntel,62.5,Safari,1470,956,,,,,0,540,,,,,,,,,,,,,,,,,174,U,star,0,0,,,,,,,,,,,,,,,,switch,number,NA,d,noRew,,,,,,1.137,0,12,0,12,0,1,,,,,,,,,,,,,,,,,
297088,2022-11-25_10h22.39.382,vts_reward_expectancy_bt,2022.2.4,MacIntel,62.5,Safari,1470,956,,,,,0,540,,,,,,,,,,,,,,,,,167,H,triangle,1,1,,,,,,,,,,,,,,,,switch,letter,lettSwt,j,noRew,,,,,,1.43,0,13,0,13,0,1,,,,,,,,,,,,,,,,,
297088,2022-11-25_10h22.39.382,vts_reward_expectancy_bt,2022.2.4,MacIntel,62.5,Safari,1470,956,,,,,0,540,,,,,,,,,,,,,,,,,132,S,circle,1,0,,,,,,,,,,,,,,,,switch,number,numSwt,d,noRew,,,,,,0.964,0,14,0,14,0,1,,,,,,,,,,,,,,,,,
297088,2022-11-25_10h22.39.382,vts_reward_expectancy_bt,2022.2.4,MacIntel,62.5,Safari,1470,956,,,,,0,540,,,,,,,,,,,,,,,,,181,F,hexagon,1,0,,,,,,,,,,,,,,,,repeat,number,numRpt,f,noRew,,,,,,1.078,0,15,0,15,0,1,,,,,,,,,,,,,,,,,
297088,2022-11-25_10h22.39.382,vts_reward_expectancy_bt,2022.2.4,MacIntel,62.5,Safari,1470,956,,,,,0,540,,,,,,,,,,,,,,,,,139,H,star,1,0,,,,,,,,,,,,,,,,repeat,number,numRpt,d,noRew,,,,,,0.896,0,16,0,16,0,1,,,,,,,,,,,,,,,,,
297088,2022-11-25_10h22.39.382,vts_reward_expectancy_bt,2022.2.4,MacIntel,62.5,Safari,1470,956,,,,,0,540,,,,,,,,,,,,,,,,,146,U,hexagon,1,0,,,,,,,,,,,,,,,,switch,letter,lettSwt,k,noRew,,,,,,1.646,0,17,0,17,0,1,,,,,,,,,,,,,,,,,
297088,2022-11-25_10h22.39.382,vts_reward_expectancy_bt,2022.2.4,MacIntel,62.5,Safari,1470,956,,,,,0,540,,,,,,,,,,,,,,,,,132,Y,circle,1,0,,,,,,,,,,,,,,,,repeat,letter,lettRpt,k,noRew,,,,,,0.931,0,18,0,18,0,1,,,,,,,,,,,,,,,,,
297088,2022-11-25_10h22.39.382,vts_reward_expectancy_bt,2022.2.4,MacIntel,62.5,Safari,1470,956,,,,,0,540,,,,,,,,,,,,,,,,,174,W,hexagon,1,0,,,,,,,,,,,,,,,,repeat,letter,lettRpt,k,noRew,,,,,,0.912,0,19,0,19,0,1,,,,,,,,,,,,,,,,,
297088,2022-11-25_10h22.39.382,vts_reward_expectancy_bt,2022.2.4,MacIntel,62.5,Safari,1470,956,,,,,0,540,,,,,,,,,,,,,,,,,139,W,star,1,0,,,,,,,,,,,,,,,,switch,number,numSwt,d,noRew,,,,,,0.721,0,20,0,20,0,1,,,,,,,,,,,,,,,,,
297088,2022-11-25_10h22.39.382,vts_reward_expectancy_bt,2022.2.4,MacIntel,62.5,Safari,1470,956,,,,,0,540,,,,,,,,,,,,,,,,,181,Y,triangle,1,0,,,,,,,,,,,,,,,,switch,letter,lettSwt,k,noRew,,,,,,0.803,0,21,0,21,0,1,,,,,,,,,,,,,,,,,
297088,2022-11-25_10h22.39.382,vts_reward_expectancy_bt,2022.2.4,MacIntel,62.5,Safari,1470,956,,,,,0,540,,,,,,,,,,,,,,,,,132,H,hexagon,1,0,,,,,,,,,,,,,,,,repeat,letter,lettRpt,j,noRew,,,,,,0.915,0,22,0,22,0,1,,,,,,,,,,,,,,,,,
297088,2022-11-25_10h22.39.382,vts_reward_expectancy_bt,2022.2.4,MacIntel,62.5,Safari,1470,956,,,,,0,540,,,,,,,,,,,,,,,,,146,D,star,1,0,,,,,,,,,,,,,,,,switch,number,numSwt,d,noRew,,,,,,0.949,0,23,0,23,0,1,,,,,,,,,,,,,,,,,
297088,2022-11-25_10h22.39.382,vts_reward_expectancy_bt,2022.2.4,MacIntel,62.5,Safari,1470,956,,,,,0,540,,,,,,,,,,,,,,,,,181,U,triangle,1,0,,,,,,,,,,,,,,,,switch,letter,lettSwt,k,noRew,,,,,,0.83,0,24,0,24,0,1,,,,,,,,,,,,,,,,,
297088,2022-11-25_10h22.39.382,vts_reward_expectancy_bt,2022.2.4,MacIntel,62.5,Safari,1470,956,,,,,0,540,,,,,,,,,,,,,,,,,160,B,star,1,0,,,,,,,,,,,,,,,,switch,number,numSwt,f,noRew,,,,,,1.344,0,25,0,25,0,1,,,,,,,,,,,,,,,,,
297088,2022-11-25_10h22.39.382,vts_reward_expectancy_bt,2022.2.4,MacIntel,62.5,Safari,1470,956,,,,,0,540,,,,,,,,,,,,,,,,,174,W,circle,1,0,,,,,,,,,,,,,,,,switch,letter,lettSwt,k,noRew,,,,,,1.498,0,26,0,26,0,1,,,,,,,,,,,,,,,,,
297088,2022-11-25_10h22.39.382,vts_reward_expectancy_bt,2022.2.4,MacIntel,62.5,Safari,1470,956,,,,,0,540,,,,,,,,,,,,,,,,,132,F,triangle,1,0,,,,,,,,,,,,,,,,repeat,letter,lettRpt,j,noRew,,,,,,0.752,0,27,0,27,0,1,,,,,,,,,,,,,,,,,
297088,2022-11-25_10h22.39.382,vts_reward_expectancy_bt,2022.2.4,MacIntel,62.5,Safari,1470,956,,,,,0,540,,,,,,,,,,,,,,,,,167,S,triangle,1,0,,,,,,,,,,,,,,,,switch,number,numSwt,f,noRew,,,,,,0.692,0,28,0,28,0,1,,,,,,,,,,,,,,,,,
297088,2022-11-25_10h22.39.382,vts_reward_expectancy_bt,2022.2.4,MacIntel,62.5,Safari,1470,956,,,,,0,540,,,,,,,,,,,,,,,,,146,H,circle,1,0,,,,,,,,,,,,,,,,repeat,number,numRpt,d,noRew,,,,,,1.027,0,29,0,29,0,1,,,,,,,,,,,,,,,,,
297088,2022-11-25_10h22.39.382,vts_reward_expectancy_bt,2022.2.4,MacIntel,62.5,Safari,1470,956,,,,,0,540,,,,,,,,,,,,,,,,,139,U,hexagon,1,0,,,,,,,,,,,,,,,,repeat,number,numRpt,d,noRew,,,,,,0.95,0,30,0,30,0,1,,,,,,,,,,,,,,,,,
297088,2022-11-25_10h22.39.382,vts_reward_expectancy_bt,2022.2.4,MacIntel,62.5,Safari,1470,956,,,,,0,540,,,,,,,,,,,,,,,,,125,Y,triangle,1,0,,,,,,,,,,,,,,,,switch,letter,lettSwt,k,noRew,,,,,,0.852,0,31,0,31,0,1,,,,,,,,,,,,,,,,,
297088,2022-11-25_10h22.39.382,vts_reward_expectancy_bt,2022.2.4,MacIntel,62.5,Safari,1470,956,,,,,0,540,,,,,,,,,,,,,,,,,146,S,hexagon,1,0,,,,,,,,,,,,,,,,switch,number,numSwt,d,noRew,,,,,,0.879,0,32,0,32,0,1,,,,,,,,,,,,,,,,,
297088,2022-11-25_10h22.39.382,vts_reward_expectancy_bt,2022.2.4,MacIntel,62.5,Safari,1470,956,,,,,0,540,,,,,,,,,,,,,,,,,139,B,star,1,0,,,,,,,,,,,,,,,,switch,letter,lettSwt,j,noRew,,,,,,0.93,0,33,0,33,0,1,,,,,,,,,,,,,,,,,
297088,2022-11-25_10h22.39.382,vts_reward_expectancy_bt,2022.2.4,MacIntel,62.5,Safari,1470,956,,,,,0,540,,,,,,,,,,,,,,,,,125,Y,hexagon,1,0,,,,,,,,,,,,,,,,switch,number,numSwt,d,noRew,,,,,,0.994,0,34,0,34,0,1,,,,,,,,,,,,,,,,,
297088,2022-11-25_10h22.39.382,vts_reward_expectancy_bt,2022.2.4,MacIntel,62.5,Safari,1470,956,,,,,0,540,,,,,,,,,,,,,,,,,167,U,star,1,0,,,,,,,,,,,,,,,,repeat,number,numRpt,f,noRew,,,,,,0.71,0,35,0,35,0,1,,,,,,,,,,,,,,,,,
297088,2022-11-25_10h22.39.382,vts_reward_expectancy_bt,2022.2.4,MacIntel,62.5,Safari,1470,956,,,,,0,540,,,,,,,,,,,,,,,,,160,W,circle,1,0,,,,,,,,,,,,,,,,repeat,number,numRpt,f,noRew,,,,,,1.446,0,36,0,36,0,1,,,,,,,,,,,,,,,,,
297088,2022-11-25_10h22.39.382,vts_reward_expectancy_bt,2022.2.4,MacIntel,62.5,Safari,1470,956,,,,,0,540,,,,,,,,,,,,,,,,,181,H,triangle,1,0,,,,,,,,,,,,,,,,switch,letter,lettSwt,j,noRew,,,,,,0.613,0,37,0,37,0,1,,,,,,,,,,,,,,,,,
297088,2022-11-25_10h22.39.382,vts_reward_expectancy_bt,2022.2.4,MacIntel,62.5,Safari,1470,956,,,,,0,540,,,,,,,,,,,,,,,,,146,F,star,1,0,,,,,,,,,,,,,,,,repeat,letter,lettRpt,j,noRew,,,,,,0.694,0,38,0,38,0,1,,,,,,,,,,,,,,,,,
297088,2022-11-25_10h22.39.382,vts_reward_expectancy_bt,2022.2.4,MacIntel,62.5,Safari,1470,956,,,,,0,540,,,,,,,,,,,,,,,,,167,U,triangle,1,0,,,,,,,,,,,,,,,,switch,number,numSwt,f,noRew,,,,,,0.765,0,39,0,39,0,1,,,,,,,,,,,,,,,,,
297088,2022-11-25_10h22.39.382,vts_reward_expectancy_bt,2022.2.4,MacIntel,62.5,Safari,1470,956,,,,,0,540,,,,,,,,,,,,,,,,,125,F,circle,1,0,,,,,,,,,,,,,,,,switch,letter,lettSwt,j,noRew,,,,,,0.636,0,40,0,40,0,1,,,,,,,,,,,,,,,,,
297088,2022-11-25_10h22.39.382,vts_reward_expectancy_bt,2022.2.4,MacIntel,62.5,Safari,1470,956,,,,,0,540,,,,,,,,,,,,,,,,,132,D,star,1,0,,,,,,,,,,,,,,,,repeat,letter,lettRpt,j,noRew,,,,,,1.131,0,41,0,41,0,1,,,,,,,,,,,,,,,,,
297088,2022-11-25_10h22.39.382,vts_reward_expectancy_bt,2022.2.4,MacIntel,62.5,Safari,1470,956,,,,,0,540,,,,,,,,,,,,,,,,,181,S,star,1,0,,,,,,,,,,,,,,,,switch,number,numSwt,f,noRew,,,,,,0.788,0,42,0,42,0,1,,,,,,,,,,,,,,,,,
297088,2022-11-25_10h22.39.382,vts_reward_expectancy_bt,2022.2.4,MacIntel,62.5,Safari,1470,956,,,,,0,540,,,,,,,,,,,,,,,,,174,W,hexagon,1,0,,,,,,,,,,,,,,,,switch,letter,lettSwt,k,noRew,,,,,,1.43,0,43,0,43,0,1,,,,,,,,,,,,,,,,,
297088,2022-11-25_10h22.39.382,vts_reward_expectancy_bt,2022.2.4,MacIntel,62.5,Safari,1470,956,,,,,0,540,,,,,,,,,,,,,,,,,132,D,hexagon,1,0,,,,,,,,,,,,,,,,switch,number,numSwt,d,noRew,,,,,,0.753,0,44,0,44,0,1,,,,,,,,,,,,,,,,,
297088,2022-11-25_10h22.39.382,vts_reward_expectancy_bt,2022.2.4,MacIntel,62.5,Safari,1470,956,,,,,0,540,,,,,,,,,,,,,,,,,160,F,triangle,1,0,,,,,,,,,,,,,,,,switch,letter,lettSwt,j,noRew,,,,,,1.629,0,45,0,45,0,1,,,,,,,,,,,,,,,,,
297088,2022-11-25_10h22.39.382,vts_reward_expectancy_bt,2022.2.4,MacIntel,62.5,Safari,1470,956,,,,,0,540,,,,,,,,,,,,,,,,,125,U,circle,0,0,,,,,,,,,,,,,,,,repeat,letter,NA,j,noRew,,,,,,1.744,0,46,0,46,0,1,,,,,,,,,,,,,,,,,
297088,2022-11-25_10h22.39.382,vts_reward_expectancy_bt,2022.2.4,MacIntel,62.5,Safari,1470,956,,,,,0,540,,,,,,,,,,,,,,,,,174,S,star,1,1,,,,,,,,,,,,,,,,repeat,letter,lettRpt,k,noRew,,,,,,1.096,0,47,0,47,0,1,,,,,,,,,,,,,,,,,
297088,2022-11-25_10h22.39.382,vts_reward_expectancy_bt,2022.2.4,MacIntel,62.5,Safari,1470,956,,,,,0,540,,,,,,,,,,,,,,,,,139,U,hexagon,1,0,,,,,,,,,,,,,,,,switch,number,numSwt,d,noRew,,,,,,0.926,0,48,0,48,0,1,,,,,,,,,,,,,,,,,
297088,2022-11-25_10h22.39.382,vts_reward_expectancy_bt,2022.2.4,MacIntel,62.5,Safari,1470,956,,,,,0,540,,,,,,,,,,,,,,,,,160,H,circle,1,0,,,,,,,,,,,,,,,,switch,letter,lettSwt,j,noRew,,,,,,0.867,0,49,0,49,0,1,,,,,,,,,,,,,,,,,
297088,2022-11-25_10h22.39.382,vts_reward_expectancy_bt,2022.2.4,MacIntel,62.5,Safari,1470,956,,,,,0,540,,,,,,,,,,,,,,,,,181,W,triangle,1,0,,,,,,,,,,,,,,,,repeat,letter,lettRpt,k,noRew,,,,,,1.298,0,50,0,50,0,1,,,,,,,,,,,,,,,,,
297088,2022-11-25_10h22.39.382,vts_reward_expectancy_bt,2022.2.4,MacIntel,62.5,Safari,1470,956,,,,,0,540,,,,,,,,,,,,,,,,,146,S,star,1,0,,,,,,,,,,,,,,,,switch,number,numSwt,d,noRew,,,,,,1.09,0,51,0,51,0,1,,,,,,,,,,,,,,,,,
297088,2022-11-25_10h22.39.382,vts_reward_expectancy_bt,2022.2.4,MacIntel,62.5,Safari,1470,956,,,,,0,540,,,,,,,,,,,,,,,,,181,D,triangle,1,0,,,,,,,,,,,,,,,,switch,letter,lettSwt,j,noRew,,,,,,1.131,0,52,0,52,0,1,,,,,,,,,,,,,,,,,
297088,2022-11-25_10h22.39.382,vts_reward_expectancy_bt,2022.2.4,MacIntel,62.5,Safari,1470,956,,,,,0,540,,,,,,,,,,,,,,,,,139,H,star,1,0,,,,,,,,,,,,,,,,switch,number,numSwt,d,noRew,,,,,,0.653,0,53,0,53,0,1,,,,,,,,,,,,,,,,,
297088,2022-11-25_10h22.39.382,vts_reward_expectancy_bt,2022.2.4,MacIntel,62.5,Safari,1470,956,,,,,0,540,,,,,,,,,,,,,,,,,167,F,star,1,0,,,,,,,,,,,,,,,,switch,letter,lettSwt,j,noRew,,,,,,0.728,0,54,0,54,0,1,,,,,,,,,,,,,,,,,
297088,2022-11-25_10h22.39.382,vts_reward_expectancy_bt,2022.2.4,MacIntel,62.5,Safari,1470,956,,,,,0,540,,,,,,,,,,,,,,,,,174,B,triangle,1,0,,,,,,,,,,,,,,,,switch,number,numSwt,f,noRew,,,,,,0.93,0,55,0,55,0,1,,,,,,,,,,,,,,,,,
297088,2022-11-25_10h22.39.382,vts_reward_expectancy_bt,2022.2.4,MacIntel,62.5,Safari,1470,956,,,,,0,540,,,,,,,,,,,,,,,,,139,W,circle,1,0,,,,,,,,,,,,,,,,repeat,number,numRpt,d,noRew,,,,,,1.115,0,56,0,56,0,1,,,,,,,,,,,,,,,,,
297088,2022-11-25_10h22.39.382,vts_reward_expectancy_bt,2022.2.4,MacIntel,62.5,Safari,1470,956,,,,,0,540,,,,,,,,,,,,,,,,,146,Y,triangle,1,0,,,,,,,,,,,,,,,,switch,letter,lettSwt,k,noRew,,,,,,0.944,0,57,0,57,0,1,,,,,,,,,,,,,,,,,
297088,2022-11-25_10h22.39.382,vts_reward_expectancy_bt,2022.2.4,MacIntel,62.5,Safari,1470,956,,,,,0,540,,,,,,,,,,,,,,,,,167,D,hexagon,1,0,,,,,,,,,,,,,,,,repeat,letter,lettRpt,j,noRew,,,,,,2.048,0,58,0,58,0,1,,,,,,,,,,,,,,,,,
297088,2022-11-25_10h22.39.382,vts_reward_expectancy_bt,2022.2.4,MacIntel,62.5,Safari,1470,956,,,,,0,540,,,,,,,,,,,,,,,,,160,B,triangle,1,0,,,,,,,,,,,,,,,,repeat,letter,lettRpt,j,noRew,,,,,,1.523,0,59,0,59,0,1,,,,,,,,,,,,,,,,,
297088,2022-11-25_10h22.39.382,vts_reward_expectancy_bt,2022.2.4,MacIntel,62.5,Safari,1470,956,,,,,0,540,,,,,,,,,,,,,,,,,167,Y,triangle,1,0,,,,,,,,,,,,,,,,switch,number,numSwt,f,noRew,,,,,,0.606,0,60,0,60,0,1,,,,,,,,,,,,,,,,,
297088,2022-11-25_10h22.39.382,vts_reward_expectancy_bt,2022.2.4,MacIntel,62.5,Safari,1470,956,,,,,0,540,,,,,,,,,,,,,,,,,181,B,star,1,0,,,,,,,,,,,,,,,,repeat,number,numRpt,f,noRew,,,,,,0.621,0,61,0,61,0,1,,,,,,,,,,,,,,,,,
297088,2022-11-25_10h22.39.382,vts_reward_expectancy_bt,2022.2.4,MacIntel,62.5,Safari,1470,956,,,,,0,540,,,,,,,,,,,,,,,,,132,S,hexagon,1,0,,,,,,,,,,,,,,,,switch,letter,lettSwt,k,noRew,,,,,,0.692,0,62,0,62,0,1,,,,,,,,,,,,,,,,,
297088,2022-11-25_10h22.39.382,vts_reward_expectancy_bt,2022.2.4,MacIntel,62.5,Safari,1470,956,,,,,0,540,,,,,,,,,,,,,,,,,160,W,star,1,0,,,,,,,,,,,,,,,,switch,number,numSwt,f,noRew,,,,,,0.716,0,63,0,63,0,1,,,,,,,,,,,,,,,,,
297088,2022-11-25_10h22.39.382,vts_reward_expectancy_bt,2022.2.4,MacIntel,62.5,Safari,1470,956,,,,,,,,,,,,,,,,,,,,,,,,,,,,,,,,,,,,,,,,,,,,,,,,,,,,,,,,,,,,,,,,,,,,,,,,,,,,
297088,2022-11-25_10h22.39.382,vts_reward_expectancy_bt,2022.2.4,MacIntel,62.5,Safari,1470,956,,,,,1,541,,,,,,,,,,,,,,,,,146,Y,star,1,0,,,,,,,,,,,,,,,,repeat,number,numRpt,d,Lo,,,,,,1.539,0,,,,,,space,7.915,low,0,0,0,0,1,,,,,,,,,
297088,2022-11-25_10h22.39.382,vts_reward_expectancy_bt,2022.2.4,MacIntel,62.5,Safari,1470,956,,,,,0,541,,,,,,,,,,,,,,,,,132,F,triangle,1,0,,,,,,,,,,,,,,,,repeat,number,numRpt,d,Hi,,,,,,0.831,0,,,,,,,,low,1,0,1,0,1,,,,,,,,,
297088,2022-11-25_10h22.39.382,vts_reward_expectancy_bt,2022.2.4,MacIntel,62.5,Safari,1470,956,,,,,10,551,,,,,,,,,,,,,,,,,139,B,hexagon,1,0,,,,,,,,,,,,,,,,repeat,number,numRpt,d,Lo,,,,,,0.619,0,,,,,,,,low,2,0,2,0,1,,,,,,,,,
297088,2022-11-25_10h22.39.382,vts_reward_expectancy_bt,2022.2.4,MacIntel,62.5,Safari,1470,956,,,,,1,552,,,,,,,,,,,,,,,,,125,D,circle,1,0,,,,,,,,,,,,,,,,switch,letter,lettSwt,j,Hi,,,,,,0.576,0,,,,,,,,low,3,0,3,0,1,,,,,,,,,
297088,2022-11-25_10h22.39.382,vts_reward_expectancy_bt,2022.2.4,MacIntel,62.5,Safari,1470,956,,,,,1,553,,,,,,,,,,,,,,,,,167,S,star,1,0,,,,,,,,,,,,,,,,switch,number,numSwt,f,Lo,,,,,,0.927,0,,,,,,,,low,4,0,4,0,1,,,,,,,,,
297088,2022-11-25_10h22.39.382,vts_reward_expectancy_bt,2022.2.4,MacIntel,62.5,Safari,1470,956,,,,,0,553,,,,,,,,,,,,,,,,,174,H,triangle,0,0,,,,,,,,,,,,,,,,repeat,number,NA,d,Lo,,,,,,1.059,0,,,,,,,,low,5,0,5,0,1,,,,,,,,,
297088,2022-11-25_10h22.39.382,vts_reward_expectancy_bt,2022.2.4,MacIntel,62.5,Safari,1470,956,,,,,10,563,,,,,,,,,,,,,,,,,160,U,hexagon,1,1,,,,,,,,,,,,,,,,switch,letter,lettSwt,k,Lo,,,,,,2.06,0,,,,,,,,low,6,0,6,0,1,,,,,,,,,
297088,2022-11-25_10h22.39.382,vts_reward_expectancy_bt,2022.2.4,MacIntel,62.5,Safari,1470,956,,,,,0,563,,,,,,,,,,,,,,,,,181,W,circle,0,0,,,,,,,,,,,,,,,,switch,number,NA,d,Lo,,,,,,0.937,0,,,,,,,,low,7,0,7,0,1,,,,,,,,,
297088,2022-11-25_10h22.39.382,vts_reward_expectancy_bt,2022.2.4,MacIntel,62.5,Safari,1470,956,,,,,0,563,,,,,,,,,,,,,,,,,146,Y,triangle,1,1,,,,,,,,,,,,,,,,repeat,number,numRpt,d,Hi,,,,,,0.927,0,,,,,,,,low,8,0,8,0,1,,,,,,,,,
297088,2022-11-25_10h22.39.382,vts_reward_expectancy_bt,2022.2.4,MacIntel,62.5,Safari,1470,956,,,,,10,573,,,,,,,,,,,,,,,,,132,F,circle,1,0,,,,,,,,,,,,,,,,switch,letter,lettSwt,j,Hi,,,,,,0.638,0,,,,,,,,low,9,0,9,0,1,,,,,,,,,
297088,2022-11-25_10h22.39.382,vts_reward_expectancy_bt,2022.2.4,MacIntel,62.5,Safari,1470,956,,,,,1,574,,,,,,,,,,,,,,,,,139,B,hexagon,1,0,,,,,,,,,,,,,,,,repeat,letter,lettRpt,j,Lo,,,,,,0.637,0,,,,,,,,low,10,0,10,0,1,,,,,,,,,
297088,2022-11-25_10h22.39.382,vts_reward_expectancy_bt,2022.2.4,MacIntel,62.5,Safari,1470,956,,,,,10,584,,,,,,,,,,,,,,,,,125,D,star,1,0,,,,,,,,,,,,,,,,switch,number,numSwt,d,Lo,,,,,,0.816,0,,,,,,,,low,11,0,11,0,1,,,,,,,,,
297088,2022-11-25_10h22.39.382,vts_reward_expectancy_bt,2022.2.4,MacIntel,62.5,Safari,1470,956,,,,,0,584,,,,,,,,,,,,,,,,,167,S,triangle,0,0,,,,,,,,,,,,,,,,switch,letter,NA,j,Lo,,,,,,0.963,0,,,,,,,,low,12,0,12,0,1,,,,,,,,,
297088,2022-11-25_10h22.39.382,vts_reward_expectancy_bt,2022.2.4,MacIntel,62.5,Safari,1470,956,,,,,10,594,,,,,,,,,,,,,,,,,174,H,hexagon,1,1,,,,,,,,,,,,,,,,repeat,letter,lettRpt,j,Lo,,,,,,0.886,0,,,,,,,,low,13,0,13,0,1,,,,,,,,,
297088,2022-11-25_10h22.39.382,vts_reward_expectancy_bt,2022.2.4,MacIntel,62.5,Safari,1470,956,,,,,10,604,,,,,,,,,,,,,,,,,160,U,circle,1,0,,,,,,,,,,,,,,,,switch,number,numSwt,f,Hi,,,,,,0.604,0,,,,,,,,low,14,0,14,0,1,,,,,,,,,
297088,2022-11-25_10h22.39.382,vts_reward_expectancy_bt,2022.2.4,MacIntel,62.5,Safari,1470,956,,,,,10,614,,,,,,,,,,,,,,,,,181,W,star,1,0,,,,,,,,,,,,,,,,switch,letter,lettSwt,k,Lo,,,,,,1.509,0,,,,,,,,low,15,0,15,0,1,,,,,,,,,
297088,2022-11-25_10h22.39.382,vts_reward_expectancy_bt,2022.2.4,MacIntel,62.5,Safari,1470,956,,,,,0,614,,,,,,,,,,,,,,,,,160,S,circle,1,0,,,,,,,,,,,,,,,,switch,number,numSwt,f,Hi,,,,,,0.883,0,,,,,,,,low,16,0,16,0,1,,,,,,,,,
297088,2022-11-25_10h22.39.382,vts_reward_expectancy_bt,2022.2.4,MacIntel,62.5,Safari,1470,956,,,,,1,615,,,,,,,,,,,,,,,,,167,F,star,1,0,,,,,,,,,,,,,,,,repeat,number,numRpt,f,Lo,,,,,,0.562,0,,,,,,,,low,17,0,17,0,1,,,,,,,,,
297088,2022-11-25_10h22.39.382,vts_reward_expectancy_bt,2022.2.4,MacIntel,62.5,Safari,1470,956,,,,,1,616,,,,,,,,,,,,,,,,,139,W,hexagon,1,0,,,,,,,,,,,,,,,,repeat,number,numRpt,d,Lo,,,,,,0.462,0,,,,,,,,low,18,0,18,0,1,,,,,,,,,
297088,2022-11-25_10h22.39.382,vts_reward_expectancy_bt,2022.2.4,MacIntel,62.5,Safari,1470,956,,,,,10,626,,,,,,,,,,,,,,,,,146,H,triangle,1,0,,,,,,,,,,,,,,,,switch,letter,lettSwt,j,Hi,,,,,,0.432,0,,,,,,,,low,19,0,19,0,1,,,,,,,,,
297088,2022-11-25_10h22.39.382,vts_reward_expectancy_bt,2022.2.4,MacIntel,62.5,Safari,1470,956,,,,,10,636,,,,,,,,,,,,,,,,,174,B,circle,1,0,,,,,,,,,,,,,,,,repeat,letter,lettRpt,j,Hi,,,,,,0.59,0,,,,,,,,low,20,0,20,0,1,,,,,,,,,
297088,2022-11-25_10h22.39.382,vts_reward_expectancy_bt,2022.2.4,MacIntel,62.5,Safari,1470,956,,,,,10,646,,,,,,,,,,,,,,,,,125,Y,star,1,0,,,,,,,,,,,,,,,,switch,number,numSwt,d,Lo,,,,,,0.425,0,,,,,,,,low,21,0,21,0,1,,,,,,,,,
297088,2022-11-25_10h22.39.382,vts_reward_expectancy_bt,2022.2.4,MacIntel,62.5,Safari,1470,956,,,,,1,647,,,,,,,,,,,,,,,,,181,D,triangle,1,0,,,,,,,,,,,,,,,,repeat,number,numRpt,f,Hi,,,,,,0.658,0,,,,,,,,low,22,0,22,0,1,,,,,,,,,
297088,2022-11-25_10h22.39.382,vts_reward_expectancy_bt,2022.2.4,MacIntel,62.5,Safari,1470,956,,,,,10,657,,,,,,,,,,,,,,,,,132,U,hexagon,1,0,,,,,,,,,,,,,,,,repeat,number,numRpt,d,Lo,,,,,,0.778,0,,,,,,,,low,23,0,23,0,1,,,,,,,,,
297088,2022-11-25_10h22.39.382,vts_reward_expectancy_bt,2022.2.4,MacIntel,62.5,Safari,1470,956,,,,,1,658,,,,,,,,,,,,,,,,,167,U,hexagon,1,0,,,,,,,,,,,,,,,,switch,letter,lettSwt,k,Lo,,,,,,0.507,0,,,,,,,,low,24,0,24,0,1,,,,,,,,,
297088,2022-11-25_10h22.39.382,vts_reward_expectancy_bt,2022.2.4,MacIntel,62.5,Safari,1470,956,,,,,10,668,,,,,,,,,,,,,,,,,125,B,triangle,1,0,,,,,,,,,,,,,,,,repeat,letter,lettRpt,j,Hi,,,,,,0.579,0,,,,,,,,low,25,0,25,0,1,,,,,,,,,
297088,2022-11-25_10h22.39.382,vts_reward_expectancy_bt,2022.2.4,MacIntel,62.5,Safari,1470,956,,,,,1,669,,,,,,,,,,,,,,,,,139,Y,star,1,0,,,,,,,,,,,,,,,,repeat,letter,lettRpt,k,Lo,,,,,,0.595,0,,,,,,,,low,26,0,26,0,1,,,,,,,,,
297088,2022-11-25_10h22.39.382,vts_reward_expectancy_bt,2022.2.4,MacIntel,62.5,Safari,1470,956,,,,,10,679,,,,,,,,,,,,,,,,,160,F,circle,1,0,,,,,,,,,,,,,,,,switch,number,numSwt,f,Hi,,,,,,0.687,0,,,,,,,,low,27,0,27,0,1,,,,,,,,,
297088,2022-11-25_10h22.39.382,vts_reward_expectancy_bt,2022.2.4,MacIntel,62.5,Safari,1470,956,,,,,1,680,,,,,,,,,,,,,,,,,181,S,hexagon,1,0,,,,,,,,,,,,,,,,repeat,number,numRpt,f,Lo,,,,,,0.727,0,,,,,,,,low,28,0,28,0,1,,,,,,,,,
297088,2022-11-25_10h22.39.382,vts_reward_expectancy_bt,2022.2.4,MacIntel,62.5,Safari,1470,956,,,,,10,690,,,,,,,,,,,,,,,,,132,D,circle,1,0,,,,,,,,,,,,,,,,switch,letter,lettSwt,j,Hi,,,,,,0.521,0,,,,,,,,low,29,0,29,0,1,,,,,,,,,
297088,2022-11-25_10h22.39.382,vts_reward_expectancy_bt,2022.2.4,MacIntel,62.5,Safari,1470,956,,,,,1,691,,,,,,,,,,,,,,,,,146,W,triangle,1,0,,,,,,,,,,,,,,,,repeat,letter,lettRpt,k,Hi,,,,,,0.795,0,,,,,,,,low,30,0,30,0,1,,,,,,,,,
297088,2022-11-25_10h22.39.382,vts_reward_expectancy_bt,2022.2.4,MacIntel,62.5,Safari,1470,956,,,,,10,701,,,,,,,,,,,,,,,,,174,H,star,1,0,,,,,,,,,,,,,,,,switch,number,numSwt,f,Lo,,,,,,0.585,0,,,,,,,,low,31,0,31,0,1,,,,,,,,,
297088,2022-11-25_10h22.39.382,vts_reward_expectancy_bt,2022.2.4,MacIntel,62.5,Safari,1470,956,,,,,0,701,,,,,,,,,,,,,,,,,146,H,circle,0,0,,,,,,,,,,,,,,,,repeat,number,NA,f,Lo,,,,,,1.198,1,,,,,,space,3.776,low,0,0,0,0,1,,,,,,,,,
297088,2022-11-25_10h22.39.382,vts_reward_expectancy_bt,2022.2.4,MacIntel,62.5,Safari,1470,956,,,,,0,701,,,,,,,,,,,,,,,,,181,S,triangle,1,1,,,,,,,,,,,,,,,,switch,letter,lettSwt,k,Hi,,,,,,0.585,1,,,,,,,,low,1,0,1,0,1,,,,,,,,,
297088,2022-11-25_10h22.39.382,vts_reward_expectancy_bt,2022.2.4,MacIntel,62.5,Safari,1470,956,,,,,1,702,,,,,,,,,,,,,,,,,167,U,hexagon,1,0,,,,,,,,,,,,,,,,switch,number,numSwt,f,Lo,,,,,,0.727,1,,,,,,,,low,2,0,2,0,1,,,,,,,,,
297088,2022-11-25_10h22.39.382,vts_reward_expectancy_bt,2022.2.4,MacIntel,62.5,Safari,1470,956,,,,,10,712,,,,,,,,,,,,,,,,,132,Y,star,1,0,,,,,,,,,,,,,,,,switch,letter,lettSwt,k,Lo,,,,,,0.694,1,,,,,,,,low,3,0,3,0,1,,,,,,,,,
297088,2022-11-25_10h22.39.382,vts_reward_expectancy_bt,2022.2.4,MacIntel,62.5,Safari,1470,956,,,,,0,712,,,,,,,,,,,,,,,,,125,W,circle,1,0,,,,,,,,,,,,,,,,switch,number,numSwt,d,Hi,,,,,,0.869,1,,,,,,,,low,4,0,4,0,1,,,,,,,,,
297088,2022-11-25_10h22.39.382,vts_reward_expectancy_bt,2022.2.4,MacIntel,62.5,Safari,1470,956,,,,,0,712,,,,,,,,,,,,,,,,,139,F,triangle,1,0,,,,,,,,,,,,,,,,switch,letter,lettSwt,j,Hi,,,,,,0.869,1,,,,,,,,low,5,0,5,0,1,,,,,,,,,
297088,2022-11-25_10h22.39.382,vts_reward_expectancy_bt,2022.2.4,MacIntel,62.5,Safari,1470,956,,,,,1,713,,,,,,,,,,,,,,,,,160,B,hexagon,1,0,,,,,,,,,,,,,,,,repeat,letter,lettRpt,j,Lo,,,,,,0.513,1,,,,,,,,low,6,0,6,0,1,,,,,,,,,
297088,2022-11-25_10h22.39.382,vts_reward_expectancy_bt,2022.2.4,MacIntel,62.5,Safari,1470,956,,,,,0,713,,,,,,,,,,,,,,,,,174,D,star,0,0,,,,,,,,,,,,,,,,repeat,letter,NA,k,Lo,,,,,,0.633,1,,,,,,,,low,7,0,7,0,1,,,,,,,,,
297088,2022-11-25_10h22.39.382,vts_reward_expectancy_bt,2022.2.4,MacIntel,62.5,Safari,1470,956,,,,,0,713,,,,,,,,,,,,,,,,,146,H,star,0,1,,,,,,,,,,,,,,,,repeat,letter,NA,k,Lo,,,,,,0.501,1,,,,,,,,low,8,0,8,0,1,,,,,,,,,
297088,2022-11-25_10h22.39.382,vts_reward_expectancy_bt,2022.2.4,MacIntel,62.5,Safari,1470,956,,,,,1,714,,,,,,,,,,,,,,,,,181,S,hexagon,1,1,,,,,,,,,,,,,,,,repeat,letter,lettRpt,k,Lo,,,,,,0.71,1,,,,,,,,low,9,0,9,0,1,,,,,,,,,
297088,2022-11-25_10h22.39.382,vts_reward_expectancy_bt,2022.2.4,MacIntel,62.5,Safari,1470,956,,,,,10,724,,,,,,,,,,,,,,,,,167,U,circle,1,0,,,,,,,,,,,,,,,,switch,number,numSwt,f,Hi,,,,,,0.462,1,,,,,,,,low,10,0,10,0,1,,,,,,,,,
297088,2022-11-25_10h22.39.382,vts_reward_expectancy_bt,2022.2.4,MacIntel,62.5,Safari,1470,956,,,,,1,725,,,,,,,,,,,,,,,,,132,Y,triangle,1,0,,,,,,,,,,,,,,,,repeat,number,numRpt,d,Hi,,,,,,0.63,1,,,,,,,,low,11,0,11,0,1,,,,,,,,,
297088,2022-11-25_10h22.39.382,vts_reward_expectancy_bt,2022.2.4,MacIntel,62.5,Safari,1470,956,,,,,1,726,,,,,,,,,,,,,,,,,125,W,hexagon,1,0,,,,,,,,,,,,,,,,switch,letter,lettSwt,k,Lo,,,,,,0.562,1,,,,,,,,low,12,0,12,0,1,,,,,,,,,
297088,2022-11-25_10h22.39.382,vts_reward_expectancy_bt,2022.2.4,MacIntel,62.5,Safari,1470,956,,,,,1,727,,,,,,,,,,,,,,,,,139,F,star,1,0,,,,,,,,,,,,,,,,repeat,letter,lettRpt,j,Lo,,,,,,0.561,1,,,,,,,,low,13,0,13,0,1,,,,,,,,,
297088,2022-11-25_10h22.39.382,vts_reward_expectancy_bt,2022.2.4,MacIntel,62.5,Safari,1470,956,,,,,10,737,,,,,,,,,,,,,,,,,160,B,circle,1,0,,,,,,,,,,,,,,,,switch,number,numSwt,f,Hi,,,,,,0.562,1,,,,,,,,low,14,0,14,0,1,,,,,,,,,
297088,2022-11-25_10h22.39.382,vts_reward_expectancy_bt,2022.2.4,MacIntel,62.5,Safari,1470,956,,,,,1,738,,,,,,,,,,,,,,,,,174,D,triangle,1,0,,,,,,,,,,,,,,,,repeat,number,numRpt,f,Hi,,,,,,0.6,1,,,,,,,,low,15,0,15,0,1,,,,,,,,,
297088,2022-11-25_10h22.39.382,vts_reward_expectancy_bt,2022.2.4,MacIntel,62.5,Safari,1470,956,,,,,1,739,,,,,,,,,,,,,,,,,125,B,triangle,1,0,,,,,,,,,,,,,,,,switch,letter,lettSwt,j,Hi,,,,,,0.432,1,,,,,,,,low,16,0,16,0,1,,,,,,,,,
297088,2022-11-25_10h22.39.382,vts_reward_expectancy_bt,2022.2.4,MacIntel,62.5,Safari,1470,956,,,,,10,749,,,,,,,,,,,,,,,,,160,H,hexagon,1,0,,,,,,,,,,,,,,,,switch,number,numSwt,f,Lo,,,,,,0.528,1,,,,,,,,low,17,0,17,0,1,,,,,,,,,
297088,2022-11-25_10h22.39.382,vts_reward_expectancy_bt,2022.2.4,MacIntel,62.5,Safari,1470,956,,,,,0,749,,,,,,,,,,,,,,,,,132,W,circle,0,0,,,,,,,,,,,,,,,,switch,letter,NA,j,Lo,,,,,,0.694,1,,,,,,,,low,18,0,18,0,1,,,,,,,,,
297088,2022-11-25_10h22.39.382,vts_reward_expectancy_bt,2022.2.4,MacIntel,62.5,Safari,1470,956,,,,,1,750,,,,,,,,,,,,,,,,,181,D,star,1,1,,,,,,,,,,,,,,,,repeat,letter,lettRpt,j,Lo,,,,,,0.544,1,,,,,,,,low,19,0,19,0,1,,,,,,,,,
297088,2022-11-25_10h22.39.382,vts_reward_expectancy_bt,2022.2.4,MacIntel,62.5,Safari,1470,956,,,,,1,751,,,,,,,,,,,,,,,,,174,U,star,1,0,,,,,,,,,,,,,,,,switch,number,numSwt,f,Lo,,,,,,0.629,1,,,,,,,,low,20,0,20,0,1,,,,,,,,,
297088,2022-11-25_10h22.39.382,vts_reward_expectancy_bt,2022.2.4,MacIntel,62.5,Safari,1470,956,,,,,10,761,,,,,,,,,,,,,,,,,167,Y,hexagon,1,0,,,,,,,,,,,,,,,,switch,letter,lettSwt,k,Lo,,,,,,0.563,1,,,,,,,,low,21,0,21,0,1,,,,,,,,,
297088,2022-11-25_10h22.39.382,vts_reward_expectancy_bt,2022.2.4,MacIntel,62.5,Safari,1470,956,,,,,1,762,,,,,,,,,,,,,,,,,146,F,triangle,1,0,,,,,,,,,,,,,,,,repeat,letter,lettRpt,j,Hi,,,,,,0.577,1,,,,,,,,low,22,0,22,0,1,,,,,,,,,
297088,2022-11-25_10h22.39.382,vts_reward_expectancy_bt,2022.2.4,MacIntel,62.5,Safari,1470,956,,,,,0,762,,,,,,,,,,,,,,,,,139,S,circle,0,0,,,,,,,,,,,,,,,,switch,number,NA,f,Hi,,,,,,0.632,1,,,,,,,,low,23,0,23,0,1,,,,,,,,,
297088,2022-11-25_10h22.39.382,vts_reward_expectancy_bt,2022.2.4,MacIntel,62.5,Safari,1470,956,,,,,1,763,,,,,,,,,,,,,,,,,125,S,hexagon,1,1,,,,,,,,,,,,,,,,repeat,number,numRpt,d,Lo,,,,,,0.614,1,,,,,,,,low,24,0,24,0,1,,,,,,,,,
297088,2022-11-25_10h22.39.382,vts_reward_expectancy_bt,2022.2.4,MacIntel,62.5,Safari,1470,956,,,,,0,763,,,,,,,,,,,,,,,,,160,F,circle,1,0,,,,,,,,,,,,,,,,repeat,number,numRpt,f,Hi,,,,,,0.753,1,,,,,,,,low,25,0,25,0,1,,,,,,,,,
297088,2022-11-25_10h22.39.382,vts_reward_expectancy_bt,2022.2.4,MacIntel,62.5,Safari,1470,956,,,,,10,773,,,,,,,,,,,,,,,,,139,H,star,1,0,,,,,,,,,,,,,,,,repeat,number,numRpt,d,Lo,,,,,,0.776,1,,,,,,,,low,26,0,26,0,1,,,,,,,,,
297088,2022-11-25_10h22.39.382,vts_reward_expectancy_bt,2022.2.4,MacIntel,62.5,Safari,1470,956,,,,,10,783,,,,,,,,,,,,,,,,,167,Y,triangle,1,0,,,,,,,,,,,,,,,,repeat,number,numRpt,f,Hi,,,,,,0.566,1,,,,,,,,low,27,0,27,0,1,,,,,,,,,
297088,2022-11-25_10h22.39.382,vts_reward_expectancy_bt,2022.2.4,MacIntel,62.5,Safari,1470,956,,,,,1,784,,,,,,,,,,,,,,,,,174,W,hexagon,1,0,,,,,,,,,,,,,,,,switch,letter,lettSwt,k,Lo,,,,,,0.679,1,,,,,,,,low,28,0,28,0,1,,,,,,,,,
297088,2022-11-25_10h22.39.382,vts_reward_expectancy_bt,2022.2.4,MacIntel,62.5,Safari,1470,956,,,,,1,785,,,,,,,,,,,,,,,,,132,B,star,1,0,,,,,,,,,,,,,,,,switch,number,numSwt,d,Lo,,,,,,0.794,1,,,,,,,,low,29,0,29,0,1,,,,,,,,,
297088,2022-11-25_10h22.39.382,vts_reward_expectancy_bt,2022.2.4,MacIntel,62.5,Safari,1470,956,,,,,0,785,,,,,,,,,,,,,,,,,181,U,triangle,0,0,,,,,,,,,,,,,,,,switch,letter,NA,j,Lo,,,,,,0.593,1,,,,,,,,low,30,0,30,0,1,,,,,,,,,
297088,2022-11-25_10h22.39.382,vts_reward_expectancy_bt,2022.2.4,MacIntel,62.5,Safari,1470,956,,,,,10,795,,,,,,,,,,,,,,,,,146,D,circle,1,1,,,,,,,,,,,,,,,,repeat,letter,lettRpt,j,Hi,,,,,,0.543,1,,,,,,,,low,31,0,31,0,1,,,,,,,,,
297088,2022-11-25_10h22.39.382,vts_reward_expectancy_bt,2022.2.4,MacIntel,62.5,Safari,1470,956,,,,,0,795,,,,,,,,,,,,,,,,,174,B,triangle,1,0,,,,,,,,,,,,,,,,repeat,letter,lettRpt,j,Hi,,,,,,0.652,2,,,,,,space,0.941,low,0,0,0,0,1,,,,,,,,,
297088,2022-11-25_10h22.39.382,vts_reward_expectancy_bt,2022.2.4,MacIntel,62.5,Safari,1470,956,,,,,1,796,,,,,,,,,,,,,,,,,146,U,star,1,0,,,,,,,,,,,,,,,,repeat,letter,lettRpt,k,Lo,,,,,,0.525,2,,,,,,,,low,1,0,1,0,1,,,,,,,,,
297088,2022-11-25_10h22.39.382,vts_reward_expectancy_bt,2022.2.4,MacIntel,62.5,Safari,1470,956,,,,,10,806,,,,,,,,,,,,,,,,,181,D,hexagon,1,0,,,,,,,,,,,,,,,,repeat,letter,lettRpt,j,Lo,,,,,,0.658,2,,,,,,,,low,2,0,2,0,1,,,,,,,,,
297088,2022-11-25_10h22.39.382,vts_reward_expectancy_bt,2022.2.4,MacIntel,62.5,Safari,1470,956,,,,,10,816,,,,,,,,,,,,,,,,,139,F,circle,1,0,,,,,,,,,,,,,,,,switch,number,numSwt,d,Hi,,,,,,0.517,2,,,,,,,,low,3,0,3,0,1,,,,,,,,,
297088,2022-11-25_10h22.39.382,vts_reward_expectancy_bt,2022.2.4,MacIntel,62.5,Safari,1470,956,,,,,0,816,,,,,,,,,,,,,,,,,160,S,triangle,1,0,,,,,,,,,,,,,,,,repeat,number,numRpt,f,Hi,,,,,,0.78,2,,,,,,,,low,4,0,4,0,1,,,,,,,,,
297088,2022-11-25_10h22.39.382,vts_reward_expectancy_bt,2022.2.4,MacIntel,62.5,Safari,1470,956,,,,,1,817,,,,,,,,,,,,,,,,,132,Y,star,1,0,,,,,,,,,,,,,,,,switch,letter,lettSwt,k,Lo,,,,,,0.477,2,,,,,,,,low,5,0,5,0,1,,,,,,,,,
297088,2022-11-25_10h22.39.382,vts_reward_expectancy_bt,2022.2.4,MacIntel,62.5,Safari,1470,956,,,,,1,818,,,,,,,,,,,,,,,,,125,H,hexagon,1,0,,,,,,,,,,,,,,,,switch,number,numSwt,d,Lo,,,,,,0.677,2,,,,,,,,low,6,0,6,0,1,,,,,,,,,
297088,2022-11-25_10h22.39.382,vts_reward_expectancy_bt,2022.2.4,MacIntel,62.5,Safari,1470,956,,,,,10,828,,,,,,,,,,,,,,,,,167,W,circle,1,0,,,,,,,,,,,,,,,,repeat,number,numRpt,f,Hi,,,,,,0.567,2,,,,,,,,low,7,0,7,0,1,,,,,,,,,
297088,2022-11-25_10h22.39.382,vts_reward_expectancy_bt,2022.2.4,MacIntel,62.5,Safari,1470,956,,,,,0,828,,,,,,,,,,,,,,,,,174,B,circle,1,0,,,,,,,,,,,,,,,,repeat,number,numRpt,f,Hi,,,,,,0.659,2,,,,,,,,low,8,0,8,0,1,,,,,,,,,
297088,2022-11-25_10h22.39.382,vts_reward_expectancy_bt,2022.2.4,MacIntel,62.5,Safari,1470,956,,,,,0,828,,,,,,,,,,,,,,,,,146,U,triangle,1,0,,,,,,,,,,,,,,,,repeat,number,numRpt,d,Hi,,,,,,0.699,2,,,,,,,,low,9,0,9,0,1,,,,,,,,,
297088,2022-11-25_10h22.39.382,vts_reward_expectancy_bt,2022.2.4,MacIntel,62.5,Safari,1470,956,,,,,1,829,,,,,,,,,,,,,,,,,181,D,hexagon,1,0,,,,,,,,,,,,,,,,switch,letter,lettSwt,j,Lo,,,,,,0.527,2,,,,,,,,low,10,0,10,0,1,,,,,,,,,
297088,2022-11-25_10h22.39.382,vts_reward_expectancy_bt,2022.2.4,MacIntel,62.5,Safari,1470,956,,,,,1,830,,,,,,,,,,,,,,,,,139,F,star,1,0,,,,,,,,,,,,,,,,repeat,letter,lettRpt,j,Lo,,,,,,0.604,2,,,,,,,,low,11,0,11,0,1,,,,,,,,,
297088,2022-11-25_10h22.39.382,vts_reward_expectancy_bt,2022.2.4,MacIntel,62.5,Safari,1470,956,,,,,10,840,,,,,,,,,,,,,,,,,160,S,hexagon,1,0,,,,,,,,,,,,,,,,switch,number,numSwt,f,Lo,,,,,,0.714,2,,,,,,,,low,12,0,12,0,1,,,,,,,,,
297088,2022-11-25_10h22.39.382,vts_reward_expectancy_bt,2022.2.4,MacIntel,62.5,Safari,1470,956,,,,,1,841,,,,,,,,,,,,,,,,,132,Y,star,1,0,,,,,,,,,,,,,,,,switch,letter,lettSwt,k,Lo,,,,,,0.582,2,,,,,,,,low,13,0,13,0,1,,,,,,,,,
297088,2022-11-25_10h22.39.382,vts_reward_expectancy_bt,2022.2.4,MacIntel,62.5,Safari,1470,956,,,,,10,851,,,,,,,,,,,,,,,,,125,H,triangle,1,0,,,,,,,,,,,,,,,,repeat,letter,lettRpt,j,Hi,,,,,,0.517,2,,,,,,,,low,14,0,14,0,1,,,,,,,,,
297088,2022-11-25_10h22.39.382,vts_reward_expectancy_bt,2022.2.4,MacIntel,62.5,Safari,1470,956,,,,,0,851,,,,,,,,,,,,,,,,,167,W,circle,1,0,,,,,,,,,,,,,,,,repeat,letter,lettRpt,k,Hi,,,,,,0.555,2,,,,,,,,low,15,0,15,0,1,,,,,,,,,
297088,2022-11-25_10h22.39.382,vts_reward_expectancy_bt,2022.2.4,MacIntel,62.5,Safari,1470,956,,,,,0,851,,,,,,,,,,,,,,,,,160,U,triangle,1,0,,,,,,,,,,,,,,,,repeat,letter,lettRpt,k,Hi,,,,,,0.793,2,,,,,,,,low,16,0,16,0,1,,,,,,,,,
297088,2022-11-25_10h22.39.382,vts_reward_expectancy_bt,2022.2.4,MacIntel,62.5,Safari,1470,956,,,,,10,861,,,,,,,,,,,,,,,,,181,H,circle,1,0,,,,,,,,,,,,,,,,repeat,letter,lettRpt,j,Hi,,,,,,0.533,2,,,,,,,,low,17,0,17,0,1,,,,,,,,,
297088,2022-11-25_10h22.39.382,vts_reward_expectancy_bt,2022.2.4,MacIntel,62.5,Safari,1470,956,,,,,1,862,,,,,,,,,,,,,,,,,146,S,hexagon,1,0,,,,,,,,,,,,,,,,switch,number,numSwt,d,Lo,,,,,,0.692,2,,,,,,,,low,18,0,18,0,1,,,,,,,,,
297088,2022-11-25_10h22.39.382,vts_reward_expectancy_bt,2022.2.4,MacIntel,62.5,Safari,1470,956,,,,,1,863,,,,,,,,,,,,,,,,,139,W,star,1,0,,,,,,,,,,,,,,,,repeat,number,numRpt,d,Lo,,,,,,0.688,2,,,,,,,,low,19,0,19,0,1,,,,,,,,,
297088,2022-11-25_10h22.39.382,vts_reward_expectancy_bt,2022.2.4,MacIntel,62.5,Safari,1470,956,,,,,10,873,,,,,,,,,,,,,,,,,174,B,hexagon,1,0,,,,,,,,,,,,,,,,repeat,number,numRpt,f,Lo,,,,,,0.693,2,,,,,,,,low,20,0,20,0,1,,,,,,,,,
297088,2022-11-25_10h22.39.382,vts_reward_expectancy_bt,2022.2.4,MacIntel,62.5,Safari,1470,956,,,,,1,874,,,,,,,,,,,,,,,,,132,D,triangle,1,0,,,,,,,,,,,,,,,,repeat,number,numRpt,d,Hi,,,,,,0.402,2,,,,,,,,low,21,0,21,0,1,,,,,,,,,
297088,2022-11-25_10h22.39.382,vts_reward_expectancy_bt,2022.2.4,MacIntel,62.5,Safari,1470,956,,,,,10,884,,,,,,,,,,,,,,,,,167,F,star,1,0,,,,,,,,,,,,,,,,repeat,number,numRpt,f,Lo,,,,,,0.561,2,,,,,,,,low,22,0,22,0,1,,,,,,,,,
297088,2022-11-25_10h22.39.382,vts_reward_expectancy_bt,2022.2.4,MacIntel,62.5,Safari,1470,956,,,,,0,884,,,,,,,,,,,,,,,,,125,Y,circle,1,0,,,,,,,,,,,,,,,,switch,letter,lettSwt,k,Hi,,,,,,0.563,2,,,,,,,,low,23,0,23,0,1,,,,,,,,,
297088,2022-11-25_10h22.39.382,vts_reward_expectancy_bt,2022.2.4,MacIntel,62.5,Safari,1470,956,,,,,1,885,,,,,,,,,,,,,,,,,181,H,star,1,0,,,,,,,,,,,,,,,,repeat,letter,lettRpt,j,Lo,,,,,,0.6,2,,,,,,,,low,24,0,24,0,1,,,,,,,,,
297088,2022-11-25_10h22.39.382,vts_reward_expectancy_bt,2022.2.4,MacIntel,62.5,Safari,1470,956,,,,,0,885,,,,,,,,,,,,,,,,,132,W,triangle,0,0,,,,,,,,,,,,,,,,repeat,letter,NA,j,Lo,,,,,,0.595,2,,,,,,,,low,25,0,25,0,1,,,,,,,,,
297088,2022-11-25_10h22.39.382,vts_reward_expectancy_bt,2022.2.4,MacIntel,62.5,Safari,1470,956,,,,,0,885,,,,,,,,,,,,,,,,,139,B,circle,1,1,,,,,,,,,,,,,,,,repeat,letter,lettRpt,j,Hi,,,,,,0.563,2,,,,,,,,low,26,0,26,0,1,,,,,,,,,
297088,2022-11-25_10h22.39.382,vts_reward_expectancy_bt,2022.2.4,MacIntel,62.5,Safari,1470,956,,,,,1,886,,,,,,,,,,,,,,,,,174,D,hexagon,1,0,,,,,,,,,,,,,,,,repeat,letter,lettRpt,j,Lo,,,,,,0.526,2,,,,,,,,low,27,0,27,0,1,,,,,,,,,
297088,2022-11-25_10h22.39.382,vts_reward_expectancy_bt,2022.2.4,MacIntel,62.5,Safari,1470,956,,,,,1,887,,,,,,,,,,,,,,,,,167,Y,star,1,0,,,,,,,,,,,,,,,,repeat,letter,lettRpt,k,Lo,,,,,,0.527,2,,,,,,,,low,28,0,28,0,1,,,,,,,,,
297088,2022-11-25_10h22.39.382,vts_reward_expectancy_bt,2022.2.4,MacIntel,62.5,Safari,1470,956,,,,,10,897,,,,,,,,,,,,,,,,,125,F,triangle,1,0,,,,,,,,,,,,,,,,repeat,letter,lettRpt,j,Hi,,,,,,0.429,2,,,,,,,,low,29,0,29,0,1,,,,,,,,,
297088,2022-11-25_10h22.39.382,vts_reward_expectancy_bt,2022.2.4,MacIntel,62.5,Safari,1470,956,,,,,10,907,,,,,,,,,,,,,,,,,146,S,circle,1,0,,,,,,,,,,,,,,,,repeat,letter,lettRpt,k,Hi,,,,,,0.528,2,,,,,,,,low,30,0,30,0,1,,,,,,,,,
297088,2022-11-25_10h22.39.382,vts_reward_expectancy_bt,2022.2.4,MacIntel,62.5,Safari,1470,956,,,,,0,907,,,,,,,,,,,,,,,,,160,U,hexagon,0,0,,,,,,,,,,,,,,,,switch,number,NA,d,Hi,,,,,,0.673,2,,,,,,,,low,31,0,31,0,1,,,,,,,,,
297088,2022-11-25_10h22.39.382,vts_reward_expectancy_bt,2022.2.4,MacIntel,62.5,Safari,1470,956,,,,,0,907,,,,,,,,,,,,,,,,,167,W,triangle,0,1,,,,,,,,,,,,,,,,repeat,number,NA,d,Hi,,,,,,0.844,3,,,,,,space,1.379,low,0,0,0,0,1,,,,,,,,,
297088,2022-11-25_10h22.39.382,vts_reward_expectancy_bt,2022.2.4,MacIntel,62.5,Safari,1470,956,,,,,10,917,,,,,,,,,,,,,,,,,174,F,hexagon,1,1,,,,,,,,,,,,,,,,repeat,number,numRpt,f,Lo,,,,,,0.547,3,,,,,,,,low,1,0,1,0,1,,,,,,,,,
297088,2022-11-25_10h22.39.382,vts_reward_expectancy_bt,2022.2.4,MacIntel,62.5,Safari,1470,956,,,,,10,927,,,,,,,,,,,,,,,,,139,D,star,1,0,,,,,,,,,,,,,,,,repeat,number,numRpt,d,Lo,,,,,,0.594,3,,,,,,,,low,2,0,2,0,1,,,,,,,,,
297088,2022-11-25_10h22.39.382,vts_reward_expectancy_bt,2022.2.4,MacIntel,62.5,Safari,1470,956,,,,,0,927,,,,,,,,,,,,,,,,,132,H,circle,1,0,,,,,,,,,,,,,,,,switch,letter,lettSwt,j,Hi,,,,,,0.83,3,,,,,,,,low,3,0,3,0,1,,,,,,,,,
297088,2022-11-25_10h22.39.382,vts_reward_expectancy_bt,2022.2.4,MacIntel,62.5,Safari,1470,956,,,,,10,937,,,,,,,,,,,,,,,,,146,S,triangle,1,0,,,,,,,,,,,,,,,,repeat,letter,lettRpt,k,Hi,,,,,,0.496,3,,,,,,,,low,4,0,4,0,1,,,,,,,,,
297088,2022-11-25_10h22.39.382,vts_reward_expectancy_bt,2022.2.4,MacIntel,62.5,Safari,1470,956,,,,,1,938,,,,,,,,,,,,,,,,,125,B,hexagon,1,0,,,,,,,,,,,,,,,,repeat,letter,lettRpt,j,Lo,,,,,,0.605,3,,,,,,,,low,5,0,5,0,1,,,,,,,,,
297088,2022-11-25_10h22.39.382,vts_reward_expectancy_bt,2022.2.4,MacIntel,62.5,Safari,1470,956,,,,,10,948,,,,,,,,,,,,,,,,,160,Y,star,1,0,,,,,,,,,,,,,,,,switch,number,numSwt,f,Lo,,,,,,0.337,3,,,,,,,,low,6,0,6,0,1,,,,,,,,,
297088,2022-11-25_10h22.39.382,vts_reward_expectancy_bt,2022.2.4,MacIntel,62.5,Safari,1470,956,,,,,10,958,,,,,,,,,,,,,,,,,181,U,circle,1,0,,,,,,,,,,,,,,,,switch,letter,lettSwt,k,Hi,,,,,,0.428,3,,,,,,,,low,7,0,7,0,1,,,,,,,,,
297088,2022-11-25_10h22.39.382,vts_reward_expectancy_bt,2022.2.4,MacIntel,62.5,Safari,1470,956,,,,,10,968,,,,,,,,,,,,,,,,,167,W,star,1,0,,,,,,,,,,,,,,,,switch,number,numSwt,f,Lo,,,,,,0.587,3,,,,,,,,low,8,0,8,0,1,,,,,,,,,
297088,2022-11-25_10h22.39.382,vts_reward_expectancy_bt,2022.2.4,MacIntel,62.5,Safari,1470,956,,,,,10,978,,,,,,,,,,,,,,,,,174,F,triangle,1,0,,,,,,,,,,,,,,,,switch,letter,lettSwt,j,Hi,,,,,,0.467,3,,,,,,,,low,9,0,9,0,1,,,,,,,,,
297088,2022-11-25_10h22.39.382,vts_reward_expectancy_bt,2022.2.4,MacIntel,62.5,Safari,1470,956,,,,,10,988,,,,,,,,,,,,,,,,,139,D,circle,1,0,,,,,,,,,,,,,,,,repeat,letter,lettRpt,j,Hi,,,,,,0.397,3,,,,,,,,low,10,0,10,0,1,,,,,,,,,
297088,2022-11-25_10h22.39.382,vts_reward_expectancy_bt,2022.2.4,MacIntel,62.5,Safari,1470,956,,,,,0,988,,,,,,,,,,,,,,,,,132,H,hexagon,0,0,,,,,,,,,,,,,,,,switch,number,NA,f,Hi,,,,,,0.586,3,,,,,,,,low,11,0,11,0,1,,,,,,,,,
297088,2022-11-25_10h22.39.382,vts_reward_expectancy_bt,2022.2.4,MacIntel,62.5,Safari,1470,956,,,,,10,998,,,,,,,,,,,,,,,,,146,S,hexagon,1,1,,,,,,,,,,,,,,,,repeat,number,numRpt,d,Lo,,,,,,0.504,3,,,,,,,,low,12,0,12,0,1,,,,,,,,,
297088,2022-11-25_10h22.39.382,vts_reward_expectancy_bt,2022.2.4,MacIntel,62.5,Safari,1470,956,,,,,0,998,,,,,,,,,,,,,,,,,125,B,triangle,0,0,,,,,,,,,,,,,,,,repeat,number,NA,f,Lo,,,,,,0.711,3,,,,,,,,low,13,0,13,0,1,,,,,,,,,
297088,2022-11-25_10h22.39.382,vts_reward_expectancy_bt,2022.2.4,MacIntel,62.5,Safari,1470,956,,,,,10,1008,,,,,,,,,,,,,,,,,160,Y,star,1,1,,,,,,,,,,,,,,,,repeat,number,numRpt,f,Lo,,,,,,0.662,3,,,,,,,,low,14,0,14,0,1,,,,,,,,,
297088,2022-11-25_10h22.39.382,vts_reward_expectancy_bt,2022.2.4,MacIntel,62.5,Safari,1470,956,,,,,0,1008,,,,,,,,,,,,,,,,,181,U,circle,1,0,,,,,,,,,,,,,,,,switch,letter,lettSwt,k,Hi,,,,,,0.809,3,,,,,,,,low,15,0,15,0,1,,,,,,,,,
297088,2022-11-25_10h22.39.382,vts_reward_expectancy_bt,2022.2.4,MacIntel,62.5,Safari,1470,956,,,,,1,1009,,,,,,,,,,,,,,,,,139,B,circle,1,0,,,,,,,,,,,,,,,,repeat,letter,lettRpt,j,Hi,,,,,,0.446,3,,,,,,,,low,16,0,16,0,1,,,,,,,,,
297088,2022-11-25_10h22.39.382,vts_reward_expectancy_bt,2022.2.4,MacIntel,62.5,Safari,1470,956,,,,,1,1010,,,,,,,,,,,,,,,,,181,W,hexagon,1,0,,,,,,,,,,,,,,,,repeat,letter,lettRpt,k,Lo,,,,,,0.547,3,,,,,,,,low,17,0,17,0,1,,,,,,,,,
297088,2022-11-25_10h22.39.382,vts_reward_expectancy_bt,2022.2.4,MacIntel,62.5,Safari,1470,956,,,,,10,1020,,,,,,,,,,,,,,,,,125,H,triangle,1,0,,,,,,,,,,,,,,,,repeat,letter,lettRpt,j,Hi,,,,,,0.461,3,,,,,,,,low,18,0,18,0,1,,,,,,,,,
297088,2022-11-25_10h22.39.382,vts_reward_expectancy_bt,2022.2.4,MacIntel,62.5,Safari,1470,956,,,,,1,1021,,,,,,,,,,,,,,,,,132,U,star,1,0,,,,,,,,,,,,,,,,switch,number,numSwt,d,Lo,,,,,,0.509,3,,,,,,,,low,19,0,19,0,1,,,,,,,,,
297088,2022-11-25_10h22.39.382,vts_reward_expectancy_bt,2022.2.4,MacIntel,62.5,Safari,1470,956,,,,,1,1022,,,,,,,,,,,,,,,,,167,S,triangle,1,0,,,,,,,,,,,,,,,,switch,letter,lettSwt,k,Hi,,,,,,0.496,3,,,,,,,,low,20,0,20,0,1,,,,,,,,,
297088,2022-11-25_10h22.39.382,vts_reward_expectancy_bt,2022.2.4,MacIntel,62.5,Safari,1470,956,,,,,10,1032,,,,,,,,,,,,,,,,,160,Y,circle,1,0,,,,,,,,,,,,,,,,switch,number,numSwt,f,Hi,,,,,,0.529,3,,,,,,,,low,21,0,21,0,1,,,,,,,,,
297088,2022-11-25_10h22.39.382,vts_reward_expectancy_bt,2022.2.4,MacIntel,62.5,Safari,1470,956,,,,,10,1042,,,,,,,,,,,,,,,,,174,D,star,1,0,,,,,,,,,,,,,,,,repeat,number,numRpt,f,Lo,,,,,,0.673,3,,,,,,,,low,22,0,22,0,1,,,,,,,,,
297088,2022-11-25_10h22.39.382,vts_reward_expectancy_bt,2022.2.4,MacIntel,62.5,Safari,1470,956,,,,,1,1043,,,,,,,,,,,,,,,,,146,F,hexagon,1,0,,,,,,,,,,,,,,,,repeat,number,numRpt,d,Lo,,,,,,0.526,3,,,,,,,,low,23,0,23,0,1,,,,,,,,,
297088,2022-11-25_10h22.39.382,vts_reward_expectancy_bt,2022.2.4,MacIntel,62.5,Safari,1470,956,,,,,1,1044,,,,,,,,,,,,,,,,,174,B,hexagon,1,0,,,,,,,,,,,,,,,,switch,letter,lettSwt,j,Lo,,,,,,0.436,3,,,,,,,,low,24,0,24,0,1,,,,,,,,,
297088,2022-11-25_10h22.39.382,vts_reward_expectancy_bt,2022.2.4,MacIntel,62.5,Safari,1470,956,,,,,1,1045,,,,,,,,,,,,,,,,,160,W,circle,1,0,,,,,,,,,,,,,,,,repeat,letter,lettRpt,k,Hi,,,,,,0.492,3,,,,,,,,low,25,0,25,0,1,,,,,,,,,
297088,2022-11-25_10h22.39.382,vts_reward_expectancy_bt,2022.2.4,MacIntel,62.5,Safari,1470,956,,,,,0,1045,,,,,,,,,,,,,,,,,132,U,triangle,0,0,,,,,,,,,,,,,,,,switch,number,NA,f,Hi,,,,,,0.627,3,,,,,,,,low,26,0,26,0,1,,,,,,,,,
297088,2022-11-25_10h22.39.382,vts_reward_expectancy_bt,2022.2.4,MacIntel,62.5,Safari,1470,956,,,,,10,1055,,,,,,,,,,,,,,,,,146,S,star,1,1,,,,,,,,,,,,,,,,repeat,number,numRpt,d,Lo,,,,,,0.516,3,,,,,,,,low,27,0,27,0,1,,,,,,,,,
297088,2022-11-25_10h22.39.382,vts_reward_expectancy_bt,2022.2.4,MacIntel,62.5,Safari,1470,956,,,,,1,1056,,,,,,,,,,,,,,,,,181,H,circle,1,0,,,,,,,,,,,,,,,,repeat,number,numRpt,f,Hi,,,,,,0.472,3,,,,,,,,low,28,0,28,0,1,,,,,,,,,
297088,2022-11-25_10h22.39.382,vts_reward_expectancy_bt,2022.2.4,MacIntel,62.5,Safari,1470,956,,,,,10,1066,,,,,,,,,,,,,,,,,125,F,hexagon,1,0,,,,,,,,,,,,,,,,repeat,number,numRpt,d,Lo,,,,,,0.669,3,,,,,,,,low,29,0,29,0,1,,,,,,,,,
297088,2022-11-25_10h22.39.382,vts_reward_expectancy_bt,2022.2.4,MacIntel,62.5,Safari,1470,956,,,,,1,1067,,,,,,,,,,,,,,,,,167,D,star,1,0,,,,,,,,,,,,,,,,switch,letter,lettSwt,j,Lo,,,,,,0.396,3,,,,,,,,low,30,0,30,0,1,,,,,,,,,
297088,2022-11-25_10h22.39.382,vts_reward_expectancy_bt,2022.2.4,MacIntel,62.5,Safari,1470,956,,,,,1,1068,,,,,,,,,,,,,,,,,139,Y,triangle,1,0,,,,,,,,,,,,,,,,switch,number,numSwt,d,Hi,,,,,,0.51,3,,,,,,,,low,31,0,31,0,1,,,,,,,,,
297088,2022-11-25_10h22.39.382,vts_reward_expectancy_bt,2022.2.4,MacIntel,62.5,Safari,1470,956,,,,,0,1068,,,,,,,,,,,,,,,,,139,S,star,0,0,,,,,,,,,,,,,,,,switch,letter,NA,j,Hi,,,,,,0.665,4,,,,,,space,0.937,low,0,0,0,0,1,,,,,,,,,
297088,2022-11-25_10h22.39.382,vts_reward_expectancy_bt,2022.2.4,MacIntel,62.5,Safari,1470,956,,,,,0,1068,,,,,,,,,,,,,,,,,125,W,circle,0,1,,,,,,,,,,,,,,,,switch,number,NA,f,Hi,,,,,,0.785,4,,,,,,,,low,1,0,1,0,1,,,,,,,,,
297088,2022-11-25_10h22.39.382,vts_reward_expectancy_bt,2022.2.4,MacIntel,62.5,Safari,1470,956,,,,,1,1069,,,,,,,,,,,,,,,,,174,F,hexagon,1,1,,,,,,,,,,,,,,,,repeat,number,numRpt,f,Lo,,,,,,0.899,4,,,,,,,,low,2,0,2,0,1,,,,,,,,,
297088,2022-11-25_10h22.39.382,vts_reward_expectancy_bt,2022.2.4,MacIntel,62.5,Safari,1470,956,,,,,10,1079,,,,,,,,,,,,,,,,,132,B,triangle,1,0,,,,,,,,,,,,,,,,switch,letter,lettSwt,j,Hi,,,,,,0.39,4,,,,,,,,low,3,0,3,0,1,,,,,,,,,
297088,2022-11-25_10h22.39.382,vts_reward_expectancy_bt,2022.2.4,MacIntel,62.5,Safari,1470,956,,,,,0,1079,,,,,,,,,,,,,,,,,160,U,star,0,0,,,,,,,,,,,,,,,,repeat,letter,NA,j,Hi,,,,,,0.492,4,,,,,,,,low,4,0,4,0,1,,,,,,,,,
297088,2022-11-25_10h22.39.382,vts_reward_expectancy_bt,2022.2.4,MacIntel,62.5,Safari,1470,956,,,,,0,1079,,,,,,,,,,,,,,,,,181,Y,circle,1,1,,,,,,,,,,,,,,,,repeat,letter,lettRpt,k,Hi,,,,,,0.692,4,,,,,,,,low,5,0,5,0,1,,,,,,,,,
297088,2022-11-25_10h22.39.382,vts_reward_expectancy_bt,2022.2.4,MacIntel,62.5,Safari,1470,956,,,,,1,1080,,,,,,,,,,,,,,,,,167,D,hexagon,1,0,,,,,,,,,,,,,,,,repeat,letter,lettRpt,j,Lo,,,,,,0.49,4,,,,,,,,low,6,0,6,0,1,,,,,,,,,
297088,2022-11-25_10h22.39.382,vts_reward_expectancy_bt,2022.2.4,MacIntel,62.5,Safari,1470,956,,,,,0,1080,,,,,,,,,,,,,,,,,146,H,triangle,1,0,,,,,,,,,,,,,,,,repeat,letter,lettRpt,j,Hi,,,,,,0.561,4,,,,,,,,low,7,0,7,0,1,,,,,,,,,
297088,2022-11-25_10h22.39.382,vts_reward_expectancy_bt,2022.2.4,MacIntel,62.5,Safari,1470,956,,,,,0,1080,,,,,,,,,,,,,,,,,139,S,triangle,1,0,,,,,,,,,,,,,,,,repeat,letter,lettRpt,k,Hi,,,,,,0.464,4,,,,,,,,low,8,0,8,0,1,,,,,,,,,
297088,2022-11-25_10h22.39.382,vts_reward_expectancy_bt,2022.2.4,MacIntel,62.5,Safari,1470,956,,,,,0,1080,,,,,,,,,,,,,,,,,125,W,circle,1,0,,,,,,,,,,,,,,,,repeat,letter,lettRpt,k,Hi,,,,,,0.529,4,,,,,,,,low,9,0,9,0,1,,,,,,,,,
297088,2022-11-25_10h22.39.382,vts_reward_expectancy_bt,2022.2.4,MacIntel,62.5,Safari,1470,956,,,,,0,1080,,,,,,,,,,,,,,,,,174,F,star,0,0,,,,,,,,,,,,,,,,repeat,letter,NA,k,Hi,,,,,,0.445,4,,,,,,,,low,10,0,10,0,1,,,,,,,,,
297088,2022-11-25_10h22.39.382,vts_reward_expectancy_bt,2022.2.4,MacIntel,62.5,Safari,1470,956,,,,,1,1081,,,,,,,,,,,,,,,,,132,B,hexagon,1,1,,,,,,,,,,,,,,,,repeat,letter,lettRpt,j,Lo,,,,,,0.379,4,,,,,,,,low,11,0,11,0,1,,,,,,,,,
297088,2022-11-25_10h22.39.382,vts_reward_expectancy_bt,2022.2.4,MacIntel,62.5,Safari,1470,956,,,,,0,1081,,,,,,,,,,,,,,,,,160,U,circle,0,0,,,,,,,,,,,,,,,,switch,number,NA,d,Lo,,,,,,0.445,4,,,,,,,,low,12,0,12,0,1,,,,,,,,,
297088,2022-11-25_10h22.39.382,vts_reward_expectancy_bt,2022.2.4,MacIntel,62.5,Safari,1470,956,,,,,1,1082,,,,,,,,,,,,,,,,,181,Y,star,1,1,,,,,,,,,,,,,,,,repeat,number,numRpt,f,Lo,,,,,,0.501,4,,,,,,,,low,13,0,13,0,1,,,,,,,,,
297088,2022-11-25_10h22.39.382,vts_reward_expectancy_bt,2022.2.4,MacIntel,62.5,Safari,1470,956,,,,,1,1083,,,,,,,,,,,,,,,,,167,D,triangle,1,0,,,,,,,,,,,,,,,,repeat,number,numRpt,f,Hi,,,,,,0.461,4,,,,,,,,low,14,0,14,0,1,,,,,,,,,
297088,2022-11-25_10h22.39.382,vts_reward_expectancy_bt,2022.2.4,MacIntel,62.5,Safari,1470,956,,,,,0,1083,,,,,,,,,,,,,,,,,146,H,hexagon,0,0,,,,,,,,,,,,,,,,repeat,number,NA,f,Hi,,,,,,0.496,4,,,,,,,,low,15,0,15,0,1,,,,,,,,,
297088,2022-11-25_10h22.39.382,vts_reward_expectancy_bt,2022.2.4,MacIntel,62.5,Safari,1470,956,,,,,0,1083,,,,,,,,,,,,,,,,,174,U,circle,1,1,,,,,,,,,,,,,,,,repeat,number,numRpt,f,Hi,,,,,,0.727,4,,,,,,,,low,16,0,16,0,1,,,,,,,,,
297088,2022-11-25_10h22.39.382,vts_reward_expectancy_bt,2022.2.4,MacIntel,62.5,Safari,1470,956,,,,,0,1083,,,,,,,,,,,,,,,,,146,W,star,0,0,,,,,,,,,,,,,,,,repeat,number,NA,f,Hi,,,,,,0.569,4,,,,,,,,low,17,0,17,0,1,,,,,,,,,
297088,2022-11-25_10h22.39.382,vts_reward_expectancy_bt,2022.2.4,MacIntel,62.5,Safari,1470,956,,,,,0,1083,,,,,,,,,,,,,,,,,181,F,hexagon,0,1,,,,,,,,,,,,,,,,repeat,number,NA,d,Hi,,,,,,0.329,4,,,,,,,,low,18,0,18,0,1,,,,,,,,,
297088,2022-11-25_10h22.39.382,vts_reward_expectancy_bt,2022.2.4,MacIntel,62.5,Safari,1470,956,,,,,10,1093,,,,,,,,,,,,,,,,,139,B,triangle,1,1,,,,,,,,,,,,,,,,switch,letter,lettSwt,j,Hi,,,,,,0.376,4,,,,,,,,low,19,0,19,0,1,,,,,,,,,
297088,2022-11-25_10h22.39.382,vts_reward_expectancy_bt,2022.2.4,MacIntel,62.5,Safari,1470,956,,,,,0,1093,,,,,,,,,,,,,,,,,167,S,triangle,0,0,,,,,,,,,,,,,,,,repeat,letter,NA,j,Hi,,,,,,0.421,4,,,,,,,,low,20,0,20,0,1,,,,,,,,,
297088,2022-11-25_10h22.39.382,vts_reward_expectancy_bt,2022.2.4,MacIntel,62.5,Safari,1470,956,,,,,0,1093,,,,,,,,,,,,,,,,,132,Y,circle,1,1,,,,,,,,,,,,,,,,repeat,letter,lettRpt,k,Hi,,,,,,0.541,4,,,,,,,,low,21,0,21,0,1,,,,,,,,,
297088,2022-11-25_10h22.39.382,vts_reward_expectancy_bt,2022.2.4,MacIntel,62.5,Safari,1470,956,,,,,1,1094,,,,,,,,,,,,,,,,,125,D,star,1,0,,,,,,,,,,,,,,,,repeat,letter,lettRpt,j,Lo,,,,,,0.496,4,,,,,,,,low,22,0,22,0,1,,,,,,,,,
297088,2022-11-25_10h22.39.382,vts_reward_expectancy_bt,2022.2.4,MacIntel,62.5,Safari,1470,956,,,,,10,1104,,,,,,,,,,,,,,,,,160,H,hexagon,1,0,,,,,,,,,,,,,,,,switch,number,numSwt,f,Lo,,,,,,0.541,4,,,,,,,,low,23,0,23,0,1,,,,,,,,,
297088,2022-11-25_10h22.39.382,vts_reward_expectancy_bt,2022.2.4,MacIntel,62.5,Safari,1470,956,,,,,1,1105,,,,,,,,,,,,,,,,,139,S,star,1,0,,,,,,,,,,,,,,,,repeat,number,numRpt,d,Lo,,,,,,0.566,4,,,,,,,,low,24,0,24,0,1,,,,,,,,,
297088,2022-11-25_10h22.39.382,vts_reward_expectancy_bt,2022.2.4,MacIntel,62.5,Safari,1470,956,,,,,0,1105,,,,,,,,,,,,,,,,,146,W,circle,1,0,,,,,,,,,,,,,,,,switch,letter,lettSwt,k,Hi,,,,,,0.536,4,,,,,,,,low,25,0,25,0,1,,,,,,,,,
297088,2022-11-25_10h22.39.382,vts_reward_expectancy_bt,2022.2.4,MacIntel,62.5,Safari,1470,956,,,,,0,1105,,,,,,,,,,,,,,,,,160,Y,triangle,1,0,,,,,,,,,,,,,,,,repeat,letter,lettRpt,k,Hi,,,,,,0.545,4,,,,,,,,low,26,0,26,0,1,,,,,,,,,
297088,2022-11-25_10h22.39.382,vts_reward_expectancy_bt,2022.2.4,MacIntel,62.5,Safari,1470,956,,,,,1,1106,,,,,,,,,,,,,,,,,174,F,hexagon,1,0,,,,,,,,,,,,,,,,repeat,letter,lettRpt,j,Lo,,,,,,0.498,4,,,,,,,,low,27,0,27,0,1,,,,,,,,,
297088,2022-11-25_10h22.39.382,vts_reward_expectancy_bt,2022.2.4,MacIntel,62.5,Safari,1470,956,,,,,1,1107,,,,,,,,,,,,,,,,,125,U,star,1,0,,,,,,,,,,,,,,,,repeat,letter,lettRpt,k,Lo,,,,,,0.509,4,,,,,,,,low,28,0,28,0,1,,,,,,,,,
297088,2022-11-25_10h22.39.382,vts_reward_expectancy_bt,2022.2.4,MacIntel,62.5,Safari,1470,956,,,,,0,1107,,,,,,,,,,,,,,,,,132,D,triangle,1,0,,,,,,,,,,,,,,,,switch,number,numSwt,d,Hi,,,,,,0.556,4,,,,,,,,low,29,0,29,0,1,,,,,,,,,
297088,2022-11-25_10h22.39.382,vts_reward_expectancy_bt,2022.2.4,MacIntel,62.5,Safari,1470,956,,,,,1,1108,,,,,,,,,,,,,,,,,181,B,hexagon,1,0,,,,,,,,,,,,,,,,repeat,number,numRpt,f,Lo,,,,,,0.525,4,,,,,,,,low,30,0,30,0,1,,,,,,,,,
297088,2022-11-25_10h22.39.382,vts_reward_expectancy_bt,2022.2.4,MacIntel,62.5,Safari,1470,956,,,,,0,1108,,,,,,,,,,,,,,,,,167,H,circle,1,0,,,,,,,,,,,,,,,,repeat,number,numRpt,f,Hi,,,,,,0.528,4,,,,,,,,low,31,0,31,0,1,,,,,,,,,
297088,2022-11-25_10h22.39.382,vts_reward_expectancy_bt,2022.2.4,MacIntel,62.5,Safari,1470,956,,,,,0,1108,,,,,,,,,,,,,,,,,174,B,triangle,1,0,,,,,,,,,,,,,,,,switch,letter,lettSwt,j,Hi,,,,,,0.421,5,,,,,,space,4.444,low,0,0,0,0,1,,,,,,,,,
297088,2022-11-25_10h22.39.382,vts_reward_expectancy_bt,2022.2.4,MacIntel,62.5,Safari,1470,956,,,,,1,1109,,,,,,,,,,,,,,,,,160,W,hexagon,1,0,,,,,,,,,,,,,,,,repeat,letter,lettRpt,k,Lo,,,,,,0.439,5,,,,,,,,low,1,0,1,0,1,,,,,,,,,
297088,2022-11-25_10h22.39.382,vts_reward_expectancy_bt,2022.2.4,MacIntel,62.5,Safari,1470,956,,,,,1,1110,,,,,,,,,,,,,,,,,146,D,circle,1,0,,,,,,,,,,,,,,,,repeat,letter,lettRpt,j,Hi,,,,,,0.361,5,,,,,,,,low,2,0,2,0,1,,,,,,,,,
297088,2022-11-25_10h22.39.382,vts_reward_expectancy_bt,2022.2.4,MacIntel,62.5,Safari,1470,956,,,,,1,1111,,,,,,,,,,,,,,,,,139,Y,star,1,0,,,,,,,,,,,,,,,,switch,number,numSwt,d,Lo,,,,,,0.471,5,,,,,,,,low,3,0,3,0,1,,,,,,,,,
297088,2022-11-25_10h22.39.382,vts_reward_expectancy_bt,2022.2.4,MacIntel,62.5,Safari,1470,956,,,,,1,1112,,,,,,,,,,,,,,,,,181,S,triangle,1,0,,,,,,,,,,,,,,,,repeat,number,numRpt,f,Hi,,,,,,0.416,5,,,,,,,,low,4,0,4,0,1,,,,,,,,,
297088,2022-11-25_10h22.39.382,vts_reward_expectancy_bt,2022.2.4,MacIntel,62.5,Safari,1470,956,,,,,0,1112,,,,,,,,,,,,,,,,,125,F,hexagon,0,0,,,,,,,,,,,,,,,,repeat,number,NA,f,Hi,,,,,,0.507,5,,,,,,,,low,5,0,5,0,1,,,,,,,,,
297088,2022-11-25_10h22.39.382,vts_reward_expectancy_bt,2022.2.4,MacIntel,62.5,Safari,1470,956,,,,,0,1112,,,,,,,,,,,,,,,,,132,U,circle,1,1,,,,,,,,,,,,,,,,switch,letter,lettSwt,k,Hi,,,,,,0.476,5,,,,,,,,low,6,0,6,0,1,,,,,,,,,
297088,2022-11-25_10h22.39.382,vts_reward_expectancy_bt,2022.2.4,MacIntel,62.5,Safari,1470,956,,,,,10,1122,,,,,,,,,,,,,,,,,167,H,star,1,0,,,,,,,,,,,,,,,,repeat,letter,lettRpt,j,Lo,,,,,,0.485,5,,,,,,,,low,7,0,7,0,1,,,,,,,,,
297088,2022-11-25_10h22.39.382,vts_reward_expectancy_bt,2022.2.4,MacIntel,62.5,Safari,1470,956,,,,,10,1132,,,,,,,,,,,,,,,,,174,B,circle,1,0,,,,,,,,,,,,,,,,repeat,letter,lettRpt,j,Hi,,,,,,0.444,5,,,,,,,,low,8,0,8,0,1,,,,,,,,,
297088,2022-11-25_10h22.39.382,vts_reward_expectancy_bt,2022.2.4,MacIntel,62.5,Safari,1470,956,,,,,1,1133,,,,,,,,,,,,,,,,,160,W,star,1,0,,,,,,,,,,,,,,,,repeat,letter,lettRpt,k,Lo,,,,,,0.528,5,,,,,,,,low,9,0,9,0,1,,,,,,,,,
297088,2022-11-25_10h22.39.382,vts_reward_expectancy_bt,2022.2.4,MacIntel,62.5,Safari,1470,956,,,,,10,1143,,,,,,,,,,,,,,,,,146,D,triangle,1,0,,,,,,,,,,,,,,,,switch,number,numSwt,d,Hi,,,,,,0.474,5,,,,,,,,low,10,0,10,0,1,,,,,,,,,
297088,2022-11-25_10h22.39.382,vts_reward_expectancy_bt,2022.2.4,MacIntel,62.5,Safari,1470,956,,,,,1,1144,,,,,,,,,,,,,,,,,139,Y,hexagon,1,0,,,,,,,,,,,,,,,,repeat,number,numRpt,d,Lo,,,,,,0.468,5,,,,,,,,low,11,0,11,0,1,,,,,,,,,
297088,2022-11-25_10h22.39.382,vts_reward_expectancy_bt,2022.2.4,MacIntel,62.5,Safari,1470,956,,,,,10,1154,,,,,,,,,,,,,,,,,181,S,star,1,0,,,,,,,,,,,,,,,,switch,letter,lettSwt,k,Lo,,,,,,0.38,5,,,,,,,,low,12,0,12,0,1,,,,,,,,,
297088,2022-11-25_10h22.39.382,vts_reward_expectancy_bt,2022.2.4,MacIntel,62.5,Safari,1470,956,,,,,0,1154,,,,,,,,,,,,,,,,,125,F,triangle,0,0,,,,,,,,,,,,,,,,repeat,letter,NA,k,Lo,,,,,,0.377,5,,,,,,,,low,13,0,13,0,1,,,,,,,,,
297088,2022-11-25_10h22.39.382,vts_reward_expectancy_bt,2022.2.4,MacIntel,62.5,Safari,1470,956,,,,,0,1154,,,,,,,,,,,,,,,,,132,U,circle,1,1,,,,,,,,,,,,,,,,repeat,letter,lettRpt,k,Hi,,,,,,0.542,5,,,,,,,,low,14,0,14,0,1,,,,,,,,,
297088,2022-11-25_10h22.39.382,vts_reward_expectancy_bt,2022.2.4,MacIntel,62.5,Safari,1470,956,,,,,0,1154,,,,,,,,,,,,,,,,,167,H,hexagon,0,0,,,,,,,,,,,,,,,,switch,number,NA,d,Hi,,,,,,0.749,5,,,,,,,,low,15,0,15,0,1,,,,,,,,,
297088,2022-11-25_10h22.39.382,vts_reward_expectancy_bt,2022.2.4,MacIntel,62.5,Safari,1470,956,,,,,10,1164,,,,,,,,,,,,,,,,,139,F,triangle,1,1,,,,,,,,,,,,,,,,repeat,number,numRpt,d,Hi,,,,,,0.494,5,,,,,,,,low,16,0,16,0,1,,,,,,,,,
297088,2022-11-25_10h22.39.382,vts_reward_expectancy_bt,2022.2.4,MacIntel,62.5,Safari,1470,956,,,,,1,1165,,,,,,,,,,,,,,,,,132,B,hexagon,1,0,,,,,,,,,,,,,,,,switch,letter,lettSwt,j,Lo,,,,,,0.447,5,,,,,,,,low,17,0,17,0,1,,,,,,,,,
297088,2022-11-25_10h22.39.382,vts_reward_expectancy_bt,2022.2.4,MacIntel,62.5,Safari,1470,956,,,,,10,1175,,,,,,,,,,,,,,,,,146,W,circle,1,0,,,,,,,,,,,,,,,,repeat,letter,lettRpt,k,Hi,,,,,,0.495,5,,,,,,,,low,18,0,18,0,1,,,,,,,,,
297088,2022-11-25_10h22.39.382,vts_reward_expectancy_bt,2022.2.4,MacIntel,62.5,Safari,1470,956,,,,,0,1175,,,,,,,,,,,,,,,,,125,U,star,0,0,,,,,,,,,,,,,,,,switch,number,NA,f,Hi,,,,,,0.59,5,,,,,,,,low,19,0,19,0,1,,,,,,,,,
297088,2022-11-25_10h22.39.382,vts_reward_expectancy_bt,2022.2.4,MacIntel,62.5,Safari,1470,956,,,,,10,1185,,,,,,,,,,,,,,,,,174,H,hexagon,1,1,,,,,,,,,,,,,,,,repeat,number,numRpt,f,Lo,,,,,,0.545,5,,,,,,,,low,20,0,20,0,1,,,,,,,,,
297088,2022-11-25_10h22.39.382,vts_reward_expectancy_bt,2022.2.4,MacIntel,62.5,Safari,1470,956,,,,,1,1186,,,,,,,,,,,,,,,,,181,S,circle,1,0,,,,,,,,,,,,,,,,repeat,number,numRpt,f,Hi,,,,,,0.457,5,,,,,,,,low,21,0,21,0,1,,,,,,,,,
297088,2022-11-25_10h22.39.382,vts_reward_expectancy_bt,2022.2.4,MacIntel,62.5,Safari,1470,956,,,,,0,1186,,,,,,,,,,,,,,,,,167,D,triangle,1,0,,,,,,,,,,,,,,,,switch,letter,lettSwt,j,Hi,,,,,,0.459,5,,,,,,,,low,22,0,22,0,1,,,,,,,,,
297088,2022-11-25_10h22.39.382,vts_reward_expectancy_bt,2022.2.4,MacIntel,62.5,Safari,1470,956,,,,,1,1187,,,,,,,,,,,,,,,,,160,Y,star,1,0,,,,,,,,,,,,,,,,repeat,letter,lettRpt,k,Lo,,,,,,0.611,5,,,,,,,,low,23,0,23,0,1,,,,,,,,,
297088,2022-11-25_10h22.39.382,vts_reward_expectancy_bt,2022.2.4,MacIntel,62.5,Safari,1470,956,,,,,10,1197,,,,,,,,,,,,,,,,,160,S,star,1,0,,,,,,,,,,,,,,,,repeat,letter,lettRpt,k,Lo,,,,,,0.588,5,,,,,,,,low,24,0,24,0,1,,,,,,,,,
297088,2022-11-25_10h22.39.382,vts_reward_expectancy_bt,2022.2.4,MacIntel,62.5,Safari,1470,956,,,,,1,1198,,,,,,,,,,,,,,,,,125,F,hexagon,1,0,,,,,,,,,,,,,,,,switch,number,numSwt,d,Lo,,,,,,0.335,5,,,,,,,,low,25,0,25,0,1,,,,,,,,,
297088,2022-11-25_10h22.39.382,vts_reward_expectancy_bt,2022.2.4,MacIntel,62.5,Safari,1470,956,,,,,0,1198,,,,,,,,,,,,,,,,,132,H,triangle,1,0,,,,,,,,,,,,,,,,repeat,number,numRpt,d,Hi,,,,,,0.544,5,,,,,,,,low,26,0,26,0,1,,,,,,,,,
297088,2022-11-25_10h22.39.382,vts_reward_expectancy_bt,2022.2.4,MacIntel,62.5,Safari,1470,956,,,,,0,1198,,,,,,,,,,,,,,,,,167,Y,circle,1,0,,,,,,,,,,,,,,,,repeat,number,numRpt,f,Hi,,,,,,0.544,5,,,,,,,,low,27,0,27,0,1,,,,,,,,,
297088,2022-11-25_10h22.39.382,vts_reward_expectancy_bt,2022.2.4,MacIntel,62.5,Safari,1470,956,,,,,1,1199,,,,,,,,,,,,,,,,,174,D,star,1,0,,,,,,,,,,,,,,,,repeat,number,numRpt,f,Lo,,,,,,0.465,5,,,,,,,,low,28,0,28,0,1,,,,,,,,,
297088,2022-11-25_10h22.39.382,vts_reward_expectancy_bt,2022.2.4,MacIntel,62.5,Safari,1470,956,,,,,0,1199,,,,,,,,,,,,,,,,,181,B,hexagon,0,0,,,,,,,,,,,,,,,,repeat,number,NA,d,Lo,,,,,,0.495,5,,,,,,,,low,29,0,29,0,1,,,,,,,,,
297088,2022-11-25_10h22.39.382,vts_reward_expectancy_bt,2022.2.4,MacIntel,62.5,Safari,1470,956,,,,,0,1199,,,,,,,,,,,,,,,,,139,W,triangle,1,1,,,,,,,,,,,,,,,,switch,letter,lettSwt,k,Hi,,,,,,0.481,5,,,,,,,,low,30,0,30,0,1,,,,,,,,,
297088,2022-11-25_10h22.39.382,vts_reward_expectancy_bt,2022.2.4,MacIntel,62.5,Safari,1470,956,,,,,1,1200,,,,,,,,,,,,,,,,,146,U,circle,1,0,,,,,,,,,,,,,,,,repeat,letter,lettRpt,k,Hi,,,,,,0.474,5,,,,,,,,low,31,0,31,0,1,,,,,,,,,
297088,2022-11-25_10h22.39.382,vts_reward_expectancy_bt,2022.2.4,MacIntel,62.5,Safari,1470,956,,,,,0,1200,,,,,,,,,,,,,,,,,125,F,triangle,1,0,,,,,,,,,,,,,,,,repeat,letter,lettRpt,j,Hi,,,,,,0.544,6,,,,,,space,10.564,low,0,0,0,0,1,,,,,,,,,
297088,2022-11-25_10h22.39.382,vts_reward_expectancy_bt,2022.2.4,MacIntel,62.5,Safari,1470,956,,,,,1,1201,,,,,,,,,,,,,,,,,174,Y,circle,1,0,,,,,,,,,,,,,,,,repeat,letter,lettRpt,k,Hi,,,,,,0.471,6,,,,,,,,low,1,0,1,0,1,,,,,,,,,
297088,2022-11-25_10h22.39.382,vts_reward_expectancy_bt,2022.2.4,MacIntel,62.5,Safari,1470,956,,,,,0,1201,,,,,,,,,,,,,,,,,146,U,star,0,0,,,,,,,,,,,,,,,,repeat,letter,NA,j,Hi,,,,,,0.395,6,,,,,,,,low,2,0,2,0,1,,,,,,,,,
297088,2022-11-25_10h22.39.382,vts_reward_expectancy_bt,2022.2.4,MacIntel,62.5,Safari,1470,956,,,,,10,1211,,,,,,,,,,,,,,,,,160,B,hexagon,1,1,,,,,,,,,,,,,,,,switch,number,numSwt,f,Lo,,,,,,0.731,6,,,,,,,,low,3,0,3,0,1,,,,,,,,,
297088,2022-11-25_10h22.39.382,vts_reward_expectancy_bt,2022.2.4,MacIntel,62.5,Safari,1470,956,,,,,0,1211,,,,,,,,,,,,,,,,,181,W,triangle,1,0,,,,,,,,,,,,,,,,repeat,number,numRpt,f,Hi,,,,,,0.494,6,,,,,,,,low,4,0,4,0,1,,,,,,,,,
297088,2022-11-25_10h22.39.382,vts_reward_expectancy_bt,2022.2.4,MacIntel,62.5,Safari,1470,956,,,,,0,1211,,,,,,,,,,,,,,,,,132,D,circle,1,0,,,,,,,,,,,,,,,,repeat,number,numRpt,d,Hi,,,,,,0.548,6,,,,,,,,low,5,0,5,0,1,,,,,,,,,
297088,2022-11-25_10h22.39.382,vts_reward_expectancy_bt,2022.2.4,MacIntel,62.5,Safari,1470,956,,,,,0,1211,,,,,,,,,,,,,,,,,167,S,star,0,0,,,,,,,,,,,,,,,,repeat,number,NA,d,Hi,,,,,,0.588,6,,,,,,,,low,6,0,6,0,1,,,,,,,,,
297088,2022-11-25_10h22.39.382,vts_reward_expectancy_bt,2022.2.4,MacIntel,62.5,Safari,1470,956,,,,,0,1211,,,,,,,,,,,,,,,,,139,H,hexagon,0,1,,,,,,,,,,,,,,,,switch,letter,NA,k,Hi,,,,,,0.426,6,,,,,,,,low,7,0,7,0,1,,,,,,,,,
297088,2022-11-25_10h22.39.382,vts_reward_expectancy_bt,2022.2.4,MacIntel,62.5,Safari,1470,956,,,,,10,1221,,,,,,,,,,,,,,,,,125,F,hexagon,1,1,,,,,,,,,,,,,,,,repeat,letter,lettRpt,j,Lo,,,,,,0.439,6,,,,,,,,low,8,0,8,0,1,,,,,,,,,
297088,2022-11-25_10h22.39.382,vts_reward_expectancy_bt,2022.2.4,MacIntel,62.5,Safari,1470,956,,,,,10,1231,,,,,,,,,,,,,,,,,174,Y,star,1,0,,,,,,,,,,,,,,,,repeat,letter,lettRpt,k,Lo,,,,,,0.541,6,,,,,,,,low,9,0,9,0,1,,,,,,,,,
297088,2022-11-25_10h22.39.382,vts_reward_expectancy_bt,2022.2.4,MacIntel,62.5,Safari,1470,956,,,,,0,1231,,,,,,,,,,,,,,,,,146,U,triangle,1,0,,,,,,,,,,,,,,,,switch,number,numSwt,d,Hi,,,,,,1.177,6,,,,,,,,low,10,0,10,0,1,,,,,,,,,
297088,2022-11-25_10h22.39.382,vts_reward_expectancy_bt,2022.2.4,MacIntel,62.5,Safari,1470,956,,,,,0,1231,,,,,,,,,,,,,,,,,160,B,circle,0,0,,,,,,,,,,,,,,,,repeat,number,NA,d,Hi,,,,,,0.649,6,,,,,,,,low,11,0,11,0,1,,,,,,,,,
297088,2022-11-25_10h22.39.382,vts_reward_expectancy_bt,2022.2.4,MacIntel,62.5,Safari,1470,956,,,,,10,1241,,,,,,,,,,,,,,,,,181,W,star,1,1,,,,,,,,,,,,,,,,repeat,number,numRpt,f,Lo,,,,,,0.472,6,,,,,,,,low,12,0,12,0,1,,,,,,,,,
297088,2022-11-25_10h22.39.382,vts_reward_expectancy_bt,2022.2.4,MacIntel,62.5,Safari,1470,956,,,,,0,1241,,,,,,,,,,,,,,,,,132,D,triangle,1,0,,,,,,,,,,,,,,,,repeat,number,numRpt,d,Hi,,,,,,0.566,6,,,,,,,,low,13,0,13,0,1,,,,,,,,,
297088,2022-11-25_10h22.39.382,vts_reward_expectancy_bt,2022.2.4,MacIntel,62.5,Safari,1470,956,,,,,10,1251,,,,,,,,,,,,,,,,,167,S,hexagon,1,0,,,,,,,,,,,,,,,,switch,letter,lettSwt,k,Lo,,,,,,0.596,6,,,,,,,,low,14,0,14,0,1,,,,,,,,,
297088,2022-11-25_10h22.39.382,vts_reward_expectancy_bt,2022.2.4,MacIntel,62.5,Safari,1470,956,,,,,0,1251,,,,,,,,,,,,,,,,,139,H,circle,1,0,,,,,,,,,,,,,,,,switch,number,numSwt,d,Hi,,,,,,0.647,6,,,,,,,,low,15,0,15,0,1,,,,,,,,,
297088,2022-11-25_10h22.39.382,vts_reward_expectancy_bt,2022.2.4,MacIntel,62.5,Safari,1470,956,,,,,0,1251,,,,,,,,,,,,,,,,,167,D,triangle,0,0,,,,,,,,,,,,,,,,repeat,number,NA,d,Hi,,,,,,0.56,6,,,,,,,,low,16,0,16,0,1,,,,,,,,,
297088,2022-11-25_10h22.39.382,vts_reward_expectancy_bt,2022.2.4,MacIntel,62.5,Safari,1470,956,,,,,1,1252,,,,,,,,,,,,,,,,,146,W,hexagon,1,1,,,,,,,,,,,,,,,,repeat,number,numRpt,d,Lo,,,,,,0.561,6,,,,,,,,low,17,0,17,0,1,,,,,,,,,
297088,2022-11-25_10h22.39.382,vts_reward_expectancy_bt,2022.2.4,MacIntel,62.5,Safari,1470,956,,,,,0,1252,,,,,,,,,,,,,,,,,181,F,circle,1,0,,,,,,,,,,,,,,,,switch,letter,lettSwt,j,Hi,,,,,,0.571,6,,,,,,,,low,18,0,18,0,1,,,,,,,,,
297088,2022-11-25_10h22.39.382,vts_reward_expectancy_bt,2022.2.4,MacIntel,62.5,Safari,1470,956,,,,,0,1252,,,,,,,,,,,,,,,,,160,H,star,0,0,,,,,,,,,,,,,,,,repeat,letter,NA,k,Hi,,,,,,0.513,6,,,,,,,,low,19,0,19,0,1,,,,,,,,,
297088,2022-11-25_10h22.39.382,vts_reward_expectancy_bt,2022.2.4,MacIntel,62.5,Safari,1470,956,,,,,0,1252,,,,,,,,,,,,,,,,,125,U,circle,0,1,,,,,,,,,,,,,,,,repeat,letter,NA,j,Hi,,,,,,0.327,6,,,,,,,,low,20,0,20,0,1,,,,,,,,,
297088,2022-11-25_10h22.39.382,vts_reward_expectancy_bt,2022.2.4,MacIntel,62.5,Safari,1470,956,,,,,1,1253,,,,,,,,,,,,,,,,,139,B,hexagon,1,1,,,,,,,,,,,,,,,,repeat,letter,lettRpt,j,Lo,,,,,,0.46,6,,,,,,,,low,21,0,21,0,1,,,,,,,,,
297088,2022-11-25_10h22.39.382,vts_reward_expectancy_bt,2022.2.4,MacIntel,62.5,Safari,1470,956,,,,,0,1253,,,,,,,,,,,,,,,,,174,S,star,0,0,,,,,,,,,,,,,,,,repeat,letter,NA,j,Lo,,,,,,0.421,6,,,,,,,,low,22,0,22,0,1,,,,,,,,,
297088,2022-11-25_10h22.39.382,vts_reward_expectancy_bt,2022.2.4,MacIntel,62.5,Safari,1470,956,,,,,0,1253,,,,,,,,,,,,,,,,,132,Y,triangle,0,1,,,,,,,,,,,,,,,,switch,number,NA,f,Lo,,,,,,0.641,6,,,,,,,,low,23,0,23,0,1,,,,,,,,,
297088,2022-11-25_10h22.39.382,vts_reward_expectancy_bt,2022.2.4,MacIntel,62.5,Safari,1470,956,,,,,1,1254,,,,,,,,,,,,,,,,,132,U,hexagon,1,1,,,,,,,,,,,,,,,,repeat,number,numRpt,d,Lo,,,,,,0.618,6,,,,,,,,low,24,0,24,0,1,,,,,,,,,
297088,2022-11-25_10h22.39.382,vts_reward_expectancy_bt,2022.2.4,MacIntel,62.5,Safari,1470,956,,,,,0,1254,,,,,,,,,,,,,,,,,125,W,circle,1,0,,,,,,,,,,,,,,,,switch,letter,lettSwt,k,Hi,,,,,,0.542,6,,,,,,,,low,25,0,25,0,1,,,,,,,,,
297088,2022-11-25_10h22.39.382,vts_reward_expectancy_bt,2022.2.4,MacIntel,62.5,Safari,1470,956,,,,,1,1255,,,,,,,,,,,,,,,,,146,D,star,1,0,,,,,,,,,,,,,,,,repeat,letter,lettRpt,j,Lo,,,,,,0.647,6,,,,,,,,low,26,0,26,0,1,,,,,,,,,
