participant,date,expName,psychopyVersion,OS,frameRate,browser,xResolution,yResolution,key_resp.keys,key_resp.rt,training_resp.keys,training_resp.rt,points_trial,points_cumul,trainBlock,training.thisRepN,training.thisTrialN,training.thisN,training.thisIndex,training.ran,LTriangleOpac,LCircleOpac,LHexagonOpac,LStarOpac,RTriangleOpac,RCircleOpac,RHexagonOpac,RStarOpac,LShape_ID,RShape_ID,curr_topStim,curr_bottStim,curr_shape,acc,E1,target_resp_prac1.keys,target_resp_prac1.rt,pracBlock,task1_prac_trials.thisRepN,task1_prac_trials.thisTrialN,task1_prac_trials.thisN,task1_prac_trials.thisIndex,task1_prac_trials.ran,target_resp_prac2.keys,target_resp_prac2.rt,task2_praac_trials.thisRepN,task2_praac_trials.thisTrialN,task2_praac_trials.thisN,task2_praac_trials.thisIndex,task2_praac_trials.ran,alt,task,condition,target_resp.keys,target_resp.rt,rewCond,vts_practice_trials.thisRepN,vts_practice_trials.thisTrialN,vts_practice_trials.thisN,vts_practice_trials.thisIndex,vts_practice_trials.ran,blockNum,trials_norew.thisRepN,trials_norew.thisTrialN,trials_norew.thisN,trials_norew.thisIndex,trials_norew.ran,key_resp_2.keys,key_resp_2.rt,rewExpectancy,trials_rew.thisRepN,trials_rew.thisTrialN,trials_rew.thisN,trials_rew.thisIndex,trials_rew.ran,Q1,Q2,Q2_text,Q3,Q4,Q5,Q5_text,xRes,yRes
297007,2022-11-21_10h32.49.485,vts_reward_expectancy_bt,2022.2.4,MacIntel,59.97361161,Chrome,1280,800,,,,,,,,,,,,,,,,,,,,,,,,,,,,,,,,,,,,,,,,,,,,,,,,,,,,,,,,,,,,,,,,,,,,,,,,,,,,
297007,2022-11-21_10h32.49.485,vts_reward_expectancy_bt,2022.2.4,MacIntel,59.97361161,Chrome,1280,800,space,37.1121,,,,,,,,,,,,,,,,,,,,,,,,,,,,,,,,,,,,,,,,,,,,,,,,,,,,,,,,,,,,,,,,,,,,,,,,,,
297007,2022-11-21_10h32.49.485,vts_reward_expectancy_bt,2022.2.4,MacIntel,59.97361161,Chrome,1280,800,,,,,,,,,,,,,,,,,,,,,,,,,,,,,,,,,,,,,,,,,,,,,,,,,,,,,,,,,,,,,,,,,,,,,,,,,,,,
297007,2022-11-21_10h32.49.485,vts_reward_expectancy_bt,2022.2.4,MacIntel,59.97361161,Chrome,1280,800,,,l,1.8209,10,10,0,0,0,0,2,1,1,0,0,0,0,0,0,1,triangle,star,,,,,,,,,,,,,,,,,,,,,,,,,,,,,,,,,,,,,,,,,,,,,,,,,,,,,,
297007,2022-11-21_10h32.49.485,vts_reward_expectancy_bt,2022.2.4,MacIntel,59.97361161,Chrome,1280,800,,,a,1.2483,10,20,0,0,1,1,11,1,0,0,0,1,0,0,1,0,star,hexagon,,,,,,,,,,,,,,,,,,,,,,,,,,,,,,,,,,,,,,,,,,,,,,,,,,,,,,
297007,2022-11-21_10h32.49.485,vts_reward_expectancy_bt,2022.2.4,MacIntel,59.97361161,Chrome,1280,800,,,l,1.242,1,21,0,0,2,2,8,1,0,0,1,0,0,0,0,1,hexagon,star,,,,,,,,,,,,,,,,,,,,,,,,,,,,,,,,,,,,,,,,,,,,,,,,,,,,,,
297007,2022-11-21_10h32.49.485,vts_reward_expectancy_bt,2022.2.4,MacIntel,59.97361161,Chrome,1280,800,,,l,2.624,1,22,0,0,3,3,3,1,0,1,0,0,1,0,0,0,circle,triangle,,,,,,,,,,,,,,,,,,,,,,,,,,,,,,,,,,,,,,,,,,,,,,,,,,,,,,
297007,2022-11-21_10h32.49.485,vts_reward_expectancy_bt,2022.2.4,MacIntel,59.97361161,Chrome,1280,800,,,a,1.9413,10,32,0,0,4,4,9,1,0,0,0,1,1,0,0,0,star,triangle,,,,,,,,,,,,,,,,,,,,,,,,,,,,,,,,,,,,,,,,,,,,,,,,,,,,,,
297007,2022-11-21_10h32.49.485,vts_reward_expectancy_bt,2022.2.4,MacIntel,59.97361161,Chrome,1280,800,,,l,3.0254,10,42,0,0,5,5,5,1,0,1,0,0,0,0,0,1,circle,star,,,,,,,,,,,,,,,,,,,,,,,,,,,,,,,,,,,,,,,,,,,,,,,,,,,,,,
297007,2022-11-21_10h32.49.485,vts_reward_expectancy_bt,2022.2.4,MacIntel,59.97361161,Chrome,1280,800,,,a,2.9228,10,52,0,0,6,6,10,1,0,0,0,1,0,1,0,0,star ,circle,,,,,,,,,,,,,,,,,,,,,,,,,,,,,,,,,,,,,,,,,,,,,,,,,,,,,,
297007,2022-11-21_10h32.49.485,vts_reward_expectancy_bt,2022.2.4,MacIntel,59.97361161,Chrome,1280,800,,,l,1.1714,10,62,0,0,7,7,4,1,0,1,0,0,0,0,1,0,circle,hexagon,,,,,,,,,,,,,,,,,,,,,,,,,,,,,,,,,,,,,,,,,,,,,,,,,,,,,,
297007,2022-11-21_10h32.49.485,vts_reward_expectancy_bt,2022.2.4,MacIntel,59.97361161,Chrome,1280,800,,,a,1.0093,1,63,0,0,8,8,6,1,0,0,1,0,1,0,0,0,hexagon,triangle,,,,,,,,,,,,,,,,,,,,,,,,,,,,,,,,,,,,,,,,,,,,,,,,,,,,,,
297007,2022-11-21_10h32.49.485,vts_reward_expectancy_bt,2022.2.4,MacIntel,59.97361161,Chrome,1280,800,,,l,1.8559,1,64,0,0,9,9,1,1,1,0,0,0,0,0,1,0,triangle,hexagon,,,,,,,,,,,,,,,,,,,,,,,,,,,,,,,,,,,,,,,,,,,,,,,,,,,,,,
297007,2022-11-21_10h32.49.485,vts_reward_expectancy_bt,2022.2.4,MacIntel,59.97361161,Chrome,1280,800,,,l,1.6019,1,65,0,0,10,10,0,1,1,0,0,0,0,1,0,0,triangle,circle,,,,,,,,,,,,,,,,,,,,,,,,,,,,,,,,,,,,,,,,,,,,,,,,,,,,,,
297007,2022-11-21_10h32.49.485,vts_reward_expectancy_bt,2022.2.4,MacIntel,59.97361161,Chrome,1280,800,,,a,0.7117,1,66,0,0,11,11,7,1,0,0,1,0,0,1,0,0,hexagon,circle,,,,,,,,,,,,,,,,,,,,,,,,,,,,,,,,,,,,,,,,,,,,,,,,,,,,,,
297007,2022-11-21_10h32.49.485,vts_reward_expectancy_bt,2022.2.4,MacIntel,59.97361161,Chrome,1280,800,,,l,0.7027,10,76,0,1,0,12,2,1,1,0,0,0,0,0,0,1,triangle,star,,,,,,,,,,,,,,,,,,,,,,,,,,,,,,,,,,,,,,,,,,,,,,,,,,,,,,
297007,2022-11-21_10h32.49.485,vts_reward_expectancy_bt,2022.2.4,MacIntel,59.97361161,Chrome,1280,800,,,l,1.2265,10,86,0,1,1,13,3,1,0,1,0,0,1,0,0,0,circle,triangle,,,,,,,,,,,,,,,,,,,,,,,,,,,,,,,,,,,,,,,,,,,,,,,,,,,,,,
297007,2022-11-21_10h32.49.485,vts_reward_expectancy_bt,2022.2.4,MacIntel,59.97361161,Chrome,1280,800,,,a,0.8552,10,96,0,1,2,14,9,1,0,0,0,1,1,0,0,0,star,triangle,,,,,,,,,,,,,,,,,,,,,,,,,,,,,,,,,,,,,,,,,,,,,,,,,,,,,,
297007,2022-11-21_10h32.49.485,vts_reward_expectancy_bt,2022.2.4,MacIntel,59.97361161,Chrome,1280,800,,,a,0.6424,1,97,0,1,3,15,6,1,0,0,1,0,1,0,0,0,hexagon,triangle,,,,,,,,,,,,,,,,,,,,,,,,,,,,,,,,,,,,,,,,,,,,,,,,,,,,,,
297007,2022-11-21_10h32.49.485,vts_reward_expectancy_bt,2022.2.4,MacIntel,59.97361161,Chrome,1280,800,,,a,0.6851,10,107,0,1,4,16,11,1,0,0,0,1,0,0,1,0,star,hexagon,,,,,,,,,,,,,,,,,,,,,,,,,,,,,,,,,,,,,,,,,,,,,,,,,,,,,,
297007,2022-11-21_10h32.49.485,vts_reward_expectancy_bt,2022.2.4,MacIntel,59.97361161,Chrome,1280,800,,,l,1.4676,1,108,0,1,5,17,10,1,0,0,0,1,0,1,0,0,star ,circle,,,,,,,,,,,,,,,,,,,,,,,,,,,,,,,,,,,,,,,,,,,,,,,,,,,,,,
297007,2022-11-21_10h32.49.485,vts_reward_expectancy_bt,2022.2.4,MacIntel,59.97361161,Chrome,1280,800,,,l,2.1211,10,118,0,1,6,18,4,1,0,1,0,0,0,0,1,0,circle,hexagon,,,,,,,,,,,,,,,,,,,,,,,,,,,,,,,,,,,,,,,,,,,,,,,,,,,,,,
297007,2022-11-21_10h32.49.485,vts_reward_expectancy_bt,2022.2.4,MacIntel,59.97361161,Chrome,1280,800,,,l,0.8091,10,128,0,1,7,19,8,1,0,0,1,0,0,0,0,1,hexagon,star,,,,,,,,,,,,,,,,,,,,,,,,,,,,,,,,,,,,,,,,,,,,,,,,,,,,,,
297007,2022-11-21_10h32.49.485,vts_reward_expectancy_bt,2022.2.4,MacIntel,59.97361161,Chrome,1280,800,,,l,17.2003,10,138,0,1,8,20,1,1,1,0,0,0,0,0,1,0,triangle,hexagon,,,,,,,,,,,,,,,,,,,,,,,,,,,,,,,,,,,,,,,,,,,,,,,,,,,,,,
297007,2022-11-21_10h32.49.485,vts_reward_expectancy_bt,2022.2.4,MacIntel,59.97361161,Chrome,1280,800,,,a,8.575,1,139,0,1,9,21,7,1,0,0,1,0,0,1,0,0,hexagon,circle,,,,,,,,,,,,,,,,,,,,,,,,,,,,,,,,,,,,,,,,,,,,,,,,,,,,,,
297007,2022-11-21_10h32.49.485,vts_reward_expectancy_bt,2022.2.4,MacIntel,59.97361161,Chrome,1280,800,,,l,0.3674,10,149,0,1,10,22,5,1,0,1,0,0,0,0,0,1,circle,star,,,,,,,,,,,,,,,,,,,,,,,,,,,,,,,,,,,,,,,,,,,,,,,,,,,,,,
297007,2022-11-21_10h32.49.485,vts_reward_expectancy_bt,2022.2.4,MacIntel,59.97361161,Chrome,1280,800,,,a,2.5593,10,159,0,1,11,23,0,1,1,0,0,0,0,1,0,0,triangle,circle,,,,,,,,,,,,,,,,,,,,,,,,,,,,,,,,,,,,,,,,,,,,,,,,,,,,,,
297007,2022-11-21_10h32.49.485,vts_reward_expectancy_bt,2022.2.4,MacIntel,59.97361161,Chrome,1280,800,,,l,1.2099,10,169,0,2,0,24,3,1,0,1,0,0,1,0,0,0,circle,triangle,,,,,,,,,,,,,,,,,,,,,,,,,,,,,,,,,,,,,,,,,,,,,,,,,,,,,,
297007,2022-11-21_10h32.49.485,vts_reward_expectancy_bt,2022.2.4,MacIntel,59.97361161,Chrome,1280,800,,,l,4.3427,1,170,0,2,1,25,8,1,0,0,1,0,0,0,0,1,hexagon,star,,,,,,,,,,,,,,,,,,,,,,,,,,,,,,,,,,,,,,,,,,,,,,,,,,,,,,
297007,2022-11-21_10h32.49.485,vts_reward_expectancy_bt,2022.2.4,MacIntel,59.97361161,Chrome,1280,800,,,l,1.7438,10,180,0,2,2,26,2,1,1,0,0,0,0,0,0,1,triangle,star,,,,,,,,,,,,,,,,,,,,,,,,,,,,,,,,,,,,,,,,,,,,,,,,,,,,,,
297007,2022-11-21_10h32.49.485,vts_reward_expectancy_bt,2022.2.4,MacIntel,59.97361161,Chrome,1280,800,,,a,0.5249,10,190,0,2,3,27,9,1,0,0,0,1,1,0,0,0,star,triangle,,,,,,,,,,,,,,,,,,,,,,,,,,,,,,,,,,,,,,,,,,,,,,,,,,,,,,
297007,2022-11-21_10h32.49.485,vts_reward_expectancy_bt,2022.2.4,MacIntel,59.97361161,Chrome,1280,800,,,l,1.3202,10,200,0,2,4,28,5,1,0,1,0,0,0,0,0,1,circle,star,,,,,,,,,,,,,,,,,,,,,,,,,,,,,,,,,,,,,,,,,,,,,,,,,,,,,,
297007,2022-11-21_10h32.49.485,vts_reward_expectancy_bt,2022.2.4,MacIntel,59.97361161,Chrome,1280,800,,,l,1.0928,1,201,0,2,5,29,4,1,0,1,0,0,0,0,1,0,circle,hexagon,,,,,,,,,,,,,,,,,,,,,,,,,,,,,,,,,,,,,,,,,,,,,,,,,,,,,,
297007,2022-11-21_10h32.49.485,vts_reward_expectancy_bt,2022.2.4,MacIntel,59.97361161,Chrome,1280,800,,,l,4.487,1,202,0,2,6,30,1,1,1,0,0,0,0,0,1,0,triangle,hexagon,,,,,,,,,,,,,,,,,,,,,,,,,,,,,,,,,,,,,,,,,,,,,,,,,,,,,,
297007,2022-11-21_10h32.49.485,vts_reward_expectancy_bt,2022.2.4,MacIntel,59.97361161,Chrome,1280,800,,,a,0.5771,1,203,0,2,7,31,0,1,1,0,0,0,0,1,0,0,triangle,circle,,,,,,,,,,,,,,,,,,,,,,,,,,,,,,,,,,,,,,,,,,,,,,,,,,,,,,
297007,2022-11-21_10h32.49.485,vts_reward_expectancy_bt,2022.2.4,MacIntel,59.97361161,Chrome,1280,800,,,a,0.4584,10,213,0,2,8,32,6,1,0,0,1,0,1,0,0,0,hexagon,triangle,,,,,,,,,,,,,,,,,,,,,,,,,,,,,,,,,,,,,,,,,,,,,,,,,,,,,,
297007,2022-11-21_10h32.49.485,vts_reward_expectancy_bt,2022.2.4,MacIntel,59.97361161,Chrome,1280,800,,,a,0.5833,10,223,0,2,9,33,11,1,0,0,0,1,0,0,1,0,star,hexagon,,,,,,,,,,,,,,,,,,,,,,,,,,,,,,,,,,,,,,,,,,,,,,,,,,,,,,
297007,2022-11-21_10h32.49.485,vts_reward_expectancy_bt,2022.2.4,MacIntel,59.97361161,Chrome,1280,800,,,a,1.8003,10,233,0,2,10,34,10,1,0,0,0,1,0,1,0,0,star ,circle,,,,,,,,,,,,,,,,,,,,,,,,,,,,,,,,,,,,,,,,,,,,,,,,,,,,,,
297007,2022-11-21_10h32.49.485,vts_reward_expectancy_bt,2022.2.4,MacIntel,59.97361161,Chrome,1280,800,,,a,33.5758,10,243,0,2,11,35,7,1,0,0,1,0,0,1,0,0,hexagon,circle,,,,,,,,,,,,,,,,,,,,,,,,,,,,,,,,,,,,,,,,,,,,,,,,,,,,,,
297007,2022-11-21_10h32.49.485,vts_reward_expectancy_bt,2022.2.4,MacIntel,59.97361161,Chrome,1280,800,,,a,1.3197,1,244,1,0,0,0,7,1,0,0,1,0,0,1,0,0,hexagon,circle,,,,,,,,,,,,,,,,,,,,,,,,,,,,,,,,,,,,,,,,,,,,,,,,,,,,,,
297007,2022-11-21_10h32.49.485,vts_reward_expectancy_bt,2022.2.4,MacIntel,59.97361161,Chrome,1280,800,,,l,1.084,1,245,1,0,1,1,8,1,0,0,1,0,0,0,0,1,hexagon,star,,,,,,,,,,,,,,,,,,,,,,,,,,,,,,,,,,,,,,,,,,,,,,,,,,,,,,
297007,2022-11-21_10h32.49.485,vts_reward_expectancy_bt,2022.2.4,MacIntel,59.97361161,Chrome,1280,800,,,a,0.8694,10,255,1,0,2,2,6,1,0,0,1,0,1,0,0,0,hexagon,triangle,,,,,,,,,,,,,,,,,,,,,,,,,,,,,,,,,,,,,,,,,,,,,,,,,,,,,,
297007,2022-11-21_10h32.49.485,vts_reward_expectancy_bt,2022.2.4,MacIntel,59.97361161,Chrome,1280,800,,,l,5.1195,10,265,1,0,3,3,2,1,1,0,0,0,0,0,0,1,triangle,star,,,,,,,,,,,,,,,,,,,,,,,,,,,,,,,,,,,,,,,,,,,,,,,,,,,,,,
297007,2022-11-21_10h32.49.485,vts_reward_expectancy_bt,2022.2.4,MacIntel,59.97361161,Chrome,1280,800,,,l,0.8753,1,266,1,0,4,4,1,1,1,0,0,0,0,0,1,0,triangle,hexagon,,,,,,,,,,,,,,,,,,,,,,,,,,,,,,,,,,,,,,,,,,,,,,,,,,,,,,
297007,2022-11-21_10h32.49.485,vts_reward_expectancy_bt,2022.2.4,MacIntel,59.97361161,Chrome,1280,800,,,a,0.872,1,267,1,0,5,5,9,1,0,0,0,1,1,0,0,0,star,triangle,,,,,,,,,,,,,,,,,,,,,,,,,,,,,,,,,,,,,,,,,,,,,,,,,,,,,,
297007,2022-11-21_10h32.49.485,vts_reward_expectancy_bt,2022.2.4,MacIntel,59.97361161,Chrome,1280,800,,,a,0.4026,10,277,1,0,6,6,11,1,0,0,0,1,0,0,1,0,star,hexagon,,,,,,,,,,,,,,,,,,,,,,,,,,,,,,,,,,,,,,,,,,,,,,,,,,,,,,
297007,2022-11-21_10h32.49.485,vts_reward_expectancy_bt,2022.2.4,MacIntel,59.97361161,Chrome,1280,800,,,a,0.4594,10,287,1,0,7,7,10,1,0,0,0,1,0,1,0,0,star ,circle,,,,,,,,,,,,,,,,,,,,,,,,,,,,,,,,,,,,,,,,,,,,,,,,,,,,,,
297007,2022-11-21_10h32.49.485,vts_reward_expectancy_bt,2022.2.4,MacIntel,59.97361161,Chrome,1280,800,,,a,42.9889,1,288,1,0,8,8,0,1,1,0,0,0,0,1,0,0,triangle,circle,,,,,,,,,,,,,,,,,,,,,,,,,,,,,,,,,,,,,,,,,,,,,,,,,,,,,,
297007,2022-11-21_10h32.49.485,vts_reward_expectancy_bt,2022.2.4,MacIntel,59.97361161,Chrome,1280,800,,,l,4.6717,1,289,1,0,9,9,4,1,0,1,0,0,0,0,1,0,circle,hexagon,,,,,,,,,,,,,,,,,,,,,,,,,,,,,,,,,,,,,,,,,,,,,,,,,,,,,,
297007,2022-11-21_10h32.49.485,vts_reward_expectancy_bt,2022.2.4,MacIntel,59.97361161,Chrome,1280,800,,,l,0.6199,10,299,1,0,10,10,3,1,0,1,0,0,1,0,0,0,circle,triangle,,,,,,,,,,,,,,,,,,,,,,,,,,,,,,,,,,,,,,,,,,,,,,,,,,,,,,
297007,2022-11-21_10h32.49.485,vts_reward_expectancy_bt,2022.2.4,MacIntel,59.97361161,Chrome,1280,800,,,l,0.7246,10,309,1,0,11,11,5,1,0,1,0,0,0,0,0,1,circle,star,,,,,,,,,,,,,,,,,,,,,,,,,,,,,,,,,,,,,,,,,,,,,,,,,,,,,,
297007,2022-11-21_10h32.49.485,vts_reward_expectancy_bt,2022.2.4,MacIntel,59.97361161,Chrome,1280,800,,,l,0.7098,1,310,1,1,0,12,8,1,0,0,1,0,0,0,0,1,hexagon,star,,,,,,,,,,,,,,,,,,,,,,,,,,,,,,,,,,,,,,,,,,,,,,,,,,,,,,
297007,2022-11-21_10h32.49.485,vts_reward_expectancy_bt,2022.2.4,MacIntel,59.97361161,Chrome,1280,800,,,l,0.3583,1,311,1,1,1,13,2,1,1,0,0,0,0,0,0,1,triangle,star,,,,,,,,,,,,,,,,,,,,,,,,,,,,,,,,,,,,,,,,,,,,,,,,,,,,,,
297007,2022-11-21_10h32.49.485,vts_reward_expectancy_bt,2022.2.4,MacIntel,59.97361161,Chrome,1280,800,,,l,0.4177,10,321,1,1,2,14,11,1,0,0,0,1,0,0,1,0,star,hexagon,,,,,,,,,,,,,,,,,,,,,,,,,,,,,,,,,,,,,,,,,,,,,,,,,,,,,,
297007,2022-11-21_10h32.49.485,vts_reward_expectancy_bt,2022.2.4,MacIntel,59.97361161,Chrome,1280,800,,,a,1.247,10,331,1,1,3,15,7,1,0,0,1,0,0,1,0,0,hexagon,circle,,,,,,,,,,,,,,,,,,,,,,,,,,,,,,,,,,,,,,,,,,,,,,,,,,,,,,
297007,2022-11-21_10h32.49.485,vts_reward_expectancy_bt,2022.2.4,MacIntel,59.97361161,Chrome,1280,800,,,a,1.1363,1,332,1,1,4,16,6,1,0,0,1,0,1,0,0,0,hexagon,triangle,,,,,,,,,,,,,,,,,,,,,,,,,,,,,,,,,,,,,,,,,,,,,,,,,,,,,,
297007,2022-11-21_10h32.49.485,vts_reward_expectancy_bt,2022.2.4,MacIntel,59.97361161,Chrome,1280,800,,,a,1.2376,1,333,1,1,5,17,0,1,1,0,0,0,0,1,0,0,triangle,circle,,,,,,,,,,,,,,,,,,,,,,,,,,,,,,,,,,,,,,,,,,,,,,,,,,,,,,
297007,2022-11-21_10h32.49.485,vts_reward_expectancy_bt,2022.2.4,MacIntel,59.97361161,Chrome,1280,800,,,l,0.4375,10,343,1,1,6,18,5,1,0,1,0,0,0,0,0,1,circle,star,,,,,,,,,,,,,,,,,,,,,,,,,,,,,,,,,,,,,,,,,,,,,,,,,,,,,,
297007,2022-11-21_10h32.49.485,vts_reward_expectancy_bt,2022.2.4,MacIntel,59.97361161,Chrome,1280,800,,,l,0.4546,10,353,1,1,7,19,4,1,0,1,0,0,0,0,1,0,circle,hexagon,,,,,,,,,,,,,,,,,,,,,,,,,,,,,,,,,,,,,,,,,,,,,,,,,,,,,,
297007,2022-11-21_10h32.49.485,vts_reward_expectancy_bt,2022.2.4,MacIntel,59.97361161,Chrome,1280,800,,,l,0.9593,1,354,1,1,8,20,10,1,0,0,0,1,0,1,0,0,star ,circle,,,,,,,,,,,,,,,,,,,,,,,,,,,,,,,,,,,,,,,,,,,,,,,,,,,,,,
297007,2022-11-21_10h32.49.485,vts_reward_expectancy_bt,2022.2.4,MacIntel,59.97361161,Chrome,1280,800,,,l,1.5921,10,364,1,1,9,21,9,1,0,0,0,1,1,0,0,0,star,triangle,,,,,,,,,,,,,,,,,,,,,,,,,,,,,,,,,,,,,,,,,,,,,,,,,,,,,,
297007,2022-11-21_10h32.49.485,vts_reward_expectancy_bt,2022.2.4,MacIntel,59.97361161,Chrome,1280,800,,,l,0.9878,1,365,1,1,10,22,1,1,1,0,0,0,0,0,1,0,triangle,hexagon,,,,,,,,,,,,,,,,,,,,,,,,,,,,,,,,,,,,,,,,,,,,,,,,,,,,,,
297007,2022-11-21_10h32.49.485,vts_reward_expectancy_bt,2022.2.4,MacIntel,59.97361161,Chrome,1280,800,,,a,1.5151,1,366,1,1,11,23,3,1,0,1,0,0,1,0,0,0,circle,triangle,,,,,,,,,,,,,,,,,,,,,,,,,,,,,,,,,,,,,,,,,,,,,,,,,,,,,,
297007,2022-11-21_10h32.49.485,vts_reward_expectancy_bt,2022.2.4,MacIntel,59.97361161,Chrome,1280,800,,,a,0.819,1,367,1,2,0,24,10,1,0,0,0,1,0,1,0,0,star ,circle,,,,,,,,,,,,,,,,,,,,,,,,,,,,,,,,,,,,,,,,,,,,,,,,,,,,,,
297007,2022-11-21_10h32.49.485,vts_reward_expectancy_bt,2022.2.4,MacIntel,59.97361161,Chrome,1280,800,,,a,0.7191,10,377,1,2,1,25,9,1,0,0,0,1,1,0,0,0,star,triangle,,,,,,,,,,,,,,,,,,,,,,,,,,,,,,,,,,,,,,,,,,,,,,,,,,,,,,
297007,2022-11-21_10h32.49.485,vts_reward_expectancy_bt,2022.2.4,MacIntel,59.97361161,Chrome,1280,800,,,l,0.4977,1,378,1,2,2,26,0,1,1,0,0,0,0,1,0,0,triangle,circle,,,,,,,,,,,,,,,,,,,,,,,,,,,,,,,,,,,,,,,,,,,,,,,,,,,,,,
297007,2022-11-21_10h32.49.485,vts_reward_expectancy_bt,2022.2.4,MacIntel,59.97361161,Chrome,1280,800,,,l,0.3813,10,388,1,2,3,27,3,1,0,1,0,0,1,0,0,0,circle,triangle,,,,,,,,,,,,,,,,,,,,,,,,,,,,,,,,,,,,,,,,,,,,,,,,,,,,,,
297007,2022-11-21_10h32.49.485,vts_reward_expectancy_bt,2022.2.4,MacIntel,59.97361161,Chrome,1280,800,,,a,1.2337,10,398,1,2,4,28,11,1,0,0,0,1,0,0,1,0,star,hexagon,,,,,,,,,,,,,,,,,,,,,,,,,,,,,,,,,,,,,,,,,,,,,,,,,,,,,,
297007,2022-11-21_10h32.49.485,vts_reward_expectancy_bt,2022.2.4,MacIntel,59.97361161,Chrome,1280,800,,,l,4.8436,10,408,1,2,5,29,5,1,0,1,0,0,0,0,0,1,circle,star,,,,,,,,,,,,,,,,,,,,,,,,,,,,,,,,,,,,,,,,,,,,,,,,,,,,,,
297007,2022-11-21_10h32.49.485,vts_reward_expectancy_bt,2022.2.4,MacIntel,59.97361161,Chrome,1280,800,,,a,3.7214,1,409,1,2,6,30,6,1,0,0,1,0,1,0,0,0,hexagon,triangle,,,,,,,,,,,,,,,,,,,,,,,,,,,,,,,,,,,,,,,,,,,,,,,,,,,,,,
297007,2022-11-21_10h32.49.485,vts_reward_expectancy_bt,2022.2.4,MacIntel,59.97361161,Chrome,1280,800,,,l,12.2429,1,410,1,2,7,31,4,1,0,1,0,0,0,0,1,0,circle,hexagon,,,,,,,,,,,,,,,,,,,,,,,,,,,,,,,,,,,,,,,,,,,,,,,,,,,,,,
297007,2022-11-21_10h32.49.485,vts_reward_expectancy_bt,2022.2.4,MacIntel,59.97361161,Chrome,1280,800,,,l,4.8265,10,420,1,2,8,32,8,1,0,0,1,0,0,0,0,1,hexagon,star,,,,,,,,,,,,,,,,,,,,,,,,,,,,,,,,,,,,,,,,,,,,,,,,,,,,,,
297007,2022-11-21_10h32.49.485,vts_reward_expectancy_bt,2022.2.4,MacIntel,59.97361161,Chrome,1280,800,,,l,5.9223,1,421,1,2,9,33,1,1,1,0,0,0,0,0,1,0,triangle,hexagon,,,,,,,,,,,,,,,,,,,,,,,,,,,,,,,,,,,,,,,,,,,,,,,,,,,,,,
297007,2022-11-21_10h32.49.485,vts_reward_expectancy_bt,2022.2.4,MacIntel,59.97361161,Chrome,1280,800,,,a,5.657,1,422,1,2,10,34,7,1,0,0,1,0,0,1,0,0,hexagon,circle,,,,,,,,,,,,,,,,,,,,,,,,,,,,,,,,,,,,,,,,,,,,,,,,,,,,,,
297007,2022-11-21_10h32.49.485,vts_reward_expectancy_bt,2022.2.4,MacIntel,59.97361161,Chrome,1280,800,,,l,0.5572,10,432,1,2,11,35,2,1,1,0,0,0,0,0,0,1,triangle,star,,,,,,,,,,,,,,,,,,,,,,,,,,,,,,,,,,,,,,,,,,,,,,,,,,,,,,
297007,2022-11-21_10h32.49.485,vts_reward_expectancy_bt,2022.2.4,MacIntel,59.97361161,Chrome,1280,800,,,a,0.937,10,442,2,0,0,0,11,1,0,0,0,1,0,0,1,0,star,hexagon,,,,,,,,,,,,,,,,,,,,,,,,,,,,,,,,,,,,,,,,,,,,,,,,,,,,,,
297007,2022-11-21_10h32.49.485,vts_reward_expectancy_bt,2022.2.4,MacIntel,59.97361161,Chrome,1280,800,,,l,1.542,10,452,2,0,1,1,8,1,0,0,1,0,0,0,0,1,hexagon,star,,,,,,,,,,,,,,,,,,,,,,,,,,,,,,,,,,,,,,,,,,,,,,,,,,,,,,
297007,2022-11-21_10h32.49.485,vts_reward_expectancy_bt,2022.2.4,MacIntel,59.97361161,Chrome,1280,800,,,l,1.0393,1,453,2,0,2,2,1,1,1,0,0,0,0,0,1,0,triangle,hexagon,,,,,,,,,,,,,,,,,,,,,,,,,,,,,,,,,,,,,,,,,,,,,,,,,,,,,,
297007,2022-11-21_10h32.49.485,vts_reward_expectancy_bt,2022.2.4,MacIntel,59.97361161,Chrome,1280,800,,,a,0.9379,10,463,2,0,3,3,0,1,1,0,0,0,0,1,0,0,triangle,circle,,,,,,,,,,,,,,,,,,,,,,,,,,,,,,,,,,,,,,,,,,,,,,,,,,,,,,
297007,2022-11-21_10h32.49.485,vts_reward_expectancy_bt,2022.2.4,MacIntel,59.97361161,Chrome,1280,800,,,l,0.7698,10,473,2,0,4,4,5,1,0,1,0,0,0,0,0,1,circle,star,,,,,,,,,,,,,,,,,,,,,,,,,,,,,,,,,,,,,,,,,,,,,,,,,,,,,,
297007,2022-11-21_10h32.49.485,vts_reward_expectancy_bt,2022.2.4,MacIntel,59.97361161,Chrome,1280,800,,,l,1.0327,1,474,2,0,5,5,4,1,0,1,0,0,0,0,1,0,circle,hexagon,,,,,,,,,,,,,,,,,,,,,,,,,,,,,,,,,,,,,,,,,,,,,,,,,,,,,,
297007,2022-11-21_10h32.49.485,vts_reward_expectancy_bt,2022.2.4,MacIntel,59.97361161,Chrome,1280,800,,,l,1.1083,10,484,2,0,6,6,2,1,1,0,0,0,0,0,0,1,triangle,star,,,,,,,,,,,,,,,,,,,,,,,,,,,,,,,,,,,,,,,,,,,,,,,,,,,,,,
297007,2022-11-21_10h32.49.485,vts_reward_expectancy_bt,2022.2.4,MacIntel,59.97361161,Chrome,1280,800,,,a,1.2003,10,494,2,0,7,7,6,1,0,0,1,0,1,0,0,0,hexagon,triangle,,,,,,,,,,,,,,,,,,,,,,,,,,,,,,,,,,,,,,,,,,,,,,,,,,,,,,
297007,2022-11-21_10h32.49.485,vts_reward_expectancy_bt,2022.2.4,MacIntel,59.97361161,Chrome,1280,800,,,a,1.4524,10,504,2,0,8,8,3,1,0,1,0,0,1,0,0,0,circle,triangle,,,,,,,,,,,,,,,,,,,,,,,,,,,,,,,,,,,,,,,,,,,,,,,,,,,,,,
297007,2022-11-21_10h32.49.485,vts_reward_expectancy_bt,2022.2.4,MacIntel,59.97361161,Chrome,1280,800,,,a,1.8702,10,514,2,0,9,9,7,1,0,0,1,0,0,1,0,0,hexagon,circle,,,,,,,,,,,,,,,,,,,,,,,,,,,,,,,,,,,,,,,,,,,,,,,,,,,,,,
297007,2022-11-21_10h32.49.485,vts_reward_expectancy_bt,2022.2.4,MacIntel,59.97361161,Chrome,1280,800,,,a,1.5866,10,524,2,0,10,10,9,1,0,0,0,1,1,0,0,0,star,triangle,,,,,,,,,,,,,,,,,,,,,,,,,,,,,,,,,,,,,,,,,,,,,,,,,,,,,,
297007,2022-11-21_10h32.49.485,vts_reward_expectancy_bt,2022.2.4,MacIntel,59.97361161,Chrome,1280,800,,,l,1.7037,1,525,2,0,11,11,10,1,0,0,0,1,0,1,0,0,star ,circle,,,,,,,,,,,,,,,,,,,,,,,,,,,,,,,,,,,,,,,,,,,,,,,,,,,,,,
297007,2022-11-21_10h32.49.485,vts_reward_expectancy_bt,2022.2.4,MacIntel,59.97361161,Chrome,1280,800,,,a,1.2545,10,535,2,1,0,12,7,1,0,0,1,0,0,1,0,0,hexagon,circle,,,,,,,,,,,,,,,,,,,,,,,,,,,,,,,,,,,,,,,,,,,,,,,,,,,,,,
297007,2022-11-21_10h32.49.485,vts_reward_expectancy_bt,2022.2.4,MacIntel,59.97361161,Chrome,1280,800,,,a,0.9451,10,545,2,1,1,13,11,1,0,0,0,1,0,0,1,0,star,hexagon,,,,,,,,,,,,,,,,,,,,,,,,,,,,,,,,,,,,,,,,,,,,,,,,,,,,,,
297007,2022-11-21_10h32.49.485,vts_reward_expectancy_bt,2022.2.4,MacIntel,59.97361161,Chrome,1280,800,,,l,1.1989,10,555,2,1,2,14,5,1,0,1,0,0,0,0,0,1,circle,star,,,,,,,,,,,,,,,,,,,,,,,,,,,,,,,,,,,,,,,,,,,,,,,,,,,,,,
297007,2022-11-21_10h32.49.485,vts_reward_expectancy_bt,2022.2.4,MacIntel,59.97361161,Chrome,1280,800,,,l,1.4034,10,565,2,1,3,15,3,1,0,1,0,0,1,0,0,0,circle,triangle,,,,,,,,,,,,,,,,,,,,,,,,,,,,,,,,,,,,,,,,,,,,,,,,,,,,,,
297007,2022-11-21_10h32.49.485,vts_reward_expectancy_bt,2022.2.4,MacIntel,59.97361161,Chrome,1280,800,,,l,0.9952,10,575,2,1,4,16,8,1,0,0,1,0,0,0,0,1,hexagon,star,,,,,,,,,,,,,,,,,,,,,,,,,,,,,,,,,,,,,,,,,,,,,,,,,,,,,,
297007,2022-11-21_10h32.49.485,vts_reward_expectancy_bt,2022.2.4,MacIntel,59.97361161,Chrome,1280,800,,,a,50.4083,10,585,2,1,5,17,9,1,0,0,0,1,1,0,0,0,star,triangle,,,,,,,,,,,,,,,,,,,,,,,,,,,,,,,,,,,,,,,,,,,,,,,,,,,,,,
297007,2022-11-21_10h32.49.485,vts_reward_expectancy_bt,2022.2.4,MacIntel,59.97361161,Chrome,1280,800,,,l,0.836,1,586,2,1,6,18,4,1,0,1,0,0,0,0,1,0,circle,hexagon,,,,,,,,,,,,,,,,,,,,,,,,,,,,,,,,,,,,,,,,,,,,,,,,,,,,,,
297007,2022-11-21_10h32.49.485,vts_reward_expectancy_bt,2022.2.4,MacIntel,59.97361161,Chrome,1280,800,,,a,0.6887,1,587,2,1,7,19,6,1,0,0,1,0,1,0,0,0,hexagon,triangle,,,,,,,,,,,,,,,,,,,,,,,,,,,,,,,,,,,,,,,,,,,,,,,,,,,,,,
297007,2022-11-21_10h32.49.485,vts_reward_expectancy_bt,2022.2.4,MacIntel,59.97361161,Chrome,1280,800,,,a,1.3204,10,597,2,1,8,20,0,1,1,0,0,0,0,1,0,0,triangle,circle,,,,,,,,,,,,,,,,,,,,,,,,,,,,,,,,,,,,,,,,,,,,,,,,,,,,,,
297007,2022-11-21_10h32.49.485,vts_reward_expectancy_bt,2022.2.4,MacIntel,59.97361161,Chrome,1280,800,,,l,0.8425,10,607,2,1,9,21,2,1,1,0,0,0,0,0,0,1,triangle,star,,,,,,,,,,,,,,,,,,,,,,,,,,,,,,,,,,,,,,,,,,,,,,,,,,,,,,
297007,2022-11-21_10h32.49.485,vts_reward_expectancy_bt,2022.2.4,MacIntel,59.97361161,Chrome,1280,800,,,a,1.0833,10,617,2,1,10,22,10,1,0,0,0,1,0,1,0,0,star ,circle,,,,,,,,,,,,,,,,,,,,,,,,,,,,,,,,,,,,,,,,,,,,,,,,,,,,,,
297007,2022-11-21_10h32.49.485,vts_reward_expectancy_bt,2022.2.4,MacIntel,59.97361161,Chrome,1280,800,,,l,0.9703,1,618,2,1,11,23,1,1,1,0,0,0,0,0,1,0,triangle,hexagon,,,,,,,,,,,,,,,,,,,,,,,,,,,,,,,,,,,,,,,,,,,,,,,,,,,,,,
297007,2022-11-21_10h32.49.485,vts_reward_expectancy_bt,2022.2.4,MacIntel,59.97361161,Chrome,1280,800,,,a,1.0163,1,619,2,2,0,24,10,1,0,0,0,1,0,1,0,0,star ,circle,,,,,,,,,,,,,,,,,,,,,,,,,,,,,,,,,,,,,,,,,,,,,,,,,,,,,,
297007,2022-11-21_10h32.49.485,vts_reward_expectancy_bt,2022.2.4,MacIntel,59.97361161,Chrome,1280,800,,,a,2.9877,1,620,2,2,1,25,7,1,0,0,1,0,0,1,0,0,hexagon,circle,,,,,,,,,,,,,,,,,,,,,,,,,,,,,,,,,,,,,,,,,,,,,,,,,,,,,,
297007,2022-11-21_10h32.49.485,vts_reward_expectancy_bt,2022.2.4,MacIntel,59.97361161,Chrome,1280,800,,,l,0.9057,1,621,2,2,2,26,2,1,1,0,0,0,0,0,0,1,triangle,star,,,,,,,,,,,,,,,,,,,,,,,,,,,,,,,,,,,,,,,,,,,,,,,,,,,,,,
297007,2022-11-21_10h32.49.485,vts_reward_expectancy_bt,2022.2.4,MacIntel,59.97361161,Chrome,1280,800,,,l,1.4868,10,631,2,2,3,27,3,1,0,1,0,0,1,0,0,0,circle,triangle,,,,,,,,,,,,,,,,,,,,,,,,,,,,,,,,,,,,,,,,,,,,,,,,,,,,,,
297007,2022-11-21_10h32.49.485,vts_reward_expectancy_bt,2022.2.4,MacIntel,59.97361161,Chrome,1280,800,,,a,1.3526,1,632,2,2,4,28,6,1,0,0,1,0,1,0,0,0,hexagon,triangle,,,,,,,,,,,,,,,,,,,,,,,,,,,,,,,,,,,,,,,,,,,,,,,,,,,,,,
297007,2022-11-21_10h32.49.485,vts_reward_expectancy_bt,2022.2.4,MacIntel,59.97361161,Chrome,1280,800,,,l,0.8686,1,633,2,2,5,29,8,1,0,0,1,0,0,0,0,1,hexagon,star,,,,,,,,,,,,,,,,,,,,,,,,,,,,,,,,,,,,,,,,,,,,,,,,,,,,,,
297007,2022-11-21_10h32.49.485,vts_reward_expectancy_bt,2022.2.4,MacIntel,59.97361161,Chrome,1280,800,,,a,1.0386,10,643,2,2,6,30,0,1,1,0,0,0,0,1,0,0,triangle,circle,,,,,,,,,,,,,,,,,,,,,,,,,,,,,,,,,,,,,,,,,,,,,,,,,,,,,,
297007,2022-11-21_10h32.49.485,vts_reward_expectancy_bt,2022.2.4,MacIntel,59.97361161,Chrome,1280,800,,,a,1.6341,10,653,2,2,7,31,11,1,0,0,0,1,0,0,1,0,star,hexagon,,,,,,,,,,,,,,,,,,,,,,,,,,,,,,,,,,,,,,,,,,,,,,,,,,,,,,
297007,2022-11-21_10h32.49.485,vts_reward_expectancy_bt,2022.2.4,MacIntel,59.97361161,Chrome,1280,800,,,a,1.2933,1,654,2,2,8,32,9,1,0,0,0,1,1,0,0,0,star,triangle,,,,,,,,,,,,,,,,,,,,,,,,,,,,,,,,,,,,,,,,,,,,,,,,,,,,,,
297007,2022-11-21_10h32.49.485,vts_reward_expectancy_bt,2022.2.4,MacIntel,59.97361161,Chrome,1280,800,,,l,1.4866,1,655,2,2,9,33,1,1,1,0,0,0,0,0,1,0,triangle,hexagon,,,,,,,,,,,,,,,,,,,,,,,,,,,,,,,,,,,,,,,,,,,,,,,,,,,,,,
297007,2022-11-21_10h32.49.485,vts_reward_expectancy_bt,2022.2.4,MacIntel,59.97361161,Chrome,1280,800,,,l,4.5046,1,656,2,2,10,34,4,1,0,1,0,0,0,0,1,0,circle,hexagon,,,,,,,,,,,,,,,,,,,,,,,,,,,,,,,,,,,,,,,,,,,,,,,,,,,,,,
297007,2022-11-21_10h32.49.485,vts_reward_expectancy_bt,2022.2.4,MacIntel,59.97361161,Chrome,1280,800,,,l,0.9925,1,657,2,2,11,35,5,1,0,1,0,0,0,0,0,1,circle,star,,,,,,,,,,,,,,,,,,,,,,,,,,,,,,,,,,,,,,,,,,,,,,,,,,,,,,
297007,2022-11-21_10h32.49.485,vts_reward_expectancy_bt,2022.2.4,MacIntel,59.97361161,Chrome,1280,800,,,,,,,,,,,,,,,,,,,,,,,174,D,triangle,1,0,f,1.4331,0,0,0,0,0,1,,,,,,,,,,,,,,,,,,,,,,,,,,,,,,,,,,,,,,,,,
297007,2022-11-21_10h32.49.485,vts_reward_expectancy_bt,2022.2.4,MacIntel,59.97361161,Chrome,1280,800,,,,,,,,,,,,,,,,,,,,,,,167,W,star,1,0,f,0.9141,0,1,0,1,0,1,,,,,,,,,,,,,,,,,,,,,,,,,,,,,,,,,,,,,,,,,
297007,2022-11-21_10h32.49.485,vts_reward_expectancy_bt,2022.2.4,MacIntel,59.97361161,Chrome,1280,800,,,,,,,,,,,,,,,,,,,,,,,160,H,circle,1,0,f,0.7269,0,2,0,2,0,1,,,,,,,,,,,,,,,,,,,,,,,,,,,,,,,,,,,,,,,,,
297007,2022-11-21_10h32.49.485,vts_reward_expectancy_bt,2022.2.4,MacIntel,59.97361161,Chrome,1280,800,,,,,,,,,,,,,,,,,,,,,,,181,U,hexagon,1,0,f,0.7635,0,3,0,3,0,1,,,,,,,,,,,,,,,,,,,,,,,,,,,,,,,,,,,,,,,,,
297007,2022-11-21_10h32.49.485,vts_reward_expectancy_bt,2022.2.4,MacIntel,59.97361161,Chrome,1280,800,,,,,,,,,,,,,,,,,,,,,,,125,S,triangle,1,0,d,1.5808,0,4,0,4,0,1,,,,,,,,,,,,,,,,,,,,,,,,,,,,,,,,,,,,,,,,,
297007,2022-11-21_10h32.49.485,vts_reward_expectancy_bt,2022.2.4,MacIntel,59.97361161,Chrome,1280,800,,,,,,,,,,,,,,,,,,,,,,,139,Y,star,1,0,d,0.9912,0,5,0,5,0,1,,,,,,,,,,,,,,,,,,,,,,,,,,,,,,,,,,,,,,,,,
297007,2022-11-21_10h32.49.485,vts_reward_expectancy_bt,2022.2.4,MacIntel,59.97361161,Chrome,1280,800,,,,,,,,,,,,,,,,,,,,,,,146,F,circle,1,0,d,1.9323,0,6,0,6,0,1,,,,,,,,,,,,,,,,,,,,,,,,,,,,,,,,,,,,,,,,,
297007,2022-11-21_10h32.49.485,vts_reward_expectancy_bt,2022.2.4,MacIntel,59.97361161,Chrome,1280,800,,,,,,,,,,,,,,,,,,,,,,,132,B,hexagon,1,0,d,0.735,0,7,0,7,0,1,,,,,,,,,,,,,,,,,,,,,,,,,,,,,,,,,,,,,,,,,
297007,2022-11-21_10h32.49.485,vts_reward_expectancy_bt,2022.2.4,MacIntel,59.97361161,Chrome,1280,800,,,,,,,,,,,,,,,,,,,,,,,174,D,triangle,1,0,f,1.0973,0,8,0,8,0,1,,,,,,,,,,,,,,,,,,,,,,,,,,,,,,,,,,,,,,,,,
297007,2022-11-21_10h32.49.485,vts_reward_expectancy_bt,2022.2.4,MacIntel,59.97361161,Chrome,1280,800,,,,,,,,,,,,,,,,,,,,,,,167,W,hexagon,1,0,f,2.3804,0,9,0,9,0,1,,,,,,,,,,,,,,,,,,,,,,,,,,,,,,,,,,,,,,,,,
297007,2022-11-21_10h32.49.485,vts_reward_expectancy_bt,2022.2.4,MacIntel,59.97361161,Chrome,1280,800,,,,,,,,,,,,,,,,,,,,,,,167,S,star,1,0,,,1,,,,,,k,1.0657,0,0,0,0,1,,,,,,,,,,,,,,,,,,,,,,,,,,,,,,,,,,
297007,2022-11-21_10h32.49.485,vts_reward_expectancy_bt,2022.2.4,MacIntel,59.97361161,Chrome,1280,800,,,,,,,,,,,,,,,,,,,,,,,174,U,triangle,1,0,,,1,,,,,,k,0.6806,1,0,1,0,1,,,,,,,,,,,,,,,,,,,,,,,,,,,,,,,,,,
297007,2022-11-21_10h32.49.485,vts_reward_expectancy_bt,2022.2.4,MacIntel,59.97361161,Chrome,1280,800,,,,,,,,,,,,,,,,,,,,,,,132,H,hexagon,1,0,,,1,,,,,,j,0.6138,2,0,2,0,1,,,,,,,,,,,,,,,,,,,,,,,,,,,,,,,,,,
297007,2022-11-21_10h32.49.485,vts_reward_expectancy_bt,2022.2.4,MacIntel,59.97361161,Chrome,1280,800,,,,,,,,,,,,,,,,,,,,,,,125,W,circle,1,0,,,1,,,,,,k,0.5126,3,0,3,0,1,,,,,,,,,,,,,,,,,,,,,,,,,,,,,,,,,,
297007,2022-11-21_10h32.49.485,vts_reward_expectancy_bt,2022.2.4,MacIntel,59.97361161,Chrome,1280,800,,,,,,,,,,,,,,,,,,,,,,,146,F,star,1,0,,,1,,,,,,j,0.7138,4,0,4,0,1,,,,,,,,,,,,,,,,,,,,,,,,,,,,,,,,,,
297007,2022-11-21_10h32.49.485,vts_reward_expectancy_bt,2022.2.4,MacIntel,59.97361161,Chrome,1280,800,,,,,,,,,,,,,,,,,,,,,,,160,D,triangle,1,0,,,1,,,,,,j,0.7485,5,0,5,0,1,,,,,,,,,,,,,,,,,,,,,,,,,,,,,,,,,,
297007,2022-11-21_10h32.49.485,vts_reward_expectancy_bt,2022.2.4,MacIntel,59.97361161,Chrome,1280,800,,,,,,,,,,,,,,,,,,,,,,,181,B,hexagon,1,0,,,1,,,,,,j,0.6978,6,0,6,0,1,,,,,,,,,,,,,,,,,,,,,,,,,,,,,,,,,,
297007,2022-11-21_10h32.49.485,vts_reward_expectancy_bt,2022.2.4,MacIntel,59.97361161,Chrome,1280,800,,,,,,,,,,,,,,,,,,,,,,,139,Y,circle,1,0,,,1,,,,,,k,0.5632,7,0,7,0,1,,,,,,,,,,,,,,,,,,,,,,,,,,,,,,,,,,
297007,2022-11-21_10h32.49.485,vts_reward_expectancy_bt,2022.2.4,MacIntel,59.97361161,Chrome,1280,800,,,,,,,,,,,,,,,,,,,,,,,167,S,star,1,0,,,1,,,,,,k,0.8471,8,0,8,0,1,,,,,,,,,,,,,,,,,,,,,,,,,,,,,,,,,,
297007,2022-11-21_10h32.49.485,vts_reward_expectancy_bt,2022.2.4,MacIntel,59.97361161,Chrome,1280,800,,,,,,,,,,,,,,,,,,,,,,,174,U,hexagon,0,0,,,1,,,,,,,,9,0,9,0,1,,,,,,,,,,,,,,,,,,,,,,,,,,,,,,,,,,
297007,2022-11-21_10h32.49.485,vts_reward_expectancy_bt,2022.2.4,MacIntel,59.97361161,Chrome,1280,800,,,,,0,657,,,,,,,,,,,,,,,,,139,H,circle,1,1,,,2,,,,,,,,,,,,,-1,number,NA,d,1.2446,vtsPrac,0,0,0,0,1,,,,,,,,,,,,,,,,,,,,,,,
297007,2022-11-21_10h32.49.485,vts_reward_expectancy_bt,2022.2.4,MacIntel,59.97361161,Chrome,1280,800,,,,,0,657,,,,,,,,,,,,,,,,,167,B,hexagon,1,0,,,2,,,,,,,,,,,,,switch,letter,lettSwt,j,0.7802,vtsPrac,1,0,1,0,1,,,,,,,,,,,,,,,,,,,,,,,
297007,2022-11-21_10h32.49.485,vts_reward_expectancy_bt,2022.2.4,MacIntel,59.97361161,Chrome,1280,800,,,,,0,657,,,,,,,,,,,,,,,,,181,S,circle,1,0,,,2,,,,,,,,,,,,,switch,number,numSwt,f,0.9324,vtsPrac,2,0,2,0,1,,,,,,,,,,,,,,,,,,,,,,,
297007,2022-11-21_10h32.49.485,vts_reward_expectancy_bt,2022.2.4,MacIntel,59.97361161,Chrome,1280,800,,,,,0,657,,,,,,,,,,,,,,,,,132,F,hexagon,1,0,,,2,,,,,,,,,,,,,repeat,number,numRpt,d,0.9112,vtsPrac,3,0,3,0,1,,,,,,,,,,,,,,,,,,,,,,,
297007,2022-11-21_10h32.49.485,vts_reward_expectancy_bt,2022.2.4,MacIntel,59.97361161,Chrome,1280,800,,,,,0,657,,,,,,,,,,,,,,,,,139,H,circle,1,0,,,2,,,,,,,,,,,,,switch,letter,lettSwt,j,0.8803,vtsPrac,4,0,4,0,1,,,,,,,,,,,,,,,,,,,,,,,
297007,2022-11-21_10h32.49.485,vts_reward_expectancy_bt,2022.2.4,MacIntel,59.97361161,Chrome,1280,800,,,,,0,657,,,,,,,,,,,,,,,,,167,B,triangle,1,0,,,2,,,,,,,,,,,,,repeat,letter,lettRpt,j,0.6159,vtsPrac,5,0,5,0,1,,,,,,,,,,,,,,,,,,,,,,,
297007,2022-11-21_10h32.49.485,vts_reward_expectancy_bt,2022.2.4,MacIntel,59.97361161,Chrome,1280,800,,,,,0,657,,,,,,,,,,,,,,,,,181,S,triangle,1,0,,,2,,,,,,,,,,,,,switch,number,numSwt,f,0.8304,vtsPrac,6,0,6,0,1,,,,,,,,,,,,,,,,,,,,,,,
297007,2022-11-21_10h32.49.485,vts_reward_expectancy_bt,2022.2.4,MacIntel,59.97361161,Chrome,1280,800,,,,,0,657,,,,,,,,,,,,,,,,,132,F,circle,0,0,,,2,,,,,,,,,,,,,switch,letter,NA,k,0.9142,vtsPrac,7,0,7,0,1,,,,,,,,,,,,,,,,,,,,,,,
297007,2022-11-21_10h32.49.485,vts_reward_expectancy_bt,2022.2.4,MacIntel,59.97361161,Chrome,1280,800,,,,,0,657,,,,,,,,,,,,,,,,,139,Y,star,1,1,,,2,,,,,,,,,,,,,repeat,letter,lettRpt,k,0.9482,vtsPrac,8,0,8,0,1,,,,,,,,,,,,,,,,,,,,,,,
297007,2022-11-21_10h32.49.485,vts_reward_expectancy_bt,2022.2.4,MacIntel,59.97361161,Chrome,1280,800,,,,,0,657,,,,,,,,,,,,,,,,,132,B,triangle,1,0,,,2,,,,,,,,,,,,,switch,number,numSwt,d,1.2473,vtsPrac,9,0,9,0,1,,,,,,,,,,,,,,,,,,,,,,,
297007,2022-11-21_10h32.49.485,vts_reward_expectancy_bt,2022.2.4,MacIntel,59.97361161,Chrome,1280,800,,,,,0,657,,,,,,,,,,,,,,,,,125,U,star,1,0,,,2,,,,,,,,,,,,,repeat,number,numRpt,d,0.8512,vtsPrac,10,0,10,0,1,,,,,,,,,,,,,,,,,,,,,,,
297007,2022-11-21_10h32.49.485,vts_reward_expectancy_bt,2022.2.4,MacIntel,59.97361161,Chrome,1280,800,,,,,0,657,,,,,,,,,,,,,,,,,174,S,circle,1,0,,,2,,,,,,,,,,,,,switch,letter,lettSwt,k,0.8314,vtsPrac,11,0,11,0,1,,,,,,,,,,,,,,,,,,,,,,,
297007,2022-11-21_10h32.49.485,vts_reward_expectancy_bt,2022.2.4,MacIntel,59.97361161,Chrome,1280,800,,,,,0,657,,,,,,,,,,,,,,,,,174,D,circle,1,0,,,2,,,,,,,,,,,,,repeat,letter,lettRpt,j,2.6009,vtsPrac,12,0,12,0,1,,,,,,,,,,,,,,,,,,,,,,,
297007,2022-11-21_10h32.49.485,vts_reward_expectancy_bt,2022.2.4,MacIntel,59.97361161,Chrome,1280,800,,,,,0,657,,,,,,,,,,,,,,,,,139,U,star,-1,0,,,2,,,,,,,,,,,,,switch,no_choice,NA,,,vtsPrac,13,0,13,0,1,,,,,,,,,,,,,,,,,,,,,,,
297007,2022-11-21_10h32.49.485,vts_reward_expectancy_bt,2022.2.4,MacIntel,59.97361161,Chrome,1280,800,,,,,0,657,,,,,,,,,,,,,,,,,167,W,circle,1,0,,,2,,,,,,,,,,,,,switch,number,numSwt,f,1.0682,vtsPrac,14,0,14,0,1,,,,,,,,,,,,,,,,,,,,,,,
297007,2022-11-21_10h32.49.485,vts_reward_expectancy_bt,2022.2.4,MacIntel,59.97361161,Chrome,1280,800,,,,,0,657,,,,,,,,,,,,,,,,,132,S,hexagon,1,0,,,2,,,,,,,,,,,,,repeat,number,numRpt,d,0.8145,vtsPrac,15,0,15,0,1,,,,,,,,,,,,,,,,,,,,,,,
297007,2022-11-21_10h32.49.485,vts_reward_expectancy_bt,2022.2.4,MacIntel,59.97361161,Chrome,1280,800,,,,,0,657,,,,,,,,,,,,,,,,,174,Y,hexagon,1,0,,,2,,,,,,,,,,,,,repeat,number,numRpt,f,1.1459,vtsPrac,16,0,16,0,1,,,,,,,,,,,,,,,,,,,,,,,
297007,2022-11-21_10h32.49.485,vts_reward_expectancy_bt,2022.2.4,MacIntel,59.97361161,Chrome,1280,800,,,,,0,657,,,,,,,,,,,,,,,,,132,B,circle,1,0,,,2,,,,,,,,,,,,,switch,letter,lettSwt,j,0.3967,vtsPrac,17,0,17,0,1,,,,,,,,,,,,,,,,,,,,,,,
297007,2022-11-21_10h32.49.485,vts_reward_expectancy_bt,2022.2.4,MacIntel,59.97361161,Chrome,1280,800,,,,,0,657,,,,,,,,,,,,,,,,,167,U,triangle,1,0,,,2,,,,,,,,,,,,,repeat,letter,lettRpt,k,0.5144,vtsPrac,18,0,18,0,1,,,,,,,,,,,,,,,,,,,,,,,
297007,2022-11-21_10h32.49.485,vts_reward_expectancy_bt,2022.2.4,MacIntel,59.97361161,Chrome,1280,800,,,,,0,657,,,,,,,,,,,,,,,,,160,D,star,1,0,,,2,,,,,,,,,,,,,repeat,letter,lettRpt,j,0.8,vtsPrac,19,0,19,0,1,,,,,,,,,,,,,,,,,,,,,,,
297007,2022-11-21_10h32.49.485,vts_reward_expectancy_bt,2022.2.4,MacIntel,59.97361161,Chrome,1280,800,,,,,0,657,,,,,,,,,,,,,,,,,167,Y,star,1,0,,,2,,,,,,,,,,,,,switch,number,numSwt,f,0.8335,vtsPrac,20,0,20,0,1,,,,,,,,,,,,,,,,,,,,,,,
297007,2022-11-21_10h32.49.485,vts_reward_expectancy_bt,2022.2.4,MacIntel,59.97361161,Chrome,1280,800,,,,,0,657,,,,,,,,,,,,,,,,,139,W,circle,1,0,,,2,,,,,,,,,,,,,repeat,number,numRpt,d,1.0966,vtsPrac,21,0,21,0,1,,,,,,,,,,,,,,,,,,,,,,,
297007,2022-11-21_10h32.49.485,vts_reward_expectancy_bt,2022.2.4,MacIntel,59.97361161,Chrome,1280,800,,,,,0,657,,,,,,,,,,,,,,,,,160,B,circle,1,0,,,2,,,,,,,,,,,,,repeat,number,numRpt,f,0.8635,vtsPrac,22,0,22,0,1,,,,,,,,,,,,,,,,,,,,,,,
297007,2022-11-21_10h32.49.485,vts_reward_expectancy_bt,2022.2.4,MacIntel,59.97361161,Chrome,1280,800,,,,,0,657,,,,,,,,,,,,,,,,,174,S,star,1,0,,,2,,,,,,,,,,,,,switch,letter,lettSwt,k,0.785,vtsPrac,23,0,23,0,1,,,,,,,,,,,,,,,,,,,,,,,
297007,2022-11-21_10h32.49.485,vts_reward_expectancy_bt,2022.2.4,MacIntel,59.97361161,Chrome,1280,800,,,,,0,657,,,,,,,,,,,,,,,,,146,D,hexagon,1,0,,,2,,,,,,,,,,,,,repeat,letter,lettRpt,j,0.7466,vtsPrac,24,0,24,0,1,,,,,,,,,,,,,,,,,,,,,,,
297007,2022-11-21_10h32.49.485,vts_reward_expectancy_bt,2022.2.4,MacIntel,59.97361161,Chrome,1280,800,,,,,0,657,,,,,,,,,,,,,,,,,174,F,circle,1,0,,,2,,,,,,,,,,,,,switch,number,numSwt,f,0.847,vtsPrac,25,0,25,0,1,,,,,,,,,,,,,,,,,,,,,,,
297007,2022-11-21_10h32.49.485,vts_reward_expectancy_bt,2022.2.4,MacIntel,59.97361161,Chrome,1280,800,,,,,0,657,,,,,,,,,,,,,,,,,167,H,circle,1,0,,,2,,,,,,,,,,,,,switch,letter,lettSwt,j,1.0012,vtsPrac,26,0,26,0,1,,,,,,,,,,,,,,,,,,,,,,,
297007,2022-11-21_10h32.49.485,vts_reward_expectancy_bt,2022.2.4,MacIntel,59.97361161,Chrome,1280,800,,,,,0,657,,,,,,,,,,,,,,,,,160,W,triangle,1,0,,,2,,,,,,,,,,,,,switch,number,numSwt,f,1.0638,vtsPrac,27,0,27,0,1,,,,,,,,,,,,,,,,,,,,,,,
297007,2022-11-21_10h32.49.485,vts_reward_expectancy_bt,2022.2.4,MacIntel,59.97361161,Chrome,1280,800,,,,,0,657,,,,,,,,,,,,,,,,,125,H,star,1,0,,,2,,,,,,,,,,,,,switch,letter,lettSwt,j,0.9312,vtsPrac,28,0,28,0,1,,,,,,,,,,,,,,,,,,,,,,,
297007,2022-11-21_10h32.49.485,vts_reward_expectancy_bt,2022.2.4,MacIntel,59.97361161,Chrome,1280,800,,,,,0,657,,,,,,,,,,,,,,,,,132,B,circle,1,0,,,2,,,,,,,,,,,,,switch,number,numSwt,d,0.7838,vtsPrac,29,0,29,0,1,,,,,,,,,,,,,,,,,,,,,,,
297007,2022-11-21_10h32.49.485,vts_reward_expectancy_bt,2022.2.4,MacIntel,59.97361161,Chrome,1280,800,,,,,0,657,,,,,,,,,,,,,,,,,181,U,star,1,0,,,2,,,,,,,,,,,,,switch,letter,lettSwt,k,1.0346,vtsPrac,30,0,30,0,1,,,,,,,,,,,,,,,,,,,,,,,
297007,2022-11-21_10h32.49.485,vts_reward_expectancy_bt,2022.2.4,MacIntel,59.97361161,Chrome,1280,800,,,,,0,657,,,,,,,,,,,,,,,,,139,W,circle,1,0,,,2,,,,,,,,,,,,,switch,number,numSwt,d,0.9167,vtsPrac,31,0,31,0,1,,,,,,,,,,,,,,,,,,,,,,,
297007,2022-11-21_10h32.49.485,vts_reward_expectancy_bt,2022.2.4,MacIntel,59.97361161,Chrome,1280,800,,,,,,,,,,,,,,,,,,,,,,,,,,,,,,,,,,,,,,,,,,,,,,,,,,,,,,,,,,,,,,,,,,,,,,,,,,,,
297007,2022-11-21_10h32.49.485,vts_reward_expectancy_bt,2022.2.4,MacIntel,59.97361161,Chrome,1280,800,,,,,,,,,,,,,,,,,,,,,,,,,,,,,,,,,,,,,,,,,,,,,,,,,,,,,,,,,,,,,,,,,,,,,,,,,,,,
297007,2022-11-21_10h32.49.485,vts_reward_expectancy_bt,2022.2.4,MacIntel,59.97361161,Chrome,1280,800,,,,,0,657,,,,,,,,,,,,,,,,,139,D,circle,1,0,,,,,,,,,,,,,,,,repeat,number,numRpt,d,1.4158,noRew,,,,,,0,0,0,0,0,1,,,,,,,,,,,,,,,,,
297007,2022-11-21_10h32.49.485,vts_reward_expectancy_bt,2022.2.4,MacIntel,59.97361161,Chrome,1280,800,,,,,0,657,,,,,,,,,,,,,,,,,125,Y,star,1,0,,,,,,,,,,,,,,,,switch,letter,lettSwt,k,0.8137,noRew,,,,,,0,1,0,1,0,1,,,,,,,,,,,,,,,,,
297007,2022-11-21_10h32.49.485,vts_reward_expectancy_bt,2022.2.4,MacIntel,59.97361161,Chrome,1280,800,,,,,0,657,,,,,,,,,,,,,,,,,167,U,circle,1,0,,,,,,,,,,,,,,,,switch,number,numSwt,f,1.1651,noRew,,,,,,0,2,0,2,0,1,,,,,,,,,,,,,,,,,
297007,2022-11-21_10h32.49.485,vts_reward_expectancy_bt,2022.2.4,MacIntel,59.97361161,Chrome,1280,800,,,,,0,657,,,,,,,,,,,,,,,,,160,S,star,1,0,,,,,,,,,,,,,,,,repeat,number,numRpt,f,0.8014,noRew,,,,,,0,3,0,3,0,1,,,,,,,,,,,,,,,,,
297007,2022-11-21_10h32.49.485,vts_reward_expectancy_bt,2022.2.4,MacIntel,59.97361161,Chrome,1280,800,,,,,0,657,,,,,,,,,,,,,,,,,139,D,triangle,1,0,,,,,,,,,,,,,,,,switch,letter,lettSwt,j,1.4814,noRew,,,,,,0,4,0,4,0,1,,,,,,,,,,,,,,,,,
297007,2022-11-21_10h32.49.485,vts_reward_expectancy_bt,2022.2.4,MacIntel,59.97361161,Chrome,1280,800,,,,,0,657,,,,,,,,,,,,,,,,,125,Y,circle,1,0,,,,,,,,,,,,,,,,repeat,letter,lettRpt,k,0.4479,noRew,,,,,,0,5,0,5,0,1,,,,,,,,,,,,,,,,,
297007,2022-11-21_10h32.49.485,vts_reward_expectancy_bt,2022.2.4,MacIntel,59.97361161,Chrome,1280,800,,,,,0,657,,,,,,,,,,,,,,,,,167,U,triangle,1,0,,,,,,,,,,,,,,,,switch,number,numSwt,f,0.9133,noRew,,,,,,0,6,0,6,0,1,,,,,,,,,,,,,,,,,
297007,2022-11-21_10h32.49.485,vts_reward_expectancy_bt,2022.2.4,MacIntel,59.97361161,Chrome,1280,800,,,,,0,657,,,,,,,,,,,,,,,,,160,S,hexagon,1,0,,,,,,,,,,,,,,,,switch,letter,lettSwt,k,1.9969,noRew,,,,,,0,7,0,7,0,1,,,,,,,,,,,,,,,,,
297007,2022-11-21_10h32.49.485,vts_reward_expectancy_bt,2022.2.4,MacIntel,59.97361161,Chrome,1280,800,,,,,0,657,,,,,,,,,,,,,,,,,160,W,triangle,1,0,,,,,,,,,,,,,,,,switch,number,numSwt,f,2.4162,noRew,,,,,,0,8,0,8,0,1,,,,,,,,,,,,,,,,,
297007,2022-11-21_10h32.49.485,vts_reward_expectancy_bt,2022.2.4,MacIntel,59.97361161,Chrome,1280,800,,,,,0,657,,,,,,,,,,,,,,,,,146,Y,circle,1,0,,,,,,,,,,,,,,,,repeat,number,numRpt,d,1.3694,noRew,,,,,,0,9,0,9,0,1,,,,,,,,,,,,,,,,,
297007,2022-11-21_10h32.49.485,vts_reward_expectancy_bt,2022.2.4,MacIntel,59.97361161,Chrome,1280,800,,,,,0,657,,,,,,,,,,,,,,,,,125,F,hexagon,1,0,,,,,,,,,,,,,,,,switch,letter,lettSwt,j,0.9473,noRew,,,,,,0,10,0,10,0,1,,,,,,,,,,,,,,,,,
297007,2022-11-21_10h32.49.485,vts_reward_expectancy_bt,2022.2.4,MacIntel,59.97361161,Chrome,1280,800,,,,,0,657,,,,,,,,,,,,,,,,,139,H,triangle,1,0,,,,,,,,,,,,,,,,switch,number,numSwt,d,1.5977,noRew,,,,,,0,11,0,11,0,1,,,,,,,,,,,,,,,,,
297007,2022-11-21_10h32.49.485,vts_reward_expectancy_bt,2022.2.4,MacIntel,59.97361161,Chrome,1280,800,,,,,0,657,,,,,,,,,,,,,,,,,139,Y,star,1,0,,,,,,,,,,,,,,,,switch,letter,lettSwt,k,0.899,noRew,,,,,,0,12,0,12,0,1,,,,,,,,,,,,,,,,,
297007,2022-11-21_10h32.49.485,vts_reward_expectancy_bt,2022.2.4,MacIntel,59.97361161,Chrome,1280,800,,,,,0,657,,,,,,,,,,,,,,,,,146,H,circle,1,0,,,,,,,,,,,,,,,,repeat,letter,lettRpt,j,0.6636,noRew,,,,,,0,13,0,13,0,1,,,,,,,,,,,,,,,,,
297007,2022-11-21_10h32.49.485,vts_reward_expectancy_bt,2022.2.4,MacIntel,59.97361161,Chrome,1280,800,,,,,0,657,,,,,,,,,,,,,,,,,174,D,circle,1,0,,,,,,,,,,,,,,,,repeat,letter,lettRpt,j,0.734,noRew,,,,,,0,14,0,14,0,1,,,,,,,,,,,,,,,,,
297007,2022-11-21_10h32.49.485,vts_reward_expectancy_bt,2022.2.4,MacIntel,59.97361161,Chrome,1280,800,,,,,0,657,,,,,,,,,,,,,,,,,132,S,triangle,1,0,,,,,,,,,,,,,,,,switch,number,numSwt,d,1.3494,noRew,,,,,,0,15,0,15,0,1,,,,,,,,,,,,,,,,,
297007,2022-11-21_10h32.49.485,vts_reward_expectancy_bt,2022.2.4,MacIntel,59.97361161,Chrome,1280,800,,,,,0,657,,,,,,,,,,,,,,,,,181,B,circle,1,0,,,,,,,,,,,,,,,,repeat,number,numRpt,f,1.2797,noRew,,,,,,0,16,0,16,0,1,,,,,,,,,,,,,,,,,
297007,2022-11-21_10h32.49.485,vts_reward_expectancy_bt,2022.2.4,MacIntel,59.97361161,Chrome,1280,800,,,,,0,657,,,,,,,,,,,,,,,,,160,F,star,1,0,,,,,,,,,,,,,,,,repeat,number,numRpt,f,0.7643,noRew,,,,,,0,17,0,17,0,1,,,,,,,,,,,,,,,,,
297007,2022-11-21_10h32.49.485,vts_reward_expectancy_bt,2022.2.4,MacIntel,59.97361161,Chrome,1280,800,,,,,0,657,,,,,,,,,,,,,,,,,132,W,star,1,0,,,,,,,,,,,,,,,,repeat,number,numRpt,d,0.7633,noRew,,,,,,0,18,0,18,0,1,,,,,,,,,,,,,,,,,
297007,2022-11-21_10h32.49.485,vts_reward_expectancy_bt,2022.2.4,MacIntel,59.97361161,Chrome,1280,800,,,,,0,657,,,,,,,,,,,,,,,,,167,Y,triangle,1,0,,,,,,,,,,,,,,,,switch,letter,lettSwt,k,0.785,noRew,,,,,,0,19,0,19,0,1,,,,,,,,,,,,,,,,,
297007,2022-11-21_10h32.49.485,vts_reward_expectancy_bt,2022.2.4,MacIntel,59.97361161,Chrome,1280,800,,,,,0,657,,,,,,,,,,,,,,,,,132,Y,star,1,0,,,,,,,,,,,,,,,,switch,number,numSwt,d,0.9823,noRew,,,,,,0,20,0,20,0,1,,,,,,,,,,,,,,,,,
297007,2022-11-21_10h32.49.485,vts_reward_expectancy_bt,2022.2.4,MacIntel,59.97361161,Chrome,1280,800,,,,,0,657,,,,,,,,,,,,,,,,,181,U,triangle,1,0,,,,,,,,,,,,,,,,repeat,number,numRpt,f,0.7477,noRew,,,,,,0,21,0,21,0,1,,,,,,,,,,,,,,,,,
297007,2022-11-21_10h32.49.485,vts_reward_expectancy_bt,2022.2.4,MacIntel,59.97361161,Chrome,1280,800,,,,,0,657,,,,,,,,,,,,,,,,,167,W,circle,1,0,,,,,,,,,,,,,,,,switch,letter,lettSwt,k,0.985,noRew,,,,,,0,22,0,22,0,1,,,,,,,,,,,,,,,,,
297007,2022-11-21_10h32.49.485,vts_reward_expectancy_bt,2022.2.4,MacIntel,59.97361161,Chrome,1280,800,,,,,0,657,,,,,,,,,,,,,,,,,160,S,star,1,0,,,,,,,,,,,,,,,,repeat,letter,lettRpt,k,1.2983,noRew,,,,,,0,23,0,23,0,1,,,,,,,,,,,,,,,,,
297007,2022-11-21_10h32.49.485,vts_reward_expectancy_bt,2022.2.4,MacIntel,59.97361161,Chrome,1280,800,,,,,0,657,,,,,,,,,,,,,,,,,174,H,circle,1,0,,,,,,,,,,,,,,,,repeat,letter,lettRpt,j,1.0669,noRew,,,,,,0,24,0,24,0,1,,,,,,,,,,,,,,,,,
297007,2022-11-21_10h32.49.485,vts_reward_expectancy_bt,2022.2.4,MacIntel,59.97361161,Chrome,1280,800,,,,,0,657,,,,,,,,,,,,,,,,,125,S,star,1,0,,,,,,,,,,,,,,,,switch,number,numSwt,d,1.0802,noRew,,,,,,0,25,0,25,0,1,,,,,,,,,,,,,,,,,
297007,2022-11-21_10h32.49.485,vts_reward_expectancy_bt,2022.2.4,MacIntel,59.97361161,Chrome,1280,800,,,,,0,657,,,,,,,,,,,,,,,,,139,D,circle,1,0,,,,,,,,,,,,,,,,repeat,number,numRpt,d,1.0641,noRew,,,,,,0,26,0,26,0,1,,,,,,,,,,,,,,,,,
297007,2022-11-21_10h32.49.485,vts_reward_expectancy_bt,2022.2.4,MacIntel,59.97361161,Chrome,1280,800,,,,,0,657,,,,,,,,,,,,,,,,,160,Y,star,1,0,,,,,,,,,,,,,,,,switch,letter,lettSwt,k,1.6994,noRew,,,,,,0,27,0,27,0,1,,,,,,,,,,,,,,,,,
297007,2022-11-21_10h32.49.485,vts_reward_expectancy_bt,2022.2.4,MacIntel,59.97361161,Chrome,1280,800,,,,,0,657,,,,,,,,,,,,,,,,,132,Y,hexagon,-1,0,,,,,,,,,,,,,,,,switch,no_choice,NA,,,noRew,,,,,,0,28,0,28,0,1,,,,,,,,,,,,,,,,,
297007,2022-11-21_10h32.49.485,vts_reward_expectancy_bt,2022.2.4,MacIntel,59.97361161,Chrome,1280,800,,,,,0,657,,,,,,,,,,,,,,,,,160,U,triangle,0,0,,,,,,,,,,,,,,,,switch,number,NA,d,1.1645,noRew,,,,,,0,29,0,29,0,1,,,,,,,,,,,,,,,,,
297007,2022-11-21_10h32.49.485,vts_reward_expectancy_bt,2022.2.4,MacIntel,59.97361161,Chrome,1280,800,,,,,0,657,,,,,,,,,,,,,,,,,181,F,hexagon,1,1,,,,,,,,,,,,,,,,repeat,number,numRpt,f,1.2843,noRew,,,,,,0,30,0,30,0,1,,,,,,,,,,,,,,,,,
297007,2022-11-21_10h32.49.485,vts_reward_expectancy_bt,2022.2.4,MacIntel,59.97361161,Chrome,1280,800,,,,,0,657,,,,,,,,,,,,,,,,,125,H,triangle,1,0,,,,,,,,,,,,,,,,switch,letter,lettSwt,j,1.0463,noRew,,,,,,0,31,0,31,0,1,,,,,,,,,,,,,,,,,
297007,2022-11-21_10h32.49.485,vts_reward_expectancy_bt,2022.2.4,MacIntel,59.97361161,Chrome,1280,800,,,,,0,657,,,,,,,,,,,,,,,,,125,S,circle,1,0,,,,,,,,,,,,,,,,repeat,letter,lettRpt,k,0.7985,noRew,,,,,,0,32,0,32,0,1,,,,,,,,,,,,,,,,,
297007,2022-11-21_10h32.49.485,vts_reward_expectancy_bt,2022.2.4,MacIntel,59.97361161,Chrome,1280,800,,,,,0,657,,,,,,,,,,,,,,,,,181,U,triangle,1,0,,,,,,,,,,,,,,,,repeat,letter,lettRpt,k,0.9964,noRew,,,,,,0,33,0,33,0,1,,,,,,,,,,,,,,,,,
297007,2022-11-21_10h32.49.485,vts_reward_expectancy_bt,2022.2.4,MacIntel,59.97361161,Chrome,1280,800,,,,,0,657,,,,,,,,,,,,,,,,,174,W,star,1,0,,,,,,,,,,,,,,,,switch,number,numSwt,f,0.9466,noRew,,,,,,0,34,0,34,0,1,,,,,,,,,,,,,,,,,
297007,2022-11-21_10h32.49.485,vts_reward_expectancy_bt,2022.2.4,MacIntel,59.97361161,Chrome,1280,800,,,,,0,657,,,,,,,,,,,,,,,,,160,Y,hexagon,1,0,,,,,,,,,,,,,,,,switch,letter,lettSwt,k,0.8826,noRew,,,,,,0,35,0,35,0,1,,,,,,,,,,,,,,,,,
297007,2022-11-21_10h32.49.485,vts_reward_expectancy_bt,2022.2.4,MacIntel,59.97361161,Chrome,1280,800,,,,,0,657,,,,,,,,,,,,,,,,,167,Y,star,1,0,,,,,,,,,,,,,,,,repeat,letter,lettRpt,k,1.4162,noRew,,,,,,0,36,0,36,0,1,,,,,,,,,,,,,,,,,
297007,2022-11-21_10h32.49.485,vts_reward_expectancy_bt,2022.2.4,MacIntel,59.97361161,Chrome,1280,800,,,,,0,657,,,,,,,,,,,,,,,,,174,H,circle,1,0,,,,,,,,,,,,,,,,switch,number,numSwt,f,1.1643,noRew,,,,,,0,37,0,37,0,1,,,,,,,,,,,,,,,,,
297007,2022-11-21_10h32.49.485,vts_reward_expectancy_bt,2022.2.4,MacIntel,59.97361161,Chrome,1280,800,,,,,0,657,,,,,,,,,,,,,,,,,181,W,hexagon,1,0,,,,,,,,,,,,,,,,repeat,number,numRpt,f,0.6003,noRew,,,,,,0,38,0,38,0,1,,,,,,,,,,,,,,,,,
297007,2022-11-21_10h32.49.485,vts_reward_expectancy_bt,2022.2.4,MacIntel,59.97361161,Chrome,1280,800,,,,,0,657,,,,,,,,,,,,,,,,,125,U,triangle,1,0,,,,,,,,,,,,,,,,repeat,number,numRpt,d,0.7647,noRew,,,,,,0,39,0,39,0,1,,,,,,,,,,,,,,,,,
297007,2022-11-21_10h32.49.485,vts_reward_expectancy_bt,2022.2.4,MacIntel,59.97361161,Chrome,1280,800,,,,,0,657,,,,,,,,,,,,,,,,,160,U,hexagon,1,0,,,,,,,,,,,,,,,,switch,letter,lettSwt,k,0.4687,noRew,,,,,,0,40,0,40,0,1,,,,,,,,,,,,,,,,,
297007,2022-11-21_10h32.49.485,vts_reward_expectancy_bt,2022.2.4,MacIntel,59.97361161,Chrome,1280,800,,,,,0,657,,,,,,,,,,,,,,,,,181,B,star,1,0,,,,,,,,,,,,,,,,repeat,letter,lettRpt,j,0.6977,noRew,,,,,,0,41,0,41,0,1,,,,,,,,,,,,,,,,,
297007,2022-11-21_10h32.49.485,vts_reward_expectancy_bt,2022.2.4,MacIntel,59.97361161,Chrome,1280,800,,,,,0,657,,,,,,,,,,,,,,,,,146,D,triangle,1,0,,,,,,,,,,,,,,,,switch,number,numSwt,d,0.7475,noRew,,,,,,0,42,0,42,0,1,,,,,,,,,,,,,,,,,
297007,2022-11-21_10h32.49.485,vts_reward_expectancy_bt,2022.2.4,MacIntel,59.97361161,Chrome,1280,800,,,,,0,657,,,,,,,,,,,,,,,,,139,S,circle,1,0,,,,,,,,,,,,,,,,repeat,number,numRpt,d,1.0283,noRew,,,,,,0,43,0,43,0,1,,,,,,,,,,,,,,,,,
297007,2022-11-21_10h32.49.485,vts_reward_expectancy_bt,2022.2.4,MacIntel,59.97361161,Chrome,1280,800,,,,,0,657,,,,,,,,,,,,,,,,,167,U,star,1,0,,,,,,,,,,,,,,,,repeat,number,numRpt,f,1.3845,noRew,,,,,,0,44,0,44,0,1,,,,,,,,,,,,,,,,,
297007,2022-11-21_10h32.49.485,vts_reward_expectancy_bt,2022.2.4,MacIntel,59.97361161,Chrome,1280,800,,,,,0,657,,,,,,,,,,,,,,,,,132,D,hexagon,1,0,,,,,,,,,,,,,,,,switch,letter,lettSwt,j,0.8149,noRew,,,,,,0,45,0,45,0,1,,,,,,,,,,,,,,,,,
297007,2022-11-21_10h32.49.485,vts_reward_expectancy_bt,2022.2.4,MacIntel,59.97361161,Chrome,1280,800,,,,,0,657,,,,,,,,,,,,,,,,,160,Y,star,1,0,,,,,,,,,,,,,,,,repeat,letter,lettRpt,k,0.8643,noRew,,,,,,0,46,0,46,0,1,,,,,,,,,,,,,,,,,
297007,2022-11-21_10h32.49.485,vts_reward_expectancy_bt,2022.2.4,MacIntel,59.97361161,Chrome,1280,800,,,,,0,657,,,,,,,,,,,,,,,,,174,H,triangle,1,0,,,,,,,,,,,,,,,,switch,number,numSwt,f,1.0669,noRew,,,,,,0,47,0,47,0,1,,,,,,,,,,,,,,,,,
297007,2022-11-21_10h32.49.485,vts_reward_expectancy_bt,2022.2.4,MacIntel,59.97361161,Chrome,1280,800,,,,,0,657,,,,,,,,,,,,,,,,,174,S,star,1,0,,,,,,,,,,,,,,,,repeat,number,numRpt,f,0.8823,noRew,,,,,,0,48,0,48,0,1,,,,,,,,,,,,,,,,,
297007,2022-11-21_10h32.49.485,vts_reward_expectancy_bt,2022.2.4,MacIntel,59.97361161,Chrome,1280,800,,,,,0,657,,,,,,,,,,,,,,,,,160,F,hexagon,1,0,,,,,,,,,,,,,,,,switch,letter,lettSwt,j,0.9627,noRew,,,,,,0,49,0,49,0,1,,,,,,,,,,,,,,,,,
297007,2022-11-21_10h32.49.485,vts_reward_expectancy_bt,2022.2.4,MacIntel,59.97361161,Chrome,1280,800,,,,,0,657,,,,,,,,,,,,,,,,,146,D,star,1,0,,,,,,,,,,,,,,,,switch,number,numSwt,d,1.2319,noRew,,,,,,0,50,0,50,0,1,,,,,,,,,,,,,,,,,
297007,2022-11-21_10h32.49.485,vts_reward_expectancy_bt,2022.2.4,MacIntel,59.97361161,Chrome,1280,800,,,,,0,657,,,,,,,,,,,,,,,,,181,W,circle,1,0,,,,,,,,,,,,,,,,repeat,number,numRpt,f,0.9837,noRew,,,,,,0,51,0,51,0,1,,,,,,,,,,,,,,,,,
297007,2022-11-21_10h32.49.485,vts_reward_expectancy_bt,2022.2.4,MacIntel,59.97361161,Chrome,1280,800,,,,,0,657,,,,,,,,,,,,,,,,,125,S,star,1,0,,,,,,,,,,,,,,,,switch,letter,lettSwt,k,0.9817,noRew,,,,,,0,52,0,52,0,1,,,,,,,,,,,,,,,,,
297007,2022-11-21_10h32.49.485,vts_reward_expectancy_bt,2022.2.4,MacIntel,59.97361161,Chrome,1280,800,,,,,0,657,,,,,,,,,,,,,,,,,146,B,triangle,1,0,,,,,,,,,,,,,,,,switch,number,numSwt,d,0.8303,noRew,,,,,,0,53,0,53,0,1,,,,,,,,,,,,,,,,,
297007,2022-11-21_10h32.49.485,vts_reward_expectancy_bt,2022.2.4,MacIntel,59.97361161,Chrome,1280,800,,,,,0,657,,,,,,,,,,,,,,,,,167,H,star,1,0,,,,,,,,,,,,,,,,repeat,number,numRpt,f,1.0165,noRew,,,,,,0,54,0,54,0,1,,,,,,,,,,,,,,,,,
297007,2022-11-21_10h32.49.485,vts_reward_expectancy_bt,2022.2.4,MacIntel,59.97361161,Chrome,1280,800,,,,,0,657,,,,,,,,,,,,,,,,,132,F,circle,1,0,,,,,,,,,,,,,,,,repeat,number,numRpt,d,1.1311,noRew,,,,,,0,55,0,55,0,1,,,,,,,,,,,,,,,,,
297007,2022-11-21_10h32.49.485,vts_reward_expectancy_bt,2022.2.4,MacIntel,59.97361161,Chrome,1280,800,,,,,0,657,,,,,,,,,,,,,,,,,139,Y,star,1,0,,,,,,,,,,,,,,,,switch,letter,lettSwt,k,0.7845,noRew,,,,,,0,56,0,56,0,1,,,,,,,,,,,,,,,,,
297007,2022-11-21_10h32.49.485,vts_reward_expectancy_bt,2022.2.4,MacIntel,59.97361161,Chrome,1280,800,,,,,0,657,,,,,,,,,,,,,,,,,160,B,triangle,1,0,,,,,,,,,,,,,,,,repeat,letter,lettRpt,j,0.7143,noRew,,,,,,0,57,0,57,0,1,,,,,,,,,,,,,,,,,
297007,2022-11-21_10h32.49.485,vts_reward_expectancy_bt,2022.2.4,MacIntel,59.97361161,Chrome,1280,800,,,,,0,657,,,,,,,,,,,,,,,,,146,D,star,1,0,,,,,,,,,,,,,,,,repeat,letter,lettRpt,j,1.0639,noRew,,,,,,0,58,0,58,0,1,,,,,,,,,,,,,,,,,
297007,2022-11-21_10h32.49.485,vts_reward_expectancy_bt,2022.2.4,MacIntel,59.97361161,Chrome,1280,800,,,,,0,657,,,,,,,,,,,,,,,,,167,W,triangle,1,0,,,,,,,,,,,,,,,,repeat,letter,lettRpt,k,0.6306,noRew,,,,,,0,59,0,59,0,1,,,,,,,,,,,,,,,,,
297007,2022-11-21_10h32.49.485,vts_reward_expectancy_bt,2022.2.4,MacIntel,59.97361161,Chrome,1280,800,,,,,0,657,,,,,,,,,,,,,,,,,125,F,circle,1,0,,,,,,,,,,,,,,,,repeat,letter,lettRpt,j,0.5637,noRew,,,,,,0,60,0,60,0,1,,,,,,,,,,,,,,,,,
297007,2022-11-21_10h32.49.485,vts_reward_expectancy_bt,2022.2.4,MacIntel,59.97361161,Chrome,1280,800,,,,,0,657,,,,,,,,,,,,,,,,,174,Y,triangle,1,0,,,,,,,,,,,,,,,,switch,number,numSwt,f,1.7311,noRew,,,,,,0,61,0,61,0,1,,,,,,,,,,,,,,,,,
297007,2022-11-21_10h32.49.485,vts_reward_expectancy_bt,2022.2.4,MacIntel,59.97361161,Chrome,1280,800,,,,,0,657,,,,,,,,,,,,,,,,,146,W,triangle,1,0,,,,,,,,,,,,,,,,repeat,number,numRpt,d,1.5807,noRew,,,,,,0,62,0,62,0,1,,,,,,,,,,,,,,,,,
297007,2022-11-21_10h32.49.485,vts_reward_expectancy_bt,2022.2.4,MacIntel,59.97361161,Chrome,1280,800,,,,,0,657,,,,,,,,,,,,,,,,,132,U,star,1,0,,,,,,,,,,,,,,,,repeat,number,numRpt,d,1.1679,noRew,,,,,,0,63,0,63,0,1,,,,,,,,,,,,,,,,,
297007,2022-11-21_10h32.49.485,vts_reward_expectancy_bt,2022.2.4,MacIntel,59.97361161,Chrome,1280,800,,,,,,,,,,,,,,,,,,,,,,,,,,,,,,,,,,,,,,,,,,,,,,,,,,,,,,,,,,,,,,,,,,,,,,,,,,,,
297007,2022-11-21_10h32.49.485,vts_reward_expectancy_bt,2022.2.4,MacIntel,59.97361161,Chrome,1280,800,,,,,1,658,,,,,,,,,,,,,,,,,174,H,circle,1,0,,,,,,,,,,,,,,,,repeat,number,numRpt,f,1.4493,Lo,,,,,,0,,,,,,space,5.5544,high,0,0,0,0,1,,,,,,,,,
297007,2022-11-21_10h32.49.485,vts_reward_expectancy_bt,2022.2.4,MacIntel,59.97361161,Chrome,1280,800,,,,,10,668,,,,,,,,,,,,,,,,,160,B,triangle,1,0,,,,,,,,,,,,,,,,switch,letter,lettSwt,j,0.7638,Hi,,,,,,0,,,,,,,,high,1,0,1,0,1,,,,,,,,,
297007,2022-11-21_10h32.49.485,vts_reward_expectancy_bt,2022.2.4,MacIntel,59.97361161,Chrome,1280,800,,,,,1,669,,,,,,,,,,,,,,,,,139,U,hexagon,1,0,,,,,,,,,,,,,,,,switch,number,numSwt,d,1.6483,Lo,,,,,,0,,,,,,,,high,2,0,2,0,1,,,,,,,,,
297007,2022-11-21_10h32.49.485,vts_reward_expectancy_bt,2022.2.4,MacIntel,59.97361161,Chrome,1280,800,,,,,0,669,,,,,,,,,,,,,,,,,132,F,star,1,0,,,,,,,,,,,,,,,,switch,letter,lettSwt,j,1.1975,Hi,,,,,,0,,,,,,,,high,3,0,3,0,1,,,,,,,,,
297007,2022-11-21_10h32.49.485,vts_reward_expectancy_bt,2022.2.4,MacIntel,59.97361161,Chrome,1280,800,,,,,1,670,,,,,,,,,,,,,,,,,167,S,circle,1,0,,,,,,,,,,,,,,,,switch,number,numSwt,f,0.58,Lo,,,,,,0,,,,,,,,high,4,0,4,0,1,,,,,,,,,
297007,2022-11-21_10h32.49.485,vts_reward_expectancy_bt,2022.2.4,MacIntel,59.97361161,Chrome,1280,800,,,,,0,670,,,,,,,,,,,,,,,,,146,W,triangle,1,0,,,,,,,,,,,,,,,,repeat,number,numRpt,d,1.0817,Hi,,,,,,0,,,,,,,,high,5,0,5,0,1,,,,,,,,,
297007,2022-11-21_10h32.49.485,vts_reward_expectancy_bt,2022.2.4,MacIntel,59.97361161,Chrome,1280,800,,,,,10,680,,,,,,,,,,,,,,,,,125,D,hexagon,1,0,,,,,,,,,,,,,,,,switch,letter,lettSwt,j,0.5835,Lo,,,,,,0,,,,,,,,high,6,0,6,0,1,,,,,,,,,
297007,2022-11-21_10h32.49.485,vts_reward_expectancy_bt,2022.2.4,MacIntel,59.97361161,Chrome,1280,800,,,,,10,690,,,,,,,,,,,,,,,,,181,Y,star,1,0,,,,,,,,,,,,,,,,repeat,letter,lettRpt,k,0.3811,Hi,,,,,,0,,,,,,,,high,7,0,7,0,1,,,,,,,,,
297007,2022-11-21_10h32.49.485,vts_reward_expectancy_bt,2022.2.4,MacIntel,59.97361161,Chrome,1280,800,,,,,10,700,,,,,,,,,,,,,,,,,174,H,triangle,1,0,,,,,,,,,,,,,,,,switch,number,numSwt,f,0.8022,Hi,,,,,,0,,,,,,,,high,8,0,8,0,1,,,,,,,,,
297007,2022-11-21_10h32.49.485,vts_reward_expectancy_bt,2022.2.4,MacIntel,59.97361161,Chrome,1280,800,,,,,10,710,,,,,,,,,,,,,,,,,160,B,star,1,0,,,,,,,,,,,,,,,,repeat,number,numRpt,f,0.6818,Hi,,,,,,0,,,,,,,,high,9,0,9,0,1,,,,,,,,,
297007,2022-11-21_10h32.49.485,vts_reward_expectancy_bt,2022.2.4,MacIntel,59.97361161,Chrome,1280,800,,,,,1,711,,,,,,,,,,,,,,,,,139,U,hexagon,1,0,,,,,,,,,,,,,,,,repeat,number,numRpt,d,0.516,Lo,,,,,,0,,,,,,,,high,10,0,10,0,1,,,,,,,,,
297007,2022-11-21_10h32.49.485,vts_reward_expectancy_bt,2022.2.4,MacIntel,59.97361161,Chrome,1280,800,,,,,1,712,,,,,,,,,,,,,,,,,132,F,circle,1,0,,,,,,,,,,,,,,,,switch,letter,lettSwt,j,0.648,Lo,,,,,,0,,,,,,,,high,11,0,11,0,1,,,,,,,,,
297007,2022-11-21_10h32.49.485,vts_reward_expectancy_bt,2022.2.4,MacIntel,59.97361161,Chrome,1280,800,,,,,1,713,,,,,,,,,,,,,,,,,167,S,triangle,1,0,,,,,,,,,,,,,,,,switch,number,numSwt,f,0.5144,Hi,,,,,,0,,,,,,,,high,12,0,12,0,1,,,,,,,,,
297007,2022-11-21_10h32.49.485,vts_reward_expectancy_bt,2022.2.4,MacIntel,59.97361161,Chrome,1280,800,,,,,1,714,,,,,,,,,,,,,,,,,146,W,hexagon,1,0,,,,,,,,,,,,,,,,repeat,number,numRpt,d,0.6487,Lo,,,,,,0,,,,,,,,high,13,0,13,0,1,,,,,,,,,
297007,2022-11-21_10h32.49.485,vts_reward_expectancy_bt,2022.2.4,MacIntel,59.97361161,Chrome,1280,800,,,,,0,714,,,,,,,,,,,,,,,,,125,D,star,1,0,,,,,,,,,,,,,,,,switch,letter,lettSwt,j,0.9657,Hi,,,,,,0,,,,,,,,high,14,0,14,0,1,,,,,,,,,
297007,2022-11-21_10h32.49.485,vts_reward_expectancy_bt,2022.2.4,MacIntel,59.97361161,Chrome,1280,800,,,,,1,715,,,,,,,,,,,,,,,,,181,Y,circle,1,0,,,,,,,,,,,,,,,,repeat,letter,lettRpt,k,0.614,Lo,,,,,,0,,,,,,,,high,15,0,15,0,1,,,,,,,,,
297007,2022-11-21_10h32.49.485,vts_reward_expectancy_bt,2022.2.4,MacIntel,59.97361161,Chrome,1280,800,,,,,1,716,,,,,,,,,,,,,,,,,132,B,circle,1,0,,,,,,,,,,,,,,,,switch,number,numSwt,d,0.7643,Lo,,,,,,0,,,,,,,,high,16,0,16,0,1,,,,,,,,,
297007,2022-11-21_10h32.49.485,vts_reward_expectancy_bt,2022.2.4,MacIntel,59.97361161,Chrome,1280,800,,,,,10,726,,,,,,,,,,,,,,,,,125,F,triangle,1,0,,,,,,,,,,,,,,,,repeat,number,numRpt,d,0.5532,Hi,,,,,,0,,,,,,,,high,17,0,17,0,1,,,,,,,,,
297007,2022-11-21_10h32.49.485,vts_reward_expectancy_bt,2022.2.4,MacIntel,59.97361161,Chrome,1280,800,,,,,1,727,,,,,,,,,,,,,,,,,139,D,star,1,0,,,,,,,,,,,,,,,,switch,letter,lettSwt,j,0.5325,Hi,,,,,,0,,,,,,,,high,18,0,18,0,1,,,,,,,,,
297007,2022-11-21_10h32.49.485,vts_reward_expectancy_bt,2022.2.4,MacIntel,59.97361161,Chrome,1280,800,,,,,1,728,,,,,,,,,,,,,,,,,167,H,hexagon,1,0,,,,,,,,,,,,,,,,switch,number,numSwt,f,0.8643,Lo,,,,,,0,,,,,,,,high,19,0,19,0,1,,,,,,,,,
297007,2022-11-21_10h32.49.485,vts_reward_expectancy_bt,2022.2.4,MacIntel,59.97361161,Chrome,1280,800,,,,,1,729,,,,,,,,,,,,,,,,,174,W,star,1,0,,,,,,,,,,,,,,,,switch,letter,lettSwt,k,0.6158,Hi,,,,,,0,,,,,,,,high,20,0,20,0,1,,,,,,,,,
297007,2022-11-21_10h32.49.485,vts_reward_expectancy_bt,2022.2.4,MacIntel,59.97361161,Chrome,1280,800,,,,,1,730,,,,,,,,,,,,,,,,,181,U,circle,1,0,,,,,,,,,,,,,,,,repeat,letter,lettRpt,k,0.7649,Lo,,,,,,0,,,,,,,,high,21,0,21,0,1,,,,,,,,,
297007,2022-11-21_10h32.49.485,vts_reward_expectancy_bt,2022.2.4,MacIntel,59.97361161,Chrome,1280,800,,,,,10,740,,,,,,,,,,,,,,,,,146,S,triangle,1,0,,,,,,,,,,,,,,,,switch,number,numSwt,d,0.8492,Hi,,,,,,0,,,,,,,,high,22,0,22,0,1,,,,,,,,,
297007,2022-11-21_10h32.49.485,vts_reward_expectancy_bt,2022.2.4,MacIntel,59.97361161,Chrome,1280,800,,,,,1,741,,,,,,,,,,,,,,,,,160,Y,hexagon,1,0,,,,,,,,,,,,,,,,repeat,number,numRpt,f,0.947,Lo,,,,,,0,,,,,,,,high,23,0,23,0,1,,,,,,,,,
297007,2022-11-21_10h32.49.485,vts_reward_expectancy_bt,2022.2.4,MacIntel,59.97361161,Chrome,1280,800,,,,,10,751,,,,,,,,,,,,,,,,,174,Y,star,1,0,,,,,,,,,,,,,,,,repeat,number,numRpt,f,0.566,Hi,,,,,,0,,,,,,,,high,24,0,24,0,1,,,,,,,,,
297007,2022-11-21_10h32.49.485,vts_reward_expectancy_bt,2022.2.4,MacIntel,59.97361161,Chrome,1280,800,,,,,1,752,,,,,,,,,,,,,,,,,132,H,hexagon,1,0,,,,,,,,,,,,,,,,switch,letter,lettSwt,j,0.6803,Lo,,,,,,0,,,,,,,,high,25,0,25,0,1,,,,,,,,,
297007,2022-11-21_10h32.49.485,vts_reward_expectancy_bt,2022.2.4,MacIntel,59.97361161,Chrome,1280,800,,,,,10,762,,,,,,,,,,,,,,,,,125,D,triangle,1,0,,,,,,,,,,,,,,,,switch,number,numSwt,d,0.5142,Hi,,,,,,0,,,,,,,,high,26,0,26,0,1,,,,,,,,,
297007,2022-11-21_10h32.49.485,vts_reward_expectancy_bt,2022.2.4,MacIntel,59.97361161,Chrome,1280,800,,,,,1,763,,,,,,,,,,,,,,,,,167,S,circle,1,0,,,,,,,,,,,,,,,,switch,letter,lettSwt,k,0.5978,Lo,,,,,,0,,,,,,,,high,27,0,27,0,1,,,,,,,,,
297007,2022-11-21_10h32.49.485,vts_reward_expectancy_bt,2022.2.4,MacIntel,59.97361161,Chrome,1280,800,,,,,1,764,,,,,,,,,,,,,,,,,146,U,hexagon,1,0,,,,,,,,,,,,,,,,switch,number,numSwt,d,0.881,Lo,,,,,,0,,,,,,,,high,28,0,28,0,1,,,,,,,,,
297007,2022-11-21_10h32.49.485,vts_reward_expectancy_bt,2022.2.4,MacIntel,59.97361161,Chrome,1280,800,,,,,10,774,,,,,,,,,,,,,,,,,139,W,triangle,1,0,,,,,,,,,,,,,,,,repeat,number,numRpt,d,0.7816,Hi,,,,,,0,,,,,,,,high,29,0,29,0,1,,,,,,,,,
297007,2022-11-21_10h32.49.485,vts_reward_expectancy_bt,2022.2.4,MacIntel,59.97361161,Chrome,1280,800,,,,,1,775,,,,,,,,,,,,,,,,,181,B,star,1,0,,,,,,,,,,,,,,,,switch,letter,lettSwt,j,0.7988,Hi,,,,,,0,,,,,,,,high,30,0,30,0,1,,,,,,,,,
297007,2022-11-21_10h32.49.485,vts_reward_expectancy_bt,2022.2.4,MacIntel,59.97361161,Chrome,1280,800,,,,,1,776,,,,,,,,,,,,,,,,,160,F,circle,1,0,,,,,,,,,,,,,,,,repeat,letter,lettRpt,j,0.7979,Lo,,,,,,0,,,,,,,,high,31,0,31,0,1,,,,,,,,,
297007,2022-11-21_10h32.49.485,vts_reward_expectancy_bt,2022.2.4,MacIntel,59.97361161,Chrome,1280,800,,,,,0,776,,,,,,,,,,,,,,,,,174,H,triangle,1,0,,,,,,,,,,,,,,,,switch,number,numSwt,f,0.7091,Hi,,,,,,1,,,,,,space,6.2125,high,0,0,0,0,1,,,,,,,,,
297007,2022-11-21_10h32.49.485,vts_reward_expectancy_bt,2022.2.4,MacIntel,59.97361161,Chrome,1280,800,,,,,10,786,,,,,,,,,,,,,,,,,132,U,star,1,0,,,,,,,,,,,,,,,,repeat,number,numRpt,d,0.4467,Hi,,,,,,1,,,,,,,,high,1,0,1,0,1,,,,,,,,,
297007,2022-11-21_10h32.49.485,vts_reward_expectancy_bt,2022.2.4,MacIntel,59.97361161,Chrome,1280,800,,,,,1,787,,,,,,,,,,,,,,,,,125,Y,hexagon,1,0,,,,,,,,,,,,,,,,repeat,number,numRpt,d,0.6466,Lo,,,,,,1,,,,,,,,high,2,0,2,0,1,,,,,,,,,
297007,2022-11-21_10h32.49.485,vts_reward_expectancy_bt,2022.2.4,MacIntel,59.97361161,Chrome,1280,800,,,,,1,788,,,,,,,,,,,,,,,,,146,W,circle,1,0,,,,,,,,,,,,,,,,switch,letter,lettSwt,k,0.5856,Lo,,,,,,1,,,,,,,,high,3,0,3,0,1,,,,,,,,,
297007,2022-11-21_10h32.49.485,vts_reward_expectancy_bt,2022.2.4,MacIntel,59.97361161,Chrome,1280,800,,,,,0,788,,,,,,,,,,,,,,,,,167,B,triangle,1,0,,,,,,,,,,,,,,,,switch,number,numSwt,f,0.7502,Hi,,,,,,1,,,,,,,,high,4,0,4,0,1,,,,,,,,,
297007,2022-11-21_10h32.49.485,vts_reward_expectancy_bt,2022.2.4,MacIntel,59.97361161,Chrome,1280,800,,,,,1,789,,,,,,,,,,,,,,,,,181,D,star,1,0,,,,,,,,,,,,,,,,repeat,number,numRpt,f,0.5967,Hi,,,,,,1,,,,,,,,high,5,0,5,0,1,,,,,,,,,
297007,2022-11-21_10h32.49.485,vts_reward_expectancy_bt,2022.2.4,MacIntel,59.97361161,Chrome,1280,800,,,,,1,790,,,,,,,,,,,,,,,,,139,F,hexagon,1,0,,,,,,,,,,,,,,,,repeat,number,numRpt,d,0.5812,Lo,,,,,,1,,,,,,,,high,6,0,6,0,1,,,,,,,,,
297007,2022-11-21_10h32.49.485,vts_reward_expectancy_bt,2022.2.4,MacIntel,59.97361161,Chrome,1280,800,,,,,10,800,,,,,,,,,,,,,,,,,160,S,circle,1,0,,,,,,,,,,,,,,,,switch,letter,lettSwt,k,0.7801,Lo,,,,,,1,,,,,,,,high,7,0,7,0,1,,,,,,,,,
297007,2022-11-21_10h32.49.485,vts_reward_expectancy_bt,2022.2.4,MacIntel,59.97361161,Chrome,1280,800,,,,,10,810,,,,,,,,,,,,,,,,,174,H,triangle,1,0,,,,,,,,,,,,,,,,switch,number,numSwt,f,0.4468,Hi,,,,,,1,,,,,,,,high,8,0,8,0,1,,,,,,,,,
297007,2022-11-21_10h32.49.485,vts_reward_expectancy_bt,2022.2.4,MacIntel,59.97361161,Chrome,1280,800,,,,,10,820,,,,,,,,,,,,,,,,,132,U,star,1,0,,,,,,,,,,,,,,,,repeat,number,numRpt,d,0.482,Hi,,,,,,1,,,,,,,,high,9,0,9,0,1,,,,,,,,,
297007,2022-11-21_10h32.49.485,vts_reward_expectancy_bt,2022.2.4,MacIntel,59.97361161,Chrome,1280,800,,,,,1,821,,,,,,,,,,,,,,,,,125,Y,hexagon,1,0,,,,,,,,,,,,,,,,repeat,number,numRpt,d,0.3966,Lo,,,,,,1,,,,,,,,high,10,0,10,0,1,,,,,,,,,
297007,2022-11-21_10h32.49.485,vts_reward_expectancy_bt,2022.2.4,MacIntel,59.97361161,Chrome,1280,800,,,,,1,822,,,,,,,,,,,,,,,,,146,W,circle,1,0,,,,,,,,,,,,,,,,switch,letter,lettSwt,k,0.5641,Lo,,,,,,1,,,,,,,,high,11,0,11,0,1,,,,,,,,,
297007,2022-11-21_10h32.49.485,vts_reward_expectancy_bt,2022.2.4,MacIntel,59.97361161,Chrome,1280,800,,,,,10,832,,,,,,,,,,,,,,,,,167,B,star,1,0,,,,,,,,,,,,,,,,switch,number,numSwt,f,0.567,Hi,,,,,,1,,,,,,,,high,12,0,12,0,1,,,,,,,,,
297007,2022-11-21_10h32.49.485,vts_reward_expectancy_bt,2022.2.4,MacIntel,59.97361161,Chrome,1280,800,,,,,10,842,,,,,,,,,,,,,,,,,181,D,circle,1,0,,,,,,,,,,,,,,,,repeat,number,numRpt,f,0.567,Lo,,,,,,1,,,,,,,,high,13,0,13,0,1,,,,,,,,,
297007,2022-11-21_10h32.49.485,vts_reward_expectancy_bt,2022.2.4,MacIntel,59.97361161,Chrome,1280,800,,,,,1,843,,,,,,,,,,,,,,,,,139,F,hexagon,1,0,,,,,,,,,,,,,,,,switch,letter,lettSwt,j,0.6134,Lo,,,,,,1,,,,,,,,high,14,0,14,0,1,,,,,,,,,
297007,2022-11-21_10h32.49.485,vts_reward_expectancy_bt,2022.2.4,MacIntel,59.97361161,Chrome,1280,800,,,,,10,853,,,,,,,,,,,,,,,,,160,S,triangle,1,0,,,,,,,,,,,,,,,,switch,number,numSwt,f,0.4975,Hi,,,,,,1,,,,,,,,high,15,0,15,0,1,,,,,,,,,
297007,2022-11-21_10h32.49.485,vts_reward_expectancy_bt,2022.2.4,MacIntel,59.97361161,Chrome,1280,800,,,,,0,853,,,,,,,,,,,,,,,,,125,H,triangle,1,0,,,,,,,,,,,,,,,,repeat,number,numRpt,d,0.6313,Hi,,,,,,1,,,,,,,,high,16,0,16,0,1,,,,,,,,,
297007,2022-11-21_10h32.49.485,vts_reward_expectancy_bt,2022.2.4,MacIntel,59.97361161,Chrome,1280,800,,,,,1,854,,,,,,,,,,,,,,,,,167,B,circle,1,0,,,,,,,,,,,,,,,,repeat,number,numRpt,f,1.0478,Lo,,,,,,1,,,,,,,,high,17,0,17,0,1,,,,,,,,,
297007,2022-11-21_10h32.49.485,vts_reward_expectancy_bt,2022.2.4,MacIntel,59.97361161,Chrome,1280,800,,,,,1,855,,,,,,,,,,,,,,,,,146,D,hexagon,1,0,,,,,,,,,,,,,,,,repeat,number,numRpt,d,0.7176,Lo,,,,,,1,,,,,,,,high,18,0,18,0,1,,,,,,,,,
297007,2022-11-21_10h32.49.485,vts_reward_expectancy_bt,2022.2.4,MacIntel,59.97361161,Chrome,1280,800,,,,,0,855,,,,,,,,,,,,,,,,,139,W,star,1,0,,,,,,,,,,,,,,,,switch,letter,lettSwt,k,0.7151,Hi,,,,,,1,,,,,,,,high,19,0,19,0,1,,,,,,,,,
297007,2022-11-21_10h32.49.485,vts_reward_expectancy_bt,2022.2.4,MacIntel,59.97361161,Chrome,1280,800,,,,,0,855,,,,,,,,,,,,,,,,,174,Y,triangle,1,0,,,,,,,,,,,,,,,,switch,number,numSwt,f,0.7649,Hi,,,,,,1,,,,,,,,high,20,0,20,0,1,,,,,,,,,
297007,2022-11-21_10h32.49.485,vts_reward_expectancy_bt,2022.2.4,MacIntel,59.97361161,Chrome,1280,800,,,,,10,865,,,,,,,,,,,,,,,,,160,S,hexagon,1,0,,,,,,,,,,,,,,,,repeat,number,numRpt,f,0.5755,Lo,,,,,,1,,,,,,,,high,21,0,21,0,1,,,,,,,,,
297007,2022-11-21_10h32.49.485,vts_reward_expectancy_bt,2022.2.4,MacIntel,59.97361161,Chrome,1280,800,,,,,10,875,,,,,,,,,,,,,,,,,181,U,star,1,0,,,,,,,,,,,,,,,,switch,letter,lettSwt,k,0.5976,Hi,,,,,,1,,,,,,,,high,22,0,22,0,1,,,,,,,,,
297007,2022-11-21_10h32.49.485,vts_reward_expectancy_bt,2022.2.4,MacIntel,59.97361161,Chrome,1280,800,,,,,1,876,,,,,,,,,,,,,,,,,132,F,circle,1,0,,,,,,,,,,,,,,,,switch,number,numSwt,d,0.5967,Lo,,,,,,1,,,,,,,,high,23,0,23,0,1,,,,,,,,,
297007,2022-11-21_10h32.49.485,vts_reward_expectancy_bt,2022.2.4,MacIntel,59.97361161,Chrome,1280,800,,,,,0,876,,,,,,,,,,,,,,,,,139,D,triangle,1,0,,,,,,,,,,,,,,,,repeat,number,numRpt,d,1.0323,Hi,,,,,,1,,,,,,,,high,24,0,24,0,1,,,,,,,,,
297007,2022-11-21_10h32.49.485,vts_reward_expectancy_bt,2022.2.4,MacIntel,59.97361161,Chrome,1280,800,,,,,10,886,,,,,,,,,,,,,,,,,160,H,hexagon,1,0,,,,,,,,,,,,,,,,switch,letter,lettSwt,j,0.6141,Lo,,,,,,1,,,,,,,,high,25,0,25,0,1,,,,,,,,,
297007,2022-11-21_10h32.49.485,vts_reward_expectancy_bt,2022.2.4,MacIntel,59.97361161,Chrome,1280,800,,,,,10,896,,,,,,,,,,,,,,,,,181,F,star,1,0,,,,,,,,,,,,,,,,switch,number,numSwt,f,0.4976,Hi,,,,,,1,,,,,,,,high,26,0,26,0,1,,,,,,,,,
297007,2022-11-21_10h32.49.485,vts_reward_expectancy_bt,2022.2.4,MacIntel,59.97361161,Chrome,1280,800,,,,,1,897,,,,,,,,,,,,,,,,,167,S,circle,1,0,,,,,,,,,,,,,,,,switch,letter,lettSwt,k,0.4974,Lo,,,,,,1,,,,,,,,high,27,0,27,0,1,,,,,,,,,
297007,2022-11-21_10h32.49.485,vts_reward_expectancy_bt,2022.2.4,MacIntel,59.97361161,Chrome,1280,800,,,,,1,898,,,,,,,,,,,,,,,,,125,U,circle,1,0,,,,,,,,,,,,,,,,repeat,letter,lettRpt,k,0.7847,Lo,,,,,,1,,,,,,,,high,28,0,28,0,1,,,,,,,,,
297007,2022-11-21_10h32.49.485,vts_reward_expectancy_bt,2022.2.4,MacIntel,59.97361161,Chrome,1280,800,,,,,10,908,,,,,,,,,,,,,,,,,132,Y,triangle,1,0,,,,,,,,,,,,,,,,switch,number,numSwt,d,0.6305,Hi,,,,,,1,,,,,,,,high,29,0,29,0,1,,,,,,,,,
297007,2022-11-21_10h32.49.485,vts_reward_expectancy_bt,2022.2.4,MacIntel,59.97361161,Chrome,1280,800,,,,,10,918,,,,,,,,,,,,,,,,,174,W,star,1,0,,,,,,,,,,,,,,,,repeat,number,numRpt,f,0.5509,Hi,,,,,,1,,,,,,,,high,30,0,30,0,1,,,,,,,,,
297007,2022-11-21_10h32.49.485,vts_reward_expectancy_bt,2022.2.4,MacIntel,59.97361161,Chrome,1280,800,,,,,1,919,,,,,,,,,,,,,,,,,146,B,hexagon,1,0,,,,,,,,,,,,,,,,repeat,number,numRpt,d,1.0816,Lo,,,,,,1,,,,,,,,high,31,0,31,0,1,,,,,,,,,
297007,2022-11-21_10h32.49.485,vts_reward_expectancy_bt,2022.2.4,MacIntel,59.97361161,Chrome,1280,800,,,,,1,920,,,,,,,,,,,,,,,,,167,Y,hexagon,1,0,,,,,,,,,,,,,,,,switch,letter,lettSwt,k,0.8825,Lo,,,,,,2,,,,,,space,2.0618,high,0,0,0,0,1,,,,,,,,,
297007,2022-11-21_10h32.49.485,vts_reward_expectancy_bt,2022.2.4,MacIntel,59.97361161,Chrome,1280,800,,,,,0,920,,,,,,,,,,,,,,,,,160,B,star,1,0,,,,,,,,,,,,,,,,switch,number,numSwt,f,0.6486,Hi,,,,,,2,,,,,,,,high,1,0,1,0,1,,,,,,,,,
297007,2022-11-21_10h32.49.485,vts_reward_expectancy_bt,2022.2.4,MacIntel,59.97361161,Chrome,1280,800,,,,,0,920,,,,,,,,,,,,,,,,,174,H,triangle,1,0,,,,,,,,,,,,,,,,repeat,number,numRpt,f,0.6484,Hi,,,,,,2,,,,,,,,high,2,0,2,0,1,,,,,,,,,
297007,2022-11-21_10h32.49.485,vts_reward_expectancy_bt,2022.2.4,MacIntel,59.97361161,Chrome,1280,800,,,,,1,921,,,,,,,,,,,,,,,,,146,U,circle,1,0,,,,,,,,,,,,,,,,repeat,number,numRpt,d,0.6984,Lo,,,,,,2,,,,,,,,high,3,0,3,0,1,,,,,,,,,
297007,2022-11-21_10h32.49.485,vts_reward_expectancy_bt,2022.2.4,MacIntel,59.97361161,Chrome,1280,800,,,,,1,922,,,,,,,,,,,,,,,,,132,W,hexagon,1,0,,,,,,,,,,,,,,,,repeat,number,numRpt,d,0.5651,Lo,,,,,,2,,,,,,,,high,4,0,4,0,1,,,,,,,,,
297007,2022-11-21_10h32.49.485,vts_reward_expectancy_bt,2022.2.4,MacIntel,59.97361161,Chrome,1280,800,,,,,0,922,,,,,,,,,,,,,,,,,181,F,star,1,0,,,,,,,,,,,,,,,,repeat,number,numRpt,f,0.6475,Hi,,,,,,2,,,,,,,,high,5,0,5,0,1,,,,,,,,,
297007,2022-11-21_10h32.49.485,vts_reward_expectancy_bt,2022.2.4,MacIntel,59.97361161,Chrome,1280,800,,,,,0,922,,,,,,,,,,,,,,,,,139,S,triangle,0,0,,,,,,,,,,,,,,,,repeat,number,NA,f,0.4819,Hi,,,,,,2,,,,,,,,high,6,0,6,0,1,,,,,,,,,
297007,2022-11-21_10h32.49.485,vts_reward_expectancy_bt,2022.2.4,MacIntel,59.97361161,Chrome,1280,800,,,,,1,923,,,,,,,,,,,,,,,,,125,D,circle,1,1,,,,,,,,,,,,,,,,repeat,number,numRpt,d,0.6989,Lo,,,,,,2,,,,,,,,high,7,0,7,0,1,,,,,,,,,
297007,2022-11-21_10h32.49.485,vts_reward_expectancy_bt,2022.2.4,MacIntel,59.97361161,Chrome,1280,800,,,,,1,924,,,,,,,,,,,,,,,,,167,Y,hexagon,1,0,,,,,,,,,,,,,,,,switch,letter,lettSwt,k,0.515,Lo,,,,,,2,,,,,,,,high,8,0,8,0,1,,,,,,,,,
297007,2022-11-21_10h32.49.485,vts_reward_expectancy_bt,2022.2.4,MacIntel,59.97361161,Chrome,1280,800,,,,,0,924,,,,,,,,,,,,,,,,,160,B,star,1,0,,,,,,,,,,,,,,,,switch,number,numSwt,f,0.6477,Hi,,,,,,2,,,,,,,,high,9,0,9,0,1,,,,,,,,,
297007,2022-11-21_10h32.49.485,vts_reward_expectancy_bt,2022.2.4,MacIntel,59.97361161,Chrome,1280,800,,,,,1,925,,,,,,,,,,,,,,,,,174,H,circle,1,0,,,,,,,,,,,,,,,,repeat,number,numRpt,f,0.8986,Lo,,,,,,2,,,,,,,,high,10,0,10,0,1,,,,,,,,,
297007,2022-11-21_10h32.49.485,vts_reward_expectancy_bt,2022.2.4,MacIntel,59.97361161,Chrome,1280,800,,,,,0,925,,,,,,,,,,,,,,,,,146,U,triangle,1,0,,,,,,,,,,,,,,,,repeat,number,numRpt,d,0.6668,Hi,,,,,,2,,,,,,,,high,11,0,11,0,1,,,,,,,,,
297007,2022-11-21_10h32.49.485,vts_reward_expectancy_bt,2022.2.4,MacIntel,59.97361161,Chrome,1280,800,,,,,0,925,,,,,,,,,,,,,,,,,132,W,star,1,0,,,,,,,,,,,,,,,,repeat,number,numRpt,d,0.748,Hi,,,,,,2,,,,,,,,high,12,0,12,0,1,,,,,,,,,
297007,2022-11-21_10h32.49.485,vts_reward_expectancy_bt,2022.2.4,MacIntel,59.97361161,Chrome,1280,800,,,,,1,926,,,,,,,,,,,,,,,,,181,F,circle,1,0,,,,,,,,,,,,,,,,repeat,number,numRpt,f,0.765,Lo,,,,,,2,,,,,,,,high,13,0,13,0,1,,,,,,,,,
297007,2022-11-21_10h32.49.485,vts_reward_expectancy_bt,2022.2.4,MacIntel,59.97361161,Chrome,1280,800,,,,,0,926,,,,,,,,,,,,,,,,,139,S,triangle,1,0,,,,,,,,,,,,,,,,repeat,number,numRpt,d,0.732,Hi,,,,,,2,,,,,,,,high,14,0,14,0,1,,,,,,,,,
297007,2022-11-21_10h32.49.485,vts_reward_expectancy_bt,2022.2.4,MacIntel,59.97361161,Chrome,1280,800,,,,,1,927,,,,,,,,,,,,,,,,,125,D,hexagon,1,0,,,,,,,,,,,,,,,,repeat,number,numRpt,d,0.6148,Lo,,,,,,2,,,,,,,,high,15,0,15,0,1,,,,,,,,,
297007,2022-11-21_10h32.49.485,vts_reward_expectancy_bt,2022.2.4,MacIntel,59.97361161,Chrome,1280,800,,,,,10,937,,,,,,,,,,,,,,,,,181,U,star,1,0,,,,,,,,,,,,,,,,repeat,number,numRpt,f,0.5307,Hi,,,,,,2,,,,,,,,high,16,0,16,0,1,,,,,,,,,
297007,2022-11-21_10h32.49.485,vts_reward_expectancy_bt,2022.2.4,MacIntel,59.97361161,Chrome,1280,800,,,,,1,938,,,,,,,,,,,,,,,,,125,S,circle,1,0,,,,,,,,,,,,,,,,switch,letter,lettSwt,k,0.5841,Lo,,,,,,2,,,,,,,,high,17,0,17,0,1,,,,,,,,,
297007,2022-11-21_10h32.49.485,vts_reward_expectancy_bt,2022.2.4,MacIntel,59.97361161,Chrome,1280,800,,,,,1,939,,,,,,,,,,,,,,,,,146,Y,hexagon,1,0,,,,,,,,,,,,,,,,repeat,letter,lettRpt,k,0.5789,Lo,,,,,,2,,,,,,,,high,18,0,18,0,1,,,,,,,,,
297007,2022-11-21_10h32.49.485,vts_reward_expectancy_bt,2022.2.4,MacIntel,59.97361161,Chrome,1280,800,,,,,0,939,,,,,,,,,,,,,,,,,139,F,triangle,1,0,,,,,,,,,,,,,,,,repeat,letter,lettRpt,j,0.7971,Hi,,,,,,2,,,,,,,,high,19,0,19,0,1,,,,,,,,,
297007,2022-11-21_10h32.49.485,vts_reward_expectancy_bt,2022.2.4,MacIntel,59.97361161,Chrome,1280,800,,,,,0,939,,,,,,,,,,,,,,,,,167,W,triangle,1,0,,,,,,,,,,,,,,,,switch,number,numSwt,f,0.6968,Hi,,,,,,2,,,,,,,,high,20,0,20,0,1,,,,,,,,,
297007,2022-11-21_10h32.49.485,vts_reward_expectancy_bt,2022.2.4,MacIntel,59.97361161,Chrome,1280,800,,,,,0,939,,,,,,,,,,,,,,,,,174,D,star,1,0,,,,,,,,,,,,,,,,repeat,number,numRpt,f,0.6311,Hi,,,,,,2,,,,,,,,high,21,0,21,0,1,,,,,,,,,
297007,2022-11-21_10h32.49.485,vts_reward_expectancy_bt,2022.2.4,MacIntel,59.97361161,Chrome,1280,800,,,,,1,940,,,,,,,,,,,,,,,,,132,B,hexagon,1,0,,,,,,,,,,,,,,,,repeat,number,numRpt,d,0.7819,Lo,,,,,,2,,,,,,,,high,22,0,22,0,1,,,,,,,,,
297007,2022-11-21_10h32.49.485,vts_reward_expectancy_bt,2022.2.4,MacIntel,59.97361161,Chrome,1280,800,,,,,10,950,,,,,,,,,,,,,,,,,160,H,circle,1,0,,,,,,,,,,,,,,,,repeat,number,numRpt,f,0.531,Lo,,,,,,2,,,,,,,,high,23,0,23,0,1,,,,,,,,,
297007,2022-11-21_10h32.49.485,vts_reward_expectancy_bt,2022.2.4,MacIntel,59.97361161,Chrome,1280,800,,,,,1,951,,,,,,,,,,,,,,,,,167,B,circle,1,0,,,,,,,,,,,,,,,,repeat,number,numRpt,f,0.7146,Lo,,,,,,2,,,,,,,,high,24,0,24,0,1,,,,,,,,,
297007,2022-11-21_10h32.49.485,vts_reward_expectancy_bt,2022.2.4,MacIntel,59.97361161,Chrome,1280,800,,,,,1,952,,,,,,,,,,,,,,,,,139,W,hexagon,1,0,,,,,,,,,,,,,,,,repeat,number,numRpt,d,0.5972,Lo,,,,,,2,,,,,,,,high,25,0,25,0,1,,,,,,,,,
297007,2022-11-21_10h32.49.485,vts_reward_expectancy_bt,2022.2.4,MacIntel,59.97361161,Chrome,1280,800,,,,,1,953,,,,,,,,,,,,,,,,,125,H,star,1,0,,,,,,,,,,,,,,,,repeat,number,numRpt,d,0.4966,Hi,,,,,,2,,,,,,,,high,26,0,26,0,1,,,,,,,,,
297007,2022-11-21_10h32.49.485,vts_reward_expectancy_bt,2022.2.4,MacIntel,59.97361161,Chrome,1280,800,,,,,0,953,,,,,,,,,,,,,,,,,181,S,triangle,1,0,,,,,,,,,,,,,,,,switch,letter,lettSwt,k,0.9824,Hi,,,,,,2,,,,,,,,high,27,0,27,0,1,,,,,,,,,
297007,2022-11-21_10h32.49.485,vts_reward_expectancy_bt,2022.2.4,MacIntel,59.97361161,Chrome,1280,800,,,,,0,953,,,,,,,,,,,,,,,,,132,D,triangle,1,0,,,,,,,,,,,,,,,,switch,number,numSwt,d,0.731,Hi,,,,,,2,,,,,,,,high,28,0,28,0,1,,,,,,,,,
297007,2022-11-21_10h32.49.485,vts_reward_expectancy_bt,2022.2.4,MacIntel,59.97361161,Chrome,1280,800,,,,,1,954,,,,,,,,,,,,,,,,,160,U,hexagon,1,0,,,,,,,,,,,,,,,,repeat,number,numRpt,f,0.8375,Lo,,,,,,2,,,,,,,,high,29,0,29,0,1,,,,,,,,,
297007,2022-11-21_10h32.49.485,vts_reward_expectancy_bt,2022.2.4,MacIntel,59.97361161,Chrome,1280,800,,,,,0,954,,,,,,,,,,,,,,,,,174,F,star,1,0,,,,,,,,,,,,,,,,switch,letter,lettSwt,j,0.9138,Hi,,,,,,2,,,,,,,,high,30,0,30,0,1,,,,,,,,,
297007,2022-11-21_10h32.49.485,vts_reward_expectancy_bt,2022.2.4,MacIntel,59.97361161,Chrome,1280,800,,,,,1,955,,,,,,,,,,,,,,,,,146,Y,circle,1,0,,,,,,,,,,,,,,,,switch,number,numSwt,d,0.9142,Lo,,,,,,2,,,,,,,,high,31,0,31,0,1,,,,,,,,,
297007,2022-11-21_10h32.49.485,vts_reward_expectancy_bt,2022.2.4,MacIntel,59.97361161,Chrome,1280,800,,,,,0,955,,,,,,,,,,,,,,,,,181,Y,triangle,-1,0,,,,,,,,,,,,,,,,switch,no_choice,NA,,,Lo,,,,,,3,,,,,,space,1.1299,high,0,0,0,0,1,,,,,,,,,
297007,2022-11-21_10h32.49.485,vts_reward_expectancy_bt,2022.2.4,MacIntel,59.97361161,Chrome,1280,800,,,,,10,965,,,,,,,,,,,,,,,,,125,S,hexagon,1,0,,,,,,,,,,,,,,,,switch,number,numSwt,d,0.7487,Lo,,,,,,3,,,,,,,,high,1,0,1,0,1,,,,,,,,,
297007,2022-11-21_10h32.49.485,vts_reward_expectancy_bt,2022.2.4,MacIntel,59.97361161,Chrome,1280,800,,,,,10,975,,,,,,,,,,,,,,,,,139,B,star,1,0,,,,,,,,,,,,,,,,switch,letter,lettSwt,j,0.6304,Hi,,,,,,3,,,,,,,,high,2,0,2,0,1,,,,,,,,,
297007,2022-11-21_10h32.49.485,vts_reward_expectancy_bt,2022.2.4,MacIntel,59.97361161,Chrome,1280,800,,,,,1,976,,,,,,,,,,,,,,,,,174,W,circle,1,0,,,,,,,,,,,,,,,,switch,number,numSwt,f,0.6312,Lo,,,,,,3,,,,,,,,high,3,0,3,0,1,,,,,,,,,
297007,2022-11-21_10h32.49.485,vts_reward_expectancy_bt,2022.2.4,MacIntel,59.97361161,Chrome,1280,800,,,,,0,976,,,,,,,,,,,,,,,,,146,U,triangle,1,0,,,,,,,,,,,,,,,,repeat,number,numRpt,d,1.0309,Hi,,,,,,3,,,,,,,,high,4,0,4,0,1,,,,,,,,,
297007,2022-11-21_10h32.49.485,vts_reward_expectancy_bt,2022.2.4,MacIntel,59.97361161,Chrome,1280,800,,,,,10,986,,,,,,,,,,,,,,,,,132,H,hexagon,1,0,,,,,,,,,,,,,,,,repeat,number,numRpt,d,0.6478,Lo,,,,,,3,,,,,,,,high,5,0,5,0,1,,,,,,,,,
297007,2022-11-21_10h32.49.485,vts_reward_expectancy_bt,2022.2.4,MacIntel,59.97361161,Chrome,1280,800,,,,,0,986,,,,,,,,,,,,,,,,,167,D,star,1,0,,,,,,,,,,,,,,,,repeat,number,numRpt,f,0.799,Hi,,,,,,3,,,,,,,,high,6,0,6,0,1,,,,,,,,,
297007,2022-11-21_10h32.49.485,vts_reward_expectancy_bt,2022.2.4,MacIntel,59.97361161,Chrome,1280,800,,,,,1,987,,,,,,,,,,,,,,,,,160,F,circle,1,0,,,,,,,,,,,,,,,,repeat,number,numRpt,f,0.8658,Lo,,,,,,3,,,,,,,,high,7,0,7,0,1,,,,,,,,,
297007,2022-11-21_10h32.49.485,vts_reward_expectancy_bt,2022.2.4,MacIntel,59.97361161,Chrome,1280,800,,,,,0,987,,,,,,,,,,,,,,,,,181,Y,triangle,1,0,,,,,,,,,,,,,,,,switch,letter,lettSwt,k,0.9643,Hi,,,,,,3,,,,,,,,high,8,0,8,0,1,,,,,,,,,
297007,2022-11-21_10h32.49.485,vts_reward_expectancy_bt,2022.2.4,MacIntel,59.97361161,Chrome,1280,800,,,,,1,988,,,,,,,,,,,,,,,,,125,S,circle,1,0,,,,,,,,,,,,,,,,repeat,letter,lettRpt,k,0.5812,Lo,,,,,,3,,,,,,,,high,9,0,9,0,1,,,,,,,,,
297007,2022-11-21_10h32.49.485,vts_reward_expectancy_bt,2022.2.4,MacIntel,59.97361161,Chrome,1280,800,,,,,0,988,,,,,,,,,,,,,,,,,139,B,star,1,0,,,,,,,,,,,,,,,,switch,number,numSwt,d,0.6987,Hi,,,,,,3,,,,,,,,high,10,0,10,0,1,,,,,,,,,
297007,2022-11-21_10h32.49.485,vts_reward_expectancy_bt,2022.2.4,MacIntel,59.97361161,Chrome,1280,800,,,,,1,989,,,,,,,,,,,,,,,,,174,W,hexagon,1,0,,,,,,,,,,,,,,,,repeat,number,numRpt,f,0.6642,Lo,,,,,,3,,,,,,,,high,11,0,11,0,1,,,,,,,,,
297007,2022-11-21_10h32.49.485,vts_reward_expectancy_bt,2022.2.4,MacIntel,59.97361161,Chrome,1280,800,,,,,10,999,,,,,,,,,,,,,,,,,146,U,hexagon,1,0,,,,,,,,,,,,,,,,switch,letter,lettSwt,k,0.6148,Lo,,,,,,3,,,,,,,,high,12,0,12,0,1,,,,,,,,,
297007,2022-11-21_10h32.49.485,vts_reward_expectancy_bt,2022.2.4,MacIntel,59.97361161,Chrome,1280,800,,,,,1,1000,,,,,,,,,,,,,,,,,132,H,circle,1,0,,,,,,,,,,,,,,,,repeat,letter,lettRpt,j,0.4346,Lo,,,,,,3,,,,,,,,high,13,0,13,0,1,,,,,,,,,
297007,2022-11-21_10h32.49.485,vts_reward_expectancy_bt,2022.2.4,MacIntel,59.97361161,Chrome,1280,800,,,,,1,1001,,,,,,,,,,,,,,,,,167,D,triangle,1,0,,,,,,,,,,,,,,,,switch,number,numSwt,f,0.5508,Hi,,,,,,3,,,,,,,,high,14,0,14,0,1,,,,,,,,,
297007,2022-11-21_10h32.49.485,vts_reward_expectancy_bt,2022.2.4,MacIntel,59.97361161,Chrome,1280,800,,,,,1,1002,,,,,,,,,,,,,,,,,160,F,star,1,0,,,,,,,,,,,,,,,,repeat,number,numRpt,f,0.6152,Hi,,,,,,3,,,,,,,,high,15,0,15,0,1,,,,,,,,,
297007,2022-11-21_10h32.49.485,vts_reward_expectancy_bt,2022.2.4,MacIntel,59.97361161,Chrome,1280,800,,,,,10,1012,,,,,,,,,,,,,,,,,167,Y,star,1,0,,,,,,,,,,,,,,,,repeat,number,numRpt,f,0.4995,Hi,,,,,,3,,,,,,,,high,16,0,16,0,1,,,,,,,,,
297007,2022-11-21_10h32.49.485,vts_reward_expectancy_bt,2022.2.4,MacIntel,59.97361161,Chrome,1280,800,,,,,1,1013,,,,,,,,,,,,,,,,,132,F,circle,1,0,,,,,,,,,,,,,,,,repeat,number,numRpt,d,0.7543,Lo,,,,,,3,,,,,,,,high,17,0,17,0,1,,,,,,,,,
297007,2022-11-21_10h32.49.485,vts_reward_expectancy_bt,2022.2.4,MacIntel,59.97361161,Chrome,1280,800,,,,,1,1014,,,,,,,,,,,,,,,,,125,S,hexagon,1,0,,,,,,,,,,,,,,,,switch,letter,lettSwt,k,1.3315,Lo,,,,,,3,,,,,,,,high,18,0,18,0,1,,,,,,,,,
297007,2022-11-21_10h32.49.485,vts_reward_expectancy_bt,2022.2.4,MacIntel,59.97361161,Chrome,1280,800,,,,,0,1014,,,,,,,,,,,,,,,,,146,B,triangle,1,0,,,,,,,,,,,,,,,,switch,number,numSwt,d,0.699,Hi,,,,,,3,,,,,,,,high,19,0,19,0,1,,,,,,,,,
297007,2022-11-21_10h32.49.485,vts_reward_expectancy_bt,2022.2.4,MacIntel,59.97361161,Chrome,1280,800,,,,,0,1014,,,,,,,,,,,,,,,,,181,U,star,1,0,,,,,,,,,,,,,,,,repeat,number,numRpt,f,1.7517,Hi,,,,,,3,,,,,,,,high,20,0,20,0,1,,,,,,,,,
297007,2022-11-21_10h32.49.485,vts_reward_expectancy_bt,2022.2.4,MacIntel,59.97361161,Chrome,1280,800,,,,,0,1014,,,,,,,,,,,,,,,,,139,W,triangle,1,0,,,,,,,,,,,,,,,,repeat,number,numRpt,d,0.8484,Hi,,,,,,3,,,,,,,,high,21,0,21,0,1,,,,,,,,,
297007,2022-11-21_10h32.49.485,vts_reward_expectancy_bt,2022.2.4,MacIntel,59.97361161,Chrome,1280,800,,,,,1,1015,,,,,,,,,,,,,,,,,160,D,hexagon,1,0,,,,,,,,,,,,,,,,switch,letter,lettSwt,j,0.9335,Lo,,,,,,3,,,,,,,,high,22,0,22,0,1,,,,,,,,,
297007,2022-11-21_10h32.49.485,vts_reward_expectancy_bt,2022.2.4,MacIntel,59.97361161,Chrome,1280,800,,,,,0,1015,,,,,,,,,,,,,,,,,174,H,circle,0,0,,,,,,,,,,,,,,,,switch,number,NA,d,0.7485,Lo,,,,,,3,,,,,,,,high,23,0,23,0,1,,,,,,,,,
297007,2022-11-21_10h32.49.485,vts_reward_expectancy_bt,2022.2.4,MacIntel,59.97361161,Chrome,1280,800,,,,,1,1016,,,,,,,,,,,,,,,,,167,Y,circle,1,1,,,,,,,,,,,,,,,,repeat,number,numRpt,f,0.8508,Lo,,,,,,3,,,,,,,,high,24,0,24,0,1,,,,,,,,,
297007,2022-11-21_10h32.49.485,vts_reward_expectancy_bt,2022.2.4,MacIntel,59.97361161,Chrome,1280,800,,,,,1,1017,,,,,,,,,,,,,,,,,125,W,hexagon,1,0,,,,,,,,,,,,,,,,repeat,number,numRpt,d,1.2804,Lo,,,,,,3,,,,,,,,high,25,0,25,0,1,,,,,,,,,
297007,2022-11-21_10h32.49.485,vts_reward_expectancy_bt,2022.2.4,MacIntel,59.97361161,Chrome,1280,800,,,,,10,1027,,,,,,,,,,,,,,,,,132,S,star,1,0,,,,,,,,,,,,,,,,switch,letter,lettSwt,k,0.5648,Hi,,,,,,3,,,,,,,,high,26,0,26,0,1,,,,,,,,,
297007,2022-11-21_10h32.49.485,vts_reward_expectancy_bt,2022.2.4,MacIntel,59.97361161,Chrome,1280,800,,,,,10,1037,,,,,,,,,,,,,,,,,139,D,triangle,1,0,,,,,,,,,,,,,,,,switch,number,numSwt,d,0.5841,Hi,,,,,,3,,,,,,,,high,27,0,27,0,1,,,,,,,,,
297007,2022-11-21_10h32.49.485,vts_reward_expectancy_bt,2022.2.4,MacIntel,59.97361161,Chrome,1280,800,,,,,0,1037,,,,,,,,,,,,,,,,,174,F,star,1,0,,,,,,,,,,,,,,,,repeat,number,numRpt,f,0.648,Hi,,,,,,3,,,,,,,,high,28,0,28,0,1,,,,,,,,,
297007,2022-11-21_10h32.49.485,vts_reward_expectancy_bt,2022.2.4,MacIntel,59.97361161,Chrome,1280,800,,,,,0,1037,,,,,,,,,,,,,,,,,160,H,circle,0,0,,,,,,,,,,,,,,,,switch,letter,NA,k,0.6788,Hi,,,,,,3,,,,,,,,high,29,0,29,0,1,,,,,,,,,
297007,2022-11-21_10h32.49.485,vts_reward_expectancy_bt,2022.2.4,MacIntel,59.97361161,Chrome,1280,800,,,,,1,1038,,,,,,,,,,,,,,,,,146,U,hexagon,1,1,,,,,,,,,,,,,,,,switch,number,numSwt,d,0.5317,Lo,,,,,,3,,,,,,,,high,30,0,30,0,1,,,,,,,,,
297007,2022-11-21_10h32.49.485,vts_reward_expectancy_bt,2022.2.4,MacIntel,59.97361161,Chrome,1280,800,,,,,10,1048,,,,,,,,,,,,,,,,,181,B,triangle,1,0,,,,,,,,,,,,,,,,switch,letter,lettSwt,j,0.5818,Hi,,,,,,3,,,,,,,,high,31,0,31,0,1,,,,,,,,,
297007,2022-11-21_10h32.49.485,vts_reward_expectancy_bt,2022.2.4,MacIntel,59.97361161,Chrome,1280,800,,,,,0,1048,,,,,,,,,,,,,,,,,125,F,hexagon,-1,0,,,,,,,,,,,,,,,,switch,no_choice,NA,,,Hi,,,,,,4,,,,,,space,435.016,high,0,0,0,0,1,,,,,,,,,
297007,2022-11-21_10h32.49.485,vts_reward_expectancy_bt,2022.2.4,MacIntel,59.97361161,Chrome,1280,800,,,,,0,1048,,,,,,,,,,,,,,,,,174,H,star,1,0,,,,,,,,,,,,,,,,switch,number,numSwt,f,1.0821,Hi,,,,,,4,,,,,,,,high,1,0,1,0,1,,,,,,,,,
297007,2022-11-21_10h32.49.485,vts_reward_expectancy_bt,2022.2.4,MacIntel,59.97361161,Chrome,1280,800,,,,,10,1058,,,,,,,,,,,,,,,,,146,W,circle,1,0,,,,,,,,,,,,,,,,repeat,number,numRpt,d,0.6645,Lo,,,,,,4,,,,,,,,high,2,0,2,0,1,,,,,,,,,
297007,2022-11-21_10h32.49.485,vts_reward_expectancy_bt,2022.2.4,MacIntel,59.97361161,Chrome,1280,800,,,,,0,1058,,,,,,,,,,,,,,,,,139,Y,triangle,1,0,,,,,,,,,,,,,,,,repeat,number,numRpt,d,0.7145,Hi,,,,,,4,,,,,,,,high,3,0,3,0,1,,,,,,,,,
297007,2022-11-21_10h32.49.485,vts_reward_expectancy_bt,2022.2.4,MacIntel,59.97361161,Chrome,1280,800,,,,,1,1059,,,,,,,,,,,,,,,,,167,D,hexagon,1,0,,,,,,,,,,,,,,,,switch,letter,lettSwt,j,0.5468,Lo,,,,,,4,,,,,,,,high,4,0,4,0,1,,,,,,,,,
297007,2022-11-21_10h32.49.485,vts_reward_expectancy_bt,2022.2.4,MacIntel,59.97361161,Chrome,1280,800,,,,,0,1059,,,,,,,,,,,,,,,,,132,U,star,1,0,,,,,,,,,,,,,,,,repeat,letter,lettRpt,k,0.8328,Hi,,,,,,4,,,,,,,,high,5,0,5,0,1,,,,,,,,,
297007,2022-11-21_10h32.49.485,vts_reward_expectancy_bt,2022.2.4,MacIntel,59.97361161,Chrome,1280,800,,,,,1,1060,,,,,,,,,,,,,,,,,160,S,circle,1,0,,,,,,,,,,,,,,,,switch,number,numSwt,f,0.4839,Lo,,,,,,4,,,,,,,,high,6,0,6,0,1,,,,,,,,,
297007,2022-11-21_10h32.49.485,vts_reward_expectancy_bt,2022.2.4,MacIntel,59.97361161,Chrome,1280,800,,,,,0,1060,,,,,,,,,,,,,,,,,181,B,triangle,1,0,,,,,,,,,,,,,,,,switch,letter,lettSwt,j,0.7324,Hi,,,,,,4,,,,,,,,high,7,0,7,0,1,,,,,,,,,
297007,2022-11-21_10h32.49.485,vts_reward_expectancy_bt,2022.2.4,MacIntel,59.97361161,Chrome,1280,800,,,,,10,1070,,,,,,,,,,,,,,,,,125,F,star,1,0,,,,,,,,,,,,,,,,switch,number,numSwt,d,0.4983,Hi,,,,,,4,,,,,,,,high,8,0,8,0,1,,,,,,,,,
297007,2022-11-21_10h32.49.485,vts_reward_expectancy_bt,2022.2.4,MacIntel,59.97361161,Chrome,1280,800,,,,,0,1070,,,,,,,,,,,,,,,,,174,H,triangle,1,0,,,,,,,,,,,,,,,,repeat,number,numRpt,f,0.6816,Hi,,,,,,4,,,,,,,,high,9,0,9,0,1,,,,,,,,,
297007,2022-11-21_10h32.49.485,vts_reward_expectancy_bt,2022.2.4,MacIntel,59.97361161,Chrome,1280,800,,,,,1,1071,,,,,,,,,,,,,,,,,146,W,hexagon,1,0,,,,,,,,,,,,,,,,repeat,number,numRpt,d,0.5956,Lo,,,,,,4,,,,,,,,high,10,0,10,0,1,,,,,,,,,
297007,2022-11-21_10h32.49.485,vts_reward_expectancy_bt,2022.2.4,MacIntel,59.97361161,Chrome,1280,800,,,,,0,1071,,,,,,,,,,,,,,,,,139,Y,circle,0,0,,,,,,,,,,,,,,,,repeat,number,NA,f,0.6316,Lo,,,,,,4,,,,,,,,high,11,0,11,0,1,,,,,,,,,
297007,2022-11-21_10h32.49.485,vts_reward_expectancy_bt,2022.2.4,MacIntel,59.97361161,Chrome,1280,800,,,,,0,1071,,,,,,,,,,,,,,,,,167,D,circle,0,1,,,,,,,,,,,,,,,,repeat,number,NA,d,0.8824,Lo,,,,,,4,,,,,,,,high,12,0,12,0,1,,,,,,,,,
297007,2022-11-21_10h32.49.485,vts_reward_expectancy_bt,2022.2.4,MacIntel,59.97361161,Chrome,1280,800,,,,,0,1071,,,,,,,,,,,,,,,,,132,U,triangle,1,1,,,,,,,,,,,,,,,,repeat,number,numRpt,d,0.8485,Hi,,,,,,4,,,,,,,,high,13,0,13,0,1,,,,,,,,,
297007,2022-11-21_10h32.49.485,vts_reward_expectancy_bt,2022.2.4,MacIntel,59.97361161,Chrome,1280,800,,,,,1,1072,,,,,,,,,,,,,,,,,160,S,hexagon,1,0,,,,,,,,,,,,,,,,repeat,number,numRpt,f,2.6167,Lo,,,,,,4,,,,,,,,high,14,0,14,0,1,,,,,,,,,
297007,2022-11-21_10h32.49.485,vts_reward_expectancy_bt,2022.2.4,MacIntel,59.97361161,Chrome,1280,800,,,,,0,1072,,,,,,,,,,,,,,,,,181,B,star,1,0,,,,,,,,,,,,,,,,repeat,number,numRpt,f,0.7983,Hi,,,,,,4,,,,,,,,high,15,0,15,0,1,,,,,,,,,
297007,2022-11-21_10h32.49.485,vts_reward_expectancy_bt,2022.2.4,MacIntel,59.97361161,Chrome,1280,800,,,,,10,1082,,,,,,,,,,,,,,,,,125,H,triangle,1,0,,,,,,,,,,,,,,,,repeat,number,numRpt,d,0.6311,Hi,,,,,,4,,,,,,,,high,16,0,16,0,1,,,,,,,,,
297007,2022-11-21_10h32.49.485,vts_reward_expectancy_bt,2022.2.4,MacIntel,59.97361161,Chrome,1280,800,,,,,0,1082,,,,,,,,,,,,,,,,,174,Y,star,0,0,,,,,,,,,,,,,,,,repeat,number,NA,d,0.6158,Hi,,,,,,4,,,,,,,,high,17,0,17,0,1,,,,,,,,,
297007,2022-11-21_10h32.49.485,vts_reward_expectancy_bt,2022.2.4,MacIntel,59.97361161,Chrome,1280,800,,,,,1,1083,,,,,,,,,,,,,,,,,181,F,hexagon,1,1,,,,,,,,,,,,,,,,repeat,number,numRpt,f,0.6814,Lo,,,,,,4,,,,,,,,high,18,0,18,0,1,,,,,,,,,
297007,2022-11-21_10h32.49.485,vts_reward_expectancy_bt,2022.2.4,MacIntel,59.97361161,Chrome,1280,800,,,,,10,1093,,,,,,,,,,,,,,,,,132,B,circle,1,0,,,,,,,,,,,,,,,,repeat,number,numRpt,d,0.6326,Lo,,,,,,4,,,,,,,,high,19,0,19,0,1,,,,,,,,,
297007,2022-11-21_10h32.49.485,vts_reward_expectancy_bt,2022.2.4,MacIntel,59.97361161,Chrome,1280,800,,,,,0,1093,,,,,,,,,,,,,,,,,160,D,star,1,0,,,,,,,,,,,,,,,,repeat,number,numRpt,f,0.6649,Hi,,,,,,4,,,,,,,,high,20,0,20,0,1,,,,,,,,,
297007,2022-11-21_10h32.49.485,vts_reward_expectancy_bt,2022.2.4,MacIntel,59.97361161,Chrome,1280,800,,,,,1,1094,,,,,,,,,,,,,,,,,167,U,hexagon,1,0,,,,,,,,,,,,,,,,switch,letter,lettSwt,k,0.58,Lo,,,,,,4,,,,,,,,high,21,0,21,0,1,,,,,,,,,
297007,2022-11-21_10h32.49.485,vts_reward_expectancy_bt,2022.2.4,MacIntel,59.97361161,Chrome,1280,800,,,,,0,1094,,,,,,,,,,,,,,,,,139,S,triangle,0,0,,,,,,,,,,,,,,,,repeat,letter,NA,j,0.448,Lo,,,,,,4,,,,,,,,high,22,0,22,0,1,,,,,,,,,
297007,2022-11-21_10h32.49.485,vts_reward_expectancy_bt,2022.2.4,MacIntel,59.97361161,Chrome,1280,800,,,,,1,1095,,,,,,,,,,,,,,,,,146,W,circle,1,1,,,,,,,,,,,,,,,,repeat,letter,lettRpt,k,0.5976,Lo,,,,,,4,,,,,,,,high,23,0,23,0,1,,,,,,,,,
297007,2022-11-21_10h32.49.485,vts_reward_expectancy_bt,2022.2.4,MacIntel,59.97361161,Chrome,1280,800,,,,,1,1096,,,,,,,,,,,,,,,,,146,W,hexagon,1,0,,,,,,,,,,,,,,,,repeat,letter,lettRpt,k,0.5195,Lo,,,,,,4,,,,,,,,high,24,0,24,0,1,,,,,,,,,
297007,2022-11-21_10h32.49.485,vts_reward_expectancy_bt,2022.2.4,MacIntel,59.97361161,Chrome,1280,800,,,,,10,1106,,,,,,,,,,,,,,,,,160,U,star,1,0,,,,,,,,,,,,,,,,repeat,letter,lettRpt,k,0.5327,Hi,,,,,,4,,,,,,,,high,25,0,25,0,1,,,,,,,,,
297007,2022-11-21_10h32.49.485,vts_reward_expectancy_bt,2022.2.4,MacIntel,59.97361161,Chrome,1280,800,,,,,0,1106,,,,,,,,,,,,,,,,,174,H,triangle,1,0,,,,,,,,,,,,,,,,repeat,letter,lettRpt,j,1.4181,Hi,,,,,,4,,,,,,,,high,26,0,26,0,1,,,,,,,,,
297007,2022-11-21_10h32.49.485,vts_reward_expectancy_bt,2022.2.4,MacIntel,59.97361161,Chrome,1280,800,,,,,1,1107,,,,,,,,,,,,,,,,,125,Y,circle,1,0,,,,,,,,,,,,,,,,repeat,letter,lettRpt,k,0.7772,Lo,,,,,,4,,,,,,,,high,27,0,27,0,1,,,,,,,,,
297007,2022-11-21_10h32.49.485,vts_reward_expectancy_bt,2022.2.4,MacIntel,59.97361161,Chrome,1280,800,,,,,0,1107,,,,,,,,,,,,,,,,,167,D,triangle,1,0,,,,,,,,,,,,,,,,repeat,letter,lettRpt,j,0.7817,Hi,,,,,,4,,,,,,,,high,28,0,28,0,1,,,,,,,,,
297007,2022-11-21_10h32.49.485,vts_reward_expectancy_bt,2022.2.4,MacIntel,59.97361161,Chrome,1280,800,,,,,10,1117,,,,,,,,,,,,,,,,,139,B,circle,1,0,,,,,,,,,,,,,,,,repeat,letter,lettRpt,j,0.7461,Lo,,,,,,4,,,,,,,,high,29,0,29,0,1,,,,,,,,,
297007,2022-11-21_10h32.49.485,vts_reward_expectancy_bt,2022.2.4,MacIntel,59.97361161,Chrome,1280,800,,,,,1,1118,,,,,,,,,,,,,,,,,132,F,hexagon,1,0,,,,,,,,,,,,,,,,switch,number,numSwt,d,0.9471,Lo,,,,,,4,,,,,,,,high,30,0,30,0,1,,,,,,,,,
297007,2022-11-21_10h32.49.485,vts_reward_expectancy_bt,2022.2.4,MacIntel,59.97361161,Chrome,1280,800,,,,,0,1118,,,,,,,,,,,,,,,,,181,S,star,1,0,,,,,,,,,,,,,,,,repeat,number,numRpt,f,0.6815,Hi,,,,,,4,,,,,,,,high,31,0,31,0,1,,,,,,,,,
297007,2022-11-21_10h32.49.485,vts_reward_expectancy_bt,2022.2.4,MacIntel,59.97361161,Chrome,1280,800,,,,,0,1118,,,,,,,,,,,,,,,,,181,H,triangle,1,0,,,,,,,,,,,,,,,,switch,letter,lettSwt,j,0.7133,Hi,,,,,,5,,,,,,space,0.8962,high,0,0,0,0,1,,,,,,,,,
297007,2022-11-21_10h32.49.485,vts_reward_expectancy_bt,2022.2.4,MacIntel,59.97361161,Chrome,1280,800,,,,,10,1128,,,,,,,,,,,,,,,,,167,F,star,1,0,,,,,,,,,,,,,,,,repeat,letter,lettRpt,j,0.6292,Hi,,,,,,5,,,,,,,,high,1,0,1,0,1,,,,,,,,,
297007,2022-11-21_10h32.49.485,vts_reward_expectancy_bt,2022.2.4,MacIntel,59.97361161,Chrome,1280,800,,,,,1,1129,,,,,,,,,,,,,,,,,125,D,hexagon,1,0,,,,,,,,,,,,,,,,repeat,letter,lettRpt,j,0.4978,Lo,,,,,,5,,,,,,,,high,2,0,2,0,1,,,,,,,,,
297007,2022-11-21_10h32.49.485,vts_reward_expectancy_bt,2022.2.4,MacIntel,59.97361161,Chrome,1280,800,,,,,1,1130,,,,,,,,,,,,,,,,,174,W,circle,1,0,,,,,,,,,,,,,,,,repeat,letter,lettRpt,k,0.3845,Lo,,,,,,5,,,,,,,,high,3,0,3,0,1,,,,,,,,,
297007,2022-11-21_10h32.49.485,vts_reward_expectancy_bt,2022.2.4,MacIntel,59.97361161,Chrome,1280,800,,,,,0,1130,,,,,,,,,,,,,,,,,146,S,triangle,0,0,,,,,,,,,,,,,,,,repeat,letter,NA,j,0.4634,Lo,,,,,,5,,,,,,,,high,4,0,4,0,1,,,,,,,,,
297007,2022-11-21_10h32.49.485,vts_reward_expectancy_bt,2022.2.4,MacIntel,59.97361161,Chrome,1280,800,,,,,0,1130,,,,,,,,,,,,,,,,,139,B,star,1,1,,,,,,,,,,,,,,,,switch,number,numSwt,d,0.9987,Hi,,,,,,5,,,,,,,,high,5,0,5,0,1,,,,,,,,,
297007,2022-11-21_10h32.49.485,vts_reward_expectancy_bt,2022.2.4,MacIntel,59.97361161,Chrome,1280,800,,,,,1,1131,,,,,,,,,,,,,,,,,132,Y,hexagon,1,0,,,,,,,,,,,,,,,,switch,letter,lettSwt,k,0.597,Lo,,,,,,5,,,,,,,,high,6,0,6,0,1,,,,,,,,,
297007,2022-11-21_10h32.49.485,vts_reward_expectancy_bt,2022.2.4,MacIntel,59.97361161,Chrome,1280,800,,,,,1,1132,,,,,,,,,,,,,,,,,160,U,circle,1,0,,,,,,,,,,,,,,,,switch,number,numSwt,f,0.5642,Lo,,,,,,5,,,,,,,,high,7,0,7,0,1,,,,,,,,,
297007,2022-11-21_10h32.49.485,vts_reward_expectancy_bt,2022.2.4,MacIntel,59.97361161,Chrome,1280,800,,,,,10,1142,,,,,,,,,,,,,,,,,181,H,triangle,1,0,,,,,,,,,,,,,,,,repeat,number,numRpt,f,0.465,Hi,,,,,,5,,,,,,,,high,8,0,8,0,1,,,,,,,,,
297007,2022-11-21_10h32.49.485,vts_reward_expectancy_bt,2022.2.4,MacIntel,59.97361161,Chrome,1280,800,,,,,10,1152,,,,,,,,,,,,,,,,,167,F,star,1,0,,,,,,,,,,,,,,,,repeat,number,numRpt,f,0.5149,Hi,,,,,,5,,,,,,,,high,9,0,9,0,1,,,,,,,,,
297007,2022-11-21_10h32.49.485,vts_reward_expectancy_bt,2022.2.4,MacIntel,59.97361161,Chrome,1280,800,,,,,1,1153,,,,,,,,,,,,,,,,,125,D,circle,1,0,,,,,,,,,,,,,,,,repeat,number,numRpt,d,0.7809,Lo,,,,,,5,,,,,,,,high,10,0,10,0,1,,,,,,,,,
297007,2022-11-21_10h32.49.485,vts_reward_expectancy_bt,2022.2.4,MacIntel,59.97361161,Chrome,1280,800,,,,,10,1163,,,,,,,,,,,,,,,,,174,W,hexagon,1,0,,,,,,,,,,,,,,,,switch,letter,lettSwt,k,0.7491,Lo,,,,,,5,,,,,,,,high,11,0,11,0,1,,,,,,,,,
297007,2022-11-21_10h32.49.485,vts_reward_expectancy_bt,2022.2.4,MacIntel,59.97361161,Chrome,1280,800,,,,,1,1164,,,,,,,,,,,,,,,,,146,S,hexagon,1,0,,,,,,,,,,,,,,,,repeat,letter,lettRpt,k,0.6322,Lo,,,,,,5,,,,,,,,high,12,0,12,0,1,,,,,,,,,
297007,2022-11-21_10h32.49.485,vts_reward_expectancy_bt,2022.2.4,MacIntel,59.97361161,Chrome,1280,800,,,,,0,1164,,,,,,,,,,,,,,,,,139,B,star,1,0,,,,,,,,,,,,,,,,switch,number,numSwt,d,0.7324,Hi,,,,,,5,,,,,,,,high,13,0,13,0,1,,,,,,,,,
297007,2022-11-21_10h32.49.485,vts_reward_expectancy_bt,2022.2.4,MacIntel,59.97361161,Chrome,1280,800,,,,,10,1174,,,,,,,,,,,,,,,,,132,Y,triangle,1,0,,,,,,,,,,,,,,,,repeat,number,numRpt,d,0.4981,Hi,,,,,,5,,,,,,,,high,14,0,14,0,1,,,,,,,,,
297007,2022-11-21_10h32.49.485,vts_reward_expectancy_bt,2022.2.4,MacIntel,59.97361161,Chrome,1280,800,,,,,0,1174,,,,,,,,,,,,,,,,,160,U,circle,0,0,,,,,,,,,,,,,,,,repeat,number,NA,d,0.597,Hi,,,,,,5,,,,,,,,high,15,0,15,0,1,,,,,,,,,
297007,2022-11-21_10h32.49.485,vts_reward_expectancy_bt,2022.2.4,MacIntel,59.97361161,Chrome,1280,800,,,,,10,1184,,,,,,,,,,,,,,,,,181,S,circle,1,1,,,,,,,,,,,,,,,,repeat,number,numRpt,f,0.481,Lo,,,,,,5,,,,,,,,high,16,0,16,0,1,,,,,,,,,
297007,2022-11-21_10h32.49.485,vts_reward_expectancy_bt,2022.2.4,MacIntel,59.97361161,Chrome,1280,800,,,,,0,1184,,,,,,,,,,,,,,,,,139,Y,star,1,0,,,,,,,,,,,,,,,,repeat,number,numRpt,d,0.8806,Hi,,,,,,5,,,,,,,,high,17,0,17,0,1,,,,,,,,,
297007,2022-11-21_10h32.49.485,vts_reward_expectancy_bt,2022.2.4,MacIntel,59.97361161,Chrome,1280,800,,,,,1,1185,,,,,,,,,,,,,,,,,174,F,hexagon,1,0,,,,,,,,,,,,,,,,repeat,number,numRpt,f,0.5483,Lo,,,,,,5,,,,,,,,high,18,0,18,0,1,,,,,,,,,
297007,2022-11-21_10h32.49.485,vts_reward_expectancy_bt,2022.2.4,MacIntel,59.97361161,Chrome,1280,800,,,,,0,1185,,,,,,,,,,,,,,,,,146,H,triangle,0,0,,,,,,,,,,,,,,,,switch,letter,NA,k,1.2174,Lo,,,,,,5,,,,,,,,high,19,0,19,0,1,,,,,,,,,
297007,2022-11-21_10h32.49.485,vts_reward_expectancy_bt,2022.2.4,MacIntel,59.97361161,Chrome,1280,800,,,,,0,1185,,,,,,,,,,,,,,,,,167,U,triangle,1,1,,,,,,,,,,,,,,,,repeat,letter,lettRpt,k,1.2665,Hi,,,,,,5,,,,,,,,high,20,0,20,0,1,,,,,,,,,
297007,2022-11-21_10h32.49.485,vts_reward_expectancy_bt,2022.2.4,MacIntel,59.97361161,Chrome,1280,800,,,,,0,1185,,,,,,,,,,,,,,,,,132,B,star,1,0,,,,,,,,,,,,,,,,repeat,letter,lettRpt,j,0.7845,Hi,,,,,,5,,,,,,,,high,21,0,21,0,1,,,,,,,,,
297007,2022-11-21_10h32.49.485,vts_reward_expectancy_bt,2022.2.4,MacIntel,59.97361161,Chrome,1280,800,,,,,1,1186,,,,,,,,,,,,,,,,,160,W,hexagon,1,0,,,,,,,,,,,,,,,,repeat,letter,lettRpt,k,0.6995,Lo,,,,,,5,,,,,,,,high,22,0,22,0,1,,,,,,,,,
297007,2022-11-21_10h32.49.485,vts_reward_expectancy_bt,2022.2.4,MacIntel,59.97361161,Chrome,1280,800,,,,,10,1196,,,,,,,,,,,,,,,,,125,D,circle,1,0,,,,,,,,,,,,,,,,repeat,letter,lettRpt,j,1.0153,Lo,,,,,,5,,,,,,,,high,23,0,23,0,1,,,,,,,,,
297007,2022-11-21_10h32.49.485,vts_reward_expectancy_bt,2022.2.4,MacIntel,59.97361161,Chrome,1280,800,,,,,1,1197,,,,,,,,,,,,,,,,,139,S,star,1,0,,,,,,,,,,,,,,,,repeat,letter,lettRpt,k,0.5676,Hi,,,,,,5,,,,,,,,high,24,0,24,0,1,,,,,,,,,
297007,2022-11-21_10h32.49.485,vts_reward_expectancy_bt,2022.2.4,MacIntel,59.97361161,Chrome,1280,800,,,,,1,1198,,,,,,,,,,,,,,,,,160,Y,circle,1,0,,,,,,,,,,,,,,,,switch,number,numSwt,f,0.6478,Lo,,,,,,5,,,,,,,,high,25,0,25,0,1,,,,,,,,,
297007,2022-11-21_10h32.49.485,vts_reward_expectancy_bt,2022.2.4,MacIntel,59.97361161,Chrome,1280,800,,,,,0,1198,,,,,,,,,,,,,,,,,146,U,triangle,0,0,,,,,,,,,,,,,,,,repeat,number,NA,f,0.7639,Lo,,,,,,5,,,,,,,,high,26,0,26,0,1,,,,,,,,,
297007,2022-11-21_10h32.49.485,vts_reward_expectancy_bt,2022.2.4,MacIntel,59.97361161,Chrome,1280,800,,,,,1,1199,,,,,,,,,,,,,,,,,132,B,hexagon,1,1,,,,,,,,,,,,,,,,repeat,number,numRpt,d,0.6806,Lo,,,,,,5,,,,,,,,high,27,0,27,0,1,,,,,,,,,
297007,2022-11-21_10h32.49.485,vts_reward_expectancy_bt,2022.2.4,MacIntel,59.97361161,Chrome,1280,800,,,,,10,1209,,,,,,,,,,,,,,,,,181,D,triangle,1,0,,,,,,,,,,,,,,,,repeat,number,numRpt,f,0.4833,Hi,,,,,,5,,,,,,,,high,28,0,28,0,1,,,,,,,,,
297007,2022-11-21_10h32.49.485,vts_reward_expectancy_bt,2022.2.4,MacIntel,59.97361161,Chrome,1280,800,,,,,10,1219,,,,,,,,,,,,,,,,,174,W,star,1,0,,,,,,,,,,,,,,,,repeat,number,numRpt,f,0.6136,Hi,,,,,,5,,,,,,,,high,29,0,29,0,1,,,,,,,,,
297007,2022-11-21_10h32.49.485,vts_reward_expectancy_bt,2022.2.4,MacIntel,59.97361161,Chrome,1280,800,,,,,1,1220,,,,,,,,,,,,,,,,,167,F,circle,1,0,,,,,,,,,,,,,,,,repeat,number,numRpt,f,0.4642,Lo,,,,,,5,,,,,,,,high,30,0,30,0,1,,,,,,,,,
297007,2022-11-21_10h32.49.485,vts_reward_expectancy_bt,2022.2.4,MacIntel,59.97361161,Chrome,1280,800,,,,,1,1221,,,,,,,,,,,,,,,,,125,H,hexagon,1,0,,,,,,,,,,,,,,,,switch,letter,lettSwt,j,0.5671,Lo,,,,,,5,,,,,,,,high,31,0,31,0,1,,,,,,,,,
297007,2022-11-21_10h32.49.485,vts_reward_expectancy_bt,2022.2.4,MacIntel,59.97361161,Chrome,1280,800,,,,,10,1231,,,,,,,,,,,,,,,,,174,U,star,1,0,,,,,,,,,,,,,,,,repeat,letter,lettRpt,k,0.5475,Hi,,,,,,6,,,,,,space,0.9983,high,0,0,0,0,1,,,,,,,,,
297007,2022-11-21_10h32.49.485,vts_reward_expectancy_bt,2022.2.4,MacIntel,59.97361161,Chrome,1280,800,,,,,1,1232,,,,,,,,,,,,,,,,,181,W,circle,1,0,,,,,,,,,,,,,,,,repeat,letter,lettRpt,k,0.5325,Lo,,,,,,6,,,,,,,,high,1,0,1,0,1,,,,,,,,,
297007,2022-11-21_10h32.49.485,vts_reward_expectancy_bt,2022.2.4,MacIntel,59.97361161,Chrome,1280,800,,,,,10,1242,,,,,,,,,,,,,,,,,139,F,hexagon,1,0,,,,,,,,,,,,,,,,repeat,letter,lettRpt,j,0.5651,Lo,,,,,,6,,,,,,,,high,2,0,2,0,1,,,,,,,,,
297007,2022-11-21_10h32.49.485,vts_reward_expectancy_bt,2022.2.4,MacIntel,59.97361161,Chrome,1280,800,,,,,0,1242,,,,,,,,,,,,,,,,,132,H,triangle,1,0,,,,,,,,,,,,,,,,repeat,letter,lettRpt,j,0.6319,Hi,,,,,,6,,,,,,,,high,3,0,3,0,1,,,,,,,,,
297007,2022-11-21_10h32.49.485,vts_reward_expectancy_bt,2022.2.4,MacIntel,59.97361161,Chrome,1280,800,,,,,10,1252,,,,,,,,,,,,,,,,,146,D,star,1,0,,,,,,,,,,,,,,,,repeat,letter,lettRpt,j,0.4322,Hi,,,,,,6,,,,,,,,high,4,0,4,0,1,,,,,,,,,
297007,2022-11-21_10h32.49.485,vts_reward_expectancy_bt,2022.2.4,MacIntel,59.97361161,Chrome,1280,800,,,,,1,1253,,,,,,,,,,,,,,,,,125,S,circle,1,0,,,,,,,,,,,,,,,,repeat,letter,lettRpt,k,0.5318,Lo,,,,,,6,,,,,,,,high,5,0,5,0,1,,,,,,,,,
297007,2022-11-21_10h32.49.485,vts_reward_expectancy_bt,2022.2.4,MacIntel,59.97361161,Chrome,1280,800,,,,,1,1254,,,,,,,,,,,,,,,,,167,Y,hexagon,1,0,,,,,,,,,,,,,,,,switch,number,numSwt,f,0.417,Lo,,,,,,6,,,,,,,,high,6,0,6,0,1,,,,,,,,,
297007,2022-11-21_10h32.49.485,vts_reward_expectancy_bt,2022.2.4,MacIntel,59.97361161,Chrome,1280,800,,,,,0,1254,,,,,,,,,,,,,,,,,160,B,triangle,1,0,,,,,,,,,,,,,,,,repeat,number,numRpt,f,0.5796,Hi,,,,,,6,,,,,,,,high,7,0,7,0,1,,,,,,,,,
297007,2022-11-21_10h32.49.485,vts_reward_expectancy_bt,2022.2.4,MacIntel,59.97361161,Chrome,1280,800,,,,,0,1254,,,,,,,,,,,,,,,,,174,U,star,1,0,,,,,,,,,,,,,,,,repeat,number,numRpt,f,0.6483,Hi,,,,,,6,,,,,,,,high,8,0,8,0,1,,,,,,,,,
297007,2022-11-21_10h32.49.485,vts_reward_expectancy_bt,2022.2.4,MacIntel,59.97361161,Chrome,1280,800,,,,,10,1264,,,,,,,,,,,,,,,,,181,W,triangle,1,0,,,,,,,,,,,,,,,,repeat,number,numRpt,f,0.4831,Hi,,,,,,6,,,,,,,,high,9,0,9,0,1,,,,,,,,,
