participant,date,expName,psychopyVersion,OS,frameRate,browser,xResolution,yResolution,key_resp.keys,key_resp.rt,training_resp.keys,training_resp.rt,points_trial,points_cumul,trainBlock,training.thisRepN,training.thisTrialN,training.thisN,training.thisIndex,training.ran,LTriangleOpac,LCircleOpac,LHexagonOpac,LStarOpac,RTriangleOpac,RCircleOpac,RHexagonOpac,RStarOpac,LShape_ID,RShape_ID,curr_topStim,curr_bottStim,curr_shape,acc,E1,target_resp_prac1.keys,pracBlock,task1_prac_trials.thisRepN,task1_prac_trials.thisTrialN,task1_prac_trials.thisN,task1_prac_trials.thisIndex,task1_prac_trials.ran,target_resp_prac1.rt,target_resp_prac2.keys,target_resp_prac2.rt,task2_praac_trials.thisRepN,task2_praac_trials.thisTrialN,task2_praac_trials.thisN,task2_praac_trials.thisIndex,task2_praac_trials.ran,alt,task,condition,target_resp.keys,target_resp.rt,rewCond,vts_practice_trials.thisRepN,vts_practice_trials.thisTrialN,vts_practice_trials.thisN,vts_practice_trials.thisIndex,vts_practice_trials.ran,blockNum,trials_norew.thisRepN,trials_norew.thisTrialN,trials_norew.thisN,trials_norew.thisIndex,trials_norew.ran,key_resp_2.keys,key_resp_2.rt,rewExpectancy,trials_rew.thisRepN,trials_rew.thisTrialN,trials_rew.thisN,trials_rew.thisIndex,trials_rew.ran,Q1,Q2,Q2_text,Q3,Q4,Q5_text,Q5,xRes,yRes
297028,2022-12-07_15h17.40.322,vts_reward_expectancy_bt,2022.2.4,Win32,14.999925,Chrome,1536,864,,,,,,,,,,,,,,,,,,,,,,,,,,,,,,,,,,,,,,,,,,,,,,,,,,,,,,,,,,,,,,,,,,,,,,,,,,,,
297028,2022-12-07_15h17.40.322,vts_reward_expectancy_bt,2022.2.4,Win32,14.999925,Chrome,1536,864,space,23.3078,,,,,,,,,,,,,,,,,,,,,,,,,,,,,,,,,,,,,,,,,,,,,,,,,,,,,,,,,,,,,,,,,,,,,,,,,,
297028,2022-12-07_15h17.40.322,vts_reward_expectancy_bt,2022.2.4,Win32,14.999925,Chrome,1536,864,,,,,,,,,,,,,,,,,,,,,,,,,,,,,,,,,,,,,,,,,,,,,,,,,,,,,,,,,,,,,,,,,,,,,,,,,,,,
297028,2022-12-07_15h17.40.322,vts_reward_expectancy_bt,2022.2.4,Win32,14.999925,Chrome,1536,864,,,l,2.4583,1,1,0,0,0,0,9,1,0,0,0,1,1,0,0,0,star,triangle,,,,,,,,,,,,,,,,,,,,,,,,,,,,,,,,,,,,,,,,,,,,,,,,,,,,,,
297028,2022-12-07_15h17.40.322,vts_reward_expectancy_bt,2022.2.4,Win32,14.999925,Chrome,1536,864,,,a,1.7399,10,11,0,0,1,1,11,1,0,0,0,1,0,0,1,0,star,hexagon,,,,,,,,,,,,,,,,,,,,,,,,,,,,,,,,,,,,,,,,,,,,,,,,,,,,,,
297028,2022-12-07_15h17.40.322,vts_reward_expectancy_bt,2022.2.4,Win32,14.999925,Chrome,1536,864,,,l,1.4991,1,12,0,0,2,2,5,1,0,1,0,0,0,0,0,1,circle,star,,,,,,,,,,,,,,,,,,,,,,,,,,,,,,,,,,,,,,,,,,,,,,,,,,,,,,
297028,2022-12-07_15h17.40.322,vts_reward_expectancy_bt,2022.2.4,Win32,14.999925,Chrome,1536,864,,,l,1.7311,1,13,0,0,3,3,8,1,0,0,1,0,0,0,0,1,hexagon,star,,,,,,,,,,,,,,,,,,,,,,,,,,,,,,,,,,,,,,,,,,,,,,,,,,,,,,
297028,2022-12-07_15h17.40.322,vts_reward_expectancy_bt,2022.2.4,Win32,14.999925,Chrome,1536,864,,,l,1.602,10,23,0,0,4,4,10,1,0,0,0,1,0,1,0,0,star ,circle,,,,,,,,,,,,,,,,,,,,,,,,,,,,,,,,,,,,,,,,,,,,,,,,,,,,,,
297028,2022-12-07_15h17.40.322,vts_reward_expectancy_bt,2022.2.4,Win32,14.999925,Chrome,1536,864,,,l,1.8474,1,24,0,0,5,5,1,1,1,0,0,0,0,0,1,0,triangle,hexagon,,,,,,,,,,,,,,,,,,,,,,,,,,,,,,,,,,,,,,,,,,,,,,,,,,,,,,
297028,2022-12-07_15h17.40.322,vts_reward_expectancy_bt,2022.2.4,Win32,14.999925,Chrome,1536,864,,,a,2.369,1,25,0,0,6,6,0,1,1,0,0,0,0,1,0,0,triangle,circle,,,,,,,,,,,,,,,,,,,,,,,,,,,,,,,,,,,,,,,,,,,,,,,,,,,,,,
297028,2022-12-07_15h17.40.322,vts_reward_expectancy_bt,2022.2.4,Win32,14.999925,Chrome,1536,864,,,l,0.992,10,35,0,0,7,7,2,1,1,0,0,0,0,0,0,1,triangle,star,,,,,,,,,,,,,,,,,,,,,,,,,,,,,,,,,,,,,,,,,,,,,,,,,,,,,,
297028,2022-12-07_15h17.40.322,vts_reward_expectancy_bt,2022.2.4,Win32,14.999925,Chrome,1536,864,,,a,1.1649,1,36,0,0,8,8,6,1,0,0,1,0,1,0,0,0,hexagon,triangle,,,,,,,,,,,,,,,,,,,,,,,,,,,,,,,,,,,,,,,,,,,,,,,,,,,,,,
297028,2022-12-07_15h17.40.322,vts_reward_expectancy_bt,2022.2.4,Win32,14.999925,Chrome,1536,864,,,a,2.1383,10,46,0,0,9,9,3,1,0,1,0,0,1,0,0,0,circle,triangle,,,,,,,,,,,,,,,,,,,,,,,,,,,,,,,,,,,,,,,,,,,,,,,,,,,,,,
297028,2022-12-07_15h17.40.322,vts_reward_expectancy_bt,2022.2.4,Win32,14.999925,Chrome,1536,864,,,l,1.6933,10,56,0,0,10,10,7,1,0,0,1,0,0,1,0,0,hexagon,circle,,,,,,,,,,,,,,,,,,,,,,,,,,,,,,,,,,,,,,,,,,,,,,,,,,,,,,
297028,2022-12-07_15h17.40.322,vts_reward_expectancy_bt,2022.2.4,Win32,14.999925,Chrome,1536,864,,,a,1.3072,10,66,0,0,11,11,4,1,0,1,0,0,0,0,1,0,circle,hexagon,,,,,,,,,,,,,,,,,,,,,,,,,,,,,,,,,,,,,,,,,,,,,,,,,,,,,,
297028,2022-12-07_15h17.40.322,vts_reward_expectancy_bt,2022.2.4,Win32,14.999925,Chrome,1536,864,,,l,1.4161,10,76,0,1,0,12,2,1,1,0,0,0,0,0,0,1,triangle,star,,,,,,,,,,,,,,,,,,,,,,,,,,,,,,,,,,,,,,,,,,,,,,,,,,,,,,
297028,2022-12-07_15h17.40.322,vts_reward_expectancy_bt,2022.2.4,Win32,14.999925,Chrome,1536,864,,,a,1.0965,1,77,0,1,1,13,4,1,0,1,0,0,0,0,1,0,circle,hexagon,,,,,,,,,,,,,,,,,,,,,,,,,,,,,,,,,,,,,,,,,,,,,,,,,,,,,,
297028,2022-12-07_15h17.40.322,vts_reward_expectancy_bt,2022.2.4,Win32,14.999925,Chrome,1536,864,,,l,1.0524,10,87,0,1,2,14,0,1,1,0,0,0,0,1,0,0,triangle,circle,,,,,,,,,,,,,,,,,,,,,,,,,,,,,,,,,,,,,,,,,,,,,,,,,,,,,,
297028,2022-12-07_15h17.40.322,vts_reward_expectancy_bt,2022.2.4,Win32,14.999925,Chrome,1536,864,,,a,1.4458,1,88,0,1,3,15,3,1,0,1,0,0,1,0,0,0,circle,triangle,,,,,,,,,,,,,,,,,,,,,,,,,,,,,,,,,,,,,,,,,,,,,,,,,,,,,,
297028,2022-12-07_15h17.40.322,vts_reward_expectancy_bt,2022.2.4,Win32,14.999925,Chrome,1536,864,,,a,1.1241,1,89,0,1,4,16,10,1,0,0,0,1,0,1,0,0,star ,circle,,,,,,,,,,,,,,,,,,,,,,,,,,,,,,,,,,,,,,,,,,,,,,,,,,,,,,
297028,2022-12-07_15h17.40.322,vts_reward_expectancy_bt,2022.2.4,Win32,14.999925,Chrome,1536,864,,,a,1.0373,10,99,0,1,5,17,9,1,0,0,0,1,1,0,0,0,star,triangle,,,,,,,,,,,,,,,,,,,,,,,,,,,,,,,,,,,,,,,,,,,,,,,,,,,,,,
297028,2022-12-07_15h17.40.322,vts_reward_expectancy_bt,2022.2.4,Win32,14.999925,Chrome,1536,864,,,l,1.4231,1,100,0,1,6,18,11,1,0,0,0,1,0,0,1,0,star,hexagon,,,,,,,,,,,,,,,,,,,,,,,,,,,,,,,,,,,,,,,,,,,,,,,,,,,,,,
297028,2022-12-07_15h17.40.322,vts_reward_expectancy_bt,2022.2.4,Win32,14.999925,Chrome,1536,864,,,l,1.1237,1,101,0,1,7,19,8,1,0,0,1,0,0,0,0,1,hexagon,star,,,,,,,,,,,,,,,,,,,,,,,,,,,,,,,,,,,,,,,,,,,,,,,,,,,,,,
297028,2022-12-07_15h17.40.322,vts_reward_expectancy_bt,2022.2.4,Win32,14.999925,Chrome,1536,864,,,a,1.61,10,111,0,1,8,20,7,1,0,0,1,0,0,1,0,0,hexagon,circle,,,,,,,,,,,,,,,,,,,,,,,,,,,,,,,,,,,,,,,,,,,,,,,,,,,,,,
297028,2022-12-07_15h17.40.322,vts_reward_expectancy_bt,2022.2.4,Win32,14.999925,Chrome,1536,864,,,l,1.5347,10,121,0,1,9,21,6,1,0,0,1,0,1,0,0,0,hexagon,triangle,,,,,,,,,,,,,,,,,,,,,,,,,,,,,,,,,,,,,,,,,,,,,,,,,,,,,,
297028,2022-12-07_15h17.40.322,vts_reward_expectancy_bt,2022.2.4,Win32,14.999925,Chrome,1536,864,,,l,2.47,1,122,0,1,10,22,5,1,0,1,0,0,0,0,0,1,circle,star,,,,,,,,,,,,,,,,,,,,,,,,,,,,,,,,,,,,,,,,,,,,,,,,,,,,,,
297028,2022-12-07_15h17.40.322,vts_reward_expectancy_bt,2022.2.4,Win32,14.999925,Chrome,1536,864,,,a,2.975,1,123,0,1,11,23,1,1,1,0,0,0,0,0,1,0,triangle,hexagon,,,,,,,,,,,,,,,,,,,,,,,,,,,,,,,,,,,,,,,,,,,,,,,,,,,,,,
297028,2022-12-07_15h17.40.322,vts_reward_expectancy_bt,2022.2.4,Win32,14.999925,Chrome,1536,864,,,l,1.4498,10,133,0,2,0,24,0,1,1,0,0,0,0,1,0,0,triangle,circle,,,,,,,,,,,,,,,,,,,,,,,,,,,,,,,,,,,,,,,,,,,,,,,,,,,,,,
297028,2022-12-07_15h17.40.322,vts_reward_expectancy_bt,2022.2.4,Win32,14.999925,Chrome,1536,864,,,l,1.3443,1,134,0,2,1,25,4,1,0,1,0,0,0,0,1,0,circle,hexagon,,,,,,,,,,,,,,,,,,,,,,,,,,,,,,,,,,,,,,,,,,,,,,,,,,,,,,
297028,2022-12-07_15h17.40.322,vts_reward_expectancy_bt,2022.2.4,Win32,14.999925,Chrome,1536,864,,,a,1.8033,10,144,0,2,2,26,9,1,0,0,0,1,1,0,0,0,star,triangle,,,,,,,,,,,,,,,,,,,,,,,,,,,,,,,,,,,,,,,,,,,,,,,,,,,,,,
297028,2022-12-07_15h17.40.322,vts_reward_expectancy_bt,2022.2.4,Win32,14.999925,Chrome,1536,864,,,a,1.5624,1,145,0,2,3,27,7,1,0,0,1,0,0,1,0,0,hexagon,circle,,,,,,,,,,,,,,,,,,,,,,,,,,,,,,,,,,,,,,,,,,,,,,,,,,,,,,
297028,2022-12-07_15h17.40.322,vts_reward_expectancy_bt,2022.2.4,Win32,14.999925,Chrome,1536,864,,,a,2.049,1,146,0,2,4,28,5,1,0,1,0,0,0,0,0,1,circle,star,,,,,,,,,,,,,,,,,,,,,,,,,,,,,,,,,,,,,,,,,,,,,,,,,,,,,,
297028,2022-12-07_15h17.40.322,vts_reward_expectancy_bt,2022.2.4,Win32,14.999925,Chrome,1536,864,,,l,0.9401,1,147,0,2,5,29,11,1,0,0,0,1,0,0,1,0,star,hexagon,,,,,,,,,,,,,,,,,,,,,,,,,,,,,,,,,,,,,,,,,,,,,,,,,,,,,,
297028,2022-12-07_15h17.40.322,vts_reward_expectancy_bt,2022.2.4,Win32,14.999925,Chrome,1536,864,,,a,0.6232,10,157,0,2,6,30,3,1,0,1,0,0,1,0,0,0,circle,triangle,,,,,,,,,,,,,,,,,,,,,,,,,,,,,,,,,,,,,,,,,,,,,,,,,,,,,,
297028,2022-12-07_15h17.40.322,vts_reward_expectancy_bt,2022.2.4,Win32,14.999925,Chrome,1536,864,,,l,1.0279,1,158,0,2,7,31,8,1,0,0,1,0,0,0,0,1,hexagon,star,,,,,,,,,,,,,,,,,,,,,,,,,,,,,,,,,,,,,,,,,,,,,,,,,,,,,,
297028,2022-12-07_15h17.40.322,vts_reward_expectancy_bt,2022.2.4,Win32,14.999925,Chrome,1536,864,,,a,1.1057,1,159,0,2,8,32,1,1,1,0,0,0,0,0,1,0,triangle,hexagon,,,,,,,,,,,,,,,,,,,,,,,,,,,,,,,,,,,,,,,,,,,,,,,,,,,,,,
297028,2022-12-07_15h17.40.322,vts_reward_expectancy_bt,2022.2.4,Win32,14.999925,Chrome,1536,864,,,l,0.6471,1,160,0,2,9,33,10,1,0,0,0,1,0,1,0,0,star ,circle,,,,,,,,,,,,,,,,,,,,,,,,,,,,,,,,,,,,,,,,,,,,,,,,,,,,,,
297028,2022-12-07_15h17.40.322,vts_reward_expectancy_bt,2022.2.4,Win32,14.999925,Chrome,1536,864,,,l,1.4096,10,170,0,2,10,34,2,1,1,0,0,0,0,0,0,1,triangle,star,,,,,,,,,,,,,,,,,,,,,,,,,,,,,,,,,,,,,,,,,,,,,,,,,,,,,,
297028,2022-12-07_15h17.40.322,vts_reward_expectancy_bt,2022.2.4,Win32,14.999925,Chrome,1536,864,,,a,0.7812,10,180,0,2,11,35,6,1,0,0,1,0,1,0,0,0,hexagon,triangle,,,,,,,,,,,,,,,,,,,,,,,,,,,,,,,,,,,,,,,,,,,,,,,,,,,,,,
297028,2022-12-07_15h17.40.322,vts_reward_expectancy_bt,2022.2.4,Win32,14.999925,Chrome,1536,864,,,l,1.3105,10,190,1,0,0,0,1,1,1,0,0,0,0,0,1,0,triangle,hexagon,,,,,,,,,,,,,,,,,,,,,,,,,,,,,,,,,,,,,,,,,,,,,,,,,,,,,,
297028,2022-12-07_15h17.40.322,vts_reward_expectancy_bt,2022.2.4,Win32,14.999925,Chrome,1536,864,,,a,1.4927,1,191,1,0,1,1,5,1,0,1,0,0,0,0,0,1,circle,star,,,,,,,,,,,,,,,,,,,,,,,,,,,,,,,,,,,,,,,,,,,,,,,,,,,,,,
297028,2022-12-07_15h17.40.322,vts_reward_expectancy_bt,2022.2.4,Win32,14.999925,Chrome,1536,864,,,a,1.6022,10,201,1,0,2,2,3,1,0,1,0,0,1,0,0,0,circle,triangle,,,,,,,,,,,,,,,,,,,,,,,,,,,,,,,,,,,,,,,,,,,,,,,,,,,,,,
297028,2022-12-07_15h17.40.322,vts_reward_expectancy_bt,2022.2.4,Win32,14.999925,Chrome,1536,864,,,l,0.7275,10,211,1,0,3,3,10,1,0,0,0,1,0,1,0,0,star ,circle,,,,,,,,,,,,,,,,,,,,,,,,,,,,,,,,,,,,,,,,,,,,,,,,,,,,,,
297028,2022-12-07_15h17.40.322,vts_reward_expectancy_bt,2022.2.4,Win32,14.999925,Chrome,1536,864,,,a,2.6342,1,212,1,0,4,4,7,1,0,0,1,0,0,1,0,0,hexagon,circle,,,,,,,,,,,,,,,,,,,,,,,,,,,,,,,,,,,,,,,,,,,,,,,,,,,,,,
297028,2022-12-07_15h17.40.322,vts_reward_expectancy_bt,2022.2.4,Win32,14.999925,Chrome,1536,864,,,a,1.2141,10,222,1,0,5,5,11,1,0,0,0,1,0,0,1,0,star,hexagon,,,,,,,,,,,,,,,,,,,,,,,,,,,,,,,,,,,,,,,,,,,,,,,,,,,,,,
297028,2022-12-07_15h17.40.322,vts_reward_expectancy_bt,2022.2.4,Win32,14.999925,Chrome,1536,864,,,l,1.2073,10,232,1,0,6,6,6,1,0,0,1,0,1,0,0,0,hexagon,triangle,,,,,,,,,,,,,,,,,,,,,,,,,,,,,,,,,,,,,,,,,,,,,,,,,,,,,,
297028,2022-12-07_15h17.40.322,vts_reward_expectancy_bt,2022.2.4,Win32,14.999925,Chrome,1536,864,,,l,1.761,10,242,1,0,7,7,0,1,1,0,0,0,0,1,0,0,triangle,circle,,,,,,,,,,,,,,,,,,,,,,,,,,,,,,,,,,,,,,,,,,,,,,,,,,,,,,
297028,2022-12-07_15h17.40.322,vts_reward_expectancy_bt,2022.2.4,Win32,14.999925,Chrome,1536,864,,,a,1.0294,1,243,1,0,8,8,9,1,0,0,0,1,1,0,0,0,star,triangle,,,,,,,,,,,,,,,,,,,,,,,,,,,,,,,,,,,,,,,,,,,,,,,,,,,,,,
297028,2022-12-07_15h17.40.322,vts_reward_expectancy_bt,2022.2.4,Win32,14.999925,Chrome,1536,864,,,l,0.9843,10,253,1,0,9,9,2,1,1,0,0,0,0,0,0,1,triangle,star,,,,,,,,,,,,,,,,,,,,,,,,,,,,,,,,,,,,,,,,,,,,,,,,,,,,,,
297028,2022-12-07_15h17.40.322,vts_reward_expectancy_bt,2022.2.4,Win32,14.999925,Chrome,1536,864,,,a,1.0317,10,263,1,0,10,10,4,1,0,1,0,0,0,0,1,0,circle,hexagon,,,,,,,,,,,,,,,,,,,,,,,,,,,,,,,,,,,,,,,,,,,,,,,,,,,,,,
297028,2022-12-07_15h17.40.322,vts_reward_expectancy_bt,2022.2.4,Win32,14.999925,Chrome,1536,864,,,l,1.1816,1,264,1,0,11,11,8,1,0,0,1,0,0,0,0,1,hexagon,star,,,,,,,,,,,,,,,,,,,,,,,,,,,,,,,,,,,,,,,,,,,,,,,,,,,,,,
297028,2022-12-07_15h17.40.322,vts_reward_expectancy_bt,2022.2.4,Win32,14.999925,Chrome,1536,864,,,a,1.9286,1,265,1,1,0,12,0,1,1,0,0,0,0,1,0,0,triangle,circle,,,,,,,,,,,,,,,,,,,,,,,,,,,,,,,,,,,,,,,,,,,,,,,,,,,,,,
297028,2022-12-07_15h17.40.322,vts_reward_expectancy_bt,2022.2.4,Win32,14.999925,Chrome,1536,864,,,a,1.3149,10,275,1,1,1,13,11,1,0,0,0,1,0,0,1,0,star,hexagon,,,,,,,,,,,,,,,,,,,,,,,,,,,,,,,,,,,,,,,,,,,,,,,,,,,,,,
297028,2022-12-07_15h17.40.322,vts_reward_expectancy_bt,2022.2.4,Win32,14.999925,Chrome,1536,864,,,l,2.28,1,276,1,1,2,14,8,1,0,0,1,0,0,0,0,1,hexagon,star,,,,,,,,,,,,,,,,,,,,,,,,,,,,,,,,,,,,,,,,,,,,,,,,,,,,,,
297028,2022-12-07_15h17.40.322,vts_reward_expectancy_bt,2022.2.4,Win32,14.999925,Chrome,1536,864,,,a,0.8233,1,277,1,1,3,15,5,1,0,1,0,0,0,0,0,1,circle,star,,,,,,,,,,,,,,,,,,,,,,,,,,,,,,,,,,,,,,,,,,,,,,,,,,,,,,
297028,2022-12-07_15h17.40.322,vts_reward_expectancy_bt,2022.2.4,Win32,14.999925,Chrome,1536,864,,,l,1.1303,1,278,1,1,4,16,4,1,0,1,0,0,0,0,1,0,circle,hexagon,,,,,,,,,,,,,,,,,,,,,,,,,,,,,,,,,,,,,,,,,,,,,,,,,,,,,,
297028,2022-12-07_15h17.40.322,vts_reward_expectancy_bt,2022.2.4,Win32,14.999925,Chrome,1536,864,,,a,0.8071,1,279,1,1,5,17,10,1,0,0,0,1,0,1,0,0,star ,circle,,,,,,,,,,,,,,,,,,,,,,,,,,,,,,,,,,,,,,,,,,,,,,,,,,,,,,
297028,2022-12-07_15h17.40.322,vts_reward_expectancy_bt,2022.2.4,Win32,14.999925,Chrome,1536,864,,,l,0.3742,1,280,1,1,6,18,6,1,0,0,1,0,1,0,0,0,hexagon,triangle,,,,,,,,,,,,,,,,,,,,,,,,,,,,,,,,,,,,,,,,,,,,,,,,,,,,,,
297028,2022-12-07_15h17.40.322,vts_reward_expectancy_bt,2022.2.4,Win32,14.999925,Chrome,1536,864,,,a,0.3288,10,290,1,1,7,19,3,1,0,1,0,0,1,0,0,0,circle,triangle,,,,,,,,,,,,,,,,,,,,,,,,,,,,,,,,,,,,,,,,,,,,,,,,,,,,,,
297028,2022-12-07_15h17.40.322,vts_reward_expectancy_bt,2022.2.4,Win32,14.999925,Chrome,1536,864,,,l,0.418,10,300,1,1,8,20,1,1,1,0,0,0,0,0,1,0,triangle,hexagon,,,,,,,,,,,,,,,,,,,,,,,,,,,,,,,,,,,,,,,,,,,,,,,,,,,,,,
297028,2022-12-07_15h17.40.322,vts_reward_expectancy_bt,2022.2.4,Win32,14.999925,Chrome,1536,864,,,l,0.6547,10,310,1,1,9,21,2,1,1,0,0,0,0,0,0,1,triangle,star,,,,,,,,,,,,,,,,,,,,,,,,,,,,,,,,,,,,,,,,,,,,,,,,,,,,,,
297028,2022-12-07_15h17.40.322,vts_reward_expectancy_bt,2022.2.4,Win32,14.999925,Chrome,1536,864,,,l,0.5652,1,311,1,1,10,22,7,1,0,0,1,0,0,1,0,0,hexagon,circle,,,,,,,,,,,,,,,,,,,,,,,,,,,,,,,,,,,,,,,,,,,,,,,,,,,,,,
297028,2022-12-07_15h17.40.322,vts_reward_expectancy_bt,2022.2.4,Win32,14.999925,Chrome,1536,864,,,a,0.9505,1,312,1,1,11,23,9,1,0,0,0,1,1,0,0,0,star,triangle,,,,,,,,,,,,,,,,,,,,,,,,,,,,,,,,,,,,,,,,,,,,,,,,,,,,,,
297028,2022-12-07_15h17.40.322,vts_reward_expectancy_bt,2022.2.4,Win32,14.999925,Chrome,1536,864,,,l,0.9443,1,313,1,2,0,24,6,1,0,0,1,0,1,0,0,0,hexagon,triangle,,,,,,,,,,,,,,,,,,,,,,,,,,,,,,,,,,,,,,,,,,,,,,,,,,,,,,
297028,2022-12-07_15h17.40.322,vts_reward_expectancy_bt,2022.2.4,Win32,14.999925,Chrome,1536,864,,,a,0.7048,1,314,1,2,1,25,9,1,0,0,0,1,1,0,0,0,star,triangle,,,,,,,,,,,,,,,,,,,,,,,,,,,,,,,,,,,,,,,,,,,,,,,,,,,,,,
297028,2022-12-07_15h17.40.322,vts_reward_expectancy_bt,2022.2.4,Win32,14.999925,Chrome,1536,864,,,l,0.4023,1,315,1,2,2,26,7,1,0,0,1,0,0,1,0,0,hexagon,circle,,,,,,,,,,,,,,,,,,,,,,,,,,,,,,,,,,,,,,,,,,,,,,,,,,,,,,
297028,2022-12-07_15h17.40.322,vts_reward_expectancy_bt,2022.2.4,Win32,14.999925,Chrome,1536,864,,,a,0.3643,1,316,1,2,3,27,10,1,0,0,0,1,0,1,0,0,star ,circle,,,,,,,,,,,,,,,,,,,,,,,,,,,,,,,,,,,,,,,,,,,,,,,,,,,,,,
297028,2022-12-07_15h17.40.322,vts_reward_expectancy_bt,2022.2.4,Win32,14.999925,Chrome,1536,864,,,l,0.3279,10,326,1,2,4,28,8,1,0,0,1,0,0,0,0,1,hexagon,star,,,,,,,,,,,,,,,,,,,,,,,,,,,,,,,,,,,,,,,,,,,,,,,,,,,,,,
297028,2022-12-07_15h17.40.322,vts_reward_expectancy_bt,2022.2.4,Win32,14.999925,Chrome,1536,864,,,l,0.4502,1,327,1,2,5,29,1,1,1,0,0,0,0,0,1,0,triangle,hexagon,,,,,,,,,,,,,,,,,,,,,,,,,,,,,,,,,,,,,,,,,,,,,,,,,,,,,,
297028,2022-12-07_15h17.40.322,vts_reward_expectancy_bt,2022.2.4,Win32,14.999925,Chrome,1536,864,,,a,0.4672,1,328,1,2,6,30,5,1,0,1,0,0,0,0,0,1,circle,star,,,,,,,,,,,,,,,,,,,,,,,,,,,,,,,,,,,,,,,,,,,,,,,,,,,,,,
297028,2022-12-07_15h17.40.322,vts_reward_expectancy_bt,2022.2.4,Win32,14.999925,Chrome,1536,864,,,l,0.5218,1,329,1,2,7,31,4,1,0,1,0,0,0,0,1,0,circle,hexagon,,,,,,,,,,,,,,,,,,,,,,,,,,,,,,,,,,,,,,,,,,,,,,,,,,,,,,
297028,2022-12-07_15h17.40.322,vts_reward_expectancy_bt,2022.2.4,Win32,14.999925,Chrome,1536,864,,,a,0.2423,10,339,1,2,8,32,3,1,0,1,0,0,1,0,0,0,circle,triangle,,,,,,,,,,,,,,,,,,,,,,,,,,,,,,,,,,,,,,,,,,,,,,,,,,,,,,
297028,2022-12-07_15h17.40.322,vts_reward_expectancy_bt,2022.2.4,Win32,14.999925,Chrome,1536,864,,,a,0.7142,1,340,1,2,9,33,11,1,0,0,0,1,0,0,1,0,star,hexagon,,,,,,,,,,,,,,,,,,,,,,,,,,,,,,,,,,,,,,,,,,,,,,,,,,,,,,
297028,2022-12-07_15h17.40.322,vts_reward_expectancy_bt,2022.2.4,Win32,14.999925,Chrome,1536,864,,,l,0.4877,10,350,1,2,10,34,0,1,1,0,0,0,0,1,0,0,triangle,circle,,,,,,,,,,,,,,,,,,,,,,,,,,,,,,,,,,,,,,,,,,,,,,,,,,,,,,
297028,2022-12-07_15h17.40.322,vts_reward_expectancy_bt,2022.2.4,Win32,14.999925,Chrome,1536,864,,,l,0.4759,10,360,1,2,11,35,2,1,1,0,0,0,0,0,0,1,triangle,star,,,,,,,,,,,,,,,,,,,,,,,,,,,,,,,,,,,,,,,,,,,,,,,,,,,,,,
297028,2022-12-07_15h17.40.322,vts_reward_expectancy_bt,2022.2.4,Win32,14.999925,Chrome,1536,864,,,l,1.4994,1,361,2,0,0,0,1,1,1,0,0,0,0,0,1,0,triangle,hexagon,,,,,,,,,,,,,,,,,,,,,,,,,,,,,,,,,,,,,,,,,,,,,,,,,,,,,,
297028,2022-12-07_15h17.40.322,vts_reward_expectancy_bt,2022.2.4,Win32,14.999925,Chrome,1536,864,,,l,0.5123,10,371,2,0,1,1,10,1,0,0,0,1,0,1,0,0,star ,circle,,,,,,,,,,,,,,,,,,,,,,,,,,,,,,,,,,,,,,,,,,,,,,,,,,,,,,
297028,2022-12-07_15h17.40.322,vts_reward_expectancy_bt,2022.2.4,Win32,14.999925,Chrome,1536,864,,,l,0.7707,10,381,2,0,2,2,2,1,1,0,0,0,0,0,0,1,triangle,star,,,,,,,,,,,,,,,,,,,,,,,,,,,,,,,,,,,,,,,,,,,,,,,,,,,,,,
297028,2022-12-07_15h17.40.322,vts_reward_expectancy_bt,2022.2.4,Win32,14.999925,Chrome,1536,864,,,l,0.5322,10,391,2,0,3,3,0,1,1,0,0,0,0,1,0,0,triangle,circle,,,,,,,,,,,,,,,,,,,,,,,,,,,,,,,,,,,,,,,,,,,,,,,,,,,,,,
297028,2022-12-07_15h17.40.322,vts_reward_expectancy_bt,2022.2.4,Win32,14.999925,Chrome,1536,864,,,a,0.4462,10,401,2,0,4,4,5,1,0,1,0,0,0,0,0,1,circle,star,,,,,,,,,,,,,,,,,,,,,,,,,,,,,,,,,,,,,,,,,,,,,,,,,,,,,,
297028,2022-12-07_15h17.40.322,vts_reward_expectancy_bt,2022.2.4,Win32,14.999925,Chrome,1536,864,,,a,0.5235,1,402,2,0,5,5,4,1,0,1,0,0,0,0,1,0,circle,hexagon,,,,,,,,,,,,,,,,,,,,,,,,,,,,,,,,,,,,,,,,,,,,,,,,,,,,,,
297028,2022-12-07_15h17.40.322,vts_reward_expectancy_bt,2022.2.4,Win32,14.999925,Chrome,1536,864,,,a,0.6666,10,412,2,0,6,6,11,1,0,0,0,1,0,0,1,0,star,hexagon,,,,,,,,,,,,,,,,,,,,,,,,,,,,,,,,,,,,,,,,,,,,,,,,,,,,,,
297028,2022-12-07_15h17.40.322,vts_reward_expectancy_bt,2022.2.4,Win32,14.999925,Chrome,1536,864,,,l,0.6265,1,413,2,0,7,7,8,1,0,0,1,0,0,0,0,1,hexagon,star,,,,,,,,,,,,,,,,,,,,,,,,,,,,,,,,,,,,,,,,,,,,,,,,,,,,,,
297028,2022-12-07_15h17.40.322,vts_reward_expectancy_bt,2022.2.4,Win32,14.999925,Chrome,1536,864,,,a,0.4564,1,414,2,0,8,8,3,1,0,1,0,0,1,0,0,0,circle,triangle,,,,,,,,,,,,,,,,,,,,,,,,,,,,,,,,,,,,,,,,,,,,,,,,,,,,,,
297028,2022-12-07_15h17.40.322,vts_reward_expectancy_bt,2022.2.4,Win32,14.999925,Chrome,1536,864,,,a,0.5862,10,424,2,0,9,9,9,1,0,0,0,1,1,0,0,0,star,triangle,,,,,,,,,,,,,,,,,,,,,,,,,,,,,,,,,,,,,,,,,,,,,,,,,,,,,,
297028,2022-12-07_15h17.40.322,vts_reward_expectancy_bt,2022.2.4,Win32,14.999925,Chrome,1536,864,,,a,0.5268,1,425,2,0,10,10,6,1,0,0,1,0,1,0,0,0,hexagon,triangle,,,,,,,,,,,,,,,,,,,,,,,,,,,,,,,,,,,,,,,,,,,,,,,,,,,,,,
297028,2022-12-07_15h17.40.322,vts_reward_expectancy_bt,2022.2.4,Win32,14.999925,Chrome,1536,864,,,l,0.5177,10,435,2,0,11,11,7,1,0,0,1,0,0,1,0,0,hexagon,circle,,,,,,,,,,,,,,,,,,,,,,,,,,,,,,,,,,,,,,,,,,,,,,,,,,,,,,
297028,2022-12-07_15h17.40.322,vts_reward_expectancy_bt,2022.2.4,Win32,14.999925,Chrome,1536,864,,,a,0.6665,10,445,2,1,0,12,9,1,0,0,0,1,1,0,0,0,star,triangle,,,,,,,,,,,,,,,,,,,,,,,,,,,,,,,,,,,,,,,,,,,,,,,,,,,,,,
297028,2022-12-07_15h17.40.322,vts_reward_expectancy_bt,2022.2.4,Win32,14.999925,Chrome,1536,864,,,l,1.0262,1,446,2,1,1,13,1,1,1,0,0,0,0,0,1,0,triangle,hexagon,,,,,,,,,,,,,,,,,,,,,,,,,,,,,,,,,,,,,,,,,,,,,,,,,,,,,,
297028,2022-12-07_15h17.40.322,vts_reward_expectancy_bt,2022.2.4,Win32,14.999925,Chrome,1536,864,,,a,0.5783,10,456,2,1,2,14,3,1,0,1,0,0,1,0,0,0,circle,triangle,,,,,,,,,,,,,,,,,,,,,,,,,,,,,,,,,,,,,,,,,,,,,,,,,,,,,,
297028,2022-12-07_15h17.40.322,vts_reward_expectancy_bt,2022.2.4,Win32,14.999925,Chrome,1536,864,,,l,0.6667,10,466,2,1,3,15,10,1,0,0,0,1,0,1,0,0,star ,circle,,,,,,,,,,,,,,,,,,,,,,,,,,,,,,,,,,,,,,,,,,,,,,,,,,,,,,
297028,2022-12-07_15h17.40.322,vts_reward_expectancy_bt,2022.2.4,Win32,14.999925,Chrome,1536,864,,,a,1.105,10,476,2,1,4,16,8,1,0,0,1,0,0,0,0,1,hexagon,star,,,,,,,,,,,,,,,,,,,,,,,,,,,,,,,,,,,,,,,,,,,,,,,,,,,,,,
297028,2022-12-07_15h17.40.322,vts_reward_expectancy_bt,2022.2.4,Win32,14.999925,Chrome,1536,864,,,l,0.6585,10,486,2,1,5,17,2,1,1,0,0,0,0,0,0,1,triangle,star,,,,,,,,,,,,,,,,,,,,,,,,,,,,,,,,,,,,,,,,,,,,,,,,,,,,,,
297028,2022-12-07_15h17.40.322,vts_reward_expectancy_bt,2022.2.4,Win32,14.999925,Chrome,1536,864,,,a,0.6678,10,496,2,1,6,18,11,1,0,0,0,1,0,0,1,0,star,hexagon,,,,,,,,,,,,,,,,,,,,,,,,,,,,,,,,,,,,,,,,,,,,,,,,,,,,,,
297028,2022-12-07_15h17.40.322,vts_reward_expectancy_bt,2022.2.4,Win32,14.999925,Chrome,1536,864,,,l,0.7296,10,506,2,1,7,19,7,1,0,0,1,0,0,1,0,0,hexagon,circle,,,,,,,,,,,,,,,,,,,,,,,,,,,,,,,,,,,,,,,,,,,,,,,,,,,,,,
297028,2022-12-07_15h17.40.322,vts_reward_expectancy_bt,2022.2.4,Win32,14.999925,Chrome,1536,864,,,l,0.6712,10,516,2,1,8,20,0,1,1,0,0,0,0,1,0,0,triangle,circle,,,,,,,,,,,,,,,,,,,,,,,,,,,,,,,,,,,,,,,,,,,,,,,,,,,,,,
297028,2022-12-07_15h17.40.322,vts_reward_expectancy_bt,2022.2.4,Win32,14.999925,Chrome,1536,864,,,a,0.5932,1,517,2,1,9,21,6,1,0,0,1,0,1,0,0,0,hexagon,triangle,,,,,,,,,,,,,,,,,,,,,,,,,,,,,,,,,,,,,,,,,,,,,,,,,,,,,,
297028,2022-12-07_15h17.40.322,vts_reward_expectancy_bt,2022.2.4,Win32,14.999925,Chrome,1536,864,,,a,1.1007,1,518,2,1,10,22,5,1,0,1,0,0,0,0,0,1,circle,star,,,,,,,,,,,,,,,,,,,,,,,,,,,,,,,,,,,,,,,,,,,,,,,,,,,,,,
297028,2022-12-07_15h17.40.322,vts_reward_expectancy_bt,2022.2.4,Win32,14.999925,Chrome,1536,864,,,a,0.527,10,528,2,1,11,23,4,1,0,1,0,0,0,0,1,0,circle,hexagon,,,,,,,,,,,,,,,,,,,,,,,,,,,,,,,,,,,,,,,,,,,,,,,,,,,,,,
297028,2022-12-07_15h17.40.322,vts_reward_expectancy_bt,2022.2.4,Win32,14.999925,Chrome,1536,864,,,a,0.447,10,538,2,2,0,24,5,1,0,1,0,0,0,0,0,1,circle,star,,,,,,,,,,,,,,,,,,,,,,,,,,,,,,,,,,,,,,,,,,,,,,,,,,,,,,
297028,2022-12-07_15h17.40.322,vts_reward_expectancy_bt,2022.2.4,Win32,14.999925,Chrome,1536,864,,,l,0.5886,10,548,2,2,1,25,2,1,1,0,0,0,0,0,0,1,triangle,star,,,,,,,,,,,,,,,,,,,,,,,,,,,,,,,,,,,,,,,,,,,,,,,,,,,,,,
297028,2022-12-07_15h17.40.322,vts_reward_expectancy_bt,2022.2.4,Win32,14.999925,Chrome,1536,864,,,a,0.6594,1,549,2,2,2,26,3,1,0,1,0,0,1,0,0,0,circle,triangle,,,,,,,,,,,,,,,,,,,,,,,,,,,,,,,,,,,,,,,,,,,,,,,,,,,,,,
297028,2022-12-07_15h17.40.322,vts_reward_expectancy_bt,2022.2.4,Win32,14.999925,Chrome,1536,864,,,l,0.5971,1,550,2,2,3,27,1,1,1,0,0,0,0,0,1,0,triangle,hexagon,,,,,,,,,,,,,,,,,,,,,,,,,,,,,,,,,,,,,,,,,,,,,,,,,,,,,,
297028,2022-12-07_15h17.40.322,vts_reward_expectancy_bt,2022.2.4,Win32,14.999925,Chrome,1536,864,,,l,0.7291,1,551,2,2,4,28,0,1,1,0,0,0,0,1,0,0,triangle,circle,,,,,,,,,,,,,,,,,,,,,,,,,,,,,,,,,,,,,,,,,,,,,,,,,,,,,,
297028,2022-12-07_15h17.40.322,vts_reward_expectancy_bt,2022.2.4,Win32,14.999925,Chrome,1536,864,,,l,0.6672,10,561,2,2,5,29,7,1,0,0,1,0,0,1,0,0,hexagon,circle,,,,,,,,,,,,,,,,,,,,,,,,,,,,,,,,,,,,,,,,,,,,,,,,,,,,,,
297028,2022-12-07_15h17.40.322,vts_reward_expectancy_bt,2022.2.4,Win32,14.999925,Chrome,1536,864,,,l,0.5374,10,571,2,2,6,30,10,1,0,0,0,1,0,1,0,0,star ,circle,,,,,,,,,,,,,,,,,,,,,,,,,,,,,,,,,,,,,,,,,,,,,,,,,,,,,,
297028,2022-12-07_15h17.40.322,vts_reward_expectancy_bt,2022.2.4,Win32,14.999925,Chrome,1536,864,,,a,0.5825,10,581,2,2,7,31,9,1,0,0,0,1,1,0,0,0,star,triangle,,,,,,,,,,,,,,,,,,,,,,,,,,,,,,,,,,,,,,,,,,,,,,,,,,,,,,
297028,2022-12-07_15h17.40.322,vts_reward_expectancy_bt,2022.2.4,Win32,14.999925,Chrome,1536,864,,,a,0.6601,1,582,2,2,8,32,6,1,0,0,1,0,1,0,0,0,hexagon,triangle,,,,,,,,,,,,,,,,,,,,,,,,,,,,,,,,,,,,,,,,,,,,,,,,,,,,,,
297028,2022-12-07_15h17.40.322,vts_reward_expectancy_bt,2022.2.4,Win32,14.999925,Chrome,1536,864,,,a,0.596,1,583,2,2,9,33,4,1,0,1,0,0,0,0,1,0,circle,hexagon,,,,,,,,,,,,,,,,,,,,,,,,,,,,,,,,,,,,,,,,,,,,,,,,,,,,,,
297028,2022-12-07_15h17.40.322,vts_reward_expectancy_bt,2022.2.4,Win32,14.999925,Chrome,1536,864,,,l,0.6641,1,584,2,2,10,34,8,1,0,0,1,0,0,0,0,1,hexagon,star,,,,,,,,,,,,,,,,,,,,,,,,,,,,,,,,,,,,,,,,,,,,,,,,,,,,,,
297028,2022-12-07_15h17.40.322,vts_reward_expectancy_bt,2022.2.4,Win32,14.999925,Chrome,1536,864,,,l,0.5198,1,585,2,2,11,35,11,1,0,0,0,1,0,0,1,0,star,hexagon,,,,,,,,,,,,,,,,,,,,,,,,,,,,,,,,,,,,,,,,,,,,,,,,,,,,,,
297028,2022-12-07_15h17.40.322,vts_reward_expectancy_bt,2022.2.4,Win32,14.999925,Chrome,1536,864,,,,,,,,,,,,,,,,,,,,,,,174,U,triangle,0,0,,0,0,0,0,0,1,,,,,,,,,,,,,,,,,,,,,,,,,,,,,,,,,,,,,,,,,,
297028,2022-12-07_15h17.40.322,vts_reward_expectancy_bt,2022.2.4,Win32,14.999925,Chrome,1536,864,,,,,,,,,,,,,,,,,,,,,,,132,B,star,0,1,,0,1,0,1,0,1,,,,,,,,,,,,,,,,,,,,,,,,,,,,,,,,,,,,,,,,,,
297028,2022-12-07_15h17.40.322,vts_reward_expectancy_bt,2022.2.4,Win32,14.999925,Chrome,1536,864,,,,,,,,,,,,,,,,,,,,,,,167,W,hexagon,0,1,,0,2,0,2,0,1,,,,,,,,,,,,,,,,,,,,,,,,,,,,,,,,,,,,,,,,,,
297028,2022-12-07_15h17.40.322,vts_reward_expectancy_bt,2022.2.4,Win32,14.999925,Chrome,1536,864,,,,,,,,,,,,,,,,,,,,,,,181,S,circle,0,1,,0,3,0,3,0,1,,,,,,,,,,,,,,,,,,,,,,,,,,,,,,,,,,,,,,,,,,
297028,2022-12-07_15h17.40.322,vts_reward_expectancy_bt,2022.2.4,Win32,14.999925,Chrome,1536,864,,,,,,,,,,,,,,,,,,,,,,,160,F,triangle,0,1,,0,4,0,4,0,1,,,,,,,,,,,,,,,,,,,,,,,,,,,,,,,,,,,,,,,,,,
297028,2022-12-07_15h17.40.322,vts_reward_expectancy_bt,2022.2.4,Win32,14.999925,Chrome,1536,864,,,,,,,,,,,,,,,,,,,,,,,146,D,star,2,1,k,0,5,0,5,0,1,1.8228,,,,,,,,,,,,,,,,,,,,,,,,,,,,,,,,,,,,,,,,,
297028,2022-12-07_15h17.40.322,vts_reward_expectancy_bt,2022.2.4,Win32,14.999925,Chrome,1536,864,,,,,,,,,,,,,,,,,,,,,,,125,Y,hexagon,0,0,,0,6,0,6,0,1,,,,,,,,,,,,,,,,,,,,,,,,,,,,,,,,,,,,,,,,,,
297028,2022-12-07_15h17.40.322,vts_reward_expectancy_bt,2022.2.4,Win32,14.999925,Chrome,1536,864,,,,,,,,,,,,,,,,,,,,,,,139,H,circle,0,1,,0,7,0,7,0,1,,,,,,,,,,,,,,,,,,,,,,,,,,,,,,,,,,,,,,,,,,
297028,2022-12-07_15h17.40.322,vts_reward_expectancy_bt,2022.2.4,Win32,14.999925,Chrome,1536,864,,,,,,,,,,,,,,,,,,,,,,,174,U,star,0,1,,0,8,0,8,0,1,,,,,,,,,,,,,,,,,,,,,,,,,,,,,,,,,,,,,,,,,,
297028,2022-12-07_15h17.40.322,vts_reward_expectancy_bt,2022.2.4,Win32,14.999925,Chrome,1536,864,,,,,,,,,,,,,,,,,,,,,,,132,B,hexagon,2,1,k,0,9,0,9,0,1,0.5861,,,,,,,,,,,,,,,,,,,,,,,,,,,,,,,,,,,,,,,,,
297028,2022-12-07_15h17.40.322,vts_reward_expectancy_bt,2022.2.4,Win32,14.999925,Chrome,1536,864,,,,,,,,,,,,,,,,,,,,,,,181,B,star,1,0,f,1,0,0,0,0,1,0.592,,,,,,,,,,,,,,,,,,,,,,,,,,,,,,,,,,,,,,,,,
297028,2022-12-07_15h17.40.322,vts_reward_expectancy_bt,2022.2.4,Win32,14.999925,Chrome,1536,864,,,,,,,,,,,,,,,,,,,,,,,146,W,circle,1,0,d,1,1,0,1,0,1,0.8038,,,,,,,,,,,,,,,,,,,,,,,,,,,,,,,,,,,,,,,,,
297028,2022-12-07_15h17.40.322,vts_reward_expectancy_bt,2022.2.4,Win32,14.999925,Chrome,1536,864,,,,,,,,,,,,,,,,,,,,,,,125,H,hexagon,0,0,f,1,2,0,2,0,1,0.5081,,,,,,,,,,,,,,,,,,,,,,,,,,,,,,,,,,,,,,,,,
297028,2022-12-07_15h17.40.322,vts_reward_expectancy_bt,2022.2.4,Win32,14.999925,Chrome,1536,864,,,,,,,,,,,,,,,,,,,,,,,167,S,triangle,1,1,f,1,3,0,3,0,1,0.5909,,,,,,,,,,,,,,,,,,,,,,,,,,,,,,,,,,,,,,,,,
297028,2022-12-07_15h17.40.322,vts_reward_expectancy_bt,2022.2.4,Win32,14.999925,Chrome,1536,864,,,,,,,,,,,,,,,,,,,,,,,139,Y,star,1,0,d,1,4,0,4,0,1,0.5874,,,,,,,,,,,,,,,,,,,,,,,,,,,,,,,,,,,,,,,,,
297028,2022-12-07_15h17.40.322,vts_reward_expectancy_bt,2022.2.4,Win32,14.999925,Chrome,1536,864,,,,,,,,,,,,,,,,,,,,,,,132,U,circle,1,0,d,1,5,0,5,0,1,0.5192,,,,,,,,,,,,,,,,,,,,,,,,,,,,,,,,,,,,,,,,,
297028,2022-12-07_15h17.40.322,vts_reward_expectancy_bt,2022.2.4,Win32,14.999925,Chrome,1536,864,,,,,,,,,,,,,,,,,,,,,,,174,D,hexagon,1,0,f,1,6,0,6,0,1,0.6555,,,,,,,,,,,,,,,,,,,,,,,,,,,,,,,,,,,,,,,,,
297028,2022-12-07_15h17.40.322,vts_reward_expectancy_bt,2022.2.4,Win32,14.999925,Chrome,1536,864,,,,,,,,,,,,,,,,,,,,,,,160,F,triangle,1,0,f,1,7,0,7,0,1,0.5916,,,,,,,,,,,,,,,,,,,,,,,,,,,,,,,,,,,,,,,,,
297028,2022-12-07_15h17.40.322,vts_reward_expectancy_bt,2022.2.4,Win32,14.999925,Chrome,1536,864,,,,,,,,,,,,,,,,,,,,,,,181,B,circle,1,0,f,1,8,0,8,0,1,0.5778,,,,,,,,,,,,,,,,,,,,,,,,,,,,,,,,,,,,,,,,,
297028,2022-12-07_15h17.40.322,vts_reward_expectancy_bt,2022.2.4,Win32,14.999925,Chrome,1536,864,,,,,,,,,,,,,,,,,,,,,,,146,W,triangle,1,0,d,1,9,0,9,0,1,0.5936,,,,,,,,,,,,,,,,,,,,,,,,,,,,,,,,,,,,,,,,,
297028,2022-12-07_15h17.40.322,vts_reward_expectancy_bt,2022.2.4,Win32,14.999925,Chrome,1536,864,,,,,,,,,,,,,,,,,,,,,,,160,W,star,1,0,,2,,,,,,,k,0.6707,0,0,0,0,1,,,,,,,,,,,,,,,,,,,,,,,,,,,,,,,,,,
297028,2022-12-07_15h17.40.322,vts_reward_expectancy_bt,2022.2.4,Win32,14.999925,Chrome,1536,864,,,,,,,,,,,,,,,,,,,,,,,132,D,triangle,1,0,,2,,,,,,,j,0.6661,1,0,1,0,1,,,,,,,,,,,,,,,,,,,,,,,,,,,,,,,,,,
297028,2022-12-07_15h17.40.322,vts_reward_expectancy_bt,2022.2.4,Win32,14.999925,Chrome,1536,864,,,,,,,,,,,,,,,,,,,,,,,174,H,hexagon,1,0,,2,,,,,,,j,0.751,2,0,2,0,1,,,,,,,,,,,,,,,,,,,,,,,,,,,,,,,,,,
297028,2022-12-07_15h17.40.322,vts_reward_expectancy_bt,2022.2.4,Win32,14.999925,Chrome,1536,864,,,,,,,,,,,,,,,,,,,,,,,181,S,circle,1,0,,2,,,,,,,k,1.0914,3,0,3,0,1,,,,,,,,,,,,,,,,,,,,,,,,,,,,,,,,,,
297028,2022-12-07_15h17.40.322,vts_reward_expectancy_bt,2022.2.4,Win32,14.999925,Chrome,1536,864,,,,,,,,,,,,,,,,,,,,,,,146,B,star,1,0,,2,,,,,,,j,0.5283,4,0,4,0,1,,,,,,,,,,,,,,,,,,,,,,,,,,,,,,,,,,
297028,2022-12-07_15h17.40.322,vts_reward_expectancy_bt,2022.2.4,Win32,14.999925,Chrome,1536,864,,,,,,,,,,,,,,,,,,,,,,,139,U,triangle,1,0,,2,,,,,,,k,0.6862,5,0,5,0,1,,,,,,,,,,,,,,,,,,,,,,,,,,,,,,,,,,
297028,2022-12-07_15h17.40.322,vts_reward_expectancy_bt,2022.2.4,Win32,14.999925,Chrome,1536,864,,,,,,,,,,,,,,,,,,,,,,,125,F,hexagon,1,0,,2,,,,,,,j,0.6989,6,0,6,0,1,,,,,,,,,,,,,,,,,,,,,,,,,,,,,,,,,,
297028,2022-12-07_15h17.40.322,vts_reward_expectancy_bt,2022.2.4,Win32,14.999925,Chrome,1536,864,,,,,,,,,,,,,,,,,,,,,,,167,Y,circle,1,0,,2,,,,,,,k,0.7897,7,0,7,0,1,,,,,,,,,,,,,,,,,,,,,,,,,,,,,,,,,,
297028,2022-12-07_15h17.40.322,vts_reward_expectancy_bt,2022.2.4,Win32,14.999925,Chrome,1536,864,,,,,,,,,,,,,,,,,,,,,,,160,W,star,1,0,,2,,,,,,,k,0.7147,8,0,8,0,1,,,,,,,,,,,,,,,,,,,,,,,,,,,,,,,,,,
297028,2022-12-07_15h17.40.322,vts_reward_expectancy_bt,2022.2.4,Win32,14.999925,Chrome,1536,864,,,,,,,,,,,,,,,,,,,,,,,132,D,hexagon,1,0,,2,,,,,,,j,0.7115,9,0,9,0,1,,,,,,,,,,,,,,,,,,,,,,,,,,,,,,,,,,
297028,2022-12-07_15h17.40.322,vts_reward_expectancy_bt,2022.2.4,Win32,14.999925,Chrome,1536,864,,,,,0,585,,,,,,,,,,,,,,,,,132,U,star,1,0,,3,,,,,,,,,,,,,,-1,letter,NA,k,0.8703,vtsPrac,0,0,0,0,1,,,,,,,,,,,,,,,,,,,,,,,
297028,2022-12-07_15h17.40.322,vts_reward_expectancy_bt,2022.2.4,Win32,14.999925,Chrome,1536,864,,,,,0,585,,,,,,,,,,,,,,,,,139,B,circle,1,0,,3,,,,,,,,,,,,,,repeat,letter,lettRpt,j,1.181,vtsPrac,1,0,1,0,1,,,,,,,,,,,,,,,,,,,,,,,
297028,2022-12-07_15h17.40.322,vts_reward_expectancy_bt,2022.2.4,Win32,14.999925,Chrome,1536,864,,,,,0,585,,,,,,,,,,,,,,,,,174,S,star,1,0,,3,,,,,,,,,,,,,,repeat,letter,lettRpt,k,0.5825,vtsPrac,2,0,2,0,1,,,,,,,,,,,,,,,,,,,,,,,
297028,2022-12-07_15h17.40.322,vts_reward_expectancy_bt,2022.2.4,Win32,14.999925,Chrome,1536,864,,,,,0,585,,,,,,,,,,,,,,,,,160,Y,circle,1,0,,3,,,,,,,,,,,,,,switch,number,numSwt,f,0.8291,vtsPrac,3,0,3,0,1,,,,,,,,,,,,,,,,,,,,,,,
297028,2022-12-07_15h17.40.322,vts_reward_expectancy_bt,2022.2.4,Win32,14.999925,Chrome,1536,864,,,,,0,585,,,,,,,,,,,,,,,,,132,U,star,1,0,,3,,,,,,,,,,,,,,repeat,number,numRpt,d,0.6468,vtsPrac,4,0,4,0,1,,,,,,,,,,,,,,,,,,,,,,,
297028,2022-12-07_15h17.40.322,vts_reward_expectancy_bt,2022.2.4,Win32,14.999925,Chrome,1536,864,,,,,0,585,,,,,,,,,,,,,,,,,139,B,hexagon,1,0,,3,,,,,,,,,,,,,,switch,letter,lettSwt,j,0.595,vtsPrac,5,0,5,0,1,,,,,,,,,,,,,,,,,,,,,,,
297028,2022-12-07_15h17.40.322,vts_reward_expectancy_bt,2022.2.4,Win32,14.999925,Chrome,1536,864,,,,,0,585,,,,,,,,,,,,,,,,,174,S,circle,1,0,,3,,,,,,,,,,,,,,repeat,letter,lettRpt,k,0.6575,vtsPrac,6,0,6,0,1,,,,,,,,,,,,,,,,,,,,,,,
297028,2022-12-07_15h17.40.322,vts_reward_expectancy_bt,2022.2.4,Win32,14.999925,Chrome,1536,864,,,,,0,585,,,,,,,,,,,,,,,,,160,Y,triangle,1,0,,3,,,,,,,,,,,,,,repeat,letter,lettRpt,k,0.6457,vtsPrac,7,0,7,0,1,,,,,,,,,,,,,,,,,,,,,,,
297028,2022-12-07_15h17.40.322,vts_reward_expectancy_bt,2022.2.4,Win32,14.999925,Chrome,1536,864,,,,,0,585,,,,,,,,,,,,,,,,,125,Y,circle,1,0,,3,,,,,,,,,,,,,,switch,number,numSwt,d,0.7337,vtsPrac,8,0,8,0,1,,,,,,,,,,,,,,,,,,,,,,,
297028,2022-12-07_15h17.40.322,vts_reward_expectancy_bt,2022.2.4,Win32,14.999925,Chrome,1536,864,,,,,0,585,,,,,,,,,,,,,,,,,139,S,star,1,0,,3,,,,,,,,,,,,,,repeat,number,numRpt,d,0.8045,vtsPrac,9,0,9,0,1,,,,,,,,,,,,,,,,,,,,,,,
297028,2022-12-07_15h17.40.322,vts_reward_expectancy_bt,2022.2.4,Win32,14.999925,Chrome,1536,864,,,,,0,585,,,,,,,,,,,,,,,,,167,D,star,1,0,,3,,,,,,,,,,,,,,switch,letter,lettSwt,j,0.5125,vtsPrac,10,0,10,0,1,,,,,,,,,,,,,,,,,,,,,,,
297028,2022-12-07_15h17.40.322,vts_reward_expectancy_bt,2022.2.4,Win32,14.999925,Chrome,1536,864,,,,,0,585,,,,,,,,,,,,,,,,,160,U,hexagon,1,0,,3,,,,,,,,,,,,,,repeat,letter,lettRpt,k,0.5189,vtsPrac,11,0,11,0,1,,,,,,,,,,,,,,,,,,,,,,,
297028,2022-12-07_15h17.40.322,vts_reward_expectancy_bt,2022.2.4,Win32,14.999925,Chrome,1536,864,,,,,0,585,,,,,,,,,,,,,,,,,139,D,triangle,1,0,,3,,,,,,,,,,,,,,repeat,letter,lettRpt,j,0.7495,vtsPrac,12,0,12,0,1,,,,,,,,,,,,,,,,,,,,,,,
297028,2022-12-07_15h17.40.322,vts_reward_expectancy_bt,2022.2.4,Win32,14.999925,Chrome,1536,864,,,,,0,585,,,,,,,,,,,,,,,,,181,W,hexagon,1,0,,3,,,,,,,,,,,,,,switch,number,numSwt,f,0.9725,vtsPrac,13,0,13,0,1,,,,,,,,,,,,,,,,,,,,,,,
297028,2022-12-07_15h17.40.322,vts_reward_expectancy_bt,2022.2.4,Win32,14.999925,Chrome,1536,864,,,,,0,585,,,,,,,,,,,,,,,,,125,B,star,1,0,,3,,,,,,,,,,,,,,repeat,number,numRpt,d,0.6463,vtsPrac,14,0,14,0,1,,,,,,,,,,,,,,,,,,,,,,,
297028,2022-12-07_15h17.40.322,vts_reward_expectancy_bt,2022.2.4,Win32,14.999925,Chrome,1536,864,,,,,0,585,,,,,,,,,,,,,,,,,160,H,triangle,1,0,,3,,,,,,,,,,,,,,switch,letter,lettSwt,j,1.1774,vtsPrac,15,0,15,0,1,,,,,,,,,,,,,,,,,,,,,,,
297028,2022-12-07_15h17.40.322,vts_reward_expectancy_bt,2022.2.4,Win32,14.999925,Chrome,1536,864,,,,,0,585,,,,,,,,,,,,,,,,,174,W,triangle,1,0,,3,,,,,,,,,,,,,,repeat,letter,lettRpt,k,0.5816,vtsPrac,16,0,16,0,1,,,,,,,,,,,,,,,,,,,,,,,
297028,2022-12-07_15h17.40.322,vts_reward_expectancy_bt,2022.2.4,Win32,14.999925,Chrome,1536,864,,,,,0,585,,,,,,,,,,,,,,,,,181,B,hexagon,1,0,,3,,,,,,,,,,,,,,switch,number,numSwt,f,0.6604,vtsPrac,17,0,17,0,1,,,,,,,,,,,,,,,,,,,,,,,
297028,2022-12-07_15h17.40.322,vts_reward_expectancy_bt,2022.2.4,Win32,14.999925,Chrome,1536,864,,,,,0,585,,,,,,,,,,,,,,,,,125,Y,triangle,1,0,,3,,,,,,,,,,,,,,switch,letter,lettSwt,k,0.871,vtsPrac,18,0,18,0,1,,,,,,,,,,,,,,,,,,,,,,,
297028,2022-12-07_15h17.40.322,vts_reward_expectancy_bt,2022.2.4,Win32,14.999925,Chrome,1536,864,,,,,0,585,,,,,,,,,,,,,,,,,132,F,star,1,0,,3,,,,,,,,,,,,,,repeat,letter,lettRpt,j,0.9665,vtsPrac,19,0,19,0,1,,,,,,,,,,,,,,,,,,,,,,,
297028,2022-12-07_15h17.40.322,vts_reward_expectancy_bt,2022.2.4,Win32,14.999925,Chrome,1536,864,,,,,0,585,,,,,,,,,,,,,,,,,139,B,hexagon,1,0,,3,,,,,,,,,,,,,,repeat,letter,lettRpt,j,0.8142,vtsPrac,20,0,20,0,1,,,,,,,,,,,,,,,,,,,,,,,
297028,2022-12-07_15h17.40.322,vts_reward_expectancy_bt,2022.2.4,Win32,14.999925,Chrome,1536,864,,,,,0,585,,,,,,,,,,,,,,,,,181,U,circle,1,0,,3,,,,,,,,,,,,,,repeat,letter,lettRpt,k,0.6562,vtsPrac,21,0,21,0,1,,,,,,,,,,,,,,,,,,,,,,,
297028,2022-12-07_15h17.40.322,vts_reward_expectancy_bt,2022.2.4,Win32,14.999925,Chrome,1536,864,,,,,0,585,,,,,,,,,,,,,,,,,132,H,circle,0,0,,3,,,,,,,,,,,,,,repeat,letter,NA,k,0.7397,vtsPrac,22,0,22,0,1,,,,,,,,,,,,,,,,,,,,,,,
297028,2022-12-07_15h17.40.322,vts_reward_expectancy_bt,2022.2.4,Win32,14.999925,Chrome,1536,864,,,,,0,585,,,,,,,,,,,,,,,,,125,W,hexagon,1,1,,3,,,,,,,,,,,,,,switch,number,numSwt,d,1.3137,vtsPrac,23,0,23,0,1,,,,,,,,,,,,,,,,,,,,,,,
297028,2022-12-07_15h17.40.322,vts_reward_expectancy_bt,2022.2.4,Win32,14.999925,Chrome,1536,864,,,,,0,585,,,,,,,,,,,,,,,,,125,W,hexagon,1,0,,3,,,,,,,,,,,,,,switch,letter,lettSwt,k,0.7869,vtsPrac,24,0,24,0,1,,,,,,,,,,,,,,,,,,,,,,,
297028,2022-12-07_15h17.40.322,vts_reward_expectancy_bt,2022.2.4,Win32,14.999925,Chrome,1536,864,,,,,0,585,,,,,,,,,,,,,,,,,160,B,star,1,0,,3,,,,,,,,,,,,,,switch,number,numSwt,f,0.7374,vtsPrac,25,0,25,0,1,,,,,,,,,,,,,,,,,,,,,,,
297028,2022-12-07_15h17.40.322,vts_reward_expectancy_bt,2022.2.4,Win32,14.999925,Chrome,1536,864,,,,,0,585,,,,,,,,,,,,,,,,,181,H,star,1,0,,3,,,,,,,,,,,,,,switch,letter,lettSwt,j,0.6643,vtsPrac,26,0,26,0,1,,,,,,,,,,,,,,,,,,,,,,,
297028,2022-12-07_15h17.40.322,vts_reward_expectancy_bt,2022.2.4,Win32,14.999925,Chrome,1536,864,,,,,0,585,,,,,,,,,,,,,,,,,167,F,triangle,1,0,,3,,,,,,,,,,,,,,repeat,letter,lettRpt,j,1.2956,vtsPrac,27,0,27,0,1,,,,,,,,,,,,,,,,,,,,,,,
297028,2022-12-07_15h17.40.322,vts_reward_expectancy_bt,2022.2.4,Win32,14.999925,Chrome,1536,864,,,,,0,585,,,,,,,,,,,,,,,,,181,H,triangle,1,0,,3,,,,,,,,,,,,,,switch,number,numSwt,f,0.5889,vtsPrac,28,0,28,0,1,,,,,,,,,,,,,,,,,,,,,,,
297028,2022-12-07_15h17.40.322,vts_reward_expectancy_bt,2022.2.4,Win32,14.999925,Chrome,1536,864,,,,,0,585,,,,,,,,,,,,,,,,,132,U,hexagon,1,0,,3,,,,,,,,,,,,,,switch,letter,lettSwt,k,1.2414,vtsPrac,29,0,29,0,1,,,,,,,,,,,,,,,,,,,,,,,
297028,2022-12-07_15h17.40.322,vts_reward_expectancy_bt,2022.2.4,Win32,14.999925,Chrome,1536,864,,,,,0,585,,,,,,,,,,,,,,,,,174,Y,triangle,0,0,,3,,,,,,,,,,,,,,switch,number,NA,d,1.0918,vtsPrac,30,0,30,0,1,,,,,,,,,,,,,,,,,,,,,,,
297028,2022-12-07_15h17.40.322,vts_reward_expectancy_bt,2022.2.4,Win32,14.999925,Chrome,1536,864,,,,,0,585,,,,,,,,,,,,,,,,,167,S,star,0,1,,3,,,,,,,,,,,,,,switch,letter,NA,j,1.265,vtsPrac,31,0,31,0,1,,,,,,,,,,,,,,,,,,,,,,,
297028,2022-12-07_15h17.40.322,vts_reward_expectancy_bt,2022.2.4,Win32,14.999925,Chrome,1536,864,,,,,,,,,,,,,,,,,,,,,,,,,,,,,,,,,,,,,,,,,,,,,,,,,,,,,,,,,,,,,,,,,,,,,,,,,,,,
297028,2022-12-07_15h17.40.322,vts_reward_expectancy_bt,2022.2.4,Win32,14.999925,Chrome,1536,864,,,,,,,,,,,,,,,,,,,,,,,,,,,,,,,,,,,,,,,,,,,,,,,,,,,,,,,,,,,,,,,,,,,,,,,,,,,,
297028,2022-12-07_15h17.40.322,vts_reward_expectancy_bt,2022.2.4,Win32,14.999925,Chrome,1536,864,,,,,0,585,,,,,,,,,,,,,,,,,125,B,star,1,1,,,,,,,,,,,,,,,,switch,number,numSwt,d,0.8022,noRew,,,,,,0,0,0,0,0,1,,,,,,,,,,,,,,,,,
297028,2022-12-07_15h17.40.322,vts_reward_expectancy_bt,2022.2.4,Win32,14.999925,Chrome,1536,864,,,,,0,585,,,,,,,,,,,,,,,,,132,F,triangle,0,0,,,,,,,,,,,,,,,,repeat,number,NA,f,0.6576,noRew,,,,,,0,1,0,1,0,1,,,,,,,,,,,,,,,,,
297028,2022-12-07_15h17.40.322,vts_reward_expectancy_bt,2022.2.4,Win32,14.999925,Chrome,1536,864,,,,,0,585,,,,,,,,,,,,,,,,,174,U,star,1,1,,,,,,,,,,,,,,,,switch,letter,lettSwt,k,0.7438,noRew,,,,,,0,2,0,2,0,1,,,,,,,,,,,,,,,,,
297028,2022-12-07_15h17.40.322,vts_reward_expectancy_bt,2022.2.4,Win32,14.999925,Chrome,1536,864,,,,,0,585,,,,,,,,,,,,,,,,,181,S,triangle,1,0,,,,,,,,,,,,,,,,switch,number,numSwt,f,0.6538,noRew,,,,,,0,3,0,3,0,1,,,,,,,,,,,,,,,,,
297028,2022-12-07_15h17.40.322,vts_reward_expectancy_bt,2022.2.4,Win32,14.999925,Chrome,1536,864,,,,,0,585,,,,,,,,,,,,,,,,,125,B,circle,1,0,,,,,,,,,,,,,,,,switch,letter,lettSwt,j,0.8731,noRew,,,,,,0,4,0,4,0,1,,,,,,,,,,,,,,,,,
297028,2022-12-07_15h17.40.322,vts_reward_expectancy_bt,2022.2.4,Win32,14.999925,Chrome,1536,864,,,,,0,585,,,,,,,,,,,,,,,,,132,F,hexagon,1,0,,,,,,,,,,,,,,,,switch,number,numSwt,d,2.0506,noRew,,,,,,0,5,0,5,0,1,,,,,,,,,,,,,,,,,
297028,2022-12-07_15h17.40.322,vts_reward_expectancy_bt,2022.2.4,Win32,14.999925,Chrome,1536,864,,,,,0,585,,,,,,,,,,,,,,,,,174,U,triangle,1,0,,,,,,,,,,,,,,,,repeat,number,numRpt,f,1.1686,noRew,,,,,,0,6,0,6,0,1,,,,,,,,,,,,,,,,,
297028,2022-12-07_15h17.40.322,vts_reward_expectancy_bt,2022.2.4,Win32,14.999925,Chrome,1536,864,,,,,0,585,,,,,,,,,,,,,,,,,181,S,star,1,0,,,,,,,,,,,,,,,,switch,letter,lettSwt,k,1.0894,noRew,,,,,,0,7,0,7,0,1,,,,,,,,,,,,,,,,,
297028,2022-12-07_15h17.40.322,vts_reward_expectancy_bt,2022.2.4,Win32,14.999925,Chrome,1536,864,,,,,0,585,,,,,,,,,,,,,,,,,125,F,triangle,1,0,,,,,,,,,,,,,,,,repeat,letter,lettRpt,j,1.3926,noRew,,,,,,0,8,0,8,0,1,,,,,,,,,,,,,,,,,
297028,2022-12-07_15h17.40.322,vts_reward_expectancy_bt,2022.2.4,Win32,14.999925,Chrome,1536,864,,,,,0,585,,,,,,,,,,,,,,,,,174,B,hexagon,1,0,,,,,,,,,,,,,,,,switch,number,numSwt,f,0.7939,noRew,,,,,,0,9,0,9,0,1,,,,,,,,,,,,,,,,,
297028,2022-12-07_15h17.40.322,vts_reward_expectancy_bt,2022.2.4,Win32,14.999925,Chrome,1536,864,,,,,0,585,,,,,,,,,,,,,,,,,146,U,star,0,0,,,,,,,,,,,,,,,,switch,letter,NA,j,0.8127,noRew,,,,,,0,10,0,10,0,1,,,,,,,,,,,,,,,,,
297028,2022-12-07_15h17.40.322,vts_reward_expectancy_bt,2022.2.4,Win32,14.999925,Chrome,1536,864,,,,,0,585,,,,,,,,,,,,,,,,,181,D,triangle,1,1,,,,,,,,,,,,,,,,repeat,letter,lettRpt,j,1.8298,noRew,,,,,,0,11,0,11,0,1,,,,,,,,,,,,,,,,,
297028,2022-12-07_15h17.40.322,vts_reward_expectancy_bt,2022.2.4,Win32,14.999925,Chrome,1536,864,,,,,0,585,,,,,,,,,,,,,,,,,132,B,circle,1,0,,,,,,,,,,,,,,,,switch,number,numSwt,d,1.0193,noRew,,,,,,0,12,0,12,0,1,,,,,,,,,,,,,,,,,
297028,2022-12-07_15h17.40.322,vts_reward_expectancy_bt,2022.2.4,Win32,14.999925,Chrome,1536,864,,,,,0,585,,,,,,,,,,,,,,,,,167,U,triangle,1,0,,,,,,,,,,,,,,,,switch,letter,lettSwt,k,0.5106,noRew,,,,,,0,13,0,13,0,1,,,,,,,,,,,,,,,,,
297028,2022-12-07_15h17.40.322,vts_reward_expectancy_bt,2022.2.4,Win32,14.999925,Chrome,1536,864,,,,,0,585,,,,,,,,,,,,,,,,,174,H,triangle,1,0,,,,,,,,,,,,,,,,switch,number,numSwt,f,0.9713,noRew,,,,,,0,14,0,14,0,1,,,,,,,,,,,,,,,,,
297028,2022-12-07_15h17.40.322,vts_reward_expectancy_bt,2022.2.4,Win32,14.999925,Chrome,1536,864,,,,,0,585,,,,,,,,,,,,,,,,,146,W,circle,1,0,,,,,,,,,,,,,,,,repeat,number,numRpt,d,0.6605,noRew,,,,,,0,15,0,15,0,1,,,,,,,,,,,,,,,,,
297028,2022-12-07_15h17.40.322,vts_reward_expectancy_bt,2022.2.4,Win32,14.999925,Chrome,1536,864,,,,,0,585,,,,,,,,,,,,,,,,,181,F,triangle,1,0,,,,,,,,,,,,,,,,switch,letter,lettSwt,j,0.6729,noRew,,,,,,0,16,0,16,0,1,,,,,,,,,,,,,,,,,
297028,2022-12-07_15h17.40.322,vts_reward_expectancy_bt,2022.2.4,Win32,14.999925,Chrome,1536,864,,,,,0,585,,,,,,,,,,,,,,,,,146,B,circle,1,0,,,,,,,,,,,,,,,,switch,number,numSwt,d,1.2265,noRew,,,,,,0,17,0,17,0,1,,,,,,,,,,,,,,,,,
297028,2022-12-07_15h17.40.322,vts_reward_expectancy_bt,2022.2.4,Win32,14.999925,Chrome,1536,864,,,,,0,585,,,,,,,,,,,,,,,,,160,S,triangle,1,0,,,,,,,,,,,,,,,,switch,letter,lettSwt,k,0.7498,noRew,,,,,,0,18,0,18,0,1,,,,,,,,,,,,,,,,,
297028,2022-12-07_15h17.40.322,vts_reward_expectancy_bt,2022.2.4,Win32,14.999925,Chrome,1536,864,,,,,0,585,,,,,,,,,,,,,,,,,139,D,hexagon,1,0,,,,,,,,,,,,,,,,repeat,letter,lettRpt,j,0.513,noRew,,,,,,0,19,0,19,0,1,,,,,,,,,,,,,,,,,
297028,2022-12-07_15h17.40.322,vts_reward_expectancy_bt,2022.2.4,Win32,14.999925,Chrome,1536,864,,,,,0,585,,,,,,,,,,,,,,,,,167,D,hexagon,1,0,,,,,,,,,,,,,,,,repeat,letter,lettRpt,j,0.7499,noRew,,,,,,0,20,0,20,0,1,,,,,,,,,,,,,,,,,
297028,2022-12-07_15h17.40.322,vts_reward_expectancy_bt,2022.2.4,Win32,14.999925,Chrome,1536,864,,,,,0,585,,,,,,,,,,,,,,,,,139,Y,star,1,0,,,,,,,,,,,,,,,,repeat,letter,lettRpt,k,0.523,noRew,,,,,,0,21,0,21,0,1,,,,,,,,,,,,,,,,,
297028,2022-12-07_15h17.40.322,vts_reward_expectancy_bt,2022.2.4,Win32,14.999925,Chrome,1536,864,,,,,0,585,,,,,,,,,,,,,,,,,125,B,star,1,0,,,,,,,,,,,,,,,,switch,number,numSwt,d,0.6613,noRew,,,,,,0,22,0,22,0,1,,,,,,,,,,,,,,,,,
297028,2022-12-07_15h17.40.322,vts_reward_expectancy_bt,2022.2.4,Win32,14.999925,Chrome,1536,864,,,,,0,585,,,,,,,,,,,,,,,,,160,F,circle,1,0,,,,,,,,,,,,,,,,repeat,number,numRpt,f,0.666,noRew,,,,,,0,23,0,23,0,1,,,,,,,,,,,,,,,,,
297028,2022-12-07_15h17.40.322,vts_reward_expectancy_bt,2022.2.4,Win32,14.999925,Chrome,1536,864,,,,,0,585,,,,,,,,,,,,,,,,,132,W,triangle,1,0,,,,,,,,,,,,,,,,switch,letter,lettSwt,k,0.7367,noRew,,,,,,0,24,0,24,0,1,,,,,,,,,,,,,,,,,
297028,2022-12-07_15h17.40.322,vts_reward_expectancy_bt,2022.2.4,Win32,14.999925,Chrome,1536,864,,,,,0,585,,,,,,,,,,,,,,,,,181,Y,star,1,0,,,,,,,,,,,,,,,,repeat,letter,lettRpt,k,0.8965,noRew,,,,,,0,25,0,25,0,1,,,,,,,,,,,,,,,,,
297028,2022-12-07_15h17.40.322,vts_reward_expectancy_bt,2022.2.4,Win32,14.999925,Chrome,1536,864,,,,,0,585,,,,,,,,,,,,,,,,,167,U,hexagon,1,0,,,,,,,,,,,,,,,,switch,number,numSwt,f,0.9357,noRew,,,,,,0,26,0,26,0,1,,,,,,,,,,,,,,,,,
297028,2022-12-07_15h17.40.322,vts_reward_expectancy_bt,2022.2.4,Win32,14.999925,Chrome,1536,864,,,,,0,585,,,,,,,,,,,,,,,,,160,S,circle,1,0,,,,,,,,,,,,,,,,switch,letter,lettSwt,k,0.6754,noRew,,,,,,0,27,0,27,0,1,,,,,,,,,,,,,,,,,
297028,2022-12-07_15h17.40.322,vts_reward_expectancy_bt,2022.2.4,Win32,14.999925,Chrome,1536,864,,,,,0,585,,,,,,,,,,,,,,,,,132,D,star,1,0,,,,,,,,,,,,,,,,switch,number,numSwt,d,0.7241,noRew,,,,,,0,28,0,28,0,1,,,,,,,,,,,,,,,,,
297028,2022-12-07_15h17.40.322,vts_reward_expectancy_bt,2022.2.4,Win32,14.999925,Chrome,1536,864,,,,,0,585,,,,,,,,,,,,,,,,,146,F,circle,1,0,,,,,,,,,,,,,,,,switch,letter,lettSwt,j,0.7431,noRew,,,,,,0,29,0,29,0,1,,,,,,,,,,,,,,,,,
297028,2022-12-07_15h17.40.322,vts_reward_expectancy_bt,2022.2.4,Win32,14.999925,Chrome,1536,864,,,,,0,585,,,,,,,,,,,,,,,,,139,U,circle,1,0,,,,,,,,,,,,,,,,repeat,letter,lettRpt,k,1.1532,noRew,,,,,,0,30,0,30,0,1,,,,,,,,,,,,,,,,,
297028,2022-12-07_15h17.40.322,vts_reward_expectancy_bt,2022.2.4,Win32,14.999925,Chrome,1536,864,,,,,0,585,,,,,,,,,,,,,,,,,125,S,star,1,0,,,,,,,,,,,,,,,,switch,number,numSwt,d,0.8086,noRew,,,,,,0,31,0,31,0,1,,,,,,,,,,,,,,,,,
297028,2022-12-07_15h17.40.322,vts_reward_expectancy_bt,2022.2.4,Win32,14.999925,Chrome,1536,864,,,,,0,585,,,,,,,,,,,,,,,,,139,Y,hexagon,1,0,,,,,,,,,,,,,,,,switch,letter,lettSwt,k,0.6636,noRew,,,,,,0,32,0,32,0,1,,,,,,,,,,,,,,,,,
297028,2022-12-07_15h17.40.322,vts_reward_expectancy_bt,2022.2.4,Win32,14.999925,Chrome,1536,864,,,,,0,585,,,,,,,,,,,,,,,,,181,U,triangle,0,0,,,,,,,,,,,,,,,,switch,number,NA,d,0.732,noRew,,,,,,0,33,0,33,0,1,,,,,,,,,,,,,,,,,
297028,2022-12-07_15h17.40.322,vts_reward_expectancy_bt,2022.2.4,Win32,14.999925,Chrome,1536,864,,,,,0,585,,,,,,,,,,,,,,,,,174,W,circle,1,1,,,,,,,,,,,,,,,,repeat,number,numRpt,f,0.7226,noRew,,,,,,0,34,0,34,0,1,,,,,,,,,,,,,,,,,
297028,2022-12-07_15h17.40.322,vts_reward_expectancy_bt,2022.2.4,Win32,14.999925,Chrome,1536,864,,,,,0,585,,,,,,,,,,,,,,,,,167,F,hexagon,1,0,,,,,,,,,,,,,,,,switch,letter,lettSwt,j,0.8081,noRew,,,,,,0,35,0,35,0,1,,,,,,,,,,,,,,,,,
297028,2022-12-07_15h17.40.322,vts_reward_expectancy_bt,2022.2.4,Win32,14.999925,Chrome,1536,864,,,,,0,585,,,,,,,,,,,,,,,,,181,H,circle,1,0,,,,,,,,,,,,,,,,repeat,letter,lettRpt,j,0.8853,noRew,,,,,,0,36,0,36,0,1,,,,,,,,,,,,,,,,,
297028,2022-12-07_15h17.40.322,vts_reward_expectancy_bt,2022.2.4,Win32,14.999925,Chrome,1536,864,,,,,0,585,,,,,,,,,,,,,,,,,139,B,star,1,0,,,,,,,,,,,,,,,,repeat,letter,lettRpt,j,1.5421,noRew,,,,,,0,37,0,37,0,1,,,,,,,,,,,,,,,,,
297028,2022-12-07_15h17.40.322,vts_reward_expectancy_bt,2022.2.4,Win32,14.999925,Chrome,1536,864,,,,,0,585,,,,,,,,,,,,,,,,,132,S,hexagon,1,0,,,,,,,,,,,,,,,,switch,number,numSwt,d,0.8007,noRew,,,,,,0,38,0,38,0,1,,,,,,,,,,,,,,,,,
297028,2022-12-07_15h17.40.322,vts_reward_expectancy_bt,2022.2.4,Win32,14.999925,Chrome,1536,864,,,,,0,585,,,,,,,,,,,,,,,,,125,W,triangle,1,0,,,,,,,,,,,,,,,,repeat,number,numRpt,d,0.6613,noRew,,,,,,0,39,0,39,0,1,,,,,,,,,,,,,,,,,
297028,2022-12-07_15h17.40.322,vts_reward_expectancy_bt,2022.2.4,Win32,14.999925,Chrome,1536,864,,,,,0,585,,,,,,,,,,,,,,,,,167,Y,triangle,1,0,,,,,,,,,,,,,,,,repeat,number,numRpt,f,0.6545,noRew,,,,,,0,40,0,40,0,1,,,,,,,,,,,,,,,,,
297028,2022-12-07_15h17.40.322,vts_reward_expectancy_bt,2022.2.4,Win32,14.999925,Chrome,1536,864,,,,,0,585,,,,,,,,,,,,,,,,,139,B,circle,1,0,,,,,,,,,,,,,,,,repeat,number,numRpt,d,0.6514,noRew,,,,,,0,41,0,41,0,1,,,,,,,,,,,,,,,,,
297028,2022-12-07_15h17.40.322,vts_reward_expectancy_bt,2022.2.4,Win32,14.999925,Chrome,1536,864,,,,,0,585,,,,,,,,,,,,,,,,,174,W,circle,1,0,,,,,,,,,,,,,,,,repeat,number,numRpt,f,0.9471,noRew,,,,,,0,42,0,42,0,1,,,,,,,,,,,,,,,,,
297028,2022-12-07_15h17.40.322,vts_reward_expectancy_bt,2022.2.4,Win32,14.999925,Chrome,1536,864,,,,,0,585,,,,,,,,,,,,,,,,,160,D,triangle,1,0,,,,,,,,,,,,,,,,repeat,number,numRpt,f,0.6719,noRew,,,,,,0,43,0,43,0,1,,,,,,,,,,,,,,,,,
297028,2022-12-07_15h17.40.322,vts_reward_expectancy_bt,2022.2.4,Win32,14.999925,Chrome,1536,864,,,,,0,585,,,,,,,,,,,,,,,,,160,H,triangle,1,0,,,,,,,,,,,,,,,,switch,letter,lettSwt,j,1.0223,noRew,,,,,,0,44,0,44,0,1,,,,,,,,,,,,,,,,,
297028,2022-12-07_15h17.40.322,vts_reward_expectancy_bt,2022.2.4,Win32,14.999925,Chrome,1536,864,,,,,0,585,,,,,,,,,,,,,,,,,174,F,star,1,0,,,,,,,,,,,,,,,,repeat,letter,lettRpt,j,1.0104,noRew,,,,,,0,45,0,45,0,1,,,,,,,,,,,,,,,,,
297028,2022-12-07_15h17.40.322,vts_reward_expectancy_bt,2022.2.4,Win32,14.999925,Chrome,1536,864,,,,,0,585,,,,,,,,,,,,,,,,,181,D,circle,1,0,,,,,,,,,,,,,,,,switch,number,numSwt,f,1.0998,noRew,,,,,,0,46,0,46,0,1,,,,,,,,,,,,,,,,,
297028,2022-12-07_15h17.40.322,vts_reward_expectancy_bt,2022.2.4,Win32,14.999925,Chrome,1536,864,,,,,0,585,,,,,,,,,,,,,,,,,146,S,triangle,1,0,,,,,,,,,,,,,,,,switch,letter,lettSwt,k,1.031,noRew,,,,,,0,47,0,47,0,1,,,,,,,,,,,,,,,,,
297028,2022-12-07_15h17.40.322,vts_reward_expectancy_bt,2022.2.4,Win32,14.999925,Chrome,1536,864,,,,,0,585,,,,,,,,,,,,,,,,,132,Y,hexagon,1,0,,,,,,,,,,,,,,,,repeat,letter,lettRpt,k,0.9684,noRew,,,,,,0,48,0,48,0,1,,,,,,,,,,,,,,,,,
297028,2022-12-07_15h17.40.322,vts_reward_expectancy_bt,2022.2.4,Win32,14.999925,Chrome,1536,864,,,,,0,585,,,,,,,,,,,,,,,,,174,F,star,1,0,,,,,,,,,,,,,,,,switch,number,numSwt,f,0.9462,noRew,,,,,,0,49,0,49,0,1,,,,,,,,,,,,,,,,,
297028,2022-12-07_15h17.40.322,vts_reward_expectancy_bt,2022.2.4,Win32,14.999925,Chrome,1536,864,,,,,0,585,,,,,,,,,,,,,,,,,160,S,hexagon,1,0,,,,,,,,,,,,,,,,switch,letter,lettSwt,k,0.8836,noRew,,,,,,0,50,0,50,0,1,,,,,,,,,,,,,,,,,
297028,2022-12-07_15h17.40.322,vts_reward_expectancy_bt,2022.2.4,Win32,14.999925,Chrome,1536,864,,,,,0,585,,,,,,,,,,,,,,,,,139,B,star,1,0,,,,,,,,,,,,,,,,switch,number,numSwt,d,1.0669,noRew,,,,,,0,51,0,51,0,1,,,,,,,,,,,,,,,,,
297028,2022-12-07_15h17.40.322,vts_reward_expectancy_bt,2022.2.4,Win32,14.999925,Chrome,1536,864,,,,,0,585,,,,,,,,,,,,,,,,,160,B,circle,1,0,,,,,,,,,,,,,,,,switch,letter,lettSwt,j,0.95,noRew,,,,,,0,52,0,52,0,1,,,,,,,,,,,,,,,,,
297028,2022-12-07_15h17.40.322,vts_reward_expectancy_bt,2022.2.4,Win32,14.999925,Chrome,1536,864,,,,,0,585,,,,,,,,,,,,,,,,,132,W,hexagon,1,0,,,,,,,,,,,,,,,,switch,number,numSwt,d,1.0266,noRew,,,,,,0,53,0,53,0,1,,,,,,,,,,,,,,,,,
297028,2022-12-07_15h17.40.322,vts_reward_expectancy_bt,2022.2.4,Win32,14.999925,Chrome,1536,864,,,,,0,585,,,,,,,,,,,,,,,,,174,Y,circle,1,0,,,,,,,,,,,,,,,,switch,letter,lettSwt,k,0.7361,noRew,,,,,,0,54,0,54,0,1,,,,,,,,,,,,,,,,,
297028,2022-12-07_15h17.40.322,vts_reward_expectancy_bt,2022.2.4,Win32,14.999925,Chrome,1536,864,,,,,0,585,,,,,,,,,,,,,,,,,181,F,star,1,0,,,,,,,,,,,,,,,,repeat,letter,lettRpt,j,1.3898,noRew,,,,,,0,55,0,55,0,1,,,,,,,,,,,,,,,,,
297028,2022-12-07_15h17.40.322,vts_reward_expectancy_bt,2022.2.4,Win32,14.999925,Chrome,1536,864,,,,,0,585,,,,,,,,,,,,,,,,,125,F,star,1,0,,,,,,,,,,,,,,,,switch,number,numSwt,d,0.5911,noRew,,,,,,0,56,0,56,0,1,,,,,,,,,,,,,,,,,
297028,2022-12-07_15h17.40.322,vts_reward_expectancy_bt,2022.2.4,Win32,14.999925,Chrome,1536,864,,,,,0,585,,,,,,,,,,,,,,,,,174,U,circle,1,0,,,,,,,,,,,,,,,,switch,letter,lettSwt,k,0.6709,noRew,,,,,,0,57,0,57,0,1,,,,,,,,,,,,,,,,,
297028,2022-12-07_15h17.40.322,vts_reward_expectancy_bt,2022.2.4,Win32,14.999925,Chrome,1536,864,,,,,0,585,,,,,,,,,,,,,,,,,160,Y,hexagon,1,0,,,,,,,,,,,,,,,,repeat,letter,lettRpt,k,0.7384,noRew,,,,,,0,58,0,58,0,1,,,,,,,,,,,,,,,,,
297028,2022-12-07_15h17.40.322,vts_reward_expectancy_bt,2022.2.4,Win32,14.999925,Chrome,1536,864,,,,,0,585,,,,,,,,,,,,,,,,,139,S,circle,1,0,,,,,,,,,,,,,,,,switch,number,numSwt,d,0.8814,noRew,,,,,,0,59,0,59,0,1,,,,,,,,,,,,,,,,,
297028,2022-12-07_15h17.40.322,vts_reward_expectancy_bt,2022.2.4,Win32,14.999925,Chrome,1536,864,,,,,0,585,,,,,,,,,,,,,,,,,125,F,circle,1,0,,,,,,,,,,,,,,,,switch,letter,lettSwt,j,0.8184,noRew,,,,,,0,60,0,60,0,1,,,,,,,,,,,,,,,,,
297028,2022-12-07_15h17.40.322,vts_reward_expectancy_bt,2022.2.4,Win32,14.999925,Chrome,1536,864,,,,,0,585,,,,,,,,,,,,,,,,,160,D,triangle,1,0,,,,,,,,,,,,,,,,repeat,letter,lettRpt,j,0.7395,noRew,,,,,,0,61,0,61,0,1,,,,,,,,,,,,,,,,,
297028,2022-12-07_15h17.40.322,vts_reward_expectancy_bt,2022.2.4,Win32,14.999925,Chrome,1536,864,,,,,0,585,,,,,,,,,,,,,,,,,167,S,triangle,1,0,,,,,,,,,,,,,,,,switch,number,numSwt,f,1.0254,noRew,,,,,,0,62,0,62,0,1,,,,,,,,,,,,,,,,,
297028,2022-12-07_15h17.40.322,vts_reward_expectancy_bt,2022.2.4,Win32,14.999925,Chrome,1536,864,,,,,0,585,,,,,,,,,,,,,,,,,139,U,hexagon,1,0,,,,,,,,,,,,,,,,switch,letter,lettSwt,k,1.4073,noRew,,,,,,0,63,0,63,0,1,,,,,,,,,,,,,,,,,
297028,2022-12-07_15h17.40.322,vts_reward_expectancy_bt,2022.2.4,Win32,14.999925,Chrome,1536,864,,,,,,,,,,,,,,,,,,,,,,,,,,,,,,,,,,,,,,,,,,,,,,,,,,,,,,,,,,,,,,,,,,,,,,,,,,,,
297028,2022-12-07_15h17.40.322,vts_reward_expectancy_bt,2022.2.4,Win32,14.999925,Chrome,1536,864,,,,,10,595,,,,,,,,,,,,,,,,,125,Y,hexagon,1,0,,,,,,,,,,,,,,,,switch,number,numSwt,d,0.9384,Lo,,,,,,0,,,,,,space,7.8728,low,0,0,0,0,1,,,,,,,,,
297028,2022-12-07_15h17.40.322,vts_reward_expectancy_bt,2022.2.4,Win32,14.999925,Chrome,1536,864,,,,,0,595,,,,,,,,,,,,,,,,,160,F,circle,1,0,,,,,,,,,,,,,,,,switch,letter,lettSwt,j,1.0328,Hi,,,,,,0,,,,,,,,low,1,0,1,0,1,,,,,,,,,
297028,2022-12-07_15h17.40.322,vts_reward_expectancy_bt,2022.2.4,Win32,14.999925,Chrome,1536,864,,,,,1,596,,,,,,,,,,,,,,,,,167,H,triangle,1,0,,,,,,,,,,,,,,,,switch,number,numSwt,f,0.521,Lo,,,,,,0,,,,,,,,low,2,0,2,0,1,,,,,,,,,
297028,2022-12-07_15h17.40.322,vts_reward_expectancy_bt,2022.2.4,Win32,14.999925,Chrome,1536,864,,,,,1,597,,,,,,,,,,,,,,,,,174,S,star,1,0,,,,,,,,,,,,,,,,switch,letter,lettSwt,k,0.6769,Hi,,,,,,0,,,,,,,,low,3,0,3,0,1,,,,,,,,,
297028,2022-12-07_15h17.40.322,vts_reward_expectancy_bt,2022.2.4,Win32,14.999925,Chrome,1536,864,,,,,10,607,,,,,,,,,,,,,,,,,181,D,hexagon,1,0,,,,,,,,,,,,,,,,repeat,letter,lettRpt,j,0.7423,Lo,,,,,,0,,,,,,,,low,4,0,4,0,1,,,,,,,,,
297028,2022-12-07_15h17.40.322,vts_reward_expectancy_bt,2022.2.4,Win32,14.999925,Chrome,1536,864,,,,,1,608,,,,,,,,,,,,,,,,,146,U,circle,1,0,,,,,,,,,,,,,,,,switch,number,numSwt,d,0.5247,Hi,,,,,,0,,,,,,,,low,5,0,5,0,1,,,,,,,,,
297028,2022-12-07_15h17.40.322,vts_reward_expectancy_bt,2022.2.4,Win32,14.999925,Chrome,1536,864,,,,,1,609,,,,,,,,,,,,,,,,,139,B,triangle,1,0,,,,,,,,,,,,,,,,repeat,number,numRpt,d,0.7403,Lo,,,,,,0,,,,,,,,low,6,0,6,0,1,,,,,,,,,
297028,2022-12-07_15h17.40.322,vts_reward_expectancy_bt,2022.2.4,Win32,14.999925,Chrome,1536,864,,,,,0,609,,,,,,,,,,,,,,,,,132,W,star,0,0,,,,,,,,,,,,,,,,switch,letter,NA,j,0.7397,Lo,,,,,,0,,,,,,,,low,7,0,7,0,1,,,,,,,,,
297028,2022-12-07_15h17.40.322,vts_reward_expectancy_bt,2022.2.4,Win32,14.999925,Chrome,1536,864,,,,,10,619,,,,,,,,,,,,,,,,,125,Y,triangle,1,1,,,,,,,,,,,,,,,,repeat,letter,lettRpt,k,0.6688,Lo,,,,,,0,,,,,,,,low,8,0,8,0,1,,,,,,,,,
297028,2022-12-07_15h17.40.322,vts_reward_expectancy_bt,2022.2.4,Win32,14.999925,Chrome,1536,864,,,,,0,619,,,,,,,,,,,,,,,,,160,F,star,1,0,,,,,,,,,,,,,,,,switch,number,numSwt,f,0.9594,Hi,,,,,,0,,,,,,,,low,9,0,9,0,1,,,,,,,,,
297028,2022-12-07_15h17.40.322,vts_reward_expectancy_bt,2022.2.4,Win32,14.999925,Chrome,1536,864,,,,,1,620,,,,,,,,,,,,,,,,,167,H,hexagon,1,0,,,,,,,,,,,,,,,,repeat,number,numRpt,f,0.6569,Lo,,,,,,0,,,,,,,,low,10,0,10,0,1,,,,,,,,,
297028,2022-12-07_15h17.40.322,vts_reward_expectancy_bt,2022.2.4,Win32,14.999925,Chrome,1536,864,,,,,1,621,,,,,,,,,,,,,,,,,174,S,circle,1,0,,,,,,,,,,,,,,,,repeat,number,numRpt,f,0.6558,Hi,,,,,,0,,,,,,,,low,11,0,11,0,1,,,,,,,,,
297028,2022-12-07_15h17.40.322,vts_reward_expectancy_bt,2022.2.4,Win32,14.999925,Chrome,1536,864,,,,,10,631,,,,,,,,,,,,,,,,,181,D,hexagon,1,0,,,,,,,,,,,,,,,,repeat,number,numRpt,f,0.6072,Lo,,,,,,0,,,,,,,,low,12,0,12,0,1,,,,,,,,,
297028,2022-12-07_15h17.40.322,vts_reward_expectancy_bt,2022.2.4,Win32,14.999925,Chrome,1536,864,,,,,0,631,,,,,,,,,,,,,,,,,146,U,triangle,0,0,,,,,,,,,,,,,,,,repeat,number,NA,f,0.6548,Lo,,,,,,0,,,,,,,,low,13,0,13,0,1,,,,,,,,,
297028,2022-12-07_15h17.40.322,vts_reward_expectancy_bt,2022.2.4,Win32,14.999925,Chrome,1536,864,,,,,10,641,,,,,,,,,,,,,,,,,139,B,circle,1,1,,,,,,,,,,,,,,,,switch,letter,lettSwt,j,0.5753,Hi,,,,,,0,,,,,,,,low,14,0,14,0,1,,,,,,,,,
297028,2022-12-07_15h17.40.322,vts_reward_expectancy_bt,2022.2.4,Win32,14.999925,Chrome,1536,864,,,,,1,642,,,,,,,,,,,,,,,,,132,W,star,1,0,,,,,,,,,,,,,,,,switch,number,numSwt,d,0.6587,Hi,,,,,,0,,,,,,,,low,15,0,15,0,1,,,,,,,,,
297028,2022-12-07_15h17.40.322,vts_reward_expectancy_bt,2022.2.4,Win32,14.999925,Chrome,1536,864,,,,,10,652,,,,,,,,,,,,,,,,,125,B,circle,1,0,,,,,,,,,,,,,,,,switch,letter,lettSwt,j,0.5248,Hi,,,,,,0,,,,,,,,low,16,0,16,0,1,,,,,,,,,
297028,2022-12-07_15h17.40.322,vts_reward_expectancy_bt,2022.2.4,Win32,14.999925,Chrome,1536,864,,,,,10,662,,,,,,,,,,,,,,,,,181,F,triangle,1,0,,,,,,,,,,,,,,,,repeat,letter,lettRpt,j,0.7389,Lo,,,,,,0,,,,,,,,low,17,0,17,0,1,,,,,,,,,
297028,2022-12-07_15h17.40.322,vts_reward_expectancy_bt,2022.2.4,Win32,14.999925,Chrome,1536,864,,,,,1,663,,,,,,,,,,,,,,,,,139,D,hexagon,1,0,,,,,,,,,,,,,,,,switch,number,numSwt,d,0.5038,Lo,,,,,,0,,,,,,,,low,18,0,18,0,1,,,,,,,,,
297028,2022-12-07_15h17.40.322,vts_reward_expectancy_bt,2022.2.4,Win32,14.999925,Chrome,1536,864,,,,,1,664,,,,,,,,,,,,,,,,,146,Y,star,1,0,,,,,,,,,,,,,,,,switch,letter,lettSwt,k,0.6755,Hi,,,,,,0,,,,,,,,low,19,0,19,0,1,,,,,,,,,
297028,2022-12-07_15h17.40.322,vts_reward_expectancy_bt,2022.2.4,Win32,14.999925,Chrome,1536,864,,,,,10,674,,,,,,,,,,,,,,,,,160,U,star,1,0,,,,,,,,,,,,,,,,switch,number,numSwt,f,0.6498,Hi,,,,,,0,,,,,,,,low,20,0,20,0,1,,,,,,,,,
297028,2022-12-07_15h17.40.322,vts_reward_expectancy_bt,2022.2.4,Win32,14.999925,Chrome,1536,864,,,,,1,675,,,,,,,,,,,,,,,,,132,W,hexagon,1,0,,,,,,,,,,,,,,,,switch,letter,lettSwt,k,0.5853,Lo,,,,,,0,,,,,,,,low,21,0,21,0,1,,,,,,,,,
297028,2022-12-07_15h17.40.322,vts_reward_expectancy_bt,2022.2.4,Win32,14.999925,Chrome,1536,864,,,,,0,675,,,,,,,,,,,,,,,,,174,S,triangle,0,0,,,,,,,,,,,,,,,,repeat,letter,NA,j,0.6749,Lo,,,,,,0,,,,,,,,low,22,0,22,0,1,,,,,,,,,
297028,2022-12-07_15h17.40.322,vts_reward_expectancy_bt,2022.2.4,Win32,14.999925,Chrome,1536,864,,,,,0,675,,,,,,,,,,,,,,,,,167,H,circle,1,1,,,,,,,,,,,,,,,,switch,number,numSwt,f,0.9591,Hi,,,,,,0,,,,,,,,low,23,0,23,0,1,,,,,,,,,
297028,2022-12-07_15h17.40.322,vts_reward_expectancy_bt,2022.2.4,Win32,14.999925,Chrome,1536,864,,,,,10,685,,,,,,,,,,,,,,,,,139,H,star,1,0,,,,,,,,,,,,,,,,repeat,number,numRpt,d,0.5165,Hi,,,,,,0,,,,,,,,low,24,0,24,0,1,,,,,,,,,
297028,2022-12-07_15h17.40.322,vts_reward_expectancy_bt,2022.2.4,Win32,14.999925,Chrome,1536,864,,,,,0,685,,,,,,,,,,,,,,,,,167,D,circle,0,0,,,,,,,,,,,,,,,,switch,letter,NA,k,0.5088,Hi,,,,,,0,,,,,,,,low,25,0,25,0,1,,,,,,,,,
297028,2022-12-07_15h17.40.322,vts_reward_expectancy_bt,2022.2.4,Win32,14.999925,Chrome,1536,864,,,,,1,686,,,,,,,,,,,,,,,,,146,B,hexagon,1,1,,,,,,,,,,,,,,,,repeat,letter,lettRpt,j,0.6721,Lo,,,,,,0,,,,,,,,low,26,0,26,0,1,,,,,,,,,
297028,2022-12-07_15h17.40.322,vts_reward_expectancy_bt,2022.2.4,Win32,14.999925,Chrome,1536,864,,,,,10,696,,,,,,,,,,,,,,,,,174,F,triangle,1,0,,,,,,,,,,,,,,,,switch,number,numSwt,f,0.5969,Lo,,,,,,0,,,,,,,,low,27,0,27,0,1,,,,,,,,,
297028,2022-12-07_15h17.40.322,vts_reward_expectancy_bt,2022.2.4,Win32,14.999925,Chrome,1536,864,,,,,1,697,,,,,,,,,,,,,,,,,181,W,triangle,1,0,,,,,,,,,,,,,,,,repeat,number,numRpt,f,0.66,Lo,,,,,,0,,,,,,,,low,28,0,28,0,1,,,,,,,,,
297028,2022-12-07_15h17.40.322,vts_reward_expectancy_bt,2022.2.4,Win32,14.999925,Chrome,1536,864,,,,,0,697,,,,,,,,,,,,,,,,,125,U,star,1,0,,,,,,,,,,,,,,,,switch,letter,lettSwt,k,0.7376,Hi,,,,,,0,,,,,,,,low,29,0,29,0,1,,,,,,,,,
297028,2022-12-07_15h17.40.322,vts_reward_expectancy_bt,2022.2.4,Win32,14.999925,Chrome,1536,864,,,,,0,697,,,,,,,,,,,,,,,,,132,S,circle,0,0,,,,,,,,,,,,,,,,switch,number,NA,f,0.734,Hi,,,,,,0,,,,,,,,low,30,0,30,0,1,,,,,,,,,
297028,2022-12-07_15h17.40.322,vts_reward_expectancy_bt,2022.2.4,Win32,14.999925,Chrome,1536,864,,,,,1,698,,,,,,,,,,,,,,,,,160,Y,hexagon,1,1,,,,,,,,,,,,,,,,repeat,number,numRpt,f,0.6517,Lo,,,,,,0,,,,,,,,low,31,0,31,0,1,,,,,,,,,
297028,2022-12-07_15h17.40.322,vts_reward_expectancy_bt,2022.2.4,Win32,14.999925,Chrome,1536,864,,,,,0,698,,,,,,,,,,,,,,,,,132,F,star,1,0,,,,,,,,,,,,,,,,switch,letter,lettSwt,j,0.5954,Hi,,,,,,1,,,,,,space,1.9513,low,0,0,0,0,1,,,,,,,,,
297028,2022-12-07_15h17.40.322,vts_reward_expectancy_bt,2022.2.4,Win32,14.999925,Chrome,1536,864,,,,,10,708,,,,,,,,,,,,,,,,,174,Y,hexagon,1,0,,,,,,,,,,,,,,,,switch,number,numSwt,f,0.5963,Lo,,,,,,1,,,,,,,,low,1,0,1,0,1,,,,,,,,,
297028,2022-12-07_15h17.40.322,vts_reward_expectancy_bt,2022.2.4,Win32,14.999925,Chrome,1536,864,,,,,1,709,,,,,,,,,,,,,,,,,181,D,circle,1,0,,,,,,,,,,,,,,,,repeat,number,numRpt,f,0.5105,Hi,,,,,,1,,,,,,,,low,2,0,2,0,1,,,,,,,,,
297028,2022-12-07_15h17.40.322,vts_reward_expectancy_bt,2022.2.4,Win32,14.999925,Chrome,1536,864,,,,,0,709,,,,,,,,,,,,,,,,,167,W,triangle,0,0,,,,,,,,,,,,,,,,repeat,number,NA,d,0.4376,Hi,,,,,,1,,,,,,,,low,3,0,3,0,1,,,,,,,,,
297028,2022-12-07_15h17.40.322,vts_reward_expectancy_bt,2022.2.4,Win32,14.999925,Chrome,1536,864,,,,,0,709,,,,,,,,,,,,,,,,,125,H,star,1,1,,,,,,,,,,,,,,,,repeat,number,numRpt,d,0.8041,Hi,,,,,,1,,,,,,,,low,4,0,4,0,1,,,,,,,,,
297028,2022-12-07_15h17.40.322,vts_reward_expectancy_bt,2022.2.4,Win32,14.999925,Chrome,1536,864,,,,,0,709,,,,,,,,,,,,,,,,,160,S,hexagon,0,0,,,,,,,,,,,,,,,,switch,letter,NA,j,0.8787,Hi,,,,,,1,,,,,,,,low,5,0,5,0,1,,,,,,,,,
297028,2022-12-07_15h17.40.322,vts_reward_expectancy_bt,2022.2.4,Win32,14.999925,Chrome,1536,864,,,,,1,710,,,,,,,,,,,,,,,,,146,B,circle,1,1,,,,,,,,,,,,,,,,repeat,letter,lettRpt,j,0.605,Hi,,,,,,1,,,,,,,,low,6,0,6,0,1,,,,,,,,,
297028,2022-12-07_15h17.40.322,vts_reward_expectancy_bt,2022.2.4,Win32,14.999925,Chrome,1536,864,,,,,1,711,,,,,,,,,,,,,,,,,139,U,triangle,1,0,,,,,,,,,,,,,,,,repeat,letter,lettRpt,k,0.8191,Lo,,,,,,1,,,,,,,,low,7,0,7,0,1,,,,,,,,,
297028,2022-12-07_15h17.40.322,vts_reward_expectancy_bt,2022.2.4,Win32,14.999925,Chrome,1536,864,,,,,0,711,,,,,,,,,,,,,,,,,132,F,circle,0,0,,,,,,,,,,,,,,,,repeat,letter,NA,k,0.5824,Lo,,,,,,1,,,,,,,,low,8,0,8,0,1,,,,,,,,,
297028,2022-12-07_15h17.40.322,vts_reward_expectancy_bt,2022.2.4,Win32,14.999925,Chrome,1536,864,,,,,0,711,,,,,,,,,,,,,,,,,174,Y,star,1,1,,,,,,,,,,,,,,,,switch,number,numSwt,f,0.733,Hi,,,,,,1,,,,,,,,low,9,0,9,0,1,,,,,,,,,
297028,2022-12-07_15h17.40.322,vts_reward_expectancy_bt,2022.2.4,Win32,14.999925,Chrome,1536,864,,,,,0,711,,,,,,,,,,,,,,,,,181,D,hexagon,-1,0,,,,,,,,,,,,,,,,switch,no_choice,NA,,,Hi,,,,,,1,,,,,,,,low,10,0,10,0,1,,,,,,,,,
297028,2022-12-07_15h17.40.322,vts_reward_expectancy_bt,2022.2.4,Win32,14.999925,Chrome,1536,864,,,,,1,712,,,,,,,,,,,,,,,,,167,W,triangle,1,0,,,,,,,,,,,,,,,,switch,letter,lettSwt,k,0.8119,Lo,,,,,,1,,,,,,,,low,11,0,11,0,1,,,,,,,,,
297028,2022-12-07_15h17.40.322,vts_reward_expectancy_bt,2022.2.4,Win32,14.999925,Chrome,1536,864,,,,,0,712,,,,,,,,,,,,,,,,,125,H,circle,0,0,,,,,,,,,,,,,,,,repeat,letter,NA,k,0.6523,Lo,,,,,,1,,,,,,,,low,12,0,12,0,1,,,,,,,,,
297028,2022-12-07_15h17.40.322,vts_reward_expectancy_bt,2022.2.4,Win32,14.999925,Chrome,1536,864,,,,,0,712,,,,,,,,,,,,,,,,,160,S,star,-1,1,,,,,,,,,,,,,,,,switch,no_choice,NA,,,Lo,,,,,,1,,,,,,,,low,13,0,13,0,1,,,,,,,,,
297028,2022-12-07_15h17.40.322,vts_reward_expectancy_bt,2022.2.4,Win32,14.999925,Chrome,1536,864,,,,,10,722,,,,,,,,,,,,,,,,,146,B,triangle,1,0,,,,,,,,,,,,,,,,switch,number,numSwt,d,1.1613,Lo,,,,,,1,,,,,,,,low,14,0,14,0,1,,,,,,,,,
297028,2022-12-07_15h17.40.322,vts_reward_expectancy_bt,2022.2.4,Win32,14.999925,Chrome,1536,864,,,,,0,722,,,,,,,,,,,,,,,,,139,U,hexagon,0,0,,,,,,,,,,,,,,,,repeat,number,NA,f,1.2343,Lo,,,,,,1,,,,,,,,low,15,0,15,0,1,,,,,,,,,
297028,2022-12-07_15h17.40.322,vts_reward_expectancy_bt,2022.2.4,Win32,14.999925,Chrome,1536,864,,,,,10,732,,,,,,,,,,,,,,,,,125,D,hexagon,1,1,,,,,,,,,,,,,,,,repeat,number,numRpt,d,0.7348,Lo,,,,,,1,,,,,,,,low,16,0,16,0,1,,,,,,,,,
297028,2022-12-07_15h17.40.322,vts_reward_expectancy_bt,2022.2.4,Win32,14.999925,Chrome,1536,864,,,,,10,742,,,,,,,,,,,,,,,,,146,U,circle,1,0,,,,,,,,,,,,,,,,repeat,number,numRpt,d,0.6483,Hi,,,,,,1,,,,,,,,low,17,0,17,0,1,,,,,,,,,
297028,2022-12-07_15h17.40.322,vts_reward_expectancy_bt,2022.2.4,Win32,14.999925,Chrome,1536,864,,,,,1,743,,,,,,,,,,,,,,,,,139,Y,triangle,1,0,,,,,,,,,,,,,,,,repeat,number,numRpt,d,0.6612,Lo,,,,,,1,,,,,,,,low,18,0,18,0,1,,,,,,,,,
297028,2022-12-07_15h17.40.322,vts_reward_expectancy_bt,2022.2.4,Win32,14.999925,Chrome,1536,864,,,,,0,743,,,,,,,,,,,,,,,,,181,H,star,1,0,,,,,,,,,,,,,,,,repeat,number,numRpt,f,0.6755,Hi,,,,,,1,,,,,,,,low,19,0,19,0,1,,,,,,,,,
297028,2022-12-07_15h17.40.322,vts_reward_expectancy_bt,2022.2.4,Win32,14.999925,Chrome,1536,864,,,,,0,743,,,,,,,,,,,,,,,,,174,B,star,1,0,,,,,,,,,,,,,,,,switch,letter,lettSwt,j,0.9641,Hi,,,,,,1,,,,,,,,low,20,0,20,0,1,,,,,,,,,
297028,2022-12-07_15h17.40.322,vts_reward_expectancy_bt,2022.2.4,Win32,14.999925,Chrome,1536,864,,,,,1,744,,,,,,,,,,,,,,,,,132,S,hexagon,1,0,,,,,,,,,,,,,,,,repeat,letter,lettRpt,k,0.6683,Lo,,,,,,1,,,,,,,,low,21,0,21,0,1,,,,,,,,,
297028,2022-12-07_15h17.40.322,vts_reward_expectancy_bt,2022.2.4,Win32,14.999925,Chrome,1536,864,,,,,10,754,,,,,,,,,,,,,,,,,160,W,circle,1,0,,,,,,,,,,,,,,,,repeat,letter,lettRpt,k,0.6458,Hi,,,,,,1,,,,,,,,low,22,0,22,0,1,,,,,,,,,
297028,2022-12-07_15h17.40.322,vts_reward_expectancy_bt,2022.2.4,Win32,14.999925,Chrome,1536,864,,,,,10,764,,,,,,,,,,,,,,,,,167,F,triangle,1,0,,,,,,,,,,,,,,,,repeat,letter,lettRpt,j,0.6671,Lo,,,,,,1,,,,,,,,low,23,0,23,0,1,,,,,,,,,
297028,2022-12-07_15h17.40.322,vts_reward_expectancy_bt,2022.2.4,Win32,14.999925,Chrome,1536,864,,,,,1,765,,,,,,,,,,,,,,,,,167,U,triangle,1,0,,,,,,,,,,,,,,,,repeat,letter,lettRpt,k,0.8804,Lo,,,,,,1,,,,,,,,low,24,0,24,0,1,,,,,,,,,
297028,2022-12-07_15h17.40.322,vts_reward_expectancy_bt,2022.2.4,Win32,14.999925,Chrome,1536,864,,,,,10,775,,,,,,,,,,,,,,,,,146,B,circle,1,0,,,,,,,,,,,,,,,,repeat,letter,lettRpt,j,0.5873,Hi,,,,,,1,,,,,,,,low,25,0,25,0,1,,,,,,,,,
297028,2022-12-07_15h17.40.322,vts_reward_expectancy_bt,2022.2.4,Win32,14.999925,Chrome,1536,864,,,,,0,775,,,,,,,,,,,,,,,,,139,S,star,1,0,,,,,,,,,,,,,,,,switch,number,numSwt,d,1.027,Hi,,,,,,1,,,,,,,,low,26,0,26,0,1,,,,,,,,,
297028,2022-12-07_15h17.40.322,vts_reward_expectancy_bt,2022.2.4,Win32,14.999925,Chrome,1536,864,,,,,10,785,,,,,,,,,,,,,,,,,160,D,hexagon,1,0,,,,,,,,,,,,,,,,repeat,number,numRpt,f,0.5185,Lo,,,,,,1,,,,,,,,low,27,0,27,0,1,,,,,,,,,
297028,2022-12-07_15h17.40.322,vts_reward_expectancy_bt,2022.2.4,Win32,14.999925,Chrome,1536,864,,,,,10,795,,,,,,,,,,,,,,,,,125,W,circle,1,0,,,,,,,,,,,,,,,,repeat,number,numRpt,d,0.5839,Hi,,,,,,1,,,,,,,,low,28,0,28,0,1,,,,,,,,,
297028,2022-12-07_15h17.40.322,vts_reward_expectancy_bt,2022.2.4,Win32,14.999925,Chrome,1536,864,,,,,1,796,,,,,,,,,,,,,,,,,132,F,star,1,0,,,,,,,,,,,,,,,,repeat,number,numRpt,d,0.6037,Hi,,,,,,1,,,,,,,,low,29,0,29,0,1,,,,,,,,,
297028,2022-12-07_15h17.40.322,vts_reward_expectancy_bt,2022.2.4,Win32,14.999925,Chrome,1536,864,,,,,1,797,,,,,,,,,,,,,,,,,174,H,triangle,1,0,,,,,,,,,,,,,,,,repeat,number,numRpt,f,0.8189,Lo,,,,,,1,,,,,,,,low,30,0,30,0,1,,,,,,,,,
297028,2022-12-07_15h17.40.322,vts_reward_expectancy_bt,2022.2.4,Win32,14.999925,Chrome,1536,864,,,,,1,798,,,,,,,,,,,,,,,,,181,Y,hexagon,1,0,,,,,,,,,,,,,,,,switch,letter,lettSwt,k,0.8927,Lo,,,,,,1,,,,,,,,low,31,0,31,0,1,,,,,,,,,
297028,2022-12-07_15h17.40.322,vts_reward_expectancy_bt,2022.2.4,Win32,14.999925,Chrome,1536,864,,,,,0,798,,,,,,,,,,,,,,,,,181,H,circle,0,0,,,,,,,,,,,,,,,,repeat,letter,NA,k,1.1949,Lo,,,,,,2,,,,,,space,3.0348,low,0,0,0,0,1,,,,,,,,,
297028,2022-12-07_15h17.40.322,vts_reward_expectancy_bt,2022.2.4,Win32,14.999925,Chrome,1536,864,,,,,1,799,,,,,,,,,,,,,,,,,167,S,hexagon,1,1,,,,,,,,,,,,,,,,switch,number,numSwt,f,0.7138,Lo,,,,,,2,,,,,,,,low,1,0,1,0,1,,,,,,,,,
297028,2022-12-07_15h17.40.322,vts_reward_expectancy_bt,2022.2.4,Win32,14.999925,Chrome,1536,864,,,,,1,800,,,,,,,,,,,,,,,,,160,W,triangle,1,0,,,,,,,,,,,,,,,,switch,letter,lettSwt,k,0.7108,Lo,,,,,,2,,,,,,,,low,2,0,2,0,1,,,,,,,,,
297028,2022-12-07_15h17.40.322,vts_reward_expectancy_bt,2022.2.4,Win32,14.999925,Chrome,1536,864,,,,,10,810,,,,,,,,,,,,,,,,,174,B,star,1,0,,,,,,,,,,,,,,,,switch,number,numSwt,f,0.5818,Hi,,,,,,2,,,,,,,,low,3,0,3,0,1,,,,,,,,,
297028,2022-12-07_15h17.40.322,vts_reward_expectancy_bt,2022.2.4,Win32,14.999925,Chrome,1536,864,,,,,10,820,,,,,,,,,,,,,,,,,125,Y,circle,1,0,,,,,,,,,,,,,,,,repeat,number,numRpt,d,0.5991,Hi,,,,,,2,,,,,,,,low,4,0,4,0,1,,,,,,,,,
297028,2022-12-07_15h17.40.322,vts_reward_expectancy_bt,2022.2.4,Win32,14.999925,Chrome,1536,864,,,,,1,821,,,,,,,,,,,,,,,,,139,D,hexagon,1,0,,,,,,,,,,,,,,,,switch,letter,lettSwt,j,0.6892,Lo,,,,,,2,,,,,,,,low,5,0,5,0,1,,,,,,,,,
297028,2022-12-07_15h17.40.322,vts_reward_expectancy_bt,2022.2.4,Win32,14.999925,Chrome,1536,864,,,,,1,822,,,,,,,,,,,,,,,,,146,F,triangle,1,0,,,,,,,,,,,,,,,,switch,number,numSwt,d,0.7113,Lo,,,,,,2,,,,,,,,low,6,0,6,0,1,,,,,,,,,
297028,2022-12-07_15h17.40.322,vts_reward_expectancy_bt,2022.2.4,Win32,14.999925,Chrome,1536,864,,,,,10,832,,,,,,,,,,,,,,,,,132,U,star,1,0,,,,,,,,,,,,,,,,switch,letter,lettSwt,k,0.573,Hi,,,,,,2,,,,,,,,low,7,0,7,0,1,,,,,,,,,
297028,2022-12-07_15h17.40.322,vts_reward_expectancy_bt,2022.2.4,Win32,14.999925,Chrome,1536,864,,,,,1,833,,,,,,,,,,,,,,,,,181,H,hexagon,1,0,,,,,,,,,,,,,,,,repeat,letter,lettRpt,j,0.7905,Lo,,,,,,2,,,,,,,,low,8,0,8,0,1,,,,,,,,,
297028,2022-12-07_15h17.40.322,vts_reward_expectancy_bt,2022.2.4,Win32,14.999925,Chrome,1536,864,,,,,0,833,,,,,,,,,,,,,,,,,167,S,circle,1,0,,,,,,,,,,,,,,,,switch,number,numSwt,f,0.8386,Hi,,,,,,2,,,,,,,,low,9,0,9,0,1,,,,,,,,,
297028,2022-12-07_15h17.40.322,vts_reward_expectancy_bt,2022.2.4,Win32,14.999925,Chrome,1536,864,,,,,10,843,,,,,,,,,,,,,,,,,160,W,star,1,0,,,,,,,,,,,,,,,,repeat,number,numRpt,f,0.58,Hi,,,,,,2,,,,,,,,low,10,0,10,0,1,,,,,,,,,
297028,2022-12-07_15h17.40.322,vts_reward_expectancy_bt,2022.2.4,Win32,14.999925,Chrome,1536,864,,,,,0,843,,,,,,,,,,,,,,,,,174,B,triangle,-1,0,,,,,,,,,,,,,,,,switch,no_choice,NA,,,Hi,,,,,,2,,,,,,,,low,11,0,11,0,1,,,,,,,,,
297028,2022-12-07_15h17.40.322,vts_reward_expectancy_bt,2022.2.4,Win32,14.999925,Chrome,1536,864,,,,,10,853,,,,,,,,,,,,,,,,,125,Y,triangle,1,0,,,,,,,,,,,,,,,,switch,number,numSwt,d,0.9174,Lo,,,,,,2,,,,,,,,low,12,0,12,0,1,,,,,,,,,
297028,2022-12-07_15h17.40.322,vts_reward_expectancy_bt,2022.2.4,Win32,14.999925,Chrome,1536,864,,,,,0,853,,,,,,,,,,,,,,,,,139,D,circle,1,0,,,,,,,,,,,,,,,,repeat,number,numRpt,d,1.9325,Hi,,,,,,2,,,,,,,,low,13,0,13,0,1,,,,,,,,,
297028,2022-12-07_15h17.40.322,vts_reward_expectancy_bt,2022.2.4,Win32,14.999925,Chrome,1536,864,,,,,0,853,,,,,,,,,,,,,,,,,146,F,star,1,0,,,,,,,,,,,,,,,,repeat,number,numRpt,d,0.7956,Hi,,,,,,2,,,,,,,,low,14,0,14,0,1,,,,,,,,,
297028,2022-12-07_15h17.40.322,vts_reward_expectancy_bt,2022.2.4,Win32,14.999925,Chrome,1536,864,,,,,10,863,,,,,,,,,,,,,,,,,132,U,hexagon,1,0,,,,,,,,,,,,,,,,repeat,number,numRpt,d,0.5921,Lo,,,,,,2,,,,,,,,low,15,0,15,0,1,,,,,,,,,
297028,2022-12-07_15h17.40.322,vts_reward_expectancy_bt,2022.2.4,Win32,14.999925,Chrome,1536,864,,,,,1,864,,,,,,,,,,,,,,,,,132,H,triangle,1,0,,,,,,,,,,,,,,,,repeat,number,numRpt,d,0.9212,Lo,,,,,,2,,,,,,,,low,16,0,16,0,1,,,,,,,,,
297028,2022-12-07_15h17.40.322,vts_reward_expectancy_bt,2022.2.4,Win32,14.999925,Chrome,1536,864,,,,,10,874,,,,,,,,,,,,,,,,,167,F,star,1,0,,,,,,,,,,,,,,,,switch,letter,lettSwt,j,0.7172,Hi,,,,,,2,,,,,,,,low,17,0,17,0,1,,,,,,,,,
297028,2022-12-07_15h17.40.322,vts_reward_expectancy_bt,2022.2.4,Win32,14.999925,Chrome,1536,864,,,,,0,874,,,,,,,,,,,,,,,,,146,Y,circle,1,0,,,,,,,,,,,,,,,,repeat,letter,lettRpt,k,0.6844,Hi,,,,,,2,,,,,,,,low,18,0,18,0,1,,,,,,,,,
297028,2022-12-07_15h17.40.322,vts_reward_expectancy_bt,2022.2.4,Win32,14.999925,Chrome,1536,864,,,,,1,875,,,,,,,,,,,,,,,,,125,W,hexagon,1,0,,,,,,,,,,,,,,,,switch,number,numSwt,d,0.9176,Lo,,,,,,2,,,,,,,,low,19,0,19,0,1,,,,,,,,,
297028,2022-12-07_15h17.40.322,vts_reward_expectancy_bt,2022.2.4,Win32,14.999925,Chrome,1536,864,,,,,0,875,,,,,,,,,,,,,,,,,174,U,circle,1,0,,,,,,,,,,,,,,,,repeat,number,numRpt,f,0.7003,Hi,,,,,,2,,,,,,,,low,20,0,20,0,1,,,,,,,,,
297028,2022-12-07_15h17.40.322,vts_reward_expectancy_bt,2022.2.4,Win32,14.999925,Chrome,1536,864,,,,,10,885,,,,,,,,,,,,,,,,,139,S,star,1,0,,,,,,,,,,,,,,,,repeat,number,numRpt,d,0.4885,Hi,,,,,,2,,,,,,,,low,21,0,21,0,1,,,,,,,,,
297028,2022-12-07_15h17.40.322,vts_reward_expectancy_bt,2022.2.4,Win32,14.999925,Chrome,1536,864,,,,,10,895,,,,,,,,,,,,,,,,,181,D,hexagon,1,0,,,,,,,,,,,,,,,,repeat,number,numRpt,f,0.6853,Lo,,,,,,2,,,,,,,,low,22,0,22,0,1,,,,,,,,,
297028,2022-12-07_15h17.40.322,vts_reward_expectancy_bt,2022.2.4,Win32,14.999925,Chrome,1536,864,,,,,10,905,,,,,,,,,,,,,,,,,160,B,triangle,1,0,,,,,,,,,,,,,,,,repeat,number,numRpt,f,0.7179,Lo,,,,,,2,,,,,,,,low,23,0,23,0,1,,,,,,,,,
297028,2022-12-07_15h17.40.322,vts_reward_expectancy_bt,2022.2.4,Win32,14.999925,Chrome,1536,864,,,,,0,905,,,,,,,,,,,,,,,,,139,F,circle,1,0,,,,,,,,,,,,,,,,switch,letter,lettSwt,j,1.6559,Hi,,,,,,2,,,,,,,,low,24,0,24,0,1,,,,,,,,,
297028,2022-12-07_15h17.40.322,vts_reward_expectancy_bt,2022.2.4,Win32,14.999925,Chrome,1536,864,,,,,0,905,,,,,,,,,,,,,,,,,174,H,star,1,0,,,,,,,,,,,,,,,,repeat,letter,lettRpt,j,1.2951,Hi,,,,,,2,,,,,,,,low,25,0,25,0,1,,,,,,,,,
297028,2022-12-07_15h17.40.322,vts_reward_expectancy_bt,2022.2.4,Win32,14.999925,Chrome,1536,864,,,,,1,906,,,,,,,,,,,,,,,,,146,W,hexagon,1,0,,,,,,,,,,,,,,,,repeat,letter,lettRpt,k,0.7148,Lo,,,,,,2,,,,,,,,low,26,0,26,0,1,,,,,,,,,
297028,2022-12-07_15h17.40.322,vts_reward_expectancy_bt,2022.2.4,Win32,14.999925,Chrome,1536,864,,,,,1,907,,,,,,,,,,,,,,,,,160,S,triangle,1,0,,,,,,,,,,,,,,,,switch,number,numSwt,f,0.8142,Lo,,,,,,2,,,,,,,,low,27,0,27,0,1,,,,,,,,,
297028,2022-12-07_15h17.40.322,vts_reward_expectancy_bt,2022.2.4,Win32,14.999925,Chrome,1536,864,,,,,1,908,,,,,,,,,,,,,,,,,167,B,circle,1,0,,,,,,,,,,,,,,,,switch,letter,lettSwt,j,0.6929,Hi,,,,,,2,,,,,,,,low,28,0,28,0,1,,,,,,,,,
297028,2022-12-07_15h17.40.322,vts_reward_expectancy_bt,2022.2.4,Win32,14.999925,Chrome,1536,864,,,,,0,908,,,,,,,,,,,,,,,,,125,Y,star,1,0,,,,,,,,,,,,,,,,repeat,letter,lettRpt,k,0.7056,Hi,,,,,,2,,,,,,,,low,29,0,29,0,1,,,,,,,,,
297028,2022-12-07_15h17.40.322,vts_reward_expectancy_bt,2022.2.4,Win32,14.999925,Chrome,1536,864,,,,,1,909,,,,,,,,,,,,,,,,,132,U,hexagon,1,0,,,,,,,,,,,,,,,,switch,number,numSwt,d,0.7085,Lo,,,,,,2,,,,,,,,low,30,0,30,0,1,,,,,,,,,
297028,2022-12-07_15h17.40.322,vts_reward_expectancy_bt,2022.2.4,Win32,14.999925,Chrome,1536,864,,,,,1,910,,,,,,,,,,,,,,,,,181,D,triangle,1,0,,,,,,,,,,,,,,,,switch,letter,lettSwt,j,0.8158,Lo,,,,,,2,,,,,,,,low,31,0,31,0,1,,,,,,,,,
297028,2022-12-07_15h17.40.322,vts_reward_expectancy_bt,2022.2.4,Win32,14.999925,Chrome,1536,864,,,,,10,920,,,,,,,,,,,,,,,,,125,W,circle,1,0,,,,,,,,,,,,,,,,switch,number,numSwt,d,0.6109,Hi,,,,,,3,,,,,,space,14.0206,low,0,0,0,0,1,,,,,,,,,
297028,2022-12-07_15h17.40.322,vts_reward_expectancy_bt,2022.2.4,Win32,14.999925,Chrome,1536,864,,,,,1,921,,,,,,,,,,,,,,,,,181,U,hexagon,1,0,,,,,,,,,,,,,,,,repeat,number,numRpt,f,0.5884,Lo,,,,,,3,,,,,,,,low,1,0,1,0,1,,,,,,,,,
297028,2022-12-07_15h17.40.322,vts_reward_expectancy_bt,2022.2.4,Win32,14.999925,Chrome,1536,864,,,,,10,931,,,,,,,,,,,,,,,,,167,S,star,1,0,,,,,,,,,,,,,,,,switch,letter,lettSwt,k,0.5838,Hi,,,,,,3,,,,,,,,low,2,0,2,0,1,,,,,,,,,
297028,2022-12-07_15h17.40.322,vts_reward_expectancy_bt,2022.2.4,Win32,14.999925,Chrome,1536,864,,,,,10,941,,,,,,,,,,,,,,,,,174,H,triangle,1,0,,,,,,,,,,,,,,,,repeat,letter,lettRpt,j,0.4638,Lo,,,,,,3,,,,,,,,low,3,0,3,0,1,,,,,,,,,
297028,2022-12-07_15h17.40.322,vts_reward_expectancy_bt,2022.2.4,Win32,14.999925,Chrome,1536,864,,,,,0,941,,,,,,,,,,,,,,,,,146,Y,circle,0,0,,,,,,,,,,,,,,,,switch,number,NA,f,0.8269,Lo,,,,,,3,,,,,,,,low,4,0,4,0,1,,,,,,,,,
297028,2022-12-07_15h17.40.322,vts_reward_expectancy_bt,2022.2.4,Win32,14.999925,Chrome,1536,864,,,,,10,951,,,,,,,,,,,,,,,,,160,D,hexagon,1,1,,,,,,,,,,,,,,,,repeat,number,numRpt,f,0.7327,Lo,,,,,,3,,,,,,,,low,5,0,5,0,1,,,,,,,,,
297028,2022-12-07_15h17.40.322,vts_reward_expectancy_bt,2022.2.4,Win32,14.999925,Chrome,1536,864,,,,,10,961,,,,,,,,,,,,,,,,,139,B,star,1,0,,,,,,,,,,,,,,,,repeat,number,numRpt,d,0.5847,Hi,,,,,,3,,,,,,,,low,6,0,6,0,1,,,,,,,,,
297028,2022-12-07_15h17.40.322,vts_reward_expectancy_bt,2022.2.4,Win32,14.999925,Chrome,1536,864,,,,,10,971,,,,,,,,,,,,,,,,,132,F,triangle,1,0,,,,,,,,,,,,,,,,repeat,number,numRpt,d,0.7101,Lo,,,,,,3,,,,,,,,low,7,0,7,0,1,,,,,,,,,
297028,2022-12-07_15h17.40.322,vts_reward_expectancy_bt,2022.2.4,Win32,14.999925,Chrome,1536,864,,,,,10,981,,,,,,,,,,,,,,,,,125,W,hexagon,1,0,,,,,,,,,,,,,,,,repeat,number,numRpt,d,0.7229,Lo,,,,,,3,,,,,,,,low,8,0,8,0,1,,,,,,,,,
297028,2022-12-07_15h17.40.322,vts_reward_expectancy_bt,2022.2.4,Win32,14.999925,Chrome,1536,864,,,,,1,982,,,,,,,,,,,,,,,,,181,U,triangle,1,0,,,,,,,,,,,,,,,,repeat,number,numRpt,f,0.7142,Lo,,,,,,3,,,,,,,,low,9,0,9,0,1,,,,,,,,,
297028,2022-12-07_15h17.40.322,vts_reward_expectancy_bt,2022.2.4,Win32,14.999925,Chrome,1536,864,,,,,0,982,,,,,,,,,,,,,,,,,167,S,circle,1,0,,,,,,,,,,,,,,,,repeat,number,numRpt,f,1.0728,Hi,,,,,,3,,,,,,,,low,10,0,10,0,1,,,,,,,,,
297028,2022-12-07_15h17.40.322,vts_reward_expectancy_bt,2022.2.4,Win32,14.999925,Chrome,1536,864,,,,,0,982,,,,,,,,,,,,,,,,,174,H,star,1,0,,,,,,,,,,,,,,,,repeat,number,numRpt,f,2.5818,Hi,,,,,,3,,,,,,,,low,11,0,11,0,1,,,,,,,,,
297028,2022-12-07_15h17.40.322,vts_reward_expectancy_bt,2022.2.4,Win32,14.999925,Chrome,1536,864,,,,,0,982,,,,,,,,,,,,,,,,,146,Y,hexagon,0,0,,,,,,,,,,,,,,,,repeat,number,NA,f,1.1157,Hi,,,,,,3,,,,,,,,low,12,0,12,0,1,,,,,,,,,
297028,2022-12-07_15h17.40.322,vts_reward_expectancy_bt,2022.2.4,Win32,14.999925,Chrome,1536,864,,,,,0,982,,,,,,,,,,,,,,,,,160,D,circle,1,1,,,,,,,,,,,,,,,,repeat,number,numRpt,f,1.3244,Hi,,,,,,3,,,,,,,,low,13,0,13,0,1,,,,,,,,,
297028,2022-12-07_15h17.40.322,vts_reward_expectancy_bt,2022.2.4,Win32,14.999925,Chrome,1536,864,,,,,0,982,,,,,,,,,,,,,,,,,139,B,star,1,0,,,,,,,,,,,,,,,,repeat,number,numRpt,d,1.0778,Hi,,,,,,3,,,,,,,,low,14,0,14,0,1,,,,,,,,,
297028,2022-12-07_15h17.40.322,vts_reward_expectancy_bt,2022.2.4,Win32,14.999925,Chrome,1536,864,,,,,10,992,,,,,,,,,,,,,,,,,132,F,triangle,1,0,,,,,,,,,,,,,,,,repeat,number,numRpt,d,0.8512,Lo,,,,,,3,,,,,,,,low,15,0,15,0,1,,,,,,,,,
297028,2022-12-07_15h17.40.322,vts_reward_expectancy_bt,2022.2.4,Win32,14.999925,Chrome,1536,864,,,,,10,1002,,,,,,,,,,,,,,,,,181,U,hexagon,1,0,,,,,,,,,,,,,,,,switch,letter,lettSwt,k,1.1758,Lo,,,,,,3,,,,,,,,low,16,0,16,0,1,,,,,,,,,
297028,2022-12-07_15h17.40.322,vts_reward_expectancy_bt,2022.2.4,Win32,14.999925,Chrome,1536,864,,,,,0,1002,,,,,,,,,,,,,,,,,167,B,circle,0,0,,,,,,,,,,,,,,,,repeat,letter,NA,k,0.9395,Lo,,,,,,3,,,,,,,,low,17,0,17,0,1,,,,,,,,,
297028,2022-12-07_15h17.40.322,vts_reward_expectancy_bt,2022.2.4,Win32,14.999925,Chrome,1536,864,,,,,0,1002,,,,,,,,,,,,,,,,,146,F,star,1,1,,,,,,,,,,,,,,,,repeat,letter,lettRpt,j,0.7228,Hi,,,,,,3,,,,,,,,low,18,0,18,0,1,,,,,,,,,
297028,2022-12-07_15h17.40.322,vts_reward_expectancy_bt,2022.2.4,Win32,14.999925,Chrome,1536,864,,,,,10,1012,,,,,,,,,,,,,,,,,132,H,triangle,1,0,,,,,,,,,,,,,,,,repeat,letter,lettRpt,j,0.9631,Lo,,,,,,3,,,,,,,,low,19,0,19,0,1,,,,,,,,,
297028,2022-12-07_15h17.40.322,vts_reward_expectancy_bt,2022.2.4,Win32,14.999925,Chrome,1536,864,,,,,0,1012,,,,,,,,,,,,,,,,,139,S,circle,1,0,,,,,,,,,,,,,,,,repeat,letter,lettRpt,k,0.8745,Hi,,,,,,3,,,,,,,,low,20,0,20,0,1,,,,,,,,,
297028,2022-12-07_15h17.40.322,vts_reward_expectancy_bt,2022.2.4,Win32,14.999925,Chrome,1536,864,,,,,1,1013,,,,,,,,,,,,,,,,,125,W,hexagon,1,0,,,,,,,,,,,,,,,,repeat,letter,lettRpt,k,1.1072,Lo,,,,,,3,,,,,,,,low,21,0,21,0,1,,,,,,,,,
297028,2022-12-07_15h17.40.322,vts_reward_expectancy_bt,2022.2.4,Win32,14.999925,Chrome,1536,864,,,,,1,1014,,,,,,,,,,,,,,,,,174,Y,triangle,1,0,,,,,,,,,,,,,,,,repeat,letter,lettRpt,k,0.827,Lo,,,,,,3,,,,,,,,low,22,0,22,0,1,,,,,,,,,
297028,2022-12-07_15h17.40.322,vts_reward_expectancy_bt,2022.2.4,Win32,14.999925,Chrome,1536,864,,,,,0,1014,,,,,,,,,,,,,,,,,160,D,star,1,0,,,,,,,,,,,,,,,,switch,number,numSwt,f,0.8191,Hi,,,,,,3,,,,,,,,low,23,0,23,0,1,,,,,,,,,
297028,2022-12-07_15h17.40.322,vts_reward_expectancy_bt,2022.2.4,Win32,14.999925,Chrome,1536,864,,,,,1,1015,,,,,,,,,,,,,,,,,132,W,triangle,1,0,,,,,,,,,,,,,,,,switch,letter,lettSwt,k,0.8276,Lo,,,,,,3,,,,,,,,low,24,0,24,0,1,,,,,,,,,
297028,2022-12-07_15h17.40.322,vts_reward_expectancy_bt,2022.2.4,Win32,14.999925,Chrome,1536,864,,,,,0,1015,,,,,,,,,,,,,,,,,167,H,hexagon,0,0,,,,,,,,,,,,,,,,switch,number,NA,d,0.8252,Lo,,,,,,3,,,,,,,,low,25,0,25,0,1,,,,,,,,,
297028,2022-12-07_15h17.40.322,vts_reward_expectancy_bt,2022.2.4,Win32,14.999925,Chrome,1536,864,,,,,0,1015,,,,,,,,,,,,,,,,,174,B,circle,1,1,,,,,,,,,,,,,,,,switch,letter,lettSwt,j,0.948,Hi,,,,,,3,,,,,,,,low,26,0,26,0,1,,,,,,,,,
297028,2022-12-07_15h17.40.322,vts_reward_expectancy_bt,2022.2.4,Win32,14.999925,Chrome,1536,864,,,,,0,1015,,,,,,,,,,,,,,,,,139,F,star,1,0,,,,,,,,,,,,,,,,repeat,letter,lettRpt,j,0.8133,Hi,,,,,,3,,,,,,,,low,27,0,27,0,1,,,,,,,,,
297028,2022-12-07_15h17.40.322,vts_reward_expectancy_bt,2022.2.4,Win32,14.999925,Chrome,1536,864,,,,,0,1015,,,,,,,,,,,,,,,,,160,Y,star,1,0,,,,,,,,,,,,,,,,repeat,letter,lettRpt,k,0.9394,Hi,,,,,,3,,,,,,,,low,28,0,28,0,1,,,,,,,,,
297028,2022-12-07_15h17.40.322,vts_reward_expectancy_bt,2022.2.4,Win32,14.999925,Chrome,1536,864,,,,,1,1016,,,,,,,,,,,,,,,,,125,U,hexagon,1,0,,,,,,,,,,,,,,,,switch,number,numSwt,d,0.6077,Lo,,,,,,3,,,,,,,,low,29,0,29,0,1,,,,,,,,,
297028,2022-12-07_15h17.40.322,vts_reward_expectancy_bt,2022.2.4,Win32,14.999925,Chrome,1536,864,,,,,10,1026,,,,,,,,,,,,,,,,,146,D,circle,1,0,,,,,,,,,,,,,,,,switch,letter,lettSwt,j,0.5933,Hi,,,,,,3,,,,,,,,low,30,0,30,0,1,,,,,,,,,
297028,2022-12-07_15h17.40.322,vts_reward_expectancy_bt,2022.2.4,Win32,14.999925,Chrome,1536,864,,,,,10,1036,,,,,,,,,,,,,,,,,181,S,triangle,1,0,,,,,,,,,,,,,,,,repeat,letter,lettRpt,k,0.8482,Lo,,,,,,3,,,,,,,,low,31,0,31,0,1,,,,,,,,,
297028,2022-12-07_15h17.40.322,vts_reward_expectancy_bt,2022.2.4,Win32,14.999925,Chrome,1536,864,,,,,0,1036,,,,,,,,,,,,,,,,,160,H,star,0,0,,,,,,,,,,,,,,,,repeat,letter,NA,k,0.835,Lo,,,,,,4,,,,,,space,1.2687,low,0,0,0,0,1,,,,,,,,,
297028,2022-12-07_15h17.40.322,vts_reward_expectancy_bt,2022.2.4,Win32,14.999925,Chrome,1536,864,,,,,0,1036,,,,,,,,,,,,,,,,,125,F,circle,1,1,,,,,,,,,,,,,,,,repeat,letter,lettRpt,j,1.1702,Hi,,,,,,4,,,,,,,,low,1,0,1,0,1,,,,,,,,,
297028,2022-12-07_15h17.40.322,vts_reward_expectancy_bt,2022.2.4,Win32,14.999925,Chrome,1536,864,,,,,10,1046,,,,,,,,,,,,,,,,,132,S,hexagon,1,0,,,,,,,,,,,,,,,,repeat,letter,lettRpt,k,0.7302,Lo,,,,,,4,,,,,,,,low,2,0,2,0,1,,,,,,,,,
297028,2022-12-07_15h17.40.322,vts_reward_expectancy_bt,2022.2.4,Win32,14.999925,Chrome,1536,864,,,,,1,1047,,,,,,,,,,,,,,,,,167,B,triangle,1,0,,,,,,,,,,,,,,,,switch,number,numSwt,f,0.4979,Lo,,,,,,4,,,,,,,,low,3,0,3,0,1,,,,,,,,,
297028,2022-12-07_15h17.40.322,vts_reward_expectancy_bt,2022.2.4,Win32,14.999925,Chrome,1536,864,,,,,10,1057,,,,,,,,,,,,,,,,,174,Y,star,1,0,,,,,,,,,,,,,,,,repeat,number,numRpt,f,0.6118,Hi,,,,,,4,,,,,,,,low,4,0,4,0,1,,,,,,,,,
297028,2022-12-07_15h17.40.322,vts_reward_expectancy_bt,2022.2.4,Win32,14.999925,Chrome,1536,864,,,,,1,1058,,,,,,,,,,,,,,,,,146,W,circle,1,0,,,,,,,,,,,,,,,,repeat,number,numRpt,d,0.6183,Hi,,,,,,4,,,,,,,,low,5,0,5,0,1,,,,,,,,,
297028,2022-12-07_15h17.40.322,vts_reward_expectancy_bt,2022.2.4,Win32,14.999925,Chrome,1536,864,,,,,1,1059,,,,,,,,,,,,,,,,,181,U,hexagon,1,0,,,,,,,,,,,,,,,,switch,letter,lettSwt,k,0.7193,Lo,,,,,,4,,,,,,,,low,6,0,6,0,1,,,,,,,,,
297028,2022-12-07_15h17.40.322,vts_reward_expectancy_bt,2022.2.4,Win32,14.999925,Chrome,1536,864,,,,,1,1060,,,,,,,,,,,,,,,,,139,D,triangle,1,0,,,,,,,,,,,,,,,,repeat,letter,lettRpt,j,1.2101,Lo,,,,,,4,,,,,,,,low,7,0,7,0,1,,,,,,,,,
297028,2022-12-07_15h17.40.322,vts_reward_expectancy_bt,2022.2.4,Win32,14.999925,Chrome,1536,864,,,,,0,1060,,,,,,,,,,,,,,,,,160,H,star,0,0,,,,,,,,,,,,,,,,switch,number,NA,d,1.3078,Lo,,,,,,4,,,,,,,,low,8,0,8,0,1,,,,,,,,,
297028,2022-12-07_15h17.40.322,vts_reward_expectancy_bt,2022.2.4,Win32,14.999925,Chrome,1536,864,,,,,0,1060,,,,,,,,,,,,,,,,,125,F,hexagon,0,1,,,,,,,,,,,,,,,,repeat,number,NA,f,0.9785,Lo,,,,,,4,,,,,,,,low,9,0,9,0,1,,,,,,,,,
297028,2022-12-07_15h17.40.322,vts_reward_expectancy_bt,2022.2.4,Win32,14.999925,Chrome,1536,864,,,,,1,1061,,,,,,,,,,,,,,,,,132,S,triangle,1,1,,,,,,,,,,,,,,,,switch,letter,lettSwt,k,0.5993,Lo,,,,,,4,,,,,,,,low,10,0,10,0,1,,,,,,,,,
297028,2022-12-07_15h17.40.322,vts_reward_expectancy_bt,2022.2.4,Win32,14.999925,Chrome,1536,864,,,,,0,1061,,,,,,,,,,,,,,,,,167,B,circle,0,0,,,,,,,,,,,,,,,,switch,number,NA,d,1.0748,Lo,,,,,,4,,,,,,,,low,11,0,11,0,1,,,,,,,,,
297028,2022-12-07_15h17.40.322,vts_reward_expectancy_bt,2022.2.4,Win32,14.999925,Chrome,1536,864,,,,,1,1062,,,,,,,,,,,,,,,,,174,Y,triangle,1,1,,,,,,,,,,,,,,,,switch,letter,lettSwt,k,2.1308,Lo,,,,,,4,,,,,,,,low,12,0,12,0,1,,,,,,,,,
297028,2022-12-07_15h17.40.322,vts_reward_expectancy_bt,2022.2.4,Win32,14.999925,Chrome,1536,864,,,,,0,1062,,,,,,,,,,,,,,,,,146,W,star,0,0,,,,,,,,,,,,,,,,switch,number,NA,f,1.0659,Lo,,,,,,4,,,,,,,,low,13,0,13,0,1,,,,,,,,,
297028,2022-12-07_15h17.40.322,vts_reward_expectancy_bt,2022.2.4,Win32,14.999925,Chrome,1536,864,,,,,10,1072,,,,,,,,,,,,,,,,,181,U,circle,1,1,,,,,,,,,,,,,,,,repeat,number,numRpt,f,0.593,Hi,,,,,,4,,,,,,,,low,14,0,14,0,1,,,,,,,,,
297028,2022-12-07_15h17.40.322,vts_reward_expectancy_bt,2022.2.4,Win32,14.999925,Chrome,1536,864,,,,,0,1072,,,,,,,,,,,,,,,,,139,D,hexagon,0,0,,,,,,,,,,,,,,,,repeat,number,NA,f,0.8617,Hi,,,,,,4,,,,,,,,low,15,0,15,0,1,,,,,,,,,
297028,2022-12-07_15h17.40.322,vts_reward_expectancy_bt,2022.2.4,Win32,14.999925,Chrome,1536,864,,,,,10,1082,,,,,,,,,,,,,,,,,139,W,hexagon,1,1,,,,,,,,,,,,,,,,repeat,number,numRpt,d,2.2289,Lo,,,,,,4,,,,,,,,low,16,0,16,0,1,,,,,,,,,
297028,2022-12-07_15h17.40.322,vts_reward_expectancy_bt,2022.2.4,Win32,14.999925,Chrome,1536,864,,,,,0,1082,,,,,,,,,,,,,,,,,181,B,circle,1,0,,,,,,,,,,,,,,,,repeat,number,numRpt,f,1.0576,Hi,,,,,,4,,,,,,,,low,17,0,17,0,1,,,,,,,,,
297028,2022-12-07_15h17.40.322,vts_reward_expectancy_bt,2022.2.4,Win32,14.999925,Chrome,1536,864,,,,,10,1092,,,,,,,,,,,,,,,,,132,S,triangle,1,0,,,,,,,,,,,,,,,,repeat,number,numRpt,d,0.7219,Lo,,,,,,4,,,,,,,,low,18,0,18,0,1,,,,,,,,,
297028,2022-12-07_15h17.40.322,vts_reward_expectancy_bt,2022.2.4,Win32,14.999925,Chrome,1536,864,,,,,0,1092,,,,,,,,,,,,,,,,,160,D,star,1,0,,,,,,,,,,,,,,,,switch,letter,lettSwt,j,0.9128,Hi,,,,,,4,,,,,,,,low,19,0,19,0,1,,,,,,,,,
297028,2022-12-07_15h17.40.322,vts_reward_expectancy_bt,2022.2.4,Win32,14.999925,Chrome,1536,864,,,,,1,1093,,,,,,,,,,,,,,,,,146,H,triangle,1,0,,,,,,,,,,,,,,,,repeat,letter,lettRpt,j,1.2137,Lo,,,,,,4,,,,,,,,low,20,0,20,0,1,,,,,,,,,
297028,2022-12-07_15h17.40.322,vts_reward_expectancy_bt,2022.2.4,Win32,14.999925,Chrome,1536,864,,,,,1,1094,,,,,,,,,,,,,,,,,167,Y,hexagon,1,0,,,,,,,,,,,,,,,,switch,number,numSwt,f,0.7537,Lo,,,,,,4,,,,,,,,low,21,0,21,0,1,,,,,,,,,
297028,2022-12-07_15h17.40.322,vts_reward_expectancy_bt,2022.2.4,Win32,14.999925,Chrome,1536,864,,,,,0,1094,,,,,,,,,,,,,,,,,174,F,star,1,0,,,,,,,,,,,,,,,,repeat,number,numRpt,f,0.8222,Hi,,,,,,4,,,,,,,,low,22,0,22,0,1,,,,,,,,,
297028,2022-12-07_15h17.40.322,vts_reward_expectancy_bt,2022.2.4,Win32,14.999925,Chrome,1536,864,,,,,0,1094,,,,,,,,,,,,,,,,,125,U,circle,1,0,,,,,,,,,,,,,,,,repeat,number,numRpt,d,0.765,Hi,,,,,,4,,,,,,,,low,23,0,23,0,1,,,,,,,,,
297028,2022-12-07_15h17.40.322,vts_reward_expectancy_bt,2022.2.4,Win32,14.999925,Chrome,1536,864,,,,,0,1094,,,,,,,,,,,,,,,,,146,B,circle,1,0,,,,,,,,,,,,,,,,switch,letter,lettSwt,j,0.763,Hi,,,,,,4,,,,,,,,low,24,0,24,0,1,,,,,,,,,
297028,2022-12-07_15h17.40.322,vts_reward_expectancy_bt,2022.2.4,Win32,14.999925,Chrome,1536,864,,,,,1,1095,,,,,,,,,,,,,,,,,132,S,hexagon,1,0,,,,,,,,,,,,,,,,switch,number,numSwt,d,0.7646,Lo,,,,,,4,,,,,,,,low,25,0,25,0,1,,,,,,,,,
297028,2022-12-07_15h17.40.322,vts_reward_expectancy_bt,2022.2.4,Win32,14.999925,Chrome,1536,864,,,,,0,1095,,,,,,,,,,,,,,,,,160,D,star,1,0,,,,,,,,,,,,,,,,repeat,number,numRpt,f,1.0592,Hi,,,,,,4,,,,,,,,low,26,0,26,0,1,,,,,,,,,
297028,2022-12-07_15h17.40.322,vts_reward_expectancy_bt,2022.2.4,Win32,14.999925,Chrome,1536,864,,,,,1,1096,,,,,,,,,,,,,,,,,139,W,triangle,1,0,,,,,,,,,,,,,,,,repeat,number,numRpt,d,1.2452,Lo,,,,,,4,,,,,,,,low,27,0,27,0,1,,,,,,,,,
297028,2022-12-07_15h17.40.322,vts_reward_expectancy_bt,2022.2.4,Win32,14.999925,Chrome,1536,864,,,,,0,1096,,,,,,,,,,,,,,,,,181,U,circle,0,0,,,,,,,,,,,,,,,,switch,letter,NA,j,0.8917,Lo,,,,,,4,,,,,,,,low,28,0,28,0,1,,,,,,,,,
297028,2022-12-07_15h17.40.322,vts_reward_expectancy_bt,2022.2.4,Win32,14.999925,Chrome,1536,864,,,,,0,1096,,,,,,,,,,,,,,,,,167,F,star,1,1,,,,,,,,,,,,,,,,repeat,letter,lettRpt,j,1.5218,Hi,,,,,,4,,,,,,,,low,29,0,29,0,1,,,,,,,,,
297028,2022-12-07_15h17.40.322,vts_reward_expectancy_bt,2022.2.4,Win32,14.999925,Chrome,1536,864,,,,,0,1096,,,,,,,,,,,,,,,,,174,H,triangle,0,0,,,,,,,,,,,,,,,,switch,number,NA,d,0.8965,Hi,,,,,,4,,,,,,,,low,30,0,30,0,1,,,,,,,,,
297028,2022-12-07_15h17.40.322,vts_reward_expectancy_bt,2022.2.4,Win32,14.999925,Chrome,1536,864,,,,,1,1097,,,,,,,,,,,,,,,,,125,Y,hexagon,1,1,,,,,,,,,,,,,,,,repeat,number,numRpt,d,0.7713,Lo,,,,,,4,,,,,,,,low,31,0,31,0,1,,,,,,,,,
297028,2022-12-07_15h17.40.322,vts_reward_expectancy_bt,2022.2.4,Win32,14.999925,Chrome,1536,864,,,,,0,1097,,,,,,,,,,,,,,,,,160,S,circle,1,0,,,,,,,,,,,,,,,,repeat,number,numRpt,f,0.7587,Hi,,,,,,5,,,,,,space,0.7151,low,0,0,0,0,1,,,,,,,,,
297028,2022-12-07_15h17.40.322,vts_reward_expectancy_bt,2022.2.4,Win32,14.999925,Chrome,1536,864,,,,,10,1107,,,,,,,,,,,,,,,,,146,W,hexagon,1,0,,,,,,,,,,,,,,,,repeat,number,numRpt,d,0.8959,Lo,,,,,,5,,,,,,,,low,1,0,1,0,1,,,,,,,,,
297028,2022-12-07_15h17.40.322,vts_reward_expectancy_bt,2022.2.4,Win32,14.999925,Chrome,1536,864,,,,,1,1108,,,,,,,,,,,,,,,,,139,B,triangle,1,0,,,,,,,,,,,,,,,,repeat,number,numRpt,d,0.9164,Lo,,,,,,5,,,,,,,,low,2,0,2,0,1,,,,,,,,,
297028,2022-12-07_15h17.40.322,vts_reward_expectancy_bt,2022.2.4,Win32,14.999925,Chrome,1536,864,,,,,0,1108,,,,,,,,,,,,,,,,,167,H,star,1,0,,,,,,,,,,,,,,,,repeat,number,numRpt,f,0.7609,Hi,,,,,,5,,,,,,,,low,3,0,3,0,1,,,,,,,,,
297028,2022-12-07_15h17.40.322,vts_reward_expectancy_bt,2022.2.4,Win32,14.999925,Chrome,1536,864,,,,,0,1108,,,,,,,,,,,,,,,,,174,F,circle,1,0,,,,,,,,,,,,,,,,switch,letter,lettSwt,j,0.9416,Hi,,,,,,5,,,,,,,,low,4,0,4,0,1,,,,,,,,,
297028,2022-12-07_15h17.40.322,vts_reward_expectancy_bt,2022.2.4,Win32,14.999925,Chrome,1536,864,,,,,1,1109,,,,,,,,,,,,,,,,,125,D,hexagon,1,0,,,,,,,,,,,,,,,,switch,number,numSwt,d,1.0265,Lo,,,,,,5,,,,,,,,low,5,0,5,0,1,,,,,,,,,
297028,2022-12-07_15h17.40.322,vts_reward_expectancy_bt,2022.2.4,Win32,14.999925,Chrome,1536,864,,,,,1,1110,,,,,,,,,,,,,,,,,181,Y,triangle,1,0,,,,,,,,,,,,,,,,repeat,number,numRpt,f,0.8054,Lo,,,,,,5,,,,,,,,low,6,0,6,0,1,,,,,,,,,
297028,2022-12-07_15h17.40.322,vts_reward_expectancy_bt,2022.2.4,Win32,14.999925,Chrome,1536,864,,,,,0,1110,,,,,,,,,,,,,,,,,132,U,star,0,0,,,,,,,,,,,,,,,,switch,letter,NA,j,0.9127,Lo,,,,,,5,,,,,,,,low,7,0,7,0,1,,,,,,,,,
297028,2022-12-07_15h17.40.322,vts_reward_expectancy_bt,2022.2.4,Win32,14.999925,Chrome,1536,864,,,,,0,1110,,,,,,,,,,,,,,,,,160,S,circle,0,1,,,,,,,,,,,,,,,,switch,number,NA,d,1.215,Lo,,,,,,5,,,,,,,,low,8,0,8,0,1,,,,,,,,,
297028,2022-12-07_15h17.40.322,vts_reward_expectancy_bt,2022.2.4,Win32,14.999925,Chrome,1536,864,,,,,1,1111,,,,,,,,,,,,,,,,,146,W,hexagon,1,1,,,,,,,,,,,,,,,,switch,letter,lettSwt,k,1.2797,Lo,,,,,,5,,,,,,,,low,9,0,9,0,1,,,,,,,,,
297028,2022-12-07_15h17.40.322,vts_reward_expectancy_bt,2022.2.4,Win32,14.999925,Chrome,1536,864,,,,,1,1112,,,,,,,,,,,,,,,,,139,B,triangle,1,0,,,,,,,,,,,,,,,,repeat,letter,lettRpt,j,0.9525,Lo,,,,,,5,,,,,,,,low,10,0,10,0,1,,,,,,,,,
297028,2022-12-07_15h17.40.322,vts_reward_expectancy_bt,2022.2.4,Win32,14.999925,Chrome,1536,864,,,,,0,1112,,,,,,,,,,,,,,,,,167,H,star,0,0,,,,,,,,,,,,,,,,repeat,letter,NA,k,1.3836,Lo,,,,,,5,,,,,,,,low,11,0,11,0,1,,,,,,,,,
297028,2022-12-07_15h17.40.322,vts_reward_expectancy_bt,2022.2.4,Win32,14.999925,Chrome,1536,864,,,,,10,1122,,,,,,,,,,,,,,,,,174,F,triangle,1,1,,,,,,,,,,,,,,,,switch,number,numSwt,f,1.8876,Lo,,,,,,5,,,,,,,,low,12,0,12,0,1,,,,,,,,,
297028,2022-12-07_15h17.40.322,vts_reward_expectancy_bt,2022.2.4,Win32,14.999925,Chrome,1536,864,,,,,0,1122,,,,,,,,,,,,,,,,,125,D,hexagon,-1,0,,,,,,,,,,,,,,,,switch,no_choice,NA,,,Lo,,,,,,5,,,,,,,,low,13,0,13,0,1,,,,,,,,,
297028,2022-12-07_15h17.40.322,vts_reward_expectancy_bt,2022.2.4,Win32,14.999925,Chrome,1536,864,,,,,0,1122,,,,,,,,,,,,,,,,,181,Y,star,1,0,,,,,,,,,,,,,,,,switch,letter,lettSwt,k,0.8154,Hi,,,,,,5,,,,,,,,low,14,0,14,0,1,,,,,,,,,
297028,2022-12-07_15h17.40.322,vts_reward_expectancy_bt,2022.2.4,Win32,14.999925,Chrome,1536,864,,,,,10,1132,,,,,,,,,,,,,,,,,132,U,circle,1,0,,,,,,,,,,,,,,,,repeat,letter,lettRpt,k,0.9334,Hi,,,,,,5,,,,,,,,low,15,0,15,0,1,,,,,,,,,
297028,2022-12-07_15h17.40.322,vts_reward_expectancy_bt,2022.2.4,Win32,14.999925,Chrome,1536,864,,,,,0,1132,,,,,,,,,,,,,,,,,160,S,circle,1,0,,,,,,,,,,,,,,,,switch,number,numSwt,f,0.8863,Hi,,,,,,5,,,,,,,,low,16,0,16,0,1,,,,,,,,,
297028,2022-12-07_15h17.40.322,vts_reward_expectancy_bt,2022.2.4,Win32,14.999925,Chrome,1536,864,,,,,1,1133,,,,,,,,,,,,,,,,,139,Y,hexagon,1,0,,,,,,,,,,,,,,,,repeat,number,numRpt,d,0.9155,Lo,,,,,,5,,,,,,,,low,17,0,17,0,1,,,,,,,,,
297028,2022-12-07_15h17.40.322,vts_reward_expectancy_bt,2022.2.4,Win32,14.999925,Chrome,1536,864,,,,,0,1133,,,,,,,,,,,,,,,,,132,W,triangle,0,0,,,,,,,,,,,,,,,,repeat,number,NA,f,0.9029,Lo,,,,,,5,,,,,,,,low,18,0,18,0,1,,,,,,,,,
297028,2022-12-07_15h17.40.322,vts_reward_expectancy_bt,2022.2.4,Win32,14.999925,Chrome,1536,864,,,,,0,1133,,,,,,,,,,,,,,,,,174,H,star,1,1,,,,,,,,,,,,,,,,switch,letter,lettSwt,j,1.2179,Hi,,,,,,5,,,,,,,,low,19,0,19,0,1,,,,,,,,,
297028,2022-12-07_15h17.40.322,vts_reward_expectancy_bt,2022.2.4,Win32,14.999925,Chrome,1536,864,,,,,0,1133,,,,,,,,,,,,,,,,,167,B,circle,1,0,,,,,,,,,,,,,,,,repeat,letter,lettRpt,j,1.2368,Hi,,,,,,5,,,,,,,,low,20,0,20,0,1,,,,,,,,,
297028,2022-12-07_15h17.40.322,vts_reward_expectancy_bt,2022.2.4,Win32,14.999925,Chrome,1536,864,,,,,10,1143,,,,,,,,,,,,,,,,,125,U,hexagon,1,0,,,,,,,,,,,,,,,,repeat,letter,lettRpt,k,0.7706,Lo,,,,,,5,,,,,,,,low,21,0,21,0,1,,,,,,,,,
297028,2022-12-07_15h17.40.322,vts_reward_expectancy_bt,2022.2.4,Win32,14.999925,Chrome,1536,864,,,,,1,1144,,,,,,,,,,,,,,,,,181,D,triangle,1,0,,,,,,,,,,,,,,,,repeat,letter,lettRpt,j,1.2121,Lo,,,,,,5,,,,,,,,low,22,0,22,0,1,,,,,,,,,
297028,2022-12-07_15h17.40.322,vts_reward_expectancy_bt,2022.2.4,Win32,14.999925,Chrome,1536,864,,,,,10,1154,,,,,,,,,,,,,,,,,146,F,star,1,0,,,,,,,,,,,,,,,,repeat,letter,lettRpt,j,0.7518,Hi,,,,,,5,,,,,,,,low,23,0,23,0,1,,,,,,,,,
297028,2022-12-07_15h17.40.322,vts_reward_expectancy_bt,2022.2.4,Win32,14.999925,Chrome,1536,864,,,,,10,1164,,,,,,,,,,,,,,,,,174,D,hexagon,1,0,,,,,,,,,,,,,,,,repeat,letter,lettRpt,j,1.5239,Lo,,,,,,5,,,,,,,,low,24,0,24,0,1,,,,,,,,,
297028,2022-12-07_15h17.40.322,vts_reward_expectancy_bt,2022.2.4,Win32,14.999925,Chrome,1536,864,,,,,0,1164,,,,,,,,,,,,,,,,,125,W,star,1,0,,,,,,,,,,,,,,,,switch,number,numSwt,d,1.0657,Hi,,,,,,5,,,,,,,,low,25,0,25,0,1,,,,,,,,,
297028,2022-12-07_15h17.40.322,vts_reward_expectancy_bt,2022.2.4,Win32,14.999925,Chrome,1536,864,,,,,1,1165,,,,,,,,,,,,,,,,,181,H,triangle,1,0,,,,,,,,,,,,,,,,switch,letter,lettSwt,j,0.7975,Lo,,,,,,5,,,,,,,,low,26,0,26,0,1,,,,,,,,,
297028,2022-12-07_15h17.40.322,vts_reward_expectancy_bt,2022.2.4,Win32,14.999925,Chrome,1536,864,,,,,0,1165,,,,,,,,,,,,,,,,,160,S,circle,1,0,,,,,,,,,,,,,,,,repeat,letter,lettRpt,k,1.516,Hi,,,,,,5,,,,,,,,low,27,0,27,0,1,,,,,,,,,
297028,2022-12-07_15h17.40.322,vts_reward_expectancy_bt,2022.2.4,Win32,14.999925,Chrome,1536,864,,,,,10,1175,,,,,,,,,,,,,,,,,146,B,hexagon,1,0,,,,,,,,,,,,,,,,switch,number,numSwt,d,0.7817,Lo,,,,,,5,,,,,,,,low,28,0,28,0,1,,,,,,,,,
297028,2022-12-07_15h17.40.322,vts_reward_expectancy_bt,2022.2.4,Win32,14.999925,Chrome,1536,864,,,,,1,1176,,,,,,,,,,,,,,,,,139,Y,triangle,1,0,,,,,,,,,,,,,,,,repeat,number,numRpt,d,1.2738,Lo,,,,,,5,,,,,,,,low,29,0,29,0,1,,,,,,,,,
297028,2022-12-07_15h17.40.322,vts_reward_expectancy_bt,2022.2.4,Win32,14.999925,Chrome,1536,864,,,,,0,1176,,,,,,,,,,,,,,,,,167,U,star,1,0,,,,,,,,,,,,,,,,switch,letter,lettSwt,k,1.4022,Hi,,,,,,5,,,,,,,,low,30,0,30,0,1,,,,,,,,,
297028,2022-12-07_15h17.40.322,vts_reward_expectancy_bt,2022.2.4,Win32,14.999925,Chrome,1536,864,,,,,10,1186,,,,,,,,,,,,,,,,,132,F,circle,1,0,,,,,,,,,,,,,,,,repeat,letter,lettRpt,j,0.9113,Hi,,,,,,5,,,,,,,,low,31,0,31,0,1,,,,,,,,,
297028,2022-12-07_15h17.40.322,vts_reward_expectancy_bt,2022.2.4,Win32,14.999925,Chrome,1536,864,,,,,0,1186,,,,,,,,,,,,,,,,,125,D,star,1,0,,,,,,,,,,,,,,,,switch,number,numSwt,d,1.6925,Hi,,,,,,6,,,,,,space,0.7057,low,0,0,0,0,1,,,,,,,,,
297028,2022-12-07_15h17.40.322,vts_reward_expectancy_bt,2022.2.4,Win32,14.999925,Chrome,1536,864,,,,,1,1187,,,,,,,,,,,,,,,,,181,B,triangle,1,0,,,,,,,,,,,,,,,,switch,letter,lettSwt,j,0.9235,Lo,,,,,,6,,,,,,,,low,1,0,1,0,1,,,,,,,,,
297028,2022-12-07_15h17.40.322,vts_reward_expectancy_bt,2022.2.4,Win32,14.999925,Chrome,1536,864,,,,,1,1188,,,,,,,,,,,,,,,,,139,Y,hexagon,1,0,,,,,,,,,,,,,,,,repeat,letter,lettRpt,k,0.8361,Lo,,,,,,6,,,,,,,,low,2,0,2,0,1,,,,,,,,,
297028,2022-12-07_15h17.40.322,vts_reward_expectancy_bt,2022.2.4,Win32,14.999925,Chrome,1536,864,,,,,0,1188,,,,,,,,,,,,,,,,,160,H,circle,1,0,,,,,,,,,,,,,,,,repeat,letter,lettRpt,j,1.4853,Hi,,,,,,6,,,,,,,,low,3,0,3,0,1,,,,,,,,,
297028,2022-12-07_15h17.40.322,vts_reward_expectancy_bt,2022.2.4,Win32,14.999925,Chrome,1536,864,,,,,0,1188,,,,,,,,,,,,,,,,,167,S,star,1,0,,,,,,,,,,,,,,,,repeat,letter,lettRpt,k,1.5275,Hi,,,,,,6,,,,,,,,low,4,0,4,0,1,,,,,,,,,
297028,2022-12-07_15h17.40.322,vts_reward_expectancy_bt,2022.2.4,Win32,14.999925,Chrome,1536,864,,,,,1,1189,,,,,,,,,,,,,,,,,146,W,triangle,1,0,,,,,,,,,,,,,,,,switch,number,numSwt,d,0.7443,Lo,,,,,,6,,,,,,,,low,5,0,5,0,1,,,,,,,,,
297028,2022-12-07_15h17.40.322,vts_reward_expectancy_bt,2022.2.4,Win32,14.999925,Chrome,1536,864,,,,,10,1199,,,,,,,,,,,,,,,,,174,U,hexagon,1,0,,,,,,,,,,,,,,,,switch,letter,lettSwt,k,0.9084,Lo,,,,,,6,,,,,,,,low,6,0,6,0,1,,,,,,,,,
297028,2022-12-07_15h17.40.322,vts_reward_expectancy_bt,2022.2.4,Win32,14.999925,Chrome,1536,864,,,,,0,1199,,,,,,,,,,,,,,,,,132,F,circle,1,0,,,,,,,,,,,,,,,,repeat,letter,lettRpt,j,0.9297,Hi,,,,,,6,,,,,,,,low,7,0,7,0,1,,,,,,,,,
297028,2022-12-07_15h17.40.322,vts_reward_expectancy_bt,2022.2.4,Win32,14.999925,Chrome,1536,864,,,,,10,1209,,,,,,,,,,,,,,,,,125,D,star,1,0,,,,,,,,,,,,,,,,switch,number,numSwt,d,0.7639,Hi,,,,,,6,,,,,,,,low,8,0,8,0,1,,,,,,,,,
297028,2022-12-07_15h17.40.322,vts_reward_expectancy_bt,2022.2.4,Win32,14.999925,Chrome,1536,864,,,,,10,1219,,,,,,,,,,,,,,,,,181,B,circle,1,0,,,,,,,,,,,,,,,,switch,letter,lettSwt,j,0.7792,Hi,,,,,,6,,,,,,,,low,9,0,9,0,1,,,,,,,,,
297028,2022-12-07_15h17.40.322,vts_reward_expectancy_bt,2022.2.4,Win32,14.999925,Chrome,1536,864,,,,,1,1220,,,,,,,,,,,,,,,,,139,Y,hexagon,1,0,,,,,,,,,,,,,,,,repeat,letter,lettRpt,k,0.7593,Lo,,,,,,6,,,,,,,,low,10,0,10,0,1,,,,,,,,,
297028,2022-12-07_15h17.40.322,vts_reward_expectancy_bt,2022.2.4,Win32,14.999925,Chrome,1536,864,,,,,10,1230,,,,,,,,,,,,,,,,,160,H,triangle,1,0,,,,,,,,,,,,,,,,repeat,letter,lettRpt,j,0.9297,Lo,,,,,,6,,,,,,,,low,11,0,11,0,1,,,,,,,,,
297028,2022-12-07_15h17.40.322,vts_reward_expectancy_bt,2022.2.4,Win32,14.999925,Chrome,1536,864,,,,,10,1240,,,,,,,,,,,,,,,,,167,S,hexagon,1,0,,,,,,,,,,,,,,,,repeat,letter,lettRpt,k,0.9424,Lo,,,,,,6,,,,,,,,low,12,0,12,0,1,,,,,,,,,
