participant,date,expName,psychopyVersion,OS,frameRate,browser,xResolution,yResolution,key_resp.keys,key_resp.rt,training_resp.keys,training_resp.rt,points_trial,points_cumul,trainBlock,training.thisRepN,training.thisTrialN,training.thisN,training.thisIndex,training.ran,LTriangleOpac,LCircleOpac,LHexagonOpac,LStarOpac,RTriangleOpac,RCircleOpac,RHexagonOpac,RStarOpac,LShape_ID,RShape_ID,curr_topStim,curr_bottStim,curr_shape,acc,E1,target_resp_prac1.keys,pracBlock,task1_prac_trials.thisRepN,task1_prac_trials.thisTrialN,task1_prac_trials.thisN,task1_prac_trials.thisIndex,task1_prac_trials.ran,target_resp_prac1.rt,target_resp_prac2.keys,target_resp_prac2.rt,task2_praac_trials.thisRepN,task2_praac_trials.thisTrialN,task2_praac_trials.thisN,task2_praac_trials.thisIndex,task2_praac_trials.ran,alt,task,condition,target_resp.keys,target_resp.rt,rewCond,vts_practice_trials.thisRepN,vts_practice_trials.thisTrialN,vts_practice_trials.thisN,vts_practice_trials.thisIndex,vts_practice_trials.ran,blockNum,trials_norew.thisRepN,trials_norew.thisTrialN,trials_norew.thisN,trials_norew.thisIndex,trials_norew.ran,key_resp_2.keys,key_resp_2.rt,rewExpectancy,trials_rew.thisRepN,trials_rew.thisTrialN,trials_rew.thisN,trials_rew.thisIndex,trials_rew.ran,Q1,Q2,Q2_text,Q3,Q4,Q5_text,Q5,xRes,yRes
297022,2022-11-15_17h12.47.886,vts_reward_expectancy_bt,2022.2.4,MacIntel,60.0024001,Chrome,1440,900,,,,,,,,,,,,,,,,,,,,,,,,,,,,,,,,,,,,,,,,,,,,,,,,,,,,,,,,,,,,,,,,,,,,,,,,,,,,
297022,2022-11-15_17h12.47.886,vts_reward_expectancy_bt,2022.2.4,MacIntel,60.0024001,Chrome,1440,900,space,20.2131,,,,,,,,,,,,,,,,,,,,,,,,,,,,,,,,,,,,,,,,,,,,,,,,,,,,,,,,,,,,,,,,,,,,,,,,,,
297022,2022-11-15_17h12.47.886,vts_reward_expectancy_bt,2022.2.4,MacIntel,60.0024001,Chrome,1440,900,,,,,,,,,,,,,,,,,,,,,,,,,,,,,,,,,,,,,,,,,,,,,,,,,,,,,,,,,,,,,,,,,,,,,,,,,,,,
297022,2022-11-15_17h12.47.886,vts_reward_expectancy_bt,2022.2.4,MacIntel,60.0024001,Chrome,1440,900,,,l,1.457,1,1,0,0,0,0,5,1,0,1,0,0,0,0,0,1,circle,star,,,,,,,,,,,,,,,,,,,,,,,,,,,,,,,,,,,,,,,,,,,,,,,,,,,,,,
297022,2022-11-15_17h12.47.886,vts_reward_expectancy_bt,2022.2.4,MacIntel,60.0024001,Chrome,1440,900,,,a,1.3848,10,11,0,0,1,1,8,1,0,0,1,0,0,0,0,1,hexagon,star,,,,,,,,,,,,,,,,,,,,,,,,,,,,,,,,,,,,,,,,,,,,,,,,,,,,,,
297022,2022-11-15_17h12.47.886,vts_reward_expectancy_bt,2022.2.4,MacIntel,60.0024001,Chrome,1440,900,,,a,0.9004,1,12,0,0,2,2,6,1,0,0,1,0,1,0,0,0,hexagon,triangle,,,,,,,,,,,,,,,,,,,,,,,,,,,,,,,,,,,,,,,,,,,,,,,,,,,,,,
297022,2022-11-15_17h12.47.886,vts_reward_expectancy_bt,2022.2.4,MacIntel,60.0024001,Chrome,1440,900,,,l,2.5851,10,22,0,0,3,3,0,1,1,0,0,0,0,1,0,0,triangle,circle,,,,,,,,,,,,,,,,,,,,,,,,,,,,,,,,,,,,,,,,,,,,,,,,,,,,,,
297022,2022-11-15_17h12.47.886,vts_reward_expectancy_bt,2022.2.4,MacIntel,60.0024001,Chrome,1440,900,,,a,2.2818,10,32,0,0,4,4,10,1,0,0,0,1,0,1,0,0,star ,circle,,,,,,,,,,,,,,,,,,,,,,,,,,,,,,,,,,,,,,,,,,,,,,,,,,,,,,
297022,2022-11-15_17h12.47.886,vts_reward_expectancy_bt,2022.2.4,MacIntel,60.0024001,Chrome,1440,900,,,a,2.8727,10,42,0,0,5,5,1,1,1,0,0,0,0,0,1,0,triangle,hexagon,,,,,,,,,,,,,,,,,,,,,,,,,,,,,,,,,,,,,,,,,,,,,,,,,,,,,,
297022,2022-11-15_17h12.47.886,vts_reward_expectancy_bt,2022.2.4,MacIntel,60.0024001,Chrome,1440,900,,,l,1.6608,1,43,0,0,6,6,7,1,0,0,1,0,0,1,0,0,hexagon,circle,,,,,,,,,,,,,,,,,,,,,,,,,,,,,,,,,,,,,,,,,,,,,,,,,,,,,,
297022,2022-11-15_17h12.47.886,vts_reward_expectancy_bt,2022.2.4,MacIntel,60.0024001,Chrome,1440,900,,,l,1.251,1,44,0,0,7,7,3,1,0,1,0,0,1,0,0,0,circle,triangle,,,,,,,,,,,,,,,,,,,,,,,,,,,,,,,,,,,,,,,,,,,,,,,,,,,,,,
297022,2022-11-15_17h12.47.886,vts_reward_expectancy_bt,2022.2.4,MacIntel,60.0024001,Chrome,1440,900,,,l,0.787,1,45,0,0,8,8,2,1,1,0,0,0,0,0,0,1,triangle,star,,,,,,,,,,,,,,,,,,,,,,,,,,,,,,,,,,,,,,,,,,,,,,,,,,,,,,
297022,2022-11-15_17h12.47.886,vts_reward_expectancy_bt,2022.2.4,MacIntel,60.0024001,Chrome,1440,900,,,l,2.2911,1,46,0,0,9,9,4,1,0,1,0,0,0,0,1,0,circle,hexagon,,,,,,,,,,,,,,,,,,,,,,,,,,,,,,,,,,,,,,,,,,,,,,,,,,,,,,
297022,2022-11-15_17h12.47.886,vts_reward_expectancy_bt,2022.2.4,MacIntel,60.0024001,Chrome,1440,900,,,a,0.875,10,56,0,0,10,10,11,1,0,0,0,1,0,0,1,0,star,hexagon,,,,,,,,,,,,,,,,,,,,,,,,,,,,,,,,,,,,,,,,,,,,,,,,,,,,,,
297022,2022-11-15_17h12.47.886,vts_reward_expectancy_bt,2022.2.4,MacIntel,60.0024001,Chrome,1440,900,,,l,1.5093,10,66,0,0,11,11,9,1,0,0,0,1,1,0,0,0,star,triangle,,,,,,,,,,,,,,,,,,,,,,,,,,,,,,,,,,,,,,,,,,,,,,,,,,,,,,
297022,2022-11-15_17h12.47.886,vts_reward_expectancy_bt,2022.2.4,MacIntel,60.0024001,Chrome,1440,900,,,a,1.2104,1,67,0,1,0,12,11,1,0,0,0,1,0,0,1,0,star,hexagon,,,,,,,,,,,,,,,,,,,,,,,,,,,,,,,,,,,,,,,,,,,,,,,,,,,,,,
297022,2022-11-15_17h12.47.886,vts_reward_expectancy_bt,2022.2.4,MacIntel,60.0024001,Chrome,1440,900,,,l,1.2868,1,68,0,1,1,13,5,1,0,1,0,0,0,0,0,1,circle,star,,,,,,,,,,,,,,,,,,,,,,,,,,,,,,,,,,,,,,,,,,,,,,,,,,,,,,
297022,2022-11-15_17h12.47.886,vts_reward_expectancy_bt,2022.2.4,MacIntel,60.0024001,Chrome,1440,900,,,l,1.0995,1,69,0,1,2,14,6,1,0,0,1,0,1,0,0,0,hexagon,triangle,,,,,,,,,,,,,,,,,,,,,,,,,,,,,,,,,,,,,,,,,,,,,,,,,,,,,,
297022,2022-11-15_17h12.47.886,vts_reward_expectancy_bt,2022.2.4,MacIntel,60.0024001,Chrome,1440,900,,,a,1.1844,10,79,0,1,3,15,0,1,1,0,0,0,0,1,0,0,triangle,circle,,,,,,,,,,,,,,,,,,,,,,,,,,,,,,,,,,,,,,,,,,,,,,,,,,,,,,
297022,2022-11-15_17h12.47.886,vts_reward_expectancy_bt,2022.2.4,MacIntel,60.0024001,Chrome,1440,900,,,l,2.4115,1,80,0,1,4,16,8,1,0,0,1,0,0,0,0,1,hexagon,star,,,,,,,,,,,,,,,,,,,,,,,,,,,,,,,,,,,,,,,,,,,,,,,,,,,,,,
297022,2022-11-15_17h12.47.886,vts_reward_expectancy_bt,2022.2.4,MacIntel,60.0024001,Chrome,1440,900,,,l,2.1752,1,81,0,1,5,17,10,1,0,0,0,1,0,1,0,0,star ,circle,,,,,,,,,,,,,,,,,,,,,,,,,,,,,,,,,,,,,,,,,,,,,,,,,,,,,,
297022,2022-11-15_17h12.47.886,vts_reward_expectancy_bt,2022.2.4,MacIntel,60.0024001,Chrome,1440,900,,,a,1.4034,10,91,0,1,6,18,1,1,1,0,0,0,0,0,1,0,triangle,hexagon,,,,,,,,,,,,,,,,,,,,,,,,,,,,,,,,,,,,,,,,,,,,,,,,,,,,,,
297022,2022-11-15_17h12.47.886,vts_reward_expectancy_bt,2022.2.4,MacIntel,60.0024001,Chrome,1440,900,,,a,1.0767,1,92,0,1,7,19,9,1,0,0,0,1,1,0,0,0,star,triangle,,,,,,,,,,,,,,,,,,,,,,,,,,,,,,,,,,,,,,,,,,,,,,,,,,,,,,
297022,2022-11-15_17h12.47.886,vts_reward_expectancy_bt,2022.2.4,MacIntel,60.0024001,Chrome,1440,900,,,l,1.2425,10,102,0,1,8,20,2,1,1,0,0,0,0,0,0,1,triangle,star,,,,,,,,,,,,,,,,,,,,,,,,,,,,,,,,,,,,,,,,,,,,,,,,,,,,,,
297022,2022-11-15_17h12.47.886,vts_reward_expectancy_bt,2022.2.4,MacIntel,60.0024001,Chrome,1440,900,,,l,2.2862,10,112,0,1,9,21,3,1,0,1,0,0,1,0,0,0,circle,triangle,,,,,,,,,,,,,,,,,,,,,,,,,,,,,,,,,,,,,,,,,,,,,,,,,,,,,,
297022,2022-11-15_17h12.47.886,vts_reward_expectancy_bt,2022.2.4,MacIntel,60.0024001,Chrome,1440,900,,,l,0.6055,1,113,0,1,10,22,7,1,0,0,1,0,0,1,0,0,hexagon,circle,,,,,,,,,,,,,,,,,,,,,,,,,,,,,,,,,,,,,,,,,,,,,,,,,,,,,,
297022,2022-11-15_17h12.47.886,vts_reward_expectancy_bt,2022.2.4,MacIntel,60.0024001,Chrome,1440,900,,,a,2.8232,1,114,0,1,11,23,4,1,0,1,0,0,0,0,1,0,circle,hexagon,,,,,,,,,,,,,,,,,,,,,,,,,,,,,,,,,,,,,,,,,,,,,,,,,,,,,,
297022,2022-11-15_17h12.47.886,vts_reward_expectancy_bt,2022.2.4,MacIntel,60.0024001,Chrome,1440,900,,,l,1.4765,1,115,0,2,0,24,0,1,1,0,0,0,0,1,0,0,triangle,circle,,,,,,,,,,,,,,,,,,,,,,,,,,,,,,,,,,,,,,,,,,,,,,,,,,,,,,
297022,2022-11-15_17h12.47.886,vts_reward_expectancy_bt,2022.2.4,MacIntel,60.0024001,Chrome,1440,900,,,l,1.8639,10,125,0,2,1,25,9,1,0,0,0,1,1,0,0,0,star,triangle,,,,,,,,,,,,,,,,,,,,,,,,,,,,,,,,,,,,,,,,,,,,,,,,,,,,,,
297022,2022-11-15_17h12.47.886,vts_reward_expectancy_bt,2022.2.4,MacIntel,60.0024001,Chrome,1440,900,,,a,1.8099,10,135,0,2,2,26,2,1,1,0,0,0,0,0,0,1,triangle,star,,,,,,,,,,,,,,,,,,,,,,,,,,,,,,,,,,,,,,,,,,,,,,,,,,,,,,
297022,2022-11-15_17h12.47.886,vts_reward_expectancy_bt,2022.2.4,MacIntel,60.0024001,Chrome,1440,900,,,l,2.8243,10,145,0,2,3,27,8,1,0,0,1,0,0,0,0,1,hexagon,star,,,,,,,,,,,,,,,,,,,,,,,,,,,,,,,,,,,,,,,,,,,,,,,,,,,,,,
297022,2022-11-15_17h12.47.886,vts_reward_expectancy_bt,2022.2.4,MacIntel,60.0024001,Chrome,1440,900,,,l,3.0714,10,155,0,2,4,28,3,1,0,1,0,0,1,0,0,0,circle,triangle,,,,,,,,,,,,,,,,,,,,,,,,,,,,,,,,,,,,,,,,,,,,,,,,,,,,,,
297022,2022-11-15_17h12.47.886,vts_reward_expectancy_bt,2022.2.4,MacIntel,60.0024001,Chrome,1440,900,,,l,2.7049,1,156,0,2,5,29,11,1,0,0,0,1,0,0,1,0,star,hexagon,,,,,,,,,,,,,,,,,,,,,,,,,,,,,,,,,,,,,,,,,,,,,,,,,,,,,,
297022,2022-11-15_17h12.47.886,vts_reward_expectancy_bt,2022.2.4,MacIntel,60.0024001,Chrome,1440,900,,,l,1.5703,10,166,0,2,6,30,7,1,0,0,1,0,0,1,0,0,hexagon,circle,,,,,,,,,,,,,,,,,,,,,,,,,,,,,,,,,,,,,,,,,,,,,,,,,,,,,,
297022,2022-11-15_17h12.47.886,vts_reward_expectancy_bt,2022.2.4,MacIntel,60.0024001,Chrome,1440,900,,,l,1.2721,1,167,0,2,7,31,4,1,0,1,0,0,0,0,1,0,circle,hexagon,,,,,,,,,,,,,,,,,,,,,,,,,,,,,,,,,,,,,,,,,,,,,,,,,,,,,,
297022,2022-11-15_17h12.47.886,vts_reward_expectancy_bt,2022.2.4,MacIntel,60.0024001,Chrome,1440,900,,,l,1.2414,10,177,0,2,8,32,5,1,0,1,0,0,0,0,0,1,circle,star,,,,,,,,,,,,,,,,,,,,,,,,,,,,,,,,,,,,,,,,,,,,,,,,,,,,,,
297022,2022-11-15_17h12.47.886,vts_reward_expectancy_bt,2022.2.4,MacIntel,60.0024001,Chrome,1440,900,,,a,0.9098,1,178,0,2,9,33,6,1,0,0,1,0,1,0,0,0,hexagon,triangle,,,,,,,,,,,,,,,,,,,,,,,,,,,,,,,,,,,,,,,,,,,,,,,,,,,,,,
297022,2022-11-15_17h12.47.886,vts_reward_expectancy_bt,2022.2.4,MacIntel,60.0024001,Chrome,1440,900,,,a,0.7177,1,179,0,2,10,34,10,1,0,0,0,1,0,1,0,0,star ,circle,,,,,,,,,,,,,,,,,,,,,,,,,,,,,,,,,,,,,,,,,,,,,,,,,,,,,,
297022,2022-11-15_17h12.47.886,vts_reward_expectancy_bt,2022.2.4,MacIntel,60.0024001,Chrome,1440,900,,,l,0.8699,10,189,0,2,11,35,1,1,1,0,0,0,0,0,1,0,triangle,hexagon,,,,,,,,,,,,,,,,,,,,,,,,,,,,,,,,,,,,,,,,,,,,,,,,,,,,,,
297022,2022-11-15_17h12.47.886,vts_reward_expectancy_bt,2022.2.4,MacIntel,60.0024001,Chrome,1440,900,,,l,1.0491,1,190,1,0,0,0,2,1,1,0,0,0,0,0,0,1,triangle,star,,,,,,,,,,,,,,,,,,,,,,,,,,,,,,,,,,,,,,,,,,,,,,,,,,,,,,
297022,2022-11-15_17h12.47.886,vts_reward_expectancy_bt,2022.2.4,MacIntel,60.0024001,Chrome,1440,900,,,a,1.8885,1,191,1,0,1,1,10,1,0,0,0,1,0,1,0,0,star ,circle,,,,,,,,,,,,,,,,,,,,,,,,,,,,,,,,,,,,,,,,,,,,,,,,,,,,,,
297022,2022-11-15_17h12.47.886,vts_reward_expectancy_bt,2022.2.4,MacIntel,60.0024001,Chrome,1440,900,,,a,1.7084,1,192,1,0,2,2,4,1,0,1,0,0,0,0,1,0,circle,hexagon,,,,,,,,,,,,,,,,,,,,,,,,,,,,,,,,,,,,,,,,,,,,,,,,,,,,,,
297022,2022-11-15_17h12.47.886,vts_reward_expectancy_bt,2022.2.4,MacIntel,60.0024001,Chrome,1440,900,,,a,0.8864,10,202,1,0,3,3,8,1,0,0,1,0,0,0,0,1,hexagon,star,,,,,,,,,,,,,,,,,,,,,,,,,,,,,,,,,,,,,,,,,,,,,,,,,,,,,,
297022,2022-11-15_17h12.47.886,vts_reward_expectancy_bt,2022.2.4,MacIntel,60.0024001,Chrome,1440,900,,,l,1.5468,1,203,1,0,4,4,5,1,0,1,0,0,0,0,0,1,circle,star,,,,,,,,,,,,,,,,,,,,,,,,,,,,,,,,,,,,,,,,,,,,,,,,,,,,,,
297022,2022-11-15_17h12.47.886,vts_reward_expectancy_bt,2022.2.4,MacIntel,60.0024001,Chrome,1440,900,,,l,1.7585,1,204,1,0,5,5,11,1,0,0,0,1,0,0,1,0,star,hexagon,,,,,,,,,,,,,,,,,,,,,,,,,,,,,,,,,,,,,,,,,,,,,,,,,,,,,,
297022,2022-11-15_17h12.47.886,vts_reward_expectancy_bt,2022.2.4,MacIntel,60.0024001,Chrome,1440,900,,,l,1.5435,1,205,1,0,6,6,1,1,1,0,0,0,0,0,1,0,triangle,hexagon,,,,,,,,,,,,,,,,,,,,,,,,,,,,,,,,,,,,,,,,,,,,,,,,,,,,,,
297022,2022-11-15_17h12.47.886,vts_reward_expectancy_bt,2022.2.4,MacIntel,60.0024001,Chrome,1440,900,,,a,2.5366,1,206,1,0,7,7,9,1,0,0,0,1,1,0,0,0,star,triangle,,,,,,,,,,,,,,,,,,,,,,,,,,,,,,,,,,,,,,,,,,,,,,,,,,,,,,
297022,2022-11-15_17h12.47.886,vts_reward_expectancy_bt,2022.2.4,MacIntel,60.0024001,Chrome,1440,900,,,a,0.2942,10,216,1,0,8,8,7,1,0,0,1,0,0,1,0,0,hexagon,circle,,,,,,,,,,,,,,,,,,,,,,,,,,,,,,,,,,,,,,,,,,,,,,,,,,,,,,
297022,2022-11-15_17h12.47.886,vts_reward_expectancy_bt,2022.2.4,MacIntel,60.0024001,Chrome,1440,900,,,l,0.7248,10,226,1,0,9,9,0,1,1,0,0,0,0,1,0,0,triangle,circle,,,,,,,,,,,,,,,,,,,,,,,,,,,,,,,,,,,,,,,,,,,,,,,,,,,,,,
297022,2022-11-15_17h12.47.886,vts_reward_expectancy_bt,2022.2.4,MacIntel,60.0024001,Chrome,1440,900,,,l,1.8016,10,236,1,0,10,10,6,1,0,0,1,0,1,0,0,0,hexagon,triangle,,,,,,,,,,,,,,,,,,,,,,,,,,,,,,,,,,,,,,,,,,,,,,,,,,,,,,
297022,2022-11-15_17h12.47.886,vts_reward_expectancy_bt,2022.2.4,MacIntel,60.0024001,Chrome,1440,900,,,a,1.5046,10,246,1,0,11,11,3,1,0,1,0,0,1,0,0,0,circle,triangle,,,,,,,,,,,,,,,,,,,,,,,,,,,,,,,,,,,,,,,,,,,,,,,,,,,,,,
297022,2022-11-15_17h12.47.886,vts_reward_expectancy_bt,2022.2.4,MacIntel,60.0024001,Chrome,1440,900,,,l,2.8748,10,256,1,1,0,12,5,1,0,1,0,0,0,0,0,1,circle,star,,,,,,,,,,,,,,,,,,,,,,,,,,,,,,,,,,,,,,,,,,,,,,,,,,,,,,
297022,2022-11-15_17h12.47.886,vts_reward_expectancy_bt,2022.2.4,MacIntel,60.0024001,Chrome,1440,900,,,a,1.4893,10,266,1,1,1,13,4,1,0,1,0,0,0,0,1,0,circle,hexagon,,,,,,,,,,,,,,,,,,,,,,,,,,,,,,,,,,,,,,,,,,,,,,,,,,,,,,
297022,2022-11-15_17h12.47.886,vts_reward_expectancy_bt,2022.2.4,MacIntel,60.0024001,Chrome,1440,900,,,l,0.7462,10,276,1,1,2,14,8,1,0,0,1,0,0,0,0,1,hexagon,star,,,,,,,,,,,,,,,,,,,,,,,,,,,,,,,,,,,,,,,,,,,,,,,,,,,,,,
297022,2022-11-15_17h12.47.886,vts_reward_expectancy_bt,2022.2.4,MacIntel,60.0024001,Chrome,1440,900,,,a,1.3219,1,277,1,1,3,15,1,1,1,0,0,0,0,0,1,0,triangle,hexagon,,,,,,,,,,,,,,,,,,,,,,,,,,,,,,,,,,,,,,,,,,,,,,,,,,,,,,
297022,2022-11-15_17h12.47.886,vts_reward_expectancy_bt,2022.2.4,MacIntel,60.0024001,Chrome,1440,900,,,l,1.3327,10,287,1,1,4,16,3,1,0,1,0,0,1,0,0,0,circle,triangle,,,,,,,,,,,,,,,,,,,,,,,,,,,,,,,,,,,,,,,,,,,,,,,,,,,,,,
297022,2022-11-15_17h12.47.886,vts_reward_expectancy_bt,2022.2.4,MacIntel,60.0024001,Chrome,1440,900,,,l,1.1191,1,288,1,1,5,17,11,1,0,0,0,1,0,0,1,0,star,hexagon,,,,,,,,,,,,,,,,,,,,,,,,,,,,,,,,,,,,,,,,,,,,,,,,,,,,,,
297022,2022-11-15_17h12.47.886,vts_reward_expectancy_bt,2022.2.4,MacIntel,60.0024001,Chrome,1440,900,,,l,1.0753,1,289,1,1,6,18,0,1,1,0,0,0,0,1,0,0,triangle,circle,,,,,,,,,,,,,,,,,,,,,,,,,,,,,,,,,,,,,,,,,,,,,,,,,,,,,,
297022,2022-11-15_17h12.47.886,vts_reward_expectancy_bt,2022.2.4,MacIntel,60.0024001,Chrome,1440,900,,,l,0.4476,10,299,1,1,7,19,7,1,0,0,1,0,0,1,0,0,hexagon,circle,,,,,,,,,,,,,,,,,,,,,,,,,,,,,,,,,,,,,,,,,,,,,,,,,,,,,,
297022,2022-11-15_17h12.47.886,vts_reward_expectancy_bt,2022.2.4,MacIntel,60.0024001,Chrome,1440,900,,,l,1.8965,10,309,1,1,8,20,6,1,0,0,1,0,1,0,0,0,hexagon,triangle,,,,,,,,,,,,,,,,,,,,,,,,,,,,,,,,,,,,,,,,,,,,,,,,,,,,,,
297022,2022-11-15_17h12.47.886,vts_reward_expectancy_bt,2022.2.4,MacIntel,60.0024001,Chrome,1440,900,,,a,1.276,10,319,1,1,9,21,9,1,0,0,0,1,1,0,0,0,star,triangle,,,,,,,,,,,,,,,,,,,,,,,,,,,,,,,,,,,,,,,,,,,,,,,,,,,,,,
297022,2022-11-15_17h12.47.886,vts_reward_expectancy_bt,2022.2.4,MacIntel,60.0024001,Chrome,1440,900,,,l,0.8724,1,320,1,1,10,22,10,1,0,0,0,1,0,1,0,0,star ,circle,,,,,,,,,,,,,,,,,,,,,,,,,,,,,,,,,,,,,,,,,,,,,,,,,,,,,,
297022,2022-11-15_17h12.47.886,vts_reward_expectancy_bt,2022.2.4,MacIntel,60.0024001,Chrome,1440,900,,,a,2.0014,10,330,1,1,11,23,2,1,1,0,0,0,0,0,0,1,triangle,star,,,,,,,,,,,,,,,,,,,,,,,,,,,,,,,,,,,,,,,,,,,,,,,,,,,,,,
297022,2022-11-15_17h12.47.886,vts_reward_expectancy_bt,2022.2.4,MacIntel,60.0024001,Chrome,1440,900,,,l,0.9743,10,340,1,2,0,24,6,1,0,0,1,0,1,0,0,0,hexagon,triangle,,,,,,,,,,,,,,,,,,,,,,,,,,,,,,,,,,,,,,,,,,,,,,,,,,,,,,
297022,2022-11-15_17h12.47.886,vts_reward_expectancy_bt,2022.2.4,MacIntel,60.0024001,Chrome,1440,900,,,l,0.7389,1,341,1,2,1,25,1,1,1,0,0,0,0,0,1,0,triangle,hexagon,,,,,,,,,,,,,,,,,,,,,,,,,,,,,,,,,,,,,,,,,,,,,,,,,,,,,,
297022,2022-11-15_17h12.47.886,vts_reward_expectancy_bt,2022.2.4,MacIntel,60.0024001,Chrome,1440,900,,,a,2.174,10,351,1,2,2,26,5,1,0,1,0,0,0,0,0,1,circle,star,,,,,,,,,,,,,,,,,,,,,,,,,,,,,,,,,,,,,,,,,,,,,,,,,,,,,,
297022,2022-11-15_17h12.47.886,vts_reward_expectancy_bt,2022.2.4,MacIntel,60.0024001,Chrome,1440,900,,,a,0.595,1,352,1,2,3,27,3,1,0,1,0,0,1,0,0,0,circle,triangle,,,,,,,,,,,,,,,,,,,,,,,,,,,,,,,,,,,,,,,,,,,,,,,,,,,,,,
297022,2022-11-15_17h12.47.886,vts_reward_expectancy_bt,2022.2.4,MacIntel,60.0024001,Chrome,1440,900,,,l,1.3867,1,353,1,2,4,28,2,1,1,0,0,0,0,0,0,1,triangle,star,,,,,,,,,,,,,,,,,,,,,,,,,,,,,,,,,,,,,,,,,,,,,,,,,,,,,,
297022,2022-11-15_17h12.47.886,vts_reward_expectancy_bt,2022.2.4,MacIntel,60.0024001,Chrome,1440,900,,,a,2.7477,1,354,1,2,5,29,9,1,0,0,0,1,1,0,0,0,star,triangle,,,,,,,,,,,,,,,,,,,,,,,,,,,,,,,,,,,,,,,,,,,,,,,,,,,,,,
297022,2022-11-15_17h12.47.886,vts_reward_expectancy_bt,2022.2.4,MacIntel,60.0024001,Chrome,1440,900,,,a,1.375,1,355,1,2,6,30,10,1,0,0,0,1,0,1,0,0,star ,circle,,,,,,,,,,,,,,,,,,,,,,,,,,,,,,,,,,,,,,,,,,,,,,,,,,,,,,
297022,2022-11-15_17h12.47.886,vts_reward_expectancy_bt,2022.2.4,MacIntel,60.0024001,Chrome,1440,900,,,l,0.8969,1,356,1,2,7,31,8,1,0,0,1,0,0,0,0,1,hexagon,star,,,,,,,,,,,,,,,,,,,,,,,,,,,,,,,,,,,,,,,,,,,,,,,,,,,,,,
297022,2022-11-15_17h12.47.886,vts_reward_expectancy_bt,2022.2.4,MacIntel,60.0024001,Chrome,1440,900,,,l,0.7261,1,357,1,2,8,32,4,1,0,1,0,0,0,0,1,0,circle,hexagon,,,,,,,,,,,,,,,,,,,,,,,,,,,,,,,,,,,,,,,,,,,,,,,,,,,,,,
297022,2022-11-15_17h12.47.886,vts_reward_expectancy_bt,2022.2.4,MacIntel,60.0024001,Chrome,1440,900,,,a,0.4346,1,358,1,2,9,33,7,1,0,0,1,0,0,1,0,0,hexagon,circle,,,,,,,,,,,,,,,,,,,,,,,,,,,,,,,,,,,,,,,,,,,,,,,,,,,,,,
297022,2022-11-15_17h12.47.886,vts_reward_expectancy_bt,2022.2.4,MacIntel,60.0024001,Chrome,1440,900,,,a,1.1451,10,368,1,2,10,34,0,1,1,0,0,0,0,1,0,0,triangle,circle,,,,,,,,,,,,,,,,,,,,,,,,,,,,,,,,,,,,,,,,,,,,,,,,,,,,,,
297022,2022-11-15_17h12.47.886,vts_reward_expectancy_bt,2022.2.4,MacIntel,60.0024001,Chrome,1440,900,,,a,2.1204,10,378,1,2,11,35,11,1,0,0,0,1,0,0,1,0,star,hexagon,,,,,,,,,,,,,,,,,,,,,,,,,,,,,,,,,,,,,,,,,,,,,,,,,,,,,,
297022,2022-11-15_17h12.47.886,vts_reward_expectancy_bt,2022.2.4,MacIntel,60.0024001,Chrome,1440,900,,,a,1.2496,1,379,2,0,0,0,11,1,0,0,0,1,0,0,1,0,star,hexagon,,,,,,,,,,,,,,,,,,,,,,,,,,,,,,,,,,,,,,,,,,,,,,,,,,,,,,
297022,2022-11-15_17h12.47.886,vts_reward_expectancy_bt,2022.2.4,MacIntel,60.0024001,Chrome,1440,900,,,a,1.2816,10,389,2,0,1,1,2,1,1,0,0,0,0,0,0,1,triangle,star,,,,,,,,,,,,,,,,,,,,,,,,,,,,,,,,,,,,,,,,,,,,,,,,,,,,,,
297022,2022-11-15_17h12.47.886,vts_reward_expectancy_bt,2022.2.4,MacIntel,60.0024001,Chrome,1440,900,,,a,2.3678,10,399,2,0,2,2,5,1,0,1,0,0,0,0,0,1,circle,star,,,,,,,,,,,,,,,,,,,,,,,,,,,,,,,,,,,,,,,,,,,,,,,,,,,,,,
297022,2022-11-15_17h12.47.886,vts_reward_expectancy_bt,2022.2.4,MacIntel,60.0024001,Chrome,1440,900,,,a,2.1274,1,400,2,0,3,3,3,1,0,1,0,0,1,0,0,0,circle,triangle,,,,,,,,,,,,,,,,,,,,,,,,,,,,,,,,,,,,,,,,,,,,,,,,,,,,,,
297022,2022-11-15_17h12.47.886,vts_reward_expectancy_bt,2022.2.4,MacIntel,60.0024001,Chrome,1440,900,,,l,3.0383,10,410,2,0,4,4,6,1,0,0,1,0,1,0,0,0,hexagon,triangle,,,,,,,,,,,,,,,,,,,,,,,,,,,,,,,,,,,,,,,,,,,,,,,,,,,,,,
297022,2022-11-15_17h12.47.886,vts_reward_expectancy_bt,2022.2.4,MacIntel,60.0024001,Chrome,1440,900,,,a,2.2527,1,411,2,0,5,5,0,1,1,0,0,0,0,1,0,0,triangle,circle,,,,,,,,,,,,,,,,,,,,,,,,,,,,,,,,,,,,,,,,,,,,,,,,,,,,,,
297022,2022-11-15_17h12.47.886,vts_reward_expectancy_bt,2022.2.4,MacIntel,60.0024001,Chrome,1440,900,,,l,2.8838,1,412,2,0,6,6,8,1,0,0,1,0,0,0,0,1,hexagon,star,,,,,,,,,,,,,,,,,,,,,,,,,,,,,,,,,,,,,,,,,,,,,,,,,,,,,,
297022,2022-11-15_17h12.47.886,vts_reward_expectancy_bt,2022.2.4,MacIntel,60.0024001,Chrome,1440,900,,,l,1.3065,10,422,2,0,7,7,1,1,1,0,0,0,0,0,1,0,triangle,hexagon,,,,,,,,,,,,,,,,,,,,,,,,,,,,,,,,,,,,,,,,,,,,,,,,,,,,,,
297022,2022-11-15_17h12.47.886,vts_reward_expectancy_bt,2022.2.4,MacIntel,60.0024001,Chrome,1440,900,,,a,0.8503,1,423,2,0,8,8,7,1,0,0,1,0,0,1,0,0,hexagon,circle,,,,,,,,,,,,,,,,,,,,,,,,,,,,,,,,,,,,,,,,,,,,,,,,,,,,,,
297022,2022-11-15_17h12.47.886,vts_reward_expectancy_bt,2022.2.4,MacIntel,60.0024001,Chrome,1440,900,,,l,2.2575,10,433,2,0,9,9,9,1,0,0,0,1,1,0,0,0,star,triangle,,,,,,,,,,,,,,,,,,,,,,,,,,,,,,,,,,,,,,,,,,,,,,,,,,,,,,
297022,2022-11-15_17h12.47.886,vts_reward_expectancy_bt,2022.2.4,MacIntel,60.0024001,Chrome,1440,900,,,l,1.8346,10,443,2,0,10,10,4,1,0,1,0,0,0,0,1,0,circle,hexagon,,,,,,,,,,,,,,,,,,,,,,,,,,,,,,,,,,,,,,,,,,,,,,,,,,,,,,
297022,2022-11-15_17h12.47.886,vts_reward_expectancy_bt,2022.2.4,MacIntel,60.0024001,Chrome,1440,900,,,a,2.8428,10,453,2,0,11,11,10,1,0,0,0,1,0,1,0,0,star ,circle,,,,,,,,,,,,,,,,,,,,,,,,,,,,,,,,,,,,,,,,,,,,,,,,,,,,,,
297022,2022-11-15_17h12.47.886,vts_reward_expectancy_bt,2022.2.4,MacIntel,60.0024001,Chrome,1440,900,,,a,1.4034,10,463,2,1,0,12,10,1,0,0,0,1,0,1,0,0,star ,circle,,,,,,,,,,,,,,,,,,,,,,,,,,,,,,,,,,,,,,,,,,,,,,,,,,,,,,
297022,2022-11-15_17h12.47.886,vts_reward_expectancy_bt,2022.2.4,MacIntel,60.0024001,Chrome,1440,900,,,l,1.4653,10,473,2,1,1,13,4,1,0,1,0,0,0,0,1,0,circle,hexagon,,,,,,,,,,,,,,,,,,,,,,,,,,,,,,,,,,,,,,,,,,,,,,,,,,,,,,
297022,2022-11-15_17h12.47.886,vts_reward_expectancy_bt,2022.2.4,MacIntel,60.0024001,Chrome,1440,900,,,a,1.2016,1,474,2,1,2,14,6,1,0,0,1,0,1,0,0,0,hexagon,triangle,,,,,,,,,,,,,,,,,,,,,,,,,,,,,,,,,,,,,,,,,,,,,,,,,,,,,,
297022,2022-11-15_17h12.47.886,vts_reward_expectancy_bt,2022.2.4,MacIntel,60.0024001,Chrome,1440,900,,,a,2.2694,1,475,2,1,3,15,9,1,0,0,0,1,1,0,0,0,star,triangle,,,,,,,,,,,,,,,,,,,,,,,,,,,,,,,,,,,,,,,,,,,,,,,,,,,,,,
297022,2022-11-15_17h12.47.886,vts_reward_expectancy_bt,2022.2.4,MacIntel,60.0024001,Chrome,1440,900,,,a,1.4033,1,476,2,1,4,16,3,1,0,1,0,0,1,0,0,0,circle,triangle,,,,,,,,,,,,,,,,,,,,,,,,,,,,,,,,,,,,,,,,,,,,,,,,,,,,,,
297022,2022-11-15_17h12.47.886,vts_reward_expectancy_bt,2022.2.4,MacIntel,60.0024001,Chrome,1440,900,,,l,1.0417,1,477,2,1,5,17,7,1,0,0,1,0,0,1,0,0,hexagon,circle,,,,,,,,,,,,,,,,,,,,,,,,,,,,,,,,,,,,,,,,,,,,,,,,,,,,,,
297022,2022-11-15_17h12.47.886,vts_reward_expectancy_bt,2022.2.4,MacIntel,60.0024001,Chrome,1440,900,,,l,0.8354,1,478,2,1,6,18,1,1,1,0,0,0,0,0,1,0,triangle,hexagon,,,,,,,,,,,,,,,,,,,,,,,,,,,,,,,,,,,,,,,,,,,,,,,,,,,,,,
297022,2022-11-15_17h12.47.886,vts_reward_expectancy_bt,2022.2.4,MacIntel,60.0024001,Chrome,1440,900,,,l,0.4894,1,479,2,1,7,19,2,1,1,0,0,0,0,0,0,1,triangle,star,,,,,,,,,,,,,,,,,,,,,,,,,,,,,,,,,,,,,,,,,,,,,,,,,,,,,,
297022,2022-11-15_17h12.47.886,vts_reward_expectancy_bt,2022.2.4,MacIntel,60.0024001,Chrome,1440,900,,,a,0.4019,10,489,2,1,8,20,8,1,0,0,1,0,0,0,0,1,hexagon,star,,,,,,,,,,,,,,,,,,,,,,,,,,,,,,,,,,,,,,,,,,,,,,,,,,,,,,
297022,2022-11-15_17h12.47.886,vts_reward_expectancy_bt,2022.2.4,MacIntel,60.0024001,Chrome,1440,900,,,l,0.4982,1,490,2,1,9,21,11,1,0,0,0,1,0,0,1,0,star,hexagon,,,,,,,,,,,,,,,,,,,,,,,,,,,,,,,,,,,,,,,,,,,,,,,,,,,,,,
297022,2022-11-15_17h12.47.886,vts_reward_expectancy_bt,2022.2.4,MacIntel,60.0024001,Chrome,1440,900,,,a,0.0059,1,491,2,1,10,22,0,1,1,0,0,0,0,1,0,0,triangle,circle,,,,,,,,,,,,,,,,,,,,,,,,,,,,,,,,,,,,,,,,,,,,,,,,,,,,,,
297022,2022-11-15_17h12.47.886,vts_reward_expectancy_bt,2022.2.4,MacIntel,60.0024001,Chrome,1440,900,,,l,0.0852,1,492,2,1,11,23,5,1,0,1,0,0,0,0,0,1,circle,star,,,,,,,,,,,,,,,,,,,,,,,,,,,,,,,,,,,,,,,,,,,,,,,,,,,,,,
297022,2022-11-15_17h12.47.886,vts_reward_expectancy_bt,2022.2.4,MacIntel,60.0024001,Chrome,1440,900,,,a,0.048,10,502,2,2,0,24,0,1,1,0,0,0,0,1,0,0,triangle,circle,,,,,,,,,,,,,,,,,,,,,,,,,,,,,,,,,,,,,,,,,,,,,,,,,,,,,,
297022,2022-11-15_17h12.47.886,vts_reward_expectancy_bt,2022.2.4,MacIntel,60.0024001,Chrome,1440,900,,,l,0.415,1,503,2,2,1,25,5,1,0,1,0,0,0,0,0,1,circle,star,,,,,,,,,,,,,,,,,,,,,,,,,,,,,,,,,,,,,,,,,,,,,,,,,,,,,,
297022,2022-11-15_17h12.47.886,vts_reward_expectancy_bt,2022.2.4,MacIntel,60.0024001,Chrome,1440,900,,,a,0.3178,1,504,2,2,2,26,7,1,0,0,1,0,0,1,0,0,hexagon,circle,,,,,,,,,,,,,,,,,,,,,,,,,,,,,,,,,,,,,,,,,,,,,,,,,,,,,,
297022,2022-11-15_17h12.47.886,vts_reward_expectancy_bt,2022.2.4,MacIntel,60.0024001,Chrome,1440,900,,,l,0.154,1,505,2,2,3,27,2,1,1,0,0,0,0,0,0,1,triangle,star,,,,,,,,,,,,,,,,,,,,,,,,,,,,,,,,,,,,,,,,,,,,,,,,,,,,,,
297022,2022-11-15_17h12.47.886,vts_reward_expectancy_bt,2022.2.4,MacIntel,60.0024001,Chrome,1440,900,,,a,0.0499,1,506,2,2,4,28,3,1,0,1,0,0,1,0,0,0,circle,triangle,,,,,,,,,,,,,,,,,,,,,,,,,,,,,,,,,,,,,,,,,,,,,,,,,,,,,,
297022,2022-11-15_17h12.47.886,vts_reward_expectancy_bt,2022.2.4,MacIntel,60.0024001,Chrome,1440,900,,,a,0.136,10,516,2,2,5,29,9,1,0,0,0,1,1,0,0,0,star,triangle,,,,,,,,,,,,,,,,,,,,,,,,,,,,,,,,,,,,,,,,,,,,,,,,,,,,,,
297022,2022-11-15_17h12.47.886,vts_reward_expectancy_bt,2022.2.4,MacIntel,60.0024001,Chrome,1440,900,,,l,0.847,1,517,2,2,6,30,4,1,0,1,0,0,0,0,1,0,circle,hexagon,,,,,,,,,,,,,,,,,,,,,,,,,,,,,,,,,,,,,,,,,,,,,,,,,,,,,,
297022,2022-11-15_17h12.47.886,vts_reward_expectancy_bt,2022.2.4,MacIntel,60.0024001,Chrome,1440,900,,,a,0.5341,1,518,2,2,7,31,6,1,0,0,1,0,1,0,0,0,hexagon,triangle,,,,,,,,,,,,,,,,,,,,,,,,,,,,,,,,,,,,,,,,,,,,,,,,,,,,,,
297022,2022-11-15_17h12.47.886,vts_reward_expectancy_bt,2022.2.4,MacIntel,60.0024001,Chrome,1440,900,,,a,0.4639,10,528,2,2,8,32,1,1,1,0,0,0,0,0,1,0,triangle,hexagon,,,,,,,,,,,,,,,,,,,,,,,,,,,,,,,,,,,,,,,,,,,,,,,,,,,,,,
297022,2022-11-15_17h12.47.886,vts_reward_expectancy_bt,2022.2.4,MacIntel,60.0024001,Chrome,1440,900,,,a,0.7788,1,529,2,2,9,33,8,1,0,0,1,0,0,0,0,1,hexagon,star,,,,,,,,,,,,,,,,,,,,,,,,,,,,,,,,,,,,,,,,,,,,,,,,,,,,,,
297022,2022-11-15_17h12.47.886,vts_reward_expectancy_bt,2022.2.4,MacIntel,60.0024001,Chrome,1440,900,,,l,0.5133,1,530,2,2,10,34,11,1,0,0,0,1,0,0,1,0,star,hexagon,,,,,,,,,,,,,,,,,,,,,,,,,,,,,,,,,,,,,,,,,,,,,,,,,,,,,,
297022,2022-11-15_17h12.47.886,vts_reward_expectancy_bt,2022.2.4,MacIntel,60.0024001,Chrome,1440,900,,,a,0.1253,1,531,2,2,11,35,10,1,0,0,0,1,0,1,0,0,star ,circle,,,,,,,,,,,,,,,,,,,,,,,,,,,,,,,,,,,,,,,,,,,,,,,,,,,,,,
297022,2022-11-15_17h12.47.886,vts_reward_expectancy_bt,2022.2.4,MacIntel,60.0024001,Chrome,1440,900,,,,,,,,,,,,,,,,,,,,,,,F,160,triangle,0,0,,0,0,0,0,0,1,,,,,,,,,,,,,,,,,,,,,,,,,,,,,,,,,,,,,,,,,,
297022,2022-11-15_17h12.47.886,vts_reward_expectancy_bt,2022.2.4,MacIntel,60.0024001,Chrome,1440,900,,,,,,,,,,,,,,,,,,,,,,,B,125,hexagon,1,1,d,0,1,0,1,0,1,0.5967,,,,,,,,,,,,,,,,,,,,,,,,,,,,,,,,,,,,,,,,,
297022,2022-11-15_17h12.47.886,vts_reward_expectancy_bt,2022.2.4,MacIntel,60.0024001,Chrome,1440,900,,,,,,,,,,,,,,,,,,,,,,,Y,132,circle,1,0,f,0,2,0,2,0,1,0.71,,,,,,,,,,,,,,,,,,,,,,,,,,,,,,,,,,,,,,,,,
297022,2022-11-15_17h12.47.886,vts_reward_expectancy_bt,2022.2.4,MacIntel,60.0024001,Chrome,1440,900,,,,,,,,,,,,,,,,,,,,,,,W,174,star,1,0,f,0,3,0,3,0,1,0.6931,,,,,,,,,,,,,,,,,,,,,,,,,,,,,,,,,,,,,,,,,
297022,2022-11-15_17h12.47.886,vts_reward_expectancy_bt,2022.2.4,MacIntel,60.0024001,Chrome,1440,900,,,,,,,,,,,,,,,,,,,,,,,D,167,triangle,1,0,d,0,4,0,4,0,1,0.5746,,,,,,,,,,,,,,,,,,,,,,,,,,,,,,,,,,,,,,,,,
297022,2022-11-15_17h12.47.886,vts_reward_expectancy_bt,2022.2.4,MacIntel,60.0024001,Chrome,1440,900,,,,,,,,,,,,,,,,,,,,,,,S,181,hexagon,1,0,f,0,5,0,5,0,1,0.6823,,,,,,,,,,,,,,,,,,,,,,,,,,,,,,,,,,,,,,,,,
297022,2022-11-15_17h12.47.886,vts_reward_expectancy_bt,2022.2.4,MacIntel,60.0024001,Chrome,1440,900,,,,,,,,,,,,,,,,,,,,,,,U,139,circle,1,0,f,0,6,0,6,0,1,0.6649,,,,,,,,,,,,,,,,,,,,,,,,,,,,,,,,,,,,,,,,,
297022,2022-11-15_17h12.47.886,vts_reward_expectancy_bt,2022.2.4,MacIntel,60.0024001,Chrome,1440,900,,,,,,,,,,,,,,,,,,,,,,,H,146,star,1,0,d,0,7,0,7,0,1,0.7494,,,,,,,,,,,,,,,,,,,,,,,,,,,,,,,,,,,,,,,,,
297022,2022-11-15_17h12.47.886,vts_reward_expectancy_bt,2022.2.4,MacIntel,60.0024001,Chrome,1440,900,,,,,,,,,,,,,,,,,,,,,,,F,160,star,1,0,d,0,8,0,8,0,1,0.627,,,,,,,,,,,,,,,,,,,,,,,,,,,,,,,,,,,,,,,,,
297022,2022-11-15_17h12.47.886,vts_reward_expectancy_bt,2022.2.4,MacIntel,60.0024001,Chrome,1440,900,,,,,,,,,,,,,,,,,,,,,,,B,125,circle,1,0,d,0,9,0,9,0,1,0.5585,,,,,,,,,,,,,,,,,,,,,,,,,,,,,,,,,,,,,,,,,
297022,2022-11-15_17h12.47.886,vts_reward_expectancy_bt,2022.2.4,MacIntel,60.0024001,Chrome,1440,900,,,,,,,,,,,,,,,,,,,,,,,D,167,hexagon,1,0,,1,,,,,,,k,1.6239,0,0,0,0,1,,,,,,,,,,,,,,,,,,,,,,,,,,,,,,,,,,
297022,2022-11-15_17h12.47.886,vts_reward_expectancy_bt,2022.2.4,MacIntel,60.0024001,Chrome,1440,900,,,,,,,,,,,,,,,,,,,,,,,B,125,circle,1,0,,1,,,,,,,j,0.887,1,0,1,0,1,,,,,,,,,,,,,,,,,,,,,,,,,,,,,,,,,,
297022,2022-11-15_17h12.47.886,vts_reward_expectancy_bt,2022.2.4,MacIntel,60.0024001,Chrome,1440,900,,,,,,,,,,,,,,,,,,,,,,,S,160,star,1,0,,1,,,,,,,k,0.6875,2,0,2,0,1,,,,,,,,,,,,,,,,,,,,,,,,,,,,,,,,,,
297022,2022-11-15_17h12.47.886,vts_reward_expectancy_bt,2022.2.4,MacIntel,60.0024001,Chrome,1440,900,,,,,,,,,,,,,,,,,,,,,,,H,181,triangle,1,0,,1,,,,,,,k,0.6048,3,0,3,0,1,,,,,,,,,,,,,,,,,,,,,,,,,,,,,,,,,,
297022,2022-11-15_17h12.47.886,vts_reward_expectancy_bt,2022.2.4,MacIntel,60.0024001,Chrome,1440,900,,,,,,,,,,,,,,,,,,,,,,,W,174,hexagon,1,0,,1,,,,,,,k,1.0937,4,0,4,0,1,,,,,,,,,,,,,,,,,,,,,,,,,,,,,,,,,,
297022,2022-11-15_17h12.47.886,vts_reward_expectancy_bt,2022.2.4,MacIntel,60.0024001,Chrome,1440,900,,,,,,,,,,,,,,,,,,,,,,,U,139,circle,1,0,,1,,,,,,,j,0.6694,5,0,5,0,1,,,,,,,,,,,,,,,,,,,,,,,,,,,,,,,,,,
297022,2022-11-15_17h12.47.886,vts_reward_expectancy_bt,2022.2.4,MacIntel,60.0024001,Chrome,1440,900,,,,,,,,,,,,,,,,,,,,,,,Y,132,star,1,0,,1,,,,,,,j,0.596,6,0,6,0,1,,,,,,,,,,,,,,,,,,,,,,,,,,,,,,,,,,
297022,2022-11-15_17h12.47.886,vts_reward_expectancy_bt,2022.2.4,MacIntel,60.0024001,Chrome,1440,900,,,,,,,,,,,,,,,,,,,,,,,F,146,triangle,1,0,,1,,,,,,,j,0.6153,7,0,7,0,1,,,,,,,,,,,,,,,,,,,,,,,,,,,,,,,,,,
297022,2022-11-15_17h12.47.886,vts_reward_expectancy_bt,2022.2.4,MacIntel,60.0024001,Chrome,1440,900,,,,,,,,,,,,,,,,,,,,,,,D,167,triangle,1,0,,1,,,,,,,k,0.8488,8,0,8,0,1,,,,,,,,,,,,,,,,,,,,,,,,,,,,,,,,,,
297022,2022-11-15_17h12.47.886,vts_reward_expectancy_bt,2022.2.4,MacIntel,60.0024001,Chrome,1440,900,,,,,,,,,,,,,,,,,,,,,,,B,125,hexagon,1,0,,1,,,,,,,j,0.6994,9,0,9,0,1,,,,,,,,,,,,,,,,,,,,,,,,,,,,,,,,,,
297022,2022-11-15_17h12.47.886,vts_reward_expectancy_bt,2022.2.4,MacIntel,60.0024001,Chrome,1440,900,,,,,0,531,,,,,,,,,,,,,,,,,H,139,star,0,0,,2,,,,,,,,,,,,,,-1,number,NA,k,1.7806,vtsPrac,0,0,0,0,1,,,,,,,,,,,,,,,,,,,,,,,
297022,2022-11-15_17h12.47.886,vts_reward_expectancy_bt,2022.2.4,MacIntel,60.0024001,Chrome,1440,900,,,,,0,531,,,,,,,,,,,,,,,,,W,181,triangle,1,1,,2,,,,,,,,,,,,,,repeat,number,numRpt,k,1.1315,vtsPrac,1,0,1,0,1,,,,,,,,,,,,,,,,,,,,,,,
297022,2022-11-15_17h12.47.886,vts_reward_expectancy_bt,2022.2.4,MacIntel,60.0024001,Chrome,1440,900,,,,,0,531,,,,,,,,,,,,,,,,,D,125,star,1,0,,2,,,,,,,,,,,,,,repeat,number,numRpt,j,0.5807,vtsPrac,2,0,2,0,1,,,,,,,,,,,,,,,,,,,,,,,
297022,2022-11-15_17h12.47.886,vts_reward_expectancy_bt,2022.2.4,MacIntel,60.0024001,Chrome,1440,900,,,,,0,531,,,,,,,,,,,,,,,,,F,160,triangle,1,0,,2,,,,,,,,,,,,,,switch,letter,lettSwt,d,1.9769,vtsPrac,3,0,3,0,1,,,,,,,,,,,,,,,,,,,,,,,
297022,2022-11-15_17h12.47.886,vts_reward_expectancy_bt,2022.2.4,MacIntel,60.0024001,Chrome,1440,900,,,,,0,531,,,,,,,,,,,,,,,,,H,139,hexagon,1,0,,2,,,,,,,,,,,,,,switch,number,numSwt,j,0.8452,vtsPrac,4,0,4,0,1,,,,,,,,,,,,,,,,,,,,,,,
297022,2022-11-15_17h12.47.886,vts_reward_expectancy_bt,2022.2.4,MacIntel,60.0024001,Chrome,1440,900,,,,,0,531,,,,,,,,,,,,,,,,,W,181,circle,1,0,,2,,,,,,,,,,,,,,switch,letter,lettSwt,f,0.8943,vtsPrac,5,0,5,0,1,,,,,,,,,,,,,,,,,,,,,,,
297022,2022-11-15_17h12.47.886,vts_reward_expectancy_bt,2022.2.4,MacIntel,60.0024001,Chrome,1440,900,,,,,0,531,,,,,,,,,,,,,,,,,D,125,star,1,0,,2,,,,,,,,,,,,,,repeat,letter,lettRpt,d,0.7294,vtsPrac,6,0,6,0,1,,,,,,,,,,,,,,,,,,,,,,,
297022,2022-11-15_17h12.47.886,vts_reward_expectancy_bt,2022.2.4,MacIntel,60.0024001,Chrome,1440,900,,,,,0,531,,,,,,,,,,,,,,,,,F,160,circle,1,0,,2,,,,,,,,,,,,,,switch,number,numSwt,k,0.5611,vtsPrac,7,0,7,0,1,,,,,,,,,,,,,,,,,,,,,,,
297022,2022-11-15_17h12.47.886,vts_reward_expectancy_bt,2022.2.4,MacIntel,60.0024001,Chrome,1440,900,,,,,0,531,,,,,,,,,,,,,,,,,S,181,circle,1,0,,2,,,,,,,,,,,,,,repeat,number,numRpt,k,1.0771,vtsPrac,8,0,8,0,1,,,,,,,,,,,,,,,,,,,,,,,
297022,2022-11-15_17h12.47.886,vts_reward_expectancy_bt,2022.2.4,MacIntel,60.0024001,Chrome,1440,900,,,,,0,531,,,,,,,,,,,,,,,,,H,139,triangle,1,0,,2,,,,,,,,,,,,,,repeat,number,numRpt,j,1.1446,vtsPrac,9,0,9,0,1,,,,,,,,,,,,,,,,,,,,,,,
297022,2022-11-15_17h12.47.886,vts_reward_expectancy_bt,2022.2.4,MacIntel,60.0024001,Chrome,1440,900,,,,,0,531,,,,,,,,,,,,,,,,,Y,174,star,1,0,,2,,,,,,,,,,,,,,repeat,number,numRpt,k,0.6653,vtsPrac,10,0,10,0,1,,,,,,,,,,,,,,,,,,,,,,,
297022,2022-11-15_17h12.47.886,vts_reward_expectancy_bt,2022.2.4,MacIntel,60.0024001,Chrome,1440,900,,,,,0,531,,,,,,,,,,,,,,,,,B,160,circle,1,0,,2,,,,,,,,,,,,,,switch,letter,lettSwt,d,0.6988,vtsPrac,11,0,11,0,1,,,,,,,,,,,,,,,,,,,,,,,
297022,2022-11-15_17h12.47.886,vts_reward_expectancy_bt,2022.2.4,MacIntel,60.0024001,Chrome,1440,900,,,,,0,531,,,,,,,,,,,,,,,,,B,132,star,1,0,,2,,,,,,,,,,,,,,repeat,letter,lettRpt,d,0.53,vtsPrac,12,0,12,0,1,,,,,,,,,,,,,,,,,,,,,,,
297022,2022-11-15_17h12.47.886,vts_reward_expectancy_bt,2022.2.4,MacIntel,60.0024001,Chrome,1440,900,,,,,0,531,,,,,,,,,,,,,,,,,U,181,circle,1,0,,2,,,,,,,,,,,,,,switch,number,numSwt,k,0.9614,vtsPrac,13,0,13,0,1,,,,,,,,,,,,,,,,,,,,,,,
297022,2022-11-15_17h12.47.886,vts_reward_expectancy_bt,2022.2.4,MacIntel,60.0024001,Chrome,1440,900,,,,,0,531,,,,,,,,,,,,,,,,,D,160,star,1,0,,2,,,,,,,,,,,,,,switch,letter,lettSwt,d,0.5003,vtsPrac,14,0,14,0,1,,,,,,,,,,,,,,,,,,,,,,,
297022,2022-11-15_17h12.47.886,vts_reward_expectancy_bt,2022.2.4,MacIntel,60.0024001,Chrome,1440,900,,,,,0,531,,,,,,,,,,,,,,,,,H,167,circle,1,0,,2,,,,,,,,,,,,,,repeat,letter,lettRpt,d,0.7114,vtsPrac,15,0,15,0,1,,,,,,,,,,,,,,,,,,,,,,,
297022,2022-11-15_17h12.47.886,vts_reward_expectancy_bt,2022.2.4,MacIntel,60.0024001,Chrome,1440,900,,,,,0,531,,,,,,,,,,,,,,,,,D,160,triangle,1,0,,2,,,,,,,,,,,,,,switch,number,numSwt,k,0.5818,vtsPrac,16,0,16,0,1,,,,,,,,,,,,,,,,,,,,,,,
297022,2022-11-15_17h12.47.886,vts_reward_expectancy_bt,2022.2.4,MacIntel,60.0024001,Chrome,1440,900,,,,,0,531,,,,,,,,,,,,,,,,,B,146,star,1,0,,2,,,,,,,,,,,,,,switch,letter,lettSwt,d,0.5837,vtsPrac,17,0,17,0,1,,,,,,,,,,,,,,,,,,,,,,,
297022,2022-11-15_17h12.47.886,vts_reward_expectancy_bt,2022.2.4,MacIntel,60.0024001,Chrome,1440,900,,,,,0,531,,,,,,,,,,,,,,,,,S,181,hexagon,1,0,,2,,,,,,,,,,,,,,repeat,letter,lettRpt,f,0.9267,vtsPrac,18,0,18,0,1,,,,,,,,,,,,,,,,,,,,,,,
297022,2022-11-15_17h12.47.886,vts_reward_expectancy_bt,2022.2.4,MacIntel,60.0024001,Chrome,1440,900,,,,,0,531,,,,,,,,,,,,,,,,,F,139,star,1,0,,2,,,,,,,,,,,,,,switch,number,numSwt,j,0.8964,vtsPrac,19,0,19,0,1,,,,,,,,,,,,,,,,,,,,,,,
297022,2022-11-15_17h12.47.886,vts_reward_expectancy_bt,2022.2.4,MacIntel,60.0024001,Chrome,1440,900,,,,,0,531,,,,,,,,,,,,,,,,,Y,174,circle,1,0,,2,,,,,,,,,,,,,,switch,letter,lettSwt,f,0.6315,vtsPrac,20,0,20,0,1,,,,,,,,,,,,,,,,,,,,,,,
297022,2022-11-15_17h12.47.886,vts_reward_expectancy_bt,2022.2.4,MacIntel,60.0024001,Chrome,1440,900,,,,,0,531,,,,,,,,,,,,,,,,,S,146,star,0,0,,2,,,,,,,,,,,,,,switch,number,NA,k,0.8112,vtsPrac,21,0,21,0,1,,,,,,,,,,,,,,,,,,,,,,,
297022,2022-11-15_17h12.47.886,vts_reward_expectancy_bt,2022.2.4,MacIntel,60.0024001,Chrome,1440,900,,,,,0,531,,,,,,,,,,,,,,,,,W,181,star,1,1,,2,,,,,,,,,,,,,,switch,letter,lettSwt,f,1.1708,vtsPrac,22,0,22,0,1,,,,,,,,,,,,,,,,,,,,,,,
297022,2022-11-15_17h12.47.886,vts_reward_expectancy_bt,2022.2.4,MacIntel,60.0024001,Chrome,1440,900,,,,,0,531,,,,,,,,,,,,,,,,,F,160,circle,1,0,,2,,,,,,,,,,,,,,switch,number,numSwt,k,0.8324,vtsPrac,23,0,23,0,1,,,,,,,,,,,,,,,,,,,,,,,
297022,2022-11-15_17h12.47.886,vts_reward_expectancy_bt,2022.2.4,MacIntel,60.0024001,Chrome,1440,900,,,,,0,531,,,,,,,,,,,,,,,,,B,181,star,1,0,,2,,,,,,,,,,,,,,switch,letter,lettSwt,d,0.7789,vtsPrac,24,0,24,0,1,,,,,,,,,,,,,,,,,,,,,,,
297022,2022-11-15_17h12.47.886,vts_reward_expectancy_bt,2022.2.4,MacIntel,60.0024001,Chrome,1440,900,,,,,0,531,,,,,,,,,,,,,,,,,D,160,circle,1,0,,2,,,,,,,,,,,,,,switch,number,numSwt,k,1.427,vtsPrac,25,0,25,0,1,,,,,,,,,,,,,,,,,,,,,,,
297022,2022-11-15_17h12.47.886,vts_reward_expectancy_bt,2022.2.4,MacIntel,60.0024001,Chrome,1440,900,,,,,0,531,,,,,,,,,,,,,,,,,U,146,hexagon,1,0,,2,,,,,,,,,,,,,,repeat,number,numRpt,j,1.2653,vtsPrac,26,0,26,0,1,,,,,,,,,,,,,,,,,,,,,,,
297022,2022-11-15_17h12.47.886,vts_reward_expectancy_bt,2022.2.4,MacIntel,60.0024001,Chrome,1440,900,,,,,0,531,,,,,,,,,,,,,,,,,S,167,circle,1,0,,2,,,,,,,,,,,,,,repeat,number,numRpt,k,1.1485,vtsPrac,27,0,27,0,1,,,,,,,,,,,,,,,,,,,,,,,
297022,2022-11-15_17h12.47.886,vts_reward_expectancy_bt,2022.2.4,MacIntel,60.0024001,Chrome,1440,900,,,,,0,531,,,,,,,,,,,,,,,,,B,160,triangle,1,0,,2,,,,,,,,,,,,,,switch,letter,lettSwt,d,0.5431,vtsPrac,28,0,28,0,1,,,,,,,,,,,,,,,,,,,,,,,
297022,2022-11-15_17h12.47.886,vts_reward_expectancy_bt,2022.2.4,MacIntel,60.0024001,Chrome,1440,900,,,,,0,531,,,,,,,,,,,,,,,,,D,146,circle,1,0,,2,,,,,,,,,,,,,,repeat,letter,lettRpt,d,1.1097,vtsPrac,29,0,29,0,1,,,,,,,,,,,,,,,,,,,,,,,
297022,2022-11-15_17h12.47.886,vts_reward_expectancy_bt,2022.2.4,MacIntel,60.0024001,Chrome,1440,900,,,,,0,531,,,,,,,,,,,,,,,,,Y,167,hexagon,1,0,,2,,,,,,,,,,,,,,repeat,letter,lettRpt,f,0.6951,vtsPrac,30,0,30,0,1,,,,,,,,,,,,,,,,,,,,,,,
297022,2022-11-15_17h12.47.886,vts_reward_expectancy_bt,2022.2.4,MacIntel,60.0024001,Chrome,1440,900,,,,,0,531,,,,,,,,,,,,,,,,,U,139,triangle,1,0,,2,,,,,,,,,,,,,,switch,number,numSwt,j,1.0002,vtsPrac,31,0,31,0,1,,,,,,,,,,,,,,,,,,,,,,,
297022,2022-11-15_17h12.47.886,vts_reward_expectancy_bt,2022.2.4,MacIntel,60.0024001,Chrome,1440,900,,,,,,,,,,,,,,,,,,,,,,,,,,,,,,,,,,,,,,,,,,,,,,,,,,,,,,,,,,,,,,,,,,,,,,,,,,,,
297022,2022-11-15_17h12.47.886,vts_reward_expectancy_bt,2022.2.4,MacIntel,60.0024001,Chrome,1440,900,,,,,,,,,,,,,,,,,,,,,,,,,,,,,,,,,,,,,,,,,,,,,,,,,,,,,,,,,,,,,,,,,,,,,,,,,,,,
297022,2022-11-15_17h12.47.886,vts_reward_expectancy_bt,2022.2.4,MacIntel,60.0024001,Chrome,1440,900,,,,,0,531,,,,,,,,,,,,,,,,,F,139,hexagon,1,0,,,,,,,,,,,,,,,,switch,letter,lettSwt,d,0.9995,noRew,,,,,,0,0,0,0,0,1,,,,,,,,,,,,,,,,,
297022,2022-11-15_17h12.47.886,vts_reward_expectancy_bt,2022.2.4,MacIntel,60.0024001,Chrome,1440,900,,,,,0,531,,,,,,,,,,,,,,,,,S,125,circle,1,0,,,,,,,,,,,,,,,,repeat,letter,lettRpt,f,1.0996,noRew,,,,,,0,1,0,1,0,1,,,,,,,,,,,,,,,,,
297022,2022-11-15_17h12.47.886,vts_reward_expectancy_bt,2022.2.4,MacIntel,60.0024001,Chrome,1440,900,,,,,0,531,,,,,,,,,,,,,,,,,H,132,hexagon,1,0,,,,,,,,,,,,,,,,switch,number,numSwt,j,0.7287,noRew,,,,,,0,2,0,2,0,1,,,,,,,,,,,,,,,,,
297022,2022-11-15_17h12.47.886,vts_reward_expectancy_bt,2022.2.4,MacIntel,60.0024001,Chrome,1440,900,,,,,0,531,,,,,,,,,,,,,,,,,D,146,circle,1,0,,,,,,,,,,,,,,,,repeat,number,numRpt,j,0.7495,noRew,,,,,,0,3,0,3,0,1,,,,,,,,,,,,,,,,,
297022,2022-11-15_17h12.47.886,vts_reward_expectancy_bt,2022.2.4,MacIntel,60.0024001,Chrome,1440,900,,,,,0,531,,,,,,,,,,,,,,,,,F,139,star,1,0,,,,,,,,,,,,,,,,switch,letter,lettSwt,d,1.2113,noRew,,,,,,0,4,0,4,0,1,,,,,,,,,,,,,,,,,
297022,2022-11-15_17h12.47.886,vts_reward_expectancy_bt,2022.2.4,MacIntel,60.0024001,Chrome,1440,900,,,,,0,531,,,,,,,,,,,,,,,,,S,125,triangle,1,0,,,,,,,,,,,,,,,,switch,number,numSwt,j,1.0123,noRew,,,,,,0,5,0,5,0,1,,,,,,,,,,,,,,,,,
297022,2022-11-15_17h12.47.886,vts_reward_expectancy_bt,2022.2.4,MacIntel,60.0024001,Chrome,1440,900,,,,,0,531,,,,,,,,,,,,,,,,,H,132,hexagon,1,0,,,,,,,,,,,,,,,,switch,letter,lettSwt,d,1.0476,noRew,,,,,,0,6,0,6,0,1,,,,,,,,,,,,,,,,,
297022,2022-11-15_17h12.47.886,vts_reward_expectancy_bt,2022.2.4,MacIntel,60.0024001,Chrome,1440,900,,,,,0,531,,,,,,,,,,,,,,,,,D,146,star,1,0,,,,,,,,,,,,,,,,switch,number,numSwt,j,0.7614,noRew,,,,,,0,7,0,7,0,1,,,,,,,,,,,,,,,,,
297022,2022-11-15_17h12.47.886,vts_reward_expectancy_bt,2022.2.4,MacIntel,60.0024001,Chrome,1440,900,,,,,0,531,,,,,,,,,,,,,,,,,U,139,triangle,1,0,,,,,,,,,,,,,,,,switch,letter,lettSwt,f,0.5526,noRew,,,,,,0,8,0,8,0,1,,,,,,,,,,,,,,,,,
297022,2022-11-15_17h12.47.886,vts_reward_expectancy_bt,2022.2.4,MacIntel,60.0024001,Chrome,1440,900,,,,,0,531,,,,,,,,,,,,,,,,,W,146,hexagon,1,0,,,,,,,,,,,,,,,,repeat,letter,lettRpt,f,0.6124,noRew,,,,,,0,9,0,9,0,1,,,,,,,,,,,,,,,,,
297022,2022-11-15_17h12.47.886,vts_reward_expectancy_bt,2022.2.4,MacIntel,60.0024001,Chrome,1440,900,,,,,0,531,,,,,,,,,,,,,,,,,Y,174,circle,1,0,,,,,,,,,,,,,,,,switch,number,numSwt,k,0.6652,noRew,,,,,,0,10,0,10,0,1,,,,,,,,,,,,,,,,,
297022,2022-11-15_17h12.47.886,vts_reward_expectancy_bt,2022.2.4,MacIntel,60.0024001,Chrome,1440,900,,,,,0,531,,,,,,,,,,,,,,,,,F,167,hexagon,1,0,,,,,,,,,,,,,,,,repeat,number,numRpt,k,0.6476,noRew,,,,,,0,11,0,11,0,1,,,,,,,,,,,,,,,,,
297022,2022-11-15_17h12.47.886,vts_reward_expectancy_bt,2022.2.4,MacIntel,60.0024001,Chrome,1440,900,,,,,0,531,,,,,,,,,,,,,,,,,H,167,hexagon,1,0,,,,,,,,,,,,,,,,switch,letter,lettSwt,d,1.783,noRew,,,,,,0,12,0,12,0,1,,,,,,,,,,,,,,,,,
297022,2022-11-15_17h12.47.886,vts_reward_expectancy_bt,2022.2.4,MacIntel,60.0024001,Chrome,1440,900,,,,,0,531,,,,,,,,,,,,,,,,,F,174,circle,1,0,,,,,,,,,,,,,,,,repeat,letter,lettRpt,d,0.722,noRew,,,,,,0,13,0,13,0,1,,,,,,,,,,,,,,,,,
297022,2022-11-15_17h12.47.886,vts_reward_expectancy_bt,2022.2.4,MacIntel,60.0024001,Chrome,1440,900,,,,,0,531,,,,,,,,,,,,,,,,,S,181,hexagon,1,0,,,,,,,,,,,,,,,,repeat,letter,lettRpt,f,1.6313,noRew,,,,,,0,14,0,14,0,1,,,,,,,,,,,,,,,,,
297022,2022-11-15_17h12.47.886,vts_reward_expectancy_bt,2022.2.4,MacIntel,60.0024001,Chrome,1440,900,,,,,0,531,,,,,,,,,,,,,,,,,U,146,triangle,1,0,,,,,,,,,,,,,,,,switch,number,numSwt,j,0.6796,noRew,,,,,,0,15,0,15,0,1,,,,,,,,,,,,,,,,,
297022,2022-11-15_17h12.47.886,vts_reward_expectancy_bt,2022.2.4,MacIntel,60.0024001,Chrome,1440,900,,,,,0,531,,,,,,,,,,,,,,,,,Y,146,hexagon,1,0,,,,,,,,,,,,,,,,repeat,number,numRpt,j,1.6011,noRew,,,,,,0,16,0,16,0,1,,,,,,,,,,,,,,,,,
297022,2022-11-15_17h12.47.886,vts_reward_expectancy_bt,2022.2.4,MacIntel,60.0024001,Chrome,1440,900,,,,,0,531,,,,,,,,,,,,,,,,,D,174,star,1,0,,,,,,,,,,,,,,,,switch,letter,lettSwt,d,0.7803,noRew,,,,,,0,17,0,17,0,1,,,,,,,,,,,,,,,,,
297022,2022-11-15_17h12.47.886,vts_reward_expectancy_bt,2022.2.4,MacIntel,60.0024001,Chrome,1440,900,,,,,0,531,,,,,,,,,,,,,,,,,B,139,hexagon,1,0,,,,,,,,,,,,,,,,switch,number,numSwt,j,1.0643,noRew,,,,,,0,18,0,18,0,1,,,,,,,,,,,,,,,,,
297022,2022-11-15_17h12.47.886,vts_reward_expectancy_bt,2022.2.4,MacIntel,60.0024001,Chrome,1440,900,,,,,0,531,,,,,,,,,,,,,,,,,W,181,star,1,0,,,,,,,,,,,,,,,,repeat,number,numRpt,k,0.6283,noRew,,,,,,0,19,0,19,0,1,,,,,,,,,,,,,,,,,
297022,2022-11-15_17h12.47.886,vts_reward_expectancy_bt,2022.2.4,MacIntel,60.0024001,Chrome,1440,900,,,,,0,531,,,,,,,,,,,,,,,,,D,160,hexagon,1,0,,,,,,,,,,,,,,,,switch,letter,lettSwt,d,0.6804,noRew,,,,,,0,20,0,20,0,1,,,,,,,,,,,,,,,,,
297022,2022-11-15_17h12.47.886,vts_reward_expectancy_bt,2022.2.4,MacIntel,60.0024001,Chrome,1440,900,,,,,0,531,,,,,,,,,,,,,,,,,B,174,circle,1,0,,,,,,,,,,,,,,,,switch,number,numSwt,k,0.6447,noRew,,,,,,0,21,0,21,0,1,,,,,,,,,,,,,,,,,
297022,2022-11-15_17h12.47.886,vts_reward_expectancy_bt,2022.2.4,MacIntel,60.0024001,Chrome,1440,900,,,,,0,531,,,,,,,,,,,,,,,,,W,125,circle,1,0,,,,,,,,,,,,,,,,repeat,number,numRpt,j,0.7279,noRew,,,,,,0,22,0,22,0,1,,,,,,,,,,,,,,,,,
297022,2022-11-15_17h12.47.886,vts_reward_expectancy_bt,2022.2.4,MacIntel,60.0024001,Chrome,1440,900,,,,,0,531,,,,,,,,,,,,,,,,,H,132,triangle,1,0,,,,,,,,,,,,,,,,switch,letter,lettSwt,d,0.6336,noRew,,,,,,0,23,0,23,0,1,,,,,,,,,,,,,,,,,
297022,2022-11-15_17h12.47.886,vts_reward_expectancy_bt,2022.2.4,MacIntel,60.0024001,Chrome,1440,900,,,,,0,531,,,,,,,,,,,,,,,,,F,132,star,1,0,,,,,,,,,,,,,,,,switch,number,numSwt,j,1.1323,noRew,,,,,,0,24,0,24,0,1,,,,,,,,,,,,,,,,,
297022,2022-11-15_17h12.47.886,vts_reward_expectancy_bt,2022.2.4,MacIntel,60.0024001,Chrome,1440,900,,,,,0,531,,,,,,,,,,,,,,,,,D,174,triangle,1,0,,,,,,,,,,,,,,,,repeat,number,numRpt,k,0.6817,noRew,,,,,,0,25,0,25,0,1,,,,,,,,,,,,,,,,,
297022,2022-11-15_17h12.47.886,vts_reward_expectancy_bt,2022.2.4,MacIntel,60.0024001,Chrome,1440,900,,,,,0,531,,,,,,,,,,,,,,,,,W,181,star,1,0,,,,,,,,,,,,,,,,repeat,number,numRpt,k,0.7472,noRew,,,,,,0,26,0,26,0,1,,,,,,,,,,,,,,,,,
297022,2022-11-15_17h12.47.886,vts_reward_expectancy_bt,2022.2.4,MacIntel,60.0024001,Chrome,1440,900,,,,,0,531,,,,,,,,,,,,,,,,,H,125,hexagon,1,0,,,,,,,,,,,,,,,,switch,letter,lettSwt,d,0.6162,noRew,,,,,,0,27,0,27,0,1,,,,,,,,,,,,,,,,,
297022,2022-11-15_17h12.47.886,vts_reward_expectancy_bt,2022.2.4,MacIntel,60.0024001,Chrome,1440,900,,,,,0,531,,,,,,,,,,,,,,,,,B,132,circle,1,0,,,,,,,,,,,,,,,,repeat,letter,lettRpt,d,1.1149,noRew,,,,,,0,28,0,28,0,1,,,,,,,,,,,,,,,,,
297022,2022-11-15_17h12.47.886,vts_reward_expectancy_bt,2022.2.4,MacIntel,60.0024001,Chrome,1440,900,,,,,0,531,,,,,,,,,,,,,,,,,U,139,triangle,1,0,,,,,,,,,,,,,,,,switch,number,numSwt,j,0.8437,noRew,,,,,,0,29,0,29,0,1,,,,,,,,,,,,,,,,,
297022,2022-11-15_17h12.47.886,vts_reward_expectancy_bt,2022.2.4,MacIntel,60.0024001,Chrome,1440,900,,,,,0,531,,,,,,,,,,,,,,,,,S,181,star,1,0,,,,,,,,,,,,,,,,switch,letter,lettSwt,f,0.6562,noRew,,,,,,0,30,0,30,0,1,,,,,,,,,,,,,,,,,
297022,2022-11-15_17h12.47.886,vts_reward_expectancy_bt,2022.2.4,MacIntel,60.0024001,Chrome,1440,900,,,,,0,531,,,,,,,,,,,,,,,,,F,174,circle,1,0,,,,,,,,,,,,,,,,repeat,letter,lettRpt,d,0.8426,noRew,,,,,,0,31,0,31,0,1,,,,,,,,,,,,,,,,,
297022,2022-11-15_17h12.47.886,vts_reward_expectancy_bt,2022.2.4,MacIntel,60.0024001,Chrome,1440,900,,,,,0,531,,,,,,,,,,,,,,,,,S,174,star,1,0,,,,,,,,,,,,,,,,switch,number,numSwt,k,0.7159,noRew,,,,,,0,32,0,32,0,1,,,,,,,,,,,,,,,,,
297022,2022-11-15_17h12.47.886,vts_reward_expectancy_bt,2022.2.4,MacIntel,60.0024001,Chrome,1440,900,,,,,0,531,,,,,,,,,,,,,,,,,D,160,circle,1,0,,,,,,,,,,,,,,,,repeat,number,numRpt,k,1.8452,noRew,,,,,,0,33,0,33,0,1,,,,,,,,,,,,,,,,,
297022,2022-11-15_17h12.47.886,vts_reward_expectancy_bt,2022.2.4,MacIntel,60.0024001,Chrome,1440,900,,,,,0,531,,,,,,,,,,,,,,,,,F,167,hexagon,1,0,,,,,,,,,,,,,,,,switch,letter,lettSwt,d,1.6105,noRew,,,,,,0,34,0,34,0,1,,,,,,,,,,,,,,,,,
297022,2022-11-15_17h12.47.886,vts_reward_expectancy_bt,2022.2.4,MacIntel,60.0024001,Chrome,1440,900,,,,,0,531,,,,,,,,,,,,,,,,,W,125,star,1,0,,,,,,,,,,,,,,,,repeat,letter,lettRpt,f,0.8668,noRew,,,,,,0,35,0,35,0,1,,,,,,,,,,,,,,,,,
297022,2022-11-15_17h12.47.886,vts_reward_expectancy_bt,2022.2.4,MacIntel,60.0024001,Chrome,1440,900,,,,,0,531,,,,,,,,,,,,,,,,,S,139,star,1,0,,,,,,,,,,,,,,,,repeat,letter,lettRpt,f,0.8004,noRew,,,,,,0,36,0,36,0,1,,,,,,,,,,,,,,,,,
297022,2022-11-15_17h12.47.886,vts_reward_expectancy_bt,2022.2.4,MacIntel,60.0024001,Chrome,1440,900,,,,,0,531,,,,,,,,,,,,,,,,,B,160,triangle,1,0,,,,,,,,,,,,,,,,switch,number,numSwt,k,0.6435,noRew,,,,,,0,37,0,37,0,1,,,,,,,,,,,,,,,,,
297022,2022-11-15_17h12.47.886,vts_reward_expectancy_bt,2022.2.4,MacIntel,60.0024001,Chrome,1440,900,,,,,0,531,,,,,,,,,,,,,,,,,U,146,triangle,1,0,,,,,,,,,,,,,,,,switch,letter,lettSwt,f,1.1604,noRew,,,,,,0,38,0,38,0,1,,,,,,,,,,,,,,,,,
297022,2022-11-15_17h12.47.886,vts_reward_expectancy_bt,2022.2.4,MacIntel,60.0024001,Chrome,1440,900,,,,,0,531,,,,,,,,,,,,,,,,,H,125,star,1,0,,,,,,,,,,,,,,,,switch,number,numSwt,j,1.5032,noRew,,,,,,0,39,0,39,0,1,,,,,,,,,,,,,,,,,
297022,2022-11-15_17h12.47.886,vts_reward_expectancy_bt,2022.2.4,MacIntel,60.0024001,Chrome,1440,900,,,,,0,531,,,,,,,,,,,,,,,,,B,174,hexagon,1,0,,,,,,,,,,,,,,,,switch,letter,lettSwt,d,0.5857,noRew,,,,,,0,40,0,40,0,1,,,,,,,,,,,,,,,,,
297022,2022-11-15_17h12.47.886,vts_reward_expectancy_bt,2022.2.4,MacIntel,60.0024001,Chrome,1440,900,,,,,0,531,,,,,,,,,,,,,,,,,Y,125,triangle,1,0,,,,,,,,,,,,,,,,repeat,letter,lettRpt,f,1.1452,noRew,,,,,,0,41,0,41,0,1,,,,,,,,,,,,,,,,,
297022,2022-11-15_17h12.47.886,vts_reward_expectancy_bt,2022.2.4,MacIntel,60.0024001,Chrome,1440,900,,,,,0,531,,,,,,,,,,,,,,,,,U,146,hexagon,1,0,,,,,,,,,,,,,,,,switch,number,numSwt,j,0.7331,noRew,,,,,,0,42,0,42,0,1,,,,,,,,,,,,,,,,,
297022,2022-11-15_17h12.47.886,vts_reward_expectancy_bt,2022.2.4,MacIntel,60.0024001,Chrome,1440,900,,,,,0,531,,,,,,,,,,,,,,,,,S,181,circle,1,0,,,,,,,,,,,,,,,,repeat,number,numRpt,k,0.6132,noRew,,,,,,0,43,0,43,0,1,,,,,,,,,,,,,,,,,
297022,2022-11-15_17h12.47.886,vts_reward_expectancy_bt,2022.2.4,MacIntel,60.0024001,Chrome,1440,900,,,,,0,531,,,,,,,,,,,,,,,,,D,146,triangle,1,0,,,,,,,,,,,,,,,,switch,letter,lettSwt,d,0.5525,noRew,,,,,,0,44,0,44,0,1,,,,,,,,,,,,,,,,,
297022,2022-11-15_17h12.47.886,vts_reward_expectancy_bt,2022.2.4,MacIntel,60.0024001,Chrome,1440,900,,,,,0,531,,,,,,,,,,,,,,,,,H,160,hexagon,1,0,,,,,,,,,,,,,,,,switch,number,numSwt,k,0.5369,noRew,,,,,,0,45,0,45,0,1,,,,,,,,,,,,,,,,,
297022,2022-11-15_17h12.47.886,vts_reward_expectancy_bt,2022.2.4,MacIntel,60.0024001,Chrome,1440,900,,,,,0,531,,,,,,,,,,,,,,,,,Y,125,hexagon,1,0,,,,,,,,,,,,,,,,repeat,number,numRpt,j,0.6017,noRew,,,,,,0,46,0,46,0,1,,,,,,,,,,,,,,,,,
297022,2022-11-15_17h12.47.886,vts_reward_expectancy_bt,2022.2.4,MacIntel,60.0024001,Chrome,1440,900,,,,,0,531,,,,,,,,,,,,,,,,,S,167,circle,1,0,,,,,,,,,,,,,,,,switch,letter,lettSwt,f,0.5659,noRew,,,,,,0,47,0,47,0,1,,,,,,,,,,,,,,,,,
297022,2022-11-15_17h12.47.886,vts_reward_expectancy_bt,2022.2.4,MacIntel,60.0024001,Chrome,1440,900,,,,,0,531,,,,,,,,,,,,,,,,,W,181,circle,1,0,,,,,,,,,,,,,,,,switch,number,numSwt,k,0.6385,noRew,,,,,,0,48,0,48,0,1,,,,,,,,,,,,,,,,,
297022,2022-11-15_17h12.47.886,vts_reward_expectancy_bt,2022.2.4,MacIntel,60.0024001,Chrome,1440,900,,,,,0,531,,,,,,,,,,,,,,,,,Y,167,triangle,1,0,,,,,,,,,,,,,,,,repeat,number,numRpt,k,0.9796,noRew,,,,,,0,49,0,49,0,1,,,,,,,,,,,,,,,,,
297022,2022-11-15_17h12.47.886,vts_reward_expectancy_bt,2022.2.4,MacIntel,60.0024001,Chrome,1440,900,,,,,0,531,,,,,,,,,,,,,,,,,S,174,circle,1,0,,,,,,,,,,,,,,,,switch,letter,lettSwt,f,0.6201,noRew,,,,,,0,50,0,50,0,1,,,,,,,,,,,,,,,,,
297022,2022-11-15_17h12.47.886,vts_reward_expectancy_bt,2022.2.4,MacIntel,60.0024001,Chrome,1440,900,,,,,0,531,,,,,,,,,,,,,,,,,D,125,star,1,0,,,,,,,,,,,,,,,,repeat,letter,lettRpt,d,0.9487,noRew,,,,,,0,51,0,51,0,1,,,,,,,,,,,,,,,,,
297022,2022-11-15_17h12.47.886,vts_reward_expectancy_bt,2022.2.4,MacIntel,60.0024001,Chrome,1440,900,,,,,0,531,,,,,,,,,,,,,,,,,Y,167,hexagon,1,0,,,,,,,,,,,,,,,,switch,number,numSwt,k,0.6608,noRew,,,,,,0,52,0,52,0,1,,,,,,,,,,,,,,,,,
297022,2022-11-15_17h12.47.886,vts_reward_expectancy_bt,2022.2.4,MacIntel,60.0024001,Chrome,1440,900,,,,,0,531,,,,,,,,,,,,,,,,,U,146,triangle,1,0,,,,,,,,,,,,,,,,switch,letter,lettSwt,f,0.7943,noRew,,,,,,0,53,0,53,0,1,,,,,,,,,,,,,,,,,
297022,2022-11-15_17h12.47.886,vts_reward_expectancy_bt,2022.2.4,MacIntel,60.0024001,Chrome,1440,900,,,,,0,531,,,,,,,,,,,,,,,,,W,139,hexagon,1,0,,,,,,,,,,,,,,,,repeat,letter,lettRpt,f,1.1865,noRew,,,,,,0,54,0,54,0,1,,,,,,,,,,,,,,,,,
297022,2022-11-15_17h12.47.886,vts_reward_expectancy_bt,2022.2.4,MacIntel,60.0024001,Chrome,1440,900,,,,,0,531,,,,,,,,,,,,,,,,,F,181,triangle,1,0,,,,,,,,,,,,,,,,repeat,letter,lettRpt,d,0.6819,noRew,,,,,,0,55,0,55,0,1,,,,,,,,,,,,,,,,,
297022,2022-11-15_17h12.47.886,vts_reward_expectancy_bt,2022.2.4,MacIntel,60.0024001,Chrome,1440,900,,,,,0,531,,,,,,,,,,,,,,,,,B,132,hexagon,1,0,,,,,,,,,,,,,,,,switch,number,numSwt,j,1.0298,noRew,,,,,,0,56,0,56,0,1,,,,,,,,,,,,,,,,,
297022,2022-11-15_17h12.47.886,vts_reward_expectancy_bt,2022.2.4,MacIntel,60.0024001,Chrome,1440,900,,,,,0,531,,,,,,,,,,,,,,,,,W,181,triangle,1,0,,,,,,,,,,,,,,,,repeat,number,numRpt,k,0.7606,noRew,,,,,,0,57,0,57,0,1,,,,,,,,,,,,,,,,,
297022,2022-11-15_17h12.47.886,vts_reward_expectancy_bt,2022.2.4,MacIntel,60.0024001,Chrome,1440,900,,,,,0,531,,,,,,,,,,,,,,,,,U,139,circle,1,0,,,,,,,,,,,,,,,,repeat,number,numRpt,j,1.3275,noRew,,,,,,0,58,0,58,0,1,,,,,,,,,,,,,,,,,
297022,2022-11-15_17h12.47.886,vts_reward_expectancy_bt,2022.2.4,MacIntel,60.0024001,Chrome,1440,900,,,,,0,531,,,,,,,,,,,,,,,,,Y,125,star,1,0,,,,,,,,,,,,,,,,switch,letter,lettSwt,f,1.1517,noRew,,,,,,0,59,0,59,0,1,,,,,,,,,,,,,,,,,
297022,2022-11-15_17h12.47.886,vts_reward_expectancy_bt,2022.2.4,MacIntel,60.0024001,Chrome,1440,900,,,,,0,531,,,,,,,,,,,,,,,,,Y,125,triangle,1,0,,,,,,,,,,,,,,,,repeat,letter,lettRpt,f,1.1695,noRew,,,,,,0,60,0,60,0,1,,,,,,,,,,,,,,,,,
297022,2022-11-15_17h12.47.886,vts_reward_expectancy_bt,2022.2.4,MacIntel,60.0024001,Chrome,1440,900,,,,,0,531,,,,,,,,,,,,,,,,,B,167,star,1,0,,,,,,,,,,,,,,,,switch,number,numSwt,k,0.6454,noRew,,,,,,0,61,0,61,0,1,,,,,,,,,,,,,,,,,
297022,2022-11-15_17h12.47.886,vts_reward_expectancy_bt,2022.2.4,MacIntel,60.0024001,Chrome,1440,900,,,,,0,531,,,,,,,,,,,,,,,,,U,132,circle,1,0,,,,,,,,,,,,,,,,switch,letter,lettSwt,f,1.2119,noRew,,,,,,0,62,0,62,0,1,,,,,,,,,,,,,,,,,
297022,2022-11-15_17h12.47.886,vts_reward_expectancy_bt,2022.2.4,MacIntel,60.0024001,Chrome,1440,900,,,,,0,531,,,,,,,,,,,,,,,,,H,139,hexagon,1,0,,,,,,,,,,,,,,,,switch,number,numSwt,j,0.6472,noRew,,,,,,0,63,0,63,0,1,,,,,,,,,,,,,,,,,
297022,2022-11-15_17h12.47.886,vts_reward_expectancy_bt,2022.2.4,MacIntel,60.0024001,Chrome,1440,900,,,,,,,,,,,,,,,,,,,,,,,,,,,,,,,,,,,,,,,,,,,,,,,,,,,,,,,,,,,,,,,,,,,,,,,,,,,,
297022,2022-11-15_17h12.47.886,vts_reward_expectancy_bt,2022.2.4,MacIntel,60.0024001,Chrome,1440,900,,,,,1,532,,,,,,,,,,,,,,,,,D,167,star,1,0,,,,,,,,,,,,,,,,switch,letter,lettSwt,d,1.1929,Lo,,,,,,0,,,,,,space,8.6252,low,0,0,0,0,1,,,,,,,,,
297022,2022-11-15_17h12.47.886,vts_reward_expectancy_bt,2022.2.4,MacIntel,60.0024001,Chrome,1440,900,,,,,0,532,,,,,,,,,,,,,,,,,U,181,circle,1,0,,,,,,,,,,,,,,,,switch,number,numSwt,k,1.1432,Hi,,,,,,0,,,,,,,,low,1,0,1,0,1,,,,,,,,,
297022,2022-11-15_17h12.47.886,vts_reward_expectancy_bt,2022.2.4,MacIntel,60.0024001,Chrome,1440,900,,,,,0,532,,,,,,,,,,,,,,,,,F,125,triangle,1,0,,,,,,,,,,,,,,,,repeat,number,numRpt,j,0.6959,Hi,,,,,,0,,,,,,,,low,2,0,2,0,1,,,,,,,,,
297022,2022-11-15_17h12.47.886,vts_reward_expectancy_bt,2022.2.4,MacIntel,60.0024001,Chrome,1440,900,,,,,10,542,,,,,,,,,,,,,,,,,B,139,hexagon,1,0,,,,,,,,,,,,,,,,repeat,number,numRpt,j,0.5255,Lo,,,,,,0,,,,,,,,low,3,0,3,0,1,,,,,,,,,
297022,2022-11-15_17h12.47.886,vts_reward_expectancy_bt,2022.2.4,MacIntel,60.0024001,Chrome,1440,900,,,,,0,542,,,,,,,,,,,,,,,,,H,132,star,0,0,,,,,,,,,,,,,,,,switch,letter,NA,f,0.5447,Lo,,,,,,0,,,,,,,,low,4,0,4,0,1,,,,,,,,,
297022,2022-11-15_17h12.47.886,vts_reward_expectancy_bt,2022.2.4,MacIntel,60.0024001,Chrome,1440,900,,,,,10,552,,,,,,,,,,,,,,,,,Y,146,circle,1,1,,,,,,,,,,,,,,,,repeat,letter,lettRpt,f,0.3971,Hi,,,,,,0,,,,,,,,low,5,0,5,0,1,,,,,,,,,
297022,2022-11-15_17h12.47.886,vts_reward_expectancy_bt,2022.2.4,MacIntel,60.0024001,Chrome,1440,900,,,,,1,553,,,,,,,,,,,,,,,,,S,174,triangle,1,0,,,,,,,,,,,,,,,,switch,number,numSwt,k,0.4646,Hi,,,,,,0,,,,,,,,low,6,0,6,0,1,,,,,,,,,
297022,2022-11-15_17h12.47.886,vts_reward_expectancy_bt,2022.2.4,MacIntel,60.0024001,Chrome,1440,900,,,,,1,554,,,,,,,,,,,,,,,,,W,160,hexagon,1,0,,,,,,,,,,,,,,,,repeat,number,numRpt,k,0.4941,Lo,,,,,,0,,,,,,,,low,7,0,7,0,1,,,,,,,,,
297022,2022-11-15_17h12.47.886,vts_reward_expectancy_bt,2022.2.4,MacIntel,60.0024001,Chrome,1440,900,,,,,10,564,,,,,,,,,,,,,,,,,D,167,circle,1,0,,,,,,,,,,,,,,,,repeat,number,numRpt,k,0.5616,Hi,,,,,,0,,,,,,,,low,8,0,8,0,1,,,,,,,,,
297022,2022-11-15_17h12.47.886,vts_reward_expectancy_bt,2022.2.4,MacIntel,60.0024001,Chrome,1440,900,,,,,10,574,,,,,,,,,,,,,,,,,U,181,hexagon,1,0,,,,,,,,,,,,,,,,switch,letter,lettSwt,f,0.598,Lo,,,,,,0,,,,,,,,low,9,0,9,0,1,,,,,,,,,
297022,2022-11-15_17h12.47.886,vts_reward_expectancy_bt,2022.2.4,MacIntel,60.0024001,Chrome,1440,900,,,,,10,584,,,,,,,,,,,,,,,,,F,125,triangle,1,0,,,,,,,,,,,,,,,,repeat,letter,lettRpt,d,0.5881,Hi,,,,,,0,,,,,,,,low,10,0,10,0,1,,,,,,,,,
297022,2022-11-15_17h12.47.886,vts_reward_expectancy_bt,2022.2.4,MacIntel,60.0024001,Chrome,1440,900,,,,,10,594,,,,,,,,,,,,,,,,,B,139,star,1,0,,,,,,,,,,,,,,,,switch,number,numSwt,j,0.5633,Lo,,,,,,0,,,,,,,,low,11,0,11,0,1,,,,,,,,,
297022,2022-11-15_17h12.47.886,vts_reward_expectancy_bt,2022.2.4,MacIntel,60.0024001,Chrome,1440,900,,,,,1,595,,,,,,,,,,,,,,,,,H,132,circle,1,0,,,,,,,,,,,,,,,,repeat,number,numRpt,j,0.6774,Hi,,,,,,0,,,,,,,,low,12,0,12,0,1,,,,,,,,,
297022,2022-11-15_17h12.47.886,vts_reward_expectancy_bt,2022.2.4,MacIntel,60.0024001,Chrome,1440,900,,,,,10,605,,,,,,,,,,,,,,,,,Y,146,hexagon,1,0,,,,,,,,,,,,,,,,switch,letter,lettSwt,f,0.4168,Lo,,,,,,0,,,,,,,,low,13,0,13,0,1,,,,,,,,,
297022,2022-11-15_17h12.47.886,vts_reward_expectancy_bt,2022.2.4,MacIntel,60.0024001,Chrome,1440,900,,,,,10,615,,,,,,,,,,,,,,,,,S,174,star,1,0,,,,,,,,,,,,,,,,repeat,letter,lettRpt,f,0.5784,Lo,,,,,,0,,,,,,,,low,14,0,14,0,1,,,,,,,,,
297022,2022-11-15_17h12.47.886,vts_reward_expectancy_bt,2022.2.4,MacIntel,60.0024001,Chrome,1440,900,,,,,10,625,,,,,,,,,,,,,,,,,W,160,triangle,1,0,,,,,,,,,,,,,,,,switch,number,numSwt,k,0.4375,Hi,,,,,,0,,,,,,,,low,15,0,15,0,1,,,,,,,,,
297022,2022-11-15_17h12.47.886,vts_reward_expectancy_bt,2022.2.4,MacIntel,60.0024001,Chrome,1440,900,,,,,10,635,,,,,,,,,,,,,,,,,U,146,circle,1,0,,,,,,,,,,,,,,,,repeat,number,numRpt,j,0.4813,Hi,,,,,,0,,,,,,,,low,16,0,16,0,1,,,,,,,,,
297022,2022-11-15_17h12.47.886,vts_reward_expectancy_bt,2022.2.4,MacIntel,60.0024001,Chrome,1440,900,,,,,10,645,,,,,,,,,,,,,,,,,S,174,star,1,0,,,,,,,,,,,,,,,,repeat,number,numRpt,k,0.4761,Lo,,,,,,0,,,,,,,,low,17,0,17,0,1,,,,,,,,,
297022,2022-11-15_17h12.47.886,vts_reward_expectancy_bt,2022.2.4,MacIntel,60.0024001,Chrome,1440,900,,,,,10,655,,,,,,,,,,,,,,,,,W,167,triangle,1,0,,,,,,,,,,,,,,,,switch,letter,lettSwt,f,0.6057,Hi,,,,,,0,,,,,,,,low,18,0,18,0,1,,,,,,,,,
297022,2022-11-15_17h12.47.886,vts_reward_expectancy_bt,2022.2.4,MacIntel,60.0024001,Chrome,1440,900,,,,,1,656,,,,,,,,,,,,,,,,,B,132,hexagon,1,0,,,,,,,,,,,,,,,,repeat,letter,lettRpt,d,0.5383,Lo,,,,,,0,,,,,,,,low,19,0,19,0,1,,,,,,,,,
297022,2022-11-15_17h12.47.886,vts_reward_expectancy_bt,2022.2.4,MacIntel,60.0024001,Chrome,1440,900,,,,,0,656,,,,,,,,,,,,,,,,,H,125,circle,0,0,,,,,,,,,,,,,,,,repeat,letter,NA,f,0.5438,Lo,,,,,,0,,,,,,,,low,20,0,20,0,1,,,,,,,,,
297022,2022-11-15_17h12.47.886,vts_reward_expectancy_bt,2022.2.4,MacIntel,60.0024001,Chrome,1440,900,,,,,1,657,,,,,,,,,,,,,,,,,Y,181,hexagon,1,1,,,,,,,,,,,,,,,,switch,number,numSwt,k,0.5208,Lo,,,,,,0,,,,,,,,low,21,0,21,0,1,,,,,,,,,
297022,2022-11-15_17h12.47.886,vts_reward_expectancy_bt,2022.2.4,MacIntel,60.0024001,Chrome,1440,900,,,,,0,657,,,,,,,,,,,,,,,,,F,139,star,0,0,,,,,,,,,,,,,,,,switch,letter,NA,f,0.4647,Lo,,,,,,0,,,,,,,,low,22,0,22,0,1,,,,,,,,,
297022,2022-11-15_17h12.47.886,vts_reward_expectancy_bt,2022.2.4,MacIntel,60.0024001,Chrome,1440,900,,,,,1,658,,,,,,,,,,,,,,,,,D,160,triangle,1,1,,,,,,,,,,,,,,,,repeat,letter,lettRpt,d,0.5849,Hi,,,,,,0,,,,,,,,low,23,0,23,0,1,,,,,,,,,
297022,2022-11-15_17h12.47.886,vts_reward_expectancy_bt,2022.2.4,MacIntel,60.0024001,Chrome,1440,900,,,,,10,668,,,,,,,,,,,,,,,,,Y,132,triangle,1,0,,,,,,,,,,,,,,,,switch,number,numSwt,j,0.5023,Hi,,,,,,0,,,,,,,,low,24,0,24,0,1,,,,,,,,,
297022,2022-11-15_17h12.47.886,vts_reward_expectancy_bt,2022.2.4,MacIntel,60.0024001,Chrome,1440,900,,,,,1,669,,,,,,,,,,,,,,,,,H,160,circle,1,0,,,,,,,,,,,,,,,,switch,letter,lettSwt,d,0.5491,Hi,,,,,,0,,,,,,,,low,25,0,25,0,1,,,,,,,,,
297022,2022-11-15_17h12.47.886,vts_reward_expectancy_bt,2022.2.4,MacIntel,60.0024001,Chrome,1440,900,,,,,1,670,,,,,,,,,,,,,,,,,S,181,hexagon,1,0,,,,,,,,,,,,,,,,switch,number,numSwt,k,0.4793,Lo,,,,,,0,,,,,,,,low,26,0,26,0,1,,,,,,,,,
297022,2022-11-15_17h12.47.886,vts_reward_expectancy_bt,2022.2.4,MacIntel,60.0024001,Chrome,1440,900,,,,,10,680,,,,,,,,,,,,,,,,,W,139,star,1,0,,,,,,,,,,,,,,,,repeat,number,numRpt,j,1.1191,Lo,,,,,,0,,,,,,,,low,27,0,27,0,1,,,,,,,,,
297022,2022-11-15_17h12.47.886,vts_reward_expectancy_bt,2022.2.4,MacIntel,60.0024001,Chrome,1440,900,,,,,0,680,,,,,,,,,,,,,,,,,F,125,triangle,1,0,,,,,,,,,,,,,,,,switch,letter,lettSwt,d,0.6434,Hi,,,,,,0,,,,,,,,low,28,0,28,0,1,,,,,,,,,
297022,2022-11-15_17h12.47.886,vts_reward_expectancy_bt,2022.2.4,MacIntel,60.0024001,Chrome,1440,900,,,,,1,681,,,,,,,,,,,,,,,,,D,174,star,1,0,,,,,,,,,,,,,,,,repeat,letter,lettRpt,d,0.5362,Lo,,,,,,0,,,,,,,,low,29,0,29,0,1,,,,,,,,,
297022,2022-11-15_17h12.47.886,vts_reward_expectancy_bt,2022.2.4,MacIntel,60.0024001,Chrome,1440,900,,,,,0,681,,,,,,,,,,,,,,,,,U,146,hexagon,0,0,,,,,,,,,,,,,,,,switch,number,NA,k,0.4986,Lo,,,,,,0,,,,,,,,low,30,0,30,0,1,,,,,,,,,
297022,2022-11-15_17h12.47.886,vts_reward_expectancy_bt,2022.2.4,MacIntel,60.0024001,Chrome,1440,900,,,,,1,682,,,,,,,,,,,,,,,,,B,167,circle,1,1,,,,,,,,,,,,,,,,switch,letter,lettSwt,d,0.4901,Hi,,,,,,0,,,,,,,,low,31,0,31,0,1,,,,,,,,,
297022,2022-11-15_17h12.47.886,vts_reward_expectancy_bt,2022.2.4,MacIntel,60.0024001,Chrome,1440,900,,,,,10,692,,,,,,,,,,,,,,,,,D,167,star,1,0,,,,,,,,,,,,,,,,switch,number,numSwt,k,0.4649,Lo,,,,,,1,,,,,,space,1.1416,low,0,0,0,0,1,,,,,,,,,
297022,2022-11-15_17h12.47.886,vts_reward_expectancy_bt,2022.2.4,MacIntel,60.0024001,Chrome,1440,900,,,,,10,702,,,,,,,,,,,,,,,,,U,160,triangle,1,0,,,,,,,,,,,,,,,,repeat,number,numRpt,k,0.4453,Hi,,,,,,1,,,,,,,,low,1,0,1,0,1,,,,,,,,,
297022,2022-11-15_17h12.47.886,vts_reward_expectancy_bt,2022.2.4,MacIntel,60.0024001,Chrome,1440,900,,,,,0,702,,,,,,,,,,,,,,,,,S,146,hexagon,0,0,,,,,,,,,,,,,,,,switch,letter,NA,d,0.3697,Hi,,,,,,1,,,,,,,,low,2,0,2,0,1,,,,,,,,,
297022,2022-11-15_17h12.47.886,vts_reward_expectancy_bt,2022.2.4,MacIntel,60.0024001,Chrome,1440,900,,,,,10,712,,,,,,,,,,,,,,,,,Y,132,circle,1,1,,,,,,,,,,,,,,,,repeat,letter,lettRpt,f,0.5123,Hi,,,,,,1,,,,,,,,low,3,0,3,0,1,,,,,,,,,
297022,2022-11-15_17h12.47.886,vts_reward_expectancy_bt,2022.2.4,MacIntel,60.0024001,Chrome,1440,900,,,,,1,713,,,,,,,,,,,,,,,,,W,139,star,1,0,,,,,,,,,,,,,,,,switch,number,numSwt,j,0.5939,Lo,,,,,,1,,,,,,,,low,4,0,4,0,1,,,,,,,,,
297022,2022-11-15_17h12.47.886,vts_reward_expectancy_bt,2022.2.4,MacIntel,60.0024001,Chrome,1440,900,,,,,10,723,,,,,,,,,,,,,,,,,B,125,triangle,1,0,,,,,,,,,,,,,,,,switch,letter,lettSwt,d,0.4989,Hi,,,,,,1,,,,,,,,low,5,0,5,0,1,,,,,,,,,
297022,2022-11-15_17h12.47.886,vts_reward_expectancy_bt,2022.2.4,MacIntel,60.0024001,Chrome,1440,900,,,,,1,724,,,,,,,,,,,,,,,,,F,174,hexagon,1,0,,,,,,,,,,,,,,,,switch,number,numSwt,k,0.5809,Lo,,,,,,1,,,,,,,,low,6,0,6,0,1,,,,,,,,,
297022,2022-11-15_17h12.47.886,vts_reward_expectancy_bt,2022.2.4,MacIntel,60.0024001,Chrome,1440,900,,,,,0,724,,,,,,,,,,,,,,,,,H,181,circle,1,0,,,,,,,,,,,,,,,,repeat,number,numRpt,k,0.5649,Hi,,,,,,1,,,,,,,,low,7,0,7,0,1,,,,,,,,,
297022,2022-11-15_17h12.47.886,vts_reward_expectancy_bt,2022.2.4,MacIntel,60.0024001,Chrome,1440,900,,,,,1,725,,,,,,,,,,,,,,,,,D,167,triangle,1,0,,,,,,,,,,,,,,,,repeat,number,numRpt,k,0.4966,Hi,,,,,,1,,,,,,,,low,8,0,8,0,1,,,,,,,,,
297022,2022-11-15_17h12.47.886,vts_reward_expectancy_bt,2022.2.4,MacIntel,60.0024001,Chrome,1440,900,,,,,0,725,,,,,,,,,,,,,,,,,U,160,circle,1,0,,,,,,,,,,,,,,,,switch,letter,lettSwt,f,0.5617,Hi,,,,,,1,,,,,,,,low,9,0,9,0,1,,,,,,,,,
297022,2022-11-15_17h12.47.886,vts_reward_expectancy_bt,2022.2.4,MacIntel,60.0024001,Chrome,1440,900,,,,,0,725,,,,,,,,,,,,,,,,,S,146,hexagon,0,0,,,,,,,,,,,,,,,,repeat,letter,NA,d,0.3922,Hi,,,,,,1,,,,,,,,low,10,0,10,0,1,,,,,,,,,
297022,2022-11-15_17h12.47.886,vts_reward_expectancy_bt,2022.2.4,MacIntel,60.0024001,Chrome,1440,900,,,,,0,725,,,,,,,,,,,,,,,,,Y,132,star,0,1,,,,,,,,,,,,,,,,repeat,letter,NA,d,0.4941,Hi,,,,,,1,,,,,,,,low,11,0,11,0,1,,,,,,,,,
297022,2022-11-15_17h12.47.886,vts_reward_expectancy_bt,2022.2.4,MacIntel,60.0024001,Chrome,1440,900,,,,,0,725,,,,,,,,,,,,,,,,,W,139,triangle,1,1,,,,,,,,,,,,,,,,repeat,letter,lettRpt,f,0.5619,Hi,,,,,,1,,,,,,,,low,12,0,12,0,1,,,,,,,,,
297022,2022-11-15_17h12.47.886,vts_reward_expectancy_bt,2022.2.4,MacIntel,60.0024001,Chrome,1440,900,,,,,0,725,,,,,,,,,,,,,,,,,B,125,circle,1,0,,,,,,,,,,,,,,,,switch,number,numSwt,j,0.5052,Hi,,,,,,1,,,,,,,,low,13,0,13,0,1,,,,,,,,,
297022,2022-11-15_17h12.47.886,vts_reward_expectancy_bt,2022.2.4,MacIntel,60.0024001,Chrome,1440,900,,,,,10,735,,,,,,,,,,,,,,,,,F,174,hexagon,1,0,,,,,,,,,,,,,,,,repeat,number,numRpt,k,0.6926,Lo,,,,,,1,,,,,,,,low,14,0,14,0,1,,,,,,,,,
297022,2022-11-15_17h12.47.886,vts_reward_expectancy_bt,2022.2.4,MacIntel,60.0024001,Chrome,1440,900,,,,,1,736,,,,,,,,,,,,,,,,,H,181,star,1,0,,,,,,,,,,,,,,,,repeat,number,numRpt,k,0.5589,Lo,,,,,,1,,,,,,,,low,15,0,15,0,1,,,,,,,,,
297022,2022-11-15_17h12.47.886,vts_reward_expectancy_bt,2022.2.4,MacIntel,60.0024001,Chrome,1440,900,,,,,0,736,,,,,,,,,,,,,,,,,S,132,triangle,1,0,,,,,,,,,,,,,,,,repeat,number,numRpt,j,0.6096,Hi,,,,,,1,,,,,,,,low,16,0,16,0,1,,,,,,,,,
297022,2022-11-15_17h12.47.886,vts_reward_expectancy_bt,2022.2.4,MacIntel,60.0024001,Chrome,1440,900,,,,,1,737,,,,,,,,,,,,,,,,,D,160,circle,1,0,,,,,,,,,,,,,,,,repeat,number,numRpt,k,0.4611,Hi,,,,,,1,,,,,,,,low,17,0,17,0,1,,,,,,,,,
297022,2022-11-15_17h12.47.886,vts_reward_expectancy_bt,2022.2.4,MacIntel,60.0024001,Chrome,1440,900,,,,,1,738,,,,,,,,,,,,,,,,,H,174,star,1,0,,,,,,,,,,,,,,,,repeat,number,numRpt,k,0.455,Lo,,,,,,1,,,,,,,,low,18,0,18,0,1,,,,,,,,,
297022,2022-11-15_17h12.47.886,vts_reward_expectancy_bt,2022.2.4,MacIntel,60.0024001,Chrome,1440,900,,,,,1,739,,,,,,,,,,,,,,,,,U,167,hexagon,1,0,,,,,,,,,,,,,,,,repeat,number,numRpt,k,0.5804,Lo,,,,,,1,,,,,,,,low,19,0,19,0,1,,,,,,,,,
297022,2022-11-15_17h12.47.886,vts_reward_expectancy_bt,2022.2.4,MacIntel,60.0024001,Chrome,1440,900,,,,,10,749,,,,,,,,,,,,,,,,,B,146,triangle,1,0,,,,,,,,,,,,,,,,switch,letter,lettSwt,d,0.464,Hi,,,,,,1,,,,,,,,low,20,0,20,0,1,,,,,,,,,
297022,2022-11-15_17h12.47.886,vts_reward_expectancy_bt,2022.2.4,MacIntel,60.0024001,Chrome,1440,900,,,,,10,759,,,,,,,,,,,,,,,,,W,125,circle,1,0,,,,,,,,,,,,,,,,repeat,letter,lettRpt,f,0.3997,Hi,,,,,,1,,,,,,,,low,21,0,21,0,1,,,,,,,,,
297022,2022-11-15_17h12.47.886,vts_reward_expectancy_bt,2022.2.4,MacIntel,60.0024001,Chrome,1440,900,,,,,1,760,,,,,,,,,,,,,,,,,F,139,hexagon,1,0,,,,,,,,,,,,,,,,repeat,letter,lettRpt,d,0.6312,Lo,,,,,,1,,,,,,,,low,22,0,22,0,1,,,,,,,,,
297022,2022-11-15_17h12.47.886,vts_reward_expectancy_bt,2022.2.4,MacIntel,60.0024001,Chrome,1440,900,,,,,1,761,,,,,,,,,,,,,,,,,Y,181,star,1,0,,,,,,,,,,,,,,,,switch,number,numSwt,k,0.4459,Lo,,,,,,1,,,,,,,,low,23,0,23,0,1,,,,,,,,,
297022,2022-11-15_17h12.47.886,vts_reward_expectancy_bt,2022.2.4,MacIntel,60.0024001,Chrome,1440,900,,,,,10,771,,,,,,,,,,,,,,,,,D,181,hexagon,1,0,,,,,,,,,,,,,,,,repeat,number,numRpt,k,0.4859,Lo,,,,,,1,,,,,,,,low,24,0,24,0,1,,,,,,,,,
297022,2022-11-15_17h12.47.886,vts_reward_expectancy_bt,2022.2.4,MacIntel,60.0024001,Chrome,1440,900,,,,,10,781,,,,,,,,,,,,,,,,,U,160,circle,1,0,,,,,,,,,,,,,,,,repeat,number,numRpt,k,0.4784,Hi,,,,,,1,,,,,,,,low,25,0,25,0,1,,,,,,,,,
297022,2022-11-15_17h12.47.886,vts_reward_expectancy_bt,2022.2.4,MacIntel,60.0024001,Chrome,1440,900,,,,,0,781,,,,,,,,,,,,,,,,,Y,167,triangle,1,0,,,,,,,,,,,,,,,,switch,letter,lettSwt,f,0.7045,Hi,,,,,,1,,,,,,,,low,26,0,26,0,1,,,,,,,,,
297022,2022-11-15_17h12.47.886,vts_reward_expectancy_bt,2022.2.4,MacIntel,60.0024001,Chrome,1440,900,,,,,1,782,,,,,,,,,,,,,,,,,S,174,star,1,0,,,,,,,,,,,,,,,,repeat,letter,lettRpt,f,0.5101,Lo,,,,,,1,,,,,,,,low,27,0,27,0,1,,,,,,,,,
297022,2022-11-15_17h12.47.886,vts_reward_expectancy_bt,2022.2.4,MacIntel,60.0024001,Chrome,1440,900,,,,,0,782,,,,,,,,,,,,,,,,,H,139,triangle,1,0,,,,,,,,,,,,,,,,repeat,letter,lettRpt,d,0.5833,Hi,,,,,,1,,,,,,,,low,28,0,28,0,1,,,,,,,,,
297022,2022-11-15_17h12.47.886,vts_reward_expectancy_bt,2022.2.4,MacIntel,60.0024001,Chrome,1440,900,,,,,1,783,,,,,,,,,,,,,,,,,F,146,hexagon,1,0,,,,,,,,,,,,,,,,repeat,letter,lettRpt,d,0.6513,Lo,,,,,,1,,,,,,,,low,29,0,29,0,1,,,,,,,,,
297022,2022-11-15_17h12.47.886,vts_reward_expectancy_bt,2022.2.4,MacIntel,60.0024001,Chrome,1440,900,,,,,0,783,,,,,,,,,,,,,,,,,B,125,star,0,0,,,,,,,,,,,,,,,,switch,number,NA,k,0.5796,Lo,,,,,,1,,,,,,,,low,30,0,30,0,1,,,,,,,,,
297022,2022-11-15_17h12.47.886,vts_reward_expectancy_bt,2022.2.4,MacIntel,60.0024001,Chrome,1440,900,,,,,10,793,,,,,,,,,,,,,,,,,W,132,circle,1,1,,,,,,,,,,,,,,,,repeat,number,numRpt,j,0.4621,Hi,,,,,,1,,,,,,,,low,31,0,31,0,1,,,,,,,,,
297022,2022-11-15_17h12.47.886,vts_reward_expectancy_bt,2022.2.4,MacIntel,60.0024001,Chrome,1440,900,,,,,0,793,,,,,,,,,,,,,,,,,U,132,circle,1,0,,,,,,,,,,,,,,,,repeat,number,numRpt,j,0.8046,Hi,,,,,,2,,,,,,space,2.5593,low,0,0,0,0,1,,,,,,,,,
297022,2022-11-15_17h12.47.886,vts_reward_expectancy_bt,2022.2.4,MacIntel,60.0024001,Chrome,1440,900,,,,,10,803,,,,,,,,,,,,,,,,,D,181,hexagon,1,0,,,,,,,,,,,,,,,,repeat,number,numRpt,k,0.4294,Lo,,,,,,2,,,,,,,,low,1,0,1,0,1,,,,,,,,,
297022,2022-11-15_17h12.47.886,vts_reward_expectancy_bt,2022.2.4,MacIntel,60.0024001,Chrome,1440,900,,,,,1,804,,,,,,,,,,,,,,,,,Y,160,star,1,0,,,,,,,,,,,,,,,,repeat,number,numRpt,k,0.4642,Lo,,,,,,2,,,,,,,,low,2,0,2,0,1,,,,,,,,,
297022,2022-11-15_17h12.47.886,vts_reward_expectancy_bt,2022.2.4,MacIntel,60.0024001,Chrome,1440,900,,,,,0,804,,,,,,,,,,,,,,,,,S,146,triangle,1,0,,,,,,,,,,,,,,,,switch,letter,lettSwt,f,0.5482,Hi,,,,,,2,,,,,,,,low,3,0,3,0,1,,,,,,,,,
297022,2022-11-15_17h12.47.886,vts_reward_expectancy_bt,2022.2.4,MacIntel,60.0024001,Chrome,1440,900,,,,,0,804,,,,,,,,,,,,,,,,,F,139,circle,1,0,,,,,,,,,,,,,,,,repeat,letter,lettRpt,d,0.5625,Hi,,,,,,2,,,,,,,,low,4,0,4,0,1,,,,,,,,,
297022,2022-11-15_17h12.47.886,vts_reward_expectancy_bt,2022.2.4,MacIntel,60.0024001,Chrome,1440,900,,,,,10,814,,,,,,,,,,,,,,,,,W,174,hexagon,1,0,,,,,,,,,,,,,,,,repeat,letter,lettRpt,f,0.4493,Lo,,,,,,2,,,,,,,,low,5,0,5,0,1,,,,,,,,,
297022,2022-11-15_17h12.47.886,vts_reward_expectancy_bt,2022.2.4,MacIntel,60.0024001,Chrome,1440,900,,,,,10,824,,,,,,,,,,,,,,,,,H,167,star,1,0,,,,,,,,,,,,,,,,switch,number,numSwt,k,0.4434,Lo,,,,,,2,,,,,,,,low,6,0,6,0,1,,,,,,,,,
297022,2022-11-15_17h12.47.886,vts_reward_expectancy_bt,2022.2.4,MacIntel,60.0024001,Chrome,1440,900,,,,,0,824,,,,,,,,,,,,,,,,,B,125,triangle,1,0,,,,,,,,,,,,,,,,repeat,number,numRpt,j,0.5456,Hi,,,,,,2,,,,,,,,low,7,0,7,0,1,,,,,,,,,
297022,2022-11-15_17h12.47.886,vts_reward_expectancy_bt,2022.2.4,MacIntel,60.0024001,Chrome,1440,900,,,,,0,824,,,,,,,,,,,,,,,,,U,132,circle,0,0,,,,,,,,,,,,,,,,repeat,number,NA,k,0.4552,Hi,,,,,,2,,,,,,,,low,8,0,8,0,1,,,,,,,,,
297022,2022-11-15_17h12.47.886,vts_reward_expectancy_bt,2022.2.4,MacIntel,60.0024001,Chrome,1440,900,,,,,1,825,,,,,,,,,,,,,,,,,D,181,triangle,1,1,,,,,,,,,,,,,,,,repeat,number,numRpt,k,0.4476,Hi,,,,,,2,,,,,,,,low,9,0,9,0,1,,,,,,,,,
297022,2022-11-15_17h12.47.886,vts_reward_expectancy_bt,2022.2.4,MacIntel,60.0024001,Chrome,1440,900,,,,,1,826,,,,,,,,,,,,,,,,,Y,160,star,1,0,,,,,,,,,,,,,,,,switch,letter,lettSwt,f,0.4659,Lo,,,,,,2,,,,,,,,low,10,0,10,0,1,,,,,,,,,
297022,2022-11-15_17h12.47.886,vts_reward_expectancy_bt,2022.2.4,MacIntel,60.0024001,Chrome,1440,900,,,,,1,827,,,,,,,,,,,,,,,,,S,146,hexagon,1,0,,,,,,,,,,,,,,,,repeat,letter,lettRpt,f,0.5488,Lo,,,,,,2,,,,,,,,low,11,0,11,0,1,,,,,,,,,
297022,2022-11-15_17h12.47.886,vts_reward_expectancy_bt,2022.2.4,MacIntel,60.0024001,Chrome,1440,900,,,,,1,828,,,,,,,,,,,,,,,,,F,139,star,1,0,,,,,,,,,,,,,,,,switch,number,numSwt,j,0.4794,Lo,,,,,,2,,,,,,,,low,12,0,12,0,1,,,,,,,,,
297022,2022-11-15_17h12.47.886,vts_reward_expectancy_bt,2022.2.4,MacIntel,60.0024001,Chrome,1440,900,,,,,0,828,,,,,,,,,,,,,,,,,W,174,circle,0,0,,,,,,,,,,,,,,,,repeat,number,NA,j,0.4964,Lo,,,,,,2,,,,,,,,low,13,0,13,0,1,,,,,,,,,
297022,2022-11-15_17h12.47.886,vts_reward_expectancy_bt,2022.2.4,MacIntel,60.0024001,Chrome,1440,900,,,,,1,829,,,,,,,,,,,,,,,,,H,167,hexagon,1,1,,,,,,,,,,,,,,,,repeat,number,numRpt,k,0.8487,Lo,,,,,,2,,,,,,,,low,14,0,14,0,1,,,,,,,,,
297022,2022-11-15_17h12.47.886,vts_reward_expectancy_bt,2022.2.4,MacIntel,60.0024001,Chrome,1440,900,,,,,0,829,,,,,,,,,,,,,,,,,B,125,triangle,1,0,,,,,,,,,,,,,,,,switch,letter,lettSwt,d,0.6629,Hi,,,,,,2,,,,,,,,low,15,0,15,0,1,,,,,,,,,
297022,2022-11-15_17h12.47.886,vts_reward_expectancy_bt,2022.2.4,MacIntel,60.0024001,Chrome,1440,900,,,,,10,839,,,,,,,,,,,,,,,,,W,146,hexagon,1,0,,,,,,,,,,,,,,,,repeat,letter,lettRpt,f,0.5277,Lo,,,,,,2,,,,,,,,low,16,0,16,0,1,,,,,,,,,
297022,2022-11-15_17h12.47.886,vts_reward_expectancy_bt,2022.2.4,MacIntel,60.0024001,Chrome,1440,900,,,,,10,849,,,,,,,,,,,,,,,,,U,174,star,1,0,,,,,,,,,,,,,,,,switch,number,numSwt,k,0.4633,Lo,,,,,,2,,,,,,,,low,17,0,17,0,1,,,,,,,,,
297022,2022-11-15_17h12.47.886,vts_reward_expectancy_bt,2022.2.4,MacIntel,60.0024001,Chrome,1440,900,,,,,10,859,,,,,,,,,,,,,,,,,Y,160,triangle,1,0,,,,,,,,,,,,,,,,repeat,number,numRpt,k,0.4196,Hi,,,,,,2,,,,,,,,low,18,0,18,0,1,,,,,,,,,
297022,2022-11-15_17h12.47.886,vts_reward_expectancy_bt,2022.2.4,MacIntel,60.0024001,Chrome,1440,900,,,,,0,859,,,,,,,,,,,,,,,,,B,139,circle,1,0,,,,,,,,,,,,,,,,switch,letter,lettSwt,d,0.5278,Hi,,,,,,2,,,,,,,,low,19,0,19,0,1,,,,,,,,,
297022,2022-11-15_17h12.47.886,vts_reward_expectancy_bt,2022.2.4,MacIntel,60.0024001,Chrome,1440,900,,,,,0,859,,,,,,,,,,,,,,,,,S,167,hexagon,0,0,,,,,,,,,,,,,,,,repeat,letter,NA,d,0.4656,Hi,,,,,,2,,,,,,,,low,20,0,20,0,1,,,,,,,,,
297022,2022-11-15_17h12.47.886,vts_reward_expectancy_bt,2022.2.4,MacIntel,60.0024001,Chrome,1440,900,,,,,0,859,,,,,,,,,,,,,,,,,D,125,triangle,1,1,,,,,,,,,,,,,,,,switch,number,numSwt,j,0.554,Hi,,,,,,2,,,,,,,,low,21,0,21,0,1,,,,,,,,,
297022,2022-11-15_17h12.47.886,vts_reward_expectancy_bt,2022.2.4,MacIntel,60.0024001,Chrome,1440,900,,,,,10,869,,,,,,,,,,,,,,,,,F,132,star,1,0,,,,,,,,,,,,,,,,repeat,number,numRpt,j,0.604,Lo,,,,,,2,,,,,,,,low,22,0,22,0,1,,,,,,,,,
297022,2022-11-15_17h12.47.886,vts_reward_expectancy_bt,2022.2.4,MacIntel,60.0024001,Chrome,1440,900,,,,,0,869,,,,,,,,,,,,,,,,,H,181,circle,0,0,,,,,,,,,,,,,,,,switch,letter,NA,f,0.4501,Lo,,,,,,2,,,,,,,,low,23,0,23,0,1,,,,,,,,,
297022,2022-11-15_17h12.47.886,vts_reward_expectancy_bt,2022.2.4,MacIntel,60.0024001,Chrome,1440,900,,,,,10,879,,,,,,,,,,,,,,,,,B,132,triangle,1,1,,,,,,,,,,,,,,,,switch,number,numSwt,j,0.4642,Hi,,,,,,2,,,,,,,,low,24,0,24,0,1,,,,,,,,,
297022,2022-11-15_17h12.47.886,vts_reward_expectancy_bt,2022.2.4,MacIntel,60.0024001,Chrome,1440,900,,,,,1,880,,,,,,,,,,,,,,,,,F,181,star,1,0,,,,,,,,,,,,,,,,switch,letter,lettSwt,d,0.5936,Lo,,,,,,2,,,,,,,,low,25,0,25,0,1,,,,,,,,,
297022,2022-11-15_17h12.47.886,vts_reward_expectancy_bt,2022.2.4,MacIntel,60.0024001,Chrome,1440,900,,,,,1,881,,,,,,,,,,,,,,,,,H,125,hexagon,1,0,,,,,,,,,,,,,,,,switch,number,numSwt,j,0.5297,Lo,,,,,,2,,,,,,,,low,26,0,26,0,1,,,,,,,,,
297022,2022-11-15_17h12.47.886,vts_reward_expectancy_bt,2022.2.4,MacIntel,60.0024001,Chrome,1440,900,,,,,0,881,,,,,,,,,,,,,,,,,D,146,circle,1,0,,,,,,,,,,,,,,,,repeat,number,numRpt,j,0.498,Hi,,,,,,2,,,,,,,,low,27,0,27,0,1,,,,,,,,,
297022,2022-11-15_17h12.47.886,vts_reward_expectancy_bt,2022.2.4,MacIntel,60.0024001,Chrome,1440,900,,,,,0,881,,,,,,,,,,,,,,,,,S,174,triangle,0,0,,,,,,,,,,,,,,,,switch,letter,NA,d,0.462,Hi,,,,,,2,,,,,,,,low,28,0,28,0,1,,,,,,,,,
297022,2022-11-15_17h12.47.886,vts_reward_expectancy_bt,2022.2.4,MacIntel,60.0024001,Chrome,1440,900,,,,,10,891,,,,,,,,,,,,,,,,,W,160,circle,1,1,,,,,,,,,,,,,,,,repeat,letter,lettRpt,f,0.444,Hi,,,,,,2,,,,,,,,low,29,0,29,0,1,,,,,,,,,
297022,2022-11-15_17h12.47.886,vts_reward_expectancy_bt,2022.2.4,MacIntel,60.0024001,Chrome,1440,900,,,,,10,901,,,,,,,,,,,,,,,,,U,167,hexagon,1,0,,,,,,,,,,,,,,,,switch,number,numSwt,k,0.485,Lo,,,,,,2,,,,,,,,low,30,0,30,0,1,,,,,,,,,
297022,2022-11-15_17h12.47.886,vts_reward_expectancy_bt,2022.2.4,MacIntel,60.0024001,Chrome,1440,900,,,,,1,902,,,,,,,,,,,,,,,,,Y,139,star,1,0,,,,,,,,,,,,,,,,switch,letter,lettSwt,f,0.6654,Lo,,,,,,2,,,,,,,,low,31,0,31,0,1,,,,,,,,,
297022,2022-11-15_17h12.47.886,vts_reward_expectancy_bt,2022.2.4,MacIntel,60.0024001,Chrome,1440,900,,,,,0,902,,,,,,,,,,,,,,,,,Y,167,triangle,0,0,,,,,,,,,,,,,,,,repeat,letter,NA,d,0.84,Lo,,,,,,3,,,,,,space,5.9245,low,0,0,0,0,1,,,,,,,,,
297022,2022-11-15_17h12.47.886,vts_reward_expectancy_bt,2022.2.4,MacIntel,60.0024001,Chrome,1440,900,,,,,1,903,,,,,,,,,,,,,,,,,U,132,hexagon,1,1,,,,,,,,,,,,,,,,repeat,letter,lettRpt,f,0.6467,Lo,,,,,,3,,,,,,,,low,1,0,1,0,1,,,,,,,,,
297022,2022-11-15_17h12.47.886,vts_reward_expectancy_bt,2022.2.4,MacIntel,60.0024001,Chrome,1440,900,,,,,0,903,,,,,,,,,,,,,,,,,H,181,star,0,0,,,,,,,,,,,,,,,,repeat,letter,NA,f,0.4248,Lo,,,,,,3,,,,,,,,low,2,0,2,0,1,,,,,,,,,
297022,2022-11-15_17h12.47.886,vts_reward_expectancy_bt,2022.2.4,MacIntel,60.0024001,Chrome,1440,900,,,,,10,913,,,,,,,,,,,,,,,,,F,174,circle,1,1,,,,,,,,,,,,,,,,repeat,letter,lettRpt,d,0.3316,Hi,,,,,,3,,,,,,,,low,3,0,3,0,1,,,,,,,,,
297022,2022-11-15_17h12.47.886,vts_reward_expectancy_bt,2022.2.4,MacIntel,60.0024001,Chrome,1440,900,,,,,0,913,,,,,,,,,,,,,,,,,D,146,triangle,1,0,,,,,,,,,,,,,,,,switch,number,numSwt,j,0.5458,Hi,,,,,,3,,,,,,,,low,4,0,4,0,1,,,,,,,,,
297022,2022-11-15_17h12.47.886,vts_reward_expectancy_bt,2022.2.4,MacIntel,60.0024001,Chrome,1440,900,,,,,10,923,,,,,,,,,,,,,,,,,S,139,hexagon,1,0,,,,,,,,,,,,,,,,repeat,number,numRpt,j,0.5113,Lo,,,,,,3,,,,,,,,low,5,0,5,0,1,,,,,,,,,
297022,2022-11-15_17h12.47.886,vts_reward_expectancy_bt,2022.2.4,MacIntel,60.0024001,Chrome,1440,900,,,,,1,924,,,,,,,,,,,,,,,,,W,125,star,1,0,,,,,,,,,,,,,,,,switch,letter,lettSwt,f,0.4767,Lo,,,,,,3,,,,,,,,low,6,0,6,0,1,,,,,,,,,
297022,2022-11-15_17h12.47.886,vts_reward_expectancy_bt,2022.2.4,MacIntel,60.0024001,Chrome,1440,900,,,,,0,924,,,,,,,,,,,,,,,,,B,160,circle,1,0,,,,,,,,,,,,,,,,repeat,letter,lettRpt,d,0.595,Hi,,,,,,3,,,,,,,,low,7,0,7,0,1,,,,,,,,,
297022,2022-11-15_17h12.47.886,vts_reward_expectancy_bt,2022.2.4,MacIntel,60.0024001,Chrome,1440,900,,,,,10,934,,,,,,,,,,,,,,,,,Y,167,hexagon,1,0,,,,,,,,,,,,,,,,switch,number,numSwt,k,0.6561,Lo,,,,,,3,,,,,,,,low,8,0,8,0,1,,,,,,,,,
297022,2022-11-15_17h12.47.886,vts_reward_expectancy_bt,2022.2.4,MacIntel,60.0024001,Chrome,1440,900,,,,,0,934,,,,,,,,,,,,,,,,,U,132,circle,1,0,,,,,,,,,,,,,,,,repeat,number,numRpt,j,0.5514,Hi,,,,,,3,,,,,,,,low,9,0,9,0,1,,,,,,,,,
297022,2022-11-15_17h12.47.886,vts_reward_expectancy_bt,2022.2.4,MacIntel,60.0024001,Chrome,1440,900,,,,,10,944,,,,,,,,,,,,,,,,,H,181,star,1,0,,,,,,,,,,,,,,,,repeat,number,numRpt,k,0.4933,Lo,,,,,,3,,,,,,,,low,10,0,10,0,1,,,,,,,,,
297022,2022-11-15_17h12.47.886,vts_reward_expectancy_bt,2022.2.4,MacIntel,60.0024001,Chrome,1440,900,,,,,0,944,,,,,,,,,,,,,,,,,F,174,triangle,1,0,,,,,,,,,,,,,,,,switch,letter,lettSwt,d,0.6216,Hi,,,,,,3,,,,,,,,low,11,0,11,0,1,,,,,,,,,
297022,2022-11-15_17h12.47.886,vts_reward_expectancy_bt,2022.2.4,MacIntel,60.0024001,Chrome,1440,900,,,,,1,945,,,,,,,,,,,,,,,,,D,146,star,1,0,,,,,,,,,,,,,,,,repeat,letter,lettRpt,d,0.5812,Lo,,,,,,3,,,,,,,,low,12,0,12,0,1,,,,,,,,,
297022,2022-11-15_17h12.47.886,vts_reward_expectancy_bt,2022.2.4,MacIntel,60.0024001,Chrome,1440,900,,,,,0,945,,,,,,,,,,,,,,,,,S,139,circle,1,0,,,,,,,,,,,,,,,,switch,number,numSwt,j,0.5481,Hi,,,,,,3,,,,,,,,low,13,0,13,0,1,,,,,,,,,
297022,2022-11-15_17h12.47.886,vts_reward_expectancy_bt,2022.2.4,MacIntel,60.0024001,Chrome,1440,900,,,,,0,945,,,,,,,,,,,,,,,,,W,125,triangle,1,0,,,,,,,,,,,,,,,,repeat,number,numRpt,j,0.4825,Hi,,,,,,3,,,,,,,,low,14,0,14,0,1,,,,,,,,,
297022,2022-11-15_17h12.47.886,vts_reward_expectancy_bt,2022.2.4,MacIntel,60.0024001,Chrome,1440,900,,,,,10,955,,,,,,,,,,,,,,,,,B,160,hexagon,1,0,,,,,,,,,,,,,,,,repeat,number,numRpt,k,0.647,Lo,,,,,,3,,,,,,,,low,15,0,15,0,1,,,,,,,,,
297022,2022-11-15_17h12.47.886,vts_reward_expectancy_bt,2022.2.4,MacIntel,60.0024001,Chrome,1440,900,,,,,10,965,,,,,,,,,,,,,,,,,B,132,star,1,0,,,,,,,,,,,,,,,,repeat,number,numRpt,j,0.4835,Lo,,,,,,3,,,,,,,,low,16,0,16,0,1,,,,,,,,,
297022,2022-11-15_17h12.47.886,vts_reward_expectancy_bt,2022.2.4,MacIntel,60.0024001,Chrome,1440,900,,,,,0,965,,,,,,,,,,,,,,,,,S,146,triangle,0,0,,,,,,,,,,,,,,,,switch,letter,NA,d,0.4523,Lo,,,,,,3,,,,,,,,low,17,0,17,0,1,,,,,,,,,
297022,2022-11-15_17h12.47.886,vts_reward_expectancy_bt,2022.2.4,MacIntel,60.0024001,Chrome,1440,900,,,,,0,965,,,,,,,,,,,,,,,,,Y,181,circle,1,1,,,,,,,,,,,,,,,,switch,number,numSwt,k,0.4893,Hi,,,,,,3,,,,,,,,low,18,0,18,0,1,,,,,,,,,
297022,2022-11-15_17h12.47.886,vts_reward_expectancy_bt,2022.2.4,MacIntel,60.0024001,Chrome,1440,900,,,,,1,966,,,,,,,,,,,,,,,,,W,167,hexagon,1,0,,,,,,,,,,,,,,,,switch,letter,lettSwt,f,0.6638,Lo,,,,,,3,,,,,,,,low,19,0,19,0,1,,,,,,,,,
297022,2022-11-15_17h12.47.886,vts_reward_expectancy_bt,2022.2.4,MacIntel,60.0024001,Chrome,1440,900,,,,,1,967,,,,,,,,,,,,,,,,,D,139,star,1,0,,,,,,,,,,,,,,,,repeat,letter,lettRpt,d,0.5011,Lo,,,,,,3,,,,,,,,low,20,0,20,0,1,,,,,,,,,
297022,2022-11-15_17h12.47.886,vts_reward_expectancy_bt,2022.2.4,MacIntel,60.0024001,Chrome,1440,900,,,,,0,967,,,,,,,,,,,,,,,,,H,174,circle,1,0,,,,,,,,,,,,,,,,switch,number,numSwt,k,0.6304,Hi,,,,,,3,,,,,,,,low,21,0,21,0,1,,,,,,,,,
297022,2022-11-15_17h12.47.886,vts_reward_expectancy_bt,2022.2.4,MacIntel,60.0024001,Chrome,1440,900,,,,,0,967,,,,,,,,,,,,,,,,,F,125,triangle,1,0,,,,,,,,,,,,,,,,repeat,number,numRpt,j,0.5375,Hi,,,,,,3,,,,,,,,low,22,0,22,0,1,,,,,,,,,
297022,2022-11-15_17h12.47.886,vts_reward_expectancy_bt,2022.2.4,MacIntel,60.0024001,Chrome,1440,900,,,,,1,968,,,,,,,,,,,,,,,,,U,160,hexagon,1,0,,,,,,,,,,,,,,,,repeat,number,numRpt,k,0.4552,Lo,,,,,,3,,,,,,,,low,23,0,23,0,1,,,,,,,,,
297022,2022-11-15_17h12.47.886,vts_reward_expectancy_bt,2022.2.4,MacIntel,60.0024001,Chrome,1440,900,,,,,1,969,,,,,,,,,,,,,,,,,Y,174,triangle,1,0,,,,,,,,,,,,,,,,switch,letter,lettSwt,f,0.533,Hi,,,,,,3,,,,,,,,low,24,0,24,0,1,,,,,,,,,
297022,2022-11-15_17h12.47.886,vts_reward_expectancy_bt,2022.2.4,MacIntel,60.0024001,Chrome,1440,900,,,,,0,969,,,,,,,,,,,,,,,,,D,125,star,0,0,,,,,,,,,,,,,,,,switch,number,NA,k,0.0003,Hi,,,,,,3,,,,,,,,low,25,0,25,0,1,,,,,,,,,
297022,2022-11-15_17h12.47.886,vts_reward_expectancy_bt,2022.2.4,MacIntel,60.0024001,Chrome,1440,900,,,,,0,969,,,,,,,,,,,,,,,,,H,181,hexagon,0,1,,,,,,,,,,,,,,,,repeat,number,NA,j,0.0597,Hi,,,,,,3,,,,,,,,low,26,0,26,0,1,,,,,,,,,
297022,2022-11-15_17h12.47.886,vts_reward_expectancy_bt,2022.2.4,MacIntel,60.0024001,Chrome,1440,900,,,,,10,979,,,,,,,,,,,,,,,,,U,167,circle,1,1,,,,,,,,,,,,,,,,switch,letter,lettSwt,f,0.0801,Hi,,,,,,3,,,,,,,,low,27,0,27,0,1,,,,,,,,,
297022,2022-11-15_17h12.47.886,vts_reward_expectancy_bt,2022.2.4,MacIntel,60.0024001,Chrome,1440,900,,,,,1,980,,,,,,,,,,,,,,,,,W,160,hexagon,1,0,,,,,,,,,,,,,,,,switch,number,numSwt,k,0.0667,Lo,,,,,,3,,,,,,,,low,28,0,28,0,1,,,,,,,,,
297022,2022-11-15_17h12.47.886,vts_reward_expectancy_bt,2022.2.4,MacIntel,60.0024001,Chrome,1440,900,,,,,10,990,,,,,,,,,,,,,,,,,F,146,triangle,1,0,,,,,,,,,,,,,,,,switch,letter,lettSwt,d,0.2644,Hi,,,,,,3,,,,,,,,low,29,0,29,0,1,,,,,,,,,
297022,2022-11-15_17h12.47.886,vts_reward_expectancy_bt,2022.2.4,MacIntel,60.0024001,Chrome,1440,900,,,,,10,1000,,,,,,,,,,,,,,,,,S,139,star,1,0,,,,,,,,,,,,,,,,switch,number,numSwt,j,0.1136,Lo,,,,,,3,,,,,,,,low,30,0,30,0,1,,,,,,,,,
297022,2022-11-15_17h12.47.886,vts_reward_expectancy_bt,2022.2.4,MacIntel,60.0024001,Chrome,1440,900,,,,,1,1001,,,,,,,,,,,,,,,,,B,132,circle,1,0,,,,,,,,,,,,,,,,switch,letter,lettSwt,d,0.1317,Hi,,,,,,3,,,,,,,,low,31,0,31,0,1,,,,,,,,,
297022,2022-11-15_17h12.47.886,vts_reward_expectancy_bt,2022.2.4,MacIntel,60.0024001,Chrome,1440,900,,,,,0,1001,,,,,,,,,,,,,,,,,H,174,circle,0,0,,,,,,,,,,,,,,,,switch,number,NA,j,0.0702,Hi,,,,,,4,,,,,,space,9.2225,low,0,0,0,0,1,,,,,,,,,
297022,2022-11-15_17h12.47.886,vts_reward_expectancy_bt,2022.2.4,MacIntel,60.0024001,Chrome,1440,900,,,,,0,1001,,,,,,,,,,,,,,,,,F,132,hexagon,0,1,,,,,,,,,,,,,,,,repeat,number,NA,k,0.0304,Hi,,,,,,4,,,,,,,,low,1,0,1,0,1,,,,,,,,,
297022,2022-11-15_17h12.47.886,vts_reward_expectancy_bt,2022.2.4,MacIntel,60.0024001,Chrome,1440,900,,,,,0,1001,,,,,,,,,,,,,,,,,S,125,triangle,1,1,,,,,,,,,,,,,,,,repeat,number,numRpt,j,0.5653,Hi,,,,,,4,,,,,,,,low,2,0,2,0,1,,,,,,,,,
297022,2022-11-15_17h12.47.886,vts_reward_expectancy_bt,2022.2.4,MacIntel,60.0024001,Chrome,1440,900,,,,,10,1011,,,,,,,,,,,,,,,,,U,160,star,1,0,,,,,,,,,,,,,,,,repeat,number,numRpt,k,0.5151,Lo,,,,,,4,,,,,,,,low,3,0,3,0,1,,,,,,,,,
297022,2022-11-15_17h12.47.886,vts_reward_expectancy_bt,2022.2.4,MacIntel,60.0024001,Chrome,1440,900,,,,,0,1011,,,,,,,,,,,,,,,,,B,181,circle,1,0,,,,,,,,,,,,,,,,switch,letter,lettSwt,d,0.4887,Hi,,,,,,4,,,,,,,,low,4,0,4,0,1,,,,,,,,,
297022,2022-11-15_17h12.47.886,vts_reward_expectancy_bt,2022.2.4,MacIntel,60.0024001,Chrome,1440,900,,,,,10,1021,,,,,,,,,,,,,,,,,D,167,hexagon,1,0,,,,,,,,,,,,,,,,repeat,letter,lettRpt,d,0.4544,Lo,,,,,,4,,,,,,,,low,5,0,5,0,1,,,,,,,,,
297022,2022-11-15_17h12.47.886,vts_reward_expectancy_bt,2022.2.4,MacIntel,60.0024001,Chrome,1440,900,,,,,1,1022,,,,,,,,,,,,,,,,,Y,146,triangle,1,0,,,,,,,,,,,,,,,,switch,number,numSwt,j,0.4653,Hi,,,,,,4,,,,,,,,low,6,0,6,0,1,,,,,,,,,
297022,2022-11-15_17h12.47.886,vts_reward_expectancy_bt,2022.2.4,MacIntel,60.0024001,Chrome,1440,900,,,,,10,1032,,,,,,,,,,,,,,,,,W,139,star,1,0,,,,,,,,,,,,,,,,switch,letter,lettSwt,f,0.5016,Lo,,,,,,4,,,,,,,,low,7,0,7,0,1,,,,,,,,,
297022,2022-11-15_17h12.47.886,vts_reward_expectancy_bt,2022.2.4,MacIntel,60.0024001,Chrome,1440,900,,,,,1,1033,,,,,,,,,,,,,,,,,H,174,star,1,0,,,,,,,,,,,,,,,,repeat,letter,lettRpt,d,0.4891,Lo,,,,,,4,,,,,,,,low,8,0,8,0,1,,,,,,,,,
297022,2022-11-15_17h12.47.886,vts_reward_expectancy_bt,2022.2.4,MacIntel,60.0024001,Chrome,1440,900,,,,,10,1043,,,,,,,,,,,,,,,,,F,132,triangle,1,0,,,,,,,,,,,,,,,,switch,number,numSwt,j,0.3673,Hi,,,,,,4,,,,,,,,low,9,0,9,0,1,,,,,,,,,
297022,2022-11-15_17h12.47.886,vts_reward_expectancy_bt,2022.2.4,MacIntel,60.0024001,Chrome,1440,900,,,,,0,1043,,,,,,,,,,,,,,,,,S,125,hexagon,0,0,,,,,,,,,,,,,,,,switch,letter,NA,d,0.5727,Hi,,,,,,4,,,,,,,,low,10,0,10,0,1,,,,,,,,,
297022,2022-11-15_17h12.47.886,vts_reward_expectancy_bt,2022.2.4,MacIntel,60.0024001,Chrome,1440,900,,,,,10,1053,,,,,,,,,,,,,,,,,U,160,circle,1,1,,,,,,,,,,,,,,,,repeat,letter,lettRpt,f,0.4987,Hi,,,,,,4,,,,,,,,low,11,0,11,0,1,,,,,,,,,
297022,2022-11-15_17h12.47.886,vts_reward_expectancy_bt,2022.2.4,MacIntel,60.0024001,Chrome,1440,900,,,,,1,1054,,,,,,,,,,,,,,,,,B,181,star,1,0,,,,,,,,,,,,,,,,switch,number,numSwt,k,0.5036,Lo,,,,,,4,,,,,,,,low,12,0,12,0,1,,,,,,,,,
297022,2022-11-15_17h12.47.886,vts_reward_expectancy_bt,2022.2.4,MacIntel,60.0024001,Chrome,1440,900,,,,,1,1055,,,,,,,,,,,,,,,,,D,167,triangle,1,0,,,,,,,,,,,,,,,,repeat,number,numRpt,k,0.4642,Hi,,,,,,4,,,,,,,,low,13,0,13,0,1,,,,,,,,,
297022,2022-11-15_17h12.47.886,vts_reward_expectancy_bt,2022.2.4,MacIntel,60.0024001,Chrome,1440,900,,,,,1,1056,,,,,,,,,,,,,,,,,Y,146,hexagon,1,0,,,,,,,,,,,,,,,,switch,letter,lettSwt,f,0.5363,Lo,,,,,,4,,,,,,,,low,14,0,14,0,1,,,,,,,,,
297022,2022-11-15_17h12.47.886,vts_reward_expectancy_bt,2022.2.4,MacIntel,60.0024001,Chrome,1440,900,,,,,0,1056,,,,,,,,,,,,,,,,,W,139,circle,1,0,,,,,,,,,,,,,,,,repeat,letter,lettRpt,f,0.5993,Hi,,,,,,4,,,,,,,,low,15,0,15,0,1,,,,,,,,,
297022,2022-11-15_17h12.47.886,vts_reward_expectancy_bt,2022.2.4,MacIntel,60.0024001,Chrome,1440,900,,,,,0,1056,,,,,,,,,,,,,,,,,Y,125,triangle,1,0,,,,,,,,,,,,,,,,switch,number,numSwt,j,0.6602,Hi,,,,,,4,,,,,,,,low,16,0,16,0,1,,,,,,,,,
297022,2022-11-15_17h12.47.886,vts_reward_expectancy_bt,2022.2.4,MacIntel,60.0024001,Chrome,1440,900,,,,,10,1066,,,,,,,,,,,,,,,,,D,160,star,1,0,,,,,,,,,,,,,,,,repeat,number,numRpt,k,0.4493,Lo,,,,,,4,,,,,,,,low,17,0,17,0,1,,,,,,,,,
297022,2022-11-15_17h12.47.886,vts_reward_expectancy_bt,2022.2.4,MacIntel,60.0024001,Chrome,1440,900,,,,,1,1067,,,,,,,,,,,,,,,,,B,167,circle,1,0,,,,,,,,,,,,,,,,repeat,number,numRpt,k,0.485,Hi,,,,,,4,,,,,,,,low,18,0,18,0,1,,,,,,,,,
297022,2022-11-15_17h12.47.886,vts_reward_expectancy_bt,2022.2.4,MacIntel,60.0024001,Chrome,1440,900,,,,,10,1077,,,,,,,,,,,,,,,,,U,139,hexagon,1,0,,,,,,,,,,,,,,,,repeat,number,numRpt,j,0.6801,Lo,,,,,,4,,,,,,,,low,19,0,19,0,1,,,,,,,,,
297022,2022-11-15_17h12.47.886,vts_reward_expectancy_bt,2022.2.4,MacIntel,60.0024001,Chrome,1440,900,,,,,0,1077,,,,,,,,,,,,,,,,,H,181,triangle,0,0,,,,,,,,,,,,,,,,switch,letter,NA,f,0.561,Lo,,,,,,4,,,,,,,,low,20,0,20,0,1,,,,,,,,,
297022,2022-11-15_17h12.47.886,vts_reward_expectancy_bt,2022.2.4,MacIntel,60.0024001,Chrome,1440,900,,,,,0,1077,,,,,,,,,,,,,,,,,S,174,circle,0,1,,,,,,,,,,,,,,,,switch,number,NA,j,0.0612,Lo,,,,,,4,,,,,,,,low,21,0,21,0,1,,,,,,,,,
297022,2022-11-15_17h12.47.886,vts_reward_expectancy_bt,2022.2.4,MacIntel,60.0024001,Chrome,1440,900,,,,,1,1078,,,,,,,,,,,,,,,,,W,146,hexagon,1,1,,,,,,,,,,,,,,,,repeat,number,numRpt,j,0.0598,Lo,,,,,,4,,,,,,,,low,22,0,22,0,1,,,,,,,,,
297022,2022-11-15_17h12.47.886,vts_reward_expectancy_bt,2022.2.4,MacIntel,60.0024001,Chrome,1440,900,,,,,0,1078,,,,,,,,,,,,,,,,,F,132,star,0,0,,,,,,,,,,,,,,,,switch,letter,NA,f,0.0385,Lo,,,,,,4,,,,,,,,low,23,0,23,0,1,,,,,,,,,
297022,2022-11-15_17h12.47.886,vts_reward_expectancy_bt,2022.2.4,MacIntel,60.0024001,Chrome,1440,900,,,,,1,1079,,,,,,,,,,,,,,,,,B,132,triangle,1,1,,,,,,,,,,,,,,,,repeat,letter,lettRpt,d,0.0005,Hi,,,,,,4,,,,,,,,low,24,0,24,0,1,,,,,,,,,
297022,2022-11-15_17h12.47.886,vts_reward_expectancy_bt,2022.2.4,MacIntel,60.0024001,Chrome,1440,900,,,,,0,1079,,,,,,,,,,,,,,,,,Y,146,circle,0,0,,,,,,,,,,,,,,,,switch,number,NA,k,0.097,Hi,,,,,,4,,,,,,,,low,25,0,25,0,1,,,,,,,,,
297022,2022-11-15_17h12.47.886,vts_reward_expectancy_bt,2022.2.4,MacIntel,60.0024001,Chrome,1440,900,,,,,0,1079,,,,,,,,,,,,,,,,,H,160,hexagon,0,1,,,,,,,,,,,,,,,,repeat,number,NA,j,0.3546,Hi,,,,,,4,,,,,,,,low,26,0,26,0,1,,,,,,,,,
297022,2022-11-15_17h12.47.886,vts_reward_expectancy_bt,2022.2.4,MacIntel,60.0024001,Chrome,1440,900,,,,,10,1089,,,,,,,,,,,,,,,,,U,167,star,1,1,,,,,,,,,,,,,,,,repeat,number,numRpt,k,0.5819,Lo,,,,,,4,,,,,,,,low,27,0,27,0,1,,,,,,,,,
297022,2022-11-15_17h12.47.886,vts_reward_expectancy_bt,2022.2.4,MacIntel,60.0024001,Chrome,1440,900,,,,,0,1089,,,,,,,,,,,,,,,,,S,181,hexagon,0,0,,,,,,,,,,,,,,,,switch,letter,NA,d,1.0385,Lo,,,,,,4,,,,,,,,low,28,0,28,0,1,,,,,,,,,
297022,2022-11-15_17h12.47.886,vts_reward_expectancy_bt,2022.2.4,MacIntel,60.0024001,Chrome,1440,900,,,,,0,1089,,,,,,,,,,,,,,,,,F,139,triangle,-1,1,,,,,,,,,,,,,,,,switch,no_choice,NA,,,Lo,,,,,,4,,,,,,,,low,29,0,29,0,1,,,,,,,,,
297022,2022-11-15_17h12.47.886,vts_reward_expectancy_bt,2022.2.4,MacIntel,60.0024001,Chrome,1440,900,,,,,0,1089,,,,,,,,,,,,,,,,,D,125,circle,1,0,,,,,,,,,,,,,,,,switch,letter,lettSwt,d,0.7991,Hi,,,,,,4,,,,,,,,low,30,0,30,0,1,,,,,,,,,
297022,2022-11-15_17h12.47.886,vts_reward_expectancy_bt,2022.2.4,MacIntel,60.0024001,Chrome,1440,900,,,,,1,1090,,,,,,,,,,,,,,,,,W,174,star,1,0,,,,,,,,,,,,,,,,repeat,letter,lettRpt,f,0.5688,Lo,,,,,,4,,,,,,,,low,31,0,31,0,1,,,,,,,,,
297022,2022-11-15_17h12.47.886,vts_reward_expectancy_bt,2022.2.4,MacIntel,60.0024001,Chrome,1440,900,,,,,0,1090,,,,,,,,,,,,,,,,,W,167,star,0,0,,,,,,,,,,,,,,,,switch,number,NA,j,0.3818,Lo,,,,,,5,,,,,,space,1.1122,low,0,0,0,0,1,,,,,,,,,
297022,2022-11-15_17h12.47.886,vts_reward_expectancy_bt,2022.2.4,MacIntel,60.0024001,Chrome,1440,900,,,,,1,1091,,,,,,,,,,,,,,,,,H,125,hexagon,1,1,,,,,,,,,,,,,,,,repeat,number,numRpt,j,0.7663,Lo,,,,,,5,,,,,,,,low,1,0,1,0,1,,,,,,,,,
297022,2022-11-15_17h12.47.886,vts_reward_expectancy_bt,2022.2.4,MacIntel,60.0024001,Chrome,1440,900,,,,,0,1091,,,,,,,,,,,,,,,,,S,146,circle,1,0,,,,,,,,,,,,,,,,switch,letter,lettSwt,f,0.6068,Hi,,,,,,5,,,,,,,,low,2,0,2,0,1,,,,,,,,,
297022,2022-11-15_17h12.47.886,vts_reward_expectancy_bt,2022.2.4,MacIntel,60.0024001,Chrome,1440,900,,,,,0,1091,,,,,,,,,,,,,,,,,D,132,triangle,1,0,,,,,,,,,,,,,,,,switch,number,numSwt,j,0.4648,Hi,,,,,,5,,,,,,,,low,3,0,3,0,1,,,,,,,,,
297022,2022-11-15_17h12.47.886,vts_reward_expectancy_bt,2022.2.4,MacIntel,60.0024001,Chrome,1440,900,,,,,10,1101,,,,,,,,,,,,,,,,,Y,160,star,1,0,,,,,,,,,,,,,,,,repeat,number,numRpt,k,0.4718,Lo,,,,,,5,,,,,,,,low,4,0,4,0,1,,,,,,,,,
297022,2022-11-15_17h12.47.886,vts_reward_expectancy_bt,2022.2.4,MacIntel,60.0024001,Chrome,1440,900,,,,,1,1102,,,,,,,,,,,,,,,,,B,174,hexagon,1,0,,,,,,,,,,,,,,,,switch,letter,lettSwt,d,0.4772,Lo,,,,,,5,,,,,,,,low,5,0,5,0,1,,,,,,,,,
297022,2022-11-15_17h12.47.886,vts_reward_expectancy_bt,2022.2.4,MacIntel,60.0024001,Chrome,1440,900,,,,,0,1102,,,,,,,,,,,,,,,,,U,139,circle,1,0,,,,,,,,,,,,,,,,repeat,letter,lettRpt,f,0.5037,Hi,,,,,,5,,,,,,,,low,6,0,6,0,1,,,,,,,,,
297022,2022-11-15_17h12.47.886,vts_reward_expectancy_bt,2022.2.4,MacIntel,60.0024001,Chrome,1440,900,,,,,0,1102,,,,,,,,,,,,,,,,,F,181,triangle,1,0,,,,,,,,,,,,,,,,switch,number,numSwt,k,0.485,Hi,,,,,,5,,,,,,,,low,7,0,7,0,1,,,,,,,,,
297022,2022-11-15_17h12.47.886,vts_reward_expectancy_bt,2022.2.4,MacIntel,60.0024001,Chrome,1440,900,,,,,1,1103,,,,,,,,,,,,,,,,,W,167,star,1,0,,,,,,,,,,,,,,,,repeat,number,numRpt,k,0.5497,Lo,,,,,,5,,,,,,,,low,8,0,8,0,1,,,,,,,,,
297022,2022-11-15_17h12.47.886,vts_reward_expectancy_bt,2022.2.4,MacIntel,60.0024001,Chrome,1440,900,,,,,0,1103,,,,,,,,,,,,,,,,,H,125,triangle,1,0,,,,,,,,,,,,,,,,repeat,number,numRpt,j,0.5062,Hi,,,,,,5,,,,,,,,low,9,0,9,0,1,,,,,,,,,
297022,2022-11-15_17h12.47.886,vts_reward_expectancy_bt,2022.2.4,MacIntel,60.0024001,Chrome,1440,900,,,,,10,1113,,,,,,,,,,,,,,,,,S,146,circle,1,0,,,,,,,,,,,,,,,,repeat,number,numRpt,j,0.4107,Hi,,,,,,5,,,,,,,,low,10,0,10,0,1,,,,,,,,,
297022,2022-11-15_17h12.47.886,vts_reward_expectancy_bt,2022.2.4,MacIntel,60.0024001,Chrome,1440,900,,,,,0,1113,,,,,,,,,,,,,,,,,D,132,hexagon,0,0,,,,,,,,,,,,,,,,repeat,number,NA,k,0.438,Hi,,,,,,5,,,,,,,,low,11,0,11,0,1,,,,,,,,,
297022,2022-11-15_17h12.47.886,vts_reward_expectancy_bt,2022.2.4,MacIntel,60.0024001,Chrome,1440,900,,,,,1,1114,,,,,,,,,,,,,,,,,Y,160,star,1,1,,,,,,,,,,,,,,,,repeat,number,numRpt,k,0.0663,Lo,,,,,,5,,,,,,,,low,12,0,12,0,1,,,,,,,,,
297022,2022-11-15_17h12.47.886,vts_reward_expectancy_bt,2022.2.4,MacIntel,60.0024001,Chrome,1440,900,,,,,0,1114,,,,,,,,,,,,,,,,,B,174,triangle,1,0,,,,,,,,,,,,,,,,switch,letter,lettSwt,d,1.1171,Hi,,,,,,5,,,,,,,,low,13,0,13,0,1,,,,,,,,,
297022,2022-11-15_17h12.47.886,vts_reward_expectancy_bt,2022.2.4,MacIntel,60.0024001,Chrome,1440,900,,,,,1,1115,,,,,,,,,,,,,,,,,U,139,hexagon,1,0,,,,,,,,,,,,,,,,repeat,letter,lettRpt,f,0.45,Lo,,,,,,5,,,,,,,,low,14,0,14,0,1,,,,,,,,,
297022,2022-11-15_17h12.47.886,vts_reward_expectancy_bt,2022.2.4,MacIntel,60.0024001,Chrome,1440,900,,,,,0,1115,,,,,,,,,,,,,,,,,F,181,circle,1,0,,,,,,,,,,,,,,,,repeat,letter,lettRpt,d,0.5982,Hi,,,,,,5,,,,,,,,low,15,0,15,0,1,,,,,,,,,
297022,2022-11-15_17h12.47.886,vts_reward_expectancy_bt,2022.2.4,MacIntel,60.0024001,Chrome,1440,900,,,,,0,1115,,,,,,,,,,,,,,,,,D,146,triangle,1,0,,,,,,,,,,,,,,,,repeat,letter,lettRpt,d,0.6301,Hi,,,,,,5,,,,,,,,low,16,0,16,0,1,,,,,,,,,
297022,2022-11-15_17h12.47.886,vts_reward_expectancy_bt,2022.2.4,MacIntel,60.0024001,Chrome,1440,900,,,,,0,1115,,,,,,,,,,,,,,,,,F,174,circle,1,0,,,,,,,,,,,,,,,,repeat,letter,lettRpt,d,0.6832,Hi,,,,,,5,,,,,,,,low,17,0,17,0,1,,,,,,,,,
297022,2022-11-15_17h12.47.886,vts_reward_expectancy_bt,2022.2.4,MacIntel,60.0024001,Chrome,1440,900,,,,,1,1116,,,,,,,,,,,,,,,,,U,139,hexagon,1,0,,,,,,,,,,,,,,,,repeat,letter,lettRpt,f,0.6302,Lo,,,,,,5,,,,,,,,low,18,0,18,0,1,,,,,,,,,
297022,2022-11-15_17h12.47.886,vts_reward_expectancy_bt,2022.2.4,MacIntel,60.0024001,Chrome,1440,900,,,,,1,1117,,,,,,,,,,,,,,,,,W,132,star,1,0,,,,,,,,,,,,,,,,switch,number,numSwt,j,0.466,Lo,,,,,,5,,,,,,,,low,19,0,19,0,1,,,,,,,,,
297022,2022-11-15_17h12.47.886,vts_reward_expectancy_bt,2022.2.4,MacIntel,60.0024001,Chrome,1440,900,,,,,0,1117,,,,,,,,,,,,,,,,,H,181,circle,1,0,,,,,,,,,,,,,,,,repeat,number,numRpt,k,0.6133,Hi,,,,,,5,,,,,,,,low,20,0,20,0,1,,,,,,,,,
297022,2022-11-15_17h12.47.886,vts_reward_expectancy_bt,2022.2.4,MacIntel,60.0024001,Chrome,1440,900,,,,,0,1117,,,,,,,,,,,,,,,,,Y,167,triangle,1,0,,,,,,,,,,,,,,,,repeat,number,numRpt,k,0.6611,Hi,,,,,,5,,,,,,,,low,21,0,21,0,1,,,,,,,,,
297022,2022-11-15_17h12.47.886,vts_reward_expectancy_bt,2022.2.4,MacIntel,60.0024001,Chrome,1440,900,,,,,10,1127,,,,,,,,,,,,,,,,,S,160,hexagon,1,0,,,,,,,,,,,,,,,,repeat,number,numRpt,k,0.59,Lo,,,,,,5,,,,,,,,low,22,0,22,0,1,,,,,,,,,
297022,2022-11-15_17h12.47.886,vts_reward_expectancy_bt,2022.2.4,MacIntel,60.0024001,Chrome,1440,900,,,,,10,1137,,,,,,,,,,,,,,,,,B,125,star,1,0,,,,,,,,,,,,,,,,repeat,number,numRpt,j,0.3326,Lo,,,,,,5,,,,,,,,low,23,0,23,0,1,,,,,,,,,
297022,2022-11-15_17h12.47.886,vts_reward_expectancy_bt,2022.2.4,MacIntel,60.0024001,Chrome,1440,900,,,,,0,1137,,,,,,,,,,,,,,,,,H,139,circle,0,0,,,,,,,,,,,,,,,,switch,letter,NA,f,0.466,Lo,,,,,,5,,,,,,,,low,24,0,24,0,1,,,,,,,,,
297022,2022-11-15_17h12.47.886,vts_reward_expectancy_bt,2022.2.4,MacIntel,60.0024001,Chrome,1440,900,,,,,0,1137,,,,,,,,,,,,,,,,,F,132,hexagon,0,1,,,,,,,,,,,,,,,,repeat,letter,NA,f,0.5401,Lo,,,,,,5,,,,,,,,low,25,0,25,0,1,,,,,,,,,
297022,2022-11-15_17h12.47.886,vts_reward_expectancy_bt,2022.2.4,MacIntel,60.0024001,Chrome,1440,900,,,,,0,1137,,,,,,,,,,,,,,,,,S,174,triangle,1,1,,,,,,,,,,,,,,,,repeat,letter,lettRpt,f,0.498,Hi,,,,,,5,,,,,,,,low,26,0,26,0,1,,,,,,,,,
297022,2022-11-15_17h12.47.886,vts_reward_expectancy_bt,2022.2.4,MacIntel,60.0024001,Chrome,1440,900,,,,,1,1138,,,,,,,,,,,,,,,,,D,125,star,1,0,,,,,,,,,,,,,,,,repeat,letter,lettRpt,d,0.5125,Lo,,,,,,5,,,,,,,,low,27,0,27,0,1,,,,,,,,,
297022,2022-11-15_17h12.47.886,vts_reward_expectancy_bt,2022.2.4,MacIntel,60.0024001,Chrome,1440,900,,,,,1,1139,,,,,,,,,,,,,,,,,B,146,hexagon,1,0,,,,,,,,,,,,,,,,switch,number,numSwt,j,0.4286,Lo,,,,,,5,,,,,,,,low,28,0,28,0,1,,,,,,,,,
297022,2022-11-15_17h12.47.886,vts_reward_expectancy_bt,2022.2.4,MacIntel,60.0024001,Chrome,1440,900,,,,,1,1140,,,,,,,,,,,,,,,,,U,181,star,1,0,,,,,,,,,,,,,,,,repeat,number,numRpt,k,0.4445,Lo,,,,,,5,,,,,,,,low,29,0,29,0,1,,,,,,,,,
297022,2022-11-15_17h12.47.886,vts_reward_expectancy_bt,2022.2.4,MacIntel,60.0024001,Chrome,1440,900,,,,,1,1141,,,,,,,,,,,,,,,,,W,167,circle,1,0,,,,,,,,,,,,,,,,switch,letter,lettSwt,f,0.4118,Hi,,,,,,5,,,,,,,,low,30,0,30,0,1,,,,,,,,,
297022,2022-11-15_17h12.47.886,vts_reward_expectancy_bt,2022.2.4,MacIntel,60.0024001,Chrome,1440,900,,,,,0,1141,,,,,,,,,,,,,,,,,Y,160,triangle,1,0,,,,,,,,,,,,,,,,switch,number,numSwt,k,0.471,Hi,,,,,,5,,,,,,,,low,31,0,31,0,1,,,,,,,,,
297022,2022-11-15_17h12.47.886,vts_reward_expectancy_bt,2022.2.4,MacIntel,60.0024001,Chrome,1440,900,,,,,1,1142,,,,,,,,,,,,,,,,,H,139,hexagon,1,0,,,,,,,,,,,,,,,,switch,letter,lettSwt,d,0.601,Lo,,,,,,6,,,,,,space,1.952,low,0,0,0,0,1,,,,,,,,,
297022,2022-11-15_17h12.47.886,vts_reward_expectancy_bt,2022.2.4,MacIntel,60.0024001,Chrome,1440,900,,,,,0,1142,,,,,,,,,,,,,,,,,W,160,triangle,1,0,,,,,,,,,,,,,,,,repeat,letter,lettRpt,f,0.7324,Hi,,,,,,6,,,,,,,,low,1,0,1,0,1,,,,,,,,,
297022,2022-11-15_17h12.47.886,vts_reward_expectancy_bt,2022.2.4,MacIntel,60.0024001,Chrome,1440,900,,,,,1,1143,,,,,,,,,,,,,,,,,U,174,circle,1,0,,,,,,,,,,,,,,,,repeat,letter,lettRpt,f,0.422,Hi,,,,,,6,,,,,,,,low,2,0,2,0,1,,,,,,,,,
297022,2022-11-15_17h12.47.886,vts_reward_expectancy_bt,2022.2.4,MacIntel,60.0024001,Chrome,1440,900,,,,,10,1153,,,,,,,,,,,,,,,,,S,132,star,1,0,,,,,,,,,,,,,,,,switch,number,numSwt,j,0.4725,Lo,,,,,,6,,,,,,,,low,3,0,3,0,1,,,,,,,,,
297022,2022-11-15_17h12.47.886,vts_reward_expectancy_bt,2022.2.4,MacIntel,60.0024001,Chrome,1440,900,,,,,1,1154,,,,,,,,,,,,,,,,,Y,167,hexagon,1,0,,,,,,,,,,,,,,,,repeat,number,numRpt,k,0.3478,Lo,,,,,,6,,,,,,,,low,4,0,4,0,1,,,,,,,,,
297022,2022-11-15_17h12.47.886,vts_reward_expectancy_bt,2022.2.4,MacIntel,60.0024001,Chrome,1440,900,,,,,0,1154,,,,,,,,,,,,,,,,,D,181,triangle,1,0,,,,,,,,,,,,,,,,switch,letter,lettSwt,d,0.5142,Hi,,,,,,6,,,,,,,,low,5,0,5,0,1,,,,,,,,,
297022,2022-11-15_17h12.47.886,vts_reward_expectancy_bt,2022.2.4,MacIntel,60.0024001,Chrome,1440,900,,,,,0,1154,,,,,,,,,,,,,,,,,F,125,circle,1,0,,,,,,,,,,,,,,,,repeat,letter,lettRpt,d,0.5094,Hi,,,,,,6,,,,,,,,low,6,0,6,0,1,,,,,,,,,
297022,2022-11-15_17h12.47.886,vts_reward_expectancy_bt,2022.2.4,MacIntel,60.0024001,Chrome,1440,900,,,,,10,1164,,,,,,,,,,,,,,,,,B,146,star,1,0,,,,,,,,,,,,,,,,repeat,letter,lettRpt,d,0.4629,Lo,,,,,,6,,,,,,,,low,7,0,7,0,1,,,,,,,,,
297022,2022-11-15_17h12.47.886,vts_reward_expectancy_bt,2022.2.4,MacIntel,60.0024001,Chrome,1440,900,,,,,0,1164,,,,,,,,,,,,,,,,,H,139,triangle,1,0,,,,,,,,,,,,,,,,switch,number,numSwt,j,0.4855,Hi,,,,,,6,,,,,,,,low,8,0,8,0,1,,,,,,,,,
297022,2022-11-15_17h12.47.886,vts_reward_expectancy_bt,2022.2.4,MacIntel,60.0024001,Chrome,1440,900,,,,,0,1164,,,,,,,,,,,,,,,,,W,160,circle,1,0,,,,,,,,,,,,,,,,repeat,number,numRpt,k,0.5434,Hi,,,,,,6,,,,,,,,low,9,0,9,0,1,,,,,,,,,
297022,2022-11-15_17h12.47.886,vts_reward_expectancy_bt,2022.2.4,MacIntel,60.0024001,Chrome,1440,900,,,,,0,1164,,,,,,,,,,,,,,,,,U,174,star,0,0,,,,,,,,,,,,,,,,repeat,number,NA,j,0.648,Hi,,,,,,6,,,,,,,,low,10,0,10,0,1,,,,,,,,,
297022,2022-11-15_17h12.47.886,vts_reward_expectancy_bt,2022.2.4,MacIntel,60.0024001,Chrome,1440,900,,,,,10,1174,,,,,,,,,,,,,,,,,S,132,hexagon,1,1,,,,,,,,,,,,,,,,repeat,number,numRpt,j,0.5152,Lo,,,,,,6,,,,,,,,low,11,0,11,0,1,,,,,,,,,
297022,2022-11-15_17h12.47.886,vts_reward_expectancy_bt,2022.2.4,MacIntel,60.0024001,Chrome,1440,900,,,,,1,1175,,,,,,,,,,,,,,,,,Y,167,star,1,0,,,,,,,,,,,,,,,,switch,letter,lettSwt,f,0.4961,Lo,,,,,,6,,,,,,,,low,12,0,12,0,1,,,,,,,,,
