participant,date,expName,psychopyVersion,OS,frameRate,browser,xResolution,yResolution,key_resp.keys,key_resp.rt,training_resp.keys,training_resp.rt,points_trial,points_cumul,trainBlock,training.thisRepN,training.thisTrialN,training.thisN,training.thisIndex,training.ran,LTriangleOpac,LCircleOpac,LHexagonOpac,LStarOpac,RTriangleOpac,RCircleOpac,RHexagonOpac,RStarOpac,LShape_ID,RShape_ID,curr_topStim,curr_bottStim,curr_shape,acc,E1,target_resp_prac1.keys,pracBlock,task1_prac_trials.thisRepN,task1_prac_trials.thisTrialN,task1_prac_trials.thisN,task1_prac_trials.thisIndex,task1_prac_trials.ran,target_resp_prac1.rt,target_resp_prac2.keys,task2_praac_trials.thisRepN,task2_praac_trials.thisTrialN,task2_praac_trials.thisN,task2_praac_trials.thisIndex,task2_praac_trials.ran,target_resp_prac2.rt,alt,task,condition,target_resp.keys,rewCond,vts_practice_trials.thisRepN,vts_practice_trials.thisTrialN,vts_practice_trials.thisN,vts_practice_trials.thisIndex,vts_practice_trials.ran,target_resp.rt,blockNum,trials_norew.thisRepN,trials_norew.thisTrialN,trials_norew.thisN,trials_norew.thisIndex,trials_norew.ran,key_resp_2.keys,key_resp_2.rt,rewExpectancy,trials_rew.thisRepN,trials_rew.thisTrialN,trials_rew.thisN,trials_rew.thisIndex,trials_rew.ran,Q1,Q2,Q2_text,Q3,Q4,Q5_text,Q5,xRes,yRes
297061,2022-11-15_22h04.47.402,vts_reward_expectancy_bt,2022.2.4,Win32,60.58403005,Chrome,1536,864,,,,,,,,,,,,,,,,,,,,,,,,,,,,,,,,,,,,,,,,,,,,,,,,,,,,,,,,,,,,,,,,,,,,,,,,,,,,
297061,2022-11-15_22h04.47.402,vts_reward_expectancy_bt,2022.2.4,Win32,60.58403005,Chrome,1536,864,space,13.2164,,,,,,,,,,,,,,,,,,,,,,,,,,,,,,,,,,,,,,,,,,,,,,,,,,,,,,,,,,,,,,,,,,,,,,,,,,
297061,2022-11-15_22h04.47.402,vts_reward_expectancy_bt,2022.2.4,Win32,60.58403005,Chrome,1536,864,,,,,,,,,,,,,,,,,,,,,,,,,,,,,,,,,,,,,,,,,,,,,,,,,,,,,,,,,,,,,,,,,,,,,,,,,,,,
297061,2022-11-15_22h04.47.402,vts_reward_expectancy_bt,2022.2.4,Win32,60.58403005,Chrome,1536,864,,,a,2.5638,1,1,0,0,0,0,8,1,0,0,1,0,0,0,0,1,hexagon,star,,,,,,,,,,,,,,,,,,,,,,,,,,,,,,,,,,,,,,,,,,,,,,,,,,,,,,
297061,2022-11-15_22h04.47.402,vts_reward_expectancy_bt,2022.2.4,Win32,60.58403005,Chrome,1536,864,,,a,1.8389,1,2,0,0,1,1,10,1,0,0,0,1,0,1,0,0,star ,circle,,,,,,,,,,,,,,,,,,,,,,,,,,,,,,,,,,,,,,,,,,,,,,,,,,,,,,
297061,2022-11-15_22h04.47.402,vts_reward_expectancy_bt,2022.2.4,Win32,60.58403005,Chrome,1536,864,,,l,3.143,10,12,0,0,2,2,5,1,0,1,0,0,0,0,0,1,circle,star,,,,,,,,,,,,,,,,,,,,,,,,,,,,,,,,,,,,,,,,,,,,,,,,,,,,,,
297061,2022-11-15_22h04.47.402,vts_reward_expectancy_bt,2022.2.4,Win32,60.58403005,Chrome,1536,864,,,a,1.2048,10,22,0,0,3,3,6,1,0,0,1,0,1,0,0,0,hexagon,triangle,,,,,,,,,,,,,,,,,,,,,,,,,,,,,,,,,,,,,,,,,,,,,,,,,,,,,,
297061,2022-11-15_22h04.47.402,vts_reward_expectancy_bt,2022.2.4,Win32,60.58403005,Chrome,1536,864,,,l,1.134,1,23,0,0,4,4,7,1,0,0,1,0,0,1,0,0,hexagon,circle,,,,,,,,,,,,,,,,,,,,,,,,,,,,,,,,,,,,,,,,,,,,,,,,,,,,,,
297061,2022-11-15_22h04.47.402,vts_reward_expectancy_bt,2022.2.4,Win32,60.58403005,Chrome,1536,864,,,a,0.798,1,24,0,0,5,5,0,1,1,0,0,0,0,1,0,0,triangle,circle,,,,,,,,,,,,,,,,,,,,,,,,,,,,,,,,,,,,,,,,,,,,,,,,,,,,,,
297061,2022-11-15_22h04.47.402,vts_reward_expectancy_bt,2022.2.4,Win32,60.58403005,Chrome,1536,864,,,l,1.5782,10,34,0,0,6,6,4,1,0,1,0,0,0,0,1,0,circle,hexagon,,,,,,,,,,,,,,,,,,,,,,,,,,,,,,,,,,,,,,,,,,,,,,,,,,,,,,
297061,2022-11-15_22h04.47.402,vts_reward_expectancy_bt,2022.2.4,Win32,60.58403005,Chrome,1536,864,,,l,1.5792,10,44,0,0,7,7,2,1,1,0,0,0,0,0,0,1,triangle,star,,,,,,,,,,,,,,,,,,,,,,,,,,,,,,,,,,,,,,,,,,,,,,,,,,,,,,
297061,2022-11-15_22h04.47.402,vts_reward_expectancy_bt,2022.2.4,Win32,60.58403005,Chrome,1536,864,,,l,2.3263,1,45,0,0,8,8,3,1,0,1,0,0,1,0,0,0,circle,triangle,,,,,,,,,,,,,,,,,,,,,,,,,,,,,,,,,,,,,,,,,,,,,,,,,,,,,,
297061,2022-11-15_22h04.47.402,vts_reward_expectancy_bt,2022.2.4,Win32,60.58403005,Chrome,1536,864,,,a,1.0723,10,55,0,0,9,9,9,1,0,0,0,1,1,0,0,0,star,triangle,,,,,,,,,,,,,,,,,,,,,,,,,,,,,,,,,,,,,,,,,,,,,,,,,,,,,,
297061,2022-11-15_22h04.47.402,vts_reward_expectancy_bt,2022.2.4,Win32,60.58403005,Chrome,1536,864,,,a,1.6065,1,56,0,0,10,10,1,1,1,0,0,0,0,0,1,0,triangle,hexagon,,,,,,,,,,,,,,,,,,,,,,,,,,,,,,,,,,,,,,,,,,,,,,,,,,,,,,
297061,2022-11-15_22h04.47.402,vts_reward_expectancy_bt,2022.2.4,Win32,60.58403005,Chrome,1536,864,,,a,1.3841,10,66,0,0,11,11,11,1,0,0,0,1,0,0,1,0,star,hexagon,,,,,,,,,,,,,,,,,,,,,,,,,,,,,,,,,,,,,,,,,,,,,,,,,,,,,,
297061,2022-11-15_22h04.47.402,vts_reward_expectancy_bt,2022.2.4,Win32,60.58403005,Chrome,1536,864,,,a,1.9993,10,76,0,1,0,12,11,1,0,0,0,1,0,0,1,0,star,hexagon,,,,,,,,,,,,,,,,,,,,,,,,,,,,,,,,,,,,,,,,,,,,,,,,,,,,,,
297061,2022-11-15_22h04.47.402,vts_reward_expectancy_bt,2022.2.4,Win32,60.58403005,Chrome,1536,864,,,l,1.8124,1,77,0,1,1,13,6,1,0,0,1,0,1,0,0,0,hexagon,triangle,,,,,,,,,,,,,,,,,,,,,,,,,,,,,,,,,,,,,,,,,,,,,,,,,,,,,,
297061,2022-11-15_22h04.47.402,vts_reward_expectancy_bt,2022.2.4,Win32,60.58403005,Chrome,1536,864,,,a,0.795,1,78,0,1,2,14,2,1,1,0,0,0,0,0,0,1,triangle,star,,,,,,,,,,,,,,,,,,,,,,,,,,,,,,,,,,,,,,,,,,,,,,,,,,,,,,
297061,2022-11-15_22h04.47.402,vts_reward_expectancy_bt,2022.2.4,Win32,60.58403005,Chrome,1536,864,,,a,1.3151,1,79,0,1,3,15,4,1,0,1,0,0,0,0,1,0,circle,hexagon,,,,,,,,,,,,,,,,,,,,,,,,,,,,,,,,,,,,,,,,,,,,,,,,,,,,,,
297061,2022-11-15_22h04.47.402,vts_reward_expectancy_bt,2022.2.4,Win32,60.58403005,Chrome,1536,864,,,l,1.409,10,89,0,1,4,16,5,1,0,1,0,0,0,0,0,1,circle,star,,,,,,,,,,,,,,,,,,,,,,,,,,,,,,,,,,,,,,,,,,,,,,,,,,,,,,
297061,2022-11-15_22h04.47.402,vts_reward_expectancy_bt,2022.2.4,Win32,60.58403005,Chrome,1536,864,,,l,1.0332,1,90,0,1,5,17,3,1,0,1,0,0,1,0,0,0,circle,triangle,,,,,,,,,,,,,,,,,,,,,,,,,,,,,,,,,,,,,,,,,,,,,,,,,,,,,,
297061,2022-11-15_22h04.47.402,vts_reward_expectancy_bt,2022.2.4,Win32,60.58403005,Chrome,1536,864,,,l,0.7991,1,91,0,1,6,18,8,1,0,0,1,0,0,0,0,1,hexagon,star,,,,,,,,,,,,,,,,,,,,,,,,,,,,,,,,,,,,,,,,,,,,,,,,,,,,,,
297061,2022-11-15_22h04.47.402,vts_reward_expectancy_bt,2022.2.4,Win32,60.58403005,Chrome,1536,864,,,a,4.333,1,92,0,1,7,19,7,1,0,0,1,0,0,1,0,0,hexagon,circle,,,,,,,,,,,,,,,,,,,,,,,,,,,,,,,,,,,,,,,,,,,,,,,,,,,,,,
297061,2022-11-15_22h04.47.402,vts_reward_expectancy_bt,2022.2.4,Win32,60.58403005,Chrome,1536,864,,,l,0.6971,10,102,0,1,8,20,1,1,1,0,0,0,0,0,1,0,triangle,hexagon,,,,,,,,,,,,,,,,,,,,,,,,,,,,,,,,,,,,,,,,,,,,,,,,,,,,,,
297061,2022-11-15_22h04.47.402,vts_reward_expectancy_bt,2022.2.4,Win32,60.58403005,Chrome,1536,864,,,a,0.977,10,112,0,1,9,21,10,1,0,0,0,1,0,1,0,0,star ,circle,,,,,,,,,,,,,,,,,,,,,,,,,,,,,,,,,,,,,,,,,,,,,,,,,,,,,,
297061,2022-11-15_22h04.47.402,vts_reward_expectancy_bt,2022.2.4,Win32,60.58403005,Chrome,1536,864,,,a,1.4496,1,113,0,1,10,22,0,1,1,0,0,0,0,1,0,0,triangle,circle,,,,,,,,,,,,,,,,,,,,,,,,,,,,,,,,,,,,,,,,,,,,,,,,,,,,,,
297061,2022-11-15_22h04.47.402,vts_reward_expectancy_bt,2022.2.4,Win32,60.58403005,Chrome,1536,864,,,a,0.7704,10,123,0,1,11,23,9,1,0,0,0,1,1,0,0,0,star,triangle,,,,,,,,,,,,,,,,,,,,,,,,,,,,,,,,,,,,,,,,,,,,,,,,,,,,,,
297061,2022-11-15_22h04.47.402,vts_reward_expectancy_bt,2022.2.4,Win32,60.58403005,Chrome,1536,864,,,l,0.8659,10,133,0,2,0,24,4,1,0,1,0,0,0,0,1,0,circle,hexagon,,,,,,,,,,,,,,,,,,,,,,,,,,,,,,,,,,,,,,,,,,,,,,,,,,,,,,
297061,2022-11-15_22h04.47.402,vts_reward_expectancy_bt,2022.2.4,Win32,60.58403005,Chrome,1536,864,,,l,1.6516,1,134,0,2,1,25,0,1,1,0,0,0,0,1,0,0,triangle,circle,,,,,,,,,,,,,,,,,,,,,,,,,,,,,,,,,,,,,,,,,,,,,,,,,,,,,,
297061,2022-11-15_22h04.47.402,vts_reward_expectancy_bt,2022.2.4,Win32,60.58403005,Chrome,1536,864,,,a,0.8986,10,144,0,2,2,26,3,1,0,1,0,0,1,0,0,0,circle,triangle,,,,,,,,,,,,,,,,,,,,,,,,,,,,,,,,,,,,,,,,,,,,,,,,,,,,,,
297061,2022-11-15_22h04.47.402,vts_reward_expectancy_bt,2022.2.4,Win32,60.58403005,Chrome,1536,864,,,a,1.408,1,145,0,2,3,27,11,1,0,0,0,1,0,0,1,0,star,hexagon,,,,,,,,,,,,,,,,,,,,,,,,,,,,,,,,,,,,,,,,,,,,,,,,,,,,,,
297061,2022-11-15_22h04.47.402,vts_reward_expectancy_bt,2022.2.4,Win32,60.58403005,Chrome,1536,864,,,l,0.5186,1,146,0,2,4,28,10,1,0,0,0,1,0,1,0,0,star ,circle,,,,,,,,,,,,,,,,,,,,,,,,,,,,,,,,,,,,,,,,,,,,,,,,,,,,,,
297061,2022-11-15_22h04.47.402,vts_reward_expectancy_bt,2022.2.4,Win32,60.58403005,Chrome,1536,864,,,a,0.3837,10,156,0,2,5,29,9,1,0,0,0,1,1,0,0,0,star,triangle,,,,,,,,,,,,,,,,,,,,,,,,,,,,,,,,,,,,,,,,,,,,,,,,,,,,,,
297061,2022-11-15_22h04.47.402,vts_reward_expectancy_bt,2022.2.4,Win32,60.58403005,Chrome,1536,864,,,a,0.8836,1,157,0,2,6,30,7,1,0,0,1,0,0,1,0,0,hexagon,circle,,,,,,,,,,,,,,,,,,,,,,,,,,,,,,,,,,,,,,,,,,,,,,,,,,,,,,
297061,2022-11-15_22h04.47.402,vts_reward_expectancy_bt,2022.2.4,Win32,60.58403005,Chrome,1536,864,,,a,0.4034,10,167,0,2,7,31,8,1,0,0,1,0,0,0,0,1,hexagon,star,,,,,,,,,,,,,,,,,,,,,,,,,,,,,,,,,,,,,,,,,,,,,,,,,,,,,,
297061,2022-11-15_22h04.47.402,vts_reward_expectancy_bt,2022.2.4,Win32,60.58403005,Chrome,1536,864,,,l,0.4701,1,168,0,2,8,32,6,1,0,0,1,0,1,0,0,0,hexagon,triangle,,,,,,,,,,,,,,,,,,,,,,,,,,,,,,,,,,,,,,,,,,,,,,,,,,,,,,
297061,2022-11-15_22h04.47.402,vts_reward_expectancy_bt,2022.2.4,Win32,60.58403005,Chrome,1536,864,,,a,0.0518,10,178,0,2,9,33,5,1,0,1,0,0,0,0,0,1,circle,star,,,,,,,,,,,,,,,,,,,,,,,,,,,,,,,,,,,,,,,,,,,,,,,,,,,,,,
297061,2022-11-15_22h04.47.402,vts_reward_expectancy_bt,2022.2.4,Win32,60.58403005,Chrome,1536,864,,,l,0.5512,10,188,0,2,10,34,2,1,1,0,0,0,0,0,0,1,triangle,star,,,,,,,,,,,,,,,,,,,,,,,,,,,,,,,,,,,,,,,,,,,,,,,,,,,,,,
297061,2022-11-15_22h04.47.402,vts_reward_expectancy_bt,2022.2.4,Win32,60.58403005,Chrome,1536,864,,,l,0.6148,10,198,0,2,11,35,1,1,1,0,0,0,0,0,1,0,triangle,hexagon,,,,,,,,,,,,,,,,,,,,,,,,,,,,,,,,,,,,,,,,,,,,,,,,,,,,,,
297061,2022-11-15_22h04.47.402,vts_reward_expectancy_bt,2022.2.4,Win32,60.58403005,Chrome,1536,864,,,a,2.2642,1,199,1,0,0,0,2,1,1,0,0,0,0,0,0,1,triangle,star,,,,,,,,,,,,,,,,,,,,,,,,,,,,,,,,,,,,,,,,,,,,,,,,,,,,,,
297061,2022-11-15_22h04.47.402,vts_reward_expectancy_bt,2022.2.4,Win32,60.58403005,Chrome,1536,864,,,a,0.8039,1,200,1,0,1,1,10,1,0,0,0,1,0,1,0,0,star ,circle,,,,,,,,,,,,,,,,,,,,,,,,,,,,,,,,,,,,,,,,,,,,,,,,,,,,,,
297061,2022-11-15_22h04.47.402,vts_reward_expectancy_bt,2022.2.4,Win32,60.58403005,Chrome,1536,864,,,l,0.8422,10,210,1,0,2,2,8,1,0,0,1,0,0,0,0,1,hexagon,star,,,,,,,,,,,,,,,,,,,,,,,,,,,,,,,,,,,,,,,,,,,,,,,,,,,,,,
297061,2022-11-15_22h04.47.402,vts_reward_expectancy_bt,2022.2.4,Win32,60.58403005,Chrome,1536,864,,,a,1.9171,10,220,1,0,3,3,9,1,0,0,0,1,1,0,0,0,star,triangle,,,,,,,,,,,,,,,,,,,,,,,,,,,,,,,,,,,,,,,,,,,,,,,,,,,,,,
297061,2022-11-15_22h04.47.402,vts_reward_expectancy_bt,2022.2.4,Win32,60.58403005,Chrome,1536,864,,,l,1.0936,10,230,1,0,4,4,5,1,0,1,0,0,0,0,0,1,circle,star,,,,,,,,,,,,,,,,,,,,,,,,,,,,,,,,,,,,,,,,,,,,,,,,,,,,,,
297061,2022-11-15_22h04.47.402,vts_reward_expectancy_bt,2022.2.4,Win32,60.58403005,Chrome,1536,864,,,a,0.9502,1,231,1,0,5,5,0,1,1,0,0,0,0,1,0,0,triangle,circle,,,,,,,,,,,,,,,,,,,,,,,,,,,,,,,,,,,,,,,,,,,,,,,,,,,,,,
297061,2022-11-15_22h04.47.402,vts_reward_expectancy_bt,2022.2.4,Win32,60.58403005,Chrome,1536,864,,,a,0.5824,10,241,1,0,6,6,11,1,0,0,0,1,0,0,1,0,star,hexagon,,,,,,,,,,,,,,,,,,,,,,,,,,,,,,,,,,,,,,,,,,,,,,,,,,,,,,
297061,2022-11-15_22h04.47.402,vts_reward_expectancy_bt,2022.2.4,Win32,60.58403005,Chrome,1536,864,,,a,0.9582,10,251,1,0,7,7,7,1,0,0,1,0,0,1,0,0,hexagon,circle,,,,,,,,,,,,,,,,,,,,,,,,,,,,,,,,,,,,,,,,,,,,,,,,,,,,,,
297061,2022-11-15_22h04.47.402,vts_reward_expectancy_bt,2022.2.4,Win32,60.58403005,Chrome,1536,864,,,l,0.6006,1,252,1,0,8,8,3,1,0,1,0,0,1,0,0,0,circle,triangle,,,,,,,,,,,,,,,,,,,,,,,,,,,,,,,,,,,,,,,,,,,,,,,,,,,,,,
297061,2022-11-15_22h04.47.402,vts_reward_expectancy_bt,2022.2.4,Win32,60.58403005,Chrome,1536,864,,,a,0.3984,1,253,1,0,9,9,4,1,0,1,0,0,0,0,1,0,circle,hexagon,,,,,,,,,,,,,,,,,,,,,,,,,,,,,,,,,,,,,,,,,,,,,,,,,,,,,,
297061,2022-11-15_22h04.47.402,vts_reward_expectancy_bt,2022.2.4,Win32,60.58403005,Chrome,1536,864,,,l,0.6716,10,263,1,0,10,10,1,1,1,0,0,0,0,0,1,0,triangle,hexagon,,,,,,,,,,,,,,,,,,,,,,,,,,,,,,,,,,,,,,,,,,,,,,,,,,,,,,
297061,2022-11-15_22h04.47.402,vts_reward_expectancy_bt,2022.2.4,Win32,60.58403005,Chrome,1536,864,,,a,1.2177,10,273,1,0,11,11,6,1,0,0,1,0,1,0,0,0,hexagon,triangle,,,,,,,,,,,,,,,,,,,,,,,,,,,,,,,,,,,,,,,,,,,,,,,,,,,,,,
297061,2022-11-15_22h04.47.402,vts_reward_expectancy_bt,2022.2.4,Win32,60.58403005,Chrome,1536,864,,,l,0.9066,10,283,1,1,0,12,2,1,1,0,0,0,0,0,0,1,triangle,star,,,,,,,,,,,,,,,,,,,,,,,,,,,,,,,,,,,,,,,,,,,,,,,,,,,,,,
297061,2022-11-15_22h04.47.402,vts_reward_expectancy_bt,2022.2.4,Win32,60.58403005,Chrome,1536,864,,,l,0.6209,1,284,1,1,1,13,8,1,0,0,1,0,0,0,0,1,hexagon,star,,,,,,,,,,,,,,,,,,,,,,,,,,,,,,,,,,,,,,,,,,,,,,,,,,,,,,
297061,2022-11-15_22h04.47.402,vts_reward_expectancy_bt,2022.2.4,Win32,60.58403005,Chrome,1536,864,,,l,0.7972,10,294,1,1,2,14,1,1,1,0,0,0,0,0,1,0,triangle,hexagon,,,,,,,,,,,,,,,,,,,,,,,,,,,,,,,,,,,,,,,,,,,,,,,,,,,,,,
297061,2022-11-15_22h04.47.402,vts_reward_expectancy_bt,2022.2.4,Win32,60.58403005,Chrome,1536,864,,,a,2.5323,1,295,1,1,3,15,6,1,0,0,1,0,1,0,0,0,hexagon,triangle,,,,,,,,,,,,,,,,,,,,,,,,,,,,,,,,,,,,,,,,,,,,,,,,,,,,,,
297061,2022-11-15_22h04.47.402,vts_reward_expectancy_bt,2022.2.4,Win32,60.58403005,Chrome,1536,864,,,a,1.4265,1,296,1,1,4,16,10,1,0,0,0,1,0,1,0,0,star ,circle,,,,,,,,,,,,,,,,,,,,,,,,,,,,,,,,,,,,,,,,,,,,,,,,,,,,,,
297061,2022-11-15_22h04.47.402,vts_reward_expectancy_bt,2022.2.4,Win32,60.58403005,Chrome,1536,864,,,l,0.4725,1,297,1,1,5,17,3,1,0,1,0,0,1,0,0,0,circle,triangle,,,,,,,,,,,,,,,,,,,,,,,,,,,,,,,,,,,,,,,,,,,,,,,,,,,,,,
297061,2022-11-15_22h04.47.402,vts_reward_expectancy_bt,2022.2.4,Win32,60.58403005,Chrome,1536,864,,,l,0.9596,10,307,1,1,6,18,4,1,0,1,0,0,0,0,1,0,circle,hexagon,,,,,,,,,,,,,,,,,,,,,,,,,,,,,,,,,,,,,,,,,,,,,,,,,,,,,,
297061,2022-11-15_22h04.47.402,vts_reward_expectancy_bt,2022.2.4,Win32,60.58403005,Chrome,1536,864,,,a,1.8035,1,308,1,1,7,19,7,1,0,0,1,0,0,1,0,0,hexagon,circle,,,,,,,,,,,,,,,,,,,,,,,,,,,,,,,,,,,,,,,,,,,,,,,,,,,,,,
297061,2022-11-15_22h04.47.402,vts_reward_expectancy_bt,2022.2.4,Win32,60.58403005,Chrome,1536,864,,,l,2.3394,1,309,1,1,8,20,9,1,0,0,0,1,1,0,0,0,star,triangle,,,,,,,,,,,,,,,,,,,,,,,,,,,,,,,,,,,,,,,,,,,,,,,,,,,,,,
297061,2022-11-15_22h04.47.402,vts_reward_expectancy_bt,2022.2.4,Win32,60.58403005,Chrome,1536,864,,,a,0.4144,1,310,1,1,9,21,0,1,1,0,0,0,0,1,0,0,triangle,circle,,,,,,,,,,,,,,,,,,,,,,,,,,,,,,,,,,,,,,,,,,,,,,,,,,,,,,
297061,2022-11-15_22h04.47.402,vts_reward_expectancy_bt,2022.2.4,Win32,60.58403005,Chrome,1536,864,,,l,0.4109,10,320,1,1,10,22,5,1,0,1,0,0,0,0,0,1,circle,star,,,,,,,,,,,,,,,,,,,,,,,,,,,,,,,,,,,,,,,,,,,,,,,,,,,,,,
297061,2022-11-15_22h04.47.402,vts_reward_expectancy_bt,2022.2.4,Win32,60.58403005,Chrome,1536,864,,,a,0.6758,10,330,1,1,11,23,11,1,0,0,0,1,0,0,1,0,star,hexagon,,,,,,,,,,,,,,,,,,,,,,,,,,,,,,,,,,,,,,,,,,,,,,,,,,,,,,
297061,2022-11-15_22h04.47.402,vts_reward_expectancy_bt,2022.2.4,Win32,60.58403005,Chrome,1536,864,,,l,1.1417,1,331,1,2,0,24,3,1,0,1,0,0,1,0,0,0,circle,triangle,,,,,,,,,,,,,,,,,,,,,,,,,,,,,,,,,,,,,,,,,,,,,,,,,,,,,,
297061,2022-11-15_22h04.47.402,vts_reward_expectancy_bt,2022.2.4,Win32,60.58403005,Chrome,1536,864,,,l,2.0039,10,341,1,2,1,25,8,1,0,0,1,0,0,0,0,1,hexagon,star,,,,,,,,,,,,,,,,,,,,,,,,,,,,,,,,,,,,,,,,,,,,,,,,,,,,,,
297061,2022-11-15_22h04.47.402,vts_reward_expectancy_bt,2022.2.4,Win32,60.58403005,Chrome,1536,864,,,a,1.8298,10,351,1,2,2,26,10,1,0,0,0,1,0,1,0,0,star ,circle,,,,,,,,,,,,,,,,,,,,,,,,,,,,,,,,,,,,,,,,,,,,,,,,,,,,,,
297061,2022-11-15_22h04.47.402,vts_reward_expectancy_bt,2022.2.4,Win32,60.58403005,Chrome,1536,864,,,a,1.0097,10,361,1,2,3,27,7,1,0,0,1,0,0,1,0,0,hexagon,circle,,,,,,,,,,,,,,,,,,,,,,,,,,,,,,,,,,,,,,,,,,,,,,,,,,,,,,
297061,2022-11-15_22h04.47.402,vts_reward_expectancy_bt,2022.2.4,Win32,60.58403005,Chrome,1536,864,,,l,0.6475,10,371,1,2,4,28,1,1,1,0,0,0,0,0,1,0,triangle,hexagon,,,,,,,,,,,,,,,,,,,,,,,,,,,,,,,,,,,,,,,,,,,,,,,,,,,,,,
297061,2022-11-15_22h04.47.402,vts_reward_expectancy_bt,2022.2.4,Win32,60.58403005,Chrome,1536,864,,,l,0.5046,10,381,1,2,5,29,5,1,0,1,0,0,0,0,0,1,circle,star,,,,,,,,,,,,,,,,,,,,,,,,,,,,,,,,,,,,,,,,,,,,,,,,,,,,,,
297061,2022-11-15_22h04.47.402,vts_reward_expectancy_bt,2022.2.4,Win32,60.58403005,Chrome,1536,864,,,l,0.5516,10,391,1,2,6,30,4,1,0,1,0,0,0,0,1,0,circle,hexagon,,,,,,,,,,,,,,,,,,,,,,,,,,,,,,,,,,,,,,,,,,,,,,,,,,,,,,
297061,2022-11-15_22h04.47.402,vts_reward_expectancy_bt,2022.2.4,Win32,60.58403005,Chrome,1536,864,,,a,0.7172,10,401,1,2,7,31,6,1,0,0,1,0,1,0,0,0,hexagon,triangle,,,,,,,,,,,,,,,,,,,,,,,,,,,,,,,,,,,,,,,,,,,,,,,,,,,,,,
297061,2022-11-15_22h04.47.402,vts_reward_expectancy_bt,2022.2.4,Win32,60.58403005,Chrome,1536,864,,,l,0.869,10,411,1,2,8,32,2,1,1,0,0,0,0,0,0,1,triangle,star,,,,,,,,,,,,,,,,,,,,,,,,,,,,,,,,,,,,,,,,,,,,,,,,,,,,,,
297061,2022-11-15_22h04.47.402,vts_reward_expectancy_bt,2022.2.4,Win32,60.58403005,Chrome,1536,864,,,a,0.7173,10,421,1,2,9,33,9,1,0,0,0,1,1,0,0,0,star,triangle,,,,,,,,,,,,,,,,,,,,,,,,,,,,,,,,,,,,,,,,,,,,,,,,,,,,,,
297061,2022-11-15_22h04.47.402,vts_reward_expectancy_bt,2022.2.4,Win32,60.58403005,Chrome,1536,864,,,l,0.9306,10,431,1,2,10,34,11,1,0,0,0,1,0,0,1,0,star,hexagon,,,,,,,,,,,,,,,,,,,,,,,,,,,,,,,,,,,,,,,,,,,,,,,,,,,,,,
297061,2022-11-15_22h04.47.402,vts_reward_expectancy_bt,2022.2.4,Win32,60.58403005,Chrome,1536,864,,,a,1.5338,1,432,1,2,11,35,0,1,1,0,0,0,0,1,0,0,triangle,circle,,,,,,,,,,,,,,,,,,,,,,,,,,,,,,,,,,,,,,,,,,,,,,,,,,,,,,
297061,2022-11-15_22h04.47.402,vts_reward_expectancy_bt,2022.2.4,Win32,60.58403005,Chrome,1536,864,,,a,1.2471,10,442,2,0,0,0,0,1,1,0,0,0,0,1,0,0,triangle,circle,,,,,,,,,,,,,,,,,,,,,,,,,,,,,,,,,,,,,,,,,,,,,,,,,,,,,,
297061,2022-11-15_22h04.47.402,vts_reward_expectancy_bt,2022.2.4,Win32,60.58403005,Chrome,1536,864,,,a,0.6996,1,443,2,0,1,1,11,1,0,0,0,1,0,0,1,0,star,hexagon,,,,,,,,,,,,,,,,,,,,,,,,,,,,,,,,,,,,,,,,,,,,,,,,,,,,,,
297061,2022-11-15_22h04.47.402,vts_reward_expectancy_bt,2022.2.4,Win32,60.58403005,Chrome,1536,864,,,l,0.8485,10,453,2,0,2,2,1,1,1,0,0,0,0,0,1,0,triangle,hexagon,,,,,,,,,,,,,,,,,,,,,,,,,,,,,,,,,,,,,,,,,,,,,,,,,,,,,,
297061,2022-11-15_22h04.47.402,vts_reward_expectancy_bt,2022.2.4,Win32,60.58403005,Chrome,1536,864,,,l,13.421,10,463,2,0,3,3,8,1,0,0,1,0,0,0,0,1,hexagon,star,,,,,,,,,,,,,,,,,,,,,,,,,,,,,,,,,,,,,,,,,,,,,,,,,,,,,,
297061,2022-11-15_22h04.47.402,vts_reward_expectancy_bt,2022.2.4,Win32,60.58403005,Chrome,1536,864,,,l,3.0458,10,473,2,0,4,4,5,1,0,1,0,0,0,0,0,1,circle,star,,,,,,,,,,,,,,,,,,,,,,,,,,,,,,,,,,,,,,,,,,,,,,,,,,,,,,
297061,2022-11-15_22h04.47.402,vts_reward_expectancy_bt,2022.2.4,Win32,60.58403005,Chrome,1536,864,,,l,5.2484,1,474,2,0,5,5,3,1,0,1,0,0,1,0,0,0,circle,triangle,,,,,,,,,,,,,,,,,,,,,,,,,,,,,,,,,,,,,,,,,,,,,,,,,,,,,,
297061,2022-11-15_22h04.47.402,vts_reward_expectancy_bt,2022.2.4,Win32,60.58403005,Chrome,1536,864,,,a,1.132,10,484,2,0,6,6,6,1,0,0,1,0,1,0,0,0,hexagon,triangle,,,,,,,,,,,,,,,,,,,,,,,,,,,,,,,,,,,,,,,,,,,,,,,,,,,,,,
297061,2022-11-15_22h04.47.402,vts_reward_expectancy_bt,2022.2.4,Win32,60.58403005,Chrome,1536,864,,,l,1.3649,10,494,2,0,7,7,2,1,1,0,0,0,0,0,0,1,triangle,star,,,,,,,,,,,,,,,,,,,,,,,,,,,,,,,,,,,,,,,,,,,,,,,,,,,,,,
297061,2022-11-15_22h04.47.402,vts_reward_expectancy_bt,2022.2.4,Win32,60.58403005,Chrome,1536,864,,,l,2.2569,10,504,2,0,8,8,4,1,0,1,0,0,0,0,1,0,circle,hexagon,,,,,,,,,,,,,,,,,,,,,,,,,,,,,,,,,,,,,,,,,,,,,,,,,,,,,,
297061,2022-11-15_22h04.47.402,vts_reward_expectancy_bt,2022.2.4,Win32,60.58403005,Chrome,1536,864,,,a,0.5382,10,514,2,0,9,9,9,1,0,0,0,1,1,0,0,0,star,triangle,,,,,,,,,,,,,,,,,,,,,,,,,,,,,,,,,,,,,,,,,,,,,,,,,,,,,,
297061,2022-11-15_22h04.47.402,vts_reward_expectancy_bt,2022.2.4,Win32,60.58403005,Chrome,1536,864,,,a,0.6656,1,515,2,0,10,10,7,1,0,0,1,0,0,1,0,0,hexagon,circle,,,,,,,,,,,,,,,,,,,,,,,,,,,,,,,,,,,,,,,,,,,,,,,,,,,,,,
297061,2022-11-15_22h04.47.402,vts_reward_expectancy_bt,2022.2.4,Win32,60.58403005,Chrome,1536,864,,,a,2.0638,1,516,2,0,11,11,10,1,0,0,0,1,0,1,0,0,star ,circle,,,,,,,,,,,,,,,,,,,,,,,,,,,,,,,,,,,,,,,,,,,,,,,,,,,,,,
297061,2022-11-15_22h04.47.402,vts_reward_expectancy_bt,2022.2.4,Win32,60.58403005,Chrome,1536,864,,,l,0.4017,10,526,2,1,0,12,8,1,0,0,1,0,0,0,0,1,hexagon,star,,,,,,,,,,,,,,,,,,,,,,,,,,,,,,,,,,,,,,,,,,,,,,,,,,,,,,
297061,2022-11-15_22h04.47.402,vts_reward_expectancy_bt,2022.2.4,Win32,60.58403005,Chrome,1536,864,,,a,0.675,10,536,2,1,1,13,9,1,0,0,0,1,1,0,0,0,star,triangle,,,,,,,,,,,,,,,,,,,,,,,,,,,,,,,,,,,,,,,,,,,,,,,,,,,,,,
297061,2022-11-15_22h04.47.402,vts_reward_expectancy_bt,2022.2.4,Win32,60.58403005,Chrome,1536,864,,,l,1.1763,1,537,2,1,2,14,2,1,1,0,0,0,0,0,0,1,triangle,star,,,,,,,,,,,,,,,,,,,,,,,,,,,,,,,,,,,,,,,,,,,,,,,,,,,,,,
297061,2022-11-15_22h04.47.402,vts_reward_expectancy_bt,2022.2.4,Win32,60.58403005,Chrome,1536,864,,,l,2.1389,10,547,2,1,3,15,3,1,0,1,0,0,1,0,0,0,circle,triangle,,,,,,,,,,,,,,,,,,,,,,,,,,,,,,,,,,,,,,,,,,,,,,,,,,,,,,
297061,2022-11-15_22h04.47.402,vts_reward_expectancy_bt,2022.2.4,Win32,60.58403005,Chrome,1536,864,,,l,0.6911,10,557,2,1,4,16,4,1,0,1,0,0,0,0,1,0,circle,hexagon,,,,,,,,,,,,,,,,,,,,,,,,,,,,,,,,,,,,,,,,,,,,,,,,,,,,,,
297061,2022-11-15_22h04.47.402,vts_reward_expectancy_bt,2022.2.4,Win32,60.58403005,Chrome,1536,864,,,l,0.8538,1,558,2,1,5,17,1,1,1,0,0,0,0,0,1,0,triangle,hexagon,,,,,,,,,,,,,,,,,,,,,,,,,,,,,,,,,,,,,,,,,,,,,,,,,,,,,,
297061,2022-11-15_22h04.47.402,vts_reward_expectancy_bt,2022.2.4,Win32,60.58403005,Chrome,1536,864,,,a,0.9471,1,559,2,1,6,18,10,1,0,0,0,1,0,1,0,0,star ,circle,,,,,,,,,,,,,,,,,,,,,,,,,,,,,,,,,,,,,,,,,,,,,,,,,,,,,,
297061,2022-11-15_22h04.47.402,vts_reward_expectancy_bt,2022.2.4,Win32,60.58403005,Chrome,1536,864,,,a,0.7682,10,569,2,1,7,19,11,1,0,0,0,1,0,0,1,0,star,hexagon,,,,,,,,,,,,,,,,,,,,,,,,,,,,,,,,,,,,,,,,,,,,,,,,,,,,,,
297061,2022-11-15_22h04.47.402,vts_reward_expectancy_bt,2022.2.4,Win32,60.58403005,Chrome,1536,864,,,a,0.9297,10,579,2,1,8,20,7,1,0,0,1,0,0,1,0,0,hexagon,circle,,,,,,,,,,,,,,,,,,,,,,,,,,,,,,,,,,,,,,,,,,,,,,,,,,,,,,
297061,2022-11-15_22h04.47.402,vts_reward_expectancy_bt,2022.2.4,Win32,60.58403005,Chrome,1536,864,,,a,3.9704,1,580,2,1,9,21,6,1,0,0,1,0,1,0,0,0,hexagon,triangle,,,,,,,,,,,,,,,,,,,,,,,,,,,,,,,,,,,,,,,,,,,,,,,,,,,,,,
297061,2022-11-15_22h04.47.402,vts_reward_expectancy_bt,2022.2.4,Win32,60.58403005,Chrome,1536,864,,,l,4.5504,1,581,2,1,10,22,0,1,1,0,0,0,0,1,0,0,triangle,circle,,,,,,,,,,,,,,,,,,,,,,,,,,,,,,,,,,,,,,,,,,,,,,,,,,,,,,
297061,2022-11-15_22h04.47.402,vts_reward_expectancy_bt,2022.2.4,Win32,60.58403005,Chrome,1536,864,,,l,0.7827,10,591,2,1,11,23,5,1,0,1,0,0,0,0,0,1,circle,star,,,,,,,,,,,,,,,,,,,,,,,,,,,,,,,,,,,,,,,,,,,,,,,,,,,,,,
297061,2022-11-15_22h04.47.402,vts_reward_expectancy_bt,2022.2.4,Win32,60.58403005,Chrome,1536,864,,,a,0.4444,10,601,2,2,0,24,10,1,0,0,0,1,0,1,0,0,star ,circle,,,,,,,,,,,,,,,,,,,,,,,,,,,,,,,,,,,,,,,,,,,,,,,,,,,,,,
297061,2022-11-15_22h04.47.402,vts_reward_expectancy_bt,2022.2.4,Win32,60.58403005,Chrome,1536,864,,,l,11.803,1,602,2,2,1,25,3,1,0,1,0,0,1,0,0,0,circle,triangle,,,,,,,,,,,,,,,,,,,,,,,,,,,,,,,,,,,,,,,,,,,,,,,,,,,,,,
297061,2022-11-15_22h04.47.402,vts_reward_expectancy_bt,2022.2.4,Win32,60.58403005,Chrome,1536,864,,,a,1.0885,10,612,2,2,2,26,7,1,0,0,1,0,0,1,0,0,hexagon,circle,,,,,,,,,,,,,,,,,,,,,,,,,,,,,,,,,,,,,,,,,,,,,,,,,,,,,,
297061,2022-11-15_22h04.47.402,vts_reward_expectancy_bt,2022.2.4,Win32,60.58403005,Chrome,1536,864,,,l,1.3637,10,622,2,2,3,27,8,1,0,0,1,0,0,0,0,1,hexagon,star,,,,,,,,,,,,,,,,,,,,,,,,,,,,,,,,,,,,,,,,,,,,,,,,,,,,,,
297061,2022-11-15_22h04.47.402,vts_reward_expectancy_bt,2022.2.4,Win32,60.58403005,Chrome,1536,864,,,l,29.0449,10,632,2,2,4,28,6,1,0,0,1,0,1,0,0,0,hexagon,triangle,,,,,,,,,,,,,,,,,,,,,,,,,,,,,,,,,,,,,,,,,,,,,,,,,,,,,,
297061,2022-11-15_22h04.47.402,vts_reward_expectancy_bt,2022.2.4,Win32,60.58403005,Chrome,1536,864,,,l,0.6258,10,642,2,2,5,29,2,1,1,0,0,0,0,0,0,1,triangle,star,,,,,,,,,,,,,,,,,,,,,,,,,,,,,,,,,,,,,,,,,,,,,,,,,,,,,,
297061,2022-11-15_22h04.47.402,vts_reward_expectancy_bt,2022.2.4,Win32,60.58403005,Chrome,1536,864,,,l,3.4019,10,652,2,2,6,30,5,1,0,1,0,0,0,0,0,1,circle,star,,,,,,,,,,,,,,,,,,,,,,,,,,,,,,,,,,,,,,,,,,,,,,,,,,,,,,
297061,2022-11-15_22h04.47.402,vts_reward_expectancy_bt,2022.2.4,Win32,60.58403005,Chrome,1536,864,,,l,0.703,10,662,2,2,7,31,4,1,0,1,0,0,0,0,1,0,circle,hexagon,,,,,,,,,,,,,,,,,,,,,,,,,,,,,,,,,,,,,,,,,,,,,,,,,,,,,,
297061,2022-11-15_22h04.47.402,vts_reward_expectancy_bt,2022.2.4,Win32,60.58403005,Chrome,1536,864,,,a,0.6164,10,672,2,2,8,32,9,1,0,0,0,1,1,0,0,0,star,triangle,,,,,,,,,,,,,,,,,,,,,,,,,,,,,,,,,,,,,,,,,,,,,,,,,,,,,,
297061,2022-11-15_22h04.47.402,vts_reward_expectancy_bt,2022.2.4,Win32,60.58403005,Chrome,1536,864,,,l,0.7502,1,673,2,2,9,33,0,1,1,0,0,0,0,1,0,0,triangle,circle,,,,,,,,,,,,,,,,,,,,,,,,,,,,,,,,,,,,,,,,,,,,,,,,,,,,,,
297061,2022-11-15_22h04.47.402,vts_reward_expectancy_bt,2022.2.4,Win32,60.58403005,Chrome,1536,864,,,l,0.6008,10,683,2,2,10,34,1,1,1,0,0,0,0,0,1,0,triangle,hexagon,,,,,,,,,,,,,,,,,,,,,,,,,,,,,,,,,,,,,,,,,,,,,,,,,,,,,,
297061,2022-11-15_22h04.47.402,vts_reward_expectancy_bt,2022.2.4,Win32,60.58403005,Chrome,1536,864,,,a,1.0917,10,693,2,2,11,35,11,1,0,0,0,1,0,0,1,0,star,hexagon,,,,,,,,,,,,,,,,,,,,,,,,,,,,,,,,,,,,,,,,,,,,,,,,,,,,,,
297061,2022-11-15_22h04.47.402,vts_reward_expectancy_bt,2022.2.4,Win32,60.58403005,Chrome,1536,864,,,,,,,,,,,,,,,,,,,,,,,181,B,triangle,0,0,,0,0,0,0,0,1,,,,,,,,,,,,,,,,,,,,,,,,,,,,,,,,,,,,,,,,,,
297061,2022-11-15_22h04.47.402,vts_reward_expectancy_bt,2022.2.4,Win32,60.58403005,Chrome,1536,864,,,,,,,,,,,,,,,,,,,,,,,174,U,circle,0,1,d,0,1,0,1,0,1,1.0403,,,,,,,,,,,,,,,,,,,,,,,,,,,,,,,,,,,,,,,,,
297061,2022-11-15_22h04.47.402,vts_reward_expectancy_bt,2022.2.4,Win32,60.58403005,Chrome,1536,864,,,,,,,,,,,,,,,,,,,,,,,146,F,hexagon,1,1,d,0,2,0,2,0,1,0.7788,,,,,,,,,,,,,,,,,,,,,,,,,,,,,,,,,,,,,,,,,
297061,2022-11-15_22h04.47.402,vts_reward_expectancy_bt,2022.2.4,Win32,60.58403005,Chrome,1536,864,,,,,,,,,,,,,,,,,,,,,,,160,H,star,0,0,d,0,3,0,3,0,1,1.5272,,,,,,,,,,,,,,,,,,,,,,,,,,,,,,,,,,,,,,,,,
297061,2022-11-15_22h04.47.402,vts_reward_expectancy_bt,2022.2.4,Win32,60.58403005,Chrome,1536,864,,,,,,,,,,,,,,,,,,,,,,,167,S,triangle,0,1,d,0,4,0,4,0,1,1.23,,,,,,,,,,,,,,,,,,,,,,,,,,,,,,,,,,,,,,,,,
297061,2022-11-15_22h04.47.402,vts_reward_expectancy_bt,2022.2.4,Win32,60.58403005,Chrome,1536,864,,,,,,,,,,,,,,,,,,,,,,,139,W,circle,1,1,d,0,5,0,5,0,1,0.9182,,,,,,,,,,,,,,,,,,,,,,,,,,,,,,,,,,,,,,,,,
297061,2022-11-15_22h04.47.402,vts_reward_expectancy_bt,2022.2.4,Win32,60.58403005,Chrome,1536,864,,,,,,,,,,,,,,,,,,,,,,,125,Y,hexagon,0,0,f,0,6,0,6,0,1,2.5452,,,,,,,,,,,,,,,,,,,,,,,,,,,,,,,,,,,,,,,,,
297061,2022-11-15_22h04.47.402,vts_reward_expectancy_bt,2022.2.4,Win32,60.58403005,Chrome,1536,864,,,,,,,,,,,,,,,,,,,,,,,132,D,star,0,1,f,0,7,0,7,0,1,1.3533,,,,,,,,,,,,,,,,,,,,,,,,,,,,,,,,,,,,,,,,,
297061,2022-11-15_22h04.47.402,vts_reward_expectancy_bt,2022.2.4,Win32,60.58403005,Chrome,1536,864,,,,,,,,,,,,,,,,,,,,,,,181,B,triangle,1,1,f,0,8,0,8,0,1,0.6778,,,,,,,,,,,,,,,,,,,,,,,,,,,,,,,,,,,,,,,,,
297061,2022-11-15_22h04.47.402,vts_reward_expectancy_bt,2022.2.4,Win32,60.58403005,Chrome,1536,864,,,,,,,,,,,,,,,,,,,,,,,174,U,hexagon,0,0,d,0,9,0,9,0,1,2.0279,,,,,,,,,,,,,,,,,,,,,,,,,,,,,,,,,,,,,,,,,
297061,2022-11-15_22h04.47.402,vts_reward_expectancy_bt,2022.2.4,Win32,60.58403005,Chrome,1536,864,,,,,,,,,,,,,,,,,,,,,,,174,B,hexagon,1,1,f,1,0,0,0,0,1,2.5622,,,,,,,,,,,,,,,,,,,,,,,,,,,,,,,,,,,,,,,,,
297061,2022-11-15_22h04.47.402,vts_reward_expectancy_bt,2022.2.4,Win32,60.58403005,Chrome,1536,864,,,,,,,,,,,,,,,,,,,,,,,160,H,triangle,1,0,f,1,1,0,1,0,1,1.685,,,,,,,,,,,,,,,,,,,,,,,,,,,,,,,,,,,,,,,,,
297061,2022-11-15_22h04.47.402,vts_reward_expectancy_bt,2022.2.4,Win32,60.58403005,Chrome,1536,864,,,,,,,,,,,,,,,,,,,,,,,167,W,circle,1,0,f,1,2,0,2,0,1,0.9962,,,,,,,,,,,,,,,,,,,,,,,,,,,,,,,,,,,,,,,,,
297061,2022-11-15_22h04.47.402,vts_reward_expectancy_bt,2022.2.4,Win32,60.58403005,Chrome,1536,864,,,,,,,,,,,,,,,,,,,,,,,181,F,star,1,0,f,1,3,0,3,0,1,0.9041,,,,,,,,,,,,,,,,,,,,,,,,,,,,,,,,,,,,,,,,,
297061,2022-11-15_22h04.47.402,vts_reward_expectancy_bt,2022.2.4,Win32,60.58403005,Chrome,1536,864,,,,,,,,,,,,,,,,,,,,,,,139,S,hexagon,1,0,d,1,4,0,4,0,1,1.5383,,,,,,,,,,,,,,,,,,,,,,,,,,,,,,,,,,,,,,,,,
297061,2022-11-15_22h04.47.402,vts_reward_expectancy_bt,2022.2.4,Win32,60.58403005,Chrome,1536,864,,,,,,,,,,,,,,,,,,,,,,,125,D,triangle,1,0,d,1,5,0,5,0,1,2.1945,,,,,,,,,,,,,,,,,,,,,,,,,,,,,,,,,,,,,,,,,
297061,2022-11-15_22h04.47.402,vts_reward_expectancy_bt,2022.2.4,Win32,60.58403005,Chrome,1536,864,,,,,,,,,,,,,,,,,,,,,,,132,U,circle,1,0,d,1,6,0,6,0,1,1.1787,,,,,,,,,,,,,,,,,,,,,,,,,,,,,,,,,,,,,,,,,
297061,2022-11-15_22h04.47.402,vts_reward_expectancy_bt,2022.2.4,Win32,60.58403005,Chrome,1536,864,,,,,,,,,,,,,,,,,,,,,,,146,Y,star,1,0,d,1,7,0,7,0,1,1.2385,,,,,,,,,,,,,,,,,,,,,,,,,,,,,,,,,,,,,,,,,
297061,2022-11-15_22h04.47.402,vts_reward_expectancy_bt,2022.2.4,Win32,60.58403005,Chrome,1536,864,,,,,,,,,,,,,,,,,,,,,,,174,B,star,1,0,f,1,8,0,8,0,1,1.0485,,,,,,,,,,,,,,,,,,,,,,,,,,,,,,,,,,,,,,,,,
297061,2022-11-15_22h04.47.402,vts_reward_expectancy_bt,2022.2.4,Win32,60.58403005,Chrome,1536,864,,,,,,,,,,,,,,,,,,,,,,,160,H,triangle,1,0,f,1,9,0,9,0,1,1.1978,,,,,,,,,,,,,,,,,,,,,,,,,,,,,,,,,,,,,,,,,
297061,2022-11-15_22h04.47.402,vts_reward_expectancy_bt,2022.2.4,Win32,60.58403005,Chrome,1536,864,,,,,,,,,,,,,,,,,,,,,,,125,F,hexagon,0,0,,2,,,,,,,,0,0,0,0,1,,,,,,,,,,,,,,,,,,,,,,,,,,,,,,,,,,,
297061,2022-11-15_22h04.47.402,vts_reward_expectancy_bt,2022.2.4,Win32,60.58403005,Chrome,1536,864,,,,,,,,,,,,,,,,,,,,,,,160,D,triangle,1,1,,2,,,,,,,j,1,0,1,0,1,0.8189,,,,,,,,,,,,,,,,,,,,,,,,,,,,,,,,,,
297061,2022-11-15_22h04.47.402,vts_reward_expectancy_bt,2022.2.4,Win32,60.58403005,Chrome,1536,864,,,,,,,,,,,,,,,,,,,,,,,167,Y,circle,1,0,,2,,,,,,,k,2,0,2,0,1,0.6998,,,,,,,,,,,,,,,,,,,,,,,,,,,,,,,,,,
297061,2022-11-15_22h04.47.402,vts_reward_expectancy_bt,2022.2.4,Win32,60.58403005,Chrome,1536,864,,,,,,,,,,,,,,,,,,,,,,,146,S,star,1,0,,2,,,,,,,k,3,0,3,0,1,1.083,,,,,,,,,,,,,,,,,,,,,,,,,,,,,,,,,,
297061,2022-11-15_22h04.47.402,vts_reward_expectancy_bt,2022.2.4,Win32,60.58403005,Chrome,1536,864,,,,,,,,,,,,,,,,,,,,,,,139,U,hexagon,0,0,,2,,,,,,,,4,0,4,0,1,,,,,,,,,,,,,,,,,,,,,,,,,,,,,,,,,,,
297061,2022-11-15_22h04.47.402,vts_reward_expectancy_bt,2022.2.4,Win32,60.58403005,Chrome,1536,864,,,,,,,,,,,,,,,,,,,,,,,181,H,triangle,1,1,,2,,,,,,,j,5,0,5,0,1,2.1286,,,,,,,,,,,,,,,,,,,,,,,,,,,,,,,,,,
297061,2022-11-15_22h04.47.402,vts_reward_expectancy_bt,2022.2.4,Win32,60.58403005,Chrome,1536,864,,,,,,,,,,,,,,,,,,,,,,,132,W,circle,1,0,,2,,,,,,,k,6,0,6,0,1,0.849,,,,,,,,,,,,,,,,,,,,,,,,,,,,,,,,,,
297061,2022-11-15_22h04.47.402,vts_reward_expectancy_bt,2022.2.4,Win32,60.58403005,Chrome,1536,864,,,,,,,,,,,,,,,,,,,,,,,174,B,star,1,0,,2,,,,,,,j,7,0,7,0,1,0.8062,,,,,,,,,,,,,,,,,,,,,,,,,,,,,,,,,,
297061,2022-11-15_22h04.47.402,vts_reward_expectancy_bt,2022.2.4,Win32,60.58403005,Chrome,1536,864,,,,,,,,,,,,,,,,,,,,,,,125,F,circle,1,0,,2,,,,,,,j,8,0,8,0,1,1.4013,,,,,,,,,,,,,,,,,,,,,,,,,,,,,,,,,,
297061,2022-11-15_22h04.47.402,vts_reward_expectancy_bt,2022.2.4,Win32,60.58403005,Chrome,1536,864,,,,,,,,,,,,,,,,,,,,,,,160,D,star,1,0,,2,,,,,,,j,9,0,9,0,1,1.0933,,,,,,,,,,,,,,,,,,,,,,,,,,,,,,,,,,
297061,2022-11-15_22h04.47.402,vts_reward_expectancy_bt,2022.2.4,Win32,60.58403005,Chrome,1536,864,,,,,,,,,,,,,,,,,,,,,,,181,F,hexagon,1,0,,3,,,,,,,j,0,0,0,0,1,2.2164,,,,,,,,,,,,,,,,,,,,,,,,,,,,,,,,,,
297061,2022-11-15_22h04.47.402,vts_reward_expectancy_bt,2022.2.4,Win32,60.58403005,Chrome,1536,864,,,,,,,,,,,,,,,,,,,,,,,160,H,triangle,1,0,,3,,,,,,,j,1,0,1,0,1,1.0506,,,,,,,,,,,,,,,,,,,,,,,,,,,,,,,,,,
297061,2022-11-15_22h04.47.402,vts_reward_expectancy_bt,2022.2.4,Win32,60.58403005,Chrome,1536,864,,,,,,,,,,,,,,,,,,,,,,,167,Y,star,1,0,,3,,,,,,,k,2,0,2,0,1,1.166,,,,,,,,,,,,,,,,,,,,,,,,,,,,,,,,,,
297061,2022-11-15_22h04.47.402,vts_reward_expectancy_bt,2022.2.4,Win32,60.58403005,Chrome,1536,864,,,,,,,,,,,,,,,,,,,,,,,174,W,circle,1,0,,3,,,,,,,k,3,0,3,0,1,0.8771,,,,,,,,,,,,,,,,,,,,,,,,,,,,,,,,,,
297061,2022-11-15_22h04.47.402,vts_reward_expectancy_bt,2022.2.4,Win32,60.58403005,Chrome,1536,864,,,,,,,,,,,,,,,,,,,,,,,146,U,hexagon,1,0,,3,,,,,,,k,4,0,4,0,1,0.9001,,,,,,,,,,,,,,,,,,,,,,,,,,,,,,,,,,
297061,2022-11-15_22h04.47.402,vts_reward_expectancy_bt,2022.2.4,Win32,60.58403005,Chrome,1536,864,,,,,,,,,,,,,,,,,,,,,,,132,D,triangle,1,0,,3,,,,,,,j,5,0,5,0,1,1.7836,,,,,,,,,,,,,,,,,,,,,,,,,,,,,,,,,,
297061,2022-11-15_22h04.47.402,vts_reward_expectancy_bt,2022.2.4,Win32,60.58403005,Chrome,1536,864,,,,,,,,,,,,,,,,,,,,,,,139,B,star,1,0,,3,,,,,,,j,6,0,6,0,1,0.9234,,,,,,,,,,,,,,,,,,,,,,,,,,,,,,,,,,
297061,2022-11-15_22h04.47.402,vts_reward_expectancy_bt,2022.2.4,Win32,60.58403005,Chrome,1536,864,,,,,,,,,,,,,,,,,,,,,,,125,S,circle,1,0,,3,,,,,,,k,7,0,7,0,1,1.1119,,,,,,,,,,,,,,,,,,,,,,,,,,,,,,,,,,
297061,2022-11-15_22h04.47.402,vts_reward_expectancy_bt,2022.2.4,Win32,60.58403005,Chrome,1536,864,,,,,,,,,,,,,,,,,,,,,,,181,F,hexagon,1,0,,3,,,,,,,j,8,0,8,0,1,2.7161,,,,,,,,,,,,,,,,,,,,,,,,,,,,,,,,,,
297061,2022-11-15_22h04.47.402,vts_reward_expectancy_bt,2022.2.4,Win32,60.58403005,Chrome,1536,864,,,,,,,,,,,,,,,,,,,,,,,160,H,triangle,1,0,,3,,,,,,,j,9,0,9,0,1,1.3504,,,,,,,,,,,,,,,,,,,,,,,,,,,,,,,,,,
297061,2022-11-15_22h04.47.402,vts_reward_expectancy_bt,2022.2.4,Win32,60.58403005,Chrome,1536,864,,,,,0,693,,,,,,,,,,,,,,,,,167,H,triangle,-1,0,,4,,,,,,,,,,,,,,-1,no_choice,NA,,vtsPrac,0,0,0,0,1,,,,,,,,,,,,,,,,,,,,,,,,
297061,2022-11-15_22h04.47.402,vts_reward_expectancy_bt,2022.2.4,Win32,60.58403005,Chrome,1536,864,,,,,0,693,,,,,,,,,,,,,,,,,174,W,circle,1,0,,4,,,,,,,,,,,,,,switch,letter,lettSwt,k,vtsPrac,1,0,1,0,1,1.4803,,,,,,,,,,,,,,,,,,,,,,,
297061,2022-11-15_22h04.47.402,vts_reward_expectancy_bt,2022.2.4,Win32,60.58403005,Chrome,1536,864,,,,,0,693,,,,,,,,,,,,,,,,,181,F,triangle,-1,0,,4,,,,,,,,,,,,,,switch,no_choice,NA,,vtsPrac,2,0,2,0,1,,,,,,,,,,,,,,,,,,,,,,,,
297061,2022-11-15_22h04.47.402,vts_reward_expectancy_bt,2022.2.4,Win32,60.58403005,Chrome,1536,864,,,,,0,693,,,,,,,,,,,,,,,,,146,B,circle,1,0,,4,,,,,,,,,,,,,,switch,letter,lettSwt,j,vtsPrac,3,0,3,0,1,0.9326,,,,,,,,,,,,,,,,,,,,,,,
297061,2022-11-15_22h04.47.402,vts_reward_expectancy_bt,2022.2.4,Win32,60.58403005,Chrome,1536,864,,,,,0,693,,,,,,,,,,,,,,,,,167,H,star,1,0,,4,,,,,,,,,,,,,,repeat,letter,lettRpt,j,vtsPrac,4,0,4,0,1,1.0609,,,,,,,,,,,,,,,,,,,,,,,
297061,2022-11-15_22h04.47.402,vts_reward_expectancy_bt,2022.2.4,Win32,60.58403005,Chrome,1536,864,,,,,0,693,,,,,,,,,,,,,,,,,174,W,hexagon,1,0,,4,,,,,,,,,,,,,,switch,number,numSwt,f,vtsPrac,5,0,5,0,1,2.7031,,,,,,,,,,,,,,,,,,,,,,,
297061,2022-11-15_22h04.47.402,vts_reward_expectancy_bt,2022.2.4,Win32,60.58403005,Chrome,1536,864,,,,,0,693,,,,,,,,,,,,,,,,,181,F,hexagon,1,0,,4,,,,,,,,,,,,,,switch,letter,lettSwt,j,vtsPrac,6,0,6,0,1,1.2571,,,,,,,,,,,,,,,,,,,,,,,
297061,2022-11-15_22h04.47.402,vts_reward_expectancy_bt,2022.2.4,Win32,60.58403005,Chrome,1536,864,,,,,0,693,,,,,,,,,,,,,,,,,146,B,triangle,1,0,,4,,,,,,,,,,,,,,switch,number,numSwt,d,vtsPrac,7,0,7,0,1,2.3376,,,,,,,,,,,,,,,,,,,,,,,
297061,2022-11-15_22h04.47.402,vts_reward_expectancy_bt,2022.2.4,Win32,60.58403005,Chrome,1536,864,,,,,0,693,,,,,,,,,,,,,,,,,125,W,triangle,1,0,,4,,,,,,,,,,,,,,switch,letter,lettSwt,k,vtsPrac,8,0,8,0,1,1.0989,,,,,,,,,,,,,,,,,,,,,,,
297061,2022-11-15_22h04.47.402,vts_reward_expectancy_bt,2022.2.4,Win32,60.58403005,Chrome,1536,864,,,,,0,693,,,,,,,,,,,,,,,,,132,U,hexagon,1,0,,4,,,,,,,,,,,,,,repeat,letter,lettRpt,k,vtsPrac,9,0,9,0,1,0.7971,,,,,,,,,,,,,,,,,,,,,,,
297061,2022-11-15_22h04.47.402,vts_reward_expectancy_bt,2022.2.4,Win32,60.58403005,Chrome,1536,864,,,,,0,693,,,,,,,,,,,,,,,,,146,Y,triangle,1,0,,4,,,,,,,,,,,,,,switch,number,numSwt,d,vtsPrac,10,0,10,0,1,1.2356,,,,,,,,,,,,,,,,,,,,,,,
297061,2022-11-15_22h04.47.402,vts_reward_expectancy_bt,2022.2.4,Win32,60.58403005,Chrome,1536,864,,,,,0,693,,,,,,,,,,,,,,,,,181,H,star,1,0,,4,,,,,,,,,,,,,,repeat,number,numRpt,f,vtsPrac,11,0,11,0,1,0.9786,,,,,,,,,,,,,,,,,,,,,,,
297061,2022-11-15_22h04.47.402,vts_reward_expectancy_bt,2022.2.4,Win32,60.58403005,Chrome,1536,864,,,,,0,693,,,,,,,,,,,,,,,,,181,D,triangle,1,0,,4,,,,,,,,,,,,,,repeat,number,numRpt,f,vtsPrac,12,0,12,0,1,1.0192,,,,,,,,,,,,,,,,,,,,,,,
297061,2022-11-15_22h04.47.402,vts_reward_expectancy_bt,2022.2.4,Win32,60.58403005,Chrome,1536,864,,,,,0,693,,,,,,,,,,,,,,,,,139,F,circle,1,0,,4,,,,,,,,,,,,,,switch,letter,lettSwt,j,vtsPrac,13,0,13,0,1,2.0383,,,,,,,,,,,,,,,,,,,,,,,
297061,2022-11-15_22h04.47.402,vts_reward_expectancy_bt,2022.2.4,Win32,60.58403005,Chrome,1536,864,,,,,0,693,,,,,,,,,,,,,,,,,132,S,circle,1,0,,4,,,,,,,,,,,,,,repeat,letter,lettRpt,k,vtsPrac,14,0,14,0,1,0.7707,,,,,,,,,,,,,,,,,,,,,,,
297061,2022-11-15_22h04.47.402,vts_reward_expectancy_bt,2022.2.4,Win32,60.58403005,Chrome,1536,864,,,,,0,693,,,,,,,,,,,,,,,,,160,H,hexagon,1,0,,4,,,,,,,,,,,,,,repeat,letter,lettRpt,j,vtsPrac,15,0,15,0,1,1.4036,,,,,,,,,,,,,,,,,,,,,,,
297061,2022-11-15_22h04.47.402,vts_reward_expectancy_bt,2022.2.4,Win32,60.58403005,Chrome,1536,864,,,,,0,693,,,,,,,,,,,,,,,,,132,W,hexagon,0,0,,4,,,,,,,,,,,,,,switch,number,NA,f,vtsPrac,16,0,16,0,1,1.2347,,,,,,,,,,,,,,,,,,,,,,,
297061,2022-11-15_22h04.47.402,vts_reward_expectancy_bt,2022.2.4,Win32,60.58403005,Chrome,1536,864,,,,,0,693,,,,,,,,,,,,,,,,,181,U,triangle,1,1,,4,,,,,,,,,,,,,,switch,letter,lettSwt,k,vtsPrac,17,0,17,0,1,0.8466,,,,,,,,,,,,,,,,,,,,,,,
297061,2022-11-15_22h04.47.402,vts_reward_expectancy_bt,2022.2.4,Win32,60.58403005,Chrome,1536,864,,,,,0,693,,,,,,,,,,,,,,,,,125,B,star,1,0,,4,,,,,,,,,,,,,,switch,number,numSwt,d,vtsPrac,18,0,18,0,1,1.3655,,,,,,,,,,,,,,,,,,,,,,,
297061,2022-11-15_22h04.47.402,vts_reward_expectancy_bt,2022.2.4,Win32,60.58403005,Chrome,1536,864,,,,,0,693,,,,,,,,,,,,,,,,,160,S,triangle,1,0,,4,,,,,,,,,,,,,,repeat,number,numRpt,f,vtsPrac,19,0,19,0,1,1.6213,,,,,,,,,,,,,,,,,,,,,,,
297061,2022-11-15_22h04.47.402,vts_reward_expectancy_bt,2022.2.4,Win32,60.58403005,Chrome,1536,864,,,,,0,693,,,,,,,,,,,,,,,,,132,H,circle,1,0,,4,,,,,,,,,,,,,,switch,letter,lettSwt,j,vtsPrac,20,0,20,0,1,1.3822,,,,,,,,,,,,,,,,,,,,,,,
297061,2022-11-15_22h04.47.402,vts_reward_expectancy_bt,2022.2.4,Win32,60.58403005,Chrome,1536,864,,,,,0,693,,,,,,,,,,,,,,,,,160,W,hexagon,1,0,,4,,,,,,,,,,,,,,repeat,letter,lettRpt,k,vtsPrac,21,0,21,0,1,2.1621,,,,,,,,,,,,,,,,,,,,,,,
297061,2022-11-15_22h04.47.402,vts_reward_expectancy_bt,2022.2.4,Win32,60.58403005,Chrome,1536,864,,,,,0,693,,,,,,,,,,,,,,,,,181,B,triangle,1,0,,4,,,,,,,,,,,,,,repeat,letter,lettRpt,j,vtsPrac,22,0,22,0,1,1.8623,,,,,,,,,,,,,,,,,,,,,,,
297061,2022-11-15_22h04.47.402,vts_reward_expectancy_bt,2022.2.4,Win32,60.58403005,Chrome,1536,864,,,,,0,693,,,,,,,,,,,,,,,,,146,U,hexagon,1,0,,4,,,,,,,,,,,,,,repeat,letter,lettRpt,k,vtsPrac,23,0,23,0,1,0.7205,,,,,,,,,,,,,,,,,,,,,,,
297061,2022-11-15_22h04.47.402,vts_reward_expectancy_bt,2022.2.4,Win32,60.58403005,Chrome,1536,864,,,,,0,693,,,,,,,,,,,,,,,,,181,H,triangle,1,0,,4,,,,,,,,,,,,,,repeat,letter,lettRpt,j,vtsPrac,24,0,24,0,1,2.7781,,,,,,,,,,,,,,,,,,,,,,,
297061,2022-11-15_22h04.47.402,vts_reward_expectancy_bt,2022.2.4,Win32,60.58403005,Chrome,1536,864,,,,,0,693,,,,,,,,,,,,,,,,,167,D,circle,-1,0,,4,,,,,,,,,,,,,,switch,no_choice,NA,,vtsPrac,25,0,25,0,1,,,,,,,,,,,,,,,,,,,,,,,,
297061,2022-11-15_22h04.47.402,vts_reward_expectancy_bt,2022.2.4,Win32,60.58403005,Chrome,1536,864,,,,,0,693,,,,,,,,,,,,,,,,,132,F,hexagon,1,0,,4,,,,,,,,,,,,,,switch,letter,lettSwt,j,vtsPrac,26,0,26,0,1,1.7235,,,,,,,,,,,,,,,,,,,,,,,
297061,2022-11-15_22h04.47.402,vts_reward_expectancy_bt,2022.2.4,Win32,60.58403005,Chrome,1536,864,,,,,0,693,,,,,,,,,,,,,,,,,160,B,star,1,0,,4,,,,,,,,,,,,,,repeat,letter,lettRpt,j,vtsPrac,27,0,27,0,1,1.2179,,,,,,,,,,,,,,,,,,,,,,,
297061,2022-11-15_22h04.47.402,vts_reward_expectancy_bt,2022.2.4,Win32,60.58403005,Chrome,1536,864,,,,,0,693,,,,,,,,,,,,,,,,,181,U,circle,1,0,,4,,,,,,,,,,,,,,repeat,letter,lettRpt,k,vtsPrac,28,0,28,0,1,2.9264,,,,,,,,,,,,,,,,,,,,,,,
297061,2022-11-15_22h04.47.402,vts_reward_expectancy_bt,2022.2.4,Win32,60.58403005,Chrome,1536,864,,,,,0,693,,,,,,,,,,,,,,,,,132,S,triangle,-1,0,,4,,,,,,,,,,,,,,switch,no_choice,NA,,vtsPrac,29,0,29,0,1,,,,,,,,,,,,,,,,,,,,,,,,
297061,2022-11-15_22h04.47.402,vts_reward_expectancy_bt,2022.2.4,Win32,60.58403005,Chrome,1536,864,,,,,0,693,,,,,,,,,,,,,,,,,160,D,triangle,1,0,,4,,,,,,,,,,,,,,switch,letter,lettSwt,j,vtsPrac,30,0,30,0,1,1.0309,,,,,,,,,,,,,,,,,,,,,,,
297061,2022-11-15_22h04.47.402,vts_reward_expectancy_bt,2022.2.4,Win32,60.58403005,Chrome,1536,864,,,,,0,693,,,,,,,,,,,,,,,,,139,W,hexagon,-1,0,,4,,,,,,,,,,,,,,switch,no_choice,NA,,vtsPrac,31,0,31,0,1,,,,,,,,,,,,,,,,,,,,,,,,
297061,2022-11-15_22h04.47.402,vts_reward_expectancy_bt,2022.2.4,Win32,60.58403005,Chrome,1536,864,,,,,,,,,,,,,,,,,,,,,,,,,,,,,,,,,,,,,,,,,,,,,,,,,,,,,,,,,,,,,,,,,,,,,,,,,,,,
297061,2022-11-15_22h04.47.402,vts_reward_expectancy_bt,2022.2.4,Win32,60.58403005,Chrome,1536,864,,,,,,,,,,,,,,,,,,,,,,,,,,,,,,,,,,,,,,,,,,,,,,,,,,,,,,,,,,,,,,,,,,,,,,,,,,,,
297061,2022-11-15_22h04.47.402,vts_reward_expectancy_bt,2022.2.4,Win32,60.58403005,Chrome,1536,864,,,,,0,693,,,,,,,,,,,,,,,,,139,H,circle,-1,0,,,,,,,,,,,,,,,,repeat,no_choice,NA,,noRew,,,,,,,0,0,0,0,0,1,,,,,,,,,,,,,,,,,
297061,2022-11-15_22h04.47.402,vts_reward_expectancy_bt,2022.2.4,Win32,60.58403005,Chrome,1536,864,,,,,0,693,,,,,,,,,,,,,,,,,132,S,hexagon,1,0,,,,,,,,,,,,,,,,switch,letter,lettSwt,k,noRew,,,,,,2.9168,0,1,0,1,0,1,,,,,,,,,,,,,,,,,
297061,2022-11-15_22h04.47.402,vts_reward_expectancy_bt,2022.2.4,Win32,60.58403005,Chrome,1536,864,,,,,0,693,,,,,,,,,,,,,,,,,174,Y,circle,1,0,,,,,,,,,,,,,,,,repeat,letter,lettRpt,k,noRew,,,,,,1.0529,0,2,0,2,0,1,,,,,,,,,,,,,,,,,
297061,2022-11-15_22h04.47.402,vts_reward_expectancy_bt,2022.2.4,Win32,60.58403005,Chrome,1536,864,,,,,0,693,,,,,,,,,,,,,,,,,181,B,hexagon,1,0,,,,,,,,,,,,,,,,repeat,letter,lettRpt,j,noRew,,,,,,2.8607,0,3,0,3,0,1,,,,,,,,,,,,,,,,,
297061,2022-11-15_22h04.47.402,vts_reward_expectancy_bt,2022.2.4,Win32,60.58403005,Chrome,1536,864,,,,,0,693,,,,,,,,,,,,,,,,,139,H,star,1,0,,,,,,,,,,,,,,,,repeat,letter,lettRpt,j,noRew,,,,,,1.8015,0,4,0,4,0,1,,,,,,,,,,,,,,,,,
297061,2022-11-15_22h04.47.402,vts_reward_expectancy_bt,2022.2.4,Win32,60.58403005,Chrome,1536,864,,,,,0,693,,,,,,,,,,,,,,,,,132,S,circle,1,0,,,,,,,,,,,,,,,,repeat,letter,lettRpt,k,noRew,,,,,,2.1866,0,5,0,5,0,1,,,,,,,,,,,,,,,,,
297061,2022-11-15_22h04.47.402,vts_reward_expectancy_bt,2022.2.4,Win32,60.58403005,Chrome,1536,864,,,,,0,693,,,,,,,,,,,,,,,,,174,Y,star,1,0,,,,,,,,,,,,,,,,repeat,letter,lettRpt,k,noRew,,,,,,0.817,0,6,0,6,0,1,,,,,,,,,,,,,,,,,
297061,2022-11-15_22h04.47.402,vts_reward_expectancy_bt,2022.2.4,Win32,60.58403005,Chrome,1536,864,,,,,0,693,,,,,,,,,,,,,,,,,181,B,circle,1,0,,,,,,,,,,,,,,,,repeat,letter,lettRpt,j,noRew,,,,,,0.8284,0,7,0,7,0,1,,,,,,,,,,,,,,,,,
297061,2022-11-15_22h04.47.402,vts_reward_expectancy_bt,2022.2.4,Win32,60.58403005,Chrome,1536,864,,,,,0,693,,,,,,,,,,,,,,,,,167,F,hexagon,1,0,,,,,,,,,,,,,,,,switch,number,numSwt,f,noRew,,,,,,2.9446,0,8,0,8,0,1,,,,,,,,,,,,,,,,,
297061,2022-11-15_22h04.47.402,vts_reward_expectancy_bt,2022.2.4,Win32,60.58403005,Chrome,1536,864,,,,,0,693,,,,,,,,,,,,,,,,,181,U,circle,1,0,,,,,,,,,,,,,,,,switch,letter,lettSwt,k,noRew,,,,,,1.0828,0,9,0,9,0,1,,,,,,,,,,,,,,,,,
297061,2022-11-15_22h04.47.402,vts_reward_expectancy_bt,2022.2.4,Win32,60.58403005,Chrome,1536,864,,,,,0,693,,,,,,,,,,,,,,,,,125,B,star,1,0,,,,,,,,,,,,,,,,repeat,letter,lettRpt,j,noRew,,,,,,1.0458,0,10,0,10,0,1,,,,,,,,,,,,,,,,,
297061,2022-11-15_22h04.47.402,vts_reward_expectancy_bt,2022.2.4,Win32,60.58403005,Chrome,1536,864,,,,,0,693,,,,,,,,,,,,,,,,,139,Y,circle,1,0,,,,,,,,,,,,,,,,repeat,letter,lettRpt,k,noRew,,,,,,0.8686,0,11,0,11,0,1,,,,,,,,,,,,,,,,,
297061,2022-11-15_22h04.47.402,vts_reward_expectancy_bt,2022.2.4,Win32,60.58403005,Chrome,1536,864,,,,,0,693,,,,,,,,,,,,,,,,,132,S,star,1,0,,,,,,,,,,,,,,,,repeat,letter,lettRpt,k,noRew,,,,,,1.0844,0,12,0,12,0,1,,,,,,,,,,,,,,,,,
297061,2022-11-15_22h04.47.402,vts_reward_expectancy_bt,2022.2.4,Win32,60.58403005,Chrome,1536,864,,,,,0,693,,,,,,,,,,,,,,,,,181,F,circle,1,0,,,,,,,,,,,,,,,,repeat,letter,lettRpt,j,noRew,,,,,,1.5955,0,13,0,13,0,1,,,,,,,,,,,,,,,,,
297061,2022-11-15_22h04.47.402,vts_reward_expectancy_bt,2022.2.4,Win32,60.58403005,Chrome,1536,864,,,,,0,693,,,,,,,,,,,,,,,,,139,W,triangle,1,0,,,,,,,,,,,,,,,,repeat,letter,lettRpt,k,noRew,,,,,,0.9136,0,14,0,14,0,1,,,,,,,,,,,,,,,,,
297061,2022-11-15_22h04.47.402,vts_reward_expectancy_bt,2022.2.4,Win32,60.58403005,Chrome,1536,864,,,,,0,693,,,,,,,,,,,,,,,,,146,D,hexagon,1,0,,,,,,,,,,,,,,,,repeat,letter,lettRpt,j,noRew,,,,,,0.7488,0,15,0,15,0,1,,,,,,,,,,,,,,,,,
297061,2022-11-15_22h04.47.402,vts_reward_expectancy_bt,2022.2.4,Win32,60.58403005,Chrome,1536,864,,,,,0,693,,,,,,,,,,,,,,,,,132,Y,circle,1,0,,,,,,,,,,,,,,,,repeat,letter,lettRpt,k,noRew,,,,,,0.7116,0,16,0,16,0,1,,,,,,,,,,,,,,,,,
297061,2022-11-15_22h04.47.402,vts_reward_expectancy_bt,2022.2.4,Win32,60.58403005,Chrome,1536,864,,,,,0,693,,,,,,,,,,,,,,,,,139,H,triangle,1,0,,,,,,,,,,,,,,,,repeat,letter,lettRpt,j,noRew,,,,,,0.7206,0,17,0,17,0,1,,,,,,,,,,,,,,,,,
297061,2022-11-15_22h04.47.402,vts_reward_expectancy_bt,2022.2.4,Win32,60.58403005,Chrome,1536,864,,,,,0,693,,,,,,,,,,,,,,,,,167,U,circle,1,0,,,,,,,,,,,,,,,,switch,number,numSwt,f,noRew,,,,,,0.9,0,18,0,18,0,1,,,,,,,,,,,,,,,,,
297061,2022-11-15_22h04.47.402,vts_reward_expectancy_bt,2022.2.4,Win32,60.58403005,Chrome,1536,864,,,,,0,693,,,,,,,,,,,,,,,,,174,F,hexagon,1,0,,,,,,,,,,,,,,,,repeat,number,numRpt,f,noRew,,,,,,2.4279,0,19,0,19,0,1,,,,,,,,,,,,,,,,,
297061,2022-11-15_22h04.47.402,vts_reward_expectancy_bt,2022.2.4,Win32,60.58403005,Chrome,1536,864,,,,,0,693,,,,,,,,,,,,,,,,,160,U,hexagon,1,0,,,,,,,,,,,,,,,,switch,letter,lettSwt,k,noRew,,,,,,0.9748,0,20,0,20,0,1,,,,,,,,,,,,,,,,,
297061,2022-11-15_22h04.47.402,vts_reward_expectancy_bt,2022.2.4,Win32,60.58403005,Chrome,1536,864,,,,,0,693,,,,,,,,,,,,,,,,,167,Y,circle,-1,0,,,,,,,,,,,,,,,,switch,no_choice,NA,,noRew,,,,,,,0,21,0,21,0,1,,,,,,,,,,,,,,,,,
297061,2022-11-15_22h04.47.402,vts_reward_expectancy_bt,2022.2.4,Win32,60.58403005,Chrome,1536,864,,,,,0,693,,,,,,,,,,,,,,,,,139,W,hexagon,1,0,,,,,,,,,,,,,,,,switch,letter,lettSwt,k,noRew,,,,,,0.7789,0,22,0,22,0,1,,,,,,,,,,,,,,,,,
297061,2022-11-15_22h04.47.402,vts_reward_expectancy_bt,2022.2.4,Win32,60.58403005,Chrome,1536,864,,,,,0,693,,,,,,,,,,,,,,,,,125,D,star,1,0,,,,,,,,,,,,,,,,repeat,letter,lettRpt,j,noRew,,,,,,1.1373,0,23,0,23,0,1,,,,,,,,,,,,,,,,,
297061,2022-11-15_22h04.47.402,vts_reward_expectancy_bt,2022.2.4,Win32,60.58403005,Chrome,1536,864,,,,,0,693,,,,,,,,,,,,,,,,,125,D,hexagon,-1,0,,,,,,,,,,,,,,,,switch,no_choice,NA,,noRew,,,,,,,0,24,0,24,0,1,,,,,,,,,,,,,,,,,
297061,2022-11-15_22h04.47.402,vts_reward_expectancy_bt,2022.2.4,Win32,60.58403005,Chrome,1536,864,,,,,0,693,,,,,,,,,,,,,,,,,160,S,triangle,1,0,,,,,,,,,,,,,,,,switch,number,numSwt,f,noRew,,,,,,1.6008,0,25,0,25,0,1,,,,,,,,,,,,,,,,,
297061,2022-11-15_22h04.47.402,vts_reward_expectancy_bt,2022.2.4,Win32,60.58403005,Chrome,1536,864,,,,,0,693,,,,,,,,,,,,,,,,,174,H,star,1,0,,,,,,,,,,,,,,,,switch,letter,lettSwt,j,noRew,,,,,,1.1474,0,26,0,26,0,1,,,,,,,,,,,,,,,,,
297061,2022-11-15_22h04.47.402,vts_reward_expectancy_bt,2022.2.4,Win32,60.58403005,Chrome,1536,864,,,,,0,693,,,,,,,,,,,,,,,,,167,U,circle,1,0,,,,,,,,,,,,,,,,switch,number,numSwt,f,noRew,,,,,,2.2276,0,27,0,27,0,1,,,,,,,,,,,,,,,,,
297061,2022-11-15_22h04.47.402,vts_reward_expectancy_bt,2022.2.4,Win32,60.58403005,Chrome,1536,864,,,,,0,693,,,,,,,,,,,,,,,,,146,D,hexagon,0,0,,,,,,,,,,,,,,,,switch,letter,NA,k,noRew,,,,,,2.6642,0,28,0,28,0,1,,,,,,,,,,,,,,,,,
297061,2022-11-15_22h04.47.402,vts_reward_expectancy_bt,2022.2.4,Win32,60.58403005,Chrome,1536,864,,,,,0,693,,,,,,,,,,,,,,,,,125,Y,triangle,1,1,,,,,,,,,,,,,,,,repeat,letter,lettRpt,k,noRew,,,,,,1.0641,0,29,0,29,0,1,,,,,,,,,,,,,,,,,
297061,2022-11-15_22h04.47.402,vts_reward_expectancy_bt,2022.2.4,Win32,60.58403005,Chrome,1536,864,,,,,0,693,,,,,,,,,,,,,,,,,167,B,star,1,0,,,,,,,,,,,,,,,,switch,number,numSwt,f,noRew,,,,,,2.5775,0,30,0,30,0,1,,,,,,,,,,,,,,,,,
297061,2022-11-15_22h04.47.402,vts_reward_expectancy_bt,2022.2.4,Win32,60.58403005,Chrome,1536,864,,,,,0,693,,,,,,,,,,,,,,,,,181,U,circle,1,0,,,,,,,,,,,,,,,,switch,letter,lettSwt,k,noRew,,,,,,2.8488,0,31,0,31,0,1,,,,,,,,,,,,,,,,,
297061,2022-11-15_22h04.47.402,vts_reward_expectancy_bt,2022.2.4,Win32,60.58403005,Chrome,1536,864,,,,,0,693,,,,,,,,,,,,,,,,,167,W,hexagon,1,0,,,,,,,,,,,,,,,,repeat,letter,lettRpt,k,noRew,,,,,,1.263,0,32,0,32,0,1,,,,,,,,,,,,,,,,,
297061,2022-11-15_22h04.47.402,vts_reward_expectancy_bt,2022.2.4,Win32,60.58403005,Chrome,1536,864,,,,,0,693,,,,,,,,,,,,,,,,,174,B,triangle,1,0,,,,,,,,,,,,,,,,repeat,letter,lettRpt,j,noRew,,,,,,1.4646,0,33,0,33,0,1,,,,,,,,,,,,,,,,,
297061,2022-11-15_22h04.47.402,vts_reward_expectancy_bt,2022.2.4,Win32,60.58403005,Chrome,1536,864,,,,,0,693,,,,,,,,,,,,,,,,,132,Y,hexagon,1,0,,,,,,,,,,,,,,,,repeat,letter,lettRpt,k,noRew,,,,,,1.3885,0,34,0,34,0,1,,,,,,,,,,,,,,,,,
297061,2022-11-15_22h04.47.402,vts_reward_expectancy_bt,2022.2.4,Win32,60.58403005,Chrome,1536,864,,,,,0,693,,,,,,,,,,,,,,,,,181,H,circle,1,0,,,,,,,,,,,,,,,,repeat,letter,lettRpt,j,noRew,,,,,,1.2626,0,35,0,35,0,1,,,,,,,,,,,,,,,,,
297061,2022-11-15_22h04.47.402,vts_reward_expectancy_bt,2022.2.4,Win32,60.58403005,Chrome,1536,864,,,,,0,693,,,,,,,,,,,,,,,,,174,B,triangle,1,0,,,,,,,,,,,,,,,,repeat,letter,lettRpt,j,noRew,,,,,,2.9534,0,36,0,36,0,1,,,,,,,,,,,,,,,,,
297061,2022-11-15_22h04.47.402,vts_reward_expectancy_bt,2022.2.4,Win32,60.58403005,Chrome,1536,864,,,,,0,693,,,,,,,,,,,,,,,,,181,U,star,1,0,,,,,,,,,,,,,,,,repeat,letter,lettRpt,k,noRew,,,,,,1.3644,0,37,0,37,0,1,,,,,,,,,,,,,,,,,
297061,2022-11-15_22h04.47.402,vts_reward_expectancy_bt,2022.2.4,Win32,60.58403005,Chrome,1536,864,,,,,0,693,,,,,,,,,,,,,,,,,146,D,hexagon,0,0,,,,,,,,,,,,,,,,repeat,letter,NA,k,noRew,,,,,,1.341,0,38,0,38,0,1,,,,,,,,,,,,,,,,,
297061,2022-11-15_22h04.47.402,vts_reward_expectancy_bt,2022.2.4,Win32,60.58403005,Chrome,1536,864,,,,,0,693,,,,,,,,,,,,,,,,,132,Y,circle,1,1,,,,,,,,,,,,,,,,repeat,letter,lettRpt,k,noRew,,,,,,0.897,0,39,0,39,0,1,,,,,,,,,,,,,,,,,
297061,2022-11-15_22h04.47.402,vts_reward_expectancy_bt,2022.2.4,Win32,60.58403005,Chrome,1536,864,,,,,0,693,,,,,,,,,,,,,,,,,146,D,triangle,1,0,,,,,,,,,,,,,,,,repeat,letter,lettRpt,j,noRew,,,,,,1.1323,0,40,0,40,0,1,,,,,,,,,,,,,,,,,
297061,2022-11-15_22h04.47.402,vts_reward_expectancy_bt,2022.2.4,Win32,60.58403005,Chrome,1536,864,,,,,0,693,,,,,,,,,,,,,,,,,139,W,star,1,0,,,,,,,,,,,,,,,,repeat,letter,lettRpt,k,noRew,,,,,,2.2618,0,41,0,41,0,1,,,,,,,,,,,,,,,,,
297061,2022-11-15_22h04.47.402,vts_reward_expectancy_bt,2022.2.4,Win32,60.58403005,Chrome,1536,864,,,,,0,693,,,,,,,,,,,,,,,,,174,F,triangle,1,0,,,,,,,,,,,,,,,,repeat,letter,lettRpt,j,noRew,,,,,,1.5258,0,42,0,42,0,1,,,,,,,,,,,,,,,,,
297061,2022-11-15_22h04.47.402,vts_reward_expectancy_bt,2022.2.4,Win32,60.58403005,Chrome,1536,864,,,,,0,693,,,,,,,,,,,,,,,,,181,Y,circle,1,0,,,,,,,,,,,,,,,,switch,number,numSwt,f,noRew,,,,,,1.3948,0,43,0,43,0,1,,,,,,,,,,,,,,,,,
297061,2022-11-15_22h04.47.402,vts_reward_expectancy_bt,2022.2.4,Win32,60.58403005,Chrome,1536,864,,,,,0,693,,,,,,,,,,,,,,,,,125,F,circle,1,0,,,,,,,,,,,,,,,,repeat,number,numRpt,d,noRew,,,,,,0.9313,0,44,0,44,0,1,,,,,,,,,,,,,,,,,
297061,2022-11-15_22h04.47.402,vts_reward_expectancy_bt,2022.2.4,Win32,60.58403005,Chrome,1536,864,,,,,0,693,,,,,,,,,,,,,,,,,139,D,hexagon,1,0,,,,,,,,,,,,,,,,switch,letter,lettSwt,j,noRew,,,,,,1.2786,0,45,0,45,0,1,,,,,,,,,,,,,,,,,
297061,2022-11-15_22h04.47.402,vts_reward_expectancy_bt,2022.2.4,Win32,60.58403005,Chrome,1536,864,,,,,0,693,,,,,,,,,,,,,,,,,146,W,circle,1,0,,,,,,,,,,,,,,,,switch,number,numSwt,d,noRew,,,,,,1.7027,0,46,0,46,0,1,,,,,,,,,,,,,,,,,
297061,2022-11-15_22h04.47.402,vts_reward_expectancy_bt,2022.2.4,Win32,60.58403005,Chrome,1536,864,,,,,0,693,,,,,,,,,,,,,,,,,181,Y,star,1,0,,,,,,,,,,,,,,,,switch,letter,lettSwt,k,noRew,,,,,,0.949,0,47,0,47,0,1,,,,,,,,,,,,,,,,,
297061,2022-11-15_22h04.47.402,vts_reward_expectancy_bt,2022.2.4,Win32,60.58403005,Chrome,1536,864,,,,,0,693,,,,,,,,,,,,,,,,,132,B,star,1,0,,,,,,,,,,,,,,,,switch,number,numSwt,d,noRew,,,,,,1.1486,0,48,0,48,0,1,,,,,,,,,,,,,,,,,
297061,2022-11-15_22h04.47.402,vts_reward_expectancy_bt,2022.2.4,Win32,60.58403005,Chrome,1536,864,,,,,0,693,,,,,,,,,,,,,,,,,181,S,hexagon,1,0,,,,,,,,,,,,,,,,repeat,number,numRpt,f,noRew,,,,,,1.712,0,49,0,49,0,1,,,,,,,,,,,,,,,,,
297061,2022-11-15_22h04.47.402,vts_reward_expectancy_bt,2022.2.4,Win32,60.58403005,Chrome,1536,864,,,,,0,693,,,,,,,,,,,,,,,,,125,F,triangle,1,0,,,,,,,,,,,,,,,,switch,letter,lettSwt,j,noRew,,,,,,1.3685,0,50,0,50,0,1,,,,,,,,,,,,,,,,,
297061,2022-11-15_22h04.47.402,vts_reward_expectancy_bt,2022.2.4,Win32,60.58403005,Chrome,1536,864,,,,,0,693,,,,,,,,,,,,,,,,,174,W,star,1,0,,,,,,,,,,,,,,,,repeat,letter,lettRpt,k,noRew,,,,,,0.8986,0,51,0,51,0,1,,,,,,,,,,,,,,,,,
297061,2022-11-15_22h04.47.402,vts_reward_expectancy_bt,2022.2.4,Win32,60.58403005,Chrome,1536,864,,,,,0,693,,,,,,,,,,,,,,,,,167,S,triangle,1,0,,,,,,,,,,,,,,,,repeat,letter,lettRpt,k,noRew,,,,,,1.3487,0,52,0,52,0,1,,,,,,,,,,,,,,,,,
297061,2022-11-15_22h04.47.402,vts_reward_expectancy_bt,2022.2.4,Win32,60.58403005,Chrome,1536,864,,,,,0,693,,,,,,,,,,,,,,,,,181,H,star,1,0,,,,,,,,,,,,,,,,switch,number,numSwt,f,noRew,,,,,,2.0684,0,53,0,53,0,1,,,,,,,,,,,,,,,,,
297061,2022-11-15_22h04.47.402,vts_reward_expectancy_bt,2022.2.4,Win32,60.58403005,Chrome,1536,864,,,,,0,693,,,,,,,,,,,,,,,,,174,U,star,1,0,,,,,,,,,,,,,,,,switch,letter,lettSwt,k,noRew,,,,,,2.0341,0,54,0,54,0,1,,,,,,,,,,,,,,,,,
297061,2022-11-15_22h04.47.402,vts_reward_expectancy_bt,2022.2.4,Win32,60.58403005,Chrome,1536,864,,,,,0,693,,,,,,,,,,,,,,,,,125,F,circle,1,0,,,,,,,,,,,,,,,,switch,number,numSwt,d,noRew,,,,,,1.6891,0,55,0,55,0,1,,,,,,,,,,,,,,,,,
297061,2022-11-15_22h04.47.402,vts_reward_expectancy_bt,2022.2.4,Win32,60.58403005,Chrome,1536,864,,,,,0,693,,,,,,,,,,,,,,,,,181,U,hexagon,1,0,,,,,,,,,,,,,,,,switch,letter,lettSwt,k,noRew,,,,,,1.5792,0,56,0,56,0,1,,,,,,,,,,,,,,,,,
297061,2022-11-15_22h04.47.402,vts_reward_expectancy_bt,2022.2.4,Win32,60.58403005,Chrome,1536,864,,,,,0,693,,,,,,,,,,,,,,,,,174,F,triangle,1,0,,,,,,,,,,,,,,,,switch,number,numSwt,f,noRew,,,,,,2.1512,0,57,0,57,0,1,,,,,,,,,,,,,,,,,
297061,2022-11-15_22h04.47.402,vts_reward_expectancy_bt,2022.2.4,Win32,60.58403005,Chrome,1536,864,,,,,0,693,,,,,,,,,,,,,,,,,132,Y,star,1,0,,,,,,,,,,,,,,,,switch,letter,lettSwt,k,noRew,,,,,,2.7142,0,58,0,58,0,1,,,,,,,,,,,,,,,,,
297061,2022-11-15_22h04.47.402,vts_reward_expectancy_bt,2022.2.4,Win32,60.58403005,Chrome,1536,864,,,,,0,693,,,,,,,,,,,,,,,,,125,D,hexagon,1,0,,,,,,,,,,,,,,,,repeat,letter,lettRpt,j,noRew,,,,,,2.4964,0,59,0,59,0,1,,,,,,,,,,,,,,,,,
297061,2022-11-15_22h04.47.402,vts_reward_expectancy_bt,2022.2.4,Win32,60.58403005,Chrome,1536,864,,,,,0,693,,,,,,,,,,,,,,,,,125,U,triangle,1,0,,,,,,,,,,,,,,,,switch,number,numSwt,d,noRew,,,,,,1.359,0,60,0,60,0,1,,,,,,,,,,,,,,,,,
297061,2022-11-15_22h04.47.402,vts_reward_expectancy_bt,2022.2.4,Win32,60.58403005,Chrome,1536,864,,,,,0,693,,,,,,,,,,,,,,,,,160,F,circle,-1,0,,,,,,,,,,,,,,,,switch,no_choice,NA,,noRew,,,,,,,0,61,0,61,0,1,,,,,,,,,,,,,,,,,
297061,2022-11-15_22h04.47.402,vts_reward_expectancy_bt,2022.2.4,Win32,60.58403005,Chrome,1536,864,,,,,0,693,,,,,,,,,,,,,,,,,174,Y,circle,-1,0,,,,,,,,,,,,,,,,repeat,no_choice,NA,,noRew,,,,,,,0,62,0,62,0,1,,,,,,,,,,,,,,,,,
297061,2022-11-15_22h04.47.402,vts_reward_expectancy_bt,2022.2.4,Win32,60.58403005,Chrome,1536,864,,,,,0,693,,,,,,,,,,,,,,,,,139,H,triangle,1,0,,,,,,,,,,,,,,,,switch,number,numSwt,d,noRew,,,,,,2.0685,0,63,0,63,0,1,,,,,,,,,,,,,,,,,
297061,2022-11-15_22h04.47.402,vts_reward_expectancy_bt,2022.2.4,Win32,60.58403005,Chrome,1536,864,,,,,,,,,,,,,,,,,,,,,,,,,,,,,,,,,,,,,,,,,,,,,,,,,,,,,,,,,,,,,,,,,,,,,,,,,,,,
297061,2022-11-15_22h04.47.402,vts_reward_expectancy_bt,2022.2.4,Win32,60.58403005,Chrome,1536,864,,,,,10,703,,,,,,,,,,,,,,,,,181,S,circle,1,0,,,,,,,,,,,,,,,,repeat,number,numRpt,f,Lo,,,,,,1.9137,0,,,,,,space,14.9495,high,0,0,0,0,1,,,,,,,,,
297061,2022-11-15_22h04.47.402,vts_reward_expectancy_bt,2022.2.4,Win32,60.58403005,Chrome,1536,864,,,,,1,704,,,,,,,,,,,,,,,,,132,D,triangle,1,0,,,,,,,,,,,,,,,,switch,letter,lettSwt,j,Lo,,,,,,1.0918,0,,,,,,,,high,1,0,1,0,1,,,,,,,,,
297061,2022-11-15_22h04.47.402,vts_reward_expectancy_bt,2022.2.4,Win32,60.58403005,Chrome,1536,864,,,,,0,704,,,,,,,,,,,,,,,,,139,B,star,1,0,,,,,,,,,,,,,,,,repeat,letter,lettRpt,j,Hi,,,,,,2.8293,0,,,,,,,,high,2,0,2,0,1,,,,,,,,,
297061,2022-11-15_22h04.47.402,vts_reward_expectancy_bt,2022.2.4,Win32,60.58403005,Chrome,1536,864,,,,,0,704,,,,,,,,,,,,,,,,,146,H,hexagon,0,0,,,,,,,,,,,,,,,,switch,number,NA,f,Hi,,,,,,1.7268,0,,,,,,,,high,3,0,3,0,1,,,,,,,,,
297061,2022-11-15_22h04.47.402,vts_reward_expectancy_bt,2022.2.4,Win32,60.58403005,Chrome,1536,864,,,,,1,705,,,,,,,,,,,,,,,,,160,U,circle,1,1,,,,,,,,,,,,,,,,repeat,number,numRpt,f,Lo,,,,,,2.2998,0,,,,,,,,high,4,0,4,0,1,,,,,,,,,
297061,2022-11-15_22h04.47.402,vts_reward_expectancy_bt,2022.2.4,Win32,60.58403005,Chrome,1536,864,,,,,10,715,,,,,,,,,,,,,,,,,174,W,triangle,1,0,,,,,,,,,,,,,,,,repeat,number,numRpt,f,Lo,,,,,,2.7992,0,,,,,,,,high,5,0,5,0,1,,,,,,,,,
297061,2022-11-15_22h04.47.402,vts_reward_expectancy_bt,2022.2.4,Win32,60.58403005,Chrome,1536,864,,,,,0,715,,,,,,,,,,,,,,,,,167,F,star,1,0,,,,,,,,,,,,,,,,repeat,number,numRpt,f,Hi,,,,,,2.2893,0,,,,,,,,high,6,0,6,0,1,,,,,,,,,
297061,2022-11-15_22h04.47.402,vts_reward_expectancy_bt,2022.2.4,Win32,60.58403005,Chrome,1536,864,,,,,0,715,,,,,,,,,,,,,,,,,125,Y,hexagon,0,0,,,,,,,,,,,,,,,,repeat,number,NA,f,Hi,,,,,,1.42,0,,,,,,,,high,7,0,7,0,1,,,,,,,,,
297061,2022-11-15_22h04.47.402,vts_reward_expectancy_bt,2022.2.4,Win32,60.58403005,Chrome,1536,864,,,,,1,716,,,,,,,,,,,,,,,,,181,S,circle,1,1,,,,,,,,,,,,,,,,repeat,number,numRpt,f,Lo,,,,,,2.252,0,,,,,,,,high,8,0,8,0,1,,,,,,,,,
297061,2022-11-15_22h04.47.402,vts_reward_expectancy_bt,2022.2.4,Win32,60.58403005,Chrome,1536,864,,,,,0,716,,,,,,,,,,,,,,,,,132,D,hexagon,0,0,,,,,,,,,,,,,,,,repeat,number,NA,f,Lo,,,,,,1.5043,0,,,,,,,,high,9,0,9,0,1,,,,,,,,,
297061,2022-11-15_22h04.47.402,vts_reward_expectancy_bt,2022.2.4,Win32,60.58403005,Chrome,1536,864,,,,,1,717,,,,,,,,,,,,,,,,,139,B,triangle,1,1,,,,,,,,,,,,,,,,switch,letter,lettSwt,j,Lo,,,,,,1.4555,0,,,,,,,,high,10,0,10,0,1,,,,,,,,,
297061,2022-11-15_22h04.47.402,vts_reward_expectancy_bt,2022.2.4,Win32,60.58403005,Chrome,1536,864,,,,,0,717,,,,,,,,,,,,,,,,,146,H,star,1,0,,,,,,,,,,,,,,,,repeat,letter,lettRpt,j,Hi,,,,,,2.0669,0,,,,,,,,high,11,0,11,0,1,,,,,,,,,
297061,2022-11-15_22h04.47.402,vts_reward_expectancy_bt,2022.2.4,Win32,60.58403005,Chrome,1536,864,,,,,10,727,,,,,,,,,,,,,,,,,160,U,triangle,1,0,,,,,,,,,,,,,,,,switch,number,numSwt,f,Lo,,,,,,1.7167,0,,,,,,,,high,12,0,12,0,1,,,,,,,,,
297061,2022-11-15_22h04.47.402,vts_reward_expectancy_bt,2022.2.4,Win32,60.58403005,Chrome,1536,864,,,,,0,727,,,,,,,,,,,,,,,,,174,W,star,1,0,,,,,,,,,,,,,,,,repeat,number,numRpt,f,Hi,,,,,,1.9865,0,,,,,,,,high,13,0,13,0,1,,,,,,,,,
297061,2022-11-15_22h04.47.402,vts_reward_expectancy_bt,2022.2.4,Win32,60.58403005,Chrome,1536,864,,,,,0,727,,,,,,,,,,,,,,,,,167,F,hexagon,-1,0,,,,,,,,,,,,,,,,switch,no_choice,NA,,Hi,,,,,,,0,,,,,,,,high,14,0,14,0,1,,,,,,,,,
297061,2022-11-15_22h04.47.402,vts_reward_expectancy_bt,2022.2.4,Win32,60.58403005,Chrome,1536,864,,,,,0,727,,,,,,,,,,,,,,,,,125,Y,circle,0,0,,,,,,,,,,,,,,,,switch,number,NA,f,Hi,,,,,,2.8174,0,,,,,,,,high,15,0,15,0,1,,,,,,,,,
297061,2022-11-15_22h04.47.402,vts_reward_expectancy_bt,2022.2.4,Win32,60.58403005,Chrome,1536,864,,,,,0,727,,,,,,,,,,,,,,,,,181,Y,hexagon,1,1,,,,,,,,,,,,,,,,switch,letter,lettSwt,k,Hi,,,,,,2.4946,0,,,,,,,,high,16,0,16,0,1,,,,,,,,,
297061,2022-11-15_22h04.47.402,vts_reward_expectancy_bt,2022.2.4,Win32,60.58403005,Chrome,1536,864,,,,,1,728,,,,,,,,,,,,,,,,,160,U,triangle,1,0,,,,,,,,,,,,,,,,switch,number,numSwt,f,Lo,,,,,,1.5495,0,,,,,,,,high,17,0,17,0,1,,,,,,,,,
297061,2022-11-15_22h04.47.402,vts_reward_expectancy_bt,2022.2.4,Win32,60.58403005,Chrome,1536,864,,,,,0,728,,,,,,,,,,,,,,,,,132,F,circle,0,0,,,,,,,,,,,,,,,,repeat,number,NA,f,Lo,,,,,,2.0283,0,,,,,,,,high,18,0,18,0,1,,,,,,,,,
297061,2022-11-15_22h04.47.402,vts_reward_expectancy_bt,2022.2.4,Win32,60.58403005,Chrome,1536,864,,,,,10,738,,,,,,,,,,,,,,,,,167,H,star,1,1,,,,,,,,,,,,,,,,repeat,number,numRpt,f,Hi,,,,,,1.4333,0,,,,,,,,high,19,0,19,0,1,,,,,,,,,
297061,2022-11-15_22h04.47.402,vts_reward_expectancy_bt,2022.2.4,Win32,60.58403005,Chrome,1536,864,,,,,0,738,,,,,,,,,,,,,,,,,174,D,star,1,0,,,,,,,,,,,,,,,,repeat,number,numRpt,f,Hi,,,,,,2.3038,0,,,,,,,,high,20,0,20,0,1,,,,,,,,,
297061,2022-11-15_22h04.47.402,vts_reward_expectancy_bt,2022.2.4,Win32,60.58403005,Chrome,1536,864,,,,,0,738,,,,,,,,,,,,,,,,,146,B,circle,-1,0,,,,,,,,,,,,,,,,switch,no_choice,NA,,Hi,,,,,,,0,,,,,,,,high,21,0,21,0,1,,,,,,,,,
297061,2022-11-15_22h04.47.402,vts_reward_expectancy_bt,2022.2.4,Win32,60.58403005,Chrome,1536,864,,,,,1,739,,,,,,,,,,,,,,,,,125,W,triangle,1,0,,,,,,,,,,,,,,,,switch,letter,lettSwt,k,Lo,,,,,,2.4363,0,,,,,,,,high,22,0,22,0,1,,,,,,,,,
297061,2022-11-15_22h04.47.402,vts_reward_expectancy_bt,2022.2.4,Win32,60.58403005,Chrome,1536,864,,,,,0,739,,,,,,,,,,,,,,,,,139,S,hexagon,-1,0,,,,,,,,,,,,,,,,switch,no_choice,NA,,Lo,,,,,,,0,,,,,,,,high,23,0,23,0,1,,,,,,,,,
297061,2022-11-15_22h04.47.402,vts_reward_expectancy_bt,2022.2.4,Win32,60.58403005,Chrome,1536,864,,,,,1,740,,,,,,,,,,,,,,,,,132,U,circle,1,0,,,,,,,,,,,,,,,,switch,number,numSwt,d,Lo,,,,,,2.2587,0,,,,,,,,high,24,0,24,0,1,,,,,,,,,
297061,2022-11-15_22h04.47.402,vts_reward_expectancy_bt,2022.2.4,Win32,60.58403005,Chrome,1536,864,,,,,0,740,,,,,,,,,,,,,,,,,139,S,triangle,-1,0,,,,,,,,,,,,,,,,switch,no_choice,NA,,Lo,,,,,,,0,,,,,,,,high,25,0,25,0,1,,,,,,,,,
297061,2022-11-15_22h04.47.402,vts_reward_expectancy_bt,2022.2.4,Win32,60.58403005,Chrome,1536,864,,,,,0,740,,,,,,,,,,,,,,,,,160,W,star,0,0,,,,,,,,,,,,,,,,switch,number,NA,d,Lo,,,,,,2.6366,0,,,,,,,,high,26,0,26,0,1,,,,,,,,,
297061,2022-11-15_22h04.47.402,vts_reward_expectancy_bt,2022.2.4,Win32,60.58403005,Chrome,1536,864,,,,,10,750,,,,,,,,,,,,,,,,,125,D,hexagon,1,1,,,,,,,,,,,,,,,,repeat,number,numRpt,d,Hi,,,,,,1.1826,0,,,,,,,,high,27,0,27,0,1,,,,,,,,,
297061,2022-11-15_22h04.47.402,vts_reward_expectancy_bt,2022.2.4,Win32,60.58403005,Chrome,1536,864,,,,,10,760,,,,,,,,,,,,,,,,,174,B,circle,1,0,,,,,,,,,,,,,,,,repeat,number,numRpt,f,Lo,,,,,,1.433,0,,,,,,,,high,28,0,28,0,1,,,,,,,,,
297061,2022-11-15_22h04.47.402,vts_reward_expectancy_bt,2022.2.4,Win32,60.58403005,Chrome,1536,864,,,,,1,761,,,,,,,,,,,,,,,,,146,Y,triangle,1,0,,,,,,,,,,,,,,,,repeat,number,numRpt,d,Lo,,,,,,1.2092,0,,,,,,,,high,29,0,29,0,1,,,,,,,,,
297061,2022-11-15_22h04.47.402,vts_reward_expectancy_bt,2022.2.4,Win32,60.58403005,Chrome,1536,864,,,,,0,761,,,,,,,,,,,,,,,,,181,F,star,1,0,,,,,,,,,,,,,,,,repeat,number,numRpt,f,Hi,,,,,,1.8015,0,,,,,,,,high,30,0,30,0,1,,,,,,,,,
297061,2022-11-15_22h04.47.402,vts_reward_expectancy_bt,2022.2.4,Win32,60.58403005,Chrome,1536,864,,,,,0,761,,,,,,,,,,,,,,,,,167,H,hexagon,-1,0,,,,,,,,,,,,,,,,switch,no_choice,NA,,Hi,,,,,,,0,,,,,,,,high,31,0,31,0,1,,,,,,,,,
297061,2022-11-15_22h04.47.402,vts_reward_expectancy_bt,2022.2.4,Win32,60.58403005,Chrome,1536,864,,,,,1,762,,,,,,,,,,,,,,,,,174,B,circle,1,0,,,,,,,,,,,,,,,,switch,number,numSwt,f,Lo,,,,,,1.9285,1,,,,,,space,126.4449,high,0,0,0,0,1,,,,,,,,,
297061,2022-11-15_22h04.47.402,vts_reward_expectancy_bt,2022.2.4,Win32,60.58403005,Chrome,1536,864,,,,,0,762,,,,,,,,,,,,,,,,,139,D,hexagon,1,0,,,,,,,,,,,,,,,,repeat,number,numRpt,d,Hi,,,,,,1.8154,1,,,,,,,,high,1,0,1,0,1,,,,,,,,,
297061,2022-11-15_22h04.47.402,vts_reward_expectancy_bt,2022.2.4,Win32,60.58403005,Chrome,1536,864,,,,,0,762,,,,,,,,,,,,,,,,,125,W,triangle,-1,0,,,,,,,,,,,,,,,,switch,no_choice,NA,,Hi,,,,,,,1,,,,,,,,high,2,0,2,0,1,,,,,,,,,
297061,2022-11-15_22h04.47.402,vts_reward_expectancy_bt,2022.2.4,Win32,60.58403005,Chrome,1536,864,,,,,0,762,,,,,,,,,,,,,,,,,132,S,star,0,0,,,,,,,,,,,,,,,,switch,number,NA,f,Hi,,,,,,2.3609,1,,,,,,,,high,3,0,3,0,1,,,,,,,,,
297061,2022-11-15_22h04.47.402,vts_reward_expectancy_bt,2022.2.4,Win32,60.58403005,Chrome,1536,864,,,,,1,763,,,,,,,,,,,,,,,,,181,U,circle,1,1,,,,,,,,,,,,,,,,switch,letter,lettSwt,k,Lo,,,,,,2.9275,1,,,,,,,,high,4,0,4,0,1,,,,,,,,,
297061,2022-11-15_22h04.47.402,vts_reward_expectancy_bt,2022.2.4,Win32,60.58403005,Chrome,1536,864,,,,,10,773,,,,,,,,,,,,,,,,,167,H,hexagon,1,0,,,,,,,,,,,,,,,,repeat,letter,lettRpt,j,Hi,,,,,,1.7729,1,,,,,,,,high,5,0,5,0,1,,,,,,,,,
297061,2022-11-15_22h04.47.402,vts_reward_expectancy_bt,2022.2.4,Win32,60.58403005,Chrome,1536,864,,,,,10,783,,,,,,,,,,,,,,,,,146,Y,triangle,1,0,,,,,,,,,,,,,,,,repeat,letter,lettRpt,k,Lo,,,,,,0.9161,1,,,,,,,,high,6,0,6,0,1,,,,,,,,,
297061,2022-11-15_22h04.47.402,vts_reward_expectancy_bt,2022.2.4,Win32,60.58403005,Chrome,1536,864,,,,,0,783,,,,,,,,,,,,,,,,,160,F,star,-1,0,,,,,,,,,,,,,,,,switch,no_choice,NA,,Lo,,,,,,,1,,,,,,,,high,7,0,7,0,1,,,,,,,,,
297061,2022-11-15_22h04.47.402,vts_reward_expectancy_bt,2022.2.4,Win32,60.58403005,Chrome,1536,864,,,,,10,793,,,,,,,,,,,,,,,,,174,B,star,1,0,,,,,,,,,,,,,,,,switch,number,numSwt,f,Hi,,,,,,1.5659,1,,,,,,,,high,8,0,8,0,1,,,,,,,,,
297061,2022-11-15_22h04.47.402,vts_reward_expectancy_bt,2022.2.4,Win32,60.58403005,Chrome,1536,864,,,,,0,793,,,,,,,,,,,,,,,,,139,D,hexagon,-1,0,,,,,,,,,,,,,,,,switch,no_choice,NA,,Hi,,,,,,,1,,,,,,,,high,9,0,9,0,1,,,,,,,,,
297061,2022-11-15_22h04.47.402,vts_reward_expectancy_bt,2022.2.4,Win32,60.58403005,Chrome,1536,864,,,,,1,794,,,,,,,,,,,,,,,,,125,W,circle,1,0,,,,,,,,,,,,,,,,switch,letter,lettSwt,k,Lo,,,,,,1.5829,1,,,,,,,,high,10,0,10,0,1,,,,,,,,,
297061,2022-11-15_22h04.47.402,vts_reward_expectancy_bt,2022.2.4,Win32,60.58403005,Chrome,1536,864,,,,,0,794,,,,,,,,,,,,,,,,,132,S,triangle,-1,0,,,,,,,,,,,,,,,,switch,no_choice,NA,,Lo,,,,,,,1,,,,,,,,high,11,0,11,0,1,,,,,,,,,
297061,2022-11-15_22h04.47.402,vts_reward_expectancy_bt,2022.2.4,Win32,60.58403005,Chrome,1536,864,,,,,0,794,,,,,,,,,,,,,,,,,181,U,star,1,0,,,,,,,,,,,,,,,,switch,letter,lettSwt,k,Hi,,,,,,2.9003,1,,,,,,,,high,12,0,12,0,1,,,,,,,,,
297061,2022-11-15_22h04.47.402,vts_reward_expectancy_bt,2022.2.4,Win32,60.58403005,Chrome,1536,864,,,,,0,794,,,,,,,,,,,,,,,,,167,H,hexagon,-1,0,,,,,,,,,,,,,,,,switch,no_choice,NA,,Hi,,,,,,,1,,,,,,,,high,13,0,13,0,1,,,,,,,,,
297061,2022-11-15_22h04.47.402,vts_reward_expectancy_bt,2022.2.4,Win32,60.58403005,Chrome,1536,864,,,,,0,794,,,,,,,,,,,,,,,,,146,Y,circle,-1,0,,,,,,,,,,,,,,,,repeat,no_choice,NA,,Hi,,,,,,,1,,,,,,,,high,14,0,14,0,1,,,,,,,,,
297061,2022-11-15_22h04.47.402,vts_reward_expectancy_bt,2022.2.4,Win32,60.58403005,Chrome,1536,864,,,,,1,795,,,,,,,,,,,,,,,,,160,F,triangle,1,0,,,,,,,,,,,,,,,,switch,letter,lettSwt,j,Lo,,,,,,2.4821,1,,,,,,,,high,15,0,15,0,1,,,,,,,,,
297061,2022-11-15_22h04.47.402,vts_reward_expectancy_bt,2022.2.4,Win32,60.58403005,Chrome,1536,864,,,,,0,795,,,,,,,,,,,,,,,,,139,W,triangle,0,0,,,,,,,,,,,,,,,,switch,number,NA,f,Lo,,,,,,2.8567,1,,,,,,,,high,16,0,16,0,1,,,,,,,,,
297061,2022-11-15_22h04.47.402,vts_reward_expectancy_bt,2022.2.4,Win32,60.58403005,Chrome,1536,864,,,,,1,796,,,,,,,,,,,,,,,,,125,U,circle,1,1,,,,,,,,,,,,,,,,repeat,number,numRpt,d,Lo,,,,,,1.035,1,,,,,,,,high,17,0,17,0,1,,,,,,,,,
297061,2022-11-15_22h04.47.402,vts_reward_expectancy_bt,2022.2.4,Win32,60.58403005,Chrome,1536,864,,,,,10,806,,,,,,,,,,,,,,,,,174,H,hexagon,1,0,,,,,,,,,,,,,,,,repeat,number,numRpt,f,Hi,,,,,,1.5788,1,,,,,,,,high,18,0,18,0,1,,,,,,,,,
297061,2022-11-15_22h04.47.402,vts_reward_expectancy_bt,2022.2.4,Win32,60.58403005,Chrome,1536,864,,,,,0,806,,,,,,,,,,,,,,,,,167,S,star,-1,0,,,,,,,,,,,,,,,,switch,no_choice,NA,,Hi,,,,,,,1,,,,,,,,high,19,0,19,0,1,,,,,,,,,
297061,2022-11-15_22h04.47.402,vts_reward_expectancy_bt,2022.2.4,Win32,60.58403005,Chrome,1536,864,,,,,10,816,,,,,,,,,,,,,,,,,132,Y,hexagon,1,0,,,,,,,,,,,,,,,,switch,letter,lettSwt,k,Hi,,,,,,1.1714,1,,,,,,,,high,20,0,20,0,1,,,,,,,,,
297061,2022-11-15_22h04.47.402,vts_reward_expectancy_bt,2022.2.4,Win32,60.58403005,Chrome,1536,864,,,,,1,817,,,,,,,,,,,,,,,,,146,D,triangle,1,0,,,,,,,,,,,,,,,,repeat,letter,lettRpt,j,Lo,,,,,,1.207,1,,,,,,,,high,21,0,21,0,1,,,,,,,,,
297061,2022-11-15_22h04.47.402,vts_reward_expectancy_bt,2022.2.4,Win32,60.58403005,Chrome,1536,864,,,,,0,817,,,,,,,,,,,,,,,,,160,F,star,0,0,,,,,,,,,,,,,,,,switch,number,NA,d,Lo,,,,,,2.0565,1,,,,,,,,high,22,0,22,0,1,,,,,,,,,
297061,2022-11-15_22h04.47.402,vts_reward_expectancy_bt,2022.2.4,Win32,60.58403005,Chrome,1536,864,,,,,0,817,,,,,,,,,,,,,,,,,181,B,circle,-1,1,,,,,,,,,,,,,,,,switch,no_choice,NA,,Lo,,,,,,,1,,,,,,,,high,23,0,23,0,1,,,,,,,,,
297061,2022-11-15_22h04.47.402,vts_reward_expectancy_bt,2022.2.4,Win32,60.58403005,Chrome,1536,864,,,,,0,817,,,,,,,,,,,,,,,,,139,B,triangle,0,0,,,,,,,,,,,,,,,,switch,number,NA,f,Lo,,,,,,2.2834,1,,,,,,,,high,24,0,24,0,1,,,,,,,,,
297061,2022-11-15_22h04.47.402,vts_reward_expectancy_bt,2022.2.4,Win32,60.58403005,Chrome,1536,864,,,,,1,818,,,,,,,,,,,,,,,,,132,U,circle,1,1,,,,,,,,,,,,,,,,repeat,number,numRpt,d,Lo,,,,,,1.1272,1,,,,,,,,high,25,0,25,0,1,,,,,,,,,
297061,2022-11-15_22h04.47.402,vts_reward_expectancy_bt,2022.2.4,Win32,60.58403005,Chrome,1536,864,,,,,10,828,,,,,,,,,,,,,,,,,181,H,hexagon,1,0,,,,,,,,,,,,,,,,repeat,number,numRpt,f,Hi,,,,,,0.8865,1,,,,,,,,high,26,0,26,0,1,,,,,,,,,
297061,2022-11-15_22h04.47.402,vts_reward_expectancy_bt,2022.2.4,Win32,60.58403005,Chrome,1536,864,,,,,10,838,,,,,,,,,,,,,,,,,160,D,star,1,0,,,,,,,,,,,,,,,,repeat,number,numRpt,f,Hi,,,,,,1.45,1,,,,,,,,high,27,0,27,0,1,,,,,,,,,
297061,2022-11-15_22h04.47.402,vts_reward_expectancy_bt,2022.2.4,Win32,60.58403005,Chrome,1536,864,,,,,0,838,,,,,,,,,,,,,,,,,146,S,triangle,0,0,,,,,,,,,,,,,,,,repeat,number,NA,f,Hi,,,,,,2.7492,1,,,,,,,,high,28,0,28,0,1,,,,,,,,,
297061,2022-11-15_22h04.47.402,vts_reward_expectancy_bt,2022.2.4,Win32,60.58403005,Chrome,1536,864,,,,,10,848,,,,,,,,,,,,,,,,,174,W,star,1,1,,,,,,,,,,,,,,,,repeat,number,numRpt,f,Hi,,,,,,0.9505,1,,,,,,,,high,29,0,29,0,1,,,,,,,,,
297061,2022-11-15_22h04.47.402,vts_reward_expectancy_bt,2022.2.4,Win32,60.58403005,Chrome,1536,864,,,,,1,849,,,,,,,,,,,,,,,,,125,F,hexagon,1,0,,,,,,,,,,,,,,,,repeat,number,numRpt,d,Hi,,,,,,1.1021,1,,,,,,,,high,30,0,30,0,1,,,,,,,,,
297061,2022-11-15_22h04.47.402,vts_reward_expectancy_bt,2022.2.4,Win32,60.58403005,Chrome,1536,864,,,,,1,850,,,,,,,,,,,,,,,,,167,Y,circle,1,0,,,,,,,,,,,,,,,,switch,letter,lettSwt,k,Lo,,,,,,0.9738,1,,,,,,,,high,31,0,31,0,1,,,,,,,,,
297061,2022-11-15_22h04.47.402,vts_reward_expectancy_bt,2022.2.4,Win32,60.58403005,Chrome,1536,864,,,,,1,851,,,,,,,,,,,,,,,,,174,F,triangle,1,0,,,,,,,,,,,,,,,,switch,number,numSwt,f,Lo,,,,,,1.2756,2,,,,,,space,2.297,high,0,0,0,0,1,,,,,,,,,
297061,2022-11-15_22h04.47.402,vts_reward_expectancy_bt,2022.2.4,Win32,60.58403005,Chrome,1536,864,,,,,1,852,,,,,,,,,,,,,,,,,139,W,circle,1,0,,,,,,,,,,,,,,,,repeat,number,numRpt,d,Lo,,,,,,1.9688,2,,,,,,,,high,1,0,1,0,1,,,,,,,,,
297061,2022-11-15_22h04.47.402,vts_reward_expectancy_bt,2022.2.4,Win32,60.58403005,Chrome,1536,864,,,,,0,852,,,,,,,,,,,,,,,,,125,D,hexagon,1,0,,,,,,,,,,,,,,,,switch,letter,lettSwt,j,Hi,,,,,,2.3498,2,,,,,,,,high,2,0,2,0,1,,,,,,,,,
297061,2022-11-15_22h04.47.402,vts_reward_expectancy_bt,2022.2.4,Win32,60.58403005,Chrome,1536,864,,,,,0,852,,,,,,,,,,,,,,,,,181,S,star,1,0,,,,,,,,,,,,,,,,switch,number,numSwt,f,Hi,,,,,,2.323,2,,,,,,,,high,3,0,3,0,1,,,,,,,,,
297061,2022-11-15_22h04.47.402,vts_reward_expectancy_bt,2022.2.4,Win32,60.58403005,Chrome,1536,864,,,,,1,853,,,,,,,,,,,,,,,,,167,B,triangle,1,0,,,,,,,,,,,,,,,,repeat,number,numRpt,f,Lo,,,,,,1.5294,2,,,,,,,,high,4,0,4,0,1,,,,,,,,,
297061,2022-11-15_22h04.47.402,vts_reward_expectancy_bt,2022.2.4,Win32,60.58403005,Chrome,1536,864,,,,,0,853,,,,,,,,,,,,,,,,,132,Y,circle,0,0,,,,,,,,,,,,,,,,repeat,number,NA,f,Lo,,,,,,2.4965,2,,,,,,,,high,5,0,5,0,1,,,,,,,,,
297061,2022-11-15_22h04.47.402,vts_reward_expectancy_bt,2022.2.4,Win32,60.58403005,Chrome,1536,864,,,,,0,853,,,,,,,,,,,,,,,,,146,H,hexagon,1,1,,,,,,,,,,,,,,,,repeat,number,numRpt,d,Hi,,,,,,1.6662,2,,,,,,,,high,6,0,6,0,1,,,,,,,,,
297061,2022-11-15_22h04.47.402,vts_reward_expectancy_bt,2022.2.4,Win32,60.58403005,Chrome,1536,864,,,,,0,853,,,,,,,,,,,,,,,,,160,U,star,1,0,,,,,,,,,,,,,,,,repeat,number,numRpt,f,Hi,,,,,,1.7562,2,,,,,,,,high,7,0,7,0,1,,,,,,,,,
297061,2022-11-15_22h04.47.402,vts_reward_expectancy_bt,2022.2.4,Win32,60.58403005,Chrome,1536,864,,,,,0,853,,,,,,,,,,,,,,,,,174,F,circle,-1,0,,,,,,,,,,,,,,,,switch,no_choice,NA,,Hi,,,,,,,2,,,,,,,,high,8,0,8,0,1,,,,,,,,,
297061,2022-11-15_22h04.47.402,vts_reward_expectancy_bt,2022.2.4,Win32,60.58403005,Chrome,1536,864,,,,,10,863,,,,,,,,,,,,,,,,,139,W,triangle,1,0,,,,,,,,,,,,,,,,switch,number,numSwt,d,Lo,,,,,,1.1131,2,,,,,,,,high,9,0,9,0,1,,,,,,,,,
297061,2022-11-15_22h04.47.402,vts_reward_expectancy_bt,2022.2.4,Win32,60.58403005,Chrome,1536,864,,,,,0,863,,,,,,,,,,,,,,,,,125,D,hexagon,1,0,,,,,,,,,,,,,,,,repeat,number,numRpt,d,Hi,,,,,,1.1126,2,,,,,,,,high,10,0,10,0,1,,,,,,,,,
297061,2022-11-15_22h04.47.402,vts_reward_expectancy_bt,2022.2.4,Win32,60.58403005,Chrome,1536,864,,,,,0,863,,,,,,,,,,,,,,,,,181,S,star,1,0,,,,,,,,,,,,,,,,repeat,number,numRpt,f,Hi,,,,,,1.0855,2,,,,,,,,high,11,0,11,0,1,,,,,,,,,
297061,2022-11-15_22h04.47.402,vts_reward_expectancy_bt,2022.2.4,Win32,60.58403005,Chrome,1536,864,,,,,1,864,,,,,,,,,,,,,,,,,167,B,triangle,1,0,,,,,,,,,,,,,,,,switch,letter,lettSwt,j,Lo,,,,,,0.8235,2,,,,,,,,high,12,0,12,0,1,,,,,,,,,
297061,2022-11-15_22h04.47.402,vts_reward_expectancy_bt,2022.2.4,Win32,60.58403005,Chrome,1536,864,,,,,1,865,,,,,,,,,,,,,,,,,132,Y,hexagon,1,0,,,,,,,,,,,,,,,,repeat,letter,lettRpt,k,Hi,,,,,,0.6794,2,,,,,,,,high,13,0,13,0,1,,,,,,,,,
297061,2022-11-15_22h04.47.402,vts_reward_expectancy_bt,2022.2.4,Win32,60.58403005,Chrome,1536,864,,,,,1,866,,,,,,,,,,,,,,,,,146,H,circle,1,0,,,,,,,,,,,,,,,,repeat,letter,lettRpt,j,Lo,,,,,,0.696,2,,,,,,,,high,14,0,14,0,1,,,,,,,,,
297061,2022-11-15_22h04.47.402,vts_reward_expectancy_bt,2022.2.4,Win32,60.58403005,Chrome,1536,864,,,,,10,876,,,,,,,,,,,,,,,,,160,U,star,1,0,,,,,,,,,,,,,,,,repeat,letter,lettRpt,k,Hi,,,,,,0.8193,2,,,,,,,,high,15,0,15,0,1,,,,,,,,,
297061,2022-11-15_22h04.47.402,vts_reward_expectancy_bt,2022.2.4,Win32,60.58403005,Chrome,1536,864,,,,,1,877,,,,,,,,,,,,,,,,,146,S,triangle,1,0,,,,,,,,,,,,,,,,repeat,letter,lettRpt,k,Lo,,,,,,0.9246,2,,,,,,,,high,16,0,16,0,1,,,,,,,,,
297061,2022-11-15_22h04.47.402,vts_reward_expectancy_bt,2022.2.4,Win32,60.58403005,Chrome,1536,864,,,,,10,887,,,,,,,,,,,,,,,,,125,U,hexagon,1,0,,,,,,,,,,,,,,,,repeat,letter,lettRpt,k,Hi,,,,,,0.7633,2,,,,,,,,high,17,0,17,0,1,,,,,,,,,
297061,2022-11-15_22h04.47.402,vts_reward_expectancy_bt,2022.2.4,Win32,60.58403005,Chrome,1536,864,,,,,1,888,,,,,,,,,,,,,,,,,132,W,circle,1,0,,,,,,,,,,,,,,,,repeat,letter,lettRpt,k,Lo,,,,,,0.933,2,,,,,,,,high,18,0,18,0,1,,,,,,,,,
297061,2022-11-15_22h04.47.402,vts_reward_expectancy_bt,2022.2.4,Win32,60.58403005,Chrome,1536,864,,,,,0,888,,,,,,,,,,,,,,,,,181,B,star,1,0,,,,,,,,,,,,,,,,repeat,letter,lettRpt,j,Hi,,,,,,1.1885,2,,,,,,,,high,19,0,19,0,1,,,,,,,,,
297061,2022-11-15_22h04.47.402,vts_reward_expectancy_bt,2022.2.4,Win32,60.58403005,Chrome,1536,864,,,,,1,889,,,,,,,,,,,,,,,,,167,F,circle,1,0,,,,,,,,,,,,,,,,repeat,letter,lettRpt,j,Lo,,,,,,0.7634,2,,,,,,,,high,20,0,20,0,1,,,,,,,,,
297061,2022-11-15_22h04.47.402,vts_reward_expectancy_bt,2022.2.4,Win32,60.58403005,Chrome,1536,864,,,,,10,899,,,,,,,,,,,,,,,,,139,Y,star,1,0,,,,,,,,,,,,,,,,repeat,letter,lettRpt,k,Hi,,,,,,0.6301,2,,,,,,,,high,21,0,21,0,1,,,,,,,,,
297061,2022-11-15_22h04.47.402,vts_reward_expectancy_bt,2022.2.4,Win32,60.58403005,Chrome,1536,864,,,,,10,909,,,,,,,,,,,,,,,,,160,D,hexagon,1,0,,,,,,,,,,,,,,,,repeat,letter,lettRpt,j,Hi,,,,,,0.7506,2,,,,,,,,high,22,0,22,0,1,,,,,,,,,
297061,2022-11-15_22h04.47.402,vts_reward_expectancy_bt,2022.2.4,Win32,60.58403005,Chrome,1536,864,,,,,10,919,,,,,,,,,,,,,,,,,174,H,triangle,1,0,,,,,,,,,,,,,,,,repeat,letter,lettRpt,j,Lo,,,,,,2.2461,2,,,,,,,,high,23,0,23,0,1,,,,,,,,,
297061,2022-11-15_22h04.47.402,vts_reward_expectancy_bt,2022.2.4,Win32,60.58403005,Chrome,1536,864,,,,,10,929,,,,,,,,,,,,,,,,,125,D,hexagon,1,0,,,,,,,,,,,,,,,,repeat,letter,lettRpt,j,Hi,,,,,,1.0564,2,,,,,,,,high,24,0,24,0,1,,,,,,,,,
297061,2022-11-15_22h04.47.402,vts_reward_expectancy_bt,2022.2.4,Win32,60.58403005,Chrome,1536,864,,,,,0,929,,,,,,,,,,,,,,,,,146,Y,star,1,0,,,,,,,,,,,,,,,,repeat,letter,lettRpt,k,Hi,,,,,,1.1963,2,,,,,,,,high,25,0,25,0,1,,,,,,,,,
297061,2022-11-15_22h04.47.402,vts_reward_expectancy_bt,2022.2.4,Win32,60.58403005,Chrome,1536,864,,,,,1,930,,,,,,,,,,,,,,,,,174,W,circle,1,0,,,,,,,,,,,,,,,,repeat,letter,lettRpt,k,Lo,,,,,,0.7974,2,,,,,,,,high,26,0,26,0,1,,,,,,,,,
297061,2022-11-15_22h04.47.402,vts_reward_expectancy_bt,2022.2.4,Win32,60.58403005,Chrome,1536,864,,,,,1,931,,,,,,,,,,,,,,,,,160,B,triangle,1,0,,,,,,,,,,,,,,,,repeat,letter,lettRpt,j,Lo,,,,,,0.9187,2,,,,,,,,high,27,0,27,0,1,,,,,,,,,
297061,2022-11-15_22h04.47.402,vts_reward_expectancy_bt,2022.2.4,Win32,60.58403005,Chrome,1536,864,,,,,10,941,,,,,,,,,,,,,,,,,181,H,star,1,0,,,,,,,,,,,,,,,,repeat,letter,lettRpt,j,Hi,,,,,,0.9586,2,,,,,,,,high,28,0,28,0,1,,,,,,,,,
297061,2022-11-15_22h04.47.402,vts_reward_expectancy_bt,2022.2.4,Win32,60.58403005,Chrome,1536,864,,,,,1,942,,,,,,,,,,,,,,,,,167,S,triangle,1,0,,,,,,,,,,,,,,,,repeat,letter,lettRpt,k,Lo,,,,,,2.4655,2,,,,,,,,high,29,0,29,0,1,,,,,,,,,
297061,2022-11-15_22h04.47.402,vts_reward_expectancy_bt,2022.2.4,Win32,60.58403005,Chrome,1536,864,,,,,0,942,,,,,,,,,,,,,,,,,132,U,hexagon,1,0,,,,,,,,,,,,,,,,repeat,letter,lettRpt,k,Hi,,,,,,1.7737,2,,,,,,,,high,30,0,30,0,1,,,,,,,,,
297061,2022-11-15_22h04.47.402,vts_reward_expectancy_bt,2022.2.4,Win32,60.58403005,Chrome,1536,864,,,,,1,943,,,,,,,,,,,,,,,,,139,F,circle,1,0,,,,,,,,,,,,,,,,repeat,letter,lettRpt,j,Lo,,,,,,0.8133,2,,,,,,,,high,31,0,31,0,1,,,,,,,,,
297061,2022-11-15_22h04.47.402,vts_reward_expectancy_bt,2022.2.4,Win32,60.58403005,Chrome,1536,864,,,,,1,944,,,,,,,,,,,,,,,,,160,U,circle,1,0,,,,,,,,,,,,,,,,switch,number,numSwt,f,Lo,,,,,,1.8338,3,,,,,,space,8.565,high,0,0,0,0,1,,,,,,,,,
297061,2022-11-15_22h04.47.402,vts_reward_expectancy_bt,2022.2.4,Win32,60.58403005,Chrome,1536,864,,,,,10,954,,,,,,,,,,,,,,,,,139,Y,star,1,0,,,,,,,,,,,,,,,,repeat,number,numRpt,d,Hi,,,,,,1.2381,3,,,,,,,,high,1,0,1,0,1,,,,,,,,,
297061,2022-11-15_22h04.47.402,vts_reward_expectancy_bt,2022.2.4,Win32,60.58403005,Chrome,1536,864,,,,,10,964,,,,,,,,,,,,,,,,,181,S,hexagon,1,0,,,,,,,,,,,,,,,,repeat,number,numRpt,f,Hi,,,,,,1.0889,3,,,,,,,,high,2,0,2,0,1,,,,,,,,,
297061,2022-11-15_22h04.47.402,vts_reward_expectancy_bt,2022.2.4,Win32,60.58403005,Chrome,1536,864,,,,,1,965,,,,,,,,,,,,,,,,,174,F,triangle,1,0,,,,,,,,,,,,,,,,repeat,number,numRpt,f,Lo,,,,,,2.1036,3,,,,,,,,high,3,0,3,0,1,,,,,,,,,
297061,2022-11-15_22h04.47.402,vts_reward_expectancy_bt,2022.2.4,Win32,60.58403005,Chrome,1536,864,,,,,1,966,,,,,,,,,,,,,,,,,167,W,circle,1,0,,,,,,,,,,,,,,,,repeat,number,numRpt,f,Lo,,,,,,1.9875,3,,,,,,,,high,4,0,4,0,1,,,,,,,,,
297061,2022-11-15_22h04.47.402,vts_reward_expectancy_bt,2022.2.4,Win32,60.58403005,Chrome,1536,864,,,,,10,976,,,,,,,,,,,,,,,,,132,D,star,1,0,,,,,,,,,,,,,,,,repeat,number,numRpt,d,Hi,,,,,,1.2562,3,,,,,,,,high,5,0,5,0,1,,,,,,,,,
297061,2022-11-15_22h04.47.402,vts_reward_expectancy_bt,2022.2.4,Win32,60.58403005,Chrome,1536,864,,,,,0,976,,,,,,,,,,,,,,,,,146,H,hexagon,1,0,,,,,,,,,,,,,,,,repeat,number,numRpt,d,Hi,,,,,,1.4517,3,,,,,,,,high,6,0,6,0,1,,,,,,,,,
297061,2022-11-15_22h04.47.402,vts_reward_expectancy_bt,2022.2.4,Win32,60.58403005,Chrome,1536,864,,,,,1,977,,,,,,,,,,,,,,,,,125,B,triangle,1,0,,,,,,,,,,,,,,,,repeat,number,numRpt,d,Lo,,,,,,1.212,3,,,,,,,,high,7,0,7,0,1,,,,,,,,,
297061,2022-11-15_22h04.47.402,vts_reward_expectancy_bt,2022.2.4,Win32,60.58403005,Chrome,1536,864,,,,,0,977,,,,,,,,,,,,,,,,,160,U,star,1,0,,,,,,,,,,,,,,,,repeat,number,numRpt,f,Hi,,,,,,1.5665,3,,,,,,,,high,8,0,8,0,1,,,,,,,,,
297061,2022-11-15_22h04.47.402,vts_reward_expectancy_bt,2022.2.4,Win32,60.58403005,Chrome,1536,864,,,,,1,978,,,,,,,,,,,,,,,,,139,Y,triangle,1,0,,,,,,,,,,,,,,,,repeat,number,numRpt,d,Lo,,,,,,1.0871,3,,,,,,,,high,9,0,9,0,1,,,,,,,,,
297061,2022-11-15_22h04.47.402,vts_reward_expectancy_bt,2022.2.4,Win32,60.58403005,Chrome,1536,864,,,,,10,988,,,,,,,,,,,,,,,,,181,S,hexagon,1,0,,,,,,,,,,,,,,,,switch,letter,lettSwt,k,Hi,,,,,,1.1085,3,,,,,,,,high,10,0,10,0,1,,,,,,,,,
297061,2022-11-15_22h04.47.402,vts_reward_expectancy_bt,2022.2.4,Win32,60.58403005,Chrome,1536,864,,,,,1,989,,,,,,,,,,,,,,,,,174,F,circle,1,0,,,,,,,,,,,,,,,,repeat,letter,lettRpt,j,Lo,,,,,,1.2169,3,,,,,,,,high,11,0,11,0,1,,,,,,,,,
297061,2022-11-15_22h04.47.402,vts_reward_expectancy_bt,2022.2.4,Win32,60.58403005,Chrome,1536,864,,,,,0,989,,,,,,,,,,,,,,,,,167,W,star,1,0,,,,,,,,,,,,,,,,repeat,letter,lettRpt,k,Hi,,,,,,0.9043,3,,,,,,,,high,12,0,12,0,1,,,,,,,,,
297061,2022-11-15_22h04.47.402,vts_reward_expectancy_bt,2022.2.4,Win32,60.58403005,Chrome,1536,864,,,,,10,999,,,,,,,,,,,,,,,,,132,D,triangle,1,0,,,,,,,,,,,,,,,,repeat,letter,lettRpt,j,Lo,,,,,,0.8205,3,,,,,,,,high,13,0,13,0,1,,,,,,,,,
297061,2022-11-15_22h04.47.402,vts_reward_expectancy_bt,2022.2.4,Win32,60.58403005,Chrome,1536,864,,,,,1,1000,,,,,,,,,,,,,,,,,146,H,circle,1,0,,,,,,,,,,,,,,,,repeat,letter,lettRpt,j,Lo,,,,,,0.6831,3,,,,,,,,high,14,0,14,0,1,,,,,,,,,
297061,2022-11-15_22h04.47.402,vts_reward_expectancy_bt,2022.2.4,Win32,60.58403005,Chrome,1536,864,,,,,0,1000,,,,,,,,,,,,,,,,,125,B,hexagon,1,0,,,,,,,,,,,,,,,,repeat,letter,lettRpt,j,Hi,,,,,,1.1371,3,,,,,,,,high,15,0,15,0,1,,,,,,,,,
297061,2022-11-15_22h04.47.402,vts_reward_expectancy_bt,2022.2.4,Win32,60.58403005,Chrome,1536,864,,,,,0,1000,,,,,,,,,,,,,,,,,146,S,star,1,0,,,,,,,,,,,,,,,,repeat,letter,lettRpt,k,Hi,,,,,,2.6316,3,,,,,,,,high,16,0,16,0,1,,,,,,,,,
297061,2022-11-15_22h04.47.402,vts_reward_expectancy_bt,2022.2.4,Win32,60.58403005,Chrome,1536,864,,,,,0,1000,,,,,,,,,,,,,,,,,125,F,hexagon,1,0,,,,,,,,,,,,,,,,repeat,letter,lettRpt,j,Hi,,,,,,1.1832,3,,,,,,,,high,17,0,17,0,1,,,,,,,,,
297061,2022-11-15_22h04.47.402,vts_reward_expectancy_bt,2022.2.4,Win32,60.58403005,Chrome,1536,864,,,,,10,1010,,,,,,,,,,,,,,,,,160,H,triangle,1,0,,,,,,,,,,,,,,,,repeat,letter,lettRpt,j,Lo,,,,,,1.0792,3,,,,,,,,high,18,0,18,0,1,,,,,,,,,
297061,2022-11-15_22h04.47.402,vts_reward_expectancy_bt,2022.2.4,Win32,60.58403005,Chrome,1536,864,,,,,1,1011,,,,,,,,,,,,,,,,,167,Y,circle,1,0,,,,,,,,,,,,,,,,repeat,letter,lettRpt,k,Lo,,,,,,2.124,3,,,,,,,,high,19,0,19,0,1,,,,,,,,,
297061,2022-11-15_22h04.47.402,vts_reward_expectancy_bt,2022.2.4,Win32,60.58403005,Chrome,1536,864,,,,,1,1012,,,,,,,,,,,,,,,,,139,D,triangle,1,0,,,,,,,,,,,,,,,,repeat,letter,lettRpt,j,Lo,,,,,,0.8359,3,,,,,,,,high,20,0,20,0,1,,,,,,,,,
297061,2022-11-15_22h04.47.402,vts_reward_expectancy_bt,2022.2.4,Win32,60.58403005,Chrome,1536,864,,,,,0,1012,,,,,,,,,,,,,,,,,132,U,circle,-1,0,,,,,,,,,,,,,,,,switch,no_choice,NA,,Lo,,,,,,,3,,,,,,,,high,21,0,21,0,1,,,,,,,,,
297061,2022-11-15_22h04.47.402,vts_reward_expectancy_bt,2022.2.4,Win32,60.58403005,Chrome,1536,864,,,,,10,1022,,,,,,,,,,,,,,,,,181,W,star,1,0,,,,,,,,,,,,,,,,switch,letter,lettSwt,k,Hi,,,,,,1.0356,3,,,,,,,,high,22,0,22,0,1,,,,,,,,,
297061,2022-11-15_22h04.47.402,vts_reward_expectancy_bt,2022.2.4,Win32,60.58403005,Chrome,1536,864,,,,,10,1032,,,,,,,,,,,,,,,,,174,B,hexagon,1,0,,,,,,,,,,,,,,,,repeat,letter,lettRpt,j,Hi,,,,,,0.733,3,,,,,,,,high,23,0,23,0,1,,,,,,,,,
297061,2022-11-15_22h04.47.402,vts_reward_expectancy_bt,2022.2.4,Win32,60.58403005,Chrome,1536,864,,,,,1,1033,,,,,,,,,,,,,,,,,174,S,triangle,1,0,,,,,,,,,,,,,,,,repeat,letter,lettRpt,k,Lo,,,,,,2.501,3,,,,,,,,high,24,0,24,0,1,,,,,,,,,
297061,2022-11-15_22h04.47.402,vts_reward_expectancy_bt,2022.2.4,Win32,60.58403005,Chrome,1536,864,,,,,0,1033,,,,,,,,,,,,,,,,,139,D,hexagon,1,0,,,,,,,,,,,,,,,,repeat,letter,lettRpt,j,Hi,,,,,,1.0333,3,,,,,,,,high,25,0,25,0,1,,,,,,,,,
297061,2022-11-15_22h04.47.402,vts_reward_expectancy_bt,2022.2.4,Win32,60.58403005,Chrome,1536,864,,,,,0,1033,,,,,,,,,,,,,,,,,167,F,star,1,0,,,,,,,,,,,,,,,,repeat,letter,lettRpt,j,Hi,,,,,,2.0915,3,,,,,,,,high,26,0,26,0,1,,,,,,,,,
297061,2022-11-15_22h04.47.402,vts_reward_expectancy_bt,2022.2.4,Win32,60.58403005,Chrome,1536,864,,,,,1,1034,,,,,,,,,,,,,,,,,160,W,circle,1,0,,,,,,,,,,,,,,,,repeat,letter,lettRpt,k,Lo,,,,,,0.6955,3,,,,,,,,high,27,0,27,0,1,,,,,,,,,
297061,2022-11-15_22h04.47.402,vts_reward_expectancy_bt,2022.2.4,Win32,60.58403005,Chrome,1536,864,,,,,1,1035,,,,,,,,,,,,,,,,,132,U,circle,1,0,,,,,,,,,,,,,,,,repeat,letter,lettRpt,k,Lo,,,,,,0.5846,3,,,,,,,,high,28,0,28,0,1,,,,,,,,,
297061,2022-11-15_22h04.47.402,vts_reward_expectancy_bt,2022.2.4,Win32,60.58403005,Chrome,1536,864,,,,,1,1036,,,,,,,,,,,,,,,,,125,B,triangle,1,0,,,,,,,,,,,,,,,,repeat,letter,lettRpt,j,Lo,,,,,,0.8877,3,,,,,,,,high,29,0,29,0,1,,,,,,,,,
297061,2022-11-15_22h04.47.402,vts_reward_expectancy_bt,2022.2.4,Win32,60.58403005,Chrome,1536,864,,,,,0,1036,,,,,,,,,,,,,,,,,181,H,hexagon,0,0,,,,,,,,,,,,,,,,repeat,letter,NA,k,Lo,,,,,,1.1666,3,,,,,,,,high,30,0,30,0,1,,,,,,,,,
297061,2022-11-15_22h04.47.402,vts_reward_expectancy_bt,2022.2.4,Win32,60.58403005,Chrome,1536,864,,,,,10,1046,,,,,,,,,,,,,,,,,146,Y,star,1,1,,,,,,,,,,,,,,,,repeat,letter,lettRpt,k,Hi,,,,,,0.688,3,,,,,,,,high,31,0,31,0,1,,,,,,,,,
297061,2022-11-15_22h04.47.402,vts_reward_expectancy_bt,2022.2.4,Win32,60.58403005,Chrome,1536,864,,,,,1,1047,,,,,,,,,,,,,,,,,174,W,triangle,1,0,,,,,,,,,,,,,,,,repeat,letter,lettRpt,k,Lo,,,,,,2.7255,4,,,,,,space,3.4019,high,0,0,0,0,1,,,,,,,,,
297061,2022-11-15_22h04.47.402,vts_reward_expectancy_bt,2022.2.4,Win32,60.58403005,Chrome,1536,864,,,,,0,1047,,,,,,,,,,,,,,,,,146,H,star,1,0,,,,,,,,,,,,,,,,repeat,letter,lettRpt,j,Hi,,,,,,1.7164,4,,,,,,,,high,1,0,1,0,1,,,,,,,,,
297061,2022-11-15_22h04.47.402,vts_reward_expectancy_bt,2022.2.4,Win32,60.58403005,Chrome,1536,864,,,,,0,1047,,,,,,,,,,,,,,,,,181,F,hexagon,1,0,,,,,,,,,,,,,,,,repeat,letter,lettRpt,j,Hi,,,,,,1.0263,4,,,,,,,,high,2,0,2,0,1,,,,,,,,,
297061,2022-11-15_22h04.47.402,vts_reward_expectancy_bt,2022.2.4,Win32,60.58403005,Chrome,1536,864,,,,,1,1048,,,,,,,,,,,,,,,,,132,B,circle,1,0,,,,,,,,,,,,,,,,repeat,letter,lettRpt,j,Lo,,,,,,0.5779,4,,,,,,,,high,3,0,3,0,1,,,,,,,,,
297061,2022-11-15_22h04.47.402,vts_reward_expectancy_bt,2022.2.4,Win32,60.58403005,Chrome,1536,864,,,,,0,1048,,,,,,,,,,,,,,,,,167,D,triangle,0,0,,,,,,,,,,,,,,,,repeat,letter,NA,k,Lo,,,,,,0.4006,4,,,,,,,,high,4,0,4,0,1,,,,,,,,,
297061,2022-11-15_22h04.47.402,vts_reward_expectancy_bt,2022.2.4,Win32,60.58403005,Chrome,1536,864,,,,,0,1048,,,,,,,,,,,,,,,,,139,Y,star,1,1,,,,,,,,,,,,,,,,repeat,letter,lettRpt,k,Hi,,,,,,1.6998,4,,,,,,,,high,5,0,5,0,1,,,,,,,,,
297061,2022-11-15_22h04.47.402,vts_reward_expectancy_bt,2022.2.4,Win32,60.58403005,Chrome,1536,864,,,,,0,1048,,,,,,,,,,,,,,,,,125,S,hexagon,1,0,,,,,,,,,,,,,,,,repeat,letter,lettRpt,k,Hi,,,,,,0.9214,4,,,,,,,,high,6,0,6,0,1,,,,,,,,,
297061,2022-11-15_22h04.47.402,vts_reward_expectancy_bt,2022.2.4,Win32,60.58403005,Chrome,1536,864,,,,,1,1049,,,,,,,,,,,,,,,,,160,U,circle,1,0,,,,,,,,,,,,,,,,repeat,letter,lettRpt,k,Lo,,,,,,1.0572,4,,,,,,,,high,7,0,7,0,1,,,,,,,,,
297061,2022-11-15_22h04.47.402,vts_reward_expectancy_bt,2022.2.4,Win32,60.58403005,Chrome,1536,864,,,,,10,1059,,,,,,,,,,,,,,,,,174,W,triangle,1,0,,,,,,,,,,,,,,,,repeat,letter,lettRpt,k,Lo,,,,,,0.7337,4,,,,,,,,high,8,0,8,0,1,,,,,,,,,
297061,2022-11-15_22h04.47.402,vts_reward_expectancy_bt,2022.2.4,Win32,60.58403005,Chrome,1536,864,,,,,0,1059,,,,,,,,,,,,,,,,,146,H,circle,-1,0,,,,,,,,,,,,,,,,switch,no_choice,NA,,Lo,,,,,,,4,,,,,,,,high,9,0,9,0,1,,,,,,,,,
297061,2022-11-15_22h04.47.402,vts_reward_expectancy_bt,2022.2.4,Win32,60.58403005,Chrome,1536,864,,,,,1,1060,,,,,,,,,,,,,,,,,181,F,star,1,0,,,,,,,,,,,,,,,,switch,letter,lettSwt,j,Hi,,,,,,0.7507,4,,,,,,,,high,10,0,10,0,1,,,,,,,,,
297061,2022-11-15_22h04.47.402,vts_reward_expectancy_bt,2022.2.4,Win32,60.58403005,Chrome,1536,864,,,,,0,1060,,,,,,,,,,,,,,,,,132,B,hexagon,1,0,,,,,,,,,,,,,,,,repeat,letter,lettRpt,j,Hi,,,,,,1.3281,4,,,,,,,,high,11,0,11,0,1,,,,,,,,,
297061,2022-11-15_22h04.47.402,vts_reward_expectancy_bt,2022.2.4,Win32,60.58403005,Chrome,1536,864,,,,,0,1060,,,,,,,,,,,,,,,,,167,D,hexagon,1,0,,,,,,,,,,,,,,,,repeat,letter,lettRpt,j,Hi,,,,,,1.1001,4,,,,,,,,high,12,0,12,0,1,,,,,,,,,
297061,2022-11-15_22h04.47.402,vts_reward_expectancy_bt,2022.2.4,Win32,60.58403005,Chrome,1536,864,,,,,1,1061,,,,,,,,,,,,,,,,,139,Y,circle,1,0,,,,,,,,,,,,,,,,repeat,letter,lettRpt,k,Lo,,,,,,1.0502,4,,,,,,,,high,13,0,13,0,1,,,,,,,,,
297061,2022-11-15_22h04.47.402,vts_reward_expectancy_bt,2022.2.4,Win32,60.58403005,Chrome,1536,864,,,,,1,1062,,,,,,,,,,,,,,,,,125,S,triangle,1,0,,,,,,,,,,,,,,,,repeat,letter,lettRpt,k,Lo,,,,,,1.36,4,,,,,,,,high,14,0,14,0,1,,,,,,,,,
297061,2022-11-15_22h04.47.402,vts_reward_expectancy_bt,2022.2.4,Win32,60.58403005,Chrome,1536,864,,,,,10,1072,,,,,,,,,,,,,,,,,160,U,star,1,0,,,,,,,,,,,,,,,,repeat,letter,lettRpt,k,Hi,,,,,,0.8096,4,,,,,,,,high,15,0,15,0,1,,,,,,,,,
297061,2022-11-15_22h04.47.402,vts_reward_expectancy_bt,2022.2.4,Win32,60.58403005,Chrome,1536,864,,,,,10,1082,,,,,,,,,,,,,,,,,139,B,triangle,1,0,,,,,,,,,,,,,,,,repeat,letter,lettRpt,j,Lo,,,,,,0.7759,4,,,,,,,,high,16,0,16,0,1,,,,,,,,,
297061,2022-11-15_22h04.47.402,vts_reward_expectancy_bt,2022.2.4,Win32,60.58403005,Chrome,1536,864,,,,,10,1092,,,,,,,,,,,,,,,,,146,W,star,1,0,,,,,,,,,,,,,,,,repeat,letter,lettRpt,k,Hi,,,,,,0.7385,4,,,,,,,,high,17,0,17,0,1,,,,,,,,,
297061,2022-11-15_22h04.47.402,vts_reward_expectancy_bt,2022.2.4,Win32,60.58403005,Chrome,1536,864,,,,,0,1092,,,,,,,,,,,,,,,,,132,S,hexagon,1,0,,,,,,,,,,,,,,,,repeat,letter,lettRpt,k,Hi,,,,,,0.9,4,,,,,,,,high,18,0,18,0,1,,,,,,,,,
297061,2022-11-15_22h04.47.402,vts_reward_expectancy_bt,2022.2.4,Win32,60.58403005,Chrome,1536,864,,,,,10,1102,,,,,,,,,,,,,,,,,181,U,circle,1,0,,,,,,,,,,,,,,,,repeat,letter,lettRpt,k,Lo,,,,,,1.304,4,,,,,,,,high,19,0,19,0,1,,,,,,,,,
297061,2022-11-15_22h04.47.402,vts_reward_expectancy_bt,2022.2.4,Win32,60.58403005,Chrome,1536,864,,,,,10,1112,,,,,,,,,,,,,,,,,174,Y,hexagon,1,0,,,,,,,,,,,,,,,,repeat,letter,lettRpt,k,Hi,,,,,,0.7763,4,,,,,,,,high,20,0,20,0,1,,,,,,,,,
297061,2022-11-15_22h04.47.402,vts_reward_expectancy_bt,2022.2.4,Win32,60.58403005,Chrome,1536,864,,,,,10,1122,,,,,,,,,,,,,,,,,167,H,triangle,1,0,,,,,,,,,,,,,,,,repeat,letter,lettRpt,j,Lo,,,,,,2.9321,4,,,,,,,,high,21,0,21,0,1,,,,,,,,,
297061,2022-11-15_22h04.47.402,vts_reward_expectancy_bt,2022.2.4,Win32,60.58403005,Chrome,1536,864,,,,,10,1132,,,,,,,,,,,,,,,,,125,F,star,1,0,,,,,,,,,,,,,,,,repeat,letter,lettRpt,j,Hi,,,,,,0.7361,4,,,,,,,,high,22,0,22,0,1,,,,,,,,,
297061,2022-11-15_22h04.47.402,vts_reward_expectancy_bt,2022.2.4,Win32,60.58403005,Chrome,1536,864,,,,,1,1133,,,,,,,,,,,,,,,,,160,D,circle,1,0,,,,,,,,,,,,,,,,repeat,letter,lettRpt,j,Lo,,,,,,1.6165,4,,,,,,,,high,23,0,23,0,1,,,,,,,,,
297061,2022-11-15_22h04.47.402,vts_reward_expectancy_bt,2022.2.4,Win32,60.58403005,Chrome,1536,864,,,,,1,1134,,,,,,,,,,,,,,,,,181,W,circle,1,0,,,,,,,,,,,,,,,,repeat,letter,lettRpt,k,Lo,,,,,,1.8753,4,,,,,,,,high,24,0,24,0,1,,,,,,,,,
297061,2022-11-15_22h04.47.402,vts_reward_expectancy_bt,2022.2.4,Win32,60.58403005,Chrome,1536,864,,,,,0,1134,,,,,,,,,,,,,,,,,146,D,star,1,0,,,,,,,,,,,,,,,,repeat,letter,lettRpt,j,Hi,,,,,,1.322,4,,,,,,,,high,25,0,25,0,1,,,,,,,,,
297061,2022-11-15_22h04.47.402,vts_reward_expectancy_bt,2022.2.4,Win32,60.58403005,Chrome,1536,864,,,,,1,1135,,,,,,,,,,,,,,,,,167,Y,triangle,1,0,,,,,,,,,,,,,,,,repeat,letter,lettRpt,k,Lo,,,,,,1.6922,4,,,,,,,,high,26,0,26,0,1,,,,,,,,,
297061,2022-11-15_22h04.47.402,vts_reward_expectancy_bt,2022.2.4,Win32,60.58403005,Chrome,1536,864,,,,,0,1135,,,,,,,,,,,,,,,,,139,F,hexagon,1,0,,,,,,,,,,,,,,,,repeat,letter,lettRpt,j,Hi,,,,,,2.1005,4,,,,,,,,high,27,0,27,0,1,,,,,,,,,
297061,2022-11-15_22h04.47.402,vts_reward_expectancy_bt,2022.2.4,Win32,60.58403005,Chrome,1536,864,,,,,0,1135,,,,,,,,,,,,,,,,,174,H,star,1,0,,,,,,,,,,,,,,,,repeat,letter,lettRpt,j,Hi,,,,,,2.1114,4,,,,,,,,high,28,0,28,0,1,,,,,,,,,
297061,2022-11-15_22h04.47.402,vts_reward_expectancy_bt,2022.2.4,Win32,60.58403005,Chrome,1536,864,,,,,10,1145,,,,,,,,,,,,,,,,,160,U,circle,1,0,,,,,,,,,,,,,,,,repeat,letter,lettRpt,k,Lo,,,,,,2.4324,4,,,,,,,,high,29,0,29,0,1,,,,,,,,,
297061,2022-11-15_22h04.47.402,vts_reward_expectancy_bt,2022.2.4,Win32,60.58403005,Chrome,1536,864,,,,,10,1155,,,,,,,,,,,,,,,,,132,B,hexagon,1,0,,,,,,,,,,,,,,,,repeat,letter,lettRpt,j,Hi,,,,,,0.7717,4,,,,,,,,high,30,0,30,0,1,,,,,,,,,
297061,2022-11-15_22h04.47.402,vts_reward_expectancy_bt,2022.2.4,Win32,60.58403005,Chrome,1536,864,,,,,1,1156,,,,,,,,,,,,,,,,,125,S,triangle,1,0,,,,,,,,,,,,,,,,repeat,letter,lettRpt,k,Lo,,,,,,1.236,4,,,,,,,,high,31,0,31,0,1,,,,,,,,,
297061,2022-11-15_22h04.47.402,vts_reward_expectancy_bt,2022.2.4,Win32,60.58403005,Chrome,1536,864,,,,,10,1166,,,,,,,,,,,,,,,,,174,S,triangle,1,0,,,,,,,,,,,,,,,,repeat,letter,lettRpt,k,Lo,,,,,,1.4008,5,,,,,,space,48.1706,high,0,0,0,0,1,,,,,,,,,
297061,2022-11-15_22h04.47.402,vts_reward_expectancy_bt,2022.2.4,Win32,60.58403005,Chrome,1536,864,,,,,10,1176,,,,,,,,,,,,,,,,,160,Y,star,1,0,,,,,,,,,,,,,,,,repeat,letter,lettRpt,k,Hi,,,,,,0.8564,5,,,,,,,,high,1,0,1,0,1,,,,,,,,,
297061,2022-11-15_22h04.47.402,vts_reward_expectancy_bt,2022.2.4,Win32,60.58403005,Chrome,1536,864,,,,,1,1177,,,,,,,,,,,,,,,,,181,F,circle,1,0,,,,,,,,,,,,,,,,repeat,letter,lettRpt,j,Lo,,,,,,1.5698,5,,,,,,,,high,2,0,2,0,1,,,,,,,,,
297061,2022-11-15_22h04.47.402,vts_reward_expectancy_bt,2022.2.4,Win32,60.58403005,Chrome,1536,864,,,,,0,1177,,,,,,,,,,,,,,,,,132,U,hexagon,1,0,,,,,,,,,,,,,,,,repeat,letter,lettRpt,k,Hi,,,,,,1.6548,5,,,,,,,,high,3,0,3,0,1,,,,,,,,,
297061,2022-11-15_22h04.47.402,vts_reward_expectancy_bt,2022.2.4,Win32,60.58403005,Chrome,1536,864,,,,,1,1178,,,,,,,,,,,,,,,,,139,B,triangle,1,0,,,,,,,,,,,,,,,,repeat,letter,lettRpt,j,Lo,,,,,,1.678,5,,,,,,,,high,4,0,4,0,1,,,,,,,,,
297061,2022-11-15_22h04.47.402,vts_reward_expectancy_bt,2022.2.4,Win32,60.58403005,Chrome,1536,864,,,,,0,1178,,,,,,,,,,,,,,,,,167,H,star,1,0,,,,,,,,,,,,,,,,repeat,letter,lettRpt,j,Hi,,,,,,1.5835,5,,,,,,,,high,5,0,5,0,1,,,,,,,,,
297061,2022-11-15_22h04.47.402,vts_reward_expectancy_bt,2022.2.4,Win32,60.58403005,Chrome,1536,864,,,,,1,1179,,,,,,,,,,,,,,,,,146,D,circle,1,0,,,,,,,,,,,,,,,,repeat,letter,lettRpt,j,Lo,,,,,,2.384,5,,,,,,,,high,6,0,6,0,1,,,,,,,,,
297061,2022-11-15_22h04.47.402,vts_reward_expectancy_bt,2022.2.4,Win32,60.58403005,Chrome,1536,864,,,,,0,1179,,,,,,,,,,,,,,,,,125,W,hexagon,1,0,,,,,,,,,,,,,,,,repeat,letter,lettRpt,k,Hi,,,,,,2.8543,5,,,,,,,,high,7,0,7,0,1,,,,,,,,,
297061,2022-11-15_22h04.47.402,vts_reward_expectancy_bt,2022.2.4,Win32,60.58403005,Chrome,1536,864,,,,,0,1179,,,,,,,,,,,,,,,,,174,S,hexagon,1,0,,,,,,,,,,,,,,,,repeat,letter,lettRpt,k,Hi,,,,,,2.378,5,,,,,,,,high,8,0,8,0,1,,,,,,,,,
297061,2022-11-15_22h04.47.402,vts_reward_expectancy_bt,2022.2.4,Win32,60.58403005,Chrome,1536,864,,,,,0,1179,,,,,,,,,,,,,,,,,160,Y,star,1,0,,,,,,,,,,,,,,,,repeat,letter,lettRpt,k,Hi,,,,,,2.5365,5,,,,,,,,high,9,0,9,0,1,,,,,,,,,
297061,2022-11-15_22h04.47.402,vts_reward_expectancy_bt,2022.2.4,Win32,60.58403005,Chrome,1536,864,,,,,0,1179,,,,,,,,,,,,,,,,,181,F,circle,-1,0,,,,,,,,,,,,,,,,switch,no_choice,NA,,Hi,,,,,,,5,,,,,,,,high,10,0,10,0,1,,,,,,,,,
297061,2022-11-15_22h04.47.402,vts_reward_expectancy_bt,2022.2.4,Win32,60.58403005,Chrome,1536,864,,,,,1,1180,,,,,,,,,,,,,,,,,132,U,triangle,1,0,,,,,,,,,,,,,,,,switch,letter,lettSwt,k,Lo,,,,,,0.7234,5,,,,,,,,high,11,0,11,0,1,,,,,,,,,
297061,2022-11-15_22h04.47.402,vts_reward_expectancy_bt,2022.2.4,Win32,60.58403005,Chrome,1536,864,,,,,1,1181,,,,,,,,,,,,,,,,,139,B,triangle,1,0,,,,,,,,,,,,,,,,switch,number,numSwt,d,Lo,,,,,,0.7431,5,,,,,,,,high,12,0,12,0,1,,,,,,,,,
297061,2022-11-15_22h04.47.402,vts_reward_expectancy_bt,2022.2.4,Win32,60.58403005,Chrome,1536,864,,,,,1,1182,,,,,,,,,,,,,,,,,167,H,circle,1,0,,,,,,,,,,,,,,,,repeat,number,numRpt,f,Lo,,,,,,0.7992,5,,,,,,,,high,13,0,13,0,1,,,,,,,,,
297061,2022-11-15_22h04.47.402,vts_reward_expectancy_bt,2022.2.4,Win32,60.58403005,Chrome,1536,864,,,,,0,1182,,,,,,,,,,,,,,,,,146,D,star,-1,0,,,,,,,,,,,,,,,,switch,no_choice,NA,,Lo,,,,,,,5,,,,,,,,high,14,0,14,0,1,,,,,,,,,
297061,2022-11-15_22h04.47.402,vts_reward_expectancy_bt,2022.2.4,Win32,60.58403005,Chrome,1536,864,,,,,0,1182,,,,,,,,,,,,,,,,,125,W,hexagon,-1,0,,,,,,,,,,,,,,,,repeat,no_choice,NA,,Lo,,,,,,,5,,,,,,,,high,15,0,15,0,1,,,,,,,,,
297061,2022-11-15_22h04.47.402,vts_reward_expectancy_bt,2022.2.4,Win32,60.58403005,Chrome,1536,864,,,,,0,1182,,,,,,,,,,,,,,,,,139,U,star,1,0,,,,,,,,,,,,,,,,switch,letter,lettSwt,k,Hi,,,,,,1.35,5,,,,,,,,high,16,0,16,0,1,,,,,,,,,
297061,2022-11-15_22h04.47.402,vts_reward_expectancy_bt,2022.2.4,Win32,60.58403005,Chrome,1536,864,,,,,0,1182,,,,,,,,,,,,,,,,,160,B,hexagon,1,0,,,,,,,,,,,,,,,,repeat,letter,lettRpt,j,Hi,,,,,,1.4893,5,,,,,,,,high,17,0,17,0,1,,,,,,,,,
297061,2022-11-15_22h04.47.402,vts_reward_expectancy_bt,2022.2.4,Win32,60.58403005,Chrome,1536,864,,,,,1,1183,,,,,,,,,,,,,,,,,146,D,triangle,1,0,,,,,,,,,,,,,,,,repeat,letter,lettRpt,j,Lo,,,,,,0.9826,5,,,,,,,,high,18,0,18,0,1,,,,,,,,,
297061,2022-11-15_22h04.47.402,vts_reward_expectancy_bt,2022.2.4,Win32,60.58403005,Chrome,1536,864,,,,,1,1184,,,,,,,,,,,,,,,,,125,S,circle,1,0,,,,,,,,,,,,,,,,repeat,letter,lettRpt,k,Lo,,,,,,1.2497,5,,,,,,,,high,19,0,19,0,1,,,,,,,,,
297061,2022-11-15_22h04.47.402,vts_reward_expectancy_bt,2022.2.4,Win32,60.58403005,Chrome,1536,864,,,,,0,1184,,,,,,,,,,,,,,,,,174,F,triangle,-1,0,,,,,,,,,,,,,,,,switch,no_choice,NA,,Lo,,,,,,,5,,,,,,,,high,20,0,20,0,1,,,,,,,,,
297061,2022-11-15_22h04.47.402,vts_reward_expectancy_bt,2022.2.4,Win32,60.58403005,Chrome,1536,864,,,,,0,1184,,,,,,,,,,,,,,,,,167,H,hexagon,1,0,,,,,,,,,,,,,,,,switch,letter,lettSwt,j,Hi,,,,,,1.7901,5,,,,,,,,high,21,0,21,0,1,,,,,,,,,
297061,2022-11-15_22h04.47.402,vts_reward_expectancy_bt,2022.2.4,Win32,60.58403005,Chrome,1536,864,,,,,1,1185,,,,,,,,,,,,,,,,,132,W,circle,1,0,,,,,,,,,,,,,,,,repeat,letter,lettRpt,k,Lo,,,,,,1.2733,5,,,,,,,,high,22,0,22,0,1,,,,,,,,,
297061,2022-11-15_22h04.47.402,vts_reward_expectancy_bt,2022.2.4,Win32,60.58403005,Chrome,1536,864,,,,,0,1185,,,,,,,,,,,,,,,,,181,Y,star,1,0,,,,,,,,,,,,,,,,repeat,letter,lettRpt,k,Hi,,,,,,1.0174,5,,,,,,,,high,23,0,23,0,1,,,,,,,,,
297061,2022-11-15_22h04.47.402,vts_reward_expectancy_bt,2022.2.4,Win32,60.58403005,Chrome,1536,864,,,,,0,1185,,,,,,,,,,,,,,,,,160,D,hexagon,1,0,,,,,,,,,,,,,,,,repeat,letter,lettRpt,j,Hi,,,,,,1.009,5,,,,,,,,high,24,0,24,0,1,,,,,,,,,
297061,2022-11-15_22h04.47.402,vts_reward_expectancy_bt,2022.2.4,Win32,60.58403005,Chrome,1536,864,,,,,0,1185,,,,,,,,,,,,,,,,,125,U,star,1,0,,,,,,,,,,,,,,,,repeat,letter,lettRpt,k,Hi,,,,,,1.3001,5,,,,,,,,high,25,0,25,0,1,,,,,,,,,
297061,2022-11-15_22h04.47.402,vts_reward_expectancy_bt,2022.2.4,Win32,60.58403005,Chrome,1536,864,,,,,1,1186,,,,,,,,,,,,,,,,,139,B,circle,1,0,,,,,,,,,,,,,,,,repeat,letter,lettRpt,j,Lo,,,,,,1.2344,5,,,,,,,,high,26,0,26,0,1,,,,,,,,,
297061,2022-11-15_22h04.47.402,vts_reward_expectancy_bt,2022.2.4,Win32,60.58403005,Chrome,1536,864,,,,,1,1187,,,,,,,,,,,,,,,,,174,Y,triangle,1,0,,,,,,,,,,,,,,,,repeat,letter,lettRpt,k,Lo,,,,,,1.9339,5,,,,,,,,high,27,0,27,0,1,,,,,,,,,
297061,2022-11-15_22h04.47.402,vts_reward_expectancy_bt,2022.2.4,Win32,60.58403005,Chrome,1536,864,,,,,1,1188,,,,,,,,,,,,,,,,,132,W,circle,1,0,,,,,,,,,,,,,,,,repeat,letter,lettRpt,k,Lo,,,,,,2.5691,5,,,,,,,,high,28,0,28,0,1,,,,,,,,,
297061,2022-11-15_22h04.47.402,vts_reward_expectancy_bt,2022.2.4,Win32,60.58403005,Chrome,1536,864,,,,,0,1188,,,,,,,,,,,,,,,,,167,H,hexagon,1,0,,,,,,,,,,,,,,,,repeat,letter,lettRpt,j,Hi,,,,,,1.5724,5,,,,,,,,high,29,0,29,0,1,,,,,,,,,
297061,2022-11-15_22h04.47.402,vts_reward_expectancy_bt,2022.2.4,Win32,60.58403005,Chrome,1536,864,,,,,1,1189,,,,,,,,,,,,,,,,,181,S,triangle,1,0,,,,,,,,,,,,,,,,repeat,letter,lettRpt,k,Lo,,,,,,1.9665,5,,,,,,,,high,30,0,30,0,1,,,,,,,,,
