participant,date,expName,psychopyVersion,OS,frameRate,browser,xResolution,yResolution,key_resp.keys,key_resp.rt,training_resp.keys,training_resp.rt,points_trial,points_cumul,trainBlock,training.thisRepN,training.thisTrialN,training.thisN,training.thisIndex,training.ran,LTriangleOpac,LCircleOpac,LHexagonOpac,LStarOpac,RTriangleOpac,RCircleOpac,RHexagonOpac,RStarOpac,LShape_ID,RShape_ID,curr_topStim,curr_bottStim,curr_shape,acc,E1,target_resp_prac1.keys,pracBlock,task1_prac_trials.thisRepN,task1_prac_trials.thisTrialN,task1_prac_trials.thisN,task1_prac_trials.thisIndex,task1_prac_trials.ran,target_resp_prac1.rt,target_resp_prac2.keys,target_resp_prac2.rt,task2_praac_trials.thisRepN,task2_praac_trials.thisTrialN,task2_praac_trials.thisN,task2_praac_trials.thisIndex,task2_praac_trials.ran,alt,task,condition,target_resp.keys,target_resp.rt,rewCond,vts_practice_trials.thisRepN,vts_practice_trials.thisTrialN,vts_practice_trials.thisN,vts_practice_trials.thisIndex,vts_practice_trials.ran,blockNum,trials_norew.thisRepN,trials_norew.thisTrialN,trials_norew.thisN,trials_norew.thisIndex,trials_norew.ran,key_resp_2.keys,key_resp_2.rt,rewExpectancy,trials_rew.thisRepN,trials_rew.thisTrialN,trials_rew.thisN,trials_rew.thisIndex,trials_rew.ran,Q1,Q2,Q2_text,Q3,Q4,Q5_text,Q5,xRes,yRes
297085,2022-11-26_13h14.32.918,vts_reward_expectancy_bt,2022.2.4,MacIntel,60.0024001,Chrome,1920,1080,,,,,,,,,,,,,,,,,,,,,,,,,,,,,,,,,,,,,,,,,,,,,,,,,,,,,,,,,,,,,,,,,,,,,,,,,,,,
297085,2022-11-26_13h14.32.918,vts_reward_expectancy_bt,2022.2.4,MacIntel,60.0024001,Chrome,1920,1080,space,6.5769,,,,,,,,,,,,,,,,,,,,,,,,,,,,,,,,,,,,,,,,,,,,,,,,,,,,,,,,,,,,,,,,,,,,,,,,,,
297085,2022-11-26_13h14.32.918,vts_reward_expectancy_bt,2022.2.4,MacIntel,60.0024001,Chrome,1920,1080,,,,,,,,,,,,,,,,,,,,,,,,,,,,,,,,,,,,,,,,,,,,,,,,,,,,,,,,,,,,,,,,,,,,,,,,,,,,
297085,2022-11-26_13h14.32.918,vts_reward_expectancy_bt,2022.2.4,MacIntel,60.0024001,Chrome,1920,1080,,,l,6.452,10,10,0,0,0,0,1,1,1,0,0,0,0,0,1,0,triangle,hexagon,,,,,,,,,,,,,,,,,,,,,,,,,,,,,,,,,,,,,,,,,,,,,,,,,,,,,,
297085,2022-11-26_13h14.32.918,vts_reward_expectancy_bt,2022.2.4,MacIntel,60.0024001,Chrome,1920,1080,,,l,9.8167,1,11,0,0,1,1,4,1,0,1,0,0,0,0,1,0,circle,hexagon,,,,,,,,,,,,,,,,,,,,,,,,,,,,,,,,,,,,,,,,,,,,,,,,,,,,,,
297085,2022-11-26_13h14.32.918,vts_reward_expectancy_bt,2022.2.4,MacIntel,60.0024001,Chrome,1920,1080,,,a,1.7227,1,12,0,0,2,2,6,1,0,0,1,0,1,0,0,0,hexagon,triangle,,,,,,,,,,,,,,,,,,,,,,,,,,,,,,,,,,,,,,,,,,,,,,,,,,,,,,
297085,2022-11-26_13h14.32.918,vts_reward_expectancy_bt,2022.2.4,MacIntel,60.0024001,Chrome,1920,1080,,,a,4.68,1,13,0,0,3,3,3,1,0,1,0,0,1,0,0,0,circle,triangle,,,,,,,,,,,,,,,,,,,,,,,,,,,,,,,,,,,,,,,,,,,,,,,,,,,,,,
297085,2022-11-26_13h14.32.918,vts_reward_expectancy_bt,2022.2.4,MacIntel,60.0024001,Chrome,1920,1080,,,a,4.5166,1,14,0,0,4,4,10,1,0,0,0,1,0,1,0,0,star ,circle,,,,,,,,,,,,,,,,,,,,,,,,,,,,,,,,,,,,,,,,,,,,,,,,,,,,,,
297085,2022-11-26_13h14.32.918,vts_reward_expectancy_bt,2022.2.4,MacIntel,60.0024001,Chrome,1920,1080,,,a,8.0764,10,24,0,0,5,5,2,1,1,0,0,0,0,0,0,1,triangle,star,,,,,,,,,,,,,,,,,,,,,,,,,,,,,,,,,,,,,,,,,,,,,,,,,,,,,,
297085,2022-11-26_13h14.32.918,vts_reward_expectancy_bt,2022.2.4,MacIntel,60.0024001,Chrome,1920,1080,,,a,1.2855,1,25,0,0,6,6,11,1,0,0,0,1,0,0,1,0,star,hexagon,,,,,,,,,,,,,,,,,,,,,,,,,,,,,,,,,,,,,,,,,,,,,,,,,,,,,,
297085,2022-11-26_13h14.32.918,vts_reward_expectancy_bt,2022.2.4,MacIntel,60.0024001,Chrome,1920,1080,,,l,1.7375,10,35,0,0,7,7,7,1,0,0,1,0,0,1,0,0,hexagon,circle,,,,,,,,,,,,,,,,,,,,,,,,,,,,,,,,,,,,,,,,,,,,,,,,,,,,,,
297085,2022-11-26_13h14.32.918,vts_reward_expectancy_bt,2022.2.4,MacIntel,60.0024001,Chrome,1920,1080,,,l,1.2338,10,45,0,0,8,8,9,1,0,0,0,1,1,0,0,0,star,triangle,,,,,,,,,,,,,,,,,,,,,,,,,,,,,,,,,,,,,,,,,,,,,,,,,,,,,,
297085,2022-11-26_13h14.32.918,vts_reward_expectancy_bt,2022.2.4,MacIntel,60.0024001,Chrome,1920,1080,,,a,3.3764,1,46,0,0,9,9,0,1,1,0,0,0,0,1,0,0,triangle,circle,,,,,,,,,,,,,,,,,,,,,,,,,,,,,,,,,,,,,,,,,,,,,,,,,,,,,,
297085,2022-11-26_13h14.32.918,vts_reward_expectancy_bt,2022.2.4,MacIntel,60.0024001,Chrome,1920,1080,,,a,1.9286,1,47,0,0,10,10,5,1,0,1,0,0,0,0,0,1,circle,star,,,,,,,,,,,,,,,,,,,,,,,,,,,,,,,,,,,,,,,,,,,,,,,,,,,,,,
297085,2022-11-26_13h14.32.918,vts_reward_expectancy_bt,2022.2.4,MacIntel,60.0024001,Chrome,1920,1080,,,l,1.6394,1,48,0,0,11,11,8,1,0,0,1,0,0,0,0,1,hexagon,star,,,,,,,,,,,,,,,,,,,,,,,,,,,,,,,,,,,,,,,,,,,,,,,,,,,,,,
297085,2022-11-26_13h14.32.918,vts_reward_expectancy_bt,2022.2.4,MacIntel,60.0024001,Chrome,1920,1080,,,a,1.3889,10,58,0,1,0,12,5,1,0,1,0,0,0,0,0,1,circle,star,,,,,,,,,,,,,,,,,,,,,,,,,,,,,,,,,,,,,,,,,,,,,,,,,,,,,,
297085,2022-11-26_13h14.32.918,vts_reward_expectancy_bt,2022.2.4,MacIntel,60.0024001,Chrome,1920,1080,,,l,1.1107,10,68,0,1,1,13,6,1,0,0,1,0,1,0,0,0,hexagon,triangle,,,,,,,,,,,,,,,,,,,,,,,,,,,,,,,,,,,,,,,,,,,,,,,,,,,,,,
297085,2022-11-26_13h14.32.918,vts_reward_expectancy_bt,2022.2.4,MacIntel,60.0024001,Chrome,1920,1080,,,a,2.3387,10,78,0,1,2,14,4,1,0,1,0,0,0,0,1,0,circle,hexagon,,,,,,,,,,,,,,,,,,,,,,,,,,,,,,,,,,,,,,,,,,,,,,,,,,,,,,
297085,2022-11-26_13h14.32.918,vts_reward_expectancy_bt,2022.2.4,MacIntel,60.0024001,Chrome,1920,1080,,,a,1.357,1,79,0,1,3,15,11,1,0,0,0,1,0,0,1,0,star,hexagon,,,,,,,,,,,,,,,,,,,,,,,,,,,,,,,,,,,,,,,,,,,,,,,,,,,,,,
297085,2022-11-26_13h14.32.918,vts_reward_expectancy_bt,2022.2.4,MacIntel,60.0024001,Chrome,1920,1080,,,l,1.0667,1,80,0,1,4,16,1,1,1,0,0,0,0,0,1,0,triangle,hexagon,,,,,,,,,,,,,,,,,,,,,,,,,,,,,,,,,,,,,,,,,,,,,,,,,,,,,,
297085,2022-11-26_13h14.32.918,vts_reward_expectancy_bt,2022.2.4,MacIntel,60.0024001,Chrome,1920,1080,,,l,0.7862,10,90,0,1,5,17,9,1,0,0,0,1,1,0,0,0,star,triangle,,,,,,,,,,,,,,,,,,,,,,,,,,,,,,,,,,,,,,,,,,,,,,,,,,,,,,
297085,2022-11-26_13h14.32.918,vts_reward_expectancy_bt,2022.2.4,MacIntel,60.0024001,Chrome,1920,1080,,,a,1.3968,10,100,0,1,6,18,0,1,1,0,0,0,0,1,0,0,triangle,circle,,,,,,,,,,,,,,,,,,,,,,,,,,,,,,,,,,,,,,,,,,,,,,,,,,,,,,
297085,2022-11-26_13h14.32.918,vts_reward_expectancy_bt,2022.2.4,MacIntel,60.0024001,Chrome,1920,1080,,,a,2.193,10,110,0,1,7,19,10,1,0,0,0,1,0,1,0,0,star ,circle,,,,,,,,,,,,,,,,,,,,,,,,,,,,,,,,,,,,,,,,,,,,,,,,,,,,,,
297085,2022-11-26_13h14.32.918,vts_reward_expectancy_bt,2022.2.4,MacIntel,60.0024001,Chrome,1920,1080,,,l,2.3952,1,111,0,1,8,20,8,1,0,0,1,0,0,0,0,1,hexagon,star,,,,,,,,,,,,,,,,,,,,,,,,,,,,,,,,,,,,,,,,,,,,,,,,,,,,,,
297085,2022-11-26_13h14.32.918,vts_reward_expectancy_bt,2022.2.4,MacIntel,60.0024001,Chrome,1920,1080,,,a,1.1026,10,121,0,1,9,21,2,1,1,0,0,0,0,0,0,1,triangle,star,,,,,,,,,,,,,,,,,,,,,,,,,,,,,,,,,,,,,,,,,,,,,,,,,,,,,,
297085,2022-11-26_13h14.32.918,vts_reward_expectancy_bt,2022.2.4,MacIntel,60.0024001,Chrome,1920,1080,,,l,1.3104,10,131,0,1,10,22,3,1,0,1,0,0,1,0,0,0,circle,triangle,,,,,,,,,,,,,,,,,,,,,,,,,,,,,,,,,,,,,,,,,,,,,,,,,,,,,,
297085,2022-11-26_13h14.32.918,vts_reward_expectancy_bt,2022.2.4,MacIntel,60.0024001,Chrome,1920,1080,,,l,2.4519,10,141,0,1,11,23,7,1,0,0,1,0,0,1,0,0,hexagon,circle,,,,,,,,,,,,,,,,,,,,,,,,,,,,,,,,,,,,,,,,,,,,,,,,,,,,,,
297085,2022-11-26_13h14.32.918,vts_reward_expectancy_bt,2022.2.4,MacIntel,60.0024001,Chrome,1920,1080,,,l,1.0008,10,151,0,2,0,24,3,1,0,1,0,0,1,0,0,0,circle,triangle,,,,,,,,,,,,,,,,,,,,,,,,,,,,,,,,,,,,,,,,,,,,,,,,,,,,,,
297085,2022-11-26_13h14.32.918,vts_reward_expectancy_bt,2022.2.4,MacIntel,60.0024001,Chrome,1920,1080,,,l,1.4335,1,152,0,2,1,25,7,1,0,0,1,0,0,1,0,0,hexagon,circle,,,,,,,,,,,,,,,,,,,,,,,,,,,,,,,,,,,,,,,,,,,,,,,,,,,,,,
297085,2022-11-26_13h14.32.918,vts_reward_expectancy_bt,2022.2.4,MacIntel,60.0024001,Chrome,1920,1080,,,l,0.8289,10,162,0,2,2,26,6,1,0,0,1,0,1,0,0,0,hexagon,triangle,,,,,,,,,,,,,,,,,,,,,,,,,,,,,,,,,,,,,,,,,,,,,,,,,,,,,,
297085,2022-11-26_13h14.32.918,vts_reward_expectancy_bt,2022.2.4,MacIntel,60.0024001,Chrome,1920,1080,,,a,1.1243,10,172,0,2,3,27,2,1,1,0,0,0,0,0,0,1,triangle,star,,,,,,,,,,,,,,,,,,,,,,,,,,,,,,,,,,,,,,,,,,,,,,,,,,,,,,
297085,2022-11-26_13h14.32.918,vts_reward_expectancy_bt,2022.2.4,MacIntel,60.0024001,Chrome,1920,1080,,,a,1.9411,10,182,0,2,4,28,1,1,1,0,0,0,0,0,1,0,triangle,hexagon,,,,,,,,,,,,,,,,,,,,,,,,,,,,,,,,,,,,,,,,,,,,,,,,,,,,,,
297085,2022-11-26_13h14.32.918,vts_reward_expectancy_bt,2022.2.4,MacIntel,60.0024001,Chrome,1920,1080,,,l,1.3799,1,183,0,2,5,29,9,1,0,0,0,1,1,0,0,0,star,triangle,,,,,,,,,,,,,,,,,,,,,,,,,,,,,,,,,,,,,,,,,,,,,,,,,,,,,,
297085,2022-11-26_13h14.32.918,vts_reward_expectancy_bt,2022.2.4,MacIntel,60.0024001,Chrome,1920,1080,,,a,2.2308,1,184,0,2,6,30,4,1,0,1,0,0,0,0,1,0,circle,hexagon,,,,,,,,,,,,,,,,,,,,,,,,,,,,,,,,,,,,,,,,,,,,,,,,,,,,,,
297085,2022-11-26_13h14.32.918,vts_reward_expectancy_bt,2022.2.4,MacIntel,60.0024001,Chrome,1920,1080,,,l,1.8308,10,194,0,2,7,31,10,1,0,0,0,1,0,1,0,0,star ,circle,,,,,,,,,,,,,,,,,,,,,,,,,,,,,,,,,,,,,,,,,,,,,,,,,,,,,,
297085,2022-11-26_13h14.32.918,vts_reward_expectancy_bt,2022.2.4,MacIntel,60.0024001,Chrome,1920,1080,,,a,0.8588,10,204,0,2,8,32,0,1,1,0,0,0,0,1,0,0,triangle,circle,,,,,,,,,,,,,,,,,,,,,,,,,,,,,,,,,,,,,,,,,,,,,,,,,,,,,,
297085,2022-11-26_13h14.32.918,vts_reward_expectancy_bt,2022.2.4,MacIntel,60.0024001,Chrome,1920,1080,,,l,2.7449,1,205,0,2,9,33,8,1,0,0,1,0,0,0,0,1,hexagon,star,,,,,,,,,,,,,,,,,,,,,,,,,,,,,,,,,,,,,,,,,,,,,,,,,,,,,,
297085,2022-11-26_13h14.32.918,vts_reward_expectancy_bt,2022.2.4,MacIntel,60.0024001,Chrome,1920,1080,,,a,1.1739,10,215,0,2,10,34,5,1,0,1,0,0,0,0,0,1,circle,star,,,,,,,,,,,,,,,,,,,,,,,,,,,,,,,,,,,,,,,,,,,,,,,,,,,,,,
297085,2022-11-26_13h14.32.918,vts_reward_expectancy_bt,2022.2.4,MacIntel,60.0024001,Chrome,1920,1080,,,l,2.5141,1,216,0,2,11,35,11,1,0,0,0,1,0,0,1,0,star,hexagon,,,,,,,,,,,,,,,,,,,,,,,,,,,,,,,,,,,,,,,,,,,,,,,,,,,,,,
297085,2022-11-26_13h14.32.918,vts_reward_expectancy_bt,2022.2.4,MacIntel,60.0024001,Chrome,1920,1080,,,l,2.3299,10,226,1,0,0,0,10,1,0,0,0,1,0,1,0,0,star ,circle,,,,,,,,,,,,,,,,,,,,,,,,,,,,,,,,,,,,,,,,,,,,,,,,,,,,,,
297085,2022-11-26_13h14.32.918,vts_reward_expectancy_bt,2022.2.4,MacIntel,60.0024001,Chrome,1920,1080,,,a,7.9901,10,236,1,0,1,1,4,1,0,1,0,0,0,0,1,0,circle,hexagon,,,,,,,,,,,,,,,,,,,,,,,,,,,,,,,,,,,,,,,,,,,,,,,,,,,,,,
297085,2022-11-26_13h14.32.918,vts_reward_expectancy_bt,2022.2.4,MacIntel,60.0024001,Chrome,1920,1080,,,a,4.2903,10,246,1,0,2,2,2,1,1,0,0,0,0,0,0,1,triangle,star,,,,,,,,,,,,,,,,,,,,,,,,,,,,,,,,,,,,,,,,,,,,,,,,,,,,,,
297085,2022-11-26_13h14.32.918,vts_reward_expectancy_bt,2022.2.4,MacIntel,60.0024001,Chrome,1920,1080,,,l,2.0606,10,256,1,0,3,3,9,1,0,0,0,1,1,0,0,0,star,triangle,,,,,,,,,,,,,,,,,,,,,,,,,,,,,,,,,,,,,,,,,,,,,,,,,,,,,,
297085,2022-11-26_13h14.32.918,vts_reward_expectancy_bt,2022.2.4,MacIntel,60.0024001,Chrome,1920,1080,,,l,2.3324,10,266,1,0,4,4,7,1,0,0,1,0,0,1,0,0,hexagon,circle,,,,,,,,,,,,,,,,,,,,,,,,,,,,,,,,,,,,,,,,,,,,,,,,,,,,,,
297085,2022-11-26_13h14.32.918,vts_reward_expectancy_bt,2022.2.4,MacIntel,60.0024001,Chrome,1920,1080,,,a,32.1657,1,267,1,0,5,5,11,1,0,0,0,1,0,0,1,0,star,hexagon,,,,,,,,,,,,,,,,,,,,,,,,,,,,,,,,,,,,,,,,,,,,,,,,,,,,,,
297085,2022-11-26_13h14.32.918,vts_reward_expectancy_bt,2022.2.4,MacIntel,60.0024001,Chrome,1920,1080,,,a,5.1282,10,277,1,0,6,6,1,1,1,0,0,0,0,0,1,0,triangle,hexagon,,,,,,,,,,,,,,,,,,,,,,,,,,,,,,,,,,,,,,,,,,,,,,,,,,,,,,
297085,2022-11-26_13h14.32.918,vts_reward_expectancy_bt,2022.2.4,MacIntel,60.0024001,Chrome,1920,1080,,,a,0.8281,1,278,1,0,7,7,0,1,1,0,0,0,0,1,0,0,triangle,circle,,,,,,,,,,,,,,,,,,,,,,,,,,,,,,,,,,,,,,,,,,,,,,,,,,,,,,
297085,2022-11-26_13h14.32.918,vts_reward_expectancy_bt,2022.2.4,MacIntel,60.0024001,Chrome,1920,1080,,,a,3.7529,1,279,1,0,8,8,8,1,0,0,1,0,0,0,0,1,hexagon,star,,,,,,,,,,,,,,,,,,,,,,,,,,,,,,,,,,,,,,,,,,,,,,,,,,,,,,
297085,2022-11-26_13h14.32.918,vts_reward_expectancy_bt,2022.2.4,MacIntel,60.0024001,Chrome,1920,1080,,,a,5.1835,10,289,1,0,9,9,5,1,0,1,0,0,0,0,0,1,circle,star,,,,,,,,,,,,,,,,,,,,,,,,,,,,,,,,,,,,,,,,,,,,,,,,,,,,,,
297085,2022-11-26_13h14.32.918,vts_reward_expectancy_bt,2022.2.4,MacIntel,60.0024001,Chrome,1920,1080,,,l,1.1971,10,299,1,0,10,10,3,1,0,1,0,0,1,0,0,0,circle,triangle,,,,,,,,,,,,,,,,,,,,,,,,,,,,,,,,,,,,,,,,,,,,,,,,,,,,,,
297085,2022-11-26_13h14.32.918,vts_reward_expectancy_bt,2022.2.4,MacIntel,60.0024001,Chrome,1920,1080,,,l,4.7331,1,300,1,0,11,11,6,1,0,0,1,0,1,0,0,0,hexagon,triangle,,,,,,,,,,,,,,,,,,,,,,,,,,,,,,,,,,,,,,,,,,,,,,,,,,,,,,
297085,2022-11-26_13h14.32.918,vts_reward_expectancy_bt,2022.2.4,MacIntel,60.0024001,Chrome,1920,1080,,,a,4.455,10,310,1,1,0,12,11,1,0,0,0,1,0,0,1,0,star,hexagon,,,,,,,,,,,,,,,,,,,,,,,,,,,,,,,,,,,,,,,,,,,,,,,,,,,,,,
297085,2022-11-26_13h14.32.918,vts_reward_expectancy_bt,2022.2.4,MacIntel,60.0024001,Chrome,1920,1080,,,l,4.3593,10,320,1,1,1,13,10,1,0,0,0,1,0,1,0,0,star ,circle,,,,,,,,,,,,,,,,,,,,,,,,,,,,,,,,,,,,,,,,,,,,,,,,,,,,,,
297085,2022-11-26_13h14.32.918,vts_reward_expectancy_bt,2022.2.4,MacIntel,60.0024001,Chrome,1920,1080,,,a,3.8453,10,330,1,1,2,14,2,1,1,0,0,0,0,0,0,1,triangle,star,,,,,,,,,,,,,,,,,,,,,,,,,,,,,,,,,,,,,,,,,,,,,,,,,,,,,,
297085,2022-11-26_13h14.32.918,vts_reward_expectancy_bt,2022.2.4,MacIntel,60.0024001,Chrome,1920,1080,,,a,4.3355,1,331,1,1,3,15,1,1,1,0,0,0,0,0,1,0,triangle,hexagon,,,,,,,,,,,,,,,,,,,,,,,,,,,,,,,,,,,,,,,,,,,,,,,,,,,,,,
297085,2022-11-26_13h14.32.918,vts_reward_expectancy_bt,2022.2.4,MacIntel,60.0024001,Chrome,1920,1080,,,l,4.2845,1,332,1,1,4,16,8,1,0,0,1,0,0,0,0,1,hexagon,star,,,,,,,,,,,,,,,,,,,,,,,,,,,,,,,,,,,,,,,,,,,,,,,,,,,,,,
297085,2022-11-26_13h14.32.918,vts_reward_expectancy_bt,2022.2.4,MacIntel,60.0024001,Chrome,1920,1080,,,l,1.5486,10,342,1,1,5,17,6,1,0,0,1,0,1,0,0,0,hexagon,triangle,,,,,,,,,,,,,,,,,,,,,,,,,,,,,,,,,,,,,,,,,,,,,,,,,,,,,,
297085,2022-11-26_13h14.32.918,vts_reward_expectancy_bt,2022.2.4,MacIntel,60.0024001,Chrome,1920,1080,,,a,0.8167,10,352,1,1,6,18,0,1,1,0,0,0,0,1,0,0,triangle,circle,,,,,,,,,,,,,,,,,,,,,,,,,,,,,,,,,,,,,,,,,,,,,,,,,,,,,,
297085,2022-11-26_13h14.32.918,vts_reward_expectancy_bt,2022.2.4,MacIntel,60.0024001,Chrome,1920,1080,,,l,4.6255,10,362,1,1,7,19,7,1,0,0,1,0,0,1,0,0,hexagon,circle,,,,,,,,,,,,,,,,,,,,,,,,,,,,,,,,,,,,,,,,,,,,,,,,,,,,,,
297085,2022-11-26_13h14.32.918,vts_reward_expectancy_bt,2022.2.4,MacIntel,60.0024001,Chrome,1920,1080,,,l,0.7338,10,372,1,1,8,20,3,1,0,1,0,0,1,0,0,0,circle,triangle,,,,,,,,,,,,,,,,,,,,,,,,,,,,,,,,,,,,,,,,,,,,,,,,,,,,,,
297085,2022-11-26_13h14.32.918,vts_reward_expectancy_bt,2022.2.4,MacIntel,60.0024001,Chrome,1920,1080,,,a,4.0075,10,382,1,1,9,21,5,1,0,1,0,0,0,0,0,1,circle,star,,,,,,,,,,,,,,,,,,,,,,,,,,,,,,,,,,,,,,,,,,,,,,,,,,,,,,
297085,2022-11-26_13h14.32.918,vts_reward_expectancy_bt,2022.2.4,MacIntel,60.0024001,Chrome,1920,1080,,,l,6.5686,1,383,1,1,10,22,9,1,0,0,0,1,1,0,0,0,star,triangle,,,,,,,,,,,,,,,,,,,,,,,,,,,,,,,,,,,,,,,,,,,,,,,,,,,,,,
297085,2022-11-26_13h14.32.918,vts_reward_expectancy_bt,2022.2.4,MacIntel,60.0024001,Chrome,1920,1080,,,a,3.8768,10,393,1,1,11,23,4,1,0,1,0,0,0,0,1,0,circle,hexagon,,,,,,,,,,,,,,,,,,,,,,,,,,,,,,,,,,,,,,,,,,,,,,,,,,,,,,
297085,2022-11-26_13h14.32.918,vts_reward_expectancy_bt,2022.2.4,MacIntel,60.0024001,Chrome,1920,1080,,,a,4.6903,1,394,1,2,0,24,11,1,0,0,0,1,0,0,1,0,star,hexagon,,,,,,,,,,,,,,,,,,,,,,,,,,,,,,,,,,,,,,,,,,,,,,,,,,,,,,
297085,2022-11-26_13h14.32.918,vts_reward_expectancy_bt,2022.2.4,MacIntel,60.0024001,Chrome,1920,1080,,,a,3.5872,10,404,1,2,1,25,1,1,1,0,0,0,0,0,1,0,triangle,hexagon,,,,,,,,,,,,,,,,,,,,,,,,,,,,,,,,,,,,,,,,,,,,,,,,,,,,,,
297085,2022-11-26_13h14.32.918,vts_reward_expectancy_bt,2022.2.4,MacIntel,60.0024001,Chrome,1920,1080,,,a,3.2204,1,405,1,2,2,26,3,1,0,1,0,0,1,0,0,0,circle,triangle,,,,,,,,,,,,,,,,,,,,,,,,,,,,,,,,,,,,,,,,,,,,,,,,,,,,,,
297085,2022-11-26_13h14.32.918,vts_reward_expectancy_bt,2022.2.4,MacIntel,60.0024001,Chrome,1920,1080,,,a,0.7307,10,415,1,2,3,27,0,1,1,0,0,0,0,1,0,0,triangle,circle,,,,,,,,,,,,,,,,,,,,,,,,,,,,,,,,,,,,,,,,,,,,,,,,,,,,,,
297085,2022-11-26_13h14.32.918,vts_reward_expectancy_bt,2022.2.4,MacIntel,60.0024001,Chrome,1920,1080,,,a,1.4602,1,416,1,2,4,28,4,1,0,1,0,0,0,0,1,0,circle,hexagon,,,,,,,,,,,,,,,,,,,,,,,,,,,,,,,,,,,,,,,,,,,,,,,,,,,,,,
297085,2022-11-26_13h14.32.918,vts_reward_expectancy_bt,2022.2.4,MacIntel,60.0024001,Chrome,1920,1080,,,l,2.5527,10,426,1,2,5,29,10,1,0,0,0,1,0,1,0,0,star ,circle,,,,,,,,,,,,,,,,,,,,,,,,,,,,,,,,,,,,,,,,,,,,,,,,,,,,,,
297085,2022-11-26_13h14.32.918,vts_reward_expectancy_bt,2022.2.4,MacIntel,60.0024001,Chrome,1920,1080,,,a,2.1255,10,436,1,2,6,30,5,1,0,1,0,0,0,0,0,1,circle,star,,,,,,,,,,,,,,,,,,,,,,,,,,,,,,,,,,,,,,,,,,,,,,,,,,,,,,
297085,2022-11-26_13h14.32.918,vts_reward_expectancy_bt,2022.2.4,MacIntel,60.0024001,Chrome,1920,1080,,,a,3.3298,10,446,1,2,7,31,2,1,1,0,0,0,0,0,0,1,triangle,star,,,,,,,,,,,,,,,,,,,,,,,,,,,,,,,,,,,,,,,,,,,,,,,,,,,,,,
297085,2022-11-26_13h14.32.918,vts_reward_expectancy_bt,2022.2.4,MacIntel,60.0024001,Chrome,1920,1080,,,l,1.9909,10,456,1,2,8,32,7,1,0,0,1,0,0,1,0,0,hexagon,circle,,,,,,,,,,,,,,,,,,,,,,,,,,,,,,,,,,,,,,,,,,,,,,,,,,,,,,
297085,2022-11-26_13h14.32.918,vts_reward_expectancy_bt,2022.2.4,MacIntel,60.0024001,Chrome,1920,1080,,,a,1.3979,10,466,1,2,9,33,8,1,0,0,1,0,0,0,0,1,hexagon,star,,,,,,,,,,,,,,,,,,,,,,,,,,,,,,,,,,,,,,,,,,,,,,,,,,,,,,
297085,2022-11-26_13h14.32.918,vts_reward_expectancy_bt,2022.2.4,MacIntel,60.0024001,Chrome,1920,1080,,,l,0.7848,10,476,1,2,10,34,6,1,0,0,1,0,1,0,0,0,hexagon,triangle,,,,,,,,,,,,,,,,,,,,,,,,,,,,,,,,,,,,,,,,,,,,,,,,,,,,,,
297085,2022-11-26_13h14.32.918,vts_reward_expectancy_bt,2022.2.4,MacIntel,60.0024001,Chrome,1920,1080,,,l,1.4589,1,477,1,2,11,35,9,1,0,0,0,1,1,0,0,0,star,triangle,,,,,,,,,,,,,,,,,,,,,,,,,,,,,,,,,,,,,,,,,,,,,,,,,,,,,,
297085,2022-11-26_13h14.32.918,vts_reward_expectancy_bt,2022.2.4,MacIntel,60.0024001,Chrome,1920,1080,,,l,2.4383,1,478,2,0,0,0,11,1,0,0,0,1,0,0,1,0,star,hexagon,,,,,,,,,,,,,,,,,,,,,,,,,,,,,,,,,,,,,,,,,,,,,,,,,,,,,,
297085,2022-11-26_13h14.32.918,vts_reward_expectancy_bt,2022.2.4,MacIntel,60.0024001,Chrome,1920,1080,,,l,0.8143,10,488,2,0,1,1,10,1,0,0,0,1,0,1,0,0,star ,circle,,,,,,,,,,,,,,,,,,,,,,,,,,,,,,,,,,,,,,,,,,,,,,,,,,,,,,
297085,2022-11-26_13h14.32.918,vts_reward_expectancy_bt,2022.2.4,MacIntel,60.0024001,Chrome,1920,1080,,,a,1.3502,10,498,2,0,2,2,2,1,1,0,0,0,0,0,0,1,triangle,star,,,,,,,,,,,,,,,,,,,,,,,,,,,,,,,,,,,,,,,,,,,,,,,,,,,,,,
297085,2022-11-26_13h14.32.918,vts_reward_expectancy_bt,2022.2.4,MacIntel,60.0024001,Chrome,1920,1080,,,l,4.0435,10,508,2,0,3,3,7,1,0,0,1,0,0,1,0,0,hexagon,circle,,,,,,,,,,,,,,,,,,,,,,,,,,,,,,,,,,,,,,,,,,,,,,,,,,,,,,
297085,2022-11-26_13h14.32.918,vts_reward_expectancy_bt,2022.2.4,MacIntel,60.0024001,Chrome,1920,1080,,,l,1.4038,10,518,2,0,4,4,3,1,0,1,0,0,1,0,0,0,circle,triangle,,,,,,,,,,,,,,,,,,,,,,,,,,,,,,,,,,,,,,,,,,,,,,,,,,,,,,
297085,2022-11-26_13h14.32.918,vts_reward_expectancy_bt,2022.2.4,MacIntel,60.0024001,Chrome,1920,1080,,,a,2.3235,10,528,2,0,5,5,4,1,0,1,0,0,0,0,1,0,circle,hexagon,,,,,,,,,,,,,,,,,,,,,,,,,,,,,,,,,,,,,,,,,,,,,,,,,,,,,,
297085,2022-11-26_13h14.32.918,vts_reward_expectancy_bt,2022.2.4,MacIntel,60.0024001,Chrome,1920,1080,,,l,1.1062,10,538,2,0,6,6,6,1,0,0,1,0,1,0,0,0,hexagon,triangle,,,,,,,,,,,,,,,,,,,,,,,,,,,,,,,,,,,,,,,,,,,,,,,,,,,,,,
297085,2022-11-26_13h14.32.918,vts_reward_expectancy_bt,2022.2.4,MacIntel,60.0024001,Chrome,1920,1080,,,a,1.595,10,548,2,0,7,7,1,1,1,0,0,0,0,0,1,0,triangle,hexagon,,,,,,,,,,,,,,,,,,,,,,,,,,,,,,,,,,,,,,,,,,,,,,,,,,,,,,
297085,2022-11-26_13h14.32.918,vts_reward_expectancy_bt,2022.2.4,MacIntel,60.0024001,Chrome,1920,1080,,,l,1.9739,1,549,2,0,8,8,8,1,0,0,1,0,0,0,0,1,hexagon,star,,,,,,,,,,,,,,,,,,,,,,,,,,,,,,,,,,,,,,,,,,,,,,,,,,,,,,
297085,2022-11-26_13h14.32.918,vts_reward_expectancy_bt,2022.2.4,MacIntel,60.0024001,Chrome,1920,1080,,,a,2.748,10,559,2,0,9,9,0,1,1,0,0,0,0,1,0,0,triangle,circle,,,,,,,,,,,,,,,,,,,,,,,,,,,,,,,,,,,,,,,,,,,,,,,,,,,,,,
297085,2022-11-26_13h14.32.918,vts_reward_expectancy_bt,2022.2.4,MacIntel,60.0024001,Chrome,1920,1080,,,a,0.0249,10,569,2,0,10,10,5,1,0,1,0,0,0,0,0,1,circle,star,,,,,,,,,,,,,,,,,,,,,,,,,,,,,,,,,,,,,,,,,,,,,,,,,,,,,,
297085,2022-11-26_13h14.32.918,vts_reward_expectancy_bt,2022.2.4,MacIntel,60.0024001,Chrome,1920,1080,,,l,0.9794,10,579,2,0,11,11,9,1,0,0,0,1,1,0,0,0,star,triangle,,,,,,,,,,,,,,,,,,,,,,,,,,,,,,,,,,,,,,,,,,,,,,,,,,,,,,
297085,2022-11-26_13h14.32.918,vts_reward_expectancy_bt,2022.2.4,MacIntel,60.0024001,Chrome,1920,1080,,,l,1.1024,1,580,2,1,0,12,10,1,0,0,0,1,0,1,0,0,star ,circle,,,,,,,,,,,,,,,,,,,,,,,,,,,,,,,,,,,,,,,,,,,,,,,,,,,,,,
297085,2022-11-26_13h14.32.918,vts_reward_expectancy_bt,2022.2.4,MacIntel,60.0024001,Chrome,1920,1080,,,l,1.9082,10,590,2,1,1,13,8,1,0,0,1,0,0,0,0,1,hexagon,star,,,,,,,,,,,,,,,,,,,,,,,,,,,,,,,,,,,,,,,,,,,,,,,,,,,,,,
297085,2022-11-26_13h14.32.918,vts_reward_expectancy_bt,2022.2.4,MacIntel,60.0024001,Chrome,1920,1080,,,a,0.7793,10,600,2,1,2,14,2,1,1,0,0,0,0,0,0,1,triangle,star,,,,,,,,,,,,,,,,,,,,,,,,,,,,,,,,,,,,,,,,,,,,,,,,,,,,,,
297085,2022-11-26_13h14.32.918,vts_reward_expectancy_bt,2022.2.4,MacIntel,60.0024001,Chrome,1920,1080,,,a,0.8445,10,610,2,1,3,15,0,1,1,0,0,0,0,1,0,0,triangle,circle,,,,,,,,,,,,,,,,,,,,,,,,,,,,,,,,,,,,,,,,,,,,,,,,,,,,,,
297085,2022-11-26_13h14.32.918,vts_reward_expectancy_bt,2022.2.4,MacIntel,60.0024001,Chrome,1920,1080,,,a,1.0001,1,611,2,1,4,16,4,1,0,1,0,0,0,0,1,0,circle,hexagon,,,,,,,,,,,,,,,,,,,,,,,,,,,,,,,,,,,,,,,,,,,,,,,,,,,,,,
297085,2022-11-26_13h14.32.918,vts_reward_expectancy_bt,2022.2.4,MacIntel,60.0024001,Chrome,1920,1080,,,a,0.735,10,621,2,1,5,17,1,1,1,0,0,0,0,0,1,0,triangle,hexagon,,,,,,,,,,,,,,,,,,,,,,,,,,,,,,,,,,,,,,,,,,,,,,,,,,,,,,
297085,2022-11-26_13h14.32.918,vts_reward_expectancy_bt,2022.2.4,MacIntel,60.0024001,Chrome,1920,1080,,,l,1.0342,10,631,2,1,6,18,9,1,0,0,0,1,1,0,0,0,star,triangle,,,,,,,,,,,,,,,,,,,,,,,,,,,,,,,,,,,,,,,,,,,,,,,,,,,,,,
297085,2022-11-26_13h14.32.918,vts_reward_expectancy_bt,2022.2.4,MacIntel,60.0024001,Chrome,1920,1080,,,l,1.0953,10,641,2,1,7,19,7,1,0,0,1,0,0,1,0,0,hexagon,circle,,,,,,,,,,,,,,,,,,,,,,,,,,,,,,,,,,,,,,,,,,,,,,,,,,,,,,
297085,2022-11-26_13h14.32.918,vts_reward_expectancy_bt,2022.2.4,MacIntel,60.0024001,Chrome,1920,1080,,,l,1.4251,10,651,2,1,8,20,3,1,0,1,0,0,1,0,0,0,circle,triangle,,,,,,,,,,,,,,,,,,,,,,,,,,,,,,,,,,,,,,,,,,,,,,,,,,,,,,
297085,2022-11-26_13h14.32.918,vts_reward_expectancy_bt,2022.2.4,MacIntel,60.0024001,Chrome,1920,1080,,,l,8.0618,1,652,2,1,9,21,11,1,0,0,0,1,0,0,1,0,star,hexagon,,,,,,,,,,,,,,,,,,,,,,,,,,,,,,,,,,,,,,,,,,,,,,,,,,,,,,
297085,2022-11-26_13h14.32.918,vts_reward_expectancy_bt,2022.2.4,MacIntel,60.0024001,Chrome,1920,1080,,,a,2.8794,10,662,2,1,10,22,5,1,0,1,0,0,0,0,0,1,circle,star,,,,,,,,,,,,,,,,,,,,,,,,,,,,,,,,,,,,,,,,,,,,,,,,,,,,,,
297085,2022-11-26_13h14.32.918,vts_reward_expectancy_bt,2022.2.4,MacIntel,60.0024001,Chrome,1920,1080,,,l,0.8272,10,672,2,1,11,23,6,1,0,0,1,0,1,0,0,0,hexagon,triangle,,,,,,,,,,,,,,,,,,,,,,,,,,,,,,,,,,,,,,,,,,,,,,,,,,,,,,
297085,2022-11-26_13h14.32.918,vts_reward_expectancy_bt,2022.2.4,MacIntel,60.0024001,Chrome,1920,1080,,,a,11.5558,1,673,2,2,0,24,11,1,0,0,0,1,0,0,1,0,star,hexagon,,,,,,,,,,,,,,,,,,,,,,,,,,,,,,,,,,,,,,,,,,,,,,,,,,,,,,
297085,2022-11-26_13h14.32.918,vts_reward_expectancy_bt,2022.2.4,MacIntel,60.0024001,Chrome,1920,1080,,,a,2.9233,1,674,2,2,1,25,10,1,0,0,0,1,0,1,0,0,star ,circle,,,,,,,,,,,,,,,,,,,,,,,,,,,,,,,,,,,,,,,,,,,,,,,,,,,,,,
297085,2022-11-26_13h14.32.918,vts_reward_expectancy_bt,2022.2.4,MacIntel,60.0024001,Chrome,1920,1080,,,a,1.3853,10,684,2,2,2,26,4,1,0,1,0,0,0,0,1,0,circle,hexagon,,,,,,,,,,,,,,,,,,,,,,,,,,,,,,,,,,,,,,,,,,,,,,,,,,,,,,
297085,2022-11-26_13h14.32.918,vts_reward_expectancy_bt,2022.2.4,MacIntel,60.0024001,Chrome,1920,1080,,,l,2.7934,10,694,2,2,3,27,7,1,0,0,1,0,0,1,0,0,hexagon,circle,,,,,,,,,,,,,,,,,,,,,,,,,,,,,,,,,,,,,,,,,,,,,,,,,,,,,,
297085,2022-11-26_13h14.32.918,vts_reward_expectancy_bt,2022.2.4,MacIntel,60.0024001,Chrome,1920,1080,,,a,0.9198,10,704,2,2,4,28,2,1,1,0,0,0,0,0,0,1,triangle,star,,,,,,,,,,,,,,,,,,,,,,,,,,,,,,,,,,,,,,,,,,,,,,,,,,,,,,
297085,2022-11-26_13h14.32.918,vts_reward_expectancy_bt,2022.2.4,MacIntel,60.0024001,Chrome,1920,1080,,,l,3.591,1,705,2,2,5,29,8,1,0,0,1,0,0,0,0,1,hexagon,star,,,,,,,,,,,,,,,,,,,,,,,,,,,,,,,,,,,,,,,,,,,,,,,,,,,,,,
297085,2022-11-26_13h14.32.918,vts_reward_expectancy_bt,2022.2.4,MacIntel,60.0024001,Chrome,1920,1080,,,a,0.5846,1,706,2,2,6,30,0,1,1,0,0,0,0,1,0,0,triangle,circle,,,,,,,,,,,,,,,,,,,,,,,,,,,,,,,,,,,,,,,,,,,,,,,,,,,,,,
297085,2022-11-26_13h14.32.918,vts_reward_expectancy_bt,2022.2.4,MacIntel,60.0024001,Chrome,1920,1080,,,a,1.0132,10,716,2,2,7,31,5,1,0,1,0,0,0,0,0,1,circle,star,,,,,,,,,,,,,,,,,,,,,,,,,,,,,,,,,,,,,,,,,,,,,,,,,,,,,,
297085,2022-11-26_13h14.32.918,vts_reward_expectancy_bt,2022.2.4,MacIntel,60.0024001,Chrome,1920,1080,,,l,0.9149,10,726,2,2,8,32,9,1,0,0,0,1,1,0,0,0,star,triangle,,,,,,,,,,,,,,,,,,,,,,,,,,,,,,,,,,,,,,,,,,,,,,,,,,,,,,
297085,2022-11-26_13h14.32.918,vts_reward_expectancy_bt,2022.2.4,MacIntel,60.0024001,Chrome,1920,1080,,,l,1.9706,1,727,2,2,9,33,6,1,0,0,1,0,1,0,0,0,hexagon,triangle,,,,,,,,,,,,,,,,,,,,,,,,,,,,,,,,,,,,,,,,,,,,,,,,,,,,,,
297085,2022-11-26_13h14.32.918,vts_reward_expectancy_bt,2022.2.4,MacIntel,60.0024001,Chrome,1920,1080,,,l,1.2243,1,728,2,2,10,34,3,1,0,1,0,0,1,0,0,0,circle,triangle,,,,,,,,,,,,,,,,,,,,,,,,,,,,,,,,,,,,,,,,,,,,,,,,,,,,,,
297085,2022-11-26_13h14.32.918,vts_reward_expectancy_bt,2022.2.4,MacIntel,60.0024001,Chrome,1920,1080,,,a,2.0103,10,738,2,2,11,35,1,1,1,0,0,0,0,0,1,0,triangle,hexagon,,,,,,,,,,,,,,,,,,,,,,,,,,,,,,,,,,,,,,,,,,,,,,,,,,,,,,
297085,2022-11-26_13h14.32.918,vts_reward_expectancy_bt,2022.2.4,MacIntel,60.0024001,Chrome,1920,1080,,,,,,,,,,,,,,,,,,,,,,,U,146,triangle,0,0,,0,0,0,0,0,1,,,,,,,,,,,,,,,,,,,,,,,,,,,,,,,,,,,,,,,,,,
297085,2022-11-26_13h14.32.918,vts_reward_expectancy_bt,2022.2.4,MacIntel,60.0024001,Chrome,1920,1080,,,,,,,,,,,,,,,,,,,,,,,B,125,hexagon,1,1,d,0,1,0,1,0,1,1.0077,,,,,,,,,,,,,,,,,,,,,,,,,,,,,,,,,,,,,,,,,
297085,2022-11-26_13h14.32.918,vts_reward_expectancy_bt,2022.2.4,MacIntel,60.0024001,Chrome,1920,1080,,,,,,,,,,,,,,,,,,,,,,,W,160,circle,1,0,f,0,2,0,2,0,1,0.6667,,,,,,,,,,,,,,,,,,,,,,,,,,,,,,,,,,,,,,,,,
297085,2022-11-26_13h14.32.918,vts_reward_expectancy_bt,2022.2.4,MacIntel,60.0024001,Chrome,1920,1080,,,,,,,,,,,,,,,,,,,,,,,Y,181,star,1,0,f,0,3,0,3,0,1,0.8668,,,,,,,,,,,,,,,,,,,,,,,,,,,,,,,,,,,,,,,,,
297085,2022-11-26_13h14.32.918,vts_reward_expectancy_bt,2022.2.4,MacIntel,60.0024001,Chrome,1920,1080,,,,,,,,,,,,,,,,,,,,,,,F,167,triangle,1,0,d,0,4,0,4,0,1,1.0381,,,,,,,,,,,,,,,,,,,,,,,,,,,,,,,,,,,,,,,,,
297085,2022-11-26_13h14.32.918,vts_reward_expectancy_bt,2022.2.4,MacIntel,60.0024001,Chrome,1920,1080,,,,,,,,,,,,,,,,,,,,,,,D,132,hexagon,1,0,d,0,5,0,5,0,1,0.5958,,,,,,,,,,,,,,,,,,,,,,,,,,,,,,,,,,,,,,,,,
297085,2022-11-26_13h14.32.918,vts_reward_expectancy_bt,2022.2.4,MacIntel,60.0024001,Chrome,1920,1080,,,,,,,,,,,,,,,,,,,,,,,H,174,circle,1,0,d,0,6,0,6,0,1,0.6235,,,,,,,,,,,,,,,,,,,,,,,,,,,,,,,,,,,,,,,,,
297085,2022-11-26_13h14.32.918,vts_reward_expectancy_bt,2022.2.4,MacIntel,60.0024001,Chrome,1920,1080,,,,,,,,,,,,,,,,,,,,,,,S,139,star,1,0,f,0,7,0,7,0,1,0.7248,,,,,,,,,,,,,,,,,,,,,,,,,,,,,,,,,,,,,,,,,
297085,2022-11-26_13h14.32.918,vts_reward_expectancy_bt,2022.2.4,MacIntel,60.0024001,Chrome,1920,1080,,,,,,,,,,,,,,,,,,,,,,,U,146,circle,1,0,f,0,8,0,8,0,1,0.7135,,,,,,,,,,,,,,,,,,,,,,,,,,,,,,,,,,,,,,,,,
297085,2022-11-26_13h14.32.918,vts_reward_expectancy_bt,2022.2.4,MacIntel,60.0024001,Chrome,1920,1080,,,,,,,,,,,,,,,,,,,,,,,B,125,triangle,1,0,d,0,9,0,9,0,1,0.6494,,,,,,,,,,,,,,,,,,,,,,,,,,,,,,,,,,,,,,,,,
297085,2022-11-26_13h14.32.918,vts_reward_expectancy_bt,2022.2.4,MacIntel,60.0024001,Chrome,1920,1080,,,,,,,,,,,,,,,,,,,,,,,D,125,star,1,0,,1,,,,,,,j,1.1991,0,0,0,0,1,,,,,,,,,,,,,,,,,,,,,,,,,,,,,,,,,,
297085,2022-11-26_13h14.32.918,vts_reward_expectancy_bt,2022.2.4,MacIntel,60.0024001,Chrome,1920,1080,,,,,,,,,,,,,,,,,,,,,,,Y,160,circle,1,0,,1,,,,,,,k,0.7621,1,0,1,0,1,,,,,,,,,,,,,,,,,,,,,,,,,,,,,,,,,,
297085,2022-11-26_13h14.32.918,vts_reward_expectancy_bt,2022.2.4,MacIntel,60.0024001,Chrome,1920,1080,,,,,,,,,,,,,,,,,,,,,,,B,181,triangle,1,0,,1,,,,,,,k,0.6982,2,0,2,0,1,,,,,,,,,,,,,,,,,,,,,,,,,,,,,,,,,,
297085,2022-11-26_13h14.32.918,vts_reward_expectancy_bt,2022.2.4,MacIntel,60.0024001,Chrome,1920,1080,,,,,,,,,,,,,,,,,,,,,,,H,132,hexagon,1,0,,1,,,,,,,j,1.3704,3,0,3,0,1,,,,,,,,,,,,,,,,,,,,,,,,,,,,,,,,,,
297085,2022-11-26_13h14.32.918,vts_reward_expectancy_bt,2022.2.4,MacIntel,60.0024001,Chrome,1920,1080,,,,,,,,,,,,,,,,,,,,,,,F,167,star,1,0,,1,,,,,,,k,0.9319,4,0,4,0,1,,,,,,,,,,,,,,,,,,,,,,,,,,,,,,,,,,
297085,2022-11-26_13h14.32.918,vts_reward_expectancy_bt,2022.2.4,MacIntel,60.0024001,Chrome,1920,1080,,,,,,,,,,,,,,,,,,,,,,,W,139,circle,1,0,,1,,,,,,,j,0.7702,5,0,5,0,1,,,,,,,,,,,,,,,,,,,,,,,,,,,,,,,,,,
297085,2022-11-26_13h14.32.918,vts_reward_expectancy_bt,2022.2.4,MacIntel,60.0024001,Chrome,1920,1080,,,,,,,,,,,,,,,,,,,,,,,U,174,triangle,1,0,,1,,,,,,,k,0.8058,6,0,6,0,1,,,,,,,,,,,,,,,,,,,,,,,,,,,,,,,,,,
297085,2022-11-26_13h14.32.918,vts_reward_expectancy_bt,2022.2.4,MacIntel,60.0024001,Chrome,1920,1080,,,,,,,,,,,,,,,,,,,,,,,S,146,hexagon,1,0,,1,,,,,,,j,0.9212,7,0,7,0,1,,,,,,,,,,,,,,,,,,,,,,,,,,,,,,,,,,
297085,2022-11-26_13h14.32.918,vts_reward_expectancy_bt,2022.2.4,MacIntel,60.0024001,Chrome,1920,1080,,,,,,,,,,,,,,,,,,,,,,,D,125,circle,1,0,,1,,,,,,,j,0.7375,8,0,8,0,1,,,,,,,,,,,,,,,,,,,,,,,,,,,,,,,,,,
297085,2022-11-26_13h14.32.918,vts_reward_expectancy_bt,2022.2.4,MacIntel,60.0024001,Chrome,1920,1080,,,,,,,,,,,,,,,,,,,,,,,Y,160,hexagon,1,0,,1,,,,,,,k,0.8637,9,0,9,0,1,,,,,,,,,,,,,,,,,,,,,,,,,,,,,,,,,,
297085,2022-11-26_13h14.32.918,vts_reward_expectancy_bt,2022.2.4,MacIntel,60.0024001,Chrome,1920,1080,,,,,0,738,,,,,,,,,,,,,,,,,B,160,circle,0,0,,2,,,,,,,,,,,,,,-1,letter,NA,f,2.7507,vtsPrac,0,0,0,0,1,,,,,,,,,,,,,,,,,,,,,,,
297085,2022-11-26_13h14.32.918,vts_reward_expectancy_bt,2022.2.4,MacIntel,60.0024001,Chrome,1920,1080,,,,,0,738,,,,,,,,,,,,,,,,,D,132,hexagon,1,1,,2,,,,,,,,,,,,,,repeat,letter,lettRpt,d,1.987,vtsPrac,1,0,1,0,1,,,,,,,,,,,,,,,,,,,,,,,
297085,2022-11-26_13h14.32.918,vts_reward_expectancy_bt,2022.2.4,MacIntel,60.0024001,Chrome,1920,1080,,,,,0,738,,,,,,,,,,,,,,,,,F,167,circle,1,0,,2,,,,,,,,,,,,,,switch,number,numSwt,k,1.0272,vtsPrac,2,0,2,0,1,,,,,,,,,,,,,,,,,,,,,,,
297085,2022-11-26_13h14.32.918,vts_reward_expectancy_bt,2022.2.4,MacIntel,60.0024001,Chrome,1920,1080,,,,,0,738,,,,,,,,,,,,,,,,,Y,174,hexagon,1,0,,2,,,,,,,,,,,,,,repeat,number,numRpt,k,1.3546,vtsPrac,3,0,3,0,1,,,,,,,,,,,,,,,,,,,,,,,
297085,2022-11-26_13h14.32.918,vts_reward_expectancy_bt,2022.2.4,MacIntel,60.0024001,Chrome,1920,1080,,,,,0,738,,,,,,,,,,,,,,,,,B,160,hexagon,1,0,,2,,,,,,,,,,,,,,switch,letter,lettSwt,d,1.6566,vtsPrac,4,0,4,0,1,,,,,,,,,,,,,,,,,,,,,,,
297085,2022-11-26_13h14.32.918,vts_reward_expectancy_bt,2022.2.4,MacIntel,60.0024001,Chrome,1920,1080,,,,,0,738,,,,,,,,,,,,,,,,,D,132,star,1,0,,2,,,,,,,,,,,,,,repeat,letter,lettRpt,d,1.3506,vtsPrac,5,0,5,0,1,,,,,,,,,,,,,,,,,,,,,,,
297085,2022-11-26_13h14.32.918,vts_reward_expectancy_bt,2022.2.4,MacIntel,60.0024001,Chrome,1920,1080,,,,,0,738,,,,,,,,,,,,,,,,,F,167,circle,1,0,,2,,,,,,,,,,,,,,repeat,letter,lettRpt,d,1.7875,vtsPrac,6,0,6,0,1,,,,,,,,,,,,,,,,,,,,,,,
297085,2022-11-26_13h14.32.918,vts_reward_expectancy_bt,2022.2.4,MacIntel,60.0024001,Chrome,1920,1080,,,,,0,738,,,,,,,,,,,,,,,,,Y,174,hexagon,0,0,,2,,,,,,,,,,,,,,repeat,letter,NA,d,0.1464,vtsPrac,7,0,7,0,1,,,,,,,,,,,,,,,,,,,,,,,
297085,2022-11-26_13h14.32.918,vts_reward_expectancy_bt,2022.2.4,MacIntel,60.0024001,Chrome,1920,1080,,,,,0,738,,,,,,,,,,,,,,,,,W,125,triangle,1,1,,2,,,,,,,,,,,,,,switch,number,numSwt,j,1.9053,vtsPrac,8,0,8,0,1,,,,,,,,,,,,,,,,,,,,,,,
297085,2022-11-26_13h14.32.918,vts_reward_expectancy_bt,2022.2.4,MacIntel,60.0024001,Chrome,1920,1080,,,,,0,738,,,,,,,,,,,,,,,,,F,160,circle,1,0,,2,,,,,,,,,,,,,,repeat,number,numRpt,k,1.071,vtsPrac,9,0,9,0,1,,,,,,,,,,,,,,,,,,,,,,,
297085,2022-11-26_13h14.32.918,vts_reward_expectancy_bt,2022.2.4,MacIntel,60.0024001,Chrome,1920,1080,,,,,0,738,,,,,,,,,,,,,,,,,Y,174,circle,1,0,,2,,,,,,,,,,,,,,switch,letter,lettSwt,f,1.2015,vtsPrac,10,0,10,0,1,,,,,,,,,,,,,,,,,,,,,,,
297085,2022-11-26_13h14.32.918,vts_reward_expectancy_bt,2022.2.4,MacIntel,60.0024001,Chrome,1920,1080,,,,,0,738,,,,,,,,,,,,,,,,,B,132,triangle,1,0,,2,,,,,,,,,,,,,,repeat,letter,lettRpt,d,1.3763,vtsPrac,11,0,11,0,1,,,,,,,,,,,,,,,,,,,,,,,
297085,2022-11-26_13h14.32.918,vts_reward_expectancy_bt,2022.2.4,MacIntel,60.0024001,Chrome,1920,1080,,,,,0,738,,,,,,,,,,,,,,,,,D,160,triangle,1,0,,2,,,,,,,,,,,,,,switch,number,numSwt,k,1.4377,vtsPrac,12,0,12,0,1,,,,,,,,,,,,,,,,,,,,,,,
297085,2022-11-26_13h14.32.918,vts_reward_expectancy_bt,2022.2.4,MacIntel,60.0024001,Chrome,1920,1080,,,,,0,738,,,,,,,,,,,,,,,,,F,174,hexagon,1,0,,2,,,,,,,,,,,,,,switch,letter,lettSwt,d,1.0831,vtsPrac,13,0,13,0,1,,,,,,,,,,,,,,,,,,,,,,,
297085,2022-11-26_13h14.32.918,vts_reward_expectancy_bt,2022.2.4,MacIntel,60.0024001,Chrome,1920,1080,,,,,0,738,,,,,,,,,,,,,,,,,Y,181,star,1,0,,2,,,,,,,,,,,,,,repeat,letter,lettRpt,f,0.9073,vtsPrac,14,0,14,0,1,,,,,,,,,,,,,,,,,,,,,,,
297085,2022-11-26_13h14.32.918,vts_reward_expectancy_bt,2022.2.4,MacIntel,60.0024001,Chrome,1920,1080,,,,,0,738,,,,,,,,,,,,,,,,,W,125,circle,1,0,,2,,,,,,,,,,,,,,repeat,letter,lettRpt,f,1.572,vtsPrac,15,0,15,0,1,,,,,,,,,,,,,,,,,,,,,,,
297085,2022-11-26_13h14.32.918,vts_reward_expectancy_bt,2022.2.4,MacIntel,60.0024001,Chrome,1920,1080,,,,,0,738,,,,,,,,,,,,,,,,,W,160,triangle,1,0,,2,,,,,,,,,,,,,,switch,number,numSwt,k,1.4177,vtsPrac,16,0,16,0,1,,,,,,,,,,,,,,,,,,,,,,,
297085,2022-11-26_13h14.32.918,vts_reward_expectancy_bt,2022.2.4,MacIntel,60.0024001,Chrome,1920,1080,,,,,0,738,,,,,,,,,,,,,,,,,B,146,star,1,0,,2,,,,,,,,,,,,,,repeat,number,numRpt,j,1.6529,vtsPrac,17,0,17,0,1,,,,,,,,,,,,,,,,,,,,,,,
297085,2022-11-26_13h14.32.918,vts_reward_expectancy_bt,2022.2.4,MacIntel,60.0024001,Chrome,1920,1080,,,,,0,738,,,,,,,,,,,,,,,,,D,125,triangle,1,0,,2,,,,,,,,,,,,,,repeat,number,numRpt,j,0.8577,vtsPrac,18,0,18,0,1,,,,,,,,,,,,,,,,,,,,,,,
297085,2022-11-26_13h14.32.918,vts_reward_expectancy_bt,2022.2.4,MacIntel,60.0024001,Chrome,1920,1080,,,,,0,738,,,,,,,,,,,,,,,,,S,181,star,1,0,,2,,,,,,,,,,,,,,repeat,number,numRpt,k,0.753,vtsPrac,19,0,19,0,1,,,,,,,,,,,,,,,,,,,,,,,
297085,2022-11-26_13h14.32.918,vts_reward_expectancy_bt,2022.2.4,MacIntel,60.0024001,Chrome,1920,1080,,,,,0,738,,,,,,,,,,,,,,,,,U,132,circle,1,0,,2,,,,,,,,,,,,,,switch,letter,lettSwt,f,1.498,vtsPrac,20,0,20,0,1,,,,,,,,,,,,,,,,,,,,,,,
297085,2022-11-26_13h14.32.918,vts_reward_expectancy_bt,2022.2.4,MacIntel,60.0024001,Chrome,1920,1080,,,,,0,738,,,,,,,,,,,,,,,,,F,167,triangle,1,0,,2,,,,,,,,,,,,,,switch,number,numSwt,k,1.1752,vtsPrac,21,0,21,0,1,,,,,,,,,,,,,,,,,,,,,,,
297085,2022-11-26_13h14.32.918,vts_reward_expectancy_bt,2022.2.4,MacIntel,60.0024001,Chrome,1920,1080,,,,,0,738,,,,,,,,,,,,,,,,,S,125,hexagon,0,0,,2,,,,,,,,,,,,,,switch,letter,NA,d,1.8738,vtsPrac,22,0,22,0,1,,,,,,,,,,,,,,,,,,,,,,,
297085,2022-11-26_13h14.32.918,vts_reward_expectancy_bt,2022.2.4,MacIntel,60.0024001,Chrome,1920,1080,,,,,0,738,,,,,,,,,,,,,,,,,W,160,circle,1,1,,2,,,,,,,,,,,,,,repeat,letter,lettRpt,f,1.179,vtsPrac,23,0,23,0,1,,,,,,,,,,,,,,,,,,,,,,,
297085,2022-11-26_13h14.32.918,vts_reward_expectancy_bt,2022.2.4,MacIntel,60.0024001,Chrome,1920,1080,,,,,0,738,,,,,,,,,,,,,,,,,F,139,star,1,0,,2,,,,,,,,,,,,,,repeat,letter,lettRpt,d,1.2378,vtsPrac,24,0,24,0,1,,,,,,,,,,,,,,,,,,,,,,,
297085,2022-11-26_13h14.32.918,vts_reward_expectancy_bt,2022.2.4,MacIntel,60.0024001,Chrome,1920,1080,,,,,0,738,,,,,,,,,,,,,,,,,W,160,triangle,1,0,,2,,,,,,,,,,,,,,switch,number,numSwt,k,1.0847,vtsPrac,25,0,25,0,1,,,,,,,,,,,,,,,,,,,,,,,
297085,2022-11-26_13h14.32.918,vts_reward_expectancy_bt,2022.2.4,MacIntel,60.0024001,Chrome,1920,1080,,,,,0,738,,,,,,,,,,,,,,,,,H,167,circle,1,0,,2,,,,,,,,,,,,,,repeat,number,numRpt,k,0.9473,vtsPrac,26,0,26,0,1,,,,,,,,,,,,,,,,,,,,,,,
297085,2022-11-26_13h14.32.918,vts_reward_expectancy_bt,2022.2.4,MacIntel,60.0024001,Chrome,1920,1080,,,,,0,738,,,,,,,,,,,,,,,,,D,146,star,1,0,,2,,,,,,,,,,,,,,repeat,number,numRpt,j,1.0361,vtsPrac,27,0,27,0,1,,,,,,,,,,,,,,,,,,,,,,,
297085,2022-11-26_13h14.32.918,vts_reward_expectancy_bt,2022.2.4,MacIntel,60.0024001,Chrome,1920,1080,,,,,0,738,,,,,,,,,,,,,,,,,Y,125,circle,1,0,,2,,,,,,,,,,,,,,repeat,number,numRpt,j,1.1813,vtsPrac,28,0,28,0,1,,,,,,,,,,,,,,,,,,,,,,,
297085,2022-11-26_13h14.32.918,vts_reward_expectancy_bt,2022.2.4,MacIntel,60.0024001,Chrome,1920,1080,,,,,0,738,,,,,,,,,,,,,,,,,H,160,star,1,0,,2,,,,,,,,,,,,,,switch,letter,lettSwt,d,1.1827,vtsPrac,29,0,29,0,1,,,,,,,,,,,,,,,,,,,,,,,
297085,2022-11-26_13h14.32.918,vts_reward_expectancy_bt,2022.2.4,MacIntel,60.0024001,Chrome,1920,1080,,,,,0,738,,,,,,,,,,,,,,,,,F,132,triangle,1,0,,2,,,,,,,,,,,,,,repeat,letter,lettRpt,d,1.3103,vtsPrac,30,0,30,0,1,,,,,,,,,,,,,,,,,,,,,,,
297085,2022-11-26_13h14.32.918,vts_reward_expectancy_bt,2022.2.4,MacIntel,60.0024001,Chrome,1920,1080,,,,,0,738,,,,,,,,,,,,,,,,,W,167,circle,1,0,,2,,,,,,,,,,,,,,switch,number,numSwt,k,1.5238,vtsPrac,31,0,31,0,1,,,,,,,,,,,,,,,,,,,,,,,
297085,2022-11-26_13h14.32.918,vts_reward_expectancy_bt,2022.2.4,MacIntel,60.0024001,Chrome,1920,1080,,,,,,,,,,,,,,,,,,,,,,,,,,,,,,,,,,,,,,,,,,,,,,,,,,,,,,,,,,,,,,,,,,,,,,,,,,,,
297085,2022-11-26_13h14.32.918,vts_reward_expectancy_bt,2022.2.4,MacIntel,60.0024001,Chrome,1920,1080,,,,,,,,,,,,,,,,,,,,,,,,,,,,,,,,,,,,,,,,,,,,,,,,,,,,,,,,,,,,,,,,,,,,,,,,,,,,
297085,2022-11-26_13h14.32.918,vts_reward_expectancy_bt,2022.2.4,MacIntel,60.0024001,Chrome,1920,1080,,,,,0,738,,,,,,,,,,,,,,,,,Y,174,star,1,0,,,,,,,,,,,,,,,,repeat,number,numRpt,k,1.1487,noRew,,,,,,0,0,0,0,0,1,,,,,,,,,,,,,,,,,
297085,2022-11-26_13h14.32.918,vts_reward_expectancy_bt,2022.2.4,MacIntel,60.0024001,Chrome,1920,1080,,,,,0,738,,,,,,,,,,,,,,,,,F,132,circle,1,0,,,,,,,,,,,,,,,,repeat,number,numRpt,j,1.1165,noRew,,,,,,0,1,0,1,0,1,,,,,,,,,,,,,,,,,
297085,2022-11-26_13h14.32.918,vts_reward_expectancy_bt,2022.2.4,MacIntel,60.0024001,Chrome,1920,1080,,,,,0,738,,,,,,,,,,,,,,,,,D,160,star,1,0,,,,,,,,,,,,,,,,switch,letter,lettSwt,d,1.3722,noRew,,,,,,0,2,0,2,0,1,,,,,,,,,,,,,,,,,
297085,2022-11-26_13h14.32.918,vts_reward_expectancy_bt,2022.2.4,MacIntel,60.0024001,Chrome,1920,1080,,,,,0,738,,,,,,,,,,,,,,,,,H,125,circle,1,0,,,,,,,,,,,,,,,,switch,number,numSwt,j,1.6037,noRew,,,,,,0,3,0,3,0,1,,,,,,,,,,,,,,,,,
297085,2022-11-26_13h14.32.918,vts_reward_expectancy_bt,2022.2.4,MacIntel,60.0024001,Chrome,1920,1080,,,,,0,738,,,,,,,,,,,,,,,,,Y,174,star,1,0,,,,,,,,,,,,,,,,switch,letter,lettSwt,f,0.9502,noRew,,,,,,0,4,0,4,0,1,,,,,,,,,,,,,,,,,
297085,2022-11-26_13h14.32.918,vts_reward_expectancy_bt,2022.2.4,MacIntel,60.0024001,Chrome,1920,1080,,,,,0,738,,,,,,,,,,,,,,,,,F,132,triangle,1,0,,,,,,,,,,,,,,,,switch,number,numSwt,j,1.1591,noRew,,,,,,0,5,0,5,0,1,,,,,,,,,,,,,,,,,
297085,2022-11-26_13h14.32.918,vts_reward_expectancy_bt,2022.2.4,MacIntel,60.0024001,Chrome,1920,1080,,,,,0,738,,,,,,,,,,,,,,,,,D,160,triangle,1,0,,,,,,,,,,,,,,,,switch,letter,lettSwt,d,1.1085,noRew,,,,,,0,6,0,6,0,1,,,,,,,,,,,,,,,,,
297085,2022-11-26_13h14.32.918,vts_reward_expectancy_bt,2022.2.4,MacIntel,60.0024001,Chrome,1920,1080,,,,,0,738,,,,,,,,,,,,,,,,,H,125,hexagon,1,0,,,,,,,,,,,,,,,,repeat,letter,lettRpt,d,1.093,noRew,,,,,,0,7,0,7,0,1,,,,,,,,,,,,,,,,,
297085,2022-11-26_13h14.32.918,vts_reward_expectancy_bt,2022.2.4,MacIntel,60.0024001,Chrome,1920,1080,,,,,0,738,,,,,,,,,,,,,,,,,U,181,star,0,0,,,,,,,,,,,,,,,,switch,number,NA,j,2.5349,noRew,,,,,,0,8,0,8,0,1,,,,,,,,,,,,,,,,,
297085,2022-11-26_13h14.32.918,vts_reward_expectancy_bt,2022.2.4,MacIntel,60.0024001,Chrome,1920,1080,,,,,0,738,,,,,,,,,,,,,,,,,W,125,hexagon,1,1,,,,,,,,,,,,,,,,repeat,number,numRpt,j,1.0037,noRew,,,,,,0,9,0,9,0,1,,,,,,,,,,,,,,,,,
297085,2022-11-26_13h14.32.918,vts_reward_expectancy_bt,2022.2.4,MacIntel,60.0024001,Chrome,1920,1080,,,,,0,738,,,,,,,,,,,,,,,,,B,139,triangle,1,0,,,,,,,,,,,,,,,,switch,letter,lettSwt,d,1.4961,noRew,,,,,,0,10,0,10,0,1,,,,,,,,,,,,,,,,,
297085,2022-11-26_13h14.32.918,vts_reward_expectancy_bt,2022.2.4,MacIntel,60.0024001,Chrome,1920,1080,,,,,0,738,,,,,,,,,,,,,,,,,S,146,star,1,0,,,,,,,,,,,,,,,,repeat,letter,lettRpt,f,0.9214,noRew,,,,,,0,11,0,11,0,1,,,,,,,,,,,,,,,,,
297085,2022-11-26_13h14.32.918,vts_reward_expectancy_bt,2022.2.4,MacIntel,60.0024001,Chrome,1920,1080,,,,,0,738,,,,,,,,,,,,,,,,,U,174,star,1,0,,,,,,,,,,,,,,,,repeat,letter,lettRpt,f,0.9134,noRew,,,,,,0,12,0,12,0,1,,,,,,,,,,,,,,,,,
297085,2022-11-26_13h14.32.918,vts_reward_expectancy_bt,2022.2.4,MacIntel,60.0024001,Chrome,1920,1080,,,,,0,738,,,,,,,,,,,,,,,,,D,132,circle,1,0,,,,,,,,,,,,,,,,repeat,letter,lettRpt,d,1.165,noRew,,,,,,0,13,0,13,0,1,,,,,,,,,,,,,,,,,
297085,2022-11-26_13h14.32.918,vts_reward_expectancy_bt,2022.2.4,MacIntel,60.0024001,Chrome,1920,1080,,,,,0,738,,,,,,,,,,,,,,,,,H,146,star,0,0,,,,,,,,,,,,,,,,switch,number,NA,k,1.0574,noRew,,,,,,0,14,0,14,0,1,,,,,,,,,,,,,,,,,
297085,2022-11-26_13h14.32.918,vts_reward_expectancy_bt,2022.2.4,MacIntel,60.0024001,Chrome,1920,1080,,,,,0,738,,,,,,,,,,,,,,,,,S,181,triangle,1,1,,,,,,,,,,,,,,,,repeat,number,numRpt,k,1.0649,noRew,,,,,,0,15,0,15,0,1,,,,,,,,,,,,,,,,,
297085,2022-11-26_13h14.32.918,vts_reward_expectancy_bt,2022.2.4,MacIntel,60.0024001,Chrome,1920,1080,,,,,0,738,,,,,,,,,,,,,,,,,B,160,hexagon,1,0,,,,,,,,,,,,,,,,repeat,number,numRpt,k,1.2308,noRew,,,,,,0,16,0,16,0,1,,,,,,,,,,,,,,,,,
297085,2022-11-26_13h14.32.918,vts_reward_expectancy_bt,2022.2.4,MacIntel,60.0024001,Chrome,1920,1080,,,,,0,738,,,,,,,,,,,,,,,,,D,181,circle,1,0,,,,,,,,,,,,,,,,repeat,number,numRpt,k,1.3478,noRew,,,,,,0,17,0,17,0,1,,,,,,,,,,,,,,,,,
297085,2022-11-26_13h14.32.918,vts_reward_expectancy_bt,2022.2.4,MacIntel,60.0024001,Chrome,1920,1080,,,,,0,738,,,,,,,,,,,,,,,,,S,139,hexagon,1,0,,,,,,,,,,,,,,,,repeat,number,numRpt,j,1.3368,noRew,,,,,,0,18,0,18,0,1,,,,,,,,,,,,,,,,,
297085,2022-11-26_13h14.32.918,vts_reward_expectancy_bt,2022.2.4,MacIntel,60.0024001,Chrome,1920,1080,,,,,0,738,,,,,,,,,,,,,,,,,U,174,circle,1,0,,,,,,,,,,,,,,,,repeat,number,numRpt,k,1.4203,noRew,,,,,,0,19,0,19,0,1,,,,,,,,,,,,,,,,,
297085,2022-11-26_13h14.32.918,vts_reward_expectancy_bt,2022.2.4,MacIntel,60.0024001,Chrome,1920,1080,,,,,0,738,,,,,,,,,,,,,,,,,D,174,hexagon,1,0,,,,,,,,,,,,,,,,switch,letter,lettSwt,d,0.7882,noRew,,,,,,0,20,0,20,0,1,,,,,,,,,,,,,,,,,
297085,2022-11-26_13h14.32.918,vts_reward_expectancy_bt,2022.2.4,MacIntel,60.0024001,Chrome,1920,1080,,,,,0,738,,,,,,,,,,,,,,,,,U,160,circle,1,0,,,,,,,,,,,,,,,,repeat,letter,lettRpt,f,0.6948,noRew,,,,,,0,21,0,21,0,1,,,,,,,,,,,,,,,,,
297085,2022-11-26_13h14.32.918,vts_reward_expectancy_bt,2022.2.4,MacIntel,60.0024001,Chrome,1920,1080,,,,,0,738,,,,,,,,,,,,,,,,,Y,139,triangle,1,0,,,,,,,,,,,,,,,,repeat,letter,lettRpt,f,0.7123,noRew,,,,,,0,22,0,22,0,1,,,,,,,,,,,,,,,,,
297085,2022-11-26_13h14.32.918,vts_reward_expectancy_bt,2022.2.4,MacIntel,60.0024001,Chrome,1920,1080,,,,,0,738,,,,,,,,,,,,,,,,,B,132,circle,1,0,,,,,,,,,,,,,,,,repeat,letter,lettRpt,d,0.7494,noRew,,,,,,0,23,0,23,0,1,,,,,,,,,,,,,,,,,
297085,2022-11-26_13h14.32.918,vts_reward_expectancy_bt,2022.2.4,MacIntel,60.0024001,Chrome,1920,1080,,,,,0,738,,,,,,,,,,,,,,,,,S,146,circle,1,0,,,,,,,,,,,,,,,,switch,number,numSwt,j,1.146,noRew,,,,,,0,24,0,24,0,1,,,,,,,,,,,,,,,,,
297085,2022-11-26_13h14.32.918,vts_reward_expectancy_bt,2022.2.4,MacIntel,60.0024001,Chrome,1920,1080,,,,,0,738,,,,,,,,,,,,,,,,,D,139,triangle,1,0,,,,,,,,,,,,,,,,repeat,number,numRpt,j,0.9467,noRew,,,,,,0,25,0,25,0,1,,,,,,,,,,,,,,,,,
297085,2022-11-26_13h14.32.918,vts_reward_expectancy_bt,2022.2.4,MacIntel,60.0024001,Chrome,1920,1080,,,,,0,738,,,,,,,,,,,,,,,,,H,125,star,1,0,,,,,,,,,,,,,,,,switch,letter,lettSwt,d,1.4582,noRew,,,,,,0,26,0,26,0,1,,,,,,,,,,,,,,,,,
297085,2022-11-26_13h14.32.918,vts_reward_expectancy_bt,2022.2.4,MacIntel,60.0024001,Chrome,1920,1080,,,,,0,738,,,,,,,,,,,,,,,,,F,181,triangle,1,0,,,,,,,,,,,,,,,,switch,number,numSwt,k,0.9618,noRew,,,,,,0,27,0,27,0,1,,,,,,,,,,,,,,,,,
297085,2022-11-26_13h14.32.918,vts_reward_expectancy_bt,2022.2.4,MacIntel,60.0024001,Chrome,1920,1080,,,,,0,738,,,,,,,,,,,,,,,,,Y,146,hexagon,1,0,,,,,,,,,,,,,,,,repeat,number,numRpt,j,0.8199,noRew,,,,,,0,28,0,28,0,1,,,,,,,,,,,,,,,,,
297085,2022-11-26_13h14.32.918,vts_reward_expectancy_bt,2022.2.4,MacIntel,60.0024001,Chrome,1920,1080,,,,,0,738,,,,,,,,,,,,,,,,,U,160,circle,1,0,,,,,,,,,,,,,,,,switch,letter,lettSwt,f,1.6151,noRew,,,,,,0,29,0,29,0,1,,,,,,,,,,,,,,,,,
297085,2022-11-26_13h14.32.918,vts_reward_expectancy_bt,2022.2.4,MacIntel,60.0024001,Chrome,1920,1080,,,,,0,738,,,,,,,,,,,,,,,,,D,174,circle,1,0,,,,,,,,,,,,,,,,repeat,letter,lettRpt,d,1.1301,noRew,,,,,,0,30,0,30,0,1,,,,,,,,,,,,,,,,,
297085,2022-11-26_13h14.32.918,vts_reward_expectancy_bt,2022.2.4,MacIntel,60.0024001,Chrome,1920,1080,,,,,0,738,,,,,,,,,,,,,,,,,F,167,hexagon,1,0,,,,,,,,,,,,,,,,switch,number,numSwt,k,1.1878,noRew,,,,,,0,31,0,31,0,1,,,,,,,,,,,,,,,,,
297085,2022-11-26_13h14.32.918,vts_reward_expectancy_bt,2022.2.4,MacIntel,60.0024001,Chrome,1920,1080,,,,,0,738,,,,,,,,,,,,,,,,,H,139,hexagon,1,0,,,,,,,,,,,,,,,,repeat,number,numRpt,j,0.9406,noRew,,,,,,0,32,0,32,0,1,,,,,,,,,,,,,,,,,
297085,2022-11-26_13h14.32.918,vts_reward_expectancy_bt,2022.2.4,MacIntel,60.0024001,Chrome,1920,1080,,,,,0,738,,,,,,,,,,,,,,,,,F,167,circle,1,0,,,,,,,,,,,,,,,,switch,letter,lettSwt,d,1.0371,noRew,,,,,,0,33,0,33,0,1,,,,,,,,,,,,,,,,,
297085,2022-11-26_13h14.32.918,vts_reward_expectancy_bt,2022.2.4,MacIntel,60.0024001,Chrome,1920,1080,,,,,0,738,,,,,,,,,,,,,,,,,U,125,star,1,0,,,,,,,,,,,,,,,,repeat,letter,lettRpt,f,0.739,noRew,,,,,,0,34,0,34,0,1,,,,,,,,,,,,,,,,,
297085,2022-11-26_13h14.32.918,vts_reward_expectancy_bt,2022.2.4,MacIntel,60.0024001,Chrome,1920,1080,,,,,0,738,,,,,,,,,,,,,,,,,Y,132,triangle,1,0,,,,,,,,,,,,,,,,repeat,letter,lettRpt,f,1.0446,noRew,,,,,,0,35,0,35,0,1,,,,,,,,,,,,,,,,,
297085,2022-11-26_13h14.32.918,vts_reward_expectancy_bt,2022.2.4,MacIntel,60.0024001,Chrome,1920,1080,,,,,0,738,,,,,,,,,,,,,,,,,F,139,circle,1,0,,,,,,,,,,,,,,,,switch,number,numSwt,j,1.0214,noRew,,,,,,0,36,0,36,0,1,,,,,,,,,,,,,,,,,
297085,2022-11-26_13h14.32.918,vts_reward_expectancy_bt,2022.2.4,MacIntel,60.0024001,Chrome,1920,1080,,,,,0,738,,,,,,,,,,,,,,,,,W,160,triangle,1,0,,,,,,,,,,,,,,,,switch,letter,lettSwt,f,0.8155,noRew,,,,,,0,37,0,37,0,1,,,,,,,,,,,,,,,,,
297085,2022-11-26_13h14.32.918,vts_reward_expectancy_bt,2022.2.4,MacIntel,60.0024001,Chrome,1920,1080,,,,,0,738,,,,,,,,,,,,,,,,,S,146,hexagon,1,0,,,,,,,,,,,,,,,,repeat,letter,lettRpt,f,0.7786,noRew,,,,,,0,38,0,38,0,1,,,,,,,,,,,,,,,,,
297085,2022-11-26_13h14.32.918,vts_reward_expectancy_bt,2022.2.4,MacIntel,60.0024001,Chrome,1920,1080,,,,,0,738,,,,,,,,,,,,,,,,,D,132,star,1,0,,,,,,,,,,,,,,,,switch,number,numSwt,j,1.3791,noRew,,,,,,0,39,0,39,0,1,,,,,,,,,,,,,,,,,
297085,2022-11-26_13h14.32.918,vts_reward_expectancy_bt,2022.2.4,MacIntel,60.0024001,Chrome,1920,1080,,,,,0,738,,,,,,,,,,,,,,,,,Y,125,star,1,0,,,,,,,,,,,,,,,,repeat,number,numRpt,j,0.7975,noRew,,,,,,0,40,0,40,0,1,,,,,,,,,,,,,,,,,
297085,2022-11-26_13h14.32.918,vts_reward_expectancy_bt,2022.2.4,MacIntel,60.0024001,Chrome,1920,1080,,,,,0,738,,,,,,,,,,,,,,,,,H,181,hexagon,0,0,,,,,,,,,,,,,,,,repeat,number,NA,j,1.3774,noRew,,,,,,0,41,0,41,0,1,,,,,,,,,,,,,,,,,
297085,2022-11-26_13h14.32.918,vts_reward_expectancy_bt,2022.2.4,MacIntel,60.0024001,Chrome,1920,1080,,,,,0,738,,,,,,,,,,,,,,,,,B,174,triangle,1,1,,,,,,,,,,,,,,,,switch,letter,lettSwt,d,0.7401,noRew,,,,,,0,42,0,42,0,1,,,,,,,,,,,,,,,,,
297085,2022-11-26_13h14.32.918,vts_reward_expectancy_bt,2022.2.4,MacIntel,60.0024001,Chrome,1920,1080,,,,,0,738,,,,,,,,,,,,,,,,,W,167,circle,1,0,,,,,,,,,,,,,,,,switch,number,numSwt,k,1.3139,noRew,,,,,,0,43,0,43,0,1,,,,,,,,,,,,,,,,,
297085,2022-11-26_13h14.32.918,vts_reward_expectancy_bt,2022.2.4,MacIntel,60.0024001,Chrome,1920,1080,,,,,0,738,,,,,,,,,,,,,,,,,U,167,star,1,0,,,,,,,,,,,,,,,,switch,letter,lettSwt,f,1.1149,noRew,,,,,,0,44,0,44,0,1,,,,,,,,,,,,,,,,,
297085,2022-11-26_13h14.32.918,vts_reward_expectancy_bt,2022.2.4,MacIntel,60.0024001,Chrome,1920,1080,,,,,0,738,,,,,,,,,,,,,,,,,H,132,circle,1,0,,,,,,,,,,,,,,,,repeat,letter,lettRpt,d,0.8034,noRew,,,,,,0,45,0,45,0,1,,,,,,,,,,,,,,,,,
297085,2022-11-26_13h14.32.918,vts_reward_expectancy_bt,2022.2.4,MacIntel,60.0024001,Chrome,1920,1080,,,,,0,738,,,,,,,,,,,,,,,,,Y,125,triangle,1,0,,,,,,,,,,,,,,,,repeat,letter,lettRpt,f,1.699,noRew,,,,,,0,46,0,46,0,1,,,,,,,,,,,,,,,,,
297085,2022-11-26_13h14.32.918,vts_reward_expectancy_bt,2022.2.4,MacIntel,60.0024001,Chrome,1920,1080,,,,,0,738,,,,,,,,,,,,,,,,,W,181,circle,1,0,,,,,,,,,,,,,,,,repeat,letter,lettRpt,f,1.5143,noRew,,,,,,0,47,0,47,0,1,,,,,,,,,,,,,,,,,
297085,2022-11-26_13h14.32.918,vts_reward_expectancy_bt,2022.2.4,MacIntel,60.0024001,Chrome,1920,1080,,,,,0,738,,,,,,,,,,,,,,,,,B,139,circle,1,0,,,,,,,,,,,,,,,,repeat,letter,lettRpt,d,0.8563,noRew,,,,,,0,48,0,48,0,1,,,,,,,,,,,,,,,,,
297085,2022-11-26_13h14.32.918,vts_reward_expectancy_bt,2022.2.4,MacIntel,60.0024001,Chrome,1920,1080,,,,,0,738,,,,,,,,,,,,,,,,,W,167,hexagon,1,0,,,,,,,,,,,,,,,,repeat,letter,lettRpt,f,1.574,noRew,,,,,,0,49,0,49,0,1,,,,,,,,,,,,,,,,,
297085,2022-11-26_13h14.32.918,vts_reward_expectancy_bt,2022.2.4,MacIntel,60.0024001,Chrome,1920,1080,,,,,0,738,,,,,,,,,,,,,,,,,H,160,circle,0,0,,,,,,,,,,,,,,,,switch,number,NA,j,0.9378,noRew,,,,,,0,50,0,50,0,1,,,,,,,,,,,,,,,,,
297085,2022-11-26_13h14.32.918,vts_reward_expectancy_bt,2022.2.4,MacIntel,60.0024001,Chrome,1920,1080,,,,,0,738,,,,,,,,,,,,,,,,,F,132,star,1,1,,,,,,,,,,,,,,,,repeat,number,numRpt,j,0.7832,noRew,,,,,,0,51,0,51,0,1,,,,,,,,,,,,,,,,,
297085,2022-11-26_13h14.32.918,vts_reward_expectancy_bt,2022.2.4,MacIntel,60.0024001,Chrome,1920,1080,,,,,0,738,,,,,,,,,,,,,,,,,U,125,circle,1,0,,,,,,,,,,,,,,,,repeat,number,numRpt,j,0.8539,noRew,,,,,,0,52,0,52,0,1,,,,,,,,,,,,,,,,,
297085,2022-11-26_13h14.32.918,vts_reward_expectancy_bt,2022.2.4,MacIntel,60.0024001,Chrome,1920,1080,,,,,0,738,,,,,,,,,,,,,,,,,B,160,star,1,0,,,,,,,,,,,,,,,,repeat,number,numRpt,k,0.9725,noRew,,,,,,0,53,0,53,0,1,,,,,,,,,,,,,,,,,
297085,2022-11-26_13h14.32.918,vts_reward_expectancy_bt,2022.2.4,MacIntel,60.0024001,Chrome,1920,1080,,,,,0,738,,,,,,,,,,,,,,,,,Y,146,star,1,0,,,,,,,,,,,,,,,,repeat,number,numRpt,j,1.4633,noRew,,,,,,0,54,0,54,0,1,,,,,,,,,,,,,,,,,
297085,2022-11-26_13h14.32.918,vts_reward_expectancy_bt,2022.2.4,MacIntel,60.0024001,Chrome,1920,1080,,,,,0,738,,,,,,,,,,,,,,,,,W,181,triangle,1,0,,,,,,,,,,,,,,,,repeat,number,numRpt,k,0.7005,noRew,,,,,,0,55,0,55,0,1,,,,,,,,,,,,,,,,,
297085,2022-11-26_13h14.32.918,vts_reward_expectancy_bt,2022.2.4,MacIntel,60.0024001,Chrome,1920,1080,,,,,0,738,,,,,,,,,,,,,,,,,W,181,triangle,1,0,,,,,,,,,,,,,,,,repeat,number,numRpt,k,1.201,noRew,,,,,,0,56,0,56,0,1,,,,,,,,,,,,,,,,,
297085,2022-11-26_13h14.32.918,vts_reward_expectancy_bt,2022.2.4,MacIntel,60.0024001,Chrome,1920,1080,,,,,0,738,,,,,,,,,,,,,,,,,D,139,star,1,0,,,,,,,,,,,,,,,,repeat,number,numRpt,j,1.1686,noRew,,,,,,0,57,0,57,0,1,,,,,,,,,,,,,,,,,
297085,2022-11-26_13h14.32.918,vts_reward_expectancy_bt,2022.2.4,MacIntel,60.0024001,Chrome,1920,1080,,,,,0,738,,,,,,,,,,,,,,,,,Y,132,triangle,0,0,,,,,,,,,,,,,,,,switch,letter,NA,d,2.288,noRew,,,,,,0,58,0,58,0,1,,,,,,,,,,,,,,,,,
297085,2022-11-26_13h14.32.918,vts_reward_expectancy_bt,2022.2.4,MacIntel,60.0024001,Chrome,1920,1080,,,,,0,738,,,,,,,,,,,,,,,,,B,167,star,1,1,,,,,,,,,,,,,,,,repeat,letter,lettRpt,d,1.1022,noRew,,,,,,0,59,0,59,0,1,,,,,,,,,,,,,,,,,
297085,2022-11-26_13h14.32.918,vts_reward_expectancy_bt,2022.2.4,MacIntel,60.0024001,Chrome,1920,1080,,,,,0,738,,,,,,,,,,,,,,,,,H,167,star,1,0,,,,,,,,,,,,,,,,switch,number,numSwt,k,1.9001,noRew,,,,,,0,60,0,60,0,1,,,,,,,,,,,,,,,,,
297085,2022-11-26_13h14.32.918,vts_reward_expectancy_bt,2022.2.4,MacIntel,60.0024001,Chrome,1920,1080,,,,,0,738,,,,,,,,,,,,,,,,,W,146,circle,1,0,,,,,,,,,,,,,,,,switch,letter,lettSwt,f,1.2224,noRew,,,,,,0,61,0,61,0,1,,,,,,,,,,,,,,,,,
297085,2022-11-26_13h14.32.918,vts_reward_expectancy_bt,2022.2.4,MacIntel,60.0024001,Chrome,1920,1080,,,,,0,738,,,,,,,,,,,,,,,,,Y,139,triangle,1,0,,,,,,,,,,,,,,,,switch,number,numSwt,j,1.4122,noRew,,,,,,0,62,0,62,0,1,,,,,,,,,,,,,,,,,
297085,2022-11-26_13h14.32.918,vts_reward_expectancy_bt,2022.2.4,MacIntel,60.0024001,Chrome,1920,1080,,,,,0,738,,,,,,,,,,,,,,,,,F,174,star,1,0,,,,,,,,,,,,,,,,switch,letter,lettSwt,d,1.108,noRew,,,,,,0,63,0,63,0,1,,,,,,,,,,,,,,,,,
297085,2022-11-26_13h14.32.918,vts_reward_expectancy_bt,2022.2.4,MacIntel,60.0024001,Chrome,1920,1080,,,,,,,,,,,,,,,,,,,,,,,,,,,,,,,,,,,,,,,,,,,,,,,,,,,,,,,,,,,,,,,,,,,,,,,,,,,,
297085,2022-11-26_13h14.32.918,vts_reward_expectancy_bt,2022.2.4,MacIntel,60.0024001,Chrome,1920,1080,,,,,0,738,,,,,,,,,,,,,,,,,S,167,triangle,1,0,,,,,,,,,,,,,,,,repeat,letter,lettRpt,f,1.573,Hi,,,,,,0,,,,,,space,4.4116,high,0,0,0,0,1,,,,,,,,,
297085,2022-11-26_13h14.32.918,vts_reward_expectancy_bt,2022.2.4,MacIntel,60.0024001,Chrome,1920,1080,,,,,1,739,,,,,,,,,,,,,,,,,H,181,hexagon,1,0,,,,,,,,,,,,,,,,repeat,letter,lettRpt,d,1.1499,Lo,,,,,,0,,,,,,,,high,1,0,1,0,1,,,,,,,,,
297085,2022-11-26_13h14.32.918,vts_reward_expectancy_bt,2022.2.4,MacIntel,60.0024001,Chrome,1920,1080,,,,,1,740,,,,,,,,,,,,,,,,,B,174,star,1,0,,,,,,,,,,,,,,,,switch,number,numSwt,k,0.6343,Lo,,,,,,0,,,,,,,,high,2,0,2,0,1,,,,,,,,,
297085,2022-11-26_13h14.32.918,vts_reward_expectancy_bt,2022.2.4,MacIntel,60.0024001,Chrome,1920,1080,,,,,10,750,,,,,,,,,,,,,,,,,W,160,circle,1,0,,,,,,,,,,,,,,,,repeat,number,numRpt,k,0.7906,Hi,,,,,,0,,,,,,,,high,3,0,3,0,1,,,,,,,,,
297085,2022-11-26_13h14.32.918,vts_reward_expectancy_bt,2022.2.4,MacIntel,60.0024001,Chrome,1920,1080,,,,,10,760,,,,,,,,,,,,,,,,,U,132,triangle,1,0,,,,,,,,,,,,,,,,repeat,number,numRpt,j,0.6426,Hi,,,,,,0,,,,,,,,high,4,0,4,0,1,,,,,,,,,
297085,2022-11-26_13h14.32.918,vts_reward_expectancy_bt,2022.2.4,MacIntel,60.0024001,Chrome,1920,1080,,,,,1,761,,,,,,,,,,,,,,,,,F,125,hexagon,1,0,,,,,,,,,,,,,,,,repeat,number,numRpt,j,0.6494,Lo,,,,,,0,,,,,,,,high,5,0,5,0,1,,,,,,,,,
297085,2022-11-26_13h14.32.918,vts_reward_expectancy_bt,2022.2.4,MacIntel,60.0024001,Chrome,1920,1080,,,,,1,762,,,,,,,,,,,,,,,,,D,146,star,1,0,,,,,,,,,,,,,,,,repeat,number,numRpt,j,0.8717,Lo,,,,,,0,,,,,,,,high,6,0,6,0,1,,,,,,,,,
297085,2022-11-26_13h14.32.918,vts_reward_expectancy_bt,2022.2.4,MacIntel,60.0024001,Chrome,1920,1080,,,,,10,772,,,,,,,,,,,,,,,,,Y,139,circle,1,0,,,,,,,,,,,,,,,,switch,letter,lettSwt,f,0.5587,Hi,,,,,,0,,,,,,,,high,7,0,7,0,1,,,,,,,,,
297085,2022-11-26_13h14.32.918,vts_reward_expectancy_bt,2022.2.4,MacIntel,60.0024001,Chrome,1920,1080,,,,,0,772,,,,,,,,,,,,,,,,,S,167,circle,1,0,,,,,,,,,,,,,,,,repeat,letter,lettRpt,f,0.9268,Hi,,,,,,0,,,,,,,,high,8,0,8,0,1,,,,,,,,,
297085,2022-11-26_13h14.32.918,vts_reward_expectancy_bt,2022.2.4,MacIntel,60.0024001,Chrome,1920,1080,,,,,10,782,,,,,,,,,,,,,,,,,H,181,triangle,1,0,,,,,,,,,,,,,,,,switch,number,numSwt,k,0.9179,Hi,,,,,,0,,,,,,,,high,9,0,9,0,1,,,,,,,,,
297085,2022-11-26_13h14.32.918,vts_reward_expectancy_bt,2022.2.4,MacIntel,60.0024001,Chrome,1920,1080,,,,,1,783,,,,,,,,,,,,,,,,,B,174,star,1,0,,,,,,,,,,,,,,,,repeat,number,numRpt,k,0.6884,Lo,,,,,,0,,,,,,,,high,10,0,10,0,1,,,,,,,,,
297085,2022-11-26_13h14.32.918,vts_reward_expectancy_bt,2022.2.4,MacIntel,60.0024001,Chrome,1920,1080,,,,,1,784,,,,,,,,,,,,,,,,,W,160,hexagon,1,0,,,,,,,,,,,,,,,,repeat,number,numRpt,k,0.6616,Lo,,,,,,0,,,,,,,,high,11,0,11,0,1,,,,,,,,,
297085,2022-11-26_13h14.32.918,vts_reward_expectancy_bt,2022.2.4,MacIntel,60.0024001,Chrome,1920,1080,,,,,1,785,,,,,,,,,,,,,,,,,U,132,star,1,0,,,,,,,,,,,,,,,,repeat,number,numRpt,j,0.6927,Lo,,,,,,0,,,,,,,,high,12,0,12,0,1,,,,,,,,,
297085,2022-11-26_13h14.32.918,vts_reward_expectancy_bt,2022.2.4,MacIntel,60.0024001,Chrome,1920,1080,,,,,10,795,,,,,,,,,,,,,,,,,F,125,triangle,1,0,,,,,,,,,,,,,,,,repeat,number,numRpt,j,0.6489,Hi,,,,,,0,,,,,,,,high,13,0,13,0,1,,,,,,,,,
297085,2022-11-26_13h14.32.918,vts_reward_expectancy_bt,2022.2.4,MacIntel,60.0024001,Chrome,1920,1080,,,,,10,805,,,,,,,,,,,,,,,,,D,146,circle,1,0,,,,,,,,,,,,,,,,repeat,number,numRpt,j,0.6478,Hi,,,,,,0,,,,,,,,high,14,0,14,0,1,,,,,,,,,
297085,2022-11-26_13h14.32.918,vts_reward_expectancy_bt,2022.2.4,MacIntel,60.0024001,Chrome,1920,1080,,,,,1,806,,,,,,,,,,,,,,,,,Y,139,hexagon,1,0,,,,,,,,,,,,,,,,repeat,number,numRpt,j,0.9938,Lo,,,,,,0,,,,,,,,high,15,0,15,0,1,,,,,,,,,
297085,2022-11-26_13h14.32.918,vts_reward_expectancy_bt,2022.2.4,MacIntel,60.0024001,Chrome,1920,1080,,,,,1,807,,,,,,,,,,,,,,,,,D,146,star,1,0,,,,,,,,,,,,,,,,repeat,number,numRpt,j,0.5726,Lo,,,,,,0,,,,,,,,high,16,0,16,0,1,,,,,,,,,
297085,2022-11-26_13h14.32.918,vts_reward_expectancy_bt,2022.2.4,MacIntel,60.0024001,Chrome,1920,1080,,,,,10,817,,,,,,,,,,,,,,,,,W,132,triangle,1,0,,,,,,,,,,,,,,,,switch,letter,lettSwt,f,0.7512,Hi,,,,,,0,,,,,,,,high,17,0,17,0,1,,,,,,,,,
297085,2022-11-26_13h14.32.918,vts_reward_expectancy_bt,2022.2.4,MacIntel,60.0024001,Chrome,1920,1080,,,,,10,827,,,,,,,,,,,,,,,,,S,160,circle,1,0,,,,,,,,,,,,,,,,switch,number,numSwt,k,1.0013,Hi,,,,,,0,,,,,,,,high,18,0,18,0,1,,,,,,,,,
297085,2022-11-26_13h14.32.918,vts_reward_expectancy_bt,2022.2.4,MacIntel,60.0024001,Chrome,1920,1080,,,,,1,828,,,,,,,,,,,,,,,,,Y,139,hexagon,1,0,,,,,,,,,,,,,,,,repeat,number,numRpt,j,1.0919,Lo,,,,,,0,,,,,,,,high,19,0,19,0,1,,,,,,,,,
297085,2022-11-26_13h14.32.918,vts_reward_expectancy_bt,2022.2.4,MacIntel,60.0024001,Chrome,1920,1080,,,,,10,838,,,,,,,,,,,,,,,,,U,174,triangle,1,0,,,,,,,,,,,,,,,,repeat,number,numRpt,k,0.6589,Hi,,,,,,0,,,,,,,,high,20,0,20,0,1,,,,,,,,,
297085,2022-11-26_13h14.32.918,vts_reward_expectancy_bt,2022.2.4,MacIntel,60.0024001,Chrome,1920,1080,,,,,10,848,,,,,,,,,,,,,,,,,F,167,star,1,0,,,,,,,,,,,,,,,,repeat,number,numRpt,k,0.9703,Lo,,,,,,0,,,,,,,,high,21,0,21,0,1,,,,,,,,,
297085,2022-11-26_13h14.32.918,vts_reward_expectancy_bt,2022.2.4,MacIntel,60.0024001,Chrome,1920,1080,,,,,1,849,,,,,,,,,,,,,,,,,H,125,circle,1,0,,,,,,,,,,,,,,,,repeat,number,numRpt,j,0.9324,Hi,,,,,,0,,,,,,,,high,22,0,22,0,1,,,,,,,,,
297085,2022-11-26_13h14.32.918,vts_reward_expectancy_bt,2022.2.4,MacIntel,60.0024001,Chrome,1920,1080,,,,,1,850,,,,,,,,,,,,,,,,,B,181,hexagon,1,0,,,,,,,,,,,,,,,,repeat,number,numRpt,k,0.731,Lo,,,,,,0,,,,,,,,high,23,0,23,0,1,,,,,,,,,
297085,2022-11-26_13h14.32.918,vts_reward_expectancy_bt,2022.2.4,MacIntel,60.0024001,Chrome,1920,1080,,,,,1,851,,,,,,,,,,,,,,,,,Y,146,hexagon,1,0,,,,,,,,,,,,,,,,switch,letter,lettSwt,f,0.8764,Lo,,,,,,0,,,,,,,,high,24,0,24,0,1,,,,,,,,,
297085,2022-11-26_13h14.32.918,vts_reward_expectancy_bt,2022.2.4,MacIntel,60.0024001,Chrome,1920,1080,,,,,10,861,,,,,,,,,,,,,,,,,B,160,circle,1,0,,,,,,,,,,,,,,,,repeat,letter,lettRpt,d,0.8059,Hi,,,,,,0,,,,,,,,high,25,0,25,0,1,,,,,,,,,
297085,2022-11-26_13h14.32.918,vts_reward_expectancy_bt,2022.2.4,MacIntel,60.0024001,Chrome,1920,1080,,,,,10,871,,,,,,,,,,,,,,,,,F,167,star,1,0,,,,,,,,,,,,,,,,repeat,letter,lettRpt,d,0.6498,Lo,,,,,,0,,,,,,,,high,26,0,26,0,1,,,,,,,,,
297085,2022-11-26_13h14.32.918,vts_reward_expectancy_bt,2022.2.4,MacIntel,60.0024001,Chrome,1920,1080,,,,,0,871,,,,,,,,,,,,,,,,,D,125,triangle,1,0,,,,,,,,,,,,,,,,repeat,letter,lettRpt,d,1.021,Hi,,,,,,0,,,,,,,,high,27,0,27,0,1,,,,,,,,,
297085,2022-11-26_13h14.32.918,vts_reward_expectancy_bt,2022.2.4,MacIntel,60.0024001,Chrome,1920,1080,,,,,10,881,,,,,,,,,,,,,,,,,S,132,circle,1,0,,,,,,,,,,,,,,,,repeat,letter,lettRpt,f,0.64,Hi,,,,,,0,,,,,,,,high,28,0,28,0,1,,,,,,,,,
297085,2022-11-26_13h14.32.918,vts_reward_expectancy_bt,2022.2.4,MacIntel,60.0024001,Chrome,1920,1080,,,,,1,882,,,,,,,,,,,,,,,,,U,181,hexagon,1,0,,,,,,,,,,,,,,,,repeat,letter,lettRpt,f,0.8101,Lo,,,,,,0,,,,,,,,high,29,0,29,0,1,,,,,,,,,
297085,2022-11-26_13h14.32.918,vts_reward_expectancy_bt,2022.2.4,MacIntel,60.0024001,Chrome,1920,1080,,,,,0,882,,,,,,,,,,,,,,,,,H,139,triangle,0,0,,,,,,,,,,,,,,,,repeat,letter,NA,f,0.932,Lo,,,,,,0,,,,,,,,high,30,0,30,0,1,,,,,,,,,
297085,2022-11-26_13h14.32.918,vts_reward_expectancy_bt,2022.2.4,MacIntel,60.0024001,Chrome,1920,1080,,,,,1,883,,,,,,,,,,,,,,,,,W,174,star,1,1,,,,,,,,,,,,,,,,repeat,letter,lettRpt,f,0.6736,Lo,,,,,,0,,,,,,,,high,31,0,31,0,1,,,,,,,,,
297085,2022-11-26_13h14.32.918,vts_reward_expectancy_bt,2022.2.4,MacIntel,60.0024001,Chrome,1920,1080,,,,,10,893,,,,,,,,,,,,,,,,,W,174,triangle,1,0,,,,,,,,,,,,,,,,switch,number,numSwt,k,0.5914,Hi,,,,,,1,,,,,,space,5.3025,high,0,0,0,0,1,,,,,,,,,
297085,2022-11-26_13h14.32.918,vts_reward_expectancy_bt,2022.2.4,MacIntel,60.0024001,Chrome,1920,1080,,,,,1,894,,,,,,,,,,,,,,,,,Y,167,hexagon,1,0,,,,,,,,,,,,,,,,repeat,number,numRpt,k,0.5552,Lo,,,,,,1,,,,,,,,high,1,0,1,0,1,,,,,,,,,
297085,2022-11-26_13h14.32.918,vts_reward_expectancy_bt,2022.2.4,MacIntel,60.0024001,Chrome,1920,1080,,,,,1,895,,,,,,,,,,,,,,,,,H,125,star,1,0,,,,,,,,,,,,,,,,repeat,number,numRpt,j,0.8534,Lo,,,,,,1,,,,,,,,high,2,0,2,0,1,,,,,,,,,
297085,2022-11-26_13h14.32.918,vts_reward_expectancy_bt,2022.2.4,MacIntel,60.0024001,Chrome,1920,1080,,,,,0,895,,,,,,,,,,,,,,,,,F,146,circle,1,0,,,,,,,,,,,,,,,,repeat,number,numRpt,j,0.6655,Hi,,,,,,1,,,,,,,,high,3,0,3,0,1,,,,,,,,,
297085,2022-11-26_13h14.32.918,vts_reward_expectancy_bt,2022.2.4,MacIntel,60.0024001,Chrome,1920,1080,,,,,10,905,,,,,,,,,,,,,,,,,S,139,triangle,1,0,,,,,,,,,,,,,,,,repeat,number,numRpt,j,0.4983,Hi,,,,,,1,,,,,,,,high,4,0,4,0,1,,,,,,,,,
297085,2022-11-26_13h14.32.918,vts_reward_expectancy_bt,2022.2.4,MacIntel,60.0024001,Chrome,1920,1080,,,,,1,906,,,,,,,,,,,,,,,,,D,181,hexagon,1,0,,,,,,,,,,,,,,,,repeat,number,numRpt,k,0.6024,Lo,,,,,,1,,,,,,,,high,5,0,5,0,1,,,,,,,,,
297085,2022-11-26_13h14.32.918,vts_reward_expectancy_bt,2022.2.4,MacIntel,60.0024001,Chrome,1920,1080,,,,,1,907,,,,,,,,,,,,,,,,,B,132,star,1,0,,,,,,,,,,,,,,,,switch,letter,lettSwt,d,0.5511,Lo,,,,,,1,,,,,,,,high,6,0,6,0,1,,,,,,,,,
297085,2022-11-26_13h14.32.918,vts_reward_expectancy_bt,2022.2.4,MacIntel,60.0024001,Chrome,1920,1080,,,,,10,917,,,,,,,,,,,,,,,,,U,160,circle,1,0,,,,,,,,,,,,,,,,repeat,letter,lettRpt,f,0.6139,Hi,,,,,,1,,,,,,,,high,7,0,7,0,1,,,,,,,,,
297085,2022-11-26_13h14.32.918,vts_reward_expectancy_bt,2022.2.4,MacIntel,60.0024001,Chrome,1920,1080,,,,,10,927,,,,,,,,,,,,,,,,,W,174,triangle,1,0,,,,,,,,,,,,,,,,repeat,letter,lettRpt,f,0.6485,Hi,,,,,,1,,,,,,,,high,8,0,8,0,1,,,,,,,,,
297085,2022-11-26_13h14.32.918,vts_reward_expectancy_bt,2022.2.4,MacIntel,60.0024001,Chrome,1920,1080,,,,,1,928,,,,,,,,,,,,,,,,,Y,167,star,1,0,,,,,,,,,,,,,,,,repeat,letter,lettRpt,f,0.6546,Lo,,,,,,1,,,,,,,,high,9,0,9,0,1,,,,,,,,,
297085,2022-11-26_13h14.32.918,vts_reward_expectancy_bt,2022.2.4,MacIntel,60.0024001,Chrome,1920,1080,,,,,1,929,,,,,,,,,,,,,,,,,H,125,hexagon,1,0,,,,,,,,,,,,,,,,repeat,letter,lettRpt,d,0.6259,Lo,,,,,,1,,,,,,,,high,10,0,10,0,1,,,,,,,,,
297085,2022-11-26_13h14.32.918,vts_reward_expectancy_bt,2022.2.4,MacIntel,60.0024001,Chrome,1920,1080,,,,,1,930,,,,,,,,,,,,,,,,,F,146,circle,1,0,,,,,,,,,,,,,,,,repeat,letter,lettRpt,d,0.7194,Hi,,,,,,1,,,,,,,,high,11,0,11,0,1,,,,,,,,,
297085,2022-11-26_13h14.32.918,vts_reward_expectancy_bt,2022.2.4,MacIntel,60.0024001,Chrome,1920,1080,,,,,1,931,,,,,,,,,,,,,,,,,S,139,star,1,0,,,,,,,,,,,,,,,,repeat,letter,lettRpt,f,1.0239,Lo,,,,,,1,,,,,,,,high,12,0,12,0,1,,,,,,,,,
297085,2022-11-26_13h14.32.918,vts_reward_expectancy_bt,2022.2.4,MacIntel,60.0024001,Chrome,1920,1080,,,,,0,931,,,,,,,,,,,,,,,,,D,181,hexagon,0,0,,,,,,,,,,,,,,,,switch,number,NA,j,0.7003,Lo,,,,,,1,,,,,,,,high,13,0,13,0,1,,,,,,,,,
297085,2022-11-26_13h14.32.918,vts_reward_expectancy_bt,2022.2.4,MacIntel,60.0024001,Chrome,1920,1080,,,,,0,931,,,,,,,,,,,,,,,,,B,132,triangle,1,1,,,,,,,,,,,,,,,,repeat,number,numRpt,j,1.2854,Hi,,,,,,1,,,,,,,,high,14,0,14,0,1,,,,,,,,,
297085,2022-11-26_13h14.32.918,vts_reward_expectancy_bt,2022.2.4,MacIntel,60.0024001,Chrome,1920,1080,,,,,0,931,,,,,,,,,,,,,,,,,U,160,circle,1,0,,,,,,,,,,,,,,,,repeat,number,numRpt,k,1.2057,Hi,,,,,,1,,,,,,,,high,15,0,15,0,1,,,,,,,,,
297085,2022-11-26_13h14.32.918,vts_reward_expectancy_bt,2022.2.4,MacIntel,60.0024001,Chrome,1920,1080,,,,,0,931,,,,,,,,,,,,,,,,,H,132,circle,1,0,,,,,,,,,,,,,,,,repeat,number,numRpt,j,0.7139,Hi,,,,,,1,,,,,,,,high,16,0,16,0,1,,,,,,,,,
297085,2022-11-26_13h14.32.918,vts_reward_expectancy_bt,2022.2.4,MacIntel,60.0024001,Chrome,1920,1080,,,,,0,931,,,,,,,,,,,,,,,,,W,139,triangle,1,0,,,,,,,,,,,,,,,,switch,letter,lettSwt,f,0.7307,Hi,,,,,,1,,,,,,,,high,17,0,17,0,1,,,,,,,,,
297085,2022-11-26_13h14.32.918,vts_reward_expectancy_bt,2022.2.4,MacIntel,60.0024001,Chrome,1920,1080,,,,,1,932,,,,,,,,,,,,,,,,,S,174,star,1,0,,,,,,,,,,,,,,,,switch,number,numSwt,k,0.5985,Lo,,,,,,1,,,,,,,,high,18,0,18,0,1,,,,,,,,,
297085,2022-11-26_13h14.32.918,vts_reward_expectancy_bt,2022.2.4,MacIntel,60.0024001,Chrome,1920,1080,,,,,10,942,,,,,,,,,,,,,,,,,F,167,hexagon,1,0,,,,,,,,,,,,,,,,repeat,number,numRpt,k,0.916,Lo,,,,,,1,,,,,,,,high,19,0,19,0,1,,,,,,,,,
297085,2022-11-26_13h14.32.918,vts_reward_expectancy_bt,2022.2.4,MacIntel,60.0024001,Chrome,1920,1080,,,,,0,942,,,,,,,,,,,,,,,,,Y,146,triangle,1,0,,,,,,,,,,,,,,,,repeat,number,numRpt,j,0.6749,Hi,,,,,,1,,,,,,,,high,20,0,20,0,1,,,,,,,,,
297085,2022-11-26_13h14.32.918,vts_reward_expectancy_bt,2022.2.4,MacIntel,60.0024001,Chrome,1920,1080,,,,,1,943,,,,,,,,,,,,,,,,,B,125,star,1,0,,,,,,,,,,,,,,,,repeat,number,numRpt,j,0.8835,Lo,,,,,,1,,,,,,,,high,21,0,21,0,1,,,,,,,,,
297085,2022-11-26_13h14.32.918,vts_reward_expectancy_bt,2022.2.4,MacIntel,60.0024001,Chrome,1920,1080,,,,,1,944,,,,,,,,,,,,,,,,,U,160,hexagon,1,0,,,,,,,,,,,,,,,,repeat,number,numRpt,k,0.8974,Lo,,,,,,1,,,,,,,,high,22,0,22,0,1,,,,,,,,,
297085,2022-11-26_13h14.32.918,vts_reward_expectancy_bt,2022.2.4,MacIntel,60.0024001,Chrome,1920,1080,,,,,1,945,,,,,,,,,,,,,,,,,D,181,circle,1,0,,,,,,,,,,,,,,,,repeat,number,numRpt,k,0.6469,Hi,,,,,,1,,,,,,,,high,23,0,23,0,1,,,,,,,,,
297085,2022-11-26_13h14.32.918,vts_reward_expectancy_bt,2022.2.4,MacIntel,60.0024001,Chrome,1920,1080,,,,,10,955,,,,,,,,,,,,,,,,,H,167,star,1,0,,,,,,,,,,,,,,,,repeat,number,numRpt,k,1.0425,Lo,,,,,,1,,,,,,,,high,24,0,24,0,1,,,,,,,,,
297085,2022-11-26_13h14.32.918,vts_reward_expectancy_bt,2022.2.4,MacIntel,60.0024001,Chrome,1920,1080,,,,,1,956,,,,,,,,,,,,,,,,,D,125,hexagon,1,0,,,,,,,,,,,,,,,,repeat,number,numRpt,j,1.0172,Lo,,,,,,1,,,,,,,,high,25,0,25,0,1,,,,,,,,,
297085,2022-11-26_13h14.32.918,vts_reward_expectancy_bt,2022.2.4,MacIntel,60.0024001,Chrome,1920,1080,,,,,0,956,,,,,,,,,,,,,,,,,S,174,circle,1,0,,,,,,,,,,,,,,,,repeat,number,numRpt,k,0.7996,Hi,,,,,,1,,,,,,,,high,26,0,26,0,1,,,,,,,,,
297085,2022-11-26_13h14.32.918,vts_reward_expectancy_bt,2022.2.4,MacIntel,60.0024001,Chrome,1920,1080,,,,,1,957,,,,,,,,,,,,,,,,,W,146,triangle,1,0,,,,,,,,,,,,,,,,repeat,number,numRpt,j,0.6515,Hi,,,,,,1,,,,,,,,high,27,0,27,0,1,,,,,,,,,
297085,2022-11-26_13h14.32.918,vts_reward_expectancy_bt,2022.2.4,MacIntel,60.0024001,Chrome,1920,1080,,,,,0,957,,,,,,,,,,,,,,,,,U,139,triangle,1,0,,,,,,,,,,,,,,,,repeat,number,numRpt,j,0.7649,Hi,,,,,,1,,,,,,,,high,28,0,28,0,1,,,,,,,,,
297085,2022-11-26_13h14.32.918,vts_reward_expectancy_bt,2022.2.4,MacIntel,60.0024001,Chrome,1920,1080,,,,,1,958,,,,,,,,,,,,,,,,,Y,181,star,1,0,,,,,,,,,,,,,,,,repeat,number,numRpt,k,0.9496,Lo,,,,,,1,,,,,,,,high,29,0,29,0,1,,,,,,,,,
297085,2022-11-26_13h14.32.918,vts_reward_expectancy_bt,2022.2.4,MacIntel,60.0024001,Chrome,1920,1080,,,,,0,958,,,,,,,,,,,,,,,,,B,160,circle,1,0,,,,,,,,,,,,,,,,repeat,number,numRpt,k,1.0053,Hi,,,,,,1,,,,,,,,high,30,0,30,0,1,,,,,,,,,
297085,2022-11-26_13h14.32.918,vts_reward_expectancy_bt,2022.2.4,MacIntel,60.0024001,Chrome,1920,1080,,,,,10,968,,,,,,,,,,,,,,,,,F,132,hexagon,1,0,,,,,,,,,,,,,,,,repeat,number,numRpt,j,0.875,Lo,,,,,,1,,,,,,,,high,31,0,31,0,1,,,,,,,,,
297085,2022-11-26_13h14.32.918,vts_reward_expectancy_bt,2022.2.4,MacIntel,60.0024001,Chrome,1920,1080,,,,,10,978,,,,,,,,,,,,,,,,,D,132,triangle,1,0,,,,,,,,,,,,,,,,repeat,number,numRpt,j,0.0095,Hi,,,,,,2,,,,,,space,1.4418,high,0,0,0,0,1,,,,,,,,,
297085,2022-11-26_13h14.32.918,vts_reward_expectancy_bt,2022.2.4,MacIntel,60.0024001,Chrome,1920,1080,,,,,10,988,,,,,,,,,,,,,,,,,S,181,circle,1,0,,,,,,,,,,,,,,,,repeat,number,numRpt,k,0.0307,Hi,,,,,,2,,,,,,,,high,1,0,1,0,1,,,,,,,,,
297085,2022-11-26_13h14.32.918,vts_reward_expectancy_bt,2022.2.4,MacIntel,60.0024001,Chrome,1920,1080,,,,,10,998,,,,,,,,,,,,,,,,,U,139,star,1,0,,,,,,,,,,,,,,,,repeat,number,numRpt,j,0.0366,Lo,,,,,,2,,,,,,,,high,2,0,2,0,1,,,,,,,,,
297085,2022-11-26_13h14.32.918,vts_reward_expectancy_bt,2022.2.4,MacIntel,60.0024001,Chrome,1920,1080,,,,,0,998,,,,,,,,,,,,,,,,,Y,160,hexagon,0,0,,,,,,,,,,,,,,,,repeat,number,NA,j,0.033,Lo,,,,,,2,,,,,,,,high,3,0,3,0,1,,,,,,,,,
297085,2022-11-26_13h14.32.918,vts_reward_expectancy_bt,2022.2.4,MacIntel,60.0024001,Chrome,1920,1080,,,,,0,998,,,,,,,,,,,,,,,,,H,146,triangle,1,1,,,,,,,,,,,,,,,,repeat,number,numRpt,j,0.9744,Hi,,,,,,2,,,,,,,,high,4,0,4,0,1,,,,,,,,,
297085,2022-11-26_13h14.32.918,vts_reward_expectancy_bt,2022.2.4,MacIntel,60.0024001,Chrome,1920,1080,,,,,0,998,,,,,,,,,,,,,,,,,B,125,circle,0,0,,,,,,,,,,,,,,,,repeat,number,NA,k,0.3048,Hi,,,,,,2,,,,,,,,high,5,0,5,0,1,,,,,,,,,
297085,2022-11-26_13h14.32.918,vts_reward_expectancy_bt,2022.2.4,MacIntel,60.0024001,Chrome,1920,1080,,,,,1,999,,,,,,,,,,,,,,,,,W,167,star,1,1,,,,,,,,,,,,,,,,switch,letter,lettSwt,f,0.0543,Lo,,,,,,2,,,,,,,,high,6,0,6,0,1,,,,,,,,,
297085,2022-11-26_13h14.32.918,vts_reward_expectancy_bt,2022.2.4,MacIntel,60.0024001,Chrome,1920,1080,,,,,1,1000,,,,,,,,,,,,,,,,,F,174,hexagon,1,0,,,,,,,,,,,,,,,,switch,number,numSwt,k,0.6665,Lo,,,,,,2,,,,,,,,high,7,0,7,0,1,,,,,,,,,
297085,2022-11-26_13h14.32.918,vts_reward_expectancy_bt,2022.2.4,MacIntel,60.0024001,Chrome,1920,1080,,,,,1,1001,,,,,,,,,,,,,,,,,D,132,hexagon,1,0,,,,,,,,,,,,,,,,repeat,number,numRpt,j,0.6424,Lo,,,,,,2,,,,,,,,high,8,0,8,0,1,,,,,,,,,
297085,2022-11-26_13h14.32.918,vts_reward_expectancy_bt,2022.2.4,MacIntel,60.0024001,Chrome,1920,1080,,,,,1,1002,,,,,,,,,,,,,,,,,S,181,star,1,0,,,,,,,,,,,,,,,,repeat,number,numRpt,k,0.5942,Lo,,,,,,2,,,,,,,,high,9,0,9,0,1,,,,,,,,,
297085,2022-11-26_13h14.32.918,vts_reward_expectancy_bt,2022.2.4,MacIntel,60.0024001,Chrome,1920,1080,,,,,0,1002,,,,,,,,,,,,,,,,,U,139,circle,1,0,,,,,,,,,,,,,,,,switch,letter,lettSwt,f,0.9603,Hi,,,,,,2,,,,,,,,high,10,0,10,0,1,,,,,,,,,
297085,2022-11-26_13h14.32.918,vts_reward_expectancy_bt,2022.2.4,MacIntel,60.0024001,Chrome,1920,1080,,,,,1,1003,,,,,,,,,,,,,,,,,Y,160,triangle,1,0,,,,,,,,,,,,,,,,switch,number,numSwt,k,0.0172,Hi,,,,,,2,,,,,,,,high,11,0,11,0,1,,,,,,,,,
297085,2022-11-26_13h14.32.918,vts_reward_expectancy_bt,2022.2.4,MacIntel,60.0024001,Chrome,1920,1080,,,,,0,1003,,,,,,,,,,,,,,,,,H,146,circle,0,0,,,,,,,,,,,,,,,,repeat,number,NA,k,0.0502,Hi,,,,,,2,,,,,,,,high,12,0,12,0,1,,,,,,,,,
297085,2022-11-26_13h14.32.918,vts_reward_expectancy_bt,2022.2.4,MacIntel,60.0024001,Chrome,1920,1080,,,,,0,1003,,,,,,,,,,,,,,,,,B,125,triangle,0,1,,,,,,,,,,,,,,,,repeat,number,NA,k,0.0003,Hi,,,,,,2,,,,,,,,high,13,0,13,0,1,,,,,,,,,
297085,2022-11-26_13h14.32.918,vts_reward_expectancy_bt,2022.2.4,MacIntel,60.0024001,Chrome,1920,1080,,,,,0,1003,,,,,,,,,,,,,,,,,W,167,star,0,1,,,,,,,,,,,,,,,,repeat,number,NA,j,0.016,Hi,,,,,,2,,,,,,,,high,14,0,14,0,1,,,,,,,,,
297085,2022-11-26_13h14.32.918,vts_reward_expectancy_bt,2022.2.4,MacIntel,60.0024001,Chrome,1920,1080,,,,,1,1004,,,,,,,,,,,,,,,,,F,174,hexagon,1,1,,,,,,,,,,,,,,,,repeat,number,numRpt,k,1.0654,Lo,,,,,,2,,,,,,,,high,15,0,15,0,1,,,,,,,,,
297085,2022-11-26_13h14.32.918,vts_reward_expectancy_bt,2022.2.4,MacIntel,60.0024001,Chrome,1920,1080,,,,,1,1005,,,,,,,,,,,,,,,,,Y,181,hexagon,1,0,,,,,,,,,,,,,,,,repeat,number,numRpt,k,0.6603,Lo,,,,,,2,,,,,,,,high,16,0,16,0,1,,,,,,,,,
297085,2022-11-26_13h14.32.918,vts_reward_expectancy_bt,2022.2.4,MacIntel,60.0024001,Chrome,1920,1080,,,,,0,1005,,,,,,,,,,,,,,,,,W,139,triangle,1,0,,,,,,,,,,,,,,,,repeat,number,numRpt,j,0.9443,Hi,,,,,,2,,,,,,,,high,17,0,17,0,1,,,,,,,,,
297085,2022-11-26_13h14.32.918,vts_reward_expectancy_bt,2022.2.4,MacIntel,60.0024001,Chrome,1920,1080,,,,,0,1005,,,,,,,,,,,,,,,,,B,160,circle,0,0,,,,,,,,,,,,,,,,repeat,number,NA,j,0.6003,Hi,,,,,,2,,,,,,,,high,18,0,18,0,1,,,,,,,,,
297085,2022-11-26_13h14.32.918,vts_reward_expectancy_bt,2022.2.4,MacIntel,60.0024001,Chrome,1920,1080,,,,,1,1006,,,,,,,,,,,,,,,,,F,125,star,1,1,,,,,,,,,,,,,,,,repeat,number,numRpt,j,0.9316,Lo,,,,,,2,,,,,,,,high,19,0,19,0,1,,,,,,,,,
297085,2022-11-26_13h14.32.918,vts_reward_expectancy_bt,2022.2.4,MacIntel,60.0024001,Chrome,1920,1080,,,,,1,1007,,,,,,,,,,,,,,,,,S,167,star,1,0,,,,,,,,,,,,,,,,repeat,number,numRpt,k,1.0122,Lo,,,,,,2,,,,,,,,high,20,0,20,0,1,,,,,,,,,
297085,2022-11-26_13h14.32.918,vts_reward_expectancy_bt,2022.2.4,MacIntel,60.0024001,Chrome,1920,1080,,,,,10,1017,,,,,,,,,,,,,,,,,U,174,triangle,1,0,,,,,,,,,,,,,,,,repeat,number,numRpt,k,0.5422,Hi,,,,,,2,,,,,,,,high,21,0,21,0,1,,,,,,,,,
297085,2022-11-26_13h14.32.918,vts_reward_expectancy_bt,2022.2.4,MacIntel,60.0024001,Chrome,1920,1080,,,,,0,1017,,,,,,,,,,,,,,,,,D,146,circle,0,0,,,,,,,,,,,,,,,,repeat,number,NA,k,0.7281,Hi,,,,,,2,,,,,,,,high,22,0,22,0,1,,,,,,,,,
297085,2022-11-26_13h14.32.918,vts_reward_expectancy_bt,2022.2.4,MacIntel,60.0024001,Chrome,1920,1080,,,,,1,1018,,,,,,,,,,,,,,,,,H,132,hexagon,1,1,,,,,,,,,,,,,,,,repeat,number,numRpt,j,1.4587,Lo,,,,,,2,,,,,,,,high,23,0,23,0,1,,,,,,,,,
297085,2022-11-26_13h14.32.918,vts_reward_expectancy_bt,2022.2.4,MacIntel,60.0024001,Chrome,1920,1080,,,,,1,1019,,,,,,,,,,,,,,,,,F,132,hexagon,1,0,,,,,,,,,,,,,,,,repeat,number,numRpt,j,1.0128,Lo,,,,,,2,,,,,,,,high,24,0,24,0,1,,,,,,,,,
297085,2022-11-26_13h14.32.918,vts_reward_expectancy_bt,2022.2.4,MacIntel,60.0024001,Chrome,1920,1080,,,,,0,1019,,,,,,,,,,,,,,,,,U,146,circle,1,0,,,,,,,,,,,,,,,,repeat,number,numRpt,j,1.1588,Hi,,,,,,2,,,,,,,,high,25,0,25,0,1,,,,,,,,,
297085,2022-11-26_13h14.32.918,vts_reward_expectancy_bt,2022.2.4,MacIntel,60.0024001,Chrome,1920,1080,,,,,0,1019,,,,,,,,,,,,,,,,,S,160,triangle,0,0,,,,,,,,,,,,,,,,repeat,number,NA,j,0.8945,Hi,,,,,,2,,,,,,,,high,26,0,26,0,1,,,,,,,,,
297085,2022-11-26_13h14.32.918,vts_reward_expectancy_bt,2022.2.4,MacIntel,60.0024001,Chrome,1920,1080,,,,,0,1019,,,,,,,,,,,,,,,,,Y,174,star,0,1,,,,,,,,,,,,,,,,repeat,number,NA,j,1.251,Hi,,,,,,2,,,,,,,,high,27,0,27,0,1,,,,,,,,,
297085,2022-11-26_13h14.32.918,vts_reward_expectancy_bt,2022.2.4,MacIntel,60.0024001,Chrome,1920,1080,,,,,0,1019,,,,,,,,,,,,,,,,,D,167,circle,1,1,,,,,,,,,,,,,,,,repeat,number,numRpt,k,1.5801,Hi,,,,,,2,,,,,,,,high,28,0,28,0,1,,,,,,,,,
297085,2022-11-26_13h14.32.918,vts_reward_expectancy_bt,2022.2.4,MacIntel,60.0024001,Chrome,1920,1080,,,,,0,1019,,,,,,,,,,,,,,,,,B,139,triangle,1,0,,,,,,,,,,,,,,,,repeat,number,numRpt,j,1.038,Hi,,,,,,2,,,,,,,,high,29,0,29,0,1,,,,,,,,,
297085,2022-11-26_13h14.32.918,vts_reward_expectancy_bt,2022.2.4,MacIntel,60.0024001,Chrome,1920,1080,,,,,1,1020,,,,,,,,,,,,,,,,,W,181,hexagon,1,0,,,,,,,,,,,,,,,,repeat,number,numRpt,k,0.1244,Lo,,,,,,2,,,,,,,,high,30,0,30,0,1,,,,,,,,,
297085,2022-11-26_13h14.32.918,vts_reward_expectancy_bt,2022.2.4,MacIntel,60.0024001,Chrome,1920,1080,,,,,1,1021,,,,,,,,,,,,,,,,,H,125,star,1,0,,,,,,,,,,,,,,,,repeat,number,numRpt,j,0.5847,Lo,,,,,,2,,,,,,,,high,31,0,31,0,1,,,,,,,,,
297085,2022-11-26_13h14.32.918,vts_reward_expectancy_bt,2022.2.4,MacIntel,60.0024001,Chrome,1920,1080,,,,,0,1021,,,,,,,,,,,,,,,,,D,174,circle,0,0,,,,,,,,,,,,,,,,repeat,number,NA,j,0.0152,Lo,,,,,,3,,,,,,space,2.2924,high,0,0,0,0,1,,,,,,,,,
297085,2022-11-26_13h14.32.918,vts_reward_expectancy_bt,2022.2.4,MacIntel,60.0024001,Chrome,1920,1080,,,,,0,1021,,,,,,,,,,,,,,,,,U,181,triangle,0,1,,,,,,,,,,,,,,,,repeat,number,NA,j,0.1448,Lo,,,,,,3,,,,,,,,high,1,0,1,0,1,,,,,,,,,
297085,2022-11-26_13h14.32.918,vts_reward_expectancy_bt,2022.2.4,MacIntel,60.0024001,Chrome,1920,1080,,,,,10,1031,,,,,,,,,,,,,,,,,W,132,star,1,1,,,,,,,,,,,,,,,,repeat,number,numRpt,j,0.0985,Lo,,,,,,3,,,,,,,,high,2,0,2,0,1,,,,,,,,,
297085,2022-11-26_13h14.32.918,vts_reward_expectancy_bt,2022.2.4,MacIntel,60.0024001,Chrome,1920,1080,,,,,1,1032,,,,,,,,,,,,,,,,,H,125,hexagon,1,0,,,,,,,,,,,,,,,,repeat,number,numRpt,j,0.087,Lo,,,,,,3,,,,,,,,high,3,0,3,0,1,,,,,,,,,
297085,2022-11-26_13h14.32.918,vts_reward_expectancy_bt,2022.2.4,MacIntel,60.0024001,Chrome,1920,1080,,,,,0,1032,,,,,,,,,,,,,,,,,Y,146,circle,0,0,,,,,,,,,,,,,,,,repeat,number,NA,k,0.0046,Lo,,,,,,3,,,,,,,,high,4,0,4,0,1,,,,,,,,,
297085,2022-11-26_13h14.32.918,vts_reward_expectancy_bt,2022.2.4,MacIntel,60.0024001,Chrome,1920,1080,,,,,0,1032,,,,,,,,,,,,,,,,,F,160,triangle,0,1,,,,,,,,,,,,,,,,repeat,number,NA,j,0.1685,Lo,,,,,,3,,,,,,,,high,5,0,5,0,1,,,,,,,,,
297085,2022-11-26_13h14.32.918,vts_reward_expectancy_bt,2022.2.4,MacIntel,60.0024001,Chrome,1920,1080,,,,,0,1032,,,,,,,,,,,,,,,,,B,167,star,0,1,,,,,,,,,,,,,,,,repeat,number,NA,j,0.164,Lo,,,,,,3,,,,,,,,high,6,0,6,0,1,,,,,,,,,
297085,2022-11-26_13h14.32.918,vts_reward_expectancy_bt,2022.2.4,MacIntel,60.0024001,Chrome,1920,1080,,,,,1,1033,,,,,,,,,,,,,,,,,S,139,hexagon,1,1,,,,,,,,,,,,,,,,repeat,number,numRpt,j,0.1226,Lo,,,,,,3,,,,,,,,high,7,0,7,0,1,,,,,,,,,
297085,2022-11-26_13h14.32.918,vts_reward_expectancy_bt,2022.2.4,MacIntel,60.0024001,Chrome,1920,1080,,,,,10,1043,,,,,,,,,,,,,,,,,D,174,triangle,1,0,,,,,,,,,,,,,,,,repeat,number,numRpt,k,0.4782,Hi,,,,,,3,,,,,,,,high,8,0,8,0,1,,,,,,,,,
297085,2022-11-26_13h14.32.918,vts_reward_expectancy_bt,2022.2.4,MacIntel,60.0024001,Chrome,1920,1080,,,,,0,1043,,,,,,,,,,,,,,,,,U,181,hexagon,0,0,,,,,,,,,,,,,,,,repeat,number,NA,j,0.1508,Hi,,,,,,3,,,,,,,,high,9,0,9,0,1,,,,,,,,,
297085,2022-11-26_13h14.32.918,vts_reward_expectancy_bt,2022.2.4,MacIntel,60.0024001,Chrome,1920,1080,,,,,1,1044,,,,,,,,,,,,,,,,,W,132,star,1,1,,,,,,,,,,,,,,,,repeat,number,numRpt,j,0.0003,Lo,,,,,,3,,,,,,,,high,10,0,10,0,1,,,,,,,,,
297085,2022-11-26_13h14.32.918,vts_reward_expectancy_bt,2022.2.4,MacIntel,60.0024001,Chrome,1920,1080,,,,,10,1054,,,,,,,,,,,,,,,,,H,125,circle,1,0,,,,,,,,,,,,,,,,repeat,number,numRpt,j,0.03,Hi,,,,,,3,,,,,,,,high,11,0,11,0,1,,,,,,,,,
297085,2022-11-26_13h14.32.918,vts_reward_expectancy_bt,2022.2.4,MacIntel,60.0024001,Chrome,1920,1080,,,,,0,1054,,,,,,,,,,,,,,,,,Y,146,triangle,1,0,,,,,,,,,,,,,,,,repeat,number,numRpt,j,0.6153,Hi,,,,,,3,,,,,,,,high,12,0,12,0,1,,,,,,,,,
297085,2022-11-26_13h14.32.918,vts_reward_expectancy_bt,2022.2.4,MacIntel,60.0024001,Chrome,1920,1080,,,,,0,1054,,,,,,,,,,,,,,,,,F,160,circle,1,0,,,,,,,,,,,,,,,,repeat,number,numRpt,k,0.6631,Hi,,,,,,3,,,,,,,,high,13,0,13,0,1,,,,,,,,,
297085,2022-11-26_13h14.32.918,vts_reward_expectancy_bt,2022.2.4,MacIntel,60.0024001,Chrome,1920,1080,,,,,1,1055,,,,,,,,,,,,,,,,,B,167,hexagon,1,0,,,,,,,,,,,,,,,,repeat,number,numRpt,k,0.0003,Lo,,,,,,3,,,,,,,,high,14,0,14,0,1,,,,,,,,,
297085,2022-11-26_13h14.32.918,vts_reward_expectancy_bt,2022.2.4,MacIntel,60.0024001,Chrome,1920,1080,,,,,0,1055,,,,,,,,,,,,,,,,,S,139,star,0,0,,,,,,,,,,,,,,,,repeat,number,NA,k,0.3729,Lo,,,,,,3,,,,,,,,high,15,0,15,0,1,,,,,,,,,
297085,2022-11-26_13h14.32.918,vts_reward_expectancy_bt,2022.2.4,MacIntel,60.0024001,Chrome,1920,1080,,,,,10,1065,,,,,,,,,,,,,,,,,W,125,circle,1,1,,,,,,,,,,,,,,,,repeat,number,numRpt,j,0.0628,Hi,,,,,,3,,,,,,,,high,16,0,16,0,1,,,,,,,,,
297085,2022-11-26_13h14.32.918,vts_reward_expectancy_bt,2022.2.4,MacIntel,60.0024001,Chrome,1920,1080,,,,,1,1066,,,,,,,,,,,,,,,,,B,160,hexagon,1,0,,,,,,,,,,,,,,,,repeat,number,numRpt,k,0.1829,Lo,,,,,,3,,,,,,,,high,17,0,17,0,1,,,,,,,,,
297085,2022-11-26_13h14.32.918,vts_reward_expectancy_bt,2022.2.4,MacIntel,60.0024001,Chrome,1920,1080,,,,,0,1066,,,,,,,,,,,,,,,,,F,167,triangle,0,0,,,,,,,,,,,,,,,,repeat,number,NA,j,0.0758,Lo,,,,,,3,,,,,,,,high,18,0,18,0,1,,,,,,,,,
297085,2022-11-26_13h14.32.918,vts_reward_expectancy_bt,2022.2.4,MacIntel,60.0024001,Chrome,1920,1080,,,,,1,1067,,,,,,,,,,,,,,,,,S,146,star,1,1,,,,,,,,,,,,,,,,repeat,number,numRpt,j,0.5801,Lo,,,,,,3,,,,,,,,high,19,0,19,0,1,,,,,,,,,
297085,2022-11-26_13h14.32.918,vts_reward_expectancy_bt,2022.2.4,MacIntel,60.0024001,Chrome,1920,1080,,,,,1,1068,,,,,,,,,,,,,,,,,H,132,star,1,0,,,,,,,,,,,,,,,,repeat,number,numRpt,j,0.4564,Lo,,,,,,3,,,,,,,,high,20,0,20,0,1,,,,,,,,,
297085,2022-11-26_13h14.32.918,vts_reward_expectancy_bt,2022.2.4,MacIntel,60.0024001,Chrome,1920,1080,,,,,1,1069,,,,,,,,,,,,,,,,,U,181,hexagon,1,0,,,,,,,,,,,,,,,,repeat,number,numRpt,k,0.5045,Lo,,,,,,3,,,,,,,,high,21,0,21,0,1,,,,,,,,,
297085,2022-11-26_13h14.32.918,vts_reward_expectancy_bt,2022.2.4,MacIntel,60.0024001,Chrome,1920,1080,,,,,10,1079,,,,,,,,,,,,,,,,,D,174,triangle,1,0,,,,,,,,,,,,,,,,repeat,number,numRpt,k,0.4793,Hi,,,,,,3,,,,,,,,high,22,0,22,0,1,,,,,,,,,
297085,2022-11-26_13h14.32.918,vts_reward_expectancy_bt,2022.2.4,MacIntel,60.0024001,Chrome,1920,1080,,,,,0,1079,,,,,,,,,,,,,,,,,Y,139,circle,1,0,,,,,,,,,,,,,,,,repeat,number,numRpt,j,0.6311,Hi,,,,,,3,,,,,,,,high,23,0,23,0,1,,,,,,,,,
297085,2022-11-26_13h14.32.918,vts_reward_expectancy_bt,2022.2.4,MacIntel,60.0024001,Chrome,1920,1080,,,,,1,1080,,,,,,,,,,,,,,,,,D,160,star,1,0,,,,,,,,,,,,,,,,repeat,number,numRpt,k,0.7926,Lo,,,,,,3,,,,,,,,high,24,0,24,0,1,,,,,,,,,
297085,2022-11-26_13h14.32.918,vts_reward_expectancy_bt,2022.2.4,MacIntel,60.0024001,Chrome,1920,1080,,,,,0,1080,,,,,,,,,,,,,,,,,F,174,triangle,1,0,,,,,,,,,,,,,,,,repeat,number,numRpt,k,1.1229,Hi,,,,,,3,,,,,,,,high,25,0,25,0,1,,,,,,,,,
297085,2022-11-26_13h14.32.918,vts_reward_expectancy_bt,2022.2.4,MacIntel,60.0024001,Chrome,1920,1080,,,,,0,1080,,,,,,,,,,,,,,,,,W,139,circle,1,0,,,,,,,,,,,,,,,,repeat,number,numRpt,j,0.8802,Hi,,,,,,3,,,,,,,,high,26,0,26,0,1,,,,,,,,,
297085,2022-11-26_13h14.32.918,vts_reward_expectancy_bt,2022.2.4,MacIntel,60.0024001,Chrome,1920,1080,,,,,0,1080,,,,,,,,,,,,,,,,,B,167,hexagon,0,0,,,,,,,,,,,,,,,,repeat,number,NA,j,0.192,Hi,,,,,,3,,,,,,,,high,27,0,27,0,1,,,,,,,,,
297085,2022-11-26_13h14.32.918,vts_reward_expectancy_bt,2022.2.4,MacIntel,60.0024001,Chrome,1920,1080,,,,,1,1081,,,,,,,,,,,,,,,,,S,132,circle,1,1,,,,,,,,,,,,,,,,repeat,number,numRpt,j,0.0481,Hi,,,,,,3,,,,,,,,high,28,0,28,0,1,,,,,,,,,
297085,2022-11-26_13h14.32.918,vts_reward_expectancy_bt,2022.2.4,MacIntel,60.0024001,Chrome,1920,1080,,,,,10,1091,,,,,,,,,,,,,,,,,Y,125,triangle,1,0,,,,,,,,,,,,,,,,repeat,number,numRpt,j,0.3997,Hi,,,,,,3,,,,,,,,high,29,0,29,0,1,,,,,,,,,
297085,2022-11-26_13h14.32.918,vts_reward_expectancy_bt,2022.2.4,MacIntel,60.0024001,Chrome,1920,1080,,,,,1,1092,,,,,,,,,,,,,,,,,U,181,star,1,0,,,,,,,,,,,,,,,,repeat,number,numRpt,k,0.5221,Lo,,,,,,3,,,,,,,,high,30,0,30,0,1,,,,,,,,,
297085,2022-11-26_13h14.32.918,vts_reward_expectancy_bt,2022.2.4,MacIntel,60.0024001,Chrome,1920,1080,,,,,0,1092,,,,,,,,,,,,,,,,,H,146,hexagon,0,0,,,,,,,,,,,,,,,,repeat,number,NA,k,0.3174,Lo,,,,,,3,,,,,,,,high,31,0,31,0,1,,,,,,,,,
297085,2022-11-26_13h14.32.918,vts_reward_expectancy_bt,2022.2.4,MacIntel,60.0024001,Chrome,1920,1080,,,,,0,1092,,,,,,,,,,,,,,,,,F,167,circle,1,1,,,,,,,,,,,,,,,,repeat,number,numRpt,k,0.7035,Hi,,,,,,4,,,,,,space,1.8523,high,0,0,0,0,1,,,,,,,,,
297085,2022-11-26_13h14.32.918,vts_reward_expectancy_bt,2022.2.4,MacIntel,60.0024001,Chrome,1920,1080,,,,,1,1093,,,,,,,,,,,,,,,,,H,132,star,1,0,,,,,,,,,,,,,,,,switch,letter,lettSwt,d,0.6423,Lo,,,,,,4,,,,,,,,high,1,0,1,0,1,,,,,,,,,
297085,2022-11-26_13h14.32.918,vts_reward_expectancy_bt,2022.2.4,MacIntel,60.0024001,Chrome,1920,1080,,,,,10,1103,,,,,,,,,,,,,,,,,B,174,triangle,1,0,,,,,,,,,,,,,,,,repeat,letter,lettRpt,d,0.4183,Hi,,,,,,4,,,,,,,,high,2,0,2,0,1,,,,,,,,,
297085,2022-11-26_13h14.32.918,vts_reward_expectancy_bt,2022.2.4,MacIntel,60.0024001,Chrome,1920,1080,,,,,1,1104,,,,,,,,,,,,,,,,,U,181,hexagon,1,0,,,,,,,,,,,,,,,,repeat,letter,lettRpt,f,0.6506,Lo,,,,,,4,,,,,,,,high,3,0,3,0,1,,,,,,,,,
297085,2022-11-26_13h14.32.918,vts_reward_expectancy_bt,2022.2.4,MacIntel,60.0024001,Chrome,1920,1080,,,,,10,1114,,,,,,,,,,,,,,,,,W,146,circle,1,0,,,,,,,,,,,,,,,,repeat,letter,lettRpt,f,0.5181,Hi,,,,,,4,,,,,,,,high,4,0,4,0,1,,,,,,,,,
297085,2022-11-26_13h14.32.918,vts_reward_expectancy_bt,2022.2.4,MacIntel,60.0024001,Chrome,1920,1080,,,,,1,1115,,,,,,,,,,,,,,,,,D,125,star,1,0,,,,,,,,,,,,,,,,repeat,letter,lettRpt,d,0.6213,Lo,,,,,,4,,,,,,,,high,5,0,5,0,1,,,,,,,,,
297085,2022-11-26_13h14.32.918,vts_reward_expectancy_bt,2022.2.4,MacIntel,60.0024001,Chrome,1920,1080,,,,,10,1125,,,,,,,,,,,,,,,,,S,139,triangle,1,0,,,,,,,,,,,,,,,,repeat,letter,lettRpt,f,0.4992,Hi,,,,,,4,,,,,,,,high,6,0,6,0,1,,,,,,,,,
297085,2022-11-26_13h14.32.918,vts_reward_expectancy_bt,2022.2.4,MacIntel,60.0024001,Chrome,1920,1080,,,,,1,1126,,,,,,,,,,,,,,,,,Y,160,hexagon,1,0,,,,,,,,,,,,,,,,repeat,letter,lettRpt,f,0.5253,Lo,,,,,,4,,,,,,,,high,7,0,7,0,1,,,,,,,,,
297085,2022-11-26_13h14.32.918,vts_reward_expectancy_bt,2022.2.4,MacIntel,60.0024001,Chrome,1920,1080,,,,,1,1127,,,,,,,,,,,,,,,,,F,167,hexagon,1,0,,,,,,,,,,,,,,,,repeat,letter,lettRpt,d,0.576,Lo,,,,,,4,,,,,,,,high,8,0,8,0,1,,,,,,,,,
297085,2022-11-26_13h14.32.918,vts_reward_expectancy_bt,2022.2.4,MacIntel,60.0024001,Chrome,1920,1080,,,,,10,1137,,,,,,,,,,,,,,,,,H,132,circle,1,0,,,,,,,,,,,,,,,,repeat,letter,lettRpt,d,0.5561,Hi,,,,,,4,,,,,,,,high,9,0,9,0,1,,,,,,,,,
297085,2022-11-26_13h14.32.918,vts_reward_expectancy_bt,2022.2.4,MacIntel,60.0024001,Chrome,1920,1080,,,,,1,1138,,,,,,,,,,,,,,,,,B,174,star,1,0,,,,,,,,,,,,,,,,repeat,letter,lettRpt,d,0.4982,Lo,,,,,,4,,,,,,,,high,10,0,10,0,1,,,,,,,,,
297085,2022-11-26_13h14.32.918,vts_reward_expectancy_bt,2022.2.4,MacIntel,60.0024001,Chrome,1920,1080,,,,,0,1138,,,,,,,,,,,,,,,,,U,181,triangle,0,0,,,,,,,,,,,,,,,,repeat,letter,NA,d,0.6664,Lo,,,,,,4,,,,,,,,high,11,0,11,0,1,,,,,,,,,
297085,2022-11-26_13h14.32.918,vts_reward_expectancy_bt,2022.2.4,MacIntel,60.0024001,Chrome,1920,1080,,,,,10,1148,,,,,,,,,,,,,,,,,W,146,star,1,1,,,,,,,,,,,,,,,,repeat,letter,lettRpt,f,0.5402,Lo,,,,,,4,,,,,,,,high,12,0,12,0,1,,,,,,,,,
297085,2022-11-26_13h14.32.918,vts_reward_expectancy_bt,2022.2.4,MacIntel,60.0024001,Chrome,1920,1080,,,,,1,1149,,,,,,,,,,,,,,,,,D,125,triangle,1,0,,,,,,,,,,,,,,,,repeat,letter,lettRpt,d,0.5897,Hi,,,,,,4,,,,,,,,high,13,0,13,0,1,,,,,,,,,
297085,2022-11-26_13h14.32.918,vts_reward_expectancy_bt,2022.2.4,MacIntel,60.0024001,Chrome,1920,1080,,,,,1,1150,,,,,,,,,,,,,,,,,S,139,hexagon,1,0,,,,,,,,,,,,,,,,repeat,letter,lettRpt,f,0.6128,Lo,,,,,,4,,,,,,,,high,14,0,14,0,1,,,,,,,,,
297085,2022-11-26_13h14.32.918,vts_reward_expectancy_bt,2022.2.4,MacIntel,60.0024001,Chrome,1920,1080,,,,,10,1160,,,,,,,,,,,,,,,,,Y,160,circle,1,0,,,,,,,,,,,,,,,,repeat,letter,lettRpt,f,0.4814,Hi,,,,,,4,,,,,,,,high,15,0,15,0,1,,,,,,,,,
297085,2022-11-26_13h14.32.918,vts_reward_expectancy_bt,2022.2.4,MacIntel,60.0024001,Chrome,1920,1080,,,,,10,1170,,,,,,,,,,,,,,,,,Y,132,circle,1,0,,,,,,,,,,,,,,,,repeat,letter,lettRpt,f,0.5484,Hi,,,,,,4,,,,,,,,high,16,0,16,0,1,,,,,,,,,
297085,2022-11-26_13h14.32.918,vts_reward_expectancy_bt,2022.2.4,MacIntel,60.0024001,Chrome,1920,1080,,,,,1,1171,,,,,,,,,,,,,,,,,U,181,star,1,0,,,,,,,,,,,,,,,,repeat,letter,lettRpt,f,0.5852,Lo,,,,,,4,,,,,,,,high,17,0,17,0,1,,,,,,,,,
297085,2022-11-26_13h14.32.918,vts_reward_expectancy_bt,2022.2.4,MacIntel,60.0024001,Chrome,1920,1080,,,,,1,1172,,,,,,,,,,,,,,,,,B,125,hexagon,1,0,,,,,,,,,,,,,,,,repeat,letter,lettRpt,d,0.5571,Lo,,,,,,4,,,,,,,,high,18,0,18,0,1,,,,,,,,,
297085,2022-11-26_13h14.32.918,vts_reward_expectancy_bt,2022.2.4,MacIntel,60.0024001,Chrome,1920,1080,,,,,0,1172,,,,,,,,,,,,,,,,,F,174,triangle,0,0,,,,,,,,,,,,,,,,repeat,letter,NA,f,0.4548,Lo,,,,,,4,,,,,,,,high,19,0,19,0,1,,,,,,,,,
297085,2022-11-26_13h14.32.918,vts_reward_expectancy_bt,2022.2.4,MacIntel,60.0024001,Chrome,1920,1080,,,,,10,1182,,,,,,,,,,,,,,,,,S,167,triangle,1,1,,,,,,,,,,,,,,,,repeat,letter,lettRpt,f,0.5509,Hi,,,,,,4,,,,,,,,high,20,0,20,0,1,,,,,,,,,
297085,2022-11-26_13h14.32.918,vts_reward_expectancy_bt,2022.2.4,MacIntel,60.0024001,Chrome,1920,1080,,,,,10,1192,,,,,,,,,,,,,,,,,W,160,hexagon,1,0,,,,,,,,,,,,,,,,repeat,letter,lettRpt,f,0.7428,Lo,,,,,,4,,,,,,,,high,21,0,21,0,1,,,,,,,,,
297085,2022-11-26_13h14.32.918,vts_reward_expectancy_bt,2022.2.4,MacIntel,60.0024001,Chrome,1920,1080,,,,,1,1193,,,,,,,,,,,,,,,,,D,139,star,1,0,,,,,,,,,,,,,,,,repeat,letter,lettRpt,d,0.5265,Lo,,,,,,4,,,,,,,,high,22,0,22,0,1,,,,,,,,,
297085,2022-11-26_13h14.32.918,vts_reward_expectancy_bt,2022.2.4,MacIntel,60.0024001,Chrome,1920,1080,,,,,10,1203,,,,,,,,,,,,,,,,,H,146,circle,1,0,,,,,,,,,,,,,,,,switch,number,numSwt,j,0.5399,Hi,,,,,,4,,,,,,,,high,23,0,23,0,1,,,,,,,,,
297085,2022-11-26_13h14.32.918,vts_reward_expectancy_bt,2022.2.4,MacIntel,60.0024001,Chrome,1920,1080,,,,,1,1204,,,,,,,,,,,,,,,,,W,174,hexagon,1,0,,,,,,,,,,,,,,,,switch,letter,lettSwt,f,0.9236,Lo,,,,,,4,,,,,,,,high,24,0,24,0,1,,,,,,,,,
297085,2022-11-26_13h14.32.918,vts_reward_expectancy_bt,2022.2.4,MacIntel,60.0024001,Chrome,1920,1080,,,,,1,1205,,,,,,,,,,,,,,,,,D,146,triangle,1,0,,,,,,,,,,,,,,,,repeat,letter,lettRpt,d,0.5675,Hi,,,,,,4,,,,,,,,high,25,0,25,0,1,,,,,,,,,
297085,2022-11-26_13h14.32.918,vts_reward_expectancy_bt,2022.2.4,MacIntel,60.0024001,Chrome,1920,1080,,,,,1,1206,,,,,,,,,,,,,,,,,U,167,circle,1,0,,,,,,,,,,,,,,,,repeat,letter,lettRpt,f,0.6662,Hi,,,,,,4,,,,,,,,high,26,0,26,0,1,,,,,,,,,
297085,2022-11-26_13h14.32.918,vts_reward_expectancy_bt,2022.2.4,MacIntel,60.0024001,Chrome,1920,1080,,,,,1,1207,,,,,,,,,,,,,,,,,B,160,star,1,0,,,,,,,,,,,,,,,,repeat,letter,lettRpt,d,0.5406,Lo,,,,,,4,,,,,,,,high,27,0,27,0,1,,,,,,,,,
297085,2022-11-26_13h14.32.918,vts_reward_expectancy_bt,2022.2.4,MacIntel,60.0024001,Chrome,1920,1080,,,,,10,1217,,,,,,,,,,,,,,,,,F,125,triangle,1,0,,,,,,,,,,,,,,,,switch,number,numSwt,j,0.6088,Hi,,,,,,4,,,,,,,,high,28,0,28,0,1,,,,,,,,,
297085,2022-11-26_13h14.32.918,vts_reward_expectancy_bt,2022.2.4,MacIntel,60.0024001,Chrome,1920,1080,,,,,1,1218,,,,,,,,,,,,,,,,,H,181,star,1,0,,,,,,,,,,,,,,,,switch,letter,lettSwt,d,0.8509,Lo,,,,,,4,,,,,,,,high,29,0,29,0,1,,,,,,,,,
297085,2022-11-26_13h14.32.918,vts_reward_expectancy_bt,2022.2.4,MacIntel,60.0024001,Chrome,1920,1080,,,,,1,1219,,,,,,,,,,,,,,,,,S,132,circle,1,0,,,,,,,,,,,,,,,,repeat,letter,lettRpt,f,1.2116,Hi,,,,,,4,,,,,,,,high,30,0,30,0,1,,,,,,,,,
297085,2022-11-26_13h14.32.918,vts_reward_expectancy_bt,2022.2.4,MacIntel,60.0024001,Chrome,1920,1080,,,,,10,1229,,,,,,,,,,,,,,,,,Y,139,hexagon,1,0,,,,,,,,,,,,,,,,switch,number,numSwt,j,0.8315,Lo,,,,,,4,,,,,,,,high,31,0,31,0,1,,,,,,,,,
297085,2022-11-26_13h14.32.918,vts_reward_expectancy_bt,2022.2.4,MacIntel,60.0024001,Chrome,1920,1080,,,,,0,1229,,,,,,,,,,,,,,,,,S,160,triangle,0,0,,,,,,,,,,,,,,,,repeat,number,NA,j,0.4529,Lo,,,,,,5,,,,,,space,4.5514,high,0,0,0,0,1,,,,,,,,,
297085,2022-11-26_13h14.32.918,vts_reward_expectancy_bt,2022.2.4,MacIntel,60.0024001,Chrome,1920,1080,,,,,1,1230,,,,,,,,,,,,,,,,,Y,174,hexagon,1,1,,,,,,,,,,,,,,,,repeat,number,numRpt,k,0.7813,Lo,,,,,,5,,,,,,,,high,1,0,1,0,1,,,,,,,,,
297085,2022-11-26_13h14.32.918,vts_reward_expectancy_bt,2022.2.4,MacIntel,60.0024001,Chrome,1920,1080,,,,,1,1231,,,,,,,,,,,,,,,,,D,125,star,1,0,,,,,,,,,,,,,,,,repeat,number,numRpt,j,0.4647,Lo,,,,,,5,,,,,,,,high,2,0,2,0,1,,,,,,,,,
297085,2022-11-26_13h14.32.918,vts_reward_expectancy_bt,2022.2.4,MacIntel,60.0024001,Chrome,1920,1080,,,,,0,1231,,,,,,,,,,,,,,,,,F,181,circle,0,0,,,,,,,,,,,,,,,,repeat,number,NA,j,0.7619,Lo,,,,,,5,,,,,,,,high,3,0,3,0,1,,,,,,,,,
297085,2022-11-26_13h14.32.918,vts_reward_expectancy_bt,2022.2.4,MacIntel,60.0024001,Chrome,1920,1080,,,,,10,1241,,,,,,,,,,,,,,,,,W,167,triangle,1,1,,,,,,,,,,,,,,,,repeat,number,numRpt,k,0.0478,Hi,,,,,,5,,,,,,,,high,4,0,4,0,1,,,,,,,,,
297085,2022-11-26_13h14.32.918,vts_reward_expectancy_bt,2022.2.4,MacIntel,60.0024001,Chrome,1920,1080,,,,,0,1241,,,,,,,,,,,,,,,,,U,139,hexagon,0,0,,,,,,,,,,,,,,,,repeat,number,NA,k,0.0941,Hi,,,,,,5,,,,,,,,high,5,0,5,0,1,,,,,,,,,
297085,2022-11-26_13h14.32.918,vts_reward_expectancy_bt,2022.2.4,MacIntel,60.0024001,Chrome,1920,1080,,,,,1,1242,,,,,,,,,,,,,,,,,B,146,star,1,1,,,,,,,,,,,,,,,,repeat,number,numRpt,j,0.5769,Lo,,,,,,5,,,,,,,,high,6,0,6,0,1,,,,,,,,,
297085,2022-11-26_13h14.32.918,vts_reward_expectancy_bt,2022.2.4,MacIntel,60.0024001,Chrome,1920,1080,,,,,0,1242,,,,,,,,,,,,,,,,,H,132,circle,1,0,,,,,,,,,,,,,,,,switch,letter,lettSwt,d,1.2404,Hi,,,,,,5,,,,,,,,high,7,0,7,0,1,,,,,,,,,
297085,2022-11-26_13h14.32.918,vts_reward_expectancy_bt,2022.2.4,MacIntel,60.0024001,Chrome,1920,1080,,,,,1,1243,,,,,,,,,,,,,,,,,S,160,hexagon,1,0,,,,,,,,,,,,,,,,repeat,letter,lettRpt,f,1.4635,Lo,,,,,,5,,,,,,,,high,8,0,8,0,1,,,,,,,,,
297085,2022-11-26_13h14.32.918,vts_reward_expectancy_bt,2022.2.4,MacIntel,60.0024001,Chrome,1920,1080,,,,,0,1243,,,,,,,,,,,,,,,,,Y,174,circle,1,0,,,,,,,,,,,,,,,,repeat,letter,lettRpt,f,0.6624,Hi,,,,,,5,,,,,,,,high,9,0,9,0,1,,,,,,,,,
297085,2022-11-26_13h14.32.918,vts_reward_expectancy_bt,2022.2.4,MacIntel,60.0024001,Chrome,1920,1080,,,,,10,1253,,,,,,,,,,,,,,,,,D,125,triangle,1,0,,,,,,,,,,,,,,,,repeat,letter,lettRpt,d,0.4759,Hi,,,,,,5,,,,,,,,high,10,0,10,0,1,,,,,,,,,
297085,2022-11-26_13h14.32.918,vts_reward_expectancy_bt,2022.2.4,MacIntel,60.0024001,Chrome,1920,1080,,,,,1,1254,,,,,,,,,,,,,,,,,F,181,star,1,0,,,,,,,,,,,,,,,,repeat,letter,lettRpt,d,0.881,Lo,,,,,,5,,,,,,,,high,11,0,11,0,1,,,,,,,,,
297085,2022-11-26_13h14.32.918,vts_reward_expectancy_bt,2022.2.4,MacIntel,60.0024001,Chrome,1920,1080,,,,,10,1264,,,,,,,,,,,,,,,,,W,167,circle,1,0,,,,,,,,,,,,,,,,repeat,letter,lettRpt,f,0.5285,Hi,,,,,,5,,,,,,,,high,12,0,12,0,1,,,,,,,,,
297085,2022-11-26_13h14.32.918,vts_reward_expectancy_bt,2022.2.4,MacIntel,60.0024001,Chrome,1920,1080,,,,,10,1274,,,,,,,,,,,,,,,,,U,139,star,1,0,,,,,,,,,,,,,,,,repeat,letter,lettRpt,f,0.5721,Lo,,,,,,5,,,,,,,,high,13,0,13,0,1,,,,,,,,,
297085,2022-11-26_13h14.32.918,vts_reward_expectancy_bt,2022.2.4,MacIntel,60.0024001,Chrome,1920,1080,,,,,10,1284,,,,,,,,,,,,,,,,,B,146,triangle,1,0,,,,,,,,,,,,,,,,repeat,letter,lettRpt,d,0.4872,Hi,,,,,,5,,,,,,,,high,14,0,14,0,1,,,,,,,,,
297085,2022-11-26_13h14.32.918,vts_reward_expectancy_bt,2022.2.4,MacIntel,60.0024001,Chrome,1920,1080,,,,,1,1285,,,,,,,,,,,,,,,,,H,132,hexagon,1,0,,,,,,,,,,,,,,,,repeat,letter,lettRpt,d,0.8924,Lo,,,,,,5,,,,,,,,high,15,0,15,0,1,,,,,,,,,
297085,2022-11-26_13h14.32.918,vts_reward_expectancy_bt,2022.2.4,MacIntel,60.0024001,Chrome,1920,1080,,,,,0,1285,,,,,,,,,,,,,,,,,Y,160,circle,0,0,,,,,,,,,,,,,,,,repeat,letter,NA,d,0.6159,Lo,,,,,,5,,,,,,,,high,16,0,16,0,1,,,,,,,,,
297085,2022-11-26_13h14.32.918,vts_reward_expectancy_bt,2022.2.4,MacIntel,60.0024001,Chrome,1920,1080,,,,,1,1286,,,,,,,,,,,,,,,,,B,167,star,1,1,,,,,,,,,,,,,,,,repeat,letter,lettRpt,d,0.6503,Lo,,,,,,5,,,,,,,,high,17,0,17,0,1,,,,,,,,,
297085,2022-11-26_13h14.32.918,vts_reward_expectancy_bt,2022.2.4,MacIntel,60.0024001,Chrome,1920,1080,,,,,0,1286,,,,,,,,,,,,,,,,,S,146,triangle,0,0,,,,,,,,,,,,,,,,repeat,letter,NA,d,0.4119,Lo,,,,,,5,,,,,,,,high,18,0,18,0,1,,,,,,,,,
297085,2022-11-26_13h14.32.918,vts_reward_expectancy_bt,2022.2.4,MacIntel,60.0024001,Chrome,1920,1080,,,,,1,1287,,,,,,,,,,,,,,,,,F,139,hexagon,1,1,,,,,,,,,,,,,,,,repeat,letter,lettRpt,d,0.832,Lo,,,,,,5,,,,,,,,high,19,0,19,0,1,,,,,,,,,
297085,2022-11-26_13h14.32.918,vts_reward_expectancy_bt,2022.2.4,MacIntel,60.0024001,Chrome,1920,1080,,,,,0,1287,,,,,,,,,,,,,,,,,U,181,circle,1,0,,,,,,,,,,,,,,,,repeat,letter,lettRpt,f,0.7182,Hi,,,,,,5,,,,,,,,high,20,0,20,0,1,,,,,,,,,
297085,2022-11-26_13h14.32.918,vts_reward_expectancy_bt,2022.2.4,MacIntel,60.0024001,Chrome,1920,1080,,,,,10,1297,,,,,,,,,,,,,,,,,D,125,star,1,0,,,,,,,,,,,,,,,,repeat,letter,lettRpt,d,0.8233,Lo,,,,,,5,,,,,,,,high,21,0,21,0,1,,,,,,,,,
297085,2022-11-26_13h14.32.918,vts_reward_expectancy_bt,2022.2.4,MacIntel,60.0024001,Chrome,1920,1080,,,,,0,1297,,,,,,,,,,,,,,,,,H,174,triangle,1,0,,,,,,,,,,,,,,,,repeat,letter,lettRpt,d,0.5575,Hi,,,,,,5,,,,,,,,high,22,0,22,0,1,,,,,,,,,
297085,2022-11-26_13h14.32.918,vts_reward_expectancy_bt,2022.2.4,MacIntel,60.0024001,Chrome,1920,1080,,,,,1,1298,,,,,,,,,,,,,,,,,W,132,hexagon,1,0,,,,,,,,,,,,,,,,repeat,letter,lettRpt,f,0.6692,Lo,,,,,,5,,,,,,,,high,23,0,23,0,1,,,,,,,,,
297085,2022-11-26_13h14.32.918,vts_reward_expectancy_bt,2022.2.4,MacIntel,60.0024001,Chrome,1920,1080,,,,,10,1308,,,,,,,,,,,,,,,,,Y,139,circle,1,0,,,,,,,,,,,,,,,,repeat,letter,lettRpt,f,0.1231,Hi,,,,,,5,,,,,,,,high,24,0,24,0,1,,,,,,,,,
297085,2022-11-26_13h14.32.918,vts_reward_expectancy_bt,2022.2.4,MacIntel,60.0024001,Chrome,1920,1080,,,,,0,1308,,,,,,,,,,,,,,,,,D,146,star,0,0,,,,,,,,,,,,,,,,repeat,letter,NA,f,0.0309,Hi,,,,,,5,,,,,,,,high,25,0,25,0,1,,,,,,,,,
297085,2022-11-26_13h14.32.918,vts_reward_expectancy_bt,2022.2.4,MacIntel,60.0024001,Chrome,1920,1080,,,,,0,1308,,,,,,,,,,,,,,,,,S,125,hexagon,0,1,,,,,,,,,,,,,,,,repeat,letter,NA,d,0.1214,Hi,,,,,,5,,,,,,,,high,26,0,26,0,1,,,,,,,,,
297085,2022-11-26_13h14.32.918,vts_reward_expectancy_bt,2022.2.4,MacIntel,60.0024001,Chrome,1920,1080,,,,,10,1318,,,,,,,,,,,,,,,,,U,174,triangle,1,1,,,,,,,,,,,,,,,,repeat,letter,lettRpt,f,0.1471,Hi,,,,,,5,,,,,,,,high,27,0,27,0,1,,,,,,,,,
297085,2022-11-26_13h14.32.918,vts_reward_expectancy_bt,2022.2.4,MacIntel,60.0024001,Chrome,1920,1080,,,,,0,1318,,,,,,,,,,,,,,,,,H,181,circle,0,0,,,,,,,,,,,,,,,,repeat,letter,NA,f,0.148,Hi,,,,,,5,,,,,,,,high,28,0,28,0,1,,,,,,,,,
297085,2022-11-26_13h14.32.918,vts_reward_expectancy_bt,2022.2.4,MacIntel,60.0024001,Chrome,1920,1080,,,,,10,1328,,,,,,,,,,,,,,,,,F,132,triangle,1,1,,,,,,,,,,,,,,,,repeat,letter,lettRpt,d,0.1765,Hi,,,,,,5,,,,,,,,high,29,0,29,0,1,,,,,,,,,
297085,2022-11-26_13h14.32.918,vts_reward_expectancy_bt,2022.2.4,MacIntel,60.0024001,Chrome,1920,1080,,,,,1,1329,,,,,,,,,,,,,,,,,W,160,hexagon,1,0,,,,,,,,,,,,,,,,repeat,letter,lettRpt,f,0.0081,Lo,,,,,,5,,,,,,,,high,30,0,30,0,1,,,,,,,,,
297085,2022-11-26_13h14.32.918,vts_reward_expectancy_bt,2022.2.4,MacIntel,60.0024001,Chrome,1920,1080,,,,,0,1329,,,,,,,,,,,,,,,,,B,167,star,0,0,,,,,,,,,,,,,,,,repeat,letter,NA,f,0.165,Lo,,,,,,5,,,,,,,,high,31,0,31,0,1,,,,,,,,,
297085,2022-11-26_13h14.32.918,vts_reward_expectancy_bt,2022.2.4,MacIntel,60.0024001,Chrome,1920,1080,,,,,0,1329,,,,,,,,,,,,,,,,,Y,132,triangle,1,1,,,,,,,,,,,,,,,,repeat,letter,lettRpt,f,0.6213,Hi,,,,,,6,,,,,,space,0.7537,high,0,0,0,0,1,,,,,,,,,
297085,2022-11-26_13h14.32.918,vts_reward_expectancy_bt,2022.2.4,MacIntel,60.0024001,Chrome,1920,1080,,,,,1,1330,,,,,,,,,,,,,,,,,B,174,hexagon,1,0,,,,,,,,,,,,,,,,repeat,letter,lettRpt,d,0.2062,Lo,,,,,,6,,,,,,,,high,1,0,1,0,1,,,,,,,,,
297085,2022-11-26_13h14.32.918,vts_reward_expectancy_bt,2022.2.4,MacIntel,60.0024001,Chrome,1920,1080,,,,,10,1340,,,,,,,,,,,,,,,,,U,160,star,1,0,,,,,,,,,,,,,,,,repeat,letter,lettRpt,f,0.0611,Lo,,,,,,6,,,,,,,,high,2,0,2,0,1,,,,,,,,,
297085,2022-11-26_13h14.32.918,vts_reward_expectancy_bt,2022.2.4,MacIntel,60.0024001,Chrome,1920,1080,,,,,10,1350,,,,,,,,,,,,,,,,,F,139,circle,1,0,,,,,,,,,,,,,,,,repeat,letter,lettRpt,d,0.1217,Hi,,,,,,6,,,,,,,,high,3,0,3,0,1,,,,,,,,,
297085,2022-11-26_13h14.32.918,vts_reward_expectancy_bt,2022.2.4,MacIntel,60.0024001,Chrome,1920,1080,,,,,0,1350,,,,,,,,,,,,,,,,,D,146,triangle,0,0,,,,,,,,,,,,,,,,repeat,letter,NA,f,0.2169,Hi,,,,,,6,,,,,,,,high,4,0,4,0,1,,,,,,,,,
297085,2022-11-26_13h14.32.918,vts_reward_expectancy_bt,2022.2.4,MacIntel,60.0024001,Chrome,1920,1080,,,,,10,1360,,,,,,,,,,,,,,,,,W,181,hexagon,1,1,,,,,,,,,,,,,,,,repeat,letter,lettRpt,f,0.0926,Lo,,,,,,6,,,,,,,,high,5,0,5,0,1,,,,,,,,,
297085,2022-11-26_13h14.32.918,vts_reward_expectancy_bt,2022.2.4,MacIntel,60.0024001,Chrome,1920,1080,,,,,10,1370,,,,,,,,,,,,,,,,,H,125,star,1,0,,,,,,,,,,,,,,,,repeat,letter,lettRpt,d,0.0434,Lo,,,,,,6,,,,,,,,high,6,0,6,0,1,,,,,,,,,
297085,2022-11-26_13h14.32.918,vts_reward_expectancy_bt,2022.2.4,MacIntel,60.0024001,Chrome,1920,1080,,,,,10,1380,,,,,,,,,,,,,,,,,S,167,circle,1,0,,,,,,,,,,,,,,,,repeat,letter,lettRpt,f,0.0037,Hi,,,,,,6,,,,,,,,high,7,0,7,0,1,,,,,,,,,
297085,2022-11-26_13h14.32.918,vts_reward_expectancy_bt,2022.2.4,MacIntel,60.0024001,Chrome,1920,1080,,,,,0,1380,,,,,,,,,,,,,,,,,Y,132,star,0,0,,,,,,,,,,,,,,,,repeat,letter,NA,d,0.0634,Hi,,,,,,6,,,,,,,,high,8,0,8,0,1,,,,,,,,,
297085,2022-11-26_13h14.32.918,vts_reward_expectancy_bt,2022.2.4,MacIntel,60.0024001,Chrome,1920,1080,,,,,1,1381,,,,,,,,,,,,,,,,,B,174,triangle,1,1,,,,,,,,,,,,,,,,repeat,letter,lettRpt,d,0.073,Hi,,,,,,6,,,,,,,,high,9,0,9,0,1,,,,,,,,,
297085,2022-11-26_13h14.32.918,vts_reward_expectancy_bt,2022.2.4,MacIntel,60.0024001,Chrome,1920,1080,,,,,10,1391,,,,,,,,,,,,,,,,,U,160,hexagon,1,0,,,,,,,,,,,,,,,,repeat,letter,lettRpt,f,0.0567,Lo,,,,,,6,,,,,,,,high,10,0,10,0,1,,,,,,,,,
