participant,date,expName,psychopyVersion,OS,frameRate,browser,xResolution,yResolution,key_resp.keys,key_resp.rt,training_resp.keys,training_resp.rt,points_trial,points_cumul,trainBlock,training.thisRepN,training.thisTrialN,training.thisN,training.thisIndex,training.ran,LTriangleOpac,LCircleOpac,LHexagonOpac,LStarOpac,RTriangleOpac,RCircleOpac,RHexagonOpac,RStarOpac,LShape_ID,RShape_ID,curr_topStim,curr_bottStim,curr_shape,acc,E1,target_resp_prac1.keys,target_resp_prac1.rt,pracBlock,task1_prac_trials.thisRepN,task1_prac_trials.thisTrialN,task1_prac_trials.thisN,task1_prac_trials.thisIndex,task1_prac_trials.ran,target_resp_prac2.keys,target_resp_prac2.rt,task2_praac_trials.thisRepN,task2_praac_trials.thisTrialN,task2_praac_trials.thisN,task2_praac_trials.thisIndex,task2_praac_trials.ran,alt,task,condition,target_resp.keys,target_resp.rt,rewCond,vts_practice_trials.thisRepN,vts_practice_trials.thisTrialN,vts_practice_trials.thisN,vts_practice_trials.thisIndex,vts_practice_trials.ran,blockNum,trials_norew.thisRepN,trials_norew.thisTrialN,trials_norew.thisN,trials_norew.thisIndex,trials_norew.ran,key_resp_2.keys,key_resp_2.rt,rewExpectancy,trials_rew.thisRepN,trials_rew.thisTrialN,trials_rew.thisN,trials_rew.thisIndex,trials_rew.ran,Q1,Q2,Q2_text,Q3,Q4,Q5_text,Q5,xRes,yRes
297025,2022-11-25_17h23.20.058,vts_reward_expectancy_bt,2022.2.4,Win32,60.6575276,Chrome,1536,864,,,,,,,,,,,,,,,,,,,,,,,,,,,,,,,,,,,,,,,,,,,,,,,,,,,,,,,,,,,,,,,,,,,,,,,,,,,,
297025,2022-11-25_17h23.20.058,vts_reward_expectancy_bt,2022.2.4,Win32,60.6575276,Chrome,1536,864,space,12.5657,,,,,,,,,,,,,,,,,,,,,,,,,,,,,,,,,,,,,,,,,,,,,,,,,,,,,,,,,,,,,,,,,,,,,,,,,,
297025,2022-11-25_17h23.20.058,vts_reward_expectancy_bt,2022.2.4,Win32,60.6575276,Chrome,1536,864,,,,,,,,,,,,,,,,,,,,,,,,,,,,,,,,,,,,,,,,,,,,,,,,,,,,,,,,,,,,,,,,,,,,,,,,,,,,
297025,2022-11-25_17h23.20.058,vts_reward_expectancy_bt,2022.2.4,Win32,60.6575276,Chrome,1536,864,,,a,2.3419,1,1,0,0,0,0,6,1,0,0,1,0,1,0,0,0,hexagon,triangle,,,,,,,,,,,,,,,,,,,,,,,,,,,,,,,,,,,,,,,,,,,,,,,,,,,,,,
297025,2022-11-25_17h23.20.058,vts_reward_expectancy_bt,2022.2.4,Win32,60.6575276,Chrome,1536,864,,,a,1.3043,1,2,0,0,1,1,7,1,0,0,1,0,0,1,0,0,hexagon,circle,,,,,,,,,,,,,,,,,,,,,,,,,,,,,,,,,,,,,,,,,,,,,,,,,,,,,,
297025,2022-11-25_17h23.20.058,vts_reward_expectancy_bt,2022.2.4,Win32,60.6575276,Chrome,1536,864,,,a,1.878,1,3,0,0,2,2,5,1,0,1,0,0,0,0,0,1,circle,star,,,,,,,,,,,,,,,,,,,,,,,,,,,,,,,,,,,,,,,,,,,,,,,,,,,,,,
297025,2022-11-25_17h23.20.058,vts_reward_expectancy_bt,2022.2.4,Win32,60.6575276,Chrome,1536,864,,,a,1.0968,1,4,0,0,3,3,8,1,0,0,1,0,0,0,0,1,hexagon,star,,,,,,,,,,,,,,,,,,,,,,,,,,,,,,,,,,,,,,,,,,,,,,,,,,,,,,
297025,2022-11-25_17h23.20.058,vts_reward_expectancy_bt,2022.2.4,Win32,60.6575276,Chrome,1536,864,,,a,1.5781,10,14,0,0,4,4,1,1,1,0,0,0,0,0,1,0,triangle,hexagon,,,,,,,,,,,,,,,,,,,,,,,,,,,,,,,,,,,,,,,,,,,,,,,,,,,,,,
297025,2022-11-25_17h23.20.058,vts_reward_expectancy_bt,2022.2.4,Win32,60.6575276,Chrome,1536,864,,,a,0.8134,10,24,0,0,5,5,2,1,1,0,0,0,0,0,0,1,triangle,star,,,,,,,,,,,,,,,,,,,,,,,,,,,,,,,,,,,,,,,,,,,,,,,,,,,,,,
297025,2022-11-25_17h23.20.058,vts_reward_expectancy_bt,2022.2.4,Win32,60.6575276,Chrome,1536,864,,,a,2.4671,10,34,0,0,6,6,10,1,0,0,0,1,0,1,0,0,star ,circle,,,,,,,,,,,,,,,,,,,,,,,,,,,,,,,,,,,,,,,,,,,,,,,,,,,,,,
297025,2022-11-25_17h23.20.058,vts_reward_expectancy_bt,2022.2.4,Win32,60.6575276,Chrome,1536,864,,,a,1.1166,1,35,0,0,7,7,0,1,1,0,0,0,0,1,0,0,triangle,circle,,,,,,,,,,,,,,,,,,,,,,,,,,,,,,,,,,,,,,,,,,,,,,,,,,,,,,
297025,2022-11-25_17h23.20.058,vts_reward_expectancy_bt,2022.2.4,Win32,60.6575276,Chrome,1536,864,,,l,1.1966,1,36,0,0,8,8,11,1,0,0,0,1,0,0,1,0,star,hexagon,,,,,,,,,,,,,,,,,,,,,,,,,,,,,,,,,,,,,,,,,,,,,,,,,,,,,,
297025,2022-11-25_17h23.20.058,vts_reward_expectancy_bt,2022.2.4,Win32,60.6575276,Chrome,1536,864,,,l,0.7522,10,46,0,0,9,9,4,1,0,1,0,0,0,0,1,0,circle,hexagon,,,,,,,,,,,,,,,,,,,,,,,,,,,,,,,,,,,,,,,,,,,,,,,,,,,,,,
297025,2022-11-25_17h23.20.058,vts_reward_expectancy_bt,2022.2.4,Win32,60.6575276,Chrome,1536,864,,,a,1.9124,10,56,0,0,10,10,3,1,0,1,0,0,1,0,0,0,circle,triangle,,,,,,,,,,,,,,,,,,,,,,,,,,,,,,,,,,,,,,,,,,,,,,,,,,,,,,
297025,2022-11-25_17h23.20.058,vts_reward_expectancy_bt,2022.2.4,Win32,60.6575276,Chrome,1536,864,,,a,1.2791,10,66,0,0,11,11,9,1,0,0,0,1,1,0,0,0,star,triangle,,,,,,,,,,,,,,,,,,,,,,,,,,,,,,,,,,,,,,,,,,,,,,,,,,,,,,
297025,2022-11-25_17h23.20.058,vts_reward_expectancy_bt,2022.2.4,Win32,60.6575276,Chrome,1536,864,,,a,1.2714,1,67,0,1,0,12,3,1,0,1,0,0,1,0,0,0,circle,triangle,,,,,,,,,,,,,,,,,,,,,,,,,,,,,,,,,,,,,,,,,,,,,,,,,,,,,,
297025,2022-11-25_17h23.20.058,vts_reward_expectancy_bt,2022.2.4,Win32,60.6575276,Chrome,1536,864,,,l,0.9911,10,77,0,1,1,13,2,1,1,0,0,0,0,0,0,1,triangle,star,,,,,,,,,,,,,,,,,,,,,,,,,,,,,,,,,,,,,,,,,,,,,,,,,,,,,,
297025,2022-11-25_17h23.20.058,vts_reward_expectancy_bt,2022.2.4,Win32,60.6575276,Chrome,1536,864,,,l,0.9792,10,87,0,1,2,14,4,1,0,1,0,0,0,0,1,0,circle,hexagon,,,,,,,,,,,,,,,,,,,,,,,,,,,,,,,,,,,,,,,,,,,,,,,,,,,,,,
297025,2022-11-25_17h23.20.058,vts_reward_expectancy_bt,2022.2.4,Win32,60.6575276,Chrome,1536,864,,,a,0.8594,1,88,0,1,3,15,7,1,0,0,1,0,0,1,0,0,hexagon,circle,,,,,,,,,,,,,,,,,,,,,,,,,,,,,,,,,,,,,,,,,,,,,,,,,,,,,,
297025,2022-11-25_17h23.20.058,vts_reward_expectancy_bt,2022.2.4,Win32,60.6575276,Chrome,1536,864,,,l,1.4787,1,89,0,1,4,16,11,1,0,0,0,1,0,0,1,0,star,hexagon,,,,,,,,,,,,,,,,,,,,,,,,,,,,,,,,,,,,,,,,,,,,,,,,,,,,,,
297025,2022-11-25_17h23.20.058,vts_reward_expectancy_bt,2022.2.4,Win32,60.6575276,Chrome,1536,864,,,a,1.1552,1,90,0,1,5,17,0,1,1,0,0,0,0,1,0,0,triangle,circle,,,,,,,,,,,,,,,,,,,,,,,,,,,,,,,,,,,,,,,,,,,,,,,,,,,,,,
297025,2022-11-25_17h23.20.058,vts_reward_expectancy_bt,2022.2.4,Win32,60.6575276,Chrome,1536,864,,,a,0.6534,1,91,0,1,6,18,9,1,0,0,0,1,1,0,0,0,star,triangle,,,,,,,,,,,,,,,,,,,,,,,,,,,,,,,,,,,,,,,,,,,,,,,,,,,,,,
297025,2022-11-25_17h23.20.058,vts_reward_expectancy_bt,2022.2.4,Win32,60.6575276,Chrome,1536,864,,,a,0.2715,1,92,0,1,7,19,10,1,0,0,0,1,0,1,0,0,star ,circle,,,,,,,,,,,,,,,,,,,,,,,,,,,,,,,,,,,,,,,,,,,,,,,,,,,,,,
297025,2022-11-25_17h23.20.058,vts_reward_expectancy_bt,2022.2.4,Win32,60.6575276,Chrome,1536,864,,,l,0.572,10,102,0,1,8,20,5,1,0,1,0,0,0,0,0,1,circle,star,,,,,,,,,,,,,,,,,,,,,,,,,,,,,,,,,,,,,,,,,,,,,,,,,,,,,,
297025,2022-11-25_17h23.20.058,vts_reward_expectancy_bt,2022.2.4,Win32,60.6575276,Chrome,1536,864,,,a,1.1531,1,103,0,1,9,21,6,1,0,0,1,0,1,0,0,0,hexagon,triangle,,,,,,,,,,,,,,,,,,,,,,,,,,,,,,,,,,,,,,,,,,,,,,,,,,,,,,
297025,2022-11-25_17h23.20.058,vts_reward_expectancy_bt,2022.2.4,Win32,60.6575276,Chrome,1536,864,,,a,0.8084,1,104,0,1,10,22,8,1,0,0,1,0,0,0,0,1,hexagon,star,,,,,,,,,,,,,,,,,,,,,,,,,,,,,,,,,,,,,,,,,,,,,,,,,,,,,,
297025,2022-11-25_17h23.20.058,vts_reward_expectancy_bt,2022.2.4,Win32,60.6575276,Chrome,1536,864,,,l,0.7002,1,105,0,1,11,23,1,1,1,0,0,0,0,0,1,0,triangle,hexagon,,,,,,,,,,,,,,,,,,,,,,,,,,,,,,,,,,,,,,,,,,,,,,,,,,,,,,
297025,2022-11-25_17h23.20.058,vts_reward_expectancy_bt,2022.2.4,Win32,60.6575276,Chrome,1536,864,,,l,0.6343,1,106,0,2,0,24,5,1,0,1,0,0,0,0,0,1,circle,star,,,,,,,,,,,,,,,,,,,,,,,,,,,,,,,,,,,,,,,,,,,,,,,,,,,,,,
297025,2022-11-25_17h23.20.058,vts_reward_expectancy_bt,2022.2.4,Win32,60.6575276,Chrome,1536,864,,,l,0.1346,10,116,0,2,1,25,2,1,1,0,0,0,0,0,0,1,triangle,star,,,,,,,,,,,,,,,,,,,,,,,,,,,,,,,,,,,,,,,,,,,,,,,,,,,,,,
297025,2022-11-25_17h23.20.058,vts_reward_expectancy_bt,2022.2.4,Win32,60.6575276,Chrome,1536,864,,,l,0.7211,10,126,0,2,2,26,6,1,0,0,1,0,1,0,0,0,hexagon,triangle,,,,,,,,,,,,,,,,,,,,,,,,,,,,,,,,,,,,,,,,,,,,,,,,,,,,,,
297025,2022-11-25_17h23.20.058,vts_reward_expectancy_bt,2022.2.4,Win32,60.6575276,Chrome,1536,864,,,a,0.751,1,127,0,2,3,27,3,1,0,1,0,0,1,0,0,0,circle,triangle,,,,,,,,,,,,,,,,,,,,,,,,,,,,,,,,,,,,,,,,,,,,,,,,,,,,,,
297025,2022-11-25_17h23.20.058,vts_reward_expectancy_bt,2022.2.4,Win32,60.6575276,Chrome,1536,864,,,l,0.3571,10,137,0,2,4,28,9,1,0,0,0,1,1,0,0,0,star,triangle,,,,,,,,,,,,,,,,,,,,,,,,,,,,,,,,,,,,,,,,,,,,,,,,,,,,,,
297025,2022-11-25_17h23.20.058,vts_reward_expectancy_bt,2022.2.4,Win32,60.6575276,Chrome,1536,864,,,l,0.3008,1,138,0,2,5,29,0,1,1,0,0,0,0,1,0,0,triangle,circle,,,,,,,,,,,,,,,,,,,,,,,,,,,,,,,,,,,,,,,,,,,,,,,,,,,,,,
297025,2022-11-25_17h23.20.058,vts_reward_expectancy_bt,2022.2.4,Win32,60.6575276,Chrome,1536,864,,,a,0.2796,1,139,0,2,6,30,8,1,0,0,1,0,0,0,0,1,hexagon,star,,,,,,,,,,,,,,,,,,,,,,,,,,,,,,,,,,,,,,,,,,,,,,,,,,,,,,
297025,2022-11-25_17h23.20.058,vts_reward_expectancy_bt,2022.2.4,Win32,60.6575276,Chrome,1536,864,,,l,0.123,1,140,0,2,7,31,10,1,0,0,0,1,0,1,0,0,star ,circle,,,,,,,,,,,,,,,,,,,,,,,,,,,,,,,,,,,,,,,,,,,,,,,,,,,,,,
297025,2022-11-25_17h23.20.058,vts_reward_expectancy_bt,2022.2.4,Win32,60.6575276,Chrome,1536,864,,,a,0.2847,10,150,0,2,8,32,11,1,0,0,0,1,0,0,1,0,star,hexagon,,,,,,,,,,,,,,,,,,,,,,,,,,,,,,,,,,,,,,,,,,,,,,,,,,,,,,
297025,2022-11-25_17h23.20.058,vts_reward_expectancy_bt,2022.2.4,Win32,60.6575276,Chrome,1536,864,,,l,1.8011,1,151,0,2,9,33,4,1,0,1,0,0,0,0,1,0,circle,hexagon,,,,,,,,,,,,,,,,,,,,,,,,,,,,,,,,,,,,,,,,,,,,,,,,,,,,,,
297025,2022-11-25_17h23.20.058,vts_reward_expectancy_bt,2022.2.4,Win32,60.6575276,Chrome,1536,864,,,a,0.6852,10,161,0,2,10,34,1,1,1,0,0,0,0,0,1,0,triangle,hexagon,,,,,,,,,,,,,,,,,,,,,,,,,,,,,,,,,,,,,,,,,,,,,,,,,,,,,,
297025,2022-11-25_17h23.20.058,vts_reward_expectancy_bt,2022.2.4,Win32,60.6575276,Chrome,1536,864,,,a,0.4047,1,162,0,2,11,35,7,1,0,0,1,0,0,1,0,0,hexagon,circle,,,,,,,,,,,,,,,,,,,,,,,,,,,,,,,,,,,,,,,,,,,,,,,,,,,,,,
297025,2022-11-25_17h23.20.058,vts_reward_expectancy_bt,2022.2.4,Win32,60.6575276,Chrome,1536,864,,,a,0.5352,1,163,1,0,0,0,6,1,0,0,1,0,1,0,0,0,hexagon,triangle,,,,,,,,,,,,,,,,,,,,,,,,,,,,,,,,,,,,,,,,,,,,,,,,,,,,,,
297025,2022-11-25_17h23.20.058,vts_reward_expectancy_bt,2022.2.4,Win32,60.6575276,Chrome,1536,864,,,l,0.463,1,164,1,0,1,1,4,1,0,1,0,0,0,0,1,0,circle,hexagon,,,,,,,,,,,,,,,,,,,,,,,,,,,,,,,,,,,,,,,,,,,,,,,,,,,,,,
297025,2022-11-25_17h23.20.058,vts_reward_expectancy_bt,2022.2.4,Win32,60.6575276,Chrome,1536,864,,,l,0.4978,10,174,1,0,2,2,1,1,1,0,0,0,0,0,1,0,triangle,hexagon,,,,,,,,,,,,,,,,,,,,,,,,,,,,,,,,,,,,,,,,,,,,,,,,,,,,,,
297025,2022-11-25_17h23.20.058,vts_reward_expectancy_bt,2022.2.4,Win32,60.6575276,Chrome,1536,864,,,a,1.0322,1,175,1,0,3,3,11,1,0,0,0,1,0,0,1,0,star,hexagon,,,,,,,,,,,,,,,,,,,,,,,,,,,,,,,,,,,,,,,,,,,,,,,,,,,,,,
297025,2022-11-25_17h23.20.058,vts_reward_expectancy_bt,2022.2.4,Win32,60.6575276,Chrome,1536,864,,,l,0.351,1,176,1,0,4,4,2,1,1,0,0,0,0,0,0,1,triangle,star,,,,,,,,,,,,,,,,,,,,,,,,,,,,,,,,,,,,,,,,,,,,,,,,,,,,,,
297025,2022-11-25_17h23.20.058,vts_reward_expectancy_bt,2022.2.4,Win32,60.6575276,Chrome,1536,864,,,l,0.5524,10,186,1,0,5,5,5,1,0,1,0,0,0,0,0,1,circle,star,,,,,,,,,,,,,,,,,,,,,,,,,,,,,,,,,,,,,,,,,,,,,,,,,,,,,,
297025,2022-11-25_17h23.20.058,vts_reward_expectancy_bt,2022.2.4,Win32,60.6575276,Chrome,1536,864,,,a,0.3467,1,187,1,0,6,6,8,1,0,0,1,0,0,0,0,1,hexagon,star,,,,,,,,,,,,,,,,,,,,,,,,,,,,,,,,,,,,,,,,,,,,,,,,,,,,,,
297025,2022-11-25_17h23.20.058,vts_reward_expectancy_bt,2022.2.4,Win32,60.6575276,Chrome,1536,864,,,l,0.6859,1,188,1,0,7,7,10,1,0,0,0,1,0,1,0,0,star ,circle,,,,,,,,,,,,,,,,,,,,,,,,,,,,,,,,,,,,,,,,,,,,,,,,,,,,,,
297025,2022-11-25_17h23.20.058,vts_reward_expectancy_bt,2022.2.4,Win32,60.6575276,Chrome,1536,864,,,a,0.0681,1,189,1,0,8,8,7,1,0,0,1,0,0,1,0,0,hexagon,circle,,,,,,,,,,,,,,,,,,,,,,,,,,,,,,,,,,,,,,,,,,,,,,,,,,,,,,
297025,2022-11-25_17h23.20.058,vts_reward_expectancy_bt,2022.2.4,Win32,60.6575276,Chrome,1536,864,,,l,0.0507,1,190,1,0,9,9,0,1,1,0,0,0,0,1,0,0,triangle,circle,,,,,,,,,,,,,,,,,,,,,,,,,,,,,,,,,,,,,,,,,,,,,,,,,,,,,,
297025,2022-11-25_17h23.20.058,vts_reward_expectancy_bt,2022.2.4,Win32,60.6575276,Chrome,1536,864,,,a,0.3178,10,200,1,0,10,10,9,1,0,0,0,1,1,0,0,0,star,triangle,,,,,,,,,,,,,,,,,,,,,,,,,,,,,,,,,,,,,,,,,,,,,,,,,,,,,,
297025,2022-11-25_17h23.20.058,vts_reward_expectancy_bt,2022.2.4,Win32,60.6575276,Chrome,1536,864,,,a,0.0737,1,201,1,0,11,11,3,1,0,1,0,0,1,0,0,0,circle,triangle,,,,,,,,,,,,,,,,,,,,,,,,,,,,,,,,,,,,,,,,,,,,,,,,,,,,,,
297025,2022-11-25_17h23.20.058,vts_reward_expectancy_bt,2022.2.4,Win32,60.6575276,Chrome,1536,864,,,l,0.2838,10,211,1,1,0,12,2,1,1,0,0,0,0,0,0,1,triangle,star,,,,,,,,,,,,,,,,,,,,,,,,,,,,,,,,,,,,,,,,,,,,,,,,,,,,,,
297025,2022-11-25_17h23.20.058,vts_reward_expectancy_bt,2022.2.4,Win32,60.6575276,Chrome,1536,864,,,l,0.48,1,212,1,1,1,13,4,1,0,1,0,0,0,0,1,0,circle,hexagon,,,,,,,,,,,,,,,,,,,,,,,,,,,,,,,,,,,,,,,,,,,,,,,,,,,,,,
297025,2022-11-25_17h23.20.058,vts_reward_expectancy_bt,2022.2.4,Win32,60.6575276,Chrome,1536,864,,,l,0.1535,10,222,1,1,2,14,5,1,0,1,0,0,0,0,0,1,circle,star,,,,,,,,,,,,,,,,,,,,,,,,,,,,,,,,,,,,,,,,,,,,,,,,,,,,,,
297025,2022-11-25_17h23.20.058,vts_reward_expectancy_bt,2022.2.4,Win32,60.6575276,Chrome,1536,864,,,a,0.4533,10,232,1,1,3,15,9,1,0,0,0,1,1,0,0,0,star,triangle,,,,,,,,,,,,,,,,,,,,,,,,,,,,,,,,,,,,,,,,,,,,,,,,,,,,,,
297025,2022-11-25_17h23.20.058,vts_reward_expectancy_bt,2022.2.4,Win32,60.6575276,Chrome,1536,864,,,l,1.1676,1,233,1,1,4,16,7,1,0,0,1,0,0,1,0,0,hexagon,circle,,,,,,,,,,,,,,,,,,,,,,,,,,,,,,,,,,,,,,,,,,,,,,,,,,,,,,
297025,2022-11-25_17h23.20.058,vts_reward_expectancy_bt,2022.2.4,Win32,60.6575276,Chrome,1536,864,,,a,0.5808,1,234,1,1,5,17,6,1,0,0,1,0,1,0,0,0,hexagon,triangle,,,,,,,,,,,,,,,,,,,,,,,,,,,,,,,,,,,,,,,,,,,,,,,,,,,,,,
297025,2022-11-25_17h23.20.058,vts_reward_expectancy_bt,2022.2.4,Win32,60.6575276,Chrome,1536,864,,,l,0.0919,1,235,1,1,6,18,3,1,0,1,0,0,1,0,0,0,circle,triangle,,,,,,,,,,,,,,,,,,,,,,,,,,,,,,,,,,,,,,,,,,,,,,,,,,,,,,
297025,2022-11-25_17h23.20.058,vts_reward_expectancy_bt,2022.2.4,Win32,60.6575276,Chrome,1536,864,,,l,0.4015,1,236,1,1,7,19,1,1,1,0,0,0,0,0,1,0,triangle,hexagon,,,,,,,,,,,,,,,,,,,,,,,,,,,,,,,,,,,,,,,,,,,,,,,,,,,,,,
297025,2022-11-25_17h23.20.058,vts_reward_expectancy_bt,2022.2.4,Win32,60.6575276,Chrome,1536,864,,,l,0.7843,1,237,1,1,8,20,10,1,0,0,0,1,0,1,0,0,star ,circle,,,,,,,,,,,,,,,,,,,,,,,,,,,,,,,,,,,,,,,,,,,,,,,,,,,,,,
297025,2022-11-25_17h23.20.058,vts_reward_expectancy_bt,2022.2.4,Win32,60.6575276,Chrome,1536,864,,,a,0.482,10,247,1,1,9,21,11,1,0,0,0,1,0,0,1,0,star,hexagon,,,,,,,,,,,,,,,,,,,,,,,,,,,,,,,,,,,,,,,,,,,,,,,,,,,,,,
297025,2022-11-25_17h23.20.058,vts_reward_expectancy_bt,2022.2.4,Win32,60.6575276,Chrome,1536,864,,,l,0.6179,10,257,1,1,10,22,8,1,0,0,1,0,0,0,0,1,hexagon,star,,,,,,,,,,,,,,,,,,,,,,,,,,,,,,,,,,,,,,,,,,,,,,,,,,,,,,
297025,2022-11-25_17h23.20.058,vts_reward_expectancy_bt,2022.2.4,Win32,60.6575276,Chrome,1536,864,,,l,0.7255,1,258,1,1,11,23,0,1,1,0,0,0,0,1,0,0,triangle,circle,,,,,,,,,,,,,,,,,,,,,,,,,,,,,,,,,,,,,,,,,,,,,,,,,,,,,,
297025,2022-11-25_17h23.20.058,vts_reward_expectancy_bt,2022.2.4,Win32,60.6575276,Chrome,1536,864,,,l,2.1963,1,259,1,2,0,24,1,1,1,0,0,0,0,0,1,0,triangle,hexagon,,,,,,,,,,,,,,,,,,,,,,,,,,,,,,,,,,,,,,,,,,,,,,,,,,,,,,
297025,2022-11-25_17h23.20.058,vts_reward_expectancy_bt,2022.2.4,Win32,60.6575276,Chrome,1536,864,,,a,1.313,10,269,1,2,1,25,9,1,0,0,0,1,1,0,0,0,star,triangle,,,,,,,,,,,,,,,,,,,,,,,,,,,,,,,,,,,,,,,,,,,,,,,,,,,,,,
297025,2022-11-25_17h23.20.058,vts_reward_expectancy_bt,2022.2.4,Win32,60.6575276,Chrome,1536,864,,,l,2.7059,1,270,1,2,2,26,4,1,0,1,0,0,0,0,1,0,circle,hexagon,,,,,,,,,,,,,,,,,,,,,,,,,,,,,,,,,,,,,,,,,,,,,,,,,,,,,,
297025,2022-11-25_17h23.20.058,vts_reward_expectancy_bt,2022.2.4,Win32,60.6575276,Chrome,1536,864,,,l,9.8004,1,271,1,2,3,27,0,1,1,0,0,0,0,1,0,0,triangle,circle,,,,,,,,,,,,,,,,,,,,,,,,,,,,,,,,,,,,,,,,,,,,,,,,,,,,,,
297025,2022-11-25_17h23.20.058,vts_reward_expectancy_bt,2022.2.4,Win32,60.6575276,Chrome,1536,864,,,l,0.7622,10,281,1,2,4,28,8,1,0,0,1,0,0,0,0,1,hexagon,star,,,,,,,,,,,,,,,,,,,,,,,,,,,,,,,,,,,,,,,,,,,,,,,,,,,,,,
297025,2022-11-25_17h23.20.058,vts_reward_expectancy_bt,2022.2.4,Win32,60.6575276,Chrome,1536,864,,,a,0.5516,10,291,1,2,5,29,11,1,0,0,0,1,0,0,1,0,star,hexagon,,,,,,,,,,,,,,,,,,,,,,,,,,,,,,,,,,,,,,,,,,,,,,,,,,,,,,
297025,2022-11-25_17h23.20.058,vts_reward_expectancy_bt,2022.2.4,Win32,60.6575276,Chrome,1536,864,,,l,0.4677,1,292,1,2,6,30,2,1,1,0,0,0,0,0,0,1,triangle,star,,,,,,,,,,,,,,,,,,,,,,,,,,,,,,,,,,,,,,,,,,,,,,,,,,,,,,
297025,2022-11-25_17h23.20.058,vts_reward_expectancy_bt,2022.2.4,Win32,60.6575276,Chrome,1536,864,,,l,0.7346,10,302,1,2,7,31,5,1,0,1,0,0,0,0,0,1,circle,star,,,,,,,,,,,,,,,,,,,,,,,,,,,,,,,,,,,,,,,,,,,,,,,,,,,,,,
297025,2022-11-25_17h23.20.058,vts_reward_expectancy_bt,2022.2.4,Win32,60.6575276,Chrome,1536,864,,,l,1.5257,1,303,1,2,8,32,10,1,0,0,0,1,0,1,0,0,star ,circle,,,,,,,,,,,,,,,,,,,,,,,,,,,,,,,,,,,,,,,,,,,,,,,,,,,,,,
297025,2022-11-25_17h23.20.058,vts_reward_expectancy_bt,2022.2.4,Win32,60.6575276,Chrome,1536,864,,,a,1.1444,10,313,1,2,9,33,7,1,0,0,1,0,0,1,0,0,hexagon,circle,,,,,,,,,,,,,,,,,,,,,,,,,,,,,,,,,,,,,,,,,,,,,,,,,,,,,,
297025,2022-11-25_17h23.20.058,vts_reward_expectancy_bt,2022.2.4,Win32,60.6575276,Chrome,1536,864,,,a,1.184,1,314,1,2,10,34,6,1,0,0,1,0,1,0,0,0,hexagon,triangle,,,,,,,,,,,,,,,,,,,,,,,,,,,,,,,,,,,,,,,,,,,,,,,,,,,,,,
297025,2022-11-25_17h23.20.058,vts_reward_expectancy_bt,2022.2.4,Win32,60.6575276,Chrome,1536,864,,,a,1.7183,1,315,1,2,11,35,3,1,0,1,0,0,1,0,0,0,circle,triangle,,,,,,,,,,,,,,,,,,,,,,,,,,,,,,,,,,,,,,,,,,,,,,,,,,,,,,
297025,2022-11-25_17h23.20.058,vts_reward_expectancy_bt,2022.2.4,Win32,60.6575276,Chrome,1536,864,,,l,0.6937,10,325,2,0,0,0,6,1,0,0,1,0,1,0,0,0,hexagon,triangle,,,,,,,,,,,,,,,,,,,,,,,,,,,,,,,,,,,,,,,,,,,,,,,,,,,,,,
297025,2022-11-25_17h23.20.058,vts_reward_expectancy_bt,2022.2.4,Win32,60.6575276,Chrome,1536,864,,,a,1.2906,1,326,2,0,1,1,0,1,1,0,0,0,0,1,0,0,triangle,circle,,,,,,,,,,,,,,,,,,,,,,,,,,,,,,,,,,,,,,,,,,,,,,,,,,,,,,
297025,2022-11-25_17h23.20.058,vts_reward_expectancy_bt,2022.2.4,Win32,60.6575276,Chrome,1536,864,,,a,0.7294,10,336,2,0,2,2,9,1,0,0,0,1,1,0,0,0,star,triangle,,,,,,,,,,,,,,,,,,,,,,,,,,,,,,,,,,,,,,,,,,,,,,,,,,,,,,
297025,2022-11-25_17h23.20.058,vts_reward_expectancy_bt,2022.2.4,Win32,60.6575276,Chrome,1536,864,,,l,0.9404,1,337,2,0,3,3,5,1,0,1,0,0,0,0,0,1,circle,star,,,,,,,,,,,,,,,,,,,,,,,,,,,,,,,,,,,,,,,,,,,,,,,,,,,,,,
297025,2022-11-25_17h23.20.058,vts_reward_expectancy_bt,2022.2.4,Win32,60.6575276,Chrome,1536,864,,,a,2.0331,1,338,2,0,4,4,4,1,0,1,0,0,0,0,1,0,circle,hexagon,,,,,,,,,,,,,,,,,,,,,,,,,,,,,,,,,,,,,,,,,,,,,,,,,,,,,,
297025,2022-11-25_17h23.20.058,vts_reward_expectancy_bt,2022.2.4,Win32,60.6575276,Chrome,1536,864,,,a,1.5519,1,339,2,0,5,5,7,1,0,0,1,0,0,1,0,0,hexagon,circle,,,,,,,,,,,,,,,,,,,,,,,,,,,,,,,,,,,,,,,,,,,,,,,,,,,,,,
297025,2022-11-25_17h23.20.058,vts_reward_expectancy_bt,2022.2.4,Win32,60.6575276,Chrome,1536,864,,,l,0.6371,10,349,2,0,6,6,8,1,0,0,1,0,0,0,0,1,hexagon,star,,,,,,,,,,,,,,,,,,,,,,,,,,,,,,,,,,,,,,,,,,,,,,,,,,,,,,
297025,2022-11-25_17h23.20.058,vts_reward_expectancy_bt,2022.2.4,Win32,60.6575276,Chrome,1536,864,,,l,0.518,10,359,2,0,7,7,2,1,1,0,0,0,0,0,0,1,triangle,star,,,,,,,,,,,,,,,,,,,,,,,,,,,,,,,,,,,,,,,,,,,,,,,,,,,,,,
297025,2022-11-25_17h23.20.058,vts_reward_expectancy_bt,2022.2.4,Win32,60.6575276,Chrome,1536,864,,,a,0.551,10,369,2,0,8,8,11,1,0,0,0,1,0,0,1,0,star,hexagon,,,,,,,,,,,,,,,,,,,,,,,,,,,,,,,,,,,,,,,,,,,,,,,,,,,,,,
297025,2022-11-25_17h23.20.058,vts_reward_expectancy_bt,2022.2.4,Win32,60.6575276,Chrome,1536,864,,,a,0.721,10,379,2,0,9,9,10,1,0,0,0,1,0,1,0,0,star ,circle,,,,,,,,,,,,,,,,,,,,,,,,,,,,,,,,,,,,,,,,,,,,,,,,,,,,,,
297025,2022-11-25_17h23.20.058,vts_reward_expectancy_bt,2022.2.4,Win32,60.6575276,Chrome,1536,864,,,a,1.6346,1,380,2,0,10,10,3,1,0,1,0,0,1,0,0,0,circle,triangle,,,,,,,,,,,,,,,,,,,,,,,,,,,,,,,,,,,,,,,,,,,,,,,,,,,,,,
297025,2022-11-25_17h23.20.058,vts_reward_expectancy_bt,2022.2.4,Win32,60.6575276,Chrome,1536,864,,,l,1.3555,1,381,2,0,11,11,1,1,1,0,0,0,0,0,1,0,triangle,hexagon,,,,,,,,,,,,,,,,,,,,,,,,,,,,,,,,,,,,,,,,,,,,,,,,,,,,,,
297025,2022-11-25_17h23.20.058,vts_reward_expectancy_bt,2022.2.4,Win32,60.6575276,Chrome,1536,864,,,a,0.8706,1,382,2,1,0,12,6,1,0,0,1,0,1,0,0,0,hexagon,triangle,,,,,,,,,,,,,,,,,,,,,,,,,,,,,,,,,,,,,,,,,,,,,,,,,,,,,,
297025,2022-11-25_17h23.20.058,vts_reward_expectancy_bt,2022.2.4,Win32,60.6575276,Chrome,1536,864,,,l,1.7514,10,392,2,1,1,13,8,1,0,0,1,0,0,0,0,1,hexagon,star,,,,,,,,,,,,,,,,,,,,,,,,,,,,,,,,,,,,,,,,,,,,,,,,,,,,,,
297025,2022-11-25_17h23.20.058,vts_reward_expectancy_bt,2022.2.4,Win32,60.6575276,Chrome,1536,864,,,l,1.6127,1,393,2,1,2,14,1,1,1,0,0,0,0,0,1,0,triangle,hexagon,,,,,,,,,,,,,,,,,,,,,,,,,,,,,,,,,,,,,,,,,,,,,,,,,,,,,,
297025,2022-11-25_17h23.20.058,vts_reward_expectancy_bt,2022.2.4,Win32,60.6575276,Chrome,1536,864,,,l,1.8883,1,394,2,1,3,15,4,1,0,1,0,0,0,0,1,0,circle,hexagon,,,,,,,,,,,,,,,,,,,,,,,,,,,,,,,,,,,,,,,,,,,,,,,,,,,,,,
297025,2022-11-25_17h23.20.058,vts_reward_expectancy_bt,2022.2.4,Win32,60.6575276,Chrome,1536,864,,,l,0.8446,1,395,2,1,4,16,5,1,0,1,0,0,0,0,0,1,circle,star,,,,,,,,,,,,,,,,,,,,,,,,,,,,,,,,,,,,,,,,,,,,,,,,,,,,,,
297025,2022-11-25_17h23.20.058,vts_reward_expectancy_bt,2022.2.4,Win32,60.6575276,Chrome,1536,864,,,l,1.1516,10,405,2,1,5,17,2,1,1,0,0,0,0,0,0,1,triangle,star,,,,,,,,,,,,,,,,,,,,,,,,,,,,,,,,,,,,,,,,,,,,,,,,,,,,,,
297025,2022-11-25_17h23.20.058,vts_reward_expectancy_bt,2022.2.4,Win32,60.6575276,Chrome,1536,864,,,a,0.9118,10,415,2,1,6,18,0,1,1,0,0,0,0,1,0,0,triangle,circle,,,,,,,,,,,,,,,,,,,,,,,,,,,,,,,,,,,,,,,,,,,,,,,,,,,,,,
297025,2022-11-25_17h23.20.058,vts_reward_expectancy_bt,2022.2.4,Win32,60.6575276,Chrome,1536,864,,,a,1.5677,1,416,2,1,7,19,7,1,0,0,1,0,0,1,0,0,hexagon,circle,,,,,,,,,,,,,,,,,,,,,,,,,,,,,,,,,,,,,,,,,,,,,,,,,,,,,,
297025,2022-11-25_17h23.20.058,vts_reward_expectancy_bt,2022.2.4,Win32,60.6575276,Chrome,1536,864,,,l,0.4279,1,417,2,1,8,20,10,1,0,0,0,1,0,1,0,0,star ,circle,,,,,,,,,,,,,,,,,,,,,,,,,,,,,,,,,,,,,,,,,,,,,,,,,,,,,,
297025,2022-11-25_17h23.20.058,vts_reward_expectancy_bt,2022.2.4,Win32,60.6575276,Chrome,1536,864,,,a,0.5344,10,427,2,1,9,21,11,1,0,0,0,1,0,0,1,0,star,hexagon,,,,,,,,,,,,,,,,,,,,,,,,,,,,,,,,,,,,,,,,,,,,,,,,,,,,,,
297025,2022-11-25_17h23.20.058,vts_reward_expectancy_bt,2022.2.4,Win32,60.6575276,Chrome,1536,864,,,a,2.4015,10,437,2,1,10,22,9,1,0,0,0,1,1,0,0,0,star,triangle,,,,,,,,,,,,,,,,,,,,,,,,,,,,,,,,,,,,,,,,,,,,,,,,,,,,,,
297025,2022-11-25_17h23.20.058,vts_reward_expectancy_bt,2022.2.4,Win32,60.6575276,Chrome,1536,864,,,l,1.5614,10,447,2,1,11,23,3,1,0,1,0,0,1,0,0,0,circle,triangle,,,,,,,,,,,,,,,,,,,,,,,,,,,,,,,,,,,,,,,,,,,,,,,,,,,,,,
297025,2022-11-25_17h23.20.058,vts_reward_expectancy_bt,2022.2.4,Win32,60.6575276,Chrome,1536,864,,,l,1.1065,10,457,2,2,0,24,8,1,0,0,1,0,0,0,0,1,hexagon,star,,,,,,,,,,,,,,,,,,,,,,,,,,,,,,,,,,,,,,,,,,,,,,,,,,,,,,
297025,2022-11-25_17h23.20.058,vts_reward_expectancy_bt,2022.2.4,Win32,60.6575276,Chrome,1536,864,,,l,1.6851,1,458,2,2,1,25,7,1,0,0,1,0,0,1,0,0,hexagon,circle,,,,,,,,,,,,,,,,,,,,,,,,,,,,,,,,,,,,,,,,,,,,,,,,,,,,,,
297025,2022-11-25_17h23.20.058,vts_reward_expectancy_bt,2022.2.4,Win32,60.6575276,Chrome,1536,864,,,a,1.0461,10,468,2,2,2,26,11,1,0,0,0,1,0,0,1,0,star,hexagon,,,,,,,,,,,,,,,,,,,,,,,,,,,,,,,,,,,,,,,,,,,,,,,,,,,,,,
297025,2022-11-25_17h23.20.058,vts_reward_expectancy_bt,2022.2.4,Win32,60.6575276,Chrome,1536,864,,,l,0.8558,10,478,2,2,3,27,4,1,0,1,0,0,0,0,1,0,circle,hexagon,,,,,,,,,,,,,,,,,,,,,,,,,,,,,,,,,,,,,,,,,,,,,,,,,,,,,,
297025,2022-11-25_17h23.20.058,vts_reward_expectancy_bt,2022.2.4,Win32,60.6575276,Chrome,1536,864,,,a,1.5502,1,479,2,2,4,28,3,1,0,1,0,0,1,0,0,0,circle,triangle,,,,,,,,,,,,,,,,,,,,,,,,,,,,,,,,,,,,,,,,,,,,,,,,,,,,,,
297025,2022-11-25_17h23.20.058,vts_reward_expectancy_bt,2022.2.4,Win32,60.6575276,Chrome,1536,864,,,l,0.6734,10,489,2,2,5,29,5,1,0,1,0,0,0,0,0,1,circle,star,,,,,,,,,,,,,,,,,,,,,,,,,,,,,,,,,,,,,,,,,,,,,,,,,,,,,,
297025,2022-11-25_17h23.20.058,vts_reward_expectancy_bt,2022.2.4,Win32,60.6575276,Chrome,1536,864,,,l,0.1191,10,499,2,2,6,30,2,1,1,0,0,0,0,0,0,1,triangle,star,,,,,,,,,,,,,,,,,,,,,,,,,,,,,,,,,,,,,,,,,,,,,,,,,,,,,,
297025,2022-11-25_17h23.20.058,vts_reward_expectancy_bt,2022.2.4,Win32,60.6575276,Chrome,1536,864,,,a,0.7845,1,500,2,2,7,31,6,1,0,0,1,0,1,0,0,0,hexagon,triangle,,,,,,,,,,,,,,,,,,,,,,,,,,,,,,,,,,,,,,,,,,,,,,,,,,,,,,
297025,2022-11-25_17h23.20.058,vts_reward_expectancy_bt,2022.2.4,Win32,60.6575276,Chrome,1536,864,,,a,0.5849,1,501,2,2,8,32,9,1,0,0,0,1,1,0,0,0,star,triangle,,,,,,,,,,,,,,,,,,,,,,,,,,,,,,,,,,,,,,,,,,,,,,,,,,,,,,
297025,2022-11-25_17h23.20.058,vts_reward_expectancy_bt,2022.2.4,Win32,60.6575276,Chrome,1536,864,,,l,0.6383,1,502,2,2,9,33,1,1,1,0,0,0,0,0,1,0,triangle,hexagon,,,,,,,,,,,,,,,,,,,,,,,,,,,,,,,,,,,,,,,,,,,,,,,,,,,,,,
297025,2022-11-25_17h23.20.058,vts_reward_expectancy_bt,2022.2.4,Win32,60.6575276,Chrome,1536,864,,,a,0.5682,10,512,2,2,10,34,0,1,1,0,0,0,0,1,0,0,triangle,circle,,,,,,,,,,,,,,,,,,,,,,,,,,,,,,,,,,,,,,,,,,,,,,,,,,,,,,
297025,2022-11-25_17h23.20.058,vts_reward_expectancy_bt,2022.2.4,Win32,60.6575276,Chrome,1536,864,,,a,0.6244,10,522,2,2,11,35,10,1,0,0,0,1,0,1,0,0,star ,circle,,,,,,,,,,,,,,,,,,,,,,,,,,,,,,,,,,,,,,,,,,,,,,,,,,,,,,
297025,2022-11-25_17h23.20.058,vts_reward_expectancy_bt,2022.2.4,Win32,60.6575276,Chrome,1536,864,,,,,,,,,,,,,,,,,,,,,,,132,B,triangle,1,0,d,1.0728,0,0,0,0,0,1,,,,,,,,,,,,,,,,,,,,,,,,,,,,,,,,,,,,,,,,,
297025,2022-11-25_17h23.20.058,vts_reward_expectancy_bt,2022.2.4,Win32,60.6575276,Chrome,1536,864,,,,,,,,,,,,,,,,,,,,,,,181,U,star,1,0,f,0.8344,0,1,0,1,0,1,,,,,,,,,,,,,,,,,,,,,,,,,,,,,,,,,,,,,,,,,
297025,2022-11-25_17h23.20.058,vts_reward_expectancy_bt,2022.2.4,Win32,60.6575276,Chrome,1536,864,,,,,,,,,,,,,,,,,,,,,,,146,H,circle,1,0,d,0.6931,0,2,0,2,0,1,,,,,,,,,,,,,,,,,,,,,,,,,,,,,,,,,,,,,,,,,
297025,2022-11-25_17h23.20.058,vts_reward_expectancy_bt,2022.2.4,Win32,60.6575276,Chrome,1536,864,,,,,,,,,,,,,,,,,,,,,,,167,S,hexagon,1,0,f,1.2175,0,3,0,3,0,1,,,,,,,,,,,,,,,,,,,,,,,,,,,,,,,,,,,,,,,,,
297025,2022-11-25_17h23.20.058,vts_reward_expectancy_bt,2022.2.4,Win32,60.6575276,Chrome,1536,864,,,,,,,,,,,,,,,,,,,,,,,139,D,triangle,1,0,d,1.1676,0,4,0,4,0,1,,,,,,,,,,,,,,,,,,,,,,,,,,,,,,,,,,,,,,,,,
297025,2022-11-25_17h23.20.058,vts_reward_expectancy_bt,2022.2.4,Win32,60.6575276,Chrome,1536,864,,,,,,,,,,,,,,,,,,,,,,,125,Y,star,1,0,d,0.5429,0,5,0,5,0,1,,,,,,,,,,,,,,,,,,,,,,,,,,,,,,,,,,,,,,,,,
297025,2022-11-25_17h23.20.058,vts_reward_expectancy_bt,2022.2.4,Win32,60.6575276,Chrome,1536,864,,,,,,,,,,,,,,,,,,,,,,,160,W,circle,1,0,f,0.6087,0,6,0,6,0,1,,,,,,,,,,,,,,,,,,,,,,,,,,,,,,,,,,,,,,,,,
297025,2022-11-25_17h23.20.058,vts_reward_expectancy_bt,2022.2.4,Win32,60.6575276,Chrome,1536,864,,,,,,,,,,,,,,,,,,,,,,,174,F,hexagon,1,0,f,0.6841,0,7,0,7,0,1,,,,,,,,,,,,,,,,,,,,,,,,,,,,,,,,,,,,,,,,,
297025,2022-11-25_17h23.20.058,vts_reward_expectancy_bt,2022.2.4,Win32,60.6575276,Chrome,1536,864,,,,,,,,,,,,,,,,,,,,,,,132,B,star,1,0,d,0.5392,0,8,0,8,0,1,,,,,,,,,,,,,,,,,,,,,,,,,,,,,,,,,,,,,,,,,
297025,2022-11-25_17h23.20.058,vts_reward_expectancy_bt,2022.2.4,Win32,60.6575276,Chrome,1536,864,,,,,,,,,,,,,,,,,,,,,,,181,U,circle,1,0,f,0.7407,0,9,0,9,0,1,,,,,,,,,,,,,,,,,,,,,,,,,,,,,,,,,,,,,,,,,
297025,2022-11-25_17h23.20.058,vts_reward_expectancy_bt,2022.2.4,Win32,60.6575276,Chrome,1536,864,,,,,,,,,,,,,,,,,,,,,,,139,U,circle,1,0,,,1,,,,,,k,0.6437,0,0,0,0,1,,,,,,,,,,,,,,,,,,,,,,,,,,,,,,,,,,
297025,2022-11-25_17h23.20.058,vts_reward_expectancy_bt,2022.2.4,Win32,60.6575276,Chrome,1536,864,,,,,,,,,,,,,,,,,,,,,,,132,S,hexagon,1,0,,,1,,,,,,k,1.1176,1,0,1,0,1,,,,,,,,,,,,,,,,,,,,,,,,,,,,,,,,,,
297025,2022-11-25_17h23.20.058,vts_reward_expectancy_bt,2022.2.4,Win32,60.6575276,Chrome,1536,864,,,,,,,,,,,,,,,,,,,,,,,125,Y,star,1,0,,,1,,,,,,k,1.5922,2,0,2,0,1,,,,,,,,,,,,,,,,,,,,,,,,,,,,,,,,,,
297025,2022-11-25_17h23.20.058,vts_reward_expectancy_bt,2022.2.4,Win32,60.6575276,Chrome,1536,864,,,,,,,,,,,,,,,,,,,,,,,160,W,triangle,1,0,,,1,,,,,,k,0.6583,3,0,3,0,1,,,,,,,,,,,,,,,,,,,,,,,,,,,,,,,,,,
297025,2022-11-25_17h23.20.058,vts_reward_expectancy_bt,2022.2.4,Win32,60.6575276,Chrome,1536,864,,,,,,,,,,,,,,,,,,,,,,,181,H,circle,1,0,,,1,,,,,,j,0.9266,4,0,4,0,1,,,,,,,,,,,,,,,,,,,,,,,,,,,,,,,,,,
297025,2022-11-25_17h23.20.058,vts_reward_expectancy_bt,2022.2.4,Win32,60.6575276,Chrome,1536,864,,,,,,,,,,,,,,,,,,,,,,,146,D,hexagon,1,0,,,1,,,,,,j,0.7516,5,0,5,0,1,,,,,,,,,,,,,,,,,,,,,,,,,,,,,,,,,,
297025,2022-11-25_17h23.20.058,vts_reward_expectancy_bt,2022.2.4,Win32,60.6575276,Chrome,1536,864,,,,,,,,,,,,,,,,,,,,,,,174,B,star,1,0,,,1,,,,,,j,2.0511,6,0,6,0,1,,,,,,,,,,,,,,,,,,,,,,,,,,,,,,,,,,
297025,2022-11-25_17h23.20.058,vts_reward_expectancy_bt,2022.2.4,Win32,60.6575276,Chrome,1536,864,,,,,,,,,,,,,,,,,,,,,,,167,F,triangle,0,0,,,1,,,,,,k,1.6078,7,0,7,0,1,,,,,,,,,,,,,,,,,,,,,,,,,,,,,,,,,,
297025,2022-11-25_17h23.20.058,vts_reward_expectancy_bt,2022.2.4,Win32,60.6575276,Chrome,1536,864,,,,,,,,,,,,,,,,,,,,,,,139,U,hexagon,1,1,,,1,,,,,,k,1.32,8,0,8,0,1,,,,,,,,,,,,,,,,,,,,,,,,,,,,,,,,,,
297025,2022-11-25_17h23.20.058,vts_reward_expectancy_bt,2022.2.4,Win32,60.6575276,Chrome,1536,864,,,,,,,,,,,,,,,,,,,,,,,132,S,circle,1,0,,,1,,,,,,k,0.6684,9,0,9,0,1,,,,,,,,,,,,,,,,,,,,,,,,,,,,,,,,,,
297025,2022-11-25_17h23.20.058,vts_reward_expectancy_bt,2022.2.4,Win32,60.6575276,Chrome,1536,864,,,,,0,522,,,,,,,,,,,,,,,,,139,H,circle,1,0,,,2,,,,,,,,,,,,,-1,number,NA,d,1.2966,vtsPrac,0,0,0,0,1,,,,,,,,,,,,,,,,,,,,,,,
297025,2022-11-25_17h23.20.058,vts_reward_expectancy_bt,2022.2.4,Win32,60.6575276,Chrome,1536,864,,,,,0,522,,,,,,,,,,,,,,,,,174,W,star,1,0,,,2,,,,,,,,,,,,,repeat,number,numRpt,f,0.7678,vtsPrac,1,0,1,0,1,,,,,,,,,,,,,,,,,,,,,,,
297025,2022-11-25_17h23.20.058,vts_reward_expectancy_bt,2022.2.4,Win32,60.6575276,Chrome,1536,864,,,,,0,522,,,,,,,,,,,,,,,,,160,B,circle,1,0,,,2,,,,,,,,,,,,,repeat,number,numRpt,f,0.6683,vtsPrac,2,0,2,0,1,,,,,,,,,,,,,,,,,,,,,,,
297025,2022-11-25_17h23.20.058,vts_reward_expectancy_bt,2022.2.4,Win32,60.6575276,Chrome,1536,864,,,,,0,522,,,,,,,,,,,,,,,,,181,F,star,1,0,,,2,,,,,,,,,,,,,switch,letter,lettSwt,j,1.484,vtsPrac,3,0,3,0,1,,,,,,,,,,,,,,,,,,,,,,,
297025,2022-11-25_17h23.20.058,vts_reward_expectancy_bt,2022.2.4,Win32,60.6575276,Chrome,1536,864,,,,,0,522,,,,,,,,,,,,,,,,,139,H,triangle,1,0,,,2,,,,,,,,,,,,,repeat,letter,lettRpt,j,0.8343,vtsPrac,4,0,4,0,1,,,,,,,,,,,,,,,,,,,,,,,
297025,2022-11-25_17h23.20.058,vts_reward_expectancy_bt,2022.2.4,Win32,60.6575276,Chrome,1536,864,,,,,0,522,,,,,,,,,,,,,,,,,174,W,star,1,0,,,2,,,,,,,,,,,,,switch,number,numSwt,f,0.6107,vtsPrac,5,0,5,0,1,,,,,,,,,,,,,,,,,,,,,,,
297025,2022-11-25_17h23.20.058,vts_reward_expectancy_bt,2022.2.4,Win32,60.6575276,Chrome,1536,864,,,,,0,522,,,,,,,,,,,,,,,,,160,B,hexagon,1,0,,,2,,,,,,,,,,,,,switch,letter,lettSwt,j,0.6341,vtsPrac,6,0,6,0,1,,,,,,,,,,,,,,,,,,,,,,,
297025,2022-11-25_17h23.20.058,vts_reward_expectancy_bt,2022.2.4,Win32,60.6575276,Chrome,1536,864,,,,,0,522,,,,,,,,,,,,,,,,,181,F,star,1,0,,,2,,,,,,,,,,,,,switch,number,numSwt,f,0.4676,vtsPrac,7,0,7,0,1,,,,,,,,,,,,,,,,,,,,,,,
297025,2022-11-25_17h23.20.058,vts_reward_expectancy_bt,2022.2.4,Win32,60.6575276,Chrome,1536,864,,,,,0,522,,,,,,,,,,,,,,,,,167,Y,triangle,1,0,,,2,,,,,,,,,,,,,switch,letter,lettSwt,k,0.6718,vtsPrac,8,0,8,0,1,,,,,,,,,,,,,,,,,,,,,,,
297025,2022-11-25_17h23.20.058,vts_reward_expectancy_bt,2022.2.4,Win32,60.6575276,Chrome,1536,864,,,,,0,522,,,,,,,,,,,,,,,,,139,H,star,1,0,,,2,,,,,,,,,,,,,switch,number,numSwt,d,1.3512,vtsPrac,9,0,9,0,1,,,,,,,,,,,,,,,,,,,,,,,
297025,2022-11-25_17h23.20.058,vts_reward_expectancy_bt,2022.2.4,Win32,60.6575276,Chrome,1536,864,,,,,0,522,,,,,,,,,,,,,,,,,181,U,hexagon,1,0,,,2,,,,,,,,,,,,,switch,letter,lettSwt,k,1.4514,vtsPrac,10,0,10,0,1,,,,,,,,,,,,,,,,,,,,,,,
297025,2022-11-25_17h23.20.058,vts_reward_expectancy_bt,2022.2.4,Win32,60.6575276,Chrome,1536,864,,,,,0,522,,,,,,,,,,,,,,,,,132,W,star,1,0,,,2,,,,,,,,,,,,,switch,number,numSwt,d,0.6016,vtsPrac,11,0,11,0,1,,,,,,,,,,,,,,,,,,,,,,,
297025,2022-11-25_17h23.20.058,vts_reward_expectancy_bt,2022.2.4,Win32,60.6575276,Chrome,1536,864,,,,,0,522,,,,,,,,,,,,,,,,,181,H,hexagon,1,0,,,2,,,,,,,,,,,,,switch,letter,lettSwt,j,1.4513,vtsPrac,12,0,12,0,1,,,,,,,,,,,,,,,,,,,,,,,
297025,2022-11-25_17h23.20.058,vts_reward_expectancy_bt,2022.2.4,Win32,60.6575276,Chrome,1536,864,,,,,0,522,,,,,,,,,,,,,,,,,167,U,triangle,1,0,,,2,,,,,,,,,,,,,switch,number,numSwt,f,1.7348,vtsPrac,13,0,13,0,1,,,,,,,,,,,,,,,,,,,,,,,
297025,2022-11-25_17h23.20.058,vts_reward_expectancy_bt,2022.2.4,Win32,60.6575276,Chrome,1536,864,,,,,0,522,,,,,,,,,,,,,,,,,139,W,triangle,1,0,,,2,,,,,,,,,,,,,repeat,number,numRpt,d,2.5053,vtsPrac,14,0,14,0,1,,,,,,,,,,,,,,,,,,,,,,,
297025,2022-11-25_17h23.20.058,vts_reward_expectancy_bt,2022.2.4,Win32,60.6575276,Chrome,1536,864,,,,,0,522,,,,,,,,,,,,,,,,,160,S,hexagon,1,0,,,2,,,,,,,,,,,,,repeat,number,numRpt,f,2.4677,vtsPrac,15,0,15,0,1,,,,,,,,,,,,,,,,,,,,,,,
297025,2022-11-25_17h23.20.058,vts_reward_expectancy_bt,2022.2.4,Win32,60.6575276,Chrome,1536,864,,,,,0,522,,,,,,,,,,,,,,,,,167,S,star,1,0,,,2,,,,,,,,,,,,,repeat,number,numRpt,f,0.9395,vtsPrac,16,0,16,0,1,,,,,,,,,,,,,,,,,,,,,,,
297025,2022-11-25_17h23.20.058,vts_reward_expectancy_bt,2022.2.4,Win32,60.6575276,Chrome,1536,864,,,,,0,522,,,,,,,,,,,,,,,,,174,D,hexagon,1,0,,,2,,,,,,,,,,,,,switch,letter,lettSwt,j,2.0338,vtsPrac,17,0,17,0,1,,,,,,,,,,,,,,,,,,,,,,,
297025,2022-11-25_17h23.20.058,vts_reward_expectancy_bt,2022.2.4,Win32,60.6575276,Chrome,1536,864,,,,,0,522,,,,,,,,,,,,,,,,,146,H,hexagon,1,0,,,2,,,,,,,,,,,,,switch,number,numSwt,d,1.3748,vtsPrac,18,0,18,0,1,,,,,,,,,,,,,,,,,,,,,,,
297025,2022-11-25_17h23.20.058,vts_reward_expectancy_bt,2022.2.4,Win32,60.6575276,Chrome,1536,864,,,,,0,522,,,,,,,,,,,,,,,,,160,F,triangle,1,0,,,2,,,,,,,,,,,,,repeat,number,numRpt,f,2.8923,vtsPrac,19,0,19,0,1,,,,,,,,,,,,,,,,,,,,,,,
297025,2022-11-25_17h23.20.058,vts_reward_expectancy_bt,2022.2.4,Win32,60.6575276,Chrome,1536,864,,,,,0,522,,,,,,,,,,,,,,,,,125,B,triangle,1,0,,,2,,,,,,,,,,,,,switch,letter,lettSwt,j,0.9015,vtsPrac,20,0,20,0,1,,,,,,,,,,,,,,,,,,,,,,,
297025,2022-11-25_17h23.20.058,vts_reward_expectancy_bt,2022.2.4,Win32,60.6575276,Chrome,1536,864,,,,,0,522,,,,,,,,,,,,,,,,,160,F,star,1,0,,,2,,,,,,,,,,,,,switch,number,numSwt,f,0.7343,vtsPrac,21,0,21,0,1,,,,,,,,,,,,,,,,,,,,,,,
297025,2022-11-25_17h23.20.058,vts_reward_expectancy_bt,2022.2.4,Win32,60.6575276,Chrome,1536,864,,,,,0,522,,,,,,,,,,,,,,,,,132,S,star,1,0,,,2,,,,,,,,,,,,,switch,letter,lettSwt,k,1.2036,vtsPrac,22,0,22,0,1,,,,,,,,,,,,,,,,,,,,,,,
297025,2022-11-25_17h23.20.058,vts_reward_expectancy_bt,2022.2.4,Win32,60.6575276,Chrome,1536,864,,,,,0,522,,,,,,,,,,,,,,,,,139,D,circle,1,0,,,2,,,,,,,,,,,,,repeat,letter,lettRpt,j,1.6525,vtsPrac,23,0,23,0,1,,,,,,,,,,,,,,,,,,,,,,,
297025,2022-11-25_17h23.20.058,vts_reward_expectancy_bt,2022.2.4,Win32,60.6575276,Chrome,1536,864,,,,,0,522,,,,,,,,,,,,,,,,,160,F,circle,1,0,,,2,,,,,,,,,,,,,repeat,letter,lettRpt,j,1.1676,vtsPrac,24,0,24,0,1,,,,,,,,,,,,,,,,,,,,,,,
297025,2022-11-25_17h23.20.058,vts_reward_expectancy_bt,2022.2.4,Win32,60.6575276,Chrome,1536,864,,,,,0,522,,,,,,,,,,,,,,,,,181,D,star,1,0,,,2,,,,,,,,,,,,,switch,number,numSwt,f,0.6179,vtsPrac,25,0,25,0,1,,,,,,,,,,,,,,,,,,,,,,,
297025,2022-11-25_17h23.20.058,vts_reward_expectancy_bt,2022.2.4,Win32,60.6575276,Chrome,1536,864,,,,,0,522,,,,,,,,,,,,,,,,,139,S,hexagon,0,0,,,2,,,,,,,,,,,,,switch,letter,NA,j,1.0675,vtsPrac,26,0,26,0,1,,,,,,,,,,,,,,,,,,,,,,,
297025,2022-11-25_17h23.20.058,vts_reward_expectancy_bt,2022.2.4,Win32,60.6575276,Chrome,1536,864,,,,,0,522,,,,,,,,,,,,,,,,,125,W,star,1,1,,,2,,,,,,,,,,,,,repeat,letter,lettRpt,k,1.5362,vtsPrac,27,0,27,0,1,,,,,,,,,,,,,,,,,,,,,,,
297025,2022-11-25_17h23.20.058,vts_reward_expectancy_bt,2022.2.4,Win32,60.6575276,Chrome,1536,864,,,,,0,522,,,,,,,,,,,,,,,,,167,D,star,1,0,,,2,,,,,,,,,,,,,switch,number,numSwt,f,0.9876,vtsPrac,28,0,28,0,1,,,,,,,,,,,,,,,,,,,,,,,
297025,2022-11-25_17h23.20.058,vts_reward_expectancy_bt,2022.2.4,Win32,60.6575276,Chrome,1536,864,,,,,0,522,,,,,,,,,,,,,,,,,174,H,circle,1,0,,,2,,,,,,,,,,,,,switch,letter,lettSwt,j,1.457,vtsPrac,29,0,29,0,1,,,,,,,,,,,,,,,,,,,,,,,
297025,2022-11-25_17h23.20.058,vts_reward_expectancy_bt,2022.2.4,Win32,60.6575276,Chrome,1536,864,,,,,0,522,,,,,,,,,,,,,,,,,160,B,triangle,1,0,,,2,,,,,,,,,,,,,switch,number,numSwt,f,0.5894,vtsPrac,30,0,30,0,1,,,,,,,,,,,,,,,,,,,,,,,
297025,2022-11-25_17h23.20.058,vts_reward_expectancy_bt,2022.2.4,Win32,60.6575276,Chrome,1536,864,,,,,0,522,,,,,,,,,,,,,,,,,181,U,star,1,0,,,2,,,,,,,,,,,,,switch,letter,lettSwt,k,1.4174,vtsPrac,31,0,31,0,1,,,,,,,,,,,,,,,,,,,,,,,
297025,2022-11-25_17h23.20.058,vts_reward_expectancy_bt,2022.2.4,Win32,60.6575276,Chrome,1536,864,,,,,,,,,,,,,,,,,,,,,,,,,,,,,,,,,,,,,,,,,,,,,,,,,,,,,,,,,,,,,,,,,,,,,,,,,,,,
297025,2022-11-25_17h23.20.058,vts_reward_expectancy_bt,2022.2.4,Win32,60.6575276,Chrome,1536,864,,,,,,,,,,,,,,,,,,,,,,,,,,,,,,,,,,,,,,,,,,,,,,,,,,,,,,,,,,,,,,,,,,,,,,,,,,,,
297025,2022-11-25_17h23.20.058,vts_reward_expectancy_bt,2022.2.4,Win32,60.6575276,Chrome,1536,864,,,,,0,522,,,,,,,,,,,,,,,,,181,W,star,-1,0,,,,,,,,,,,,,,,,switch,no_choice,NA,,,noRew,,,,,,0,0,0,0,0,1,,,,,,,,,,,,,,,,,
297025,2022-11-25_17h23.20.058,vts_reward_expectancy_bt,2022.2.4,Win32,60.6575276,Chrome,1536,864,,,,,0,522,,,,,,,,,,,,,,,,,139,S,hexagon,1,0,,,,,,,,,,,,,,,,switch,letter,lettSwt,k,0.8017,noRew,,,,,,0,1,0,1,0,1,,,,,,,,,,,,,,,,,
297025,2022-11-25_17h23.20.058,vts_reward_expectancy_bt,2022.2.4,Win32,60.6575276,Chrome,1536,864,,,,,0,522,,,,,,,,,,,,,,,,,160,B,star,0,0,,,,,,,,,,,,,,,,switch,number,NA,d,1.4538,noRew,,,,,,0,2,0,2,0,1,,,,,,,,,,,,,,,,,
297025,2022-11-25_17h23.20.058,vts_reward_expectancy_bt,2022.2.4,Win32,60.6575276,Chrome,1536,864,,,,,0,522,,,,,,,,,,,,,,,,,132,D,hexagon,1,1,,,,,,,,,,,,,,,,repeat,number,numRpt,d,0.6229,noRew,,,,,,0,3,0,3,0,1,,,,,,,,,,,,,,,,,
297025,2022-11-25_17h23.20.058,vts_reward_expectancy_bt,2022.2.4,Win32,60.6575276,Chrome,1536,864,,,,,0,522,,,,,,,,,,,,,,,,,181,W,hexagon,1,0,,,,,,,,,,,,,,,,switch,letter,lettSwt,k,1.2841,noRew,,,,,,0,4,0,4,0,1,,,,,,,,,,,,,,,,,
297025,2022-11-25_17h23.20.058,vts_reward_expectancy_bt,2022.2.4,Win32,60.6575276,Chrome,1536,864,,,,,0,522,,,,,,,,,,,,,,,,,139,S,star,1,0,,,,,,,,,,,,,,,,repeat,letter,lettRpt,k,0.5872,noRew,,,,,,0,5,0,5,0,1,,,,,,,,,,,,,,,,,
297025,2022-11-25_17h23.20.058,vts_reward_expectancy_bt,2022.2.4,Win32,60.6575276,Chrome,1536,864,,,,,0,522,,,,,,,,,,,,,,,,,160,B,star,1,0,,,,,,,,,,,,,,,,switch,number,numSwt,f,0.5028,noRew,,,,,,0,6,0,6,0,1,,,,,,,,,,,,,,,,,
297025,2022-11-25_17h23.20.058,vts_reward_expectancy_bt,2022.2.4,Win32,60.6575276,Chrome,1536,864,,,,,0,522,,,,,,,,,,,,,,,,,132,D,circle,1,0,,,,,,,,,,,,,,,,switch,letter,lettSwt,j,0.9364,noRew,,,,,,0,7,0,7,0,1,,,,,,,,,,,,,,,,,
297025,2022-11-25_17h23.20.058,vts_reward_expectancy_bt,2022.2.4,Win32,60.6575276,Chrome,1536,864,,,,,0,522,,,,,,,,,,,,,,,,,160,F,hexagon,1,0,,,,,,,,,,,,,,,,switch,number,numSwt,f,0.6541,noRew,,,,,,0,8,0,8,0,1,,,,,,,,,,,,,,,,,
297025,2022-11-25_17h23.20.058,vts_reward_expectancy_bt,2022.2.4,Win32,60.6575276,Chrome,1536,864,,,,,0,522,,,,,,,,,,,,,,,,,132,U,triangle,1,0,,,,,,,,,,,,,,,,repeat,number,numRpt,d,0.6845,noRew,,,,,,0,9,0,9,0,1,,,,,,,,,,,,,,,,,
297025,2022-11-25_17h23.20.058,vts_reward_expectancy_bt,2022.2.4,Win32,60.6575276,Chrome,1536,864,,,,,0,522,,,,,,,,,,,,,,,,,139,B,hexagon,1,0,,,,,,,,,,,,,,,,repeat,number,numRpt,d,0.5741,noRew,,,,,,0,10,0,10,0,1,,,,,,,,,,,,,,,,,
297025,2022-11-25_17h23.20.058,vts_reward_expectancy_bt,2022.2.4,Win32,60.6575276,Chrome,1536,864,,,,,0,522,,,,,,,,,,,,,,,,,181,H,circle,1,0,,,,,,,,,,,,,,,,repeat,number,numRpt,f,0.6908,noRew,,,,,,0,11,0,11,0,1,,,,,,,,,,,,,,,,,
297025,2022-11-25_17h23.20.058,vts_reward_expectancy_bt,2022.2.4,Win32,60.6575276,Chrome,1536,864,,,,,0,522,,,,,,,,,,,,,,,,,132,B,circle,1,0,,,,,,,,,,,,,,,,repeat,number,numRpt,d,0.621,noRew,,,,,,0,12,0,12,0,1,,,,,,,,,,,,,,,,,
297025,2022-11-25_17h23.20.058,vts_reward_expectancy_bt,2022.2.4,Win32,60.6575276,Chrome,1536,864,,,,,0,522,,,,,,,,,,,,,,,,,167,H,star,1,0,,,,,,,,,,,,,,,,switch,letter,lettSwt,j,0.6889,noRew,,,,,,0,13,0,13,0,1,,,,,,,,,,,,,,,,,
297025,2022-11-25_17h23.20.058,vts_reward_expectancy_bt,2022.2.4,Win32,60.6575276,Chrome,1536,864,,,,,0,522,,,,,,,,,,,,,,,,,181,S,triangle,1,0,,,,,,,,,,,,,,,,switch,number,numSwt,f,0.7394,noRew,,,,,,0,14,0,14,0,1,,,,,,,,,,,,,,,,,
297025,2022-11-25_17h23.20.058,vts_reward_expectancy_bt,2022.2.4,Win32,60.6575276,Chrome,1536,864,,,,,0,522,,,,,,,,,,,,,,,,,139,F,star,1,0,,,,,,,,,,,,,,,,repeat,number,numRpt,d,2.2507,noRew,,,,,,0,15,0,15,0,1,,,,,,,,,,,,,,,,,
297025,2022-11-25_17h23.20.058,vts_reward_expectancy_bt,2022.2.4,Win32,60.6575276,Chrome,1536,864,,,,,0,522,,,,,,,,,,,,,,,,,132,H,hexagon,1,0,,,,,,,,,,,,,,,,repeat,number,numRpt,d,0.7582,noRew,,,,,,0,16,0,16,0,1,,,,,,,,,,,,,,,,,
297025,2022-11-25_17h23.20.058,vts_reward_expectancy_bt,2022.2.4,Win32,60.6575276,Chrome,1536,864,,,,,0,522,,,,,,,,,,,,,,,,,146,W,star,0,0,,,,,,,,,,,,,,,,repeat,number,NA,f,0.5891,noRew,,,,,,0,17,0,17,0,1,,,,,,,,,,,,,,,,,
297025,2022-11-25_17h23.20.058,vts_reward_expectancy_bt,2022.2.4,Win32,60.6575276,Chrome,1536,864,,,,,0,522,,,,,,,,,,,,,,,,,125,S,circle,1,1,,,,,,,,,,,,,,,,switch,letter,lettSwt,k,0.6905,noRew,,,,,,0,18,0,18,0,1,,,,,,,,,,,,,,,,,
297025,2022-11-25_17h23.20.058,vts_reward_expectancy_bt,2022.2.4,Win32,60.6575276,Chrome,1536,864,,,,,0,522,,,,,,,,,,,,,,,,,174,Y,hexagon,1,0,,,,,,,,,,,,,,,,repeat,letter,lettRpt,k,0.6577,noRew,,,,,,0,19,0,19,0,1,,,,,,,,,,,,,,,,,
297025,2022-11-25_17h23.20.058,vts_reward_expectancy_bt,2022.2.4,Win32,60.6575276,Chrome,1536,864,,,,,0,522,,,,,,,,,,,,,,,,,132,F,circle,1,0,,,,,,,,,,,,,,,,switch,number,numSwt,d,0.6853,noRew,,,,,,0,20,0,20,0,1,,,,,,,,,,,,,,,,,
297025,2022-11-25_17h23.20.058,vts_reward_expectancy_bt,2022.2.4,Win32,60.6575276,Chrome,1536,864,,,,,0,522,,,,,,,,,,,,,,,,,174,Y,hexagon,1,0,,,,,,,,,,,,,,,,switch,letter,lettSwt,k,0.6555,noRew,,,,,,0,21,0,21,0,1,,,,,,,,,,,,,,,,,
297025,2022-11-25_17h23.20.058,vts_reward_expectancy_bt,2022.2.4,Win32,60.6575276,Chrome,1536,864,,,,,0,522,,,,,,,,,,,,,,,,,139,S,star,1,0,,,,,,,,,,,,,,,,repeat,letter,lettRpt,k,0.5511,noRew,,,,,,0,22,0,22,0,1,,,,,,,,,,,,,,,,,
297025,2022-11-25_17h23.20.058,vts_reward_expectancy_bt,2022.2.4,Win32,60.6575276,Chrome,1536,864,,,,,0,522,,,,,,,,,,,,,,,,,167,H,hexagon,1,0,,,,,,,,,,,,,,,,switch,number,numSwt,f,0.5065,noRew,,,,,,0,23,0,23,0,1,,,,,,,,,,,,,,,,,
297025,2022-11-25_17h23.20.058,vts_reward_expectancy_bt,2022.2.4,Win32,60.6575276,Chrome,1536,864,,,,,0,522,,,,,,,,,,,,,,,,,167,Y,hexagon,1,0,,,,,,,,,,,,,,,,switch,letter,lettSwt,k,0.5178,noRew,,,,,,0,24,0,24,0,1,,,,,,,,,,,,,,,,,
297025,2022-11-25_17h23.20.058,vts_reward_expectancy_bt,2022.2.4,Win32,60.6575276,Chrome,1536,864,,,,,0,522,,,,,,,,,,,,,,,,,139,D,triangle,1,0,,,,,,,,,,,,,,,,repeat,letter,lettRpt,j,0.7381,noRew,,,,,,0,25,0,25,0,1,,,,,,,,,,,,,,,,,
297025,2022-11-25_17h23.20.058,vts_reward_expectancy_bt,2022.2.4,Win32,60.6575276,Chrome,1536,864,,,,,0,522,,,,,,,,,,,,,,,,,146,W,star,1,0,,,,,,,,,,,,,,,,switch,number,numSwt,d,0.534,noRew,,,,,,0,26,0,26,0,1,,,,,,,,,,,,,,,,,
297025,2022-11-25_17h23.20.058,vts_reward_expectancy_bt,2022.2.4,Win32,60.6575276,Chrome,1536,864,,,,,0,522,,,,,,,,,,,,,,,,,125,H,hexagon,1,0,,,,,,,,,,,,,,,,repeat,number,numRpt,d,0.7184,noRew,,,,,,0,27,0,27,0,1,,,,,,,,,,,,,,,,,
297025,2022-11-25_17h23.20.058,vts_reward_expectancy_bt,2022.2.4,Win32,60.6575276,Chrome,1536,864,,,,,0,522,,,,,,,,,,,,,,,,,125,F,star,1,0,,,,,,,,,,,,,,,,switch,letter,lettSwt,j,1.2594,noRew,,,,,,0,28,0,28,0,1,,,,,,,,,,,,,,,,,
297025,2022-11-25_17h23.20.058,vts_reward_expectancy_bt,2022.2.4,Win32,60.6575276,Chrome,1536,864,,,,,0,522,,,,,,,,,,,,,,,,,160,D,triangle,1,0,,,,,,,,,,,,,,,,switch,number,numSwt,f,0.5506,noRew,,,,,,0,29,0,29,0,1,,,,,,,,,,,,,,,,,
297025,2022-11-25_17h23.20.058,vts_reward_expectancy_bt,2022.2.4,Win32,60.6575276,Chrome,1536,864,,,,,0,522,,,,,,,,,,,,,,,,,146,S,hexagon,1,0,,,,,,,,,,,,,,,,switch,letter,lettSwt,k,0.534,noRew,,,,,,0,30,0,30,0,1,,,,,,,,,,,,,,,,,
297025,2022-11-25_17h23.20.058,vts_reward_expectancy_bt,2022.2.4,Win32,60.6575276,Chrome,1536,864,,,,,0,522,,,,,,,,,,,,,,,,,167,U,star,1,0,,,,,,,,,,,,,,,,switch,number,numSwt,f,0.5012,noRew,,,,,,0,31,0,31,0,1,,,,,,,,,,,,,,,,,
297025,2022-11-25_17h23.20.058,vts_reward_expectancy_bt,2022.2.4,Win32,60.6575276,Chrome,1536,864,,,,,0,522,,,,,,,,,,,,,,,,,174,Y,hexagon,1,0,,,,,,,,,,,,,,,,switch,letter,lettSwt,k,0.4552,noRew,,,,,,0,32,0,32,0,1,,,,,,,,,,,,,,,,,
297025,2022-11-25_17h23.20.058,vts_reward_expectancy_bt,2022.2.4,Win32,60.6575276,Chrome,1536,864,,,,,0,522,,,,,,,,,,,,,,,,,132,W,star,1,0,,,,,,,,,,,,,,,,switch,number,numSwt,d,0.6224,noRew,,,,,,0,33,0,33,0,1,,,,,,,,,,,,,,,,,
297025,2022-11-25_17h23.20.058,vts_reward_expectancy_bt,2022.2.4,Win32,60.6575276,Chrome,1536,864,,,,,0,522,,,,,,,,,,,,,,,,,139,D,hexagon,1,0,,,,,,,,,,,,,,,,switch,letter,lettSwt,j,0.6511,noRew,,,,,,0,34,0,34,0,1,,,,,,,,,,,,,,,,,
297025,2022-11-25_17h23.20.058,vts_reward_expectancy_bt,2022.2.4,Win32,60.6575276,Chrome,1536,864,,,,,0,522,,,,,,,,,,,,,,,,,146,F,circle,1,0,,,,,,,,,,,,,,,,repeat,letter,lettRpt,j,0.8085,noRew,,,,,,0,35,0,35,0,1,,,,,,,,,,,,,,,,,
297025,2022-11-25_17h23.20.058,vts_reward_expectancy_bt,2022.2.4,Win32,60.6575276,Chrome,1536,864,,,,,0,522,,,,,,,,,,,,,,,,,160,D,hexagon,1,0,,,,,,,,,,,,,,,,switch,number,numSwt,f,1.2409,noRew,,,,,,0,36,0,36,0,1,,,,,,,,,,,,,,,,,
297025,2022-11-25_17h23.20.058,vts_reward_expectancy_bt,2022.2.4,Win32,60.6575276,Chrome,1536,864,,,,,0,522,,,,,,,,,,,,,,,,,132,F,star,1,0,,,,,,,,,,,,,,,,repeat,number,numRpt,d,1.5645,noRew,,,,,,0,37,0,37,0,1,,,,,,,,,,,,,,,,,
297025,2022-11-25_17h23.20.058,vts_reward_expectancy_bt,2022.2.4,Win32,60.6575276,Chrome,1536,864,,,,,0,522,,,,,,,,,,,,,,,,,181,W,star,1,0,,,,,,,,,,,,,,,,switch,letter,lettSwt,k,0.5671,noRew,,,,,,0,38,0,38,0,1,,,,,,,,,,,,,,,,,
297025,2022-11-25_17h23.20.058,vts_reward_expectancy_bt,2022.2.4,Win32,60.6575276,Chrome,1536,864,,,,,0,522,,,,,,,,,,,,,,,,,167,B,triangle,1,0,,,,,,,,,,,,,,,,switch,number,numSwt,f,0.5835,noRew,,,,,,0,39,0,39,0,1,,,,,,,,,,,,,,,,,
297025,2022-11-25_17h23.20.058,vts_reward_expectancy_bt,2022.2.4,Win32,60.6575276,Chrome,1536,864,,,,,0,522,,,,,,,,,,,,,,,,,139,B,hexagon,1,0,,,,,,,,,,,,,,,,switch,letter,lettSwt,j,0.6705,noRew,,,,,,0,40,0,40,0,1,,,,,,,,,,,,,,,,,
297025,2022-11-25_17h23.20.058,vts_reward_expectancy_bt,2022.2.4,Win32,60.6575276,Chrome,1536,864,,,,,0,522,,,,,,,,,,,,,,,,,146,W,star,1,0,,,,,,,,,,,,,,,,switch,number,numSwt,d,0.8694,noRew,,,,,,0,41,0,41,0,1,,,,,,,,,,,,,,,,,
297025,2022-11-25_17h23.20.058,vts_reward_expectancy_bt,2022.2.4,Win32,60.6575276,Chrome,1536,864,,,,,0,522,,,,,,,,,,,,,,,,,181,U,triangle,1,0,,,,,,,,,,,,,,,,repeat,number,numRpt,f,0.5919,noRew,,,,,,0,42,0,42,0,1,,,,,,,,,,,,,,,,,
297025,2022-11-25_17h23.20.058,vts_reward_expectancy_bt,2022.2.4,Win32,60.6575276,Chrome,1536,864,,,,,0,522,,,,,,,,,,,,,,,,,174,H,circle,1,0,,,,,,,,,,,,,,,,repeat,number,numRpt,f,0.651,noRew,,,,,,0,43,0,43,0,1,,,,,,,,,,,,,,,,,
297025,2022-11-25_17h23.20.058,vts_reward_expectancy_bt,2022.2.4,Win32,60.6575276,Chrome,1536,864,,,,,0,522,,,,,,,,,,,,,,,,,125,U,circle,1,0,,,,,,,,,,,,,,,,switch,letter,lettSwt,k,0.7509,noRew,,,,,,0,44,0,44,0,1,,,,,,,,,,,,,,,,,
297025,2022-11-25_17h23.20.058,vts_reward_expectancy_bt,2022.2.4,Win32,60.6575276,Chrome,1536,864,,,,,0,522,,,,,,,,,,,,,,,,,139,Y,triangle,1,0,,,,,,,,,,,,,,,,repeat,letter,lettRpt,k,0.6842,noRew,,,,,,0,45,0,45,0,1,,,,,,,,,,,,,,,,,
297025,2022-11-25_17h23.20.058,vts_reward_expectancy_bt,2022.2.4,Win32,60.6575276,Chrome,1536,864,,,,,0,522,,,,,,,,,,,,,,,,,146,S,star,1,0,,,,,,,,,,,,,,,,repeat,letter,lettRpt,k,0.9058,noRew,,,,,,0,46,0,46,0,1,,,,,,,,,,,,,,,,,
297025,2022-11-25_17h23.20.058,vts_reward_expectancy_bt,2022.2.4,Win32,60.6575276,Chrome,1536,864,,,,,0,522,,,,,,,,,,,,,,,,,160,F,triangle,1,0,,,,,,,,,,,,,,,,repeat,letter,lettRpt,j,1.2507,noRew,,,,,,0,47,0,47,0,1,,,,,,,,,,,,,,,,,
297025,2022-11-25_17h23.20.058,vts_reward_expectancy_bt,2022.2.4,Win32,60.6575276,Chrome,1536,864,,,,,0,522,,,,,,,,,,,,,,,,,181,F,hexagon,1,0,,,,,,,,,,,,,,,,switch,number,numSwt,f,1.6508,noRew,,,,,,0,48,0,48,0,1,,,,,,,,,,,,,,,,,
297025,2022-11-25_17h23.20.058,vts_reward_expectancy_bt,2022.2.4,Win32,60.6575276,Chrome,1536,864,,,,,0,522,,,,,,,,,,,,,,,,,174,D,circle,1,0,,,,,,,,,,,,,,,,repeat,number,numRpt,f,1.1998,noRew,,,,,,0,49,0,49,0,1,,,,,,,,,,,,,,,,,
297025,2022-11-25_17h23.20.058,vts_reward_expectancy_bt,2022.2.4,Win32,60.6575276,Chrome,1536,864,,,,,0,522,,,,,,,,,,,,,,,,,139,U,star,1,0,,,,,,,,,,,,,,,,switch,letter,lettSwt,k,1.4089,noRew,,,,,,0,50,0,50,0,1,,,,,,,,,,,,,,,,,
297025,2022-11-25_17h23.20.058,vts_reward_expectancy_bt,2022.2.4,Win32,60.6575276,Chrome,1536,864,,,,,0,522,,,,,,,,,,,,,,,,,146,S,triangle,1,0,,,,,,,,,,,,,,,,repeat,letter,lettRpt,k,1.0176,noRew,,,,,,0,51,0,51,0,1,,,,,,,,,,,,,,,,,
297025,2022-11-25_17h23.20.058,vts_reward_expectancy_bt,2022.2.4,Win32,60.6575276,Chrome,1536,864,,,,,0,522,,,,,,,,,,,,,,,,,125,B,star,-1,0,,,,,,,,,,,,,,,,switch,no_choice,NA,,,noRew,,,,,,0,52,0,52,0,1,,,,,,,,,,,,,,,,,
297025,2022-11-25_17h23.20.058,vts_reward_expectancy_bt,2022.2.4,Win32,60.6575276,Chrome,1536,864,,,,,0,522,,,,,,,,,,,,,,,,,146,S,triangle,1,0,,,,,,,,,,,,,,,,switch,letter,lettSwt,k,0.8895,noRew,,,,,,0,53,0,53,0,1,,,,,,,,,,,,,,,,,
297025,2022-11-25_17h23.20.058,vts_reward_expectancy_bt,2022.2.4,Win32,60.6575276,Chrome,1536,864,,,,,0,522,,,,,,,,,,,,,,,,,160,D,circle,1,0,,,,,,,,,,,,,,,,switch,number,numSwt,f,0.6704,noRew,,,,,,0,54,0,54,0,1,,,,,,,,,,,,,,,,,
297025,2022-11-25_17h23.20.058,vts_reward_expectancy_bt,2022.2.4,Win32,60.6575276,Chrome,1536,864,,,,,0,522,,,,,,,,,,,,,,,,,132,F,triangle,1,0,,,,,,,,,,,,,,,,repeat,number,numRpt,d,0.7169,noRew,,,,,,0,55,0,55,0,1,,,,,,,,,,,,,,,,,
297025,2022-11-25_17h23.20.058,vts_reward_expectancy_bt,2022.2.4,Win32,60.6575276,Chrome,1536,864,,,,,0,522,,,,,,,,,,,,,,,,,139,U,hexagon,1,0,,,,,,,,,,,,,,,,switch,letter,lettSwt,k,0.9335,noRew,,,,,,0,56,0,56,0,1,,,,,,,,,,,,,,,,,
297025,2022-11-25_17h23.20.058,vts_reward_expectancy_bt,2022.2.4,Win32,60.6575276,Chrome,1536,864,,,,,0,522,,,,,,,,,,,,,,,,,174,F,circle,1,0,,,,,,,,,,,,,,,,repeat,letter,lettRpt,j,1.9515,noRew,,,,,,0,57,0,57,0,1,,,,,,,,,,,,,,,,,
297025,2022-11-25_17h23.20.058,vts_reward_expectancy_bt,2022.2.4,Win32,60.6575276,Chrome,1536,864,,,,,0,522,,,,,,,,,,,,,,,,,146,Y,star,1,0,,,,,,,,,,,,,,,,repeat,letter,lettRpt,k,1.1177,noRew,,,,,,0,58,0,58,0,1,,,,,,,,,,,,,,,,,
297025,2022-11-25_17h23.20.058,vts_reward_expectancy_bt,2022.2.4,Win32,60.6575276,Chrome,1536,864,,,,,0,522,,,,,,,,,,,,,,,,,132,W,circle,1,0,,,,,,,,,,,,,,,,repeat,letter,lettRpt,k,0.7361,noRew,,,,,,0,59,0,59,0,1,,,,,,,,,,,,,,,,,
297025,2022-11-25_17h23.20.058,vts_reward_expectancy_bt,2022.2.4,Win32,60.6575276,Chrome,1536,864,,,,,0,522,,,,,,,,,,,,,,,,,181,H,triangle,0,0,,,,,,,,,,,,,,,,repeat,letter,NA,k,1.0011,noRew,,,,,,0,60,0,60,0,1,,,,,,,,,,,,,,,,,
297025,2022-11-25_17h23.20.058,vts_reward_expectancy_bt,2022.2.4,Win32,60.6575276,Chrome,1536,864,,,,,0,522,,,,,,,,,,,,,,,,,167,Y,star,1,1,,,,,,,,,,,,,,,,repeat,letter,lettRpt,k,0.7017,noRew,,,,,,0,61,0,61,0,1,,,,,,,,,,,,,,,,,
297025,2022-11-25_17h23.20.058,vts_reward_expectancy_bt,2022.2.4,Win32,60.6575276,Chrome,1536,864,,,,,0,522,,,,,,,,,,,,,,,,,139,W,circle,1,0,,,,,,,,,,,,,,,,switch,number,numSwt,d,1.6176,noRew,,,,,,0,62,0,62,0,1,,,,,,,,,,,,,,,,,
297025,2022-11-25_17h23.20.058,vts_reward_expectancy_bt,2022.2.4,Win32,60.6575276,Chrome,1536,864,,,,,0,522,,,,,,,,,,,,,,,,,146,B,star,1,0,,,,,,,,,,,,,,,,repeat,number,numRpt,d,0.6509,noRew,,,,,,0,63,0,63,0,1,,,,,,,,,,,,,,,,,
297025,2022-11-25_17h23.20.058,vts_reward_expectancy_bt,2022.2.4,Win32,60.6575276,Chrome,1536,864,,,,,,,,,,,,,,,,,,,,,,,,,,,,,,,,,,,,,,,,,,,,,,,,,,,,,,,,,,,,,,,,,,,,,,,,,,,,
297025,2022-11-25_17h23.20.058,vts_reward_expectancy_bt,2022.2.4,Win32,60.6575276,Chrome,1536,864,,,,,1,523,,,,,,,,,,,,,,,,,139,Y,hexagon,1,0,,,,,,,,,,,,,,,,repeat,number,numRpt,d,0.668,Lo,,,,,,0,,,,,,space,6.9251,high,0,0,0,0,1,,,,,,,,,
297025,2022-11-25_17h23.20.058,vts_reward_expectancy_bt,2022.2.4,Win32,60.6575276,Chrome,1536,864,,,,,1,524,,,,,,,,,,,,,,,,,181,H,circle,1,0,,,,,,,,,,,,,,,,switch,letter,lettSwt,j,0.5404,Lo,,,,,,0,,,,,,,,high,1,0,1,0,1,,,,,,,,,
297025,2022-11-25_17h23.20.058,vts_reward_expectancy_bt,2022.2.4,Win32,60.6575276,Chrome,1536,864,,,,,0,524,,,,,,,,,,,,,,,,,160,F,star,0,0,,,,,,,,,,,,,,,,switch,number,NA,d,1.1342,Lo,,,,,,0,,,,,,,,high,2,0,2,0,1,,,,,,,,,
297025,2022-11-25_17h23.20.058,vts_reward_expectancy_bt,2022.2.4,Win32,60.6575276,Chrome,1536,864,,,,,10,534,,,,,,,,,,,,,,,,,125,B,triangle,1,1,,,,,,,,,,,,,,,,repeat,number,numRpt,d,0.6087,Hi,,,,,,0,,,,,,,,high,3,0,3,0,1,,,,,,,,,
297025,2022-11-25_17h23.20.058,vts_reward_expectancy_bt,2022.2.4,Win32,60.6575276,Chrome,1536,864,,,,,10,544,,,,,,,,,,,,,,,,,167,S,hexagon,1,0,,,,,,,,,,,,,,,,repeat,number,numRpt,f,0.5026,Lo,,,,,,0,,,,,,,,high,4,0,4,0,1,,,,,,,,,
297025,2022-11-25_17h23.20.058,vts_reward_expectancy_bt,2022.2.4,Win32,60.6575276,Chrome,1536,864,,,,,10,554,,,,,,,,,,,,,,,,,146,U,circle,1,0,,,,,,,,,,,,,,,,switch,letter,lettSwt,k,0.7015,Lo,,,,,,0,,,,,,,,high,5,0,5,0,1,,,,,,,,,
297025,2022-11-25_17h23.20.058,vts_reward_expectancy_bt,2022.2.4,Win32,60.6575276,Chrome,1536,864,,,,,0,554,,,,,,,,,,,,,,,,,132,W,star,1,0,,,,,,,,,,,,,,,,switch,number,numSwt,d,0.6589,Hi,,,,,,0,,,,,,,,high,6,0,6,0,1,,,,,,,,,
297025,2022-11-25_17h23.20.058,vts_reward_expectancy_bt,2022.2.4,Win32,60.6575276,Chrome,1536,864,,,,,0,554,,,,,,,,,,,,,,,,,174,D,triangle,1,0,,,,,,,,,,,,,,,,switch,letter,lettSwt,j,0.7347,Hi,,,,,,0,,,,,,,,high,7,0,7,0,1,,,,,,,,,
297025,2022-11-25_17h23.20.058,vts_reward_expectancy_bt,2022.2.4,Win32,60.6575276,Chrome,1536,864,,,,,1,555,,,,,,,,,,,,,,,,,139,Y,hexagon,1,0,,,,,,,,,,,,,,,,switch,number,numSwt,d,0.9228,Lo,,,,,,0,,,,,,,,high,8,0,8,0,1,,,,,,,,,
297025,2022-11-25_17h23.20.058,vts_reward_expectancy_bt,2022.2.4,Win32,60.6575276,Chrome,1536,864,,,,,1,556,,,,,,,,,,,,,,,,,181,H,star,1,0,,,,,,,,,,,,,,,,switch,letter,lettSwt,j,0.6339,Hi,,,,,,0,,,,,,,,high,9,0,9,0,1,,,,,,,,,
297025,2022-11-25_17h23.20.058,vts_reward_expectancy_bt,2022.2.4,Win32,60.6575276,Chrome,1536,864,,,,,10,566,,,,,,,,,,,,,,,,,160,F,triangle,1,0,,,,,,,,,,,,,,,,switch,number,numSwt,f,0.5213,Hi,,,,,,0,,,,,,,,high,10,0,10,0,1,,,,,,,,,
297025,2022-11-25_17h23.20.058,vts_reward_expectancy_bt,2022.2.4,Win32,60.6575276,Chrome,1536,864,,,,,1,567,,,,,,,,,,,,,,,,,125,B,circle,1,0,,,,,,,,,,,,,,,,repeat,number,numRpt,d,0.5679,Lo,,,,,,0,,,,,,,,high,11,0,11,0,1,,,,,,,,,
297025,2022-11-25_17h23.20.058,vts_reward_expectancy_bt,2022.2.4,Win32,60.6575276,Chrome,1536,864,,,,,10,577,,,,,,,,,,,,,,,,,167,S,star,1,0,,,,,,,,,,,,,,,,repeat,number,numRpt,f,0.551,Hi,,,,,,0,,,,,,,,high,12,0,12,0,1,,,,,,,,,
297025,2022-11-25_17h23.20.058,vts_reward_expectancy_bt,2022.2.4,Win32,60.6575276,Chrome,1536,864,,,,,10,587,,,,,,,,,,,,,,,,,146,U,triangle,1,0,,,,,,,,,,,,,,,,repeat,number,numRpt,d,0.526,Hi,,,,,,0,,,,,,,,high,13,0,13,0,1,,,,,,,,,
297025,2022-11-25_17h23.20.058,vts_reward_expectancy_bt,2022.2.4,Win32,60.6575276,Chrome,1536,864,,,,,1,588,,,,,,,,,,,,,,,,,132,W,circle,1,0,,,,,,,,,,,,,,,,switch,letter,lettSwt,k,0.7186,Lo,,,,,,0,,,,,,,,high,14,0,14,0,1,,,,,,,,,
297025,2022-11-25_17h23.20.058,vts_reward_expectancy_bt,2022.2.4,Win32,60.6575276,Chrome,1536,864,,,,,10,598,,,,,,,,,,,,,,,,,174,D,hexagon,1,0,,,,,,,,,,,,,,,,repeat,letter,lettRpt,j,0.6369,Lo,,,,,,0,,,,,,,,high,15,0,15,0,1,,,,,,,,,
297025,2022-11-25_17h23.20.058,vts_reward_expectancy_bt,2022.2.4,Win32,60.6575276,Chrome,1536,864,,,,,1,599,,,,,,,,,,,,,,,,,174,S,circle,1,0,,,,,,,,,,,,,,,,switch,number,numSwt,f,0.6377,Lo,,,,,,0,,,,,,,,high,16,0,16,0,1,,,,,,,,,
297025,2022-11-25_17h23.20.058,vts_reward_expectancy_bt,2022.2.4,Win32,60.6575276,Chrome,1536,864,,,,,1,600,,,,,,,,,,,,,,,,,181,B,hexagon,1,0,,,,,,,,,,,,,,,,repeat,number,numRpt,f,0.6599,Lo,,,,,,0,,,,,,,,high,17,0,17,0,1,,,,,,,,,
297025,2022-11-25_17h23.20.058,vts_reward_expectancy_bt,2022.2.4,Win32,60.6575276,Chrome,1536,864,,,,,10,610,,,,,,,,,,,,,,,,,167,F,triangle,1,0,,,,,,,,,,,,,,,,repeat,number,numRpt,f,0.4387,Hi,,,,,,0,,,,,,,,high,18,0,18,0,1,,,,,,,,,
297025,2022-11-25_17h23.20.058,vts_reward_expectancy_bt,2022.2.4,Win32,60.6575276,Chrome,1536,864,,,,,0,610,,,,,,,,,,,,,,,,,146,W,star,0,0,,,,,,,,,,,,,,,,repeat,number,NA,f,0.5844,Hi,,,,,,0,,,,,,,,high,19,0,19,0,1,,,,,,,,,
297025,2022-11-25_17h23.20.058,vts_reward_expectancy_bt,2022.2.4,Win32,60.6575276,Chrome,1536,864,,,,,10,620,,,,,,,,,,,,,,,,,139,U,triangle,1,1,,,,,,,,,,,,,,,,repeat,number,numRpt,d,0.5683,Hi,,,,,,0,,,,,,,,high,20,0,20,0,1,,,,,,,,,
297025,2022-11-25_17h23.20.058,vts_reward_expectancy_bt,2022.2.4,Win32,60.6575276,Chrome,1536,864,,,,,0,620,,,,,,,,,,,,,,,,,132,H,star,1,0,,,,,,,,,,,,,,,,switch,letter,lettSwt,j,1.5846,Hi,,,,,,0,,,,,,,,high,21,0,21,0,1,,,,,,,,,
297025,2022-11-25_17h23.20.058,vts_reward_expectancy_bt,2022.2.4,Win32,60.6575276,Chrome,1536,864,,,,,1,621,,,,,,,,,,,,,,,,,160,Y,circle,1,0,,,,,,,,,,,,,,,,switch,number,numSwt,f,0.7068,Lo,,,,,,0,,,,,,,,high,22,0,22,0,1,,,,,,,,,
297025,2022-11-25_17h23.20.058,vts_reward_expectancy_bt,2022.2.4,Win32,60.6575276,Chrome,1536,864,,,,,1,622,,,,,,,,,,,,,,,,,125,D,hexagon,1,0,,,,,,,,,,,,,,,,switch,letter,lettSwt,j,0.9177,Lo,,,,,,0,,,,,,,,high,23,0,23,0,1,,,,,,,,,
297025,2022-11-25_17h23.20.058,vts_reward_expectancy_bt,2022.2.4,Win32,60.6575276,Chrome,1536,864,,,,,1,623,,,,,,,,,,,,,,,,,139,W,circle,1,0,,,,,,,,,,,,,,,,switch,number,numSwt,d,0.8165,Lo,,,,,,0,,,,,,,,high,24,0,24,0,1,,,,,,,,,
297025,2022-11-25_17h23.20.058,vts_reward_expectancy_bt,2022.2.4,Win32,60.6575276,Chrome,1536,864,,,,,10,633,,,,,,,,,,,,,,,,,167,D,triangle,1,0,,,,,,,,,,,,,,,,repeat,number,numRpt,f,0.5607,Hi,,,,,,0,,,,,,,,high,25,0,25,0,1,,,,,,,,,
297025,2022-11-25_17h23.20.058,vts_reward_expectancy_bt,2022.2.4,Win32,60.6575276,Chrome,1536,864,,,,,10,643,,,,,,,,,,,,,,,,,181,B,star,1,0,,,,,,,,,,,,,,,,repeat,number,numRpt,f,0.5863,Hi,,,,,,0,,,,,,,,high,26,0,26,0,1,,,,,,,,,
297025,2022-11-25_17h23.20.058,vts_reward_expectancy_bt,2022.2.4,Win32,60.6575276,Chrome,1536,864,,,,,1,644,,,,,,,,,,,,,,,,,174,S,hexagon,1,0,,,,,,,,,,,,,,,,switch,letter,lettSwt,k,1.2733,Lo,,,,,,0,,,,,,,,high,27,0,27,0,1,,,,,,,,,
297025,2022-11-25_17h23.20.058,vts_reward_expectancy_bt,2022.2.4,Win32,60.6575276,Chrome,1536,864,,,,,1,645,,,,,,,,,,,,,,,,,160,F,circle,1,0,,,,,,,,,,,,,,,,repeat,letter,lettRpt,j,0.8223,Lo,,,,,,0,,,,,,,,high,28,0,28,0,1,,,,,,,,,
297025,2022-11-25_17h23.20.058,vts_reward_expectancy_bt,2022.2.4,Win32,60.6575276,Chrome,1536,864,,,,,0,645,,,,,,,,,,,,,,,,,125,U,triangle,1,0,,,,,,,,,,,,,,,,switch,number,numSwt,d,0.6192,Hi,,,,,,0,,,,,,,,high,29,0,29,0,1,,,,,,,,,
297025,2022-11-25_17h23.20.058,vts_reward_expectancy_bt,2022.2.4,Win32,60.6575276,Chrome,1536,864,,,,,0,645,,,,,,,,,,,,,,,,,146,H,star,1,0,,,,,,,,,,,,,,,,switch,letter,lettSwt,j,0.8079,Hi,,,,,,0,,,,,,,,high,30,0,30,0,1,,,,,,,,,
297025,2022-11-25_17h23.20.058,vts_reward_expectancy_bt,2022.2.4,Win32,60.6575276,Chrome,1536,864,,,,,1,646,,,,,,,,,,,,,,,,,132,Y,hexagon,1,0,,,,,,,,,,,,,,,,switch,number,numSwt,d,0.6343,Lo,,,,,,0,,,,,,,,high,31,0,31,0,1,,,,,,,,,
297025,2022-11-25_17h23.20.058,vts_reward_expectancy_bt,2022.2.4,Win32,60.6575276,Chrome,1536,864,,,,,1,647,,,,,,,,,,,,,,,,,181,F,circle,1,0,,,,,,,,,,,,,,,,repeat,number,numRpt,f,0.5348,Lo,,,,,,1,,,,,,space,5.4975,high,0,0,0,0,1,,,,,,,,,
297025,2022-11-25_17h23.20.058,vts_reward_expectancy_bt,2022.2.4,Win32,60.6575276,Chrome,1536,864,,,,,10,657,,,,,,,,,,,,,,,,,167,D,triangle,1,0,,,,,,,,,,,,,,,,switch,letter,lettSwt,j,0.586,Hi,,,,,,1,,,,,,,,high,1,0,1,0,1,,,,,,,,,
297025,2022-11-25_17h23.20.058,vts_reward_expectancy_bt,2022.2.4,Win32,60.6575276,Chrome,1536,864,,,,,0,657,,,,,,,,,,,,,,,,,132,S,star,1,0,,,,,,,,,,,,,,,,switch,number,numSwt,d,0.8006,Hi,,,,,,1,,,,,,,,high,2,0,2,0,1,,,,,,,,,
297025,2022-11-25_17h23.20.058,vts_reward_expectancy_bt,2022.2.4,Win32,60.6575276,Chrome,1536,864,,,,,1,658,,,,,,,,,,,,,,,,,125,W,hexagon,1,0,,,,,,,,,,,,,,,,repeat,number,numRpt,d,0.6388,Lo,,,,,,1,,,,,,,,high,3,0,3,0,1,,,,,,,,,
297025,2022-11-25_17h23.20.058,vts_reward_expectancy_bt,2022.2.4,Win32,60.6575276,Chrome,1536,864,,,,,10,668,,,,,,,,,,,,,,,,,160,B,circle,1,0,,,,,,,,,,,,,,,,repeat,number,numRpt,f,0.5345,Lo,,,,,,1,,,,,,,,high,4,0,4,0,1,,,,,,,,,
297025,2022-11-25_17h23.20.058,vts_reward_expectancy_bt,2022.2.4,Win32,60.6575276,Chrome,1536,864,,,,,10,678,,,,,,,,,,,,,,,,,146,Y,triangle,1,0,,,,,,,,,,,,,,,,switch,letter,lettSwt,k,0.5194,Hi,,,,,,1,,,,,,,,high,5,0,5,0,1,,,,,,,,,
297025,2022-11-25_17h23.20.058,vts_reward_expectancy_bt,2022.2.4,Win32,60.6575276,Chrome,1536,864,,,,,10,688,,,,,,,,,,,,,,,,,174,U,star,1,0,,,,,,,,,,,,,,,,repeat,letter,lettRpt,k,0.5842,Hi,,,,,,1,,,,,,,,high,6,0,6,0,1,,,,,,,,,
297025,2022-11-25_17h23.20.058,vts_reward_expectancy_bt,2022.2.4,Win32,60.6575276,Chrome,1536,864,,,,,1,689,,,,,,,,,,,,,,,,,139,H,hexagon,1,0,,,,,,,,,,,,,,,,switch,number,numSwt,d,0.739,Lo,,,,,,1,,,,,,,,high,7,0,7,0,1,,,,,,,,,
297025,2022-11-25_17h23.20.058,vts_reward_expectancy_bt,2022.2.4,Win32,60.6575276,Chrome,1536,864,,,,,0,689,,,,,,,,,,,,,,,,,181,F,star,1,0,,,,,,,,,,,,,,,,repeat,number,numRpt,f,0.9398,Hi,,,,,,1,,,,,,,,high,8,0,8,0,1,,,,,,,,,
297025,2022-11-25_17h23.20.058,vts_reward_expectancy_bt,2022.2.4,Win32,60.6575276,Chrome,1536,864,,,,,1,690,,,,,,,,,,,,,,,,,167,D,circle,1,0,,,,,,,,,,,,,,,,repeat,number,numRpt,f,0.5186,Lo,,,,,,1,,,,,,,,high,9,0,9,0,1,,,,,,,,,
297025,2022-11-25_17h23.20.058,vts_reward_expectancy_bt,2022.2.4,Win32,60.6575276,Chrome,1536,864,,,,,1,691,,,,,,,,,,,,,,,,,132,S,hexagon,1,0,,,,,,,,,,,,,,,,switch,letter,lettSwt,k,0.8912,Lo,,,,,,1,,,,,,,,high,10,0,10,0,1,,,,,,,,,
297025,2022-11-25_17h23.20.058,vts_reward_expectancy_bt,2022.2.4,Win32,60.6575276,Chrome,1536,864,,,,,0,691,,,,,,,,,,,,,,,,,125,W,triangle,1,0,,,,,,,,,,,,,,,,switch,number,numSwt,d,0.6938,Hi,,,,,,1,,,,,,,,high,11,0,11,0,1,,,,,,,,,
297025,2022-11-25_17h23.20.058,vts_reward_expectancy_bt,2022.2.4,Win32,60.6575276,Chrome,1536,864,,,,,0,691,,,,,,,,,,,,,,,,,160,B,star,1,0,,,,,,,,,,,,,,,,repeat,number,numRpt,f,0.6507,Hi,,,,,,1,,,,,,,,high,12,0,12,0,1,,,,,,,,,
297025,2022-11-25_17h23.20.058,vts_reward_expectancy_bt,2022.2.4,Win32,60.6575276,Chrome,1536,864,,,,,1,692,,,,,,,,,,,,,,,,,146,Y,hexagon,1,0,,,,,,,,,,,,,,,,repeat,number,numRpt,d,0.5022,Lo,,,,,,1,,,,,,,,high,13,0,13,0,1,,,,,,,,,
297025,2022-11-25_17h23.20.058,vts_reward_expectancy_bt,2022.2.4,Win32,60.6575276,Chrome,1536,864,,,,,10,702,,,,,,,,,,,,,,,,,174,U,circle,1,0,,,,,,,,,,,,,,,,switch,letter,lettSwt,k,0.7859,Lo,,,,,,1,,,,,,,,high,14,0,14,0,1,,,,,,,,,
297025,2022-11-25_17h23.20.058,vts_reward_expectancy_bt,2022.2.4,Win32,60.6575276,Chrome,1536,864,,,,,0,702,,,,,,,,,,,,,,,,,139,H,triangle,1,0,,,,,,,,,,,,,,,,repeat,letter,lettRpt,j,0.7698,Hi,,,,,,1,,,,,,,,high,15,0,15,0,1,,,,,,,,,
297025,2022-11-25_17h23.20.058,vts_reward_expectancy_bt,2022.2.4,Win32,60.6575276,Chrome,1536,864,,,,,0,702,,,,,,,,,,,,,,,,,132,H,triangle,1,0,,,,,,,,,,,,,,,,switch,number,numSwt,d,0.8219,Hi,,,,,,1,,,,,,,,high,16,0,16,0,1,,,,,,,,,
297025,2022-11-25_17h23.20.058,vts_reward_expectancy_bt,2022.2.4,Win32,60.6575276,Chrome,1536,864,,,,,10,712,,,,,,,,,,,,,,,,,125,B,hexagon,1,0,,,,,,,,,,,,,,,,switch,letter,lettSwt,j,0.8677,Lo,,,,,,1,,,,,,,,high,17,0,17,0,1,,,,,,,,,
297025,2022-11-25_17h23.20.058,vts_reward_expectancy_bt,2022.2.4,Win32,60.6575276,Chrome,1536,864,,,,,1,713,,,,,,,,,,,,,,,,,139,F,circle,1,0,,,,,,,,,,,,,,,,switch,number,numSwt,d,1.2353,Lo,,,,,,1,,,,,,,,high,18,0,18,0,1,,,,,,,,,
297025,2022-11-25_17h23.20.058,vts_reward_expectancy_bt,2022.2.4,Win32,60.6575276,Chrome,1536,864,,,,,0,713,,,,,,,,,,,,,,,,,167,W,star,1,0,,,,,,,,,,,,,,,,repeat,number,numRpt,f,0.6725,Hi,,,,,,1,,,,,,,,high,19,0,19,0,1,,,,,,,,,
297025,2022-11-25_17h23.20.058,vts_reward_expectancy_bt,2022.2.4,Win32,60.6575276,Chrome,1536,864,,,,,1,714,,,,,,,,,,,,,,,,,146,D,hexagon,1,0,,,,,,,,,,,,,,,,switch,letter,lettSwt,j,0.6208,Lo,,,,,,1,,,,,,,,high,20,0,20,0,1,,,,,,,,,
297025,2022-11-25_17h23.20.058,vts_reward_expectancy_bt,2022.2.4,Win32,60.6575276,Chrome,1536,864,,,,,0,714,,,,,,,,,,,,,,,,,160,S,star,1,0,,,,,,,,,,,,,,,,switch,number,numSwt,f,0.7908,Hi,,,,,,1,,,,,,,,high,21,0,21,0,1,,,,,,,,,
297025,2022-11-25_17h23.20.058,vts_reward_expectancy_bt,2022.2.4,Win32,60.6575276,Chrome,1536,864,,,,,0,714,,,,,,,,,,,,,,,,,174,Y,triangle,1,0,,,,,,,,,,,,,,,,repeat,number,numRpt,f,0.6761,Hi,,,,,,1,,,,,,,,high,22,0,22,0,1,,,,,,,,,
297025,2022-11-25_17h23.20.058,vts_reward_expectancy_bt,2022.2.4,Win32,60.6575276,Chrome,1536,864,,,,,0,714,,,,,,,,,,,,,,,,,181,U,circle,0,0,,,,,,,,,,,,,,,,repeat,number,NA,d,0.4674,Hi,,,,,,1,,,,,,,,high,23,0,23,0,1,,,,,,,,,
297025,2022-11-25_17h23.20.058,vts_reward_expectancy_bt,2022.2.4,Win32,60.6575276,Chrome,1536,864,,,,,0,714,,,,,,,,,,,,,,,,,174,B,star,1,1,,,,,,,,,,,,,,,,repeat,number,numRpt,f,1.1678,Hi,,,,,,1,,,,,,,,high,24,0,24,0,1,,,,,,,,,
297025,2022-11-25_17h23.20.058,vts_reward_expectancy_bt,2022.2.4,Win32,60.6575276,Chrome,1536,864,,,,,1,715,,,,,,,,,,,,,,,,,132,S,circle,1,0,,,,,,,,,,,,,,,,switch,letter,lettSwt,k,0.8008,Lo,,,,,,1,,,,,,,,high,25,0,25,0,1,,,,,,,,,
297025,2022-11-25_17h23.20.058,vts_reward_expectancy_bt,2022.2.4,Win32,60.6575276,Chrome,1536,864,,,,,0,715,,,,,,,,,,,,,,,,,146,F,hexagon,0,0,,,,,,,,,,,,,,,,repeat,letter,NA,k,0.5018,Lo,,,,,,1,,,,,,,,high,26,0,26,0,1,,,,,,,,,
297025,2022-11-25_17h23.20.058,vts_reward_expectancy_bt,2022.2.4,Win32,60.6575276,Chrome,1536,864,,,,,10,725,,,,,,,,,,,,,,,,,160,U,triangle,1,1,,,,,,,,,,,,,,,,switch,number,numSwt,f,0.4891,Hi,,,,,,1,,,,,,,,high,27,0,27,0,1,,,,,,,,,
297025,2022-11-25_17h23.20.058,vts_reward_expectancy_bt,2022.2.4,Win32,60.6575276,Chrome,1536,864,,,,,10,735,,,,,,,,,,,,,,,,,181,W,triangle,1,0,,,,,,,,,,,,,,,,switch,letter,lettSwt,k,0.6513,Hi,,,,,,1,,,,,,,,high,28,0,28,0,1,,,,,,,,,
297025,2022-11-25_17h23.20.058,vts_reward_expectancy_bt,2022.2.4,Win32,60.6575276,Chrome,1536,864,,,,,0,735,,,,,,,,,,,,,,,,,125,D,star,0,0,,,,,,,,,,,,,,,,switch,number,NA,f,1.1531,Hi,,,,,,1,,,,,,,,high,29,0,29,0,1,,,,,,,,,
297025,2022-11-25_17h23.20.058,vts_reward_expectancy_bt,2022.2.4,Win32,60.6575276,Chrome,1536,864,,,,,1,736,,,,,,,,,,,,,,,,,139,Y,hexagon,1,1,,,,,,,,,,,,,,,,switch,letter,lettSwt,k,1.3509,Lo,,,,,,1,,,,,,,,high,30,0,30,0,1,,,,,,,,,
297025,2022-11-25_17h23.20.058,vts_reward_expectancy_bt,2022.2.4,Win32,60.6575276,Chrome,1536,864,,,,,10,746,,,,,,,,,,,,,,,,,167,H,circle,1,0,,,,,,,,,,,,,,,,switch,number,numSwt,f,0.6673,Lo,,,,,,1,,,,,,,,high,31,0,31,0,1,,,,,,,,,
297025,2022-11-25_17h23.20.058,vts_reward_expectancy_bt,2022.2.4,Win32,60.6575276,Chrome,1536,864,,,,,1,747,,,,,,,,,,,,,,,,,132,Y,hexagon,1,0,,,,,,,,,,,,,,,,repeat,number,numRpt,d,0.4686,Lo,,,,,,2,,,,,,space,2.5176,high,0,0,0,0,1,,,,,,,,,
297025,2022-11-25_17h23.20.058,vts_reward_expectancy_bt,2022.2.4,Win32,60.6575276,Chrome,1536,864,,,,,1,748,,,,,,,,,,,,,,,,,160,W,circle,1,0,,,,,,,,,,,,,,,,switch,letter,lettSwt,k,1.0375,Lo,,,,,,2,,,,,,,,high,1,0,1,0,1,,,,,,,,,
297025,2022-11-25_17h23.20.058,vts_reward_expectancy_bt,2022.2.4,Win32,60.6575276,Chrome,1536,864,,,,,0,748,,,,,,,,,,,,,,,,,167,F,triangle,0,0,,,,,,,,,,,,,,,,repeat,letter,NA,k,0.0591,Lo,,,,,,2,,,,,,,,high,2,0,2,0,1,,,,,,,,,
297025,2022-11-25_17h23.20.058,vts_reward_expectancy_bt,2022.2.4,Win32,60.6575276,Chrome,1536,864,,,,,0,748,,,,,,,,,,,,,,,,,125,D,star,1,1,,,,,,,,,,,,,,,,repeat,letter,lettRpt,j,1.0343,Hi,,,,,,2,,,,,,,,high,3,0,3,0,1,,,,,,,,,
297025,2022-11-25_17h23.20.058,vts_reward_expectancy_bt,2022.2.4,Win32,60.6575276,Chrome,1536,864,,,,,1,749,,,,,,,,,,,,,,,,,146,H,hexagon,1,0,,,,,,,,,,,,,,,,switch,number,numSwt,d,1.8038,Lo,,,,,,2,,,,,,,,high,4,0,4,0,1,,,,,,,,,
297025,2022-11-25_17h23.20.058,vts_reward_expectancy_bt,2022.2.4,Win32,60.6575276,Chrome,1536,864,,,,,1,750,,,,,,,,,,,,,,,,,181,S,circle,1,0,,,,,,,,,,,,,,,,switch,letter,lettSwt,k,0.5725,Lo,,,,,,2,,,,,,,,high,5,0,5,0,1,,,,,,,,,
297025,2022-11-25_17h23.20.058,vts_reward_expectancy_bt,2022.2.4,Win32,60.6575276,Chrome,1536,864,,,,,10,760,,,,,,,,,,,,,,,,,139,B,triangle,1,0,,,,,,,,,,,,,,,,switch,number,numSwt,d,0.6892,Hi,,,,,,2,,,,,,,,high,6,0,6,0,1,,,,,,,,,
297025,2022-11-25_17h23.20.058,vts_reward_expectancy_bt,2022.2.4,Win32,60.6575276,Chrome,1536,864,,,,,10,770,,,,,,,,,,,,,,,,,174,U,star,1,0,,,,,,,,,,,,,,,,switch,letter,lettSwt,k,0.6011,Hi,,,,,,2,,,,,,,,high,7,0,7,0,1,,,,,,,,,
297025,2022-11-25_17h23.20.058,vts_reward_expectancy_bt,2022.2.4,Win32,60.6575276,Chrome,1536,864,,,,,10,780,,,,,,,,,,,,,,,,,132,Y,star,1,0,,,,,,,,,,,,,,,,switch,number,numSwt,d,0.6572,Hi,,,,,,2,,,,,,,,high,8,0,8,0,1,,,,,,,,,
297025,2022-11-25_17h23.20.058,vts_reward_expectancy_bt,2022.2.4,Win32,60.6575276,Chrome,1536,864,,,,,10,790,,,,,,,,,,,,,,,,,160,W,triangle,1,0,,,,,,,,,,,,,,,,repeat,number,numRpt,f,0.3885,Hi,,,,,,2,,,,,,,,high,9,0,9,0,1,,,,,,,,,
297025,2022-11-25_17h23.20.058,vts_reward_expectancy_bt,2022.2.4,Win32,60.6575276,Chrome,1536,864,,,,,0,790,,,,,,,,,,,,,,,,,167,F,circle,0,0,,,,,,,,,,,,,,,,repeat,number,NA,d,1.657,Hi,,,,,,2,,,,,,,,high,10,0,10,0,1,,,,,,,,,
297025,2022-11-25_17h23.20.058,vts_reward_expectancy_bt,2022.2.4,Win32,60.6575276,Chrome,1536,864,,,,,1,791,,,,,,,,,,,,,,,,,125,D,hexagon,1,1,,,,,,,,,,,,,,,,repeat,number,numRpt,d,0.9436,Lo,,,,,,2,,,,,,,,high,11,0,11,0,1,,,,,,,,,
297025,2022-11-25_17h23.20.058,vts_reward_expectancy_bt,2022.2.4,Win32,60.6575276,Chrome,1536,864,,,,,1,792,,,,,,,,,,,,,,,,,146,H,circle,1,0,,,,,,,,,,,,,,,,switch,letter,lettSwt,j,1.0008,Lo,,,,,,2,,,,,,,,high,12,0,12,0,1,,,,,,,,,
297025,2022-11-25_17h23.20.058,vts_reward_expectancy_bt,2022.2.4,Win32,60.6575276,Chrome,1536,864,,,,,1,793,,,,,,,,,,,,,,,,,181,S,hexagon,1,0,,,,,,,,,,,,,,,,switch,number,numSwt,f,0.5405,Lo,,,,,,2,,,,,,,,high,13,0,13,0,1,,,,,,,,,
297025,2022-11-25_17h23.20.058,vts_reward_expectancy_bt,2022.2.4,Win32,60.6575276,Chrome,1536,864,,,,,0,793,,,,,,,,,,,,,,,,,139,B,triangle,1,0,,,,,,,,,,,,,,,,repeat,number,numRpt,d,0.7346,Hi,,,,,,2,,,,,,,,high,14,0,14,0,1,,,,,,,,,
297025,2022-11-25_17h23.20.058,vts_reward_expectancy_bt,2022.2.4,Win32,60.6575276,Chrome,1536,864,,,,,0,793,,,,,,,,,,,,,,,,,174,U,star,1,0,,,,,,,,,,,,,,,,switch,letter,lettSwt,k,1.3856,Hi,,,,,,2,,,,,,,,high,15,0,15,0,1,,,,,,,,,
297025,2022-11-25_17h23.20.058,vts_reward_expectancy_bt,2022.2.4,Win32,60.6575276,Chrome,1536,864,,,,,1,794,,,,,,,,,,,,,,,,,146,U,hexagon,1,0,,,,,,,,,,,,,,,,repeat,letter,lettRpt,k,1.3596,Lo,,,,,,2,,,,,,,,high,16,0,16,0,1,,,,,,,,,
297025,2022-11-25_17h23.20.058,vts_reward_expectancy_bt,2022.2.4,Win32,60.6575276,Chrome,1536,864,,,,,0,794,,,,,,,,,,,,,,,,,167,H,star,1,0,,,,,,,,,,,,,,,,repeat,letter,lettRpt,j,0.9675,Hi,,,,,,2,,,,,,,,high,17,0,17,0,1,,,,,,,,,
297025,2022-11-25_17h23.20.058,vts_reward_expectancy_bt,2022.2.4,Win32,60.6575276,Chrome,1536,864,,,,,0,794,,,,,,,,,,,,,,,,,132,F,triangle,1,0,,,,,,,,,,,,,,,,repeat,letter,lettRpt,j,0.8675,Hi,,,,,,2,,,,,,,,high,18,0,18,0,1,,,,,,,,,
297025,2022-11-25_17h23.20.058,vts_reward_expectancy_bt,2022.2.4,Win32,60.6575276,Chrome,1536,864,,,,,1,795,,,,,,,,,,,,,,,,,181,Y,circle,1,0,,,,,,,,,,,,,,,,repeat,letter,lettRpt,k,0.9032,Lo,,,,,,2,,,,,,,,high,19,0,19,0,1,,,,,,,,,
297025,2022-11-25_17h23.20.058,vts_reward_expectancy_bt,2022.2.4,Win32,60.6575276,Chrome,1536,864,,,,,0,795,,,,,,,,,,,,,,,,,125,S,triangle,1,0,,,,,,,,,,,,,,,,repeat,letter,lettRpt,k,2.201,Hi,,,,,,2,,,,,,,,high,20,0,20,0,1,,,,,,,,,
297025,2022-11-25_17h23.20.058,vts_reward_expectancy_bt,2022.2.4,Win32,60.6575276,Chrome,1536,864,,,,,0,795,,,,,,,,,,,,,,,,,160,D,star,1,0,,,,,,,,,,,,,,,,repeat,letter,lettRpt,j,0.6681,Hi,,,,,,2,,,,,,,,high,21,0,21,0,1,,,,,,,,,
297025,2022-11-25_17h23.20.058,vts_reward_expectancy_bt,2022.2.4,Win32,60.6575276,Chrome,1536,864,,,,,1,796,,,,,,,,,,,,,,,,,174,W,hexagon,1,0,,,,,,,,,,,,,,,,repeat,letter,lettRpt,k,0.5441,Lo,,,,,,2,,,,,,,,high,22,0,22,0,1,,,,,,,,,
297025,2022-11-25_17h23.20.058,vts_reward_expectancy_bt,2022.2.4,Win32,60.6575276,Chrome,1536,864,,,,,1,797,,,,,,,,,,,,,,,,,139,B,circle,1,0,,,,,,,,,,,,,,,,switch,number,numSwt,d,0.5367,Lo,,,,,,2,,,,,,,,high,23,0,23,0,1,,,,,,,,,
297025,2022-11-25_17h23.20.058,vts_reward_expectancy_bt,2022.2.4,Win32,60.6575276,Chrome,1536,864,,,,,10,807,,,,,,,,,,,,,,,,,146,D,circle,1,0,,,,,,,,,,,,,,,,repeat,number,numRpt,d,0.784,Lo,,,,,,2,,,,,,,,high,24,0,24,0,1,,,,,,,,,
297025,2022-11-25_17h23.20.058,vts_reward_expectancy_bt,2022.2.4,Win32,60.6575276,Chrome,1536,864,,,,,10,817,,,,,,,,,,,,,,,,,139,H,triangle,1,0,,,,,,,,,,,,,,,,switch,letter,lettSwt,j,0.5389,Hi,,,,,,2,,,,,,,,high,25,0,25,0,1,,,,,,,,,
297025,2022-11-25_17h23.20.058,vts_reward_expectancy_bt,2022.2.4,Win32,60.6575276,Chrome,1536,864,,,,,1,818,,,,,,,,,,,,,,,,,181,S,hexagon,1,0,,,,,,,,,,,,,,,,switch,number,numSwt,f,0.6679,Lo,,,,,,2,,,,,,,,high,26,0,26,0,1,,,,,,,,,
297025,2022-11-25_17h23.20.058,vts_reward_expectancy_bt,2022.2.4,Win32,60.6575276,Chrome,1536,864,,,,,0,818,,,,,,,,,,,,,,,,,125,U,star,1,0,,,,,,,,,,,,,,,,repeat,number,numRpt,d,0.5675,Hi,,,,,,2,,,,,,,,high,27,0,27,0,1,,,,,,,,,
297025,2022-11-25_17h23.20.058,vts_reward_expectancy_bt,2022.2.4,Win32,60.6575276,Chrome,1536,864,,,,,0,818,,,,,,,,,,,,,,,,,132,Y,triangle,1,0,,,,,,,,,,,,,,,,repeat,number,numRpt,d,0.636,Hi,,,,,,2,,,,,,,,high,28,0,28,0,1,,,,,,,,,
297025,2022-11-25_17h23.20.058,vts_reward_expectancy_bt,2022.2.4,Win32,60.6575276,Chrome,1536,864,,,,,1,819,,,,,,,,,,,,,,,,,160,B,circle,1,0,,,,,,,,,,,,,,,,repeat,number,numRpt,f,0.7189,Lo,,,,,,2,,,,,,,,high,29,0,29,0,1,,,,,,,,,
297025,2022-11-25_17h23.20.058,vts_reward_expectancy_bt,2022.2.4,Win32,60.6575276,Chrome,1536,864,,,,,0,819,,,,,,,,,,,,,,,,,174,F,star,1,0,,,,,,,,,,,,,,,,switch,letter,lettSwt,j,0.9356,Hi,,,,,,2,,,,,,,,high,30,0,30,0,1,,,,,,,,,
297025,2022-11-25_17h23.20.058,vts_reward_expectancy_bt,2022.2.4,Win32,60.6575276,Chrome,1536,864,,,,,1,820,,,,,,,,,,,,,,,,,167,W,hexagon,1,0,,,,,,,,,,,,,,,,repeat,letter,lettRpt,k,1.3853,Lo,,,,,,2,,,,,,,,high,31,0,31,0,1,,,,,,,,,
297025,2022-11-25_17h23.20.058,vts_reward_expectancy_bt,2022.2.4,Win32,60.6575276,Chrome,1536,864,,,,,0,820,,,,,,,,,,,,,,,,,146,H,star,1,0,,,,,,,,,,,,,,,,repeat,letter,lettRpt,j,0.9014,Hi,,,,,,3,,,,,,space,1.2474,high,0,0,0,0,1,,,,,,,,,
297025,2022-11-25_17h23.20.058,vts_reward_expectancy_bt,2022.2.4,Win32,60.6575276,Chrome,1536,864,,,,,1,821,,,,,,,,,,,,,,,,,167,Y,hexagon,1,0,,,,,,,,,,,,,,,,repeat,letter,lettRpt,k,0.6344,Lo,,,,,,3,,,,,,,,high,1,0,1,0,1,,,,,,,,,
297025,2022-11-25_17h23.20.058,vts_reward_expectancy_bt,2022.2.4,Win32,60.6575276,Chrome,1536,864,,,,,1,822,,,,,,,,,,,,,,,,,139,U,circle,1,0,,,,,,,,,,,,,,,,repeat,letter,lettRpt,k,0.8393,Lo,,,,,,3,,,,,,,,high,2,0,2,0,1,,,,,,,,,
297025,2022-11-25_17h23.20.058,vts_reward_expectancy_bt,2022.2.4,Win32,60.6575276,Chrome,1536,864,,,,,0,822,,,,,,,,,,,,,,,,,125,S,triangle,1,0,,,,,,,,,,,,,,,,repeat,letter,lettRpt,k,1.1854,Hi,,,,,,3,,,,,,,,high,3,0,3,0,1,,,,,,,,,
297025,2022-11-25_17h23.20.058,vts_reward_expectancy_bt,2022.2.4,Win32,60.6575276,Chrome,1536,864,,,,,10,832,,,,,,,,,,,,,,,,,181,D,star,1,0,,,,,,,,,,,,,,,,repeat,letter,lettRpt,j,0.7203,Hi,,,,,,3,,,,,,,,high,4,0,4,0,1,,,,,,,,,
297025,2022-11-25_17h23.20.058,vts_reward_expectancy_bt,2022.2.4,Win32,60.6575276,Chrome,1536,864,,,,,10,842,,,,,,,,,,,,,,,,,160,W,hexagon,1,0,,,,,,,,,,,,,,,,repeat,letter,lettRpt,k,1.1105,Lo,,,,,,3,,,,,,,,high,5,0,5,0,1,,,,,,,,,
297025,2022-11-25_17h23.20.058,vts_reward_expectancy_bt,2022.2.4,Win32,60.6575276,Chrome,1536,864,,,,,10,852,,,,,,,,,,,,,,,,,174,F,circle,1,0,,,,,,,,,,,,,,,,repeat,letter,lettRpt,j,0.735,Lo,,,,,,3,,,,,,,,high,6,0,6,0,1,,,,,,,,,
297025,2022-11-25_17h23.20.058,vts_reward_expectancy_bt,2022.2.4,Win32,60.6575276,Chrome,1536,864,,,,,0,852,,,,,,,,,,,,,,,,,132,B,triangle,1,0,,,,,,,,,,,,,,,,repeat,letter,lettRpt,j,1.3176,Hi,,,,,,3,,,,,,,,high,7,0,7,0,1,,,,,,,,,
297025,2022-11-25_17h23.20.058,vts_reward_expectancy_bt,2022.2.4,Win32,60.6575276,Chrome,1536,864,,,,,0,852,,,,,,,,,,,,,,,,,146,H,triangle,1,0,,,,,,,,,,,,,,,,switch,number,numSwt,d,0.6177,Hi,,,,,,3,,,,,,,,high,8,0,8,0,1,,,,,,,,,
297025,2022-11-25_17h23.20.058,vts_reward_expectancy_bt,2022.2.4,Win32,60.6575276,Chrome,1536,864,,,,,0,852,,,,,,,,,,,,,,,,,167,Y,star,1,0,,,,,,,,,,,,,,,,repeat,number,numRpt,f,0.7589,Hi,,,,,,3,,,,,,,,high,9,0,9,0,1,,,,,,,,,
297025,2022-11-25_17h23.20.058,vts_reward_expectancy_bt,2022.2.4,Win32,60.6575276,Chrome,1536,864,,,,,1,853,,,,,,,,,,,,,,,,,139,U,hexagon,1,0,,,,,,,,,,,,,,,,repeat,number,numRpt,d,0.5751,Lo,,,,,,3,,,,,,,,high,10,0,10,0,1,,,,,,,,,
297025,2022-11-25_17h23.20.058,vts_reward_expectancy_bt,2022.2.4,Win32,60.6575276,Chrome,1536,864,,,,,1,854,,,,,,,,,,,,,,,,,125,S,circle,1,0,,,,,,,,,,,,,,,,repeat,number,numRpt,d,2.1507,Lo,,,,,,3,,,,,,,,high,11,0,11,0,1,,,,,,,,,
297025,2022-11-25_17h23.20.058,vts_reward_expectancy_bt,2022.2.4,Win32,60.6575276,Chrome,1536,864,,,,,1,855,,,,,,,,,,,,,,,,,181,D,hexagon,1,0,,,,,,,,,,,,,,,,repeat,number,numRpt,f,0.6172,Lo,,,,,,3,,,,,,,,high,12,0,12,0,1,,,,,,,,,
297025,2022-11-25_17h23.20.058,vts_reward_expectancy_bt,2022.2.4,Win32,60.6575276,Chrome,1536,864,,,,,1,856,,,,,,,,,,,,,,,,,160,W,circle,1,0,,,,,,,,,,,,,,,,repeat,number,numRpt,f,1.2752,Lo,,,,,,3,,,,,,,,high,13,0,13,0,1,,,,,,,,,
297025,2022-11-25_17h23.20.058,vts_reward_expectancy_bt,2022.2.4,Win32,60.6575276,Chrome,1536,864,,,,,0,856,,,,,,,,,,,,,,,,,174,F,star,1,0,,,,,,,,,,,,,,,,repeat,number,numRpt,f,1.1562,Hi,,,,,,3,,,,,,,,high,14,0,14,0,1,,,,,,,,,
297025,2022-11-25_17h23.20.058,vts_reward_expectancy_bt,2022.2.4,Win32,60.6575276,Chrome,1536,864,,,,,0,856,,,,,,,,,,,,,,,,,132,B,triangle,1,0,,,,,,,,,,,,,,,,repeat,number,numRpt,d,1.1039,Hi,,,,,,3,,,,,,,,high,15,0,15,0,1,,,,,,,,,
297025,2022-11-25_17h23.20.058,vts_reward_expectancy_bt,2022.2.4,Win32,60.6575276,Chrome,1536,864,,,,,10,866,,,,,,,,,,,,,,,,,181,W,star,1,0,,,,,,,,,,,,,,,,repeat,number,numRpt,f,0.5178,Hi,,,,,,3,,,,,,,,high,16,0,16,0,1,,,,,,,,,
297025,2022-11-25_17h23.20.058,vts_reward_expectancy_bt,2022.2.4,Win32,60.6575276,Chrome,1536,864,,,,,1,867,,,,,,,,,,,,,,,,,146,B,hexagon,1,0,,,,,,,,,,,,,,,,repeat,number,numRpt,d,0.7064,Lo,,,,,,3,,,,,,,,high,17,0,17,0,1,,,,,,,,,
297025,2022-11-25_17h23.20.058,vts_reward_expectancy_bt,2022.2.4,Win32,60.6575276,Chrome,1536,864,,,,,1,868,,,,,,,,,,,,,,,,,174,F,circle,1,0,,,,,,,,,,,,,,,,repeat,number,numRpt,f,0.9344,Lo,,,,,,3,,,,,,,,high,18,0,18,0,1,,,,,,,,,
297025,2022-11-25_17h23.20.058,vts_reward_expectancy_bt,2022.2.4,Win32,60.6575276,Chrome,1536,864,,,,,0,868,,,,,,,,,,,,,,,,,132,Y,triangle,1,0,,,,,,,,,,,,,,,,repeat,number,numRpt,d,1.3484,Hi,,,,,,3,,,,,,,,high,19,0,19,0,1,,,,,,,,,
297025,2022-11-25_17h23.20.058,vts_reward_expectancy_bt,2022.2.4,Win32,60.6575276,Chrome,1536,864,,,,,0,868,,,,,,,,,,,,,,,,,167,H,triangle,1,0,,,,,,,,,,,,,,,,repeat,number,numRpt,f,0.6044,Hi,,,,,,3,,,,,,,,high,20,0,20,0,1,,,,,,,,,
297025,2022-11-25_17h23.20.058,vts_reward_expectancy_bt,2022.2.4,Win32,60.6575276,Chrome,1536,864,,,,,0,868,,,,,,,,,,,,,,,,,160,S,star,1,0,,,,,,,,,,,,,,,,switch,letter,lettSwt,k,1.0679,Hi,,,,,,3,,,,,,,,high,21,0,21,0,1,,,,,,,,,
297025,2022-11-25_17h23.20.058,vts_reward_expectancy_bt,2022.2.4,Win32,60.6575276,Chrome,1536,864,,,,,1,869,,,,,,,,,,,,,,,,,125,U,hexagon,1,0,,,,,,,,,,,,,,,,repeat,letter,lettRpt,k,0.6681,Lo,,,,,,3,,,,,,,,high,22,0,22,0,1,,,,,,,,,
297025,2022-11-25_17h23.20.058,vts_reward_expectancy_bt,2022.2.4,Win32,60.6575276,Chrome,1536,864,,,,,0,869,,,,,,,,,,,,,,,,,139,D,circle,-1,0,,,,,,,,,,,,,,,,switch,no_choice,NA,,,Lo,,,,,,3,,,,,,,,high,23,0,23,0,1,,,,,,,,,
297025,2022-11-25_17h23.20.058,vts_reward_expectancy_bt,2022.2.4,Win32,60.6575276,Chrome,1536,864,,,,,0,869,,,,,,,,,,,,,,,,,160,F,star,1,0,,,,,,,,,,,,,,,,switch,letter,lettSwt,j,0.8034,Hi,,,,,,3,,,,,,,,high,24,0,24,0,1,,,,,,,,,
297025,2022-11-25_17h23.20.058,vts_reward_expectancy_bt,2022.2.4,Win32,60.6575276,Chrome,1536,864,,,,,0,869,,,,,,,,,,,,,,,,,181,B,triangle,1,0,,,,,,,,,,,,,,,,repeat,letter,lettRpt,j,1.3181,Hi,,,,,,3,,,,,,,,high,25,0,25,0,1,,,,,,,,,
297025,2022-11-25_17h23.20.058,vts_reward_expectancy_bt,2022.2.4,Win32,60.6575276,Chrome,1536,864,,,,,1,870,,,,,,,,,,,,,,,,,167,U,hexagon,1,0,,,,,,,,,,,,,,,,repeat,letter,lettRpt,k,0.6868,Lo,,,,,,3,,,,,,,,high,26,0,26,0,1,,,,,,,,,
297025,2022-11-25_17h23.20.058,vts_reward_expectancy_bt,2022.2.4,Win32,60.6575276,Chrome,1536,864,,,,,10,880,,,,,,,,,,,,,,,,,125,W,circle,1,0,,,,,,,,,,,,,,,,switch,number,numSwt,d,1.635,Lo,,,,,,3,,,,,,,,high,27,0,27,0,1,,,,,,,,,
297025,2022-11-25_17h23.20.058,vts_reward_expectancy_bt,2022.2.4,Win32,60.6575276,Chrome,1536,864,,,,,1,881,,,,,,,,,,,,,,,,,139,S,circle,1,0,,,,,,,,,,,,,,,,repeat,number,numRpt,d,1.0679,Lo,,,,,,3,,,,,,,,high,28,0,28,0,1,,,,,,,,,
297025,2022-11-25_17h23.20.058,vts_reward_expectancy_bt,2022.2.4,Win32,60.6575276,Chrome,1536,864,,,,,1,882,,,,,,,,,,,,,,,,,146,D,hexagon,1,0,,,,,,,,,,,,,,,,repeat,number,numRpt,d,2.0176,Lo,,,,,,3,,,,,,,,high,29,0,29,0,1,,,,,,,,,
297025,2022-11-25_17h23.20.058,vts_reward_expectancy_bt,2022.2.4,Win32,60.6575276,Chrome,1536,864,,,,,0,882,,,,,,,,,,,,,,,,,132,Y,triangle,1,0,,,,,,,,,,,,,,,,repeat,number,numRpt,d,2.6186,Hi,,,,,,3,,,,,,,,high,30,0,30,0,1,,,,,,,,,
297025,2022-11-25_17h23.20.058,vts_reward_expectancy_bt,2022.2.4,Win32,60.6575276,Chrome,1536,864,,,,,0,882,,,,,,,,,,,,,,,,,174,H,star,1,0,,,,,,,,,,,,,,,,repeat,number,numRpt,f,0.7001,Hi,,,,,,3,,,,,,,,high,31,0,31,0,1,,,,,,,,,
297025,2022-11-25_17h23.20.058,vts_reward_expectancy_bt,2022.2.4,Win32,60.6575276,Chrome,1536,864,,,,,1,883,,,,,,,,,,,,,,,,,174,Y,hexagon,1,0,,,,,,,,,,,,,,,,repeat,number,numRpt,f,0.9843,Lo,,,,,,4,,,,,,space,1.0637,high,0,0,0,0,1,,,,,,,,,
297025,2022-11-25_17h23.20.058,vts_reward_expectancy_bt,2022.2.4,Win32,60.6575276,Chrome,1536,864,,,,,1,884,,,,,,,,,,,,,,,,,160,S,circle,1,0,,,,,,,,,,,,,,,,switch,letter,lettSwt,k,1.451,Lo,,,,,,4,,,,,,,,high,1,0,1,0,1,,,,,,,,,
297025,2022-11-25_17h23.20.058,vts_reward_expectancy_bt,2022.2.4,Win32,60.6575276,Chrome,1536,864,,,,,0,884,,,,,,,,,,,,,,,,,139,U,star,1,0,,,,,,,,,,,,,,,,switch,number,numSwt,d,1.0035,Hi,,,,,,4,,,,,,,,high,2,0,2,0,1,,,,,,,,,
297025,2022-11-25_17h23.20.058,vts_reward_expectancy_bt,2022.2.4,Win32,60.6575276,Chrome,1536,864,,,,,0,884,,,,,,,,,,,,,,,,,146,D,triangle,1,0,,,,,,,,,,,,,,,,repeat,number,numRpt,d,2.068,Hi,,,,,,4,,,,,,,,high,3,0,3,0,1,,,,,,,,,
297025,2022-11-25_17h23.20.058,vts_reward_expectancy_bt,2022.2.4,Win32,60.6575276,Chrome,1536,864,,,,,1,885,,,,,,,,,,,,,,,,,125,F,hexagon,1,0,,,,,,,,,,,,,,,,repeat,number,numRpt,d,2.5934,Lo,,,,,,4,,,,,,,,high,4,0,4,0,1,,,,,,,,,
297025,2022-11-25_17h23.20.058,vts_reward_expectancy_bt,2022.2.4,Win32,60.6575276,Chrome,1536,864,,,,,1,886,,,,,,,,,,,,,,,,,167,B,circle,1,0,,,,,,,,,,,,,,,,repeat,number,numRpt,f,0.6687,Lo,,,,,,4,,,,,,,,high,5,0,5,0,1,,,,,,,,,
297025,2022-11-25_17h23.20.058,vts_reward_expectancy_bt,2022.2.4,Win32,60.6575276,Chrome,1536,864,,,,,10,896,,,,,,,,,,,,,,,,,181,H,star,1,0,,,,,,,,,,,,,,,,repeat,number,numRpt,f,0.704,Hi,,,,,,4,,,,,,,,high,6,0,6,0,1,,,,,,,,,
297025,2022-11-25_17h23.20.058,vts_reward_expectancy_bt,2022.2.4,Win32,60.6575276,Chrome,1536,864,,,,,0,896,,,,,,,,,,,,,,,,,132,W,triangle,0,0,,,,,,,,,,,,,,,,switch,letter,NA,j,0.9422,Hi,,,,,,4,,,,,,,,high,7,0,7,0,1,,,,,,,,,
297025,2022-11-25_17h23.20.058,vts_reward_expectancy_bt,2022.2.4,Win32,60.6575276,Chrome,1536,864,,,,,10,906,,,,,,,,,,,,,,,,,174,Y,triangle,1,1,,,,,,,,,,,,,,,,repeat,letter,lettRpt,k,0.5847,Hi,,,,,,4,,,,,,,,high,8,0,8,0,1,,,,,,,,,
297025,2022-11-25_17h23.20.058,vts_reward_expectancy_bt,2022.2.4,Win32,60.6575276,Chrome,1536,864,,,,,10,916,,,,,,,,,,,,,,,,,160,S,hexagon,1,0,,,,,,,,,,,,,,,,repeat,letter,lettRpt,k,1.4175,Lo,,,,,,4,,,,,,,,high,9,0,9,0,1,,,,,,,,,
297025,2022-11-25_17h23.20.058,vts_reward_expectancy_bt,2022.2.4,Win32,60.6575276,Chrome,1536,864,,,,,1,917,,,,,,,,,,,,,,,,,139,U,circle,1,0,,,,,,,,,,,,,,,,repeat,letter,lettRpt,k,0.8274,Lo,,,,,,4,,,,,,,,high,10,0,10,0,1,,,,,,,,,
297025,2022-11-25_17h23.20.058,vts_reward_expectancy_bt,2022.2.4,Win32,60.6575276,Chrome,1536,864,,,,,0,917,,,,,,,,,,,,,,,,,146,D,star,1,0,,,,,,,,,,,,,,,,switch,number,numSwt,d,1.1883,Hi,,,,,,4,,,,,,,,high,11,0,11,0,1,,,,,,,,,
297025,2022-11-25_17h23.20.058,vts_reward_expectancy_bt,2022.2.4,Win32,60.6575276,Chrome,1536,864,,,,,0,917,,,,,,,,,,,,,,,,,125,F,circle,0,0,,,,,,,,,,,,,,,,repeat,number,NA,f,0.6178,Hi,,,,,,4,,,,,,,,high,12,0,12,0,1,,,,,,,,,
297025,2022-11-25_17h23.20.058,vts_reward_expectancy_bt,2022.2.4,Win32,60.6575276,Chrome,1536,864,,,,,1,918,,,,,,,,,,,,,,,,,167,B,hexagon,1,1,,,,,,,,,,,,,,,,repeat,number,numRpt,f,0.9174,Lo,,,,,,4,,,,,,,,high,13,0,13,0,1,,,,,,,,,
297025,2022-11-25_17h23.20.058,vts_reward_expectancy_bt,2022.2.4,Win32,60.6575276,Chrome,1536,864,,,,,10,928,,,,,,,,,,,,,,,,,181,H,star,1,0,,,,,,,,,,,,,,,,repeat,number,numRpt,f,0.5843,Hi,,,,,,4,,,,,,,,high,14,0,14,0,1,,,,,,,,,
297025,2022-11-25_17h23.20.058,vts_reward_expectancy_bt,2022.2.4,Win32,60.6575276,Chrome,1536,864,,,,,0,928,,,,,,,,,,,,,,,,,132,W,triangle,1,0,,,,,,,,,,,,,,,,switch,letter,lettSwt,k,1.3881,Hi,,,,,,4,,,,,,,,high,15,0,15,0,1,,,,,,,,,
297025,2022-11-25_17h23.20.058,vts_reward_expectancy_bt,2022.2.4,Win32,60.6575276,Chrome,1536,864,,,,,1,929,,,,,,,,,,,,,,,,,125,B,circle,1,0,,,,,,,,,,,,,,,,repeat,letter,lettRpt,j,1.1553,Lo,,,,,,4,,,,,,,,high,16,0,16,0,1,,,,,,,,,
297025,2022-11-25_17h23.20.058,vts_reward_expectancy_bt,2022.2.4,Win32,60.6575276,Chrome,1536,864,,,,,10,939,,,,,,,,,,,,,,,,,132,Y,triangle,1,0,,,,,,,,,,,,,,,,repeat,letter,lettRpt,k,0.5432,Hi,,,,,,4,,,,,,,,high,17,0,17,0,1,,,,,,,,,
297025,2022-11-25_17h23.20.058,vts_reward_expectancy_bt,2022.2.4,Win32,60.6575276,Chrome,1536,864,,,,,0,939,,,,,,,,,,,,,,,,,160,F,hexagon,0,0,,,,,,,,,,,,,,,,repeat,letter,NA,k,0.5174,Hi,,,,,,4,,,,,,,,high,18,0,18,0,1,,,,,,,,,
297025,2022-11-25_17h23.20.058,vts_reward_expectancy_bt,2022.2.4,Win32,60.6575276,Chrome,1536,864,,,,,0,939,,,,,,,,,,,,,,,,,167,H,star,1,1,,,,,,,,,,,,,,,,repeat,letter,lettRpt,j,1.4511,Hi,,,,,,4,,,,,,,,high,19,0,19,0,1,,,,,,,,,
297025,2022-11-25_17h23.20.058,vts_reward_expectancy_bt,2022.2.4,Win32,60.6575276,Chrome,1536,864,,,,,1,940,,,,,,,,,,,,,,,,,139,U,hexagon,1,0,,,,,,,,,,,,,,,,repeat,letter,lettRpt,k,2.3175,Lo,,,,,,4,,,,,,,,high,20,0,20,0,1,,,,,,,,,
297025,2022-11-25_17h23.20.058,vts_reward_expectancy_bt,2022.2.4,Win32,60.6575276,Chrome,1536,864,,,,,1,941,,,,,,,,,,,,,,,,,174,W,circle,1,0,,,,,,,,,,,,,,,,repeat,letter,lettRpt,k,1.4248,Lo,,,,,,4,,,,,,,,high,21,0,21,0,1,,,,,,,,,
297025,2022-11-25_17h23.20.058,vts_reward_expectancy_bt,2022.2.4,Win32,60.6575276,Chrome,1536,864,,,,,0,941,,,,,,,,,,,,,,,,,146,S,triangle,0,0,,,,,,,,,,,,,,,,repeat,letter,NA,j,1.2177,Lo,,,,,,4,,,,,,,,high,22,0,22,0,1,,,,,,,,,
297025,2022-11-25_17h23.20.058,vts_reward_expectancy_bt,2022.2.4,Win32,60.6575276,Chrome,1536,864,,,,,0,941,,,,,,,,,,,,,,,,,181,D,star,-1,1,,,,,,,,,,,,,,,,switch,no_choice,NA,,,Lo,,,,,,4,,,,,,,,high,23,0,23,0,1,,,,,,,,,
297025,2022-11-25_17h23.20.058,vts_reward_expectancy_bt,2022.2.4,Win32,60.6575276,Chrome,1536,864,,,,,0,941,,,,,,,,,,,,,,,,,132,U,triangle,-1,0,,,,,,,,,,,,,,,,repeat,no_choice,NA,,,Lo,,,,,,4,,,,,,,,high,24,0,24,0,1,,,,,,,,,
297025,2022-11-25_17h23.20.058,vts_reward_expectancy_bt,2022.2.4,Win32,60.6575276,Chrome,1536,864,,,,,1,942,,,,,,,,,,,,,,,,,181,F,circle,1,0,,,,,,,,,,,,,,,,switch,letter,lettSwt,j,1.0362,Lo,,,,,,4,,,,,,,,high,25,0,25,0,1,,,,,,,,,
297025,2022-11-25_17h23.20.058,vts_reward_expectancy_bt,2022.2.4,Win32,60.6575276,Chrome,1536,864,,,,,0,942,,,,,,,,,,,,,,,,,146,S,star,1,0,,,,,,,,,,,,,,,,repeat,letter,lettRpt,k,1.1223,Hi,,,,,,4,,,,,,,,high,26,0,26,0,1,,,,,,,,,
297025,2022-11-25_17h23.20.058,vts_reward_expectancy_bt,2022.2.4,Win32,60.6575276,Chrome,1536,864,,,,,0,942,,,,,,,,,,,,,,,,,160,B,hexagon,-1,0,,,,,,,,,,,,,,,,switch,no_choice,NA,,,Hi,,,,,,4,,,,,,,,high,27,0,27,0,1,,,,,,,,,
297025,2022-11-25_17h23.20.058,vts_reward_expectancy_bt,2022.2.4,Win32,60.6575276,Chrome,1536,864,,,,,0,942,,,,,,,,,,,,,,,,,174,D,triangle,1,0,,,,,,,,,,,,,,,,switch,number,numSwt,f,0.693,Hi,,,,,,4,,,,,,,,high,28,0,28,0,1,,,,,,,,,
297025,2022-11-25_17h23.20.058,vts_reward_expectancy_bt,2022.2.4,Win32,60.6575276,Chrome,1536,864,,,,,1,943,,,,,,,,,,,,,,,,,167,H,hexagon,1,0,,,,,,,,,,,,,,,,repeat,number,numRpt,f,0.6025,Lo,,,,,,4,,,,,,,,high,29,0,29,0,1,,,,,,,,,
297025,2022-11-25_17h23.20.058,vts_reward_expectancy_bt,2022.2.4,Win32,60.6575276,Chrome,1536,864,,,,,1,944,,,,,,,,,,,,,,,,,125,Y,circle,1,0,,,,,,,,,,,,,,,,switch,letter,lettSwt,k,2.4438,Lo,,,,,,4,,,,,,,,high,30,0,30,0,1,,,,,,,,,
297025,2022-11-25_17h23.20.058,vts_reward_expectancy_bt,2022.2.4,Win32,60.6575276,Chrome,1536,864,,,,,0,944,,,,,,,,,,,,,,,,,139,W,star,1,0,,,,,,,,,,,,,,,,switch,number,numSwt,d,1.0506,Hi,,,,,,4,,,,,,,,high,31,0,31,0,1,,,,,,,,,
297025,2022-11-25_17h23.20.058,vts_reward_expectancy_bt,2022.2.4,Win32,60.6575276,Chrome,1536,864,,,,,1,945,,,,,,,,,,,,,,,,,125,D,circle,1,0,,,,,,,,,,,,,,,,repeat,number,numRpt,d,0.7248,Lo,,,,,,5,,,,,,space,0.9965,high,0,0,0,0,1,,,,,,,,,
297025,2022-11-25_17h23.20.058,vts_reward_expectancy_bt,2022.2.4,Win32,60.6575276,Chrome,1536,864,,,,,10,955,,,,,,,,,,,,,,,,,160,U,star,1,0,,,,,,,,,,,,,,,,repeat,number,numRpt,f,0.5841,Hi,,,,,,5,,,,,,,,high,1,0,1,0,1,,,,,,,,,
297025,2022-11-25_17h23.20.058,vts_reward_expectancy_bt,2022.2.4,Win32,60.6575276,Chrome,1536,864,,,,,10,965,,,,,,,,,,,,,,,,,146,S,hexagon,1,0,,,,,,,,,,,,,,,,switch,letter,lettSwt,k,0.5169,Lo,,,,,,5,,,,,,,,high,2,0,2,0,1,,,,,,,,,
297025,2022-11-25_17h23.20.058,vts_reward_expectancy_bt,2022.2.4,Win32,60.6575276,Chrome,1536,864,,,,,10,975,,,,,,,,,,,,,,,,,174,Y,triangle,1,0,,,,,,,,,,,,,,,,switch,number,numSwt,f,0.5884,Hi,,,,,,5,,,,,,,,high,3,0,3,0,1,,,,,,,,,
297025,2022-11-25_17h23.20.058,vts_reward_expectancy_bt,2022.2.4,Win32,60.6575276,Chrome,1536,864,,,,,1,976,,,,,,,,,,,,,,,,,139,B,circle,1,0,,,,,,,,,,,,,,,,switch,letter,lettSwt,j,0.9589,Lo,,,,,,5,,,,,,,,high,4,0,4,0,1,,,,,,,,,
297025,2022-11-25_17h23.20.058,vts_reward_expectancy_bt,2022.2.4,Win32,60.6575276,Chrome,1536,864,,,,,10,986,,,,,,,,,,,,,,,,,132,F,star,1,0,,,,,,,,,,,,,,,,repeat,letter,lettRpt,j,0.7392,Hi,,,,,,5,,,,,,,,high,5,0,5,0,1,,,,,,,,,
297025,2022-11-25_17h23.20.058,vts_reward_expectancy_bt,2022.2.4,Win32,60.6575276,Chrome,1536,864,,,,,1,987,,,,,,,,,,,,,,,,,167,H,hexagon,1,0,,,,,,,,,,,,,,,,repeat,letter,lettRpt,j,0.5562,Lo,,,,,,5,,,,,,,,high,6,0,6,0,1,,,,,,,,,
297025,2022-11-25_17h23.20.058,vts_reward_expectancy_bt,2022.2.4,Win32,60.6575276,Chrome,1536,864,,,,,10,997,,,,,,,,,,,,,,,,,181,W,triangle,1,0,,,,,,,,,,,,,,,,switch,number,numSwt,f,0.5537,Hi,,,,,,5,,,,,,,,high,7,0,7,0,1,,,,,,,,,
297025,2022-11-25_17h23.20.058,vts_reward_expectancy_bt,2022.2.4,Win32,60.6575276,Chrome,1536,864,,,,,1,998,,,,,,,,,,,,,,,,,125,D,hexagon,1,0,,,,,,,,,,,,,,,,repeat,number,numRpt,d,0.5555,Lo,,,,,,5,,,,,,,,high,8,0,8,0,1,,,,,,,,,
297025,2022-11-25_17h23.20.058,vts_reward_expectancy_bt,2022.2.4,Win32,60.6575276,Chrome,1536,864,,,,,1,999,,,,,,,,,,,,,,,,,160,U,circle,1,0,,,,,,,,,,,,,,,,repeat,number,numRpt,f,0.5334,Lo,,,,,,5,,,,,,,,high,9,0,9,0,1,,,,,,,,,
297025,2022-11-25_17h23.20.058,vts_reward_expectancy_bt,2022.2.4,Win32,60.6575276,Chrome,1536,864,,,,,0,999,,,,,,,,,,,,,,,,,146,S,star,1,0,,,,,,,,,,,,,,,,repeat,number,numRpt,d,0.8211,Hi,,,,,,5,,,,,,,,high,10,0,10,0,1,,,,,,,,,
297025,2022-11-25_17h23.20.058,vts_reward_expectancy_bt,2022.2.4,Win32,60.6575276,Chrome,1536,864,,,,,1,1000,,,,,,,,,,,,,,,,,174,Y,triangle,1,0,,,,,,,,,,,,,,,,repeat,number,numRpt,f,0.4676,Hi,,,,,,5,,,,,,,,high,11,0,11,0,1,,,,,,,,,
297025,2022-11-25_17h23.20.058,vts_reward_expectancy_bt,2022.2.4,Win32,60.6575276,Chrome,1536,864,,,,,1,1001,,,,,,,,,,,,,,,,,139,B,hexagon,1,0,,,,,,,,,,,,,,,,switch,letter,lettSwt,j,0.5397,Lo,,,,,,5,,,,,,,,high,12,0,12,0,1,,,,,,,,,
297025,2022-11-25_17h23.20.058,vts_reward_expectancy_bt,2022.2.4,Win32,60.6575276,Chrome,1536,864,,,,,10,1011,,,,,,,,,,,,,,,,,132,F,triangle,1,0,,,,,,,,,,,,,,,,switch,number,numSwt,d,0.8509,Hi,,,,,,5,,,,,,,,high,13,0,13,0,1,,,,,,,,,
297025,2022-11-25_17h23.20.058,vts_reward_expectancy_bt,2022.2.4,Win32,60.6575276,Chrome,1536,864,,,,,10,1021,,,,,,,,,,,,,,,,,167,H,star,1,0,,,,,,,,,,,,,,,,repeat,number,numRpt,f,0.568,Hi,,,,,,5,,,,,,,,high,14,0,14,0,1,,,,,,,,,
297025,2022-11-25_17h23.20.058,vts_reward_expectancy_bt,2022.2.4,Win32,60.6575276,Chrome,1536,864,,,,,1,1022,,,,,,,,,,,,,,,,,181,W,circle,1,0,,,,,,,,,,,,,,,,switch,letter,lettSwt,k,0.4681,Lo,,,,,,5,,,,,,,,high,15,0,15,0,1,,,,,,,,,
297025,2022-11-25_17h23.20.058,vts_reward_expectancy_bt,2022.2.4,Win32,60.6575276,Chrome,1536,864,,,,,1,1023,,,,,,,,,,,,,,,,,181,B,circle,1,0,,,,,,,,,,,,,,,,switch,number,numSwt,f,0.542,Lo,,,,,,5,,,,,,,,high,16,0,16,0,1,,,,,,,,,
297025,2022-11-25_17h23.20.058,vts_reward_expectancy_bt,2022.2.4,Win32,60.6575276,Chrome,1536,864,,,,,10,1033,,,,,,,,,,,,,,,,,132,D,triangle,1,0,,,,,,,,,,,,,,,,switch,letter,lettSwt,j,0.5173,Hi,,,,,,5,,,,,,,,high,17,0,17,0,1,,,,,,,,,
297025,2022-11-25_17h23.20.058,vts_reward_expectancy_bt,2022.2.4,Win32,60.6575276,Chrome,1536,864,,,,,10,1043,,,,,,,,,,,,,,,,,167,U,star,1,0,,,,,,,,,,,,,,,,switch,number,numSwt,f,0.54,Hi,,,,,,5,,,,,,,,high,18,0,18,0,1,,,,,,,,,
297025,2022-11-25_17h23.20.058,vts_reward_expectancy_bt,2022.2.4,Win32,60.6575276,Chrome,1536,864,,,,,1,1044,,,,,,,,,,,,,,,,,146,F,hexagon,1,0,,,,,,,,,,,,,,,,switch,letter,lettSwt,j,0.5848,Lo,,,,,,5,,,,,,,,high,19,0,19,0,1,,,,,,,,,
297025,2022-11-25_17h23.20.058,vts_reward_expectancy_bt,2022.2.4,Win32,60.6575276,Chrome,1536,864,,,,,10,1054,,,,,,,,,,,,,,,,,139,S,triangle,1,0,,,,,,,,,,,,,,,,switch,number,numSwt,d,0.6397,Hi,,,,,,5,,,,,,,,high,20,0,20,0,1,,,,,,,,,
297025,2022-11-25_17h23.20.058,vts_reward_expectancy_bt,2022.2.4,Win32,60.6575276,Chrome,1536,864,,,,,10,1064,,,,,,,,,,,,,,,,,125,H,star,1,0,,,,,,,,,,,,,,,,repeat,number,numRpt,d,0.5866,Hi,,,,,,5,,,,,,,,high,21,0,21,0,1,,,,,,,,,
297025,2022-11-25_17h23.20.058,vts_reward_expectancy_bt,2022.2.4,Win32,60.6575276,Chrome,1536,864,,,,,1,1065,,,,,,,,,,,,,,,,,160,W,circle,1,0,,,,,,,,,,,,,,,,repeat,number,numRpt,f,0.5755,Lo,,,,,,5,,,,,,,,high,22,0,22,0,1,,,,,,,,,
297025,2022-11-25_17h23.20.058,vts_reward_expectancy_bt,2022.2.4,Win32,60.6575276,Chrome,1536,864,,,,,1,1066,,,,,,,,,,,,,,,,,174,Y,hexagon,1,0,,,,,,,,,,,,,,,,repeat,number,numRpt,f,0.9018,Lo,,,,,,5,,,,,,,,high,23,0,23,0,1,,,,,,,,,
297025,2022-11-25_17h23.20.058,vts_reward_expectancy_bt,2022.2.4,Win32,60.6575276,Chrome,1536,864,,,,,1,1067,,,,,,,,,,,,,,,,,139,W,circle,1,0,,,,,,,,,,,,,,,,switch,letter,lettSwt,k,0.7601,Lo,,,,,,5,,,,,,,,high,24,0,24,0,1,,,,,,,,,
297025,2022-11-25_17h23.20.058,vts_reward_expectancy_bt,2022.2.4,Win32,60.6575276,Chrome,1536,864,,,,,1,1068,,,,,,,,,,,,,,,,,181,Y,star,1,0,,,,,,,,,,,,,,,,repeat,letter,lettRpt,k,0.5165,Hi,,,,,,5,,,,,,,,high,25,0,25,0,1,,,,,,,,,
297025,2022-11-25_17h23.20.058,vts_reward_expectancy_bt,2022.2.4,Win32,60.6575276,Chrome,1536,864,,,,,1,1069,,,,,,,,,,,,,,,,,125,B,hexagon,1,0,,,,,,,,,,,,,,,,switch,number,numSwt,d,0.5715,Lo,,,,,,5,,,,,,,,high,26,0,26,0,1,,,,,,,,,
297025,2022-11-25_17h23.20.058,vts_reward_expectancy_bt,2022.2.4,Win32,60.6575276,Chrome,1536,864,,,,,10,1079,,,,,,,,,,,,,,,,,167,F,triangle,1,0,,,,,,,,,,,,,,,,switch,letter,lettSwt,j,0.7101,Hi,,,,,,5,,,,,,,,high,27,0,27,0,1,,,,,,,,,
297025,2022-11-25_17h23.20.058,vts_reward_expectancy_bt,2022.2.4,Win32,60.6575276,Chrome,1536,864,,,,,1,1080,,,,,,,,,,,,,,,,,132,U,triangle,1,0,,,,,,,,,,,,,,,,repeat,letter,lettRpt,k,0.7051,Hi,,,,,,5,,,,,,,,high,28,0,28,0,1,,,,,,,,,
297025,2022-11-25_17h23.20.058,vts_reward_expectancy_bt,2022.2.4,Win32,60.6575276,Chrome,1536,864,,,,,10,1090,,,,,,,,,,,,,,,,,146,H,star,1,0,,,,,,,,,,,,,,,,switch,number,numSwt,d,0.709,Hi,,,,,,5,,,,,,,,high,29,0,29,0,1,,,,,,,,,
297025,2022-11-25_17h23.20.058,vts_reward_expectancy_bt,2022.2.4,Win32,60.6575276,Chrome,1536,864,,,,,1,1091,,,,,,,,,,,,,,,,,160,S,circle,1,0,,,,,,,,,,,,,,,,repeat,number,numRpt,f,0.5855,Lo,,,,,,5,,,,,,,,high,30,0,30,0,1,,,,,,,,,
297025,2022-11-25_17h23.20.058,vts_reward_expectancy_bt,2022.2.4,Win32,60.6575276,Chrome,1536,864,,,,,10,1101,,,,,,,,,,,,,,,,,174,D,hexagon,1,0,,,,,,,,,,,,,,,,switch,letter,lettSwt,j,0.6181,Lo,,,,,,5,,,,,,,,high,31,0,31,0,1,,,,,,,,,
297025,2022-11-25_17h23.20.058,vts_reward_expectancy_bt,2022.2.4,Win32,60.6575276,Chrome,1536,864,,,,,0,1101,,,,,,,,,,,,,,,,,160,S,triangle,1,0,,,,,,,,,,,,,,,,switch,number,numSwt,f,0.5699,Hi,,,,,,6,,,,,,space,1.1043,high,0,0,0,0,1,,,,,,,,,
297025,2022-11-25_17h23.20.058,vts_reward_expectancy_bt,2022.2.4,Win32,60.6575276,Chrome,1536,864,,,,,0,1101,,,,,,,,,,,,,,,,,146,F,star,1,0,,,,,,,,,,,,,,,,repeat,number,numRpt,d,1.0006,Hi,,,,,,6,,,,,,,,high,1,0,1,0,1,,,,,,,,,
297025,2022-11-25_17h23.20.058,vts_reward_expectancy_bt,2022.2.4,Win32,60.6575276,Chrome,1536,864,,,,,1,1102,,,,,,,,,,,,,,,,,167,B,hexagon,1,0,,,,,,,,,,,,,,,,repeat,number,numRpt,f,0.5369,Lo,,,,,,6,,,,,,,,high,2,0,2,0,1,,,,,,,,,
297025,2022-11-25_17h23.20.058,vts_reward_expectancy_bt,2022.2.4,Win32,60.6575276,Chrome,1536,864,,,,,1,1103,,,,,,,,,,,,,,,,,132,Y,circle,1,0,,,,,,,,,,,,,,,,repeat,number,numRpt,d,0.6725,Lo,,,,,,6,,,,,,,,high,3,0,3,0,1,,,,,,,,,
297025,2022-11-25_17h23.20.058,vts_reward_expectancy_bt,2022.2.4,Win32,60.6575276,Chrome,1536,864,,,,,0,1103,,,,,,,,,,,,,,,,,125,W,triangle,1,0,,,,,,,,,,,,,,,,repeat,number,numRpt,d,0.8007,Hi,,,,,,6,,,,,,,,high,4,0,4,0,1,,,,,,,,,
297025,2022-11-25_17h23.20.058,vts_reward_expectancy_bt,2022.2.4,Win32,60.6575276,Chrome,1536,864,,,,,0,1103,,,,,,,,,,,,,,,,,139,H,star,1,0,,,,,,,,,,,,,,,,switch,letter,lettSwt,j,0.6816,Hi,,,,,,6,,,,,,,,high,5,0,5,0,1,,,,,,,,,
297025,2022-11-25_17h23.20.058,vts_reward_expectancy_bt,2022.2.4,Win32,60.6575276,Chrome,1536,864,,,,,1,1104,,,,,,,,,,,,,,,,,181,U,hexagon,1,0,,,,,,,,,,,,,,,,repeat,letter,lettRpt,k,0.9668,Lo,,,,,,6,,,,,,,,high,6,0,6,0,1,,,,,,,,,
297025,2022-11-25_17h23.20.058,vts_reward_expectancy_bt,2022.2.4,Win32,60.6575276,Chrome,1536,864,,,,,1,1105,,,,,,,,,,,,,,,,,174,D,circle,1,0,,,,,,,,,,,,,,,,switch,number,numSwt,f,0.6291,Lo,,,,,,6,,,,,,,,high,7,0,7,0,1,,,,,,,,,
297025,2022-11-25_17h23.20.058,vts_reward_expectancy_bt,2022.2.4,Win32,60.6575276,Chrome,1536,864,,,,,0,1105,,,,,,,,,,,,,,,,,160,S,star,0,0,,,,,,,,,,,,,,,,switch,letter,NA,j,0.581,Lo,,,,,,6,,,,,,,,high,8,0,8,0,1,,,,,,,,,
297025,2022-11-25_17h23.20.058,vts_reward_expectancy_bt,2022.2.4,Win32,60.6575276,Chrome,1536,864,,,,,0,1105,,,,,,,,,,,,,,,,,146,F,triangle,1,1,,,,,,,,,,,,,,,,repeat,letter,lettRpt,j,0.8473,Hi,,,,,,6,,,,,,,,high,9,0,9,0,1,,,,,,,,,
297025,2022-11-25_17h23.20.058,vts_reward_expectancy_bt,2022.2.4,Win32,60.6575276,Chrome,1536,864,,,,,10,1115,,,,,,,,,,,,,,,,,167,B,hexagon,1,0,,,,,,,,,,,,,,,,repeat,letter,lettRpt,j,0.9636,Lo,,,,,,6,,,,,,,,high,10,0,10,0,1,,,,,,,,,
297025,2022-11-25_17h23.20.058,vts_reward_expectancy_bt,2022.2.4,Win32,60.6575276,Chrome,1536,864,,,,,1,1116,,,,,,,,,,,,,,,,,132,Y,circle,1,0,,,,,,,,,,,,,,,,switch,number,numSwt,d,0.5132,Lo,,,,,,6,,,,,,,,high,11,0,11,0,1,,,,,,,,,
297025,2022-11-25_17h23.20.058,vts_reward_expectancy_bt,2022.2.4,Win32,60.6575276,Chrome,1536,864,,,,,0,1116,,,,,,,,,,,,,,,,,125,W,triangle,1,0,,,,,,,,,,,,,,,,repeat,number,numRpt,d,0.9129,Hi,,,,,,6,,,,,,,,high,12,0,12,0,1,,,,,,,,,
297025,2022-11-25_17h23.20.058,vts_reward_expectancy_bt,2022.2.4,Win32,60.6575276,Chrome,1536,864,,,,,1,1117,,,,,,,,,,,,,,,,,139,H,circle,1,0,,,,,,,,,,,,,,,,repeat,number,numRpt,d,0.743,Lo,,,,,,6,,,,,,,,high,13,0,13,0,1,,,,,,,,,
297025,2022-11-25_17h23.20.058,vts_reward_expectancy_bt,2022.2.4,Win32,60.6575276,Chrome,1536,864,,,,,0,1117,,,,,,,,,,,,,,,,,181,U,star,1,0,,,,,,,,,,,,,,,,repeat,number,numRpt,f,1.0422,Hi,,,,,,6,,,,,,,,high,14,0,14,0,1,,,,,,,,,
297025,2022-11-25_17h23.20.058,vts_reward_expectancy_bt,2022.2.4,Win32,60.6575276,Chrome,1536,864,,,,,1,1118,,,,,,,,,,,,,,,,,174,D,hexagon,1,0,,,,,,,,,,,,,,,,switch,letter,lettSwt,j,0.556,Lo,,,,,,6,,,,,,,,high,15,0,15,0,1,,,,,,,,,
297025,2022-11-25_17h23.20.058,vts_reward_expectancy_bt,2022.2.4,Win32,60.6575276,Chrome,1536,864,,,,,0,1118,,,,,,,,,,,,,,,,,174,Y,triangle,1,0,,,,,,,,,,,,,,,,switch,number,numSwt,f,0.9369,Hi,,,,,,6,,,,,,,,high,16,0,16,0,1,,,,,,,,,
297025,2022-11-25_17h23.20.058,vts_reward_expectancy_bt,2022.2.4,Win32,60.6575276,Chrome,1536,864,,,,,0,1118,,,,,,,,,,,,,,,,,139,H,star,1,0,,,,,,,,,,,,,,,,repeat,number,numRpt,d,0.8013,Hi,,,,,,6,,,,,,,,high,17,0,17,0,1,,,,,,,,,
