participant,date,expName,psychopyVersion,OS,frameRate,browser,xResolution,yResolution,key_resp.keys,key_resp.rt,training_resp.keys,training_resp.rt,points_trial,points_cumul,trainBlock,training.thisRepN,training.thisTrialN,training.thisN,training.thisIndex,training.ran,LTriangleOpac,LCircleOpac,LHexagonOpac,LStarOpac,RTriangleOpac,RCircleOpac,RHexagonOpac,RStarOpac,LShape_ID,RShape_ID,curr_topStim,curr_bottStim,curr_shape,acc,E1,target_resp_prac1.keys,pracBlock,task1_prac_trials.thisRepN,task1_prac_trials.thisTrialN,task1_prac_trials.thisN,task1_prac_trials.thisIndex,task1_prac_trials.ran,target_resp_prac1.rt,target_resp_prac2.keys,target_resp_prac2.rt,task2_praac_trials.thisRepN,task2_praac_trials.thisTrialN,task2_praac_trials.thisN,task2_praac_trials.thisIndex,task2_praac_trials.ran,alt,task,condition,target_resp.keys,target_resp.rt,rewCond,vts_practice_trials.thisRepN,vts_practice_trials.thisTrialN,vts_practice_trials.thisN,vts_practice_trials.thisIndex,vts_practice_trials.ran,blockNum,trials_norew.thisRepN,trials_norew.thisTrialN,trials_norew.thisN,trials_norew.thisIndex,trials_norew.ran,key_resp_2.keys,key_resp_2.rt,rewExpectancy,trials_rew.thisRepN,trials_rew.thisTrialN,trials_rew.thisN,trials_rew.thisIndex,trials_rew.ran,Q1,Q2,Q2_text,Q3,Q4,Q5_text,Q5,xRes,yRes
297070,2022-12-05_01h38.56.817,vts_reward_expectancy_bt,2022.2.4,Win32,60.11421701,Chrome,1500,1000,,,,,,,,,,,,,,,,,,,,,,,,,,,,,,,,,,,,,,,,,,,,,,,,,,,,,,,,,,,,,,,,,,,,,,,,,,,,
297070,2022-12-05_01h38.56.817,vts_reward_expectancy_bt,2022.2.4,Win32,60.11421701,Chrome,1500,1000,space,24.0982,,,,,,,,,,,,,,,,,,,,,,,,,,,,,,,,,,,,,,,,,,,,,,,,,,,,,,,,,,,,,,,,,,,,,,,,,,
297070,2022-12-05_01h38.56.817,vts_reward_expectancy_bt,2022.2.4,Win32,60.11421701,Chrome,1500,1000,,,,,,,,,,,,,,,,,,,,,,,,,,,,,,,,,,,,,,,,,,,,,,,,,,,,,,,,,,,,,,,,,,,,,,,,,,,,
297070,2022-12-05_01h38.56.817,vts_reward_expectancy_bt,2022.2.4,Win32,60.11421701,Chrome,1500,1000,,,a,2.289,1,1,0,0,0,0,1,1,1,0,0,0,0,0,1,0,triangle,hexagon,,,,,,,,,,,,,,,,,,,,,,,,,,,,,,,,,,,,,,,,,,,,,,,,,,,,,,
297070,2022-12-05_01h38.56.817,vts_reward_expectancy_bt,2022.2.4,Win32,60.11421701,Chrome,1500,1000,,,a,2.0316,10,11,0,0,1,1,0,1,1,0,0,0,0,1,0,0,triangle,circle,,,,,,,,,,,,,,,,,,,,,,,,,,,,,,,,,,,,,,,,,,,,,,,,,,,,,,
297070,2022-12-05_01h38.56.817,vts_reward_expectancy_bt,2022.2.4,Win32,60.11421701,Chrome,1500,1000,,,a,0.846700001,10,21,0,0,2,2,3,1,0,1,0,0,1,0,0,0,circle,triangle,,,,,,,,,,,,,,,,,,,,,,,,,,,,,,,,,,,,,,,,,,,,,,,,,,,,,,
297070,2022-12-05_01h38.56.817,vts_reward_expectancy_bt,2022.2.4,Win32,60.11421701,Chrome,1500,1000,,,a,0.780199999,1,22,0,0,3,3,4,1,0,1,0,0,0,0,1,0,circle,hexagon,,,,,,,,,,,,,,,,,,,,,,,,,,,,,,,,,,,,,,,,,,,,,,,,,,,,,,
297070,2022-12-05_01h38.56.817,vts_reward_expectancy_bt,2022.2.4,Win32,60.11421701,Chrome,1500,1000,,,a,0.946299999,1,23,0,0,4,4,10,1,0,0,0,1,0,1,0,0,star ,circle,,,,,,,,,,,,,,,,,,,,,,,,,,,,,,,,,,,,,,,,,,,,,,,,,,,,,,
297070,2022-12-05_01h38.56.817,vts_reward_expectancy_bt,2022.2.4,Win32,60.11421701,Chrome,1500,1000,,,a,0.704599998,1,24,0,0,5,5,5,1,0,1,0,0,0,0,0,1,circle,star,,,,,,,,,,,,,,,,,,,,,,,,,,,,,,,,,,,,,,,,,,,,,,,,,,,,,,
297070,2022-12-05_01h38.56.817,vts_reward_expectancy_bt,2022.2.4,Win32,60.11421701,Chrome,1500,1000,,,l,0.966300001,1,25,0,0,6,6,9,1,0,0,0,1,1,0,0,0,star,triangle,,,,,,,,,,,,,,,,,,,,,,,,,,,,,,,,,,,,,,,,,,,,,,,,,,,,,,
297070,2022-12-05_01h38.56.817,vts_reward_expectancy_bt,2022.2.4,Win32,60.11421701,Chrome,1500,1000,,,l,1.800700001,1,26,0,0,7,7,11,1,0,0,0,1,0,0,1,0,star,hexagon,,,,,,,,,,,,,,,,,,,,,,,,,,,,,,,,,,,,,,,,,,,,,,,,,,,,,,
297070,2022-12-05_01h38.56.817,vts_reward_expectancy_bt,2022.2.4,Win32,60.11421701,Chrome,1500,1000,,,a,0.612300001,10,36,0,0,8,8,8,1,0,0,1,0,0,0,0,1,hexagon,star,,,,,,,,,,,,,,,,,,,,,,,,,,,,,,,,,,,,,,,,,,,,,,,,,,,,,,
297070,2022-12-05_01h38.56.817,vts_reward_expectancy_bt,2022.2.4,Win32,60.11421701,Chrome,1500,1000,,,l,1.162300001,10,46,0,0,9,9,6,1,0,0,1,0,1,0,0,0,hexagon,triangle,,,,,,,,,,,,,,,,,,,,,,,,,,,,,,,,,,,,,,,,,,,,,,,,,,,,,,
297070,2022-12-05_01h38.56.817,vts_reward_expectancy_bt,2022.2.4,Win32,60.11421701,Chrome,1500,1000,,,a,0.8775,1,47,0,0,10,10,2,1,1,0,0,0,0,0,0,1,triangle,star,,,,,,,,,,,,,,,,,,,,,,,,,,,,,,,,,,,,,,,,,,,,,,,,,,,,,,
297070,2022-12-05_01h38.56.817,vts_reward_expectancy_bt,2022.2.4,Win32,60.11421701,Chrome,1500,1000,,,l,0.990799999,1,48,0,0,11,11,7,1,0,0,1,0,0,1,0,0,hexagon,circle,,,,,,,,,,,,,,,,,,,,,,,,,,,,,,,,,,,,,,,,,,,,,,,,,,,,,,
297070,2022-12-05_01h38.56.817,vts_reward_expectancy_bt,2022.2.4,Win32,60.11421701,Chrome,1500,1000,,,a,0.440300001,1,49,0,1,0,12,3,1,0,1,0,0,1,0,0,0,circle,triangle,,,,,,,,,,,,,,,,,,,,,,,,,,,,,,,,,,,,,,,,,,,,,,,,,,,,,,
297070,2022-12-05_01h38.56.817,vts_reward_expectancy_bt,2022.2.4,Win32,60.11421701,Chrome,1500,1000,,,l,1.1134,1,50,0,1,1,13,6,1,0,0,1,0,1,0,0,0,hexagon,triangle,,,,,,,,,,,,,,,,,,,,,,,,,,,,,,,,,,,,,,,,,,,,,,,,,,,,,,
297070,2022-12-05_01h38.56.817,vts_reward_expectancy_bt,2022.2.4,Win32,60.11421701,Chrome,1500,1000,,,a,1.083699999,10,60,0,1,2,14,7,1,0,0,1,0,0,1,0,0,hexagon,circle,,,,,,,,,,,,,,,,,,,,,,,,,,,,,,,,,,,,,,,,,,,,,,,,,,,,,,
297070,2022-12-05_01h38.56.817,vts_reward_expectancy_bt,2022.2.4,Win32,60.11421701,Chrome,1500,1000,,,a,0.695300001,1,61,0,1,3,15,9,1,0,0,0,1,1,0,0,0,star,triangle,,,,,,,,,,,,,,,,,,,,,,,,,,,,,,,,,,,,,,,,,,,,,,,,,,,,,,
297070,2022-12-05_01h38.56.817,vts_reward_expectancy_bt,2022.2.4,Win32,60.11421701,Chrome,1500,1000,,,a,1.0836,1,62,0,1,4,16,1,1,1,0,0,0,0,0,1,0,triangle,hexagon,,,,,,,,,,,,,,,,,,,,,,,,,,,,,,,,,,,,,,,,,,,,,,,,,,,,,,
297070,2022-12-05_01h38.56.817,vts_reward_expectancy_bt,2022.2.4,Win32,60.11421701,Chrome,1500,1000,,,a,0.91,10,72,0,1,5,17,5,1,0,1,0,0,0,0,0,1,circle,star,,,,,,,,,,,,,,,,,,,,,,,,,,,,,,,,,,,,,,,,,,,,,,,,,,,,,,
297070,2022-12-05_01h38.56.817,vts_reward_expectancy_bt,2022.2.4,Win32,60.11421701,Chrome,1500,1000,,,a,1.5995,10,82,0,1,6,18,2,1,1,0,0,0,0,0,0,1,triangle,star,,,,,,,,,,,,,,,,,,,,,,,,,,,,,,,,,,,,,,,,,,,,,,,,,,,,,,
297070,2022-12-05_01h38.56.817,vts_reward_expectancy_bt,2022.2.4,Win32,60.11421701,Chrome,1500,1000,,,a,1.717800001,1,83,0,1,7,19,11,1,0,0,0,1,0,0,1,0,star,hexagon,,,,,,,,,,,,,,,,,,,,,,,,,,,,,,,,,,,,,,,,,,,,,,,,,,,,,,
297070,2022-12-05_01h38.56.817,vts_reward_expectancy_bt,2022.2.4,Win32,60.11421701,Chrome,1500,1000,,,l,1.496400002,10,93,0,1,8,20,0,1,1,0,0,0,0,1,0,0,triangle,circle,,,,,,,,,,,,,,,,,,,,,,,,,,,,,,,,,,,,,,,,,,,,,,,,,,,,,,
297070,2022-12-05_01h38.56.817,vts_reward_expectancy_bt,2022.2.4,Win32,60.11421701,Chrome,1500,1000,,,l,1.1629,10,103,0,1,9,21,10,1,0,0,0,1,0,1,0,0,star ,circle,,,,,,,,,,,,,,,,,,,,,,,,,,,,,,,,,,,,,,,,,,,,,,,,,,,,,,
297070,2022-12-05_01h38.56.817,vts_reward_expectancy_bt,2022.2.4,Win32,60.11421701,Chrome,1500,1000,,,a,1.468299999,10,113,0,1,10,22,8,1,0,0,1,0,0,0,0,1,hexagon,star,,,,,,,,,,,,,,,,,,,,,,,,,,,,,,,,,,,,,,,,,,,,,,,,,,,,,,
297070,2022-12-05_01h38.56.817,vts_reward_expectancy_bt,2022.2.4,Win32,60.11421701,Chrome,1500,1000,,,l,1.6289,1,114,0,1,11,23,4,1,0,1,0,0,0,0,1,0,circle,hexagon,,,,,,,,,,,,,,,,,,,,,,,,,,,,,,,,,,,,,,,,,,,,,,,,,,,,,,
297070,2022-12-05_01h38.56.817,vts_reward_expectancy_bt,2022.2.4,Win32,60.11421701,Chrome,1500,1000,,,l,1.149900002,1,115,0,2,0,24,11,1,0,0,0,1,0,0,1,0,star,hexagon,,,,,,,,,,,,,,,,,,,,,,,,,,,,,,,,,,,,,,,,,,,,,,,,,,,,,,
297070,2022-12-05_01h38.56.817,vts_reward_expectancy_bt,2022.2.4,Win32,60.11421701,Chrome,1500,1000,,,a,1.2675,10,125,0,2,1,25,2,1,1,0,0,0,0,0,0,1,triangle,star,,,,,,,,,,,,,,,,,,,,,,,,,,,,,,,,,,,,,,,,,,,,,,,,,,,,,,
297070,2022-12-05_01h38.56.817,vts_reward_expectancy_bt,2022.2.4,Win32,60.11421701,Chrome,1500,1000,,,l,4.0414,1,126,0,2,2,26,1,1,1,0,0,0,0,0,1,0,triangle,hexagon,,,,,,,,,,,,,,,,,,,,,,,,,,,,,,,,,,,,,,,,,,,,,,,,,,,,,,
297070,2022-12-05_01h38.56.817,vts_reward_expectancy_bt,2022.2.4,Win32,60.11421701,Chrome,1500,1000,,,l,1.262699999,10,136,0,2,3,27,10,1,0,0,0,1,0,1,0,0,star ,circle,,,,,,,,,,,,,,,,,,,,,,,,,,,,,,,,,,,,,,,,,,,,,,,,,,,,,,
297070,2022-12-05_01h38.56.817,vts_reward_expectancy_bt,2022.2.4,Win32,60.11421701,Chrome,1500,1000,,,l,0.763299999,1,137,0,2,4,28,0,1,1,0,0,0,0,1,0,0,triangle,circle,,,,,,,,,,,,,,,,,,,,,,,,,,,,,,,,,,,,,,,,,,,,,,,,,,,,,,
297070,2022-12-05_01h38.56.817,vts_reward_expectancy_bt,2022.2.4,Win32,60.11421701,Chrome,1500,1000,,,a,0.5835,1,138,0,2,5,29,5,1,0,1,0,0,0,0,0,1,circle,star,,,,,,,,,,,,,,,,,,,,,,,,,,,,,,,,,,,,,,,,,,,,,,,,,,,,,,
297070,2022-12-05_01h38.56.817,vts_reward_expectancy_bt,2022.2.4,Win32,60.11421701,Chrome,1500,1000,,,a,0.614299999,10,148,0,2,6,30,8,1,0,0,1,0,0,0,0,1,hexagon,star,,,,,,,,,,,,,,,,,,,,,,,,,,,,,,,,,,,,,,,,,,,,,,,,,,,,,,
297070,2022-12-05_01h38.56.817,vts_reward_expectancy_bt,2022.2.4,Win32,60.11421701,Chrome,1500,1000,,,a,0.938,1,149,0,2,7,31,6,1,0,0,1,0,1,0,0,0,hexagon,triangle,,,,,,,,,,,,,,,,,,,,,,,,,,,,,,,,,,,,,,,,,,,,,,,,,,,,,,
297070,2022-12-05_01h38.56.817,vts_reward_expectancy_bt,2022.2.4,Win32,60.11421701,Chrome,1500,1000,,,a,2.854799999,10,159,0,2,8,32,7,1,0,0,1,0,0,1,0,0,hexagon,circle,,,,,,,,,,,,,,,,,,,,,,,,,,,,,,,,,,,,,,,,,,,,,,,,,,,,,,
297070,2022-12-05_01h38.56.817,vts_reward_expectancy_bt,2022.2.4,Win32,60.11421701,Chrome,1500,1000,,,a,1.4974,10,169,0,2,9,33,9,1,0,0,0,1,1,0,0,0,star,triangle,,,,,,,,,,,,,,,,,,,,,,,,,,,,,,,,,,,,,,,,,,,,,,,,,,,,,,
297070,2022-12-05_01h38.56.817,vts_reward_expectancy_bt,2022.2.4,Win32,60.11421701,Chrome,1500,1000,,,l,2.913700001,1,170,0,2,10,34,4,1,0,1,0,0,0,0,1,0,circle,hexagon,,,,,,,,,,,,,,,,,,,,,,,,,,,,,,,,,,,,,,,,,,,,,,,,,,,,,,
297070,2022-12-05_01h38.56.817,vts_reward_expectancy_bt,2022.2.4,Win32,60.11421701,Chrome,1500,1000,,,a,1.8454,10,180,0,2,11,35,3,1,0,1,0,0,1,0,0,0,circle,triangle,,,,,,,,,,,,,,,,,,,,,,,,,,,,,,,,,,,,,,,,,,,,,,,,,,,,,,
297070,2022-12-05_01h38.56.817,vts_reward_expectancy_bt,2022.2.4,Win32,60.11421701,Chrome,1500,1000,,,a,1.3419,10,190,1,0,0,0,4,1,0,1,0,0,0,0,1,0,circle,hexagon,,,,,,,,,,,,,,,,,,,,,,,,,,,,,,,,,,,,,,,,,,,,,,,,,,,,,,
297070,2022-12-05_01h38.56.817,vts_reward_expectancy_bt,2022.2.4,Win32,60.11421701,Chrome,1500,1000,,,l,1.8769,10,200,1,0,1,1,9,1,0,0,0,1,1,0,0,0,star,triangle,,,,,,,,,,,,,,,,,,,,,,,,,,,,,,,,,,,,,,,,,,,,,,,,,,,,,,
297070,2022-12-05_01h38.56.817,vts_reward_expectancy_bt,2022.2.4,Win32,60.11421701,Chrome,1500,1000,,,l,3.0291,1,201,1,0,2,2,1,1,1,0,0,0,0,0,1,0,triangle,hexagon,,,,,,,,,,,,,,,,,,,,,,,,,,,,,,,,,,,,,,,,,,,,,,,,,,,,,,
297070,2022-12-05_01h38.56.817,vts_reward_expectancy_bt,2022.2.4,Win32,60.11421701,Chrome,1500,1000,,,l,1.478900002,1,202,1,0,3,3,6,1,0,0,1,0,1,0,0,0,hexagon,triangle,,,,,,,,,,,,,,,,,,,,,,,,,,,,,,,,,,,,,,,,,,,,,,,,,,,,,,
297070,2022-12-05_01h38.56.817,vts_reward_expectancy_bt,2022.2.4,Win32,60.11421701,Chrome,1500,1000,,,l,2.261199999,1,203,1,0,4,4,10,1,0,0,0,1,0,1,0,0,star ,circle,,,,,,,,,,,,,,,,,,,,,,,,,,,,,,,,,,,,,,,,,,,,,,,,,,,,,,
297070,2022-12-05_01h38.56.817,vts_reward_expectancy_bt,2022.2.4,Win32,60.11421701,Chrome,1500,1000,,,a,0.948400002,1,204,1,0,5,5,8,1,0,0,1,0,0,0,0,1,hexagon,star,,,,,,,,,,,,,,,,,,,,,,,,,,,,,,,,,,,,,,,,,,,,,,,,,,,,,,
297070,2022-12-05_01h38.56.817,vts_reward_expectancy_bt,2022.2.4,Win32,60.11421701,Chrome,1500,1000,,,l,1.115300001,10,214,1,0,6,6,0,1,1,0,0,0,0,1,0,0,triangle,circle,,,,,,,,,,,,,,,,,,,,,,,,,,,,,,,,,,,,,,,,,,,,,,,,,,,,,,
297070,2022-12-05_01h38.56.817,vts_reward_expectancy_bt,2022.2.4,Win32,60.11421701,Chrome,1500,1000,,,l,0.8834,1,215,1,0,7,7,11,1,0,0,0,1,0,0,1,0,star,hexagon,,,,,,,,,,,,,,,,,,,,,,,,,,,,,,,,,,,,,,,,,,,,,,,,,,,,,,
297070,2022-12-05_01h38.56.817,vts_reward_expectancy_bt,2022.2.4,Win32,60.11421701,Chrome,1500,1000,,,l,0.5969,10,225,1,0,8,8,7,1,0,0,1,0,0,1,0,0,hexagon,circle,,,,,,,,,,,,,,,,,,,,,,,,,,,,,,,,,,,,,,,,,,,,,,,,,,,,,,
297070,2022-12-05_01h38.56.817,vts_reward_expectancy_bt,2022.2.4,Win32,60.11421701,Chrome,1500,1000,,,l,1.669299999,1,226,1,0,9,9,5,1,0,1,0,0,0,0,0,1,circle,star,,,,,,,,,,,,,,,,,,,,,,,,,,,,,,,,,,,,,,,,,,,,,,,,,,,,,,
297070,2022-12-05_01h38.56.817,vts_reward_expectancy_bt,2022.2.4,Win32,60.11421701,Chrome,1500,1000,,,a,2.451300001,1,227,1,0,10,10,3,1,0,1,0,0,1,0,0,0,circle,triangle,,,,,,,,,,,,,,,,,,,,,,,,,,,,,,,,,,,,,,,,,,,,,,,,,,,,,,
297070,2022-12-05_01h38.56.817,vts_reward_expectancy_bt,2022.2.4,Win32,60.11421701,Chrome,1500,1000,,,a,1.6839,1,228,1,0,11,11,2,1,1,0,0,0,0,0,0,1,triangle,star,,,,,,,,,,,,,,,,,,,,,,,,,,,,,,,,,,,,,,,,,,,,,,,,,,,,,,
297070,2022-12-05_01h38.56.817,vts_reward_expectancy_bt,2022.2.4,Win32,60.11421701,Chrome,1500,1000,,,a,0.7545,1,229,1,1,0,12,6,1,0,0,1,0,1,0,0,0,hexagon,triangle,,,,,,,,,,,,,,,,,,,,,,,,,,,,,,,,,,,,,,,,,,,,,,,,,,,,,,
297070,2022-12-05_01h38.56.817,vts_reward_expectancy_bt,2022.2.4,Win32,60.11421701,Chrome,1500,1000,,,l,3.539200001,1,230,1,1,1,13,9,1,0,0,0,1,1,0,0,0,star,triangle,,,,,,,,,,,,,,,,,,,,,,,,,,,,,,,,,,,,,,,,,,,,,,,,,,,,,,
297070,2022-12-05_01h38.56.817,vts_reward_expectancy_bt,2022.2.4,Win32,60.11421701,Chrome,1500,1000,,,l,0.9206,10,240,1,1,2,14,0,1,1,0,0,0,0,1,0,0,triangle,circle,,,,,,,,,,,,,,,,,,,,,,,,,,,,,,,,,,,,,,,,,,,,,,,,,,,,,,
297070,2022-12-05_01h38.56.817,vts_reward_expectancy_bt,2022.2.4,Win32,60.11421701,Chrome,1500,1000,,,l,3.315700001,1,241,1,1,3,15,10,1,0,0,0,1,0,1,0,0,star ,circle,,,,,,,,,,,,,,,,,,,,,,,,,,,,,,,,,,,,,,,,,,,,,,,,,,,,,,
297070,2022-12-05_01h38.56.817,vts_reward_expectancy_bt,2022.2.4,Win32,60.11421701,Chrome,1500,1000,,,a,0.568900002,1,242,1,1,4,16,4,1,0,1,0,0,0,0,1,0,circle,hexagon,,,,,,,,,,,,,,,,,,,,,,,,,,,,,,,,,,,,,,,,,,,,,,,,,,,,,,
297070,2022-12-05_01h38.56.817,vts_reward_expectancy_bt,2022.2.4,Win32,60.11421701,Chrome,1500,1000,,,l,1.896699999,10,252,1,1,5,17,7,1,0,0,1,0,0,1,0,0,hexagon,circle,,,,,,,,,,,,,,,,,,,,,,,,,,,,,,,,,,,,,,,,,,,,,,,,,,,,,,
297070,2022-12-05_01h38.56.817,vts_reward_expectancy_bt,2022.2.4,Win32,60.11421701,Chrome,1500,1000,,,a,0.630200001,1,253,1,1,6,18,3,1,0,1,0,0,1,0,0,0,circle,triangle,,,,,,,,,,,,,,,,,,,,,,,,,,,,,,,,,,,,,,,,,,,,,,,,,,,,,,
297070,2022-12-05_01h38.56.817,vts_reward_expectancy_bt,2022.2.4,Win32,60.11421701,Chrome,1500,1000,,,a,2.519200001,10,263,1,1,7,19,8,1,0,0,1,0,0,0,0,1,hexagon,star,,,,,,,,,,,,,,,,,,,,,,,,,,,,,,,,,,,,,,,,,,,,,,,,,,,,,,
297070,2022-12-05_01h38.56.817,vts_reward_expectancy_bt,2022.2.4,Win32,60.11421701,Chrome,1500,1000,,,a,2.635299999,1,264,1,1,8,20,1,1,1,0,0,0,0,0,1,0,triangle,hexagon,,,,,,,,,,,,,,,,,,,,,,,,,,,,,,,,,,,,,,,,,,,,,,,,,,,,,,
297070,2022-12-05_01h38.56.817,vts_reward_expectancy_bt,2022.2.4,Win32,60.11421701,Chrome,1500,1000,,,l,1.1345,10,274,1,1,9,21,11,1,0,0,0,1,0,0,1,0,star,hexagon,,,,,,,,,,,,,,,,,,,,,,,,,,,,,,,,,,,,,,,,,,,,,,,,,,,,,,
297070,2022-12-05_01h38.56.817,vts_reward_expectancy_bt,2022.2.4,Win32,60.11421701,Chrome,1500,1000,,,a,1.3694,10,284,1,1,10,22,5,1,0,1,0,0,0,0,0,1,circle,star,,,,,,,,,,,,,,,,,,,,,,,,,,,,,,,,,,,,,,,,,,,,,,,,,,,,,,
297070,2022-12-05_01h38.56.817,vts_reward_expectancy_bt,2022.2.4,Win32,60.11421701,Chrome,1500,1000,,,a,1.278300001,10,294,1,1,11,23,2,1,1,0,0,0,0,0,0,1,triangle,star,,,,,,,,,,,,,,,,,,,,,,,,,,,,,,,,,,,,,,,,,,,,,,,,,,,,,,
297070,2022-12-05_01h38.56.817,vts_reward_expectancy_bt,2022.2.4,Win32,60.11421701,Chrome,1500,1000,,,l,2.4679,1,295,1,2,0,24,6,1,0,0,1,0,1,0,0,0,hexagon,triangle,,,,,,,,,,,,,,,,,,,,,,,,,,,,,,,,,,,,,,,,,,,,,,,,,,,,,,
297070,2022-12-05_01h38.56.817,vts_reward_expectancy_bt,2022.2.4,Win32,60.11421701,Chrome,1500,1000,,,a,0.8425,10,305,1,2,1,25,1,1,1,0,0,0,0,0,1,0,triangle,hexagon,,,,,,,,,,,,,,,,,,,,,,,,,,,,,,,,,,,,,,,,,,,,,,,,,,,,,,
297070,2022-12-05_01h38.56.817,vts_reward_expectancy_bt,2022.2.4,Win32,60.11421701,Chrome,1500,1000,,,a,1.054200001,1,306,1,2,2,26,8,1,0,0,1,0,0,0,0,1,hexagon,star,,,,,,,,,,,,,,,,,,,,,,,,,,,,,,,,,,,,,,,,,,,,,,,,,,,,,,
297070,2022-12-05_01h38.56.817,vts_reward_expectancy_bt,2022.2.4,Win32,60.11421701,Chrome,1500,1000,,,a,0.6461,1,307,1,2,3,27,3,1,0,1,0,0,1,0,0,0,circle,triangle,,,,,,,,,,,,,,,,,,,,,,,,,,,,,,,,,,,,,,,,,,,,,,,,,,,,,,
297070,2022-12-05_01h38.56.817,vts_reward_expectancy_bt,2022.2.4,Win32,60.11421701,Chrome,1500,1000,,,l,0.8514,1,308,1,2,4,28,11,1,0,0,0,1,0,0,1,0,star,hexagon,,,,,,,,,,,,,,,,,,,,,,,,,,,,,,,,,,,,,,,,,,,,,,,,,,,,,,
297070,2022-12-05_01h38.56.817,vts_reward_expectancy_bt,2022.2.4,Win32,60.11421701,Chrome,1500,1000,,,l,0.8871,10,318,1,2,5,29,5,1,0,1,0,0,0,0,0,1,circle,star,,,,,,,,,,,,,,,,,,,,,,,,,,,,,,,,,,,,,,,,,,,,,,,,,,,,,,
297070,2022-12-05_01h38.56.817,vts_reward_expectancy_bt,2022.2.4,Win32,60.11421701,Chrome,1500,1000,,,l,1.0601,1,319,1,2,6,30,7,1,0,0,1,0,0,1,0,0,hexagon,circle,,,,,,,,,,,,,,,,,,,,,,,,,,,,,,,,,,,,,,,,,,,,,,,,,,,,,,
297070,2022-12-05_01h38.56.817,vts_reward_expectancy_bt,2022.2.4,Win32,60.11421701,Chrome,1500,1000,,,a,0.6341,1,320,1,2,7,31,4,1,0,1,0,0,0,0,1,0,circle,hexagon,,,,,,,,,,,,,,,,,,,,,,,,,,,,,,,,,,,,,,,,,,,,,,,,,,,,,,
297070,2022-12-05_01h38.56.817,vts_reward_expectancy_bt,2022.2.4,Win32,60.11421701,Chrome,1500,1000,,,l,0.890199999,1,321,1,2,8,32,9,1,0,0,0,1,1,0,0,0,star,triangle,,,,,,,,,,,,,,,,,,,,,,,,,,,,,,,,,,,,,,,,,,,,,,,,,,,,,,
297070,2022-12-05_01h38.56.817,vts_reward_expectancy_bt,2022.2.4,Win32,60.11421701,Chrome,1500,1000,,,a,1.3269,1,322,1,2,9,33,10,1,0,0,0,1,0,1,0,0,star ,circle,,,,,,,,,,,,,,,,,,,,,,,,,,,,,,,,,,,,,,,,,,,,,,,,,,,,,,
297070,2022-12-05_01h38.56.817,vts_reward_expectancy_bt,2022.2.4,Win32,60.11421701,Chrome,1500,1000,,,a,3.121700001,10,332,1,2,10,34,2,1,1,0,0,0,0,0,0,1,triangle,star,,,,,,,,,,,,,,,,,,,,,,,,,,,,,,,,,,,,,,,,,,,,,,,,,,,,,,
297070,2022-12-05_01h38.56.817,vts_reward_expectancy_bt,2022.2.4,Win32,60.11421701,Chrome,1500,1000,,,a,0.797,10,342,1,2,11,35,0,1,1,0,0,0,0,1,0,0,triangle,circle,,,,,,,,,,,,,,,,,,,,,,,,,,,,,,,,,,,,,,,,,,,,,,,,,,,,,,
297070,2022-12-05_01h38.56.817,vts_reward_expectancy_bt,2022.2.4,Win32,60.11421701,Chrome,1500,1000,,,a,3.561800001,1,343,2,0,0,0,7,1,0,0,1,0,0,1,0,0,hexagon,circle,,,,,,,,,,,,,,,,,,,,,,,,,,,,,,,,,,,,,,,,,,,,,,,,,,,,,,
297070,2022-12-05_01h38.56.817,vts_reward_expectancy_bt,2022.2.4,Win32,60.11421701,Chrome,1500,1000,,,l,3.121700001,10,353,2,0,1,1,8,1,0,0,1,0,0,0,0,1,hexagon,star,,,,,,,,,,,,,,,,,,,,,,,,,,,,,,,,,,,,,,,,,,,,,,,,,,,,,,
297070,2022-12-05_01h38.56.817,vts_reward_expectancy_bt,2022.2.4,Win32,60.11421701,Chrome,1500,1000,,,l,1.248099998,1,354,2,0,2,2,0,1,1,0,0,0,0,1,0,0,triangle,circle,,,,,,,,,,,,,,,,,,,,,,,,,,,,,,,,,,,,,,,,,,,,,,,,,,,,,,
297070,2022-12-05_01h38.56.817,vts_reward_expectancy_bt,2022.2.4,Win32,60.11421701,Chrome,1500,1000,,,a,0.9145,10,364,2,0,3,3,9,1,0,0,0,1,1,0,0,0,star,triangle,,,,,,,,,,,,,,,,,,,,,,,,,,,,,,,,,,,,,,,,,,,,,,,,,,,,,,
297070,2022-12-05_01h38.56.817,vts_reward_expectancy_bt,2022.2.4,Win32,60.11421701,Chrome,1500,1000,,,a,0.737200001,1,365,2,0,4,4,6,1,0,0,1,0,1,0,0,0,hexagon,triangle,,,,,,,,,,,,,,,,,,,,,,,,,,,,,,,,,,,,,,,,,,,,,,,,,,,,,,
297070,2022-12-05_01h38.56.817,vts_reward_expectancy_bt,2022.2.4,Win32,60.11421701,Chrome,1500,1000,,,l,0.899700001,1,366,2,0,5,5,10,1,0,0,0,1,0,1,0,0,star ,circle,,,,,,,,,,,,,,,,,,,,,,,,,,,,,,,,,,,,,,,,,,,,,,,,,,,,,,
297070,2022-12-05_01h38.56.817,vts_reward_expectancy_bt,2022.2.4,Win32,60.11421701,Chrome,1500,1000,,,a,1.0971,1,367,2,0,6,6,4,1,0,1,0,0,0,0,1,0,circle,hexagon,,,,,,,,,,,,,,,,,,,,,,,,,,,,,,,,,,,,,,,,,,,,,,,,,,,,,,
297070,2022-12-05_01h38.56.817,vts_reward_expectancy_bt,2022.2.4,Win32,60.11421701,Chrome,1500,1000,,,a,0.723,10,377,2,0,7,7,1,1,1,0,0,0,0,0,1,0,triangle,hexagon,,,,,,,,,,,,,,,,,,,,,,,,,,,,,,,,,,,,,,,,,,,,,,,,,,,,,,
297070,2022-12-05_01h38.56.817,vts_reward_expectancy_bt,2022.2.4,Win32,60.11421701,Chrome,1500,1000,,,a,0.93,1,378,2,0,8,8,3,1,0,1,0,0,1,0,0,0,circle,triangle,,,,,,,,,,,,,,,,,,,,,,,,,,,,,,,,,,,,,,,,,,,,,,,,,,,,,,
297070,2022-12-05_01h38.56.817,vts_reward_expectancy_bt,2022.2.4,Win32,60.11421701,Chrome,1500,1000,,,a,2.657,1,379,2,0,9,9,2,1,1,0,0,0,0,0,0,1,triangle,star,,,,,,,,,,,,,,,,,,,,,,,,,,,,,,,,,,,,,,,,,,,,,,,,,,,,,,
297070,2022-12-05_01h38.56.817,vts_reward_expectancy_bt,2022.2.4,Win32,60.11421701,Chrome,1500,1000,,,a,0.683200001,10,389,2,0,10,10,5,1,0,1,0,0,0,0,0,1,circle,star,,,,,,,,,,,,,,,,,,,,,,,,,,,,,,,,,,,,,,,,,,,,,,,,,,,,,,
297070,2022-12-05_01h38.56.817,vts_reward_expectancy_bt,2022.2.4,Win32,60.11421701,Chrome,1500,1000,,,l,1.2475,1,390,2,0,11,11,11,1,0,0,0,1,0,0,1,0,star,hexagon,,,,,,,,,,,,,,,,,,,,,,,,,,,,,,,,,,,,,,,,,,,,,,,,,,,,,,
297070,2022-12-05_01h38.56.817,vts_reward_expectancy_bt,2022.2.4,Win32,60.11421701,Chrome,1500,1000,,,a,0.63,1,391,2,1,0,12,8,1,0,0,1,0,0,0,0,1,hexagon,star,,,,,,,,,,,,,,,,,,,,,,,,,,,,,,,,,,,,,,,,,,,,,,,,,,,,,,
297070,2022-12-05_01h38.56.817,vts_reward_expectancy_bt,2022.2.4,Win32,60.11421701,Chrome,1500,1000,,,a,1.9864,1,392,2,1,1,13,6,1,0,0,1,0,1,0,0,0,hexagon,triangle,,,,,,,,,,,,,,,,,,,,,,,,,,,,,,,,,,,,,,,,,,,,,,,,,,,,,,
297070,2022-12-05_01h38.56.817,vts_reward_expectancy_bt,2022.2.4,Win32,60.11421701,Chrome,1500,1000,,,a,1.397200001,10,402,2,1,2,14,5,1,0,1,0,0,0,0,0,1,circle,star,,,,,,,,,,,,,,,,,,,,,,,,,,,,,,,,,,,,,,,,,,,,,,,,,,,,,,
297070,2022-12-05_01h38.56.817,vts_reward_expectancy_bt,2022.2.4,Win32,60.11421701,Chrome,1500,1000,,,l,1.5806,10,412,2,1,3,15,10,1,0,0,0,1,0,1,0,0,star ,circle,,,,,,,,,,,,,,,,,,,,,,,,,,,,,,,,,,,,,,,,,,,,,,,,,,,,,,
297070,2022-12-05_01h38.56.817,vts_reward_expectancy_bt,2022.2.4,Win32,60.11421701,Chrome,1500,1000,,,a,1.637199999,10,422,2,1,4,16,3,1,0,1,0,0,1,0,0,0,circle,triangle,,,,,,,,,,,,,,,,,,,,,,,,,,,,,,,,,,,,,,,,,,,,,,,,,,,,,,
297070,2022-12-05_01h38.56.817,vts_reward_expectancy_bt,2022.2.4,Win32,60.11421701,Chrome,1500,1000,,,l,1.2684,10,432,2,1,5,17,9,1,0,0,0,1,1,0,0,0,star,triangle,,,,,,,,,,,,,,,,,,,,,,,,,,,,,,,,,,,,,,,,,,,,,,,,,,,,,,
297070,2022-12-05_01h38.56.817,vts_reward_expectancy_bt,2022.2.4,Win32,60.11421701,Chrome,1500,1000,,,l,3.013199999,1,433,2,1,6,18,0,1,1,0,0,0,0,1,0,0,triangle,circle,,,,,,,,,,,,,,,,,,,,,,,,,,,,,,,,,,,,,,,,,,,,,,,,,,,,,,
297070,2022-12-05_01h38.56.817,vts_reward_expectancy_bt,2022.2.4,Win32,60.11421701,Chrome,1500,1000,,,a,1.436699999,1,434,2,1,7,19,11,1,0,0,0,1,0,0,1,0,star,hexagon,,,,,,,,,,,,,,,,,,,,,,,,,,,,,,,,,,,,,,,,,,,,,,,,,,,,,,
297070,2022-12-05_01h38.56.817,vts_reward_expectancy_bt,2022.2.4,Win32,60.11421701,Chrome,1500,1000,,,a,0.534299999,1,435,2,1,8,20,4,1,0,1,0,0,0,0,1,0,circle,hexagon,,,,,,,,,,,,,,,,,,,,,,,,,,,,,,,,,,,,,,,,,,,,,,,,,,,,,,
297070,2022-12-05_01h38.56.817,vts_reward_expectancy_bt,2022.2.4,Win32,60.11421701,Chrome,1500,1000,,,a,0.517,1,436,2,1,9,21,2,1,1,0,0,0,0,0,0,1,triangle,star,,,,,,,,,,,,,,,,,,,,,,,,,,,,,,,,,,,,,,,,,,,,,,,,,,,,,,
297070,2022-12-05_01h38.56.817,vts_reward_expectancy_bt,2022.2.4,Win32,60.11421701,Chrome,1500,1000,,,a,1.236,1,437,2,1,10,22,7,1,0,0,1,0,0,1,0,0,hexagon,circle,,,,,,,,,,,,,,,,,,,,,,,,,,,,,,,,,,,,,,,,,,,,,,,,,,,,,,
297070,2022-12-05_01h38.56.817,vts_reward_expectancy_bt,2022.2.4,Win32,60.11421701,Chrome,1500,1000,,,a,1.530300001,10,447,2,1,11,23,1,1,1,0,0,0,0,0,1,0,triangle,hexagon,,,,,,,,,,,,,,,,,,,,,,,,,,,,,,,,,,,,,,,,,,,,,,,,,,,,,,
297070,2022-12-05_01h38.56.817,vts_reward_expectancy_bt,2022.2.4,Win32,60.11421701,Chrome,1500,1000,,,a,1.084800001,10,457,2,2,0,24,3,1,0,1,0,0,1,0,0,0,circle,triangle,,,,,,,,,,,,,,,,,,,,,,,,,,,,,,,,,,,,,,,,,,,,,,,,,,,,,,
297070,2022-12-05_01h38.56.817,vts_reward_expectancy_bt,2022.2.4,Win32,60.11421701,Chrome,1500,1000,,,a,1.4304,10,467,2,2,1,25,7,1,0,0,1,0,0,1,0,0,hexagon,circle,,,,,,,,,,,,,,,,,,,,,,,,,,,,,,,,,,,,,,,,,,,,,,,,,,,,,,
297070,2022-12-05_01h38.56.817,vts_reward_expectancy_bt,2022.2.4,Win32,60.11421701,Chrome,1500,1000,,,l,0.881,1,468,2,2,2,26,2,1,1,0,0,0,0,0,0,1,triangle,star,,,,,,,,,,,,,,,,,,,,,,,,,,,,,,,,,,,,,,,,,,,,,,,,,,,,,,
297070,2022-12-05_01h38.56.817,vts_reward_expectancy_bt,2022.2.4,Win32,60.11421701,Chrome,1500,1000,,,l,1.2384,1,469,2,2,3,27,1,1,1,0,0,0,0,0,1,0,triangle,hexagon,,,,,,,,,,,,,,,,,,,,,,,,,,,,,,,,,,,,,,,,,,,,,,,,,,,,,,
297070,2022-12-05_01h38.56.817,vts_reward_expectancy_bt,2022.2.4,Win32,60.11421701,Chrome,1500,1000,,,l,1.1996,10,479,2,2,4,28,4,1,0,1,0,0,0,0,1,0,circle,hexagon,,,,,,,,,,,,,,,,,,,,,,,,,,,,,,,,,,,,,,,,,,,,,,,,,,,,,,
297070,2022-12-05_01h38.56.817,vts_reward_expectancy_bt,2022.2.4,Win32,60.11421701,Chrome,1500,1000,,,l,2.213400002,10,489,2,2,5,29,0,1,1,0,0,0,0,1,0,0,triangle,circle,,,,,,,,,,,,,,,,,,,,,,,,,,,,,,,,,,,,,,,,,,,,,,,,,,,,,,
297070,2022-12-05_01h38.56.817,vts_reward_expectancy_bt,2022.2.4,Win32,60.11421701,Chrome,1500,1000,,,a,0.8841,10,499,2,2,6,30,10,1,0,0,0,1,0,1,0,0,star ,circle,,,,,,,,,,,,,,,,,,,,,,,,,,,,,,,,,,,,,,,,,,,,,,,,,,,,,,
297070,2022-12-05_01h38.56.817,vts_reward_expectancy_bt,2022.2.4,Win32,60.11421701,Chrome,1500,1000,,,a,10.3012,1,500,2,2,7,31,11,1,0,0,0,1,0,0,1,0,star,hexagon,,,,,,,,,,,,,,,,,,,,,,,,,,,,,,,,,,,,,,,,,,,,,,,,,,,,,,
297070,2022-12-05_01h38.56.817,vts_reward_expectancy_bt,2022.2.4,Win32,60.11421701,Chrome,1500,1000,,,l,1.5005,1,501,2,2,8,32,8,1,0,0,1,0,0,0,0,1,hexagon,star,,,,,,,,,,,,,,,,,,,,,,,,,,,,,,,,,,,,,,,,,,,,,,,,,,,,,,
297070,2022-12-05_01h38.56.817,vts_reward_expectancy_bt,2022.2.4,Win32,60.11421701,Chrome,1500,1000,,,l,1.246,1,502,2,2,9,33,5,1,0,1,0,0,0,0,0,1,circle,star,,,,,,,,,,,,,,,,,,,,,,,,,,,,,,,,,,,,,,,,,,,,,,,,,,,,,,
297070,2022-12-05_01h38.56.817,vts_reward_expectancy_bt,2022.2.4,Win32,60.11421701,Chrome,1500,1000,,,l,1.4481,1,503,2,2,10,34,9,1,0,0,0,1,1,0,0,0,star,triangle,,,,,,,,,,,,,,,,,,,,,,,,,,,,,,,,,,,,,,,,,,,,,,,,,,,,,,
297070,2022-12-05_01h38.56.817,vts_reward_expectancy_bt,2022.2.4,Win32,60.11421701,Chrome,1500,1000,,,a,0.7311,1,504,2,2,11,35,6,1,0,0,1,0,1,0,0,0,hexagon,triangle,,,,,,,,,,,,,,,,,,,,,,,,,,,,,,,,,,,,,,,,,,,,,,,,,,,,,,
297070,2022-12-05_01h38.56.817,vts_reward_expectancy_bt,2022.2.4,Win32,60.11421701,Chrome,1500,1000,,,,,,,,,,,,,,,,,,,,,,,U,132,hexagon,0,0,,0,0,0,0,0,1,,,,,,,,,,,,,,,,,,,,,,,,,,,,,,,,,,,,,,,,,,
297070,2022-12-05_01h38.56.817,vts_reward_expectancy_bt,2022.2.4,Win32,60.11421701,Chrome,1500,1000,,,,,,,,,,,,,,,,,,,,,,,S,167,circle,0,1,d,0,1,0,1,0,1,1.7666,,,,,,,,,,,,,,,,,,,,,,,,,,,,,,,,,,,,,,,,,
297070,2022-12-05_01h38.56.817,vts_reward_expectancy_bt,2022.2.4,Win32,60.11421701,Chrome,1500,1000,,,,,,,,,,,,,,,,,,,,,,,B,160,star,0,1,f,0,2,0,2,0,1,0.565200001,,,,,,,,,,,,,,,,,,,,,,,,,,,,,,,,,,,,,,,,,
297070,2022-12-05_01h38.56.817,vts_reward_expectancy_bt,2022.2.4,Win32,60.11421701,Chrome,1500,1000,,,,,,,,,,,,,,,,,,,,,,,F,139,triangle,1,1,d,0,3,0,3,0,1,0.5179,,,,,,,,,,,,,,,,,,,,,,,,,,,,,,,,,,,,,,,,,
297070,2022-12-05_01h38.56.817,vts_reward_expectancy_bt,2022.2.4,Win32,60.11421701,Chrome,1500,1000,,,,,,,,,,,,,,,,,,,,,,,Y,181,hexagon,0,0,d,0,4,0,4,0,1,0.668599998,,,,,,,,,,,,,,,,,,,,,,,,,,,,,,,,,,,,,,,,,
297070,2022-12-05_01h38.56.817,vts_reward_expectancy_bt,2022.2.4,Win32,60.11421701,Chrome,1500,1000,,,,,,,,,,,,,,,,,,,,,,,W,146,circle,1,1,f,0,5,0,5,0,1,2.333700001,,,,,,,,,,,,,,,,,,,,,,,,,,,,,,,,,,,,,,,,,
297070,2022-12-05_01h38.56.817,vts_reward_expectancy_bt,2022.2.4,Win32,60.11421701,Chrome,1500,1000,,,,,,,,,,,,,,,,,,,,,,,H,125,star,1,0,d,0,6,0,6,0,1,0.799300001,,,,,,,,,,,,,,,,,,,,,,,,,,,,,,,,,,,,,,,,,
297070,2022-12-05_01h38.56.817,vts_reward_expectancy_bt,2022.2.4,Win32,60.11421701,Chrome,1500,1000,,,,,,,,,,,,,,,,,,,,,,,D,174,triangle,1,0,d,0,7,0,7,0,1,0.6984,,,,,,,,,,,,,,,,,,,,,,,,,,,,,,,,,,,,,,,,,
297070,2022-12-05_01h38.56.817,vts_reward_expectancy_bt,2022.2.4,Win32,60.11421701,Chrome,1500,1000,,,,,,,,,,,,,,,,,,,,,,,U,132,star,1,0,f,0,8,0,8,0,1,0.949800001,,,,,,,,,,,,,,,,,,,,,,,,,,,,,,,,,,,,,,,,,
297070,2022-12-05_01h38.56.817,vts_reward_expectancy_bt,2022.2.4,Win32,60.11421701,Chrome,1500,1000,,,,,,,,,,,,,,,,,,,,,,,S,167,triangle,1,0,f,0,9,0,9,0,1,0.923700001,,,,,,,,,,,,,,,,,,,,,,,,,,,,,,,,,,,,,,,,,
297070,2022-12-05_01h38.56.817,vts_reward_expectancy_bt,2022.2.4,Win32,60.11421701,Chrome,1500,1000,,,,,,,,,,,,,,,,,,,,,,,F,167,triangle,1,0,d,1,0,0,0,0,1,1.062799999,,,,,,,,,,,,,,,,,,,,,,,,,,,,,,,,,,,,,,,,,
297070,2022-12-05_01h38.56.817,vts_reward_expectancy_bt,2022.2.4,Win32,60.11421701,Chrome,1500,1000,,,,,,,,,,,,,,,,,,,,,,,W,139,star,1,0,f,1,1,0,1,0,1,1.1131,,,,,,,,,,,,,,,,,,,,,,,,,,,,,,,,,,,,,,,,,
297070,2022-12-05_01h38.56.817,vts_reward_expectancy_bt,2022.2.4,Win32,60.11421701,Chrome,1500,1000,,,,,,,,,,,,,,,,,,,,,,,B,125,circle,1,0,d,1,2,0,2,0,1,0.679099998,,,,,,,,,,,,,,,,,,,,,,,,,,,,,,,,,,,,,,,,,
297070,2022-12-05_01h38.56.817,vts_reward_expectancy_bt,2022.2.4,Win32,60.11421701,Chrome,1500,1000,,,,,,,,,,,,,,,,,,,,,,,U,174,hexagon,1,0,f,1,3,0,3,0,1,0.854200001,,,,,,,,,,,,,,,,,,,,,,,,,,,,,,,,,,,,,,,,,
297070,2022-12-05_01h38.56.817,vts_reward_expectancy_bt,2022.2.4,Win32,60.11421701,Chrome,1500,1000,,,,,,,,,,,,,,,,,,,,,,,S,181,triangle,1,0,f,1,4,0,4,0,1,1.082799999,,,,,,,,,,,,,,,,,,,,,,,,,,,,,,,,,,,,,,,,,
297070,2022-12-05_01h38.56.817,vts_reward_expectancy_bt,2022.2.4,Win32,60.11421701,Chrome,1500,1000,,,,,,,,,,,,,,,,,,,,,,,H,132,star,1,0,d,1,5,0,5,0,1,0.989599998,,,,,,,,,,,,,,,,,,,,,,,,,,,,,,,,,,,,,,,,,
297070,2022-12-05_01h38.56.817,vts_reward_expectancy_bt,2022.2.4,Win32,60.11421701,Chrome,1500,1000,,,,,,,,,,,,,,,,,,,,,,,D,160,circle,1,0,d,1,6,0,6,0,1,0.749900002,,,,,,,,,,,,,,,,,,,,,,,,,,,,,,,,,,,,,,,,,
297070,2022-12-05_01h38.56.817,vts_reward_expectancy_bt,2022.2.4,Win32,60.11421701,Chrome,1500,1000,,,,,,,,,,,,,,,,,,,,,,,Y,146,hexagon,1,0,f,1,7,0,7,0,1,0.799299999,,,,,,,,,,,,,,,,,,,,,,,,,,,,,,,,,,,,,,,,,
297070,2022-12-05_01h38.56.817,vts_reward_expectancy_bt,2022.2.4,Win32,60.11421701,Chrome,1500,1000,,,,,,,,,,,,,,,,,,,,,,,F,167,circle,1,0,d,1,8,0,8,0,1,0.734,,,,,,,,,,,,,,,,,,,,,,,,,,,,,,,,,,,,,,,,,
297070,2022-12-05_01h38.56.817,vts_reward_expectancy_bt,2022.2.4,Win32,60.11421701,Chrome,1500,1000,,,,,,,,,,,,,,,,,,,,,,,W,139,triangle,1,0,f,1,9,0,9,0,1,1.6999,,,,,,,,,,,,,,,,,,,,,,,,,,,,,,,,,,,,,,,,,
297070,2022-12-05_01h38.56.817,vts_reward_expectancy_bt,2022.2.4,Win32,60.11421701,Chrome,1500,1000,,,,,,,,,,,,,,,,,,,,,,,H,139,hexagon,1,0,,2,,,,,,,j,2.1499,0,0,0,0,1,,,,,,,,,,,,,,,,,,,,,,,,,,,,,,,,,,
297070,2022-12-05_01h38.56.817,vts_reward_expectancy_bt,2022.2.4,Win32,60.11421701,Chrome,1500,1000,,,,,,,,,,,,,,,,,,,,,,,B,146,circle,1,0,,2,,,,,,,j,0.7166,1,0,1,0,1,,,,,,,,,,,,,,,,,,,,,,,,,,,,,,,,,,
297070,2022-12-05_01h38.56.817,vts_reward_expectancy_bt,2022.2.4,Win32,60.11421701,Chrome,1500,1000,,,,,,,,,,,,,,,,,,,,,,,S,125,triangle,1,0,,2,,,,,,,j,1.616700001,2,0,2,0,1,,,,,,,,,,,,,,,,,,,,,,,,,,,,,,,,,,
297070,2022-12-05_01h38.56.817,vts_reward_expectancy_bt,2022.2.4,Win32,60.11421701,Chrome,1500,1000,,,,,,,,,,,,,,,,,,,,,,,W,167,star,1,0,,2,,,,,,,k,1.1331,3,0,3,0,1,,,,,,,,,,,,,,,,,,,,,,,,,,,,,,,,,,
297070,2022-12-05_01h38.56.817,vts_reward_expectancy_bt,2022.2.4,Win32,60.11421701,Chrome,1500,1000,,,,,,,,,,,,,,,,,,,,,,,D,174,hexagon,1,0,,2,,,,,,,k,2.050700001,4,0,4,0,1,,,,,,,,,,,,,,,,,,,,,,,,,,,,,,,,,,
297070,2022-12-05_01h38.56.817,vts_reward_expectancy_bt,2022.2.4,Win32,60.11421701,Chrome,1500,1000,,,,,,,,,,,,,,,,,,,,,,,Y,160,circle,1,0,,2,,,,,,,k,0.983199999,5,0,5,0,1,,,,,,,,,,,,,,,,,,,,,,,,,,,,,,,,,,
297070,2022-12-05_01h38.56.817,vts_reward_expectancy_bt,2022.2.4,Win32,60.11421701,Chrome,1500,1000,,,,,,,,,,,,,,,,,,,,,,,U,132,triangle,1,0,,2,,,,,,,j,1.172400002,6,0,6,0,1,,,,,,,,,,,,,,,,,,,,,,,,,,,,,,,,,,
297070,2022-12-05_01h38.56.817,vts_reward_expectancy_bt,2022.2.4,Win32,60.11421701,Chrome,1500,1000,,,,,,,,,,,,,,,,,,,,,,,F,181,star,1,0,,2,,,,,,,k,1.0496,7,0,7,0,1,,,,,,,,,,,,,,,,,,,,,,,,,,,,,,,,,,
297070,2022-12-05_01h38.56.817,vts_reward_expectancy_bt,2022.2.4,Win32,60.11421701,Chrome,1500,1000,,,,,,,,,,,,,,,,,,,,,,,H,139,star,1,0,,2,,,,,,,j,0.8074,8,0,8,0,1,,,,,,,,,,,,,,,,,,,,,,,,,,,,,,,,,,
297070,2022-12-05_01h38.56.817,vts_reward_expectancy_bt,2022.2.4,Win32,60.11421701,Chrome,1500,1000,,,,,,,,,,,,,,,,,,,,,,,B,146,hexagon,0,0,,2,,,,,,,,,9,0,9,0,1,,,,,,,,,,,,,,,,,,,,,,,,,,,,,,,,,,
297070,2022-12-05_01h38.56.817,vts_reward_expectancy_bt,2022.2.4,Win32,60.11421701,Chrome,1500,1000,,,,,0,504,,,,,,,,,,,,,,,,,U,167,hexagon,1,1,,3,,,,,,,,,,,,,,-1,letter,NA,f,2.8275,vtsPrac,0,0,0,0,1,,,,,,,,,,,,,,,,,,,,,,,
297070,2022-12-05_01h38.56.817,vts_reward_expectancy_bt,2022.2.4,Win32,60.11421701,Chrome,1500,1000,,,,,0,504,,,,,,,,,,,,,,,,,Y,139,star,0,0,,3,,,,,,,,,,,,,,switch,number,NA,k,2.572599998,vtsPrac,1,0,1,0,1,,,,,,,,,,,,,,,,,,,,,,,
297070,2022-12-05_01h38.56.817,vts_reward_expectancy_bt,2022.2.4,Win32,60.11421701,Chrome,1500,1000,,,,,0,504,,,,,,,,,,,,,,,,,B,146,hexagon,1,1,,3,,,,,,,,,,,,,,switch,letter,lettSwt,d,2.834,vtsPrac,2,0,2,0,1,,,,,,,,,,,,,,,,,,,,,,,
297070,2022-12-05_01h38.56.817,vts_reward_expectancy_bt,2022.2.4,Win32,60.11421701,Chrome,1500,1000,,,,,0,504,,,,,,,,,,,,,,,,,F,160,star,1,0,,3,,,,,,,,,,,,,,repeat,letter,lettRpt,d,1.582799999,vtsPrac,3,0,3,0,1,,,,,,,,,,,,,,,,,,,,,,,
297070,2022-12-05_01h38.56.817,vts_reward_expectancy_bt,2022.2.4,Win32,60.11421701,Chrome,1500,1000,,,,,0,504,,,,,,,,,,,,,,,,,U,167,circle,1,0,,3,,,,,,,,,,,,,,switch,number,numSwt,k,0.800599998,vtsPrac,4,0,4,0,1,,,,,,,,,,,,,,,,,,,,,,,
297070,2022-12-05_01h38.56.817,vts_reward_expectancy_bt,2022.2.4,Win32,60.11421701,Chrome,1500,1000,,,,,0,504,,,,,,,,,,,,,,,,,Y,139,star,1,0,,3,,,,,,,,,,,,,,switch,letter,lettSwt,f,1.266599998,vtsPrac,5,0,5,0,1,,,,,,,,,,,,,,,,,,,,,,,
297070,2022-12-05_01h38.56.817,vts_reward_expectancy_bt,2022.2.4,Win32,60.11421701,Chrome,1500,1000,,,,,0,504,,,,,,,,,,,,,,,,,B,146,triangle,1,0,,3,,,,,,,,,,,,,,switch,number,numSwt,j,1.5335,vtsPrac,6,0,6,0,1,,,,,,,,,,,,,,,,,,,,,,,
297070,2022-12-05_01h38.56.817,vts_reward_expectancy_bt,2022.2.4,Win32,60.11421701,Chrome,1500,1000,,,,,0,504,,,,,,,,,,,,,,,,,F,160,star,1,0,,3,,,,,,,,,,,,,,switch,letter,lettSwt,d,1.449699999,vtsPrac,7,0,7,0,1,,,,,,,,,,,,,,,,,,,,,,,
297070,2022-12-05_01h38.56.817,vts_reward_expectancy_bt,2022.2.4,Win32,60.11421701,Chrome,1500,1000,,,,,0,504,,,,,,,,,,,,,,,,,Y,174,hexagon,1,0,,3,,,,,,,,,,,,,,switch,number,numSwt,k,0.8219,vtsPrac,8,0,8,0,1,,,,,,,,,,,,,,,,,,,,,,,
297070,2022-12-05_01h38.56.817,vts_reward_expectancy_bt,2022.2.4,Win32,60.11421701,Chrome,1500,1000,,,,,0,504,,,,,,,,,,,,,,,,,W,132,triangle,1,0,,3,,,,,,,,,,,,,,switch,letter,lettSwt,f,2.0995,vtsPrac,9,0,9,0,1,,,,,,,,,,,,,,,,,,,,,,,
297070,2022-12-05_01h38.56.817,vts_reward_expectancy_bt,2022.2.4,Win32,60.11421701,Chrome,1500,1000,,,,,0,504,,,,,,,,,,,,,,,,,U,160,triangle,1,0,,3,,,,,,,,,,,,,,switch,number,numSwt,k,0.820199999,vtsPrac,10,0,10,0,1,,,,,,,,,,,,,,,,,,,,,,,
297070,2022-12-05_01h38.56.817,vts_reward_expectancy_bt,2022.2.4,Win32,60.11421701,Chrome,1500,1000,,,,,0,504,,,,,,,,,,,,,,,,,D,125,star,1,0,,3,,,,,,,,,,,,,,repeat,number,numRpt,j,0.6505,vtsPrac,11,0,11,0,1,,,,,,,,,,,,,,,,,,,,,,,
297070,2022-12-05_01h38.56.817,vts_reward_expectancy_bt,2022.2.4,Win32,60.11421701,Chrome,1500,1000,,,,,0,504,,,,,,,,,,,,,,,,,H,160,triangle,1,0,,3,,,,,,,,,,,,,,repeat,number,numRpt,k,0.822199999,vtsPrac,12,0,12,0,1,,,,,,,,,,,,,,,,,,,,,,,
297070,2022-12-05_01h38.56.817,vts_reward_expectancy_bt,2022.2.4,Win32,60.11421701,Chrome,1500,1000,,,,,0,504,,,,,,,,,,,,,,,,,B,174,circle,1,0,,3,,,,,,,,,,,,,,switch,letter,lettSwt,d,1.1554,vtsPrac,13,0,13,0,1,,,,,,,,,,,,,,,,,,,,,,,
297070,2022-12-05_01h38.56.817,vts_reward_expectancy_bt,2022.2.4,Win32,60.11421701,Chrome,1500,1000,,,,,0,504,,,,,,,,,,,,,,,,,U,132,triangle,1,0,,3,,,,,,,,,,,,,,repeat,letter,lettRpt,f,1.1665,vtsPrac,14,0,14,0,1,,,,,,,,,,,,,,,,,,,,,,,
297070,2022-12-05_01h38.56.817,vts_reward_expectancy_bt,2022.2.4,Win32,60.11421701,Chrome,1500,1000,,,,,0,504,,,,,,,,,,,,,,,,,Y,181,star,1,0,,3,,,,,,,,,,,,,,switch,number,numSwt,k,1.0614,vtsPrac,15,0,15,0,1,,,,,,,,,,,,,,,,,,,,,,,
297070,2022-12-05_01h38.56.817,vts_reward_expectancy_bt,2022.2.4,Win32,60.11421701,Chrome,1500,1000,,,,,0,504,,,,,,,,,,,,,,,,,F,181,star,1,0,,3,,,,,,,,,,,,,,repeat,number,numRpt,k,0.914200001,vtsPrac,16,0,16,0,1,,,,,,,,,,,,,,,,,,,,,,,
297070,2022-12-05_01h38.56.817,vts_reward_expectancy_bt,2022.2.4,Win32,60.11421701,Chrome,1500,1000,,,,,0,504,,,,,,,,,,,,,,,,,B,167,circle,1,0,,3,,,,,,,,,,,,,,repeat,number,numRpt,k,1.678699999,vtsPrac,17,0,17,0,1,,,,,,,,,,,,,,,,,,,,,,,
297070,2022-12-05_01h38.56.817,vts_reward_expectancy_bt,2022.2.4,Win32,60.11421701,Chrome,1500,1000,,,,,0,504,,,,,,,,,,,,,,,,,Y,160,circle,1,0,,3,,,,,,,,,,,,,,switch,letter,lettSwt,f,0.583299999,vtsPrac,18,0,18,0,1,,,,,,,,,,,,,,,,,,,,,,,
297070,2022-12-05_01h38.56.817,vts_reward_expectancy_bt,2022.2.4,Win32,60.11421701,Chrome,1500,1000,,,,,0,504,,,,,,,,,,,,,,,,,U,125,hexagon,1,0,,3,,,,,,,,,,,,,,switch,number,numSwt,j,1.116200001,vtsPrac,19,0,19,0,1,,,,,,,,,,,,,,,,,,,,,,,
297070,2022-12-05_01h38.56.817,vts_reward_expectancy_bt,2022.2.4,Win32,60.11421701,Chrome,1500,1000,,,,,0,504,,,,,,,,,,,,,,,,,H,181,triangle,1,0,,3,,,,,,,,,,,,,,switch,letter,lettSwt,d,2.9336,vtsPrac,20,0,20,0,1,,,,,,,,,,,,,,,,,,,,,,,
297070,2022-12-05_01h38.56.817,vts_reward_expectancy_bt,2022.2.4,Win32,60.11421701,Chrome,1500,1000,,,,,0,504,,,,,,,,,,,,,,,,,D,139,hexagon,1,0,,3,,,,,,,,,,,,,,switch,number,numSwt,j,1.089200001,vtsPrac,21,0,21,0,1,,,,,,,,,,,,,,,,,,,,,,,
297070,2022-12-05_01h38.56.817,vts_reward_expectancy_bt,2022.2.4,Win32,60.11421701,Chrome,1500,1000,,,,,0,504,,,,,,,,,,,,,,,,,W,146,circle,1,0,,3,,,,,,,,,,,,,,switch,letter,lettSwt,f,0.934,vtsPrac,22,0,22,0,1,,,,,,,,,,,,,,,,,,,,,,,
297070,2022-12-05_01h38.56.817,vts_reward_expectancy_bt,2022.2.4,Win32,60.11421701,Chrome,1500,1000,,,,,0,504,,,,,,,,,,,,,,,,,S,174,hexagon,1,0,,3,,,,,,,,,,,,,,repeat,letter,lettRpt,f,2.287,vtsPrac,23,0,23,0,1,,,,,,,,,,,,,,,,,,,,,,,
297070,2022-12-05_01h38.56.817,vts_reward_expectancy_bt,2022.2.4,Win32,60.11421701,Chrome,1500,1000,,,,,0,504,,,,,,,,,,,,,,,,,F,181,triangle,1,0,,3,,,,,,,,,,,,,,switch,number,numSwt,k,2.44,vtsPrac,24,0,24,0,1,,,,,,,,,,,,,,,,,,,,,,,
297070,2022-12-05_01h38.56.817,vts_reward_expectancy_bt,2022.2.4,Win32,60.11421701,Chrome,1500,1000,,,,,0,504,,,,,,,,,,,,,,,,,S,174,star,1,0,,3,,,,,,,,,,,,,,repeat,number,numRpt,k,1.073699999,vtsPrac,25,0,25,0,1,,,,,,,,,,,,,,,,,,,,,,,
297070,2022-12-05_01h38.56.817,vts_reward_expectancy_bt,2022.2.4,Win32,60.11421701,Chrome,1500,1000,,,,,0,504,,,,,,,,,,,,,,,,,Y,139,hexagon,1,0,,3,,,,,,,,,,,,,,repeat,number,numRpt,j,0.8051,vtsPrac,26,0,26,0,1,,,,,,,,,,,,,,,,,,,,,,,
297070,2022-12-05_01h38.56.817,vts_reward_expectancy_bt,2022.2.4,Win32,60.11421701,Chrome,1500,1000,,,,,0,504,,,,,,,,,,,,,,,,,H,167,star,1,0,,3,,,,,,,,,,,,,,switch,letter,lettSwt,d,2.782799999,vtsPrac,27,0,27,0,1,,,,,,,,,,,,,,,,,,,,,,,
297070,2022-12-05_01h38.56.817,vts_reward_expectancy_bt,2022.2.4,Win32,60.11421701,Chrome,1500,1000,,,,,0,504,,,,,,,,,,,,,,,,,U,146,hexagon,1,0,,3,,,,,,,,,,,,,,repeat,letter,lettRpt,f,1.2,vtsPrac,28,0,28,0,1,,,,,,,,,,,,,,,,,,,,,,,
297070,2022-12-05_01h38.56.817,vts_reward_expectancy_bt,2022.2.4,Win32,60.11421701,Chrome,1500,1000,,,,,0,504,,,,,,,,,,,,,,,,,H,132,star,1,0,,3,,,,,,,,,,,,,,switch,number,numSwt,j,1.200299999,vtsPrac,29,0,29,0,1,,,,,,,,,,,,,,,,,,,,,,,
297070,2022-12-05_01h38.56.817,vts_reward_expectancy_bt,2022.2.4,Win32,60.11421701,Chrome,1500,1000,,,,,0,504,,,,,,,,,,,,,,,,,B,167,triangle,1,0,,3,,,,,,,,,,,,,,switch,letter,lettSwt,d,1.3151,vtsPrac,30,0,30,0,1,,,,,,,,,,,,,,,,,,,,,,,
297070,2022-12-05_01h38.56.817,vts_reward_expectancy_bt,2022.2.4,Win32,60.11421701,Chrome,1500,1000,,,,,0,504,,,,,,,,,,,,,,,,,Y,174,star,1,0,,3,,,,,,,,,,,,,,repeat,letter,lettRpt,f,2.356200001,vtsPrac,31,0,31,0,1,,,,,,,,,,,,,,,,,,,,,,,
297070,2022-12-05_01h38.56.817,vts_reward_expectancy_bt,2022.2.4,Win32,60.11421701,Chrome,1500,1000,,,,,,,,,,,,,,,,,,,,,,,,,,,,,,,,,,,,,,,,,,,,,,,,,,,,,,,,,,,,,,,,,,,,,,,,,,,,
297070,2022-12-05_01h38.56.817,vts_reward_expectancy_bt,2022.2.4,Win32,60.11421701,Chrome,1500,1000,,,,,,,,,,,,,,,,,,,,,,,,,,,,,,,,,,,,,,,,,,,,,,,,,,,,,,,,,,,,,,,,,,,,,,,,,,,,
297070,2022-12-05_01h38.56.817,vts_reward_expectancy_bt,2022.2.4,Win32,60.11421701,Chrome,1500,1000,,,,,0,504,,,,,,,,,,,,,,,,,Y,146,star,1,0,,,,,,,,,,,,,,,,repeat,letter,lettRpt,f,1.7336,noRew,,,,,,0,0,0,0,0,1,,,,,,,,,,,,,,,,,
297070,2022-12-05_01h38.56.817,vts_reward_expectancy_bt,2022.2.4,Win32,60.11421701,Chrome,1500,1000,,,,,0,504,,,,,,,,,,,,,,,,,H,167,circle,1,0,,,,,,,,,,,,,,,,switch,number,numSwt,k,1.3999,noRew,,,,,,0,1,0,1,0,1,,,,,,,,,,,,,,,,,
297070,2022-12-05_01h38.56.817,vts_reward_expectancy_bt,2022.2.4,Win32,60.11421701,Chrome,1500,1000,,,,,0,504,,,,,,,,,,,,,,,,,D,174,star,1,0,,,,,,,,,,,,,,,,repeat,number,numRpt,k,0.6889,noRew,,,,,,0,2,0,2,0,1,,,,,,,,,,,,,,,,,
297070,2022-12-05_01h38.56.817,vts_reward_expectancy_bt,2022.2.4,Win32,60.11421701,Chrome,1500,1000,,,,,0,504,,,,,,,,,,,,,,,,,W,125,circle,1,0,,,,,,,,,,,,,,,,repeat,number,numRpt,j,1.583300001,noRew,,,,,,0,3,0,3,0,1,,,,,,,,,,,,,,,,,
297070,2022-12-05_01h38.56.817,vts_reward_expectancy_bt,2022.2.4,Win32,60.11421701,Chrome,1500,1000,,,,,0,504,,,,,,,,,,,,,,,,,Y,146,star,1,0,,,,,,,,,,,,,,,,switch,letter,lettSwt,f,1.1396,noRew,,,,,,0,4,0,4,0,1,,,,,,,,,,,,,,,,,
297070,2022-12-05_01h38.56.817,vts_reward_expectancy_bt,2022.2.4,Win32,60.11421701,Chrome,1500,1000,,,,,0,504,,,,,,,,,,,,,,,,,H,167,hexagon,1,0,,,,,,,,,,,,,,,,switch,number,numSwt,k,2.2554,noRew,,,,,,0,5,0,5,0,1,,,,,,,,,,,,,,,,,
297070,2022-12-05_01h38.56.817,vts_reward_expectancy_bt,2022.2.4,Win32,60.11421701,Chrome,1500,1000,,,,,0,504,,,,,,,,,,,,,,,,,D,174,star,1,0,,,,,,,,,,,,,,,,repeat,number,numRpt,k,1.3841,noRew,,,,,,0,6,0,6,0,1,,,,,,,,,,,,,,,,,
297070,2022-12-05_01h38.56.817,vts_reward_expectancy_bt,2022.2.4,Win32,60.11421701,Chrome,1500,1000,,,,,0,504,,,,,,,,,,,,,,,,,W,125,circle,1,0,,,,,,,,,,,,,,,,switch,letter,lettSwt,f,1.099699999,noRew,,,,,,0,7,0,7,0,1,,,,,,,,,,,,,,,,,
297070,2022-12-05_01h38.56.817,vts_reward_expectancy_bt,2022.2.4,Win32,60.11421701,Chrome,1500,1000,,,,,0,504,,,,,,,,,,,,,,,,,H,167,star,1,0,,,,,,,,,,,,,,,,repeat,letter,lettRpt,d,2.013,noRew,,,,,,0,8,0,8,0,1,,,,,,,,,,,,,,,,,
297070,2022-12-05_01h38.56.817,vts_reward_expectancy_bt,2022.2.4,Win32,60.11421701,Chrome,1500,1000,,,,,0,504,,,,,,,,,,,,,,,,,B,181,circle,1,0,,,,,,,,,,,,,,,,repeat,letter,lettRpt,d,1.537700001,noRew,,,,,,0,9,0,9,0,1,,,,,,,,,,,,,,,,,
297070,2022-12-05_01h38.56.817,vts_reward_expectancy_bt,2022.2.4,Win32,60.11421701,Chrome,1500,1000,,,,,0,504,,,,,,,,,,,,,,,,,F,174,hexagon,1,0,,,,,,,,,,,,,,,,repeat,letter,lettRpt,d,1.6995,noRew,,,,,,0,10,0,10,0,1,,,,,,,,,,,,,,,,,
297070,2022-12-05_01h38.56.817,vts_reward_expectancy_bt,2022.2.4,Win32,60.11421701,Chrome,1500,1000,,,,,0,504,,,,,,,,,,,,,,,,,D,139,star,1,0,,,,,,,,,,,,,,,,switch,number,numSwt,j,1.0165,noRew,,,,,,0,11,0,11,0,1,,,,,,,,,,,,,,,,,
297070,2022-12-05_01h38.56.817,vts_reward_expectancy_bt,2022.2.4,Win32,60.11421701,Chrome,1500,1000,,,,,0,504,,,,,,,,,,,,,,,,,F,146,circle,1,0,,,,,,,,,,,,,,,,repeat,number,numRpt,j,1.383800001,noRew,,,,,,0,12,0,12,0,1,,,,,,,,,,,,,,,,,
297070,2022-12-05_01h38.56.817,vts_reward_expectancy_bt,2022.2.4,Win32,60.11421701,Chrome,1500,1000,,,,,0,504,,,,,,,,,,,,,,,,,W,132,triangle,-1,0,,,,,,,,,,,,,,,,switch,no_choice,NA,,,noRew,,,,,,0,13,0,13,0,1,,,,,,,,,,,,,,,,,
297070,2022-12-05_01h38.56.817,vts_reward_expectancy_bt,2022.2.4,Win32,60.11421701,Chrome,1500,1000,,,,,0,504,,,,,,,,,,,,,,,,,B,160,circle,-1,0,,,,,,,,,,,,,,,,repeat,no_choice,NA,,,noRew,,,,,,0,14,0,14,0,1,,,,,,,,,,,,,,,,,
297070,2022-12-05_01h38.56.817,vts_reward_expectancy_bt,2022.2.4,Win32,60.11421701,Chrome,1500,1000,,,,,0,504,,,,,,,,,,,,,,,,,Y,167,triangle,1,0,,,,,,,,,,,,,,,,switch,letter,lettSwt,f,1.456700001,noRew,,,,,,0,15,0,15,0,1,,,,,,,,,,,,,,,,,
297070,2022-12-05_01h38.56.817,vts_reward_expectancy_bt,2022.2.4,Win32,60.11421701,Chrome,1500,1000,,,,,0,504,,,,,,,,,,,,,,,,,D,132,hexagon,1,0,,,,,,,,,,,,,,,,switch,number,numSwt,j,2.3669,noRew,,,,,,0,16,0,16,0,1,,,,,,,,,,,,,,,,,
297070,2022-12-05_01h38.56.817,vts_reward_expectancy_bt,2022.2.4,Win32,60.11421701,Chrome,1500,1000,,,,,0,504,,,,,,,,,,,,,,,,,F,139,circle,1,0,,,,,,,,,,,,,,,,repeat,number,numRpt,j,1.791,noRew,,,,,,0,17,0,17,0,1,,,,,,,,,,,,,,,,,
297070,2022-12-05_01h38.56.817,vts_reward_expectancy_bt,2022.2.4,Win32,60.11421701,Chrome,1500,1000,,,,,0,504,,,,,,,,,,,,,,,,,S,174,star,1,0,,,,,,,,,,,,,,,,repeat,number,numRpt,k,1.349699999,noRew,,,,,,0,18,0,18,0,1,,,,,,,,,,,,,,,,,
297070,2022-12-05_01h38.56.817,vts_reward_expectancy_bt,2022.2.4,Win32,60.11421701,Chrome,1500,1000,,,,,0,504,,,,,,,,,,,,,,,,,Y,181,circle,1,0,,,,,,,,,,,,,,,,repeat,number,numRpt,k,1.217700001,noRew,,,,,,0,19,0,19,0,1,,,,,,,,,,,,,,,,,
297070,2022-12-05_01h38.56.817,vts_reward_expectancy_bt,2022.2.4,Win32,60.11421701,Chrome,1500,1000,,,,,0,504,,,,,,,,,,,,,,,,,W,160,triangle,1,0,,,,,,,,,,,,,,,,switch,letter,lettSwt,f,2.858,noRew,,,,,,0,20,0,20,0,1,,,,,,,,,,,,,,,,,
297070,2022-12-05_01h38.56.817,vts_reward_expectancy_bt,2022.2.4,Win32,60.11421701,Chrome,1500,1000,,,,,0,504,,,,,,,,,,,,,,,,,H,181,star,-1,0,,,,,,,,,,,,,,,,switch,no_choice,NA,,,noRew,,,,,,0,21,0,21,0,1,,,,,,,,,,,,,,,,,
297070,2022-12-05_01h38.56.817,vts_reward_expectancy_bt,2022.2.4,Win32,60.11421701,Chrome,1500,1000,,,,,0,504,,,,,,,,,,,,,,,,,D,139,circle,0,0,,,,,,,,,,,,,,,,switch,letter,NA,f,1.2344,noRew,,,,,,0,22,0,22,0,1,,,,,,,,,,,,,,,,,
297070,2022-12-05_01h38.56.817,vts_reward_expectancy_bt,2022.2.4,Win32,60.11421701,Chrome,1500,1000,,,,,0,504,,,,,,,,,,,,,,,,,B,132,triangle,1,1,,,,,,,,,,,,,,,,repeat,letter,lettRpt,d,1.821799999,noRew,,,,,,0,23,0,23,0,1,,,,,,,,,,,,,,,,,
297070,2022-12-05_01h38.56.817,vts_reward_expectancy_bt,2022.2.4,Win32,60.11421701,Chrome,1500,1000,,,,,0,504,,,,,,,,,,,,,,,,,F,146,circle,1,0,,,,,,,,,,,,,,,,switch,number,numSwt,j,1.817300001,noRew,,,,,,0,24,0,24,0,1,,,,,,,,,,,,,,,,,
297070,2022-12-05_01h38.56.817,vts_reward_expectancy_bt,2022.2.4,Win32,60.11421701,Chrome,1500,1000,,,,,0,504,,,,,,,,,,,,,,,,,H,132,triangle,1,0,,,,,,,,,,,,,,,,repeat,number,numRpt,j,2.267,noRew,,,,,,0,25,0,25,0,1,,,,,,,,,,,,,,,,,
297070,2022-12-05_01h38.56.817,vts_reward_expectancy_bt,2022.2.4,Win32,60.11421701,Chrome,1500,1000,,,,,0,504,,,,,,,,,,,,,,,,,Y,167,triangle,1,0,,,,,,,,,,,,,,,,switch,letter,lettSwt,f,1.3179,noRew,,,,,,0,26,0,26,0,1,,,,,,,,,,,,,,,,,
297070,2022-12-05_01h38.56.817,vts_reward_expectancy_bt,2022.2.4,Win32,60.11421701,Chrome,1500,1000,,,,,0,504,,,,,,,,,,,,,,,,,S,181,star,1,0,,,,,,,,,,,,,,,,switch,number,numSwt,k,1.439799999,noRew,,,,,,0,27,0,27,0,1,,,,,,,,,,,,,,,,,
297070,2022-12-05_01h38.56.817,vts_reward_expectancy_bt,2022.2.4,Win32,60.11421701,Chrome,1500,1000,,,,,0,504,,,,,,,,,,,,,,,,,W,181,star,1,0,,,,,,,,,,,,,,,,repeat,number,numRpt,k,1.1845,noRew,,,,,,0,28,0,28,0,1,,,,,,,,,,,,,,,,,
297070,2022-12-05_01h38.56.817,vts_reward_expectancy_bt,2022.2.4,Win32,60.11421701,Chrome,1500,1000,,,,,0,504,,,,,,,,,,,,,,,,,B,174,triangle,1,0,,,,,,,,,,,,,,,,switch,letter,lettSwt,d,0.833900002,noRew,,,,,,0,29,0,29,0,1,,,,,,,,,,,,,,,,,
297070,2022-12-05_01h38.56.817,vts_reward_expectancy_bt,2022.2.4,Win32,60.11421701,Chrome,1500,1000,,,,,0,504,,,,,,,,,,,,,,,,,F,125,triangle,1,0,,,,,,,,,,,,,,,,switch,number,numSwt,j,2.732799999,noRew,,,,,,0,30,0,30,0,1,,,,,,,,,,,,,,,,,
297070,2022-12-05_01h38.56.817,vts_reward_expectancy_bt,2022.2.4,Win32,60.11421701,Chrome,1500,1000,,,,,0,504,,,,,,,,,,,,,,,,,D,167,star,1,0,,,,,,,,,,,,,,,,switch,letter,lettSwt,d,1.499299999,noRew,,,,,,0,31,0,31,0,1,,,,,,,,,,,,,,,,,
297070,2022-12-05_01h38.56.817,vts_reward_expectancy_bt,2022.2.4,Win32,60.11421701,Chrome,1500,1000,,,,,0,504,,,,,,,,,,,,,,,,,Y,160,hexagon,1,0,,,,,,,,,,,,,,,,switch,number,numSwt,k,0.750200001,noRew,,,,,,0,32,0,32,0,1,,,,,,,,,,,,,,,,,
297070,2022-12-05_01h38.56.817,vts_reward_expectancy_bt,2022.2.4,Win32,60.11421701,Chrome,1500,1000,,,,,0,504,,,,,,,,,,,,,,,,,W,146,star,1,0,,,,,,,,,,,,,,,,repeat,number,numRpt,j,2.350299999,noRew,,,,,,0,33,0,33,0,1,,,,,,,,,,,,,,,,,
297070,2022-12-05_01h38.56.817,vts_reward_expectancy_bt,2022.2.4,Win32,60.11421701,Chrome,1500,1000,,,,,0,504,,,,,,,,,,,,,,,,,H,174,triangle,1,0,,,,,,,,,,,,,,,,switch,letter,lettSwt,d,1.149700001,noRew,,,,,,0,34,0,34,0,1,,,,,,,,,,,,,,,,,
297070,2022-12-05_01h38.56.817,vts_reward_expectancy_bt,2022.2.4,Win32,60.11421701,Chrome,1500,1000,,,,,0,504,,,,,,,,,,,,,,,,,S,139,circle,1,0,,,,,,,,,,,,,,,,switch,number,numSwt,j,1.501,noRew,,,,,,0,35,0,35,0,1,,,,,,,,,,,,,,,,,
297070,2022-12-05_01h38.56.817,vts_reward_expectancy_bt,2022.2.4,Win32,60.11421701,Chrome,1500,1000,,,,,0,504,,,,,,,,,,,,,,,,,D,139,star,1,0,,,,,,,,,,,,,,,,repeat,number,numRpt,j,0.756400002,noRew,,,,,,0,36,0,36,0,1,,,,,,,,,,,,,,,,,
297070,2022-12-05_01h38.56.817,vts_reward_expectancy_bt,2022.2.4,Win32,60.11421701,Chrome,1500,1000,,,,,0,504,,,,,,,,,,,,,,,,,U,146,triangle,1,0,,,,,,,,,,,,,,,,switch,letter,lettSwt,f,1.501,noRew,,,,,,0,37,0,37,0,1,,,,,,,,,,,,,,,,,
297070,2022-12-05_01h38.56.817,vts_reward_expectancy_bt,2022.2.4,Win32,60.11421701,Chrome,1500,1000,,,,,0,504,,,,,,,,,,,,,,,,,Y,132,star,1,0,,,,,,,,,,,,,,,,switch,number,numSwt,j,1.366700001,noRew,,,,,,0,38,0,38,0,1,,,,,,,,,,,,,,,,,
297070,2022-12-05_01h38.56.817,vts_reward_expectancy_bt,2022.2.4,Win32,60.11421701,Chrome,1500,1000,,,,,0,504,,,,,,,,,,,,,,,,,S,174,circle,-1,0,,,,,,,,,,,,,,,,switch,no_choice,NA,,,noRew,,,,,,0,39,0,39,0,1,,,,,,,,,,,,,,,,,
297070,2022-12-05_01h38.56.817,vts_reward_expectancy_bt,2022.2.4,Win32,60.11421701,Chrome,1500,1000,,,,,0,504,,,,,,,,,,,,,,,,,B,174,triangle,1,0,,,,,,,,,,,,,,,,switch,number,numSwt,k,1.1689,noRew,,,,,,0,40,0,40,0,1,,,,,,,,,,,,,,,,,
297070,2022-12-05_01h38.56.817,vts_reward_expectancy_bt,2022.2.4,Win32,60.11421701,Chrome,1500,1000,,,,,0,504,,,,,,,,,,,,,,,,,W,139,hexagon,1,0,,,,,,,,,,,,,,,,switch,letter,lettSwt,f,1.655800001,noRew,,,,,,0,41,0,41,0,1,,,,,,,,,,,,,,,,,
297070,2022-12-05_01h38.56.817,vts_reward_expectancy_bt,2022.2.4,Win32,60.11421701,Chrome,1500,1000,,,,,0,504,,,,,,,,,,,,,,,,,S,132,star,1,0,,,,,,,,,,,,,,,,repeat,letter,lettRpt,f,1.297199999,noRew,,,,,,0,42,0,42,0,1,,,,,,,,,,,,,,,,,
297070,2022-12-05_01h38.56.817,vts_reward_expectancy_bt,2022.2.4,Win32,60.11421701,Chrome,1500,1000,,,,,0,504,,,,,,,,,,,,,,,,,F,125,hexagon,1,0,,,,,,,,,,,,,,,,switch,number,numSwt,j,1.5224,noRew,,,,,,0,43,0,43,0,1,,,,,,,,,,,,,,,,,
297070,2022-12-05_01h38.56.817,vts_reward_expectancy_bt,2022.2.4,Win32,60.11421701,Chrome,1500,1000,,,,,0,504,,,,,,,,,,,,,,,,,W,125,triangle,1,0,,,,,,,,,,,,,,,,switch,letter,lettSwt,f,1.129200001,noRew,,,,,,0,44,0,44,0,1,,,,,,,,,,,,,,,,,
297070,2022-12-05_01h38.56.817,vts_reward_expectancy_bt,2022.2.4,Win32,60.11421701,Chrome,1500,1000,,,,,0,504,,,,,,,,,,,,,,,,,U,181,star,1,0,,,,,,,,,,,,,,,,switch,number,numSwt,k,2.4404,noRew,,,,,,0,45,0,45,0,1,,,,,,,,,,,,,,,,,
297070,2022-12-05_01h38.56.817,vts_reward_expectancy_bt,2022.2.4,Win32,60.11421701,Chrome,1500,1000,,,,,0,504,,,,,,,,,,,,,,,,,B,146,triangle,1,0,,,,,,,,,,,,,,,,repeat,number,numRpt,j,1.7374,noRew,,,,,,0,46,0,46,0,1,,,,,,,,,,,,,,,,,
297070,2022-12-05_01h38.56.817,vts_reward_expectancy_bt,2022.2.4,Win32,60.11421701,Chrome,1500,1000,,,,,0,504,,,,,,,,,,,,,,,,,D,139,star,1,0,,,,,,,,,,,,,,,,switch,letter,lettSwt,d,0.9059,noRew,,,,,,0,47,0,47,0,1,,,,,,,,,,,,,,,,,
297070,2022-12-05_01h38.56.817,vts_reward_expectancy_bt,2022.2.4,Win32,60.11421701,Chrome,1500,1000,,,,,0,504,,,,,,,,,,,,,,,,,H,167,star,1,0,,,,,,,,,,,,,,,,repeat,letter,lettRpt,d,0.713199999,noRew,,,,,,0,48,0,48,0,1,,,,,,,,,,,,,,,,,
297070,2022-12-05_01h38.56.817,vts_reward_expectancy_bt,2022.2.4,Win32,60.11421701,Chrome,1500,1000,,,,,0,504,,,,,,,,,,,,,,,,,Y,139,triangle,1,0,,,,,,,,,,,,,,,,repeat,letter,lettRpt,f,0.8139,noRew,,,,,,0,49,0,49,0,1,,,,,,,,,,,,,,,,,
297070,2022-12-05_01h38.56.817,vts_reward_expectancy_bt,2022.2.4,Win32,60.11421701,Chrome,1500,1000,,,,,0,504,,,,,,,,,,,,,,,,,D,174,hexagon,1,0,,,,,,,,,,,,,,,,switch,number,numSwt,k,2.673,noRew,,,,,,0,50,0,50,0,1,,,,,,,,,,,,,,,,,
297070,2022-12-05_01h38.56.817,vts_reward_expectancy_bt,2022.2.4,Win32,60.11421701,Chrome,1500,1000,,,,,0,504,,,,,,,,,,,,,,,,,S,160,circle,1,0,,,,,,,,,,,,,,,,repeat,number,numRpt,k,1.367799999,noRew,,,,,,0,51,0,51,0,1,,,,,,,,,,,,,,,,,
297070,2022-12-05_01h38.56.817,vts_reward_expectancy_bt,2022.2.4,Win32,60.11421701,Chrome,1500,1000,,,,,0,504,,,,,,,,,,,,,,,,,W,146,hexagon,1,0,,,,,,,,,,,,,,,,repeat,number,numRpt,j,1.067299999,noRew,,,,,,0,52,0,52,0,1,,,,,,,,,,,,,,,,,
297070,2022-12-05_01h38.56.817,vts_reward_expectancy_bt,2022.2.4,Win32,60.11421701,Chrome,1500,1000,,,,,0,504,,,,,,,,,,,,,,,,,U,167,triangle,1,0,,,,,,,,,,,,,,,,switch,letter,lettSwt,f,1.087,noRew,,,,,,0,53,0,53,0,1,,,,,,,,,,,,,,,,,
297070,2022-12-05_01h38.56.817,vts_reward_expectancy_bt,2022.2.4,Win32,60.11421701,Chrome,1500,1000,,,,,0,504,,,,,,,,,,,,,,,,,B,174,star,1,0,,,,,,,,,,,,,,,,repeat,letter,lettRpt,d,0.679299999,noRew,,,,,,0,54,0,54,0,1,,,,,,,,,,,,,,,,,
297070,2022-12-05_01h38.56.817,vts_reward_expectancy_bt,2022.2.4,Win32,60.11421701,Chrome,1500,1000,,,,,0,504,,,,,,,,,,,,,,,,,F,125,triangle,1,0,,,,,,,,,,,,,,,,switch,number,numSwt,j,1.512699999,noRew,,,,,,0,55,0,55,0,1,,,,,,,,,,,,,,,,,
297070,2022-12-05_01h38.56.817,vts_reward_expectancy_bt,2022.2.4,Win32,60.11421701,Chrome,1500,1000,,,,,0,504,,,,,,,,,,,,,,,,,Y,181,circle,1,0,,,,,,,,,,,,,,,,switch,letter,lettSwt,f,1.279400002,noRew,,,,,,0,56,0,56,0,1,,,,,,,,,,,,,,,,,
297070,2022-12-05_01h38.56.817,vts_reward_expectancy_bt,2022.2.4,Win32,60.11421701,Chrome,1500,1000,,,,,0,504,,,,,,,,,,,,,,,,,D,132,star,1,0,,,,,,,,,,,,,,,,switch,number,numSwt,j,1.0965,noRew,,,,,,0,57,0,57,0,1,,,,,,,,,,,,,,,,,
297070,2022-12-05_01h38.56.817,vts_reward_expectancy_bt,2022.2.4,Win32,60.11421701,Chrome,1500,1000,,,,,0,504,,,,,,,,,,,,,,,,,S,160,circle,1,0,,,,,,,,,,,,,,,,switch,letter,lettSwt,f,2.601299999,noRew,,,,,,0,58,0,58,0,1,,,,,,,,,,,,,,,,,
297070,2022-12-05_01h38.56.817,vts_reward_expectancy_bt,2022.2.4,Win32,60.11421701,Chrome,1500,1000,,,,,0,504,,,,,,,,,,,,,,,,,W,146,hexagon,0,0,,,,,,,,,,,,,,,,switch,number,NA,k,1.8229,noRew,,,,,,0,59,0,59,0,1,,,,,,,,,,,,,,,,,
297070,2022-12-05_01h38.56.817,vts_reward_expectancy_bt,2022.2.4,Win32,60.11421701,Chrome,1500,1000,,,,,0,504,,,,,,,,,,,,,,,,,U,160,circle,1,1,,,,,,,,,,,,,,,,repeat,number,numRpt,k,2.3175,noRew,,,,,,0,60,0,60,0,1,,,,,,,,,,,,,,,,,
297070,2022-12-05_01h38.56.817,vts_reward_expectancy_bt,2022.2.4,Win32,60.11421701,Chrome,1500,1000,,,,,0,504,,,,,,,,,,,,,,,,,F,174,star,1,0,,,,,,,,,,,,,,,,switch,letter,lettSwt,d,1.015799999,noRew,,,,,,0,61,0,61,0,1,,,,,,,,,,,,,,,,,
297070,2022-12-05_01h38.56.817,vts_reward_expectancy_bt,2022.2.4,Win32,60.11421701,Chrome,1500,1000,,,,,0,504,,,,,,,,,,,,,,,,,S,139,hexagon,1,0,,,,,,,,,,,,,,,,repeat,letter,lettRpt,f,1.1504,noRew,,,,,,0,62,0,62,0,1,,,,,,,,,,,,,,,,,
297070,2022-12-05_01h38.56.817,vts_reward_expectancy_bt,2022.2.4,Win32,60.11421701,Chrome,1500,1000,,,,,0,504,,,,,,,,,,,,,,,,,W,146,circle,-1,0,,,,,,,,,,,,,,,,switch,no_choice,NA,,,noRew,,,,,,0,63,0,63,0,1,,,,,,,,,,,,,,,,,
297070,2022-12-05_01h38.56.817,vts_reward_expectancy_bt,2022.2.4,Win32,60.11421701,Chrome,1500,1000,,,,,,,,,,,,,,,,,,,,,,,,,,,,,,,,,,,,,,,,,,,,,,,,,,,,,,,,,,,,,,,,,,,,,,,,,,,,
297070,2022-12-05_01h38.56.817,vts_reward_expectancy_bt,2022.2.4,Win32,60.11421701,Chrome,1500,1000,,,,,1,505,,,,,,,,,,,,,,,,,Y,160,hexagon,1,0,,,,,,,,,,,,,,,,switch,letter,lettSwt,f,0.817700001,Lo,,,,,,0,,,,,,space,6.9015,low,0,0,0,0,1,,,,,,,,,
297070,2022-12-05_01h38.56.817,vts_reward_expectancy_bt,2022.2.4,Win32,60.11421701,Chrome,1500,1000,,,,,0,505,,,,,,,,,,,,,,,,,S,146,triangle,1,0,,,,,,,,,,,,,,,,repeat,letter,lettRpt,f,1.964700001,Hi,,,,,,0,,,,,,,,low,1,0,1,0,1,,,,,,,,,
297070,2022-12-05_01h38.56.817,vts_reward_expectancy_bt,2022.2.4,Win32,60.11421701,Chrome,1500,1000,,,,,10,515,,,,,,,,,,,,,,,,,F,125,circle,1,0,,,,,,,,,,,,,,,,repeat,letter,lettRpt,d,1.187200001,Lo,,,,,,0,,,,,,,,low,2,0,2,0,1,,,,,,,,,
297070,2022-12-05_01h38.56.817,vts_reward_expectancy_bt,2022.2.4,Win32,60.11421701,Chrome,1500,1000,,,,,1,516,,,,,,,,,,,,,,,,,D,167,star,1,0,,,,,,,,,,,,,,,,repeat,letter,lettRpt,d,0.988800001,Hi,,,,,,0,,,,,,,,low,3,0,3,0,1,,,,,,,,,
297070,2022-12-05_01h38.56.817,vts_reward_expectancy_bt,2022.2.4,Win32,60.11421701,Chrome,1500,1000,,,,,10,526,,,,,,,,,,,,,,,,,H,139,hexagon,1,0,,,,,,,,,,,,,,,,switch,number,numSwt,j,1.2171,Lo,,,,,,0,,,,,,,,low,4,0,4,0,1,,,,,,,,,
297070,2022-12-05_01h38.56.817,vts_reward_expectancy_bt,2022.2.4,Win32,60.11421701,Chrome,1500,1000,,,,,0,526,,,,,,,,,,,,,,,,,U,174,triangle,1,0,,,,,,,,,,,,,,,,repeat,number,numRpt,k,1.733299999,Hi,,,,,,0,,,,,,,,low,5,0,5,0,1,,,,,,,,,
297070,2022-12-05_01h38.56.817,vts_reward_expectancy_bt,2022.2.4,Win32,60.11421701,Chrome,1500,1000,,,,,1,527,,,,,,,,,,,,,,,,,B,132,circle,1,0,,,,,,,,,,,,,,,,repeat,number,numRpt,j,0.6994,Lo,,,,,,0,,,,,,,,low,6,0,6,0,1,,,,,,,,,
297070,2022-12-05_01h38.56.817,vts_reward_expectancy_bt,2022.2.4,Win32,60.11421701,Chrome,1500,1000,,,,,10,537,,,,,,,,,,,,,,,,,W,181,star,1,0,,,,,,,,,,,,,,,,switch,letter,lettSwt,f,0.634099998,Hi,,,,,,0,,,,,,,,low,7,0,7,0,1,,,,,,,,,
297070,2022-12-05_01h38.56.817,vts_reward_expectancy_bt,2022.2.4,Win32,60.11421701,Chrome,1500,1000,,,,,10,547,,,,,,,,,,,,,,,,,Y,160,triangle,1,0,,,,,,,,,,,,,,,,repeat,letter,lettRpt,f,0.7319,Hi,,,,,,0,,,,,,,,low,8,0,8,0,1,,,,,,,,,
297070,2022-12-05_01h38.56.817,vts_reward_expectancy_bt,2022.2.4,Win32,60.11421701,Chrome,1500,1000,,,,,1,548,,,,,,,,,,,,,,,,,S,146,hexagon,1,0,,,,,,,,,,,,,,,,repeat,letter,lettRpt,f,0.606800001,Lo,,,,,,0,,,,,,,,low,9,0,9,0,1,,,,,,,,,
297070,2022-12-05_01h38.56.817,vts_reward_expectancy_bt,2022.2.4,Win32,60.11421701,Chrome,1500,1000,,,,,10,558,,,,,,,,,,,,,,,,,F,125,star,1,0,,,,,,,,,,,,,,,,switch,number,numSwt,j,0.650299999,Hi,,,,,,0,,,,,,,,low,10,0,10,0,1,,,,,,,,,
297070,2022-12-05_01h38.56.817,vts_reward_expectancy_bt,2022.2.4,Win32,60.11421701,Chrome,1500,1000,,,,,1,559,,,,,,,,,,,,,,,,,D,167,circle,1,0,,,,,,,,,,,,,,,,repeat,number,numRpt,k,1.1165,Lo,,,,,,0,,,,,,,,low,11,0,11,0,1,,,,,,,,,
297070,2022-12-05_01h38.56.817,vts_reward_expectancy_bt,2022.2.4,Win32,60.11421701,Chrome,1500,1000,,,,,10,569,,,,,,,,,,,,,,,,,H,139,star,1,0,,,,,,,,,,,,,,,,repeat,number,numRpt,j,0.85,Hi,,,,,,0,,,,,,,,low,12,0,12,0,1,,,,,,,,,
297070,2022-12-05_01h38.56.817,vts_reward_expectancy_bt,2022.2.4,Win32,60.11421701,Chrome,1500,1000,,,,,10,579,,,,,,,,,,,,,,,,,U,174,hexagon,1,0,,,,,,,,,,,,,,,,switch,letter,lettSwt,f,0.5695,Lo,,,,,,0,,,,,,,,low,13,0,13,0,1,,,,,,,,,
297070,2022-12-05_01h38.56.817,vts_reward_expectancy_bt,2022.2.4,Win32,60.11421701,Chrome,1500,1000,,,,,1,580,,,,,,,,,,,,,,,,,B,132,circle,1,0,,,,,,,,,,,,,,,,repeat,letter,lettRpt,d,0.9846,Lo,,,,,,0,,,,,,,,low,14,0,14,0,1,,,,,,,,,
297070,2022-12-05_01h38.56.817,vts_reward_expectancy_bt,2022.2.4,Win32,60.11421701,Chrome,1500,1000,,,,,10,590,,,,,,,,,,,,,,,,,W,181,triangle,1,0,,,,,,,,,,,,,,,,repeat,letter,lettRpt,f,0.8001,Hi,,,,,,0,,,,,,,,low,15,0,15,0,1,,,,,,,,,
297070,2022-12-05_01h38.56.817,vts_reward_expectancy_bt,2022.2.4,Win32,60.11421701,Chrome,1500,1000,,,,,0,590,,,,,,,,,,,,,,,,,Y,160,triangle,1,0,,,,,,,,,,,,,,,,repeat,letter,lettRpt,f,1.683700001,Hi,,,,,,0,,,,,,,,low,16,0,16,0,1,,,,,,,,,
297070,2022-12-05_01h38.56.817,vts_reward_expectancy_bt,2022.2.4,Win32,60.11421701,Chrome,1500,1000,,,,,0,590,,,,,,,,,,,,,,,,,H,167,circle,0,0,,,,,,,,,,,,,,,,repeat,letter,NA,f,2.5356,Hi,,,,,,0,,,,,,,,low,17,0,17,0,1,,,,,,,,,
297070,2022-12-05_01h38.56.817,vts_reward_expectancy_bt,2022.2.4,Win32,60.11421701,Chrome,1500,1000,,,,,10,600,,,,,,,,,,,,,,,,,W,125,star,1,1,,,,,,,,,,,,,,,,repeat,letter,lettRpt,f,0.583200001,Hi,,,,,,0,,,,,,,,low,18,0,18,0,1,,,,,,,,,
297070,2022-12-05_01h38.56.817,vts_reward_expectancy_bt,2022.2.4,Win32,60.11421701,Chrome,1500,1000,,,,,10,610,,,,,,,,,,,,,,,,,S,132,hexagon,1,0,,,,,,,,,,,,,,,,switch,number,numSwt,j,1.3851,Lo,,,,,,0,,,,,,,,low,19,0,19,0,1,,,,,,,,,
297070,2022-12-05_01h38.56.817,vts_reward_expectancy_bt,2022.2.4,Win32,60.11421701,Chrome,1500,1000,,,,,1,611,,,,,,,,,,,,,,,,,F,139,circle,1,0,,,,,,,,,,,,,,,,repeat,number,numRpt,j,0.8675,Lo,,,,,,0,,,,,,,,low,20,0,20,0,1,,,,,,,,,
297070,2022-12-05_01h38.56.817,vts_reward_expectancy_bt,2022.2.4,Win32,60.11421701,Chrome,1500,1000,,,,,1,612,,,,,,,,,,,,,,,,,B,146,star,1,0,,,,,,,,,,,,,,,,switch,letter,lettSwt,d,0.699800001,Hi,,,,,,0,,,,,,,,low,21,0,21,0,1,,,,,,,,,
297070,2022-12-05_01h38.56.817,vts_reward_expectancy_bt,2022.2.4,Win32,60.11421701,Chrome,1500,1000,,,,,10,622,,,,,,,,,,,,,,,,,U,181,triangle,1,0,,,,,,,,,,,,,,,,switch,number,numSwt,k,0.672,Hi,,,,,,0,,,,,,,,low,22,0,22,0,1,,,,,,,,,
297070,2022-12-05_01h38.56.817,vts_reward_expectancy_bt,2022.2.4,Win32,60.11421701,Chrome,1500,1000,,,,,10,632,,,,,,,,,,,,,,,,,D,174,hexagon,1,0,,,,,,,,,,,,,,,,repeat,number,numRpt,k,0.9834,Lo,,,,,,0,,,,,,,,low,23,0,23,0,1,,,,,,,,,
297070,2022-12-05_01h38.56.817,vts_reward_expectancy_bt,2022.2.4,Win32,60.11421701,Chrome,1500,1000,,,,,10,642,,,,,,,,,,,,,,,,,U,174,star,1,0,,,,,,,,,,,,,,,,switch,letter,lettSwt,f,0.516900002,Hi,,,,,,0,,,,,,,,low,24,0,24,0,1,,,,,,,,,
297070,2022-12-05_01h38.56.817,vts_reward_expectancy_bt,2022.2.4,Win32,60.11421701,Chrome,1500,1000,,,,,1,643,,,,,,,,,,,,,,,,,Y,125,hexagon,1,0,,,,,,,,,,,,,,,,repeat,letter,lettRpt,f,0.6296,Lo,,,,,,0,,,,,,,,low,25,0,25,0,1,,,,,,,,,
297070,2022-12-05_01h38.56.817,vts_reward_expectancy_bt,2022.2.4,Win32,60.11421701,Chrome,1500,1000,,,,,0,643,,,,,,,,,,,,,,,,,F,160,triangle,1,0,,,,,,,,,,,,,,,,switch,number,numSwt,k,1.483700001,Hi,,,,,,0,,,,,,,,low,26,0,26,0,1,,,,,,,,,
297070,2022-12-05_01h38.56.817,vts_reward_expectancy_bt,2022.2.4,Win32,60.11421701,Chrome,1500,1000,,,,,1,644,,,,,,,,,,,,,,,,,D,167,circle,1,0,,,,,,,,,,,,,,,,repeat,number,numRpt,k,0.697099998,Lo,,,,,,0,,,,,,,,low,27,0,27,0,1,,,,,,,,,
297070,2022-12-05_01h38.56.817,vts_reward_expectancy_bt,2022.2.4,Win32,60.11421701,Chrome,1500,1000,,,,,1,645,,,,,,,,,,,,,,,,,W,146,circle,1,0,,,,,,,,,,,,,,,,switch,letter,lettSwt,f,0.521200001,Lo,,,,,,0,,,,,,,,low,28,0,28,0,1,,,,,,,,,
297070,2022-12-05_01h38.56.817,vts_reward_expectancy_bt,2022.2.4,Win32,60.11421701,Chrome,1500,1000,,,,,10,655,,,,,,,,,,,,,,,,,H,132,hexagon,1,0,,,,,,,,,,,,,,,,repeat,letter,lettRpt,d,0.7985,Lo,,,,,,0,,,,,,,,low,29,0,29,0,1,,,,,,,,,
297070,2022-12-05_01h38.56.817,vts_reward_expectancy_bt,2022.2.4,Win32,60.11421701,Chrome,1500,1000,,,,,1,656,,,,,,,,,,,,,,,,,B,181,star,1,0,,,,,,,,,,,,,,,,repeat,letter,lettRpt,d,0.5211,Hi,,,,,,0,,,,,,,,low,30,0,30,0,1,,,,,,,,,
297070,2022-12-05_01h38.56.817,vts_reward_expectancy_bt,2022.2.4,Win32,60.11421701,Chrome,1500,1000,,,,,10,666,,,,,,,,,,,,,,,,,S,139,triangle,1,0,,,,,,,,,,,,,,,,switch,number,numSwt,j,0.712199999,Hi,,,,,,0,,,,,,,,low,31,0,31,0,1,,,,,,,,,
297070,2022-12-05_01h38.56.817,vts_reward_expectancy_bt,2022.2.4,Win32,60.11421701,Chrome,1500,1000,,,,,1,667,,,,,,,,,,,,,,,,,Y,132,circle,1,0,,,,,,,,,,,,,,,,switch,letter,lettSwt,f,0.837,Lo,,,,,,1,,,,,,space,3.1465,low,0,0,0,0,1,,,,,,,,,
297070,2022-12-05_01h38.56.817,vts_reward_expectancy_bt,2022.2.4,Win32,60.11421701,Chrome,1500,1000,,,,,1,668,,,,,,,,,,,,,,,,,U,167,triangle,1,0,,,,,,,,,,,,,,,,repeat,letter,lettRpt,f,0.546,Hi,,,,,,1,,,,,,,,low,1,0,1,0,1,,,,,,,,,
297070,2022-12-05_01h38.56.817,vts_reward_expectancy_bt,2022.2.4,Win32,60.11421701,Chrome,1500,1000,,,,,1,669,,,,,,,,,,,,,,,,,W,125,hexagon,1,0,,,,,,,,,,,,,,,,repeat,letter,lettRpt,f,0.6891,Lo,,,,,,1,,,,,,,,low,2,0,2,0,1,,,,,,,,,
297070,2022-12-05_01h38.56.817,vts_reward_expectancy_bt,2022.2.4,Win32,60.11421701,Chrome,1500,1000,,,,,0,669,,,,,,,,,,,,,,,,,B,160,star,1,0,,,,,,,,,,,,,,,,repeat,letter,lettRpt,d,0.9506,Hi,,,,,,1,,,,,,,,low,3,0,3,0,1,,,,,,,,,
297070,2022-12-05_01h38.56.817,vts_reward_expectancy_bt,2022.2.4,Win32,60.11421701,Chrome,1500,1000,,,,,1,670,,,,,,,,,,,,,,,,,D,174,circle,1,0,,,,,,,,,,,,,,,,switch,number,numSwt,k,0.5335,Lo,,,,,,1,,,,,,,,low,4,0,4,0,1,,,,,,,,,
297070,2022-12-05_01h38.56.817,vts_reward_expectancy_bt,2022.2.4,Win32,60.11421701,Chrome,1500,1000,,,,,10,680,,,,,,,,,,,,,,,,,F,146,triangle,1,0,,,,,,,,,,,,,,,,repeat,number,numRpt,j,0.755199999,Hi,,,,,,1,,,,,,,,low,5,0,5,0,1,,,,,,,,,
297070,2022-12-05_01h38.56.817,vts_reward_expectancy_bt,2022.2.4,Win32,60.11421701,Chrome,1500,1000,,,,,1,681,,,,,,,,,,,,,,,,,H,139,hexagon,1,0,,,,,,,,,,,,,,,,repeat,number,numRpt,j,0.6845,Lo,,,,,,1,,,,,,,,low,6,0,6,0,1,,,,,,,,,
297070,2022-12-05_01h38.56.817,vts_reward_expectancy_bt,2022.2.4,Win32,60.11421701,Chrome,1500,1000,,,,,0,681,,,,,,,,,,,,,,,,,S,181,star,1,0,,,,,,,,,,,,,,,,repeat,number,numRpt,k,0.9011,Hi,,,,,,1,,,,,,,,low,7,0,7,0,1,,,,,,,,,
297070,2022-12-05_01h38.56.817,vts_reward_expectancy_bt,2022.2.4,Win32,60.11421701,Chrome,1500,1000,,,,,1,682,,,,,,,,,,,,,,,,,Y,132,hexagon,1,0,,,,,,,,,,,,,,,,switch,letter,lettSwt,f,0.933599998,Lo,,,,,,1,,,,,,,,low,8,0,8,0,1,,,,,,,,,
297070,2022-12-05_01h38.56.817,vts_reward_expectancy_bt,2022.2.4,Win32,60.11421701,Chrome,1500,1000,,,,,1,683,,,,,,,,,,,,,,,,,U,167,circle,1,0,,,,,,,,,,,,,,,,repeat,letter,lettRpt,f,0.6801,Lo,,,,,,1,,,,,,,,low,9,0,9,0,1,,,,,,,,,
297070,2022-12-05_01h38.56.817,vts_reward_expectancy_bt,2022.2.4,Win32,60.11421701,Chrome,1500,1000,,,,,0,683,,,,,,,,,,,,,,,,,W,125,star,1,0,,,,,,,,,,,,,,,,switch,number,numSwt,j,0.9511,Hi,,,,,,1,,,,,,,,low,10,0,10,0,1,,,,,,,,,
297070,2022-12-05_01h38.56.817,vts_reward_expectancy_bt,2022.2.4,Win32,60.11421701,Chrome,1500,1000,,,,,0,683,,,,,,,,,,,,,,,,,B,160,triangle,1,0,,,,,,,,,,,,,,,,switch,letter,lettSwt,d,0.5666,Hi,,,,,,1,,,,,,,,low,11,0,11,0,1,,,,,,,,,
297070,2022-12-05_01h38.56.817,vts_reward_expectancy_bt,2022.2.4,Win32,60.11421701,Chrome,1500,1000,,,,,10,693,,,,,,,,,,,,,,,,,D,174,triangle,1,0,,,,,,,,,,,,,,,,repeat,letter,lettRpt,d,0.6315,Hi,,,,,,1,,,,,,,,low,12,0,12,0,1,,,,,,,,,
297070,2022-12-05_01h38.56.817,vts_reward_expectancy_bt,2022.2.4,Win32,60.11421701,Chrome,1500,1000,,,,,10,703,,,,,,,,,,,,,,,,,F,146,circle,1,0,,,,,,,,,,,,,,,,repeat,letter,lettRpt,d,0.6625,Lo,,,,,,1,,,,,,,,low,13,0,13,0,1,,,,,,,,,
297070,2022-12-05_01h38.56.817,vts_reward_expectancy_bt,2022.2.4,Win32,60.11421701,Chrome,1500,1000,,,,,10,713,,,,,,,,,,,,,,,,,H,139,hexagon,1,0,,,,,,,,,,,,,,,,repeat,letter,lettRpt,d,0.621800001,Lo,,,,,,1,,,,,,,,low,14,0,14,0,1,,,,,,,,,
297070,2022-12-05_01h38.56.817,vts_reward_expectancy_bt,2022.2.4,Win32,60.11421701,Chrome,1500,1000,,,,,0,713,,,,,,,,,,,,,,,,,S,181,star,1,0,,,,,,,,,,,,,,,,switch,number,numSwt,k,0.934,Hi,,,,,,1,,,,,,,,low,15,0,15,0,1,,,,,,,,,
297070,2022-12-05_01h38.56.817,vts_reward_expectancy_bt,2022.2.4,Win32,60.11421701,Chrome,1500,1000,,,,,1,714,,,,,,,,,,,,,,,,,H,125,hexagon,1,0,,,,,,,,,,,,,,,,switch,letter,lettSwt,d,0.6865,Lo,,,,,,1,,,,,,,,low,16,0,16,0,1,,,,,,,,,
297070,2022-12-05_01h38.56.817,vts_reward_expectancy_bt,2022.2.4,Win32,60.11421701,Chrome,1500,1000,,,,,10,724,,,,,,,,,,,,,,,,,B,167,triangle,1,0,,,,,,,,,,,,,,,,repeat,letter,lettRpt,d,0.6495,Hi,,,,,,1,,,,,,,,low,17,0,17,0,1,,,,,,,,,
297070,2022-12-05_01h38.56.817,vts_reward_expectancy_bt,2022.2.4,Win32,60.11421701,Chrome,1500,1000,,,,,1,725,,,,,,,,,,,,,,,,,S,132,star,1,0,,,,,,,,,,,,,,,,repeat,letter,lettRpt,f,0.566,Hi,,,,,,1,,,,,,,,low,18,0,18,0,1,,,,,,,,,
297070,2022-12-05_01h38.56.817,vts_reward_expectancy_bt,2022.2.4,Win32,60.11421701,Chrome,1500,1000,,,,,10,735,,,,,,,,,,,,,,,,,Y,160,circle,1,0,,,,,,,,,,,,,,,,repeat,letter,lettRpt,f,0.535,Lo,,,,,,1,,,,,,,,low,19,0,19,0,1,,,,,,,,,
297070,2022-12-05_01h38.56.817,vts_reward_expectancy_bt,2022.2.4,Win32,60.11421701,Chrome,1500,1000,,,,,10,745,,,,,,,,,,,,,,,,,D,139,circle,1,0,,,,,,,,,,,,,,,,repeat,letter,lettRpt,d,0.629199999,Lo,,,,,,1,,,,,,,,low,20,0,20,0,1,,,,,,,,,
297070,2022-12-05_01h38.56.817,vts_reward_expectancy_bt,2022.2.4,Win32,60.11421701,Chrome,1500,1000,,,,,0,745,,,,,,,,,,,,,,,,,W,146,star,1,0,,,,,,,,,,,,,,,,repeat,letter,lettRpt,f,0.718,Hi,,,,,,1,,,,,,,,low,21,0,21,0,1,,,,,,,,,
297070,2022-12-05_01h38.56.817,vts_reward_expectancy_bt,2022.2.4,Win32,60.11421701,Chrome,1500,1000,,,,,10,755,,,,,,,,,,,,,,,,,U,181,triangle,1,0,,,,,,,,,,,,,,,,repeat,letter,lettRpt,f,0.5835,Hi,,,,,,1,,,,,,,,low,22,0,22,0,1,,,,,,,,,
297070,2022-12-05_01h38.56.817,vts_reward_expectancy_bt,2022.2.4,Win32,60.11421701,Chrome,1500,1000,,,,,1,756,,,,,,,,,,,,,,,,,F,174,hexagon,1,0,,,,,,,,,,,,,,,,repeat,letter,lettRpt,d,0.6335,Lo,,,,,,1,,,,,,,,low,23,0,23,0,1,,,,,,,,,
297070,2022-12-05_01h38.56.817,vts_reward_expectancy_bt,2022.2.4,Win32,60.11421701,Chrome,1500,1000,,,,,10,766,,,,,,,,,,,,,,,,,F,125,triangle,1,0,,,,,,,,,,,,,,,,repeat,letter,lettRpt,d,0.484,Hi,,,,,,1,,,,,,,,low,24,0,24,0,1,,,,,,,,,
297070,2022-12-05_01h38.56.817,vts_reward_expectancy_bt,2022.2.4,Win32,60.11421701,Chrome,1500,1000,,,,,10,776,,,,,,,,,,,,,,,,,U,174,circle,1,0,,,,,,,,,,,,,,,,repeat,letter,lettRpt,f,0.5335,Lo,,,,,,1,,,,,,,,low,25,0,25,0,1,,,,,,,,,
297070,2022-12-05_01h38.56.817,vts_reward_expectancy_bt,2022.2.4,Win32,60.11421701,Chrome,1500,1000,,,,,10,786,,,,,,,,,,,,,,,,,D,139,hexagon,1,0,,,,,,,,,,,,,,,,repeat,letter,lettRpt,d,0.583699999,Lo,,,,,,1,,,,,,,,low,26,0,26,0,1,,,,,,,,,
297070,2022-12-05_01h38.56.817,vts_reward_expectancy_bt,2022.2.4,Win32,60.11421701,Chrome,1500,1000,,,,,10,796,,,,,,,,,,,,,,,,,W,132,star,1,0,,,,,,,,,,,,,,,,repeat,letter,lettRpt,f,0.5,Hi,,,,,,1,,,,,,,,low,27,0,27,0,1,,,,,,,,,
297070,2022-12-05_01h38.56.817,vts_reward_expectancy_bt,2022.2.4,Win32,60.11421701,Chrome,1500,1000,,,,,10,806,,,,,,,,,,,,,,,,,Y,167,circle,1,0,,,,,,,,,,,,,,,,repeat,letter,lettRpt,f,0.7339,Lo,,,,,,1,,,,,,,,low,28,0,28,0,1,,,,,,,,,
297070,2022-12-05_01h38.56.817,vts_reward_expectancy_bt,2022.2.4,Win32,60.11421701,Chrome,1500,1000,,,,,1,807,,,,,,,,,,,,,,,,,B,160,hexagon,1,0,,,,,,,,,,,,,,,,repeat,letter,lettRpt,d,0.500400002,Lo,,,,,,1,,,,,,,,low,29,0,29,0,1,,,,,,,,,
297070,2022-12-05_01h38.56.817,vts_reward_expectancy_bt,2022.2.4,Win32,60.11421701,Chrome,1500,1000,,,,,0,807,,,,,,,,,,,,,,,,,H,181,star,1,0,,,,,,,,,,,,,,,,repeat,letter,lettRpt,d,1.017,Hi,,,,,,1,,,,,,,,low,30,0,30,0,1,,,,,,,,,
297070,2022-12-05_01h38.56.817,vts_reward_expectancy_bt,2022.2.4,Win32,60.11421701,Chrome,1500,1000,,,,,1,808,,,,,,,,,,,,,,,,,S,146,triangle,1,0,,,,,,,,,,,,,,,,repeat,letter,lettRpt,f,0.6839,Hi,,,,,,1,,,,,,,,low,31,0,31,0,1,,,,,,,,,
297070,2022-12-05_01h38.56.817,vts_reward_expectancy_bt,2022.2.4,Win32,60.11421701,Chrome,1500,1000,,,,,1,809,,,,,,,,,,,,,,,,,W,125,triangle,1,0,,,,,,,,,,,,,,,,repeat,letter,lettRpt,f,0.483900002,Hi,,,,,,2,,,,,,space,3.012300001,low,0,0,0,0,1,,,,,,,,,
297070,2022-12-05_01h38.56.817,vts_reward_expectancy_bt,2022.2.4,Win32,60.11421701,Chrome,1500,1000,,,,,1,810,,,,,,,,,,,,,,,,,Y,167,hexagon,1,0,,,,,,,,,,,,,,,,repeat,letter,lettRpt,f,1.3996,Lo,,,,,,2,,,,,,,,low,1,0,1,0,1,,,,,,,,,
297070,2022-12-05_01h38.56.817,vts_reward_expectancy_bt,2022.2.4,Win32,60.11421701,Chrome,1500,1000,,,,,0,810,,,,,,,,,,,,,,,,,D,139,star,1,0,,,,,,,,,,,,,,,,repeat,letter,lettRpt,d,0.7666,Hi,,,,,,2,,,,,,,,low,2,0,2,0,1,,,,,,,,,
297070,2022-12-05_01h38.56.817,vts_reward_expectancy_bt,2022.2.4,Win32,60.11421701,Chrome,1500,1000,,,,,1,811,,,,,,,,,,,,,,,,,S,146,circle,1,0,,,,,,,,,,,,,,,,repeat,letter,lettRpt,f,0.4839,Lo,,,,,,2,,,,,,,,low,3,0,3,0,1,,,,,,,,,
297070,2022-12-05_01h38.56.817,vts_reward_expectancy_bt,2022.2.4,Win32,60.11421701,Chrome,1500,1000,,,,,0,811,,,,,,,,,,,,,,,,,B,132,triangle,0,0,,,,,,,,,,,,,,,,repeat,letter,NA,f,0.701,Lo,,,,,,2,,,,,,,,low,4,0,4,0,1,,,,,,,,,
297070,2022-12-05_01h38.56.817,vts_reward_expectancy_bt,2022.2.4,Win32,60.11421701,Chrome,1500,1000,,,,,1,812,,,,,,,,,,,,,,,,,U,174,hexagon,1,1,,,,,,,,,,,,,,,,repeat,letter,lettRpt,f,0.634799999,Lo,,,,,,2,,,,,,,,low,5,0,5,0,1,,,,,,,,,
297070,2022-12-05_01h38.56.817,vts_reward_expectancy_bt,2022.2.4,Win32,60.11421701,Chrome,1500,1000,,,,,0,812,,,,,,,,,,,,,,,,,H,160,star,1,0,,,,,,,,,,,,,,,,repeat,letter,lettRpt,d,0.966700001,Hi,,,,,,2,,,,,,,,low,6,0,6,0,1,,,,,,,,,
297070,2022-12-05_01h38.56.817,vts_reward_expectancy_bt,2022.2.4,Win32,60.11421701,Chrome,1500,1000,,,,,10,822,,,,,,,,,,,,,,,,,F,181,circle,1,0,,,,,,,,,,,,,,,,repeat,letter,lettRpt,d,0.6165,Lo,,,,,,2,,,,,,,,low,7,0,7,0,1,,,,,,,,,
297070,2022-12-05_01h38.56.817,vts_reward_expectancy_bt,2022.2.4,Win32,60.11421701,Chrome,1500,1000,,,,,1,823,,,,,,,,,,,,,,,,,W,125,hexagon,1,0,,,,,,,,,,,,,,,,repeat,letter,lettRpt,f,0.8495,Lo,,,,,,2,,,,,,,,low,8,0,8,0,1,,,,,,,,,
297070,2022-12-05_01h38.56.817,vts_reward_expectancy_bt,2022.2.4,Win32,60.11421701,Chrome,1500,1000,,,,,10,833,,,,,,,,,,,,,,,,,Y,167,triangle,1,0,,,,,,,,,,,,,,,,repeat,letter,lettRpt,f,0.5174,Hi,,,,,,2,,,,,,,,low,9,0,9,0,1,,,,,,,,,
297070,2022-12-05_01h38.56.817,vts_reward_expectancy_bt,2022.2.4,Win32,60.11421701,Chrome,1500,1000,,,,,0,833,,,,,,,,,,,,,,,,,D,139,star,1,0,,,,,,,,,,,,,,,,repeat,letter,lettRpt,d,0.616700001,Hi,,,,,,2,,,,,,,,low,10,0,10,0,1,,,,,,,,,
297070,2022-12-05_01h38.56.817,vts_reward_expectancy_bt,2022.2.4,Win32,60.11421701,Chrome,1500,1000,,,,,1,834,,,,,,,,,,,,,,,,,S,146,circle,1,0,,,,,,,,,,,,,,,,repeat,letter,lettRpt,f,0.500299999,Lo,,,,,,2,,,,,,,,low,11,0,11,0,1,,,,,,,,,
297070,2022-12-05_01h38.56.817,vts_reward_expectancy_bt,2022.2.4,Win32,60.11421701,Chrome,1500,1000,,,,,1,835,,,,,,,,,,,,,,,,,B,132,circle,1,0,,,,,,,,,,,,,,,,repeat,letter,lettRpt,d,0.533699999,Lo,,,,,,2,,,,,,,,low,12,0,12,0,1,,,,,,,,,
297070,2022-12-05_01h38.56.817,vts_reward_expectancy_bt,2022.2.4,Win32,60.11421701,Chrome,1500,1000,,,,,1,836,,,,,,,,,,,,,,,,,U,174,hexagon,1,0,,,,,,,,,,,,,,,,repeat,letter,lettRpt,f,0.5334,Lo,,,,,,2,,,,,,,,low,13,0,13,0,1,,,,,,,,,
297070,2022-12-05_01h38.56.817,vts_reward_expectancy_bt,2022.2.4,Win32,60.11421701,Chrome,1500,1000,,,,,1,837,,,,,,,,,,,,,,,,,H,160,triangle,1,0,,,,,,,,,,,,,,,,repeat,letter,lettRpt,d,0.5345,Hi,,,,,,2,,,,,,,,low,14,0,14,0,1,,,,,,,,,
297070,2022-12-05_01h38.56.817,vts_reward_expectancy_bt,2022.2.4,Win32,60.11421701,Chrome,1500,1000,,,,,0,837,,,,,,,,,,,,,,,,,F,181,star,1,0,,,,,,,,,,,,,,,,repeat,letter,lettRpt,d,0.734,Hi,,,,,,2,,,,,,,,low,15,0,15,0,1,,,,,,,,,
297070,2022-12-05_01h38.56.817,vts_reward_expectancy_bt,2022.2.4,Win32,60.11421701,Chrome,1500,1000,,,,,1,838,,,,,,,,,,,,,,,,,Y,174,circle,1,0,,,,,,,,,,,,,,,,repeat,letter,lettRpt,f,0.5335,Lo,,,,,,2,,,,,,,,low,16,0,16,0,1,,,,,,,,,
297070,2022-12-05_01h38.56.817,vts_reward_expectancy_bt,2022.2.4,Win32,60.11421701,Chrome,1500,1000,,,,,10,848,,,,,,,,,,,,,,,,,D,181,star,1,0,,,,,,,,,,,,,,,,repeat,letter,lettRpt,d,0.516800001,Hi,,,,,,2,,,,,,,,low,17,0,17,0,1,,,,,,,,,
297070,2022-12-05_01h38.56.817,vts_reward_expectancy_bt,2022.2.4,Win32,60.11421701,Chrome,1500,1000,,,,,1,849,,,,,,,,,,,,,,,,,U,160,hexagon,1,0,,,,,,,,,,,,,,,,repeat,letter,lettRpt,f,0.633799999,Lo,,,,,,2,,,,,,,,low,18,0,18,0,1,,,,,,,,,
297070,2022-12-05_01h38.56.817,vts_reward_expectancy_bt,2022.2.4,Win32,60.11421701,Chrome,1500,1000,,,,,0,849,,,,,,,,,,,,,,,,,H,132,triangle,1,0,,,,,,,,,,,,,,,,repeat,letter,lettRpt,d,0.6504,Hi,,,,,,2,,,,,,,,low,19,0,19,0,1,,,,,,,,,
297070,2022-12-05_01h38.56.817,vts_reward_expectancy_bt,2022.2.4,Win32,60.11421701,Chrome,1500,1000,,,,,10,859,,,,,,,,,,,,,,,,,B,125,circle,1,0,,,,,,,,,,,,,,,,repeat,letter,lettRpt,d,0.5,Lo,,,,,,2,,,,,,,,low,20,0,20,0,1,,,,,,,,,
297070,2022-12-05_01h38.56.817,vts_reward_expectancy_bt,2022.2.4,Win32,60.11421701,Chrome,1500,1000,,,,,1,860,,,,,,,,,,,,,,,,,F,146,hexagon,1,0,,,,,,,,,,,,,,,,repeat,letter,lettRpt,d,0.633199999,Lo,,,,,,2,,,,,,,,low,21,0,21,0,1,,,,,,,,,
297070,2022-12-05_01h38.56.817,vts_reward_expectancy_bt,2022.2.4,Win32,60.11421701,Chrome,1500,1000,,,,,0,860,,,,,,,,,,,,,,,,,S,167,star,1,0,,,,,,,,,,,,,,,,repeat,letter,lettRpt,f,0.583199999,Hi,,,,,,2,,,,,,,,low,22,0,22,0,1,,,,,,,,,
297070,2022-12-05_01h38.56.817,vts_reward_expectancy_bt,2022.2.4,Win32,60.11421701,Chrome,1500,1000,,,,,1,861,,,,,,,,,,,,,,,,,W,139,triangle,1,0,,,,,,,,,,,,,,,,repeat,letter,lettRpt,f,0.450300001,Hi,,,,,,2,,,,,,,,low,23,0,23,0,1,,,,,,,,,
297070,2022-12-05_01h38.56.817,vts_reward_expectancy_bt,2022.2.4,Win32,60.11421701,Chrome,1500,1000,,,,,10,871,,,,,,,,,,,,,,,,,U,167,star,1,0,,,,,,,,,,,,,,,,repeat,letter,lettRpt,f,0.399599998,Hi,,,,,,2,,,,,,,,low,24,0,24,0,1,,,,,,,,,
297070,2022-12-05_01h38.56.817,vts_reward_expectancy_bt,2022.2.4,Win32,60.11421701,Chrome,1500,1000,,,,,0,871,,,,,,,,,,,,,,,,,H,125,hexagon,0,0,,,,,,,,,,,,,,,,repeat,letter,NA,f,0.4335,Hi,,,,,,2,,,,,,,,low,25,0,25,0,1,,,,,,,,,
297070,2022-12-05_01h38.56.817,vts_reward_expectancy_bt,2022.2.4,Win32,60.11421701,Chrome,1500,1000,,,,,10,881,,,,,,,,,,,,,,,,,Y,139,triangle,1,1,,,,,,,,,,,,,,,,repeat,letter,lettRpt,f,0.483300001,Hi,,,,,,2,,,,,,,,low,26,0,26,0,1,,,,,,,,,
297070,2022-12-05_01h38.56.817,vts_reward_expectancy_bt,2022.2.4,Win32,60.11421701,Chrome,1500,1000,,,,,10,891,,,,,,,,,,,,,,,,,B,174,circle,1,0,,,,,,,,,,,,,,,,repeat,letter,lettRpt,d,0.5164,Lo,,,,,,2,,,,,,,,low,27,0,27,0,1,,,,,,,,,
297070,2022-12-05_01h38.56.817,vts_reward_expectancy_bt,2022.2.4,Win32,60.11421701,Chrome,1500,1000,,,,,10,901,,,,,,,,,,,,,,,,,W,132,hexagon,1,0,,,,,,,,,,,,,,,,repeat,letter,lettRpt,f,0.516700001,Lo,,,,,,2,,,,,,,,low,28,0,28,0,1,,,,,,,,,
297070,2022-12-05_01h38.56.817,vts_reward_expectancy_bt,2022.2.4,Win32,60.11421701,Chrome,1500,1000,,,,,10,911,,,,,,,,,,,,,,,,,F,160,circle,1,0,,,,,,,,,,,,,,,,repeat,letter,lettRpt,d,0.684199999,Lo,,,,,,2,,,,,,,,low,29,0,29,0,1,,,,,,,,,
297070,2022-12-05_01h38.56.817,vts_reward_expectancy_bt,2022.2.4,Win32,60.11421701,Chrome,1500,1000,,,,,0,911,,,,,,,,,,,,,,,,,D,146,triangle,1,0,,,,,,,,,,,,,,,,repeat,letter,lettRpt,d,0.6009,Hi,,,,,,2,,,,,,,,low,30,0,30,0,1,,,,,,,,,
297070,2022-12-05_01h38.56.817,vts_reward_expectancy_bt,2022.2.4,Win32,60.11421701,Chrome,1500,1000,,,,,0,911,,,,,,,,,,,,,,,,,S,181,star,1,0,,,,,,,,,,,,,,,,repeat,letter,lettRpt,f,1.265800001,Hi,,,,,,2,,,,,,,,low,31,0,31,0,1,,,,,,,,,
297070,2022-12-05_01h38.56.817,vts_reward_expectancy_bt,2022.2.4,Win32,60.11421701,Chrome,1500,1000,,,,,10,921,,,,,,,,,,,,,,,,,B,174,hexagon,1,0,,,,,,,,,,,,,,,,repeat,letter,lettRpt,d,0.812200001,Lo,,,,,,3,,,,,,space,1.1964,low,0,0,0,0,1,,,,,,,,,
297070,2022-12-05_01h38.56.817,vts_reward_expectancy_bt,2022.2.4,Win32,60.11421701,Chrome,1500,1000,,,,,1,922,,,,,,,,,,,,,,,,,S,181,circle,1,0,,,,,,,,,,,,,,,,repeat,letter,lettRpt,f,0.531,Lo,,,,,,3,,,,,,,,low,1,0,1,0,1,,,,,,,,,
297070,2022-12-05_01h38.56.817,vts_reward_expectancy_bt,2022.2.4,Win32,60.11421701,Chrome,1500,1000,,,,,10,932,,,,,,,,,,,,,,,,,F,125,star,1,0,,,,,,,,,,,,,,,,repeat,letter,lettRpt,d,0.4835,Hi,,,,,,3,,,,,,,,low,2,0,2,0,1,,,,,,,,,
297070,2022-12-05_01h38.56.817,vts_reward_expectancy_bt,2022.2.4,Win32,60.11421701,Chrome,1500,1000,,,,,0,932,,,,,,,,,,,,,,,,,U,146,triangle,1,0,,,,,,,,,,,,,,,,repeat,letter,lettRpt,f,0.633200001,Hi,,,,,,3,,,,,,,,low,3,0,3,0,1,,,,,,,,,
297070,2022-12-05_01h38.56.817,vts_reward_expectancy_bt,2022.2.4,Win32,60.11421701,Chrome,1500,1000,,,,,1,933,,,,,,,,,,,,,,,,,W,132,hexagon,1,0,,,,,,,,,,,,,,,,repeat,letter,lettRpt,f,0.534199999,Lo,,,,,,3,,,,,,,,low,4,0,4,0,1,,,,,,,,,
297070,2022-12-05_01h38.56.817,vts_reward_expectancy_bt,2022.2.4,Win32,60.11421701,Chrome,1500,1000,,,,,1,934,,,,,,,,,,,,,,,,,D,167,circle,1,0,,,,,,,,,,,,,,,,repeat,letter,lettRpt,d,0.4835,Lo,,,,,,3,,,,,,,,low,5,0,5,0,1,,,,,,,,,
297070,2022-12-05_01h38.56.817,vts_reward_expectancy_bt,2022.2.4,Win32,60.11421701,Chrome,1500,1000,,,,,1,935,,,,,,,,,,,,,,,,,Y,139,star,1,0,,,,,,,,,,,,,,,,repeat,letter,lettRpt,f,0.469,Hi,,,,,,3,,,,,,,,low,6,0,6,0,1,,,,,,,,,
297070,2022-12-05_01h38.56.817,vts_reward_expectancy_bt,2022.2.4,Win32,60.11421701,Chrome,1500,1000,,,,,0,935,,,,,,,,,,,,,,,,,H,160,triangle,1,0,,,,,,,,,,,,,,,,repeat,letter,lettRpt,d,0.566800001,Hi,,,,,,3,,,,,,,,low,7,0,7,0,1,,,,,,,,,
297070,2022-12-05_01h38.56.817,vts_reward_expectancy_bt,2022.2.4,Win32,60.11421701,Chrome,1500,1000,,,,,1,936,,,,,,,,,,,,,,,,,B,174,star,1,0,,,,,,,,,,,,,,,,repeat,letter,lettRpt,d,0.455200001,Hi,,,,,,3,,,,,,,,low,8,0,8,0,1,,,,,,,,,
297070,2022-12-05_01h38.56.817,vts_reward_expectancy_bt,2022.2.4,Win32,60.11421701,Chrome,1500,1000,,,,,1,937,,,,,,,,,,,,,,,,,S,181,hexagon,1,0,,,,,,,,,,,,,,,,repeat,letter,lettRpt,f,0.6679,Lo,,,,,,3,,,,,,,,low,9,0,9,0,1,,,,,,,,,
297070,2022-12-05_01h38.56.817,vts_reward_expectancy_bt,2022.2.4,Win32,60.11421701,Chrome,1500,1000,,,,,0,937,,,,,,,,,,,,,,,,,F,125,triangle,1,0,,,,,,,,,,,,,,,,repeat,letter,lettRpt,d,0.690300001,Hi,,,,,,3,,,,,,,,low,10,0,10,0,1,,,,,,,,,
297070,2022-12-05_01h38.56.817,vts_reward_expectancy_bt,2022.2.4,Win32,60.11421701,Chrome,1500,1000,,,,,10,947,,,,,,,,,,,,,,,,,U,146,circle,1,0,,,,,,,,,,,,,,,,repeat,letter,lettRpt,f,0.5899,Lo,,,,,,3,,,,,,,,low,11,0,11,0,1,,,,,,,,,
297070,2022-12-05_01h38.56.817,vts_reward_expectancy_bt,2022.2.4,Win32,60.11421701,Chrome,1500,1000,,,,,10,957,,,,,,,,,,,,,,,,,W,132,circle,1,0,,,,,,,,,,,,,,,,repeat,letter,lettRpt,f,0.5675,Lo,,,,,,3,,,,,,,,low,12,0,12,0,1,,,,,,,,,
297070,2022-12-05_01h38.56.817,vts_reward_expectancy_bt,2022.2.4,Win32,60.11421701,Chrome,1500,1000,,,,,1,958,,,,,,,,,,,,,,,,,D,167,star,1,0,,,,,,,,,,,,,,,,repeat,letter,lettRpt,d,0.473300001,Hi,,,,,,3,,,,,,,,low,13,0,13,0,1,,,,,,,,,
297070,2022-12-05_01h38.56.817,vts_reward_expectancy_bt,2022.2.4,Win32,60.11421701,Chrome,1500,1000,,,,,1,959,,,,,,,,,,,,,,,,,Y,139,triangle,1,0,,,,,,,,,,,,,,,,repeat,letter,lettRpt,f,0.4964,Hi,,,,,,3,,,,,,,,low,14,0,14,0,1,,,,,,,,,
297070,2022-12-05_01h38.56.817,vts_reward_expectancy_bt,2022.2.4,Win32,60.11421701,Chrome,1500,1000,,,,,1,960,,,,,,,,,,,,,,,,,H,160,hexagon,1,0,,,,,,,,,,,,,,,,repeat,letter,lettRpt,d,0.48,Lo,,,,,,3,,,,,,,,low,15,0,15,0,1,,,,,,,,,
297070,2022-12-05_01h38.56.817,vts_reward_expectancy_bt,2022.2.4,Win32,60.11421701,Chrome,1500,1000,,,,,10,970,,,,,,,,,,,,,,,,,W,132,circle,1,0,,,,,,,,,,,,,,,,repeat,letter,lettRpt,f,0.583900002,Lo,,,,,,3,,,,,,,,low,16,0,16,0,1,,,,,,,,,
297070,2022-12-05_01h38.56.817,vts_reward_expectancy_bt,2022.2.4,Win32,60.11421701,Chrome,1500,1000,,,,,10,980,,,,,,,,,,,,,,,,,H,181,triangle,1,0,,,,,,,,,,,,,,,,repeat,letter,lettRpt,d,0.4669,Hi,,,,,,3,,,,,,,,low,17,0,17,0,1,,,,,,,,,
297070,2022-12-05_01h38.56.817,vts_reward_expectancy_bt,2022.2.4,Win32,60.11421701,Chrome,1500,1000,,,,,10,990,,,,,,,,,,,,,,,,,F,146,hexagon,1,0,,,,,,,,,,,,,,,,repeat,letter,lettRpt,d,0.785699999,Lo,,,,,,3,,,,,,,,low,18,0,18,0,1,,,,,,,,,
297070,2022-12-05_01h38.56.817,vts_reward_expectancy_bt,2022.2.4,Win32,60.11421701,Chrome,1500,1000,,,,,0,990,,,,,,,,,,,,,,,,,U,139,star,1,0,,,,,,,,,,,,,,,,repeat,letter,lettRpt,f,0.5515,Hi,,,,,,3,,,,,,,,low,19,0,19,0,1,,,,,,,,,
297070,2022-12-05_01h38.56.817,vts_reward_expectancy_bt,2022.2.4,Win32,60.11421701,Chrome,1500,1000,,,,,10,1000,,,,,,,,,,,,,,,,,B,174,circle,1,0,,,,,,,,,,,,,,,,repeat,letter,lettRpt,d,0.6669,Lo,,,,,,3,,,,,,,,low,20,0,20,0,1,,,,,,,,,
297070,2022-12-05_01h38.56.817,vts_reward_expectancy_bt,2022.2.4,Win32,60.11421701,Chrome,1500,1000,,,,,10,1010,,,,,,,,,,,,,,,,,D,167,hexagon,1,0,,,,,,,,,,,,,,,,repeat,letter,lettRpt,d,0.579699999,Lo,,,,,,3,,,,,,,,low,21,0,21,0,1,,,,,,,,,
297070,2022-12-05_01h38.56.817,vts_reward_expectancy_bt,2022.2.4,Win32,60.11421701,Chrome,1500,1000,,,,,0,1010,,,,,,,,,,,,,,,,,S,125,triangle,1,0,,,,,,,,,,,,,,,,repeat,letter,lettRpt,f,0.6985,Hi,,,,,,3,,,,,,,,low,22,0,22,0,1,,,,,,,,,
297070,2022-12-05_01h38.56.817,vts_reward_expectancy_bt,2022.2.4,Win32,60.11421701,Chrome,1500,1000,,,,,0,1010,,,,,,,,,,,,,,,,,Y,160,star,1,0,,,,,,,,,,,,,,,,repeat,letter,lettRpt,f,0.766,Hi,,,,,,3,,,,,,,,low,23,0,23,0,1,,,,,,,,,
297070,2022-12-05_01h38.56.817,vts_reward_expectancy_bt,2022.2.4,Win32,60.11421701,Chrome,1500,1000,,,,,0,1010,,,,,,,,,,,,,,,,,H,181,circle,0,0,,,,,,,,,,,,,,,,repeat,letter,NA,f,0.900299999,Hi,,,,,,3,,,,,,,,low,24,0,24,0,1,,,,,,,,,
297070,2022-12-05_01h38.56.817,vts_reward_expectancy_bt,2022.2.4,Win32,60.11421701,Chrome,1500,1000,,,,,0,1010,,,,,,,,,,,,,,,,,U,174,star,1,1,,,,,,,,,,,,,,,,repeat,letter,lettRpt,f,0.582700001,Hi,,,,,,3,,,,,,,,low,25,0,25,0,1,,,,,,,,,
297070,2022-12-05_01h38.56.817,vts_reward_expectancy_bt,2022.2.4,Win32,60.11421701,Chrome,1500,1000,,,,,0,1010,,,,,,,,,,,,,,,,,F,146,triangle,1,0,,,,,,,,,,,,,,,,repeat,letter,lettRpt,d,0.5335,Hi,,,,,,3,,,,,,,,low,26,0,26,0,1,,,,,,,,,
297070,2022-12-05_01h38.56.817,vts_reward_expectancy_bt,2022.2.4,Win32,60.11421701,Chrome,1500,1000,,,,,1,1011,,,,,,,,,,,,,,,,,Y,139,hexagon,1,0,,,,,,,,,,,,,,,,repeat,letter,lettRpt,f,0.467,Lo,,,,,,3,,,,,,,,low,27,0,27,0,1,,,,,,,,,
297070,2022-12-05_01h38.56.817,vts_reward_expectancy_bt,2022.2.4,Win32,60.11421701,Chrome,1500,1000,,,,,1,1012,,,,,,,,,,,,,,,,,S,132,hexagon,1,0,,,,,,,,,,,,,,,,repeat,letter,lettRpt,f,0.4356,Lo,,,,,,3,,,,,,,,low,28,0,28,0,1,,,,,,,,,
297070,2022-12-05_01h38.56.817,vts_reward_expectancy_bt,2022.2.4,Win32,60.11421701,Chrome,1500,1000,,,,,0,1012,,,,,,,,,,,,,,,,,D,125,triangle,1,0,,,,,,,,,,,,,,,,repeat,letter,lettRpt,d,0.584,Hi,,,,,,3,,,,,,,,low,29,0,29,0,1,,,,,,,,,
297070,2022-12-05_01h38.56.817,vts_reward_expectancy_bt,2022.2.4,Win32,60.11421701,Chrome,1500,1000,,,,,1,1013,,,,,,,,,,,,,,,,,W,160,circle,1,0,,,,,,,,,,,,,,,,repeat,letter,lettRpt,f,0.622200001,Lo,,,,,,3,,,,,,,,low,30,0,30,0,1,,,,,,,,,
297070,2022-12-05_01h38.56.817,vts_reward_expectancy_bt,2022.2.4,Win32,60.11421701,Chrome,1500,1000,,,,,0,1013,,,,,,,,,,,,,,,,,B,167,star,1,0,,,,,,,,,,,,,,,,repeat,letter,lettRpt,d,0.5961,Hi,,,,,,3,,,,,,,,low,31,0,31,0,1,,,,,,,,,
297070,2022-12-05_01h38.56.817,vts_reward_expectancy_bt,2022.2.4,Win32,60.11421701,Chrome,1500,1000,,,,,0,1013,,,,,,,,,,,,,,,,,B,146,star,0,0,,,,,,,,,,,,,,,,repeat,letter,NA,f,0.566699999,Hi,,,,,,4,,,,,,space,4.3001,low,0,0,0,0,1,,,,,,,,,
297070,2022-12-05_01h38.56.817,vts_reward_expectancy_bt,2022.2.4,Win32,60.11421701,Chrome,1500,1000,,,,,0,1013,,,,,,,,,,,,,,,,,U,160,triangle,1,1,,,,,,,,,,,,,,,,repeat,letter,lettRpt,f,0.583699999,Hi,,,,,,4,,,,,,,,low,1,0,1,0,1,,,,,,,,,
297070,2022-12-05_01h38.56.817,vts_reward_expectancy_bt,2022.2.4,Win32,60.11421701,Chrome,1500,1000,,,,,10,1023,,,,,,,,,,,,,,,,,S,174,hexagon,1,0,,,,,,,,,,,,,,,,repeat,letter,lettRpt,f,0.515199999,Lo,,,,,,4,,,,,,,,low,2,0,2,0,1,,,,,,,,,
297070,2022-12-05_01h38.56.817,vts_reward_expectancy_bt,2022.2.4,Win32,60.11421701,Chrome,1500,1000,,,,,10,1033,,,,,,,,,,,,,,,,,Y,167,circle,1,0,,,,,,,,,,,,,,,,repeat,letter,lettRpt,f,0.484,Lo,,,,,,4,,,,,,,,low,3,0,3,0,1,,,,,,,,,
297070,2022-12-05_01h38.56.817,vts_reward_expectancy_bt,2022.2.4,Win32,60.11421701,Chrome,1500,1000,,,,,1,1034,,,,,,,,,,,,,,,,,W,132,star,1,0,,,,,,,,,,,,,,,,repeat,letter,lettRpt,f,0.429700001,Hi,,,,,,4,,,,,,,,low,4,0,4,0,1,,,,,,,,,
297070,2022-12-05_01h38.56.817,vts_reward_expectancy_bt,2022.2.4,Win32,60.11421701,Chrome,1500,1000,,,,,10,1044,,,,,,,,,,,,,,,,,D,181,triangle,1,0,,,,,,,,,,,,,,,,repeat,letter,lettRpt,d,0.3781,Hi,,,,,,4,,,,,,,,low,5,0,5,0,1,,,,,,,,,
297070,2022-12-05_01h38.56.817,vts_reward_expectancy_bt,2022.2.4,Win32,60.11421701,Chrome,1500,1000,,,,,1,1045,,,,,,,,,,,,,,,,,H,125,hexagon,1,0,,,,,,,,,,,,,,,,repeat,letter,lettRpt,d,0.433300001,Lo,,,,,,4,,,,,,,,low,6,0,6,0,1,,,,,,,,,
297070,2022-12-05_01h38.56.817,vts_reward_expectancy_bt,2022.2.4,Win32,60.11421701,Chrome,1500,1000,,,,,10,1055,,,,,,,,,,,,,,,,,F,139,circle,1,0,,,,,,,,,,,,,,,,repeat,letter,lettRpt,d,0.4494,Lo,,,,,,4,,,,,,,,low,7,0,7,0,1,,,,,,,,,
297070,2022-12-05_01h38.56.817,vts_reward_expectancy_bt,2022.2.4,Win32,60.11421701,Chrome,1500,1000,,,,,1,1056,,,,,,,,,,,,,,,,,B,146,hexagon,1,0,,,,,,,,,,,,,,,,repeat,letter,lettRpt,d,0.4836,Lo,,,,,,4,,,,,,,,low,8,0,8,0,1,,,,,,,,,
297070,2022-12-05_01h38.56.817,vts_reward_expectancy_bt,2022.2.4,Win32,60.11421701,Chrome,1500,1000,,,,,1,1057,,,,,,,,,,,,,,,,,U,160,circle,1,0,,,,,,,,,,,,,,,,repeat,letter,lettRpt,f,0.6334,Lo,,,,,,4,,,,,,,,low,9,0,9,0,1,,,,,,,,,
297070,2022-12-05_01h38.56.817,vts_reward_expectancy_bt,2022.2.4,Win32,60.11421701,Chrome,1500,1000,,,,,0,1057,,,,,,,,,,,,,,,,,S,174,triangle,1,0,,,,,,,,,,,,,,,,repeat,letter,lettRpt,f,0.533200001,Hi,,,,,,4,,,,,,,,low,10,0,10,0,1,,,,,,,,,
297070,2022-12-05_01h38.56.817,vts_reward_expectancy_bt,2022.2.4,Win32,60.11421701,Chrome,1500,1000,,,,,10,1067,,,,,,,,,,,,,,,,,Y,167,star,1,0,,,,,,,,,,,,,,,,repeat,letter,lettRpt,f,0.4665,Hi,,,,,,4,,,,,,,,low,11,0,11,0,1,,,,,,,,,
297070,2022-12-05_01h38.56.817,vts_reward_expectancy_bt,2022.2.4,Win32,60.11421701,Chrome,1500,1000,,,,,1,1068,,,,,,,,,,,,,,,,,W,132,star,1,0,,,,,,,,,,,,,,,,repeat,letter,lettRpt,f,0.500099998,Hi,,,,,,4,,,,,,,,low,12,0,12,0,1,,,,,,,,,
297070,2022-12-05_01h38.56.817,vts_reward_expectancy_bt,2022.2.4,Win32,60.11421701,Chrome,1500,1000,,,,,0,1068,,,,,,,,,,,,,,,,,D,181,hexagon,0,0,,,,,,,,,,,,,,,,repeat,letter,NA,f,0.434700001,Hi,,,,,,4,,,,,,,,low,13,0,13,0,1,,,,,,,,,
297070,2022-12-05_01h38.56.817,vts_reward_expectancy_bt,2022.2.4,Win32,60.11421701,Chrome,1500,1000,,,,,1,1069,,,,,,,,,,,,,,,,,H,125,circle,1,1,,,,,,,,,,,,,,,,repeat,letter,lettRpt,d,0.417,Lo,,,,,,4,,,,,,,,low,14,0,14,0,1,,,,,,,,,
297070,2022-12-05_01h38.56.817,vts_reward_expectancy_bt,2022.2.4,Win32,60.11421701,Chrome,1500,1000,,,,,1,1070,,,,,,,,,,,,,,,,,F,139,triangle,1,0,,,,,,,,,,,,,,,,repeat,letter,lettRpt,d,0.437700001,Hi,,,,,,4,,,,,,,,low,15,0,15,0,1,,,,,,,,,
297070,2022-12-05_01h38.56.817,vts_reward_expectancy_bt,2022.2.4,Win32,60.11421701,Chrome,1500,1000,,,,,10,1080,,,,,,,,,,,,,,,,,Y,181,triangle,1,0,,,,,,,,,,,,,,,,repeat,letter,lettRpt,f,0.432799999,Hi,,,,,,4,,,,,,,,low,16,0,16,0,1,,,,,,,,,
297070,2022-12-05_01h38.56.817,vts_reward_expectancy_bt,2022.2.4,Win32,60.11421701,Chrome,1500,1000,,,,,1,1081,,,,,,,,,,,,,,,,,S,146,hexagon,1,0,,,,,,,,,,,,,,,,repeat,letter,lettRpt,f,0.5004,Lo,,,,,,4,,,,,,,,low,17,0,17,0,1,,,,,,,,,
297070,2022-12-05_01h38.56.817,vts_reward_expectancy_bt,2022.2.4,Win32,60.11421701,Chrome,1500,1000,,,,,0,1081,,,,,,,,,,,,,,,,,H,139,star,1,0,,,,,,,,,,,,,,,,repeat,letter,lettRpt,d,0.549900002,Hi,,,,,,4,,,,,,,,low,18,0,18,0,1,,,,,,,,,
297070,2022-12-05_01h38.56.817,vts_reward_expectancy_bt,2022.2.4,Win32,60.11421701,Chrome,1500,1000,,,,,1,1082,,,,,,,,,,,,,,,,,U,174,circle,1,0,,,,,,,,,,,,,,,,repeat,letter,lettRpt,f,0.700299999,Lo,,,,,,4,,,,,,,,low,19,0,19,0,1,,,,,,,,,
297070,2022-12-05_01h38.56.817,vts_reward_expectancy_bt,2022.2.4,Win32,60.11421701,Chrome,1500,1000,,,,,0,1082,,,,,,,,,,,,,,,,,F,160,star,1,0,,,,,,,,,,,,,,,,repeat,letter,lettRpt,d,0.534,Hi,,,,,,4,,,,,,,,low,20,0,20,0,1,,,,,,,,,
297070,2022-12-05_01h38.56.817,vts_reward_expectancy_bt,2022.2.4,Win32,60.11421701,Chrome,1500,1000,,,,,10,1092,,,,,,,,,,,,,,,,,W,167,hexagon,1,0,,,,,,,,,,,,,,,,repeat,letter,lettRpt,f,0.579900002,Lo,,,,,,4,,,,,,,,low,21,0,21,0,1,,,,,,,,,
297070,2022-12-05_01h38.56.817,vts_reward_expectancy_bt,2022.2.4,Win32,60.11421701,Chrome,1500,1000,,,,,10,1102,,,,,,,,,,,,,,,,,B,132,triangle,1,0,,,,,,,,,,,,,,,,repeat,letter,lettRpt,d,0.466700001,Hi,,,,,,4,,,,,,,,low,22,0,22,0,1,,,,,,,,,
297070,2022-12-05_01h38.56.817,vts_reward_expectancy_bt,2022.2.4,Win32,60.11421701,Chrome,1500,1000,,,,,1,1103,,,,,,,,,,,,,,,,,D,125,circle,1,0,,,,,,,,,,,,,,,,repeat,letter,lettRpt,d,0.5495,Lo,,,,,,4,,,,,,,,low,23,0,23,0,1,,,,,,,,,
297070,2022-12-05_01h38.56.817,vts_reward_expectancy_bt,2022.2.4,Win32,60.11421701,Chrome,1500,1000,,,,,0,1103,,,,,,,,,,,,,,,,,U,146,star,0,0,,,,,,,,,,,,,,,,repeat,letter,NA,d,0.517700001,Lo,,,,,,4,,,,,,,,low,24,0,24,0,1,,,,,,,,,
297070,2022-12-05_01h38.56.817,vts_reward_expectancy_bt,2022.2.4,Win32,60.11421701,Chrome,1500,1000,,,,,1,1104,,,,,,,,,,,,,,,,,W,125,circle,1,1,,,,,,,,,,,,,,,,repeat,letter,lettRpt,f,0.617,Lo,,,,,,4,,,,,,,,low,25,0,25,0,1,,,,,,,,,
297070,2022-12-05_01h38.56.817,vts_reward_expectancy_bt,2022.2.4,Win32,60.11421701,Chrome,1500,1000,,,,,10,1114,,,,,,,,,,,,,,,,,F,181,hexagon,1,0,,,,,,,,,,,,,,,,repeat,letter,lettRpt,d,0.5664,Lo,,,,,,4,,,,,,,,low,26,0,26,0,1,,,,,,,,,
297070,2022-12-05_01h38.56.817,vts_reward_expectancy_bt,2022.2.4,Win32,60.11421701,Chrome,1500,1000,,,,,0,1114,,,,,,,,,,,,,,,,,D,139,triangle,1,0,,,,,,,,,,,,,,,,repeat,letter,lettRpt,d,0.549799999,Hi,,,,,,4,,,,,,,,low,27,0,27,0,1,,,,,,,,,
297070,2022-12-05_01h38.56.817,vts_reward_expectancy_bt,2022.2.4,Win32,60.11421701,Chrome,1500,1000,,,,,10,1124,,,,,,,,,,,,,,,,,S,160,circle,1,0,,,,,,,,,,,,,,,,repeat,letter,lettRpt,f,0.7829,Lo,,,,,,4,,,,,,,,low,28,0,28,0,1,,,,,,,,,
297070,2022-12-05_01h38.56.817,vts_reward_expectancy_bt,2022.2.4,Win32,60.11421701,Chrome,1500,1000,,,,,1,1125,,,,,,,,,,,,,,,,,H,174,hexagon,1,0,,,,,,,,,,,,,,,,repeat,letter,lettRpt,d,0.634,Lo,,,,,,4,,,,,,,,low,29,0,29,0,1,,,,,,,,,
297070,2022-12-05_01h38.56.817,vts_reward_expectancy_bt,2022.2.4,Win32,60.11421701,Chrome,1500,1000,,,,,0,1125,,,,,,,,,,,,,,,,,B,132,triangle,1,0,,,,,,,,,,,,,,,,repeat,letter,lettRpt,d,0.5325,Hi,,,,,,4,,,,,,,,low,30,0,30,0,1,,,,,,,,,
297070,2022-12-05_01h38.56.817,vts_reward_expectancy_bt,2022.2.4,Win32,60.11421701,Chrome,1500,1000,,,,,0,1125,,,,,,,,,,,,,,,,,Y,167,star,1,0,,,,,,,,,,,,,,,,repeat,letter,lettRpt,f,0.900300001,Hi,,,,,,4,,,,,,,,low,31,0,31,0,1,,,,,,,,,
297070,2022-12-05_01h38.56.817,vts_reward_expectancy_bt,2022.2.4,Win32,60.11421701,Chrome,1500,1000,,,,,0,1125,,,,,,,,,,,,,,,,,B,139,star,1,0,,,,,,,,,,,,,,,,repeat,letter,lettRpt,d,0.4935,Hi,,,,,,5,,,,,,space,1.35,low,0,0,0,0,1,,,,,,,,,
297070,2022-12-05_01h38.56.817,vts_reward_expectancy_bt,2022.2.4,Win32,60.11421701,Chrome,1500,1000,,,,,1,1126,,,,,,,,,,,,,,,,,F,125,circle,1,0,,,,,,,,,,,,,,,,repeat,letter,lettRpt,d,0.4159,Lo,,,,,,5,,,,,,,,low,1,0,1,0,1,,,,,,,,,
297070,2022-12-05_01h38.56.817,vts_reward_expectancy_bt,2022.2.4,Win32,60.11421701,Chrome,1500,1000,,,,,0,1126,,,,,,,,,,,,,,,,,W,160,hexagon,0,0,,,,,,,,,,,,,,,,repeat,letter,NA,d,0.400400002,Lo,,,,,,5,,,,,,,,low,2,0,2,0,1,,,,,,,,,
297070,2022-12-05_01h38.56.817,vts_reward_expectancy_bt,2022.2.4,Win32,60.11421701,Chrome,1500,1000,,,,,1,1127,,,,,,,,,,,,,,,,,S,146,triangle,1,1,,,,,,,,,,,,,,,,repeat,letter,lettRpt,f,0.4505,Hi,,,,,,5,,,,,,,,low,3,0,3,0,1,,,,,,,,,
297070,2022-12-05_01h38.56.817,vts_reward_expectancy_bt,2022.2.4,Win32,60.11421701,Chrome,1500,1000,,,,,1,1128,,,,,,,,,,,,,,,,,D,174,star,1,0,,,,,,,,,,,,,,,,repeat,letter,lettRpt,d,0.384200001,Hi,,,,,,5,,,,,,,,low,4,0,4,0,1,,,,,,,,,
297070,2022-12-05_01h38.56.817,vts_reward_expectancy_bt,2022.2.4,Win32,60.11421701,Chrome,1500,1000,,,,,1,1129,,,,,,,,,,,,,,,,,Y,167,circle,1,0,,,,,,,,,,,,,,,,repeat,letter,lettRpt,f,0.417200001,Lo,,,,,,5,,,,,,,,low,5,0,5,0,1,,,,,,,,,
297070,2022-12-05_01h38.56.817,vts_reward_expectancy_bt,2022.2.4,Win32,60.11421701,Chrome,1500,1000,,,,,1,1130,,,,,,,,,,,,,,,,,H,132,hexagon,1,0,,,,,,,,,,,,,,,,repeat,letter,lettRpt,d,0.599799999,Lo,,,,,,5,,,,,,,,low,6,0,6,0,1,,,,,,,,,
297070,2022-12-05_01h38.56.817,vts_reward_expectancy_bt,2022.2.4,Win32,60.11421701,Chrome,1500,1000,,,,,0,1130,,,,,,,,,,,,,,,,,U,181,triangle,0,0,,,,,,,,,,,,,,,,repeat,letter,NA,d,0.5345,Lo,,,,,,5,,,,,,,,low,7,0,7,0,1,,,,,,,,,
297070,2022-12-05_01h38.56.817,vts_reward_expectancy_bt,2022.2.4,Win32,60.11421701,Chrome,1500,1000,,,,,10,1140,,,,,,,,,,,,,,,,,B,139,star,1,1,,,,,,,,,,,,,,,,repeat,letter,lettRpt,d,0.4835,Hi,,,,,,5,,,,,,,,low,8,0,8,0,1,,,,,,,,,
297070,2022-12-05_01h38.56.817,vts_reward_expectancy_bt,2022.2.4,Win32,60.11421701,Chrome,1500,1000,,,,,1,1141,,,,,,,,,,,,,,,,,F,125,hexagon,1,0,,,,,,,,,,,,,,,,repeat,letter,lettRpt,d,0.467,Lo,,,,,,5,,,,,,,,low,9,0,9,0,1,,,,,,,,,
297070,2022-12-05_01h38.56.817,vts_reward_expectancy_bt,2022.2.4,Win32,60.11421701,Chrome,1500,1000,,,,,10,1151,,,,,,,,,,,,,,,,,W,160,triangle,1,0,,,,,,,,,,,,,,,,repeat,letter,lettRpt,f,0.433299999,Hi,,,,,,5,,,,,,,,low,10,0,10,0,1,,,,,,,,,
297070,2022-12-05_01h38.56.817,vts_reward_expectancy_bt,2022.2.4,Win32,60.11421701,Chrome,1500,1000,,,,,1,1152,,,,,,,,,,,,,,,,,S,146,circle,1,0,,,,,,,,,,,,,,,,repeat,letter,lettRpt,f,0.5164,Lo,,,,,,5,,,,,,,,low,11,0,11,0,1,,,,,,,,,
297070,2022-12-05_01h38.56.817,vts_reward_expectancy_bt,2022.2.4,Win32,60.11421701,Chrome,1500,1000,,,,,10,1162,,,,,,,,,,,,,,,,,D,174,circle,1,0,,,,,,,,,,,,,,,,repeat,letter,lettRpt,d,0.4505,Lo,,,,,,5,,,,,,,,low,12,0,12,0,1,,,,,,,,,
297070,2022-12-05_01h38.56.817,vts_reward_expectancy_bt,2022.2.4,Win32,60.11421701,Chrome,1500,1000,,,,,0,1162,,,,,,,,,,,,,,,,,Y,167,star,1,0,,,,,,,,,,,,,,,,repeat,letter,lettRpt,f,0.4989,Hi,,,,,,5,,,,,,,,low,13,0,13,0,1,,,,,,,,,
297070,2022-12-05_01h38.56.817,vts_reward_expectancy_bt,2022.2.4,Win32,60.11421701,Chrome,1500,1000,,,,,0,1162,,,,,,,,,,,,,,,,,H,132,hexagon,0,0,,,,,,,,,,,,,,,,repeat,letter,NA,f,0.532,Hi,,,,,,5,,,,,,,,low,14,0,14,0,1,,,,,,,,,
297070,2022-12-05_01h38.56.817,vts_reward_expectancy_bt,2022.2.4,Win32,60.11421701,Chrome,1500,1000,,,,,0,1162,,,,,,,,,,,,,,,,,U,181,triangle,1,1,,,,,,,,,,,,,,,,repeat,letter,lettRpt,f,0.508,Hi,,,,,,5,,,,,,,,low,15,0,15,0,1,,,,,,,,,
297070,2022-12-05_01h38.56.817,vts_reward_expectancy_bt,2022.2.4,Win32,60.11421701,Chrome,1500,1000,,,,,1,1163,,,,,,,,,,,,,,,,,D,174,circle,1,0,,,,,,,,,,,,,,,,repeat,letter,lettRpt,d,0.433300001,Lo,,,,,,5,,,,,,,,low,16,0,16,0,1,,,,,,,,,
297070,2022-12-05_01h38.56.817,vts_reward_expectancy_bt,2022.2.4,Win32,60.11421701,Chrome,1500,1000,,,,,10,1173,,,,,,,,,,,,,,,,,W,181,hexagon,1,0,,,,,,,,,,,,,,,,repeat,letter,lettRpt,f,0.3834,Lo,,,,,,5,,,,,,,,low,17,0,17,0,1,,,,,,,,,
297070,2022-12-05_01h38.56.817,vts_reward_expectancy_bt,2022.2.4,Win32,60.11421701,Chrome,1500,1000,,,,,0,1173,,,,,,,,,,,,,,,,,B,160,triangle,1,0,,,,,,,,,,,,,,,,repeat,letter,lettRpt,d,0.75,Hi,,,,,,5,,,,,,,,low,18,0,18,0,1,,,,,,,,,
297070,2022-12-05_01h38.56.817,vts_reward_expectancy_bt,2022.2.4,Win32,60.11421701,Chrome,1500,1000,,,,,0,1173,,,,,,,,,,,,,,,,,F,125,star,1,0,,,,,,,,,,,,,,,,repeat,letter,lettRpt,d,0.767700001,Hi,,,,,,5,,,,,,,,low,19,0,19,0,1,,,,,,,,,
297070,2022-12-05_01h38.56.817,vts_reward_expectancy_bt,2022.2.4,Win32,60.11421701,Chrome,1500,1000,,,,,0,1173,,,,,,,,,,,,,,,,,S,132,star,1,0,,,,,,,,,,,,,,,,repeat,letter,lettRpt,f,0.516599998,Hi,,,,,,5,,,,,,,,low,20,0,20,0,1,,,,,,,,,
297070,2022-12-05_01h38.56.817,vts_reward_expectancy_bt,2022.2.4,Win32,60.11421701,Chrome,1500,1000,,,,,1,1174,,,,,,,,,,,,,,,,,U,139,circle,1,0,,,,,,,,,,,,,,,,repeat,letter,lettRpt,f,0.567700001,Lo,,,,,,5,,,,,,,,low,21,0,21,0,1,,,,,,,,,
297070,2022-12-05_01h38.56.817,vts_reward_expectancy_bt,2022.2.4,Win32,60.11421701,Chrome,1500,1000,,,,,1,1175,,,,,,,,,,,,,,,,,Y,146,hexagon,1,0,,,,,,,,,,,,,,,,repeat,letter,lettRpt,f,0.4845,Lo,,,,,,5,,,,,,,,low,22,0,22,0,1,,,,,,,,,
297070,2022-12-05_01h38.56.817,vts_reward_expectancy_bt,2022.2.4,Win32,60.11421701,Chrome,1500,1000,,,,,0,1175,,,,,,,,,,,,,,,,,H,167,triangle,1,0,,,,,,,,,,,,,,,,repeat,letter,lettRpt,d,0.5709,Hi,,,,,,5,,,,,,,,low,23,0,23,0,1,,,,,,,,,
297070,2022-12-05_01h38.56.817,vts_reward_expectancy_bt,2022.2.4,Win32,60.11421701,Chrome,1500,1000,,,,,0,1175,,,,,,,,,,,,,,,,,H,125,triangle,1,0,,,,,,,,,,,,,,,,repeat,letter,lettRpt,d,0.634,Hi,,,,,,5,,,,,,,,low,24,0,24,0,1,,,,,,,,,
297070,2022-12-05_01h38.56.817,vts_reward_expectancy_bt,2022.2.4,Win32,60.11421701,Chrome,1500,1000,,,,,10,1185,,,,,,,,,,,,,,,,,U,139,hexagon,1,0,,,,,,,,,,,,,,,,repeat,letter,lettRpt,f,0.5165,Lo,,,,,,5,,,,,,,,low,25,0,25,0,1,,,,,,,,,
297070,2022-12-05_01h38.56.817,vts_reward_expectancy_bt,2022.2.4,Win32,60.11421701,Chrome,1500,1000,,,,,10,1195,,,,,,,,,,,,,,,,,D,181,star,1,0,,,,,,,,,,,,,,,,repeat,letter,lettRpt,d,0.382700001,Hi,,,,,,5,,,,,,,,low,26,0,26,0,1,,,,,,,,,
297070,2022-12-05_01h38.56.817,vts_reward_expectancy_bt,2022.2.4,Win32,60.11421701,Chrome,1500,1000,,,,,10,1205,,,,,,,,,,,,,,,,,F,146,circle,1,0,,,,,,,,,,,,,,,,repeat,letter,lettRpt,d,0.55,Lo,,,,,,5,,,,,,,,low,27,0,27,0,1,,,,,,,,,
297070,2022-12-05_01h38.56.817,vts_reward_expectancy_bt,2022.2.4,Win32,60.11421701,Chrome,1500,1000,,,,,10,1215,,,,,,,,,,,,,,,,,Y,160,hexagon,1,0,,,,,,,,,,,,,,,,repeat,letter,lettRpt,f,0.4505,Lo,,,,,,5,,,,,,,,low,28,0,28,0,1,,,,,,,,,
297070,2022-12-05_01h38.56.817,vts_reward_expectancy_bt,2022.2.4,Win32,60.11421701,Chrome,1500,1000,,,,,0,1215,,,,,,,,,,,,,,,,,W,132,triangle,1,0,,,,,,,,,,,,,,,,repeat,letter,lettRpt,f,0.533800001,Hi,,,,,,5,,,,,,,,low,29,0,29,0,1,,,,,,,,,
297070,2022-12-05_01h38.56.817,vts_reward_expectancy_bt,2022.2.4,Win32,60.11421701,Chrome,1500,1000,,,,,0,1215,,,,,,,,,,,,,,,,,S,167,circle,0,0,,,,,,,,,,,,,,,,repeat,letter,NA,d,0.7001,Hi,,,,,,5,,,,,,,,low,30,0,30,0,1,,,,,,,,,
297070,2022-12-05_01h38.56.817,vts_reward_expectancy_bt,2022.2.4,Win32,60.11421701,Chrome,1500,1000,,,,,0,1215,,,,,,,,,,,,,,,,,B,174,star,0,1,,,,,,,,,,,,,,,,repeat,letter,NA,f,0.6166,Hi,,,,,,5,,,,,,,,low,31,0,31,0,1,,,,,,,,,
297070,2022-12-05_01h38.56.817,vts_reward_expectancy_bt,2022.2.4,Win32,60.11421701,Chrome,1500,1000,,,,,10,1225,,,,,,,,,,,,,,,,,F,160,circle,1,1,,,,,,,,,,,,,,,,repeat,letter,lettRpt,d,0.566400002,Lo,,,,,,6,,,,,,space,2.199900002,low,0,0,0,0,1,,,,,,,,,
297070,2022-12-05_01h38.56.817,vts_reward_expectancy_bt,2022.2.4,Win32,60.11421701,Chrome,1500,1000,,,,,0,1225,,,,,,,,,,,,,,,,,D,167,triangle,1,0,,,,,,,,,,,,,,,,repeat,letter,lettRpt,d,0.917299999,Hi,,,,,,6,,,,,,,,low,1,0,1,0,1,,,,,,,,,
