participant,date,expName,psychopyVersion,OS,frameRate,browser,xResolution,yResolution,key_resp.keys,key_resp.rt,training_resp.keys,training_resp.rt,points_trial,points_cumul,trainBlock,training.thisRepN,training.thisTrialN,training.thisN,training.thisIndex,training.ran,LTriangleOpac,LCircleOpac,LHexagonOpac,LStarOpac,RTriangleOpac,RCircleOpac,RHexagonOpac,RStarOpac,LShape_ID,RShape_ID,curr_topStim,curr_bottStim,curr_shape,acc,E1,target_resp_prac1.keys,target_resp_prac1.rt,pracBlock,task1_prac_trials.thisRepN,task1_prac_trials.thisTrialN,task1_prac_trials.thisN,task1_prac_trials.thisIndex,task1_prac_trials.ran,target_resp_prac2.keys,target_resp_prac2.rt,task2_praac_trials.thisRepN,task2_praac_trials.thisTrialN,task2_praac_trials.thisN,task2_praac_trials.thisIndex,task2_praac_trials.ran,alt,task,condition,target_resp.keys,target_resp.rt,rewCond,vts_practice_trials.thisRepN,vts_practice_trials.thisTrialN,vts_practice_trials.thisN,vts_practice_trials.thisIndex,vts_practice_trials.ran,blockNum,trials_norew.thisRepN,trials_norew.thisTrialN,trials_norew.thisN,trials_norew.thisIndex,trials_norew.ran,key_resp_2.keys,key_resp_2.rt,rewExpectancy,trials_rew.thisRepN,trials_rew.thisTrialN,trials_rew.thisN,trials_rew.thisIndex,trials_rew.ran,Q1,Q2,Q2_text,Q3,Q4,Q5_text,Q5,xRes,yRes
297103,2022-12-05_13h30.52.876,vts_reward_expectancy_bt,2022.2.4,MacIntel,60.0024001,Chrome,1440,900,,,,,,,,,,,,,,,,,,,,,,,,,,,,,,,,,,,,,,,,,,,,,,,,,,,,,,,,,,,,,,,,,,,,,,,,,,,,
297103,2022-12-05_13h30.52.876,vts_reward_expectancy_bt,2022.2.4,MacIntel,60.0024001,Chrome,1440,900,space,12.4653,,,,,,,,,,,,,,,,,,,,,,,,,,,,,,,,,,,,,,,,,,,,,,,,,,,,,,,,,,,,,,,,,,,,,,,,,,
297103,2022-12-05_13h30.52.876,vts_reward_expectancy_bt,2022.2.4,MacIntel,60.0024001,Chrome,1440,900,,,,,,,,,,,,,,,,,,,,,,,,,,,,,,,,,,,,,,,,,,,,,,,,,,,,,,,,,,,,,,,,,,,,,,,,,,,,
297103,2022-12-05_13h30.52.876,vts_reward_expectancy_bt,2022.2.4,MacIntel,60.0024001,Chrome,1440,900,,,l,1.0132,1,1,0,0,0,0,6,1,0,0,1,0,1,0,0,0,hexagon,triangle,,,,,,,,,,,,,,,,,,,,,,,,,,,,,,,,,,,,,,,,,,,,,,,,,,,,,,
297103,2022-12-05_13h30.52.876,vts_reward_expectancy_bt,2022.2.4,MacIntel,60.0024001,Chrome,1440,900,,,l,1.5682,10,11,0,0,1,1,7,1,0,0,1,0,0,1,0,0,hexagon,circle,,,,,,,,,,,,,,,,,,,,,,,,,,,,,,,,,,,,,,,,,,,,,,,,,,,,,,
297103,2022-12-05_13h30.52.876,vts_reward_expectancy_bt,2022.2.4,MacIntel,60.0024001,Chrome,1440,900,,,l,2.7364,1,12,0,0,2,2,2,1,1,0,0,0,0,0,0,1,triangle,star,,,,,,,,,,,,,,,,,,,,,,,,,,,,,,,,,,,,,,,,,,,,,,,,,,,,,,
297103,2022-12-05_13h30.52.876,vts_reward_expectancy_bt,2022.2.4,MacIntel,60.0024001,Chrome,1440,900,,,a,1.868,10,22,0,0,3,3,4,1,0,1,0,0,0,0,1,0,circle,hexagon,,,,,,,,,,,,,,,,,,,,,,,,,,,,,,,,,,,,,,,,,,,,,,,,,,,,,,
297103,2022-12-05_13h30.52.876,vts_reward_expectancy_bt,2022.2.4,MacIntel,60.0024001,Chrome,1440,900,,,a,1.2732,10,32,0,0,4,4,8,1,0,0,1,0,0,0,0,1,hexagon,star,,,,,,,,,,,,,,,,,,,,,,,,,,,,,,,,,,,,,,,,,,,,,,,,,,,,,,
297103,2022-12-05_13h30.52.876,vts_reward_expectancy_bt,2022.2.4,MacIntel,60.0024001,Chrome,1440,900,,,l,1.1081,10,42,0,0,5,5,1,1,1,0,0,0,0,0,1,0,triangle,hexagon,,,,,,,,,,,,,,,,,,,,,,,,,,,,,,,,,,,,,,,,,,,,,,,,,,,,,,
297103,2022-12-05_13h30.52.876,vts_reward_expectancy_bt,2022.2.4,MacIntel,60.0024001,Chrome,1440,900,,,a,1.587,10,52,0,0,6,6,3,1,0,1,0,0,1,0,0,0,circle,triangle,,,,,,,,,,,,,,,,,,,,,,,,,,,,,,,,,,,,,,,,,,,,,,,,,,,,,,
297103,2022-12-05_13h30.52.876,vts_reward_expectancy_bt,2022.2.4,MacIntel,60.0024001,Chrome,1440,900,,,l,0.8837,10,62,0,0,7,7,10,1,0,0,0,1,0,1,0,0,star ,circle,,,,,,,,,,,,,,,,,,,,,,,,,,,,,,,,,,,,,,,,,,,,,,,,,,,,,,
297103,2022-12-05_13h30.52.876,vts_reward_expectancy_bt,2022.2.4,MacIntel,60.0024001,Chrome,1440,900,,,a,1.0548,1,63,0,0,8,8,9,1,0,0,0,1,1,0,0,0,star,triangle,,,,,,,,,,,,,,,,,,,,,,,,,,,,,,,,,,,,,,,,,,,,,,,,,,,,,,
297103,2022-12-05_13h30.52.876,vts_reward_expectancy_bt,2022.2.4,MacIntel,60.0024001,Chrome,1440,900,,,l,1.0155,10,73,0,0,9,9,0,1,1,0,0,0,0,1,0,0,triangle,circle,,,,,,,,,,,,,,,,,,,,,,,,,,,,,,,,,,,,,,,,,,,,,,,,,,,,,,
297103,2022-12-05_13h30.52.876,vts_reward_expectancy_bt,2022.2.4,MacIntel,60.0024001,Chrome,1440,900,,,a,0.9173,10,83,0,0,10,10,5,1,0,1,0,0,0,0,0,1,circle,star,,,,,,,,,,,,,,,,,,,,,,,,,,,,,,,,,,,,,,,,,,,,,,,,,,,,,,
297103,2022-12-05_13h30.52.876,vts_reward_expectancy_bt,2022.2.4,MacIntel,60.0024001,Chrome,1440,900,,,l,0.8167,10,93,0,0,11,11,11,1,0,0,0,1,0,0,1,0,star,hexagon,,,,,,,,,,,,,,,,,,,,,,,,,,,,,,,,,,,,,,,,,,,,,,,,,,,,,,
297103,2022-12-05_13h30.52.876,vts_reward_expectancy_bt,2022.2.4,MacIntel,60.0024001,Chrome,1440,900,,,l,1.823,1,94,0,1,0,12,2,1,1,0,0,0,0,0,0,1,triangle,star,,,,,,,,,,,,,,,,,,,,,,,,,,,,,,,,,,,,,,,,,,,,,,,,,,,,,,
297103,2022-12-05_13h30.52.876,vts_reward_expectancy_bt,2022.2.4,MacIntel,60.0024001,Chrome,1440,900,,,l,0.7712,10,104,0,1,1,13,7,1,0,0,1,0,0,1,0,0,hexagon,circle,,,,,,,,,,,,,,,,,,,,,,,,,,,,,,,,,,,,,,,,,,,,,,,,,,,,,,
297103,2022-12-05_13h30.52.876,vts_reward_expectancy_bt,2022.2.4,MacIntel,60.0024001,Chrome,1440,900,,,a,1.34,1,105,0,1,2,14,9,1,0,0,0,1,1,0,0,0,star,triangle,,,,,,,,,,,,,,,,,,,,,,,,,,,,,,,,,,,,,,,,,,,,,,,,,,,,,,
297103,2022-12-05_13h30.52.876,vts_reward_expectancy_bt,2022.2.4,MacIntel,60.0024001,Chrome,1440,900,,,a,0.9858,10,115,0,1,3,15,8,1,0,0,1,0,0,0,0,1,hexagon,star,,,,,,,,,,,,,,,,,,,,,,,,,,,,,,,,,,,,,,,,,,,,,,,,,,,,,,
297103,2022-12-05_13h30.52.876,vts_reward_expectancy_bt,2022.2.4,MacIntel,60.0024001,Chrome,1440,900,,,l,0.7957,10,125,0,1,4,16,11,1,0,0,0,1,0,0,1,0,star,hexagon,,,,,,,,,,,,,,,,,,,,,,,,,,,,,,,,,,,,,,,,,,,,,,,,,,,,,,
297103,2022-12-05_13h30.52.876,vts_reward_expectancy_bt,2022.2.4,MacIntel,60.0024001,Chrome,1440,900,,,a,1.1675,10,135,0,1,5,17,6,1,0,0,1,0,1,0,0,0,hexagon,triangle,,,,,,,,,,,,,,,,,,,,,,,,,,,,,,,,,,,,,,,,,,,,,,,,,,,,,,
297103,2022-12-05_13h30.52.876,vts_reward_expectancy_bt,2022.2.4,MacIntel,60.0024001,Chrome,1440,900,,,a,0.7245,10,145,0,1,6,18,3,1,0,1,0,0,1,0,0,0,circle,triangle,,,,,,,,,,,,,,,,,,,,,,,,,,,,,,,,,,,,,,,,,,,,,,,,,,,,,,
297103,2022-12-05_13h30.52.876,vts_reward_expectancy_bt,2022.2.4,MacIntel,60.0024001,Chrome,1440,900,,,l,1.367,10,155,0,1,7,19,4,1,0,1,0,0,0,0,1,0,circle,hexagon,,,,,,,,,,,,,,,,,,,,,,,,,,,,,,,,,,,,,,,,,,,,,,,,,,,,,,
297103,2022-12-05_13h30.52.876,vts_reward_expectancy_bt,2022.2.4,MacIntel,60.0024001,Chrome,1440,900,,,a,0.7198,1,156,0,1,8,20,5,1,0,1,0,0,0,0,0,1,circle,star,,,,,,,,,,,,,,,,,,,,,,,,,,,,,,,,,,,,,,,,,,,,,,,,,,,,,,
297103,2022-12-05_13h30.52.876,vts_reward_expectancy_bt,2022.2.4,MacIntel,60.0024001,Chrome,1440,900,,,l,0.586,10,166,0,1,9,21,1,1,1,0,0,0,0,0,1,0,triangle,hexagon,,,,,,,,,,,,,,,,,,,,,,,,,,,,,,,,,,,,,,,,,,,,,,,,,,,,,,
297103,2022-12-05_13h30.52.876,vts_reward_expectancy_bt,2022.2.4,MacIntel,60.0024001,Chrome,1440,900,,,l,0.5982,10,176,0,1,10,22,0,1,1,0,0,0,0,1,0,0,triangle,circle,,,,,,,,,,,,,,,,,,,,,,,,,,,,,,,,,,,,,,,,,,,,,,,,,,,,,,
297103,2022-12-05_13h30.52.876,vts_reward_expectancy_bt,2022.2.4,MacIntel,60.0024001,Chrome,1440,900,,,l,0.6662,10,186,0,1,11,23,10,1,0,0,0,1,0,1,0,0,star ,circle,,,,,,,,,,,,,,,,,,,,,,,,,,,,,,,,,,,,,,,,,,,,,,,,,,,,,,
297103,2022-12-05_13h30.52.876,vts_reward_expectancy_bt,2022.2.4,MacIntel,60.0024001,Chrome,1440,900,,,l,0.6165,10,196,0,2,0,24,10,1,0,0,0,1,0,1,0,0,star ,circle,,,,,,,,,,,,,,,,,,,,,,,,,,,,,,,,,,,,,,,,,,,,,,,,,,,,,,
297103,2022-12-05_13h30.52.876,vts_reward_expectancy_bt,2022.2.4,MacIntel,60.0024001,Chrome,1440,900,,,a,0.4501,10,206,0,2,1,25,5,1,0,1,0,0,0,0,0,1,circle,star,,,,,,,,,,,,,,,,,,,,,,,,,,,,,,,,,,,,,,,,,,,,,,,,,,,,,,
297103,2022-12-05_13h30.52.876,vts_reward_expectancy_bt,2022.2.4,MacIntel,60.0024001,Chrome,1440,900,,,l,0.9501,10,216,0,2,2,26,2,1,1,0,0,0,0,0,0,1,triangle,star,,,,,,,,,,,,,,,,,,,,,,,,,,,,,,,,,,,,,,,,,,,,,,,,,,,,,,
297103,2022-12-05_13h30.52.876,vts_reward_expectancy_bt,2022.2.4,MacIntel,60.0024001,Chrome,1440,900,,,a,0.75,10,226,0,2,3,27,3,1,0,1,0,0,1,0,0,0,circle,triangle,,,,,,,,,,,,,,,,,,,,,,,,,,,,,,,,,,,,,,,,,,,,,,,,,,,,,,
297103,2022-12-05_13h30.52.876,vts_reward_expectancy_bt,2022.2.4,MacIntel,60.0024001,Chrome,1440,900,,,a,0.7174,1,227,0,2,4,28,9,1,0,0,0,1,1,0,0,0,star,triangle,,,,,,,,,,,,,,,,,,,,,,,,,,,,,,,,,,,,,,,,,,,,,,,,,,,,,,
297103,2022-12-05_13h30.52.876,vts_reward_expectancy_bt,2022.2.4,MacIntel,60.0024001,Chrome,1440,900,,,l,1.1211,1,228,0,2,5,29,1,1,1,0,0,0,0,0,1,0,triangle,hexagon,,,,,,,,,,,,,,,,,,,,,,,,,,,,,,,,,,,,,,,,,,,,,,,,,,,,,,
297103,2022-12-05_13h30.52.876,vts_reward_expectancy_bt,2022.2.4,MacIntel,60.0024001,Chrome,1440,900,,,a,0.8341,10,238,0,2,6,30,4,1,0,1,0,0,0,0,1,0,circle,hexagon,,,,,,,,,,,,,,,,,,,,,,,,,,,,,,,,,,,,,,,,,,,,,,,,,,,,,,
297103,2022-12-05_13h30.52.876,vts_reward_expectancy_bt,2022.2.4,MacIntel,60.0024001,Chrome,1440,900,,,a,1.2654,10,248,0,2,7,31,6,1,0,0,1,0,1,0,0,0,hexagon,triangle,,,,,,,,,,,,,,,,,,,,,,,,,,,,,,,,,,,,,,,,,,,,,,,,,,,,,,
297103,2022-12-05_13h30.52.876,vts_reward_expectancy_bt,2022.2.4,MacIntel,60.0024001,Chrome,1440,900,,,l,0.8845,10,258,0,2,8,32,7,1,0,0,1,0,0,1,0,0,hexagon,circle,,,,,,,,,,,,,,,,,,,,,,,,,,,,,,,,,,,,,,,,,,,,,,,,,,,,,,
297103,2022-12-05_13h30.52.876,vts_reward_expectancy_bt,2022.2.4,MacIntel,60.0024001,Chrome,1440,900,,,a,0.5827,1,259,0,2,9,33,8,1,0,0,1,0,0,0,0,1,hexagon,star,,,,,,,,,,,,,,,,,,,,,,,,,,,,,,,,,,,,,,,,,,,,,,,,,,,,,,
297103,2022-12-05_13h30.52.876,vts_reward_expectancy_bt,2022.2.4,MacIntel,60.0024001,Chrome,1440,900,,,l,0.5857,1,260,0,2,10,34,11,1,0,0,0,1,0,0,1,0,star,hexagon,,,,,,,,,,,,,,,,,,,,,,,,,,,,,,,,,,,,,,,,,,,,,,,,,,,,,,
297103,2022-12-05_13h30.52.876,vts_reward_expectancy_bt,2022.2.4,MacIntel,60.0024001,Chrome,1440,900,,,l,0.3493,10,270,0,2,11,35,0,1,1,0,0,0,0,1,0,0,triangle,circle,,,,,,,,,,,,,,,,,,,,,,,,,,,,,,,,,,,,,,,,,,,,,,,,,,,,,,
297103,2022-12-05_13h30.52.876,vts_reward_expectancy_bt,2022.2.4,MacIntel,60.0024001,Chrome,1440,900,,,l,0.9623,10,280,1,0,0,0,4,1,0,1,0,0,0,0,1,0,circle,hexagon,,,,,,,,,,,,,,,,,,,,,,,,,,,,,,,,,,,,,,,,,,,,,,,,,,,,,,
297103,2022-12-05_13h30.52.876,vts_reward_expectancy_bt,2022.2.4,MacIntel,60.0024001,Chrome,1440,900,,,l,1.0825,1,281,1,0,1,1,2,1,1,0,0,0,0,0,0,1,triangle,star,,,,,,,,,,,,,,,,,,,,,,,,,,,,,,,,,,,,,,,,,,,,,,,,,,,,,,
297103,2022-12-05_13h30.52.876,vts_reward_expectancy_bt,2022.2.4,MacIntel,60.0024001,Chrome,1440,900,,,l,0.8024,10,291,1,0,2,2,1,1,1,0,0,0,0,0,1,0,triangle,hexagon,,,,,,,,,,,,,,,,,,,,,,,,,,,,,,,,,,,,,,,,,,,,,,,,,,,,,,
297103,2022-12-05_13h30.52.876,vts_reward_expectancy_bt,2022.2.4,MacIntel,60.0024001,Chrome,1440,900,,,l,1.417,10,301,1,0,3,3,0,1,1,0,0,0,0,1,0,0,triangle,circle,,,,,,,,,,,,,,,,,,,,,,,,,,,,,,,,,,,,,,,,,,,,,,,,,,,,,,
297103,2022-12-05_13h30.52.876,vts_reward_expectancy_bt,2022.2.4,MacIntel,60.0024001,Chrome,1440,900,,,l,0.6396,10,311,1,0,4,4,11,1,0,0,0,1,0,0,1,0,star,hexagon,,,,,,,,,,,,,,,,,,,,,,,,,,,,,,,,,,,,,,,,,,,,,,,,,,,,,,
297103,2022-12-05_13h30.52.876,vts_reward_expectancy_bt,2022.2.4,MacIntel,60.0024001,Chrome,1440,900,,,a,2.7836,10,321,1,0,5,5,3,1,0,1,0,0,1,0,0,0,circle,triangle,,,,,,,,,,,,,,,,,,,,,,,,,,,,,,,,,,,,,,,,,,,,,,,,,,,,,,
297103,2022-12-05_13h30.52.876,vts_reward_expectancy_bt,2022.2.4,MacIntel,60.0024001,Chrome,1440,900,,,a,4.0413,10,331,1,0,6,6,9,1,0,0,0,1,1,0,0,0,star,triangle,,,,,,,,,,,,,,,,,,,,,,,,,,,,,,,,,,,,,,,,,,,,,,,,,,,,,,
297103,2022-12-05_13h30.52.876,vts_reward_expectancy_bt,2022.2.4,MacIntel,60.0024001,Chrome,1440,900,,,a,0.9782,1,332,1,0,7,7,5,1,0,1,0,0,0,0,0,1,circle,star,,,,,,,,,,,,,,,,,,,,,,,,,,,,,,,,,,,,,,,,,,,,,,,,,,,,,,
297103,2022-12-05_13h30.52.876,vts_reward_expectancy_bt,2022.2.4,MacIntel,60.0024001,Chrome,1440,900,,,l,0.4148,10,342,1,0,8,8,10,1,0,0,0,1,0,1,0,0,star ,circle,,,,,,,,,,,,,,,,,,,,,,,,,,,,,,,,,,,,,,,,,,,,,,,,,,,,,,
297103,2022-12-05_13h30.52.876,vts_reward_expectancy_bt,2022.2.4,MacIntel,60.0024001,Chrome,1440,900,,,l,0.1661,1,343,1,0,9,9,6,1,0,0,1,0,1,0,0,0,hexagon,triangle,,,,,,,,,,,,,,,,,,,,,,,,,,,,,,,,,,,,,,,,,,,,,,,,,,,,,,
297103,2022-12-05_13h30.52.876,vts_reward_expectancy_bt,2022.2.4,MacIntel,60.0024001,Chrome,1440,900,,,l,0.8548,1,344,1,0,10,10,8,1,0,0,1,0,0,0,0,1,hexagon,star,,,,,,,,,,,,,,,,,,,,,,,,,,,,,,,,,,,,,,,,,,,,,,,,,,,,,,
297103,2022-12-05_13h30.52.876,vts_reward_expectancy_bt,2022.2.4,MacIntel,60.0024001,Chrome,1440,900,,,l,2.4757,10,354,1,0,11,11,7,1,0,0,1,0,0,1,0,0,hexagon,circle,,,,,,,,,,,,,,,,,,,,,,,,,,,,,,,,,,,,,,,,,,,,,,,,,,,,,,
297103,2022-12-05_13h30.52.876,vts_reward_expectancy_bt,2022.2.4,MacIntel,60.0024001,Chrome,1440,900,,,l,1.0408,1,355,1,1,0,12,8,1,0,0,1,0,0,0,0,1,hexagon,star,,,,,,,,,,,,,,,,,,,,,,,,,,,,,,,,,,,,,,,,,,,,,,,,,,,,,,
297103,2022-12-05_13h30.52.876,vts_reward_expectancy_bt,2022.2.4,MacIntel,60.0024001,Chrome,1440,900,,,l,0.5304,1,356,1,1,1,13,6,1,0,0,1,0,1,0,0,0,hexagon,triangle,,,,,,,,,,,,,,,,,,,,,,,,,,,,,,,,,,,,,,,,,,,,,,,,,,,,,,
297103,2022-12-05_13h30.52.876,vts_reward_expectancy_bt,2022.2.4,MacIntel,60.0024001,Chrome,1440,900,,,l,2.3352,1,357,1,1,2,14,10,1,0,0,0,1,0,1,0,0,star ,circle,,,,,,,,,,,,,,,,,,,,,,,,,,,,,,,,,,,,,,,,,,,,,,,,,,,,,,
297103,2022-12-05_13h30.52.876,vts_reward_expectancy_bt,2022.2.4,MacIntel,60.0024001,Chrome,1440,900,,,l,0.9866,10,367,1,1,3,15,5,1,0,1,0,0,0,0,0,1,circle,star,,,,,,,,,,,,,,,,,,,,,,,,,,,,,,,,,,,,,,,,,,,,,,,,,,,,,,
297103,2022-12-05_13h30.52.876,vts_reward_expectancy_bt,2022.2.4,MacIntel,60.0024001,Chrome,1440,900,,,l,4.2226,1,368,1,1,4,16,1,1,1,0,0,0,0,0,1,0,triangle,hexagon,,,,,,,,,,,,,,,,,,,,,,,,,,,,,,,,,,,,,,,,,,,,,,,,,,,,,,
297103,2022-12-05_13h30.52.876,vts_reward_expectancy_bt,2022.2.4,MacIntel,60.0024001,Chrome,1440,900,,,l,0.8673,1,369,1,1,5,17,0,1,1,0,0,0,0,1,0,0,triangle,circle,,,,,,,,,,,,,,,,,,,,,,,,,,,,,,,,,,,,,,,,,,,,,,,,,,,,,,
297103,2022-12-05_13h30.52.876,vts_reward_expectancy_bt,2022.2.4,MacIntel,60.0024001,Chrome,1440,900,,,l,1.3992,10,379,1,1,6,18,4,1,0,1,0,0,0,0,1,0,circle,hexagon,,,,,,,,,,,,,,,,,,,,,,,,,,,,,,,,,,,,,,,,,,,,,,,,,,,,,,
297103,2022-12-05_13h30.52.876,vts_reward_expectancy_bt,2022.2.4,MacIntel,60.0024001,Chrome,1440,900,,,l,1.6065,1,380,1,1,7,19,9,1,0,0,0,1,1,0,0,0,star,triangle,,,,,,,,,,,,,,,,,,,,,,,,,,,,,,,,,,,,,,,,,,,,,,,,,,,,,,
297103,2022-12-05_13h30.52.876,vts_reward_expectancy_bt,2022.2.4,MacIntel,60.0024001,Chrome,1440,900,,,l,4.2732,1,381,1,1,8,20,3,1,0,1,0,0,1,0,0,0,circle,triangle,,,,,,,,,,,,,,,,,,,,,,,,,,,,,,,,,,,,,,,,,,,,,,,,,,,,,,
297103,2022-12-05_13h30.52.876,vts_reward_expectancy_bt,2022.2.4,MacIntel,60.0024001,Chrome,1440,900,,,l,3.4981,10,391,1,1,9,21,11,1,0,0,0,1,0,0,1,0,star,hexagon,,,,,,,,,,,,,,,,,,,,,,,,,,,,,,,,,,,,,,,,,,,,,,,,,,,,,,
297103,2022-12-05_13h30.52.876,vts_reward_expectancy_bt,2022.2.4,MacIntel,60.0024001,Chrome,1440,900,,,l,1.9738,1,392,1,1,10,22,2,1,1,0,0,0,0,0,0,1,triangle,star,,,,,,,,,,,,,,,,,,,,,,,,,,,,,,,,,,,,,,,,,,,,,,,,,,,,,,
297103,2022-12-05_13h30.52.876,vts_reward_expectancy_bt,2022.2.4,MacIntel,60.0024001,Chrome,1440,900,,,l,9.4352,1,393,1,1,11,23,7,1,0,0,1,0,0,1,0,0,hexagon,circle,,,,,,,,,,,,,,,,,,,,,,,,,,,,,,,,,,,,,,,,,,,,,,,,,,,,,,
297103,2022-12-05_13h30.52.876,vts_reward_expectancy_bt,2022.2.4,MacIntel,60.0024001,Chrome,1440,900,,,l,3.2842,10,403,1,2,0,24,11,1,0,0,0,1,0,0,1,0,star,hexagon,,,,,,,,,,,,,,,,,,,,,,,,,,,,,,,,,,,,,,,,,,,,,,,,,,,,,,
297103,2022-12-05_13h30.52.876,vts_reward_expectancy_bt,2022.2.4,MacIntel,60.0024001,Chrome,1440,900,,,l,0.7725,1,404,1,2,1,25,5,1,0,1,0,0,0,0,0,1,circle,star,,,,,,,,,,,,,,,,,,,,,,,,,,,,,,,,,,,,,,,,,,,,,,,,,,,,,,
297103,2022-12-05_13h30.52.876,vts_reward_expectancy_bt,2022.2.4,MacIntel,60.0024001,Chrome,1440,900,,,l,4.7885,1,405,1,2,2,26,1,1,1,0,0,0,0,0,1,0,triangle,hexagon,,,,,,,,,,,,,,,,,,,,,,,,,,,,,,,,,,,,,,,,,,,,,,,,,,,,,,
297103,2022-12-05_13h30.52.876,vts_reward_expectancy_bt,2022.2.4,MacIntel,60.0024001,Chrome,1440,900,,,l,4.5192,10,415,1,2,3,27,10,1,0,0,0,1,0,1,0,0,star ,circle,,,,,,,,,,,,,,,,,,,,,,,,,,,,,,,,,,,,,,,,,,,,,,,,,,,,,,
297103,2022-12-05_13h30.52.876,vts_reward_expectancy_bt,2022.2.4,MacIntel,60.0024001,Chrome,1440,900,,,l,1.5751,1,416,1,2,4,28,6,1,0,0,1,0,1,0,0,0,hexagon,triangle,,,,,,,,,,,,,,,,,,,,,,,,,,,,,,,,,,,,,,,,,,,,,,,,,,,,,,
297103,2022-12-05_13h30.52.876,vts_reward_expectancy_bt,2022.2.4,MacIntel,60.0024001,Chrome,1440,900,,,l,2.7857,1,417,1,2,5,29,8,1,0,0,1,0,0,0,0,1,hexagon,star,,,,,,,,,,,,,,,,,,,,,,,,,,,,,,,,,,,,,,,,,,,,,,,,,,,,,,
297103,2022-12-05_13h30.52.876,vts_reward_expectancy_bt,2022.2.4,MacIntel,60.0024001,Chrome,1440,900,,,l,1.1524,1,418,1,2,6,30,9,1,0,0,0,1,1,0,0,0,star,triangle,,,,,,,,,,,,,,,,,,,,,,,,,,,,,,,,,,,,,,,,,,,,,,,,,,,,,,
297103,2022-12-05_13h30.52.876,vts_reward_expectancy_bt,2022.2.4,MacIntel,60.0024001,Chrome,1440,900,,,l,4.9742,10,428,1,2,7,31,4,1,0,1,0,0,0,0,1,0,circle,hexagon,,,,,,,,,,,,,,,,,,,,,,,,,,,,,,,,,,,,,,,,,,,,,,,,,,,,,,
297103,2022-12-05_13h30.52.876,vts_reward_expectancy_bt,2022.2.4,MacIntel,60.0024001,Chrome,1440,900,,,l,2.9023,10,438,1,2,8,32,7,1,0,0,1,0,0,1,0,0,hexagon,circle,,,,,,,,,,,,,,,,,,,,,,,,,,,,,,,,,,,,,,,,,,,,,,,,,,,,,,
297103,2022-12-05_13h30.52.876,vts_reward_expectancy_bt,2022.2.4,MacIntel,60.0024001,Chrome,1440,900,,,l,3.239,10,448,1,2,9,33,0,1,1,0,0,0,0,1,0,0,triangle,circle,,,,,,,,,,,,,,,,,,,,,,,,,,,,,,,,,,,,,,,,,,,,,,,,,,,,,,
297103,2022-12-05_13h30.52.876,vts_reward_expectancy_bt,2022.2.4,MacIntel,60.0024001,Chrome,1440,900,,,l,5.7848,1,449,1,2,10,34,3,1,0,1,0,0,1,0,0,0,circle,triangle,,,,,,,,,,,,,,,,,,,,,,,,,,,,,,,,,,,,,,,,,,,,,,,,,,,,,,
297103,2022-12-05_13h30.52.876,vts_reward_expectancy_bt,2022.2.4,MacIntel,60.0024001,Chrome,1440,900,,,l,1.3235,1,450,1,2,11,35,2,1,1,0,0,0,0,0,0,1,triangle,star,,,,,,,,,,,,,,,,,,,,,,,,,,,,,,,,,,,,,,,,,,,,,,,,,,,,,,
297103,2022-12-05_13h30.52.876,vts_reward_expectancy_bt,2022.2.4,MacIntel,60.0024001,Chrome,1440,900,,,l,0.8173,1,451,2,0,0,0,3,1,0,1,0,0,1,0,0,0,circle,triangle,,,,,,,,,,,,,,,,,,,,,,,,,,,,,,,,,,,,,,,,,,,,,,,,,,,,,,
297103,2022-12-05_13h30.52.876,vts_reward_expectancy_bt,2022.2.4,MacIntel,60.0024001,Chrome,1440,900,,,a,1.986,1,452,2,0,1,1,10,1,0,0,0,1,0,1,0,0,star ,circle,,,,,,,,,,,,,,,,,,,,,,,,,,,,,,,,,,,,,,,,,,,,,,,,,,,,,,
297103,2022-12-05_13h30.52.876,vts_reward_expectancy_bt,2022.2.4,MacIntel,60.0024001,Chrome,1440,900,,,a,0.5906,1,453,2,0,2,2,1,1,1,0,0,0,0,0,1,0,triangle,hexagon,,,,,,,,,,,,,,,,,,,,,,,,,,,,,,,,,,,,,,,,,,,,,,,,,,,,,,
297103,2022-12-05_13h30.52.876,vts_reward_expectancy_bt,2022.2.4,MacIntel,60.0024001,Chrome,1440,900,,,a,1.4904,1,454,2,0,3,3,6,1,0,0,1,0,1,0,0,0,hexagon,triangle,,,,,,,,,,,,,,,,,,,,,,,,,,,,,,,,,,,,,,,,,,,,,,,,,,,,,,
297103,2022-12-05_13h30.52.876,vts_reward_expectancy_bt,2022.2.4,MacIntel,60.0024001,Chrome,1440,900,,,a,0.412,1,455,2,0,4,4,9,1,0,0,0,1,1,0,0,0,star,triangle,,,,,,,,,,,,,,,,,,,,,,,,,,,,,,,,,,,,,,,,,,,,,,,,,,,,,,
297103,2022-12-05_13h30.52.876,vts_reward_expectancy_bt,2022.2.4,MacIntel,60.0024001,Chrome,1440,900,,,a,0.2325,1,456,2,0,5,5,2,1,1,0,0,0,0,0,0,1,triangle,star,,,,,,,,,,,,,,,,,,,,,,,,,,,,,,,,,,,,,,,,,,,,,,,,,,,,,,
297103,2022-12-05_13h30.52.876,vts_reward_expectancy_bt,2022.2.4,MacIntel,60.0024001,Chrome,1440,900,,,a,2.4502,10,466,2,0,6,6,7,1,0,0,1,0,0,1,0,0,hexagon,circle,,,,,,,,,,,,,,,,,,,,,,,,,,,,,,,,,,,,,,,,,,,,,,,,,,,,,,
297103,2022-12-05_13h30.52.876,vts_reward_expectancy_bt,2022.2.4,MacIntel,60.0024001,Chrome,1440,900,,,a,0.8856,1,467,2,0,7,7,0,1,1,0,0,0,0,1,0,0,triangle,circle,,,,,,,,,,,,,,,,,,,,,,,,,,,,,,,,,,,,,,,,,,,,,,,,,,,,,,
297103,2022-12-05_13h30.52.876,vts_reward_expectancy_bt,2022.2.4,MacIntel,60.0024001,Chrome,1440,900,,,a,0.6994,1,468,2,0,8,8,4,1,0,1,0,0,0,0,1,0,circle,hexagon,,,,,,,,,,,,,,,,,,,,,,,,,,,,,,,,,,,,,,,,,,,,,,,,,,,,,,
297103,2022-12-05_13h30.52.876,vts_reward_expectancy_bt,2022.2.4,MacIntel,60.0024001,Chrome,1440,900,,,a,0.8667,1,469,2,0,9,9,5,1,0,1,0,0,0,0,0,1,circle,star,,,,,,,,,,,,,,,,,,,,,,,,,,,,,,,,,,,,,,,,,,,,,,,,,,,,,,
297103,2022-12-05_13h30.52.876,vts_reward_expectancy_bt,2022.2.4,MacIntel,60.0024001,Chrome,1440,900,,,a,1.7364,10,479,2,0,10,10,8,1,0,0,1,0,0,0,0,1,hexagon,star,,,,,,,,,,,,,,,,,,,,,,,,,,,,,,,,,,,,,,,,,,,,,,,,,,,,,,
297103,2022-12-05_13h30.52.876,vts_reward_expectancy_bt,2022.2.4,MacIntel,60.0024001,Chrome,1440,900,,,a,8.5519,1,480,2,0,11,11,11,1,0,0,0,1,0,0,1,0,star,hexagon,,,,,,,,,,,,,,,,,,,,,,,,,,,,,,,,,,,,,,,,,,,,,,,,,,,,,,
297103,2022-12-05_13h30.52.876,vts_reward_expectancy_bt,2022.2.4,MacIntel,60.0024001,Chrome,1440,900,,,a,1.9182,1,481,2,1,0,12,1,1,1,0,0,0,0,0,1,0,triangle,hexagon,,,,,,,,,,,,,,,,,,,,,,,,,,,,,,,,,,,,,,,,,,,,,,,,,,,,,,
297103,2022-12-05_13h30.52.876,vts_reward_expectancy_bt,2022.2.4,MacIntel,60.0024001,Chrome,1440,900,,,a,0.399,10,491,2,1,1,13,6,1,0,0,1,0,1,0,0,0,hexagon,triangle,,,,,,,,,,,,,,,,,,,,,,,,,,,,,,,,,,,,,,,,,,,,,,,,,,,,,,
297103,2022-12-05_13h30.52.876,vts_reward_expectancy_bt,2022.2.4,MacIntel,60.0024001,Chrome,1440,900,,,a,0.3562,10,501,2,1,2,14,10,1,0,0,0,1,0,1,0,0,star ,circle,,,,,,,,,,,,,,,,,,,,,,,,,,,,,,,,,,,,,,,,,,,,,,,,,,,,,,
297103,2022-12-05_13h30.52.876,vts_reward_expectancy_bt,2022.2.4,MacIntel,60.0024001,Chrome,1440,900,,,a,0.865,10,511,2,1,3,15,4,1,0,1,0,0,0,0,1,0,circle,hexagon,,,,,,,,,,,,,,,,,,,,,,,,,,,,,,,,,,,,,,,,,,,,,,,,,,,,,,
297103,2022-12-05_13h30.52.876,vts_reward_expectancy_bt,2022.2.4,MacIntel,60.0024001,Chrome,1440,900,,,a,1.0484,10,521,2,1,4,16,8,1,0,0,1,0,0,0,0,1,hexagon,star,,,,,,,,,,,,,,,,,,,,,,,,,,,,,,,,,,,,,,,,,,,,,,,,,,,,,,
297103,2022-12-05_13h30.52.876,vts_reward_expectancy_bt,2022.2.4,MacIntel,60.0024001,Chrome,1440,900,,,a,6.8065,1,522,2,1,5,17,11,1,0,0,0,1,0,0,1,0,star,hexagon,,,,,,,,,,,,,,,,,,,,,,,,,,,,,,,,,,,,,,,,,,,,,,,,,,,,,,
297103,2022-12-05_13h30.52.876,vts_reward_expectancy_bt,2022.2.4,MacIntel,60.0024001,Chrome,1440,900,,,a,1.6897,10,532,2,1,6,18,3,1,0,1,0,0,1,0,0,0,circle,triangle,,,,,,,,,,,,,,,,,,,,,,,,,,,,,,,,,,,,,,,,,,,,,,,,,,,,,,
297103,2022-12-05_13h30.52.876,vts_reward_expectancy_bt,2022.2.4,MacIntel,60.0024001,Chrome,1440,900,,,a,0.1164,1,533,2,1,7,19,9,1,0,0,0,1,1,0,0,0,star,triangle,,,,,,,,,,,,,,,,,,,,,,,,,,,,,,,,,,,,,,,,,,,,,,,,,,,,,,
297103,2022-12-05_13h30.52.876,vts_reward_expectancy_bt,2022.2.4,MacIntel,60.0024001,Chrome,1440,900,,,a,0.6828,10,543,2,1,8,20,5,1,0,1,0,0,0,0,0,1,circle,star,,,,,,,,,,,,,,,,,,,,,,,,,,,,,,,,,,,,,,,,,,,,,,,,,,,,,,
297103,2022-12-05_13h30.52.876,vts_reward_expectancy_bt,2022.2.4,MacIntel,60.0024001,Chrome,1440,900,,,l,0.3276,10,553,2,1,9,21,0,1,1,0,0,0,0,1,0,0,triangle,circle,,,,,,,,,,,,,,,,,,,,,,,,,,,,,,,,,,,,,,,,,,,,,,,,,,,,,,
297103,2022-12-05_13h30.52.876,vts_reward_expectancy_bt,2022.2.4,MacIntel,60.0024001,Chrome,1440,900,,,l,0.7838,10,563,2,1,10,22,7,1,0,0,1,0,0,1,0,0,hexagon,circle,,,,,,,,,,,,,,,,,,,,,,,,,,,,,,,,,,,,,,,,,,,,,,,,,,,,,,
297103,2022-12-05_13h30.52.876,vts_reward_expectancy_bt,2022.2.4,MacIntel,60.0024001,Chrome,1440,900,,,l,0.5642,10,573,2,1,11,23,2,1,1,0,0,0,0,0,0,1,triangle,star,,,,,,,,,,,,,,,,,,,,,,,,,,,,,,,,,,,,,,,,,,,,,,,,,,,,,,
297103,2022-12-05_13h30.52.876,vts_reward_expectancy_bt,2022.2.4,MacIntel,60.0024001,Chrome,1440,900,,,l,0.4553,1,574,2,2,0,24,8,1,0,0,1,0,0,0,0,1,hexagon,star,,,,,,,,,,,,,,,,,,,,,,,,,,,,,,,,,,,,,,,,,,,,,,,,,,,,,,
297103,2022-12-05_13h30.52.876,vts_reward_expectancy_bt,2022.2.4,MacIntel,60.0024001,Chrome,1440,900,,,l,0.3491,1,575,2,2,1,25,0,1,1,0,0,0,0,1,0,0,triangle,circle,,,,,,,,,,,,,,,,,,,,,,,,,,,,,,,,,,,,,,,,,,,,,,,,,,,,,,
297103,2022-12-05_13h30.52.876,vts_reward_expectancy_bt,2022.2.4,MacIntel,60.0024001,Chrome,1440,900,,,l,0.3182,1,576,2,2,2,26,6,1,0,0,1,0,1,0,0,0,hexagon,triangle,,,,,,,,,,,,,,,,,,,,,,,,,,,,,,,,,,,,,,,,,,,,,,,,,,,,,,
297103,2022-12-05_13h30.52.876,vts_reward_expectancy_bt,2022.2.4,MacIntel,60.0024001,Chrome,1440,900,,,l,0.3871,10,586,2,2,3,27,7,1,0,0,1,0,0,1,0,0,hexagon,circle,,,,,,,,,,,,,,,,,,,,,,,,,,,,,,,,,,,,,,,,,,,,,,,,,,,,,,
297103,2022-12-05_13h30.52.876,vts_reward_expectancy_bt,2022.2.4,MacIntel,60.0024001,Chrome,1440,900,,,l,0.3656,1,587,2,2,4,28,5,1,0,1,0,0,0,0,0,1,circle,star,,,,,,,,,,,,,,,,,,,,,,,,,,,,,,,,,,,,,,,,,,,,,,,,,,,,,,
297103,2022-12-05_13h30.52.876,vts_reward_expectancy_bt,2022.2.4,MacIntel,60.0024001,Chrome,1440,900,,,l,0.352,1,588,2,2,5,29,9,1,0,0,0,1,1,0,0,0,star,triangle,,,,,,,,,,,,,,,,,,,,,,,,,,,,,,,,,,,,,,,,,,,,,,,,,,,,,,
297103,2022-12-05_13h30.52.876,vts_reward_expectancy_bt,2022.2.4,MacIntel,60.0024001,Chrome,1440,900,,,l,0.3181,1,589,2,2,6,30,3,1,0,1,0,0,1,0,0,0,circle,triangle,,,,,,,,,,,,,,,,,,,,,,,,,,,,,,,,,,,,,,,,,,,,,,,,,,,,,,
297103,2022-12-05_13h30.52.876,vts_reward_expectancy_bt,2022.2.4,MacIntel,60.0024001,Chrome,1440,900,,,l,0.3316,1,590,2,2,7,31,11,1,0,0,0,1,0,0,1,0,star,hexagon,,,,,,,,,,,,,,,,,,,,,,,,,,,,,,,,,,,,,,,,,,,,,,,,,,,,,,
297103,2022-12-05_13h30.52.876,vts_reward_expectancy_bt,2022.2.4,MacIntel,60.0024001,Chrome,1440,900,,,l,0.4518,1,591,2,2,8,32,4,1,0,1,0,0,0,0,1,0,circle,hexagon,,,,,,,,,,,,,,,,,,,,,,,,,,,,,,,,,,,,,,,,,,,,,,,,,,,,,,
297103,2022-12-05_13h30.52.876,vts_reward_expectancy_bt,2022.2.4,MacIntel,60.0024001,Chrome,1440,900,,,l,0.7819,10,601,2,2,9,33,10,1,0,0,0,1,0,1,0,0,star ,circle,,,,,,,,,,,,,,,,,,,,,,,,,,,,,,,,,,,,,,,,,,,,,,,,,,,,,,
297103,2022-12-05_13h30.52.876,vts_reward_expectancy_bt,2022.2.4,MacIntel,60.0024001,Chrome,1440,900,,,l,0.3337,1,602,2,2,10,34,2,1,1,0,0,0,0,0,0,1,triangle,star,,,,,,,,,,,,,,,,,,,,,,,,,,,,,,,,,,,,,,,,,,,,,,,,,,,,,,
297103,2022-12-05_13h30.52.876,vts_reward_expectancy_bt,2022.2.4,MacIntel,60.0024001,Chrome,1440,900,,,l,0.4174,10,612,2,2,11,35,1,1,1,0,0,0,0,0,1,0,triangle,hexagon,,,,,,,,,,,,,,,,,,,,,,,,,,,,,,,,,,,,,,,,,,,,,,,,,,,,,,
297103,2022-12-05_13h30.52.876,vts_reward_expectancy_bt,2022.2.4,MacIntel,60.0024001,Chrome,1440,900,,,,,,,,,,,,,,,,,,,,,,,U,181,triangle,0,0,d,1.9343,0,0,0,0,0,1,,,,,,,,,,,,,,,,,,,,,,,,,,,,,,,,,,,,,,,,,
297103,2022-12-05_13h30.52.876,vts_reward_expectancy_bt,2022.2.4,MacIntel,60.0024001,Chrome,1440,900,,,,,,,,,,,,,,,,,,,,,,,W,125,star,0,1,,,0,1,0,1,0,1,,,,,,,,,,,,,,,,,,,,,,,,,,,,,,,,,,,,,,,,,
297103,2022-12-05_13h30.52.876,vts_reward_expectancy_bt,2022.2.4,MacIntel,60.0024001,Chrome,1440,900,,,,,,,,,,,,,,,,,,,,,,,D,167,hexagon,0,1,f,0.529,0,2,0,2,0,1,,,,,,,,,,,,,,,,,,,,,,,,,,,,,,,,,,,,,,,,,
297103,2022-12-05_13h30.52.876,vts_reward_expectancy_bt,2022.2.4,MacIntel,60.0024001,Chrome,1440,900,,,,,,,,,,,,,,,,,,,,,,,S,139,circle,0,1,d,0.5535,0,3,0,3,0,1,,,,,,,,,,,,,,,,,,,,,,,,,,,,,,,,,,,,,,,,,
297103,2022-12-05_13h30.52.876,vts_reward_expectancy_bt,2022.2.4,MacIntel,60.0024001,Chrome,1440,900,,,,,,,,,,,,,,,,,,,,,,,B,160,triangle,0,1,f,0.5052,0,4,0,4,0,1,,,,,,,,,,,,,,,,,,,,,,,,,,,,,,,,,,,,,,,,,
297103,2022-12-05_13h30.52.876,vts_reward_expectancy_bt,2022.2.4,MacIntel,60.0024001,Chrome,1440,900,,,,,,,,,,,,,,,,,,,,,,,Y,132,star,0,1,d,0.3981,0,5,0,5,0,1,,,,,,,,,,,,,,,,,,,,,,,,,,,,,,,,,,,,,,,,,
297103,2022-12-05_13h30.52.876,vts_reward_expectancy_bt,2022.2.4,MacIntel,60.0024001,Chrome,1440,900,,,,,,,,,,,,,,,,,,,,,,,F,174,hexagon,0,1,f,0.3998,0,6,0,6,0,1,,,,,,,,,,,,,,,,,,,,,,,,,,,,,,,,,,,,,,,,,
297103,2022-12-05_13h30.52.876,vts_reward_expectancy_bt,2022.2.4,MacIntel,60.0024001,Chrome,1440,900,,,,,,,,,,,,,,,,,,,,,,,H,146,circle,1,1,d,0.6865,0,7,0,7,0,1,,,,,,,,,,,,,,,,,,,,,,,,,,,,,,,,,,,,,,,,,
297103,2022-12-05_13h30.52.876,vts_reward_expectancy_bt,2022.2.4,MacIntel,60.0024001,Chrome,1440,900,,,,,,,,,,,,,,,,,,,,,,,U,181,hexagon,1,0,f,0.415,0,8,0,8,0,1,,,,,,,,,,,,,,,,,,,,,,,,,,,,,,,,,,,,,,,,,
297103,2022-12-05_13h30.52.876,vts_reward_expectancy_bt,2022.2.4,MacIntel,60.0024001,Chrome,1440,900,,,,,,,,,,,,,,,,,,,,,,,W,125,circle,1,0,f,0.6376,0,9,0,9,0,1,,,,,,,,,,,,,,,,,,,,,,,,,,,,,,,,,,,,,,,,,
297103,2022-12-05_13h30.52.876,vts_reward_expectancy_bt,2022.2.4,MacIntel,60.0024001,Chrome,1440,900,,,,,,,,,,,,,,,,,,,,,,,H,167,triangle,0,0,,,1,0,0,0,0,1,,,,,,,,,,,,,,,,,,,,,,,,,,,,,,,,,,,,,,,,,
297103,2022-12-05_13h30.52.876,vts_reward_expectancy_bt,2022.2.4,MacIntel,60.0024001,Chrome,1440,900,,,,,,,,,,,,,,,,,,,,,,,Y,160,hexagon,0,1,d,1.1037,1,1,0,1,0,1,,,,,,,,,,,,,,,,,,,,,,,,,,,,,,,,,,,,,,,,,
297103,2022-12-05_13h30.52.876,vts_reward_expectancy_bt,2022.2.4,MacIntel,60.0024001,Chrome,1440,900,,,,,,,,,,,,,,,,,,,,,,,W,125,circle,0,1,,,1,2,0,2,0,1,,,,,,,,,,,,,,,,,,,,,,,,,,,,,,,,,,,,,,,,,
297103,2022-12-05_13h30.52.876,vts_reward_expectancy_bt,2022.2.4,MacIntel,60.0024001,Chrome,1440,900,,,,,,,,,,,,,,,,,,,,,,,U,146,star,0,1,d,0.4477,1,3,0,3,0,1,,,,,,,,,,,,,,,,,,,,,,,,,,,,,,,,,,,,,,,,,
297103,2022-12-05_13h30.52.876,vts_reward_expectancy_bt,2022.2.4,MacIntel,60.0024001,Chrome,1440,900,,,,,,,,,,,,,,,,,,,,,,,B,139,triangle,1,1,d,0.449,1,4,0,4,0,1,,,,,,,,,,,,,,,,,,,,,,,,,,,,,,,,,,,,,,,,,
297103,2022-12-05_13h30.52.876,vts_reward_expectancy_bt,2022.2.4,MacIntel,60.0024001,Chrome,1440,900,,,,,,,,,,,,,,,,,,,,,,,F,181,hexagon,0,0,f,0.7794,1,5,0,5,0,1,,,,,,,,,,,,,,,,,,,,,,,,,,,,,,,,,,,,,,,,,
297103,2022-12-05_13h30.52.876,vts_reward_expectancy_bt,2022.2.4,MacIntel,60.0024001,Chrome,1440,900,,,,,,,,,,,,,,,,,,,,,,,S,132,circle,1,1,f,0.8375,1,6,0,6,0,1,,,,,,,,,,,,,,,,,,,,,,,,,,,,,,,,,,,,,,,,,
297103,2022-12-05_13h30.52.876,vts_reward_expectancy_bt,2022.2.4,MacIntel,60.0024001,Chrome,1440,900,,,,,,,,,,,,,,,,,,,,,,,D,174,star,1,0,d,0.732,1,7,0,7,0,1,,,,,,,,,,,,,,,,,,,,,,,,,,,,,,,,,,,,,,,,,
297103,2022-12-05_13h30.52.876,vts_reward_expectancy_bt,2022.2.4,MacIntel,60.0024001,Chrome,1440,900,,,,,,,,,,,,,,,,,,,,,,,H,167,star,1,0,d,0.9778,1,8,0,8,0,1,,,,,,,,,,,,,,,,,,,,,,,,,,,,,,,,,,,,,,,,,
297103,2022-12-05_13h30.52.876,vts_reward_expectancy_bt,2022.2.4,MacIntel,60.0024001,Chrome,1440,900,,,,,,,,,,,,,,,,,,,,,,,Y,160,circle,1,0,f,0.8152,1,9,0,9,0,1,,,,,,,,,,,,,,,,,,,,,,,,,,,,,,,,,,,,,,,,,
297103,2022-12-05_13h30.52.876,vts_reward_expectancy_bt,2022.2.4,MacIntel,60.0024001,Chrome,1440,900,,,,,,,,,,,,,,,,,,,,,,,D,125,triangle,1,0,d,0.9467,2,0,0,0,0,1,,,,,,,,,,,,,,,,,,,,,,,,,,,,,,,,,,,,,,,,,
297103,2022-12-05_13h30.52.876,vts_reward_expectancy_bt,2022.2.4,MacIntel,60.0024001,Chrome,1440,900,,,,,,,,,,,,,,,,,,,,,,,B,132,hexagon,1,0,d,0.6981,2,1,0,1,0,1,,,,,,,,,,,,,,,,,,,,,,,,,,,,,,,,,,,,,,,,,
297103,2022-12-05_13h30.52.876,vts_reward_expectancy_bt,2022.2.4,MacIntel,60.0024001,Chrome,1440,900,,,,,,,,,,,,,,,,,,,,,,,Y,181,circle,1,0,f,0.6871,2,2,0,2,0,1,,,,,,,,,,,,,,,,,,,,,,,,,,,,,,,,,,,,,,,,,
297103,2022-12-05_13h30.52.876,vts_reward_expectancy_bt,2022.2.4,MacIntel,60.0024001,Chrome,1440,900,,,,,,,,,,,,,,,,,,,,,,,W,174,star,1,0,f,0.8291,2,3,0,3,0,1,,,,,,,,,,,,,,,,,,,,,,,,,,,,,,,,,,,,,,,,,
297103,2022-12-05_13h30.52.876,vts_reward_expectancy_bt,2022.2.4,MacIntel,60.0024001,Chrome,1440,900,,,,,,,,,,,,,,,,,,,,,,,F,167,triangle,1,0,d,1.1819,2,4,0,4,0,1,,,,,,,,,,,,,,,,,,,,,,,,,,,,,,,,,,,,,,,,,
297103,2022-12-05_13h30.52.876,vts_reward_expectancy_bt,2022.2.4,MacIntel,60.0024001,Chrome,1440,900,,,,,,,,,,,,,,,,,,,,,,,U,139,hexagon,1,0,f,0.6673,2,5,0,5,0,1,,,,,,,,,,,,,,,,,,,,,,,,,,,,,,,,,,,,,,,,,
297103,2022-12-05_13h30.52.876,vts_reward_expectancy_bt,2022.2.4,MacIntel,60.0024001,Chrome,1440,900,,,,,,,,,,,,,,,,,,,,,,,H,146,circle,1,0,d,0.8986,2,6,0,6,0,1,,,,,,,,,,,,,,,,,,,,,,,,,,,,,,,,,,,,,,,,,
297103,2022-12-05_13h30.52.876,vts_reward_expectancy_bt,2022.2.4,MacIntel,60.0024001,Chrome,1440,900,,,,,,,,,,,,,,,,,,,,,,,S,160,star,1,0,f,2.1316,2,7,0,7,0,1,,,,,,,,,,,,,,,,,,,,,,,,,,,,,,,,,,,,,,,,,
297103,2022-12-05_13h30.52.876,vts_reward_expectancy_bt,2022.2.4,MacIntel,60.0024001,Chrome,1440,900,,,,,,,,,,,,,,,,,,,,,,,D,125,star,1,0,d,0.7123,2,8,0,8,0,1,,,,,,,,,,,,,,,,,,,,,,,,,,,,,,,,,,,,,,,,,
297103,2022-12-05_13h30.52.876,vts_reward_expectancy_bt,2022.2.4,MacIntel,60.0024001,Chrome,1440,900,,,,,,,,,,,,,,,,,,,,,,,B,132,hexagon,1,0,d,0.7817,2,9,0,9,0,1,,,,,,,,,,,,,,,,,,,,,,,,,,,,,,,,,,,,,,,,,
297103,2022-12-05_13h30.52.876,vts_reward_expectancy_bt,2022.2.4,MacIntel,60.0024001,Chrome,1440,900,,,,,,,,,,,,,,,,,,,,,,,S,125,star,1,0,,,3,,,,,,j,1.4126,0,0,0,0,1,,,,,,,,,,,,,,,,,,,,,,,,,,,,,,,,,,
297103,2022-12-05_13h30.52.876,vts_reward_expectancy_bt,2022.2.4,MacIntel,60.0024001,Chrome,1440,900,,,,,,,,,,,,,,,,,,,,,,,D,167,hexagon,1,0,,,3,,,,,,k,0.8307,1,0,1,0,1,,,,,,,,,,,,,,,,,,,,,,,,,,,,,,,,,,
297103,2022-12-05_13h30.52.876,vts_reward_expectancy_bt,2022.2.4,MacIntel,60.0024001,Chrome,1440,900,,,,,,,,,,,,,,,,,,,,,,,H,132,circle,1,0,,,3,,,,,,j,1.13,2,0,2,0,1,,,,,,,,,,,,,,,,,,,,,,,,,,,,,,,,,,
297103,2022-12-05_13h30.52.876,vts_reward_expectancy_bt,2022.2.4,MacIntel,60.0024001,Chrome,1440,900,,,,,,,,,,,,,,,,,,,,,,,B,181,triangle,1,0,,,3,,,,,,k,1.5812,3,0,3,0,1,,,,,,,,,,,,,,,,,,,,,,,,,,,,,,,,,,
297103,2022-12-05_13h30.52.876,vts_reward_expectancy_bt,2022.2.4,MacIntel,60.0024001,Chrome,1440,900,,,,,,,,,,,,,,,,,,,,,,,Y,174,star,1,0,,,3,,,,,,k,0.9642,4,0,4,0,1,,,,,,,,,,,,,,,,,,,,,,,,,,,,,,,,,,
297103,2022-12-05_13h30.52.876,vts_reward_expectancy_bt,2022.2.4,MacIntel,60.0024001,Chrome,1440,900,,,,,,,,,,,,,,,,,,,,,,,U,139,hexagon,1,0,,,3,,,,,,j,1.8143,5,0,5,0,1,,,,,,,,,,,,,,,,,,,,,,,,,,,,,,,,,,
297103,2022-12-05_13h30.52.876,vts_reward_expectancy_bt,2022.2.4,MacIntel,60.0024001,Chrome,1440,900,,,,,,,,,,,,,,,,,,,,,,,W,160,circle,1,0,,,3,,,,,,k,1.0655,6,0,6,0,1,,,,,,,,,,,,,,,,,,,,,,,,,,,,,,,,,,
297103,2022-12-05_13h30.52.876,vts_reward_expectancy_bt,2022.2.4,MacIntel,60.0024001,Chrome,1440,900,,,,,,,,,,,,,,,,,,,,,,,F,146,triangle,1,0,,,3,,,,,,j,2.3682,7,0,7,0,1,,,,,,,,,,,,,,,,,,,,,,,,,,,,,,,,,,
297103,2022-12-05_13h30.52.876,vts_reward_expectancy_bt,2022.2.4,MacIntel,60.0024001,Chrome,1440,900,,,,,,,,,,,,,,,,,,,,,,,S,125,triangle,1,0,,,3,,,,,,j,0.8146,8,0,8,0,1,,,,,,,,,,,,,,,,,,,,,,,,,,,,,,,,,,
297103,2022-12-05_13h30.52.876,vts_reward_expectancy_bt,2022.2.4,MacIntel,60.0024001,Chrome,1440,900,,,,,,,,,,,,,,,,,,,,,,,D,167,hexagon,1,0,,,3,,,,,,k,1.67,9,0,9,0,1,,,,,,,,,,,,,,,,,,,,,,,,,,,,,,,,,,
297103,2022-12-05_13h30.52.876,vts_reward_expectancy_bt,2022.2.4,MacIntel,60.0024001,Chrome,1440,900,,,,,0,612,,,,,,,,,,,,,,,,,U,181,triangle,1,0,,,4,,,,,,,,,,,,,-1,number,NA,k,1.9007,vtsPrac,0,0,0,0,1,,,,,,,,,,,,,,,,,,,,,,,
297103,2022-12-05_13h30.52.876,vts_reward_expectancy_bt,2022.2.4,MacIntel,60.0024001,Chrome,1440,900,,,,,0,612,,,,,,,,,,,,,,,,,Y,132,circle,1,0,,,4,,,,,,,,,,,,,repeat,number,numRpt,j,1.1792,vtsPrac,1,0,1,0,1,,,,,,,,,,,,,,,,,,,,,,,
297103,2022-12-05_13h30.52.876,vts_reward_expectancy_bt,2022.2.4,MacIntel,60.0024001,Chrome,1440,900,,,,,0,612,,,,,,,,,,,,,,,,,S,174,triangle,1,0,,,4,,,,,,,,,,,,,switch,letter,lettSwt,f,0.8975,vtsPrac,2,0,2,0,1,,,,,,,,,,,,,,,,,,,,,,,
297103,2022-12-05_13h30.52.876,vts_reward_expectancy_bt,2022.2.4,MacIntel,60.0024001,Chrome,1440,900,,,,,0,612,,,,,,,,,,,,,,,,,W,146,circle,1,0,,,4,,,,,,,,,,,,,repeat,letter,lettRpt,f,1.0501,vtsPrac,3,0,3,0,1,,,,,,,,,,,,,,,,,,,,,,,
297103,2022-12-05_13h30.52.876,vts_reward_expectancy_bt,2022.2.4,MacIntel,60.0024001,Chrome,1440,900,,,,,0,612,,,,,,,,,,,,,,,,,U,181,hexagon,1,0,,,4,,,,,,,,,,,,,repeat,letter,lettRpt,f,0.8137,vtsPrac,4,0,4,0,1,,,,,,,,,,,,,,,,,,,,,,,
297103,2022-12-05_13h30.52.876,vts_reward_expectancy_bt,2022.2.4,MacIntel,60.0024001,Chrome,1440,900,,,,,0,612,,,,,,,,,,,,,,,,,Y,132,triangle,1,0,,,4,,,,,,,,,,,,,repeat,letter,lettRpt,f,0.6152,vtsPrac,5,0,5,0,1,,,,,,,,,,,,,,,,,,,,,,,
297103,2022-12-05_13h30.52.876,vts_reward_expectancy_bt,2022.2.4,MacIntel,60.0024001,Chrome,1440,900,,,,,0,612,,,,,,,,,,,,,,,,,S,174,circle,1,0,,,4,,,,,,,,,,,,,switch,number,numSwt,k,1.1368,vtsPrac,6,0,6,0,1,,,,,,,,,,,,,,,,,,,,,,,
297103,2022-12-05_13h30.52.876,vts_reward_expectancy_bt,2022.2.4,MacIntel,60.0024001,Chrome,1440,900,,,,,0,612,,,,,,,,,,,,,,,,,W,146,star,1,0,,,4,,,,,,,,,,,,,repeat,number,numRpt,j,0.9182,vtsPrac,7,0,7,0,1,,,,,,,,,,,,,,,,,,,,,,,
297103,2022-12-05_13h30.52.876,vts_reward_expectancy_bt,2022.2.4,MacIntel,60.0024001,Chrome,1440,900,,,,,0,612,,,,,,,,,,,,,,,,,H,160,star,1,0,,,4,,,,,,,,,,,,,repeat,number,numRpt,k,1.0457,vtsPrac,8,0,8,0,1,,,,,,,,,,,,,,,,,,,,,,,
297103,2022-12-05_13h30.52.876,vts_reward_expectancy_bt,2022.2.4,MacIntel,60.0024001,Chrome,1440,900,,,,,0,612,,,,,,,,,,,,,,,,,Y,132,hexagon,1,0,,,4,,,,,,,,,,,,,switch,letter,lettSwt,f,0.8813,vtsPrac,9,0,9,0,1,,,,,,,,,,,,,,,,,,,,,,,
297103,2022-12-05_13h30.52.876,vts_reward_expectancy_bt,2022.2.4,MacIntel,60.0024001,Chrome,1440,900,,,,,0,612,,,,,,,,,,,,,,,,,W,146,circle,1,0,,,4,,,,,,,,,,,,,switch,number,numSwt,j,1.232,vtsPrac,10,0,10,0,1,,,,,,,,,,,,,,,,,,,,,,,
297103,2022-12-05_13h30.52.876,vts_reward_expectancy_bt,2022.2.4,MacIntel,60.0024001,Chrome,1440,900,,,,,0,612,,,,,,,,,,,,,,,,,B,125,triangle,1,0,,,4,,,,,,,,,,,,,repeat,number,numRpt,j,0.6383,vtsPrac,11,0,11,0,1,,,,,,,,,,,,,,,,,,,,,,,
297103,2022-12-05_13h30.52.876,vts_reward_expectancy_bt,2022.2.4,MacIntel,60.0024001,Chrome,1440,900,,,,,0,612,,,,,,,,,,,,,,,,,H,181,star,1,0,,,4,,,,,,,,,,,,,repeat,number,numRpt,k,0.7287,vtsPrac,12,0,12,0,1,,,,,,,,,,,,,,,,,,,,,,,
297103,2022-12-05_13h30.52.876,vts_reward_expectancy_bt,2022.2.4,MacIntel,60.0024001,Chrome,1440,900,,,,,0,612,,,,,,,,,,,,,,,,,U,174,triangle,1,0,,,4,,,,,,,,,,,,,repeat,number,numRpt,k,0.8218,vtsPrac,13,0,13,0,1,,,,,,,,,,,,,,,,,,,,,,,
297103,2022-12-05_13h30.52.876,vts_reward_expectancy_bt,2022.2.4,MacIntel,60.0024001,Chrome,1440,900,,,,,0,612,,,,,,,,,,,,,,,,,S,160,hexagon,1,0,,,4,,,,,,,,,,,,,repeat,number,numRpt,k,0.6802,vtsPrac,14,0,14,0,1,,,,,,,,,,,,,,,,,,,,,,,
297103,2022-12-05_13h30.52.876,vts_reward_expectancy_bt,2022.2.4,MacIntel,60.0024001,Chrome,1440,900,,,,,0,612,,,,,,,,,,,,,,,,,Y,139,star,1,0,,,4,,,,,,,,,,,,,repeat,number,numRpt,j,2.5137,vtsPrac,15,0,15,0,1,,,,,,,,,,,,,,,,,,,,,,,
297103,2022-12-05_13h30.52.876,vts_reward_expectancy_bt,2022.2.4,MacIntel,60.0024001,Chrome,1440,900,,,,,0,612,,,,,,,,,,,,,,,,,B,139,triangle,1,0,,,4,,,,,,,,,,,,,switch,letter,lettSwt,d,0.536,vtsPrac,16,0,16,0,1,,,,,,,,,,,,,,,,,,,,,,,
297103,2022-12-05_13h30.52.876,vts_reward_expectancy_bt,2022.2.4,MacIntel,60.0024001,Chrome,1440,900,,,,,0,612,,,,,,,,,,,,,,,,,H,160,circle,1,0,,,4,,,,,,,,,,,,,repeat,letter,lettRpt,d,0.7953,vtsPrac,17,0,17,0,1,,,,,,,,,,,,,,,,,,,,,,,
297103,2022-12-05_13h30.52.876,vts_reward_expectancy_bt,2022.2.4,MacIntel,60.0024001,Chrome,1440,900,,,,,0,612,,,,,,,,,,,,,,,,,W,181,hexagon,1,0,,,4,,,,,,,,,,,,,repeat,letter,lettRpt,f,0.6648,vtsPrac,18,0,18,0,1,,,,,,,,,,,,,,,,,,,,,,,
297103,2022-12-05_13h30.52.876,vts_reward_expectancy_bt,2022.2.4,MacIntel,60.0024001,Chrome,1440,900,,,,,0,612,,,,,,,,,,,,,,,,,S,146,star,1,0,,,4,,,,,,,,,,,,,repeat,letter,lettRpt,f,0.8846,vtsPrac,19,0,19,0,1,,,,,,,,,,,,,,,,,,,,,,,
297103,2022-12-05_13h30.52.876,vts_reward_expectancy_bt,2022.2.4,MacIntel,60.0024001,Chrome,1440,900,,,,,0,612,,,,,,,,,,,,,,,,,W,125,star,1,0,,,4,,,,,,,,,,,,,repeat,letter,lettRpt,f,0.4783,vtsPrac,20,0,20,0,1,,,,,,,,,,,,,,,,,,,,,,,
297103,2022-12-05_13h30.52.876,vts_reward_expectancy_bt,2022.2.4,MacIntel,60.0024001,Chrome,1440,900,,,,,0,612,,,,,,,,,,,,,,,,,U,160,triangle,1,0,,,4,,,,,,,,,,,,,repeat,letter,lettRpt,f,0.7153,vtsPrac,21,0,21,0,1,,,,,,,,,,,,,,,,,,,,,,,
297103,2022-12-05_13h30.52.876,vts_reward_expectancy_bt,2022.2.4,MacIntel,60.0024001,Chrome,1440,900,,,,,0,612,,,,,,,,,,,,,,,,,B,146,star,1,0,,,4,,,,,,,,,,,,,switch,number,numSwt,j,0.5985,vtsPrac,22,0,22,0,1,,,,,,,,,,,,,,,,,,,,,,,
297103,2022-12-05_13h30.52.876,vts_reward_expectancy_bt,2022.2.4,MacIntel,60.0024001,Chrome,1440,900,,,,,0,612,,,,,,,,,,,,,,,,,Y,132,circle,1,0,,,4,,,,,,,,,,,,,repeat,number,numRpt,j,1.2648,vtsPrac,23,0,23,0,1,,,,,,,,,,,,,,,,,,,,,,,
297103,2022-12-05_13h30.52.876,vts_reward_expectancy_bt,2022.2.4,MacIntel,60.0024001,Chrome,1440,900,,,,,0,612,,,,,,,,,,,,,,,,,W,139,star,1,0,,,4,,,,,,,,,,,,,switch,letter,lettSwt,f,0.7632,vtsPrac,24,0,24,0,1,,,,,,,,,,,,,,,,,,,,,,,
297103,2022-12-05_13h30.52.876,vts_reward_expectancy_bt,2022.2.4,MacIntel,60.0024001,Chrome,1440,900,,,,,0,612,,,,,,,,,,,,,,,,,B,125,circle,1,0,,,4,,,,,,,,,,,,,repeat,letter,lettRpt,d,0.6858,vtsPrac,25,0,25,0,1,,,,,,,,,,,,,,,,,,,,,,,
297103,2022-12-05_13h30.52.876,vts_reward_expectancy_bt,2022.2.4,MacIntel,60.0024001,Chrome,1440,900,,,,,0,612,,,,,,,,,,,,,,,,,S,146,hexagon,1,0,,,4,,,,,,,,,,,,,switch,number,numSwt,j,0.7842,vtsPrac,26,0,26,0,1,,,,,,,,,,,,,,,,,,,,,,,
297103,2022-12-05_13h30.52.876,vts_reward_expectancy_bt,2022.2.4,MacIntel,60.0024001,Chrome,1440,900,,,,,0,612,,,,,,,,,,,,,,,,,H,181,star,1,0,,,4,,,,,,,,,,,,,repeat,number,numRpt,k,0.5983,vtsPrac,27,0,27,0,1,,,,,,,,,,,,,,,,,,,,,,,
297103,2022-12-05_13h30.52.876,vts_reward_expectancy_bt,2022.2.4,MacIntel,60.0024001,Chrome,1440,900,,,,,0,612,,,,,,,,,,,,,,,,,H,139,star,1,0,,,4,,,,,,,,,,,,,repeat,number,numRpt,j,1.2989,vtsPrac,28,0,28,0,1,,,,,,,,,,,,,,,,,,,,,,,
297103,2022-12-05_13h30.52.876,vts_reward_expectancy_bt,2022.2.4,MacIntel,60.0024001,Chrome,1440,900,,,,,0,612,,,,,,,,,,,,,,,,,D,167,triangle,1,0,,,4,,,,,,,,,,,,,repeat,number,numRpt,k,0.8976,vtsPrac,29,0,29,0,1,,,,,,,,,,,,,,,,,,,,,,,
297103,2022-12-05_13h30.52.876,vts_reward_expectancy_bt,2022.2.4,MacIntel,60.0024001,Chrome,1440,900,,,,,0,612,,,,,,,,,,,,,,,,,Y,132,hexagon,1,0,,,4,,,,,,,,,,,,,switch,letter,lettSwt,f,0.9312,vtsPrac,30,0,30,0,1,,,,,,,,,,,,,,,,,,,,,,,
297103,2022-12-05_13h30.52.876,vts_reward_expectancy_bt,2022.2.4,MacIntel,60.0024001,Chrome,1440,900,,,,,0,612,,,,,,,,,,,,,,,,,B,174,circle,1,0,,,4,,,,,,,,,,,,,switch,number,numSwt,k,0.5976,vtsPrac,31,0,31,0,1,,,,,,,,,,,,,,,,,,,,,,,
297103,2022-12-05_13h30.52.876,vts_reward_expectancy_bt,2022.2.4,MacIntel,60.0024001,Chrome,1440,900,,,,,,,,,,,,,,,,,,,,,,,,,,,,,,,,,,,,,,,,,,,,,,,,,,,,,,,,,,,,,,,,,,,,,,,,,,,,
297103,2022-12-05_13h30.52.876,vts_reward_expectancy_bt,2022.2.4,MacIntel,60.0024001,Chrome,1440,900,,,,,,,,,,,,,,,,,,,,,,,,,,,,,,,,,,,,,,,,,,,,,,,,,,,,,,,,,,,,,,,,,,,,,,,,,,,,
297103,2022-12-05_13h30.52.876,vts_reward_expectancy_bt,2022.2.4,MacIntel,60.0024001,Chrome,1440,900,,,,,0,612,,,,,,,,,,,,,,,,,Y,174,triangle,1,0,,,,,,,,,,,,,,,,repeat,number,numRpt,k,0.849,noRew,,,,,,0,0,0,0,0,1,,,,,,,,,,,,,,,,,
297103,2022-12-05_13h30.52.876,vts_reward_expectancy_bt,2022.2.4,MacIntel,60.0024001,Chrome,1440,900,,,,,0,612,,,,,,,,,,,,,,,,,U,160,star,1,0,,,,,,,,,,,,,,,,repeat,number,numRpt,k,0.6968,noRew,,,,,,0,1,0,1,0,1,,,,,,,,,,,,,,,,,
297103,2022-12-05_13h30.52.876,vts_reward_expectancy_bt,2022.2.4,MacIntel,60.0024001,Chrome,1440,900,,,,,0,612,,,,,,,,,,,,,,,,,B,125,triangle,1,0,,,,,,,,,,,,,,,,switch,letter,lettSwt,d,0.88,noRew,,,,,,0,2,0,2,0,1,,,,,,,,,,,,,,,,,
297103,2022-12-05_13h30.52.876,vts_reward_expectancy_bt,2022.2.4,MacIntel,60.0024001,Chrome,1440,900,,,,,0,612,,,,,,,,,,,,,,,,,H,167,star,1,0,,,,,,,,,,,,,,,,repeat,letter,lettRpt,d,1.05,noRew,,,,,,0,3,0,3,0,1,,,,,,,,,,,,,,,,,
297103,2022-12-05_13h30.52.876,vts_reward_expectancy_bt,2022.2.4,MacIntel,60.0024001,Chrome,1440,900,,,,,0,612,,,,,,,,,,,,,,,,,Y,174,circle,1,0,,,,,,,,,,,,,,,,repeat,letter,lettRpt,f,0.9981,noRew,,,,,,0,4,0,4,0,1,,,,,,,,,,,,,,,,,
297103,2022-12-05_13h30.52.876,vts_reward_expectancy_bt,2022.2.4,MacIntel,60.0024001,Chrome,1440,900,,,,,0,612,,,,,,,,,,,,,,,,,U,160,star,1,0,,,,,,,,,,,,,,,,repeat,letter,lettRpt,f,0.5982,noRew,,,,,,0,5,0,5,0,1,,,,,,,,,,,,,,,,,
297103,2022-12-05_13h30.52.876,vts_reward_expectancy_bt,2022.2.4,MacIntel,60.0024001,Chrome,1440,900,,,,,0,612,,,,,,,,,,,,,,,,,B,125,star,1,0,,,,,,,,,,,,,,,,repeat,letter,lettRpt,d,0.637,noRew,,,,,,0,6,0,6,0,1,,,,,,,,,,,,,,,,,
297103,2022-12-05_13h30.52.876,vts_reward_expectancy_bt,2022.2.4,MacIntel,60.0024001,Chrome,1440,900,,,,,0,612,,,,,,,,,,,,,,,,,H,167,hexagon,1,0,,,,,,,,,,,,,,,,repeat,letter,lettRpt,d,0.7484,noRew,,,,,,0,7,0,7,0,1,,,,,,,,,,,,,,,,,
297103,2022-12-05_13h30.52.876,vts_reward_expectancy_bt,2022.2.4,MacIntel,60.0024001,Chrome,1440,900,,,,,0,612,,,,,,,,,,,,,,,,,F,139,hexagon,1,0,,,,,,,,,,,,,,,,repeat,letter,lettRpt,d,0.5645,noRew,,,,,,0,8,0,8,0,1,,,,,,,,,,,,,,,,,
297103,2022-12-05_13h30.52.876,vts_reward_expectancy_bt,2022.2.4,MacIntel,60.0024001,Chrome,1440,900,,,,,0,612,,,,,,,,,,,,,,,,,Y,160,star,1,0,,,,,,,,,,,,,,,,repeat,letter,lettRpt,f,0.7503,noRew,,,,,,0,9,0,9,0,1,,,,,,,,,,,,,,,,,
297103,2022-12-05_13h30.52.876,vts_reward_expectancy_bt,2022.2.4,MacIntel,60.0024001,Chrome,1440,900,,,,,0,612,,,,,,,,,,,,,,,,,D,167,hexagon,1,0,,,,,,,,,,,,,,,,repeat,letter,lettRpt,d,0.8202,noRew,,,,,,0,10,0,10,0,1,,,,,,,,,,,,,,,,,
297103,2022-12-05_13h30.52.876,vts_reward_expectancy_bt,2022.2.4,MacIntel,60.0024001,Chrome,1440,900,,,,,0,612,,,,,,,,,,,,,,,,,H,181,star,1,0,,,,,,,,,,,,,,,,switch,number,numSwt,k,0.5186,noRew,,,,,,0,11,0,11,0,1,,,,,,,,,,,,,,,,,
297103,2022-12-05_13h30.52.876,vts_reward_expectancy_bt,2022.2.4,MacIntel,60.0024001,Chrome,1440,900,,,,,0,612,,,,,,,,,,,,,,,,,Y,174,circle,1,0,,,,,,,,,,,,,,,,repeat,number,numRpt,k,0.7316,noRew,,,,,,0,12,0,12,0,1,,,,,,,,,,,,,,,,,
297103,2022-12-05_13h30.52.876,vts_reward_expectancy_bt,2022.2.4,MacIntel,60.0024001,Chrome,1440,900,,,,,0,612,,,,,,,,,,,,,,,,,S,146,triangle,1,0,,,,,,,,,,,,,,,,repeat,number,numRpt,j,0.9037,noRew,,,,,,0,13,0,13,0,1,,,,,,,,,,,,,,,,,
297103,2022-12-05_13h30.52.876,vts_reward_expectancy_bt,2022.2.4,MacIntel,60.0024001,Chrome,1440,900,,,,,0,612,,,,,,,,,,,,,,,,,U,167,triangle,1,0,,,,,,,,,,,,,,,,switch,letter,lettSwt,f,0.8294,noRew,,,,,,0,14,0,14,0,1,,,,,,,,,,,,,,,,,
297103,2022-12-05_13h30.52.876,vts_reward_expectancy_bt,2022.2.4,MacIntel,60.0024001,Chrome,1440,900,,,,,0,612,,,,,,,,,,,,,,,,,F,160,circle,1,0,,,,,,,,,,,,,,,,switch,number,numSwt,k,0.5962,noRew,,,,,,0,15,0,15,0,1,,,,,,,,,,,,,,,,,
297103,2022-12-05_13h30.52.876,vts_reward_expectancy_bt,2022.2.4,MacIntel,60.0024001,Chrome,1440,900,,,,,0,612,,,,,,,,,,,,,,,,,H,132,circle,1,0,,,,,,,,,,,,,,,,repeat,number,numRpt,j,1.1299,noRew,,,,,,0,16,0,16,0,1,,,,,,,,,,,,,,,,,
297103,2022-12-05_13h30.52.876,vts_reward_expectancy_bt,2022.2.4,MacIntel,60.0024001,Chrome,1440,900,,,,,0,612,,,,,,,,,,,,,,,,,D,160,triangle,1,0,,,,,,,,,,,,,,,,switch,letter,lettSwt,d,0.6487,noRew,,,,,,0,17,0,17,0,1,,,,,,,,,,,,,,,,,
297103,2022-12-05_13h30.52.876,vts_reward_expectancy_bt,2022.2.4,MacIntel,60.0024001,Chrome,1440,900,,,,,0,612,,,,,,,,,,,,,,,,,Y,139,triangle,1,0,,,,,,,,,,,,,,,,repeat,letter,lettRpt,f,0.7479,noRew,,,,,,0,18,0,18,0,1,,,,,,,,,,,,,,,,,
297103,2022-12-05_13h30.52.876,vts_reward_expectancy_bt,2022.2.4,MacIntel,60.0024001,Chrome,1440,900,,,,,0,612,,,,,,,,,,,,,,,,,W,167,circle,1,0,,,,,,,,,,,,,,,,repeat,letter,lettRpt,f,0.593,noRew,,,,,,0,19,0,19,0,1,,,,,,,,,,,,,,,,,
297103,2022-12-05_13h30.52.876,vts_reward_expectancy_bt,2022.2.4,MacIntel,60.0024001,Chrome,1440,900,,,,,0,612,,,,,,,,,,,,,,,,,D,160,triangle,1,0,,,,,,,,,,,,,,,,switch,number,numSwt,k,0.5974,noRew,,,,,,0,20,0,20,0,1,,,,,,,,,,,,,,,,,
297103,2022-12-05_13h30.52.876,vts_reward_expectancy_bt,2022.2.4,MacIntel,60.0024001,Chrome,1440,900,,,,,0,612,,,,,,,,,,,,,,,,,U,181,circle,1,0,,,,,,,,,,,,,,,,repeat,number,numRpt,k,0.7294,noRew,,,,,,0,21,0,21,0,1,,,,,,,,,,,,,,,,,
297103,2022-12-05_13h30.52.876,vts_reward_expectancy_bt,2022.2.4,MacIntel,60.0024001,Chrome,1440,900,,,,,0,612,,,,,,,,,,,,,,,,,Y,174,triangle,1,0,,,,,,,,,,,,,,,,repeat,number,numRpt,k,0.5151,noRew,,,,,,0,22,0,22,0,1,,,,,,,,,,,,,,,,,
297103,2022-12-05_13h30.52.876,vts_reward_expectancy_bt,2022.2.4,MacIntel,60.0024001,Chrome,1440,900,,,,,0,612,,,,,,,,,,,,,,,,,W,146,star,1,0,,,,,,,,,,,,,,,,repeat,number,numRpt,j,0.9478,noRew,,,,,,0,23,0,23,0,1,,,,,,,,,,,,,,,,,
297103,2022-12-05_13h30.52.876,vts_reward_expectancy_bt,2022.2.4,MacIntel,60.0024001,Chrome,1440,900,,,,,0,612,,,,,,,,,,,,,,,,,B,174,circle,1,0,,,,,,,,,,,,,,,,repeat,number,numRpt,k,0.5956,noRew,,,,,,0,24,0,24,0,1,,,,,,,,,,,,,,,,,
297103,2022-12-05_13h30.52.876,vts_reward_expectancy_bt,2022.2.4,MacIntel,60.0024001,Chrome,1440,900,,,,,0,612,,,,,,,,,,,,,,,,,H,181,hexagon,1,0,,,,,,,,,,,,,,,,repeat,number,numRpt,k,2.5951,noRew,,,,,,0,25,0,25,0,1,,,,,,,,,,,,,,,,,
297103,2022-12-05_13h30.52.876,vts_reward_expectancy_bt,2022.2.4,MacIntel,60.0024001,Chrome,1440,900,,,,,0,612,,,,,,,,,,,,,,,,,Y,139,circle,1,0,,,,,,,,,,,,,,,,repeat,number,numRpt,j,1.3756,noRew,,,,,,0,26,0,26,0,1,,,,,,,,,,,,,,,,,
297103,2022-12-05_13h30.52.876,vts_reward_expectancy_bt,2022.2.4,MacIntel,60.0024001,Chrome,1440,900,,,,,0,612,,,,,,,,,,,,,,,,,F,167,triangle,1,0,,,,,,,,,,,,,,,,repeat,number,numRpt,k,1.1133,noRew,,,,,,0,27,0,27,0,1,,,,,,,,,,,,,,,,,
297103,2022-12-05_13h30.52.876,vts_reward_expectancy_bt,2022.2.4,MacIntel,60.0024001,Chrome,1440,900,,,,,0,612,,,,,,,,,,,,,,,,,S,160,star,1,0,,,,,,,,,,,,,,,,repeat,number,numRpt,k,0.7129,noRew,,,,,,0,28,0,28,0,1,,,,,,,,,,,,,,,,,
297103,2022-12-05_13h30.52.876,vts_reward_expectancy_bt,2022.2.4,MacIntel,60.0024001,Chrome,1440,900,,,,,0,612,,,,,,,,,,,,,,,,,U,125,hexagon,1,0,,,,,,,,,,,,,,,,repeat,number,numRpt,j,1.1823,noRew,,,,,,0,29,0,29,0,1,,,,,,,,,,,,,,,,,
297103,2022-12-05_13h30.52.876,vts_reward_expectancy_bt,2022.2.4,MacIntel,60.0024001,Chrome,1440,900,,,,,0,612,,,,,,,,,,,,,,,,,D,132,star,1,0,,,,,,,,,,,,,,,,repeat,number,numRpt,j,1.4636,noRew,,,,,,0,30,0,30,0,1,,,,,,,,,,,,,,,,,
297103,2022-12-05_13h30.52.876,vts_reward_expectancy_bt,2022.2.4,MacIntel,60.0024001,Chrome,1440,900,,,,,0,612,,,,,,,,,,,,,,,,,B,146,hexagon,1,0,,,,,,,,,,,,,,,,repeat,number,numRpt,j,1.6319,noRew,,,,,,0,31,0,31,0,1,,,,,,,,,,,,,,,,,
297103,2022-12-05_13h30.52.876,vts_reward_expectancy_bt,2022.2.4,MacIntel,60.0024001,Chrome,1440,900,,,,,0,612,,,,,,,,,,,,,,,,,U,181,hexagon,1,0,,,,,,,,,,,,,,,,repeat,number,numRpt,k,0.6152,noRew,,,,,,0,32,0,32,0,1,,,,,,,,,,,,,,,,,
297103,2022-12-05_13h30.52.876,vts_reward_expectancy_bt,2022.2.4,MacIntel,60.0024001,Chrome,1440,900,,,,,0,612,,,,,,,,,,,,,,,,,B,174,star,1,0,,,,,,,,,,,,,,,,repeat,number,numRpt,k,1.747,noRew,,,,,,0,33,0,33,0,1,,,,,,,,,,,,,,,,,
297103,2022-12-05_13h30.52.876,vts_reward_expectancy_bt,2022.2.4,MacIntel,60.0024001,Chrome,1440,900,,,,,0,612,,,,,,,,,,,,,,,,,Y,167,star,1,0,,,,,,,,,,,,,,,,repeat,number,numRpt,k,2.2375,noRew,,,,,,0,34,0,34,0,1,,,,,,,,,,,,,,,,,
297103,2022-12-05_13h30.52.876,vts_reward_expectancy_bt,2022.2.4,MacIntel,60.0024001,Chrome,1440,900,,,,,0,612,,,,,,,,,,,,,,,,,S,139,hexagon,1,0,,,,,,,,,,,,,,,,repeat,number,numRpt,j,1.0349,noRew,,,,,,0,35,0,35,0,1,,,,,,,,,,,,,,,,,
297103,2022-12-05_13h30.52.876,vts_reward_expectancy_bt,2022.2.4,MacIntel,60.0024001,Chrome,1440,900,,,,,0,612,,,,,,,,,,,,,,,,,W,167,triangle,1,0,,,,,,,,,,,,,,,,repeat,number,numRpt,k,2.7168,noRew,,,,,,0,36,0,36,0,1,,,,,,,,,,,,,,,,,
297103,2022-12-05_13h30.52.876,vts_reward_expectancy_bt,2022.2.4,MacIntel,60.0024001,Chrome,1440,900,,,,,0,612,,,,,,,,,,,,,,,,,U,125,hexagon,-1,0,,,,,,,,,,,,,,,,switch,no_choice,NA,,,noRew,,,,,,0,37,0,37,0,1,,,,,,,,,,,,,,,,,
297103,2022-12-05_13h30.52.876,vts_reward_expectancy_bt,2022.2.4,MacIntel,60.0024001,Chrome,1440,900,,,,,0,612,,,,,,,,,,,,,,,,,Y,146,triangle,1,0,,,,,,,,,,,,,,,,switch,number,numSwt,j,1.381,noRew,,,,,,0,38,0,38,0,1,,,,,,,,,,,,,,,,,
297103,2022-12-05_13h30.52.876,vts_reward_expectancy_bt,2022.2.4,MacIntel,60.0024001,Chrome,1440,900,,,,,0,612,,,,,,,,,,,,,,,,,B,160,hexagon,1,0,,,,,,,,,,,,,,,,repeat,number,numRpt,k,0.7477,noRew,,,,,,0,39,0,39,0,1,,,,,,,,,,,,,,,,,
297103,2022-12-05_13h30.52.876,vts_reward_expectancy_bt,2022.2.4,MacIntel,60.0024001,Chrome,1440,900,,,,,0,612,,,,,,,,,,,,,,,,,Y,146,triangle,-1,0,,,,,,,,,,,,,,,,switch,no_choice,NA,,,noRew,,,,,,0,40,0,40,0,1,,,,,,,,,,,,,,,,,
297103,2022-12-05_13h30.52.876,vts_reward_expectancy_bt,2022.2.4,MacIntel,60.0024001,Chrome,1440,900,,,,,0,612,,,,,,,,,,,,,,,,,U,139,star,1,0,,,,,,,,,,,,,,,,switch,number,numSwt,j,0.7636,noRew,,,,,,0,41,0,41,0,1,,,,,,,,,,,,,,,,,
297103,2022-12-05_13h30.52.876,vts_reward_expectancy_bt,2022.2.4,MacIntel,60.0024001,Chrome,1440,900,,,,,0,612,,,,,,,,,,,,,,,,,B,181,triangle,1,0,,,,,,,,,,,,,,,,repeat,number,numRpt,k,0.6648,noRew,,,,,,0,42,0,42,0,1,,,,,,,,,,,,,,,,,
297103,2022-12-05_13h30.52.876,vts_reward_expectancy_bt,2022.2.4,MacIntel,60.0024001,Chrome,1440,900,,,,,0,612,,,,,,,,,,,,,,,,,D,174,circle,1,0,,,,,,,,,,,,,,,,switch,letter,lettSwt,d,0.7978,noRew,,,,,,0,43,0,43,0,1,,,,,,,,,,,,,,,,,
297103,2022-12-05_13h30.52.876,vts_reward_expectancy_bt,2022.2.4,MacIntel,60.0024001,Chrome,1440,900,,,,,0,612,,,,,,,,,,,,,,,,,D,174,triangle,1,0,,,,,,,,,,,,,,,,repeat,letter,lettRpt,d,0.9002,noRew,,,,,,0,44,0,44,0,1,,,,,,,,,,,,,,,,,
297103,2022-12-05_13h30.52.876,vts_reward_expectancy_bt,2022.2.4,MacIntel,60.0024001,Chrome,1440,900,,,,,0,612,,,,,,,,,,,,,,,,,S,167,circle,1,0,,,,,,,,,,,,,,,,repeat,letter,lettRpt,f,1.1802,noRew,,,,,,0,45,0,45,0,1,,,,,,,,,,,,,,,,,
297103,2022-12-05_13h30.52.876,vts_reward_expectancy_bt,2022.2.4,MacIntel,60.0024001,Chrome,1440,900,,,,,0,612,,,,,,,,,,,,,,,,,B,132,star,1,0,,,,,,,,,,,,,,,,repeat,letter,lettRpt,d,0.9321,noRew,,,,,,0,46,0,46,0,1,,,,,,,,,,,,,,,,,
297103,2022-12-05_13h30.52.876,vts_reward_expectancy_bt,2022.2.4,MacIntel,60.0024001,Chrome,1440,900,,,,,0,612,,,,,,,,,,,,,,,,,F,146,hexagon,1,0,,,,,,,,,,,,,,,,repeat,letter,lettRpt,d,2.2201,noRew,,,,,,0,47,0,47,0,1,,,,,,,,,,,,,,,,,
297103,2022-12-05_13h30.52.876,vts_reward_expectancy_bt,2022.2.4,MacIntel,60.0024001,Chrome,1440,900,,,,,0,612,,,,,,,,,,,,,,,,,D,181,hexagon,1,0,,,,,,,,,,,,,,,,repeat,letter,lettRpt,d,0.6298,noRew,,,,,,0,48,0,48,0,1,,,,,,,,,,,,,,,,,
297103,2022-12-05_13h30.52.876,vts_reward_expectancy_bt,2022.2.4,MacIntel,60.0024001,Chrome,1440,900,,,,,0,612,,,,,,,,,,,,,,,,,S,160,star,0,0,,,,,,,,,,,,,,,,repeat,letter,NA,d,1.585,noRew,,,,,,0,49,0,49,0,1,,,,,,,,,,,,,,,,,
297103,2022-12-05_13h30.52.876,vts_reward_expectancy_bt,2022.2.4,MacIntel,60.0024001,Chrome,1440,900,,,,,0,612,,,,,,,,,,,,,,,,,W,125,circle,1,1,,,,,,,,,,,,,,,,repeat,letter,lettRpt,f,0.7479,noRew,,,,,,0,50,0,50,0,1,,,,,,,,,,,,,,,,,
297103,2022-12-05_13h30.52.876,vts_reward_expectancy_bt,2022.2.4,MacIntel,60.0024001,Chrome,1440,900,,,,,0,612,,,,,,,,,,,,,,,,,H,167,hexagon,1,0,,,,,,,,,,,,,,,,repeat,letter,lettRpt,d,0.9701,noRew,,,,,,0,51,0,51,0,1,,,,,,,,,,,,,,,,,
297103,2022-12-05_13h30.52.876,vts_reward_expectancy_bt,2022.2.4,MacIntel,60.0024001,Chrome,1440,900,,,,,0,612,,,,,,,,,,,,,,,,,U,174,triangle,1,0,,,,,,,,,,,,,,,,repeat,letter,lettRpt,f,1.1453,noRew,,,,,,0,52,0,52,0,1,,,,,,,,,,,,,,,,,
297103,2022-12-05_13h30.52.876,vts_reward_expectancy_bt,2022.2.4,MacIntel,60.0024001,Chrome,1440,900,,,,,0,612,,,,,,,,,,,,,,,,,W,139,circle,1,0,,,,,,,,,,,,,,,,repeat,letter,lettRpt,f,0.7225,noRew,,,,,,0,53,0,53,0,1,,,,,,,,,,,,,,,,,
297103,2022-12-05_13h30.52.876,vts_reward_expectancy_bt,2022.2.4,MacIntel,60.0024001,Chrome,1440,900,,,,,0,612,,,,,,,,,,,,,,,,,Y,160,circle,1,0,,,,,,,,,,,,,,,,repeat,letter,lettRpt,f,0.7157,noRew,,,,,,0,54,0,54,0,1,,,,,,,,,,,,,,,,,
297103,2022-12-05_13h30.52.876,vts_reward_expectancy_bt,2022.2.4,MacIntel,60.0024001,Chrome,1440,900,,,,,0,612,,,,,,,,,,,,,,,,,F,132,triangle,1,0,,,,,,,,,,,,,,,,repeat,letter,lettRpt,d,1.2299,noRew,,,,,,0,55,0,55,0,1,,,,,,,,,,,,,,,,,
297103,2022-12-05_13h30.52.876,vts_reward_expectancy_bt,2022.2.4,MacIntel,60.0024001,Chrome,1440,900,,,,,0,612,,,,,,,,,,,,,,,,,B,181,triangle,-1,0,,,,,,,,,,,,,,,,switch,no_choice,NA,,,noRew,,,,,,0,56,0,56,0,1,,,,,,,,,,,,,,,,,
297103,2022-12-05_13h30.52.876,vts_reward_expectancy_bt,2022.2.4,MacIntel,60.0024001,Chrome,1440,900,,,,,0,612,,,,,,,,,,,,,,,,,Y,174,star,1,0,,,,,,,,,,,,,,,,switch,letter,lettSwt,f,0.7972,noRew,,,,,,0,57,0,57,0,1,,,,,,,,,,,,,,,,,
297103,2022-12-05_13h30.52.876,vts_reward_expectancy_bt,2022.2.4,MacIntel,60.0024001,Chrome,1440,900,,,,,0,612,,,,,,,,,,,,,,,,,F,139,circle,1,0,,,,,,,,,,,,,,,,repeat,letter,lettRpt,d,0.6126,noRew,,,,,,0,58,0,58,0,1,,,,,,,,,,,,,,,,,
297103,2022-12-05_13h30.52.876,vts_reward_expectancy_bt,2022.2.4,MacIntel,60.0024001,Chrome,1440,900,,,,,0,612,,,,,,,,,,,,,,,,,S,167,star,1,0,,,,,,,,,,,,,,,,switch,number,numSwt,k,0.6217,noRew,,,,,,0,59,0,59,0,1,,,,,,,,,,,,,,,,,
297103,2022-12-05_13h30.52.876,vts_reward_expectancy_bt,2022.2.4,MacIntel,60.0024001,Chrome,1440,900,,,,,0,612,,,,,,,,,,,,,,,,,F,132,circle,1,0,,,,,,,,,,,,,,,,repeat,number,numRpt,j,0.8986,noRew,,,,,,0,60,0,60,0,1,,,,,,,,,,,,,,,,,
297103,2022-12-05_13h30.52.876,vts_reward_expectancy_bt,2022.2.4,MacIntel,60.0024001,Chrome,1440,900,,,,,0,612,,,,,,,,,,,,,,,,,U,125,hexagon,1,0,,,,,,,,,,,,,,,,repeat,number,numRpt,j,0.6354,noRew,,,,,,0,61,0,61,0,1,,,,,,,,,,,,,,,,,
297103,2022-12-05_13h30.52.876,vts_reward_expectancy_bt,2022.2.4,MacIntel,60.0024001,Chrome,1440,900,,,,,0,612,,,,,,,,,,,,,,,,,S,160,circle,1,0,,,,,,,,,,,,,,,,switch,letter,lettSwt,f,1.1124,noRew,,,,,,0,62,0,62,0,1,,,,,,,,,,,,,,,,,
297103,2022-12-05_13h30.52.876,vts_reward_expectancy_bt,2022.2.4,MacIntel,60.0024001,Chrome,1440,900,,,,,0,612,,,,,,,,,,,,,,,,,D,139,triangle,1,0,,,,,,,,,,,,,,,,repeat,letter,lettRpt,d,0.5974,noRew,,,,,,0,63,0,63,0,1,,,,,,,,,,,,,,,,,
297103,2022-12-05_13h30.52.876,vts_reward_expectancy_bt,2022.2.4,MacIntel,60.0024001,Chrome,1440,900,,,,,,,,,,,,,,,,,,,,,,,,,,,,,,,,,,,,,,,,,,,,,,,,,,,,,,,,,,,,,,,,,,,,,,,,,,,,
297103,2022-12-05_13h30.52.876,vts_reward_expectancy_bt,2022.2.4,MacIntel,60.0024001,Chrome,1440,900,,,,,0,612,,,,,,,,,,,,,,,,,W,146,hexagon,1,0,,,,,,,,,,,,,,,,switch,number,numSwt,j,1.8026,Hi,,,,,,0,,,,,,space,5.4213,high,0,0,0,0,1,,,,,,,,,
297103,2022-12-05_13h30.52.876,vts_reward_expectancy_bt,2022.2.4,MacIntel,60.0024001,Chrome,1440,900,,,,,1,613,,,,,,,,,,,,,,,,,F,125,triangle,1,0,,,,,,,,,,,,,,,,repeat,number,numRpt,j,0.7014,Lo,,,,,,0,,,,,,,,high,1,0,1,0,1,,,,,,,,,
297103,2022-12-05_13h30.52.876,vts_reward_expectancy_bt,2022.2.4,MacIntel,60.0024001,Chrome,1440,900,,,,,1,614,,,,,,,,,,,,,,,,,S,181,star,1,0,,,,,,,,,,,,,,,,repeat,number,numRpt,k,1.278,Lo,,,,,,0,,,,,,,,high,2,0,2,0,1,,,,,,,,,
297103,2022-12-05_13h30.52.876,vts_reward_expectancy_bt,2022.2.4,MacIntel,60.0024001,Chrome,1440,900,,,,,0,614,,,,,,,,,,,,,,,,,D,174,circle,1,0,,,,,,,,,,,,,,,,repeat,number,numRpt,k,0.8646,Hi,,,,,,0,,,,,,,,high,3,0,3,0,1,,,,,,,,,
297103,2022-12-05_13h30.52.876,vts_reward_expectancy_bt,2022.2.4,MacIntel,60.0024001,Chrome,1440,900,,,,,0,614,,,,,,,,,,,,,,,,,B,132,hexagon,1,0,,,,,,,,,,,,,,,,repeat,number,numRpt,j,0.8806,Hi,,,,,,0,,,,,,,,high,4,0,4,0,1,,,,,,,,,
297103,2022-12-05_13h30.52.876,vts_reward_expectancy_bt,2022.2.4,MacIntel,60.0024001,Chrome,1440,900,,,,,1,615,,,,,,,,,,,,,,,,,U,160,triangle,1,0,,,,,,,,,,,,,,,,repeat,number,numRpt,k,0.4977,Lo,,,,,,0,,,,,,,,high,5,0,5,0,1,,,,,,,,,
297103,2022-12-05_13h30.52.876,vts_reward_expectancy_bt,2022.2.4,MacIntel,60.0024001,Chrome,1440,900,,,,,10,625,,,,,,,,,,,,,,,,,H,167,star,1,0,,,,,,,,,,,,,,,,repeat,number,numRpt,k,0.5191,Lo,,,,,,0,,,,,,,,high,6,0,6,0,1,,,,,,,,,
297103,2022-12-05_13h30.52.876,vts_reward_expectancy_bt,2022.2.4,MacIntel,60.0024001,Chrome,1440,900,,,,,0,625,,,,,,,,,,,,,,,,,Y,139,circle,0,0,,,,,,,,,,,,,,,,repeat,number,NA,k,0.665,Lo,,,,,,0,,,,,,,,high,7,0,7,0,1,,,,,,,,,
297103,2022-12-05_13h30.52.876,vts_reward_expectancy_bt,2022.2.4,MacIntel,60.0024001,Chrome,1440,900,,,,,0,625,,,,,,,,,,,,,,,,,W,146,circle,1,1,,,,,,,,,,,,,,,,repeat,number,numRpt,j,1.4141,Hi,,,,,,0,,,,,,,,high,8,0,8,0,1,,,,,,,,,
297103,2022-12-05_13h30.52.876,vts_reward_expectancy_bt,2022.2.4,MacIntel,60.0024001,Chrome,1440,900,,,,,10,635,,,,,,,,,,,,,,,,,F,125,star,1,0,,,,,,,,,,,,,,,,repeat,number,numRpt,j,0.6477,Lo,,,,,,0,,,,,,,,high,9,0,9,0,1,,,,,,,,,
297103,2022-12-05_13h30.52.876,vts_reward_expectancy_bt,2022.2.4,MacIntel,60.0024001,Chrome,1440,900,,,,,0,635,,,,,,,,,,,,,,,,,S,181,hexagon,1,0,,,,,,,,,,,,,,,,repeat,number,numRpt,k,0.797,Hi,,,,,,0,,,,,,,,high,10,0,10,0,1,,,,,,,,,
297103,2022-12-05_13h30.52.876,vts_reward_expectancy_bt,2022.2.4,MacIntel,60.0024001,Chrome,1440,900,,,,,1,636,,,,,,,,,,,,,,,,,D,174,triangle,1,0,,,,,,,,,,,,,,,,switch,letter,lettSwt,d,0.3969,Lo,,,,,,0,,,,,,,,high,11,0,11,0,1,,,,,,,,,
297103,2022-12-05_13h30.52.876,vts_reward_expectancy_bt,2022.2.4,MacIntel,60.0024001,Chrome,1440,900,,,,,1,637,,,,,,,,,,,,,,,,,B,132,triangle,1,0,,,,,,,,,,,,,,,,repeat,letter,lettRpt,d,0.4868,Lo,,,,,,0,,,,,,,,high,12,0,12,0,1,,,,,,,,,
297103,2022-12-05_13h30.52.876,vts_reward_expectancy_bt,2022.2.4,MacIntel,60.0024001,Chrome,1440,900,,,,,1,638,,,,,,,,,,,,,,,,,U,160,star,1,0,,,,,,,,,,,,,,,,repeat,letter,lettRpt,f,0.5484,Lo,,,,,,0,,,,,,,,high,13,0,13,0,1,,,,,,,,,
297103,2022-12-05_13h30.52.876,vts_reward_expectancy_bt,2022.2.4,MacIntel,60.0024001,Chrome,1440,900,,,,,0,638,,,,,,,,,,,,,,,,,H,167,hexagon,0,0,,,,,,,,,,,,,,,,repeat,letter,NA,f,0.5798,Lo,,,,,,0,,,,,,,,high,14,0,14,0,1,,,,,,,,,
297103,2022-12-05_13h30.52.876,vts_reward_expectancy_bt,2022.2.4,MacIntel,60.0024001,Chrome,1440,900,,,,,10,648,,,,,,,,,,,,,,,,,Y,139,circle,1,1,,,,,,,,,,,,,,,,repeat,letter,lettRpt,f,0.6816,Hi,,,,,,0,,,,,,,,high,15,0,15,0,1,,,,,,,,,
297103,2022-12-05_13h30.52.876,vts_reward_expectancy_bt,2022.2.4,MacIntel,60.0024001,Chrome,1440,900,,,,,0,648,,,,,,,,,,,,,,,,,U,146,circle,1,0,,,,,,,,,,,,,,,,repeat,letter,lettRpt,f,0.8145,Hi,,,,,,0,,,,,,,,high,16,0,16,0,1,,,,,,,,,
297103,2022-12-05_13h30.52.876,vts_reward_expectancy_bt,2022.2.4,MacIntel,60.0024001,Chrome,1440,900,,,,,0,648,,,,,,,,,,,,,,,,,H,132,triangle,0,0,,,,,,,,,,,,,,,,switch,number,NA,k,2.2004,Hi,,,,,,0,,,,,,,,high,17,0,17,0,1,,,,,,,,,
297103,2022-12-05_13h30.52.876,vts_reward_expectancy_bt,2022.2.4,MacIntel,60.0024001,Chrome,1440,900,,,,,1,649,,,,,,,,,,,,,,,,,S,167,star,1,1,,,,,,,,,,,,,,,,repeat,number,numRpt,k,0.6556,Lo,,,,,,0,,,,,,,,high,18,0,18,0,1,,,,,,,,,
297103,2022-12-05_13h30.52.876,vts_reward_expectancy_bt,2022.2.4,MacIntel,60.0024001,Chrome,1440,900,,,,,0,649,,,,,,,,,,,,,,,,,B,174,hexagon,1,0,,,,,,,,,,,,,,,,repeat,number,numRpt,k,0.8372,Hi,,,,,,0,,,,,,,,high,19,0,19,0,1,,,,,,,,,
297103,2022-12-05_13h30.52.876,vts_reward_expectancy_bt,2022.2.4,MacIntel,60.0024001,Chrome,1440,900,,,,,10,659,,,,,,,,,,,,,,,,,W,125,circle,1,0,,,,,,,,,,,,,,,,repeat,number,numRpt,j,0.5163,Hi,,,,,,0,,,,,,,,high,20,0,20,0,1,,,,,,,,,
297103,2022-12-05_13h30.52.876,vts_reward_expectancy_bt,2022.2.4,MacIntel,60.0024001,Chrome,1440,900,,,,,0,659,,,,,,,,,,,,,,,,,Y,160,hexagon,1,0,,,,,,,,,,,,,,,,repeat,number,numRpt,k,0.779,Hi,,,,,,0,,,,,,,,high,21,0,21,0,1,,,,,,,,,
297103,2022-12-05_13h30.52.876,vts_reward_expectancy_bt,2022.2.4,MacIntel,60.0024001,Chrome,1440,900,,,,,1,660,,,,,,,,,,,,,,,,,F,139,triangle,1,0,,,,,,,,,,,,,,,,repeat,number,numRpt,j,0.8642,Lo,,,,,,0,,,,,,,,high,22,0,22,0,1,,,,,,,,,
297103,2022-12-05_13h30.52.876,vts_reward_expectancy_bt,2022.2.4,MacIntel,60.0024001,Chrome,1440,900,,,,,1,661,,,,,,,,,,,,,,,,,D,181,star,1,0,,,,,,,,,,,,,,,,repeat,number,numRpt,k,0.715,Lo,,,,,,0,,,,,,,,high,23,0,23,0,1,,,,,,,,,
297103,2022-12-05_13h30.52.876,vts_reward_expectancy_bt,2022.2.4,MacIntel,60.0024001,Chrome,1440,900,,,,,1,662,,,,,,,,,,,,,,,,,H,160,triangle,1,0,,,,,,,,,,,,,,,,repeat,number,numRpt,k,1.2137,Lo,,,,,,0,,,,,,,,high,24,0,24,0,1,,,,,,,,,
297103,2022-12-05_13h30.52.876,vts_reward_expectancy_bt,2022.2.4,MacIntel,60.0024001,Chrome,1440,900,,,,,1,663,,,,,,,,,,,,,,,,,D,174,star,1,0,,,,,,,,,,,,,,,,repeat,number,numRpt,k,0.8152,Lo,,,,,,0,,,,,,,,high,25,0,25,0,1,,,,,,,,,
297103,2022-12-05_13h30.52.876,vts_reward_expectancy_bt,2022.2.4,MacIntel,60.0024001,Chrome,1440,900,,,,,0,663,,,,,,,,,,,,,,,,,S,125,circle,1,0,,,,,,,,,,,,,,,,repeat,number,numRpt,j,1.1147,Hi,,,,,,0,,,,,,,,high,26,0,26,0,1,,,,,,,,,
297103,2022-12-05_13h30.52.876,vts_reward_expectancy_bt,2022.2.4,MacIntel,60.0024001,Chrome,1440,900,,,,,0,663,,,,,,,,,,,,,,,,,W,167,hexagon,1,0,,,,,,,,,,,,,,,,repeat,number,numRpt,k,0.7703,Hi,,,,,,0,,,,,,,,high,27,0,27,0,1,,,,,,,,,
297103,2022-12-05_13h30.52.876,vts_reward_expectancy_bt,2022.2.4,MacIntel,60.0024001,Chrome,1440,900,,,,,0,663,,,,,,,,,,,,,,,,,F,139,circle,0,0,,,,,,,,,,,,,,,,repeat,number,NA,k,0.6939,Hi,,,,,,0,,,,,,,,high,28,0,28,0,1,,,,,,,,,
297103,2022-12-05_13h30.52.876,vts_reward_expectancy_bt,2022.2.4,MacIntel,60.0024001,Chrome,1440,900,,,,,10,673,,,,,,,,,,,,,,,,,B,132,triangle,1,1,,,,,,,,,,,,,,,,repeat,number,numRpt,j,1.6646,Lo,,,,,,0,,,,,,,,high,29,0,29,0,1,,,,,,,,,
297103,2022-12-05_13h30.52.876,vts_reward_expectancy_bt,2022.2.4,MacIntel,60.0024001,Chrome,1440,900,,,,,1,674,,,,,,,,,,,,,,,,,U,146,hexagon,1,0,,,,,,,,,,,,,,,,repeat,number,numRpt,j,0.6984,Hi,,,,,,0,,,,,,,,high,30,0,30,0,1,,,,,,,,,
297103,2022-12-05_13h30.52.876,vts_reward_expectancy_bt,2022.2.4,MacIntel,60.0024001,Chrome,1440,900,,,,,1,675,,,,,,,,,,,,,,,,,Y,181,star,1,0,,,,,,,,,,,,,,,,repeat,number,numRpt,k,0.713,Lo,,,,,,0,,,,,,,,high,31,0,31,0,1,,,,,,,,,
297103,2022-12-05_13h30.52.876,vts_reward_expectancy_bt,2022.2.4,MacIntel,60.0024001,Chrome,1440,900,,,,,10,685,,,,,,,,,,,,,,,,,H,167,triangle,1,0,,,,,,,,,,,,,,,,switch,letter,lettSwt,d,0.8134,Lo,,,,,,1,,,,,,space,2.5687,high,0,0,0,0,1,,,,,,,,,
297103,2022-12-05_13h30.52.876,vts_reward_expectancy_bt,2022.2.4,MacIntel,60.0024001,Chrome,1440,900,,,,,0,685,,,,,,,,,,,,,,,,,F,125,star,0,0,,,,,,,,,,,,,,,,repeat,letter,NA,f,0.4644,Lo,,,,,,1,,,,,,,,high,1,0,1,0,1,,,,,,,,,
297103,2022-12-05_13h30.52.876,vts_reward_expectancy_bt,2022.2.4,MacIntel,60.0024001,Chrome,1440,900,,,,,10,695,,,,,,,,,,,,,,,,,D,160,hexagon,1,1,,,,,,,,,,,,,,,,repeat,letter,lettRpt,d,0.414,Hi,,,,,,1,,,,,,,,high,2,0,2,0,1,,,,,,,,,
297103,2022-12-05_13h30.52.876,vts_reward_expectancy_bt,2022.2.4,MacIntel,60.0024001,Chrome,1440,900,,,,,0,695,,,,,,,,,,,,,,,,,U,174,circle,0,0,,,,,,,,,,,,,,,,repeat,letter,NA,d,1.0982,Hi,,,,,,1,,,,,,,,high,3,0,3,0,1,,,,,,,,,
297103,2022-12-05_13h30.52.876,vts_reward_expectancy_bt,2022.2.4,MacIntel,60.0024001,Chrome,1440,900,,,,,1,696,,,,,,,,,,,,,,,,,W,132,triangle,1,1,,,,,,,,,,,,,,,,repeat,letter,lettRpt,f,0.3647,Lo,,,,,,1,,,,,,,,high,4,0,4,0,1,,,,,,,,,
297103,2022-12-05_13h30.52.876,vts_reward_expectancy_bt,2022.2.4,MacIntel,60.0024001,Chrome,1440,900,,,,,0,696,,,,,,,,,,,,,,,,,S,139,star,0,0,,,,,,,,,,,,,,,,repeat,letter,NA,d,0.4641,Lo,,,,,,1,,,,,,,,high,5,0,5,0,1,,,,,,,,,
297103,2022-12-05_13h30.52.876,vts_reward_expectancy_bt,2022.2.4,MacIntel,60.0024001,Chrome,1440,900,,,,,0,696,,,,,,,,,,,,,,,,,B,146,hexagon,0,1,,,,,,,,,,,,,,,,repeat,letter,NA,f,0.5339,Lo,,,,,,1,,,,,,,,high,6,0,6,0,1,,,,,,,,,
297103,2022-12-05_13h30.52.876,vts_reward_expectancy_bt,2022.2.4,MacIntel,60.0024001,Chrome,1440,900,,,,,0,696,,,,,,,,,,,,,,,,,Y,181,circle,0,1,,,,,,,,,,,,,,,,repeat,letter,NA,d,0.6322,Lo,,,,,,1,,,,,,,,high,7,0,7,0,1,,,,,,,,,
297103,2022-12-05_13h30.52.876,vts_reward_expectancy_bt,2022.2.4,MacIntel,60.0024001,Chrome,1440,900,,,,,10,706,,,,,,,,,,,,,,,,,H,167,circle,1,1,,,,,,,,,,,,,,,,repeat,letter,lettRpt,d,0.3462,Hi,,,,,,1,,,,,,,,high,8,0,8,0,1,,,,,,,,,
297103,2022-12-05_13h30.52.876,vts_reward_expectancy_bt,2022.2.4,MacIntel,60.0024001,Chrome,1440,900,,,,,10,716,,,,,,,,,,,,,,,,,F,125,star,1,0,,,,,,,,,,,,,,,,repeat,letter,lettRpt,d,1.448,Lo,,,,,,1,,,,,,,,high,9,0,9,0,1,,,,,,,,,
297103,2022-12-05_13h30.52.876,vts_reward_expectancy_bt,2022.2.4,MacIntel,60.0024001,Chrome,1440,900,,,,,0,716,,,,,,,,,,,,,,,,,D,160,triangle,0,0,,,,,,,,,,,,,,,,repeat,letter,NA,f,0.3643,Lo,,,,,,1,,,,,,,,high,10,0,10,0,1,,,,,,,,,
297103,2022-12-05_13h30.52.876,vts_reward_expectancy_bt,2022.2.4,MacIntel,60.0024001,Chrome,1440,900,,,,,0,716,,,,,,,,,,,,,,,,,U,174,hexagon,0,1,,,,,,,,,,,,,,,,repeat,letter,NA,d,0.4844,Lo,,,,,,1,,,,,,,,high,11,0,11,0,1,,,,,,,,,
297103,2022-12-05_13h30.52.876,vts_reward_expectancy_bt,2022.2.4,MacIntel,60.0024001,Chrome,1440,900,,,,,1,717,,,,,,,,,,,,,,,,,W,132,star,1,1,,,,,,,,,,,,,,,,repeat,letter,lettRpt,f,0.5666,Lo,,,,,,1,,,,,,,,high,12,0,12,0,1,,,,,,,,,
297103,2022-12-05_13h30.52.876,vts_reward_expectancy_bt,2022.2.4,MacIntel,60.0024001,Chrome,1440,900,,,,,0,717,,,,,,,,,,,,,,,,,S,139,hexagon,0,0,,,,,,,,,,,,,,,,repeat,letter,NA,d,0.3641,Lo,,,,,,1,,,,,,,,high,13,0,13,0,1,,,,,,,,,
297103,2022-12-05_13h30.52.876,vts_reward_expectancy_bt,2022.2.4,MacIntel,60.0024001,Chrome,1440,900,,,,,0,717,,,,,,,,,,,,,,,,,B,146,circle,1,1,,,,,,,,,,,,,,,,repeat,letter,lettRpt,d,0.5645,Hi,,,,,,1,,,,,,,,high,14,0,14,0,1,,,,,,,,,
297103,2022-12-05_13h30.52.876,vts_reward_expectancy_bt,2022.2.4,MacIntel,60.0024001,Chrome,1440,900,,,,,1,718,,,,,,,,,,,,,,,,,Y,181,triangle,1,0,,,,,,,,,,,,,,,,repeat,letter,lettRpt,f,0.4968,Lo,,,,,,1,,,,,,,,high,15,0,15,0,1,,,,,,,,,
297103,2022-12-05_13h30.52.876,vts_reward_expectancy_bt,2022.2.4,MacIntel,60.0024001,Chrome,1440,900,,,,,0,718,,,,,,,,,,,,,,,,,H,132,circle,0,0,,,,,,,,,,,,,,,,repeat,letter,NA,f,0.4551,Lo,,,,,,1,,,,,,,,high,16,0,16,0,1,,,,,,,,,
297103,2022-12-05_13h30.52.876,vts_reward_expectancy_bt,2022.2.4,MacIntel,60.0024001,Chrome,1440,900,,,,,1,719,,,,,,,,,,,,,,,,,W,125,star,1,1,,,,,,,,,,,,,,,,repeat,letter,lettRpt,f,0.7298,Lo,,,,,,1,,,,,,,,high,17,0,17,0,1,,,,,,,,,
297103,2022-12-05_13h30.52.876,vts_reward_expectancy_bt,2022.2.4,MacIntel,60.0024001,Chrome,1440,900,,,,,0,719,,,,,,,,,,,,,,,,,F,146,hexagon,1,0,,,,,,,,,,,,,,,,repeat,letter,lettRpt,d,0.6388,Hi,,,,,,1,,,,,,,,high,18,0,18,0,1,,,,,,,,,
297103,2022-12-05_13h30.52.876,vts_reward_expectancy_bt,2022.2.4,MacIntel,60.0024001,Chrome,1440,900,,,,,0,719,,,,,,,,,,,,,,,,,D,160,triangle,0,0,,,,,,,,,,,,,,,,repeat,letter,NA,f,0.6294,Hi,,,,,,1,,,,,,,,high,19,0,19,0,1,,,,,,,,,
297103,2022-12-05_13h30.52.876,vts_reward_expectancy_bt,2022.2.4,MacIntel,60.0024001,Chrome,1440,900,,,,,0,719,,,,,,,,,,,,,,,,,U,181,circle,0,1,,,,,,,,,,,,,,,,repeat,letter,NA,d,0.3363,Hi,,,,,,1,,,,,,,,high,20,0,20,0,1,,,,,,,,,
297103,2022-12-05_13h30.52.876,vts_reward_expectancy_bt,2022.2.4,MacIntel,60.0024001,Chrome,1440,900,,,,,0,719,,,,,,,,,,,,,,,,,B,139,hexagon,0,1,,,,,,,,,,,,,,,,repeat,letter,NA,f,0.5636,Hi,,,,,,1,,,,,,,,high,21,0,21,0,1,,,,,,,,,
297103,2022-12-05_13h30.52.876,vts_reward_expectancy_bt,2022.2.4,MacIntel,60.0024001,Chrome,1440,900,,,,,1,720,,,,,,,,,,,,,,,,,S,174,triangle,1,1,,,,,,,,,,,,,,,,repeat,letter,lettRpt,f,0.6615,Lo,,,,,,1,,,,,,,,high,22,0,22,0,1,,,,,,,,,
297103,2022-12-05_13h30.52.876,vts_reward_expectancy_bt,2022.2.4,MacIntel,60.0024001,Chrome,1440,900,,,,,10,730,,,,,,,,,,,,,,,,,Y,167,star,1,0,,,,,,,,,,,,,,,,repeat,letter,lettRpt,f,1.4061,Lo,,,,,,1,,,,,,,,high,23,0,23,0,1,,,,,,,,,
297103,2022-12-05_13h30.52.876,vts_reward_expectancy_bt,2022.2.4,MacIntel,60.0024001,Chrome,1440,900,,,,,0,730,,,,,,,,,,,,,,,,,H,139,circle,1,0,,,,,,,,,,,,,,,,repeat,letter,lettRpt,d,0.7311,Hi,,,,,,1,,,,,,,,high,24,0,24,0,1,,,,,,,,,
297103,2022-12-05_13h30.52.876,vts_reward_expectancy_bt,2022.2.4,MacIntel,60.0024001,Chrome,1440,900,,,,,1,731,,,,,,,,,,,,,,,,,U,125,star,1,0,,,,,,,,,,,,,,,,repeat,letter,lettRpt,f,1.6546,Lo,,,,,,1,,,,,,,,high,25,0,25,0,1,,,,,,,,,
297103,2022-12-05_13h30.52.876,vts_reward_expectancy_bt,2022.2.4,MacIntel,60.0024001,Chrome,1440,900,,,,,0,731,,,,,,,,,,,,,,,,,B,174,hexagon,1,0,,,,,,,,,,,,,,,,repeat,letter,lettRpt,d,0.7476,Hi,,,,,,1,,,,,,,,high,26,0,26,0,1,,,,,,,,,
297103,2022-12-05_13h30.52.876,vts_reward_expectancy_bt,2022.2.4,MacIntel,60.0024001,Chrome,1440,900,,,,,1,732,,,,,,,,,,,,,,,,,Y,146,triangle,1,0,,,,,,,,,,,,,,,,repeat,letter,lettRpt,f,1.345,Lo,,,,,,1,,,,,,,,high,27,0,27,0,1,,,,,,,,,
297103,2022-12-05_13h30.52.876,vts_reward_expectancy_bt,2022.2.4,MacIntel,60.0024001,Chrome,1440,900,,,,,1,733,,,,,,,,,,,,,,,,,S,160,triangle,1,0,,,,,,,,,,,,,,,,repeat,letter,lettRpt,f,0.7477,Lo,,,,,,1,,,,,,,,high,28,0,28,0,1,,,,,,,,,
297103,2022-12-05_13h30.52.876,vts_reward_expectancy_bt,2022.2.4,MacIntel,60.0024001,Chrome,1440,900,,,,,0,733,,,,,,,,,,,,,,,,,D,167,hexagon,1,0,,,,,,,,,,,,,,,,repeat,letter,lettRpt,d,1.688,Hi,,,,,,1,,,,,,,,high,29,0,29,0,1,,,,,,,,,
297103,2022-12-05_13h30.52.876,vts_reward_expectancy_bt,2022.2.4,MacIntel,60.0024001,Chrome,1440,900,,,,,10,743,,,,,,,,,,,,,,,,,F,132,star,1,0,,,,,,,,,,,,,,,,repeat,letter,lettRpt,d,2.92,Lo,,,,,,1,,,,,,,,high,30,0,30,0,1,,,,,,,,,
297103,2022-12-05_13h30.52.876,vts_reward_expectancy_bt,2022.2.4,MacIntel,60.0024001,Chrome,1440,900,,,,,0,743,,,,,,,,,,,,,,,,,W,181,circle,1,0,,,,,,,,,,,,,,,,repeat,letter,lettRpt,f,0.6672,Hi,,,,,,1,,,,,,,,high,31,0,31,0,1,,,,,,,,,
297103,2022-12-05_13h30.52.876,vts_reward_expectancy_bt,2022.2.4,MacIntel,60.0024001,Chrome,1440,900,,,,,0,743,,,,,,,,,,,,,,,,,F,132,hexagon,0,0,,,,,,,,,,,,,,,,repeat,letter,NA,f,0.819,Hi,,,,,,2,,,,,,space,1.3531,high,0,0,0,0,1,,,,,,,,,
297103,2022-12-05_13h30.52.876,vts_reward_expectancy_bt,2022.2.4,MacIntel,60.0024001,Chrome,1440,900,,,,,0,743,,,,,,,,,,,,,,,,,Y,181,star,-1,1,,,,,,,,,,,,,,,,switch,no_choice,NA,,,Hi,,,,,,2,,,,,,,,high,1,0,1,0,1,,,,,,,,,
297103,2022-12-05_13h30.52.876,vts_reward_expectancy_bt,2022.2.4,MacIntel,60.0024001,Chrome,1440,900,,,,,10,753,,,,,,,,,,,,,,,,,W,160,circle,1,0,,,,,,,,,,,,,,,,switch,number,numSwt,k,2.1327,Hi,,,,,,2,,,,,,,,high,2,0,2,0,1,,,,,,,,,
297103,2022-12-05_13h30.52.876,vts_reward_expectancy_bt,2022.2.4,MacIntel,60.0024001,Chrome,1440,900,,,,,10,763,,,,,,,,,,,,,,,,,B,174,triangle,1,0,,,,,,,,,,,,,,,,repeat,number,numRpt,k,0.435,Lo,,,,,,2,,,,,,,,high,3,0,3,0,1,,,,,,,,,
297103,2022-12-05_13h30.52.876,vts_reward_expectancy_bt,2022.2.4,MacIntel,60.0024001,Chrome,1440,900,,,,,0,763,,,,,,,,,,,,,,,,,U,125,hexagon,0,0,,,,,,,,,,,,,,,,repeat,number,NA,k,1.0146,Lo,,,,,,2,,,,,,,,high,4,0,4,0,1,,,,,,,,,
297103,2022-12-05_13h30.52.876,vts_reward_expectancy_bt,2022.2.4,MacIntel,60.0024001,Chrome,1440,900,,,,,0,763,,,,,,,,,,,,,,,,,H,139,star,0,1,,,,,,,,,,,,,,,,repeat,number,NA,k,1.7153,Lo,,,,,,2,,,,,,,,high,5,0,5,0,1,,,,,,,,,
297103,2022-12-05_13h30.52.876,vts_reward_expectancy_bt,2022.2.4,MacIntel,60.0024001,Chrome,1440,900,,,,,0,763,,,,,,,,,,,,,,,,,S,146,circle,-1,1,,,,,,,,,,,,,,,,switch,no_choice,NA,,,Lo,,,,,,2,,,,,,,,high,6,0,6,0,1,,,,,,,,,
297103,2022-12-05_13h30.52.876,vts_reward_expectancy_bt,2022.2.4,MacIntel,60.0024001,Chrome,1440,900,,,,,0,763,,,,,,,,,,,,,,,,,D,167,triangle,-1,0,,,,,,,,,,,,,,,,repeat,no_choice,NA,,,Lo,,,,,,2,,,,,,,,high,7,0,7,0,1,,,,,,,,,
297103,2022-12-05_13h30.52.876,vts_reward_expectancy_bt,2022.2.4,MacIntel,60.0024001,Chrome,1440,900,,,,,0,763,,,,,,,,,,,,,,,,,F,132,triangle,0,0,,,,,,,,,,,,,,,,switch,number,NA,k,0.5699,Lo,,,,,,2,,,,,,,,high,8,0,8,0,1,,,,,,,,,
297103,2022-12-05_13h30.52.876,vts_reward_expectancy_bt,2022.2.4,MacIntel,60.0024001,Chrome,1440,900,,,,,10,773,,,,,,,,,,,,,,,,,Y,181,hexagon,1,1,,,,,,,,,,,,,,,,repeat,number,numRpt,k,1.4658,Hi,,,,,,2,,,,,,,,high,9,0,9,0,1,,,,,,,,,
297103,2022-12-05_13h30.52.876,vts_reward_expectancy_bt,2022.2.4,MacIntel,60.0024001,Chrome,1440,900,,,,,10,783,,,,,,,,,,,,,,,,,W,160,circle,1,0,,,,,,,,,,,,,,,,repeat,number,numRpt,k,0.6344,Hi,,,,,,2,,,,,,,,high,10,0,10,0,1,,,,,,,,,
297103,2022-12-05_13h30.52.876,vts_reward_expectancy_bt,2022.2.4,MacIntel,60.0024001,Chrome,1440,900,,,,,1,784,,,,,,,,,,,,,,,,,B,174,star,1,0,,,,,,,,,,,,,,,,repeat,number,numRpt,k,1.0284,Lo,,,,,,2,,,,,,,,high,11,0,11,0,1,,,,,,,,,
297103,2022-12-05_13h30.52.876,vts_reward_expectancy_bt,2022.2.4,MacIntel,60.0024001,Chrome,1440,900,,,,,0,784,,,,,,,,,,,,,,,,,U,125,star,0,0,,,,,,,,,,,,,,,,repeat,number,NA,k,0.3665,Lo,,,,,,2,,,,,,,,high,12,0,12,0,1,,,,,,,,,
297103,2022-12-05_13h30.52.876,vts_reward_expectancy_bt,2022.2.4,MacIntel,60.0024001,Chrome,1440,900,,,,,0,784,,,,,,,,,,,,,,,,,H,139,circle,0,1,,,,,,,,,,,,,,,,repeat,number,NA,k,1.282,Lo,,,,,,2,,,,,,,,high,13,0,13,0,1,,,,,,,,,
297103,2022-12-05_13h30.52.876,vts_reward_expectancy_bt,2022.2.4,MacIntel,60.0024001,Chrome,1440,900,,,,,0,784,,,,,,,,,,,,,,,,,S,146,hexagon,0,1,,,,,,,,,,,,,,,,repeat,number,NA,k,2.152,Lo,,,,,,2,,,,,,,,high,14,0,14,0,1,,,,,,,,,
297103,2022-12-05_13h30.52.876,vts_reward_expectancy_bt,2022.2.4,MacIntel,60.0024001,Chrome,1440,900,,,,,1,785,,,,,,,,,,,,,,,,,D,167,triangle,1,1,,,,,,,,,,,,,,,,repeat,number,numRpt,k,0.2133,Lo,,,,,,2,,,,,,,,high,15,0,15,0,1,,,,,,,,,
297103,2022-12-05_13h30.52.876,vts_reward_expectancy_bt,2022.2.4,MacIntel,60.0024001,Chrome,1440,900,,,,,0,785,,,,,,,,,,,,,,,,,W,139,hexagon,0,0,,,,,,,,,,,,,,,,repeat,number,NA,k,2.6317,Lo,,,,,,2,,,,,,,,high,16,0,16,0,1,,,,,,,,,
297103,2022-12-05_13h30.52.876,vts_reward_expectancy_bt,2022.2.4,MacIntel,60.0024001,Chrome,1440,900,,,,,1,786,,,,,,,,,,,,,,,,,D,160,triangle,1,1,,,,,,,,,,,,,,,,repeat,number,numRpt,k,1.0806,Lo,,,,,,2,,,,,,,,high,17,0,17,0,1,,,,,,,,,
297103,2022-12-05_13h30.52.876,vts_reward_expectancy_bt,2022.2.4,MacIntel,60.0024001,Chrome,1440,900,,,,,0,786,,,,,,,,,,,,,,,,,U,146,circle,0,0,,,,,,,,,,,,,,,,repeat,number,NA,k,1.647,Lo,,,,,,2,,,,,,,,high,18,0,18,0,1,,,,,,,,,
297103,2022-12-05_13h30.52.876,vts_reward_expectancy_bt,2022.2.4,MacIntel,60.0024001,Chrome,1440,900,,,,,0,786,,,,,,,,,,,,,,,,,F,167,star,-1,1,,,,,,,,,,,,,,,,switch,no_choice,NA,,,Lo,,,,,,2,,,,,,,,high,19,0,19,0,1,,,,,,,,,
297103,2022-12-05_13h30.52.876,vts_reward_expectancy_bt,2022.2.4,MacIntel,60.0024001,Chrome,1440,900,,,,,0,786,,,,,,,,,,,,,,,,,H,132,triangle,0,0,,,,,,,,,,,,,,,,switch,number,NA,k,0.7301,Lo,,,,,,2,,,,,,,,high,20,0,20,0,1,,,,,,,,,
297103,2022-12-05_13h30.52.876,vts_reward_expectancy_bt,2022.2.4,MacIntel,60.0024001,Chrome,1440,900,,,,,10,796,,,,,,,,,,,,,,,,,Y,181,circle,1,1,,,,,,,,,,,,,,,,repeat,number,numRpt,k,0.7871,Hi,,,,,,2,,,,,,,,high,21,0,21,0,1,,,,,,,,,
297103,2022-12-05_13h30.52.876,vts_reward_expectancy_bt,2022.2.4,MacIntel,60.0024001,Chrome,1440,900,,,,,10,806,,,,,,,,,,,,,,,,,S,174,hexagon,1,0,,,,,,,,,,,,,,,,repeat,number,numRpt,k,0.5818,Hi,,,,,,2,,,,,,,,high,22,0,22,0,1,,,,,,,,,
297103,2022-12-05_13h30.52.876,vts_reward_expectancy_bt,2022.2.4,MacIntel,60.0024001,Chrome,1440,900,,,,,1,807,,,,,,,,,,,,,,,,,B,125,star,1,0,,,,,,,,,,,,,,,,repeat,number,numRpt,j,0.9153,Lo,,,,,,2,,,,,,,,high,23,0,23,0,1,,,,,,,,,
297103,2022-12-05_13h30.52.876,vts_reward_expectancy_bt,2022.2.4,MacIntel,60.0024001,Chrome,1440,900,,,,,0,807,,,,,,,,,,,,,,,,,D,160,star,-1,0,,,,,,,,,,,,,,,,switch,no_choice,NA,,,Lo,,,,,,2,,,,,,,,high,24,0,24,0,1,,,,,,,,,
297103,2022-12-05_13h30.52.876,vts_reward_expectancy_bt,2022.2.4,MacIntel,60.0024001,Chrome,1440,900,,,,,0,807,,,,,,,,,,,,,,,,,W,125,triangle,0,0,,,,,,,,,,,,,,,,switch,number,NA,k,0.7889,Lo,,,,,,2,,,,,,,,high,25,0,25,0,1,,,,,,,,,
297103,2022-12-05_13h30.52.876,vts_reward_expectancy_bt,2022.2.4,MacIntel,60.0024001,Chrome,1440,900,,,,,10,817,,,,,,,,,,,,,,,,,F,146,hexagon,1,1,,,,,,,,,,,,,,,,repeat,number,numRpt,j,0.4344,Hi,,,,,,2,,,,,,,,high,26,0,26,0,1,,,,,,,,,
297103,2022-12-05_13h30.52.876,vts_reward_expectancy_bt,2022.2.4,MacIntel,60.0024001,Chrome,1440,900,,,,,0,817,,,,,,,,,,,,,,,,,B,174,circle,0,0,,,,,,,,,,,,,,,,repeat,number,NA,j,1.2537,Hi,,,,,,2,,,,,,,,high,27,0,27,0,1,,,,,,,,,
297103,2022-12-05_13h30.52.876,vts_reward_expectancy_bt,2022.2.4,MacIntel,60.0024001,Chrome,1440,900,,,,,1,818,,,,,,,,,,,,,,,,,U,132,hexagon,1,1,,,,,,,,,,,,,,,,repeat,number,numRpt,j,0.2976,Hi,,,,,,2,,,,,,,,high,28,0,28,0,1,,,,,,,,,
297103,2022-12-05_13h30.52.876,vts_reward_expectancy_bt,2022.2.4,MacIntel,60.0024001,Chrome,1440,900,,,,,0,818,,,,,,,,,,,,,,,,,S,139,triangle,-1,0,,,,,,,,,,,,,,,,switch,no_choice,NA,,,Hi,,,,,,2,,,,,,,,high,29,0,29,0,1,,,,,,,,,
297103,2022-12-05_13h30.52.876,vts_reward_expectancy_bt,2022.2.4,MacIntel,60.0024001,Chrome,1440,900,,,,,0,818,,,,,,,,,,,,,,,,,H,167,circle,-1,0,,,,,,,,,,,,,,,,repeat,no_choice,NA,,,Hi,,,,,,2,,,,,,,,high,30,0,30,0,1,,,,,,,,,
297103,2022-12-05_13h30.52.876,vts_reward_expectancy_bt,2022.2.4,MacIntel,60.0024001,Chrome,1440,900,,,,,0,818,,,,,,,,,,,,,,,,,Y,181,star,-1,0,,,,,,,,,,,,,,,,repeat,no_choice,NA,,,Hi,,,,,,2,,,,,,,,high,31,0,31,0,1,,,,,,,,,
297103,2022-12-05_13h30.52.876,vts_reward_expectancy_bt,2022.2.4,MacIntel,60.0024001,Chrome,1440,900,,,,,0,818,,,,,,,,,,,,,,,,,H,125,circle,-1,0,,,,,,,,,,,,,,,,repeat,no_choice,NA,,,Hi,,,,,,3,,,,,,space,1.3416,high,0,0,0,0,1,,,,,,,,,
297103,2022-12-05_13h30.52.876,vts_reward_expectancy_bt,2022.2.4,MacIntel,60.0024001,Chrome,1440,900,,,,,0,818,,,,,,,,,,,,,,,,,S,139,triangle,-1,0,,,,,,,,,,,,,,,,repeat,no_choice,NA,,,Hi,,,,,,3,,,,,,,,high,1,0,1,0,1,,,,,,,,,
297103,2022-12-05_13h30.52.876,vts_reward_expectancy_bt,2022.2.4,MacIntel,60.0024001,Chrome,1440,900,,,,,0,818,,,,,,,,,,,,,,,,,U,132,hexagon,-1,0,,,,,,,,,,,,,,,,repeat,no_choice,NA,,,Hi,,,,,,3,,,,,,,,high,2,0,2,0,1,,,,,,,,,
297103,2022-12-05_13h30.52.876,vts_reward_expectancy_bt,2022.2.4,MacIntel,60.0024001,Chrome,1440,900,,,,,10,828,,,,,,,,,,,,,,,,,D,160,star,1,0,,,,,,,,,,,,,,,,switch,number,numSwt,k,1.3568,Lo,,,,,,3,,,,,,,,high,3,0,3,0,1,,,,,,,,,
297103,2022-12-05_13h30.52.876,vts_reward_expectancy_bt,2022.2.4,MacIntel,60.0024001,Chrome,1440,900,,,,,0,828,,,,,,,,,,,,,,,,,Y,174,circle,-1,0,,,,,,,,,,,,,,,,switch,no_choice,NA,,,Lo,,,,,,3,,,,,,,,high,4,0,4,0,1,,,,,,,,,
297103,2022-12-05_13h30.52.876,vts_reward_expectancy_bt,2022.2.4,MacIntel,60.0024001,Chrome,1440,900,,,,,0,828,,,,,,,,,,,,,,,,,F,167,triangle,-1,0,,,,,,,,,,,,,,,,repeat,no_choice,NA,,,Lo,,,,,,3,,,,,,,,high,5,0,5,0,1,,,,,,,,,
297103,2022-12-05_13h30.52.876,vts_reward_expectancy_bt,2022.2.4,MacIntel,60.0024001,Chrome,1440,900,,,,,0,828,,,,,,,,,,,,,,,,,B,181,hexagon,-1,0,,,,,,,,,,,,,,,,repeat,no_choice,NA,,,Lo,,,,,,3,,,,,,,,high,6,0,6,0,1,,,,,,,,,
297103,2022-12-05_13h30.52.876,vts_reward_expectancy_bt,2022.2.4,MacIntel,60.0024001,Chrome,1440,900,,,,,0,828,,,,,,,,,,,,,,,,,W,146,star,-1,0,,,,,,,,,,,,,,,,repeat,no_choice,NA,,,Lo,,,,,,3,,,,,,,,high,7,0,7,0,1,,,,,,,,,
297103,2022-12-05_13h30.52.876,vts_reward_expectancy_bt,2022.2.4,MacIntel,60.0024001,Chrome,1440,900,,,,,0,828,,,,,,,,,,,,,,,,,H,125,triangle,-1,0,,,,,,,,,,,,,,,,repeat,no_choice,NA,,,Lo,,,,,,3,,,,,,,,high,8,0,8,0,1,,,,,,,,,
297103,2022-12-05_13h30.52.876,vts_reward_expectancy_bt,2022.2.4,MacIntel,60.0024001,Chrome,1440,900,,,,,0,828,,,,,,,,,,,,,,,,,S,139,star,0,0,,,,,,,,,,,,,,,,switch,number,NA,k,0.6316,Lo,,,,,,3,,,,,,,,high,9,0,9,0,1,,,,,,,,,
297103,2022-12-05_13h30.52.876,vts_reward_expectancy_bt,2022.2.4,MacIntel,60.0024001,Chrome,1440,900,,,,,0,828,,,,,,,,,,,,,,,,,U,132,circle,1,1,,,,,,,,,,,,,,,,repeat,number,numRpt,j,0.816,Hi,,,,,,3,,,,,,,,high,10,0,10,0,1,,,,,,,,,
297103,2022-12-05_13h30.52.876,vts_reward_expectancy_bt,2022.2.4,MacIntel,60.0024001,Chrome,1440,900,,,,,0,828,,,,,,,,,,,,,,,,,D,160,hexagon,1,0,,,,,,,,,,,,,,,,repeat,number,numRpt,k,0.5616,Hi,,,,,,3,,,,,,,,high,11,0,11,0,1,,,,,,,,,
297103,2022-12-05_13h30.52.876,vts_reward_expectancy_bt,2022.2.4,MacIntel,60.0024001,Chrome,1440,900,,,,,0,828,,,,,,,,,,,,,,,,,Y,174,triangle,-1,0,,,,,,,,,,,,,,,,switch,no_choice,NA,,,Hi,,,,,,3,,,,,,,,high,12,0,12,0,1,,,,,,,,,
297103,2022-12-05_13h30.52.876,vts_reward_expectancy_bt,2022.2.4,MacIntel,60.0024001,Chrome,1440,900,,,,,0,828,,,,,,,,,,,,,,,,,F,167,circle,-1,0,,,,,,,,,,,,,,,,repeat,no_choice,NA,,,Hi,,,,,,3,,,,,,,,high,13,0,13,0,1,,,,,,,,,
297103,2022-12-05_13h30.52.876,vts_reward_expectancy_bt,2022.2.4,MacIntel,60.0024001,Chrome,1440,900,,,,,0,828,,,,,,,,,,,,,,,,,B,181,star,-1,0,,,,,,,,,,,,,,,,repeat,no_choice,NA,,,Hi,,,,,,3,,,,,,,,high,14,0,14,0,1,,,,,,,,,
297103,2022-12-05_13h30.52.876,vts_reward_expectancy_bt,2022.2.4,MacIntel,60.0024001,Chrome,1440,900,,,,,0,828,,,,,,,,,,,,,,,,,W,146,hexagon,-1,0,,,,,,,,,,,,,,,,repeat,no_choice,NA,,,Hi,,,,,,3,,,,,,,,high,15,0,15,0,1,,,,,,,,,
297103,2022-12-05_13h30.52.876,vts_reward_expectancy_bt,2022.2.4,MacIntel,60.0024001,Chrome,1440,900,,,,,1,829,,,,,,,,,,,,,,,,,U,146,triangle,1,0,,,,,,,,,,,,,,,,switch,number,numSwt,j,2.5994,Lo,,,,,,3,,,,,,,,high,16,0,16,0,1,,,,,,,,,
297103,2022-12-05_13h30.52.876,vts_reward_expectancy_bt,2022.2.4,MacIntel,60.0024001,Chrome,1440,900,,,,,0,829,,,,,,,,,,,,,,,,,Y,132,circle,-1,0,,,,,,,,,,,,,,,,switch,no_choice,NA,,,Lo,,,,,,3,,,,,,,,high,17,0,17,0,1,,,,,,,,,
297103,2022-12-05_13h30.52.876,vts_reward_expectancy_bt,2022.2.4,MacIntel,60.0024001,Chrome,1440,900,,,,,0,829,,,,,,,,,,,,,,,,,F,160,hexagon,1,0,,,,,,,,,,,,,,,,switch,number,numSwt,k,2.3983,Hi,,,,,,3,,,,,,,,high,18,0,18,0,1,,,,,,,,,
297103,2022-12-05_13h30.52.876,vts_reward_expectancy_bt,2022.2.4,MacIntel,60.0024001,Chrome,1440,900,,,,,0,829,,,,,,,,,,,,,,,,,W,174,star,-1,0,,,,,,,,,,,,,,,,switch,no_choice,NA,,,Hi,,,,,,3,,,,,,,,high,19,0,19,0,1,,,,,,,,,
297103,2022-12-05_13h30.52.876,vts_reward_expectancy_bt,2022.2.4,MacIntel,60.0024001,Chrome,1440,900,,,,,10,839,,,,,,,,,,,,,,,,,S,167,hexagon,1,0,,,,,,,,,,,,,,,,switch,number,numSwt,k,0.4999,Hi,,,,,,3,,,,,,,,high,20,0,20,0,1,,,,,,,,,
297103,2022-12-05_13h30.52.876,vts_reward_expectancy_bt,2022.2.4,MacIntel,60.0024001,Chrome,1440,900,,,,,0,839,,,,,,,,,,,,,,,,,H,181,circle,-1,0,,,,,,,,,,,,,,,,switch,no_choice,NA,,,Hi,,,,,,3,,,,,,,,high,21,0,21,0,1,,,,,,,,,
297103,2022-12-05_13h30.52.876,vts_reward_expectancy_bt,2022.2.4,MacIntel,60.0024001,Chrome,1440,900,,,,,0,839,,,,,,,,,,,,,,,,,D,125,star,-1,0,,,,,,,,,,,,,,,,repeat,no_choice,NA,,,Hi,,,,,,3,,,,,,,,high,22,0,22,0,1,,,,,,,,,
297103,2022-12-05_13h30.52.876,vts_reward_expectancy_bt,2022.2.4,MacIntel,60.0024001,Chrome,1440,900,,,,,0,839,,,,,,,,,,,,,,,,,B,139,triangle,-1,0,,,,,,,,,,,,,,,,repeat,no_choice,NA,,,Hi,,,,,,3,,,,,,,,high,23,0,23,0,1,,,,,,,,,
297103,2022-12-05_13h30.52.876,vts_reward_expectancy_bt,2022.2.4,MacIntel,60.0024001,Chrome,1440,900,,,,,0,839,,,,,,,,,,,,,,,,,H,146,circle,-1,0,,,,,,,,,,,,,,,,repeat,no_choice,NA,,,Hi,,,,,,3,,,,,,,,high,24,0,24,0,1,,,,,,,,,
297103,2022-12-05_13h30.52.876,vts_reward_expectancy_bt,2022.2.4,MacIntel,60.0024001,Chrome,1440,900,,,,,0,839,,,,,,,,,,,,,,,,,W,160,triangle,-1,0,,,,,,,,,,,,,,,,repeat,no_choice,NA,,,Hi,,,,,,3,,,,,,,,high,25,0,25,0,1,,,,,,,,,
297103,2022-12-05_13h30.52.876,vts_reward_expectancy_bt,2022.2.4,MacIntel,60.0024001,Chrome,1440,900,,,,,0,839,,,,,,,,,,,,,,,,,U,125,hexagon,-1,0,,,,,,,,,,,,,,,,repeat,no_choice,NA,,,Hi,,,,,,3,,,,,,,,high,26,0,26,0,1,,,,,,,,,
297103,2022-12-05_13h30.52.876,vts_reward_expectancy_bt,2022.2.4,MacIntel,60.0024001,Chrome,1440,900,,,,,0,839,,,,,,,,,,,,,,,,,D,181,star,-1,0,,,,,,,,,,,,,,,,repeat,no_choice,NA,,,Hi,,,,,,3,,,,,,,,high,27,0,27,0,1,,,,,,,,,
297103,2022-12-05_13h30.52.876,vts_reward_expectancy_bt,2022.2.4,MacIntel,60.0024001,Chrome,1440,900,,,,,0,839,,,,,,,,,,,,,,,,,F,174,triangle,-1,0,,,,,,,,,,,,,,,,repeat,no_choice,NA,,,Hi,,,,,,3,,,,,,,,high,28,0,28,0,1,,,,,,,,,
297103,2022-12-05_13h30.52.876,vts_reward_expectancy_bt,2022.2.4,MacIntel,60.0024001,Chrome,1440,900,,,,,0,839,,,,,,,,,,,,,,,,,Y,167,hexagon,-1,0,,,,,,,,,,,,,,,,repeat,no_choice,NA,,,Hi,,,,,,3,,,,,,,,high,29,0,29,0,1,,,,,,,,,
297103,2022-12-05_13h30.52.876,vts_reward_expectancy_bt,2022.2.4,MacIntel,60.0024001,Chrome,1440,900,,,,,10,849,,,,,,,,,,,,,,,,,S,132,circle,1,0,,,,,,,,,,,,,,,,switch,number,numSwt,j,1.0472,Hi,,,,,,3,,,,,,,,high,30,0,30,0,1,,,,,,,,,
297103,2022-12-05_13h30.52.876,vts_reward_expectancy_bt,2022.2.4,MacIntel,60.0024001,Chrome,1440,900,,,,,10,859,,,,,,,,,,,,,,,,,B,139,star,1,0,,,,,,,,,,,,,,,,repeat,number,numRpt,j,0.5214,Lo,,,,,,3,,,,,,,,high,31,0,31,0,1,,,,,,,,,
297103,2022-12-05_13h30.52.876,vts_reward_expectancy_bt,2022.2.4,MacIntel,60.0024001,Chrome,1440,900,,,,,0,859,,,,,,,,,,,,,,,,,D,132,star,-1,0,,,,,,,,,,,,,,,,switch,no_choice,NA,,,Lo,,,,,,4,,,,,,space,1.407,high,0,0,0,0,1,,,,,,,,,
297103,2022-12-05_13h30.52.876,vts_reward_expectancy_bt,2022.2.4,MacIntel,60.0024001,Chrome,1440,900,,,,,0,859,,,,,,,,,,,,,,,,,B,139,triangle,-1,0,,,,,,,,,,,,,,,,repeat,no_choice,NA,,,Lo,,,,,,4,,,,,,,,high,1,0,1,0,1,,,,,,,,,
297103,2022-12-05_13h30.52.876,vts_reward_expectancy_bt,2022.2.4,MacIntel,60.0024001,Chrome,1440,900,,,,,10,869,,,,,,,,,,,,,,,,,F,146,circle,1,0,,,,,,,,,,,,,,,,switch,number,numSwt,j,1.0385,Hi,,,,,,4,,,,,,,,high,2,0,2,0,1,,,,,,,,,
297103,2022-12-05_13h30.52.876,vts_reward_expectancy_bt,2022.2.4,MacIntel,60.0024001,Chrome,1440,900,,,,,0,869,,,,,,,,,,,,,,,,,H,125,hexagon,1,0,,,,,,,,,,,,,,,,repeat,number,numRpt,j,0.8998,Hi,,,,,,4,,,,,,,,high,3,0,3,0,1,,,,,,,,,
297103,2022-12-05_13h30.52.876,vts_reward_expectancy_bt,2022.2.4,MacIntel,60.0024001,Chrome,1440,900,,,,,0,869,,,,,,,,,,,,,,,,,W,174,star,-1,0,,,,,,,,,,,,,,,,switch,no_choice,NA,,,Hi,,,,,,4,,,,,,,,high,4,0,4,0,1,,,,,,,,,
297103,2022-12-05_13h30.52.876,vts_reward_expectancy_bt,2022.2.4,MacIntel,60.0024001,Chrome,1440,900,,,,,0,869,,,,,,,,,,,,,,,,,Y,181,triangle,-1,0,,,,,,,,,,,,,,,,repeat,no_choice,NA,,,Hi,,,,,,4,,,,,,,,high,5,0,5,0,1,,,,,,,,,
297103,2022-12-05_13h30.52.876,vts_reward_expectancy_bt,2022.2.4,MacIntel,60.0024001,Chrome,1440,900,,,,,0,869,,,,,,,,,,,,,,,,,U,160,circle,-1,0,,,,,,,,,,,,,,,,repeat,no_choice,NA,,,Hi,,,,,,4,,,,,,,,high,6,0,6,0,1,,,,,,,,,
297103,2022-12-05_13h30.52.876,vts_reward_expectancy_bt,2022.2.4,MacIntel,60.0024001,Chrome,1440,900,,,,,0,869,,,,,,,,,,,,,,,,,S,167,hexagon,-1,0,,,,,,,,,,,,,,,,repeat,no_choice,NA,,,Hi,,,,,,4,,,,,,,,high,7,0,7,0,1,,,,,,,,,
297103,2022-12-05_13h30.52.876,vts_reward_expectancy_bt,2022.2.4,MacIntel,60.0024001,Chrome,1440,900,,,,,0,869,,,,,,,,,,,,,,,,,D,132,hexagon,-1,0,,,,,,,,,,,,,,,,repeat,no_choice,NA,,,Hi,,,,,,4,,,,,,,,high,8,0,8,0,1,,,,,,,,,
297103,2022-12-05_13h30.52.876,vts_reward_expectancy_bt,2022.2.4,MacIntel,60.0024001,Chrome,1440,900,,,,,0,869,,,,,,,,,,,,,,,,,B,139,circle,-1,0,,,,,,,,,,,,,,,,repeat,no_choice,NA,,,Hi,,,,,,4,,,,,,,,high,9,0,9,0,1,,,,,,,,,
297103,2022-12-05_13h30.52.876,vts_reward_expectancy_bt,2022.2.4,MacIntel,60.0024001,Chrome,1440,900,,,,,0,869,,,,,,,,,,,,,,,,,F,146,star,-1,0,,,,,,,,,,,,,,,,repeat,no_choice,NA,,,Hi,,,,,,4,,,,,,,,high,10,0,10,0,1,,,,,,,,,
297103,2022-12-05_13h30.52.876,vts_reward_expectancy_bt,2022.2.4,MacIntel,60.0024001,Chrome,1440,900,,,,,0,869,,,,,,,,,,,,,,,,,H,125,triangle,-1,0,,,,,,,,,,,,,,,,repeat,no_choice,NA,,,Hi,,,,,,4,,,,,,,,high,11,0,11,0,1,,,,,,,,,
297103,2022-12-05_13h30.52.876,vts_reward_expectancy_bt,2022.2.4,MacIntel,60.0024001,Chrome,1440,900,,,,,0,869,,,,,,,,,,,,,,,,,W,174,star,-1,0,,,,,,,,,,,,,,,,repeat,no_choice,NA,,,Hi,,,,,,4,,,,,,,,high,12,0,12,0,1,,,,,,,,,
297103,2022-12-05_13h30.52.876,vts_reward_expectancy_bt,2022.2.4,MacIntel,60.0024001,Chrome,1440,900,,,,,0,869,,,,,,,,,,,,,,,,,Y,181,triangle,-1,0,,,,,,,,,,,,,,,,repeat,no_choice,NA,,,Hi,,,,,,4,,,,,,,,high,13,0,13,0,1,,,,,,,,,
297103,2022-12-05_13h30.52.876,vts_reward_expectancy_bt,2022.2.4,MacIntel,60.0024001,Chrome,1440,900,,,,,0,869,,,,,,,,,,,,,,,,,U,160,circle,-1,0,,,,,,,,,,,,,,,,repeat,no_choice,NA,,,Hi,,,,,,4,,,,,,,,high,14,0,14,0,1,,,,,,,,,
297103,2022-12-05_13h30.52.876,vts_reward_expectancy_bt,2022.2.4,MacIntel,60.0024001,Chrome,1440,900,,,,,0,869,,,,,,,,,,,,,,,,,S,167,hexagon,-1,0,,,,,,,,,,,,,,,,repeat,no_choice,NA,,,Hi,,,,,,4,,,,,,,,high,15,0,15,0,1,,,,,,,,,
297103,2022-12-05_13h30.52.876,vts_reward_expectancy_bt,2022.2.4,MacIntel,60.0024001,Chrome,1440,900,,,,,0,869,,,,,,,,,,,,,,,,,F,181,circle,-1,0,,,,,,,,,,,,,,,,repeat,no_choice,NA,,,Hi,,,,,,4,,,,,,,,high,16,0,16,0,1,,,,,,,,,
297103,2022-12-05_13h30.52.876,vts_reward_expectancy_bt,2022.2.4,MacIntel,60.0024001,Chrome,1440,900,,,,,0,869,,,,,,,,,,,,,,,,,U,174,star,-1,0,,,,,,,,,,,,,,,,repeat,no_choice,NA,,,Hi,,,,,,4,,,,,,,,high,17,0,17,0,1,,,,,,,,,
297103,2022-12-05_13h30.52.876,vts_reward_expectancy_bt,2022.2.4,MacIntel,60.0024001,Chrome,1440,900,,,,,0,869,,,,,,,,,,,,,,,,,D,146,triangle,-1,0,,,,,,,,,,,,,,,,repeat,no_choice,NA,,,Hi,,,,,,4,,,,,,,,high,18,0,18,0,1,,,,,,,,,
297103,2022-12-05_13h30.52.876,vts_reward_expectancy_bt,2022.2.4,MacIntel,60.0024001,Chrome,1440,900,,,,,0,869,,,,,,,,,,,,,,,,,W,125,hexagon,-1,0,,,,,,,,,,,,,,,,repeat,no_choice,NA,,,Hi,,,,,,4,,,,,,,,high,19,0,19,0,1,,,,,,,,,
297103,2022-12-05_13h30.52.876,vts_reward_expectancy_bt,2022.2.4,MacIntel,60.0024001,Chrome,1440,900,,,,,0,869,,,,,,,,,,,,,,,,,H,167,circle,-1,0,,,,,,,,,,,,,,,,repeat,no_choice,NA,,,Hi,,,,,,4,,,,,,,,high,20,0,20,0,1,,,,,,,,,
297103,2022-12-05_13h30.52.876,vts_reward_expectancy_bt,2022.2.4,MacIntel,60.0024001,Chrome,1440,900,,,,,0,869,,,,,,,,,,,,,,,,,S,160,triangle,-1,0,,,,,,,,,,,,,,,,repeat,no_choice,NA,,,Hi,,,,,,4,,,,,,,,high,21,0,21,0,1,,,,,,,,,
297103,2022-12-05_13h30.52.876,vts_reward_expectancy_bt,2022.2.4,MacIntel,60.0024001,Chrome,1440,900,,,,,0,869,,,,,,,,,,,,,,,,,B,132,hexagon,-1,0,,,,,,,,,,,,,,,,repeat,no_choice,NA,,,Hi,,,,,,4,,,,,,,,high,22,0,22,0,1,,,,,,,,,
297103,2022-12-05_13h30.52.876,vts_reward_expectancy_bt,2022.2.4,MacIntel,60.0024001,Chrome,1440,900,,,,,0,869,,,,,,,,,,,,,,,,,Y,139,star,-1,0,,,,,,,,,,,,,,,,repeat,no_choice,NA,,,Hi,,,,,,4,,,,,,,,high,23,0,23,0,1,,,,,,,,,
297103,2022-12-05_13h30.52.876,vts_reward_expectancy_bt,2022.2.4,MacIntel,60.0024001,Chrome,1440,900,,,,,0,869,,,,,,,,,,,,,,,,,S,146,hexagon,-1,0,,,,,,,,,,,,,,,,repeat,no_choice,NA,,,Hi,,,,,,4,,,,,,,,high,24,0,24,0,1,,,,,,,,,
297103,2022-12-05_13h30.52.876,vts_reward_expectancy_bt,2022.2.4,MacIntel,60.0024001,Chrome,1440,900,,,,,0,869,,,,,,,,,,,,,,,,,F,139,circle,-1,0,,,,,,,,,,,,,,,,repeat,no_choice,NA,,,Hi,,,,,,4,,,,,,,,high,25,0,25,0,1,,,,,,,,,
297103,2022-12-05_13h30.52.876,vts_reward_expectancy_bt,2022.2.4,MacIntel,60.0024001,Chrome,1440,900,,,,,0,869,,,,,,,,,,,,,,,,,W,167,star,-1,0,,,,,,,,,,,,,,,,repeat,no_choice,NA,,,Hi,,,,,,4,,,,,,,,high,26,0,26,0,1,,,,,,,,,
297103,2022-12-05_13h30.52.876,vts_reward_expectancy_bt,2022.2.4,MacIntel,60.0024001,Chrome,1440,900,,,,,0,869,,,,,,,,,,,,,,,,,B,132,triangle,-1,0,,,,,,,,,,,,,,,,repeat,no_choice,NA,,,Hi,,,,,,4,,,,,,,,high,27,0,27,0,1,,,,,,,,,
297103,2022-12-05_13h30.52.876,vts_reward_expectancy_bt,2022.2.4,MacIntel,60.0024001,Chrome,1440,900,,,,,0,869,,,,,,,,,,,,,,,,,Y,160,triangle,-1,0,,,,,,,,,,,,,,,,repeat,no_choice,NA,,,Hi,,,,,,4,,,,,,,,high,28,0,28,0,1,,,,,,,,,
297103,2022-12-05_13h30.52.876,vts_reward_expectancy_bt,2022.2.4,MacIntel,60.0024001,Chrome,1440,900,,,,,0,869,,,,,,,,,,,,,,,,,H,125,hexagon,-1,0,,,,,,,,,,,,,,,,repeat,no_choice,NA,,,Hi,,,,,,4,,,,,,,,high,29,0,29,0,1,,,,,,,,,
297103,2022-12-05_13h30.52.876,vts_reward_expectancy_bt,2022.2.4,MacIntel,60.0024001,Chrome,1440,900,,,,,0,869,,,,,,,,,,,,,,,,,D,181,star,-1,0,,,,,,,,,,,,,,,,repeat,no_choice,NA,,,Hi,,,,,,4,,,,,,,,high,30,0,30,0,1,,,,,,,,,
297103,2022-12-05_13h30.52.876,vts_reward_expectancy_bt,2022.2.4,MacIntel,60.0024001,Chrome,1440,900,,,,,0,869,,,,,,,,,,,,,,,,,U,174,circle,-1,0,,,,,,,,,,,,,,,,repeat,no_choice,NA,,,Hi,,,,,,4,,,,,,,,high,31,0,31,0,1,,,,,,,,,
297103,2022-12-05_13h30.52.876,vts_reward_expectancy_bt,2022.2.4,MacIntel,60.0024001,Chrome,1440,900,,,,,0,869,,,,,,,,,,,,,,,,,W,132,triangle,-1,0,,,,,,,,,,,,,,,,repeat,no_choice,NA,,,Hi,,,,,,5,,,,,,space,1.5884,high,0,0,0,0,1,,,,,,,,,
297103,2022-12-05_13h30.52.876,vts_reward_expectancy_bt,2022.2.4,MacIntel,60.0024001,Chrome,1440,900,,,,,0,869,,,,,,,,,,,,,,,,,U,139,hexagon,-1,0,,,,,,,,,,,,,,,,repeat,no_choice,NA,,,Hi,,,,,,5,,,,,,,,high,1,0,1,0,1,,,,,,,,,
297103,2022-12-05_13h30.52.876,vts_reward_expectancy_bt,2022.2.4,MacIntel,60.0024001,Chrome,1440,900,,,,,0,869,,,,,,,,,,,,,,,,,S,146,star,-1,0,,,,,,,,,,,,,,,,repeat,no_choice,NA,,,Hi,,,,,,5,,,,,,,,high,2,0,2,0,1,,,,,,,,,
297103,2022-12-05_13h30.52.876,vts_reward_expectancy_bt,2022.2.4,MacIntel,60.0024001,Chrome,1440,900,,,,,0,869,,,,,,,,,,,,,,,,,D,181,circle,-1,0,,,,,,,,,,,,,,,,repeat,no_choice,NA,,,Hi,,,,,,5,,,,,,,,high,3,0,3,0,1,,,,,,,,,
297103,2022-12-05_13h30.52.876,vts_reward_expectancy_bt,2022.2.4,MacIntel,60.0024001,Chrome,1440,900,,,,,0,869,,,,,,,,,,,,,,,,,Y,167,triangle,-1,0,,,,,,,,,,,,,,,,repeat,no_choice,NA,,,Hi,,,,,,5,,,,,,,,high,4,0,4,0,1,,,,,,,,,
297103,2022-12-05_13h30.52.876,vts_reward_expectancy_bt,2022.2.4,MacIntel,60.0024001,Chrome,1440,900,,,,,0,869,,,,,,,,,,,,,,,,,B,160,hexagon,-1,0,,,,,,,,,,,,,,,,repeat,no_choice,NA,,,Hi,,,,,,5,,,,,,,,high,5,0,5,0,1,,,,,,,,,
297103,2022-12-05_13h30.52.876,vts_reward_expectancy_bt,2022.2.4,MacIntel,60.0024001,Chrome,1440,900,,,,,0,869,,,,,,,,,,,,,,,,,H,174,star,-1,0,,,,,,,,,,,,,,,,repeat,no_choice,NA,,,Hi,,,,,,5,,,,,,,,high,6,0,6,0,1,,,,,,,,,
297103,2022-12-05_13h30.52.876,vts_reward_expectancy_bt,2022.2.4,MacIntel,60.0024001,Chrome,1440,900,,,,,0,869,,,,,,,,,,,,,,,,,F,125,circle,-1,0,,,,,,,,,,,,,,,,repeat,no_choice,NA,,,Hi,,,,,,5,,,,,,,,high,7,0,7,0,1,,,,,,,,,
297103,2022-12-05_13h30.52.876,vts_reward_expectancy_bt,2022.2.4,MacIntel,60.0024001,Chrome,1440,900,,,,,0,869,,,,,,,,,,,,,,,,,W,132,triangle,-1,0,,,,,,,,,,,,,,,,repeat,no_choice,NA,,,Hi,,,,,,5,,,,,,,,high,8,0,8,0,1,,,,,,,,,
297103,2022-12-05_13h30.52.876,vts_reward_expectancy_bt,2022.2.4,MacIntel,60.0024001,Chrome,1440,900,,,,,0,869,,,,,,,,,,,,,,,,,U,139,hexagon,-1,0,,,,,,,,,,,,,,,,repeat,no_choice,NA,,,Hi,,,,,,5,,,,,,,,high,9,0,9,0,1,,,,,,,,,
297103,2022-12-05_13h30.52.876,vts_reward_expectancy_bt,2022.2.4,MacIntel,60.0024001,Chrome,1440,900,,,,,0,869,,,,,,,,,,,,,,,,,S,146,circle,-1,0,,,,,,,,,,,,,,,,repeat,no_choice,NA,,,Hi,,,,,,5,,,,,,,,high,10,0,10,0,1,,,,,,,,,
297103,2022-12-05_13h30.52.876,vts_reward_expectancy_bt,2022.2.4,MacIntel,60.0024001,Chrome,1440,900,,,,,0,869,,,,,,,,,,,,,,,,,D,181,star,-1,0,,,,,,,,,,,,,,,,repeat,no_choice,NA,,,Hi,,,,,,5,,,,,,,,high,11,0,11,0,1,,,,,,,,,
297103,2022-12-05_13h30.52.876,vts_reward_expectancy_bt,2022.2.4,MacIntel,60.0024001,Chrome,1440,900,,,,,0,869,,,,,,,,,,,,,,,,,Y,167,circle,-1,0,,,,,,,,,,,,,,,,repeat,no_choice,NA,,,Hi,,,,,,5,,,,,,,,high,12,0,12,0,1,,,,,,,,,
297103,2022-12-05_13h30.52.876,vts_reward_expectancy_bt,2022.2.4,MacIntel,60.0024001,Chrome,1440,900,,,,,0,869,,,,,,,,,,,,,,,,,B,160,triangle,-1,0,,,,,,,,,,,,,,,,repeat,no_choice,NA,,,Hi,,,,,,5,,,,,,,,high,13,0,13,0,1,,,,,,,,,
297103,2022-12-05_13h30.52.876,vts_reward_expectancy_bt,2022.2.4,MacIntel,60.0024001,Chrome,1440,900,,,,,0,869,,,,,,,,,,,,,,,,,H,174,hexagon,-1,0,,,,,,,,,,,,,,,,repeat,no_choice,NA,,,Hi,,,,,,5,,,,,,,,high,14,0,14,0,1,,,,,,,,,
297103,2022-12-05_13h30.52.876,vts_reward_expectancy_bt,2022.2.4,MacIntel,60.0024001,Chrome,1440,900,,,,,0,869,,,,,,,,,,,,,,,,,F,125,star,-1,0,,,,,,,,,,,,,,,,repeat,no_choice,NA,,,Hi,,,,,,5,,,,,,,,high,15,0,15,0,1,,,,,,,,,
297103,2022-12-05_13h30.52.876,vts_reward_expectancy_bt,2022.2.4,MacIntel,60.0024001,Chrome,1440,900,,,,,0,869,,,,,,,,,,,,,,,,,D,167,hexagon,-1,0,,,,,,,,,,,,,,,,repeat,no_choice,NA,,,Hi,,,,,,5,,,,,,,,high,16,0,16,0,1,,,,,,,,,
297103,2022-12-05_13h30.52.876,vts_reward_expectancy_bt,2022.2.4,MacIntel,60.0024001,Chrome,1440,900,,,,,0,869,,,,,,,,,,,,,,,,,B,139,circle,-1,0,,,,,,,,,,,,,,,,repeat,no_choice,NA,,,Hi,,,,,,5,,,,,,,,high,17,0,17,0,1,,,,,,,,,
297103,2022-12-05_13h30.52.876,vts_reward_expectancy_bt,2022.2.4,MacIntel,60.0024001,Chrome,1440,900,,,,,0,869,,,,,,,,,,,,,,,,,S,181,triangle,-1,0,,,,,,,,,,,,,,,,repeat,no_choice,NA,,,Hi,,,,,,5,,,,,,,,high,18,0,18,0,1,,,,,,,,,
297103,2022-12-05_13h30.52.876,vts_reward_expectancy_bt,2022.2.4,MacIntel,60.0024001,Chrome,1440,900,,,,,0,869,,,,,,,,,,,,,,,,,H,125,star,-1,0,,,,,,,,,,,,,,,,repeat,no_choice,NA,,,Hi,,,,,,5,,,,,,,,high,19,0,19,0,1,,,,,,,,,
297103,2022-12-05_13h30.52.876,vts_reward_expectancy_bt,2022.2.4,MacIntel,60.0024001,Chrome,1440,900,,,,,0,869,,,,,,,,,,,,,,,,,W,132,triangle,-1,0,,,,,,,,,,,,,,,,repeat,no_choice,NA,,,Hi,,,,,,5,,,,,,,,high,20,0,20,0,1,,,,,,,,,
297103,2022-12-05_13h30.52.876,vts_reward_expectancy_bt,2022.2.4,MacIntel,60.0024001,Chrome,1440,900,,,,,0,869,,,,,,,,,,,,,,,,,F,160,hexagon,-1,0,,,,,,,,,,,,,,,,repeat,no_choice,NA,,,Hi,,,,,,5,,,,,,,,high,21,0,21,0,1,,,,,,,,,
297103,2022-12-05_13h30.52.876,vts_reward_expectancy_bt,2022.2.4,MacIntel,60.0024001,Chrome,1440,900,,,,,0,869,,,,,,,,,,,,,,,,,U,174,star,-1,0,,,,,,,,,,,,,,,,repeat,no_choice,NA,,,Hi,,,,,,5,,,,,,,,high,22,0,22,0,1,,,,,,,,,
297103,2022-12-05_13h30.52.876,vts_reward_expectancy_bt,2022.2.4,MacIntel,60.0024001,Chrome,1440,900,,,,,0,869,,,,,,,,,,,,,,,,,Y,146,circle,-1,0,,,,,,,,,,,,,,,,repeat,no_choice,NA,,,Hi,,,,,,5,,,,,,,,high,23,0,23,0,1,,,,,,,,,
297103,2022-12-05_13h30.52.876,vts_reward_expectancy_bt,2022.2.4,MacIntel,60.0024001,Chrome,1440,900,,,,,0,869,,,,,,,,,,,,,,,,,D,167,circle,-1,0,,,,,,,,,,,,,,,,repeat,no_choice,NA,,,Hi,,,,,,5,,,,,,,,high,24,0,24,0,1,,,,,,,,,
297103,2022-12-05_13h30.52.876,vts_reward_expectancy_bt,2022.2.4,MacIntel,60.0024001,Chrome,1440,900,,,,,0,869,,,,,,,,,,,,,,,,,H,181,hexagon,-1,0,,,,,,,,,,,,,,,,repeat,no_choice,NA,,,Hi,,,,,,5,,,,,,,,high,25,0,25,0,1,,,,,,,,,
297103,2022-12-05_13h30.52.876,vts_reward_expectancy_bt,2022.2.4,MacIntel,60.0024001,Chrome,1440,900,,,,,0,869,,,,,,,,,,,,,,,,,W,146,star,-1,0,,,,,,,,,,,,,,,,repeat,no_choice,NA,,,Hi,,,,,,5,,,,,,,,high,26,0,26,0,1,,,,,,,,,
297103,2022-12-05_13h30.52.876,vts_reward_expectancy_bt,2022.2.4,MacIntel,60.0024001,Chrome,1440,900,,,,,0,869,,,,,,,,,,,,,,,,,B,174,triangle,-1,0,,,,,,,,,,,,,,,,repeat,no_choice,NA,,,Hi,,,,,,5,,,,,,,,high,27,0,27,0,1,,,,,,,,,
297103,2022-12-05_13h30.52.876,vts_reward_expectancy_bt,2022.2.4,MacIntel,60.0024001,Chrome,1440,900,,,,,0,869,,,,,,,,,,,,,,,,,F,125,star,-1,0,,,,,,,,,,,,,,,,repeat,no_choice,NA,,,Hi,,,,,,5,,,,,,,,high,28,0,28,0,1,,,,,,,,,
297103,2022-12-05_13h30.52.876,vts_reward_expectancy_bt,2022.2.4,MacIntel,60.0024001,Chrome,1440,900,,,,,0,869,,,,,,,,,,,,,,,,,S,132,circle,-1,0,,,,,,,,,,,,,,,,repeat,no_choice,NA,,,Hi,,,,,,5,,,,,,,,high,29,0,29,0,1,,,,,,,,,
297103,2022-12-05_13h30.52.876,vts_reward_expectancy_bt,2022.2.4,MacIntel,60.0024001,Chrome,1440,900,,,,,0,869,,,,,,,,,,,,,,,,,U,160,hexagon,-1,0,,,,,,,,,,,,,,,,repeat,no_choice,NA,,,Hi,,,,,,5,,,,,,,,high,30,0,30,0,1,,,,,,,,,
