participant,date,expName,psychopyVersion,OS,frameRate,browser,xResolution,yResolution,key_resp.keys,key_resp.rt,training_resp.keys,training_resp.rt,points_trial,points_cumul,trainBlock,training.thisRepN,training.thisTrialN,training.thisN,training.thisIndex,training.ran,LTriangleOpac,LCircleOpac,LHexagonOpac,LStarOpac,RTriangleOpac,RCircleOpac,RHexagonOpac,RStarOpac,LShape_ID,RShape_ID,curr_topStim,curr_bottStim,curr_shape,acc,E1,target_resp_prac1.keys,pracBlock,task1_prac_trials.thisRepN,task1_prac_trials.thisTrialN,task1_prac_trials.thisN,task1_prac_trials.thisIndex,task1_prac_trials.ran,target_resp_prac1.rt,target_resp_prac2.keys,target_resp_prac2.rt,task2_praac_trials.thisRepN,task2_praac_trials.thisTrialN,task2_praac_trials.thisN,task2_praac_trials.thisIndex,task2_praac_trials.ran,alt,task,condition,target_resp.keys,target_resp.rt,rewCond,vts_practice_trials.thisRepN,vts_practice_trials.thisTrialN,vts_practice_trials.thisN,vts_practice_trials.thisIndex,vts_practice_trials.ran,blockNum,trials_norew.thisRepN,trials_norew.thisTrialN,trials_norew.thisN,trials_norew.thisIndex,trials_norew.ran,key_resp_2.keys,key_resp_2.rt,rewExpectancy,trials_rew.thisRepN,trials_rew.thisTrialN,trials_rew.thisN,trials_rew.thisIndex,trials_rew.ran,Q1,Q2,Q2_text,Q3,Q4,Q5,Q5_text,xRes,yRes
297184,2022-11-28_15h58.01.776,vts_reward_expectancy_bt,2022.2.4,MacIntel,59.99880002,Chrome,1440,900,,,,,,,,,,,,,,,,,,,,,,,,,,,,,,,,,,,,,,,,,,,,,,,,,,,,,,,,,,,,,,,,,,,,,,,,,,,,
297184,2022-11-28_15h58.01.776,vts_reward_expectancy_bt,2022.2.4,MacIntel,59.99880002,Chrome,1440,900,space,6.4445,,,,,,,,,,,,,,,,,,,,,,,,,,,,,,,,,,,,,,,,,,,,,,,,,,,,,,,,,,,,,,,,,,,,,,,,,,
297184,2022-11-28_15h58.01.776,vts_reward_expectancy_bt,2022.2.4,MacIntel,59.99880002,Chrome,1440,900,,,,,,,,,,,,,,,,,,,,,,,,,,,,,,,,,,,,,,,,,,,,,,,,,,,,,,,,,,,,,,,,,,,,,,,,,,,,
297184,2022-11-28_15h58.01.776,vts_reward_expectancy_bt,2022.2.4,MacIntel,59.99880002,Chrome,1440,900,,,a,3.3709,10,10,0,0,0,0,0,1,1,0,0,0,0,1,0,0,triangle,circle,,,,,,,,,,,,,,,,,,,,,,,,,,,,,,,,,,,,,,,,,,,,,,,,,,,,,,
297184,2022-11-28_15h58.01.776,vts_reward_expectancy_bt,2022.2.4,MacIntel,59.99880002,Chrome,1440,900,,,l,2.6974,10,20,0,0,1,1,11,1,0,0,0,1,0,0,1,0,star,hexagon,,,,,,,,,,,,,,,,,,,,,,,,,,,,,,,,,,,,,,,,,,,,,,,,,,,,,,
297184,2022-11-28_15h58.01.776,vts_reward_expectancy_bt,2022.2.4,MacIntel,59.99880002,Chrome,1440,900,,,a,1.268,10,30,0,0,2,2,3,1,0,1,0,0,1,0,0,0,circle,triangle,,,,,,,,,,,,,,,,,,,,,,,,,,,,,,,,,,,,,,,,,,,,,,,,,,,,,,
297184,2022-11-28_15h58.01.776,vts_reward_expectancy_bt,2022.2.4,MacIntel,59.99880002,Chrome,1440,900,,,a,0.6342,1,31,0,0,3,3,4,1,0,1,0,0,0,0,1,0,circle,hexagon,,,,,,,,,,,,,,,,,,,,,,,,,,,,,,,,,,,,,,,,,,,,,,,,,,,,,,
297184,2022-11-28_15h58.01.776,vts_reward_expectancy_bt,2022.2.4,MacIntel,59.99880002,Chrome,1440,900,,,a,1.0127,10,41,0,0,4,4,8,1,0,0,1,0,0,0,0,1,hexagon,star,,,,,,,,,,,,,,,,,,,,,,,,,,,,,,,,,,,,,,,,,,,,,,,,,,,,,,
297184,2022-11-28_15h58.01.776,vts_reward_expectancy_bt,2022.2.4,MacIntel,59.99880002,Chrome,1440,900,,,a,0.9823,10,51,0,0,5,5,2,1,1,0,0,0,0,0,0,1,triangle,star,,,,,,,,,,,,,,,,,,,,,,,,,,,,,,,,,,,,,,,,,,,,,,,,,,,,,,
297184,2022-11-28_15h58.01.776,vts_reward_expectancy_bt,2022.2.4,MacIntel,59.99880002,Chrome,1440,900,,,l,0.9853,1,52,0,0,6,6,7,1,0,0,1,0,0,1,0,0,hexagon,circle,,,,,,,,,,,,,,,,,,,,,,,,,,,,,,,,,,,,,,,,,,,,,,,,,,,,,,
297184,2022-11-28_15h58.01.776,vts_reward_expectancy_bt,2022.2.4,MacIntel,59.99880002,Chrome,1440,900,,,a,1.4829,1,53,0,0,7,7,5,1,0,1,0,0,0,0,0,1,circle,star,,,,,,,,,,,,,,,,,,,,,,,,,,,,,,,,,,,,,,,,,,,,,,,,,,,,,,
297184,2022-11-28_15h58.01.776,vts_reward_expectancy_bt,2022.2.4,MacIntel,59.99880002,Chrome,1440,900,,,a,0.7702,1,54,0,0,8,8,10,1,0,0,0,1,0,1,0,0,star ,circle,,,,,,,,,,,,,,,,,,,,,,,,,,,,,,,,,,,,,,,,,,,,,,,,,,,,,,
297184,2022-11-28_15h58.01.776,vts_reward_expectancy_bt,2022.2.4,MacIntel,59.99880002,Chrome,1440,900,,,a,0.8838,1,55,0,0,9,9,6,1,0,0,1,0,1,0,0,0,hexagon,triangle,,,,,,,,,,,,,,,,,,,,,,,,,,,,,,,,,,,,,,,,,,,,,,,,,,,,,,
297184,2022-11-28_15h58.01.776,vts_reward_expectancy_bt,2022.2.4,MacIntel,59.99880002,Chrome,1440,900,,,l,0.9047,1,56,0,0,10,10,1,1,1,0,0,0,0,0,1,0,triangle,hexagon,,,,,,,,,,,,,,,,,,,,,,,,,,,,,,,,,,,,,,,,,,,,,,,,,,,,,,
297184,2022-11-28_15h58.01.776,vts_reward_expectancy_bt,2022.2.4,MacIntel,59.99880002,Chrome,1440,900,,,l,0.6166,10,66,0,0,11,11,9,1,0,0,0,1,1,0,0,0,star,triangle,,,,,,,,,,,,,,,,,,,,,,,,,,,,,,,,,,,,,,,,,,,,,,,,,,,,,,
297184,2022-11-28_15h58.01.776,vts_reward_expectancy_bt,2022.2.4,MacIntel,59.99880002,Chrome,1440,900,,,l,1.0185,10,76,0,1,0,12,4,1,0,1,0,0,0,0,1,0,circle,hexagon,,,,,,,,,,,,,,,,,,,,,,,,,,,,,,,,,,,,,,,,,,,,,,,,,,,,,,
297184,2022-11-28_15h58.01.776,vts_reward_expectancy_bt,2022.2.4,MacIntel,59.99880002,Chrome,1440,900,,,a,1.0065,10,86,0,1,1,13,0,1,1,0,0,0,0,1,0,0,triangle,circle,,,,,,,,,,,,,,,,,,,,,,,,,,,,,,,,,,,,,,,,,,,,,,,,,,,,,,
297184,2022-11-28_15h58.01.776,vts_reward_expectancy_bt,2022.2.4,MacIntel,59.99880002,Chrome,1440,900,,,l,0.6164,1,87,0,1,2,14,3,1,0,1,0,0,1,0,0,0,circle,triangle,,,,,,,,,,,,,,,,,,,,,,,,,,,,,,,,,,,,,,,,,,,,,,,,,,,,,,
297184,2022-11-28_15h58.01.776,vts_reward_expectancy_bt,2022.2.4,MacIntel,59.99880002,Chrome,1440,900,,,a,0.3068,10,97,0,1,3,15,2,1,1,0,0,0,0,0,0,1,triangle,star,,,,,,,,,,,,,,,,,,,,,,,,,,,,,,,,,,,,,,,,,,,,,,,,,,,,,,
297184,2022-11-28_15h58.01.776,vts_reward_expectancy_bt,2022.2.4,MacIntel,59.99880002,Chrome,1440,900,,,a,0.6965,1,98,0,1,4,16,8,1,0,0,1,0,0,0,0,1,hexagon,star,,,,,,,,,,,,,,,,,,,,,,,,,,,,,,,,,,,,,,,,,,,,,,,,,,,,,,
297184,2022-11-28_15h58.01.776,vts_reward_expectancy_bt,2022.2.4,MacIntel,59.99880002,Chrome,1440,900,,,l,1.1312,1,99,0,1,5,17,10,1,0,0,0,1,0,1,0,0,star ,circle,,,,,,,,,,,,,,,,,,,,,,,,,,,,,,,,,,,,,,,,,,,,,,,,,,,,,,
297184,2022-11-28_15h58.01.776,vts_reward_expectancy_bt,2022.2.4,MacIntel,59.99880002,Chrome,1440,900,,,l,0.8552,1,100,0,1,6,18,7,1,0,0,1,0,0,1,0,0,hexagon,circle,,,,,,,,,,,,,,,,,,,,,,,,,,,,,,,,,,,,,,,,,,,,,,,,,,,,,,
297184,2022-11-28_15h58.01.776,vts_reward_expectancy_bt,2022.2.4,MacIntel,59.99880002,Chrome,1440,900,,,l,0.8969,10,110,0,1,7,19,1,1,1,0,0,0,0,0,1,0,triangle,hexagon,,,,,,,,,,,,,,,,,,,,,,,,,,,,,,,,,,,,,,,,,,,,,,,,,,,,,,
297184,2022-11-28_15h58.01.776,vts_reward_expectancy_bt,2022.2.4,MacIntel,59.99880002,Chrome,1440,900,,,a,0.6885,10,120,0,1,8,20,11,1,0,0,0,1,0,0,1,0,star,hexagon,,,,,,,,,,,,,,,,,,,,,,,,,,,,,,,,,,,,,,,,,,,,,,,,,,,,,,
297184,2022-11-28_15h58.01.776,vts_reward_expectancy_bt,2022.2.4,MacIntel,59.99880002,Chrome,1440,900,,,l,0.3407,10,130,0,1,9,21,9,1,0,0,0,1,1,0,0,0,star,triangle,,,,,,,,,,,,,,,,,,,,,,,,,,,,,,,,,,,,,,,,,,,,,,,,,,,,,,
297184,2022-11-28_15h58.01.776,vts_reward_expectancy_bt,2022.2.4,MacIntel,59.99880002,Chrome,1440,900,,,a,0.2976,1,131,0,1,10,22,6,1,0,0,1,0,1,0,0,0,hexagon,triangle,,,,,,,,,,,,,,,,,,,,,,,,,,,,,,,,,,,,,,,,,,,,,,,,,,,,,,
297184,2022-11-28_15h58.01.776,vts_reward_expectancy_bt,2022.2.4,MacIntel,59.99880002,Chrome,1440,900,,,l,0.3145,10,141,0,1,11,23,5,1,0,1,0,0,0,0,0,1,circle,star,,,,,,,,,,,,,,,,,,,,,,,,,,,,,,,,,,,,,,,,,,,,,,,,,,,,,,
297184,2022-11-28_15h58.01.776,vts_reward_expectancy_bt,2022.2.4,MacIntel,59.99880002,Chrome,1440,900,,,l,0.6315,10,151,0,2,0,24,0,1,1,0,0,0,0,1,0,0,triangle,circle,,,,,,,,,,,,,,,,,,,,,,,,,,,,,,,,,,,,,,,,,,,,,,,,,,,,,,
297184,2022-11-28_15h58.01.776,vts_reward_expectancy_bt,2022.2.4,MacIntel,59.99880002,Chrome,1440,900,,,l,0.1022,10,161,0,2,1,25,9,1,0,0,0,1,1,0,0,0,star,triangle,,,,,,,,,,,,,,,,,,,,,,,,,,,,,,,,,,,,,,,,,,,,,,,,,,,,,,
297184,2022-11-28_15h58.01.776,vts_reward_expectancy_bt,2022.2.4,MacIntel,59.99880002,Chrome,1440,900,,,a,0.8235,10,171,0,2,2,26,1,1,1,0,0,0,0,0,1,0,triangle,hexagon,,,,,,,,,,,,,,,,,,,,,,,,,,,,,,,,,,,,,,,,,,,,,,,,,,,,,,
297184,2022-11-28_15h58.01.776,vts_reward_expectancy_bt,2022.2.4,MacIntel,59.99880002,Chrome,1440,900,,,l,0.5138,10,181,0,2,3,27,10,1,0,0,0,1,0,1,0,0,star ,circle,,,,,,,,,,,,,,,,,,,,,,,,,,,,,,,,,,,,,,,,,,,,,,,,,,,,,,
297184,2022-11-28_15h58.01.776,vts_reward_expectancy_bt,2022.2.4,MacIntel,59.99880002,Chrome,1440,900,,,l,2.1835,1,182,0,2,4,28,5,1,0,1,0,0,0,0,0,1,circle,star,,,,,,,,,,,,,,,,,,,,,,,,,,,,,,,,,,,,,,,,,,,,,,,,,,,,,,
297184,2022-11-28_15h58.01.776,vts_reward_expectancy_bt,2022.2.4,MacIntel,59.99880002,Chrome,1440,900,,,a,0.6938,1,183,0,2,5,29,8,1,0,0,1,0,0,0,0,1,hexagon,star,,,,,,,,,,,,,,,,,,,,,,,,,,,,,,,,,,,,,,,,,,,,,,,,,,,,,,
297184,2022-11-28_15h58.01.776,vts_reward_expectancy_bt,2022.2.4,MacIntel,59.99880002,Chrome,1440,900,,,l,0.4822,1,184,0,2,6,30,11,1,0,0,0,1,0,0,1,0,star,hexagon,,,,,,,,,,,,,,,,,,,,,,,,,,,,,,,,,,,,,,,,,,,,,,,,,,,,,,
297184,2022-11-28_15h58.01.776,vts_reward_expectancy_bt,2022.2.4,MacIntel,59.99880002,Chrome,1440,900,,,l,0.3313,10,194,0,2,7,31,3,1,0,1,0,0,1,0,0,0,circle,triangle,,,,,,,,,,,,,,,,,,,,,,,,,,,,,,,,,,,,,,,,,,,,,,,,,,,,,,
297184,2022-11-28_15h58.01.776,vts_reward_expectancy_bt,2022.2.4,MacIntel,59.99880002,Chrome,1440,900,,,a,0.6764,1,195,0,2,8,32,2,1,1,0,0,0,0,0,0,1,triangle,star,,,,,,,,,,,,,,,,,,,,,,,,,,,,,,,,,,,,,,,,,,,,,,,,,,,,,,
297184,2022-11-28_15h58.01.776,vts_reward_expectancy_bt,2022.2.4,MacIntel,59.99880002,Chrome,1440,900,,,l,0.3637,10,205,0,2,9,33,6,1,0,0,1,0,1,0,0,0,hexagon,triangle,,,,,,,,,,,,,,,,,,,,,,,,,,,,,,,,,,,,,,,,,,,,,,,,,,,,,,
297184,2022-11-28_15h58.01.776,vts_reward_expectancy_bt,2022.2.4,MacIntel,59.99880002,Chrome,1440,900,,,l,0.869,10,215,0,2,10,34,7,1,0,0,1,0,0,1,0,0,hexagon,circle,,,,,,,,,,,,,,,,,,,,,,,,,,,,,,,,,,,,,,,,,,,,,,,,,,,,,,
297184,2022-11-28_15h58.01.776,vts_reward_expectancy_bt,2022.2.4,MacIntel,59.99880002,Chrome,1440,900,,,l,0.404,1,216,0,2,11,35,4,1,0,1,0,0,0,0,1,0,circle,hexagon,,,,,,,,,,,,,,,,,,,,,,,,,,,,,,,,,,,,,,,,,,,,,,,,,,,,,,
297184,2022-11-28_15h58.01.776,vts_reward_expectancy_bt,2022.2.4,MacIntel,59.99880002,Chrome,1440,900,,,l,0.9904,10,226,1,0,0,0,9,1,0,0,0,1,1,0,0,0,star,triangle,,,,,,,,,,,,,,,,,,,,,,,,,,,,,,,,,,,,,,,,,,,,,,,,,,,,,,
297184,2022-11-28_15h58.01.776,vts_reward_expectancy_bt,2022.2.4,MacIntel,59.99880002,Chrome,1440,900,,,a,0.4737,10,236,1,0,1,1,1,1,1,0,0,0,0,0,1,0,triangle,hexagon,,,,,,,,,,,,,,,,,,,,,,,,,,,,,,,,,,,,,,,,,,,,,,,,,,,,,,
297184,2022-11-28_15h58.01.776,vts_reward_expectancy_bt,2022.2.4,MacIntel,59.99880002,Chrome,1440,900,,,l,0.5558,1,237,1,0,2,2,8,1,0,0,1,0,0,0,0,1,hexagon,star,,,,,,,,,,,,,,,,,,,,,,,,,,,,,,,,,,,,,,,,,,,,,,,,,,,,,,
297184,2022-11-28_15h58.01.776,vts_reward_expectancy_bt,2022.2.4,MacIntel,59.99880002,Chrome,1440,900,,,a,0.1917,1,238,1,0,3,3,6,1,0,0,1,0,1,0,0,0,hexagon,triangle,,,,,,,,,,,,,,,,,,,,,,,,,,,,,,,,,,,,,,,,,,,,,,,,,,,,,,
297184,2022-11-28_15h58.01.776,vts_reward_expectancy_bt,2022.2.4,MacIntel,59.99880002,Chrome,1440,900,,,l,0.4815,1,239,1,0,4,4,3,1,0,1,0,0,1,0,0,0,circle,triangle,,,,,,,,,,,,,,,,,,,,,,,,,,,,,,,,,,,,,,,,,,,,,,,,,,,,,,
297184,2022-11-28_15h58.01.776,vts_reward_expectancy_bt,2022.2.4,MacIntel,59.99880002,Chrome,1440,900,,,l,0.3318,10,249,1,0,5,5,5,1,0,1,0,0,0,0,0,1,circle,star,,,,,,,,,,,,,,,,,,,,,,,,,,,,,,,,,,,,,,,,,,,,,,,,,,,,,,
297184,2022-11-28_15h58.01.776,vts_reward_expectancy_bt,2022.2.4,MacIntel,59.99880002,Chrome,1440,900,,,l,0.7002,1,250,1,0,6,6,0,1,1,0,0,0,0,1,0,0,triangle,circle,,,,,,,,,,,,,,,,,,,,,,,,,,,,,,,,,,,,,,,,,,,,,,,,,,,,,,
297184,2022-11-28_15h58.01.776,vts_reward_expectancy_bt,2022.2.4,MacIntel,59.99880002,Chrome,1440,900,,,a,0.3992,10,260,1,0,7,7,11,1,0,0,0,1,0,0,1,0,star,hexagon,,,,,,,,,,,,,,,,,,,,,,,,,,,,,,,,,,,,,,,,,,,,,,,,,,,,,,
297184,2022-11-28_15h58.01.776,vts_reward_expectancy_bt,2022.2.4,MacIntel,59.99880002,Chrome,1440,900,,,a,0.5769,10,270,1,0,8,8,7,1,0,0,1,0,0,1,0,0,hexagon,circle,,,,,,,,,,,,,,,,,,,,,,,,,,,,,,,,,,,,,,,,,,,,,,,,,,,,,,
297184,2022-11-28_15h58.01.776,vts_reward_expectancy_bt,2022.2.4,MacIntel,59.99880002,Chrome,1440,900,,,l,0.0272,10,280,1,0,9,9,2,1,1,0,0,0,0,0,0,1,triangle,star,,,,,,,,,,,,,,,,,,,,,,,,,,,,,,,,,,,,,,,,,,,,,,,,,,,,,,
297184,2022-11-28_15h58.01.776,vts_reward_expectancy_bt,2022.2.4,MacIntel,59.99880002,Chrome,1440,900,,,a,0.4444,1,281,1,0,10,10,4,1,0,1,0,0,0,0,1,0,circle,hexagon,,,,,,,,,,,,,,,,,,,,,,,,,,,,,,,,,,,,,,,,,,,,,,,,,,,,,,
297184,2022-11-28_15h58.01.776,vts_reward_expectancy_bt,2022.2.4,MacIntel,59.99880002,Chrome,1440,900,,,l,0.2169,1,282,1,0,11,11,10,1,0,0,0,1,0,1,0,0,star ,circle,,,,,,,,,,,,,,,,,,,,,,,,,,,,,,,,,,,,,,,,,,,,,,,,,,,,,,
297184,2022-11-28_15h58.01.776,vts_reward_expectancy_bt,2022.2.4,MacIntel,59.99880002,Chrome,1440,900,,,a,0.1227,10,292,1,1,0,12,3,1,0,1,0,0,1,0,0,0,circle,triangle,,,,,,,,,,,,,,,,,,,,,,,,,,,,,,,,,,,,,,,,,,,,,,,,,,,,,,
297184,2022-11-28_15h58.01.776,vts_reward_expectancy_bt,2022.2.4,MacIntel,59.99880002,Chrome,1440,900,,,l,0.1684,1,293,1,1,1,13,0,1,1,0,0,0,0,1,0,0,triangle,circle,,,,,,,,,,,,,,,,,,,,,,,,,,,,,,,,,,,,,,,,,,,,,,,,,,,,,,
297184,2022-11-28_15h58.01.776,vts_reward_expectancy_bt,2022.2.4,MacIntel,59.99880002,Chrome,1440,900,,,a,0.3303,1,294,1,1,2,14,9,1,0,0,0,1,1,0,0,0,star,triangle,,,,,,,,,,,,,,,,,,,,,,,,,,,,,,,,,,,,,,,,,,,,,,,,,,,,,,
297184,2022-11-28_15h58.01.776,vts_reward_expectancy_bt,2022.2.4,MacIntel,59.99880002,Chrome,1440,900,,,l,0.0661,1,295,1,1,3,15,1,1,1,0,0,0,0,0,1,0,triangle,hexagon,,,,,,,,,,,,,,,,,,,,,,,,,,,,,,,,,,,,,,,,,,,,,,,,,,,,,,
297184,2022-11-28_15h58.01.776,vts_reward_expectancy_bt,2022.2.4,MacIntel,59.99880002,Chrome,1440,900,,,a,0.1358,1,296,1,1,4,16,5,1,0,1,0,0,0,0,0,1,circle,star,,,,,,,,,,,,,,,,,,,,,,,,,,,,,,,,,,,,,,,,,,,,,,,,,,,,,,
297184,2022-11-28_15h58.01.776,vts_reward_expectancy_bt,2022.2.4,MacIntel,59.99880002,Chrome,1440,900,,,l,0.0535,1,297,1,1,5,17,11,1,0,0,0,1,0,0,1,0,star,hexagon,,,,,,,,,,,,,,,,,,,,,,,,,,,,,,,,,,,,,,,,,,,,,,,,,,,,,,
297184,2022-11-28_15h58.01.776,vts_reward_expectancy_bt,2022.2.4,MacIntel,59.99880002,Chrome,1440,900,,,a,0.4235,1,298,1,1,6,18,2,1,1,0,0,0,0,0,0,1,triangle,star,,,,,,,,,,,,,,,,,,,,,,,,,,,,,,,,,,,,,,,,,,,,,,,,,,,,,,
297184,2022-11-28_15h58.01.776,vts_reward_expectancy_bt,2022.2.4,MacIntel,59.99880002,Chrome,1440,900,,,l,0.3802,1,299,1,1,7,19,7,1,0,0,1,0,0,1,0,0,hexagon,circle,,,,,,,,,,,,,,,,,,,,,,,,,,,,,,,,,,,,,,,,,,,,,,,,,,,,,,
297184,2022-11-28_15h58.01.776,vts_reward_expectancy_bt,2022.2.4,MacIntel,59.99880002,Chrome,1440,900,,,l,0.4651,1,300,1,1,8,20,6,1,0,0,1,0,1,0,0,0,hexagon,triangle,,,,,,,,,,,,,,,,,,,,,,,,,,,,,,,,,,,,,,,,,,,,,,,,,,,,,,
297184,2022-11-28_15h58.01.776,vts_reward_expectancy_bt,2022.2.4,MacIntel,59.99880002,Chrome,1440,900,,,a,0.4121,10,310,1,1,9,21,4,1,0,1,0,0,0,0,1,0,circle,hexagon,,,,,,,,,,,,,,,,,,,,,,,,,,,,,,,,,,,,,,,,,,,,,,,,,,,,,,
297184,2022-11-28_15h58.01.776,vts_reward_expectancy_bt,2022.2.4,MacIntel,59.99880002,Chrome,1440,900,,,a,0.4155,10,320,1,1,10,22,8,1,0,0,1,0,0,0,0,1,hexagon,star,,,,,,,,,,,,,,,,,,,,,,,,,,,,,,,,,,,,,,,,,,,,,,,,,,,,,,
297184,2022-11-28_15h58.01.776,vts_reward_expectancy_bt,2022.2.4,MacIntel,59.99880002,Chrome,1440,900,,,l,0.7978,1,321,1,1,11,23,10,1,0,0,0,1,0,1,0,0,star ,circle,,,,,,,,,,,,,,,,,,,,,,,,,,,,,,,,,,,,,,,,,,,,,,,,,,,,,,
297184,2022-11-28_15h58.01.776,vts_reward_expectancy_bt,2022.2.4,MacIntel,59.99880002,Chrome,1440,900,,,a,0.6303,10,331,1,2,0,24,2,1,1,0,0,0,0,0,0,1,triangle,star,,,,,,,,,,,,,,,,,,,,,,,,,,,,,,,,,,,,,,,,,,,,,,,,,,,,,,
297184,2022-11-28_15h58.01.776,vts_reward_expectancy_bt,2022.2.4,MacIntel,59.99880002,Chrome,1440,900,,,l,0.6901,1,332,1,2,1,25,3,1,0,1,0,0,1,0,0,0,circle,triangle,,,,,,,,,,,,,,,,,,,,,,,,,,,,,,,,,,,,,,,,,,,,,,,,,,,,,,
297184,2022-11-28_15h58.01.776,vts_reward_expectancy_bt,2022.2.4,MacIntel,59.99880002,Chrome,1440,900,,,l,0.8366,1,333,1,2,2,26,11,1,0,0,0,1,0,0,1,0,star,hexagon,,,,,,,,,,,,,,,,,,,,,,,,,,,,,,,,,,,,,,,,,,,,,,,,,,,,,,
297184,2022-11-28_15h58.01.776,vts_reward_expectancy_bt,2022.2.4,MacIntel,59.99880002,Chrome,1440,900,,,l,0.1145,1,334,1,2,3,27,4,1,0,1,0,0,0,0,1,0,circle,hexagon,,,,,,,,,,,,,,,,,,,,,,,,,,,,,,,,,,,,,,,,,,,,,,,,,,,,,,
297184,2022-11-28_15h58.01.776,vts_reward_expectancy_bt,2022.2.4,MacIntel,59.99880002,Chrome,1440,900,,,a,0.08,10,344,1,2,4,28,7,1,0,0,1,0,0,1,0,0,hexagon,circle,,,,,,,,,,,,,,,,,,,,,,,,,,,,,,,,,,,,,,,,,,,,,,,,,,,,,,
297184,2022-11-28_15h58.01.776,vts_reward_expectancy_bt,2022.2.4,MacIntel,59.99880002,Chrome,1440,900,,,a,0.4362,10,354,1,2,5,29,10,1,0,0,0,1,0,1,0,0,star ,circle,,,,,,,,,,,,,,,,,,,,,,,,,,,,,,,,,,,,,,,,,,,,,,,,,,,,,,
297184,2022-11-28_15h58.01.776,vts_reward_expectancy_bt,2022.2.4,MacIntel,59.99880002,Chrome,1440,900,,,a,0.14,10,364,1,2,6,30,9,1,0,0,0,1,1,0,0,0,star,triangle,,,,,,,,,,,,,,,,,,,,,,,,,,,,,,,,,,,,,,,,,,,,,,,,,,,,,,
297184,2022-11-28_15h58.01.776,vts_reward_expectancy_bt,2022.2.4,MacIntel,59.99880002,Chrome,1440,900,,,a,0.5396,1,365,1,2,7,31,0,1,1,0,0,0,0,1,0,0,triangle,circle,,,,,,,,,,,,,,,,,,,,,,,,,,,,,,,,,,,,,,,,,,,,,,,,,,,,,,
297184,2022-11-28_15h58.01.776,vts_reward_expectancy_bt,2022.2.4,MacIntel,59.99880002,Chrome,1440,900,,,l,0.5125,1,366,1,2,8,32,8,1,0,0,1,0,0,0,0,1,hexagon,star,,,,,,,,,,,,,,,,,,,,,,,,,,,,,,,,,,,,,,,,,,,,,,,,,,,,,,
297184,2022-11-28_15h58.01.776,vts_reward_expectancy_bt,2022.2.4,MacIntel,59.99880002,Chrome,1440,900,,,l,0.3018,10,376,1,2,9,33,6,1,0,0,1,0,1,0,0,0,hexagon,triangle,,,,,,,,,,,,,,,,,,,,,,,,,,,,,,,,,,,,,,,,,,,,,,,,,,,,,,
297184,2022-11-28_15h58.01.776,vts_reward_expectancy_bt,2022.2.4,MacIntel,59.99880002,Chrome,1440,900,,,l,0.0852,1,377,1,2,10,34,1,1,1,0,0,0,0,0,1,0,triangle,hexagon,,,,,,,,,,,,,,,,,,,,,,,,,,,,,,,,,,,,,,,,,,,,,,,,,,,,,,
297184,2022-11-28_15h58.01.776,vts_reward_expectancy_bt,2022.2.4,MacIntel,59.99880002,Chrome,1440,900,,,a,0.2014,10,387,1,2,11,35,5,1,0,1,0,0,0,0,0,1,circle,star,,,,,,,,,,,,,,,,,,,,,,,,,,,,,,,,,,,,,,,,,,,,,,,,,,,,,,
297184,2022-11-28_15h58.01.776,vts_reward_expectancy_bt,2022.2.4,MacIntel,59.99880002,Chrome,1440,900,,,l,3.3796,10,397,2,0,0,0,5,1,0,1,0,0,0,0,0,1,circle,star,,,,,,,,,,,,,,,,,,,,,,,,,,,,,,,,,,,,,,,,,,,,,,,,,,,,,,
297184,2022-11-28_15h58.01.776,vts_reward_expectancy_bt,2022.2.4,MacIntel,59.99880002,Chrome,1440,900,,,a,0.1348,10,407,2,0,1,1,9,1,0,0,0,1,1,0,0,0,star,triangle,,,,,,,,,,,,,,,,,,,,,,,,,,,,,,,,,,,,,,,,,,,,,,,,,,,,,,
297184,2022-11-28_15h58.01.776,vts_reward_expectancy_bt,2022.2.4,MacIntel,59.99880002,Chrome,1440,900,,,l,0.1562,10,417,2,0,2,2,8,1,0,0,1,0,0,0,0,1,hexagon,star,,,,,,,,,,,,,,,,,,,,,,,,,,,,,,,,,,,,,,,,,,,,,,,,,,,,,,
297184,2022-11-28_15h58.01.776,vts_reward_expectancy_bt,2022.2.4,MacIntel,59.99880002,Chrome,1440,900,,,a,0.0501,10,427,2,0,3,3,11,1,0,0,0,1,0,0,1,0,star,hexagon,,,,,,,,,,,,,,,,,,,,,,,,,,,,,,,,,,,,,,,,,,,,,,,,,,,,,,
297184,2022-11-28_15h58.01.776,vts_reward_expectancy_bt,2022.2.4,MacIntel,59.99880002,Chrome,1440,900,,,l,0.0255,1,428,2,0,4,4,4,1,0,1,0,0,0,0,1,0,circle,hexagon,,,,,,,,,,,,,,,,,,,,,,,,,,,,,,,,,,,,,,,,,,,,,,,,,,,,,,
297184,2022-11-28_15h58.01.776,vts_reward_expectancy_bt,2022.2.4,MacIntel,59.99880002,Chrome,1440,900,,,l,0.0711,10,438,2,0,5,5,3,1,0,1,0,0,1,0,0,0,circle,triangle,,,,,,,,,,,,,,,,,,,,,,,,,,,,,,,,,,,,,,,,,,,,,,,,,,,,,,
297184,2022-11-28_15h58.01.776,vts_reward_expectancy_bt,2022.2.4,MacIntel,59.99880002,Chrome,1440,900,,,l,0.051,1,439,2,0,6,6,10,1,0,0,0,1,0,1,0,0,star ,circle,,,,,,,,,,,,,,,,,,,,,,,,,,,,,,,,,,,,,,,,,,,,,,,,,,,,,,
297184,2022-11-28_15h58.01.776,vts_reward_expectancy_bt,2022.2.4,MacIntel,59.99880002,Chrome,1440,900,,,l,0.1209,1,440,2,0,7,7,0,1,1,0,0,0,0,1,0,0,triangle,circle,,,,,,,,,,,,,,,,,,,,,,,,,,,,,,,,,,,,,,,,,,,,,,,,,,,,,,
297184,2022-11-28_15h58.01.776,vts_reward_expectancy_bt,2022.2.4,MacIntel,59.99880002,Chrome,1440,900,,,l,0.069,1,441,2,0,8,8,6,1,0,0,1,0,1,0,0,0,hexagon,triangle,,,,,,,,,,,,,,,,,,,,,,,,,,,,,,,,,,,,,,,,,,,,,,,,,,,,,,
297184,2022-11-28_15h58.01.776,vts_reward_expectancy_bt,2022.2.4,MacIntel,59.99880002,Chrome,1440,900,,,a,0.0497,10,451,2,0,9,9,7,1,0,0,1,0,0,1,0,0,hexagon,circle,,,,,,,,,,,,,,,,,,,,,,,,,,,,,,,,,,,,,,,,,,,,,,,,,,,,,,
297184,2022-11-28_15h58.01.776,vts_reward_expectancy_bt,2022.2.4,MacIntel,59.99880002,Chrome,1440,900,,,a,0.1489,1,452,2,0,10,10,2,1,1,0,0,0,0,0,0,1,triangle,star,,,,,,,,,,,,,,,,,,,,,,,,,,,,,,,,,,,,,,,,,,,,,,,,,,,,,,
297184,2022-11-28_15h58.01.776,vts_reward_expectancy_bt,2022.2.4,MacIntel,59.99880002,Chrome,1440,900,,,l,0.0361,1,453,2,0,11,11,1,1,1,0,0,0,0,0,1,0,triangle,hexagon,,,,,,,,,,,,,,,,,,,,,,,,,,,,,,,,,,,,,,,,,,,,,,,,,,,,,,
297184,2022-11-28_15h58.01.776,vts_reward_expectancy_bt,2022.2.4,MacIntel,59.99880002,Chrome,1440,900,,,l,0.1687,1,454,2,1,0,12,9,1,0,0,0,1,1,0,0,0,star,triangle,,,,,,,,,,,,,,,,,,,,,,,,,,,,,,,,,,,,,,,,,,,,,,,,,,,,,,
297184,2022-11-28_15h58.01.776,vts_reward_expectancy_bt,2022.2.4,MacIntel,59.99880002,Chrome,1440,900,,,a,0.0182,1,455,2,1,1,13,4,1,0,1,0,0,0,0,1,0,circle,hexagon,,,,,,,,,,,,,,,,,,,,,,,,,,,,,,,,,,,,,,,,,,,,,,,,,,,,,,
297184,2022-11-28_15h58.01.776,vts_reward_expectancy_bt,2022.2.4,MacIntel,59.99880002,Chrome,1440,900,,,l,0.0548,1,456,2,1,2,14,3,1,0,1,0,0,1,0,0,0,circle,triangle,,,,,,,,,,,,,,,,,,,,,,,,,,,,,,,,,,,,,,,,,,,,,,,,,,,,,,
297184,2022-11-28_15h58.01.776,vts_reward_expectancy_bt,2022.2.4,MacIntel,59.99880002,Chrome,1440,900,,,l,0.0537,1,457,2,1,3,15,10,1,0,0,0,1,0,1,0,0,star ,circle,,,,,,,,,,,,,,,,,,,,,,,,,,,,,,,,,,,,,,,,,,,,,,,,,,,,,,
297184,2022-11-28_15h58.01.776,vts_reward_expectancy_bt,2022.2.4,MacIntel,59.99880002,Chrome,1440,900,,,a,0.0391,1,458,2,1,4,16,5,1,0,1,0,0,0,0,0,1,circle,star,,,,,,,,,,,,,,,,,,,,,,,,,,,,,,,,,,,,,,,,,,,,,,,,,,,,,,
297184,2022-11-28_15h58.01.776,vts_reward_expectancy_bt,2022.2.4,MacIntel,59.99880002,Chrome,1440,900,,,a,0.1223,10,468,2,1,5,17,11,1,0,0,0,1,0,0,1,0,star,hexagon,,,,,,,,,,,,,,,,,,,,,,,,,,,,,,,,,,,,,,,,,,,,,,,,,,,,,,
297184,2022-11-28_15h58.01.776,vts_reward_expectancy_bt,2022.2.4,MacIntel,59.99880002,Chrome,1440,900,,,a,0.1807,1,469,2,1,6,18,8,1,0,0,1,0,0,0,0,1,hexagon,star,,,,,,,,,,,,,,,,,,,,,,,,,,,,,,,,,,,,,,,,,,,,,,,,,,,,,,
297184,2022-11-28_15h58.01.776,vts_reward_expectancy_bt,2022.2.4,MacIntel,59.99880002,Chrome,1440,900,,,l,0.0985,10,479,2,1,7,19,2,1,1,0,0,0,0,0,0,1,triangle,star,,,,,,,,,,,,,,,,,,,,,,,,,,,,,,,,,,,,,,,,,,,,,,,,,,,,,,
297184,2022-11-28_15h58.01.776,vts_reward_expectancy_bt,2022.2.4,MacIntel,59.99880002,Chrome,1440,900,,,a,0.1526,10,489,2,1,8,20,7,1,0,0,1,0,0,1,0,0,hexagon,circle,,,,,,,,,,,,,,,,,,,,,,,,,,,,,,,,,,,,,,,,,,,,,,,,,,,,,,
297184,2022-11-28_15h58.01.776,vts_reward_expectancy_bt,2022.2.4,MacIntel,59.99880002,Chrome,1440,900,,,l,0.0353,10,499,2,1,9,21,1,1,1,0,0,0,0,0,1,0,triangle,hexagon,,,,,,,,,,,,,,,,,,,,,,,,,,,,,,,,,,,,,,,,,,,,,,,,,,,,,,
297184,2022-11-28_15h58.01.776,vts_reward_expectancy_bt,2022.2.4,MacIntel,59.99880002,Chrome,1440,900,,,l,0.0039,1,500,2,1,10,22,6,1,0,0,1,0,1,0,0,0,hexagon,triangle,,,,,,,,,,,,,,,,,,,,,,,,,,,,,,,,,,,,,,,,,,,,,,,,,,,,,,
297184,2022-11-28_15h58.01.776,vts_reward_expectancy_bt,2022.2.4,MacIntel,59.99880002,Chrome,1440,900,,,l,0.1684,10,510,2,1,11,23,0,1,1,0,0,0,0,1,0,0,triangle,circle,,,,,,,,,,,,,,,,,,,,,,,,,,,,,,,,,,,,,,,,,,,,,,,,,,,,,,
297184,2022-11-28_15h58.01.776,vts_reward_expectancy_bt,2022.2.4,MacIntel,59.99880002,Chrome,1440,900,,,l,0.1185,10,520,2,2,0,24,3,1,0,1,0,0,1,0,0,0,circle,triangle,,,,,,,,,,,,,,,,,,,,,,,,,,,,,,,,,,,,,,,,,,,,,,,,,,,,,,
297184,2022-11-28_15h58.01.776,vts_reward_expectancy_bt,2022.2.4,MacIntel,59.99880002,Chrome,1440,900,,,l,0.132,10,530,2,2,1,25,6,1,0,0,1,0,1,0,0,0,hexagon,triangle,,,,,,,,,,,,,,,,,,,,,,,,,,,,,,,,,,,,,,,,,,,,,,,,,,,,,,
297184,2022-11-28_15h58.01.776,vts_reward_expectancy_bt,2022.2.4,MacIntel,59.99880002,Chrome,1440,900,,,l,0.1566,10,540,2,2,2,26,0,1,1,0,0,0,0,1,0,0,triangle,circle,,,,,,,,,,,,,,,,,,,,,,,,,,,,,,,,,,,,,,,,,,,,,,,,,,,,,,
297184,2022-11-28_15h58.01.776,vts_reward_expectancy_bt,2022.2.4,MacIntel,59.99880002,Chrome,1440,900,,,l,0.2154,10,550,2,2,3,27,7,1,0,0,1,0,0,1,0,0,hexagon,circle,,,,,,,,,,,,,,,,,,,,,,,,,,,,,,,,,,,,,,,,,,,,,,,,,,,,,,
297184,2022-11-28_15h58.01.776,vts_reward_expectancy_bt,2022.2.4,MacIntel,59.99880002,Chrome,1440,900,,,a,0.0137,10,560,2,2,4,28,8,1,0,0,1,0,0,0,0,1,hexagon,star,,,,,,,,,,,,,,,,,,,,,,,,,,,,,,,,,,,,,,,,,,,,,,,,,,,,,,
297184,2022-11-28_15h58.01.776,vts_reward_expectancy_bt,2022.2.4,MacIntel,59.99880002,Chrome,1440,900,,,l,0.2009,10,570,2,2,5,29,5,1,0,1,0,0,0,0,0,1,circle,star,,,,,,,,,,,,,,,,,,,,,,,,,,,,,,,,,,,,,,,,,,,,,,,,,,,,,,
297184,2022-11-28_15h58.01.776,vts_reward_expectancy_bt,2022.2.4,MacIntel,59.99880002,Chrome,1440,900,,,l,0.0218,10,580,2,2,6,30,9,1,0,0,0,1,1,0,0,0,star,triangle,,,,,,,,,,,,,,,,,,,,,,,,,,,,,,,,,,,,,,,,,,,,,,,,,,,,,,
297184,2022-11-28_15h58.01.776,vts_reward_expectancy_bt,2022.2.4,MacIntel,59.99880002,Chrome,1440,900,,,l,0.0192,10,590,2,2,7,31,2,1,1,0,0,0,0,0,0,1,triangle,star,,,,,,,,,,,,,,,,,,,,,,,,,,,,,,,,,,,,,,,,,,,,,,,,,,,,,,
297184,2022-11-28_15h58.01.776,vts_reward_expectancy_bt,2022.2.4,MacIntel,59.99880002,Chrome,1440,900,,,a,0.1333,10,600,2,2,8,32,10,1,0,0,0,1,0,1,0,0,star ,circle,,,,,,,,,,,,,,,,,,,,,,,,,,,,,,,,,,,,,,,,,,,,,,,,,,,,,,
297184,2022-11-28_15h58.01.776,vts_reward_expectancy_bt,2022.2.4,MacIntel,59.99880002,Chrome,1440,900,,,l,0.1993,10,610,2,2,9,33,1,1,1,0,0,0,0,0,1,0,triangle,hexagon,,,,,,,,,,,,,,,,,,,,,,,,,,,,,,,,,,,,,,,,,,,,,,,,,,,,,,
297184,2022-11-28_15h58.01.776,vts_reward_expectancy_bt,2022.2.4,MacIntel,59.99880002,Chrome,1440,900,,,l,0.0309,1,611,2,2,10,34,11,1,0,0,0,1,0,0,1,0,star,hexagon,,,,,,,,,,,,,,,,,,,,,,,,,,,,,,,,,,,,,,,,,,,,,,,,,,,,,,
297184,2022-11-28_15h58.01.776,vts_reward_expectancy_bt,2022.2.4,MacIntel,59.99880002,Chrome,1440,900,,,a,1.9359,1,612,2,2,11,35,4,1,0,1,0,0,0,0,1,0,circle,hexagon,,,,,,,,,,,,,,,,,,,,,,,,,,,,,,,,,,,,,,,,,,,,,,,,,,,,,,
297184,2022-11-28_15h58.01.776,vts_reward_expectancy_bt,2022.2.4,MacIntel,59.99880002,Chrome,1440,900,,,,,,,,,,,,,,,,,,,,,,,D,181,hexagon,0,0,,0,0,0,0,0,1,,,,,,,,,,,,,,,,,,,,,,,,,,,,,,,,,,,,,,,,,,
297184,2022-11-28_15h58.01.776,vts_reward_expectancy_bt,2022.2.4,MacIntel,59.99880002,Chrome,1440,900,,,,,,,,,,,,,,,,,,,,,,,S,160,star,0,1,,0,1,0,1,0,1,,,,,,,,,,,,,,,,,,,,,,,,,,,,,,,,,,,,,,,,,,
297184,2022-11-28_15h58.01.776,vts_reward_expectancy_bt,2022.2.4,MacIntel,59.99880002,Chrome,1440,900,,,,,,,,,,,,,,,,,,,,,,,H,167,triangle,1,1,d,0,2,0,2,0,1,0.6468,,,,,,,,,,,,,,,,,,,,,,,,,,,,,,,,,,,,,,,,,
297184,2022-11-28_15h58.01.776,vts_reward_expectancy_bt,2022.2.4,MacIntel,59.99880002,Chrome,1440,900,,,,,,,,,,,,,,,,,,,,,,,U,139,circle,0,0,d,0,3,0,3,0,1,0.205,,,,,,,,,,,,,,,,,,,,,,,,,,,,,,,,,,,,,,,,,
297184,2022-11-28_15h58.01.776,vts_reward_expectancy_bt,2022.2.4,MacIntel,59.99880002,Chrome,1440,900,,,,,,,,,,,,,,,,,,,,,,,B,132,hexagon,2,1,k,0,4,0,4,0,1,0.4333,,,,,,,,,,,,,,,,,,,,,,,,,,,,,,,,,,,,,,,,,
297184,2022-11-28_15h58.01.776,vts_reward_expectancy_bt,2022.2.4,MacIntel,59.99880002,Chrome,1440,900,,,,,,,,,,,,,,,,,,,,,,,W,174,star,0,0,d,0,5,0,5,0,1,0.8768,,,,,,,,,,,,,,,,,,,,,,,,,,,,,,,,,,,,,,,,,
297184,2022-11-28_15h58.01.776,vts_reward_expectancy_bt,2022.2.4,MacIntel,59.99880002,Chrome,1440,900,,,,,,,,,,,,,,,,,,,,,,,F,125,triangle,1,1,d,0,6,0,6,0,1,0.5779,,,,,,,,,,,,,,,,,,,,,,,,,,,,,,,,,,,,,,,,,
297184,2022-11-28_15h58.01.776,vts_reward_expectancy_bt,2022.2.4,MacIntel,59.99880002,Chrome,1440,900,,,,,,,,,,,,,,,,,,,,,,,Y,146,circle,0,0,d,0,7,0,7,0,1,0.8543,,,,,,,,,,,,,,,,,,,,,,,,,,,,,,,,,,,,,,,,,
297184,2022-11-28_15h58.01.776,vts_reward_expectancy_bt,2022.2.4,MacIntel,59.99880002,Chrome,1440,900,,,,,,,,,,,,,,,,,,,,,,,D,181,star,1,1,d,0,8,0,8,0,1,0.7146,,,,,,,,,,,,,,,,,,,,,,,,,,,,,,,,,,,,,,,,,
297184,2022-11-28_15h58.01.776,vts_reward_expectancy_bt,2022.2.4,MacIntel,59.99880002,Chrome,1440,900,,,,,,,,,,,,,,,,,,,,,,,S,160,hexagon,0,0,d,0,9,0,9,0,1,0.2682,,,,,,,,,,,,,,,,,,,,,,,,,,,,,,,,,,,,,,,,,
297184,2022-11-28_15h58.01.776,vts_reward_expectancy_bt,2022.2.4,MacIntel,59.99880002,Chrome,1440,900,,,,,,,,,,,,,,,,,,,,,,,Y,181,star,1,1,f,1,0,0,0,0,1,1.9196,,,,,,,,,,,,,,,,,,,,,,,,,,,,,,,,,,,,,,,,,
297184,2022-11-28_15h58.01.776,vts_reward_expectancy_bt,2022.2.4,MacIntel,59.99880002,Chrome,1440,900,,,,,,,,,,,,,,,,,,,,,,,W,139,circle,1,0,f,1,1,0,1,0,1,0.9532,,,,,,,,,,,,,,,,,,,,,,,,,,,,,,,,,,,,,,,,,
297184,2022-11-28_15h58.01.776,vts_reward_expectancy_bt,2022.2.4,MacIntel,59.99880002,Chrome,1440,900,,,,,,,,,,,,,,,,,,,,,,,D,146,triangle,0,0,f,1,2,0,2,0,1,1.2163,,,,,,,,,,,,,,,,,,,,,,,,,,,,,,,,,,,,,,,,,
297184,2022-11-28_15h58.01.776,vts_reward_expectancy_bt,2022.2.4,MacIntel,59.99880002,Chrome,1440,900,,,,,,,,,,,,,,,,,,,,,,,F,167,hexagon,1,1,d,1,3,0,3,0,1,0.8303,,,,,,,,,,,,,,,,,,,,,,,,,,,,,,,,,,,,,,,,,
297184,2022-11-28_15h58.01.776,vts_reward_expectancy_bt,2022.2.4,MacIntel,59.99880002,Chrome,1440,900,,,,,,,,,,,,,,,,,,,,,,,S,125,star,1,0,f,1,4,0,4,0,1,0.9295,,,,,,,,,,,,,,,,,,,,,,,,,,,,,,,,,,,,,,,,,
297184,2022-11-28_15h58.01.776,vts_reward_expectancy_bt,2022.2.4,MacIntel,59.99880002,Chrome,1440,900,,,,,,,,,,,,,,,,,,,,,,,B,132,circle,1,0,d,1,5,0,5,0,1,0.9601,,,,,,,,,,,,,,,,,,,,,,,,,,,,,,,,,,,,,,,,,
297184,2022-11-28_15h58.01.776,vts_reward_expectancy_bt,2022.2.4,MacIntel,59.99880002,Chrome,1440,900,,,,,,,,,,,,,,,,,,,,,,,U,160,triangle,1,0,f,1,6,0,6,0,1,2.2292,,,,,,,,,,,,,,,,,,,,,,,,,,,,,,,,,,,,,,,,,
297184,2022-11-28_15h58.01.776,vts_reward_expectancy_bt,2022.2.4,MacIntel,59.99880002,Chrome,1440,900,,,,,,,,,,,,,,,,,,,,,,,H,174,hexagon,1,0,d,1,7,0,7,0,1,1.1324,,,,,,,,,,,,,,,,,,,,,,,,,,,,,,,,,,,,,,,,,
297184,2022-11-28_15h58.01.776,vts_reward_expectancy_bt,2022.2.4,MacIntel,59.99880002,Chrome,1440,900,,,,,,,,,,,,,,,,,,,,,,,Y,181,star,1,0,f,1,8,0,8,0,1,0.9959,,,,,,,,,,,,,,,,,,,,,,,,,,,,,,,,,,,,,,,,,
297184,2022-11-28_15h58.01.776,vts_reward_expectancy_bt,2022.2.4,MacIntel,59.99880002,Chrome,1440,900,,,,,,,,,,,,,,,,,,,,,,,W,139,triangle,1,0,f,1,9,0,9,0,1,0.9342,,,,,,,,,,,,,,,,,,,,,,,,,,,,,,,,,,,,,,,,,
297184,2022-11-28_15h58.01.776,vts_reward_expectancy_bt,2022.2.4,MacIntel,59.99880002,Chrome,1440,900,,,,,,,,,,,,,,,,,,,,,,,U,146,triangle,1,0,,2,,,,,,,j,1.9605,0,0,0,0,1,,,,,,,,,,,,,,,,,,,,,,,,,,,,,,,,,,
297184,2022-11-28_15h58.01.776,vts_reward_expectancy_bt,2022.2.4,MacIntel,59.99880002,Chrome,1440,900,,,,,,,,,,,,,,,,,,,,,,,W,181,hexagon,1,0,,2,,,,,,,k,0.7837,1,0,1,0,1,,,,,,,,,,,,,,,,,,,,,,,,,,,,,,,,,,
297184,2022-11-28_15h58.01.776,vts_reward_expectancy_bt,2022.2.4,MacIntel,59.99880002,Chrome,1440,900,,,,,,,,,,,,,,,,,,,,,,,H,125,star,0,0,,2,,,,,,,,,2,0,2,0,1,,,,,,,,,,,,,,,,,,,,,,,,,,,,,,,,,,
297184,2022-11-28_15h58.01.776,vts_reward_expectancy_bt,2022.2.4,MacIntel,59.99880002,Chrome,1440,900,,,,,,,,,,,,,,,,,,,,,,,F,174,circle,0,1,,2,,,,,,,,,3,0,3,0,1,,,,,,,,,,,,,,,,,,,,,,,,,,,,,,,,,,
297184,2022-11-28_15h58.01.776,vts_reward_expectancy_bt,2022.2.4,MacIntel,59.99880002,Chrome,1440,900,,,,,,,,,,,,,,,,,,,,,,,S,139,triangle,0,1,,2,,,,,,,,,4,0,4,0,1,,,,,,,,,,,,,,,,,,,,,,,,,,,,,,,,,,
297184,2022-11-28_15h58.01.776,vts_reward_expectancy_bt,2022.2.4,MacIntel,59.99880002,Chrome,1440,900,,,,,,,,,,,,,,,,,,,,,,,Y,160,hexagon,0,1,,2,,,,,,,,,5,0,5,0,1,,,,,,,,,,,,,,,,,,,,,,,,,,,,,,,,,,
297184,2022-11-28_15h58.01.776,vts_reward_expectancy_bt,2022.2.4,MacIntel,59.99880002,Chrome,1440,900,,,,,,,,,,,,,,,,,,,,,,,D,132,star,0,1,,2,,,,,,,,,6,0,6,0,1,,,,,,,,,,,,,,,,,,,,,,,,,,,,,,,,,,
297184,2022-11-28_15h58.01.776,vts_reward_expectancy_bt,2022.2.4,MacIntel,59.99880002,Chrome,1440,900,,,,,,,,,,,,,,,,,,,,,,,B,167,circle,0,1,,2,,,,,,,,,7,0,7,0,1,,,,,,,,,,,,,,,,,,,,,,,,,,,,,,,,,,
297184,2022-11-28_15h58.01.776,vts_reward_expectancy_bt,2022.2.4,MacIntel,59.99880002,Chrome,1440,900,,,,,,,,,,,,,,,,,,,,,,,U,146,circle,0,1,,2,,,,,,,,,8,0,8,0,1,,,,,,,,,,,,,,,,,,,,,,,,,,,,,,,,,,
297184,2022-11-28_15h58.01.776,vts_reward_expectancy_bt,2022.2.4,MacIntel,59.99880002,Chrome,1440,900,,,,,,,,,,,,,,,,,,,,,,,W,181,star,0,1,,2,,,,,,,,,9,0,9,0,1,,,,,,,,,,,,,,,,,,,,,,,,,,,,,,,,,,
297184,2022-11-28_15h58.01.776,vts_reward_expectancy_bt,2022.2.4,MacIntel,59.99880002,Chrome,1440,900,,,,,,,,,,,,,,,,,,,,,,,B,139,triangle,0,1,,3,,,,,,,,,0,0,0,0,1,,,,,,,,,,,,,,,,,,,,,,,,,,,,,,,,,,
297184,2022-11-28_15h58.01.776,vts_reward_expectancy_bt,2022.2.4,MacIntel,59.99880002,Chrome,1440,900,,,,,,,,,,,,,,,,,,,,,,,S,181,hexagon,1,1,,3,,,,,,,k,1.9278,1,0,1,0,1,,,,,,,,,,,,,,,,,,,,,,,,,,,,,,,,,,
297184,2022-11-28_15h58.01.776,vts_reward_expectancy_bt,2022.2.4,MacIntel,59.99880002,Chrome,1440,900,,,,,,,,,,,,,,,,,,,,,,,F,167,star,1,0,,3,,,,,,,k,1.3878,2,0,2,0,1,,,,,,,,,,,,,,,,,,,,,,,,,,,,,,,,,,
297184,2022-11-28_15h58.01.776,vts_reward_expectancy_bt,2022.2.4,MacIntel,59.99880002,Chrome,1440,900,,,,,,,,,,,,,,,,,,,,,,,W,174,circle,1,0,,3,,,,,,,k,0.6972,3,0,3,0,1,,,,,,,,,,,,,,,,,,,,,,,,,,,,,,,,,,
297184,2022-11-28_15h58.01.776,vts_reward_expectancy_bt,2022.2.4,MacIntel,59.99880002,Chrome,1440,900,,,,,,,,,,,,,,,,,,,,,,,H,132,triangle,1,0,,3,,,,,,,j,0.8217,4,0,4,0,1,,,,,,,,,,,,,,,,,,,,,,,,,,,,,,,,,,
297184,2022-11-28_15h58.01.776,vts_reward_expectancy_bt,2022.2.4,MacIntel,59.99880002,Chrome,1440,900,,,,,,,,,,,,,,,,,,,,,,,U,160,hexagon,1,0,,3,,,,,,,k,0.7734,5,0,5,0,1,,,,,,,,,,,,,,,,,,,,,,,,,,,,,,,,,,
297184,2022-11-28_15h58.01.776,vts_reward_expectancy_bt,2022.2.4,MacIntel,59.99880002,Chrome,1440,900,,,,,,,,,,,,,,,,,,,,,,,Y,125,star,1,0,,3,,,,,,,j,0.6679,6,0,6,0,1,,,,,,,,,,,,,,,,,,,,,,,,,,,,,,,,,,
297184,2022-11-28_15h58.01.776,vts_reward_expectancy_bt,2022.2.4,MacIntel,59.99880002,Chrome,1440,900,,,,,,,,,,,,,,,,,,,,,,,D,146,circle,1,0,,3,,,,,,,j,1.4392,7,0,7,0,1,,,,,,,,,,,,,,,,,,,,,,,,,,,,,,,,,,
297184,2022-11-28_15h58.01.776,vts_reward_expectancy_bt,2022.2.4,MacIntel,59.99880002,Chrome,1440,900,,,,,,,,,,,,,,,,,,,,,,,B,139,hexagon,1,0,,3,,,,,,,j,0.9266,8,0,8,0,1,,,,,,,,,,,,,,,,,,,,,,,,,,,,,,,,,,
297184,2022-11-28_15h58.01.776,vts_reward_expectancy_bt,2022.2.4,MacIntel,59.99880002,Chrome,1440,900,,,,,,,,,,,,,,,,,,,,,,,S,181,triangle,1,0,,3,,,,,,,k,1.0678,9,0,9,0,1,,,,,,,,,,,,,,,,,,,,,,,,,,,,,,,,,,
297184,2022-11-28_15h58.01.776,vts_reward_expectancy_bt,2022.2.4,MacIntel,59.99880002,Chrome,1440,900,,,,,0,612,,,,,,,,,,,,,,,,,F,146,star,1,0,,4,,,,,,,,,,,,,,-1,letter,NA,d,2.7818,vtsPrac,0,0,0,0,1,,,,,,,,,,,,,,,,,,,,,,,
297184,2022-11-28_15h58.01.776,vts_reward_expectancy_bt,2022.2.4,MacIntel,59.99880002,Chrome,1440,900,,,,,0,612,,,,,,,,,,,,,,,,,D,132,circle,1,0,,4,,,,,,,,,,,,,,switch,number,numSwt,j,2.7203,vtsPrac,1,0,1,0,1,,,,,,,,,,,,,,,,,,,,,,,
297184,2022-11-28_15h58.01.776,vts_reward_expectancy_bt,2022.2.4,MacIntel,59.99880002,Chrome,1440,900,,,,,0,612,,,,,,,,,,,,,,,,,H,167,star,0,0,,4,,,,,,,,,,,,,,repeat,number,NA,j,1.9555,vtsPrac,2,0,2,0,1,,,,,,,,,,,,,,,,,,,,,,,
297184,2022-11-28_15h58.01.776,vts_reward_expectancy_bt,2022.2.4,MacIntel,59.99880002,Chrome,1440,900,,,,,0,612,,,,,,,,,,,,,,,,,S,174,circle,1,1,,4,,,,,,,,,,,,,,repeat,number,numRpt,k,1.0134,vtsPrac,3,0,3,0,1,,,,,,,,,,,,,,,,,,,,,,,
297184,2022-11-28_15h58.01.776,vts_reward_expectancy_bt,2022.2.4,MacIntel,59.99880002,Chrome,1440,900,,,,,0,612,,,,,,,,,,,,,,,,,F,146,star,1,0,,4,,,,,,,,,,,,,,repeat,number,numRpt,j,1.1966,vtsPrac,4,0,4,0,1,,,,,,,,,,,,,,,,,,,,,,,
297184,2022-11-28_15h58.01.776,vts_reward_expectancy_bt,2022.2.4,MacIntel,59.99880002,Chrome,1440,900,,,,,0,612,,,,,,,,,,,,,,,,,D,132,circle,1,0,,4,,,,,,,,,,,,,,repeat,number,numRpt,j,0.8052,vtsPrac,5,0,5,0,1,,,,,,,,,,,,,,,,,,,,,,,
297184,2022-11-28_15h58.01.776,vts_reward_expectancy_bt,2022.2.4,MacIntel,59.99880002,Chrome,1440,900,,,,,0,612,,,,,,,,,,,,,,,,,H,167,hexagon,1,0,,4,,,,,,,,,,,,,,repeat,number,numRpt,k,1.2571,vtsPrac,6,0,6,0,1,,,,,,,,,,,,,,,,,,,,,,,
297184,2022-11-28_15h58.01.776,vts_reward_expectancy_bt,2022.2.4,MacIntel,59.99880002,Chrome,1440,900,,,,,0,612,,,,,,,,,,,,,,,,,S,174,circle,1,0,,4,,,,,,,,,,,,,,repeat,number,numRpt,k,0.8932,vtsPrac,7,0,7,0,1,,,,,,,,,,,,,,,,,,,,,,,
297184,2022-11-28_15h58.01.776,vts_reward_expectancy_bt,2022.2.4,MacIntel,59.99880002,Chrome,1440,900,,,,,0,612,,,,,,,,,,,,,,,,,Y,174,hexagon,1,0,,4,,,,,,,,,,,,,,repeat,number,numRpt,k,0.7156,vtsPrac,8,0,8,0,1,,,,,,,,,,,,,,,,,,,,,,,
297184,2022-11-28_15h58.01.776,vts_reward_expectancy_bt,2022.2.4,MacIntel,59.99880002,Chrome,1440,900,,,,,0,612,,,,,,,,,,,,,,,,,D,139,star,1,0,,4,,,,,,,,,,,,,,repeat,number,numRpt,j,0.6941,vtsPrac,9,0,9,0,1,,,,,,,,,,,,,,,,,,,,,,,
297184,2022-11-28_15h58.01.776,vts_reward_expectancy_bt,2022.2.4,MacIntel,59.99880002,Chrome,1440,900,,,,,0,612,,,,,,,,,,,,,,,,,F,132,triangle,1,0,,4,,,,,,,,,,,,,,repeat,number,numRpt,j,1.0116,vtsPrac,10,0,10,0,1,,,,,,,,,,,,,,,,,,,,,,,
297184,2022-11-28_15h58.01.776,vts_reward_expectancy_bt,2022.2.4,MacIntel,59.99880002,Chrome,1440,900,,,,,0,612,,,,,,,,,,,,,,,,,U,167,star,1,0,,4,,,,,,,,,,,,,,repeat,number,numRpt,k,1.8761,vtsPrac,11,0,11,0,1,,,,,,,,,,,,,,,,,,,,,,,
297184,2022-11-28_15h58.01.776,vts_reward_expectancy_bt,2022.2.4,MacIntel,59.99880002,Chrome,1440,900,,,,,0,612,,,,,,,,,,,,,,,,,D,139,triangle,1,0,,4,,,,,,,,,,,,,,repeat,number,numRpt,j,1.1975,vtsPrac,12,0,12,0,1,,,,,,,,,,,,,,,,,,,,,,,
297184,2022-11-28_15h58.01.776,vts_reward_expectancy_bt,2022.2.4,MacIntel,59.99880002,Chrome,1440,900,,,,,0,612,,,,,,,,,,,,,,,,,U,132,hexagon,1,0,,4,,,,,,,,,,,,,,repeat,number,numRpt,j,1.4669,vtsPrac,13,0,13,0,1,,,,,,,,,,,,,,,,,,,,,,,
297184,2022-11-28_15h58.01.776,vts_reward_expectancy_bt,2022.2.4,MacIntel,59.99880002,Chrome,1440,900,,,,,0,612,,,,,,,,,,,,,,,,,F,160,circle,1,0,,4,,,,,,,,,,,,,,repeat,number,numRpt,k,1.8172,vtsPrac,14,0,14,0,1,,,,,,,,,,,,,,,,,,,,,,,
297184,2022-11-28_15h58.01.776,vts_reward_expectancy_bt,2022.2.4,MacIntel,59.99880002,Chrome,1440,900,,,,,0,612,,,,,,,,,,,,,,,,,Y,181,triangle,1,0,,4,,,,,,,,,,,,,,repeat,number,numRpt,k,1.5612,vtsPrac,15,0,15,0,1,,,,,,,,,,,,,,,,,,,,,,,
297184,2022-11-28_15h58.01.776,vts_reward_expectancy_bt,2022.2.4,MacIntel,59.99880002,Chrome,1440,900,,,,,0,612,,,,,,,,,,,,,,,,,S,181,circle,1,0,,4,,,,,,,,,,,,,,repeat,number,numRpt,k,1.0078,vtsPrac,16,0,16,0,1,,,,,,,,,,,,,,,,,,,,,,,
297184,2022-11-28_15h58.01.776,vts_reward_expectancy_bt,2022.2.4,MacIntel,59.99880002,Chrome,1440,900,,,,,0,612,,,,,,,,,,,,,,,,,D,174,star,1,0,,4,,,,,,,,,,,,,,repeat,number,numRpt,k,1.228,vtsPrac,17,0,17,0,1,,,,,,,,,,,,,,,,,,,,,,,
297184,2022-11-28_15h58.01.776,vts_reward_expectancy_bt,2022.2.4,MacIntel,59.99880002,Chrome,1440,900,,,,,0,612,,,,,,,,,,,,,,,,,W,139,circle,1,0,,4,,,,,,,,,,,,,,repeat,number,numRpt,j,0.7402,vtsPrac,18,0,18,0,1,,,,,,,,,,,,,,,,,,,,,,,
297184,2022-11-28_15h58.01.776,vts_reward_expectancy_bt,2022.2.4,MacIntel,59.99880002,Chrome,1440,900,,,,,0,612,,,,,,,,,,,,,,,,,F,132,triangle,1,0,,4,,,,,,,,,,,,,,repeat,number,numRpt,j,0.9096,vtsPrac,19,0,19,0,1,,,,,,,,,,,,,,,,,,,,,,,
297184,2022-11-28_15h58.01.776,vts_reward_expectancy_bt,2022.2.4,MacIntel,59.99880002,Chrome,1440,900,,,,,0,612,,,,,,,,,,,,,,,,,H,146,hexagon,1,0,,4,,,,,,,,,,,,,,repeat,number,numRpt,j,1.7097,vtsPrac,20,0,20,0,1,,,,,,,,,,,,,,,,,,,,,,,
297184,2022-11-28_15h58.01.776,vts_reward_expectancy_bt,2022.2.4,MacIntel,59.99880002,Chrome,1440,900,,,,,0,612,,,,,,,,,,,,,,,,,Y,160,triangle,1,0,,4,,,,,,,,,,,,,,repeat,number,numRpt,k,1.417,vtsPrac,21,0,21,0,1,,,,,,,,,,,,,,,,,,,,,,,
297184,2022-11-28_15h58.01.776,vts_reward_expectancy_bt,2022.2.4,MacIntel,59.99880002,Chrome,1440,900,,,,,0,612,,,,,,,,,,,,,,,,,W,139,circle,1,0,,4,,,,,,,,,,,,,,repeat,number,numRpt,j,0.9325,vtsPrac,22,0,22,0,1,,,,,,,,,,,,,,,,,,,,,,,
297184,2022-11-28_15h58.01.776,vts_reward_expectancy_bt,2022.2.4,MacIntel,59.99880002,Chrome,1440,900,,,,,0,612,,,,,,,,,,,,,,,,,U,125,hexagon,1,0,,4,,,,,,,,,,,,,,repeat,number,numRpt,j,1.4443,vtsPrac,23,0,23,0,1,,,,,,,,,,,,,,,,,,,,,,,
297184,2022-11-28_15h58.01.776,vts_reward_expectancy_bt,2022.2.4,MacIntel,59.99880002,Chrome,1440,900,,,,,0,612,,,,,,,,,,,,,,,,,S,132,star,1,0,,4,,,,,,,,,,,,,,repeat,number,numRpt,j,0.8012,vtsPrac,24,0,24,0,1,,,,,,,,,,,,,,,,,,,,,,,
297184,2022-11-28_15h58.01.776,vts_reward_expectancy_bt,2022.2.4,MacIntel,59.99880002,Chrome,1440,900,,,,,0,612,,,,,,,,,,,,,,,,,D,125,hexagon,1,0,,4,,,,,,,,,,,,,,repeat,number,numRpt,j,0.87,vtsPrac,25,0,25,0,1,,,,,,,,,,,,,,,,,,,,,,,
297184,2022-11-28_15h58.01.776,vts_reward_expectancy_bt,2022.2.4,MacIntel,59.99880002,Chrome,1440,900,,,,,0,612,,,,,,,,,,,,,,,,,U,174,circle,1,0,,4,,,,,,,,,,,,,,repeat,number,numRpt,k,0.8279,vtsPrac,26,0,26,0,1,,,,,,,,,,,,,,,,,,,,,,,
297184,2022-11-28_15h58.01.776,vts_reward_expectancy_bt,2022.2.4,MacIntel,59.99880002,Chrome,1440,900,,,,,0,612,,,,,,,,,,,,,,,,,Y,146,hexagon,1,0,,4,,,,,,,,,,,,,,repeat,number,numRpt,j,1.0774,vtsPrac,27,0,27,0,1,,,,,,,,,,,,,,,,,,,,,,,
297184,2022-11-28_15h58.01.776,vts_reward_expectancy_bt,2022.2.4,MacIntel,59.99880002,Chrome,1440,900,,,,,0,612,,,,,,,,,,,,,,,,,D,174,triangle,1,0,,4,,,,,,,,,,,,,,repeat,number,numRpt,k,1.2798,vtsPrac,28,0,28,0,1,,,,,,,,,,,,,,,,,,,,,,,
297184,2022-11-28_15h58.01.776,vts_reward_expectancy_bt,2022.2.4,MacIntel,59.99880002,Chrome,1440,900,,,,,0,612,,,,,,,,,,,,,,,,,U,181,circle,1,0,,4,,,,,,,,,,,,,,repeat,number,numRpt,k,0.9089,vtsPrac,29,0,29,0,1,,,,,,,,,,,,,,,,,,,,,,,
297184,2022-11-28_15h58.01.776,vts_reward_expectancy_bt,2022.2.4,MacIntel,59.99880002,Chrome,1440,900,,,,,0,612,,,,,,,,,,,,,,,,,Y,167,circle,1,0,,4,,,,,,,,,,,,,,repeat,number,numRpt,k,1.0136,vtsPrac,30,0,30,0,1,,,,,,,,,,,,,,,,,,,,,,,
297184,2022-11-28_15h58.01.776,vts_reward_expectancy_bt,2022.2.4,MacIntel,59.99880002,Chrome,1440,900,,,,,0,612,,,,,,,,,,,,,,,,,B,160,star,1,0,,4,,,,,,,,,,,,,,repeat,number,numRpt,k,0.7738,vtsPrac,31,0,31,0,1,,,,,,,,,,,,,,,,,,,,,,,
297184,2022-11-28_15h58.01.776,vts_reward_expectancy_bt,2022.2.4,MacIntel,59.99880002,Chrome,1440,900,,,,,0,612,,,,,,,,,,,,,,,,,B,146,hexagon,1,0,,5,,,,,,,,,,,,,,switch,letter,lettSwt,d,1.4665,vtsPrac,0,0,0,0,1,,,,,,,,,,,,,,,,,,,,,,,
297184,2022-11-28_15h58.01.776,vts_reward_expectancy_bt,2022.2.4,MacIntel,59.99880002,Chrome,1440,900,,,,,0,612,,,,,,,,,,,,,,,,,S,181,circle,1,0,,5,,,,,,,,,,,,,,repeat,letter,lettRpt,f,1.1328,vtsPrac,1,0,1,0,1,,,,,,,,,,,,,,,,,,,,,,,
297184,2022-11-28_15h58.01.776,vts_reward_expectancy_bt,2022.2.4,MacIntel,59.99880002,Chrome,1440,900,,,,,0,612,,,,,,,,,,,,,,,,,D,160,hexagon,1,0,,5,,,,,,,,,,,,,,switch,number,numSwt,k,0.8937,vtsPrac,2,0,2,0,1,,,,,,,,,,,,,,,,,,,,,,,
297184,2022-11-28_15h58.01.776,vts_reward_expectancy_bt,2022.2.4,MacIntel,59.99880002,Chrome,1440,900,,,,,0,612,,,,,,,,,,,,,,,,,H,139,circle,0,0,,5,,,,,,,,,,,,,,repeat,number,NA,k,1.4268,vtsPrac,3,0,3,0,1,,,,,,,,,,,,,,,,,,,,,,,
297184,2022-11-28_15h58.01.776,vts_reward_expectancy_bt,2022.2.4,MacIntel,59.99880002,Chrome,1440,900,,,,,0,612,,,,,,,,,,,,,,,,,B,146,star,1,1,,5,,,,,,,,,,,,,,repeat,number,numRpt,j,1.4641,vtsPrac,4,0,4,0,1,,,,,,,,,,,,,,,,,,,,,,,
297184,2022-11-28_15h58.01.776,vts_reward_expectancy_bt,2022.2.4,MacIntel,59.99880002,Chrome,1440,900,,,,,0,612,,,,,,,,,,,,,,,,,S,181,hexagon,1,0,,5,,,,,,,,,,,,,,switch,letter,lettSwt,f,1.3936,vtsPrac,5,0,5,0,1,,,,,,,,,,,,,,,,,,,,,,,
297184,2022-11-28_15h58.01.776,vts_reward_expectancy_bt,2022.2.4,MacIntel,59.99880002,Chrome,1440,900,,,,,0,612,,,,,,,,,,,,,,,,,D,160,hexagon,1,0,,5,,,,,,,,,,,,,,switch,number,numSwt,k,1.4498,vtsPrac,6,0,6,0,1,,,,,,,,,,,,,,,,,,,,,,,
297184,2022-11-28_15h58.01.776,vts_reward_expectancy_bt,2022.2.4,MacIntel,59.99880002,Chrome,1440,900,,,,,0,612,,,,,,,,,,,,,,,,,H,139,star,1,0,,5,,,,,,,,,,,,,,repeat,number,numRpt,j,0.906,vtsPrac,7,0,7,0,1,,,,,,,,,,,,,,,,,,,,,,,
297184,2022-11-28_15h58.01.776,vts_reward_expectancy_bt,2022.2.4,MacIntel,59.99880002,Chrome,1440,900,,,,,0,612,,,,,,,,,,,,,,,,,B,174,hexagon,1,0,,5,,,,,,,,,,,,,,switch,letter,lettSwt,d,0.6959,vtsPrac,8,0,8,0,1,,,,,,,,,,,,,,,,,,,,,,,
297184,2022-11-28_15h58.01.776,vts_reward_expectancy_bt,2022.2.4,MacIntel,59.99880002,Chrome,1440,900,,,,,0,612,,,,,,,,,,,,,,,,,S,132,star,1,0,,5,,,,,,,,,,,,,,switch,number,numSwt,j,1.6321,vtsPrac,9,0,9,0,1,,,,,,,,,,,,,,,,,,,,,,,
297184,2022-11-28_15h58.01.776,vts_reward_expectancy_bt,2022.2.4,MacIntel,59.99880002,Chrome,1440,900,,,,,0,612,,,,,,,,,,,,,,,,,Y,160,star,1,0,,5,,,,,,,,,,,,,,repeat,number,numRpt,k,0.9214,vtsPrac,10,0,10,0,1,,,,,,,,,,,,,,,,,,,,,,,
297184,2022-11-28_15h58.01.776,vts_reward_expectancy_bt,2022.2.4,MacIntel,59.99880002,Chrome,1440,900,,,,,0,612,,,,,,,,,,,,,,,,,H,125,hexagon,1,0,,5,,,,,,,,,,,,,,switch,letter,lettSwt,d,1.0462,vtsPrac,11,0,11,0,1,,,,,,,,,,,,,,,,,,,,,,,
297184,2022-11-28_15h58.01.776,vts_reward_expectancy_bt,2022.2.4,MacIntel,59.99880002,Chrome,1440,900,,,,,0,612,,,,,,,,,,,,,,,,,F,125,circle,1,0,,5,,,,,,,,,,,,,,switch,number,numSwt,j,1.5806,vtsPrac,12,0,12,0,1,,,,,,,,,,,,,,,,,,,,,,,
297184,2022-11-28_15h58.01.776,vts_reward_expectancy_bt,2022.2.4,MacIntel,59.99880002,Chrome,1440,900,,,,,0,612,,,,,,,,,,,,,,,,,H,160,star,1,0,,5,,,,,,,,,,,,,,switch,letter,lettSwt,d,1.0482,vtsPrac,13,0,13,0,1,,,,,,,,,,,,,,,,,,,,,,,
297184,2022-11-28_15h58.01.776,vts_reward_expectancy_bt,2022.2.4,MacIntel,59.99880002,Chrome,1440,900,,,,,0,612,,,,,,,,,,,,,,,,,W,181,hexagon,1,0,,5,,,,,,,,,,,,,,switch,number,numSwt,k,0.7464,vtsPrac,14,0,14,0,1,,,,,,,,,,,,,,,,,,,,,,,
297184,2022-11-28_15h58.01.776,vts_reward_expectancy_bt,2022.2.4,MacIntel,59.99880002,Chrome,1440,900,,,,,0,612,,,,,,,,,,,,,,,,,U,167,triangle,0,0,,5,,,,,,,,,,,,,,switch,letter,NA,d,1.0854,vtsPrac,15,0,15,0,1,,,,,,,,,,,,,,,,,,,,,,,
297184,2022-11-28_15h58.01.776,vts_reward_expectancy_bt,2022.2.4,MacIntel,59.99880002,Chrome,1440,900,,,,,0,612,,,,,,,,,,,,,,,,,S,139,star,1,1,,5,,,,,,,,,,,,,,repeat,letter,lettRpt,f,1.5496,vtsPrac,16,0,16,0,1,,,,,,,,,,,,,,,,,,,,,,,
297184,2022-11-28_15h58.01.776,vts_reward_expectancy_bt,2022.2.4,MacIntel,59.99880002,Chrome,1440,900,,,,,0,612,,,,,,,,,,,,,,,,,F,125,triangle,1,0,,5,,,,,,,,,,,,,,switch,number,numSwt,j,1.3779,vtsPrac,17,0,17,0,1,,,,,,,,,,,,,,,,,,,,,,,
297184,2022-11-28_15h58.01.776,vts_reward_expectancy_bt,2022.2.4,MacIntel,59.99880002,Chrome,1440,900,,,,,0,612,,,,,,,,,,,,,,,,,B,160,star,0,0,,5,,,,,,,,,,,,,,repeat,number,NA,j,0.8476,vtsPrac,18,0,18,0,1,,,,,,,,,,,,,,,,,,,,,,,
297184,2022-11-28_15h58.01.776,vts_reward_expectancy_bt,2022.2.4,MacIntel,59.99880002,Chrome,1440,900,,,,,0,612,,,,,,,,,,,,,,,,,U,167,hexagon,1,1,,5,,,,,,,,,,,,,,switch,letter,lettSwt,f,1.8446,vtsPrac,19,0,19,0,1,,,,,,,,,,,,,,,,,,,,,,,
297184,2022-11-28_15h58.01.776,vts_reward_expectancy_bt,2022.2.4,MacIntel,59.99880002,Chrome,1440,900,,,,,0,612,,,,,,,,,,,,,,,,,S,146,star,-1,0,,5,,,,,,,,,,,,,,switch,no_choice,NA,,,vtsPrac,20,0,20,0,1,,,,,,,,,,,,,,,,,,,,,,,
297184,2022-11-28_15h58.01.776,vts_reward_expectancy_bt,2022.2.4,MacIntel,59.99880002,Chrome,1440,900,,,,,0,612,,,,,,,,,,,,,,,,,Y,160,circle,1,0,,5,,,,,,,,,,,,,,switch,number,numSwt,k,1.8808,vtsPrac,21,0,21,0,1,,,,,,,,,,,,,,,,,,,,,,,
297184,2022-11-28_15h58.01.776,vts_reward_expectancy_bt,2022.2.4,MacIntel,59.99880002,Chrome,1440,900,,,,,0,612,,,,,,,,,,,,,,,,,B,125,hexagon,1,0,,5,,,,,,,,,,,,,,switch,letter,lettSwt,d,0.7611,vtsPrac,22,0,22,0,1,,,,,,,,,,,,,,,,,,,,,,,
297184,2022-11-28_15h58.01.776,vts_reward_expectancy_bt,2022.2.4,MacIntel,59.99880002,Chrome,1440,900,,,,,0,612,,,,,,,,,,,,,,,,,H,174,triangle,1,0,,5,,,,,,,,,,,,,,repeat,letter,lettRpt,d,0.9819,vtsPrac,23,0,23,0,1,,,,,,,,,,,,,,,,,,,,,,,
297184,2022-11-28_15h58.01.776,vts_reward_expectancy_bt,2022.2.4,MacIntel,59.99880002,Chrome,1440,900,,,,,0,612,,,,,,,,,,,,,,,,,B,125,triangle,1,0,,5,,,,,,,,,,,,,,switch,number,numSwt,j,0.7146,vtsPrac,24,0,24,0,1,,,,,,,,,,,,,,,,,,,,,,,
297184,2022-11-28_15h58.01.776,vts_reward_expectancy_bt,2022.2.4,MacIntel,59.99880002,Chrome,1440,900,,,,,0,612,,,,,,,,,,,,,,,,,F,160,star,1,0,,5,,,,,,,,,,,,,,repeat,number,numRpt,k,1.1931,vtsPrac,25,0,25,0,1,,,,,,,,,,,,,,,,,,,,,,,
297184,2022-11-28_15h58.01.776,vts_reward_expectancy_bt,2022.2.4,MacIntel,59.99880002,Chrome,1440,900,,,,,0,612,,,,,,,,,,,,,,,,,H,146,circle,1,0,,5,,,,,,,,,,,,,,repeat,number,numRpt,j,1.1559,vtsPrac,26,0,26,0,1,,,,,,,,,,,,,,,,,,,,,,,
297184,2022-11-28_15h58.01.776,vts_reward_expectancy_bt,2022.2.4,MacIntel,59.99880002,Chrome,1440,900,,,,,0,612,,,,,,,,,,,,,,,,,S,174,star,1,0,,5,,,,,,,,,,,,,,repeat,number,numRpt,k,1.3377,vtsPrac,27,0,27,0,1,,,,,,,,,,,,,,,,,,,,,,,
297184,2022-11-28_15h58.01.776,vts_reward_expectancy_bt,2022.2.4,MacIntel,59.99880002,Chrome,1440,900,,,,,0,612,,,,,,,,,,,,,,,,,F,181,hexagon,1,0,,5,,,,,,,,,,,,,,repeat,number,numRpt,k,1.4491,vtsPrac,28,0,28,0,1,,,,,,,,,,,,,,,,,,,,,,,
297184,2022-11-28_15h58.01.776,vts_reward_expectancy_bt,2022.2.4,MacIntel,59.99880002,Chrome,1440,900,,,,,0,612,,,,,,,,,,,,,,,,,S,125,star,0,0,,5,,,,,,,,,,,,,,repeat,number,NA,k,1.4476,vtsPrac,29,0,29,0,1,,,,,,,,,,,,,,,,,,,,,,,
297184,2022-11-28_15h58.01.776,vts_reward_expectancy_bt,2022.2.4,MacIntel,59.99880002,Chrome,1440,900,,,,,0,612,,,,,,,,,,,,,,,,,H,146,circle,0,1,,5,,,,,,,,,,,,,,switch,letter,NA,f,1.2435,vtsPrac,30,0,30,0,1,,,,,,,,,,,,,,,,,,,,,,,
297184,2022-11-28_15h58.01.776,vts_reward_expectancy_bt,2022.2.4,MacIntel,59.99880002,Chrome,1440,900,,,,,0,612,,,,,,,,,,,,,,,,,D,132,triangle,1,1,,5,,,,,,,,,,,,,,repeat,letter,lettRpt,d,0.7837,vtsPrac,31,0,31,0,1,,,,,,,,,,,,,,,,,,,,,,,
297184,2022-11-28_15h58.01.776,vts_reward_expectancy_bt,2022.2.4,MacIntel,59.99880002,Chrome,1440,900,,,,,,,,,,,,,,,,,,,,,,,,,,,,,,,,,,,,,,,,,,,,,,,,,,,,,,,,,,,,,,,,,,,,,,,,,,,,
297184,2022-11-28_15h58.01.776,vts_reward_expectancy_bt,2022.2.4,MacIntel,59.99880002,Chrome,1440,900,,,,,,,,,,,,,,,,,,,,,,,,,,,,,,,,,,,,,,,,,,,,,,,,,,,,,,,,,,,,,,,,,,,,,,,,,,,,
297184,2022-11-28_15h58.01.776,vts_reward_expectancy_bt,2022.2.4,MacIntel,59.99880002,Chrome,1440,900,,,,,0,612,,,,,,,,,,,,,,,,,D,167,circle,1,0,,,,,,,,,,,,,,,,repeat,letter,lettRpt,d,0.7586,noRew,,,,,,0,0,0,0,0,1,,,,,,,,,,,,,,,,,
297184,2022-11-28_15h58.01.776,vts_reward_expectancy_bt,2022.2.4,MacIntel,59.99880002,Chrome,1440,900,,,,,0,612,,,,,,,,,,,,,,,,,W,125,triangle,1,0,,,,,,,,,,,,,,,,repeat,letter,lettRpt,f,0.9449,noRew,,,,,,0,1,0,1,0,1,,,,,,,,,,,,,,,,,
297184,2022-11-28_15h58.01.776,vts_reward_expectancy_bt,2022.2.4,MacIntel,59.99880002,Chrome,1440,900,,,,,0,612,,,,,,,,,,,,,,,,,U,139,circle,1,0,,,,,,,,,,,,,,,,switch,number,numSwt,j,0.8614,noRew,,,,,,0,2,0,2,0,1,,,,,,,,,,,,,,,,,
297184,2022-11-28_15h58.01.776,vts_reward_expectancy_bt,2022.2.4,MacIntel,59.99880002,Chrome,1440,900,,,,,0,612,,,,,,,,,,,,,,,,,B,174,triangle,1,0,,,,,,,,,,,,,,,,switch,letter,lettSwt,d,1.7097,noRew,,,,,,0,3,0,3,0,1,,,,,,,,,,,,,,,,,
297184,2022-11-28_15h58.01.776,vts_reward_expectancy_bt,2022.2.4,MacIntel,59.99880002,Chrome,1440,900,,,,,0,612,,,,,,,,,,,,,,,,,D,167,hexagon,1,0,,,,,,,,,,,,,,,,switch,number,numSwt,k,0.7641,noRew,,,,,,0,4,0,4,0,1,,,,,,,,,,,,,,,,,
297184,2022-11-28_15h58.01.776,vts_reward_expectancy_bt,2022.2.4,MacIntel,59.99880002,Chrome,1440,900,,,,,0,612,,,,,,,,,,,,,,,,,W,125,triangle,1,0,,,,,,,,,,,,,,,,switch,letter,lettSwt,f,0.5931,noRew,,,,,,0,5,0,5,0,1,,,,,,,,,,,,,,,,,
297184,2022-11-28_15h58.01.776,vts_reward_expectancy_bt,2022.2.4,MacIntel,59.99880002,Chrome,1440,900,,,,,0,612,,,,,,,,,,,,,,,,,U,139,circle,0,0,,,,,,,,,,,,,,,,repeat,letter,NA,d,1.1796,noRew,,,,,,0,6,0,6,0,1,,,,,,,,,,,,,,,,,
297184,2022-11-28_15h58.01.776,vts_reward_expectancy_bt,2022.2.4,MacIntel,59.99880002,Chrome,1440,900,,,,,0,612,,,,,,,,,,,,,,,,,B,174,star,1,1,,,,,,,,,,,,,,,,switch,number,numSwt,k,1.1678,noRew,,,,,,0,7,0,7,0,1,,,,,,,,,,,,,,,,,
297184,2022-11-28_15h58.01.776,vts_reward_expectancy_bt,2022.2.4,MacIntel,59.99880002,Chrome,1440,900,,,,,0,612,,,,,,,,,,,,,,,,,U,125,circle,1,0,,,,,,,,,,,,,,,,switch,letter,lettSwt,f,1.3775,noRew,,,,,,0,8,0,8,0,1,,,,,,,,,,,,,,,,,
297184,2022-11-28_15h58.01.776,vts_reward_expectancy_bt,2022.2.4,MacIntel,59.99880002,Chrome,1440,900,,,,,0,612,,,,,,,,,,,,,,,,,D,174,triangle,1,0,,,,,,,,,,,,,,,,switch,number,numSwt,k,0.8626,noRew,,,,,,0,9,0,9,0,1,,,,,,,,,,,,,,,,,
297184,2022-11-28_15h58.01.776,vts_reward_expectancy_bt,2022.2.4,MacIntel,59.99880002,Chrome,1440,900,,,,,0,612,,,,,,,,,,,,,,,,,Y,167,circle,1,0,,,,,,,,,,,,,,,,repeat,number,numRpt,k,2.0166,noRew,,,,,,0,10,0,10,0,1,,,,,,,,,,,,,,,,,
297184,2022-11-28_15h58.01.776,vts_reward_expectancy_bt,2022.2.4,MacIntel,59.99880002,Chrome,1440,900,,,,,0,612,,,,,,,,,,,,,,,,,B,132,star,1,0,,,,,,,,,,,,,,,,repeat,number,numRpt,j,1.0273,noRew,,,,,,0,11,0,11,0,1,,,,,,,,,,,,,,,,,
297184,2022-11-28_15h58.01.776,vts_reward_expectancy_bt,2022.2.4,MacIntel,59.99880002,Chrome,1440,900,,,,,0,612,,,,,,,,,,,,,,,,,D,146,circle,1,0,,,,,,,,,,,,,,,,repeat,number,numRpt,j,1.2054,noRew,,,,,,0,12,0,12,0,1,,,,,,,,,,,,,,,,,
297184,2022-11-28_15h58.01.776,vts_reward_expectancy_bt,2022.2.4,MacIntel,59.99880002,Chrome,1440,900,,,,,0,612,,,,,,,,,,,,,,,,,U,167,star,1,0,,,,,,,,,,,,,,,,switch,letter,lettSwt,f,0.7754,noRew,,,,,,0,13,0,13,0,1,,,,,,,,,,,,,,,,,
297184,2022-11-28_15h58.01.776,vts_reward_expectancy_bt,2022.2.4,MacIntel,59.99880002,Chrome,1440,900,,,,,0,612,,,,,,,,,,,,,,,,,W,181,triangle,0,0,,,,,,,,,,,,,,,,repeat,letter,NA,d,1.2219,noRew,,,,,,0,14,0,14,0,1,,,,,,,,,,,,,,,,,
297184,2022-11-28_15h58.01.776,vts_reward_expectancy_bt,2022.2.4,MacIntel,59.99880002,Chrome,1440,900,,,,,0,612,,,,,,,,,,,,,,,,,H,160,hexagon,1,1,,,,,,,,,,,,,,,,switch,number,numSwt,k,1.6933,noRew,,,,,,0,15,0,15,0,1,,,,,,,,,,,,,,,,,
297184,2022-11-28_15h58.01.776,vts_reward_expectancy_bt,2022.2.4,MacIntel,59.99880002,Chrome,1440,900,,,,,0,612,,,,,,,,,,,,,,,,,S,174,star,1,0,,,,,,,,,,,,,,,,switch,letter,lettSwt,f,1.7778,noRew,,,,,,0,16,0,16,0,1,,,,,,,,,,,,,,,,,
297184,2022-11-28_15h58.01.776,vts_reward_expectancy_bt,2022.2.4,MacIntel,59.99880002,Chrome,1440,900,,,,,0,612,,,,,,,,,,,,,,,,,U,167,circle,1,0,,,,,,,,,,,,,,,,switch,number,numSwt,k,0.8592,noRew,,,,,,0,17,0,17,0,1,,,,,,,,,,,,,,,,,
297184,2022-11-28_15h58.01.776,vts_reward_expectancy_bt,2022.2.4,MacIntel,59.99880002,Chrome,1440,900,,,,,0,612,,,,,,,,,,,,,,,,,D,181,triangle,1,0,,,,,,,,,,,,,,,,repeat,number,numRpt,k,0.8815,noRew,,,,,,0,18,0,18,0,1,,,,,,,,,,,,,,,,,
297184,2022-11-28_15h58.01.776,vts_reward_expectancy_bt,2022.2.4,MacIntel,59.99880002,Chrome,1440,900,,,,,0,612,,,,,,,,,,,,,,,,,W,132,circle,1,0,,,,,,,,,,,,,,,,repeat,number,numRpt,j,1.3765,noRew,,,,,,0,19,0,19,0,1,,,,,,,,,,,,,,,,,
297184,2022-11-28_15h58.01.776,vts_reward_expectancy_bt,2022.2.4,MacIntel,59.99880002,Chrome,1440,900,,,,,0,612,,,,,,,,,,,,,,,,,F,174,circle,1,0,,,,,,,,,,,,,,,,repeat,number,numRpt,k,0.8635,noRew,,,,,,0,20,0,20,0,1,,,,,,,,,,,,,,,,,
297184,2022-11-28_15h58.01.776,vts_reward_expectancy_bt,2022.2.4,MacIntel,59.99880002,Chrome,1440,900,,,,,0,612,,,,,,,,,,,,,,,,,H,132,star,1,0,,,,,,,,,,,,,,,,repeat,number,numRpt,j,1.068,noRew,,,,,,0,21,0,21,0,1,,,,,,,,,,,,,,,,,
297184,2022-11-28_15h58.01.776,vts_reward_expectancy_bt,2022.2.4,MacIntel,59.99880002,Chrome,1440,900,,,,,0,612,,,,,,,,,,,,,,,,,B,146,triangle,1,0,,,,,,,,,,,,,,,,repeat,number,numRpt,j,1.5899,noRew,,,,,,0,22,0,22,0,1,,,,,,,,,,,,,,,,,
297184,2022-11-28_15h58.01.776,vts_reward_expectancy_bt,2022.2.4,MacIntel,59.99880002,Chrome,1440,900,,,,,0,612,,,,,,,,,,,,,,,,,D,125,circle,1,0,,,,,,,,,,,,,,,,repeat,number,numRpt,j,0.8704,noRew,,,,,,0,23,0,23,0,1,,,,,,,,,,,,,,,,,
297184,2022-11-28_15h58.01.776,vts_reward_expectancy_bt,2022.2.4,MacIntel,59.99880002,Chrome,1440,900,,,,,0,612,,,,,,,,,,,,,,,,,H,160,hexagon,1,0,,,,,,,,,,,,,,,,repeat,number,numRpt,k,1.1256,noRew,,,,,,0,24,0,24,0,1,,,,,,,,,,,,,,,,,
297184,2022-11-28_15h58.01.776,vts_reward_expectancy_bt,2022.2.4,MacIntel,59.99880002,Chrome,1440,900,,,,,0,612,,,,,,,,,,,,,,,,,D,132,star,1,0,,,,,,,,,,,,,,,,switch,letter,lettSwt,d,1.0982,noRew,,,,,,0,25,0,25,0,1,,,,,,,,,,,,,,,,,
297184,2022-11-28_15h58.01.776,vts_reward_expectancy_bt,2022.2.4,MacIntel,59.99880002,Chrome,1440,900,,,,,0,612,,,,,,,,,,,,,,,,,Y,139,star,0,0,,,,,,,,,,,,,,,,repeat,letter,NA,d,1.2109,noRew,,,,,,0,26,0,26,0,1,,,,,,,,,,,,,,,,,
297184,2022-11-28_15h58.01.776,vts_reward_expectancy_bt,2022.2.4,MacIntel,59.99880002,Chrome,1440,900,,,,,0,612,,,,,,,,,,,,,,,,,U,181,triangle,1,1,,,,,,,,,,,,,,,,repeat,letter,lettRpt,f,0.8021,noRew,,,,,,0,27,0,27,0,1,,,,,,,,,,,,,,,,,
297184,2022-11-28_15h58.01.776,vts_reward_expectancy_bt,2022.2.4,MacIntel,59.99880002,Chrome,1440,900,,,,,0,612,,,,,,,,,,,,,,,,,B,125,hexagon,1,0,,,,,,,,,,,,,,,,repeat,letter,lettRpt,d,0.7904,noRew,,,,,,0,28,0,28,0,1,,,,,,,,,,,,,,,,,
297184,2022-11-28_15h58.01.776,vts_reward_expectancy_bt,2022.2.4,MacIntel,59.99880002,Chrome,1440,900,,,,,0,612,,,,,,,,,,,,,,,,,W,167,triangle,1,0,,,,,,,,,,,,,,,,repeat,letter,lettRpt,f,0.7203,noRew,,,,,,0,29,0,29,0,1,,,,,,,,,,,,,,,,,
297184,2022-11-28_15h58.01.776,vts_reward_expectancy_bt,2022.2.4,MacIntel,59.99880002,Chrome,1440,900,,,,,0,612,,,,,,,,,,,,,,,,,H,181,hexagon,1,0,,,,,,,,,,,,,,,,repeat,letter,lettRpt,d,1.2082,noRew,,,,,,0,30,0,30,0,1,,,,,,,,,,,,,,,,,
297184,2022-11-28_15h58.01.776,vts_reward_expectancy_bt,2022.2.4,MacIntel,59.99880002,Chrome,1440,900,,,,,0,612,,,,,,,,,,,,,,,,,F,160,star,1,0,,,,,,,,,,,,,,,,repeat,letter,lettRpt,d,1.0457,noRew,,,,,,0,31,0,31,0,1,,,,,,,,,,,,,,,,,
297184,2022-11-28_15h58.01.776,vts_reward_expectancy_bt,2022.2.4,MacIntel,59.99880002,Chrome,1440,900,,,,,0,612,,,,,,,,,,,,,,,,,S,160,hexagon,1,0,,,,,,,,,,,,,,,,repeat,letter,lettRpt,f,0.8654,noRew,,,,,,0,32,0,32,0,1,,,,,,,,,,,,,,,,,
297184,2022-11-28_15h58.01.776,vts_reward_expectancy_bt,2022.2.4,MacIntel,59.99880002,Chrome,1440,900,,,,,0,612,,,,,,,,,,,,,,,,,Y,125,star,1,0,,,,,,,,,,,,,,,,repeat,letter,lettRpt,f,0.7628,noRew,,,,,,0,33,0,33,0,1,,,,,,,,,,,,,,,,,
297184,2022-11-28_15h58.01.776,vts_reward_expectancy_bt,2022.2.4,MacIntel,59.99880002,Chrome,1440,900,,,,,0,612,,,,,,,,,,,,,,,,,F,132,circle,1,0,,,,,,,,,,,,,,,,repeat,letter,lettRpt,d,1.0794,noRew,,,,,,0,34,0,34,0,1,,,,,,,,,,,,,,,,,
297184,2022-11-28_15h58.01.776,vts_reward_expectancy_bt,2022.2.4,MacIntel,59.99880002,Chrome,1440,900,,,,,0,612,,,,,,,,,,,,,,,,,H,167,triangle,1,0,,,,,,,,,,,,,,,,repeat,letter,lettRpt,d,1.2937,noRew,,,,,,0,35,0,35,0,1,,,,,,,,,,,,,,,,,
297184,2022-11-28_15h58.01.776,vts_reward_expectancy_bt,2022.2.4,MacIntel,59.99880002,Chrome,1440,900,,,,,0,612,,,,,,,,,,,,,,,,,Y,146,star,0,0,,,,,,,,,,,,,,,,repeat,letter,NA,d,0.8945,noRew,,,,,,0,36,0,36,0,1,,,,,,,,,,,,,,,,,
297184,2022-11-28_15h58.01.776,vts_reward_expectancy_bt,2022.2.4,MacIntel,59.99880002,Chrome,1440,900,,,,,0,612,,,,,,,,,,,,,,,,,S,181,hexagon,1,1,,,,,,,,,,,,,,,,repeat,letter,lettRpt,f,0.7464,noRew,,,,,,0,37,0,37,0,1,,,,,,,,,,,,,,,,,
297184,2022-11-28_15h58.01.776,vts_reward_expectancy_bt,2022.2.4,MacIntel,59.99880002,Chrome,1440,900,,,,,0,612,,,,,,,,,,,,,,,,,W,167,hexagon,1,0,,,,,,,,,,,,,,,,repeat,letter,lettRpt,f,1.3512,noRew,,,,,,0,38,0,38,0,1,,,,,,,,,,,,,,,,,
297184,2022-11-28_15h58.01.776,vts_reward_expectancy_bt,2022.2.4,MacIntel,59.99880002,Chrome,1440,900,,,,,0,612,,,,,,,,,,,,,,,,,U,139,triangle,1,0,,,,,,,,,,,,,,,,switch,number,numSwt,j,2.186,noRew,,,,,,0,39,0,39,0,1,,,,,,,,,,,,,,,,,
297184,2022-11-28_15h58.01.776,vts_reward_expectancy_bt,2022.2.4,MacIntel,59.99880002,Chrome,1440,900,,,,,0,612,,,,,,,,,,,,,,,,,Y,174,circle,1,0,,,,,,,,,,,,,,,,repeat,number,numRpt,k,1.8079,noRew,,,,,,0,40,0,40,0,1,,,,,,,,,,,,,,,,,
297184,2022-11-28_15h58.01.776,vts_reward_expectancy_bt,2022.2.4,MacIntel,59.99880002,Chrome,1440,900,,,,,0,612,,,,,,,,,,,,,,,,,B,160,star,0,0,,,,,,,,,,,,,,,,repeat,number,NA,j,1.8268,noRew,,,,,,0,41,0,41,0,1,,,,,,,,,,,,,,,,,
297184,2022-11-28_15h58.01.776,vts_reward_expectancy_bt,2022.2.4,MacIntel,59.99880002,Chrome,1440,900,,,,,0,612,,,,,,,,,,,,,,,,,H,125,hexagon,1,1,,,,,,,,,,,,,,,,repeat,number,numRpt,j,1.6634,noRew,,,,,,0,42,0,42,0,1,,,,,,,,,,,,,,,,,
297184,2022-11-28_15h58.01.776,vts_reward_expectancy_bt,2022.2.4,MacIntel,59.99880002,Chrome,1440,900,,,,,0,612,,,,,,,,,,,,,,,,,U,181,circle,1,0,,,,,,,,,,,,,,,,repeat,number,numRpt,k,1.2539,noRew,,,,,,0,43,0,43,0,1,,,,,,,,,,,,,,,,,
297184,2022-11-28_15h58.01.776,vts_reward_expectancy_bt,2022.2.4,MacIntel,59.99880002,Chrome,1440,900,,,,,0,612,,,,,,,,,,,,,,,,,B,125,star,1,0,,,,,,,,,,,,,,,,repeat,number,numRpt,j,0.8697,noRew,,,,,,0,44,0,44,0,1,,,,,,,,,,,,,,,,,
297184,2022-11-28_15h58.01.776,vts_reward_expectancy_bt,2022.2.4,MacIntel,59.99880002,Chrome,1440,900,,,,,0,612,,,,,,,,,,,,,,,,,Y,181,triangle,-1,0,,,,,,,,,,,,,,,,switch,no_choice,NA,,,noRew,,,,,,0,45,0,45,0,1,,,,,,,,,,,,,,,,,
297184,2022-11-28_15h58.01.776,vts_reward_expectancy_bt,2022.2.4,MacIntel,59.99880002,Chrome,1440,900,,,,,0,612,,,,,,,,,,,,,,,,,F,160,triangle,1,0,,,,,,,,,,,,,,,,switch,number,numSwt,k,0.7254,noRew,,,,,,0,46,0,46,0,1,,,,,,,,,,,,,,,,,
297184,2022-11-28_15h58.01.776,vts_reward_expectancy_bt,2022.2.4,MacIntel,59.99880002,Chrome,1440,900,,,,,0,612,,,,,,,,,,,,,,,,,S,167,star,1,0,,,,,,,,,,,,,,,,switch,letter,lettSwt,f,0.8673,noRew,,,,,,0,47,0,47,0,1,,,,,,,,,,,,,,,,,
297184,2022-11-28_15h58.01.776,vts_reward_expectancy_bt,2022.2.4,MacIntel,59.99880002,Chrome,1440,900,,,,,0,612,,,,,,,,,,,,,,,,,B,160,circle,1,0,,,,,,,,,,,,,,,,switch,number,numSwt,k,0.7922,noRew,,,,,,0,48,0,48,0,1,,,,,,,,,,,,,,,,,
297184,2022-11-28_15h58.01.776,vts_reward_expectancy_bt,2022.2.4,MacIntel,59.99880002,Chrome,1440,900,,,,,0,612,,,,,,,,,,,,,,,,,U,139,hexagon,1,0,,,,,,,,,,,,,,,,repeat,number,numRpt,j,0.6266,noRew,,,,,,0,49,0,49,0,1,,,,,,,,,,,,,,,,,
297184,2022-11-28_15h58.01.776,vts_reward_expectancy_bt,2022.2.4,MacIntel,59.99880002,Chrome,1440,900,,,,,0,612,,,,,,,,,,,,,,,,,W,181,star,1,0,,,,,,,,,,,,,,,,switch,letter,lettSwt,f,1.2311,noRew,,,,,,0,50,0,50,0,1,,,,,,,,,,,,,,,,,
297184,2022-11-28_15h58.01.776,vts_reward_expectancy_bt,2022.2.4,MacIntel,59.99880002,Chrome,1440,900,,,,,0,612,,,,,,,,,,,,,,,,,Y,174,circle,1,0,,,,,,,,,,,,,,,,repeat,letter,lettRpt,f,0.8615,noRew,,,,,,0,51,0,51,0,1,,,,,,,,,,,,,,,,,
297184,2022-11-28_15h58.01.776,vts_reward_expectancy_bt,2022.2.4,MacIntel,59.99880002,Chrome,1440,900,,,,,0,612,,,,,,,,,,,,,,,,,U,132,hexagon,1,0,,,,,,,,,,,,,,,,switch,number,numSwt,j,1.7033,noRew,,,,,,0,52,0,52,0,1,,,,,,,,,,,,,,,,,
297184,2022-11-28_15h58.01.776,vts_reward_expectancy_bt,2022.2.4,MacIntel,59.99880002,Chrome,1440,900,,,,,0,612,,,,,,,,,,,,,,,,,B,125,triangle,1,0,,,,,,,,,,,,,,,,repeat,number,numRpt,j,0.8166,noRew,,,,,,0,53,0,53,0,1,,,,,,,,,,,,,,,,,
297184,2022-11-28_15h58.01.776,vts_reward_expectancy_bt,2022.2.4,MacIntel,59.99880002,Chrome,1440,900,,,,,0,612,,,,,,,,,,,,,,,,,Y,160,star,1,0,,,,,,,,,,,,,,,,repeat,number,numRpt,k,2.4236,noRew,,,,,,0,54,0,54,0,1,,,,,,,,,,,,,,,,,
297184,2022-11-28_15h58.01.776,vts_reward_expectancy_bt,2022.2.4,MacIntel,59.99880002,Chrome,1440,900,,,,,0,612,,,,,,,,,,,,,,,,,W,146,circle,1,0,,,,,,,,,,,,,,,,switch,letter,lettSwt,f,1.4136,noRew,,,,,,0,55,0,55,0,1,,,,,,,,,,,,,,,,,
297184,2022-11-28_15h58.01.776,vts_reward_expectancy_bt,2022.2.4,MacIntel,59.99880002,Chrome,1440,900,,,,,0,612,,,,,,,,,,,,,,,,,U,146,star,0,0,,,,,,,,,,,,,,,,switch,number,NA,k,0.8758,noRew,,,,,,0,56,0,56,0,1,,,,,,,,,,,,,,,,,
297184,2022-11-28_15h58.01.776,vts_reward_expectancy_bt,2022.2.4,MacIntel,59.99880002,Chrome,1440,900,,,,,0,612,,,,,,,,,,,,,,,,,F,132,triangle,1,1,,,,,,,,,,,,,,,,switch,letter,lettSwt,d,1.6919,noRew,,,,,,0,57,0,57,0,1,,,,,,,,,,,,,,,,,
297184,2022-11-28_15h58.01.776,vts_reward_expectancy_bt,2022.2.4,MacIntel,59.99880002,Chrome,1440,900,,,,,0,612,,,,,,,,,,,,,,,,,S,139,star,1,0,,,,,,,,,,,,,,,,switch,number,numSwt,j,1.3306,noRew,,,,,,0,58,0,58,0,1,,,,,,,,,,,,,,,,,
297184,2022-11-28_15h58.01.776,vts_reward_expectancy_bt,2022.2.4,MacIntel,59.99880002,Chrome,1440,900,,,,,0,612,,,,,,,,,,,,,,,,,B,181,triangle,1,0,,,,,,,,,,,,,,,,repeat,number,numRpt,k,1.5776,noRew,,,,,,0,59,0,59,0,1,,,,,,,,,,,,,,,,,
297184,2022-11-28_15h58.01.776,vts_reward_expectancy_bt,2022.2.4,MacIntel,59.99880002,Chrome,1440,900,,,,,0,612,,,,,,,,,,,,,,,,,Y,139,star,1,0,,,,,,,,,,,,,,,,repeat,number,numRpt,j,0.9917,noRew,,,,,,0,60,0,60,0,1,,,,,,,,,,,,,,,,,
297184,2022-11-28_15h58.01.776,vts_reward_expectancy_bt,2022.2.4,MacIntel,59.99880002,Chrome,1440,900,,,,,0,612,,,,,,,,,,,,,,,,,D,174,hexagon,1,0,,,,,,,,,,,,,,,,switch,letter,lettSwt,d,1.4117,noRew,,,,,,0,61,0,61,0,1,,,,,,,,,,,,,,,,,
297184,2022-11-28_15h58.01.776,vts_reward_expectancy_bt,2022.2.4,MacIntel,59.99880002,Chrome,1440,900,,,,,0,612,,,,,,,,,,,,,,,,,B,167,triangle,1,0,,,,,,,,,,,,,,,,repeat,letter,lettRpt,d,1.0282,noRew,,,,,,0,62,0,62,0,1,,,,,,,,,,,,,,,,,
297184,2022-11-28_15h58.01.776,vts_reward_expectancy_bt,2022.2.4,MacIntel,59.99880002,Chrome,1440,900,,,,,0,612,,,,,,,,,,,,,,,,,W,125,circle,1,0,,,,,,,,,,,,,,,,repeat,letter,lettRpt,f,0.8974,noRew,,,,,,0,63,0,63,0,1,,,,,,,,,,,,,,,,,
297184,2022-11-28_15h58.01.776,vts_reward_expectancy_bt,2022.2.4,MacIntel,59.99880002,Chrome,1440,900,,,,,,,,,,,,,,,,,,,,,,,,,,,,,,,,,,,,,,,,,,,,,,,,,,,,,,,,,,,,,,,,,,,,,,,,,,,,
297184,2022-11-28_15h58.01.776,vts_reward_expectancy_bt,2022.2.4,MacIntel,59.99880002,Chrome,1440,900,,,,,1,613,,,,,,,,,,,,,,,,,F,174,hexagon,1,0,,,,,,,,,,,,,,,,repeat,letter,lettRpt,d,1.1471,Lo,,,,,,0,,,,,,space,7.6342,low,0,0,0,0,1,,,,,,,,,
297184,2022-11-28_15h58.01.776,vts_reward_expectancy_bt,2022.2.4,MacIntel,59.99880002,Chrome,1440,900,,,,,0,613,,,,,,,,,,,,,,,,,U,181,star,1,0,,,,,,,,,,,,,,,,repeat,letter,lettRpt,f,1.5022,Hi,,,,,,0,,,,,,,,low,1,0,1,0,1,,,,,,,,,
297184,2022-11-28_15h58.01.776,vts_reward_expectancy_bt,2022.2.4,MacIntel,59.99880002,Chrome,1440,900,,,,,10,623,,,,,,,,,,,,,,,,,H,132,circle,1,0,,,,,,,,,,,,,,,,switch,number,numSwt,j,1.497,Lo,,,,,,0,,,,,,,,low,2,0,2,0,1,,,,,,,,,
297184,2022-11-28_15h58.01.776,vts_reward_expectancy_bt,2022.2.4,MacIntel,59.99880002,Chrome,1440,900,,,,,0,623,,,,,,,,,,,,,,,,,B,146,triangle,0,0,,,,,,,,,,,,,,,,repeat,number,NA,k,1.0952,Lo,,,,,,0,,,,,,,,low,3,0,3,0,1,,,,,,,,,
297184,2022-11-28_15h58.01.776,vts_reward_expectancy_bt,2022.2.4,MacIntel,59.99880002,Chrome,1440,900,,,,,10,633,,,,,,,,,,,,,,,,,D,167,hexagon,1,1,,,,,,,,,,,,,,,,repeat,number,numRpt,k,1.1332,Lo,,,,,,0,,,,,,,,low,4,0,4,0,1,,,,,,,,,
297184,2022-11-28_15h58.01.776,vts_reward_expectancy_bt,2022.2.4,MacIntel,59.99880002,Chrome,1440,900,,,,,0,633,,,,,,,,,,,,,,,,,Y,139,star,-1,0,,,,,,,,,,,,,,,,switch,no_choice,NA,,,Lo,,,,,,0,,,,,,,,low,5,0,5,0,1,,,,,,,,,
297184,2022-11-28_15h58.01.776,vts_reward_expectancy_bt,2022.2.4,MacIntel,59.99880002,Chrome,1440,900,,,,,10,643,,,,,,,,,,,,,,,,,S,125,circle,1,0,,,,,,,,,,,,,,,,switch,number,numSwt,j,0.7109,Lo,,,,,,0,,,,,,,,low,6,0,6,0,1,,,,,,,,,
297184,2022-11-28_15h58.01.776,vts_reward_expectancy_bt,2022.2.4,MacIntel,59.99880002,Chrome,1440,900,,,,,10,653,,,,,,,,,,,,,,,,,W,160,triangle,1,0,,,,,,,,,,,,,,,,switch,letter,lettSwt,f,1.0947,Hi,,,,,,0,,,,,,,,low,7,0,7,0,1,,,,,,,,,
297184,2022-11-28_15h58.01.776,vts_reward_expectancy_bt,2022.2.4,MacIntel,59.99880002,Chrome,1440,900,,,,,10,663,,,,,,,,,,,,,,,,,F,174,circle,1,0,,,,,,,,,,,,,,,,switch,number,numSwt,k,1.7628,Lo,,,,,,0,,,,,,,,low,8,0,8,0,1,,,,,,,,,
297184,2022-11-28_15h58.01.776,vts_reward_expectancy_bt,2022.2.4,MacIntel,59.99880002,Chrome,1440,900,,,,,1,664,,,,,,,,,,,,,,,,,U,181,hexagon,1,0,,,,,,,,,,,,,,,,repeat,number,numRpt,k,1.0298,Lo,,,,,,0,,,,,,,,low,9,0,9,0,1,,,,,,,,,
297184,2022-11-28_15h58.01.776,vts_reward_expectancy_bt,2022.2.4,MacIntel,59.99880002,Chrome,1440,900,,,,,0,664,,,,,,,,,,,,,,,,,H,132,triangle,1,0,,,,,,,,,,,,,,,,switch,letter,lettSwt,d,1.1619,Hi,,,,,,0,,,,,,,,low,10,0,10,0,1,,,,,,,,,
297184,2022-11-28_15h58.01.776,vts_reward_expectancy_bt,2022.2.4,MacIntel,59.99880002,Chrome,1440,900,,,,,1,665,,,,,,,,,,,,,,,,,B,146,star,1,0,,,,,,,,,,,,,,,,repeat,letter,lettRpt,d,0.7415,Hi,,,,,,0,,,,,,,,low,11,0,11,0,1,,,,,,,,,
297184,2022-11-28_15h58.01.776,vts_reward_expectancy_bt,2022.2.4,MacIntel,59.99880002,Chrome,1440,900,,,,,10,675,,,,,,,,,,,,,,,,,D,167,hexagon,1,0,,,,,,,,,,,,,,,,repeat,letter,lettRpt,d,1.4439,Lo,,,,,,0,,,,,,,,low,12,0,12,0,1,,,,,,,,,
297184,2022-11-28_15h58.01.776,vts_reward_expectancy_bt,2022.2.4,MacIntel,59.99880002,Chrome,1440,900,,,,,0,675,,,,,,,,,,,,,,,,,Y,139,star,1,0,,,,,,,,,,,,,,,,switch,number,numSwt,j,1.1296,Hi,,,,,,0,,,,,,,,low,13,0,13,0,1,,,,,,,,,
297184,2022-11-28_15h58.01.776,vts_reward_expectancy_bt,2022.2.4,MacIntel,59.99880002,Chrome,1440,900,,,,,1,676,,,,,,,,,,,,,,,,,S,125,circle,1,0,,,,,,,,,,,,,,,,repeat,number,numRpt,j,0.8818,Lo,,,,,,0,,,,,,,,low,14,0,14,0,1,,,,,,,,,
297184,2022-11-28_15h58.01.776,vts_reward_expectancy_bt,2022.2.4,MacIntel,59.99880002,Chrome,1440,900,,,,,0,676,,,,,,,,,,,,,,,,,W,160,triangle,1,0,,,,,,,,,,,,,,,,switch,letter,lettSwt,f,1.5435,Hi,,,,,,0,,,,,,,,low,15,0,15,0,1,,,,,,,,,
297184,2022-11-28_15h58.01.776,vts_reward_expectancy_bt,2022.2.4,MacIntel,59.99880002,Chrome,1440,900,,,,,1,677,,,,,,,,,,,,,,,,,Y,146,circle,1,0,,,,,,,,,,,,,,,,repeat,letter,lettRpt,f,1.0301,Lo,,,,,,0,,,,,,,,low,16,0,16,0,1,,,,,,,,,
297184,2022-11-28_15h58.01.776,vts_reward_expectancy_bt,2022.2.4,MacIntel,59.99880002,Chrome,1440,900,,,,,10,687,,,,,,,,,,,,,,,,,H,167,hexagon,1,0,,,,,,,,,,,,,,,,switch,number,numSwt,k,1.1457,Lo,,,,,,0,,,,,,,,low,17,0,17,0,1,,,,,,,,,
297184,2022-11-28_15h58.01.776,vts_reward_expectancy_bt,2022.2.4,MacIntel,59.99880002,Chrome,1440,900,,,,,10,697,,,,,,,,,,,,,,,,,U,181,star,1,0,,,,,,,,,,,,,,,,repeat,number,numRpt,k,0.7384,Hi,,,,,,0,,,,,,,,low,18,0,18,0,1,,,,,,,,,
297184,2022-11-28_15h58.01.776,vts_reward_expectancy_bt,2022.2.4,MacIntel,59.99880002,Chrome,1440,900,,,,,0,697,,,,,,,,,,,,,,,,,F,125,triangle,0,0,,,,,,,,,,,,,,,,repeat,number,NA,k,1.1035,Hi,,,,,,0,,,,,,,,low,19,0,19,0,1,,,,,,,,,
297184,2022-11-28_15h58.01.776,vts_reward_expectancy_bt,2022.2.4,MacIntel,59.99880002,Chrome,1440,900,,,,,1,698,,,,,,,,,,,,,,,,,B,139,circle,1,1,,,,,,,,,,,,,,,,switch,letter,lettSwt,d,1.6808,Lo,,,,,,0,,,,,,,,low,20,0,20,0,1,,,,,,,,,
297184,2022-11-28_15h58.01.776,vts_reward_expectancy_bt,2022.2.4,MacIntel,59.99880002,Chrome,1440,900,,,,,1,699,,,,,,,,,,,,,,,,,D,174,hexagon,1,0,,,,,,,,,,,,,,,,repeat,letter,lettRpt,d,1.7575,Lo,,,,,,0,,,,,,,,low,21,0,21,0,1,,,,,,,,,
297184,2022-11-28_15h58.01.776,vts_reward_expectancy_bt,2022.2.4,MacIntel,59.99880002,Chrome,1440,900,,,,,0,699,,,,,,,,,,,,,,,,,W,132,triangle,1,0,,,,,,,,,,,,,,,,switch,number,numSwt,j,1.3463,Hi,,,,,,0,,,,,,,,low,22,0,22,0,1,,,,,,,,,
297184,2022-11-28_15h58.01.776,vts_reward_expectancy_bt,2022.2.4,MacIntel,59.99880002,Chrome,1440,900,,,,,0,699,,,,,,,,,,,,,,,,,S,160,star,1,0,,,,,,,,,,,,,,,,switch,letter,lettSwt,f,2.2785,Hi,,,,,,0,,,,,,,,low,23,0,23,0,1,,,,,,,,,
297184,2022-11-28_15h58.01.776,vts_reward_expectancy_bt,2022.2.4,MacIntel,59.99880002,Chrome,1440,900,,,,,0,699,,,,,,,,,,,,,,,,,U,160,triangle,1,0,,,,,,,,,,,,,,,,switch,number,numSwt,k,1.0658,Hi,,,,,,0,,,,,,,,low,24,0,24,0,1,,,,,,,,,
297184,2022-11-28_15h58.01.776,vts_reward_expectancy_bt,2022.2.4,MacIntel,59.99880002,Chrome,1440,900,,,,,10,709,,,,,,,,,,,,,,,,,D,167,star,1,0,,,,,,,,,,,,,,,,repeat,number,numRpt,k,0.6367,Hi,,,,,,0,,,,,,,,low,25,0,25,0,1,,,,,,,,,
297184,2022-11-28_15h58.01.776,vts_reward_expectancy_bt,2022.2.4,MacIntel,59.99880002,Chrome,1440,900,,,,,1,710,,,,,,,,,,,,,,,,,B,139,circle,1,0,,,,,,,,,,,,,,,,repeat,number,numRpt,j,1.0675,Lo,,,,,,0,,,,,,,,low,26,0,26,0,1,,,,,,,,,
297184,2022-11-28_15h58.01.776,vts_reward_expectancy_bt,2022.2.4,MacIntel,59.99880002,Chrome,1440,900,,,,,1,711,,,,,,,,,,,,,,,,,Y,132,hexagon,1,0,,,,,,,,,,,,,,,,switch,letter,lettSwt,f,0.8279,Lo,,,,,,0,,,,,,,,low,27,0,27,0,1,,,,,,,,,
297184,2022-11-28_15h58.01.776,vts_reward_expectancy_bt,2022.2.4,MacIntel,59.99880002,Chrome,1440,900,,,,,0,711,,,,,,,,,,,,,,,,,H,181,hexagon,0,0,,,,,,,,,,,,,,,,switch,number,NA,j,1.2842,Lo,,,,,,0,,,,,,,,low,28,0,28,0,1,,,,,,,,,
297184,2022-11-28_15h58.01.776,vts_reward_expectancy_bt,2022.2.4,MacIntel,59.99880002,Chrome,1440,900,,,,,10,721,,,,,,,,,,,,,,,,,F,174,circle,1,1,,,,,,,,,,,,,,,,repeat,number,numRpt,k,1.358,Lo,,,,,,0,,,,,,,,low,29,0,29,0,1,,,,,,,,,
297184,2022-11-28_15h58.01.776,vts_reward_expectancy_bt,2022.2.4,MacIntel,59.99880002,Chrome,1440,900,,,,,0,721,,,,,,,,,,,,,,,,,W,146,star,0,0,,,,,,,,,,,,,,,,repeat,number,NA,k,1.1075,Lo,,,,,,0,,,,,,,,low,30,0,30,0,1,,,,,,,,,
297184,2022-11-28_15h58.01.776,vts_reward_expectancy_bt,2022.2.4,MacIntel,59.99880002,Chrome,1440,900,,,,,10,731,,,,,,,,,,,,,,,,,S,125,triangle,1,1,,,,,,,,,,,,,,,,switch,letter,lettSwt,f,1.095,Hi,,,,,,0,,,,,,,,low,31,0,31,0,1,,,,,,,,,
297184,2022-11-28_15h58.01.776,vts_reward_expectancy_bt,2022.2.4,MacIntel,59.99880002,Chrome,1440,900,,,,,0,731,,,,,,,,,,,,,,,,,Y,167,star,0,0,,,,,,,,,,,,,,,,repeat,letter,NA,d,1.6354,Hi,,,,,,1,,,,,,space,5.8196,low,0,0,0,0,1,,,,,,,,,
297184,2022-11-28_15h58.01.776,vts_reward_expectancy_bt,2022.2.4,MacIntel,59.99880002,Chrome,1440,900,,,,,1,732,,,,,,,,,,,,,,,,,U,160,hexagon,1,1,,,,,,,,,,,,,,,,repeat,letter,lettRpt,f,1.0718,Lo,,,,,,1,,,,,,,,low,1,0,1,0,1,,,,,,,,,
297184,2022-11-28_15h58.01.776,vts_reward_expectancy_bt,2022.2.4,MacIntel,59.99880002,Chrome,1440,900,,,,,10,742,,,,,,,,,,,,,,,,,H,125,triangle,1,0,,,,,,,,,,,,,,,,switch,number,numSwt,j,0.8566,Hi,,,,,,1,,,,,,,,low,2,0,2,0,1,,,,,,,,,
297184,2022-11-28_15h58.01.776,vts_reward_expectancy_bt,2022.2.4,MacIntel,59.99880002,Chrome,1440,900,,,,,10,752,,,,,,,,,,,,,,,,,B,181,circle,1,0,,,,,,,,,,,,,,,,switch,letter,lettSwt,d,0.7633,Lo,,,,,,1,,,,,,,,low,3,0,3,0,1,,,,,,,,,
297184,2022-11-28_15h58.01.776,vts_reward_expectancy_bt,2022.2.4,MacIntel,59.99880002,Chrome,1440,900,,,,,0,752,,,,,,,,,,,,,,,,,F,139,star,1,0,,,,,,,,,,,,,,,,repeat,letter,lettRpt,d,1.7821,Hi,,,,,,1,,,,,,,,low,4,0,4,0,1,,,,,,,,,
297184,2022-11-28_15h58.01.776,vts_reward_expectancy_bt,2022.2.4,MacIntel,59.99880002,Chrome,1440,900,,,,,10,762,,,,,,,,,,,,,,,,,D,132,hexagon,1,0,,,,,,,,,,,,,,,,repeat,letter,lettRpt,d,1.5372,Lo,,,,,,1,,,,,,,,low,5,0,5,0,1,,,,,,,,,
297184,2022-11-28_15h58.01.776,vts_reward_expectancy_bt,2022.2.4,MacIntel,59.99880002,Chrome,1440,900,,,,,10,772,,,,,,,,,,,,,,,,,W,146,triangle,1,0,,,,,,,,,,,,,,,,repeat,letter,lettRpt,f,0.8816,Hi,,,,,,1,,,,,,,,low,6,0,6,0,1,,,,,,,,,
297184,2022-11-28_15h58.01.776,vts_reward_expectancy_bt,2022.2.4,MacIntel,59.99880002,Chrome,1440,900,,,,,1,773,,,,,,,,,,,,,,,,,S,174,circle,1,0,,,,,,,,,,,,,,,,repeat,letter,lettRpt,f,0.9501,Lo,,,,,,1,,,,,,,,low,7,0,7,0,1,,,,,,,,,
297184,2022-11-28_15h58.01.776,vts_reward_expectancy_bt,2022.2.4,MacIntel,59.99880002,Chrome,1440,900,,,,,10,783,,,,,,,,,,,,,,,,,Y,167,hexagon,1,0,,,,,,,,,,,,,,,,repeat,letter,lettRpt,f,0.7312,Lo,,,,,,1,,,,,,,,low,8,0,8,0,1,,,,,,,,,
297184,2022-11-28_15h58.01.776,vts_reward_expectancy_bt,2022.2.4,MacIntel,59.99880002,Chrome,1440,900,,,,,1,784,,,,,,,,,,,,,,,,,U,160,circle,1,0,,,,,,,,,,,,,,,,repeat,letter,lettRpt,f,0.9773,Lo,,,,,,1,,,,,,,,low,9,0,9,0,1,,,,,,,,,
297184,2022-11-28_15h58.01.776,vts_reward_expectancy_bt,2022.2.4,MacIntel,59.99880002,Chrome,1440,900,,,,,1,785,,,,,,,,,,,,,,,,,H,125,triangle,1,0,,,,,,,,,,,,,,,,switch,number,numSwt,j,1.075,Hi,,,,,,1,,,,,,,,low,10,0,10,0,1,,,,,,,,,
297184,2022-11-28_15h58.01.776,vts_reward_expectancy_bt,2022.2.4,MacIntel,59.99880002,Chrome,1440,900,,,,,1,786,,,,,,,,,,,,,,,,,B,181,star,1,0,,,,,,,,,,,,,,,,repeat,number,numRpt,k,0.813,Hi,,,,,,1,,,,,,,,low,11,0,11,0,1,,,,,,,,,
297184,2022-11-28_15h58.01.776,vts_reward_expectancy_bt,2022.2.4,MacIntel,59.99880002,Chrome,1440,900,,,,,0,786,,,,,,,,,,,,,,,,,F,139,star,1,0,,,,,,,,,,,,,,,,repeat,number,numRpt,j,1.1122,Hi,,,,,,1,,,,,,,,low,12,0,12,0,1,,,,,,,,,
297184,2022-11-28_15h58.01.776,vts_reward_expectancy_bt,2022.2.4,MacIntel,59.99880002,Chrome,1440,900,,,,,1,787,,,,,,,,,,,,,,,,,D,132,hexagon,1,0,,,,,,,,,,,,,,,,repeat,number,numRpt,j,0.8997,Lo,,,,,,1,,,,,,,,low,13,0,13,0,1,,,,,,,,,
297184,2022-11-28_15h58.01.776,vts_reward_expectancy_bt,2022.2.4,MacIntel,59.99880002,Chrome,1440,900,,,,,0,787,,,,,,,,,,,,,,,,,W,146,circle,0,0,,,,,,,,,,,,,,,,repeat,number,NA,k,2.1615,Lo,,,,,,1,,,,,,,,low,14,0,14,0,1,,,,,,,,,
297184,2022-11-28_15h58.01.776,vts_reward_expectancy_bt,2022.2.4,MacIntel,59.99880002,Chrome,1440,900,,,,,0,787,,,,,,,,,,,,,,,,,S,174,triangle,1,1,,,,,,,,,,,,,,,,repeat,number,numRpt,k,1.2266,Hi,,,,,,1,,,,,,,,low,15,0,15,0,1,,,,,,,,,
297184,2022-11-28_15h58.01.776,vts_reward_expectancy_bt,2022.2.4,MacIntel,59.99880002,Chrome,1440,900,,,,,10,797,,,,,,,,,,,,,,,,,Y,139,circle,1,0,,,,,,,,,,,,,,,,repeat,number,numRpt,j,0.6971,Lo,,,,,,1,,,,,,,,low,16,0,16,0,1,,,,,,,,,
297184,2022-11-28_15h58.01.776,vts_reward_expectancy_bt,2022.2.4,MacIntel,59.99880002,Chrome,1440,900,,,,,10,807,,,,,,,,,,,,,,,,,H,167,star,1,0,,,,,,,,,,,,,,,,switch,letter,lettSwt,d,0.7329,Hi,,,,,,1,,,,,,,,low,17,0,17,0,1,,,,,,,,,
297184,2022-11-28_15h58.01.776,vts_reward_expectancy_bt,2022.2.4,MacIntel,59.99880002,Chrome,1440,900,,,,,10,817,,,,,,,,,,,,,,,,,B,181,triangle,1,0,,,,,,,,,,,,,,,,switch,number,numSwt,k,0.7774,Hi,,,,,,1,,,,,,,,low,18,0,18,0,1,,,,,,,,,
297184,2022-11-28_15h58.01.776,vts_reward_expectancy_bt,2022.2.4,MacIntel,59.99880002,Chrome,1440,900,,,,,10,827,,,,,,,,,,,,,,,,,S,174,hexagon,1,0,,,,,,,,,,,,,,,,repeat,number,numRpt,k,0.8419,Lo,,,,,,1,,,,,,,,low,19,0,19,0,1,,,,,,,,,
297184,2022-11-28_15h58.01.776,vts_reward_expectancy_bt,2022.2.4,MacIntel,59.99880002,Chrome,1440,900,,,,,10,837,,,,,,,,,,,,,,,,,U,160,circle,1,0,,,,,,,,,,,,,,,,repeat,number,numRpt,k,0.8472,Lo,,,,,,1,,,,,,,,low,20,0,20,0,1,,,,,,,,,
297184,2022-11-28_15h58.01.776,vts_reward_expectancy_bt,2022.2.4,MacIntel,59.99880002,Chrome,1440,900,,,,,1,838,,,,,,,,,,,,,,,,,F,146,star,1,0,,,,,,,,,,,,,,,,switch,letter,lettSwt,d,0.9777,Hi,,,,,,1,,,,,,,,low,21,0,21,0,1,,,,,,,,,
297184,2022-11-28_15h58.01.776,vts_reward_expectancy_bt,2022.2.4,MacIntel,59.99880002,Chrome,1440,900,,,,,1,839,,,,,,,,,,,,,,,,,W,125,triangle,1,0,,,,,,,,,,,,,,,,switch,number,numSwt,j,0.9421,Hi,,,,,,1,,,,,,,,low,22,0,22,0,1,,,,,,,,,
297184,2022-11-28_15h58.01.776,vts_reward_expectancy_bt,2022.2.4,MacIntel,59.99880002,Chrome,1440,900,,,,,10,849,,,,,,,,,,,,,,,,,D,132,hexagon,1,0,,,,,,,,,,,,,,,,repeat,number,numRpt,j,1.1476,Lo,,,,,,1,,,,,,,,low,23,0,23,0,1,,,,,,,,,
297184,2022-11-28_15h58.01.776,vts_reward_expectancy_bt,2022.2.4,MacIntel,59.99880002,Chrome,1440,900,,,,,1,850,,,,,,,,,,,,,,,,,B,139,triangle,1,0,,,,,,,,,,,,,,,,switch,letter,lettSwt,d,1.0907,Hi,,,,,,1,,,,,,,,low,24,0,24,0,1,,,,,,,,,
297184,2022-11-28_15h58.01.776,vts_reward_expectancy_bt,2022.2.4,MacIntel,59.99880002,Chrome,1440,900,,,,,1,851,,,,,,,,,,,,,,,,,S,146,circle,1,0,,,,,,,,,,,,,,,,switch,number,numSwt,j,1.494,Lo,,,,,,1,,,,,,,,low,25,0,25,0,1,,,,,,,,,
297184,2022-11-28_15h58.01.776,vts_reward_expectancy_bt,2022.2.4,MacIntel,59.99880002,Chrome,1440,900,,,,,10,861,,,,,,,,,,,,,,,,,D,160,hexagon,1,0,,,,,,,,,,,,,,,,switch,letter,lettSwt,d,1.3214,Lo,,,,,,1,,,,,,,,low,26,0,26,0,1,,,,,,,,,
297184,2022-11-28_15h58.01.776,vts_reward_expectancy_bt,2022.2.4,MacIntel,59.99880002,Chrome,1440,900,,,,,0,861,,,,,,,,,,,,,,,,,U,174,star,1,0,,,,,,,,,,,,,,,,switch,number,numSwt,k,1.1618,Hi,,,,,,1,,,,,,,,low,27,0,27,0,1,,,,,,,,,
297184,2022-11-28_15h58.01.776,vts_reward_expectancy_bt,2022.2.4,MacIntel,59.99880002,Chrome,1440,900,,,,,0,861,,,,,,,,,,,,,,,,,F,167,triangle,1,0,,,,,,,,,,,,,,,,switch,letter,lettSwt,d,2.1072,Hi,,,,,,1,,,,,,,,low,28,0,28,0,1,,,,,,,,,
297184,2022-11-28_15h58.01.776,vts_reward_expectancy_bt,2022.2.4,MacIntel,59.99880002,Chrome,1440,900,,,,,0,861,,,,,,,,,,,,,,,,,W,125,circle,0,0,,,,,,,,,,,,,,,,switch,number,NA,k,1.0939,Hi,,,,,,1,,,,,,,,low,29,0,29,0,1,,,,,,,,,
297184,2022-11-28_15h58.01.776,vts_reward_expectancy_bt,2022.2.4,MacIntel,59.99880002,Chrome,1440,900,,,,,1,862,,,,,,,,,,,,,,,,,H,132,star,1,1,,,,,,,,,,,,,,,,repeat,number,numRpt,j,0.64,Hi,,,,,,1,,,,,,,,low,30,0,30,0,1,,,,,,,,,
297184,2022-11-28_15h58.01.776,vts_reward_expectancy_bt,2022.2.4,MacIntel,59.99880002,Chrome,1440,900,,,,,0,862,,,,,,,,,,,,,,,,,Y,181,hexagon,0,0,,,,,,,,,,,,,,,,repeat,number,NA,j,1.6627,Hi,,,,,,1,,,,,,,,low,31,0,31,0,1,,,,,,,,,
297184,2022-11-28_15h58.01.776,vts_reward_expectancy_bt,2022.2.4,MacIntel,59.99880002,Chrome,1440,900,,,,,1,863,,,,,,,,,,,,,,,,,W,132,hexagon,1,1,,,,,,,,,,,,,,,,switch,letter,lettSwt,f,1.335,Lo,,,,,,2,,,,,,space,2.2997,low,0,0,0,0,1,,,,,,,,,
297184,2022-11-28_15h58.01.776,vts_reward_expectancy_bt,2022.2.4,MacIntel,59.99880002,Chrome,1440,900,,,,,10,873,,,,,,,,,,,,,,,,,F,160,circle,1,0,,,,,,,,,,,,,,,,switch,number,numSwt,k,0.966,Lo,,,,,,2,,,,,,,,low,1,0,1,0,1,,,,,,,,,
297184,2022-11-28_15h58.01.776,vts_reward_expectancy_bt,2022.2.4,MacIntel,59.99880002,Chrome,1440,900,,,,,0,873,,,,,,,,,,,,,,,,,U,167,triangle,1,0,,,,,,,,,,,,,,,,repeat,number,numRpt,k,1.1181,Hi,,,,,,2,,,,,,,,low,2,0,2,0,1,,,,,,,,,
297184,2022-11-28_15h58.01.776,vts_reward_expectancy_bt,2022.2.4,MacIntel,59.99880002,Chrome,1440,900,,,,,10,883,,,,,,,,,,,,,,,,,D,125,star,1,0,,,,,,,,,,,,,,,,switch,letter,lettSwt,d,0.8266,Hi,,,,,,2,,,,,,,,low,3,0,3,0,1,,,,,,,,,
297184,2022-11-28_15h58.01.776,vts_reward_expectancy_bt,2022.2.4,MacIntel,59.99880002,Chrome,1440,900,,,,,1,884,,,,,,,,,,,,,,,,,S,139,hexagon,1,0,,,,,,,,,,,,,,,,repeat,letter,lettRpt,f,0.8438,Lo,,,,,,2,,,,,,,,low,4,0,4,0,1,,,,,,,,,
297184,2022-11-28_15h58.01.776,vts_reward_expectancy_bt,2022.2.4,MacIntel,59.99880002,Chrome,1440,900,,,,,1,885,,,,,,,,,,,,,,,,,Y,181,circle,1,0,,,,,,,,,,,,,,,,switch,number,numSwt,k,0.9027,Lo,,,,,,2,,,,,,,,low,5,0,5,0,1,,,,,,,,,
297184,2022-11-28_15h58.01.776,vts_reward_expectancy_bt,2022.2.4,MacIntel,59.99880002,Chrome,1440,900,,,,,1,886,,,,,,,,,,,,,,,,,B,146,triangle,1,0,,,,,,,,,,,,,,,,switch,letter,lettSwt,d,0.8797,Hi,,,,,,2,,,,,,,,low,6,0,6,0,1,,,,,,,,,
297184,2022-11-28_15h58.01.776,vts_reward_expectancy_bt,2022.2.4,MacIntel,59.99880002,Chrome,1440,900,,,,,0,886,,,,,,,,,,,,,,,,,H,174,star,1,0,,,,,,,,,,,,,,,,switch,number,numSwt,k,1.1473,Hi,,,,,,2,,,,,,,,low,7,0,7,0,1,,,,,,,,,
297184,2022-11-28_15h58.01.776,vts_reward_expectancy_bt,2022.2.4,MacIntel,59.99880002,Chrome,1440,900,,,,,0,886,,,,,,,,,,,,,,,,,W,132,triangle,1,0,,,,,,,,,,,,,,,,switch,letter,lettSwt,f,1.0772,Hi,,,,,,2,,,,,,,,low,8,0,8,0,1,,,,,,,,,
297184,2022-11-28_15h58.01.776,vts_reward_expectancy_bt,2022.2.4,MacIntel,59.99880002,Chrome,1440,900,,,,,0,886,,,,,,,,,,,,,,,,,F,160,star,1,0,,,,,,,,,,,,,,,,repeat,letter,lettRpt,d,0.9987,Hi,,,,,,2,,,,,,,,low,9,0,9,0,1,,,,,,,,,
297184,2022-11-28_15h58.01.776,vts_reward_expectancy_bt,2022.2.4,MacIntel,59.99880002,Chrome,1440,900,,,,,1,887,,,,,,,,,,,,,,,,,U,167,circle,1,0,,,,,,,,,,,,,,,,switch,number,numSwt,k,0.7101,Lo,,,,,,2,,,,,,,,low,10,0,10,0,1,,,,,,,,,
297184,2022-11-28_15h58.01.776,vts_reward_expectancy_bt,2022.2.4,MacIntel,59.99880002,Chrome,1440,900,,,,,10,897,,,,,,,,,,,,,,,,,D,125,hexagon,1,0,,,,,,,,,,,,,,,,switch,letter,lettSwt,d,0.6076,Lo,,,,,,2,,,,,,,,low,11,0,11,0,1,,,,,,,,,
297184,2022-11-28_15h58.01.776,vts_reward_expectancy_bt,2022.2.4,MacIntel,59.99880002,Chrome,1440,900,,,,,0,897,,,,,,,,,,,,,,,,,S,139,circle,0,0,,,,,,,,,,,,,,,,repeat,letter,NA,d,0.5994,Lo,,,,,,2,,,,,,,,low,12,0,12,0,1,,,,,,,,,
297184,2022-11-28_15h58.01.776,vts_reward_expectancy_bt,2022.2.4,MacIntel,59.99880002,Chrome,1440,900,,,,,10,907,,,,,,,,,,,,,,,,,Y,181,star,1,1,,,,,,,,,,,,,,,,switch,number,numSwt,k,0.7636,Hi,,,,,,2,,,,,,,,low,13,0,13,0,1,,,,,,,,,
297184,2022-11-28_15h58.01.776,vts_reward_expectancy_bt,2022.2.4,MacIntel,59.99880002,Chrome,1440,900,,,,,0,907,,,,,,,,,,,,,,,,,B,146,hexagon,0,0,,,,,,,,,,,,,,,,repeat,number,NA,k,0.7579,Hi,,,,,,2,,,,,,,,low,14,0,14,0,1,,,,,,,,,
297184,2022-11-28_15h58.01.776,vts_reward_expectancy_bt,2022.2.4,MacIntel,59.99880002,Chrome,1440,900,,,,,0,907,,,,,,,,,,,,,,,,,H,174,triangle,0,1,,,,,,,,,,,,,,,,repeat,number,NA,j,1.2632,Hi,,,,,,2,,,,,,,,low,15,0,15,0,1,,,,,,,,,
297184,2022-11-28_15h58.01.776,vts_reward_expectancy_bt,2022.2.4,MacIntel,59.99880002,Chrome,1440,900,,,,,10,917,,,,,,,,,,,,,,,,,Y,167,hexagon,1,1,,,,,,,,,,,,,,,,repeat,number,numRpt,k,0.8474,Lo,,,,,,2,,,,,,,,low,16,0,16,0,1,,,,,,,,,
297184,2022-11-28_15h58.01.776,vts_reward_expectancy_bt,2022.2.4,MacIntel,59.99880002,Chrome,1440,900,,,,,1,918,,,,,,,,,,,,,,,,,B,146,triangle,1,0,,,,,,,,,,,,,,,,repeat,number,numRpt,j,0.7716,Hi,,,,,,2,,,,,,,,low,17,0,17,0,1,,,,,,,,,
297184,2022-11-28_15h58.01.776,vts_reward_expectancy_bt,2022.2.4,MacIntel,59.99880002,Chrome,1440,900,,,,,1,919,,,,,,,,,,,,,,,,,S,139,circle,1,0,,,,,,,,,,,,,,,,switch,letter,lettSwt,f,0.76,Lo,,,,,,2,,,,,,,,low,18,0,18,0,1,,,,,,,,,
297184,2022-11-28_15h58.01.776,vts_reward_expectancy_bt,2022.2.4,MacIntel,59.99880002,Chrome,1440,900,,,,,0,919,,,,,,,,,,,,,,,,,U,174,star,0,0,,,,,,,,,,,,,,,,repeat,letter,NA,d,1.4439,Lo,,,,,,2,,,,,,,,low,19,0,19,0,1,,,,,,,,,
297184,2022-11-28_15h58.01.776,vts_reward_expectancy_bt,2022.2.4,MacIntel,59.99880002,Chrome,1440,900,,,,,0,919,,,,,,,,,,,,,,,,,F,181,circle,0,1,,,,,,,,,,,,,,,,repeat,letter,NA,f,1.9864,Lo,,,,,,2,,,,,,,,low,20,0,20,0,1,,,,,,,,,
297184,2022-11-28_15h58.01.776,vts_reward_expectancy_bt,2022.2.4,MacIntel,59.99880002,Chrome,1440,900,,,,,0,919,,,,,,,,,,,,,,,,,D,125,star,1,1,,,,,,,,,,,,,,,,repeat,letter,lettRpt,d,1.3801,Hi,,,,,,2,,,,,,,,low,21,0,21,0,1,,,,,,,,,
297184,2022-11-28_15h58.01.776,vts_reward_expectancy_bt,2022.2.4,MacIntel,59.99880002,Chrome,1440,900,,,,,1,920,,,,,,,,,,,,,,,,,W,132,hexagon,1,0,,,,,,,,,,,,,,,,repeat,letter,lettRpt,f,1.2857,Lo,,,,,,2,,,,,,,,low,22,0,22,0,1,,,,,,,,,
297184,2022-11-28_15h58.01.776,vts_reward_expectancy_bt,2022.2.4,MacIntel,59.99880002,Chrome,1440,900,,,,,0,920,,,,,,,,,,,,,,,,,H,160,triangle,1,0,,,,,,,,,,,,,,,,repeat,letter,lettRpt,d,1.4499,Hi,,,,,,2,,,,,,,,low,23,0,23,0,1,,,,,,,,,
297184,2022-11-28_15h58.01.776,vts_reward_expectancy_bt,2022.2.4,MacIntel,59.99880002,Chrome,1440,900,,,,,1,921,,,,,,,,,,,,,,,,,B,139,circle,1,0,,,,,,,,,,,,,,,,switch,number,numSwt,j,1.723,Lo,,,,,,2,,,,,,,,low,24,0,24,0,1,,,,,,,,,
297184,2022-11-28_15h58.01.776,vts_reward_expectancy_bt,2022.2.4,MacIntel,59.99880002,Chrome,1440,900,,,,,1,922,,,,,,,,,,,,,,,,,W,160,hexagon,1,0,,,,,,,,,,,,,,,,switch,letter,lettSwt,f,0.7622,Lo,,,,,,2,,,,,,,,low,25,0,25,0,1,,,,,,,,,
297184,2022-11-28_15h58.01.776,vts_reward_expectancy_bt,2022.2.4,MacIntel,59.99880002,Chrome,1440,900,,,,,0,922,,,,,,,,,,,,,,,,,H,132,triangle,1,0,,,,,,,,,,,,,,,,switch,number,numSwt,j,0.9254,Hi,,,,,,2,,,,,,,,low,26,0,26,0,1,,,,,,,,,
297184,2022-11-28_15h58.01.776,vts_reward_expectancy_bt,2022.2.4,MacIntel,59.99880002,Chrome,1440,900,,,,,0,922,,,,,,,,,,,,,,,,,Y,174,star,1,0,,,,,,,,,,,,,,,,repeat,number,numRpt,k,1.1145,Hi,,,,,,2,,,,,,,,low,27,0,27,0,1,,,,,,,,,
297184,2022-11-28_15h58.01.776,vts_reward_expectancy_bt,2022.2.4,MacIntel,59.99880002,Chrome,1440,900,,,,,0,922,,,,,,,,,,,,,,,,,U,167,triangle,0,0,,,,,,,,,,,,,,,,repeat,number,NA,j,0.7391,Hi,,,,,,2,,,,,,,,low,28,0,28,0,1,,,,,,,,,
297184,2022-11-28_15h58.01.776,vts_reward_expectancy_bt,2022.2.4,MacIntel,59.99880002,Chrome,1440,900,,,,,0,922,,,,,,,,,,,,,,,,,F,146,circle,0,1,,,,,,,,,,,,,,,,repeat,number,NA,k,1.2596,Hi,,,,,,2,,,,,,,,low,29,0,29,0,1,,,,,,,,,
297184,2022-11-28_15h58.01.776,vts_reward_expectancy_bt,2022.2.4,MacIntel,59.99880002,Chrome,1440,900,,,,,0,922,,,,,,,,,,,,,,,,,D,181,star,0,1,,,,,,,,,,,,,,,,repeat,number,NA,j,1.1027,Hi,,,,,,2,,,,,,,,low,30,0,30,0,1,,,,,,,,,
297184,2022-11-28_15h58.01.776,vts_reward_expectancy_bt,2022.2.4,MacIntel,59.99880002,Chrome,1440,900,,,,,0,922,,,,,,,,,,,,,,,,,S,125,hexagon,0,1,,,,,,,,,,,,,,,,switch,letter,NA,d,1.3861,Hi,,,,,,2,,,,,,,,low,31,0,31,0,1,,,,,,,,,
297184,2022-11-28_15h58.01.776,vts_reward_expectancy_bt,2022.2.4,MacIntel,59.99880002,Chrome,1440,900,,,,,10,932,,,,,,,,,,,,,,,,,F,125,triangle,1,1,,,,,,,,,,,,,,,,repeat,letter,lettRpt,d,0.7308,Hi,,,,,,3,,,,,,space,5.0208,low,0,0,0,0,1,,,,,,,,,
297184,2022-11-28_15h58.01.776,vts_reward_expectancy_bt,2022.2.4,MacIntel,59.99880002,Chrome,1440,900,,,,,10,942,,,,,,,,,,,,,,,,,H,167,star,1,0,,,,,,,,,,,,,,,,repeat,letter,lettRpt,d,0.8138,Hi,,,,,,3,,,,,,,,low,1,0,1,0,1,,,,,,,,,
297184,2022-11-28_15h58.01.776,vts_reward_expectancy_bt,2022.2.4,MacIntel,59.99880002,Chrome,1440,900,,,,,10,952,,,,,,,,,,,,,,,,,Y,139,circle,1,0,,,,,,,,,,,,,,,,repeat,letter,lettRpt,f,0.7518,Lo,,,,,,3,,,,,,,,low,2,0,2,0,1,,,,,,,,,
297184,2022-11-28_15h58.01.776,vts_reward_expectancy_bt,2022.2.4,MacIntel,59.99880002,Chrome,1440,900,,,,,1,953,,,,,,,,,,,,,,,,,B,181,hexagon,1,0,,,,,,,,,,,,,,,,repeat,letter,lettRpt,d,0.7367,Lo,,,,,,3,,,,,,,,low,3,0,3,0,1,,,,,,,,,
297184,2022-11-28_15h58.01.776,vts_reward_expectancy_bt,2022.2.4,MacIntel,59.99880002,Chrome,1440,900,,,,,0,953,,,,,,,,,,,,,,,,,U,146,triangle,1,0,,,,,,,,,,,,,,,,repeat,letter,lettRpt,f,1.3522,Hi,,,,,,3,,,,,,,,low,4,0,4,0,1,,,,,,,,,
297184,2022-11-28_15h58.01.776,vts_reward_expectancy_bt,2022.2.4,MacIntel,59.99880002,Chrome,1440,900,,,,,0,953,,,,,,,,,,,,,,,,,D,132,star,0,0,,,,,,,,,,,,,,,,switch,number,NA,k,0.3652,Hi,,,,,,3,,,,,,,,low,5,0,5,0,1,,,,,,,,,
297184,2022-11-28_15h58.01.776,vts_reward_expectancy_bt,2022.2.4,MacIntel,59.99880002,Chrome,1440,900,,,,,1,954,,,,,,,,,,,,,,,,,S,160,circle,1,1,,,,,,,,,,,,,,,,switch,letter,lettSwt,f,0.9107,Lo,,,,,,3,,,,,,,,low,6,0,6,0,1,,,,,,,,,
297184,2022-11-28_15h58.01.776,vts_reward_expectancy_bt,2022.2.4,MacIntel,59.99880002,Chrome,1440,900,,,,,10,964,,,,,,,,,,,,,,,,,W,174,hexagon,1,0,,,,,,,,,,,,,,,,repeat,letter,lettRpt,f,0.86,Lo,,,,,,3,,,,,,,,low,7,0,7,0,1,,,,,,,,,
297184,2022-11-28_15h58.01.776,vts_reward_expectancy_bt,2022.2.4,MacIntel,59.99880002,Chrome,1440,900,,,,,1,965,,,,,,,,,,,,,,,,,F,125,hexagon,1,0,,,,,,,,,,,,,,,,repeat,letter,lettRpt,d,0.7712,Lo,,,,,,3,,,,,,,,low,8,0,8,0,1,,,,,,,,,
297184,2022-11-28_15h58.01.776,vts_reward_expectancy_bt,2022.2.4,MacIntel,59.99880002,Chrome,1440,900,,,,,0,965,,,,,,,,,,,,,,,,,H,167,triangle,1,0,,,,,,,,,,,,,,,,switch,number,numSwt,k,1.3763,Hi,,,,,,3,,,,,,,,low,9,0,9,0,1,,,,,,,,,
297184,2022-11-28_15h58.01.776,vts_reward_expectancy_bt,2022.2.4,MacIntel,59.99880002,Chrome,1440,900,,,,,1,966,,,,,,,,,,,,,,,,,Y,139,circle,1,0,,,,,,,,,,,,,,,,switch,letter,lettSwt,f,1.0987,Lo,,,,,,3,,,,,,,,low,10,0,10,0,1,,,,,,,,,
297184,2022-11-28_15h58.01.776,vts_reward_expectancy_bt,2022.2.4,MacIntel,59.99880002,Chrome,1440,900,,,,,10,976,,,,,,,,,,,,,,,,,B,181,star,1,0,,,,,,,,,,,,,,,,repeat,letter,lettRpt,d,0.6553,Hi,,,,,,3,,,,,,,,low,11,0,11,0,1,,,,,,,,,
297184,2022-11-28_15h58.01.776,vts_reward_expectancy_bt,2022.2.4,MacIntel,59.99880002,Chrome,1440,900,,,,,1,977,,,,,,,,,,,,,,,,,U,146,hexagon,1,0,,,,,,,,,,,,,,,,repeat,letter,lettRpt,f,1.0798,Lo,,,,,,3,,,,,,,,low,12,0,12,0,1,,,,,,,,,
297184,2022-11-28_15h58.01.776,vts_reward_expectancy_bt,2022.2.4,MacIntel,59.99880002,Chrome,1440,900,,,,,0,977,,,,,,,,,,,,,,,,,D,132,star,1,0,,,,,,,,,,,,,,,,repeat,letter,lettRpt,d,1.1561,Hi,,,,,,3,,,,,,,,low,13,0,13,0,1,,,,,,,,,
297184,2022-11-28_15h58.01.776,vts_reward_expectancy_bt,2022.2.4,MacIntel,59.99880002,Chrome,1440,900,,,,,10,987,,,,,,,,,,,,,,,,,S,160,triangle,1,0,,,,,,,,,,,,,,,,repeat,letter,lettRpt,f,0.6986,Hi,,,,,,3,,,,,,,,low,14,0,14,0,1,,,,,,,,,
297184,2022-11-28_15h58.01.776,vts_reward_expectancy_bt,2022.2.4,MacIntel,59.99880002,Chrome,1440,900,,,,,1,988,,,,,,,,,,,,,,,,,W,174,circle,1,0,,,,,,,,,,,,,,,,repeat,letter,lettRpt,f,0.695,Lo,,,,,,3,,,,,,,,low,15,0,15,0,1,,,,,,,,,
297184,2022-11-28_15h58.01.776,vts_reward_expectancy_bt,2022.2.4,MacIntel,59.99880002,Chrome,1440,900,,,,,1,989,,,,,,,,,,,,,,,,,Y,160,hexagon,1,0,,,,,,,,,,,,,,,,repeat,letter,lettRpt,f,0.6924,Lo,,,,,,3,,,,,,,,low,16,0,16,0,1,,,,,,,,,
297184,2022-11-28_15h58.01.776,vts_reward_expectancy_bt,2022.2.4,MacIntel,59.99880002,Chrome,1440,900,,,,,1,990,,,,,,,,,,,,,,,,,H,181,star,1,0,,,,,,,,,,,,,,,,repeat,letter,lettRpt,d,1.0552,Hi,,,,,,3,,,,,,,,low,17,0,17,0,1,,,,,,,,,
297184,2022-11-28_15h58.01.776,vts_reward_expectancy_bt,2022.2.4,MacIntel,59.99880002,Chrome,1440,900,,,,,10,1000,,,,,,,,,,,,,,,,,W,139,circle,1,0,,,,,,,,,,,,,,,,repeat,letter,lettRpt,f,0.8748,Lo,,,,,,3,,,,,,,,low,18,0,18,0,1,,,,,,,,,
297184,2022-11-28_15h58.01.776,vts_reward_expectancy_bt,2022.2.4,MacIntel,59.99880002,Chrome,1440,900,,,,,1,1001,,,,,,,,,,,,,,,,,D,167,triangle,1,0,,,,,,,,,,,,,,,,repeat,letter,lettRpt,d,0.6477,Hi,,,,,,3,,,,,,,,low,19,0,19,0,1,,,,,,,,,
297184,2022-11-28_15h58.01.776,vts_reward_expectancy_bt,2022.2.4,MacIntel,59.99880002,Chrome,1440,900,,,,,0,1001,,,,,,,,,,,,,,,,,F,125,triangle,0,0,,,,,,,,,,,,,,,,switch,number,NA,k,0.6943,Hi,,,,,,3,,,,,,,,low,20,0,20,0,1,,,,,,,,,
297184,2022-11-28_15h58.01.776,vts_reward_expectancy_bt,2022.2.4,MacIntel,59.99880002,Chrome,1440,900,,,,,0,1001,,,,,,,,,,,,,,,,,B,146,star,1,1,,,,,,,,,,,,,,,,repeat,number,numRpt,j,1.0032,Hi,,,,,,3,,,,,,,,low,21,0,21,0,1,,,,,,,,,
297184,2022-11-28_15h58.01.776,vts_reward_expectancy_bt,2022.2.4,MacIntel,59.99880002,Chrome,1440,900,,,,,10,1011,,,,,,,,,,,,,,,,,U,174,hexagon,1,0,,,,,,,,,,,,,,,,switch,letter,lettSwt,f,0.7946,Lo,,,,,,3,,,,,,,,low,22,0,22,0,1,,,,,,,,,
297184,2022-11-28_15h58.01.776,vts_reward_expectancy_bt,2022.2.4,MacIntel,59.99880002,Chrome,1440,900,,,,,0,1011,,,,,,,,,,,,,,,,,S,132,circle,0,0,,,,,,,,,,,,,,,,switch,number,NA,k,1.2747,Lo,,,,,,3,,,,,,,,low,23,0,23,0,1,,,,,,,,,
297184,2022-11-28_15h58.01.776,vts_reward_expectancy_bt,2022.2.4,MacIntel,59.99880002,Chrome,1440,900,,,,,1,1012,,,,,,,,,,,,,,,,,S,146,hexagon,1,1,,,,,,,,,,,,,,,,repeat,number,numRpt,j,1.0956,Lo,,,,,,3,,,,,,,,low,24,0,24,0,1,,,,,,,,,
297184,2022-11-28_15h58.01.776,vts_reward_expectancy_bt,2022.2.4,MacIntel,59.99880002,Chrome,1440,900,,,,,10,1022,,,,,,,,,,,,,,,,,F,125,triangle,1,0,,,,,,,,,,,,,,,,repeat,number,numRpt,j,0.7458,Hi,,,,,,3,,,,,,,,low,25,0,25,0,1,,,,,,,,,
297184,2022-11-28_15h58.01.776,vts_reward_expectancy_bt,2022.2.4,MacIntel,59.99880002,Chrome,1440,900,,,,,1,1023,,,,,,,,,,,,,,,,,D,139,circle,1,0,,,,,,,,,,,,,,,,repeat,number,numRpt,j,0.7844,Lo,,,,,,3,,,,,,,,low,26,0,26,0,1,,,,,,,,,
297184,2022-11-28_15h58.01.776,vts_reward_expectancy_bt,2022.2.4,MacIntel,59.99880002,Chrome,1440,900,,,,,10,1033,,,,,,,,,,,,,,,,,W,132,star,1,0,,,,,,,,,,,,,,,,repeat,number,numRpt,j,0.7412,Hi,,,,,,3,,,,,,,,low,27,0,27,0,1,,,,,,,,,
297184,2022-11-28_15h58.01.776,vts_reward_expectancy_bt,2022.2.4,MacIntel,59.99880002,Chrome,1440,900,,,,,10,1043,,,,,,,,,,,,,,,,,Y,174,circle,1,0,,,,,,,,,,,,,,,,repeat,number,numRpt,k,1.1654,Lo,,,,,,3,,,,,,,,low,28,0,28,0,1,,,,,,,,,
297184,2022-11-28_15h58.01.776,vts_reward_expectancy_bt,2022.2.4,MacIntel,59.99880002,Chrome,1440,900,,,,,10,1053,,,,,,,,,,,,,,,,,U,167,hexagon,1,0,,,,,,,,,,,,,,,,repeat,number,numRpt,k,1.5434,Lo,,,,,,3,,,,,,,,low,29,0,29,0,1,,,,,,,,,
297184,2022-11-28_15h58.01.776,vts_reward_expectancy_bt,2022.2.4,MacIntel,59.99880002,Chrome,1440,900,,,,,0,1053,,,,,,,,,,,,,,,,,H,181,star,1,0,,,,,,,,,,,,,,,,repeat,number,numRpt,k,1.2389,Hi,,,,,,3,,,,,,,,low,30,0,30,0,1,,,,,,,,,
297184,2022-11-28_15h58.01.776,vts_reward_expectancy_bt,2022.2.4,MacIntel,59.99880002,Chrome,1440,900,,,,,0,1053,,,,,,,,,,,,,,,,,B,160,triangle,1,0,,,,,,,,,,,,,,,,repeat,number,numRpt,k,0.9781,Hi,,,,,,3,,,,,,,,low,31,0,31,0,1,,,,,,,,,
297184,2022-11-28_15h58.01.776,vts_reward_expectancy_bt,2022.2.4,MacIntel,59.99880002,Chrome,1440,900,,,,,0,1053,,,,,,,,,,,,,,,,,W,132,star,1,0,,,,,,,,,,,,,,,,switch,letter,lettSwt,f,1.086,Hi,,,,,,4,,,,,,space,1.4604,low,0,0,0,0,1,,,,,,,,,
297184,2022-11-28_15h58.01.776,vts_reward_expectancy_bt,2022.2.4,MacIntel,59.99880002,Chrome,1440,900,,,,,1,1054,,,,,,,,,,,,,,,,,Y,139,hexagon,1,0,,,,,,,,,,,,,,,,repeat,letter,lettRpt,f,1.4239,Lo,,,,,,4,,,,,,,,low,1,0,1,0,1,,,,,,,,,
297184,2022-11-28_15h58.01.776,vts_reward_expectancy_bt,2022.2.4,MacIntel,59.99880002,Chrome,1440,900,,,,,10,1064,,,,,,,,,,,,,,,,,B,174,triangle,1,0,,,,,,,,,,,,,,,,switch,number,numSwt,k,0.6776,Hi,,,,,,4,,,,,,,,low,2,0,2,0,1,,,,,,,,,
297184,2022-11-28_15h58.01.776,vts_reward_expectancy_bt,2022.2.4,MacIntel,59.99880002,Chrome,1440,900,,,,,10,1074,,,,,,,,,,,,,,,,,S,125,circle,1,0,,,,,,,,,,,,,,,,repeat,number,numRpt,j,1.0615,Lo,,,,,,4,,,,,,,,low,3,0,3,0,1,,,,,,,,,
297184,2022-11-28_15h58.01.776,vts_reward_expectancy_bt,2022.2.4,MacIntel,59.99880002,Chrome,1440,900,,,,,10,1084,,,,,,,,,,,,,,,,,U,181,star,1,0,,,,,,,,,,,,,,,,repeat,number,numRpt,k,0.7346,Hi,,,,,,4,,,,,,,,low,4,0,4,0,1,,,,,,,,,
297184,2022-11-28_15h58.01.776,vts_reward_expectancy_bt,2022.2.4,MacIntel,59.99880002,Chrome,1440,900,,,,,0,1084,,,,,,,,,,,,,,,,,D,160,hexagon,0,0,,,,,,,,,,,,,,,,repeat,number,NA,j,1.0948,Hi,,,,,,4,,,,,,,,low,5,0,5,0,1,,,,,,,,,
297184,2022-11-28_15h58.01.776,vts_reward_expectancy_bt,2022.2.4,MacIntel,59.99880002,Chrome,1440,900,,,,,0,1084,,,,,,,,,,,,,,,,,H,146,triangle,1,1,,,,,,,,,,,,,,,,repeat,number,numRpt,j,0.9642,Hi,,,,,,4,,,,,,,,low,6,0,6,0,1,,,,,,,,,
297184,2022-11-28_15h58.01.776,vts_reward_expectancy_bt,2022.2.4,MacIntel,59.99880002,Chrome,1440,900,,,,,1,1085,,,,,,,,,,,,,,,,,F,167,circle,1,0,,,,,,,,,,,,,,,,repeat,number,numRpt,k,1.7473,Lo,,,,,,4,,,,,,,,low,7,0,7,0,1,,,,,,,,,
297184,2022-11-28_15h58.01.776,vts_reward_expectancy_bt,2022.2.4,MacIntel,59.99880002,Chrome,1440,900,,,,,1,1086,,,,,,,,,,,,,,,,,W,132,circle,1,0,,,,,,,,,,,,,,,,repeat,number,numRpt,j,0.9617,Lo,,,,,,4,,,,,,,,low,8,0,8,0,1,,,,,,,,,
297184,2022-11-28_15h58.01.776,vts_reward_expectancy_bt,2022.2.4,MacIntel,59.99880002,Chrome,1440,900,,,,,0,1086,,,,,,,,,,,,,,,,,Y,139,star,1,0,,,,,,,,,,,,,,,,repeat,number,numRpt,j,1.4743,Hi,,,,,,4,,,,,,,,low,9,0,9,0,1,,,,,,,,,
297184,2022-11-28_15h58.01.776,vts_reward_expectancy_bt,2022.2.4,MacIntel,59.99880002,Chrome,1440,900,,,,,10,1096,,,,,,,,,,,,,,,,,B,174,triangle,1,0,,,,,,,,,,,,,,,,repeat,number,numRpt,k,0.8994,Hi,,,,,,4,,,,,,,,low,10,0,10,0,1,,,,,,,,,
297184,2022-11-28_15h58.01.776,vts_reward_expectancy_bt,2022.2.4,MacIntel,59.99880002,Chrome,1440,900,,,,,1,1097,,,,,,,,,,,,,,,,,S,125,hexagon,1,0,,,,,,,,,,,,,,,,repeat,number,numRpt,j,0.9064,Lo,,,,,,4,,,,,,,,low,11,0,11,0,1,,,,,,,,,
297184,2022-11-28_15h58.01.776,vts_reward_expectancy_bt,2022.2.4,MacIntel,59.99880002,Chrome,1440,900,,,,,0,1097,,,,,,,,,,,,,,,,,U,181,star,0,0,,,,,,,,,,,,,,,,switch,letter,NA,d,0.8315,Lo,,,,,,4,,,,,,,,low,12,0,12,0,1,,,,,,,,,
297184,2022-11-28_15h58.01.776,vts_reward_expectancy_bt,2022.2.4,MacIntel,59.99880002,Chrome,1440,900,,,,,0,1097,,,,,,,,,,,,,,,,,D,160,circle,0,1,,,,,,,,,,,,,,,,switch,number,NA,j,1.1313,Lo,,,,,,4,,,,,,,,low,13,0,13,0,1,,,,,,,,,
297184,2022-11-28_15h58.01.776,vts_reward_expectancy_bt,2022.2.4,MacIntel,59.99880002,Chrome,1440,900,,,,,0,1097,,,,,,,,,,,,,,,,,H,146,triangle,1,1,,,,,,,,,,,,,,,,repeat,number,numRpt,j,1.4129,Hi,,,,,,4,,,,,,,,low,14,0,14,0,1,,,,,,,,,
297184,2022-11-28_15h58.01.776,vts_reward_expectancy_bt,2022.2.4,MacIntel,59.99880002,Chrome,1440,900,,,,,10,1107,,,,,,,,,,,,,,,,,F,167,hexagon,1,0,,,,,,,,,,,,,,,,repeat,number,numRpt,k,0.8455,Lo,,,,,,4,,,,,,,,low,15,0,15,0,1,,,,,,,,,
297184,2022-11-28_15h58.01.776,vts_reward_expectancy_bt,2022.2.4,MacIntel,59.99880002,Chrome,1440,900,,,,,0,1107,,,,,,,,,,,,,,,,,U,174,triangle,1,0,,,,,,,,,,,,,,,,switch,letter,lettSwt,f,1.0472,Hi,,,,,,4,,,,,,,,low,16,0,16,0,1,,,,,,,,,
297184,2022-11-28_15h58.01.776,vts_reward_expectancy_bt,2022.2.4,MacIntel,59.99880002,Chrome,1440,900,,,,,1,1108,,,,,,,,,,,,,,,,,S,181,hexagon,1,0,,,,,,,,,,,,,,,,switch,number,numSwt,k,1.5133,Lo,,,,,,4,,,,,,,,low,17,0,17,0,1,,,,,,,,,
297184,2022-11-28_15h58.01.776,vts_reward_expectancy_bt,2022.2.4,MacIntel,59.99880002,Chrome,1440,900,,,,,0,1108,,,,,,,,,,,,,,,,,Y,139,star,1,0,,,,,,,,,,,,,,,,switch,letter,lettSwt,f,1.0025,Hi,,,,,,4,,,,,,,,low,18,0,18,0,1,,,,,,,,,
297184,2022-11-28_15h58.01.776,vts_reward_expectancy_bt,2022.2.4,MacIntel,59.99880002,Chrome,1440,900,,,,,0,1108,,,,,,,,,,,,,,,,,D,167,circle,0,0,,,,,,,,,,,,,,,,repeat,letter,NA,f,1.0667,Hi,,,,,,4,,,,,,,,low,19,0,19,0,1,,,,,,,,,
297184,2022-11-28_15h58.01.776,vts_reward_expectancy_bt,2022.2.4,MacIntel,59.99880002,Chrome,1440,900,,,,,0,1108,,,,,,,,,,,,,,,,,F,146,triangle,1,1,,,,,,,,,,,,,,,,switch,number,numSwt,j,1.5304,Hi,,,,,,4,,,,,,,,low,20,0,20,0,1,,,,,,,,,
297184,2022-11-28_15h58.01.776,vts_reward_expectancy_bt,2022.2.4,MacIntel,59.99880002,Chrome,1440,900,,,,,10,1118,,,,,,,,,,,,,,,,,B,160,circle,1,0,,,,,,,,,,,,,,,,repeat,number,numRpt,k,0.7296,Lo,,,,,,4,,,,,,,,low,21,0,21,0,1,,,,,,,,,
297184,2022-11-28_15h58.01.776,vts_reward_expectancy_bt,2022.2.4,MacIntel,59.99880002,Chrome,1440,900,,,,,10,1128,,,,,,,,,,,,,,,,,W,125,star,1,0,,,,,,,,,,,,,,,,switch,letter,lettSwt,f,0.657,Hi,,,,,,4,,,,,,,,low,22,0,22,0,1,,,,,,,,,
297184,2022-11-28_15h58.01.776,vts_reward_expectancy_bt,2022.2.4,MacIntel,59.99880002,Chrome,1440,900,,,,,0,1128,,,,,,,,,,,,,,,,,H,132,hexagon,0,0,,,,,,,,,,,,,,,,switch,number,NA,k,1.5433,Hi,,,,,,4,,,,,,,,low,23,0,23,0,1,,,,,,,,,
297184,2022-11-28_15h58.01.776,vts_reward_expectancy_bt,2022.2.4,MacIntel,59.99880002,Chrome,1440,900,,,,,1,1129,,,,,,,,,,,,,,,,,H,125,triangle,1,1,,,,,,,,,,,,,,,,repeat,number,numRpt,j,0.8825,Hi,,,,,,4,,,,,,,,low,24,0,24,0,1,,,,,,,,,
297184,2022-11-28_15h58.01.776,vts_reward_expectancy_bt,2022.2.4,MacIntel,59.99880002,Chrome,1440,900,,,,,0,1129,,,,,,,,,,,,,,,,,S,181,star,0,0,,,,,,,,,,,,,,,,repeat,number,NA,j,0.911,Hi,,,,,,4,,,,,,,,low,25,0,25,0,1,,,,,,,,,
297184,2022-11-28_15h58.01.776,vts_reward_expectancy_bt,2022.2.4,MacIntel,59.99880002,Chrome,1440,900,,,,,0,1129,,,,,,,,,,,,,,,,,W,146,circle,0,1,,,,,,,,,,,,,,,,repeat,number,NA,k,0.9938,Hi,,,,,,4,,,,,,,,low,26,0,26,0,1,,,,,,,,,
