participant,date,expName,psychopyVersion,OS,frameRate,browser,xResolution,yResolution,key_resp.keys,key_resp.rt,training_resp.keys,training_resp.rt,points_trial,points_cumul,trainBlock,training.thisRepN,training.thisTrialN,training.thisN,training.thisIndex,training.ran,LTriangleOpac,LCircleOpac,LHexagonOpac,LStarOpac,RTriangleOpac,RCircleOpac,RHexagonOpac,RStarOpac,LShape_ID,RShape_ID,curr_topStim,curr_bottStim,curr_shape,acc,E1,target_resp_prac1.keys,target_resp_prac1.rt,pracBlock,task1_prac_trials.thisRepN,task1_prac_trials.thisTrialN,task1_prac_trials.thisN,task1_prac_trials.thisIndex,task1_prac_trials.ran,target_resp_prac2.keys,target_resp_prac2.rt,task2_praac_trials.thisRepN,task2_praac_trials.thisTrialN,task2_praac_trials.thisN,task2_praac_trials.thisIndex,task2_praac_trials.ran,alt,task,condition,target_resp.keys,rewCond,vts_practice_trials.thisRepN,vts_practice_trials.thisTrialN,vts_practice_trials.thisN,vts_practice_trials.thisIndex,vts_practice_trials.ran,target_resp.rt,blockNum,trials_norew.thisRepN,trials_norew.thisTrialN,trials_norew.thisN,trials_norew.thisIndex,trials_norew.ran,key_resp_2.keys,key_resp_2.rt,rewExpectancy,trials_rew.thisRepN,trials_rew.thisTrialN,trials_rew.thisN,trials_rew.thisIndex,trials_rew.ran,Q1,Q2,Q2_text,Q3,Q4,Q5_text,Q5,xRes,yRes
297151,2022-12-06_15h40.16.529,vts_reward_expectancy_bt,2022.2.4,MacIntel,59.99880002,Chrome,1440,900,,,,,,,,,,,,,,,,,,,,,,,,,,,,,,,,,,,,,,,,,,,,,,,,,,,,,,,,,,,,,,,,,,,,,,,,,,,,
297151,2022-12-06_15h40.16.529,vts_reward_expectancy_bt,2022.2.4,MacIntel,59.99880002,Chrome,1440,900,space,50.4801,,,,,,,,,,,,,,,,,,,,,,,,,,,,,,,,,,,,,,,,,,,,,,,,,,,,,,,,,,,,,,,,,,,,,,,,,,
297151,2022-12-06_15h40.16.529,vts_reward_expectancy_bt,2022.2.4,MacIntel,59.99880002,Chrome,1440,900,,,,,,,,,,,,,,,,,,,,,,,,,,,,,,,,,,,,,,,,,,,,,,,,,,,,,,,,,,,,,,,,,,,,,,,,,,,,
297151,2022-12-06_15h40.16.529,vts_reward_expectancy_bt,2022.2.4,MacIntel,59.99880002,Chrome,1440,900,,,a,1.0563,0,0,0,0,0,0,10,1,0,0,0,1,0,1,0,0,star ,circle,,,,,,,,,,,,,,,,,,,,,,,,,,,,,,,,,,,,,,,,,,,,,,,,,,,,,,
297151,2022-12-06_15h40.16.529,vts_reward_expectancy_bt,2022.2.4,MacIntel,59.99880002,Chrome,1440,900,,,l,2.2311,1,1,0,0,1,1,1,1,1,0,0,0,0,0,1,0,triangle,hexagon,,,,,,,,,,,,,,,,,,,,,,,,,,,,,,,,,,,,,,,,,,,,,,,,,,,,,,
297151,2022-12-06_15h40.16.529,vts_reward_expectancy_bt,2022.2.4,MacIntel,59.99880002,Chrome,1440,900,,,a,1.1821,10,11,0,0,2,2,4,1,0,1,0,0,0,0,1,0,circle,hexagon,,,,,,,,,,,,,,,,,,,,,,,,,,,,,,,,,,,,,,,,,,,,,,,,,,,,,,
297151,2022-12-06_15h40.16.529,vts_reward_expectancy_bt,2022.2.4,MacIntel,59.99880002,Chrome,1440,900,,,l,0.6366,10,21,0,0,3,3,0,1,1,0,0,0,0,1,0,0,triangle,circle,,,,,,,,,,,,,,,,,,,,,,,,,,,,,,,,,,,,,,,,,,,,,,,,,,,,,,
297151,2022-12-06_15h40.16.529,vts_reward_expectancy_bt,2022.2.4,MacIntel,59.99880002,Chrome,1440,900,,,a,1.3262,1,22,0,0,4,4,9,1,0,0,0,1,1,0,0,0,star,triangle,,,,,,,,,,,,,,,,,,,,,,,,,,,,,,,,,,,,,,,,,,,,,,,,,,,,,,
297151,2022-12-06_15h40.16.529,vts_reward_expectancy_bt,2022.2.4,MacIntel,59.99880002,Chrome,1440,900,,,a,0.6798,1,23,0,0,5,5,8,1,0,0,1,0,0,0,0,1,hexagon,star,,,,,,,,,,,,,,,,,,,,,,,,,,,,,,,,,,,,,,,,,,,,,,,,,,,,,,
297151,2022-12-06_15h40.16.529,vts_reward_expectancy_bt,2022.2.4,MacIntel,59.99880002,Chrome,1440,900,,,a,0.7023,1,24,0,0,6,6,6,1,0,0,1,0,1,0,0,0,hexagon,triangle,,,,,,,,,,,,,,,,,,,,,,,,,,,,,,,,,,,,,,,,,,,,,,,,,,,,,,
297151,2022-12-06_15h40.16.529,vts_reward_expectancy_bt,2022.2.4,MacIntel,59.99880002,Chrome,1440,900,,,l,0.3906,1,25,0,0,7,7,5,1,0,1,0,0,0,0,0,1,circle,star,,,,,,,,,,,,,,,,,,,,,,,,,,,,,,,,,,,,,,,,,,,,,,,,,,,,,,
297151,2022-12-06_15h40.16.529,vts_reward_expectancy_bt,2022.2.4,MacIntel,59.99880002,Chrome,1440,900,,,l,0.6111,1,26,0,0,8,8,11,1,0,0,0,1,0,0,1,0,star,hexagon,,,,,,,,,,,,,,,,,,,,,,,,,,,,,,,,,,,,,,,,,,,,,,,,,,,,,,
297151,2022-12-06_15h40.16.529,vts_reward_expectancy_bt,2022.2.4,MacIntel,59.99880002,Chrome,1440,900,,,a,0.3806,10,36,0,0,9,9,3,1,0,1,0,0,1,0,0,0,circle,triangle,,,,,,,,,,,,,,,,,,,,,,,,,,,,,,,,,,,,,,,,,,,,,,,,,,,,,,
297151,2022-12-06_15h40.16.529,vts_reward_expectancy_bt,2022.2.4,MacIntel,59.99880002,Chrome,1440,900,,,l,0.4096,1,37,0,0,10,10,7,1,0,0,1,0,0,1,0,0,hexagon,circle,,,,,,,,,,,,,,,,,,,,,,,,,,,,,,,,,,,,,,,,,,,,,,,,,,,,,,
297151,2022-12-06_15h40.16.529,vts_reward_expectancy_bt,2022.2.4,MacIntel,59.99880002,Chrome,1440,900,,,a,0.7255,10,47,0,0,11,11,2,1,1,0,0,0,0,0,0,1,triangle,star,,,,,,,,,,,,,,,,,,,,,,,,,,,,,,,,,,,,,,,,,,,,,,,,,,,,,,
297151,2022-12-06_15h40.16.529,vts_reward_expectancy_bt,2022.2.4,MacIntel,59.99880002,Chrome,1440,900,,,a,0.8397,10,57,0,1,0,12,2,1,1,0,0,0,0,0,0,1,triangle,star,,,,,,,,,,,,,,,,,,,,,,,,,,,,,,,,,,,,,,,,,,,,,,,,,,,,,,
297151,2022-12-06_15h40.16.529,vts_reward_expectancy_bt,2022.2.4,MacIntel,59.99880002,Chrome,1440,900,,,a,0.9527,1,58,0,1,1,13,1,1,1,0,0,0,0,0,1,0,triangle,hexagon,,,,,,,,,,,,,,,,,,,,,,,,,,,,,,,,,,,,,,,,,,,,,,,,,,,,,,
297151,2022-12-06_15h40.16.529,vts_reward_expectancy_bt,2022.2.4,MacIntel,59.99880002,Chrome,1440,900,,,l,0.5848,10,68,0,1,2,14,0,1,1,0,0,0,0,1,0,0,triangle,circle,,,,,,,,,,,,,,,,,,,,,,,,,,,,,,,,,,,,,,,,,,,,,,,,,,,,,,
297151,2022-12-06_15h40.16.529,vts_reward_expectancy_bt,2022.2.4,MacIntel,59.99880002,Chrome,1440,900,,,a,0.6526,1,69,0,1,3,15,8,1,0,0,1,0,0,0,0,1,hexagon,star,,,,,,,,,,,,,,,,,,,,,,,,,,,,,,,,,,,,,,,,,,,,,,,,,,,,,,
297151,2022-12-06_15h40.16.529,vts_reward_expectancy_bt,2022.2.4,MacIntel,59.99880002,Chrome,1440,900,,,l,0.365,10,79,0,1,4,16,9,1,0,0,0,1,1,0,0,0,star,triangle,,,,,,,,,,,,,,,,,,,,,,,,,,,,,,,,,,,,,,,,,,,,,,,,,,,,,,
297151,2022-12-06_15h40.16.529,vts_reward_expectancy_bt,2022.2.4,MacIntel,59.99880002,Chrome,1440,900,,,l,0.1689,1,80,0,1,5,17,5,1,0,1,0,0,0,0,0,1,circle,star,,,,,,,,,,,,,,,,,,,,,,,,,,,,,,,,,,,,,,,,,,,,,,,,,,,,,,
297151,2022-12-06_15h40.16.529,vts_reward_expectancy_bt,2022.2.4,MacIntel,59.99880002,Chrome,1440,900,,,l,0.2652,10,90,0,1,6,18,7,1,0,0,1,0,0,1,0,0,hexagon,circle,,,,,,,,,,,,,,,,,,,,,,,,,,,,,,,,,,,,,,,,,,,,,,,,,,,,,,
297151,2022-12-06_15h40.16.529,vts_reward_expectancy_bt,2022.2.4,MacIntel,59.99880002,Chrome,1440,900,,,a,0.2357,1,91,0,1,7,19,4,1,0,1,0,0,0,0,1,0,circle,hexagon,,,,,,,,,,,,,,,,,,,,,,,,,,,,,,,,,,,,,,,,,,,,,,,,,,,,,,
297151,2022-12-06_15h40.16.529,vts_reward_expectancy_bt,2022.2.4,MacIntel,59.99880002,Chrome,1440,900,,,l,0.4195,1,92,0,1,8,20,11,1,0,0,0,1,0,0,1,0,star,hexagon,,,,,,,,,,,,,,,,,,,,,,,,,,,,,,,,,,,,,,,,,,,,,,,,,,,,,,
297151,2022-12-06_15h40.16.529,vts_reward_expectancy_bt,2022.2.4,MacIntel,59.99880002,Chrome,1440,900,,,a,0.3169,10,102,0,1,9,21,3,1,0,1,0,0,1,0,0,0,circle,triangle,,,,,,,,,,,,,,,,,,,,,,,,,,,,,,,,,,,,,,,,,,,,,,,,,,,,,,
297151,2022-12-06_15h40.16.529,vts_reward_expectancy_bt,2022.2.4,MacIntel,59.99880002,Chrome,1440,900,,,l,0.4311,1,103,0,1,10,22,10,1,0,0,0,1,0,1,0,0,star ,circle,,,,,,,,,,,,,,,,,,,,,,,,,,,,,,,,,,,,,,,,,,,,,,,,,,,,,,
297151,2022-12-06_15h40.16.529,vts_reward_expectancy_bt,2022.2.4,MacIntel,59.99880002,Chrome,1440,900,,,l,0.9003,1,104,0,1,11,23,6,1,0,0,1,0,1,0,0,0,hexagon,triangle,,,,,,,,,,,,,,,,,,,,,,,,,,,,,,,,,,,,,,,,,,,,,,,,,,,,,,
297151,2022-12-06_15h40.16.529,vts_reward_expectancy_bt,2022.2.4,MacIntel,59.99880002,Chrome,1440,900,,,l,0.5725,1,105,0,2,0,24,8,1,0,0,1,0,0,0,0,1,hexagon,star,,,,,,,,,,,,,,,,,,,,,,,,,,,,,,,,,,,,,,,,,,,,,,,,,,,,,,
297151,2022-12-06_15h40.16.529,vts_reward_expectancy_bt,2022.2.4,MacIntel,59.99880002,Chrome,1440,900,,,a,0.8862,10,115,0,2,1,25,5,1,0,1,0,0,0,0,0,1,circle,star,,,,,,,,,,,,,,,,,,,,,,,,,,,,,,,,,,,,,,,,,,,,,,,,,,,,,,
297151,2022-12-06_15h40.16.529,vts_reward_expectancy_bt,2022.2.4,MacIntel,59.99880002,Chrome,1440,900,,,l,1.0644,10,125,0,2,2,26,9,1,0,0,0,1,1,0,0,0,star,triangle,,,,,,,,,,,,,,,,,,,,,,,,,,,,,,,,,,,,,,,,,,,,,,,,,,,,,,
297151,2022-12-06_15h40.16.529,vts_reward_expectancy_bt,2022.2.4,MacIntel,59.99880002,Chrome,1440,900,,,a,1.0677,10,135,0,2,3,27,3,1,0,1,0,0,1,0,0,0,circle,triangle,,,,,,,,,,,,,,,,,,,,,,,,,,,,,,,,,,,,,,,,,,,,,,,,,,,,,,
297151,2022-12-06_15h40.16.529,vts_reward_expectancy_bt,2022.2.4,MacIntel,59.99880002,Chrome,1440,900,,,l,0.8414,10,145,0,2,4,28,10,1,0,0,0,1,0,1,0,0,star ,circle,,,,,,,,,,,,,,,,,,,,,,,,,,,,,,,,,,,,,,,,,,,,,,,,,,,,,,
297151,2022-12-06_15h40.16.529,vts_reward_expectancy_bt,2022.2.4,MacIntel,59.99880002,Chrome,1440,900,,,l,1.2072,10,155,0,2,5,29,0,1,1,0,0,0,0,1,0,0,triangle,circle,,,,,,,,,,,,,,,,,,,,,,,,,,,,,,,,,,,,,,,,,,,,,,,,,,,,,,
297151,2022-12-06_15h40.16.529,vts_reward_expectancy_bt,2022.2.4,MacIntel,59.99880002,Chrome,1440,900,,,l,1.1109,10,165,0,2,6,30,11,1,0,0,0,1,0,0,1,0,star,hexagon,,,,,,,,,,,,,,,,,,,,,,,,,,,,,,,,,,,,,,,,,,,,,,,,,,,,,,
297151,2022-12-06_15h40.16.529,vts_reward_expectancy_bt,2022.2.4,MacIntel,59.99880002,Chrome,1440,900,,,a,0.8758,10,175,0,2,7,31,2,1,1,0,0,0,0,0,0,1,triangle,star,,,,,,,,,,,,,,,,,,,,,,,,,,,,,,,,,,,,,,,,,,,,,,,,,,,,,,
297151,2022-12-06_15h40.16.529,vts_reward_expectancy_bt,2022.2.4,MacIntel,59.99880002,Chrome,1440,900,,,a,0.8046,10,185,0,2,8,32,4,1,0,1,0,0,0,0,1,0,circle,hexagon,,,,,,,,,,,,,,,,,,,,,,,,,,,,,,,,,,,,,,,,,,,,,,,,,,,,,,
297151,2022-12-06_15h40.16.529,vts_reward_expectancy_bt,2022.2.4,MacIntel,59.99880002,Chrome,1440,900,,,l,0.6643,10,195,0,2,9,33,1,1,1,0,0,0,0,0,1,0,triangle,hexagon,,,,,,,,,,,,,,,,,,,,,,,,,,,,,,,,,,,,,,,,,,,,,,,,,,,,,,
297151,2022-12-06_15h40.16.529,vts_reward_expectancy_bt,2022.2.4,MacIntel,59.99880002,Chrome,1440,900,,,l,1.0191,1,196,0,2,10,34,6,1,0,0,1,0,1,0,0,0,hexagon,triangle,,,,,,,,,,,,,,,,,,,,,,,,,,,,,,,,,,,,,,,,,,,,,,,,,,,,,,
297151,2022-12-06_15h40.16.529,vts_reward_expectancy_bt,2022.2.4,MacIntel,59.99880002,Chrome,1440,900,,,a,0.5834,1,197,0,2,11,35,7,1,0,0,1,0,0,1,0,0,hexagon,circle,,,,,,,,,,,,,,,,,,,,,,,,,,,,,,,,,,,,,,,,,,,,,,,,,,,,,,
297151,2022-12-06_15h40.16.529,vts_reward_expectancy_bt,2022.2.4,MacIntel,59.99880002,Chrome,1440,900,,,a,1.1121,10,207,1,0,0,0,5,1,0,1,0,0,0,0,0,1,circle,star,,,,,,,,,,,,,,,,,,,,,,,,,,,,,,,,,,,,,,,,,,,,,,,,,,,,,,
297151,2022-12-06_15h40.16.529,vts_reward_expectancy_bt,2022.2.4,MacIntel,59.99880002,Chrome,1440,900,,,l,0.4255,10,217,1,0,1,1,7,1,0,0,1,0,0,1,0,0,hexagon,circle,,,,,,,,,,,,,,,,,,,,,,,,,,,,,,,,,,,,,,,,,,,,,,,,,,,,,,
297151,2022-12-06_15h40.16.529,vts_reward_expectancy_bt,2022.2.4,MacIntel,59.99880002,Chrome,1440,900,,,a,0.4479,10,227,1,0,2,2,3,1,0,1,0,0,1,0,0,0,circle,triangle,,,,,,,,,,,,,,,,,,,,,,,,,,,,,,,,,,,,,,,,,,,,,,,,,,,,,,
297151,2022-12-06_15h40.16.529,vts_reward_expectancy_bt,2022.2.4,MacIntel,59.99880002,Chrome,1440,900,,,l,0.6222,10,237,1,0,3,3,9,1,0,0,0,1,1,0,0,0,star,triangle,,,,,,,,,,,,,,,,,,,,,,,,,,,,,,,,,,,,,,,,,,,,,,,,,,,,,,
297151,2022-12-06_15h40.16.529,vts_reward_expectancy_bt,2022.2.4,MacIntel,59.99880002,Chrome,1440,900,,,l,0.59,10,247,1,0,4,4,0,1,1,0,0,0,0,1,0,0,triangle,circle,,,,,,,,,,,,,,,,,,,,,,,,,,,,,,,,,,,,,,,,,,,,,,,,,,,,,,
297151,2022-12-06_15h40.16.529,vts_reward_expectancy_bt,2022.2.4,MacIntel,59.99880002,Chrome,1440,900,,,a,0.802,1,248,1,0,5,5,8,1,0,0,1,0,0,0,0,1,hexagon,star,,,,,,,,,,,,,,,,,,,,,,,,,,,,,,,,,,,,,,,,,,,,,,,,,,,,,,
297151,2022-12-06_15h40.16.529,vts_reward_expectancy_bt,2022.2.4,MacIntel,59.99880002,Chrome,1440,900,,,a,0.5045,10,258,1,0,6,6,2,1,1,0,0,0,0,0,0,1,triangle,star,,,,,,,,,,,,,,,,,,,,,,,,,,,,,,,,,,,,,,,,,,,,,,,,,,,,,,
297151,2022-12-06_15h40.16.529,vts_reward_expectancy_bt,2022.2.4,MacIntel,59.99880002,Chrome,1440,900,,,l,0.5345,1,259,1,0,7,7,11,1,0,0,0,1,0,0,1,0,star,hexagon,,,,,,,,,,,,,,,,,,,,,,,,,,,,,,,,,,,,,,,,,,,,,,,,,,,,,,
297151,2022-12-06_15h40.16.529,vts_reward_expectancy_bt,2022.2.4,MacIntel,59.99880002,Chrome,1440,900,,,l,1.823,10,269,1,0,8,8,6,1,0,0,1,0,1,0,0,0,hexagon,triangle,,,,,,,,,,,,,,,,,,,,,,,,,,,,,,,,,,,,,,,,,,,,,,,,,,,,,,
297151,2022-12-06_15h40.16.529,vts_reward_expectancy_bt,2022.2.4,MacIntel,59.99880002,Chrome,1440,900,,,a,0.9983,10,279,1,0,9,9,1,1,1,0,0,0,0,0,1,0,triangle,hexagon,,,,,,,,,,,,,,,,,,,,,,,,,,,,,,,,,,,,,,,,,,,,,,,,,,,,,,
297151,2022-12-06_15h40.16.529,vts_reward_expectancy_bt,2022.2.4,MacIntel,59.99880002,Chrome,1440,900,,,a,0.7057,10,289,1,0,10,10,4,1,0,1,0,0,0,0,1,0,circle,hexagon,,,,,,,,,,,,,,,,,,,,,,,,,,,,,,,,,,,,,,,,,,,,,,,,,,,,,,
297151,2022-12-06_15h40.16.529,vts_reward_expectancy_bt,2022.2.4,MacIntel,59.99880002,Chrome,1440,900,,,l,0.7171,1,290,1,0,11,11,10,1,0,0,0,1,0,1,0,0,star ,circle,,,,,,,,,,,,,,,,,,,,,,,,,,,,,,,,,,,,,,,,,,,,,,,,,,,,,,
297151,2022-12-06_15h40.16.529,vts_reward_expectancy_bt,2022.2.4,MacIntel,59.99880002,Chrome,1440,900,,,a,1.1002,1,291,1,1,0,12,10,1,0,0,0,1,0,1,0,0,star ,circle,,,,,,,,,,,,,,,,,,,,,,,,,,,,,,,,,,,,,,,,,,,,,,,,,,,,,,
297151,2022-12-06_15h40.16.529,vts_reward_expectancy_bt,2022.2.4,MacIntel,59.99880002,Chrome,1440,900,,,a,0.7361,1,292,1,1,1,13,2,1,1,0,0,0,0,0,0,1,triangle,star,,,,,,,,,,,,,,,,,,,,,,,,,,,,,,,,,,,,,,,,,,,,,,,,,,,,,,
297151,2022-12-06_15h40.16.529,vts_reward_expectancy_bt,2022.2.4,MacIntel,59.99880002,Chrome,1440,900,,,l,0.415,1,293,1,1,2,14,1,1,1,0,0,0,0,0,1,0,triangle,hexagon,,,,,,,,,,,,,,,,,,,,,,,,,,,,,,,,,,,,,,,,,,,,,,,,,,,,,,
297151,2022-12-06_15h40.16.529,vts_reward_expectancy_bt,2022.2.4,MacIntel,59.99880002,Chrome,1440,900,,,l,0.5577,10,303,1,1,3,15,7,1,0,0,1,0,0,1,0,0,hexagon,circle,,,,,,,,,,,,,,,,,,,,,,,,,,,,,,,,,,,,,,,,,,,,,,,,,,,,,,
297151,2022-12-06_15h40.16.529,vts_reward_expectancy_bt,2022.2.4,MacIntel,59.99880002,Chrome,1440,900,,,a,0.4869,10,313,1,1,4,16,5,1,0,1,0,0,0,0,0,1,circle,star,,,,,,,,,,,,,,,,,,,,,,,,,,,,,,,,,,,,,,,,,,,,,,,,,,,,,,
297151,2022-12-06_15h40.16.529,vts_reward_expectancy_bt,2022.2.4,MacIntel,59.99880002,Chrome,1440,900,,,a,0.5161,10,323,1,1,5,17,4,1,0,1,0,0,0,0,1,0,circle,hexagon,,,,,,,,,,,,,,,,,,,,,,,,,,,,,,,,,,,,,,,,,,,,,,,,,,,,,,
297151,2022-12-06_15h40.16.529,vts_reward_expectancy_bt,2022.2.4,MacIntel,59.99880002,Chrome,1440,900,,,l,0.3995,10,333,1,1,6,18,11,1,0,0,0,1,0,0,1,0,star,hexagon,,,,,,,,,,,,,,,,,,,,,,,,,,,,,,,,,,,,,,,,,,,,,,,,,,,,,,
297151,2022-12-06_15h40.16.529,vts_reward_expectancy_bt,2022.2.4,MacIntel,59.99880002,Chrome,1440,900,,,a,0.62,10,343,1,1,7,19,0,1,1,0,0,0,0,1,0,0,triangle,circle,,,,,,,,,,,,,,,,,,,,,,,,,,,,,,,,,,,,,,,,,,,,,,,,,,,,,,
297151,2022-12-06_15h40.16.529,vts_reward_expectancy_bt,2022.2.4,MacIntel,59.99880002,Chrome,1440,900,,,l,0.3621,1,344,1,1,8,20,8,1,0,0,1,0,0,0,0,1,hexagon,star,,,,,,,,,,,,,,,,,,,,,,,,,,,,,,,,,,,,,,,,,,,,,,,,,,,,,,
297151,2022-12-06_15h40.16.529,vts_reward_expectancy_bt,2022.2.4,MacIntel,59.99880002,Chrome,1440,900,,,l,0.6042,10,354,1,1,9,21,6,1,0,0,1,0,1,0,0,0,hexagon,triangle,,,,,,,,,,,,,,,,,,,,,,,,,,,,,,,,,,,,,,,,,,,,,,,,,,,,,,
297151,2022-12-06_15h40.16.529,vts_reward_expectancy_bt,2022.2.4,MacIntel,59.99880002,Chrome,1440,900,,,l,0.7383,10,364,1,1,10,22,9,1,0,0,0,1,1,0,0,0,star,triangle,,,,,,,,,,,,,,,,,,,,,,,,,,,,,,,,,,,,,,,,,,,,,,,,,,,,,,
297151,2022-12-06_15h40.16.529,vts_reward_expectancy_bt,2022.2.4,MacIntel,59.99880002,Chrome,1440,900,,,a,0.3471,10,374,1,1,11,23,3,1,0,1,0,0,1,0,0,0,circle,triangle,,,,,,,,,,,,,,,,,,,,,,,,,,,,,,,,,,,,,,,,,,,,,,,,,,,,,,
297151,2022-12-06_15h40.16.529,vts_reward_expectancy_bt,2022.2.4,MacIntel,59.99880002,Chrome,1440,900,,,l,0.4524,10,384,1,2,0,24,7,1,0,0,1,0,0,1,0,0,hexagon,circle,,,,,,,,,,,,,,,,,,,,,,,,,,,,,,,,,,,,,,,,,,,,,,,,,,,,,,
297151,2022-12-06_15h40.16.529,vts_reward_expectancy_bt,2022.2.4,MacIntel,59.99880002,Chrome,1440,900,,,l,0.4169,10,394,1,2,1,25,10,1,0,0,0,1,0,1,0,0,star ,circle,,,,,,,,,,,,,,,,,,,,,,,,,,,,,,,,,,,,,,,,,,,,,,,,,,,,,,
297151,2022-12-06_15h40.16.529,vts_reward_expectancy_bt,2022.2.4,MacIntel,59.99880002,Chrome,1440,900,,,a,0.4202,10,404,1,2,2,26,0,1,1,0,0,0,0,1,0,0,triangle,circle,,,,,,,,,,,,,,,,,,,,,,,,,,,,,,,,,,,,,,,,,,,,,,,,,,,,,,
297151,2022-12-06_15h40.16.529,vts_reward_expectancy_bt,2022.2.4,MacIntel,59.99880002,Chrome,1440,900,,,l,0.3025,10,414,1,2,3,27,6,1,0,0,1,0,1,0,0,0,hexagon,triangle,,,,,,,,,,,,,,,,,,,,,,,,,,,,,,,,,,,,,,,,,,,,,,,,,,,,,,
297151,2022-12-06_15h40.16.529,vts_reward_expectancy_bt,2022.2.4,MacIntel,59.99880002,Chrome,1440,900,,,a,0.2713,10,424,1,2,4,28,5,1,0,1,0,0,0,0,0,1,circle,star,,,,,,,,,,,,,,,,,,,,,,,,,,,,,,,,,,,,,,,,,,,,,,,,,,,,,,
297151,2022-12-06_15h40.16.529,vts_reward_expectancy_bt,2022.2.4,MacIntel,59.99880002,Chrome,1440,900,,,l,0.4203,10,434,1,2,5,29,9,1,0,0,0,1,1,0,0,0,star,triangle,,,,,,,,,,,,,,,,,,,,,,,,,,,,,,,,,,,,,,,,,,,,,,,,,,,,,,
297151,2022-12-06_15h40.16.529,vts_reward_expectancy_bt,2022.2.4,MacIntel,59.99880002,Chrome,1440,900,,,a,0.5492,1,435,1,2,6,30,3,1,0,1,0,0,1,0,0,0,circle,triangle,,,,,,,,,,,,,,,,,,,,,,,,,,,,,,,,,,,,,,,,,,,,,,,,,,,,,,
297151,2022-12-06_15h40.16.529,vts_reward_expectancy_bt,2022.2.4,MacIntel,59.99880002,Chrome,1440,900,,,l,0.4691,10,445,1,2,7,31,8,1,0,0,1,0,0,0,0,1,hexagon,star,,,,,,,,,,,,,,,,,,,,,,,,,,,,,,,,,,,,,,,,,,,,,,,,,,,,,,
297151,2022-12-06_15h40.16.529,vts_reward_expectancy_bt,2022.2.4,MacIntel,59.99880002,Chrome,1440,900,,,l,0.402,1,446,1,2,8,32,2,1,1,0,0,0,0,0,0,1,triangle,star,,,,,,,,,,,,,,,,,,,,,,,,,,,,,,,,,,,,,,,,,,,,,,,,,,,,,,
297151,2022-12-06_15h40.16.529,vts_reward_expectancy_bt,2022.2.4,MacIntel,59.99880002,Chrome,1440,900,,,l,0.4073,1,447,1,2,9,33,11,1,0,0,0,1,0,0,1,0,star,hexagon,,,,,,,,,,,,,,,,,,,,,,,,,,,,,,,,,,,,,,,,,,,,,,,,,,,,,,
297151,2022-12-06_15h40.16.529,vts_reward_expectancy_bt,2022.2.4,MacIntel,59.99880002,Chrome,1440,900,,,a,0.4315,10,457,1,2,10,34,4,1,0,1,0,0,0,0,1,0,circle,hexagon,,,,,,,,,,,,,,,,,,,,,,,,,,,,,,,,,,,,,,,,,,,,,,,,,,,,,,
297151,2022-12-06_15h40.16.529,vts_reward_expectancy_bt,2022.2.4,MacIntel,59.99880002,Chrome,1440,900,,,l,0.2877,10,467,1,2,11,35,1,1,1,0,0,0,0,0,1,0,triangle,hexagon,,,,,,,,,,,,,,,,,,,,,,,,,,,,,,,,,,,,,,,,,,,,,,,,,,,,,,
297151,2022-12-06_15h40.16.529,vts_reward_expectancy_bt,2022.2.4,MacIntel,59.99880002,Chrome,1440,900,,,l,0.8821,10,477,2,0,0,0,7,1,0,0,1,0,0,1,0,0,hexagon,circle,,,,,,,,,,,,,,,,,,,,,,,,,,,,,,,,,,,,,,,,,,,,,,,,,,,,,,
297151,2022-12-06_15h40.16.529,vts_reward_expectancy_bt,2022.2.4,MacIntel,59.99880002,Chrome,1440,900,,,a,0.4629,1,478,2,0,1,1,5,1,0,1,0,0,0,0,0,1,circle,star,,,,,,,,,,,,,,,,,,,,,,,,,,,,,,,,,,,,,,,,,,,,,,,,,,,,,,
297151,2022-12-06_15h40.16.529,vts_reward_expectancy_bt,2022.2.4,MacIntel,59.99880002,Chrome,1440,900,,,l,0.182,10,488,2,0,2,2,0,1,1,0,0,0,0,1,0,0,triangle,circle,,,,,,,,,,,,,,,,,,,,,,,,,,,,,,,,,,,,,,,,,,,,,,,,,,,,,,
297151,2022-12-06_15h40.16.529,vts_reward_expectancy_bt,2022.2.4,MacIntel,59.99880002,Chrome,1440,900,,,l,0.3507,10,498,2,0,3,3,9,1,0,0,0,1,1,0,0,0,star,triangle,,,,,,,,,,,,,,,,,,,,,,,,,,,,,,,,,,,,,,,,,,,,,,,,,,,,,,
297151,2022-12-06_15h40.16.529,vts_reward_expectancy_bt,2022.2.4,MacIntel,59.99880002,Chrome,1440,900,,,l,0.2674,1,499,2,0,4,4,8,1,0,0,1,0,0,0,0,1,hexagon,star,,,,,,,,,,,,,,,,,,,,,,,,,,,,,,,,,,,,,,,,,,,,,,,,,,,,,,
297151,2022-12-06_15h40.16.529,vts_reward_expectancy_bt,2022.2.4,MacIntel,59.99880002,Chrome,1440,900,,,l,0.3015,10,509,2,0,5,5,4,1,0,1,0,0,0,0,1,0,circle,hexagon,,,,,,,,,,,,,,,,,,,,,,,,,,,,,,,,,,,,,,,,,,,,,,,,,,,,,,
297151,2022-12-06_15h40.16.529,vts_reward_expectancy_bt,2022.2.4,MacIntel,59.99880002,Chrome,1440,900,,,l,0.3061,1,510,2,0,6,6,1,1,1,0,0,0,0,0,1,0,triangle,hexagon,,,,,,,,,,,,,,,,,,,,,,,,,,,,,,,,,,,,,,,,,,,,,,,,,,,,,,
297151,2022-12-06_15h40.16.529,vts_reward_expectancy_bt,2022.2.4,MacIntel,59.99880002,Chrome,1440,900,,,a,0.3164,1,511,2,0,7,7,10,1,0,0,0,1,0,1,0,0,star ,circle,,,,,,,,,,,,,,,,,,,,,,,,,,,,,,,,,,,,,,,,,,,,,,,,,,,,,,
297151,2022-12-06_15h40.16.529,vts_reward_expectancy_bt,2022.2.4,MacIntel,59.99880002,Chrome,1440,900,,,l,0.2001,10,521,2,0,8,8,6,1,0,0,1,0,1,0,0,0,hexagon,triangle,,,,,,,,,,,,,,,,,,,,,,,,,,,,,,,,,,,,,,,,,,,,,,,,,,,,,,
297151,2022-12-06_15h40.16.529,vts_reward_expectancy_bt,2022.2.4,MacIntel,59.99880002,Chrome,1440,900,,,a,0.4677,10,531,2,0,9,9,3,1,0,1,0,0,1,0,0,0,circle,triangle,,,,,,,,,,,,,,,,,,,,,,,,,,,,,,,,,,,,,,,,,,,,,,,,,,,,,,
297151,2022-12-06_15h40.16.529,vts_reward_expectancy_bt,2022.2.4,MacIntel,59.99880002,Chrome,1440,900,,,a,0.287,1,532,2,0,10,10,11,1,0,0,0,1,0,0,1,0,star,hexagon,,,,,,,,,,,,,,,,,,,,,,,,,,,,,,,,,,,,,,,,,,,,,,,,,,,,,,
297151,2022-12-06_15h40.16.529,vts_reward_expectancy_bt,2022.2.4,MacIntel,59.99880002,Chrome,1440,900,,,l,0.3708,1,533,2,0,11,11,2,1,1,0,0,0,0,0,0,1,triangle,star,,,,,,,,,,,,,,,,,,,,,,,,,,,,,,,,,,,,,,,,,,,,,,,,,,,,,,
297151,2022-12-06_15h40.16.529,vts_reward_expectancy_bt,2022.2.4,MacIntel,59.99880002,Chrome,1440,900,,,a,0.907,1,534,2,1,0,12,11,1,0,0,0,1,0,0,1,0,star,hexagon,,,,,,,,,,,,,,,,,,,,,,,,,,,,,,,,,,,,,,,,,,,,,,,,,,,,,,
297151,2022-12-06_15h40.16.529,vts_reward_expectancy_bt,2022.2.4,MacIntel,59.99880002,Chrome,1440,900,,,l,0.6506,1,535,2,1,1,13,5,1,0,1,0,0,0,0,0,1,circle,star,,,,,,,,,,,,,,,,,,,,,,,,,,,,,,,,,,,,,,,,,,,,,,,,,,,,,,
297151,2022-12-06_15h40.16.529,vts_reward_expectancy_bt,2022.2.4,MacIntel,59.99880002,Chrome,1440,900,,,l,2.4411,1,536,2,1,2,14,1,1,1,0,0,0,0,0,1,0,triangle,hexagon,,,,,,,,,,,,,,,,,,,,,,,,,,,,,,,,,,,,,,,,,,,,,,,,,,,,,,
297151,2022-12-06_15h40.16.529,vts_reward_expectancy_bt,2022.2.4,MacIntel,59.99880002,Chrome,1440,900,,,l,0.3337,10,546,2,1,3,15,3,1,0,1,0,0,1,0,0,0,circle,triangle,,,,,,,,,,,,,,,,,,,,,,,,,,,,,,,,,,,,,,,,,,,,,,,,,,,,,,
297151,2022-12-06_15h40.16.529,vts_reward_expectancy_bt,2022.2.4,MacIntel,59.99880002,Chrome,1440,900,,,l,3.3819,10,556,2,1,4,16,10,1,0,0,0,1,0,1,0,0,star ,circle,,,,,,,,,,,,,,,,,,,,,,,,,,,,,,,,,,,,,,,,,,,,,,,,,,,,,,
297151,2022-12-06_15h40.16.529,vts_reward_expectancy_bt,2022.2.4,MacIntel,59.99880002,Chrome,1440,900,,,l,0.8365,10,566,2,1,5,17,9,1,0,0,0,1,1,0,0,0,star,triangle,,,,,,,,,,,,,,,,,,,,,,,,,,,,,,,,,,,,,,,,,,,,,,,,,,,,,,
297151,2022-12-06_15h40.16.529,vts_reward_expectancy_bt,2022.2.4,MacIntel,59.99880002,Chrome,1440,900,,,a,0.8695,1,567,2,1,6,18,8,1,0,0,1,0,0,0,0,1,hexagon,star,,,,,,,,,,,,,,,,,,,,,,,,,,,,,,,,,,,,,,,,,,,,,,,,,,,,,,
297151,2022-12-06_15h40.16.529,vts_reward_expectancy_bt,2022.2.4,MacIntel,59.99880002,Chrome,1440,900,,,l,0.4079,10,577,2,1,7,19,6,1,0,0,1,0,1,0,0,0,hexagon,triangle,,,,,,,,,,,,,,,,,,,,,,,,,,,,,,,,,,,,,,,,,,,,,,,,,,,,,,
297151,2022-12-06_15h40.16.529,vts_reward_expectancy_bt,2022.2.4,MacIntel,59.99880002,Chrome,1440,900,,,l,0.3004,10,587,2,1,8,20,0,1,1,0,0,0,0,1,0,0,triangle,circle,,,,,,,,,,,,,,,,,,,,,,,,,,,,,,,,,,,,,,,,,,,,,,,,,,,,,,
297151,2022-12-06_15h40.16.529,vts_reward_expectancy_bt,2022.2.4,MacIntel,59.99880002,Chrome,1440,900,,,l,0.2374,1,588,2,1,9,21,4,1,0,1,0,0,0,0,1,0,circle,hexagon,,,,,,,,,,,,,,,,,,,,,,,,,,,,,,,,,,,,,,,,,,,,,,,,,,,,,,
297151,2022-12-06_15h40.16.529,vts_reward_expectancy_bt,2022.2.4,MacIntel,59.99880002,Chrome,1440,900,,,a,0.3028,10,598,2,1,10,22,7,1,0,0,1,0,0,1,0,0,hexagon,circle,,,,,,,,,,,,,,,,,,,,,,,,,,,,,,,,,,,,,,,,,,,,,,,,,,,,,,
297151,2022-12-06_15h40.16.529,vts_reward_expectancy_bt,2022.2.4,MacIntel,59.99880002,Chrome,1440,900,,,l,0.1981,10,608,2,1,11,23,2,1,1,0,0,0,0,0,0,1,triangle,star,,,,,,,,,,,,,,,,,,,,,,,,,,,,,,,,,,,,,,,,,,,,,,,,,,,,,,
297151,2022-12-06_15h40.16.529,vts_reward_expectancy_bt,2022.2.4,MacIntel,59.99880002,Chrome,1440,900,,,l,0.153,1,609,2,2,0,24,8,1,0,0,1,0,0,0,0,1,hexagon,star,,,,,,,,,,,,,,,,,,,,,,,,,,,,,,,,,,,,,,,,,,,,,,,,,,,,,,
297151,2022-12-06_15h40.16.529,vts_reward_expectancy_bt,2022.2.4,MacIntel,59.99880002,Chrome,1440,900,,,a,0.3636,10,619,2,2,1,25,5,1,0,1,0,0,0,0,0,1,circle,star,,,,,,,,,,,,,,,,,,,,,,,,,,,,,,,,,,,,,,,,,,,,,,,,,,,,,,
297151,2022-12-06_15h40.16.529,vts_reward_expectancy_bt,2022.2.4,MacIntel,59.99880002,Chrome,1440,900,,,l,0.1739,10,629,2,2,2,26,10,1,0,0,0,1,0,1,0,0,star ,circle,,,,,,,,,,,,,,,,,,,,,,,,,,,,,,,,,,,,,,,,,,,,,,,,,,,,,,
297151,2022-12-06_15h40.16.529,vts_reward_expectancy_bt,2022.2.4,MacIntel,59.99880002,Chrome,1440,900,,,l,0.3339,1,630,2,2,3,27,1,1,1,0,0,0,0,0,1,0,triangle,hexagon,,,,,,,,,,,,,,,,,,,,,,,,,,,,,,,,,,,,,,,,,,,,,,,,,,,,,,
297151,2022-12-06_15h40.16.529,vts_reward_expectancy_bt,2022.2.4,MacIntel,59.99880002,Chrome,1440,900,,,a,0.2836,10,640,2,2,4,28,6,1,0,0,1,0,1,0,0,0,hexagon,triangle,,,,,,,,,,,,,,,,,,,,,,,,,,,,,,,,,,,,,,,,,,,,,,,,,,,,,,
297151,2022-12-06_15h40.16.529,vts_reward_expectancy_bt,2022.2.4,MacIntel,59.99880002,Chrome,1440,900,,,l,0.251,1,641,2,2,5,29,11,1,0,0,0,1,0,0,1,0,star,hexagon,,,,,,,,,,,,,,,,,,,,,,,,,,,,,,,,,,,,,,,,,,,,,,,,,,,,,,
297151,2022-12-06_15h40.16.529,vts_reward_expectancy_bt,2022.2.4,MacIntel,59.99880002,Chrome,1440,900,,,a,0.2868,10,651,2,2,6,30,7,1,0,0,1,0,0,1,0,0,hexagon,circle,,,,,,,,,,,,,,,,,,,,,,,,,,,,,,,,,,,,,,,,,,,,,,,,,,,,,,
297151,2022-12-06_15h40.16.529,vts_reward_expectancy_bt,2022.2.4,MacIntel,59.99880002,Chrome,1440,900,,,l,0.452,10,661,2,2,7,31,9,1,0,0,0,1,1,0,0,0,star,triangle,,,,,,,,,,,,,,,,,,,,,,,,,,,,,,,,,,,,,,,,,,,,,,,,,,,,,,
297151,2022-12-06_15h40.16.529,vts_reward_expectancy_bt,2022.2.4,MacIntel,59.99880002,Chrome,1440,900,,,l,0.4012,10,671,2,2,8,32,0,1,1,0,0,0,0,1,0,0,triangle,circle,,,,,,,,,,,,,,,,,,,,,,,,,,,,,,,,,,,,,,,,,,,,,,,,,,,,,,
297151,2022-12-06_15h40.16.529,vts_reward_expectancy_bt,2022.2.4,MacIntel,59.99880002,Chrome,1440,900,,,a,0.6032,10,681,2,2,9,33,2,1,1,0,0,0,0,0,0,1,triangle,star,,,,,,,,,,,,,,,,,,,,,,,,,,,,,,,,,,,,,,,,,,,,,,,,,,,,,,
297151,2022-12-06_15h40.16.529,vts_reward_expectancy_bt,2022.2.4,MacIntel,59.99880002,Chrome,1440,900,,,a,0.4862,1,682,2,2,10,34,4,1,0,1,0,0,0,0,1,0,circle,hexagon,,,,,,,,,,,,,,,,,,,,,,,,,,,,,,,,,,,,,,,,,,,,,,,,,,,,,,
297151,2022-12-06_15h40.16.529,vts_reward_expectancy_bt,2022.2.4,MacIntel,59.99880002,Chrome,1440,900,,,a,0.6273,1,683,2,2,11,35,3,1,0,1,0,0,1,0,0,0,circle,triangle,,,,,,,,,,,,,,,,,,,,,,,,,,,,,,,,,,,,,,,,,,,,,,,,,,,,,,
297151,2022-12-06_15h40.16.529,vts_reward_expectancy_bt,2022.2.4,MacIntel,59.99880002,Chrome,1440,900,,,,,,,,,,,,,,,,,,,,,,,B,181,star,1,0,d,1.688,0,0,0,0,0,1,,,,,,,,,,,,,,,,,,,,,,,,,,,,,,,,,,,,,,,,,
297151,2022-12-06_15h40.16.529,vts_reward_expectancy_bt,2022.2.4,MacIntel,59.99880002,Chrome,1440,900,,,,,,,,,,,,,,,,,,,,,,,U,132,hexagon,1,0,f,0.8817,0,1,0,1,0,1,,,,,,,,,,,,,,,,,,,,,,,,,,,,,,,,,,,,,,,,,
297151,2022-12-06_15h40.16.529,vts_reward_expectancy_bt,2022.2.4,MacIntel,59.99880002,Chrome,1440,900,,,,,,,,,,,,,,,,,,,,,,,F,139,circle,1,0,d,0.7709,0,2,0,2,0,1,,,,,,,,,,,,,,,,,,,,,,,,,,,,,,,,,,,,,,,,,
297151,2022-12-06_15h40.16.529,vts_reward_expectancy_bt,2022.2.4,MacIntel,59.99880002,Chrome,1440,900,,,,,,,,,,,,,,,,,,,,,,,D,146,triangle,1,0,d,0.7149,0,3,0,3,0,1,,,,,,,,,,,,,,,,,,,,,,,,,,,,,,,,,,,,,,,,,
297151,2022-12-06_15h40.16.529,vts_reward_expectancy_bt,2022.2.4,MacIntel,59.99880002,Chrome,1440,900,,,,,,,,,,,,,,,,,,,,,,,H,160,star,1,0,d,0.7623,0,4,0,4,0,1,,,,,,,,,,,,,,,,,,,,,,,,,,,,,,,,,,,,,,,,,
297151,2022-12-06_15h40.16.529,vts_reward_expectancy_bt,2022.2.4,MacIntel,59.99880002,Chrome,1440,900,,,,,,,,,,,,,,,,,,,,,,,S,125,hexagon,1,0,f,0.6467,0,5,0,5,0,1,,,,,,,,,,,,,,,,,,,,,,,,,,,,,,,,,,,,,,,,,
297151,2022-12-06_15h40.16.529,vts_reward_expectancy_bt,2022.2.4,MacIntel,59.99880002,Chrome,1440,900,,,,,,,,,,,,,,,,,,,,,,,Y,174,circle,1,0,f,0.6765,0,6,0,6,0,1,,,,,,,,,,,,,,,,,,,,,,,,,,,,,,,,,,,,,,,,,
297151,2022-12-06_15h40.16.529,vts_reward_expectancy_bt,2022.2.4,MacIntel,59.99880002,Chrome,1440,900,,,,,,,,,,,,,,,,,,,,,,,W,167,triangle,1,0,f,0.5966,0,7,0,7,0,1,,,,,,,,,,,,,,,,,,,,,,,,,,,,,,,,,,,,,,,,,
297151,2022-12-06_15h40.16.529,vts_reward_expectancy_bt,2022.2.4,MacIntel,59.99880002,Chrome,1440,900,,,,,,,,,,,,,,,,,,,,,,,B,181,hexagon,1,0,d,0.4494,0,8,0,8,0,1,,,,,,,,,,,,,,,,,,,,,,,,,,,,,,,,,,,,,,,,,
297151,2022-12-06_15h40.16.529,vts_reward_expectancy_bt,2022.2.4,MacIntel,59.99880002,Chrome,1440,900,,,,,,,,,,,,,,,,,,,,,,,U,132,star,1,0,f,0.6011,0,9,0,9,0,1,,,,,,,,,,,,,,,,,,,,,,,,,,,,,,,,,,,,,,,,,
297151,2022-12-06_15h40.16.529,vts_reward_expectancy_bt,2022.2.4,MacIntel,59.99880002,Chrome,1440,900,,,,,,,,,,,,,,,,,,,,,,,F,146,star,1,0,,,1,,,,,,j,0.8554,0,0,0,0,1,,,,,,,,,,,,,,,,,,,,,,,,,,,,,,,,,,
297151,2022-12-06_15h40.16.529,vts_reward_expectancy_bt,2022.2.4,MacIntel,59.99880002,Chrome,1440,900,,,,,,,,,,,,,,,,,,,,,,,W,174,triangle,1,0,,,1,,,,,,k,0.5878,1,0,1,0,1,,,,,,,,,,,,,,,,,,,,,,,,,,,,,,,,,,
297151,2022-12-06_15h40.16.529,vts_reward_expectancy_bt,2022.2.4,MacIntel,59.99880002,Chrome,1440,900,,,,,,,,,,,,,,,,,,,,,,,H,132,circle,1,0,,,1,,,,,,j,0.8899,2,0,2,0,1,,,,,,,,,,,,,,,,,,,,,,,,,,,,,,,,,,
297151,2022-12-06_15h40.16.529,vts_reward_expectancy_bt,2022.2.4,MacIntel,59.99880002,Chrome,1440,900,,,,,,,,,,,,,,,,,,,,,,,U,160,hexagon,1,0,,,1,,,,,,k,0.615,3,0,3,0,1,,,,,,,,,,,,,,,,,,,,,,,,,,,,,,,,,,
297151,2022-12-06_15h40.16.529,vts_reward_expectancy_bt,2022.2.4,MacIntel,59.99880002,Chrome,1440,900,,,,,,,,,,,,,,,,,,,,,,,B,167,star,1,0,,,1,,,,,,k,0.6467,4,0,4,0,1,,,,,,,,,,,,,,,,,,,,,,,,,,,,,,,,,,
297151,2022-12-06_15h40.16.529,vts_reward_expectancy_bt,2022.2.4,MacIntel,59.99880002,Chrome,1440,900,,,,,,,,,,,,,,,,,,,,,,,D,181,triangle,1,0,,,1,,,,,,k,0.6126,5,0,5,0,1,,,,,,,,,,,,,,,,,,,,,,,,,,,,,,,,,,
297151,2022-12-06_15h40.16.529,vts_reward_expectancy_bt,2022.2.4,MacIntel,59.99880002,Chrome,1440,900,,,,,,,,,,,,,,,,,,,,,,,S,139,circle,1,0,,,1,,,,,,j,0.7353,6,0,6,0,1,,,,,,,,,,,,,,,,,,,,,,,,,,,,,,,,,,
297151,2022-12-06_15h40.16.529,vts_reward_expectancy_bt,2022.2.4,MacIntel,59.99880002,Chrome,1440,900,,,,,,,,,,,,,,,,,,,,,,,Y,125,hexagon,1,0,,,1,,,,,,j,0.607,7,0,7,0,1,,,,,,,,,,,,,,,,,,,,,,,,,,,,,,,,,,
297151,2022-12-06_15h40.16.529,vts_reward_expectancy_bt,2022.2.4,MacIntel,59.99880002,Chrome,1440,900,,,,,,,,,,,,,,,,,,,,,,,F,146,hexagon,1,0,,,1,,,,,,j,0.6918,8,0,8,0,1,,,,,,,,,,,,,,,,,,,,,,,,,,,,,,,,,,
297151,2022-12-06_15h40.16.529,vts_reward_expectancy_bt,2022.2.4,MacIntel,59.99880002,Chrome,1440,900,,,,,,,,,,,,,,,,,,,,,,,W,174,circle,1,0,,,1,,,,,,k,0.4796,9,0,9,0,1,,,,,,,,,,,,,,,,,,,,,,,,,,,,,,,,,,
297151,2022-12-06_15h40.16.529,vts_reward_expectancy_bt,2022.2.4,MacIntel,59.99880002,Chrome,1440,900,,,,,0,683,,,,,,,,,,,,,,,,,F,160,star,-1,0,,,2,,,,,,,,,,,,,-1,no_choice,NA,,vtsPrac,0,0,0,0,1,,,,,,,,,,,,,,,,,,,,,,,,
297151,2022-12-06_15h40.16.529,vts_reward_expectancy_bt,2022.2.4,MacIntel,59.99880002,Chrome,1440,900,,,,,0,683,,,,,,,,,,,,,,,,,S,174,circle,1,0,,,2,,,,,,,,,,,,,switch,letter,lettSwt,f,vtsPrac,1,0,1,0,1,1.2818,,,,,,,,,,,,,,,,,,,,,,,
297151,2022-12-06_15h40.16.529,vts_reward_expectancy_bt,2022.2.4,MacIntel,59.99880002,Chrome,1440,900,,,,,0,683,,,,,,,,,,,,,,,,,Y,139,star,0,0,,,2,,,,,,,,,,,,,switch,number,NA,k,vtsPrac,2,0,2,0,1,1.0428,,,,,,,,,,,,,,,,,,,,,,,
297151,2022-12-06_15h40.16.529,vts_reward_expectancy_bt,2022.2.4,MacIntel,59.99880002,Chrome,1440,900,,,,,0,683,,,,,,,,,,,,,,,,,W,167,circle,1,1,,,2,,,,,,,,,,,,,switch,letter,lettSwt,f,vtsPrac,3,0,3,0,1,0.8461,,,,,,,,,,,,,,,,,,,,,,,
297151,2022-12-06_15h40.16.529,vts_reward_expectancy_bt,2022.2.4,MacIntel,59.99880002,Chrome,1440,900,,,,,0,683,,,,,,,,,,,,,,,,,F,160,star,1,0,,,2,,,,,,,,,,,,,switch,number,numSwt,k,vtsPrac,4,0,4,0,1,0.6605,,,,,,,,,,,,,,,,,,,,,,,
297151,2022-12-06_15h40.16.529,vts_reward_expectancy_bt,2022.2.4,MacIntel,59.99880002,Chrome,1440,900,,,,,0,683,,,,,,,,,,,,,,,,,S,174,circle,1,0,,,2,,,,,,,,,,,,,repeat,number,numRpt,k,vtsPrac,5,0,5,0,1,0.7811,,,,,,,,,,,,,,,,,,,,,,,
297151,2022-12-06_15h40.16.529,vts_reward_expectancy_bt,2022.2.4,MacIntel,59.99880002,Chrome,1440,900,,,,,0,683,,,,,,,,,,,,,,,,,Y,139,circle,1,0,,,2,,,,,,,,,,,,,repeat,number,numRpt,j,vtsPrac,6,0,6,0,1,0.5668,,,,,,,,,,,,,,,,,,,,,,,
297151,2022-12-06_15h40.16.529,vts_reward_expectancy_bt,2022.2.4,MacIntel,59.99880002,Chrome,1440,900,,,,,0,683,,,,,,,,,,,,,,,,,W,167,star,1,0,,,2,,,,,,,,,,,,,repeat,number,numRpt,k,vtsPrac,7,0,7,0,1,0.5974,,,,,,,,,,,,,,,,,,,,,,,
297151,2022-12-06_15h40.16.529,vts_reward_expectancy_bt,2022.2.4,MacIntel,59.99880002,Chrome,1440,900,,,,,0,683,,,,,,,,,,,,,,,,,Y,125,circle,1,0,,,2,,,,,,,,,,,,,switch,letter,lettSwt,f,vtsPrac,8,0,8,0,1,0.6658,,,,,,,,,,,,,,,,,,,,,,,
297151,2022-12-06_15h40.16.529,vts_reward_expectancy_bt,2022.2.4,MacIntel,59.99880002,Chrome,1440,900,,,,,0,683,,,,,,,,,,,,,,,,,W,132,star,1,0,,,2,,,,,,,,,,,,,switch,number,numSwt,j,vtsPrac,9,0,9,0,1,0.5357,,,,,,,,,,,,,,,,,,,,,,,
297151,2022-12-06_15h40.16.529,vts_reward_expectancy_bt,2022.2.4,MacIntel,59.99880002,Chrome,1440,900,,,,,0,683,,,,,,,,,,,,,,,,,F,139,circle,1,0,,,2,,,,,,,,,,,,,switch,letter,lettSwt,d,vtsPrac,10,0,10,0,1,0.6282,,,,,,,,,,,,,,,,,,,,,,,
297151,2022-12-06_15h40.16.529,vts_reward_expectancy_bt,2022.2.4,MacIntel,59.99880002,Chrome,1440,900,,,,,0,683,,,,,,,,,,,,,,,,,H,146,hexagon,1,0,,,2,,,,,,,,,,,,,switch,number,numSwt,j,vtsPrac,11,0,11,0,1,0.5481,,,,,,,,,,,,,,,,,,,,,,,
297151,2022-12-06_15h40.16.529,vts_reward_expectancy_bt,2022.2.4,MacIntel,59.99880002,Chrome,1440,900,,,,,0,683,,,,,,,,,,,,,,,,,S,160,triangle,1,0,,,2,,,,,,,,,,,,,switch,letter,lettSwt,f,vtsPrac,12,0,12,0,1,0.5292,,,,,,,,,,,,,,,,,,,,,,,
297151,2022-12-06_15h40.16.529,vts_reward_expectancy_bt,2022.2.4,MacIntel,59.99880002,Chrome,1440,900,,,,,0,683,,,,,,,,,,,,,,,,,H,132,star,1,0,,,2,,,,,,,,,,,,,switch,number,numSwt,j,vtsPrac,13,0,13,0,1,0.4127,,,,,,,,,,,,,,,,,,,,,,,
297151,2022-12-06_15h40.16.529,vts_reward_expectancy_bt,2022.2.4,MacIntel,59.99880002,Chrome,1440,900,,,,,0,683,,,,,,,,,,,,,,,,,W,167,hexagon,1,0,,,2,,,,,,,,,,,,,switch,letter,lettSwt,f,vtsPrac,14,0,14,0,1,0.4322,,,,,,,,,,,,,,,,,,,,,,,
297151,2022-12-06_15h40.16.529,vts_reward_expectancy_bt,2022.2.4,MacIntel,59.99880002,Chrome,1440,900,,,,,0,683,,,,,,,,,,,,,,,,,Y,125,circle,1,0,,,2,,,,,,,,,,,,,switch,number,numSwt,j,vtsPrac,15,0,15,0,1,0.4495,,,,,,,,,,,,,,,,,,,,,,,
297151,2022-12-06_15h40.16.529,vts_reward_expectancy_bt,2022.2.4,MacIntel,59.99880002,Chrome,1440,900,,,,,0,683,,,,,,,,,,,,,,,,,B,167,triangle,1,0,,,2,,,,,,,,,,,,,switch,letter,lettSwt,d,vtsPrac,16,0,16,0,1,0.3983,,,,,,,,,,,,,,,,,,,,,,,
297151,2022-12-06_15h40.16.529,vts_reward_expectancy_bt,2022.2.4,MacIntel,59.99880002,Chrome,1440,900,,,,,0,683,,,,,,,,,,,,,,,,,S,139,star,1,0,,,2,,,,,,,,,,,,,switch,number,numSwt,j,vtsPrac,17,0,17,0,1,0.4986,,,,,,,,,,,,,,,,,,,,,,,
297151,2022-12-06_15h40.16.529,vts_reward_expectancy_bt,2022.2.4,MacIntel,59.99880002,Chrome,1440,900,,,,,0,683,,,,,,,,,,,,,,,,,Y,160,triangle,1,0,,,2,,,,,,,,,,,,,switch,letter,lettSwt,f,vtsPrac,18,0,18,0,1,0.5692,,,,,,,,,,,,,,,,,,,,,,,
297151,2022-12-06_15h40.16.529,vts_reward_expectancy_bt,2022.2.4,MacIntel,59.99880002,Chrome,1440,900,,,,,0,683,,,,,,,,,,,,,,,,,U,181,hexagon,1,0,,,2,,,,,,,,,,,,,switch,number,numSwt,k,vtsPrac,19,0,19,0,1,0.7462,,,,,,,,,,,,,,,,,,,,,,,
297151,2022-12-06_15h40.16.529,vts_reward_expectancy_bt,2022.2.4,MacIntel,59.99880002,Chrome,1440,900,,,,,0,683,,,,,,,,,,,,,,,,,Y,146,circle,1,0,,,2,,,,,,,,,,,,,switch,letter,lettSwt,f,vtsPrac,20,0,20,0,1,0.5288,,,,,,,,,,,,,,,,,,,,,,,
297151,2022-12-06_15h40.16.529,vts_reward_expectancy_bt,2022.2.4,MacIntel,59.99880002,Chrome,1440,900,,,,,0,683,,,,,,,,,,,,,,,,,S,174,star,1,0,,,2,,,,,,,,,,,,,switch,number,numSwt,k,vtsPrac,21,0,21,0,1,0.5121,,,,,,,,,,,,,,,,,,,,,,,
297151,2022-12-06_15h40.16.529,vts_reward_expectancy_bt,2022.2.4,MacIntel,59.99880002,Chrome,1440,900,,,,,0,683,,,,,,,,,,,,,,,,,F,139,circle,1,0,,,2,,,,,,,,,,,,,switch,letter,lettSwt,d,vtsPrac,22,0,22,0,1,0.5425,,,,,,,,,,,,,,,,,,,,,,,
297151,2022-12-06_15h40.16.529,vts_reward_expectancy_bt,2022.2.4,MacIntel,59.99880002,Chrome,1440,900,,,,,0,683,,,,,,,,,,,,,,,,,D,125,star,1,0,,,2,,,,,,,,,,,,,switch,number,numSwt,j,vtsPrac,23,0,23,0,1,0.6528,,,,,,,,,,,,,,,,,,,,,,,
297151,2022-12-06_15h40.16.529,vts_reward_expectancy_bt,2022.2.4,MacIntel,59.99880002,Chrome,1440,900,,,,,0,683,,,,,,,,,,,,,,,,,U,181,triangle,1,0,,,2,,,,,,,,,,,,,switch,letter,lettSwt,f,vtsPrac,24,0,24,0,1,0.5766,,,,,,,,,,,,,,,,,,,,,,,
297151,2022-12-06_15h40.16.529,vts_reward_expectancy_bt,2022.2.4,MacIntel,59.99880002,Chrome,1440,900,,,,,0,683,,,,,,,,,,,,,,,,,B,146,star,1,0,,,2,,,,,,,,,,,,,repeat,letter,lettRpt,d,vtsPrac,25,0,25,0,1,0.6219,,,,,,,,,,,,,,,,,,,,,,,
297151,2022-12-06_15h40.16.529,vts_reward_expectancy_bt,2022.2.4,MacIntel,59.99880002,Chrome,1440,900,,,,,0,683,,,,,,,,,,,,,,,,,Y,167,hexagon,1,0,,,2,,,,,,,,,,,,,switch,number,numSwt,k,vtsPrac,26,0,26,0,1,0.4811,,,,,,,,,,,,,,,,,,,,,,,
297151,2022-12-06_15h40.16.529,vts_reward_expectancy_bt,2022.2.4,MacIntel,59.99880002,Chrome,1440,900,,,,,0,683,,,,,,,,,,,,,,,,,W,160,circle,1,0,,,2,,,,,,,,,,,,,repeat,number,numRpt,k,vtsPrac,27,0,27,0,1,0.5806,,,,,,,,,,,,,,,,,,,,,,,
297151,2022-12-06_15h40.16.529,vts_reward_expectancy_bt,2022.2.4,MacIntel,59.99880002,Chrome,1440,900,,,,,0,683,,,,,,,,,,,,,,,,,Y,167,triangle,1,0,,,2,,,,,,,,,,,,,switch,letter,lettSwt,f,vtsPrac,28,0,28,0,1,0.5139,,,,,,,,,,,,,,,,,,,,,,,
297151,2022-12-06_15h40.16.529,vts_reward_expectancy_bt,2022.2.4,MacIntel,59.99880002,Chrome,1440,900,,,,,0,683,,,,,,,,,,,,,,,,,U,146,hexagon,1,0,,,2,,,,,,,,,,,,,switch,number,numSwt,j,vtsPrac,29,0,29,0,1,0.7971,,,,,,,,,,,,,,,,,,,,,,,
297151,2022-12-06_15h40.16.529,vts_reward_expectancy_bt,2022.2.4,MacIntel,59.99880002,Chrome,1440,900,,,,,0,683,,,,,,,,,,,,,,,,,B,160,triangle,1,0,,,2,,,,,,,,,,,,,switch,letter,lettSwt,d,vtsPrac,30,0,30,0,1,0.5038,,,,,,,,,,,,,,,,,,,,,,,
297151,2022-12-06_15h40.16.529,vts_reward_expectancy_bt,2022.2.4,MacIntel,59.99880002,Chrome,1440,900,,,,,0,683,,,,,,,,,,,,,,,,,S,139,star,1,0,,,2,,,,,,,,,,,,,switch,number,numSwt,j,vtsPrac,31,0,31,0,1,0.5351,,,,,,,,,,,,,,,,,,,,,,,
297151,2022-12-06_15h40.16.529,vts_reward_expectancy_bt,2022.2.4,MacIntel,59.99880002,Chrome,1440,900,,,,,0,683,,,,,,,,,,,,,,,,,D,181,hexagon,1,0,,,3,,,,,,,,,,,,,switch,letter,lettSwt,d,vtsPrac,0,0,0,0,1,0.6806,,,,,,,,,,,,,,,,,,,,,,,
297151,2022-12-06_15h40.16.529,vts_reward_expectancy_bt,2022.2.4,MacIntel,59.99880002,Chrome,1440,900,,,,,0,683,,,,,,,,,,,,,,,,,B,160,triangle,1,0,,,3,,,,,,,,,,,,,repeat,letter,lettRpt,d,vtsPrac,1,0,1,0,1,0.5463,,,,,,,,,,,,,,,,,,,,,,,
297151,2022-12-06_15h40.16.529,vts_reward_expectancy_bt,2022.2.4,MacIntel,59.99880002,Chrome,1440,900,,,,,0,683,,,,,,,,,,,,,,,,,U,125,hexagon,1,0,,,3,,,,,,,,,,,,,switch,number,numSwt,j,vtsPrac,2,0,2,0,1,0.5043,,,,,,,,,,,,,,,,,,,,,,,
297151,2022-12-06_15h40.16.529,vts_reward_expectancy_bt,2022.2.4,MacIntel,59.99880002,Chrome,1440,900,,,,,0,683,,,,,,,,,,,,,,,,,S,132,triangle,1,0,,,3,,,,,,,,,,,,,switch,letter,lettSwt,f,vtsPrac,3,0,3,0,1,0.5801,,,,,,,,,,,,,,,,,,,,,,,
297151,2022-12-06_15h40.16.529,vts_reward_expectancy_bt,2022.2.4,MacIntel,59.99880002,Chrome,1440,900,,,,,0,683,,,,,,,,,,,,,,,,,D,181,circle,1,0,,,3,,,,,,,,,,,,,switch,number,numSwt,k,vtsPrac,4,0,4,0,1,0.6625,,,,,,,,,,,,,,,,,,,,,,,
297151,2022-12-06_15h40.16.529,vts_reward_expectancy_bt,2022.2.4,MacIntel,59.99880002,Chrome,1440,900,,,,,0,683,,,,,,,,,,,,,,,,,B,160,star,1,0,,,3,,,,,,,,,,,,,repeat,number,numRpt,k,vtsPrac,5,0,5,0,1,0.5346,,,,,,,,,,,,,,,,,,,,,,,
297151,2022-12-06_15h40.16.529,vts_reward_expectancy_bt,2022.2.4,MacIntel,59.99880002,Chrome,1440,900,,,,,0,683,,,,,,,,,,,,,,,,,U,125,hexagon,1,0,,,3,,,,,,,,,,,,,repeat,number,numRpt,j,vtsPrac,6,0,6,0,1,0.521,,,,,,,,,,,,,,,,,,,,,,,
297151,2022-12-06_15h40.16.529,vts_reward_expectancy_bt,2022.2.4,MacIntel,59.99880002,Chrome,1440,900,,,,,0,683,,,,,,,,,,,,,,,,,S,132,circle,1,0,,,3,,,,,,,,,,,,,switch,letter,lettSwt,f,vtsPrac,7,0,7,0,1,0.6477,,,,,,,,,,,,,,,,,,,,,,,
297151,2022-12-06_15h40.16.529,vts_reward_expectancy_bt,2022.2.4,MacIntel,59.99880002,Chrome,1440,900,,,,,0,683,,,,,,,,,,,,,,,,,Y,132,circle,1,0,,,3,,,,,,,,,,,,,repeat,letter,lettRpt,f,vtsPrac,8,0,8,0,1,0.5238,,,,,,,,,,,,,,,,,,,,,,,
297151,2022-12-06_15h40.16.529,vts_reward_expectancy_bt,2022.2.4,MacIntel,59.99880002,Chrome,1440,900,,,,,0,683,,,,,,,,,,,,,,,,,W,174,hexagon,1,0,,,3,,,,,,,,,,,,,switch,number,numSwt,k,vtsPrac,9,0,9,0,1,0.4612,,,,,,,,,,,,,,,,,,,,,,,
297151,2022-12-06_15h40.16.529,vts_reward_expectancy_bt,2022.2.4,MacIntel,59.99880002,Chrome,1440,900,,,,,0,683,,,,,,,,,,,,,,,,,B,160,hexagon,1,0,,,3,,,,,,,,,,,,,repeat,number,numRpt,k,vtsPrac,10,0,10,0,1,0.6636,,,,,,,,,,,,,,,,,,,,,,,
297151,2022-12-06_15h40.16.529,vts_reward_expectancy_bt,2022.2.4,MacIntel,59.99880002,Chrome,1440,900,,,,,0,683,,,,,,,,,,,,,,,,,U,146,circle,1,0,,,3,,,,,,,,,,,,,switch,letter,lettSwt,f,vtsPrac,11,0,11,0,1,0.5648,,,,,,,,,,,,,,,,,,,,,,,
297151,2022-12-06_15h40.16.529,vts_reward_expectancy_bt,2022.2.4,MacIntel,59.99880002,Chrome,1440,900,,,,,0,683,,,,,,,,,,,,,,,,,D,125,triangle,0,0,,,3,,,,,,,,,,,,,switch,number,NA,k,vtsPrac,12,0,12,0,1,0.647,,,,,,,,,,,,,,,,,,,,,,,
297151,2022-12-06_15h40.16.529,vts_reward_expectancy_bt,2022.2.4,MacIntel,59.99880002,Chrome,1440,900,,,,,0,683,,,,,,,,,,,,,,,,,Y,181,hexagon,1,1,,,3,,,,,,,,,,,,,repeat,number,numRpt,k,vtsPrac,13,0,13,0,1,0.9625,,,,,,,,,,,,,,,,,,,,,,,
297151,2022-12-06_15h40.16.529,vts_reward_expectancy_bt,2022.2.4,MacIntel,59.99880002,Chrome,1440,900,,,,,0,683,,,,,,,,,,,,,,,,,H,167,hexagon,1,0,,,3,,,,,,,,,,,,,switch,letter,lettSwt,d,vtsPrac,14,0,14,0,1,0.797,,,,,,,,,,,,,,,,,,,,,,,
297151,2022-12-06_15h40.16.529,vts_reward_expectancy_bt,2022.2.4,MacIntel,59.99880002,Chrome,1440,900,,,,,0,683,,,,,,,,,,,,,,,,,U,160,star,1,0,,,3,,,,,,,,,,,,,repeat,letter,lettRpt,f,vtsPrac,15,0,15,0,1,0.8816,,,,,,,,,,,,,,,,,,,,,,,
297151,2022-12-06_15h40.16.529,vts_reward_expectancy_bt,2022.2.4,MacIntel,59.99880002,Chrome,1440,900,,,,,0,683,,,,,,,,,,,,,,,,,W,160,circle,1,0,,,3,,,,,,,,,,,,,switch,number,numSwt,k,vtsPrac,16,0,16,0,1,0.8673,,,,,,,,,,,,,,,,,,,,,,,
297151,2022-12-06_15h40.16.529,vts_reward_expectancy_bt,2022.2.4,MacIntel,59.99880002,Chrome,1440,900,,,,,0,683,,,,,,,,,,,,,,,,,U,132,hexagon,1,0,,,3,,,,,,,,,,,,,repeat,number,numRpt,j,vtsPrac,17,0,17,0,1,0.627,,,,,,,,,,,,,,,,,,,,,,,
297151,2022-12-06_15h40.16.529,vts_reward_expectancy_bt,2022.2.4,MacIntel,59.99880002,Chrome,1440,900,,,,,0,683,,,,,,,,,,,,,,,,,F,181,hexagon,1,0,,,3,,,,,,,,,,,,,repeat,number,numRpt,k,vtsPrac,18,0,18,0,1,0.8639,,,,,,,,,,,,,,,,,,,,,,,
297151,2022-12-06_15h40.16.529,vts_reward_expectancy_bt,2022.2.4,MacIntel,59.99880002,Chrome,1440,900,,,,,0,683,,,,,,,,,,,,,,,,,H,167,circle,1,0,,,3,,,,,,,,,,,,,switch,letter,lettSwt,d,vtsPrac,19,0,19,0,1,0.6642,,,,,,,,,,,,,,,,,,,,,,,
297151,2022-12-06_15h40.16.529,vts_reward_expectancy_bt,2022.2.4,MacIntel,59.99880002,Chrome,1440,900,,,,,0,683,,,,,,,,,,,,,,,,,B,132,triangle,1,0,,,3,,,,,,,,,,,,,repeat,letter,lettRpt,d,vtsPrac,20,0,20,0,1,0.469,,,,,,,,,,,,,,,,,,,,,,,
297151,2022-12-06_15h40.16.529,vts_reward_expectancy_bt,2022.2.4,MacIntel,59.99880002,Chrome,1440,900,,,,,0,683,,,,,,,,,,,,,,,,,H,146,star,1,0,,,3,,,,,,,,,,,,,repeat,letter,lettRpt,d,vtsPrac,21,0,21,0,1,0.686,,,,,,,,,,,,,,,,,,,,,,,
297151,2022-12-06_15h40.16.529,vts_reward_expectancy_bt,2022.2.4,MacIntel,59.99880002,Chrome,1440,900,,,,,0,683,,,,,,,,,,,,,,,,,Y,174,hexagon,1,0,,,3,,,,,,,,,,,,,switch,number,numSwt,k,vtsPrac,22,0,22,0,1,0.636,,,,,,,,,,,,,,,,,,,,,,,
297151,2022-12-06_15h40.16.529,vts_reward_expectancy_bt,2022.2.4,MacIntel,59.99880002,Chrome,1440,900,,,,,0,683,,,,,,,,,,,,,,,,,F,167,circle,1,0,,,3,,,,,,,,,,,,,switch,letter,lettSwt,d,vtsPrac,23,0,23,0,1,0.5642,,,,,,,,,,,,,,,,,,,,,,,
297151,2022-12-06_15h40.16.529,vts_reward_expectancy_bt,2022.2.4,MacIntel,59.99880002,Chrome,1440,900,,,,,0,683,,,,,,,,,,,,,,,,,U,160,circle,1,0,,,3,,,,,,,,,,,,,repeat,letter,lettRpt,f,vtsPrac,24,0,24,0,1,0.6294,,,,,,,,,,,,,,,,,,,,,,,
297151,2022-12-06_15h40.16.529,vts_reward_expectancy_bt,2022.2.4,MacIntel,59.99880002,Chrome,1440,900,,,,,0,683,,,,,,,,,,,,,,,,,D,174,hexagon,1,0,,,3,,,,,,,,,,,,,repeat,letter,lettRpt,d,vtsPrac,25,0,25,0,1,0.6639,,,,,,,,,,,,,,,,,,,,,,,
297151,2022-12-06_15h40.16.529,vts_reward_expectancy_bt,2022.2.4,MacIntel,59.99880002,Chrome,1440,900,,,,,0,683,,,,,,,,,,,,,,,,,F,167,triangle,1,0,,,3,,,,,,,,,,,,,switch,number,numSwt,k,vtsPrac,26,0,26,0,1,0.7781,,,,,,,,,,,,,,,,,,,,,,,
297151,2022-12-06_15h40.16.529,vts_reward_expectancy_bt,2022.2.4,MacIntel,59.99880002,Chrome,1440,900,,,,,0,683,,,,,,,,,,,,,,,,,B,125,star,1,0,,,3,,,,,,,,,,,,,switch,letter,lettSwt,d,vtsPrac,27,0,27,0,1,0.6263,,,,,,,,,,,,,,,,,,,,,,,
297151,2022-12-06_15h40.16.529,vts_reward_expectancy_bt,2022.2.4,MacIntel,59.99880002,Chrome,1440,900,,,,,0,683,,,,,,,,,,,,,,,,,W,167,star,1,0,,,3,,,,,,,,,,,,,switch,number,numSwt,k,vtsPrac,28,0,28,0,1,0.9298,,,,,,,,,,,,,,,,,,,,,,,
297151,2022-12-06_15h40.16.529,vts_reward_expectancy_bt,2022.2.4,MacIntel,59.99880002,Chrome,1440,900,,,,,0,683,,,,,,,,,,,,,,,,,Y,174,hexagon,1,0,,,3,,,,,,,,,,,,,repeat,number,numRpt,k,vtsPrac,29,0,29,0,1,0.6861,,,,,,,,,,,,,,,,,,,,,,,
297151,2022-12-06_15h40.16.529,vts_reward_expectancy_bt,2022.2.4,MacIntel,59.99880002,Chrome,1440,900,,,,,0,683,,,,,,,,,,,,,,,,,S,139,star,1,0,,,3,,,,,,,,,,,,,repeat,number,numRpt,j,vtsPrac,30,0,30,0,1,0.5767,,,,,,,,,,,,,,,,,,,,,,,
297151,2022-12-06_15h40.16.529,vts_reward_expectancy_bt,2022.2.4,MacIntel,59.99880002,Chrome,1440,900,,,,,0,683,,,,,,,,,,,,,,,,,B,146,triangle,1,0,,,3,,,,,,,,,,,,,switch,letter,lettSwt,d,vtsPrac,31,0,31,0,1,0.6144,,,,,,,,,,,,,,,,,,,,,,,
297151,2022-12-06_15h40.16.529,vts_reward_expectancy_bt,2022.2.4,MacIntel,59.99880002,Chrome,1440,900,,,,,,,,,,,,,,,,,,,,,,,,,,,,,,,,,,,,,,,,,,,,,,,,,,,,,,,,,,,,,,,,,,,,,,,,,,,,
297151,2022-12-06_15h40.16.529,vts_reward_expectancy_bt,2022.2.4,MacIntel,59.99880002,Chrome,1440,900,,,,,,,,,,,,,,,,,,,,,,,,,,,,,,,,,,,,,,,,,,,,,,,,,,,,,,,,,,,,,,,,,,,,,,,,,,,,
297151,2022-12-06_15h40.16.529,vts_reward_expectancy_bt,2022.2.4,MacIntel,59.99880002,Chrome,1440,900,,,,,0,683,,,,,,,,,,,,,,,,,W,146,triangle,1,0,,,,,,,,,,,,,,,,repeat,letter,lettRpt,f,noRew,,,,,,0.9781,0,0,0,0,0,1,,,,,,,,,,,,,,,,,
297151,2022-12-06_15h40.16.529,vts_reward_expectancy_bt,2022.2.4,MacIntel,59.99880002,Chrome,1440,900,,,,,0,683,,,,,,,,,,,,,,,,,Y,167,hexagon,1,0,,,,,,,,,,,,,,,,switch,number,numSwt,k,noRew,,,,,,0.7351,0,1,0,1,0,1,,,,,,,,,,,,,,,,,
297151,2022-12-06_15h40.16.529,vts_reward_expectancy_bt,2022.2.4,MacIntel,59.99880002,Chrome,1440,900,,,,,0,683,,,,,,,,,,,,,,,,,S,160,triangle,1,0,,,,,,,,,,,,,,,,switch,letter,lettSwt,f,noRew,,,,,,0.7632,0,2,0,2,0,1,,,,,,,,,,,,,,,,,
297151,2022-12-06_15h40.16.529,vts_reward_expectancy_bt,2022.2.4,MacIntel,59.99880002,Chrome,1440,900,,,,,0,683,,,,,,,,,,,,,,,,,D,132,hexagon,1,0,,,,,,,,,,,,,,,,switch,number,numSwt,j,noRew,,,,,,0.8032,0,3,0,3,0,1,,,,,,,,,,,,,,,,,
297151,2022-12-06_15h40.16.529,vts_reward_expectancy_bt,2022.2.4,MacIntel,59.99880002,Chrome,1440,900,,,,,0,683,,,,,,,,,,,,,,,,,W,146,star,1,0,,,,,,,,,,,,,,,,switch,letter,lettSwt,f,noRew,,,,,,0.702,0,4,0,4,0,1,,,,,,,,,,,,,,,,,
297151,2022-12-06_15h40.16.529,vts_reward_expectancy_bt,2022.2.4,MacIntel,59.99880002,Chrome,1440,900,,,,,0,683,,,,,,,,,,,,,,,,,Y,167,circle,1,0,,,,,,,,,,,,,,,,repeat,letter,lettRpt,f,noRew,,,,,,0.4697,0,5,0,5,0,1,,,,,,,,,,,,,,,,,
297151,2022-12-06_15h40.16.529,vts_reward_expectancy_bt,2022.2.4,MacIntel,59.99880002,Chrome,1440,900,,,,,0,683,,,,,,,,,,,,,,,,,S,160,circle,1,0,,,,,,,,,,,,,,,,switch,number,numSwt,k,noRew,,,,,,0.6804,0,6,0,6,0,1,,,,,,,,,,,,,,,,,
297151,2022-12-06_15h40.16.529,vts_reward_expectancy_bt,2022.2.4,MacIntel,59.99880002,Chrome,1440,900,,,,,0,683,,,,,,,,,,,,,,,,,D,132,hexagon,1,0,,,,,,,,,,,,,,,,repeat,number,numRpt,j,noRew,,,,,,0.5814,0,7,0,7,0,1,,,,,,,,,,,,,,,,,
297151,2022-12-06_15h40.16.529,vts_reward_expectancy_bt,2022.2.4,MacIntel,59.99880002,Chrome,1440,900,,,,,0,683,,,,,,,,,,,,,,,,,D,125,star,1,0,,,,,,,,,,,,,,,,switch,letter,lettSwt,d,noRew,,,,,,0.7519,0,8,0,8,0,1,,,,,,,,,,,,,,,,,
297151,2022-12-06_15h40.16.529,vts_reward_expectancy_bt,2022.2.4,MacIntel,59.99880002,Chrome,1440,900,,,,,0,683,,,,,,,,,,,,,,,,,U,167,triangle,1,0,,,,,,,,,,,,,,,,switch,number,numSwt,k,noRew,,,,,,0.5511,0,9,0,9,0,1,,,,,,,,,,,,,,,,,
297151,2022-12-06_15h40.16.529,vts_reward_expectancy_bt,2022.2.4,MacIntel,59.99880002,Chrome,1440,900,,,,,0,683,,,,,,,,,,,,,,,,,S,146,triangle,1,0,,,,,,,,,,,,,,,,repeat,number,numRpt,j,noRew,,,,,,0.6147,0,10,0,10,0,1,,,,,,,,,,,,,,,,,
297151,2022-12-06_15h40.16.529,vts_reward_expectancy_bt,2022.2.4,MacIntel,59.99880002,Chrome,1440,900,,,,,0,683,,,,,,,,,,,,,,,,,H,139,star,1,0,,,,,,,,,,,,,,,,switch,letter,lettSwt,d,noRew,,,,,,0.6323,0,11,0,11,0,1,,,,,,,,,,,,,,,,,
297151,2022-12-06_15h40.16.529,vts_reward_expectancy_bt,2022.2.4,MacIntel,59.99880002,Chrome,1440,900,,,,,0,683,,,,,,,,,,,,,,,,,F,160,hexagon,1,0,,,,,,,,,,,,,,,,switch,number,numSwt,k,noRew,,,,,,0.5979,0,12,0,12,0,1,,,,,,,,,,,,,,,,,
297151,2022-12-06_15h40.16.529,vts_reward_expectancy_bt,2022.2.4,MacIntel,59.99880002,Chrome,1440,900,,,,,0,683,,,,,,,,,,,,,,,,,S,125,triangle,1,0,,,,,,,,,,,,,,,,switch,letter,lettSwt,f,noRew,,,,,,0.5847,0,13,0,13,0,1,,,,,,,,,,,,,,,,,
297151,2022-12-06_15h40.16.529,vts_reward_expectancy_bt,2022.2.4,MacIntel,59.99880002,Chrome,1440,900,,,,,0,683,,,,,,,,,,,,,,,,,H,146,star,1,0,,,,,,,,,,,,,,,,switch,number,numSwt,j,noRew,,,,,,0.4755,0,14,0,14,0,1,,,,,,,,,,,,,,,,,
297151,2022-12-06_15h40.16.529,vts_reward_expectancy_bt,2022.2.4,MacIntel,59.99880002,Chrome,1440,900,,,,,0,683,,,,,,,,,,,,,,,,,Y,181,triangle,1,0,,,,,,,,,,,,,,,,switch,letter,lettSwt,f,noRew,,,,,,1.2643,0,15,0,15,0,1,,,,,,,,,,,,,,,,,
297151,2022-12-06_15h40.16.529,vts_reward_expectancy_bt,2022.2.4,MacIntel,59.99880002,Chrome,1440,900,,,,,0,683,,,,,,,,,,,,,,,,,D,174,circle,1,0,,,,,,,,,,,,,,,,switch,number,numSwt,k,noRew,,,,,,0.7634,0,16,0,16,0,1,,,,,,,,,,,,,,,,,
297151,2022-12-06_15h40.16.529,vts_reward_expectancy_bt,2022.2.4,MacIntel,59.99880002,Chrome,1440,900,,,,,0,683,,,,,,,,,,,,,,,,,H,139,star,1,0,,,,,,,,,,,,,,,,repeat,number,numRpt,j,noRew,,,,,,0.6633,0,17,0,17,0,1,,,,,,,,,,,,,,,,,
297151,2022-12-06_15h40.16.529,vts_reward_expectancy_bt,2022.2.4,MacIntel,59.99880002,Chrome,1440,900,,,,,0,683,,,,,,,,,,,,,,,,,W,125,triangle,1,0,,,,,,,,,,,,,,,,switch,letter,lettSwt,f,noRew,,,,,,0.829,0,18,0,18,0,1,,,,,,,,,,,,,,,,,
297151,2022-12-06_15h40.16.529,vts_reward_expectancy_bt,2022.2.4,MacIntel,59.99880002,Chrome,1440,900,,,,,0,683,,,,,,,,,,,,,,,,,U,160,circle,1,0,,,,,,,,,,,,,,,,repeat,letter,lettRpt,f,noRew,,,,,,1.1282,0,19,0,19,0,1,,,,,,,,,,,,,,,,,
297151,2022-12-06_15h40.16.529,vts_reward_expectancy_bt,2022.2.4,MacIntel,59.99880002,Chrome,1440,900,,,,,0,683,,,,,,,,,,,,,,,,,D,181,circle,1,0,,,,,,,,,,,,,,,,repeat,letter,lettRpt,d,noRew,,,,,,0.697,0,20,0,20,0,1,,,,,,,,,,,,,,,,,
297151,2022-12-06_15h40.16.529,vts_reward_expectancy_bt,2022.2.4,MacIntel,59.99880002,Chrome,1440,900,,,,,0,683,,,,,,,,,,,,,,,,,H,174,triangle,1,0,,,,,,,,,,,,,,,,repeat,letter,lettRpt,d,noRew,,,,,,0.6269,0,21,0,21,0,1,,,,,,,,,,,,,,,,,
297151,2022-12-06_15h40.16.529,vts_reward_expectancy_bt,2022.2.4,MacIntel,59.99880002,Chrome,1440,900,,,,,0,683,,,,,,,,,,,,,,,,,S,125,circle,1,0,,,,,,,,,,,,,,,,switch,number,numSwt,j,noRew,,,,,,0.7977,0,22,0,22,0,1,,,,,,,,,,,,,,,,,
297151,2022-12-06_15h40.16.529,vts_reward_expectancy_bt,2022.2.4,MacIntel,59.99880002,Chrome,1440,900,,,,,0,683,,,,,,,,,,,,,,,,,W,139,hexagon,1,0,,,,,,,,,,,,,,,,switch,letter,lettSwt,f,noRew,,,,,,0.662,0,23,0,23,0,1,,,,,,,,,,,,,,,,,
297151,2022-12-06_15h40.16.529,vts_reward_expectancy_bt,2022.2.4,MacIntel,59.99880002,Chrome,1440,900,,,,,0,683,,,,,,,,,,,,,,,,,Y,125,star,1,0,,,,,,,,,,,,,,,,repeat,letter,lettRpt,f,noRew,,,,,,0.7971,0,24,0,24,0,1,,,,,,,,,,,,,,,,,
297151,2022-12-06_15h40.16.529,vts_reward_expectancy_bt,2022.2.4,MacIntel,59.99880002,Chrome,1440,900,,,,,0,683,,,,,,,,,,,,,,,,,U,181,triangle,1,0,,,,,,,,,,,,,,,,switch,number,numSwt,k,noRew,,,,,,0.8802,0,25,0,25,0,1,,,,,,,,,,,,,,,,,
297151,2022-12-06_15h40.16.529,vts_reward_expectancy_bt,2022.2.4,MacIntel,59.99880002,Chrome,1440,900,,,,,0,683,,,,,,,,,,,,,,,,,F,146,star,1,0,,,,,,,,,,,,,,,,repeat,number,numRpt,j,noRew,,,,,,0.9376,0,26,0,26,0,1,,,,,,,,,,,,,,,,,
297151,2022-12-06_15h40.16.529,vts_reward_expectancy_bt,2022.2.4,MacIntel,59.99880002,Chrome,1440,900,,,,,0,683,,,,,,,,,,,,,,,,,H,174,circle,1,0,,,,,,,,,,,,,,,,switch,letter,lettSwt,d,noRew,,,,,,1.0082,0,27,0,27,0,1,,,,,,,,,,,,,,,,,
297151,2022-12-06_15h40.16.529,vts_reward_expectancy_bt,2022.2.4,MacIntel,59.99880002,Chrome,1440,900,,,,,0,683,,,,,,,,,,,,,,,,,D,160,triangle,1,0,,,,,,,,,,,,,,,,switch,number,numSwt,k,noRew,,,,,,1.2823,0,28,0,28,0,1,,,,,,,,,,,,,,,,,
297151,2022-12-06_15h40.16.529,vts_reward_expectancy_bt,2022.2.4,MacIntel,59.99880002,Chrome,1440,900,,,,,0,683,,,,,,,,,,,,,,,,,W,132,circle,1,0,,,,,,,,,,,,,,,,switch,letter,lettSwt,f,noRew,,,,,,1.1976,0,29,0,29,0,1,,,,,,,,,,,,,,,,,
297151,2022-12-06_15h40.16.529,vts_reward_expectancy_bt,2022.2.4,MacIntel,59.99880002,Chrome,1440,900,,,,,0,683,,,,,,,,,,,,,,,,,U,139,star,1,0,,,,,,,,,,,,,,,,repeat,letter,lettRpt,f,noRew,,,,,,1.1975,0,30,0,30,0,1,,,,,,,,,,,,,,,,,
297151,2022-12-06_15h40.16.529,vts_reward_expectancy_bt,2022.2.4,MacIntel,59.99880002,Chrome,1440,900,,,,,0,683,,,,,,,,,,,,,,,,,Y,146,triangle,1,0,,,,,,,,,,,,,,,,switch,number,numSwt,j,noRew,,,,,,0.9137,0,31,0,31,0,1,,,,,,,,,,,,,,,,,
297151,2022-12-06_15h40.16.529,vts_reward_expectancy_bt,2022.2.4,MacIntel,59.99880002,Chrome,1440,900,,,,,0,683,,,,,,,,,,,,,,,,,S,146,star,1,0,,,,,,,,,,,,,,,,repeat,number,numRpt,j,noRew,,,,,,0.9354,0,32,0,32,0,1,,,,,,,,,,,,,,,,,
297151,2022-12-06_15h40.16.529,vts_reward_expectancy_bt,2022.2.4,MacIntel,59.99880002,Chrome,1440,900,,,,,0,683,,,,,,,,,,,,,,,,,U,132,hexagon,1,0,,,,,,,,,,,,,,,,switch,letter,lettSwt,f,noRew,,,,,,0.8383,0,33,0,33,0,1,,,,,,,,,,,,,,,,,
297151,2022-12-06_15h40.16.529,vts_reward_expectancy_bt,2022.2.4,MacIntel,59.99880002,Chrome,1440,900,,,,,0,683,,,,,,,,,,,,,,,,,B,167,star,1,0,,,,,,,,,,,,,,,,repeat,letter,lettRpt,d,noRew,,,,,,0.8601,0,34,0,34,0,1,,,,,,,,,,,,,,,,,
297151,2022-12-06_15h40.16.529,vts_reward_expectancy_bt,2022.2.4,MacIntel,59.99880002,Chrome,1440,900,,,,,0,683,,,,,,,,,,,,,,,,,H,139,hexagon,1,0,,,,,,,,,,,,,,,,repeat,letter,lettRpt,d,noRew,,,,,,0.7629,0,35,0,35,0,1,,,,,,,,,,,,,,,,,
297151,2022-12-06_15h40.16.529,vts_reward_expectancy_bt,2022.2.4,MacIntel,59.99880002,Chrome,1440,900,,,,,0,683,,,,,,,,,,,,,,,,,H,160,hexagon,1,0,,,,,,,,,,,,,,,,switch,number,numSwt,k,noRew,,,,,,0.8213,0,36,0,36,0,1,,,,,,,,,,,,,,,,,
297151,2022-12-06_15h40.16.529,vts_reward_expectancy_bt,2022.2.4,MacIntel,59.99880002,Chrome,1440,900,,,,,0,683,,,,,,,,,,,,,,,,,S,167,star,1,0,,,,,,,,,,,,,,,,switch,letter,lettSwt,f,noRew,,,,,,0.8818,0,37,0,37,0,1,,,,,,,,,,,,,,,,,
297151,2022-12-06_15h40.16.529,vts_reward_expectancy_bt,2022.2.4,MacIntel,59.99880002,Chrome,1440,900,,,,,0,683,,,,,,,,,,,,,,,,,F,174,circle,1,0,,,,,,,,,,,,,,,,repeat,letter,lettRpt,d,noRew,,,,,,0.9262,0,38,0,38,0,1,,,,,,,,,,,,,,,,,
297151,2022-12-06_15h40.16.529,vts_reward_expectancy_bt,2022.2.4,MacIntel,59.99880002,Chrome,1440,900,,,,,0,683,,,,,,,,,,,,,,,,,W,132,hexagon,1,0,,,,,,,,,,,,,,,,switch,number,numSwt,j,noRew,,,,,,1.0298,0,39,0,39,0,1,,,,,,,,,,,,,,,,,
297151,2022-12-06_15h40.16.529,vts_reward_expectancy_bt,2022.2.4,MacIntel,59.99880002,Chrome,1440,900,,,,,0,683,,,,,,,,,,,,,,,,,U,174,triangle,1,0,,,,,,,,,,,,,,,,repeat,number,numRpt,k,noRew,,,,,,0.7944,0,40,0,40,0,1,,,,,,,,,,,,,,,,,
297151,2022-12-06_15h40.16.529,vts_reward_expectancy_bt,2022.2.4,MacIntel,59.99880002,Chrome,1440,900,,,,,0,683,,,,,,,,,,,,,,,,,D,146,hexagon,1,0,,,,,,,,,,,,,,,,repeat,number,numRpt,j,noRew,,,,,,0.8479,0,41,0,41,0,1,,,,,,,,,,,,,,,,,
297151,2022-12-06_15h40.16.529,vts_reward_expectancy_bt,2022.2.4,MacIntel,59.99880002,Chrome,1440,900,,,,,0,683,,,,,,,,,,,,,,,,,Y,132,circle,1,0,,,,,,,,,,,,,,,,repeat,number,numRpt,j,noRew,,,,,,0.7652,0,42,0,42,0,1,,,,,,,,,,,,,,,,,
297151,2022-12-06_15h40.16.529,vts_reward_expectancy_bt,2022.2.4,MacIntel,59.99880002,Chrome,1440,900,,,,,0,683,,,,,,,,,,,,,,,,,B,167,star,1,0,,,,,,,,,,,,,,,,switch,letter,lettSwt,d,noRew,,,,,,0.6813,0,43,0,43,0,1,,,,,,,,,,,,,,,,,
297151,2022-12-06_15h40.16.529,vts_reward_expectancy_bt,2022.2.4,MacIntel,59.99880002,Chrome,1440,900,,,,,0,683,,,,,,,,,,,,,,,,,W,146,triangle,1,0,,,,,,,,,,,,,,,,repeat,letter,lettRpt,f,noRew,,,,,,0.8127,0,44,0,44,0,1,,,,,,,,,,,,,,,,,
297151,2022-12-06_15h40.16.529,vts_reward_expectancy_bt,2022.2.4,MacIntel,59.99880002,Chrome,1440,900,,,,,0,683,,,,,,,,,,,,,,,,,B,174,hexagon,1,0,,,,,,,,,,,,,,,,switch,number,numSwt,k,noRew,,,,,,0.8152,0,45,0,45,0,1,,,,,,,,,,,,,,,,,
297151,2022-12-06_15h40.16.529,vts_reward_expectancy_bt,2022.2.4,MacIntel,59.99880002,Chrome,1440,900,,,,,0,683,,,,,,,,,,,,,,,,,S,132,star,1,0,,,,,,,,,,,,,,,,switch,letter,lettSwt,f,noRew,,,,,,0.6975,0,46,0,46,0,1,,,,,,,,,,,,,,,,,
297151,2022-12-06_15h40.16.529,vts_reward_expectancy_bt,2022.2.4,MacIntel,59.99880002,Chrome,1440,900,,,,,0,683,,,,,,,,,,,,,,,,,D,181,triangle,1,0,,,,,,,,,,,,,,,,repeat,letter,lettRpt,d,noRew,,,,,,0.6282,0,47,0,47,0,1,,,,,,,,,,,,,,,,,
297151,2022-12-06_15h40.16.529,vts_reward_expectancy_bt,2022.2.4,MacIntel,59.99880002,Chrome,1440,900,,,,,0,683,,,,,,,,,,,,,,,,,U,132,circle,1,0,,,,,,,,,,,,,,,,repeat,letter,lettRpt,f,noRew,,,,,,0.6666,0,48,0,48,0,1,,,,,,,,,,,,,,,,,
297151,2022-12-06_15h40.16.529,vts_reward_expectancy_bt,2022.2.4,MacIntel,59.99880002,Chrome,1440,900,,,,,0,683,,,,,,,,,,,,,,,,,Y,174,triangle,1,0,,,,,,,,,,,,,,,,switch,number,numSwt,k,noRew,,,,,,0.6975,0,49,0,49,0,1,,,,,,,,,,,,,,,,,
297151,2022-12-06_15h40.16.529,vts_reward_expectancy_bt,2022.2.4,MacIntel,59.99880002,Chrome,1440,900,,,,,0,683,,,,,,,,,,,,,,,,,B,181,circle,1,0,,,,,,,,,,,,,,,,repeat,number,numRpt,k,noRew,,,,,,0.7453,0,50,0,50,0,1,,,,,,,,,,,,,,,,,
297151,2022-12-06_15h40.16.529,vts_reward_expectancy_bt,2022.2.4,MacIntel,59.99880002,Chrome,1440,900,,,,,0,683,,,,,,,,,,,,,,,,,F,146,hexagon,1,0,,,,,,,,,,,,,,,,repeat,number,numRpt,j,noRew,,,,,,0.6476,0,51,0,51,0,1,,,,,,,,,,,,,,,,,
297151,2022-12-06_15h40.16.529,vts_reward_expectancy_bt,2022.2.4,MacIntel,59.99880002,Chrome,1440,900,,,,,0,683,,,,,,,,,,,,,,,,,D,132,star,1,0,,,,,,,,,,,,,,,,switch,letter,lettSwt,d,noRew,,,,,,1.0435,0,52,0,52,0,1,,,,,,,,,,,,,,,,,
297151,2022-12-06_15h40.16.529,vts_reward_expectancy_bt,2022.2.4,MacIntel,59.99880002,Chrome,1440,900,,,,,0,683,,,,,,,,,,,,,,,,,W,167,circle,1,0,,,,,,,,,,,,,,,,repeat,letter,lettRpt,f,noRew,,,,,,0.6509,0,53,0,53,0,1,,,,,,,,,,,,,,,,,
297151,2022-12-06_15h40.16.529,vts_reward_expectancy_bt,2022.2.4,MacIntel,59.99880002,Chrome,1440,900,,,,,0,683,,,,,,,,,,,,,,,,,H,125,circle,0,0,,,,,,,,,,,,,,,,repeat,letter,NA,f,noRew,,,,,,0.8691,0,54,0,54,0,1,,,,,,,,,,,,,,,,,
297151,2022-12-06_15h40.16.529,vts_reward_expectancy_bt,2022.2.4,MacIntel,59.99880002,Chrome,1440,900,,,,,0,683,,,,,,,,,,,,,,,,,F,139,triangle,1,1,,,,,,,,,,,,,,,,switch,number,numSwt,j,noRew,,,,,,0.8544,0,55,0,55,0,1,,,,,,,,,,,,,,,,,
297151,2022-12-06_15h40.16.529,vts_reward_expectancy_bt,2022.2.4,MacIntel,59.99880002,Chrome,1440,900,,,,,0,683,,,,,,,,,,,,,,,,,B,132,hexagon,1,0,,,,,,,,,,,,,,,,switch,letter,lettSwt,d,noRew,,,,,,0.5303,0,56,0,56,0,1,,,,,,,,,,,,,,,,,
297151,2022-12-06_15h40.16.529,vts_reward_expectancy_bt,2022.2.4,MacIntel,59.99880002,Chrome,1440,900,,,,,0,683,,,,,,,,,,,,,,,,,D,146,circle,1,0,,,,,,,,,,,,,,,,repeat,letter,lettRpt,d,noRew,,,,,,0.8839,0,57,0,57,0,1,,,,,,,,,,,,,,,,,
297151,2022-12-06_15h40.16.529,vts_reward_expectancy_bt,2022.2.4,MacIntel,59.99880002,Chrome,1440,900,,,,,0,683,,,,,,,,,,,,,,,,,F,125,circle,1,0,,,,,,,,,,,,,,,,switch,number,numSwt,j,noRew,,,,,,0.6624,0,58,0,58,0,1,,,,,,,,,,,,,,,,,
297151,2022-12-06_15h40.16.529,vts_reward_expectancy_bt,2022.2.4,MacIntel,59.99880002,Chrome,1440,900,,,,,0,683,,,,,,,,,,,,,,,,,U,167,hexagon,1,0,,,,,,,,,,,,,,,,switch,letter,lettSwt,f,noRew,,,,,,1.1463,0,59,0,59,0,1,,,,,,,,,,,,,,,,,
297151,2022-12-06_15h40.16.529,vts_reward_expectancy_bt,2022.2.4,MacIntel,59.99880002,Chrome,1440,900,,,,,0,683,,,,,,,,,,,,,,,,,U,139,circle,1,0,,,,,,,,,,,,,,,,repeat,letter,lettRpt,f,noRew,,,,,,0.4955,0,60,0,60,0,1,,,,,,,,,,,,,,,,,
297151,2022-12-06_15h40.16.529,vts_reward_expectancy_bt,2022.2.4,MacIntel,59.99880002,Chrome,1440,900,,,,,0,683,,,,,,,,,,,,,,,,,F,125,triangle,1,0,,,,,,,,,,,,,,,,switch,number,numSwt,j,noRew,,,,,,1.1325,0,61,0,61,0,1,,,,,,,,,,,,,,,,,
297151,2022-12-06_15h40.16.529,vts_reward_expectancy_bt,2022.2.4,MacIntel,59.99880002,Chrome,1440,900,,,,,0,683,,,,,,,,,,,,,,,,,Y,181,circle,1,0,,,,,,,,,,,,,,,,switch,letter,lettSwt,f,noRew,,,,,,0.778,0,62,0,62,0,1,,,,,,,,,,,,,,,,,
297151,2022-12-06_15h40.16.529,vts_reward_expectancy_bt,2022.2.4,MacIntel,59.99880002,Chrome,1440,900,,,,,0,683,,,,,,,,,,,,,,,,,W,174,star,1,0,,,,,,,,,,,,,,,,repeat,letter,lettRpt,f,noRew,,,,,,0.8364,0,63,0,63,0,1,,,,,,,,,,,,,,,,,
297151,2022-12-06_15h40.16.529,vts_reward_expectancy_bt,2022.2.4,MacIntel,59.99880002,Chrome,1440,900,,,,,,,,,,,,,,,,,,,,,,,,,,,,,,,,,,,,,,,,,,,,,,,,,,,,,,,,,,,,,,,,,,,,,,,,,,,,
297151,2022-12-06_15h40.16.529,vts_reward_expectancy_bt,2022.2.4,MacIntel,59.99880002,Chrome,1440,900,,,,,10,693,,,,,,,,,,,,,,,,,Y,160,star,1,0,,,,,,,,,,,,,,,,repeat,letter,lettRpt,f,Lo,,,,,,0.8977,0,,,,,,space,1.4231,high,0,0,0,0,1,,,,,,,,,
297151,2022-12-06_15h40.16.529,vts_reward_expectancy_bt,2022.2.4,MacIntel,59.99880002,Chrome,1440,900,,,,,1,694,,,,,,,,,,,,,,,,,B,174,hexagon,1,0,,,,,,,,,,,,,,,,switch,number,numSwt,k,Lo,,,,,,0.7685,0,,,,,,,,high,1,0,1,0,1,,,,,,,,,
297151,2022-12-06_15h40.16.529,vts_reward_expectancy_bt,2022.2.4,MacIntel,59.99880002,Chrome,1440,900,,,,,0,694,,,,,,,,,,,,,,,,,F,181,circle,1,0,,,,,,,,,,,,,,,,switch,letter,lettSwt,d,Hi,,,,,,0.8856,0,,,,,,,,high,2,0,2,0,1,,,,,,,,,
297151,2022-12-06_15h40.16.529,vts_reward_expectancy_bt,2022.2.4,MacIntel,59.99880002,Chrome,1440,900,,,,,10,704,,,,,,,,,,,,,,,,,S,125,triangle,1,0,,,,,,,,,,,,,,,,repeat,letter,lettRpt,f,Hi,,,,,,0.5198,0,,,,,,,,high,3,0,3,0,1,,,,,,,,,
297151,2022-12-06_15h40.16.529,vts_reward_expectancy_bt,2022.2.4,MacIntel,59.99880002,Chrome,1440,900,,,,,1,705,,,,,,,,,,,,,,,,,D,132,star,1,0,,,,,,,,,,,,,,,,switch,number,numSwt,j,Lo,,,,,,0.5441,0,,,,,,,,high,4,0,4,0,1,,,,,,,,,
297151,2022-12-06_15h40.16.529,vts_reward_expectancy_bt,2022.2.4,MacIntel,59.99880002,Chrome,1440,900,,,,,1,706,,,,,,,,,,,,,,,,,W,139,hexagon,1,0,,,,,,,,,,,,,,,,repeat,number,numRpt,j,Lo,,,,,,0.4492,0,,,,,,,,high,5,0,5,0,1,,,,,,,,,
297151,2022-12-06_15h40.16.529,vts_reward_expectancy_bt,2022.2.4,MacIntel,59.99880002,Chrome,1440,900,,,,,10,716,,,,,,,,,,,,,,,,,U,146,circle,1,0,,,,,,,,,,,,,,,,switch,letter,lettSwt,f,Hi,,,,,,0.5238,0,,,,,,,,high,6,0,6,0,1,,,,,,,,,
297151,2022-12-06_15h40.16.529,vts_reward_expectancy_bt,2022.2.4,MacIntel,59.99880002,Chrome,1440,900,,,,,0,716,,,,,,,,,,,,,,,,,H,167,triangle,0,0,,,,,,,,,,,,,,,,repeat,letter,NA,f,Hi,,,,,,0.4496,0,,,,,,,,high,7,0,7,0,1,,,,,,,,,
297151,2022-12-06_15h40.16.529,vts_reward_expectancy_bt,2022.2.4,MacIntel,59.99880002,Chrome,1440,900,,,,,1,717,,,,,,,,,,,,,,,,,Y,160,star,1,1,,,,,,,,,,,,,,,,repeat,letter,lettRpt,f,Lo,,,,,,0.5471,0,,,,,,,,high,8,0,8,0,1,,,,,,,,,
297151,2022-12-06_15h40.16.529,vts_reward_expectancy_bt,2022.2.4,MacIntel,59.99880002,Chrome,1440,900,,,,,10,727,,,,,,,,,,,,,,,,,B,174,triangle,1,0,,,,,,,,,,,,,,,,switch,number,numSwt,k,Hi,,,,,,0.4969,0,,,,,,,,high,9,0,9,0,1,,,,,,,,,
297151,2022-12-06_15h40.16.529,vts_reward_expectancy_bt,2022.2.4,MacIntel,59.99880002,Chrome,1440,900,,,,,0,727,,,,,,,,,,,,,,,,,F,181,hexagon,0,0,,,,,,,,,,,,,,,,switch,letter,NA,f,Hi,,,,,,0.4314,0,,,,,,,,high,10,0,10,0,1,,,,,,,,,
297151,2022-12-06_15h40.16.529,vts_reward_expectancy_bt,2022.2.4,MacIntel,59.99880002,Chrome,1440,900,,,,,10,737,,,,,,,,,,,,,,,,,S,125,circle,1,1,,,,,,,,,,,,,,,,repeat,letter,lettRpt,f,Hi,,,,,,0.5126,0,,,,,,,,high,11,0,11,0,1,,,,,,,,,
297151,2022-12-06_15h40.16.529,vts_reward_expectancy_bt,2022.2.4,MacIntel,59.99880002,Chrome,1440,900,,,,,10,747,,,,,,,,,,,,,,,,,D,132,triangle,1,0,,,,,,,,,,,,,,,,repeat,letter,lettRpt,d,Hi,,,,,,0.5002,0,,,,,,,,high,12,0,12,0,1,,,,,,,,,
297151,2022-12-06_15h40.16.529,vts_reward_expectancy_bt,2022.2.4,MacIntel,59.99880002,Chrome,1440,900,,,,,10,757,,,,,,,,,,,,,,,,,W,139,circle,1,0,,,,,,,,,,,,,,,,repeat,letter,lettRpt,f,Hi,,,,,,0.5613,0,,,,,,,,high,13,0,13,0,1,,,,,,,,,
297151,2022-12-06_15h40.16.529,vts_reward_expectancy_bt,2022.2.4,MacIntel,59.99880002,Chrome,1440,900,,,,,1,758,,,,,,,,,,,,,,,,,U,146,star,1,0,,,,,,,,,,,,,,,,repeat,letter,lettRpt,f,Lo,,,,,,0.5596,0,,,,,,,,high,14,0,14,0,1,,,,,,,,,
297151,2022-12-06_15h40.16.529,vts_reward_expectancy_bt,2022.2.4,MacIntel,59.99880002,Chrome,1440,900,,,,,1,759,,,,,,,,,,,,,,,,,H,167,hexagon,1,0,,,,,,,,,,,,,,,,repeat,letter,lettRpt,d,Lo,,,,,,0.5763,0,,,,,,,,high,15,0,15,0,1,,,,,,,,,
297151,2022-12-06_15h40.16.529,vts_reward_expectancy_bt,2022.2.4,MacIntel,59.99880002,Chrome,1440,900,,,,,1,760,,,,,,,,,,,,,,,,,F,132,hexagon,1,0,,,,,,,,,,,,,,,,repeat,letter,lettRpt,d,Lo,,,,,,0.5286,0,,,,,,,,high,16,0,16,0,1,,,,,,,,,
297151,2022-12-06_15h40.16.529,vts_reward_expectancy_bt,2022.2.4,MacIntel,59.99880002,Chrome,1440,900,,,,,1,761,,,,,,,,,,,,,,,,,B,139,star,1,0,,,,,,,,,,,,,,,,repeat,letter,lettRpt,d,Lo,,,,,,0.4474,0,,,,,,,,high,17,0,17,0,1,,,,,,,,,
297151,2022-12-06_15h40.16.529,vts_reward_expectancy_bt,2022.2.4,MacIntel,59.99880002,Chrome,1440,900,,,,,10,771,,,,,,,,,,,,,,,,,W,174,circle,1,0,,,,,,,,,,,,,,,,repeat,letter,lettRpt,f,Hi,,,,,,0.5343,0,,,,,,,,high,18,0,18,0,1,,,,,,,,,
297151,2022-12-06_15h40.16.529,vts_reward_expectancy_bt,2022.2.4,MacIntel,59.99880002,Chrome,1440,900,,,,,10,781,,,,,,,,,,,,,,,,,Y,125,triangle,1,0,,,,,,,,,,,,,,,,switch,number,numSwt,j,Hi,,,,,,0.4224,0,,,,,,,,high,19,0,19,0,1,,,,,,,,,
297151,2022-12-06_15h40.16.529,vts_reward_expectancy_bt,2022.2.4,MacIntel,59.99880002,Chrome,1440,900,,,,,10,791,,,,,,,,,,,,,,,,,D,181,circle,1,0,,,,,,,,,,,,,,,,switch,letter,lettSwt,d,Hi,,,,,,0.6353,0,,,,,,,,high,20,0,20,0,1,,,,,,,,,
297151,2022-12-06_15h40.16.529,vts_reward_expectancy_bt,2022.2.4,MacIntel,59.99880002,Chrome,1440,900,,,,,1,792,,,,,,,,,,,,,,,,,U,146,star,1,0,,,,,,,,,,,,,,,,switch,number,numSwt,j,Lo,,,,,,0.5807,0,,,,,,,,high,21,0,21,0,1,,,,,,,,,
297151,2022-12-06_15h40.16.529,vts_reward_expectancy_bt,2022.2.4,MacIntel,59.99880002,Chrome,1440,900,,,,,1,793,,,,,,,,,,,,,,,,,S,167,hexagon,1,0,,,,,,,,,,,,,,,,switch,letter,lettSwt,f,Lo,,,,,,0.6666,0,,,,,,,,high,22,0,22,0,1,,,,,,,,,
297151,2022-12-06_15h40.16.529,vts_reward_expectancy_bt,2022.2.4,MacIntel,59.99880002,Chrome,1440,900,,,,,10,803,,,,,,,,,,,,,,,,,H,160,triangle,1,0,,,,,,,,,,,,,,,,repeat,letter,lettRpt,d,Hi,,,,,,0.5466,0,,,,,,,,high,23,0,23,0,1,,,,,,,,,
297151,2022-12-06_15h40.16.529,vts_reward_expectancy_bt,2022.2.4,MacIntel,59.99880002,Chrome,1440,900,,,,,1,804,,,,,,,,,,,,,,,,,H,132,star,1,0,,,,,,,,,,,,,,,,switch,number,numSwt,j,Lo,,,,,,0.3972,0,,,,,,,,high,24,0,24,0,1,,,,,,,,,
297151,2022-12-06_15h40.16.529,vts_reward_expectancy_bt,2022.2.4,MacIntel,59.99880002,Chrome,1440,900,,,,,1,805,,,,,,,,,,,,,,,,,U,125,hexagon,1,0,,,,,,,,,,,,,,,,repeat,number,numRpt,j,Lo,,,,,,0.4343,0,,,,,,,,high,25,0,25,0,1,,,,,,,,,
297151,2022-12-06_15h40.16.529,vts_reward_expectancy_bt,2022.2.4,MacIntel,59.99880002,Chrome,1440,900,,,,,10,815,,,,,,,,,,,,,,,,,Y,167,circle,1,0,,,,,,,,,,,,,,,,switch,letter,lettSwt,f,Hi,,,,,,0.5655,0,,,,,,,,high,26,0,26,0,1,,,,,,,,,
297151,2022-12-06_15h40.16.529,vts_reward_expectancy_bt,2022.2.4,MacIntel,59.99880002,Chrome,1440,900,,,,,10,825,,,,,,,,,,,,,,,,,S,139,triangle,1,0,,,,,,,,,,,,,,,,repeat,letter,lettRpt,f,Hi,,,,,,0.6309,0,,,,,,,,high,27,0,27,0,1,,,,,,,,,
297151,2022-12-06_15h40.16.529,vts_reward_expectancy_bt,2022.2.4,MacIntel,59.99880002,Chrome,1440,900,,,,,10,835,,,,,,,,,,,,,,,,,W,181,triangle,1,0,,,,,,,,,,,,,,,,repeat,letter,lettRpt,f,Hi,,,,,,0.6602,0,,,,,,,,high,28,0,28,0,1,,,,,,,,,
297151,2022-12-06_15h40.16.529,vts_reward_expectancy_bt,2022.2.4,MacIntel,59.99880002,Chrome,1440,900,,,,,10,845,,,,,,,,,,,,,,,,,F,174,circle,1,0,,,,,,,,,,,,,,,,repeat,letter,lettRpt,d,Hi,,,,,,0.528,0,,,,,,,,high,29,0,29,0,1,,,,,,,,,
297151,2022-12-06_15h40.16.529,vts_reward_expectancy_bt,2022.2.4,MacIntel,59.99880002,Chrome,1440,900,,,,,1,846,,,,,,,,,,,,,,,,,B,146,hexagon,1,0,,,,,,,,,,,,,,,,repeat,letter,lettRpt,d,Lo,,,,,,0.4642,0,,,,,,,,high,30,0,30,0,1,,,,,,,,,
297151,2022-12-06_15h40.16.529,vts_reward_expectancy_bt,2022.2.4,MacIntel,59.99880002,Chrome,1440,900,,,,,1,847,,,,,,,,,,,,,,,,,D,160,star,1,0,,,,,,,,,,,,,,,,switch,number,numSwt,k,Lo,,,,,,0.5649,0,,,,,,,,high,31,0,31,0,1,,,,,,,,,
297151,2022-12-06_15h40.16.529,vts_reward_expectancy_bt,2022.2.4,MacIntel,59.99880002,Chrome,1440,900,,,,,0,847,,,,,,,,,,,,,,,,,B,132,circle,1,0,,,,,,,,,,,,,,,,switch,letter,lettSwt,d,Hi,,,,,,0.611,1,,,,,,space,3.8019,high,0,0,0,0,1,,,,,,,,,
297151,2022-12-06_15h40.16.529,vts_reward_expectancy_bt,2022.2.4,MacIntel,59.99880002,Chrome,1440,900,,,,,1,848,,,,,,,,,,,,,,,,,S,181,hexagon,1,0,,,,,,,,,,,,,,,,repeat,letter,lettRpt,f,Lo,,,,,,0.5363,1,,,,,,,,high,1,0,1,0,1,,,,,,,,,
297151,2022-12-06_15h40.16.529,vts_reward_expectancy_bt,2022.2.4,MacIntel,59.99880002,Chrome,1440,900,,,,,10,858,,,,,,,,,,,,,,,,,Y,146,star,1,0,,,,,,,,,,,,,,,,repeat,letter,lettRpt,f,Lo,,,,,,0.5124,1,,,,,,,,high,2,0,2,0,1,,,,,,,,,
297151,2022-12-06_15h40.16.529,vts_reward_expectancy_bt,2022.2.4,MacIntel,59.99880002,Chrome,1440,900,,,,,10,868,,,,,,,,,,,,,,,,,U,125,triangle,1,0,,,,,,,,,,,,,,,,switch,number,numSwt,j,Hi,,,,,,0.4827,1,,,,,,,,high,3,0,3,0,1,,,,,,,,,
297151,2022-12-06_15h40.16.529,vts_reward_expectancy_bt,2022.2.4,MacIntel,59.99880002,Chrome,1440,900,,,,,0,868,,,,,,,,,,,,,,,,,F,167,circle,1,0,,,,,,,,,,,,,,,,switch,letter,lettSwt,d,Hi,,,,,,0.6455,1,,,,,,,,high,4,0,4,0,1,,,,,,,,,
297151,2022-12-06_15h40.16.529,vts_reward_expectancy_bt,2022.2.4,MacIntel,59.99880002,Chrome,1440,900,,,,,1,869,,,,,,,,,,,,,,,,,D,139,hexagon,1,0,,,,,,,,,,,,,,,,repeat,letter,lettRpt,d,Lo,,,,,,0.4187,1,,,,,,,,high,5,0,5,0,1,,,,,,,,,
297151,2022-12-06_15h40.16.529,vts_reward_expectancy_bt,2022.2.4,MacIntel,59.99880002,Chrome,1440,900,,,,,10,879,,,,,,,,,,,,,,,,,W,160,star,1,0,,,,,,,,,,,,,,,,repeat,letter,lettRpt,f,Lo,,,,,,0.5136,1,,,,,,,,high,6,0,6,0,1,,,,,,,,,
297151,2022-12-06_15h40.16.529,vts_reward_expectancy_bt,2022.2.4,MacIntel,59.99880002,Chrome,1440,900,,,,,0,879,,,,,,,,,,,,,,,,,H,174,triangle,1,0,,,,,,,,,,,,,,,,switch,number,numSwt,k,Hi,,,,,,0.5135,1,,,,,,,,high,7,0,7,0,1,,,,,,,,,
297151,2022-12-06_15h40.16.529,vts_reward_expectancy_bt,2022.2.4,MacIntel,59.99880002,Chrome,1440,900,,,,,0,879,,,,,,,,,,,,,,,,,B,132,triangle,1,0,,,,,,,,,,,,,,,,repeat,number,numRpt,j,Hi,,,,,,0.5799,1,,,,,,,,high,8,0,8,0,1,,,,,,,,,
297151,2022-12-06_15h40.16.529,vts_reward_expectancy_bt,2022.2.4,MacIntel,59.99880002,Chrome,1440,900,,,,,1,880,,,,,,,,,,,,,,,,,S,181,star,1,0,,,,,,,,,,,,,,,,repeat,number,numRpt,k,Lo,,,,,,0.5112,1,,,,,,,,high,9,0,9,0,1,,,,,,,,,
297151,2022-12-06_15h40.16.529,vts_reward_expectancy_bt,2022.2.4,MacIntel,59.99880002,Chrome,1440,900,,,,,1,881,,,,,,,,,,,,,,,,,Y,146,hexagon,1,0,,,,,,,,,,,,,,,,switch,letter,lettSwt,f,Lo,,,,,,0.5182,1,,,,,,,,high,10,0,10,0,1,,,,,,,,,
297151,2022-12-06_15h40.16.529,vts_reward_expectancy_bt,2022.2.4,MacIntel,59.99880002,Chrome,1440,900,,,,,0,881,,,,,,,,,,,,,,,,,U,125,circle,1,0,,,,,,,,,,,,,,,,switch,number,numSwt,j,Hi,,,,,,0.5008,1,,,,,,,,high,11,0,11,0,1,,,,,,,,,
297151,2022-12-06_15h40.16.529,vts_reward_expectancy_bt,2022.2.4,MacIntel,59.99880002,Chrome,1440,900,,,,,0,881,,,,,,,,,,,,,,,,,F,167,triangle,1,0,,,,,,,,,,,,,,,,repeat,number,numRpt,k,Hi,,,,,,0.5269,1,,,,,,,,high,12,0,12,0,1,,,,,,,,,
297151,2022-12-06_15h40.16.529,vts_reward_expectancy_bt,2022.2.4,MacIntel,59.99880002,Chrome,1440,900,,,,,1,882,,,,,,,,,,,,,,,,,D,139,star,1,0,,,,,,,,,,,,,,,,repeat,number,numRpt,j,Lo,,,,,,0.458,1,,,,,,,,high,13,0,13,0,1,,,,,,,,,
297151,2022-12-06_15h40.16.529,vts_reward_expectancy_bt,2022.2.4,MacIntel,59.99880002,Chrome,1440,900,,,,,1,883,,,,,,,,,,,,,,,,,W,160,hexagon,1,0,,,,,,,,,,,,,,,,repeat,number,numRpt,k,Lo,,,,,,0.5459,1,,,,,,,,high,14,0,14,0,1,,,,,,,,,
297151,2022-12-06_15h40.16.529,vts_reward_expectancy_bt,2022.2.4,MacIntel,59.99880002,Chrome,1440,900,,,,,0,883,,,,,,,,,,,,,,,,,H,174,circle,1,0,,,,,,,,,,,,,,,,repeat,number,numRpt,k,Hi,,,,,,0.5131,1,,,,,,,,high,15,0,15,0,1,,,,,,,,,
297151,2022-12-06_15h40.16.529,vts_reward_expectancy_bt,2022.2.4,MacIntel,59.99880002,Chrome,1440,900,,,,,0,883,,,,,,,,,,,,,,,,,H,174,circle,1,0,,,,,,,,,,,,,,,,switch,letter,lettSwt,d,Hi,,,,,,0.619,1,,,,,,,,high,16,0,16,0,1,,,,,,,,,
297151,2022-12-06_15h40.16.529,vts_reward_expectancy_bt,2022.2.4,MacIntel,59.99880002,Chrome,1440,900,,,,,1,884,,,,,,,,,,,,,,,,,W,181,hexagon,1,0,,,,,,,,,,,,,,,,repeat,letter,lettRpt,f,Lo,,,,,,0.4552,1,,,,,,,,high,17,0,17,0,1,,,,,,,,,
297151,2022-12-06_15h40.16.529,vts_reward_expectancy_bt,2022.2.4,MacIntel,59.99880002,Chrome,1440,900,,,,,0,884,,,,,,,,,,,,,,,,,S,160,triangle,0,0,,,,,,,,,,,,,,,,switch,number,NA,j,Lo,,,,,,0.1017,1,,,,,,,,high,18,0,18,0,1,,,,,,,,,
297151,2022-12-06_15h40.16.529,vts_reward_expectancy_bt,2022.2.4,MacIntel,59.99880002,Chrome,1440,900,,,,,1,885,,,,,,,,,,,,,,,,,U,167,star,1,1,,,,,,,,,,,,,,,,switch,letter,lettSwt,f,Lo,,,,,,0.0105,1,,,,,,,,high,19,0,19,0,1,,,,,,,,,
297151,2022-12-06_15h40.16.529,vts_reward_expectancy_bt,2022.2.4,MacIntel,59.99880002,Chrome,1440,900,,,,,1,886,,,,,,,,,,,,,,,,,F,139,star,1,0,,,,,,,,,,,,,,,,switch,number,numSwt,j,Lo,,,,,,0.1189,1,,,,,,,,high,20,0,20,0,1,,,,,,,,,
297151,2022-12-06_15h40.16.529,vts_reward_expectancy_bt,2022.2.4,MacIntel,59.99880002,Chrome,1440,900,,,,,10,896,,,,,,,,,,,,,,,,,B,132,triangle,1,0,,,,,,,,,,,,,,,,repeat,number,numRpt,j,Hi,,,,,,0.0011,1,,,,,,,,high,21,0,21,0,1,,,,,,,,,
297151,2022-12-06_15h40.16.529,vts_reward_expectancy_bt,2022.2.4,MacIntel,59.99880002,Chrome,1440,900,,,,,10,906,,,,,,,,,,,,,,,,,D,125,circle,1,0,,,,,,,,,,,,,,,,switch,letter,lettSwt,d,Hi,,,,,,0.0485,1,,,,,,,,high,22,0,22,0,1,,,,,,,,,
297151,2022-12-06_15h40.16.529,vts_reward_expectancy_bt,2022.2.4,MacIntel,59.99880002,Chrome,1440,900,,,,,1,907,,,,,,,,,,,,,,,,,Y,146,hexagon,1,0,,,,,,,,,,,,,,,,switch,number,numSwt,j,Lo,,,,,,0.0285,1,,,,,,,,high,23,0,23,0,1,,,,,,,,,
297151,2022-12-06_15h40.16.529,vts_reward_expectancy_bt,2022.2.4,MacIntel,59.99880002,Chrome,1440,900,,,,,1,908,,,,,,,,,,,,,,,,,D,174,hexagon,1,0,,,,,,,,,,,,,,,,switch,letter,lettSwt,d,Lo,,,,,,0.0659,1,,,,,,,,high,24,0,24,0,1,,,,,,,,,
297151,2022-12-06_15h40.16.529,vts_reward_expectancy_bt,2022.2.4,MacIntel,59.99880002,Chrome,1440,900,,,,,0,908,,,,,,,,,,,,,,,,,W,160,triangle,0,0,,,,,,,,,,,,,,,,switch,number,NA,j,Lo,,,,,,0.0002,1,,,,,,,,high,25,0,25,0,1,,,,,,,,,
297151,2022-12-06_15h40.16.529,vts_reward_expectancy_bt,2022.2.4,MacIntel,59.99880002,Chrome,1440,900,,,,,0,908,,,,,,,,,,,,,,,,,U,167,circle,0,1,,,,,,,,,,,,,,,,repeat,number,NA,j,Lo,,,,,,0.0003,1,,,,,,,,high,26,0,26,0,1,,,,,,,,,
297151,2022-12-06_15h40.16.529,vts_reward_expectancy_bt,2022.2.4,MacIntel,59.99880002,Chrome,1440,900,,,,,1,909,,,,,,,,,,,,,,,,,F,139,star,1,1,,,,,,,,,,,,,,,,repeat,number,numRpt,j,Lo,,,,,,0.0156,1,,,,,,,,high,27,0,27,0,1,,,,,,,,,
297151,2022-12-06_15h40.16.529,vts_reward_expectancy_bt,2022.2.4,MacIntel,59.99880002,Chrome,1440,900,,,,,1,910,,,,,,,,,,,,,,,,,Y,146,star,1,0,,,,,,,,,,,,,,,,repeat,number,numRpt,j,Lo,,,,,,0.0015,1,,,,,,,,high,28,0,28,0,1,,,,,,,,,
297151,2022-12-06_15h40.16.529,vts_reward_expectancy_bt,2022.2.4,MacIntel,59.99880002,Chrome,1440,900,,,,,10,920,,,,,,,,,,,,,,,,,H,132,circle,1,0,,,,,,,,,,,,,,,,switch,letter,lettSwt,d,Hi,,,,,,0.0504,1,,,,,,,,high,29,0,29,0,1,,,,,,,,,
297151,2022-12-06_15h40.16.529,vts_reward_expectancy_bt,2022.2.4,MacIntel,59.99880002,Chrome,1440,900,,,,,0,920,,,,,,,,,,,,,,,,,B,181,triangle,0,0,,,,,,,,,,,,,,,,switch,number,NA,j,Hi,,,,,,0.0655,1,,,,,,,,high,30,0,30,0,1,,,,,,,,,
297151,2022-12-06_15h40.16.529,vts_reward_expectancy_bt,2022.2.4,MacIntel,59.99880002,Chrome,1440,900,,,,,10,930,,,,,,,,,,,,,,,,,S,125,hexagon,1,1,,,,,,,,,,,,,,,,switch,letter,lettSwt,f,Lo,,,,,,0.0293,1,,,,,,,,high,31,0,31,0,1,,,,,,,,,
297151,2022-12-06_15h40.16.529,vts_reward_expectancy_bt,2022.2.4,MacIntel,59.99880002,Chrome,1440,900,,,,,0,930,,,,,,,,,,,,,,,,,Y,160,circle,0,0,,,,,,,,,,,,,,,,switch,number,NA,j,Lo,,,,,,0.0302,2,,,,,,space,3.4193,high,0,0,0,0,1,,,,,,,,,
297151,2022-12-06_15h40.16.529,vts_reward_expectancy_bt,2022.2.4,MacIntel,59.99880002,Chrome,1440,900,,,,,1,931,,,,,,,,,,,,,,,,,S,125,star,1,1,,,,,,,,,,,,,,,,repeat,number,numRpt,j,Lo,,,,,,0.0289,2,,,,,,,,high,1,0,1,0,1,,,,,,,,,
297151,2022-12-06_15h40.16.529,vts_reward_expectancy_bt,2022.2.4,MacIntel,59.99880002,Chrome,1440,900,,,,,10,941,,,,,,,,,,,,,,,,,F,181,triangle,1,0,,,,,,,,,,,,,,,,repeat,number,numRpt,k,Hi,,,,,,0.0003,2,,,,,,,,high,2,0,2,0,1,,,,,,,,,
297151,2022-12-06_15h40.16.529,vts_reward_expectancy_bt,2022.2.4,MacIntel,59.99880002,Chrome,1440,900,,,,,1,942,,,,,,,,,,,,,,,,,H,132,hexagon,1,0,,,,,,,,,,,,,,,,repeat,number,numRpt,j,Lo,,,,,,0.0003,2,,,,,,,,high,3,0,3,0,1,,,,,,,,,
297151,2022-12-06_15h40.16.529,vts_reward_expectancy_bt,2022.2.4,MacIntel,59.99880002,Chrome,1440,900,,,,,0,942,,,,,,,,,,,,,,,,,D,167,circle,0,0,,,,,,,,,,,,,,,,switch,letter,NA,f,Lo,,,,,,0.1698,2,,,,,,,,high,4,0,4,0,1,,,,,,,,,
297151,2022-12-06_15h40.16.529,vts_reward_expectancy_bt,2022.2.4,MacIntel,59.99880002,Chrome,1440,900,,,,,0,942,,,,,,,,,,,,,,,,,B,146,star,0,1,,,,,,,,,,,,,,,,repeat,letter,NA,f,Lo,,,,,,0.0474,2,,,,,,,,high,5,0,5,0,1,,,,,,,,,
297151,2022-12-06_15h40.16.529,vts_reward_expectancy_bt,2022.2.4,MacIntel,59.99880002,Chrome,1440,900,,,,,0,942,,,,,,,,,,,,,,,,,W,139,triangle,0,1,,,,,,,,,,,,,,,,repeat,letter,NA,d,Lo,,,,,,0.0784,2,,,,,,,,high,6,0,6,0,1,,,,,,,,,
297151,2022-12-06_15h40.16.529,vts_reward_expectancy_bt,2022.2.4,MacIntel,59.99880002,Chrome,1440,900,,,,,0,942,,,,,,,,,,,,,,,,,U,174,hexagon,0,1,,,,,,,,,,,,,,,,switch,number,NA,j,Lo,,,,,,0.7935,2,,,,,,,,high,7,0,7,0,1,,,,,,,,,
297151,2022-12-06_15h40.16.529,vts_reward_expectancy_bt,2022.2.4,MacIntel,59.99880002,Chrome,1440,900,,,,,1,943,,,,,,,,,,,,,,,,,Y,160,hexagon,1,1,,,,,,,,,,,,,,,,switch,letter,lettSwt,f,Lo,,,,,,0.0278,2,,,,,,,,high,8,0,8,0,1,,,,,,,,,
297151,2022-12-06_15h40.16.529,vts_reward_expectancy_bt,2022.2.4,MacIntel,59.99880002,Chrome,1440,900,,,,,0,943,,,,,,,,,,,,,,,,,S,125,star,0,0,,,,,,,,,,,,,,,,repeat,letter,NA,d,Lo,,,,,,0.0003,2,,,,,,,,high,9,0,9,0,1,,,,,,,,,
297151,2022-12-06_15h40.16.529,vts_reward_expectancy_bt,2022.2.4,MacIntel,59.99880002,Chrome,1440,900,,,,,0,943,,,,,,,,,,,,,,,,,F,181,circle,0,1,,,,,,,,,,,,,,,,switch,number,NA,j,Lo,,,,,,0.1004,2,,,,,,,,high,10,0,10,0,1,,,,,,,,,
297151,2022-12-06_15h40.16.529,vts_reward_expectancy_bt,2022.2.4,MacIntel,59.99880002,Chrome,1440,900,,,,,10,953,,,,,,,,,,,,,,,,,H,132,triangle,1,1,,,,,,,,,,,,,,,,switch,letter,lettSwt,d,Hi,,,,,,0.0003,2,,,,,,,,high,11,0,11,0,1,,,,,,,,,
297151,2022-12-06_15h40.16.529,vts_reward_expectancy_bt,2022.2.4,MacIntel,59.99880002,Chrome,1440,900,,,,,0,953,,,,,,,,,,,,,,,,,D,167,hexagon,0,0,,,,,,,,,,,,,,,,switch,number,NA,j,Hi,,,,,,0.0453,2,,,,,,,,high,12,0,12,0,1,,,,,,,,,
297151,2022-12-06_15h40.16.529,vts_reward_expectancy_bt,2022.2.4,MacIntel,59.99880002,Chrome,1440,900,,,,,1,954,,,,,,,,,,,,,,,,,B,146,star,1,1,,,,,,,,,,,,,,,,switch,letter,lettSwt,d,Lo,,,,,,0.7396,2,,,,,,,,high,13,0,13,0,1,,,,,,,,,
297151,2022-12-06_15h40.16.529,vts_reward_expectancy_bt,2022.2.4,MacIntel,59.99880002,Chrome,1440,900,,,,,10,964,,,,,,,,,,,,,,,,,W,139,triangle,1,0,,,,,,,,,,,,,,,,repeat,letter,lettRpt,f,Hi,,,,,,0.0947,2,,,,,,,,high,14,0,14,0,1,,,,,,,,,
297151,2022-12-06_15h40.16.529,vts_reward_expectancy_bt,2022.2.4,MacIntel,59.99880002,Chrome,1440,900,,,,,0,964,,,,,,,,,,,,,,,,,U,174,circle,0,0,,,,,,,,,,,,,,,,repeat,letter,NA,d,Hi,,,,,,0.0995,2,,,,,,,,high,15,0,15,0,1,,,,,,,,,
297151,2022-12-06_15h40.16.529,vts_reward_expectancy_bt,2022.2.4,MacIntel,59.99880002,Chrome,1440,900,,,,,0,964,,,,,,,,,,,,,,,,,U,160,circle,0,1,,,,,,,,,,,,,,,,repeat,letter,NA,d,Hi,,,,,,0.0323,2,,,,,,,,high,16,0,16,0,1,,,,,,,,,
297151,2022-12-06_15h40.16.529,vts_reward_expectancy_bt,2022.2.4,MacIntel,59.99880002,Chrome,1440,900,,,,,0,964,,,,,,,,,,,,,,,,,W,167,hexagon,0,1,,,,,,,,,,,,,,,,repeat,letter,NA,d,Hi,,,,,,0.0029,2,,,,,,,,high,17,0,17,0,1,,,,,,,,,
297151,2022-12-06_15h40.16.529,vts_reward_expectancy_bt,2022.2.4,MacIntel,59.99880002,Chrome,1440,900,,,,,0,964,,,,,,,,,,,,,,,,,F,174,star,0,1,,,,,,,,,,,,,,,,switch,number,NA,j,Hi,,,,,,0.039,2,,,,,,,,high,18,0,18,0,1,,,,,,,,,
297151,2022-12-06_15h40.16.529,vts_reward_expectancy_bt,2022.2.4,MacIntel,59.99880002,Chrome,1440,900,,,,,0,964,,,,,,,,,,,,,,,,,S,125,triangle,0,1,,,,,,,,,,,,,,,,switch,letter,NA,d,Hi,,,,,,0.6846,2,,,,,,,,high,19,0,19,0,1,,,,,,,,,
297151,2022-12-06_15h40.16.529,vts_reward_expectancy_bt,2022.2.4,MacIntel,59.99880002,Chrome,1440,900,,,,,0,964,,,,,,,,,,,,,,,,,D,181,circle,0,1,,,,,,,,,,,,,,,,repeat,letter,NA,f,Hi,,,,,,0.0039,2,,,,,,,,high,20,0,20,0,1,,,,,,,,,
297151,2022-12-06_15h40.16.529,vts_reward_expectancy_bt,2022.2.4,MacIntel,59.99880002,Chrome,1440,900,,,,,0,964,,,,,,,,,,,,,,,,,H,132,star,0,1,,,,,,,,,,,,,,,,repeat,letter,NA,f,Hi,,,,,,0.0269,2,,,,,,,,high,21,0,21,0,1,,,,,,,,,
297151,2022-12-06_15h40.16.529,vts_reward_expectancy_bt,2022.2.4,MacIntel,59.99880002,Chrome,1440,900,,,,,10,974,,,,,,,,,,,,,,,,,Y,139,hexagon,1,1,,,,,,,,,,,,,,,,switch,number,numSwt,j,Lo,,,,,,0.0298,2,,,,,,,,high,22,0,22,0,1,,,,,,,,,
297151,2022-12-06_15h40.16.529,vts_reward_expectancy_bt,2022.2.4,MacIntel,59.99880002,Chrome,1440,900,,,,,0,974,,,,,,,,,,,,,,,,,B,146,triangle,1,0,,,,,,,,,,,,,,,,switch,letter,lettSwt,d,Hi,,,,,,0.0642,2,,,,,,,,high,23,0,23,0,1,,,,,,,,,
297151,2022-12-06_15h40.16.529,vts_reward_expectancy_bt,2022.2.4,MacIntel,59.99880002,Chrome,1440,900,,,,,10,984,,,,,,,,,,,,,,,,,Y,132,triangle,1,0,,,,,,,,,,,,,,,,switch,number,numSwt,j,Hi,,,,,,0.0197,2,,,,,,,,high,24,0,24,0,1,,,,,,,,,
297151,2022-12-06_15h40.16.529,vts_reward_expectancy_bt,2022.2.4,MacIntel,59.99880002,Chrome,1440,900,,,,,0,984,,,,,,,,,,,,,,,,,U,167,hexagon,0,0,,,,,,,,,,,,,,,,repeat,number,NA,j,Hi,,,,,,0.0943,2,,,,,,,,high,25,0,25,0,1,,,,,,,,,
297151,2022-12-06_15h40.16.529,vts_reward_expectancy_bt,2022.2.4,MacIntel,59.99880002,Chrome,1440,900,,,,,0,984,,,,,,,,,,,,,,,,,D,174,circle,0,1,,,,,,,,,,,,,,,,repeat,number,NA,j,Hi,,,,,,0.0861,2,,,,,,,,high,26,0,26,0,1,,,,,,,,,
297151,2022-12-06_15h40.16.529,vts_reward_expectancy_bt,2022.2.4,MacIntel,59.99880002,Chrome,1440,900,,,,,1,985,,,,,,,,,,,,,,,,,H,146,star,1,1,,,,,,,,,,,,,,,,repeat,number,numRpt,j,Lo,,,,,,0.0003,2,,,,,,,,high,27,0,27,0,1,,,,,,,,,
297151,2022-12-06_15h40.16.529,vts_reward_expectancy_bt,2022.2.4,MacIntel,59.99880002,Chrome,1440,900,,,,,0,985,,,,,,,,,,,,,,,,,B,139,circle,1,0,,,,,,,,,,,,,,,,switch,letter,lettSwt,d,Hi,,,,,,0.0673,2,,,,,,,,high,28,0,28,0,1,,,,,,,,,
297151,2022-12-06_15h40.16.529,vts_reward_expectancy_bt,2022.2.4,MacIntel,59.99880002,Chrome,1440,900,,,,,1,986,,,,,,,,,,,,,,,,,F,125,hexagon,1,0,,,,,,,,,,,,,,,,switch,number,numSwt,j,Lo,,,,,,0.0053,2,,,,,,,,high,29,0,29,0,1,,,,,,,,,
297151,2022-12-06_15h40.16.529,vts_reward_expectancy_bt,2022.2.4,MacIntel,59.99880002,Chrome,1440,900,,,,,0,986,,,,,,,,,,,,,,,,,S,160,star,0,0,,,,,,,,,,,,,,,,switch,letter,NA,d,Lo,,,,,,0.0875,2,,,,,,,,high,30,0,30,0,1,,,,,,,,,
297151,2022-12-06_15h40.16.529,vts_reward_expectancy_bt,2022.2.4,MacIntel,59.99880002,Chrome,1440,900,,,,,0,986,,,,,,,,,,,,,,,,,W,181,triangle,0,1,,,,,,,,,,,,,,,,repeat,letter,NA,d,Lo,,,,,,0.0842,2,,,,,,,,high,31,0,31,0,1,,,,,,,,,
297151,2022-12-06_15h40.16.529,vts_reward_expectancy_bt,2022.2.4,MacIntel,59.99880002,Chrome,1440,900,,,,,0,986,,,,,,,,,,,,,,,,,D,174,triangle,0,1,,,,,,,,,,,,,,,,repeat,letter,NA,f,Lo,,,,,,0.0961,3,,,,,,space,1.182,high,0,0,0,0,1,,,,,,,,,
297151,2022-12-06_15h40.16.529,vts_reward_expectancy_bt,2022.2.4,MacIntel,59.99880002,Chrome,1440,900,,,,,0,986,,,,,,,,,,,,,,,,,B,181,hexagon,0,1,,,,,,,,,,,,,,,,switch,number,NA,j,Lo,,,,,,0.0259,3,,,,,,,,high,1,0,1,0,1,,,,,,,,,
297151,2022-12-06_15h40.16.529,vts_reward_expectancy_bt,2022.2.4,MacIntel,59.99880002,Chrome,1440,900,,,,,0,986,,,,,,,,,,,,,,,,,U,160,circle,1,1,,,,,,,,,,,,,,,,switch,letter,lettSwt,f,Hi,,,,,,0.1651,3,,,,,,,,high,2,0,2,0,1,,,,,,,,,
297151,2022-12-06_15h40.16.529,vts_reward_expectancy_bt,2022.2.4,MacIntel,59.99880002,Chrome,1440,900,,,,,0,986,,,,,,,,,,,,,,,,,F,125,star,0,0,,,,,,,,,,,,,,,,repeat,letter,NA,f,Hi,,,,,,0.1293,3,,,,,,,,high,3,0,3,0,1,,,,,,,,,
297151,2022-12-06_15h40.16.529,vts_reward_expectancy_bt,2022.2.4,MacIntel,59.99880002,Chrome,1440,900,,,,,10,996,,,,,,,,,,,,,,,,,Y,146,triangle,1,1,,,,,,,,,,,,,,,,repeat,letter,lettRpt,f,Hi,,,,,,0.0461,3,,,,,,,,high,4,0,4,0,1,,,,,,,,,
297151,2022-12-06_15h40.16.529,vts_reward_expectancy_bt,2022.2.4,MacIntel,59.99880002,Chrome,1440,900,,,,,1,997,,,,,,,,,,,,,,,,,H,132,hexagon,1,0,,,,,,,,,,,,,,,,repeat,letter,lettRpt,d,Lo,,,,,,0.0819,3,,,,,,,,high,5,0,5,0,1,,,,,,,,,
297151,2022-12-06_15h40.16.529,vts_reward_expectancy_bt,2022.2.4,MacIntel,59.99880002,Chrome,1440,900,,,,,0,997,,,,,,,,,,,,,,,,,S,139,circle,0,0,,,,,,,,,,,,,,,,switch,number,NA,k,Lo,,,,,,0.0013,3,,,,,,,,high,6,0,6,0,1,,,,,,,,,
297151,2022-12-06_15h40.16.529,vts_reward_expectancy_bt,2022.2.4,MacIntel,59.99880002,Chrome,1440,900,,,,,0,997,,,,,,,,,,,,,,,,,W,167,star,0,1,,,,,,,,,,,,,,,,switch,letter,NA,d,Lo,,,,,,0.0146,3,,,,,,,,high,7,0,7,0,1,,,,,,,,,
297151,2022-12-06_15h40.16.529,vts_reward_expectancy_bt,2022.2.4,MacIntel,59.99880002,Chrome,1440,900,,,,,0,997,,,,,,,,,,,,,,,,,D,174,triangle,0,1,,,,,,,,,,,,,,,,switch,number,NA,j,Lo,,,,,,0.0506,3,,,,,,,,high,8,0,8,0,1,,,,,,,,,
297151,2022-12-06_15h40.16.529,vts_reward_expectancy_bt,2022.2.4,MacIntel,59.99880002,Chrome,1440,900,,,,,0,997,,,,,,,,,,,,,,,,,B,181,circle,0,1,,,,,,,,,,,,,,,,repeat,number,NA,j,Lo,,,,,,0.0358,3,,,,,,,,high,9,0,9,0,1,,,,,,,,,
297151,2022-12-06_15h40.16.529,vts_reward_expectancy_bt,2022.2.4,MacIntel,59.99880002,Chrome,1440,900,,,,,0,997,,,,,,,,,,,,,,,,,U,160,star,-1,1,,,,,,,,,,,,,,,,switch,no_choice,NA,,Lo,,,,,,,3,,,,,,,,high,10,0,10,0,1,,,,,,,,,
297151,2022-12-06_15h40.16.529,vts_reward_expectancy_bt,2022.2.4,MacIntel,59.99880002,Chrome,1440,900,,,,,0,997,,,,,,,,,,,,,,,,,F,125,hexagon,-1,0,,,,,,,,,,,,,,,,repeat,no_choice,NA,,Lo,,,,,,,3,,,,,,,,high,11,0,11,0,1,,,,,,,,,
297151,2022-12-06_15h40.16.529,vts_reward_expectancy_bt,2022.2.4,MacIntel,59.99880002,Chrome,1440,900,,,,,0,997,,,,,,,,,,,,,,,,,Y,146,triangle,-1,0,,,,,,,,,,,,,,,,repeat,no_choice,NA,,Lo,,,,,,,3,,,,,,,,high,12,0,12,0,1,,,,,,,,,
297151,2022-12-06_15h40.16.529,vts_reward_expectancy_bt,2022.2.4,MacIntel,59.99880002,Chrome,1440,900,,,,,0,997,,,,,,,,,,,,,,,,,H,132,circle,-1,0,,,,,,,,,,,,,,,,repeat,no_choice,NA,,Lo,,,,,,,3,,,,,,,,high,13,0,13,0,1,,,,,,,,,
297151,2022-12-06_15h40.16.529,vts_reward_expectancy_bt,2022.2.4,MacIntel,59.99880002,Chrome,1440,900,,,,,0,997,,,,,,,,,,,,,,,,,S,139,hexagon,-1,0,,,,,,,,,,,,,,,,repeat,no_choice,NA,,Lo,,,,,,,3,,,,,,,,high,14,0,14,0,1,,,,,,,,,
297151,2022-12-06_15h40.16.529,vts_reward_expectancy_bt,2022.2.4,MacIntel,59.99880002,Chrome,1440,900,,,,,0,997,,,,,,,,,,,,,,,,,W,167,star,-1,0,,,,,,,,,,,,,,,,repeat,no_choice,NA,,Lo,,,,,,,3,,,,,,,,high,15,0,15,0,1,,,,,,,,,
297151,2022-12-06_15h40.16.529,vts_reward_expectancy_bt,2022.2.4,MacIntel,59.99880002,Chrome,1440,900,,,,,0,997,,,,,,,,,,,,,,,,,S,139,triangle,1,0,,,,,,,,,,,,,,,,switch,number,numSwt,j,Hi,,,,,,0.18,3,,,,,,,,high,16,0,16,0,1,,,,,,,,,
297151,2022-12-06_15h40.16.529,vts_reward_expectancy_bt,2022.2.4,MacIntel,59.99880002,Chrome,1440,900,,,,,0,997,,,,,,,,,,,,,,,,,U,132,star,0,0,,,,,,,,,,,,,,,,repeat,number,NA,k,Hi,,,,,,0.0341,3,,,,,,,,high,17,0,17,0,1,,,,,,,,,
297151,2022-12-06_15h40.16.529,vts_reward_expectancy_bt,2022.2.4,MacIntel,59.99880002,Chrome,1440,900,,,,,0,997,,,,,,,,,,,,,,,,,W,146,hexagon,-1,1,,,,,,,,,,,,,,,,switch,no_choice,NA,,Hi,,,,,,,3,,,,,,,,high,18,0,18,0,1,,,,,,,,,
297151,2022-12-06_15h40.16.529,vts_reward_expectancy_bt,2022.2.4,MacIntel,59.99880002,Chrome,1440,900,,,,,1,998,,,,,,,,,,,,,,,,,H,174,circle,1,0,,,,,,,,,,,,,,,,switch,letter,lettSwt,d,Hi,,,,,,0.0326,3,,,,,,,,high,19,0,19,0,1,,,,,,,,,
297151,2022-12-06_15h40.16.529,vts_reward_expectancy_bt,2022.2.4,MacIntel,59.99880002,Chrome,1440,900,,,,,10,1008,,,,,,,,,,,,,,,,,F,160,hexagon,1,0,,,,,,,,,,,,,,,,repeat,letter,lettRpt,d,Lo,,,,,,0.0796,3,,,,,,,,high,20,0,20,0,1,,,,,,,,,
297151,2022-12-06_15h40.16.529,vts_reward_expectancy_bt,2022.2.4,MacIntel,59.99880002,Chrome,1440,900,,,,,0,1008,,,,,,,,,,,,,,,,,Y,181,circle,0,0,,,,,,,,,,,,,,,,repeat,letter,NA,d,Lo,,,,,,0.0782,3,,,,,,,,high,21,0,21,0,1,,,,,,,,,
297151,2022-12-06_15h40.16.529,vts_reward_expectancy_bt,2022.2.4,MacIntel,59.99880002,Chrome,1440,900,,,,,1,1009,,,,,,,,,,,,,,,,,D,167,star,1,1,,,,,,,,,,,,,,,,repeat,letter,lettRpt,d,Lo,,,,,,0.0977,3,,,,,,,,high,22,0,22,0,1,,,,,,,,,
297151,2022-12-06_15h40.16.529,vts_reward_expectancy_bt,2022.2.4,MacIntel,59.99880002,Chrome,1440,900,,,,,10,1019,,,,,,,,,,,,,,,,,B,125,triangle,1,0,,,,,,,,,,,,,,,,repeat,letter,lettRpt,d,Hi,,,,,,0.0259,3,,,,,,,,high,23,0,23,0,1,,,,,,,,,
297151,2022-12-06_15h40.16.529,vts_reward_expectancy_bt,2022.2.4,MacIntel,59.99880002,Chrome,1440,900,,,,,0,1019,,,,,,,,,,,,,,,,,U,139,hexagon,0,0,,,,,,,,,,,,,,,,repeat,letter,NA,d,Hi,,,,,,0.0983,3,,,,,,,,high,24,0,24,0,1,,,,,,,,,
297151,2022-12-06_15h40.16.529,vts_reward_expectancy_bt,2022.2.4,MacIntel,59.99880002,Chrome,1440,900,,,,,1,1020,,,,,,,,,,,,,,,,,B,132,star,1,1,,,,,,,,,,,,,,,,repeat,letter,lettRpt,d,Lo,,,,,,0.0142,3,,,,,,,,high,25,0,25,0,1,,,,,,,,,
297151,2022-12-06_15h40.16.529,vts_reward_expectancy_bt,2022.2.4,MacIntel,59.99880002,Chrome,1440,900,,,,,10,1030,,,,,,,,,,,,,,,,,F,125,circle,1,0,,,,,,,,,,,,,,,,repeat,letter,lettRpt,d,Hi,,,,,,0.083,3,,,,,,,,high,26,0,26,0,1,,,,,,,,,
297151,2022-12-06_15h40.16.529,vts_reward_expectancy_bt,2022.2.4,MacIntel,59.99880002,Chrome,1440,900,,,,,0,1030,,,,,,,,,,,,,,,,,W,160,triangle,0,0,,,,,,,,,,,,,,,,repeat,letter,NA,d,Hi,,,,,,0.0381,3,,,,,,,,high,27,0,27,0,1,,,,,,,,,
297151,2022-12-06_15h40.16.529,vts_reward_expectancy_bt,2022.2.4,MacIntel,59.99880002,Chrome,1440,900,,,,,0,1030,,,,,,,,,,,,,,,,,S,174,circle,0,1,,,,,,,,,,,,,,,,repeat,letter,NA,d,Hi,,,,,,0.1302,3,,,,,,,,high,28,0,28,0,1,,,,,,,,,
297151,2022-12-06_15h40.16.529,vts_reward_expectancy_bt,2022.2.4,MacIntel,59.99880002,Chrome,1440,900,,,,,1,1031,,,,,,,,,,,,,,,,,D,181,star,1,1,,,,,,,,,,,,,,,,repeat,letter,lettRpt,d,Lo,,,,,,0.0748,3,,,,,,,,high,29,0,29,0,1,,,,,,,,,
297151,2022-12-06_15h40.16.529,vts_reward_expectancy_bt,2022.2.4,MacIntel,59.99880002,Chrome,1440,900,,,,,0,1031,,,,,,,,,,,,,,,,,Y,146,hexagon,0,0,,,,,,,,,,,,,,,,repeat,letter,NA,d,Lo,,,,,,0.0628,3,,,,,,,,high,30,0,30,0,1,,,,,,,,,
297151,2022-12-06_15h40.16.529,vts_reward_expectancy_bt,2022.2.4,MacIntel,59.99880002,Chrome,1440,900,,,,,0,1031,,,,,,,,,,,,,,,,,H,167,triangle,1,1,,,,,,,,,,,,,,,,repeat,letter,lettRpt,d,Hi,,,,,,0.1624,3,,,,,,,,high,31,0,31,0,1,,,,,,,,,
297151,2022-12-06_15h40.16.529,vts_reward_expectancy_bt,2022.2.4,MacIntel,59.99880002,Chrome,1440,900,,,,,0,1031,,,,,,,,,,,,,,,,,H,125,star,0,0,,,,,,,,,,,,,,,,repeat,letter,NA,f,Hi,,,,,,0.0529,4,,,,,,space,1.4962,high,0,0,0,0,1,,,,,,,,,
297151,2022-12-06_15h40.16.529,vts_reward_expectancy_bt,2022.2.4,MacIntel,59.99880002,Chrome,1440,900,,,,,0,1031,,,,,,,,,,,,,,,,,D,167,hexagon,0,1,,,,,,,,,,,,,,,,repeat,letter,NA,f,Hi,,,,,,0.0799,4,,,,,,,,high,1,0,1,0,1,,,,,,,,,
297151,2022-12-06_15h40.16.529,vts_reward_expectancy_bt,2022.2.4,MacIntel,59.99880002,Chrome,1440,900,,,,,10,1041,,,,,,,,,,,,,,,,,S,132,triangle,1,1,,,,,,,,,,,,,,,,repeat,letter,lettRpt,f,Hi,,,,,,0.0004,4,,,,,,,,high,2,0,2,0,1,,,,,,,,,
297151,2022-12-06_15h40.16.529,vts_reward_expectancy_bt,2022.2.4,MacIntel,59.99880002,Chrome,1440,900,,,,,10,1051,,,,,,,,,,,,,,,,,Y,139,circle,1,0,,,,,,,,,,,,,,,,repeat,letter,lettRpt,f,Hi,,,,,,0.0157,4,,,,,,,,high,3,0,3,0,1,,,,,,,,,
297151,2022-12-06_15h40.16.529,vts_reward_expectancy_bt,2022.2.4,MacIntel,59.99880002,Chrome,1440,900,,,,,1,1052,,,,,,,,,,,,,,,,,W,174,star,1,0,,,,,,,,,,,,,,,,repeat,letter,lettRpt,f,Lo,,,,,,0.1685,4,,,,,,,,high,4,0,4,0,1,,,,,,,,,
297151,2022-12-06_15h40.16.529,vts_reward_expectancy_bt,2022.2.4,MacIntel,59.99880002,Chrome,1440,900,,,,,1,1053,,,,,,,,,,,,,,,,,U,146,hexagon,1,0,,,,,,,,,,,,,,,,repeat,letter,lettRpt,f,Lo,,,,,,0.0972,4,,,,,,,,high,5,0,5,0,1,,,,,,,,,
297151,2022-12-06_15h40.16.529,vts_reward_expectancy_bt,2022.2.4,MacIntel,59.99880002,Chrome,1440,900,,,,,0,1053,,,,,,,,,,,,,,,,,B,181,triangle,1,0,,,,,,,,,,,,,,,,repeat,letter,lettRpt,d,Hi,,,,,,0.2655,4,,,,,,,,high,6,0,6,0,1,,,,,,,,,
297151,2022-12-06_15h40.16.529,vts_reward_expectancy_bt,2022.2.4,MacIntel,59.99880002,Chrome,1440,900,,,,,0,1053,,,,,,,,,,,,,,,,,F,160,circle,-1,0,,,,,,,,,,,,,,,,switch,no_choice,NA,,Hi,,,,,,,4,,,,,,,,high,7,0,7,0,1,,,,,,,,,
297151,2022-12-06_15h40.16.529,vts_reward_expectancy_bt,2022.2.4,MacIntel,59.99880002,Chrome,1440,900,,,,,10,1063,,,,,,,,,,,,,,,,,H,125,star,1,0,,,,,,,,,,,,,,,,switch,letter,lettSwt,d,Lo,,,,,,0.028,4,,,,,,,,high,8,0,8,0,1,,,,,,,,,
297151,2022-12-06_15h40.16.529,vts_reward_expectancy_bt,2022.2.4,MacIntel,59.99880002,Chrome,1440,900,,,,,1,1064,,,,,,,,,,,,,,,,,D,167,circle,1,0,,,,,,,,,,,,,,,,repeat,letter,lettRpt,d,Hi,,,,,,0.062,4,,,,,,,,high,9,0,9,0,1,,,,,,,,,
297151,2022-12-06_15h40.16.529,vts_reward_expectancy_bt,2022.2.4,MacIntel,59.99880002,Chrome,1440,900,,,,,0,1064,,,,,,,,,,,,,,,,,S,132,hexagon,0,0,,,,,,,,,,,,,,,,repeat,letter,NA,d,Hi,,,,,,0.0787,4,,,,,,,,high,10,0,10,0,1,,,,,,,,,
297151,2022-12-06_15h40.16.529,vts_reward_expectancy_bt,2022.2.4,MacIntel,59.99880002,Chrome,1440,900,,,,,0,1064,,,,,,,,,,,,,,,,,Y,139,triangle,1,1,,,,,,,,,,,,,,,,repeat,letter,lettRpt,f,Hi,,,,,,0.2607,4,,,,,,,,high,11,0,11,0,1,,,,,,,,,
297151,2022-12-06_15h40.16.529,vts_reward_expectancy_bt,2022.2.4,MacIntel,59.99880002,Chrome,1440,900,,,,,0,1064,,,,,,,,,,,,,,,,,W,174,hexagon,0,0,,,,,,,,,,,,,,,,repeat,letter,NA,d,Hi,,,,,,0.0259,4,,,,,,,,high,12,0,12,0,1,,,,,,,,,
297151,2022-12-06_15h40.16.529,vts_reward_expectancy_bt,2022.2.4,MacIntel,59.99880002,Chrome,1440,900,,,,,0,1064,,,,,,,,,,,,,,,,,U,146,circle,1,1,,,,,,,,,,,,,,,,repeat,letter,lettRpt,f,Hi,,,,,,0.1301,4,,,,,,,,high,13,0,13,0,1,,,,,,,,,
297151,2022-12-06_15h40.16.529,vts_reward_expectancy_bt,2022.2.4,MacIntel,59.99880002,Chrome,1440,900,,,,,0,1064,,,,,,,,,,,,,,,,,B,181,star,0,0,,,,,,,,,,,,,,,,repeat,letter,NA,f,Hi,,,,,,0.21,4,,,,,,,,high,14,0,14,0,1,,,,,,,,,
297151,2022-12-06_15h40.16.529,vts_reward_expectancy_bt,2022.2.4,MacIntel,59.99880002,Chrome,1440,900,,,,,0,1064,,,,,,,,,,,,,,,,,F,160,triangle,0,1,,,,,,,,,,,,,,,,repeat,letter,NA,f,Hi,,,,,,0.1126,4,,,,,,,,high,15,0,15,0,1,,,,,,,,,
297151,2022-12-06_15h40.16.529,vts_reward_expectancy_bt,2022.2.4,MacIntel,59.99880002,Chrome,1440,900,,,,,10,1074,,,,,,,,,,,,,,,,,F,146,circle,1,1,,,,,,,,,,,,,,,,repeat,letter,lettRpt,d,Hi,,,,,,0.0505,4,,,,,,,,high,16,0,16,0,1,,,,,,,,,
297151,2022-12-06_15h40.16.529,vts_reward_expectancy_bt,2022.2.4,MacIntel,59.99880002,Chrome,1440,900,,,,,1,1075,,,,,,,,,,,,,,,,,H,167,hexagon,1,0,,,,,,,,,,,,,,,,repeat,letter,lettRpt,d,Lo,,,,,,0.001,4,,,,,,,,high,17,0,17,0,1,,,,,,,,,
297151,2022-12-06_15h40.16.529,vts_reward_expectancy_bt,2022.2.4,MacIntel,59.99880002,Chrome,1440,900,,,,,0,1075,,,,,,,,,,,,,,,,,B,181,star,0,0,,,,,,,,,,,,,,,,repeat,letter,NA,f,Lo,,,,,,0.151,4,,,,,,,,high,18,0,18,0,1,,,,,,,,,
297151,2022-12-06_15h40.16.529,vts_reward_expectancy_bt,2022.2.4,MacIntel,59.99880002,Chrome,1440,900,,,,,0,1075,,,,,,,,,,,,,,,,,Y,139,triangle,1,1,,,,,,,,,,,,,,,,repeat,letter,lettRpt,f,Hi,,,,,,0.1974,4,,,,,,,,high,19,0,19,0,1,,,,,,,,,
297151,2022-12-06_15h40.16.529,vts_reward_expectancy_bt,2022.2.4,MacIntel,59.99880002,Chrome,1440,900,,,,,0,1075,,,,,,,,,,,,,,,,,D,125,circle,0,0,,,,,,,,,,,,,,,,repeat,letter,NA,f,Hi,,,,,,0.2553,4,,,,,,,,high,20,0,20,0,1,,,,,,,,,
297151,2022-12-06_15h40.16.529,vts_reward_expectancy_bt,2022.2.4,MacIntel,59.99880002,Chrome,1440,900,,,,,0,1075,,,,,,,,,,,,,,,,,W,160,star,-1,1,,,,,,,,,,,,,,,,switch,no_choice,NA,,Hi,,,,,,,4,,,,,,,,high,21,0,21,0,1,,,,,,,,,
297151,2022-12-06_15h40.16.529,vts_reward_expectancy_bt,2022.2.4,MacIntel,59.99880002,Chrome,1440,900,,,,,0,1075,,,,,,,,,,,,,,,,,U,174,triangle,-1,0,,,,,,,,,,,,,,,,repeat,no_choice,NA,,Hi,,,,,,,4,,,,,,,,high,22,0,22,0,1,,,,,,,,,
297151,2022-12-06_15h40.16.529,vts_reward_expectancy_bt,2022.2.4,MacIntel,59.99880002,Chrome,1440,900,,,,,1,1076,,,,,,,,,,,,,,,,,S,132,hexagon,1,0,,,,,,,,,,,,,,,,switch,letter,lettSwt,f,Lo,,,,,,0.0625,4,,,,,,,,high,23,0,23,0,1,,,,,,,,,
297151,2022-12-06_15h40.16.529,vts_reward_expectancy_bt,2022.2.4,MacIntel,59.99880002,Chrome,1440,900,,,,,0,1076,,,,,,,,,,,,,,,,,D,174,star,0,0,,,,,,,,,,,,,,,,repeat,letter,NA,f,Lo,,,,,,0.0118,4,,,,,,,,high,24,0,24,0,1,,,,,,,,,
297151,2022-12-06_15h40.16.529,vts_reward_expectancy_bt,2022.2.4,MacIntel,59.99880002,Chrome,1440,900,,,,,0,1076,,,,,,,,,,,,,,,,,B,139,hexagon,0,1,,,,,,,,,,,,,,,,repeat,letter,NA,f,Lo,,,,,,0.1439,4,,,,,,,,high,25,0,25,0,1,,,,,,,,,
297151,2022-12-06_15h40.16.529,vts_reward_expectancy_bt,2022.2.4,MacIntel,59.99880002,Chrome,1440,900,,,,,0,1076,,,,,,,,,,,,,,,,,H,181,triangle,0,1,,,,,,,,,,,,,,,,repeat,letter,NA,f,Lo,,,,,,0.1517,4,,,,,,,,high,26,0,26,0,1,,,,,,,,,
297151,2022-12-06_15h40.16.529,vts_reward_expectancy_bt,2022.2.4,MacIntel,59.99880002,Chrome,1440,900,,,,,10,1086,,,,,,,,,,,,,,,,,F,146,circle,1,1,,,,,,,,,,,,,,,,repeat,letter,lettRpt,d,Hi,,,,,,0.0634,4,,,,,,,,high,27,0,27,0,1,,,,,,,,,
297151,2022-12-06_15h40.16.529,vts_reward_expectancy_bt,2022.2.4,MacIntel,59.99880002,Chrome,1440,900,,,,,0,1086,,,,,,,,,,,,,,,,,W,160,triangle,0,0,,,,,,,,,,,,,,,,repeat,letter,NA,d,Hi,,,,,,0.0997,4,,,,,,,,high,28,0,28,0,1,,,,,,,,,
297151,2022-12-06_15h40.16.529,vts_reward_expectancy_bt,2022.2.4,MacIntel,59.99880002,Chrome,1440,900,,,,,0,1086,,,,,,,,,,,,,,,,,S,132,star,0,1,,,,,,,,,,,,,,,,repeat,letter,NA,d,Hi,,,,,,0.0076,4,,,,,,,,high,29,0,29,0,1,,,,,,,,,
297151,2022-12-06_15h40.16.529,vts_reward_expectancy_bt,2022.2.4,MacIntel,59.99880002,Chrome,1440,900,,,,,0,1086,,,,,,,,,,,,,,,,,U,125,circle,1,1,,,,,,,,,,,,,,,,repeat,letter,lettRpt,f,Hi,,,,,,0.1122,4,,,,,,,,high,30,0,30,0,1,,,,,,,,,
297151,2022-12-06_15h40.16.529,vts_reward_expectancy_bt,2022.2.4,MacIntel,59.99880002,Chrome,1440,900,,,,,0,1086,,,,,,,,,,,,,,,,,Y,167,hexagon,0,0,,,,,,,,,,,,,,,,repeat,letter,NA,d,Hi,,,,,,0.0004,4,,,,,,,,high,31,0,31,0,1,,,,,,,,,
297151,2022-12-06_15h40.16.529,vts_reward_expectancy_bt,2022.2.4,MacIntel,59.99880002,Chrome,1440,900,,,,,0,1086,,,,,,,,,,,,,,,,,H,132,circle,1,1,,,,,,,,,,,,,,,,repeat,letter,lettRpt,d,Hi,,,,,,0.1625,5,,,,,,space,1.1124,high,0,0,0,0,1,,,,,,,,,
297151,2022-12-06_15h40.16.529,vts_reward_expectancy_bt,2022.2.4,MacIntel,59.99880002,Chrome,1440,900,,,,,0,1086,,,,,,,,,,,,,,,,,W,174,triangle,0,0,,,,,,,,,,,,,,,,repeat,letter,NA,d,Hi,,,,,,0.0967,5,,,,,,,,high,1,0,1,0,1,,,,,,,,,
297151,2022-12-06_15h40.16.529,vts_reward_expectancy_bt,2022.2.4,MacIntel,59.99880002,Chrome,1440,900,,,,,0,1086,,,,,,,,,,,,,,,,,U,139,hexagon,0,1,,,,,,,,,,,,,,,,repeat,letter,NA,d,Hi,,,,,,0.0349,5,,,,,,,,high,2,0,2,0,1,,,,,,,,,
297151,2022-12-06_15h40.16.529,vts_reward_expectancy_bt,2022.2.4,MacIntel,59.99880002,Chrome,1440,900,,,,,0,1086,,,,,,,,,,,,,,,,,S,146,star,0,1,,,,,,,,,,,,,,,,repeat,letter,NA,d,Hi,,,,,,0.1307,5,,,,,,,,high,3,0,3,0,1,,,,,,,,,
297151,2022-12-06_15h40.16.529,vts_reward_expectancy_bt,2022.2.4,MacIntel,59.99880002,Chrome,1440,900,,,,,0,1086,,,,,,,,,,,,,,,,,Y,125,circle,1,1,,,,,,,,,,,,,,,,repeat,letter,lettRpt,f,Hi,,,,,,1.3878,5,,,,,,,,high,4,0,4,0,1,,,,,,,,,
297151,2022-12-06_15h40.16.529,vts_reward_expectancy_bt,2022.2.4,MacIntel,59.99880002,Chrome,1440,900,,,,,0,1086,,,,,,,,,,,,,,,,,F,167,triangle,1,0,,,,,,,,,,,,,,,,repeat,letter,lettRpt,d,Hi,,,,,,0.1804,5,,,,,,,,high,5,0,5,0,1,,,,,,,,,
297151,2022-12-06_15h40.16.529,vts_reward_expectancy_bt,2022.2.4,MacIntel,59.99880002,Chrome,1440,900,,,,,1,1087,,,,,,,,,,,,,,,,,D,160,hexagon,1,0,,,,,,,,,,,,,,,,repeat,letter,lettRpt,d,Lo,,,,,,0.0651,5,,,,,,,,high,6,0,6,0,1,,,,,,,,,
297151,2022-12-06_15h40.16.529,vts_reward_expectancy_bt,2022.2.4,MacIntel,59.99880002,Chrome,1440,900,,,,,1,1088,,,,,,,,,,,,,,,,,B,181,star,1,0,,,,,,,,,,,,,,,,repeat,letter,lettRpt,d,Lo,,,,,,0.0105,5,,,,,,,,high,7,0,7,0,1,,,,,,,,,
297151,2022-12-06_15h40.16.529,vts_reward_expectancy_bt,2022.2.4,MacIntel,59.99880002,Chrome,1440,900,,,,,0,1088,,,,,,,,,,,,,,,,,H,132,triangle,-1,0,,,,,,,,,,,,,,,,switch,no_choice,NA,,Lo,,,,,,,5,,,,,,,,high,8,0,8,0,1,,,,,,,,,
297151,2022-12-06_15h40.16.529,vts_reward_expectancy_bt,2022.2.4,MacIntel,59.99880002,Chrome,1440,900,,,,,0,1088,,,,,,,,,,,,,,,,,W,174,hexagon,0,0,,,,,,,,,,,,,,,,switch,letter,NA,d,Lo,,,,,,1.096,5,,,,,,,,high,9,0,9,0,1,,,,,,,,,
297151,2022-12-06_15h40.16.529,vts_reward_expectancy_bt,2022.2.4,MacIntel,59.99880002,Chrome,1440,900,,,,,1,1089,,,,,,,,,,,,,,,,,U,139,star,1,1,,,,,,,,,,,,,,,,repeat,letter,lettRpt,f,Lo,,,,,,0.0982,5,,,,,,,,high,10,0,10,0,1,,,,,,,,,
