participant,date,expName,psychopyVersion,OS,frameRate,browser,xResolution,yResolution,key_resp.keys,key_resp.rt,training_resp.keys,training_resp.rt,points_trial,points_cumul,trainBlock,training.thisRepN,training.thisTrialN,training.thisN,training.thisIndex,training.ran,LTriangleOpac,LCircleOpac,LHexagonOpac,LStarOpac,RTriangleOpac,RCircleOpac,RHexagonOpac,RStarOpac,LShape_ID,RShape_ID,curr_topStim,curr_bottStim,curr_shape,acc,E1,target_resp_prac1.keys,target_resp_prac1.rt,pracBlock,task1_prac_trials.thisRepN,task1_prac_trials.thisTrialN,task1_prac_trials.thisN,task1_prac_trials.thisIndex,task1_prac_trials.ran,target_resp_prac2.keys,target_resp_prac2.rt,task2_praac_trials.thisRepN,task2_praac_trials.thisTrialN,task2_praac_trials.thisN,task2_praac_trials.thisIndex,task2_praac_trials.ran,alt,task,condition,target_resp.keys,rewCond,vts_practice_trials.thisRepN,vts_practice_trials.thisTrialN,vts_practice_trials.thisN,vts_practice_trials.thisIndex,vts_practice_trials.ran,target_resp.rt,blockNum,trials_norew.thisRepN,trials_norew.thisTrialN,trials_norew.thisN,trials_norew.thisIndex,trials_norew.ran,key_resp_2.keys,key_resp_2.rt,rewExpectancy,trials_rew.thisRepN,trials_rew.thisTrialN,trials_rew.thisN,trials_rew.thisIndex,trials_rew.ran,Q1,Q2,Q2_text,Q3,Q4,Q5_text,Q5,xRes,yRes
297166,2022-11-29_04h59.50.797,vts_reward_expectancy_bt,2022.2.4,Win32,58.9240469,Chrome,1536,864,,,,,,,,,,,,,,,,,,,,,,,,,,,,,,,,,,,,,,,,,,,,,,,,,,,,,,,,,,,,,,,,,,,,,,,,,,,,
297166,2022-11-29_04h59.50.797,vts_reward_expectancy_bt,2022.2.4,Win32,58.9240469,Chrome,1536,864,space,17.4669,,,,,,,,,,,,,,,,,,,,,,,,,,,,,,,,,,,,,,,,,,,,,,,,,,,,,,,,,,,,,,,,,,,,,,,,,,
297166,2022-11-29_04h59.50.797,vts_reward_expectancy_bt,2022.2.4,Win32,58.9240469,Chrome,1536,864,,,,,,,,,,,,,,,,,,,,,,,,,,,,,,,,,,,,,,,,,,,,,,,,,,,,,,,,,,,,,,,,,,,,,,,,,,,,
297166,2022-11-29_04h59.50.797,vts_reward_expectancy_bt,2022.2.4,Win32,58.9240469,Chrome,1536,864,,,a,1.8272,10,10,0,0,0,0,5,1,0,1,0,0,0,0,0,1,circle,star,,,,,,,,,,,,,,,,,,,,,,,,,,,,,,,,,,,,,,,,,,,,,,,,,,,,,,
297166,2022-11-29_04h59.50.797,vts_reward_expectancy_bt,2022.2.4,Win32,58.9240469,Chrome,1536,864,,,a,1.3344,1,11,0,0,1,1,1,1,1,0,0,0,0,0,1,0,triangle,hexagon,,,,,,,,,,,,,,,,,,,,,,,,,,,,,,,,,,,,,,,,,,,,,,,,,,,,,,
297166,2022-11-29_04h59.50.797,vts_reward_expectancy_bt,2022.2.4,Win32,58.9240469,Chrome,1536,864,,,l,0.5839,10,21,0,0,2,2,7,1,0,0,1,0,0,1,0,0,hexagon,circle,,,,,,,,,,,,,,,,,,,,,,,,,,,,,,,,,,,,,,,,,,,,,,,,,,,,,,
297166,2022-11-29_04h59.50.797,vts_reward_expectancy_bt,2022.2.4,Win32,58.9240469,Chrome,1536,864,,,l,0.7655,10,31,0,0,3,3,6,1,0,0,1,0,1,0,0,0,hexagon,triangle,,,,,,,,,,,,,,,,,,,,,,,,,,,,,,,,,,,,,,,,,,,,,,,,,,,,,,
297166,2022-11-29_04h59.50.797,vts_reward_expectancy_bt,2022.2.4,Win32,58.9240469,Chrome,1536,864,,,l,1.1975,10,41,0,0,4,4,9,1,0,0,0,1,1,0,0,0,star,triangle,,,,,,,,,,,,,,,,,,,,,,,,,,,,,,,,,,,,,,,,,,,,,,,,,,,,,,
297166,2022-11-29_04h59.50.797,vts_reward_expectancy_bt,2022.2.4,Win32,58.9240469,Chrome,1536,864,,,a,0.5949,1,42,0,0,5,5,3,1,0,1,0,0,1,0,0,0,circle,triangle,,,,,,,,,,,,,,,,,,,,,,,,,,,,,,,,,,,,,,,,,,,,,,,,,,,,,,
297166,2022-11-29_04h59.50.797,vts_reward_expectancy_bt,2022.2.4,Win32,58.9240469,Chrome,1536,864,,,l,0.7023,10,52,0,0,6,6,10,1,0,0,0,1,0,1,0,0,star ,circle,,,,,,,,,,,,,,,,,,,,,,,,,,,,,,,,,,,,,,,,,,,,,,,,,,,,,,
297166,2022-11-29_04h59.50.797,vts_reward_expectancy_bt,2022.2.4,Win32,58.9240469,Chrome,1536,864,,,l,0.9503,10,62,0,0,7,7,11,1,0,0,0,1,0,0,1,0,star,hexagon,,,,,,,,,,,,,,,,,,,,,,,,,,,,,,,,,,,,,,,,,,,,,,,,,,,,,,
297166,2022-11-29_04h59.50.797,vts_reward_expectancy_bt,2022.2.4,Win32,58.9240469,Chrome,1536,864,,,a,1.3172,1,63,0,0,8,8,2,1,1,0,0,0,0,0,0,1,triangle,star,,,,,,,,,,,,,,,,,,,,,,,,,,,,,,,,,,,,,,,,,,,,,,,,,,,,,,
297166,2022-11-29_04h59.50.797,vts_reward_expectancy_bt,2022.2.4,Win32,58.9240469,Chrome,1536,864,,,a,0.8334,10,73,0,0,9,9,8,1,0,0,1,0,0,0,0,1,hexagon,star,,,,,,,,,,,,,,,,,,,,,,,,,,,,,,,,,,,,,,,,,,,,,,,,,,,,,,
297166,2022-11-29_04h59.50.797,vts_reward_expectancy_bt,2022.2.4,Win32,58.9240469,Chrome,1536,864,,,l,0.586,10,83,0,0,10,10,0,1,1,0,0,0,0,1,0,0,triangle,circle,,,,,,,,,,,,,,,,,,,,,,,,,,,,,,,,,,,,,,,,,,,,,,,,,,,,,,
297166,2022-11-29_04h59.50.797,vts_reward_expectancy_bt,2022.2.4,Win32,58.9240469,Chrome,1536,864,,,l,0.9419,1,84,0,0,11,11,4,1,0,1,0,0,0,0,1,0,circle,hexagon,,,,,,,,,,,,,,,,,,,,,,,,,,,,,,,,,,,,,,,,,,,,,,,,,,,,,,
297166,2022-11-29_04h59.50.797,vts_reward_expectancy_bt,2022.2.4,Win32,58.9240469,Chrome,1536,864,,,a,1.6098,10,94,0,1,0,12,9,1,0,0,0,1,1,0,0,0,star,triangle,,,,,,,,,,,,,,,,,,,,,,,,,,,,,,,,,,,,,,,,,,,,,,,,,,,,,,
297166,2022-11-29_04h59.50.797,vts_reward_expectancy_bt,2022.2.4,Win32,58.9240469,Chrome,1536,864,,,l,2.0814,1,95,0,1,1,13,2,1,1,0,0,0,0,0,0,1,triangle,star,,,,,,,,,,,,,,,,,,,,,,,,,,,,,,,,,,,,,,,,,,,,,,,,,,,,,,
297166,2022-11-29_04h59.50.797,vts_reward_expectancy_bt,2022.2.4,Win32,58.9240469,Chrome,1536,864,,,l,0.9974,10,105,0,1,2,14,0,1,1,0,0,0,0,1,0,0,triangle,circle,,,,,,,,,,,,,,,,,,,,,,,,,,,,,,,,,,,,,,,,,,,,,,,,,,,,,,
297166,2022-11-29_04h59.50.797,vts_reward_expectancy_bt,2022.2.4,Win32,58.9240469,Chrome,1536,864,,,l,1.0397,1,106,0,1,3,15,3,1,0,1,0,0,1,0,0,0,circle,triangle,,,,,,,,,,,,,,,,,,,,,,,,,,,,,,,,,,,,,,,,,,,,,,,,,,,,,,
297166,2022-11-29_04h59.50.797,vts_reward_expectancy_bt,2022.2.4,Win32,58.9240469,Chrome,1536,864,,,a,0.9076,1,107,0,1,4,16,5,1,0,1,0,0,0,0,0,1,circle,star,,,,,,,,,,,,,,,,,,,,,,,,,,,,,,,,,,,,,,,,,,,,,,,,,,,,,,
297166,2022-11-29_04h59.50.797,vts_reward_expectancy_bt,2022.2.4,Win32,58.9240469,Chrome,1536,864,,,l,1.1375,10,117,0,1,5,17,6,1,0,0,1,0,1,0,0,0,hexagon,triangle,,,,,,,,,,,,,,,,,,,,,,,,,,,,,,,,,,,,,,,,,,,,,,,,,,,,,,
297166,2022-11-29_04h59.50.797,vts_reward_expectancy_bt,2022.2.4,Win32,58.9240469,Chrome,1536,864,,,a,1.2358,10,127,0,1,6,18,8,1,0,0,1,0,0,0,0,1,hexagon,star,,,,,,,,,,,,,,,,,,,,,,,,,,,,,,,,,,,,,,,,,,,,,,,,,,,,,,
297166,2022-11-29_04h59.50.797,vts_reward_expectancy_bt,2022.2.4,Win32,58.9240469,Chrome,1536,864,,,l,0.5971,10,137,0,1,7,19,10,1,0,0,0,1,0,1,0,0,star ,circle,,,,,,,,,,,,,,,,,,,,,,,,,,,,,,,,,,,,,,,,,,,,,,,,,,,,,,
297166,2022-11-29_04h59.50.797,vts_reward_expectancy_bt,2022.2.4,Win32,58.9240469,Chrome,1536,864,,,a,0.6489,10,147,0,1,8,20,4,1,0,1,0,0,0,0,1,0,circle,hexagon,,,,,,,,,,,,,,,,,,,,,,,,,,,,,,,,,,,,,,,,,,,,,,,,,,,,,,
297166,2022-11-29_04h59.50.797,vts_reward_expectancy_bt,2022.2.4,Win32,58.9240469,Chrome,1536,864,,,l,1.3269,10,157,0,1,9,21,11,1,0,0,0,1,0,0,1,0,star,hexagon,,,,,,,,,,,,,,,,,,,,,,,,,,,,,,,,,,,,,,,,,,,,,,,,,,,,,,
297166,2022-11-29_04h59.50.797,vts_reward_expectancy_bt,2022.2.4,Win32,58.9240469,Chrome,1536,864,,,l,0.9987,1,158,0,1,10,22,7,1,0,0,1,0,0,1,0,0,hexagon,circle,,,,,,,,,,,,,,,,,,,,,,,,,,,,,,,,,,,,,,,,,,,,,,,,,,,,,,
297166,2022-11-29_04h59.50.797,vts_reward_expectancy_bt,2022.2.4,Win32,58.9240469,Chrome,1536,864,,,a,1.0578,1,159,0,1,11,23,1,1,1,0,0,0,0,0,1,0,triangle,hexagon,,,,,,,,,,,,,,,,,,,,,,,,,,,,,,,,,,,,,,,,,,,,,,,,,,,,,,
297166,2022-11-29_04h59.50.797,vts_reward_expectancy_bt,2022.2.4,Win32,58.9240469,Chrome,1536,864,,,a,1.2562,1,160,0,2,0,24,1,1,1,0,0,0,0,0,1,0,triangle,hexagon,,,,,,,,,,,,,,,,,,,,,,,,,,,,,,,,,,,,,,,,,,,,,,,,,,,,,,
297166,2022-11-29_04h59.50.797,vts_reward_expectancy_bt,2022.2.4,Win32,58.9240469,Chrome,1536,864,,,a,1.1848,10,170,0,2,1,25,8,1,0,0,1,0,0,0,0,1,hexagon,star,,,,,,,,,,,,,,,,,,,,,,,,,,,,,,,,,,,,,,,,,,,,,,,,,,,,,,
297166,2022-11-29_04h59.50.797,vts_reward_expectancy_bt,2022.2.4,Win32,58.9240469,Chrome,1536,864,,,a,1.2352,10,180,0,2,2,26,5,1,0,1,0,0,0,0,0,1,circle,star,,,,,,,,,,,,,,,,,,,,,,,,,,,,,,,,,,,,,,,,,,,,,,,,,,,,,,
297166,2022-11-29_04h59.50.797,vts_reward_expectancy_bt,2022.2.4,Win32,58.9240469,Chrome,1536,864,,,l,0.8834,10,190,0,2,3,27,10,1,0,0,0,1,0,1,0,0,star ,circle,,,,,,,,,,,,,,,,,,,,,,,,,,,,,,,,,,,,,,,,,,,,,,,,,,,,,,
297166,2022-11-29_04h59.50.797,vts_reward_expectancy_bt,2022.2.4,Win32,58.9240469,Chrome,1536,864,,,l,0.8236,10,200,0,2,4,28,0,1,1,0,0,0,0,1,0,0,triangle,circle,,,,,,,,,,,,,,,,,,,,,,,,,,,,,,,,,,,,,,,,,,,,,,,,,,,,,,
297166,2022-11-29_04h59.50.797,vts_reward_expectancy_bt,2022.2.4,Win32,58.9240469,Chrome,1536,864,,,l,1.6237,10,210,0,2,5,29,4,1,0,1,0,0,0,0,1,0,circle,hexagon,,,,,,,,,,,,,,,,,,,,,,,,,,,,,,,,,,,,,,,,,,,,,,,,,,,,,,
297166,2022-11-29_04h59.50.797,vts_reward_expectancy_bt,2022.2.4,Win32,58.9240469,Chrome,1536,864,,,l,1.2403,10,220,0,2,6,30,11,1,0,0,0,1,0,0,1,0,star,hexagon,,,,,,,,,,,,,,,,,,,,,,,,,,,,,,,,,,,,,,,,,,,,,,,,,,,,,,
297166,2022-11-29_04h59.50.797,vts_reward_expectancy_bt,2022.2.4,Win32,58.9240469,Chrome,1536,864,,,l,1.2032,10,230,0,2,7,31,9,1,0,0,0,1,1,0,0,0,star,triangle,,,,,,,,,,,,,,,,,,,,,,,,,,,,,,,,,,,,,,,,,,,,,,,,,,,,,,
297166,2022-11-29_04h59.50.797,vts_reward_expectancy_bt,2022.2.4,Win32,58.9240469,Chrome,1536,864,,,l,2.2902,1,231,0,2,8,32,6,1,0,0,1,0,1,0,0,0,hexagon,triangle,,,,,,,,,,,,,,,,,,,,,,,,,,,,,,,,,,,,,,,,,,,,,,,,,,,,,,
297166,2022-11-29_04h59.50.797,vts_reward_expectancy_bt,2022.2.4,Win32,58.9240469,Chrome,1536,864,,,a,1.1373,10,241,0,2,9,33,3,1,0,1,0,0,1,0,0,0,circle,triangle,,,,,,,,,,,,,,,,,,,,,,,,,,,,,,,,,,,,,,,,,,,,,,,,,,,,,,
297166,2022-11-29_04h59.50.797,vts_reward_expectancy_bt,2022.2.4,Win32,58.9240469,Chrome,1536,864,,,l,1.3834,10,251,0,2,10,34,7,1,0,0,1,0,0,1,0,0,hexagon,circle,,,,,,,,,,,,,,,,,,,,,,,,,,,,,,,,,,,,,,,,,,,,,,,,,,,,,,
297166,2022-11-29_04h59.50.797,vts_reward_expectancy_bt,2022.2.4,Win32,58.9240469,Chrome,1536,864,,,a,1.2695,10,261,0,2,11,35,2,1,1,0,0,0,0,0,0,1,triangle,star,,,,,,,,,,,,,,,,,,,,,,,,,,,,,,,,,,,,,,,,,,,,,,,,,,,,,,
297166,2022-11-29_04h59.50.797,vts_reward_expectancy_bt,2022.2.4,Win32,58.9240469,Chrome,1536,864,,,a,1.5396,1,262,1,0,0,0,1,1,1,0,0,0,0,0,1,0,triangle,hexagon,,,,,,,,,,,,,,,,,,,,,,,,,,,,,,,,,,,,,,,,,,,,,,,,,,,,,,
297166,2022-11-29_04h59.50.797,vts_reward_expectancy_bt,2022.2.4,Win32,58.9240469,Chrome,1536,864,,,l,0.7953,10,272,1,0,1,1,10,1,0,0,0,1,0,1,0,0,star ,circle,,,,,,,,,,,,,,,,,,,,,,,,,,,,,,,,,,,,,,,,,,,,,,,,,,,,,,
297166,2022-11-29_04h59.50.797,vts_reward_expectancy_bt,2022.2.4,Win32,58.9240469,Chrome,1536,864,,,a,0.9019,10,282,1,0,2,2,2,1,1,0,0,0,0,0,0,1,triangle,star,,,,,,,,,,,,,,,,,,,,,,,,,,,,,,,,,,,,,,,,,,,,,,,,,,,,,,
297166,2022-11-29_04h59.50.797,vts_reward_expectancy_bt,2022.2.4,Win32,58.9240469,Chrome,1536,864,,,a,0.9871,1,283,1,0,3,3,8,1,0,0,1,0,0,0,0,1,hexagon,star,,,,,,,,,,,,,,,,,,,,,,,,,,,,,,,,,,,,,,,,,,,,,,,,,,,,,,
297166,2022-11-29_04h59.50.797,vts_reward_expectancy_bt,2022.2.4,Win32,58.9240469,Chrome,1536,864,,,l,1.6191,1,284,1,0,4,4,7,1,0,0,1,0,0,1,0,0,hexagon,circle,,,,,,,,,,,,,,,,,,,,,,,,,,,,,,,,,,,,,,,,,,,,,,,,,,,,,,
297166,2022-11-29_04h59.50.797,vts_reward_expectancy_bt,2022.2.4,Win32,58.9240469,Chrome,1536,864,,,a,1.4512,1,285,1,0,5,5,3,1,0,1,0,0,1,0,0,0,circle,triangle,,,,,,,,,,,,,,,,,,,,,,,,,,,,,,,,,,,,,,,,,,,,,,,,,,,,,,
297166,2022-11-29_04h59.50.797,vts_reward_expectancy_bt,2022.2.4,Win32,58.9240469,Chrome,1536,864,,,l,1.417,10,295,1,0,6,6,4,1,0,1,0,0,0,0,1,0,circle,hexagon,,,,,,,,,,,,,,,,,,,,,,,,,,,,,,,,,,,,,,,,,,,,,,,,,,,,,,
297166,2022-11-29_04h59.50.797,vts_reward_expectancy_bt,2022.2.4,Win32,58.9240469,Chrome,1536,864,,,l,0.7052,1,296,1,0,7,7,5,1,0,1,0,0,0,0,0,1,circle,star,,,,,,,,,,,,,,,,,,,,,,,,,,,,,,,,,,,,,,,,,,,,,,,,,,,,,,
297166,2022-11-29_04h59.50.797,vts_reward_expectancy_bt,2022.2.4,Win32,58.9240469,Chrome,1536,864,,,a,1.1946,1,297,1,0,8,8,0,1,1,0,0,0,0,1,0,0,triangle,circle,,,,,,,,,,,,,,,,,,,,,,,,,,,,,,,,,,,,,,,,,,,,,,,,,,,,,,
297166,2022-11-29_04h59.50.797,vts_reward_expectancy_bt,2022.2.4,Win32,58.9240469,Chrome,1536,864,,,l,1.3629,1,298,1,0,9,9,6,1,0,0,1,0,1,0,0,0,hexagon,triangle,,,,,,,,,,,,,,,,,,,,,,,,,,,,,,,,,,,,,,,,,,,,,,,,,,,,,,
297166,2022-11-29_04h59.50.797,vts_reward_expectancy_bt,2022.2.4,Win32,58.9240469,Chrome,1536,864,,,a,0.7867,1,299,1,0,10,10,9,1,0,0,0,1,1,0,0,0,star,triangle,,,,,,,,,,,,,,,,,,,,,,,,,,,,,,,,,,,,,,,,,,,,,,,,,,,,,,
297166,2022-11-29_04h59.50.797,vts_reward_expectancy_bt,2022.2.4,Win32,58.9240469,Chrome,1536,864,,,l,1.3314,1,300,1,0,11,11,11,1,0,0,0,1,0,0,1,0,star,hexagon,,,,,,,,,,,,,,,,,,,,,,,,,,,,,,,,,,,,,,,,,,,,,,,,,,,,,,
297166,2022-11-29_04h59.50.797,vts_reward_expectancy_bt,2022.2.4,Win32,58.9240469,Chrome,1536,864,,,a,0.7466,1,301,1,1,0,12,9,1,0,0,0,1,1,0,0,0,star,triangle,,,,,,,,,,,,,,,,,,,,,,,,,,,,,,,,,,,,,,,,,,,,,,,,,,,,,,
297166,2022-11-29_04h59.50.797,vts_reward_expectancy_bt,2022.2.4,Win32,58.9240469,Chrome,1536,864,,,l,1.4703,1,302,1,1,1,13,6,1,0,0,1,0,1,0,0,0,hexagon,triangle,,,,,,,,,,,,,,,,,,,,,,,,,,,,,,,,,,,,,,,,,,,,,,,,,,,,,,
297166,2022-11-29_04h59.50.797,vts_reward_expectancy_bt,2022.2.4,Win32,58.9240469,Chrome,1536,864,,,l,1.1283,10,312,1,1,2,14,1,1,1,0,0,0,0,0,1,0,triangle,hexagon,,,,,,,,,,,,,,,,,,,,,,,,,,,,,,,,,,,,,,,,,,,,,,,,,,,,,,
297166,2022-11-29_04h59.50.797,vts_reward_expectancy_bt,2022.2.4,Win32,58.9240469,Chrome,1536,864,,,a,1.2473,10,322,1,1,3,15,0,1,1,0,0,0,0,1,0,0,triangle,circle,,,,,,,,,,,,,,,,,,,,,,,,,,,,,,,,,,,,,,,,,,,,,,,,,,,,,,
297166,2022-11-29_04h59.50.797,vts_reward_expectancy_bt,2022.2.4,Win32,58.9240469,Chrome,1536,864,,,l,1.0508,10,332,1,1,4,16,4,1,0,1,0,0,0,0,1,0,circle,hexagon,,,,,,,,,,,,,,,,,,,,,,,,,,,,,,,,,,,,,,,,,,,,,,,,,,,,,,
297166,2022-11-29_04h59.50.797,vts_reward_expectancy_bt,2022.2.4,Win32,58.9240469,Chrome,1536,864,,,a,0.5735,1,333,1,1,5,17,11,1,0,0,0,1,0,0,1,0,star,hexagon,,,,,,,,,,,,,,,,,,,,,,,,,,,,,,,,,,,,,,,,,,,,,,,,,,,,,,
297166,2022-11-29_04h59.50.797,vts_reward_expectancy_bt,2022.2.4,Win32,58.9240469,Chrome,1536,864,,,a,1.7067,1,334,1,1,6,18,8,1,0,0,1,0,0,0,0,1,hexagon,star,,,,,,,,,,,,,,,,,,,,,,,,,,,,,,,,,,,,,,,,,,,,,,,,,,,,,,
297166,2022-11-29_04h59.50.797,vts_reward_expectancy_bt,2022.2.4,Win32,58.9240469,Chrome,1536,864,,,a,2.1754,1,335,1,1,7,19,10,1,0,0,0,1,0,1,0,0,star ,circle,,,,,,,,,,,,,,,,,,,,,,,,,,,,,,,,,,,,,,,,,,,,,,,,,,,,,,
297166,2022-11-29_04h59.50.797,vts_reward_expectancy_bt,2022.2.4,Win32,58.9240469,Chrome,1536,864,,,l,1.2481,10,345,1,1,8,20,3,1,0,1,0,0,1,0,0,0,circle,triangle,,,,,,,,,,,,,,,,,,,,,,,,,,,,,,,,,,,,,,,,,,,,,,,,,,,,,,
297166,2022-11-29_04h59.50.797,vts_reward_expectancy_bt,2022.2.4,Win32,58.9240469,Chrome,1536,864,,,a,1.1103,10,355,1,1,9,21,7,1,0,0,1,0,0,1,0,0,hexagon,circle,,,,,,,,,,,,,,,,,,,,,,,,,,,,,,,,,,,,,,,,,,,,,,,,,,,,,,
297166,2022-11-29_04h59.50.797,vts_reward_expectancy_bt,2022.2.4,Win32,58.9240469,Chrome,1536,864,,,l,1.5826,10,365,1,1,10,22,2,1,1,0,0,0,0,0,0,1,triangle,star,,,,,,,,,,,,,,,,,,,,,,,,,,,,,,,,,,,,,,,,,,,,,,,,,,,,,,
297166,2022-11-29_04h59.50.797,vts_reward_expectancy_bt,2022.2.4,Win32,58.9240469,Chrome,1536,864,,,l,1.6617,10,375,1,1,11,23,5,1,0,1,0,0,0,0,0,1,circle,star,,,,,,,,,,,,,,,,,,,,,,,,,,,,,,,,,,,,,,,,,,,,,,,,,,,,,,
297166,2022-11-29_04h59.50.797,vts_reward_expectancy_bt,2022.2.4,Win32,58.9240469,Chrome,1536,864,,,l,0.6608,1,376,1,2,0,24,8,1,0,0,1,0,0,0,0,1,hexagon,star,,,,,,,,,,,,,,,,,,,,,,,,,,,,,,,,,,,,,,,,,,,,,,,,,,,,,,
297166,2022-11-29_04h59.50.797,vts_reward_expectancy_bt,2022.2.4,Win32,58.9240469,Chrome,1536,864,,,a,1.6565,10,386,1,2,1,25,7,1,0,0,1,0,0,1,0,0,hexagon,circle,,,,,,,,,,,,,,,,,,,,,,,,,,,,,,,,,,,,,,,,,,,,,,,,,,,,,,
297166,2022-11-29_04h59.50.797,vts_reward_expectancy_bt,2022.2.4,Win32,58.9240469,Chrome,1536,864,,,a,1.732,10,396,1,2,2,26,11,1,0,0,0,1,0,0,1,0,star,hexagon,,,,,,,,,,,,,,,,,,,,,,,,,,,,,,,,,,,,,,,,,,,,,,,,,,,,,,
297166,2022-11-29_04h59.50.797,vts_reward_expectancy_bt,2022.2.4,Win32,58.9240469,Chrome,1536,864,,,l,1.5042,10,406,1,2,3,27,4,1,0,1,0,0,0,0,1,0,circle,hexagon,,,,,,,,,,,,,,,,,,,,,,,,,,,,,,,,,,,,,,,,,,,,,,,,,,,,,,
297166,2022-11-29_04h59.50.797,vts_reward_expectancy_bt,2022.2.4,Win32,58.9240469,Chrome,1536,864,,,l,0.8381,1,407,1,2,4,28,1,1,1,0,0,0,0,0,1,0,triangle,hexagon,,,,,,,,,,,,,,,,,,,,,,,,,,,,,,,,,,,,,,,,,,,,,,,,,,,,,,
297166,2022-11-29_04h59.50.797,vts_reward_expectancy_bt,2022.2.4,Win32,58.9240469,Chrome,1536,864,,,a,1.1252,10,417,1,2,5,29,6,1,0,0,1,0,1,0,0,0,hexagon,triangle,,,,,,,,,,,,,,,,,,,,,,,,,,,,,,,,,,,,,,,,,,,,,,,,,,,,,,
297166,2022-11-29_04h59.50.797,vts_reward_expectancy_bt,2022.2.4,Win32,58.9240469,Chrome,1536,864,,,l,1.1038,10,427,1,2,6,30,2,1,1,0,0,0,0,0,0,1,triangle,star,,,,,,,,,,,,,,,,,,,,,,,,,,,,,,,,,,,,,,,,,,,,,,,,,,,,,,
297166,2022-11-29_04h59.50.797,vts_reward_expectancy_bt,2022.2.4,Win32,58.9240469,Chrome,1536,864,,,a,1.2724,1,428,1,2,7,31,0,1,1,0,0,0,0,1,0,0,triangle,circle,,,,,,,,,,,,,,,,,,,,,,,,,,,,,,,,,,,,,,,,,,,,,,,,,,,,,,
297166,2022-11-29_04h59.50.797,vts_reward_expectancy_bt,2022.2.4,Win32,58.9240469,Chrome,1536,864,,,l,1.29,10,438,1,2,8,32,3,1,0,1,0,0,1,0,0,0,circle,triangle,,,,,,,,,,,,,,,,,,,,,,,,,,,,,,,,,,,,,,,,,,,,,,,,,,,,,,
297166,2022-11-29_04h59.50.797,vts_reward_expectancy_bt,2022.2.4,Win32,58.9240469,Chrome,1536,864,,,l,0.7609,1,439,1,2,9,33,5,1,0,1,0,0,0,0,0,1,circle,star,,,,,,,,,,,,,,,,,,,,,,,,,,,,,,,,,,,,,,,,,,,,,,,,,,,,,,
297166,2022-11-29_04h59.50.797,vts_reward_expectancy_bt,2022.2.4,Win32,58.9240469,Chrome,1536,864,,,a,0.8425,1,440,1,2,10,34,10,1,0,0,0,1,0,1,0,0,star ,circle,,,,,,,,,,,,,,,,,,,,,,,,,,,,,,,,,,,,,,,,,,,,,,,,,,,,,,
297166,2022-11-29_04h59.50.797,vts_reward_expectancy_bt,2022.2.4,Win32,58.9240469,Chrome,1536,864,,,a,1.3502,10,450,1,2,11,35,9,1,0,0,0,1,1,0,0,0,star,triangle,,,,,,,,,,,,,,,,,,,,,,,,,,,,,,,,,,,,,,,,,,,,,,,,,,,,,,
297166,2022-11-29_04h59.50.797,vts_reward_expectancy_bt,2022.2.4,Win32,58.9240469,Chrome,1536,864,,,l,1.2016,1,451,2,0,0,0,1,1,1,0,0,0,0,0,1,0,triangle,hexagon,,,,,,,,,,,,,,,,,,,,,,,,,,,,,,,,,,,,,,,,,,,,,,,,,,,,,,
297166,2022-11-29_04h59.50.797,vts_reward_expectancy_bt,2022.2.4,Win32,58.9240469,Chrome,1536,864,,,l,0.7046,10,461,2,0,1,1,8,1,0,0,1,0,0,0,0,1,hexagon,star,,,,,,,,,,,,,,,,,,,,,,,,,,,,,,,,,,,,,,,,,,,,,,,,,,,,,,
297166,2022-11-29_04h59.50.797,vts_reward_expectancy_bt,2022.2.4,Win32,58.9240469,Chrome,1536,864,,,a,0.6099,10,471,2,0,2,2,9,1,0,0,0,1,1,0,0,0,star,triangle,,,,,,,,,,,,,,,,,,,,,,,,,,,,,,,,,,,,,,,,,,,,,,,,,,,,,,
297166,2022-11-29_04h59.50.797,vts_reward_expectancy_bt,2022.2.4,Win32,58.9240469,Chrome,1536,864,,,a,0.8834,10,481,2,0,3,3,7,1,0,0,1,0,0,1,0,0,hexagon,circle,,,,,,,,,,,,,,,,,,,,,,,,,,,,,,,,,,,,,,,,,,,,,,,,,,,,,,
297166,2022-11-29_04h59.50.797,vts_reward_expectancy_bt,2022.2.4,Win32,58.9240469,Chrome,1536,864,,,a,0.6807,1,482,2,0,4,4,6,1,0,0,1,0,1,0,0,0,hexagon,triangle,,,,,,,,,,,,,,,,,,,,,,,,,,,,,,,,,,,,,,,,,,,,,,,,,,,,,,
297166,2022-11-29_04h59.50.797,vts_reward_expectancy_bt,2022.2.4,Win32,58.9240469,Chrome,1536,864,,,l,0.8268,10,492,2,0,5,5,3,1,0,1,0,0,1,0,0,0,circle,triangle,,,,,,,,,,,,,,,,,,,,,,,,,,,,,,,,,,,,,,,,,,,,,,,,,,,,,,
297166,2022-11-29_04h59.50.797,vts_reward_expectancy_bt,2022.2.4,Win32,58.9240469,Chrome,1536,864,,,a,0.9391,1,493,2,0,6,6,0,1,1,0,0,0,0,1,0,0,triangle,circle,,,,,,,,,,,,,,,,,,,,,,,,,,,,,,,,,,,,,,,,,,,,,,,,,,,,,,
297166,2022-11-29_04h59.50.797,vts_reward_expectancy_bt,2022.2.4,Win32,58.9240469,Chrome,1536,864,,,a,0.542,10,503,2,0,7,7,11,1,0,0,0,1,0,0,1,0,star,hexagon,,,,,,,,,,,,,,,,,,,,,,,,,,,,,,,,,,,,,,,,,,,,,,,,,,,,,,
297166,2022-11-29_04h59.50.797,vts_reward_expectancy_bt,2022.2.4,Win32,58.9240469,Chrome,1536,864,,,a,0.8101,10,513,2,0,8,8,10,1,0,0,0,1,0,1,0,0,star ,circle,,,,,,,,,,,,,,,,,,,,,,,,,,,,,,,,,,,,,,,,,,,,,,,,,,,,,,
297166,2022-11-29_04h59.50.797,vts_reward_expectancy_bt,2022.2.4,Win32,58.9240469,Chrome,1536,864,,,l,0.7231,1,514,2,0,9,9,5,1,0,1,0,0,0,0,0,1,circle,star,,,,,,,,,,,,,,,,,,,,,,,,,,,,,,,,,,,,,,,,,,,,,,,,,,,,,,
297166,2022-11-29_04h59.50.797,vts_reward_expectancy_bt,2022.2.4,Win32,58.9240469,Chrome,1536,864,,,l,0.7338,10,524,2,0,10,10,4,1,0,1,0,0,0,0,1,0,circle,hexagon,,,,,,,,,,,,,,,,,,,,,,,,,,,,,,,,,,,,,,,,,,,,,,,,,,,,,,
297166,2022-11-29_04h59.50.797,vts_reward_expectancy_bt,2022.2.4,Win32,58.9240469,Chrome,1536,864,,,l,0.6635,1,525,2,0,11,11,2,1,1,0,0,0,0,0,0,1,triangle,star,,,,,,,,,,,,,,,,,,,,,,,,,,,,,,,,,,,,,,,,,,,,,,,,,,,,,,
297166,2022-11-29_04h59.50.797,vts_reward_expectancy_bt,2022.2.4,Win32,58.9240469,Chrome,1536,864,,,a,0.8002,10,535,2,1,0,12,1,1,1,0,0,0,0,0,1,0,triangle,hexagon,,,,,,,,,,,,,,,,,,,,,,,,,,,,,,,,,,,,,,,,,,,,,,,,,,,,,,
297166,2022-11-29_04h59.50.797,vts_reward_expectancy_bt,2022.2.4,Win32,58.9240469,Chrome,1536,864,,,a,0.5885,1,536,2,1,1,13,9,1,0,0,0,1,1,0,0,0,star,triangle,,,,,,,,,,,,,,,,,,,,,,,,,,,,,,,,,,,,,,,,,,,,,,,,,,,,,,
297166,2022-11-29_04h59.50.797,vts_reward_expectancy_bt,2022.2.4,Win32,58.9240469,Chrome,1536,864,,,l,0.7471,10,546,2,1,2,14,0,1,1,0,0,0,0,1,0,0,triangle,circle,,,,,,,,,,,,,,,,,,,,,,,,,,,,,,,,,,,,,,,,,,,,,,,,,,,,,,
297166,2022-11-29_04h59.50.797,vts_reward_expectancy_bt,2022.2.4,Win32,58.9240469,Chrome,1536,864,,,a,1.0667,10,556,2,1,3,15,3,1,0,1,0,0,1,0,0,0,circle,triangle,,,,,,,,,,,,,,,,,,,,,,,,,,,,,,,,,,,,,,,,,,,,,,,,,,,,,,
297166,2022-11-29_04h59.50.797,vts_reward_expectancy_bt,2022.2.4,Win32,58.9240469,Chrome,1536,864,,,l,1.7359,10,566,2,1,4,16,11,1,0,0,0,1,0,0,1,0,star,hexagon,,,,,,,,,,,,,,,,,,,,,,,,,,,,,,,,,,,,,,,,,,,,,,,,,,,,,,
297166,2022-11-29_04h59.50.797,vts_reward_expectancy_bt,2022.2.4,Win32,58.9240469,Chrome,1536,864,,,a,1.2764,10,576,2,1,5,17,6,1,0,0,1,0,1,0,0,0,hexagon,triangle,,,,,,,,,,,,,,,,,,,,,,,,,,,,,,,,,,,,,,,,,,,,,,,,,,,,,,
297166,2022-11-29_04h59.50.797,vts_reward_expectancy_bt,2022.2.4,Win32,58.9240469,Chrome,1536,864,,,a,1.168,10,586,2,1,6,18,7,1,0,0,1,0,0,1,0,0,hexagon,circle,,,,,,,,,,,,,,,,,,,,,,,,,,,,,,,,,,,,,,,,,,,,,,,,,,,,,,
297166,2022-11-29_04h59.50.797,vts_reward_expectancy_bt,2022.2.4,Win32,58.9240469,Chrome,1536,864,,,l,1.4879,10,596,2,1,7,19,10,1,0,0,0,1,0,1,0,0,star ,circle,,,,,,,,,,,,,,,,,,,,,,,,,,,,,,,,,,,,,,,,,,,,,,,,,,,,,,
297166,2022-11-29_04h59.50.797,vts_reward_expectancy_bt,2022.2.4,Win32,58.9240469,Chrome,1536,864,,,l,1.305,10,606,2,1,8,20,2,1,1,0,0,0,0,0,0,1,triangle,star,,,,,,,,,,,,,,,,,,,,,,,,,,,,,,,,,,,,,,,,,,,,,,,,,,,,,,
297166,2022-11-29_04h59.50.797,vts_reward_expectancy_bt,2022.2.4,Win32,58.9240469,Chrome,1536,864,,,l,0.7247,1,607,2,1,9,21,5,1,0,1,0,0,0,0,0,1,circle,star,,,,,,,,,,,,,,,,,,,,,,,,,,,,,,,,,,,,,,,,,,,,,,,,,,,,,,
297166,2022-11-29_04h59.50.797,vts_reward_expectancy_bt,2022.2.4,Win32,58.9240469,Chrome,1536,864,,,a,1.3664,10,617,2,1,10,22,4,1,0,1,0,0,0,0,1,0,circle,hexagon,,,,,,,,,,,,,,,,,,,,,,,,,,,,,,,,,,,,,,,,,,,,,,,,,,,,,,
297166,2022-11-29_04h59.50.797,vts_reward_expectancy_bt,2022.2.4,Win32,58.9240469,Chrome,1536,864,,,a,1.4145,1,618,2,1,11,23,8,1,0,0,1,0,0,0,0,1,hexagon,star,,,,,,,,,,,,,,,,,,,,,,,,,,,,,,,,,,,,,,,,,,,,,,,,,,,,,,
297166,2022-11-29_04h59.50.797,vts_reward_expectancy_bt,2022.2.4,Win32,58.9240469,Chrome,1536,864,,,a,0.7096,10,628,2,2,0,24,0,1,1,0,0,0,0,1,0,0,triangle,circle,,,,,,,,,,,,,,,,,,,,,,,,,,,,,,,,,,,,,,,,,,,,,,,,,,,,,,
297166,2022-11-29_04h59.50.797,vts_reward_expectancy_bt,2022.2.4,Win32,58.9240469,Chrome,1536,864,,,l,0.8478,10,638,2,2,1,25,4,1,0,1,0,0,0,0,1,0,circle,hexagon,,,,,,,,,,,,,,,,,,,,,,,,,,,,,,,,,,,,,,,,,,,,,,,,,,,,,,
297166,2022-11-29_04h59.50.797,vts_reward_expectancy_bt,2022.2.4,Win32,58.9240469,Chrome,1536,864,,,a,3.9548,10,648,2,2,2,26,10,1,0,0,0,1,0,1,0,0,star ,circle,,,,,,,,,,,,,,,,,,,,,,,,,,,,,,,,,,,,,,,,,,,,,,,,,,,,,,
297166,2022-11-29_04h59.50.797,vts_reward_expectancy_bt,2022.2.4,Win32,58.9240469,Chrome,1536,864,,,a,1.8418,1,649,2,2,3,27,7,1,0,0,1,0,0,1,0,0,hexagon,circle,,,,,,,,,,,,,,,,,,,,,,,,,,,,,,,,,,,,,,,,,,,,,,,,,,,,,,
297166,2022-11-29_04h59.50.797,vts_reward_expectancy_bt,2022.2.4,Win32,58.9240469,Chrome,1536,864,,,l,1.1192,1,650,2,2,4,28,3,1,0,1,0,0,1,0,0,0,circle,triangle,,,,,,,,,,,,,,,,,,,,,,,,,,,,,,,,,,,,,,,,,,,,,,,,,,,,,,
297166,2022-11-29_04h59.50.797,vts_reward_expectancy_bt,2022.2.4,Win32,58.9240469,Chrome,1536,864,,,l,3.7012,10,660,2,2,5,29,1,1,1,0,0,0,0,0,1,0,triangle,hexagon,,,,,,,,,,,,,,,,,,,,,,,,,,,,,,,,,,,,,,,,,,,,,,,,,,,,,,
297166,2022-11-29_04h59.50.797,vts_reward_expectancy_bt,2022.2.4,Win32,58.9240469,Chrome,1536,864,,,a,0.7694,1,661,2,2,6,30,9,1,0,0,0,1,1,0,0,0,star,triangle,,,,,,,,,,,,,,,,,,,,,,,,,,,,,,,,,,,,,,,,,,,,,,,,,,,,,,
297166,2022-11-29_04h59.50.797,vts_reward_expectancy_bt,2022.2.4,Win32,58.9240469,Chrome,1536,864,,,l,1.2107,1,662,2,2,7,31,8,1,0,0,1,0,0,0,0,1,hexagon,star,,,,,,,,,,,,,,,,,,,,,,,,,,,,,,,,,,,,,,,,,,,,,,,,,,,,,,
297166,2022-11-29_04h59.50.797,vts_reward_expectancy_bt,2022.2.4,Win32,58.9240469,Chrome,1536,864,,,l,0.7039,1,663,2,2,8,32,2,1,1,0,0,0,0,0,0,1,triangle,star,,,,,,,,,,,,,,,,,,,,,,,,,,,,,,,,,,,,,,,,,,,,,,,,,,,,,,
297166,2022-11-29_04h59.50.797,vts_reward_expectancy_bt,2022.2.4,Win32,58.9240469,Chrome,1536,864,,,a,0.4706,1,664,2,2,9,33,11,1,0,0,0,1,0,0,1,0,star,hexagon,,,,,,,,,,,,,,,,,,,,,,,,,,,,,,,,,,,,,,,,,,,,,,,,,,,,,,
297166,2022-11-29_04h59.50.797,vts_reward_expectancy_bt,2022.2.4,Win32,58.9240469,Chrome,1536,864,,,l,0.6015,10,674,2,2,10,34,5,1,0,1,0,0,0,0,0,1,circle,star,,,,,,,,,,,,,,,,,,,,,,,,,,,,,,,,,,,,,,,,,,,,,,,,,,,,,,
297166,2022-11-29_04h59.50.797,vts_reward_expectancy_bt,2022.2.4,Win32,58.9240469,Chrome,1536,864,,,l,0.5703,1,675,2,2,11,35,6,1,0,0,1,0,1,0,0,0,hexagon,triangle,,,,,,,,,,,,,,,,,,,,,,,,,,,,,,,,,,,,,,,,,,,,,,,,,,,,,,
297166,2022-11-29_04h59.50.797,vts_reward_expectancy_bt,2022.2.4,Win32,58.9240469,Chrome,1536,864,,,,,,,,,,,,,,,,,,,,,,,181,D,circle,1,0,f,2.8002,0,0,0,0,0,1,,,,,,,,,,,,,,,,,,,,,,,,,,,,,,,,,,,,,,,,,
297166,2022-11-29_04h59.50.797,vts_reward_expectancy_bt,2022.2.4,Win32,58.9240469,Chrome,1536,864,,,,,,,,,,,,,,,,,,,,,,,132,B,hexagon,1,0,d,2.296,0,1,0,1,0,1,,,,,,,,,,,,,,,,,,,,,,,,,,,,,,,,,,,,,,,,,
297166,2022-11-29_04h59.50.797,vts_reward_expectancy_bt,2022.2.4,Win32,58.9240469,Chrome,1536,864,,,,,,,,,,,,,,,,,,,,,,,160,Y,triangle,1,0,f,1.0739,0,2,0,2,0,1,,,,,,,,,,,,,,,,,,,,,,,,,,,,,,,,,,,,,,,,,
297166,2022-11-29_04h59.50.797,vts_reward_expectancy_bt,2022.2.4,Win32,58.9240469,Chrome,1536,864,,,,,,,,,,,,,,,,,,,,,,,167,W,star,1,0,f,1.0611,0,3,0,3,0,1,,,,,,,,,,,,,,,,,,,,,,,,,,,,,,,,,,,,,,,,,
297166,2022-11-29_04h59.50.797,vts_reward_expectancy_bt,2022.2.4,Win32,58.9240469,Chrome,1536,864,,,,,,,,,,,,,,,,,,,,,,,125,S,circle,1,0,d,0.6246,0,4,0,4,0,1,,,,,,,,,,,,,,,,,,,,,,,,,,,,,,,,,,,,,,,,,
297166,2022-11-29_04h59.50.797,vts_reward_expectancy_bt,2022.2.4,Win32,58.9240469,Chrome,1536,864,,,,,,,,,,,,,,,,,,,,,,,139,F,hexagon,0,0,f,0.7552,0,5,0,5,0,1,,,,,,,,,,,,,,,,,,,,,,,,,,,,,,,,,,,,,,,,,
297166,2022-11-29_04h59.50.797,vts_reward_expectancy_bt,2022.2.4,Win32,58.9240469,Chrome,1536,864,,,,,,,,,,,,,,,,,,,,,,,174,U,triangle,1,1,f,1.0485,0,6,0,6,0,1,,,,,,,,,,,,,,,,,,,,,,,,,,,,,,,,,,,,,,,,,
297166,2022-11-29_04h59.50.797,vts_reward_expectancy_bt,2022.2.4,Win32,58.9240469,Chrome,1536,864,,,,,,,,,,,,,,,,,,,,,,,146,H,star,0,0,f,0.687,0,7,0,7,0,1,,,,,,,,,,,,,,,,,,,,,,,,,,,,,,,,,,,,,,,,,
297166,2022-11-29_04h59.50.797,vts_reward_expectancy_bt,2022.2.4,Win32,58.9240469,Chrome,1536,864,,,,,,,,,,,,,,,,,,,,,,,181,D,hexagon,1,1,f,1.0479,0,8,0,8,0,1,,,,,,,,,,,,,,,,,,,,,,,,,,,,,,,,,,,,,,,,,
297166,2022-11-29_04h59.50.797,vts_reward_expectancy_bt,2022.2.4,Win32,58.9240469,Chrome,1536,864,,,,,,,,,,,,,,,,,,,,,,,132,B,circle,1,0,d,1.1427,0,9,0,9,0,1,,,,,,,,,,,,,,,,,,,,,,,,,,,,,,,,,,,,,,,,,
297166,2022-11-29_04h59.50.797,vts_reward_expectancy_bt,2022.2.4,Win32,58.9240469,Chrome,1536,864,,,,,,,,,,,,,,,,,,,,,,,139,B,triangle,1,0,d,0.7144,1,0,0,0,0,1,,,,,,,,,,,,,,,,,,,,,,,,,,,,,,,,,,,,,,,,,
297166,2022-11-29_04h59.50.797,vts_reward_expectancy_bt,2022.2.4,Win32,58.9240469,Chrome,1536,864,,,,,,,,,,,,,,,,,,,,,,,125,H,star,1,0,d,0.6505,1,1,0,1,0,1,,,,,,,,,,,,,,,,,,,,,,,,,,,,,,,,,,,,,,,,,
297166,2022-11-29_04h59.50.797,vts_reward_expectancy_bt,2022.2.4,Win32,58.9240469,Chrome,1536,864,,,,,,,,,,,,,,,,,,,,,,,146,U,hexagon,1,0,d,0.8047,1,2,0,2,0,1,,,,,,,,,,,,,,,,,,,,,,,,,,,,,,,,,,,,,,,,,
297166,2022-11-29_04h59.50.797,vts_reward_expectancy_bt,2022.2.4,Win32,58.9240469,Chrome,1536,864,,,,,,,,,,,,,,,,,,,,,,,167,D,circle,1,0,f,0.8018,1,3,0,3,0,1,,,,,,,,,,,,,,,,,,,,,,,,,,,,,,,,,,,,,,,,,
297166,2022-11-29_04h59.50.797,vts_reward_expectancy_bt,2022.2.4,Win32,58.9240469,Chrome,1536,864,,,,,,,,,,,,,,,,,,,,,,,181,S,triangle,1,0,f,0.7853,1,4,0,4,0,1,,,,,,,,,,,,,,,,,,,,,,,,,,,,,,,,,,,,,,,,,
297166,2022-11-29_04h59.50.797,vts_reward_expectancy_bt,2022.2.4,Win32,58.9240469,Chrome,1536,864,,,,,,,,,,,,,,,,,,,,,,,132,W,star,1,0,d,1.2443,1,5,0,5,0,1,,,,,,,,,,,,,,,,,,,,,,,,,,,,,,,,,,,,,,,,,
297166,2022-11-29_04h59.50.797,vts_reward_expectancy_bt,2022.2.4,Win32,58.9240469,Chrome,1536,864,,,,,,,,,,,,,,,,,,,,,,,174,F,hexagon,1,0,f,1.2522,1,6,0,6,0,1,,,,,,,,,,,,,,,,,,,,,,,,,,,,,,,,,,,,,,,,,
297166,2022-11-29_04h59.50.797,vts_reward_expectancy_bt,2022.2.4,Win32,58.9240469,Chrome,1536,864,,,,,,,,,,,,,,,,,,,,,,,160,Y,circle,1,0,f,1.3003,1,7,0,7,0,1,,,,,,,,,,,,,,,,,,,,,,,,,,,,,,,,,,,,,,,,,
297166,2022-11-29_04h59.50.797,vts_reward_expectancy_bt,2022.2.4,Win32,58.9240469,Chrome,1536,864,,,,,,,,,,,,,,,,,,,,,,,139,B,circle,1,0,d,1.3204,1,8,0,8,0,1,,,,,,,,,,,,,,,,,,,,,,,,,,,,,,,,,,,,,,,,,
297166,2022-11-29_04h59.50.797,vts_reward_expectancy_bt,2022.2.4,Win32,58.9240469,Chrome,1536,864,,,,,,,,,,,,,,,,,,,,,,,125,H,triangle,1,0,d,0.5863,1,9,0,9,0,1,,,,,,,,,,,,,,,,,,,,,,,,,,,,,,,,,,,,,,,,,
297166,2022-11-29_04h59.50.797,vts_reward_expectancy_bt,2022.2.4,Win32,58.9240469,Chrome,1536,864,,,,,,,,,,,,,,,,,,,,,,,139,D,star,1,0,,,2,,,,,,j,1.8351,0,0,0,0,1,,,,,,,,,,,,,,,,,,,,,,,,,,,,,,,,,,
297166,2022-11-29_04h59.50.797,vts_reward_expectancy_bt,2022.2.4,Win32,58.9240469,Chrome,1536,864,,,,,,,,,,,,,,,,,,,,,,,167,H,circle,0,0,,,2,,,,,,,,1,0,1,0,1,,,,,,,,,,,,,,,,,,,,,,,,,,,,,,,,,,
297166,2022-11-29_04h59.50.797,vts_reward_expectancy_bt,2022.2.4,Win32,58.9240469,Chrome,1536,864,,,,,,,,,,,,,,,,,,,,,,,132,S,hexagon,1,1,,,2,,,,,,k,1.2019,2,0,2,0,1,,,,,,,,,,,,,,,,,,,,,,,,,,,,,,,,,,
297166,2022-11-29_04h59.50.797,vts_reward_expectancy_bt,2022.2.4,Win32,58.9240469,Chrome,1536,864,,,,,,,,,,,,,,,,,,,,,,,181,U,triangle,1,0,,,2,,,,,,k,0.9691,3,0,3,0,1,,,,,,,,,,,,,,,,,,,,,,,,,,,,,,,,,,
297166,2022-11-29_04h59.50.797,vts_reward_expectancy_bt,2022.2.4,Win32,58.9240469,Chrome,1536,864,,,,,,,,,,,,,,,,,,,,,,,125,B,star,1,0,,,2,,,,,,j,0.6857,4,0,4,0,1,,,,,,,,,,,,,,,,,,,,,,,,,,,,,,,,,,
297166,2022-11-29_04h59.50.797,vts_reward_expectancy_bt,2022.2.4,Win32,58.9240469,Chrome,1536,864,,,,,,,,,,,,,,,,,,,,,,,146,W,circle,1,0,,,2,,,,,,k,0.988,5,0,5,0,1,,,,,,,,,,,,,,,,,,,,,,,,,,,,,,,,,,
297166,2022-11-29_04h59.50.797,vts_reward_expectancy_bt,2022.2.4,Win32,58.9240469,Chrome,1536,864,,,,,,,,,,,,,,,,,,,,,,,160,F,hexagon,1,0,,,2,,,,,,j,0.891,6,0,6,0,1,,,,,,,,,,,,,,,,,,,,,,,,,,,,,,,,,,
297166,2022-11-29_04h59.50.797,vts_reward_expectancy_bt,2022.2.4,Win32,58.9240469,Chrome,1536,864,,,,,,,,,,,,,,,,,,,,,,,174,Y,triangle,1,0,,,2,,,,,,k,1.0536,7,0,7,0,1,,,,,,,,,,,,,,,,,,,,,,,,,,,,,,,,,,
297166,2022-11-29_04h59.50.797,vts_reward_expectancy_bt,2022.2.4,Win32,58.9240469,Chrome,1536,864,,,,,,,,,,,,,,,,,,,,,,,139,D,circle,1,0,,,2,,,,,,j,1.1853,8,0,8,0,1,,,,,,,,,,,,,,,,,,,,,,,,,,,,,,,,,,
297166,2022-11-29_04h59.50.797,vts_reward_expectancy_bt,2022.2.4,Win32,58.9240469,Chrome,1536,864,,,,,,,,,,,,,,,,,,,,,,,167,H,triangle,0,0,,,2,,,,,,,,9,0,9,0,1,,,,,,,,,,,,,,,,,,,,,,,,,,,,,,,,,,
297166,2022-11-29_04h59.50.797,vts_reward_expectancy_bt,2022.2.4,Win32,58.9240469,Chrome,1536,864,,,,,,,,,,,,,,,,,,,,,,,160,W,star,1,1,,,3,,,,,,k,0.6182,0,0,0,0,1,,,,,,,,,,,,,,,,,,,,,,,,,,,,,,,,,,
297166,2022-11-29_04h59.50.797,vts_reward_expectancy_bt,2022.2.4,Win32,58.9240469,Chrome,1536,864,,,,,,,,,,,,,,,,,,,,,,,132,Y,triangle,1,0,,,3,,,,,,k,0.5311,1,0,1,0,1,,,,,,,,,,,,,,,,,,,,,,,,,,,,,,,,,,
297166,2022-11-29_04h59.50.797,vts_reward_expectancy_bt,2022.2.4,Win32,58.9240469,Chrome,1536,864,,,,,,,,,,,,,,,,,,,,,,,146,H,circle,1,0,,,3,,,,,,j,0.737,2,0,2,0,1,,,,,,,,,,,,,,,,,,,,,,,,,,,,,,,,,,
297166,2022-11-29_04h59.50.797,vts_reward_expectancy_bt,2022.2.4,Win32,58.9240469,Chrome,1536,864,,,,,,,,,,,,,,,,,,,,,,,125,B,hexagon,1,0,,,3,,,,,,j,0.4774,3,0,3,0,1,,,,,,,,,,,,,,,,,,,,,,,,,,,,,,,,,,
297166,2022-11-29_04h59.50.797,vts_reward_expectancy_bt,2022.2.4,Win32,58.9240469,Chrome,1536,864,,,,,,,,,,,,,,,,,,,,,,,139,S,star,1,0,,,3,,,,,,k,0.753,4,0,4,0,1,,,,,,,,,,,,,,,,,,,,,,,,,,,,,,,,,,
297166,2022-11-29_04h59.50.797,vts_reward_expectancy_bt,2022.2.4,Win32,58.9240469,Chrome,1536,864,,,,,,,,,,,,,,,,,,,,,,,181,D,triangle,1,0,,,3,,,,,,j,0.7215,5,0,5,0,1,,,,,,,,,,,,,,,,,,,,,,,,,,,,,,,,,,
297166,2022-11-29_04h59.50.797,vts_reward_expectancy_bt,2022.2.4,Win32,58.9240469,Chrome,1536,864,,,,,,,,,,,,,,,,,,,,,,,174,U,circle,1,0,,,3,,,,,,k,0.6644,6,0,6,0,1,,,,,,,,,,,,,,,,,,,,,,,,,,,,,,,,,,
297166,2022-11-29_04h59.50.797,vts_reward_expectancy_bt,2022.2.4,Win32,58.9240469,Chrome,1536,864,,,,,,,,,,,,,,,,,,,,,,,167,F,hexagon,1,0,,,3,,,,,,j,0.874,7,0,7,0,1,,,,,,,,,,,,,,,,,,,,,,,,,,,,,,,,,,
297166,2022-11-29_04h59.50.797,vts_reward_expectancy_bt,2022.2.4,Win32,58.9240469,Chrome,1536,864,,,,,,,,,,,,,,,,,,,,,,,160,W,triangle,0,0,,,3,,,,,,j,2.0927,8,0,8,0,1,,,,,,,,,,,,,,,,,,,,,,,,,,,,,,,,,,
297166,2022-11-29_04h59.50.797,vts_reward_expectancy_bt,2022.2.4,Win32,58.9240469,Chrome,1536,864,,,,,,,,,,,,,,,,,,,,,,,132,Y,hexagon,1,1,,,3,,,,,,k,0.5216,9,0,9,0,1,,,,,,,,,,,,,,,,,,,,,,,,,,,,,,,,,,
297166,2022-11-29_04h59.50.797,vts_reward_expectancy_bt,2022.2.4,Win32,58.9240469,Chrome,1536,864,,,,,0,675,,,,,,,,,,,,,,,,,167,S,star,-1,0,,,4,,,,,,,,,,,,,-1,no_choice,NA,,vtsPrac,0,0,0,0,1,,,,,,,,,,,,,,,,,,,,,,,,
297166,2022-11-29_04h59.50.797,vts_reward_expectancy_bt,2022.2.4,Win32,58.9240469,Chrome,1536,864,,,,,0,675,,,,,,,,,,,,,,,,,139,F,hexagon,1,0,,,4,,,,,,,,,,,,,switch,letter,lettSwt,j,vtsPrac,1,0,1,0,1,1.0706,,,,,,,,,,,,,,,,,,,,,,,
297166,2022-11-29_04h59.50.797,vts_reward_expectancy_bt,2022.2.4,Win32,58.9240469,Chrome,1536,864,,,,,0,675,,,,,,,,,,,,,,,,,125,W,star,1,0,,,4,,,,,,,,,,,,,repeat,letter,lettRpt,k,vtsPrac,2,0,2,0,1,0.8423,,,,,,,,,,,,,,,,,,,,,,,
297166,2022-11-29_04h59.50.797,vts_reward_expectancy_bt,2022.2.4,Win32,58.9240469,Chrome,1536,864,,,,,0,675,,,,,,,,,,,,,,,,,174,D,hexagon,1,0,,,4,,,,,,,,,,,,,switch,number,numSwt,f,vtsPrac,3,0,3,0,1,0.901,,,,,,,,,,,,,,,,,,,,,,,
297166,2022-11-29_04h59.50.797,vts_reward_expectancy_bt,2022.2.4,Win32,58.9240469,Chrome,1536,864,,,,,0,675,,,,,,,,,,,,,,,,,167,S,star,1,0,,,4,,,,,,,,,,,,,repeat,number,numRpt,f,vtsPrac,4,0,4,0,1,1.785,,,,,,,,,,,,,,,,,,,,,,,
297166,2022-11-29_04h59.50.797,vts_reward_expectancy_bt,2022.2.4,Win32,58.9240469,Chrome,1536,864,,,,,0,675,,,,,,,,,,,,,,,,,139,F,hexagon,1,0,,,4,,,,,,,,,,,,,repeat,number,numRpt,d,vtsPrac,5,0,5,0,1,0.8542,,,,,,,,,,,,,,,,,,,,,,,
297166,2022-11-29_04h59.50.797,vts_reward_expectancy_bt,2022.2.4,Win32,58.9240469,Chrome,1536,864,,,,,0,675,,,,,,,,,,,,,,,,,125,W,circle,1,0,,,4,,,,,,,,,,,,,switch,letter,lettSwt,k,vtsPrac,6,0,6,0,1,1.51,,,,,,,,,,,,,,,,,,,,,,,
297166,2022-11-29_04h59.50.797,vts_reward_expectancy_bt,2022.2.4,Win32,58.9240469,Chrome,1536,864,,,,,0,675,,,,,,,,,,,,,,,,,174,D,hexagon,1,0,,,4,,,,,,,,,,,,,repeat,letter,lettRpt,j,vtsPrac,7,0,7,0,1,1.0173,,,,,,,,,,,,,,,,,,,,,,,
297166,2022-11-29_04h59.50.797,vts_reward_expectancy_bt,2022.2.4,Win32,58.9240469,Chrome,1536,864,,,,,0,675,,,,,,,,,,,,,,,,,132,U,star,1,0,,,4,,,,,,,,,,,,,switch,number,numSwt,d,vtsPrac,8,0,8,0,1,1.0162,,,,,,,,,,,,,,,,,,,,,,,
297166,2022-11-29_04h59.50.797,vts_reward_expectancy_bt,2022.2.4,Win32,58.9240469,Chrome,1536,864,,,,,0,675,,,,,,,,,,,,,,,,,146,Y,hexagon,0,0,,,4,,,,,,,,,,,,,repeat,number,NA,f,vtsPrac,9,0,9,0,1,0.9509,,,,,,,,,,,,,,,,,,,,,,,
297166,2022-11-29_04h59.50.797,vts_reward_expectancy_bt,2022.2.4,Win32,58.9240469,Chrome,1536,864,,,,,0,675,,,,,,,,,,,,,,,,,125,H,star,1,1,,,4,,,,,,,,,,,,,repeat,number,numRpt,d,vtsPrac,10,0,10,0,1,0.623,,,,,,,,,,,,,,,,,,,,,,,
297166,2022-11-29_04h59.50.797,vts_reward_expectancy_bt,2022.2.4,Win32,58.9240469,Chrome,1536,864,,,,,0,675,,,,,,,,,,,,,,,,,167,F,circle,1,0,,,4,,,,,,,,,,,,,repeat,number,numRpt,f,vtsPrac,11,0,11,0,1,1.0008,,,,,,,,,,,,,,,,,,,,,,,
297166,2022-11-29_04h59.50.797,vts_reward_expectancy_bt,2022.2.4,Win32,58.9240469,Chrome,1536,864,,,,,0,675,,,,,,,,,,,,,,,,,174,W,star,1,0,,,4,,,,,,,,,,,,,switch,letter,lettSwt,k,vtsPrac,12,0,12,0,1,1.3055,,,,,,,,,,,,,,,,,,,,,,,
297166,2022-11-29_04h59.50.797,vts_reward_expectancy_bt,2022.2.4,Win32,58.9240469,Chrome,1536,864,,,,,0,675,,,,,,,,,,,,,,,,,139,B,hexagon,1,0,,,4,,,,,,,,,,,,,repeat,letter,lettRpt,j,vtsPrac,13,0,13,0,1,0.8243,,,,,,,,,,,,,,,,,,,,,,,
297166,2022-11-29_04h59.50.797,vts_reward_expectancy_bt,2022.2.4,Win32,58.9240469,Chrome,1536,864,,,,,0,675,,,,,,,,,,,,,,,,,167,F,triangle,1,0,,,4,,,,,,,,,,,,,repeat,letter,lettRpt,j,vtsPrac,14,0,14,0,1,1.0217,,,,,,,,,,,,,,,,,,,,,,,
297166,2022-11-29_04h59.50.797,vts_reward_expectancy_bt,2022.2.4,Win32,58.9240469,Chrome,1536,864,,,,,0,675,,,,,,,,,,,,,,,,,160,Y,hexagon,1,0,,,4,,,,,,,,,,,,,repeat,letter,lettRpt,k,vtsPrac,15,0,15,0,1,0.8249,,,,,,,,,,,,,,,,,,,,,,,
297166,2022-11-29_04h59.50.797,vts_reward_expectancy_bt,2022.2.4,Win32,58.9240469,Chrome,1536,864,,,,,0,675,,,,,,,,,,,,,,,,,132,U,hexagon,1,0,,,4,,,,,,,,,,,,,switch,number,numSwt,d,vtsPrac,16,0,16,0,1,0.6013,,,,,,,,,,,,,,,,,,,,,,,
297166,2022-11-29_04h59.50.797,vts_reward_expectancy_bt,2022.2.4,Win32,58.9240469,Chrome,1536,864,,,,,0,675,,,,,,,,,,,,,,,,,167,B,star,1,0,,,4,,,,,,,,,,,,,repeat,number,numRpt,f,vtsPrac,17,0,17,0,1,0.5992,,,,,,,,,,,,,,,,,,,,,,,
297166,2022-11-29_04h59.50.797,vts_reward_expectancy_bt,2022.2.4,Win32,58.9240469,Chrome,1536,864,,,,,0,675,,,,,,,,,,,,,,,,,125,S,star,1,0,,,4,,,,,,,,,,,,,switch,letter,lettSwt,k,vtsPrac,18,0,18,0,1,0.8537,,,,,,,,,,,,,,,,,,,,,,,
297166,2022-11-29_04h59.50.797,vts_reward_expectancy_bt,2022.2.4,Win32,58.9240469,Chrome,1536,864,,,,,0,675,,,,,,,,,,,,,,,,,139,F,hexagon,1,0,,,4,,,,,,,,,,,,,switch,number,numSwt,d,vtsPrac,19,0,19,0,1,1.9518,,,,,,,,,,,,,,,,,,,,,,,
297166,2022-11-29_04h59.50.797,vts_reward_expectancy_bt,2022.2.4,Win32,58.9240469,Chrome,1536,864,,,,,0,675,,,,,,,,,,,,,,,,,174,H,hexagon,1,0,,,4,,,,,,,,,,,,,switch,letter,lettSwt,j,vtsPrac,20,0,20,0,1,1.102,,,,,,,,,,,,,,,,,,,,,,,
297166,2022-11-29_04h59.50.797,vts_reward_expectancy_bt,2022.2.4,Win32,58.9240469,Chrome,1536,864,,,,,0,675,,,,,,,,,,,,,,,,,125,S,circle,1,0,,,4,,,,,,,,,,,,,repeat,letter,lettRpt,k,vtsPrac,21,0,21,0,1,1.3007,,,,,,,,,,,,,,,,,,,,,,,
297166,2022-11-29_04h59.50.797,vts_reward_expectancy_bt,2022.2.4,Win32,58.9240469,Chrome,1536,864,,,,,0,675,,,,,,,,,,,,,,,,,160,Y,triangle,1,0,,,4,,,,,,,,,,,,,repeat,letter,lettRpt,k,vtsPrac,22,0,22,0,1,0.7432,,,,,,,,,,,,,,,,,,,,,,,
297166,2022-11-29_04h59.50.797,vts_reward_expectancy_bt,2022.2.4,Win32,58.9240469,Chrome,1536,864,,,,,0,675,,,,,,,,,,,,,,,,,167,D,circle,1,0,,,4,,,,,,,,,,,,,switch,number,numSwt,f,vtsPrac,23,0,23,0,1,0.6975,,,,,,,,,,,,,,,,,,,,,,,
297166,2022-11-29_04h59.50.797,vts_reward_expectancy_bt,2022.2.4,Win32,58.9240469,Chrome,1536,864,,,,,0,675,,,,,,,,,,,,,,,,,132,S,circle,1,0,,,4,,,,,,,,,,,,,repeat,number,numRpt,d,vtsPrac,24,0,24,0,1,1.5294,,,,,,,,,,,,,,,,,,,,,,,
297166,2022-11-29_04h59.50.797,vts_reward_expectancy_bt,2022.2.4,Win32,58.9240469,Chrome,1536,864,,,,,0,675,,,,,,,,,,,,,,,,,139,Y,star,1,0,,,4,,,,,,,,,,,,,repeat,number,numRpt,d,vtsPrac,25,0,25,0,1,0.6771,,,,,,,,,,,,,,,,,,,,,,,
297166,2022-11-29_04h59.50.797,vts_reward_expectancy_bt,2022.2.4,Win32,58.9240469,Chrome,1536,864,,,,,0,675,,,,,,,,,,,,,,,,,160,D,circle,1,0,,,4,,,,,,,,,,,,,switch,letter,lettSwt,j,vtsPrac,26,0,26,0,1,0.7825,,,,,,,,,,,,,,,,,,,,,,,
297166,2022-11-29_04h59.50.797,vts_reward_expectancy_bt,2022.2.4,Win32,58.9240469,Chrome,1536,864,,,,,0,675,,,,,,,,,,,,,,,,,167,F,star,1,0,,,4,,,,,,,,,,,,,switch,number,numSwt,f,vtsPrac,27,0,27,0,1,0.7583,,,,,,,,,,,,,,,,,,,,,,,
297166,2022-11-29_04h59.50.797,vts_reward_expectancy_bt,2022.2.4,Win32,58.9240469,Chrome,1536,864,,,,,0,675,,,,,,,,,,,,,,,,,181,D,star,1,0,,,4,,,,,,,,,,,,,switch,letter,lettSwt,j,vtsPrac,28,0,28,0,1,0.5683,,,,,,,,,,,,,,,,,,,,,,,
297166,2022-11-29_04h59.50.797,vts_reward_expectancy_bt,2022.2.4,Win32,58.9240469,Chrome,1536,864,,,,,0,675,,,,,,,,,,,,,,,,,139,S,triangle,1,0,,,4,,,,,,,,,,,,,repeat,letter,lettRpt,k,vtsPrac,29,0,29,0,1,0.7773,,,,,,,,,,,,,,,,,,,,,,,
297166,2022-11-29_04h59.50.797,vts_reward_expectancy_bt,2022.2.4,Win32,58.9240469,Chrome,1536,864,,,,,0,675,,,,,,,,,,,,,,,,,174,U,hexagon,1,0,,,4,,,,,,,,,,,,,switch,number,numSwt,f,vtsPrac,30,0,30,0,1,0.9226,,,,,,,,,,,,,,,,,,,,,,,
297166,2022-11-29_04h59.50.797,vts_reward_expectancy_bt,2022.2.4,Win32,58.9240469,Chrome,1536,864,,,,,0,675,,,,,,,,,,,,,,,,,146,W,star,1,0,,,4,,,,,,,,,,,,,repeat,number,numRpt,d,vtsPrac,31,0,31,0,1,1.3743,,,,,,,,,,,,,,,,,,,,,,,
297166,2022-11-29_04h59.50.797,vts_reward_expectancy_bt,2022.2.4,Win32,58.9240469,Chrome,1536,864,,,,,,,,,,,,,,,,,,,,,,,,,,,,,,,,,,,,,,,,,,,,,,,,,,,,,,,,,,,,,,,,,,,,,,,,,,,,
297166,2022-11-29_04h59.50.797,vts_reward_expectancy_bt,2022.2.4,Win32,58.9240469,Chrome,1536,864,,,,,,,,,,,,,,,,,,,,,,,,,,,,,,,,,,,,,,,,,,,,,,,,,,,,,,,,,,,,,,,,,,,,,,,,,,,,
297166,2022-11-29_04h59.50.797,vts_reward_expectancy_bt,2022.2.4,Win32,58.9240469,Chrome,1536,864,,,,,0,675,,,,,,,,,,,,,,,,,181,H,triangle,1,0,,,,,,,,,,,,,,,,repeat,number,numRpt,f,noRew,,,,,,1.6167,0,0,0,0,0,1,,,,,,,,,,,,,,,,,
297166,2022-11-29_04h59.50.797,vts_reward_expectancy_bt,2022.2.4,Win32,58.9240469,Chrome,1536,864,,,,,0,675,,,,,,,,,,,,,,,,,132,W,star,1,0,,,,,,,,,,,,,,,,repeat,number,numRpt,d,noRew,,,,,,0.9691,0,1,0,1,0,1,,,,,,,,,,,,,,,,,
297166,2022-11-29_04h59.50.797,vts_reward_expectancy_bt,2022.2.4,Win32,58.9240469,Chrome,1536,864,,,,,0,675,,,,,,,,,,,,,,,,,167,F,triangle,1,0,,,,,,,,,,,,,,,,repeat,number,numRpt,f,noRew,,,,,,0.9553,0,2,0,2,0,1,,,,,,,,,,,,,,,,,
297166,2022-11-29_04h59.50.797,vts_reward_expectancy_bt,2022.2.4,Win32,58.9240469,Chrome,1536,864,,,,,0,675,,,,,,,,,,,,,,,,,139,B,star,1,0,,,,,,,,,,,,,,,,switch,letter,lettSwt,j,noRew,,,,,,0.6739,0,3,0,3,0,1,,,,,,,,,,,,,,,,,
297166,2022-11-29_04h59.50.797,vts_reward_expectancy_bt,2022.2.4,Win32,58.9240469,Chrome,1536,864,,,,,0,675,,,,,,,,,,,,,,,,,181,H,hexagon,1,0,,,,,,,,,,,,,,,,repeat,letter,lettRpt,j,noRew,,,,,,0.7572,0,4,0,4,0,1,,,,,,,,,,,,,,,,,
297166,2022-11-29_04h59.50.797,vts_reward_expectancy_bt,2022.2.4,Win32,58.9240469,Chrome,1536,864,,,,,0,675,,,,,,,,,,,,,,,,,132,W,circle,1,0,,,,,,,,,,,,,,,,repeat,letter,lettRpt,k,noRew,,,,,,0.7324,0,5,0,5,0,1,,,,,,,,,,,,,,,,,
297166,2022-11-29_04h59.50.797,vts_reward_expectancy_bt,2022.2.4,Win32,58.9240469,Chrome,1536,864,,,,,0,675,,,,,,,,,,,,,,,,,167,F,hexagon,1,0,,,,,,,,,,,,,,,,switch,number,numSwt,f,noRew,,,,,,1.9301,0,6,0,6,0,1,,,,,,,,,,,,,,,,,
297166,2022-11-29_04h59.50.797,vts_reward_expectancy_bt,2022.2.4,Win32,58.9240469,Chrome,1536,864,,,,,0,675,,,,,,,,,,,,,,,,,139,B,circle,1,0,,,,,,,,,,,,,,,,repeat,number,numRpt,d,noRew,,,,,,1.3265,0,7,0,7,0,1,,,,,,,,,,,,,,,,,
297166,2022-11-29_04h59.50.797,vts_reward_expectancy_bt,2022.2.4,Win32,58.9240469,Chrome,1536,864,,,,,0,675,,,,,,,,,,,,,,,,,167,H,hexagon,1,0,,,,,,,,,,,,,,,,switch,letter,lettSwt,j,noRew,,,,,,1.1742,0,8,0,8,0,1,,,,,,,,,,,,,,,,,
297166,2022-11-29_04h59.50.797,vts_reward_expectancy_bt,2022.2.4,Win32,58.9240469,Chrome,1536,864,,,,,0,675,,,,,,,,,,,,,,,,,132,B,circle,1,0,,,,,,,,,,,,,,,,repeat,letter,lettRpt,j,noRew,,,,,,0.6763,0,9,0,9,0,1,,,,,,,,,,,,,,,,,
297166,2022-11-29_04h59.50.797,vts_reward_expectancy_bt,2022.2.4,Win32,58.9240469,Chrome,1536,864,,,,,0,675,,,,,,,,,,,,,,,,,160,U,star,1,0,,,,,,,,,,,,,,,,repeat,letter,lettRpt,k,noRew,,,,,,1.0244,0,10,0,10,0,1,,,,,,,,,,,,,,,,,
297166,2022-11-29_04h59.50.797,vts_reward_expectancy_bt,2022.2.4,Win32,58.9240469,Chrome,1536,864,,,,,0,675,,,,,,,,,,,,,,,,,125,D,triangle,1,0,,,,,,,,,,,,,,,,switch,number,numSwt,d,noRew,,,,,,0.8421,0,11,0,11,0,1,,,,,,,,,,,,,,,,,
297166,2022-11-29_04h59.50.797,vts_reward_expectancy_bt,2022.2.4,Win32,58.9240469,Chrome,1536,864,,,,,0,675,,,,,,,,,,,,,,,,,125,S,hexagon,1,0,,,,,,,,,,,,,,,,repeat,number,numRpt,d,noRew,,,,,,0.5026,0,12,0,12,0,1,,,,,,,,,,,,,,,,,
297166,2022-11-29_04h59.50.797,vts_reward_expectancy_bt,2022.2.4,Win32,58.9240469,Chrome,1536,864,,,,,0,675,,,,,,,,,,,,,,,,,146,W,star,1,0,,,,,,,,,,,,,,,,repeat,number,numRpt,d,noRew,,,,,,1.1511,0,13,0,13,0,1,,,,,,,,,,,,,,,,,
297166,2022-11-29_04h59.50.797,vts_reward_expectancy_bt,2022.2.4,Win32,58.9240469,Chrome,1536,864,,,,,0,675,,,,,,,,,,,,,,,,,181,F,circle,1,0,,,,,,,,,,,,,,,,switch,letter,lettSwt,j,noRew,,,,,,1.1272,0,14,0,14,0,1,,,,,,,,,,,,,,,,,
297166,2022-11-29_04h59.50.797,vts_reward_expectancy_bt,2022.2.4,Win32,58.9240469,Chrome,1536,864,,,,,0,675,,,,,,,,,,,,,,,,,167,H,star,1,0,,,,,,,,,,,,,,,,repeat,letter,lettRpt,j,noRew,,,,,,0.5662,0,15,0,15,0,1,,,,,,,,,,,,,,,,,
297166,2022-11-29_04h59.50.797,vts_reward_expectancy_bt,2022.2.4,Win32,58.9240469,Chrome,1536,864,,,,,0,675,,,,,,,,,,,,,,,,,139,D,circle,1,0,,,,,,,,,,,,,,,,switch,number,numSwt,d,noRew,,,,,,0.8525,0,16,0,16,0,1,,,,,,,,,,,,,,,,,
297166,2022-11-29_04h59.50.797,vts_reward_expectancy_bt,2022.2.4,Win32,58.9240469,Chrome,1536,864,,,,,0,675,,,,,,,,,,,,,,,,,181,W,hexagon,1,0,,,,,,,,,,,,,,,,repeat,number,numRpt,f,noRew,,,,,,0.6334,0,17,0,17,0,1,,,,,,,,,,,,,,,,,
297166,2022-11-29_04h59.50.797,vts_reward_expectancy_bt,2022.2.4,Win32,58.9240469,Chrome,1536,864,,,,,0,675,,,,,,,,,,,,,,,,,174,H,circle,1,0,,,,,,,,,,,,,,,,repeat,number,numRpt,f,noRew,,,,,,0.8816,0,18,0,18,0,1,,,,,,,,,,,,,,,,,
297166,2022-11-29_04h59.50.797,vts_reward_expectancy_bt,2022.2.4,Win32,58.9240469,Chrome,1536,864,,,,,0,675,,,,,,,,,,,,,,,,,132,U,triangle,1,0,,,,,,,,,,,,,,,,switch,letter,lettSwt,k,noRew,,,,,,1.0551,0,19,0,19,0,1,,,,,,,,,,,,,,,,,
297166,2022-11-29_04h59.50.797,vts_reward_expectancy_bt,2022.2.4,Win32,58.9240469,Chrome,1536,864,,,,,0,675,,,,,,,,,,,,,,,,,139,D,circle,1,0,,,,,,,,,,,,,,,,repeat,letter,lettRpt,j,noRew,,,,,,0.8632,0,20,0,20,0,1,,,,,,,,,,,,,,,,,
297166,2022-11-29_04h59.50.797,vts_reward_expectancy_bt,2022.2.4,Win32,58.9240469,Chrome,1536,864,,,,,0,675,,,,,,,,,,,,,,,,,181,H,hexagon,1,0,,,,,,,,,,,,,,,,switch,number,numSwt,f,noRew,,,,,,0.8878,0,21,0,21,0,1,,,,,,,,,,,,,,,,,
297166,2022-11-29_04h59.50.797,vts_reward_expectancy_bt,2022.2.4,Win32,58.9240469,Chrome,1536,864,,,,,0,675,,,,,,,,,,,,,,,,,167,W,star,1,0,,,,,,,,,,,,,,,,repeat,number,numRpt,f,noRew,,,,,,0.5233,0,22,0,22,0,1,,,,,,,,,,,,,,,,,
297166,2022-11-29_04h59.50.797,vts_reward_expectancy_bt,2022.2.4,Win32,58.9240469,Chrome,1536,864,,,,,0,675,,,,,,,,,,,,,,,,,132,F,triangle,1,0,,,,,,,,,,,,,,,,repeat,number,numRpt,d,noRew,,,,,,0.5293,0,23,0,23,0,1,,,,,,,,,,,,,,,,,
297166,2022-11-29_04h59.50.797,vts_reward_expectancy_bt,2022.2.4,Win32,58.9240469,Chrome,1536,864,,,,,0,675,,,,,,,,,,,,,,,,,125,S,hexagon,1,0,,,,,,,,,,,,,,,,switch,letter,lettSwt,k,noRew,,,,,,0.7307,0,24,0,24,0,1,,,,,,,,,,,,,,,,,
297166,2022-11-29_04h59.50.797,vts_reward_expectancy_bt,2022.2.4,Win32,58.9240469,Chrome,1536,864,,,,,0,675,,,,,,,,,,,,,,,,,146,F,circle,1,0,,,,,,,,,,,,,,,,repeat,letter,lettRpt,j,noRew,,,,,,0.4836,0,25,0,25,0,1,,,,,,,,,,,,,,,,,
297166,2022-11-29_04h59.50.797,vts_reward_expectancy_bt,2022.2.4,Win32,58.9240469,Chrome,1536,864,,,,,0,675,,,,,,,,,,,,,,,,,174,B,circle,1,0,,,,,,,,,,,,,,,,repeat,letter,lettRpt,j,noRew,,,,,,0.6009,0,26,0,26,0,1,,,,,,,,,,,,,,,,,
297166,2022-11-29_04h59.50.797,vts_reward_expectancy_bt,2022.2.4,Win32,58.9240469,Chrome,1536,864,,,,,0,675,,,,,,,,,,,,,,,,,132,D,triangle,1,0,,,,,,,,,,,,,,,,switch,number,numSwt,d,noRew,,,,,,0.5602,0,27,0,27,0,1,,,,,,,,,,,,,,,,,
297166,2022-11-29_04h59.50.797,vts_reward_expectancy_bt,2022.2.4,Win32,58.9240469,Chrome,1536,864,,,,,0,675,,,,,,,,,,,,,,,,,181,W,star,1,0,,,,,,,,,,,,,,,,repeat,number,numRpt,f,noRew,,,,,,0.8272,0,28,0,28,0,1,,,,,,,,,,,,,,,,,
297166,2022-11-29_04h59.50.797,vts_reward_expectancy_bt,2022.2.4,Win32,58.9240469,Chrome,1536,864,,,,,0,675,,,,,,,,,,,,,,,,,146,B,circle,1,0,,,,,,,,,,,,,,,,switch,letter,lettSwt,j,noRew,,,,,,0.6065,0,29,0,29,0,1,,,,,,,,,,,,,,,,,
297166,2022-11-29_04h59.50.797,vts_reward_expectancy_bt,2022.2.4,Win32,58.9240469,Chrome,1536,864,,,,,0,675,,,,,,,,,,,,,,,,,139,S,hexagon,0,0,,,,,,,,,,,,,,,,repeat,letter,NA,j,noRew,,,,,,0.8851,0,30,0,30,0,1,,,,,,,,,,,,,,,,,
297166,2022-11-29_04h59.50.797,vts_reward_expectancy_bt,2022.2.4,Win32,58.9240469,Chrome,1536,864,,,,,0,675,,,,,,,,,,,,,,,,,167,F,star,1,1,,,,,,,,,,,,,,,,repeat,letter,lettRpt,j,noRew,,,,,,0.7235,0,31,0,31,0,1,,,,,,,,,,,,,,,,,
297166,2022-11-29_04h59.50.797,vts_reward_expectancy_bt,2022.2.4,Win32,58.9240469,Chrome,1536,864,,,,,0,675,,,,,,,,,,,,,,,,,174,F,star,1,0,,,,,,,,,,,,,,,,switch,number,numSwt,f,noRew,,,,,,0.7158,0,32,0,32,0,1,,,,,,,,,,,,,,,,,
297166,2022-11-29_04h59.50.797,vts_reward_expectancy_bt,2022.2.4,Win32,58.9240469,Chrome,1536,864,,,,,0,675,,,,,,,,,,,,,,,,,160,Y,circle,1,0,,,,,,,,,,,,,,,,repeat,number,numRpt,f,noRew,,,,,,0.8443,0,33,0,33,0,1,,,,,,,,,,,,,,,,,
297166,2022-11-29_04h59.50.797,vts_reward_expectancy_bt,2022.2.4,Win32,58.9240469,Chrome,1536,864,,,,,0,675,,,,,,,,,,,,,,,,,132,B,star,1,0,,,,,,,,,,,,,,,,repeat,number,numRpt,d,noRew,,,,,,0.6832,0,34,0,34,0,1,,,,,,,,,,,,,,,,,
297166,2022-11-29_04h59.50.797,vts_reward_expectancy_bt,2022.2.4,Win32,58.9240469,Chrome,1536,864,,,,,0,675,,,,,,,,,,,,,,,,,125,W,hexagon,1,0,,,,,,,,,,,,,,,,repeat,number,numRpt,d,noRew,,,,,,0.8397,0,35,0,35,0,1,,,,,,,,,,,,,,,,,
297166,2022-11-29_04h59.50.797,vts_reward_expectancy_bt,2022.2.4,Win32,58.9240469,Chrome,1536,864,,,,,0,675,,,,,,,,,,,,,,,,,139,D,star,1,0,,,,,,,,,,,,,,,,repeat,number,numRpt,d,noRew,,,,,,1.0639,0,36,0,36,0,1,,,,,,,,,,,,,,,,,
297166,2022-11-29_04h59.50.797,vts_reward_expectancy_bt,2022.2.4,Win32,58.9240469,Chrome,1536,864,,,,,0,675,,,,,,,,,,,,,,,,,181,U,circle,1,0,,,,,,,,,,,,,,,,switch,letter,lettSwt,k,noRew,,,,,,0.5642,0,37,0,37,0,1,,,,,,,,,,,,,,,,,
297166,2022-11-29_04h59.50.797,vts_reward_expectancy_bt,2022.2.4,Win32,58.9240469,Chrome,1536,864,,,,,0,675,,,,,,,,,,,,,,,,,132,H,circle,1,0,,,,,,,,,,,,,,,,repeat,letter,lettRpt,j,noRew,,,,,,0.7516,0,38,0,38,0,1,,,,,,,,,,,,,,,,,
297166,2022-11-29_04h59.50.797,vts_reward_expectancy_bt,2022.2.4,Win32,58.9240469,Chrome,1536,864,,,,,0,675,,,,,,,,,,,,,,,,,174,W,triangle,1,0,,,,,,,,,,,,,,,,repeat,letter,lettRpt,k,noRew,,,,,,0.7535,0,39,0,39,0,1,,,,,,,,,,,,,,,,,
297166,2022-11-29_04h59.50.797,vts_reward_expectancy_bt,2022.2.4,Win32,58.9240469,Chrome,1536,864,,,,,0,675,,,,,,,,,,,,,,,,,125,F,triangle,1,0,,,,,,,,,,,,,,,,repeat,letter,lettRpt,j,noRew,,,,,,0.7703,0,40,0,40,0,1,,,,,,,,,,,,,,,,,
297166,2022-11-29_04h59.50.797,vts_reward_expectancy_bt,2022.2.4,Win32,58.9240469,Chrome,1536,864,,,,,0,675,,,,,,,,,,,,,,,,,139,W,star,1,0,,,,,,,,,,,,,,,,switch,number,numSwt,d,noRew,,,,,,0.7867,0,41,0,41,0,1,,,,,,,,,,,,,,,,,
297166,2022-11-29_04h59.50.797,vts_reward_expectancy_bt,2022.2.4,Win32,58.9240469,Chrome,1536,864,,,,,0,675,,,,,,,,,,,,,,,,,174,H,star,1,0,,,,,,,,,,,,,,,,repeat,number,numRpt,f,noRew,,,,,,0.6214,0,42,0,42,0,1,,,,,,,,,,,,,,,,,
297166,2022-11-29_04h59.50.797,vts_reward_expectancy_bt,2022.2.4,Win32,58.9240469,Chrome,1536,864,,,,,0,675,,,,,,,,,,,,,,,,,160,U,hexagon,1,0,,,,,,,,,,,,,,,,repeat,number,numRpt,f,noRew,,,,,,0.8022,0,43,0,43,0,1,,,,,,,,,,,,,,,,,
297166,2022-11-29_04h59.50.797,vts_reward_expectancy_bt,2022.2.4,Win32,58.9240469,Chrome,1536,864,,,,,0,675,,,,,,,,,,,,,,,,,174,Y,star,1,0,,,,,,,,,,,,,,,,repeat,number,numRpt,f,noRew,,,,,,0.6603,0,44,0,44,0,1,,,,,,,,,,,,,,,,,
297166,2022-11-29_04h59.50.797,vts_reward_expectancy_bt,2022.2.4,Win32,58.9240469,Chrome,1536,864,,,,,0,675,,,,,,,,,,,,,,,,,181,F,hexagon,1,0,,,,,,,,,,,,,,,,switch,letter,lettSwt,j,noRew,,,,,,0.7299,0,45,0,45,0,1,,,,,,,,,,,,,,,,,
297166,2022-11-29_04h59.50.797,vts_reward_expectancy_bt,2022.2.4,Win32,58.9240469,Chrome,1536,864,,,,,0,675,,,,,,,,,,,,,,,,,125,B,circle,1,0,,,,,,,,,,,,,,,,repeat,letter,lettRpt,j,noRew,,,,,,1.0028,0,46,0,46,0,1,,,,,,,,,,,,,,,,,
297166,2022-11-29_04h59.50.797,vts_reward_expectancy_bt,2022.2.4,Win32,58.9240469,Chrome,1536,864,,,,,0,675,,,,,,,,,,,,,,,,,139,U,hexagon,1,0,,,,,,,,,,,,,,,,repeat,letter,lettRpt,k,noRew,,,,,,1.0423,0,47,0,47,0,1,,,,,,,,,,,,,,,,,
297166,2022-11-29_04h59.50.797,vts_reward_expectancy_bt,2022.2.4,Win32,58.9240469,Chrome,1536,864,,,,,0,675,,,,,,,,,,,,,,,,,181,H,triangle,1,0,,,,,,,,,,,,,,,,switch,number,numSwt,f,noRew,,,,,,0.8386,0,48,0,48,0,1,,,,,,,,,,,,,,,,,
297166,2022-11-29_04h59.50.797,vts_reward_expectancy_bt,2022.2.4,Win32,58.9240469,Chrome,1536,864,,,,,0,675,,,,,,,,,,,,,,,,,146,U,hexagon,1,0,,,,,,,,,,,,,,,,repeat,number,numRpt,d,noRew,,,,,,0.6643,0,49,0,49,0,1,,,,,,,,,,,,,,,,,
297166,2022-11-29_04h59.50.797,vts_reward_expectancy_bt,2022.2.4,Win32,58.9240469,Chrome,1536,864,,,,,0,675,,,,,,,,,,,,,,,,,174,Y,circle,1,0,,,,,,,,,,,,,,,,repeat,number,numRpt,f,noRew,,,,,,1.5166,0,50,0,50,0,1,,,,,,,,,,,,,,,,,
297166,2022-11-29_04h59.50.797,vts_reward_expectancy_bt,2022.2.4,Win32,58.9240469,Chrome,1536,864,,,,,0,675,,,,,,,,,,,,,,,,,125,W,star,1,0,,,,,,,,,,,,,,,,repeat,number,numRpt,d,noRew,,,,,,0.6798,0,51,0,51,0,1,,,,,,,,,,,,,,,,,
297166,2022-11-29_04h59.50.797,vts_reward_expectancy_bt,2022.2.4,Win32,58.9240469,Chrome,1536,864,,,,,0,675,,,,,,,,,,,,,,,,,160,H,star,0,0,,,,,,,,,,,,,,,,switch,letter,NA,k,noRew,,,,,,0.6879,0,52,0,52,0,1,,,,,,,,,,,,,,,,,
297166,2022-11-29_04h59.50.797,vts_reward_expectancy_bt,2022.2.4,Win32,58.9240469,Chrome,1536,864,,,,,0,675,,,,,,,,,,,,,,,,,174,Y,circle,1,1,,,,,,,,,,,,,,,,repeat,letter,lettRpt,k,noRew,,,,,,0.7779,0,53,0,53,0,1,,,,,,,,,,,,,,,,,
297166,2022-11-29_04h59.50.797,vts_reward_expectancy_bt,2022.2.4,Win32,58.9240469,Chrome,1536,864,,,,,0,675,,,,,,,,,,,,,,,,,167,S,circle,1,0,,,,,,,,,,,,,,,,repeat,letter,lettRpt,k,noRew,,,,,,1.3263,0,54,0,54,0,1,,,,,,,,,,,,,,,,,
297166,2022-11-29_04h59.50.797,vts_reward_expectancy_bt,2022.2.4,Win32,58.9240469,Chrome,1536,864,,,,,0,675,,,,,,,,,,,,,,,,,139,B,triangle,1,0,,,,,,,,,,,,,,,,repeat,letter,lettRpt,j,noRew,,,,,,0.5851,0,55,0,55,0,1,,,,,,,,,,,,,,,,,
297166,2022-11-29_04h59.50.797,vts_reward_expectancy_bt,2022.2.4,Win32,58.9240469,Chrome,1536,864,,,,,0,675,,,,,,,,,,,,,,,,,125,W,hexagon,1,0,,,,,,,,,,,,,,,,repeat,letter,lettRpt,k,noRew,,,,,,0.7236,0,56,0,56,0,1,,,,,,,,,,,,,,,,,
297166,2022-11-29_04h59.50.797,vts_reward_expectancy_bt,2022.2.4,Win32,58.9240469,Chrome,1536,864,,,,,0,675,,,,,,,,,,,,,,,,,174,F,triangle,1,0,,,,,,,,,,,,,,,,switch,number,numSwt,f,noRew,,,,,,0.5227,0,57,0,57,0,1,,,,,,,,,,,,,,,,,
297166,2022-11-29_04h59.50.797,vts_reward_expectancy_bt,2022.2.4,Win32,58.9240469,Chrome,1536,864,,,,,0,675,,,,,,,,,,,,,,,,,181,Y,circle,1,0,,,,,,,,,,,,,,,,repeat,number,numRpt,f,noRew,,,,,,0.6027,0,58,0,58,0,1,,,,,,,,,,,,,,,,,
297166,2022-11-29_04h59.50.797,vts_reward_expectancy_bt,2022.2.4,Win32,58.9240469,Chrome,1536,864,,,,,0,675,,,,,,,,,,,,,,,,,139,B,star,1,0,,,,,,,,,,,,,,,,repeat,number,numRpt,d,noRew,,,,,,0.733,0,59,0,59,0,1,,,,,,,,,,,,,,,,,
297166,2022-11-29_04h59.50.797,vts_reward_expectancy_bt,2022.2.4,Win32,58.9240469,Chrome,1536,864,,,,,0,675,,,,,,,,,,,,,,,,,167,H,hexagon,1,0,,,,,,,,,,,,,,,,repeat,number,numRpt,f,noRew,,,,,,1.1834,0,60,0,60,0,1,,,,,,,,,,,,,,,,,
297166,2022-11-29_04h59.50.797,vts_reward_expectancy_bt,2022.2.4,Win32,58.9240469,Chrome,1536,864,,,,,0,675,,,,,,,,,,,,,,,,,139,W,star,1,0,,,,,,,,,,,,,,,,repeat,number,numRpt,d,noRew,,,,,,0.7242,0,61,0,61,0,1,,,,,,,,,,,,,,,,,
297166,2022-11-29_04h59.50.797,vts_reward_expectancy_bt,2022.2.4,Win32,58.9240469,Chrome,1536,864,,,,,0,675,,,,,,,,,,,,,,,,,146,U,triangle,1,0,,,,,,,,,,,,,,,,repeat,number,numRpt,d,noRew,,,,,,1.1804,0,62,0,62,0,1,,,,,,,,,,,,,,,,,
297166,2022-11-29_04h59.50.797,vts_reward_expectancy_bt,2022.2.4,Win32,58.9240469,Chrome,1536,864,,,,,0,675,,,,,,,,,,,,,,,,,125,D,star,1,0,,,,,,,,,,,,,,,,repeat,number,numRpt,d,noRew,,,,,,1.1168,0,63,0,63,0,1,,,,,,,,,,,,,,,,,
297166,2022-11-29_04h59.50.797,vts_reward_expectancy_bt,2022.2.4,Win32,58.9240469,Chrome,1536,864,,,,,,,,,,,,,,,,,,,,,,,,,,,,,,,,,,,,,,,,,,,,,,,,,,,,,,,,,,,,,,,,,,,,,,,,,,,,
297166,2022-11-29_04h59.50.797,vts_reward_expectancy_bt,2022.2.4,Win32,58.9240469,Chrome,1536,864,,,,,10,685,,,,,,,,,,,,,,,,,146,F,triangle,1,0,,,,,,,,,,,,,,,,repeat,number,numRpt,d,Lo,,,,,,2.3287,0,,,,,,space,7.9343,low,0,0,0,0,1,,,,,,,,,
297166,2022-11-29_04h59.50.797,vts_reward_expectancy_bt,2022.2.4,Win32,58.9240469,Chrome,1536,864,,,,,0,685,,,,,,,,,,,,,,,,,167,W,circle,1,0,,,,,,,,,,,,,,,,repeat,number,numRpt,f,Hi,,,,,,0.9153,0,,,,,,,,low,1,0,1,0,1,,,,,,,,,
297166,2022-11-29_04h59.50.797,vts_reward_expectancy_bt,2022.2.4,Win32,58.9240469,Chrome,1536,864,,,,,0,685,,,,,,,,,,,,,,,,,139,B,hexagon,1,0,,,,,,,,,,,,,,,,repeat,number,numRpt,d,Hi,,,,,,1.081,0,,,,,,,,low,2,0,2,0,1,,,,,,,,,
297166,2022-11-29_04h59.50.797,vts_reward_expectancy_bt,2022.2.4,Win32,58.9240469,Chrome,1536,864,,,,,10,695,,,,,,,,,,,,,,,,,160,H,star,1,0,,,,,,,,,,,,,,,,repeat,number,numRpt,f,Lo,,,,,,0.5772,0,,,,,,,,low,3,0,3,0,1,,,,,,,,,
297166,2022-11-29_04h59.50.797,vts_reward_expectancy_bt,2022.2.4,Win32,58.9240469,Chrome,1536,864,,,,,1,696,,,,,,,,,,,,,,,,,181,U,triangle,1,0,,,,,,,,,,,,,,,,repeat,number,numRpt,f,Lo,,,,,,0.6066,0,,,,,,,,low,4,0,4,0,1,,,,,,,,,
297166,2022-11-29_04h59.50.797,vts_reward_expectancy_bt,2022.2.4,Win32,58.9240469,Chrome,1536,864,,,,,0,696,,,,,,,,,,,,,,,,,174,S,circle,1,0,,,,,,,,,,,,,,,,switch,letter,lettSwt,k,Hi,,,,,,0.8981,0,,,,,,,,low,5,0,5,0,1,,,,,,,,,
297166,2022-11-29_04h59.50.797,vts_reward_expectancy_bt,2022.2.4,Win32,58.9240469,Chrome,1536,864,,,,,0,696,,,,,,,,,,,,,,,,,132,D,hexagon,0,0,,,,,,,,,,,,,,,,switch,number,NA,f,Hi,,,,,,0.7268,0,,,,,,,,low,6,0,6,0,1,,,,,,,,,
297166,2022-11-29_04h59.50.797,vts_reward_expectancy_bt,2022.2.4,Win32,58.9240469,Chrome,1536,864,,,,,10,706,,,,,,,,,,,,,,,,,125,Y,star,1,1,,,,,,,,,,,,,,,,repeat,number,numRpt,d,Lo,,,,,,1.2627,0,,,,,,,,low,7,0,7,0,1,,,,,,,,,
297166,2022-11-29_04h59.50.797,vts_reward_expectancy_bt,2022.2.4,Win32,58.9240469,Chrome,1536,864,,,,,1,707,,,,,,,,,,,,,,,,,146,F,hexagon,1,0,,,,,,,,,,,,,,,,repeat,number,numRpt,d,Hi,,,,,,0.561,0,,,,,,,,low,8,0,8,0,1,,,,,,,,,
297166,2022-11-29_04h59.50.797,vts_reward_expectancy_bt,2022.2.4,Win32,58.9240469,Chrome,1536,864,,,,,10,717,,,,,,,,,,,,,,,,,167,W,star,1,0,,,,,,,,,,,,,,,,repeat,number,numRpt,f,Lo,,,,,,0.6084,0,,,,,,,,low,9,0,9,0,1,,,,,,,,,
297166,2022-11-29_04h59.50.797,vts_reward_expectancy_bt,2022.2.4,Win32,58.9240469,Chrome,1536,864,,,,,10,727,,,,,,,,,,,,,,,,,139,B,triangle,1,0,,,,,,,,,,,,,,,,repeat,number,numRpt,d,Lo,,,,,,0.5547,0,,,,,,,,low,10,0,10,0,1,,,,,,,,,
297166,2022-11-29_04h59.50.797,vts_reward_expectancy_bt,2022.2.4,Win32,58.9240469,Chrome,1536,864,,,,,1,728,,,,,,,,,,,,,,,,,160,H,circle,1,0,,,,,,,,,,,,,,,,repeat,number,numRpt,f,Hi,,,,,,0.4648,0,,,,,,,,low,11,0,11,0,1,,,,,,,,,
297166,2022-11-29_04h59.50.797,vts_reward_expectancy_bt,2022.2.4,Win32,58.9240469,Chrome,1536,864,,,,,10,738,,,,,,,,,,,,,,,,,181,U,circle,1,0,,,,,,,,,,,,,,,,repeat,number,numRpt,f,Hi,,,,,,0.6719,0,,,,,,,,low,12,0,12,0,1,,,,,,,,,
297166,2022-11-29_04h59.50.797,vts_reward_expectancy_bt,2022.2.4,Win32,58.9240469,Chrome,1536,864,,,,,10,748,,,,,,,,,,,,,,,,,174,S,star,1,0,,,,,,,,,,,,,,,,repeat,number,numRpt,f,Lo,,,,,,0.6183,0,,,,,,,,low,13,0,13,0,1,,,,,,,,,
297166,2022-11-29_04h59.50.797,vts_reward_expectancy_bt,2022.2.4,Win32,58.9240469,Chrome,1536,864,,,,,0,748,,,,,,,,,,,,,,,,,132,D,hexagon,1,0,,,,,,,,,,,,,,,,repeat,number,numRpt,d,Hi,,,,,,1.6006,0,,,,,,,,low,14,0,14,0,1,,,,,,,,,
297166,2022-11-29_04h59.50.797,vts_reward_expectancy_bt,2022.2.4,Win32,58.9240469,Chrome,1536,864,,,,,10,758,,,,,,,,,,,,,,,,,125,Y,triangle,1,0,,,,,,,,,,,,,,,,repeat,number,numRpt,d,Lo,,,,,,0.6392,0,,,,,,,,low,15,0,15,0,1,,,,,,,,,
297166,2022-11-29_04h59.50.797,vts_reward_expectancy_bt,2022.2.4,Win32,58.9240469,Chrome,1536,864,,,,,1,759,,,,,,,,,,,,,,,,,181,D,triangle,1,0,,,,,,,,,,,,,,,,repeat,number,numRpt,f,Lo,,,,,,0.6571,0,,,,,,,,low,16,0,16,0,1,,,,,,,,,
297166,2022-11-29_04h59.50.797,vts_reward_expectancy_bt,2022.2.4,Win32,58.9240469,Chrome,1536,864,,,,,10,769,,,,,,,,,,,,,,,,,125,S,star,1,0,,,,,,,,,,,,,,,,repeat,number,numRpt,d,Lo,,,,,,0.5127,0,,,,,,,,low,17,0,17,0,1,,,,,,,,,
297166,2022-11-29_04h59.50.797,vts_reward_expectancy_bt,2022.2.4,Win32,58.9240469,Chrome,1536,864,,,,,0,769,,,,,,,,,,,,,,,,,139,Y,circle,1,0,,,,,,,,,,,,,,,,repeat,number,numRpt,d,Hi,,,,,,0.7314,0,,,,,,,,low,18,0,18,0,1,,,,,,,,,
297166,2022-11-29_04h59.50.797,vts_reward_expectancy_bt,2022.2.4,Win32,58.9240469,Chrome,1536,864,,,,,0,769,,,,,,,,,,,,,,,,,132,U,hexagon,1,0,,,,,,,,,,,,,,,,repeat,number,numRpt,d,Hi,,,,,,0.7425,0,,,,,,,,low,19,0,19,0,1,,,,,,,,,
297166,2022-11-29_04h59.50.797,vts_reward_expectancy_bt,2022.2.4,Win32,58.9240469,Chrome,1536,864,,,,,0,769,,,,,,,,,,,,,,,,,160,F,hexagon,1,0,,,,,,,,,,,,,,,,repeat,number,numRpt,f,Hi,,,,,,1.3269,0,,,,,,,,low,20,0,20,0,1,,,,,,,,,
297166,2022-11-29_04h59.50.797,vts_reward_expectancy_bt,2022.2.4,Win32,58.9240469,Chrome,1536,864,,,,,1,770,,,,,,,,,,,,,,,,,174,H,star,1,0,,,,,,,,,,,,,,,,repeat,number,numRpt,f,Lo,,,,,,0.6503,0,,,,,,,,low,21,0,21,0,1,,,,,,,,,
297166,2022-11-29_04h59.50.797,vts_reward_expectancy_bt,2022.2.4,Win32,58.9240469,Chrome,1536,864,,,,,0,770,,,,,,,,,,,,,,,,,146,B,circle,0,0,,,,,,,,,,,,,,,,repeat,number,NA,f,Lo,,,,,,0.7226,0,,,,,,,,low,22,0,22,0,1,,,,,,,,,
297166,2022-11-29_04h59.50.797,vts_reward_expectancy_bt,2022.2.4,Win32,58.9240469,Chrome,1536,864,,,,,1,771,,,,,,,,,,,,,,,,,167,W,triangle,1,1,,,,,,,,,,,,,,,,repeat,number,numRpt,f,Lo,,,,,,0.9536,0,,,,,,,,low,23,0,23,0,1,,,,,,,,,
297166,2022-11-29_04h59.50.797,vts_reward_expectancy_bt,2022.2.4,Win32,58.9240469,Chrome,1536,864,,,,,10,781,,,,,,,,,,,,,,,,,146,W,triangle,1,0,,,,,,,,,,,,,,,,repeat,number,numRpt,d,Lo,,,,,,0.505,0,,,,,,,,low,24,0,24,0,1,,,,,,,,,
297166,2022-11-29_04h59.50.797,vts_reward_expectancy_bt,2022.2.4,Win32,58.9240469,Chrome,1536,864,,,,,10,791,,,,,,,,,,,,,,,,,167,S,star,1,0,,,,,,,,,,,,,,,,repeat,number,numRpt,f,Lo,,,,,,0.7059,0,,,,,,,,low,25,0,25,0,1,,,,,,,,,
297166,2022-11-29_04h59.50.797,vts_reward_expectancy_bt,2022.2.4,Win32,58.9240469,Chrome,1536,864,,,,,10,801,,,,,,,,,,,,,,,,,139,Y,circle,1,0,,,,,,,,,,,,,,,,repeat,number,numRpt,d,Hi,,,,,,0.445,0,,,,,,,,low,26,0,26,0,1,,,,,,,,,
297166,2022-11-29_04h59.50.797,vts_reward_expectancy_bt,2022.2.4,Win32,58.9240469,Chrome,1536,864,,,,,1,802,,,,,,,,,,,,,,,,,132,F,hexagon,1,0,,,,,,,,,,,,,,,,repeat,number,numRpt,d,Hi,,,,,,0.5021,0,,,,,,,,low,27,0,27,0,1,,,,,,,,,
297166,2022-11-29_04h59.50.797,vts_reward_expectancy_bt,2022.2.4,Win32,58.9240469,Chrome,1536,864,,,,,1,803,,,,,,,,,,,,,,,,,181,U,circle,1,0,,,,,,,,,,,,,,,,repeat,number,numRpt,f,Hi,,,,,,0.5807,0,,,,,,,,low,28,0,28,0,1,,,,,,,,,
297166,2022-11-29_04h59.50.797,vts_reward_expectancy_bt,2022.2.4,Win32,58.9240469,Chrome,1536,864,,,,,10,813,,,,,,,,,,,,,,,,,160,B,triangle,1,0,,,,,,,,,,,,,,,,repeat,number,numRpt,f,Lo,,,,,,0.5653,0,,,,,,,,low,29,0,29,0,1,,,,,,,,,
297166,2022-11-29_04h59.50.797,vts_reward_expectancy_bt,2022.2.4,Win32,58.9240469,Chrome,1536,864,,,,,10,823,,,,,,,,,,,,,,,,,174,D,hexagon,1,0,,,,,,,,,,,,,,,,repeat,number,numRpt,f,Hi,,,,,,0.4244,0,,,,,,,,low,30,0,30,0,1,,,,,,,,,
297166,2022-11-29_04h59.50.797,vts_reward_expectancy_bt,2022.2.4,Win32,58.9240469,Chrome,1536,864,,,,,1,824,,,,,,,,,,,,,,,,,125,H,star,1,0,,,,,,,,,,,,,,,,repeat,number,numRpt,d,Lo,,,,,,0.667,0,,,,,,,,low,31,0,31,0,1,,,,,,,,,
297166,2022-11-29_04h59.50.797,vts_reward_expectancy_bt,2022.2.4,Win32,58.9240469,Chrome,1536,864,,,,,10,834,,,,,,,,,,,,,,,,,174,S,circle,1,0,,,,,,,,,,,,,,,,switch,letter,lettSwt,k,Hi,,,,,,0.7723,1,,,,,,space,3.3619,low,0,0,0,0,1,,,,,,,,,
297166,2022-11-29_04h59.50.797,vts_reward_expectancy_bt,2022.2.4,Win32,58.9240469,Chrome,1536,864,,,,,10,844,,,,,,,,,,,,,,,,,139,D,triangle,1,0,,,,,,,,,,,,,,,,repeat,letter,lettRpt,j,Lo,,,,,,0.6376,1,,,,,,,,low,1,0,1,0,1,,,,,,,,,
297166,2022-11-29_04h59.50.797,vts_reward_expectancy_bt,2022.2.4,Win32,58.9240469,Chrome,1536,864,,,,,0,844,,,,,,,,,,,,,,,,,125,H,hexagon,0,0,,,,,,,,,,,,,,,,repeat,letter,NA,k,Lo,,,,,,0.7177,1,,,,,,,,low,2,0,2,0,1,,,,,,,,,
297166,2022-11-29_04h59.50.797,vts_reward_expectancy_bt,2022.2.4,Win32,58.9240469,Chrome,1536,864,,,,,10,854,,,,,,,,,,,,,,,,,146,U,star,1,1,,,,,,,,,,,,,,,,repeat,letter,lettRpt,k,Lo,,,,,,0.4935,1,,,,,,,,low,3,0,3,0,1,,,,,,,,,
297166,2022-11-29_04h59.50.797,vts_reward_expectancy_bt,2022.2.4,Win32,58.9240469,Chrome,1536,864,,,,,10,864,,,,,,,,,,,,,,,,,181,B,circle,1,0,,,,,,,,,,,,,,,,repeat,letter,lettRpt,j,Hi,,,,,,0.5245,1,,,,,,,,low,4,0,4,0,1,,,,,,,,,
297166,2022-11-29_04h59.50.797,vts_reward_expectancy_bt,2022.2.4,Win32,58.9240469,Chrome,1536,864,,,,,10,874,,,,,,,,,,,,,,,,,132,F,triangle,1,0,,,,,,,,,,,,,,,,repeat,letter,lettRpt,j,Lo,,,,,,0.5353,1,,,,,,,,low,5,0,5,0,1,,,,,,,,,
297166,2022-11-29_04h59.50.797,vts_reward_expectancy_bt,2022.2.4,Win32,58.9240469,Chrome,1536,864,,,,,1,875,,,,,,,,,,,,,,,,,167,W,hexagon,1,0,,,,,,,,,,,,,,,,repeat,letter,lettRpt,k,Hi,,,,,,0.5199,1,,,,,,,,low,6,0,6,0,1,,,,,,,,,
297166,2022-11-29_04h59.50.797,vts_reward_expectancy_bt,2022.2.4,Win32,58.9240469,Chrome,1536,864,,,,,10,885,,,,,,,,,,,,,,,,,160,Y,star,1,0,,,,,,,,,,,,,,,,repeat,letter,lettRpt,k,Lo,,,,,,0.7106,1,,,,,,,,low,7,0,7,0,1,,,,,,,,,
297166,2022-11-29_04h59.50.797,vts_reward_expectancy_bt,2022.2.4,Win32,58.9240469,Chrome,1536,864,,,,,0,885,,,,,,,,,,,,,,,,,174,S,star,0,0,,,,,,,,,,,,,,,,repeat,letter,NA,j,Lo,,,,,,0.4099,1,,,,,,,,low,8,0,8,0,1,,,,,,,,,
297166,2022-11-29_04h59.50.797,vts_reward_expectancy_bt,2022.2.4,Win32,58.9240469,Chrome,1536,864,,,,,10,895,,,,,,,,,,,,,,,,,139,D,triangle,1,1,,,,,,,,,,,,,,,,repeat,letter,lettRpt,j,Lo,,,,,,0.7376,1,,,,,,,,low,9,0,9,0,1,,,,,,,,,
297166,2022-11-29_04h59.50.797,vts_reward_expectancy_bt,2022.2.4,Win32,58.9240469,Chrome,1536,864,,,,,1,896,,,,,,,,,,,,,,,,,125,H,hexagon,1,0,,,,,,,,,,,,,,,,repeat,letter,lettRpt,j,Hi,,,,,,0.9157,1,,,,,,,,low,10,0,10,0,1,,,,,,,,,
297166,2022-11-29_04h59.50.797,vts_reward_expectancy_bt,2022.2.4,Win32,58.9240469,Chrome,1536,864,,,,,10,906,,,,,,,,,,,,,,,,,146,U,circle,1,0,,,,,,,,,,,,,,,,repeat,letter,lettRpt,k,Hi,,,,,,0.5428,1,,,,,,,,low,11,0,11,0,1,,,,,,,,,
297166,2022-11-29_04h59.50.797,vts_reward_expectancy_bt,2022.2.4,Win32,58.9240469,Chrome,1536,864,,,,,10,916,,,,,,,,,,,,,,,,,181,B,hexagon,1,0,,,,,,,,,,,,,,,,repeat,letter,lettRpt,j,Hi,,,,,,0.6042,1,,,,,,,,low,12,0,12,0,1,,,,,,,,,
297166,2022-11-29_04h59.50.797,vts_reward_expectancy_bt,2022.2.4,Win32,58.9240469,Chrome,1536,864,,,,,10,926,,,,,,,,,,,,,,,,,132,F,star,1,0,,,,,,,,,,,,,,,,repeat,letter,lettRpt,j,Lo,,,,,,0.9178,1,,,,,,,,low,13,0,13,0,1,,,,,,,,,
297166,2022-11-29_04h59.50.797,vts_reward_expectancy_bt,2022.2.4,Win32,58.9240469,Chrome,1536,864,,,,,1,927,,,,,,,,,,,,,,,,,167,W,circle,1,0,,,,,,,,,,,,,,,,repeat,letter,lettRpt,k,Hi,,,,,,0.6064,1,,,,,,,,low,14,0,14,0,1,,,,,,,,,
297166,2022-11-29_04h59.50.797,vts_reward_expectancy_bt,2022.2.4,Win32,58.9240469,Chrome,1536,864,,,,,1,928,,,,,,,,,,,,,,,,,160,Y,triangle,1,0,,,,,,,,,,,,,,,,repeat,letter,lettRpt,k,Lo,,,,,,0.5789,1,,,,,,,,low,15,0,15,0,1,,,,,,,,,
297166,2022-11-29_04h59.50.797,vts_reward_expectancy_bt,2022.2.4,Win32,58.9240469,Chrome,1536,864,,,,,0,928,,,,,,,,,,,,,,,,,174,H,hexagon,0,0,,,,,,,,,,,,,,,,repeat,letter,NA,k,Lo,,,,,,0.7743,1,,,,,,,,low,16,0,16,0,1,,,,,,,,,
297166,2022-11-29_04h59.50.797,vts_reward_expectancy_bt,2022.2.4,Win32,58.9240469,Chrome,1536,864,,,,,1,929,,,,,,,,,,,,,,,,,132,S,star,1,1,,,,,,,,,,,,,,,,repeat,letter,lettRpt,k,Lo,,,,,,0.6942,1,,,,,,,,low,17,0,17,0,1,,,,,,,,,
297166,2022-11-29_04h59.50.797,vts_reward_expectancy_bt,2022.2.4,Win32,58.9240469,Chrome,1536,864,,,,,10,939,,,,,,,,,,,,,,,,,139,U,circle,1,0,,,,,,,,,,,,,,,,repeat,letter,lettRpt,k,Hi,,,,,,0.8757,1,,,,,,,,low,18,0,18,0,1,,,,,,,,,
297166,2022-11-29_04h59.50.797,vts_reward_expectancy_bt,2022.2.4,Win32,58.9240469,Chrome,1536,864,,,,,1,940,,,,,,,,,,,,,,,,,146,Y,triangle,1,0,,,,,,,,,,,,,,,,repeat,letter,lettRpt,k,Lo,,,,,,0.7358,1,,,,,,,,low,19,0,19,0,1,,,,,,,,,
297166,2022-11-29_04h59.50.797,vts_reward_expectancy_bt,2022.2.4,Win32,58.9240469,Chrome,1536,864,,,,,1,941,,,,,,,,,,,,,,,,,167,W,hexagon,1,0,,,,,,,,,,,,,,,,repeat,letter,lettRpt,k,Hi,,,,,,0.6086,1,,,,,,,,low,20,0,20,0,1,,,,,,,,,
297166,2022-11-29_04h59.50.797,vts_reward_expectancy_bt,2022.2.4,Win32,58.9240469,Chrome,1536,864,,,,,1,942,,,,,,,,,,,,,,,,,125,B,triangle,1,0,,,,,,,,,,,,,,,,repeat,letter,lettRpt,j,Lo,,,,,,0.6053,1,,,,,,,,low,21,0,21,0,1,,,,,,,,,
297166,2022-11-29_04h59.50.797,vts_reward_expectancy_bt,2022.2.4,Win32,58.9240469,Chrome,1536,864,,,,,10,952,,,,,,,,,,,,,,,,,181,D,star,1,0,,,,,,,,,,,,,,,,repeat,letter,lettRpt,j,Lo,,,,,,0.6206,1,,,,,,,,low,22,0,22,0,1,,,,,,,,,
297166,2022-11-29_04h59.50.797,vts_reward_expectancy_bt,2022.2.4,Win32,58.9240469,Chrome,1536,864,,,,,10,962,,,,,,,,,,,,,,,,,160,F,circle,1,0,,,,,,,,,,,,,,,,repeat,letter,lettRpt,j,Hi,,,,,,0.7464,1,,,,,,,,low,23,0,23,0,1,,,,,,,,,
297166,2022-11-29_04h59.50.797,vts_reward_expectancy_bt,2022.2.4,Win32,58.9240469,Chrome,1536,864,,,,,1,963,,,,,,,,,,,,,,,,,160,B,triangle,1,0,,,,,,,,,,,,,,,,repeat,letter,lettRpt,j,Lo,,,,,,1.7317,1,,,,,,,,low,24,0,24,0,1,,,,,,,,,
297166,2022-11-29_04h59.50.797,vts_reward_expectancy_bt,2022.2.4,Win32,58.9240469,Chrome,1536,864,,,,,1,964,,,,,,,,,,,,,,,,,146,Y,circle,1,0,,,,,,,,,,,,,,,,repeat,letter,lettRpt,k,Hi,,,,,,0.5248,1,,,,,,,,low,25,0,25,0,1,,,,,,,,,
297166,2022-11-29_04h59.50.797,vts_reward_expectancy_bt,2022.2.4,Win32,58.9240469,Chrome,1536,864,,,,,10,974,,,,,,,,,,,,,,,,,174,D,hexagon,1,0,,,,,,,,,,,,,,,,repeat,letter,lettRpt,j,Hi,,,,,,0.7388,1,,,,,,,,low,26,0,26,0,1,,,,,,,,,
297166,2022-11-29_04h59.50.797,vts_reward_expectancy_bt,2022.2.4,Win32,58.9240469,Chrome,1536,864,,,,,10,984,,,,,,,,,,,,,,,,,167,H,star,1,0,,,,,,,,,,,,,,,,repeat,letter,lettRpt,j,Lo,,,,,,1.3399,1,,,,,,,,low,27,0,27,0,1,,,,,,,,,
297166,2022-11-29_04h59.50.797,vts_reward_expectancy_bt,2022.2.4,Win32,58.9240469,Chrome,1536,864,,,,,1,985,,,,,,,,,,,,,,,,,132,S,triangle,1,0,,,,,,,,,,,,,,,,repeat,letter,lettRpt,k,Lo,,,,,,0.8667,1,,,,,,,,low,28,0,28,0,1,,,,,,,,,
297166,2022-11-29_04h59.50.797,vts_reward_expectancy_bt,2022.2.4,Win32,58.9240469,Chrome,1536,864,,,,,1,986,,,,,,,,,,,,,,,,,181,U,star,1,0,,,,,,,,,,,,,,,,repeat,letter,lettRpt,k,Lo,,,,,,0.8005,1,,,,,,,,low,29,0,29,0,1,,,,,,,,,
297166,2022-11-29_04h59.50.797,vts_reward_expectancy_bt,2022.2.4,Win32,58.9240469,Chrome,1536,864,,,,,1,987,,,,,,,,,,,,,,,,,125,W,circle,1,0,,,,,,,,,,,,,,,,repeat,letter,lettRpt,k,Hi,,,,,,0.6017,1,,,,,,,,low,30,0,30,0,1,,,,,,,,,
297166,2022-11-29_04h59.50.797,vts_reward_expectancy_bt,2022.2.4,Win32,58.9240469,Chrome,1536,864,,,,,0,987,,,,,,,,,,,,,,,,,139,F,hexagon,0,0,,,,,,,,,,,,,,,,repeat,letter,NA,k,Hi,,,,,,0.9722,1,,,,,,,,low,31,0,31,0,1,,,,,,,,,
297166,2022-11-29_04h59.50.797,vts_reward_expectancy_bt,2022.2.4,Win32,58.9240469,Chrome,1536,864,,,,,10,997,,,,,,,,,,,,,,,,,160,U,hexagon,1,1,,,,,,,,,,,,,,,,switch,number,numSwt,f,Hi,,,,,,0.496,2,,,,,,space,0.72,low,0,0,0,0,1,,,,,,,,,
297166,2022-11-29_04h59.50.797,vts_reward_expectancy_bt,2022.2.4,Win32,58.9240469,Chrome,1536,864,,,,,1,998,,,,,,,,,,,,,,,,,181,H,triangle,1,0,,,,,,,,,,,,,,,,repeat,number,numRpt,f,Lo,,,,,,0.4888,2,,,,,,,,low,1,0,1,0,1,,,,,,,,,
297166,2022-11-29_04h59.50.797,vts_reward_expectancy_bt,2022.2.4,Win32,58.9240469,Chrome,1536,864,,,,,10,1008,,,,,,,,,,,,,,,,,139,F,circle,1,0,,,,,,,,,,,,,,,,repeat,number,numRpt,d,Hi,,,,,,0.491,2,,,,,,,,low,2,0,2,0,1,,,,,,,,,
297166,2022-11-29_04h59.50.797,vts_reward_expectancy_bt,2022.2.4,Win32,58.9240469,Chrome,1536,864,,,,,10,1018,,,,,,,,,,,,,,,,,125,W,star,1,0,,,,,,,,,,,,,,,,repeat,number,numRpt,d,Lo,,,,,,0.6176,2,,,,,,,,low,3,0,3,0,1,,,,,,,,,
297166,2022-11-29_04h59.50.797,vts_reward_expectancy_bt,2022.2.4,Win32,58.9240469,Chrome,1536,864,,,,,10,1028,,,,,,,,,,,,,,,,,174,D,hexagon,1,0,,,,,,,,,,,,,,,,repeat,number,numRpt,f,Hi,,,,,,0.7544,2,,,,,,,,low,4,0,4,0,1,,,,,,,,,
297166,2022-11-29_04h59.50.797,vts_reward_expectancy_bt,2022.2.4,Win32,58.9240469,Chrome,1536,864,,,,,1,1029,,,,,,,,,,,,,,,,,146,Y,triangle,1,0,,,,,,,,,,,,,,,,repeat,number,numRpt,d,Lo,,,,,,0.8584,2,,,,,,,,low,5,0,5,0,1,,,,,,,,,
297166,2022-11-29_04h59.50.797,vts_reward_expectancy_bt,2022.2.4,Win32,58.9240469,Chrome,1536,864,,,,,10,1039,,,,,,,,,,,,,,,,,167,S,circle,1,0,,,,,,,,,,,,,,,,repeat,number,numRpt,f,Hi,,,,,,0.9219,2,,,,,,,,low,6,0,6,0,1,,,,,,,,,
297166,2022-11-29_04h59.50.797,vts_reward_expectancy_bt,2022.2.4,Win32,58.9240469,Chrome,1536,864,,,,,1,1040,,,,,,,,,,,,,,,,,132,B,star,1,0,,,,,,,,,,,,,,,,repeat,number,numRpt,d,Lo,,,,,,0.7148,2,,,,,,,,low,7,0,7,0,1,,,,,,,,,
297166,2022-11-29_04h59.50.797,vts_reward_expectancy_bt,2022.2.4,Win32,58.9240469,Chrome,1536,864,,,,,10,1050,,,,,,,,,,,,,,,,,160,U,circle,1,0,,,,,,,,,,,,,,,,repeat,number,numRpt,f,Hi,,,,,,0.5038,2,,,,,,,,low,8,0,8,0,1,,,,,,,,,
297166,2022-11-29_04h59.50.797,vts_reward_expectancy_bt,2022.2.4,Win32,58.9240469,Chrome,1536,864,,,,,10,1060,,,,,,,,,,,,,,,,,181,H,star,1,0,,,,,,,,,,,,,,,,repeat,number,numRpt,f,Lo,,,,,,0.6142,2,,,,,,,,low,9,0,9,0,1,,,,,,,,,
297166,2022-11-29_04h59.50.797,vts_reward_expectancy_bt,2022.2.4,Win32,58.9240469,Chrome,1536,864,,,,,1,1061,,,,,,,,,,,,,,,,,139,F,triangle,1,0,,,,,,,,,,,,,,,,repeat,number,numRpt,d,Lo,,,,,,0.5982,2,,,,,,,,low,10,0,10,0,1,,,,,,,,,
297166,2022-11-29_04h59.50.797,vts_reward_expectancy_bt,2022.2.4,Win32,58.9240469,Chrome,1536,864,,,,,1,1062,,,,,,,,,,,,,,,,,125,W,hexagon,1,0,,,,,,,,,,,,,,,,repeat,number,numRpt,d,Hi,,,,,,0.5645,2,,,,,,,,low,11,0,11,0,1,,,,,,,,,
297166,2022-11-29_04h59.50.797,vts_reward_expectancy_bt,2022.2.4,Win32,58.9240469,Chrome,1536,864,,,,,1,1063,,,,,,,,,,,,,,,,,174,D,star,1,0,,,,,,,,,,,,,,,,repeat,number,numRpt,f,Lo,,,,,,0.6016,2,,,,,,,,low,12,0,12,0,1,,,,,,,,,
297166,2022-11-29_04h59.50.797,vts_reward_expectancy_bt,2022.2.4,Win32,58.9240469,Chrome,1536,864,,,,,10,1073,,,,,,,,,,,,,,,,,146,Y,triangle,1,0,,,,,,,,,,,,,,,,repeat,number,numRpt,d,Lo,,,,,,1.01,2,,,,,,,,low,13,0,13,0,1,,,,,,,,,
297166,2022-11-29_04h59.50.797,vts_reward_expectancy_bt,2022.2.4,Win32,58.9240469,Chrome,1536,864,,,,,1,1074,,,,,,,,,,,,,,,,,167,S,hexagon,1,0,,,,,,,,,,,,,,,,repeat,number,numRpt,f,Hi,,,,,,0.5966,2,,,,,,,,low,14,0,14,0,1,,,,,,,,,
297166,2022-11-29_04h59.50.797,vts_reward_expectancy_bt,2022.2.4,Win32,58.9240469,Chrome,1536,864,,,,,10,1084,,,,,,,,,,,,,,,,,132,B,circle,1,0,,,,,,,,,,,,,,,,repeat,number,numRpt,d,Hi,,,,,,0.9276,2,,,,,,,,low,15,0,15,0,1,,,,,,,,,
297166,2022-11-29_04h59.50.797,vts_reward_expectancy_bt,2022.2.4,Win32,58.9240469,Chrome,1536,864,,,,,10,1094,,,,,,,,,,,,,,,,,125,Y,circle,1,0,,,,,,,,,,,,,,,,repeat,number,numRpt,d,Hi,,,,,,0.7159,2,,,,,,,,low,16,0,16,0,1,,,,,,,,,
297166,2022-11-29_04h59.50.797,vts_reward_expectancy_bt,2022.2.4,Win32,58.9240469,Chrome,1536,864,,,,,10,1104,,,,,,,,,,,,,,,,,174,D,hexagon,1,0,,,,,,,,,,,,,,,,repeat,number,numRpt,f,Hi,,,,,,1.0122,2,,,,,,,,low,17,0,17,0,1,,,,,,,,,
297166,2022-11-29_04h59.50.797,vts_reward_expectancy_bt,2022.2.4,Win32,58.9240469,Chrome,1536,864,,,,,1,1105,,,,,,,,,,,,,,,,,181,B,star,1,0,,,,,,,,,,,,,,,,repeat,number,numRpt,f,Lo,,,,,,0.7398,2,,,,,,,,low,18,0,18,0,1,,,,,,,,,
297166,2022-11-29_04h59.50.797,vts_reward_expectancy_bt,2022.2.4,Win32,58.9240469,Chrome,1536,864,,,,,1,1106,,,,,,,,,,,,,,,,,160,U,triangle,1,0,,,,,,,,,,,,,,,,repeat,number,numRpt,f,Lo,,,,,,0.8362,2,,,,,,,,low,19,0,19,0,1,,,,,,,,,
297166,2022-11-29_04h59.50.797,vts_reward_expectancy_bt,2022.2.4,Win32,58.9240469,Chrome,1536,864,,,,,0,1106,,,,,,,,,,,,,,,,,132,S,circle,0,0,,,,,,,,,,,,,,,,repeat,number,NA,f,Lo,,,,,,0.663,2,,,,,,,,low,20,0,20,0,1,,,,,,,,,
297166,2022-11-29_04h59.50.797,vts_reward_expectancy_bt,2022.2.4,Win32,58.9240469,Chrome,1536,864,,,,,10,1116,,,,,,,,,,,,,,,,,146,W,hexagon,1,1,,,,,,,,,,,,,,,,repeat,number,numRpt,d,Hi,,,,,,1.0927,2,,,,,,,,low,21,0,21,0,1,,,,,,,,,
297166,2022-11-29_04h59.50.797,vts_reward_expectancy_bt,2022.2.4,Win32,58.9240469,Chrome,1536,864,,,,,1,1117,,,,,,,,,,,,,,,,,167,F,triangle,1,0,,,,,,,,,,,,,,,,repeat,number,numRpt,f,Lo,,,,,,0.8226,2,,,,,,,,low,22,0,22,0,1,,,,,,,,,
297166,2022-11-29_04h59.50.797,vts_reward_expectancy_bt,2022.2.4,Win32,58.9240469,Chrome,1536,864,,,,,10,1127,,,,,,,,,,,,,,,,,139,H,star,1,0,,,,,,,,,,,,,,,,repeat,number,numRpt,d,Lo,,,,,,0.5527,2,,,,,,,,low,23,0,23,0,1,,,,,,,,,
297166,2022-11-29_04h59.50.797,vts_reward_expectancy_bt,2022.2.4,Win32,58.9240469,Chrome,1536,864,,,,,1,1128,,,,,,,,,,,,,,,,,174,U,hexagon,1,0,,,,,,,,,,,,,,,,repeat,number,numRpt,f,Hi,,,,,,0.5998,2,,,,,,,,low,24,0,24,0,1,,,,,,,,,
297166,2022-11-29_04h59.50.797,vts_reward_expectancy_bt,2022.2.4,Win32,58.9240469,Chrome,1536,864,,,,,1,1129,,,,,,,,,,,,,,,,,132,S,triangle,1,0,,,,,,,,,,,,,,,,repeat,number,numRpt,d,Lo,,,,,,0.6456,2,,,,,,,,low,25,0,25,0,1,,,,,,,,,
297166,2022-11-29_04h59.50.797,vts_reward_expectancy_bt,2022.2.4,Win32,58.9240469,Chrome,1536,864,,,,,10,1139,,,,,,,,,,,,,,,,,146,D,circle,1,0,,,,,,,,,,,,,,,,repeat,number,numRpt,d,Hi,,,,,,0.7156,2,,,,,,,,low,26,0,26,0,1,,,,,,,,,
297166,2022-11-29_04h59.50.797,vts_reward_expectancy_bt,2022.2.4,Win32,58.9240469,Chrome,1536,864,,,,,10,1149,,,,,,,,,,,,,,,,,167,H,star,1,0,,,,,,,,,,,,,,,,repeat,number,numRpt,f,Lo,,,,,,0.7211,2,,,,,,,,low,27,0,27,0,1,,,,,,,,,
297166,2022-11-29_04h59.50.797,vts_reward_expectancy_bt,2022.2.4,Win32,58.9240469,Chrome,1536,864,,,,,1,1150,,,,,,,,,,,,,,,,,139,F,circle,1,0,,,,,,,,,,,,,,,,repeat,number,numRpt,d,Hi,,,,,,0.5437,2,,,,,,,,low,28,0,28,0,1,,,,,,,,,
297166,2022-11-29_04h59.50.797,vts_reward_expectancy_bt,2022.2.4,Win32,58.9240469,Chrome,1536,864,,,,,1,1151,,,,,,,,,,,,,,,,,181,W,triangle,1,0,,,,,,,,,,,,,,,,repeat,number,numRpt,f,Lo,,,,,,0.9681,2,,,,,,,,low,29,0,29,0,1,,,,,,,,,
297166,2022-11-29_04h59.50.797,vts_reward_expectancy_bt,2022.2.4,Win32,58.9240469,Chrome,1536,864,,,,,10,1161,,,,,,,,,,,,,,,,,125,B,hexagon,1,0,,,,,,,,,,,,,,,,repeat,number,numRpt,d,Hi,,,,,,0.8099,2,,,,,,,,low,30,0,30,0,1,,,,,,,,,
297166,2022-11-29_04h59.50.797,vts_reward_expectancy_bt,2022.2.4,Win32,58.9240469,Chrome,1536,864,,,,,10,1171,,,,,,,,,,,,,,,,,160,Y,star,1,0,,,,,,,,,,,,,,,,repeat,number,numRpt,f,Lo,,,,,,0.6465,2,,,,,,,,low,31,0,31,0,1,,,,,,,,,
297166,2022-11-29_04h59.50.797,vts_reward_expectancy_bt,2022.2.4,Win32,58.9240469,Chrome,1536,864,,,,,10,1181,,,,,,,,,,,,,,,,,132,B,star,1,0,,,,,,,,,,,,,,,,switch,letter,lettSwt,j,Lo,,,,,,0.6395,3,,,,,,space,1.6743,low,0,0,0,0,1,,,,,,,,,
297166,2022-11-29_04h59.50.797,vts_reward_expectancy_bt,2022.2.4,Win32,58.9240469,Chrome,1536,864,,,,,10,1191,,,,,,,,,,,,,,,,,167,Y,circle,1,0,,,,,,,,,,,,,,,,repeat,letter,lettRpt,k,Hi,,,,,,0.5877,3,,,,,,,,low,1,0,1,0,1,,,,,,,,,
297166,2022-11-29_04h59.50.797,vts_reward_expectancy_bt,2022.2.4,Win32,58.9240469,Chrome,1536,864,,,,,10,1201,,,,,,,,,,,,,,,,,174,U,triangle,1,0,,,,,,,,,,,,,,,,repeat,letter,lettRpt,k,Lo,,,,,,0.5755,3,,,,,,,,low,2,0,2,0,1,,,,,,,,,
297166,2022-11-29_04h59.50.797,vts_reward_expectancy_bt,2022.2.4,Win32,58.9240469,Chrome,1536,864,,,,,10,1211,,,,,,,,,,,,,,,,,125,F,hexagon,1,0,,,,,,,,,,,,,,,,repeat,letter,lettRpt,j,Hi,,,,,,0.6089,3,,,,,,,,low,3,0,3,0,1,,,,,,,,,
297166,2022-11-29_04h59.50.797,vts_reward_expectancy_bt,2022.2.4,Win32,58.9240469,Chrome,1536,864,,,,,10,1221,,,,,,,,,,,,,,,,,139,H,star,1,0,,,,,,,,,,,,,,,,repeat,letter,lettRpt,j,Lo,,,,,,1.0257,3,,,,,,,,low,4,0,4,0,1,,,,,,,,,
297166,2022-11-29_04h59.50.797,vts_reward_expectancy_bt,2022.2.4,Win32,58.9240469,Chrome,1536,864,,,,,1,1222,,,,,,,,,,,,,,,,,181,S,circle,1,0,,,,,,,,,,,,,,,,repeat,letter,lettRpt,k,Hi,,,,,,0.5856,3,,,,,,,,low,5,0,5,0,1,,,,,,,,,
297166,2022-11-29_04h59.50.797,vts_reward_expectancy_bt,2022.2.4,Win32,58.9240469,Chrome,1536,864,,,,,1,1223,,,,,,,,,,,,,,,,,146,D,triangle,1,0,,,,,,,,,,,,,,,,repeat,letter,lettRpt,j,Lo,,,,,,0.6342,3,,,,,,,,low,6,0,6,0,1,,,,,,,,,
297166,2022-11-29_04h59.50.797,vts_reward_expectancy_bt,2022.2.4,Win32,58.9240469,Chrome,1536,864,,,,,1,1224,,,,,,,,,,,,,,,,,160,W,hexagon,1,0,,,,,,,,,,,,,,,,repeat,letter,lettRpt,k,Hi,,,,,,0.5412,3,,,,,,,,low,7,0,7,0,1,,,,,,,,,
297166,2022-11-29_04h59.50.797,vts_reward_expectancy_bt,2022.2.4,Win32,58.9240469,Chrome,1536,864,,,,,1,1225,,,,,,,,,,,,,,,,,132,B,star,1,0,,,,,,,,,,,,,,,,repeat,letter,lettRpt,j,Lo,,,,,,0.5784,3,,,,,,,,low,8,0,8,0,1,,,,,,,,,
297166,2022-11-29_04h59.50.797,vts_reward_expectancy_bt,2022.2.4,Win32,58.9240469,Chrome,1536,864,,,,,1,1226,,,,,,,,,,,,,,,,,167,Y,hexagon,1,0,,,,,,,,,,,,,,,,repeat,letter,lettRpt,k,Hi,,,,,,0.6009,3,,,,,,,,low,9,0,9,0,1,,,,,,,,,
297166,2022-11-29_04h59.50.797,vts_reward_expectancy_bt,2022.2.4,Win32,58.9240469,Chrome,1536,864,,,,,10,1236,,,,,,,,,,,,,,,,,174,U,circle,1,0,,,,,,,,,,,,,,,,repeat,letter,lettRpt,k,Hi,,,,,,0.9923,3,,,,,,,,low,10,0,10,0,1,,,,,,,,,
297166,2022-11-29_04h59.50.797,vts_reward_expectancy_bt,2022.2.4,Win32,58.9240469,Chrome,1536,864,,,,,0,1236,,,,,,,,,,,,,,,,,125,F,triangle,0,0,,,,,,,,,,,,,,,,repeat,letter,NA,k,Hi,,,,,,1.6022,3,,,,,,,,low,11,0,11,0,1,,,,,,,,,
297166,2022-11-29_04h59.50.797,vts_reward_expectancy_bt,2022.2.4,Win32,58.9240469,Chrome,1536,864,,,,,1,1237,,,,,,,,,,,,,,,,,139,H,circle,1,1,,,,,,,,,,,,,,,,repeat,letter,lettRpt,j,Hi,,,,,,0.6593,3,,,,,,,,low,12,0,12,0,1,,,,,,,,,
297166,2022-11-29_04h59.50.797,vts_reward_expectancy_bt,2022.2.4,Win32,58.9240469,Chrome,1536,864,,,,,1,1238,,,,,,,,,,,,,,,,,181,S,triangle,1,0,,,,,,,,,,,,,,,,repeat,letter,lettRpt,k,Lo,,,,,,0.7458,3,,,,,,,,low,13,0,13,0,1,,,,,,,,,
297166,2022-11-29_04h59.50.797,vts_reward_expectancy_bt,2022.2.4,Win32,58.9240469,Chrome,1536,864,,,,,10,1248,,,,,,,,,,,,,,,,,146,D,star,1,0,,,,,,,,,,,,,,,,repeat,letter,lettRpt,j,Lo,,,,,,0.6921,3,,,,,,,,low,14,0,14,0,1,,,,,,,,,
297166,2022-11-29_04h59.50.797,vts_reward_expectancy_bt,2022.2.4,Win32,58.9240469,Chrome,1536,864,,,,,10,1258,,,,,,,,,,,,,,,,,160,W,hexagon,1,0,,,,,,,,,,,,,,,,repeat,letter,lettRpt,k,Hi,,,,,,0.7551,3,,,,,,,,low,15,0,15,0,1,,,,,,,,,
297166,2022-11-29_04h59.50.797,vts_reward_expectancy_bt,2022.2.4,Win32,58.9240469,Chrome,1536,864,,,,,10,1268,,,,,,,,,,,,,,,,,132,U,hexagon,1,0,,,,,,,,,,,,,,,,repeat,letter,lettRpt,k,Hi,,,,,,1.2753,3,,,,,,,,low,16,0,16,0,1,,,,,,,,,
297166,2022-11-29_04h59.50.797,vts_reward_expectancy_bt,2022.2.4,Win32,58.9240469,Chrome,1536,864,,,,,10,1278,,,,,,,,,,,,,,,,,167,B,circle,1,0,,,,,,,,,,,,,,,,repeat,letter,lettRpt,j,Hi,,,,,,0.6739,3,,,,,,,,low,17,0,17,0,1,,,,,,,,,
297166,2022-11-29_04h59.50.797,vts_reward_expectancy_bt,2022.2.4,Win32,58.9240469,Chrome,1536,864,,,,,1,1279,,,,,,,,,,,,,,,,,125,S,star,1,0,,,,,,,,,,,,,,,,repeat,letter,lettRpt,k,Lo,,,,,,0.7084,3,,,,,,,,low,18,0,18,0,1,,,,,,,,,
297166,2022-11-29_04h59.50.797,vts_reward_expectancy_bt,2022.2.4,Win32,58.9240469,Chrome,1536,864,,,,,1,1280,,,,,,,,,,,,,,,,,174,W,triangle,1,0,,,,,,,,,,,,,,,,repeat,letter,lettRpt,k,Lo,,,,,,0.7074,3,,,,,,,,low,19,0,19,0,1,,,,,,,,,
297166,2022-11-29_04h59.50.797,vts_reward_expectancy_bt,2022.2.4,Win32,58.9240469,Chrome,1536,864,,,,,1,1281,,,,,,,,,,,,,,,,,160,Y,star,1,0,,,,,,,,,,,,,,,,repeat,letter,lettRpt,k,Lo,,,,,,0.9254,3,,,,,,,,low,20,0,20,0,1,,,,,,,,,
297166,2022-11-29_04h59.50.797,vts_reward_expectancy_bt,2022.2.4,Win32,58.9240469,Chrome,1536,864,,,,,0,1281,,,,,,,,,,,,,,,,,146,H,circle,0,0,,,,,,,,,,,,,,,,repeat,letter,NA,k,Lo,,,,,,0.7263,3,,,,,,,,low,21,0,21,0,1,,,,,,,,,
297166,2022-11-29_04h59.50.797,vts_reward_expectancy_bt,2022.2.4,Win32,58.9240469,Chrome,1536,864,,,,,10,1291,,,,,,,,,,,,,,,,,181,D,triangle,1,1,,,,,,,,,,,,,,,,repeat,letter,lettRpt,j,Lo,,,,,,0.8779,3,,,,,,,,low,22,0,22,0,1,,,,,,,,,
297166,2022-11-29_04h59.50.797,vts_reward_expectancy_bt,2022.2.4,Win32,58.9240469,Chrome,1536,864,,,,,10,1301,,,,,,,,,,,,,,,,,139,F,hexagon,1,0,,,,,,,,,,,,,,,,repeat,letter,lettRpt,j,Hi,,,,,,1.0234,3,,,,,,,,low,23,0,23,0,1,,,,,,,,,
297166,2022-11-29_04h59.50.797,vts_reward_expectancy_bt,2022.2.4,Win32,58.9240469,Chrome,1536,864,,,,,1,1302,,,,,,,,,,,,,,,,,146,W,star,1,0,,,,,,,,,,,,,,,,repeat,letter,lettRpt,k,Lo,,,,,,0.7936,3,,,,,,,,low,24,0,24,0,1,,,,,,,,,
297166,2022-11-29_04h59.50.797,vts_reward_expectancy_bt,2022.2.4,Win32,58.9240469,Chrome,1536,864,,,,,10,1312,,,,,,,,,,,,,,,,,125,H,circle,1,0,,,,,,,,,,,,,,,,repeat,letter,lettRpt,j,Hi,,,,,,0.687,3,,,,,,,,low,25,0,25,0,1,,,,,,,,,
297166,2022-11-29_04h59.50.797,vts_reward_expectancy_bt,2022.2.4,Win32,58.9240469,Chrome,1536,864,,,,,10,1322,,,,,,,,,,,,,,,,,174,F,hexagon,1,0,,,,,,,,,,,,,,,,repeat,letter,lettRpt,j,Hi,,,,,,0.776,3,,,,,,,,low,26,0,26,0,1,,,,,,,,,
297166,2022-11-29_04h59.50.797,vts_reward_expectancy_bt,2022.2.4,Win32,58.9240469,Chrome,1536,864,,,,,1,1323,,,,,,,,,,,,,,,,,181,Y,triangle,1,0,,,,,,,,,,,,,,,,repeat,letter,lettRpt,k,Lo,,,,,,0.5115,3,,,,,,,,low,27,0,27,0,1,,,,,,,,,
297166,2022-11-29_04h59.50.797,vts_reward_expectancy_bt,2022.2.4,Win32,58.9240469,Chrome,1536,864,,,,,1,1324,,,,,,,,,,,,,,,,,132,U,circle,1,0,,,,,,,,,,,,,,,,repeat,letter,lettRpt,k,Hi,,,,,,0.5841,3,,,,,,,,low,28,0,28,0,1,,,,,,,,,
297166,2022-11-29_04h59.50.797,vts_reward_expectancy_bt,2022.2.4,Win32,58.9240469,Chrome,1536,864,,,,,1,1325,,,,,,,,,,,,,,,,,167,S,star,1,0,,,,,,,,,,,,,,,,repeat,letter,lettRpt,k,Lo,,,,,,0.5968,3,,,,,,,,low,29,0,29,0,1,,,,,,,,,
297166,2022-11-29_04h59.50.797,vts_reward_expectancy_bt,2022.2.4,Win32,58.9240469,Chrome,1536,864,,,,,10,1335,,,,,,,,,,,,,,,,,160,B,triangle,1,0,,,,,,,,,,,,,,,,repeat,letter,lettRpt,j,Lo,,,,,,0.6724,3,,,,,,,,low,30,0,30,0,1,,,,,,,,,
297166,2022-11-29_04h59.50.797,vts_reward_expectancy_bt,2022.2.4,Win32,58.9240469,Chrome,1536,864,,,,,1,1336,,,,,,,,,,,,,,,,,139,D,hexagon,1,0,,,,,,,,,,,,,,,,repeat,letter,lettRpt,j,Hi,,,,,,0.9847,3,,,,,,,,low,31,0,31,0,1,,,,,,,,,
297166,2022-11-29_04h59.50.797,vts_reward_expectancy_bt,2022.2.4,Win32,58.9240469,Chrome,1536,864,,,,,1,1337,,,,,,,,,,,,,,,,,132,W,star,1,0,,,,,,,,,,,,,,,,switch,number,numSwt,d,Lo,,,,,,1.0454,4,,,,,,space,1.0965,low,0,0,0,0,1,,,,,,,,,
297166,2022-11-29_04h59.50.797,vts_reward_expectancy_bt,2022.2.4,Win32,58.9240469,Chrome,1536,864,,,,,0,1337,,,,,,,,,,,,,,,,,167,U,triangle,0,0,,,,,,,,,,,,,,,,repeat,number,NA,d,Lo,,,,,,0.4699,4,,,,,,,,low,1,0,1,0,1,,,,,,,,,
297166,2022-11-29_04h59.50.797,vts_reward_expectancy_bt,2022.2.4,Win32,58.9240469,Chrome,1536,864,,,,,10,1347,,,,,,,,,,,,,,,,,181,H,circle,1,1,,,,,,,,,,,,,,,,repeat,number,numRpt,f,Hi,,,,,,0.583,4,,,,,,,,low,2,0,2,0,1,,,,,,,,,
297166,2022-11-29_04h59.50.797,vts_reward_expectancy_bt,2022.2.4,Win32,58.9240469,Chrome,1536,864,,,,,10,1357,,,,,,,,,,,,,,,,,125,B,hexagon,1,0,,,,,,,,,,,,,,,,repeat,number,numRpt,d,Hi,,,,,,0.8037,4,,,,,,,,low,3,0,3,0,1,,,,,,,,,
297166,2022-11-29_04h59.50.797,vts_reward_expectancy_bt,2022.2.4,Win32,58.9240469,Chrome,1536,864,,,,,1,1358,,,,,,,,,,,,,,,,,160,F,star,1,0,,,,,,,,,,,,,,,,repeat,number,numRpt,f,Lo,,,,,,0.5277,4,,,,,,,,low,4,0,4,0,1,,,,,,,,,
297166,2022-11-29_04h59.50.797,vts_reward_expectancy_bt,2022.2.4,Win32,58.9240469,Chrome,1536,864,,,,,1,1359,,,,,,,,,,,,,,,,,139,S,triangle,1,0,,,,,,,,,,,,,,,,repeat,number,numRpt,d,Lo,,,,,,0.6892,4,,,,,,,,low,5,0,5,0,1,,,,,,,,,
297166,2022-11-29_04h59.50.797,vts_reward_expectancy_bt,2022.2.4,Win32,58.9240469,Chrome,1536,864,,,,,1,1360,,,,,,,,,,,,,,,,,146,Y,circle,1,0,,,,,,,,,,,,,,,,repeat,number,numRpt,d,Hi,,,,,,1.1418,4,,,,,,,,low,6,0,6,0,1,,,,,,,,,
297166,2022-11-29_04h59.50.797,vts_reward_expectancy_bt,2022.2.4,Win32,58.9240469,Chrome,1536,864,,,,,10,1370,,,,,,,,,,,,,,,,,174,D,hexagon,1,0,,,,,,,,,,,,,,,,repeat,number,numRpt,f,Hi,,,,,,1.1164,4,,,,,,,,low,7,0,7,0,1,,,,,,,,,
297166,2022-11-29_04h59.50.797,vts_reward_expectancy_bt,2022.2.4,Win32,58.9240469,Chrome,1536,864,,,,,1,1371,,,,,,,,,,,,,,,,,132,W,star,1,0,,,,,,,,,,,,,,,,repeat,number,numRpt,d,Lo,,,,,,0.9644,4,,,,,,,,low,8,0,8,0,1,,,,,,,,,
297166,2022-11-29_04h59.50.797,vts_reward_expectancy_bt,2022.2.4,Win32,58.9240469,Chrome,1536,864,,,,,10,1381,,,,,,,,,,,,,,,,,167,U,triangle,1,0,,,,,,,,,,,,,,,,repeat,number,numRpt,f,Lo,,,,,,0.5827,4,,,,,,,,low,9,0,9,0,1,,,,,,,,,
297166,2022-11-29_04h59.50.797,vts_reward_expectancy_bt,2022.2.4,Win32,58.9240469,Chrome,1536,864,,,,,10,1391,,,,,,,,,,,,,,,,,181,H,hexagon,1,0,,,,,,,,,,,,,,,,repeat,number,numRpt,f,Hi,,,,,,0.5122,4,,,,,,,,low,10,0,10,0,1,,,,,,,,,
297166,2022-11-29_04h59.50.797,vts_reward_expectancy_bt,2022.2.4,Win32,58.9240469,Chrome,1536,864,,,,,10,1401,,,,,,,,,,,,,,,,,125,B,circle,1,0,,,,,,,,,,,,,,,,repeat,number,numRpt,d,Hi,,,,,,0.8374,4,,,,,,,,low,11,0,11,0,1,,,,,,,,,
297166,2022-11-29_04h59.50.797,vts_reward_expectancy_bt,2022.2.4,Win32,58.9240469,Chrome,1536,864,,,,,10,1411,,,,,,,,,,,,,,,,,160,F,circle,1,0,,,,,,,,,,,,,,,,repeat,number,numRpt,f,Hi,,,,,,0.8665,4,,,,,,,,low,12,0,12,0,1,,,,,,,,,
297166,2022-11-29_04h59.50.797,vts_reward_expectancy_bt,2022.2.4,Win32,58.9240469,Chrome,1536,864,,,,,1,1412,,,,,,,,,,,,,,,,,139,S,triangle,1,0,,,,,,,,,,,,,,,,repeat,number,numRpt,d,Lo,,,,,,1.9706,4,,,,,,,,low,13,0,13,0,1,,,,,,,,,
297166,2022-11-29_04h59.50.797,vts_reward_expectancy_bt,2022.2.4,Win32,58.9240469,Chrome,1536,864,,,,,1,1413,,,,,,,,,,,,,,,,,146,Y,star,1,0,,,,,,,,,,,,,,,,repeat,number,numRpt,d,Lo,,,,,,0.9022,4,,,,,,,,low,14,0,14,0,1,,,,,,,,,
297166,2022-11-29_04h59.50.797,vts_reward_expectancy_bt,2022.2.4,Win32,58.9240469,Chrome,1536,864,,,,,10,1423,,,,,,,,,,,,,,,,,174,D,hexagon,1,0,,,,,,,,,,,,,,,,repeat,number,numRpt,f,Hi,,,,,,0.4603,4,,,,,,,,low,15,0,15,0,1,,,,,,,,,
297166,2022-11-29_04h59.50.797,vts_reward_expectancy_bt,2022.2.4,Win32,58.9240469,Chrome,1536,864,,,,,10,1433,,,,,,,,,,,,,,,,,174,W,star,1,0,,,,,,,,,,,,,,,,repeat,number,numRpt,f,Lo,,,,,,0.6044,4,,,,,,,,low,16,0,16,0,1,,,,,,,,,
297166,2022-11-29_04h59.50.797,vts_reward_expectancy_bt,2022.2.4,Win32,58.9240469,Chrome,1536,864,,,,,10,1443,,,,,,,,,,,,,,,,,146,F,hexagon,1,0,,,,,,,,,,,,,,,,repeat,number,numRpt,d,Hi,,,,,,0.9398,4,,,,,,,,low,17,0,17,0,1,,,,,,,,,
297166,2022-11-29_04h59.50.797,vts_reward_expectancy_bt,2022.2.4,Win32,58.9240469,Chrome,1536,864,,,,,10,1453,,,,,,,,,,,,,,,,,125,S,triangle,1,0,,,,,,,,,,,,,,,,repeat,number,numRpt,d,Lo,,,,,,0.8672,4,,,,,,,,low,18,0,18,0,1,,,,,,,,,
297166,2022-11-29_04h59.50.797,vts_reward_expectancy_bt,2022.2.4,Win32,58.9240469,Chrome,1536,864,,,,,10,1463,,,,,,,,,,,,,,,,,181,H,circle,1,0,,,,,,,,,,,,,,,,repeat,number,numRpt,f,Hi,,,,,,0.7009,4,,,,,,,,low,19,0,19,0,1,,,,,,,,,
297166,2022-11-29_04h59.50.797,vts_reward_expectancy_bt,2022.2.4,Win32,58.9240469,Chrome,1536,864,,,,,1,1464,,,,,,,,,,,,,,,,,160,U,hexagon,1,0,,,,,,,,,,,,,,,,repeat,number,numRpt,f,Hi,,,,,,0.8046,4,,,,,,,,low,20,0,20,0,1,,,,,,,,,
297166,2022-11-29_04h59.50.797,vts_reward_expectancy_bt,2022.2.4,Win32,58.9240469,Chrome,1536,864,,,,,1,1465,,,,,,,,,,,,,,,,,167,D,triangle,1,0,,,,,,,,,,,,,,,,repeat,number,numRpt,f,Lo,,,,,,0.7249,4,,,,,,,,low,21,0,21,0,1,,,,,,,,,
297166,2022-11-29_04h59.50.797,vts_reward_expectancy_bt,2022.2.4,Win32,58.9240469,Chrome,1536,864,,,,,10,1475,,,,,,,,,,,,,,,,,132,Y,circle,1,0,,,,,,,,,,,,,,,,repeat,number,numRpt,d,Hi,,,,,,1.2093,4,,,,,,,,low,22,0,22,0,1,,,,,,,,,
297166,2022-11-29_04h59.50.797,vts_reward_expectancy_bt,2022.2.4,Win32,58.9240469,Chrome,1536,864,,,,,1,1476,,,,,,,,,,,,,,,,,139,B,star,1,0,,,,,,,,,,,,,,,,repeat,number,numRpt,d,Lo,,,,,,1.7612,4,,,,,,,,low,23,0,23,0,1,,,,,,,,,
297166,2022-11-29_04h59.50.797,vts_reward_expectancy_bt,2022.2.4,Win32,58.9240469,Chrome,1536,864,,,,,1,1477,,,,,,,,,,,,,,,,,167,F,hexagon,1,0,,,,,,,,,,,,,,,,repeat,number,numRpt,f,Hi,,,,,,1.2555,4,,,,,,,,low,24,0,24,0,1,,,,,,,,,
297166,2022-11-29_04h59.50.797,vts_reward_expectancy_bt,2022.2.4,Win32,58.9240469,Chrome,1536,864,,,,,1,1478,,,,,,,,,,,,,,,,,160,H,triangle,1,0,,,,,,,,,,,,,,,,repeat,number,numRpt,f,Lo,,,,,,1.6706,4,,,,,,,,low,25,0,25,0,1,,,,,,,,,
297166,2022-11-29_04h59.50.797,vts_reward_expectancy_bt,2022.2.4,Win32,58.9240469,Chrome,1536,864,,,,,1,1479,,,,,,,,,,,,,,,,,132,U,star,1,0,,,,,,,,,,,,,,,,repeat,number,numRpt,d,Lo,,,,,,1.2096,4,,,,,,,,low,26,0,26,0,1,,,,,,,,,
297166,2022-11-29_04h59.50.797,vts_reward_expectancy_bt,2022.2.4,Win32,58.9240469,Chrome,1536,864,,,,,10,1489,,,,,,,,,,,,,,,,,125,S,circle,1,0,,,,,,,,,,,,,,,,repeat,number,numRpt,d,Hi,,,,,,0.9519,4,,,,,,,,low,27,0,27,0,1,,,,,,,,,
297166,2022-11-29_04h59.50.797,vts_reward_expectancy_bt,2022.2.4,Win32,58.9240469,Chrome,1536,864,,,,,1,1490,,,,,,,,,,,,,,,,,174,D,triangle,1,0,,,,,,,,,,,,,,,,repeat,number,numRpt,f,Lo,,,,,,0.9947,4,,,,,,,,low,28,0,28,0,1,,,,,,,,,
297166,2022-11-29_04h59.50.797,vts_reward_expectancy_bt,2022.2.4,Win32,58.9240469,Chrome,1536,864,,,,,10,1500,,,,,,,,,,,,,,,,,146,B,star,1,0,,,,,,,,,,,,,,,,repeat,number,numRpt,d,Lo,,,,,,1.5535,4,,,,,,,,low,29,0,29,0,1,,,,,,,,,
297166,2022-11-29_04h59.50.797,vts_reward_expectancy_bt,2022.2.4,Win32,58.9240469,Chrome,1536,864,,,,,10,1510,,,,,,,,,,,,,,,,,139,Y,hexagon,1,0,,,,,,,,,,,,,,,,repeat,number,numRpt,d,Hi,,,,,,0.8992,4,,,,,,,,low,30,0,30,0,1,,,,,,,,,
297166,2022-11-29_04h59.50.797,vts_reward_expectancy_bt,2022.2.4,Win32,58.9240469,Chrome,1536,864,,,,,10,1520,,,,,,,,,,,,,,,,,181,W,circle,1,0,,,,,,,,,,,,,,,,repeat,number,numRpt,f,Hi,,,,,,1.7401,4,,,,,,,,low,31,0,31,0,1,,,,,,,,,
297166,2022-11-29_04h59.50.797,vts_reward_expectancy_bt,2022.2.4,Win32,58.9240469,Chrome,1536,864,,,,,1,1521,,,,,,,,,,,,,,,,,160,U,star,1,0,,,,,,,,,,,,,,,,switch,letter,lettSwt,k,Lo,,,,,,0.694,5,,,,,,space,0.7055,low,0,0,0,0,1,,,,,,,,,
297166,2022-11-29_04h59.50.797,vts_reward_expectancy_bt,2022.2.4,Win32,58.9240469,Chrome,1536,864,,,,,1,1522,,,,,,,,,,,,,,,,,181,Y,circle,1,0,,,,,,,,,,,,,,,,repeat,letter,lettRpt,k,Hi,,,,,,0.619,5,,,,,,,,low,1,0,1,0,1,,,,,,,,,
297166,2022-11-29_04h59.50.797,vts_reward_expectancy_bt,2022.2.4,Win32,58.9240469,Chrome,1536,864,,,,,1,1523,,,,,,,,,,,,,,,,,146,W,triangle,1,0,,,,,,,,,,,,,,,,repeat,letter,lettRpt,k,Lo,,,,,,0.7748,5,,,,,,,,low,2,0,2,0,1,,,,,,,,,
297166,2022-11-29_04h59.50.797,vts_reward_expectancy_bt,2022.2.4,Win32,58.9240469,Chrome,1536,864,,,,,1,1524,,,,,,,,,,,,,,,,,132,S,hexagon,1,0,,,,,,,,,,,,,,,,repeat,letter,lettRpt,k,Hi,,,,,,0.8392,5,,,,,,,,low,3,0,3,0,1,,,,,,,,,
297166,2022-11-29_04h59.50.797,vts_reward_expectancy_bt,2022.2.4,Win32,58.9240469,Chrome,1536,864,,,,,10,1534,,,,,,,,,,,,,,,,,139,D,star,1,0,,,,,,,,,,,,,,,,repeat,letter,lettRpt,j,Lo,,,,,,0.7059,5,,,,,,,,low,4,0,4,0,1,,,,,,,,,
297166,2022-11-29_04h59.50.797,vts_reward_expectancy_bt,2022.2.4,Win32,58.9240469,Chrome,1536,864,,,,,10,1544,,,,,,,,,,,,,,,,,167,B,circle,1,0,,,,,,,,,,,,,,,,repeat,letter,lettRpt,j,Hi,,,,,,0.8235,5,,,,,,,,low,5,0,5,0,1,,,,,,,,,
297166,2022-11-29_04h59.50.797,vts_reward_expectancy_bt,2022.2.4,Win32,58.9240469,Chrome,1536,864,,,,,1,1545,,,,,,,,,,,,,,,,,174,H,triangle,1,0,,,,,,,,,,,,,,,,repeat,letter,lettRpt,j,Lo,,,,,,0.9114,5,,,,,,,,low,6,0,6,0,1,,,,,,,,,
297166,2022-11-29_04h59.50.797,vts_reward_expectancy_bt,2022.2.4,Win32,58.9240469,Chrome,1536,864,,,,,10,1555,,,,,,,,,,,,,,,,,125,F,hexagon,1,0,,,,,,,,,,,,,,,,repeat,letter,lettRpt,j,Hi,,,,,,0.6743,5,,,,,,,,low,7,0,7,0,1,,,,,,,,,
297166,2022-11-29_04h59.50.797,vts_reward_expectancy_bt,2022.2.4,Win32,58.9240469,Chrome,1536,864,,,,,1,1556,,,,,,,,,,,,,,,,,160,U,star,1,0,,,,,,,,,,,,,,,,repeat,letter,lettRpt,k,Lo,,,,,,0.6041,5,,,,,,,,low,8,0,8,0,1,,,,,,,,,
297166,2022-11-29_04h59.50.797,vts_reward_expectancy_bt,2022.2.4,Win32,58.9240469,Chrome,1536,864,,,,,10,1566,,,,,,,,,,,,,,,,,181,Y,triangle,1,0,,,,,,,,,,,,,,,,repeat,letter,lettRpt,k,Lo,,,,,,0.5388,5,,,,,,,,low,9,0,9,0,1,,,,,,,,,
297166,2022-11-29_04h59.50.797,vts_reward_expectancy_bt,2022.2.4,Win32,58.9240469,Chrome,1536,864,,,,,10,1576,,,,,,,,,,,,,,,,,146,W,circle,1,0,,,,,,,,,,,,,,,,repeat,letter,lettRpt,k,Hi,,,,,,0.6171,5,,,,,,,,low,10,0,10,0,1,,,,,,,,,
297166,2022-11-29_04h59.50.797,vts_reward_expectancy_bt,2022.2.4,Win32,58.9240469,Chrome,1536,864,,,,,10,1586,,,,,,,,,,,,,,,,,132,S,hexagon,1,0,,,,,,,,,,,,,,,,repeat,letter,lettRpt,k,Hi,,,,,,0.6744,5,,,,,,,,low,11,0,11,0,1,,,,,,,,,
297166,2022-11-29_04h59.50.797,vts_reward_expectancy_bt,2022.2.4,Win32,58.9240469,Chrome,1536,864,,,,,1,1587,,,,,,,,,,,,,,,,,139,D,hexagon,1,0,,,,,,,,,,,,,,,,repeat,letter,lettRpt,j,Hi,,,,,,0.7003,5,,,,,,,,low,12,0,12,0,1,,,,,,,,,
297166,2022-11-29_04h59.50.797,vts_reward_expectancy_bt,2022.2.4,Win32,58.9240469,Chrome,1536,864,,,,,10,1597,,,,,,,,,,,,,,,,,167,B,circle,1,0,,,,,,,,,,,,,,,,repeat,letter,lettRpt,j,Hi,,,,,,2.0721,5,,,,,,,,low,13,0,13,0,1,,,,,,,,,
297166,2022-11-29_04h59.50.797,vts_reward_expectancy_bt,2022.2.4,Win32,58.9240469,Chrome,1536,864,,,,,10,1607,,,,,,,,,,,,,,,,,174,H,star,1,0,,,,,,,,,,,,,,,,repeat,letter,lettRpt,j,Lo,,,,,,0.925,5,,,,,,,,low,14,0,14,0,1,,,,,,,,,
297166,2022-11-29_04h59.50.797,vts_reward_expectancy_bt,2022.2.4,Win32,58.9240469,Chrome,1536,864,,,,,1,1608,,,,,,,,,,,,,,,,,125,F,triangle,1,0,,,,,,,,,,,,,,,,repeat,letter,lettRpt,j,Lo,,,,,,0.9032,5,,,,,,,,low,15,0,15,0,1,,,,,,,,,
297166,2022-11-29_04h59.50.797,vts_reward_expectancy_bt,2022.2.4,Win32,58.9240469,Chrome,1536,864,,,,,10,1618,,,,,,,,,,,,,,,,,125,F,star,1,0,,,,,,,,,,,,,,,,repeat,letter,lettRpt,j,Lo,,,,,,1.5412,5,,,,,,,,low,16,0,16,0,1,,,,,,,,,
297166,2022-11-29_04h59.50.797,vts_reward_expectancy_bt,2022.2.4,Win32,58.9240469,Chrome,1536,864,,,,,10,1628,,,,,,,,,,,,,,,,,160,U,hexagon,1,0,,,,,,,,,,,,,,,,repeat,letter,lettRpt,k,Hi,,,,,,0.6398,5,,,,,,,,low,17,0,17,0,1,,,,,,,,,
297166,2022-11-29_04h59.50.797,vts_reward_expectancy_bt,2022.2.4,Win32,58.9240469,Chrome,1536,864,,,,,10,1638,,,,,,,,,,,,,,,,,167,Y,circle,1,0,,,,,,,,,,,,,,,,repeat,letter,lettRpt,k,Hi,,,,,,0.7929,5,,,,,,,,low,18,0,18,0,1,,,,,,,,,
297166,2022-11-29_04h59.50.797,vts_reward_expectancy_bt,2022.2.4,Win32,58.9240469,Chrome,1536,864,,,,,10,1648,,,,,,,,,,,,,,,,,181,H,triangle,1,0,,,,,,,,,,,,,,,,repeat,letter,lettRpt,j,Lo,,,,,,1.9954,5,,,,,,,,low,19,0,19,0,1,,,,,,,,,
297166,2022-11-29_04h59.50.797,vts_reward_expectancy_bt,2022.2.4,Win32,58.9240469,Chrome,1536,864,,,,,10,1658,,,,,,,,,,,,,,,,,174,B,hexagon,1,0,,,,,,,,,,,,,,,,repeat,letter,lettRpt,j,Hi,,,,,,0.6713,5,,,,,,,,low,20,0,20,0,1,,,,,,,,,
297166,2022-11-29_04h59.50.797,vts_reward_expectancy_bt,2022.2.4,Win32,58.9240469,Chrome,1536,864,,,,,10,1668,,,,,,,,,,,,,,,,,139,D,star,1,0,,,,,,,,,,,,,,,,repeat,letter,lettRpt,j,Lo,,,,,,0.6309,5,,,,,,,,low,21,0,21,0,1,,,,,,,,,
297166,2022-11-29_04h59.50.797,vts_reward_expectancy_bt,2022.2.4,Win32,58.9240469,Chrome,1536,864,,,,,10,1678,,,,,,,,,,,,,,,,,146,S,circle,1,0,,,,,,,,,,,,,,,,repeat,letter,lettRpt,k,Hi,,,,,,0.7967,5,,,,,,,,low,22,0,22,0,1,,,,,,,,,
297166,2022-11-29_04h59.50.797,vts_reward_expectancy_bt,2022.2.4,Win32,58.9240469,Chrome,1536,864,,,,,10,1688,,,,,,,,,,,,,,,,,132,W,triangle,1,0,,,,,,,,,,,,,,,,repeat,letter,lettRpt,k,Lo,,,,,,0.5572,5,,,,,,,,low,23,0,23,0,1,,,,,,,,,
297166,2022-11-29_04h59.50.797,vts_reward_expectancy_bt,2022.2.4,Win32,58.9240469,Chrome,1536,864,,,,,10,1698,,,,,,,,,,,,,,,,,125,F,hexagon,1,0,,,,,,,,,,,,,,,,repeat,letter,lettRpt,j,Hi,,,,,,0.9386,5,,,,,,,,low,24,0,24,0,1,,,,,,,,,
297166,2022-11-29_04h59.50.797,vts_reward_expectancy_bt,2022.2.4,Win32,58.9240469,Chrome,1536,864,,,,,10,1708,,,,,,,,,,,,,,,,,167,H,triangle,1,0,,,,,,,,,,,,,,,,repeat,letter,lettRpt,j,Lo,,,,,,0.7499,5,,,,,,,,low,25,0,25,0,1,,,,,,,,,
297166,2022-11-29_04h59.50.797,vts_reward_expectancy_bt,2022.2.4,Win32,58.9240469,Chrome,1536,864,,,,,1,1709,,,,,,,,,,,,,,,,,174,B,circle,1,0,,,,,,,,,,,,,,,,repeat,letter,lettRpt,j,Hi,,,,,,0.7146,5,,,,,,,,low,26,0,26,0,1,,,,,,,,,
297166,2022-11-29_04h59.50.797,vts_reward_expectancy_bt,2022.2.4,Win32,58.9240469,Chrome,1536,864,,,,,0,1709,,,,,,,,,,,,,,,,,146,S,star,0,0,,,,,,,,,,,,,,,,repeat,letter,NA,j,Hi,,,,,,0.8296,5,,,,,,,,low,27,0,27,0,1,,,,,,,,,
297166,2022-11-29_04h59.50.797,vts_reward_expectancy_bt,2022.2.4,Win32,58.9240469,Chrome,1536,864,,,,,1,1710,,,,,,,,,,,,,,,,,181,W,triangle,1,1,,,,,,,,,,,,,,,,repeat,letter,lettRpt,k,Lo,,,,,,2.9298,5,,,,,,,,low,28,0,28,0,1,,,,,,,,,
297166,2022-11-29_04h59.50.797,vts_reward_expectancy_bt,2022.2.4,Win32,58.9240469,Chrome,1536,864,,,,,10,1720,,,,,,,,,,,,,,,,,139,Y,hexagon,1,0,,,,,,,,,,,,,,,,repeat,letter,lettRpt,k,Hi,,,,,,1.4601,5,,,,,,,,low,29,0,29,0,1,,,,,,,,,
297166,2022-11-29_04h59.50.797,vts_reward_expectancy_bt,2022.2.4,Win32,58.9240469,Chrome,1536,864,,,,,1,1721,,,,,,,,,,,,,,,,,160,U,star,1,0,,,,,,,,,,,,,,,,repeat,letter,lettRpt,k,Lo,,,,,,0.5275,5,,,,,,,,low,30,0,30,0,1,,,,,,,,,
297166,2022-11-29_04h59.50.797,vts_reward_expectancy_bt,2022.2.4,Win32,58.9240469,Chrome,1536,864,,,,,1,1722,,,,,,,,,,,,,,,,,132,D,circle,1,0,,,,,,,,,,,,,,,,repeat,letter,lettRpt,j,Hi,,,,,,0.5093,5,,,,,,,,low,31,0,31,0,1,,,,,,,,,
297166,2022-11-29_04h59.50.797,vts_reward_expectancy_bt,2022.2.4,Win32,58.9240469,Chrome,1536,864,,,,,10,1732,,,,,,,,,,,,,,,,,139,S,hexagon,1,0,,,,,,,,,,,,,,,,switch,number,numSwt,d,Hi,,,,,,0.6169,6,,,,,,space,1.1523,low,0,0,0,0,1,,,,,,,,,
