participant,date,expName,psychopyVersion,OS,frameRate,browser,xResolution,yResolution,key_resp.keys,key_resp.rt,training_resp.keys,training_resp.rt,points_trial,points_cumul,trainBlock,training.thisRepN,training.thisTrialN,training.thisN,training.thisIndex,training.ran,LTriangleOpac,LCircleOpac,LHexagonOpac,LStarOpac,RTriangleOpac,RCircleOpac,RHexagonOpac,RStarOpac,LShape_ID,RShape_ID,curr_topStim,curr_bottStim,curr_shape,acc,E1,target_resp_prac1.keys,target_resp_prac1.rt,pracBlock,task1_prac_trials.thisRepN,task1_prac_trials.thisTrialN,task1_prac_trials.thisN,task1_prac_trials.thisIndex,task1_prac_trials.ran,target_resp_prac2.keys,target_resp_prac2.rt,task2_praac_trials.thisRepN,task2_praac_trials.thisTrialN,task2_praac_trials.thisN,task2_praac_trials.thisIndex,task2_praac_trials.ran,alt,task,condition,target_resp.keys,rewCond,vts_practice_trials.thisRepN,vts_practice_trials.thisTrialN,vts_practice_trials.thisN,vts_practice_trials.thisIndex,vts_practice_trials.ran,target_resp.rt,blockNum,trials_norew.thisRepN,trials_norew.thisTrialN,trials_norew.thisN,trials_norew.thisIndex,trials_norew.ran,key_resp_2.keys,key_resp_2.rt,rewExpectancy,trials_rew.thisRepN,trials_rew.thisTrialN,trials_rew.thisN,trials_rew.thisIndex,trials_rew.ran,Q1,Q2,Q2_text,Q3,Q4,Q5_text,Q5,xRes,yRes
297139,2022-11-27_14h13.12.533,vts_reward_expectancy_bt,2022.2.4,MacIntel,60.0024001,Chrome,1440,900,,,,,,,,,,,,,,,,,,,,,,,,,,,,,,,,,,,,,,,,,,,,,,,,,,,,,,,,,,,,,,,,,,,,,,,,,,,,
297139,2022-11-27_14h13.12.533,vts_reward_expectancy_bt,2022.2.4,MacIntel,60.0024001,Chrome,1440,900,space,14.19,,,,,,,,,,,,,,,,,,,,,,,,,,,,,,,,,,,,,,,,,,,,,,,,,,,,,,,,,,,,,,,,,,,,,,,,,,
297139,2022-11-27_14h13.12.533,vts_reward_expectancy_bt,2022.2.4,MacIntel,60.0024001,Chrome,1440,900,,,,,,,,,,,,,,,,,,,,,,,,,,,,,,,,,,,,,,,,,,,,,,,,,,,,,,,,,,,,,,,,,,,,,,,,,,,,
297139,2022-11-27_14h13.12.533,vts_reward_expectancy_bt,2022.2.4,MacIntel,60.0024001,Chrome,1440,900,,,l,2.2768,10,10,0,0,0,0,1,1,1,0,0,0,0,0,1,0,triangle,hexagon,,,,,,,,,,,,,,,,,,,,,,,,,,,,,,,,,,,,,,,,,,,,,,,,,,,,,,
297139,2022-11-27_14h13.12.533,vts_reward_expectancy_bt,2022.2.4,MacIntel,60.0024001,Chrome,1440,900,,,a,1.1647,10,20,0,0,1,1,10,1,0,0,0,1,0,1,0,0,star ,circle,,,,,,,,,,,,,,,,,,,,,,,,,,,,,,,,,,,,,,,,,,,,,,,,,,,,,,
297139,2022-11-27_14h13.12.533,vts_reward_expectancy_bt,2022.2.4,MacIntel,60.0024001,Chrome,1440,900,,,a,0.6766,10,30,0,0,2,2,11,1,0,0,0,1,0,0,1,0,star,hexagon,,,,,,,,,,,,,,,,,,,,,,,,,,,,,,,,,,,,,,,,,,,,,,,,,,,,,,
297139,2022-11-27_14h13.12.533,vts_reward_expectancy_bt,2022.2.4,MacIntel,60.0024001,Chrome,1440,900,,,l,0.6601,1,31,0,0,3,3,8,1,0,0,1,0,0,0,0,1,hexagon,star,,,,,,,,,,,,,,,,,,,,,,,,,,,,,,,,,,,,,,,,,,,,,,,,,,,,,,
297139,2022-11-27_14h13.12.533,vts_reward_expectancy_bt,2022.2.4,MacIntel,60.0024001,Chrome,1440,900,,,l,1.2322,1,32,0,0,4,4,3,1,0,1,0,0,1,0,0,0,circle,triangle,,,,,,,,,,,,,,,,,,,,,,,,,,,,,,,,,,,,,,,,,,,,,,,,,,,,,,
297139,2022-11-27_14h13.12.533,vts_reward_expectancy_bt,2022.2.4,MacIntel,60.0024001,Chrome,1440,900,,,a,0.9922,1,33,0,0,5,5,9,1,0,0,0,1,1,0,0,0,star,triangle,,,,,,,,,,,,,,,,,,,,,,,,,,,,,,,,,,,,,,,,,,,,,,,,,,,,,,
297139,2022-11-27_14h13.12.533,vts_reward_expectancy_bt,2022.2.4,MacIntel,60.0024001,Chrome,1440,900,,,l,1.001,10,43,0,0,6,6,4,1,0,1,0,0,0,0,1,0,circle,hexagon,,,,,,,,,,,,,,,,,,,,,,,,,,,,,,,,,,,,,,,,,,,,,,,,,,,,,,
297139,2022-11-27_14h13.12.533,vts_reward_expectancy_bt,2022.2.4,MacIntel,60.0024001,Chrome,1440,900,,,a,0.8787,10,53,0,0,7,7,7,1,0,0,1,0,0,1,0,0,hexagon,circle,,,,,,,,,,,,,,,,,,,,,,,,,,,,,,,,,,,,,,,,,,,,,,,,,,,,,,
297139,2022-11-27_14h13.12.533,vts_reward_expectancy_bt,2022.2.4,MacIntel,60.0024001,Chrome,1440,900,,,l,1.8076,1,54,0,0,8,8,0,1,1,0,0,0,0,1,0,0,triangle,circle,,,,,,,,,,,,,,,,,,,,,,,,,,,,,,,,,,,,,,,,,,,,,,,,,,,,,,
297139,2022-11-27_14h13.12.533,vts_reward_expectancy_bt,2022.2.4,MacIntel,60.0024001,Chrome,1440,900,,,a,1.5651,1,55,0,0,9,9,5,1,0,1,0,0,0,0,0,1,circle,star,,,,,,,,,,,,,,,,,,,,,,,,,,,,,,,,,,,,,,,,,,,,,,,,,,,,,,
297139,2022-11-27_14h13.12.533,vts_reward_expectancy_bt,2022.2.4,MacIntel,60.0024001,Chrome,1440,900,,,l,1.5312,1,56,0,0,10,10,2,1,1,0,0,0,0,0,0,1,triangle,star,,,,,,,,,,,,,,,,,,,,,,,,,,,,,,,,,,,,,,,,,,,,,,,,,,,,,,
297139,2022-11-27_14h13.12.533,vts_reward_expectancy_bt,2022.2.4,MacIntel,60.0024001,Chrome,1440,900,,,a,0.8913,1,57,0,0,11,11,6,1,0,0,1,0,1,0,0,0,hexagon,triangle,,,,,,,,,,,,,,,,,,,,,,,,,,,,,,,,,,,,,,,,,,,,,,,,,,,,,,
297139,2022-11-27_14h13.12.533,vts_reward_expectancy_bt,2022.2.4,MacIntel,60.0024001,Chrome,1440,900,,,a,1.0312,10,67,0,1,0,12,1,1,1,0,0,0,0,0,1,0,triangle,hexagon,,,,,,,,,,,,,,,,,,,,,,,,,,,,,,,,,,,,,,,,,,,,,,,,,,,,,,
297139,2022-11-27_14h13.12.533,vts_reward_expectancy_bt,2022.2.4,MacIntel,60.0024001,Chrome,1440,900,,,l,2.7642,1,68,0,1,1,13,3,1,0,1,0,0,1,0,0,0,circle,triangle,,,,,,,,,,,,,,,,,,,,,,,,,,,,,,,,,,,,,,,,,,,,,,,,,,,,,,
297139,2022-11-27_14h13.12.533,vts_reward_expectancy_bt,2022.2.4,MacIntel,60.0024001,Chrome,1440,900,,,a,2.2094,1,69,0,1,2,14,2,1,1,0,0,0,0,0,0,1,triangle,star,,,,,,,,,,,,,,,,,,,,,,,,,,,,,,,,,,,,,,,,,,,,,,,,,,,,,,
297139,2022-11-27_14h13.12.533,vts_reward_expectancy_bt,2022.2.4,MacIntel,60.0024001,Chrome,1440,900,,,a,1.0821,10,79,0,1,3,15,6,1,0,0,1,0,1,0,0,0,hexagon,triangle,,,,,,,,,,,,,,,,,,,,,,,,,,,,,,,,,,,,,,,,,,,,,,,,,,,,,,
297139,2022-11-27_14h13.12.533,vts_reward_expectancy_bt,2022.2.4,MacIntel,60.0024001,Chrome,1440,900,,,l,2.0408,10,89,0,1,4,16,10,1,0,0,0,1,0,1,0,0,star ,circle,,,,,,,,,,,,,,,,,,,,,,,,,,,,,,,,,,,,,,,,,,,,,,,,,,,,,,
297139,2022-11-27_14h13.12.533,vts_reward_expectancy_bt,2022.2.4,MacIntel,60.0024001,Chrome,1440,900,,,l,2.443,1,90,0,1,5,17,9,1,0,0,0,1,1,0,0,0,star,triangle,,,,,,,,,,,,,,,,,,,,,,,,,,,,,,,,,,,,,,,,,,,,,,,,,,,,,,
297139,2022-11-27_14h13.12.533,vts_reward_expectancy_bt,2022.2.4,MacIntel,60.0024001,Chrome,1440,900,,,l,1.4482,10,100,0,1,6,18,4,1,0,1,0,0,0,0,1,0,circle,hexagon,,,,,,,,,,,,,,,,,,,,,,,,,,,,,,,,,,,,,,,,,,,,,,,,,,,,,,
297139,2022-11-27_14h13.12.533,vts_reward_expectancy_bt,2022.2.4,MacIntel,60.0024001,Chrome,1440,900,,,a,0.8098,10,110,0,1,7,19,7,1,0,0,1,0,0,1,0,0,hexagon,circle,,,,,,,,,,,,,,,,,,,,,,,,,,,,,,,,,,,,,,,,,,,,,,,,,,,,,,
297139,2022-11-27_14h13.12.533,vts_reward_expectancy_bt,2022.2.4,MacIntel,60.0024001,Chrome,1440,900,,,a,3.2162,10,120,0,1,8,20,5,1,0,1,0,0,0,0,0,1,circle,star,,,,,,,,,,,,,,,,,,,,,,,,,,,,,,,,,,,,,,,,,,,,,,,,,,,,,,
297139,2022-11-27_14h13.12.533,vts_reward_expectancy_bt,2022.2.4,MacIntel,60.0024001,Chrome,1440,900,,,l,2.3821,10,130,0,1,9,21,11,1,0,0,0,1,0,0,1,0,star,hexagon,,,,,,,,,,,,,,,,,,,,,,,,,,,,,,,,,,,,,,,,,,,,,,,,,,,,,,
297139,2022-11-27_14h13.12.533,vts_reward_expectancy_bt,2022.2.4,MacIntel,60.0024001,Chrome,1440,900,,,a,1.2088,10,140,0,1,10,22,8,1,0,0,1,0,0,0,0,1,hexagon,star,,,,,,,,,,,,,,,,,,,,,,,,,,,,,,,,,,,,,,,,,,,,,,,,,,,,,,
297139,2022-11-27_14h13.12.533,vts_reward_expectancy_bt,2022.2.4,MacIntel,60.0024001,Chrome,1440,900,,,a,2.1273,1,141,0,1,11,23,0,1,1,0,0,0,0,1,0,0,triangle,circle,,,,,,,,,,,,,,,,,,,,,,,,,,,,,,,,,,,,,,,,,,,,,,,,,,,,,,
297139,2022-11-27_14h13.12.533,vts_reward_expectancy_bt,2022.2.4,MacIntel,60.0024001,Chrome,1440,900,,,a,0.9979,10,151,0,2,0,24,7,1,0,0,1,0,0,1,0,0,hexagon,circle,,,,,,,,,,,,,,,,,,,,,,,,,,,,,,,,,,,,,,,,,,,,,,,,,,,,,,
297139,2022-11-27_14h13.12.533,vts_reward_expectancy_bt,2022.2.4,MacIntel,60.0024001,Chrome,1440,900,,,a,1.8274,1,152,0,2,1,25,9,1,0,0,0,1,1,0,0,0,star,triangle,,,,,,,,,,,,,,,,,,,,,,,,,,,,,,,,,,,,,,,,,,,,,,,,,,,,,,
297139,2022-11-27_14h13.12.533,vts_reward_expectancy_bt,2022.2.4,MacIntel,60.0024001,Chrome,1440,900,,,l,1.1663,10,162,0,2,2,26,4,1,0,1,0,0,0,0,1,0,circle,hexagon,,,,,,,,,,,,,,,,,,,,,,,,,,,,,,,,,,,,,,,,,,,,,,,,,,,,,,
297139,2022-11-27_14h13.12.533,vts_reward_expectancy_bt,2022.2.4,MacIntel,60.0024001,Chrome,1440,900,,,l,2.1099,10,172,0,2,3,27,10,1,0,0,0,1,0,1,0,0,star ,circle,,,,,,,,,,,,,,,,,,,,,,,,,,,,,,,,,,,,,,,,,,,,,,,,,,,,,,
297139,2022-11-27_14h13.12.533,vts_reward_expectancy_bt,2022.2.4,MacIntel,60.0024001,Chrome,1440,900,,,a,1.1467,10,182,0,2,4,28,6,1,0,0,1,0,1,0,0,0,hexagon,triangle,,,,,,,,,,,,,,,,,,,,,,,,,,,,,,,,,,,,,,,,,,,,,,,,,,,,,,
297139,2022-11-27_14h13.12.533,vts_reward_expectancy_bt,2022.2.4,MacIntel,60.0024001,Chrome,1440,900,,,a,1.3004,10,192,0,2,5,29,0,1,1,0,0,0,0,1,0,0,triangle,circle,,,,,,,,,,,,,,,,,,,,,,,,,,,,,,,,,,,,,,,,,,,,,,,,,,,,,,
297139,2022-11-27_14h13.12.533,vts_reward_expectancy_bt,2022.2.4,MacIntel,60.0024001,Chrome,1440,900,,,l,2.0323,1,193,0,2,6,30,5,1,0,1,0,0,0,0,0,1,circle,star,,,,,,,,,,,,,,,,,,,,,,,,,,,,,,,,,,,,,,,,,,,,,,,,,,,,,,
297139,2022-11-27_14h13.12.533,vts_reward_expectancy_bt,2022.2.4,MacIntel,60.0024001,Chrome,1440,900,,,l,1.7173,10,203,0,2,7,31,11,1,0,0,0,1,0,0,1,0,star,hexagon,,,,,,,,,,,,,,,,,,,,,,,,,,,,,,,,,,,,,,,,,,,,,,,,,,,,,,
297139,2022-11-27_14h13.12.533,vts_reward_expectancy_bt,2022.2.4,MacIntel,60.0024001,Chrome,1440,900,,,a,2.0401,1,204,0,2,8,32,2,1,1,0,0,0,0,0,0,1,triangle,star,,,,,,,,,,,,,,,,,,,,,,,,,,,,,,,,,,,,,,,,,,,,,,,,,,,,,,
297139,2022-11-27_14h13.12.533,vts_reward_expectancy_bt,2022.2.4,MacIntel,60.0024001,Chrome,1440,900,,,a,1.1464,10,214,0,2,9,33,3,1,0,1,0,0,1,0,0,0,circle,triangle,,,,,,,,,,,,,,,,,,,,,,,,,,,,,,,,,,,,,,,,,,,,,,,,,,,,,,
297139,2022-11-27_14h13.12.533,vts_reward_expectancy_bt,2022.2.4,MacIntel,60.0024001,Chrome,1440,900,,,l,1.0176,10,224,0,2,10,34,1,1,1,0,0,0,0,0,1,0,triangle,hexagon,,,,,,,,,,,,,,,,,,,,,,,,,,,,,,,,,,,,,,,,,,,,,,,,,,,,,,
297139,2022-11-27_14h13.12.533,vts_reward_expectancy_bt,2022.2.4,MacIntel,60.0024001,Chrome,1440,900,,,a,1.9489,1,225,0,2,11,35,8,1,0,0,1,0,0,0,0,1,hexagon,star,,,,,,,,,,,,,,,,,,,,,,,,,,,,,,,,,,,,,,,,,,,,,,,,,,,,,,
297139,2022-11-27_14h13.12.533,vts_reward_expectancy_bt,2022.2.4,MacIntel,60.0024001,Chrome,1440,900,,,l,1.7312,10,235,1,0,0,0,10,1,0,0,0,1,0,1,0,0,star ,circle,,,,,,,,,,,,,,,,,,,,,,,,,,,,,,,,,,,,,,,,,,,,,,,,,,,,,,
297139,2022-11-27_14h13.12.533,vts_reward_expectancy_bt,2022.2.4,MacIntel,60.0024001,Chrome,1440,900,,,l,1.7076,1,236,1,0,1,1,8,1,0,0,1,0,0,0,0,1,hexagon,star,,,,,,,,,,,,,,,,,,,,,,,,,,,,,,,,,,,,,,,,,,,,,,,,,,,,,,
297139,2022-11-27_14h13.12.533,vts_reward_expectancy_bt,2022.2.4,MacIntel,60.0024001,Chrome,1440,900,,,a,1.2627,10,246,1,0,2,2,3,1,0,1,0,0,1,0,0,0,circle,triangle,,,,,,,,,,,,,,,,,,,,,,,,,,,,,,,,,,,,,,,,,,,,,,,,,,,,,,
297139,2022-11-27_14h13.12.533,vts_reward_expectancy_bt,2022.2.4,MacIntel,60.0024001,Chrome,1440,900,,,a,2.4559,1,247,1,0,3,3,9,1,0,0,0,1,1,0,0,0,star,triangle,,,,,,,,,,,,,,,,,,,,,,,,,,,,,,,,,,,,,,,,,,,,,,,,,,,,,,
297139,2022-11-27_14h13.12.533,vts_reward_expectancy_bt,2022.2.4,MacIntel,60.0024001,Chrome,1440,900,,,a,1.1654,10,257,1,0,4,4,7,1,0,0,1,0,0,1,0,0,hexagon,circle,,,,,,,,,,,,,,,,,,,,,,,,,,,,,,,,,,,,,,,,,,,,,,,,,,,,,,
297139,2022-11-27_14h13.12.533,vts_reward_expectancy_bt,2022.2.4,MacIntel,60.0024001,Chrome,1440,900,,,a,1.1977,10,267,1,0,5,5,5,1,0,1,0,0,0,0,0,1,circle,star,,,,,,,,,,,,,,,,,,,,,,,,,,,,,,,,,,,,,,,,,,,,,,,,,,,,,,
297139,2022-11-27_14h13.12.533,vts_reward_expectancy_bt,2022.2.4,MacIntel,60.0024001,Chrome,1440,900,,,l,2.8474,10,277,1,0,6,6,1,1,1,0,0,0,0,0,1,0,triangle,hexagon,,,,,,,,,,,,,,,,,,,,,,,,,,,,,,,,,,,,,,,,,,,,,,,,,,,,,,
297139,2022-11-27_14h13.12.533,vts_reward_expectancy_bt,2022.2.4,MacIntel,60.0024001,Chrome,1440,900,,,l,3.0926,1,278,1,0,7,7,2,1,1,0,0,0,0,0,0,1,triangle,star,,,,,,,,,,,,,,,,,,,,,,,,,,,,,,,,,,,,,,,,,,,,,,,,,,,,,,
297139,2022-11-27_14h13.12.533,vts_reward_expectancy_bt,2022.2.4,MacIntel,60.0024001,Chrome,1440,900,,,l,2.2293,10,288,1,0,8,8,4,1,0,1,0,0,0,0,1,0,circle,hexagon,,,,,,,,,,,,,,,,,,,,,,,,,,,,,,,,,,,,,,,,,,,,,,,,,,,,,,
297139,2022-11-27_14h13.12.533,vts_reward_expectancy_bt,2022.2.4,MacIntel,60.0024001,Chrome,1440,900,,,l,1.7151,10,298,1,0,9,9,0,1,1,0,0,0,0,1,0,0,triangle,circle,,,,,,,,,,,,,,,,,,,,,,,,,,,,,,,,,,,,,,,,,,,,,,,,,,,,,,
297139,2022-11-27_14h13.12.533,vts_reward_expectancy_bt,2022.2.4,MacIntel,60.0024001,Chrome,1440,900,,,a,0.9615,10,308,1,0,10,10,6,1,0,0,1,0,1,0,0,0,hexagon,triangle,,,,,,,,,,,,,,,,,,,,,,,,,,,,,,,,,,,,,,,,,,,,,,,,,,,,,,
297139,2022-11-27_14h13.12.533,vts_reward_expectancy_bt,2022.2.4,MacIntel,60.0024001,Chrome,1440,900,,,l,1.5024,10,318,1,0,11,11,11,1,0,0,0,1,0,0,1,0,star,hexagon,,,,,,,,,,,,,,,,,,,,,,,,,,,,,,,,,,,,,,,,,,,,,,,,,,,,,,
297139,2022-11-27_14h13.12.533,vts_reward_expectancy_bt,2022.2.4,MacIntel,60.0024001,Chrome,1440,900,,,l,0.9084,10,328,1,1,0,12,11,1,0,0,0,1,0,0,1,0,star,hexagon,,,,,,,,,,,,,,,,,,,,,,,,,,,,,,,,,,,,,,,,,,,,,,,,,,,,,,
297139,2022-11-27_14h13.12.533,vts_reward_expectancy_bt,2022.2.4,MacIntel,60.0024001,Chrome,1440,900,,,a,1.8257,10,338,1,1,1,13,5,1,0,1,0,0,0,0,0,1,circle,star,,,,,,,,,,,,,,,,,,,,,,,,,,,,,,,,,,,,,,,,,,,,,,,,,,,,,,
297139,2022-11-27_14h13.12.533,vts_reward_expectancy_bt,2022.2.4,MacIntel,60.0024001,Chrome,1440,900,,,a,2.476,10,348,1,1,2,14,6,1,0,0,1,0,1,0,0,0,hexagon,triangle,,,,,,,,,,,,,,,,,,,,,,,,,,,,,,,,,,,,,,,,,,,,,,,,,,,,,,
297139,2022-11-27_14h13.12.533,vts_reward_expectancy_bt,2022.2.4,MacIntel,60.0024001,Chrome,1440,900,,,a,1.3145,10,358,1,1,3,15,7,1,0,0,1,0,0,1,0,0,hexagon,circle,,,,,,,,,,,,,,,,,,,,,,,,,,,,,,,,,,,,,,,,,,,,,,,,,,,,,,
297139,2022-11-27_14h13.12.533,vts_reward_expectancy_bt,2022.2.4,MacIntel,60.0024001,Chrome,1440,900,,,l,2.3753,1,359,1,1,4,16,9,1,0,0,0,1,1,0,0,0,star,triangle,,,,,,,,,,,,,,,,,,,,,,,,,,,,,,,,,,,,,,,,,,,,,,,,,,,,,,
297139,2022-11-27_14h13.12.533,vts_reward_expectancy_bt,2022.2.4,MacIntel,60.0024001,Chrome,1440,900,,,l,1.4655,10,369,1,1,5,17,10,1,0,0,0,1,0,1,0,0,star ,circle,,,,,,,,,,,,,,,,,,,,,,,,,,,,,,,,,,,,,,,,,,,,,,,,,,,,,,
297139,2022-11-27_14h13.12.533,vts_reward_expectancy_bt,2022.2.4,MacIntel,60.0024001,Chrome,1440,900,,,a,1.3644,10,379,1,1,6,18,3,1,0,1,0,0,1,0,0,0,circle,triangle,,,,,,,,,,,,,,,,,,,,,,,,,,,,,,,,,,,,,,,,,,,,,,,,,,,,,,
297139,2022-11-27_14h13.12.533,vts_reward_expectancy_bt,2022.2.4,MacIntel,60.0024001,Chrome,1440,900,,,l,1.3924,1,380,1,1,7,19,2,1,1,0,0,0,0,0,0,1,triangle,star,,,,,,,,,,,,,,,,,,,,,,,,,,,,,,,,,,,,,,,,,,,,,,,,,,,,,,
297139,2022-11-27_14h13.12.533,vts_reward_expectancy_bt,2022.2.4,MacIntel,60.0024001,Chrome,1440,900,,,a,3.1169,10,390,1,1,8,20,8,1,0,0,1,0,0,0,0,1,hexagon,star,,,,,,,,,,,,,,,,,,,,,,,,,,,,,,,,,,,,,,,,,,,,,,,,,,,,,,
297139,2022-11-27_14h13.12.533,vts_reward_expectancy_bt,2022.2.4,MacIntel,60.0024001,Chrome,1440,900,,,l,1.0583,10,400,1,1,9,21,1,1,1,0,0,0,0,0,1,0,triangle,hexagon,,,,,,,,,,,,,,,,,,,,,,,,,,,,,,,,,,,,,,,,,,,,,,,,,,,,,,
297139,2022-11-27_14h13.12.533,vts_reward_expectancy_bt,2022.2.4,MacIntel,60.0024001,Chrome,1440,900,,,a,0.9803,10,410,1,1,10,22,4,1,0,1,0,0,0,0,1,0,circle,hexagon,,,,,,,,,,,,,,,,,,,,,,,,,,,,,,,,,,,,,,,,,,,,,,,,,,,,,,
297139,2022-11-27_14h13.12.533,vts_reward_expectancy_bt,2022.2.4,MacIntel,60.0024001,Chrome,1440,900,,,l,1.3458,10,420,1,1,11,23,0,1,1,0,0,0,0,1,0,0,triangle,circle,,,,,,,,,,,,,,,,,,,,,,,,,,,,,,,,,,,,,,,,,,,,,,,,,,,,,,
297139,2022-11-27_14h13.12.533,vts_reward_expectancy_bt,2022.2.4,MacIntel,60.0024001,Chrome,1440,900,,,a,0.998,10,430,1,2,0,24,3,1,0,1,0,0,1,0,0,0,circle,triangle,,,,,,,,,,,,,,,,,,,,,,,,,,,,,,,,,,,,,,,,,,,,,,,,,,,,,,
297139,2022-11-27_14h13.12.533,vts_reward_expectancy_bt,2022.2.4,MacIntel,60.0024001,Chrome,1440,900,,,a,2.2336,1,431,1,2,1,25,2,1,1,0,0,0,0,0,0,1,triangle,star,,,,,,,,,,,,,,,,,,,,,,,,,,,,,,,,,,,,,,,,,,,,,,,,,,,,,,
297139,2022-11-27_14h13.12.533,vts_reward_expectancy_bt,2022.2.4,MacIntel,60.0024001,Chrome,1440,900,,,l,0.9425,1,432,1,2,2,26,1,1,1,0,0,0,0,0,1,0,triangle,hexagon,,,,,,,,,,,,,,,,,,,,,,,,,,,,,,,,,,,,,,,,,,,,,,,,,,,,,,
297139,2022-11-27_14h13.12.533,vts_reward_expectancy_bt,2022.2.4,MacIntel,60.0024001,Chrome,1440,900,,,a,0.9828,10,442,1,2,3,27,6,1,0,0,1,0,1,0,0,0,hexagon,triangle,,,,,,,,,,,,,,,,,,,,,,,,,,,,,,,,,,,,,,,,,,,,,,,,,,,,,,
297139,2022-11-27_14h13.12.533,vts_reward_expectancy_bt,2022.2.4,MacIntel,60.0024001,Chrome,1440,900,,,l,2.3498,10,452,1,2,4,28,10,1,0,0,0,1,0,1,0,0,star ,circle,,,,,,,,,,,,,,,,,,,,,,,,,,,,,,,,,,,,,,,,,,,,,,,,,,,,,,
297139,2022-11-27_14h13.12.533,vts_reward_expectancy_bt,2022.2.4,MacIntel,60.0024001,Chrome,1440,900,,,a,0.7999,1,453,1,2,5,29,7,1,0,0,1,0,0,1,0,0,hexagon,circle,,,,,,,,,,,,,,,,,,,,,,,,,,,,,,,,,,,,,,,,,,,,,,,,,,,,,,
297139,2022-11-27_14h13.12.533,vts_reward_expectancy_bt,2022.2.4,MacIntel,60.0024001,Chrome,1440,900,,,a,2.2555,10,463,1,2,6,30,8,1,0,0,1,0,0,0,0,1,hexagon,star,,,,,,,,,,,,,,,,,,,,,,,,,,,,,,,,,,,,,,,,,,,,,,,,,,,,,,
297139,2022-11-27_14h13.12.533,vts_reward_expectancy_bt,2022.2.4,MacIntel,60.0024001,Chrome,1440,900,,,l,0.8245,1,464,1,2,7,31,0,1,1,0,0,0,0,1,0,0,triangle,circle,,,,,,,,,,,,,,,,,,,,,,,,,,,,,,,,,,,,,,,,,,,,,,,,,,,,,,
297139,2022-11-27_14h13.12.533,vts_reward_expectancy_bt,2022.2.4,MacIntel,60.0024001,Chrome,1440,900,,,l,1.3848,10,474,1,2,8,32,11,1,0,0,0,1,0,0,1,0,star,hexagon,,,,,,,,,,,,,,,,,,,,,,,,,,,,,,,,,,,,,,,,,,,,,,,,,,,,,,
297139,2022-11-27_14h13.12.533,vts_reward_expectancy_bt,2022.2.4,MacIntel,60.0024001,Chrome,1440,900,,,a,0.9798,10,484,1,2,9,33,5,1,0,1,0,0,0,0,0,1,circle,star,,,,,,,,,,,,,,,,,,,,,,,,,,,,,,,,,,,,,,,,,,,,,,,,,,,,,,
297139,2022-11-27_14h13.12.533,vts_reward_expectancy_bt,2022.2.4,MacIntel,60.0024001,Chrome,1440,900,,,l,0.814,10,494,1,2,10,34,4,1,0,1,0,0,0,0,1,0,circle,hexagon,,,,,,,,,,,,,,,,,,,,,,,,,,,,,,,,,,,,,,,,,,,,,,,,,,,,,,
297139,2022-11-27_14h13.12.533,vts_reward_expectancy_bt,2022.2.4,MacIntel,60.0024001,Chrome,1440,900,,,l,0.8717,1,495,1,2,11,35,9,1,0,0,0,1,1,0,0,0,star,triangle,,,,,,,,,,,,,,,,,,,,,,,,,,,,,,,,,,,,,,,,,,,,,,,,,,,,,,
297139,2022-11-27_14h13.12.533,vts_reward_expectancy_bt,2022.2.4,MacIntel,60.0024001,Chrome,1440,900,,,a,0.9503,1,496,2,0,0,0,8,1,0,0,1,0,0,0,0,1,hexagon,star,,,,,,,,,,,,,,,,,,,,,,,,,,,,,,,,,,,,,,,,,,,,,,,,,,,,,,
297139,2022-11-27_14h13.12.533,vts_reward_expectancy_bt,2022.2.4,MacIntel,60.0024001,Chrome,1440,900,,,a,0.5912,10,506,2,0,1,1,3,1,0,1,0,0,1,0,0,0,circle,triangle,,,,,,,,,,,,,,,,,,,,,,,,,,,,,,,,,,,,,,,,,,,,,,,,,,,,,,
297139,2022-11-27_14h13.12.533,vts_reward_expectancy_bt,2022.2.4,MacIntel,60.0024001,Chrome,1440,900,,,l,0.5835,10,516,2,0,2,2,11,1,0,0,0,1,0,0,1,0,star,hexagon,,,,,,,,,,,,,,,,,,,,,,,,,,,,,,,,,,,,,,,,,,,,,,,,,,,,,,
297139,2022-11-27_14h13.12.533,vts_reward_expectancy_bt,2022.2.4,MacIntel,60.0024001,Chrome,1440,900,,,a,0.6156,1,517,2,0,3,3,2,1,1,0,0,0,0,0,0,1,triangle,star,,,,,,,,,,,,,,,,,,,,,,,,,,,,,,,,,,,,,,,,,,,,,,,,,,,,,,
297139,2022-11-27_14h13.12.533,vts_reward_expectancy_bt,2022.2.4,MacIntel,60.0024001,Chrome,1440,900,,,l,0.5675,1,518,2,0,4,4,1,1,1,0,0,0,0,0,1,0,triangle,hexagon,,,,,,,,,,,,,,,,,,,,,,,,,,,,,,,,,,,,,,,,,,,,,,,,,,,,,,
297139,2022-11-27_14h13.12.533,vts_reward_expectancy_bt,2022.2.4,MacIntel,60.0024001,Chrome,1440,900,,,a,0.6902,10,528,2,0,5,5,9,1,0,0,0,1,1,0,0,0,star,triangle,,,,,,,,,,,,,,,,,,,,,,,,,,,,,,,,,,,,,,,,,,,,,,,,,,,,,,
297139,2022-11-27_14h13.12.533,vts_reward_expectancy_bt,2022.2.4,MacIntel,60.0024001,Chrome,1440,900,,,a,0.5479,10,538,2,0,6,6,0,1,1,0,0,0,0,1,0,0,triangle,circle,,,,,,,,,,,,,,,,,,,,,,,,,,,,,,,,,,,,,,,,,,,,,,,,,,,,,,
297139,2022-11-27_14h13.12.533,vts_reward_expectancy_bt,2022.2.4,MacIntel,60.0024001,Chrome,1440,900,,,l,0.1566,1,539,2,0,7,7,6,1,0,0,1,0,1,0,0,0,hexagon,triangle,,,,,,,,,,,,,,,,,,,,,,,,,,,,,,,,,,,,,,,,,,,,,,,,,,,,,,
297139,2022-11-27_14h13.12.533,vts_reward_expectancy_bt,2022.2.4,MacIntel,60.0024001,Chrome,1440,900,,,a,0.6161,10,549,2,0,8,8,5,1,0,1,0,0,0,0,0,1,circle,star,,,,,,,,,,,,,,,,,,,,,,,,,,,,,,,,,,,,,,,,,,,,,,,,,,,,,,
297139,2022-11-27_14h13.12.533,vts_reward_expectancy_bt,2022.2.4,MacIntel,60.0024001,Chrome,1440,900,,,a,0.5838,10,559,2,0,9,9,7,1,0,0,1,0,0,1,0,0,hexagon,circle,,,,,,,,,,,,,,,,,,,,,,,,,,,,,,,,,,,,,,,,,,,,,,,,,,,,,,
297139,2022-11-27_14h13.12.533,vts_reward_expectancy_bt,2022.2.4,MacIntel,60.0024001,Chrome,1440,900,,,a,0.7243,10,569,2,0,10,10,10,1,0,0,0,1,0,1,0,0,star ,circle,,,,,,,,,,,,,,,,,,,,,,,,,,,,,,,,,,,,,,,,,,,,,,,,,,,,,,
297139,2022-11-27_14h13.12.533,vts_reward_expectancy_bt,2022.2.4,MacIntel,60.0024001,Chrome,1440,900,,,a,0.6495,10,579,2,0,11,11,4,1,0,1,0,0,0,0,1,0,circle,hexagon,,,,,,,,,,,,,,,,,,,,,,,,,,,,,,,,,,,,,,,,,,,,,,,,,,,,,,
297139,2022-11-27_14h13.12.533,vts_reward_expectancy_bt,2022.2.4,MacIntel,60.0024001,Chrome,1440,900,,,l,1.007,10,589,2,1,0,12,4,1,0,1,0,0,0,0,1,0,circle,hexagon,,,,,,,,,,,,,,,,,,,,,,,,,,,,,,,,,,,,,,,,,,,,,,,,,,,,,,
297139,2022-11-27_14h13.12.533,vts_reward_expectancy_bt,2022.2.4,MacIntel,60.0024001,Chrome,1440,900,,,l,0.7084,10,599,2,1,1,13,1,1,1,0,0,0,0,0,1,0,triangle,hexagon,,,,,,,,,,,,,,,,,,,,,,,,,,,,,,,,,,,,,,,,,,,,,,,,,,,,,,
297139,2022-11-27_14h13.12.533,vts_reward_expectancy_bt,2022.2.4,MacIntel,60.0024001,Chrome,1440,900,,,a,0.8319,10,609,2,1,2,14,10,1,0,0,0,1,0,1,0,0,star ,circle,,,,,,,,,,,,,,,,,,,,,,,,,,,,,,,,,,,,,,,,,,,,,,,,,,,,,,
297139,2022-11-27_14h13.12.533,vts_reward_expectancy_bt,2022.2.4,MacIntel,60.0024001,Chrome,1440,900,,,a,1.1732,10,619,2,1,3,15,7,1,0,0,1,0,0,1,0,0,hexagon,circle,,,,,,,,,,,,,,,,,,,,,,,,,,,,,,,,,,,,,,,,,,,,,,,,,,,,,,
297139,2022-11-27_14h13.12.533,vts_reward_expectancy_bt,2022.2.4,MacIntel,60.0024001,Chrome,1440,900,,,a,0.9249,10,629,2,1,4,16,5,1,0,1,0,0,0,0,0,1,circle,star,,,,,,,,,,,,,,,,,,,,,,,,,,,,,,,,,,,,,,,,,,,,,,,,,,,,,,
297139,2022-11-27_14h13.12.533,vts_reward_expectancy_bt,2022.2.4,MacIntel,60.0024001,Chrome,1440,900,,,a,0.6906,10,639,2,1,5,17,3,1,0,1,0,0,1,0,0,0,circle,triangle,,,,,,,,,,,,,,,,,,,,,,,,,,,,,,,,,,,,,,,,,,,,,,,,,,,,,,
297139,2022-11-27_14h13.12.533,vts_reward_expectancy_bt,2022.2.4,MacIntel,60.0024001,Chrome,1440,900,,,l,0.7019,10,649,2,1,6,18,11,1,0,0,0,1,0,0,1,0,star,hexagon,,,,,,,,,,,,,,,,,,,,,,,,,,,,,,,,,,,,,,,,,,,,,,,,,,,,,,
297139,2022-11-27_14h13.12.533,vts_reward_expectancy_bt,2022.2.4,MacIntel,60.0024001,Chrome,1440,900,,,a,0.6505,1,650,2,1,7,19,2,1,1,0,0,0,0,0,0,1,triangle,star,,,,,,,,,,,,,,,,,,,,,,,,,,,,,,,,,,,,,,,,,,,,,,,,,,,,,,
297139,2022-11-27_14h13.12.533,vts_reward_expectancy_bt,2022.2.4,MacIntel,60.0024001,Chrome,1440,900,,,a,0.5659,10,660,2,1,8,20,6,1,0,0,1,0,1,0,0,0,hexagon,triangle,,,,,,,,,,,,,,,,,,,,,,,,,,,,,,,,,,,,,,,,,,,,,,,,,,,,,,
297139,2022-11-27_14h13.12.533,vts_reward_expectancy_bt,2022.2.4,MacIntel,60.0024001,Chrome,1440,900,,,l,0.9158,10,670,2,1,9,21,0,1,1,0,0,0,0,1,0,0,triangle,circle,,,,,,,,,,,,,,,,,,,,,,,,,,,,,,,,,,,,,,,,,,,,,,,,,,,,,,
297139,2022-11-27_14h13.12.533,vts_reward_expectancy_bt,2022.2.4,MacIntel,60.0024001,Chrome,1440,900,,,a,0.7336,10,680,2,1,10,22,8,1,0,0,1,0,0,0,0,1,hexagon,star,,,,,,,,,,,,,,,,,,,,,,,,,,,,,,,,,,,,,,,,,,,,,,,,,,,,,,
297139,2022-11-27_14h13.12.533,vts_reward_expectancy_bt,2022.2.4,MacIntel,60.0024001,Chrome,1440,900,,,a,0.9432,1,681,2,1,11,23,9,1,0,0,0,1,1,0,0,0,star,triangle,,,,,,,,,,,,,,,,,,,,,,,,,,,,,,,,,,,,,,,,,,,,,,,,,,,,,,
297139,2022-11-27_14h13.12.533,vts_reward_expectancy_bt,2022.2.4,MacIntel,60.0024001,Chrome,1440,900,,,l,1.0321,10,691,2,2,0,24,4,1,0,1,0,0,0,0,1,0,circle,hexagon,,,,,,,,,,,,,,,,,,,,,,,,,,,,,,,,,,,,,,,,,,,,,,,,,,,,,,
297139,2022-11-27_14h13.12.533,vts_reward_expectancy_bt,2022.2.4,MacIntel,60.0024001,Chrome,1440,900,,,a,0.9994,1,692,2,2,1,25,5,1,0,1,0,0,0,0,0,1,circle,star,,,,,,,,,,,,,,,,,,,,,,,,,,,,,,,,,,,,,,,,,,,,,,,,,,,,,,
297139,2022-11-27_14h13.12.533,vts_reward_expectancy_bt,2022.2.4,MacIntel,60.0024001,Chrome,1440,900,,,a,0.6833,10,702,2,2,2,26,8,1,0,0,1,0,0,0,0,1,hexagon,star,,,,,,,,,,,,,,,,,,,,,,,,,,,,,,,,,,,,,,,,,,,,,,,,,,,,,,
297139,2022-11-27_14h13.12.533,vts_reward_expectancy_bt,2022.2.4,MacIntel,60.0024001,Chrome,1440,900,,,l,0.5758,10,712,2,2,3,27,1,1,1,0,0,0,0,0,1,0,triangle,hexagon,,,,,,,,,,,,,,,,,,,,,,,,,,,,,,,,,,,,,,,,,,,,,,,,,,,,,,
297139,2022-11-27_14h13.12.533,vts_reward_expectancy_bt,2022.2.4,MacIntel,60.0024001,Chrome,1440,900,,,a,0.5667,10,722,2,2,4,28,3,1,0,1,0,0,1,0,0,0,circle,triangle,,,,,,,,,,,,,,,,,,,,,,,,,,,,,,,,,,,,,,,,,,,,,,,,,,,,,,
297139,2022-11-27_14h13.12.533,vts_reward_expectancy_bt,2022.2.4,MacIntel,60.0024001,Chrome,1440,900,,,l,0.5481,10,732,2,2,5,29,11,1,0,0,0,1,0,0,1,0,star,hexagon,,,,,,,,,,,,,,,,,,,,,,,,,,,,,,,,,,,,,,,,,,,,,,,,,,,,,,
297139,2022-11-27_14h13.12.533,vts_reward_expectancy_bt,2022.2.4,MacIntel,60.0024001,Chrome,1440,900,,,a,0.5752,1,733,2,2,6,30,2,1,1,0,0,0,0,0,0,1,triangle,star,,,,,,,,,,,,,,,,,,,,,,,,,,,,,,,,,,,,,,,,,,,,,,,,,,,,,,
297139,2022-11-27_14h13.12.533,vts_reward_expectancy_bt,2022.2.4,MacIntel,60.0024001,Chrome,1440,900,,,a,0.9329,10,743,2,2,7,31,7,1,0,0,1,0,0,1,0,0,hexagon,circle,,,,,,,,,,,,,,,,,,,,,,,,,,,,,,,,,,,,,,,,,,,,,,,,,,,,,,
297139,2022-11-27_14h13.12.533,vts_reward_expectancy_bt,2022.2.4,MacIntel,60.0024001,Chrome,1440,900,,,a,0.6236,10,753,2,2,8,32,6,1,0,0,1,0,1,0,0,0,hexagon,triangle,,,,,,,,,,,,,,,,,,,,,,,,,,,,,,,,,,,,,,,,,,,,,,,,,,,,,,
297139,2022-11-27_14h13.12.533,vts_reward_expectancy_bt,2022.2.4,MacIntel,60.0024001,Chrome,1440,900,,,l,0.9137,1,754,2,2,9,33,10,1,0,0,0,1,0,1,0,0,star ,circle,,,,,,,,,,,,,,,,,,,,,,,,,,,,,,,,,,,,,,,,,,,,,,,,,,,,,,
297139,2022-11-27_14h13.12.533,vts_reward_expectancy_bt,2022.2.4,MacIntel,60.0024001,Chrome,1440,900,,,a,0.5165,1,755,2,2,10,34,9,1,0,0,0,1,1,0,0,0,star,triangle,,,,,,,,,,,,,,,,,,,,,,,,,,,,,,,,,,,,,,,,,,,,,,,,,,,,,,
297139,2022-11-27_14h13.12.533,vts_reward_expectancy_bt,2022.2.4,MacIntel,60.0024001,Chrome,1440,900,,,l,0.5163,10,765,2,2,11,35,0,1,1,0,0,0,0,1,0,0,triangle,circle,,,,,,,,,,,,,,,,,,,,,,,,,,,,,,,,,,,,,,,,,,,,,,,,,,,,,,
297139,2022-11-27_14h13.12.533,vts_reward_expectancy_bt,2022.2.4,MacIntel,60.0024001,Chrome,1440,900,,,,,,,,,,,,,,,,,,,,,,,160,Y,triangle,1,0,f,1.072,0,0,0,0,0,1,,,,,,,,,,,,,,,,,,,,,,,,,,,,,,,,,,,,,,,,,
297139,2022-11-27_14h13.12.533,vts_reward_expectancy_bt,2022.2.4,MacIntel,60.0024001,Chrome,1440,900,,,,,,,,,,,,,,,,,,,,,,,174,H,hexagon,1,0,f,0.5928,0,1,0,1,0,1,,,,,,,,,,,,,,,,,,,,,,,,,,,,,,,,,,,,,,,,,
297139,2022-11-27_14h13.12.533,vts_reward_expectancy_bt,2022.2.4,MacIntel,60.0024001,Chrome,1440,900,,,,,,,,,,,,,,,,,,,,,,,125,S,star,1,0,d,0.7453,0,2,0,2,0,1,,,,,,,,,,,,,,,,,,,,,,,,,,,,,,,,,,,,,,,,,
297139,2022-11-27_14h13.12.533,vts_reward_expectancy_bt,2022.2.4,MacIntel,60.0024001,Chrome,1440,900,,,,,,,,,,,,,,,,,,,,,,,146,U,circle,1,0,d,1.4253,0,3,0,3,0,1,,,,,,,,,,,,,,,,,,,,,,,,,,,,,,,,,,,,,,,,,
297139,2022-11-27_14h13.12.533,vts_reward_expectancy_bt,2022.2.4,MacIntel,60.0024001,Chrome,1440,900,,,,,,,,,,,,,,,,,,,,,,,167,W,triangle,1,0,f,0.7244,0,4,0,4,0,1,,,,,,,,,,,,,,,,,,,,,,,,,,,,,,,,,,,,,,,,,
297139,2022-11-27_14h13.12.533,vts_reward_expectancy_bt,2022.2.4,MacIntel,60.0024001,Chrome,1440,900,,,,,,,,,,,,,,,,,,,,,,,132,F,hexagon,1,0,d,0.64,0,5,0,5,0,1,,,,,,,,,,,,,,,,,,,,,,,,,,,,,,,,,,,,,,,,,
297139,2022-11-27_14h13.12.533,vts_reward_expectancy_bt,2022.2.4,MacIntel,60.0024001,Chrome,1440,900,,,,,,,,,,,,,,,,,,,,,,,139,D,star,1,0,d,0.7928,0,6,0,6,0,1,,,,,,,,,,,,,,,,,,,,,,,,,,,,,,,,,,,,,,,,,
297139,2022-11-27_14h13.12.533,vts_reward_expectancy_bt,2022.2.4,MacIntel,60.0024001,Chrome,1440,900,,,,,,,,,,,,,,,,,,,,,,,181,B,circle,1,0,f,0.9407,0,7,0,7,0,1,,,,,,,,,,,,,,,,,,,,,,,,,,,,,,,,,,,,,,,,,
297139,2022-11-27_14h13.12.533,vts_reward_expectancy_bt,2022.2.4,MacIntel,60.0024001,Chrome,1440,900,,,,,,,,,,,,,,,,,,,,,,,160,Y,hexagon,1,0,f,1.1067,0,8,0,8,0,1,,,,,,,,,,,,,,,,,,,,,,,,,,,,,,,,,,,,,,,,,
297139,2022-11-27_14h13.12.533,vts_reward_expectancy_bt,2022.2.4,MacIntel,60.0024001,Chrome,1440,900,,,,,,,,,,,,,,,,,,,,,,,174,H,circle,1,0,f,0.6949,0,9,0,9,0,1,,,,,,,,,,,,,,,,,,,,,,,,,,,,,,,,,,,,,,,,,
297139,2022-11-27_14h13.12.533,vts_reward_expectancy_bt,2022.2.4,MacIntel,60.0024001,Chrome,1440,900,,,,,,,,,,,,,,,,,,,,,,,132,S,star,1,0,,,1,,,,,,k,1.2987,0,0,0,0,1,,,,,,,,,,,,,,,,,,,,,,,,,,,,,,,,,,
297139,2022-11-27_14h13.12.533,vts_reward_expectancy_bt,2022.2.4,MacIntel,60.0024001,Chrome,1440,900,,,,,,,,,,,,,,,,,,,,,,,146,F,triangle,1,0,,,1,,,,,,j,0.5598,1,0,1,0,1,,,,,,,,,,,,,,,,,,,,,,,,,,,,,,,,,,
297139,2022-11-27_14h13.12.533,vts_reward_expectancy_bt,2022.2.4,MacIntel,60.0024001,Chrome,1440,900,,,,,,,,,,,,,,,,,,,,,,,160,H,circle,1,0,,,1,,,,,,j,0.9963,2,0,2,0,1,,,,,,,,,,,,,,,,,,,,,,,,,,,,,,,,,,
297139,2022-11-27_14h13.12.533,vts_reward_expectancy_bt,2022.2.4,MacIntel,60.0024001,Chrome,1440,900,,,,,,,,,,,,,,,,,,,,,,,167,B,hexagon,1,0,,,1,,,,,,j,0.627,3,0,3,0,1,,,,,,,,,,,,,,,,,,,,,,,,,,,,,,,,,,
297139,2022-11-27_14h13.12.533,vts_reward_expectancy_bt,2022.2.4,MacIntel,60.0024001,Chrome,1440,900,,,,,,,,,,,,,,,,,,,,,,,174,W,star,1,0,,,1,,,,,,k,0.5772,4,0,4,0,1,,,,,,,,,,,,,,,,,,,,,,,,,,,,,,,,,,
297139,2022-11-27_14h13.12.533,vts_reward_expectancy_bt,2022.2.4,MacIntel,60.0024001,Chrome,1440,900,,,,,,,,,,,,,,,,,,,,,,,181,U,triangle,1,0,,,1,,,,,,k,0.8093,5,0,5,0,1,,,,,,,,,,,,,,,,,,,,,,,,,,,,,,,,,,
297139,2022-11-27_14h13.12.533,vts_reward_expectancy_bt,2022.2.4,MacIntel,60.0024001,Chrome,1440,900,,,,,,,,,,,,,,,,,,,,,,,125,D,circle,1,0,,,1,,,,,,j,0.7422,6,0,6,0,1,,,,,,,,,,,,,,,,,,,,,,,,,,,,,,,,,,
297139,2022-11-27_14h13.12.533,vts_reward_expectancy_bt,2022.2.4,MacIntel,60.0024001,Chrome,1440,900,,,,,,,,,,,,,,,,,,,,,,,139,Y,hexagon,1,0,,,1,,,,,,k,0.7085,7,0,7,0,1,,,,,,,,,,,,,,,,,,,,,,,,,,,,,,,,,,
297139,2022-11-27_14h13.12.533,vts_reward_expectancy_bt,2022.2.4,MacIntel,60.0024001,Chrome,1440,900,,,,,,,,,,,,,,,,,,,,,,,132,S,star,1,0,,,1,,,,,,k,0.9893,8,0,8,0,1,,,,,,,,,,,,,,,,,,,,,,,,,,,,,,,,,,
297139,2022-11-27_14h13.12.533,vts_reward_expectancy_bt,2022.2.4,MacIntel,60.0024001,Chrome,1440,900,,,,,,,,,,,,,,,,,,,,,,,146,F,circle,1,0,,,1,,,,,,j,2.4793,9,0,9,0,1,,,,,,,,,,,,,,,,,,,,,,,,,,,,,,,,,,
297139,2022-11-27_14h13.12.533,vts_reward_expectancy_bt,2022.2.4,MacIntel,60.0024001,Chrome,1440,900,,,,,0,765,,,,,,,,,,,,,,,,,125,U,star,-1,0,,,2,,,,,,,,,,,,,-1,no_choice,NA,,vtsPrac,0,0,0,0,1,,,,,,,,,,,,,,,,,,,,,,,,
297139,2022-11-27_14h13.12.533,vts_reward_expectancy_bt,2022.2.4,MacIntel,60.0024001,Chrome,1440,900,,,,,0,765,,,,,,,,,,,,,,,,,160,S,circle,1,0,,,2,,,,,,,,,,,,,switch,number,numSwt,f,vtsPrac,1,0,1,0,1,0.8615,,,,,,,,,,,,,,,,,,,,,,,
297139,2022-11-27_14h13.12.533,vts_reward_expectancy_bt,2022.2.4,MacIntel,60.0024001,Chrome,1440,900,,,,,0,765,,,,,,,,,,,,,,,,,174,B,star,1,0,,,2,,,,,,,,,,,,,repeat,number,numRpt,f,vtsPrac,2,0,2,0,1,0.6905,,,,,,,,,,,,,,,,,,,,,,,
297139,2022-11-27_14h13.12.533,vts_reward_expectancy_bt,2022.2.4,MacIntel,60.0024001,Chrome,1440,900,,,,,0,765,,,,,,,,,,,,,,,,,146,Y,circle,1,0,,,2,,,,,,,,,,,,,repeat,number,numRpt,d,vtsPrac,3,0,3,0,1,1.0901,,,,,,,,,,,,,,,,,,,,,,,
297139,2022-11-27_14h13.12.533,vts_reward_expectancy_bt,2022.2.4,MacIntel,60.0024001,Chrome,1440,900,,,,,0,765,,,,,,,,,,,,,,,,,125,U,circle,1,0,,,2,,,,,,,,,,,,,repeat,number,numRpt,d,vtsPrac,4,0,4,0,1,0.5064,,,,,,,,,,,,,,,,,,,,,,,
297139,2022-11-27_14h13.12.533,vts_reward_expectancy_bt,2022.2.4,MacIntel,60.0024001,Chrome,1440,900,,,,,0,765,,,,,,,,,,,,,,,,,160,S,star,1,0,,,2,,,,,,,,,,,,,repeat,number,numRpt,f,vtsPrac,5,0,5,0,1,0.4542,,,,,,,,,,,,,,,,,,,,,,,
297139,2022-11-27_14h13.12.533,vts_reward_expectancy_bt,2022.2.4,MacIntel,60.0024001,Chrome,1440,900,,,,,0,765,,,,,,,,,,,,,,,,,174,B,triangle,1,0,,,2,,,,,,,,,,,,,repeat,number,numRpt,f,vtsPrac,6,0,6,0,1,0.6567,,,,,,,,,,,,,,,,,,,,,,,
297139,2022-11-27_14h13.12.533,vts_reward_expectancy_bt,2022.2.4,MacIntel,60.0024001,Chrome,1440,900,,,,,0,765,,,,,,,,,,,,,,,,,146,Y,circle,1,0,,,2,,,,,,,,,,,,,repeat,number,numRpt,d,vtsPrac,7,0,7,0,1,0.6566,,,,,,,,,,,,,,,,,,,,,,,
297139,2022-11-27_14h13.12.533,vts_reward_expectancy_bt,2022.2.4,MacIntel,60.0024001,Chrome,1440,900,,,,,0,765,,,,,,,,,,,,,,,,,160,S,star,1,0,,,2,,,,,,,,,,,,,repeat,number,numRpt,f,vtsPrac,8,0,8,0,1,0.5114,,,,,,,,,,,,,,,,,,,,,,,
297139,2022-11-27_14h13.12.533,vts_reward_expectancy_bt,2022.2.4,MacIntel,60.0024001,Chrome,1440,900,,,,,0,765,,,,,,,,,,,,,,,,,132,F,circle,1,0,,,2,,,,,,,,,,,,,repeat,number,numRpt,d,vtsPrac,9,0,9,0,1,0.7325,,,,,,,,,,,,,,,,,,,,,,,
297139,2022-11-27_14h13.12.533,vts_reward_expectancy_bt,2022.2.4,MacIntel,60.0024001,Chrome,1440,900,,,,,0,765,,,,,,,,,,,,,,,,,174,H,hexagon,1,0,,,2,,,,,,,,,,,,,repeat,number,numRpt,f,vtsPrac,10,0,10,0,1,0.6067,,,,,,,,,,,,,,,,,,,,,,,
297139,2022-11-27_14h13.12.533,vts_reward_expectancy_bt,2022.2.4,MacIntel,60.0024001,Chrome,1440,900,,,,,0,765,,,,,,,,,,,,,,,,,167,B,star,1,0,,,2,,,,,,,,,,,,,repeat,number,numRpt,f,vtsPrac,11,0,11,0,1,0.4603,,,,,,,,,,,,,,,,,,,,,,,
297139,2022-11-27_14h13.12.533,vts_reward_expectancy_bt,2022.2.4,MacIntel,60.0024001,Chrome,1440,900,,,,,0,765,,,,,,,,,,,,,,,,,181,S,star,1,0,,,2,,,,,,,,,,,,,repeat,number,numRpt,f,vtsPrac,12,0,12,0,1,0.4892,,,,,,,,,,,,,,,,,,,,,,,
297139,2022-11-27_14h13.12.533,vts_reward_expectancy_bt,2022.2.4,MacIntel,60.0024001,Chrome,1440,900,,,,,0,765,,,,,,,,,,,,,,,,,160,W,triangle,1,0,,,2,,,,,,,,,,,,,repeat,number,numRpt,f,vtsPrac,13,0,13,0,1,0.5725,,,,,,,,,,,,,,,,,,,,,,,
297139,2022-11-27_14h13.12.533,vts_reward_expectancy_bt,2022.2.4,MacIntel,60.0024001,Chrome,1440,900,,,,,0,765,,,,,,,,,,,,,,,,,125,H,hexagon,1,0,,,2,,,,,,,,,,,,,repeat,number,numRpt,d,vtsPrac,14,0,14,0,1,0.9058,,,,,,,,,,,,,,,,,,,,,,,
297139,2022-11-27_14h13.12.533,vts_reward_expectancy_bt,2022.2.4,MacIntel,60.0024001,Chrome,1440,900,,,,,0,765,,,,,,,,,,,,,,,,,139,F,circle,1,0,,,2,,,,,,,,,,,,,repeat,number,numRpt,d,vtsPrac,15,0,15,0,1,0.8061,,,,,,,,,,,,,,,,,,,,,,,
297139,2022-11-27_14h13.12.533,vts_reward_expectancy_bt,2022.2.4,MacIntel,60.0024001,Chrome,1440,900,,,,,0,765,,,,,,,,,,,,,,,,,167,S,triangle,1,0,,,2,,,,,,,,,,,,,repeat,number,numRpt,f,vtsPrac,16,0,16,0,1,1.1778,,,,,,,,,,,,,,,,,,,,,,,
297139,2022-11-27_14h13.12.533,vts_reward_expectancy_bt,2022.2.4,MacIntel,60.0024001,Chrome,1440,900,,,,,0,765,,,,,,,,,,,,,,,,,125,Y,circle,1,0,,,2,,,,,,,,,,,,,repeat,number,numRpt,d,vtsPrac,17,0,17,0,1,0.6064,,,,,,,,,,,,,,,,,,,,,,,
297139,2022-11-27_14h13.12.533,vts_reward_expectancy_bt,2022.2.4,MacIntel,60.0024001,Chrome,1440,900,,,,,0,765,,,,,,,,,,,,,,,,,132,F,star,1,0,,,2,,,,,,,,,,,,,repeat,number,numRpt,d,vtsPrac,18,0,18,0,1,0.8159,,,,,,,,,,,,,,,,,,,,,,,
297139,2022-11-27_14h13.12.533,vts_reward_expectancy_bt,2022.2.4,MacIntel,60.0024001,Chrome,1440,900,,,,,0,765,,,,,,,,,,,,,,,,,174,B,circle,1,0,,,2,,,,,,,,,,,,,repeat,number,numRpt,f,vtsPrac,19,0,19,0,1,0.5744,,,,,,,,,,,,,,,,,,,,,,,
297139,2022-11-27_14h13.12.533,vts_reward_expectancy_bt,2022.2.4,MacIntel,60.0024001,Chrome,1440,900,,,,,0,765,,,,,,,,,,,,,,,,,167,S,triangle,1,0,,,2,,,,,,,,,,,,,repeat,number,numRpt,f,vtsPrac,20,0,20,0,1,1.0258,,,,,,,,,,,,,,,,,,,,,,,
297139,2022-11-27_14h13.12.533,vts_reward_expectancy_bt,2022.2.4,MacIntel,60.0024001,Chrome,1440,900,,,,,0,765,,,,,,,,,,,,,,,,,181,D,star,1,0,,,2,,,,,,,,,,,,,repeat,number,numRpt,f,vtsPrac,21,0,21,0,1,0.6113,,,,,,,,,,,,,,,,,,,,,,,
297139,2022-11-27_14h13.12.533,vts_reward_expectancy_bt,2022.2.4,MacIntel,60.0024001,Chrome,1440,900,,,,,0,765,,,,,,,,,,,,,,,,,160,H,star,1,0,,,2,,,,,,,,,,,,,repeat,number,numRpt,f,vtsPrac,22,0,22,0,1,1.0888,,,,,,,,,,,,,,,,,,,,,,,
297139,2022-11-27_14h13.12.533,vts_reward_expectancy_bt,2022.2.4,MacIntel,60.0024001,Chrome,1440,900,,,,,0,765,,,,,,,,,,,,,,,,,132,W,hexagon,1,0,,,2,,,,,,,,,,,,,repeat,number,numRpt,d,vtsPrac,23,0,23,0,1,2.121,,,,,,,,,,,,,,,,,,,,,,,
297139,2022-11-27_14h13.12.533,vts_reward_expectancy_bt,2022.2.4,MacIntel,60.0024001,Chrome,1440,900,,,,,0,765,,,,,,,,,,,,,,,,,125,B,star,1,0,,,2,,,,,,,,,,,,,repeat,number,numRpt,d,vtsPrac,24,0,24,0,1,0.6774,,,,,,,,,,,,,,,,,,,,,,,
297139,2022-11-27_14h13.12.533,vts_reward_expectancy_bt,2022.2.4,MacIntel,60.0024001,Chrome,1440,900,,,,,0,765,,,,,,,,,,,,,,,,,139,Y,circle,1,0,,,2,,,,,,,,,,,,,repeat,number,numRpt,d,vtsPrac,25,0,25,0,1,0.6451,,,,,,,,,,,,,,,,,,,,,,,
297139,2022-11-27_14h13.12.533,vts_reward_expectancy_bt,2022.2.4,MacIntel,60.0024001,Chrome,1440,900,,,,,0,765,,,,,,,,,,,,,,,,,174,U,circle,1,0,,,2,,,,,,,,,,,,,repeat,number,numRpt,f,vtsPrac,26,0,26,0,1,0.754,,,,,,,,,,,,,,,,,,,,,,,
297139,2022-11-27_14h13.12.533,vts_reward_expectancy_bt,2022.2.4,MacIntel,60.0024001,Chrome,1440,900,,,,,0,765,,,,,,,,,,,,,,,,,132,W,hexagon,1,0,,,2,,,,,,,,,,,,,repeat,number,numRpt,d,vtsPrac,27,0,27,0,1,0.6137,,,,,,,,,,,,,,,,,,,,,,,
297139,2022-11-27_14h13.12.533,vts_reward_expectancy_bt,2022.2.4,MacIntel,60.0024001,Chrome,1440,900,,,,,0,765,,,,,,,,,,,,,,,,,125,B,star,1,0,,,2,,,,,,,,,,,,,repeat,number,numRpt,d,vtsPrac,28,0,28,0,1,0.9399,,,,,,,,,,,,,,,,,,,,,,,
297139,2022-11-27_14h13.12.533,vts_reward_expectancy_bt,2022.2.4,MacIntel,60.0024001,Chrome,1440,900,,,,,0,765,,,,,,,,,,,,,,,,,132,H,circle,1,0,,,2,,,,,,,,,,,,,repeat,number,numRpt,d,vtsPrac,29,0,29,0,1,0.6117,,,,,,,,,,,,,,,,,,,,,,,
297139,2022-11-27_14h13.12.533,vts_reward_expectancy_bt,2022.2.4,MacIntel,60.0024001,Chrome,1440,900,,,,,0,765,,,,,,,,,,,,,,,,,146,D,hexagon,1,0,,,2,,,,,,,,,,,,,repeat,number,numRpt,d,vtsPrac,30,0,30,0,1,1.2066,,,,,,,,,,,,,,,,,,,,,,,
297139,2022-11-27_14h13.12.533,vts_reward_expectancy_bt,2022.2.4,MacIntel,60.0024001,Chrome,1440,900,,,,,0,765,,,,,,,,,,,,,,,,,160,W,star,1,0,,,2,,,,,,,,,,,,,repeat,number,numRpt,f,vtsPrac,31,0,31,0,1,0.9833,,,,,,,,,,,,,,,,,,,,,,,
297139,2022-11-27_14h13.12.533,vts_reward_expectancy_bt,2022.2.4,MacIntel,60.0024001,Chrome,1440,900,,,,,0,765,,,,,,,,,,,,,,,,,167,Y,hexagon,0,0,,,3,,,,,,,,,,,,,repeat,number,NA,d,vtsPrac,0,0,0,0,1,1.68,,,,,,,,,,,,,,,,,,,,,,,
297139,2022-11-27_14h13.12.533,vts_reward_expectancy_bt,2022.2.4,MacIntel,60.0024001,Chrome,1440,900,,,,,0,765,,,,,,,,,,,,,,,,,125,D,star,1,1,,,3,,,,,,,,,,,,,repeat,number,numRpt,d,vtsPrac,1,0,1,0,1,1.5898,,,,,,,,,,,,,,,,,,,,,,,
297139,2022-11-27_14h13.12.533,vts_reward_expectancy_bt,2022.2.4,MacIntel,60.0024001,Chrome,1440,900,,,,,0,765,,,,,,,,,,,,,,,,,132,F,hexagon,1,0,,,3,,,,,,,,,,,,,repeat,number,numRpt,d,vtsPrac,2,0,2,0,1,1.6398,,,,,,,,,,,,,,,,,,,,,,,
297139,2022-11-27_14h13.12.533,vts_reward_expectancy_bt,2022.2.4,MacIntel,60.0024001,Chrome,1440,900,,,,,0,765,,,,,,,,,,,,,,,,,160,H,star,1,0,,,3,,,,,,,,,,,,,repeat,number,numRpt,f,vtsPrac,3,0,3,0,1,0.6301,,,,,,,,,,,,,,,,,,,,,,,
297139,2022-11-27_14h13.12.533,vts_reward_expectancy_bt,2022.2.4,MacIntel,60.0024001,Chrome,1440,900,,,,,0,765,,,,,,,,,,,,,,,,,167,Y,hexagon,1,0,,,3,,,,,,,,,,,,,switch,letter,lettSwt,k,vtsPrac,4,0,4,0,1,0.7795,,,,,,,,,,,,,,,,,,,,,,,
297139,2022-11-27_14h13.12.533,vts_reward_expectancy_bt,2022.2.4,MacIntel,60.0024001,Chrome,1440,900,,,,,0,765,,,,,,,,,,,,,,,,,125,D,star,1,0,,,3,,,,,,,,,,,,,repeat,letter,lettRpt,j,vtsPrac,5,0,5,0,1,0.7407,,,,,,,,,,,,,,,,,,,,,,,
297139,2022-11-27_14h13.12.533,vts_reward_expectancy_bt,2022.2.4,MacIntel,60.0024001,Chrome,1440,900,,,,,0,765,,,,,,,,,,,,,,,,,132,F,triangle,1,0,,,3,,,,,,,,,,,,,repeat,letter,lettRpt,j,vtsPrac,6,0,6,0,1,0.8759,,,,,,,,,,,,,,,,,,,,,,,
297139,2022-11-27_14h13.12.533,vts_reward_expectancy_bt,2022.2.4,MacIntel,60.0024001,Chrome,1440,900,,,,,0,765,,,,,,,,,,,,,,,,,160,H,star,1,0,,,3,,,,,,,,,,,,,switch,number,numSwt,f,vtsPrac,7,0,7,0,1,1.5826,,,,,,,,,,,,,,,,,,,,,,,
297139,2022-11-27_14h13.12.533,vts_reward_expectancy_bt,2022.2.4,MacIntel,60.0024001,Chrome,1440,900,,,,,0,765,,,,,,,,,,,,,,,,,125,F,circle,1,0,,,3,,,,,,,,,,,,,repeat,number,numRpt,d,vtsPrac,8,0,8,0,1,0.8762,,,,,,,,,,,,,,,,,,,,,,,
297139,2022-11-27_14h13.12.533,vts_reward_expectancy_bt,2022.2.4,MacIntel,60.0024001,Chrome,1440,900,,,,,0,765,,,,,,,,,,,,,,,,,146,Y,triangle,0,0,,,3,,,,,,,,,,,,,repeat,number,NA,f,vtsPrac,9,0,9,0,1,1.1944,,,,,,,,,,,,,,,,,,,,,,,
297139,2022-11-27_14h13.12.533,vts_reward_expectancy_bt,2022.2.4,MacIntel,60.0024001,Chrome,1440,900,,,,,0,765,,,,,,,,,,,,,,,,,174,B,star,1,1,,,3,,,,,,,,,,,,,switch,letter,lettSwt,j,vtsPrac,10,0,10,0,1,1.2972,,,,,,,,,,,,,,,,,,,,,,,
297139,2022-11-27_14h13.12.533,vts_reward_expectancy_bt,2022.2.4,MacIntel,60.0024001,Chrome,1440,900,,,,,0,765,,,,,,,,,,,,,,,,,160,W,circle,1,0,,,3,,,,,,,,,,,,,repeat,letter,lettRpt,k,vtsPrac,11,0,11,0,1,0.7255,,,,,,,,,,,,,,,,,,,,,,,
297139,2022-11-27_14h13.12.533,vts_reward_expectancy_bt,2022.2.4,MacIntel,60.0024001,Chrome,1440,900,,,,,0,765,,,,,,,,,,,,,,,,,181,S,circle,1,0,,,3,,,,,,,,,,,,,repeat,letter,lettRpt,k,vtsPrac,12,0,12,0,1,0.8555,,,,,,,,,,,,,,,,,,,,,,,
297139,2022-11-27_14h13.12.533,vts_reward_expectancy_bt,2022.2.4,MacIntel,60.0024001,Chrome,1440,900,,,,,0,765,,,,,,,,,,,,,,,,,139,W,triangle,1,0,,,3,,,,,,,,,,,,,switch,number,numSwt,d,vtsPrac,13,0,13,0,1,1.3909,,,,,,,,,,,,,,,,,,,,,,,
297139,2022-11-27_14h13.12.533,vts_reward_expectancy_bt,2022.2.4,MacIntel,60.0024001,Chrome,1440,900,,,,,0,765,,,,,,,,,,,,,,,,,125,B,hexagon,1,0,,,3,,,,,,,,,,,,,repeat,number,numRpt,d,vtsPrac,14,0,14,0,1,0.6773,,,,,,,,,,,,,,,,,,,,,,,
297139,2022-11-27_14h13.12.533,vts_reward_expectancy_bt,2022.2.4,MacIntel,60.0024001,Chrome,1440,900,,,,,0,765,,,,,,,,,,,,,,,,,174,D,triangle,1,0,,,3,,,,,,,,,,,,,repeat,number,numRpt,f,vtsPrac,15,0,15,0,1,0.6922,,,,,,,,,,,,,,,,,,,,,,,
297139,2022-11-27_14h13.12.533,vts_reward_expectancy_bt,2022.2.4,MacIntel,60.0024001,Chrome,1440,900,,,,,0,765,,,,,,,,,,,,,,,,,125,D,hexagon,1,0,,,3,,,,,,,,,,,,,switch,letter,lettSwt,j,vtsPrac,16,0,16,0,1,0.5131,,,,,,,,,,,,,,,,,,,,,,,
297139,2022-11-27_14h13.12.533,vts_reward_expectancy_bt,2022.2.4,MacIntel,60.0024001,Chrome,1440,900,,,,,0,765,,,,,,,,,,,,,,,,,139,H,triangle,1,0,,,3,,,,,,,,,,,,,repeat,letter,lettRpt,j,vtsPrac,17,0,17,0,1,1.0908,,,,,,,,,,,,,,,,,,,,,,,
297139,2022-11-27_14h13.12.533,vts_reward_expectancy_bt,2022.2.4,MacIntel,60.0024001,Chrome,1440,900,,,,,0,765,,,,,,,,,,,,,,,,,146,U,triangle,1,0,,,3,,,,,,,,,,,,,repeat,letter,lettRpt,k,vtsPrac,18,0,18,0,1,0.9309,,,,,,,,,,,,,,,,,,,,,,,
297139,2022-11-27_14h13.12.533,vts_reward_expectancy_bt,2022.2.4,MacIntel,60.0024001,Chrome,1440,900,,,,,0,765,,,,,,,,,,,,,,,,,132,S,star,1,0,,,3,,,,,,,,,,,,,switch,number,numSwt,d,vtsPrac,19,0,19,0,1,0.8153,,,,,,,,,,,,,,,,,,,,,,,
297139,2022-11-27_14h13.12.533,vts_reward_expectancy_bt,2022.2.4,MacIntel,60.0024001,Chrome,1440,900,,,,,0,765,,,,,,,,,,,,,,,,,160,F,star,1,0,,,3,,,,,,,,,,,,,repeat,number,numRpt,f,vtsPrac,20,0,20,0,1,2.2551,,,,,,,,,,,,,,,,,,,,,,,
297139,2022-11-27_14h13.12.533,vts_reward_expectancy_bt,2022.2.4,MacIntel,60.0024001,Chrome,1440,900,,,,,0,765,,,,,,,,,,,,,,,,,139,Y,circle,1,0,,,3,,,,,,,,,,,,,repeat,number,numRpt,d,vtsPrac,21,0,21,0,1,0.7588,,,,,,,,,,,,,,,,,,,,,,,
297139,2022-11-27_14h13.12.533,vts_reward_expectancy_bt,2022.2.4,MacIntel,60.0024001,Chrome,1440,900,,,,,0,765,,,,,,,,,,,,,,,,,132,H,star,1,0,,,3,,,,,,,,,,,,,switch,letter,lettSwt,j,vtsPrac,22,0,22,0,1,0.6745,,,,,,,,,,,,,,,,,,,,,,,
297139,2022-11-27_14h13.12.533,vts_reward_expectancy_bt,2022.2.4,MacIntel,60.0024001,Chrome,1440,900,,,,,0,765,,,,,,,,,,,,,,,,,146,D,circle,1,0,,,3,,,,,,,,,,,,,repeat,letter,lettRpt,j,vtsPrac,23,0,23,0,1,2.4723,,,,,,,,,,,,,,,,,,,,,,,
297139,2022-11-27_14h13.12.533,vts_reward_expectancy_bt,2022.2.4,MacIntel,60.0024001,Chrome,1440,900,,,,,0,765,,,,,,,,,,,,,,,,,132,F,triangle,1,0,,,3,,,,,,,,,,,,,repeat,letter,lettRpt,j,vtsPrac,24,0,24,0,1,0.7451,,,,,,,,,,,,,,,,,,,,,,,
297139,2022-11-27_14h13.12.533,vts_reward_expectancy_bt,2022.2.4,MacIntel,60.0024001,Chrome,1440,900,,,,,0,765,,,,,,,,,,,,,,,,,139,Y,circle,1,0,,,3,,,,,,,,,,,,,switch,number,numSwt,d,vtsPrac,25,0,25,0,1,0.6736,,,,,,,,,,,,,,,,,,,,,,,
297139,2022-11-27_14h13.12.533,vts_reward_expectancy_bt,2022.2.4,MacIntel,60.0024001,Chrome,1440,900,,,,,0,765,,,,,,,,,,,,,,,,,174,B,star,1,0,,,3,,,,,,,,,,,,,repeat,number,numRpt,f,vtsPrac,26,0,26,0,1,0.6393,,,,,,,,,,,,,,,,,,,,,,,
297139,2022-11-27_14h13.12.533,vts_reward_expectancy_bt,2022.2.4,MacIntel,60.0024001,Chrome,1440,900,,,,,0,765,,,,,,,,,,,,,,,,,125,U,triangle,1,0,,,3,,,,,,,,,,,,,repeat,number,numRpt,d,vtsPrac,27,0,27,0,1,0.6737,,,,,,,,,,,,,,,,,,,,,,,
297139,2022-11-27_14h13.12.533,vts_reward_expectancy_bt,2022.2.4,MacIntel,60.0024001,Chrome,1440,900,,,,,0,765,,,,,,,,,,,,,,,,,132,F,star,0,0,,,3,,,,,,,,,,,,,switch,letter,NA,k,vtsPrac,28,0,28,0,1,1.5135,,,,,,,,,,,,,,,,,,,,,,,
297139,2022-11-27_14h13.12.533,vts_reward_expectancy_bt,2022.2.4,MacIntel,60.0024001,Chrome,1440,900,,,,,0,765,,,,,,,,,,,,,,,,,160,D,hexagon,0,1,,,3,,,,,,,,,,,,,repeat,letter,NA,k,vtsPrac,29,0,29,0,1,2.19,,,,,,,,,,,,,,,,,,,,,,,
297139,2022-11-27_14h13.12.533,vts_reward_expectancy_bt,2022.2.4,MacIntel,60.0024001,Chrome,1440,900,,,,,0,765,,,,,,,,,,,,,,,,,167,U,triangle,1,1,,,3,,,,,,,,,,,,,repeat,letter,lettRpt,k,vtsPrac,30,0,30,0,1,0.7573,,,,,,,,,,,,,,,,,,,,,,,
297139,2022-11-27_14h13.12.533,vts_reward_expectancy_bt,2022.2.4,MacIntel,60.0024001,Chrome,1440,900,,,,,0,765,,,,,,,,,,,,,,,,,181,S,circle,1,0,,,3,,,,,,,,,,,,,switch,number,numSwt,f,vtsPrac,31,0,31,0,1,2.7805,,,,,,,,,,,,,,,,,,,,,,,
297139,2022-11-27_14h13.12.533,vts_reward_expectancy_bt,2022.2.4,MacIntel,60.0024001,Chrome,1440,900,,,,,,,,,,,,,,,,,,,,,,,,,,,,,,,,,,,,,,,,,,,,,,,,,,,,,,,,,,,,,,,,,,,,,,,,,,,,
297139,2022-11-27_14h13.12.533,vts_reward_expectancy_bt,2022.2.4,MacIntel,60.0024001,Chrome,1440,900,,,,,,,,,,,,,,,,,,,,,,,,,,,,,,,,,,,,,,,,,,,,,,,,,,,,,,,,,,,,,,,,,,,,,,,,,,,,
297139,2022-11-27_14h13.12.533,vts_reward_expectancy_bt,2022.2.4,MacIntel,60.0024001,Chrome,1440,900,,,,,0,765,,,,,,,,,,,,,,,,,167,S,hexagon,1,0,,,,,,,,,,,,,,,,repeat,number,numRpt,f,noRew,,,,,,2.1583,0,0,0,0,0,1,,,,,,,,,,,,,,,,,
297139,2022-11-27_14h13.12.533,vts_reward_expectancy_bt,2022.2.4,MacIntel,60.0024001,Chrome,1440,900,,,,,0,765,,,,,,,,,,,,,,,,,146,B,circle,1,0,,,,,,,,,,,,,,,,repeat,number,numRpt,d,noRew,,,,,,0.841,0,1,0,1,0,1,,,,,,,,,,,,,,,,,
297139,2022-11-27_14h13.12.533,vts_reward_expectancy_bt,2022.2.4,MacIntel,60.0024001,Chrome,1440,900,,,,,0,765,,,,,,,,,,,,,,,,,132,H,hexagon,1,0,,,,,,,,,,,,,,,,repeat,number,numRpt,d,noRew,,,,,,0.7932,0,2,0,2,0,1,,,,,,,,,,,,,,,,,
297139,2022-11-27_14h13.12.533,vts_reward_expectancy_bt,2022.2.4,MacIntel,60.0024001,Chrome,1440,900,,,,,0,765,,,,,,,,,,,,,,,,,160,U,circle,1,0,,,,,,,,,,,,,,,,switch,letter,lettSwt,k,noRew,,,,,,0.697,0,3,0,3,0,1,,,,,,,,,,,,,,,,,
297139,2022-11-27_14h13.12.533,vts_reward_expectancy_bt,2022.2.4,MacIntel,60.0024001,Chrome,1440,900,,,,,0,765,,,,,,,,,,,,,,,,,167,S,circle,1,0,,,,,,,,,,,,,,,,repeat,letter,lettRpt,k,noRew,,,,,,0.6738,0,4,0,4,0,1,,,,,,,,,,,,,,,,,
297139,2022-11-27_14h13.12.533,vts_reward_expectancy_bt,2022.2.4,MacIntel,60.0024001,Chrome,1440,900,,,,,0,765,,,,,,,,,,,,,,,,,146,B,triangle,1,0,,,,,,,,,,,,,,,,repeat,letter,lettRpt,j,noRew,,,,,,0.6441,0,5,0,5,0,1,,,,,,,,,,,,,,,,,
297139,2022-11-27_14h13.12.533,vts_reward_expectancy_bt,2022.2.4,MacIntel,60.0024001,Chrome,1440,900,,,,,0,765,,,,,,,,,,,,,,,,,132,H,star,1,0,,,,,,,,,,,,,,,,switch,number,numSwt,d,noRew,,,,,,1.2447,0,6,0,6,0,1,,,,,,,,,,,,,,,,,
297139,2022-11-27_14h13.12.533,vts_reward_expectancy_bt,2022.2.4,MacIntel,60.0024001,Chrome,1440,900,,,,,0,765,,,,,,,,,,,,,,,,,160,U,triangle,1,0,,,,,,,,,,,,,,,,repeat,number,numRpt,f,noRew,,,,,,0.7992,0,7,0,7,0,1,,,,,,,,,,,,,,,,,
297139,2022-11-27_14h13.12.533,vts_reward_expectancy_bt,2022.2.4,MacIntel,60.0024001,Chrome,1440,900,,,,,0,765,,,,,,,,,,,,,,,,,139,Y,circle,1,0,,,,,,,,,,,,,,,,repeat,number,numRpt,d,noRew,,,,,,0.8982,0,8,0,8,0,1,,,,,,,,,,,,,,,,,
297139,2022-11-27_14h13.12.533,vts_reward_expectancy_bt,2022.2.4,MacIntel,60.0024001,Chrome,1440,900,,,,,0,765,,,,,,,,,,,,,,,,,132,B,hexagon,1,0,,,,,,,,,,,,,,,,switch,letter,lettSwt,j,noRew,,,,,,1.2123,0,9,0,9,0,1,,,,,,,,,,,,,,,,,
297139,2022-11-27_14h13.12.533,vts_reward_expectancy_bt,2022.2.4,MacIntel,60.0024001,Chrome,1440,900,,,,,0,765,,,,,,,,,,,,,,,,,125,F,triangle,1,0,,,,,,,,,,,,,,,,repeat,letter,lettRpt,j,noRew,,,,,,1.2407,0,10,0,10,0,1,,,,,,,,,,,,,,,,,
297139,2022-11-27_14h13.12.533,vts_reward_expectancy_bt,2022.2.4,MacIntel,60.0024001,Chrome,1440,900,,,,,0,765,,,,,,,,,,,,,,,,,181,W,circle,1,0,,,,,,,,,,,,,,,,repeat,letter,lettRpt,k,noRew,,,,,,0.7394,0,11,0,11,0,1,,,,,,,,,,,,,,,,,
297139,2022-11-27_14h13.12.533,vts_reward_expectancy_bt,2022.2.4,MacIntel,60.0024001,Chrome,1440,900,,,,,0,765,,,,,,,,,,,,,,,,,160,B,circle,1,0,,,,,,,,,,,,,,,,switch,number,numSwt,f,noRew,,,,,,1.5753,0,12,0,12,0,1,,,,,,,,,,,,,,,,,
297139,2022-11-27_14h13.12.533,vts_reward_expectancy_bt,2022.2.4,MacIntel,60.0024001,Chrome,1440,900,,,,,0,765,,,,,,,,,,,,,,,,,181,Y,hexagon,1,0,,,,,,,,,,,,,,,,repeat,number,numRpt,f,noRew,,,,,,0.7754,0,13,0,13,0,1,,,,,,,,,,,,,,,,,
297139,2022-11-27_14h13.12.533,vts_reward_expectancy_bt,2022.2.4,MacIntel,60.0024001,Chrome,1440,900,,,,,0,765,,,,,,,,,,,,,,,,,139,U,circle,1,0,,,,,,,,,,,,,,,,repeat,number,numRpt,d,noRew,,,,,,0.8575,0,14,0,14,0,1,,,,,,,,,,,,,,,,,
297139,2022-11-27_14h13.12.533,vts_reward_expectancy_bt,2022.2.4,MacIntel,60.0024001,Chrome,1440,900,,,,,0,765,,,,,,,,,,,,,,,,,125,W,triangle,1,0,,,,,,,,,,,,,,,,switch,letter,lettSwt,k,noRew,,,,,,1.3932,0,15,0,15,0,1,,,,,,,,,,,,,,,,,
297139,2022-11-27_14h13.12.533,vts_reward_expectancy_bt,2022.2.4,MacIntel,60.0024001,Chrome,1440,900,,,,,0,765,,,,,,,,,,,,,,,,,167,B,star,1,0,,,,,,,,,,,,,,,,repeat,letter,lettRpt,j,noRew,,,,,,0.6735,0,16,0,16,0,1,,,,,,,,,,,,,,,,,
297139,2022-11-27_14h13.12.533,vts_reward_expectancy_bt,2022.2.4,MacIntel,60.0024001,Chrome,1440,900,,,,,0,765,,,,,,,,,,,,,,,,,160,S,circle,1,0,,,,,,,,,,,,,,,,repeat,letter,lettRpt,k,noRew,,,,,,0.8232,0,17,0,17,0,1,,,,,,,,,,,,,,,,,
297139,2022-11-27_14h13.12.533,vts_reward_expectancy_bt,2022.2.4,MacIntel,60.0024001,Chrome,1440,900,,,,,0,765,,,,,,,,,,,,,,,,,125,D,star,1,0,,,,,,,,,,,,,,,,switch,number,numSwt,d,noRew,,,,,,1.7318,0,18,0,18,0,1,,,,,,,,,,,,,,,,,
297139,2022-11-27_14h13.12.533,vts_reward_expectancy_bt,2022.2.4,MacIntel,60.0024001,Chrome,1440,900,,,,,0,765,,,,,,,,,,,,,,,,,174,U,triangle,1,0,,,,,,,,,,,,,,,,repeat,number,numRpt,f,noRew,,,,,,1.1403,0,19,0,19,0,1,,,,,,,,,,,,,,,,,
297139,2022-11-27_14h13.12.533,vts_reward_expectancy_bt,2022.2.4,MacIntel,60.0024001,Chrome,1440,900,,,,,0,765,,,,,,,,,,,,,,,,,125,S,hexagon,1,0,,,,,,,,,,,,,,,,repeat,number,numRpt,d,noRew,,,,,,1.2249,0,20,0,20,0,1,,,,,,,,,,,,,,,,,
297139,2022-11-27_14h13.12.533,vts_reward_expectancy_bt,2022.2.4,MacIntel,60.0024001,Chrome,1440,900,,,,,0,765,,,,,,,,,,,,,,,,,160,D,circle,1,0,,,,,,,,,,,,,,,,switch,letter,lettSwt,j,noRew,,,,,,1.3551,0,21,0,21,0,1,,,,,,,,,,,,,,,,,
297139,2022-11-27_14h13.12.533,vts_reward_expectancy_bt,2022.2.4,MacIntel,60.0024001,Chrome,1440,900,,,,,0,765,,,,,,,,,,,,,,,,,132,H,triangle,1,0,,,,,,,,,,,,,,,,repeat,letter,lettRpt,j,noRew,,,,,,1.6805,0,22,0,22,0,1,,,,,,,,,,,,,,,,,
297139,2022-11-27_14h13.12.533,vts_reward_expectancy_bt,2022.2.4,MacIntel,60.0024001,Chrome,1440,900,,,,,0,765,,,,,,,,,,,,,,,,,181,U,hexagon,1,0,,,,,,,,,,,,,,,,repeat,letter,lettRpt,k,noRew,,,,,,0.5925,0,23,0,23,0,1,,,,,,,,,,,,,,,,,
297139,2022-11-27_14h13.12.533,vts_reward_expectancy_bt,2022.2.4,MacIntel,60.0024001,Chrome,1440,900,,,,,0,765,,,,,,,,,,,,,,,,,139,S,star,1,0,,,,,,,,,,,,,,,,switch,number,numSwt,d,noRew,,,,,,1.1118,0,24,0,24,0,1,,,,,,,,,,,,,,,,,
297139,2022-11-27_14h13.12.533,vts_reward_expectancy_bt,2022.2.4,MacIntel,60.0024001,Chrome,1440,900,,,,,0,765,,,,,,,,,,,,,,,,,181,W,hexagon,1,0,,,,,,,,,,,,,,,,repeat,number,numRpt,f,noRew,,,,,,0.6913,0,25,0,25,0,1,,,,,,,,,,,,,,,,,
297139,2022-11-27_14h13.12.533,vts_reward_expectancy_bt,2022.2.4,MacIntel,60.0024001,Chrome,1440,900,,,,,0,765,,,,,,,,,,,,,,,,,160,Y,star,1,0,,,,,,,,,,,,,,,,repeat,number,numRpt,f,noRew,,,,,,0.741,0,26,0,26,0,1,,,,,,,,,,,,,,,,,
297139,2022-11-27_14h13.12.533,vts_reward_expectancy_bt,2022.2.4,MacIntel,60.0024001,Chrome,1440,900,,,,,0,765,,,,,,,,,,,,,,,,,146,D,hexagon,1,0,,,,,,,,,,,,,,,,switch,letter,lettSwt,j,noRew,,,,,,1.5163,0,27,0,27,0,1,,,,,,,,,,,,,,,,,
297139,2022-11-27_14h13.12.533,vts_reward_expectancy_bt,2022.2.4,MacIntel,60.0024001,Chrome,1440,900,,,,,0,765,,,,,,,,,,,,,,,,,174,Y,star,1,0,,,,,,,,,,,,,,,,repeat,letter,lettRpt,k,noRew,,,,,,0.8439,0,28,0,28,0,1,,,,,,,,,,,,,,,,,
297139,2022-11-27_14h13.12.533,vts_reward_expectancy_bt,2022.2.4,MacIntel,60.0024001,Chrome,1440,900,,,,,0,765,,,,,,,,,,,,,,,,,146,B,triangle,1,0,,,,,,,,,,,,,,,,repeat,letter,lettRpt,j,noRew,,,,,,0.5959,0,29,0,29,0,1,,,,,,,,,,,,,,,,,
297139,2022-11-27_14h13.12.533,vts_reward_expectancy_bt,2022.2.4,MacIntel,60.0024001,Chrome,1440,900,,,,,0,765,,,,,,,,,,,,,,,,,160,H,circle,1,0,,,,,,,,,,,,,,,,switch,number,numSwt,f,noRew,,,,,,1.058,0,30,0,30,0,1,,,,,,,,,,,,,,,,,
297139,2022-11-27_14h13.12.533,vts_reward_expectancy_bt,2022.2.4,MacIntel,60.0024001,Chrome,1440,900,,,,,0,765,,,,,,,,,,,,,,,,,167,F,hexagon,1,0,,,,,,,,,,,,,,,,repeat,number,numRpt,f,noRew,,,,,,1.0248,0,31,0,31,0,1,,,,,,,,,,,,,,,,,
297139,2022-11-27_14h13.12.533,vts_reward_expectancy_bt,2022.2.4,MacIntel,60.0024001,Chrome,1440,900,,,,,0,765,,,,,,,,,,,,,,,,,146,S,hexagon,1,0,,,,,,,,,,,,,,,,repeat,number,numRpt,d,noRew,,,,,,1.5478,0,32,0,32,0,1,,,,,,,,,,,,,,,,,
297139,2022-11-27_14h13.12.533,vts_reward_expectancy_bt,2022.2.4,MacIntel,60.0024001,Chrome,1440,900,,,,,0,765,,,,,,,,,,,,,,,,,181,F,star,1,0,,,,,,,,,,,,,,,,switch,letter,lettSwt,j,noRew,,,,,,0.8627,0,33,0,33,0,1,,,,,,,,,,,,,,,,,
297139,2022-11-27_14h13.12.533,vts_reward_expectancy_bt,2022.2.4,MacIntel,60.0024001,Chrome,1440,900,,,,,0,765,,,,,,,,,,,,,,,,,160,B,triangle,1,0,,,,,,,,,,,,,,,,repeat,letter,lettRpt,j,noRew,,,,,,0.7896,0,34,0,34,0,1,,,,,,,,,,,,,,,,,
297139,2022-11-27_14h13.12.533,vts_reward_expectancy_bt,2022.2.4,MacIntel,60.0024001,Chrome,1440,900,,,,,0,765,,,,,,,,,,,,,,,,,174,Y,hexagon,1,0,,,,,,,,,,,,,,,,repeat,letter,lettRpt,k,noRew,,,,,,1.4407,0,35,0,35,0,1,,,,,,,,,,,,,,,,,
297139,2022-11-27_14h13.12.533,vts_reward_expectancy_bt,2022.2.4,MacIntel,60.0024001,Chrome,1440,900,,,,,0,765,,,,,,,,,,,,,,,,,174,W,triangle,1,0,,,,,,,,,,,,,,,,switch,number,numSwt,f,noRew,,,,,,0.9085,0,36,0,36,0,1,,,,,,,,,,,,,,,,,
297139,2022-11-27_14h13.12.533,vts_reward_expectancy_bt,2022.2.4,MacIntel,60.0024001,Chrome,1440,900,,,,,0,765,,,,,,,,,,,,,,,,,181,Y,hexagon,1,0,,,,,,,,,,,,,,,,repeat,number,numRpt,f,noRew,,,,,,1.2084,0,37,0,37,0,1,,,,,,,,,,,,,,,,,
297139,2022-11-27_14h13.12.533,vts_reward_expectancy_bt,2022.2.4,MacIntel,60.0024001,Chrome,1440,900,,,,,0,765,,,,,,,,,,,,,,,,,160,F,hexagon,1,0,,,,,,,,,,,,,,,,repeat,number,numRpt,f,noRew,,,,,,2.324,0,38,0,38,0,1,,,,,,,,,,,,,,,,,
297139,2022-11-27_14h13.12.533,vts_reward_expectancy_bt,2022.2.4,MacIntel,60.0024001,Chrome,1440,900,,,,,0,765,,,,,,,,,,,,,,,,,146,D,star,1,0,,,,,,,,,,,,,,,,switch,letter,lettSwt,j,noRew,,,,,,0.6239,0,39,0,39,0,1,,,,,,,,,,,,,,,,,
297139,2022-11-27_14h13.12.533,vts_reward_expectancy_bt,2022.2.4,MacIntel,60.0024001,Chrome,1440,900,,,,,0,765,,,,,,,,,,,,,,,,,174,S,triangle,1,0,,,,,,,,,,,,,,,,repeat,letter,lettRpt,k,noRew,,,,,,0.6603,0,40,0,40,0,1,,,,,,,,,,,,,,,,,
297139,2022-11-27_14h13.12.533,vts_reward_expectancy_bt,2022.2.4,MacIntel,60.0024001,Chrome,1440,900,,,,,0,765,,,,,,,,,,,,,,,,,181,Y,star,1,0,,,,,,,,,,,,,,,,repeat,letter,lettRpt,k,noRew,,,,,,0.7727,0,41,0,41,0,1,,,,,,,,,,,,,,,,,
297139,2022-11-27_14h13.12.533,vts_reward_expectancy_bt,2022.2.4,MacIntel,60.0024001,Chrome,1440,900,,,,,0,765,,,,,,,,,,,,,,,,,167,U,star,1,0,,,,,,,,,,,,,,,,switch,number,numSwt,f,noRew,,,,,,1.3247,0,42,0,42,0,1,,,,,,,,,,,,,,,,,
297139,2022-11-27_14h13.12.533,vts_reward_expectancy_bt,2022.2.4,MacIntel,60.0024001,Chrome,1440,900,,,,,0,765,,,,,,,,,,,,,,,,,146,D,hexagon,1,0,,,,,,,,,,,,,,,,repeat,number,numRpt,d,noRew,,,,,,1.0919,0,43,0,43,0,1,,,,,,,,,,,,,,,,,
297139,2022-11-27_14h13.12.533,vts_reward_expectancy_bt,2022.2.4,MacIntel,60.0024001,Chrome,1440,900,,,,,0,765,,,,,,,,,,,,,,,,,125,F,star,1,0,,,,,,,,,,,,,,,,repeat,number,numRpt,d,noRew,,,,,,0.7285,0,44,0,44,0,1,,,,,,,,,,,,,,,,,
297139,2022-11-27_14h13.12.533,vts_reward_expectancy_bt,2022.2.4,MacIntel,60.0024001,Chrome,1440,900,,,,,0,765,,,,,,,,,,,,,,,,,181,B,triangle,1,0,,,,,,,,,,,,,,,,switch,letter,lettSwt,j,noRew,,,,,,1.3236,0,45,0,45,0,1,,,,,,,,,,,,,,,,,
297139,2022-11-27_14h13.12.533,vts_reward_expectancy_bt,2022.2.4,MacIntel,60.0024001,Chrome,1440,900,,,,,0,765,,,,,,,,,,,,,,,,,146,U,circle,1,0,,,,,,,,,,,,,,,,repeat,letter,lettRpt,k,noRew,,,,,,1.112,0,46,0,46,0,1,,,,,,,,,,,,,,,,,
297139,2022-11-27_14h13.12.533,vts_reward_expectancy_bt,2022.2.4,MacIntel,60.0024001,Chrome,1440,900,,,,,0,765,,,,,,,,,,,,,,,,,167,W,hexagon,1,0,,,,,,,,,,,,,,,,repeat,letter,lettRpt,k,noRew,,,,,,0.7254,0,47,0,47,0,1,,,,,,,,,,,,,,,,,
297139,2022-11-27_14h13.12.533,vts_reward_expectancy_bt,2022.2.4,MacIntel,60.0024001,Chrome,1440,900,,,,,0,765,,,,,,,,,,,,,,,,,181,W,star,1,0,,,,,,,,,,,,,,,,switch,number,numSwt,f,noRew,,,,,,2.2153,0,48,0,48,0,1,,,,,,,,,,,,,,,,,
297139,2022-11-27_14h13.12.533,vts_reward_expectancy_bt,2022.2.4,MacIntel,60.0024001,Chrome,1440,900,,,,,0,765,,,,,,,,,,,,,,,,,139,Y,circle,1,0,,,,,,,,,,,,,,,,repeat,number,numRpt,d,noRew,,,,,,2.542,0,49,0,49,0,1,,,,,,,,,,,,,,,,,
297139,2022-11-27_14h13.12.533,vts_reward_expectancy_bt,2022.2.4,MacIntel,60.0024001,Chrome,1440,900,,,,,0,765,,,,,,,,,,,,,,,,,167,B,triangle,1,0,,,,,,,,,,,,,,,,repeat,number,numRpt,f,noRew,,,,,,1.1252,0,50,0,50,0,1,,,,,,,,,,,,,,,,,
297139,2022-11-27_14h13.12.533,vts_reward_expectancy_bt,2022.2.4,MacIntel,60.0024001,Chrome,1440,900,,,,,0,765,,,,,,,,,,,,,,,,,160,U,circle,1,0,,,,,,,,,,,,,,,,switch,letter,lettSwt,k,noRew,,,,,,1.1917,0,51,0,51,0,1,,,,,,,,,,,,,,,,,
297139,2022-11-27_14h13.12.533,vts_reward_expectancy_bt,2022.2.4,MacIntel,60.0024001,Chrome,1440,900,,,,,0,765,,,,,,,,,,,,,,,,,146,D,hexagon,1,0,,,,,,,,,,,,,,,,repeat,letter,lettRpt,j,noRew,,,,,,1.0312,0,52,0,52,0,1,,,,,,,,,,,,,,,,,
297139,2022-11-27_14h13.12.533,vts_reward_expectancy_bt,2022.2.4,MacIntel,60.0024001,Chrome,1440,900,,,,,0,765,,,,,,,,,,,,,,,,,139,U,star,1,0,,,,,,,,,,,,,,,,repeat,letter,lettRpt,k,noRew,,,,,,1.2736,0,53,0,53,0,1,,,,,,,,,,,,,,,,,
297139,2022-11-27_14h13.12.533,vts_reward_expectancy_bt,2022.2.4,MacIntel,60.0024001,Chrome,1440,900,,,,,0,765,,,,,,,,,,,,,,,,,125,F,triangle,1,0,,,,,,,,,,,,,,,,switch,number,numSwt,d,noRew,,,,,,2.124,0,54,0,54,0,1,,,,,,,,,,,,,,,,,
297139,2022-11-27_14h13.12.533,vts_reward_expectancy_bt,2022.2.4,MacIntel,60.0024001,Chrome,1440,900,,,,,0,765,,,,,,,,,,,,,,,,,160,B,hexagon,1,0,,,,,,,,,,,,,,,,repeat,number,numRpt,f,noRew,,,,,,2.1934,0,55,0,55,0,1,,,,,,,,,,,,,,,,,
297139,2022-11-27_14h13.12.533,vts_reward_expectancy_bt,2022.2.4,MacIntel,60.0024001,Chrome,1440,900,,,,,0,765,,,,,,,,,,,,,,,,,167,B,star,1,0,,,,,,,,,,,,,,,,repeat,number,numRpt,f,noRew,,,,,,1.6474,0,56,0,56,0,1,,,,,,,,,,,,,,,,,
297139,2022-11-27_14h13.12.533,vts_reward_expectancy_bt,2022.2.4,MacIntel,60.0024001,Chrome,1440,900,,,,,0,765,,,,,,,,,,,,,,,,,181,U,hexagon,1,0,,,,,,,,,,,,,,,,switch,letter,lettSwt,k,noRew,,,,,,1.3741,0,57,0,57,0,1,,,,,,,,,,,,,,,,,
297139,2022-11-27_14h13.12.533,vts_reward_expectancy_bt,2022.2.4,MacIntel,60.0024001,Chrome,1440,900,,,,,0,765,,,,,,,,,,,,,,,,,174,W,circle,1,0,,,,,,,,,,,,,,,,repeat,letter,lettRpt,k,noRew,,,,,,0.6958,0,58,0,58,0,1,,,,,,,,,,,,,,,,,
297139,2022-11-27_14h13.12.533,vts_reward_expectancy_bt,2022.2.4,MacIntel,60.0024001,Chrome,1440,900,,,,,0,765,,,,,,,,,,,,,,,,,139,D,star,1,0,,,,,,,,,,,,,,,,repeat,letter,lettRpt,j,noRew,,,,,,1.5957,0,59,0,59,0,1,,,,,,,,,,,,,,,,,
297139,2022-11-27_14h13.12.533,vts_reward_expectancy_bt,2022.2.4,MacIntel,60.0024001,Chrome,1440,900,,,,,0,765,,,,,,,,,,,,,,,,,125,Y,hexagon,1,0,,,,,,,,,,,,,,,,switch,number,numSwt,d,noRew,,,,,,0.6314,0,60,0,60,0,1,,,,,,,,,,,,,,,,,
297139,2022-11-27_14h13.12.533,vts_reward_expectancy_bt,2022.2.4,MacIntel,60.0024001,Chrome,1440,900,,,,,0,765,,,,,,,,,,,,,,,,,160,F,circle,1,0,,,,,,,,,,,,,,,,repeat,number,numRpt,f,noRew,,,,,,1.0841,0,61,0,61,0,1,,,,,,,,,,,,,,,,,
297139,2022-11-27_14h13.12.533,vts_reward_expectancy_bt,2022.2.4,MacIntel,60.0024001,Chrome,1440,900,,,,,0,765,,,,,,,,,,,,,,,,,167,S,triangle,1,0,,,,,,,,,,,,,,,,repeat,number,numRpt,f,noRew,,,,,,0.8905,0,62,0,62,0,1,,,,,,,,,,,,,,,,,
297139,2022-11-27_14h13.12.533,vts_reward_expectancy_bt,2022.2.4,MacIntel,60.0024001,Chrome,1440,900,,,,,0,765,,,,,,,,,,,,,,,,,132,D,circle,1,0,,,,,,,,,,,,,,,,switch,letter,lettSwt,j,noRew,,,,,,0.9915,0,63,0,63,0,1,,,,,,,,,,,,,,,,,
297139,2022-11-27_14h13.12.533,vts_reward_expectancy_bt,2022.2.4,MacIntel,60.0024001,Chrome,1440,900,,,,,,,,,,,,,,,,,,,,,,,,,,,,,,,,,,,,,,,,,,,,,,,,,,,,,,,,,,,,,,,,,,,,,,,,,,,,
297139,2022-11-27_14h13.12.533,vts_reward_expectancy_bt,2022.2.4,MacIntel,60.0024001,Chrome,1440,900,,,,,10,775,,,,,,,,,,,,,,,,,132,U,triangle,1,0,,,,,,,,,,,,,,,,switch,number,numSwt,d,Lo,,,,,,1.7833,0,,,,,,space,7.9877,high,0,0,0,0,1,,,,,,,,,
297139,2022-11-27_14h13.12.533,vts_reward_expectancy_bt,2022.2.4,MacIntel,60.0024001,Chrome,1440,900,,,,,0,775,,,,,,,,,,,,,,,,,167,F,circle,0,0,,,,,,,,,,,,,,,,switch,letter,NA,k,Lo,,,,,,0.9577,0,,,,,,,,high,1,0,1,0,1,,,,,,,,,
297139,2022-11-27_14h13.12.533,vts_reward_expectancy_bt,2022.2.4,MacIntel,60.0024001,Chrome,1440,900,,,,,10,785,,,,,,,,,,,,,,,,,146,H,hexagon,1,1,,,,,,,,,,,,,,,,switch,number,numSwt,d,Hi,,,,,,1.0076,0,,,,,,,,high,2,0,2,0,1,,,,,,,,,
297139,2022-11-27_14h13.12.533,vts_reward_expectancy_bt,2022.2.4,MacIntel,60.0024001,Chrome,1440,900,,,,,1,786,,,,,,,,,,,,,,,,,139,Y,star,1,0,,,,,,,,,,,,,,,,switch,letter,lettSwt,k,Lo,,,,,,1.1417,0,,,,,,,,high,3,0,3,0,1,,,,,,,,,
297139,2022-11-27_14h13.12.533,vts_reward_expectancy_bt,2022.2.4,MacIntel,60.0024001,Chrome,1440,900,,,,,0,786,,,,,,,,,,,,,,,,,181,W,triangle,0,0,,,,,,,,,,,,,,,,switch,number,NA,d,Lo,,,,,,0.6747,0,,,,,,,,high,4,0,4,0,1,,,,,,,,,
297139,2022-11-27_14h13.12.533,vts_reward_expectancy_bt,2022.2.4,MacIntel,60.0024001,Chrome,1440,900,,,,,0,786,,,,,,,,,,,,,,,,,125,B,circle,1,1,,,,,,,,,,,,,,,,repeat,number,numRpt,d,Hi,,,,,,1.298,0,,,,,,,,high,5,0,5,0,1,,,,,,,,,
297139,2022-11-27_14h13.12.533,vts_reward_expectancy_bt,2022.2.4,MacIntel,60.0024001,Chrome,1440,900,,,,,10,796,,,,,,,,,,,,,,,,,174,D,hexagon,1,0,,,,,,,,,,,,,,,,repeat,number,numRpt,f,Hi,,,,,,0.706,0,,,,,,,,high,6,0,6,0,1,,,,,,,,,
297139,2022-11-27_14h13.12.533,vts_reward_expectancy_bt,2022.2.4,MacIntel,60.0024001,Chrome,1440,900,,,,,1,797,,,,,,,,,,,,,,,,,160,S,star,1,0,,,,,,,,,,,,,,,,switch,letter,lettSwt,k,Lo,,,,,,1.0587,0,,,,,,,,high,7,0,7,0,1,,,,,,,,,
297139,2022-11-27_14h13.12.533,vts_reward_expectancy_bt,2022.2.4,MacIntel,60.0024001,Chrome,1440,900,,,,,0,797,,,,,,,,,,,,,,,,,132,U,circle,1,0,,,,,,,,,,,,,,,,repeat,letter,lettRpt,k,Hi,,,,,,0.7917,0,,,,,,,,high,8,0,8,0,1,,,,,,,,,
297139,2022-11-27_14h13.12.533,vts_reward_expectancy_bt,2022.2.4,MacIntel,60.0024001,Chrome,1440,900,,,,,10,807,,,,,,,,,,,,,,,,,167,F,hexagon,1,0,,,,,,,,,,,,,,,,switch,number,numSwt,f,Hi,,,,,,0.4827,0,,,,,,,,high,9,0,9,0,1,,,,,,,,,
297139,2022-11-27_14h13.12.533,vts_reward_expectancy_bt,2022.2.4,MacIntel,60.0024001,Chrome,1440,900,,,,,1,808,,,,,,,,,,,,,,,,,146,H,star,1,0,,,,,,,,,,,,,,,,repeat,number,numRpt,d,Lo,,,,,,0.7566,0,,,,,,,,high,10,0,10,0,1,,,,,,,,,
297139,2022-11-27_14h13.12.533,vts_reward_expectancy_bt,2022.2.4,MacIntel,60.0024001,Chrome,1440,900,,,,,10,818,,,,,,,,,,,,,,,,,139,Y,triangle,1,0,,,,,,,,,,,,,,,,switch,letter,lettSwt,k,Lo,,,,,,0.628,0,,,,,,,,high,11,0,11,0,1,,,,,,,,,
297139,2022-11-27_14h13.12.533,vts_reward_expectancy_bt,2022.2.4,MacIntel,60.0024001,Chrome,1440,900,,,,,1,819,,,,,,,,,,,,,,,,,181,W,triangle,1,0,,,,,,,,,,,,,,,,repeat,letter,lettRpt,k,Lo,,,,,,0.6918,0,,,,,,,,high,12,0,12,0,1,,,,,,,,,
297139,2022-11-27_14h13.12.533,vts_reward_expectancy_bt,2022.2.4,MacIntel,60.0024001,Chrome,1440,900,,,,,10,829,,,,,,,,,,,,,,,,,125,B,hexagon,1,0,,,,,,,,,,,,,,,,switch,number,numSwt,d,Hi,,,,,,0.5916,0,,,,,,,,high,13,0,13,0,1,,,,,,,,,
297139,2022-11-27_14h13.12.533,vts_reward_expectancy_bt,2022.2.4,MacIntel,60.0024001,Chrome,1440,900,,,,,1,830,,,,,,,,,,,,,,,,,174,D,star,1,0,,,,,,,,,,,,,,,,repeat,number,numRpt,f,Lo,,,,,,0.425,0,,,,,,,,high,14,0,14,0,1,,,,,,,,,
297139,2022-11-27_14h13.12.533,vts_reward_expectancy_bt,2022.2.4,MacIntel,60.0024001,Chrome,1440,900,,,,,10,840,,,,,,,,,,,,,,,,,160,S,circle,1,0,,,,,,,,,,,,,,,,switch,letter,lettSwt,k,Hi,,,,,,0.6418,0,,,,,,,,high,15,0,15,0,1,,,,,,,,,
297139,2022-11-27_14h13.12.533,vts_reward_expectancy_bt,2022.2.4,MacIntel,60.0024001,Chrome,1440,900,,,,,0,840,,,,,,,,,,,,,,,,,181,F,star,0,0,,,,,,,,,,,,,,,,repeat,letter,NA,k,Hi,,,,,,0.7578,0,,,,,,,,high,16,0,16,0,1,,,,,,,,,
297139,2022-11-27_14h13.12.533,vts_reward_expectancy_bt,2022.2.4,MacIntel,60.0024001,Chrome,1440,900,,,,,0,840,,,,,,,,,,,,,,,,,174,U,triangle,0,1,,,,,,,,,,,,,,,,switch,number,NA,d,Hi,,,,,,0.7301,0,,,,,,,,high,17,0,17,0,1,,,,,,,,,
297139,2022-11-27_14h13.12.533,vts_reward_expectancy_bt,2022.2.4,MacIntel,60.0024001,Chrome,1440,900,,,,,10,850,,,,,,,,,,,,,,,,,132,S,hexagon,1,1,,,,,,,,,,,,,,,,repeat,number,numRpt,d,Hi,,,,,,0.5746,0,,,,,,,,high,18,0,18,0,1,,,,,,,,,
297139,2022-11-27_14h13.12.533,vts_reward_expectancy_bt,2022.2.4,MacIntel,60.0024001,Chrome,1440,900,,,,,10,860,,,,,,,,,,,,,,,,,167,H,circle,1,0,,,,,,,,,,,,,,,,switch,letter,lettSwt,j,Hi,,,,,,0.8912,0,,,,,,,,high,19,0,19,0,1,,,,,,,,,
297139,2022-11-27_14h13.12.533,vts_reward_expectancy_bt,2022.2.4,MacIntel,60.0024001,Chrome,1440,900,,,,,1,861,,,,,,,,,,,,,,,,,125,B,triangle,1,0,,,,,,,,,,,,,,,,switch,number,numSwt,d,Lo,,,,,,0.6659,0,,,,,,,,high,20,0,20,0,1,,,,,,,,,
297139,2022-11-27_14h13.12.533,vts_reward_expectancy_bt,2022.2.4,MacIntel,60.0024001,Chrome,1440,900,,,,,1,862,,,,,,,,,,,,,,,,,160,Y,circle,1,0,,,,,,,,,,,,,,,,switch,letter,lettSwt,k,Hi,,,,,,0.4917,0,,,,,,,,high,21,0,21,0,1,,,,,,,,,
297139,2022-11-27_14h13.12.533,vts_reward_expectancy_bt,2022.2.4,MacIntel,60.0024001,Chrome,1440,900,,,,,1,863,,,,,,,,,,,,,,,,,146,D,star,1,0,,,,,,,,,,,,,,,,repeat,letter,lettRpt,j,Lo,,,,,,0.7904,0,,,,,,,,high,22,0,22,0,1,,,,,,,,,
297139,2022-11-27_14h13.12.533,vts_reward_expectancy_bt,2022.2.4,MacIntel,60.0024001,Chrome,1440,900,,,,,0,863,,,,,,,,,,,,,,,,,139,W,hexagon,1,0,,,,,,,,,,,,,,,,switch,number,numSwt,d,Hi,,,,,,1.1494,0,,,,,,,,high,23,0,23,0,1,,,,,,,,,
297139,2022-11-27_14h13.12.533,vts_reward_expectancy_bt,2022.2.4,MacIntel,60.0024001,Chrome,1440,900,,,,,10,873,,,,,,,,,,,,,,,,,132,W,hexagon,1,0,,,,,,,,,,,,,,,,repeat,number,numRpt,d,Hi,,,,,,0.7096,0,,,,,,,,high,24,0,24,0,1,,,,,,,,,
297139,2022-11-27_14h13.12.533,vts_reward_expectancy_bt,2022.2.4,MacIntel,60.0024001,Chrome,1440,900,,,,,1,874,,,,,,,,,,,,,,,,,174,H,star,1,0,,,,,,,,,,,,,,,,repeat,number,numRpt,f,Lo,,,,,,0.8749,0,,,,,,,,high,25,0,25,0,1,,,,,,,,,
297139,2022-11-27_14h13.12.533,vts_reward_expectancy_bt,2022.2.4,MacIntel,60.0024001,Chrome,1440,900,,,,,0,874,,,,,,,,,,,,,,,,,146,U,triangle,0,0,,,,,,,,,,,,,,,,switch,letter,NA,j,Lo,,,,,,0.6591,0,,,,,,,,high,26,0,26,0,1,,,,,,,,,
297139,2022-11-27_14h13.12.533,vts_reward_expectancy_bt,2022.2.4,MacIntel,60.0024001,Chrome,1440,900,,,,,10,884,,,,,,,,,,,,,,,,,167,Y,circle,1,1,,,,,,,,,,,,,,,,repeat,letter,lettRpt,k,Hi,,,,,,0.5828,0,,,,,,,,high,27,0,27,0,1,,,,,,,,,
297139,2022-11-27_14h13.12.533,vts_reward_expectancy_bt,2022.2.4,MacIntel,60.0024001,Chrome,1440,900,,,,,10,894,,,,,,,,,,,,,,,,,139,B,circle,1,0,,,,,,,,,,,,,,,,switch,number,numSwt,d,Hi,,,,,,0.791,0,,,,,,,,high,28,0,28,0,1,,,,,,,,,
297139,2022-11-27_14h13.12.533,vts_reward_expectancy_bt,2022.2.4,MacIntel,60.0024001,Chrome,1440,900,,,,,10,904,,,,,,,,,,,,,,,,,160,S,hexagon,1,0,,,,,,,,,,,,,,,,repeat,number,numRpt,f,Hi,,,,,,0.664,0,,,,,,,,high,29,0,29,0,1,,,,,,,,,
297139,2022-11-27_14h13.12.533,vts_reward_expectancy_bt,2022.2.4,MacIntel,60.0024001,Chrome,1440,900,,,,,1,905,,,,,,,,,,,,,,,,,181,D,triangle,1,0,,,,,,,,,,,,,,,,repeat,number,numRpt,f,Lo,,,,,,0.6323,0,,,,,,,,high,30,0,30,0,1,,,,,,,,,
297139,2022-11-27_14h13.12.533,vts_reward_expectancy_bt,2022.2.4,MacIntel,60.0024001,Chrome,1440,900,,,,,0,905,,,,,,,,,,,,,,,,,125,F,star,0,0,,,,,,,,,,,,,,,,switch,letter,NA,k,Lo,,,,,,0.6313,0,,,,,,,,high,31,0,31,0,1,,,,,,,,,
297139,2022-11-27_14h13.12.533,vts_reward_expectancy_bt,2022.2.4,MacIntel,60.0024001,Chrome,1440,900,,,,,0,905,,,,,,,,,,,,,,,,,125,Y,hexagon,1,1,,,,,,,,,,,,,,,,switch,number,numSwt,d,Hi,,,,,,1.1294,1,,,,,,space,5.897,high,0,0,0,0,1,,,,,,,,,
297139,2022-11-27_14h13.12.533,vts_reward_expectancy_bt,2022.2.4,MacIntel,60.0024001,Chrome,1440,900,,,,,0,905,,,,,,,,,,,,,,,,,132,D,triangle,0,0,,,,,,,,,,,,,,,,repeat,number,NA,f,Hi,,,,,,0.5357,1,,,,,,,,high,1,0,1,0,1,,,,,,,,,
297139,2022-11-27_14h13.12.533,vts_reward_expectancy_bt,2022.2.4,MacIntel,60.0024001,Chrome,1440,900,,,,,1,906,,,,,,,,,,,,,,,,,174,U,circle,1,1,,,,,,,,,,,,,,,,repeat,number,numRpt,f,Hi,,,,,,0.5079,1,,,,,,,,high,2,0,2,0,1,,,,,,,,,
297139,2022-11-27_14h13.12.533,vts_reward_expectancy_bt,2022.2.4,MacIntel,60.0024001,Chrome,1440,900,,,,,1,907,,,,,,,,,,,,,,,,,146,W,star,1,0,,,,,,,,,,,,,,,,switch,letter,lettSwt,k,Lo,,,,,,0.6267,1,,,,,,,,high,3,0,3,0,1,,,,,,,,,
297139,2022-11-27_14h13.12.533,vts_reward_expectancy_bt,2022.2.4,MacIntel,60.0024001,Chrome,1440,900,,,,,10,917,,,,,,,,,,,,,,,,,167,F,hexagon,1,0,,,,,,,,,,,,,,,,repeat,letter,lettRpt,j,Hi,,,,,,0.4243,1,,,,,,,,high,4,0,4,0,1,,,,,,,,,
297139,2022-11-27_14h13.12.533,vts_reward_expectancy_bt,2022.2.4,MacIntel,60.0024001,Chrome,1440,900,,,,,1,918,,,,,,,,,,,,,,,,,139,H,triangle,1,0,,,,,,,,,,,,,,,,repeat,letter,lettRpt,j,Lo,,,,,,0.8414,1,,,,,,,,high,5,0,5,0,1,,,,,,,,,
297139,2022-11-27_14h13.12.533,vts_reward_expectancy_bt,2022.2.4,MacIntel,60.0024001,Chrome,1440,900,,,,,0,918,,,,,,,,,,,,,,,,,181,S,circle,0,0,,,,,,,,,,,,,,,,switch,number,NA,d,Lo,,,,,,0.9257,1,,,,,,,,high,6,0,6,0,1,,,,,,,,,
297139,2022-11-27_14h13.12.533,vts_reward_expectancy_bt,2022.2.4,MacIntel,60.0024001,Chrome,1440,900,,,,,0,918,,,,,,,,,,,,,,,,,160,B,star,0,1,,,,,,,,,,,,,,,,repeat,number,NA,d,Lo,,,,,,0.5944,1,,,,,,,,high,7,0,7,0,1,,,,,,,,,
297139,2022-11-27_14h13.12.533,vts_reward_expectancy_bt,2022.2.4,MacIntel,60.0024001,Chrome,1440,900,,,,,0,918,,,,,,,,,,,,,,,,,125,Y,hexagon,1,1,,,,,,,,,,,,,,,,repeat,number,numRpt,d,Hi,,,,,,0.7082,1,,,,,,,,high,8,0,8,0,1,,,,,,,,,
297139,2022-11-27_14h13.12.533,vts_reward_expectancy_bt,2022.2.4,MacIntel,60.0024001,Chrome,1440,900,,,,,1,919,,,,,,,,,,,,,,,,,132,D,star,1,0,,,,,,,,,,,,,,,,switch,letter,lettSwt,j,Lo,,,,,,0.5467,1,,,,,,,,high,9,0,9,0,1,,,,,,,,,
297139,2022-11-27_14h13.12.533,vts_reward_expectancy_bt,2022.2.4,MacIntel,60.0024001,Chrome,1440,900,,,,,10,929,,,,,,,,,,,,,,,,,174,U,circle,1,0,,,,,,,,,,,,,,,,repeat,letter,lettRpt,k,Hi,,,,,,0.616,1,,,,,,,,high,10,0,10,0,1,,,,,,,,,
297139,2022-11-27_14h13.12.533,vts_reward_expectancy_bt,2022.2.4,MacIntel,60.0024001,Chrome,1440,900,,,,,10,939,,,,,,,,,,,,,,,,,146,W,triangle,1,0,,,,,,,,,,,,,,,,repeat,letter,lettRpt,k,Lo,,,,,,0.5248,1,,,,,,,,high,11,0,11,0,1,,,,,,,,,
297139,2022-11-27_14h13.12.533,vts_reward_expectancy_bt,2022.2.4,MacIntel,60.0024001,Chrome,1440,900,,,,,1,940,,,,,,,,,,,,,,,,,167,F,star,1,0,,,,,,,,,,,,,,,,switch,number,numSwt,f,Lo,,,,,,0.6235,1,,,,,,,,high,12,0,12,0,1,,,,,,,,,
297139,2022-11-27_14h13.12.533,vts_reward_expectancy_bt,2022.2.4,MacIntel,60.0024001,Chrome,1440,900,,,,,0,940,,,,,,,,,,,,,,,,,139,H,hexagon,1,0,,,,,,,,,,,,,,,,repeat,number,numRpt,d,Hi,,,,,,0.7493,1,,,,,,,,high,13,0,13,0,1,,,,,,,,,
297139,2022-11-27_14h13.12.533,vts_reward_expectancy_bt,2022.2.4,MacIntel,60.0024001,Chrome,1440,900,,,,,1,941,,,,,,,,,,,,,,,,,181,S,triangle,1,0,,,,,,,,,,,,,,,,repeat,number,numRpt,f,Lo,,,,,,0.474,1,,,,,,,,high,14,0,14,0,1,,,,,,,,,
297139,2022-11-27_14h13.12.533,vts_reward_expectancy_bt,2022.2.4,MacIntel,60.0024001,Chrome,1440,900,,,,,0,941,,,,,,,,,,,,,,,,,160,B,circle,0,0,,,,,,,,,,,,,,,,repeat,number,NA,d,Lo,,,,,,0.592,1,,,,,,,,high,15,0,15,0,1,,,,,,,,,
297139,2022-11-27_14h13.12.533,vts_reward_expectancy_bt,2022.2.4,MacIntel,60.0024001,Chrome,1440,900,,,,,1,942,,,,,,,,,,,,,,,,,146,Y,star,1,1,,,,,,,,,,,,,,,,switch,letter,lettSwt,k,Lo,,,,,,0.5413,1,,,,,,,,high,16,0,16,0,1,,,,,,,,,
297139,2022-11-27_14h13.12.533,vts_reward_expectancy_bt,2022.2.4,MacIntel,60.0024001,Chrome,1440,900,,,,,1,943,,,,,,,,,,,,,,,,,167,F,triangle,1,0,,,,,,,,,,,,,,,,repeat,letter,lettRpt,j,Lo,,,,,,0.7322,1,,,,,,,,high,17,0,17,0,1,,,,,,,,,
297139,2022-11-27_14h13.12.533,vts_reward_expectancy_bt,2022.2.4,MacIntel,60.0024001,Chrome,1440,900,,,,,0,943,,,,,,,,,,,,,,,,,132,S,circle,1,0,,,,,,,,,,,,,,,,repeat,letter,lettRpt,k,Hi,,,,,,0.6915,1,,,,,,,,high,18,0,18,0,1,,,,,,,,,
297139,2022-11-27_14h13.12.533,vts_reward_expectancy_bt,2022.2.4,MacIntel,60.0024001,Chrome,1440,900,,,,,10,953,,,,,,,,,,,,,,,,,181,U,hexagon,1,0,,,,,,,,,,,,,,,,repeat,letter,lettRpt,k,Hi,,,,,,0.5731,1,,,,,,,,high,19,0,19,0,1,,,,,,,,,
297139,2022-11-27_14h13.12.533,vts_reward_expectancy_bt,2022.2.4,MacIntel,60.0024001,Chrome,1440,900,,,,,0,953,,,,,,,,,,,,,,,,,139,H,circle,1,0,,,,,,,,,,,,,,,,repeat,letter,lettRpt,j,Hi,,,,,,0.7326,1,,,,,,,,high,20,0,20,0,1,,,,,,,,,
297139,2022-11-27_14h13.12.533,vts_reward_expectancy_bt,2022.2.4,MacIntel,60.0024001,Chrome,1440,900,,,,,10,963,,,,,,,,,,,,,,,,,125,D,hexagon,1,0,,,,,,,,,,,,,,,,repeat,letter,lettRpt,j,Hi,,,,,,0.5413,1,,,,,,,,high,21,0,21,0,1,,,,,,,,,
297139,2022-11-27_14h13.12.533,vts_reward_expectancy_bt,2022.2.4,MacIntel,60.0024001,Chrome,1440,900,,,,,10,973,,,,,,,,,,,,,,,,,174,B,star,1,0,,,,,,,,,,,,,,,,repeat,letter,lettRpt,j,Lo,,,,,,0.6634,1,,,,,,,,high,22,0,22,0,1,,,,,,,,,
297139,2022-11-27_14h13.12.533,vts_reward_expectancy_bt,2022.2.4,MacIntel,60.0024001,Chrome,1440,900,,,,,1,974,,,,,,,,,,,,,,,,,160,W,triangle,1,0,,,,,,,,,,,,,,,,repeat,letter,lettRpt,k,Lo,,,,,,0.6428,1,,,,,,,,high,23,0,23,0,1,,,,,,,,,
297139,2022-11-27_14h13.12.533,vts_reward_expectancy_bt,2022.2.4,MacIntel,60.0024001,Chrome,1440,900,,,,,10,984,,,,,,,,,,,,,,,,,125,D,star,1,0,,,,,,,,,,,,,,,,repeat,letter,lettRpt,j,Lo,,,,,,0.7656,1,,,,,,,,high,24,0,24,0,1,,,,,,,,,
297139,2022-11-27_14h13.12.533,vts_reward_expectancy_bt,2022.2.4,MacIntel,60.0024001,Chrome,1440,900,,,,,10,994,,,,,,,,,,,,,,,,,167,W,circle,1,0,,,,,,,,,,,,,,,,repeat,letter,lettRpt,k,Hi,,,,,,0.5415,1,,,,,,,,high,25,0,25,0,1,,,,,,,,,
297139,2022-11-27_14h13.12.533,vts_reward_expectancy_bt,2022.2.4,MacIntel,60.0024001,Chrome,1440,900,,,,,10,1004,,,,,,,,,,,,,,,,,174,B,triangle,1,0,,,,,,,,,,,,,,,,repeat,letter,lettRpt,j,Lo,,,,,,0.5912,1,,,,,,,,high,26,0,26,0,1,,,,,,,,,
297139,2022-11-27_14h13.12.533,vts_reward_expectancy_bt,2022.2.4,MacIntel,60.0024001,Chrome,1440,900,,,,,0,1004,,,,,,,,,,,,,,,,,132,H,hexagon,0,0,,,,,,,,,,,,,,,,repeat,letter,NA,k,Lo,,,,,,0.5455,1,,,,,,,,high,27,0,27,0,1,,,,,,,,,
297139,2022-11-27_14h13.12.533,vts_reward_expectancy_bt,2022.2.4,MacIntel,60.0024001,Chrome,1440,900,,,,,10,1014,,,,,,,,,,,,,,,,,181,F,triangle,1,1,,,,,,,,,,,,,,,,repeat,letter,lettRpt,j,Lo,,,,,,0.5081,1,,,,,,,,high,28,0,28,0,1,,,,,,,,,
297139,2022-11-27_14h13.12.533,vts_reward_expectancy_bt,2022.2.4,MacIntel,60.0024001,Chrome,1440,900,,,,,10,1024,,,,,,,,,,,,,,,,,160,Y,hexagon,1,0,,,,,,,,,,,,,,,,repeat,letter,lettRpt,k,Hi,,,,,,0.5253,1,,,,,,,,high,29,0,29,0,1,,,,,,,,,
297139,2022-11-27_14h13.12.533,vts_reward_expectancy_bt,2022.2.4,MacIntel,60.0024001,Chrome,1440,900,,,,,10,1034,,,,,,,,,,,,,,,,,139,S,circle,1,0,,,,,,,,,,,,,,,,repeat,letter,lettRpt,k,Hi,,,,,,0.592,1,,,,,,,,high,30,0,30,0,1,,,,,,,,,
297139,2022-11-27_14h13.12.533,vts_reward_expectancy_bt,2022.2.4,MacIntel,60.0024001,Chrome,1440,900,,,,,1,1035,,,,,,,,,,,,,,,,,146,U,star,1,0,,,,,,,,,,,,,,,,repeat,letter,lettRpt,k,Lo,,,,,,0.8078,1,,,,,,,,high,31,0,31,0,1,,,,,,,,,
297139,2022-11-27_14h13.12.533,vts_reward_expectancy_bt,2022.2.4,MacIntel,60.0024001,Chrome,1440,900,,,,,10,1045,,,,,,,,,,,,,,,,,125,U,hexagon,1,0,,,,,,,,,,,,,,,,switch,number,numSwt,d,Hi,,,,,,0.4923,2,,,,,,space,2.0231,high,0,0,0,0,1,,,,,,,,,
297139,2022-11-27_14h13.12.533,vts_reward_expectancy_bt,2022.2.4,MacIntel,60.0024001,Chrome,1440,900,,,,,10,1055,,,,,,,,,,,,,,,,,167,W,star,1,0,,,,,,,,,,,,,,,,repeat,number,numRpt,f,Lo,,,,,,0.7625,2,,,,,,,,high,1,0,1,0,1,,,,,,,,,
297139,2022-11-27_14h13.12.533,vts_reward_expectancy_bt,2022.2.4,MacIntel,60.0024001,Chrome,1440,900,,,,,10,1065,,,,,,,,,,,,,,,,,174,Y,triangle,1,0,,,,,,,,,,,,,,,,switch,letter,lettSwt,k,Lo,,,,,,0.6111,2,,,,,,,,high,2,0,2,0,1,,,,,,,,,
297139,2022-11-27_14h13.12.533,vts_reward_expectancy_bt,2022.2.4,MacIntel,60.0024001,Chrome,1440,900,,,,,0,1065,,,,,,,,,,,,,,,,,132,D,circle,1,0,,,,,,,,,,,,,,,,repeat,letter,lettRpt,j,Hi,,,,,,0.6411,2,,,,,,,,high,3,0,3,0,1,,,,,,,,,
297139,2022-11-27_14h13.12.533,vts_reward_expectancy_bt,2022.2.4,MacIntel,60.0024001,Chrome,1440,900,,,,,1,1066,,,,,,,,,,,,,,,,,139,B,hexagon,1,0,,,,,,,,,,,,,,,,repeat,letter,lettRpt,j,Hi,,,,,,0.5084,2,,,,,,,,high,4,0,4,0,1,,,,,,,,,
297139,2022-11-27_14h13.12.533,vts_reward_expectancy_bt,2022.2.4,MacIntel,60.0024001,Chrome,1440,900,,,,,0,1066,,,,,,,,,,,,,,,,,181,S,star,0,0,,,,,,,,,,,,,,,,switch,number,NA,d,Hi,,,,,,0.6271,2,,,,,,,,high,5,0,5,0,1,,,,,,,,,
297139,2022-11-27_14h13.12.533,vts_reward_expectancy_bt,2022.2.4,MacIntel,60.0024001,Chrome,1440,900,,,,,1,1067,,,,,,,,,,,,,,,,,146,F,triangle,1,1,,,,,,,,,,,,,,,,repeat,number,numRpt,d,Lo,,,,,,0.5831,2,,,,,,,,high,6,0,6,0,1,,,,,,,,,
297139,2022-11-27_14h13.12.533,vts_reward_expectancy_bt,2022.2.4,MacIntel,60.0024001,Chrome,1440,900,,,,,0,1067,,,,,,,,,,,,,,,,,160,H,circle,1,0,,,,,,,,,,,,,,,,repeat,number,numRpt,f,Hi,,,,,,0.5816,2,,,,,,,,high,7,0,7,0,1,,,,,,,,,
297139,2022-11-27_14h13.12.533,vts_reward_expectancy_bt,2022.2.4,MacIntel,60.0024001,Chrome,1440,900,,,,,10,1077,,,,,,,,,,,,,,,,,125,U,star,1,0,,,,,,,,,,,,,,,,repeat,number,numRpt,d,Lo,,,,,,0.5249,2,,,,,,,,high,8,0,8,0,1,,,,,,,,,
297139,2022-11-27_14h13.12.533,vts_reward_expectancy_bt,2022.2.4,MacIntel,60.0024001,Chrome,1440,900,,,,,1,1078,,,,,,,,,,,,,,,,,167,W,triangle,1,0,,,,,,,,,,,,,,,,repeat,number,numRpt,f,Lo,,,,,,0.4912,2,,,,,,,,high,9,0,9,0,1,,,,,,,,,
297139,2022-11-27_14h13.12.533,vts_reward_expectancy_bt,2022.2.4,MacIntel,60.0024001,Chrome,1440,900,,,,,0,1078,,,,,,,,,,,,,,,,,174,Y,circle,1,0,,,,,,,,,,,,,,,,switch,letter,lettSwt,k,Hi,,,,,,0.626,2,,,,,,,,high,10,0,10,0,1,,,,,,,,,
297139,2022-11-27_14h13.12.533,vts_reward_expectancy_bt,2022.2.4,MacIntel,60.0024001,Chrome,1440,900,,,,,10,1088,,,,,,,,,,,,,,,,,132,D,hexagon,1,0,,,,,,,,,,,,,,,,switch,number,numSwt,d,Hi,,,,,,0.6414,2,,,,,,,,high,11,0,11,0,1,,,,,,,,,
297139,2022-11-27_14h13.12.533,vts_reward_expectancy_bt,2022.2.4,MacIntel,60.0024001,Chrome,1440,900,,,,,10,1098,,,,,,,,,,,,,,,,,139,B,star,1,0,,,,,,,,,,,,,,,,repeat,number,numRpt,d,Lo,,,,,,0.8615,2,,,,,,,,high,12,0,12,0,1,,,,,,,,,
297139,2022-11-27_14h13.12.533,vts_reward_expectancy_bt,2022.2.4,MacIntel,60.0024001,Chrome,1440,900,,,,,0,1098,,,,,,,,,,,,,,,,,181,S,hexagon,1,0,,,,,,,,,,,,,,,,switch,letter,lettSwt,k,Hi,,,,,,0.6978,2,,,,,,,,high,13,0,13,0,1,,,,,,,,,
297139,2022-11-27_14h13.12.533,vts_reward_expectancy_bt,2022.2.4,MacIntel,60.0024001,Chrome,1440,900,,,,,0,1098,,,,,,,,,,,,,,,,,146,F,circle,1,0,,,,,,,,,,,,,,,,repeat,letter,lettRpt,j,Hi,,,,,,0.7921,2,,,,,,,,high,14,0,14,0,1,,,,,,,,,
297139,2022-11-27_14h13.12.533,vts_reward_expectancy_bt,2022.2.4,MacIntel,60.0024001,Chrome,1440,900,,,,,1,1099,,,,,,,,,,,,,,,,,160,H,triangle,1,0,,,,,,,,,,,,,,,,repeat,letter,lettRpt,j,Lo,,,,,,1.9269,2,,,,,,,,high,15,0,15,0,1,,,,,,,,,
297139,2022-11-27_14h13.12.533,vts_reward_expectancy_bt,2022.2.4,MacIntel,60.0024001,Chrome,1440,900,,,,,10,1109,,,,,,,,,,,,,,,,,125,Y,star,1,0,,,,,,,,,,,,,,,,switch,number,numSwt,d,Lo,,,,,,1.0434,2,,,,,,,,high,16,0,16,0,1,,,,,,,,,
297139,2022-11-27_14h13.12.533,vts_reward_expectancy_bt,2022.2.4,MacIntel,60.0024001,Chrome,1440,900,,,,,0,1109,,,,,,,,,,,,,,,,,146,F,hexagon,1,0,,,,,,,,,,,,,,,,switch,letter,lettSwt,j,Hi,,,,,,1.0115,2,,,,,,,,high,17,0,17,0,1,,,,,,,,,
297139,2022-11-27_14h13.12.533,vts_reward_expectancy_bt,2022.2.4,MacIntel,60.0024001,Chrome,1440,900,,,,,10,1119,,,,,,,,,,,,,,,,,174,W,circle,1,0,,,,,,,,,,,,,,,,repeat,letter,lettRpt,k,Hi,,,,,,0.4259,2,,,,,,,,high,18,0,18,0,1,,,,,,,,,
297139,2022-11-27_14h13.12.533,vts_reward_expectancy_bt,2022.2.4,MacIntel,60.0024001,Chrome,1440,900,,,,,1,1120,,,,,,,,,,,,,,,,,167,U,triangle,1,0,,,,,,,,,,,,,,,,switch,number,numSwt,f,Lo,,,,,,0.5641,2,,,,,,,,high,19,0,19,0,1,,,,,,,,,
297139,2022-11-27_14h13.12.533,vts_reward_expectancy_bt,2022.2.4,MacIntel,60.0024001,Chrome,1440,900,,,,,0,1120,,,,,,,,,,,,,,,,,139,H,circle,0,0,,,,,,,,,,,,,,,,switch,letter,NA,k,Lo,,,,,,0.7987,2,,,,,,,,high,20,0,20,0,1,,,,,,,,,
297139,2022-11-27_14h13.12.533,vts_reward_expectancy_bt,2022.2.4,MacIntel,60.0024001,Chrome,1440,900,,,,,10,1130,,,,,,,,,,,,,,,,,160,S,star,1,1,,,,,,,,,,,,,,,,repeat,letter,lettRpt,k,Lo,,,,,,0.6438,2,,,,,,,,high,21,0,21,0,1,,,,,,,,,
297139,2022-11-27_14h13.12.533,vts_reward_expectancy_bt,2022.2.4,MacIntel,60.0024001,Chrome,1440,900,,,,,1,1131,,,,,,,,,,,,,,,,,132,B,triangle,1,0,,,,,,,,,,,,,,,,switch,number,numSwt,d,Lo,,,,,,0.675,2,,,,,,,,high,22,0,22,0,1,,,,,,,,,
297139,2022-11-27_14h13.12.533,vts_reward_expectancy_bt,2022.2.4,MacIntel,60.0024001,Chrome,1440,900,,,,,0,1131,,,,,,,,,,,,,,,,,181,D,hexagon,1,0,,,,,,,,,,,,,,,,switch,letter,lettSwt,j,Hi,,,,,,0.5584,2,,,,,,,,high,23,0,23,0,1,,,,,,,,,
297139,2022-11-27_14h13.12.533,vts_reward_expectancy_bt,2022.2.4,MacIntel,60.0024001,Chrome,1440,900,,,,,1,1132,,,,,,,,,,,,,,,,,167,D,hexagon,1,0,,,,,,,,,,,,,,,,repeat,letter,lettRpt,j,Hi,,,,,,0.4754,2,,,,,,,,high,24,0,24,0,1,,,,,,,,,
297139,2022-11-27_14h13.12.533,vts_reward_expectancy_bt,2022.2.4,MacIntel,60.0024001,Chrome,1440,900,,,,,1,1133,,,,,,,,,,,,,,,,,160,B,circle,1,0,,,,,,,,,,,,,,,,switch,number,numSwt,f,Hi,,,,,,0.4148,2,,,,,,,,high,25,0,25,0,1,,,,,,,,,
297139,2022-11-27_14h13.12.533,vts_reward_expectancy_bt,2022.2.4,MacIntel,60.0024001,Chrome,1440,900,,,,,1,1134,,,,,,,,,,,,,,,,,174,Y,triangle,1,0,,,,,,,,,,,,,,,,switch,letter,lettSwt,k,Lo,,,,,,0.6764,2,,,,,,,,high,26,0,26,0,1,,,,,,,,,
297139,2022-11-27_14h13.12.533,vts_reward_expectancy_bt,2022.2.4,MacIntel,60.0024001,Chrome,1440,900,,,,,0,1134,,,,,,,,,,,,,,,,,125,S,star,0,0,,,,,,,,,,,,,,,,repeat,letter,NA,j,Lo,,,,,,0.7326,2,,,,,,,,high,27,0,27,0,1,,,,,,,,,
297139,2022-11-27_14h13.12.533,vts_reward_expectancy_bt,2022.2.4,MacIntel,60.0024001,Chrome,1440,900,,,,,0,1134,,,,,,,,,,,,,,,,,132,H,circle,0,1,,,,,,,,,,,,,,,,repeat,letter,NA,k,Lo,,,,,,0.624,2,,,,,,,,high,28,0,28,0,1,,,,,,,,,
297139,2022-11-27_14h13.12.533,vts_reward_expectancy_bt,2022.2.4,MacIntel,60.0024001,Chrome,1440,900,,,,,1,1135,,,,,,,,,,,,,,,,,181,U,triangle,1,1,,,,,,,,,,,,,,,,repeat,letter,lettRpt,k,Lo,,,,,,0.6065,2,,,,,,,,high,29,0,29,0,1,,,,,,,,,
297139,2022-11-27_14h13.12.533,vts_reward_expectancy_bt,2022.2.4,MacIntel,60.0024001,Chrome,1440,900,,,,,1,1136,,,,,,,,,,,,,,,,,146,W,star,1,0,,,,,,,,,,,,,,,,repeat,letter,lettRpt,k,Lo,,,,,,0.6286,2,,,,,,,,high,30,0,30,0,1,,,,,,,,,
297139,2022-11-27_14h13.12.533,vts_reward_expectancy_bt,2022.2.4,MacIntel,60.0024001,Chrome,1440,900,,,,,10,1146,,,,,,,,,,,,,,,,,139,F,hexagon,1,0,,,,,,,,,,,,,,,,repeat,letter,lettRpt,j,Hi,,,,,,0.4313,2,,,,,,,,high,31,0,31,0,1,,,,,,,,,
297139,2022-11-27_14h13.12.533,vts_reward_expectancy_bt,2022.2.4,MacIntel,60.0024001,Chrome,1440,900,,,,,1,1147,,,,,,,,,,,,,,,,,181,S,star,1,0,,,,,,,,,,,,,,,,switch,number,numSwt,f,Lo,,,,,,0.8451,3,,,,,,space,1.0361,high,0,0,0,0,1,,,,,,,,,
297139,2022-11-27_14h13.12.533,vts_reward_expectancy_bt,2022.2.4,MacIntel,60.0024001,Chrome,1440,900,,,,,10,1157,,,,,,,,,,,,,,,,,139,Y,triangle,1,0,,,,,,,,,,,,,,,,repeat,number,numRpt,d,Lo,,,,,,0.5568,3,,,,,,,,high,1,0,1,0,1,,,,,,,,,
297139,2022-11-27_14h13.12.533,vts_reward_expectancy_bt,2022.2.4,MacIntel,60.0024001,Chrome,1440,900,,,,,10,1167,,,,,,,,,,,,,,,,,132,F,hexagon,1,0,,,,,,,,,,,,,,,,repeat,number,numRpt,d,Hi,,,,,,0.4259,3,,,,,,,,high,2,0,2,0,1,,,,,,,,,
297139,2022-11-27_14h13.12.533,vts_reward_expectancy_bt,2022.2.4,MacIntel,60.0024001,Chrome,1440,900,,,,,10,1177,,,,,,,,,,,,,,,,,125,H,circle,1,0,,,,,,,,,,,,,,,,repeat,number,numRpt,d,Hi,,,,,,0.5278,3,,,,,,,,high,3,0,3,0,1,,,,,,,,,
297139,2022-11-27_14h13.12.533,vts_reward_expectancy_bt,2022.2.4,MacIntel,60.0024001,Chrome,1440,900,,,,,10,1187,,,,,,,,,,,,,,,,,174,D,star,1,0,,,,,,,,,,,,,,,,repeat,number,numRpt,f,Lo,,,,,,0.3989,3,,,,,,,,high,4,0,4,0,1,,,,,,,,,
297139,2022-11-27_14h13.12.533,vts_reward_expectancy_bt,2022.2.4,MacIntel,60.0024001,Chrome,1440,900,,,,,1,1188,,,,,,,,,,,,,,,,,146,B,triangle,1,0,,,,,,,,,,,,,,,,switch,letter,lettSwt,j,Lo,,,,,,0.6474,3,,,,,,,,high,5,0,5,0,1,,,,,,,,,
297139,2022-11-27_14h13.12.533,vts_reward_expectancy_bt,2022.2.4,MacIntel,60.0024001,Chrome,1440,900,,,,,0,1188,,,,,,,,,,,,,,,,,160,W,hexagon,1,0,,,,,,,,,,,,,,,,repeat,letter,lettRpt,k,Hi,,,,,,0.6293,3,,,,,,,,high,6,0,6,0,1,,,,,,,,,
297139,2022-11-27_14h13.12.533,vts_reward_expectancy_bt,2022.2.4,MacIntel,60.0024001,Chrome,1440,900,,,,,0,1188,,,,,,,,,,,,,,,,,167,U,circle,1,0,,,,,,,,,,,,,,,,repeat,letter,lettRpt,k,Hi,,,,,,0.6084,3,,,,,,,,high,7,0,7,0,1,,,,,,,,,
297139,2022-11-27_14h13.12.533,vts_reward_expectancy_bt,2022.2.4,MacIntel,60.0024001,Chrome,1440,900,,,,,0,1188,,,,,,,,,,,,,,,,,181,S,star,0,0,,,,,,,,,,,,,,,,repeat,letter,NA,j,Hi,,,,,,0.5079,3,,,,,,,,high,8,0,8,0,1,,,,,,,,,
297139,2022-11-27_14h13.12.533,vts_reward_expectancy_bt,2022.2.4,MacIntel,60.0024001,Chrome,1440,900,,,,,0,1188,,,,,,,,,,,,,,,,,139,Y,circle,1,1,,,,,,,,,,,,,,,,repeat,letter,lettRpt,k,Hi,,,,,,0.6247,3,,,,,,,,high,9,0,9,0,1,,,,,,,,,
297139,2022-11-27_14h13.12.533,vts_reward_expectancy_bt,2022.2.4,MacIntel,60.0024001,Chrome,1440,900,,,,,1,1189,,,,,,,,,,,,,,,,,132,F,triangle,1,0,,,,,,,,,,,,,,,,repeat,letter,lettRpt,j,Lo,,,,,,0.3916,3,,,,,,,,high,10,0,10,0,1,,,,,,,,,
297139,2022-11-27_14h13.12.533,vts_reward_expectancy_bt,2022.2.4,MacIntel,60.0024001,Chrome,1440,900,,,,,0,1189,,,,,,,,,,,,,,,,,125,H,hexagon,1,0,,,,,,,,,,,,,,,,switch,number,numSwt,d,Hi,,,,,,1.7428,3,,,,,,,,high,11,0,11,0,1,,,,,,,,,
297139,2022-11-27_14h13.12.533,vts_reward_expectancy_bt,2022.2.4,MacIntel,60.0024001,Chrome,1440,900,,,,,1,1190,,,,,,,,,,,,,,,,,174,D,triangle,1,0,,,,,,,,,,,,,,,,repeat,number,numRpt,f,Lo,,,,,,0.6322,3,,,,,,,,high,12,0,12,0,1,,,,,,,,,
297139,2022-11-27_14h13.12.533,vts_reward_expectancy_bt,2022.2.4,MacIntel,60.0024001,Chrome,1440,900,,,,,1,1191,,,,,,,,,,,,,,,,,146,B,star,1,0,,,,,,,,,,,,,,,,repeat,number,numRpt,d,Lo,,,,,,0.5746,3,,,,,,,,high,13,0,13,0,1,,,,,,,,,
297139,2022-11-27_14h13.12.533,vts_reward_expectancy_bt,2022.2.4,MacIntel,60.0024001,Chrome,1440,900,,,,,0,1191,,,,,,,,,,,,,,,,,160,W,circle,1,0,,,,,,,,,,,,,,,,repeat,number,numRpt,f,Hi,,,,,,0.9093,3,,,,,,,,high,14,0,14,0,1,,,,,,,,,
297139,2022-11-27_14h13.12.533,vts_reward_expectancy_bt,2022.2.4,MacIntel,60.0024001,Chrome,1440,900,,,,,0,1191,,,,,,,,,,,,,,,,,167,U,hexagon,1,0,,,,,,,,,,,,,,,,repeat,number,numRpt,f,Hi,,,,,,0.947,3,,,,,,,,high,15,0,15,0,1,,,,,,,,,
297139,2022-11-27_14h13.12.533,vts_reward_expectancy_bt,2022.2.4,MacIntel,60.0024001,Chrome,1440,900,,,,,0,1191,,,,,,,,,,,,,,,,,132,F,hexagon,1,0,,,,,,,,,,,,,,,,switch,letter,lettSwt,j,Hi,,,,,,0.9255,3,,,,,,,,high,16,0,16,0,1,,,,,,,,,
297139,2022-11-27_14h13.12.533,vts_reward_expectancy_bt,2022.2.4,MacIntel,60.0024001,Chrome,1440,900,,,,,1,1192,,,,,,,,,,,,,,,,,181,D,triangle,1,0,,,,,,,,,,,,,,,,repeat,letter,lettRpt,j,Lo,,,,,,0.5254,3,,,,,,,,high,17,0,17,0,1,,,,,,,,,
297139,2022-11-27_14h13.12.533,vts_reward_expectancy_bt,2022.2.4,MacIntel,60.0024001,Chrome,1440,900,,,,,1,1193,,,,,,,,,,,,,,,,,125,Y,circle,1,0,,,,,,,,,,,,,,,,repeat,letter,lettRpt,k,Hi,,,,,,0.4654,3,,,,,,,,high,18,0,18,0,1,,,,,,,,,
297139,2022-11-27_14h13.12.533,vts_reward_expectancy_bt,2022.2.4,MacIntel,60.0024001,Chrome,1440,900,,,,,0,1193,,,,,,,,,,,,,,,,,139,U,star,0,0,,,,,,,,,,,,,,,,repeat,letter,NA,j,Hi,,,,,,0.278,3,,,,,,,,high,19,0,19,0,1,,,,,,,,,
297139,2022-11-27_14h13.12.533,vts_reward_expectancy_bt,2022.2.4,MacIntel,60.0024001,Chrome,1440,900,,,,,10,1203,,,,,,,,,,,,,,,,,174,B,triangle,1,1,,,,,,,,,,,,,,,,repeat,letter,lettRpt,j,Lo,,,,,,0.5081,3,,,,,,,,high,20,0,20,0,1,,,,,,,,,
297139,2022-11-27_14h13.12.533,vts_reward_expectancy_bt,2022.2.4,MacIntel,60.0024001,Chrome,1440,900,,,,,0,1203,,,,,,,,,,,,,,,,,167,H,star,0,0,,,,,,,,,,,,,,,,repeat,letter,NA,k,Lo,,,,,,0.6407,3,,,,,,,,high,21,0,21,0,1,,,,,,,,,
297139,2022-11-27_14h13.12.533,vts_reward_expectancy_bt,2022.2.4,MacIntel,60.0024001,Chrome,1440,900,,,,,10,1213,,,,,,,,,,,,,,,,,160,S,hexagon,1,1,,,,,,,,,,,,,,,,repeat,letter,lettRpt,k,Hi,,,,,,0.4897,3,,,,,,,,high,22,0,22,0,1,,,,,,,,,
297139,2022-11-27_14h13.12.533,vts_reward_expectancy_bt,2022.2.4,MacIntel,60.0024001,Chrome,1440,900,,,,,10,1223,,,,,,,,,,,,,,,,,146,W,circle,1,0,,,,,,,,,,,,,,,,repeat,letter,lettRpt,k,Hi,,,,,,0.4947,3,,,,,,,,high,23,0,23,0,1,,,,,,,,,
297139,2022-11-27_14h13.12.533,vts_reward_expectancy_bt,2022.2.4,MacIntel,60.0024001,Chrome,1440,900,,,,,10,1233,,,,,,,,,,,,,,,,,125,U,circle,1,0,,,,,,,,,,,,,,,,repeat,letter,lettRpt,k,Hi,,,,,,0.4407,3,,,,,,,,high,24,0,24,0,1,,,,,,,,,
297139,2022-11-27_14h13.12.533,vts_reward_expectancy_bt,2022.2.4,MacIntel,60.0024001,Chrome,1440,900,,,,,0,1233,,,,,,,,,,,,,,,,,181,F,triangle,0,0,,,,,,,,,,,,,,,,repeat,letter,NA,k,Hi,,,,,,0.4331,3,,,,,,,,high,25,0,25,0,1,,,,,,,,,
297139,2022-11-27_14h13.12.533,vts_reward_expectancy_bt,2022.2.4,MacIntel,60.0024001,Chrome,1440,900,,,,,0,1233,,,,,,,,,,,,,,,,,146,S,hexagon,0,1,,,,,,,,,,,,,,,,repeat,letter,NA,j,Hi,,,,,,0.5323,3,,,,,,,,high,26,0,26,0,1,,,,,,,,,
297139,2022-11-27_14h13.12.533,vts_reward_expectancy_bt,2022.2.4,MacIntel,60.0024001,Chrome,1440,900,,,,,1,1234,,,,,,,,,,,,,,,,,174,B,star,1,1,,,,,,,,,,,,,,,,repeat,letter,lettRpt,j,Lo,,,,,,0.625,3,,,,,,,,high,27,0,27,0,1,,,,,,,,,
297139,2022-11-27_14h13.12.533,vts_reward_expectancy_bt,2022.2.4,MacIntel,60.0024001,Chrome,1440,900,,,,,1,1235,,,,,,,,,,,,,,,,,132,Y,triangle,1,0,,,,,,,,,,,,,,,,switch,number,numSwt,d,Lo,,,,,,0.6074,3,,,,,,,,high,28,0,28,0,1,,,,,,,,,
297139,2022-11-27_14h13.12.533,vts_reward_expectancy_bt,2022.2.4,MacIntel,60.0024001,Chrome,1440,900,,,,,0,1235,,,,,,,,,,,,,,,,,160,D,hexagon,1,0,,,,,,,,,,,,,,,,repeat,number,numRpt,f,Hi,,,,,,0.9995,3,,,,,,,,high,29,0,29,0,1,,,,,,,,,
297139,2022-11-27_14h13.12.533,vts_reward_expectancy_bt,2022.2.4,MacIntel,60.0024001,Chrome,1440,900,,,,,1,1236,,,,,,,,,,,,,,,,,167,W,star,1,0,,,,,,,,,,,,,,,,repeat,number,numRpt,f,Lo,,,,,,0.6079,3,,,,,,,,high,30,0,30,0,1,,,,,,,,,
297139,2022-11-27_14h13.12.533,vts_reward_expectancy_bt,2022.2.4,MacIntel,60.0024001,Chrome,1440,900,,,,,0,1236,,,,,,,,,,,,,,,,,139,H,circle,1,0,,,,,,,,,,,,,,,,switch,letter,lettSwt,j,Hi,,,,,,0.8498,3,,,,,,,,high,31,0,31,0,1,,,,,,,,,
297139,2022-11-27_14h13.12.533,vts_reward_expectancy_bt,2022.2.4,MacIntel,60.0024001,Chrome,1440,900,,,,,1,1237,,,,,,,,,,,,,,,,,132,H,star,1,0,,,,,,,,,,,,,,,,switch,number,numSwt,d,Lo,,,,,,0.4547,4,,,,,,space,0.7059,high,0,0,0,0,1,,,,,,,,,
297139,2022-11-27_14h13.12.533,vts_reward_expectancy_bt,2022.2.4,MacIntel,60.0024001,Chrome,1440,900,,,,,1,1238,,,,,,,,,,,,,,,,,174,B,circle,1,0,,,,,,,,,,,,,,,,repeat,number,numRpt,f,Hi,,,,,,0.4309,4,,,,,,,,high,1,0,1,0,1,,,,,,,,,
297139,2022-11-27_14h13.12.533,vts_reward_expectancy_bt,2022.2.4,MacIntel,60.0024001,Chrome,1440,900,,,,,1,1239,,,,,,,,,,,,,,,,,139,U,triangle,1,0,,,,,,,,,,,,,,,,switch,letter,lettSwt,k,Lo,,,,,,0.529,4,,,,,,,,high,2,0,2,0,1,,,,,,,,,
297139,2022-11-27_14h13.12.533,vts_reward_expectancy_bt,2022.2.4,MacIntel,60.0024001,Chrome,1440,900,,,,,0,1239,,,,,,,,,,,,,,,,,125,S,hexagon,1,0,,,,,,,,,,,,,,,,repeat,letter,lettRpt,k,Hi,,,,,,0.4945,4,,,,,,,,high,3,0,3,0,1,,,,,,,,,
297139,2022-11-27_14h13.12.533,vts_reward_expectancy_bt,2022.2.4,MacIntel,60.0024001,Chrome,1440,900,,,,,10,1249,,,,,,,,,,,,,,,,,160,F,star,1,0,,,,,,,,,,,,,,,,switch,number,numSwt,f,Lo,,,,,,0.3747,4,,,,,,,,high,4,0,4,0,1,,,,,,,,,
297139,2022-11-27_14h13.12.533,vts_reward_expectancy_bt,2022.2.4,MacIntel,60.0024001,Chrome,1440,900,,,,,10,1259,,,,,,,,,,,,,,,,,181,D,circle,1,0,,,,,,,,,,,,,,,,repeat,number,numRpt,f,Hi,,,,,,0.3771,4,,,,,,,,high,5,0,5,0,1,,,,,,,,,
297139,2022-11-27_14h13.12.533,vts_reward_expectancy_bt,2022.2.4,MacIntel,60.0024001,Chrome,1440,900,,,,,10,1269,,,,,,,,,,,,,,,,,146,W,triangle,1,0,,,,,,,,,,,,,,,,repeat,number,numRpt,d,Lo,,,,,,0.4606,4,,,,,,,,high,6,0,6,0,1,,,,,,,,,
297139,2022-11-27_14h13.12.533,vts_reward_expectancy_bt,2022.2.4,MacIntel,60.0024001,Chrome,1440,900,,,,,0,1269,,,,,,,,,,,,,,,,,167,Y,hexagon,0,0,,,,,,,,,,,,,,,,repeat,number,NA,d,Lo,,,,,,0.3944,4,,,,,,,,high,7,0,7,0,1,,,,,,,,,
297139,2022-11-27_14h13.12.533,vts_reward_expectancy_bt,2022.2.4,MacIntel,60.0024001,Chrome,1440,900,,,,,1,1270,,,,,,,,,,,,,,,,,132,H,star,1,1,,,,,,,,,,,,,,,,switch,letter,lettSwt,j,Lo,,,,,,0.4951,4,,,,,,,,high,8,0,8,0,1,,,,,,,,,
297139,2022-11-27_14h13.12.533,vts_reward_expectancy_bt,2022.2.4,MacIntel,60.0024001,Chrome,1440,900,,,,,0,1270,,,,,,,,,,,,,,,,,174,B,circle,1,0,,,,,,,,,,,,,,,,repeat,letter,lettRpt,j,Hi,,,,,,0.5461,4,,,,,,,,high,9,0,9,0,1,,,,,,,,,
297139,2022-11-27_14h13.12.533,vts_reward_expectancy_bt,2022.2.4,MacIntel,60.0024001,Chrome,1440,900,,,,,10,1280,,,,,,,,,,,,,,,,,139,U,hexagon,1,0,,,,,,,,,,,,,,,,repeat,letter,lettRpt,k,Hi,,,,,,0.4327,4,,,,,,,,high,10,0,10,0,1,,,,,,,,,
297139,2022-11-27_14h13.12.533,vts_reward_expectancy_bt,2022.2.4,MacIntel,60.0024001,Chrome,1440,900,,,,,1,1281,,,,,,,,,,,,,,,,,125,S,triangle,1,0,,,,,,,,,,,,,,,,repeat,letter,lettRpt,k,Lo,,,,,,0.4746,4,,,,,,,,high,11,0,11,0,1,,,,,,,,,
297139,2022-11-27_14h13.12.533,vts_reward_expectancy_bt,2022.2.4,MacIntel,60.0024001,Chrome,1440,900,,,,,0,1281,,,,,,,,,,,,,,,,,160,F,triangle,0,0,,,,,,,,,,,,,,,,repeat,letter,NA,k,Lo,,,,,,0.381,4,,,,,,,,high,12,0,12,0,1,,,,,,,,,
297139,2022-11-27_14h13.12.533,vts_reward_expectancy_bt,2022.2.4,MacIntel,60.0024001,Chrome,1440,900,,,,,1,1282,,,,,,,,,,,,,,,,,181,D,star,1,1,,,,,,,,,,,,,,,,switch,number,numSwt,f,Lo,,,,,,0.6413,4,,,,,,,,high,13,0,13,0,1,,,,,,,,,
297139,2022-11-27_14h13.12.533,vts_reward_expectancy_bt,2022.2.4,MacIntel,60.0024001,Chrome,1440,900,,,,,0,1282,,,,,,,,,,,,,,,,,146,W,hexagon,1,0,,,,,,,,,,,,,,,,repeat,number,numRpt,d,Hi,,,,,,0.6083,4,,,,,,,,high,14,0,14,0,1,,,,,,,,,
297139,2022-11-27_14h13.12.533,vts_reward_expectancy_bt,2022.2.4,MacIntel,60.0024001,Chrome,1440,900,,,,,0,1282,,,,,,,,,,,,,,,,,167,Y,circle,0,0,,,,,,,,,,,,,,,,repeat,number,NA,d,Hi,,,,,,0.6662,4,,,,,,,,high,15,0,15,0,1,,,,,,,,,
297139,2022-11-27_14h13.12.533,vts_reward_expectancy_bt,2022.2.4,MacIntel,60.0024001,Chrome,1440,900,,,,,1,1283,,,,,,,,,,,,,,,,,146,W,star,1,1,,,,,,,,,,,,,,,,repeat,number,numRpt,d,Lo,,,,,,0.6421,4,,,,,,,,high,16,0,16,0,1,,,,,,,,,
297139,2022-11-27_14h13.12.533,vts_reward_expectancy_bt,2022.2.4,MacIntel,60.0024001,Chrome,1440,900,,,,,0,1283,,,,,,,,,,,,,,,,,139,D,hexagon,0,0,,,,,,,,,,,,,,,,repeat,number,NA,f,Lo,,,,,,0.3983,4,,,,,,,,high,17,0,17,0,1,,,,,,,,,
297139,2022-11-27_14h13.12.533,vts_reward_expectancy_bt,2022.2.4,MacIntel,60.0024001,Chrome,1440,900,,,,,10,1293,,,,,,,,,,,,,,,,,174,H,triangle,1,1,,,,,,,,,,,,,,,,repeat,number,numRpt,f,Lo,,,,,,0.5827,4,,,,,,,,high,18,0,18,0,1,,,,,,,,,
297139,2022-11-27_14h13.12.533,vts_reward_expectancy_bt,2022.2.4,MacIntel,60.0024001,Chrome,1440,900,,,,,10,1303,,,,,,,,,,,,,,,,,125,B,circle,1,0,,,,,,,,,,,,,,,,repeat,number,numRpt,d,Hi,,,,,,0.4802,4,,,,,,,,high,19,0,19,0,1,,,,,,,,,
297139,2022-11-27_14h13.12.533,vts_reward_expectancy_bt,2022.2.4,MacIntel,60.0024001,Chrome,1440,900,,,,,1,1304,,,,,,,,,,,,,,,,,132,F,triangle,1,0,,,,,,,,,,,,,,,,repeat,number,numRpt,d,Lo,,,,,,0.4313,4,,,,,,,,high,20,0,20,0,1,,,,,,,,,
297139,2022-11-27_14h13.12.533,vts_reward_expectancy_bt,2022.2.4,MacIntel,60.0024001,Chrome,1440,900,,,,,10,1314,,,,,,,,,,,,,,,,,167,U,hexagon,1,0,,,,,,,,,,,,,,,,repeat,number,numRpt,f,Hi,,,,,,0.4753,4,,,,,,,,high,21,0,21,0,1,,,,,,,,,
297139,2022-11-27_14h13.12.533,vts_reward_expectancy_bt,2022.2.4,MacIntel,60.0024001,Chrome,1440,900,,,,,1,1315,,,,,,,,,,,,,,,,,181,Y,star,1,0,,,,,,,,,,,,,,,,switch,letter,lettSwt,k,Lo,,,,,,0.4581,4,,,,,,,,high,22,0,22,0,1,,,,,,,,,
297139,2022-11-27_14h13.12.533,vts_reward_expectancy_bt,2022.2.4,MacIntel,60.0024001,Chrome,1440,900,,,,,0,1315,,,,,,,,,,,,,,,,,160,S,circle,0,0,,,,,,,,,,,,,,,,repeat,letter,NA,j,Lo,,,,,,0.3912,4,,,,,,,,high,23,0,23,0,1,,,,,,,,,
297139,2022-11-27_14h13.12.533,vts_reward_expectancy_bt,2022.2.4,MacIntel,60.0024001,Chrome,1440,900,,,,,0,1315,,,,,,,,,,,,,,,,,132,H,hexagon,0,1,,,,,,,,,,,,,,,,repeat,letter,NA,k,Lo,,,,,,0.4244,4,,,,,,,,high,24,0,24,0,1,,,,,,,,,
297139,2022-11-27_14h13.12.533,vts_reward_expectancy_bt,2022.2.4,MacIntel,60.0024001,Chrome,1440,900,,,,,1,1316,,,,,,,,,,,,,,,,,167,Y,triangle,1,1,,,,,,,,,,,,,,,,repeat,letter,lettRpt,k,Lo,,,,,,0.5426,4,,,,,,,,high,25,0,25,0,1,,,,,,,,,
297139,2022-11-27_14h13.12.533,vts_reward_expectancy_bt,2022.2.4,MacIntel,60.0024001,Chrome,1440,900,,,,,0,1316,,,,,,,,,,,,,,,,,174,D,circle,1,0,,,,,,,,,,,,,,,,repeat,letter,lettRpt,j,Hi,,,,,,0.5081,4,,,,,,,,high,26,0,26,0,1,,,,,,,,,
297139,2022-11-27_14h13.12.533,vts_reward_expectancy_bt,2022.2.4,MacIntel,60.0024001,Chrome,1440,900,,,,,1,1317,,,,,,,,,,,,,,,,,146,B,star,1,0,,,,,,,,,,,,,,,,repeat,letter,lettRpt,j,Lo,,,,,,0.4468,4,,,,,,,,high,27,0,27,0,1,,,,,,,,,
297139,2022-11-27_14h13.12.533,vts_reward_expectancy_bt,2022.2.4,MacIntel,60.0024001,Chrome,1440,900,,,,,0,1317,,,,,,,,,,,,,,,,,181,F,hexagon,0,0,,,,,,,,,,,,,,,,repeat,letter,NA,k,Lo,,,,,,0.3914,4,,,,,,,,high,28,0,28,0,1,,,,,,,,,
297139,2022-11-27_14h13.12.533,vts_reward_expectancy_bt,2022.2.4,MacIntel,60.0024001,Chrome,1440,900,,,,,1,1318,,,,,,,,,,,,,,,,,125,U,triangle,1,1,,,,,,,,,,,,,,,,switch,number,numSwt,d,Lo,,,,,,0.5481,4,,,,,,,,high,29,0,29,0,1,,,,,,,,,
297139,2022-11-27_14h13.12.533,vts_reward_expectancy_bt,2022.2.4,MacIntel,60.0024001,Chrome,1440,900,,,,,0,1318,,,,,,,,,,,,,,,,,160,S,circle,0,0,,,,,,,,,,,,,,,,repeat,number,NA,d,Lo,,,,,,0.4813,4,,,,,,,,high,30,0,30,0,1,,,,,,,,,
297139,2022-11-27_14h13.12.533,vts_reward_expectancy_bt,2022.2.4,MacIntel,60.0024001,Chrome,1440,900,,,,,1,1319,,,,,,,,,,,,,,,,,139,W,star,1,1,,,,,,,,,,,,,,,,repeat,number,numRpt,d,Lo,,,,,,0.5754,4,,,,,,,,high,31,0,31,0,1,,,,,,,,,
297139,2022-11-27_14h13.12.533,vts_reward_expectancy_bt,2022.2.4,MacIntel,60.0024001,Chrome,1440,900,,,,,0,1319,,,,,,,,,,,,,,,,,181,Y,star,0,0,,,,,,,,,,,,,,,,repeat,number,NA,d,Lo,,,,,,0.0158,5,,,,,,space,0.7673,high,0,0,0,0,1,,,,,,,,,
297139,2022-11-27_14h13.12.533,vts_reward_expectancy_bt,2022.2.4,MacIntel,60.0024001,Chrome,1440,900,,,,,1,1320,,,,,,,,,,,,,,,,,174,B,triangle,1,1,,,,,,,,,,,,,,,,switch,letter,lettSwt,j,Lo,,,,,,0.508,5,,,,,,,,high,1,0,1,0,1,,,,,,,,,
297139,2022-11-27_14h13.12.533,vts_reward_expectancy_bt,2022.2.4,MacIntel,60.0024001,Chrome,1440,900,,,,,0,1320,,,,,,,,,,,,,,,,,167,H,hexagon,0,0,,,,,,,,,,,,,,,,repeat,letter,NA,k,Lo,,,,,,0.3629,5,,,,,,,,high,2,0,2,0,1,,,,,,,,,
297139,2022-11-27_14h13.12.533,vts_reward_expectancy_bt,2022.2.4,MacIntel,60.0024001,Chrome,1440,900,,,,,0,1320,,,,,,,,,,,,,,,,,132,F,circle,1,1,,,,,,,,,,,,,,,,repeat,letter,lettRpt,j,Hi,,,,,,0.4779,5,,,,,,,,high,3,0,3,0,1,,,,,,,,,
297139,2022-11-27_14h13.12.533,vts_reward_expectancy_bt,2022.2.4,MacIntel,60.0024001,Chrome,1440,900,,,,,0,1320,,,,,,,,,,,,,,,,,139,S,star,0,0,,,,,,,,,,,,,,,,switch,number,NA,f,Hi,,,,,,0.3744,5,,,,,,,,high,4,0,4,0,1,,,,,,,,,
297139,2022-11-27_14h13.12.533,vts_reward_expectancy_bt,2022.2.4,MacIntel,60.0024001,Chrome,1440,900,,,,,1,1321,,,,,,,,,,,,,,,,,146,W,triangle,1,1,,,,,,,,,,,,,,,,repeat,number,numRpt,d,Lo,,,,,,0.6398,5,,,,,,,,high,5,0,5,0,1,,,,,,,,,
297139,2022-11-27_14h13.12.533,vts_reward_expectancy_bt,2022.2.4,MacIntel,60.0024001,Chrome,1440,900,,,,,10,1331,,,,,,,,,,,,,,,,,160,U,hexagon,1,0,,,,,,,,,,,,,,,,repeat,number,numRpt,f,Hi,,,,,,0.4317,5,,,,,,,,high,6,0,6,0,1,,,,,,,,,
297139,2022-11-27_14h13.12.533,vts_reward_expectancy_bt,2022.2.4,MacIntel,60.0024001,Chrome,1440,900,,,,,10,1341,,,,,,,,,,,,,,,,,125,D,circle,1,0,,,,,,,,,,,,,,,,repeat,number,numRpt,d,Hi,,,,,,0.3626,5,,,,,,,,high,7,0,7,0,1,,,,,,,,,
297139,2022-11-27_14h13.12.533,vts_reward_expectancy_bt,2022.2.4,MacIntel,60.0024001,Chrome,1440,900,,,,,0,1341,,,,,,,,,,,,,,,,,181,Y,circle,1,0,,,,,,,,,,,,,,,,switch,letter,lettSwt,k,Hi,,,,,,0.5,5,,,,,,,,high,8,0,8,0,1,,,,,,,,,
297139,2022-11-27_14h13.12.533,vts_reward_expectancy_bt,2022.2.4,MacIntel,60.0024001,Chrome,1440,900,,,,,1,1342,,,,,,,,,,,,,,,,,174,B,star,1,0,,,,,,,,,,,,,,,,repeat,letter,lettRpt,j,Lo,,,,,,0.5244,5,,,,,,,,high,9,0,9,0,1,,,,,,,,,
297139,2022-11-27_14h13.12.533,vts_reward_expectancy_bt,2022.2.4,MacIntel,60.0024001,Chrome,1440,900,,,,,10,1352,,,,,,,,,,,,,,,,,167,H,triangle,1,0,,,,,,,,,,,,,,,,repeat,letter,lettRpt,j,Lo,,,,,,0.5436,5,,,,,,,,high,10,0,10,0,1,,,,,,,,,
297139,2022-11-27_14h13.12.533,vts_reward_expectancy_bt,2022.2.4,MacIntel,60.0024001,Chrome,1440,900,,,,,0,1352,,,,,,,,,,,,,,,,,132,F,hexagon,0,0,,,,,,,,,,,,,,,,repeat,letter,NA,k,Lo,,,,,,0.3811,5,,,,,,,,high,11,0,11,0,1,,,,,,,,,
