participant,date,expName,psychopyVersion,OS,frameRate,browser,xResolution,yResolution,key_resp.keys,key_resp.rt,training_resp.keys,training_resp.rt,points_trial,points_cumul,trainBlock,training.thisRepN,training.thisTrialN,training.thisN,training.thisIndex,training.ran,LTriangleOpac,LCircleOpac,LHexagonOpac,LStarOpac,RTriangleOpac,RCircleOpac,RHexagonOpac,RStarOpac,LShape_ID,RShape_ID,curr_topStim,curr_bottStim,curr_shape,acc,E1,target_resp_prac1.keys,pracBlock,task1_prac_trials.thisRepN,task1_prac_trials.thisTrialN,task1_prac_trials.thisN,task1_prac_trials.thisIndex,task1_prac_trials.ran,target_resp_prac1.rt,target_resp_prac2.keys,target_resp_prac2.rt,task2_praac_trials.thisRepN,task2_praac_trials.thisTrialN,task2_praac_trials.thisN,task2_praac_trials.thisIndex,task2_praac_trials.ran,alt,task,condition,target_resp.keys,target_resp.rt,rewCond,vts_practice_trials.thisRepN,vts_practice_trials.thisTrialN,vts_practice_trials.thisN,vts_practice_trials.thisIndex,vts_practice_trials.ran,blockNum,trials_norew.thisRepN,trials_norew.thisTrialN,trials_norew.thisN,trials_norew.thisIndex,trials_norew.ran,key_resp_2.keys,key_resp_2.rt,rewExpectancy,trials_rew.thisRepN,trials_rew.thisTrialN,trials_rew.thisN,trials_rew.thisIndex,trials_rew.ran,Q1,Q2,Q2_text,Q3,Q4,Q5_text,Q5,xRes,yRes
297118,2022-11-14_14h43.16.630,vts_reward_expectancy_bt,2022.2.4,Win32,120.9774982,Chrome,1600,1067,,,,,,,,,,,,,,,,,,,,,,,,,,,,,,,,,,,,,,,,,,,,,,,,,,,,,,,,,,,,,,,,,,,,,,,,,,,,
297118,2022-11-14_14h43.16.630,vts_reward_expectancy_bt,2022.2.4,Win32,120.9774982,Chrome,1600,1067,space,12.0989,,,,,,,,,,,,,,,,,,,,,,,,,,,,,,,,,,,,,,,,,,,,,,,,,,,,,,,,,,,,,,,,,,,,,,,,,,
297118,2022-11-14_14h43.16.630,vts_reward_expectancy_bt,2022.2.4,Win32,120.9774982,Chrome,1600,1067,,,,,,,,,,,,,,,,,,,,,,,,,,,,,,,,,,,,,,,,,,,,,,,,,,,,,,,,,,,,,,,,,,,,,,,,,,,,
297118,2022-11-14_14h43.16.630,vts_reward_expectancy_bt,2022.2.4,Win32,120.9774982,Chrome,1600,1067,,,l,1.6342,1,1,0,0,0,0,0,1,1,0,0,0,0,1,0,0,triangle,circle,,,,,,,,,,,,,,,,,,,,,,,,,,,,,,,,,,,,,,,,,,,,,,,,,,,,,,
297118,2022-11-14_14h43.16.630,vts_reward_expectancy_bt,2022.2.4,Win32,120.9774982,Chrome,1600,1067,,,l,2.701,10,11,0,0,1,1,5,1,0,1,0,0,0,0,0,1,circle,star,,,,,,,,,,,,,,,,,,,,,,,,,,,,,,,,,,,,,,,,,,,,,,,,,,,,,,
297118,2022-11-14_14h43.16.630,vts_reward_expectancy_bt,2022.2.4,Win32,120.9774982,Chrome,1600,1067,,,l,0.977,10,21,0,0,2,2,4,1,0,1,0,0,0,0,1,0,circle,hexagon,,,,,,,,,,,,,,,,,,,,,,,,,,,,,,,,,,,,,,,,,,,,,,,,,,,,,,
297118,2022-11-14_14h43.16.630,vts_reward_expectancy_bt,2022.2.4,Win32,120.9774982,Chrome,1600,1067,,,a,2.0386,10,31,0,0,3,3,6,1,0,0,1,0,1,0,0,0,hexagon,triangle,,,,,,,,,,,,,,,,,,,,,,,,,,,,,,,,,,,,,,,,,,,,,,,,,,,,,,
297118,2022-11-14_14h43.16.630,vts_reward_expectancy_bt,2022.2.4,Win32,120.9774982,Chrome,1600,1067,,,a,1.6251,10,41,0,0,4,4,10,1,0,0,0,1,0,1,0,0,star ,circle,,,,,,,,,,,,,,,,,,,,,,,,,,,,,,,,,,,,,,,,,,,,,,,,,,,,,,
297118,2022-11-14_14h43.16.630,vts_reward_expectancy_bt,2022.2.4,Win32,120.9774982,Chrome,1600,1067,,,a,1.1297,10,51,0,0,5,5,9,1,0,0,0,1,1,0,0,0,star,triangle,,,,,,,,,,,,,,,,,,,,,,,,,,,,,,,,,,,,,,,,,,,,,,,,,,,,,,
297118,2022-11-14_14h43.16.630,vts_reward_expectancy_bt,2022.2.4,Win32,120.9774982,Chrome,1600,1067,,,l,1.275,1,52,0,0,6,6,3,1,0,1,0,0,1,0,0,0,circle,triangle,,,,,,,,,,,,,,,,,,,,,,,,,,,,,,,,,,,,,,,,,,,,,,,,,,,,,,
297118,2022-11-14_14h43.16.630,vts_reward_expectancy_bt,2022.2.4,Win32,120.9774982,Chrome,1600,1067,,,a,0.7993,1,53,0,0,7,7,7,1,0,0,1,0,0,1,0,0,hexagon,circle,,,,,,,,,,,,,,,,,,,,,,,,,,,,,,,,,,,,,,,,,,,,,,,,,,,,,,
297118,2022-11-14_14h43.16.630,vts_reward_expectancy_bt,2022.2.4,Win32,120.9774982,Chrome,1600,1067,,,l,0.8535,10,63,0,0,8,8,1,1,1,0,0,0,0,0,1,0,triangle,hexagon,,,,,,,,,,,,,,,,,,,,,,,,,,,,,,,,,,,,,,,,,,,,,,,,,,,,,,
297118,2022-11-14_14h43.16.630,vts_reward_expectancy_bt,2022.2.4,Win32,120.9774982,Chrome,1600,1067,,,a,1.192,1,64,0,0,9,9,11,1,0,0,0,1,0,0,1,0,star,hexagon,,,,,,,,,,,,,,,,,,,,,,,,,,,,,,,,,,,,,,,,,,,,,,,,,,,,,,
297118,2022-11-14_14h43.16.630,vts_reward_expectancy_bt,2022.2.4,Win32,120.9774982,Chrome,1600,1067,,,a,1.0062,1,65,0,0,10,10,8,1,0,0,1,0,0,0,0,1,hexagon,star,,,,,,,,,,,,,,,,,,,,,,,,,,,,,,,,,,,,,,,,,,,,,,,,,,,,,,
297118,2022-11-14_14h43.16.630,vts_reward_expectancy_bt,2022.2.4,Win32,120.9774982,Chrome,1600,1067,,,l,0.7013,10,75,0,0,11,11,2,1,1,0,0,0,0,0,0,1,triangle,star,,,,,,,,,,,,,,,,,,,,,,,,,,,,,,,,,,,,,,,,,,,,,,,,,,,,,,
297118,2022-11-14_14h43.16.630,vts_reward_expectancy_bt,2022.2.4,Win32,120.9774982,Chrome,1600,1067,,,a,1.0628,1,76,0,1,0,12,7,1,0,0,1,0,0,1,0,0,hexagon,circle,,,,,,,,,,,,,,,,,,,,,,,,,,,,,,,,,,,,,,,,,,,,,,,,,,,,,,
297118,2022-11-14_14h43.16.630,vts_reward_expectancy_bt,2022.2.4,Win32,120.9774982,Chrome,1600,1067,,,l,1.1177,1,77,0,1,1,13,2,1,1,0,0,0,0,0,0,1,triangle,star,,,,,,,,,,,,,,,,,,,,,,,,,,,,,,,,,,,,,,,,,,,,,,,,,,,,,,
297118,2022-11-14_14h43.16.630,vts_reward_expectancy_bt,2022.2.4,Win32,120.9774982,Chrome,1600,1067,,,a,1.4945,1,78,0,1,2,14,6,1,0,0,1,0,1,0,0,0,hexagon,triangle,,,,,,,,,,,,,,,,,,,,,,,,,,,,,,,,,,,,,,,,,,,,,,,,,,,,,,
297118,2022-11-14_14h43.16.630,vts_reward_expectancy_bt,2022.2.4,Win32,120.9774982,Chrome,1600,1067,,,l,0.7098,1,79,0,1,3,15,11,1,0,0,0,1,0,0,1,0,star,hexagon,,,,,,,,,,,,,,,,,,,,,,,,,,,,,,,,,,,,,,,,,,,,,,,,,,,,,,
297118,2022-11-14_14h43.16.630,vts_reward_expectancy_bt,2022.2.4,Win32,120.9774982,Chrome,1600,1067,,,a,0.6369,1,80,0,1,4,16,5,1,0,1,0,0,0,0,0,1,circle,star,,,,,,,,,,,,,,,,,,,,,,,,,,,,,,,,,,,,,,,,,,,,,,,,,,,,,,
297118,2022-11-14_14h43.16.630,vts_reward_expectancy_bt,2022.2.4,Win32,120.9774982,Chrome,1600,1067,,,l,0.6338,10,90,0,1,5,17,3,1,0,1,0,0,1,0,0,0,circle,triangle,,,,,,,,,,,,,,,,,,,,,,,,,,,,,,,,,,,,,,,,,,,,,,,,,,,,,,
297118,2022-11-14_14h43.16.630,vts_reward_expectancy_bt,2022.2.4,Win32,120.9774982,Chrome,1600,1067,,,l,0.8411,1,91,0,1,6,18,8,1,0,0,1,0,0,0,0,1,hexagon,star,,,,,,,,,,,,,,,,,,,,,,,,,,,,,,,,,,,,,,,,,,,,,,,,,,,,,,
297118,2022-11-14_14h43.16.630,vts_reward_expectancy_bt,2022.2.4,Win32,120.9774982,Chrome,1600,1067,,,l,0.5797,10,101,0,1,7,19,1,1,1,0,0,0,0,0,1,0,triangle,hexagon,,,,,,,,,,,,,,,,,,,,,,,,,,,,,,,,,,,,,,,,,,,,,,,,,,,,,,
297118,2022-11-14_14h43.16.630,vts_reward_expectancy_bt,2022.2.4,Win32,120.9774982,Chrome,1600,1067,,,l,1.2479,1,102,0,1,8,20,9,1,0,0,0,1,1,0,0,0,star,triangle,,,,,,,,,,,,,,,,,,,,,,,,,,,,,,,,,,,,,,,,,,,,,,,,,,,,,,
297118,2022-11-14_14h43.16.630,vts_reward_expectancy_bt,2022.2.4,Win32,120.9774982,Chrome,1600,1067,,,a,0.9573,1,103,0,1,9,21,10,1,0,0,0,1,0,1,0,0,star ,circle,,,,,,,,,,,,,,,,,,,,,,,,,,,,,,,,,,,,,,,,,,,,,,,,,,,,,,
297118,2022-11-14_14h43.16.630,vts_reward_expectancy_bt,2022.2.4,Win32,120.9774982,Chrome,1600,1067,,,l,0.6929,10,113,0,1,10,22,0,1,1,0,0,0,0,1,0,0,triangle,circle,,,,,,,,,,,,,,,,,,,,,,,,,,,,,,,,,,,,,,,,,,,,,,,,,,,,,,
297118,2022-11-14_14h43.16.630,vts_reward_expectancy_bt,2022.2.4,Win32,120.9774982,Chrome,1600,1067,,,l,0.5014,10,123,0,1,11,23,4,1,0,1,0,0,0,0,1,0,circle,hexagon,,,,,,,,,,,,,,,,,,,,,,,,,,,,,,,,,,,,,,,,,,,,,,,,,,,,,,
297118,2022-11-14_14h43.16.630,vts_reward_expectancy_bt,2022.2.4,Win32,120.9774982,Chrome,1600,1067,,,l,0.4433,1,124,0,2,0,24,2,1,1,0,0,0,0,0,0,1,triangle,star,,,,,,,,,,,,,,,,,,,,,,,,,,,,,,,,,,,,,,,,,,,,,,,,,,,,,,
297118,2022-11-14_14h43.16.630,vts_reward_expectancy_bt,2022.2.4,Win32,120.9774982,Chrome,1600,1067,,,a,1.1743,1,125,0,2,1,25,9,1,0,0,0,1,1,0,0,0,star,triangle,,,,,,,,,,,,,,,,,,,,,,,,,,,,,,,,,,,,,,,,,,,,,,,,,,,,,,
297118,2022-11-14_14h43.16.630,vts_reward_expectancy_bt,2022.2.4,Win32,120.9774982,Chrome,1600,1067,,,l,0.4496,1,126,0,2,2,26,10,1,0,0,0,1,0,1,0,0,star ,circle,,,,,,,,,,,,,,,,,,,,,,,,,,,,,,,,,,,,,,,,,,,,,,,,,,,,,,
297118,2022-11-14_14h43.16.630,vts_reward_expectancy_bt,2022.2.4,Win32,120.9774982,Chrome,1600,1067,,,a,2.5357,1,127,0,2,3,27,5,1,0,1,0,0,0,0,0,1,circle,star,,,,,,,,,,,,,,,,,,,,,,,,,,,,,,,,,,,,,,,,,,,,,,,,,,,,,,
297118,2022-11-14_14h43.16.630,vts_reward_expectancy_bt,2022.2.4,Win32,120.9774982,Chrome,1600,1067,,,l,1.0824,1,128,0,2,4,28,1,1,1,0,0,0,0,0,1,0,triangle,hexagon,,,,,,,,,,,,,,,,,,,,,,,,,,,,,,,,,,,,,,,,,,,,,,,,,,,,,,
297118,2022-11-14_14h43.16.630,vts_reward_expectancy_bt,2022.2.4,Win32,120.9774982,Chrome,1600,1067,,,a,0.747,10,138,0,2,5,29,0,1,1,0,0,0,0,1,0,0,triangle,circle,,,,,,,,,,,,,,,,,,,,,,,,,,,,,,,,,,,,,,,,,,,,,,,,,,,,,,
297118,2022-11-14_14h43.16.630,vts_reward_expectancy_bt,2022.2.4,Win32,120.9774982,Chrome,1600,1067,,,l,0.5339,1,139,0,2,6,30,6,1,0,0,1,0,1,0,0,0,hexagon,triangle,,,,,,,,,,,,,,,,,,,,,,,,,,,,,,,,,,,,,,,,,,,,,,,,,,,,,,
297118,2022-11-14_14h43.16.630,vts_reward_expectancy_bt,2022.2.4,Win32,120.9774982,Chrome,1600,1067,,,a,0.6329,10,149,0,2,7,31,7,1,0,0,1,0,0,1,0,0,hexagon,circle,,,,,,,,,,,,,,,,,,,,,,,,,,,,,,,,,,,,,,,,,,,,,,,,,,,,,,
297118,2022-11-14_14h43.16.630,vts_reward_expectancy_bt,2022.2.4,Win32,120.9774982,Chrome,1600,1067,,,a,0.6546,10,159,0,2,8,32,11,1,0,0,0,1,0,0,1,0,star,hexagon,,,,,,,,,,,,,,,,,,,,,,,,,,,,,,,,,,,,,,,,,,,,,,,,,,,,,,
297118,2022-11-14_14h43.16.630,vts_reward_expectancy_bt,2022.2.4,Win32,120.9774982,Chrome,1600,1067,,,l,0.0756,10,169,0,2,9,33,4,1,0,1,0,0,0,0,1,0,circle,hexagon,,,,,,,,,,,,,,,,,,,,,,,,,,,,,,,,,,,,,,,,,,,,,,,,,,,,,,
297118,2022-11-14_14h43.16.630,vts_reward_expectancy_bt,2022.2.4,Win32,120.9774982,Chrome,1600,1067,,,a,0.2181,1,170,0,2,10,34,3,1,0,1,0,0,1,0,0,0,circle,triangle,,,,,,,,,,,,,,,,,,,,,,,,,,,,,,,,,,,,,,,,,,,,,,,,,,,,,,
297118,2022-11-14_14h43.16.630,vts_reward_expectancy_bt,2022.2.4,Win32,120.9774982,Chrome,1600,1067,,,l,0.5201,1,171,0,2,11,35,8,1,0,0,1,0,0,0,0,1,hexagon,star,,,,,,,,,,,,,,,,,,,,,,,,,,,,,,,,,,,,,,,,,,,,,,,,,,,,,,
297118,2022-11-14_14h43.16.630,vts_reward_expectancy_bt,2022.2.4,Win32,120.9774982,Chrome,1600,1067,,,l,1.9436,1,172,1,0,0,0,5,1,0,1,0,0,0,0,0,1,circle,star,,,,,,,,,,,,,,,,,,,,,,,,,,,,,,,,,,,,,,,,,,,,,,,,,,,,,,
297118,2022-11-14_14h43.16.630,vts_reward_expectancy_bt,2022.2.4,Win32,120.9774982,Chrome,1600,1067,,,a,1.7085,1,173,1,0,1,1,10,1,0,0,0,1,0,1,0,0,star ,circle,,,,,,,,,,,,,,,,,,,,,,,,,,,,,,,,,,,,,,,,,,,,,,,,,,,,,,
297118,2022-11-14_14h43.16.630,vts_reward_expectancy_bt,2022.2.4,Win32,120.9774982,Chrome,1600,1067,,,l,1.7596,1,174,1,0,2,2,4,1,0,1,0,0,0,0,1,0,circle,hexagon,,,,,,,,,,,,,,,,,,,,,,,,,,,,,,,,,,,,,,,,,,,,,,,,,,,,,,
297118,2022-11-14_14h43.16.630,vts_reward_expectancy_bt,2022.2.4,Win32,120.9774982,Chrome,1600,1067,,,a,0.5315,10,184,1,0,3,3,2,1,1,0,0,0,0,0,0,1,triangle,star,,,,,,,,,,,,,,,,,,,,,,,,,,,,,,,,,,,,,,,,,,,,,,,,,,,,,,
297118,2022-11-14_14h43.16.630,vts_reward_expectancy_bt,2022.2.4,Win32,120.9774982,Chrome,1600,1067,,,l,0.8608,1,185,1,0,4,4,11,1,0,0,0,1,0,0,1,0,star,hexagon,,,,,,,,,,,,,,,,,,,,,,,,,,,,,,,,,,,,,,,,,,,,,,,,,,,,,,
297118,2022-11-14_14h43.16.630,vts_reward_expectancy_bt,2022.2.4,Win32,120.9774982,Chrome,1600,1067,,,a,1.404,10,195,1,0,5,5,9,1,0,0,0,1,1,0,0,0,star,triangle,,,,,,,,,,,,,,,,,,,,,,,,,,,,,,,,,,,,,,,,,,,,,,,,,,,,,,
297118,2022-11-14_14h43.16.630,vts_reward_expectancy_bt,2022.2.4,Win32,120.9774982,Chrome,1600,1067,,,l,2.3072,10,205,1,0,6,6,8,1,0,0,1,0,0,0,0,1,hexagon,star,,,,,,,,,,,,,,,,,,,,,,,,,,,,,,,,,,,,,,,,,,,,,,,,,,,,,,
297118,2022-11-14_14h43.16.630,vts_reward_expectancy_bt,2022.2.4,Win32,120.9774982,Chrome,1600,1067,,,a,0.7718,1,206,1,0,7,7,3,1,0,1,0,0,1,0,0,0,circle,triangle,,,,,,,,,,,,,,,,,,,,,,,,,,,,,,,,,,,,,,,,,,,,,,,,,,,,,,
297118,2022-11-14_14h43.16.630,vts_reward_expectancy_bt,2022.2.4,Win32,120.9774982,Chrome,1600,1067,,,l,0.2847,10,216,1,0,8,8,6,1,0,0,1,0,1,0,0,0,hexagon,triangle,,,,,,,,,,,,,,,,,,,,,,,,,,,,,,,,,,,,,,,,,,,,,,,,,,,,,,
297118,2022-11-14_14h43.16.630,vts_reward_expectancy_bt,2022.2.4,Win32,120.9774982,Chrome,1600,1067,,,l,0.7984,1,217,1,0,9,9,7,1,0,0,1,0,0,1,0,0,hexagon,circle,,,,,,,,,,,,,,,,,,,,,,,,,,,,,,,,,,,,,,,,,,,,,,,,,,,,,,
297118,2022-11-14_14h43.16.630,vts_reward_expectancy_bt,2022.2.4,Win32,120.9774982,Chrome,1600,1067,,,a,0.2393,1,218,1,0,10,10,1,1,1,0,0,0,0,0,1,0,triangle,hexagon,,,,,,,,,,,,,,,,,,,,,,,,,,,,,,,,,,,,,,,,,,,,,,,,,,,,,,
297118,2022-11-14_14h43.16.630,vts_reward_expectancy_bt,2022.2.4,Win32,120.9774982,Chrome,1600,1067,,,a,0.9425,1,219,1,0,11,11,0,1,1,0,0,0,0,1,0,0,triangle,circle,,,,,,,,,,,,,,,,,,,,,,,,,,,,,,,,,,,,,,,,,,,,,,,,,,,,,,
297118,2022-11-14_14h43.16.630,vts_reward_expectancy_bt,2022.2.4,Win32,120.9774982,Chrome,1600,1067,,,l,1.4981,1,220,1,1,0,12,11,1,0,0,0,1,0,0,1,0,star,hexagon,,,,,,,,,,,,,,,,,,,,,,,,,,,,,,,,,,,,,,,,,,,,,,,,,,,,,,
297118,2022-11-14_14h43.16.630,vts_reward_expectancy_bt,2022.2.4,Win32,120.9774982,Chrome,1600,1067,,,l,0.713,1,221,1,1,1,13,8,1,0,0,1,0,0,0,0,1,hexagon,star,,,,,,,,,,,,,,,,,,,,,,,,,,,,,,,,,,,,,,,,,,,,,,,,,,,,,,
297118,2022-11-14_14h43.16.630,vts_reward_expectancy_bt,2022.2.4,Win32,120.9774982,Chrome,1600,1067,,,l,0.9906,10,231,1,1,2,14,0,1,1,0,0,0,0,1,0,0,triangle,circle,,,,,,,,,,,,,,,,,,,,,,,,,,,,,,,,,,,,,,,,,,,,,,,,,,,,,,
297118,2022-11-14_14h43.16.630,vts_reward_expectancy_bt,2022.2.4,Win32,120.9774982,Chrome,1600,1067,,,l,0.8053,1,232,1,1,3,15,2,1,1,0,0,0,0,0,0,1,triangle,star,,,,,,,,,,,,,,,,,,,,,,,,,,,,,,,,,,,,,,,,,,,,,,,,,,,,,,
297118,2022-11-14_14h43.16.630,vts_reward_expectancy_bt,2022.2.4,Win32,120.9774982,Chrome,1600,1067,,,l,2.997,1,233,1,1,4,16,3,1,0,1,0,0,1,0,0,0,circle,triangle,,,,,,,,,,,,,,,,,,,,,,,,,,,,,,,,,,,,,,,,,,,,,,,,,,,,,,
297118,2022-11-14_14h43.16.630,vts_reward_expectancy_bt,2022.2.4,Win32,120.9774982,Chrome,1600,1067,,,l,1.4552,1,234,1,1,5,17,6,1,0,0,1,0,1,0,0,0,hexagon,triangle,,,,,,,,,,,,,,,,,,,,,,,,,,,,,,,,,,,,,,,,,,,,,,,,,,,,,,
297118,2022-11-14_14h43.16.630,vts_reward_expectancy_bt,2022.2.4,Win32,120.9774982,Chrome,1600,1067,,,l,1.8261,10,244,1,1,6,18,1,1,1,0,0,0,0,0,1,0,triangle,hexagon,,,,,,,,,,,,,,,,,,,,,,,,,,,,,,,,,,,,,,,,,,,,,,,,,,,,,,
297118,2022-11-14_14h43.16.630,vts_reward_expectancy_bt,2022.2.4,Win32,120.9774982,Chrome,1600,1067,,,a,16.1473,10,254,1,1,7,19,5,1,0,1,0,0,0,0,0,1,circle,star,,,,,,,,,,,,,,,,,,,,,,,,,,,,,,,,,,,,,,,,,,,,,,,,,,,,,,
297118,2022-11-14_14h43.16.630,vts_reward_expectancy_bt,2022.2.4,Win32,120.9774982,Chrome,1600,1067,,,l,1.3051,1,255,1,1,8,20,7,1,0,0,1,0,0,1,0,0,hexagon,circle,,,,,,,,,,,,,,,,,,,,,,,,,,,,,,,,,,,,,,,,,,,,,,,,,,,,,,
297118,2022-11-14_14h43.16.630,vts_reward_expectancy_bt,2022.2.4,Win32,120.9774982,Chrome,1600,1067,,,l,2.3356,10,265,1,1,9,21,9,1,0,0,0,1,1,0,0,0,star,triangle,,,,,,,,,,,,,,,,,,,,,,,,,,,,,,,,,,,,,,,,,,,,,,,,,,,,,,
297118,2022-11-14_14h43.16.630,vts_reward_expectancy_bt,2022.2.4,Win32,120.9774982,Chrome,1600,1067,,,l,1.0839,10,275,1,1,10,22,4,1,0,1,0,0,0,0,1,0,circle,hexagon,,,,,,,,,,,,,,,,,,,,,,,,,,,,,,,,,,,,,,,,,,,,,,,,,,,,,,
297118,2022-11-14_14h43.16.630,vts_reward_expectancy_bt,2022.2.4,Win32,120.9774982,Chrome,1600,1067,,,l,0.7308,10,285,1,1,11,23,10,1,0,0,0,1,0,1,0,0,star ,circle,,,,,,,,,,,,,,,,,,,,,,,,,,,,,,,,,,,,,,,,,,,,,,,,,,,,,,
297118,2022-11-14_14h43.16.630,vts_reward_expectancy_bt,2022.2.4,Win32,120.9774982,Chrome,1600,1067,,,l,0.4749,1,286,1,2,0,24,10,1,0,0,0,1,0,1,0,0,star ,circle,,,,,,,,,,,,,,,,,,,,,,,,,,,,,,,,,,,,,,,,,,,,,,,,,,,,,,
297118,2022-11-14_14h43.16.630,vts_reward_expectancy_bt,2022.2.4,Win32,120.9774982,Chrome,1600,1067,,,l,0.2889,1,287,1,2,1,25,5,1,0,1,0,0,0,0,0,1,circle,star,,,,,,,,,,,,,,,,,,,,,,,,,,,,,,,,,,,,,,,,,,,,,,,,,,,,,,
297118,2022-11-14_14h43.16.630,vts_reward_expectancy_bt,2022.2.4,Win32,120.9774982,Chrome,1600,1067,,,a,0.5756,1,288,1,2,2,26,2,1,1,0,0,0,0,0,0,1,triangle,star,,,,,,,,,,,,,,,,,,,,,,,,,,,,,,,,,,,,,,,,,,,,,,,,,,,,,,
297118,2022-11-14_14h43.16.630,vts_reward_expectancy_bt,2022.2.4,Win32,120.9774982,Chrome,1600,1067,,,l,0.3028,1,289,1,2,3,27,1,1,1,0,0,0,0,0,1,0,triangle,hexagon,,,,,,,,,,,,,,,,,,,,,,,,,,,,,,,,,,,,,,,,,,,,,,,,,,,,,,
297118,2022-11-14_14h43.16.630,vts_reward_expectancy_bt,2022.2.4,Win32,120.9774982,Chrome,1600,1067,,,l,0.035,10,299,1,2,4,28,8,1,0,0,1,0,0,0,0,1,hexagon,star,,,,,,,,,,,,,,,,,,,,,,,,,,,,,,,,,,,,,,,,,,,,,,,,,,,,,,
297118,2022-11-14_14h43.16.630,vts_reward_expectancy_bt,2022.2.4,Win32,120.9774982,Chrome,1600,1067,,,l,0.527,10,309,1,2,5,29,6,1,0,0,1,0,1,0,0,0,hexagon,triangle,,,,,,,,,,,,,,,,,,,,,,,,,,,,,,,,,,,,,,,,,,,,,,,,,,,,,,
297118,2022-11-14_14h43.16.630,vts_reward_expectancy_bt,2022.2.4,Win32,120.9774982,Chrome,1600,1067,,,a,0.4244,1,310,1,2,6,30,7,1,0,0,1,0,0,1,0,0,hexagon,circle,,,,,,,,,,,,,,,,,,,,,,,,,,,,,,,,,,,,,,,,,,,,,,,,,,,,,,
297118,2022-11-14_14h43.16.630,vts_reward_expectancy_bt,2022.2.4,Win32,120.9774982,Chrome,1600,1067,,,l,0.1511,10,320,1,2,7,31,3,1,0,1,0,0,1,0,0,0,circle,triangle,,,,,,,,,,,,,,,,,,,,,,,,,,,,,,,,,,,,,,,,,,,,,,,,,,,,,,
297118,2022-11-14_14h43.16.630,vts_reward_expectancy_bt,2022.2.4,Win32,120.9774982,Chrome,1600,1067,,,a,0.4763,10,330,1,2,8,32,9,1,0,0,0,1,1,0,0,0,star,triangle,,,,,,,,,,,,,,,,,,,,,,,,,,,,,,,,,,,,,,,,,,,,,,,,,,,,,,
297118,2022-11-14_14h43.16.630,vts_reward_expectancy_bt,2022.2.4,Win32,120.9774982,Chrome,1600,1067,,,a,0.34,10,340,1,2,9,33,0,1,1,0,0,0,0,1,0,0,triangle,circle,,,,,,,,,,,,,,,,,,,,,,,,,,,,,,,,,,,,,,,,,,,,,,,,,,,,,,
297118,2022-11-14_14h43.16.630,vts_reward_expectancy_bt,2022.2.4,Win32,120.9774982,Chrome,1600,1067,,,a,0.6737,1,341,1,2,10,34,4,1,0,1,0,0,0,0,1,0,circle,hexagon,,,,,,,,,,,,,,,,,,,,,,,,,,,,,,,,,,,,,,,,,,,,,,,,,,,,,,
297118,2022-11-14_14h43.16.630,vts_reward_expectancy_bt,2022.2.4,Win32,120.9774982,Chrome,1600,1067,,,l,0.3266,10,351,1,2,11,35,11,1,0,0,0,1,0,0,1,0,star,hexagon,,,,,,,,,,,,,,,,,,,,,,,,,,,,,,,,,,,,,,,,,,,,,,,,,,,,,,
297118,2022-11-14_14h43.16.630,vts_reward_expectancy_bt,2022.2.4,Win32,120.9774982,Chrome,1600,1067,,,l,0.4566,10,361,2,0,0,0,9,1,0,0,0,1,1,0,0,0,star,triangle,,,,,,,,,,,,,,,,,,,,,,,,,,,,,,,,,,,,,,,,,,,,,,,,,,,,,,
297118,2022-11-14_14h43.16.630,vts_reward_expectancy_bt,2022.2.4,Win32,120.9774982,Chrome,1600,1067,,,l,0.2987,1,362,2,0,1,1,10,1,0,0,0,1,0,1,0,0,star ,circle,,,,,,,,,,,,,,,,,,,,,,,,,,,,,,,,,,,,,,,,,,,,,,,,,,,,,,
297118,2022-11-14_14h43.16.630,vts_reward_expectancy_bt,2022.2.4,Win32,120.9774982,Chrome,1600,1067,,,a,0.0425,10,372,2,0,2,2,0,1,1,0,0,0,0,1,0,0,triangle,circle,,,,,,,,,,,,,,,,,,,,,,,,,,,,,,,,,,,,,,,,,,,,,,,,,,,,,,
297118,2022-11-14_14h43.16.630,vts_reward_expectancy_bt,2022.2.4,Win32,120.9774982,Chrome,1600,1067,,,l,0.3909,1,373,2,0,3,3,4,1,0,1,0,0,0,0,1,0,circle,hexagon,,,,,,,,,,,,,,,,,,,,,,,,,,,,,,,,,,,,,,,,,,,,,,,,,,,,,,
297118,2022-11-14_14h43.16.630,vts_reward_expectancy_bt,2022.2.4,Win32,120.9774982,Chrome,1600,1067,,,a,0.103,1,374,2,0,4,4,3,1,0,1,0,0,1,0,0,0,circle,triangle,,,,,,,,,,,,,,,,,,,,,,,,,,,,,,,,,,,,,,,,,,,,,,,,,,,,,,
297118,2022-11-14_14h43.16.630,vts_reward_expectancy_bt,2022.2.4,Win32,120.9774982,Chrome,1600,1067,,,l,0.5172,1,375,2,0,5,5,2,1,1,0,0,0,0,0,0,1,triangle,star,,,,,,,,,,,,,,,,,,,,,,,,,,,,,,,,,,,,,,,,,,,,,,,,,,,,,,
297118,2022-11-14_14h43.16.630,vts_reward_expectancy_bt,2022.2.4,Win32,120.9774982,Chrome,1600,1067,,,a,2.5142,10,385,2,0,6,6,6,1,0,0,1,0,1,0,0,0,hexagon,triangle,,,,,,,,,,,,,,,,,,,,,,,,,,,,,,,,,,,,,,,,,,,,,,,,,,,,,,
297118,2022-11-14_14h43.16.630,vts_reward_expectancy_bt,2022.2.4,Win32,120.9774982,Chrome,1600,1067,,,a,0.4244,10,395,2,0,7,7,11,1,0,0,0,1,0,0,1,0,star,hexagon,,,,,,,,,,,,,,,,,,,,,,,,,,,,,,,,,,,,,,,,,,,,,,,,,,,,,,
297118,2022-11-14_14h43.16.630,vts_reward_expectancy_bt,2022.2.4,Win32,120.9774982,Chrome,1600,1067,,,l,0.2232,10,405,2,0,8,8,1,1,1,0,0,0,0,0,1,0,triangle,hexagon,,,,,,,,,,,,,,,,,,,,,,,,,,,,,,,,,,,,,,,,,,,,,,,,,,,,,,
297118,2022-11-14_14h43.16.630,vts_reward_expectancy_bt,2022.2.4,Win32,120.9774982,Chrome,1600,1067,,,l,0.7833,1,406,2,0,9,9,7,1,0,0,1,0,0,1,0,0,hexagon,circle,,,,,,,,,,,,,,,,,,,,,,,,,,,,,,,,,,,,,,,,,,,,,,,,,,,,,,
297118,2022-11-14_14h43.16.630,vts_reward_expectancy_bt,2022.2.4,Win32,120.9774982,Chrome,1600,1067,,,a,0.1439,1,407,2,0,10,10,8,1,0,0,1,0,0,0,0,1,hexagon,star,,,,,,,,,,,,,,,,,,,,,,,,,,,,,,,,,,,,,,,,,,,,,,,,,,,,,,
297118,2022-11-14_14h43.16.630,vts_reward_expectancy_bt,2022.2.4,Win32,120.9774982,Chrome,1600,1067,,,l,1.66,1,408,2,0,11,11,5,1,0,1,0,0,0,0,0,1,circle,star,,,,,,,,,,,,,,,,,,,,,,,,,,,,,,,,,,,,,,,,,,,,,,,,,,,,,,
297118,2022-11-14_14h43.16.630,vts_reward_expectancy_bt,2022.2.4,Win32,120.9774982,Chrome,1600,1067,,,a,2.4658,1,409,2,1,0,12,5,1,0,1,0,0,0,0,0,1,circle,star,,,,,,,,,,,,,,,,,,,,,,,,,,,,,,,,,,,,,,,,,,,,,,,,,,,,,,
297118,2022-11-14_14h43.16.630,vts_reward_expectancy_bt,2022.2.4,Win32,120.9774982,Chrome,1600,1067,,,l,0.4301,1,410,2,1,1,13,2,1,1,0,0,0,0,0,0,1,triangle,star,,,,,,,,,,,,,,,,,,,,,,,,,,,,,,,,,,,,,,,,,,,,,,,,,,,,,,
297118,2022-11-14_14h43.16.630,vts_reward_expectancy_bt,2022.2.4,Win32,120.9774982,Chrome,1600,1067,,,a,0.6955,1,411,2,1,2,14,8,1,0,0,1,0,0,0,0,1,hexagon,star,,,,,,,,,,,,,,,,,,,,,,,,,,,,,,,,,,,,,,,,,,,,,,,,,,,,,,
297118,2022-11-14_14h43.16.630,vts_reward_expectancy_bt,2022.2.4,Win32,120.9774982,Chrome,1600,1067,,,l,0.5334,1,412,2,1,3,15,6,1,0,0,1,0,1,0,0,0,hexagon,triangle,,,,,,,,,,,,,,,,,,,,,,,,,,,,,,,,,,,,,,,,,,,,,,,,,,,,,,
297118,2022-11-14_14h43.16.630,vts_reward_expectancy_bt,2022.2.4,Win32,120.9774982,Chrome,1600,1067,,,l,0.09,1,413,2,1,4,16,0,1,1,0,0,0,0,1,0,0,triangle,circle,,,,,,,,,,,,,,,,,,,,,,,,,,,,,,,,,,,,,,,,,,,,,,,,,,,,,,
297118,2022-11-14_14h43.16.630,vts_reward_expectancy_bt,2022.2.4,Win32,120.9774982,Chrome,1600,1067,,,a,6.0211,10,423,2,1,5,17,11,1,0,0,0,1,0,0,1,0,star,hexagon,,,,,,,,,,,,,,,,,,,,,,,,,,,,,,,,,,,,,,,,,,,,,,,,,,,,,,
297118,2022-11-14_14h43.16.630,vts_reward_expectancy_bt,2022.2.4,Win32,120.9774982,Chrome,1600,1067,,,a,0.6278,1,424,2,1,6,18,4,1,0,1,0,0,0,0,1,0,circle,hexagon,,,,,,,,,,,,,,,,,,,,,,,,,,,,,,,,,,,,,,,,,,,,,,,,,,,,,,
297118,2022-11-14_14h43.16.630,vts_reward_expectancy_bt,2022.2.4,Win32,120.9774982,Chrome,1600,1067,,,a,0.0451,10,434,2,1,7,19,7,1,0,0,1,0,0,1,0,0,hexagon,circle,,,,,,,,,,,,,,,,,,,,,,,,,,,,,,,,,,,,,,,,,,,,,,,,,,,,,,
297118,2022-11-14_14h43.16.630,vts_reward_expectancy_bt,2022.2.4,Win32,120.9774982,Chrome,1600,1067,,,a,1.8126,10,444,2,1,8,20,10,1,0,0,0,1,0,1,0,0,star ,circle,,,,,,,,,,,,,,,,,,,,,,,,,,,,,,,,,,,,,,,,,,,,,,,,,,,,,,
297118,2022-11-14_14h43.16.630,vts_reward_expectancy_bt,2022.2.4,Win32,120.9774982,Chrome,1600,1067,,,a,2.3617,10,454,2,1,9,21,3,1,0,1,0,0,1,0,0,0,circle,triangle,,,,,,,,,,,,,,,,,,,,,,,,,,,,,,,,,,,,,,,,,,,,,,,,,,,,,,
297118,2022-11-14_14h43.16.630,vts_reward_expectancy_bt,2022.2.4,Win32,120.9774982,Chrome,1600,1067,,,a,1.8404,1,455,2,1,10,22,1,1,1,0,0,0,0,0,1,0,triangle,hexagon,,,,,,,,,,,,,,,,,,,,,,,,,,,,,,,,,,,,,,,,,,,,,,,,,,,,,,
297118,2022-11-14_14h43.16.630,vts_reward_expectancy_bt,2022.2.4,Win32,120.9774982,Chrome,1600,1067,,,a,2.9984,10,465,2,1,11,23,9,1,0,0,0,1,1,0,0,0,star,triangle,,,,,,,,,,,,,,,,,,,,,,,,,,,,,,,,,,,,,,,,,,,,,,,,,,,,,,
297118,2022-11-14_14h43.16.630,vts_reward_expectancy_bt,2022.2.4,Win32,120.9774982,Chrome,1600,1067,,,a,1.8737,10,475,2,2,0,24,1,1,1,0,0,0,0,0,1,0,triangle,hexagon,,,,,,,,,,,,,,,,,,,,,,,,,,,,,,,,,,,,,,,,,,,,,,,,,,,,,,
297118,2022-11-14_14h43.16.630,vts_reward_expectancy_bt,2022.2.4,Win32,120.9774982,Chrome,1600,1067,,,a,1.4488,10,485,2,2,1,25,9,1,0,0,0,1,1,0,0,0,star,triangle,,,,,,,,,,,,,,,,,,,,,,,,,,,,,,,,,,,,,,,,,,,,,,,,,,,,,,
297118,2022-11-14_14h43.16.630,vts_reward_expectancy_bt,2022.2.4,Win32,120.9774982,Chrome,1600,1067,,,a,0.0081,10,495,2,2,2,26,6,1,0,0,1,0,1,0,0,0,hexagon,triangle,,,,,,,,,,,,,,,,,,,,,,,,,,,,,,,,,,,,,,,,,,,,,,,,,,,,,,
297118,2022-11-14_14h43.16.630,vts_reward_expectancy_bt,2022.2.4,Win32,120.9774982,Chrome,1600,1067,,,a,0.3423,1,496,2,2,3,27,0,1,1,0,0,0,0,1,0,0,triangle,circle,,,,,,,,,,,,,,,,,,,,,,,,,,,,,,,,,,,,,,,,,,,,,,,,,,,,,,
297118,2022-11-14_14h43.16.630,vts_reward_expectancy_bt,2022.2.4,Win32,120.9774982,Chrome,1600,1067,,,a,0.6434,10,506,2,2,4,28,7,1,0,0,1,0,0,1,0,0,hexagon,circle,,,,,,,,,,,,,,,,,,,,,,,,,,,,,,,,,,,,,,,,,,,,,,,,,,,,,,
297118,2022-11-14_14h43.16.630,vts_reward_expectancy_bt,2022.2.4,Win32,120.9774982,Chrome,1600,1067,,,a,0.9413,10,516,2,2,5,29,8,1,0,0,1,0,0,0,0,1,hexagon,star,,,,,,,,,,,,,,,,,,,,,,,,,,,,,,,,,,,,,,,,,,,,,,,,,,,,,,
297118,2022-11-14_14h43.16.630,vts_reward_expectancy_bt,2022.2.4,Win32,120.9774982,Chrome,1600,1067,,,a,0.2241,10,526,2,2,6,30,5,1,0,1,0,0,0,0,0,1,circle,star,,,,,,,,,,,,,,,,,,,,,,,,,,,,,,,,,,,,,,,,,,,,,,,,,,,,,,
297118,2022-11-14_14h43.16.630,vts_reward_expectancy_bt,2022.2.4,Win32,120.9774982,Chrome,1600,1067,,,a,1.4015,10,536,2,2,7,31,11,1,0,0,0,1,0,0,1,0,star,hexagon,,,,,,,,,,,,,,,,,,,,,,,,,,,,,,,,,,,,,,,,,,,,,,,,,,,,,,
297118,2022-11-14_14h43.16.630,vts_reward_expectancy_bt,2022.2.4,Win32,120.9774982,Chrome,1600,1067,,,a,2.1564,10,546,2,2,8,32,10,1,0,0,0,1,0,1,0,0,star ,circle,,,,,,,,,,,,,,,,,,,,,,,,,,,,,,,,,,,,,,,,,,,,,,,,,,,,,,
297118,2022-11-14_14h43.16.630,vts_reward_expectancy_bt,2022.2.4,Win32,120.9774982,Chrome,1600,1067,,,a,0.5873,1,547,2,2,9,33,2,1,1,0,0,0,0,0,0,1,triangle,star,,,,,,,,,,,,,,,,,,,,,,,,,,,,,,,,,,,,,,,,,,,,,,,,,,,,,,
297118,2022-11-14_14h43.16.630,vts_reward_expectancy_bt,2022.2.4,Win32,120.9774982,Chrome,1600,1067,,,l,0.3037,1,548,2,2,10,34,3,1,0,1,0,0,1,0,0,0,circle,triangle,,,,,,,,,,,,,,,,,,,,,,,,,,,,,,,,,,,,,,,,,,,,,,,,,,,,,,
297118,2022-11-14_14h43.16.630,vts_reward_expectancy_bt,2022.2.4,Win32,120.9774982,Chrome,1600,1067,,,a,0.3092,1,549,2,2,11,35,4,1,0,1,0,0,0,0,1,0,circle,hexagon,,,,,,,,,,,,,,,,,,,,,,,,,,,,,,,,,,,,,,,,,,,,,,,,,,,,,,
297118,2022-11-14_14h43.16.630,vts_reward_expectancy_bt,2022.2.4,Win32,120.9774982,Chrome,1600,1067,,,,,,,,,,,,,,,,,,,,,,,F,125,triangle,0,0,,0,0,0,0,0,1,,,,,,,,,,,,,,,,,,,,,,,,,,,,,,,,,,,,,,,,,,
297118,2022-11-14_14h43.16.630,vts_reward_expectancy_bt,2022.2.4,Win32,120.9774982,Chrome,1600,1067,,,,,,,,,,,,,,,,,,,,,,,B,160,star,1,1,d,0,1,0,1,0,1,0.4919,,,,,,,,,,,,,,,,,,,,,,,,,,,,,,,,,,,,,,,,,
297118,2022-11-14_14h43.16.630,vts_reward_expectancy_bt,2022.2.4,Win32,120.9774982,Chrome,1600,1067,,,,,,,,,,,,,,,,,,,,,,,S,146,hexagon,2,0,j,0,2,0,2,0,1,0.3339,,,,,,,,,,,,,,,,,,,,,,,,,,,,,,,,,,,,,,,,,
297118,2022-11-14_14h43.16.630,vts_reward_expectancy_bt,2022.2.4,Win32,120.9774982,Chrome,1600,1067,,,,,,,,,,,,,,,,,,,,,,,W,139,circle,0,0,d,0,3,0,3,0,1,0.683,,,,,,,,,,,,,,,,,,,,,,,,,,,,,,,,,,,,,,,,,
297118,2022-11-14_14h43.16.630,vts_reward_expectancy_bt,2022.2.4,Win32,120.9774982,Chrome,1600,1067,,,,,,,,,,,,,,,,,,,,,,,D,181,triangle,2,1,j,0,4,0,4,0,1,0.6564,,,,,,,,,,,,,,,,,,,,,,,,,,,,,,,,,,,,,,,,,
297118,2022-11-14_14h43.16.630,vts_reward_expectancy_bt,2022.2.4,Win32,120.9774982,Chrome,1600,1067,,,,,,,,,,,,,,,,,,,,,,,U,167,star,0,0,d,0,5,0,5,0,1,0.7538,,,,,,,,,,,,,,,,,,,,,,,,,,,,,,,,,,,,,,,,,
297118,2022-11-14_14h43.16.630,vts_reward_expectancy_bt,2022.2.4,Win32,120.9774982,Chrome,1600,1067,,,,,,,,,,,,,,,,,,,,,,,Y,174,hexagon,0,1,d,0,6,0,6,0,1,0.4704,,,,,,,,,,,,,,,,,,,,,,,,,,,,,,,,,,,,,,,,,
297118,2022-11-14_14h43.16.630,vts_reward_expectancy_bt,2022.2.4,Win32,120.9774982,Chrome,1600,1067,,,,,,,,,,,,,,,,,,,,,,,H,132,circle,2,1,j,0,7,0,7,0,1,0.4247,,,,,,,,,,,,,,,,,,,,,,,,,,,,,,,,,,,,,,,,,
297118,2022-11-14_14h43.16.630,vts_reward_expectancy_bt,2022.2.4,Win32,120.9774982,Chrome,1600,1067,,,,,,,,,,,,,,,,,,,,,,,F,125,star,2,0,j,0,8,0,8,0,1,0.3044,,,,,,,,,,,,,,,,,,,,,,,,,,,,,,,,,,,,,,,,,
297118,2022-11-14_14h43.16.630,vts_reward_expectancy_bt,2022.2.4,Win32,120.9774982,Chrome,1600,1067,,,,,,,,,,,,,,,,,,,,,,,B,160,hexagon,2,0,j,0,9,0,9,0,1,0.4427,,,,,,,,,,,,,,,,,,,,,,,,,,,,,,,,,,,,,,,,,
297118,2022-11-14_14h43.16.630,vts_reward_expectancy_bt,2022.2.4,Win32,120.9774982,Chrome,1600,1067,,,,,,,,,,,,,,,,,,,,,,,D,174,hexagon,0,0,f,1,0,0,0,0,1,0.6802,,,,,,,,,,,,,,,,,,,,,,,,,,,,,,,,,,,,,,,,,
297118,2022-11-14_14h43.16.630,vts_reward_expectancy_bt,2022.2.4,Win32,120.9774982,Chrome,1600,1067,,,,,,,,,,,,,,,,,,,,,,,B,146,circle,1,1,d,1,1,0,1,0,1,0.7275,,,,,,,,,,,,,,,,,,,,,,,,,,,,,,,,,,,,,,,,,
297118,2022-11-14_14h43.16.630,vts_reward_expectancy_bt,2022.2.4,Win32,120.9774982,Chrome,1600,1067,,,,,,,,,,,,,,,,,,,,,,,H,132,triangle,1,0,d,1,2,0,2,0,1,0.698,,,,,,,,,,,,,,,,,,,,,,,,,,,,,,,,,,,,,,,,,
297118,2022-11-14_14h43.16.630,vts_reward_expectancy_bt,2022.2.4,Win32,120.9774982,Chrome,1600,1067,,,,,,,,,,,,,,,,,,,,,,,Y,139,star,0,0,d,1,3,0,3,0,1,0.4518,,,,,,,,,,,,,,,,,,,,,,,,,,,,,,,,,,,,,,,,,
297118,2022-11-14_14h43.16.630,vts_reward_expectancy_bt,2022.2.4,Win32,120.9774982,Chrome,1600,1067,,,,,,,,,,,,,,,,,,,,,,,S,160,hexagon,1,1,f,1,4,0,4,0,1,0.328,,,,,,,,,,,,,,,,,,,,,,,,,,,,,,,,,,,,,,,,,
297118,2022-11-14_14h43.16.630,vts_reward_expectancy_bt,2022.2.4,Win32,120.9774982,Chrome,1600,1067,,,,,,,,,,,,,,,,,,,,,,,U,181,circle,1,0,f,1,5,0,5,0,1,1.4182,,,,,,,,,,,,,,,,,,,,,,,,,,,,,,,,,,,,,,,,,
297118,2022-11-14_14h43.16.630,vts_reward_expectancy_bt,2022.2.4,Win32,120.9774982,Chrome,1600,1067,,,,,,,,,,,,,,,,,,,,,,,F,167,triangle,0,0,f,1,6,0,6,0,1,1.0176,,,,,,,,,,,,,,,,,,,,,,,,,,,,,,,,,,,,,,,,,
297118,2022-11-14_14h43.16.630,vts_reward_expectancy_bt,2022.2.4,Win32,120.9774982,Chrome,1600,1067,,,,,,,,,,,,,,,,,,,,,,,W,125,star,0,1,d,1,7,0,7,0,1,0.4628,,,,,,,,,,,,,,,,,,,,,,,,,,,,,,,,,,,,,,,,,
297118,2022-11-14_14h43.16.630,vts_reward_expectancy_bt,2022.2.4,Win32,120.9774982,Chrome,1600,1067,,,,,,,,,,,,,,,,,,,,,,,D,174,triangle,0,1,f,1,8,0,8,0,1,0.7245,,,,,,,,,,,,,,,,,,,,,,,,,,,,,,,,,,,,,,,,,
297118,2022-11-14_14h43.16.630,vts_reward_expectancy_bt,2022.2.4,Win32,120.9774982,Chrome,1600,1067,,,,,,,,,,,,,,,,,,,,,,,B,146,circle,0,1,f,1,9,0,9,0,1,1.6204,,,,,,,,,,,,,,,,,,,,,,,,,,,,,,,,,,,,,,,,,
297118,2022-11-14_14h43.16.630,vts_reward_expectancy_bt,2022.2.4,Win32,120.9774982,Chrome,1600,1067,,,,,,,,,,,,,,,,,,,,,,,F,174,star,1,1,d,2,0,0,0,0,1,1.0092,,,,,,,,,,,,,,,,,,,,,,,,,,,,,,,,,,,,,,,,,
297118,2022-11-14_14h43.16.630,vts_reward_expectancy_bt,2022.2.4,Win32,120.9774982,Chrome,1600,1067,,,,,,,,,,,,,,,,,,,,,,,S,132,triangle,1,0,f,2,1,0,1,0,1,0.7403,,,,,,,,,,,,,,,,,,,,,,,,,,,,,,,,,,,,,,,,,
297118,2022-11-14_14h43.16.630,vts_reward_expectancy_bt,2022.2.4,Win32,120.9774982,Chrome,1600,1067,,,,,,,,,,,,,,,,,,,,,,,H,181,hexagon,1,0,d,2,2,0,2,0,1,0.8168,,,,,,,,,,,,,,,,,,,,,,,,,,,,,,,,,,,,,,,,,
297118,2022-11-14_14h43.16.630,vts_reward_expectancy_bt,2022.2.4,Win32,120.9774982,Chrome,1600,1067,,,,,,,,,,,,,,,,,,,,,,,Y,160,circle,1,0,f,2,3,0,3,0,1,0.7089,,,,,,,,,,,,,,,,,,,,,,,,,,,,,,,,,,,,,,,,,
297118,2022-11-14_14h43.16.630,vts_reward_expectancy_bt,2022.2.4,Win32,120.9774982,Chrome,1600,1067,,,,,,,,,,,,,,,,,,,,,,,U,139,star,1,0,f,2,4,0,4,0,1,0.6391,,,,,,,,,,,,,,,,,,,,,,,,,,,,,,,,,,,,,,,,,
297118,2022-11-14_14h43.16.630,vts_reward_expectancy_bt,2022.2.4,Win32,120.9774982,Chrome,1600,1067,,,,,,,,,,,,,,,,,,,,,,,B,125,triangle,1,0,d,2,5,0,5,0,1,0.9009,,,,,,,,,,,,,,,,,,,,,,,,,,,,,,,,,,,,,,,,,
297118,2022-11-14_14h43.16.630,vts_reward_expectancy_bt,2022.2.4,Win32,120.9774982,Chrome,1600,1067,,,,,,,,,,,,,,,,,,,,,,,W,146,hexagon,1,0,f,2,6,0,6,0,1,1.3805,,,,,,,,,,,,,,,,,,,,,,,,,,,,,,,,,,,,,,,,,
297118,2022-11-14_14h43.16.630,vts_reward_expectancy_bt,2022.2.4,Win32,120.9774982,Chrome,1600,1067,,,,,,,,,,,,,,,,,,,,,,,D,167,circle,1,0,d,2,7,0,7,0,1,1.3698,,,,,,,,,,,,,,,,,,,,,,,,,,,,,,,,,,,,,,,,,
297118,2022-11-14_14h43.16.630,vts_reward_expectancy_bt,2022.2.4,Win32,120.9774982,Chrome,1600,1067,,,,,,,,,,,,,,,,,,,,,,,F,174,hexagon,1,0,d,2,8,0,8,0,1,1.2189,,,,,,,,,,,,,,,,,,,,,,,,,,,,,,,,,,,,,,,,,
297118,2022-11-14_14h43.16.630,vts_reward_expectancy_bt,2022.2.4,Win32,120.9774982,Chrome,1600,1067,,,,,,,,,,,,,,,,,,,,,,,S,132,triangle,1,0,f,2,9,0,9,0,1,2.1324,,,,,,,,,,,,,,,,,,,,,,,,,,,,,,,,,,,,,,,,,
297118,2022-11-14_14h43.16.630,vts_reward_expectancy_bt,2022.2.4,Win32,120.9774982,Chrome,1600,1067,,,,,,,,,,,,,,,,,,,,,,,W,167,hexagon,1,0,,3,,,,,,,k,1.0342,0,0,0,0,1,,,,,,,,,,,,,,,,,,,,,,,,,,,,,,,,,,
297118,2022-11-14_14h43.16.630,vts_reward_expectancy_bt,2022.2.4,Win32,120.9774982,Chrome,1600,1067,,,,,,,,,,,,,,,,,,,,,,,Y,132,triangle,1,0,,3,,,,,,,j,0.9323,1,0,1,0,1,,,,,,,,,,,,,,,,,,,,,,,,,,,,,,,,,,
297118,2022-11-14_14h43.16.630,vts_reward_expectancy_bt,2022.2.4,Win32,120.9774982,Chrome,1600,1067,,,,,,,,,,,,,,,,,,,,,,,H,160,star,1,0,,3,,,,,,,k,0.7292,2,0,2,0,1,,,,,,,,,,,,,,,,,,,,,,,,,,,,,,,,,,
297118,2022-11-14_14h43.16.630,vts_reward_expectancy_bt,2022.2.4,Win32,120.9774982,Chrome,1600,1067,,,,,,,,,,,,,,,,,,,,,,,F,139,circle,1,0,,3,,,,,,,j,0.6909,3,0,3,0,1,,,,,,,,,,,,,,,,,,,,,,,,,,,,,,,,,,
297118,2022-11-14_14h43.16.630,vts_reward_expectancy_bt,2022.2.4,Win32,120.9774982,Chrome,1600,1067,,,,,,,,,,,,,,,,,,,,,,,B,174,hexagon,1,0,,3,,,,,,,k,0.8932,4,0,4,0,1,,,,,,,,,,,,,,,,,,,,,,,,,,,,,,,,,,
297118,2022-11-14_14h43.16.630,vts_reward_expectancy_bt,2022.2.4,Win32,120.9774982,Chrome,1600,1067,,,,,,,,,,,,,,,,,,,,,,,S,181,triangle,1,0,,3,,,,,,,k,0.6409,5,0,5,0,1,,,,,,,,,,,,,,,,,,,,,,,,,,,,,,,,,,
297118,2022-11-14_14h43.16.630,vts_reward_expectancy_bt,2022.2.4,Win32,120.9774982,Chrome,1600,1067,,,,,,,,,,,,,,,,,,,,,,,D,125,star,1,0,,3,,,,,,,j,0.617,6,0,6,0,1,,,,,,,,,,,,,,,,,,,,,,,,,,,,,,,,,,
297118,2022-11-14_14h43.16.630,vts_reward_expectancy_bt,2022.2.4,Win32,120.9774982,Chrome,1600,1067,,,,,,,,,,,,,,,,,,,,,,,U,146,circle,1,0,,3,,,,,,,j,1.037,7,0,7,0,1,,,,,,,,,,,,,,,,,,,,,,,,,,,,,,,,,,
297118,2022-11-14_14h43.16.630,vts_reward_expectancy_bt,2022.2.4,Win32,120.9774982,Chrome,1600,1067,,,,,,,,,,,,,,,,,,,,,,,W,167,hexagon,1,0,,3,,,,,,,k,0.5302,8,0,8,0,1,,,,,,,,,,,,,,,,,,,,,,,,,,,,,,,,,,
297118,2022-11-14_14h43.16.630,vts_reward_expectancy_bt,2022.2.4,Win32,120.9774982,Chrome,1600,1067,,,,,,,,,,,,,,,,,,,,,,,Y,132,star,1,0,,3,,,,,,,j,0.5329,9,0,9,0,1,,,,,,,,,,,,,,,,,,,,,,,,,,,,,,,,,,
297118,2022-11-14_14h43.16.630,vts_reward_expectancy_bt,2022.2.4,Win32,120.9774982,Chrome,1600,1067,,,,,0,549,,,,,,,,,,,,,,,,,S,167,circle,1,0,,4,,,,,,,,,,,,,,-1,number,NA,k,2.8113,vtsPrac,0,0,0,0,1,,,,,,,,,,,,,,,,,,,,,,,
297118,2022-11-14_14h43.16.630,vts_reward_expectancy_bt,2022.2.4,Win32,120.9774982,Chrome,1600,1067,,,,,0,549,,,,,,,,,,,,,,,,,F,139,triangle,1,0,,4,,,,,,,,,,,,,,repeat,number,numRpt,j,1.8992,vtsPrac,1,0,1,0,1,,,,,,,,,,,,,,,,,,,,,,,
297118,2022-11-14_14h43.16.630,vts_reward_expectancy_bt,2022.2.4,Win32,120.9774982,Chrome,1600,1067,,,,,0,549,,,,,,,,,,,,,,,,,H,146,circle,1,0,,4,,,,,,,,,,,,,,switch,letter,lettSwt,d,2.4101,vtsPrac,2,0,2,0,1,,,,,,,,,,,,,,,,,,,,,,,
297118,2022-11-14_14h43.16.630,vts_reward_expectancy_bt,2022.2.4,Win32,120.9774982,Chrome,1600,1067,,,,,0,549,,,,,,,,,,,,,,,,,W,181,triangle,1,0,,4,,,,,,,,,,,,,,switch,number,numSwt,k,1.6301,vtsPrac,3,0,3,0,1,,,,,,,,,,,,,,,,,,,,,,,
297118,2022-11-14_14h43.16.630,vts_reward_expectancy_bt,2022.2.4,Win32,120.9774982,Chrome,1600,1067,,,,,0,549,,,,,,,,,,,,,,,,,S,167,star,1,0,,4,,,,,,,,,,,,,,repeat,number,numRpt,k,0.745,vtsPrac,4,0,4,0,1,,,,,,,,,,,,,,,,,,,,,,,
297118,2022-11-14_14h43.16.630,vts_reward_expectancy_bt,2022.2.4,Win32,120.9774982,Chrome,1600,1067,,,,,0,549,,,,,,,,,,,,,,,,,F,139,hexagon,1,0,,4,,,,,,,,,,,,,,switch,letter,lettSwt,d,0.8028,vtsPrac,5,0,5,0,1,,,,,,,,,,,,,,,,,,,,,,,
297118,2022-11-14_14h43.16.630,vts_reward_expectancy_bt,2022.2.4,Win32,120.9774982,Chrome,1600,1067,,,,,0,549,,,,,,,,,,,,,,,,,H,146,circle,1,0,,4,,,,,,,,,,,,,,switch,number,numSwt,j,1.1613,vtsPrac,6,0,6,0,1,,,,,,,,,,,,,,,,,,,,,,,
297118,2022-11-14_14h43.16.630,vts_reward_expectancy_bt,2022.2.4,Win32,120.9774982,Chrome,1600,1067,,,,,0,549,,,,,,,,,,,,,,,,,W,181,triangle,1,0,,4,,,,,,,,,,,,,,repeat,number,numRpt,k,0.7924,vtsPrac,7,0,7,0,1,,,,,,,,,,,,,,,,,,,,,,,
297118,2022-11-14_14h43.16.630,vts_reward_expectancy_bt,2022.2.4,Win32,120.9774982,Chrome,1600,1067,,,,,0,549,,,,,,,,,,,,,,,,,B,132,star,1,0,,4,,,,,,,,,,,,,,repeat,number,numRpt,j,0.8587,vtsPrac,8,0,8,0,1,,,,,,,,,,,,,,,,,,,,,,,
297118,2022-11-14_14h43.16.630,vts_reward_expectancy_bt,2022.2.4,Win32,120.9774982,Chrome,1600,1067,,,,,0,549,,,,,,,,,,,,,,,,,F,167,hexagon,-1,0,,4,,,,,,,,,,,,,,switch,no_choice,NA,,,vtsPrac,9,0,9,0,1,,,,,,,,,,,,,,,,,,,,,,,
297118,2022-11-14_14h43.16.630,vts_reward_expectancy_bt,2022.2.4,Win32,120.9774982,Chrome,1600,1067,,,,,0,549,,,,,,,,,,,,,,,,,Y,181,circle,1,0,,4,,,,,,,,,,,,,,switch,letter,lettSwt,f,1.2565,vtsPrac,10,0,10,0,1,,,,,,,,,,,,,,,,,,,,,,,
297118,2022-11-14_14h43.16.630,vts_reward_expectancy_bt,2022.2.4,Win32,120.9774982,Chrome,1600,1067,,,,,0,549,,,,,,,,,,,,,,,,,D,174,hexagon,1,0,,4,,,,,,,,,,,,,,switch,number,numSwt,k,1.4413,vtsPrac,11,0,11,0,1,,,,,,,,,,,,,,,,,,,,,,,
297118,2022-11-14_14h43.16.630,vts_reward_expectancy_bt,2022.2.4,Win32,120.9774982,Chrome,1600,1067,,,,,0,549,,,,,,,,,,,,,,,,,W,174,triangle,1,0,,4,,,,,,,,,,,,,,repeat,number,numRpt,k,1.0582,vtsPrac,12,0,12,0,1,,,,,,,,,,,,,,,,,,,,,,,
297118,2022-11-14_14h43.16.630,vts_reward_expectancy_bt,2022.2.4,Win32,120.9774982,Chrome,1600,1067,,,,,0,549,,,,,,,,,,,,,,,,,Y,139,hexagon,0,0,,4,,,,,,,,,,,,,,repeat,number,NA,k,0.7741,vtsPrac,13,0,13,0,1,,,,,,,,,,,,,,,,,,,,,,,
297118,2022-11-14_14h43.16.630,vts_reward_expectancy_bt,2022.2.4,Win32,120.9774982,Chrome,1600,1067,,,,,0,549,,,,,,,,,,,,,,,,,S,181,star,1,1,,4,,,,,,,,,,,,,,repeat,number,numRpt,k,0.9456,vtsPrac,14,0,14,0,1,,,,,,,,,,,,,,,,,,,,,,,
297118,2022-11-14_14h43.16.630,vts_reward_expectancy_bt,2022.2.4,Win32,120.9774982,Chrome,1600,1067,,,,,0,549,,,,,,,,,,,,,,,,,H,167,circle,1,0,,4,,,,,,,,,,,,,,repeat,number,numRpt,k,2.184,vtsPrac,15,0,15,0,1,,,,,,,,,,,,,,,,,,,,,,,
297118,2022-11-14_14h43.16.630,vts_reward_expectancy_bt,2022.2.4,Win32,120.9774982,Chrome,1600,1067,,,,,0,549,,,,,,,,,,,,,,,,,W,160,triangle,1,0,,4,,,,,,,,,,,,,,repeat,number,numRpt,k,1.8351,vtsPrac,16,0,16,0,1,,,,,,,,,,,,,,,,,,,,,,,
297118,2022-11-14_14h43.16.630,vts_reward_expectancy_bt,2022.2.4,Win32,120.9774982,Chrome,1600,1067,,,,,0,549,,,,,,,,,,,,,,,,,D,174,circle,1,0,,4,,,,,,,,,,,,,,switch,letter,lettSwt,d,1.984,vtsPrac,17,0,17,0,1,,,,,,,,,,,,,,,,,,,,,,,
297118,2022-11-14_14h43.16.630,vts_reward_expectancy_bt,2022.2.4,Win32,120.9774982,Chrome,1600,1067,,,,,0,549,,,,,,,,,,,,,,,,,S,132,circle,0,0,,4,,,,,,,,,,,,,,repeat,letter,NA,d,1.9762,vtsPrac,18,0,18,0,1,,,,,,,,,,,,,,,,,,,,,,,
297118,2022-11-14_14h43.16.630,vts_reward_expectancy_bt,2022.2.4,Win32,120.9774982,Chrome,1600,1067,,,,,0,549,,,,,,,,,,,,,,,,,F,146,star,1,1,,4,,,,,,,,,,,,,,repeat,letter,lettRpt,d,1.3486,vtsPrac,19,0,19,0,1,,,,,,,,,,,,,,,,,,,,,,,
297118,2022-11-14_14h43.16.630,vts_reward_expectancy_bt,2022.2.4,Win32,120.9774982,Chrome,1600,1067,,,,,0,549,,,,,,,,,,,,,,,,,B,174,star,1,0,,4,,,,,,,,,,,,,,repeat,letter,lettRpt,d,0.7921,vtsPrac,20,0,20,0,1,,,,,,,,,,,,,,,,,,,,,,,
297118,2022-11-14_14h43.16.630,vts_reward_expectancy_bt,2022.2.4,Win32,120.9774982,Chrome,1600,1067,,,,,0,549,,,,,,,,,,,,,,,,,D,167,circle,1,0,,4,,,,,,,,,,,,,,repeat,letter,lettRpt,d,0.7334,vtsPrac,21,0,21,0,1,,,,,,,,,,,,,,,,,,,,,,,
297118,2022-11-14_14h43.16.630,vts_reward_expectancy_bt,2022.2.4,Win32,120.9774982,Chrome,1600,1067,,,,,0,549,,,,,,,,,,,,,,,,,W,181,circle,1,0,,4,,,,,,,,,,,,,,repeat,letter,lettRpt,f,0.7993,vtsPrac,22,0,22,0,1,,,,,,,,,,,,,,,,,,,,,,,
297118,2022-11-14_14h43.16.630,vts_reward_expectancy_bt,2022.2.4,Win32,120.9774982,Chrome,1600,1067,,,,,0,549,,,,,,,,,,,,,,,,,S,125,star,1,0,,4,,,,,,,,,,,,,,repeat,letter,lettRpt,f,1.1331,vtsPrac,23,0,23,0,1,,,,,,,,,,,,,,,,,,,,,,,
297118,2022-11-14_14h43.16.630,vts_reward_expectancy_bt,2022.2.4,Win32,120.9774982,Chrome,1600,1067,,,,,0,549,,,,,,,,,,,,,,,,,H,132,circle,1,0,,4,,,,,,,,,,,,,,repeat,letter,lettRpt,d,1.576,vtsPrac,24,0,24,0,1,,,,,,,,,,,,,,,,,,,,,,,
297118,2022-11-14_14h43.16.630,vts_reward_expectancy_bt,2022.2.4,Win32,120.9774982,Chrome,1600,1067,,,,,0,549,,,,,,,,,,,,,,,,,W,125,star,1,0,,4,,,,,,,,,,,,,,repeat,letter,lettRpt,f,0.4839,vtsPrac,25,0,25,0,1,,,,,,,,,,,,,,,,,,,,,,,
297118,2022-11-14_14h43.16.630,vts_reward_expectancy_bt,2022.2.4,Win32,120.9774982,Chrome,1600,1067,,,,,0,549,,,,,,,,,,,,,,,,,Y,146,circle,1,0,,4,,,,,,,,,,,,,,repeat,letter,lettRpt,f,1.0926,vtsPrac,26,0,26,0,1,,,,,,,,,,,,,,,,,,,,,,,
297118,2022-11-14_14h43.16.630,vts_reward_expectancy_bt,2022.2.4,Win32,120.9774982,Chrome,1600,1067,,,,,0,549,,,,,,,,,,,,,,,,,U,160,hexagon,1,0,,4,,,,,,,,,,,,,,repeat,letter,lettRpt,f,1.1829,vtsPrac,27,0,27,0,1,,,,,,,,,,,,,,,,,,,,,,,
297118,2022-11-14_14h43.16.630,vts_reward_expectancy_bt,2022.2.4,Win32,120.9774982,Chrome,1600,1067,,,,,0,549,,,,,,,,,,,,,,,,,B,181,circle,1,0,,4,,,,,,,,,,,,,,repeat,letter,lettRpt,d,0.4395,vtsPrac,28,0,28,0,1,,,,,,,,,,,,,,,,,,,,,,,
297118,2022-11-14_14h43.16.630,vts_reward_expectancy_bt,2022.2.4,Win32,120.9774982,Chrome,1600,1067,,,,,0,549,,,,,,,,,,,,,,,,,H,139,star,1,0,,4,,,,,,,,,,,,,,repeat,letter,lettRpt,d,1.3642,vtsPrac,29,0,29,0,1,,,,,,,,,,,,,,,,,,,,,,,
297118,2022-11-14_14h43.16.630,vts_reward_expectancy_bt,2022.2.4,Win32,120.9774982,Chrome,1600,1067,,,,,0,549,,,,,,,,,,,,,,,,,W,167,hexagon,1,0,,4,,,,,,,,,,,,,,repeat,letter,lettRpt,f,0.7033,vtsPrac,30,0,30,0,1,,,,,,,,,,,,,,,,,,,,,,,
297118,2022-11-14_14h43.16.630,vts_reward_expectancy_bt,2022.2.4,Win32,120.9774982,Chrome,1600,1067,,,,,0,549,,,,,,,,,,,,,,,,,S,160,circle,1,0,,4,,,,,,,,,,,,,,repeat,letter,lettRpt,f,2.1714,vtsPrac,31,0,31,0,1,,,,,,,,,,,,,,,,,,,,,,,
297118,2022-11-14_14h43.16.630,vts_reward_expectancy_bt,2022.2.4,Win32,120.9774982,Chrome,1600,1067,,,,,,,,,,,,,,,,,,,,,,,,,,,,,,,,,,,,,,,,,,,,,,,,,,,,,,,,,,,,,,,,,,,,,,,,,,,,
297118,2022-11-14_14h43.16.630,vts_reward_expectancy_bt,2022.2.4,Win32,120.9774982,Chrome,1600,1067,,,,,,,,,,,,,,,,,,,,,,,,,,,,,,,,,,,,,,,,,,,,,,,,,,,,,,,,,,,,,,,,,,,,,,,,,,,,
297118,2022-11-14_14h43.16.630,vts_reward_expectancy_bt,2022.2.4,Win32,120.9774982,Chrome,1600,1067,,,,,0,549,,,,,,,,,,,,,,,,,U,132,hexagon,1,0,,,,,,,,,,,,,,,,switch,number,numSwt,j,1.184,noRew,,,,,,0,0,0,0,0,1,,,,,,,,,,,,,,,,,
297118,2022-11-14_14h43.16.630,vts_reward_expectancy_bt,2022.2.4,Win32,120.9774982,Chrome,1600,1067,,,,,0,549,,,,,,,,,,,,,,,,,B,160,circle,1,0,,,,,,,,,,,,,,,,repeat,number,numRpt,k,0.683,noRew,,,,,,0,1,0,1,0,1,,,,,,,,,,,,,,,,,
297118,2022-11-14_14h43.16.630,vts_reward_expectancy_bt,2022.2.4,Win32,120.9774982,Chrome,1600,1067,,,,,0,549,,,,,,,,,,,,,,,,,W,125,hexagon,1,0,,,,,,,,,,,,,,,,repeat,number,numRpt,j,0.6718,noRew,,,,,,0,2,0,2,0,1,,,,,,,,,,,,,,,,,
297118,2022-11-14_14h43.16.630,vts_reward_expectancy_bt,2022.2.4,Win32,120.9774982,Chrome,1600,1067,,,,,0,549,,,,,,,,,,,,,,,,,S,139,circle,1,0,,,,,,,,,,,,,,,,repeat,number,numRpt,j,0.8661,noRew,,,,,,0,3,0,3,0,1,,,,,,,,,,,,,,,,,
297118,2022-11-14_14h43.16.630,vts_reward_expectancy_bt,2022.2.4,Win32,120.9774982,Chrome,1600,1067,,,,,0,549,,,,,,,,,,,,,,,,,U,132,triangle,1,0,,,,,,,,,,,,,,,,switch,letter,lettSwt,f,0.5121,noRew,,,,,,0,4,0,4,0,1,,,,,,,,,,,,,,,,,
297118,2022-11-14_14h43.16.630,vts_reward_expectancy_bt,2022.2.4,Win32,120.9774982,Chrome,1600,1067,,,,,0,549,,,,,,,,,,,,,,,,,B,160,hexagon,1,0,,,,,,,,,,,,,,,,repeat,letter,lettRpt,d,0.5945,noRew,,,,,,0,5,0,5,0,1,,,,,,,,,,,,,,,,,
297118,2022-11-14_14h43.16.630,vts_reward_expectancy_bt,2022.2.4,Win32,120.9774982,Chrome,1600,1067,,,,,0,549,,,,,,,,,,,,,,,,,W,125,circle,1,0,,,,,,,,,,,,,,,,repeat,letter,lettRpt,f,0.5337,noRew,,,,,,0,6,0,6,0,1,,,,,,,,,,,,,,,,,
297118,2022-11-14_14h43.16.630,vts_reward_expectancy_bt,2022.2.4,Win32,120.9774982,Chrome,1600,1067,,,,,0,549,,,,,,,,,,,,,,,,,S,139,hexagon,1,0,,,,,,,,,,,,,,,,repeat,letter,lettRpt,f,0.8164,noRew,,,,,,0,7,0,7,0,1,,,,,,,,,,,,,,,,,
297118,2022-11-14_14h43.16.630,vts_reward_expectancy_bt,2022.2.4,Win32,120.9774982,Chrome,1600,1067,,,,,0,549,,,,,,,,,,,,,,,,,Y,167,triangle,1,0,,,,,,,,,,,,,,,,repeat,letter,lettRpt,f,0.6949,noRew,,,,,,0,8,0,8,0,1,,,,,,,,,,,,,,,,,
297118,2022-11-14_14h43.16.630,vts_reward_expectancy_bt,2022.2.4,Win32,120.9774982,Chrome,1600,1067,,,,,0,549,,,,,,,,,,,,,,,,,W,146,star,1,0,,,,,,,,,,,,,,,,repeat,letter,lettRpt,f,0.6018,noRew,,,,,,0,9,0,9,0,1,,,,,,,,,,,,,,,,,
297118,2022-11-14_14h43.16.630,vts_reward_expectancy_bt,2022.2.4,Win32,120.9774982,Chrome,1600,1067,,,,,0,549,,,,,,,,,,,,,,,,,B,174,circle,1,0,,,,,,,,,,,,,,,,repeat,letter,lettRpt,d,0.5823,noRew,,,,,,0,10,0,10,0,1,,,,,,,,,,,,,,,,,
297118,2022-11-14_14h43.16.630,vts_reward_expectancy_bt,2022.2.4,Win32,120.9774982,Chrome,1600,1067,,,,,0,549,,,,,,,,,,,,,,,,,F,181,triangle,1,0,,,,,,,,,,,,,,,,switch,number,numSwt,k,0.9262,noRew,,,,,,0,11,0,11,0,1,,,,,,,,,,,,,,,,,
297118,2022-11-14_14h43.16.630,vts_reward_expectancy_bt,2022.2.4,Win32,120.9774982,Chrome,1600,1067,,,,,0,549,,,,,,,,,,,,,,,,,S,160,triangle,1,0,,,,,,,,,,,,,,,,repeat,number,numRpt,k,1.1842,noRew,,,,,,0,12,0,12,0,1,,,,,,,,,,,,,,,,,
297118,2022-11-14_14h43.16.630,vts_reward_expectancy_bt,2022.2.4,Win32,120.9774982,Chrome,1600,1067,,,,,0,549,,,,,,,,,,,,,,,,,W,181,circle,1,0,,,,,,,,,,,,,,,,repeat,number,numRpt,k,0.7423,noRew,,,,,,0,13,0,13,0,1,,,,,,,,,,,,,,,,,
297118,2022-11-14_14h43.16.630,vts_reward_expectancy_bt,2022.2.4,Win32,120.9774982,Chrome,1600,1067,,,,,0,549,,,,,,,,,,,,,,,,,Y,174,hexagon,1,0,,,,,,,,,,,,,,,,repeat,number,numRpt,k,1.1776,noRew,,,,,,0,14,0,14,0,1,,,,,,,,,,,,,,,,,
297118,2022-11-14_14h43.16.630,vts_reward_expectancy_bt,2022.2.4,Win32,120.9774982,Chrome,1600,1067,,,,,0,549,,,,,,,,,,,,,,,,,F,132,star,1,0,,,,,,,,,,,,,,,,repeat,number,numRpt,j,1.0342,noRew,,,,,,0,15,0,15,0,1,,,,,,,,,,,,,,,,,
297118,2022-11-14_14h43.16.630,vts_reward_expectancy_bt,2022.2.4,Win32,120.9774982,Chrome,1600,1067,,,,,0,549,,,,,,,,,,,,,,,,,U,132,hexagon,1,0,,,,,,,,,,,,,,,,repeat,number,numRpt,j,0.5256,noRew,,,,,,0,16,0,16,0,1,,,,,,,,,,,,,,,,,
297118,2022-11-14_14h43.16.630,vts_reward_expectancy_bt,2022.2.4,Win32,120.9774982,Chrome,1600,1067,,,,,0,549,,,,,,,,,,,,,,,,,Y,181,star,1,0,,,,,,,,,,,,,,,,repeat,number,numRpt,k,0.9426,noRew,,,,,,0,17,0,17,0,1,,,,,,,,,,,,,,,,,
297118,2022-11-14_14h43.16.630,vts_reward_expectancy_bt,2022.2.4,Win32,120.9774982,Chrome,1600,1067,,,,,0,549,,,,,,,,,,,,,,,,,B,174,star,-1,0,,,,,,,,,,,,,,,,switch,no_choice,NA,,,noRew,,,,,,0,18,0,18,0,1,,,,,,,,,,,,,,,,,
297118,2022-11-14_14h43.16.630,vts_reward_expectancy_bt,2022.2.4,Win32,120.9774982,Chrome,1600,1067,,,,,0,549,,,,,,,,,,,,,,,,,W,160,hexagon,1,0,,,,,,,,,,,,,,,,switch,number,numSwt,k,0.8428,noRew,,,,,,0,19,0,19,0,1,,,,,,,,,,,,,,,,,
297118,2022-11-14_14h43.16.630,vts_reward_expectancy_bt,2022.2.4,Win32,120.9774982,Chrome,1600,1067,,,,,0,549,,,,,,,,,,,,,,,,,S,160,circle,1,0,,,,,,,,,,,,,,,,repeat,number,numRpt,k,0.9277,noRew,,,,,,0,20,0,20,0,1,,,,,,,,,,,,,,,,,
297118,2022-11-14_14h43.16.630,vts_reward_expectancy_bt,2022.2.4,Win32,120.9774982,Chrome,1600,1067,,,,,0,549,,,,,,,,,,,,,,,,,F,125,star,1,0,,,,,,,,,,,,,,,,repeat,number,numRpt,j,0.7571,noRew,,,,,,0,21,0,21,0,1,,,,,,,,,,,,,,,,,
297118,2022-11-14_14h43.16.630,vts_reward_expectancy_bt,2022.2.4,Win32,120.9774982,Chrome,1600,1067,,,,,0,549,,,,,,,,,,,,,,,,,D,132,circle,1,0,,,,,,,,,,,,,,,,switch,letter,lettSwt,d,0.9764,noRew,,,,,,0,22,0,22,0,1,,,,,,,,,,,,,,,,,
297118,2022-11-14_14h43.16.630,vts_reward_expectancy_bt,2022.2.4,Win32,120.9774982,Chrome,1600,1067,,,,,0,549,,,,,,,,,,,,,,,,,Y,181,triangle,1,0,,,,,,,,,,,,,,,,repeat,letter,lettRpt,f,1.0167,noRew,,,,,,0,23,0,23,0,1,,,,,,,,,,,,,,,,,
297118,2022-11-14_14h43.16.630,vts_reward_expectancy_bt,2022.2.4,Win32,120.9774982,Chrome,1600,1067,,,,,0,549,,,,,,,,,,,,,,,,,B,160,star,1,0,,,,,,,,,,,,,,,,repeat,letter,lettRpt,d,0.6424,noRew,,,,,,0,24,0,24,0,1,,,,,,,,,,,,,,,,,
297118,2022-11-14_14h43.16.630,vts_reward_expectancy_bt,2022.2.4,Win32,120.9774982,Chrome,1600,1067,,,,,0,549,,,,,,,,,,,,,,,,,W,125,triangle,1,0,,,,,,,,,,,,,,,,repeat,letter,lettRpt,f,1.0904,noRew,,,,,,0,25,0,25,0,1,,,,,,,,,,,,,,,,,
297118,2022-11-14_14h43.16.630,vts_reward_expectancy_bt,2022.2.4,Win32,120.9774982,Chrome,1600,1067,,,,,0,549,,,,,,,,,,,,,,,,,D,174,star,1,0,,,,,,,,,,,,,,,,repeat,letter,lettRpt,d,1.0262,noRew,,,,,,0,26,0,26,0,1,,,,,,,,,,,,,,,,,
297118,2022-11-14_14h43.16.630,vts_reward_expectancy_bt,2022.2.4,Win32,120.9774982,Chrome,1600,1067,,,,,0,549,,,,,,,,,,,,,,,,,Y,167,circle,1,0,,,,,,,,,,,,,,,,repeat,letter,lettRpt,f,1.4753,noRew,,,,,,0,27,0,27,0,1,,,,,,,,,,,,,,,,,
297118,2022-11-14_14h43.16.630,vts_reward_expectancy_bt,2022.2.4,Win32,120.9774982,Chrome,1600,1067,,,,,0,549,,,,,,,,,,,,,,,,,Y,132,star,1,0,,,,,,,,,,,,,,,,repeat,letter,lettRpt,f,0.675,noRew,,,,,,0,28,0,28,0,1,,,,,,,,,,,,,,,,,
297118,2022-11-14_14h43.16.630,vts_reward_expectancy_bt,2022.2.4,Win32,120.9774982,Chrome,1600,1067,,,,,0,549,,,,,,,,,,,,,,,,,B,146,circle,0,0,,,,,,,,,,,,,,,,repeat,letter,NA,f,1.5998,noRew,,,,,,0,29,0,29,0,1,,,,,,,,,,,,,,,,,
297118,2022-11-14_14h43.16.630,vts_reward_expectancy_bt,2022.2.4,Win32,120.9774982,Chrome,1600,1067,,,,,0,549,,,,,,,,,,,,,,,,,F,181,triangle,1,1,,,,,,,,,,,,,,,,repeat,letter,lettRpt,d,1.0495,noRew,,,,,,0,30,0,30,0,1,,,,,,,,,,,,,,,,,
297118,2022-11-14_14h43.16.630,vts_reward_expectancy_bt,2022.2.4,Win32,120.9774982,Chrome,1600,1067,,,,,0,549,,,,,,,,,,,,,,,,,U,160,hexagon,1,0,,,,,,,,,,,,,,,,switch,number,numSwt,k,1.0092,noRew,,,,,,0,31,0,31,0,1,,,,,,,,,,,,,,,,,
297118,2022-11-14_14h43.16.630,vts_reward_expectancy_bt,2022.2.4,Win32,120.9774982,Chrome,1600,1067,,,,,0,549,,,,,,,,,,,,,,,,,W,174,hexagon,1,0,,,,,,,,,,,,,,,,repeat,number,numRpt,k,1.1688,noRew,,,,,,0,32,0,32,0,1,,,,,,,,,,,,,,,,,
297118,2022-11-14_14h43.16.630,vts_reward_expectancy_bt,2022.2.4,Win32,120.9774982,Chrome,1600,1067,,,,,0,549,,,,,,,,,,,,,,,,,B,146,circle,0,0,,,,,,,,,,,,,,,,repeat,number,NA,k,1.9184,noRew,,,,,,0,33,0,33,0,1,,,,,,,,,,,,,,,,,
297118,2022-11-14_14h43.16.630,vts_reward_expectancy_bt,2022.2.4,Win32,120.9774982,Chrome,1600,1067,,,,,0,549,,,,,,,,,,,,,,,,,H,132,triangle,1,1,,,,,,,,,,,,,,,,repeat,number,numRpt,j,1.4431,noRew,,,,,,0,34,0,34,0,1,,,,,,,,,,,,,,,,,
297118,2022-11-14_14h43.16.630,vts_reward_expectancy_bt,2022.2.4,Win32,120.9774982,Chrome,1600,1067,,,,,0,549,,,,,,,,,,,,,,,,,U,167,circle,1,0,,,,,,,,,,,,,,,,repeat,number,numRpt,k,1.015,noRew,,,,,,0,35,0,35,0,1,,,,,,,,,,,,,,,,,
297118,2022-11-14_14h43.16.630,vts_reward_expectancy_bt,2022.2.4,Win32,120.9774982,Chrome,1600,1067,,,,,0,549,,,,,,,,,,,,,,,,,H,160,star,0,0,,,,,,,,,,,,,,,,repeat,number,NA,j,1.9494,noRew,,,,,,0,36,0,36,0,1,,,,,,,,,,,,,,,,,
297118,2022-11-14_14h43.16.630,vts_reward_expectancy_bt,2022.2.4,Win32,120.9774982,Chrome,1600,1067,,,,,0,549,,,,,,,,,,,,,,,,,W,139,circle,0,1,,,,,,,,,,,,,,,,repeat,number,NA,k,1.7185,noRew,,,,,,0,37,0,37,0,1,,,,,,,,,,,,,,,,,
297118,2022-11-14_14h43.16.630,vts_reward_expectancy_bt,2022.2.4,Win32,120.9774982,Chrome,1600,1067,,,,,0,549,,,,,,,,,,,,,,,,,S,167,circle,1,1,,,,,,,,,,,,,,,,repeat,number,numRpt,k,1.382,noRew,,,,,,0,38,0,38,0,1,,,,,,,,,,,,,,,,,
297118,2022-11-14_14h43.16.630,vts_reward_expectancy_bt,2022.2.4,Win32,120.9774982,Chrome,1600,1067,,,,,0,549,,,,,,,,,,,,,,,,,F,132,triangle,1,0,,,,,,,,,,,,,,,,repeat,number,numRpt,j,0.9487,noRew,,,,,,0,39,0,39,0,1,,,,,,,,,,,,,,,,,
297118,2022-11-14_14h43.16.630,vts_reward_expectancy_bt,2022.2.4,Win32,120.9774982,Chrome,1600,1067,,,,,0,549,,,,,,,,,,,,,,,,,H,167,circle,1,0,,,,,,,,,,,,,,,,switch,letter,lettSwt,d,0.5917,noRew,,,,,,0,40,0,40,0,1,,,,,,,,,,,,,,,,,
297118,2022-11-14_14h43.16.630,vts_reward_expectancy_bt,2022.2.4,Win32,120.9774982,Chrome,1600,1067,,,,,0,549,,,,,,,,,,,,,,,,,F,125,triangle,1,0,,,,,,,,,,,,,,,,repeat,letter,lettRpt,d,0.4839,noRew,,,,,,0,41,0,41,0,1,,,,,,,,,,,,,,,,,
297118,2022-11-14_14h43.16.630,vts_reward_expectancy_bt,2022.2.4,Win32,120.9774982,Chrome,1600,1067,,,,,0,549,,,,,,,,,,,,,,,,,Y,146,triangle,1,0,,,,,,,,,,,,,,,,repeat,letter,lettRpt,f,0.8986,noRew,,,,,,0,42,0,42,0,1,,,,,,,,,,,,,,,,,
297118,2022-11-14_14h43.16.630,vts_reward_expectancy_bt,2022.2.4,Win32,120.9774982,Chrome,1600,1067,,,,,0,549,,,,,,,,,,,,,,,,,W,174,hexagon,0,0,,,,,,,,,,,,,,,,repeat,letter,NA,d,0.987,noRew,,,,,,0,43,0,43,0,1,,,,,,,,,,,,,,,,,
297118,2022-11-14_14h43.16.630,vts_reward_expectancy_bt,2022.2.4,Win32,120.9774982,Chrome,1600,1067,,,,,0,549,,,,,,,,,,,,,,,,,D,167,star,1,1,,,,,,,,,,,,,,,,repeat,letter,lettRpt,d,0.5502,noRew,,,,,,0,44,0,44,0,1,,,,,,,,,,,,,,,,,
297118,2022-11-14_14h43.16.630,vts_reward_expectancy_bt,2022.2.4,Win32,120.9774982,Chrome,1600,1067,,,,,0,549,,,,,,,,,,,,,,,,,W,160,triangle,1,0,,,,,,,,,,,,,,,,repeat,letter,lettRpt,f,0.5594,noRew,,,,,,0,45,0,45,0,1,,,,,,,,,,,,,,,,,
297118,2022-11-14_14h43.16.630,vts_reward_expectancy_bt,2022.2.4,Win32,120.9774982,Chrome,1600,1067,,,,,0,549,,,,,,,,,,,,,,,,,Y,181,star,-1,0,,,,,,,,,,,,,,,,switch,no_choice,NA,,,noRew,,,,,,0,46,0,46,0,1,,,,,,,,,,,,,,,,,
297118,2022-11-14_14h43.16.630,vts_reward_expectancy_bt,2022.2.4,Win32,120.9774982,Chrome,1600,1067,,,,,0,549,,,,,,,,,,,,,,,,,U,139,circle,-1,0,,,,,,,,,,,,,,,,repeat,no_choice,NA,,,noRew,,,,,,0,47,0,47,0,1,,,,,,,,,,,,,,,,,
297118,2022-11-14_14h43.16.630,vts_reward_expectancy_bt,2022.2.4,Win32,120.9774982,Chrome,1600,1067,,,,,0,549,,,,,,,,,,,,,,,,,U,146,circle,1,0,,,,,,,,,,,,,,,,switch,letter,lettSwt,f,1.91,noRew,,,,,,0,48,0,48,0,1,,,,,,,,,,,,,,,,,
297118,2022-11-14_14h43.16.630,vts_reward_expectancy_bt,2022.2.4,Win32,120.9774982,Chrome,1600,1067,,,,,0,549,,,,,,,,,,,,,,,,,W,132,triangle,1,0,,,,,,,,,,,,,,,,repeat,letter,lettRpt,f,0.868,noRew,,,,,,0,49,0,49,0,1,,,,,,,,,,,,,,,,,
297118,2022-11-14_14h43.16.630,vts_reward_expectancy_bt,2022.2.4,Win32,120.9774982,Chrome,1600,1067,,,,,0,549,,,,,,,,,,,,,,,,,S,125,hexagon,0,0,,,,,,,,,,,,,,,,repeat,letter,NA,d,0.9052,noRew,,,,,,0,50,0,50,0,1,,,,,,,,,,,,,,,,,
297118,2022-11-14_14h43.16.630,vts_reward_expectancy_bt,2022.2.4,Win32,120.9774982,Chrome,1600,1067,,,,,0,549,,,,,,,,,,,,,,,,,H,181,star,1,1,,,,,,,,,,,,,,,,repeat,letter,lettRpt,d,1.1924,noRew,,,,,,0,51,0,51,0,1,,,,,,,,,,,,,,,,,
297118,2022-11-14_14h43.16.630,vts_reward_expectancy_bt,2022.2.4,Win32,120.9774982,Chrome,1600,1067,,,,,0,549,,,,,,,,,,,,,,,,,B,181,circle,1,0,,,,,,,,,,,,,,,,repeat,letter,lettRpt,d,0.4587,noRew,,,,,,0,52,0,52,0,1,,,,,,,,,,,,,,,,,
297118,2022-11-14_14h43.16.630,vts_reward_expectancy_bt,2022.2.4,Win32,120.9774982,Chrome,1600,1067,,,,,0,549,,,,,,,,,,,,,,,,,S,125,star,1,0,,,,,,,,,,,,,,,,repeat,letter,lettRpt,f,0.984,noRew,,,,,,0,53,0,53,0,1,,,,,,,,,,,,,,,,,
297118,2022-11-14_14h43.16.630,vts_reward_expectancy_bt,2022.2.4,Win32,120.9774982,Chrome,1600,1067,,,,,0,549,,,,,,,,,,,,,,,,,F,139,circle,1,0,,,,,,,,,,,,,,,,repeat,letter,lettRpt,d,0.5503,noRew,,,,,,0,54,0,54,0,1,,,,,,,,,,,,,,,,,
297118,2022-11-14_14h43.16.630,vts_reward_expectancy_bt,2022.2.4,Win32,120.9774982,Chrome,1600,1067,,,,,0,549,,,,,,,,,,,,,,,,,H,167,star,1,0,,,,,,,,,,,,,,,,repeat,letter,lettRpt,d,0.8578,noRew,,,,,,0,55,0,55,0,1,,,,,,,,,,,,,,,,,
297118,2022-11-14_14h43.16.630,vts_reward_expectancy_bt,2022.2.4,Win32,120.9774982,Chrome,1600,1067,,,,,0,549,,,,,,,,,,,,,,,,,W,174,circle,1,0,,,,,,,,,,,,,,,,switch,number,numSwt,k,0.6544,noRew,,,,,,0,56,0,56,0,1,,,,,,,,,,,,,,,,,
297118,2022-11-14_14h43.16.630,vts_reward_expectancy_bt,2022.2.4,Win32,120.9774982,Chrome,1600,1067,,,,,0,549,,,,,,,,,,,,,,,,,B,146,hexagon,1,0,,,,,,,,,,,,,,,,repeat,number,numRpt,j,1.0001,noRew,,,,,,0,57,0,57,0,1,,,,,,,,,,,,,,,,,
297118,2022-11-14_14h43.16.630,vts_reward_expectancy_bt,2022.2.4,Win32,120.9774982,Chrome,1600,1067,,,,,0,549,,,,,,,,,,,,,,,,,H,139,star,1,0,,,,,,,,,,,,,,,,repeat,number,numRpt,j,0.6673,noRew,,,,,,0,58,0,58,0,1,,,,,,,,,,,,,,,,,
297118,2022-11-14_14h43.16.630,vts_reward_expectancy_bt,2022.2.4,Win32,120.9774982,Chrome,1600,1067,,,,,0,549,,,,,,,,,,,,,,,,,F,125,hexagon,1,0,,,,,,,,,,,,,,,,repeat,number,numRpt,j,1.4696,noRew,,,,,,0,59,0,59,0,1,,,,,,,,,,,,,,,,,
297118,2022-11-14_14h43.16.630,vts_reward_expectancy_bt,2022.2.4,Win32,120.9774982,Chrome,1600,1067,,,,,0,549,,,,,,,,,,,,,,,,,S,167,circle,-1,0,,,,,,,,,,,,,,,,switch,no_choice,NA,,,noRew,,,,,,0,60,0,60,0,1,,,,,,,,,,,,,,,,,
297118,2022-11-14_14h43.16.630,vts_reward_expectancy_bt,2022.2.4,Win32,120.9774982,Chrome,1600,1067,,,,,0,549,,,,,,,,,,,,,,,,,H,139,triangle,-1,0,,,,,,,,,,,,,,,,repeat,no_choice,NA,,,noRew,,,,,,0,61,0,61,0,1,,,,,,,,,,,,,,,,,
297118,2022-11-14_14h43.16.630,vts_reward_expectancy_bt,2022.2.4,Win32,120.9774982,Chrome,1600,1067,,,,,0,549,,,,,,,,,,,,,,,,,U,160,hexagon,-1,0,,,,,,,,,,,,,,,,repeat,no_choice,NA,,,noRew,,,,,,0,62,0,62,0,1,,,,,,,,,,,,,,,,,
297118,2022-11-14_14h43.16.630,vts_reward_expectancy_bt,2022.2.4,Win32,120.9774982,Chrome,1600,1067,,,,,0,549,,,,,,,,,,,,,,,,,D,132,star,-1,0,,,,,,,,,,,,,,,,repeat,no_choice,NA,,,noRew,,,,,,0,63,0,63,0,1,,,,,,,,,,,,,,,,,
297118,2022-11-14_14h43.16.630,vts_reward_expectancy_bt,2022.2.4,Win32,120.9774982,Chrome,1600,1067,,,,,,,,,,,,,,,,,,,,,,,,,,,,,,,,,,,,,,,,,,,,,,,,,,,,,,,,,,,,,,,,,,,,,,,,,,,,
297118,2022-11-14_14h43.16.630,vts_reward_expectancy_bt,2022.2.4,Win32,120.9774982,Chrome,1600,1067,,,,,10,559,,,,,,,,,,,,,,,,,B,174,triangle,1,0,,,,,,,,,,,,,,,,switch,letter,lettSwt,d,0.652,Lo,,,,,,0,,,,,,space,550.2445,low,0,0,0,0,1,,,,,,,,,
297118,2022-11-14_14h43.16.630,vts_reward_expectancy_bt,2022.2.4,Win32,120.9774982,Chrome,1600,1067,,,,,1,560,,,,,,,,,,,,,,,,,W,146,circle,1,0,,,,,,,,,,,,,,,,repeat,letter,lettRpt,f,1.7935,Lo,,,,,,0,,,,,,,,low,1,0,1,0,1,,,,,,,,,
297118,2022-11-14_14h43.16.630,vts_reward_expectancy_bt,2022.2.4,Win32,120.9774982,Chrome,1600,1067,,,,,0,560,,,,,,,,,,,,,,,,,H,132,hexagon,1,0,,,,,,,,,,,,,,,,repeat,letter,lettRpt,d,1.1911,Hi,,,,,,0,,,,,,,,low,2,0,2,0,1,,,,,,,,,
297118,2022-11-14_14h43.16.630,vts_reward_expectancy_bt,2022.2.4,Win32,120.9774982,Chrome,1600,1067,,,,,0,560,,,,,,,,,,,,,,,,,S,181,star,1,0,,,,,,,,,,,,,,,,repeat,letter,lettRpt,f,0.6156,Hi,,,,,,0,,,,,,,,low,3,0,3,0,1,,,,,,,,,
297118,2022-11-14_14h43.16.630,vts_reward_expectancy_bt,2022.2.4,Win32,120.9774982,Chrome,1600,1067,,,,,1,561,,,,,,,,,,,,,,,,,Y,160,triangle,1,0,,,,,,,,,,,,,,,,repeat,letter,lettRpt,f,0.6588,Lo,,,,,,0,,,,,,,,low,4,0,4,0,1,,,,,,,,,
297118,2022-11-14_14h43.16.630,vts_reward_expectancy_bt,2022.2.4,Win32,120.9774982,Chrome,1600,1067,,,,,10,571,,,,,,,,,,,,,,,,,D,139,circle,1,0,,,,,,,,,,,,,,,,switch,number,numSwt,j,0.7109,Lo,,,,,,0,,,,,,,,low,5,0,5,0,1,,,,,,,,,
297118,2022-11-14_14h43.16.630,vts_reward_expectancy_bt,2022.2.4,Win32,120.9774982,Chrome,1600,1067,,,,,1,572,,,,,,,,,,,,,,,,,U,125,hexagon,1,0,,,,,,,,,,,,,,,,repeat,number,numRpt,j,0.4906,Hi,,,,,,0,,,,,,,,low,6,0,6,0,1,,,,,,,,,
297118,2022-11-14_14h43.16.630,vts_reward_expectancy_bt,2022.2.4,Win32,120.9774982,Chrome,1600,1067,,,,,1,573,,,,,,,,,,,,,,,,,F,167,star,1,0,,,,,,,,,,,,,,,,repeat,number,numRpt,k,0.4091,Hi,,,,,,0,,,,,,,,low,7,0,7,0,1,,,,,,,,,
297118,2022-11-14_14h43.16.630,vts_reward_expectancy_bt,2022.2.4,Win32,120.9774982,Chrome,1600,1067,,,,,1,574,,,,,,,,,,,,,,,,,B,174,circle,1,0,,,,,,,,,,,,,,,,repeat,number,numRpt,k,0.5622,Lo,,,,,,0,,,,,,,,low,8,0,8,0,1,,,,,,,,,
297118,2022-11-14_14h43.16.630,vts_reward_expectancy_bt,2022.2.4,Win32,120.9774982,Chrome,1600,1067,,,,,0,574,,,,,,,,,,,,,,,,,W,146,hexagon,0,0,,,,,,,,,,,,,,,,repeat,number,NA,k,0.5525,Lo,,,,,,0,,,,,,,,low,9,0,9,0,1,,,,,,,,,
297118,2022-11-14_14h43.16.630,vts_reward_expectancy_bt,2022.2.4,Win32,120.9774982,Chrome,1600,1067,,,,,10,584,,,,,,,,,,,,,,,,,H,132,triangle,1,1,,,,,,,,,,,,,,,,repeat,number,numRpt,j,0.6485,Lo,,,,,,0,,,,,,,,low,10,0,10,0,1,,,,,,,,,
297118,2022-11-14_14h43.16.630,vts_reward_expectancy_bt,2022.2.4,Win32,120.9774982,Chrome,1600,1067,,,,,0,584,,,,,,,,,,,,,,,,,S,181,star,0,0,,,,,,,,,,,,,,,,repeat,number,NA,j,1.1334,Lo,,,,,,0,,,,,,,,low,11,0,11,0,1,,,,,,,,,
297118,2022-11-14_14h43.16.630,vts_reward_expectancy_bt,2022.2.4,Win32,120.9774982,Chrome,1600,1067,,,,,10,594,,,,,,,,,,,,,,,,,Y,160,hexagon,1,1,,,,,,,,,,,,,,,,repeat,number,numRpt,k,0.5669,Hi,,,,,,0,,,,,,,,low,12,0,12,0,1,,,,,,,,,
297118,2022-11-14_14h43.16.630,vts_reward_expectancy_bt,2022.2.4,Win32,120.9774982,Chrome,1600,1067,,,,,10,604,,,,,,,,,,,,,,,,,D,139,triangle,1,0,,,,,,,,,,,,,,,,repeat,number,numRpt,j,0.6184,Lo,,,,,,0,,,,,,,,low,13,0,13,0,1,,,,,,,,,
297118,2022-11-14_14h43.16.630,vts_reward_expectancy_bt,2022.2.4,Win32,120.9774982,Chrome,1600,1067,,,,,10,614,,,,,,,,,,,,,,,,,U,125,circle,1,0,,,,,,,,,,,,,,,,repeat,number,numRpt,j,1.0089,Lo,,,,,,0,,,,,,,,low,14,0,14,0,1,,,,,,,,,
297118,2022-11-14_14h43.16.630,vts_reward_expectancy_bt,2022.2.4,Win32,120.9774982,Chrome,1600,1067,,,,,0,614,,,,,,,,,,,,,,,,,F,167,star,0,0,,,,,,,,,,,,,,,,repeat,number,NA,j,0.8334,Lo,,,,,,0,,,,,,,,low,15,0,15,0,1,,,,,,,,,
297118,2022-11-14_14h43.16.630,vts_reward_expectancy_bt,2022.2.4,Win32,120.9774982,Chrome,1600,1067,,,,,1,615,,,,,,,,,,,,,,,,,H,132,triangle,1,1,,,,,,,,,,,,,,,,repeat,number,numRpt,j,0.543,Lo,,,,,,0,,,,,,,,low,16,0,16,0,1,,,,,,,,,
297118,2022-11-14_14h43.16.630,vts_reward_expectancy_bt,2022.2.4,Win32,120.9774982,Chrome,1600,1067,,,,,1,616,,,,,,,,,,,,,,,,,F,167,circle,1,0,,,,,,,,,,,,,,,,repeat,number,numRpt,k,1.2896,Lo,,,,,,0,,,,,,,,low,17,0,17,0,1,,,,,,,,,
297118,2022-11-14_14h43.16.630,vts_reward_expectancy_bt,2022.2.4,Win32,120.9774982,Chrome,1600,1067,,,,,1,617,,,,,,,,,,,,,,,,,U,181,star,1,0,,,,,,,,,,,,,,,,repeat,number,numRpt,k,0.8321,Hi,,,,,,0,,,,,,,,low,18,0,18,0,1,,,,,,,,,
297118,2022-11-14_14h43.16.630,vts_reward_expectancy_bt,2022.2.4,Win32,120.9774982,Chrome,1600,1067,,,,,0,617,,,,,,,,,,,,,,,,,D,160,hexagon,1,0,,,,,,,,,,,,,,,,repeat,number,numRpt,k,0.8671,Hi,,,,,,0,,,,,,,,low,19,0,19,0,1,,,,,,,,,
297118,2022-11-14_14h43.16.630,vts_reward_expectancy_bt,2022.2.4,Win32,120.9774982,Chrome,1600,1067,,,,,1,618,,,,,,,,,,,,,,,,,B,174,circle,1,0,,,,,,,,,,,,,,,,repeat,number,numRpt,k,0.4589,Lo,,,,,,0,,,,,,,,low,20,0,20,0,1,,,,,,,,,
297118,2022-11-14_14h43.16.630,vts_reward_expectancy_bt,2022.2.4,Win32,120.9774982,Chrome,1600,1067,,,,,1,619,,,,,,,,,,,,,,,,,W,139,star,1,0,,,,,,,,,,,,,,,,repeat,number,numRpt,j,0.8024,Hi,,,,,,0,,,,,,,,low,21,0,21,0,1,,,,,,,,,
297118,2022-11-14_14h43.16.630,vts_reward_expectancy_bt,2022.2.4,Win32,120.9774982,Chrome,1600,1067,,,,,1,620,,,,,,,,,,,,,,,,,S,146,triangle,1,0,,,,,,,,,,,,,,,,switch,letter,lettSwt,f,0.5648,Lo,,,,,,0,,,,,,,,low,22,0,22,0,1,,,,,,,,,
297118,2022-11-14_14h43.16.630,vts_reward_expectancy_bt,2022.2.4,Win32,120.9774982,Chrome,1600,1067,,,,,0,620,,,,,,,,,,,,,,,,,Y,125,hexagon,0,0,,,,,,,,,,,,,,,,repeat,letter,NA,d,0.8089,Lo,,,,,,0,,,,,,,,low,23,0,23,0,1,,,,,,,,,
297118,2022-11-14_14h43.16.630,vts_reward_expectancy_bt,2022.2.4,Win32,120.9774982,Chrome,1600,1067,,,,,0,620,,,,,,,,,,,,,,,,,U,167,star,1,1,,,,,,,,,,,,,,,,repeat,letter,lettRpt,f,0.9675,Hi,,,,,,0,,,,,,,,low,24,0,24,0,1,,,,,,,,,
297118,2022-11-14_14h43.16.630,vts_reward_expectancy_bt,2022.2.4,Win32,120.9774982,Chrome,1600,1067,,,,,1,621,,,,,,,,,,,,,,,,,F,146,triangle,1,0,,,,,,,,,,,,,,,,switch,number,numSwt,j,0.7447,Lo,,,,,,0,,,,,,,,low,25,0,25,0,1,,,,,,,,,
297118,2022-11-14_14h43.16.630,vts_reward_expectancy_bt,2022.2.4,Win32,120.9774982,Chrome,1600,1067,,,,,1,622,,,,,,,,,,,,,,,,,Y,132,circle,1,0,,,,,,,,,,,,,,,,repeat,number,numRpt,j,0.5997,Lo,,,,,,0,,,,,,,,low,26,0,26,0,1,,,,,,,,,
297118,2022-11-14_14h43.16.630,vts_reward_expectancy_bt,2022.2.4,Win32,120.9774982,Chrome,1600,1067,,,,,10,632,,,,,,,,,,,,,,,,,D,181,hexagon,1,0,,,,,,,,,,,,,,,,repeat,number,numRpt,k,0.7053,Hi,,,,,,0,,,,,,,,low,27,0,27,0,1,,,,,,,,,
297118,2022-11-14_14h43.16.630,vts_reward_expectancy_bt,2022.2.4,Win32,120.9774982,Chrome,1600,1067,,,,,0,632,,,,,,,,,,,,,,,,,H,139,hexagon,-1,0,,,,,,,,,,,,,,,,switch,no_choice,NA,,,Hi,,,,,,0,,,,,,,,low,28,0,28,0,1,,,,,,,,,
297118,2022-11-14_14h43.16.630,vts_reward_expectancy_bt,2022.2.4,Win32,120.9774982,Chrome,1600,1067,,,,,1,633,,,,,,,,,,,,,,,,,S,125,circle,1,0,,,,,,,,,,,,,,,,switch,number,numSwt,j,0.4836,Lo,,,,,,0,,,,,,,,low,29,0,29,0,1,,,,,,,,,
297118,2022-11-14_14h43.16.630,vts_reward_expectancy_bt,2022.2.4,Win32,120.9774982,Chrome,1600,1067,,,,,0,633,,,,,,,,,,,,,,,,,B,174,star,1,0,,,,,,,,,,,,,,,,repeat,number,numRpt,k,1.1421,Hi,,,,,,0,,,,,,,,low,30,0,30,0,1,,,,,,,,,
297118,2022-11-14_14h43.16.630,vts_reward_expectancy_bt,2022.2.4,Win32,120.9774982,Chrome,1600,1067,,,,,1,634,,,,,,,,,,,,,,,,,W,160,triangle,1,0,,,,,,,,,,,,,,,,repeat,number,numRpt,k,0.4919,Lo,,,,,,0,,,,,,,,low,31,0,31,0,1,,,,,,,,,
297118,2022-11-14_14h43.16.630,vts_reward_expectancy_bt,2022.2.4,Win32,120.9774982,Chrome,1600,1067,,,,,0,634,,,,,,,,,,,,,,,,,Y,146,hexagon,0,0,,,,,,,,,,,,,,,,repeat,number,NA,k,0.6197,Lo,,,,,,1,,,,,,space,26.3392,low,0,0,0,0,1,,,,,,,,,
297118,2022-11-14_14h43.16.630,vts_reward_expectancy_bt,2022.2.4,Win32,120.9774982,Chrome,1600,1067,,,,,1,635,,,,,,,,,,,,,,,,,D,174,triangle,1,1,,,,,,,,,,,,,,,,repeat,number,numRpt,k,0.5068,Lo,,,,,,1,,,,,,,,low,1,0,1,0,1,,,,,,,,,
297118,2022-11-14_14h43.16.630,vts_reward_expectancy_bt,2022.2.4,Win32,120.9774982,Chrome,1600,1067,,,,,1,636,,,,,,,,,,,,,,,,,B,167,star,1,0,,,,,,,,,,,,,,,,repeat,number,numRpt,k,0.4404,Hi,,,,,,1,,,,,,,,low,2,0,2,0,1,,,,,,,,,
297118,2022-11-14_14h43.16.630,vts_reward_expectancy_bt,2022.2.4,Win32,120.9774982,Chrome,1600,1067,,,,,1,637,,,,,,,,,,,,,,,,,U,181,circle,1,0,,,,,,,,,,,,,,,,repeat,number,numRpt,k,0.4084,Lo,,,,,,1,,,,,,,,low,3,0,3,0,1,,,,,,,,,
297118,2022-11-14_14h43.16.630,vts_reward_expectancy_bt,2022.2.4,Win32,120.9774982,Chrome,1600,1067,,,,,0,637,,,,,,,,,,,,,,,,,W,132,hexagon,1,0,,,,,,,,,,,,,,,,repeat,number,numRpt,j,0.7311,Hi,,,,,,1,,,,,,,,low,4,0,4,0,1,,,,,,,,,
297118,2022-11-14_14h43.16.630,vts_reward_expectancy_bt,2022.2.4,Win32,120.9774982,Chrome,1600,1067,,,,,1,638,,,,,,,,,,,,,,,,,S,160,triangle,1,0,,,,,,,,,,,,,,,,repeat,number,numRpt,k,0.5471,Lo,,,,,,1,,,,,,,,low,5,0,5,0,1,,,,,,,,,
297118,2022-11-14_14h43.16.630,vts_reward_expectancy_bt,2022.2.4,Win32,120.9774982,Chrome,1600,1067,,,,,10,648,,,,,,,,,,,,,,,,,F,125,star,1,0,,,,,,,,,,,,,,,,repeat,number,numRpt,j,0.509,Hi,,,,,,1,,,,,,,,low,6,0,6,0,1,,,,,,,,,
297118,2022-11-14_14h43.16.630,vts_reward_expectancy_bt,2022.2.4,Win32,120.9774982,Chrome,1600,1067,,,,,1,649,,,,,,,,,,,,,,,,,H,139,circle,1,0,,,,,,,,,,,,,,,,repeat,number,numRpt,j,0.6166,Lo,,,,,,1,,,,,,,,low,7,0,7,0,1,,,,,,,,,
297118,2022-11-14_14h43.16.630,vts_reward_expectancy_bt,2022.2.4,Win32,120.9774982,Chrome,1600,1067,,,,,1,650,,,,,,,,,,,,,,,,,Y,146,star,1,0,,,,,,,,,,,,,,,,switch,letter,lettSwt,f,0.499,Hi,,,,,,1,,,,,,,,low,8,0,8,0,1,,,,,,,,,
297118,2022-11-14_14h43.16.630,vts_reward_expectancy_bt,2022.2.4,Win32,120.9774982,Chrome,1600,1067,,,,,10,660,,,,,,,,,,,,,,,,,D,174,triangle,1,0,,,,,,,,,,,,,,,,repeat,letter,lettRpt,d,0.5239,Lo,,,,,,1,,,,,,,,low,9,0,9,0,1,,,,,,,,,
297118,2022-11-14_14h43.16.630,vts_reward_expectancy_bt,2022.2.4,Win32,120.9774982,Chrome,1600,1067,,,,,1,661,,,,,,,,,,,,,,,,,B,167,hexagon,1,0,,,,,,,,,,,,,,,,repeat,letter,lettRpt,d,0.7503,Hi,,,,,,1,,,,,,,,low,10,0,10,0,1,,,,,,,,,
297118,2022-11-14_14h43.16.630,vts_reward_expectancy_bt,2022.2.4,Win32,120.9774982,Chrome,1600,1067,,,,,1,662,,,,,,,,,,,,,,,,,U,181,circle,1,0,,,,,,,,,,,,,,,,repeat,letter,lettRpt,f,0.6446,Lo,,,,,,1,,,,,,,,low,11,0,11,0,1,,,,,,,,,
297118,2022-11-14_14h43.16.630,vts_reward_expectancy_bt,2022.2.4,Win32,120.9774982,Chrome,1600,1067,,,,,1,663,,,,,,,,,,,,,,,,,W,132,triangle,1,0,,,,,,,,,,,,,,,,repeat,letter,lettRpt,f,0.6602,Lo,,,,,,1,,,,,,,,low,12,0,12,0,1,,,,,,,,,
297118,2022-11-14_14h43.16.630,vts_reward_expectancy_bt,2022.2.4,Win32,120.9774982,Chrome,1600,1067,,,,,10,673,,,,,,,,,,,,,,,,,S,160,hexagon,1,0,,,,,,,,,,,,,,,,repeat,letter,lettRpt,f,0.5193,Hi,,,,,,1,,,,,,,,low,13,0,13,0,1,,,,,,,,,
297118,2022-11-14_14h43.16.630,vts_reward_expectancy_bt,2022.2.4,Win32,120.9774982,Chrome,1600,1067,,,,,1,674,,,,,,,,,,,,,,,,,F,125,star,1,0,,,,,,,,,,,,,,,,repeat,letter,lettRpt,d,0.529,Hi,,,,,,1,,,,,,,,low,14,0,14,0,1,,,,,,,,,
297118,2022-11-14_14h43.16.630,vts_reward_expectancy_bt,2022.2.4,Win32,120.9774982,Chrome,1600,1067,,,,,1,675,,,,,,,,,,,,,,,,,H,139,circle,1,0,,,,,,,,,,,,,,,,repeat,letter,lettRpt,d,0.5804,Lo,,,,,,1,,,,,,,,low,15,0,15,0,1,,,,,,,,,
297118,2022-11-14_14h43.16.630,vts_reward_expectancy_bt,2022.2.4,Win32,120.9774982,Chrome,1600,1067,,,,,1,676,,,,,,,,,,,,,,,,,B,167,triangle,1,0,,,,,,,,,,,,,,,,repeat,letter,lettRpt,d,0.5114,Lo,,,,,,1,,,,,,,,low,16,0,16,0,1,,,,,,,,,
297118,2022-11-14_14h43.16.630,vts_reward_expectancy_bt,2022.2.4,Win32,120.9774982,Chrome,1600,1067,,,,,0,676,,,,,,,,,,,,,,,,,D,181,star,1,0,,,,,,,,,,,,,,,,repeat,letter,lettRpt,d,0.7583,Hi,,,,,,1,,,,,,,,low,17,0,17,0,1,,,,,,,,,
297118,2022-11-14_14h43.16.630,vts_reward_expectancy_bt,2022.2.4,Win32,120.9774982,Chrome,1600,1067,,,,,10,686,,,,,,,,,,,,,,,,,S,174,hexagon,1,0,,,,,,,,,,,,,,,,repeat,letter,lettRpt,f,0.4773,Hi,,,,,,1,,,,,,,,low,18,0,18,0,1,,,,,,,,,
297118,2022-11-14_14h43.16.630,vts_reward_expectancy_bt,2022.2.4,Win32,120.9774982,Chrome,1600,1067,,,,,1,687,,,,,,,,,,,,,,,,,Y,132,circle,1,0,,,,,,,,,,,,,,,,repeat,letter,lettRpt,f,0.5523,Lo,,,,,,1,,,,,,,,low,19,0,19,0,1,,,,,,,,,
297118,2022-11-14_14h43.16.630,vts_reward_expectancy_bt,2022.2.4,Win32,120.9774982,Chrome,1600,1067,,,,,1,688,,,,,,,,,,,,,,,,,U,146,circle,1,0,,,,,,,,,,,,,,,,repeat,letter,lettRpt,f,0.7021,Lo,,,,,,1,,,,,,,,low,20,0,20,0,1,,,,,,,,,
297118,2022-11-14_14h43.16.630,vts_reward_expectancy_bt,2022.2.4,Win32,120.9774982,Chrome,1600,1067,,,,,1,689,,,,,,,,,,,,,,,,,W,160,hexagon,1,0,,,,,,,,,,,,,,,,switch,number,numSwt,k,0.4533,Hi,,,,,,1,,,,,,,,low,21,0,21,0,1,,,,,,,,,
297118,2022-11-14_14h43.16.630,vts_reward_expectancy_bt,2022.2.4,Win32,120.9774982,Chrome,1600,1067,,,,,10,699,,,,,,,,,,,,,,,,,H,139,star,1,0,,,,,,,,,,,,,,,,repeat,number,numRpt,j,0.5163,Hi,,,,,,1,,,,,,,,low,22,0,22,0,1,,,,,,,,,
297118,2022-11-14_14h43.16.630,vts_reward_expectancy_bt,2022.2.4,Win32,120.9774982,Chrome,1600,1067,,,,,1,700,,,,,,,,,,,,,,,,,F,125,triangle,1,0,,,,,,,,,,,,,,,,repeat,number,numRpt,j,0.7667,Lo,,,,,,1,,,,,,,,low,23,0,23,0,1,,,,,,,,,
297118,2022-11-14_14h43.16.630,vts_reward_expectancy_bt,2022.2.4,Win32,120.9774982,Chrome,1600,1067,,,,,0,700,,,,,,,,,,,,,,,,,U,167,hexagon,1,0,,,,,,,,,,,,,,,,repeat,number,numRpt,k,0.9113,Hi,,,,,,1,,,,,,,,low,24,0,24,0,1,,,,,,,,,
297118,2022-11-14_14h43.16.630,vts_reward_expectancy_bt,2022.2.4,Win32,120.9774982,Chrome,1600,1067,,,,,10,710,,,,,,,,,,,,,,,,,F,160,triangle,1,0,,,,,,,,,,,,,,,,repeat,number,numRpt,k,0.4702,Lo,,,,,,1,,,,,,,,low,25,0,25,0,1,,,,,,,,,
297118,2022-11-14_14h43.16.630,vts_reward_expectancy_bt,2022.2.4,Win32,120.9774982,Chrome,1600,1067,,,,,10,720,,,,,,,,,,,,,,,,,W,132,star,1,0,,,,,,,,,,,,,,,,repeat,number,numRpt,j,0.5157,Hi,,,,,,1,,,,,,,,low,26,0,26,0,1,,,,,,,,,
297118,2022-11-14_14h43.16.630,vts_reward_expectancy_bt,2022.2.4,Win32,120.9774982,Chrome,1600,1067,,,,,10,730,,,,,,,,,,,,,,,,,Y,181,circle,1,0,,,,,,,,,,,,,,,,repeat,number,numRpt,k,0.683,Lo,,,,,,1,,,,,,,,low,27,0,27,0,1,,,,,,,,,
297118,2022-11-14_14h43.16.630,vts_reward_expectancy_bt,2022.2.4,Win32,120.9774982,Chrome,1600,1067,,,,,0,730,,,,,,,,,,,,,,,,,S,146,hexagon,1,0,,,,,,,,,,,,,,,,repeat,number,numRpt,j,0.7012,Hi,,,,,,1,,,,,,,,low,28,0,28,0,1,,,,,,,,,
297118,2022-11-14_14h43.16.630,vts_reward_expectancy_bt,2022.2.4,Win32,120.9774982,Chrome,1600,1067,,,,,10,740,,,,,,,,,,,,,,,,,H,139,triangle,1,0,,,,,,,,,,,,,,,,repeat,number,numRpt,j,0.6102,Lo,,,,,,1,,,,,,,,low,29,0,29,0,1,,,,,,,,,
297118,2022-11-14_14h43.16.630,vts_reward_expectancy_bt,2022.2.4,Win32,120.9774982,Chrome,1600,1067,,,,,0,740,,,,,,,,,,,,,,,,,D,174,star,-1,0,,,,,,,,,,,,,,,,switch,no_choice,NA,,,Lo,,,,,,1,,,,,,,,low,30,0,30,0,1,,,,,,,,,
297118,2022-11-14_14h43.16.630,vts_reward_expectancy_bt,2022.2.4,Win32,120.9774982,Chrome,1600,1067,,,,,10,750,,,,,,,,,,,,,,,,,B,125,circle,1,0,,,,,,,,,,,,,,,,switch,number,numSwt,j,0.7593,Lo,,,,,,1,,,,,,,,low,31,0,31,0,1,,,,,,,,,
297118,2022-11-14_14h43.16.630,vts_reward_expectancy_bt,2022.2.4,Win32,120.9774982,Chrome,1600,1067,,,,,0,750,,,,,,,,,,,,,,,,,U,160,star,1,0,,,,,,,,,,,,,,,,switch,letter,lettSwt,f,0.7731,Hi,,,,,,2,,,,,,space,3.7736,low,0,0,0,0,1,,,,,,,,,
297118,2022-11-14_14h43.16.630,vts_reward_expectancy_bt,2022.2.4,Win32,120.9774982,Chrome,1600,1067,,,,,10,760,,,,,,,,,,,,,,,,,D,146,circle,1,0,,,,,,,,,,,,,,,,repeat,letter,lettRpt,d,1.4408,Lo,,,,,,2,,,,,,,,low,1,0,1,0,1,,,,,,,,,
297118,2022-11-14_14h43.16.630,vts_reward_expectancy_bt,2022.2.4,Win32,120.9774982,Chrome,1600,1067,,,,,10,770,,,,,,,,,,,,,,,,,S,181,triangle,1,0,,,,,,,,,,,,,,,,repeat,letter,lettRpt,f,0.7839,Lo,,,,,,2,,,,,,,,low,2,0,2,0,1,,,,,,,,,
297118,2022-11-14_14h43.16.630,vts_reward_expectancy_bt,2022.2.4,Win32,120.9774982,Chrome,1600,1067,,,,,0,770,,,,,,,,,,,,,,,,,B,139,hexagon,1,0,,,,,,,,,,,,,,,,repeat,letter,lettRpt,d,0.9817,Hi,,,,,,2,,,,,,,,low,3,0,3,0,1,,,,,,,,,
297118,2022-11-14_14h43.16.630,vts_reward_expectancy_bt,2022.2.4,Win32,120.9774982,Chrome,1600,1067,,,,,0,770,,,,,,,,,,,,,,,,,Y,174,star,1,0,,,,,,,,,,,,,,,,repeat,letter,lettRpt,f,0.6773,Hi,,,,,,2,,,,,,,,low,4,0,4,0,1,,,,,,,,,
297118,2022-11-14_14h43.16.630,vts_reward_expectancy_bt,2022.2.4,Win32,120.9774982,Chrome,1600,1067,,,,,1,771,,,,,,,,,,,,,,,,,H,125,circle,1,0,,,,,,,,,,,,,,,,repeat,letter,lettRpt,d,0.4863,Lo,,,,,,2,,,,,,,,low,5,0,5,0,1,,,,,,,,,
297118,2022-11-14_14h43.16.630,vts_reward_expectancy_bt,2022.2.4,Win32,120.9774982,Chrome,1600,1067,,,,,1,772,,,,,,,,,,,,,,,,,F,167,triangle,1,0,,,,,,,,,,,,,,,,repeat,letter,lettRpt,d,0.7086,Lo,,,,,,2,,,,,,,,low,6,0,6,0,1,,,,,,,,,
297118,2022-11-14_14h43.16.630,vts_reward_expectancy_bt,2022.2.4,Win32,120.9774982,Chrome,1600,1067,,,,,1,773,,,,,,,,,,,,,,,,,W,132,hexagon,1,0,,,,,,,,,,,,,,,,repeat,letter,lettRpt,f,0.4842,Hi,,,,,,2,,,,,,,,low,7,0,7,0,1,,,,,,,,,
297118,2022-11-14_14h43.16.630,vts_reward_expectancy_bt,2022.2.4,Win32,120.9774982,Chrome,1600,1067,,,,,1,774,,,,,,,,,,,,,,,,,U,160,triangle,1,0,,,,,,,,,,,,,,,,repeat,letter,lettRpt,f,0.5929,Lo,,,,,,2,,,,,,,,low,8,0,8,0,1,,,,,,,,,
297118,2022-11-14_14h43.16.630,vts_reward_expectancy_bt,2022.2.4,Win32,120.9774982,Chrome,1600,1067,,,,,10,784,,,,,,,,,,,,,,,,,D,146,circle,1,0,,,,,,,,,,,,,,,,repeat,letter,lettRpt,d,1.023,Lo,,,,,,2,,,,,,,,low,9,0,9,0,1,,,,,,,,,
297118,2022-11-14_14h43.16.630,vts_reward_expectancy_bt,2022.2.4,Win32,120.9774982,Chrome,1600,1067,,,,,0,784,,,,,,,,,,,,,,,,,S,181,star,1,0,,,,,,,,,,,,,,,,repeat,letter,lettRpt,f,0.8968,Hi,,,,,,2,,,,,,,,low,10,0,10,0,1,,,,,,,,,
297118,2022-11-14_14h43.16.630,vts_reward_expectancy_bt,2022.2.4,Win32,120.9774982,Chrome,1600,1067,,,,,0,784,,,,,,,,,,,,,,,,,B,139,hexagon,1,0,,,,,,,,,,,,,,,,repeat,letter,lettRpt,d,0.8757,Hi,,,,,,2,,,,,,,,low,11,0,11,0,1,,,,,,,,,
297118,2022-11-14_14h43.16.630,vts_reward_expectancy_bt,2022.2.4,Win32,120.9774982,Chrome,1600,1067,,,,,10,794,,,,,,,,,,,,,,,,,Y,174,hexagon,1,0,,,,,,,,,,,,,,,,repeat,letter,lettRpt,f,0.4665,Hi,,,,,,2,,,,,,,,low,12,0,12,0,1,,,,,,,,,
297118,2022-11-14_14h43.16.630,vts_reward_expectancy_bt,2022.2.4,Win32,120.9774982,Chrome,1600,1067,,,,,0,794,,,,,,,,,,,,,,,,,H,125,star,1,0,,,,,,,,,,,,,,,,repeat,letter,lettRpt,d,1.1436,Hi,,,,,,2,,,,,,,,low,13,0,13,0,1,,,,,,,,,
297118,2022-11-14_14h43.16.630,vts_reward_expectancy_bt,2022.2.4,Win32,120.9774982,Chrome,1600,1067,,,,,1,795,,,,,,,,,,,,,,,,,F,167,triangle,1,0,,,,,,,,,,,,,,,,repeat,letter,lettRpt,d,0.5207,Lo,,,,,,2,,,,,,,,low,14,0,14,0,1,,,,,,,,,
297118,2022-11-14_14h43.16.630,vts_reward_expectancy_bt,2022.2.4,Win32,120.9774982,Chrome,1600,1067,,,,,0,795,,,,,,,,,,,,,,,,,W,132,circle,0,0,,,,,,,,,,,,,,,,repeat,letter,NA,d,1.6709,Lo,,,,,,2,,,,,,,,low,15,0,15,0,1,,,,,,,,,
297118,2022-11-14_14h43.16.630,vts_reward_expectancy_bt,2022.2.4,Win32,120.9774982,Chrome,1600,1067,,,,,1,796,,,,,,,,,,,,,,,,,S,132,circle,1,1,,,,,,,,,,,,,,,,repeat,letter,lettRpt,f,1.1373,Lo,,,,,,2,,,,,,,,low,16,0,16,0,1,,,,,,,,,
297118,2022-11-14_14h43.16.630,vts_reward_expectancy_bt,2022.2.4,Win32,120.9774982,Chrome,1600,1067,,,,,10,806,,,,,,,,,,,,,,,,,F,139,triangle,1,0,,,,,,,,,,,,,,,,repeat,letter,lettRpt,d,0.7587,Lo,,,,,,2,,,,,,,,low,17,0,17,0,1,,,,,,,,,
297118,2022-11-14_14h43.16.630,vts_reward_expectancy_bt,2022.2.4,Win32,120.9774982,Chrome,1600,1067,,,,,0,806,,,,,,,,,,,,,,,,,B,181,star,1,0,,,,,,,,,,,,,,,,repeat,letter,lettRpt,d,0.6936,Hi,,,,,,2,,,,,,,,low,18,0,18,0,1,,,,,,,,,
297118,2022-11-14_14h43.16.630,vts_reward_expectancy_bt,2022.2.4,Win32,120.9774982,Chrome,1600,1067,,,,,1,807,,,,,,,,,,,,,,,,,W,167,hexagon,1,0,,,,,,,,,,,,,,,,repeat,letter,lettRpt,f,0.468,Hi,,,,,,2,,,,,,,,low,19,0,19,0,1,,,,,,,,,
297118,2022-11-14_14h43.16.630,vts_reward_expectancy_bt,2022.2.4,Win32,120.9774982,Chrome,1600,1067,,,,,0,807,,,,,,,,,,,,,,,,,Y,146,star,1,0,,,,,,,,,,,,,,,,switch,number,numSwt,j,1.1302,Hi,,,,,,2,,,,,,,,low,20,0,20,0,1,,,,,,,,,
297118,2022-11-14_14h43.16.630,vts_reward_expectancy_bt,2022.2.4,Win32,120.9774982,Chrome,1600,1067,,,,,0,807,,,,,,,,,,,,,,,,,H,125,hexagon,1,0,,,,,,,,,,,,,,,,repeat,number,numRpt,j,1.3444,Hi,,,,,,2,,,,,,,,low,21,0,21,0,1,,,,,,,,,
297118,2022-11-14_14h43.16.630,vts_reward_expectancy_bt,2022.2.4,Win32,120.9774982,Chrome,1600,1067,,,,,10,817,,,,,,,,,,,,,,,,,D,174,triangle,1,0,,,,,,,,,,,,,,,,repeat,number,numRpt,k,0.8241,Lo,,,,,,2,,,,,,,,low,22,0,22,0,1,,,,,,,,,
297118,2022-11-14_14h43.16.630,vts_reward_expectancy_bt,2022.2.4,Win32,120.9774982,Chrome,1600,1067,,,,,10,827,,,,,,,,,,,,,,,,,U,160,circle,1,0,,,,,,,,,,,,,,,,repeat,number,numRpt,k,0.7539,Lo,,,,,,2,,,,,,,,low,23,0,23,0,1,,,,,,,,,
297118,2022-11-14_14h43.16.630,vts_reward_expectancy_bt,2022.2.4,Win32,120.9774982,Chrome,1600,1067,,,,,0,827,,,,,,,,,,,,,,,,,B,160,hexagon,1,0,,,,,,,,,,,,,,,,repeat,number,numRpt,k,0.5249,Hi,,,,,,2,,,,,,,,low,24,0,24,0,1,,,,,,,,,
297118,2022-11-14_14h43.16.630,vts_reward_expectancy_bt,2022.2.4,Win32,120.9774982,Chrome,1600,1067,,,,,0,827,,,,,,,,,,,,,,,,,Y,167,star,1,0,,,,,,,,,,,,,,,,repeat,number,numRpt,k,0.5915,Hi,,,,,,2,,,,,,,,low,25,0,25,0,1,,,,,,,,,
297118,2022-11-14_14h43.16.630,vts_reward_expectancy_bt,2022.2.4,Win32,120.9774982,Chrome,1600,1067,,,,,1,828,,,,,,,,,,,,,,,,,D,174,circle,1,0,,,,,,,,,,,,,,,,repeat,number,numRpt,k,0.4336,Lo,,,,,,2,,,,,,,,low,26,0,26,0,1,,,,,,,,,
297118,2022-11-14_14h43.16.630,vts_reward_expectancy_bt,2022.2.4,Win32,120.9774982,Chrome,1600,1067,,,,,10,838,,,,,,,,,,,,,,,,,H,132,triangle,1,0,,,,,,,,,,,,,,,,repeat,number,numRpt,j,0.6751,Lo,,,,,,2,,,,,,,,low,27,0,27,0,1,,,,,,,,,
297118,2022-11-14_14h43.16.630,vts_reward_expectancy_bt,2022.2.4,Win32,120.9774982,Chrome,1600,1067,,,,,1,839,,,,,,,,,,,,,,,,,W,125,star,1,0,,,,,,,,,,,,,,,,repeat,number,numRpt,j,0.4845,Hi,,,,,,2,,,,,,,,low,28,0,28,0,1,,,,,,,,,
297118,2022-11-14_14h43.16.630,vts_reward_expectancy_bt,2022.2.4,Win32,120.9774982,Chrome,1600,1067,,,,,10,849,,,,,,,,,,,,,,,,,S,139,circle,1,0,,,,,,,,,,,,,,,,repeat,number,numRpt,j,0.6348,Lo,,,,,,2,,,,,,,,low,29,0,29,0,1,,,,,,,,,
297118,2022-11-14_14h43.16.630,vts_reward_expectancy_bt,2022.2.4,Win32,120.9774982,Chrome,1600,1067,,,,,0,849,,,,,,,,,,,,,,,,,F,146,triangle,0,0,,,,,,,,,,,,,,,,repeat,number,NA,k,0.5407,Lo,,,,,,2,,,,,,,,low,30,0,30,0,1,,,,,,,,,
297118,2022-11-14_14h43.16.630,vts_reward_expectancy_bt,2022.2.4,Win32,120.9774982,Chrome,1600,1067,,,,,0,849,,,,,,,,,,,,,,,,,U,181,hexagon,1,1,,,,,,,,,,,,,,,,repeat,number,numRpt,k,0.5355,Hi,,,,,,2,,,,,,,,low,31,0,31,0,1,,,,,,,,,
297118,2022-11-14_14h43.16.630,vts_reward_expectancy_bt,2022.2.4,Win32,120.9774982,Chrome,1600,1067,,,,,1,850,,,,,,,,,,,,,,,,,H,139,triangle,1,0,,,,,,,,,,,,,,,,switch,letter,lettSwt,d,0.7158,Lo,,,,,,3,,,,,,space,10.4111,low,0,0,0,0,1,,,,,,,,,
297118,2022-11-14_14h43.16.630,vts_reward_expectancy_bt,2022.2.4,Win32,120.9774982,Chrome,1600,1067,,,,,0,850,,,,,,,,,,,,,,,,,U,132,hexagon,1,0,,,,,,,,,,,,,,,,repeat,letter,lettRpt,f,1.073,Hi,,,,,,3,,,,,,,,low,1,0,1,0,1,,,,,,,,,
297118,2022-11-14_14h43.16.630,vts_reward_expectancy_bt,2022.2.4,Win32,120.9774982,Chrome,1600,1067,,,,,1,851,,,,,,,,,,,,,,,,,Y,174,star,1,0,,,,,,,,,,,,,,,,repeat,letter,lettRpt,f,0.6003,Hi,,,,,,3,,,,,,,,low,2,0,2,0,1,,,,,,,,,
297118,2022-11-14_14h43.16.630,vts_reward_expectancy_bt,2022.2.4,Win32,120.9774982,Chrome,1600,1067,,,,,0,851,,,,,,,,,,,,,,,,,S,146,circle,0,0,,,,,,,,,,,,,,,,repeat,letter,NA,d,0.7149,Hi,,,,,,3,,,,,,,,low,3,0,3,0,1,,,,,,,,,
297118,2022-11-14_14h43.16.630,vts_reward_expectancy_bt,2022.2.4,Win32,120.9774982,Chrome,1600,1067,,,,,1,852,,,,,,,,,,,,,,,,,F,125,triangle,1,1,,,,,,,,,,,,,,,,repeat,letter,lettRpt,d,0.5754,Lo,,,,,,3,,,,,,,,low,4,0,4,0,1,,,,,,,,,
297118,2022-11-14_14h43.16.630,vts_reward_expectancy_bt,2022.2.4,Win32,120.9774982,Chrome,1600,1067,,,,,0,852,,,,,,,,,,,,,,,,,B,160,hexagon,1,0,,,,,,,,,,,,,,,,repeat,letter,lettRpt,d,0.666,Hi,,,,,,3,,,,,,,,low,5,0,5,0,1,,,,,,,,,
297118,2022-11-14_14h43.16.630,vts_reward_expectancy_bt,2022.2.4,Win32,120.9774982,Chrome,1600,1067,,,,,1,853,,,,,,,,,,,,,,,,,W,167,star,1,0,,,,,,,,,,,,,,,,repeat,letter,lettRpt,f,0.4246,Hi,,,,,,3,,,,,,,,low,6,0,6,0,1,,,,,,,,,
297118,2022-11-14_14h43.16.630,vts_reward_expectancy_bt,2022.2.4,Win32,120.9774982,Chrome,1600,1067,,,,,10,863,,,,,,,,,,,,,,,,,D,181,circle,1,0,,,,,,,,,,,,,,,,repeat,letter,lettRpt,d,0.4181,Lo,,,,,,3,,,,,,,,low,7,0,7,0,1,,,,,,,,,
297118,2022-11-14_14h43.16.630,vts_reward_expectancy_bt,2022.2.4,Win32,120.9774982,Chrome,1600,1067,,,,,10,873,,,,,,,,,,,,,,,,,H,139,hexagon,1,0,,,,,,,,,,,,,,,,repeat,letter,lettRpt,d,0.4274,Hi,,,,,,3,,,,,,,,low,8,0,8,0,1,,,,,,,,,
297118,2022-11-14_14h43.16.630,vts_reward_expectancy_bt,2022.2.4,Win32,120.9774982,Chrome,1600,1067,,,,,10,883,,,,,,,,,,,,,,,,,U,132,circle,1,0,,,,,,,,,,,,,,,,repeat,letter,lettRpt,f,0.6775,Lo,,,,,,3,,,,,,,,low,9,0,9,0,1,,,,,,,,,
297118,2022-11-14_14h43.16.630,vts_reward_expectancy_bt,2022.2.4,Win32,120.9774982,Chrome,1600,1067,,,,,10,893,,,,,,,,,,,,,,,,,Y,174,star,1,0,,,,,,,,,,,,,,,,repeat,letter,lettRpt,f,0.4712,Hi,,,,,,3,,,,,,,,low,10,0,10,0,1,,,,,,,,,
297118,2022-11-14_14h43.16.630,vts_reward_expectancy_bt,2022.2.4,Win32,120.9774982,Chrome,1600,1067,,,,,10,903,,,,,,,,,,,,,,,,,S,146,triangle,1,0,,,,,,,,,,,,,,,,repeat,letter,lettRpt,f,0.5699,Lo,,,,,,3,,,,,,,,low,11,0,11,0,1,,,,,,,,,
297118,2022-11-14_14h43.16.630,vts_reward_expectancy_bt,2022.2.4,Win32,120.9774982,Chrome,1600,1067,,,,,1,904,,,,,,,,,,,,,,,,,F,125,hexagon,1,0,,,,,,,,,,,,,,,,repeat,letter,lettRpt,d,0.5686,Hi,,,,,,3,,,,,,,,low,12,0,12,0,1,,,,,,,,,
297118,2022-11-14_14h43.16.630,vts_reward_expectancy_bt,2022.2.4,Win32,120.9774982,Chrome,1600,1067,,,,,0,904,,,,,,,,,,,,,,,,,B,160,star,1,0,,,,,,,,,,,,,,,,repeat,letter,lettRpt,d,0.6756,Hi,,,,,,3,,,,,,,,low,13,0,13,0,1,,,,,,,,,
297118,2022-11-14_14h43.16.630,vts_reward_expectancy_bt,2022.2.4,Win32,120.9774982,Chrome,1600,1067,,,,,1,905,,,,,,,,,,,,,,,,,W,167,circle,1,0,,,,,,,,,,,,,,,,repeat,letter,lettRpt,f,0.5254,Lo,,,,,,3,,,,,,,,low,14,0,14,0,1,,,,,,,,,
297118,2022-11-14_14h43.16.630,vts_reward_expectancy_bt,2022.2.4,Win32,120.9774982,Chrome,1600,1067,,,,,0,905,,,,,,,,,,,,,,,,,D,181,triangle,0,0,,,,,,,,,,,,,,,,repeat,letter,NA,f,0.6346,Lo,,,,,,3,,,,,,,,low,15,0,15,0,1,,,,,,,,,
297118,2022-11-14_14h43.16.630,vts_reward_expectancy_bt,2022.2.4,Win32,120.9774982,Chrome,1600,1067,,,,,10,915,,,,,,,,,,,,,,,,,F,125,hexagon,1,1,,,,,,,,,,,,,,,,repeat,letter,lettRpt,d,0.5652,Hi,,,,,,3,,,,,,,,low,16,0,16,0,1,,,,,,,,,
297118,2022-11-14_14h43.16.630,vts_reward_expectancy_bt,2022.2.4,Win32,120.9774982,Chrome,1600,1067,,,,,1,916,,,,,,,,,,,,,,,,,D,146,circle,1,0,,,,,,,,,,,,,,,,repeat,letter,lettRpt,d,0.5827,Lo,,,,,,3,,,,,,,,low,17,0,17,0,1,,,,,,,,,
297118,2022-11-14_14h43.16.630,vts_reward_expectancy_bt,2022.2.4,Win32,120.9774982,Chrome,1600,1067,,,,,0,916,,,,,,,,,,,,,,,,,U,132,triangle,0,0,,,,,,,,,,,,,,,,repeat,letter,NA,d,2.904,Lo,,,,,,3,,,,,,,,low,18,0,18,0,1,,,,,,,,,
297118,2022-11-14_14h43.16.630,vts_reward_expectancy_bt,2022.2.4,Win32,120.9774982,Chrome,1600,1067,,,,,10,926,,,,,,,,,,,,,,,,,B,167,star,1,1,,,,,,,,,,,,,,,,repeat,letter,lettRpt,d,0.4066,Hi,,,,,,3,,,,,,,,low,19,0,19,0,1,,,,,,,,,
297118,2022-11-14_14h43.16.630,vts_reward_expectancy_bt,2022.2.4,Win32,120.9774982,Chrome,1600,1067,,,,,10,936,,,,,,,,,,,,,,,,,W,160,hexagon,1,0,,,,,,,,,,,,,,,,repeat,letter,lettRpt,f,0.5257,Hi,,,,,,3,,,,,,,,low,20,0,20,0,1,,,,,,,,,
297118,2022-11-14_14h43.16.630,vts_reward_expectancy_bt,2022.2.4,Win32,120.9774982,Chrome,1600,1067,,,,,0,936,,,,,,,,,,,,,,,,,Y,181,star,-1,0,,,,,,,,,,,,,,,,switch,no_choice,NA,,,Hi,,,,,,3,,,,,,,,low,21,0,21,0,1,,,,,,,,,
297118,2022-11-14_14h43.16.630,vts_reward_expectancy_bt,2022.2.4,Win32,120.9774982,Chrome,1600,1067,,,,,0,936,,,,,,,,,,,,,,,,,H,174,circle,0,0,,,,,,,,,,,,,,,,switch,letter,NA,f,0.703,Hi,,,,,,3,,,,,,,,low,22,0,22,0,1,,,,,,,,,
297118,2022-11-14_14h43.16.630,vts_reward_expectancy_bt,2022.2.4,Win32,120.9774982,Chrome,1600,1067,,,,,10,946,,,,,,,,,,,,,,,,,S,139,triangle,1,1,,,,,,,,,,,,,,,,repeat,letter,lettRpt,f,1.044,Lo,,,,,,3,,,,,,,,low,23,0,23,0,1,,,,,,,,,
297118,2022-11-14_14h43.16.630,vts_reward_expectancy_bt,2022.2.4,Win32,120.9774982,Chrome,1600,1067,,,,,10,956,,,,,,,,,,,,,,,,,D,132,triangle,1,0,,,,,,,,,,,,,,,,repeat,letter,lettRpt,d,1.2844,Lo,,,,,,3,,,,,,,,low,24,0,24,0,1,,,,,,,,,
297118,2022-11-14_14h43.16.630,vts_reward_expectancy_bt,2022.2.4,Win32,120.9774982,Chrome,1600,1067,,,,,0,956,,,,,,,,,,,,,,,,,U,160,hexagon,1,0,,,,,,,,,,,,,,,,repeat,letter,lettRpt,f,1.0189,Hi,,,,,,3,,,,,,,,low,25,0,25,0,1,,,,,,,,,
297118,2022-11-14_14h43.16.630,vts_reward_expectancy_bt,2022.2.4,Win32,120.9774982,Chrome,1600,1067,,,,,10,966,,,,,,,,,,,,,,,,,B,146,circle,1,0,,,,,,,,,,,,,,,,repeat,letter,lettRpt,d,0.901,Lo,,,,,,3,,,,,,,,low,26,0,26,0,1,,,,,,,,,
297118,2022-11-14_14h43.16.630,vts_reward_expectancy_bt,2022.2.4,Win32,120.9774982,Chrome,1600,1067,,,,,0,966,,,,,,,,,,,,,,,,,F,139,star,1,0,,,,,,,,,,,,,,,,repeat,letter,lettRpt,d,0.8437,Hi,,,,,,3,,,,,,,,low,27,0,27,0,1,,,,,,,,,
297118,2022-11-14_14h43.16.630,vts_reward_expectancy_bt,2022.2.4,Win32,120.9774982,Chrome,1600,1067,,,,,0,966,,,,,,,,,,,,,,,,,S,167,triangle,0,0,,,,,,,,,,,,,,,,repeat,letter,NA,d,0.6442,Hi,,,,,,3,,,,,,,,low,28,0,28,0,1,,,,,,,,,
297118,2022-11-14_14h43.16.630,vts_reward_expectancy_bt,2022.2.4,Win32,120.9774982,Chrome,1600,1067,,,,,10,976,,,,,,,,,,,,,,,,,H,181,star,1,1,,,,,,,,,,,,,,,,repeat,letter,lettRpt,d,0.5514,Hi,,,,,,3,,,,,,,,low,29,0,29,0,1,,,,,,,,,
297118,2022-11-14_14h43.16.630,vts_reward_expectancy_bt,2022.2.4,Win32,120.9774982,Chrome,1600,1067,,,,,1,977,,,,,,,,,,,,,,,,,Y,125,circle,1,0,,,,,,,,,,,,,,,,repeat,letter,lettRpt,f,0.7634,Lo,,,,,,3,,,,,,,,low,30,0,30,0,1,,,,,,,,,
297118,2022-11-14_14h43.16.630,vts_reward_expectancy_bt,2022.2.4,Win32,120.9774982,Chrome,1600,1067,,,,,10,987,,,,,,,,,,,,,,,,,W,174,hexagon,1,0,,,,,,,,,,,,,,,,repeat,letter,lettRpt,f,0.5901,Hi,,,,,,3,,,,,,,,low,31,0,31,0,1,,,,,,,,,
297118,2022-11-14_14h43.16.630,vts_reward_expectancy_bt,2022.2.4,Win32,120.9774982,Chrome,1600,1067,,,,,10,997,,,,,,,,,,,,,,,,,H,181,circle,1,0,,,,,,,,,,,,,,,,repeat,letter,lettRpt,d,0.8923,Lo,,,,,,4,,,,,,space,0.5965,low,0,0,0,0,1,,,,,,,,,
297118,2022-11-14_14h43.16.630,vts_reward_expectancy_bt,2022.2.4,Win32,120.9774982,Chrome,1600,1067,,,,,0,997,,,,,,,,,,,,,,,,,S,125,star,1,0,,,,,,,,,,,,,,,,repeat,letter,lettRpt,f,0.7102,Hi,,,,,,4,,,,,,,,low,1,0,1,0,1,,,,,,,,,
297118,2022-11-14_14h43.16.630,vts_reward_expectancy_bt,2022.2.4,Win32,120.9774982,Chrome,1600,1067,,,,,1,998,,,,,,,,,,,,,,,,,D,132,triangle,1,0,,,,,,,,,,,,,,,,repeat,letter,lettRpt,d,0.6682,Lo,,,,,,4,,,,,,,,low,2,0,2,0,1,,,,,,,,,
297118,2022-11-14_14h43.16.630,vts_reward_expectancy_bt,2022.2.4,Win32,120.9774982,Chrome,1600,1067,,,,,0,998,,,,,,,,,,,,,,,,,W,146,hexagon,1,0,,,,,,,,,,,,,,,,repeat,letter,lettRpt,f,2.5151,Hi,,,,,,4,,,,,,,,low,3,0,3,0,1,,,,,,,,,
297118,2022-11-14_14h43.16.630,vts_reward_expectancy_bt,2022.2.4,Win32,120.9774982,Chrome,1600,1067,,,,,10,1008,,,,,,,,,,,,,,,,,U,167,circle,1,0,,,,,,,,,,,,,,,,repeat,letter,lettRpt,f,0.7545,Lo,,,,,,4,,,,,,,,low,4,0,4,0,1,,,,,,,,,
297118,2022-11-14_14h43.16.630,vts_reward_expectancy_bt,2022.2.4,Win32,120.9774982,Chrome,1600,1067,,,,,0,1008,,,,,,,,,,,,,,,,,B,160,star,1,0,,,,,,,,,,,,,,,,repeat,letter,lettRpt,d,0.714,Hi,,,,,,4,,,,,,,,low,5,0,5,0,1,,,,,,,,,
297118,2022-11-14_14h43.16.630,vts_reward_expectancy_bt,2022.2.4,Win32,120.9774982,Chrome,1600,1067,,,,,1,1009,,,,,,,,,,,,,,,,,Y,139,triangle,1,0,,,,,,,,,,,,,,,,repeat,letter,lettRpt,f,0.7067,Lo,,,,,,4,,,,,,,,low,6,0,6,0,1,,,,,,,,,
297118,2022-11-14_14h43.16.630,vts_reward_expectancy_bt,2022.2.4,Win32,120.9774982,Chrome,1600,1067,,,,,0,1009,,,,,,,,,,,,,,,,,F,174,hexagon,0,0,,,,,,,,,,,,,,,,repeat,letter,NA,f,2.9354,Lo,,,,,,4,,,,,,,,low,7,0,7,0,1,,,,,,,,,
297118,2022-11-14_14h43.16.630,vts_reward_expectancy_bt,2022.2.4,Win32,120.9774982,Chrome,1600,1067,,,,,10,1019,,,,,,,,,,,,,,,,,H,181,circle,1,1,,,,,,,,,,,,,,,,repeat,letter,lettRpt,d,1.2359,Lo,,,,,,4,,,,,,,,low,8,0,8,0,1,,,,,,,,,
297118,2022-11-14_14h43.16.630,vts_reward_expectancy_bt,2022.2.4,Win32,120.9774982,Chrome,1600,1067,,,,,0,1019,,,,,,,,,,,,,,,,,S,125,hexagon,1,0,,,,,,,,,,,,,,,,repeat,letter,lettRpt,f,0.5689,Hi,,,,,,4,,,,,,,,low,9,0,9,0,1,,,,,,,,,
297118,2022-11-14_14h43.16.630,vts_reward_expectancy_bt,2022.2.4,Win32,120.9774982,Chrome,1600,1067,,,,,0,1019,,,,,,,,,,,,,,,,,D,132,star,1,0,,,,,,,,,,,,,,,,repeat,letter,lettRpt,d,0.8935,Hi,,,,,,4,,,,,,,,low,10,0,10,0,1,,,,,,,,,
297118,2022-11-14_14h43.16.630,vts_reward_expectancy_bt,2022.2.4,Win32,120.9774982,Chrome,1600,1067,,,,,1,1020,,,,,,,,,,,,,,,,,W,146,triangle,1,0,,,,,,,,,,,,,,,,repeat,letter,lettRpt,f,0.7462,Lo,,,,,,4,,,,,,,,low,11,0,11,0,1,,,,,,,,,
297118,2022-11-14_14h43.16.630,vts_reward_expectancy_bt,2022.2.4,Win32,120.9774982,Chrome,1600,1067,,,,,0,1020,,,,,,,,,,,,,,,,,U,167,hexagon,1,0,,,,,,,,,,,,,,,,repeat,letter,lettRpt,f,0.9544,Hi,,,,,,4,,,,,,,,low,12,0,12,0,1,,,,,,,,,
297118,2022-11-14_14h43.16.630,vts_reward_expectancy_bt,2022.2.4,Win32,120.9774982,Chrome,1600,1067,,,,,10,1030,,,,,,,,,,,,,,,,,B,160,triangle,1,0,,,,,,,,,,,,,,,,repeat,letter,lettRpt,d,1.2336,Lo,,,,,,4,,,,,,,,low,13,0,13,0,1,,,,,,,,,
297118,2022-11-14_14h43.16.630,vts_reward_expectancy_bt,2022.2.4,Win32,120.9774982,Chrome,1600,1067,,,,,0,1030,,,,,,,,,,,,,,,,,Y,139,circle,-1,0,,,,,,,,,,,,,,,,switch,no_choice,NA,,,Lo,,,,,,4,,,,,,,,low,14,0,14,0,1,,,,,,,,,
297118,2022-11-14_14h43.16.630,vts_reward_expectancy_bt,2022.2.4,Win32,120.9774982,Chrome,1600,1067,,,,,1,1031,,,,,,,,,,,,,,,,,F,174,star,1,0,,,,,,,,,,,,,,,,switch,letter,lettSwt,d,0.6336,Hi,,,,,,4,,,,,,,,low,15,0,15,0,1,,,,,,,,,
297118,2022-11-14_14h43.16.630,vts_reward_expectancy_bt,2022.2.4,Win32,120.9774982,Chrome,1600,1067,,,,,0,1031,,,,,,,,,,,,,,,,,U,125,hexagon,-1,0,,,,,,,,,,,,,,,,switch,no_choice,NA,,,Hi,,,,,,4,,,,,,,,low,16,0,16,0,1,,,,,,,,,
297118,2022-11-14_14h43.16.630,vts_reward_expectancy_bt,2022.2.4,Win32,120.9774982,Chrome,1600,1067,,,,,1,1032,,,,,,,,,,,,,,,,,W,174,star,1,0,,,,,,,,,,,,,,,,switch,letter,lettSwt,f,0.6122,Hi,,,,,,4,,,,,,,,low,17,0,17,0,1,,,,,,,,,
297118,2022-11-14_14h43.16.630,vts_reward_expectancy_bt,2022.2.4,Win32,120.9774982,Chrome,1600,1067,,,,,10,1042,,,,,,,,,,,,,,,,,H,160,triangle,1,0,,,,,,,,,,,,,,,,repeat,letter,lettRpt,d,0.8259,Lo,,,,,,4,,,,,,,,low,18,0,18,0,1,,,,,,,,,
297118,2022-11-14_14h43.16.630,vts_reward_expectancy_bt,2022.2.4,Win32,120.9774982,Chrome,1600,1067,,,,,10,1052,,,,,,,,,,,,,,,,,F,181,circle,1,0,,,,,,,,,,,,,,,,repeat,letter,lettRpt,d,0.8228,Lo,,,,,,4,,,,,,,,low,19,0,19,0,1,,,,,,,,,
297118,2022-11-14_14h43.16.630,vts_reward_expectancy_bt,2022.2.4,Win32,120.9774982,Chrome,1600,1067,,,,,1,1053,,,,,,,,,,,,,,,,,Y,146,triangle,1,0,,,,,,,,,,,,,,,,repeat,letter,lettRpt,f,0.8679,Lo,,,,,,4,,,,,,,,low,20,0,20,0,1,,,,,,,,,
297118,2022-11-14_14h43.16.630,vts_reward_expectancy_bt,2022.2.4,Win32,120.9774982,Chrome,1600,1067,,,,,1,1054,,,,,,,,,,,,,,,,,B,167,circle,1,0,,,,,,,,,,,,,,,,repeat,letter,lettRpt,d,1.2942,Lo,,,,,,4,,,,,,,,low,21,0,21,0,1,,,,,,,,,
297118,2022-11-14_14h43.16.630,vts_reward_expectancy_bt,2022.2.4,Win32,120.9774982,Chrome,1600,1067,,,,,0,1054,,,,,,,,,,,,,,,,,S,139,star,1,0,,,,,,,,,,,,,,,,repeat,letter,lettRpt,f,0.8277,Hi,,,,,,4,,,,,,,,low,22,0,22,0,1,,,,,,,,,
297118,2022-11-14_14h43.16.630,vts_reward_expectancy_bt,2022.2.4,Win32,120.9774982,Chrome,1600,1067,,,,,0,1054,,,,,,,,,,,,,,,,,D,132,hexagon,1,0,,,,,,,,,,,,,,,,repeat,letter,lettRpt,d,0.8111,Hi,,,,,,4,,,,,,,,low,23,0,23,0,1,,,,,,,,,
297118,2022-11-14_14h43.16.630,vts_reward_expectancy_bt,2022.2.4,Win32,120.9774982,Chrome,1600,1067,,,,,0,1054,,,,,,,,,,,,,,,,,F,160,hexagon,1,0,,,,,,,,,,,,,,,,repeat,letter,lettRpt,d,0.6099,Hi,,,,,,4,,,,,,,,low,24,0,24,0,1,,,,,,,,,
297118,2022-11-14_14h43.16.630,vts_reward_expectancy_bt,2022.2.4,Win32,120.9774982,Chrome,1600,1067,,,,,0,1054,,,,,,,,,,,,,,,,,D,167,circle,0,0,,,,,,,,,,,,,,,,repeat,letter,NA,f,0.5262,Hi,,,,,,4,,,,,,,,low,25,0,25,0,1,,,,,,,,,
297118,2022-11-14_14h43.16.630,vts_reward_expectancy_bt,2022.2.4,Win32,120.9774982,Chrome,1600,1067,,,,,1,1055,,,,,,,,,,,,,,,,,H,146,triangle,1,1,,,,,,,,,,,,,,,,repeat,letter,lettRpt,d,0.8263,Lo,,,,,,4,,,,,,,,low,26,0,26,0,1,,,,,,,,,
297118,2022-11-14_14h43.16.630,vts_reward_expectancy_bt,2022.2.4,Win32,120.9774982,Chrome,1600,1067,,,,,0,1055,,,,,,,,,,,,,,,,,W,174,star,1,0,,,,,,,,,,,,,,,,repeat,letter,lettRpt,f,0.6841,Hi,,,,,,4,,,,,,,,low,27,0,27,0,1,,,,,,,,,
297118,2022-11-14_14h43.16.630,vts_reward_expectancy_bt,2022.2.4,Win32,120.9774982,Chrome,1600,1067,,,,,10,1065,,,,,,,,,,,,,,,,,B,181,circle,1,0,,,,,,,,,,,,,,,,repeat,letter,lettRpt,d,0.6008,Lo,,,,,,4,,,,,,,,low,28,0,28,0,1,,,,,,,,,
297118,2022-11-14_14h43.16.630,vts_reward_expectancy_bt,2022.2.4,Win32,120.9774982,Chrome,1600,1067,,,,,1,1066,,,,,,,,,,,,,,,,,Y,125,triangle,1,0,,,,,,,,,,,,,,,,repeat,letter,lettRpt,f,1.4594,Lo,,,,,,4,,,,,,,,low,29,0,29,0,1,,,,,,,,,
297118,2022-11-14_14h43.16.630,vts_reward_expectancy_bt,2022.2.4,Win32,120.9774982,Chrome,1600,1067,,,,,0,1066,,,,,,,,,,,,,,,,,U,139,star,0,0,,,,,,,,,,,,,,,,repeat,letter,NA,d,0.6956,Lo,,,,,,4,,,,,,,,low,30,0,30,0,1,,,,,,,,,
297118,2022-11-14_14h43.16.630,vts_reward_expectancy_bt,2022.2.4,Win32,120.9774982,Chrome,1600,1067,,,,,0,1066,,,,,,,,,,,,,,,,,S,132,hexagon,1,1,,,,,,,,,,,,,,,,repeat,letter,lettRpt,f,1.5373,Hi,,,,,,4,,,,,,,,low,31,0,31,0,1,,,,,,,,,
297118,2022-11-14_14h43.16.630,vts_reward_expectancy_bt,2022.2.4,Win32,120.9774982,Chrome,1600,1067,,,,,10,1076,,,,,,,,,,,,,,,,,S,167,hexagon,1,0,,,,,,,,,,,,,,,,switch,number,numSwt,k,1.3677,Hi,,,,,,5,,,,,,space,0.7324,low,0,0,0,0,1,,,,,,,,,
297118,2022-11-14_14h43.16.630,vts_reward_expectancy_bt,2022.2.4,Win32,120.9774982,Chrome,1600,1067,,,,,1,1077,,,,,,,,,,,,,,,,,H,160,star,1,0,,,,,,,,,,,,,,,,repeat,number,numRpt,k,1.7267,Hi,,,,,,5,,,,,,,,low,1,0,1,0,1,,,,,,,,,
297118,2022-11-14_14h43.16.630,vts_reward_expectancy_bt,2022.2.4,Win32,120.9774982,Chrome,1600,1067,,,,,1,1078,,,,,,,,,,,,,,,,,D,132,triangle,1,0,,,,,,,,,,,,,,,,repeat,number,numRpt,j,1.2678,Lo,,,,,,5,,,,,,,,low,2,0,2,0,1,,,,,,,,,
297118,2022-11-14_14h43.16.630,vts_reward_expectancy_bt,2022.2.4,Win32,120.9774982,Chrome,1600,1067,,,,,10,1088,,,,,,,,,,,,,,,,,Y,125,circle,1,0,,,,,,,,,,,,,,,,repeat,number,numRpt,j,0.5236,Lo,,,,,,5,,,,,,,,low,3,0,3,0,1,,,,,,,,,
297118,2022-11-14_14h43.16.630,vts_reward_expectancy_bt,2022.2.4,Win32,120.9774982,Chrome,1600,1067,,,,,10,1098,,,,,,,,,,,,,,,,,W,181,hexagon,1,0,,,,,,,,,,,,,,,,repeat,number,numRpt,k,0.7498,Hi,,,,,,5,,,,,,,,low,4,0,4,0,1,,,,,,,,,
297118,2022-11-14_14h43.16.630,vts_reward_expectancy_bt,2022.2.4,Win32,120.9774982,Chrome,1600,1067,,,,,1,1099,,,,,,,,,,,,,,,,,U,139,star,1,0,,,,,,,,,,,,,,,,repeat,number,numRpt,j,0.7454,Hi,,,,,,5,,,,,,,,low,5,0,5,0,1,,,,,,,,,
297118,2022-11-14_14h43.16.630,vts_reward_expectancy_bt,2022.2.4,Win32,120.9774982,Chrome,1600,1067,,,,,1,1100,,,,,,,,,,,,,,,,,B,174,triangle,1,0,,,,,,,,,,,,,,,,repeat,number,numRpt,k,0.5347,Lo,,,,,,5,,,,,,,,low,6,0,6,0,1,,,,,,,,,
297118,2022-11-14_14h43.16.630,vts_reward_expectancy_bt,2022.2.4,Win32,120.9774982,Chrome,1600,1067,,,,,1,1101,,,,,,,,,,,,,,,,,F,146,circle,1,0,,,,,,,,,,,,,,,,repeat,number,numRpt,j,0.7759,Lo,,,,,,5,,,,,,,,low,7,0,7,0,1,,,,,,,,,
297118,2022-11-14_14h43.16.630,vts_reward_expectancy_bt,2022.2.4,Win32,120.9774982,Chrome,1600,1067,,,,,10,1111,,,,,,,,,,,,,,,,,S,167,triangle,1,0,,,,,,,,,,,,,,,,repeat,number,numRpt,k,0.5566,Lo,,,,,,5,,,,,,,,low,8,0,8,0,1,,,,,,,,,
297118,2022-11-14_14h43.16.630,vts_reward_expectancy_bt,2022.2.4,Win32,120.9774982,Chrome,1600,1067,,,,,1,1112,,,,,,,,,,,,,,,,,H,160,star,1,0,,,,,,,,,,,,,,,,repeat,number,numRpt,k,1.145,Hi,,,,,,5,,,,,,,,low,9,0,9,0,1,,,,,,,,,
297118,2022-11-14_14h43.16.630,vts_reward_expectancy_bt,2022.2.4,Win32,120.9774982,Chrome,1600,1067,,,,,10,1122,,,,,,,,,,,,,,,,,D,132,hexagon,1,0,,,,,,,,,,,,,,,,repeat,number,numRpt,j,0.992,Hi,,,,,,5,,,,,,,,low,10,0,10,0,1,,,,,,,,,
297118,2022-11-14_14h43.16.630,vts_reward_expectancy_bt,2022.2.4,Win32,120.9774982,Chrome,1600,1067,,,,,1,1123,,,,,,,,,,,,,,,,,Y,125,circle,1,0,,,,,,,,,,,,,,,,repeat,number,numRpt,j,0.7747,Lo,,,,,,5,,,,,,,,low,11,0,11,0,1,,,,,,,,,
297118,2022-11-14_14h43.16.630,vts_reward_expectancy_bt,2022.2.4,Win32,120.9774982,Chrome,1600,1067,,,,,10,1133,,,,,,,,,,,,,,,,,W,181,circle,1,0,,,,,,,,,,,,,,,,repeat,number,numRpt,k,2.9437,Lo,,,,,,5,,,,,,,,low,12,0,12,0,1,,,,,,,,,
297118,2022-11-14_14h43.16.630,vts_reward_expectancy_bt,2022.2.4,Win32,120.9774982,Chrome,1600,1067,,,,,10,1143,,,,,,,,,,,,,,,,,U,139,triangle,1,0,,,,,,,,,,,,,,,,repeat,number,numRpt,j,0.8955,Lo,,,,,,5,,,,,,,,low,13,0,13,0,1,,,,,,,,,
297118,2022-11-14_14h43.16.630,vts_reward_expectancy_bt,2022.2.4,Win32,120.9774982,Chrome,1600,1067,,,,,1,1144,,,,,,,,,,,,,,,,,B,174,hexagon,1,0,,,,,,,,,,,,,,,,repeat,number,numRpt,k,2.5106,Hi,,,,,,5,,,,,,,,low,14,0,14,0,1,,,,,,,,,
297118,2022-11-14_14h43.16.630,vts_reward_expectancy_bt,2022.2.4,Win32,120.9774982,Chrome,1600,1067,,,,,1,1145,,,,,,,,,,,,,,,,,F,146,star,1,0,,,,,,,,,,,,,,,,repeat,number,numRpt,j,2.4841,Hi,,,,,,5,,,,,,,,low,15,0,15,0,1,,,,,,,,,
297118,2022-11-14_14h43.16.630,vts_reward_expectancy_bt,2022.2.4,Win32,120.9774982,Chrome,1600,1067,,,,,1,1146,,,,,,,,,,,,,,,,,B,181,triangle,1,0,,,,,,,,,,,,,,,,repeat,number,numRpt,k,0.8347,Lo,,,,,,5,,,,,,,,low,16,0,16,0,1,,,,,,,,,
297118,2022-11-14_14h43.16.630,vts_reward_expectancy_bt,2022.2.4,Win32,120.9774982,Chrome,1600,1067,,,,,1,1147,,,,,,,,,,,,,,,,,F,132,star,1,0,,,,,,,,,,,,,,,,repeat,number,numRpt,j,0.833,Hi,,,,,,5,,,,,,,,low,17,0,17,0,1,,,,,,,,,
297118,2022-11-14_14h43.16.630,vts_reward_expectancy_bt,2022.2.4,Win32,120.9774982,Chrome,1600,1067,,,,,1,1148,,,,,,,,,,,,,,,,,D,125,hexagon,1,0,,,,,,,,,,,,,,,,repeat,number,numRpt,j,0.532,Hi,,,,,,5,,,,,,,,low,18,0,18,0,1,,,,,,,,,
297118,2022-11-14_14h43.16.630,vts_reward_expectancy_bt,2022.2.4,Win32,120.9774982,Chrome,1600,1067,,,,,1,1149,,,,,,,,,,,,,,,,,W,174,circle,1,0,,,,,,,,,,,,,,,,repeat,number,numRpt,k,1.5777,Lo,,,,,,5,,,,,,,,low,19,0,19,0,1,,,,,,,,,
297118,2022-11-14_14h43.16.630,vts_reward_expectancy_bt,2022.2.4,Win32,120.9774982,Chrome,1600,1067,,,,,1,1150,,,,,,,,,,,,,,,,,H,139,star,1,0,,,,,,,,,,,,,,,,repeat,number,numRpt,j,0.8019,Hi,,,,,,5,,,,,,,,low,20,0,20,0,1,,,,,,,,,
297118,2022-11-14_14h43.16.630,vts_reward_expectancy_bt,2022.2.4,Win32,120.9774982,Chrome,1600,1067,,,,,10,1160,,,,,,,,,,,,,,,,,Y,146,circle,1,0,,,,,,,,,,,,,,,,repeat,number,numRpt,j,0.8477,Lo,,,,,,5,,,,,,,,low,21,0,21,0,1,,,,,,,,,
297118,2022-11-14_14h43.16.630,vts_reward_expectancy_bt,2022.2.4,Win32,120.9774982,Chrome,1600,1067,,,,,10,1170,,,,,,,,,,,,,,,,,S,160,hexagon,1,0,,,,,,,,,,,,,,,,repeat,number,numRpt,k,1,Hi,,,,,,5,,,,,,,,low,22,0,22,0,1,,,,,,,,,
297118,2022-11-14_14h43.16.630,vts_reward_expectancy_bt,2022.2.4,Win32,120.9774982,Chrome,1600,1067,,,,,1,1171,,,,,,,,,,,,,,,,,U,167,triangle,1,0,,,,,,,,,,,,,,,,repeat,number,numRpt,k,1.1274,Lo,,,,,,5,,,,,,,,low,23,0,23,0,1,,,,,,,,,
297118,2022-11-14_14h43.16.630,vts_reward_expectancy_bt,2022.2.4,Win32,120.9774982,Chrome,1600,1067,,,,,1,1172,,,,,,,,,,,,,,,,,D,181,star,1,0,,,,,,,,,,,,,,,,repeat,number,numRpt,k,1.0514,Hi,,,,,,5,,,,,,,,low,24,0,24,0,1,,,,,,,,,
297118,2022-11-14_14h43.16.630,vts_reward_expectancy_bt,2022.2.4,Win32,120.9774982,Chrome,1600,1067,,,,,0,1172,,,,,,,,,,,,,,,,,Y,146,hexagon,-1,0,,,,,,,,,,,,,,,,switch,no_choice,NA,,,Hi,,,,,,5,,,,,,,,low,25,0,25,0,1,,,,,,,,,
297118,2022-11-14_14h43.16.630,vts_reward_expectancy_bt,2022.2.4,Win32,120.9774982,Chrome,1600,1067,,,,,10,1182,,,,,,,,,,,,,,,,,F,132,triangle,1,0,,,,,,,,,,,,,,,,switch,number,numSwt,j,1.0734,Lo,,,,,,5,,,,,,,,low,26,0,26,0,1,,,,,,,,,
297118,2022-11-14_14h43.16.630,vts_reward_expectancy_bt,2022.2.4,Win32,120.9774982,Chrome,1600,1067,,,,,10,1192,,,,,,,,,,,,,,,,,W,139,circle,1,0,,,,,,,,,,,,,,,,repeat,number,numRpt,j,0.7345,Lo,,,,,,5,,,,,,,,low,27,0,27,0,1,,,,,,,,,
297118,2022-11-14_14h43.16.630,vts_reward_expectancy_bt,2022.2.4,Win32,120.9774982,Chrome,1600,1067,,,,,10,1202,,,,,,,,,,,,,,,,,B,125,circle,1,0,,,,,,,,,,,,,,,,repeat,number,numRpt,j,0.5994,Lo,,,,,,5,,,,,,,,low,28,0,28,0,1,,,,,,,,,
297118,2022-11-14_14h43.16.630,vts_reward_expectancy_bt,2022.2.4,Win32,120.9774982,Chrome,1600,1067,,,,,1,1203,,,,,,,,,,,,,,,,,S,160,hexagon,1,0,,,,,,,,,,,,,,,,repeat,number,numRpt,k,0.7091,Hi,,,,,,5,,,,,,,,low,29,0,29,0,1,,,,,,,,,
