participant,date,expName,psychopyVersion,OS,frameRate,browser,xResolution,yResolution,key_resp.keys,key_resp.rt,training_resp.keys,training_resp.rt,points_trial,points_cumul,trainBlock,training.thisRepN,training.thisTrialN,training.thisN,training.thisIndex,training.ran,LTriangleOpac,LCircleOpac,LHexagonOpac,LStarOpac,RTriangleOpac,RCircleOpac,RHexagonOpac,RStarOpac,LShape_ID,RShape_ID,curr_topStim,curr_bottStim,curr_shape,acc,E1,target_resp_prac1.keys,target_resp_prac1.rt,pracBlock,task1_prac_trials.thisRepN,task1_prac_trials.thisTrialN,task1_prac_trials.thisN,task1_prac_trials.thisIndex,task1_prac_trials.ran,target_resp_prac2.keys,target_resp_prac2.rt,task2_praac_trials.thisRepN,task2_praac_trials.thisTrialN,task2_praac_trials.thisN,task2_praac_trials.thisIndex,task2_praac_trials.ran,alt,task,condition,target_resp.keys,rewCond,vts_practice_trials.thisRepN,vts_practice_trials.thisTrialN,vts_practice_trials.thisN,vts_practice_trials.thisIndex,vts_practice_trials.ran,target_resp.rt,blockNum,trials_norew.thisRepN,trials_norew.thisTrialN,trials_norew.thisN,trials_norew.thisIndex,trials_norew.ran,key_resp_2.keys,key_resp_2.rt,rewExpectancy,trials_rew.thisRepN,trials_rew.thisTrialN,trials_rew.thisN,trials_rew.thisIndex,trials_rew.ran,Q1,Q2,Q2_text,Q3,Q4,Q5_text,Q5,xRes,yRes
297277,2022-12-05_16h15.27.040,vts_reward_expectancy_bt,2022.2.4,Win32,59.52380952,Chrome,1500,1000,,,,,,,,,,,,,,,,,,,,,,,,,,,,,,,,,,,,,,,,,,,,,,,,,,,,,,,,,,,,,,,,,,,,,,,,,,,,
297277,2022-12-05_16h15.27.040,vts_reward_expectancy_bt,2022.2.4,Win32,59.52380952,Chrome,1500,1000,space,0.8274,,,,,,,,,,,,,,,,,,,,,,,,,,,,,,,,,,,,,,,,,,,,,,,,,,,,,,,,,,,,,,,,,,,,,,,,,,
297277,2022-12-05_16h15.27.040,vts_reward_expectancy_bt,2022.2.4,Win32,59.52380952,Chrome,1500,1000,,,,,,,,,,,,,,,,,,,,,,,,,,,,,,,,,,,,,,,,,,,,,,,,,,,,,,,,,,,,,,,,,,,,,,,,,,,,
297277,2022-12-05_16h15.27.040,vts_reward_expectancy_bt,2022.2.4,Win32,59.52380952,Chrome,1500,1000,,,l,1.1107,10,10,0,0,0,0,1,1,1,0,0,0,0,0,1,0,triangle,hexagon,,,,,,,,,,,,,,,,,,,,,,,,,,,,,,,,,,,,,,,,,,,,,,,,,,,,,,
297277,2022-12-05_16h15.27.040,vts_reward_expectancy_bt,2022.2.4,Win32,59.52380952,Chrome,1500,1000,,,a,0.4334,1,11,0,0,1,1,5,1,0,1,0,0,0,0,0,1,circle,star,,,,,,,,,,,,,,,,,,,,,,,,,,,,,,,,,,,,,,,,,,,,,,,,,,,,,,
297277,2022-12-05_16h15.27.040,vts_reward_expectancy_bt,2022.2.4,Win32,59.52380952,Chrome,1500,1000,,,l,0.4151,10,21,0,0,2,2,4,1,0,1,0,0,0,0,1,0,circle,hexagon,,,,,,,,,,,,,,,,,,,,,,,,,,,,,,,,,,,,,,,,,,,,,,,,,,,,,,
297277,2022-12-05_16h15.27.040,vts_reward_expectancy_bt,2022.2.4,Win32,59.52380952,Chrome,1500,1000,,,a,0.6809,10,31,0,0,3,3,3,1,0,1,0,0,1,0,0,0,circle,triangle,,,,,,,,,,,,,,,,,,,,,,,,,,,,,,,,,,,,,,,,,,,,,,,,,,,,,,
297277,2022-12-05_16h15.27.040,vts_reward_expectancy_bt,2022.2.4,Win32,59.52380952,Chrome,1500,1000,,,l,0.3524,10,41,0,0,4,4,10,1,0,0,0,1,0,1,0,0,star ,circle,,,,,,,,,,,,,,,,,,,,,,,,,,,,,,,,,,,,,,,,,,,,,,,,,,,,,,
297277,2022-12-05_16h15.27.040,vts_reward_expectancy_bt,2022.2.4,Win32,59.52380952,Chrome,1500,1000,,,a,0.5374,1,42,0,0,5,5,9,1,0,0,0,1,1,0,0,0,star,triangle,,,,,,,,,,,,,,,,,,,,,,,,,,,,,,,,,,,,,,,,,,,,,,,,,,,,,,
297277,2022-12-05_16h15.27.040,vts_reward_expectancy_bt,2022.2.4,Win32,59.52380952,Chrome,1500,1000,,,l,0.4071,1,43,0,0,6,6,2,1,1,0,0,0,0,0,0,1,triangle,star,,,,,,,,,,,,,,,,,,,,,,,,,,,,,,,,,,,,,,,,,,,,,,,,,,,,,,
297277,2022-12-05_16h15.27.040,vts_reward_expectancy_bt,2022.2.4,Win32,59.52380952,Chrome,1500,1000,,,l,0.2794,10,53,0,0,7,7,0,1,1,0,0,0,0,1,0,0,triangle,circle,,,,,,,,,,,,,,,,,,,,,,,,,,,,,,,,,,,,,,,,,,,,,,,,,,,,,,
297277,2022-12-05_16h15.27.040,vts_reward_expectancy_bt,2022.2.4,Win32,59.52380952,Chrome,1500,1000,,,l,0.4327,1,54,0,0,8,8,6,1,0,0,1,0,1,0,0,0,hexagon,triangle,,,,,,,,,,,,,,,,,,,,,,,,,,,,,,,,,,,,,,,,,,,,,,,,,,,,,,
297277,2022-12-05_16h15.27.040,vts_reward_expectancy_bt,2022.2.4,Win32,59.52380952,Chrome,1500,1000,,,a,0.2882,1,55,0,0,9,9,11,1,0,0,0,1,0,0,1,0,star,hexagon,,,,,,,,,,,,,,,,,,,,,,,,,,,,,,,,,,,,,,,,,,,,,,,,,,,,,,
297277,2022-12-05_16h15.27.040,vts_reward_expectancy_bt,2022.2.4,Win32,59.52380952,Chrome,1500,1000,,,a,0.2867,1,56,0,0,10,10,8,1,0,0,1,0,0,0,0,1,hexagon,star,,,,,,,,,,,,,,,,,,,,,,,,,,,,,,,,,,,,,,,,,,,,,,,,,,,,,,
297277,2022-12-05_16h15.27.040,vts_reward_expectancy_bt,2022.2.4,Win32,59.52380952,Chrome,1500,1000,,,l,1.1734,10,66,0,0,11,11,7,1,0,0,1,0,0,1,0,0,hexagon,circle,,,,,,,,,,,,,,,,,,,,,,,,,,,,,,,,,,,,,,,,,,,,,,,,,,,,,,
297277,2022-12-05_16h15.27.040,vts_reward_expectancy_bt,2022.2.4,Win32,59.52380952,Chrome,1500,1000,,,a,0.6976,1,67,0,1,0,12,9,1,0,0,0,1,1,0,0,0,star,triangle,,,,,,,,,,,,,,,,,,,,,,,,,,,,,,,,,,,,,,,,,,,,,,,,,,,,,,
297277,2022-12-05_16h15.27.040,vts_reward_expectancy_bt,2022.2.4,Win32,59.52380952,Chrome,1500,1000,,,l,0.4547,10,77,0,1,1,13,3,1,0,1,0,0,1,0,0,0,circle,triangle,,,,,,,,,,,,,,,,,,,,,,,,,,,,,,,,,,,,,,,,,,,,,,,,,,,,,,
297277,2022-12-05_16h15.27.040,vts_reward_expectancy_bt,2022.2.4,Win32,59.52380952,Chrome,1500,1000,,,l,0.3926,10,87,0,1,2,14,10,1,0,0,0,1,0,1,0,0,star ,circle,,,,,,,,,,,,,,,,,,,,,,,,,,,,,,,,,,,,,,,,,,,,,,,,,,,,,,
297277,2022-12-05_16h15.27.040,vts_reward_expectancy_bt,2022.2.4,Win32,59.52380952,Chrome,1500,1000,,,a,0.4338,1,88,0,1,3,15,11,1,0,0,0,1,0,0,1,0,star,hexagon,,,,,,,,,,,,,,,,,,,,,,,,,,,,,,,,,,,,,,,,,,,,,,,,,,,,,,
297277,2022-12-05_16h15.27.040,vts_reward_expectancy_bt,2022.2.4,Win32,59.52380952,Chrome,1500,1000,,,l,0.5654,10,98,0,1,4,16,0,1,1,0,0,0,0,1,0,0,triangle,circle,,,,,,,,,,,,,,,,,,,,,,,,,,,,,,,,,,,,,,,,,,,,,,,,,,,,,,
297277,2022-12-05_16h15.27.040,vts_reward_expectancy_bt,2022.2.4,Win32,59.52380952,Chrome,1500,1000,,,l,0.5684,1,99,0,1,5,17,4,1,0,1,0,0,0,0,1,0,circle,hexagon,,,,,,,,,,,,,,,,,,,,,,,,,,,,,,,,,,,,,,,,,,,,,,,,,,,,,,
297277,2022-12-05_16h15.27.040,vts_reward_expectancy_bt,2022.2.4,Win32,59.52380952,Chrome,1500,1000,,,a,0.5382,10,109,0,1,6,18,8,1,0,0,1,0,0,0,0,1,hexagon,star,,,,,,,,,,,,,,,,,,,,,,,,,,,,,,,,,,,,,,,,,,,,,,,,,,,,,,
297277,2022-12-05_16h15.27.040,vts_reward_expectancy_bt,2022.2.4,Win32,59.52380952,Chrome,1500,1000,,,a,0.5183,10,119,0,1,7,19,2,1,1,0,0,0,0,0,0,1,triangle,star,,,,,,,,,,,,,,,,,,,,,,,,,,,,,,,,,,,,,,,,,,,,,,,,,,,,,,
297277,2022-12-05_16h15.27.040,vts_reward_expectancy_bt,2022.2.4,Win32,59.52380952,Chrome,1500,1000,,,a,0.6338,10,129,0,1,8,20,5,1,0,1,0,0,0,0,0,1,circle,star,,,,,,,,,,,,,,,,,,,,,,,,,,,,,,,,,,,,,,,,,,,,,,,,,,,,,,
297277,2022-12-05_16h15.27.040,vts_reward_expectancy_bt,2022.2.4,Win32,59.52380952,Chrome,1500,1000,,,l,1.2848,10,139,0,1,9,21,7,1,0,0,1,0,0,1,0,0,hexagon,circle,,,,,,,,,,,,,,,,,,,,,,,,,,,,,,,,,,,,,,,,,,,,,,,,,,,,,,
297277,2022-12-05_16h15.27.040,vts_reward_expectancy_bt,2022.2.4,Win32,59.52380952,Chrome,1500,1000,,,l,0.6685,1,140,0,1,10,22,1,1,1,0,0,0,0,0,1,0,triangle,hexagon,,,,,,,,,,,,,,,,,,,,,,,,,,,,,,,,,,,,,,,,,,,,,,,,,,,,,,
297277,2022-12-05_16h15.27.040,vts_reward_expectancy_bt,2022.2.4,Win32,59.52380952,Chrome,1500,1000,,,a,0.4485,1,141,0,1,11,23,6,1,0,0,1,0,1,0,0,0,hexagon,triangle,,,,,,,,,,,,,,,,,,,,,,,,,,,,,,,,,,,,,,,,,,,,,,,,,,,,,,
297277,2022-12-05_16h15.27.040,vts_reward_expectancy_bt,2022.2.4,Win32,59.52380952,Chrome,1500,1000,,,a,0.2846,1,142,0,2,0,24,0,1,1,0,0,0,0,1,0,0,triangle,circle,,,,,,,,,,,,,,,,,,,,,,,,,,,,,,,,,,,,,,,,,,,,,,,,,,,,,,
297277,2022-12-05_16h15.27.040,vts_reward_expectancy_bt,2022.2.4,Win32,59.52380952,Chrome,1500,1000,,,l,0.435,10,152,0,2,1,25,6,1,0,0,1,0,1,0,0,0,hexagon,triangle,,,,,,,,,,,,,,,,,,,,,,,,,,,,,,,,,,,,,,,,,,,,,,,,,,,,,,
297277,2022-12-05_16h15.27.040,vts_reward_expectancy_bt,2022.2.4,Win32,59.52380952,Chrome,1500,1000,,,l,0.5129,10,162,0,2,2,26,4,1,0,1,0,0,0,0,1,0,circle,hexagon,,,,,,,,,,,,,,,,,,,,,,,,,,,,,,,,,,,,,,,,,,,,,,,,,,,,,,
297277,2022-12-05_16h15.27.040,vts_reward_expectancy_bt,2022.2.4,Win32,59.52380952,Chrome,1500,1000,,,a,0.4161,10,172,0,2,3,27,5,1,0,1,0,0,0,0,0,1,circle,star,,,,,,,,,,,,,,,,,,,,,,,,,,,,,,,,,,,,,,,,,,,,,,,,,,,,,,
297277,2022-12-05_16h15.27.040,vts_reward_expectancy_bt,2022.2.4,Win32,59.52380952,Chrome,1500,1000,,,l,0.3551,1,173,0,2,4,28,8,1,0,0,1,0,0,0,0,1,hexagon,star,,,,,,,,,,,,,,,,,,,,,,,,,,,,,,,,,,,,,,,,,,,,,,,,,,,,,,
297277,2022-12-05_16h15.27.040,vts_reward_expectancy_bt,2022.2.4,Win32,59.52380952,Chrome,1500,1000,,,a,0.3994,1,174,0,2,5,29,1,1,1,0,0,0,0,0,1,0,triangle,hexagon,,,,,,,,,,,,,,,,,,,,,,,,,,,,,,,,,,,,,,,,,,,,,,,,,,,,,,
297277,2022-12-05_16h15.27.040,vts_reward_expectancy_bt,2022.2.4,Win32,59.52380952,Chrome,1500,1000,,,l,0.817,10,184,0,2,6,30,10,1,0,0,0,1,0,1,0,0,star ,circle,,,,,,,,,,,,,,,,,,,,,,,,,,,,,,,,,,,,,,,,,,,,,,,,,,,,,,
297277,2022-12-05_16h15.27.040,vts_reward_expectancy_bt,2022.2.4,Win32,59.52380952,Chrome,1500,1000,,,a,0.7813,1,185,0,2,7,31,11,1,0,0,0,1,0,0,1,0,star,hexagon,,,,,,,,,,,,,,,,,,,,,,,,,,,,,,,,,,,,,,,,,,,,,,,,,,,,,,
297277,2022-12-05_16h15.27.040,vts_reward_expectancy_bt,2022.2.4,Win32,59.52380952,Chrome,1500,1000,,,a,0.5492,1,186,0,2,8,32,7,1,0,0,1,0,0,1,0,0,hexagon,circle,,,,,,,,,,,,,,,,,,,,,,,,,,,,,,,,,,,,,,,,,,,,,,,,,,,,,,
297277,2022-12-05_16h15.27.040,vts_reward_expectancy_bt,2022.2.4,Win32,59.52380952,Chrome,1500,1000,,,l,0.3607,10,196,0,2,9,33,9,1,0,0,0,1,1,0,0,0,star,triangle,,,,,,,,,,,,,,,,,,,,,,,,,,,,,,,,,,,,,,,,,,,,,,,,,,,,,,
297277,2022-12-05_16h15.27.040,vts_reward_expectancy_bt,2022.2.4,Win32,59.52380952,Chrome,1500,1000,,,l,0.3684,1,197,0,2,10,34,2,1,1,0,0,0,0,0,0,1,triangle,star,,,,,,,,,,,,,,,,,,,,,,,,,,,,,,,,,,,,,,,,,,,,,,,,,,,,,,
297277,2022-12-05_16h15.27.040,vts_reward_expectancy_bt,2022.2.4,Win32,59.52380952,Chrome,1500,1000,,,a,0.3003,1,198,0,2,11,35,3,1,0,1,0,0,1,0,0,0,circle,triangle,,,,,,,,,,,,,,,,,,,,,,,,,,,,,,,,,,,,,,,,,,,,,,,,,,,,,,
297277,2022-12-05_16h15.27.040,vts_reward_expectancy_bt,2022.2.4,Win32,59.52380952,Chrome,1500,1000,,,a,0.568,10,208,1,0,0,0,4,1,0,1,0,0,0,0,1,0,circle,hexagon,,,,,,,,,,,,,,,,,,,,,,,,,,,,,,,,,,,,,,,,,,,,,,,,,,,,,,
297277,2022-12-05_16h15.27.040,vts_reward_expectancy_bt,2022.2.4,Win32,59.52380952,Chrome,1500,1000,,,l,0.3174,10,218,1,0,1,1,0,1,1,0,0,0,0,1,0,0,triangle,circle,,,,,,,,,,,,,,,,,,,,,,,,,,,,,,,,,,,,,,,,,,,,,,,,,,,,,,
297277,2022-12-05_16h15.27.040,vts_reward_expectancy_bt,2022.2.4,Win32,59.52380952,Chrome,1500,1000,,,l,0.5365,10,228,1,0,2,2,10,1,0,0,0,1,0,1,0,0,star ,circle,,,,,,,,,,,,,,,,,,,,,,,,,,,,,,,,,,,,,,,,,,,,,,,,,,,,,,
297277,2022-12-05_16h15.27.040,vts_reward_expectancy_bt,2022.2.4,Win32,59.52380952,Chrome,1500,1000,,,a,0.5194,1,229,1,0,3,3,9,1,0,0,0,1,1,0,0,0,star,triangle,,,,,,,,,,,,,,,,,,,,,,,,,,,,,,,,,,,,,,,,,,,,,,,,,,,,,,
297277,2022-12-05_16h15.27.040,vts_reward_expectancy_bt,2022.2.4,Win32,59.52380952,Chrome,1500,1000,,,l,0.5209,1,230,1,0,4,4,1,1,1,0,0,0,0,0,1,0,triangle,hexagon,,,,,,,,,,,,,,,,,,,,,,,,,,,,,,,,,,,,,,,,,,,,,,,,,,,,,,
297277,2022-12-05_16h15.27.040,vts_reward_expectancy_bt,2022.2.4,Win32,59.52380952,Chrome,1500,1000,,,a,0.2833,10,240,1,0,5,5,7,1,0,0,1,0,0,1,0,0,hexagon,circle,,,,,,,,,,,,,,,,,,,,,,,,,,,,,,,,,,,,,,,,,,,,,,,,,,,,,,
297277,2022-12-05_16h15.27.040,vts_reward_expectancy_bt,2022.2.4,Win32,59.52380952,Chrome,1500,1000,,,l,0.3344,1,241,1,0,6,6,11,1,0,0,0,1,0,0,1,0,star,hexagon,,,,,,,,,,,,,,,,,,,,,,,,,,,,,,,,,,,,,,,,,,,,,,,,,,,,,,
297277,2022-12-05_16h15.27.040,vts_reward_expectancy_bt,2022.2.4,Win32,59.52380952,Chrome,1500,1000,,,a,0.7205,10,251,1,0,7,7,3,1,0,1,0,0,1,0,0,0,circle,triangle,,,,,,,,,,,,,,,,,,,,,,,,,,,,,,,,,,,,,,,,,,,,,,,,,,,,,,
297277,2022-12-05_16h15.27.040,vts_reward_expectancy_bt,2022.2.4,Win32,59.52380952,Chrome,1500,1000,,,a,0.4282,1,252,1,0,8,8,6,1,0,0,1,0,1,0,0,0,hexagon,triangle,,,,,,,,,,,,,,,,,,,,,,,,,,,,,,,,,,,,,,,,,,,,,,,,,,,,,,
297277,2022-12-05_16h15.27.040,vts_reward_expectancy_bt,2022.2.4,Win32,59.52380952,Chrome,1500,1000,,,l,0.2845,1,253,1,0,9,9,5,1,0,1,0,0,0,0,0,1,circle,star,,,,,,,,,,,,,,,,,,,,,,,,,,,,,,,,,,,,,,,,,,,,,,,,,,,,,,
297277,2022-12-05_16h15.27.040,vts_reward_expectancy_bt,2022.2.4,Win32,59.52380952,Chrome,1500,1000,,,l,0.3525,10,263,1,0,10,10,2,1,1,0,0,0,0,0,0,1,triangle,star,,,,,,,,,,,,,,,,,,,,,,,,,,,,,,,,,,,,,,,,,,,,,,,,,,,,,,
297277,2022-12-05_16h15.27.040,vts_reward_expectancy_bt,2022.2.4,Win32,59.52380952,Chrome,1500,1000,,,a,0.7039,10,273,1,0,11,11,8,1,0,0,1,0,0,0,0,1,hexagon,star,,,,,,,,,,,,,,,,,,,,,,,,,,,,,,,,,,,,,,,,,,,,,,,,,,,,,,
297277,2022-12-05_16h15.27.040,vts_reward_expectancy_bt,2022.2.4,Win32,59.52380952,Chrome,1500,1000,,,l,0.4168,10,283,1,1,0,12,0,1,1,0,0,0,0,1,0,0,triangle,circle,,,,,,,,,,,,,,,,,,,,,,,,,,,,,,,,,,,,,,,,,,,,,,,,,,,,,,
297277,2022-12-05_16h15.27.040,vts_reward_expectancy_bt,2022.2.4,Win32,59.52380952,Chrome,1500,1000,,,a,0.3071,10,293,1,1,1,13,10,1,0,0,0,1,0,1,0,0,star ,circle,,,,,,,,,,,,,,,,,,,,,,,,,,,,,,,,,,,,,,,,,,,,,,,,,,,,,,
297277,2022-12-05_16h15.27.040,vts_reward_expectancy_bt,2022.2.4,Win32,59.52380952,Chrome,1500,1000,,,a,0.2629,1,294,1,1,2,14,9,1,0,0,0,1,1,0,0,0,star,triangle,,,,,,,,,,,,,,,,,,,,,,,,,,,,,,,,,,,,,,,,,,,,,,,,,,,,,,
297277,2022-12-05_16h15.27.040,vts_reward_expectancy_bt,2022.2.4,Win32,59.52380952,Chrome,1500,1000,,,l,0.3061,1,295,1,1,3,15,11,1,0,0,0,1,0,0,1,0,star,hexagon,,,,,,,,,,,,,,,,,,,,,,,,,,,,,,,,,,,,,,,,,,,,,,,,,,,,,,
297277,2022-12-05_16h15.27.040,vts_reward_expectancy_bt,2022.2.4,Win32,59.52380952,Chrome,1500,1000,,,a,0.1543,10,305,1,1,4,16,4,1,0,1,0,0,0,0,1,0,circle,hexagon,,,,,,,,,,,,,,,,,,,,,,,,,,,,,,,,,,,,,,,,,,,,,,,,,,,,,,
297277,2022-12-05_16h15.27.040,vts_reward_expectancy_bt,2022.2.4,Win32,59.52380952,Chrome,1500,1000,,,l,0.2998,10,315,1,1,5,17,6,1,0,0,1,0,1,0,0,0,hexagon,triangle,,,,,,,,,,,,,,,,,,,,,,,,,,,,,,,,,,,,,,,,,,,,,,,,,,,,,,
297277,2022-12-05_16h15.27.040,vts_reward_expectancy_bt,2022.2.4,Win32,59.52380952,Chrome,1500,1000,,,a,0.1127,1,316,1,1,6,18,1,1,1,0,0,0,0,0,1,0,triangle,hexagon,,,,,,,,,,,,,,,,,,,,,,,,,,,,,,,,,,,,,,,,,,,,,,,,,,,,,,
297277,2022-12-05_16h15.27.040,vts_reward_expectancy_bt,2022.2.4,Win32,59.52380952,Chrome,1500,1000,,,l,0.3178,10,326,1,1,7,19,5,1,0,1,0,0,0,0,0,1,circle,star,,,,,,,,,,,,,,,,,,,,,,,,,,,,,,,,,,,,,,,,,,,,,,,,,,,,,,
297277,2022-12-05_16h15.27.040,vts_reward_expectancy_bt,2022.2.4,Win32,59.52380952,Chrome,1500,1000,,,a,0.3172,10,336,1,1,8,20,3,1,0,1,0,0,1,0,0,0,circle,triangle,,,,,,,,,,,,,,,,,,,,,,,,,,,,,,,,,,,,,,,,,,,,,,,,,,,,,,
297277,2022-12-05_16h15.27.040,vts_reward_expectancy_bt,2022.2.4,Win32,59.52380952,Chrome,1500,1000,,,a,0.6334,1,337,1,1,9,21,8,1,0,0,1,0,0,0,0,1,hexagon,star,,,,,,,,,,,,,,,,,,,,,,,,,,,,,,,,,,,,,,,,,,,,,,,,,,,,,,
297277,2022-12-05_16h15.27.040,vts_reward_expectancy_bt,2022.2.4,Win32,59.52380952,Chrome,1500,1000,,,l,0.3551,10,347,1,1,10,22,7,1,0,0,1,0,0,1,0,0,hexagon,circle,,,,,,,,,,,,,,,,,,,,,,,,,,,,,,,,,,,,,,,,,,,,,,,,,,,,,,
297277,2022-12-05_16h15.27.040,vts_reward_expectancy_bt,2022.2.4,Win32,59.52380952,Chrome,1500,1000,,,a,0.5126,10,357,1,1,11,23,2,1,1,0,0,0,0,0,0,1,triangle,star,,,,,,,,,,,,,,,,,,,,,,,,,,,,,,,,,,,,,,,,,,,,,,,,,,,,,,
297277,2022-12-05_16h15.27.040,vts_reward_expectancy_bt,2022.2.4,Win32,59.52380952,Chrome,1500,1000,,,l,1.0345,1,358,1,2,0,24,5,1,0,1,0,0,0,0,0,1,circle,star,,,,,,,,,,,,,,,,,,,,,,,,,,,,,,,,,,,,,,,,,,,,,,,,,,,,,,
297277,2022-12-05_16h15.27.040,vts_reward_expectancy_bt,2022.2.4,Win32,59.52380952,Chrome,1500,1000,,,l,0.6806,10,368,1,2,1,25,7,1,0,0,1,0,0,1,0,0,hexagon,circle,,,,,,,,,,,,,,,,,,,,,,,,,,,,,,,,,,,,,,,,,,,,,,,,,,,,,,
297277,2022-12-05_16h15.27.040,vts_reward_expectancy_bt,2022.2.4,Win32,59.52380952,Chrome,1500,1000,,,l,0.9539,1,369,1,2,2,26,1,1,1,0,0,0,0,0,1,0,triangle,hexagon,,,,,,,,,,,,,,,,,,,,,,,,,,,,,,,,,,,,,,,,,,,,,,,,,,,,,,
297277,2022-12-05_16h15.27.040,vts_reward_expectancy_bt,2022.2.4,Win32,59.52380952,Chrome,1500,1000,,,l,0.7485,10,379,1,2,3,27,4,1,0,1,0,0,0,0,1,0,circle,hexagon,,,,,,,,,,,,,,,,,,,,,,,,,,,,,,,,,,,,,,,,,,,,,,,,,,,,,,
297277,2022-12-05_16h15.27.040,vts_reward_expectancy_bt,2022.2.4,Win32,59.52380952,Chrome,1500,1000,,,l,0.9682,10,389,1,2,4,28,0,1,1,0,0,0,0,1,0,0,triangle,circle,,,,,,,,,,,,,,,,,,,,,,,,,,,,,,,,,,,,,,,,,,,,,,,,,,,,,,
297277,2022-12-05_16h15.27.040,vts_reward_expectancy_bt,2022.2.4,Win32,59.52380952,Chrome,1500,1000,,,l,1.0014,10,399,1,2,5,29,10,1,0,0,0,1,0,1,0,0,star ,circle,,,,,,,,,,,,,,,,,,,,,,,,,,,,,,,,,,,,,,,,,,,,,,,,,,,,,,
297277,2022-12-05_16h15.27.040,vts_reward_expectancy_bt,2022.2.4,Win32,59.52380952,Chrome,1500,1000,,,a,1.2181,1,400,1,2,6,30,11,1,0,0,0,1,0,0,1,0,star,hexagon,,,,,,,,,,,,,,,,,,,,,,,,,,,,,,,,,,,,,,,,,,,,,,,,,,,,,,
297277,2022-12-05_16h15.27.040,vts_reward_expectancy_bt,2022.2.4,Win32,59.52380952,Chrome,1500,1000,,,a,0.4962,1,401,1,2,7,31,8,1,0,0,1,0,0,0,0,1,hexagon,star,,,,,,,,,,,,,,,,,,,,,,,,,,,,,,,,,,,,,,,,,,,,,,,,,,,,,,
297277,2022-12-05_16h15.27.040,vts_reward_expectancy_bt,2022.2.4,Win32,59.52380952,Chrome,1500,1000,,,l,0.3811,10,411,1,2,8,32,9,1,0,0,0,1,1,0,0,0,star,triangle,,,,,,,,,,,,,,,,,,,,,,,,,,,,,,,,,,,,,,,,,,,,,,,,,,,,,,
297277,2022-12-05_16h15.27.040,vts_reward_expectancy_bt,2022.2.4,Win32,59.52380952,Chrome,1500,1000,,,a,0.4171,10,421,1,2,9,33,2,1,1,0,0,0,0,0,0,1,triangle,star,,,,,,,,,,,,,,,,,,,,,,,,,,,,,,,,,,,,,,,,,,,,,,,,,,,,,,
297277,2022-12-05_16h15.27.040,vts_reward_expectancy_bt,2022.2.4,Win32,59.52380952,Chrome,1500,1000,,,a,0.3596,10,431,1,2,10,34,3,1,0,1,0,0,1,0,0,0,circle,triangle,,,,,,,,,,,,,,,,,,,,,,,,,,,,,,,,,,,,,,,,,,,,,,,,,,,,,,
297277,2022-12-05_16h15.27.040,vts_reward_expectancy_bt,2022.2.4,Win32,59.52380952,Chrome,1500,1000,,,a,0.336,10,441,1,2,11,35,6,1,0,0,1,0,1,0,0,0,hexagon,triangle,,,,,,,,,,,,,,,,,,,,,,,,,,,,,,,,,,,,,,,,,,,,,,,,,,,,,,
297277,2022-12-05_16h15.27.040,vts_reward_expectancy_bt,2022.2.4,Win32,59.52380952,Chrome,1500,1000,,,l,0.5487,10,451,2,0,0,0,1,1,1,0,0,0,0,0,1,0,triangle,hexagon,,,,,,,,,,,,,,,,,,,,,,,,,,,,,,,,,,,,,,,,,,,,,,,,,,,,,,
297277,2022-12-05_16h15.27.040,vts_reward_expectancy_bt,2022.2.4,Win32,59.52380952,Chrome,1500,1000,,,l,0.2332,10,461,2,0,1,1,7,1,0,0,1,0,0,1,0,0,hexagon,circle,,,,,,,,,,,,,,,,,,,,,,,,,,,,,,,,,,,,,,,,,,,,,,,,,,,,,,
297277,2022-12-05_16h15.27.040,vts_reward_expectancy_bt,2022.2.4,Win32,59.52380952,Chrome,1500,1000,,,l,0.5008,10,471,2,0,2,2,9,1,0,0,0,1,1,0,0,0,star,triangle,,,,,,,,,,,,,,,,,,,,,,,,,,,,,,,,,,,,,,,,,,,,,,,,,,,,,,
297277,2022-12-05_16h15.27.040,vts_reward_expectancy_bt,2022.2.4,Win32,59.52380952,Chrome,1500,1000,,,l,0.2236,1,472,2,0,3,3,8,1,0,0,1,0,0,0,0,1,hexagon,star,,,,,,,,,,,,,,,,,,,,,,,,,,,,,,,,,,,,,,,,,,,,,,,,,,,,,,
297277,2022-12-05_16h15.27.040,vts_reward_expectancy_bt,2022.2.4,Win32,59.52380952,Chrome,1500,1000,,,a,0.3266,10,482,2,0,4,4,3,1,0,1,0,0,1,0,0,0,circle,triangle,,,,,,,,,,,,,,,,,,,,,,,,,,,,,,,,,,,,,,,,,,,,,,,,,,,,,,
297277,2022-12-05_16h15.27.040,vts_reward_expectancy_bt,2022.2.4,Win32,59.52380952,Chrome,1500,1000,,,l,0.3969,1,483,2,0,5,5,2,1,1,0,0,0,0,0,0,1,triangle,star,,,,,,,,,,,,,,,,,,,,,,,,,,,,,,,,,,,,,,,,,,,,,,,,,,,,,,
297277,2022-12-05_16h15.27.040,vts_reward_expectancy_bt,2022.2.4,Win32,59.52380952,Chrome,1500,1000,,,a,0.2839,1,484,2,0,6,6,10,1,0,0,0,1,0,1,0,0,star ,circle,,,,,,,,,,,,,,,,,,,,,,,,,,,,,,,,,,,,,,,,,,,,,,,,,,,,,,
297277,2022-12-05_16h15.27.040,vts_reward_expectancy_bt,2022.2.4,Win32,59.52380952,Chrome,1500,1000,,,a,0.3805,10,494,2,0,7,7,4,1,0,1,0,0,0,0,1,0,circle,hexagon,,,,,,,,,,,,,,,,,,,,,,,,,,,,,,,,,,,,,,,,,,,,,,,,,,,,,,
297277,2022-12-05_16h15.27.040,vts_reward_expectancy_bt,2022.2.4,Win32,59.52380952,Chrome,1500,1000,,,l,0.5513,1,495,2,0,8,8,0,1,1,0,0,0,0,1,0,0,triangle,circle,,,,,,,,,,,,,,,,,,,,,,,,,,,,,,,,,,,,,,,,,,,,,,,,,,,,,,
297277,2022-12-05_16h15.27.040,vts_reward_expectancy_bt,2022.2.4,Win32,59.52380952,Chrome,1500,1000,,,a,0.5446,10,505,2,0,9,9,5,1,0,1,0,0,0,0,0,1,circle,star,,,,,,,,,,,,,,,,,,,,,,,,,,,,,,,,,,,,,,,,,,,,,,,,,,,,,,
297277,2022-12-05_16h15.27.040,vts_reward_expectancy_bt,2022.2.4,Win32,59.52380952,Chrome,1500,1000,,,l,0.6004,1,506,2,0,10,10,6,1,0,0,1,0,1,0,0,0,hexagon,triangle,,,,,,,,,,,,,,,,,,,,,,,,,,,,,,,,,,,,,,,,,,,,,,,,,,,,,,
297277,2022-12-05_16h15.27.040,vts_reward_expectancy_bt,2022.2.4,Win32,59.52380952,Chrome,1500,1000,,,a,0.3165,1,507,2,0,11,11,11,1,0,0,0,1,0,0,1,0,star,hexagon,,,,,,,,,,,,,,,,,,,,,,,,,,,,,,,,,,,,,,,,,,,,,,,,,,,,,,
297277,2022-12-05_16h15.27.040,vts_reward_expectancy_bt,2022.2.4,Win32,59.52380952,Chrome,1500,1000,,,l,0.4728,10,517,2,1,0,12,8,1,0,0,1,0,0,0,0,1,hexagon,star,,,,,,,,,,,,,,,,,,,,,,,,,,,,,,,,,,,,,,,,,,,,,,,,,,,,,,
297277,2022-12-05_16h15.27.040,vts_reward_expectancy_bt,2022.2.4,Win32,59.52380952,Chrome,1500,1000,,,a,0.4303,10,527,2,1,1,13,10,1,0,0,0,1,0,1,0,0,star ,circle,,,,,,,,,,,,,,,,,,,,,,,,,,,,,,,,,,,,,,,,,,,,,,,,,,,,,,
297277,2022-12-05_16h15.27.040,vts_reward_expectancy_bt,2022.2.4,Win32,59.52380952,Chrome,1500,1000,,,l,0.3464,10,537,2,1,2,14,7,1,0,0,1,0,0,1,0,0,hexagon,circle,,,,,,,,,,,,,,,,,,,,,,,,,,,,,,,,,,,,,,,,,,,,,,,,,,,,,,
297277,2022-12-05_16h15.27.040,vts_reward_expectancy_bt,2022.2.4,Win32,59.52380952,Chrome,1500,1000,,,a,0.3755,10,547,2,1,3,15,4,1,0,1,0,0,0,0,1,0,circle,hexagon,,,,,,,,,,,,,,,,,,,,,,,,,,,,,,,,,,,,,,,,,,,,,,,,,,,,,,
297277,2022-12-05_16h15.27.040,vts_reward_expectancy_bt,2022.2.4,Win32,59.52380952,Chrome,1500,1000,,,l,0.2837,10,557,2,1,4,16,0,1,1,0,0,0,0,1,0,0,triangle,circle,,,,,,,,,,,,,,,,,,,,,,,,,,,,,,,,,,,,,,,,,,,,,,,,,,,,,,
297277,2022-12-05_16h15.27.040,vts_reward_expectancy_bt,2022.2.4,Win32,59.52380952,Chrome,1500,1000,,,a,0.1969,1,558,2,1,5,17,6,1,0,0,1,0,1,0,0,0,hexagon,triangle,,,,,,,,,,,,,,,,,,,,,,,,,,,,,,,,,,,,,,,,,,,,,,,,,,,,,,
297277,2022-12-05_16h15.27.040,vts_reward_expectancy_bt,2022.2.4,Win32,59.52380952,Chrome,1500,1000,,,l,0.3001,1,559,2,1,6,18,5,1,0,1,0,0,0,0,0,1,circle,star,,,,,,,,,,,,,,,,,,,,,,,,,,,,,,,,,,,,,,,,,,,,,,,,,,,,,,
297277,2022-12-05_16h15.27.040,vts_reward_expectancy_bt,2022.2.4,Win32,59.52380952,Chrome,1500,1000,,,a,0.3834,1,560,2,1,7,19,9,1,0,0,0,1,1,0,0,0,star,triangle,,,,,,,,,,,,,,,,,,,,,,,,,,,,,,,,,,,,,,,,,,,,,,,,,,,,,,
297277,2022-12-05_16h15.27.040,vts_reward_expectancy_bt,2022.2.4,Win32,59.52380952,Chrome,1500,1000,,,l,0.2677,1,561,2,1,8,20,3,1,0,1,0,0,1,0,0,0,circle,triangle,,,,,,,,,,,,,,,,,,,,,,,,,,,,,,,,,,,,,,,,,,,,,,,,,,,,,,
297277,2022-12-05_16h15.27.040,vts_reward_expectancy_bt,2022.2.4,Win32,59.52380952,Chrome,1500,1000,,,l,0.3834,10,571,2,1,9,21,11,1,0,0,0,1,0,0,1,0,star,hexagon,,,,,,,,,,,,,,,,,,,,,,,,,,,,,,,,,,,,,,,,,,,,,,,,,,,,,,
297277,2022-12-05_16h15.27.040,vts_reward_expectancy_bt,2022.2.4,Win32,59.52380952,Chrome,1500,1000,,,a,0.5101,10,581,2,1,10,22,2,1,1,0,0,0,0,0,0,1,triangle,star,,,,,,,,,,,,,,,,,,,,,,,,,,,,,,,,,,,,,,,,,,,,,,,,,,,,,,
297277,2022-12-05_16h15.27.040,vts_reward_expectancy_bt,2022.2.4,Win32,59.52380952,Chrome,1500,1000,,,l,0.4189,10,591,2,1,11,23,1,1,1,0,0,0,0,0,1,0,triangle,hexagon,,,,,,,,,,,,,,,,,,,,,,,,,,,,,,,,,,,,,,,,,,,,,,,,,,,,,,
297277,2022-12-05_16h15.27.040,vts_reward_expectancy_bt,2022.2.4,Win32,59.52380952,Chrome,1500,1000,,,a,0.4131,1,592,2,2,0,24,8,1,0,0,1,0,0,0,0,1,hexagon,star,,,,,,,,,,,,,,,,,,,,,,,,,,,,,,,,,,,,,,,,,,,,,,,,,,,,,,
297277,2022-12-05_16h15.27.040,vts_reward_expectancy_bt,2022.2.4,Win32,59.52380952,Chrome,1500,1000,,,a,0.5005,1,593,2,2,1,25,2,1,1,0,0,0,0,0,0,1,triangle,star,,,,,,,,,,,,,,,,,,,,,,,,,,,,,,,,,,,,,,,,,,,,,,,,,,,,,,
297277,2022-12-05_16h15.27.040,vts_reward_expectancy_bt,2022.2.4,Win32,59.52380952,Chrome,1500,1000,,,l,0.3848,10,603,2,2,2,26,9,1,0,0,0,1,1,0,0,0,star,triangle,,,,,,,,,,,,,,,,,,,,,,,,,,,,,,,,,,,,,,,,,,,,,,,,,,,,,,
297277,2022-12-05_16h15.27.040,vts_reward_expectancy_bt,2022.2.4,Win32,59.52380952,Chrome,1500,1000,,,l,0.4646,10,613,2,2,3,27,10,1,0,0,0,1,0,1,0,0,star ,circle,,,,,,,,,,,,,,,,,,,,,,,,,,,,,,,,,,,,,,,,,,,,,,,,,,,,,,
297277,2022-12-05_16h15.27.040,vts_reward_expectancy_bt,2022.2.4,Win32,59.52380952,Chrome,1500,1000,,,l,0.733,1,614,2,2,4,28,1,1,1,0,0,0,0,0,1,0,triangle,hexagon,,,,,,,,,,,,,,,,,,,,,,,,,,,,,,,,,,,,,,,,,,,,,,,,,,,,,,
297277,2022-12-05_16h15.27.040,vts_reward_expectancy_bt,2022.2.4,Win32,59.52380952,Chrome,1500,1000,,,a,0.5809,1,615,2,2,5,29,4,1,0,1,0,0,0,0,1,0,circle,hexagon,,,,,,,,,,,,,,,,,,,,,,,,,,,,,,,,,,,,,,,,,,,,,,,,,,,,,,
297277,2022-12-05_16h15.27.040,vts_reward_expectancy_bt,2022.2.4,Win32,59.52380952,Chrome,1500,1000,,,l,0.6231,10,625,2,2,6,30,7,1,0,0,1,0,0,1,0,0,hexagon,circle,,,,,,,,,,,,,,,,,,,,,,,,,,,,,,,,,,,,,,,,,,,,,,,,,,,,,,
297277,2022-12-05_16h15.27.040,vts_reward_expectancy_bt,2022.2.4,Win32,59.52380952,Chrome,1500,1000,,,a,0.5541,10,635,2,2,7,31,11,1,0,0,0,1,0,0,1,0,star,hexagon,,,,,,,,,,,,,,,,,,,,,,,,,,,,,,,,,,,,,,,,,,,,,,,,,,,,,,
297277,2022-12-05_16h15.27.040,vts_reward_expectancy_bt,2022.2.4,Win32,59.52380952,Chrome,1500,1000,,,a,0.5687,1,636,2,2,8,32,5,1,0,1,0,0,0,0,0,1,circle,star,,,,,,,,,,,,,,,,,,,,,,,,,,,,,,,,,,,,,,,,,,,,,,,,,,,,,,
297277,2022-12-05_16h15.27.040,vts_reward_expectancy_bt,2022.2.4,Win32,59.52380952,Chrome,1500,1000,,,l,0.3009,10,646,2,2,9,33,6,1,0,0,1,0,1,0,0,0,hexagon,triangle,,,,,,,,,,,,,,,,,,,,,,,,,,,,,,,,,,,,,,,,,,,,,,,,,,,,,,
297277,2022-12-05_16h15.27.040,vts_reward_expectancy_bt,2022.2.4,Win32,59.52380952,Chrome,1500,1000,,,a,0.3476,10,656,2,2,10,34,3,1,0,1,0,0,1,0,0,0,circle,triangle,,,,,,,,,,,,,,,,,,,,,,,,,,,,,,,,,,,,,,,,,,,,,,,,,,,,,,
297277,2022-12-05_16h15.27.040,vts_reward_expectancy_bt,2022.2.4,Win32,59.52380952,Chrome,1500,1000,,,l,0.3179,1,657,2,2,11,35,0,1,1,0,0,0,0,1,0,0,triangle,circle,,,,,,,,,,,,,,,,,,,,,,,,,,,,,,,,,,,,,,,,,,,,,,,,,,,,,,
297277,2022-12-05_16h15.27.040,vts_reward_expectancy_bt,2022.2.4,Win32,59.52380952,Chrome,1500,1000,,,,,,,,,,,,,,,,,,,,,,,S,167,triangle,1,0,f,1.6009,0,0,0,0,0,1,,,,,,,,,,,,,,,,,,,,,,,,,,,,,,,,,,,,,,,,,
297277,2022-12-05_16h15.27.040,vts_reward_expectancy_bt,2022.2.4,Win32,59.52380952,Chrome,1500,1000,,,,,,,,,,,,,,,,,,,,,,,H,174,star,1,0,d,0.8484,0,1,0,1,0,1,,,,,,,,,,,,,,,,,,,,,,,,,,,,,,,,,,,,,,,,,
297277,2022-12-05_16h15.27.040,vts_reward_expectancy_bt,2022.2.4,Win32,59.52380952,Chrome,1500,1000,,,,,,,,,,,,,,,,,,,,,,,D,125,hexagon,1,0,d,0.4675,0,2,0,2,0,1,,,,,,,,,,,,,,,,,,,,,,,,,,,,,,,,,,,,,,,,,
297277,2022-12-05_16h15.27.040,vts_reward_expectancy_bt,2022.2.4,Win32,59.52380952,Chrome,1500,1000,,,,,,,,,,,,,,,,,,,,,,,W,139,circle,1,0,f,0.5676,0,3,0,3,0,1,,,,,,,,,,,,,,,,,,,,,,,,,,,,,,,,,,,,,,,,,
297277,2022-12-05_16h15.27.040,vts_reward_expectancy_bt,2022.2.4,Win32,59.52380952,Chrome,1500,1000,,,,,,,,,,,,,,,,,,,,,,,U,132,triangle,1,0,f,0.7458,0,4,0,4,0,1,,,,,,,,,,,,,,,,,,,,,,,,,,,,,,,,,,,,,,,,,
297277,2022-12-05_16h15.27.040,vts_reward_expectancy_bt,2022.2.4,Win32,59.52380952,Chrome,1500,1000,,,,,,,,,,,,,,,,,,,,,,,F,146,star,0,0,f,0.5028,0,5,0,5,0,1,,,,,,,,,,,,,,,,,,,,,,,,,,,,,,,,,,,,,,,,,
297277,2022-12-05_16h15.27.040,vts_reward_expectancy_bt,2022.2.4,Win32,59.52380952,Chrome,1500,1000,,,,,,,,,,,,,,,,,,,,,,,B,160,hexagon,1,1,d,0.5778,0,6,0,6,0,1,,,,,,,,,,,,,,,,,,,,,,,,,,,,,,,,,,,,,,,,,
297277,2022-12-05_16h15.27.040,vts_reward_expectancy_bt,2022.2.4,Win32,59.52380952,Chrome,1500,1000,,,,,,,,,,,,,,,,,,,,,,,Y,181,circle,1,0,f,0.8696,0,7,0,7,0,1,,,,,,,,,,,,,,,,,,,,,,,,,,,,,,,,,,,,,,,,,
297277,2022-12-05_16h15.27.040,vts_reward_expectancy_bt,2022.2.4,Win32,59.52380952,Chrome,1500,1000,,,,,,,,,,,,,,,,,,,,,,,S,167,hexagon,1,0,f,0.6179,0,8,0,8,0,1,,,,,,,,,,,,,,,,,,,,,,,,,,,,,,,,,,,,,,,,,
297277,2022-12-05_16h15.27.040,vts_reward_expectancy_bt,2022.2.4,Win32,59.52380952,Chrome,1500,1000,,,,,,,,,,,,,,,,,,,,,,,H,174,triangle,1,0,d,0.4842,0,9,0,9,0,1,,,,,,,,,,,,,,,,,,,,,,,,,,,,,,,,,,,,,,,,,
297277,2022-12-05_16h15.27.040,vts_reward_expectancy_bt,2022.2.4,Win32,59.52380952,Chrome,1500,1000,,,,,,,,,,,,,,,,,,,,,,,U,146,circle,1,0,,,1,,,,,,j,1.0513,0,0,0,0,1,,,,,,,,,,,,,,,,,,,,,,,,,,,,,,,,,,
297277,2022-12-05_16h15.27.040,vts_reward_expectancy_bt,2022.2.4,Win32,59.52380952,Chrome,1500,1000,,,,,,,,,,,,,,,,,,,,,,,H,125,triangle,1,0,,,1,,,,,,j,0.4947,1,0,1,0,1,,,,,,,,,,,,,,,,,,,,,,,,,,,,,,,,,,
297277,2022-12-05_16h15.27.040,vts_reward_expectancy_bt,2022.2.4,Win32,59.52380952,Chrome,1500,1000,,,,,,,,,,,,,,,,,,,,,,,S,167,hexagon,1,0,,,1,,,,,,k,0.3758,2,0,2,0,1,,,,,,,,,,,,,,,,,,,,,,,,,,,,,,,,,,
297277,2022-12-05_16h15.27.040,vts_reward_expectancy_bt,2022.2.4,Win32,59.52380952,Chrome,1500,1000,,,,,,,,,,,,,,,,,,,,,,,D,181,star,1,0,,,1,,,,,,k,0.5464,3,0,3,0,1,,,,,,,,,,,,,,,,,,,,,,,,,,,,,,,,,,
297277,2022-12-05_16h15.27.040,vts_reward_expectancy_bt,2022.2.4,Win32,59.52380952,Chrome,1500,1000,,,,,,,,,,,,,,,,,,,,,,,Y,160,circle,1,0,,,1,,,,,,k,0.501,4,0,4,0,1,,,,,,,,,,,,,,,,,,,,,,,,,,,,,,,,,,
297277,2022-12-05_16h15.27.040,vts_reward_expectancy_bt,2022.2.4,Win32,59.52380952,Chrome,1500,1000,,,,,,,,,,,,,,,,,,,,,,,W,132,triangle,1,0,,,1,,,,,,j,0.361,5,0,5,0,1,,,,,,,,,,,,,,,,,,,,,,,,,,,,,,,,,,
297277,2022-12-05_16h15.27.040,vts_reward_expectancy_bt,2022.2.4,Win32,59.52380952,Chrome,1500,1000,,,,,,,,,,,,,,,,,,,,,,,B,174,hexagon,1,0,,,1,,,,,,k,0.5695,6,0,6,0,1,,,,,,,,,,,,,,,,,,,,,,,,,,,,,,,,,,
297277,2022-12-05_16h15.27.040,vts_reward_expectancy_bt,2022.2.4,Win32,59.52380952,Chrome,1500,1000,,,,,,,,,,,,,,,,,,,,,,,F,139,star,1,0,,,1,,,,,,j,0.9847,7,0,7,0,1,,,,,,,,,,,,,,,,,,,,,,,,,,,,,,,,,,
297277,2022-12-05_16h15.27.040,vts_reward_expectancy_bt,2022.2.4,Win32,59.52380952,Chrome,1500,1000,,,,,,,,,,,,,,,,,,,,,,,U,146,triangle,1,0,,,1,,,,,,j,0.9619,8,0,8,0,1,,,,,,,,,,,,,,,,,,,,,,,,,,,,,,,,,,
297277,2022-12-05_16h15.27.040,vts_reward_expectancy_bt,2022.2.4,Win32,59.52380952,Chrome,1500,1000,,,,,,,,,,,,,,,,,,,,,,,H,125,hexagon,1,0,,,1,,,,,,j,0.718,9,0,9,0,1,,,,,,,,,,,,,,,,,,,,,,,,,,,,,,,,,,
297277,2022-12-05_16h15.27.040,vts_reward_expectancy_bt,2022.2.4,Win32,59.52380952,Chrome,1500,1000,,,,,0,657,,,,,,,,,,,,,,,,,U,125,star,-1,0,,,2,,,,,,,,,,,,,-1,no_choice,NA,,vtsPrac,0,0,0,0,1,,,,,,,,,,,,,,,,,,,,,,,,
297277,2022-12-05_16h15.27.040,vts_reward_expectancy_bt,2022.2.4,Win32,59.52380952,Chrome,1500,1000,,,,,0,657,,,,,,,,,,,,,,,,,Y,139,circle,1,0,,,2,,,,,,,,,,,,,switch,number,numSwt,j,vtsPrac,1,0,1,0,1,0.883,,,,,,,,,,,,,,,,,,,,,,,
297277,2022-12-05_16h15.27.040,vts_reward_expectancy_bt,2022.2.4,Win32,59.52380952,Chrome,1500,1000,,,,,0,657,,,,,,,,,,,,,,,,,W,160,star,1,0,,,2,,,,,,,,,,,,,repeat,number,numRpt,k,vtsPrac,2,0,2,0,1,0.4537,,,,,,,,,,,,,,,,,,,,,,,
297277,2022-12-05_16h15.27.040,vts_reward_expectancy_bt,2022.2.4,Win32,59.52380952,Chrome,1500,1000,,,,,0,657,,,,,,,,,,,,,,,,,S,174,circle,1,0,,,2,,,,,,,,,,,,,switch,letter,lettSwt,f,vtsPrac,3,0,3,0,1,0.5131,,,,,,,,,,,,,,,,,,,,,,,
297277,2022-12-05_16h15.27.040,vts_reward_expectancy_bt,2022.2.4,Win32,59.52380952,Chrome,1500,1000,,,,,0,657,,,,,,,,,,,,,,,,,U,125,star,1,0,,,2,,,,,,,,,,,,,repeat,letter,lettRpt,f,vtsPrac,4,0,4,0,1,0.5517,,,,,,,,,,,,,,,,,,,,,,,
297277,2022-12-05_16h15.27.040,vts_reward_expectancy_bt,2022.2.4,Win32,59.52380952,Chrome,1500,1000,,,,,0,657,,,,,,,,,,,,,,,,,Y,139,triangle,1,0,,,2,,,,,,,,,,,,,switch,number,numSwt,j,vtsPrac,5,0,5,0,1,0.5342,,,,,,,,,,,,,,,,,,,,,,,
297277,2022-12-05_16h15.27.040,vts_reward_expectancy_bt,2022.2.4,Win32,59.52380952,Chrome,1500,1000,,,,,0,657,,,,,,,,,,,,,,,,,W,160,circle,1,0,,,2,,,,,,,,,,,,,repeat,number,numRpt,k,vtsPrac,6,0,6,0,1,0.7351,,,,,,,,,,,,,,,,,,,,,,,
297277,2022-12-05_16h15.27.040,vts_reward_expectancy_bt,2022.2.4,Win32,59.52380952,Chrome,1500,1000,,,,,0,657,,,,,,,,,,,,,,,,,S,174,triangle,1,0,,,2,,,,,,,,,,,,,switch,letter,lettSwt,f,vtsPrac,7,0,7,0,1,0.6782,,,,,,,,,,,,,,,,,,,,,,,
297277,2022-12-05_16h15.27.040,vts_reward_expectancy_bt,2022.2.4,Win32,59.52380952,Chrome,1500,1000,,,,,0,657,,,,,,,,,,,,,,,,,B,167,circle,1,0,,,2,,,,,,,,,,,,,repeat,letter,lettRpt,d,vtsPrac,8,0,8,0,1,0.4526,,,,,,,,,,,,,,,,,,,,,,,
297277,2022-12-05_16h15.27.040,vts_reward_expectancy_bt,2022.2.4,Win32,59.52380952,Chrome,1500,1000,,,,,0,657,,,,,,,,,,,,,,,,,F,132,hexagon,1,0,,,2,,,,,,,,,,,,,repeat,letter,lettRpt,d,vtsPrac,9,0,9,0,1,0.619,,,,,,,,,,,,,,,,,,,,,,,
297277,2022-12-05_16h15.27.040,vts_reward_expectancy_bt,2022.2.4,Win32,59.52380952,Chrome,1500,1000,,,,,0,657,,,,,,,,,,,,,,,,,S,146,hexagon,1,0,,,2,,,,,,,,,,,,,switch,number,numSwt,j,vtsPrac,10,0,10,0,1,0.617,,,,,,,,,,,,,,,,,,,,,,,
297277,2022-12-05_16h15.27.040,vts_reward_expectancy_bt,2022.2.4,Win32,59.52380952,Chrome,1500,1000,,,,,0,657,,,,,,,,,,,,,,,,,H,160,star,1,0,,,2,,,,,,,,,,,,,repeat,number,numRpt,k,vtsPrac,11,0,11,0,1,0.6853,,,,,,,,,,,,,,,,,,,,,,,
297277,2022-12-05_16h15.27.040,vts_reward_expectancy_bt,2022.2.4,Win32,59.52380952,Chrome,1500,1000,,,,,0,657,,,,,,,,,,,,,,,,,S,146,star,1,0,,,2,,,,,,,,,,,,,repeat,number,numRpt,j,vtsPrac,12,0,12,0,1,0.503,,,,,,,,,,,,,,,,,,,,,,,
297277,2022-12-05_16h15.27.040,vts_reward_expectancy_bt,2022.2.4,Win32,59.52380952,Chrome,1500,1000,,,,,0,657,,,,,,,,,,,,,,,,,Y,125,triangle,1,0,,,2,,,,,,,,,,,,,switch,letter,lettSwt,f,vtsPrac,13,0,13,0,1,0.4878,,,,,,,,,,,,,,,,,,,,,,,
297277,2022-12-05_16h15.27.040,vts_reward_expectancy_bt,2022.2.4,Win32,59.52380952,Chrome,1500,1000,,,,,0,657,,,,,,,,,,,,,,,,,D,167,circle,1,0,,,2,,,,,,,,,,,,,repeat,letter,lettRpt,d,vtsPrac,14,0,14,0,1,0.666,,,,,,,,,,,,,,,,,,,,,,,
297277,2022-12-05_16h15.27.040,vts_reward_expectancy_bt,2022.2.4,Win32,59.52380952,Chrome,1500,1000,,,,,0,657,,,,,,,,,,,,,,,,,F,174,star,1,0,,,2,,,,,,,,,,,,,repeat,letter,lettRpt,d,vtsPrac,15,0,15,0,1,0.6122,,,,,,,,,,,,,,,,,,,,,,,
297277,2022-12-05_16h15.27.040,vts_reward_expectancy_bt,2022.2.4,Win32,59.52380952,Chrome,1500,1000,,,,,0,657,,,,,,,,,,,,,,,,,H,181,star,1,0,,,2,,,,,,,,,,,,,repeat,letter,lettRpt,d,vtsPrac,16,0,16,0,1,0.6249,,,,,,,,,,,,,,,,,,,,,,,
297277,2022-12-05_16h15.27.040,vts_reward_expectancy_bt,2022.2.4,Win32,59.52380952,Chrome,1500,1000,,,,,0,657,,,,,,,,,,,,,,,,,B,174,circle,1,0,,,2,,,,,,,,,,,,,repeat,letter,lettRpt,d,vtsPrac,17,0,17,0,1,0.7583,,,,,,,,,,,,,,,,,,,,,,,
297277,2022-12-05_16h15.27.040,vts_reward_expectancy_bt,2022.2.4,Win32,59.52380952,Chrome,1500,1000,,,,,0,657,,,,,,,,,,,,,,,,,F,139,triangle,1,0,,,2,,,,,,,,,,,,,repeat,letter,lettRpt,d,vtsPrac,18,0,18,0,1,0.5112,,,,,,,,,,,,,,,,,,,,,,,
297277,2022-12-05_16h15.27.040,vts_reward_expectancy_bt,2022.2.4,Win32,59.52380952,Chrome,1500,1000,,,,,0,657,,,,,,,,,,,,,,,,,U,132,hexagon,1,0,,,2,,,,,,,,,,,,,switch,number,numSwt,j,vtsPrac,19,0,19,0,1,0.5843,,,,,,,,,,,,,,,,,,,,,,,
297277,2022-12-05_16h15.27.040,vts_reward_expectancy_bt,2022.2.4,Win32,59.52380952,Chrome,1500,1000,,,,,0,657,,,,,,,,,,,,,,,,,B,146,hexagon,1,0,,,2,,,,,,,,,,,,,repeat,number,numRpt,j,vtsPrac,20,0,20,0,1,0.9047,,,,,,,,,,,,,,,,,,,,,,,
297277,2022-12-05_16h15.27.040,vts_reward_expectancy_bt,2022.2.4,Win32,59.52380952,Chrome,1500,1000,,,,,0,657,,,,,,,,,,,,,,,,,W,160,circle,1,0,,,2,,,,,,,,,,,,,repeat,number,numRpt,k,vtsPrac,21,0,21,0,1,0.5267,,,,,,,,,,,,,,,,,,,,,,,
297277,2022-12-05_16h15.27.040,vts_reward_expectancy_bt,2022.2.4,Win32,59.52380952,Chrome,1500,1000,,,,,0,657,,,,,,,,,,,,,,,,,F,167,star,1,0,,,2,,,,,,,,,,,,,repeat,number,numRpt,k,vtsPrac,22,0,22,0,1,0.7853,,,,,,,,,,,,,,,,,,,,,,,
297277,2022-12-05_16h15.27.040,vts_reward_expectancy_bt,2022.2.4,Win32,59.52380952,Chrome,1500,1000,,,,,0,657,,,,,,,,,,,,,,,,,S,125,circle,1,0,,,2,,,,,,,,,,,,,repeat,number,numRpt,j,vtsPrac,23,0,23,0,1,0.6722,,,,,,,,,,,,,,,,,,,,,,,
297277,2022-12-05_16h15.27.040,vts_reward_expectancy_bt,2022.2.4,Win32,59.52380952,Chrome,1500,1000,,,,,0,657,,,,,,,,,,,,,,,,,H,181,star,1,0,,,2,,,,,,,,,,,,,repeat,number,numRpt,k,vtsPrac,24,0,24,0,1,0.5869,,,,,,,,,,,,,,,,,,,,,,,
297277,2022-12-05_16h15.27.040,vts_reward_expectancy_bt,2022.2.4,Win32,59.52380952,Chrome,1500,1000,,,,,0,657,,,,,,,,,,,,,,,,,B,167,triangle,1,0,,,2,,,,,,,,,,,,,switch,letter,lettSwt,d,vtsPrac,25,0,25,0,1,0.486,,,,,,,,,,,,,,,,,,,,,,,
297277,2022-12-05_16h15.27.040,vts_reward_expectancy_bt,2022.2.4,Win32,59.52380952,Chrome,1500,1000,,,,,0,657,,,,,,,,,,,,,,,,,F,139,circle,1,0,,,2,,,,,,,,,,,,,repeat,letter,lettRpt,d,vtsPrac,26,0,26,0,1,0.9946,,,,,,,,,,,,,,,,,,,,,,,
297277,2022-12-05_16h15.27.040,vts_reward_expectancy_bt,2022.2.4,Win32,59.52380952,Chrome,1500,1000,,,,,0,657,,,,,,,,,,,,,,,,,S,174,star,1,0,,,2,,,,,,,,,,,,,repeat,letter,lettRpt,f,vtsPrac,27,0,27,0,1,0.5447,,,,,,,,,,,,,,,,,,,,,,,
297277,2022-12-05_16h15.27.040,vts_reward_expectancy_bt,2022.2.4,Win32,59.52380952,Chrome,1500,1000,,,,,0,657,,,,,,,,,,,,,,,,,H,160,hexagon,1,0,,,2,,,,,,,,,,,,,repeat,letter,lettRpt,d,vtsPrac,28,0,28,0,1,0.703,,,,,,,,,,,,,,,,,,,,,,,
297277,2022-12-05_16h15.27.040,vts_reward_expectancy_bt,2022.2.4,Win32,59.52380952,Chrome,1500,1000,,,,,0,657,,,,,,,,,,,,,,,,,B,181,circle,1,0,,,2,,,,,,,,,,,,,repeat,letter,lettRpt,d,vtsPrac,29,0,29,0,1,0.5783,,,,,,,,,,,,,,,,,,,,,,,
297277,2022-12-05_16h15.27.040,vts_reward_expectancy_bt,2022.2.4,Win32,59.52380952,Chrome,1500,1000,,,,,0,657,,,,,,,,,,,,,,,,,U,125,triangle,1,0,,,2,,,,,,,,,,,,,repeat,letter,lettRpt,f,vtsPrac,30,0,30,0,1,0.7962,,,,,,,,,,,,,,,,,,,,,,,
297277,2022-12-05_16h15.27.040,vts_reward_expectancy_bt,2022.2.4,Win32,59.52380952,Chrome,1500,1000,,,,,0,657,,,,,,,,,,,,,,,,,D,146,circle,1,0,,,2,,,,,,,,,,,,,repeat,letter,lettRpt,d,vtsPrac,31,0,31,0,1,0.7728,,,,,,,,,,,,,,,,,,,,,,,
297277,2022-12-05_16h15.27.040,vts_reward_expectancy_bt,2022.2.4,Win32,59.52380952,Chrome,1500,1000,,,,,,,,,,,,,,,,,,,,,,,,,,,,,,,,,,,,,,,,,,,,,,,,,,,,,,,,,,,,,,,,,,,,,,,,,,,,
297277,2022-12-05_16h15.27.040,vts_reward_expectancy_bt,2022.2.4,Win32,59.52380952,Chrome,1500,1000,,,,,,,,,,,,,,,,,,,,,,,,,,,,,,,,,,,,,,,,,,,,,,,,,,,,,,,,,,,,,,,,,,,,,,,,,,,,
297277,2022-12-05_16h15.27.040,vts_reward_expectancy_bt,2022.2.4,Win32,59.52380952,Chrome,1500,1000,,,,,0,657,,,,,,,,,,,,,,,,,U,125,triangle,0,0,,,,,,,,,,,,,,,,switch,number,NA,k,noRew,,,,,,1.2343,0,0,0,0,0,1,,,,,,,,,,,,,,,,,
297277,2022-12-05_16h15.27.040,vts_reward_expectancy_bt,2022.2.4,Win32,59.52380952,Chrome,1500,1000,,,,,0,657,,,,,,,,,,,,,,,,,D,132,hexagon,1,1,,,,,,,,,,,,,,,,switch,letter,lettSwt,d,noRew,,,,,,0.6062,0,1,0,1,0,1,,,,,,,,,,,,,,,,,
297277,2022-12-05_16h15.27.040,vts_reward_expectancy_bt,2022.2.4,Win32,59.52380952,Chrome,1500,1000,,,,,0,657,,,,,,,,,,,,,,,,,B,181,triangle,1,0,,,,,,,,,,,,,,,,repeat,letter,lettRpt,d,noRew,,,,,,0.6947,0,2,0,2,0,1,,,,,,,,,,,,,,,,,
297277,2022-12-05_16h15.27.040,vts_reward_expectancy_bt,2022.2.4,Win32,59.52380952,Chrome,1500,1000,,,,,0,657,,,,,,,,,,,,,,,,,H,160,hexagon,1,0,,,,,,,,,,,,,,,,switch,number,numSwt,k,noRew,,,,,,0.5847,0,3,0,3,0,1,,,,,,,,,,,,,,,,,
297277,2022-12-05_16h15.27.040,vts_reward_expectancy_bt,2022.2.4,Win32,59.52380952,Chrome,1500,1000,,,,,0,657,,,,,,,,,,,,,,,,,U,125,triangle,1,0,,,,,,,,,,,,,,,,repeat,number,numRpt,j,noRew,,,,,,0.5173,0,4,0,4,0,1,,,,,,,,,,,,,,,,,
297277,2022-12-05_16h15.27.040,vts_reward_expectancy_bt,2022.2.4,Win32,59.52380952,Chrome,1500,1000,,,,,0,657,,,,,,,,,,,,,,,,,D,132,star,1,0,,,,,,,,,,,,,,,,switch,letter,lettSwt,d,noRew,,,,,,0.7577,0,5,0,5,0,1,,,,,,,,,,,,,,,,,
297277,2022-12-05_16h15.27.040,vts_reward_expectancy_bt,2022.2.4,Win32,59.52380952,Chrome,1500,1000,,,,,0,657,,,,,,,,,,,,,,,,,B,181,hexagon,1,0,,,,,,,,,,,,,,,,repeat,letter,lettRpt,d,noRew,,,,,,0.5674,0,6,0,6,0,1,,,,,,,,,,,,,,,,,
297277,2022-12-05_16h15.27.040,vts_reward_expectancy_bt,2022.2.4,Win32,59.52380952,Chrome,1500,1000,,,,,0,657,,,,,,,,,,,,,,,,,H,160,triangle,1,0,,,,,,,,,,,,,,,,repeat,letter,lettRpt,d,noRew,,,,,,0.851,0,7,0,7,0,1,,,,,,,,,,,,,,,,,
297277,2022-12-05_16h15.27.040,vts_reward_expectancy_bt,2022.2.4,Win32,59.52380952,Chrome,1500,1000,,,,,0,657,,,,,,,,,,,,,,,,,H,139,triangle,1,0,,,,,,,,,,,,,,,,repeat,letter,lettRpt,d,noRew,,,,,,0.5393,0,8,0,8,0,1,,,,,,,,,,,,,,,,,
297277,2022-12-05_16h15.27.040,vts_reward_expectancy_bt,2022.2.4,Win32,59.52380952,Chrome,1500,1000,,,,,0,657,,,,,,,,,,,,,,,,,Y,125,circle,1,0,,,,,,,,,,,,,,,,repeat,letter,lettRpt,f,noRew,,,,,,1.2612,0,9,0,9,0,1,,,,,,,,,,,,,,,,,
297277,2022-12-05_16h15.27.040,vts_reward_expectancy_bt,2022.2.4,Win32,59.52380952,Chrome,1500,1000,,,,,0,657,,,,,,,,,,,,,,,,,D,174,circle,1,0,,,,,,,,,,,,,,,,repeat,letter,lettRpt,d,noRew,,,,,,0.5721,0,10,0,10,0,1,,,,,,,,,,,,,,,,,
297277,2022-12-05_16h15.27.040,vts_reward_expectancy_bt,2022.2.4,Win32,59.52380952,Chrome,1500,1000,,,,,0,657,,,,,,,,,,,,,,,,,F,146,hexagon,1,0,,,,,,,,,,,,,,,,repeat,letter,lettRpt,d,noRew,,,,,,0.5978,0,11,0,11,0,1,,,,,,,,,,,,,,,,,
297277,2022-12-05_16h15.27.040,vts_reward_expectancy_bt,2022.2.4,Win32,59.52380952,Chrome,1500,1000,,,,,0,657,,,,,,,,,,,,,,,,,D,132,circle,1,0,,,,,,,,,,,,,,,,switch,number,numSwt,j,noRew,,,,,,0.9854,0,12,0,12,0,1,,,,,,,,,,,,,,,,,
297277,2022-12-05_16h15.27.040,vts_reward_expectancy_bt,2022.2.4,Win32,59.52380952,Chrome,1500,1000,,,,,0,657,,,,,,,,,,,,,,,,,W,139,hexagon,0,0,,,,,,,,,,,,,,,,repeat,number,NA,k,noRew,,,,,,0.6917,0,13,0,13,0,1,,,,,,,,,,,,,,,,,
297277,2022-12-05_16h15.27.040,vts_reward_expectancy_bt,2022.2.4,Win32,59.52380952,Chrome,1500,1000,,,,,0,657,,,,,,,,,,,,,,,,,B,146,hexagon,1,1,,,,,,,,,,,,,,,,switch,letter,lettSwt,d,noRew,,,,,,0.7796,0,14,0,14,0,1,,,,,,,,,,,,,,,,,
297277,2022-12-05_16h15.27.040,vts_reward_expectancy_bt,2022.2.4,Win32,59.52380952,Chrome,1500,1000,,,,,0,657,,,,,,,,,,,,,,,,,U,125,circle,1,0,,,,,,,,,,,,,,,,repeat,letter,lettRpt,f,noRew,,,,,,0.9209,0,15,0,15,0,1,,,,,,,,,,,,,,,,,
297277,2022-12-05_16h15.27.040,vts_reward_expectancy_bt,2022.2.4,Win32,59.52380952,Chrome,1500,1000,,,,,0,657,,,,,,,,,,,,,,,,,B,167,circle,1,0,,,,,,,,,,,,,,,,switch,number,numSwt,k,noRew,,,,,,0.5454,0,16,0,16,0,1,,,,,,,,,,,,,,,,,
297277,2022-12-05_16h15.27.040,vts_reward_expectancy_bt,2022.2.4,Win32,59.52380952,Chrome,1500,1000,,,,,0,657,,,,,,,,,,,,,,,,,W,146,hexagon,1,0,,,,,,,,,,,,,,,,repeat,number,numRpt,j,noRew,,,,,,0.8677,0,17,0,17,0,1,,,,,,,,,,,,,,,,,
297277,2022-12-05_16h15.27.040,vts_reward_expectancy_bt,2022.2.4,Win32,59.52380952,Chrome,1500,1000,,,,,0,657,,,,,,,,,,,,,,,,,U,181,star,1,0,,,,,,,,,,,,,,,,repeat,number,numRpt,k,noRew,,,,,,0.8173,0,18,0,18,0,1,,,,,,,,,,,,,,,,,
297277,2022-12-05_16h15.27.040,vts_reward_expectancy_bt,2022.2.4,Win32,59.52380952,Chrome,1500,1000,,,,,0,657,,,,,,,,,,,,,,,,,S,132,triangle,1,0,,,,,,,,,,,,,,,,switch,letter,lettSwt,f,noRew,,,,,,1.5234,0,19,0,19,0,1,,,,,,,,,,,,,,,,,
297277,2022-12-05_16h15.27.040,vts_reward_expectancy_bt,2022.2.4,Win32,59.52380952,Chrome,1500,1000,,,,,0,657,,,,,,,,,,,,,,,,,Y,181,circle,1,0,,,,,,,,,,,,,,,,switch,number,numSwt,k,noRew,,,,,,0.6119,0,20,0,20,0,1,,,,,,,,,,,,,,,,,
297277,2022-12-05_16h15.27.040,vts_reward_expectancy_bt,2022.2.4,Win32,59.52380952,Chrome,1500,1000,,,,,0,657,,,,,,,,,,,,,,,,,W,160,triangle,1,0,,,,,,,,,,,,,,,,switch,letter,lettSwt,f,noRew,,,,,,0.5898,0,21,0,21,0,1,,,,,,,,,,,,,,,,,
297277,2022-12-05_16h15.27.040,vts_reward_expectancy_bt,2022.2.4,Win32,59.52380952,Chrome,1500,1000,,,,,0,657,,,,,,,,,,,,,,,,,U,146,star,1,0,,,,,,,,,,,,,,,,repeat,letter,lettRpt,f,noRew,,,,,,0.8956,0,22,0,22,0,1,,,,,,,,,,,,,,,,,
297277,2022-12-05_16h15.27.040,vts_reward_expectancy_bt,2022.2.4,Win32,59.52380952,Chrome,1500,1000,,,,,0,657,,,,,,,,,,,,,,,,,H,139,hexagon,1,0,,,,,,,,,,,,,,,,repeat,letter,lettRpt,d,noRew,,,,,,1.1684,0,23,0,23,0,1,,,,,,,,,,,,,,,,,
297277,2022-12-05_16h15.27.040,vts_reward_expectancy_bt,2022.2.4,Win32,59.52380952,Chrome,1500,1000,,,,,0,657,,,,,,,,,,,,,,,,,S,146,circle,1,0,,,,,,,,,,,,,,,,repeat,letter,lettRpt,f,noRew,,,,,,0.712,0,24,0,24,0,1,,,,,,,,,,,,,,,,,
297277,2022-12-05_16h15.27.040,vts_reward_expectancy_bt,2022.2.4,Win32,59.52380952,Chrome,1500,1000,,,,,0,657,,,,,,,,,,,,,,,,,B,132,triangle,1,0,,,,,,,,,,,,,,,,switch,number,numSwt,j,noRew,,,,,,1.168,0,25,0,25,0,1,,,,,,,,,,,,,,,,,
297277,2022-12-05_16h15.27.040,vts_reward_expectancy_bt,2022.2.4,Win32,59.52380952,Chrome,1500,1000,,,,,0,657,,,,,,,,,,,,,,,,,Y,125,hexagon,1,0,,,,,,,,,,,,,,,,repeat,number,numRpt,j,noRew,,,,,,0.5672,0,26,0,26,0,1,,,,,,,,,,,,,,,,,
297277,2022-12-05_16h15.27.040,vts_reward_expectancy_bt,2022.2.4,Win32,59.52380952,Chrome,1500,1000,,,,,0,657,,,,,,,,,,,,,,,,,W,139,star,1,0,,,,,,,,,,,,,,,,switch,letter,lettSwt,f,noRew,,,,,,0.5176,0,27,0,27,0,1,,,,,,,,,,,,,,,,,
297277,2022-12-05_16h15.27.040,vts_reward_expectancy_bt,2022.2.4,Win32,59.52380952,Chrome,1500,1000,,,,,0,657,,,,,,,,,,,,,,,,,W,146,star,1,0,,,,,,,,,,,,,,,,repeat,letter,lettRpt,f,noRew,,,,,,1.0762,0,28,0,28,0,1,,,,,,,,,,,,,,,,,
297277,2022-12-05_16h15.27.040,vts_reward_expectancy_bt,2022.2.4,Win32,59.52380952,Chrome,1500,1000,,,,,0,657,,,,,,,,,,,,,,,,,H,125,circle,1,0,,,,,,,,,,,,,,,,repeat,letter,lettRpt,d,noRew,,,,,,1.3341,0,29,0,29,0,1,,,,,,,,,,,,,,,,,
297277,2022-12-05_16h15.27.040,vts_reward_expectancy_bt,2022.2.4,Win32,59.52380952,Chrome,1500,1000,,,,,0,657,,,,,,,,,,,,,,,,,F,174,star,1,0,,,,,,,,,,,,,,,,repeat,letter,lettRpt,d,noRew,,,,,,1.0836,0,30,0,30,0,1,,,,,,,,,,,,,,,,,
297277,2022-12-05_16h15.27.040,vts_reward_expectancy_bt,2022.2.4,Win32,59.52380952,Chrome,1500,1000,,,,,0,657,,,,,,,,,,,,,,,,,D,139,triangle,1,0,,,,,,,,,,,,,,,,repeat,letter,lettRpt,d,noRew,,,,,,0.5696,0,31,0,31,0,1,,,,,,,,,,,,,,,,,
297277,2022-12-05_16h15.27.040,vts_reward_expectancy_bt,2022.2.4,Win32,59.52380952,Chrome,1500,1000,,,,,0,657,,,,,,,,,,,,,,,,,U,146,circle,1,0,,,,,,,,,,,,,,,,repeat,letter,lettRpt,f,noRew,,,,,,0.9013,0,32,0,32,0,1,,,,,,,,,,,,,,,,,
297277,2022-12-05_16h15.27.040,vts_reward_expectancy_bt,2022.2.4,Win32,59.52380952,Chrome,1500,1000,,,,,0,657,,,,,,,,,,,,,,,,,W,167,hexagon,1,0,,,,,,,,,,,,,,,,repeat,letter,lettRpt,f,noRew,,,,,,1.0059,0,33,0,33,0,1,,,,,,,,,,,,,,,,,
297277,2022-12-05_16h15.27.040,vts_reward_expectancy_bt,2022.2.4,Win32,59.52380952,Chrome,1500,1000,,,,,0,657,,,,,,,,,,,,,,,,,Y,125,hexagon,1,0,,,,,,,,,,,,,,,,repeat,letter,lettRpt,f,noRew,,,,,,0.7813,0,34,0,34,0,1,,,,,,,,,,,,,,,,,
297277,2022-12-05_16h15.27.040,vts_reward_expectancy_bt,2022.2.4,Win32,59.52380952,Chrome,1500,1000,,,,,0,657,,,,,,,,,,,,,,,,,B,174,circle,1,0,,,,,,,,,,,,,,,,repeat,letter,lettRpt,d,noRew,,,,,,1.2529,0,35,0,35,0,1,,,,,,,,,,,,,,,,,
297277,2022-12-05_16h15.27.040,vts_reward_expectancy_bt,2022.2.4,Win32,59.52380952,Chrome,1500,1000,,,,,0,657,,,,,,,,,,,,,,,,,Y,160,hexagon,1,0,,,,,,,,,,,,,,,,repeat,letter,lettRpt,f,noRew,,,,,,0.743,0,36,0,36,0,1,,,,,,,,,,,,,,,,,
297277,2022-12-05_16h15.27.040,vts_reward_expectancy_bt,2022.2.4,Win32,59.52380952,Chrome,1500,1000,,,,,0,657,,,,,,,,,,,,,,,,,F,125,circle,1,0,,,,,,,,,,,,,,,,repeat,letter,lettRpt,d,noRew,,,,,,1.079,0,37,0,37,0,1,,,,,,,,,,,,,,,,,
297277,2022-12-05_16h15.27.040,vts_reward_expectancy_bt,2022.2.4,Win32,59.52380952,Chrome,1500,1000,,,,,0,657,,,,,,,,,,,,,,,,,B,146,star,1,0,,,,,,,,,,,,,,,,repeat,letter,lettRpt,d,noRew,,,,,,0.7854,0,38,0,38,0,1,,,,,,,,,,,,,,,,,
297277,2022-12-05_16h15.27.040,vts_reward_expectancy_bt,2022.2.4,Win32,59.52380952,Chrome,1500,1000,,,,,0,657,,,,,,,,,,,,,,,,,U,174,hexagon,1,0,,,,,,,,,,,,,,,,repeat,letter,lettRpt,f,noRew,,,,,,1.3242,0,39,0,39,0,1,,,,,,,,,,,,,,,,,
297277,2022-12-05_16h15.27.040,vts_reward_expectancy_bt,2022.2.4,Win32,59.52380952,Chrome,1500,1000,,,,,0,657,,,,,,,,,,,,,,,,,D,181,star,1,0,,,,,,,,,,,,,,,,repeat,letter,lettRpt,d,noRew,,,,,,0.9703,0,40,0,40,0,1,,,,,,,,,,,,,,,,,
297277,2022-12-05_16h15.27.040,vts_reward_expectancy_bt,2022.2.4,Win32,59.52380952,Chrome,1500,1000,,,,,0,657,,,,,,,,,,,,,,,,,U,132,triangle,1,0,,,,,,,,,,,,,,,,repeat,letter,lettRpt,f,noRew,,,,,,0.6624,0,41,0,41,0,1,,,,,,,,,,,,,,,,,
297277,2022-12-05_16h15.27.040,vts_reward_expectancy_bt,2022.2.4,Win32,59.52380952,Chrome,1500,1000,,,,,0,657,,,,,,,,,,,,,,,,,B,174,triangle,1,0,,,,,,,,,,,,,,,,switch,number,numSwt,k,noRew,,,,,,0.9672,0,42,0,42,0,1,,,,,,,,,,,,,,,,,
297277,2022-12-05_16h15.27.040,vts_reward_expectancy_bt,2022.2.4,Win32,59.52380952,Chrome,1500,1000,,,,,0,657,,,,,,,,,,,,,,,,,H,125,circle,1,0,,,,,,,,,,,,,,,,repeat,number,numRpt,j,noRew,,,,,,0.9452,0,43,0,43,0,1,,,,,,,,,,,,,,,,,
297277,2022-12-05_16h15.27.040,vts_reward_expectancy_bt,2022.2.4,Win32,59.52380952,Chrome,1500,1000,,,,,0,657,,,,,,,,,,,,,,,,,S,167,star,0,0,,,,,,,,,,,,,,,,repeat,number,NA,j,noRew,,,,,,0.6668,0,44,0,44,0,1,,,,,,,,,,,,,,,,,
297277,2022-12-05_16h15.27.040,vts_reward_expectancy_bt,2022.2.4,Win32,59.52380952,Chrome,1500,1000,,,,,0,657,,,,,,,,,,,,,,,,,Y,139,triangle,1,1,,,,,,,,,,,,,,,,repeat,number,numRpt,j,noRew,,,,,,0.5174,0,45,0,45,0,1,,,,,,,,,,,,,,,,,
297277,2022-12-05_16h15.27.040,vts_reward_expectancy_bt,2022.2.4,Win32,59.52380952,Chrome,1500,1000,,,,,0,657,,,,,,,,,,,,,,,,,U,174,circle,1,0,,,,,,,,,,,,,,,,repeat,number,numRpt,k,noRew,,,,,,0.6634,0,46,0,46,0,1,,,,,,,,,,,,,,,,,
297277,2022-12-05_16h15.27.040,vts_reward_expectancy_bt,2022.2.4,Win32,59.52380952,Chrome,1500,1000,,,,,0,657,,,,,,,,,,,,,,,,,W,181,hexagon,1,0,,,,,,,,,,,,,,,,repeat,number,numRpt,k,noRew,,,,,,0.8129,0,47,0,47,0,1,,,,,,,,,,,,,,,,,
297277,2022-12-05_16h15.27.040,vts_reward_expectancy_bt,2022.2.4,Win32,59.52380952,Chrome,1500,1000,,,,,0,657,,,,,,,,,,,,,,,,,D,167,circle,1,0,,,,,,,,,,,,,,,,repeat,number,numRpt,k,noRew,,,,,,1.0348,0,48,0,48,0,1,,,,,,,,,,,,,,,,,
297277,2022-12-05_16h15.27.040,vts_reward_expectancy_bt,2022.2.4,Win32,59.52380952,Chrome,1500,1000,,,,,0,657,,,,,,,,,,,,,,,,,F,174,triangle,0,0,,,,,,,,,,,,,,,,repeat,number,NA,j,noRew,,,,,,0.7004,0,49,0,49,0,1,,,,,,,,,,,,,,,,,
297277,2022-12-05_16h15.27.040,vts_reward_expectancy_bt,2022.2.4,Win32,59.52380952,Chrome,1500,1000,,,,,0,657,,,,,,,,,,,,,,,,,U,181,triangle,1,1,,,,,,,,,,,,,,,,repeat,number,numRpt,k,noRew,,,,,,0.7178,0,50,0,50,0,1,,,,,,,,,,,,,,,,,
297277,2022-12-05_16h15.27.040,vts_reward_expectancy_bt,2022.2.4,Win32,59.52380952,Chrome,1500,1000,,,,,0,657,,,,,,,,,,,,,,,,,B,160,hexagon,1,0,,,,,,,,,,,,,,,,repeat,number,numRpt,k,noRew,,,,,,1.32,0,51,0,51,0,1,,,,,,,,,,,,,,,,,
297277,2022-12-05_16h15.27.040,vts_reward_expectancy_bt,2022.2.4,Win32,59.52380952,Chrome,1500,1000,,,,,0,657,,,,,,,,,,,,,,,,,H,160,hexagon,1,0,,,,,,,,,,,,,,,,repeat,number,numRpt,k,noRew,,,,,,0.6545,0,52,0,52,0,1,,,,,,,,,,,,,,,,,
297277,2022-12-05_16h15.27.040,vts_reward_expectancy_bt,2022.2.4,Win32,59.52380952,Chrome,1500,1000,,,,,0,657,,,,,,,,,,,,,,,,,D,146,star,1,0,,,,,,,,,,,,,,,,repeat,number,numRpt,j,noRew,,,,,,1.0766,0,53,0,53,0,1,,,,,,,,,,,,,,,,,
297277,2022-12-05_16h15.27.040,vts_reward_expectancy_bt,2022.2.4,Win32,59.52380952,Chrome,1500,1000,,,,,0,657,,,,,,,,,,,,,,,,,W,139,hexagon,1,0,,,,,,,,,,,,,,,,repeat,number,numRpt,j,noRew,,,,,,0.6395,0,54,0,54,0,1,,,,,,,,,,,,,,,,,
297277,2022-12-05_16h15.27.040,vts_reward_expectancy_bt,2022.2.4,Win32,59.52380952,Chrome,1500,1000,,,,,0,657,,,,,,,,,,,,,,,,,F,181,circle,1,0,,,,,,,,,,,,,,,,repeat,number,numRpt,k,noRew,,,,,,0.746,0,55,0,55,0,1,,,,,,,,,,,,,,,,,
297277,2022-12-05_16h15.27.040,vts_reward_expectancy_bt,2022.2.4,Win32,59.52380952,Chrome,1500,1000,,,,,0,657,,,,,,,,,,,,,,,,,H,160,star,0,0,,,,,,,,,,,,,,,,repeat,number,NA,j,noRew,,,,,,0.7507,0,56,0,56,0,1,,,,,,,,,,,,,,,,,
297277,2022-12-05_16h15.27.040,vts_reward_expectancy_bt,2022.2.4,Win32,59.52380952,Chrome,1500,1000,,,,,0,657,,,,,,,,,,,,,,,,,F,139,hexagon,1,1,,,,,,,,,,,,,,,,repeat,number,numRpt,j,noRew,,,,,,0.6514,0,57,0,57,0,1,,,,,,,,,,,,,,,,,
297277,2022-12-05_16h15.27.040,vts_reward_expectancy_bt,2022.2.4,Win32,59.52380952,Chrome,1500,1000,,,,,0,657,,,,,,,,,,,,,,,,,Y,125,triangle,1,0,,,,,,,,,,,,,,,,repeat,number,numRpt,j,noRew,,,,,,0.8624,0,58,0,58,0,1,,,,,,,,,,,,,,,,,
297277,2022-12-05_16h15.27.040,vts_reward_expectancy_bt,2022.2.4,Win32,59.52380952,Chrome,1500,1000,,,,,0,657,,,,,,,,,,,,,,,,,U,146,circle,1,0,,,,,,,,,,,,,,,,repeat,number,numRpt,j,noRew,,,,,,1.7557,0,59,0,59,0,1,,,,,,,,,,,,,,,,,
297277,2022-12-05_16h15.27.040,vts_reward_expectancy_bt,2022.2.4,Win32,59.52380952,Chrome,1500,1000,,,,,0,657,,,,,,,,,,,,,,,,,D,167,hexagon,1,0,,,,,,,,,,,,,,,,repeat,number,numRpt,k,noRew,,,,,,1.904,0,60,0,60,0,1,,,,,,,,,,,,,,,,,
297277,2022-12-05_16h15.27.040,vts_reward_expectancy_bt,2022.2.4,Win32,59.52380952,Chrome,1500,1000,,,,,0,657,,,,,,,,,,,,,,,,,U,132,star,1,0,,,,,,,,,,,,,,,,repeat,number,numRpt,j,noRew,,,,,,0.9632,0,61,0,61,0,1,,,,,,,,,,,,,,,,,
297277,2022-12-05_16h15.27.040,vts_reward_expectancy_bt,2022.2.4,Win32,59.52380952,Chrome,1500,1000,,,,,0,657,,,,,,,,,,,,,,,,,F,174,hexagon,1,0,,,,,,,,,,,,,,,,repeat,number,numRpt,k,noRew,,,,,,0.7509,0,62,0,62,0,1,,,,,,,,,,,,,,,,,
297277,2022-12-05_16h15.27.040,vts_reward_expectancy_bt,2022.2.4,Win32,59.52380952,Chrome,1500,1000,,,,,0,657,,,,,,,,,,,,,,,,,Y,125,star,1,0,,,,,,,,,,,,,,,,repeat,number,numRpt,j,noRew,,,,,,1.2768,0,63,0,63,0,1,,,,,,,,,,,,,,,,,
297277,2022-12-05_16h15.27.040,vts_reward_expectancy_bt,2022.2.4,Win32,59.52380952,Chrome,1500,1000,,,,,,,,,,,,,,,,,,,,,,,,,,,,,,,,,,,,,,,,,,,,,,,,,,,,,,,,,,,,,,,,,,,,,,,,,,,,
297277,2022-12-05_16h15.27.040,vts_reward_expectancy_bt,2022.2.4,Win32,59.52380952,Chrome,1500,1000,,,,,1,658,,,,,,,,,,,,,,,,,B,160,star,1,0,,,,,,,,,,,,,,,,switch,letter,lettSwt,d,Lo,,,,,,0.9017,0,,,,,,space,7.8226,high,0,0,0,0,1,,,,,,,,,
297277,2022-12-05_16h15.27.040,vts_reward_expectancy_bt,2022.2.4,Win32,59.52380952,Chrome,1500,1000,,,,,10,668,,,,,,,,,,,,,,,,,S,181,triangle,1,0,,,,,,,,,,,,,,,,repeat,letter,lettRpt,f,Hi,,,,,,0.6183,0,,,,,,,,high,1,0,1,0,1,,,,,,,,,
297277,2022-12-05_16h15.27.040,vts_reward_expectancy_bt,2022.2.4,Win32,59.52380952,Chrome,1500,1000,,,,,0,668,,,,,,,,,,,,,,,,,W,167,hexagon,0,0,,,,,,,,,,,,,,,,repeat,letter,NA,d,Hi,,,,,,0.734,0,,,,,,,,high,2,0,2,0,1,,,,,,,,,
297277,2022-12-05_16h15.27.040,vts_reward_expectancy_bt,2022.2.4,Win32,59.52380952,Chrome,1500,1000,,,,,0,668,,,,,,,,,,,,,,,,,H,139,circle,1,1,,,,,,,,,,,,,,,,switch,number,numSwt,j,Hi,,,,,,0.9115,0,,,,,,,,high,3,0,3,0,1,,,,,,,,,
297277,2022-12-05_16h15.27.040,vts_reward_expectancy_bt,2022.2.4,Win32,59.52380952,Chrome,1500,1000,,,,,1,669,,,,,,,,,,,,,,,,,Y,174,star,1,0,,,,,,,,,,,,,,,,repeat,number,numRpt,k,Lo,,,,,,0.7175,0,,,,,,,,high,4,0,4,0,1,,,,,,,,,
297277,2022-12-05_16h15.27.040,vts_reward_expectancy_bt,2022.2.4,Win32,59.52380952,Chrome,1500,1000,,,,,10,679,,,,,,,,,,,,,,,,,D,132,triangle,1,0,,,,,,,,,,,,,,,,repeat,number,numRpt,j,Hi,,,,,,0.4181,0,,,,,,,,high,5,0,5,0,1,,,,,,,,,
297277,2022-12-05_16h15.27.040,vts_reward_expectancy_bt,2022.2.4,Win32,59.52380952,Chrome,1500,1000,,,,,1,680,,,,,,,,,,,,,,,,,F,125,hexagon,1,0,,,,,,,,,,,,,,,,repeat,number,numRpt,j,Lo,,,,,,0.562,0,,,,,,,,high,6,0,6,0,1,,,,,,,,,
297277,2022-12-05_16h15.27.040,vts_reward_expectancy_bt,2022.2.4,Win32,59.52380952,Chrome,1500,1000,,,,,10,690,,,,,,,,,,,,,,,,,U,146,circle,1,0,,,,,,,,,,,,,,,,repeat,number,numRpt,j,Hi,,,,,,0.418,0,,,,,,,,high,7,0,7,0,1,,,,,,,,,
297277,2022-12-05_16h15.27.040,vts_reward_expectancy_bt,2022.2.4,Win32,59.52380952,Chrome,1500,1000,,,,,0,690,,,,,,,,,,,,,,,,,B,160,triangle,0,0,,,,,,,,,,,,,,,,repeat,number,NA,j,Hi,,,,,,0.5194,0,,,,,,,,high,8,0,8,0,1,,,,,,,,,
297277,2022-12-05_16h15.27.040,vts_reward_expectancy_bt,2022.2.4,Win32,59.52380952,Chrome,1500,1000,,,,,1,691,,,,,,,,,,,,,,,,,S,181,star,1,1,,,,,,,,,,,,,,,,repeat,number,numRpt,k,Lo,,,,,,0.5553,0,,,,,,,,high,9,0,9,0,1,,,,,,,,,
297277,2022-12-05_16h15.27.040,vts_reward_expectancy_bt,2022.2.4,Win32,59.52380952,Chrome,1500,1000,,,,,0,691,,,,,,,,,,,,,,,,,W,167,circle,1,0,,,,,,,,,,,,,,,,repeat,number,numRpt,k,Hi,,,,,,1.2785,0,,,,,,,,high,10,0,10,0,1,,,,,,,,,
297277,2022-12-05_16h15.27.040,vts_reward_expectancy_bt,2022.2.4,Win32,59.52380952,Chrome,1500,1000,,,,,0,691,,,,,,,,,,,,,,,,,H,139,hexagon,0,0,,,,,,,,,,,,,,,,repeat,number,NA,k,Hi,,,,,,0.4009,0,,,,,,,,high,11,0,11,0,1,,,,,,,,,
297277,2022-12-05_16h15.27.040,vts_reward_expectancy_bt,2022.2.4,Win32,59.52380952,Chrome,1500,1000,,,,,1,692,,,,,,,,,,,,,,,,,Y,174,hexagon,1,1,,,,,,,,,,,,,,,,repeat,number,numRpt,k,Lo,,,,,,0.4216,0,,,,,,,,high,12,0,12,0,1,,,,,,,,,
297277,2022-12-05_16h15.27.040,vts_reward_expectancy_bt,2022.2.4,Win32,59.52380952,Chrome,1500,1000,,,,,10,702,,,,,,,,,,,,,,,,,D,132,circle,1,0,,,,,,,,,,,,,,,,repeat,number,numRpt,j,Hi,,,,,,0.5737,0,,,,,,,,high,13,0,13,0,1,,,,,,,,,
297277,2022-12-05_16h15.27.040,vts_reward_expectancy_bt,2022.2.4,Win32,59.52380952,Chrome,1500,1000,,,,,0,702,,,,,,,,,,,,,,,,,F,125,triangle,1,0,,,,,,,,,,,,,,,,switch,letter,lettSwt,d,Hi,,,,,,0.7848,0,,,,,,,,high,14,0,14,0,1,,,,,,,,,
297277,2022-12-05_16h15.27.040,vts_reward_expectancy_bt,2022.2.4,Win32,59.52380952,Chrome,1500,1000,,,,,1,703,,,,,,,,,,,,,,,,,U,146,star,1,0,,,,,,,,,,,,,,,,repeat,letter,lettRpt,f,Lo,,,,,,0.4675,0,,,,,,,,high,15,0,15,0,1,,,,,,,,,
297277,2022-12-05_16h15.27.040,vts_reward_expectancy_bt,2022.2.4,Win32,59.52380952,Chrome,1500,1000,,,,,10,713,,,,,,,,,,,,,,,,,B,146,triangle,1,0,,,,,,,,,,,,,,,,repeat,letter,lettRpt,d,Hi,,,,,,0.3842,0,,,,,,,,high,16,0,16,0,1,,,,,,,,,
297277,2022-12-05_16h15.27.040,vts_reward_expectancy_bt,2022.2.4,Win32,59.52380952,Chrome,1500,1000,,,,,0,713,,,,,,,,,,,,,,,,,F,139,star,0,0,,,,,,,,,,,,,,,,repeat,letter,NA,f,Hi,,,,,,0.48,0,,,,,,,,high,17,0,17,0,1,,,,,,,,,
297277,2022-12-05_16h15.27.040,vts_reward_expectancy_bt,2022.2.4,Win32,59.52380952,Chrome,1500,1000,,,,,0,713,,,,,,,,,,,,,,,,,Y,167,hexagon,0,1,,,,,,,,,,,,,,,,repeat,letter,NA,d,Hi,,,,,,0.3016,0,,,,,,,,high,18,0,18,0,1,,,,,,,,,
297277,2022-12-05_16h15.27.040,vts_reward_expectancy_bt,2022.2.4,Win32,59.52380952,Chrome,1500,1000,,,,,0,713,,,,,,,,,,,,,,,,,W,132,circle,1,1,,,,,,,,,,,,,,,,repeat,letter,lettRpt,f,Hi,,,,,,1.0012,0,,,,,,,,high,19,0,19,0,1,,,,,,,,,
297277,2022-12-05_16h15.27.040,vts_reward_expectancy_bt,2022.2.4,Win32,59.52380952,Chrome,1500,1000,,,,,10,723,,,,,,,,,,,,,,,,,U,174,triangle,1,0,,,,,,,,,,,,,,,,repeat,letter,lettRpt,f,Hi,,,,,,0.6509,0,,,,,,,,high,20,0,20,0,1,,,,,,,,,
297277,2022-12-05_16h15.27.040,vts_reward_expectancy_bt,2022.2.4,Win32,59.52380952,Chrome,1500,1000,,,,,1,724,,,,,,,,,,,,,,,,,S,181,star,1,0,,,,,,,,,,,,,,,,switch,number,numSwt,k,Lo,,,,,,0.451,0,,,,,,,,high,21,0,21,0,1,,,,,,,,,
297277,2022-12-05_16h15.27.040,vts_reward_expectancy_bt,2022.2.4,Win32,59.52380952,Chrome,1500,1000,,,,,0,724,,,,,,,,,,,,,,,,,D,160,circle,0,0,,,,,,,,,,,,,,,,repeat,number,NA,j,Lo,,,,,,0.438,0,,,,,,,,high,22,0,22,0,1,,,,,,,,,
297277,2022-12-05_16h15.27.040,vts_reward_expectancy_bt,2022.2.4,Win32,59.52380952,Chrome,1500,1000,,,,,1,725,,,,,,,,,,,,,,,,,H,125,hexagon,1,1,,,,,,,,,,,,,,,,repeat,number,numRpt,j,Lo,,,,,,0.9122,0,,,,,,,,high,23,0,23,0,1,,,,,,,,,
297277,2022-12-05_16h15.27.040,vts_reward_expectancy_bt,2022.2.4,Win32,59.52380952,Chrome,1500,1000,,,,,10,735,,,,,,,,,,,,,,,,,U,181,triangle,1,0,,,,,,,,,,,,,,,,repeat,number,numRpt,k,Hi,,,,,,0.6676,0,,,,,,,,high,24,0,24,0,1,,,,,,,,,
297277,2022-12-05_16h15.27.040,vts_reward_expectancy_bt,2022.2.4,Win32,59.52380952,Chrome,1500,1000,,,,,1,736,,,,,,,,,,,,,,,,,H,125,circle,1,0,,,,,,,,,,,,,,,,repeat,number,numRpt,j,Hi,,,,,,0.5438,0,,,,,,,,high,25,0,25,0,1,,,,,,,,,
297277,2022-12-05_16h15.27.040,vts_reward_expectancy_bt,2022.2.4,Win32,59.52380952,Chrome,1500,1000,,,,,10,746,,,,,,,,,,,,,,,,,F,174,star,1,0,,,,,,,,,,,,,,,,repeat,number,numRpt,k,Lo,,,,,,0.6609,0,,,,,,,,high,26,0,26,0,1,,,,,,,,,
297277,2022-12-05_16h15.27.040,vts_reward_expectancy_bt,2022.2.4,Win32,59.52380952,Chrome,1500,1000,,,,,0,746,,,,,,,,,,,,,,,,,Y,139,hexagon,0,0,,,,,,,,,,,,,,,,repeat,number,NA,k,Lo,,,,,,0.6835,0,,,,,,,,high,27,0,27,0,1,,,,,,,,,
297277,2022-12-05_16h15.27.040,vts_reward_expectancy_bt,2022.2.4,Win32,59.52380952,Chrome,1500,1000,,,,,10,756,,,,,,,,,,,,,,,,,B,160,triangle,1,1,,,,,,,,,,,,,,,,repeat,number,numRpt,k,Hi,,,,,,0.4514,0,,,,,,,,high,28,0,28,0,1,,,,,,,,,
297277,2022-12-05_16h15.27.040,vts_reward_expectancy_bt,2022.2.4,Win32,59.52380952,Chrome,1500,1000,,,,,1,757,,,,,,,,,,,,,,,,,D,167,star,1,0,,,,,,,,,,,,,,,,repeat,number,numRpt,k,Lo,,,,,,0.4253,0,,,,,,,,high,29,0,29,0,1,,,,,,,,,
297277,2022-12-05_16h15.27.040,vts_reward_expectancy_bt,2022.2.4,Win32,59.52380952,Chrome,1500,1000,,,,,1,758,,,,,,,,,,,,,,,,,W,146,hexagon,1,0,,,,,,,,,,,,,,,,repeat,number,numRpt,j,Lo,,,,,,0.7543,0,,,,,,,,high,30,0,30,0,1,,,,,,,,,
297277,2022-12-05_16h15.27.040,vts_reward_expectancy_bt,2022.2.4,Win32,59.52380952,Chrome,1500,1000,,,,,0,758,,,,,,,,,,,,,,,,,S,132,circle,1,0,,,,,,,,,,,,,,,,repeat,number,numRpt,j,Hi,,,,,,0.735,0,,,,,,,,high,31,0,31,0,1,,,,,,,,,
297277,2022-12-05_16h15.27.040,vts_reward_expectancy_bt,2022.2.4,Win32,59.52380952,Chrome,1500,1000,,,,,0,758,,,,,,,,,,,,,,,,,U,125,triangle,0,0,,,,,,,,,,,,,,,,repeat,number,NA,k,Hi,,,,,,0.8342,1,,,,,,space,1.4025,high,0,0,0,0,1,,,,,,,,,
297277,2022-12-05_16h15.27.040,vts_reward_expectancy_bt,2022.2.4,Win32,59.52380952,Chrome,1500,1000,,,,,0,758,,,,,,,,,,,,,,,,,W,132,circle,0,1,,,,,,,,,,,,,,,,repeat,number,NA,k,Hi,,,,,,1.0582,1,,,,,,,,high,1,0,1,0,1,,,,,,,,,
297277,2022-12-05_16h15.27.040,vts_reward_expectancy_bt,2022.2.4,Win32,59.52380952,Chrome,1500,1000,,,,,1,759,,,,,,,,,,,,,,,,,B,146,star,1,1,,,,,,,,,,,,,,,,repeat,number,numRpt,j,Lo,,,,,,0.6784,1,,,,,,,,high,2,0,2,0,1,,,,,,,,,
297277,2022-12-05_16h15.27.040,vts_reward_expectancy_bt,2022.2.4,Win32,59.52380952,Chrome,1500,1000,,,,,1,760,,,,,,,,,,,,,,,,,Y,139,hexagon,1,0,,,,,,,,,,,,,,,,repeat,number,numRpt,j,Lo,,,,,,0.6807,1,,,,,,,,high,3,0,3,0,1,,,,,,,,,
297277,2022-12-05_16h15.27.040,vts_reward_expectancy_bt,2022.2.4,Win32,59.52380952,Chrome,1500,1000,,,,,0,760,,,,,,,,,,,,,,,,,H,167,triangle,1,0,,,,,,,,,,,,,,,,repeat,number,numRpt,k,Hi,,,,,,0.6615,1,,,,,,,,high,4,0,4,0,1,,,,,,,,,
297277,2022-12-05_16h15.27.040,vts_reward_expectancy_bt,2022.2.4,Win32,59.52380952,Chrome,1500,1000,,,,,0,760,,,,,,,,,,,,,,,,,F,174,circle,0,0,,,,,,,,,,,,,,,,repeat,number,NA,j,Hi,,,,,,0.5852,1,,,,,,,,high,5,0,5,0,1,,,,,,,,,
297277,2022-12-05_16h15.27.040,vts_reward_expectancy_bt,2022.2.4,Win32,59.52380952,Chrome,1500,1000,,,,,1,761,,,,,,,,,,,,,,,,,S,160,star,1,1,,,,,,,,,,,,,,,,repeat,number,numRpt,k,Lo,,,,,,0.2642,1,,,,,,,,high,6,0,6,0,1,,,,,,,,,
297277,2022-12-05_16h15.27.040,vts_reward_expectancy_bt,2022.2.4,Win32,59.52380952,Chrome,1500,1000,,,,,1,762,,,,,,,,,,,,,,,,,D,181,hexagon,1,0,,,,,,,,,,,,,,,,repeat,number,numRpt,k,Lo,,,,,,0.2633,1,,,,,,,,high,7,0,7,0,1,,,,,,,,,
297277,2022-12-05_16h15.27.040,vts_reward_expectancy_bt,2022.2.4,Win32,59.52380952,Chrome,1500,1000,,,,,1,763,,,,,,,,,,,,,,,,,U,125,star,1,0,,,,,,,,,,,,,,,,repeat,number,numRpt,j,Lo,,,,,,0.4671,1,,,,,,,,high,8,0,8,0,1,,,,,,,,,
297277,2022-12-05_16h15.27.040,vts_reward_expectancy_bt,2022.2.4,Win32,59.52380952,Chrome,1500,1000,,,,,0,763,,,,,,,,,,,,,,,,,W,132,circle,1,0,,,,,,,,,,,,,,,,repeat,number,numRpt,j,Hi,,,,,,0.6508,1,,,,,,,,high,9,0,9,0,1,,,,,,,,,
297277,2022-12-05_16h15.27.040,vts_reward_expectancy_bt,2022.2.4,Win32,59.52380952,Chrome,1500,1000,,,,,0,763,,,,,,,,,,,,,,,,,B,146,triangle,0,0,,,,,,,,,,,,,,,,repeat,number,NA,k,Hi,,,,,,0.0998,1,,,,,,,,high,10,0,10,0,1,,,,,,,,,
297277,2022-12-05_16h15.27.040,vts_reward_expectancy_bt,2022.2.4,Win32,59.52380952,Chrome,1500,1000,,,,,1,764,,,,,,,,,,,,,,,,,Y,139,hexagon,1,1,,,,,,,,,,,,,,,,repeat,number,numRpt,j,Lo,,,,,,0.2819,1,,,,,,,,high,11,0,11,0,1,,,,,,,,,
297277,2022-12-05_16h15.27.040,vts_reward_expectancy_bt,2022.2.4,Win32,59.52380952,Chrome,1500,1000,,,,,10,774,,,,,,,,,,,,,,,,,H,167,hexagon,1,0,,,,,,,,,,,,,,,,repeat,number,numRpt,k,Lo,,,,,,0.4619,1,,,,,,,,high,12,0,12,0,1,,,,,,,,,
297277,2022-12-05_16h15.27.040,vts_reward_expectancy_bt,2022.2.4,Win32,59.52380952,Chrome,1500,1000,,,,,0,774,,,,,,,,,,,,,,,,,F,174,star,0,0,,,,,,,,,,,,,,,,repeat,number,NA,j,Lo,,,,,,0.2845,1,,,,,,,,high,13,0,13,0,1,,,,,,,,,
297277,2022-12-05_16h15.27.040,vts_reward_expectancy_bt,2022.2.4,Win32,59.52380952,Chrome,1500,1000,,,,,10,784,,,,,,,,,,,,,,,,,S,160,triangle,1,1,,,,,,,,,,,,,,,,repeat,number,numRpt,k,Hi,,,,,,0.0681,1,,,,,,,,high,14,0,14,0,1,,,,,,,,,
297277,2022-12-05_16h15.27.040,vts_reward_expectancy_bt,2022.2.4,Win32,59.52380952,Chrome,1500,1000,,,,,0,784,,,,,,,,,,,,,,,,,D,181,circle,1,0,,,,,,,,,,,,,,,,repeat,number,numRpt,k,Hi,,,,,,0.7036,1,,,,,,,,high,15,0,15,0,1,,,,,,,,,
297277,2022-12-05_16h15.27.040,vts_reward_expectancy_bt,2022.2.4,Win32,59.52380952,Chrome,1500,1000,,,,,10,794,,,,,,,,,,,,,,,,,H,139,circle,1,0,,,,,,,,,,,,,,,,repeat,number,numRpt,j,Hi,,,,,,0.4127,1,,,,,,,,high,16,0,16,0,1,,,,,,,,,
297277,2022-12-05_16h15.27.040,vts_reward_expectancy_bt,2022.2.4,Win32,59.52380952,Chrome,1500,1000,,,,,0,794,,,,,,,,,,,,,,,,,F,167,triangle,1,0,,,,,,,,,,,,,,,,repeat,number,numRpt,k,Hi,,,,,,0.5711,1,,,,,,,,high,17,0,17,0,1,,,,,,,,,
297277,2022-12-05_16h15.27.040,vts_reward_expectancy_bt,2022.2.4,Win32,59.52380952,Chrome,1500,1000,,,,,1,795,,,,,,,,,,,,,,,,,Y,160,hexagon,1,0,,,,,,,,,,,,,,,,repeat,number,numRpt,k,Lo,,,,,,0.5346,1,,,,,,,,high,18,0,18,0,1,,,,,,,,,
297277,2022-12-05_16h15.27.040,vts_reward_expectancy_bt,2022.2.4,Win32,59.52380952,Chrome,1500,1000,,,,,0,795,,,,,,,,,,,,,,,,,S,125,star,0,0,,,,,,,,,,,,,,,,repeat,number,NA,k,Lo,,,,,,0.5185,1,,,,,,,,high,19,0,19,0,1,,,,,,,,,
297277,2022-12-05_16h15.27.040,vts_reward_expectancy_bt,2022.2.4,Win32,59.52380952,Chrome,1500,1000,,,,,1,796,,,,,,,,,,,,,,,,,D,174,hexagon,1,1,,,,,,,,,,,,,,,,repeat,number,numRpt,k,Lo,,,,,,0.4733,1,,,,,,,,high,20,0,20,0,1,,,,,,,,,
297277,2022-12-05_16h15.27.040,vts_reward_expectancy_bt,2022.2.4,Win32,59.52380952,Chrome,1500,1000,,,,,10,806,,,,,,,,,,,,,,,,,W,181,triangle,1,0,,,,,,,,,,,,,,,,repeat,number,numRpt,k,Hi,,,,,,0.45,1,,,,,,,,high,21,0,21,0,1,,,,,,,,,
297277,2022-12-05_16h15.27.040,vts_reward_expectancy_bt,2022.2.4,Win32,59.52380952,Chrome,1500,1000,,,,,0,806,,,,,,,,,,,,,,,,,B,132,circle,0,0,,,,,,,,,,,,,,,,repeat,number,NA,k,Hi,,,,,,0.5434,1,,,,,,,,high,22,0,22,0,1,,,,,,,,,
297277,2022-12-05_16h15.27.040,vts_reward_expectancy_bt,2022.2.4,Win32,59.52380952,Chrome,1500,1000,,,,,0,806,,,,,,,,,,,,,,,,,U,146,star,0,1,,,,,,,,,,,,,,,,repeat,number,NA,k,Hi,,,,,,0.619,1,,,,,,,,high,23,0,23,0,1,,,,,,,,,
297277,2022-12-05_16h15.27.040,vts_reward_expectancy_bt,2022.2.4,Win32,59.52380952,Chrome,1500,1000,,,,,1,807,,,,,,,,,,,,,,,,,B,181,star,1,1,,,,,,,,,,,,,,,,repeat,number,numRpt,k,Lo,,,,,,0.526,1,,,,,,,,high,24,0,24,0,1,,,,,,,,,
297277,2022-12-05_16h15.27.040,vts_reward_expectancy_bt,2022.2.4,Win32,59.52380952,Chrome,1500,1000,,,,,10,817,,,,,,,,,,,,,,,,,S,160,triangle,1,0,,,,,,,,,,,,,,,,repeat,number,numRpt,k,Hi,,,,,,0.4622,1,,,,,,,,high,25,0,25,0,1,,,,,,,,,
297277,2022-12-05_16h15.27.040,vts_reward_expectancy_bt,2022.2.4,Win32,59.52380952,Chrome,1500,1000,,,,,0,817,,,,,,,,,,,,,,,,,W,174,circle,0,0,,,,,,,,,,,,,,,,repeat,number,NA,j,Hi,,,,,,0.5849,1,,,,,,,,high,26,0,26,0,1,,,,,,,,,
297277,2022-12-05_16h15.27.040,vts_reward_expectancy_bt,2022.2.4,Win32,59.52380952,Chrome,1500,1000,,,,,0,817,,,,,,,,,,,,,,,,,Y,139,hexagon,0,1,,,,,,,,,,,,,,,,repeat,number,NA,k,Hi,,,,,,0.5139,1,,,,,,,,high,27,0,27,0,1,,,,,,,,,
297277,2022-12-05_16h15.27.040,vts_reward_expectancy_bt,2022.2.4,Win32,59.52380952,Chrome,1500,1000,,,,,0,817,,,,,,,,,,,,,,,,,F,132,triangle,1,1,,,,,,,,,,,,,,,,repeat,number,numRpt,j,Hi,,,,,,0.55,1,,,,,,,,high,28,0,28,0,1,,,,,,,,,
297277,2022-12-05_16h15.27.040,vts_reward_expectancy_bt,2022.2.4,Win32,59.52380952,Chrome,1500,1000,,,,,10,827,,,,,,,,,,,,,,,,,H,125,circle,1,0,,,,,,,,,,,,,,,,repeat,number,numRpt,j,Hi,,,,,,0.4517,1,,,,,,,,high,29,0,29,0,1,,,,,,,,,
297277,2022-12-05_16h15.27.040,vts_reward_expectancy_bt,2022.2.4,Win32,59.52380952,Chrome,1500,1000,,,,,0,827,,,,,,,,,,,,,,,,,U,146,hexagon,0,0,,,,,,,,,,,,,,,,repeat,number,NA,k,Hi,,,,,,0.3348,1,,,,,,,,high,30,0,30,0,1,,,,,,,,,
297277,2022-12-05_16h15.27.040,vts_reward_expectancy_bt,2022.2.4,Win32,59.52380952,Chrome,1500,1000,,,,,0,827,,,,,,,,,,,,,,,,,D,167,star,0,1,,,,,,,,,,,,,,,,repeat,number,NA,j,Hi,,,,,,0.3253,1,,,,,,,,high,31,0,31,0,1,,,,,,,,,
297277,2022-12-05_16h15.27.040,vts_reward_expectancy_bt,2022.2.4,Win32,59.52380952,Chrome,1500,1000,,,,,0,827,,,,,,,,,,,,,,,,,Y,146,circle,0,1,,,,,,,,,,,,,,,,switch,letter,NA,d,Hi,,,,,,0.4228,2,,,,,,space,1.104,high,0,0,0,0,1,,,,,,,,,
297277,2022-12-05_16h15.27.040,vts_reward_expectancy_bt,2022.2.4,Win32,59.52380952,Chrome,1500,1000,,,,,1,828,,,,,,,,,,,,,,,,,W,174,hexagon,1,1,,,,,,,,,,,,,,,,repeat,letter,lettRpt,f,Lo,,,,,,0.3333,2,,,,,,,,high,1,0,1,0,1,,,,,,,,,
297277,2022-12-05_16h15.27.040,vts_reward_expectancy_bt,2022.2.4,Win32,59.52380952,Chrome,1500,1000,,,,,10,838,,,,,,,,,,,,,,,,,U,181,triangle,1,0,,,,,,,,,,,,,,,,repeat,letter,lettRpt,f,Hi,,,,,,0.7964,2,,,,,,,,high,2,0,2,0,1,,,,,,,,,
297277,2022-12-05_16h15.27.040,vts_reward_expectancy_bt,2022.2.4,Win32,59.52380952,Chrome,1500,1000,,,,,1,839,,,,,,,,,,,,,,,,,D,132,star,1,0,,,,,,,,,,,,,,,,repeat,letter,lettRpt,d,Lo,,,,,,0.693,2,,,,,,,,high,3,0,3,0,1,,,,,,,,,
297277,2022-12-05_16h15.27.040,vts_reward_expectancy_bt,2022.2.4,Win32,59.52380952,Chrome,1500,1000,,,,,10,849,,,,,,,,,,,,,,,,,B,125,circle,1,0,,,,,,,,,,,,,,,,repeat,letter,lettRpt,d,Hi,,,,,,0.6029,2,,,,,,,,high,4,0,4,0,1,,,,,,,,,
297277,2022-12-05_16h15.27.040,vts_reward_expectancy_bt,2022.2.4,Win32,59.52380952,Chrome,1500,1000,,,,,0,849,,,,,,,,,,,,,,,,,S,139,hexagon,0,0,,,,,,,,,,,,,,,,repeat,letter,NA,d,Hi,,,,,,0.4246,2,,,,,,,,high,5,0,5,0,1,,,,,,,,,
297277,2022-12-05_16h15.27.040,vts_reward_expectancy_bt,2022.2.4,Win32,59.52380952,Chrome,1500,1000,,,,,10,859,,,,,,,,,,,,,,,,,H,167,triangle,1,1,,,,,,,,,,,,,,,,repeat,letter,lettRpt,d,Hi,,,,,,0.5189,2,,,,,,,,high,6,0,6,0,1,,,,,,,,,
297277,2022-12-05_16h15.27.040,vts_reward_expectancy_bt,2022.2.4,Win32,59.52380952,Chrome,1500,1000,,,,,0,859,,,,,,,,,,,,,,,,,F,160,star,0,0,,,,,,,,,,,,,,,,repeat,letter,NA,f,Hi,,,,,,0.4858,2,,,,,,,,high,7,0,7,0,1,,,,,,,,,
297277,2022-12-05_16h15.27.040,vts_reward_expectancy_bt,2022.2.4,Win32,59.52380952,Chrome,1500,1000,,,,,0,859,,,,,,,,,,,,,,,,,Y,146,hexagon,0,1,,,,,,,,,,,,,,,,repeat,letter,NA,d,Hi,,,,,,0.5343,2,,,,,,,,high,8,0,8,0,1,,,,,,,,,
297277,2022-12-05_16h15.27.040,vts_reward_expectancy_bt,2022.2.4,Win32,59.52380952,Chrome,1500,1000,,,,,1,860,,,,,,,,,,,,,,,,,W,174,star,1,1,,,,,,,,,,,,,,,,repeat,letter,lettRpt,f,Lo,,,,,,0.6131,2,,,,,,,,high,9,0,9,0,1,,,,,,,,,
297277,2022-12-05_16h15.27.040,vts_reward_expectancy_bt,2022.2.4,Win32,59.52380952,Chrome,1500,1000,,,,,10,870,,,,,,,,,,,,,,,,,U,181,circle,1,0,,,,,,,,,,,,,,,,switch,number,numSwt,k,Hi,,,,,,1.1558,2,,,,,,,,high,10,0,10,0,1,,,,,,,,,
297277,2022-12-05_16h15.27.040,vts_reward_expectancy_bt,2022.2.4,Win32,59.52380952,Chrome,1500,1000,,,,,10,880,,,,,,,,,,,,,,,,,D,132,triangle,1,0,,,,,,,,,,,,,,,,switch,letter,lettSwt,d,Hi,,,,,,0.503,2,,,,,,,,high,11,0,11,0,1,,,,,,,,,
297277,2022-12-05_16h15.27.040,vts_reward_expectancy_bt,2022.2.4,Win32,59.52380952,Chrome,1500,1000,,,,,1,881,,,,,,,,,,,,,,,,,B,125,circle,1,0,,,,,,,,,,,,,,,,switch,number,numSwt,j,Hi,,,,,,0.9849,2,,,,,,,,high,12,0,12,0,1,,,,,,,,,
297277,2022-12-05_16h15.27.040,vts_reward_expectancy_bt,2022.2.4,Win32,59.52380952,Chrome,1500,1000,,,,,1,882,,,,,,,,,,,,,,,,,S,139,star,1,0,,,,,,,,,,,,,,,,switch,letter,lettSwt,f,Lo,,,,,,0.5458,2,,,,,,,,high,13,0,13,0,1,,,,,,,,,
297277,2022-12-05_16h15.27.040,vts_reward_expectancy_bt,2022.2.4,Win32,59.52380952,Chrome,1500,1000,,,,,10,892,,,,,,,,,,,,,,,,,H,167,triangle,1,0,,,,,,,,,,,,,,,,switch,number,numSwt,k,Hi,,,,,,1.3184,2,,,,,,,,high,14,0,14,0,1,,,,,,,,,
297277,2022-12-05_16h15.27.040,vts_reward_expectancy_bt,2022.2.4,Win32,59.52380952,Chrome,1500,1000,,,,,1,893,,,,,,,,,,,,,,,,,F,160,hexagon,1,0,,,,,,,,,,,,,,,,switch,letter,lettSwt,d,Lo,,,,,,0.5731,2,,,,,,,,high,15,0,15,0,1,,,,,,,,,
297277,2022-12-05_16h15.27.040,vts_reward_expectancy_bt,2022.2.4,Win32,59.52380952,Chrome,1500,1000,,,,,1,894,,,,,,,,,,,,,,,,,B,132,star,1,0,,,,,,,,,,,,,,,,switch,number,numSwt,j,Lo,,,,,,0.6296,2,,,,,,,,high,16,0,16,0,1,,,,,,,,,
297277,2022-12-05_16h15.27.040,vts_reward_expectancy_bt,2022.2.4,Win32,59.52380952,Chrome,1500,1000,,,,,10,904,,,,,,,,,,,,,,,,,F,146,circle,1,0,,,,,,,,,,,,,,,,switch,letter,lettSwt,d,Hi,,,,,,0.5174,2,,,,,,,,high,17,0,17,0,1,,,,,,,,,
297277,2022-12-05_16h15.27.040,vts_reward_expectancy_bt,2022.2.4,Win32,59.52380952,Chrome,1500,1000,,,,,10,914,,,,,,,,,,,,,,,,,W,181,triangle,1,0,,,,,,,,,,,,,,,,switch,number,numSwt,k,Hi,,,,,,1.2738,2,,,,,,,,high,18,0,18,0,1,,,,,,,,,
297277,2022-12-05_16h15.27.040,vts_reward_expectancy_bt,2022.2.4,Win32,59.52380952,Chrome,1500,1000,,,,,0,914,,,,,,,,,,,,,,,,,U,167,hexagon,0,0,,,,,,,,,,,,,,,,switch,letter,NA,d,Hi,,,,,,0.7874,2,,,,,,,,high,19,0,19,0,1,,,,,,,,,
297277,2022-12-05_16h15.27.040,vts_reward_expectancy_bt,2022.2.4,Win32,59.52380952,Chrome,1500,1000,,,,,10,924,,,,,,,,,,,,,,,,,D,160,triangle,1,1,,,,,,,,,,,,,,,,repeat,letter,lettRpt,d,Hi,,,,,,0.6634,2,,,,,,,,high,20,0,20,0,1,,,,,,,,,
297277,2022-12-05_16h15.27.040,vts_reward_expectancy_bt,2022.2.4,Win32,59.52380952,Chrome,1500,1000,,,,,1,925,,,,,,,,,,,,,,,,,S,174,hexagon,1,0,,,,,,,,,,,,,,,,repeat,letter,lettRpt,f,Lo,,,,,,1.6891,2,,,,,,,,high,21,0,21,0,1,,,,,,,,,
297277,2022-12-05_16h15.27.040,vts_reward_expectancy_bt,2022.2.4,Win32,59.52380952,Chrome,1500,1000,,,,,10,935,,,,,,,,,,,,,,,,,H,139,star,1,0,,,,,,,,,,,,,,,,repeat,letter,lettRpt,d,Lo,,,,,,0.9719,2,,,,,,,,high,22,0,22,0,1,,,,,,,,,
297277,2022-12-05_16h15.27.040,vts_reward_expectancy_bt,2022.2.4,Win32,59.52380952,Chrome,1500,1000,,,,,10,945,,,,,,,,,,,,,,,,,Y,125,circle,1,0,,,,,,,,,,,,,,,,switch,number,numSwt,j,Hi,,,,,,1.3295,2,,,,,,,,high,23,0,23,0,1,,,,,,,,,
297277,2022-12-05_16h15.27.040,vts_reward_expectancy_bt,2022.2.4,Win32,59.52380952,Chrome,1500,1000,,,,,1,946,,,,,,,,,,,,,,,,,H,125,star,1,0,,,,,,,,,,,,,,,,repeat,number,numRpt,j,Lo,,,,,,0.5013,2,,,,,,,,high,24,0,24,0,1,,,,,,,,,
297277,2022-12-05_16h15.27.040,vts_reward_expectancy_bt,2022.2.4,Win32,59.52380952,Chrome,1500,1000,,,,,0,946,,,,,,,,,,,,,,,,,F,146,circle,0,0,,,,,,,,,,,,,,,,repeat,number,NA,k,Lo,,,,,,0.5031,2,,,,,,,,high,25,0,25,0,1,,,,,,,,,
297277,2022-12-05_16h15.27.040,vts_reward_expectancy_bt,2022.2.4,Win32,59.52380952,Chrome,1500,1000,,,,,1,947,,,,,,,,,,,,,,,,,W,132,hexagon,1,1,,,,,,,,,,,,,,,,repeat,number,numRpt,j,Lo,,,,,,0.4258,2,,,,,,,,high,26,0,26,0,1,,,,,,,,,
297277,2022-12-05_16h15.27.040,vts_reward_expectancy_bt,2022.2.4,Win32,59.52380952,Chrome,1500,1000,,,,,0,947,,,,,,,,,,,,,,,,,B,160,triangle,0,0,,,,,,,,,,,,,,,,repeat,number,NA,j,Lo,,,,,,0.4511,2,,,,,,,,high,27,0,27,0,1,,,,,,,,,
297277,2022-12-05_16h15.27.040,vts_reward_expectancy_bt,2022.2.4,Win32,59.52380952,Chrome,1500,1000,,,,,0,947,,,,,,,,,,,,,,,,,D,174,circle,1,1,,,,,,,,,,,,,,,,repeat,number,numRpt,k,Hi,,,,,,1.4014,2,,,,,,,,high,28,0,28,0,1,,,,,,,,,
297277,2022-12-05_16h15.27.040,vts_reward_expectancy_bt,2022.2.4,Win32,59.52380952,Chrome,1500,1000,,,,,1,948,,,,,,,,,,,,,,,,,S,167,hexagon,1,0,,,,,,,,,,,,,,,,repeat,number,numRpt,k,Lo,,,,,,0.825,2,,,,,,,,high,29,0,29,0,1,,,,,,,,,
297277,2022-12-05_16h15.27.040,vts_reward_expectancy_bt,2022.2.4,Win32,59.52380952,Chrome,1500,1000,,,,,1,949,,,,,,,,,,,,,,,,,Y,181,star,1,0,,,,,,,,,,,,,,,,repeat,number,numRpt,k,Lo,,,,,,0.587,2,,,,,,,,high,30,0,30,0,1,,,,,,,,,
297277,2022-12-05_16h15.27.040,vts_reward_expectancy_bt,2022.2.4,Win32,59.52380952,Chrome,1500,1000,,,,,0,949,,,,,,,,,,,,,,,,,U,139,triangle,1,0,,,,,,,,,,,,,,,,repeat,number,numRpt,j,Hi,,,,,,0.7344,2,,,,,,,,high,31,0,31,0,1,,,,,,,,,
297277,2022-12-05_16h15.27.040,vts_reward_expectancy_bt,2022.2.4,Win32,59.52380952,Chrome,1500,1000,,,,,1,950,,,,,,,,,,,,,,,,,Y,181,hexagon,1,0,,,,,,,,,,,,,,,,repeat,number,numRpt,k,Lo,,,,,,0.7849,3,,,,,,space,5.2356,high,0,0,0,0,1,,,,,,,,,
297277,2022-12-05_16h15.27.040,vts_reward_expectancy_bt,2022.2.4,Win32,59.52380952,Chrome,1500,1000,,,,,0,950,,,,,,,,,,,,,,,,,H,160,circle,0,0,,,,,,,,,,,,,,,,repeat,number,NA,j,Lo,,,,,,0.8701,3,,,,,,,,high,1,0,1,0,1,,,,,,,,,
297277,2022-12-05_16h15.27.040,vts_reward_expectancy_bt,2022.2.4,Win32,59.52380952,Chrome,1500,1000,,,,,1,951,,,,,,,,,,,,,,,,,D,167,star,1,1,,,,,,,,,,,,,,,,repeat,number,numRpt,k,Lo,,,,,,0.5285,3,,,,,,,,high,2,0,2,0,1,,,,,,,,,
297277,2022-12-05_16h15.27.040,vts_reward_expectancy_bt,2022.2.4,Win32,59.52380952,Chrome,1500,1000,,,,,0,951,,,,,,,,,,,,,,,,,W,174,triangle,1,0,,,,,,,,,,,,,,,,repeat,number,numRpt,k,Hi,,,,,,0.7186,3,,,,,,,,high,3,0,3,0,1,,,,,,,,,
297277,2022-12-05_16h15.27.040,vts_reward_expectancy_bt,2022.2.4,Win32,59.52380952,Chrome,1500,1000,,,,,10,961,,,,,,,,,,,,,,,,,S,146,hexagon,1,0,,,,,,,,,,,,,,,,repeat,number,numRpt,j,Lo,,,,,,0.8673,3,,,,,,,,high,4,0,4,0,1,,,,,,,,,
297277,2022-12-05_16h15.27.040,vts_reward_expectancy_bt,2022.2.4,Win32,59.52380952,Chrome,1500,1000,,,,,0,961,,,,,,,,,,,,,,,,,B,125,circle,1,0,,,,,,,,,,,,,,,,repeat,number,numRpt,j,Hi,,,,,,0.8338,3,,,,,,,,high,5,0,5,0,1,,,,,,,,,
297277,2022-12-05_16h15.27.040,vts_reward_expectancy_bt,2022.2.4,Win32,59.52380952,Chrome,1500,1000,,,,,1,962,,,,,,,,,,,,,,,,,F,132,star,1,0,,,,,,,,,,,,,,,,repeat,number,numRpt,j,Lo,,,,,,0.5167,3,,,,,,,,high,6,0,6,0,1,,,,,,,,,
297277,2022-12-05_16h15.27.040,vts_reward_expectancy_bt,2022.2.4,Win32,59.52380952,Chrome,1500,1000,,,,,0,962,,,,,,,,,,,,,,,,,U,139,triangle,1,0,,,,,,,,,,,,,,,,repeat,number,numRpt,j,Hi,,,,,,0.8529,3,,,,,,,,high,7,0,7,0,1,,,,,,,,,
297277,2022-12-05_16h15.27.040,vts_reward_expectancy_bt,2022.2.4,Win32,59.52380952,Chrome,1500,1000,,,,,1,963,,,,,,,,,,,,,,,,,Y,181,star,1,0,,,,,,,,,,,,,,,,repeat,number,numRpt,k,Lo,,,,,,0.6175,3,,,,,,,,high,8,0,8,0,1,,,,,,,,,
297277,2022-12-05_16h15.27.040,vts_reward_expectancy_bt,2022.2.4,Win32,59.52380952,Chrome,1500,1000,,,,,0,963,,,,,,,,,,,,,,,,,H,160,circle,0,0,,,,,,,,,,,,,,,,repeat,number,NA,j,Lo,,,,,,0.6245,3,,,,,,,,high,9,0,9,0,1,,,,,,,,,
297277,2022-12-05_16h15.27.040,vts_reward_expectancy_bt,2022.2.4,Win32,59.52380952,Chrome,1500,1000,,,,,10,973,,,,,,,,,,,,,,,,,D,167,hexagon,1,1,,,,,,,,,,,,,,,,repeat,number,numRpt,k,Lo,,,,,,0.8511,3,,,,,,,,high,10,0,10,0,1,,,,,,,,,
297277,2022-12-05_16h15.27.040,vts_reward_expectancy_bt,2022.2.4,Win32,59.52380952,Chrome,1500,1000,,,,,0,973,,,,,,,,,,,,,,,,,W,174,triangle,1,0,,,,,,,,,,,,,,,,repeat,number,numRpt,k,Hi,,,,,,0.8676,3,,,,,,,,high,11,0,11,0,1,,,,,,,,,
297277,2022-12-05_16h15.27.040,vts_reward_expectancy_bt,2022.2.4,Win32,59.52380952,Chrome,1500,1000,,,,,1,974,,,,,,,,,,,,,,,,,S,146,hexagon,1,0,,,,,,,,,,,,,,,,repeat,number,numRpt,j,Lo,,,,,,0.7517,3,,,,,,,,high,12,0,12,0,1,,,,,,,,,
297277,2022-12-05_16h15.27.040,vts_reward_expectancy_bt,2022.2.4,Win32,59.52380952,Chrome,1500,1000,,,,,0,974,,,,,,,,,,,,,,,,,B,125,circle,1,0,,,,,,,,,,,,,,,,repeat,number,numRpt,j,Hi,,,,,,0.67,3,,,,,,,,high,13,0,13,0,1,,,,,,,,,
297277,2022-12-05_16h15.27.040,vts_reward_expectancy_bt,2022.2.4,Win32,59.52380952,Chrome,1500,1000,,,,,10,984,,,,,,,,,,,,,,,,,F,132,star,1,0,,,,,,,,,,,,,,,,repeat,number,numRpt,j,Lo,,,,,,0.5097,3,,,,,,,,high,14,0,14,0,1,,,,,,,,,
297277,2022-12-05_16h15.27.040,vts_reward_expectancy_bt,2022.2.4,Win32,59.52380952,Chrome,1500,1000,,,,,0,984,,,,,,,,,,,,,,,,,U,139,triangle,1,0,,,,,,,,,,,,,,,,switch,letter,lettSwt,f,Hi,,,,,,0.5676,3,,,,,,,,high,15,0,15,0,1,,,,,,,,,
297277,2022-12-05_16h15.27.040,vts_reward_expectancy_bt,2022.2.4,Win32,59.52380952,Chrome,1500,1000,,,,,0,984,,,,,,,,,,,,,,,,,U,132,star,0,0,,,,,,,,,,,,,,,,repeat,letter,NA,d,Hi,,,,,,0.6856,3,,,,,,,,high,16,0,16,0,1,,,,,,,,,
297277,2022-12-05_16h15.27.040,vts_reward_expectancy_bt,2022.2.4,Win32,59.52380952,Chrome,1500,1000,,,,,0,984,,,,,,,,,,,,,,,,,D,181,triangle,1,1,,,,,,,,,,,,,,,,repeat,letter,lettRpt,d,Hi,,,,,,0.918,3,,,,,,,,high,17,0,17,0,1,,,,,,,,,
297277,2022-12-05_16h15.27.040,vts_reward_expectancy_bt,2022.2.4,Win32,59.52380952,Chrome,1500,1000,,,,,1,985,,,,,,,,,,,,,,,,,H,125,hexagon,1,0,,,,,,,,,,,,,,,,repeat,letter,lettRpt,d,Lo,,,,,,0.7521,3,,,,,,,,high,18,0,18,0,1,,,,,,,,,
297277,2022-12-05_16h15.27.040,vts_reward_expectancy_bt,2022.2.4,Win32,59.52380952,Chrome,1500,1000,,,,,0,985,,,,,,,,,,,,,,,,,S,174,circle,1,0,,,,,,,,,,,,,,,,repeat,letter,lettRpt,f,Hi,,,,,,0.6719,3,,,,,,,,high,19,0,19,0,1,,,,,,,,,
297277,2022-12-05_16h15.27.040,vts_reward_expectancy_bt,2022.2.4,Win32,59.52380952,Chrome,1500,1000,,,,,1,986,,,,,,,,,,,,,,,,,F,139,hexagon,1,0,,,,,,,,,,,,,,,,repeat,letter,lettRpt,d,Lo,,,,,,0.8994,3,,,,,,,,high,20,0,20,0,1,,,,,,,,,
297277,2022-12-05_16h15.27.040,vts_reward_expectancy_bt,2022.2.4,Win32,59.52380952,Chrome,1500,1000,,,,,10,996,,,,,,,,,,,,,,,,,Y,160,star,1,0,,,,,,,,,,,,,,,,repeat,letter,lettRpt,f,Lo,,,,,,0.6517,3,,,,,,,,high,21,0,21,0,1,,,,,,,,,
297277,2022-12-05_16h15.27.040,vts_reward_expectancy_bt,2022.2.4,Win32,59.52380952,Chrome,1500,1000,,,,,0,996,,,,,,,,,,,,,,,,,W,146,circle,1,0,,,,,,,,,,,,,,,,repeat,letter,lettRpt,f,Hi,,,,,,0.8857,3,,,,,,,,high,22,0,22,0,1,,,,,,,,,
297277,2022-12-05_16h15.27.040,vts_reward_expectancy_bt,2022.2.4,Win32,59.52380952,Chrome,1500,1000,,,,,10,1006,,,,,,,,,,,,,,,,,B,167,triangle,1,0,,,,,,,,,,,,,,,,repeat,letter,lettRpt,d,Hi,,,,,,0.5648,3,,,,,,,,high,23,0,23,0,1,,,,,,,,,
297277,2022-12-05_16h15.27.040,vts_reward_expectancy_bt,2022.2.4,Win32,59.52380952,Chrome,1500,1000,,,,,1,1007,,,,,,,,,,,,,,,,,Y,174,hexagon,1,0,,,,,,,,,,,,,,,,repeat,letter,lettRpt,f,Lo,,,,,,0.522,3,,,,,,,,high,24,0,24,0,1,,,,,,,,,
297277,2022-12-05_16h15.27.040,vts_reward_expectancy_bt,2022.2.4,Win32,59.52380952,Chrome,1500,1000,,,,,0,1007,,,,,,,,,,,,,,,,,W,181,circle,1,0,,,,,,,,,,,,,,,,repeat,letter,lettRpt,f,Hi,,,,,,0.6588,3,,,,,,,,high,25,0,25,0,1,,,,,,,,,
297277,2022-12-05_16h15.27.040,vts_reward_expectancy_bt,2022.2.4,Win32,59.52380952,Chrome,1500,1000,,,,,1,1008,,,,,,,,,,,,,,,,,H,139,star,1,0,,,,,,,,,,,,,,,,repeat,letter,lettRpt,d,Lo,,,,,,0.9688,3,,,,,,,,high,26,0,26,0,1,,,,,,,,,
297277,2022-12-05_16h15.27.040,vts_reward_expectancy_bt,2022.2.4,Win32,59.52380952,Chrome,1500,1000,,,,,10,1018,,,,,,,,,,,,,,,,,S,167,triangle,1,0,,,,,,,,,,,,,,,,repeat,letter,lettRpt,f,Hi,,,,,,0.5528,3,,,,,,,,high,27,0,27,0,1,,,,,,,,,
297277,2022-12-05_16h15.27.040,vts_reward_expectancy_bt,2022.2.4,Win32,59.52380952,Chrome,1500,1000,,,,,0,1018,,,,,,,,,,,,,,,,,F,160,triangle,1,0,,,,,,,,,,,,,,,,repeat,letter,lettRpt,d,Hi,,,,,,1.8014,3,,,,,,,,high,28,0,28,0,1,,,,,,,,,
297277,2022-12-05_16h15.27.040,vts_reward_expectancy_bt,2022.2.4,Win32,59.52380952,Chrome,1500,1000,,,,,1,1019,,,,,,,,,,,,,,,,,B,132,star,1,0,,,,,,,,,,,,,,,,repeat,letter,lettRpt,d,Lo,,,,,,0.6584,3,,,,,,,,high,29,0,29,0,1,,,,,,,,,
297277,2022-12-05_16h15.27.040,vts_reward_expectancy_bt,2022.2.4,Win32,59.52380952,Chrome,1500,1000,,,,,10,1029,,,,,,,,,,,,,,,,,D,146,hexagon,1,0,,,,,,,,,,,,,,,,repeat,letter,lettRpt,d,Lo,,,,,,1.4675,3,,,,,,,,high,30,0,30,0,1,,,,,,,,,
297277,2022-12-05_16h15.27.040,vts_reward_expectancy_bt,2022.2.4,Win32,59.52380952,Chrome,1500,1000,,,,,0,1029,,,,,,,,,,,,,,,,,U,125,circle,1,0,,,,,,,,,,,,,,,,repeat,letter,lettRpt,f,Hi,,,,,,0.7009,3,,,,,,,,high,31,0,31,0,1,,,,,,,,,
297277,2022-12-05_16h15.27.040,vts_reward_expectancy_bt,2022.2.4,Win32,59.52380952,Chrome,1500,1000,,,,,0,1029,,,,,,,,,,,,,,,,,B,167,triangle,1,0,,,,,,,,,,,,,,,,repeat,letter,lettRpt,d,Hi,,,,,,0.8623,4,,,,,,space,1.2531,high,0,0,0,0,1,,,,,,,,,
297277,2022-12-05_16h15.27.040,vts_reward_expectancy_bt,2022.2.4,Win32,59.52380952,Chrome,1500,1000,,,,,0,1029,,,,,,,,,,,,,,,,,U,146,circle,1,0,,,,,,,,,,,,,,,,repeat,letter,lettRpt,f,Hi,,,,,,0.9174,4,,,,,,,,high,1,0,1,0,1,,,,,,,,,
297277,2022-12-05_16h15.27.040,vts_reward_expectancy_bt,2022.2.4,Win32,59.52380952,Chrome,1500,1000,,,,,1,1030,,,,,,,,,,,,,,,,,H,181,hexagon,1,0,,,,,,,,,,,,,,,,repeat,letter,lettRpt,d,Lo,,,,,,0.638,4,,,,,,,,high,2,0,2,0,1,,,,,,,,,
297277,2022-12-05_16h15.27.040,vts_reward_expectancy_bt,2022.2.4,Win32,59.52380952,Chrome,1500,1000,,,,,1,1031,,,,,,,,,,,,,,,,,D,139,star,1,0,,,,,,,,,,,,,,,,repeat,letter,lettRpt,d,Lo,,,,,,0.6341,4,,,,,,,,high,3,0,3,0,1,,,,,,,,,
297277,2022-12-05_16h15.27.040,vts_reward_expectancy_bt,2022.2.4,Win32,59.52380952,Chrome,1500,1000,,,,,0,1031,,,,,,,,,,,,,,,,,F,125,triangle,1,0,,,,,,,,,,,,,,,,repeat,letter,lettRpt,d,Hi,,,,,,0.813,4,,,,,,,,high,4,0,4,0,1,,,,,,,,,
297277,2022-12-05_16h15.27.040,vts_reward_expectancy_bt,2022.2.4,Win32,59.52380952,Chrome,1500,1000,,,,,10,1041,,,,,,,,,,,,,,,,,W,160,circle,1,0,,,,,,,,,,,,,,,,repeat,letter,lettRpt,f,Hi,,,,,,0.6342,4,,,,,,,,high,5,0,5,0,1,,,,,,,,,
297277,2022-12-05_16h15.27.040,vts_reward_expectancy_bt,2022.2.4,Win32,59.52380952,Chrome,1500,1000,,,,,1,1042,,,,,,,,,,,,,,,,,Y,132,hexagon,1,0,,,,,,,,,,,,,,,,repeat,letter,lettRpt,f,Lo,,,,,,0.7177,4,,,,,,,,high,6,0,6,0,1,,,,,,,,,
297277,2022-12-05_16h15.27.040,vts_reward_expectancy_bt,2022.2.4,Win32,59.52380952,Chrome,1500,1000,,,,,10,1052,,,,,,,,,,,,,,,,,S,174,star,1,0,,,,,,,,,,,,,,,,repeat,letter,lettRpt,f,Lo,,,,,,0.6655,4,,,,,,,,high,7,0,7,0,1,,,,,,,,,
297277,2022-12-05_16h15.27.040,vts_reward_expectancy_bt,2022.2.4,Win32,59.52380952,Chrome,1500,1000,,,,,1,1053,,,,,,,,,,,,,,,,,B,167,star,1,0,,,,,,,,,,,,,,,,repeat,letter,lettRpt,d,Lo,,,,,,0.5673,4,,,,,,,,high,8,0,8,0,1,,,,,,,,,
297277,2022-12-05_16h15.27.040,vts_reward_expectancy_bt,2022.2.4,Win32,59.52380952,Chrome,1500,1000,,,,,10,1063,,,,,,,,,,,,,,,,,U,146,circle,1,0,,,,,,,,,,,,,,,,repeat,letter,lettRpt,f,Hi,,,,,,0.5694,4,,,,,,,,high,9,0,9,0,1,,,,,,,,,
297277,2022-12-05_16h15.27.040,vts_reward_expectancy_bt,2022.2.4,Win32,59.52380952,Chrome,1500,1000,,,,,0,1063,,,,,,,,,,,,,,,,,H,181,triangle,1,0,,,,,,,,,,,,,,,,repeat,letter,lettRpt,d,Hi,,,,,,0.744,4,,,,,,,,high,10,0,10,0,1,,,,,,,,,
297277,2022-12-05_16h15.27.040,vts_reward_expectancy_bt,2022.2.4,Win32,59.52380952,Chrome,1500,1000,,,,,1,1064,,,,,,,,,,,,,,,,,D,139,hexagon,1,0,,,,,,,,,,,,,,,,repeat,letter,lettRpt,d,Lo,,,,,,0.6792,4,,,,,,,,high,11,0,11,0,1,,,,,,,,,
297277,2022-12-05_16h15.27.040,vts_reward_expectancy_bt,2022.2.4,Win32,59.52380952,Chrome,1500,1000,,,,,1,1065,,,,,,,,,,,,,,,,,F,125,hexagon,1,0,,,,,,,,,,,,,,,,repeat,letter,lettRpt,d,Lo,,,,,,0.9202,4,,,,,,,,high,12,0,12,0,1,,,,,,,,,
297277,2022-12-05_16h15.27.040,vts_reward_expectancy_bt,2022.2.4,Win32,59.52380952,Chrome,1500,1000,,,,,10,1075,,,,,,,,,,,,,,,,,W,160,star,1,0,,,,,,,,,,,,,,,,repeat,letter,lettRpt,f,Lo,,,,,,0.7676,4,,,,,,,,high,13,0,13,0,1,,,,,,,,,
297277,2022-12-05_16h15.27.040,vts_reward_expectancy_bt,2022.2.4,Win32,59.52380952,Chrome,1500,1000,,,,,0,1075,,,,,,,,,,,,,,,,,Y,132,triangle,0,0,,,,,,,,,,,,,,,,repeat,letter,NA,d,Lo,,,,,,0.9687,4,,,,,,,,high,14,0,14,0,1,,,,,,,,,
297277,2022-12-05_16h15.27.040,vts_reward_expectancy_bt,2022.2.4,Win32,59.52380952,Chrome,1500,1000,,,,,0,1075,,,,,,,,,,,,,,,,,S,174,circle,1,1,,,,,,,,,,,,,,,,repeat,letter,lettRpt,f,Hi,,,,,,0.7445,4,,,,,,,,high,15,0,15,0,1,,,,,,,,,
297277,2022-12-05_16h15.27.040,vts_reward_expectancy_bt,2022.2.4,Win32,59.52380952,Chrome,1500,1000,,,,,1,1076,,,,,,,,,,,,,,,,,B,181,star,1,0,,,,,,,,,,,,,,,,repeat,letter,lettRpt,d,Lo,,,,,,0.6008,4,,,,,,,,high,16,0,16,0,1,,,,,,,,,
297277,2022-12-05_16h15.27.040,vts_reward_expectancy_bt,2022.2.4,Win32,59.52380952,Chrome,1500,1000,,,,,10,1086,,,,,,,,,,,,,,,,,F,160,circle,1,0,,,,,,,,,,,,,,,,repeat,letter,lettRpt,d,Hi,,,,,,0.636,4,,,,,,,,high,17,0,17,0,1,,,,,,,,,
297277,2022-12-05_16h15.27.040,vts_reward_expectancy_bt,2022.2.4,Win32,59.52380952,Chrome,1500,1000,,,,,0,1086,,,,,,,,,,,,,,,,,W,139,triangle,1,0,,,,,,,,,,,,,,,,repeat,letter,lettRpt,f,Hi,,,,,,0.7512,4,,,,,,,,high,18,0,18,0,1,,,,,,,,,
297277,2022-12-05_16h15.27.040,vts_reward_expectancy_bt,2022.2.4,Win32,59.52380952,Chrome,1500,1000,,,,,10,1096,,,,,,,,,,,,,,,,,H,167,hexagon,1,0,,,,,,,,,,,,,,,,repeat,letter,lettRpt,d,Lo,,,,,,0.7953,4,,,,,,,,high,19,0,19,0,1,,,,,,,,,
297277,2022-12-05_16h15.27.040,vts_reward_expectancy_bt,2022.2.4,Win32,59.52380952,Chrome,1500,1000,,,,,0,1096,,,,,,,,,,,,,,,,,U,125,circle,1,0,,,,,,,,,,,,,,,,repeat,letter,lettRpt,f,Hi,,,,,,1.1623,4,,,,,,,,high,20,0,20,0,1,,,,,,,,,
297277,2022-12-05_16h15.27.040,vts_reward_expectancy_bt,2022.2.4,Win32,59.52380952,Chrome,1500,1000,,,,,1,1097,,,,,,,,,,,,,,,,,D,132,hexagon,1,0,,,,,,,,,,,,,,,,repeat,letter,lettRpt,d,Lo,,,,,,0.6344,4,,,,,,,,high,21,0,21,0,1,,,,,,,,,
297277,2022-12-05_16h15.27.040,vts_reward_expectancy_bt,2022.2.4,Win32,59.52380952,Chrome,1500,1000,,,,,1,1098,,,,,,,,,,,,,,,,,Y,146,star,1,0,,,,,,,,,,,,,,,,repeat,letter,lettRpt,f,Lo,,,,,,0.5686,4,,,,,,,,high,22,0,22,0,1,,,,,,,,,
297277,2022-12-05_16h15.27.040,vts_reward_expectancy_bt,2022.2.4,Win32,59.52380952,Chrome,1500,1000,,,,,1,1099,,,,,,,,,,,,,,,,,S,174,triangle,1,0,,,,,,,,,,,,,,,,repeat,letter,lettRpt,f,Hi,,,,,,0.4516,4,,,,,,,,high,23,0,23,0,1,,,,,,,,,
297277,2022-12-05_16h15.27.040,vts_reward_expectancy_bt,2022.2.4,Win32,59.52380952,Chrome,1500,1000,,,,,1,1100,,,,,,,,,,,,,,,,,Y,139,circle,1,0,,,,,,,,,,,,,,,,repeat,letter,lettRpt,f,Hi,,,,,,0.635,4,,,,,,,,high,24,0,24,0,1,,,,,,,,,
297277,2022-12-05_16h15.27.040,vts_reward_expectancy_bt,2022.2.4,Win32,59.52380952,Chrome,1500,1000,,,,,1,1101,,,,,,,,,,,,,,,,,W,125,hexagon,1,0,,,,,,,,,,,,,,,,repeat,letter,lettRpt,f,Lo,,,,,,0.6442,4,,,,,,,,high,25,0,25,0,1,,,,,,,,,
297277,2022-12-05_16h15.27.040,vts_reward_expectancy_bt,2022.2.4,Win32,59.52380952,Chrome,1500,1000,,,,,0,1101,,,,,,,,,,,,,,,,,D,146,triangle,1,0,,,,,,,,,,,,,,,,repeat,letter,lettRpt,d,Hi,,,,,,0.6894,4,,,,,,,,high,26,0,26,0,1,,,,,,,,,
297277,2022-12-05_16h15.27.040,vts_reward_expectancy_bt,2022.2.4,Win32,59.52380952,Chrome,1500,1000,,,,,1,1102,,,,,,,,,,,,,,,,,F,181,star,1,0,,,,,,,,,,,,,,,,repeat,letter,lettRpt,d,Lo,,,,,,0.4342,4,,,,,,,,high,27,0,27,0,1,,,,,,,,,
297277,2022-12-05_16h15.27.040,vts_reward_expectancy_bt,2022.2.4,Win32,59.52380952,Chrome,1500,1000,,,,,1,1103,,,,,,,,,,,,,,,,,U,174,star,1,0,,,,,,,,,,,,,,,,repeat,letter,lettRpt,f,Lo,,,,,,0.5518,4,,,,,,,,high,28,0,28,0,1,,,,,,,,,
297277,2022-12-05_16h15.27.040,vts_reward_expectancy_bt,2022.2.4,Win32,59.52380952,Chrome,1500,1000,,,,,10,1113,,,,,,,,,,,,,,,,,S,167,triangle,1,0,,,,,,,,,,,,,,,,repeat,letter,lettRpt,f,Hi,,,,,,0.5645,4,,,,,,,,high,29,0,29,0,1,,,,,,,,,
297277,2022-12-05_16h15.27.040,vts_reward_expectancy_bt,2022.2.4,Win32,59.52380952,Chrome,1500,1000,,,,,1,1114,,,,,,,,,,,,,,,,,H,160,circle,1,0,,,,,,,,,,,,,,,,repeat,letter,lettRpt,d,Hi,,,,,,0.4527,4,,,,,,,,high,30,0,30,0,1,,,,,,,,,
297277,2022-12-05_16h15.27.040,vts_reward_expectancy_bt,2022.2.4,Win32,59.52380952,Chrome,1500,1000,,,,,10,1124,,,,,,,,,,,,,,,,,B,132,hexagon,1,0,,,,,,,,,,,,,,,,repeat,letter,lettRpt,d,Lo,,,,,,0.5115,4,,,,,,,,high,31,0,31,0,1,,,,,,,,,
297277,2022-12-05_16h15.27.040,vts_reward_expectancy_bt,2022.2.4,Win32,59.52380952,Chrome,1500,1000,,,,,1,1125,,,,,,,,,,,,,,,,,Y,167,hexagon,1,0,,,,,,,,,,,,,,,,switch,number,numSwt,k,Lo,,,,,,1.2253,5,,,,,,space,1.2212,high,0,0,0,0,1,,,,,,,,,
297277,2022-12-05_16h15.27.040,vts_reward_expectancy_bt,2022.2.4,Win32,59.52380952,Chrome,1500,1000,,,,,0,1125,,,,,,,,,,,,,,,,,W,181,star,0,0,,,,,,,,,,,,,,,,repeat,number,NA,j,Lo,,,,,,0.6512,5,,,,,,,,high,1,0,1,0,1,,,,,,,,,
297277,2022-12-05_16h15.27.040,vts_reward_expectancy_bt,2022.2.4,Win32,59.52380952,Chrome,1500,1000,,,,,10,1135,,,,,,,,,,,,,,,,,D,146,triangle,1,1,,,,,,,,,,,,,,,,repeat,number,numRpt,j,Hi,,,,,,0.6693,5,,,,,,,,high,2,0,2,0,1,,,,,,,,,
297277,2022-12-05_16h15.27.040,vts_reward_expectancy_bt,2022.2.4,Win32,59.52380952,Chrome,1500,1000,,,,,0,1135,,,,,,,,,,,,,,,,,H,174,circle,0,0,,,,,,,,,,,,,,,,repeat,number,NA,j,Hi,,,,,,0.5534,5,,,,,,,,high,3,0,3,0,1,,,,,,,,,
297277,2022-12-05_16h15.27.040,vts_reward_expectancy_bt,2022.2.4,Win32,59.52380952,Chrome,1500,1000,,,,,0,1135,,,,,,,,,,,,,,,,,B,139,hexagon,0,1,,,,,,,,,,,,,,,,repeat,number,NA,k,Hi,,,,,,0.4842,5,,,,,,,,high,4,0,4,0,1,,,,,,,,,
297277,2022-12-05_16h15.27.040,vts_reward_expectancy_bt,2022.2.4,Win32,59.52380952,Chrome,1500,1000,,,,,0,1135,,,,,,,,,,,,,,,,,U,125,star,0,1,,,,,,,,,,,,,,,,repeat,number,NA,k,Hi,,,,,,0.7682,5,,,,,,,,high,5,0,5,0,1,,,,,,,,,
297277,2022-12-05_16h15.27.040,vts_reward_expectancy_bt,2022.2.4,Win32,59.52380952,Chrome,1500,1000,,,,,0,1135,,,,,,,,,,,,,,,,,S,132,triangle,0,1,,,,,,,,,,,,,,,,repeat,number,NA,k,Hi,,,,,,0.4056,5,,,,,,,,high,6,0,6,0,1,,,,,,,,,
297277,2022-12-05_16h15.27.040,vts_reward_expectancy_bt,2022.2.4,Win32,59.52380952,Chrome,1500,1000,,,,,10,1145,,,,,,,,,,,,,,,,,F,160,circle,1,1,,,,,,,,,,,,,,,,repeat,number,numRpt,k,Hi,,,,,,1.0347,5,,,,,,,,high,7,0,7,0,1,,,,,,,,,
297277,2022-12-05_16h15.27.040,vts_reward_expectancy_bt,2022.2.4,Win32,59.52380952,Chrome,1500,1000,,,,,1,1146,,,,,,,,,,,,,,,,,Y,167,hexagon,1,0,,,,,,,,,,,,,,,,repeat,number,numRpt,k,Lo,,,,,,0.6354,5,,,,,,,,high,8,0,8,0,1,,,,,,,,,
297277,2022-12-05_16h15.27.040,vts_reward_expectancy_bt,2022.2.4,Win32,59.52380952,Chrome,1500,1000,,,,,1,1147,,,,,,,,,,,,,,,,,W,181,circle,1,0,,,,,,,,,,,,,,,,repeat,number,numRpt,k,Hi,,,,,,0.9679,5,,,,,,,,high,9,0,9,0,1,,,,,,,,,
297277,2022-12-05_16h15.27.040,vts_reward_expectancy_bt,2022.2.4,Win32,59.52380952,Chrome,1500,1000,,,,,10,1157,,,,,,,,,,,,,,,,,D,146,triangle,1,0,,,,,,,,,,,,,,,,repeat,number,numRpt,j,Hi,,,,,,1.2168,5,,,,,,,,high,10,0,10,0,1,,,,,,,,,
297277,2022-12-05_16h15.27.040,vts_reward_expectancy_bt,2022.2.4,Win32,59.52380952,Chrome,1500,1000,,,,,1,1158,,,,,,,,,,,,,,,,,H,174,star,1,0,,,,,,,,,,,,,,,,repeat,number,numRpt,k,Lo,,,,,,0.9543,5,,,,,,,,high,11,0,11,0,1,,,,,,,,,
297277,2022-12-05_16h15.27.040,vts_reward_expectancy_bt,2022.2.4,Win32,59.52380952,Chrome,1500,1000,,,,,1,1159,,,,,,,,,,,,,,,,,B,139,hexagon,1,0,,,,,,,,,,,,,,,,repeat,number,numRpt,j,Lo,,,,,,1.1183,5,,,,,,,,high,12,0,12,0,1,,,,,,,,,
297277,2022-12-05_16h15.27.040,vts_reward_expectancy_bt,2022.2.4,Win32,59.52380952,Chrome,1500,1000,,,,,10,1169,,,,,,,,,,,,,,,,,U,125,triangle,1,0,,,,,,,,,,,,,,,,repeat,number,numRpt,j,Hi,,,,,,1.1053,5,,,,,,,,high,13,0,13,0,1,,,,,,,,,
297277,2022-12-05_16h15.27.040,vts_reward_expectancy_bt,2022.2.4,Win32,59.52380952,Chrome,1500,1000,,,,,10,1179,,,,,,,,,,,,,,,,,S,132,circle,1,0,,,,,,,,,,,,,,,,repeat,number,numRpt,j,Hi,,,,,,1.1755,5,,,,,,,,high,14,0,14,0,1,,,,,,,,,
297277,2022-12-05_16h15.27.040,vts_reward_expectancy_bt,2022.2.4,Win32,59.52380952,Chrome,1500,1000,,,,,1,1180,,,,,,,,,,,,,,,,,F,160,star,1,0,,,,,,,,,,,,,,,,repeat,number,numRpt,k,Lo,,,,,,1.0836,5,,,,,,,,high,15,0,15,0,1,,,,,,,,,
297277,2022-12-05_16h15.27.040,vts_reward_expectancy_bt,2022.2.4,Win32,59.52380952,Chrome,1500,1000,,,,,1,1181,,,,,,,,,,,,,,,,,B,139,hexagon,1,0,,,,,,,,,,,,,,,,repeat,number,numRpt,j,Lo,,,,,,0.8148,5,,,,,,,,high,16,0,16,0,1,,,,,,,,,
297277,2022-12-05_16h15.27.040,vts_reward_expectancy_bt,2022.2.4,Win32,59.52380952,Chrome,1500,1000,,,,,10,1191,,,,,,,,,,,,,,,,,W,181,star,1,0,,,,,,,,,,,,,,,,repeat,number,numRpt,k,Lo,,,,,,1.1683,5,,,,,,,,high,17,0,17,0,1,,,,,,,,,
297277,2022-12-05_16h15.27.040,vts_reward_expectancy_bt,2022.2.4,Win32,59.52380952,Chrome,1500,1000,,,,,10,1201,,,,,,,,,,,,,,,,,H,167,triangle,1,0,,,,,,,,,,,,,,,,repeat,number,numRpt,k,Hi,,,,,,1.3178,5,,,,,,,,high,18,0,18,0,1,,,,,,,,,
297277,2022-12-05_16h15.27.040,vts_reward_expectancy_bt,2022.2.4,Win32,59.52380952,Chrome,1500,1000,,,,,10,1211,,,,,,,,,,,,,,,,,Y,146,circle,1,0,,,,,,,,,,,,,,,,repeat,number,numRpt,j,Hi,,,,,,0.9689,5,,,,,,,,high,19,0,19,0,1,,,,,,,,,
297277,2022-12-05_16h15.27.040,vts_reward_expectancy_bt,2022.2.4,Win32,59.52380952,Chrome,1500,1000,,,,,1,1212,,,,,,,,,,,,,,,,,U,174,star,1,0,,,,,,,,,,,,,,,,repeat,number,numRpt,k,Lo,,,,,,1.3121,5,,,,,,,,high,20,0,20,0,1,,,,,,,,,
297277,2022-12-05_16h15.27.040,vts_reward_expectancy_bt,2022.2.4,Win32,59.52380952,Chrome,1500,1000,,,,,1,1213,,,,,,,,,,,,,,,,,F,132,hexagon,1,0,,,,,,,,,,,,,,,,repeat,number,numRpt,j,Lo,,,,,,0.9349,5,,,,,,,,high,21,0,21,0,1,,,,,,,,,
297277,2022-12-05_16h15.27.040,vts_reward_expectancy_bt,2022.2.4,Win32,59.52380952,Chrome,1500,1000,,,,,10,1223,,,,,,,,,,,,,,,,,D,125,triangle,1,0,,,,,,,,,,,,,,,,repeat,number,numRpt,j,Hi,,,,,,0.643,5,,,,,,,,high,22,0,22,0,1,,,,,,,,,
297277,2022-12-05_16h15.27.040,vts_reward_expectancy_bt,2022.2.4,Win32,59.52380952,Chrome,1500,1000,,,,,10,1233,,,,,,,,,,,,,,,,,S,160,circle,1,0,,,,,,,,,,,,,,,,repeat,number,numRpt,k,Hi,,,,,,0.6789,5,,,,,,,,high,23,0,23,0,1,,,,,,,,,
297277,2022-12-05_16h15.27.040,vts_reward_expectancy_bt,2022.2.4,Win32,59.52380952,Chrome,1500,1000,,,,,1,1234,,,,,,,,,,,,,,,,,H,132,hexagon,1,0,,,,,,,,,,,,,,,,repeat,number,numRpt,j,Lo,,,,,,0.5843,5,,,,,,,,high,24,0,24,0,1,,,,,,,,,
297277,2022-12-05_16h15.27.040,vts_reward_expectancy_bt,2022.2.4,Win32,59.52380952,Chrome,1500,1000,,,,,10,1244,,,,,,,,,,,,,,,,,Y,146,triangle,1,0,,,,,,,,,,,,,,,,repeat,number,numRpt,j,Hi,,,,,,0.8344,5,,,,,,,,high,25,0,25,0,1,,,,,,,,,
297277,2022-12-05_16h15.27.040,vts_reward_expectancy_bt,2022.2.4,Win32,59.52380952,Chrome,1500,1000,,,,,1,1245,,,,,,,,,,,,,,,,,B,181,star,1,0,,,,,,,,,,,,,,,,repeat,number,numRpt,k,Lo,,,,,,1.0013,5,,,,,,,,high,26,0,26,0,1,,,,,,,,,
297277,2022-12-05_16h15.27.040,vts_reward_expectancy_bt,2022.2.4,Win32,59.52380952,Chrome,1500,1000,,,,,1,1246,,,,,,,,,,,,,,,,,U,125,circle,1,0,,,,,,,,,,,,,,,,repeat,number,numRpt,j,Hi,,,,,,0.8007,5,,,,,,,,high,27,0,27,0,1,,,,,,,,,
297277,2022-12-05_16h15.27.040,vts_reward_expectancy_bt,2022.2.4,Win32,59.52380952,Chrome,1500,1000,,,,,10,1256,,,,,,,,,,,,,,,,,W,174,triangle,1,0,,,,,,,,,,,,,,,,repeat,number,numRpt,k,Hi,,,,,,0.761,5,,,,,,,,high,28,0,28,0,1,,,,,,,,,
297277,2022-12-05_16h15.27.040,vts_reward_expectancy_bt,2022.2.4,Win32,59.52380952,Chrome,1500,1000,,,,,1,1257,,,,,,,,,,,,,,,,,F,160,star,1,0,,,,,,,,,,,,,,,,repeat,number,numRpt,k,Lo,,,,,,1.1294,5,,,,,,,,high,29,0,29,0,1,,,,,,,,,
297277,2022-12-05_16h15.27.040,vts_reward_expectancy_bt,2022.2.4,Win32,59.52380952,Chrome,1500,1000,,,,,10,1267,,,,,,,,,,,,,,,,,D,139,hexagon,1,0,,,,,,,,,,,,,,,,repeat,number,numRpt,j,Lo,,,,,,0.9049,5,,,,,,,,high,30,0,30,0,1,,,,,,,,,
297277,2022-12-05_16h15.27.040,vts_reward_expectancy_bt,2022.2.4,Win32,59.52380952,Chrome,1500,1000,,,,,10,1277,,,,,,,,,,,,,,,,,S,167,circle,1,0,,,,,,,,,,,,,,,,repeat,number,numRpt,k,Hi,,,,,,1.1502,5,,,,,,,,high,31,0,31,0,1,,,,,,,,,
297277,2022-12-05_16h15.27.040,vts_reward_expectancy_bt,2022.2.4,Win32,59.52380952,Chrome,1500,1000,,,,,10,1287,,,,,,,,,,,,,,,,,S,160,triangle,1,0,,,,,,,,,,,,,,,,switch,letter,lettSwt,f,Hi,,,,,,1.4343,6,,,,,,space,1.1252,high,0,0,0,0,1,,,,,,,,,
297277,2022-12-05_16h15.27.040,vts_reward_expectancy_bt,2022.2.4,Win32,59.52380952,Chrome,1500,1000,,,,,10,1297,,,,,,,,,,,,,,,,,B,125,hexagon,1,0,,,,,,,,,,,,,,,,repeat,letter,lettRpt,d,Lo,,,,,,0.7836,6,,,,,,,,high,1,0,1,0,1,,,,,,,,,
297277,2022-12-05_16h15.27.040,vts_reward_expectancy_bt,2022.2.4,Win32,59.52380952,Chrome,1500,1000,,,,,1,1298,,,,,,,,,,,,,,,,,D,139,star,1,0,,,,,,,,,,,,,,,,repeat,letter,lettRpt,d,Lo,,,,,,0.7702,6,,,,,,,,high,2,0,2,0,1,,,,,,,,,
297277,2022-12-05_16h15.27.040,vts_reward_expectancy_bt,2022.2.4,Win32,59.52380952,Chrome,1500,1000,,,,,10,1308,,,,,,,,,,,,,,,,,U,181,circle,1,0,,,,,,,,,,,,,,,,repeat,letter,lettRpt,f,Hi,,,,,,0.751,6,,,,,,,,high,3,0,3,0,1,,,,,,,,,
297277,2022-12-05_16h15.27.040,vts_reward_expectancy_bt,2022.2.4,Win32,59.52380952,Chrome,1500,1000,,,,,10,1318,,,,,,,,,,,,,,,,,W,174,triangle,1,0,,,,,,,,,,,,,,,,repeat,letter,lettRpt,f,Hi,,,,,,0.7864,6,,,,,,,,high,4,0,4,0,1,,,,,,,,,
297277,2022-12-05_16h15.27.040,vts_reward_expectancy_bt,2022.2.4,Win32,59.52380952,Chrome,1500,1000,,,,,1,1319,,,,,,,,,,,,,,,,,F,167,hexagon,1,0,,,,,,,,,,,,,,,,repeat,letter,lettRpt,d,Lo,,,,,,0.9039,6,,,,,,,,high,5,0,5,0,1,,,,,,,,,
297277,2022-12-05_16h15.27.040,vts_reward_expectancy_bt,2022.2.4,Win32,59.52380952,Chrome,1500,1000,,,,,10,1329,,,,,,,,,,,,,,,,,H,146,star,1,0,,,,,,,,,,,,,,,,repeat,letter,lettRpt,d,Lo,,,,,,1.3348,6,,,,,,,,high,6,0,6,0,1,,,,,,,,,
297277,2022-12-05_16h15.27.040,vts_reward_expectancy_bt,2022.2.4,Win32,59.52380952,Chrome,1500,1000,,,,,10,1339,,,,,,,,,,,,,,,,,Y,132,circle,1,0,,,,,,,,,,,,,,,,repeat,letter,lettRpt,f,Hi,,,,,,0.7077,6,,,,,,,,high,7,0,7,0,1,,,,,,,,,
297277,2022-12-05_16h15.27.040,vts_reward_expectancy_bt,2022.2.4,Win32,59.52380952,Chrome,1500,1000,,,,,10,1349,,,,,,,,,,,,,,,,,S,160,circle,1,0,,,,,,,,,,,,,,,,repeat,letter,lettRpt,f,Hi,,,,,,1.9816,6,,,,,,,,high,8,0,8,0,1,,,,,,,,,
297277,2022-12-05_16h15.27.040,vts_reward_expectancy_bt,2022.2.4,Win32,59.52380952,Chrome,1500,1000,,,,,1,1350,,,,,,,,,,,,,,,,,B,125,star,1,0,,,,,,,,,,,,,,,,repeat,letter,lettRpt,d,Lo,,,,,,0.8285,6,,,,,,,,high,9,0,9,0,1,,,,,,,,,
297277,2022-12-05_16h15.27.040,vts_reward_expectancy_bt,2022.2.4,Win32,59.52380952,Chrome,1500,1000,,,,,10,1360,,,,,,,,,,,,,,,,,D,139,triangle,1,0,,,,,,,,,,,,,,,,repeat,letter,lettRpt,d,Hi,,,,,,0.8421,6,,,,,,,,high,10,0,10,0,1,,,,,,,,,
297277,2022-12-05_16h15.27.040,vts_reward_expectancy_bt,2022.2.4,Win32,59.52380952,Chrome,1500,1000,,,,,1,1361,,,,,,,,,,,,,,,,,U,181,hexagon,1,0,,,,,,,,,,,,,,,,repeat,letter,lettRpt,f,Lo,,,,,,0.647,6,,,,,,,,high,11,0,11,0,1,,,,,,,,,
297277,2022-12-05_16h15.27.040,vts_reward_expectancy_bt,2022.2.4,Win32,59.52380952,Chrome,1500,1000,,,,,1,1362,,,,,,,,,,,,,,,,,W,174,star,1,0,,,,,,,,,,,,,,,,repeat,letter,lettRpt,f,Lo,,,,,,0.5032,6,,,,,,,,high,12,0,12,0,1,,,,,,,,,
297277,2022-12-05_16h15.27.040,vts_reward_expectancy_bt,2022.2.4,Win32,59.52380952,Chrome,1500,1000,,,,,1,1363,,,,,,,,,,,,,,,,,F,167,hexagon,1,0,,,,,,,,,,,,,,,,repeat,letter,lettRpt,d,Lo,,,,,,0.8126,6,,,,,,,,high,13,0,13,0,1,,,,,,,,,
