participant,date,expName,psychopyVersion,OS,frameRate,browser,xResolution,yResolution,key_resp.keys,key_resp.rt,training_resp.keys,training_resp.rt,points_trial,points_cumul,trainBlock,training.thisRepN,training.thisTrialN,training.thisN,training.thisIndex,training.ran,LTriangleOpac,LCircleOpac,LHexagonOpac,LStarOpac,RTriangleOpac,RCircleOpac,RHexagonOpac,RStarOpac,LShape_ID,RShape_ID,curr_topStim,curr_bottStim,curr_shape,acc,E1,target_resp_prac1.keys,target_resp_prac1.rt,pracBlock,task1_prac_trials.thisRepN,task1_prac_trials.thisTrialN,task1_prac_trials.thisN,task1_prac_trials.thisIndex,task1_prac_trials.ran,target_resp_prac2.keys,target_resp_prac2.rt,task2_praac_trials.thisRepN,task2_praac_trials.thisTrialN,task2_praac_trials.thisN,task2_praac_trials.thisIndex,task2_praac_trials.ran,alt,task,condition,target_resp.keys,target_resp.rt,rewCond,vts_practice_trials.thisRepN,vts_practice_trials.thisTrialN,vts_practice_trials.thisN,vts_practice_trials.thisIndex,vts_practice_trials.ran,blockNum,trials_norew.thisRepN,trials_norew.thisTrialN,trials_norew.thisN,trials_norew.thisIndex,trials_norew.ran,key_resp_2.keys,key_resp_2.rt,rewExpectancy,trials_rew.thisRepN,trials_rew.thisTrialN,trials_rew.thisN,trials_rew.thisIndex,trials_rew.ran,Q1,Q2,Q2_text,Q3,Q4,Q5_text,Q5,xRes,yRes
297244,2022-12-06_24h21.10.666,vts_reward_expectancy_bt,2022.2.4,Win32,59.88382538,Chrome,1500,1000,,,,,,,,,,,,,,,,,,,,,,,,,,,,,,,,,,,,,,,,,,,,,,,,,,,,,,,,,,,,,,,,,,,,,,,,,,,,
297244,2022-12-06_24h21.10.666,vts_reward_expectancy_bt,2022.2.4,Win32,59.88382538,Chrome,1500,1000,space,0.9457,,,,,,,,,,,,,,,,,,,,,,,,,,,,,,,,,,,,,,,,,,,,,,,,,,,,,,,,,,,,,,,,,,,,,,,,,,
297244,2022-12-06_24h21.10.666,vts_reward_expectancy_bt,2022.2.4,Win32,59.88382538,Chrome,1500,1000,,,,,,,,,,,,,,,,,,,,,,,,,,,,,,,,,,,,,,,,,,,,,,,,,,,,,,,,,,,,,,,,,,,,,,,,,,,,
297244,2022-12-06_24h21.10.666,vts_reward_expectancy_bt,2022.2.4,Win32,59.88382538,Chrome,1500,1000,,,a,0.6473,10,10,0,0,0,0,11,1,0,0,0,1,0,0,1,0,star,hexagon,,,,,,,,,,,,,,,,,,,,,,,,,,,,,,,,,,,,,,,,,,,,,,,,,,,,,,
297244,2022-12-06_24h21.10.666,vts_reward_expectancy_bt,2022.2.4,Win32,59.88382538,Chrome,1500,1000,,,a,0.484,10,20,0,0,1,1,10,1,0,0,0,1,0,1,0,0,star ,circle,,,,,,,,,,,,,,,,,,,,,,,,,,,,,,,,,,,,,,,,,,,,,,,,,,,,,,
297244,2022-12-06_24h21.10.666,vts_reward_expectancy_bt,2022.2.4,Win32,59.88382538,Chrome,1500,1000,,,a,0.7536,10,30,0,0,2,2,4,1,0,1,0,0,0,0,1,0,circle,hexagon,,,,,,,,,,,,,,,,,,,,,,,,,,,,,,,,,,,,,,,,,,,,,,,,,,,,,,
297244,2022-12-06_24h21.10.666,vts_reward_expectancy_bt,2022.2.4,Win32,59.88382538,Chrome,1500,1000,,,a,1.1496,1,31,0,0,3,3,3,1,0,1,0,0,1,0,0,0,circle,triangle,,,,,,,,,,,,,,,,,,,,,,,,,,,,,,,,,,,,,,,,,,,,,,,,,,,,,,
297244,2022-12-06_24h21.10.666,vts_reward_expectancy_bt,2022.2.4,Win32,59.88382538,Chrome,1500,1000,,,a,0.708,10,41,0,0,4,4,0,1,1,0,0,0,0,1,0,0,triangle,circle,,,,,,,,,,,,,,,,,,,,,,,,,,,,,,,,,,,,,,,,,,,,,,,,,,,,,,
297244,2022-12-06_24h21.10.666,vts_reward_expectancy_bt,2022.2.4,Win32,59.88382538,Chrome,1500,1000,,,a,1.3167,1,42,0,0,5,5,7,1,0,0,1,0,0,1,0,0,hexagon,circle,,,,,,,,,,,,,,,,,,,,,,,,,,,,,,,,,,,,,,,,,,,,,,,,,,,,,,
297244,2022-12-06_24h21.10.666,vts_reward_expectancy_bt,2022.2.4,Win32,59.88382538,Chrome,1500,1000,,,a,0.7156,10,52,0,0,6,6,9,1,0,0,0,1,1,0,0,0,star,triangle,,,,,,,,,,,,,,,,,,,,,,,,,,,,,,,,,,,,,,,,,,,,,,,,,,,,,,
297244,2022-12-06_24h21.10.666,vts_reward_expectancy_bt,2022.2.4,Win32,59.88382538,Chrome,1500,1000,,,a,0.3338,1,53,0,0,7,7,5,1,0,1,0,0,0,0,0,1,circle,star,,,,,,,,,,,,,,,,,,,,,,,,,,,,,,,,,,,,,,,,,,,,,,,,,,,,,,
297244,2022-12-06_24h21.10.666,vts_reward_expectancy_bt,2022.2.4,Win32,59.88382538,Chrome,1500,1000,,,a,0.251,10,63,0,0,8,8,8,1,0,0,1,0,0,0,0,1,hexagon,star,,,,,,,,,,,,,,,,,,,,,,,,,,,,,,,,,,,,,,,,,,,,,,,,,,,,,,
297244,2022-12-06_24h21.10.666,vts_reward_expectancy_bt,2022.2.4,Win32,59.88382538,Chrome,1500,1000,,,a,0.5168,10,73,0,0,9,9,6,1,0,0,1,0,1,0,0,0,hexagon,triangle,,,,,,,,,,,,,,,,,,,,,,,,,,,,,,,,,,,,,,,,,,,,,,,,,,,,,,
297244,2022-12-06_24h21.10.666,vts_reward_expectancy_bt,2022.2.4,Win32,59.88382538,Chrome,1500,1000,,,l,0.646,10,83,0,0,10,10,1,1,1,0,0,0,0,0,1,0,triangle,hexagon,,,,,,,,,,,,,,,,,,,,,,,,,,,,,,,,,,,,,,,,,,,,,,,,,,,,,,
297244,2022-12-06_24h21.10.666,vts_reward_expectancy_bt,2022.2.4,Win32,59.88382538,Chrome,1500,1000,,,l,0.8177,1,84,0,0,11,11,2,1,1,0,0,0,0,0,0,1,triangle,star,,,,,,,,,,,,,,,,,,,,,,,,,,,,,,,,,,,,,,,,,,,,,,,,,,,,,,
297244,2022-12-06_24h21.10.666,vts_reward_expectancy_bt,2022.2.4,Win32,59.88382538,Chrome,1500,1000,,,l,0.78,10,94,0,1,0,12,9,1,0,0,0,1,1,0,0,0,star,triangle,,,,,,,,,,,,,,,,,,,,,,,,,,,,,,,,,,,,,,,,,,,,,,,,,,,,,,
297244,2022-12-06_24h21.10.666,vts_reward_expectancy_bt,2022.2.4,Win32,59.88382538,Chrome,1500,1000,,,a,1.3717,10,104,0,1,1,13,4,1,0,1,0,0,0,0,1,0,circle,hexagon,,,,,,,,,,,,,,,,,,,,,,,,,,,,,,,,,,,,,,,,,,,,,,,,,,,,,,
297244,2022-12-06_24h21.10.666,vts_reward_expectancy_bt,2022.2.4,Win32,59.88382538,Chrome,1500,1000,,,a,0.6242,1,105,0,1,2,14,11,1,0,0,0,1,0,0,1,0,star,hexagon,,,,,,,,,,,,,,,,,,,,,,,,,,,,,,,,,,,,,,,,,,,,,,,,,,,,,,
297244,2022-12-06_24h21.10.666,vts_reward_expectancy_bt,2022.2.4,Win32,59.88382538,Chrome,1500,1000,,,l,0.9837,1,106,0,1,3,15,2,1,1,0,0,0,0,0,0,1,triangle,star,,,,,,,,,,,,,,,,,,,,,,,,,,,,,,,,,,,,,,,,,,,,,,,,,,,,,,
297244,2022-12-06_24h21.10.666,vts_reward_expectancy_bt,2022.2.4,Win32,59.88382538,Chrome,1500,1000,,,l,0.73,10,116,0,1,4,16,6,1,0,0,1,0,1,0,0,0,hexagon,triangle,,,,,,,,,,,,,,,,,,,,,,,,,,,,,,,,,,,,,,,,,,,,,,,,,,,,,,
297244,2022-12-06_24h21.10.666,vts_reward_expectancy_bt,2022.2.4,Win32,59.88382538,Chrome,1500,1000,,,l,0.4125,10,126,0,1,5,17,3,1,0,1,0,0,1,0,0,0,circle,triangle,,,,,,,,,,,,,,,,,,,,,,,,,,,,,,,,,,,,,,,,,,,,,,,,,,,,,,
297244,2022-12-06_24h21.10.666,vts_reward_expectancy_bt,2022.2.4,Win32,59.88382538,Chrome,1500,1000,,,a,0.4789,10,136,0,1,6,18,1,1,1,0,0,0,0,0,1,0,triangle,hexagon,,,,,,,,,,,,,,,,,,,,,,,,,,,,,,,,,,,,,,,,,,,,,,,,,,,,,,
297244,2022-12-06_24h21.10.666,vts_reward_expectancy_bt,2022.2.4,Win32,59.88382538,Chrome,1500,1000,,,l,0.7963,1,137,0,1,7,19,8,1,0,0,1,0,0,0,0,1,hexagon,star,,,,,,,,,,,,,,,,,,,,,,,,,,,,,,,,,,,,,,,,,,,,,,,,,,,,,,
297244,2022-12-06_24h21.10.666,vts_reward_expectancy_bt,2022.2.4,Win32,59.88382538,Chrome,1500,1000,,,l,0.4963,1,138,0,1,8,20,0,1,1,0,0,0,0,1,0,0,triangle,circle,,,,,,,,,,,,,,,,,,,,,,,,,,,,,,,,,,,,,,,,,,,,,,,,,,,,,,
297244,2022-12-06_24h21.10.666,vts_reward_expectancy_bt,2022.2.4,Win32,59.88382538,Chrome,1500,1000,,,a,0.2682,10,148,0,1,9,21,7,1,0,0,1,0,0,1,0,0,hexagon,circle,,,,,,,,,,,,,,,,,,,,,,,,,,,,,,,,,,,,,,,,,,,,,,,,,,,,,,
297244,2022-12-06_24h21.10.666,vts_reward_expectancy_bt,2022.2.4,Win32,59.88382538,Chrome,1500,1000,,,a,0.3467,10,158,0,1,10,22,10,1,0,0,0,1,0,1,0,0,star ,circle,,,,,,,,,,,,,,,,,,,,,,,,,,,,,,,,,,,,,,,,,,,,,,,,,,,,,,
297244,2022-12-06_24h21.10.666,vts_reward_expectancy_bt,2022.2.4,Win32,59.88382538,Chrome,1500,1000,,,a,0.2005,1,159,0,1,11,23,5,1,0,1,0,0,0,0,0,1,circle,star,,,,,,,,,,,,,,,,,,,,,,,,,,,,,,,,,,,,,,,,,,,,,,,,,,,,,,
297244,2022-12-06_24h21.10.666,vts_reward_expectancy_bt,2022.2.4,Win32,59.88382538,Chrome,1500,1000,,,l,0.1747,1,160,0,2,0,24,10,1,0,0,0,1,0,1,0,0,star ,circle,,,,,,,,,,,,,,,,,,,,,,,,,,,,,,,,,,,,,,,,,,,,,,,,,,,,,,
297244,2022-12-06_24h21.10.666,vts_reward_expectancy_bt,2022.2.4,Win32,59.88382538,Chrome,1500,1000,,,l,0.3843,1,161,0,2,1,25,4,1,0,1,0,0,0,0,1,0,circle,hexagon,,,,,,,,,,,,,,,,,,,,,,,,,,,,,,,,,,,,,,,,,,,,,,,,,,,,,,
297244,2022-12-06_24h21.10.666,vts_reward_expectancy_bt,2022.2.4,Win32,59.88382538,Chrome,1500,1000,,,a,0.5748,10,171,0,2,2,26,6,1,0,0,1,0,1,0,0,0,hexagon,triangle,,,,,,,,,,,,,,,,,,,,,,,,,,,,,,,,,,,,,,,,,,,,,,,,,,,,,,
297244,2022-12-06_24h21.10.666,vts_reward_expectancy_bt,2022.2.4,Win32,59.88382538,Chrome,1500,1000,,,a,0.3521,10,181,0,2,3,27,2,1,1,0,0,0,0,0,0,1,triangle,star,,,,,,,,,,,,,,,,,,,,,,,,,,,,,,,,,,,,,,,,,,,,,,,,,,,,,,
297244,2022-12-06_24h21.10.666,vts_reward_expectancy_bt,2022.2.4,Win32,59.88382538,Chrome,1500,1000,,,a,0.3686,1,182,0,2,4,28,8,1,0,0,1,0,0,0,0,1,hexagon,star,,,,,,,,,,,,,,,,,,,,,,,,,,,,,,,,,,,,,,,,,,,,,,,,,,,,,,
297244,2022-12-06_24h21.10.666,vts_reward_expectancy_bt,2022.2.4,Win32,59.88382538,Chrome,1500,1000,,,l,0.1741,10,192,0,2,5,29,1,1,1,0,0,0,0,0,1,0,triangle,hexagon,,,,,,,,,,,,,,,,,,,,,,,,,,,,,,,,,,,,,,,,,,,,,,,,,,,,,,
297244,2022-12-06_24h21.10.666,vts_reward_expectancy_bt,2022.2.4,Win32,59.88382538,Chrome,1500,1000,,,l,0.546,10,202,0,2,6,30,9,1,0,0,0,1,1,0,0,0,star,triangle,,,,,,,,,,,,,,,,,,,,,,,,,,,,,,,,,,,,,,,,,,,,,,,,,,,,,,
297244,2022-12-06_24h21.10.666,vts_reward_expectancy_bt,2022.2.4,Win32,59.88382538,Chrome,1500,1000,,,l,0.3081,10,212,0,2,7,31,3,1,0,1,0,0,1,0,0,0,circle,triangle,,,,,,,,,,,,,,,,,,,,,,,,,,,,,,,,,,,,,,,,,,,,,,,,,,,,,,
297244,2022-12-06_24h21.10.666,vts_reward_expectancy_bt,2022.2.4,Win32,59.88382538,Chrome,1500,1000,,,a,0.5543,1,213,0,2,8,32,0,1,1,0,0,0,0,1,0,0,triangle,circle,,,,,,,,,,,,,,,,,,,,,,,,,,,,,,,,,,,,,,,,,,,,,,,,,,,,,,
297244,2022-12-06_24h21.10.666,vts_reward_expectancy_bt,2022.2.4,Win32,59.88382538,Chrome,1500,1000,,,l,0.602,10,223,0,2,9,33,7,1,0,0,1,0,0,1,0,0,hexagon,circle,,,,,,,,,,,,,,,,,,,,,,,,,,,,,,,,,,,,,,,,,,,,,,,,,,,,,,
297244,2022-12-06_24h21.10.666,vts_reward_expectancy_bt,2022.2.4,Win32,59.88382538,Chrome,1500,1000,,,l,0.3539,10,233,0,2,10,34,5,1,0,1,0,0,0,0,0,1,circle,star,,,,,,,,,,,,,,,,,,,,,,,,,,,,,,,,,,,,,,,,,,,,,,,,,,,,,,
297244,2022-12-06_24h21.10.666,vts_reward_expectancy_bt,2022.2.4,Win32,59.88382538,Chrome,1500,1000,,,l,0.6071,1,234,0,2,11,35,11,1,0,0,0,1,0,0,1,0,star,hexagon,,,,,,,,,,,,,,,,,,,,,,,,,,,,,,,,,,,,,,,,,,,,,,,,,,,,,,
297244,2022-12-06_24h21.10.666,vts_reward_expectancy_bt,2022.2.4,Win32,59.88382538,Chrome,1500,1000,,,a,1.215,10,244,1,0,0,0,3,1,0,1,0,0,1,0,0,0,circle,triangle,,,,,,,,,,,,,,,,,,,,,,,,,,,,,,,,,,,,,,,,,,,,,,,,,,,,,,
297244,2022-12-06_24h21.10.666,vts_reward_expectancy_bt,2022.2.4,Win32,59.88382538,Chrome,1500,1000,,,l,0.1948,1,245,1,0,1,1,0,1,1,0,0,0,0,1,0,0,triangle,circle,,,,,,,,,,,,,,,,,,,,,,,,,,,,,,,,,,,,,,,,,,,,,,,,,,,,,,
297244,2022-12-06_24h21.10.666,vts_reward_expectancy_bt,2022.2.4,Win32,59.88382538,Chrome,1500,1000,,,a,0.6134,1,246,1,0,2,2,10,1,0,0,0,1,0,1,0,0,star ,circle,,,,,,,,,,,,,,,,,,,,,,,,,,,,,,,,,,,,,,,,,,,,,,,,,,,,,,
297244,2022-12-06_24h21.10.666,vts_reward_expectancy_bt,2022.2.4,Win32,59.88382538,Chrome,1500,1000,,,l,0.4646,10,256,1,0,3,3,5,1,0,1,0,0,0,0,0,1,circle,star,,,,,,,,,,,,,,,,,,,,,,,,,,,,,,,,,,,,,,,,,,,,,,,,,,,,,,
297244,2022-12-06_24h21.10.666,vts_reward_expectancy_bt,2022.2.4,Win32,59.88382538,Chrome,1500,1000,,,a,0.4119,1,257,1,0,4,4,11,1,0,0,0,1,0,0,1,0,star,hexagon,,,,,,,,,,,,,,,,,,,,,,,,,,,,,,,,,,,,,,,,,,,,,,,,,,,,,,
297244,2022-12-06_24h21.10.666,vts_reward_expectancy_bt,2022.2.4,Win32,59.88382538,Chrome,1500,1000,,,l,0.1816,1,258,1,0,5,5,9,1,0,0,0,1,1,0,0,0,star,triangle,,,,,,,,,,,,,,,,,,,,,,,,,,,,,,,,,,,,,,,,,,,,,,,,,,,,,,
297244,2022-12-06_24h21.10.666,vts_reward_expectancy_bt,2022.2.4,Win32,59.88382538,Chrome,1500,1000,,,l,0.4012,1,259,1,0,6,6,2,1,1,0,0,0,0,0,0,1,triangle,star,,,,,,,,,,,,,,,,,,,,,,,,,,,,,,,,,,,,,,,,,,,,,,,,,,,,,,
297244,2022-12-06_24h21.10.666,vts_reward_expectancy_bt,2022.2.4,Win32,59.88382538,Chrome,1500,1000,,,l,0.3504,1,260,1,0,7,7,7,1,0,0,1,0,0,1,0,0,hexagon,circle,,,,,,,,,,,,,,,,,,,,,,,,,,,,,,,,,,,,,,,,,,,,,,,,,,,,,,
297244,2022-12-06_24h21.10.666,vts_reward_expectancy_bt,2022.2.4,Win32,59.88382538,Chrome,1500,1000,,,a,0.0505,1,261,1,0,8,8,1,1,1,0,0,0,0,0,1,0,triangle,hexagon,,,,,,,,,,,,,,,,,,,,,,,,,,,,,,,,,,,,,,,,,,,,,,,,,,,,,,
297244,2022-12-06_24h21.10.666,vts_reward_expectancy_bt,2022.2.4,Win32,59.88382538,Chrome,1500,1000,,,l,0.5519,10,271,1,0,9,9,6,1,0,0,1,0,1,0,0,0,hexagon,triangle,,,,,,,,,,,,,,,,,,,,,,,,,,,,,,,,,,,,,,,,,,,,,,,,,,,,,,
297244,2022-12-06_24h21.10.666,vts_reward_expectancy_bt,2022.2.4,Win32,59.88382538,Chrome,1500,1000,,,a,0.3324,10,281,1,0,10,10,8,1,0,0,1,0,0,0,0,1,hexagon,star,,,,,,,,,,,,,,,,,,,,,,,,,,,,,,,,,,,,,,,,,,,,,,,,,,,,,,
297244,2022-12-06_24h21.10.666,vts_reward_expectancy_bt,2022.2.4,Win32,59.88382538,Chrome,1500,1000,,,a,0.1756,1,282,1,0,11,11,4,1,0,1,0,0,0,0,1,0,circle,hexagon,,,,,,,,,,,,,,,,,,,,,,,,,,,,,,,,,,,,,,,,,,,,,,,,,,,,,,
297244,2022-12-06_24h21.10.666,vts_reward_expectancy_bt,2022.2.4,Win32,59.88382538,Chrome,1500,1000,,,l,0.2736,10,292,1,1,0,12,10,1,0,0,0,1,0,1,0,0,star ,circle,,,,,,,,,,,,,,,,,,,,,,,,,,,,,,,,,,,,,,,,,,,,,,,,,,,,,,
297244,2022-12-06_24h21.10.666,vts_reward_expectancy_bt,2022.2.4,Win32,59.88382538,Chrome,1500,1000,,,l,0.3173,10,302,1,1,1,13,7,1,0,0,1,0,0,1,0,0,hexagon,circle,,,,,,,,,,,,,,,,,,,,,,,,,,,,,,,,,,,,,,,,,,,,,,,,,,,,,,
297244,2022-12-06_24h21.10.666,vts_reward_expectancy_bt,2022.2.4,Win32,59.88382538,Chrome,1500,1000,,,l,0.0004,10,312,1,1,2,14,11,1,0,0,0,1,0,0,1,0,star,hexagon,,,,,,,,,,,,,,,,,,,,,,,,,,,,,,,,,,,,,,,,,,,,,,,,,,,,,,
297244,2022-12-06_24h21.10.666,vts_reward_expectancy_bt,2022.2.4,Win32,59.88382538,Chrome,1500,1000,,,l,0.4394,1,313,1,1,3,15,9,1,0,0,0,1,1,0,0,0,star,triangle,,,,,,,,,,,,,,,,,,,,,,,,,,,,,,,,,,,,,,,,,,,,,,,,,,,,,,
297244,2022-12-06_24h21.10.666,vts_reward_expectancy_bt,2022.2.4,Win32,59.88382538,Chrome,1500,1000,,,a,0.3705,10,323,1,1,4,16,1,1,1,0,0,0,0,0,1,0,triangle,hexagon,,,,,,,,,,,,,,,,,,,,,,,,,,,,,,,,,,,,,,,,,,,,,,,,,,,,,,
297244,2022-12-06_24h21.10.666,vts_reward_expectancy_bt,2022.2.4,Win32,59.88382538,Chrome,1500,1000,,,a,0.285,10,333,1,1,5,17,8,1,0,0,1,0,0,0,0,1,hexagon,star,,,,,,,,,,,,,,,,,,,,,,,,,,,,,,,,,,,,,,,,,,,,,,,,,,,,,,
297244,2022-12-06_24h21.10.666,vts_reward_expectancy_bt,2022.2.4,Win32,59.88382538,Chrome,1500,1000,,,a,0.3526,10,343,1,1,6,18,4,1,0,1,0,0,0,0,1,0,circle,hexagon,,,,,,,,,,,,,,,,,,,,,,,,,,,,,,,,,,,,,,,,,,,,,,,,,,,,,,
297244,2022-12-06_24h21.10.666,vts_reward_expectancy_bt,2022.2.4,Win32,59.88382538,Chrome,1500,1000,,,a,0.2844,1,344,1,1,7,19,3,1,0,1,0,0,1,0,0,0,circle,triangle,,,,,,,,,,,,,,,,,,,,,,,,,,,,,,,,,,,,,,,,,,,,,,,,,,,,,,
297244,2022-12-06_24h21.10.666,vts_reward_expectancy_bt,2022.2.4,Win32,59.88382538,Chrome,1500,1000,,,a,0.4288,1,345,1,1,8,20,5,1,0,1,0,0,0,0,0,1,circle,star,,,,,,,,,,,,,,,,,,,,,,,,,,,,,,,,,,,,,,,,,,,,,,,,,,,,,,
297244,2022-12-06_24h21.10.666,vts_reward_expectancy_bt,2022.2.4,Win32,59.88382538,Chrome,1500,1000,,,a,0.317,10,355,1,1,9,21,6,1,0,0,1,0,1,0,0,0,hexagon,triangle,,,,,,,,,,,,,,,,,,,,,,,,,,,,,,,,,,,,,,,,,,,,,,,,,,,,,,
297244,2022-12-06_24h21.10.666,vts_reward_expectancy_bt,2022.2.4,Win32,59.88382538,Chrome,1500,1000,,,l,0.4743,1,356,1,1,10,22,0,1,1,0,0,0,0,1,0,0,triangle,circle,,,,,,,,,,,,,,,,,,,,,,,,,,,,,,,,,,,,,,,,,,,,,,,,,,,,,,
297244,2022-12-06_24h21.10.666,vts_reward_expectancy_bt,2022.2.4,Win32,59.88382538,Chrome,1500,1000,,,l,0.0011,10,366,1,1,11,23,2,1,1,0,0,0,0,0,0,1,triangle,star,,,,,,,,,,,,,,,,,,,,,,,,,,,,,,,,,,,,,,,,,,,,,,,,,,,,,,
297244,2022-12-06_24h21.10.666,vts_reward_expectancy_bt,2022.2.4,Win32,59.88382538,Chrome,1500,1000,,,l,0.0902,1,367,1,2,0,24,5,1,0,1,0,0,0,0,0,1,circle,star,,,,,,,,,,,,,,,,,,,,,,,,,,,,,,,,,,,,,,,,,,,,,,,,,,,,,,
297244,2022-12-06_24h21.10.666,vts_reward_expectancy_bt,2022.2.4,Win32,59.88382538,Chrome,1500,1000,,,a,0.5253,10,377,1,2,1,25,6,1,0,0,1,0,1,0,0,0,hexagon,triangle,,,,,,,,,,,,,,,,,,,,,,,,,,,,,,,,,,,,,,,,,,,,,,,,,,,,,,
297244,2022-12-06_24h21.10.666,vts_reward_expectancy_bt,2022.2.4,Win32,59.88382538,Chrome,1500,1000,,,a,0.1756,10,387,1,2,2,26,8,1,0,0,1,0,0,0,0,1,hexagon,star,,,,,,,,,,,,,,,,,,,,,,,,,,,,,,,,,,,,,,,,,,,,,,,,,,,,,,
297244,2022-12-06_24h21.10.666,vts_reward_expectancy_bt,2022.2.4,Win32,59.88382538,Chrome,1500,1000,,,l,0.3581,10,397,1,2,3,27,9,1,0,0,0,1,1,0,0,0,star,triangle,,,,,,,,,,,,,,,,,,,,,,,,,,,,,,,,,,,,,,,,,,,,,,,,,,,,,,
297244,2022-12-06_24h21.10.666,vts_reward_expectancy_bt,2022.2.4,Win32,59.88382538,Chrome,1500,1000,,,a,0.751,1,398,1,2,4,28,7,1,0,0,1,0,0,1,0,0,hexagon,circle,,,,,,,,,,,,,,,,,,,,,,,,,,,,,,,,,,,,,,,,,,,,,,,,,,,,,,
297244,2022-12-06_24h21.10.666,vts_reward_expectancy_bt,2022.2.4,Win32,59.88382538,Chrome,1500,1000,,,l,0.3483,1,399,1,2,5,29,1,1,1,0,0,0,0,0,1,0,triangle,hexagon,,,,,,,,,,,,,,,,,,,,,,,,,,,,,,,,,,,,,,,,,,,,,,,,,,,,,,
297244,2022-12-06_24h21.10.666,vts_reward_expectancy_bt,2022.2.4,Win32,59.88382538,Chrome,1500,1000,,,a,0.4007,1,400,1,2,6,30,4,1,0,1,0,0,0,0,1,0,circle,hexagon,,,,,,,,,,,,,,,,,,,,,,,,,,,,,,,,,,,,,,,,,,,,,,,,,,,,,,
297244,2022-12-06_24h21.10.666,vts_reward_expectancy_bt,2022.2.4,Win32,59.88382538,Chrome,1500,1000,,,a,0.933,1,401,1,2,7,31,0,1,1,0,0,0,0,1,0,0,triangle,circle,,,,,,,,,,,,,,,,,,,,,,,,,,,,,,,,,,,,,,,,,,,,,,,,,,,,,,
297244,2022-12-06_24h21.10.666,vts_reward_expectancy_bt,2022.2.4,Win32,59.88382538,Chrome,1500,1000,,,l,0.5149,1,402,1,2,8,32,11,1,0,0,0,1,0,0,1,0,star,hexagon,,,,,,,,,,,,,,,,,,,,,,,,,,,,,,,,,,,,,,,,,,,,,,,,,,,,,,
297244,2022-12-06_24h21.10.666,vts_reward_expectancy_bt,2022.2.4,Win32,59.88382538,Chrome,1500,1000,,,l,0.0182,1,403,1,2,9,33,2,1,1,0,0,0,0,0,0,1,triangle,star,,,,,,,,,,,,,,,,,,,,,,,,,,,,,,,,,,,,,,,,,,,,,,,,,,,,,,
297244,2022-12-06_24h21.10.666,vts_reward_expectancy_bt,2022.2.4,Win32,59.88382538,Chrome,1500,1000,,,l,0.4178,10,413,1,2,10,34,10,1,0,0,0,1,0,1,0,0,star ,circle,,,,,,,,,,,,,,,,,,,,,,,,,,,,,,,,,,,,,,,,,,,,,,,,,,,,,,
297244,2022-12-06_24h21.10.666,vts_reward_expectancy_bt,2022.2.4,Win32,59.88382538,Chrome,1500,1000,,,l,0.0987,1,414,1,2,11,35,3,1,0,1,0,0,1,0,0,0,circle,triangle,,,,,,,,,,,,,,,,,,,,,,,,,,,,,,,,,,,,,,,,,,,,,,,,,,,,,,
297244,2022-12-06_24h21.10.666,vts_reward_expectancy_bt,2022.2.4,Win32,59.88382538,Chrome,1500,1000,,,a,1.0508,1,415,2,0,0,0,10,1,0,0,0,1,0,1,0,0,star ,circle,,,,,,,,,,,,,,,,,,,,,,,,,,,,,,,,,,,,,,,,,,,,,,,,,,,,,,
297244,2022-12-06_24h21.10.666,vts_reward_expectancy_bt,2022.2.4,Win32,59.88382538,Chrome,1500,1000,,,l,0.4644,1,416,2,0,1,1,5,1,0,1,0,0,0,0,0,1,circle,star,,,,,,,,,,,,,,,,,,,,,,,,,,,,,,,,,,,,,,,,,,,,,,,,,,,,,,
297244,2022-12-06_24h21.10.666,vts_reward_expectancy_bt,2022.2.4,Win32,59.88382538,Chrome,1500,1000,,,l,0.0011,10,426,2,0,2,2,9,1,0,0,0,1,1,0,0,0,star,triangle,,,,,,,,,,,,,,,,,,,,,,,,,,,,,,,,,,,,,,,,,,,,,,,,,,,,,,
297244,2022-12-06_24h21.10.666,vts_reward_expectancy_bt,2022.2.4,Win32,59.88382538,Chrome,1500,1000,,,l,0.4024,1,427,2,0,3,3,0,1,1,0,0,0,0,1,0,0,triangle,circle,,,,,,,,,,,,,,,,,,,,,,,,,,,,,,,,,,,,,,,,,,,,,,,,,,,,,,
297244,2022-12-06_24h21.10.666,vts_reward_expectancy_bt,2022.2.4,Win32,59.88382538,Chrome,1500,1000,,,a,0.4305,1,428,2,0,4,4,11,1,0,0,0,1,0,0,1,0,star,hexagon,,,,,,,,,,,,,,,,,,,,,,,,,,,,,,,,,,,,,,,,,,,,,,,,,,,,,,
297244,2022-12-06_24h21.10.666,vts_reward_expectancy_bt,2022.2.4,Win32,59.88382538,Chrome,1500,1000,,,l,0.3322,1,429,2,0,5,5,2,1,1,0,0,0,0,0,0,1,triangle,star,,,,,,,,,,,,,,,,,,,,,,,,,,,,,,,,,,,,,,,,,,,,,,,,,,,,,,
297244,2022-12-06_24h21.10.666,vts_reward_expectancy_bt,2022.2.4,Win32,59.88382538,Chrome,1500,1000,,,l,0.4291,10,439,2,0,6,6,3,1,0,1,0,0,1,0,0,0,circle,triangle,,,,,,,,,,,,,,,,,,,,,,,,,,,,,,,,,,,,,,,,,,,,,,,,,,,,,,
297244,2022-12-06_24h21.10.666,vts_reward_expectancy_bt,2022.2.4,Win32,59.88382538,Chrome,1500,1000,,,l,0.4279,10,449,2,0,7,7,6,1,0,0,1,0,1,0,0,0,hexagon,triangle,,,,,,,,,,,,,,,,,,,,,,,,,,,,,,,,,,,,,,,,,,,,,,,,,,,,,,
297244,2022-12-06_24h21.10.666,vts_reward_expectancy_bt,2022.2.4,Win32,59.88382538,Chrome,1500,1000,,,a,0.4012,1,450,2,0,8,8,1,1,1,0,0,0,0,0,1,0,triangle,hexagon,,,,,,,,,,,,,,,,,,,,,,,,,,,,,,,,,,,,,,,,,,,,,,,,,,,,,,
297244,2022-12-06_24h21.10.666,vts_reward_expectancy_bt,2022.2.4,Win32,59.88382538,Chrome,1500,1000,,,a,0.3309,1,451,2,0,9,9,4,1,0,1,0,0,0,0,1,0,circle,hexagon,,,,,,,,,,,,,,,,,,,,,,,,,,,,,,,,,,,,,,,,,,,,,,,,,,,,,,
297244,2022-12-06_24h21.10.666,vts_reward_expectancy_bt,2022.2.4,Win32,59.88382538,Chrome,1500,1000,,,a,0.4018,10,461,2,0,10,10,8,1,0,0,1,0,0,0,0,1,hexagon,star,,,,,,,,,,,,,,,,,,,,,,,,,,,,,,,,,,,,,,,,,,,,,,,,,,,,,,
297244,2022-12-06_24h21.10.666,vts_reward_expectancy_bt,2022.2.4,Win32,59.88382538,Chrome,1500,1000,,,a,0.5454,1,462,2,0,11,11,7,1,0,0,1,0,0,1,0,0,hexagon,circle,,,,,,,,,,,,,,,,,,,,,,,,,,,,,,,,,,,,,,,,,,,,,,,,,,,,,,
297244,2022-12-06_24h21.10.666,vts_reward_expectancy_bt,2022.2.4,Win32,59.88382538,Chrome,1500,1000,,,l,0.586,1,463,2,1,0,12,5,1,0,1,0,0,0,0,0,1,circle,star,,,,,,,,,,,,,,,,,,,,,,,,,,,,,,,,,,,,,,,,,,,,,,,,,,,,,,
297244,2022-12-06_24h21.10.666,vts_reward_expectancy_bt,2022.2.4,Win32,59.88382538,Chrome,1500,1000,,,l,0.3126,10,473,2,1,1,13,11,1,0,0,0,1,0,0,1,0,star,hexagon,,,,,,,,,,,,,,,,,,,,,,,,,,,,,,,,,,,,,,,,,,,,,,,,,,,,,,
297244,2022-12-06_24h21.10.666,vts_reward_expectancy_bt,2022.2.4,Win32,59.88382538,Chrome,1500,1000,,,a,0.9619,10,483,2,1,2,14,8,1,0,0,1,0,0,0,0,1,hexagon,star,,,,,,,,,,,,,,,,,,,,,,,,,,,,,,,,,,,,,,,,,,,,,,,,,,,,,,
297244,2022-12-06_24h21.10.666,vts_reward_expectancy_bt,2022.2.4,Win32,59.88382538,Chrome,1500,1000,,,l,0.5641,1,484,2,1,3,15,3,1,0,1,0,0,1,0,0,0,circle,triangle,,,,,,,,,,,,,,,,,,,,,,,,,,,,,,,,,,,,,,,,,,,,,,,,,,,,,,
297244,2022-12-06_24h21.10.666,vts_reward_expectancy_bt,2022.2.4,Win32,59.88382538,Chrome,1500,1000,,,l,0.5847,10,494,2,1,4,16,0,1,1,0,0,0,0,1,0,0,triangle,circle,,,,,,,,,,,,,,,,,,,,,,,,,,,,,,,,,,,,,,,,,,,,,,,,,,,,,,
297244,2022-12-06_24h21.10.666,vts_reward_expectancy_bt,2022.2.4,Win32,59.88382538,Chrome,1500,1000,,,l,0.5335,10,504,2,1,5,17,6,1,0,0,1,0,1,0,0,0,hexagon,triangle,,,,,,,,,,,,,,,,,,,,,,,,,,,,,,,,,,,,,,,,,,,,,,,,,,,,,,
297244,2022-12-06_24h21.10.666,vts_reward_expectancy_bt,2022.2.4,Win32,59.88382538,Chrome,1500,1000,,,l,0.5807,1,505,2,1,6,18,4,1,0,1,0,0,0,0,1,0,circle,hexagon,,,,,,,,,,,,,,,,,,,,,,,,,,,,,,,,,,,,,,,,,,,,,,,,,,,,,,
297244,2022-12-06_24h21.10.666,vts_reward_expectancy_bt,2022.2.4,Win32,59.88382538,Chrome,1500,1000,,,a,0.3036,10,515,2,1,7,19,7,1,0,0,1,0,0,1,0,0,hexagon,circle,,,,,,,,,,,,,,,,,,,,,,,,,,,,,,,,,,,,,,,,,,,,,,,,,,,,,,
297244,2022-12-06_24h21.10.666,vts_reward_expectancy_bt,2022.2.4,Win32,59.88382538,Chrome,1500,1000,,,a,0.4797,10,525,2,1,8,20,10,1,0,0,0,1,0,1,0,0,star ,circle,,,,,,,,,,,,,,,,,,,,,,,,,,,,,,,,,,,,,,,,,,,,,,,,,,,,,,
297244,2022-12-06_24h21.10.666,vts_reward_expectancy_bt,2022.2.4,Win32,59.88382538,Chrome,1500,1000,,,a,0.0383,10,535,2,1,9,21,1,1,1,0,0,0,0,0,1,0,triangle,hexagon,,,,,,,,,,,,,,,,,,,,,,,,,,,,,,,,,,,,,,,,,,,,,,,,,,,,,,
297244,2022-12-06_24h21.10.666,vts_reward_expectancy_bt,2022.2.4,Win32,59.88382538,Chrome,1500,1000,,,a,0.6875,10,545,2,1,10,22,2,1,1,0,0,0,0,0,0,1,triangle,star,,,,,,,,,,,,,,,,,,,,,,,,,,,,,,,,,,,,,,,,,,,,,,,,,,,,,,
297244,2022-12-06_24h21.10.666,vts_reward_expectancy_bt,2022.2.4,Win32,59.88382538,Chrome,1500,1000,,,l,0.9216,10,555,2,1,11,23,9,1,0,0,0,1,1,0,0,0,star,triangle,,,,,,,,,,,,,,,,,,,,,,,,,,,,,,,,,,,,,,,,,,,,,,,,,,,,,,
297244,2022-12-06_24h21.10.666,vts_reward_expectancy_bt,2022.2.4,Win32,59.88382538,Chrome,1500,1000,,,a,0.4677,10,565,2,2,0,24,11,1,0,0,0,1,0,0,1,0,star,hexagon,,,,,,,,,,,,,,,,,,,,,,,,,,,,,,,,,,,,,,,,,,,,,,,,,,,,,,
297244,2022-12-06_24h21.10.666,vts_reward_expectancy_bt,2022.2.4,Win32,59.88382538,Chrome,1500,1000,,,l,0.3796,1,566,2,2,1,25,4,1,0,1,0,0,0,0,1,0,circle,hexagon,,,,,,,,,,,,,,,,,,,,,,,,,,,,,,,,,,,,,,,,,,,,,,,,,,,,,,
297244,2022-12-06_24h21.10.666,vts_reward_expectancy_bt,2022.2.4,Win32,59.88382538,Chrome,1500,1000,,,l,0.3685,10,576,2,2,2,26,5,1,0,1,0,0,0,0,0,1,circle,star,,,,,,,,,,,,,,,,,,,,,,,,,,,,,,,,,,,,,,,,,,,,,,,,,,,,,,
297244,2022-12-06_24h21.10.666,vts_reward_expectancy_bt,2022.2.4,Win32,59.88382538,Chrome,1500,1000,,,a,0.0038,1,577,2,2,3,27,0,1,1,0,0,0,0,1,0,0,triangle,circle,,,,,,,,,,,,,,,,,,,,,,,,,,,,,,,,,,,,,,,,,,,,,,,,,,,,,,
297244,2022-12-06_24h21.10.666,vts_reward_expectancy_bt,2022.2.4,Win32,59.88382538,Chrome,1500,1000,,,l,0.1335,1,578,2,2,4,28,10,1,0,0,0,1,0,1,0,0,star ,circle,,,,,,,,,,,,,,,,,,,,,,,,,,,,,,,,,,,,,,,,,,,,,,,,,,,,,,
297244,2022-12-06_24h21.10.666,vts_reward_expectancy_bt,2022.2.4,Win32,59.88382538,Chrome,1500,1000,,,l,0.346,1,579,2,2,5,29,6,1,0,0,1,0,1,0,0,0,hexagon,triangle,,,,,,,,,,,,,,,,,,,,,,,,,,,,,,,,,,,,,,,,,,,,,,,,,,,,,,
297244,2022-12-06_24h21.10.666,vts_reward_expectancy_bt,2022.2.4,Win32,59.88382538,Chrome,1500,1000,,,l,0.4301,10,589,2,2,6,30,9,1,0,0,0,1,1,0,0,0,star,triangle,,,,,,,,,,,,,,,,,,,,,,,,,,,,,,,,,,,,,,,,,,,,,,,,,,,,,,
297244,2022-12-06_24h21.10.666,vts_reward_expectancy_bt,2022.2.4,Win32,59.88382538,Chrome,1500,1000,,,l,2.0457,10,599,2,2,7,31,3,1,0,1,0,0,1,0,0,0,circle,triangle,,,,,,,,,,,,,,,,,,,,,,,,,,,,,,,,,,,,,,,,,,,,,,,,,,,,,,
297244,2022-12-06_24h21.10.666,vts_reward_expectancy_bt,2022.2.4,Win32,59.88382538,Chrome,1500,1000,,,a,1.3781,10,609,2,2,8,32,1,1,1,0,0,0,0,0,1,0,triangle,hexagon,,,,,,,,,,,,,,,,,,,,,,,,,,,,,,,,,,,,,,,,,,,,,,,,,,,,,,
297244,2022-12-06_24h21.10.666,vts_reward_expectancy_bt,2022.2.4,Win32,59.88382538,Chrome,1500,1000,,,a,0.3511,1,610,2,2,9,33,8,1,0,0,1,0,0,0,0,1,hexagon,star,,,,,,,,,,,,,,,,,,,,,,,,,,,,,,,,,,,,,,,,,,,,,,,,,,,,,,
297244,2022-12-06_24h21.10.666,vts_reward_expectancy_bt,2022.2.4,Win32,59.88382538,Chrome,1500,1000,,,a,0.3898,10,620,2,2,10,34,2,1,1,0,0,0,0,0,0,1,triangle,star,,,,,,,,,,,,,,,,,,,,,,,,,,,,,,,,,,,,,,,,,,,,,,,,,,,,,,
297244,2022-12-06_24h21.10.666,vts_reward_expectancy_bt,2022.2.4,Win32,59.88382538,Chrome,1500,1000,,,l,0.208,10,630,2,2,11,35,7,1,0,0,1,0,0,1,0,0,hexagon,circle,,,,,,,,,,,,,,,,,,,,,,,,,,,,,,,,,,,,,,,,,,,,,,,,,,,,,,
297244,2022-12-06_24h21.10.666,vts_reward_expectancy_bt,2022.2.4,Win32,59.88382538,Chrome,1500,1000,,,,,,,,,,,,,,,,,,,,,,,Y,139,hexagon,1,0,f,1.32,0,0,0,0,0,1,,,,,,,,,,,,,,,,,,,,,,,,,,,,,,,,,,,,,,,,,
297244,2022-12-06_24h21.10.666,vts_reward_expectancy_bt,2022.2.4,Win32,59.88382538,Chrome,1500,1000,,,,,,,,,,,,,,,,,,,,,,,B,132,star,1,0,d,0.6463,0,1,0,1,0,1,,,,,,,,,,,,,,,,,,,,,,,,,,,,,,,,,,,,,,,,,
297244,2022-12-06_24h21.10.666,vts_reward_expectancy_bt,2022.2.4,Win32,59.88382538,Chrome,1500,1000,,,,,,,,,,,,,,,,,,,,,,,F,167,circle,0,0,f,0.8932,0,2,0,2,0,1,,,,,,,,,,,,,,,,,,,,,,,,,,,,,,,,,,,,,,,,,
297244,2022-12-06_24h21.10.666,vts_reward_expectancy_bt,2022.2.4,Win32,59.88382538,Chrome,1500,1000,,,,,,,,,,,,,,,,,,,,,,,S,146,triangle,0,1,d,0.8105,0,3,0,3,0,1,,,,,,,,,,,,,,,,,,,,,,,,,,,,,,,,,,,,,,,,,
297244,2022-12-06_24h21.10.666,vts_reward_expectancy_bt,2022.2.4,Win32,59.88382538,Chrome,1500,1000,,,,,,,,,,,,,,,,,,,,,,,H,174,hexagon,1,1,d,0.7175,0,4,0,4,0,1,,,,,,,,,,,,,,,,,,,,,,,,,,,,,,,,,,,,,,,,,
297244,2022-12-06_24h21.10.666,vts_reward_expectancy_bt,2022.2.4,Win32,59.88382538,Chrome,1500,1000,,,,,,,,,,,,,,,,,,,,,,,W,181,star,1,0,f,0.7234,0,5,0,5,0,1,,,,,,,,,,,,,,,,,,,,,,,,,,,,,,,,,,,,,,,,,
297244,2022-12-06_24h21.10.666,vts_reward_expectancy_bt,2022.2.4,Win32,59.88382538,Chrome,1500,1000,,,,,,,,,,,,,,,,,,,,,,,D,125,circle,1,0,d,0.5773,0,6,0,6,0,1,,,,,,,,,,,,,,,,,,,,,,,,,,,,,,,,,,,,,,,,,
297244,2022-12-06_24h21.10.666,vts_reward_expectancy_bt,2022.2.4,Win32,59.88382538,Chrome,1500,1000,,,,,,,,,,,,,,,,,,,,,,,U,160,triangle,1,0,f,1.8787,0,7,0,7,0,1,,,,,,,,,,,,,,,,,,,,,,,,,,,,,,,,,,,,,,,,,
297244,2022-12-06_24h21.10.666,vts_reward_expectancy_bt,2022.2.4,Win32,59.88382538,Chrome,1500,1000,,,,,,,,,,,,,,,,,,,,,,,Y,139,triangle,1,0,f,0.7401,0,8,0,8,0,1,,,,,,,,,,,,,,,,,,,,,,,,,,,,,,,,,,,,,,,,,
297244,2022-12-06_24h21.10.666,vts_reward_expectancy_bt,2022.2.4,Win32,59.88382538,Chrome,1500,1000,,,,,,,,,,,,,,,,,,,,,,,B,132,circle,0,0,f,0.5545,0,9,0,9,0,1,,,,,,,,,,,,,,,,,,,,,,,,,,,,,,,,,,,,,,,,,
297244,2022-12-06_24h21.10.666,vts_reward_expectancy_bt,2022.2.4,Win32,59.88382538,Chrome,1500,1000,,,,,,,,,,,,,,,,,,,,,,,W,160,triangle,1,1,f,0.7371,1,0,0,0,0,1,,,,,,,,,,,,,,,,,,,,,,,,,,,,,,,,,,,,,,,,,
297244,2022-12-06_24h21.10.666,vts_reward_expectancy_bt,2022.2.4,Win32,59.88382538,Chrome,1500,1000,,,,,,,,,,,,,,,,,,,,,,,F,132,star,1,0,d,1.2807,1,1,0,1,0,1,,,,,,,,,,,,,,,,,,,,,,,,,,,,,,,,,,,,,,,,,
297244,2022-12-06_24h21.10.666,vts_reward_expectancy_bt,2022.2.4,Win32,59.88382538,Chrome,1500,1000,,,,,,,,,,,,,,,,,,,,,,,B,146,circle,1,0,d,0.5974,1,2,0,2,0,1,,,,,,,,,,,,,,,,,,,,,,,,,,,,,,,,,,,,,,,,,
297244,2022-12-06_24h21.10.666,vts_reward_expectancy_bt,2022.2.4,Win32,59.88382538,Chrome,1500,1000,,,,,,,,,,,,,,,,,,,,,,,U,139,hexagon,1,0,f,0.7951,1,3,0,3,0,1,,,,,,,,,,,,,,,,,,,,,,,,,,,,,,,,,,,,,,,,,
297244,2022-12-06_24h21.10.666,vts_reward_expectancy_bt,2022.2.4,Win32,59.88382538,Chrome,1500,1000,,,,,,,,,,,,,,,,,,,,,,,H,125,triangle,1,0,d,0.9948,1,4,0,4,0,1,,,,,,,,,,,,,,,,,,,,,,,,,,,,,,,,,,,,,,,,,
297244,2022-12-06_24h21.10.666,vts_reward_expectancy_bt,2022.2.4,Win32,59.88382538,Chrome,1500,1000,,,,,,,,,,,,,,,,,,,,,,,D,174,star,1,0,d,0.7177,1,5,0,5,0,1,,,,,,,,,,,,,,,,,,,,,,,,,,,,,,,,,,,,,,,,,
297244,2022-12-06_24h21.10.666,vts_reward_expectancy_bt,2022.2.4,Win32,59.88382538,Chrome,1500,1000,,,,,,,,,,,,,,,,,,,,,,,Y,181,circle,1,0,f,0.8135,1,6,0,6,0,1,,,,,,,,,,,,,,,,,,,,,,,,,,,,,,,,,,,,,,,,,
297244,2022-12-06_24h21.10.666,vts_reward_expectancy_bt,2022.2.4,Win32,59.88382538,Chrome,1500,1000,,,,,,,,,,,,,,,,,,,,,,,S,167,hexagon,1,0,f,2.4835,1,7,0,7,0,1,,,,,,,,,,,,,,,,,,,,,,,,,,,,,,,,,,,,,,,,,
297244,2022-12-06_24h21.10.666,vts_reward_expectancy_bt,2022.2.4,Win32,59.88382538,Chrome,1500,1000,,,,,,,,,,,,,,,,,,,,,,,W,160,circle,1,0,f,1.6216,1,8,0,8,0,1,,,,,,,,,,,,,,,,,,,,,,,,,,,,,,,,,,,,,,,,,
297244,2022-12-06_24h21.10.666,vts_reward_expectancy_bt,2022.2.4,Win32,59.88382538,Chrome,1500,1000,,,,,,,,,,,,,,,,,,,,,,,F,132,triangle,1,0,d,1.0733,1,9,0,9,0,1,,,,,,,,,,,,,,,,,,,,,,,,,,,,,,,,,,,,,,,,,
297244,2022-12-06_24h21.10.666,vts_reward_expectancy_bt,2022.2.4,Win32,59.88382538,Chrome,1500,1000,,,,,,,,,,,,,,,,,,,,,,,B,167,triangle,1,0,,,2,,,,,,k,0.7134,0,0,0,0,1,,,,,,,,,,,,,,,,,,,,,,,,,,,,,,,,,,
297244,2022-12-06_24h21.10.666,vts_reward_expectancy_bt,2022.2.4,Win32,59.88382538,Chrome,1500,1000,,,,,,,,,,,,,,,,,,,,,,,W,139,circle,1,0,,,2,,,,,,j,0.7634,1,0,1,0,1,,,,,,,,,,,,,,,,,,,,,,,,,,,,,,,,,,
297244,2022-12-06_24h21.10.666,vts_reward_expectancy_bt,2022.2.4,Win32,59.88382538,Chrome,1500,1000,,,,,,,,,,,,,,,,,,,,,,,D,146,hexagon,1,0,,,2,,,,,,j,1.1178,2,0,2,0,1,,,,,,,,,,,,,,,,,,,,,,,,,,,,,,,,,,
297244,2022-12-06_24h21.10.666,vts_reward_expectancy_bt,2022.2.4,Win32,59.88382538,Chrome,1500,1000,,,,,,,,,,,,,,,,,,,,,,,H,160,star,1,0,,,2,,,,,,k,0.8096,3,0,3,0,1,,,,,,,,,,,,,,,,,,,,,,,,,,,,,,,,,,
297244,2022-12-06_24h21.10.666,vts_reward_expectancy_bt,2022.2.4,Win32,59.88382538,Chrome,1500,1000,,,,,,,,,,,,,,,,,,,,,,,S,181,triangle,1,0,,,2,,,,,,k,0.5664,4,0,4,0,1,,,,,,,,,,,,,,,,,,,,,,,,,,,,,,,,,,
297244,2022-12-06_24h21.10.666,vts_reward_expectancy_bt,2022.2.4,Win32,59.88382538,Chrome,1500,1000,,,,,,,,,,,,,,,,,,,,,,,U,125,circle,1,0,,,2,,,,,,j,0.9572,5,0,5,0,1,,,,,,,,,,,,,,,,,,,,,,,,,,,,,,,,,,
297244,2022-12-06_24h21.10.666,vts_reward_expectancy_bt,2022.2.4,Win32,59.88382538,Chrome,1500,1000,,,,,,,,,,,,,,,,,,,,,,,F,132,hexagon,1,0,,,2,,,,,,j,1.0317,6,0,6,0,1,,,,,,,,,,,,,,,,,,,,,,,,,,,,,,,,,,
297244,2022-12-06_24h21.10.666,vts_reward_expectancy_bt,2022.2.4,Win32,59.88382538,Chrome,1500,1000,,,,,,,,,,,,,,,,,,,,,,,Y,174,star,1,0,,,2,,,,,,k,0.8787,7,0,7,0,1,,,,,,,,,,,,,,,,,,,,,,,,,,,,,,,,,,
297244,2022-12-06_24h21.10.666,vts_reward_expectancy_bt,2022.2.4,Win32,59.88382538,Chrome,1500,1000,,,,,,,,,,,,,,,,,,,,,,,B,167,triangle,1,0,,,2,,,,,,k,1.2303,8,0,8,0,1,,,,,,,,,,,,,,,,,,,,,,,,,,,,,,,,,,
297244,2022-12-06_24h21.10.666,vts_reward_expectancy_bt,2022.2.4,Win32,59.88382538,Chrome,1500,1000,,,,,,,,,,,,,,,,,,,,,,,W,139,hexagon,1,0,,,2,,,,,,j,1.0672,9,0,9,0,1,,,,,,,,,,,,,,,,,,,,,,,,,,,,,,,,,,
297244,2022-12-06_24h21.10.666,vts_reward_expectancy_bt,2022.2.4,Win32,59.88382538,Chrome,1500,1000,,,,,0,630,,,,,,,,,,,,,,,,,H,174,triangle,1,0,,,3,,,,,,,,,,,,,-1,number,NA,k,1.1809,vtsPrac,0,0,0,0,1,,,,,,,,,,,,,,,,,,,,,,,
297244,2022-12-06_24h21.10.666,vts_reward_expectancy_bt,2022.2.4,Win32,59.88382538,Chrome,1500,1000,,,,,0,630,,,,,,,,,,,,,,,,,S,139,circle,1,0,,,3,,,,,,,,,,,,,repeat,number,numRpt,j,2.2517,vtsPrac,1,0,1,0,1,,,,,,,,,,,,,,,,,,,,,,,
297244,2022-12-06_24h21.10.666,vts_reward_expectancy_bt,2022.2.4,Win32,59.88382538,Chrome,1500,1000,,,,,0,630,,,,,,,,,,,,,,,,,F,181,triangle,1,0,,,3,,,,,,,,,,,,,repeat,number,numRpt,k,2.1862,vtsPrac,2,0,2,0,1,,,,,,,,,,,,,,,,,,,,,,,
297244,2022-12-06_24h21.10.666,vts_reward_expectancy_bt,2022.2.4,Win32,59.88382538,Chrome,1500,1000,,,,,0,630,,,,,,,,,,,,,,,,,U,160,circle,1,0,,,3,,,,,,,,,,,,,switch,letter,lettSwt,f,1.9421,vtsPrac,3,0,3,0,1,,,,,,,,,,,,,,,,,,,,,,,
297244,2022-12-06_24h21.10.666,vts_reward_expectancy_bt,2022.2.4,Win32,59.88382538,Chrome,1500,1000,,,,,0,630,,,,,,,,,,,,,,,,,H,174,circle,1,0,,,3,,,,,,,,,,,,,repeat,letter,lettRpt,d,0.9481,vtsPrac,4,0,4,0,1,,,,,,,,,,,,,,,,,,,,,,,
297244,2022-12-06_24h21.10.666,vts_reward_expectancy_bt,2022.2.4,Win32,59.88382538,Chrome,1500,1000,,,,,0,630,,,,,,,,,,,,,,,,,S,139,triangle,1,0,,,3,,,,,,,,,,,,,repeat,letter,lettRpt,f,2.7205,vtsPrac,5,0,5,0,1,,,,,,,,,,,,,,,,,,,,,,,
297244,2022-12-06_24h21.10.666,vts_reward_expectancy_bt,2022.2.4,Win32,59.88382538,Chrome,1500,1000,,,,,0,630,,,,,,,,,,,,,,,,,F,181,circle,1,0,,,3,,,,,,,,,,,,,repeat,letter,lettRpt,d,1.4552,vtsPrac,6,0,6,0,1,,,,,,,,,,,,,,,,,,,,,,,
297244,2022-12-06_24h21.10.666,vts_reward_expectancy_bt,2022.2.4,Win32,59.88382538,Chrome,1500,1000,,,,,0,630,,,,,,,,,,,,,,,,,U,160,triangle,1,0,,,3,,,,,,,,,,,,,switch,number,numSwt,k,1.4011,vtsPrac,7,0,7,0,1,,,,,,,,,,,,,,,,,,,,,,,
297244,2022-12-06_24h21.10.666,vts_reward_expectancy_bt,2022.2.4,Win32,59.88382538,Chrome,1500,1000,,,,,0,630,,,,,,,,,,,,,,,,,U,167,star,1,0,,,3,,,,,,,,,,,,,repeat,number,numRpt,k,0.5792,vtsPrac,8,0,8,0,1,,,,,,,,,,,,,,,,,,,,,,,
297244,2022-12-06_24h21.10.666,vts_reward_expectancy_bt,2022.2.4,Win32,59.88382538,Chrome,1500,1000,,,,,0,630,,,,,,,,,,,,,,,,,W,146,circle,1,0,,,3,,,,,,,,,,,,,repeat,number,numRpt,j,1.2837,vtsPrac,9,0,9,0,1,,,,,,,,,,,,,,,,,,,,,,,
297244,2022-12-06_24h21.10.666,vts_reward_expectancy_bt,2022.2.4,Win32,59.88382538,Chrome,1500,1000,,,,,0,630,,,,,,,,,,,,,,,,,S,174,hexagon,0,0,,,3,,,,,,,,,,,,,switch,letter,NA,d,1.1572,vtsPrac,10,0,10,0,1,,,,,,,,,,,,,,,,,,,,,,,
297244,2022-12-06_24h21.10.666,vts_reward_expectancy_bt,2022.2.4,Win32,59.88382538,Chrome,1500,1000,,,,,0,630,,,,,,,,,,,,,,,,,D,132,circle,1,1,,,3,,,,,,,,,,,,,switch,number,numSwt,j,0.8088,vtsPrac,11,0,11,0,1,,,,,,,,,,,,,,,,,,,,,,,
297244,2022-12-06_24h21.10.666,vts_reward_expectancy_bt,2022.2.4,Win32,59.88382538,Chrome,1500,1000,,,,,0,630,,,,,,,,,,,,,,,,,Y,181,triangle,1,0,,,3,,,,,,,,,,,,,repeat,number,numRpt,k,1.2136,vtsPrac,12,0,12,0,1,,,,,,,,,,,,,,,,,,,,,,,
297244,2022-12-06_24h21.10.666,vts_reward_expectancy_bt,2022.2.4,Win32,59.88382538,Chrome,1500,1000,,,,,0,630,,,,,,,,,,,,,,,,,S,160,star,1,0,,,3,,,,,,,,,,,,,repeat,number,numRpt,k,0.8287,vtsPrac,13,0,13,0,1,,,,,,,,,,,,,,,,,,,,,,,
297244,2022-12-06_24h21.10.666,vts_reward_expectancy_bt,2022.2.4,Win32,59.88382538,Chrome,1500,1000,,,,,0,630,,,,,,,,,,,,,,,,,W,146,star,1,0,,,3,,,,,,,,,,,,,switch,letter,lettSwt,f,1.6105,vtsPrac,14,0,14,0,1,,,,,,,,,,,,,,,,,,,,,,,
297244,2022-12-06_24h21.10.666,vts_reward_expectancy_bt,2022.2.4,Win32,59.88382538,Chrome,1500,1000,,,,,0,630,,,,,,,,,,,,,,,,,U,125,circle,0,0,,,3,,,,,,,,,,,,,repeat,letter,NA,d,0.9097,vtsPrac,15,0,15,0,1,,,,,,,,,,,,,,,,,,,,,,,
297244,2022-12-06_24h21.10.666,vts_reward_expectancy_bt,2022.2.4,Win32,59.88382538,Chrome,1500,1000,,,,,0,630,,,,,,,,,,,,,,,,,H,146,hexagon,1,1,,,3,,,,,,,,,,,,,repeat,letter,lettRpt,d,1.0105,vtsPrac,16,0,16,0,1,,,,,,,,,,,,,,,,,,,,,,,
297244,2022-12-06_24h21.10.666,vts_reward_expectancy_bt,2022.2.4,Win32,59.88382538,Chrome,1500,1000,,,,,0,630,,,,,,,,,,,,,,,,,S,125,triangle,1,0,,,3,,,,,,,,,,,,,repeat,letter,lettRpt,f,2.5434,vtsPrac,17,0,17,0,1,,,,,,,,,,,,,,,,,,,,,,,
297244,2022-12-06_24h21.10.666,vts_reward_expectancy_bt,2022.2.4,Win32,59.88382538,Chrome,1500,1000,,,,,0,630,,,,,,,,,,,,,,,,,B,160,hexagon,0,0,,,3,,,,,,,,,,,,,repeat,letter,NA,f,1.1938,vtsPrac,18,0,18,0,1,,,,,,,,,,,,,,,,,,,,,,,
297244,2022-12-06_24h21.10.666,vts_reward_expectancy_bt,2022.2.4,Win32,59.88382538,Chrome,1500,1000,,,,,0,630,,,,,,,,,,,,,,,,,W,167,triangle,1,1,,,3,,,,,,,,,,,,,repeat,letter,lettRpt,f,1.4855,vtsPrac,19,0,19,0,1,,,,,,,,,,,,,,,,,,,,,,,
297244,2022-12-06_24h21.10.666,vts_reward_expectancy_bt,2022.2.4,Win32,59.88382538,Chrome,1500,1000,,,,,0,630,,,,,,,,,,,,,,,,,B,146,triangle,1,0,,,3,,,,,,,,,,,,,repeat,letter,lettRpt,d,0.9184,vtsPrac,20,0,20,0,1,,,,,,,,,,,,,,,,,,,,,,,
297244,2022-12-06_24h21.10.666,vts_reward_expectancy_bt,2022.2.4,Win32,59.88382538,Chrome,1500,1000,,,,,0,630,,,,,,,,,,,,,,,,,Y,125,circle,1,0,,,3,,,,,,,,,,,,,repeat,letter,lettRpt,f,1.4443,vtsPrac,21,0,21,0,1,,,,,,,,,,,,,,,,,,,,,,,
297244,2022-12-06_24h21.10.666,vts_reward_expectancy_bt,2022.2.4,Win32,59.88382538,Chrome,1500,1000,,,,,0,630,,,,,,,,,,,,,,,,,W,139,triangle,1,0,,,3,,,,,,,,,,,,,switch,number,numSwt,j,0.7187,vtsPrac,22,0,22,0,1,,,,,,,,,,,,,,,,,,,,,,,
297244,2022-12-06_24h21.10.666,vts_reward_expectancy_bt,2022.2.4,Win32,59.88382538,Chrome,1500,1000,,,,,0,630,,,,,,,,,,,,,,,,,H,132,circle,1,0,,,3,,,,,,,,,,,,,repeat,number,numRpt,j,0.8792,vtsPrac,23,0,23,0,1,,,,,,,,,,,,,,,,,,,,,,,
297244,2022-12-06_24h21.10.666,vts_reward_expectancy_bt,2022.2.4,Win32,59.88382538,Chrome,1500,1000,,,,,0,630,,,,,,,,,,,,,,,,,U,181,hexagon,1,0,,,3,,,,,,,,,,,,,repeat,number,numRpt,k,0.7625,vtsPrac,24,0,24,0,1,,,,,,,,,,,,,,,,,,,,,,,
297244,2022-12-06_24h21.10.666,vts_reward_expectancy_bt,2022.2.4,Win32,59.88382538,Chrome,1500,1000,,,,,0,630,,,,,,,,,,,,,,,,,H,132,triangle,1,0,,,3,,,,,,,,,,,,,repeat,number,numRpt,j,0.7409,vtsPrac,25,0,25,0,1,,,,,,,,,,,,,,,,,,,,,,,
297244,2022-12-06_24h21.10.666,vts_reward_expectancy_bt,2022.2.4,Win32,59.88382538,Chrome,1500,1000,,,,,0,630,,,,,,,,,,,,,,,,,D,125,hexagon,1,0,,,3,,,,,,,,,,,,,repeat,number,numRpt,j,0.9819,vtsPrac,26,0,26,0,1,,,,,,,,,,,,,,,,,,,,,,,
297244,2022-12-06_24h21.10.666,vts_reward_expectancy_bt,2022.2.4,Win32,59.88382538,Chrome,1500,1000,,,,,0,630,,,,,,,,,,,,,,,,,B,167,triangle,1,0,,,3,,,,,,,,,,,,,switch,letter,lettSwt,d,0.9888,vtsPrac,27,0,27,0,1,,,,,,,,,,,,,,,,,,,,,,,
297244,2022-12-06_24h21.10.666,vts_reward_expectancy_bt,2022.2.4,Win32,59.88382538,Chrome,1500,1000,,,,,0,630,,,,,,,,,,,,,,,,,H,139,triangle,1,0,,,3,,,,,,,,,,,,,repeat,letter,lettRpt,d,0.922,vtsPrac,28,0,28,0,1,,,,,,,,,,,,,,,,,,,,,,,
297244,2022-12-06_24h21.10.666,vts_reward_expectancy_bt,2022.2.4,Win32,59.88382538,Chrome,1500,1000,,,,,0,630,,,,,,,,,,,,,,,,,F,160,star,1,0,,,3,,,,,,,,,,,,,repeat,letter,lettRpt,d,0.8718,vtsPrac,29,0,29,0,1,,,,,,,,,,,,,,,,,,,,,,,
297244,2022-12-06_24h21.10.666,vts_reward_expectancy_bt,2022.2.4,Win32,59.88382538,Chrome,1500,1000,,,,,0,630,,,,,,,,,,,,,,,,,W,181,hexagon,1,0,,,3,,,,,,,,,,,,,repeat,letter,lettRpt,f,1.152,vtsPrac,30,0,30,0,1,,,,,,,,,,,,,,,,,,,,,,,
297244,2022-12-06_24h21.10.666,vts_reward_expectancy_bt,2022.2.4,Win32,59.88382538,Chrome,1500,1000,,,,,0,630,,,,,,,,,,,,,,,,,S,125,triangle,1,0,,,3,,,,,,,,,,,,,repeat,letter,lettRpt,f,1.5496,vtsPrac,31,0,31,0,1,,,,,,,,,,,,,,,,,,,,,,,
297244,2022-12-06_24h21.10.666,vts_reward_expectancy_bt,2022.2.4,Win32,59.88382538,Chrome,1500,1000,,,,,,,,,,,,,,,,,,,,,,,,,,,,,,,,,,,,,,,,,,,,,,,,,,,,,,,,,,,,,,,,,,,,,,,,,,,,
297244,2022-12-06_24h21.10.666,vts_reward_expectancy_bt,2022.2.4,Win32,59.88382538,Chrome,1500,1000,,,,,,,,,,,,,,,,,,,,,,,,,,,,,,,,,,,,,,,,,,,,,,,,,,,,,,,,,,,,,,,,,,,,,,,,,,,,
297244,2022-12-06_24h21.10.666,vts_reward_expectancy_bt,2022.2.4,Win32,59.88382538,Chrome,1500,1000,,,,,0,630,,,,,,,,,,,,,,,,,Y,132,star,1,0,,,,,,,,,,,,,,,,repeat,letter,lettRpt,f,1.2116,noRew,,,,,,0,0,0,0,0,1,,,,,,,,,,,,,,,,,
297244,2022-12-06_24h21.10.666,vts_reward_expectancy_bt,2022.2.4,Win32,59.88382538,Chrome,1500,1000,,,,,0,630,,,,,,,,,,,,,,,,,D,167,triangle,1,0,,,,,,,,,,,,,,,,switch,number,numSwt,k,0.7178,noRew,,,,,,0,1,0,1,0,1,,,,,,,,,,,,,,,,,
297244,2022-12-06_24h21.10.666,vts_reward_expectancy_bt,2022.2.4,Win32,59.88382538,Chrome,1500,1000,,,,,0,630,,,,,,,,,,,,,,,,,B,139,star,0,0,,,,,,,,,,,,,,,,switch,letter,NA,f,0.3777,noRew,,,,,,0,2,0,2,0,1,,,,,,,,,,,,,,,,,
297244,2022-12-06_24h21.10.666,vts_reward_expectancy_bt,2022.2.4,Win32,59.88382538,Chrome,1500,1000,,,,,0,630,,,,,,,,,,,,,,,,,S,174,triangle,1,1,,,,,,,,,,,,,,,,repeat,letter,lettRpt,f,0.0975,noRew,,,,,,0,3,0,3,0,1,,,,,,,,,,,,,,,,,
297244,2022-12-06_24h21.10.666,vts_reward_expectancy_bt,2022.2.4,Win32,59.88382538,Chrome,1500,1000,,,,,0,630,,,,,,,,,,,,,,,,,Y,132,triangle,0,0,,,,,,,,,,,,,,,,switch,number,NA,k,0.4485,noRew,,,,,,0,4,0,4,0,1,,,,,,,,,,,,,,,,,
297244,2022-12-06_24h21.10.666,vts_reward_expectancy_bt,2022.2.4,Win32,59.88382538,Chrome,1500,1000,,,,,0,630,,,,,,,,,,,,,,,,,D,167,hexagon,0,1,,,,,,,,,,,,,,,,repeat,number,NA,j,0.1006,noRew,,,,,,0,5,0,5,0,1,,,,,,,,,,,,,,,,,
297244,2022-12-06_24h21.10.666,vts_reward_expectancy_bt,2022.2.4,Win32,59.88382538,Chrome,1500,1000,,,,,0,630,,,,,,,,,,,,,,,,,B,139,star,0,1,,,,,,,,,,,,,,,,repeat,number,NA,k,1.0597,noRew,,,,,,0,6,0,6,0,1,,,,,,,,,,,,,,,,,
297244,2022-12-06_24h21.10.666,vts_reward_expectancy_bt,2022.2.4,Win32,59.88382538,Chrome,1500,1000,,,,,0,630,,,,,,,,,,,,,,,,,S,174,hexagon,0,1,,,,,,,,,,,,,,,,repeat,number,NA,j,0.3691,noRew,,,,,,0,7,0,7,0,1,,,,,,,,,,,,,,,,,
297244,2022-12-06_24h21.10.666,vts_reward_expectancy_bt,2022.2.4,Win32,59.88382538,Chrome,1500,1000,,,,,0,630,,,,,,,,,,,,,,,,,U,146,circle,0,1,,,,,,,,,,,,,,,,switch,letter,NA,d,1.0424,noRew,,,,,,0,8,0,8,0,1,,,,,,,,,,,,,,,,,
297244,2022-12-06_24h21.10.666,vts_reward_expectancy_bt,2022.2.4,Win32,59.88382538,Chrome,1500,1000,,,,,0,630,,,,,,,,,,,,,,,,,W,139,hexagon,1,1,,,,,,,,,,,,,,,,repeat,letter,lettRpt,f,1.0434,noRew,,,,,,0,9,0,9,0,1,,,,,,,,,,,,,,,,,
297244,2022-12-06_24h21.10.666,vts_reward_expectancy_bt,2022.2.4,Win32,59.88382538,Chrome,1500,1000,,,,,0,630,,,,,,,,,,,,,,,,,H,160,hexagon,1,0,,,,,,,,,,,,,,,,repeat,letter,lettRpt,d,1.0955,noRew,,,,,,0,10,0,10,0,1,,,,,,,,,,,,,,,,,
297244,2022-12-06_24h21.10.666,vts_reward_expectancy_bt,2022.2.4,Win32,59.88382538,Chrome,1500,1000,,,,,0,630,,,,,,,,,,,,,,,,,D,167,star,1,0,,,,,,,,,,,,,,,,repeat,letter,lettRpt,d,0.406,noRew,,,,,,0,11,0,11,0,1,,,,,,,,,,,,,,,,,
297244,2022-12-06_24h21.10.666,vts_reward_expectancy_bt,2022.2.4,Win32,59.88382538,Chrome,1500,1000,,,,,0,630,,,,,,,,,,,,,,,,,H,167,triangle,1,0,,,,,,,,,,,,,,,,repeat,letter,lettRpt,d,0.6166,noRew,,,,,,0,12,0,12,0,1,,,,,,,,,,,,,,,,,
297244,2022-12-06_24h21.10.666,vts_reward_expectancy_bt,2022.2.4,Win32,59.88382538,Chrome,1500,1000,,,,,0,630,,,,,,,,,,,,,,,,,Y,181,hexagon,1,0,,,,,,,,,,,,,,,,repeat,letter,lettRpt,f,0.9424,noRew,,,,,,0,13,0,13,0,1,,,,,,,,,,,,,,,,,
297244,2022-12-06_24h21.10.666,vts_reward_expectancy_bt,2022.2.4,Win32,59.88382538,Chrome,1500,1000,,,,,0,630,,,,,,,,,,,,,,,,,U,160,circle,0,0,,,,,,,,,,,,,,,,switch,number,NA,j,1.0908,noRew,,,,,,0,14,0,14,0,1,,,,,,,,,,,,,,,,,
297244,2022-12-06_24h21.10.666,vts_reward_expectancy_bt,2022.2.4,Win32,59.88382538,Chrome,1500,1000,,,,,0,630,,,,,,,,,,,,,,,,,D,174,star,1,1,,,,,,,,,,,,,,,,repeat,number,numRpt,k,0.3465,noRew,,,,,,0,15,0,15,0,1,,,,,,,,,,,,,,,,,
297244,2022-12-06_24h21.10.666,vts_reward_expectancy_bt,2022.2.4,Win32,59.88382538,Chrome,1500,1000,,,,,0,630,,,,,,,,,,,,,,,,,D,174,triangle,1,0,,,,,,,,,,,,,,,,repeat,number,numRpt,k,0.7882,noRew,,,,,,0,16,0,16,0,1,,,,,,,,,,,,,,,,,
297244,2022-12-06_24h21.10.666,vts_reward_expectancy_bt,2022.2.4,Win32,59.88382538,Chrome,1500,1000,,,,,0,630,,,,,,,,,,,,,,,,,S,139,hexagon,0,0,,,,,,,,,,,,,,,,repeat,number,NA,k,0.3846,noRew,,,,,,0,17,0,17,0,1,,,,,,,,,,,,,,,,,
297244,2022-12-06_24h21.10.666,vts_reward_expectancy_bt,2022.2.4,Win32,59.88382538,Chrome,1500,1000,,,,,0,630,,,,,,,,,,,,,,,,,W,167,hexagon,0,1,,,,,,,,,,,,,,,,repeat,number,NA,j,0.4701,noRew,,,,,,0,18,0,18,0,1,,,,,,,,,,,,,,,,,
297244,2022-12-06_24h21.10.666,vts_reward_expectancy_bt,2022.2.4,Win32,59.88382538,Chrome,1500,1000,,,,,0,630,,,,,,,,,,,,,,,,,F,132,star,1,1,,,,,,,,,,,,,,,,repeat,number,numRpt,j,1.4106,noRew,,,,,,0,19,0,19,0,1,,,,,,,,,,,,,,,,,
297244,2022-12-06_24h21.10.666,vts_reward_expectancy_bt,2022.2.4,Win32,59.88382538,Chrome,1500,1000,,,,,0,630,,,,,,,,,,,,,,,,,W,181,star,1,0,,,,,,,,,,,,,,,,repeat,number,numRpt,k,0.7299,noRew,,,,,,0,20,0,20,0,1,,,,,,,,,,,,,,,,,
297244,2022-12-06_24h21.10.666,vts_reward_expectancy_bt,2022.2.4,Win32,59.88382538,Chrome,1500,1000,,,,,0,630,,,,,,,,,,,,,,,,,S,139,circle,1,0,,,,,,,,,,,,,,,,repeat,number,numRpt,j,0.6837,noRew,,,,,,0,21,0,21,0,1,,,,,,,,,,,,,,,,,
297244,2022-12-06_24h21.10.666,vts_reward_expectancy_bt,2022.2.4,Win32,59.88382538,Chrome,1500,1000,,,,,0,630,,,,,,,,,,,,,,,,,F,160,circle,1,0,,,,,,,,,,,,,,,,repeat,number,numRpt,k,1.4135,noRew,,,,,,0,22,0,22,0,1,,,,,,,,,,,,,,,,,
297244,2022-12-06_24h21.10.666,vts_reward_expectancy_bt,2022.2.4,Win32,59.88382538,Chrome,1500,1000,,,,,0,630,,,,,,,,,,,,,,,,,U,125,star,1,0,,,,,,,,,,,,,,,,repeat,number,numRpt,j,1.2511,noRew,,,,,,0,23,0,23,0,1,,,,,,,,,,,,,,,,,
297244,2022-12-06_24h21.10.666,vts_reward_expectancy_bt,2022.2.4,Win32,59.88382538,Chrome,1500,1000,,,,,0,630,,,,,,,,,,,,,,,,,F,160,triangle,1,0,,,,,,,,,,,,,,,,repeat,number,numRpt,k,1.243,noRew,,,,,,0,24,0,24,0,1,,,,,,,,,,,,,,,,,
297244,2022-12-06_24h21.10.666,vts_reward_expectancy_bt,2022.2.4,Win32,59.88382538,Chrome,1500,1000,,,,,0,630,,,,,,,,,,,,,,,,,S,132,circle,0,0,,,,,,,,,,,,,,,,switch,letter,NA,d,0.8789,noRew,,,,,,0,25,0,25,0,1,,,,,,,,,,,,,,,,,
297244,2022-12-06_24h21.10.666,vts_reward_expectancy_bt,2022.2.4,Win32,59.88382538,Chrome,1500,1000,,,,,0,630,,,,,,,,,,,,,,,,,D,167,hexagon,1,1,,,,,,,,,,,,,,,,repeat,letter,lettRpt,d,0.5437,noRew,,,,,,0,26,0,26,0,1,,,,,,,,,,,,,,,,,
297244,2022-12-06_24h21.10.666,vts_reward_expectancy_bt,2022.2.4,Win32,59.88382538,Chrome,1500,1000,,,,,0,630,,,,,,,,,,,,,,,,,H,174,triangle,1,0,,,,,,,,,,,,,,,,repeat,letter,lettRpt,d,0.9666,noRew,,,,,,0,27,0,27,0,1,,,,,,,,,,,,,,,,,
297244,2022-12-06_24h21.10.666,vts_reward_expectancy_bt,2022.2.4,Win32,59.88382538,Chrome,1500,1000,,,,,0,630,,,,,,,,,,,,,,,,,D,146,star,1,0,,,,,,,,,,,,,,,,repeat,letter,lettRpt,d,0.7321,noRew,,,,,,0,28,0,28,0,1,,,,,,,,,,,,,,,,,
297244,2022-12-06_24h21.10.666,vts_reward_expectancy_bt,2022.2.4,Win32,59.88382538,Chrome,1500,1000,,,,,0,630,,,,,,,,,,,,,,,,,Y,132,hexagon,1,0,,,,,,,,,,,,,,,,repeat,letter,lettRpt,f,0.8652,noRew,,,,,,0,29,0,29,0,1,,,,,,,,,,,,,,,,,
297244,2022-12-06_24h21.10.666,vts_reward_expectancy_bt,2022.2.4,Win32,59.88382538,Chrome,1500,1000,,,,,0,630,,,,,,,,,,,,,,,,,W,139,circle,1,0,,,,,,,,,,,,,,,,repeat,letter,lettRpt,f,1.1292,noRew,,,,,,0,30,0,30,0,1,,,,,,,,,,,,,,,,,
297244,2022-12-06_24h21.10.666,vts_reward_expectancy_bt,2022.2.4,Win32,59.88382538,Chrome,1500,1000,,,,,0,630,,,,,,,,,,,,,,,,,S,125,triangle,1,0,,,,,,,,,,,,,,,,switch,number,numSwt,j,0.7786,noRew,,,,,,0,31,0,31,0,1,,,,,,,,,,,,,,,,,
297244,2022-12-06_24h21.10.666,vts_reward_expectancy_bt,2022.2.4,Win32,59.88382538,Chrome,1500,1000,,,,,0,630,,,,,,,,,,,,,,,,,S,132,hexagon,1,0,,,,,,,,,,,,,,,,repeat,number,numRpt,j,0.4467,noRew,,,,,,0,32,0,32,0,1,,,,,,,,,,,,,,,,,
297244,2022-12-06_24h21.10.666,vts_reward_expectancy_bt,2022.2.4,Win32,59.88382538,Chrome,1500,1000,,,,,0,630,,,,,,,,,,,,,,,,,H,181,triangle,1,0,,,,,,,,,,,,,,,,repeat,number,numRpt,k,0.6329,noRew,,,,,,0,33,0,33,0,1,,,,,,,,,,,,,,,,,
297244,2022-12-06_24h21.10.666,vts_reward_expectancy_bt,2022.2.4,Win32,59.88382538,Chrome,1500,1000,,,,,0,630,,,,,,,,,,,,,,,,,Y,139,circle,1,0,,,,,,,,,,,,,,,,repeat,number,numRpt,j,0.5657,noRew,,,,,,0,34,0,34,0,1,,,,,,,,,,,,,,,,,
297244,2022-12-06_24h21.10.666,vts_reward_expectancy_bt,2022.2.4,Win32,59.88382538,Chrome,1500,1000,,,,,0,630,,,,,,,,,,,,,,,,,F,125,star,1,0,,,,,,,,,,,,,,,,repeat,number,numRpt,j,0.538,noRew,,,,,,0,35,0,35,0,1,,,,,,,,,,,,,,,,,
297244,2022-12-06_24h21.10.666,vts_reward_expectancy_bt,2022.2.4,Win32,59.88382538,Chrome,1500,1000,,,,,0,630,,,,,,,,,,,,,,,,,D,146,triangle,1,0,,,,,,,,,,,,,,,,repeat,number,numRpt,j,0.8181,noRew,,,,,,0,36,0,36,0,1,,,,,,,,,,,,,,,,,
297244,2022-12-06_24h21.10.666,vts_reward_expectancy_bt,2022.2.4,Win32,59.88382538,Chrome,1500,1000,,,,,0,630,,,,,,,,,,,,,,,,,W,160,circle,1,0,,,,,,,,,,,,,,,,repeat,number,numRpt,k,1.0633,noRew,,,,,,0,37,0,37,0,1,,,,,,,,,,,,,,,,,
297244,2022-12-06_24h21.10.666,vts_reward_expectancy_bt,2022.2.4,Win32,59.88382538,Chrome,1500,1000,,,,,0,630,,,,,,,,,,,,,,,,,Y,181,triangle,1,0,,,,,,,,,,,,,,,,switch,letter,lettSwt,f,0.6813,noRew,,,,,,0,38,0,38,0,1,,,,,,,,,,,,,,,,,
297244,2022-12-06_24h21.10.666,vts_reward_expectancy_bt,2022.2.4,Win32,59.88382538,Chrome,1500,1000,,,,,0,630,,,,,,,,,,,,,,,,,U,174,star,0,0,,,,,,,,,,,,,,,,repeat,letter,NA,d,0.83,noRew,,,,,,0,39,0,39,0,1,,,,,,,,,,,,,,,,,
297244,2022-12-06_24h21.10.666,vts_reward_expectancy_bt,2022.2.4,Win32,59.88382538,Chrome,1500,1000,,,,,0,630,,,,,,,,,,,,,,,,,D,167,hexagon,1,1,,,,,,,,,,,,,,,,repeat,letter,lettRpt,d,1.8639,noRew,,,,,,0,40,0,40,0,1,,,,,,,,,,,,,,,,,
297244,2022-12-06_24h21.10.666,vts_reward_expectancy_bt,2022.2.4,Win32,59.88382538,Chrome,1500,1000,,,,,0,630,,,,,,,,,,,,,,,,,W,174,triangle,1,0,,,,,,,,,,,,,,,,repeat,letter,lettRpt,f,1.0818,noRew,,,,,,0,41,0,41,0,1,,,,,,,,,,,,,,,,,
297244,2022-12-06_24h21.10.666,vts_reward_expectancy_bt,2022.2.4,Win32,59.88382538,Chrome,1500,1000,,,,,0,630,,,,,,,,,,,,,,,,,B,125,circle,1,0,,,,,,,,,,,,,,,,repeat,letter,lettRpt,d,2.1799,noRew,,,,,,0,42,0,42,0,1,,,,,,,,,,,,,,,,,
297244,2022-12-06_24h21.10.666,vts_reward_expectancy_bt,2022.2.4,Win32,59.88382538,Chrome,1500,1000,,,,,0,630,,,,,,,,,,,,,,,,,F,160,hexagon,1,0,,,,,,,,,,,,,,,,repeat,letter,lettRpt,d,2.376,noRew,,,,,,0,43,0,43,0,1,,,,,,,,,,,,,,,,,
297244,2022-12-06_24h21.10.666,vts_reward_expectancy_bt,2022.2.4,Win32,59.88382538,Chrome,1500,1000,,,,,0,630,,,,,,,,,,,,,,,,,Y,160,star,1,0,,,,,,,,,,,,,,,,repeat,letter,lettRpt,f,1.3833,noRew,,,,,,0,44,0,44,0,1,,,,,,,,,,,,,,,,,
297244,2022-12-06_24h21.10.666,vts_reward_expectancy_bt,2022.2.4,Win32,59.88382538,Chrome,1500,1000,,,,,0,630,,,,,,,,,,,,,,,,,B,174,circle,-1,0,,,,,,,,,,,,,,,,switch,no_choice,NA,,,noRew,,,,,,0,45,0,45,0,1,,,,,,,,,,,,,,,,,
297244,2022-12-06_24h21.10.666,vts_reward_expectancy_bt,2022.2.4,Win32,59.88382538,Chrome,1500,1000,,,,,0,630,,,,,,,,,,,,,,,,,F,181,circle,1,0,,,,,,,,,,,,,,,,switch,letter,lettSwt,d,1.3764,noRew,,,,,,0,46,0,46,0,1,,,,,,,,,,,,,,,,,
297244,2022-12-06_24h21.10.666,vts_reward_expectancy_bt,2022.2.4,Win32,59.88382538,Chrome,1500,1000,,,,,0,630,,,,,,,,,,,,,,,,,H,132,hexagon,1,0,,,,,,,,,,,,,,,,repeat,letter,lettRpt,d,1.478,noRew,,,,,,0,47,0,47,0,1,,,,,,,,,,,,,,,,,
297244,2022-12-06_24h21.10.666,vts_reward_expectancy_bt,2022.2.4,Win32,59.88382538,Chrome,1500,1000,,,,,0,630,,,,,,,,,,,,,,,,,Y,139,star,1,0,,,,,,,,,,,,,,,,repeat,letter,lettRpt,f,0.6597,noRew,,,,,,0,48,0,48,0,1,,,,,,,,,,,,,,,,,
297244,2022-12-06_24h21.10.666,vts_reward_expectancy_bt,2022.2.4,Win32,59.88382538,Chrome,1500,1000,,,,,0,630,,,,,,,,,,,,,,,,,F,167,circle,1,0,,,,,,,,,,,,,,,,repeat,letter,lettRpt,d,1.0787,noRew,,,,,,0,49,0,49,0,1,,,,,,,,,,,,,,,,,
297244,2022-12-06_24h21.10.666,vts_reward_expectancy_bt,2022.2.4,Win32,59.88382538,Chrome,1500,1000,,,,,0,630,,,,,,,,,,,,,,,,,D,132,circle,1,0,,,,,,,,,,,,,,,,repeat,letter,lettRpt,d,0.8113,noRew,,,,,,0,50,0,50,0,1,,,,,,,,,,,,,,,,,
297244,2022-12-06_24h21.10.666,vts_reward_expectancy_bt,2022.2.4,Win32,59.88382538,Chrome,1500,1000,,,,,0,630,,,,,,,,,,,,,,,,,H,174,star,1,0,,,,,,,,,,,,,,,,repeat,letter,lettRpt,d,0.8841,noRew,,,,,,0,51,0,51,0,1,,,,,,,,,,,,,,,,,
297244,2022-12-06_24h21.10.666,vts_reward_expectancy_bt,2022.2.4,Win32,59.88382538,Chrome,1500,1000,,,,,0,630,,,,,,,,,,,,,,,,,D,174,star,1,0,,,,,,,,,,,,,,,,repeat,letter,lettRpt,d,1.4512,noRew,,,,,,0,52,0,52,0,1,,,,,,,,,,,,,,,,,
297244,2022-12-06_24h21.10.666,vts_reward_expectancy_bt,2022.2.4,Win32,59.88382538,Chrome,1500,1000,,,,,0,630,,,,,,,,,,,,,,,,,W,125,hexagon,1,0,,,,,,,,,,,,,,,,switch,number,numSwt,j,0.8469,noRew,,,,,,0,53,0,53,0,1,,,,,,,,,,,,,,,,,
297244,2022-12-06_24h21.10.666,vts_reward_expectancy_bt,2022.2.4,Win32,59.88382538,Chrome,1500,1000,,,,,0,630,,,,,,,,,,,,,,,,,F,167,circle,0,0,,,,,,,,,,,,,,,,repeat,number,NA,j,0.7588,noRew,,,,,,0,54,0,54,0,1,,,,,,,,,,,,,,,,,
297244,2022-12-06_24h21.10.666,vts_reward_expectancy_bt,2022.2.4,Win32,59.88382538,Chrome,1500,1000,,,,,0,630,,,,,,,,,,,,,,,,,U,181,triangle,1,1,,,,,,,,,,,,,,,,repeat,number,numRpt,k,0.9007,noRew,,,,,,0,55,0,55,0,1,,,,,,,,,,,,,,,,,
297244,2022-12-06_24h21.10.666,vts_reward_expectancy_bt,2022.2.4,Win32,59.88382538,Chrome,1500,1000,,,,,0,630,,,,,,,,,,,,,,,,,W,167,circle,0,0,,,,,,,,,,,,,,,,repeat,number,NA,j,1.7529,noRew,,,,,,0,56,0,56,0,1,,,,,,,,,,,,,,,,,
297244,2022-12-06_24h21.10.666,vts_reward_expectancy_bt,2022.2.4,Win32,59.88382538,Chrome,1500,1000,,,,,0,630,,,,,,,,,,,,,,,,,D,181,triangle,0,1,,,,,,,,,,,,,,,,repeat,number,NA,j,0.0874,noRew,,,,,,0,57,0,57,0,1,,,,,,,,,,,,,,,,,
297244,2022-12-06_24h21.10.666,vts_reward_expectancy_bt,2022.2.4,Win32,59.88382538,Chrome,1500,1000,,,,,0,630,,,,,,,,,,,,,,,,,B,160,star,0,1,,,,,,,,,,,,,,,,repeat,number,NA,j,1.9018,noRew,,,,,,0,58,0,58,0,1,,,,,,,,,,,,,,,,,
297244,2022-12-06_24h21.10.666,vts_reward_expectancy_bt,2022.2.4,Win32,59.88382538,Chrome,1500,1000,,,,,0,630,,,,,,,,,,,,,,,,,Y,174,hexagon,1,1,,,,,,,,,,,,,,,,repeat,number,numRpt,k,1.2944,noRew,,,,,,0,59,0,59,0,1,,,,,,,,,,,,,,,,,
297244,2022-12-06_24h21.10.666,vts_reward_expectancy_bt,2022.2.4,Win32,59.88382538,Chrome,1500,1000,,,,,0,630,,,,,,,,,,,,,,,,,D,125,triangle,1,0,,,,,,,,,,,,,,,,repeat,number,numRpt,j,1.0585,noRew,,,,,,0,60,0,60,0,1,,,,,,,,,,,,,,,,,
297244,2022-12-06_24h21.10.666,vts_reward_expectancy_bt,2022.2.4,Win32,59.88382538,Chrome,1500,1000,,,,,0,630,,,,,,,,,,,,,,,,,H,167,circle,0,0,,,,,,,,,,,,,,,,switch,letter,NA,f,0.3273,noRew,,,,,,0,61,0,61,0,1,,,,,,,,,,,,,,,,,
297244,2022-12-06_24h21.10.666,vts_reward_expectancy_bt,2022.2.4,Win32,59.88382538,Chrome,1500,1000,,,,,0,630,,,,,,,,,,,,,,,,,B,132,star,0,1,,,,,,,,,,,,,,,,repeat,letter,NA,f,0.3892,noRew,,,,,,0,62,0,62,0,1,,,,,,,,,,,,,,,,,
297244,2022-12-06_24h21.10.666,vts_reward_expectancy_bt,2022.2.4,Win32,59.88382538,Chrome,1500,1000,,,,,0,630,,,,,,,,,,,,,,,,,S,174,hexagon,1,1,,,,,,,,,,,,,,,,repeat,letter,lettRpt,f,0.416,noRew,,,,,,0,63,0,63,0,1,,,,,,,,,,,,,,,,,
297244,2022-12-06_24h21.10.666,vts_reward_expectancy_bt,2022.2.4,Win32,59.88382538,Chrome,1500,1000,,,,,,,,,,,,,,,,,,,,,,,,,,,,,,,,,,,,,,,,,,,,,,,,,,,,,,,,,,,,,,,,,,,,,,,,,,,,
297244,2022-12-06_24h21.10.666,vts_reward_expectancy_bt,2022.2.4,Win32,59.88382538,Chrome,1500,1000,,,,,0,630,,,,,,,,,,,,,,,,,H,139,hexagon,1,0,,,,,,,,,,,,,,,,repeat,letter,lettRpt,d,1.3299,Hi,,,,,,0,,,,,,space,0.7969,low,0,0,0,0,1,,,,,,,,,
297244,2022-12-06_24h21.10.666,vts_reward_expectancy_bt,2022.2.4,Win32,59.88382538,Chrome,1500,1000,,,,,10,640,,,,,,,,,,,,,,,,,B,146,circle,1,0,,,,,,,,,,,,,,,,repeat,letter,lettRpt,d,0.6342,Lo,,,,,,0,,,,,,,,low,1,0,1,0,1,,,,,,,,,
297244,2022-12-06_24h21.10.666,vts_reward_expectancy_bt,2022.2.4,Win32,59.88382538,Chrome,1500,1000,,,,,0,640,,,,,,,,,,,,,,,,,D,181,triangle,1,0,,,,,,,,,,,,,,,,switch,number,numSwt,k,0.8428,Hi,,,,,,0,,,,,,,,low,2,0,2,0,1,,,,,,,,,
297244,2022-12-06_24h21.10.666,vts_reward_expectancy_bt,2022.2.4,Win32,59.88382538,Chrome,1500,1000,,,,,1,641,,,,,,,,,,,,,,,,,Y,160,star,1,0,,,,,,,,,,,,,,,,repeat,number,numRpt,k,0.7187,Lo,,,,,,0,,,,,,,,low,3,0,3,0,1,,,,,,,,,
297244,2022-12-06_24h21.10.666,vts_reward_expectancy_bt,2022.2.4,Win32,59.88382538,Chrome,1500,1000,,,,,0,641,,,,,,,,,,,,,,,,,S,132,hexagon,1,0,,,,,,,,,,,,,,,,repeat,number,numRpt,j,0.8375,Hi,,,,,,0,,,,,,,,low,4,0,4,0,1,,,,,,,,,
297244,2022-12-06_24h21.10.666,vts_reward_expectancy_bt,2022.2.4,Win32,59.88382538,Chrome,1500,1000,,,,,10,651,,,,,,,,,,,,,,,,,F,125,circle,1,0,,,,,,,,,,,,,,,,repeat,number,numRpt,j,0.5025,Lo,,,,,,0,,,,,,,,low,5,0,5,0,1,,,,,,,,,
297244,2022-12-06_24h21.10.666,vts_reward_expectancy_bt,2022.2.4,Win32,59.88382538,Chrome,1500,1000,,,,,10,661,,,,,,,,,,,,,,,,,W,174,triangle,1,0,,,,,,,,,,,,,,,,repeat,number,numRpt,k,0.6715,Hi,,,,,,0,,,,,,,,low,6,0,6,0,1,,,,,,,,,
297244,2022-12-06_24h21.10.666,vts_reward_expectancy_bt,2022.2.4,Win32,59.88382538,Chrome,1500,1000,,,,,1,662,,,,,,,,,,,,,,,,,U,167,star,1,0,,,,,,,,,,,,,,,,repeat,number,numRpt,k,0.7253,Lo,,,,,,0,,,,,,,,low,7,0,7,0,1,,,,,,,,,
297244,2022-12-06_24h21.10.666,vts_reward_expectancy_bt,2022.2.4,Win32,59.88382538,Chrome,1500,1000,,,,,10,672,,,,,,,,,,,,,,,,,H,139,triangle,1,0,,,,,,,,,,,,,,,,repeat,number,numRpt,j,0.5653,Hi,,,,,,0,,,,,,,,low,8,0,8,0,1,,,,,,,,,
297244,2022-12-06_24h21.10.666,vts_reward_expectancy_bt,2022.2.4,Win32,59.88382538,Chrome,1500,1000,,,,,1,673,,,,,,,,,,,,,,,,,B,146,circle,1,0,,,,,,,,,,,,,,,,repeat,number,numRpt,j,1.0251,Lo,,,,,,0,,,,,,,,low,9,0,9,0,1,,,,,,,,,
297244,2022-12-06_24h21.10.666,vts_reward_expectancy_bt,2022.2.4,Win32,59.88382538,Chrome,1500,1000,,,,,0,673,,,,,,,,,,,,,,,,,D,181,hexagon,1,0,,,,,,,,,,,,,,,,repeat,number,numRpt,k,1.3981,Hi,,,,,,0,,,,,,,,low,10,0,10,0,1,,,,,,,,,
297244,2022-12-06_24h21.10.666,vts_reward_expectancy_bt,2022.2.4,Win32,59.88382538,Chrome,1500,1000,,,,,1,674,,,,,,,,,,,,,,,,,Y,160,star,1,0,,,,,,,,,,,,,,,,repeat,number,numRpt,k,0.8247,Lo,,,,,,0,,,,,,,,low,11,0,11,0,1,,,,,,,,,
297244,2022-12-06_24h21.10.666,vts_reward_expectancy_bt,2022.2.4,Win32,59.88382538,Chrome,1500,1000,,,,,1,675,,,,,,,,,,,,,,,,,S,132,star,1,0,,,,,,,,,,,,,,,,repeat,number,numRpt,j,0.8673,Lo,,,,,,0,,,,,,,,low,12,0,12,0,1,,,,,,,,,
297244,2022-12-06_24h21.10.666,vts_reward_expectancy_bt,2022.2.4,Win32,59.88382538,Chrome,1500,1000,,,,,10,685,,,,,,,,,,,,,,,,,F,125,triangle,1,0,,,,,,,,,,,,,,,,repeat,number,numRpt,j,0.6182,Hi,,,,,,0,,,,,,,,low,13,0,13,0,1,,,,,,,,,
297244,2022-12-06_24h21.10.666,vts_reward_expectancy_bt,2022.2.4,Win32,59.88382538,Chrome,1500,1000,,,,,10,695,,,,,,,,,,,,,,,,,W,174,circle,1,0,,,,,,,,,,,,,,,,repeat,number,numRpt,k,1.3394,Lo,,,,,,0,,,,,,,,low,14,0,14,0,1,,,,,,,,,
297244,2022-12-06_24h21.10.666,vts_reward_expectancy_bt,2022.2.4,Win32,59.88382538,Chrome,1500,1000,,,,,0,695,,,,,,,,,,,,,,,,,U,167,hexagon,1,0,,,,,,,,,,,,,,,,repeat,number,numRpt,k,1.0015,Hi,,,,,,0,,,,,,,,low,15,0,15,0,1,,,,,,,,,
297244,2022-12-06_24h21.10.666,vts_reward_expectancy_bt,2022.2.4,Win32,59.88382538,Chrome,1500,1000,,,,,0,695,,,,,,,,,,,,,,,,,B,160,hexagon,1,0,,,,,,,,,,,,,,,,repeat,number,numRpt,k,0.8366,Hi,,,,,,0,,,,,,,,low,16,0,16,0,1,,,,,,,,,
297244,2022-12-06_24h21.10.666,vts_reward_expectancy_bt,2022.2.4,Win32,59.88382538,Chrome,1500,1000,,,,,0,695,,,,,,,,,,,,,,,,,Y,139,triangle,0,0,,,,,,,,,,,,,,,,repeat,number,NA,k,0.8355,Hi,,,,,,0,,,,,,,,low,17,0,17,0,1,,,,,,,,,
297244,2022-12-06_24h21.10.666,vts_reward_expectancy_bt,2022.2.4,Win32,59.88382538,Chrome,1500,1000,,,,,10,705,,,,,,,,,,,,,,,,,F,146,star,1,1,,,,,,,,,,,,,,,,repeat,number,numRpt,j,0.4253,Lo,,,,,,0,,,,,,,,low,18,0,18,0,1,,,,,,,,,
297244,2022-12-06_24h21.10.666,vts_reward_expectancy_bt,2022.2.4,Win32,59.88382538,Chrome,1500,1000,,,,,1,706,,,,,,,,,,,,,,,,,W,125,circle,1,0,,,,,,,,,,,,,,,,repeat,number,numRpt,j,0.7659,Lo,,,,,,0,,,,,,,,low,19,0,19,0,1,,,,,,,,,
297244,2022-12-06_24h21.10.666,vts_reward_expectancy_bt,2022.2.4,Win32,59.88382538,Chrome,1500,1000,,,,,0,706,,,,,,,,,,,,,,,,,U,174,circle,0,0,,,,,,,,,,,,,,,,repeat,number,NA,j,0.5625,Lo,,,,,,0,,,,,,,,low,20,0,20,0,1,,,,,,,,,
297244,2022-12-06_24h21.10.666,vts_reward_expectancy_bt,2022.2.4,Win32,59.88382538,Chrome,1500,1000,,,,,0,706,,,,,,,,,,,,,,,,,D,132,star,0,1,,,,,,,,,,,,,,,,repeat,number,NA,k,1.003,Lo,,,,,,0,,,,,,,,low,21,0,21,0,1,,,,,,,,,
297244,2022-12-06_24h21.10.666,vts_reward_expectancy_bt,2022.2.4,Win32,59.88382538,Chrome,1500,1000,,,,,0,706,,,,,,,,,,,,,,,,,H,181,triangle,1,1,,,,,,,,,,,,,,,,switch,letter,lettSwt,d,0.7021,Hi,,,,,,0,,,,,,,,low,22,0,22,0,1,,,,,,,,,
297244,2022-12-06_24h21.10.666,vts_reward_expectancy_bt,2022.2.4,Win32,59.88382538,Chrome,1500,1000,,,,,0,706,,,,,,,,,,,,,,,,,S,167,hexagon,0,0,,,,,,,,,,,,,,,,repeat,letter,NA,d,0.5709,Hi,,,,,,0,,,,,,,,low,23,0,23,0,1,,,,,,,,,
297244,2022-12-06_24h21.10.666,vts_reward_expectancy_bt,2022.2.4,Win32,59.88382538,Chrome,1500,1000,,,,,0,706,,,,,,,,,,,,,,,,,U,174,circle,0,1,,,,,,,,,,,,,,,,repeat,letter,NA,d,0.7339,Hi,,,,,,0,,,,,,,,low,24,0,24,0,1,,,,,,,,,
297244,2022-12-06_24h21.10.666,vts_reward_expectancy_bt,2022.2.4,Win32,59.88382538,Chrome,1500,1000,,,,,1,707,,,,,,,,,,,,,,,,,B,125,star,1,1,,,,,,,,,,,,,,,,repeat,letter,lettRpt,d,0.8412,Lo,,,,,,0,,,,,,,,low,25,0,25,0,1,,,,,,,,,
297244,2022-12-06_24h21.10.666,vts_reward_expectancy_bt,2022.2.4,Win32,59.88382538,Chrome,1500,1000,,,,,10,717,,,,,,,,,,,,,,,,,F,132,triangle,1,0,,,,,,,,,,,,,,,,repeat,letter,lettRpt,d,0.673,Hi,,,,,,0,,,,,,,,low,26,0,26,0,1,,,,,,,,,
297244,2022-12-06_24h21.10.666,vts_reward_expectancy_bt,2022.2.4,Win32,59.88382538,Chrome,1500,1000,,,,,0,717,,,,,,,,,,,,,,,,,S,167,hexagon,1,0,,,,,,,,,,,,,,,,repeat,letter,lettRpt,f,1.1039,Hi,,,,,,0,,,,,,,,low,27,0,27,0,1,,,,,,,,,
297244,2022-12-06_24h21.10.666,vts_reward_expectancy_bt,2022.2.4,Win32,59.88382538,Chrome,1500,1000,,,,,0,717,,,,,,,,,,,,,,,,,Y,146,hexagon,1,0,,,,,,,,,,,,,,,,repeat,letter,lettRpt,f,0.8712,Hi,,,,,,0,,,,,,,,low,28,0,28,0,1,,,,,,,,,
297244,2022-12-06_24h21.10.666,vts_reward_expectancy_bt,2022.2.4,Win32,59.88382538,Chrome,1500,1000,,,,,1,718,,,,,,,,,,,,,,,,,W,160,star,1,0,,,,,,,,,,,,,,,,repeat,letter,lettRpt,f,0.7149,Lo,,,,,,0,,,,,,,,low,29,0,29,0,1,,,,,,,,,
297244,2022-12-06_24h21.10.666,vts_reward_expectancy_bt,2022.2.4,Win32,59.88382538,Chrome,1500,1000,,,,,1,719,,,,,,,,,,,,,,,,,D,139,triangle,1,0,,,,,,,,,,,,,,,,repeat,letter,lettRpt,d,0.6179,Hi,,,,,,0,,,,,,,,low,30,0,30,0,1,,,,,,,,,
297244,2022-12-06_24h21.10.666,vts_reward_expectancy_bt,2022.2.4,Win32,59.88382538,Chrome,1500,1000,,,,,1,720,,,,,,,,,,,,,,,,,H,181,circle,1,0,,,,,,,,,,,,,,,,repeat,letter,lettRpt,d,0.7455,Lo,,,,,,0,,,,,,,,low,31,0,31,0,1,,,,,,,,,
297244,2022-12-06_24h21.10.666,vts_reward_expectancy_bt,2022.2.4,Win32,59.88382538,Chrome,1500,1000,,,,,10,730,,,,,,,,,,,,,,,,,H,174,hexagon,1,0,,,,,,,,,,,,,,,,switch,number,numSwt,k,0.7375,Hi,,,,,,1,,,,,,space,1.2916,low,0,0,0,0,1,,,,,,,,,
297244,2022-12-06_24h21.10.666,vts_reward_expectancy_bt,2022.2.4,Win32,59.88382538,Chrome,1500,1000,,,,,10,740,,,,,,,,,,,,,,,,,F,125,star,1,0,,,,,,,,,,,,,,,,repeat,number,numRpt,j,0.6328,Lo,,,,,,1,,,,,,,,low,1,0,1,0,1,,,,,,,,,
297244,2022-12-06_24h21.10.666,vts_reward_expectancy_bt,2022.2.4,Win32,59.88382538,Chrome,1500,1000,,,,,0,740,,,,,,,,,,,,,,,,,D,146,circle,0,0,,,,,,,,,,,,,,,,repeat,number,NA,k,0.8669,Lo,,,,,,1,,,,,,,,low,2,0,2,0,1,,,,,,,,,
297244,2022-12-06_24h21.10.666,vts_reward_expectancy_bt,2022.2.4,Win32,59.88382538,Chrome,1500,1000,,,,,0,740,,,,,,,,,,,,,,,,,S,167,triangle,0,1,,,,,,,,,,,,,,,,repeat,number,NA,j,1.1187,Lo,,,,,,1,,,,,,,,low,3,0,3,0,1,,,,,,,,,
297244,2022-12-06_24h21.10.666,vts_reward_expectancy_bt,2022.2.4,Win32,59.88382538,Chrome,1500,1000,,,,,0,740,,,,,,,,,,,,,,,,,U,139,hexagon,1,1,,,,,,,,,,,,,,,,repeat,number,numRpt,j,0.8391,Hi,,,,,,1,,,,,,,,low,4,0,4,0,1,,,,,,,,,
297244,2022-12-06_24h21.10.666,vts_reward_expectancy_bt,2022.2.4,Win32,59.88382538,Chrome,1500,1000,,,,,1,741,,,,,,,,,,,,,,,,,Y,132,star,1,0,,,,,,,,,,,,,,,,repeat,number,numRpt,j,0.7403,Lo,,,,,,1,,,,,,,,low,5,0,5,0,1,,,,,,,,,
297244,2022-12-06_24h21.10.666,vts_reward_expectancy_bt,2022.2.4,Win32,59.88382538,Chrome,1500,1000,,,,,1,742,,,,,,,,,,,,,,,,,B,181,circle,1,0,,,,,,,,,,,,,,,,repeat,number,numRpt,k,0.6582,Lo,,,,,,1,,,,,,,,low,6,0,6,0,1,,,,,,,,,
297244,2022-12-06_24h21.10.666,vts_reward_expectancy_bt,2022.2.4,Win32,59.88382538,Chrome,1500,1000,,,,,10,752,,,,,,,,,,,,,,,,,W,160,triangle,1,0,,,,,,,,,,,,,,,,repeat,number,numRpt,k,0.513,Hi,,,,,,1,,,,,,,,low,7,0,7,0,1,,,,,,,,,
297244,2022-12-06_24h21.10.666,vts_reward_expectancy_bt,2022.2.4,Win32,59.88382538,Chrome,1500,1000,,,,,1,753,,,,,,,,,,,,,,,,,H,174,hexagon,1,0,,,,,,,,,,,,,,,,repeat,number,numRpt,k,0.5578,Hi,,,,,,1,,,,,,,,low,8,0,8,0,1,,,,,,,,,
297244,2022-12-06_24h21.10.666,vts_reward_expectancy_bt,2022.2.4,Win32,59.88382538,Chrome,1500,1000,,,,,10,763,,,,,,,,,,,,,,,,,F,125,star,1,0,,,,,,,,,,,,,,,,repeat,number,numRpt,j,0.5177,Lo,,,,,,1,,,,,,,,low,9,0,9,0,1,,,,,,,,,
297244,2022-12-06_24h21.10.666,vts_reward_expectancy_bt,2022.2.4,Win32,59.88382538,Chrome,1500,1000,,,,,10,773,,,,,,,,,,,,,,,,,D,146,triangle,1,0,,,,,,,,,,,,,,,,repeat,number,numRpt,j,0.6922,Hi,,,,,,1,,,,,,,,low,10,0,10,0,1,,,,,,,,,
297244,2022-12-06_24h21.10.666,vts_reward_expectancy_bt,2022.2.4,Win32,59.88382538,Chrome,1500,1000,,,,,1,774,,,,,,,,,,,,,,,,,S,167,circle,1,0,,,,,,,,,,,,,,,,repeat,number,numRpt,k,0.7731,Lo,,,,,,1,,,,,,,,low,11,0,11,0,1,,,,,,,,,
297244,2022-12-06_24h21.10.666,vts_reward_expectancy_bt,2022.2.4,Win32,59.88382538,Chrome,1500,1000,,,,,0,774,,,,,,,,,,,,,,,,,U,139,hexagon,1,0,,,,,,,,,,,,,,,,repeat,number,numRpt,j,0.7335,Hi,,,,,,1,,,,,,,,low,12,0,12,0,1,,,,,,,,,
297244,2022-12-06_24h21.10.666,vts_reward_expectancy_bt,2022.2.4,Win32,59.88382538,Chrome,1500,1000,,,,,10,784,,,,,,,,,,,,,,,,,Y,132,circle,1,0,,,,,,,,,,,,,,,,repeat,number,numRpt,j,0.7085,Lo,,,,,,1,,,,,,,,low,13,0,13,0,1,,,,,,,,,
297244,2022-12-06_24h21.10.666,vts_reward_expectancy_bt,2022.2.4,Win32,59.88382538,Chrome,1500,1000,,,,,0,784,,,,,,,,,,,,,,,,,B,181,triangle,0,0,,,,,,,,,,,,,,,,repeat,number,NA,j,0.3837,Lo,,,,,,1,,,,,,,,low,14,0,14,0,1,,,,,,,,,
297244,2022-12-06_24h21.10.666,vts_reward_expectancy_bt,2022.2.4,Win32,59.88382538,Chrome,1500,1000,,,,,0,784,,,,,,,,,,,,,,,,,W,160,star,0,1,,,,,,,,,,,,,,,,repeat,number,NA,j,0.9178,Lo,,,,,,1,,,,,,,,low,15,0,15,0,1,,,,,,,,,
297244,2022-12-06_24h21.10.666,vts_reward_expectancy_bt,2022.2.4,Win32,59.88382538,Chrome,1500,1000,,,,,0,784,,,,,,,,,,,,,,,,,B,174,circle,0,1,,,,,,,,,,,,,,,,repeat,number,NA,j,0.4533,Lo,,,,,,1,,,,,,,,low,16,0,16,0,1,,,,,,,,,
297244,2022-12-06_24h21.10.666,vts_reward_expectancy_bt,2022.2.4,Win32,59.88382538,Chrome,1500,1000,,,,,1,785,,,,,,,,,,,,,,,,,W,125,hexagon,1,1,,,,,,,,,,,,,,,,repeat,number,numRpt,j,0.4893,Hi,,,,,,1,,,,,,,,low,17,0,17,0,1,,,,,,,,,
297244,2022-12-06_24h21.10.666,vts_reward_expectancy_bt,2022.2.4,Win32,59.88382538,Chrome,1500,1000,,,,,10,795,,,,,,,,,,,,,,,,,H,160,star,1,0,,,,,,,,,,,,,,,,repeat,number,numRpt,k,0.7998,Lo,,,,,,1,,,,,,,,low,18,0,18,0,1,,,,,,,,,
297244,2022-12-06_24h21.10.666,vts_reward_expectancy_bt,2022.2.4,Win32,59.88382538,Chrome,1500,1000,,,,,10,805,,,,,,,,,,,,,,,,,Y,132,triangle,1,0,,,,,,,,,,,,,,,,repeat,number,numRpt,j,0.539,Hi,,,,,,1,,,,,,,,low,19,0,19,0,1,,,,,,,,,
297244,2022-12-06_24h21.10.666,vts_reward_expectancy_bt,2022.2.4,Win32,59.88382538,Chrome,1500,1000,,,,,10,815,,,,,,,,,,,,,,,,,S,146,triangle,1,0,,,,,,,,,,,,,,,,switch,letter,lettSwt,f,0.6838,Hi,,,,,,1,,,,,,,,low,20,0,20,0,1,,,,,,,,,
297244,2022-12-06_24h21.10.666,vts_reward_expectancy_bt,2022.2.4,Win32,59.88382538,Chrome,1500,1000,,,,,1,816,,,,,,,,,,,,,,,,,D,167,star,1,0,,,,,,,,,,,,,,,,repeat,letter,lettRpt,d,0.5734,Lo,,,,,,1,,,,,,,,low,21,0,21,0,1,,,,,,,,,
297244,2022-12-06_24h21.10.666,vts_reward_expectancy_bt,2022.2.4,Win32,59.88382538,Chrome,1500,1000,,,,,1,817,,,,,,,,,,,,,,,,,U,139,circle,1,0,,,,,,,,,,,,,,,,repeat,letter,lettRpt,f,0.9604,Lo,,,,,,1,,,,,,,,low,22,0,22,0,1,,,,,,,,,
297244,2022-12-06_24h21.10.666,vts_reward_expectancy_bt,2022.2.4,Win32,59.88382538,Chrome,1500,1000,,,,,0,817,,,,,,,,,,,,,,,,,F,181,hexagon,1,0,,,,,,,,,,,,,,,,repeat,letter,lettRpt,d,0.8979,Hi,,,,,,1,,,,,,,,low,23,0,23,0,1,,,,,,,,,
297244,2022-12-06_24h21.10.666,vts_reward_expectancy_bt,2022.2.4,Win32,59.88382538,Chrome,1500,1000,,,,,10,827,,,,,,,,,,,,,,,,,Y,146,star,1,0,,,,,,,,,,,,,,,,repeat,letter,lettRpt,f,0.9156,Lo,,,,,,1,,,,,,,,low,24,0,24,0,1,,,,,,,,,
297244,2022-12-06_24h21.10.666,vts_reward_expectancy_bt,2022.2.4,Win32,59.88382538,Chrome,1500,1000,,,,,0,827,,,,,,,,,,,,,,,,,S,160,triangle,1,0,,,,,,,,,,,,,,,,repeat,letter,lettRpt,f,0.9272,Hi,,,,,,1,,,,,,,,low,25,0,25,0,1,,,,,,,,,
297244,2022-12-06_24h21.10.666,vts_reward_expectancy_bt,2022.2.4,Win32,59.88382538,Chrome,1500,1000,,,,,1,828,,,,,,,,,,,,,,,,,W,125,circle,1,0,,,,,,,,,,,,,,,,repeat,letter,lettRpt,f,0.6617,Lo,,,,,,1,,,,,,,,low,26,0,26,0,1,,,,,,,,,
297244,2022-12-06_24h21.10.666,vts_reward_expectancy_bt,2022.2.4,Win32,59.88382538,Chrome,1500,1000,,,,,0,828,,,,,,,,,,,,,,,,,U,132,hexagon,1,0,,,,,,,,,,,,,,,,repeat,letter,lettRpt,f,0.8622,Hi,,,,,,1,,,,,,,,low,27,0,27,0,1,,,,,,,,,
297244,2022-12-06_24h21.10.666,vts_reward_expectancy_bt,2022.2.4,Win32,59.88382538,Chrome,1500,1000,,,,,10,838,,,,,,,,,,,,,,,,,F,139,circle,1,0,,,,,,,,,,,,,,,,repeat,letter,lettRpt,d,0.9061,Lo,,,,,,1,,,,,,,,low,28,0,28,0,1,,,,,,,,,
297244,2022-12-06_24h21.10.666,vts_reward_expectancy_bt,2022.2.4,Win32,59.88382538,Chrome,1500,1000,,,,,10,848,,,,,,,,,,,,,,,,,B,167,star,1,0,,,,,,,,,,,,,,,,repeat,letter,lettRpt,d,0.6208,Lo,,,,,,1,,,,,,,,low,29,0,29,0,1,,,,,,,,,
297244,2022-12-06_24h21.10.666,vts_reward_expectancy_bt,2022.2.4,Win32,59.88382538,Chrome,1500,1000,,,,,1,849,,,,,,,,,,,,,,,,,D,181,triangle,1,0,,,,,,,,,,,,,,,,repeat,letter,lettRpt,d,0.5568,Hi,,,,,,1,,,,,,,,low,30,0,30,0,1,,,,,,,,,
297244,2022-12-06_24h21.10.666,vts_reward_expectancy_bt,2022.2.4,Win32,59.88382538,Chrome,1500,1000,,,,,0,849,,,,,,,,,,,,,,,,,H,174,hexagon,1,0,,,,,,,,,,,,,,,,repeat,letter,lettRpt,d,0.8875,Hi,,,,,,1,,,,,,,,low,31,0,31,0,1,,,,,,,,,
297244,2022-12-06_24h21.10.666,vts_reward_expectancy_bt,2022.2.4,Win32,59.88382538,Chrome,1500,1000,,,,,0,849,,,,,,,,,,,,,,,,,F,167,triangle,1,0,,,,,,,,,,,,,,,,repeat,letter,lettRpt,d,0.882,Hi,,,,,,2,,,,,,space,0.8911,low,0,0,0,0,1,,,,,,,,,
297244,2022-12-06_24h21.10.666,vts_reward_expectancy_bt,2022.2.4,Win32,59.88382538,Chrome,1500,1000,,,,,10,859,,,,,,,,,,,,,,,,,Y,174,star,1,0,,,,,,,,,,,,,,,,repeat,letter,lettRpt,f,0.8138,Lo,,,,,,2,,,,,,,,low,1,0,1,0,1,,,,,,,,,
297244,2022-12-06_24h21.10.666,vts_reward_expectancy_bt,2022.2.4,Win32,59.88382538,Chrome,1500,1000,,,,,0,859,,,,,,,,,,,,,,,,,D,160,hexagon,1,0,,,,,,,,,,,,,,,,repeat,letter,lettRpt,d,0.7583,Hi,,,,,,2,,,,,,,,low,2,0,2,0,1,,,,,,,,,
297244,2022-12-06_24h21.10.666,vts_reward_expectancy_bt,2022.2.4,Win32,59.88382538,Chrome,1500,1000,,,,,0,859,,,,,,,,,,,,,,,,,U,125,circle,0,0,,,,,,,,,,,,,,,,repeat,letter,NA,d,0.6673,Hi,,,,,,2,,,,,,,,low,3,0,3,0,1,,,,,,,,,
297244,2022-12-06_24h21.10.666,vts_reward_expectancy_bt,2022.2.4,Win32,59.88382538,Chrome,1500,1000,,,,,0,859,,,,,,,,,,,,,,,,,H,139,triangle,1,1,,,,,,,,,,,,,,,,repeat,letter,lettRpt,d,0.7344,Hi,,,,,,2,,,,,,,,low,4,0,4,0,1,,,,,,,,,
297244,2022-12-06_24h21.10.666,vts_reward_expectancy_bt,2022.2.4,Win32,59.88382538,Chrome,1500,1000,,,,,0,859,,,,,,,,,,,,,,,,,S,181,star,0,0,,,,,,,,,,,,,,,,repeat,letter,NA,d,0.4907,Hi,,,,,,2,,,,,,,,low,5,0,5,0,1,,,,,,,,,
297244,2022-12-06_24h21.10.666,vts_reward_expectancy_bt,2022.2.4,Win32,59.88382538,Chrome,1500,1000,,,,,1,860,,,,,,,,,,,,,,,,,B,132,hexagon,1,1,,,,,,,,,,,,,,,,repeat,letter,lettRpt,d,0.5682,Hi,,,,,,2,,,,,,,,low,6,0,6,0,1,,,,,,,,,
297244,2022-12-06_24h21.10.666,vts_reward_expectancy_bt,2022.2.4,Win32,59.88382538,Chrome,1500,1000,,,,,10,870,,,,,,,,,,,,,,,,,W,146,circle,1,0,,,,,,,,,,,,,,,,repeat,letter,lettRpt,f,0.7684,Lo,,,,,,2,,,,,,,,low,7,0,7,0,1,,,,,,,,,
297244,2022-12-06_24h21.10.666,vts_reward_expectancy_bt,2022.2.4,Win32,59.88382538,Chrome,1500,1000,,,,,10,880,,,,,,,,,,,,,,,,,F,167,star,1,0,,,,,,,,,,,,,,,,repeat,letter,lettRpt,d,0.8701,Lo,,,,,,2,,,,,,,,low,8,0,8,0,1,,,,,,,,,
297244,2022-12-06_24h21.10.666,vts_reward_expectancy_bt,2022.2.4,Win32,59.88382538,Chrome,1500,1000,,,,,1,881,,,,,,,,,,,,,,,,,Y,174,circle,1,0,,,,,,,,,,,,,,,,repeat,letter,lettRpt,f,0.6828,Lo,,,,,,2,,,,,,,,low,9,0,9,0,1,,,,,,,,,
297244,2022-12-06_24h21.10.666,vts_reward_expectancy_bt,2022.2.4,Win32,59.88382538,Chrome,1500,1000,,,,,10,891,,,,,,,,,,,,,,,,,D,160,triangle,1,0,,,,,,,,,,,,,,,,repeat,letter,lettRpt,d,0.6025,Hi,,,,,,2,,,,,,,,low,10,0,10,0,1,,,,,,,,,
297244,2022-12-06_24h21.10.666,vts_reward_expectancy_bt,2022.2.4,Win32,59.88382538,Chrome,1500,1000,,,,,0,891,,,,,,,,,,,,,,,,,U,125,hexagon,1,0,,,,,,,,,,,,,,,,repeat,letter,lettRpt,f,0.8052,Hi,,,,,,2,,,,,,,,low,11,0,11,0,1,,,,,,,,,
297244,2022-12-06_24h21.10.666,vts_reward_expectancy_bt,2022.2.4,Win32,59.88382538,Chrome,1500,1000,,,,,10,901,,,,,,,,,,,,,,,,,H,139,circle,1,0,,,,,,,,,,,,,,,,repeat,letter,lettRpt,d,0.6477,Lo,,,,,,2,,,,,,,,low,12,0,12,0,1,,,,,,,,,
297244,2022-12-06_24h21.10.666,vts_reward_expectancy_bt,2022.2.4,Win32,59.88382538,Chrome,1500,1000,,,,,0,901,,,,,,,,,,,,,,,,,S,181,triangle,1,0,,,,,,,,,,,,,,,,switch,number,numSwt,k,0.9033,Hi,,,,,,2,,,,,,,,low,13,0,13,0,1,,,,,,,,,
297244,2022-12-06_24h21.10.666,vts_reward_expectancy_bt,2022.2.4,Win32,59.88382538,Chrome,1500,1000,,,,,0,901,,,,,,,,,,,,,,,,,B,132,hexagon,1,0,,,,,,,,,,,,,,,,repeat,number,numRpt,j,0.6158,Hi,,,,,,2,,,,,,,,low,14,0,14,0,1,,,,,,,,,
297244,2022-12-06_24h21.10.666,vts_reward_expectancy_bt,2022.2.4,Win32,59.88382538,Chrome,1500,1000,,,,,1,902,,,,,,,,,,,,,,,,,W,146,star,1,0,,,,,,,,,,,,,,,,repeat,number,numRpt,j,0.8104,Lo,,,,,,2,,,,,,,,low,15,0,15,0,1,,,,,,,,,
297244,2022-12-06_24h21.10.666,vts_reward_expectancy_bt,2022.2.4,Win32,59.88382538,Chrome,1500,1000,,,,,1,903,,,,,,,,,,,,,,,,,Y,125,star,1,0,,,,,,,,,,,,,,,,repeat,number,numRpt,j,0.7341,Lo,,,,,,2,,,,,,,,low,16,0,16,0,1,,,,,,,,,
297244,2022-12-06_24h21.10.666,vts_reward_expectancy_bt,2022.2.4,Win32,59.88382538,Chrome,1500,1000,,,,,1,904,,,,,,,,,,,,,,,,,S,167,circle,1,0,,,,,,,,,,,,,,,,repeat,number,numRpt,k,1.0012,Lo,,,,,,2,,,,,,,,low,17,0,17,0,1,,,,,,,,,
297244,2022-12-06_24h21.10.666,vts_reward_expectancy_bt,2022.2.4,Win32,59.88382538,Chrome,1500,1000,,,,,0,904,,,,,,,,,,,,,,,,,H,160,hexagon,1,0,,,,,,,,,,,,,,,,repeat,number,numRpt,k,1.0349,Hi,,,,,,2,,,,,,,,low,18,0,18,0,1,,,,,,,,,
297244,2022-12-06_24h21.10.666,vts_reward_expectancy_bt,2022.2.4,Win32,59.88382538,Chrome,1500,1000,,,,,0,904,,,,,,,,,,,,,,,,,W,139,triangle,1,0,,,,,,,,,,,,,,,,repeat,number,numRpt,j,0.8258,Hi,,,,,,2,,,,,,,,low,19,0,19,0,1,,,,,,,,,
297244,2022-12-06_24h21.10.666,vts_reward_expectancy_bt,2022.2.4,Win32,59.88382538,Chrome,1500,1000,,,,,10,914,,,,,,,,,,,,,,,,,D,174,circle,1,0,,,,,,,,,,,,,,,,repeat,number,numRpt,k,1.0514,Lo,,,,,,2,,,,,,,,low,20,0,20,0,1,,,,,,,,,
297244,2022-12-06_24h21.10.666,vts_reward_expectancy_bt,2022.2.4,Win32,59.88382538,Chrome,1500,1000,,,,,1,915,,,,,,,,,,,,,,,,,B,181,star,1,0,,,,,,,,,,,,,,,,repeat,number,numRpt,k,1.1859,Lo,,,,,,2,,,,,,,,low,21,0,21,0,1,,,,,,,,,
297244,2022-12-06_24h21.10.666,vts_reward_expectancy_bt,2022.2.4,Win32,59.88382538,Chrome,1500,1000,,,,,0,915,,,,,,,,,,,,,,,,,F,132,triangle,1,0,,,,,,,,,,,,,,,,repeat,number,numRpt,j,0.8195,Hi,,,,,,2,,,,,,,,low,22,0,22,0,1,,,,,,,,,
297244,2022-12-06_24h21.10.666,vts_reward_expectancy_bt,2022.2.4,Win32,59.88382538,Chrome,1500,1000,,,,,0,915,,,,,,,,,,,,,,,,,U,146,hexagon,0,0,,,,,,,,,,,,,,,,repeat,number,NA,k,0.6833,Hi,,,,,,2,,,,,,,,low,23,0,23,0,1,,,,,,,,,
297244,2022-12-06_24h21.10.666,vts_reward_expectancy_bt,2022.2.4,Win32,59.88382538,Chrome,1500,1000,,,,,1,916,,,,,,,,,,,,,,,,,H,174,star,1,1,,,,,,,,,,,,,,,,repeat,number,numRpt,k,1.373,Lo,,,,,,2,,,,,,,,low,24,0,24,0,1,,,,,,,,,
297244,2022-12-06_24h21.10.666,vts_reward_expectancy_bt,2022.2.4,Win32,59.88382538,Chrome,1500,1000,,,,,10,926,,,,,,,,,,,,,,,,,U,146,circle,1,0,,,,,,,,,,,,,,,,repeat,number,numRpt,j,1.3175,Lo,,,,,,2,,,,,,,,low,25,0,25,0,1,,,,,,,,,
297244,2022-12-06_24h21.10.666,vts_reward_expectancy_bt,2022.2.4,Win32,59.88382538,Chrome,1500,1000,,,,,0,926,,,,,,,,,,,,,,,,,W,125,triangle,1,0,,,,,,,,,,,,,,,,repeat,number,numRpt,j,0.8187,Hi,,,,,,2,,,,,,,,low,26,0,26,0,1,,,,,,,,,
297244,2022-12-06_24h21.10.666,vts_reward_expectancy_bt,2022.2.4,Win32,59.88382538,Chrome,1500,1000,,,,,0,926,,,,,,,,,,,,,,,,,B,181,hexagon,1,0,,,,,,,,,,,,,,,,repeat,number,numRpt,k,0.8061,Hi,,,,,,2,,,,,,,,low,27,0,27,0,1,,,,,,,,,
297244,2022-12-06_24h21.10.666,vts_reward_expectancy_bt,2022.2.4,Win32,59.88382538,Chrome,1500,1000,,,,,1,927,,,,,,,,,,,,,,,,,Y,160,star,1,0,,,,,,,,,,,,,,,,repeat,number,numRpt,k,0.6504,Lo,,,,,,2,,,,,,,,low,28,0,28,0,1,,,,,,,,,
297244,2022-12-06_24h21.10.666,vts_reward_expectancy_bt,2022.2.4,Win32,59.88382538,Chrome,1500,1000,,,,,1,928,,,,,,,,,,,,,,,,,S,132,circle,1,0,,,,,,,,,,,,,,,,repeat,number,numRpt,j,1.4328,Lo,,,,,,2,,,,,,,,low,29,0,29,0,1,,,,,,,,,
297244,2022-12-06_24h21.10.666,vts_reward_expectancy_bt,2022.2.4,Win32,59.88382538,Chrome,1500,1000,,,,,0,928,,,,,,,,,,,,,,,,,F,167,hexagon,1,0,,,,,,,,,,,,,,,,repeat,number,numRpt,k,1.1351,Hi,,,,,,2,,,,,,,,low,30,0,30,0,1,,,,,,,,,
297244,2022-12-06_24h21.10.666,vts_reward_expectancy_bt,2022.2.4,Win32,59.88382538,Chrome,1500,1000,,,,,0,928,,,,,,,,,,,,,,,,,D,139,triangle,1,0,,,,,,,,,,,,,,,,repeat,number,numRpt,j,0.9124,Hi,,,,,,2,,,,,,,,low,31,0,31,0,1,,,,,,,,,
297244,2022-12-06_24h21.10.666,vts_reward_expectancy_bt,2022.2.4,Win32,59.88382538,Chrome,1500,1000,,,,,1,929,,,,,,,,,,,,,,,,,W,146,star,1,0,,,,,,,,,,,,,,,,repeat,number,numRpt,j,0.6537,Lo,,,,,,3,,,,,,space,0.8124,low,0,0,0,0,1,,,,,,,,,
297244,2022-12-06_24h21.10.666,vts_reward_expectancy_bt,2022.2.4,Win32,59.88382538,Chrome,1500,1000,,,,,1,930,,,,,,,,,,,,,,,,,F,181,circle,1,0,,,,,,,,,,,,,,,,repeat,number,numRpt,k,0.3796,Lo,,,,,,3,,,,,,,,low,1,0,1,0,1,,,,,,,,,
297244,2022-12-06_24h21.10.666,vts_reward_expectancy_bt,2022.2.4,Win32,59.88382538,Chrome,1500,1000,,,,,10,940,,,,,,,,,,,,,,,,,S,125,hexagon,1,0,,,,,,,,,,,,,,,,repeat,number,numRpt,j,0.5781,Hi,,,,,,3,,,,,,,,low,2,0,2,0,1,,,,,,,,,
297244,2022-12-06_24h21.10.666,vts_reward_expectancy_bt,2022.2.4,Win32,59.88382538,Chrome,1500,1000,,,,,1,941,,,,,,,,,,,,,,,,,B,132,triangle,1,0,,,,,,,,,,,,,,,,repeat,number,numRpt,j,0.5774,Hi,,,,,,3,,,,,,,,low,3,0,3,0,1,,,,,,,,,
297244,2022-12-06_24h21.10.666,vts_reward_expectancy_bt,2022.2.4,Win32,59.88382538,Chrome,1500,1000,,,,,0,941,,,,,,,,,,,,,,,,,Y,167,star,0,0,,,,,,,,,,,,,,,,repeat,number,NA,j,0.5158,Hi,,,,,,3,,,,,,,,low,4,0,4,0,1,,,,,,,,,
297244,2022-12-06_24h21.10.666,vts_reward_expectancy_bt,2022.2.4,Win32,59.88382538,Chrome,1500,1000,,,,,1,942,,,,,,,,,,,,,,,,,H,139,circle,1,1,,,,,,,,,,,,,,,,repeat,number,numRpt,j,0.6671,Lo,,,,,,3,,,,,,,,low,5,0,5,0,1,,,,,,,,,
297244,2022-12-06_24h21.10.666,vts_reward_expectancy_bt,2022.2.4,Win32,59.88382538,Chrome,1500,1000,,,,,1,943,,,,,,,,,,,,,,,,,U,160,hexagon,1,0,,,,,,,,,,,,,,,,repeat,number,numRpt,k,0.639,Hi,,,,,,3,,,,,,,,low,6,0,6,0,1,,,,,,,,,
297244,2022-12-06_24h21.10.666,vts_reward_expectancy_bt,2022.2.4,Win32,59.88382538,Chrome,1500,1000,,,,,10,953,,,,,,,,,,,,,,,,,D,174,triangle,1,0,,,,,,,,,,,,,,,,repeat,number,numRpt,k,0.6003,Hi,,,,,,3,,,,,,,,low,7,0,7,0,1,,,,,,,,,
297244,2022-12-06_24h21.10.666,vts_reward_expectancy_bt,2022.2.4,Win32,59.88382538,Chrome,1500,1000,,,,,1,954,,,,,,,,,,,,,,,,,W,146,star,1,0,,,,,,,,,,,,,,,,repeat,number,numRpt,j,0.5732,Lo,,,,,,3,,,,,,,,low,8,0,8,0,1,,,,,,,,,
297244,2022-12-06_24h21.10.666,vts_reward_expectancy_bt,2022.2.4,Win32,59.88382538,Chrome,1500,1000,,,,,1,955,,,,,,,,,,,,,,,,,F,181,circle,1,0,,,,,,,,,,,,,,,,repeat,number,numRpt,k,0.3674,Lo,,,,,,3,,,,,,,,low,9,0,9,0,1,,,,,,,,,
297244,2022-12-06_24h21.10.666,vts_reward_expectancy_bt,2022.2.4,Win32,59.88382538,Chrome,1500,1000,,,,,10,965,,,,,,,,,,,,,,,,,S,125,hexagon,1,0,,,,,,,,,,,,,,,,repeat,number,numRpt,j,0.3838,Hi,,,,,,3,,,,,,,,low,10,0,10,0,1,,,,,,,,,
297244,2022-12-06_24h21.10.666,vts_reward_expectancy_bt,2022.2.4,Win32,59.88382538,Chrome,1500,1000,,,,,0,965,,,,,,,,,,,,,,,,,B,132,triangle,0,0,,,,,,,,,,,,,,,,repeat,number,NA,k,0.4003,Hi,,,,,,3,,,,,,,,low,11,0,11,0,1,,,,,,,,,
297244,2022-12-06_24h21.10.666,vts_reward_expectancy_bt,2022.2.4,Win32,59.88382538,Chrome,1500,1000,,,,,0,965,,,,,,,,,,,,,,,,,Y,167,star,0,1,,,,,,,,,,,,,,,,repeat,number,NA,j,0.5404,Hi,,,,,,3,,,,,,,,low,12,0,12,0,1,,,,,,,,,
297244,2022-12-06_24h21.10.666,vts_reward_expectancy_bt,2022.2.4,Win32,59.88382538,Chrome,1500,1000,,,,,0,965,,,,,,,,,,,,,,,,,H,139,hexagon,1,1,,,,,,,,,,,,,,,,repeat,number,numRpt,j,0.9008,Hi,,,,,,3,,,,,,,,low,13,0,13,0,1,,,,,,,,,
297244,2022-12-06_24h21.10.666,vts_reward_expectancy_bt,2022.2.4,Win32,59.88382538,Chrome,1500,1000,,,,,1,966,,,,,,,,,,,,,,,,,U,160,circle,1,0,,,,,,,,,,,,,,,,repeat,number,numRpt,k,0.6923,Lo,,,,,,3,,,,,,,,low,14,0,14,0,1,,,,,,,,,
297244,2022-12-06_24h21.10.666,vts_reward_expectancy_bt,2022.2.4,Win32,59.88382538,Chrome,1500,1000,,,,,10,976,,,,,,,,,,,,,,,,,D,174,triangle,1,0,,,,,,,,,,,,,,,,repeat,number,numRpt,k,0.7511,Hi,,,,,,3,,,,,,,,low,15,0,15,0,1,,,,,,,,,
297244,2022-12-06_24h21.10.666,vts_reward_expectancy_bt,2022.2.4,Win32,59.88382538,Chrome,1500,1000,,,,,1,977,,,,,,,,,,,,,,,,,S,139,hexagon,1,0,,,,,,,,,,,,,,,,repeat,number,numRpt,j,0.6558,Hi,,,,,,3,,,,,,,,low,16,0,16,0,1,,,,,,,,,
297244,2022-12-06_24h21.10.666,vts_reward_expectancy_bt,2022.2.4,Win32,59.88382538,Chrome,1500,1000,,,,,10,987,,,,,,,,,,,,,,,,,F,132,triangle,1,0,,,,,,,,,,,,,,,,repeat,number,numRpt,j,0.8004,Hi,,,,,,3,,,,,,,,low,17,0,17,0,1,,,,,,,,,
297244,2022-12-06_24h21.10.666,vts_reward_expectancy_bt,2022.2.4,Win32,59.88382538,Chrome,1500,1000,,,,,1,988,,,,,,,,,,,,,,,,,Y,160,star,1,0,,,,,,,,,,,,,,,,repeat,number,numRpt,k,0.9346,Lo,,,,,,3,,,,,,,,low,18,0,18,0,1,,,,,,,,,
297244,2022-12-06_24h21.10.666,vts_reward_expectancy_bt,2022.2.4,Win32,59.88382538,Chrome,1500,1000,,,,,1,989,,,,,,,,,,,,,,,,,B,125,circle,1,0,,,,,,,,,,,,,,,,repeat,number,numRpt,j,0.7925,Lo,,,,,,3,,,,,,,,low,19,0,19,0,1,,,,,,,,,
297244,2022-12-06_24h21.10.666,vts_reward_expectancy_bt,2022.2.4,Win32,59.88382538,Chrome,1500,1000,,,,,0,989,,,,,,,,,,,,,,,,,H,146,circle,0,0,,,,,,,,,,,,,,,,repeat,number,NA,k,1.2691,Lo,,,,,,3,,,,,,,,low,20,0,20,0,1,,,,,,,,,
297244,2022-12-06_24h21.10.666,vts_reward_expectancy_bt,2022.2.4,Win32,59.88382538,Chrome,1500,1000,,,,,0,989,,,,,,,,,,,,,,,,,U,174,star,0,1,,,,,,,,,,,,,,,,repeat,number,NA,j,0.5177,Lo,,,,,,3,,,,,,,,low,21,0,21,0,1,,,,,,,,,
297244,2022-12-06_24h21.10.666,vts_reward_expectancy_bt,2022.2.4,Win32,59.88382538,Chrome,1500,1000,,,,,10,999,,,,,,,,,,,,,,,,,D,181,triangle,1,1,,,,,,,,,,,,,,,,repeat,number,numRpt,k,0.8011,Hi,,,,,,3,,,,,,,,low,22,0,22,0,1,,,,,,,,,
297244,2022-12-06_24h21.10.666,vts_reward_expectancy_bt,2022.2.4,Win32,59.88382538,Chrome,1500,1000,,,,,0,999,,,,,,,,,,,,,,,,,W,167,hexagon,0,0,,,,,,,,,,,,,,,,switch,letter,NA,d,0.7678,Hi,,,,,,3,,,,,,,,low,23,0,23,0,1,,,,,,,,,
297244,2022-12-06_24h21.10.666,vts_reward_expectancy_bt,2022.2.4,Win32,59.88382538,Chrome,1500,1000,,,,,1,1000,,,,,,,,,,,,,,,,,F,139,star,1,1,,,,,,,,,,,,,,,,repeat,letter,lettRpt,d,0.7519,Lo,,,,,,3,,,,,,,,low,24,0,24,0,1,,,,,,,,,
297244,2022-12-06_24h21.10.666,vts_reward_expectancy_bt,2022.2.4,Win32,59.88382538,Chrome,1500,1000,,,,,0,1000,,,,,,,,,,,,,,,,,Y,167,hexagon,1,0,,,,,,,,,,,,,,,,repeat,letter,lettRpt,f,0.767,Hi,,,,,,3,,,,,,,,low,25,0,25,0,1,,,,,,,,,
297244,2022-12-06_24h21.10.666,vts_reward_expectancy_bt,2022.2.4,Win32,59.88382538,Chrome,1500,1000,,,,,0,1000,,,,,,,,,,,,,,,,,U,146,triangle,0,0,,,,,,,,,,,,,,,,repeat,letter,NA,d,0.8159,Hi,,,,,,3,,,,,,,,low,26,0,26,0,1,,,,,,,,,
297244,2022-12-06_24h21.10.666,vts_reward_expectancy_bt,2022.2.4,Win32,59.88382538,Chrome,1500,1000,,,,,1,1001,,,,,,,,,,,,,,,,,B,181,circle,1,1,,,,,,,,,,,,,,,,repeat,letter,lettRpt,d,0.6013,Lo,,,,,,3,,,,,,,,low,27,0,27,0,1,,,,,,,,,
297244,2022-12-06_24h21.10.666,vts_reward_expectancy_bt,2022.2.4,Win32,59.88382538,Chrome,1500,1000,,,,,1,1002,,,,,,,,,,,,,,,,,S,174,circle,1,0,,,,,,,,,,,,,,,,repeat,letter,lettRpt,f,1.05,Lo,,,,,,3,,,,,,,,low,28,0,28,0,1,,,,,,,,,
297244,2022-12-06_24h21.10.666,vts_reward_expectancy_bt,2022.2.4,Win32,59.88382538,Chrome,1500,1000,,,,,1,1003,,,,,,,,,,,,,,,,,W,125,star,1,0,,,,,,,,,,,,,,,,repeat,letter,lettRpt,f,0.6217,Lo,,,,,,3,,,,,,,,low,29,0,29,0,1,,,,,,,,,
297244,2022-12-06_24h21.10.666,vts_reward_expectancy_bt,2022.2.4,Win32,59.88382538,Chrome,1500,1000,,,,,10,1013,,,,,,,,,,,,,,,,,D,160,hexagon,1,0,,,,,,,,,,,,,,,,repeat,letter,lettRpt,d,0.6002,Hi,,,,,,3,,,,,,,,low,30,0,30,0,1,,,,,,,,,
297244,2022-12-06_24h21.10.666,vts_reward_expectancy_bt,2022.2.4,Win32,59.88382538,Chrome,1500,1000,,,,,0,1013,,,,,,,,,,,,,,,,,H,132,triangle,0,0,,,,,,,,,,,,,,,,repeat,letter,NA,f,0.7424,Hi,,,,,,3,,,,,,,,low,31,0,31,0,1,,,,,,,,,
297244,2022-12-06_24h21.10.666,vts_reward_expectancy_bt,2022.2.4,Win32,59.88382538,Chrome,1500,1000,,,,,1,1014,,,,,,,,,,,,,,,,,W,125,circle,1,1,,,,,,,,,,,,,,,,repeat,letter,lettRpt,f,0.8373,Lo,,,,,,4,,,,,,space,0.6576,low,0,0,0,0,1,,,,,,,,,
297244,2022-12-06_24h21.10.666,vts_reward_expectancy_bt,2022.2.4,Win32,59.88382538,Chrome,1500,1000,,,,,0,1014,,,,,,,,,,,,,,,,,D,181,triangle,1,0,,,,,,,,,,,,,,,,repeat,letter,lettRpt,d,0.7703,Hi,,,,,,4,,,,,,,,low,1,0,1,0,1,,,,,,,,,
297244,2022-12-06_24h21.10.666,vts_reward_expectancy_bt,2022.2.4,Win32,59.88382538,Chrome,1500,1000,,,,,10,1024,,,,,,,,,,,,,,,,,U,132,star,1,0,,,,,,,,,,,,,,,,repeat,letter,lettRpt,f,1.043,Lo,,,,,,4,,,,,,,,low,2,0,2,0,1,,,,,,,,,
297244,2022-12-06_24h21.10.666,vts_reward_expectancy_bt,2022.2.4,Win32,59.88382538,Chrome,1500,1000,,,,,0,1024,,,,,,,,,,,,,,,,,Y,160,hexagon,1,0,,,,,,,,,,,,,,,,repeat,letter,lettRpt,f,0.7071,Hi,,,,,,4,,,,,,,,low,3,0,3,0,1,,,,,,,,,
297244,2022-12-06_24h21.10.666,vts_reward_expectancy_bt,2022.2.4,Win32,59.88382538,Chrome,1500,1000,,,,,1,1025,,,,,,,,,,,,,,,,,F,139,circle,1,0,,,,,,,,,,,,,,,,repeat,letter,lettRpt,d,0.6666,Lo,,,,,,4,,,,,,,,low,4,0,4,0,1,,,,,,,,,
297244,2022-12-06_24h21.10.666,vts_reward_expectancy_bt,2022.2.4,Win32,59.88382538,Chrome,1500,1000,,,,,0,1025,,,,,,,,,,,,,,,,,H,167,triangle,1,0,,,,,,,,,,,,,,,,repeat,letter,lettRpt,d,0.6481,Hi,,,,,,4,,,,,,,,low,5,0,5,0,1,,,,,,,,,
297244,2022-12-06_24h21.10.666,vts_reward_expectancy_bt,2022.2.4,Win32,59.88382538,Chrome,1500,1000,,,,,0,1025,,,,,,,,,,,,,,,,,B,146,star,0,0,,,,,,,,,,,,,,,,repeat,letter,NA,f,0.3004,Hi,,,,,,4,,,,,,,,low,6,0,6,0,1,,,,,,,,,
297244,2022-12-06_24h21.10.666,vts_reward_expectancy_bt,2022.2.4,Win32,59.88382538,Chrome,1500,1000,,,,,0,1025,,,,,,,,,,,,,,,,,S,174,hexagon,0,1,,,,,,,,,,,,,,,,repeat,letter,NA,d,0.4505,Hi,,,,,,4,,,,,,,,low,7,0,7,0,1,,,,,,,,,
297244,2022-12-06_24h21.10.666,vts_reward_expectancy_bt,2022.2.4,Win32,59.88382538,Chrome,1500,1000,,,,,1,1026,,,,,,,,,,,,,,,,,W,125,triangle,1,1,,,,,,,,,,,,,,,,repeat,letter,lettRpt,f,0.3614,Hi,,,,,,4,,,,,,,,low,8,0,8,0,1,,,,,,,,,
297244,2022-12-06_24h21.10.666,vts_reward_expectancy_bt,2022.2.4,Win32,59.88382538,Chrome,1500,1000,,,,,0,1026,,,,,,,,,,,,,,,,,D,181,circle,0,0,,,,,,,,,,,,,,,,repeat,letter,NA,f,0.4591,Hi,,,,,,4,,,,,,,,low,9,0,9,0,1,,,,,,,,,
297244,2022-12-06_24h21.10.666,vts_reward_expectancy_bt,2022.2.4,Win32,59.88382538,Chrome,1500,1000,,,,,10,1036,,,,,,,,,,,,,,,,,U,132,hexagon,1,1,,,,,,,,,,,,,,,,repeat,letter,lettRpt,f,0.5466,Hi,,,,,,4,,,,,,,,low,10,0,10,0,1,,,,,,,,,
297244,2022-12-06_24h21.10.666,vts_reward_expectancy_bt,2022.2.4,Win32,59.88382538,Chrome,1500,1000,,,,,1,1037,,,,,,,,,,,,,,,,,Y,160,star,1,0,,,,,,,,,,,,,,,,repeat,letter,lettRpt,f,0.7371,Lo,,,,,,4,,,,,,,,low,11,0,11,0,1,,,,,,,,,
297244,2022-12-06_24h21.10.666,vts_reward_expectancy_bt,2022.2.4,Win32,59.88382538,Chrome,1500,1000,,,,,1,1038,,,,,,,,,,,,,,,,,F,139,hexagon,1,0,,,,,,,,,,,,,,,,repeat,letter,lettRpt,d,0.492,Hi,,,,,,4,,,,,,,,low,12,0,12,0,1,,,,,,,,,
297244,2022-12-06_24h21.10.666,vts_reward_expectancy_bt,2022.2.4,Win32,59.88382538,Chrome,1500,1000,,,,,0,1038,,,,,,,,,,,,,,,,,H,167,triangle,1,0,,,,,,,,,,,,,,,,repeat,letter,lettRpt,d,0.7996,Hi,,,,,,4,,,,,,,,low,13,0,13,0,1,,,,,,,,,
297244,2022-12-06_24h21.10.666,vts_reward_expectancy_bt,2022.2.4,Win32,59.88382538,Chrome,1500,1000,,,,,1,1039,,,,,,,,,,,,,,,,,B,146,circle,1,0,,,,,,,,,,,,,,,,repeat,letter,lettRpt,d,0.7373,Lo,,,,,,4,,,,,,,,low,14,0,14,0,1,,,,,,,,,
297244,2022-12-06_24h21.10.666,vts_reward_expectancy_bt,2022.2.4,Win32,59.88382538,Chrome,1500,1000,,,,,0,1039,,,,,,,,,,,,,,,,,S,174,star,0,0,,,,,,,,,,,,,,,,repeat,letter,NA,d,0.5403,Lo,,,,,,4,,,,,,,,low,15,0,15,0,1,,,,,,,,,
297244,2022-12-06_24h21.10.666,vts_reward_expectancy_bt,2022.2.4,Win32,59.88382538,Chrome,1500,1000,,,,,0,1039,,,,,,,,,,,,,,,,,H,160,hexagon,1,1,,,,,,,,,,,,,,,,repeat,letter,lettRpt,d,0.8154,Hi,,,,,,4,,,,,,,,low,16,0,16,0,1,,,,,,,,,
297244,2022-12-06_24h21.10.666,vts_reward_expectancy_bt,2022.2.4,Win32,59.88382538,Chrome,1500,1000,,,,,0,1039,,,,,,,,,,,,,,,,,S,174,star,0,0,,,,,,,,,,,,,,,,repeat,letter,NA,d,0.6765,Hi,,,,,,4,,,,,,,,low,17,0,17,0,1,,,,,,,,,
297244,2022-12-06_24h21.10.666,vts_reward_expectancy_bt,2022.2.4,Win32,59.88382538,Chrome,1500,1000,,,,,1,1040,,,,,,,,,,,,,,,,,B,167,circle,1,1,,,,,,,,,,,,,,,,repeat,letter,lettRpt,d,0.7188,Lo,,,,,,4,,,,,,,,low,18,0,18,0,1,,,,,,,,,
297244,2022-12-06_24h21.10.666,vts_reward_expectancy_bt,2022.2.4,Win32,59.88382538,Chrome,1500,1000,,,,,0,1040,,,,,,,,,,,,,,,,,F,125,triangle,1,0,,,,,,,,,,,,,,,,repeat,letter,lettRpt,d,1.2542,Hi,,,,,,4,,,,,,,,low,19,0,19,0,1,,,,,,,,,
297244,2022-12-06_24h21.10.666,vts_reward_expectancy_bt,2022.2.4,Win32,59.88382538,Chrome,1500,1000,,,,,0,1040,,,,,,,,,,,,,,,,,Y,146,triangle,1,0,,,,,,,,,,,,,,,,repeat,letter,lettRpt,f,1.0452,Hi,,,,,,4,,,,,,,,low,20,0,20,0,1,,,,,,,,,
297244,2022-12-06_24h21.10.666,vts_reward_expectancy_bt,2022.2.4,Win32,59.88382538,Chrome,1500,1000,,,,,0,1040,,,,,,,,,,,,,,,,,U,181,star,0,0,,,,,,,,,,,,,,,,repeat,letter,NA,d,0.7592,Hi,,,,,,4,,,,,,,,low,21,0,21,0,1,,,,,,,,,
297244,2022-12-06_24h21.10.666,vts_reward_expectancy_bt,2022.2.4,Win32,59.88382538,Chrome,1500,1000,,,,,0,1040,,,,,,,,,,,,,,,,,D,132,hexagon,1,1,,,,,,,,,,,,,,,,repeat,letter,lettRpt,d,0.7346,Hi,,,,,,4,,,,,,,,low,22,0,22,0,1,,,,,,,,,
297244,2022-12-06_24h21.10.666,vts_reward_expectancy_bt,2022.2.4,Win32,59.88382538,Chrome,1500,1000,,,,,1,1041,,,,,,,,,,,,,,,,,W,139,circle,1,0,,,,,,,,,,,,,,,,repeat,letter,lettRpt,f,1.0192,Lo,,,,,,4,,,,,,,,low,23,0,23,0,1,,,,,,,,,
297244,2022-12-06_24h21.10.666,vts_reward_expectancy_bt,2022.2.4,Win32,59.88382538,Chrome,1500,1000,,,,,10,1051,,,,,,,,,,,,,,,,,H,146,star,1,0,,,,,,,,,,,,,,,,repeat,letter,lettRpt,d,0.7016,Lo,,,,,,4,,,,,,,,low,24,0,24,0,1,,,,,,,,,
297244,2022-12-06_24h21.10.666,vts_reward_expectancy_bt,2022.2.4,Win32,59.88382538,Chrome,1500,1000,,,,,0,1051,,,,,,,,,,,,,,,,,F,167,hexagon,1,0,,,,,,,,,,,,,,,,repeat,letter,lettRpt,d,0.7092,Hi,,,,,,4,,,,,,,,low,25,0,25,0,1,,,,,,,,,
297244,2022-12-06_24h21.10.666,vts_reward_expectancy_bt,2022.2.4,Win32,59.88382538,Chrome,1500,1000,,,,,0,1051,,,,,,,,,,,,,,,,,U,160,circle,0,0,,,,,,,,,,,,,,,,repeat,letter,NA,d,0.7396,Hi,,,,,,4,,,,,,,,low,26,0,26,0,1,,,,,,,,,
297244,2022-12-06_24h21.10.666,vts_reward_expectancy_bt,2022.2.4,Win32,59.88382538,Chrome,1500,1000,,,,,0,1051,,,,,,,,,,,,,,,,,W,132,triangle,1,1,,,,,,,,,,,,,,,,repeat,letter,lettRpt,f,0.9139,Hi,,,,,,4,,,,,,,,low,27,0,27,0,1,,,,,,,,,
297244,2022-12-06_24h21.10.666,vts_reward_expectancy_bt,2022.2.4,Win32,59.88382538,Chrome,1500,1000,,,,,0,1051,,,,,,,,,,,,,,,,,B,125,hexagon,1,0,,,,,,,,,,,,,,,,repeat,letter,lettRpt,d,0.6981,Hi,,,,,,4,,,,,,,,low,28,0,28,0,1,,,,,,,,,
297244,2022-12-06_24h21.10.666,vts_reward_expectancy_bt,2022.2.4,Win32,59.88382538,Chrome,1500,1000,,,,,0,1051,,,,,,,,,,,,,,,,,S,174,star,0,0,,,,,,,,,,,,,,,,repeat,letter,NA,d,1.3845,Hi,,,,,,4,,,,,,,,low,29,0,29,0,1,,,,,,,,,
297244,2022-12-06_24h21.10.666,vts_reward_expectancy_bt,2022.2.4,Win32,59.88382538,Chrome,1500,1000,,,,,0,1051,,,,,,,,,,,,,,,,,Y,181,triangle,1,1,,,,,,,,,,,,,,,,repeat,letter,lettRpt,f,1.1021,Hi,,,,,,4,,,,,,,,low,30,0,30,0,1,,,,,,,,,
297244,2022-12-06_24h21.10.666,vts_reward_expectancy_bt,2022.2.4,Win32,59.88382538,Chrome,1500,1000,,,,,1,1052,,,,,,,,,,,,,,,,,D,139,circle,1,0,,,,,,,,,,,,,,,,repeat,letter,lettRpt,d,0.5276,Lo,,,,,,4,,,,,,,,low,31,0,31,0,1,,,,,,,,,
297244,2022-12-06_24h21.10.666,vts_reward_expectancy_bt,2022.2.4,Win32,59.88382538,Chrome,1500,1000,,,,,10,1062,,,,,,,,,,,,,,,,,W,139,star,1,0,,,,,,,,,,,,,,,,repeat,letter,lettRpt,f,1.0782,Lo,,,,,,5,,,,,,space,0.7714,low,0,0,0,0,1,,,,,,,,,
297244,2022-12-06_24h21.10.666,vts_reward_expectancy_bt,2022.2.4,Win32,59.88382538,Chrome,1500,1000,,,,,10,1072,,,,,,,,,,,,,,,,,D,174,triangle,1,0,,,,,,,,,,,,,,,,repeat,letter,lettRpt,d,0.7,Hi,,,,,,5,,,,,,,,low,1,0,1,0,1,,,,,,,,,
297244,2022-12-06_24h21.10.666,vts_reward_expectancy_bt,2022.2.4,Win32,59.88382538,Chrome,1500,1000,,,,,1,1073,,,,,,,,,,,,,,,,,B,160,circle,1,0,,,,,,,,,,,,,,,,repeat,letter,lettRpt,d,0.7205,Lo,,,,,,5,,,,,,,,low,2,0,2,0,1,,,,,,,,,
297244,2022-12-06_24h21.10.666,vts_reward_expectancy_bt,2022.2.4,Win32,59.88382538,Chrome,1500,1000,,,,,0,1073,,,,,,,,,,,,,,,,,S,132,hexagon,0,0,,,,,,,,,,,,,,,,repeat,letter,NA,d,0.7694,Lo,,,,,,5,,,,,,,,low,3,0,3,0,1,,,,,,,,,
297244,2022-12-06_24h21.10.666,vts_reward_expectancy_bt,2022.2.4,Win32,59.88382538,Chrome,1500,1000,,,,,1,1074,,,,,,,,,,,,,,,,,H,146,star,1,1,,,,,,,,,,,,,,,,repeat,letter,lettRpt,d,0.6174,Lo,,,,,,5,,,,,,,,low,4,0,4,0,1,,,,,,,,,
297244,2022-12-06_24h21.10.666,vts_reward_expectancy_bt,2022.2.4,Win32,59.88382538,Chrome,1500,1000,,,,,1,1075,,,,,,,,,,,,,,,,,F,125,triangle,1,0,,,,,,,,,,,,,,,,repeat,letter,lettRpt,d,0.6837,Hi,,,,,,5,,,,,,,,low,5,0,5,0,1,,,,,,,,,
297244,2022-12-06_24h21.10.666,vts_reward_expectancy_bt,2022.2.4,Win32,59.88382538,Chrome,1500,1000,,,,,0,1075,,,,,,,,,,,,,,,,,U,167,circle,0,0,,,,,,,,,,,,,,,,repeat,letter,NA,d,0.5838,Hi,,,,,,5,,,,,,,,low,6,0,6,0,1,,,,,,,,,
297244,2022-12-06_24h21.10.666,vts_reward_expectancy_bt,2022.2.4,Win32,59.88382538,Chrome,1500,1000,,,,,0,1075,,,,,,,,,,,,,,,,,Y,181,hexagon,1,1,,,,,,,,,,,,,,,,repeat,letter,lettRpt,f,0.767,Hi,,,,,,5,,,,,,,,low,7,0,7,0,1,,,,,,,,,
297244,2022-12-06_24h21.10.666,vts_reward_expectancy_bt,2022.2.4,Win32,59.88382538,Chrome,1500,1000,,,,,0,1075,,,,,,,,,,,,,,,,,W,139,hexagon,1,0,,,,,,,,,,,,,,,,repeat,letter,lettRpt,f,0.8471,Hi,,,,,,5,,,,,,,,low,8,0,8,0,1,,,,,,,,,
297244,2022-12-06_24h21.10.666,vts_reward_expectancy_bt,2022.2.4,Win32,59.88382538,Chrome,1500,1000,,,,,10,1085,,,,,,,,,,,,,,,,,D,174,star,1,0,,,,,,,,,,,,,,,,repeat,letter,lettRpt,d,0.6509,Lo,,,,,,5,,,,,,,,low,9,0,9,0,1,,,,,,,,,
297244,2022-12-06_24h21.10.666,vts_reward_expectancy_bt,2022.2.4,Win32,59.88382538,Chrome,1500,1000,,,,,1,1086,,,,,,,,,,,,,,,,,B,160,circle,1,0,,,,,,,,,,,,,,,,repeat,letter,lettRpt,d,0.8345,Lo,,,,,,5,,,,,,,,low,10,0,10,0,1,,,,,,,,,
297244,2022-12-06_24h21.10.666,vts_reward_expectancy_bt,2022.2.4,Win32,59.88382538,Chrome,1500,1000,,,,,0,1086,,,,,,,,,,,,,,,,,S,132,triangle,1,0,,,,,,,,,,,,,,,,repeat,letter,lettRpt,f,0.9397,Hi,,,,,,5,,,,,,,,low,11,0,11,0,1,,,,,,,,,
297244,2022-12-06_24h21.10.666,vts_reward_expectancy_bt,2022.2.4,Win32,59.88382538,Chrome,1500,1000,,,,,0,1086,,,,,,,,,,,,,,,,,H,146,circle,0,0,,,,,,,,,,,,,,,,repeat,letter,NA,f,0.8183,Hi,,,,,,5,,,,,,,,low,12,0,12,0,1,,,,,,,,,
297244,2022-12-06_24h21.10.666,vts_reward_expectancy_bt,2022.2.4,Win32,59.88382538,Chrome,1500,1000,,,,,1,1087,,,,,,,,,,,,,,,,,F,125,star,1,1,,,,,,,,,,,,,,,,repeat,letter,lettRpt,d,1.2178,Lo,,,,,,5,,,,,,,,low,13,0,13,0,1,,,,,,,,,
297244,2022-12-06_24h21.10.666,vts_reward_expectancy_bt,2022.2.4,Win32,59.88382538,Chrome,1500,1000,,,,,0,1087,,,,,,,,,,,,,,,,,U,167,triangle,1,0,,,,,,,,,,,,,,,,repeat,letter,lettRpt,f,0.8119,Hi,,,,,,5,,,,,,,,low,14,0,14,0,1,,,,,,,,,
297244,2022-12-06_24h21.10.666,vts_reward_expectancy_bt,2022.2.4,Win32,59.88382538,Chrome,1500,1000,,,,,0,1087,,,,,,,,,,,,,,,,,Y,181,hexagon,1,0,,,,,,,,,,,,,,,,repeat,letter,lettRpt,f,0.7929,Hi,,,,,,5,,,,,,,,low,15,0,15,0,1,,,,,,,,,
297244,2022-12-06_24h21.10.666,vts_reward_expectancy_bt,2022.2.4,Win32,59.88382538,Chrome,1500,1000,,,,,0,1087,,,,,,,,,,,,,,,,,W,174,triangle,1,0,,,,,,,,,,,,,,,,repeat,letter,lettRpt,f,0.9038,Hi,,,,,,5,,,,,,,,low,16,0,16,0,1,,,,,,,,,
297244,2022-12-06_24h21.10.666,vts_reward_expectancy_bt,2022.2.4,Win32,59.88382538,Chrome,1500,1000,,,,,10,1097,,,,,,,,,,,,,,,,,B,125,hexagon,1,0,,,,,,,,,,,,,,,,switch,number,numSwt,j,1.1831,Hi,,,,,,5,,,,,,,,low,17,0,17,0,1,,,,,,,,,
297244,2022-12-06_24h21.10.666,vts_reward_expectancy_bt,2022.2.4,Win32,59.88382538,Chrome,1500,1000,,,,,10,1107,,,,,,,,,,,,,,,,,F,160,circle,1,0,,,,,,,,,,,,,,,,repeat,number,numRpt,k,0.6091,Lo,,,,,,5,,,,,,,,low,18,0,18,0,1,,,,,,,,,
297244,2022-12-06_24h21.10.666,vts_reward_expectancy_bt,2022.2.4,Win32,59.88382538,Chrome,1500,1000,,,,,10,1117,,,,,,,,,,,,,,,,,U,167,star,1,0,,,,,,,,,,,,,,,,repeat,number,numRpt,k,2.2159,Lo,,,,,,5,,,,,,,,low,19,0,19,0,1,,,,,,,,,
297244,2022-12-06_24h21.10.666,vts_reward_expectancy_bt,2022.2.4,Win32,59.88382538,Chrome,1500,1000,,,,,1,1118,,,,,,,,,,,,,,,,,H,139,star,1,0,,,,,,,,,,,,,,,,repeat,number,numRpt,j,0.7456,Lo,,,,,,5,,,,,,,,low,20,0,20,0,1,,,,,,,,,
297244,2022-12-06_24h21.10.666,vts_reward_expectancy_bt,2022.2.4,Win32,59.88382538,Chrome,1500,1000,,,,,0,1118,,,,,,,,,,,,,,,,,Y,181,triangle,0,0,,,,,,,,,,,,,,,,repeat,number,NA,j,0.7467,Lo,,,,,,5,,,,,,,,low,21,0,21,0,1,,,,,,,,,
297244,2022-12-06_24h21.10.666,vts_reward_expectancy_bt,2022.2.4,Win32,59.88382538,Chrome,1500,1000,,,,,0,1118,,,,,,,,,,,,,,,,,S,146,hexagon,0,1,,,,,,,,,,,,,,,,repeat,number,NA,k,1.7459,Lo,,,,,,5,,,,,,,,low,22,0,22,0,1,,,,,,,,,
297244,2022-12-06_24h21.10.666,vts_reward_expectancy_bt,2022.2.4,Win32,59.88382538,Chrome,1500,1000,,,,,1,1119,,,,,,,,,,,,,,,,,D,132,circle,1,1,,,,,,,,,,,,,,,,repeat,number,numRpt,j,0.6678,Lo,,,,,,5,,,,,,,,low,23,0,23,0,1,,,,,,,,,
297244,2022-12-06_24h21.10.666,vts_reward_expectancy_bt,2022.2.4,Win32,59.88382538,Chrome,1500,1000,,,,,1,1120,,,,,,,,,,,,,,,,,Y,125,hexagon,1,0,,,,,,,,,,,,,,,,repeat,number,numRpt,j,0.7851,Hi,,,,,,5,,,,,,,,low,24,0,24,0,1,,,,,,,,,
297244,2022-12-06_24h21.10.666,vts_reward_expectancy_bt,2022.2.4,Win32,59.88382538,Chrome,1500,1000,,,,,1,1121,,,,,,,,,,,,,,,,,D,160,star,1,0,,,,,,,,,,,,,,,,repeat,number,numRpt,k,0.7116,Lo,,,,,,5,,,,,,,,low,25,0,25,0,1,,,,,,,,,
297244,2022-12-06_24h21.10.666,vts_reward_expectancy_bt,2022.2.4,Win32,59.88382538,Chrome,1500,1000,,,,,1,1122,,,,,,,,,,,,,,,,,B,181,circle,1,0,,,,,,,,,,,,,,,,repeat,number,numRpt,k,0.8786,Lo,,,,,,5,,,,,,,,low,26,0,26,0,1,,,,,,,,,
297244,2022-12-06_24h21.10.666,vts_reward_expectancy_bt,2022.2.4,Win32,59.88382538,Chrome,1500,1000,,,,,10,1132,,,,,,,,,,,,,,,,,U,167,triangle,1,0,,,,,,,,,,,,,,,,repeat,number,numRpt,k,0.9475,Hi,,,,,,5,,,,,,,,low,27,0,27,0,1,,,,,,,,,
297244,2022-12-06_24h21.10.666,vts_reward_expectancy_bt,2022.2.4,Win32,59.88382538,Chrome,1500,1000,,,,,1,1133,,,,,,,,,,,,,,,,,H,146,star,1,0,,,,,,,,,,,,,,,,repeat,number,numRpt,j,0.6353,Lo,,,,,,5,,,,,,,,low,28,0,28,0,1,,,,,,,,,
297244,2022-12-06_24h21.10.666,vts_reward_expectancy_bt,2022.2.4,Win32,59.88382538,Chrome,1500,1000,,,,,1,1134,,,,,,,,,,,,,,,,,W,174,triangle,1,0,,,,,,,,,,,,,,,,repeat,number,numRpt,k,0.8489,Hi,,,,,,5,,,,,,,,low,29,0,29,0,1,,,,,,,,,
297244,2022-12-06_24h21.10.666,vts_reward_expectancy_bt,2022.2.4,Win32,59.88382538,Chrome,1500,1000,,,,,1,1135,,,,,,,,,,,,,,,,,S,139,hexagon,1,0,,,,,,,,,,,,,,,,repeat,number,numRpt,j,0.9675,Hi,,,,,,5,,,,,,,,low,30,0,30,0,1,,,,,,,,,
297244,2022-12-06_24h21.10.666,vts_reward_expectancy_bt,2022.2.4,Win32,59.88382538,Chrome,1500,1000,,,,,1,1136,,,,,,,,,,,,,,,,,F,132,circle,1,0,,,,,,,,,,,,,,,,repeat,number,numRpt,j,0.6677,Lo,,,,,,5,,,,,,,,low,31,0,31,0,1,,,,,,,,,
297244,2022-12-06_24h21.10.666,vts_reward_expectancy_bt,2022.2.4,Win32,59.88382538,Chrome,1500,1000,,,,,1,1137,,,,,,,,,,,,,,,,,H,160,star,1,0,,,,,,,,,,,,,,,,repeat,number,numRpt,k,0.8356,Lo,,,,,,6,,,,,,space,0.7415,low,0,0,0,0,1,,,,,,,,,
297244,2022-12-06_24h21.10.666,vts_reward_expectancy_bt,2022.2.4,Win32,59.88382538,Chrome,1500,1000,,,,,0,1137,,,,,,,,,,,,,,,,,W,139,triangle,1,0,,,,,,,,,,,,,,,,repeat,number,numRpt,j,1.7367,Hi,,,,,,6,,,,,,,,low,1,0,1,0,1,,,,,,,,,
297244,2022-12-06_24h21.10.666,vts_reward_expectancy_bt,2022.2.4,Win32,59.88382538,Chrome,1500,1000,,,,,1,1138,,,,,,,,,,,,,,,,,F,132,circle,1,0,,,,,,,,,,,,,,,,repeat,number,numRpt,j,0.601,Lo,,,,,,6,,,,,,,,low,2,0,2,0,1,,,,,,,,,
297244,2022-12-06_24h21.10.666,vts_reward_expectancy_bt,2022.2.4,Win32,59.88382538,Chrome,1500,1000,,,,,0,1138,,,,,,,,,,,,,,,,,U,181,hexagon,1,0,,,,,,,,,,,,,,,,repeat,number,numRpt,k,0.7504,Hi,,,,,,6,,,,,,,,low,3,0,3,0,1,,,,,,,,,
297244,2022-12-06_24h21.10.666,vts_reward_expectancy_bt,2022.2.4,Win32,59.88382538,Chrome,1500,1000,,,,,10,1148,,,,,,,,,,,,,,,,,B,146,star,1,0,,,,,,,,,,,,,,,,repeat,number,numRpt,j,1.0676,Lo,,,,,,6,,,,,,,,low,4,0,4,0,1,,,,,,,,,
297244,2022-12-06_24h21.10.666,vts_reward_expectancy_bt,2022.2.4,Win32,59.88382538,Chrome,1500,1000,,,,,0,1148,,,,,,,,,,,,,,,,,Y,167,triangle,1,0,,,,,,,,,,,,,,,,repeat,number,numRpt,k,1.2934,Hi,,,,,,6,,,,,,,,low,5,0,5,0,1,,,,,,,,,
297244,2022-12-06_24h21.10.666,vts_reward_expectancy_bt,2022.2.4,Win32,59.88382538,Chrome,1500,1000,,,,,1,1149,,,,,,,,,,,,,,,,,S,174,circle,1,0,,,,,,,,,,,,,,,,repeat,number,numRpt,k,0.9848,Lo,,,,,,6,,,,,,,,low,6,0,6,0,1,,,,,,,,,
