participant,date,expName,psychopyVersion,OS,frameRate,browser,xResolution,yResolution,key_resp.keys,key_resp.rt,training_resp.keys,training_resp.rt,points_trial,points_cumul,trainBlock,training.thisRepN,training.thisTrialN,training.thisN,training.thisIndex,training.ran,LTriangleOpac,LCircleOpac,LHexagonOpac,LStarOpac,RTriangleOpac,RCircleOpac,RHexagonOpac,RStarOpac,LShape_ID,RShape_ID,curr_topStim,curr_bottStim,curr_shape,acc,E1,target_resp_prac1.keys,target_resp_prac1.rt,pracBlock,task1_prac_trials.thisRepN,task1_prac_trials.thisTrialN,task1_prac_trials.thisN,task1_prac_trials.thisIndex,task1_prac_trials.ran,target_resp_prac2.keys,target_resp_prac2.rt,task2_praac_trials.thisRepN,task2_praac_trials.thisTrialN,task2_praac_trials.thisN,task2_praac_trials.thisIndex,task2_praac_trials.ran,alt,task,condition,target_resp.keys,rewCond,vts_practice_trials.thisRepN,vts_practice_trials.thisTrialN,vts_practice_trials.thisN,vts_practice_trials.thisIndex,vts_practice_trials.ran,target_resp.rt,blockNum,trials_norew.thisRepN,trials_norew.thisTrialN,trials_norew.thisN,trials_norew.thisIndex,trials_norew.ran,key_resp_2.keys,key_resp_2.rt,rewExpectancy,trials_rew.thisRepN,trials_rew.thisTrialN,trials_rew.thisN,trials_rew.thisIndex,trials_rew.ran,Q1,Q2,Q2_text,Q3,Q4,Q5_text,Q5,xRes,yRes
297280,2022-11-15_14h01.16.078,vts_reward_expectancy_bt,2022.2.4,Win32,59.95922773,Chrome,1707,1067,,,,,,,,,,,,,,,,,,,,,,,,,,,,,,,,,,,,,,,,,,,,,,,,,,,,,,,,,,,,,,,,,,,,,,,,,,,,
297280,2022-11-15_14h01.16.078,vts_reward_expectancy_bt,2022.2.4,Win32,59.95922773,Chrome,1707,1067,space,15.5906,,,,,,,,,,,,,,,,,,,,,,,,,,,,,,,,,,,,,,,,,,,,,,,,,,,,,,,,,,,,,,,,,,,,,,,,,,
297280,2022-11-15_14h01.16.078,vts_reward_expectancy_bt,2022.2.4,Win32,59.95922773,Chrome,1707,1067,,,,,,,,,,,,,,,,,,,,,,,,,,,,,,,,,,,,,,,,,,,,,,,,,,,,,,,,,,,,,,,,,,,,,,,,,,,,
297280,2022-11-15_14h01.16.078,vts_reward_expectancy_bt,2022.2.4,Win32,59.95922773,Chrome,1707,1067,,,l,2.5075,10,10,0,0,0,0,7,1,0,0,1,0,0,1,0,0,hexagon,circle,,,,,,,,,,,,,,,,,,,,,,,,,,,,,,,,,,,,,,,,,,,,,,,,,,,,,,
297280,2022-11-15_14h01.16.078,vts_reward_expectancy_bt,2022.2.4,Win32,59.95922773,Chrome,1707,1067,,,a,1.6469,10,20,0,0,1,1,4,1,0,1,0,0,0,0,1,0,circle,hexagon,,,,,,,,,,,,,,,,,,,,,,,,,,,,,,,,,,,,,,,,,,,,,,,,,,,,,,
297280,2022-11-15_14h01.16.078,vts_reward_expectancy_bt,2022.2.4,Win32,59.95922773,Chrome,1707,1067,,,l,3.1238,1,21,0,0,2,2,8,1,0,0,1,0,0,0,0,1,hexagon,star,,,,,,,,,,,,,,,,,,,,,,,,,,,,,,,,,,,,,,,,,,,,,,,,,,,,,,
297280,2022-11-15_14h01.16.078,vts_reward_expectancy_bt,2022.2.4,Win32,59.95922773,Chrome,1707,1067,,,l,2.8964,10,31,0,0,3,3,1,1,1,0,0,0,0,0,1,0,triangle,hexagon,,,,,,,,,,,,,,,,,,,,,,,,,,,,,,,,,,,,,,,,,,,,,,,,,,,,,,
297280,2022-11-15_14h01.16.078,vts_reward_expectancy_bt,2022.2.4,Win32,59.95922773,Chrome,1707,1067,,,l,0.9829,10,41,0,0,4,4,11,1,0,0,0,1,0,0,1,0,star,hexagon,,,,,,,,,,,,,,,,,,,,,,,,,,,,,,,,,,,,,,,,,,,,,,,,,,,,,,
297280,2022-11-15_14h01.16.078,vts_reward_expectancy_bt,2022.2.4,Win32,59.95922773,Chrome,1707,1067,,,a,1.0018,1,42,0,0,5,5,5,1,0,1,0,0,0,0,0,1,circle,star,,,,,,,,,,,,,,,,,,,,,,,,,,,,,,,,,,,,,,,,,,,,,,,,,,,,,,
297280,2022-11-15_14h01.16.078,vts_reward_expectancy_bt,2022.2.4,Win32,59.95922773,Chrome,1707,1067,,,a,1.5948,1,43,0,0,6,6,10,1,0,0,0,1,0,1,0,0,star ,circle,,,,,,,,,,,,,,,,,,,,,,,,,,,,,,,,,,,,,,,,,,,,,,,,,,,,,,
297280,2022-11-15_14h01.16.078,vts_reward_expectancy_bt,2022.2.4,Win32,59.95922773,Chrome,1707,1067,,,a,1.8354,1,44,0,0,7,7,3,1,0,1,0,0,1,0,0,0,circle,triangle,,,,,,,,,,,,,,,,,,,,,,,,,,,,,,,,,,,,,,,,,,,,,,,,,,,,,,
297280,2022-11-15_14h01.16.078,vts_reward_expectancy_bt,2022.2.4,Win32,59.95922773,Chrome,1707,1067,,,l,3.3256,1,45,0,0,8,8,6,1,0,0,1,0,1,0,0,0,hexagon,triangle,,,,,,,,,,,,,,,,,,,,,,,,,,,,,,,,,,,,,,,,,,,,,,,,,,,,,,
297280,2022-11-15_14h01.16.078,vts_reward_expectancy_bt,2022.2.4,Win32,59.95922773,Chrome,1707,1067,,,l,1.6492,10,55,0,0,9,9,9,1,0,0,0,1,1,0,0,0,star,triangle,,,,,,,,,,,,,,,,,,,,,,,,,,,,,,,,,,,,,,,,,,,,,,,,,,,,,,
297280,2022-11-15_14h01.16.078,vts_reward_expectancy_bt,2022.2.4,Win32,59.95922773,Chrome,1707,1067,,,a,1.3563,10,65,0,0,10,10,0,1,1,0,0,0,0,1,0,0,triangle,circle,,,,,,,,,,,,,,,,,,,,,,,,,,,,,,,,,,,,,,,,,,,,,,,,,,,,,,
297280,2022-11-15_14h01.16.078,vts_reward_expectancy_bt,2022.2.4,Win32,59.95922773,Chrome,1707,1067,,,l,2.1314,1,66,0,0,11,11,2,1,1,0,0,0,0,0,0,1,triangle,star,,,,,,,,,,,,,,,,,,,,,,,,,,,,,,,,,,,,,,,,,,,,,,,,,,,,,,
297280,2022-11-15_14h01.16.078,vts_reward_expectancy_bt,2022.2.4,Win32,59.95922773,Chrome,1707,1067,,,l,1.5893,1,67,0,1,0,12,6,1,0,0,1,0,1,0,0,0,hexagon,triangle,,,,,,,,,,,,,,,,,,,,,,,,,,,,,,,,,,,,,,,,,,,,,,,,,,,,,,
297280,2022-11-15_14h01.16.078,vts_reward_expectancy_bt,2022.2.4,Win32,59.95922773,Chrome,1707,1067,,,l,1.4531,1,68,0,1,1,13,8,1,0,0,1,0,0,0,0,1,hexagon,star,,,,,,,,,,,,,,,,,,,,,,,,,,,,,,,,,,,,,,,,,,,,,,,,,,,,,,
297280,2022-11-15_14h01.16.078,vts_reward_expectancy_bt,2022.2.4,Win32,59.95922773,Chrome,1707,1067,,,l,1.5913,10,78,0,1,2,14,5,1,0,1,0,0,0,0,0,1,circle,star,,,,,,,,,,,,,,,,,,,,,,,,,,,,,,,,,,,,,,,,,,,,,,,,,,,,,,
297280,2022-11-15_14h01.16.078,vts_reward_expectancy_bt,2022.2.4,Win32,59.95922773,Chrome,1707,1067,,,l,1.6113,1,79,0,1,3,15,9,1,0,0,0,1,1,0,0,0,star,triangle,,,,,,,,,,,,,,,,,,,,,,,,,,,,,,,,,,,,,,,,,,,,,,,,,,,,,,
297280,2022-11-15_14h01.16.078,vts_reward_expectancy_bt,2022.2.4,Win32,59.95922773,Chrome,1707,1067,,,l,1.7779,10,89,0,1,4,16,7,1,0,0,1,0,0,1,0,0,hexagon,circle,,,,,,,,,,,,,,,,,,,,,,,,,,,,,,,,,,,,,,,,,,,,,,,,,,,,,,
297280,2022-11-15_14h01.16.078,vts_reward_expectancy_bt,2022.2.4,Win32,59.95922773,Chrome,1707,1067,,,a,2.2882,10,99,0,1,5,17,10,1,0,0,0,1,0,1,0,0,star ,circle,,,,,,,,,,,,,,,,,,,,,,,,,,,,,,,,,,,,,,,,,,,,,,,,,,,,,,
297280,2022-11-15_14h01.16.078,vts_reward_expectancy_bt,2022.2.4,Win32,59.95922773,Chrome,1707,1067,,,l,2.3904,1,100,0,1,6,18,1,1,1,0,0,0,0,0,1,0,triangle,hexagon,,,,,,,,,,,,,,,,,,,,,,,,,,,,,,,,,,,,,,,,,,,,,,,,,,,,,,
297280,2022-11-15_14h01.16.078,vts_reward_expectancy_bt,2022.2.4,Win32,59.95922773,Chrome,1707,1067,,,a,1.424,1,101,0,1,7,19,11,1,0,0,0,1,0,0,1,0,star,hexagon,,,,,,,,,,,,,,,,,,,,,,,,,,,,,,,,,,,,,,,,,,,,,,,,,,,,,,
297280,2022-11-15_14h01.16.078,vts_reward_expectancy_bt,2022.2.4,Win32,59.95922773,Chrome,1707,1067,,,l,1.9834,1,102,0,1,8,20,2,1,1,0,0,0,0,0,0,1,triangle,star,,,,,,,,,,,,,,,,,,,,,,,,,,,,,,,,,,,,,,,,,,,,,,,,,,,,,,
297280,2022-11-15_14h01.16.078,vts_reward_expectancy_bt,2022.2.4,Win32,59.95922773,Chrome,1707,1067,,,a,2.4069,1,103,0,1,9,21,4,1,0,1,0,0,0,0,1,0,circle,hexagon,,,,,,,,,,,,,,,,,,,,,,,,,,,,,,,,,,,,,,,,,,,,,,,,,,,,,,
297280,2022-11-15_14h01.16.078,vts_reward_expectancy_bt,2022.2.4,Win32,59.95922773,Chrome,1707,1067,,,l,1.9911,10,113,0,1,10,22,3,1,0,1,0,0,1,0,0,0,circle,triangle,,,,,,,,,,,,,,,,,,,,,,,,,,,,,,,,,,,,,,,,,,,,,,,,,,,,,,
297280,2022-11-15_14h01.16.078,vts_reward_expectancy_bt,2022.2.4,Win32,59.95922773,Chrome,1707,1067,,,l,0.9596,10,123,0,1,11,23,0,1,1,0,0,0,0,1,0,0,triangle,circle,,,,,,,,,,,,,,,,,,,,,,,,,,,,,,,,,,,,,,,,,,,,,,,,,,,,,,
297280,2022-11-15_14h01.16.078,vts_reward_expectancy_bt,2022.2.4,Win32,59.95922773,Chrome,1707,1067,,,l,1.3722,10,133,0,2,0,24,10,1,0,0,0,1,0,1,0,0,star ,circle,,,,,,,,,,,,,,,,,,,,,,,,,,,,,,,,,,,,,,,,,,,,,,,,,,,,,,
297280,2022-11-15_14h01.16.078,vts_reward_expectancy_bt,2022.2.4,Win32,59.95922773,Chrome,1707,1067,,,a,0.4885,10,143,0,2,1,25,11,1,0,0,0,1,0,0,1,0,star,hexagon,,,,,,,,,,,,,,,,,,,,,,,,,,,,,,,,,,,,,,,,,,,,,,,,,,,,,,
297280,2022-11-15_14h01.16.078,vts_reward_expectancy_bt,2022.2.4,Win32,59.95922773,Chrome,1707,1067,,,l,0.7854,1,144,0,2,2,26,0,1,1,0,0,0,0,1,0,0,triangle,circle,,,,,,,,,,,,,,,,,,,,,,,,,,,,,,,,,,,,,,,,,,,,,,,,,,,,,,
297280,2022-11-15_14h01.16.078,vts_reward_expectancy_bt,2022.2.4,Win32,59.95922773,Chrome,1707,1067,,,l,2.1077,1,145,0,2,3,27,5,1,0,1,0,0,0,0,0,1,circle,star,,,,,,,,,,,,,,,,,,,,,,,,,,,,,,,,,,,,,,,,,,,,,,,,,,,,,,
297280,2022-11-15_14h01.16.078,vts_reward_expectancy_bt,2022.2.4,Win32,59.95922773,Chrome,1707,1067,,,l,1.1303,1,146,0,2,4,28,3,1,0,1,0,0,1,0,0,0,circle,triangle,,,,,,,,,,,,,,,,,,,,,,,,,,,,,,,,,,,,,,,,,,,,,,,,,,,,,,
297280,2022-11-15_14h01.16.078,vts_reward_expectancy_bt,2022.2.4,Win32,59.95922773,Chrome,1707,1067,,,a,1.5165,10,156,0,2,5,29,7,1,0,0,1,0,0,1,0,0,hexagon,circle,,,,,,,,,,,,,,,,,,,,,,,,,,,,,,,,,,,,,,,,,,,,,,,,,,,,,,
297280,2022-11-15_14h01.16.078,vts_reward_expectancy_bt,2022.2.4,Win32,59.95922773,Chrome,1707,1067,,,a,2.6835,10,166,0,2,6,30,9,1,0,0,0,1,1,0,0,0,star,triangle,,,,,,,,,,,,,,,,,,,,,,,,,,,,,,,,,,,,,,,,,,,,,,,,,,,,,,
297280,2022-11-15_14h01.16.078,vts_reward_expectancy_bt,2022.2.4,Win32,59.95922773,Chrome,1707,1067,,,l,1.7593,1,167,0,2,7,31,1,1,1,0,0,0,0,0,1,0,triangle,hexagon,,,,,,,,,,,,,,,,,,,,,,,,,,,,,,,,,,,,,,,,,,,,,,,,,,,,,,
297280,2022-11-15_14h01.16.078,vts_reward_expectancy_bt,2022.2.4,Win32,59.95922773,Chrome,1707,1067,,,l,1.9917,1,168,0,2,8,32,4,1,0,1,0,0,0,0,1,0,circle,hexagon,,,,,,,,,,,,,,,,,,,,,,,,,,,,,,,,,,,,,,,,,,,,,,,,,,,,,,
297280,2022-11-15_14h01.16.078,vts_reward_expectancy_bt,2022.2.4,Win32,59.95922773,Chrome,1707,1067,,,a,1.5626,1,169,0,2,9,33,2,1,1,0,0,0,0,0,0,1,triangle,star,,,,,,,,,,,,,,,,,,,,,,,,,,,,,,,,,,,,,,,,,,,,,,,,,,,,,,
297280,2022-11-15_14h01.16.078,vts_reward_expectancy_bt,2022.2.4,Win32,59.95922773,Chrome,1707,1067,,,a,0.9054,10,179,0,2,10,34,6,1,0,0,1,0,1,0,0,0,hexagon,triangle,,,,,,,,,,,,,,,,,,,,,,,,,,,,,,,,,,,,,,,,,,,,,,,,,,,,,,
297280,2022-11-15_14h01.16.078,vts_reward_expectancy_bt,2022.2.4,Win32,59.95922773,Chrome,1707,1067,,,l,2.2237,1,180,0,2,11,35,8,1,0,0,1,0,0,0,0,1,hexagon,star,,,,,,,,,,,,,,,,,,,,,,,,,,,,,,,,,,,,,,,,,,,,,,,,,,,,,,
297280,2022-11-15_14h01.16.078,vts_reward_expectancy_bt,2022.2.4,Win32,59.95922773,Chrome,1707,1067,,,l,1.0326,10,190,1,0,0,0,0,1,1,0,0,0,0,1,0,0,triangle,circle,,,,,,,,,,,,,,,,,,,,,,,,,,,,,,,,,,,,,,,,,,,,,,,,,,,,,,
297280,2022-11-15_14h01.16.078,vts_reward_expectancy_bt,2022.2.4,Win32,59.95922773,Chrome,1707,1067,,,a,2.8491,1,191,1,0,1,1,11,1,0,0,0,1,0,0,1,0,star,hexagon,,,,,,,,,,,,,,,,,,,,,,,,,,,,,,,,,,,,,,,,,,,,,,,,,,,,,,
297280,2022-11-15_14h01.16.078,vts_reward_expectancy_bt,2022.2.4,Win32,59.95922773,Chrome,1707,1067,,,a,0.8412,10,201,1,0,2,2,9,1,0,0,0,1,1,0,0,0,star,triangle,,,,,,,,,,,,,,,,,,,,,,,,,,,,,,,,,,,,,,,,,,,,,,,,,,,,,,
297280,2022-11-15_14h01.16.078,vts_reward_expectancy_bt,2022.2.4,Win32,59.95922773,Chrome,1707,1067,,,l,1.4783,1,202,1,0,3,3,6,1,0,0,1,0,1,0,0,0,hexagon,triangle,,,,,,,,,,,,,,,,,,,,,,,,,,,,,,,,,,,,,,,,,,,,,,,,,,,,,,
297280,2022-11-15_14h01.16.078,vts_reward_expectancy_bt,2022.2.4,Win32,59.95922773,Chrome,1707,1067,,,l,1.3278,10,212,1,0,4,4,7,1,0,0,1,0,0,1,0,0,hexagon,circle,,,,,,,,,,,,,,,,,,,,,,,,,,,,,,,,,,,,,,,,,,,,,,,,,,,,,,
297280,2022-11-15_14h01.16.078,vts_reward_expectancy_bt,2022.2.4,Win32,59.95922773,Chrome,1707,1067,,,a,1.205,10,222,1,0,5,5,3,1,0,1,0,0,1,0,0,0,circle,triangle,,,,,,,,,,,,,,,,,,,,,,,,,,,,,,,,,,,,,,,,,,,,,,,,,,,,,,
297280,2022-11-15_14h01.16.078,vts_reward_expectancy_bt,2022.2.4,Win32,59.95922773,Chrome,1707,1067,,,l,1.4625,1,223,1,0,6,6,8,1,0,0,1,0,0,0,0,1,hexagon,star,,,,,,,,,,,,,,,,,,,,,,,,,,,,,,,,,,,,,,,,,,,,,,,,,,,,,,
297280,2022-11-15_14h01.16.078,vts_reward_expectancy_bt,2022.2.4,Win32,59.95922773,Chrome,1707,1067,,,a,1.5058,10,233,1,0,7,7,4,1,0,1,0,0,0,0,1,0,circle,hexagon,,,,,,,,,,,,,,,,,,,,,,,,,,,,,,,,,,,,,,,,,,,,,,,,,,,,,,
297280,2022-11-15_14h01.16.078,vts_reward_expectancy_bt,2022.2.4,Win32,59.95922773,Chrome,1707,1067,,,a,1.8238,10,243,1,0,8,8,10,1,0,0,0,1,0,1,0,0,star ,circle,,,,,,,,,,,,,,,,,,,,,,,,,,,,,,,,,,,,,,,,,,,,,,,,,,,,,,
297280,2022-11-15_14h01.16.078,vts_reward_expectancy_bt,2022.2.4,Win32,59.95922773,Chrome,1707,1067,,,a,3.7706,1,244,1,0,9,9,1,1,1,0,0,0,0,0,1,0,triangle,hexagon,,,,,,,,,,,,,,,,,,,,,,,,,,,,,,,,,,,,,,,,,,,,,,,,,,,,,,
297280,2022-11-15_14h01.16.078,vts_reward_expectancy_bt,2022.2.4,Win32,59.95922773,Chrome,1707,1067,,,a,1.7512,10,254,1,0,10,10,2,1,1,0,0,0,0,0,0,1,triangle,star,,,,,,,,,,,,,,,,,,,,,,,,,,,,,,,,,,,,,,,,,,,,,,,,,,,,,,
297280,2022-11-15_14h01.16.078,vts_reward_expectancy_bt,2022.2.4,Win32,59.95922773,Chrome,1707,1067,,,l,5.452,1,255,1,0,11,11,5,1,0,1,0,0,0,0,0,1,circle,star,,,,,,,,,,,,,,,,,,,,,,,,,,,,,,,,,,,,,,,,,,,,,,,,,,,,,,
297280,2022-11-15_14h01.16.078,vts_reward_expectancy_bt,2022.2.4,Win32,59.95922773,Chrome,1707,1067,,,a,2.9638,1,256,1,1,0,12,10,1,0,0,0,1,0,1,0,0,star ,circle,,,,,,,,,,,,,,,,,,,,,,,,,,,,,,,,,,,,,,,,,,,,,,,,,,,,,,
297280,2022-11-15_14h01.16.078,vts_reward_expectancy_bt,2022.2.4,Win32,59.95922773,Chrome,1707,1067,,,a,0.6745,10,266,1,1,1,13,3,1,0,1,0,0,1,0,0,0,circle,triangle,,,,,,,,,,,,,,,,,,,,,,,,,,,,,,,,,,,,,,,,,,,,,,,,,,,,,,
297280,2022-11-15_14h01.16.078,vts_reward_expectancy_bt,2022.2.4,Win32,59.95922773,Chrome,1707,1067,,,a,0.8543,1,267,1,1,2,14,5,1,0,1,0,0,0,0,0,1,circle,star,,,,,,,,,,,,,,,,,,,,,,,,,,,,,,,,,,,,,,,,,,,,,,,,,,,,,,
297280,2022-11-15_14h01.16.078,vts_reward_expectancy_bt,2022.2.4,Win32,59.95922773,Chrome,1707,1067,,,l,1.2744,10,277,1,1,3,15,7,1,0,0,1,0,0,1,0,0,hexagon,circle,,,,,,,,,,,,,,,,,,,,,,,,,,,,,,,,,,,,,,,,,,,,,,,,,,,,,,
297280,2022-11-15_14h01.16.078,vts_reward_expectancy_bt,2022.2.4,Win32,59.95922773,Chrome,1707,1067,,,a,2.4349,10,287,1,1,4,16,9,1,0,0,0,1,1,0,0,0,star,triangle,,,,,,,,,,,,,,,,,,,,,,,,,,,,,,,,,,,,,,,,,,,,,,,,,,,,,,
297280,2022-11-15_14h01.16.078,vts_reward_expectancy_bt,2022.2.4,Win32,59.95922773,Chrome,1707,1067,,,l,1.6487,1,288,1,1,5,17,2,1,1,0,0,0,0,0,0,1,triangle,star,,,,,,,,,,,,,,,,,,,,,,,,,,,,,,,,,,,,,,,,,,,,,,,,,,,,,,
297280,2022-11-15_14h01.16.078,vts_reward_expectancy_bt,2022.2.4,Win32,59.95922773,Chrome,1707,1067,,,a,9.2257,1,289,1,1,6,18,6,1,0,0,1,0,1,0,0,0,hexagon,triangle,,,,,,,,,,,,,,,,,,,,,,,,,,,,,,,,,,,,,,,,,,,,,,,,,,,,,,
297280,2022-11-15_14h01.16.078,vts_reward_expectancy_bt,2022.2.4,Win32,59.95922773,Chrome,1707,1067,,,l,1.5075,1,290,1,1,7,19,8,1,0,0,1,0,0,0,0,1,hexagon,star,,,,,,,,,,,,,,,,,,,,,,,,,,,,,,,,,,,,,,,,,,,,,,,,,,,,,,
297280,2022-11-15_14h01.16.078,vts_reward_expectancy_bt,2022.2.4,Win32,59.95922773,Chrome,1707,1067,,,l,0.7174,1,291,1,1,8,20,0,1,1,0,0,0,0,1,0,0,triangle,circle,,,,,,,,,,,,,,,,,,,,,,,,,,,,,,,,,,,,,,,,,,,,,,,,,,,,,,
297280,2022-11-15_14h01.16.078,vts_reward_expectancy_bt,2022.2.4,Win32,59.95922773,Chrome,1707,1067,,,l,1.0137,1,292,1,1,9,21,1,1,1,0,0,0,0,0,1,0,triangle,hexagon,,,,,,,,,,,,,,,,,,,,,,,,,,,,,,,,,,,,,,,,,,,,,,,,,,,,,,
297280,2022-11-15_14h01.16.078,vts_reward_expectancy_bt,2022.2.4,Win32,59.95922773,Chrome,1707,1067,,,a,1.2671,1,293,1,1,10,22,4,1,0,1,0,0,0,0,1,0,circle,hexagon,,,,,,,,,,,,,,,,,,,,,,,,,,,,,,,,,,,,,,,,,,,,,,,,,,,,,,
297280,2022-11-15_14h01.16.078,vts_reward_expectancy_bt,2022.2.4,Win32,59.95922773,Chrome,1707,1067,,,a,1.1557,10,303,1,1,11,23,11,1,0,0,0,1,0,0,1,0,star,hexagon,,,,,,,,,,,,,,,,,,,,,,,,,,,,,,,,,,,,,,,,,,,,,,,,,,,,,,
297280,2022-11-15_14h01.16.078,vts_reward_expectancy_bt,2022.2.4,Win32,59.95922773,Chrome,1707,1067,,,a,0.7842,1,304,1,2,0,24,4,1,0,1,0,0,0,0,1,0,circle,hexagon,,,,,,,,,,,,,,,,,,,,,,,,,,,,,,,,,,,,,,,,,,,,,,,,,,,,,,
297280,2022-11-15_14h01.16.078,vts_reward_expectancy_bt,2022.2.4,Win32,59.95922773,Chrome,1707,1067,,,l,1.2448,10,314,1,2,1,25,1,1,1,0,0,0,0,0,1,0,triangle,hexagon,,,,,,,,,,,,,,,,,,,,,,,,,,,,,,,,,,,,,,,,,,,,,,,,,,,,,,
297280,2022-11-15_14h01.16.078,vts_reward_expectancy_bt,2022.2.4,Win32,59.95922773,Chrome,1707,1067,,,l,1.7839,1,315,1,2,2,26,8,1,0,0,1,0,0,0,0,1,hexagon,star,,,,,,,,,,,,,,,,,,,,,,,,,,,,,,,,,,,,,,,,,,,,,,,,,,,,,,
297280,2022-11-15_14h01.16.078,vts_reward_expectancy_bt,2022.2.4,Win32,59.95922773,Chrome,1707,1067,,,l,0.8437,10,325,1,2,3,27,7,1,0,0,1,0,0,1,0,0,hexagon,circle,,,,,,,,,,,,,,,,,,,,,,,,,,,,,,,,,,,,,,,,,,,,,,,,,,,,,,
297280,2022-11-15_14h01.16.078,vts_reward_expectancy_bt,2022.2.4,Win32,59.95922773,Chrome,1707,1067,,,a,2.199,10,335,1,2,4,28,2,1,1,0,0,0,0,0,0,1,triangle,star,,,,,,,,,,,,,,,,,,,,,,,,,,,,,,,,,,,,,,,,,,,,,,,,,,,,,,
297280,2022-11-15_14h01.16.078,vts_reward_expectancy_bt,2022.2.4,Win32,59.95922773,Chrome,1707,1067,,,l,0.9308,1,336,1,2,5,29,0,1,1,0,0,0,0,1,0,0,triangle,circle,,,,,,,,,,,,,,,,,,,,,,,,,,,,,,,,,,,,,,,,,,,,,,,,,,,,,,
297280,2022-11-15_14h01.16.078,vts_reward_expectancy_bt,2022.2.4,Win32,59.95922773,Chrome,1707,1067,,,a,2.5539,1,337,1,2,6,30,10,1,0,0,0,1,0,1,0,0,star ,circle,,,,,,,,,,,,,,,,,,,,,,,,,,,,,,,,,,,,,,,,,,,,,,,,,,,,,,
297280,2022-11-15_14h01.16.078,vts_reward_expectancy_bt,2022.2.4,Win32,59.95922773,Chrome,1707,1067,,,l,1.8134,1,338,1,2,7,31,11,1,0,0,0,1,0,0,1,0,star,hexagon,,,,,,,,,,,,,,,,,,,,,,,,,,,,,,,,,,,,,,,,,,,,,,,,,,,,,,
297280,2022-11-15_14h01.16.078,vts_reward_expectancy_bt,2022.2.4,Win32,59.95922773,Chrome,1707,1067,,,l,2.075,1,339,1,2,8,32,3,1,0,1,0,0,1,0,0,0,circle,triangle,,,,,,,,,,,,,,,,,,,,,,,,,,,,,,,,,,,,,,,,,,,,,,,,,,,,,,
297280,2022-11-15_14h01.16.078,vts_reward_expectancy_bt,2022.2.4,Win32,59.95922773,Chrome,1707,1067,,,a,2.2093,10,349,1,2,9,33,5,1,0,1,0,0,0,0,0,1,circle,star,,,,,,,,,,,,,,,,,,,,,,,,,,,,,,,,,,,,,,,,,,,,,,,,,,,,,,
297280,2022-11-15_14h01.16.078,vts_reward_expectancy_bt,2022.2.4,Win32,59.95922773,Chrome,1707,1067,,,a,4.7405,1,350,1,2,10,34,9,1,0,0,0,1,1,0,0,0,star,triangle,,,,,,,,,,,,,,,,,,,,,,,,,,,,,,,,,,,,,,,,,,,,,,,,,,,,,,
297280,2022-11-15_14h01.16.078,vts_reward_expectancy_bt,2022.2.4,Win32,59.95922773,Chrome,1707,1067,,,l,1.8198,1,351,1,2,11,35,6,1,0,0,1,0,1,0,0,0,hexagon,triangle,,,,,,,,,,,,,,,,,,,,,,,,,,,,,,,,,,,,,,,,,,,,,,,,,,,,,,
297280,2022-11-15_14h01.16.078,vts_reward_expectancy_bt,2022.2.4,Win32,59.95922773,Chrome,1707,1067,,,a,0.3754,1,352,2,0,0,0,3,1,0,1,0,0,1,0,0,0,circle,triangle,,,,,,,,,,,,,,,,,,,,,,,,,,,,,,,,,,,,,,,,,,,,,,,,,,,,,,
297280,2022-11-15_14h01.16.078,vts_reward_expectancy_bt,2022.2.4,Win32,59.95922773,Chrome,1707,1067,,,a,1.6058,1,353,2,0,1,1,1,1,1,0,0,0,0,0,1,0,triangle,hexagon,,,,,,,,,,,,,,,,,,,,,,,,,,,,,,,,,,,,,,,,,,,,,,,,,,,,,,
297280,2022-11-15_14h01.16.078,vts_reward_expectancy_bt,2022.2.4,Win32,59.95922773,Chrome,1707,1067,,,l,1.008,1,354,2,0,2,2,8,1,0,0,1,0,0,0,0,1,hexagon,star,,,,,,,,,,,,,,,,,,,,,,,,,,,,,,,,,,,,,,,,,,,,,,,,,,,,,,
297280,2022-11-15_14h01.16.078,vts_reward_expectancy_bt,2022.2.4,Win32,59.95922773,Chrome,1707,1067,,,l,1.5986,1,355,2,0,3,3,5,1,0,1,0,0,0,0,0,1,circle,star,,,,,,,,,,,,,,,,,,,,,,,,,,,,,,,,,,,,,,,,,,,,,,,,,,,,,,
297280,2022-11-15_14h01.16.078,vts_reward_expectancy_bt,2022.2.4,Win32,59.95922773,Chrome,1707,1067,,,l,0.8571,10,365,2,0,4,4,10,1,0,0,0,1,0,1,0,0,star ,circle,,,,,,,,,,,,,,,,,,,,,,,,,,,,,,,,,,,,,,,,,,,,,,,,,,,,,,
297280,2022-11-15_14h01.16.078,vts_reward_expectancy_bt,2022.2.4,Win32,59.95922773,Chrome,1707,1067,,,l,10.2662,1,366,2,0,5,5,9,1,0,0,0,1,1,0,0,0,star,triangle,,,,,,,,,,,,,,,,,,,,,,,,,,,,,,,,,,,,,,,,,,,,,,,,,,,,,,
297280,2022-11-15_14h01.16.078,vts_reward_expectancy_bt,2022.2.4,Win32,59.95922773,Chrome,1707,1067,,,a,0.9072,1,367,2,0,6,6,6,1,0,0,1,0,1,0,0,0,hexagon,triangle,,,,,,,,,,,,,,,,,,,,,,,,,,,,,,,,,,,,,,,,,,,,,,,,,,,,,,
297280,2022-11-15_14h01.16.078,vts_reward_expectancy_bt,2022.2.4,Win32,59.95922773,Chrome,1707,1067,,,a,0.9198,10,377,2,0,7,7,4,1,0,1,0,0,0,0,1,0,circle,hexagon,,,,,,,,,,,,,,,,,,,,,,,,,,,,,,,,,,,,,,,,,,,,,,,,,,,,,,
297280,2022-11-15_14h01.16.078,vts_reward_expectancy_bt,2022.2.4,Win32,59.95922773,Chrome,1707,1067,,,l,2.433,10,387,2,0,8,8,2,1,1,0,0,0,0,0,0,1,triangle,star,,,,,,,,,,,,,,,,,,,,,,,,,,,,,,,,,,,,,,,,,,,,,,,,,,,,,,
297280,2022-11-15_14h01.16.078,vts_reward_expectancy_bt,2022.2.4,Win32,59.95922773,Chrome,1707,1067,,,l,1.1125,10,397,2,0,9,9,7,1,0,0,1,0,0,1,0,0,hexagon,circle,,,,,,,,,,,,,,,,,,,,,,,,,,,,,,,,,,,,,,,,,,,,,,,,,,,,,,
297280,2022-11-15_14h01.16.078,vts_reward_expectancy_bt,2022.2.4,Win32,59.95922773,Chrome,1707,1067,,,l,1.9365,10,407,2,0,10,10,0,1,1,0,0,0,0,1,0,0,triangle,circle,,,,,,,,,,,,,,,,,,,,,,,,,,,,,,,,,,,,,,,,,,,,,,,,,,,,,,
297280,2022-11-15_14h01.16.078,vts_reward_expectancy_bt,2022.2.4,Win32,59.95922773,Chrome,1707,1067,,,l,1.3049,1,408,2,0,11,11,11,1,0,0,0,1,0,0,1,0,star,hexagon,,,,,,,,,,,,,,,,,,,,,,,,,,,,,,,,,,,,,,,,,,,,,,,,,,,,,,
297280,2022-11-15_14h01.16.078,vts_reward_expectancy_bt,2022.2.4,Win32,59.95922773,Chrome,1707,1067,,,a,2.6113,1,409,2,1,0,12,3,1,0,1,0,0,1,0,0,0,circle,triangle,,,,,,,,,,,,,,,,,,,,,,,,,,,,,,,,,,,,,,,,,,,,,,,,,,,,,,
297280,2022-11-15_14h01.16.078,vts_reward_expectancy_bt,2022.2.4,Win32,59.95922773,Chrome,1707,1067,,,l,7.5238,10,419,2,1,1,13,11,1,0,0,0,1,0,0,1,0,star,hexagon,,,,,,,,,,,,,,,,,,,,,,,,,,,,,,,,,,,,,,,,,,,,,,,,,,,,,,
297280,2022-11-15_14h01.16.078,vts_reward_expectancy_bt,2022.2.4,Win32,59.95922773,Chrome,1707,1067,,,a,0.9913,10,429,2,1,2,14,8,1,0,0,1,0,0,0,0,1,hexagon,star,,,,,,,,,,,,,,,,,,,,,,,,,,,,,,,,,,,,,,,,,,,,,,,,,,,,,,
297280,2022-11-15_14h01.16.078,vts_reward_expectancy_bt,2022.2.4,Win32,59.95922773,Chrome,1707,1067,,,l,5.1161,1,430,2,1,3,15,2,1,1,0,0,0,0,0,0,1,triangle,star,,,,,,,,,,,,,,,,,,,,,,,,,,,,,,,,,,,,,,,,,,,,,,,,,,,,,,
297280,2022-11-15_14h01.16.078,vts_reward_expectancy_bt,2022.2.4,Win32,59.95922773,Chrome,1707,1067,,,a,1.1429,10,440,2,1,4,16,9,1,0,0,0,1,1,0,0,0,star,triangle,,,,,,,,,,,,,,,,,,,,,,,,,,,,,,,,,,,,,,,,,,,,,,,,,,,,,,
297280,2022-11-15_14h01.16.078,vts_reward_expectancy_bt,2022.2.4,Win32,59.95922773,Chrome,1707,1067,,,a,4.9349,1,441,2,1,5,17,5,1,0,1,0,0,0,0,0,1,circle,star,,,,,,,,,,,,,,,,,,,,,,,,,,,,,,,,,,,,,,,,,,,,,,,,,,,,,,
297280,2022-11-15_14h01.16.078,vts_reward_expectancy_bt,2022.2.4,Win32,59.95922773,Chrome,1707,1067,,,l,2.445,1,442,2,1,6,18,1,1,1,0,0,0,0,0,1,0,triangle,hexagon,,,,,,,,,,,,,,,,,,,,,,,,,,,,,,,,,,,,,,,,,,,,,,,,,,,,,,
297280,2022-11-15_14h01.16.078,vts_reward_expectancy_bt,2022.2.4,Win32,59.95922773,Chrome,1707,1067,,,a,4.7378,10,452,2,1,7,19,6,1,0,0,1,0,1,0,0,0,hexagon,triangle,,,,,,,,,,,,,,,,,,,,,,,,,,,,,,,,,,,,,,,,,,,,,,,,,,,,,,
297280,2022-11-15_14h01.16.078,vts_reward_expectancy_bt,2022.2.4,Win32,59.95922773,Chrome,1707,1067,,,a,1.024,10,462,2,1,8,20,4,1,0,1,0,0,0,0,1,0,circle,hexagon,,,,,,,,,,,,,,,,,,,,,,,,,,,,,,,,,,,,,,,,,,,,,,,,,,,,,,
297280,2022-11-15_14h01.16.078,vts_reward_expectancy_bt,2022.2.4,Win32,59.95922773,Chrome,1707,1067,,,a,3.557,10,472,2,1,9,21,10,1,0,0,0,1,0,1,0,0,star ,circle,,,,,,,,,,,,,,,,,,,,,,,,,,,,,,,,,,,,,,,,,,,,,,,,,,,,,,
297280,2022-11-15_14h01.16.078,vts_reward_expectancy_bt,2022.2.4,Win32,59.95922773,Chrome,1707,1067,,,l,0.6912,10,482,2,1,10,22,7,1,0,0,1,0,0,1,0,0,hexagon,circle,,,,,,,,,,,,,,,,,,,,,,,,,,,,,,,,,,,,,,,,,,,,,,,,,,,,,,
297280,2022-11-15_14h01.16.078,vts_reward_expectancy_bt,2022.2.4,Win32,59.95922773,Chrome,1707,1067,,,l,1.2603,10,492,2,1,11,23,0,1,1,0,0,0,0,1,0,0,triangle,circle,,,,,,,,,,,,,,,,,,,,,,,,,,,,,,,,,,,,,,,,,,,,,,,,,,,,,,
297280,2022-11-15_14h01.16.078,vts_reward_expectancy_bt,2022.2.4,Win32,59.95922773,Chrome,1707,1067,,,l,1.2713,10,502,2,2,0,24,2,1,1,0,0,0,0,0,0,1,triangle,star,,,,,,,,,,,,,,,,,,,,,,,,,,,,,,,,,,,,,,,,,,,,,,,,,,,,,,
297280,2022-11-15_14h01.16.078,vts_reward_expectancy_bt,2022.2.4,Win32,59.95922773,Chrome,1707,1067,,,a,1.6243,10,512,2,2,1,25,9,1,0,0,0,1,1,0,0,0,star,triangle,,,,,,,,,,,,,,,,,,,,,,,,,,,,,,,,,,,,,,,,,,,,,,,,,,,,,,
297280,2022-11-15_14h01.16.078,vts_reward_expectancy_bt,2022.2.4,Win32,59.95922773,Chrome,1707,1067,,,a,0.8677,1,513,2,2,2,26,4,1,0,1,0,0,0,0,1,0,circle,hexagon,,,,,,,,,,,,,,,,,,,,,,,,,,,,,,,,,,,,,,,,,,,,,,,,,,,,,,
297280,2022-11-15_14h01.16.078,vts_reward_expectancy_bt,2022.2.4,Win32,59.95922773,Chrome,1707,1067,,,l,2.0029,10,523,2,2,3,27,1,1,1,0,0,0,0,0,1,0,triangle,hexagon,,,,,,,,,,,,,,,,,,,,,,,,,,,,,,,,,,,,,,,,,,,,,,,,,,,,,,
297280,2022-11-15_14h01.16.078,vts_reward_expectancy_bt,2022.2.4,Win32,59.95922773,Chrome,1707,1067,,,l,2.1026,1,524,2,2,4,28,10,1,0,0,0,1,0,1,0,0,star ,circle,,,,,,,,,,,,,,,,,,,,,,,,,,,,,,,,,,,,,,,,,,,,,,,,,,,,,,
297280,2022-11-15_14h01.16.078,vts_reward_expectancy_bt,2022.2.4,Win32,59.95922773,Chrome,1707,1067,,,l,0.6449,1,525,2,2,5,29,5,1,0,1,0,0,0,0,0,1,circle,star,,,,,,,,,,,,,,,,,,,,,,,,,,,,,,,,,,,,,,,,,,,,,,,,,,,,,,
297280,2022-11-15_14h01.16.078,vts_reward_expectancy_bt,2022.2.4,Win32,59.95922773,Chrome,1707,1067,,,l,0.6516,10,535,2,2,6,30,0,1,1,0,0,0,0,1,0,0,triangle,circle,,,,,,,,,,,,,,,,,,,,,,,,,,,,,,,,,,,,,,,,,,,,,,,,,,,,,,
297280,2022-11-15_14h01.16.078,vts_reward_expectancy_bt,2022.2.4,Win32,59.95922773,Chrome,1707,1067,,,a,3.8522,10,545,2,2,7,31,6,1,0,0,1,0,1,0,0,0,hexagon,triangle,,,,,,,,,,,,,,,,,,,,,,,,,,,,,,,,,,,,,,,,,,,,,,,,,,,,,,
297280,2022-11-15_14h01.16.078,vts_reward_expectancy_bt,2022.2.4,Win32,59.95922773,Chrome,1707,1067,,,a,1.4509,10,555,2,2,8,32,11,1,0,0,0,1,0,0,1,0,star,hexagon,,,,,,,,,,,,,,,,,,,,,,,,,,,,,,,,,,,,,,,,,,,,,,,,,,,,,,
297280,2022-11-15_14h01.16.078,vts_reward_expectancy_bt,2022.2.4,Win32,59.95922773,Chrome,1707,1067,,,a,2.2524,10,565,2,2,9,33,8,1,0,0,1,0,0,0,0,1,hexagon,star,,,,,,,,,,,,,,,,,,,,,,,,,,,,,,,,,,,,,,,,,,,,,,,,,,,,,,
297280,2022-11-15_14h01.16.078,vts_reward_expectancy_bt,2022.2.4,Win32,59.95922773,Chrome,1707,1067,,,a,1.0652,1,566,2,2,10,34,3,1,0,1,0,0,1,0,0,0,circle,triangle,,,,,,,,,,,,,,,,,,,,,,,,,,,,,,,,,,,,,,,,,,,,,,,,,,,,,,
297280,2022-11-15_14h01.16.078,vts_reward_expectancy_bt,2022.2.4,Win32,59.95922773,Chrome,1707,1067,,,l,1.4696,10,576,2,2,11,35,7,1,0,0,1,0,0,1,0,0,hexagon,circle,,,,,,,,,,,,,,,,,,,,,,,,,,,,,,,,,,,,,,,,,,,,,,,,,,,,,,
297280,2022-11-15_14h01.16.078,vts_reward_expectancy_bt,2022.2.4,Win32,59.95922773,Chrome,1707,1067,,,,,,,,,,,,,,,,,,,,,,,B,160,triangle,1,0,d,1.1874,0,0,0,0,0,1,,,,,,,,,,,,,,,,,,,,,,,,,,,,,,,,,,,,,,,,,
297280,2022-11-15_14h01.16.078,vts_reward_expectancy_bt,2022.2.4,Win32,59.95922773,Chrome,1707,1067,,,,,,,,,,,,,,,,,,,,,,,S,125,hexagon,1,0,f,1.3463,0,1,0,1,0,1,,,,,,,,,,,,,,,,,,,,,,,,,,,,,,,,,,,,,,,,,
297280,2022-11-15_14h01.16.078,vts_reward_expectancy_bt,2022.2.4,Win32,59.95922773,Chrome,1707,1067,,,,,,,,,,,,,,,,,,,,,,,W,139,star,1,0,f,1.0503,0,2,0,2,0,1,,,,,,,,,,,,,,,,,,,,,,,,,,,,,,,,,,,,,,,,,
297280,2022-11-15_14h01.16.078,vts_reward_expectancy_bt,2022.2.4,Win32,59.95922773,Chrome,1707,1067,,,,,,,,,,,,,,,,,,,,,,,D,174,circle,1,0,d,0.8957,0,3,0,3,0,1,,,,,,,,,,,,,,,,,,,,,,,,,,,,,,,,,,,,,,,,,
297280,2022-11-15_14h01.16.078,vts_reward_expectancy_bt,2022.2.4,Win32,59.95922773,Chrome,1707,1067,,,,,,,,,,,,,,,,,,,,,,,Y,146,triangle,1,0,f,0.7001,0,4,0,4,0,1,,,,,,,,,,,,,,,,,,,,,,,,,,,,,,,,,,,,,,,,,
297280,2022-11-15_14h01.16.078,vts_reward_expectancy_bt,2022.2.4,Win32,59.95922773,Chrome,1707,1067,,,,,,,,,,,,,,,,,,,,,,,F,181,hexagon,1,0,d,0.7043,0,5,0,5,0,1,,,,,,,,,,,,,,,,,,,,,,,,,,,,,,,,,,,,,,,,,
297280,2022-11-15_14h01.16.078,vts_reward_expectancy_bt,2022.2.4,Win32,59.95922773,Chrome,1707,1067,,,,,,,,,,,,,,,,,,,,,,,U,132,star,1,0,f,0.6661,0,6,0,6,0,1,,,,,,,,,,,,,,,,,,,,,,,,,,,,,,,,,,,,,,,,,
297280,2022-11-15_14h01.16.078,vts_reward_expectancy_bt,2022.2.4,Win32,59.95922773,Chrome,1707,1067,,,,,,,,,,,,,,,,,,,,,,,H,167,circle,1,0,d,1.9147,0,7,0,7,0,1,,,,,,,,,,,,,,,,,,,,,,,,,,,,,,,,,,,,,,,,,
297280,2022-11-15_14h01.16.078,vts_reward_expectancy_bt,2022.2.4,Win32,59.95922773,Chrome,1707,1067,,,,,,,,,,,,,,,,,,,,,,,B,160,hexagon,1,0,d,0.679,0,8,0,8,0,1,,,,,,,,,,,,,,,,,,,,,,,,,,,,,,,,,,,,,,,,,
297280,2022-11-15_14h01.16.078,vts_reward_expectancy_bt,2022.2.4,Win32,59.95922773,Chrome,1707,1067,,,,,,,,,,,,,,,,,,,,,,,S,125,triangle,1,0,f,1.7826,0,9,0,9,0,1,,,,,,,,,,,,,,,,,,,,,,,,,,,,,,,,,,,,,,,,,
297280,2022-11-15_14h01.16.078,vts_reward_expectancy_bt,2022.2.4,Win32,59.95922773,Chrome,1707,1067,,,,,,,,,,,,,,,,,,,,,,,W,132,circle,1,0,,,1,,,,,,j,0.9384,0,0,0,0,1,,,,,,,,,,,,,,,,,,,,,,,,,,,,,,,,,,
297280,2022-11-15_14h01.16.078,vts_reward_expectancy_bt,2022.2.4,Win32,59.95922773,Chrome,1707,1067,,,,,,,,,,,,,,,,,,,,,,,F,174,hexagon,1,0,,,1,,,,,,k,0.6293,1,0,1,0,1,,,,,,,,,,,,,,,,,,,,,,,,,,,,,,,,,,
297280,2022-11-15_14h01.16.078,vts_reward_expectancy_bt,2022.2.4,Win32,59.95922773,Chrome,1707,1067,,,,,,,,,,,,,,,,,,,,,,,S,160,triangle,1,0,,,1,,,,,,k,1.9883,2,0,2,0,1,,,,,,,,,,,,,,,,,,,,,,,,,,,,,,,,,,
297280,2022-11-15_14h01.16.078,vts_reward_expectancy_bt,2022.2.4,Win32,59.95922773,Chrome,1707,1067,,,,,,,,,,,,,,,,,,,,,,,D,167,star,1,0,,,1,,,,,,k,0.6828,3,0,3,0,1,,,,,,,,,,,,,,,,,,,,,,,,,,,,,,,,,,
297280,2022-11-15_14h01.16.078,vts_reward_expectancy_bt,2022.2.4,Win32,59.95922773,Chrome,1707,1067,,,,,,,,,,,,,,,,,,,,,,,B,146,circle,1,0,,,1,,,,,,j,1.0667,4,0,4,0,1,,,,,,,,,,,,,,,,,,,,,,,,,,,,,,,,,,
297280,2022-11-15_14h01.16.078,vts_reward_expectancy_bt,2022.2.4,Win32,59.95922773,Chrome,1707,1067,,,,,,,,,,,,,,,,,,,,,,,Y,181,hexagon,1,0,,,1,,,,,,k,1.0637,5,0,5,0,1,,,,,,,,,,,,,,,,,,,,,,,,,,,,,,,,,,
297280,2022-11-15_14h01.16.078,vts_reward_expectancy_bt,2022.2.4,Win32,59.95922773,Chrome,1707,1067,,,,,,,,,,,,,,,,,,,,,,,H,139,triangle,1,0,,,1,,,,,,j,0.5891,6,0,6,0,1,,,,,,,,,,,,,,,,,,,,,,,,,,,,,,,,,,
297280,2022-11-15_14h01.16.078,vts_reward_expectancy_bt,2022.2.4,Win32,59.95922773,Chrome,1707,1067,,,,,,,,,,,,,,,,,,,,,,,U,125,star,1,0,,,1,,,,,,j,0.8845,7,0,7,0,1,,,,,,,,,,,,,,,,,,,,,,,,,,,,,,,,,,
297280,2022-11-15_14h01.16.078,vts_reward_expectancy_bt,2022.2.4,Win32,59.95922773,Chrome,1707,1067,,,,,,,,,,,,,,,,,,,,,,,W,132,star,1,0,,,1,,,,,,j,1.0474,8,0,8,0,1,,,,,,,,,,,,,,,,,,,,,,,,,,,,,,,,,,
297280,2022-11-15_14h01.16.078,vts_reward_expectancy_bt,2022.2.4,Win32,59.95922773,Chrome,1707,1067,,,,,,,,,,,,,,,,,,,,,,,F,174,circle,1,0,,,1,,,,,,k,0.7012,9,0,9,0,1,,,,,,,,,,,,,,,,,,,,,,,,,,,,,,,,,,
297280,2022-11-15_14h01.16.078,vts_reward_expectancy_bt,2022.2.4,Win32,59.95922773,Chrome,1707,1067,,,,,0,576,,,,,,,,,,,,,,,,,H,132,star,-1,0,,,2,,,,,,,,,,,,,-1,no_choice,NA,,vtsPrac,0,0,0,0,1,,,,,,,,,,,,,,,,,,,,,,,,
297280,2022-11-15_14h01.16.078,vts_reward_expectancy_bt,2022.2.4,Win32,59.95922773,Chrome,1707,1067,,,,,0,576,,,,,,,,,,,,,,,,,B,125,triangle,1,0,,,2,,,,,,,,,,,,,switch,number,numSwt,j,vtsPrac,1,0,1,0,1,0.7847,,,,,,,,,,,,,,,,,,,,,,,
297280,2022-11-15_14h01.16.078,vts_reward_expectancy_bt,2022.2.4,Win32,59.95922773,Chrome,1707,1067,,,,,0,576,,,,,,,,,,,,,,,,,S,181,star,1,0,,,2,,,,,,,,,,,,,repeat,number,numRpt,k,vtsPrac,2,0,2,0,1,1.2535,,,,,,,,,,,,,,,,,,,,,,,
297280,2022-11-15_14h01.16.078,vts_reward_expectancy_bt,2022.2.4,Win32,59.95922773,Chrome,1707,1067,,,,,0,576,,,,,,,,,,,,,,,,,Y,167,triangle,1,0,,,2,,,,,,,,,,,,,switch,letter,lettSwt,f,vtsPrac,3,0,3,0,1,0.7455,,,,,,,,,,,,,,,,,,,,,,,
297280,2022-11-15_14h01.16.078,vts_reward_expectancy_bt,2022.2.4,Win32,59.95922773,Chrome,1707,1067,,,,,0,576,,,,,,,,,,,,,,,,,H,132,triangle,1,0,,,2,,,,,,,,,,,,,switch,number,numSwt,j,vtsPrac,4,0,4,0,1,1.3493,,,,,,,,,,,,,,,,,,,,,,,
297280,2022-11-15_14h01.16.078,vts_reward_expectancy_bt,2022.2.4,Win32,59.95922773,Chrome,1707,1067,,,,,0,576,,,,,,,,,,,,,,,,,B,125,hexagon,1,0,,,2,,,,,,,,,,,,,switch,letter,lettSwt,d,vtsPrac,5,0,5,0,1,0.6056,,,,,,,,,,,,,,,,,,,,,,,
297280,2022-11-15_14h01.16.078,vts_reward_expectancy_bt,2022.2.4,Win32,59.95922773,Chrome,1707,1067,,,,,0,576,,,,,,,,,,,,,,,,,S,181,hexagon,1,0,,,2,,,,,,,,,,,,,switch,number,numSwt,k,vtsPrac,6,0,6,0,1,0.6462,,,,,,,,,,,,,,,,,,,,,,,
297280,2022-11-15_14h01.16.078,vts_reward_expectancy_bt,2022.2.4,Win32,59.95922773,Chrome,1707,1067,,,,,0,576,,,,,,,,,,,,,,,,,Y,167,circle,1,0,,,2,,,,,,,,,,,,,repeat,number,numRpt,k,vtsPrac,7,0,7,0,1,0.6636,,,,,,,,,,,,,,,,,,,,,,,
297280,2022-11-15_14h01.16.078,vts_reward_expectancy_bt,2022.2.4,Win32,59.95922773,Chrome,1707,1067,,,,,0,576,,,,,,,,,,,,,,,,,S,132,star,1,0,,,2,,,,,,,,,,,,,switch,letter,lettSwt,f,vtsPrac,8,0,8,0,1,0.7023,,,,,,,,,,,,,,,,,,,,,,,
297280,2022-11-15_14h01.16.078,vts_reward_expectancy_bt,2022.2.4,Win32,59.95922773,Chrome,1707,1067,,,,,0,576,,,,,,,,,,,,,,,,,Y,167,circle,1,0,,,2,,,,,,,,,,,,,switch,number,numSwt,k,vtsPrac,9,0,9,0,1,0.8305,,,,,,,,,,,,,,,,,,,,,,,
297280,2022-11-15_14h01.16.078,vts_reward_expectancy_bt,2022.2.4,Win32,59.95922773,Chrome,1707,1067,,,,,0,576,,,,,,,,,,,,,,,,,D,181,circle,1,0,,,2,,,,,,,,,,,,,switch,letter,lettSwt,d,vtsPrac,10,0,10,0,1,0.7506,,,,,,,,,,,,,,,,,,,,,,,
297280,2022-11-15_14h01.16.078,vts_reward_expectancy_bt,2022.2.4,Win32,59.95922773,Chrome,1707,1067,,,,,0,576,,,,,,,,,,,,,,,,,W,146,hexagon,1,0,,,2,,,,,,,,,,,,,repeat,letter,lettRpt,f,vtsPrac,11,0,11,0,1,0.6621,,,,,,,,,,,,,,,,,,,,,,,
297280,2022-11-15_14h01.16.078,vts_reward_expectancy_bt,2022.2.4,Win32,59.95922773,Chrome,1707,1067,,,,,0,576,,,,,,,,,,,,,,,,,B,125,star,1,0,,,2,,,,,,,,,,,,,repeat,letter,lettRpt,d,vtsPrac,12,0,12,0,1,0.7056,,,,,,,,,,,,,,,,,,,,,,,
297280,2022-11-15_14h01.16.078,vts_reward_expectancy_bt,2022.2.4,Win32,59.95922773,Chrome,1707,1067,,,,,0,576,,,,,,,,,,,,,,,,,H,132,circle,1,0,,,2,,,,,,,,,,,,,switch,number,numSwt,j,vtsPrac,13,0,13,0,1,1.3124,,,,,,,,,,,,,,,,,,,,,,,
297280,2022-11-15_14h01.16.078,vts_reward_expectancy_bt,2022.2.4,Win32,59.95922773,Chrome,1707,1067,,,,,0,576,,,,,,,,,,,,,,,,,S,146,hexagon,1,0,,,2,,,,,,,,,,,,,repeat,number,numRpt,j,vtsPrac,14,0,14,0,1,1.0161,,,,,,,,,,,,,,,,,,,,,,,
297280,2022-11-15_14h01.16.078,vts_reward_expectancy_bt,2022.2.4,Win32,59.95922773,Chrome,1707,1067,,,,,0,576,,,,,,,,,,,,,,,,,U,139,star,1,0,,,2,,,,,,,,,,,,,switch,letter,lettSwt,f,vtsPrac,15,0,15,0,1,0.998,,,,,,,,,,,,,,,,,,,,,,,
297280,2022-11-15_14h01.16.078,vts_reward_expectancy_bt,2022.2.4,Win32,59.95922773,Chrome,1707,1067,,,,,0,576,,,,,,,,,,,,,,,,,F,174,star,1,0,,,2,,,,,,,,,,,,,switch,number,numSwt,k,vtsPrac,16,0,16,0,1,0.8379,,,,,,,,,,,,,,,,,,,,,,,
297280,2022-11-15_14h01.16.078,vts_reward_expectancy_bt,2022.2.4,Win32,59.95922773,Chrome,1707,1067,,,,,0,576,,,,,,,,,,,,,,,,,S,160,triangle,1,0,,,2,,,,,,,,,,,,,switch,letter,lettSwt,f,vtsPrac,17,0,17,0,1,0.6772,,,,,,,,,,,,,,,,,,,,,,,
297280,2022-11-15_14h01.16.078,vts_reward_expectancy_bt,2022.2.4,Win32,59.95922773,Chrome,1707,1067,,,,,0,576,,,,,,,,,,,,,,,,,H,132,circle,1,0,,,2,,,,,,,,,,,,,switch,number,numSwt,j,vtsPrac,18,0,18,0,1,1.0814,,,,,,,,,,,,,,,,,,,,,,,
297280,2022-11-15_14h01.16.078,vts_reward_expectancy_bt,2022.2.4,Win32,59.95922773,Chrome,1707,1067,,,,,0,576,,,,,,,,,,,,,,,,,Y,167,star,1,0,,,2,,,,,,,,,,,,,switch,letter,lettSwt,f,vtsPrac,19,0,19,0,1,0.7729,,,,,,,,,,,,,,,,,,,,,,,
297280,2022-11-15_14h01.16.078,vts_reward_expectancy_bt,2022.2.4,Win32,59.95922773,Chrome,1707,1067,,,,,0,576,,,,,,,,,,,,,,,,,D,174,triangle,1,0,,,2,,,,,,,,,,,,,switch,number,numSwt,k,vtsPrac,20,0,20,0,1,0.6714,,,,,,,,,,,,,,,,,,,,,,,
297280,2022-11-15_14h01.16.078,vts_reward_expectancy_bt,2022.2.4,Win32,59.95922773,Chrome,1707,1067,,,,,0,576,,,,,,,,,,,,,,,,,Y,146,star,1,0,,,2,,,,,,,,,,,,,repeat,number,numRpt,j,vtsPrac,21,0,21,0,1,0.7041,,,,,,,,,,,,,,,,,,,,,,,
297280,2022-11-15_14h01.16.078,vts_reward_expectancy_bt,2022.2.4,Win32,59.95922773,Chrome,1707,1067,,,,,0,576,,,,,,,,,,,,,,,,,F,181,star,1,0,,,2,,,,,,,,,,,,,repeat,number,numRpt,k,vtsPrac,22,0,22,0,1,0.8634,,,,,,,,,,,,,,,,,,,,,,,
297280,2022-11-15_14h01.16.078,vts_reward_expectancy_bt,2022.2.4,Win32,59.95922773,Chrome,1707,1067,,,,,0,576,,,,,,,,,,,,,,,,,U,139,triangle,1,0,,,2,,,,,,,,,,,,,switch,letter,lettSwt,f,vtsPrac,23,0,23,0,1,0.6545,,,,,,,,,,,,,,,,,,,,,,,
297280,2022-11-15_14h01.16.078,vts_reward_expectancy_bt,2022.2.4,Win32,59.95922773,Chrome,1707,1067,,,,,0,576,,,,,,,,,,,,,,,,,D,160,hexagon,1,0,,,2,,,,,,,,,,,,,repeat,letter,lettRpt,d,vtsPrac,24,0,24,0,1,1.2357,,,,,,,,,,,,,,,,,,,,,,,
297280,2022-11-15_14h01.16.078,vts_reward_expectancy_bt,2022.2.4,Win32,59.95922773,Chrome,1707,1067,,,,,0,576,,,,,,,,,,,,,,,,,S,167,circle,1,0,,,2,,,,,,,,,,,,,repeat,letter,lettRpt,f,vtsPrac,25,0,25,0,1,0.8383,,,,,,,,,,,,,,,,,,,,,,,
297280,2022-11-15_14h01.16.078,vts_reward_expectancy_bt,2022.2.4,Win32,59.95922773,Chrome,1707,1067,,,,,0,576,,,,,,,,,,,,,,,,,Y,181,circle,1,0,,,2,,,,,,,,,,,,,switch,number,numSwt,k,vtsPrac,26,0,26,0,1,0.7816,,,,,,,,,,,,,,,,,,,,,,,
297280,2022-11-15_14h01.16.078,vts_reward_expectancy_bt,2022.2.4,Win32,59.95922773,Chrome,1707,1067,,,,,0,576,,,,,,,,,,,,,,,,,F,139,hexagon,1,0,,,2,,,,,,,,,,,,,switch,letter,lettSwt,d,vtsPrac,27,0,27,0,1,0.9147,,,,,,,,,,,,,,,,,,,,,,,
297280,2022-11-15_14h01.16.078,vts_reward_expectancy_bt,2022.2.4,Win32,59.95922773,Chrome,1707,1067,,,,,0,576,,,,,,,,,,,,,,,,,F,181,triangle,1,0,,,2,,,,,,,,,,,,,repeat,letter,lettRpt,d,vtsPrac,28,0,28,0,1,0.699,,,,,,,,,,,,,,,,,,,,,,,
297280,2022-11-15_14h01.16.078,vts_reward_expectancy_bt,2022.2.4,Win32,59.95922773,Chrome,1707,1067,,,,,0,576,,,,,,,,,,,,,,,,,H,132,hexagon,1,0,,,2,,,,,,,,,,,,,switch,number,numSwt,j,vtsPrac,29,0,29,0,1,0.5964,,,,,,,,,,,,,,,,,,,,,,,
297280,2022-11-15_14h01.16.078,vts_reward_expectancy_bt,2022.2.4,Win32,59.95922773,Chrome,1707,1067,,,,,0,576,,,,,,,,,,,,,,,,,Y,139,circle,1,0,,,2,,,,,,,,,,,,,switch,letter,lettSwt,f,vtsPrac,30,0,30,0,1,1.2324,,,,,,,,,,,,,,,,,,,,,,,
297280,2022-11-15_14h01.16.078,vts_reward_expectancy_bt,2022.2.4,Win32,59.95922773,Chrome,1707,1067,,,,,0,576,,,,,,,,,,,,,,,,,B,146,star,1,0,,,2,,,,,,,,,,,,,repeat,letter,lettRpt,d,vtsPrac,31,0,31,0,1,0.9219,,,,,,,,,,,,,,,,,,,,,,,
297280,2022-11-15_14h01.16.078,vts_reward_expectancy_bt,2022.2.4,Win32,59.95922773,Chrome,1707,1067,,,,,,,,,,,,,,,,,,,,,,,,,,,,,,,,,,,,,,,,,,,,,,,,,,,,,,,,,,,,,,,,,,,,,,,,,,,,
297280,2022-11-15_14h01.16.078,vts_reward_expectancy_bt,2022.2.4,Win32,59.95922773,Chrome,1707,1067,,,,,,,,,,,,,,,,,,,,,,,,,,,,,,,,,,,,,,,,,,,,,,,,,,,,,,,,,,,,,,,,,,,,,,,,,,,,
297280,2022-11-15_14h01.16.078,vts_reward_expectancy_bt,2022.2.4,Win32,59.95922773,Chrome,1707,1067,,,,,0,576,,,,,,,,,,,,,,,,,F,181,star,1,0,,,,,,,,,,,,,,,,repeat,letter,lettRpt,d,noRew,,,,,,1.5037,0,0,0,0,0,1,,,,,,,,,,,,,,,,,
297280,2022-11-15_14h01.16.078,vts_reward_expectancy_bt,2022.2.4,Win32,59.95922773,Chrome,1707,1067,,,,,0,576,,,,,,,,,,,,,,,,,U,125,hexagon,1,0,,,,,,,,,,,,,,,,switch,number,numSwt,j,noRew,,,,,,1.7637,0,1,0,1,0,1,,,,,,,,,,,,,,,,,
297280,2022-11-15_14h01.16.078,vts_reward_expectancy_bt,2022.2.4,Win32,59.95922773,Chrome,1707,1067,,,,,0,576,,,,,,,,,,,,,,,,,W,132,star,1,0,,,,,,,,,,,,,,,,switch,letter,lettSwt,f,noRew,,,,,,2.0466,0,2,0,2,0,1,,,,,,,,,,,,,,,,,
297280,2022-11-15_14h01.16.078,vts_reward_expectancy_bt,2022.2.4,Win32,59.95922773,Chrome,1707,1067,,,,,0,576,,,,,,,,,,,,,,,,,B,146,hexagon,1,0,,,,,,,,,,,,,,,,repeat,letter,lettRpt,d,noRew,,,,,,0.8981,0,3,0,3,0,1,,,,,,,,,,,,,,,,,
297280,2022-11-15_14h01.16.078,vts_reward_expectancy_bt,2022.2.4,Win32,59.95922773,Chrome,1707,1067,,,,,0,576,,,,,,,,,,,,,,,,,F,181,hexagon,1,0,,,,,,,,,,,,,,,,switch,number,numSwt,k,noRew,,,,,,0.7497,0,4,0,4,0,1,,,,,,,,,,,,,,,,,
297280,2022-11-15_14h01.16.078,vts_reward_expectancy_bt,2022.2.4,Win32,59.95922773,Chrome,1707,1067,,,,,0,576,,,,,,,,,,,,,,,,,U,125,triangle,1,0,,,,,,,,,,,,,,,,switch,letter,lettSwt,f,noRew,,,,,,1.3641,0,5,0,5,0,1,,,,,,,,,,,,,,,,,
297280,2022-11-15_14h01.16.078,vts_reward_expectancy_bt,2022.2.4,Win32,59.95922773,Chrome,1707,1067,,,,,0,576,,,,,,,,,,,,,,,,,W,132,hexagon,1,0,,,,,,,,,,,,,,,,switch,number,numSwt,j,noRew,,,,,,1.2638,0,6,0,6,0,1,,,,,,,,,,,,,,,,,
297280,2022-11-15_14h01.16.078,vts_reward_expectancy_bt,2022.2.4,Win32,59.95922773,Chrome,1707,1067,,,,,0,576,,,,,,,,,,,,,,,,,B,146,triangle,1,0,,,,,,,,,,,,,,,,switch,letter,lettSwt,d,noRew,,,,,,0.7306,0,7,0,7,0,1,,,,,,,,,,,,,,,,,
297280,2022-11-15_14h01.16.078,vts_reward_expectancy_bt,2022.2.4,Win32,59.95922773,Chrome,1707,1067,,,,,0,576,,,,,,,,,,,,,,,,,S,160,triangle,1,0,,,,,,,,,,,,,,,,switch,number,numSwt,k,noRew,,,,,,1.647,0,8,0,8,0,1,,,,,,,,,,,,,,,,,
297280,2022-11-15_14h01.16.078,vts_reward_expectancy_bt,2022.2.4,Win32,59.95922773,Chrome,1707,1067,,,,,0,576,,,,,,,,,,,,,,,,,Y,174,circle,1,0,,,,,,,,,,,,,,,,repeat,number,numRpt,k,noRew,,,,,,0.7294,0,9,0,9,0,1,,,,,,,,,,,,,,,,,
297280,2022-11-15_14h01.16.078,vts_reward_expectancy_bt,2022.2.4,Win32,59.95922773,Chrome,1707,1067,,,,,0,576,,,,,,,,,,,,,,,,,B,146,circle,1,0,,,,,,,,,,,,,,,,switch,letter,lettSwt,d,noRew,,,,,,0.6347,0,10,0,10,0,1,,,,,,,,,,,,,,,,,
297280,2022-11-15_14h01.16.078,vts_reward_expectancy_bt,2022.2.4,Win32,59.95922773,Chrome,1707,1067,,,,,0,576,,,,,,,,,,,,,,,,,H,181,star,1,0,,,,,,,,,,,,,,,,repeat,letter,lettRpt,d,noRew,,,,,,1.5971,0,11,0,11,0,1,,,,,,,,,,,,,,,,,
297280,2022-11-15_14h01.16.078,vts_reward_expectancy_bt,2022.2.4,Win32,59.95922773,Chrome,1707,1067,,,,,0,576,,,,,,,,,,,,,,,,,W,174,star,1,0,,,,,,,,,,,,,,,,switch,number,numSwt,k,noRew,,,,,,0.7657,0,12,0,12,0,1,,,,,,,,,,,,,,,,,
297280,2022-11-15_14h01.16.078,vts_reward_expectancy_bt,2022.2.4,Win32,59.95922773,Chrome,1707,1067,,,,,0,576,,,,,,,,,,,,,,,,,H,167,circle,1,0,,,,,,,,,,,,,,,,switch,letter,lettSwt,d,noRew,,,,,,1.2147,0,13,0,13,0,1,,,,,,,,,,,,,,,,,
297280,2022-11-15_14h01.16.078,vts_reward_expectancy_bt,2022.2.4,Win32,59.95922773,Chrome,1707,1067,,,,,0,576,,,,,,,,,,,,,,,,,B,125,hexagon,1,0,,,,,,,,,,,,,,,,switch,number,numSwt,j,noRew,,,,,,0.9167,0,14,0,14,0,1,,,,,,,,,,,,,,,,,
297280,2022-11-15_14h01.16.078,vts_reward_expectancy_bt,2022.2.4,Win32,59.95922773,Chrome,1707,1067,,,,,0,576,,,,,,,,,,,,,,,,,Y,160,star,1,0,,,,,,,,,,,,,,,,switch,letter,lettSwt,f,noRew,,,,,,0.887,0,15,0,15,0,1,,,,,,,,,,,,,,,,,
297280,2022-11-15_14h01.16.078,vts_reward_expectancy_bt,2022.2.4,Win32,59.95922773,Chrome,1707,1067,,,,,0,576,,,,,,,,,,,,,,,,,Y,125,hexagon,1,0,,,,,,,,,,,,,,,,repeat,letter,lettRpt,f,noRew,,,,,,0.5734,0,16,0,16,0,1,,,,,,,,,,,,,,,,,
297280,2022-11-15_14h01.16.078,vts_reward_expectancy_bt,2022.2.4,Win32,59.95922773,Chrome,1707,1067,,,,,0,576,,,,,,,,,,,,,,,,,W,146,star,1,0,,,,,,,,,,,,,,,,repeat,letter,lettRpt,f,noRew,,,,,,0.7473,0,17,0,17,0,1,,,,,,,,,,,,,,,,,
297280,2022-11-15_14h01.16.078,vts_reward_expectancy_bt,2022.2.4,Win32,59.95922773,Chrome,1707,1067,,,,,0,576,,,,,,,,,,,,,,,,,U,174,circle,1,0,,,,,,,,,,,,,,,,switch,number,numSwt,k,noRew,,,,,,0.9145,0,18,0,18,0,1,,,,,,,,,,,,,,,,,
297280,2022-11-15_14h01.16.078,vts_reward_expectancy_bt,2022.2.4,Win32,59.95922773,Chrome,1707,1067,,,,,0,576,,,,,,,,,,,,,,,,,H,181,triangle,1,0,,,,,,,,,,,,,,,,repeat,number,numRpt,k,noRew,,,,,,0.6171,0,19,0,19,0,1,,,,,,,,,,,,,,,,,
297280,2022-11-15_14h01.16.078,vts_reward_expectancy_bt,2022.2.4,Win32,59.95922773,Chrome,1707,1067,,,,,0,576,,,,,,,,,,,,,,,,,F,174,triangle,1,0,,,,,,,,,,,,,,,,repeat,number,numRpt,k,noRew,,,,,,0.7485,0,20,0,20,0,1,,,,,,,,,,,,,,,,,
297280,2022-11-15_14h01.16.078,vts_reward_expectancy_bt,2022.2.4,Win32,59.95922773,Chrome,1707,1067,,,,,0,576,,,,,,,,,,,,,,,,,S,125,star,1,0,,,,,,,,,,,,,,,,repeat,number,numRpt,j,noRew,,,,,,1.1723,0,21,0,21,0,1,,,,,,,,,,,,,,,,,
297280,2022-11-15_14h01.16.078,vts_reward_expectancy_bt,2022.2.4,Win32,59.95922773,Chrome,1707,1067,,,,,0,576,,,,,,,,,,,,,,,,,U,181,circle,1,0,,,,,,,,,,,,,,,,switch,letter,lettSwt,f,noRew,,,,,,0.6123,0,22,0,22,0,1,,,,,,,,,,,,,,,,,
297280,2022-11-15_14h01.16.078,vts_reward_expectancy_bt,2022.2.4,Win32,59.95922773,Chrome,1707,1067,,,,,0,576,,,,,,,,,,,,,,,,,D,146,triangle,1,0,,,,,,,,,,,,,,,,repeat,letter,lettRpt,d,noRew,,,,,,0.7184,0,23,0,23,0,1,,,,,,,,,,,,,,,,,
297280,2022-11-15_14h01.16.078,vts_reward_expectancy_bt,2022.2.4,Win32,59.95922773,Chrome,1707,1067,,,,,0,576,,,,,,,,,,,,,,,,,B,160,circle,1,0,,,,,,,,,,,,,,,,switch,number,numSwt,k,noRew,,,,,,1.1859,0,24,0,24,0,1,,,,,,,,,,,,,,,,,
297280,2022-11-15_14h01.16.078,vts_reward_expectancy_bt,2022.2.4,Win32,59.95922773,Chrome,1707,1067,,,,,0,576,,,,,,,,,,,,,,,,,Y,146,triangle,1,0,,,,,,,,,,,,,,,,switch,letter,lettSwt,f,noRew,,,,,,0.7553,0,25,0,25,0,1,,,,,,,,,,,,,,,,,
297280,2022-11-15_14h01.16.078,vts_reward_expectancy_bt,2022.2.4,Win32,59.95922773,Chrome,1707,1067,,,,,0,576,,,,,,,,,,,,,,,,,D,181,star,1,0,,,,,,,,,,,,,,,,switch,number,numSwt,k,noRew,,,,,,1.2481,0,26,0,26,0,1,,,,,,,,,,,,,,,,,
297280,2022-11-15_14h01.16.078,vts_reward_expectancy_bt,2022.2.4,Win32,59.95922773,Chrome,1707,1067,,,,,0,576,,,,,,,,,,,,,,,,,S,174,circle,1,0,,,,,,,,,,,,,,,,switch,letter,lettSwt,f,noRew,,,,,,1.3778,0,27,0,27,0,1,,,,,,,,,,,,,,,,,
297280,2022-11-15_14h01.16.078,vts_reward_expectancy_bt,2022.2.4,Win32,59.95922773,Chrome,1707,1067,,,,,0,576,,,,,,,,,,,,,,,,,H,160,triangle,0,0,,,,,,,,,,,,,,,,repeat,letter,NA,f,noRew,,,,,,0.7008,0,28,0,28,0,1,,,,,,,,,,,,,,,,,
297280,2022-11-15_14h01.16.078,vts_reward_expectancy_bt,2022.2.4,Win32,59.95922773,Chrome,1707,1067,,,,,0,576,,,,,,,,,,,,,,,,,S,146,star,1,1,,,,,,,,,,,,,,,,repeat,letter,lettRpt,f,noRew,,,,,,0.7966,0,29,0,29,0,1,,,,,,,,,,,,,,,,,
297280,2022-11-15_14h01.16.078,vts_reward_expectancy_bt,2022.2.4,Win32,59.95922773,Chrome,1707,1067,,,,,0,576,,,,,,,,,,,,,,,,,B,125,star,1,0,,,,,,,,,,,,,,,,switch,number,numSwt,j,noRew,,,,,,1.4118,0,30,0,30,0,1,,,,,,,,,,,,,,,,,
297280,2022-11-15_14h01.16.078,vts_reward_expectancy_bt,2022.2.4,Win32,59.95922773,Chrome,1707,1067,,,,,0,576,,,,,,,,,,,,,,,,,Y,167,hexagon,1,0,,,,,,,,,,,,,,,,repeat,number,numRpt,k,noRew,,,,,,1.2433,0,31,0,31,0,1,,,,,,,,,,,,,,,,,
297280,2022-11-15_14h01.16.078,vts_reward_expectancy_bt,2022.2.4,Win32,59.95922773,Chrome,1707,1067,,,,,0,576,,,,,,,,,,,,,,,,,Y,181,star,1,0,,,,,,,,,,,,,,,,switch,letter,lettSwt,f,noRew,,,,,,0.6394,0,32,0,32,0,1,,,,,,,,,,,,,,,,,
297280,2022-11-15_14h01.16.078,vts_reward_expectancy_bt,2022.2.4,Win32,59.95922773,Chrome,1707,1067,,,,,0,576,,,,,,,,,,,,,,,,,F,139,triangle,1,0,,,,,,,,,,,,,,,,switch,number,numSwt,j,noRew,,,,,,1.1773,0,33,0,33,0,1,,,,,,,,,,,,,,,,,
297280,2022-11-15_14h01.16.078,vts_reward_expectancy_bt,2022.2.4,Win32,59.95922773,Chrome,1707,1067,,,,,0,576,,,,,,,,,,,,,,,,,D,146,circle,1,0,,,,,,,,,,,,,,,,repeat,number,numRpt,j,noRew,,,,,,1.5717,0,34,0,34,0,1,,,,,,,,,,,,,,,,,
297280,2022-11-15_14h01.16.078,vts_reward_expectancy_bt,2022.2.4,Win32,59.95922773,Chrome,1707,1067,,,,,0,576,,,,,,,,,,,,,,,,,S,174,triangle,1,0,,,,,,,,,,,,,,,,switch,letter,lettSwt,f,noRew,,,,,,1.1455,0,35,0,35,0,1,,,,,,,,,,,,,,,,,
297280,2022-11-15_14h01.16.078,vts_reward_expectancy_bt,2022.2.4,Win32,59.95922773,Chrome,1707,1067,,,,,0,576,,,,,,,,,,,,,,,,,D,174,triangle,1,0,,,,,,,,,,,,,,,,repeat,letter,lettRpt,d,noRew,,,,,,1.4151,0,36,0,36,0,1,,,,,,,,,,,,,,,,,
297280,2022-11-15_14h01.16.078,vts_reward_expectancy_bt,2022.2.4,Win32,59.95922773,Chrome,1707,1067,,,,,0,576,,,,,,,,,,,,,,,,,F,181,circle,1,0,,,,,,,,,,,,,,,,switch,number,numSwt,k,noRew,,,,,,0.7853,0,37,0,37,0,1,,,,,,,,,,,,,,,,,
297280,2022-11-15_14h01.16.078,vts_reward_expectancy_bt,2022.2.4,Win32,59.95922773,Chrome,1707,1067,,,,,0,576,,,,,,,,,,,,,,,,,B,160,circle,1,0,,,,,,,,,,,,,,,,repeat,number,numRpt,k,noRew,,,,,,1.4581,0,38,0,38,0,1,,,,,,,,,,,,,,,,,
297280,2022-11-15_14h01.16.078,vts_reward_expectancy_bt,2022.2.4,Win32,59.95922773,Chrome,1707,1067,,,,,0,576,,,,,,,,,,,,,,,,,Y,125,star,1,0,,,,,,,,,,,,,,,,switch,letter,lettSwt,f,noRew,,,,,,0.7622,0,39,0,39,0,1,,,,,,,,,,,,,,,,,
297280,2022-11-15_14h01.16.078,vts_reward_expectancy_bt,2022.2.4,Win32,59.95922773,Chrome,1707,1067,,,,,0,576,,,,,,,,,,,,,,,,,W,174,hexagon,1,0,,,,,,,,,,,,,,,,repeat,letter,lettRpt,f,noRew,,,,,,0.6965,0,40,0,40,0,1,,,,,,,,,,,,,,,,,
297280,2022-11-15_14h01.16.078,vts_reward_expectancy_bt,2022.2.4,Win32,59.95922773,Chrome,1707,1067,,,,,0,576,,,,,,,,,,,,,,,,,B,181,circle,1,0,,,,,,,,,,,,,,,,repeat,letter,lettRpt,d,noRew,,,,,,1,0,41,0,41,0,1,,,,,,,,,,,,,,,,,
297280,2022-11-15_14h01.16.078,vts_reward_expectancy_bt,2022.2.4,Win32,59.95922773,Chrome,1707,1067,,,,,0,576,,,,,,,,,,,,,,,,,Y,167,triangle,1,0,,,,,,,,,,,,,,,,switch,number,numSwt,k,noRew,,,,,,0.9495,0,42,0,42,0,1,,,,,,,,,,,,,,,,,
297280,2022-11-15_14h01.16.078,vts_reward_expectancy_bt,2022.2.4,Win32,59.95922773,Chrome,1707,1067,,,,,0,576,,,,,,,,,,,,,,,,,U,160,hexagon,1,0,,,,,,,,,,,,,,,,repeat,number,numRpt,k,noRew,,,,,,1.164,0,43,0,43,0,1,,,,,,,,,,,,,,,,,
297280,2022-11-15_14h01.16.078,vts_reward_expectancy_bt,2022.2.4,Win32,59.95922773,Chrome,1707,1067,,,,,0,576,,,,,,,,,,,,,,,,,Y,167,circle,1,0,,,,,,,,,,,,,,,,switch,letter,lettSwt,f,noRew,,,,,,0.8027,0,44,0,44,0,1,,,,,,,,,,,,,,,,,
297280,2022-11-15_14h01.16.078,vts_reward_expectancy_bt,2022.2.4,Win32,59.95922773,Chrome,1707,1067,,,,,0,576,,,,,,,,,,,,,,,,,S,125,hexagon,1,0,,,,,,,,,,,,,,,,switch,number,numSwt,j,noRew,,,,,,2.2148,0,45,0,45,0,1,,,,,,,,,,,,,,,,,
297280,2022-11-15_14h01.16.078,vts_reward_expectancy_bt,2022.2.4,Win32,59.95922773,Chrome,1707,1067,,,,,0,576,,,,,,,,,,,,,,,,,B,132,triangle,1,0,,,,,,,,,,,,,,,,switch,letter,lettSwt,d,noRew,,,,,,1.5306,0,46,0,46,0,1,,,,,,,,,,,,,,,,,
297280,2022-11-15_14h01.16.078,vts_reward_expectancy_bt,2022.2.4,Win32,59.95922773,Chrome,1707,1067,,,,,0,576,,,,,,,,,,,,,,,,,F,160,circle,1,0,,,,,,,,,,,,,,,,repeat,letter,lettRpt,d,noRew,,,,,,1.1847,0,47,0,47,0,1,,,,,,,,,,,,,,,,,
297280,2022-11-15_14h01.16.078,vts_reward_expectancy_bt,2022.2.4,Win32,59.95922773,Chrome,1707,1067,,,,,0,576,,,,,,,,,,,,,,,,,Y,125,circle,1,0,,,,,,,,,,,,,,,,switch,number,numSwt,j,noRew,,,,,,0.871,0,48,0,48,0,1,,,,,,,,,,,,,,,,,
297280,2022-11-15_14h01.16.078,vts_reward_expectancy_bt,2022.2.4,Win32,59.95922773,Chrome,1707,1067,,,,,0,576,,,,,,,,,,,,,,,,,F,146,star,1,0,,,,,,,,,,,,,,,,repeat,number,numRpt,j,noRew,,,,,,1.3284,0,49,0,49,0,1,,,,,,,,,,,,,,,,,
297280,2022-11-15_14h01.16.078,vts_reward_expectancy_bt,2022.2.4,Win32,59.95922773,Chrome,1707,1067,,,,,0,576,,,,,,,,,,,,,,,,,B,160,hexagon,1,0,,,,,,,,,,,,,,,,repeat,number,numRpt,k,noRew,,,,,,1.6264,0,50,0,50,0,1,,,,,,,,,,,,,,,,,
297280,2022-11-15_14h01.16.078,vts_reward_expectancy_bt,2022.2.4,Win32,59.95922773,Chrome,1707,1067,,,,,0,576,,,,,,,,,,,,,,,,,U,167,circle,1,0,,,,,,,,,,,,,,,,switch,letter,lettSwt,f,noRew,,,,,,0.8626,0,51,0,51,0,1,,,,,,,,,,,,,,,,,
297280,2022-11-15_14h01.16.078,vts_reward_expectancy_bt,2022.2.4,Win32,59.95922773,Chrome,1707,1067,,,,,0,576,,,,,,,,,,,,,,,,,B,125,star,1,0,,,,,,,,,,,,,,,,switch,number,numSwt,j,noRew,,,,,,0.6796,0,52,0,52,0,1,,,,,,,,,,,,,,,,,
297280,2022-11-15_14h01.16.078,vts_reward_expectancy_bt,2022.2.4,Win32,59.95922773,Chrome,1707,1067,,,,,0,576,,,,,,,,,,,,,,,,,D,146,triangle,1,0,,,,,,,,,,,,,,,,switch,letter,lettSwt,d,noRew,,,,,,0.9709,0,53,0,53,0,1,,,,,,,,,,,,,,,,,
297280,2022-11-15_14h01.16.078,vts_reward_expectancy_bt,2022.2.4,Win32,59.95922773,Chrome,1707,1067,,,,,0,576,,,,,,,,,,,,,,,,,S,132,triangle,1,0,,,,,,,,,,,,,,,,repeat,letter,lettRpt,f,noRew,,,,,,0.9655,0,54,0,54,0,1,,,,,,,,,,,,,,,,,
297280,2022-11-15_14h01.16.078,vts_reward_expectancy_bt,2022.2.4,Win32,59.95922773,Chrome,1707,1067,,,,,0,576,,,,,,,,,,,,,,,,,Y,167,circle,1,0,,,,,,,,,,,,,,,,repeat,letter,lettRpt,f,noRew,,,,,,0.7495,0,55,0,55,0,1,,,,,,,,,,,,,,,,,
297280,2022-11-15_14h01.16.078,vts_reward_expectancy_bt,2022.2.4,Win32,59.95922773,Chrome,1707,1067,,,,,0,576,,,,,,,,,,,,,,,,,B,167,star,1,0,,,,,,,,,,,,,,,,switch,number,numSwt,k,noRew,,,,,,1.0705,0,56,0,56,0,1,,,,,,,,,,,,,,,,,
297280,2022-11-15_14h01.16.078,vts_reward_expectancy_bt,2022.2.4,Win32,59.95922773,Chrome,1707,1067,,,,,0,576,,,,,,,,,,,,,,,,,U,132,circle,1,0,,,,,,,,,,,,,,,,repeat,number,numRpt,j,noRew,,,,,,1.1778,0,57,0,57,0,1,,,,,,,,,,,,,,,,,
297280,2022-11-15_14h01.16.078,vts_reward_expectancy_bt,2022.2.4,Win32,59.95922773,Chrome,1707,1067,,,,,0,576,,,,,,,,,,,,,,,,,H,160,star,1,0,,,,,,,,,,,,,,,,repeat,number,numRpt,k,noRew,,,,,,0.8963,0,58,0,58,0,1,,,,,,,,,,,,,,,,,
297280,2022-11-15_14h01.16.078,vts_reward_expectancy_bt,2022.2.4,Win32,59.95922773,Chrome,1707,1067,,,,,0,576,,,,,,,,,,,,,,,,,Y,146,circle,1,0,,,,,,,,,,,,,,,,switch,letter,lettSwt,f,noRew,,,,,,1.2978,0,59,0,59,0,1,,,,,,,,,,,,,,,,,
297280,2022-11-15_14h01.16.078,vts_reward_expectancy_bt,2022.2.4,Win32,59.95922773,Chrome,1707,1067,,,,,0,576,,,,,,,,,,,,,,,,,B,160,hexagon,1,0,,,,,,,,,,,,,,,,switch,number,numSwt,k,noRew,,,,,,0.7198,0,60,0,60,0,1,,,,,,,,,,,,,,,,,
297280,2022-11-15_14h01.16.078,vts_reward_expectancy_bt,2022.2.4,Win32,59.95922773,Chrome,1707,1067,,,,,0,576,,,,,,,,,,,,,,,,,U,181,star,1,0,,,,,,,,,,,,,,,,repeat,number,numRpt,k,noRew,,,,,,1.412,0,61,0,61,0,1,,,,,,,,,,,,,,,,,
297280,2022-11-15_14h01.16.078,vts_reward_expectancy_bt,2022.2.4,Win32,59.95922773,Chrome,1707,1067,,,,,0,576,,,,,,,,,,,,,,,,,F,146,hexagon,1,0,,,,,,,,,,,,,,,,repeat,number,numRpt,j,noRew,,,,,,1.1808,0,62,0,62,0,1,,,,,,,,,,,,,,,,,
297280,2022-11-15_14h01.16.078,vts_reward_expectancy_bt,2022.2.4,Win32,59.95922773,Chrome,1707,1067,,,,,0,576,,,,,,,,,,,,,,,,,D,174,triangle,1,0,,,,,,,,,,,,,,,,switch,letter,lettSwt,d,noRew,,,,,,0.9403,0,63,0,63,0,1,,,,,,,,,,,,,,,,,
297280,2022-11-15_14h01.16.078,vts_reward_expectancy_bt,2022.2.4,Win32,59.95922773,Chrome,1707,1067,,,,,,,,,,,,,,,,,,,,,,,,,,,,,,,,,,,,,,,,,,,,,,,,,,,,,,,,,,,,,,,,,,,,,,,,,,,,
297280,2022-11-15_14h01.16.078,vts_reward_expectancy_bt,2022.2.4,Win32,59.95922773,Chrome,1707,1067,,,,,1,577,,,,,,,,,,,,,,,,,S,160,triangle,1,0,,,,,,,,,,,,,,,,switch,number,numSwt,k,Lo,,,,,,1.5814,0,,,,,,space,8.2089,low,0,0,0,0,1,,,,,,,,,
297280,2022-11-15_14h01.16.078,vts_reward_expectancy_bt,2022.2.4,Win32,59.95922773,Chrome,1707,1067,,,,,10,587,,,,,,,,,,,,,,,,,D,125,circle,1,0,,,,,,,,,,,,,,,,switch,letter,lettSwt,d,Hi,,,,,,0.7692,0,,,,,,,,low,1,0,1,0,1,,,,,,,,,
297280,2022-11-15_14h01.16.078,vts_reward_expectancy_bt,2022.2.4,Win32,59.95922773,Chrome,1707,1067,,,,,1,588,,,,,,,,,,,,,,,,,Y,146,star,1,0,,,,,,,,,,,,,,,,repeat,letter,lettRpt,f,Lo,,,,,,0.9029,0,,,,,,,,low,2,0,2,0,1,,,,,,,,,
297280,2022-11-15_14h01.16.078,vts_reward_expectancy_bt,2022.2.4,Win32,59.95922773,Chrome,1707,1067,,,,,0,588,,,,,,,,,,,,,,,,,B,181,hexagon,1,0,,,,,,,,,,,,,,,,repeat,letter,lettRpt,d,Hi,,,,,,1.5095,0,,,,,,,,low,3,0,3,0,1,,,,,,,,,
297280,2022-11-15_14h01.16.078,vts_reward_expectancy_bt,2022.2.4,Win32,59.95922773,Chrome,1707,1067,,,,,1,589,,,,,,,,,,,,,,,,,F,167,triangle,1,0,,,,,,,,,,,,,,,,repeat,letter,lettRpt,d,Lo,,,,,,1.237,0,,,,,,,,low,4,0,4,0,1,,,,,,,,,
297280,2022-11-15_14h01.16.078,vts_reward_expectancy_bt,2022.2.4,Win32,59.95922773,Chrome,1707,1067,,,,,0,589,,,,,,,,,,,,,,,,,H,139,circle,1,0,,,,,,,,,,,,,,,,switch,number,numSwt,j,Hi,,,,,,0.9349,0,,,,,,,,low,5,0,5,0,1,,,,,,,,,
297280,2022-11-15_14h01.16.078,vts_reward_expectancy_bt,2022.2.4,Win32,59.95922773,Chrome,1707,1067,,,,,1,590,,,,,,,,,,,,,,,,,W,132,star,1,0,,,,,,,,,,,,,,,,repeat,number,numRpt,j,Lo,,,,,,0.6467,0,,,,,,,,low,6,0,6,0,1,,,,,,,,,
297280,2022-11-15_14h01.16.078,vts_reward_expectancy_bt,2022.2.4,Win32,59.95922773,Chrome,1707,1067,,,,,10,600,,,,,,,,,,,,,,,,,U,174,hexagon,1,0,,,,,,,,,,,,,,,,repeat,number,numRpt,k,Hi,,,,,,0.7482,0,,,,,,,,low,7,0,7,0,1,,,,,,,,,
297280,2022-11-15_14h01.16.078,vts_reward_expectancy_bt,2022.2.4,Win32,59.95922773,Chrome,1707,1067,,,,,1,601,,,,,,,,,,,,,,,,,S,160,triangle,1,0,,,,,,,,,,,,,,,,repeat,number,numRpt,k,Lo,,,,,,0.8888,0,,,,,,,,low,8,0,8,0,1,,,,,,,,,
297280,2022-11-15_14h01.16.078,vts_reward_expectancy_bt,2022.2.4,Win32,59.95922773,Chrome,1707,1067,,,,,10,611,,,,,,,,,,,,,,,,,D,125,circle,1,0,,,,,,,,,,,,,,,,repeat,number,numRpt,j,Hi,,,,,,0.5445,0,,,,,,,,low,9,0,9,0,1,,,,,,,,,
297280,2022-11-15_14h01.16.078,vts_reward_expectancy_bt,2022.2.4,Win32,59.95922773,Chrome,1707,1067,,,,,0,611,,,,,,,,,,,,,,,,,Y,146,hexagon,1,0,,,,,,,,,,,,,,,,repeat,number,numRpt,j,Hi,,,,,,1.2139,0,,,,,,,,low,10,0,10,0,1,,,,,,,,,
297280,2022-11-15_14h01.16.078,vts_reward_expectancy_bt,2022.2.4,Win32,59.95922773,Chrome,1707,1067,,,,,1,612,,,,,,,,,,,,,,,,,B,181,star,1,0,,,,,,,,,,,,,,,,repeat,number,numRpt,k,Lo,,,,,,0.8934,0,,,,,,,,low,11,0,11,0,1,,,,,,,,,
297280,2022-11-15_14h01.16.078,vts_reward_expectancy_bt,2022.2.4,Win32,59.95922773,Chrome,1707,1067,,,,,1,613,,,,,,,,,,,,,,,,,F,167,triangle,1,0,,,,,,,,,,,,,,,,repeat,number,numRpt,k,Lo,,,,,,1.053,0,,,,,,,,low,12,0,12,0,1,,,,,,,,,
297280,2022-11-15_14h01.16.078,vts_reward_expectancy_bt,2022.2.4,Win32,59.95922773,Chrome,1707,1067,,,,,10,623,,,,,,,,,,,,,,,,,H,139,circle,1,0,,,,,,,,,,,,,,,,repeat,number,numRpt,j,Hi,,,,,,0.6465,0,,,,,,,,low,13,0,13,0,1,,,,,,,,,
297280,2022-11-15_14h01.16.078,vts_reward_expectancy_bt,2022.2.4,Win32,59.95922773,Chrome,1707,1067,,,,,1,624,,,,,,,,,,,,,,,,,W,132,star,1,0,,,,,,,,,,,,,,,,repeat,number,numRpt,j,Lo,,,,,,0.763,0,,,,,,,,low,14,0,14,0,1,,,,,,,,,
297280,2022-11-15_14h01.16.078,vts_reward_expectancy_bt,2022.2.4,Win32,59.95922773,Chrome,1707,1067,,,,,10,634,,,,,,,,,,,,,,,,,U,174,hexagon,1,0,,,,,,,,,,,,,,,,repeat,number,numRpt,k,Hi,,,,,,0.5622,0,,,,,,,,low,15,0,15,0,1,,,,,,,,,
297280,2022-11-15_14h01.16.078,vts_reward_expectancy_bt,2022.2.4,Win32,59.95922773,Chrome,1707,1067,,,,,10,644,,,,,,,,,,,,,,,,,U,139,star,1,0,,,,,,,,,,,,,,,,repeat,number,numRpt,j,Lo,,,,,,1.0005,0,,,,,,,,low,16,0,16,0,1,,,,,,,,,
297280,2022-11-15_14h01.16.078,vts_reward_expectancy_bt,2022.2.4,Win32,59.95922773,Chrome,1707,1067,,,,,10,654,,,,,,,,,,,,,,,,,Y,174,hexagon,1,0,,,,,,,,,,,,,,,,repeat,number,numRpt,k,Hi,,,,,,1.0327,0,,,,,,,,low,17,0,17,0,1,,,,,,,,,
297280,2022-11-15_14h01.16.078,vts_reward_expectancy_bt,2022.2.4,Win32,59.95922773,Chrome,1707,1067,,,,,1,655,,,,,,,,,,,,,,,,,F,181,triangle,1,0,,,,,,,,,,,,,,,,repeat,number,numRpt,k,Lo,,,,,,0.6662,0,,,,,,,,low,18,0,18,0,1,,,,,,,,,
297280,2022-11-15_14h01.16.078,vts_reward_expectancy_bt,2022.2.4,Win32,59.95922773,Chrome,1707,1067,,,,,10,665,,,,,,,,,,,,,,,,,W,125,circle,1,0,,,,,,,,,,,,,,,,repeat,number,numRpt,j,Hi,,,,,,0.7283,0,,,,,,,,low,19,0,19,0,1,,,,,,,,,
297280,2022-11-15_14h01.16.078,vts_reward_expectancy_bt,2022.2.4,Win32,59.95922773,Chrome,1707,1067,,,,,10,675,,,,,,,,,,,,,,,,,D,146,circle,1,0,,,,,,,,,,,,,,,,repeat,number,numRpt,j,Hi,,,,,,1.1466,0,,,,,,,,low,20,0,20,0,1,,,,,,,,,
297280,2022-11-15_14h01.16.078,vts_reward_expectancy_bt,2022.2.4,Win32,59.95922773,Chrome,1707,1067,,,,,10,685,,,,,,,,,,,,,,,,,B,167,triangle,1,0,,,,,,,,,,,,,,,,repeat,number,numRpt,k,Lo,,,,,,1.1894,0,,,,,,,,low,21,0,21,0,1,,,,,,,,,
297280,2022-11-15_14h01.16.078,vts_reward_expectancy_bt,2022.2.4,Win32,59.95922773,Chrome,1707,1067,,,,,1,686,,,,,,,,,,,,,,,,,S,132,star,1,0,,,,,,,,,,,,,,,,repeat,number,numRpt,j,Lo,,,,,,1.1626,0,,,,,,,,low,22,0,22,0,1,,,,,,,,,
297280,2022-11-15_14h01.16.078,vts_reward_expectancy_bt,2022.2.4,Win32,59.95922773,Chrome,1707,1067,,,,,10,696,,,,,,,,,,,,,,,,,H,160,hexagon,1,0,,,,,,,,,,,,,,,,repeat,number,numRpt,k,Hi,,,,,,0.7651,0,,,,,,,,low,23,0,23,0,1,,,,,,,,,
297280,2022-11-15_14h01.16.078,vts_reward_expectancy_bt,2022.2.4,Win32,59.95922773,Chrome,1707,1067,,,,,10,706,,,,,,,,,,,,,,,,,U,174,triangle,1,0,,,,,,,,,,,,,,,,repeat,number,numRpt,k,Lo,,,,,,1.3566,0,,,,,,,,low,24,0,24,0,1,,,,,,,,,
297280,2022-11-15_14h01.16.078,vts_reward_expectancy_bt,2022.2.4,Win32,59.95922773,Chrome,1707,1067,,,,,1,707,,,,,,,,,,,,,,,,,D,160,hexagon,1,0,,,,,,,,,,,,,,,,repeat,number,numRpt,k,Hi,,,,,,0.589,0,,,,,,,,low,25,0,25,0,1,,,,,,,,,
297280,2022-11-15_14h01.16.078,vts_reward_expectancy_bt,2022.2.4,Win32,59.95922773,Chrome,1707,1067,,,,,10,717,,,,,,,,,,,,,,,,,B,167,star,1,0,,,,,,,,,,,,,,,,repeat,number,numRpt,k,Lo,,,,,,0.8497,0,,,,,,,,low,26,0,26,0,1,,,,,,,,,
297280,2022-11-15_14h01.16.078,vts_reward_expectancy_bt,2022.2.4,Win32,59.95922773,Chrome,1707,1067,,,,,10,727,,,,,,,,,,,,,,,,,W,139,circle,1,0,,,,,,,,,,,,,,,,repeat,number,numRpt,j,Hi,,,,,,0.796,0,,,,,,,,low,27,0,27,0,1,,,,,,,,,
297280,2022-11-15_14h01.16.078,vts_reward_expectancy_bt,2022.2.4,Win32,59.95922773,Chrome,1707,1067,,,,,1,728,,,,,,,,,,,,,,,,,F,146,circle,1,0,,,,,,,,,,,,,,,,repeat,number,numRpt,j,Hi,,,,,,1.1624,0,,,,,,,,low,28,0,28,0,1,,,,,,,,,
297280,2022-11-15_14h01.16.078,vts_reward_expectancy_bt,2022.2.4,Win32,59.95922773,Chrome,1707,1067,,,,,1,729,,,,,,,,,,,,,,,,,S,181,star,1,0,,,,,,,,,,,,,,,,repeat,number,numRpt,k,Lo,,,,,,0.6601,0,,,,,,,,low,29,0,29,0,1,,,,,,,,,
297280,2022-11-15_14h01.16.078,vts_reward_expectancy_bt,2022.2.4,Win32,59.95922773,Chrome,1707,1067,,,,,1,730,,,,,,,,,,,,,,,,,H,125,triangle,1,0,,,,,,,,,,,,,,,,repeat,number,numRpt,j,Lo,,,,,,1.4512,0,,,,,,,,low,30,0,30,0,1,,,,,,,,,
297280,2022-11-15_14h01.16.078,vts_reward_expectancy_bt,2022.2.4,Win32,59.95922773,Chrome,1707,1067,,,,,0,730,,,,,,,,,,,,,,,,,Y,132,hexagon,1,0,,,,,,,,,,,,,,,,repeat,number,numRpt,j,Hi,,,,,,1.3472,0,,,,,,,,low,31,0,31,0,1,,,,,,,,,
297280,2022-11-15_14h01.16.078,vts_reward_expectancy_bt,2022.2.4,Win32,59.95922773,Chrome,1707,1067,,,,,0,730,,,,,,,,,,,,,,,,,H,174,hexagon,1,0,,,,,,,,,,,,,,,,repeat,number,numRpt,k,Hi,,,,,,1.0304,1,,,,,,space,4.3303,low,0,0,0,0,1,,,,,,,,,
297280,2022-11-15_14h01.16.078,vts_reward_expectancy_bt,2022.2.4,Win32,59.95922773,Chrome,1707,1067,,,,,10,740,,,,,,,,,,,,,,,,,U,125,triangle,1,0,,,,,,,,,,,,,,,,repeat,number,numRpt,j,Lo,,,,,,0.469,1,,,,,,,,low,1,0,1,0,1,,,,,,,,,
297280,2022-11-15_14h01.16.078,vts_reward_expectancy_bt,2022.2.4,Win32,59.95922773,Chrome,1707,1067,,,,,1,741,,,,,,,,,,,,,,,,,F,181,circle,1,0,,,,,,,,,,,,,,,,repeat,number,numRpt,k,Hi,,,,,,0.5467,1,,,,,,,,low,2,0,2,0,1,,,,,,,,,
297280,2022-11-15_14h01.16.078,vts_reward_expectancy_bt,2022.2.4,Win32,59.95922773,Chrome,1707,1067,,,,,10,751,,,,,,,,,,,,,,,,,W,160,star,1,0,,,,,,,,,,,,,,,,repeat,number,numRpt,k,Lo,,,,,,0.9572,1,,,,,,,,low,3,0,3,0,1,,,,,,,,,
297280,2022-11-15_14h01.16.078,vts_reward_expectancy_bt,2022.2.4,Win32,59.95922773,Chrome,1707,1067,,,,,10,761,,,,,,,,,,,,,,,,,Y,139,hexagon,1,0,,,,,,,,,,,,,,,,repeat,number,numRpt,j,Hi,,,,,,0.7313,1,,,,,,,,low,4,0,4,0,1,,,,,,,,,
297280,2022-11-15_14h01.16.078,vts_reward_expectancy_bt,2022.2.4,Win32,59.95922773,Chrome,1707,1067,,,,,1,762,,,,,,,,,,,,,,,,,B,167,triangle,1,0,,,,,,,,,,,,,,,,repeat,number,numRpt,k,Lo,,,,,,1.2799,1,,,,,,,,low,5,0,5,0,1,,,,,,,,,
297280,2022-11-15_14h01.16.078,vts_reward_expectancy_bt,2022.2.4,Win32,59.95922773,Chrome,1707,1067,,,,,10,772,,,,,,,,,,,,,,,,,D,132,circle,1,0,,,,,,,,,,,,,,,,repeat,number,numRpt,j,Hi,,,,,,0.6131,1,,,,,,,,low,6,0,6,0,1,,,,,,,,,
297280,2022-11-15_14h01.16.078,vts_reward_expectancy_bt,2022.2.4,Win32,59.95922773,Chrome,1707,1067,,,,,1,773,,,,,,,,,,,,,,,,,S,146,star,1,0,,,,,,,,,,,,,,,,repeat,number,numRpt,j,Lo,,,,,,1.1459,1,,,,,,,,low,7,0,7,0,1,,,,,,,,,
297280,2022-11-15_14h01.16.078,vts_reward_expectancy_bt,2022.2.4,Win32,59.95922773,Chrome,1707,1067,,,,,10,783,,,,,,,,,,,,,,,,,H,174,hexagon,1,0,,,,,,,,,,,,,,,,repeat,number,numRpt,k,Hi,,,,,,0.7232,1,,,,,,,,low,8,0,8,0,1,,,,,,,,,
297280,2022-11-15_14h01.16.078,vts_reward_expectancy_bt,2022.2.4,Win32,59.95922773,Chrome,1707,1067,,,,,10,793,,,,,,,,,,,,,,,,,U,125,triangle,1,0,,,,,,,,,,,,,,,,repeat,number,numRpt,j,Lo,,,,,,0.9312,1,,,,,,,,low,9,0,9,0,1,,,,,,,,,
297280,2022-11-15_14h01.16.078,vts_reward_expectancy_bt,2022.2.4,Win32,59.95922773,Chrome,1707,1067,,,,,10,803,,,,,,,,,,,,,,,,,F,181,star,1,0,,,,,,,,,,,,,,,,repeat,number,numRpt,k,Lo,,,,,,0.7799,1,,,,,,,,low,10,0,10,0,1,,,,,,,,,
297280,2022-11-15_14h01.16.078,vts_reward_expectancy_bt,2022.2.4,Win32,59.95922773,Chrome,1707,1067,,,,,0,803,,,,,,,,,,,,,,,,,W,160,circle,0,0,,,,,,,,,,,,,,,,repeat,number,NA,j,Lo,,,,,,0.7938,1,,,,,,,,low,11,0,11,0,1,,,,,,,,,
297280,2022-11-15_14h01.16.078,vts_reward_expectancy_bt,2022.2.4,Win32,59.95922773,Chrome,1707,1067,,,,,1,804,,,,,,,,,,,,,,,,,Y,139,circle,1,1,,,,,,,,,,,,,,,,repeat,number,numRpt,j,Hi,,,,,,0.6473,1,,,,,,,,low,12,0,12,0,1,,,,,,,,,
297280,2022-11-15_14h01.16.078,vts_reward_expectancy_bt,2022.2.4,Win32,59.95922773,Chrome,1707,1067,,,,,0,804,,,,,,,,,,,,,,,,,B,167,hexagon,1,0,,,,,,,,,,,,,,,,repeat,number,numRpt,k,Hi,,,,,,1.0632,1,,,,,,,,low,13,0,13,0,1,,,,,,,,,
297280,2022-11-15_14h01.16.078,vts_reward_expectancy_bt,2022.2.4,Win32,59.95922773,Chrome,1707,1067,,,,,10,814,,,,,,,,,,,,,,,,,D,132,star,1,0,,,,,,,,,,,,,,,,repeat,number,numRpt,j,Lo,,,,,,0.6029,1,,,,,,,,low,14,0,14,0,1,,,,,,,,,
297280,2022-11-15_14h01.16.078,vts_reward_expectancy_bt,2022.2.4,Win32,59.95922773,Chrome,1707,1067,,,,,1,815,,,,,,,,,,,,,,,,,S,146,triangle,1,0,,,,,,,,,,,,,,,,repeat,number,numRpt,j,Lo,,,,,,0.7386,1,,,,,,,,low,15,0,15,0,1,,,,,,,,,
297280,2022-11-15_14h01.16.078,vts_reward_expectancy_bt,2022.2.4,Win32,59.95922773,Chrome,1707,1067,,,,,1,816,,,,,,,,,,,,,,,,,H,139,hexagon,1,0,,,,,,,,,,,,,,,,repeat,number,numRpt,j,Hi,,,,,,0.5816,1,,,,,,,,low,16,0,16,0,1,,,,,,,,,
297280,2022-11-15_14h01.16.078,vts_reward_expectancy_bt,2022.2.4,Win32,59.95922773,Chrome,1707,1067,,,,,1,817,,,,,,,,,,,,,,,,,F,167,circle,1,0,,,,,,,,,,,,,,,,repeat,number,numRpt,k,Hi,,,,,,0.6245,1,,,,,,,,low,17,0,17,0,1,,,,,,,,,
297280,2022-11-15_14h01.16.078,vts_reward_expectancy_bt,2022.2.4,Win32,59.95922773,Chrome,1707,1067,,,,,10,827,,,,,,,,,,,,,,,,,S,146,star,1,0,,,,,,,,,,,,,,,,repeat,number,numRpt,j,Lo,,,,,,0.7173,1,,,,,,,,low,18,0,18,0,1,,,,,,,,,
297280,2022-11-15_14h01.16.078,vts_reward_expectancy_bt,2022.2.4,Win32,59.95922773,Chrome,1707,1067,,,,,1,828,,,,,,,,,,,,,,,,,U,125,triangle,1,0,,,,,,,,,,,,,,,,repeat,number,numRpt,j,Lo,,,,,,1.1634,1,,,,,,,,low,19,0,19,0,1,,,,,,,,,
297280,2022-11-15_14h01.16.078,vts_reward_expectancy_bt,2022.2.4,Win32,59.95922773,Chrome,1707,1067,,,,,1,829,,,,,,,,,,,,,,,,,W,132,star,1,0,,,,,,,,,,,,,,,,repeat,number,numRpt,j,Lo,,,,,,0.7639,1,,,,,,,,low,20,0,20,0,1,,,,,,,,,
297280,2022-11-15_14h01.16.078,vts_reward_expectancy_bt,2022.2.4,Win32,59.95922773,Chrome,1707,1067,,,,,1,830,,,,,,,,,,,,,,,,,D,174,circle,1,0,,,,,,,,,,,,,,,,repeat,number,numRpt,k,Hi,,,,,,0.5301,1,,,,,,,,low,21,0,21,0,1,,,,,,,,,
297280,2022-11-15_14h01.16.078,vts_reward_expectancy_bt,2022.2.4,Win32,59.95922773,Chrome,1707,1067,,,,,1,831,,,,,,,,,,,,,,,,,Y,181,triangle,1,0,,,,,,,,,,,,,,,,repeat,number,numRpt,k,Lo,,,,,,0.8116,1,,,,,,,,low,22,0,22,0,1,,,,,,,,,
297280,2022-11-15_14h01.16.078,vts_reward_expectancy_bt,2022.2.4,Win32,59.95922773,Chrome,1707,1067,,,,,0,831,,,,,,,,,,,,,,,,,B,160,hexagon,0,0,,,,,,,,,,,,,,,,repeat,number,NA,j,Lo,,,,,,0.9973,1,,,,,,,,low,23,0,23,0,1,,,,,,,,,
297280,2022-11-15_14h01.16.078,vts_reward_expectancy_bt,2022.2.4,Win32,59.95922773,Chrome,1707,1067,,,,,1,832,,,,,,,,,,,,,,,,,D,174,triangle,1,1,,,,,,,,,,,,,,,,repeat,number,numRpt,k,Lo,,,,,,0.6608,1,,,,,,,,low,24,0,24,0,1,,,,,,,,,
297280,2022-11-15_14h01.16.078,vts_reward_expectancy_bt,2022.2.4,Win32,59.95922773,Chrome,1707,1067,,,,,10,842,,,,,,,,,,,,,,,,,W,181,star,1,0,,,,,,,,,,,,,,,,repeat,number,numRpt,k,Lo,,,,,,0.8213,1,,,,,,,,low,25,0,25,0,1,,,,,,,,,
297280,2022-11-15_14h01.16.078,vts_reward_expectancy_bt,2022.2.4,Win32,59.95922773,Chrome,1707,1067,,,,,0,842,,,,,,,,,,,,,,,,,S,139,circle,1,0,,,,,,,,,,,,,,,,repeat,number,numRpt,j,Hi,,,,,,0.8805,1,,,,,,,,low,26,0,26,0,1,,,,,,,,,
297280,2022-11-15_14h01.16.078,vts_reward_expectancy_bt,2022.2.4,Win32,59.95922773,Chrome,1707,1067,,,,,10,852,,,,,,,,,,,,,,,,,U,132,hexagon,1,0,,,,,,,,,,,,,,,,repeat,number,numRpt,j,Hi,,,,,,0.5962,1,,,,,,,,low,27,0,27,0,1,,,,,,,,,
297280,2022-11-15_14h01.16.078,vts_reward_expectancy_bt,2022.2.4,Win32,59.95922773,Chrome,1707,1067,,,,,10,862,,,,,,,,,,,,,,,,,H,160,hexagon,1,0,,,,,,,,,,,,,,,,repeat,number,numRpt,k,Hi,,,,,,0.5663,1,,,,,,,,low,28,0,28,0,1,,,,,,,,,
297280,2022-11-15_14h01.16.078,vts_reward_expectancy_bt,2022.2.4,Win32,59.95922773,Chrome,1707,1067,,,,,0,862,,,,,,,,,,,,,,,,,F,146,circle,1,0,,,,,,,,,,,,,,,,repeat,number,numRpt,j,Hi,,,,,,1.2633,1,,,,,,,,low,29,0,29,0,1,,,,,,,,,
297280,2022-11-15_14h01.16.078,vts_reward_expectancy_bt,2022.2.4,Win32,59.95922773,Chrome,1707,1067,,,,,10,872,,,,,,,,,,,,,,,,,B,167,star,1,0,,,,,,,,,,,,,,,,repeat,number,numRpt,k,Lo,,,,,,0.5185,1,,,,,,,,low,30,0,30,0,1,,,,,,,,,
297280,2022-11-15_14h01.16.078,vts_reward_expectancy_bt,2022.2.4,Win32,59.95922773,Chrome,1707,1067,,,,,10,882,,,,,,,,,,,,,,,,,Y,125,triangle,1,0,,,,,,,,,,,,,,,,repeat,number,numRpt,j,Lo,,,,,,0.605,1,,,,,,,,low,31,0,31,0,1,,,,,,,,,
297280,2022-11-15_14h01.16.078,vts_reward_expectancy_bt,2022.2.4,Win32,59.95922773,Chrome,1707,1067,,,,,0,882,,,,,,,,,,,,,,,,,S,125,circle,1,0,,,,,,,,,,,,,,,,repeat,number,numRpt,j,Hi,,,,,,0.682,2,,,,,,space,1.9114,low,0,0,0,0,1,,,,,,,,,
297280,2022-11-15_14h01.16.078,vts_reward_expectancy_bt,2022.2.4,Win32,59.95922773,Chrome,1707,1067,,,,,10,892,,,,,,,,,,,,,,,,,D,139,hexagon,1,0,,,,,,,,,,,,,,,,repeat,number,numRpt,j,Hi,,,,,,0.5655,2,,,,,,,,low,1,0,1,0,1,,,,,,,,,
297280,2022-11-15_14h01.16.078,vts_reward_expectancy_bt,2022.2.4,Win32,59.95922773,Chrome,1707,1067,,,,,0,892,,,,,,,,,,,,,,,,,F,181,triangle,0,0,,,,,,,,,,,,,,,,repeat,number,NA,j,Hi,,,,,,0.3965,2,,,,,,,,low,2,0,2,0,1,,,,,,,,,
297280,2022-11-15_14h01.16.078,vts_reward_expectancy_bt,2022.2.4,Win32,59.95922773,Chrome,1707,1067,,,,,1,893,,,,,,,,,,,,,,,,,U,132,star,1,1,,,,,,,,,,,,,,,,repeat,number,numRpt,j,Lo,,,,,,0.4402,2,,,,,,,,low,3,0,3,0,1,,,,,,,,,
297280,2022-11-15_14h01.16.078,vts_reward_expectancy_bt,2022.2.4,Win32,59.95922773,Chrome,1707,1067,,,,,1,894,,,,,,,,,,,,,,,,,H,167,circle,1,0,,,,,,,,,,,,,,,,repeat,number,numRpt,k,Hi,,,,,,0.4736,2,,,,,,,,low,4,0,4,0,1,,,,,,,,,
297280,2022-11-15_14h01.16.078,vts_reward_expectancy_bt,2022.2.4,Win32,59.95922773,Chrome,1707,1067,,,,,0,894,,,,,,,,,,,,,,,,,Y,160,hexagon,1,0,,,,,,,,,,,,,,,,repeat,number,numRpt,k,Hi,,,,,,0.8346,2,,,,,,,,low,5,0,5,0,1,,,,,,,,,
297280,2022-11-15_14h01.16.078,vts_reward_expectancy_bt,2022.2.4,Win32,59.95922773,Chrome,1707,1067,,,,,1,895,,,,,,,,,,,,,,,,,W,174,triangle,1,0,,,,,,,,,,,,,,,,repeat,number,numRpt,k,Lo,,,,,,0.5377,2,,,,,,,,low,6,0,6,0,1,,,,,,,,,
297280,2022-11-15_14h01.16.078,vts_reward_expectancy_bt,2022.2.4,Win32,59.95922773,Chrome,1707,1067,,,,,1,896,,,,,,,,,,,,,,,,,B,146,star,1,0,,,,,,,,,,,,,,,,repeat,number,numRpt,j,Lo,,,,,,0.7821,2,,,,,,,,low,7,0,7,0,1,,,,,,,,,
297280,2022-11-15_14h01.16.078,vts_reward_expectancy_bt,2022.2.4,Win32,59.95922773,Chrome,1707,1067,,,,,1,897,,,,,,,,,,,,,,,,,S,125,triangle,1,0,,,,,,,,,,,,,,,,repeat,number,numRpt,j,Lo,,,,,,0.616,2,,,,,,,,low,8,0,8,0,1,,,,,,,,,
297280,2022-11-15_14h01.16.078,vts_reward_expectancy_bt,2022.2.4,Win32,59.95922773,Chrome,1707,1067,,,,,1,898,,,,,,,,,,,,,,,,,D,139,star,1,0,,,,,,,,,,,,,,,,repeat,number,numRpt,j,Lo,,,,,,0.807,2,,,,,,,,low,9,0,9,0,1,,,,,,,,,
297280,2022-11-15_14h01.16.078,vts_reward_expectancy_bt,2022.2.4,Win32,59.95922773,Chrome,1707,1067,,,,,0,898,,,,,,,,,,,,,,,,,F,181,circle,1,0,,,,,,,,,,,,,,,,repeat,number,numRpt,k,Hi,,,,,,0.6225,2,,,,,,,,low,10,0,10,0,1,,,,,,,,,
297280,2022-11-15_14h01.16.078,vts_reward_expectancy_bt,2022.2.4,Win32,59.95922773,Chrome,1707,1067,,,,,0,898,,,,,,,,,,,,,,,,,U,132,hexagon,1,0,,,,,,,,,,,,,,,,repeat,number,numRpt,j,Hi,,,,,,0.8969,2,,,,,,,,low,11,0,11,0,1,,,,,,,,,
297280,2022-11-15_14h01.16.078,vts_reward_expectancy_bt,2022.2.4,Win32,59.95922773,Chrome,1707,1067,,,,,1,899,,,,,,,,,,,,,,,,,H,167,triangle,1,0,,,,,,,,,,,,,,,,repeat,number,numRpt,k,Lo,,,,,,0.4475,2,,,,,,,,low,12,0,12,0,1,,,,,,,,,
297280,2022-11-15_14h01.16.078,vts_reward_expectancy_bt,2022.2.4,Win32,59.95922773,Chrome,1707,1067,,,,,1,900,,,,,,,,,,,,,,,,,Y,160,hexagon,1,0,,,,,,,,,,,,,,,,repeat,number,numRpt,k,Hi,,,,,,0.5136,2,,,,,,,,low,13,0,13,0,1,,,,,,,,,
297280,2022-11-15_14h01.16.078,vts_reward_expectancy_bt,2022.2.4,Win32,59.95922773,Chrome,1707,1067,,,,,10,910,,,,,,,,,,,,,,,,,W,174,circle,1,0,,,,,,,,,,,,,,,,repeat,number,numRpt,k,Hi,,,,,,0.4498,2,,,,,,,,low,14,0,14,0,1,,,,,,,,,
297280,2022-11-15_14h01.16.078,vts_reward_expectancy_bt,2022.2.4,Win32,59.95922773,Chrome,1707,1067,,,,,1,911,,,,,,,,,,,,,,,,,B,146,star,1,0,,,,,,,,,,,,,,,,repeat,number,numRpt,j,Lo,,,,,,0.5347,2,,,,,,,,low,15,0,15,0,1,,,,,,,,,
297280,2022-11-15_14h01.16.078,vts_reward_expectancy_bt,2022.2.4,Win32,59.95922773,Chrome,1707,1067,,,,,1,912,,,,,,,,,,,,,,,,,B,132,triangle,1,0,,,,,,,,,,,,,,,,repeat,number,numRpt,j,Lo,,,,,,0.6089,2,,,,,,,,low,16,0,16,0,1,,,,,,,,,
297280,2022-11-15_14h01.16.078,vts_reward_expectancy_bt,2022.2.4,Win32,59.95922773,Chrome,1707,1067,,,,,10,922,,,,,,,,,,,,,,,,,Y,167,hexagon,1,0,,,,,,,,,,,,,,,,repeat,number,numRpt,k,Hi,,,,,,0.5837,2,,,,,,,,low,17,0,17,0,1,,,,,,,,,
297280,2022-11-15_14h01.16.078,vts_reward_expectancy_bt,2022.2.4,Win32,59.95922773,Chrome,1707,1067,,,,,10,932,,,,,,,,,,,,,,,,,S,139,star,1,0,,,,,,,,,,,,,,,,repeat,number,numRpt,j,Lo,,,,,,0.8135,2,,,,,,,,low,18,0,18,0,1,,,,,,,,,
297280,2022-11-15_14h01.16.078,vts_reward_expectancy_bt,2022.2.4,Win32,59.95922773,Chrome,1707,1067,,,,,1,933,,,,,,,,,,,,,,,,,W,181,circle,1,0,,,,,,,,,,,,,,,,repeat,number,numRpt,k,Hi,,,,,,0.5077,2,,,,,,,,low,19,0,19,0,1,,,,,,,,,
297280,2022-11-15_14h01.16.078,vts_reward_expectancy_bt,2022.2.4,Win32,59.95922773,Chrome,1707,1067,,,,,0,933,,,,,,,,,,,,,,,,,D,146,hexagon,1,0,,,,,,,,,,,,,,,,repeat,number,numRpt,j,Hi,,,,,,0.6538,2,,,,,,,,low,20,0,20,0,1,,,,,,,,,
297280,2022-11-15_14h01.16.078,vts_reward_expectancy_bt,2022.2.4,Win32,59.95922773,Chrome,1707,1067,,,,,1,934,,,,,,,,,,,,,,,,,F,125,triangle,1,0,,,,,,,,,,,,,,,,repeat,number,numRpt,j,Lo,,,,,,0.6168,2,,,,,,,,low,21,0,21,0,1,,,,,,,,,
297280,2022-11-15_14h01.16.078,vts_reward_expectancy_bt,2022.2.4,Win32,59.95922773,Chrome,1707,1067,,,,,0,934,,,,,,,,,,,,,,,,,U,160,circle,1,0,,,,,,,,,,,,,,,,repeat,number,numRpt,k,Hi,,,,,,0.8004,2,,,,,,,,low,22,0,22,0,1,,,,,,,,,
297280,2022-11-15_14h01.16.078,vts_reward_expectancy_bt,2022.2.4,Win32,59.95922773,Chrome,1707,1067,,,,,1,935,,,,,,,,,,,,,,,,,H,174,star,1,0,,,,,,,,,,,,,,,,repeat,number,numRpt,k,Lo,,,,,,0.779,2,,,,,,,,low,23,0,23,0,1,,,,,,,,,
297280,2022-11-15_14h01.16.078,vts_reward_expectancy_bt,2022.2.4,Win32,59.95922773,Chrome,1707,1067,,,,,0,935,,,,,,,,,,,,,,,,,H,181,hexagon,1,0,,,,,,,,,,,,,,,,repeat,number,numRpt,k,Hi,,,,,,1.5981,2,,,,,,,,low,24,0,24,0,1,,,,,,,,,
297280,2022-11-15_14h01.16.078,vts_reward_expectancy_bt,2022.2.4,Win32,59.95922773,Chrome,1707,1067,,,,,1,936,,,,,,,,,,,,,,,,,D,125,star,1,0,,,,,,,,,,,,,,,,repeat,number,numRpt,j,Lo,,,,,,0.5709,2,,,,,,,,low,25,0,25,0,1,,,,,,,,,
297280,2022-11-15_14h01.16.078,vts_reward_expectancy_bt,2022.2.4,Win32,59.95922773,Chrome,1707,1067,,,,,10,946,,,,,,,,,,,,,,,,,F,174,triangle,1,0,,,,,,,,,,,,,,,,repeat,number,numRpt,k,Lo,,,,,,0.5397,2,,,,,,,,low,26,0,26,0,1,,,,,,,,,
297280,2022-11-15_14h01.16.078,vts_reward_expectancy_bt,2022.2.4,Win32,59.95922773,Chrome,1707,1067,,,,,10,956,,,,,,,,,,,,,,,,,S,167,circle,1,0,,,,,,,,,,,,,,,,repeat,number,numRpt,k,Hi,,,,,,0.5139,2,,,,,,,,low,27,0,27,0,1,,,,,,,,,
297280,2022-11-15_14h01.16.078,vts_reward_expectancy_bt,2022.2.4,Win32,59.95922773,Chrome,1707,1067,,,,,10,966,,,,,,,,,,,,,,,,,Y,146,circle,1,0,,,,,,,,,,,,,,,,repeat,number,numRpt,j,Hi,,,,,,0.5803,2,,,,,,,,low,28,0,28,0,1,,,,,,,,,
297280,2022-11-15_14h01.16.078,vts_reward_expectancy_bt,2022.2.4,Win32,59.95922773,Chrome,1707,1067,,,,,1,967,,,,,,,,,,,,,,,,,W,160,star,1,0,,,,,,,,,,,,,,,,repeat,number,numRpt,k,Lo,,,,,,0.745,2,,,,,,,,low,29,0,29,0,1,,,,,,,,,
297280,2022-11-15_14h01.16.078,vts_reward_expectancy_bt,2022.2.4,Win32,59.95922773,Chrome,1707,1067,,,,,0,967,,,,,,,,,,,,,,,,,B,132,hexagon,1,0,,,,,,,,,,,,,,,,repeat,number,numRpt,j,Hi,,,,,,0.7386,2,,,,,,,,low,30,0,30,0,1,,,,,,,,,
297280,2022-11-15_14h01.16.078,vts_reward_expectancy_bt,2022.2.4,Win32,59.95922773,Chrome,1707,1067,,,,,10,977,,,,,,,,,,,,,,,,,U,139,triangle,1,0,,,,,,,,,,,,,,,,repeat,number,numRpt,j,Lo,,,,,,0.5708,2,,,,,,,,low,31,0,31,0,1,,,,,,,,,
297280,2022-11-15_14h01.16.078,vts_reward_expectancy_bt,2022.2.4,Win32,59.95922773,Chrome,1707,1067,,,,,0,977,,,,,,,,,,,,,,,,,Y,125,hexagon,1,0,,,,,,,,,,,,,,,,repeat,number,numRpt,j,Hi,,,,,,0.8151,3,,,,,,space,102.1821,low,0,0,0,0,1,,,,,,,,,
297280,2022-11-15_14h01.16.078,vts_reward_expectancy_bt,2022.2.4,Win32,59.95922773,Chrome,1707,1067,,,,,10,987,,,,,,,,,,,,,,,,,D,132,star,1,0,,,,,,,,,,,,,,,,repeat,number,numRpt,j,Lo,,,,,,0.5813,3,,,,,,,,low,1,0,1,0,1,,,,,,,,,
297280,2022-11-15_14h01.16.078,vts_reward_expectancy_bt,2022.2.4,Win32,59.95922773,Chrome,1707,1067,,,,,0,987,,,,,,,,,,,,,,,,,H,160,circle,1,0,,,,,,,,,,,,,,,,repeat,number,numRpt,k,Hi,,,,,,0.5806,3,,,,,,,,low,2,0,2,0,1,,,,,,,,,
297280,2022-11-15_14h01.16.078,vts_reward_expectancy_bt,2022.2.4,Win32,59.95922773,Chrome,1707,1067,,,,,1,988,,,,,,,,,,,,,,,,,F,167,triangle,1,0,,,,,,,,,,,,,,,,repeat,number,numRpt,k,Lo,,,,,,0.7854,3,,,,,,,,low,3,0,3,0,1,,,,,,,,,
297280,2022-11-15_14h01.16.078,vts_reward_expectancy_bt,2022.2.4,Win32,59.95922773,Chrome,1707,1067,,,,,0,988,,,,,,,,,,,,,,,,,W,181,hexagon,1,0,,,,,,,,,,,,,,,,repeat,number,numRpt,k,Hi,,,,,,0.5899,3,,,,,,,,low,4,0,4,0,1,,,,,,,,,
297280,2022-11-15_14h01.16.078,vts_reward_expectancy_bt,2022.2.4,Win32,59.95922773,Chrome,1707,1067,,,,,0,988,,,,,,,,,,,,,,,,,S,139,star,0,0,,,,,,,,,,,,,,,,repeat,number,NA,k,Hi,,,,,,0.4798,3,,,,,,,,low,5,0,5,0,1,,,,,,,,,
297280,2022-11-15_14h01.16.078,vts_reward_expectancy_bt,2022.2.4,Win32,59.95922773,Chrome,1707,1067,,,,,10,998,,,,,,,,,,,,,,,,,B,174,circle,1,1,,,,,,,,,,,,,,,,repeat,number,numRpt,k,Hi,,,,,,0.4996,3,,,,,,,,low,6,0,6,0,1,,,,,,,,,
297280,2022-11-15_14h01.16.078,vts_reward_expectancy_bt,2022.2.4,Win32,59.95922773,Chrome,1707,1067,,,,,1,999,,,,,,,,,,,,,,,,,U,146,triangle,1,0,,,,,,,,,,,,,,,,repeat,number,numRpt,j,Lo,,,,,,0.546,3,,,,,,,,low,7,0,7,0,1,,,,,,,,,
297280,2022-11-15_14h01.16.078,vts_reward_expectancy_bt,2022.2.4,Win32,59.95922773,Chrome,1707,1067,,,,,1,1000,,,,,,,,,,,,,,,,,Y,125,triangle,1,0,,,,,,,,,,,,,,,,repeat,number,numRpt,j,Lo,,,,,,0.7075,3,,,,,,,,low,8,0,8,0,1,,,,,,,,,
297280,2022-11-15_14h01.16.078,vts_reward_expectancy_bt,2022.2.4,Win32,59.95922773,Chrome,1707,1067,,,,,10,1010,,,,,,,,,,,,,,,,,D,132,star,1,0,,,,,,,,,,,,,,,,repeat,number,numRpt,j,Lo,,,,,,0.6335,3,,,,,,,,low,9,0,9,0,1,,,,,,,,,
297280,2022-11-15_14h01.16.078,vts_reward_expectancy_bt,2022.2.4,Win32,59.95922773,Chrome,1707,1067,,,,,0,1010,,,,,,,,,,,,,,,,,H,160,hexagon,1,0,,,,,,,,,,,,,,,,repeat,number,numRpt,k,Hi,,,,,,0.8577,3,,,,,,,,low,10,0,10,0,1,,,,,,,,,
297280,2022-11-15_14h01.16.078,vts_reward_expectancy_bt,2022.2.4,Win32,59.95922773,Chrome,1707,1067,,,,,1,1011,,,,,,,,,,,,,,,,,F,167,circle,1,0,,,,,,,,,,,,,,,,repeat,number,numRpt,k,Hi,,,,,,0.4952,3,,,,,,,,low,11,0,11,0,1,,,,,,,,,
297280,2022-11-15_14h01.16.078,vts_reward_expectancy_bt,2022.2.4,Win32,59.95922773,Chrome,1707,1067,,,,,10,1021,,,,,,,,,,,,,,,,,W,181,hexagon,1,0,,,,,,,,,,,,,,,,repeat,number,numRpt,k,Hi,,,,,,0.4641,3,,,,,,,,low,12,0,12,0,1,,,,,,,,,
297280,2022-11-15_14h01.16.078,vts_reward_expectancy_bt,2022.2.4,Win32,59.95922773,Chrome,1707,1067,,,,,1,1022,,,,,,,,,,,,,,,,,S,139,circle,1,0,,,,,,,,,,,,,,,,repeat,number,numRpt,j,Hi,,,,,,0.512,3,,,,,,,,low,13,0,13,0,1,,,,,,,,,
297280,2022-11-15_14h01.16.078,vts_reward_expectancy_bt,2022.2.4,Win32,59.95922773,Chrome,1707,1067,,,,,1,1023,,,,,,,,,,,,,,,,,B,174,triangle,1,0,,,,,,,,,,,,,,,,repeat,number,numRpt,k,Lo,,,,,,0.5067,3,,,,,,,,low,14,0,14,0,1,,,,,,,,,
297280,2022-11-15_14h01.16.078,vts_reward_expectancy_bt,2022.2.4,Win32,59.95922773,Chrome,1707,1067,,,,,10,1033,,,,,,,,,,,,,,,,,U,146,star,1,0,,,,,,,,,,,,,,,,repeat,number,numRpt,j,Lo,,,,,,0.7118,3,,,,,,,,low,15,0,15,0,1,,,,,,,,,
297280,2022-11-15_14h01.16.078,vts_reward_expectancy_bt,2022.2.4,Win32,59.95922773,Chrome,1707,1067,,,,,1,1034,,,,,,,,,,,,,,,,,U,139,star,1,0,,,,,,,,,,,,,,,,repeat,number,numRpt,j,Lo,,,,,,0.6138,3,,,,,,,,low,16,0,16,0,1,,,,,,,,,
297280,2022-11-15_14h01.16.078,vts_reward_expectancy_bt,2022.2.4,Win32,59.95922773,Chrome,1707,1067,,,,,10,1044,,,,,,,,,,,,,,,,,S,146,triangle,1,0,,,,,,,,,,,,,,,,repeat,number,numRpt,j,Lo,,,,,,0.5074,3,,,,,,,,low,17,0,17,0,1,,,,,,,,,
297280,2022-11-15_14h01.16.078,vts_reward_expectancy_bt,2022.2.4,Win32,59.95922773,Chrome,1707,1067,,,,,1,1045,,,,,,,,,,,,,,,,,F,174,circle,1,0,,,,,,,,,,,,,,,,repeat,number,numRpt,k,Hi,,,,,,0.5468,3,,,,,,,,low,18,0,18,0,1,,,,,,,,,
297280,2022-11-15_14h01.16.078,vts_reward_expectancy_bt,2022.2.4,Win32,59.95922773,Chrome,1707,1067,,,,,0,1045,,,,,,,,,,,,,,,,,W,167,hexagon,1,0,,,,,,,,,,,,,,,,repeat,number,numRpt,k,Hi,,,,,,0.6217,3,,,,,,,,low,19,0,19,0,1,,,,,,,,,
297280,2022-11-15_14h01.16.078,vts_reward_expectancy_bt,2022.2.4,Win32,59.95922773,Chrome,1707,1067,,,,,10,1055,,,,,,,,,,,,,,,,,H,160,hexagon,1,0,,,,,,,,,,,,,,,,repeat,number,numRpt,k,Hi,,,,,,0.5181,3,,,,,,,,low,20,0,20,0,1,,,,,,,,,
297280,2022-11-15_14h01.16.078,vts_reward_expectancy_bt,2022.2.4,Win32,59.95922773,Chrome,1707,1067,,,,,0,1055,,,,,,,,,,,,,,,,,D,125,circle,1,0,,,,,,,,,,,,,,,,repeat,number,numRpt,j,Hi,,,,,,0.7787,3,,,,,,,,low,21,0,21,0,1,,,,,,,,,
297280,2022-11-15_14h01.16.078,vts_reward_expectancy_bt,2022.2.4,Win32,59.95922773,Chrome,1707,1067,,,,,1,1056,,,,,,,,,,,,,,,,,Y,132,star,1,0,,,,,,,,,,,,,,,,repeat,number,numRpt,j,Lo,,,,,,0.5996,3,,,,,,,,low,22,0,22,0,1,,,,,,,,,
297280,2022-11-15_14h01.16.078,vts_reward_expectancy_bt,2022.2.4,Win32,59.95922773,Chrome,1707,1067,,,,,1,1057,,,,,,,,,,,,,,,,,B,181,triangle,1,0,,,,,,,,,,,,,,,,repeat,number,numRpt,k,Lo,,,,,,0.5626,3,,,,,,,,low,23,0,23,0,1,,,,,,,,,
297280,2022-11-15_14h01.16.078,vts_reward_expectancy_bt,2022.2.4,Win32,59.95922773,Chrome,1707,1067,,,,,1,1058,,,,,,,,,,,,,,,,,W,132,star,1,0,,,,,,,,,,,,,,,,repeat,number,numRpt,j,Lo,,,,,,0.4293,3,,,,,,,,low,24,0,24,0,1,,,,,,,,,
297280,2022-11-15_14h01.16.078,vts_reward_expectancy_bt,2022.2.4,Win32,59.95922773,Chrome,1707,1067,,,,,0,1058,,,,,,,,,,,,,,,,,S,125,triangle,0,0,,,,,,,,,,,,,,,,repeat,number,NA,k,Lo,,,,,,0.5707,3,,,,,,,,low,25,0,25,0,1,,,,,,,,,
297280,2022-11-15_14h01.16.078,vts_reward_expectancy_bt,2022.2.4,Win32,59.95922773,Chrome,1707,1067,,,,,0,1058,,,,,,,,,,,,,,,,,B,174,circle,1,1,,,,,,,,,,,,,,,,repeat,number,numRpt,k,Hi,,,,,,0.5792,3,,,,,,,,low,26,0,26,0,1,,,,,,,,,
297280,2022-11-15_14h01.16.078,vts_reward_expectancy_bt,2022.2.4,Win32,59.95922773,Chrome,1707,1067,,,,,0,1058,,,,,,,,,,,,,,,,,F,146,hexagon,1,0,,,,,,,,,,,,,,,,repeat,number,numRpt,j,Hi,,,,,,0.5814,3,,,,,,,,low,27,0,27,0,1,,,,,,,,,
297280,2022-11-15_14h01.16.078,vts_reward_expectancy_bt,2022.2.4,Win32,59.95922773,Chrome,1707,1067,,,,,0,1058,,,,,,,,,,,,,,,,,U,139,circle,1,0,,,,,,,,,,,,,,,,repeat,number,numRpt,j,Hi,,,,,,0.612,3,,,,,,,,low,28,0,28,0,1,,,,,,,,,
297280,2022-11-15_14h01.16.078,vts_reward_expectancy_bt,2022.2.4,Win32,59.95922773,Chrome,1707,1067,,,,,10,1068,,,,,,,,,,,,,,,,,H,167,triangle,1,0,,,,,,,,,,,,,,,,repeat,number,numRpt,k,Lo,,,,,,0.4792,3,,,,,,,,low,29,0,29,0,1,,,,,,,,,
297280,2022-11-15_14h01.16.078,vts_reward_expectancy_bt,2022.2.4,Win32,59.95922773,Chrome,1707,1067,,,,,0,1068,,,,,,,,,,,,,,,,,Y,181,star,0,0,,,,,,,,,,,,,,,,repeat,number,NA,j,Lo,,,,,,0.6741,3,,,,,,,,low,30,0,30,0,1,,,,,,,,,
297280,2022-11-15_14h01.16.078,vts_reward_expectancy_bt,2022.2.4,Win32,59.95922773,Chrome,1707,1067,,,,,10,1078,,,,,,,,,,,,,,,,,D,160,hexagon,1,1,,,,,,,,,,,,,,,,repeat,number,numRpt,k,Hi,,,,,,0.5218,3,,,,,,,,low,31,0,31,0,1,,,,,,,,,
297280,2022-11-15_14h01.16.078,vts_reward_expectancy_bt,2022.2.4,Win32,59.95922773,Chrome,1707,1067,,,,,0,1078,,,,,,,,,,,,,,,,,D,181,hexagon,1,0,,,,,,,,,,,,,,,,repeat,number,numRpt,k,Hi,,,,,,0.5814,4,,,,,,space,30.3982,low,0,0,0,0,1,,,,,,,,,
297280,2022-11-15_14h01.16.078,vts_reward_expectancy_bt,2022.2.4,Win32,59.95922773,Chrome,1707,1067,,,,,10,1088,,,,,,,,,,,,,,,,,H,139,star,1,0,,,,,,,,,,,,,,,,repeat,number,numRpt,j,Lo,,,,,,0.4852,4,,,,,,,,low,1,0,1,0,1,,,,,,,,,
297280,2022-11-15_14h01.16.078,vts_reward_expectancy_bt,2022.2.4,Win32,59.95922773,Chrome,1707,1067,,,,,1,1089,,,,,,,,,,,,,,,,,U,174,circle,1,0,,,,,,,,,,,,,,,,repeat,number,numRpt,k,Hi,,,,,,0.4808,4,,,,,,,,low,2,0,2,0,1,,,,,,,,,
297280,2022-11-15_14h01.16.078,vts_reward_expectancy_bt,2022.2.4,Win32,59.95922773,Chrome,1707,1067,,,,,10,1099,,,,,,,,,,,,,,,,,W,167,triangle,1,0,,,,,,,,,,,,,,,,repeat,number,numRpt,k,Lo,,,,,,0.7997,4,,,,,,,,low,3,0,3,0,1,,,,,,,,,
297280,2022-11-15_14h01.16.078,vts_reward_expectancy_bt,2022.2.4,Win32,59.95922773,Chrome,1707,1067,,,,,0,1099,,,,,,,,,,,,,,,,,F,160,hexagon,1,0,,,,,,,,,,,,,,,,repeat,number,numRpt,k,Hi,,,,,,0.7454,4,,,,,,,,low,4,0,4,0,1,,,,,,,,,
297280,2022-11-15_14h01.16.078,vts_reward_expectancy_bt,2022.2.4,Win32,59.95922773,Chrome,1707,1067,,,,,10,1109,,,,,,,,,,,,,,,,,S,146,star,1,0,,,,,,,,,,,,,,,,repeat,number,numRpt,j,Lo,,,,,,0.5464,4,,,,,,,,low,5,0,5,0,1,,,,,,,,,
297280,2022-11-15_14h01.16.078,vts_reward_expectancy_bt,2022.2.4,Win32,59.95922773,Chrome,1707,1067,,,,,10,1119,,,,,,,,,,,,,,,,,Y,132,circle,1,0,,,,,,,,,,,,,,,,repeat,number,numRpt,j,Hi,,,,,,0.5204,4,,,,,,,,low,6,0,6,0,1,,,,,,,,,
297280,2022-11-15_14h01.16.078,vts_reward_expectancy_bt,2022.2.4,Win32,59.95922773,Chrome,1707,1067,,,,,10,1129,,,,,,,,,,,,,,,,,B,125,triangle,1,0,,,,,,,,,,,,,,,,repeat,number,numRpt,j,Lo,,,,,,0.4804,4,,,,,,,,low,7,0,7,0,1,,,,,,,,,
297280,2022-11-15_14h01.16.078,vts_reward_expectancy_bt,2022.2.4,Win32,59.95922773,Chrome,1707,1067,,,,,0,1129,,,,,,,,,,,,,,,,,D,181,circle,0,0,,,,,,,,,,,,,,,,repeat,number,NA,j,Lo,,,,,,0.5287,4,,,,,,,,low,8,0,8,0,1,,,,,,,,,
297280,2022-11-15_14h01.16.078,vts_reward_expectancy_bt,2022.2.4,Win32,59.95922773,Chrome,1707,1067,,,,,1,1130,,,,,,,,,,,,,,,,,H,139,star,1,1,,,,,,,,,,,,,,,,repeat,number,numRpt,j,Lo,,,,,,0.7246,4,,,,,,,,low,9,0,9,0,1,,,,,,,,,
297280,2022-11-15_14h01.16.078,vts_reward_expectancy_bt,2022.2.4,Win32,59.95922773,Chrome,1707,1067,,,,,0,1130,,,,,,,,,,,,,,,,,U,174,hexagon,1,0,,,,,,,,,,,,,,,,repeat,number,numRpt,k,Hi,,,,,,0.5955,4,,,,,,,,low,10,0,10,0,1,,,,,,,,,
297280,2022-11-15_14h01.16.078,vts_reward_expectancy_bt,2022.2.4,Win32,59.95922773,Chrome,1707,1067,,,,,10,1140,,,,,,,,,,,,,,,,,W,167,triangle,1,0,,,,,,,,,,,,,,,,repeat,number,numRpt,k,Lo,,,,,,0.623,4,,,,,,,,low,11,0,11,0,1,,,,,,,,,
297280,2022-11-15_14h01.16.078,vts_reward_expectancy_bt,2022.2.4,Win32,59.95922773,Chrome,1707,1067,,,,,10,1150,,,,,,,,,,,,,,,,,F,160,star,1,0,,,,,,,,,,,,,,,,repeat,number,numRpt,k,Lo,,,,,,0.7007,4,,,,,,,,low,12,0,12,0,1,,,,,,,,,
297280,2022-11-15_14h01.16.078,vts_reward_expectancy_bt,2022.2.4,Win32,59.95922773,Chrome,1707,1067,,,,,0,1150,,,,,,,,,,,,,,,,,S,146,hexagon,1,0,,,,,,,,,,,,,,,,repeat,number,numRpt,j,Hi,,,,,,0.7225,4,,,,,,,,low,13,0,13,0,1,,,,,,,,,
297280,2022-11-15_14h01.16.078,vts_reward_expectancy_bt,2022.2.4,Win32,59.95922773,Chrome,1707,1067,,,,,0,1150,,,,,,,,,,,,,,,,,Y,132,triangle,-1,0,,,,,,,,,,,,,,,,switch,no_choice,NA,,Hi,,,,,,,4,,,,,,,,low,14,0,14,0,1,,,,,,,,,
297280,2022-11-15_14h01.16.078,vts_reward_expectancy_bt,2022.2.4,Win32,59.95922773,Chrome,1707,1067,,,,,1,1151,,,,,,,,,,,,,,,,,B,125,circle,1,0,,,,,,,,,,,,,,,,switch,number,numSwt,j,Hi,,,,,,0.6086,4,,,,,,,,low,15,0,15,0,1,,,,,,,,,
297280,2022-11-15_14h01.16.078,vts_reward_expectancy_bt,2022.2.4,Win32,59.95922773,Chrome,1707,1067,,,,,1,1152,,,,,,,,,,,,,,,,,S,139,triangle,1,0,,,,,,,,,,,,,,,,repeat,number,numRpt,j,Lo,,,,,,0.5402,4,,,,,,,,low,16,0,16,0,1,,,,,,,,,
297280,2022-11-15_14h01.16.078,vts_reward_expectancy_bt,2022.2.4,Win32,59.95922773,Chrome,1707,1067,,,,,0,1152,,,,,,,,,,,,,,,,,B,146,hexagon,1,0,,,,,,,,,,,,,,,,repeat,number,numRpt,j,Hi,,,,,,0.5967,4,,,,,,,,low,17,0,17,0,1,,,,,,,,,
297280,2022-11-15_14h01.16.078,vts_reward_expectancy_bt,2022.2.4,Win32,59.95922773,Chrome,1707,1067,,,,,10,1162,,,,,,,,,,,,,,,,,W,132,star,1,0,,,,,,,,,,,,,,,,repeat,number,numRpt,j,Lo,,,,,,0.6734,4,,,,,,,,low,18,0,18,0,1,,,,,,,,,
297280,2022-11-15_14h01.16.078,vts_reward_expectancy_bt,2022.2.4,Win32,59.95922773,Chrome,1707,1067,,,,,0,1162,,,,,,,,,,,,,,,,,D,181,circle,1,0,,,,,,,,,,,,,,,,repeat,number,numRpt,k,Hi,,,,,,0.5954,4,,,,,,,,low,19,0,19,0,1,,,,,,,,,
297280,2022-11-15_14h01.16.078,vts_reward_expectancy_bt,2022.2.4,Win32,59.95922773,Chrome,1707,1067,,,,,1,1163,,,,,,,,,,,,,,,,,Y,125,star,1,0,,,,,,,,,,,,,,,,repeat,number,numRpt,j,Lo,,,,,,0.5792,4,,,,,,,,low,20,0,20,0,1,,,,,,,,,
297280,2022-11-15_14h01.16.078,vts_reward_expectancy_bt,2022.2.4,Win32,59.95922773,Chrome,1707,1067,,,,,10,1173,,,,,,,,,,,,,,,,,U,167,circle,1,0,,,,,,,,,,,,,,,,repeat,number,numRpt,k,Hi,,,,,,0.466,4,,,,,,,,low,21,0,21,0,1,,,,,,,,,
297280,2022-11-15_14h01.16.078,vts_reward_expectancy_bt,2022.2.4,Win32,59.95922773,Chrome,1707,1067,,,,,1,1174,,,,,,,,,,,,,,,,,H,160,hexagon,1,0,,,,,,,,,,,,,,,,repeat,number,numRpt,k,Hi,,,,,,0.5183,4,,,,,,,,low,22,0,22,0,1,,,,,,,,,
297280,2022-11-15_14h01.16.078,vts_reward_expectancy_bt,2022.2.4,Win32,59.95922773,Chrome,1707,1067,,,,,10,1184,,,,,,,,,,,,,,,,,F,174,triangle,1,0,,,,,,,,,,,,,,,,repeat,number,numRpt,k,Lo,,,,,,0.5144,4,,,,,,,,low,23,0,23,0,1,,,,,,,,,
297280,2022-11-15_14h01.16.078,vts_reward_expectancy_bt,2022.2.4,Win32,59.95922773,Chrome,1707,1067,,,,,10,1194,,,,,,,,,,,,,,,,,U,132,triangle,1,0,,,,,,,,,,,,,,,,repeat,number,numRpt,j,Lo,,,,,,0.4372,4,,,,,,,,low,24,0,24,0,1,,,,,,,,,
297280,2022-11-15_14h01.16.078,vts_reward_expectancy_bt,2022.2.4,Win32,59.95922773,Chrome,1707,1067,,,,,0,1194,,,,,,,,,,,,,,,,,B,174,hexagon,1,0,,,,,,,,,,,,,,,,repeat,number,numRpt,k,Hi,,,,,,0.5462,4,,,,,,,,low,25,0,25,0,1,,,,,,,,,
297280,2022-11-15_14h01.16.078,vts_reward_expectancy_bt,2022.2.4,Win32,59.95922773,Chrome,1707,1067,,,,,10,1204,,,,,,,,,,,,,,,,,D,160,star,1,0,,,,,,,,,,,,,,,,repeat,number,numRpt,k,Lo,,,,,,0.4965,4,,,,,,,,low,26,0,26,0,1,,,,,,,,,
297280,2022-11-15_14h01.16.078,vts_reward_expectancy_bt,2022.2.4,Win32,59.95922773,Chrome,1707,1067,,,,,10,1214,,,,,,,,,,,,,,,,,H,181,circle,1,0,,,,,,,,,,,,,,,,repeat,number,numRpt,k,Hi,,,,,,0.5014,4,,,,,,,,low,27,0,27,0,1,,,,,,,,,
297280,2022-11-15_14h01.16.078,vts_reward_expectancy_bt,2022.2.4,Win32,59.95922773,Chrome,1707,1067,,,,,0,1214,,,,,,,,,,,,,,,,,S,125,hexagon,1,0,,,,,,,,,,,,,,,,repeat,number,numRpt,j,Hi,,,,,,0.6304,4,,,,,,,,low,28,0,28,0,1,,,,,,,,,
297280,2022-11-15_14h01.16.078,vts_reward_expectancy_bt,2022.2.4,Win32,59.95922773,Chrome,1707,1067,,,,,1,1215,,,,,,,,,,,,,,,,,Y,146,star,1,0,,,,,,,,,,,,,,,,repeat,number,numRpt,j,Lo,,,,,,0.9766,4,,,,,,,,low,29,0,29,0,1,,,,,,,,,
297280,2022-11-15_14h01.16.078,vts_reward_expectancy_bt,2022.2.4,Win32,59.95922773,Chrome,1707,1067,,,,,10,1225,,,,,,,,,,,,,,,,,F,167,triangle,1,0,,,,,,,,,,,,,,,,repeat,number,numRpt,k,Lo,,,,,,0.596,4,,,,,,,,low,30,0,30,0,1,,,,,,,,,
297280,2022-11-15_14h01.16.078,vts_reward_expectancy_bt,2022.2.4,Win32,59.95922773,Chrome,1707,1067,,,,,0,1225,,,,,,,,,,,,,,,,,W,139,circle,1,0,,,,,,,,,,,,,,,,repeat,number,numRpt,j,Hi,,,,,,0.5969,4,,,,,,,,low,31,0,31,0,1,,,,,,,,,
297280,2022-11-15_14h01.16.078,vts_reward_expectancy_bt,2022.2.4,Win32,59.95922773,Chrome,1707,1067,,,,,0,1225,,,,,,,,,,,,,,,,,H,146,star,0,0,,,,,,,,,,,,,,,,repeat,number,NA,k,Hi,,,,,,0.6352,5,,,,,,space,29.3691,low,0,0,0,0,1,,,,,,,,,
297280,2022-11-15_14h01.16.078,vts_reward_expectancy_bt,2022.2.4,Win32,59.95922773,Chrome,1707,1067,,,,,1,1226,,,,,,,,,,,,,,,,,B,125,triangle,1,1,,,,,,,,,,,,,,,,repeat,number,numRpt,j,Lo,,,,,,0.6184,5,,,,,,,,low,1,0,1,0,1,,,,,,,,,
297280,2022-11-15_14h01.16.078,vts_reward_expectancy_bt,2022.2.4,Win32,59.95922773,Chrome,1707,1067,,,,,0,1226,,,,,,,,,,,,,,,,,F,174,hexagon,1,0,,,,,,,,,,,,,,,,repeat,number,numRpt,k,Hi,,,,,,0.9024,5,,,,,,,,low,2,0,2,0,1,,,,,,,,,
297280,2022-11-15_14h01.16.078,vts_reward_expectancy_bt,2022.2.4,Win32,59.95922773,Chrome,1707,1067,,,,,0,1226,,,,,,,,,,,,,,,,,U,139,circle,1,0,,,,,,,,,,,,,,,,repeat,number,numRpt,j,Hi,,,,,,0.7357,5,,,,,,,,low,3,0,3,0,1,,,,,,,,,
297280,2022-11-15_14h01.16.078,vts_reward_expectancy_bt,2022.2.4,Win32,59.95922773,Chrome,1707,1067,,,,,1,1227,,,,,,,,,,,,,,,,,D,167,star,1,0,,,,,,,,,,,,,,,,repeat,number,numRpt,k,Lo,,,,,,0.5909,5,,,,,,,,low,4,0,4,0,1,,,,,,,,,
297280,2022-11-15_14h01.16.078,vts_reward_expectancy_bt,2022.2.4,Win32,59.95922773,Chrome,1707,1067,,,,,1,1228,,,,,,,,,,,,,,,,,W,181,triangle,1,0,,,,,,,,,,,,,,,,repeat,number,numRpt,k,Lo,,,,,,0.5372,5,,,,,,,,low,5,0,5,0,1,,,,,,,,,
297280,2022-11-15_14h01.16.078,vts_reward_expectancy_bt,2022.2.4,Win32,59.95922773,Chrome,1707,1067,,,,,0,1228,,,,,,,,,,,,,,,,,Y,132,hexagon,-1,0,,,,,,,,,,,,,,,,switch,no_choice,NA,,Lo,,,,,,,5,,,,,,,,low,6,0,6,0,1,,,,,,,,,
297280,2022-11-15_14h01.16.078,vts_reward_expectancy_bt,2022.2.4,Win32,59.95922773,Chrome,1707,1067,,,,,0,1228,,,,,,,,,,,,,,,,,S,160,circle,1,0,,,,,,,,,,,,,,,,switch,number,numSwt,k,Hi,,,,,,0.6837,5,,,,,,,,low,7,0,7,0,1,,,,,,,,,
297280,2022-11-15_14h01.16.078,vts_reward_expectancy_bt,2022.2.4,Win32,59.95922773,Chrome,1707,1067,,,,,0,1228,,,,,,,,,,,,,,,,,H,146,circle,1,0,,,,,,,,,,,,,,,,repeat,number,numRpt,j,Hi,,,,,,1.0348,5,,,,,,,,low,8,0,8,0,1,,,,,,,,,
297280,2022-11-15_14h01.16.078,vts_reward_expectancy_bt,2022.2.4,Win32,59.95922773,Chrome,1707,1067,,,,,1,1229,,,,,,,,,,,,,,,,,B,125,triangle,1,0,,,,,,,,,,,,,,,,repeat,number,numRpt,j,Lo,,,,,,0.5535,5,,,,,,,,low,9,0,9,0,1,,,,,,,,,
297280,2022-11-15_14h01.16.078,vts_reward_expectancy_bt,2022.2.4,Win32,59.95922773,Chrome,1707,1067,,,,,0,1229,,,,,,,,,,,,,,,,,F,174,hexagon,1,0,,,,,,,,,,,,,,,,repeat,number,numRpt,k,Hi,,,,,,1.4481,5,,,,,,,,low,10,0,10,0,1,,,,,,,,,
297280,2022-11-15_14h01.16.078,vts_reward_expectancy_bt,2022.2.4,Win32,59.95922773,Chrome,1707,1067,,,,,1,1230,,,,,,,,,,,,,,,,,U,139,star,1,0,,,,,,,,,,,,,,,,repeat,number,numRpt,j,Lo,,,,,,0.5504,5,,,,,,,,low,11,0,11,0,1,,,,,,,,,
297280,2022-11-15_14h01.16.078,vts_reward_expectancy_bt,2022.2.4,Win32,59.95922773,Chrome,1707,1067,,,,,0,1230,,,,,,,,,,,,,,,,,D,167,hexagon,1,0,,,,,,,,,,,,,,,,repeat,number,numRpt,k,Hi,,,,,,0.6514,5,,,,,,,,low,12,0,12,0,1,,,,,,,,,
297280,2022-11-15_14h01.16.078,vts_reward_expectancy_bt,2022.2.4,Win32,59.95922773,Chrome,1707,1067,,,,,1,1231,,,,,,,,,,,,,,,,,W,181,triangle,1,0,,,,,,,,,,,,,,,,repeat,number,numRpt,k,Lo,,,,,,0.4179,5,,,,,,,,low,13,0,13,0,1,,,,,,,,,
297280,2022-11-15_14h01.16.078,vts_reward_expectancy_bt,2022.2.4,Win32,59.95922773,Chrome,1707,1067,,,,,1,1232,,,,,,,,,,,,,,,,,Y,132,star,1,0,,,,,,,,,,,,,,,,repeat,number,numRpt,j,Lo,,,,,,0.3886,5,,,,,,,,low,14,0,14,0,1,,,,,,,,,
297280,2022-11-15_14h01.16.078,vts_reward_expectancy_bt,2022.2.4,Win32,59.95922773,Chrome,1707,1067,,,,,0,1232,,,,,,,,,,,,,,,,,S,160,circle,1,0,,,,,,,,,,,,,,,,repeat,number,numRpt,k,Hi,,,,,,0.6865,5,,,,,,,,low,15,0,15,0,1,,,,,,,,,
297280,2022-11-15_14h01.16.078,vts_reward_expectancy_bt,2022.2.4,Win32,59.95922773,Chrome,1707,1067,,,,,1,1233,,,,,,,,,,,,,,,,,F,139,hexagon,1,0,,,,,,,,,,,,,,,,repeat,number,numRpt,j,Hi,,,,,,0.4688,5,,,,,,,,low,16,0,16,0,1,,,,,,,,,
297280,2022-11-15_14h01.16.078,vts_reward_expectancy_bt,2022.2.4,Win32,59.95922773,Chrome,1707,1067,,,,,10,1243,,,,,,,,,,,,,,,,,U,181,star,1,0,,,,,,,,,,,,,,,,repeat,number,numRpt,k,Lo,,,,,,0.4536,5,,,,,,,,low,17,0,17,0,1,,,,,,,,,
297280,2022-11-15_14h01.16.078,vts_reward_expectancy_bt,2022.2.4,Win32,59.95922773,Chrome,1707,1067,,,,,1,1244,,,,,,,,,,,,,,,,,H,125,triangle,1,0,,,,,,,,,,,,,,,,repeat,number,numRpt,j,Lo,,,,,,0.6189,5,,,,,,,,low,18,0,18,0,1,,,,,,,,,
297280,2022-11-15_14h01.16.078,vts_reward_expectancy_bt,2022.2.4,Win32,59.95922773,Chrome,1707,1067,,,,,0,1244,,,,,,,,,,,,,,,,,B,146,circle,1,0,,,,,,,,,,,,,,,,repeat,number,numRpt,j,Hi,,,,,,0.5684,5,,,,,,,,low,19,0,19,0,1,,,,,,,,,
297280,2022-11-15_14h01.16.078,vts_reward_expectancy_bt,2022.2.4,Win32,59.95922773,Chrome,1707,1067,,,,,0,1244,,,,,,,,,,,,,,,,,W,167,hexagon,0,0,,,,,,,,,,,,,,,,repeat,number,NA,j,Hi,,,,,,0.4545,5,,,,,,,,low,20,0,20,0,1,,,,,,,,,
297280,2022-11-15_14h01.16.078,vts_reward_expectancy_bt,2022.2.4,Win32,59.95922773,Chrome,1707,1067,,,,,10,1254,,,,,,,,,,,,,,,,,Y,132,star,1,1,,,,,,,,,,,,,,,,repeat,number,numRpt,j,Lo,,,,,,0.8237,5,,,,,,,,low,21,0,21,0,1,,,,,,,,,
297280,2022-11-15_14h01.16.078,vts_reward_expectancy_bt,2022.2.4,Win32,59.95922773,Chrome,1707,1067,,,,,1,1255,,,,,,,,,,,,,,,,,D,174,triangle,1,0,,,,,,,,,,,,,,,,repeat,number,numRpt,k,Lo,,,,,,0.6316,5,,,,,,,,low,22,0,22,0,1,,,,,,,,,
297280,2022-11-15_14h01.16.078,vts_reward_expectancy_bt,2022.2.4,Win32,59.95922773,Chrome,1707,1067,,,,,0,1255,,,,,,,,,,,,,,,,,S,160,circle,0,0,,,,,,,,,,,,,,,,repeat,number,NA,j,Lo,,,,,,0.7127,5,,,,,,,,low,23,0,23,0,1,,,,,,,,,
297280,2022-11-15_14h01.16.078,vts_reward_expectancy_bt,2022.2.4,Win32,59.95922773,Chrome,1707,1067,,,,,10,1265,,,,,,,,,,,,,,,,,Y,174,hexagon,1,1,,,,,,,,,,,,,,,,repeat,number,numRpt,k,Hi,,,,,,0.4632,5,,,,,,,,low,24,0,24,0,1,,,,,,,,,
297280,2022-11-15_14h01.16.078,vts_reward_expectancy_bt,2022.2.4,Win32,59.95922773,Chrome,1707,1067,,,,,0,1265,,,,,,,,,,,,,,,,,D,167,circle,1,0,,,,,,,,,,,,,,,,repeat,number,numRpt,k,Hi,,,,,,0.6045,5,,,,,,,,low,25,0,25,0,1,,,,,,,,,
297280,2022-11-15_14h01.16.078,vts_reward_expectancy_bt,2022.2.4,Win32,59.95922773,Chrome,1707,1067,,,,,10,1275,,,,,,,,,,,,,,,,,H,160,star,1,0,,,,,,,,,,,,,,,,repeat,number,numRpt,k,Lo,,,,,,0.5215,5,,,,,,,,low,26,0,26,0,1,,,,,,,,,
297280,2022-11-15_14h01.16.078,vts_reward_expectancy_bt,2022.2.4,Win32,59.95922773,Chrome,1707,1067,,,,,1,1276,,,,,,,,,,,,,,,,,F,181,triangle,1,0,,,,,,,,,,,,,,,,repeat,number,numRpt,k,Lo,,,,,,0.8272,5,,,,,,,,low,27,0,27,0,1,,,,,,,,,
297280,2022-11-15_14h01.16.078,vts_reward_expectancy_bt,2022.2.4,Win32,59.95922773,Chrome,1707,1067,,,,,0,1276,,,,,,,,,,,,,,,,,W,125,circle,1,0,,,,,,,,,,,,,,,,repeat,number,numRpt,j,Hi,,,,,,0.6778,5,,,,,,,,low,28,0,28,0,1,,,,,,,,,
297280,2022-11-15_14h01.16.078,vts_reward_expectancy_bt,2022.2.4,Win32,59.95922773,Chrome,1707,1067,,,,,1,1277,,,,,,,,,,,,,,,,,S,132,triangle,1,0,,,,,,,,,,,,,,,,repeat,number,numRpt,j,Lo,,,,,,0.6579,5,,,,,,,,low,29,0,29,0,1,,,,,,,,,
297280,2022-11-15_14h01.16.078,vts_reward_expectancy_bt,2022.2.4,Win32,59.95922773,Chrome,1707,1067,,,,,0,1277,,,,,,,,,,,,,,,,,U,146,hexagon,1,0,,,,,,,,,,,,,,,,repeat,number,numRpt,j,Hi,,,,,,0.5616,5,,,,,,,,low,30,0,30,0,1,,,,,,,,,
297280,2022-11-15_14h01.16.078,vts_reward_expectancy_bt,2022.2.4,Win32,59.95922773,Chrome,1707,1067,,,,,10,1287,,,,,,,,,,,,,,,,,B,139,star,1,0,,,,,,,,,,,,,,,,repeat,number,numRpt,j,Lo,,,,,,0.7311,5,,,,,,,,low,31,0,31,0,1,,,,,,,,,
297280,2022-11-15_14h01.16.078,vts_reward_expectancy_bt,2022.2.4,Win32,59.95922773,Chrome,1707,1067,,,,,1,1288,,,,,,,,,,,,,,,,,W,174,hexagon,1,0,,,,,,,,,,,,,,,,repeat,number,numRpt,k,Hi,,,,,,0.5362,6,,,,,,space,2.7727,low,0,0,0,0,1,,,,,,,,,
297280,2022-11-15_14h01.16.078,vts_reward_expectancy_bt,2022.2.4,Win32,59.95922773,Chrome,1707,1067,,,,,10,1298,,,,,,,,,,,,,,,,,H,146,triangle,1,0,,,,,,,,,,,,,,,,repeat,number,numRpt,j,Lo,,,,,,0.6166,6,,,,,,,,low,1,0,1,0,1,,,,,,,,,
297280,2022-11-15_14h01.16.078,vts_reward_expectancy_bt,2022.2.4,Win32,59.95922773,Chrome,1707,1067,,,,,1,1299,,,,,,,,,,,,,,,,,S,181,star,1,0,,,,,,,,,,,,,,,,repeat,number,numRpt,k,Lo,,,,,,0.5053,6,,,,,,,,low,2,0,2,0,1,,,,,,,,,
297280,2022-11-15_14h01.16.078,vts_reward_expectancy_bt,2022.2.4,Win32,59.95922773,Chrome,1707,1067,,,,,0,1299,,,,,,,,,,,,,,,,,F,160,circle,1,0,,,,,,,,,,,,,,,,repeat,number,numRpt,k,Hi,,,,,,0.5884,6,,,,,,,,low,3,0,3,0,1,,,,,,,,,
297280,2022-11-15_14h01.16.078,vts_reward_expectancy_bt,2022.2.4,Win32,59.95922773,Chrome,1707,1067,,,,,1,1300,,,,,,,,,,,,,,,,,B,125,hexagon,1,0,,,,,,,,,,,,,,,,repeat,number,numRpt,j,Hi,,,,,,0.5443,6,,,,,,,,low,4,0,4,0,1,,,,,,,,,
297280,2022-11-15_14h01.16.078,vts_reward_expectancy_bt,2022.2.4,Win32,59.95922773,Chrome,1707,1067,,,,,1,1301,,,,,,,,,,,,,,,,,D,132,triangle,1,0,,,,,,,,,,,,,,,,repeat,number,numRpt,j,Lo,,,,,,0.6191,6,,,,,,,,low,5,0,5,0,1,,,,,,,,,
297280,2022-11-15_14h01.16.078,vts_reward_expectancy_bt,2022.2.4,Win32,59.95922773,Chrome,1707,1067,,,,,10,1311,,,,,,,,,,,,,,,,,Y,139,star,1,0,,,,,,,,,,,,,,,,repeat,number,numRpt,j,Lo,,,,,,0.4634,6,,,,,,,,low,6,0,6,0,1,,,,,,,,,
297280,2022-11-15_14h01.16.078,vts_reward_expectancy_bt,2022.2.4,Win32,59.95922773,Chrome,1707,1067,,,,,10,1321,,,,,,,,,,,,,,,,,U,167,circle,1,0,,,,,,,,,,,,,,,,repeat,number,numRpt,k,Hi,,,,,,0.4024,6,,,,,,,,low,7,0,7,0,1,,,,,,,,,
297280,2022-11-15_14h01.16.078,vts_reward_expectancy_bt,2022.2.4,Win32,59.95922773,Chrome,1707,1067,,,,,0,1321,,,,,,,,,,,,,,,,,W,174,circle,1,0,,,,,,,,,,,,,,,,repeat,number,numRpt,k,Hi,,,,,,0.5619,6,,,,,,,,low,8,0,8,0,1,,,,,,,,,
297280,2022-11-15_14h01.16.078,vts_reward_expectancy_bt,2022.2.4,Win32,59.95922773,Chrome,1707,1067,,,,,1,1322,,,,,,,,,,,,,,,,,H,146,triangle,1,0,,,,,,,,,,,,,,,,repeat,number,numRpt,j,Lo,,,,,,1.2052,6,,,,,,,,low,9,0,9,0,1,,,,,,,,,
297280,2022-11-15_14h01.16.078,vts_reward_expectancy_bt,2022.2.4,Win32,59.95922773,Chrome,1707,1067,,,,,0,1322,,,,,,,,,,,,,,,,,S,181,hexagon,1,0,,,,,,,,,,,,,,,,repeat,number,numRpt,k,Hi,,,,,,0.5626,6,,,,,,,,low,10,0,10,0,1,,,,,,,,,
297280,2022-11-15_14h01.16.078,vts_reward_expectancy_bt,2022.2.4,Win32,59.95922773,Chrome,1707,1067,,,,,1,1323,,,,,,,,,,,,,,,,,F,160,star,1,0,,,,,,,,,,,,,,,,repeat,number,numRpt,k,Lo,,,,,,0.6112,6,,,,,,,,low,11,0,11,0,1,,,,,,,,,
297280,2022-11-15_14h01.16.078,vts_reward_expectancy_bt,2022.2.4,Win32,59.95922773,Chrome,1707,1067,,,,,1,1324,,,,,,,,,,,,,,,,,B,125,star,1,0,,,,,,,,,,,,,,,,repeat,number,numRpt,j,Lo,,,,,,0.5781,6,,,,,,,,low,12,0,12,0,1,,,,,,,,,
297280,2022-11-15_14h01.16.078,vts_reward_expectancy_bt,2022.2.4,Win32,59.95922773,Chrome,1707,1067,,,,,10,1334,,,,,,,,,,,,,,,,,D,132,hexagon,1,0,,,,,,,,,,,,,,,,repeat,number,numRpt,j,Hi,,,,,,0.4853,6,,,,,,,,low,13,0,13,0,1,,,,,,,,,
297280,2022-11-15_14h01.16.078,vts_reward_expectancy_bt,2022.2.4,Win32,59.95922773,Chrome,1707,1067,,,,,0,1334,,,,,,,,,,,,,,,,,Y,139,circle,1,0,,,,,,,,,,,,,,,,repeat,number,numRpt,j,Hi,,,,,,0.5693,6,,,,,,,,low,14,0,14,0,1,,,,,,,,,
