participant,date,expName,psychopyVersion,OS,frameRate,browser,xResolution,yResolution,key_resp.keys,key_resp.rt,training_resp.keys,training_resp.rt,points_trial,points_cumul,trainBlock,training.thisRepN,training.thisTrialN,training.thisN,training.thisIndex,training.ran,LTriangleOpac,LCircleOpac,LHexagonOpac,LStarOpac,RTriangleOpac,RCircleOpac,RHexagonOpac,RStarOpac,LShape_ID,RShape_ID,curr_topStim,curr_bottStim,curr_shape,acc,E1,target_resp_prac1.keys,pracBlock,task1_prac_trials.thisRepN,task1_prac_trials.thisTrialN,task1_prac_trials.thisN,task1_prac_trials.thisIndex,task1_prac_trials.ran,target_resp_prac1.rt,target_resp_prac2.keys,target_resp_prac2.rt,task2_praac_trials.thisRepN,task2_praac_trials.thisTrialN,task2_praac_trials.thisN,task2_praac_trials.thisIndex,task2_praac_trials.ran,alt,task,condition,target_resp.keys,target_resp.rt,rewCond,vts_practice_trials.thisRepN,vts_practice_trials.thisTrialN,vts_practice_trials.thisN,vts_practice_trials.thisIndex,vts_practice_trials.ran,blockNum,trials_norew.thisRepN,trials_norew.thisTrialN,trials_norew.thisN,trials_norew.thisIndex,trials_norew.ran,key_resp_2.keys,key_resp_2.rt,rewExpectancy,trials_rew.thisRepN,trials_rew.thisTrialN,trials_rew.thisN,trials_rew.thisIndex,trials_rew.ran,Q1,Q2,Q2_text,Q3,Q4,Q5_text,Q5,xRes,yRes
297205,2022-12-05_13h00.23.035,vts_reward_expectancy_bt,2022.2.4,Win32,59.7193192,Chrome,1504,1003,,,,,,,,,,,,,,,,,,,,,,,,,,,,,,,,,,,,,,,,,,,,,,,,,,,,,,,,,,,,,,,,,,,,,,,,,,,,
297205,2022-12-05_13h00.23.035,vts_reward_expectancy_bt,2022.2.4,Win32,59.7193192,Chrome,1504,1003,space,14.1973,,,,,,,,,,,,,,,,,,,,,,,,,,,,,,,,,,,,,,,,,,,,,,,,,,,,,,,,,,,,,,,,,,,,,,,,,,
297205,2022-12-05_13h00.23.035,vts_reward_expectancy_bt,2022.2.4,Win32,59.7193192,Chrome,1504,1003,,,,,,,,,,,,,,,,,,,,,,,,,,,,,,,,,,,,,,,,,,,,,,,,,,,,,,,,,,,,,,,,,,,,,,,,,,,,
297205,2022-12-05_13h00.23.035,vts_reward_expectancy_bt,2022.2.4,Win32,59.7193192,Chrome,1504,1003,,,a,1.4861,1,1,0,0,0,0,7,1,0,0,1,0,0,1,0,0,hexagon,circle,,,,,,,,,,,,,,,,,,,,,,,,,,,,,,,,,,,,,,,,,,,,,,,,,,,,,,
297205,2022-12-05_13h00.23.035,vts_reward_expectancy_bt,2022.2.4,Win32,59.7193192,Chrome,1504,1003,,,a,2.2261,10,11,0,0,1,1,11,1,0,0,0,1,0,0,1,0,star,hexagon,,,,,,,,,,,,,,,,,,,,,,,,,,,,,,,,,,,,,,,,,,,,,,,,,,,,,,
297205,2022-12-05_13h00.23.035,vts_reward_expectancy_bt,2022.2.4,Win32,59.7193192,Chrome,1504,1003,,,a,2.5357,1,12,0,0,2,2,1,1,1,0,0,0,0,0,1,0,triangle,hexagon,,,,,,,,,,,,,,,,,,,,,,,,,,,,,,,,,,,,,,,,,,,,,,,,,,,,,,
297205,2022-12-05_13h00.23.035,vts_reward_expectancy_bt,2022.2.4,Win32,59.7193192,Chrome,1504,1003,,,a,2.2692,1,13,0,0,3,3,3,1,0,1,0,0,1,0,0,0,circle,triangle,,,,,,,,,,,,,,,,,,,,,,,,,,,,,,,,,,,,,,,,,,,,,,,,,,,,,,
297205,2022-12-05_13h00.23.035,vts_reward_expectancy_bt,2022.2.4,Win32,59.7193192,Chrome,1504,1003,,,l,1.4151,10,23,0,0,4,4,2,1,1,0,0,0,0,0,0,1,triangle,star,,,,,,,,,,,,,,,,,,,,,,,,,,,,,,,,,,,,,,,,,,,,,,,,,,,,,,
297205,2022-12-05_13h00.23.035,vts_reward_expectancy_bt,2022.2.4,Win32,59.7193192,Chrome,1504,1003,,,l,0.9291,10,33,0,0,5,5,5,1,0,1,0,0,0,0,0,1,circle,star,,,,,,,,,,,,,,,,,,,,,,,,,,,,,,,,,,,,,,,,,,,,,,,,,,,,,,
297205,2022-12-05_13h00.23.035,vts_reward_expectancy_bt,2022.2.4,Win32,59.7193192,Chrome,1504,1003,,,a,1.1179,1,34,0,0,6,6,0,1,1,0,0,0,0,1,0,0,triangle,circle,,,,,,,,,,,,,,,,,,,,,,,,,,,,,,,,,,,,,,,,,,,,,,,,,,,,,,
297205,2022-12-05_13h00.23.035,vts_reward_expectancy_bt,2022.2.4,Win32,59.7193192,Chrome,1504,1003,,,a,1.0961,1,35,0,0,7,7,4,1,0,1,0,0,0,0,1,0,circle,hexagon,,,,,,,,,,,,,,,,,,,,,,,,,,,,,,,,,,,,,,,,,,,,,,,,,,,,,,
297205,2022-12-05_13h00.23.035,vts_reward_expectancy_bt,2022.2.4,Win32,59.7193192,Chrome,1504,1003,,,a,0.5168,1,36,0,0,8,8,10,1,0,0,0,1,0,1,0,0,star ,circle,,,,,,,,,,,,,,,,,,,,,,,,,,,,,,,,,,,,,,,,,,,,,,,,,,,,,,
297205,2022-12-05_13h00.23.035,vts_reward_expectancy_bt,2022.2.4,Win32,59.7193192,Chrome,1504,1003,,,a,0.7335,10,46,0,0,9,9,9,1,0,0,0,1,1,0,0,0,star,triangle,,,,,,,,,,,,,,,,,,,,,,,,,,,,,,,,,,,,,,,,,,,,,,,,,,,,,,
297205,2022-12-05_13h00.23.035,vts_reward_expectancy_bt,2022.2.4,Win32,59.7193192,Chrome,1504,1003,,,l,0.8841,10,56,0,0,10,10,8,1,0,0,1,0,0,0,0,1,hexagon,star,,,,,,,,,,,,,,,,,,,,,,,,,,,,,,,,,,,,,,,,,,,,,,,,,,,,,,
297205,2022-12-05_13h00.23.035,vts_reward_expectancy_bt,2022.2.4,Win32,59.7193192,Chrome,1504,1003,,,a,1.3514,10,66,0,0,11,11,6,1,0,0,1,0,1,0,0,0,hexagon,triangle,,,,,,,,,,,,,,,,,,,,,,,,,,,,,,,,,,,,,,,,,,,,,,,,,,,,,,
297205,2022-12-05_13h00.23.035,vts_reward_expectancy_bt,2022.2.4,Win32,59.7193192,Chrome,1504,1003,,,l,1.3852,10,76,0,1,0,12,5,1,0,1,0,0,0,0,0,1,circle,star,,,,,,,,,,,,,,,,,,,,,,,,,,,,,,,,,,,,,,,,,,,,,,,,,,,,,,
297205,2022-12-05_13h00.23.035,vts_reward_expectancy_bt,2022.2.4,Win32,59.7193192,Chrome,1504,1003,,,a,1.24,1,77,0,1,1,13,3,1,0,1,0,0,1,0,0,0,circle,triangle,,,,,,,,,,,,,,,,,,,,,,,,,,,,,,,,,,,,,,,,,,,,,,,,,,,,,,
297205,2022-12-05_13h00.23.035,vts_reward_expectancy_bt,2022.2.4,Win32,59.7193192,Chrome,1504,1003,,,a,1.0674,1,78,0,1,2,14,0,1,1,0,0,0,0,1,0,0,triangle,circle,,,,,,,,,,,,,,,,,,,,,,,,,,,,,,,,,,,,,,,,,,,,,,,,,,,,,,
297205,2022-12-05_13h00.23.035,vts_reward_expectancy_bt,2022.2.4,Win32,59.7193192,Chrome,1504,1003,,,a,0.8487,10,88,0,1,3,15,11,1,0,0,0,1,0,0,1,0,star,hexagon,,,,,,,,,,,,,,,,,,,,,,,,,,,,,,,,,,,,,,,,,,,,,,,,,,,,,,
297205,2022-12-05_13h00.23.035,vts_reward_expectancy_bt,2022.2.4,Win32,59.7193192,Chrome,1504,1003,,,a,0.8341,1,89,0,1,4,16,6,1,0,0,1,0,1,0,0,0,hexagon,triangle,,,,,,,,,,,,,,,,,,,,,,,,,,,,,,,,,,,,,,,,,,,,,,,,,,,,,,
297205,2022-12-05_13h00.23.035,vts_reward_expectancy_bt,2022.2.4,Win32,59.7193192,Chrome,1504,1003,,,l,0.7507,10,99,0,1,5,17,2,1,1,0,0,0,0,0,0,1,triangle,star,,,,,,,,,,,,,,,,,,,,,,,,,,,,,,,,,,,,,,,,,,,,,,,,,,,,,,
297205,2022-12-05_13h00.23.035,vts_reward_expectancy_bt,2022.2.4,Win32,59.7193192,Chrome,1504,1003,,,l,0.9008,1,100,0,1,6,18,1,1,1,0,0,0,0,0,1,0,triangle,hexagon,,,,,,,,,,,,,,,,,,,,,,,,,,,,,,,,,,,,,,,,,,,,,,,,,,,,,,
297205,2022-12-05_13h00.23.035,vts_reward_expectancy_bt,2022.2.4,Win32,59.7193192,Chrome,1504,1003,,,l,1.3301,10,110,0,1,7,19,4,1,0,1,0,0,0,0,1,0,circle,hexagon,,,,,,,,,,,,,,,,,,,,,,,,,,,,,,,,,,,,,,,,,,,,,,,,,,,,,,
297205,2022-12-05_13h00.23.035,vts_reward_expectancy_bt,2022.2.4,Win32,59.7193192,Chrome,1504,1003,,,a,0.5686,10,120,0,1,8,20,10,1,0,0,0,1,0,1,0,0,star ,circle,,,,,,,,,,,,,,,,,,,,,,,,,,,,,,,,,,,,,,,,,,,,,,,,,,,,,,
297205,2022-12-05_13h00.23.035,vts_reward_expectancy_bt,2022.2.4,Win32,59.7193192,Chrome,1504,1003,,,a,0.7212,10,130,0,1,9,21,9,1,0,0,0,1,1,0,0,0,star,triangle,,,,,,,,,,,,,,,,,,,,,,,,,,,,,,,,,,,,,,,,,,,,,,,,,,,,,,
297205,2022-12-05_13h00.23.035,vts_reward_expectancy_bt,2022.2.4,Win32,59.7193192,Chrome,1504,1003,,,l,0.6563,10,140,0,1,10,22,8,1,0,0,1,0,0,0,0,1,hexagon,star,,,,,,,,,,,,,,,,,,,,,,,,,,,,,,,,,,,,,,,,,,,,,,,,,,,,,,
297205,2022-12-05_13h00.23.035,vts_reward_expectancy_bt,2022.2.4,Win32,59.7193192,Chrome,1504,1003,,,a,0.8911,10,150,0,1,11,23,7,1,0,0,1,0,0,1,0,0,hexagon,circle,,,,,,,,,,,,,,,,,,,,,,,,,,,,,,,,,,,,,,,,,,,,,,,,,,,,,,
297205,2022-12-05_13h00.23.035,vts_reward_expectancy_bt,2022.2.4,Win32,59.7193192,Chrome,1504,1003,,,a,0.6001,10,160,0,2,0,24,6,1,0,0,1,0,1,0,0,0,hexagon,triangle,,,,,,,,,,,,,,,,,,,,,,,,,,,,,,,,,,,,,,,,,,,,,,,,,,,,,,
297205,2022-12-05_13h00.23.035,vts_reward_expectancy_bt,2022.2.4,Win32,59.7193192,Chrome,1504,1003,,,a,0.5302,10,170,0,2,1,25,9,1,0,0,0,1,1,0,0,0,star,triangle,,,,,,,,,,,,,,,,,,,,,,,,,,,,,,,,,,,,,,,,,,,,,,,,,,,,,,
297205,2022-12-05_13h00.23.035,vts_reward_expectancy_bt,2022.2.4,Win32,59.7193192,Chrome,1504,1003,,,a,0.4376,10,180,0,2,2,26,11,1,0,0,0,1,0,0,1,0,star,hexagon,,,,,,,,,,,,,,,,,,,,,,,,,,,,,,,,,,,,,,,,,,,,,,,,,,,,,,
297205,2022-12-05_13h00.23.035,vts_reward_expectancy_bt,2022.2.4,Win32,59.7193192,Chrome,1504,1003,,,l,0.968,10,190,0,2,3,27,8,1,0,0,1,0,0,0,0,1,hexagon,star,,,,,,,,,,,,,,,,,,,,,,,,,,,,,,,,,,,,,,,,,,,,,,,,,,,,,,
297205,2022-12-05_13h00.23.035,vts_reward_expectancy_bt,2022.2.4,Win32,59.7193192,Chrome,1504,1003,,,l,1.2921,10,200,0,2,4,28,4,1,0,1,0,0,0,0,1,0,circle,hexagon,,,,,,,,,,,,,,,,,,,,,,,,,,,,,,,,,,,,,,,,,,,,,,,,,,,,,,
297205,2022-12-05_13h00.23.035,vts_reward_expectancy_bt,2022.2.4,Win32,59.7193192,Chrome,1504,1003,,,l,0.8825,10,210,0,2,5,29,0,1,1,0,0,0,0,1,0,0,triangle,circle,,,,,,,,,,,,,,,,,,,,,,,,,,,,,,,,,,,,,,,,,,,,,,,,,,,,,,
297205,2022-12-05_13h00.23.035,vts_reward_expectancy_bt,2022.2.4,Win32,59.7193192,Chrome,1504,1003,,,a,1.051,10,220,0,2,6,30,7,1,0,0,1,0,0,1,0,0,hexagon,circle,,,,,,,,,,,,,,,,,,,,,,,,,,,,,,,,,,,,,,,,,,,,,,,,,,,,,,
297205,2022-12-05_13h00.23.035,vts_reward_expectancy_bt,2022.2.4,Win32,59.7193192,Chrome,1504,1003,,,a,0.6225,10,230,0,2,7,31,10,1,0,0,0,1,0,1,0,0,star ,circle,,,,,,,,,,,,,,,,,,,,,,,,,,,,,,,,,,,,,,,,,,,,,,,,,,,,,,
297205,2022-12-05_13h00.23.035,vts_reward_expectancy_bt,2022.2.4,Win32,59.7193192,Chrome,1504,1003,,,l,0.668,10,240,0,2,8,32,1,1,1,0,0,0,0,0,1,0,triangle,hexagon,,,,,,,,,,,,,,,,,,,,,,,,,,,,,,,,,,,,,,,,,,,,,,,,,,,,,,
297205,2022-12-05_13h00.23.035,vts_reward_expectancy_bt,2022.2.4,Win32,59.7193192,Chrome,1504,1003,,,l,0.5752,1,241,0,2,9,33,2,1,1,0,0,0,0,0,0,1,triangle,star,,,,,,,,,,,,,,,,,,,,,,,,,,,,,,,,,,,,,,,,,,,,,,,,,,,,,,
297205,2022-12-05_13h00.23.035,vts_reward_expectancy_bt,2022.2.4,Win32,59.7193192,Chrome,1504,1003,,,a,0.9567,1,242,0,2,10,34,3,1,0,1,0,0,1,0,0,0,circle,triangle,,,,,,,,,,,,,,,,,,,,,,,,,,,,,,,,,,,,,,,,,,,,,,,,,,,,,,
297205,2022-12-05_13h00.23.035,vts_reward_expectancy_bt,2022.2.4,Win32,59.7193192,Chrome,1504,1003,,,l,0.6682,10,252,0,2,11,35,5,1,0,1,0,0,0,0,0,1,circle,star,,,,,,,,,,,,,,,,,,,,,,,,,,,,,,,,,,,,,,,,,,,,,,,,,,,,,,
297205,2022-12-05_13h00.23.035,vts_reward_expectancy_bt,2022.2.4,Win32,59.7193192,Chrome,1504,1003,,,l,0.6237,10,262,1,0,0,0,8,1,0,0,1,0,0,0,0,1,hexagon,star,,,,,,,,,,,,,,,,,,,,,,,,,,,,,,,,,,,,,,,,,,,,,,,,,,,,,,
297205,2022-12-05_13h00.23.035,vts_reward_expectancy_bt,2022.2.4,Win32,59.7193192,Chrome,1504,1003,,,l,0.5806,10,272,1,0,1,1,5,1,0,1,0,0,0,0,0,1,circle,star,,,,,,,,,,,,,,,,,,,,,,,,,,,,,,,,,,,,,,,,,,,,,,,,,,,,,,
297205,2022-12-05_13h00.23.035,vts_reward_expectancy_bt,2022.2.4,Win32,59.7193192,Chrome,1504,1003,,,l,0.8396,10,282,1,0,2,2,4,1,0,1,0,0,0,0,1,0,circle,hexagon,,,,,,,,,,,,,,,,,,,,,,,,,,,,,,,,,,,,,,,,,,,,,,,,,,,,,,
297205,2022-12-05_13h00.23.035,vts_reward_expectancy_bt,2022.2.4,Win32,59.7193192,Chrome,1504,1003,,,a,0.6408,10,292,1,0,3,3,11,1,0,0,0,1,0,0,1,0,star,hexagon,,,,,,,,,,,,,,,,,,,,,,,,,,,,,,,,,,,,,,,,,,,,,,,,,,,,,,
297205,2022-12-05_13h00.23.035,vts_reward_expectancy_bt,2022.2.4,Win32,59.7193192,Chrome,1504,1003,,,l,0.9889,10,302,1,0,4,4,1,1,1,0,0,0,0,0,1,0,triangle,hexagon,,,,,,,,,,,,,,,,,,,,,,,,,,,,,,,,,,,,,,,,,,,,,,,,,,,,,,
297205,2022-12-05_13h00.23.035,vts_reward_expectancy_bt,2022.2.4,Win32,59.7193192,Chrome,1504,1003,,,a,0.5016,10,312,1,0,5,5,9,1,0,0,0,1,1,0,0,0,star,triangle,,,,,,,,,,,,,,,,,,,,,,,,,,,,,,,,,,,,,,,,,,,,,,,,,,,,,,
297205,2022-12-05_13h00.23.035,vts_reward_expectancy_bt,2022.2.4,Win32,59.7193192,Chrome,1504,1003,,,a,0.7186,1,313,1,0,6,6,7,1,0,0,1,0,0,1,0,0,hexagon,circle,,,,,,,,,,,,,,,,,,,,,,,,,,,,,,,,,,,,,,,,,,,,,,,,,,,,,,
297205,2022-12-05_13h00.23.035,vts_reward_expectancy_bt,2022.2.4,Win32,59.7193192,Chrome,1504,1003,,,a,0.6913,1,314,1,0,7,7,6,1,0,0,1,0,1,0,0,0,hexagon,triangle,,,,,,,,,,,,,,,,,,,,,,,,,,,,,,,,,,,,,,,,,,,,,,,,,,,,,,
297205,2022-12-05_13h00.23.035,vts_reward_expectancy_bt,2022.2.4,Win32,59.7193192,Chrome,1504,1003,,,l,0.5342,10,324,1,0,8,8,2,1,1,0,0,0,0,0,0,1,triangle,star,,,,,,,,,,,,,,,,,,,,,,,,,,,,,,,,,,,,,,,,,,,,,,,,,,,,,,
297205,2022-12-05_13h00.23.035,vts_reward_expectancy_bt,2022.2.4,Win32,59.7193192,Chrome,1504,1003,,,l,1.2178,1,325,1,0,9,9,0,1,1,0,0,0,0,1,0,0,triangle,circle,,,,,,,,,,,,,,,,,,,,,,,,,,,,,,,,,,,,,,,,,,,,,,,,,,,,,,
297205,2022-12-05_13h00.23.035,vts_reward_expectancy_bt,2022.2.4,Win32,59.7193192,Chrome,1504,1003,,,a,1.5009,1,326,1,0,10,10,3,1,0,1,0,0,1,0,0,0,circle,triangle,,,,,,,,,,,,,,,,,,,,,,,,,,,,,,,,,,,,,,,,,,,,,,,,,,,,,,
297205,2022-12-05_13h00.23.035,vts_reward_expectancy_bt,2022.2.4,Win32,59.7193192,Chrome,1504,1003,,,a,0.6347,1,327,1,0,11,11,10,1,0,0,0,1,0,1,0,0,star ,circle,,,,,,,,,,,,,,,,,,,,,,,,,,,,,,,,,,,,,,,,,,,,,,,,,,,,,,
297205,2022-12-05_13h00.23.035,vts_reward_expectancy_bt,2022.2.4,Win32,59.7193192,Chrome,1504,1003,,,l,0.5179,10,337,1,1,0,12,2,1,1,0,0,0,0,0,0,1,triangle,star,,,,,,,,,,,,,,,,,,,,,,,,,,,,,,,,,,,,,,,,,,,,,,,,,,,,,,
297205,2022-12-05_13h00.23.035,vts_reward_expectancy_bt,2022.2.4,Win32,59.7193192,Chrome,1504,1003,,,l,0.5499,10,347,1,1,1,13,5,1,0,1,0,0,0,0,0,1,circle,star,,,,,,,,,,,,,,,,,,,,,,,,,,,,,,,,,,,,,,,,,,,,,,,,,,,,,,
297205,2022-12-05_13h00.23.035,vts_reward_expectancy_bt,2022.2.4,Win32,59.7193192,Chrome,1504,1003,,,l,0.5928,10,357,1,1,2,14,8,1,0,0,1,0,0,0,0,1,hexagon,star,,,,,,,,,,,,,,,,,,,,,,,,,,,,,,,,,,,,,,,,,,,,,,,,,,,,,,
297205,2022-12-05_13h00.23.035,vts_reward_expectancy_bt,2022.2.4,Win32,59.7193192,Chrome,1504,1003,,,a,0.6143,10,367,1,1,3,15,7,1,0,0,1,0,0,1,0,0,hexagon,circle,,,,,,,,,,,,,,,,,,,,,,,,,,,,,,,,,,,,,,,,,,,,,,,,,,,,,,
297205,2022-12-05_13h00.23.035,vts_reward_expectancy_bt,2022.2.4,Win32,59.7193192,Chrome,1504,1003,,,l,0.6151,10,377,1,1,4,16,4,1,0,1,0,0,0,0,1,0,circle,hexagon,,,,,,,,,,,,,,,,,,,,,,,,,,,,,,,,,,,,,,,,,,,,,,,,,,,,,,
297205,2022-12-05_13h00.23.035,vts_reward_expectancy_bt,2022.2.4,Win32,59.7193192,Chrome,1504,1003,,,a,0.4178,10,387,1,1,5,17,10,1,0,0,0,1,0,1,0,0,star ,circle,,,,,,,,,,,,,,,,,,,,,,,,,,,,,,,,,,,,,,,,,,,,,,,,,,,,,,
297205,2022-12-05_13h00.23.035,vts_reward_expectancy_bt,2022.2.4,Win32,59.7193192,Chrome,1504,1003,,,l,0.6075,10,397,1,1,6,18,1,1,1,0,0,0,0,0,1,0,triangle,hexagon,,,,,,,,,,,,,,,,,,,,,,,,,,,,,,,,,,,,,,,,,,,,,,,,,,,,,,
297205,2022-12-05_13h00.23.035,vts_reward_expectancy_bt,2022.2.4,Win32,59.7193192,Chrome,1504,1003,,,a,0.4182,10,407,1,1,7,19,9,1,0,0,0,1,1,0,0,0,star,triangle,,,,,,,,,,,,,,,,,,,,,,,,,,,,,,,,,,,,,,,,,,,,,,,,,,,,,,
297205,2022-12-05_13h00.23.035,vts_reward_expectancy_bt,2022.2.4,Win32,59.7193192,Chrome,1504,1003,,,a,0.4235,10,417,1,1,8,20,11,1,0,0,0,1,0,0,1,0,star,hexagon,,,,,,,,,,,,,,,,,,,,,,,,,,,,,,,,,,,,,,,,,,,,,,,,,,,,,,
297205,2022-12-05_13h00.23.035,vts_reward_expectancy_bt,2022.2.4,Win32,59.7193192,Chrome,1504,1003,,,a,1.4342,1,418,1,1,9,21,3,1,0,1,0,0,1,0,0,0,circle,triangle,,,,,,,,,,,,,,,,,,,,,,,,,,,,,,,,,,,,,,,,,,,,,,,,,,,,,,
297205,2022-12-05_13h00.23.035,vts_reward_expectancy_bt,2022.2.4,Win32,59.7193192,Chrome,1504,1003,,,a,0.6786,10,428,1,1,10,22,6,1,0,0,1,0,1,0,0,0,hexagon,triangle,,,,,,,,,,,,,,,,,,,,,,,,,,,,,,,,,,,,,,,,,,,,,,,,,,,,,,
297205,2022-12-05_13h00.23.035,vts_reward_expectancy_bt,2022.2.4,Win32,59.7193192,Chrome,1504,1003,,,l,0.7339,1,429,1,1,11,23,0,1,1,0,0,0,0,1,0,0,triangle,circle,,,,,,,,,,,,,,,,,,,,,,,,,,,,,,,,,,,,,,,,,,,,,,,,,,,,,,
297205,2022-12-05_13h00.23.035,vts_reward_expectancy_bt,2022.2.4,Win32,59.7193192,Chrome,1504,1003,,,l,0.9389,1,430,1,2,0,24,3,1,0,1,0,0,1,0,0,0,circle,triangle,,,,,,,,,,,,,,,,,,,,,,,,,,,,,,,,,,,,,,,,,,,,,,,,,,,,,,
297205,2022-12-05_13h00.23.035,vts_reward_expectancy_bt,2022.2.4,Win32,59.7193192,Chrome,1504,1003,,,a,0.6567,10,440,1,2,1,25,7,1,0,0,1,0,0,1,0,0,hexagon,circle,,,,,,,,,,,,,,,,,,,,,,,,,,,,,,,,,,,,,,,,,,,,,,,,,,,,,,
297205,2022-12-05_13h00.23.035,vts_reward_expectancy_bt,2022.2.4,Win32,59.7193192,Chrome,1504,1003,,,l,0.5647,1,441,1,2,2,26,2,1,1,0,0,0,0,0,0,1,triangle,star,,,,,,,,,,,,,,,,,,,,,,,,,,,,,,,,,,,,,,,,,,,,,,,,,,,,,,
297205,2022-12-05_13h00.23.035,vts_reward_expectancy_bt,2022.2.4,Win32,59.7193192,Chrome,1504,1003,,,a,0.4472,10,451,1,2,3,27,11,1,0,0,0,1,0,0,1,0,star,hexagon,,,,,,,,,,,,,,,,,,,,,,,,,,,,,,,,,,,,,,,,,,,,,,,,,,,,,,
297205,2022-12-05_13h00.23.035,vts_reward_expectancy_bt,2022.2.4,Win32,59.7193192,Chrome,1504,1003,,,l,0.7837,10,461,1,2,4,28,4,1,0,1,0,0,0,0,1,0,circle,hexagon,,,,,,,,,,,,,,,,,,,,,,,,,,,,,,,,,,,,,,,,,,,,,,,,,,,,,,
297205,2022-12-05_13h00.23.035,vts_reward_expectancy_bt,2022.2.4,Win32,59.7193192,Chrome,1504,1003,,,a,1.201,1,462,1,2,5,29,0,1,1,0,0,0,0,1,0,0,triangle,circle,,,,,,,,,,,,,,,,,,,,,,,,,,,,,,,,,,,,,,,,,,,,,,,,,,,,,,
297205,2022-12-05_13h00.23.035,vts_reward_expectancy_bt,2022.2.4,Win32,59.7193192,Chrome,1504,1003,,,l,1.083,1,463,1,2,6,30,8,1,0,0,1,0,0,0,0,1,hexagon,star,,,,,,,,,,,,,,,,,,,,,,,,,,,,,,,,,,,,,,,,,,,,,,,,,,,,,,
297205,2022-12-05_13h00.23.035,vts_reward_expectancy_bt,2022.2.4,Win32,59.7193192,Chrome,1504,1003,,,a,0.4907,10,473,1,2,7,31,9,1,0,0,0,1,1,0,0,0,star,triangle,,,,,,,,,,,,,,,,,,,,,,,,,,,,,,,,,,,,,,,,,,,,,,,,,,,,,,
297205,2022-12-05_13h00.23.035,vts_reward_expectancy_bt,2022.2.4,Win32,59.7193192,Chrome,1504,1003,,,a,0.8526,10,483,1,2,8,32,6,1,0,0,1,0,1,0,0,0,hexagon,triangle,,,,,,,,,,,,,,,,,,,,,,,,,,,,,,,,,,,,,,,,,,,,,,,,,,,,,,
297205,2022-12-05_13h00.23.035,vts_reward_expectancy_bt,2022.2.4,Win32,59.7193192,Chrome,1504,1003,,,l,0.6679,10,493,1,2,9,33,1,1,1,0,0,0,0,0,1,0,triangle,hexagon,,,,,,,,,,,,,,,,,,,,,,,,,,,,,,,,,,,,,,,,,,,,,,,,,,,,,,
297205,2022-12-05_13h00.23.035,vts_reward_expectancy_bt,2022.2.4,Win32,59.7193192,Chrome,1504,1003,,,l,0.6512,10,503,1,2,10,34,5,1,0,1,0,0,0,0,0,1,circle,star,,,,,,,,,,,,,,,,,,,,,,,,,,,,,,,,,,,,,,,,,,,,,,,,,,,,,,
297205,2022-12-05_13h00.23.035,vts_reward_expectancy_bt,2022.2.4,Win32,59.7193192,Chrome,1504,1003,,,a,0.4659,10,513,1,2,11,35,10,1,0,0,0,1,0,1,0,0,star ,circle,,,,,,,,,,,,,,,,,,,,,,,,,,,,,,,,,,,,,,,,,,,,,,,,,,,,,,
297205,2022-12-05_13h00.23.035,vts_reward_expectancy_bt,2022.2.4,Win32,59.7193192,Chrome,1504,1003,,,l,1.0705,1,514,2,0,0,0,1,1,1,0,0,0,0,0,1,0,triangle,hexagon,,,,,,,,,,,,,,,,,,,,,,,,,,,,,,,,,,,,,,,,,,,,,,,,,,,,,,
297205,2022-12-05_13h00.23.035,vts_reward_expectancy_bt,2022.2.4,Win32,59.7193192,Chrome,1504,1003,,,a,0.4717,10,524,2,0,1,1,9,1,0,0,0,1,1,0,0,0,star,triangle,,,,,,,,,,,,,,,,,,,,,,,,,,,,,,,,,,,,,,,,,,,,,,,,,,,,,,
297205,2022-12-05_13h00.23.035,vts_reward_expectancy_bt,2022.2.4,Win32,59.7193192,Chrome,1504,1003,,,l,0.4912,10,534,2,0,2,2,5,1,0,1,0,0,0,0,0,1,circle,star,,,,,,,,,,,,,,,,,,,,,,,,,,,,,,,,,,,,,,,,,,,,,,,,,,,,,,
297205,2022-12-05_13h00.23.035,vts_reward_expectancy_bt,2022.2.4,Win32,59.7193192,Chrome,1504,1003,,,l,0.9348,10,544,2,0,3,3,4,1,0,1,0,0,0,0,1,0,circle,hexagon,,,,,,,,,,,,,,,,,,,,,,,,,,,,,,,,,,,,,,,,,,,,,,,,,,,,,,
297205,2022-12-05_13h00.23.035,vts_reward_expectancy_bt,2022.2.4,Win32,59.7193192,Chrome,1504,1003,,,l,0.9652,1,545,2,0,4,4,0,1,1,0,0,0,0,1,0,0,triangle,circle,,,,,,,,,,,,,,,,,,,,,,,,,,,,,,,,,,,,,,,,,,,,,,,,,,,,,,
297205,2022-12-05_13h00.23.035,vts_reward_expectancy_bt,2022.2.4,Win32,59.7193192,Chrome,1504,1003,,,a,0.4676,1,546,2,0,5,5,11,1,0,0,0,1,0,0,1,0,star,hexagon,,,,,,,,,,,,,,,,,,,,,,,,,,,,,,,,,,,,,,,,,,,,,,,,,,,,,,
297205,2022-12-05_13h00.23.035,vts_reward_expectancy_bt,2022.2.4,Win32,59.7193192,Chrome,1504,1003,,,l,0.5414,10,556,2,0,6,6,2,1,1,0,0,0,0,0,0,1,triangle,star,,,,,,,,,,,,,,,,,,,,,,,,,,,,,,,,,,,,,,,,,,,,,,,,,,,,,,
297205,2022-12-05_13h00.23.035,vts_reward_expectancy_bt,2022.2.4,Win32,59.7193192,Chrome,1504,1003,,,a,0.8023,10,566,2,0,7,7,10,1,0,0,0,1,0,1,0,0,star ,circle,,,,,,,,,,,,,,,,,,,,,,,,,,,,,,,,,,,,,,,,,,,,,,,,,,,,,,
297205,2022-12-05_13h00.23.035,vts_reward_expectancy_bt,2022.2.4,Win32,59.7193192,Chrome,1504,1003,,,l,0.4733,10,576,2,0,8,8,8,1,0,0,1,0,0,0,0,1,hexagon,star,,,,,,,,,,,,,,,,,,,,,,,,,,,,,,,,,,,,,,,,,,,,,,,,,,,,,,
297205,2022-12-05_13h00.23.035,vts_reward_expectancy_bt,2022.2.4,Win32,59.7193192,Chrome,1504,1003,,,a,0.7783,10,586,2,0,9,9,6,1,0,0,1,0,1,0,0,0,hexagon,triangle,,,,,,,,,,,,,,,,,,,,,,,,,,,,,,,,,,,,,,,,,,,,,,,,,,,,,,
297205,2022-12-05_13h00.23.035,vts_reward_expectancy_bt,2022.2.4,Win32,59.7193192,Chrome,1504,1003,,,a,1.55,1,587,2,0,10,10,3,1,0,1,0,0,1,0,0,0,circle,triangle,,,,,,,,,,,,,,,,,,,,,,,,,,,,,,,,,,,,,,,,,,,,,,,,,,,,,,
297205,2022-12-05_13h00.23.035,vts_reward_expectancy_bt,2022.2.4,Win32,59.7193192,Chrome,1504,1003,,,a,0.7639,10,597,2,0,11,11,7,1,0,0,1,0,0,1,0,0,hexagon,circle,,,,,,,,,,,,,,,,,,,,,,,,,,,,,,,,,,,,,,,,,,,,,,,,,,,,,,
297205,2022-12-05_13h00.23.035,vts_reward_expectancy_bt,2022.2.4,Win32,59.7193192,Chrome,1504,1003,,,l,0.4844,10,607,2,1,0,12,5,1,0,1,0,0,0,0,0,1,circle,star,,,,,,,,,,,,,,,,,,,,,,,,,,,,,,,,,,,,,,,,,,,,,,,,,,,,,,
297205,2022-12-05_13h00.23.035,vts_reward_expectancy_bt,2022.2.4,Win32,59.7193192,Chrome,1504,1003,,,l,0.4345,10,617,2,1,1,13,2,1,1,0,0,0,0,0,0,1,triangle,star,,,,,,,,,,,,,,,,,,,,,,,,,,,,,,,,,,,,,,,,,,,,,,,,,,,,,,
297205,2022-12-05_13h00.23.035,vts_reward_expectancy_bt,2022.2.4,Win32,59.7193192,Chrome,1504,1003,,,a,1.1489,1,618,2,1,2,14,3,1,0,1,0,0,1,0,0,0,circle,triangle,,,,,,,,,,,,,,,,,,,,,,,,,,,,,,,,,,,,,,,,,,,,,,,,,,,,,,
297205,2022-12-05_13h00.23.035,vts_reward_expectancy_bt,2022.2.4,Win32,59.7193192,Chrome,1504,1003,,,a,0.4571,10,628,2,1,3,15,9,1,0,0,0,1,1,0,0,0,star,triangle,,,,,,,,,,,,,,,,,,,,,,,,,,,,,,,,,,,,,,,,,,,,,,,,,,,,,,
297205,2022-12-05_13h00.23.035,vts_reward_expectancy_bt,2022.2.4,Win32,59.7193192,Chrome,1504,1003,,,l,0.5055,10,638,2,1,4,16,4,1,0,1,0,0,0,0,1,0,circle,hexagon,,,,,,,,,,,,,,,,,,,,,,,,,,,,,,,,,,,,,,,,,,,,,,,,,,,,,,
297205,2022-12-05_13h00.23.035,vts_reward_expectancy_bt,2022.2.4,Win32,59.7193192,Chrome,1504,1003,,,a,0.4192,10,648,2,1,5,17,10,1,0,0,0,1,0,1,0,0,star ,circle,,,,,,,,,,,,,,,,,,,,,,,,,,,,,,,,,,,,,,,,,,,,,,,,,,,,,,
297205,2022-12-05_13h00.23.035,vts_reward_expectancy_bt,2022.2.4,Win32,59.7193192,Chrome,1504,1003,,,a,0.634,10,658,2,1,6,18,6,1,0,0,1,0,1,0,0,0,hexagon,triangle,,,,,,,,,,,,,,,,,,,,,,,,,,,,,,,,,,,,,,,,,,,,,,,,,,,,,,
297205,2022-12-05_13h00.23.035,vts_reward_expectancy_bt,2022.2.4,Win32,59.7193192,Chrome,1504,1003,,,a,0.4681,10,668,2,1,7,19,0,1,1,0,0,0,0,1,0,0,triangle,circle,,,,,,,,,,,,,,,,,,,,,,,,,,,,,,,,,,,,,,,,,,,,,,,,,,,,,,
297205,2022-12-05_13h00.23.035,vts_reward_expectancy_bt,2022.2.4,Win32,59.7193192,Chrome,1504,1003,,,a,0.758,1,669,2,1,8,20,1,1,1,0,0,0,0,0,1,0,triangle,hexagon,,,,,,,,,,,,,,,,,,,,,,,,,,,,,,,,,,,,,,,,,,,,,,,,,,,,,,
297205,2022-12-05_13h00.23.035,vts_reward_expectancy_bt,2022.2.4,Win32,59.7193192,Chrome,1504,1003,,,a,0.534,10,679,2,1,9,21,11,1,0,0,0,1,0,0,1,0,star,hexagon,,,,,,,,,,,,,,,,,,,,,,,,,,,,,,,,,,,,,,,,,,,,,,,,,,,,,,
297205,2022-12-05_13h00.23.035,vts_reward_expectancy_bt,2022.2.4,Win32,59.7193192,Chrome,1504,1003,,,a,0.7844,10,689,2,1,10,22,7,1,0,0,1,0,0,1,0,0,hexagon,circle,,,,,,,,,,,,,,,,,,,,,,,,,,,,,,,,,,,,,,,,,,,,,,,,,,,,,,
297205,2022-12-05_13h00.23.035,vts_reward_expectancy_bt,2022.2.4,Win32,59.7193192,Chrome,1504,1003,,,l,0.5003,10,699,2,1,11,23,8,1,0,0,1,0,0,0,0,1,hexagon,star,,,,,,,,,,,,,,,,,,,,,,,,,,,,,,,,,,,,,,,,,,,,,,,,,,,,,,
297205,2022-12-05_13h00.23.035,vts_reward_expectancy_bt,2022.2.4,Win32,59.7193192,Chrome,1504,1003,,,a,0.5369,10,709,2,2,0,24,11,1,0,0,0,1,0,0,1,0,star,hexagon,,,,,,,,,,,,,,,,,,,,,,,,,,,,,,,,,,,,,,,,,,,,,,,,,,,,,,
297205,2022-12-05_13h00.23.035,vts_reward_expectancy_bt,2022.2.4,Win32,59.7193192,Chrome,1504,1003,,,l,0.8006,10,719,2,2,1,25,4,1,0,1,0,0,0,0,1,0,circle,hexagon,,,,,,,,,,,,,,,,,,,,,,,,,,,,,,,,,,,,,,,,,,,,,,,,,,,,,,
297205,2022-12-05_13h00.23.035,vts_reward_expectancy_bt,2022.2.4,Win32,59.7193192,Chrome,1504,1003,,,l,1.856,1,720,2,2,2,26,3,1,0,1,0,0,1,0,0,0,circle,triangle,,,,,,,,,,,,,,,,,,,,,,,,,,,,,,,,,,,,,,,,,,,,,,,,,,,,,,
297205,2022-12-05_13h00.23.035,vts_reward_expectancy_bt,2022.2.4,Win32,59.7193192,Chrome,1504,1003,,,a,0.6482,1,721,2,2,3,27,10,1,0,0,0,1,0,1,0,0,star ,circle,,,,,,,,,,,,,,,,,,,,,,,,,,,,,,,,,,,,,,,,,,,,,,,,,,,,,,
297205,2022-12-05_13h00.23.035,vts_reward_expectancy_bt,2022.2.4,Win32,59.7193192,Chrome,1504,1003,,,a,0.5089,1,722,2,2,4,28,9,1,0,0,0,1,1,0,0,0,star,triangle,,,,,,,,,,,,,,,,,,,,,,,,,,,,,,,,,,,,,,,,,,,,,,,,,,,,,,
297205,2022-12-05_13h00.23.035,vts_reward_expectancy_bt,2022.2.4,Win32,59.7193192,Chrome,1504,1003,,,l,0.5916,10,732,2,2,5,29,8,1,0,0,1,0,0,0,0,1,hexagon,star,,,,,,,,,,,,,,,,,,,,,,,,,,,,,,,,,,,,,,,,,,,,,,,,,,,,,,
297205,2022-12-05_13h00.23.035,vts_reward_expectancy_bt,2022.2.4,Win32,59.7193192,Chrome,1504,1003,,,a,1.3417,1,733,2,2,6,30,0,1,1,0,0,0,0,1,0,0,triangle,circle,,,,,,,,,,,,,,,,,,,,,,,,,,,,,,,,,,,,,,,,,,,,,,,,,,,,,,
297205,2022-12-05_13h00.23.035,vts_reward_expectancy_bt,2022.2.4,Win32,59.7193192,Chrome,1504,1003,,,l,0.6345,10,743,2,2,7,31,1,1,1,0,0,0,0,0,1,0,triangle,hexagon,,,,,,,,,,,,,,,,,,,,,,,,,,,,,,,,,,,,,,,,,,,,,,,,,,,,,,
297205,2022-12-05_13h00.23.035,vts_reward_expectancy_bt,2022.2.4,Win32,59.7193192,Chrome,1504,1003,,,l,0.5041,1,744,2,2,8,32,2,1,1,0,0,0,0,0,0,1,triangle,star,,,,,,,,,,,,,,,,,,,,,,,,,,,,,,,,,,,,,,,,,,,,,,,,,,,,,,
297205,2022-12-05_13h00.23.035,vts_reward_expectancy_bt,2022.2.4,Win32,59.7193192,Chrome,1504,1003,,,a,0.9416,10,754,2,2,9,33,6,1,0,0,1,0,1,0,0,0,hexagon,triangle,,,,,,,,,,,,,,,,,,,,,,,,,,,,,,,,,,,,,,,,,,,,,,,,,,,,,,
297205,2022-12-05_13h00.23.035,vts_reward_expectancy_bt,2022.2.4,Win32,59.7193192,Chrome,1504,1003,,,l,0.9135,10,764,2,2,10,34,5,1,0,1,0,0,0,0,0,1,circle,star,,,,,,,,,,,,,,,,,,,,,,,,,,,,,,,,,,,,,,,,,,,,,,,,,,,,,,
297205,2022-12-05_13h00.23.035,vts_reward_expectancy_bt,2022.2.4,Win32,59.7193192,Chrome,1504,1003,,,a,0.7322,10,774,2,2,11,35,7,1,0,0,1,0,0,1,0,0,hexagon,circle,,,,,,,,,,,,,,,,,,,,,,,,,,,,,,,,,,,,,,,,,,,,,,,,,,,,,,
297205,2022-12-05_13h00.23.035,vts_reward_expectancy_bt,2022.2.4,Win32,59.7193192,Chrome,1504,1003,,,,,,,,,,,,,,,,,,,,,,,S,146,triangle,0,0,,0,0,0,0,0,1,,,,,,,,,,,,,,,,,,,,,,,,,,,,,,,,,,,,,,,,,,
297205,2022-12-05_13h00.23.035,vts_reward_expectancy_bt,2022.2.4,Win32,59.7193192,Chrome,1504,1003,,,,,,,,,,,,,,,,,,,,,,,W,174,hexagon,0,1,d,0,1,0,1,0,1,0.5882,,,,,,,,,,,,,,,,,,,,,,,,,,,,,,,,,,,,,,,,,
297205,2022-12-05_13h00.23.035,vts_reward_expectancy_bt,2022.2.4,Win32,59.7193192,Chrome,1504,1003,,,,,,,,,,,,,,,,,,,,,,,F,139,circle,1,1,d,0,2,0,2,0,1,1.0173,,,,,,,,,,,,,,,,,,,,,,,,,,,,,,,,,,,,,,,,,
297205,2022-12-05_13h00.23.035,vts_reward_expectancy_bt,2022.2.4,Win32,59.7193192,Chrome,1504,1003,,,,,,,,,,,,,,,,,,,,,,,Y,167,star,1,0,f,0,3,0,3,0,1,0.7379,,,,,,,,,,,,,,,,,,,,,,,,,,,,,,,,,,,,,,,,,
297205,2022-12-05_13h00.23.035,vts_reward_expectancy_bt,2022.2.4,Win32,59.7193192,Chrome,1504,1003,,,,,,,,,,,,,,,,,,,,,,,B,181,triangle,1,0,d,0,4,0,4,0,1,0.4671,,,,,,,,,,,,,,,,,,,,,,,,,,,,,,,,,,,,,,,,,
297205,2022-12-05_13h00.23.035,vts_reward_expectancy_bt,2022.2.4,Win32,59.7193192,Chrome,1504,1003,,,,,,,,,,,,,,,,,,,,,,,D,132,hexagon,1,0,d,0,5,0,5,0,1,0.5838,,,,,,,,,,,,,,,,,,,,,,,,,,,,,,,,,,,,,,,,,
297205,2022-12-05_13h00.23.035,vts_reward_expectancy_bt,2022.2.4,Win32,59.7193192,Chrome,1504,1003,,,,,,,,,,,,,,,,,,,,,,,H,160,circle,1,0,d,0,6,0,6,0,1,0.6829,,,,,,,,,,,,,,,,,,,,,,,,,,,,,,,,,,,,,,,,,
297205,2022-12-05_13h00.23.035,vts_reward_expectancy_bt,2022.2.4,Win32,59.7193192,Chrome,1504,1003,,,,,,,,,,,,,,,,,,,,,,,U,125,star,1,0,f,0,7,0,7,0,1,0.4495,,,,,,,,,,,,,,,,,,,,,,,,,,,,,,,,,,,,,,,,,
297205,2022-12-05_13h00.23.035,vts_reward_expectancy_bt,2022.2.4,Win32,59.7193192,Chrome,1504,1003,,,,,,,,,,,,,,,,,,,,,,,S,146,circle,1,0,f,0,8,0,8,0,1,0.4504,,,,,,,,,,,,,,,,,,,,,,,,,,,,,,,,,,,,,,,,,
297205,2022-12-05_13h00.23.035,vts_reward_expectancy_bt,2022.2.4,Win32,59.7193192,Chrome,1504,1003,,,,,,,,,,,,,,,,,,,,,,,W,174,hexagon,1,0,f,0,9,0,9,0,1,0.4605,,,,,,,,,,,,,,,,,,,,,,,,,,,,,,,,,,,,,,,,,
297205,2022-12-05_13h00.23.035,vts_reward_expectancy_bt,2022.2.4,Win32,59.7193192,Chrome,1504,1003,,,,,,,,,,,,,,,,,,,,,,,D,181,circle,1,0,d,1,0,0,0,0,1,0.4554,,,,,,,,,,,,,,,,,,,,,,,,,,,,,,,,,,,,,,,,,
297205,2022-12-05_13h00.23.035,vts_reward_expectancy_bt,2022.2.4,Win32,59.7193192,Chrome,1504,1003,,,,,,,,,,,,,,,,,,,,,,,U,125,hexagon,1,0,f,1,1,0,1,0,1,0.5339,,,,,,,,,,,,,,,,,,,,,,,,,,,,,,,,,,,,,,,,,
297205,2022-12-05_13h00.23.035,vts_reward_expectancy_bt,2022.2.4,Win32,59.7193192,Chrome,1504,1003,,,,,,,,,,,,,,,,,,,,,,,Y,132,triangle,1,0,f,1,2,0,2,0,1,0.4907,,,,,,,,,,,,,,,,,,,,,,,,,,,,,,,,,,,,,,,,,
297205,2022-12-05_13h00.23.035,vts_reward_expectancy_bt,2022.2.4,Win32,59.7193192,Chrome,1504,1003,,,,,,,,,,,,,,,,,,,,,,,B,167,star,1,0,d,1,3,0,3,0,1,0.3915,,,,,,,,,,,,,,,,,,,,,,,,,,,,,,,,,,,,,,,,,
297205,2022-12-05_13h00.23.035,vts_reward_expectancy_bt,2022.2.4,Win32,59.7193192,Chrome,1504,1003,,,,,,,,,,,,,,,,,,,,,,,H,160,circle,1,0,d,1,4,0,4,0,1,0.5908,,,,,,,,,,,,,,,,,,,,,,,,,,,,,,,,,,,,,,,,,
297205,2022-12-05_13h00.23.035,vts_reward_expectancy_bt,2022.2.4,Win32,59.7193192,Chrome,1504,1003,,,,,,,,,,,,,,,,,,,,,,,S,174,hexagon,1,0,f,1,5,0,5,0,1,0.5849,,,,,,,,,,,,,,,,,,,,,,,,,,,,,,,,,,,,,,,,,
297205,2022-12-05_13h00.23.035,vts_reward_expectancy_bt,2022.2.4,Win32,59.7193192,Chrome,1504,1003,,,,,,,,,,,,,,,,,,,,,,,F,139,triangle,1,0,d,1,6,0,6,0,1,0.7729,,,,,,,,,,,,,,,,,,,,,,,,,,,,,,,,,,,,,,,,,
297205,2022-12-05_13h00.23.035,vts_reward_expectancy_bt,2022.2.4,Win32,59.7193192,Chrome,1504,1003,,,,,,,,,,,,,,,,,,,,,,,W,146,star,1,0,f,1,7,0,7,0,1,0.5136,,,,,,,,,,,,,,,,,,,,,,,,,,,,,,,,,,,,,,,,,
297205,2022-12-05_13h00.23.035,vts_reward_expectancy_bt,2022.2.4,Win32,59.7193192,Chrome,1504,1003,,,,,,,,,,,,,,,,,,,,,,,D,181,hexagon,1,0,d,1,8,0,8,0,1,0.5178,,,,,,,,,,,,,,,,,,,,,,,,,,,,,,,,,,,,,,,,,
297205,2022-12-05_13h00.23.035,vts_reward_expectancy_bt,2022.2.4,Win32,59.7193192,Chrome,1504,1003,,,,,,,,,,,,,,,,,,,,,,,U,125,circle,1,0,f,1,9,0,9,0,1,0.5065,,,,,,,,,,,,,,,,,,,,,,,,,,,,,,,,,,,,,,,,,
297205,2022-12-05_13h00.23.035,vts_reward_expectancy_bt,2022.2.4,Win32,59.7193192,Chrome,1504,1003,,,,,,,,,,,,,,,,,,,,,,,U,160,triangle,1,0,,2,,,,,,,k,0.8326,0,0,0,0,1,,,,,,,,,,,,,,,,,,,,,,,,,,,,,,,,,,
297205,2022-12-05_13h00.23.035,vts_reward_expectancy_bt,2022.2.4,Win32,59.7193192,Chrome,1504,1003,,,,,,,,,,,,,,,,,,,,,,,D,132,hexagon,1,0,,2,,,,,,,j,0.4755,1,0,1,0,1,,,,,,,,,,,,,,,,,,,,,,,,,,,,,,,,,,
297205,2022-12-05_13h00.23.035,vts_reward_expectancy_bt,2022.2.4,Win32,59.7193192,Chrome,1504,1003,,,,,,,,,,,,,,,,,,,,,,,H,181,circle,1,0,,2,,,,,,,k,0.8422,2,0,2,0,1,,,,,,,,,,,,,,,,,,,,,,,,,,,,,,,,,,
297205,2022-12-05_13h00.23.035,vts_reward_expectancy_bt,2022.2.4,Win32,59.7193192,Chrome,1504,1003,,,,,,,,,,,,,,,,,,,,,,,F,125,star,1,0,,2,,,,,,,j,0.5743,3,0,3,0,1,,,,,,,,,,,,,,,,,,,,,,,,,,,,,,,,,,
297205,2022-12-05_13h00.23.035,vts_reward_expectancy_bt,2022.2.4,Win32,59.7193192,Chrome,1504,1003,,,,,,,,,,,,,,,,,,,,,,,Y,146,triangle,1,0,,2,,,,,,,j,1.0012,4,0,4,0,1,,,,,,,,,,,,,,,,,,,,,,,,,,,,,,,,,,
297205,2022-12-05_13h00.23.035,vts_reward_expectancy_bt,2022.2.4,Win32,59.7193192,Chrome,1504,1003,,,,,,,,,,,,,,,,,,,,,,,B,174,hexagon,1,0,,2,,,,,,,k,0.9509,5,0,5,0,1,,,,,,,,,,,,,,,,,,,,,,,,,,,,,,,,,,
297205,2022-12-05_13h00.23.035,vts_reward_expectancy_bt,2022.2.4,Win32,59.7193192,Chrome,1504,1003,,,,,,,,,,,,,,,,,,,,,,,W,139,circle,1,0,,2,,,,,,,j,0.8005,6,0,6,0,1,,,,,,,,,,,,,,,,,,,,,,,,,,,,,,,,,,
297205,2022-12-05_13h00.23.035,vts_reward_expectancy_bt,2022.2.4,Win32,59.7193192,Chrome,1504,1003,,,,,,,,,,,,,,,,,,,,,,,S,167,star,1,0,,2,,,,,,,k,0.6591,7,0,7,0,1,,,,,,,,,,,,,,,,,,,,,,,,,,,,,,,,,,
297205,2022-12-05_13h00.23.035,vts_reward_expectancy_bt,2022.2.4,Win32,59.7193192,Chrome,1504,1003,,,,,,,,,,,,,,,,,,,,,,,U,160,hexagon,1,0,,2,,,,,,,k,0.9006,8,0,8,0,1,,,,,,,,,,,,,,,,,,,,,,,,,,,,,,,,,,
297205,2022-12-05_13h00.23.035,vts_reward_expectancy_bt,2022.2.4,Win32,59.7193192,Chrome,1504,1003,,,,,,,,,,,,,,,,,,,,,,,D,132,star,1,0,,2,,,,,,,j,0.6836,9,0,9,0,1,,,,,,,,,,,,,,,,,,,,,,,,,,,,,,,,,,
297205,2022-12-05_13h00.23.035,vts_reward_expectancy_bt,2022.2.4,Win32,59.7193192,Chrome,1504,1003,,,,,0,774,,,,,,,,,,,,,,,,,H,139,triangle,1,0,,3,,,,,,,,,,,,,,-1,letter,NA,d,1.3464,vtsPrac,0,0,0,0,1,,,,,,,,,,,,,,,,,,,,,,,
297205,2022-12-05_13h00.23.035,vts_reward_expectancy_bt,2022.2.4,Win32,59.7193192,Chrome,1504,1003,,,,,0,774,,,,,,,,,,,,,,,,,S,146,hexagon,1,0,,3,,,,,,,,,,,,,,repeat,letter,lettRpt,f,0.6774,vtsPrac,1,0,1,0,1,,,,,,,,,,,,,,,,,,,,,,,
297205,2022-12-05_13h00.23.035,vts_reward_expectancy_bt,2022.2.4,Win32,59.7193192,Chrome,1504,1003,,,,,0,774,,,,,,,,,,,,,,,,,U,174,triangle,1,0,,3,,,,,,,,,,,,,,switch,number,numSwt,k,0.5214,vtsPrac,2,0,2,0,1,,,,,,,,,,,,,,,,,,,,,,,
297205,2022-12-05_13h00.23.035,vts_reward_expectancy_bt,2022.2.4,Win32,59.7193192,Chrome,1504,1003,,,,,0,774,,,,,,,,,,,,,,,,,F,125,hexagon,1,0,,3,,,,,,,,,,,,,,repeat,number,numRpt,j,0.7222,vtsPrac,3,0,3,0,1,,,,,,,,,,,,,,,,,,,,,,,
297205,2022-12-05_13h00.23.035,vts_reward_expectancy_bt,2022.2.4,Win32,59.7193192,Chrome,1504,1003,,,,,0,774,,,,,,,,,,,,,,,,,H,139,triangle,1,0,,3,,,,,,,,,,,,,,switch,letter,lettSwt,d,0.5106,vtsPrac,4,0,4,0,1,,,,,,,,,,,,,,,,,,,,,,,
297205,2022-12-05_13h00.23.035,vts_reward_expectancy_bt,2022.2.4,Win32,59.7193192,Chrome,1504,1003,,,,,0,774,,,,,,,,,,,,,,,,,S,146,circle,1,0,,3,,,,,,,,,,,,,,switch,number,numSwt,j,0.5411,vtsPrac,5,0,5,0,1,,,,,,,,,,,,,,,,,,,,,,,
297205,2022-12-05_13h00.23.035,vts_reward_expectancy_bt,2022.2.4,Win32,59.7193192,Chrome,1504,1003,,,,,0,774,,,,,,,,,,,,,,,,,U,174,circle,1,0,,3,,,,,,,,,,,,,,switch,letter,lettSwt,f,0.4712,vtsPrac,6,0,6,0,1,,,,,,,,,,,,,,,,,,,,,,,
297205,2022-12-05_13h00.23.035,vts_reward_expectancy_bt,2022.2.4,Win32,59.7193192,Chrome,1504,1003,,,,,0,774,,,,,,,,,,,,,,,,,F,125,triangle,1,0,,3,,,,,,,,,,,,,,repeat,letter,lettRpt,d,0.6341,vtsPrac,7,0,7,0,1,,,,,,,,,,,,,,,,,,,,,,,
297205,2022-12-05_13h00.23.035,vts_reward_expectancy_bt,2022.2.4,Win32,59.7193192,Chrome,1504,1003,,,,,0,774,,,,,,,,,,,,,,,,,F,125,star,1,0,,3,,,,,,,,,,,,,,switch,number,numSwt,j,0.9936,vtsPrac,8,0,8,0,1,,,,,,,,,,,,,,,,,,,,,,,
297205,2022-12-05_13h00.23.035,vts_reward_expectancy_bt,2022.2.4,Win32,59.7193192,Chrome,1504,1003,,,,,0,774,,,,,,,,,,,,,,,,,U,132,hexagon,1,0,,3,,,,,,,,,,,,,,repeat,number,numRpt,j,0.5841,vtsPrac,9,0,9,0,1,,,,,,,,,,,,,,,,,,,,,,,
297205,2022-12-05_13h00.23.035,vts_reward_expectancy_bt,2022.2.4,Win32,59.7193192,Chrome,1504,1003,,,,,0,774,,,,,,,,,,,,,,,,,B,167,circle,1,0,,3,,,,,,,,,,,,,,switch,letter,lettSwt,d,0.4174,vtsPrac,10,0,10,0,1,,,,,,,,,,,,,,,,,,,,,,,
297205,2022-12-05_13h00.23.035,vts_reward_expectancy_bt,2022.2.4,Win32,59.7193192,Chrome,1504,1003,,,,,0,774,,,,,,,,,,,,,,,,,S,139,star,1,0,,3,,,,,,,,,,,,,,repeat,letter,lettRpt,f,0.6521,vtsPrac,11,0,11,0,1,,,,,,,,,,,,,,,,,,,,,,,
297205,2022-12-05_13h00.23.035,vts_reward_expectancy_bt,2022.2.4,Win32,59.7193192,Chrome,1504,1003,,,,,0,774,,,,,,,,,,,,,,,,,H,132,hexagon,1,0,,3,,,,,,,,,,,,,,switch,number,numSwt,j,0.521,vtsPrac,12,0,12,0,1,,,,,,,,,,,,,,,,,,,,,,,
297205,2022-12-05_13h00.23.035,vts_reward_expectancy_bt,2022.2.4,Win32,59.7193192,Chrome,1504,1003,,,,,0,774,,,,,,,,,,,,,,,,,W,160,star,1,0,,3,,,,,,,,,,,,,,repeat,number,numRpt,k,0.3833,vtsPrac,13,0,13,0,1,,,,,,,,,,,,,,,,,,,,,,,
297205,2022-12-05_13h00.23.035,vts_reward_expectancy_bt,2022.2.4,Win32,59.7193192,Chrome,1504,1003,,,,,0,774,,,,,,,,,,,,,,,,,U,174,triangle,1,0,,3,,,,,,,,,,,,,,repeat,number,numRpt,k,0.5966,vtsPrac,14,0,14,0,1,,,,,,,,,,,,,,,,,,,,,,,
297205,2022-12-05_13h00.23.035,vts_reward_expectancy_bt,2022.2.4,Win32,59.7193192,Chrome,1504,1003,,,,,0,774,,,,,,,,,,,,,,,,,B,125,hexagon,1,0,,3,,,,,,,,,,,,,,repeat,number,numRpt,j,0.541,vtsPrac,15,0,15,0,1,,,,,,,,,,,,,,,,,,,,,,,
297205,2022-12-05_13h00.23.035,vts_reward_expectancy_bt,2022.2.4,Win32,59.7193192,Chrome,1504,1003,,,,,0,774,,,,,,,,,,,,,,,,,H,167,star,1,0,,3,,,,,,,,,,,,,,switch,letter,lettSwt,d,0.618,vtsPrac,16,0,16,0,1,,,,,,,,,,,,,,,,,,,,,,,
297205,2022-12-05_13h00.23.035,vts_reward_expectancy_bt,2022.2.4,Win32,59.7193192,Chrome,1504,1003,,,,,0,774,,,,,,,,,,,,,,,,,U,181,hexagon,1,0,,3,,,,,,,,,,,,,,switch,number,numSwt,k,0.6188,vtsPrac,17,0,17,0,1,,,,,,,,,,,,,,,,,,,,,,,
297205,2022-12-05_13h00.23.035,vts_reward_expectancy_bt,2022.2.4,Win32,59.7193192,Chrome,1504,1003,,,,,0,774,,,,,,,,,,,,,,,,,S,146,star,1,0,,3,,,,,,,,,,,,,,switch,letter,lettSwt,f,0.6555,vtsPrac,18,0,18,0,1,,,,,,,,,,,,,,,,,,,,,,,
297205,2022-12-05_13h00.23.035,vts_reward_expectancy_bt,2022.2.4,Win32,59.7193192,Chrome,1504,1003,,,,,0,774,,,,,,,,,,,,,,,,,W,139,triangle,1,0,,3,,,,,,,,,,,,,,repeat,letter,lettRpt,f,0.7633,vtsPrac,19,0,19,0,1,,,,,,,,,,,,,,,,,,,,,,,
297205,2022-12-05_13h00.23.035,vts_reward_expectancy_bt,2022.2.4,Win32,59.7193192,Chrome,1504,1003,,,,,0,774,,,,,,,,,,,,,,,,,W,139,star,1,0,,3,,,,,,,,,,,,,,switch,number,numSwt,j,1.0008,vtsPrac,20,0,20,0,1,,,,,,,,,,,,,,,,,,,,,,,
297205,2022-12-05_13h00.23.035,vts_reward_expectancy_bt,2022.2.4,Win32,59.7193192,Chrome,1504,1003,,,,,0,774,,,,,,,,,,,,,,,,,F,167,hexagon,1,0,,3,,,,,,,,,,,,,,switch,letter,lettSwt,d,0.5617,vtsPrac,21,0,21,0,1,,,,,,,,,,,,,,,,,,,,,,,
297205,2022-12-05_13h00.23.035,vts_reward_expectancy_bt,2022.2.4,Win32,59.7193192,Chrome,1504,1003,,,,,0,774,,,,,,,,,,,,,,,,,S,160,star,1,0,,3,,,,,,,,,,,,,,repeat,letter,lettRpt,f,0.6294,vtsPrac,22,0,22,0,1,,,,,,,,,,,,,,,,,,,,,,,
297205,2022-12-05_13h00.23.035,vts_reward_expectancy_bt,2022.2.4,Win32,59.7193192,Chrome,1504,1003,,,,,0,774,,,,,,,,,,,,,,,,,H,146,triangle,1,0,,3,,,,,,,,,,,,,,switch,number,numSwt,j,0.639,vtsPrac,23,0,23,0,1,,,,,,,,,,,,,,,,,,,,,,,
297205,2022-12-05_13h00.23.035,vts_reward_expectancy_bt,2022.2.4,Win32,59.7193192,Chrome,1504,1003,,,,,0,774,,,,,,,,,,,,,,,,,F,125,star,1,0,,3,,,,,,,,,,,,,,repeat,number,numRpt,j,0.5006,vtsPrac,24,0,24,0,1,,,,,,,,,,,,,,,,,,,,,,,
297205,2022-12-05_13h00.23.035,vts_reward_expectancy_bt,2022.2.4,Win32,59.7193192,Chrome,1504,1003,,,,,0,774,,,,,,,,,,,,,,,,,D,181,circle,1,0,,3,,,,,,,,,,,,,,switch,letter,lettSwt,d,0.4703,vtsPrac,25,0,25,0,1,,,,,,,,,,,,,,,,,,,,,,,
297205,2022-12-05_13h00.23.035,vts_reward_expectancy_bt,2022.2.4,Win32,59.7193192,Chrome,1504,1003,,,,,0,774,,,,,,,,,,,,,,,,,B,167,hexagon,1,0,,3,,,,,,,,,,,,,,repeat,letter,lettRpt,d,0.5502,vtsPrac,26,0,26,0,1,,,,,,,,,,,,,,,,,,,,,,,
297205,2022-12-05_13h00.23.035,vts_reward_expectancy_bt,2022.2.4,Win32,59.7193192,Chrome,1504,1003,,,,,0,774,,,,,,,,,,,,,,,,,S,132,triangle,1,0,,3,,,,,,,,,,,,,,repeat,letter,lettRpt,f,0.7419,vtsPrac,27,0,27,0,1,,,,,,,,,,,,,,,,,,,,,,,
297205,2022-12-05_13h00.23.035,vts_reward_expectancy_bt,2022.2.4,Win32,59.7193192,Chrome,1504,1003,,,,,0,774,,,,,,,,,,,,,,,,,U,139,circle,1,0,,3,,,,,,,,,,,,,,switch,number,numSwt,j,0.5669,vtsPrac,28,0,28,0,1,,,,,,,,,,,,,,,,,,,,,,,
297205,2022-12-05_13h00.23.035,vts_reward_expectancy_bt,2022.2.4,Win32,59.7193192,Chrome,1504,1003,,,,,0,774,,,,,,,,,,,,,,,,,F,167,star,1,0,,3,,,,,,,,,,,,,,repeat,number,numRpt,k,0.6549,vtsPrac,29,0,29,0,1,,,,,,,,,,,,,,,,,,,,,,,
297205,2022-12-05_13h00.23.035,vts_reward_expectancy_bt,2022.2.4,Win32,59.7193192,Chrome,1504,1003,,,,,0,774,,,,,,,,,,,,,,,,,S,174,triangle,1,0,,3,,,,,,,,,,,,,,switch,letter,lettSwt,f,0.6471,vtsPrac,30,0,30,0,1,,,,,,,,,,,,,,,,,,,,,,,
297205,2022-12-05_13h00.23.035,vts_reward_expectancy_bt,2022.2.4,Win32,59.7193192,Chrome,1504,1003,,,,,0,774,,,,,,,,,,,,,,,,,D,181,circle,1,0,,3,,,,,,,,,,,,,,switch,number,numSwt,k,0.967,vtsPrac,31,0,31,0,1,,,,,,,,,,,,,,,,,,,,,,,
297205,2022-12-05_13h00.23.035,vts_reward_expectancy_bt,2022.2.4,Win32,59.7193192,Chrome,1504,1003,,,,,,,,,,,,,,,,,,,,,,,,,,,,,,,,,,,,,,,,,,,,,,,,,,,,,,,,,,,,,,,,,,,,,,,,,,,,
297205,2022-12-05_13h00.23.035,vts_reward_expectancy_bt,2022.2.4,Win32,59.7193192,Chrome,1504,1003,,,,,,,,,,,,,,,,,,,,,,,,,,,,,,,,,,,,,,,,,,,,,,,,,,,,,,,,,,,,,,,,,,,,,,,,,,,,
297205,2022-12-05_13h00.23.035,vts_reward_expectancy_bt,2022.2.4,Win32,59.7193192,Chrome,1504,1003,,,,,0,774,,,,,,,,,,,,,,,,,Y,139,hexagon,1,0,,,,,,,,,,,,,,,,switch,letter,lettSwt,f,0.6345,noRew,,,,,,0,0,0,0,0,1,,,,,,,,,,,,,,,,,
297205,2022-12-05_13h00.23.035,vts_reward_expectancy_bt,2022.2.4,Win32,59.7193192,Chrome,1504,1003,,,,,0,774,,,,,,,,,,,,,,,,,H,174,triangle,1,0,,,,,,,,,,,,,,,,repeat,letter,lettRpt,d,0.767,noRew,,,,,,0,1,0,1,0,1,,,,,,,,,,,,,,,,,
297205,2022-12-05_13h00.23.035,vts_reward_expectancy_bt,2022.2.4,Win32,59.7193192,Chrome,1504,1003,,,,,0,774,,,,,,,,,,,,,,,,,W,181,hexagon,1,0,,,,,,,,,,,,,,,,switch,number,numSwt,k,0.4703,noRew,,,,,,0,2,0,2,0,1,,,,,,,,,,,,,,,,,
297205,2022-12-05_13h00.23.035,vts_reward_expectancy_bt,2022.2.4,Win32,59.7193192,Chrome,1504,1003,,,,,0,774,,,,,,,,,,,,,,,,,U,125,triangle,1,0,,,,,,,,,,,,,,,,switch,letter,lettSwt,f,0.4168,noRew,,,,,,0,3,0,3,0,1,,,,,,,,,,,,,,,,,
297205,2022-12-05_13h00.23.035,vts_reward_expectancy_bt,2022.2.4,Win32,59.7193192,Chrome,1504,1003,,,,,0,774,,,,,,,,,,,,,,,,,Y,139,circle,1,0,,,,,,,,,,,,,,,,switch,number,numSwt,j,0.4836,noRew,,,,,,0,4,0,4,0,1,,,,,,,,,,,,,,,,,
297205,2022-12-05_13h00.23.035,vts_reward_expectancy_bt,2022.2.4,Win32,59.7193192,Chrome,1504,1003,,,,,0,774,,,,,,,,,,,,,,,,,H,174,hexagon,1,0,,,,,,,,,,,,,,,,repeat,number,numRpt,k,0.584,noRew,,,,,,0,5,0,5,0,1,,,,,,,,,,,,,,,,,
297205,2022-12-05_13h00.23.035,vts_reward_expectancy_bt,2022.2.4,Win32,59.7193192,Chrome,1504,1003,,,,,0,774,,,,,,,,,,,,,,,,,W,181,circle,1,0,,,,,,,,,,,,,,,,repeat,number,numRpt,k,0.6071,noRew,,,,,,0,6,0,6,0,1,,,,,,,,,,,,,,,,,
297205,2022-12-05_13h00.23.035,vts_reward_expectancy_bt,2022.2.4,Win32,59.7193192,Chrome,1504,1003,,,,,0,774,,,,,,,,,,,,,,,,,U,125,triangle,1,0,,,,,,,,,,,,,,,,repeat,number,numRpt,j,0.6173,noRew,,,,,,0,7,0,7,0,1,,,,,,,,,,,,,,,,,
297205,2022-12-05_13h00.23.035,vts_reward_expectancy_bt,2022.2.4,Win32,59.7193192,Chrome,1504,1003,,,,,0,774,,,,,,,,,,,,,,,,,U,132,hexagon,1,0,,,,,,,,,,,,,,,,switch,letter,lettSwt,f,0.6014,noRew,,,,,,0,8,0,8,0,1,,,,,,,,,,,,,,,,,
297205,2022-12-05_13h00.23.035,vts_reward_expectancy_bt,2022.2.4,Win32,59.7193192,Chrome,1504,1003,,,,,0,774,,,,,,,,,,,,,,,,,B,174,circle,1,0,,,,,,,,,,,,,,,,repeat,letter,lettRpt,d,0.5055,noRew,,,,,,0,9,0,9,0,1,,,,,,,,,,,,,,,,,
297205,2022-12-05_13h00.23.035,vts_reward_expectancy_bt,2022.2.4,Win32,59.7193192,Chrome,1504,1003,,,,,0,774,,,,,,,,,,,,,,,,,S,160,hexagon,1,0,,,,,,,,,,,,,,,,switch,number,numSwt,k,0.4746,noRew,,,,,,0,10,0,10,0,1,,,,,,,,,,,,,,,,,
297205,2022-12-05_13h00.23.035,vts_reward_expectancy_bt,2022.2.4,Win32,59.7193192,Chrome,1504,1003,,,,,0,774,,,,,,,,,,,,,,,,,W,167,triangle,1,0,,,,,,,,,,,,,,,,repeat,number,numRpt,k,0.7059,noRew,,,,,,0,11,0,11,0,1,,,,,,,,,,,,,,,,,
297205,2022-12-05_13h00.23.035,vts_reward_expectancy_bt,2022.2.4,Win32,59.7193192,Chrome,1504,1003,,,,,0,774,,,,,,,,,,,,,,,,,W,125,circle,1,0,,,,,,,,,,,,,,,,switch,letter,lettSwt,f,0.5336,noRew,,,,,,0,12,0,12,0,1,,,,,,,,,,,,,,,,,
297205,2022-12-05_13h00.23.035,vts_reward_expectancy_bt,2022.2.4,Win32,59.7193192,Chrome,1504,1003,,,,,0,774,,,,,,,,,,,,,,,,,U,139,star,1,0,,,,,,,,,,,,,,,,repeat,letter,lettRpt,f,0.5887,noRew,,,,,,0,13,0,13,0,1,,,,,,,,,,,,,,,,,
297205,2022-12-05_13h00.23.035,vts_reward_expectancy_bt,2022.2.4,Win32,59.7193192,Chrome,1504,1003,,,,,0,774,,,,,,,,,,,,,,,,,F,132,triangle,1,0,,,,,,,,,,,,,,,,repeat,letter,lettRpt,d,0.6008,noRew,,,,,,0,14,0,14,0,1,,,,,,,,,,,,,,,,,
297205,2022-12-05_13h00.23.035,vts_reward_expectancy_bt,2022.2.4,Win32,59.7193192,Chrome,1504,1003,,,,,0,774,,,,,,,,,,,,,,,,,D,160,hexagon,1,0,,,,,,,,,,,,,,,,repeat,letter,lettRpt,d,0.5858,noRew,,,,,,0,15,0,15,0,1,,,,,,,,,,,,,,,,,
297205,2022-12-05_13h00.23.035,vts_reward_expectancy_bt,2022.2.4,Win32,59.7193192,Chrome,1504,1003,,,,,0,774,,,,,,,,,,,,,,,,,H,146,circle,1,0,,,,,,,,,,,,,,,,switch,number,numSwt,j,0.5942,noRew,,,,,,0,16,0,16,0,1,,,,,,,,,,,,,,,,,
297205,2022-12-05_13h00.23.035,vts_reward_expectancy_bt,2022.2.4,Win32,59.7193192,Chrome,1504,1003,,,,,0,774,,,,,,,,,,,,,,,,,W,160,triangle,1,0,,,,,,,,,,,,,,,,switch,letter,lettSwt,f,0.5588,noRew,,,,,,0,17,0,17,0,1,,,,,,,,,,,,,,,,,
297205,2022-12-05_13h00.23.035,vts_reward_expectancy_bt,2022.2.4,Win32,59.7193192,Chrome,1504,1003,,,,,0,774,,,,,,,,,,,,,,,,,U,132,triangle,1,0,,,,,,,,,,,,,,,,repeat,letter,lettRpt,f,0.6472,noRew,,,,,,0,18,0,18,0,1,,,,,,,,,,,,,,,,,
297205,2022-12-05_13h00.23.035,vts_reward_expectancy_bt,2022.2.4,Win32,59.7193192,Chrome,1504,1003,,,,,0,774,,,,,,,,,,,,,,,,,Y,125,hexagon,1,0,,,,,,,,,,,,,,,,switch,number,numSwt,j,0.9833,noRew,,,,,,0,19,0,19,0,1,,,,,,,,,,,,,,,,,
297205,2022-12-05_13h00.23.035,vts_reward_expectancy_bt,2022.2.4,Win32,59.7193192,Chrome,1504,1003,,,,,0,774,,,,,,,,,,,,,,,,,Y,132,circle,1,0,,,,,,,,,,,,,,,,repeat,number,numRpt,j,0.6962,noRew,,,,,,0,20,0,20,0,1,,,,,,,,,,,,,,,,,
297205,2022-12-05_13h00.23.035,vts_reward_expectancy_bt,2022.2.4,Win32,59.7193192,Chrome,1504,1003,,,,,0,774,,,,,,,,,,,,,,,,,D,181,hexagon,1,0,,,,,,,,,,,,,,,,repeat,number,numRpt,k,0.7412,noRew,,,,,,0,21,0,21,0,1,,,,,,,,,,,,,,,,,
297205,2022-12-05_13h00.23.035,vts_reward_expectancy_bt,2022.2.4,Win32,59.7193192,Chrome,1504,1003,,,,,0,774,,,,,,,,,,,,,,,,,H,160,circle,1,0,,,,,,,,,,,,,,,,repeat,number,numRpt,k,0.6674,noRew,,,,,,0,22,0,22,0,1,,,,,,,,,,,,,,,,,
297205,2022-12-05_13h00.23.035,vts_reward_expectancy_bt,2022.2.4,Win32,59.7193192,Chrome,1504,1003,,,,,0,774,,,,,,,,,,,,,,,,,W,139,hexagon,1,0,,,,,,,,,,,,,,,,switch,letter,lettSwt,f,0.5915,noRew,,,,,,0,23,0,23,0,1,,,,,,,,,,,,,,,,,
297205,2022-12-05_13h00.23.035,vts_reward_expectancy_bt,2022.2.4,Win32,59.7193192,Chrome,1504,1003,,,,,0,774,,,,,,,,,,,,,,,,,W,132,star,1,0,,,,,,,,,,,,,,,,switch,number,numSwt,j,0.5246,noRew,,,,,,0,24,0,24,0,1,,,,,,,,,,,,,,,,,
297205,2022-12-05_13h00.23.035,vts_reward_expectancy_bt,2022.2.4,Win32,59.7193192,Chrome,1504,1003,,,,,0,774,,,,,,,,,,,,,,,,,U,160,triangle,1,0,,,,,,,,,,,,,,,,repeat,number,numRpt,k,0.4778,noRew,,,,,,0,25,0,25,0,1,,,,,,,,,,,,,,,,,
297205,2022-12-05_13h00.23.035,vts_reward_expectancy_bt,2022.2.4,Win32,59.7193192,Chrome,1504,1003,,,,,0,774,,,,,,,,,,,,,,,,,Y,167,hexagon,1,0,,,,,,,,,,,,,,,,switch,letter,lettSwt,f,0.5422,noRew,,,,,,0,26,0,26,0,1,,,,,,,,,,,,,,,,,
297205,2022-12-05_13h00.23.035,vts_reward_expectancy_bt,2022.2.4,Win32,59.7193192,Chrome,1504,1003,,,,,0,774,,,,,,,,,,,,,,,,,D,181,circle,1,0,,,,,,,,,,,,,,,,switch,number,numSwt,k,0.7011,noRew,,,,,,0,27,0,27,0,1,,,,,,,,,,,,,,,,,
297205,2022-12-05_13h00.23.035,vts_reward_expectancy_bt,2022.2.4,Win32,59.7193192,Chrome,1504,1003,,,,,0,774,,,,,,,,,,,,,,,,,S,174,circle,1,0,,,,,,,,,,,,,,,,switch,letter,lettSwt,f,0.7054,noRew,,,,,,0,28,0,28,0,1,,,,,,,,,,,,,,,,,
297205,2022-12-05_13h00.23.035,vts_reward_expectancy_bt,2022.2.4,Win32,59.7193192,Chrome,1504,1003,,,,,0,774,,,,,,,,,,,,,,,,,D,160,star,1,0,,,,,,,,,,,,,,,,repeat,letter,lettRpt,d,0.6251,noRew,,,,,,0,29,0,29,0,1,,,,,,,,,,,,,,,,,
297205,2022-12-05_13h00.23.035,vts_reward_expectancy_bt,2022.2.4,Win32,59.7193192,Chrome,1504,1003,,,,,0,774,,,,,,,,,,,,,,,,,Y,146,star,1,0,,,,,,,,,,,,,,,,repeat,letter,lettRpt,f,0.4846,noRew,,,,,,0,30,0,30,0,1,,,,,,,,,,,,,,,,,
297205,2022-12-05_13h00.23.035,vts_reward_expectancy_bt,2022.2.4,Win32,59.7193192,Chrome,1504,1003,,,,,0,774,,,,,,,,,,,,,,,,,B,181,triangle,1,0,,,,,,,,,,,,,,,,switch,number,numSwt,k,0.8007,noRew,,,,,,0,31,0,31,0,1,,,,,,,,,,,,,,,,,
297205,2022-12-05_13h00.23.035,vts_reward_expectancy_bt,2022.2.4,Win32,59.7193192,Chrome,1504,1003,,,,,0,774,,,,,,,,,,,,,,,,,H,139,star,1,0,,,,,,,,,,,,,,,,repeat,number,numRpt,j,0.5939,noRew,,,,,,0,32,0,32,0,1,,,,,,,,,,,,,,,,,
297205,2022-12-05_13h00.23.035,vts_reward_expectancy_bt,2022.2.4,Win32,59.7193192,Chrome,1504,1003,,,,,0,774,,,,,,,,,,,,,,,,,Y,125,hexagon,1,0,,,,,,,,,,,,,,,,repeat,number,numRpt,j,0.5253,noRew,,,,,,0,33,0,33,0,1,,,,,,,,,,,,,,,,,
297205,2022-12-05_13h00.23.035,vts_reward_expectancy_bt,2022.2.4,Win32,59.7193192,Chrome,1504,1003,,,,,0,774,,,,,,,,,,,,,,,,,W,146,circle,1,0,,,,,,,,,,,,,,,,repeat,number,numRpt,j,0.6674,noRew,,,,,,0,34,0,34,0,1,,,,,,,,,,,,,,,,,
297205,2022-12-05_13h00.23.035,vts_reward_expectancy_bt,2022.2.4,Win32,59.7193192,Chrome,1504,1003,,,,,0,774,,,,,,,,,,,,,,,,,U,160,hexagon,1,0,,,,,,,,,,,,,,,,repeat,number,numRpt,k,0.586,noRew,,,,,,0,35,0,35,0,1,,,,,,,,,,,,,,,,,
297205,2022-12-05_13h00.23.035,vts_reward_expectancy_bt,2022.2.4,Win32,59.7193192,Chrome,1504,1003,,,,,0,774,,,,,,,,,,,,,,,,,U,174,circle,1,0,,,,,,,,,,,,,,,,switch,letter,lettSwt,f,0.5719,noRew,,,,,,0,36,0,36,0,1,,,,,,,,,,,,,,,,,
297205,2022-12-05_13h00.23.035,vts_reward_expectancy_bt,2022.2.4,Win32,59.7193192,Chrome,1504,1003,,,,,0,774,,,,,,,,,,,,,,,,,S,132,hexagon,1,0,,,,,,,,,,,,,,,,repeat,letter,lettRpt,f,0.7047,noRew,,,,,,0,37,0,37,0,1,,,,,,,,,,,,,,,,,
297205,2022-12-05_13h00.23.035,vts_reward_expectancy_bt,2022.2.4,Win32,59.7193192,Chrome,1504,1003,,,,,0,774,,,,,,,,,,,,,,,,,Y,139,circle,1,0,,,,,,,,,,,,,,,,repeat,letter,lettRpt,f,0.6005,noRew,,,,,,0,38,0,38,0,1,,,,,,,,,,,,,,,,,
297205,2022-12-05_13h00.23.035,vts_reward_expectancy_bt,2022.2.4,Win32,59.7193192,Chrome,1504,1003,,,,,0,774,,,,,,,,,,,,,,,,,D,160,triangle,1,0,,,,,,,,,,,,,,,,switch,number,numSwt,k,0.7009,noRew,,,,,,0,39,0,39,0,1,,,,,,,,,,,,,,,,,
297205,2022-12-05_13h00.23.035,vts_reward_expectancy_bt,2022.2.4,Win32,59.7193192,Chrome,1504,1003,,,,,0,774,,,,,,,,,,,,,,,,,B,174,hexagon,1,0,,,,,,,,,,,,,,,,repeat,number,numRpt,k,0.6117,noRew,,,,,,0,40,0,40,0,1,,,,,,,,,,,,,,,,,
297205,2022-12-05_13h00.23.035,vts_reward_expectancy_bt,2022.2.4,Win32,59.7193192,Chrome,1504,1003,,,,,0,774,,,,,,,,,,,,,,,,,H,167,triangle,1,0,,,,,,,,,,,,,,,,repeat,number,numRpt,k,0.7,noRew,,,,,,0,41,0,41,0,1,,,,,,,,,,,,,,,,,
297205,2022-12-05_13h00.23.035,vts_reward_expectancy_bt,2022.2.4,Win32,59.7193192,Chrome,1504,1003,,,,,0,774,,,,,,,,,,,,,,,,,D,132,star,1,0,,,,,,,,,,,,,,,,switch,letter,lettSwt,d,0.6006,noRew,,,,,,0,42,0,42,0,1,,,,,,,,,,,,,,,,,
297205,2022-12-05_13h00.23.035,vts_reward_expectancy_bt,2022.2.4,Win32,59.7193192,Chrome,1504,1003,,,,,0,774,,,,,,,,,,,,,,,,,F,125,circle,1,0,,,,,,,,,,,,,,,,repeat,letter,lettRpt,d,0.7504,noRew,,,,,,0,43,0,43,0,1,,,,,,,,,,,,,,,,,
297205,2022-12-05_13h00.23.035,vts_reward_expectancy_bt,2022.2.4,Win32,59.7193192,Chrome,1504,1003,,,,,0,774,,,,,,,,,,,,,,,,,U,132,star,1,0,,,,,,,,,,,,,,,,repeat,letter,lettRpt,f,0.8319,noRew,,,,,,0,44,0,44,0,1,,,,,,,,,,,,,,,,,
297205,2022-12-05_13h00.23.035,vts_reward_expectancy_bt,2022.2.4,Win32,59.7193192,Chrome,1504,1003,,,,,0,774,,,,,,,,,,,,,,,,,F,174,circle,1,0,,,,,,,,,,,,,,,,switch,number,numSwt,k,0.5999,noRew,,,,,,0,45,0,45,0,1,,,,,,,,,,,,,,,,,
297205,2022-12-05_13h00.23.035,vts_reward_expectancy_bt,2022.2.4,Win32,59.7193192,Chrome,1504,1003,,,,,0,774,,,,,,,,,,,,,,,,,Y,160,triangle,1,0,,,,,,,,,,,,,,,,repeat,number,numRpt,k,0.4867,noRew,,,,,,0,46,0,46,0,1,,,,,,,,,,,,,,,,,
297205,2022-12-05_13h00.23.035,vts_reward_expectancy_bt,2022.2.4,Win32,59.7193192,Chrome,1504,1003,,,,,0,774,,,,,,,,,,,,,,,,,H,167,hexagon,1,0,,,,,,,,,,,,,,,,repeat,number,numRpt,k,0.6507,noRew,,,,,,0,47,0,47,0,1,,,,,,,,,,,,,,,,,
297205,2022-12-05_13h00.23.035,vts_reward_expectancy_bt,2022.2.4,Win32,59.7193192,Chrome,1504,1003,,,,,0,774,,,,,,,,,,,,,,,,,D,181,hexagon,1,0,,,,,,,,,,,,,,,,repeat,number,numRpt,k,0.6037,noRew,,,,,,0,48,0,48,0,1,,,,,,,,,,,,,,,,,
297205,2022-12-05_13h00.23.035,vts_reward_expectancy_bt,2022.2.4,Win32,59.7193192,Chrome,1504,1003,,,,,0,774,,,,,,,,,,,,,,,,,Y,125,circle,1,0,,,,,,,,,,,,,,,,switch,letter,lettSwt,f,0.5988,noRew,,,,,,0,49,0,49,0,1,,,,,,,,,,,,,,,,,
297205,2022-12-05_13h00.23.035,vts_reward_expectancy_bt,2022.2.4,Win32,59.7193192,Chrome,1504,1003,,,,,0,774,,,,,,,,,,,,,,,,,F,139,triangle,1,0,,,,,,,,,,,,,,,,repeat,letter,lettRpt,d,0.9,noRew,,,,,,0,50,0,50,0,1,,,,,,,,,,,,,,,,,
297205,2022-12-05_13h00.23.035,vts_reward_expectancy_bt,2022.2.4,Win32,59.7193192,Chrome,1504,1003,,,,,0,774,,,,,,,,,,,,,,,,,W,174,star,1,0,,,,,,,,,,,,,,,,repeat,letter,lettRpt,f,0.4066,noRew,,,,,,0,51,0,51,0,1,,,,,,,,,,,,,,,,,
297205,2022-12-05_13h00.23.035,vts_reward_expectancy_bt,2022.2.4,Win32,59.7193192,Chrome,1504,1003,,,,,0,774,,,,,,,,,,,,,,,,,Y,181,circle,1,0,,,,,,,,,,,,,,,,switch,number,numSwt,k,0.5838,noRew,,,,,,0,52,0,52,0,1,,,,,,,,,,,,,,,,,
297205,2022-12-05_13h00.23.035,vts_reward_expectancy_bt,2022.2.4,Win32,59.7193192,Chrome,1504,1003,,,,,0,774,,,,,,,,,,,,,,,,,D,139,hexagon,1,0,,,,,,,,,,,,,,,,repeat,number,numRpt,j,0.5137,noRew,,,,,,0,53,0,53,0,1,,,,,,,,,,,,,,,,,
297205,2022-12-05_13h00.23.035,vts_reward_expectancy_bt,2022.2.4,Win32,59.7193192,Chrome,1504,1003,,,,,0,774,,,,,,,,,,,,,,,,,W,132,circle,1,0,,,,,,,,,,,,,,,,repeat,number,numRpt,j,0.6154,noRew,,,,,,0,54,0,54,0,1,,,,,,,,,,,,,,,,,
297205,2022-12-05_13h00.23.035,vts_reward_expectancy_bt,2022.2.4,Win32,59.7193192,Chrome,1504,1003,,,,,0,774,,,,,,,,,,,,,,,,,H,146,hexagon,1,0,,,,,,,,,,,,,,,,repeat,number,numRpt,j,0.6398,noRew,,,,,,0,55,0,55,0,1,,,,,,,,,,,,,,,,,
297205,2022-12-05_13h00.23.035,vts_reward_expectancy_bt,2022.2.4,Win32,59.7193192,Chrome,1504,1003,,,,,0,774,,,,,,,,,,,,,,,,,H,139,circle,1,0,,,,,,,,,,,,,,,,switch,letter,lettSwt,d,0.7308,noRew,,,,,,0,56,0,56,0,1,,,,,,,,,,,,,,,,,
297205,2022-12-05_13h00.23.035,vts_reward_expectancy_bt,2022.2.4,Win32,59.7193192,Chrome,1504,1003,,,,,0,774,,,,,,,,,,,,,,,,,S,160,triangle,1,0,,,,,,,,,,,,,,,,repeat,letter,lettRpt,f,0.9247,noRew,,,,,,0,57,0,57,0,1,,,,,,,,,,,,,,,,,
297205,2022-12-05_13h00.23.035,vts_reward_expectancy_bt,2022.2.4,Win32,59.7193192,Chrome,1504,1003,,,,,0,774,,,,,,,,,,,,,,,,,D,146,star,1,0,,,,,,,,,,,,,,,,switch,number,numSwt,j,0.6044,noRew,,,,,,0,58,0,58,0,1,,,,,,,,,,,,,,,,,
297205,2022-12-05_13h00.23.035,vts_reward_expectancy_bt,2022.2.4,Win32,59.7193192,Chrome,1504,1003,,,,,0,774,,,,,,,,,,,,,,,,,F,174,triangle,1,0,,,,,,,,,,,,,,,,switch,letter,lettSwt,d,0.7729,noRew,,,,,,0,59,0,59,0,1,,,,,,,,,,,,,,,,,
297205,2022-12-05_13h00.23.035,vts_reward_expectancy_bt,2022.2.4,Win32,59.7193192,Chrome,1504,1003,,,,,0,774,,,,,,,,,,,,,,,,,Y,139,circle,1,0,,,,,,,,,,,,,,,,repeat,letter,lettRpt,f,0.6855,noRew,,,,,,0,60,0,60,0,1,,,,,,,,,,,,,,,,,
297205,2022-12-05_13h00.23.035,vts_reward_expectancy_bt,2022.2.4,Win32,59.7193192,Chrome,1504,1003,,,,,0,774,,,,,,,,,,,,,,,,,W,132,hexagon,1,0,,,,,,,,,,,,,,,,repeat,letter,lettRpt,f,0.8168,noRew,,,,,,0,61,0,61,0,1,,,,,,,,,,,,,,,,,
297205,2022-12-05_13h00.23.035,vts_reward_expectancy_bt,2022.2.4,Win32,59.7193192,Chrome,1504,1003,,,,,0,774,,,,,,,,,,,,,,,,,U,181,triangle,1,0,,,,,,,,,,,,,,,,switch,number,numSwt,k,0.7835,noRew,,,,,,0,62,0,62,0,1,,,,,,,,,,,,,,,,,
297205,2022-12-05_13h00.23.035,vts_reward_expectancy_bt,2022.2.4,Win32,59.7193192,Chrome,1504,1003,,,,,0,774,,,,,,,,,,,,,,,,,H,167,star,1,0,,,,,,,,,,,,,,,,repeat,number,numRpt,k,0.6477,noRew,,,,,,0,63,0,63,0,1,,,,,,,,,,,,,,,,,
297205,2022-12-05_13h00.23.035,vts_reward_expectancy_bt,2022.2.4,Win32,59.7193192,Chrome,1504,1003,,,,,,,,,,,,,,,,,,,,,,,,,,,,,,,,,,,,,,,,,,,,,,,,,,,,,,,,,,,,,,,,,,,,,,,,,,,,
297205,2022-12-05_13h00.23.035,vts_reward_expectancy_bt,2022.2.4,Win32,59.7193192,Chrome,1504,1003,,,,,1,775,,,,,,,,,,,,,,,,,S,139,triangle,1,0,,,,,,,,,,,,,,,,switch,letter,lettSwt,f,0.6885,Lo,,,,,,0,,,,,,space,51.0929,high,0,0,0,0,1,,,,,,,,,
297205,2022-12-05_13h00.23.035,vts_reward_expectancy_bt,2022.2.4,Win32,59.7193192,Chrome,1504,1003,,,,,0,775,,,,,,,,,,,,,,,,,F,174,hexagon,1,0,,,,,,,,,,,,,,,,repeat,letter,lettRpt,d,0.7013,Hi,,,,,,0,,,,,,,,high,1,0,1,0,1,,,,,,,,,
297205,2022-12-05_13h00.23.035,vts_reward_expectancy_bt,2022.2.4,Win32,59.7193192,Chrome,1504,1003,,,,,10,785,,,,,,,,,,,,,,,,,W,160,star,1,0,,,,,,,,,,,,,,,,repeat,letter,lettRpt,f,0.5109,Hi,,,,,,0,,,,,,,,high,2,0,2,0,1,,,,,,,,,
297205,2022-12-05_13h00.23.035,vts_reward_expectancy_bt,2022.2.4,Win32,59.7193192,Chrome,1504,1003,,,,,1,786,,,,,,,,,,,,,,,,,D,132,circle,1,0,,,,,,,,,,,,,,,,switch,number,numSwt,j,0.3948,Lo,,,,,,0,,,,,,,,high,3,0,3,0,1,,,,,,,,,
297205,2022-12-05_13h00.23.035,vts_reward_expectancy_bt,2022.2.4,Win32,59.7193192,Chrome,1504,1003,,,,,1,787,,,,,,,,,,,,,,,,,H,167,triangle,1,0,,,,,,,,,,,,,,,,repeat,number,numRpt,k,0.6508,Lo,,,,,,0,,,,,,,,high,4,0,4,0,1,,,,,,,,,
297205,2022-12-05_13h00.23.035,vts_reward_expectancy_bt,2022.2.4,Win32,59.7193192,Chrome,1504,1003,,,,,10,797,,,,,,,,,,,,,,,,,B,125,hexagon,1,0,,,,,,,,,,,,,,,,repeat,number,numRpt,j,0.5506,Hi,,,,,,0,,,,,,,,high,5,0,5,0,1,,,,,,,,,
297205,2022-12-05_13h00.23.035,vts_reward_expectancy_bt,2022.2.4,Win32,59.7193192,Chrome,1504,1003,,,,,10,807,,,,,,,,,,,,,,,,,Y,181,star,1,0,,,,,,,,,,,,,,,,switch,letter,lettSwt,f,0.3344,Hi,,,,,,0,,,,,,,,high,6,0,6,0,1,,,,,,,,,
297205,2022-12-05_13h00.23.035,vts_reward_expectancy_bt,2022.2.4,Win32,59.7193192,Chrome,1504,1003,,,,,1,808,,,,,,,,,,,,,,,,,U,146,circle,1,0,,,,,,,,,,,,,,,,repeat,letter,lettRpt,f,0.4907,Lo,,,,,,0,,,,,,,,high,7,0,7,0,1,,,,,,,,,
297205,2022-12-05_13h00.23.035,vts_reward_expectancy_bt,2022.2.4,Win32,59.7193192,Chrome,1504,1003,,,,,0,808,,,,,,,,,,,,,,,,,S,139,hexagon,0,0,,,,,,,,,,,,,,,,repeat,letter,NA,d,0.3455,Lo,,,,,,0,,,,,,,,high,8,0,8,0,1,,,,,,,,,
297205,2022-12-05_13h00.23.035,vts_reward_expectancy_bt,2022.2.4,Win32,59.7193192,Chrome,1504,1003,,,,,0,808,,,,,,,,,,,,,,,,,F,174,star,1,1,,,,,,,,,,,,,,,,switch,number,numSwt,k,0.6248,Hi,,,,,,0,,,,,,,,high,9,0,9,0,1,,,,,,,,,
297205,2022-12-05_13h00.23.035,vts_reward_expectancy_bt,2022.2.4,Win32,59.7193192,Chrome,1504,1003,,,,,1,809,,,,,,,,,,,,,,,,,W,160,triangle,1,0,,,,,,,,,,,,,,,,repeat,number,numRpt,k,0.4756,Lo,,,,,,0,,,,,,,,high,10,0,10,0,1,,,,,,,,,
297205,2022-12-05_13h00.23.035,vts_reward_expectancy_bt,2022.2.4,Win32,59.7193192,Chrome,1504,1003,,,,,1,810,,,,,,,,,,,,,,,,,D,132,circle,1,0,,,,,,,,,,,,,,,,repeat,number,numRpt,j,0.3698,Lo,,,,,,0,,,,,,,,high,11,0,11,0,1,,,,,,,,,
297205,2022-12-05_13h00.23.035,vts_reward_expectancy_bt,2022.2.4,Win32,59.7193192,Chrome,1504,1003,,,,,0,810,,,,,,,,,,,,,,,,,H,167,hexagon,1,0,,,,,,,,,,,,,,,,switch,letter,lettSwt,d,0.6505,Hi,,,,,,0,,,,,,,,high,12,0,12,0,1,,,,,,,,,
297205,2022-12-05_13h00.23.035,vts_reward_expectancy_bt,2022.2.4,Win32,59.7193192,Chrome,1504,1003,,,,,1,811,,,,,,,,,,,,,,,,,B,125,circle,1,0,,,,,,,,,,,,,,,,repeat,letter,lettRpt,d,0.4221,Lo,,,,,,0,,,,,,,,high,13,0,13,0,1,,,,,,,,,
297205,2022-12-05_13h00.23.035,vts_reward_expectancy_bt,2022.2.4,Win32,59.7193192,Chrome,1504,1003,,,,,10,821,,,,,,,,,,,,,,,,,Y,181,triangle,1,0,,,,,,,,,,,,,,,,repeat,letter,lettRpt,f,0.4587,Lo,,,,,,0,,,,,,,,high,14,0,14,0,1,,,,,,,,,
297205,2022-12-05_13h00.23.035,vts_reward_expectancy_bt,2022.2.4,Win32,59.7193192,Chrome,1504,1003,,,,,10,831,,,,,,,,,,,,,,,,,U,146,star,1,0,,,,,,,,,,,,,,,,switch,number,numSwt,j,0.5402,Hi,,,,,,0,,,,,,,,high,15,0,15,0,1,,,,,,,,,
297205,2022-12-05_13h00.23.035,vts_reward_expectancy_bt,2022.2.4,Win32,59.7193192,Chrome,1504,1003,,,,,1,832,,,,,,,,,,,,,,,,,U,146,star,1,0,,,,,,,,,,,,,,,,repeat,number,numRpt,j,0.4509,Hi,,,,,,0,,,,,,,,high,16,0,16,0,1,,,,,,,,,
297205,2022-12-05_13h00.23.035,vts_reward_expectancy_bt,2022.2.4,Win32,59.7193192,Chrome,1504,1003,,,,,0,832,,,,,,,,,,,,,,,,,F,174,hexagon,0,0,,,,,,,,,,,,,,,,switch,letter,NA,f,0.3571,Hi,,,,,,0,,,,,,,,high,17,0,17,0,1,,,,,,,,,
297205,2022-12-05_13h00.23.035,vts_reward_expectancy_bt,2022.2.4,Win32,59.7193192,Chrome,1504,1003,,,,,0,832,,,,,,,,,,,,,,,,,S,167,triangle,0,1,,,,,,,,,,,,,,,,repeat,letter,NA,d,0.5339,Hi,,,,,,0,,,,,,,,high,18,0,18,0,1,,,,,,,,,
297205,2022-12-05_13h00.23.035,vts_reward_expectancy_bt,2022.2.4,Win32,59.7193192,Chrome,1504,1003,,,,,1,833,,,,,,,,,,,,,,,,,D,181,circle,1,1,,,,,,,,,,,,,,,,repeat,letter,lettRpt,d,0.5917,Lo,,,,,,0,,,,,,,,high,19,0,19,0,1,,,,,,,,,
297205,2022-12-05_13h00.23.035,vts_reward_expectancy_bt,2022.2.4,Win32,59.7193192,Chrome,1504,1003,,,,,1,834,,,,,,,,,,,,,,,,,H,139,triangle,1,0,,,,,,,,,,,,,,,,repeat,letter,lettRpt,d,0.5304,Lo,,,,,,0,,,,,,,,high,20,0,20,0,1,,,,,,,,,
297205,2022-12-05_13h00.23.035,vts_reward_expectancy_bt,2022.2.4,Win32,59.7193192,Chrome,1504,1003,,,,,10,844,,,,,,,,,,,,,,,,,W,132,star,1,0,,,,,,,,,,,,,,,,repeat,letter,lettRpt,f,0.4787,Hi,,,,,,0,,,,,,,,high,21,0,21,0,1,,,,,,,,,
297205,2022-12-05_13h00.23.035,vts_reward_expectancy_bt,2022.2.4,Win32,59.7193192,Chrome,1504,1003,,,,,0,844,,,,,,,,,,,,,,,,,B,160,hexagon,1,0,,,,,,,,,,,,,,,,repeat,letter,lettRpt,d,0.6148,Hi,,,,,,0,,,,,,,,high,22,0,22,0,1,,,,,,,,,
297205,2022-12-05_13h00.23.035,vts_reward_expectancy_bt,2022.2.4,Win32,59.7193192,Chrome,1504,1003,,,,,1,845,,,,,,,,,,,,,,,,,Y,125,circle,1,0,,,,,,,,,,,,,,,,repeat,letter,lettRpt,f,0.5504,Lo,,,,,,0,,,,,,,,high,23,0,23,0,1,,,,,,,,,
297205,2022-12-05_13h00.23.035,vts_reward_expectancy_bt,2022.2.4,Win32,59.7193192,Chrome,1504,1003,,,,,10,855,,,,,,,,,,,,,,,,,D,132,hexagon,1,0,,,,,,,,,,,,,,,,repeat,letter,lettRpt,d,0.5413,Hi,,,,,,0,,,,,,,,high,24,0,24,0,1,,,,,,,,,
297205,2022-12-05_13h00.23.035,vts_reward_expectancy_bt,2022.2.4,Win32,59.7193192,Chrome,1504,1003,,,,,10,865,,,,,,,,,,,,,,,,,H,125,triangle,1,0,,,,,,,,,,,,,,,,repeat,letter,lettRpt,d,0.6017,Lo,,,,,,0,,,,,,,,high,25,0,25,0,1,,,,,,,,,
297205,2022-12-05_13h00.23.035,vts_reward_expectancy_bt,2022.2.4,Win32,59.7193192,Chrome,1504,1003,,,,,10,875,,,,,,,,,,,,,,,,,S,160,star,1,0,,,,,,,,,,,,,,,,repeat,letter,lettRpt,f,0.5919,Hi,,,,,,0,,,,,,,,high,26,0,26,0,1,,,,,,,,,
297205,2022-12-05_13h00.23.035,vts_reward_expectancy_bt,2022.2.4,Win32,59.7193192,Chrome,1504,1003,,,,,1,876,,,,,,,,,,,,,,,,,B,174,circle,1,0,,,,,,,,,,,,,,,,switch,number,numSwt,k,0.4672,Lo,,,,,,0,,,,,,,,high,27,0,27,0,1,,,,,,,,,
297205,2022-12-05_13h00.23.035,vts_reward_expectancy_bt,2022.2.4,Win32,59.7193192,Chrome,1504,1003,,,,,1,877,,,,,,,,,,,,,,,,,F,181,star,1,0,,,,,,,,,,,,,,,,repeat,number,numRpt,k,0.4589,Hi,,,,,,0,,,,,,,,high,28,0,28,0,1,,,,,,,,,
297205,2022-12-05_13h00.23.035,vts_reward_expectancy_bt,2022.2.4,Win32,59.7193192,Chrome,1504,1003,,,,,1,878,,,,,,,,,,,,,,,,,U,167,triangle,1,0,,,,,,,,,,,,,,,,repeat,number,numRpt,k,0.4838,Lo,,,,,,0,,,,,,,,high,29,0,29,0,1,,,,,,,,,
297205,2022-12-05_13h00.23.035,vts_reward_expectancy_bt,2022.2.4,Win32,59.7193192,Chrome,1504,1003,,,,,10,888,,,,,,,,,,,,,,,,,W,146,hexagon,1,0,,,,,,,,,,,,,,,,repeat,number,numRpt,j,0.4338,Hi,,,,,,0,,,,,,,,high,30,0,30,0,1,,,,,,,,,
297205,2022-12-05_13h00.23.035,vts_reward_expectancy_bt,2022.2.4,Win32,59.7193192,Chrome,1504,1003,,,,,1,889,,,,,,,,,,,,,,,,,Y,139,circle,1,0,,,,,,,,,,,,,,,,repeat,number,numRpt,j,0.4331,Lo,,,,,,0,,,,,,,,high,31,0,31,0,1,,,,,,,,,
297205,2022-12-05_13h00.23.035,vts_reward_expectancy_bt,2022.2.4,Win32,59.7193192,Chrome,1504,1003,,,,,0,889,,,,,,,,,,,,,,,,,W,146,star,1,0,,,,,,,,,,,,,,,,switch,letter,lettSwt,f,0.634,Hi,,,,,,1,,,,,,space,3.0192,high,0,0,0,0,1,,,,,,,,,
297205,2022-12-05_13h00.23.035,vts_reward_expectancy_bt,2022.2.4,Win32,59.7193192,Chrome,1504,1003,,,,,10,899,,,,,,,,,,,,,,,,,B,174,triangle,1,0,,,,,,,,,,,,,,,,repeat,letter,lettRpt,d,0.3554,Lo,,,,,,1,,,,,,,,high,1,0,1,0,1,,,,,,,,,
297205,2022-12-05_13h00.23.035,vts_reward_expectancy_bt,2022.2.4,Win32,59.7193192,Chrome,1504,1003,,,,,0,899,,,,,,,,,,,,,,,,,H,139,circle,0,0,,,,,,,,,,,,,,,,repeat,letter,NA,f,0.5002,Lo,,,,,,1,,,,,,,,high,2,0,2,0,1,,,,,,,,,
297205,2022-12-05_13h00.23.035,vts_reward_expectancy_bt,2022.2.4,Win32,59.7193192,Chrome,1504,1003,,,,,1,900,,,,,,,,,,,,,,,,,F,181,hexagon,1,1,,,,,,,,,,,,,,,,repeat,letter,lettRpt,d,0.3699,Hi,,,,,,1,,,,,,,,high,3,0,3,0,1,,,,,,,,,
297205,2022-12-05_13h00.23.035,vts_reward_expectancy_bt,2022.2.4,Win32,59.7193192,Chrome,1504,1003,,,,,0,900,,,,,,,,,,,,,,,,,S,160,star,1,0,,,,,,,,,,,,,,,,switch,number,numSwt,k,0.4682,Hi,,,,,,1,,,,,,,,high,4,0,4,0,1,,,,,,,,,
297205,2022-12-05_13h00.23.035,vts_reward_expectancy_bt,2022.2.4,Win32,59.7193192,Chrome,1504,1003,,,,,1,901,,,,,,,,,,,,,,,,,D,167,triangle,1,0,,,,,,,,,,,,,,,,repeat,number,numRpt,k,0.5175,Lo,,,,,,1,,,,,,,,high,5,0,5,0,1,,,,,,,,,
297205,2022-12-05_13h00.23.035,vts_reward_expectancy_bt,2022.2.4,Win32,59.7193192,Chrome,1504,1003,,,,,1,902,,,,,,,,,,,,,,,,,U,125,circle,1,0,,,,,,,,,,,,,,,,repeat,number,numRpt,j,0.623,Lo,,,,,,1,,,,,,,,high,6,0,6,0,1,,,,,,,,,
297205,2022-12-05_13h00.23.035,vts_reward_expectancy_bt,2022.2.4,Win32,59.7193192,Chrome,1504,1003,,,,,10,912,,,,,,,,,,,,,,,,,Y,132,hexagon,1,0,,,,,,,,,,,,,,,,repeat,number,numRpt,j,0.4001,Hi,,,,,,1,,,,,,,,high,7,0,7,0,1,,,,,,,,,
297205,2022-12-05_13h00.23.035,vts_reward_expectancy_bt,2022.2.4,Win32,59.7193192,Chrome,1504,1003,,,,,10,922,,,,,,,,,,,,,,,,,W,146,circle,1,0,,,,,,,,,,,,,,,,switch,letter,lettSwt,f,0.44,Lo,,,,,,1,,,,,,,,high,8,0,8,0,1,,,,,,,,,
297205,2022-12-05_13h00.23.035,vts_reward_expectancy_bt,2022.2.4,Win32,59.7193192,Chrome,1504,1003,,,,,1,923,,,,,,,,,,,,,,,,,B,174,triangle,1,0,,,,,,,,,,,,,,,,repeat,letter,lettRpt,d,0.3719,Lo,,,,,,1,,,,,,,,high,9,0,9,0,1,,,,,,,,,
297205,2022-12-05_13h00.23.035,vts_reward_expectancy_bt,2022.2.4,Win32,59.7193192,Chrome,1504,1003,,,,,10,933,,,,,,,,,,,,,,,,,H,139,star,1,0,,,,,,,,,,,,,,,,switch,number,numSwt,j,0.4166,Hi,,,,,,1,,,,,,,,high,10,0,10,0,1,,,,,,,,,
297205,2022-12-05_13h00.23.035,vts_reward_expectancy_bt,2022.2.4,Win32,59.7193192,Chrome,1504,1003,,,,,0,933,,,,,,,,,,,,,,,,,F,181,hexagon,1,0,,,,,,,,,,,,,,,,repeat,number,numRpt,k,0.4867,Hi,,,,,,1,,,,,,,,high,11,0,11,0,1,,,,,,,,,
297205,2022-12-05_13h00.23.035,vts_reward_expectancy_bt,2022.2.4,Win32,59.7193192,Chrome,1504,1003,,,,,1,934,,,,,,,,,,,,,,,,,S,160,circle,1,0,,,,,,,,,,,,,,,,switch,letter,lettSwt,f,0.5507,Lo,,,,,,1,,,,,,,,high,12,0,12,0,1,,,,,,,,,
297205,2022-12-05_13h00.23.035,vts_reward_expectancy_bt,2022.2.4,Win32,59.7193192,Chrome,1504,1003,,,,,1,935,,,,,,,,,,,,,,,,,D,167,triangle,1,0,,,,,,,,,,,,,,,,repeat,letter,lettRpt,d,0.4672,Lo,,,,,,1,,,,,,,,high,13,0,13,0,1,,,,,,,,,
297205,2022-12-05_13h00.23.035,vts_reward_expectancy_bt,2022.2.4,Win32,59.7193192,Chrome,1504,1003,,,,,1,936,,,,,,,,,,,,,,,,,U,125,hexagon,1,0,,,,,,,,,,,,,,,,repeat,letter,lettRpt,f,0.3691,Hi,,,,,,1,,,,,,,,high,14,0,14,0,1,,,,,,,,,
297205,2022-12-05_13h00.23.035,vts_reward_expectancy_bt,2022.2.4,Win32,59.7193192,Chrome,1504,1003,,,,,10,946,,,,,,,,,,,,,,,,,Y,132,star,1,0,,,,,,,,,,,,,,,,switch,number,numSwt,j,0.4223,Hi,,,,,,1,,,,,,,,high,15,0,15,0,1,,,,,,,,,
297205,2022-12-05_13h00.23.035,vts_reward_expectancy_bt,2022.2.4,Win32,59.7193192,Chrome,1504,1003,,,,,1,947,,,,,,,,,,,,,,,,,U,146,triangle,1,0,,,,,,,,,,,,,,,,repeat,number,numRpt,j,0.4547,Lo,,,,,,1,,,,,,,,high,16,0,16,0,1,,,,,,,,,
297205,2022-12-05_13h00.23.035,vts_reward_expectancy_bt,2022.2.4,Win32,59.7193192,Chrome,1504,1003,,,,,10,957,,,,,,,,,,,,,,,,,S,125,star,1,0,,,,,,,,,,,,,,,,repeat,number,numRpt,j,0.4213,Hi,,,,,,1,,,,,,,,high,17,0,17,0,1,,,,,,,,,
297205,2022-12-05_13h00.23.035,vts_reward_expectancy_bt,2022.2.4,Win32,59.7193192,Chrome,1504,1003,,,,,10,967,,,,,,,,,,,,,,,,,B,139,hexagon,1,0,,,,,,,,,,,,,,,,switch,letter,lettSwt,d,0.5005,Hi,,,,,,1,,,,,,,,high,18,0,18,0,1,,,,,,,,,
297205,2022-12-05_13h00.23.035,vts_reward_expectancy_bt,2022.2.4,Win32,59.7193192,Chrome,1504,1003,,,,,1,968,,,,,,,,,,,,,,,,,Y,181,circle,1,0,,,,,,,,,,,,,,,,repeat,letter,lettRpt,f,0.4838,Lo,,,,,,1,,,,,,,,high,19,0,19,0,1,,,,,,,,,
297205,2022-12-05_13h00.23.035,vts_reward_expectancy_bt,2022.2.4,Win32,59.7193192,Chrome,1504,1003,,,,,10,978,,,,,,,,,,,,,,,,,H,167,star,1,0,,,,,,,,,,,,,,,,switch,number,numSwt,k,0.3837,Hi,,,,,,1,,,,,,,,high,20,0,20,0,1,,,,,,,,,
297205,2022-12-05_13h00.23.035,vts_reward_expectancy_bt,2022.2.4,Win32,59.7193192,Chrome,1504,1003,,,,,10,988,,,,,,,,,,,,,,,,,F,174,hexagon,1,0,,,,,,,,,,,,,,,,repeat,number,numRpt,k,0.4051,Hi,,,,,,1,,,,,,,,high,21,0,21,0,1,,,,,,,,,
297205,2022-12-05_13h00.23.035,vts_reward_expectancy_bt,2022.2.4,Win32,59.7193192,Chrome,1504,1003,,,,,1,989,,,,,,,,,,,,,,,,,W,160,circle,1,0,,,,,,,,,,,,,,,,switch,letter,lettSwt,f,0.4396,Lo,,,,,,1,,,,,,,,high,22,0,22,0,1,,,,,,,,,
297205,2022-12-05_13h00.23.035,vts_reward_expectancy_bt,2022.2.4,Win32,59.7193192,Chrome,1504,1003,,,,,1,990,,,,,,,,,,,,,,,,,D,132,triangle,1,0,,,,,,,,,,,,,,,,repeat,letter,lettRpt,d,0.419,Lo,,,,,,1,,,,,,,,high,23,0,23,0,1,,,,,,,,,
297205,2022-12-05_13h00.23.035,vts_reward_expectancy_bt,2022.2.4,Win32,59.7193192,Chrome,1504,1003,,,,,1,991,,,,,,,,,,,,,,,,,F,174,triangle,1,0,,,,,,,,,,,,,,,,switch,number,numSwt,k,0.6212,Lo,,,,,,1,,,,,,,,high,24,0,24,0,1,,,,,,,,,
297205,2022-12-05_13h00.23.035,vts_reward_expectancy_bt,2022.2.4,Win32,59.7193192,Chrome,1504,1003,,,,,10,1001,,,,,,,,,,,,,,,,,S,181,star,1,0,,,,,,,,,,,,,,,,repeat,number,numRpt,k,0.4217,Hi,,,,,,1,,,,,,,,high,25,0,25,0,1,,,,,,,,,
297205,2022-12-05_13h00.23.035,vts_reward_expectancy_bt,2022.2.4,Win32,59.7193192,Chrome,1504,1003,,,,,1,1002,,,,,,,,,,,,,,,,,H,139,hexagon,1,0,,,,,,,,,,,,,,,,switch,letter,lettSwt,d,0.3847,Hi,,,,,,1,,,,,,,,high,26,0,26,0,1,,,,,,,,,
297205,2022-12-05_13h00.23.035,vts_reward_expectancy_bt,2022.2.4,Win32,59.7193192,Chrome,1504,1003,,,,,1,1003,,,,,,,,,,,,,,,,,W,125,circle,1,0,,,,,,,,,,,,,,,,repeat,letter,lettRpt,f,0.5749,Lo,,,,,,1,,,,,,,,high,27,0,27,0,1,,,,,,,,,
297205,2022-12-05_13h00.23.035,vts_reward_expectancy_bt,2022.2.4,Win32,59.7193192,Chrome,1504,1003,,,,,10,1013,,,,,,,,,,,,,,,,,D,160,triangle,1,0,,,,,,,,,,,,,,,,switch,number,numSwt,k,0.4675,Lo,,,,,,1,,,,,,,,high,28,0,28,0,1,,,,,,,,,
297205,2022-12-05_13h00.23.035,vts_reward_expectancy_bt,2022.2.4,Win32,59.7193192,Chrome,1504,1003,,,,,1,1014,,,,,,,,,,,,,,,,,B,146,circle,1,0,,,,,,,,,,,,,,,,repeat,number,numRpt,j,0.4844,Lo,,,,,,1,,,,,,,,high,29,0,29,0,1,,,,,,,,,
297205,2022-12-05_13h00.23.035,vts_reward_expectancy_bt,2022.2.4,Win32,59.7193192,Chrome,1504,1003,,,,,10,1024,,,,,,,,,,,,,,,,,Y,132,hexagon,1,0,,,,,,,,,,,,,,,,switch,letter,lettSwt,f,0.5006,Hi,,,,,,1,,,,,,,,high,30,0,30,0,1,,,,,,,,,
297205,2022-12-05_13h00.23.035,vts_reward_expectancy_bt,2022.2.4,Win32,59.7193192,Chrome,1504,1003,,,,,0,1024,,,,,,,,,,,,,,,,,U,167,star,1,0,,,,,,,,,,,,,,,,switch,number,numSwt,k,0.6337,Hi,,,,,,1,,,,,,,,high,31,0,31,0,1,,,,,,,,,
297205,2022-12-05_13h00.23.035,vts_reward_expectancy_bt,2022.2.4,Win32,59.7193192,Chrome,1504,1003,,,,,1,1025,,,,,,,,,,,,,,,,,S,160,triangle,1,0,,,,,,,,,,,,,,,,switch,letter,lettSwt,f,0.6005,Lo,,,,,,2,,,,,,space,2.003,high,0,0,0,0,1,,,,,,,,,
297205,2022-12-05_13h00.23.035,vts_reward_expectancy_bt,2022.2.4,Win32,59.7193192,Chrome,1504,1003,,,,,10,1035,,,,,,,,,,,,,,,,,H,174,circle,1,0,,,,,,,,,,,,,,,,repeat,letter,lettRpt,d,0.4339,Lo,,,,,,2,,,,,,,,high,1,0,1,0,1,,,,,,,,,
297205,2022-12-05_13h00.23.035,vts_reward_expectancy_bt,2022.2.4,Win32,59.7193192,Chrome,1504,1003,,,,,0,1035,,,,,,,,,,,,,,,,,B,146,star,0,0,,,,,,,,,,,,,,,,repeat,letter,NA,f,0.4261,Lo,,,,,,2,,,,,,,,high,2,0,2,0,1,,,,,,,,,
297205,2022-12-05_13h00.23.035,vts_reward_expectancy_bt,2022.2.4,Win32,59.7193192,Chrome,1504,1003,,,,,0,1035,,,,,,,,,,,,,,,,,U,139,hexagon,1,1,,,,,,,,,,,,,,,,switch,number,numSwt,j,0.6171,Hi,,,,,,2,,,,,,,,high,3,0,3,0,1,,,,,,,,,
297205,2022-12-05_13h00.23.035,vts_reward_expectancy_bt,2022.2.4,Win32,59.7193192,Chrome,1504,1003,,,,,0,1035,,,,,,,,,,,,,,,,,W,181,triangle,0,0,,,,,,,,,,,,,,,,repeat,number,NA,j,0.4836,Hi,,,,,,2,,,,,,,,high,4,0,4,0,1,,,,,,,,,
297205,2022-12-05_13h00.23.035,vts_reward_expectancy_bt,2022.2.4,Win32,59.7193192,Chrome,1504,1003,,,,,10,1045,,,,,,,,,,,,,,,,,Y,125,circle,1,1,,,,,,,,,,,,,,,,switch,letter,lettSwt,f,0.4697,Lo,,,,,,2,,,,,,,,high,5,0,5,0,1,,,,,,,,,
297205,2022-12-05_13h00.23.035,vts_reward_expectancy_bt,2022.2.4,Win32,59.7193192,Chrome,1504,1003,,,,,0,1045,,,,,,,,,,,,,,,,,D,167,star,1,0,,,,,,,,,,,,,,,,repeat,letter,lettRpt,d,0.5335,Hi,,,,,,2,,,,,,,,high,6,0,6,0,1,,,,,,,,,
297205,2022-12-05_13h00.23.035,vts_reward_expectancy_bt,2022.2.4,Win32,59.7193192,Chrome,1504,1003,,,,,0,1045,,,,,,,,,,,,,,,,,F,132,hexagon,1,0,,,,,,,,,,,,,,,,repeat,letter,lettRpt,d,0.5752,Hi,,,,,,2,,,,,,,,high,7,0,7,0,1,,,,,,,,,
297205,2022-12-05_13h00.23.035,vts_reward_expectancy_bt,2022.2.4,Win32,59.7193192,Chrome,1504,1003,,,,,0,1045,,,,,,,,,,,,,,,,,S,160,star,0,0,,,,,,,,,,,,,,,,repeat,letter,NA,d,0.5005,Hi,,,,,,2,,,,,,,,high,8,0,8,0,1,,,,,,,,,
297205,2022-12-05_13h00.23.035,vts_reward_expectancy_bt,2022.2.4,Win32,59.7193192,Chrome,1504,1003,,,,,10,1055,,,,,,,,,,,,,,,,,H,174,triangle,1,1,,,,,,,,,,,,,,,,switch,number,numSwt,k,0.3518,Lo,,,,,,2,,,,,,,,high,9,0,9,0,1,,,,,,,,,
297205,2022-12-05_13h00.23.035,vts_reward_expectancy_bt,2022.2.4,Win32,59.7193192,Chrome,1504,1003,,,,,10,1065,,,,,,,,,,,,,,,,,B,146,circle,1,0,,,,,,,,,,,,,,,,repeat,number,numRpt,j,0.4339,Lo,,,,,,2,,,,,,,,high,10,0,10,0,1,,,,,,,,,
297205,2022-12-05_13h00.23.035,vts_reward_expectancy_bt,2022.2.4,Win32,59.7193192,Chrome,1504,1003,,,,,0,1065,,,,,,,,,,,,,,,,,U,139,hexagon,1,0,,,,,,,,,,,,,,,,repeat,number,numRpt,j,0.4534,Hi,,,,,,2,,,,,,,,high,11,0,11,0,1,,,,,,,,,
297205,2022-12-05_13h00.23.035,vts_reward_expectancy_bt,2022.2.4,Win32,59.7193192,Chrome,1504,1003,,,,,1,1066,,,,,,,,,,,,,,,,,W,181,triangle,1,0,,,,,,,,,,,,,,,,repeat,number,numRpt,k,0.5679,Lo,,,,,,2,,,,,,,,high,12,0,12,0,1,,,,,,,,,
297205,2022-12-05_13h00.23.035,vts_reward_expectancy_bt,2022.2.4,Win32,59.7193192,Chrome,1504,1003,,,,,0,1066,,,,,,,,,,,,,,,,,Y,125,circle,0,0,,,,,,,,,,,,,,,,switch,letter,NA,d,0.543,Lo,,,,,,2,,,,,,,,high,13,0,13,0,1,,,,,,,,,
297205,2022-12-05_13h00.23.035,vts_reward_expectancy_bt,2022.2.4,Win32,59.7193192,Chrome,1504,1003,,,,,10,1076,,,,,,,,,,,,,,,,,D,167,hexagon,1,1,,,,,,,,,,,,,,,,repeat,letter,lettRpt,d,0.3159,Hi,,,,,,2,,,,,,,,high,14,0,14,0,1,,,,,,,,,
297205,2022-12-05_13h00.23.035,vts_reward_expectancy_bt,2022.2.4,Win32,59.7193192,Chrome,1504,1003,,,,,10,1086,,,,,,,,,,,,,,,,,F,132,star,1,0,,,,,,,,,,,,,,,,switch,number,numSwt,j,0.3589,Hi,,,,,,2,,,,,,,,high,15,0,15,0,1,,,,,,,,,
297205,2022-12-05_13h00.23.035,vts_reward_expectancy_bt,2022.2.4,Win32,59.7193192,Chrome,1504,1003,,,,,1,1087,,,,,,,,,,,,,,,,,B,146,circle,1,0,,,,,,,,,,,,,,,,repeat,number,numRpt,j,0.4256,Lo,,,,,,2,,,,,,,,high,16,0,16,0,1,,,,,,,,,
297205,2022-12-05_13h00.23.035,vts_reward_expectancy_bt,2022.2.4,Win32,59.7193192,Chrome,1504,1003,,,,,0,1087,,,,,,,,,,,,,,,,,Y,167,hexagon,1,0,,,,,,,,,,,,,,,,switch,letter,lettSwt,f,0.4916,Hi,,,,,,2,,,,,,,,high,17,0,17,0,1,,,,,,,,,
297205,2022-12-05_13h00.23.035,vts_reward_expectancy_bt,2022.2.4,Win32,59.7193192,Chrome,1504,1003,,,,,0,1087,,,,,,,,,,,,,,,,,S,125,star,0,0,,,,,,,,,,,,,,,,repeat,letter,NA,d,0.4706,Hi,,,,,,2,,,,,,,,high,18,0,18,0,1,,,,,,,,,
297205,2022-12-05_13h00.23.035,vts_reward_expectancy_bt,2022.2.4,Win32,59.7193192,Chrome,1504,1003,,,,,10,1097,,,,,,,,,,,,,,,,,W,139,triangle,1,1,,,,,,,,,,,,,,,,repeat,letter,lettRpt,f,0.5171,Lo,,,,,,2,,,,,,,,high,19,0,19,0,1,,,,,,,,,
297205,2022-12-05_13h00.23.035,vts_reward_expectancy_bt,2022.2.4,Win32,59.7193192,Chrome,1504,1003,,,,,1,1098,,,,,,,,,,,,,,,,,F,181,triangle,1,0,,,,,,,,,,,,,,,,repeat,letter,lettRpt,d,0.7344,Lo,,,,,,2,,,,,,,,high,20,0,20,0,1,,,,,,,,,
297205,2022-12-05_13h00.23.035,vts_reward_expectancy_bt,2022.2.4,Win32,59.7193192,Chrome,1504,1003,,,,,1,1099,,,,,,,,,,,,,,,,,U,160,hexagon,1,0,,,,,,,,,,,,,,,,switch,number,numSwt,k,0.3877,Hi,,,,,,2,,,,,,,,high,21,0,21,0,1,,,,,,,,,
297205,2022-12-05_13h00.23.035,vts_reward_expectancy_bt,2022.2.4,Win32,59.7193192,Chrome,1504,1003,,,,,0,1099,,,,,,,,,,,,,,,,,D,132,star,1,0,,,,,,,,,,,,,,,,repeat,number,numRpt,j,0.5669,Hi,,,,,,2,,,,,,,,high,22,0,22,0,1,,,,,,,,,
297205,2022-12-05_13h00.23.035,vts_reward_expectancy_bt,2022.2.4,Win32,59.7193192,Chrome,1504,1003,,,,,1,1100,,,,,,,,,,,,,,,,,H,174,circle,1,0,,,,,,,,,,,,,,,,repeat,number,numRpt,k,0.6738,Lo,,,,,,2,,,,,,,,high,23,0,23,0,1,,,,,,,,,
297205,2022-12-05_13h00.23.035,vts_reward_expectancy_bt,2022.2.4,Win32,59.7193192,Chrome,1504,1003,,,,,0,1100,,,,,,,,,,,,,,,,,B,181,star,1,0,,,,,,,,,,,,,,,,switch,letter,lettSwt,d,0.4839,Hi,,,,,,2,,,,,,,,high,24,0,24,0,1,,,,,,,,,
297205,2022-12-05_13h00.23.035,vts_reward_expectancy_bt,2022.2.4,Win32,59.7193192,Chrome,1504,1003,,,,,0,1100,,,,,,,,,,,,,,,,,W,139,hexagon,1,0,,,,,,,,,,,,,,,,repeat,letter,lettRpt,f,0.6173,Hi,,,,,,2,,,,,,,,high,25,0,25,0,1,,,,,,,,,
297205,2022-12-05_13h00.23.035,vts_reward_expectancy_bt,2022.2.4,Win32,59.7193192,Chrome,1504,1003,,,,,1,1101,,,,,,,,,,,,,,,,,H,167,triangle,1,0,,,,,,,,,,,,,,,,repeat,letter,lettRpt,d,0.6675,Lo,,,,,,2,,,,,,,,high,26,0,26,0,1,,,,,,,,,
297205,2022-12-05_13h00.23.035,vts_reward_expectancy_bt,2022.2.4,Win32,59.7193192,Chrome,1504,1003,,,,,1,1102,,,,,,,,,,,,,,,,,S,125,circle,1,0,,,,,,,,,,,,,,,,switch,number,numSwt,j,0.467,Lo,,,,,,2,,,,,,,,high,27,0,27,0,1,,,,,,,,,
297205,2022-12-05_13h00.23.035,vts_reward_expectancy_bt,2022.2.4,Win32,59.7193192,Chrome,1504,1003,,,,,0,1102,,,,,,,,,,,,,,,,,U,160,star,1,0,,,,,,,,,,,,,,,,repeat,number,numRpt,k,0.5487,Hi,,,,,,2,,,,,,,,high,28,0,28,0,1,,,,,,,,,
297205,2022-12-05_13h00.23.035,vts_reward_expectancy_bt,2022.2.4,Win32,59.7193192,Chrome,1504,1003,,,,,1,1103,,,,,,,,,,,,,,,,,F,132,circle,1,0,,,,,,,,,,,,,,,,repeat,number,numRpt,j,0.4842,Lo,,,,,,2,,,,,,,,high,29,0,29,0,1,,,,,,,,,
297205,2022-12-05_13h00.23.035,vts_reward_expectancy_bt,2022.2.4,Win32,59.7193192,Chrome,1504,1003,,,,,0,1103,,,,,,,,,,,,,,,,,D,174,hexagon,1,0,,,,,,,,,,,,,,,,repeat,number,numRpt,k,0.4769,Hi,,,,,,2,,,,,,,,high,30,0,30,0,1,,,,,,,,,
297205,2022-12-05_13h00.23.035,vts_reward_expectancy_bt,2022.2.4,Win32,59.7193192,Chrome,1504,1003,,,,,1,1104,,,,,,,,,,,,,,,,,Y,146,triangle,1,0,,,,,,,,,,,,,,,,switch,letter,lettSwt,f,0.4118,Lo,,,,,,2,,,,,,,,high,31,0,31,0,1,,,,,,,,,
297205,2022-12-05_13h00.23.035,vts_reward_expectancy_bt,2022.2.4,Win32,59.7193192,Chrome,1504,1003,,,,,0,1104,,,,,,,,,,,,,,,,,F,139,star,0,0,,,,,,,,,,,,,,,,repeat,letter,NA,f,0.3511,Lo,,,,,,3,,,,,,space,0.8187,high,0,0,0,0,1,,,,,,,,,
297205,2022-12-05_13h00.23.035,vts_reward_expectancy_bt,2022.2.4,Win32,59.7193192,Chrome,1504,1003,,,,,1,1105,,,,,,,,,,,,,,,,,U,167,triangle,1,1,,,,,,,,,,,,,,,,repeat,letter,lettRpt,f,0.5901,Lo,,,,,,3,,,,,,,,high,1,0,1,0,1,,,,,,,,,
297205,2022-12-05_13h00.23.035,vts_reward_expectancy_bt,2022.2.4,Win32,59.7193192,Chrome,1504,1003,,,,,1,1106,,,,,,,,,,,,,,,,,D,181,circle,1,0,,,,,,,,,,,,,,,,switch,number,numSwt,k,0.4914,Lo,,,,,,3,,,,,,,,high,2,0,2,0,1,,,,,,,,,
297205,2022-12-05_13h00.23.035,vts_reward_expectancy_bt,2022.2.4,Win32,59.7193192,Chrome,1504,1003,,,,,1,1107,,,,,,,,,,,,,,,,,W,146,hexagon,1,0,,,,,,,,,,,,,,,,repeat,number,numRpt,j,0.4501,Hi,,,,,,3,,,,,,,,high,3,0,3,0,1,,,,,,,,,
297205,2022-12-05_13h00.23.035,vts_reward_expectancy_bt,2022.2.4,Win32,59.7193192,Chrome,1504,1003,,,,,0,1107,,,,,,,,,,,,,,,,,Y,132,star,1,0,,,,,,,,,,,,,,,,switch,letter,lettSwt,f,0.4837,Hi,,,,,,3,,,,,,,,high,4,0,4,0,1,,,,,,,,,
297205,2022-12-05_13h00.23.035,vts_reward_expectancy_bt,2022.2.4,Win32,59.7193192,Chrome,1504,1003,,,,,1,1108,,,,,,,,,,,,,,,,,S,160,triangle,1,0,,,,,,,,,,,,,,,,repeat,letter,lettRpt,f,0.4674,Lo,,,,,,3,,,,,,,,high,5,0,5,0,1,,,,,,,,,
297205,2022-12-05_13h00.23.035,vts_reward_expectancy_bt,2022.2.4,Win32,59.7193192,Chrome,1504,1003,,,,,1,1109,,,,,,,,,,,,,,,,,H,125,circle,1,0,,,,,,,,,,,,,,,,switch,number,numSwt,j,0.4175,Lo,,,,,,3,,,,,,,,high,6,0,6,0,1,,,,,,,,,
297205,2022-12-05_13h00.23.035,vts_reward_expectancy_bt,2022.2.4,Win32,59.7193192,Chrome,1504,1003,,,,,10,1119,,,,,,,,,,,,,,,,,B,174,hexagon,1,0,,,,,,,,,,,,,,,,repeat,number,numRpt,k,0.3673,Hi,,,,,,3,,,,,,,,high,7,0,7,0,1,,,,,,,,,
297205,2022-12-05_13h00.23.035,vts_reward_expectancy_bt,2022.2.4,Win32,59.7193192,Chrome,1504,1003,,,,,0,1119,,,,,,,,,,,,,,,,,F,139,star,1,0,,,,,,,,,,,,,,,,repeat,number,numRpt,j,0.5508,Hi,,,,,,3,,,,,,,,high,8,0,8,0,1,,,,,,,,,
297205,2022-12-05_13h00.23.035,vts_reward_expectancy_bt,2022.2.4,Win32,59.7193192,Chrome,1504,1003,,,,,0,1119,,,,,,,,,,,,,,,,,U,167,hexagon,0,0,,,,,,,,,,,,,,,,switch,letter,NA,d,0.4864,Hi,,,,,,3,,,,,,,,high,9,0,9,0,1,,,,,,,,,
297205,2022-12-05_13h00.23.035,vts_reward_expectancy_bt,2022.2.4,Win32,59.7193192,Chrome,1504,1003,,,,,1,1120,,,,,,,,,,,,,,,,,D,181,triangle,1,1,,,,,,,,,,,,,,,,repeat,letter,lettRpt,d,0.4176,Lo,,,,,,3,,,,,,,,high,10,0,10,0,1,,,,,,,,,
297205,2022-12-05_13h00.23.035,vts_reward_expectancy_bt,2022.2.4,Win32,59.7193192,Chrome,1504,1003,,,,,1,1121,,,,,,,,,,,,,,,,,W,146,circle,1,0,,,,,,,,,,,,,,,,switch,number,numSwt,j,0.3566,Lo,,,,,,3,,,,,,,,high,11,0,11,0,1,,,,,,,,,
297205,2022-12-05_13h00.23.035,vts_reward_expectancy_bt,2022.2.4,Win32,59.7193192,Chrome,1504,1003,,,,,10,1131,,,,,,,,,,,,,,,,,Y,132,star,1,0,,,,,,,,,,,,,,,,repeat,number,numRpt,j,0.4043,Hi,,,,,,3,,,,,,,,high,12,0,12,0,1,,,,,,,,,
297205,2022-12-05_13h00.23.035,vts_reward_expectancy_bt,2022.2.4,Win32,59.7193192,Chrome,1504,1003,,,,,1,1132,,,,,,,,,,,,,,,,,S,160,circle,1,0,,,,,,,,,,,,,,,,repeat,number,numRpt,k,0.4415,Lo,,,,,,3,,,,,,,,high,13,0,13,0,1,,,,,,,,,
297205,2022-12-05_13h00.23.035,vts_reward_expectancy_bt,2022.2.4,Win32,59.7193192,Chrome,1504,1003,,,,,0,1132,,,,,,,,,,,,,,,,,H,125,hexagon,0,0,,,,,,,,,,,,,,,,switch,letter,NA,f,0.4017,Lo,,,,,,3,,,,,,,,high,14,0,14,0,1,,,,,,,,,
297205,2022-12-05_13h00.23.035,vts_reward_expectancy_bt,2022.2.4,Win32,59.7193192,Chrome,1504,1003,,,,,1,1133,,,,,,,,,,,,,,,,,B,174,triangle,1,1,,,,,,,,,,,,,,,,repeat,letter,lettRpt,d,0.4341,Lo,,,,,,3,,,,,,,,high,15,0,15,0,1,,,,,,,,,
297205,2022-12-05_13h00.23.035,vts_reward_expectancy_bt,2022.2.4,Win32,59.7193192,Chrome,1504,1003,,,,,1,1134,,,,,,,,,,,,,,,,,Y,160,hexagon,1,0,,,,,,,,,,,,,,,,repeat,letter,lettRpt,f,0.4349,Hi,,,,,,3,,,,,,,,high,16,0,16,0,1,,,,,,,,,
297205,2022-12-05_13h00.23.035,vts_reward_expectancy_bt,2022.2.4,Win32,59.7193192,Chrome,1504,1003,,,,,1,1135,,,,,,,,,,,,,,,,,W,125,triangle,1,0,,,,,,,,,,,,,,,,repeat,letter,lettRpt,f,0.514,Lo,,,,,,3,,,,,,,,high,17,0,17,0,1,,,,,,,,,
297205,2022-12-05_13h00.23.035,vts_reward_expectancy_bt,2022.2.4,Win32,59.7193192,Chrome,1504,1003,,,,,0,1135,,,,,,,,,,,,,,,,,U,181,star,1,0,,,,,,,,,,,,,,,,switch,number,numSwt,k,0.5009,Hi,,,,,,3,,,,,,,,high,18,0,18,0,1,,,,,,,,,
297205,2022-12-05_13h00.23.035,vts_reward_expectancy_bt,2022.2.4,Win32,59.7193192,Chrome,1504,1003,,,,,10,1145,,,,,,,,,,,,,,,,,F,167,circle,1,0,,,,,,,,,,,,,,,,repeat,number,numRpt,k,0.5867,Lo,,,,,,3,,,,,,,,high,19,0,19,0,1,,,,,,,,,
297205,2022-12-05_13h00.23.035,vts_reward_expectancy_bt,2022.2.4,Win32,59.7193192,Chrome,1504,1003,,,,,1,1146,,,,,,,,,,,,,,,,,B,132,triangle,1,0,,,,,,,,,,,,,,,,switch,letter,lettSwt,d,0.4502,Lo,,,,,,3,,,,,,,,high,20,0,20,0,1,,,,,,,,,
297205,2022-12-05_13h00.23.035,vts_reward_expectancy_bt,2022.2.4,Win32,59.7193192,Chrome,1504,1003,,,,,1,1147,,,,,,,,,,,,,,,,,D,139,circle,1,0,,,,,,,,,,,,,,,,switch,number,numSwt,j,0.4508,Lo,,,,,,3,,,,,,,,high,21,0,21,0,1,,,,,,,,,
297205,2022-12-05_13h00.23.035,vts_reward_expectancy_bt,2022.2.4,Win32,59.7193192,Chrome,1504,1003,,,,,10,1157,,,,,,,,,,,,,,,,,H,146,hexagon,1,0,,,,,,,,,,,,,,,,switch,letter,lettSwt,d,0.451,Hi,,,,,,3,,,,,,,,high,22,0,22,0,1,,,,,,,,,
297205,2022-12-05_13h00.23.035,vts_reward_expectancy_bt,2022.2.4,Win32,59.7193192,Chrome,1504,1003,,,,,0,1157,,,,,,,,,,,,,,,,,S,174,star,1,0,,,,,,,,,,,,,,,,repeat,letter,lettRpt,f,0.5229,Hi,,,,,,3,,,,,,,,high,23,0,23,0,1,,,,,,,,,
297205,2022-12-05_13h00.23.035,vts_reward_expectancy_bt,2022.2.4,Win32,59.7193192,Chrome,1504,1003,,,,,1,1158,,,,,,,,,,,,,,,,,H,139,circle,1,0,,,,,,,,,,,,,,,,repeat,letter,lettRpt,d,0.3705,Lo,,,,,,3,,,,,,,,high,24,0,24,0,1,,,,,,,,,
297205,2022-12-05_13h00.23.035,vts_reward_expectancy_bt,2022.2.4,Win32,59.7193192,Chrome,1504,1003,,,,,1,1159,,,,,,,,,,,,,,,,,S,125,triangle,1,0,,,,,,,,,,,,,,,,repeat,letter,lettRpt,f,0.5007,Lo,,,,,,3,,,,,,,,high,25,0,25,0,1,,,,,,,,,
297205,2022-12-05_13h00.23.035,vts_reward_expectancy_bt,2022.2.4,Win32,59.7193192,Chrome,1504,1003,,,,,10,1169,,,,,,,,,,,,,,,,,B,167,star,1,0,,,,,,,,,,,,,,,,repeat,letter,lettRpt,d,0.3408,Hi,,,,,,3,,,,,,,,high,26,0,26,0,1,,,,,,,,,
297205,2022-12-05_13h00.23.035,vts_reward_expectancy_bt,2022.2.4,Win32,59.7193192,Chrome,1504,1003,,,,,1,1170,,,,,,,,,,,,,,,,,Y,181,hexagon,1,0,,,,,,,,,,,,,,,,switch,number,numSwt,k,0.3514,Hi,,,,,,3,,,,,,,,high,27,0,27,0,1,,,,,,,,,
297205,2022-12-05_13h00.23.035,vts_reward_expectancy_bt,2022.2.4,Win32,59.7193192,Chrome,1504,1003,,,,,0,1170,,,,,,,,,,,,,,,,,F,174,circle,0,0,,,,,,,,,,,,,,,,repeat,number,NA,j,0.4677,Hi,,,,,,3,,,,,,,,high,28,0,28,0,1,,,,,,,,,
297205,2022-12-05_13h00.23.035,vts_reward_expectancy_bt,2022.2.4,Win32,59.7193192,Chrome,1504,1003,,,,,0,1170,,,,,,,,,,,,,,,,,W,146,hexagon,1,1,,,,,,,,,,,,,,,,repeat,number,numRpt,j,0.5337,Hi,,,,,,3,,,,,,,,high,29,0,29,0,1,,,,,,,,,
297205,2022-12-05_13h00.23.035,vts_reward_expectancy_bt,2022.2.4,Win32,59.7193192,Chrome,1504,1003,,,,,1,1171,,,,,,,,,,,,,,,,,U,160,triangle,1,0,,,,,,,,,,,,,,,,repeat,number,numRpt,k,0.4531,Lo,,,,,,3,,,,,,,,high,30,0,30,0,1,,,,,,,,,
297205,2022-12-05_13h00.23.035,vts_reward_expectancy_bt,2022.2.4,Win32,59.7193192,Chrome,1504,1003,,,,,10,1181,,,,,,,,,,,,,,,,,D,132,star,1,0,,,,,,,,,,,,,,,,repeat,number,numRpt,j,0.3175,Hi,,,,,,3,,,,,,,,high,31,0,31,0,1,,,,,,,,,
297205,2022-12-05_13h00.23.035,vts_reward_expectancy_bt,2022.2.4,Win32,59.7193192,Chrome,1504,1003,,,,,1,1182,,,,,,,,,,,,,,,,,B,139,circle,1,0,,,,,,,,,,,,,,,,switch,letter,lettSwt,d,0.4728,Lo,,,,,,4,,,,,,space,0.451,high,0,0,0,0,1,,,,,,,,,
297205,2022-12-05_13h00.23.035,vts_reward_expectancy_bt,2022.2.4,Win32,59.7193192,Chrome,1504,1003,,,,,0,1182,,,,,,,,,,,,,,,,,D,125,hexagon,1,0,,,,,,,,,,,,,,,,repeat,letter,lettRpt,d,0.5682,Hi,,,,,,4,,,,,,,,high,1,0,1,0,1,,,,,,,,,
297205,2022-12-05_13h00.23.035,vts_reward_expectancy_bt,2022.2.4,Win32,59.7193192,Chrome,1504,1003,,,,,0,1182,,,,,,,,,,,,,,,,,Y,146,star,1,0,,,,,,,,,,,,,,,,repeat,letter,lettRpt,f,0.4882,Hi,,,,,,4,,,,,,,,high,2,0,2,0,1,,,,,,,,,
297205,2022-12-05_13h00.23.035,vts_reward_expectancy_bt,2022.2.4,Win32,59.7193192,Chrome,1504,1003,,,,,1,1183,,,,,,,,,,,,,,,,,F,181,triangle,1,0,,,,,,,,,,,,,,,,switch,number,numSwt,k,0.237,Lo,,,,,,4,,,,,,,,high,3,0,3,0,1,,,,,,,,,
297205,2022-12-05_13h00.23.035,vts_reward_expectancy_bt,2022.2.4,Win32,59.7193192,Chrome,1504,1003,,,,,1,1184,,,,,,,,,,,,,,,,,S,160,circle,1,0,,,,,,,,,,,,,,,,repeat,number,numRpt,k,0.4021,Lo,,,,,,4,,,,,,,,high,4,0,4,0,1,,,,,,,,,
297205,2022-12-05_13h00.23.035,vts_reward_expectancy_bt,2022.2.4,Win32,59.7193192,Chrome,1504,1003,,,,,1,1185,,,,,,,,,,,,,,,,,U,174,hexagon,1,0,,,,,,,,,,,,,,,,repeat,number,numRpt,k,0.3841,Hi,,,,,,4,,,,,,,,high,5,0,5,0,1,,,,,,,,,
297205,2022-12-05_13h00.23.035,vts_reward_expectancy_bt,2022.2.4,Win32,59.7193192,Chrome,1504,1003,,,,,1,1186,,,,,,,,,,,,,,,,,H,132,star,1,0,,,,,,,,,,,,,,,,repeat,number,numRpt,j,0.2567,Hi,,,,,,4,,,,,,,,high,6,0,6,0,1,,,,,,,,,
297205,2022-12-05_13h00.23.035,vts_reward_expectancy_bt,2022.2.4,Win32,59.7193192,Chrome,1504,1003,,,,,1,1187,,,,,,,,,,,,,,,,,W,167,triangle,1,0,,,,,,,,,,,,,,,,repeat,number,numRpt,k,0.4454,Lo,,,,,,4,,,,,,,,high,7,0,7,0,1,,,,,,,,,
297205,2022-12-05_13h00.23.035,vts_reward_expectancy_bt,2022.2.4,Win32,59.7193192,Chrome,1504,1003,,,,,0,1187,,,,,,,,,,,,,,,,,B,139,hexagon,0,0,,,,,,,,,,,,,,,,switch,letter,NA,f,0.3247,Lo,,,,,,4,,,,,,,,high,8,0,8,0,1,,,,,,,,,
297205,2022-12-05_13h00.23.035,vts_reward_expectancy_bt,2022.2.4,Win32,59.7193192,Chrome,1504,1003,,,,,10,1197,,,,,,,,,,,,,,,,,D,125,star,1,1,,,,,,,,,,,,,,,,repeat,letter,lettRpt,d,0.4093,Hi,,,,,,4,,,,,,,,high,9,0,9,0,1,,,,,,,,,
297205,2022-12-05_13h00.23.035,vts_reward_expectancy_bt,2022.2.4,Win32,59.7193192,Chrome,1504,1003,,,,,1,1198,,,,,,,,,,,,,,,,,Y,146,triangle,1,0,,,,,,,,,,,,,,,,repeat,letter,lettRpt,f,0.2902,Lo,,,,,,4,,,,,,,,high,10,0,10,0,1,,,,,,,,,
297205,2022-12-05_13h00.23.035,vts_reward_expectancy_bt,2022.2.4,Win32,59.7193192,Chrome,1504,1003,,,,,0,1198,,,,,,,,,,,,,,,,,F,181,circle,0,0,,,,,,,,,,,,,,,,repeat,letter,NA,f,0.4177,Lo,,,,,,4,,,,,,,,high,11,0,11,0,1,,,,,,,,,
297205,2022-12-05_13h00.23.035,vts_reward_expectancy_bt,2022.2.4,Win32,59.7193192,Chrome,1504,1003,,,,,0,1198,,,,,,,,,,,,,,,,,S,160,hexagon,0,1,,,,,,,,,,,,,,,,repeat,letter,NA,d,0.4022,Lo,,,,,,4,,,,,,,,high,12,0,12,0,1,,,,,,,,,
297205,2022-12-05_13h00.23.035,vts_reward_expectancy_bt,2022.2.4,Win32,59.7193192,Chrome,1504,1003,,,,,10,1208,,,,,,,,,,,,,,,,,U,174,triangle,1,1,,,,,,,,,,,,,,,,switch,number,numSwt,k,0.4423,Lo,,,,,,4,,,,,,,,high,13,0,13,0,1,,,,,,,,,
297205,2022-12-05_13h00.23.035,vts_reward_expectancy_bt,2022.2.4,Win32,59.7193192,Chrome,1504,1003,,,,,10,1218,,,,,,,,,,,,,,,,,H,132,circle,1,0,,,,,,,,,,,,,,,,repeat,number,numRpt,j,0.3369,Lo,,,,,,4,,,,,,,,high,14,0,14,0,1,,,,,,,,,
297205,2022-12-05_13h00.23.035,vts_reward_expectancy_bt,2022.2.4,Win32,59.7193192,Chrome,1504,1003,,,,,0,1218,,,,,,,,,,,,,,,,,W,167,star,1,0,,,,,,,,,,,,,,,,repeat,number,numRpt,k,0.4983,Hi,,,,,,4,,,,,,,,high,15,0,15,0,1,,,,,,,,,
297205,2022-12-05_13h00.23.035,vts_reward_expectancy_bt,2022.2.4,Win32,59.7193192,Chrome,1504,1003,,,,,1,1219,,,,,,,,,,,,,,,,,B,146,circle,1,0,,,,,,,,,,,,,,,,repeat,number,numRpt,j,0.4383,Lo,,,,,,4,,,,,,,,high,16,0,16,0,1,,,,,,,,,
297205,2022-12-05_13h00.23.035,vts_reward_expectancy_bt,2022.2.4,Win32,59.7193192,Chrome,1504,1003,,,,,10,1229,,,,,,,,,,,,,,,,,F,139,star,1,0,,,,,,,,,,,,,,,,switch,letter,lettSwt,d,0.4336,Hi,,,,,,4,,,,,,,,high,17,0,17,0,1,,,,,,,,,
297205,2022-12-05_13h00.23.035,vts_reward_expectancy_bt,2022.2.4,Win32,59.7193192,Chrome,1504,1003,,,,,0,1229,,,,,,,,,,,,,,,,,Y,181,hexagon,1,0,,,,,,,,,,,,,,,,repeat,letter,lettRpt,f,0.5017,Hi,,,,,,4,,,,,,,,high,18,0,18,0,1,,,,,,,,,
297205,2022-12-05_13h00.23.035,vts_reward_expectancy_bt,2022.2.4,Win32,59.7193192,Chrome,1504,1003,,,,,1,1230,,,,,,,,,,,,,,,,,D,174,triangle,1,0,,,,,,,,,,,,,,,,repeat,letter,lettRpt,d,0.5716,Lo,,,,,,4,,,,,,,,high,19,0,19,0,1,,,,,,,,,
297205,2022-12-05_13h00.23.035,vts_reward_expectancy_bt,2022.2.4,Win32,59.7193192,Chrome,1504,1003,,,,,10,1240,,,,,,,,,,,,,,,,,S,125,hexagon,1,0,,,,,,,,,,,,,,,,switch,number,numSwt,j,0.3386,Hi,,,,,,4,,,,,,,,high,20,0,20,0,1,,,,,,,,,
297205,2022-12-05_13h00.23.035,vts_reward_expectancy_bt,2022.2.4,Win32,59.7193192,Chrome,1504,1003,,,,,1,1241,,,,,,,,,,,,,,,,,U,132,circle,1,0,,,,,,,,,,,,,,,,repeat,number,numRpt,j,0.4087,Lo,,,,,,4,,,,,,,,high,21,0,21,0,1,,,,,,,,,
297205,2022-12-05_13h00.23.035,vts_reward_expectancy_bt,2022.2.4,Win32,59.7193192,Chrome,1504,1003,,,,,10,1251,,,,,,,,,,,,,,,,,H,167,triangle,1,0,,,,,,,,,,,,,,,,switch,letter,lettSwt,d,0.4168,Lo,,,,,,4,,,,,,,,high,22,0,22,0,1,,,,,,,,,
297205,2022-12-05_13h00.23.035,vts_reward_expectancy_bt,2022.2.4,Win32,59.7193192,Chrome,1504,1003,,,,,10,1261,,,,,,,,,,,,,,,,,W,160,star,1,0,,,,,,,,,,,,,,,,switch,number,numSwt,k,0.3719,Hi,,,,,,4,,,,,,,,high,23,0,23,0,1,,,,,,,,,
297205,2022-12-05_13h00.23.035,vts_reward_expectancy_bt,2022.2.4,Win32,59.7193192,Chrome,1504,1003,,,,,10,1271,,,,,,,,,,,,,,,,,F,160,hexagon,1,0,,,,,,,,,,,,,,,,switch,letter,lettSwt,d,0.391,Hi,,,,,,4,,,,,,,,high,24,0,24,0,1,,,,,,,,,
297205,2022-12-05_13h00.23.035,vts_reward_expectancy_bt,2022.2.4,Win32,59.7193192,Chrome,1504,1003,,,,,10,1281,,,,,,,,,,,,,,,,,D,167,star,1,0,,,,,,,,,,,,,,,,switch,number,numSwt,k,0.2892,Hi,,,,,,4,,,,,,,,high,25,0,25,0,1,,,,,,,,,
297205,2022-12-05_13h00.23.035,vts_reward_expectancy_bt,2022.2.4,Win32,59.7193192,Chrome,1504,1003,,,,,10,1291,,,,,,,,,,,,,,,,,H,125,triangle,1,0,,,,,,,,,,,,,,,,repeat,number,numRpt,j,0.5234,Lo,,,,,,4,,,,,,,,high,26,0,26,0,1,,,,,,,,,
297205,2022-12-05_13h00.23.035,vts_reward_expectancy_bt,2022.2.4,Win32,59.7193192,Chrome,1504,1003,,,,,1,1292,,,,,,,,,,,,,,,,,B,181,circle,1,0,,,,,,,,,,,,,,,,repeat,number,numRpt,k,0.317,Lo,,,,,,4,,,,,,,,high,27,0,27,0,1,,,,,,,,,
297205,2022-12-05_13h00.23.035,vts_reward_expectancy_bt,2022.2.4,Win32,59.7193192,Chrome,1504,1003,,,,,0,1292,,,,,,,,,,,,,,,,,Y,139,star,1,0,,,,,,,,,,,,,,,,switch,letter,lettSwt,f,0.541,Hi,,,,,,4,,,,,,,,high,28,0,28,0,1,,,,,,,,,
297205,2022-12-05_13h00.23.035,vts_reward_expectancy_bt,2022.2.4,Win32,59.7193192,Chrome,1504,1003,,,,,1,1293,,,,,,,,,,,,,,,,,W,174,circle,1,0,,,,,,,,,,,,,,,,repeat,letter,lettRpt,f,0.5041,Lo,,,,,,4,,,,,,,,high,29,0,29,0,1,,,,,,,,,
297205,2022-12-05_13h00.23.035,vts_reward_expectancy_bt,2022.2.4,Win32,59.7193192,Chrome,1504,1003,,,,,0,1293,,,,,,,,,,,,,,,,,U,132,hexagon,1,0,,,,,,,,,,,,,,,,repeat,letter,lettRpt,f,0.488,Hi,,,,,,4,,,,,,,,high,30,0,30,0,1,,,,,,,,,
297205,2022-12-05_13h00.23.035,vts_reward_expectancy_bt,2022.2.4,Win32,59.7193192,Chrome,1504,1003,,,,,10,1303,,,,,,,,,,,,,,,,,S,146,triangle,1,0,,,,,,,,,,,,,,,,repeat,letter,lettRpt,f,0.4703,Lo,,,,,,4,,,,,,,,high,31,0,31,0,1,,,,,,,,,
297205,2022-12-05_13h00.23.035,vts_reward_expectancy_bt,2022.2.4,Win32,59.7193192,Chrome,1504,1003,,,,,10,1313,,,,,,,,,,,,,,,,,Y,181,circle,1,0,,,,,,,,,,,,,,,,repeat,letter,lettRpt,f,0.3761,Lo,,,,,,5,,,,,,space,0.1819,high,0,0,0,0,1,,,,,,,,,
297205,2022-12-05_13h00.23.035,vts_reward_expectancy_bt,2022.2.4,Win32,59.7193192,Chrome,1504,1003,,,,,1,1314,,,,,,,,,,,,,,,,,U,146,triangle,1,0,,,,,,,,,,,,,,,,repeat,letter,lettRpt,f,0.4342,Lo,,,,,,5,,,,,,,,high,1,0,1,0,1,,,,,,,,,
297205,2022-12-05_13h00.23.035,vts_reward_expectancy_bt,2022.2.4,Win32,59.7193192,Chrome,1504,1003,,,,,0,1314,,,,,,,,,,,,,,,,,W,125,star,1,0,,,,,,,,,,,,,,,,switch,number,numSwt,j,0.4222,Hi,,,,,,5,,,,,,,,high,2,0,2,0,1,,,,,,,,,
297205,2022-12-05_13h00.23.035,vts_reward_expectancy_bt,2022.2.4,Win32,59.7193192,Chrome,1504,1003,,,,,0,1314,,,,,,,,,,,,,,,,,H,167,hexagon,1,0,,,,,,,,,,,,,,,,repeat,number,numRpt,k,0.386,Hi,,,,,,5,,,,,,,,high,3,0,3,0,1,,,,,,,,,
297205,2022-12-05_13h00.23.035,vts_reward_expectancy_bt,2022.2.4,Win32,59.7193192,Chrome,1504,1003,,,,,10,1324,,,,,,,,,,,,,,,,,D,139,circle,1,0,,,,,,,,,,,,,,,,repeat,number,numRpt,j,0.3747,Lo,,,,,,5,,,,,,,,high,4,0,4,0,1,,,,,,,,,
297205,2022-12-05_13h00.23.035,vts_reward_expectancy_bt,2022.2.4,Win32,59.7193192,Chrome,1504,1003,,,,,1,1325,,,,,,,,,,,,,,,,,B,160,triangle,1,0,,,,,,,,,,,,,,,,repeat,number,numRpt,k,0.3336,Lo,,,,,,5,,,,,,,,high,5,0,5,0,1,,,,,,,,,
297205,2022-12-05_13h00.23.035,vts_reward_expectancy_bt,2022.2.4,Win32,59.7193192,Chrome,1504,1003,,,,,0,1325,,,,,,,,,,,,,,,,,S,132,star,0,0,,,,,,,,,,,,,,,,switch,letter,NA,d,0.3522,Lo,,,,,,5,,,,,,,,high,6,0,6,0,1,,,,,,,,,
297205,2022-12-05_13h00.23.035,vts_reward_expectancy_bt,2022.2.4,Win32,59.7193192,Chrome,1504,1003,,,,,0,1325,,,,,,,,,,,,,,,,,F,174,hexagon,0,1,,,,,,,,,,,,,,,,repeat,letter,NA,f,0.3738,Lo,,,,,,5,,,,,,,,high,7,0,7,0,1,,,,,,,,,
297205,2022-12-05_13h00.23.035,vts_reward_expectancy_bt,2022.2.4,Win32,59.7193192,Chrome,1504,1003,,,,,10,1335,,,,,,,,,,,,,,,,,Y,181,hexagon,1,1,,,,,,,,,,,,,,,,repeat,letter,lettRpt,f,0.434,Hi,,,,,,5,,,,,,,,high,8,0,8,0,1,,,,,,,,,
297205,2022-12-05_13h00.23.035,vts_reward_expectancy_bt,2022.2.4,Win32,59.7193192,Chrome,1504,1003,,,,,0,1335,,,,,,,,,,,,,,,,,U,146,star,0,0,,,,,,,,,,,,,,,,switch,number,NA,k,0.2969,Hi,,,,,,5,,,,,,,,high,9,0,9,0,1,,,,,,,,,
297205,2022-12-05_13h00.23.035,vts_reward_expectancy_bt,2022.2.4,Win32,59.7193192,Chrome,1504,1003,,,,,1,1336,,,,,,,,,,,,,,,,,W,125,circle,1,1,,,,,,,,,,,,,,,,repeat,number,numRpt,j,0.4337,Lo,,,,,,5,,,,,,,,high,10,0,10,0,1,,,,,,,,,
297205,2022-12-05_13h00.23.035,vts_reward_expectancy_bt,2022.2.4,Win32,59.7193192,Chrome,1504,1003,,,,,1,1337,,,,,,,,,,,,,,,,,H,167,triangle,1,0,,,,,,,,,,,,,,,,repeat,number,numRpt,k,0.3672,Lo,,,,,,5,,,,,,,,high,11,0,11,0,1,,,,,,,,,
297205,2022-12-05_13h00.23.035,vts_reward_expectancy_bt,2022.2.4,Win32,59.7193192,Chrome,1504,1003,,,,,0,1337,,,,,,,,,,,,,,,,,D,139,star,1,0,,,,,,,,,,,,,,,,repeat,number,numRpt,j,0.4502,Hi,,,,,,5,,,,,,,,high,12,0,12,0,1,,,,,,,,,
297205,2022-12-05_13h00.23.035,vts_reward_expectancy_bt,2022.2.4,Win32,59.7193192,Chrome,1504,1003,,,,,1,1338,,,,,,,,,,,,,,,,,B,160,triangle,1,0,,,,,,,,,,,,,,,,switch,letter,lettSwt,d,0.4069,Lo,,,,,,5,,,,,,,,high,13,0,13,0,1,,,,,,,,,
297205,2022-12-05_13h00.23.035,vts_reward_expectancy_bt,2022.2.4,Win32,59.7193192,Chrome,1504,1003,,,,,0,1338,,,,,,,,,,,,,,,,,S,132,hexagon,0,0,,,,,,,,,,,,,,,,repeat,letter,NA,d,0.4195,Lo,,,,,,5,,,,,,,,high,14,0,14,0,1,,,,,,,,,
297205,2022-12-05_13h00.23.035,vts_reward_expectancy_bt,2022.2.4,Win32,59.7193192,Chrome,1504,1003,,,,,0,1338,,,,,,,,,,,,,,,,,F,174,circle,0,1,,,,,,,,,,,,,,,,repeat,letter,NA,f,0.4852,Lo,,,,,,5,,,,,,,,high,15,0,15,0,1,,,,,,,,,
297205,2022-12-05_13h00.23.035,vts_reward_expectancy_bt,2022.2.4,Win32,59.7193192,Chrome,1504,1003,,,,,0,1338,,,,,,,,,,,,,,,,,S,160,star,1,1,,,,,,,,,,,,,,,,repeat,letter,lettRpt,f,0.7224,Hi,,,,,,5,,,,,,,,high,16,0,16,0,1,,,,,,,,,
297205,2022-12-05_13h00.23.035,vts_reward_expectancy_bt,2022.2.4,Win32,59.7193192,Chrome,1504,1003,,,,,0,1338,,,,,,,,,,,,,,,,,U,125,hexagon,1,0,,,,,,,,,,,,,,,,switch,number,numSwt,j,0.3674,Hi,,,,,,5,,,,,,,,high,17,0,17,0,1,,,,,,,,,
297205,2022-12-05_13h00.23.035,vts_reward_expectancy_bt,2022.2.4,Win32,59.7193192,Chrome,1504,1003,,,,,1,1339,,,,,,,,,,,,,,,,,F,181,circle,1,0,,,,,,,,,,,,,,,,repeat,number,numRpt,k,0.3715,Lo,,,,,,5,,,,,,,,high,18,0,18,0,1,,,,,,,,,
297205,2022-12-05_13h00.23.035,vts_reward_expectancy_bt,2022.2.4,Win32,59.7193192,Chrome,1504,1003,,,,,0,1339,,,,,,,,,,,,,,,,,Y,167,triangle,0,0,,,,,,,,,,,,,,,,repeat,number,NA,j,0.3673,Lo,,,,,,5,,,,,,,,high,19,0,19,0,1,,,,,,,,,
297205,2022-12-05_13h00.23.035,vts_reward_expectancy_bt,2022.2.4,Win32,59.7193192,Chrome,1504,1003,,,,,1,1340,,,,,,,,,,,,,,,,,D,146,circle,1,1,,,,,,,,,,,,,,,,repeat,number,numRpt,j,0.558,Lo,,,,,,5,,,,,,,,high,20,0,20,0,1,,,,,,,,,
297205,2022-12-05_13h00.23.035,vts_reward_expectancy_bt,2022.2.4,Win32,59.7193192,Chrome,1504,1003,,,,,10,1350,,,,,,,,,,,,,,,,,B,139,hexagon,1,0,,,,,,,,,,,,,,,,switch,letter,lettSwt,d,0.3503,Hi,,,,,,5,,,,,,,,high,21,0,21,0,1,,,,,,,,,
297205,2022-12-05_13h00.23.035,vts_reward_expectancy_bt,2022.2.4,Win32,59.7193192,Chrome,1504,1003,,,,,0,1350,,,,,,,,,,,,,,,,,H,132,triangle,0,0,,,,,,,,,,,,,,,,repeat,letter,NA,f,0.3675,Hi,,,,,,5,,,,,,,,high,22,0,22,0,1,,,,,,,,,
297205,2022-12-05_13h00.23.035,vts_reward_expectancy_bt,2022.2.4,Win32,59.7193192,Chrome,1504,1003,,,,,0,1350,,,,,,,,,,,,,,,,,W,174,star,1,1,,,,,,,,,,,,,,,,switch,number,numSwt,k,0.4675,Hi,,,,,,5,,,,,,,,high,23,0,23,0,1,,,,,,,,,
297205,2022-12-05_13h00.23.035,vts_reward_expectancy_bt,2022.2.4,Win32,59.7193192,Chrome,1504,1003,,,,,10,1360,,,,,,,,,,,,,,,,,S,174,triangle,1,0,,,,,,,,,,,,,,,,repeat,number,numRpt,k,0.4417,Lo,,,,,,5,,,,,,,,high,24,0,24,0,1,,,,,,,,,
297205,2022-12-05_13h00.23.035,vts_reward_expectancy_bt,2022.2.4,Win32,59.7193192,Chrome,1504,1003,,,,,0,1360,,,,,,,,,,,,,,,,,F,146,star,1,0,,,,,,,,,,,,,,,,repeat,number,numRpt,j,0.5005,Hi,,,,,,5,,,,,,,,high,25,0,25,0,1,,,,,,,,,
297205,2022-12-05_13h00.23.035,vts_reward_expectancy_bt,2022.2.4,Win32,59.7193192,Chrome,1504,1003,,,,,1,1361,,,,,,,,,,,,,,,,,U,139,circle,1,0,,,,,,,,,,,,,,,,repeat,number,numRpt,j,0.484,Lo,,,,,,5,,,,,,,,high,26,0,26,0,1,,,,,,,,,
297205,2022-12-05_13h00.23.035,vts_reward_expectancy_bt,2022.2.4,Win32,59.7193192,Chrome,1504,1003,,,,,0,1361,,,,,,,,,,,,,,,,,B,132,hexagon,0,0,,,,,,,,,,,,,,,,repeat,number,NA,k,0.2968,Lo,,,,,,5,,,,,,,,high,27,0,27,0,1,,,,,,,,,
297205,2022-12-05_13h00.23.035,vts_reward_expectancy_bt,2022.2.4,Win32,59.7193192,Chrome,1504,1003,,,,,10,1371,,,,,,,,,,,,,,,,,H,167,triangle,1,1,,,,,,,,,,,,,,,,switch,letter,lettSwt,d,0.5085,Lo,,,,,,5,,,,,,,,high,28,0,28,0,1,,,,,,,,,
297205,2022-12-05_13h00.23.035,vts_reward_expectancy_bt,2022.2.4,Win32,59.7193192,Chrome,1504,1003,,,,,0,1371,,,,,,,,,,,,,,,,,W,125,star,1,0,,,,,,,,,,,,,,,,repeat,letter,lettRpt,f,0.4918,Hi,,,,,,5,,,,,,,,high,29,0,29,0,1,,,,,,,,,
297205,2022-12-05_13h00.23.035,vts_reward_expectancy_bt,2022.2.4,Win32,59.7193192,Chrome,1504,1003,,,,,1,1372,,,,,,,,,,,,,,,,,D,160,circle,1,0,,,,,,,,,,,,,,,,repeat,letter,lettRpt,d,0.3428,Lo,,,,,,5,,,,,,,,high,30,0,30,0,1,,,,,,,,,
297205,2022-12-05_13h00.23.035,vts_reward_expectancy_bt,2022.2.4,Win32,59.7193192,Chrome,1504,1003,,,,,0,1372,,,,,,,,,,,,,,,,,Y,181,hexagon,1,0,,,,,,,,,,,,,,,,repeat,letter,lettRpt,f,0.5146,Hi,,,,,,5,,,,,,,,high,31,0,31,0,1,,,,,,,,,
297205,2022-12-05_13h00.23.035,vts_reward_expectancy_bt,2022.2.4,Win32,59.7193192,Chrome,1504,1003,,,,,0,1372,,,,,,,,,,,,,,,,,U,174,star,1,0,,,,,,,,,,,,,,,,switch,number,numSwt,k,0.4676,Hi,,,,,,6,,,,,,space,0.1383,high,0,0,0,0,1,,,,,,,,,
297205,2022-12-05_13h00.23.035,vts_reward_expectancy_bt,2022.2.4,Win32,59.7193192,Chrome,1504,1003,,,,,10,1382,,,,,,,,,,,,,,,,,F,132,hexagon,1,0,,,,,,,,,,,,,,,,repeat,number,numRpt,j,0.3213,Hi,,,,,,6,,,,,,,,high,1,0,1,0,1,,,,,,,,,
297205,2022-12-05_13h00.23.035,vts_reward_expectancy_bt,2022.2.4,Win32,59.7193192,Chrome,1504,1003,,,,,1,1383,,,,,,,,,,,,,,,,,D,181,triangle,1,0,,,,,,,,,,,,,,,,repeat,number,numRpt,k,0.3423,Lo,,,,,,6,,,,,,,,high,2,0,2,0,1,,,,,,,,,
297205,2022-12-05_13h00.23.035,vts_reward_expectancy_bt,2022.2.4,Win32,59.7193192,Chrome,1504,1003,,,,,1,1384,,,,,,,,,,,,,,,,,W,139,circle,1,0,,,,,,,,,,,,,,,,repeat,number,numRpt,j,0.317,Lo,,,,,,6,,,,,,,,high,3,0,3,0,1,,,,,,,,,
297205,2022-12-05_13h00.23.035,vts_reward_expectancy_bt,2022.2.4,Win32,59.7193192,Chrome,1504,1003,,,,,0,1384,,,,,,,,,,,,,,,,,H,160,star,0,0,,,,,,,,,,,,,,,,switch,letter,NA,f,0.3536,Lo,,,,,,6,,,,,,,,high,4,0,4,0,1,,,,,,,,,
297205,2022-12-05_13h00.23.035,vts_reward_expectancy_bt,2022.2.4,Win32,59.7193192,Chrome,1504,1003,,,,,0,1384,,,,,,,,,,,,,,,,,Y,125,hexagon,1,1,,,,,,,,,,,,,,,,repeat,letter,lettRpt,f,0.4563,Hi,,,,,,6,,,,,,,,high,5,0,5,0,1,,,,,,,,,
297205,2022-12-05_13h00.23.035,vts_reward_expectancy_bt,2022.2.4,Win32,59.7193192,Chrome,1504,1003,,,,,10,1394,,,,,,,,,,,,,,,,,B,146,triangle,1,0,,,,,,,,,,,,,,,,repeat,letter,lettRpt,d,0.3342,Lo,,,,,,6,,,,,,,,high,6,0,6,0,1,,,,,,,,,
