participant,date,expName,psychopyVersion,OS,frameRate,browser,xResolution,yResolution,key_resp.keys,key_resp.rt,training_resp.keys,training_resp.rt,points_trial,points_cumul,trainBlock,training.thisRepN,training.thisTrialN,training.thisN,training.thisIndex,training.ran,LTriangleOpac,LCircleOpac,LHexagonOpac,LStarOpac,RTriangleOpac,RCircleOpac,RHexagonOpac,RStarOpac,LShape_ID,RShape_ID,curr_topStim,curr_bottStim,curr_shape,acc,E1,target_resp_prac1.keys,target_resp_prac1.rt,pracBlock,task1_prac_trials.thisRepN,task1_prac_trials.thisTrialN,task1_prac_trials.thisN,task1_prac_trials.thisIndex,task1_prac_trials.ran,target_resp_prac2.keys,target_resp_prac2.rt,task2_praac_trials.thisRepN,task2_praac_trials.thisTrialN,task2_praac_trials.thisN,task2_praac_trials.thisIndex,task2_praac_trials.ran,alt,task,condition,target_resp.keys,target_resp.rt,rewCond,vts_practice_trials.thisRepN,vts_practice_trials.thisTrialN,vts_practice_trials.thisN,vts_practice_trials.thisIndex,vts_practice_trials.ran,blockNum,trials_norew.thisRepN,trials_norew.thisTrialN,trials_norew.thisN,trials_norew.thisIndex,trials_norew.ran,key_resp_2.keys,key_resp_2.rt,rewExpectancy,trials_rew.thisRepN,trials_rew.thisTrialN,trials_rew.thisN,trials_rew.thisIndex,trials_rew.ran,Q1,Q2,Q2_text,Q3,Q4,Q5_text,Q5,xRes,yRes
297241,2022-12-06_10h55.20.092,vts_reward_expectancy_bt,2022.2.4,MacIntel,60.0024001,Chrome,1440,900,,,,,,,,,,,,,,,,,,,,,,,,,,,,,,,,,,,,,,,,,,,,,,,,,,,,,,,,,,,,,,,,,,,,,,,,,,,,
297241,2022-12-06_10h55.20.092,vts_reward_expectancy_bt,2022.2.4,MacIntel,60.0024001,Chrome,1440,900,space,14.1055,,,,,,,,,,,,,,,,,,,,,,,,,,,,,,,,,,,,,,,,,,,,,,,,,,,,,,,,,,,,,,,,,,,,,,,,,,
297241,2022-12-06_10h55.20.092,vts_reward_expectancy_bt,2022.2.4,MacIntel,60.0024001,Chrome,1440,900,,,,,,,,,,,,,,,,,,,,,,,,,,,,,,,,,,,,,,,,,,,,,,,,,,,,,,,,,,,,,,,,,,,,,,,,,,,,
297241,2022-12-06_10h55.20.092,vts_reward_expectancy_bt,2022.2.4,MacIntel,60.0024001,Chrome,1440,900,,,l,2.3577,10,10,0,0,0,0,3,1,0,1,0,0,1,0,0,0,circle,triangle,,,,,,,,,,,,,,,,,,,,,,,,,,,,,,,,,,,,,,,,,,,,,,,,,,,,,,
297241,2022-12-06_10h55.20.092,vts_reward_expectancy_bt,2022.2.4,MacIntel,60.0024001,Chrome,1440,900,,,a,1.6991,10,20,0,0,1,1,10,1,0,0,0,1,0,1,0,0,star ,circle,,,,,,,,,,,,,,,,,,,,,,,,,,,,,,,,,,,,,,,,,,,,,,,,,,,,,,
297241,2022-12-06_10h55.20.092,vts_reward_expectancy_bt,2022.2.4,MacIntel,60.0024001,Chrome,1440,900,,,a,0.7363,1,21,0,0,2,2,7,1,0,0,1,0,0,1,0,0,hexagon,circle,,,,,,,,,,,,,,,,,,,,,,,,,,,,,,,,,,,,,,,,,,,,,,,,,,,,,,
297241,2022-12-06_10h55.20.092,vts_reward_expectancy_bt,2022.2.4,MacIntel,60.0024001,Chrome,1440,900,,,l,0.6481,10,31,0,0,3,3,4,1,0,1,0,0,0,0,1,0,circle,hexagon,,,,,,,,,,,,,,,,,,,,,,,,,,,,,,,,,,,,,,,,,,,,,,,,,,,,,,
297241,2022-12-06_10h55.20.092,vts_reward_expectancy_bt,2022.2.4,MacIntel,60.0024001,Chrome,1440,900,,,a,0.991,10,41,0,0,4,4,1,1,1,0,0,0,0,0,1,0,triangle,hexagon,,,,,,,,,,,,,,,,,,,,,,,,,,,,,,,,,,,,,,,,,,,,,,,,,,,,,,
297241,2022-12-06_10h55.20.092,vts_reward_expectancy_bt,2022.2.4,MacIntel,60.0024001,Chrome,1440,900,,,a,1.4387,10,51,0,0,5,5,11,1,0,0,0,1,0,0,1,0,star,hexagon,,,,,,,,,,,,,,,,,,,,,,,,,,,,,,,,,,,,,,,,,,,,,,,,,,,,,,
297241,2022-12-06_10h55.20.092,vts_reward_expectancy_bt,2022.2.4,MacIntel,60.0024001,Chrome,1440,900,,,l,0.8521,10,61,0,0,6,6,6,1,0,0,1,0,1,0,0,0,hexagon,triangle,,,,,,,,,,,,,,,,,,,,,,,,,,,,,,,,,,,,,,,,,,,,,,,,,,,,,,
297241,2022-12-06_10h55.20.092,vts_reward_expectancy_bt,2022.2.4,MacIntel,60.0024001,Chrome,1440,900,,,l,0.6656,1,62,0,0,7,7,9,1,0,0,0,1,1,0,0,0,star,triangle,,,,,,,,,,,,,,,,,,,,,,,,,,,,,,,,,,,,,,,,,,,,,,,,,,,,,,
297241,2022-12-06_10h55.20.092,vts_reward_expectancy_bt,2022.2.4,MacIntel,60.0024001,Chrome,1440,900,,,l,1.5709,1,63,0,0,8,8,2,1,1,0,0,0,0,0,0,1,triangle,star,,,,,,,,,,,,,,,,,,,,,,,,,,,,,,,,,,,,,,,,,,,,,,,,,,,,,,
297241,2022-12-06_10h55.20.092,vts_reward_expectancy_bt,2022.2.4,MacIntel,60.0024001,Chrome,1440,900,,,l,1.8849,1,64,0,0,9,9,5,1,0,1,0,0,0,0,0,1,circle,star,,,,,,,,,,,,,,,,,,,,,,,,,,,,,,,,,,,,,,,,,,,,,,,,,,,,,,
297241,2022-12-06_10h55.20.092,vts_reward_expectancy_bt,2022.2.4,MacIntel,60.0024001,Chrome,1440,900,,,a,0.7196,1,65,0,0,10,10,0,1,1,0,0,0,0,1,0,0,triangle,circle,,,,,,,,,,,,,,,,,,,,,,,,,,,,,,,,,,,,,,,,,,,,,,,,,,,,,,
297241,2022-12-06_10h55.20.092,vts_reward_expectancy_bt,2022.2.4,MacIntel,60.0024001,Chrome,1440,900,,,a,1.5658,1,66,0,0,11,11,8,1,0,0,1,0,0,0,0,1,hexagon,star,,,,,,,,,,,,,,,,,,,,,,,,,,,,,,,,,,,,,,,,,,,,,,,,,,,,,,
297241,2022-12-06_10h55.20.092,vts_reward_expectancy_bt,2022.2.4,MacIntel,60.0024001,Chrome,1440,900,,,a,0.8292,1,67,0,1,0,12,11,1,0,0,0,1,0,0,1,0,star,hexagon,,,,,,,,,,,,,,,,,,,,,,,,,,,,,,,,,,,,,,,,,,,,,,,,,,,,,,
297241,2022-12-06_10h55.20.092,vts_reward_expectancy_bt,2022.2.4,MacIntel,60.0024001,Chrome,1440,900,,,l,0.8406,10,77,0,1,1,13,9,1,0,0,0,1,1,0,0,0,star,triangle,,,,,,,,,,,,,,,,,,,,,,,,,,,,,,,,,,,,,,,,,,,,,,,,,,,,,,
297241,2022-12-06_10h55.20.092,vts_reward_expectancy_bt,2022.2.4,MacIntel,60.0024001,Chrome,1440,900,,,l,0.8494,1,78,0,1,2,14,6,1,0,0,1,0,1,0,0,0,hexagon,triangle,,,,,,,,,,,,,,,,,,,,,,,,,,,,,,,,,,,,,,,,,,,,,,,,,,,,,,
297241,2022-12-06_10h55.20.092,vts_reward_expectancy_bt,2022.2.4,MacIntel,60.0024001,Chrome,1440,900,,,l,1.267,10,88,0,1,3,15,10,1,0,0,0,1,0,1,0,0,star ,circle,,,,,,,,,,,,,,,,,,,,,,,,,,,,,,,,,,,,,,,,,,,,,,,,,,,,,,
297241,2022-12-06_10h55.20.092,vts_reward_expectancy_bt,2022.2.4,MacIntel,60.0024001,Chrome,1440,900,,,a,1.3035,1,89,0,1,4,16,3,1,0,1,0,0,1,0,0,0,circle,triangle,,,,,,,,,,,,,,,,,,,,,,,,,,,,,,,,,,,,,,,,,,,,,,,,,,,,,,
297241,2022-12-06_10h55.20.092,vts_reward_expectancy_bt,2022.2.4,MacIntel,60.0024001,Chrome,1440,900,,,a,1.2196,10,99,0,1,5,17,5,1,0,1,0,0,0,0,0,1,circle,star,,,,,,,,,,,,,,,,,,,,,,,,,,,,,,,,,,,,,,,,,,,,,,,,,,,,,,
297241,2022-12-06_10h55.20.092,vts_reward_expectancy_bt,2022.2.4,MacIntel,60.0024001,Chrome,1440,900,,,a,1.9542,10,109,0,1,6,18,2,1,1,0,0,0,0,0,0,1,triangle,star,,,,,,,,,,,,,,,,,,,,,,,,,,,,,,,,,,,,,,,,,,,,,,,,,,,,,,
297241,2022-12-06_10h55.20.092,vts_reward_expectancy_bt,2022.2.4,MacIntel,60.0024001,Chrome,1440,900,,,l,1.1028,10,119,0,1,7,19,0,1,1,0,0,0,0,1,0,0,triangle,circle,,,,,,,,,,,,,,,,,,,,,,,,,,,,,,,,,,,,,,,,,,,,,,,,,,,,,,
297241,2022-12-06_10h55.20.092,vts_reward_expectancy_bt,2022.2.4,MacIntel,60.0024001,Chrome,1440,900,,,a,1.1724,1,120,0,1,8,20,8,1,0,0,1,0,0,0,0,1,hexagon,star,,,,,,,,,,,,,,,,,,,,,,,,,,,,,,,,,,,,,,,,,,,,,,,,,,,,,,
297241,2022-12-06_10h55.20.092,vts_reward_expectancy_bt,2022.2.4,MacIntel,60.0024001,Chrome,1440,900,,,a,1.2705,10,130,0,1,9,21,4,1,0,1,0,0,0,0,1,0,circle,hexagon,,,,,,,,,,,,,,,,,,,,,,,,,,,,,,,,,,,,,,,,,,,,,,,,,,,,,,
297241,2022-12-06_10h55.20.092,vts_reward_expectancy_bt,2022.2.4,MacIntel,60.0024001,Chrome,1440,900,,,l,0.6875,10,140,0,1,10,22,7,1,0,0,1,0,0,1,0,0,hexagon,circle,,,,,,,,,,,,,,,,,,,,,,,,,,,,,,,,,,,,,,,,,,,,,,,,,,,,,,
297241,2022-12-06_10h55.20.092,vts_reward_expectancy_bt,2022.2.4,MacIntel,60.0024001,Chrome,1440,900,,,a,0.9519,10,150,0,1,11,23,1,1,1,0,0,0,0,0,1,0,triangle,hexagon,,,,,,,,,,,,,,,,,,,,,,,,,,,,,,,,,,,,,,,,,,,,,,,,,,,,,,
297241,2022-12-06_10h55.20.092,vts_reward_expectancy_bt,2022.2.4,MacIntel,60.0024001,Chrome,1440,900,,,a,5.7149,1,151,0,2,0,24,8,1,0,0,1,0,0,0,0,1,hexagon,star,,,,,,,,,,,,,,,,,,,,,,,,,,,,,,,,,,,,,,,,,,,,,,,,,,,,,,
297241,2022-12-06_10h55.20.092,vts_reward_expectancy_bt,2022.2.4,MacIntel,60.0024001,Chrome,1440,900,,,l,2.6433,10,161,0,2,1,25,7,1,0,0,1,0,0,1,0,0,hexagon,circle,,,,,,,,,,,,,,,,,,,,,,,,,,,,,,,,,,,,,,,,,,,,,,,,,,,,,,
297241,2022-12-06_10h55.20.092,vts_reward_expectancy_bt,2022.2.4,MacIntel,60.0024001,Chrome,1440,900,,,a,1.1812,10,171,0,2,2,26,1,1,1,0,0,0,0,0,1,0,triangle,hexagon,,,,,,,,,,,,,,,,,,,,,,,,,,,,,,,,,,,,,,,,,,,,,,,,,,,,,,
297241,2022-12-06_10h55.20.092,vts_reward_expectancy_bt,2022.2.4,MacIntel,60.0024001,Chrome,1440,900,,,a,0.8292,10,181,0,2,3,27,3,1,0,1,0,0,1,0,0,0,circle,triangle,,,,,,,,,,,,,,,,,,,,,,,,,,,,,,,,,,,,,,,,,,,,,,,,,,,,,,
297241,2022-12-06_10h55.20.092,vts_reward_expectancy_bt,2022.2.4,MacIntel,60.0024001,Chrome,1440,900,,,l,1.003,1,182,0,2,4,28,6,1,0,0,1,0,1,0,0,0,hexagon,triangle,,,,,,,,,,,,,,,,,,,,,,,,,,,,,,,,,,,,,,,,,,,,,,,,,,,,,,
297241,2022-12-06_10h55.20.092,vts_reward_expectancy_bt,2022.2.4,MacIntel,60.0024001,Chrome,1440,900,,,l,1.6569,1,183,0,2,5,29,11,1,0,0,0,1,0,0,1,0,star,hexagon,,,,,,,,,,,,,,,,,,,,,,,,,,,,,,,,,,,,,,,,,,,,,,,,,,,,,,
297241,2022-12-06_10h55.20.092,vts_reward_expectancy_bt,2022.2.4,MacIntel,60.0024001,Chrome,1440,900,,,l,1.4365,10,193,0,2,6,30,0,1,1,0,0,0,0,1,0,0,triangle,circle,,,,,,,,,,,,,,,,,,,,,,,,,,,,,,,,,,,,,,,,,,,,,,,,,,,,,,
297241,2022-12-06_10h55.20.092,vts_reward_expectancy_bt,2022.2.4,MacIntel,60.0024001,Chrome,1440,900,,,l,1.1388,10,203,0,2,7,31,9,1,0,0,0,1,1,0,0,0,star,triangle,,,,,,,,,,,,,,,,,,,,,,,,,,,,,,,,,,,,,,,,,,,,,,,,,,,,,,
297241,2022-12-06_10h55.20.092,vts_reward_expectancy_bt,2022.2.4,MacIntel,60.0024001,Chrome,1440,900,,,l,1.0799,10,213,0,2,8,32,10,1,0,0,0,1,0,1,0,0,star ,circle,,,,,,,,,,,,,,,,,,,,,,,,,,,,,,,,,,,,,,,,,,,,,,,,,,,,,,
297241,2022-12-06_10h55.20.092,vts_reward_expectancy_bt,2022.2.4,MacIntel,60.0024001,Chrome,1440,900,,,a,1.0348,10,223,0,2,9,33,5,1,0,1,0,0,0,0,0,1,circle,star,,,,,,,,,,,,,,,,,,,,,,,,,,,,,,,,,,,,,,,,,,,,,,,,,,,,,,
297241,2022-12-06_10h55.20.092,vts_reward_expectancy_bt,2022.2.4,MacIntel,60.0024001,Chrome,1440,900,,,a,1.1257,10,233,0,2,10,34,4,1,0,1,0,0,0,0,1,0,circle,hexagon,,,,,,,,,,,,,,,,,,,,,,,,,,,,,,,,,,,,,,,,,,,,,,,,,,,,,,
297241,2022-12-06_10h55.20.092,vts_reward_expectancy_bt,2022.2.4,MacIntel,60.0024001,Chrome,1440,900,,,a,1.2151,10,243,0,2,11,35,2,1,1,0,0,0,0,0,0,1,triangle,star,,,,,,,,,,,,,,,,,,,,,,,,,,,,,,,,,,,,,,,,,,,,,,,,,,,,,,
297241,2022-12-06_10h55.20.092,vts_reward_expectancy_bt,2022.2.4,MacIntel,60.0024001,Chrome,1440,900,,,a,2.4042,1,244,1,0,0,0,2,1,1,0,0,0,0,0,0,1,triangle,star,,,,,,,,,,,,,,,,,,,,,,,,,,,,,,,,,,,,,,,,,,,,,,,,,,,,,,
297241,2022-12-06_10h55.20.092,vts_reward_expectancy_bt,2022.2.4,MacIntel,60.0024001,Chrome,1440,900,,,a,1.7603,1,245,1,0,1,1,8,1,0,0,1,0,0,0,0,1,hexagon,star,,,,,,,,,,,,,,,,,,,,,,,,,,,,,,,,,,,,,,,,,,,,,,,,,,,,,,
297241,2022-12-06_10h55.20.092,vts_reward_expectancy_bt,2022.2.4,MacIntel,60.0024001,Chrome,1440,900,,,a,1.0244,10,255,1,0,2,2,4,1,0,1,0,0,0,0,1,0,circle,hexagon,,,,,,,,,,,,,,,,,,,,,,,,,,,,,,,,,,,,,,,,,,,,,,,,,,,,,,
297241,2022-12-06_10h55.20.092,vts_reward_expectancy_bt,2022.2.4,MacIntel,60.0024001,Chrome,1440,900,,,l,1.9337,10,265,1,0,3,3,9,1,0,0,0,1,1,0,0,0,star,triangle,,,,,,,,,,,,,,,,,,,,,,,,,,,,,,,,,,,,,,,,,,,,,,,,,,,,,,
297241,2022-12-06_10h55.20.092,vts_reward_expectancy_bt,2022.2.4,MacIntel,60.0024001,Chrome,1440,900,,,l,0.7376,10,275,1,0,4,4,10,1,0,0,0,1,0,1,0,0,star ,circle,,,,,,,,,,,,,,,,,,,,,,,,,,,,,,,,,,,,,,,,,,,,,,,,,,,,,,
297241,2022-12-06_10h55.20.092,vts_reward_expectancy_bt,2022.2.4,MacIntel,60.0024001,Chrome,1440,900,,,l,0.7886,10,285,1,0,5,5,0,1,1,0,0,0,0,1,0,0,triangle,circle,,,,,,,,,,,,,,,,,,,,,,,,,,,,,,,,,,,,,,,,,,,,,,,,,,,,,,
297241,2022-12-06_10h55.20.092,vts_reward_expectancy_bt,2022.2.4,MacIntel,60.0024001,Chrome,1440,900,,,a,0.5676,10,295,1,0,6,6,3,1,0,1,0,0,1,0,0,0,circle,triangle,,,,,,,,,,,,,,,,,,,,,,,,,,,,,,,,,,,,,,,,,,,,,,,,,,,,,,
297241,2022-12-06_10h55.20.092,vts_reward_expectancy_bt,2022.2.4,MacIntel,60.0024001,Chrome,1440,900,,,l,0.5993,10,305,1,0,7,7,7,1,0,0,1,0,0,1,0,0,hexagon,circle,,,,,,,,,,,,,,,,,,,,,,,,,,,,,,,,,,,,,,,,,,,,,,,,,,,,,,
297241,2022-12-06_10h55.20.092,vts_reward_expectancy_bt,2022.2.4,MacIntel,60.0024001,Chrome,1440,900,,,l,3.2495,10,315,1,0,8,8,6,1,0,0,1,0,1,0,0,0,hexagon,triangle,,,,,,,,,,,,,,,,,,,,,,,,,,,,,,,,,,,,,,,,,,,,,,,,,,,,,,
297241,2022-12-06_10h55.20.092,vts_reward_expectancy_bt,2022.2.4,MacIntel,60.0024001,Chrome,1440,900,,,a,0.8218,10,325,1,0,9,9,1,1,1,0,0,0,0,0,1,0,triangle,hexagon,,,,,,,,,,,,,,,,,,,,,,,,,,,,,,,,,,,,,,,,,,,,,,,,,,,,,,
297241,2022-12-06_10h55.20.092,vts_reward_expectancy_bt,2022.2.4,MacIntel,60.0024001,Chrome,1440,900,,,l,1.6075,1,326,1,0,10,10,11,1,0,0,0,1,0,0,1,0,star,hexagon,,,,,,,,,,,,,,,,,,,,,,,,,,,,,,,,,,,,,,,,,,,,,,,,,,,,,,
297241,2022-12-06_10h55.20.092,vts_reward_expectancy_bt,2022.2.4,MacIntel,60.0024001,Chrome,1440,900,,,a,0.587,10,336,1,0,11,11,5,1,0,1,0,0,0,0,0,1,circle,star,,,,,,,,,,,,,,,,,,,,,,,,,,,,,,,,,,,,,,,,,,,,,,,,,,,,,,
297241,2022-12-06_10h55.20.092,vts_reward_expectancy_bt,2022.2.4,MacIntel,60.0024001,Chrome,1440,900,,,l,0.621,1,337,1,1,0,12,10,1,0,0,0,1,0,1,0,0,star ,circle,,,,,,,,,,,,,,,,,,,,,,,,,,,,,,,,,,,,,,,,,,,,,,,,,,,,,,
297241,2022-12-06_10h55.20.092,vts_reward_expectancy_bt,2022.2.4,MacIntel,60.0024001,Chrome,1440,900,,,l,1.1819,10,347,1,1,1,13,0,1,1,0,0,0,0,1,0,0,triangle,circle,,,,,,,,,,,,,,,,,,,,,,,,,,,,,,,,,,,,,,,,,,,,,,,,,,,,,,
297241,2022-12-06_10h55.20.092,vts_reward_expectancy_bt,2022.2.4,MacIntel,60.0024001,Chrome,1440,900,,,a,0.6212,10,357,1,1,2,14,4,1,0,1,0,0,0,0,1,0,circle,hexagon,,,,,,,,,,,,,,,,,,,,,,,,,,,,,,,,,,,,,,,,,,,,,,,,,,,,,,
297241,2022-12-06_10h55.20.092,vts_reward_expectancy_bt,2022.2.4,MacIntel,60.0024001,Chrome,1440,900,,,a,1.2188,1,358,1,1,3,15,8,1,0,0,1,0,0,0,0,1,hexagon,star,,,,,,,,,,,,,,,,,,,,,,,,,,,,,,,,,,,,,,,,,,,,,,,,,,,,,,
297241,2022-12-06_10h55.20.092,vts_reward_expectancy_bt,2022.2.4,MacIntel,60.0024001,Chrome,1440,900,,,a,0.9709,10,368,1,1,4,16,2,1,1,0,0,0,0,0,0,1,triangle,star,,,,,,,,,,,,,,,,,,,,,,,,,,,,,,,,,,,,,,,,,,,,,,,,,,,,,,
297241,2022-12-06_10h55.20.092,vts_reward_expectancy_bt,2022.2.4,MacIntel,60.0024001,Chrome,1440,900,,,l,0.8432,1,369,1,1,5,17,6,1,0,0,1,0,1,0,0,0,hexagon,triangle,,,,,,,,,,,,,,,,,,,,,,,,,,,,,,,,,,,,,,,,,,,,,,,,,,,,,,
297241,2022-12-06_10h55.20.092,vts_reward_expectancy_bt,2022.2.4,MacIntel,60.0024001,Chrome,1440,900,,,l,0.7146,10,379,1,1,6,18,7,1,0,0,1,0,0,1,0,0,hexagon,circle,,,,,,,,,,,,,,,,,,,,,,,,,,,,,,,,,,,,,,,,,,,,,,,,,,,,,,
297241,2022-12-06_10h55.20.092,vts_reward_expectancy_bt,2022.2.4,MacIntel,60.0024001,Chrome,1440,900,,,a,0.7631,10,389,1,1,7,19,1,1,1,0,0,0,0,0,1,0,triangle,hexagon,,,,,,,,,,,,,,,,,,,,,,,,,,,,,,,,,,,,,,,,,,,,,,,,,,,,,,
297241,2022-12-06_10h55.20.092,vts_reward_expectancy_bt,2022.2.4,MacIntel,60.0024001,Chrome,1440,900,,,a,0.5151,10,399,1,1,8,20,5,1,0,1,0,0,0,0,0,1,circle,star,,,,,,,,,,,,,,,,,,,,,,,,,,,,,,,,,,,,,,,,,,,,,,,,,,,,,,
297241,2022-12-06_10h55.20.092,vts_reward_expectancy_bt,2022.2.4,MacIntel,60.0024001,Chrome,1440,900,,,l,1.4625,10,409,1,1,9,21,9,1,0,0,0,1,1,0,0,0,star,triangle,,,,,,,,,,,,,,,,,,,,,,,,,,,,,,,,,,,,,,,,,,,,,,,,,,,,,,
297241,2022-12-06_10h55.20.092,vts_reward_expectancy_bt,2022.2.4,MacIntel,60.0024001,Chrome,1440,900,,,l,2.0407,10,419,1,1,10,22,11,1,0,0,0,1,0,0,1,0,star,hexagon,,,,,,,,,,,,,,,,,,,,,,,,,,,,,,,,,,,,,,,,,,,,,,,,,,,,,,
297241,2022-12-06_10h55.20.092,vts_reward_expectancy_bt,2022.2.4,MacIntel,60.0024001,Chrome,1440,900,,,a,1.1421,10,429,1,1,11,23,3,1,0,1,0,0,1,0,0,0,circle,triangle,,,,,,,,,,,,,,,,,,,,,,,,,,,,,,,,,,,,,,,,,,,,,,,,,,,,,,
297241,2022-12-06_10h55.20.092,vts_reward_expectancy_bt,2022.2.4,MacIntel,60.0024001,Chrome,1440,900,,,a,1.4538,1,430,1,2,0,24,11,1,0,0,0,1,0,0,1,0,star,hexagon,,,,,,,,,,,,,,,,,,,,,,,,,,,,,,,,,,,,,,,,,,,,,,,,,,,,,,
297241,2022-12-06_10h55.20.092,vts_reward_expectancy_bt,2022.2.4,MacIntel,60.0024001,Chrome,1440,900,,,l,0.8402,10,440,1,2,1,25,10,1,0,0,0,1,0,1,0,0,star ,circle,,,,,,,,,,,,,,,,,,,,,,,,,,,,,,,,,,,,,,,,,,,,,,,,,,,,,,
297241,2022-12-06_10h55.20.092,vts_reward_expectancy_bt,2022.2.4,MacIntel,60.0024001,Chrome,1440,900,,,l,1.2021,1,441,1,2,2,26,0,1,1,0,0,0,0,1,0,0,triangle,circle,,,,,,,,,,,,,,,,,,,,,,,,,,,,,,,,,,,,,,,,,,,,,,,,,,,,,,
297241,2022-12-06_10h55.20.092,vts_reward_expectancy_bt,2022.2.4,MacIntel,60.0024001,Chrome,1440,900,,,l,0.9358,10,451,1,2,3,27,7,1,0,0,1,0,0,1,0,0,hexagon,circle,,,,,,,,,,,,,,,,,,,,,,,,,,,,,,,,,,,,,,,,,,,,,,,,,,,,,,
297241,2022-12-06_10h55.20.092,vts_reward_expectancy_bt,2022.2.4,MacIntel,60.0024001,Chrome,1440,900,,,a,0.5814,10,461,1,2,4,28,4,1,0,1,0,0,0,0,1,0,circle,hexagon,,,,,,,,,,,,,,,,,,,,,,,,,,,,,,,,,,,,,,,,,,,,,,,,,,,,,,
297241,2022-12-06_10h55.20.092,vts_reward_expectancy_bt,2022.2.4,MacIntel,60.0024001,Chrome,1440,900,,,l,1.2553,10,471,1,2,5,29,9,1,0,0,0,1,1,0,0,0,star,triangle,,,,,,,,,,,,,,,,,,,,,,,,,,,,,,,,,,,,,,,,,,,,,,,,,,,,,,
297241,2022-12-06_10h55.20.092,vts_reward_expectancy_bt,2022.2.4,MacIntel,60.0024001,Chrome,1440,900,,,l,0.7458,1,472,1,2,6,30,6,1,0,0,1,0,1,0,0,0,hexagon,triangle,,,,,,,,,,,,,,,,,,,,,,,,,,,,,,,,,,,,,,,,,,,,,,,,,,,,,,
297241,2022-12-06_10h55.20.092,vts_reward_expectancy_bt,2022.2.4,MacIntel,60.0024001,Chrome,1440,900,,,l,1.5671,1,473,1,2,7,31,8,1,0,0,1,0,0,0,0,1,hexagon,star,,,,,,,,,,,,,,,,,,,,,,,,,,,,,,,,,,,,,,,,,,,,,,,,,,,,,,
297241,2022-12-06_10h55.20.092,vts_reward_expectancy_bt,2022.2.4,MacIntel,60.0024001,Chrome,1440,900,,,a,1.1573,1,474,1,2,8,32,1,1,1,0,0,0,0,0,1,0,triangle,hexagon,,,,,,,,,,,,,,,,,,,,,,,,,,,,,,,,,,,,,,,,,,,,,,,,,,,,,,
297241,2022-12-06_10h55.20.092,vts_reward_expectancy_bt,2022.2.4,MacIntel,60.0024001,Chrome,1440,900,,,a,0.652,10,484,1,2,9,33,3,1,0,1,0,0,1,0,0,0,circle,triangle,,,,,,,,,,,,,,,,,,,,,,,,,,,,,,,,,,,,,,,,,,,,,,,,,,,,,,
297241,2022-12-06_10h55.20.092,vts_reward_expectancy_bt,2022.2.4,MacIntel,60.0024001,Chrome,1440,900,,,a,1.1163,10,494,1,2,10,34,2,1,1,0,0,0,0,0,0,1,triangle,star,,,,,,,,,,,,,,,,,,,,,,,,,,,,,,,,,,,,,,,,,,,,,,,,,,,,,,
297241,2022-12-06_10h55.20.092,vts_reward_expectancy_bt,2022.2.4,MacIntel,60.0024001,Chrome,1440,900,,,a,0.6034,10,504,1,2,11,35,5,1,0,1,0,0,0,0,0,1,circle,star,,,,,,,,,,,,,,,,,,,,,,,,,,,,,,,,,,,,,,,,,,,,,,,,,,,,,,
297241,2022-12-06_10h55.20.092,vts_reward_expectancy_bt,2022.2.4,MacIntel,60.0024001,Chrome,1440,900,,,l,1.944,10,514,2,0,0,0,11,1,0,0,0,1,0,0,1,0,star,hexagon,,,,,,,,,,,,,,,,,,,,,,,,,,,,,,,,,,,,,,,,,,,,,,,,,,,,,,
297241,2022-12-06_10h55.20.092,vts_reward_expectancy_bt,2022.2.4,MacIntel,60.0024001,Chrome,1440,900,,,a,0.6061,10,524,2,0,1,1,1,1,1,0,0,0,0,0,1,0,triangle,hexagon,,,,,,,,,,,,,,,,,,,,,,,,,,,,,,,,,,,,,,,,,,,,,,,,,,,,,,
297241,2022-12-06_10h55.20.092,vts_reward_expectancy_bt,2022.2.4,MacIntel,60.0024001,Chrome,1440,900,,,a,0.5481,10,534,2,0,2,2,4,1,0,1,0,0,0,0,1,0,circle,hexagon,,,,,,,,,,,,,,,,,,,,,,,,,,,,,,,,,,,,,,,,,,,,,,,,,,,,,,
297241,2022-12-06_10h55.20.092,vts_reward_expectancy_bt,2022.2.4,MacIntel,60.0024001,Chrome,1440,900,,,l,0.6865,1,535,2,0,3,3,6,1,0,0,1,0,1,0,0,0,hexagon,triangle,,,,,,,,,,,,,,,,,,,,,,,,,,,,,,,,,,,,,,,,,,,,,,,,,,,,,,
297241,2022-12-06_10h55.20.092,vts_reward_expectancy_bt,2022.2.4,MacIntel,60.0024001,Chrome,1440,900,,,l,0.7388,10,545,2,0,4,4,0,1,1,0,0,0,0,1,0,0,triangle,circle,,,,,,,,,,,,,,,,,,,,,,,,,,,,,,,,,,,,,,,,,,,,,,,,,,,,,,
297241,2022-12-06_10h55.20.092,vts_reward_expectancy_bt,2022.2.4,MacIntel,60.0024001,Chrome,1440,900,,,a,0.9321,10,555,2,0,5,5,2,1,1,0,0,0,0,0,0,1,triangle,star,,,,,,,,,,,,,,,,,,,,,,,,,,,,,,,,,,,,,,,,,,,,,,,,,,,,,,
297241,2022-12-06_10h55.20.092,vts_reward_expectancy_bt,2022.2.4,MacIntel,60.0024001,Chrome,1440,900,,,a,0.5019,10,565,2,0,6,6,5,1,0,1,0,0,0,0,0,1,circle,star,,,,,,,,,,,,,,,,,,,,,,,,,,,,,,,,,,,,,,,,,,,,,,,,,,,,,,
297241,2022-12-06_10h55.20.092,vts_reward_expectancy_bt,2022.2.4,MacIntel,60.0024001,Chrome,1440,900,,,a,0.4737,10,575,2,0,7,7,8,1,0,0,1,0,0,0,0,1,hexagon,star,,,,,,,,,,,,,,,,,,,,,,,,,,,,,,,,,,,,,,,,,,,,,,,,,,,,,,
297241,2022-12-06_10h55.20.092,vts_reward_expectancy_bt,2022.2.4,MacIntel,60.0024001,Chrome,1440,900,,,l,0.683,10,585,2,0,8,8,9,1,0,0,0,1,1,0,0,0,star,triangle,,,,,,,,,,,,,,,,,,,,,,,,,,,,,,,,,,,,,,,,,,,,,,,,,,,,,,
297241,2022-12-06_10h55.20.092,vts_reward_expectancy_bt,2022.2.4,MacIntel,60.0024001,Chrome,1440,900,,,l,0.6172,1,586,2,0,9,9,7,1,0,0,1,0,0,1,0,0,hexagon,circle,,,,,,,,,,,,,,,,,,,,,,,,,,,,,,,,,,,,,,,,,,,,,,,,,,,,,,
297241,2022-12-06_10h55.20.092,vts_reward_expectancy_bt,2022.2.4,MacIntel,60.0024001,Chrome,1440,900,,,l,0.5433,10,596,2,0,10,10,10,1,0,0,0,1,0,1,0,0,star ,circle,,,,,,,,,,,,,,,,,,,,,,,,,,,,,,,,,,,,,,,,,,,,,,,,,,,,,,
297241,2022-12-06_10h55.20.092,vts_reward_expectancy_bt,2022.2.4,MacIntel,60.0024001,Chrome,1440,900,,,a,0.4651,10,606,2,0,11,11,3,1,0,1,0,0,1,0,0,0,circle,triangle,,,,,,,,,,,,,,,,,,,,,,,,,,,,,,,,,,,,,,,,,,,,,,,,,,,,,,
297241,2022-12-06_10h55.20.092,vts_reward_expectancy_bt,2022.2.4,MacIntel,60.0024001,Chrome,1440,900,,,l,1.107,1,607,2,1,0,12,8,1,0,0,1,0,0,0,0,1,hexagon,star,,,,,,,,,,,,,,,,,,,,,,,,,,,,,,,,,,,,,,,,,,,,,,,,,,,,,,
297241,2022-12-06_10h55.20.092,vts_reward_expectancy_bt,2022.2.4,MacIntel,60.0024001,Chrome,1440,900,,,l,0.5591,10,617,2,1,1,13,10,1,0,0,0,1,0,1,0,0,star ,circle,,,,,,,,,,,,,,,,,,,,,,,,,,,,,,,,,,,,,,,,,,,,,,,,,,,,,,
297241,2022-12-06_10h55.20.092,vts_reward_expectancy_bt,2022.2.4,MacIntel,60.0024001,Chrome,1440,900,,,l,0.6665,10,627,2,1,2,14,9,1,0,0,0,1,1,0,0,0,star,triangle,,,,,,,,,,,,,,,,,,,,,,,,,,,,,,,,,,,,,,,,,,,,,,,,,,,,,,
297241,2022-12-06_10h55.20.092,vts_reward_expectancy_bt,2022.2.4,MacIntel,60.0024001,Chrome,1440,900,,,a,0.7663,1,628,2,1,3,15,11,1,0,0,0,1,0,0,1,0,star,hexagon,,,,,,,,,,,,,,,,,,,,,,,,,,,,,,,,,,,,,,,,,,,,,,,,,,,,,,
297241,2022-12-06_10h55.20.092,vts_reward_expectancy_bt,2022.2.4,MacIntel,60.0024001,Chrome,1440,900,,,a,1.2125,10,638,2,1,4,16,1,1,1,0,0,0,0,0,1,0,triangle,hexagon,,,,,,,,,,,,,,,,,,,,,,,,,,,,,,,,,,,,,,,,,,,,,,,,,,,,,,
297241,2022-12-06_10h55.20.092,vts_reward_expectancy_bt,2022.2.4,MacIntel,60.0024001,Chrome,1440,900,,,l,0.6544,10,648,2,1,5,17,0,1,1,0,0,0,0,1,0,0,triangle,circle,,,,,,,,,,,,,,,,,,,,,,,,,,,,,,,,,,,,,,,,,,,,,,,,,,,,,,
297241,2022-12-06_10h55.20.092,vts_reward_expectancy_bt,2022.2.4,MacIntel,60.0024001,Chrome,1440,900,,,a,0.5342,10,658,2,1,6,18,5,1,0,1,0,0,0,0,0,1,circle,star,,,,,,,,,,,,,,,,,,,,,,,,,,,,,,,,,,,,,,,,,,,,,,,,,,,,,,
297241,2022-12-06_10h55.20.092,vts_reward_expectancy_bt,2022.2.4,MacIntel,60.0024001,Chrome,1440,900,,,l,0.5656,10,668,2,1,7,19,7,1,0,0,1,0,0,1,0,0,hexagon,circle,,,,,,,,,,,,,,,,,,,,,,,,,,,,,,,,,,,,,,,,,,,,,,,,,,,,,,
297241,2022-12-06_10h55.20.092,vts_reward_expectancy_bt,2022.2.4,MacIntel,60.0024001,Chrome,1440,900,,,l,1.0378,10,678,2,1,8,20,6,1,0,0,1,0,1,0,0,0,hexagon,triangle,,,,,,,,,,,,,,,,,,,,,,,,,,,,,,,,,,,,,,,,,,,,,,,,,,,,,,
297241,2022-12-06_10h55.20.092,vts_reward_expectancy_bt,2022.2.4,MacIntel,60.0024001,Chrome,1440,900,,,a,0.6735,1,679,2,1,9,21,4,1,0,1,0,0,0,0,1,0,circle,hexagon,,,,,,,,,,,,,,,,,,,,,,,,,,,,,,,,,,,,,,,,,,,,,,,,,,,,,,
297241,2022-12-06_10h55.20.092,vts_reward_expectancy_bt,2022.2.4,MacIntel,60.0024001,Chrome,1440,900,,,a,0.5832,1,680,2,1,10,22,2,1,1,0,0,0,0,0,0,1,triangle,star,,,,,,,,,,,,,,,,,,,,,,,,,,,,,,,,,,,,,,,,,,,,,,,,,,,,,,
297241,2022-12-06_10h55.20.092,vts_reward_expectancy_bt,2022.2.4,MacIntel,60.0024001,Chrome,1440,900,,,a,0.5204,10,690,2,1,11,23,3,1,0,1,0,0,1,0,0,0,circle,triangle,,,,,,,,,,,,,,,,,,,,,,,,,,,,,,,,,,,,,,,,,,,,,,,,,,,,,,
297241,2022-12-06_10h55.20.092,vts_reward_expectancy_bt,2022.2.4,MacIntel,60.0024001,Chrome,1440,900,,,l,0.9586,1,691,2,2,0,24,10,1,0,0,0,1,0,1,0,0,star ,circle,,,,,,,,,,,,,,,,,,,,,,,,,,,,,,,,,,,,,,,,,,,,,,,,,,,,,,
297241,2022-12-06_10h55.20.092,vts_reward_expectancy_bt,2022.2.4,MacIntel,60.0024001,Chrome,1440,900,,,l,1.2325,10,701,2,2,1,25,9,1,0,0,0,1,1,0,0,0,star,triangle,,,,,,,,,,,,,,,,,,,,,,,,,,,,,,,,,,,,,,,,,,,,,,,,,,,,,,
297241,2022-12-06_10h55.20.092,vts_reward_expectancy_bt,2022.2.4,MacIntel,60.0024001,Chrome,1440,900,,,l,0.7878,1,702,2,2,2,26,7,1,0,0,1,0,0,1,0,0,hexagon,circle,,,,,,,,,,,,,,,,,,,,,,,,,,,,,,,,,,,,,,,,,,,,,,,,,,,,,,
297241,2022-12-06_10h55.20.092,vts_reward_expectancy_bt,2022.2.4,MacIntel,60.0024001,Chrome,1440,900,,,a,0.8655,10,712,2,2,3,27,2,1,1,0,0,0,0,0,0,1,triangle,star,,,,,,,,,,,,,,,,,,,,,,,,,,,,,,,,,,,,,,,,,,,,,,,,,,,,,,
297241,2022-12-06_10h55.20.092,vts_reward_expectancy_bt,2022.2.4,MacIntel,60.0024001,Chrome,1440,900,,,l,1.0688,1,713,2,2,4,28,11,1,0,0,0,1,0,0,1,0,star,hexagon,,,,,,,,,,,,,,,,,,,,,,,,,,,,,,,,,,,,,,,,,,,,,,,,,,,,,,
297241,2022-12-06_10h55.20.092,vts_reward_expectancy_bt,2022.2.4,MacIntel,60.0024001,Chrome,1440,900,,,a,1.046,1,714,2,2,5,29,8,1,0,0,1,0,0,0,0,1,hexagon,star,,,,,,,,,,,,,,,,,,,,,,,,,,,,,,,,,,,,,,,,,,,,,,,,,,,,,,
297241,2022-12-06_10h55.20.092,vts_reward_expectancy_bt,2022.2.4,MacIntel,60.0024001,Chrome,1440,900,,,a,0.6734,1,715,2,2,6,30,1,1,1,0,0,0,0,0,1,0,triangle,hexagon,,,,,,,,,,,,,,,,,,,,,,,,,,,,,,,,,,,,,,,,,,,,,,,,,,,,,,
297241,2022-12-06_10h55.20.092,vts_reward_expectancy_bt,2022.2.4,MacIntel,60.0024001,Chrome,1440,900,,,a,0.6468,10,725,2,2,7,31,5,1,0,1,0,0,0,0,0,1,circle,star,,,,,,,,,,,,,,,,,,,,,,,,,,,,,,,,,,,,,,,,,,,,,,,,,,,,,,
297241,2022-12-06_10h55.20.092,vts_reward_expectancy_bt,2022.2.4,MacIntel,60.0024001,Chrome,1440,900,,,l,0.7577,10,735,2,2,8,32,6,1,0,0,1,0,1,0,0,0,hexagon,triangle,,,,,,,,,,,,,,,,,,,,,,,,,,,,,,,,,,,,,,,,,,,,,,,,,,,,,,
297241,2022-12-06_10h55.20.092,vts_reward_expectancy_bt,2022.2.4,MacIntel,60.0024001,Chrome,1440,900,,,l,0.899,1,736,2,2,9,33,0,1,1,0,0,0,0,1,0,0,triangle,circle,,,,,,,,,,,,,,,,,,,,,,,,,,,,,,,,,,,,,,,,,,,,,,,,,,,,,,
297241,2022-12-06_10h55.20.092,vts_reward_expectancy_bt,2022.2.4,MacIntel,60.0024001,Chrome,1440,900,,,a,0.9416,10,746,2,2,10,34,3,1,0,1,0,0,1,0,0,0,circle,triangle,,,,,,,,,,,,,,,,,,,,,,,,,,,,,,,,,,,,,,,,,,,,,,,,,,,,,,
297241,2022-12-06_10h55.20.092,vts_reward_expectancy_bt,2022.2.4,MacIntel,60.0024001,Chrome,1440,900,,,a,2.0331,1,747,2,2,11,35,4,1,0,1,0,0,0,0,1,0,circle,hexagon,,,,,,,,,,,,,,,,,,,,,,,,,,,,,,,,,,,,,,,,,,,,,,,,,,,,,,
297241,2022-12-06_10h55.20.092,vts_reward_expectancy_bt,2022.2.4,MacIntel,60.0024001,Chrome,1440,900,,,,,,,,,,,,,,,,,,,,,,,167,B,circle,1,0,f,1.9644,0,0,0,0,0,1,,,,,,,,,,,,,,,,,,,,,,,,,,,,,,,,,,,,,,,,,
297241,2022-12-06_10h55.20.092,vts_reward_expectancy_bt,2022.2.4,MacIntel,60.0024001,Chrome,1440,900,,,,,,,,,,,,,,,,,,,,,,,139,U,hexagon,1,0,d,0.8258,0,1,0,1,0,1,,,,,,,,,,,,,,,,,,,,,,,,,,,,,,,,,,,,,,,,,
297241,2022-12-06_10h55.20.092,vts_reward_expectancy_bt,2022.2.4,MacIntel,60.0024001,Chrome,1440,900,,,,,,,,,,,,,,,,,,,,,,,132,D,triangle,1,0,d,2.153,0,2,0,2,0,1,,,,,,,,,,,,,,,,,,,,,,,,,,,,,,,,,,,,,,,,,
297241,2022-12-06_10h55.20.092,vts_reward_expectancy_bt,2022.2.4,MacIntel,60.0024001,Chrome,1440,900,,,,,,,,,,,,,,,,,,,,,,,181,S,star,1,0,f,0.8134,0,3,0,3,0,1,,,,,,,,,,,,,,,,,,,,,,,,,,,,,,,,,,,,,,,,,
297241,2022-12-06_10h55.20.092,vts_reward_expectancy_bt,2022.2.4,MacIntel,60.0024001,Chrome,1440,900,,,,,,,,,,,,,,,,,,,,,,,146,H,circle,1,0,d,1.2956,0,4,0,4,0,1,,,,,,,,,,,,,,,,,,,,,,,,,,,,,,,,,,,,,,,,,
297241,2022-12-06_10h55.20.092,vts_reward_expectancy_bt,2022.2.4,MacIntel,60.0024001,Chrome,1440,900,,,,,,,,,,,,,,,,,,,,,,,160,Y,hexagon,1,0,f,0.6976,0,5,0,5,0,1,,,,,,,,,,,,,,,,,,,,,,,,,,,,,,,,,,,,,,,,,
297241,2022-12-06_10h55.20.092,vts_reward_expectancy_bt,2022.2.4,MacIntel,60.0024001,Chrome,1440,900,,,,,,,,,,,,,,,,,,,,,,,125,W,triangle,1,0,d,1.0324,0,6,0,6,0,1,,,,,,,,,,,,,,,,,,,,,,,,,,,,,,,,,,,,,,,,,
297241,2022-12-06_10h55.20.092,vts_reward_expectancy_bt,2022.2.4,MacIntel,60.0024001,Chrome,1440,900,,,,,,,,,,,,,,,,,,,,,,,174,F,star,1,0,f,0.7089,0,7,0,7,0,1,,,,,,,,,,,,,,,,,,,,,,,,,,,,,,,,,,,,,,,,,
297241,2022-12-06_10h55.20.092,vts_reward_expectancy_bt,2022.2.4,MacIntel,60.0024001,Chrome,1440,900,,,,,,,,,,,,,,,,,,,,,,,167,B,circle,1,0,f,0.7599,0,8,0,8,0,1,,,,,,,,,,,,,,,,,,,,,,,,,,,,,,,,,,,,,,,,,
297241,2022-12-06_10h55.20.092,vts_reward_expectancy_bt,2022.2.4,MacIntel,60.0024001,Chrome,1440,900,,,,,,,,,,,,,,,,,,,,,,,139,U,star,1,0,d,0.8653,0,9,0,9,0,1,,,,,,,,,,,,,,,,,,,,,,,,,,,,,,,,,,,,,,,,,
297241,2022-12-06_10h55.20.092,vts_reward_expectancy_bt,2022.2.4,MacIntel,60.0024001,Chrome,1440,900,,,,,,,,,,,,,,,,,,,,,,,167,S,hexagon,1,0,,,1,,,,,,k,0.9634,0,0,0,0,1,,,,,,,,,,,,,,,,,,,,,,,,,,,,,,,,,,
297241,2022-12-06_10h55.20.092,vts_reward_expectancy_bt,2022.2.4,MacIntel,60.0024001,Chrome,1440,900,,,,,,,,,,,,,,,,,,,,,,,132,H,circle,1,0,,,1,,,,,,j,0.8808,1,0,1,0,1,,,,,,,,,,,,,,,,,,,,,,,,,,,,,,,,,,
297241,2022-12-06_10h55.20.092,vts_reward_expectancy_bt,2022.2.4,MacIntel,60.0024001,Chrome,1440,900,,,,,,,,,,,,,,,,,,,,,,,139,U,triangle,1,0,,,1,,,,,,k,0.8305,2,0,2,0,1,,,,,,,,,,,,,,,,,,,,,,,,,,,,,,,,,,
297241,2022-12-06_10h55.20.092,vts_reward_expectancy_bt,2022.2.4,MacIntel,60.0024001,Chrome,1440,900,,,,,,,,,,,,,,,,,,,,,,,160,W,star,1,0,,,1,,,,,,k,0.7709,3,0,3,0,1,,,,,,,,,,,,,,,,,,,,,,,,,,,,,,,,,,
297241,2022-12-06_10h55.20.092,vts_reward_expectancy_bt,2022.2.4,MacIntel,60.0024001,Chrome,1440,900,,,,,,,,,,,,,,,,,,,,,,,181,F,hexagon,1,0,,,1,,,,,,j,0.7328,4,0,4,0,1,,,,,,,,,,,,,,,,,,,,,,,,,,,,,,,,,,
297241,2022-12-06_10h55.20.092,vts_reward_expectancy_bt,2022.2.4,MacIntel,60.0024001,Chrome,1440,900,,,,,,,,,,,,,,,,,,,,,,,125,D,circle,1,0,,,1,,,,,,j,0.7808,5,0,5,0,1,,,,,,,,,,,,,,,,,,,,,,,,,,,,,,,,,,
297241,2022-12-06_10h55.20.092,vts_reward_expectancy_bt,2022.2.4,MacIntel,60.0024001,Chrome,1440,900,,,,,,,,,,,,,,,,,,,,,,,174,Y,triangle,1,0,,,1,,,,,,k,0.7006,6,0,6,0,1,,,,,,,,,,,,,,,,,,,,,,,,,,,,,,,,,,
297241,2022-12-06_10h55.20.092,vts_reward_expectancy_bt,2022.2.4,MacIntel,60.0024001,Chrome,1440,900,,,,,,,,,,,,,,,,,,,,,,,146,B,star,1,0,,,1,,,,,,j,0.6139,7,0,7,0,1,,,,,,,,,,,,,,,,,,,,,,,,,,,,,,,,,,
297241,2022-12-06_10h55.20.092,vts_reward_expectancy_bt,2022.2.4,MacIntel,60.0024001,Chrome,1440,900,,,,,,,,,,,,,,,,,,,,,,,167,S,star,1,0,,,1,,,,,,k,0.965,8,0,8,0,1,,,,,,,,,,,,,,,,,,,,,,,,,,,,,,,,,,
297241,2022-12-06_10h55.20.092,vts_reward_expectancy_bt,2022.2.4,MacIntel,60.0024001,Chrome,1440,900,,,,,,,,,,,,,,,,,,,,,,,132,H,hexagon,1,0,,,1,,,,,,j,0.7459,9,0,9,0,1,,,,,,,,,,,,,,,,,,,,,,,,,,,,,,,,,,
297241,2022-12-06_10h55.20.092,vts_reward_expectancy_bt,2022.2.4,MacIntel,60.0024001,Chrome,1440,900,,,,,0,747,,,,,,,,,,,,,,,,,139,Y,star,1,0,,,2,,,,,,,,,,,,,-1,letter,NA,k,1.7528,vtsPrac,0,0,0,0,1,,,,,,,,,,,,,,,,,,,,,,,
297241,2022-12-06_10h55.20.092,vts_reward_expectancy_bt,2022.2.4,MacIntel,60.0024001,Chrome,1440,900,,,,,0,747,,,,,,,,,,,,,,,,,160,D,triangle,1,0,,,2,,,,,,,,,,,,,switch,number,numSwt,f,1.4472,vtsPrac,1,0,1,0,1,,,,,,,,,,,,,,,,,,,,,,,
297241,2022-12-06_10h55.20.092,vts_reward_expectancy_bt,2022.2.4,MacIntel,60.0024001,Chrome,1440,900,,,,,0,747,,,,,,,,,,,,,,,,,125,W,star,1,0,,,2,,,,,,,,,,,,,switch,letter,lettSwt,k,0.8379,vtsPrac,2,0,2,0,1,,,,,,,,,,,,,,,,,,,,,,,
297241,2022-12-06_10h55.20.092,vts_reward_expectancy_bt,2022.2.4,MacIntel,60.0024001,Chrome,1440,900,,,,,0,747,,,,,,,,,,,,,,,,,146,H,triangle,1,0,,,2,,,,,,,,,,,,,repeat,letter,lettRpt,j,0.8464,vtsPrac,3,0,3,0,1,,,,,,,,,,,,,,,,,,,,,,,
297241,2022-12-06_10h55.20.092,vts_reward_expectancy_bt,2022.2.4,MacIntel,60.0024001,Chrome,1440,900,,,,,0,747,,,,,,,,,,,,,,,,,139,Y,hexagon,1,0,,,2,,,,,,,,,,,,,repeat,letter,lettRpt,k,0.7483,vtsPrac,4,0,4,0,1,,,,,,,,,,,,,,,,,,,,,,,
297241,2022-12-06_10h55.20.092,vts_reward_expectancy_bt,2022.2.4,MacIntel,60.0024001,Chrome,1440,900,,,,,0,747,,,,,,,,,,,,,,,,,160,D,triangle,1,0,,,2,,,,,,,,,,,,,switch,number,numSwt,f,0.6845,vtsPrac,5,0,5,0,1,,,,,,,,,,,,,,,,,,,,,,,
297241,2022-12-06_10h55.20.092,vts_reward_expectancy_bt,2022.2.4,MacIntel,60.0024001,Chrome,1440,900,,,,,0,747,,,,,,,,,,,,,,,,,125,W,circle,1,0,,,2,,,,,,,,,,,,,repeat,number,numRpt,d,0.9312,vtsPrac,6,0,6,0,1,,,,,,,,,,,,,,,,,,,,,,,
297241,2022-12-06_10h55.20.092,vts_reward_expectancy_bt,2022.2.4,MacIntel,60.0024001,Chrome,1440,900,,,,,0,747,,,,,,,,,,,,,,,,,146,H,triangle,1,0,,,2,,,,,,,,,,,,,repeat,number,numRpt,d,1.3477,vtsPrac,7,0,7,0,1,,,,,,,,,,,,,,,,,,,,,,,
297241,2022-12-06_10h55.20.092,vts_reward_expectancy_bt,2022.2.4,MacIntel,60.0024001,Chrome,1440,900,,,,,0,747,,,,,,,,,,,,,,,,,174,D,circle,1,0,,,2,,,,,,,,,,,,,repeat,number,numRpt,f,0.6309,vtsPrac,8,0,8,0,1,,,,,,,,,,,,,,,,,,,,,,,
297241,2022-12-06_10h55.20.092,vts_reward_expectancy_bt,2022.2.4,MacIntel,60.0024001,Chrome,1440,900,,,,,0,747,,,,,,,,,,,,,,,,,167,Y,hexagon,1,0,,,2,,,,,,,,,,,,,switch,letter,lettSwt,k,0.6503,vtsPrac,9,0,9,0,1,,,,,,,,,,,,,,,,,,,,,,,
297241,2022-12-06_10h55.20.092,vts_reward_expectancy_bt,2022.2.4,MacIntel,60.0024001,Chrome,1440,900,,,,,0,747,,,,,,,,,,,,,,,,,132,H,hexagon,1,0,,,2,,,,,,,,,,,,,switch,number,numSwt,d,0.775,vtsPrac,10,0,10,0,1,,,,,,,,,,,,,,,,,,,,,,,
297241,2022-12-06_10h55.20.092,vts_reward_expectancy_bt,2022.2.4,MacIntel,60.0024001,Chrome,1440,900,,,,,0,747,,,,,,,,,,,,,,,,,139,S,triangle,1,0,,,2,,,,,,,,,,,,,switch,letter,lettSwt,k,1.1042,vtsPrac,11,0,11,0,1,,,,,,,,,,,,,,,,,,,,,,,
297241,2022-12-06_10h55.20.092,vts_reward_expectancy_bt,2022.2.4,MacIntel,60.0024001,Chrome,1440,900,,,,,0,747,,,,,,,,,,,,,,,,,125,H,star,1,0,,,2,,,,,,,,,,,,,repeat,letter,lettRpt,j,0.7205,vtsPrac,12,0,12,0,1,,,,,,,,,,,,,,,,,,,,,,,
297241,2022-12-06_10h55.20.092,vts_reward_expectancy_bt,2022.2.4,MacIntel,60.0024001,Chrome,1440,900,,,,,0,747,,,,,,,,,,,,,,,,,167,U,triangle,1,0,,,2,,,,,,,,,,,,,switch,number,numSwt,f,0.6306,vtsPrac,13,0,13,0,1,,,,,,,,,,,,,,,,,,,,,,,
297241,2022-12-06_10h55.20.092,vts_reward_expectancy_bt,2022.2.4,MacIntel,60.0024001,Chrome,1440,900,,,,,0,747,,,,,,,,,,,,,,,,,160,W,hexagon,1,0,,,2,,,,,,,,,,,,,repeat,number,numRpt,f,1.0132,vtsPrac,14,0,14,0,1,,,,,,,,,,,,,,,,,,,,,,,
297241,2022-12-06_10h55.20.092,vts_reward_expectancy_bt,2022.2.4,MacIntel,60.0024001,Chrome,1440,900,,,,,0,747,,,,,,,,,,,,,,,,,146,D,triangle,1,0,,,2,,,,,,,,,,,,,switch,letter,lettSwt,j,1.3717,vtsPrac,15,0,15,0,1,,,,,,,,,,,,,,,,,,,,,,,
297241,2022-12-06_10h55.20.092,vts_reward_expectancy_bt,2022.2.4,MacIntel,60.0024001,Chrome,1440,900,,,,,0,747,,,,,,,,,,,,,,,,,125,Y,triangle,1,0,,,2,,,,,,,,,,,,,repeat,letter,lettRpt,k,0.8471,vtsPrac,16,0,16,0,1,,,,,,,,,,,,,,,,,,,,,,,
297241,2022-12-06_10h55.20.092,vts_reward_expectancy_bt,2022.2.4,MacIntel,60.0024001,Chrome,1440,900,,,,,0,747,,,,,,,,,,,,,,,,,139,D,hexagon,1,0,,,2,,,,,,,,,,,,,repeat,letter,lettRpt,j,0.7863,vtsPrac,17,0,17,0,1,,,,,,,,,,,,,,,,,,,,,,,
297241,2022-12-06_10h55.20.092,vts_reward_expectancy_bt,2022.2.4,MacIntel,60.0024001,Chrome,1440,900,,,,,0,747,,,,,,,,,,,,,,,,,174,H,hexagon,1,0,,,2,,,,,,,,,,,,,repeat,letter,lettRpt,j,1.2146,vtsPrac,18,0,18,0,1,,,,,,,,,,,,,,,,,,,,,,,
297241,2022-12-06_10h55.20.092,vts_reward_expectancy_bt,2022.2.4,MacIntel,60.0024001,Chrome,1440,900,,,,,0,747,,,,,,,,,,,,,,,,,167,W,circle,1,0,,,2,,,,,,,,,,,,,repeat,letter,lettRpt,k,0.9091,vtsPrac,19,0,19,0,1,,,,,,,,,,,,,,,,,,,,,,,
297241,2022-12-06_10h55.20.092,vts_reward_expectancy_bt,2022.2.4,MacIntel,60.0024001,Chrome,1440,900,,,,,0,747,,,,,,,,,,,,,,,,,125,B,triangle,1,0,,,2,,,,,,,,,,,,,repeat,letter,lettRpt,j,1.0314,vtsPrac,20,0,20,0,1,,,,,,,,,,,,,,,,,,,,,,,
297241,2022-12-06_10h55.20.092,vts_reward_expectancy_bt,2022.2.4,MacIntel,60.0024001,Chrome,1440,900,,,,,0,747,,,,,,,,,,,,,,,,,132,S,star,1,0,,,2,,,,,,,,,,,,,switch,number,numSwt,d,1.6441,vtsPrac,21,0,21,0,1,,,,,,,,,,,,,,,,,,,,,,,
297241,2022-12-06_10h55.20.092,vts_reward_expectancy_bt,2022.2.4,MacIntel,60.0024001,Chrome,1440,900,,,,,0,747,,,,,,,,,,,,,,,,,181,H,hexagon,1,0,,,2,,,,,,,,,,,,,repeat,number,numRpt,f,0.6997,vtsPrac,22,0,22,0,1,,,,,,,,,,,,,,,,,,,,,,,
297241,2022-12-06_10h55.20.092,vts_reward_expectancy_bt,2022.2.4,MacIntel,60.0024001,Chrome,1440,900,,,,,0,747,,,,,,,,,,,,,,,,,160,F,triangle,1,0,,,2,,,,,,,,,,,,,repeat,number,numRpt,f,0.9632,vtsPrac,23,0,23,0,1,,,,,,,,,,,,,,,,,,,,,,,
297241,2022-12-06_10h55.20.092,vts_reward_expectancy_bt,2022.2.4,MacIntel,60.0024001,Chrome,1440,900,,,,,0,747,,,,,,,,,,,,,,,,,174,H,triangle,1,0,,,2,,,,,,,,,,,,,repeat,number,numRpt,f,0.9126,vtsPrac,24,0,24,0,1,,,,,,,,,,,,,,,,,,,,,,,
297241,2022-12-06_10h55.20.092,vts_reward_expectancy_bt,2022.2.4,MacIntel,60.0024001,Chrome,1440,900,,,,,0,747,,,,,,,,,,,,,,,,,132,S,circle,1,0,,,2,,,,,,,,,,,,,switch,letter,lettSwt,k,1.0197,vtsPrac,25,0,25,0,1,,,,,,,,,,,,,,,,,,,,,,,
297241,2022-12-06_10h55.20.092,vts_reward_expectancy_bt,2022.2.4,MacIntel,60.0024001,Chrome,1440,900,,,,,0,747,,,,,,,,,,,,,,,,,167,U,circle,1,0,,,2,,,,,,,,,,,,,repeat,letter,lettRpt,k,1.3974,vtsPrac,26,0,26,0,1,,,,,,,,,,,,,,,,,,,,,,,
297241,2022-12-06_10h55.20.092,vts_reward_expectancy_bt,2022.2.4,MacIntel,60.0024001,Chrome,1440,900,,,,,0,747,,,,,,,,,,,,,,,,,146,Y,hexagon,1,0,,,2,,,,,,,,,,,,,repeat,letter,lettRpt,k,0.831,vtsPrac,27,0,27,0,1,,,,,,,,,,,,,,,,,,,,,,,
297241,2022-12-06_10h55.20.092,vts_reward_expectancy_bt,2022.2.4,MacIntel,60.0024001,Chrome,1440,900,,,,,0,747,,,,,,,,,,,,,,,,,181,D,circle,1,0,,,2,,,,,,,,,,,,,repeat,letter,lettRpt,j,0.9655,vtsPrac,28,0,28,0,1,,,,,,,,,,,,,,,,,,,,,,,
297241,2022-12-06_10h55.20.092,vts_reward_expectancy_bt,2022.2.4,MacIntel,60.0024001,Chrome,1440,900,,,,,0,747,,,,,,,,,,,,,,,,,174,H,hexagon,1,0,,,2,,,,,,,,,,,,,repeat,letter,lettRpt,j,1.1935,vtsPrac,29,0,29,0,1,,,,,,,,,,,,,,,,,,,,,,,
297241,2022-12-06_10h55.20.092,vts_reward_expectancy_bt,2022.2.4,MacIntel,60.0024001,Chrome,1440,900,,,,,0,747,,,,,,,,,,,,,,,,,160,B,hexagon,1,0,,,2,,,,,,,,,,,,,switch,number,numSwt,f,0.7875,vtsPrac,30,0,30,0,1,,,,,,,,,,,,,,,,,,,,,,,
297241,2022-12-06_10h55.20.092,vts_reward_expectancy_bt,2022.2.4,MacIntel,60.0024001,Chrome,1440,900,,,,,0,747,,,,,,,,,,,,,,,,,132,U,circle,1,0,,,2,,,,,,,,,,,,,repeat,number,numRpt,d,1.1134,vtsPrac,31,0,31,0,1,,,,,,,,,,,,,,,,,,,,,,,
297241,2022-12-06_10h55.20.092,vts_reward_expectancy_bt,2022.2.4,MacIntel,60.0024001,Chrome,1440,900,,,,,,,,,,,,,,,,,,,,,,,,,,,,,,,,,,,,,,,,,,,,,,,,,,,,,,,,,,,,,,,,,,,,,,,,,,,,
297241,2022-12-06_10h55.20.092,vts_reward_expectancy_bt,2022.2.4,MacIntel,60.0024001,Chrome,1440,900,,,,,,,,,,,,,,,,,,,,,,,,,,,,,,,,,,,,,,,,,,,,,,,,,,,,,,,,,,,,,,,,,,,,,,,,,,,,
297241,2022-12-06_10h55.20.092,vts_reward_expectancy_bt,2022.2.4,MacIntel,60.0024001,Chrome,1440,900,,,,,0,747,,,,,,,,,,,,,,,,,181,H,hexagon,-1,0,,,,,,,,,,,,,,,,switch,no_choice,NA,,,noRew,,,,,,0,0,0,0,0,1,,,,,,,,,,,,,,,,,
297241,2022-12-06_10h55.20.092,vts_reward_expectancy_bt,2022.2.4,MacIntel,60.0024001,Chrome,1440,900,,,,,0,747,,,,,,,,,,,,,,,,,125,U,circle,1,0,,,,,,,,,,,,,,,,switch,number,numSwt,d,0.8996,noRew,,,,,,0,1,0,1,0,1,,,,,,,,,,,,,,,,,
297241,2022-12-06_10h55.20.092,vts_reward_expectancy_bt,2022.2.4,MacIntel,60.0024001,Chrome,1440,900,,,,,0,747,,,,,,,,,,,,,,,,,174,W,hexagon,1,0,,,,,,,,,,,,,,,,repeat,number,numRpt,f,0.7687,noRew,,,,,,0,2,0,2,0,1,,,,,,,,,,,,,,,,,
297241,2022-12-06_10h55.20.092,vts_reward_expectancy_bt,2022.2.4,MacIntel,60.0024001,Chrome,1440,900,,,,,0,747,,,,,,,,,,,,,,,,,146,D,circle,1,0,,,,,,,,,,,,,,,,switch,letter,lettSwt,j,1.3649,noRew,,,,,,0,3,0,3,0,1,,,,,,,,,,,,,,,,,
297241,2022-12-06_10h55.20.092,vts_reward_expectancy_bt,2022.2.4,MacIntel,60.0024001,Chrome,1440,900,,,,,0,747,,,,,,,,,,,,,,,,,181,H,star,1,0,,,,,,,,,,,,,,,,repeat,letter,lettRpt,j,1.0976,noRew,,,,,,0,4,0,4,0,1,,,,,,,,,,,,,,,,,
297241,2022-12-06_10h55.20.092,vts_reward_expectancy_bt,2022.2.4,MacIntel,60.0024001,Chrome,1440,900,,,,,0,747,,,,,,,,,,,,,,,,,125,U,hexagon,1,0,,,,,,,,,,,,,,,,repeat,letter,lettRpt,k,1.0824,noRew,,,,,,0,5,0,5,0,1,,,,,,,,,,,,,,,,,
297241,2022-12-06_10h55.20.092,vts_reward_expectancy_bt,2022.2.4,MacIntel,60.0024001,Chrome,1440,900,,,,,0,747,,,,,,,,,,,,,,,,,174,W,star,1,0,,,,,,,,,,,,,,,,switch,number,numSwt,f,1.3212,noRew,,,,,,0,6,0,6,0,1,,,,,,,,,,,,,,,,,
297241,2022-12-06_10h55.20.092,vts_reward_expectancy_bt,2022.2.4,MacIntel,60.0024001,Chrome,1440,900,,,,,0,747,,,,,,,,,,,,,,,,,146,D,circle,1,0,,,,,,,,,,,,,,,,repeat,number,numRpt,d,1.2789,noRew,,,,,,0,7,0,7,0,1,,,,,,,,,,,,,,,,,
297241,2022-12-06_10h55.20.092,vts_reward_expectancy_bt,2022.2.4,MacIntel,60.0024001,Chrome,1440,900,,,,,0,747,,,,,,,,,,,,,,,,,125,H,hexagon,1,0,,,,,,,,,,,,,,,,repeat,number,numRpt,d,1.0634,noRew,,,,,,0,8,0,8,0,1,,,,,,,,,,,,,,,,,
297241,2022-12-06_10h55.20.092,vts_reward_expectancy_bt,2022.2.4,MacIntel,60.0024001,Chrome,1440,900,,,,,0,747,,,,,,,,,,,,,,,,,174,B,star,1,0,,,,,,,,,,,,,,,,switch,letter,lettSwt,j,1.0672,noRew,,,,,,0,9,0,9,0,1,,,,,,,,,,,,,,,,,
297241,2022-12-06_10h55.20.092,vts_reward_expectancy_bt,2022.2.4,MacIntel,60.0024001,Chrome,1440,900,,,,,0,747,,,,,,,,,,,,,,,,,181,F,circle,1,0,,,,,,,,,,,,,,,,repeat,letter,lettRpt,j,1.3017,noRew,,,,,,0,10,0,10,0,1,,,,,,,,,,,,,,,,,
297241,2022-12-06_10h55.20.092,vts_reward_expectancy_bt,2022.2.4,MacIntel,60.0024001,Chrome,1440,900,,,,,0,747,,,,,,,,,,,,,,,,,139,D,star,1,0,,,,,,,,,,,,,,,,switch,number,numSwt,d,1.0947,noRew,,,,,,0,11,0,11,0,1,,,,,,,,,,,,,,,,,
297241,2022-12-06_10h55.20.092,vts_reward_expectancy_bt,2022.2.4,MacIntel,60.0024001,Chrome,1440,900,,,,,0,747,,,,,,,,,,,,,,,,,146,D,hexagon,1,0,,,,,,,,,,,,,,,,repeat,number,numRpt,d,0.9877,noRew,,,,,,0,12,0,12,0,1,,,,,,,,,,,,,,,,,
297241,2022-12-06_10h55.20.092,vts_reward_expectancy_bt,2022.2.4,MacIntel,60.0024001,Chrome,1440,900,,,,,0,747,,,,,,,,,,,,,,,,,139,U,circle,1,0,,,,,,,,,,,,,,,,switch,letter,lettSwt,k,2.3596,noRew,,,,,,0,13,0,13,0,1,,,,,,,,,,,,,,,,,
297241,2022-12-06_10h55.20.092,vts_reward_expectancy_bt,2022.2.4,MacIntel,60.0024001,Chrome,1440,900,,,,,0,747,,,,,,,,,,,,,,,,,167,H,hexagon,1,0,,,,,,,,,,,,,,,,repeat,letter,lettRpt,j,0.7293,noRew,,,,,,0,14,0,14,0,1,,,,,,,,,,,,,,,,,
297241,2022-12-06_10h55.20.092,vts_reward_expectancy_bt,2022.2.4,MacIntel,60.0024001,Chrome,1440,900,,,,,0,747,,,,,,,,,,,,,,,,,160,W,star,1,0,,,,,,,,,,,,,,,,repeat,letter,lettRpt,k,0.5691,noRew,,,,,,0,15,0,15,0,1,,,,,,,,,,,,,,,,,
297241,2022-12-06_10h55.20.092,vts_reward_expectancy_bt,2022.2.4,MacIntel,60.0024001,Chrome,1440,900,,,,,0,747,,,,,,,,,,,,,,,,,125,B,triangle,1,0,,,,,,,,,,,,,,,,switch,number,numSwt,d,0.7942,noRew,,,,,,0,16,0,16,0,1,,,,,,,,,,,,,,,,,
297241,2022-12-06_10h55.20.092,vts_reward_expectancy_bt,2022.2.4,MacIntel,60.0024001,Chrome,1440,900,,,,,0,747,,,,,,,,,,,,,,,,,181,W,hexagon,1,0,,,,,,,,,,,,,,,,repeat,number,numRpt,f,0.5812,noRew,,,,,,0,17,0,17,0,1,,,,,,,,,,,,,,,,,
297241,2022-12-06_10h55.20.092,vts_reward_expectancy_bt,2022.2.4,MacIntel,60.0024001,Chrome,1440,900,,,,,0,747,,,,,,,,,,,,,,,,,174,U,triangle,1,0,,,,,,,,,,,,,,,,switch,letter,lettSwt,k,0.6015,noRew,,,,,,0,18,0,18,0,1,,,,,,,,,,,,,,,,,
297241,2022-12-06_10h55.20.092,vts_reward_expectancy_bt,2022.2.4,MacIntel,60.0024001,Chrome,1440,900,,,,,0,747,,,,,,,,,,,,,,,,,146,D,star,1,0,,,,,,,,,,,,,,,,repeat,letter,lettRpt,j,0.5467,noRew,,,,,,0,19,0,19,0,1,,,,,,,,,,,,,,,,,
297241,2022-12-06_10h55.20.092,vts_reward_expectancy_bt,2022.2.4,MacIntel,60.0024001,Chrome,1440,900,,,,,0,747,,,,,,,,,,,,,,,,,139,F,triangle,1,0,,,,,,,,,,,,,,,,switch,number,numSwt,d,1.2303,noRew,,,,,,0,20,0,20,0,1,,,,,,,,,,,,,,,,,
297241,2022-12-06_10h55.20.092,vts_reward_expectancy_bt,2022.2.4,MacIntel,60.0024001,Chrome,1440,900,,,,,0,747,,,,,,,,,,,,,,,,,181,U,star,1,0,,,,,,,,,,,,,,,,repeat,number,numRpt,f,0.7937,noRew,,,,,,0,21,0,21,0,1,,,,,,,,,,,,,,,,,
297241,2022-12-06_10h55.20.092,vts_reward_expectancy_bt,2022.2.4,MacIntel,60.0024001,Chrome,1440,900,,,,,0,747,,,,,,,,,,,,,,,,,174,Y,star,1,0,,,,,,,,,,,,,,,,switch,letter,lettSwt,k,0.6259,noRew,,,,,,0,22,0,22,0,1,,,,,,,,,,,,,,,,,
297241,2022-12-06_10h55.20.092,vts_reward_expectancy_bt,2022.2.4,MacIntel,60.0024001,Chrome,1440,900,,,,,0,747,,,,,,,,,,,,,,,,,125,D,hexagon,1,0,,,,,,,,,,,,,,,,repeat,letter,lettRpt,j,0.9094,noRew,,,,,,0,23,0,23,0,1,,,,,,,,,,,,,,,,,
297241,2022-12-06_10h55.20.092,vts_reward_expectancy_bt,2022.2.4,MacIntel,60.0024001,Chrome,1440,900,,,,,0,747,,,,,,,,,,,,,,,,,146,H,circle,1,0,,,,,,,,,,,,,,,,switch,number,numSwt,d,0.7841,noRew,,,,,,0,24,0,24,0,1,,,,,,,,,,,,,,,,,
297241,2022-12-06_10h55.20.092,vts_reward_expectancy_bt,2022.2.4,MacIntel,60.0024001,Chrome,1440,900,,,,,0,747,,,,,,,,,,,,,,,,,132,U,hexagon,1,0,,,,,,,,,,,,,,,,switch,letter,lettSwt,k,1.5446,noRew,,,,,,0,25,0,25,0,1,,,,,,,,,,,,,,,,,
297241,2022-12-06_10h55.20.092,vts_reward_expectancy_bt,2022.2.4,MacIntel,60.0024001,Chrome,1440,900,,,,,0,747,,,,,,,,,,,,,,,,,181,F,star,1,0,,,,,,,,,,,,,,,,switch,number,numSwt,f,0.7865,noRew,,,,,,0,26,0,26,0,1,,,,,,,,,,,,,,,,,
297241,2022-12-06_10h55.20.092,vts_reward_expectancy_bt,2022.2.4,MacIntel,60.0024001,Chrome,1440,900,,,,,0,747,,,,,,,,,,,,,,,,,160,Y,triangle,1,0,,,,,,,,,,,,,,,,switch,letter,lettSwt,k,1.5642,noRew,,,,,,0,27,0,27,0,1,,,,,,,,,,,,,,,,,
297241,2022-12-06_10h55.20.092,vts_reward_expectancy_bt,2022.2.4,MacIntel,60.0024001,Chrome,1440,900,,,,,0,747,,,,,,,,,,,,,,,,,125,U,star,1,0,,,,,,,,,,,,,,,,switch,number,numSwt,d,1.1468,noRew,,,,,,0,28,0,28,0,1,,,,,,,,,,,,,,,,,
297241,2022-12-06_10h55.20.092,vts_reward_expectancy_bt,2022.2.4,MacIntel,60.0024001,Chrome,1440,900,,,,,0,747,,,,,,,,,,,,,,,,,160,S,triangle,1,0,,,,,,,,,,,,,,,,repeat,number,numRpt,f,0.9946,noRew,,,,,,0,29,0,29,0,1,,,,,,,,,,,,,,,,,
297241,2022-12-06_10h55.20.092,vts_reward_expectancy_bt,2022.2.4,MacIntel,60.0024001,Chrome,1440,900,,,,,0,747,,,,,,,,,,,,,,,,,132,H,star,1,0,,,,,,,,,,,,,,,,repeat,number,numRpt,d,0.6967,noRew,,,,,,0,30,0,30,0,1,,,,,,,,,,,,,,,,,
297241,2022-12-06_10h55.20.092,vts_reward_expectancy_bt,2022.2.4,MacIntel,60.0024001,Chrome,1440,900,,,,,0,747,,,,,,,,,,,,,,,,,181,B,hexagon,1,0,,,,,,,,,,,,,,,,repeat,number,numRpt,f,0.8796,noRew,,,,,,0,31,0,31,0,1,,,,,,,,,,,,,,,,,
297241,2022-12-06_10h55.20.092,vts_reward_expectancy_bt,2022.2.4,MacIntel,60.0024001,Chrome,1440,900,,,,,0,747,,,,,,,,,,,,,,,,,174,D,hexagon,0,0,,,,,,,,,,,,,,,,switch,letter,NA,k,0.8699,noRew,,,,,,0,32,0,32,0,1,,,,,,,,,,,,,,,,,
297241,2022-12-06_10h55.20.092,vts_reward_expectancy_bt,2022.2.4,MacIntel,60.0024001,Chrome,1440,900,,,,,0,747,,,,,,,,,,,,,,,,,160,B,star,1,1,,,,,,,,,,,,,,,,repeat,letter,lettRpt,j,0.911,noRew,,,,,,0,33,0,33,0,1,,,,,,,,,,,,,,,,,
297241,2022-12-06_10h55.20.092,vts_reward_expectancy_bt,2022.2.4,MacIntel,60.0024001,Chrome,1440,900,,,,,0,747,,,,,,,,,,,,,,,,,139,F,hexagon,1,0,,,,,,,,,,,,,,,,repeat,letter,lettRpt,j,1.2965,noRew,,,,,,0,34,0,34,0,1,,,,,,,,,,,,,,,,,
297241,2022-12-06_10h55.20.092,vts_reward_expectancy_bt,2022.2.4,MacIntel,60.0024001,Chrome,1440,900,,,,,0,747,,,,,,,,,,,,,,,,,181,H,triangle,1,0,,,,,,,,,,,,,,,,switch,number,numSwt,f,0.8299,noRew,,,,,,0,35,0,35,0,1,,,,,,,,,,,,,,,,,
297241,2022-12-06_10h55.20.092,vts_reward_expectancy_bt,2022.2.4,MacIntel,60.0024001,Chrome,1440,900,,,,,0,747,,,,,,,,,,,,,,,,,181,W,star,1,0,,,,,,,,,,,,,,,,switch,letter,lettSwt,k,1.0822,noRew,,,,,,0,36,0,36,0,1,,,,,,,,,,,,,,,,,
297241,2022-12-06_10h55.20.092,vts_reward_expectancy_bt,2022.2.4,MacIntel,60.0024001,Chrome,1440,900,,,,,0,747,,,,,,,,,,,,,,,,,174,D,hexagon,1,0,,,,,,,,,,,,,,,,repeat,letter,lettRpt,j,1.0981,noRew,,,,,,0,37,0,37,0,1,,,,,,,,,,,,,,,,,
297241,2022-12-06_10h55.20.092,vts_reward_expectancy_bt,2022.2.4,MacIntel,60.0024001,Chrome,1440,900,,,,,0,747,,,,,,,,,,,,,,,,,139,H,triangle,1,0,,,,,,,,,,,,,,,,repeat,letter,lettRpt,j,1.1525,noRew,,,,,,0,38,0,38,0,1,,,,,,,,,,,,,,,,,
297241,2022-12-06_10h55.20.092,vts_reward_expectancy_bt,2022.2.4,MacIntel,60.0024001,Chrome,1440,900,,,,,0,747,,,,,,,,,,,,,,,,,132,S,star,1,0,,,,,,,,,,,,,,,,repeat,letter,lettRpt,k,1.0984,noRew,,,,,,0,39,0,39,0,1,,,,,,,,,,,,,,,,,
297241,2022-12-06_10h55.20.092,vts_reward_expectancy_bt,2022.2.4,MacIntel,60.0024001,Chrome,1440,900,,,,,0,747,,,,,,,,,,,,,,,,,181,S,triangle,1,0,,,,,,,,,,,,,,,,repeat,letter,lettRpt,k,1.6652,noRew,,,,,,0,40,0,40,0,1,,,,,,,,,,,,,,,,,
297241,2022-12-06_10h55.20.092,vts_reward_expectancy_bt,2022.2.4,MacIntel,60.0024001,Chrome,1440,900,,,,,0,747,,,,,,,,,,,,,,,,,174,F,circle,1,0,,,,,,,,,,,,,,,,switch,number,numSwt,f,1.6654,noRew,,,,,,0,41,0,41,0,1,,,,,,,,,,,,,,,,,
297241,2022-12-06_10h55.20.092,vts_reward_expectancy_bt,2022.2.4,MacIntel,60.0024001,Chrome,1440,900,,,,,0,747,,,,,,,,,,,,,,,,,146,Y,triangle,1,0,,,,,,,,,,,,,,,,switch,letter,lettSwt,k,1.4126,noRew,,,,,,0,42,0,42,0,1,,,,,,,,,,,,,,,,,
297241,2022-12-06_10h55.20.092,vts_reward_expectancy_bt,2022.2.4,MacIntel,60.0024001,Chrome,1440,900,,,,,0,747,,,,,,,,,,,,,,,,,139,U,circle,1,0,,,,,,,,,,,,,,,,repeat,letter,lettRpt,k,1.9631,noRew,,,,,,0,43,0,43,0,1,,,,,,,,,,,,,,,,,
297241,2022-12-06_10h55.20.092,vts_reward_expectancy_bt,2022.2.4,MacIntel,60.0024001,Chrome,1440,900,,,,,0,747,,,,,,,,,,,,,,,,,139,W,hexagon,1,0,,,,,,,,,,,,,,,,repeat,letter,lettRpt,k,1.7847,noRew,,,,,,0,44,0,44,0,1,,,,,,,,,,,,,,,,,
297241,2022-12-06_10h55.20.092,vts_reward_expectancy_bt,2022.2.4,MacIntel,60.0024001,Chrome,1440,900,,,,,0,747,,,,,,,,,,,,,,,,,174,H,circle,1,0,,,,,,,,,,,,,,,,switch,number,numSwt,f,0.7814,noRew,,,,,,0,45,0,45,0,1,,,,,,,,,,,,,,,,,
297241,2022-12-06_10h55.20.092,vts_reward_expectancy_bt,2022.2.4,MacIntel,60.0024001,Chrome,1440,900,,,,,0,747,,,,,,,,,,,,,,,,,146,F,circle,0,0,,,,,,,,,,,,,,,,switch,letter,NA,k,1.914,noRew,,,,,,0,46,0,46,0,1,,,,,,,,,,,,,,,,,
297241,2022-12-06_10h55.20.092,vts_reward_expectancy_bt,2022.2.4,MacIntel,60.0024001,Chrome,1440,900,,,,,0,747,,,,,,,,,,,,,,,,,167,Y,hexagon,1,1,,,,,,,,,,,,,,,,switch,number,numSwt,f,0.6982,noRew,,,,,,0,47,0,47,0,1,,,,,,,,,,,,,,,,,
297241,2022-12-06_10h55.20.092,vts_reward_expectancy_bt,2022.2.4,MacIntel,60.0024001,Chrome,1440,900,,,,,0,747,,,,,,,,,,,,,,,,,146,H,star,1,0,,,,,,,,,,,,,,,,switch,letter,lettSwt,j,0.7823,noRew,,,,,,0,48,0,48,0,1,,,,,,,,,,,,,,,,,
297241,2022-12-06_10h55.20.092,vts_reward_expectancy_bt,2022.2.4,MacIntel,60.0024001,Chrome,1440,900,,,,,0,747,,,,,,,,,,,,,,,,,132,U,circle,1,0,,,,,,,,,,,,,,,,repeat,letter,lettRpt,k,0.5348,noRew,,,,,,0,49,0,49,0,1,,,,,,,,,,,,,,,,,
297241,2022-12-06_10h55.20.092,vts_reward_expectancy_bt,2022.2.4,MacIntel,60.0024001,Chrome,1440,900,,,,,0,747,,,,,,,,,,,,,,,,,181,S,triangle,1,0,,,,,,,,,,,,,,,,switch,number,numSwt,f,0.9488,noRew,,,,,,0,50,0,50,0,1,,,,,,,,,,,,,,,,,
297241,2022-12-06_10h55.20.092,vts_reward_expectancy_bt,2022.2.4,MacIntel,60.0024001,Chrome,1440,900,,,,,0,747,,,,,,,,,,,,,,,,,125,Y,circle,1,0,,,,,,,,,,,,,,,,repeat,number,numRpt,d,0.7002,noRew,,,,,,0,51,0,51,0,1,,,,,,,,,,,,,,,,,
297241,2022-12-06_10h55.20.092,vts_reward_expectancy_bt,2022.2.4,MacIntel,60.0024001,Chrome,1440,900,,,,,0,747,,,,,,,,,,,,,,,,,139,D,circle,1,0,,,,,,,,,,,,,,,,switch,letter,lettSwt,j,1.5985,noRew,,,,,,0,52,0,52,0,1,,,,,,,,,,,,,,,,,
297241,2022-12-06_10h55.20.092,vts_reward_expectancy_bt,2022.2.4,MacIntel,60.0024001,Chrome,1440,900,,,,,0,747,,,,,,,,,,,,,,,,,174,H,triangle,1,0,,,,,,,,,,,,,,,,switch,number,numSwt,f,0.7653,noRew,,,,,,0,53,0,53,0,1,,,,,,,,,,,,,,,,,
297241,2022-12-06_10h55.20.092,vts_reward_expectancy_bt,2022.2.4,MacIntel,60.0024001,Chrome,1440,900,,,,,0,747,,,,,,,,,,,,,,,,,125,S,hexagon,1,0,,,,,,,,,,,,,,,,switch,letter,lettSwt,k,1.162,noRew,,,,,,0,54,0,54,0,1,,,,,,,,,,,,,,,,,
297241,2022-12-06_10h55.20.092,vts_reward_expectancy_bt,2022.2.4,MacIntel,60.0024001,Chrome,1440,900,,,,,0,747,,,,,,,,,,,,,,,,,167,F,triangle,1,0,,,,,,,,,,,,,,,,switch,number,numSwt,f,0.8076,noRew,,,,,,0,55,0,55,0,1,,,,,,,,,,,,,,,,,
297241,2022-12-06_10h55.20.092,vts_reward_expectancy_bt,2022.2.4,MacIntel,60.0024001,Chrome,1440,900,,,,,0,747,,,,,,,,,,,,,,,,,146,W,circle,1,0,,,,,,,,,,,,,,,,switch,letter,lettSwt,k,1.3912,noRew,,,,,,0,56,0,56,0,1,,,,,,,,,,,,,,,,,
297241,2022-12-06_10h55.20.092,vts_reward_expectancy_bt,2022.2.4,MacIntel,60.0024001,Chrome,1440,900,,,,,0,747,,,,,,,,,,,,,,,,,181,U,triangle,1,0,,,,,,,,,,,,,,,,switch,number,numSwt,f,0.7777,noRew,,,,,,0,57,0,57,0,1,,,,,,,,,,,,,,,,,
297241,2022-12-06_10h55.20.092,vts_reward_expectancy_bt,2022.2.4,MacIntel,60.0024001,Chrome,1440,900,,,,,0,747,,,,,,,,,,,,,,,,,125,D,hexagon,1,0,,,,,,,,,,,,,,,,switch,letter,lettSwt,j,1.344,noRew,,,,,,0,58,0,58,0,1,,,,,,,,,,,,,,,,,
297241,2022-12-06_10h55.20.092,vts_reward_expectancy_bt,2022.2.4,MacIntel,60.0024001,Chrome,1440,900,,,,,0,747,,,,,,,,,,,,,,,,,139,Y,triangle,1,0,,,,,,,,,,,,,,,,repeat,letter,lettRpt,k,1.4071,noRew,,,,,,0,59,0,59,0,1,,,,,,,,,,,,,,,,,
297241,2022-12-06_10h55.20.092,vts_reward_expectancy_bt,2022.2.4,MacIntel,60.0024001,Chrome,1440,900,,,,,0,747,,,,,,,,,,,,,,,,,181,S,star,1,0,,,,,,,,,,,,,,,,switch,number,numSwt,f,1.3839,noRew,,,,,,0,60,0,60,0,1,,,,,,,,,,,,,,,,,
297241,2022-12-06_10h55.20.092,vts_reward_expectancy_bt,2022.2.4,MacIntel,60.0024001,Chrome,1440,900,,,,,0,747,,,,,,,,,,,,,,,,,146,D,hexagon,1,0,,,,,,,,,,,,,,,,repeat,number,numRpt,d,1.6945,noRew,,,,,,0,61,0,61,0,1,,,,,,,,,,,,,,,,,
297241,2022-12-06_10h55.20.092,vts_reward_expectancy_bt,2022.2.4,MacIntel,60.0024001,Chrome,1440,900,,,,,0,747,,,,,,,,,,,,,,,,,139,W,circle,1,0,,,,,,,,,,,,,,,,switch,letter,lettSwt,k,0.985,noRew,,,,,,0,62,0,62,0,1,,,,,,,,,,,,,,,,,
297241,2022-12-06_10h55.20.092,vts_reward_expectancy_bt,2022.2.4,MacIntel,60.0024001,Chrome,1440,900,,,,,0,747,,,,,,,,,,,,,,,,,125,U,star,1,0,,,,,,,,,,,,,,,,repeat,letter,lettRpt,k,1.2141,noRew,,,,,,0,63,0,63,0,1,,,,,,,,,,,,,,,,,
297241,2022-12-06_10h55.20.092,vts_reward_expectancy_bt,2022.2.4,MacIntel,60.0024001,Chrome,1440,900,,,,,,,,,,,,,,,,,,,,,,,,,,,,,,,,,,,,,,,,,,,,,,,,,,,,,,,,,,,,,,,,,,,,,,,,,,,,
297241,2022-12-06_10h55.20.092,vts_reward_expectancy_bt,2022.2.4,MacIntel,60.0024001,Chrome,1440,900,,,,,1,748,,,,,,,,,,,,,,,,,160,W,star,1,0,,,,,,,,,,,,,,,,switch,number,numSwt,f,0.914,Lo,,,,,,0,,,,,,space,9.5395,high,0,0,0,0,1,,,,,,,,,
297241,2022-12-06_10h55.20.092,vts_reward_expectancy_bt,2022.2.4,MacIntel,60.0024001,Chrome,1440,900,,,,,1,749,,,,,,,,,,,,,,,,,132,Y,hexagon,1,0,,,,,,,,,,,,,,,,repeat,number,numRpt,d,0.8157,Lo,,,,,,0,,,,,,,,high,1,0,1,0,1,,,,,,,,,
297241,2022-12-06_10h55.20.092,vts_reward_expectancy_bt,2022.2.4,MacIntel,60.0024001,Chrome,1440,900,,,,,10,759,,,,,,,,,,,,,,,,,167,S,circle,1,0,,,,,,,,,,,,,,,,switch,letter,lettSwt,k,0.8324,Hi,,,,,,0,,,,,,,,high,2,0,2,0,1,,,,,,,,,
297241,2022-12-06_10h55.20.092,vts_reward_expectancy_bt,2022.2.4,MacIntel,60.0024001,Chrome,1440,900,,,,,10,769,,,,,,,,,,,,,,,,,174,D,triangle,1,0,,,,,,,,,,,,,,,,repeat,letter,lettRpt,j,0.6304,Hi,,,,,,0,,,,,,,,high,3,0,3,0,1,,,,,,,,,
297241,2022-12-06_10h55.20.092,vts_reward_expectancy_bt,2022.2.4,MacIntel,60.0024001,Chrome,1440,900,,,,,1,770,,,,,,,,,,,,,,,,,125,F,star,1,0,,,,,,,,,,,,,,,,switch,number,numSwt,d,0.7982,Lo,,,,,,0,,,,,,,,high,4,0,4,0,1,,,,,,,,,
297241,2022-12-06_10h55.20.092,vts_reward_expectancy_bt,2022.2.4,MacIntel,60.0024001,Chrome,1440,900,,,,,1,771,,,,,,,,,,,,,,,,,146,B,hexagon,1,0,,,,,,,,,,,,,,,,switch,letter,lettSwt,j,0.8202,Lo,,,,,,0,,,,,,,,high,5,0,5,0,1,,,,,,,,,
297241,2022-12-06_10h55.20.092,vts_reward_expectancy_bt,2022.2.4,MacIntel,60.0024001,Chrome,1440,900,,,,,0,771,,,,,,,,,,,,,,,,,181,U,circle,0,0,,,,,,,,,,,,,,,,repeat,letter,NA,j,0.6006,Lo,,,,,,0,,,,,,,,high,6,0,6,0,1,,,,,,,,,
297241,2022-12-06_10h55.20.092,vts_reward_expectancy_bt,2022.2.4,MacIntel,60.0024001,Chrome,1440,900,,,,,0,771,,,,,,,,,,,,,,,,,139,H,triangle,0,1,,,,,,,,,,,,,,,,repeat,letter,NA,k,0.5486,Lo,,,,,,0,,,,,,,,high,7,0,7,0,1,,,,,,,,,
297241,2022-12-06_10h55.20.092,vts_reward_expectancy_bt,2022.2.4,MacIntel,60.0024001,Chrome,1440,900,,,,,1,772,,,,,,,,,,,,,,,,,160,W,star,1,1,,,,,,,,,,,,,,,,switch,number,numSwt,f,0.8535,Lo,,,,,,0,,,,,,,,high,8,0,8,0,1,,,,,,,,,
297241,2022-12-06_10h55.20.092,vts_reward_expectancy_bt,2022.2.4,MacIntel,60.0024001,Chrome,1440,900,,,,,10,782,,,,,,,,,,,,,,,,,132,Y,triangle,1,0,,,,,,,,,,,,,,,,switch,letter,lettSwt,k,0.686,Hi,,,,,,0,,,,,,,,high,9,0,9,0,1,,,,,,,,,
297241,2022-12-06_10h55.20.092,vts_reward_expectancy_bt,2022.2.4,MacIntel,60.0024001,Chrome,1440,900,,,,,0,782,,,,,,,,,,,,,,,,,167,S,hexagon,0,0,,,,,,,,,,,,,,,,repeat,letter,NA,j,0.6155,Hi,,,,,,0,,,,,,,,high,10,0,10,0,1,,,,,,,,,
297241,2022-12-06_10h55.20.092,vts_reward_expectancy_bt,2022.2.4,MacIntel,60.0024001,Chrome,1440,900,,,,,10,792,,,,,,,,,,,,,,,,,174,D,circle,1,1,,,,,,,,,,,,,,,,switch,number,numSwt,f,0.5308,Hi,,,,,,0,,,,,,,,high,11,0,11,0,1,,,,,,,,,
297241,2022-12-06_10h55.20.092,vts_reward_expectancy_bt,2022.2.4,MacIntel,60.0024001,Chrome,1440,900,,,,,10,802,,,,,,,,,,,,,,,,,125,F,triangle,1,0,,,,,,,,,,,,,,,,repeat,number,numRpt,d,0.7354,Hi,,,,,,0,,,,,,,,high,12,0,12,0,1,,,,,,,,,
297241,2022-12-06_10h55.20.092,vts_reward_expectancy_bt,2022.2.4,MacIntel,60.0024001,Chrome,1440,900,,,,,0,802,,,,,,,,,,,,,,,,,146,B,circle,0,0,,,,,,,,,,,,,,,,repeat,number,NA,f,0.5108,Hi,,,,,,0,,,,,,,,high,13,0,13,0,1,,,,,,,,,
297241,2022-12-06_10h55.20.092,vts_reward_expectancy_bt,2022.2.4,MacIntel,60.0024001,Chrome,1440,900,,,,,1,803,,,,,,,,,,,,,,,,,181,U,hexagon,1,1,,,,,,,,,,,,,,,,repeat,number,numRpt,f,0.68,Lo,,,,,,0,,,,,,,,high,14,0,14,0,1,,,,,,,,,
297241,2022-12-06_10h55.20.092,vts_reward_expectancy_bt,2022.2.4,MacIntel,60.0024001,Chrome,1440,900,,,,,1,804,,,,,,,,,,,,,,,,,139,H,star,1,0,,,,,,,,,,,,,,,,repeat,number,numRpt,d,0.7107,Lo,,,,,,0,,,,,,,,high,15,0,15,0,1,,,,,,,,,
297241,2022-12-06_10h55.20.092,vts_reward_expectancy_bt,2022.2.4,MacIntel,60.0024001,Chrome,1440,900,,,,,10,814,,,,,,,,,,,,,,,,,125,B,star,1,0,,,,,,,,,,,,,,,,switch,letter,lettSwt,j,1.0179,Lo,,,,,,0,,,,,,,,high,16,0,16,0,1,,,,,,,,,
297241,2022-12-06_10h55.20.092,vts_reward_expectancy_bt,2022.2.4,MacIntel,60.0024001,Chrome,1440,900,,,,,10,824,,,,,,,,,,,,,,,,,139,F,circle,1,0,,,,,,,,,,,,,,,,repeat,letter,lettRpt,j,0.8131,Hi,,,,,,0,,,,,,,,high,17,0,17,0,1,,,,,,,,,
297241,2022-12-06_10h55.20.092,vts_reward_expectancy_bt,2022.2.4,MacIntel,60.0024001,Chrome,1440,900,,,,,10,834,,,,,,,,,,,,,,,,,160,Y,hexagon,1,0,,,,,,,,,,,,,,,,repeat,letter,lettRpt,k,0.8137,Lo,,,,,,0,,,,,,,,high,18,0,18,0,1,,,,,,,,,
297241,2022-12-06_10h55.20.092,vts_reward_expectancy_bt,2022.2.4,MacIntel,60.0024001,Chrome,1440,900,,,,,0,834,,,,,,,,,,,,,,,,,181,U,triangle,1,0,,,,,,,,,,,,,,,,switch,number,numSwt,f,0.9638,Hi,,,,,,0,,,,,,,,high,19,0,19,0,1,,,,,,,,,
297241,2022-12-06_10h55.20.092,vts_reward_expectancy_bt,2022.2.4,MacIntel,60.0024001,Chrome,1440,900,,,,,1,835,,,,,,,,,,,,,,,,,174,D,circle,1,0,,,,,,,,,,,,,,,,repeat,number,numRpt,f,0.5698,Hi,,,,,,0,,,,,,,,high,20,0,20,0,1,,,,,,,,,
297241,2022-12-06_10h55.20.092,vts_reward_expectancy_bt,2022.2.4,MacIntel,60.0024001,Chrome,1440,900,,,,,1,836,,,,,,,,,,,,,,,,,132,S,star,1,0,,,,,,,,,,,,,,,,switch,letter,lettSwt,k,0.4943,Lo,,,,,,0,,,,,,,,high,21,0,21,0,1,,,,,,,,,
297241,2022-12-06_10h55.20.092,vts_reward_expectancy_bt,2022.2.4,MacIntel,60.0024001,Chrome,1440,900,,,,,10,846,,,,,,,,,,,,,,,,,167,H,triangle,1,0,,,,,,,,,,,,,,,,repeat,letter,lettRpt,j,0.5627,Hi,,,,,,0,,,,,,,,high,22,0,22,0,1,,,,,,,,,
297241,2022-12-06_10h55.20.092,vts_reward_expectancy_bt,2022.2.4,MacIntel,60.0024001,Chrome,1440,900,,,,,1,847,,,,,,,,,,,,,,,,,146,W,hexagon,1,0,,,,,,,,,,,,,,,,switch,number,numSwt,d,0.7708,Lo,,,,,,0,,,,,,,,high,23,0,23,0,1,,,,,,,,,
297241,2022-12-06_10h55.20.092,vts_reward_expectancy_bt,2022.2.4,MacIntel,60.0024001,Chrome,1440,900,,,,,1,848,,,,,,,,,,,,,,,,,132,D,hexagon,1,0,,,,,,,,,,,,,,,,switch,letter,lettSwt,j,0.6068,Lo,,,,,,0,,,,,,,,high,24,0,24,0,1,,,,,,,,,
297241,2022-12-06_10h55.20.092,vts_reward_expectancy_bt,2022.2.4,MacIntel,60.0024001,Chrome,1440,900,,,,,10,858,,,,,,,,,,,,,,,,,160,B,star,1,0,,,,,,,,,,,,,,,,switch,number,numSwt,f,0.614,Lo,,,,,,0,,,,,,,,high,25,0,25,0,1,,,,,,,,,
297241,2022-12-06_10h55.20.092,vts_reward_expectancy_bt,2022.2.4,MacIntel,60.0024001,Chrome,1440,900,,,,,10,868,,,,,,,,,,,,,,,,,174,H,triangle,1,0,,,,,,,,,,,,,,,,repeat,number,numRpt,f,0.5293,Hi,,,,,,0,,,,,,,,high,26,0,26,0,1,,,,,,,,,
297241,2022-12-06_10h55.20.092,vts_reward_expectancy_bt,2022.2.4,MacIntel,60.0024001,Chrome,1440,900,,,,,10,878,,,,,,,,,,,,,,,,,139,W,circle,1,0,,,,,,,,,,,,,,,,repeat,number,numRpt,d,0.7337,Hi,,,,,,0,,,,,,,,high,27,0,27,0,1,,,,,,,,,
297241,2022-12-06_10h55.20.092,vts_reward_expectancy_bt,2022.2.4,MacIntel,60.0024001,Chrome,1440,900,,,,,1,879,,,,,,,,,,,,,,,,,167,Y,hexagon,1,0,,,,,,,,,,,,,,,,switch,letter,lettSwt,k,0.5828,Lo,,,,,,0,,,,,,,,high,28,0,28,0,1,,,,,,,,,
297241,2022-12-06_10h55.20.092,vts_reward_expectancy_bt,2022.2.4,MacIntel,60.0024001,Chrome,1440,900,,,,,10,889,,,,,,,,,,,,,,,,,181,F,circle,1,0,,,,,,,,,,,,,,,,repeat,letter,lettRpt,j,0.6808,Hi,,,,,,0,,,,,,,,high,29,0,29,0,1,,,,,,,,,
297241,2022-12-06_10h55.20.092,vts_reward_expectancy_bt,2022.2.4,MacIntel,60.0024001,Chrome,1440,900,,,,,1,890,,,,,,,,,,,,,,,,,146,S,star,1,0,,,,,,,,,,,,,,,,repeat,letter,lettRpt,k,0.6785,Lo,,,,,,0,,,,,,,,high,30,0,30,0,1,,,,,,,,,
297241,2022-12-06_10h55.20.092,vts_reward_expectancy_bt,2022.2.4,MacIntel,60.0024001,Chrome,1440,900,,,,,10,900,,,,,,,,,,,,,,,,,125,U,triangle,1,0,,,,,,,,,,,,,,,,switch,number,numSwt,d,0.7612,Hi,,,,,,0,,,,,,,,high,31,0,31,0,1,,,,,,,,,
297241,2022-12-06_10h55.20.092,vts_reward_expectancy_bt,2022.2.4,MacIntel,60.0024001,Chrome,1440,900,,,,,10,910,,,,,,,,,,,,,,,,,139,S,hexagon,1,0,,,,,,,,,,,,,,,,switch,letter,lettSwt,k,0.879,Lo,,,,,,1,,,,,,space,3.8672,high,0,0,0,0,1,,,,,,,,,
297241,2022-12-06_10h55.20.092,vts_reward_expectancy_bt,2022.2.4,MacIntel,60.0024001,Chrome,1440,900,,,,,0,910,,,,,,,,,,,,,,,,,160,B,circle,1,0,,,,,,,,,,,,,,,,repeat,letter,lettRpt,j,0.6784,Hi,,,,,,1,,,,,,,,high,1,0,1,0,1,,,,,,,,,
297241,2022-12-06_10h55.20.092,vts_reward_expectancy_bt,2022.2.4,MacIntel,60.0024001,Chrome,1440,900,,,,,1,911,,,,,,,,,,,,,,,,,146,D,star,1,0,,,,,,,,,,,,,,,,repeat,letter,lettRpt,j,0.5638,Lo,,,,,,1,,,,,,,,high,2,0,2,0,1,,,,,,,,,
297241,2022-12-06_10h55.20.092,vts_reward_expectancy_bt,2022.2.4,MacIntel,60.0024001,Chrome,1440,900,,,,,10,921,,,,,,,,,,,,,,,,,174,Y,triangle,1,0,,,,,,,,,,,,,,,,switch,number,numSwt,f,0.6438,Hi,,,,,,1,,,,,,,,high,3,0,3,0,1,,,,,,,,,
297241,2022-12-06_10h55.20.092,vts_reward_expectancy_bt,2022.2.4,MacIntel,60.0024001,Chrome,1440,900,,,,,1,922,,,,,,,,,,,,,,,,,167,F,hexagon,1,0,,,,,,,,,,,,,,,,repeat,number,numRpt,f,0.5796,Lo,,,,,,1,,,,,,,,high,4,0,4,0,1,,,,,,,,,
297241,2022-12-06_10h55.20.092,vts_reward_expectancy_bt,2022.2.4,MacIntel,60.0024001,Chrome,1440,900,,,,,10,932,,,,,,,,,,,,,,,,,125,H,circle,1,0,,,,,,,,,,,,,,,,switch,letter,lettSwt,j,0.5432,Hi,,,,,,1,,,,,,,,high,5,0,5,0,1,,,,,,,,,
297241,2022-12-06_10h55.20.092,vts_reward_expectancy_bt,2022.2.4,MacIntel,60.0024001,Chrome,1440,900,,,,,1,933,,,,,,,,,,,,,,,,,181,W,star,1,0,,,,,,,,,,,,,,,,repeat,letter,lettRpt,k,0.6884,Lo,,,,,,1,,,,,,,,high,6,0,6,0,1,,,,,,,,,
297241,2022-12-06_10h55.20.092,vts_reward_expectancy_bt,2022.2.4,MacIntel,60.0024001,Chrome,1440,900,,,,,0,933,,,,,,,,,,,,,,,,,132,U,triangle,1,0,,,,,,,,,,,,,,,,repeat,letter,lettRpt,k,0.7368,Hi,,,,,,1,,,,,,,,high,7,0,7,0,1,,,,,,,,,
297241,2022-12-06_10h55.20.092,vts_reward_expectancy_bt,2022.2.4,MacIntel,60.0024001,Chrome,1440,900,,,,,0,933,,,,,,,,,,,,,,,,,139,S,circle,1,0,,,,,,,,,,,,,,,,repeat,letter,lettRpt,k,0.764,Hi,,,,,,1,,,,,,,,high,8,0,8,0,1,,,,,,,,,
297241,2022-12-06_10h55.20.092,vts_reward_expectancy_bt,2022.2.4,MacIntel,60.0024001,Chrome,1440,900,,,,,1,934,,,,,,,,,,,,,,,,,160,B,hexagon,1,0,,,,,,,,,,,,,,,,switch,number,numSwt,f,0.4309,Lo,,,,,,1,,,,,,,,high,9,0,9,0,1,,,,,,,,,
297241,2022-12-06_10h55.20.092,vts_reward_expectancy_bt,2022.2.4,MacIntel,60.0024001,Chrome,1440,900,,,,,10,944,,,,,,,,,,,,,,,,,146,D,triangle,1,0,,,,,,,,,,,,,,,,repeat,number,numRpt,d,0.55,Hi,,,,,,1,,,,,,,,high,10,0,10,0,1,,,,,,,,,
297241,2022-12-06_10h55.20.092,vts_reward_expectancy_bt,2022.2.4,MacIntel,60.0024001,Chrome,1440,900,,,,,1,945,,,,,,,,,,,,,,,,,174,Y,star,1,0,,,,,,,,,,,,,,,,repeat,number,numRpt,f,0.4999,Lo,,,,,,1,,,,,,,,high,11,0,11,0,1,,,,,,,,,
297241,2022-12-06_10h55.20.092,vts_reward_expectancy_bt,2022.2.4,MacIntel,60.0024001,Chrome,1440,900,,,,,10,955,,,,,,,,,,,,,,,,,167,F,circle,1,0,,,,,,,,,,,,,,,,repeat,number,numRpt,f,0.6453,Hi,,,,,,1,,,,,,,,high,12,0,12,0,1,,,,,,,,,
297241,2022-12-06_10h55.20.092,vts_reward_expectancy_bt,2022.2.4,MacIntel,60.0024001,Chrome,1440,900,,,,,10,965,,,,,,,,,,,,,,,,,125,H,triangle,1,0,,,,,,,,,,,,,,,,repeat,number,numRpt,d,0.6481,Hi,,,,,,1,,,,,,,,high,13,0,13,0,1,,,,,,,,,
297241,2022-12-06_10h55.20.092,vts_reward_expectancy_bt,2022.2.4,MacIntel,60.0024001,Chrome,1440,900,,,,,1,966,,,,,,,,,,,,,,,,,181,W,hexagon,1,0,,,,,,,,,,,,,,,,repeat,number,numRpt,f,0.5318,Lo,,,,,,1,,,,,,,,high,14,0,14,0,1,,,,,,,,,
297241,2022-12-06_10h55.20.092,vts_reward_expectancy_bt,2022.2.4,MacIntel,60.0024001,Chrome,1440,900,,,,,1,967,,,,,,,,,,,,,,,,,132,U,star,1,0,,,,,,,,,,,,,,,,repeat,number,numRpt,d,0.6314,Lo,,,,,,1,,,,,,,,high,15,0,15,0,1,,,,,,,,,
297241,2022-12-06_10h55.20.092,vts_reward_expectancy_bt,2022.2.4,MacIntel,60.0024001,Chrome,1440,900,,,,,1,968,,,,,,,,,,,,,,,,,167,Y,triangle,1,0,,,,,,,,,,,,,,,,repeat,number,numRpt,f,0.551,Hi,,,,,,1,,,,,,,,high,16,0,16,0,1,,,,,,,,,
297241,2022-12-06_10h55.20.092,vts_reward_expectancy_bt,2022.2.4,MacIntel,60.0024001,Chrome,1440,900,,,,,10,978,,,,,,,,,,,,,,,,,139,D,circle,1,0,,,,,,,,,,,,,,,,repeat,number,numRpt,d,0.6585,Hi,,,,,,1,,,,,,,,high,17,0,17,0,1,,,,,,,,,
297241,2022-12-06_10h55.20.092,vts_reward_expectancy_bt,2022.2.4,MacIntel,60.0024001,Chrome,1440,900,,,,,1,979,,,,,,,,,,,,,,,,,174,W,hexagon,1,0,,,,,,,,,,,,,,,,repeat,number,numRpt,f,0.4816,Lo,,,,,,1,,,,,,,,high,18,0,18,0,1,,,,,,,,,
297241,2022-12-06_10h55.20.092,vts_reward_expectancy_bt,2022.2.4,MacIntel,60.0024001,Chrome,1440,900,,,,,0,979,,,,,,,,,,,,,,,,,146,H,star,0,0,,,,,,,,,,,,,,,,repeat,number,NA,f,0.5318,Lo,,,,,,1,,,,,,,,high,19,0,19,0,1,,,,,,,,,
297241,2022-12-06_10h55.20.092,vts_reward_expectancy_bt,2022.2.4,MacIntel,60.0024001,Chrome,1440,900,,,,,1,980,,,,,,,,,,,,,,,,,160,U,hexagon,1,1,,,,,,,,,,,,,,,,repeat,number,numRpt,f,0.6307,Lo,,,,,,1,,,,,,,,high,20,0,20,0,1,,,,,,,,,
297241,2022-12-06_10h55.20.092,vts_reward_expectancy_bt,2022.2.4,MacIntel,60.0024001,Chrome,1440,900,,,,,0,980,,,,,,,,,,,,,,,,,125,B,triangle,1,0,,,,,,,,,,,,,,,,repeat,number,numRpt,d,0.6983,Hi,,,,,,1,,,,,,,,high,21,0,21,0,1,,,,,,,,,
297241,2022-12-06_10h55.20.092,vts_reward_expectancy_bt,2022.2.4,MacIntel,60.0024001,Chrome,1440,900,,,,,1,981,,,,,,,,,,,,,,,,,181,F,star,1,0,,,,,,,,,,,,,,,,switch,letter,lettSwt,j,0.6043,Lo,,,,,,1,,,,,,,,high,22,0,22,0,1,,,,,,,,,
297241,2022-12-06_10h55.20.092,vts_reward_expectancy_bt,2022.2.4,MacIntel,60.0024001,Chrome,1440,900,,,,,0,981,,,,,,,,,,,,,,,,,132,S,circle,1,0,,,,,,,,,,,,,,,,repeat,letter,lettRpt,k,0.6802,Hi,,,,,,1,,,,,,,,high,23,0,23,0,1,,,,,,,,,
297241,2022-12-06_10h55.20.092,vts_reward_expectancy_bt,2022.2.4,MacIntel,60.0024001,Chrome,1440,900,,,,,1,982,,,,,,,,,,,,,,,,,146,Y,hexagon,1,0,,,,,,,,,,,,,,,,repeat,letter,lettRpt,k,0.9303,Lo,,,,,,1,,,,,,,,high,24,0,24,0,1,,,,,,,,,
297241,2022-12-06_10h55.20.092,vts_reward_expectancy_bt,2022.2.4,MacIntel,60.0024001,Chrome,1440,900,,,,,0,982,,,,,,,,,,,,,,,,,160,F,triangle,0,0,,,,,,,,,,,,,,,,repeat,letter,NA,k,0.5373,Lo,,,,,,1,,,,,,,,high,25,0,25,0,1,,,,,,,,,
297241,2022-12-06_10h55.20.092,vts_reward_expectancy_bt,2022.2.4,MacIntel,60.0024001,Chrome,1440,900,,,,,1,983,,,,,,,,,,,,,,,,,181,H,star,1,1,,,,,,,,,,,,,,,,repeat,letter,lettRpt,j,0.748,Lo,,,,,,1,,,,,,,,high,26,0,26,0,1,,,,,,,,,
297241,2022-12-06_10h55.20.092,vts_reward_expectancy_bt,2022.2.4,MacIntel,60.0024001,Chrome,1440,900,,,,,0,983,,,,,,,,,,,,,,,,,132,S,circle,0,0,,,,,,,,,,,,,,,,repeat,letter,NA,j,0.7464,Lo,,,,,,1,,,,,,,,high,27,0,27,0,1,,,,,,,,,
297241,2022-12-06_10h55.20.092,vts_reward_expectancy_bt,2022.2.4,MacIntel,60.0024001,Chrome,1440,900,,,,,0,983,,,,,,,,,,,,,,,,,139,D,triangle,1,1,,,,,,,,,,,,,,,,repeat,letter,lettRpt,j,0.9647,Hi,,,,,,1,,,,,,,,high,28,0,28,0,1,,,,,,,,,
297241,2022-12-06_10h55.20.092,vts_reward_expectancy_bt,2022.2.4,MacIntel,60.0024001,Chrome,1440,900,,,,,1,984,,,,,,,,,,,,,,,,,125,B,circle,1,0,,,,,,,,,,,,,,,,repeat,letter,lettRpt,j,0.622,Hi,,,,,,1,,,,,,,,high,29,0,29,0,1,,,,,,,,,
297241,2022-12-06_10h55.20.092,vts_reward_expectancy_bt,2022.2.4,MacIntel,60.0024001,Chrome,1440,900,,,,,10,994,,,,,,,,,,,,,,,,,167,W,star,1,0,,,,,,,,,,,,,,,,repeat,letter,lettRpt,k,0.682,Lo,,,,,,1,,,,,,,,high,30,0,30,0,1,,,,,,,,,
297241,2022-12-06_10h55.20.092,vts_reward_expectancy_bt,2022.2.4,MacIntel,60.0024001,Chrome,1440,900,,,,,1,995,,,,,,,,,,,,,,,,,174,U,hexagon,1,0,,,,,,,,,,,,,,,,repeat,letter,lettRpt,k,0.7,Lo,,,,,,1,,,,,,,,high,31,0,31,0,1,,,,,,,,,
297241,2022-12-06_10h55.20.092,vts_reward_expectancy_bt,2022.2.4,MacIntel,60.0024001,Chrome,1440,900,,,,,10,1005,,,,,,,,,,,,,,,,,125,W,hexagon,1,0,,,,,,,,,,,,,,,,repeat,letter,lettRpt,k,0.7456,Lo,,,,,,2,,,,,,space,0.8536,high,0,0,0,0,1,,,,,,,,,
297241,2022-12-06_10h55.20.092,vts_reward_expectancy_bt,2022.2.4,MacIntel,60.0024001,Chrome,1440,900,,,,,0,1005,,,,,,,,,,,,,,,,,160,D,triangle,1,0,,,,,,,,,,,,,,,,repeat,letter,lettRpt,j,0.6975,Hi,,,,,,2,,,,,,,,high,1,0,1,0,1,,,,,,,,,
297241,2022-12-06_10h55.20.092,vts_reward_expectancy_bt,2022.2.4,MacIntel,60.0024001,Chrome,1440,900,,,,,1,1006,,,,,,,,,,,,,,,,,167,S,star,1,0,,,,,,,,,,,,,,,,repeat,letter,lettRpt,k,0.7457,Lo,,,,,,2,,,,,,,,high,2,0,2,0,1,,,,,,,,,
297241,2022-12-06_10h55.20.092,vts_reward_expectancy_bt,2022.2.4,MacIntel,60.0024001,Chrome,1440,900,,,,,10,1016,,,,,,,,,,,,,,,,,132,U,circle,1,0,,,,,,,,,,,,,,,,repeat,letter,lettRpt,k,0.6005,Hi,,,,,,2,,,,,,,,high,3,0,3,0,1,,,,,,,,,
297241,2022-12-06_10h55.20.092,vts_reward_expectancy_bt,2022.2.4,MacIntel,60.0024001,Chrome,1440,900,,,,,1,1017,,,,,,,,,,,,,,,,,139,B,hexagon,1,0,,,,,,,,,,,,,,,,repeat,letter,lettRpt,j,0.7108,Lo,,,,,,2,,,,,,,,high,4,0,4,0,1,,,,,,,,,
297241,2022-12-06_10h55.20.092,vts_reward_expectancy_bt,2022.2.4,MacIntel,60.0024001,Chrome,1440,900,,,,,10,1027,,,,,,,,,,,,,,,,,174,Y,triangle,1,0,,,,,,,,,,,,,,,,repeat,letter,lettRpt,k,0.6457,Hi,,,,,,2,,,,,,,,high,5,0,5,0,1,,,,,,,,,
297241,2022-12-06_10h55.20.092,vts_reward_expectancy_bt,2022.2.4,MacIntel,60.0024001,Chrome,1440,900,,,,,10,1037,,,,,,,,,,,,,,,,,146,H,star,1,0,,,,,,,,,,,,,,,,repeat,letter,lettRpt,j,0.8646,Lo,,,,,,2,,,,,,,,high,6,0,6,0,1,,,,,,,,,
297241,2022-12-06_10h55.20.092,vts_reward_expectancy_bt,2022.2.4,MacIntel,60.0024001,Chrome,1440,900,,,,,10,1047,,,,,,,,,,,,,,,,,181,F,circle,1,0,,,,,,,,,,,,,,,,switch,number,numSwt,f,0.6077,Hi,,,,,,2,,,,,,,,high,7,0,7,0,1,,,,,,,,,
297241,2022-12-06_10h55.20.092,vts_reward_expectancy_bt,2022.2.4,MacIntel,60.0024001,Chrome,1440,900,,,,,0,1047,,,,,,,,,,,,,,,,,125,W,triangle,1,0,,,,,,,,,,,,,,,,repeat,number,numRpt,d,0.598,Hi,,,,,,2,,,,,,,,high,8,0,8,0,1,,,,,,,,,
297241,2022-12-06_10h55.20.092,vts_reward_expectancy_bt,2022.2.4,MacIntel,60.0024001,Chrome,1440,900,,,,,10,1057,,,,,,,,,,,,,,,,,160,D,circle,1,0,,,,,,,,,,,,,,,,repeat,number,numRpt,f,0.4673,Hi,,,,,,2,,,,,,,,high,9,0,9,0,1,,,,,,,,,
297241,2022-12-06_10h55.20.092,vts_reward_expectancy_bt,2022.2.4,MacIntel,60.0024001,Chrome,1440,900,,,,,1,1058,,,,,,,,,,,,,,,,,167,S,star,1,0,,,,,,,,,,,,,,,,repeat,number,numRpt,f,0.5636,Lo,,,,,,2,,,,,,,,high,10,0,10,0,1,,,,,,,,,
297241,2022-12-06_10h55.20.092,vts_reward_expectancy_bt,2022.2.4,MacIntel,60.0024001,Chrome,1440,900,,,,,1,1059,,,,,,,,,,,,,,,,,132,U,hexagon,1,0,,,,,,,,,,,,,,,,repeat,number,numRpt,d,0.581,Lo,,,,,,2,,,,,,,,high,11,0,11,0,1,,,,,,,,,
297241,2022-12-06_10h55.20.092,vts_reward_expectancy_bt,2022.2.4,MacIntel,60.0024001,Chrome,1440,900,,,,,0,1059,,,,,,,,,,,,,,,,,139,B,triangle,1,0,,,,,,,,,,,,,,,,repeat,number,numRpt,d,0.7501,Hi,,,,,,2,,,,,,,,high,12,0,12,0,1,,,,,,,,,
297241,2022-12-06_10h55.20.092,vts_reward_expectancy_bt,2022.2.4,MacIntel,60.0024001,Chrome,1440,900,,,,,1,1060,,,,,,,,,,,,,,,,,174,Y,hexagon,1,0,,,,,,,,,,,,,,,,repeat,number,numRpt,f,0.779,Lo,,,,,,2,,,,,,,,high,13,0,13,0,1,,,,,,,,,
297241,2022-12-06_10h55.20.092,vts_reward_expectancy_bt,2022.2.4,MacIntel,60.0024001,Chrome,1440,900,,,,,0,1060,,,,,,,,,,,,,,,,,146,H,circle,1,0,,,,,,,,,,,,,,,,repeat,number,numRpt,d,0.6482,Hi,,,,,,2,,,,,,,,high,14,0,14,0,1,,,,,,,,,
297241,2022-12-06_10h55.20.092,vts_reward_expectancy_bt,2022.2.4,MacIntel,60.0024001,Chrome,1440,900,,,,,10,1070,,,,,,,,,,,,,,,,,181,F,star,1,0,,,,,,,,,,,,,,,,repeat,number,numRpt,f,0.7306,Lo,,,,,,2,,,,,,,,high,15,0,15,0,1,,,,,,,,,
297241,2022-12-06_10h55.20.092,vts_reward_expectancy_bt,2022.2.4,MacIntel,60.0024001,Chrome,1440,900,,,,,0,1070,,,,,,,,,,,,,,,,,139,Y,triangle,1,0,,,,,,,,,,,,,,,,repeat,number,numRpt,d,0.5818,Hi,,,,,,2,,,,,,,,high,16,0,16,0,1,,,,,,,,,
297241,2022-12-06_10h55.20.092,vts_reward_expectancy_bt,2022.2.4,MacIntel,60.0024001,Chrome,1440,900,,,,,0,1070,,,,,,,,,,,,,,,,,160,W,circle,1,0,,,,,,,,,,,,,,,,repeat,number,numRpt,f,0.6984,Hi,,,,,,2,,,,,,,,high,17,0,17,0,1,,,,,,,,,
297241,2022-12-06_10h55.20.092,vts_reward_expectancy_bt,2022.2.4,MacIntel,60.0024001,Chrome,1440,900,,,,,0,1070,,,,,,,,,,,,,,,,,146,B,hexagon,0,0,,,,,,,,,,,,,,,,repeat,number,NA,f,0.616,Hi,,,,,,2,,,,,,,,high,18,0,18,0,1,,,,,,,,,
297241,2022-12-06_10h55.20.092,vts_reward_expectancy_bt,2022.2.4,MacIntel,60.0024001,Chrome,1440,900,,,,,1,1071,,,,,,,,,,,,,,,,,125,U,star,1,1,,,,,,,,,,,,,,,,repeat,number,numRpt,d,0.6786,Lo,,,,,,2,,,,,,,,high,19,0,19,0,1,,,,,,,,,
297241,2022-12-06_10h55.20.092,vts_reward_expectancy_bt,2022.2.4,MacIntel,60.0024001,Chrome,1440,900,,,,,1,1072,,,,,,,,,,,,,,,,,167,F,hexagon,1,0,,,,,,,,,,,,,,,,repeat,number,numRpt,f,0.815,Lo,,,,,,2,,,,,,,,high,20,0,20,0,1,,,,,,,,,
297241,2022-12-06_10h55.20.092,vts_reward_expectancy_bt,2022.2.4,MacIntel,60.0024001,Chrome,1440,900,,,,,0,1072,,,,,,,,,,,,,,,,,174,H,triangle,1,0,,,,,,,,,,,,,,,,repeat,number,numRpt,f,0.6446,Hi,,,,,,2,,,,,,,,high,21,0,21,0,1,,,,,,,,,
297241,2022-12-06_10h55.20.092,vts_reward_expectancy_bt,2022.2.4,MacIntel,60.0024001,Chrome,1440,900,,,,,10,1082,,,,,,,,,,,,,,,,,132,D,star,1,0,,,,,,,,,,,,,,,,repeat,number,numRpt,d,0.6192,Lo,,,,,,2,,,,,,,,high,22,0,22,0,1,,,,,,,,,
297241,2022-12-06_10h55.20.092,vts_reward_expectancy_bt,2022.2.4,MacIntel,60.0024001,Chrome,1440,900,,,,,0,1082,,,,,,,,,,,,,,,,,181,S,circle,1,0,,,,,,,,,,,,,,,,repeat,number,numRpt,f,0.7099,Hi,,,,,,2,,,,,,,,high,23,0,23,0,1,,,,,,,,,
297241,2022-12-06_10h55.20.092,vts_reward_expectancy_bt,2022.2.4,MacIntel,60.0024001,Chrome,1440,900,,,,,1,1083,,,,,,,,,,,,,,,,,174,F,star,1,0,,,,,,,,,,,,,,,,repeat,number,numRpt,f,0.6133,Lo,,,,,,2,,,,,,,,high,24,0,24,0,1,,,,,,,,,
297241,2022-12-06_10h55.20.092,vts_reward_expectancy_bt,2022.2.4,MacIntel,60.0024001,Chrome,1440,900,,,,,0,1083,,,,,,,,,,,,,,,,,125,D,circle,1,0,,,,,,,,,,,,,,,,repeat,number,numRpt,d,0.6646,Hi,,,,,,2,,,,,,,,high,25,0,25,0,1,,,,,,,,,
297241,2022-12-06_10h55.20.092,vts_reward_expectancy_bt,2022.2.4,MacIntel,60.0024001,Chrome,1440,900,,,,,1,1084,,,,,,,,,,,,,,,,,181,U,hexagon,1,0,,,,,,,,,,,,,,,,repeat,number,numRpt,f,0.8346,Lo,,,,,,2,,,,,,,,high,26,0,26,0,1,,,,,,,,,
297241,2022-12-06_10h55.20.092,vts_reward_expectancy_bt,2022.2.4,MacIntel,60.0024001,Chrome,1440,900,,,,,0,1084,,,,,,,,,,,,,,,,,160,S,triangle,1,0,,,,,,,,,,,,,,,,repeat,number,numRpt,f,0.6689,Hi,,,,,,2,,,,,,,,high,27,0,27,0,1,,,,,,,,,
297241,2022-12-06_10h55.20.092,vts_reward_expectancy_bt,2022.2.4,MacIntel,60.0024001,Chrome,1440,900,,,,,1,1085,,,,,,,,,,,,,,,,,146,B,circle,1,0,,,,,,,,,,,,,,,,switch,letter,lettSwt,j,0.5796,Hi,,,,,,2,,,,,,,,high,28,0,28,0,1,,,,,,,,,
297241,2022-12-06_10h55.20.092,vts_reward_expectancy_bt,2022.2.4,MacIntel,60.0024001,Chrome,1440,900,,,,,0,1085,,,,,,,,,,,,,,,,,132,W,star,0,0,,,,,,,,,,,,,,,,switch,number,NA,f,0.547,Hi,,,,,,2,,,,,,,,high,29,0,29,0,1,,,,,,,,,
297241,2022-12-06_10h55.20.092,vts_reward_expectancy_bt,2022.2.4,MacIntel,60.0024001,Chrome,1440,900,,,,,0,1085,,,,,,,,,,,,,,,,,139,H,triangle,0,1,,,,,,,,,,,,,,,,switch,letter,NA,k,1.0648,Hi,,,,,,2,,,,,,,,high,30,0,30,0,1,,,,,,,,,
297241,2022-12-06_10h55.20.092,vts_reward_expectancy_bt,2022.2.4,MacIntel,60.0024001,Chrome,1440,900,,,,,10,1095,,,,,,,,,,,,,,,,,167,Y,hexagon,1,1,,,,,,,,,,,,,,,,switch,number,numSwt,f,0.6136,Lo,,,,,,2,,,,,,,,high,31,0,31,0,1,,,,,,,,,
297241,2022-12-06_10h55.20.092,vts_reward_expectancy_bt,2022.2.4,MacIntel,60.0024001,Chrome,1440,900,,,,,10,1105,,,,,,,,,,,,,,,,,174,D,hexagon,1,0,,,,,,,,,,,,,,,,repeat,number,numRpt,f,0.6542,Lo,,,,,,3,,,,,,space,0.5749,high,0,0,0,0,1,,,,,,,,,
297241,2022-12-06_10h55.20.092,vts_reward_expectancy_bt,2022.2.4,MacIntel,60.0024001,Chrome,1440,900,,,,,10,1115,,,,,,,,,,,,,,,,,139,B,star,1,0,,,,,,,,,,,,,,,,switch,letter,lettSwt,j,0.6309,Lo,,,,,,3,,,,,,,,high,1,0,1,0,1,,,,,,,,,
297241,2022-12-06_10h55.20.092,vts_reward_expectancy_bt,2022.2.4,MacIntel,60.0024001,Chrome,1440,900,,,,,0,1115,,,,,,,,,,,,,,,,,181,S,triangle,1,0,,,,,,,,,,,,,,,,repeat,letter,lettRpt,k,0.7477,Hi,,,,,,3,,,,,,,,high,2,0,2,0,1,,,,,,,,,
297241,2022-12-06_10h55.20.092,vts_reward_expectancy_bt,2022.2.4,MacIntel,60.0024001,Chrome,1440,900,,,,,0,1115,,,,,,,,,,,,,,,,,146,F,circle,1,0,,,,,,,,,,,,,,,,switch,number,numSwt,d,1.081,Hi,,,,,,3,,,,,,,,high,3,0,3,0,1,,,,,,,,,
297241,2022-12-06_10h55.20.092,vts_reward_expectancy_bt,2022.2.4,MacIntel,60.0024001,Chrome,1440,900,,,,,10,1125,,,,,,,,,,,,,,,,,132,H,hexagon,1,0,,,,,,,,,,,,,,,,repeat,number,numRpt,d,0.6808,Lo,,,,,,3,,,,,,,,high,4,0,4,0,1,,,,,,,,,
297241,2022-12-06_10h55.20.092,vts_reward_expectancy_bt,2022.2.4,MacIntel,60.0024001,Chrome,1440,900,,,,,1,1126,,,,,,,,,,,,,,,,,125,Y,star,1,0,,,,,,,,,,,,,,,,switch,letter,lettSwt,k,0.7465,Lo,,,,,,3,,,,,,,,high,5,0,5,0,1,,,,,,,,,
297241,2022-12-06_10h55.20.092,vts_reward_expectancy_bt,2022.2.4,MacIntel,60.0024001,Chrome,1440,900,,,,,0,1126,,,,,,,,,,,,,,,,,167,U,triangle,1,0,,,,,,,,,,,,,,,,switch,number,numSwt,f,0.7312,Hi,,,,,,3,,,,,,,,high,6,0,6,0,1,,,,,,,,,
297241,2022-12-06_10h55.20.092,vts_reward_expectancy_bt,2022.2.4,MacIntel,60.0024001,Chrome,1440,900,,,,,10,1136,,,,,,,,,,,,,,,,,160,W,circle,1,0,,,,,,,,,,,,,,,,repeat,number,numRpt,f,0.5373,Hi,,,,,,3,,,,,,,,high,7,0,7,0,1,,,,,,,,,
297241,2022-12-06_10h55.20.092,vts_reward_expectancy_bt,2022.2.4,MacIntel,60.0024001,Chrome,1440,900,,,,,1,1137,,,,,,,,,,,,,,,,,174,D,hexagon,1,0,,,,,,,,,,,,,,,,repeat,number,numRpt,f,0.6141,Lo,,,,,,3,,,,,,,,high,8,0,8,0,1,,,,,,,,,
297241,2022-12-06_10h55.20.092,vts_reward_expectancy_bt,2022.2.4,MacIntel,60.0024001,Chrome,1440,900,,,,,1,1138,,,,,,,,,,,,,,,,,139,B,star,1,0,,,,,,,,,,,,,,,,repeat,number,numRpt,d,0.564,Lo,,,,,,3,,,,,,,,high,9,0,9,0,1,,,,,,,,,
297241,2022-12-06_10h55.20.092,vts_reward_expectancy_bt,2022.2.4,MacIntel,60.0024001,Chrome,1440,900,,,,,0,1138,,,,,,,,,,,,,,,,,181,S,circle,1,0,,,,,,,,,,,,,,,,repeat,number,numRpt,f,0.7673,Hi,,,,,,3,,,,,,,,high,10,0,10,0,1,,,,,,,,,
297241,2022-12-06_10h55.20.092,vts_reward_expectancy_bt,2022.2.4,MacIntel,60.0024001,Chrome,1440,900,,,,,0,1138,,,,,,,,,,,,,,,,,146,F,triangle,1,0,,,,,,,,,,,,,,,,repeat,number,numRpt,d,0.6632,Hi,,,,,,3,,,,,,,,high,11,0,11,0,1,,,,,,,,,
297241,2022-12-06_10h55.20.092,vts_reward_expectancy_bt,2022.2.4,MacIntel,60.0024001,Chrome,1440,900,,,,,10,1148,,,,,,,,,,,,,,,,,132,H,star,1,0,,,,,,,,,,,,,,,,switch,letter,lettSwt,j,0.5842,Lo,,,,,,3,,,,,,,,high,12,0,12,0,1,,,,,,,,,
297241,2022-12-06_10h55.20.092,vts_reward_expectancy_bt,2022.2.4,MacIntel,60.0024001,Chrome,1440,900,,,,,1,1149,,,,,,,,,,,,,,,,,125,Y,hexagon,1,0,,,,,,,,,,,,,,,,repeat,letter,lettRpt,k,0.7384,Lo,,,,,,3,,,,,,,,high,13,0,13,0,1,,,,,,,,,
297241,2022-12-06_10h55.20.092,vts_reward_expectancy_bt,2022.2.4,MacIntel,60.0024001,Chrome,1440,900,,,,,0,1149,,,,,,,,,,,,,,,,,167,U,circle,1,0,,,,,,,,,,,,,,,,switch,number,numSwt,f,0.6324,Hi,,,,,,3,,,,,,,,high,14,0,14,0,1,,,,,,,,,
297241,2022-12-06_10h55.20.092,vts_reward_expectancy_bt,2022.2.4,MacIntel,60.0024001,Chrome,1440,900,,,,,10,1159,,,,,,,,,,,,,,,,,160,W,triangle,1,0,,,,,,,,,,,,,,,,repeat,number,numRpt,f,0.6151,Hi,,,,,,3,,,,,,,,high,15,0,15,0,1,,,,,,,,,
297241,2022-12-06_10h55.20.092,vts_reward_expectancy_bt,2022.2.4,MacIntel,60.0024001,Chrome,1440,900,,,,,1,1160,,,,,,,,,,,,,,,,,174,U,star,1,0,,,,,,,,,,,,,,,,repeat,number,numRpt,f,0.6314,Lo,,,,,,3,,,,,,,,high,16,0,16,0,1,,,,,,,,,
297241,2022-12-06_10h55.20.092,vts_reward_expectancy_bt,2022.2.4,MacIntel,60.0024001,Chrome,1440,900,,,,,0,1160,,,,,,,,,,,,,,,,,132,D,triangle,1,0,,,,,,,,,,,,,,,,repeat,number,numRpt,d,0.6334,Hi,,,,,,3,,,,,,,,high,17,0,17,0,1,,,,,,,,,
297241,2022-12-06_10h55.20.092,vts_reward_expectancy_bt,2022.2.4,MacIntel,60.0024001,Chrome,1440,900,,,,,0,1160,,,,,,,,,,,,,,,,,146,Y,circle,0,0,,,,,,,,,,,,,,,,repeat,number,NA,f,0.6329,Hi,,,,,,3,,,,,,,,high,18,0,18,0,1,,,,,,,,,
297241,2022-12-06_10h55.20.092,vts_reward_expectancy_bt,2022.2.4,MacIntel,60.0024001,Chrome,1440,900,,,,,0,1160,,,,,,,,,,,,,,,,,160,W,hexagon,0,1,,,,,,,,,,,,,,,,repeat,number,NA,d,0.7648,Hi,,,,,,3,,,,,,,,high,19,0,19,0,1,,,,,,,,,
297241,2022-12-06_10h55.20.092,vts_reward_expectancy_bt,2022.2.4,MacIntel,60.0024001,Chrome,1440,900,,,,,10,1170,,,,,,,,,,,,,,,,,125,H,star,1,1,,,,,,,,,,,,,,,,switch,letter,lettSwt,j,0.6476,Lo,,,,,,3,,,,,,,,high,20,0,20,0,1,,,,,,,,,
297241,2022-12-06_10h55.20.092,vts_reward_expectancy_bt,2022.2.4,MacIntel,60.0024001,Chrome,1440,900,,,,,1,1171,,,,,,,,,,,,,,,,,139,B,hexagon,1,0,,,,,,,,,,,,,,,,switch,number,numSwt,d,0.6299,Lo,,,,,,3,,,,,,,,high,21,0,21,0,1,,,,,,,,,
297241,2022-12-06_10h55.20.092,vts_reward_expectancy_bt,2022.2.4,MacIntel,60.0024001,Chrome,1440,900,,,,,0,1171,,,,,,,,,,,,,,,,,167,S,circle,1,0,,,,,,,,,,,,,,,,switch,letter,lettSwt,k,0.6051,Hi,,,,,,3,,,,,,,,high,22,0,22,0,1,,,,,,,,,
297241,2022-12-06_10h55.20.092,vts_reward_expectancy_bt,2022.2.4,MacIntel,60.0024001,Chrome,1440,900,,,,,1,1172,,,,,,,,,,,,,,,,,181,F,triangle,1,0,,,,,,,,,,,,,,,,switch,number,numSwt,f,0.5775,Hi,,,,,,3,,,,,,,,high,23,0,23,0,1,,,,,,,,,
297241,2022-12-06_10h55.20.092,vts_reward_expectancy_bt,2022.2.4,MacIntel,60.0024001,Chrome,1440,900,,,,,0,1172,,,,,,,,,,,,,,,,,174,U,circle,1,0,,,,,,,,,,,,,,,,switch,letter,lettSwt,k,0.6475,Hi,,,,,,3,,,,,,,,high,24,0,24,0,1,,,,,,,,,
297241,2022-12-06_10h55.20.092,vts_reward_expectancy_bt,2022.2.4,MacIntel,60.0024001,Chrome,1440,900,,,,,10,1182,,,,,,,,,,,,,,,,,125,Y,hexagon,1,0,,,,,,,,,,,,,,,,repeat,letter,lettRpt,k,0.5856,Lo,,,,,,3,,,,,,,,high,25,0,25,0,1,,,,,,,,,
297241,2022-12-06_10h55.20.092,vts_reward_expectancy_bt,2022.2.4,MacIntel,60.0024001,Chrome,1440,900,,,,,1,1183,,,,,,,,,,,,,,,,,181,W,star,1,0,,,,,,,,,,,,,,,,repeat,letter,lettRpt,k,0.9203,Lo,,,,,,3,,,,,,,,high,26,0,26,0,1,,,,,,,,,
297241,2022-12-06_10h55.20.092,vts_reward_expectancy_bt,2022.2.4,MacIntel,60.0024001,Chrome,1440,900,,,,,10,1193,,,,,,,,,,,,,,,,,132,D,triangle,1,0,,,,,,,,,,,,,,,,switch,number,numSwt,d,0.4951,Hi,,,,,,3,,,,,,,,high,27,0,27,0,1,,,,,,,,,
297241,2022-12-06_10h55.20.092,vts_reward_expectancy_bt,2022.2.4,MacIntel,60.0024001,Chrome,1440,900,,,,,10,1203,,,,,,,,,,,,,,,,,160,S,hexagon,1,0,,,,,,,,,,,,,,,,repeat,number,numRpt,f,0.8959,Lo,,,,,,3,,,,,,,,high,28,0,28,0,1,,,,,,,,,
297241,2022-12-06_10h55.20.092,vts_reward_expectancy_bt,2022.2.4,MacIntel,60.0024001,Chrome,1440,900,,,,,1,1204,,,,,,,,,,,,,,,,,146,F,star,1,0,,,,,,,,,,,,,,,,repeat,number,numRpt,d,1.028,Lo,,,,,,3,,,,,,,,high,29,0,29,0,1,,,,,,,,,
297241,2022-12-06_10h55.20.092,vts_reward_expectancy_bt,2022.2.4,MacIntel,60.0024001,Chrome,1440,900,,,,,0,1204,,,,,,,,,,,,,,,,,139,H,triangle,1,0,,,,,,,,,,,,,,,,repeat,number,numRpt,d,0.6791,Hi,,,,,,3,,,,,,,,high,30,0,30,0,1,,,,,,,,,
297241,2022-12-06_10h55.20.092,vts_reward_expectancy_bt,2022.2.4,MacIntel,60.0024001,Chrome,1440,900,,,,,1,1205,,,,,,,,,,,,,,,,,167,B,circle,1,0,,,,,,,,,,,,,,,,repeat,number,numRpt,f,0.5312,Hi,,,,,,3,,,,,,,,high,31,0,31,0,1,,,,,,,,,
297241,2022-12-06_10h55.20.092,vts_reward_expectancy_bt,2022.2.4,MacIntel,60.0024001,Chrome,1440,900,,,,,1,1206,,,,,,,,,,,,,,,,,174,W,hexagon,1,0,,,,,,,,,,,,,,,,repeat,number,numRpt,f,0.5803,Lo,,,,,,4,,,,,,space,0.365,high,0,0,0,0,1,,,,,,,,,
297241,2022-12-06_10h55.20.092,vts_reward_expectancy_bt,2022.2.4,MacIntel,60.0024001,Chrome,1440,900,,,,,10,1216,,,,,,,,,,,,,,,,,167,D,triangle,1,0,,,,,,,,,,,,,,,,repeat,number,numRpt,f,0.5804,Hi,,,,,,4,,,,,,,,high,1,0,1,0,1,,,,,,,,,
297241,2022-12-06_10h55.20.092,vts_reward_expectancy_bt,2022.2.4,MacIntel,60.0024001,Chrome,1440,900,,,,,0,1216,,,,,,,,,,,,,,,,,160,F,circle,1,0,,,,,,,,,,,,,,,,repeat,number,numRpt,f,0.7986,Hi,,,,,,4,,,,,,,,high,2,0,2,0,1,,,,,,,,,
297241,2022-12-06_10h55.20.092,vts_reward_expectancy_bt,2022.2.4,MacIntel,60.0024001,Chrome,1440,900,,,,,10,1226,,,,,,,,,,,,,,,,,146,B,star,1,0,,,,,,,,,,,,,,,,repeat,number,numRpt,d,0.648,Lo,,,,,,4,,,,,,,,high,3,0,3,0,1,,,,,,,,,
297241,2022-12-06_10h55.20.092,vts_reward_expectancy_bt,2022.2.4,MacIntel,60.0024001,Chrome,1440,900,,,,,1,1227,,,,,,,,,,,,,,,,,181,H,hexagon,1,0,,,,,,,,,,,,,,,,repeat,number,numRpt,f,0.514,Lo,,,,,,4,,,,,,,,high,4,0,4,0,1,,,,,,,,,
297241,2022-12-06_10h55.20.092,vts_reward_expectancy_bt,2022.2.4,MacIntel,60.0024001,Chrome,1440,900,,,,,0,1227,,,,,,,,,,,,,,,,,132,S,triangle,1,0,,,,,,,,,,,,,,,,repeat,number,numRpt,d,0.7382,Hi,,,,,,4,,,,,,,,high,5,0,5,0,1,,,,,,,,,
297241,2022-12-06_10h55.20.092,vts_reward_expectancy_bt,2022.2.4,MacIntel,60.0024001,Chrome,1440,900,,,,,10,1237,,,,,,,,,,,,,,,,,125,U,circle,1,0,,,,,,,,,,,,,,,,repeat,number,numRpt,d,0.6095,Hi,,,,,,4,,,,,,,,high,6,0,6,0,1,,,,,,,,,
297241,2022-12-06_10h55.20.092,vts_reward_expectancy_bt,2022.2.4,MacIntel,60.0024001,Chrome,1440,900,,,,,0,1237,,,,,,,,,,,,,,,,,139,Y,star,0,0,,,,,,,,,,,,,,,,repeat,number,NA,f,0.6814,Hi,,,,,,4,,,,,,,,high,7,0,7,0,1,,,,,,,,,
297241,2022-12-06_10h55.20.092,vts_reward_expectancy_bt,2022.2.4,MacIntel,60.0024001,Chrome,1440,900,,,,,0,1237,,,,,,,,,,,,,,,,,174,W,triangle,1,1,,,,,,,,,,,,,,,,repeat,number,numRpt,f,0.6476,Hi,,,,,,4,,,,,,,,high,8,0,8,0,1,,,,,,,,,
297241,2022-12-06_10h55.20.092,vts_reward_expectancy_bt,2022.2.4,MacIntel,60.0024001,Chrome,1440,900,,,,,1,1238,,,,,,,,,,,,,,,,,167,D,circle,1,0,,,,,,,,,,,,,,,,repeat,number,numRpt,f,0.5817,Hi,,,,,,4,,,,,,,,high,9,0,9,0,1,,,,,,,,,
297241,2022-12-06_10h55.20.092,vts_reward_expectancy_bt,2022.2.4,MacIntel,60.0024001,Chrome,1440,900,,,,,1,1239,,,,,,,,,,,,,,,,,160,F,star,1,0,,,,,,,,,,,,,,,,repeat,number,numRpt,f,0.5303,Lo,,,,,,4,,,,,,,,high,10,0,10,0,1,,,,,,,,,
297241,2022-12-06_10h55.20.092,vts_reward_expectancy_bt,2022.2.4,MacIntel,60.0024001,Chrome,1440,900,,,,,1,1240,,,,,,,,,,,,,,,,,146,B,hexagon,1,0,,,,,,,,,,,,,,,,repeat,number,numRpt,d,0.6669,Lo,,,,,,4,,,,,,,,high,11,0,11,0,1,,,,,,,,,
297241,2022-12-06_10h55.20.092,vts_reward_expectancy_bt,2022.2.4,MacIntel,60.0024001,Chrome,1440,900,,,,,0,1240,,,,,,,,,,,,,,,,,181,H,circle,1,0,,,,,,,,,,,,,,,,switch,letter,lettSwt,j,0.7199,Hi,,,,,,4,,,,,,,,high,12,0,12,0,1,,,,,,,,,
297241,2022-12-06_10h55.20.092,vts_reward_expectancy_bt,2022.2.4,MacIntel,60.0024001,Chrome,1440,900,,,,,1,1241,,,,,,,,,,,,,,,,,132,S,hexagon,1,0,,,,,,,,,,,,,,,,switch,number,numSwt,d,0.8027,Lo,,,,,,4,,,,,,,,high,13,0,13,0,1,,,,,,,,,
297241,2022-12-06_10h55.20.092,vts_reward_expectancy_bt,2022.2.4,MacIntel,60.0024001,Chrome,1440,900,,,,,1,1242,,,,,,,,,,,,,,,,,125,U,star,1,0,,,,,,,,,,,,,,,,repeat,number,numRpt,d,0.714,Lo,,,,,,4,,,,,,,,high,14,0,14,0,1,,,,,,,,,
297241,2022-12-06_10h55.20.092,vts_reward_expectancy_bt,2022.2.4,MacIntel,60.0024001,Chrome,1440,900,,,,,0,1242,,,,,,,,,,,,,,,,,139,Y,triangle,1,0,,,,,,,,,,,,,,,,switch,letter,lettSwt,k,0.8884,Hi,,,,,,4,,,,,,,,high,15,0,15,0,1,,,,,,,,,
297241,2022-12-06_10h55.20.092,vts_reward_expectancy_bt,2022.2.4,MacIntel,60.0024001,Chrome,1440,900,,,,,0,1242,,,,,,,,,,,,,,,,,146,W,triangle,1,0,,,,,,,,,,,,,,,,switch,number,numSwt,d,0.7807,Hi,,,,,,4,,,,,,,,high,16,0,16,0,1,,,,,,,,,
297241,2022-12-06_10h55.20.092,vts_reward_expectancy_bt,2022.2.4,MacIntel,60.0024001,Chrome,1440,900,,,,,1,1243,,,,,,,,,,,,,,,,,125,D,hexagon,1,0,,,,,,,,,,,,,,,,repeat,number,numRpt,d,0.669,Lo,,,,,,4,,,,,,,,high,17,0,17,0,1,,,,,,,,,
297241,2022-12-06_10h55.20.092,vts_reward_expectancy_bt,2022.2.4,MacIntel,60.0024001,Chrome,1440,900,,,,,10,1253,,,,,,,,,,,,,,,,,139,S,circle,1,0,,,,,,,,,,,,,,,,repeat,number,numRpt,d,0.6133,Hi,,,,,,4,,,,,,,,high,18,0,18,0,1,,,,,,,,,
297241,2022-12-06_10h55.20.092,vts_reward_expectancy_bt,2022.2.4,MacIntel,60.0024001,Chrome,1440,900,,,,,10,1263,,,,,,,,,,,,,,,,,132,F,star,1,0,,,,,,,,,,,,,,,,repeat,number,numRpt,d,0.581,Lo,,,,,,4,,,,,,,,high,19,0,19,0,1,,,,,,,,,
297241,2022-12-06_10h55.20.092,vts_reward_expectancy_bt,2022.2.4,MacIntel,60.0024001,Chrome,1440,900,,,,,0,1263,,,,,,,,,,,,,,,,,174,H,triangle,0,0,,,,,,,,,,,,,,,,switch,letter,NA,k,0.7634,Lo,,,,,,4,,,,,,,,high,20,0,20,0,1,,,,,,,,,
297241,2022-12-06_10h55.20.092,vts_reward_expectancy_bt,2022.2.4,MacIntel,60.0024001,Chrome,1440,900,,,,,1,1264,,,,,,,,,,,,,,,,,181,B,star,1,1,,,,,,,,,,,,,,,,switch,number,numSwt,f,0.614,Lo,,,,,,4,,,,,,,,high,21,0,21,0,1,,,,,,,,,
297241,2022-12-06_10h55.20.092,vts_reward_expectancy_bt,2022.2.4,MacIntel,60.0024001,Chrome,1440,900,,,,,10,1274,,,,,,,,,,,,,,,,,160,Y,hexagon,1,0,,,,,,,,,,,,,,,,repeat,number,numRpt,f,0.8663,Lo,,,,,,4,,,,,,,,high,22,0,22,0,1,,,,,,,,,
297241,2022-12-06_10h55.20.092,vts_reward_expectancy_bt,2022.2.4,MacIntel,60.0024001,Chrome,1440,900,,,,,10,1284,,,,,,,,,,,,,,,,,167,U,circle,1,0,,,,,,,,,,,,,,,,repeat,number,numRpt,f,0.5532,Hi,,,,,,4,,,,,,,,high,23,0,23,0,1,,,,,,,,,
297241,2022-12-06_10h55.20.092,vts_reward_expectancy_bt,2022.2.4,MacIntel,60.0024001,Chrome,1440,900,,,,,0,1284,,,,,,,,,,,,,,,,,146,Y,triangle,1,0,,,,,,,,,,,,,,,,repeat,number,numRpt,d,0.9806,Hi,,,,,,4,,,,,,,,high,24,0,24,0,1,,,,,,,,,
297241,2022-12-06_10h55.20.092,vts_reward_expectancy_bt,2022.2.4,MacIntel,60.0024001,Chrome,1440,900,,,,,10,1294,,,,,,,,,,,,,,,,,167,B,circle,1,0,,,,,,,,,,,,,,,,repeat,number,numRpt,f,0.5968,Hi,,,,,,4,,,,,,,,high,25,0,25,0,1,,,,,,,,,
297241,2022-12-06_10h55.20.092,vts_reward_expectancy_bt,2022.2.4,MacIntel,60.0024001,Chrome,1440,900,,,,,1,1295,,,,,,,,,,,,,,,,,160,H,hexagon,1,0,,,,,,,,,,,,,,,,repeat,number,numRpt,f,0.6642,Lo,,,,,,4,,,,,,,,high,26,0,26,0,1,,,,,,,,,
297241,2022-12-06_10h55.20.092,vts_reward_expectancy_bt,2022.2.4,MacIntel,60.0024001,Chrome,1440,900,,,,,1,1296,,,,,,,,,,,,,,,,,181,U,star,1,0,,,,,,,,,,,,,,,,repeat,number,numRpt,f,0.6962,Lo,,,,,,4,,,,,,,,high,27,0,27,0,1,,,,,,,,,
297241,2022-12-06_10h55.20.092,vts_reward_expectancy_bt,2022.2.4,MacIntel,60.0024001,Chrome,1440,900,,,,,1,1297,,,,,,,,,,,,,,,,,139,S,star,1,0,,,,,,,,,,,,,,,,repeat,number,numRpt,d,0.5799,Lo,,,,,,4,,,,,,,,high,28,0,28,0,1,,,,,,,,,
297241,2022-12-06_10h55.20.092,vts_reward_expectancy_bt,2022.2.4,MacIntel,60.0024001,Chrome,1440,900,,,,,0,1297,,,,,,,,,,,,,,,,,125,F,triangle,0,0,,,,,,,,,,,,,,,,repeat,number,NA,f,0.6464,Lo,,,,,,4,,,,,,,,high,29,0,29,0,1,,,,,,,,,
297241,2022-12-06_10h55.20.092,vts_reward_expectancy_bt,2022.2.4,MacIntel,60.0024001,Chrome,1440,900,,,,,1,1298,,,,,,,,,,,,,,,,,132,D,hexagon,1,1,,,,,,,,,,,,,,,,repeat,number,numRpt,d,0.6726,Lo,,,,,,4,,,,,,,,high,30,0,30,0,1,,,,,,,,,
297241,2022-12-06_10h55.20.092,vts_reward_expectancy_bt,2022.2.4,MacIntel,60.0024001,Chrome,1440,900,,,,,1,1299,,,,,,,,,,,,,,,,,174,W,circle,1,0,,,,,,,,,,,,,,,,repeat,number,numRpt,f,0.6133,Hi,,,,,,4,,,,,,,,high,31,0,31,0,1,,,,,,,,,
297241,2022-12-06_10h55.20.092,vts_reward_expectancy_bt,2022.2.4,MacIntel,60.0024001,Chrome,1440,900,,,,,1,1300,,,,,,,,,,,,,,,,,139,Y,hexagon,1,0,,,,,,,,,,,,,,,,repeat,number,numRpt,d,0.5345,Lo,,,,,,5,,,,,,space,0.281,high,0,0,0,0,1,,,,,,,,,
297241,2022-12-06_10h55.20.092,vts_reward_expectancy_bt,2022.2.4,MacIntel,60.0024001,Chrome,1440,900,,,,,10,1310,,,,,,,,,,,,,,,,,181,B,circle,1,0,,,,,,,,,,,,,,,,repeat,number,numRpt,f,0.5638,Hi,,,,,,5,,,,,,,,high,1,0,1,0,1,,,,,,,,,
297241,2022-12-06_10h55.20.092,vts_reward_expectancy_bt,2022.2.4,MacIntel,60.0024001,Chrome,1440,900,,,,,1,1311,,,,,,,,,,,,,,,,,174,U,star,1,0,,,,,,,,,,,,,,,,repeat,number,numRpt,f,0.5646,Lo,,,,,,5,,,,,,,,high,2,0,2,0,1,,,,,,,,,
297241,2022-12-06_10h55.20.092,vts_reward_expectancy_bt,2022.2.4,MacIntel,60.0024001,Chrome,1440,900,,,,,10,1321,,,,,,,,,,,,,,,,,167,W,triangle,1,0,,,,,,,,,,,,,,,,repeat,number,numRpt,f,0.5666,Hi,,,,,,5,,,,,,,,high,3,0,3,0,1,,,,,,,,,
297241,2022-12-06_10h55.20.092,vts_reward_expectancy_bt,2022.2.4,MacIntel,60.0024001,Chrome,1440,900,,,,,1,1322,,,,,,,,,,,,,,,,,146,F,hexagon,1,0,,,,,,,,,,,,,,,,repeat,number,numRpt,d,0.5965,Lo,,,,,,5,,,,,,,,high,4,0,4,0,1,,,,,,,,,
297241,2022-12-06_10h55.20.092,vts_reward_expectancy_bt,2022.2.4,MacIntel,60.0024001,Chrome,1440,900,,,,,10,1332,,,,,,,,,,,,,,,,,132,D,circle,1,0,,,,,,,,,,,,,,,,repeat,number,numRpt,d,0.5351,Hi,,,,,,5,,,,,,,,high,5,0,5,0,1,,,,,,,,,
297241,2022-12-06_10h55.20.092,vts_reward_expectancy_bt,2022.2.4,MacIntel,60.0024001,Chrome,1440,900,,,,,1,1333,,,,,,,,,,,,,,,,,160,S,star,1,0,,,,,,,,,,,,,,,,repeat,number,numRpt,f,0.5481,Lo,,,,,,5,,,,,,,,high,6,0,6,0,1,,,,,,,,,
297241,2022-12-06_10h55.20.092,vts_reward_expectancy_bt,2022.2.4,MacIntel,60.0024001,Chrome,1440,900,,,,,0,1333,,,,,,,,,,,,,,,,,125,H,triangle,1,0,,,,,,,,,,,,,,,,repeat,number,numRpt,d,0.6698,Hi,,,,,,5,,,,,,,,high,7,0,7,0,1,,,,,,,,,
297241,2022-12-06_10h55.20.092,vts_reward_expectancy_bt,2022.2.4,MacIntel,60.0024001,Chrome,1440,900,,,,,1,1334,,,,,,,,,,,,,,,,,139,Y,star,1,0,,,,,,,,,,,,,,,,repeat,number,numRpt,d,0.7507,Lo,,,,,,5,,,,,,,,high,8,0,8,0,1,,,,,,,,,
297241,2022-12-06_10h55.20.092,vts_reward_expectancy_bt,2022.2.4,MacIntel,60.0024001,Chrome,1440,900,,,,,1,1335,,,,,,,,,,,,,,,,,181,B,hexagon,1,0,,,,,,,,,,,,,,,,repeat,number,numRpt,f,0.6274,Lo,,,,,,5,,,,,,,,high,9,0,9,0,1,,,,,,,,,
297241,2022-12-06_10h55.20.092,vts_reward_expectancy_bt,2022.2.4,MacIntel,60.0024001,Chrome,1440,900,,,,,0,1335,,,,,,,,,,,,,,,,,174,U,triangle,1,0,,,,,,,,,,,,,,,,repeat,number,numRpt,f,0.645,Hi,,,,,,5,,,,,,,,high,10,0,10,0,1,,,,,,,,,
297241,2022-12-06_10h55.20.092,vts_reward_expectancy_bt,2022.2.4,MacIntel,60.0024001,Chrome,1440,900,,,,,0,1335,,,,,,,,,,,,,,,,,167,W,circle,1,0,,,,,,,,,,,,,,,,repeat,number,numRpt,f,0.9135,Hi,,,,,,5,,,,,,,,high,11,0,11,0,1,,,,,,,,,
297241,2022-12-06_10h55.20.092,vts_reward_expectancy_bt,2022.2.4,MacIntel,60.0024001,Chrome,1440,900,,,,,10,1345,,,,,,,,,,,,,,,,,146,F,hexagon,1,0,,,,,,,,,,,,,,,,repeat,number,numRpt,d,0.6305,Lo,,,,,,5,,,,,,,,high,12,0,12,0,1,,,,,,,,,
297241,2022-12-06_10h55.20.092,vts_reward_expectancy_bt,2022.2.4,MacIntel,60.0024001,Chrome,1440,900,,,,,0,1345,,,,,,,,,,,,,,,,,132,D,circle,1,0,,,,,,,,,,,,,,,,repeat,number,numRpt,d,0.6772,Hi,,,,,,5,,,,,,,,high,13,0,13,0,1,,,,,,,,,
297241,2022-12-06_10h55.20.092,vts_reward_expectancy_bt,2022.2.4,MacIntel,60.0024001,Chrome,1440,900,,,,,10,1355,,,,,,,,,,,,,,,,,160,S,triangle,1,0,,,,,,,,,,,,,,,,switch,letter,lettSwt,k,0.6079,Hi,,,,,,5,,,,,,,,high,14,0,14,0,1,,,,,,,,,
297241,2022-12-06_10h55.20.092,vts_reward_expectancy_bt,2022.2.4,MacIntel,60.0024001,Chrome,1440,900,,,,,1,1356,,,,,,,,,,,,,,,,,125,H,star,1,0,,,,,,,,,,,,,,,,switch,number,numSwt,d,0.781,Lo,,,,,,5,,,,,,,,high,15,0,15,0,1,,,,,,,,,
297241,2022-12-06_10h55.20.092,vts_reward_expectancy_bt,2022.2.4,MacIntel,60.0024001,Chrome,1440,900,,,,,0,1356,,,,,,,,,,,,,,,,,139,Y,triangle,1,0,,,,,,,,,,,,,,,,repeat,number,numRpt,d,0.6923,Hi,,,,,,5,,,,,,,,high,16,0,16,0,1,,,,,,,,,
297241,2022-12-06_10h55.20.092,vts_reward_expectancy_bt,2022.2.4,MacIntel,60.0024001,Chrome,1440,900,,,,,1,1357,,,,,,,,,,,,,,,,,125,W,hexagon,1,0,,,,,,,,,,,,,,,,repeat,number,numRpt,d,0.7616,Lo,,,,,,5,,,,,,,,high,17,0,17,0,1,,,,,,,,,
297241,2022-12-06_10h55.20.092,vts_reward_expectancy_bt,2022.2.4,MacIntel,60.0024001,Chrome,1440,900,,,,,0,1357,,,,,,,,,,,,,,,,,181,H,circle,1,0,,,,,,,,,,,,,,,,repeat,number,numRpt,f,0.7461,Hi,,,,,,5,,,,,,,,high,18,0,18,0,1,,,,,,,,,
297241,2022-12-06_10h55.20.092,vts_reward_expectancy_bt,2022.2.4,MacIntel,60.0024001,Chrome,1440,900,,,,,1,1358,,,,,,,,,,,,,,,,,167,S,star,1,0,,,,,,,,,,,,,,,,switch,letter,lettSwt,k,0.6679,Lo,,,,,,5,,,,,,,,high,19,0,19,0,1,,,,,,,,,
297241,2022-12-06_10h55.20.092,vts_reward_expectancy_bt,2022.2.4,MacIntel,60.0024001,Chrome,1440,900,,,,,0,1358,,,,,,,,,,,,,,,,,146,B,triangle,0,0,,,,,,,,,,,,,,,,repeat,letter,NA,k,1.2793,Lo,,,,,,5,,,,,,,,high,20,0,20,0,1,,,,,,,,,
297241,2022-12-06_10h55.20.092,vts_reward_expectancy_bt,2022.2.4,MacIntel,60.0024001,Chrome,1440,900,,,,,1,1359,,,,,,,,,,,,,,,,,174,F,hexagon,1,1,,,,,,,,,,,,,,,,repeat,letter,lettRpt,j,0.7664,Lo,,,,,,5,,,,,,,,high,21,0,21,0,1,,,,,,,,,
297241,2022-12-06_10h55.20.092,vts_reward_expectancy_bt,2022.2.4,MacIntel,60.0024001,Chrome,1440,900,,,,,10,1369,,,,,,,,,,,,,,,,,132,D,circle,1,0,,,,,,,,,,,,,,,,repeat,letter,lettRpt,j,0.6631,Hi,,,,,,5,,,,,,,,high,22,0,22,0,1,,,,,,,,,
297241,2022-12-06_10h55.20.092,vts_reward_expectancy_bt,2022.2.4,MacIntel,60.0024001,Chrome,1440,900,,,,,1,1370,,,,,,,,,,,,,,,,,160,U,star,1,0,,,,,,,,,,,,,,,,repeat,letter,lettRpt,k,0.721,Lo,,,,,,5,,,,,,,,high,23,0,23,0,1,,,,,,,,,
297241,2022-12-06_10h55.20.092,vts_reward_expectancy_bt,2022.2.4,MacIntel,60.0024001,Chrome,1440,900,,,,,1,1371,,,,,,,,,,,,,,,,,160,S,hexagon,1,0,,,,,,,,,,,,,,,,repeat,letter,lettRpt,k,0.7447,Lo,,,,,,5,,,,,,,,high,24,0,24,0,1,,,,,,,,,
297241,2022-12-06_10h55.20.092,vts_reward_expectancy_bt,2022.2.4,MacIntel,60.0024001,Chrome,1440,900,,,,,0,1371,,,,,,,,,,,,,,,,,132,D,triangle,0,0,,,,,,,,,,,,,,,,switch,number,NA,f,0.2448,Lo,,,,,,5,,,,,,,,high,25,0,25,0,1,,,,,,,,,
297241,2022-12-06_10h55.20.092,vts_reward_expectancy_bt,2022.2.4,MacIntel,60.0024001,Chrome,1440,900,,,,,0,1371,,,,,,,,,,,,,,,,,167,H,circle,1,1,,,,,,,,,,,,,,,,switch,letter,lettSwt,j,0.882,Hi,,,,,,5,,,,,,,,high,26,0,26,0,1,,,,,,,,,
297241,2022-12-06_10h55.20.092,vts_reward_expectancy_bt,2022.2.4,MacIntel,60.0024001,Chrome,1440,900,,,,,1,1372,,,,,,,,,,,,,,,,,139,U,star,1,0,,,,,,,,,,,,,,,,repeat,letter,lettRpt,k,0.6023,Lo,,,,,,5,,,,,,,,high,27,0,27,0,1,,,,,,,,,
297241,2022-12-06_10h55.20.092,vts_reward_expectancy_bt,2022.2.4,MacIntel,60.0024001,Chrome,1440,900,,,,,1,1373,,,,,,,,,,,,,,,,,125,W,hexagon,1,0,,,,,,,,,,,,,,,,repeat,letter,lettRpt,k,0.965,Lo,,,,,,5,,,,,,,,high,28,0,28,0,1,,,,,,,,,
297241,2022-12-06_10h55.20.092,vts_reward_expectancy_bt,2022.2.4,MacIntel,60.0024001,Chrome,1440,900,,,,,1,1374,,,,,,,,,,,,,,,,,174,F,star,1,0,,,,,,,,,,,,,,,,repeat,letter,lettRpt,j,0.7256,Lo,,,,,,5,,,,,,,,high,29,0,29,0,1,,,,,,,,,
297241,2022-12-06_10h55.20.092,vts_reward_expectancy_bt,2022.2.4,MacIntel,60.0024001,Chrome,1440,900,,,,,10,1384,,,,,,,,,,,,,,,,,181,B,triangle,1,0,,,,,,,,,,,,,,,,repeat,letter,lettRpt,j,0.7035,Hi,,,,,,5,,,,,,,,high,30,0,30,0,1,,,,,,,,,
297241,2022-12-06_10h55.20.092,vts_reward_expectancy_bt,2022.2.4,MacIntel,60.0024001,Chrome,1440,900,,,,,1,1385,,,,,,,,,,,,,,,,,146,Y,circle,1,0,,,,,,,,,,,,,,,,repeat,letter,lettRpt,k,0.8434,Hi,,,,,,5,,,,,,,,high,31,0,31,0,1,,,,,,,,,
297241,2022-12-06_10h55.20.092,vts_reward_expectancy_bt,2022.2.4,MacIntel,60.0024001,Chrome,1440,900,,,,,10,1395,,,,,,,,,,,,,,,,,132,D,triangle,1,0,,,,,,,,,,,,,,,,switch,number,numSwt,d,0.7477,Hi,,,,,,6,,,,,,space,3.375,high,0,0,0,0,1,,,,,,,,,
297241,2022-12-06_10h55.20.092,vts_reward_expectancy_bt,2022.2.4,MacIntel,60.0024001,Chrome,1440,900,,,,,1,1396,,,,,,,,,,,,,,,,,139,B,star,1,0,,,,,,,,,,,,,,,,repeat,number,numRpt,d,0.8987,Lo,,,,,,6,,,,,,,,high,1,0,1,0,1,,,,,,,,,
297241,2022-12-06_10h55.20.092,vts_reward_expectancy_bt,2022.2.4,MacIntel,60.0024001,Chrome,1440,900,,,,,1,1397,,,,,,,,,,,,,,,,,181,Y,circle,1,0,,,,,,,,,,,,,,,,repeat,number,numRpt,f,0.5621,Hi,,,,,,6,,,,,,,,high,2,0,2,0,1,,,,,,,,,
297241,2022-12-06_10h55.20.092,vts_reward_expectancy_bt,2022.2.4,MacIntel,60.0024001,Chrome,1440,900,,,,,1,1398,,,,,,,,,,,,,,,,,160,F,hexagon,1,0,,,,,,,,,,,,,,,,repeat,number,numRpt,f,0.5404,Lo,,,,,,6,,,,,,,,high,3,0,3,0,1,,,,,,,,,
297241,2022-12-06_10h55.20.092,vts_reward_expectancy_bt,2022.2.4,MacIntel,60.0024001,Chrome,1440,900,,,,,0,1398,,,,,,,,,,,,,,,,,146,U,triangle,1,0,,,,,,,,,,,,,,,,switch,letter,lettSwt,k,0.6643,Hi,,,,,,6,,,,,,,,high,4,0,4,0,1,,,,,,,,,
297241,2022-12-06_10h55.20.092,vts_reward_expectancy_bt,2022.2.4,MacIntel,60.0024001,Chrome,1440,900,,,,,10,1408,,,,,,,,,,,,,,,,,125,H,star,1,0,,,,,,,,,,,,,,,,repeat,letter,lettRpt,j,0.6828,Lo,,,,,,6,,,,,,,,high,5,0,5,0,1,,,,,,,,,
297241,2022-12-06_10h55.20.092,vts_reward_expectancy_bt,2022.2.4,MacIntel,60.0024001,Chrome,1440,900,,,,,0,1408,,,,,,,,,,,,,,,,,174,S,circle,0,0,,,,,,,,,,,,,,,,repeat,letter,NA,j,0.6639,Lo,,,,,,6,,,,,,,,high,6,0,6,0,1,,,,,,,,,
297241,2022-12-06_10h55.20.092,vts_reward_expectancy_bt,2022.2.4,MacIntel,60.0024001,Chrome,1440,900,,,,,1,1409,,,,,,,,,,,,,,,,,167,W,hexagon,1,1,,,,,,,,,,,,,,,,repeat,letter,lettRpt,k,0.6093,Lo,,,,,,6,,,,,,,,high,7,0,7,0,1,,,,,,,,,
297241,2022-12-06_10h55.20.092,vts_reward_expectancy_bt,2022.2.4,MacIntel,60.0024001,Chrome,1440,900,,,,,10,1419,,,,,,,,,,,,,,,,,132,D,circle,1,0,,,,,,,,,,,,,,,,repeat,letter,lettRpt,j,0.6816,Hi,,,,,,6,,,,,,,,high,8,0,8,0,1,,,,,,,,,
297241,2022-12-06_10h55.20.092,vts_reward_expectancy_bt,2022.2.4,MacIntel,60.0024001,Chrome,1440,900,,,,,10,1429,,,,,,,,,,,,,,,,,139,B,hexagon,1,0,,,,,,,,,,,,,,,,repeat,letter,lettRpt,j,0.6433,Lo,,,,,,6,,,,,,,,high,9,0,9,0,1,,,,,,,,,
297241,2022-12-06_10h55.20.092,vts_reward_expectancy_bt,2022.2.4,MacIntel,60.0024001,Chrome,1440,900,,,,,0,1429,,,,,,,,,,,,,,,,,181,Y,triangle,0,0,,,,,,,,,,,,,,,,repeat,letter,NA,j,0.9272,Lo,,,,,,6,,,,,,,,high,10,0,10,0,1,,,,,,,,,
297241,2022-12-06_10h55.20.092,vts_reward_expectancy_bt,2022.2.4,MacIntel,60.0024001,Chrome,1440,900,,,,,0,1429,,,,,,,,,,,,,,,,,160,F,star,0,1,,,,,,,,,,,,,,,,repeat,letter,NA,k,0.4755,Lo,,,,,,6,,,,,,,,high,11,0,11,0,1,,,,,,,,,
