participant,date,expName,psychopyVersion,OS,frameRate,browser,xResolution,yResolution,key_resp.keys,key_resp.rt,training_resp.keys,training_resp.rt,points_trial,points_cumul,trainBlock,training.thisRepN,training.thisTrialN,training.thisN,training.thisIndex,training.ran,LTriangleOpac,LCircleOpac,LHexagonOpac,LStarOpac,RTriangleOpac,RCircleOpac,RHexagonOpac,RStarOpac,LShape_ID,RShape_ID,curr_topStim,curr_bottStim,curr_shape,acc,E1,target_resp_prac1.keys,target_resp_prac1.rt,pracBlock,task1_prac_trials.thisRepN,task1_prac_trials.thisTrialN,task1_prac_trials.thisN,task1_prac_trials.thisIndex,task1_prac_trials.ran,target_resp_prac2.keys,target_resp_prac2.rt,task2_praac_trials.thisRepN,task2_praac_trials.thisTrialN,task2_praac_trials.thisN,task2_praac_trials.thisIndex,task2_praac_trials.ran,alt,task,condition,target_resp.keys,target_resp.rt,rewCond,vts_practice_trials.thisRepN,vts_practice_trials.thisTrialN,vts_practice_trials.thisN,vts_practice_trials.thisIndex,vts_practice_trials.ran,blockNum,trials_norew.thisRepN,trials_norew.thisTrialN,trials_norew.thisN,trials_norew.thisIndex,trials_norew.ran,key_resp_2.keys,key_resp_2.rt,rewExpectancy,trials_rew.thisRepN,trials_rew.thisTrialN,trials_rew.thisN,trials_rew.thisIndex,trials_rew.ran,Q1,Q2,Q2_text,Q3,Q4,Q5_text,Q5,xRes,yRes
297232,2022-12-05_12h25.08.379,vts_reward_expectancy_bt,2022.2.4,Win32,59.05628064,Chrome,1368,912,,,,,,,,,,,,,,,,,,,,,,,,,,,,,,,,,,,,,,,,,,,,,,,,,,,,,,,,,,,,,,,,,,,,,,,,,,,,
297232,2022-12-05_12h25.08.379,vts_reward_expectancy_bt,2022.2.4,Win32,59.05628064,Chrome,1368,912,space,2.7739,,,,,,,,,,,,,,,,,,,,,,,,,,,,,,,,,,,,,,,,,,,,,,,,,,,,,,,,,,,,,,,,,,,,,,,,,,
297232,2022-12-05_12h25.08.379,vts_reward_expectancy_bt,2022.2.4,Win32,59.05628064,Chrome,1368,912,,,,,,,,,,,,,,,,,,,,,,,,,,,,,,,,,,,,,,,,,,,,,,,,,,,,,,,,,,,,,,,,,,,,,,,,,,,,
297232,2022-12-05_12h25.08.379,vts_reward_expectancy_bt,2022.2.4,Win32,59.05628064,Chrome,1368,912,,,a,1.4985,1,1,0,0,0,0,9,1,0,0,0,1,1,0,0,0,star,triangle,,,,,,,,,,,,,,,,,,,,,,,,,,,,,,,,,,,,,,,,,,,,,,,,,,,,,,
297232,2022-12-05_12h25.08.379,vts_reward_expectancy_bt,2022.2.4,Win32,59.05628064,Chrome,1368,912,,,a,0.4677,1,2,0,0,1,1,6,1,0,0,1,0,1,0,0,0,hexagon,triangle,,,,,,,,,,,,,,,,,,,,,,,,,,,,,,,,,,,,,,,,,,,,,,,,,,,,,,
297232,2022-12-05_12h25.08.379,vts_reward_expectancy_bt,2022.2.4,Win32,59.05628064,Chrome,1368,912,,,l,0.5015,1,3,0,0,2,2,1,1,1,0,0,0,0,0,1,0,triangle,hexagon,,,,,,,,,,,,,,,,,,,,,,,,,,,,,,,,,,,,,,,,,,,,,,,,,,,,,,
297232,2022-12-05_12h25.08.379,vts_reward_expectancy_bt,2022.2.4,Win32,59.05628064,Chrome,1368,912,,,l,0.4704,1,4,0,0,3,3,8,1,0,0,1,0,0,0,0,1,hexagon,star,,,,,,,,,,,,,,,,,,,,,,,,,,,,,,,,,,,,,,,,,,,,,,,,,,,,,,
297232,2022-12-05_12h25.08.379,vts_reward_expectancy_bt,2022.2.4,Win32,59.05628064,Chrome,1368,912,,,a,0.7685,1,5,0,0,4,4,2,1,1,0,0,0,0,0,0,1,triangle,star,,,,,,,,,,,,,,,,,,,,,,,,,,,,,,,,,,,,,,,,,,,,,,,,,,,,,,
297232,2022-12-05_12h25.08.379,vts_reward_expectancy_bt,2022.2.4,Win32,59.05628064,Chrome,1368,912,,,a,0.6021,1,6,0,0,5,5,5,1,0,1,0,0,0,0,0,1,circle,star,,,,,,,,,,,,,,,,,,,,,,,,,,,,,,,,,,,,,,,,,,,,,,,,,,,,,,
297232,2022-12-05_12h25.08.379,vts_reward_expectancy_bt,2022.2.4,Win32,59.05628064,Chrome,1368,912,,,l,0.4692,10,16,0,0,6,6,11,1,0,0,0,1,0,0,1,0,star,hexagon,,,,,,,,,,,,,,,,,,,,,,,,,,,,,,,,,,,,,,,,,,,,,,,,,,,,,,
297232,2022-12-05_12h25.08.379,vts_reward_expectancy_bt,2022.2.4,Win32,59.05628064,Chrome,1368,912,,,a,0.2889,1,17,0,0,7,7,3,1,0,1,0,0,1,0,0,0,circle,triangle,,,,,,,,,,,,,,,,,,,,,,,,,,,,,,,,,,,,,,,,,,,,,,,,,,,,,,
297232,2022-12-05_12h25.08.379,vts_reward_expectancy_bt,2022.2.4,Win32,59.05628064,Chrome,1368,912,,,l,0.2849,1,18,0,0,8,8,10,1,0,0,0,1,0,1,0,0,star ,circle,,,,,,,,,,,,,,,,,,,,,,,,,,,,,,,,,,,,,,,,,,,,,,,,,,,,,,
297232,2022-12-05_12h25.08.379,vts_reward_expectancy_bt,2022.2.4,Win32,59.05628064,Chrome,1368,912,,,l,0.7027,10,28,0,0,9,9,4,1,0,1,0,0,0,0,1,0,circle,hexagon,,,,,,,,,,,,,,,,,,,,,,,,,,,,,,,,,,,,,,,,,,,,,,,,,,,,,,
297232,2022-12-05_12h25.08.379,vts_reward_expectancy_bt,2022.2.4,Win32,59.05628064,Chrome,1368,912,,,a,0.6008,10,38,0,0,10,10,7,1,0,0,1,0,0,1,0,0,hexagon,circle,,,,,,,,,,,,,,,,,,,,,,,,,,,,,,,,,,,,,,,,,,,,,,,,,,,,,,
297232,2022-12-05_12h25.08.379,vts_reward_expectancy_bt,2022.2.4,Win32,59.05628064,Chrome,1368,912,,,l,0.6586,10,48,0,0,11,11,0,1,1,0,0,0,0,1,0,0,triangle,circle,,,,,,,,,,,,,,,,,,,,,,,,,,,,,,,,,,,,,,,,,,,,,,,,,,,,,,
297232,2022-12-05_12h25.08.379,vts_reward_expectancy_bt,2022.2.4,Win32,59.05628064,Chrome,1368,912,,,a,0.5068,10,58,0,1,0,12,3,1,0,1,0,0,1,0,0,0,circle,triangle,,,,,,,,,,,,,,,,,,,,,,,,,,,,,,,,,,,,,,,,,,,,,,,,,,,,,,
297232,2022-12-05_12h25.08.379,vts_reward_expectancy_bt,2022.2.4,Win32,59.05628064,Chrome,1368,912,,,l,0.4676,10,68,0,1,1,13,0,1,1,0,0,0,0,1,0,0,triangle,circle,,,,,,,,,,,,,,,,,,,,,,,,,,,,,,,,,,,,,,,,,,,,,,,,,,,,,,
297232,2022-12-05_12h25.08.379,vts_reward_expectancy_bt,2022.2.4,Win32,59.05628064,Chrome,1368,912,,,a,0.4011,10,78,0,1,2,14,4,1,0,1,0,0,0,0,1,0,circle,hexagon,,,,,,,,,,,,,,,,,,,,,,,,,,,,,,,,,,,,,,,,,,,,,,,,,,,,,,
297232,2022-12-05_12h25.08.379,vts_reward_expectancy_bt,2022.2.4,Win32,59.05628064,Chrome,1368,912,,,l,0.6863,1,79,0,1,3,15,8,1,0,0,1,0,0,0,0,1,hexagon,star,,,,,,,,,,,,,,,,,,,,,,,,,,,,,,,,,,,,,,,,,,,,,,,,,,,,,,
297232,2022-12-05_12h25.08.379,vts_reward_expectancy_bt,2022.2.4,Win32,59.05628064,Chrome,1368,912,,,a,0.4348,1,80,0,1,4,16,5,1,0,1,0,0,0,0,0,1,circle,star,,,,,,,,,,,,,,,,,,,,,,,,,,,,,,,,,,,,,,,,,,,,,,,,,,,,,,
297232,2022-12-05_12h25.08.379,vts_reward_expectancy_bt,2022.2.4,Win32,59.05628064,Chrome,1368,912,,,l,0.3505,1,81,0,1,5,17,7,1,0,0,1,0,0,1,0,0,hexagon,circle,,,,,,,,,,,,,,,,,,,,,,,,,,,,,,,,,,,,,,,,,,,,,,,,,,,,,,
297232,2022-12-05_12h25.08.379,vts_reward_expectancy_bt,2022.2.4,Win32,59.05628064,Chrome,1368,912,,,l,0.5188,1,82,0,1,6,18,6,1,0,0,1,0,1,0,0,0,hexagon,triangle,,,,,,,,,,,,,,,,,,,,,,,,,,,,,,,,,,,,,,,,,,,,,,,,,,,,,,
297232,2022-12-05_12h25.08.379,vts_reward_expectancy_bt,2022.2.4,Win32,59.05628064,Chrome,1368,912,,,a,0.2345,1,83,0,1,7,19,2,1,1,0,0,0,0,0,0,1,triangle,star,,,,,,,,,,,,,,,,,,,,,,,,,,,,,,,,,,,,,,,,,,,,,,,,,,,,,,
297232,2022-12-05_12h25.08.379,vts_reward_expectancy_bt,2022.2.4,Win32,59.05628064,Chrome,1368,912,,,l,0.3188,10,93,0,1,8,20,9,1,0,0,0,1,1,0,0,0,star,triangle,,,,,,,,,,,,,,,,,,,,,,,,,,,,,,,,,,,,,,,,,,,,,,,,,,,,,,
297232,2022-12-05_12h25.08.379,vts_reward_expectancy_bt,2022.2.4,Win32,59.05628064,Chrome,1368,912,,,l,0.2677,1,94,0,1,9,21,11,1,0,0,0,1,0,0,1,0,star,hexagon,,,,,,,,,,,,,,,,,,,,,,,,,,,,,,,,,,,,,,,,,,,,,,,,,,,,,,
297232,2022-12-05_12h25.08.379,vts_reward_expectancy_bt,2022.2.4,Win32,59.05628064,Chrome,1368,912,,,a,0.2679,1,95,0,1,10,22,1,1,1,0,0,0,0,0,1,0,triangle,hexagon,,,,,,,,,,,,,,,,,,,,,,,,,,,,,,,,,,,,,,,,,,,,,,,,,,,,,,
297232,2022-12-05_12h25.08.379,vts_reward_expectancy_bt,2022.2.4,Win32,59.05628064,Chrome,1368,912,,,l,0.2353,1,96,0,1,11,23,10,1,0,0,0,1,0,1,0,0,star ,circle,,,,,,,,,,,,,,,,,,,,,,,,,,,,,,,,,,,,,,,,,,,,,,,,,,,,,,
297232,2022-12-05_12h25.08.379,vts_reward_expectancy_bt,2022.2.4,Win32,59.05628064,Chrome,1368,912,,,a,0.3338,10,106,0,2,0,24,7,1,0,0,1,0,0,1,0,0,hexagon,circle,,,,,,,,,,,,,,,,,,,,,,,,,,,,,,,,,,,,,,,,,,,,,,,,,,,,,,
297232,2022-12-05_12h25.08.379,vts_reward_expectancy_bt,2022.2.4,Win32,59.05628064,Chrome,1368,912,,,a,2.0718,10,116,0,2,1,25,10,1,0,0,0,1,0,1,0,0,star ,circle,,,,,,,,,,,,,,,,,,,,,,,,,,,,,,,,,,,,,,,,,,,,,,,,,,,,,,
297232,2022-12-05_12h25.08.379,vts_reward_expectancy_bt,2022.2.4,Win32,59.05628064,Chrome,1368,912,,,l,2.0894,10,126,0,2,2,26,9,1,0,0,0,1,1,0,0,0,star,triangle,,,,,,,,,,,,,,,,,,,,,,,,,,,,,,,,,,,,,,,,,,,,,,,,,,,,,,
297232,2022-12-05_12h25.08.379,vts_reward_expectancy_bt,2022.2.4,Win32,59.05628064,Chrome,1368,912,,,a,1.5196,10,136,0,2,3,27,0,1,1,0,0,0,0,1,0,0,triangle,circle,,,,,,,,,,,,,,,,,,,,,,,,,,,,,,,,,,,,,,,,,,,,,,,,,,,,,,
297232,2022-12-05_12h25.08.379,vts_reward_expectancy_bt,2022.2.4,Win32,59.05628064,Chrome,1368,912,,,a,0.251,1,137,0,2,4,28,2,1,1,0,0,0,0,0,0,1,triangle,star,,,,,,,,,,,,,,,,,,,,,,,,,,,,,,,,,,,,,,,,,,,,,,,,,,,,,,
297232,2022-12-05_12h25.08.379,vts_reward_expectancy_bt,2022.2.4,Win32,59.05628064,Chrome,1368,912,,,l,0.1502,10,147,0,2,5,29,11,1,0,0,0,1,0,0,1,0,star,hexagon,,,,,,,,,,,,,,,,,,,,,,,,,,,,,,,,,,,,,,,,,,,,,,,,,,,,,,
297232,2022-12-05_12h25.08.379,vts_reward_expectancy_bt,2022.2.4,Win32,59.05628064,Chrome,1368,912,,,a,0.451,10,157,0,2,6,30,6,1,0,0,1,0,1,0,0,0,hexagon,triangle,,,,,,,,,,,,,,,,,,,,,,,,,,,,,,,,,,,,,,,,,,,,,,,,,,,,,,
297232,2022-12-05_12h25.08.379,vts_reward_expectancy_bt,2022.2.4,Win32,59.05628064,Chrome,1368,912,,,l,0.3082,10,167,0,2,7,31,1,1,1,0,0,0,0,0,1,0,triangle,hexagon,,,,,,,,,,,,,,,,,,,,,,,,,,,,,,,,,,,,,,,,,,,,,,,,,,,,,,
297232,2022-12-05_12h25.08.379,vts_reward_expectancy_bt,2022.2.4,Win32,59.05628064,Chrome,1368,912,,,a,0.4039,1,168,0,2,8,32,5,1,0,1,0,0,0,0,0,1,circle,star,,,,,,,,,,,,,,,,,,,,,,,,,,,,,,,,,,,,,,,,,,,,,,,,,,,,,,
297232,2022-12-05_12h25.08.379,vts_reward_expectancy_bt,2022.2.4,Win32,59.05628064,Chrome,1368,912,,,a,0.436,10,178,0,2,9,33,8,1,0,0,1,0,0,0,0,1,hexagon,star,,,,,,,,,,,,,,,,,,,,,,,,,,,,,,,,,,,,,,,,,,,,,,,,,,,,,,
297232,2022-12-05_12h25.08.379,vts_reward_expectancy_bt,2022.2.4,Win32,59.05628064,Chrome,1368,912,,,l,0.6685,10,188,0,2,10,34,4,1,0,1,0,0,0,0,1,0,circle,hexagon,,,,,,,,,,,,,,,,,,,,,,,,,,,,,,,,,,,,,,,,,,,,,,,,,,,,,,
297232,2022-12-05_12h25.08.379,vts_reward_expectancy_bt,2022.2.4,Win32,59.05628064,Chrome,1368,912,,,a,0.4352,1,189,0,2,11,35,3,1,0,1,0,0,1,0,0,0,circle,triangle,,,,,,,,,,,,,,,,,,,,,,,,,,,,,,,,,,,,,,,,,,,,,,,,,,,,,,
297232,2022-12-05_12h25.08.379,vts_reward_expectancy_bt,2022.2.4,Win32,59.05628064,Chrome,1368,912,,,a,0.5708,1,190,1,0,0,0,8,1,0,0,1,0,0,0,0,1,hexagon,star,,,,,,,,,,,,,,,,,,,,,,,,,,,,,,,,,,,,,,,,,,,,,,,,,,,,,,
297232,2022-12-05_12h25.08.379,vts_reward_expectancy_bt,2022.2.4,Win32,59.05628064,Chrome,1368,912,,,l,0.5508,10,200,1,0,1,1,9,1,0,0,0,1,1,0,0,0,star,triangle,,,,,,,,,,,,,,,,,,,,,,,,,,,,,,,,,,,,,,,,,,,,,,,,,,,,,,
297232,2022-12-05_12h25.08.379,vts_reward_expectancy_bt,2022.2.4,Win32,59.05628064,Chrome,1368,912,,,a,0.6336,1,201,1,0,2,2,4,1,0,1,0,0,0,0,1,0,circle,hexagon,,,,,,,,,,,,,,,,,,,,,,,,,,,,,,,,,,,,,,,,,,,,,,,,,,,,,,
297232,2022-12-05_12h25.08.379,vts_reward_expectancy_bt,2022.2.4,Win32,59.05628064,Chrome,1368,912,,,a,0.4668,1,202,1,0,3,3,6,1,0,0,1,0,1,0,0,0,hexagon,triangle,,,,,,,,,,,,,,,,,,,,,,,,,,,,,,,,,,,,,,,,,,,,,,,,,,,,,,
297232,2022-12-05_12h25.08.379,vts_reward_expectancy_bt,2022.2.4,Win32,59.05628064,Chrome,1368,912,,,a,0.5211,1,203,1,0,4,4,11,1,0,0,0,1,0,0,1,0,star,hexagon,,,,,,,,,,,,,,,,,,,,,,,,,,,,,,,,,,,,,,,,,,,,,,,,,,,,,,
297232,2022-12-05_12h25.08.379,vts_reward_expectancy_bt,2022.2.4,Win32,59.05628064,Chrome,1368,912,,,l,0.3352,10,213,1,0,5,5,10,1,0,0,0,1,0,1,0,0,star ,circle,,,,,,,,,,,,,,,,,,,,,,,,,,,,,,,,,,,,,,,,,,,,,,,,,,,,,,
297232,2022-12-05_12h25.08.379,vts_reward_expectancy_bt,2022.2.4,Win32,59.05628064,Chrome,1368,912,,,a,0.4875,10,223,1,0,6,6,3,1,0,1,0,0,1,0,0,0,circle,triangle,,,,,,,,,,,,,,,,,,,,,,,,,,,,,,,,,,,,,,,,,,,,,,,,,,,,,,
297232,2022-12-05_12h25.08.379,vts_reward_expectancy_bt,2022.2.4,Win32,59.05628064,Chrome,1368,912,,,l,0.2342,1,224,1,0,7,7,0,1,1,0,0,0,0,1,0,0,triangle,circle,,,,,,,,,,,,,,,,,,,,,,,,,,,,,,,,,,,,,,,,,,,,,,,,,,,,,,
297232,2022-12-05_12h25.08.379,vts_reward_expectancy_bt,2022.2.4,Win32,59.05628064,Chrome,1368,912,,,l,0.2347,10,234,1,0,8,8,2,1,1,0,0,0,0,0,0,1,triangle,star,,,,,,,,,,,,,,,,,,,,,,,,,,,,,,,,,,,,,,,,,,,,,,,,,,,,,,
297232,2022-12-05_12h25.08.379,vts_reward_expectancy_bt,2022.2.4,Win32,59.05628064,Chrome,1368,912,,,a,0.3169,10,244,1,0,9,9,1,1,1,0,0,0,0,0,1,0,triangle,hexagon,,,,,,,,,,,,,,,,,,,,,,,,,,,,,,,,,,,,,,,,,,,,,,,,,,,,,,
297232,2022-12-05_12h25.08.379,vts_reward_expectancy_bt,2022.2.4,Win32,59.05628064,Chrome,1368,912,,,l,0.2513,1,245,1,0,10,10,7,1,0,0,1,0,0,1,0,0,hexagon,circle,,,,,,,,,,,,,,,,,,,,,,,,,,,,,,,,,,,,,,,,,,,,,,,,,,,,,,
297232,2022-12-05_12h25.08.379,vts_reward_expectancy_bt,2022.2.4,Win32,59.05628064,Chrome,1368,912,,,l,0.2187,1,246,1,0,11,11,5,1,0,1,0,0,0,0,0,1,circle,star,,,,,,,,,,,,,,,,,,,,,,,,,,,,,,,,,,,,,,,,,,,,,,,,,,,,,,
297232,2022-12-05_12h25.08.379,vts_reward_expectancy_bt,2022.2.4,Win32,59.05628064,Chrome,1368,912,,,a,0.6544,1,247,1,1,0,12,6,1,0,0,1,0,1,0,0,0,hexagon,triangle,,,,,,,,,,,,,,,,,,,,,,,,,,,,,,,,,,,,,,,,,,,,,,,,,,,,,,
297232,2022-12-05_12h25.08.379,vts_reward_expectancy_bt,2022.2.4,Win32,59.05628064,Chrome,1368,912,,,l,0.3228,1,248,1,1,1,13,0,1,1,0,0,0,0,1,0,0,triangle,circle,,,,,,,,,,,,,,,,,,,,,,,,,,,,,,,,,,,,,,,,,,,,,,,,,,,,,,
297232,2022-12-05_12h25.08.379,vts_reward_expectancy_bt,2022.2.4,Win32,59.05628064,Chrome,1368,912,,,a,0.2848,10,258,1,1,2,14,3,1,0,1,0,0,1,0,0,0,circle,triangle,,,,,,,,,,,,,,,,,,,,,,,,,,,,,,,,,,,,,,,,,,,,,,,,,,,,,,
297232,2022-12-05_12h25.08.379,vts_reward_expectancy_bt,2022.2.4,Win32,59.05628064,Chrome,1368,912,,,l,0.5677,1,259,1,1,3,15,10,1,0,0,0,1,0,1,0,0,star ,circle,,,,,,,,,,,,,,,,,,,,,,,,,,,,,,,,,,,,,,,,,,,,,,,,,,,,,,
297232,2022-12-05_12h25.08.379,vts_reward_expectancy_bt,2022.2.4,Win32,59.05628064,Chrome,1368,912,,,a,0.4243,1,260,1,1,4,16,5,1,0,1,0,0,0,0,0,1,circle,star,,,,,,,,,,,,,,,,,,,,,,,,,,,,,,,,,,,,,,,,,,,,,,,,,,,,,,
297232,2022-12-05_12h25.08.379,vts_reward_expectancy_bt,2022.2.4,Win32,59.05628064,Chrome,1368,912,,,l,0.4175,10,270,1,1,5,17,2,1,1,0,0,0,0,0,0,1,triangle,star,,,,,,,,,,,,,,,,,,,,,,,,,,,,,,,,,,,,,,,,,,,,,,,,,,,,,,
297232,2022-12-05_12h25.08.379,vts_reward_expectancy_bt,2022.2.4,Win32,59.05628064,Chrome,1368,912,,,a,0.342,10,280,1,1,6,18,7,1,0,0,1,0,0,1,0,0,hexagon,circle,,,,,,,,,,,,,,,,,,,,,,,,,,,,,,,,,,,,,,,,,,,,,,,,,,,,,,
297232,2022-12-05_12h25.08.379,vts_reward_expectancy_bt,2022.2.4,Win32,59.05628064,Chrome,1368,912,,,l,0.4131,1,281,1,1,7,19,8,1,0,0,1,0,0,0,0,1,hexagon,star,,,,,,,,,,,,,,,,,,,,,,,,,,,,,,,,,,,,,,,,,,,,,,,,,,,,,,
297232,2022-12-05_12h25.08.379,vts_reward_expectancy_bt,2022.2.4,Win32,59.05628064,Chrome,1368,912,,,a,0.3336,1,282,1,1,8,20,4,1,0,1,0,0,0,0,1,0,circle,hexagon,,,,,,,,,,,,,,,,,,,,,,,,,,,,,,,,,,,,,,,,,,,,,,,,,,,,,,
297232,2022-12-05_12h25.08.379,vts_reward_expectancy_bt,2022.2.4,Win32,59.05628064,Chrome,1368,912,,,l,0.5681,10,292,1,1,9,21,9,1,0,0,0,1,1,0,0,0,star,triangle,,,,,,,,,,,,,,,,,,,,,,,,,,,,,,,,,,,,,,,,,,,,,,,,,,,,,,
297232,2022-12-05_12h25.08.379,vts_reward_expectancy_bt,2022.2.4,Win32,59.05628064,Chrome,1368,912,,,l,0.4687,10,302,1,1,10,22,11,1,0,0,0,1,0,0,1,0,star,hexagon,,,,,,,,,,,,,,,,,,,,,,,,,,,,,,,,,,,,,,,,,,,,,,,,,,,,,,
297232,2022-12-05_12h25.08.379,vts_reward_expectancy_bt,2022.2.4,Win32,59.05628064,Chrome,1368,912,,,l,0.3749,10,312,1,1,11,23,1,1,1,0,0,0,0,0,1,0,triangle,hexagon,,,,,,,,,,,,,,,,,,,,,,,,,,,,,,,,,,,,,,,,,,,,,,,,,,,,,,
297232,2022-12-05_12h25.08.379,vts_reward_expectancy_bt,2022.2.4,Win32,59.05628064,Chrome,1368,912,,,l,0.4873,1,313,1,2,0,24,10,1,0,0,0,1,0,1,0,0,star ,circle,,,,,,,,,,,,,,,,,,,,,,,,,,,,,,,,,,,,,,,,,,,,,,,,,,,,,,
297232,2022-12-05_12h25.08.379,vts_reward_expectancy_bt,2022.2.4,Win32,59.05628064,Chrome,1368,912,,,a,1.4842,10,323,1,2,1,25,8,1,0,0,1,0,0,0,0,1,hexagon,star,,,,,,,,,,,,,,,,,,,,,,,,,,,,,,,,,,,,,,,,,,,,,,,,,,,,,,
297232,2022-12-05_12h25.08.379,vts_reward_expectancy_bt,2022.2.4,Win32,59.05628064,Chrome,1368,912,,,a,0.5351,1,324,1,2,2,26,7,1,0,0,1,0,0,1,0,0,hexagon,circle,,,,,,,,,,,,,,,,,,,,,,,,,,,,,,,,,,,,,,,,,,,,,,,,,,,,,,
297232,2022-12-05_12h25.08.379,vts_reward_expectancy_bt,2022.2.4,Win32,59.05628064,Chrome,1368,912,,,l,0.3006,1,325,1,2,3,27,3,1,0,1,0,0,1,0,0,0,circle,triangle,,,,,,,,,,,,,,,,,,,,,,,,,,,,,,,,,,,,,,,,,,,,,,,,,,,,,,
297232,2022-12-05_12h25.08.379,vts_reward_expectancy_bt,2022.2.4,Win32,59.05628064,Chrome,1368,912,,,a,0.451,1,326,1,2,4,28,2,1,1,0,0,0,0,0,0,1,triangle,star,,,,,,,,,,,,,,,,,,,,,,,,,,,,,,,,,,,,,,,,,,,,,,,,,,,,,,
297232,2022-12-05_12h25.08.379,vts_reward_expectancy_bt,2022.2.4,Win32,59.05628064,Chrome,1368,912,,,l,1.8878,10,336,1,2,5,29,4,1,0,1,0,0,0,0,1,0,circle,hexagon,,,,,,,,,,,,,,,,,,,,,,,,,,,,,,,,,,,,,,,,,,,,,,,,,,,,,,
297232,2022-12-05_12h25.08.379,vts_reward_expectancy_bt,2022.2.4,Win32,59.05628064,Chrome,1368,912,,,a,1.9532,1,337,1,2,6,30,1,1,1,0,0,0,0,0,1,0,triangle,hexagon,,,,,,,,,,,,,,,,,,,,,,,,,,,,,,,,,,,,,,,,,,,,,,,,,,,,,,
297232,2022-12-05_12h25.08.379,vts_reward_expectancy_bt,2022.2.4,Win32,59.05628064,Chrome,1368,912,,,l,0.9544,10,347,1,2,7,31,0,1,1,0,0,0,0,1,0,0,triangle,circle,,,,,,,,,,,,,,,,,,,,,,,,,,,,,,,,,,,,,,,,,,,,,,,,,,,,,,
297232,2022-12-05_12h25.08.379,vts_reward_expectancy_bt,2022.2.4,Win32,59.05628064,Chrome,1368,912,,,a,1.1883,1,348,1,2,8,32,5,1,0,1,0,0,0,0,0,1,circle,star,,,,,,,,,,,,,,,,,,,,,,,,,,,,,,,,,,,,,,,,,,,,,,,,,,,,,,
297232,2022-12-05_12h25.08.379,vts_reward_expectancy_bt,2022.2.4,Win32,59.05628064,Chrome,1368,912,,,l,0.8352,1,349,1,2,9,33,11,1,0,0,0,1,0,0,1,0,star,hexagon,,,,,,,,,,,,,,,,,,,,,,,,,,,,,,,,,,,,,,,,,,,,,,,,,,,,,,
297232,2022-12-05_12h25.08.379,vts_reward_expectancy_bt,2022.2.4,Win32,59.05628064,Chrome,1368,912,,,a,0.3885,10,359,1,2,10,34,9,1,0,0,0,1,1,0,0,0,star,triangle,,,,,,,,,,,,,,,,,,,,,,,,,,,,,,,,,,,,,,,,,,,,,,,,,,,,,,
297232,2022-12-05_12h25.08.379,vts_reward_expectancy_bt,2022.2.4,Win32,59.05628064,Chrome,1368,912,,,a,0.6388,10,369,1,2,11,35,6,1,0,0,1,0,1,0,0,0,hexagon,triangle,,,,,,,,,,,,,,,,,,,,,,,,,,,,,,,,,,,,,,,,,,,,,,,,,,,,,,
297232,2022-12-05_12h25.08.379,vts_reward_expectancy_bt,2022.2.4,Win32,59.05628064,Chrome,1368,912,,,a,0.6909,10,379,2,0,0,0,10,1,0,0,0,1,0,1,0,0,star ,circle,,,,,,,,,,,,,,,,,,,,,,,,,,,,,,,,,,,,,,,,,,,,,,,,,,,,,,
297232,2022-12-05_12h25.08.379,vts_reward_expectancy_bt,2022.2.4,Win32,59.05628064,Chrome,1368,912,,,l,0.4948,1,380,2,0,1,1,4,1,0,1,0,0,0,0,1,0,circle,hexagon,,,,,,,,,,,,,,,,,,,,,,,,,,,,,,,,,,,,,,,,,,,,,,,,,,,,,,
297232,2022-12-05_12h25.08.379,vts_reward_expectancy_bt,2022.2.4,Win32,59.05628064,Chrome,1368,912,,,l,0.5843,1,381,2,0,2,2,1,1,1,0,0,0,0,0,1,0,triangle,hexagon,,,,,,,,,,,,,,,,,,,,,,,,,,,,,,,,,,,,,,,,,,,,,,,,,,,,,,
297232,2022-12-05_12h25.08.379,vts_reward_expectancy_bt,2022.2.4,Win32,59.05628064,Chrome,1368,912,,,a,0.4014,1,382,2,0,3,3,6,1,0,0,1,0,1,0,0,0,hexagon,triangle,,,,,,,,,,,,,,,,,,,,,,,,,,,,,,,,,,,,,,,,,,,,,,,,,,,,,,
297232,2022-12-05_12h25.08.379,vts_reward_expectancy_bt,2022.2.4,Win32,59.05628064,Chrome,1368,912,,,l,0.5027,10,392,2,0,4,4,9,1,0,0,0,1,1,0,0,0,star,triangle,,,,,,,,,,,,,,,,,,,,,,,,,,,,,,,,,,,,,,,,,,,,,,,,,,,,,,
297232,2022-12-05_12h25.08.379,vts_reward_expectancy_bt,2022.2.4,Win32,59.05628064,Chrome,1368,912,,,l,0.4666,1,393,2,0,5,5,8,1,0,0,1,0,0,0,0,1,hexagon,star,,,,,,,,,,,,,,,,,,,,,,,,,,,,,,,,,,,,,,,,,,,,,,,,,,,,,,
297232,2022-12-05_12h25.08.379,vts_reward_expectancy_bt,2022.2.4,Win32,59.05628064,Chrome,1368,912,,,a,0.6876,1,394,2,0,6,6,7,1,0,0,1,0,0,1,0,0,hexagon,circle,,,,,,,,,,,,,,,,,,,,,,,,,,,,,,,,,,,,,,,,,,,,,,,,,,,,,,
297232,2022-12-05_12h25.08.379,vts_reward_expectancy_bt,2022.2.4,Win32,59.05628064,Chrome,1368,912,,,l,0.6522,1,395,2,0,7,7,0,1,1,0,0,0,0,1,0,0,triangle,circle,,,,,,,,,,,,,,,,,,,,,,,,,,,,,,,,,,,,,,,,,,,,,,,,,,,,,,
297232,2022-12-05_12h25.08.379,vts_reward_expectancy_bt,2022.2.4,Win32,59.05628064,Chrome,1368,912,,,a,0.6512,1,396,2,0,8,8,11,1,0,0,0,1,0,0,1,0,star,hexagon,,,,,,,,,,,,,,,,,,,,,,,,,,,,,,,,,,,,,,,,,,,,,,,,,,,,,,
297232,2022-12-05_12h25.08.379,vts_reward_expectancy_bt,2022.2.4,Win32,59.05628064,Chrome,1368,912,,,l,0.485,1,397,2,0,9,9,2,1,1,0,0,0,0,0,0,1,triangle,star,,,,,,,,,,,,,,,,,,,,,,,,,,,,,,,,,,,,,,,,,,,,,,,,,,,,,,
297232,2022-12-05_12h25.08.379,vts_reward_expectancy_bt,2022.2.4,Win32,59.05628064,Chrome,1368,912,,,l,0.4666,1,398,2,0,10,10,3,1,0,1,0,0,1,0,0,0,circle,triangle,,,,,,,,,,,,,,,,,,,,,,,,,,,,,,,,,,,,,,,,,,,,,,,,,,,,,,
297232,2022-12-05_12h25.08.379,vts_reward_expectancy_bt,2022.2.4,Win32,59.05628064,Chrome,1368,912,,,a,0.4001,1,399,2,0,11,11,5,1,0,1,0,0,0,0,0,1,circle,star,,,,,,,,,,,,,,,,,,,,,,,,,,,,,,,,,,,,,,,,,,,,,,,,,,,,,,
297232,2022-12-05_12h25.08.379,vts_reward_expectancy_bt,2022.2.4,Win32,59.05628064,Chrome,1368,912,,,l,0.9851,1,400,2,1,0,12,0,1,1,0,0,0,0,1,0,0,triangle,circle,,,,,,,,,,,,,,,,,,,,,,,,,,,,,,,,,,,,,,,,,,,,,,,,,,,,,,
297232,2022-12-05_12h25.08.379,vts_reward_expectancy_bt,2022.2.4,Win32,59.05628064,Chrome,1368,912,,,a,0.6676,10,410,2,1,1,13,6,1,0,0,1,0,1,0,0,0,hexagon,triangle,,,,,,,,,,,,,,,,,,,,,,,,,,,,,,,,,,,,,,,,,,,,,,,,,,,,,,
297232,2022-12-05_12h25.08.379,vts_reward_expectancy_bt,2022.2.4,Win32,59.05628064,Chrome,1368,912,,,a,0.7867,10,420,2,1,2,14,8,1,0,0,1,0,0,0,0,1,hexagon,star,,,,,,,,,,,,,,,,,,,,,,,,,,,,,,,,,,,,,,,,,,,,,,,,,,,,,,
297232,2022-12-05_12h25.08.379,vts_reward_expectancy_bt,2022.2.4,Win32,59.05628064,Chrome,1368,912,,,a,1.2182,10,430,2,1,3,15,5,1,0,1,0,0,0,0,0,1,circle,star,,,,,,,,,,,,,,,,,,,,,,,,,,,,,,,,,,,,,,,,,,,,,,,,,,,,,,
297232,2022-12-05_12h25.08.379,vts_reward_expectancy_bt,2022.2.4,Win32,59.05628064,Chrome,1368,912,,,a,2.5032,10,440,2,1,4,16,9,1,0,0,0,1,1,0,0,0,star,triangle,,,,,,,,,,,,,,,,,,,,,,,,,,,,,,,,,,,,,,,,,,,,,,,,,,,,,,
297232,2022-12-05_12h25.08.379,vts_reward_expectancy_bt,2022.2.4,Win32,59.05628064,Chrome,1368,912,,,a,1.2863,10,450,2,1,5,17,3,1,0,1,0,0,1,0,0,0,circle,triangle,,,,,,,,,,,,,,,,,,,,,,,,,,,,,,,,,,,,,,,,,,,,,,,,,,,,,,
297232,2022-12-05_12h25.08.379,vts_reward_expectancy_bt,2022.2.4,Win32,59.05628064,Chrome,1368,912,,,a,3.4382,10,460,2,1,6,18,10,1,0,0,0,1,0,1,0,0,star ,circle,,,,,,,,,,,,,,,,,,,,,,,,,,,,,,,,,,,,,,,,,,,,,,,,,,,,,,
297232,2022-12-05_12h25.08.379,vts_reward_expectancy_bt,2022.2.4,Win32,59.05628064,Chrome,1368,912,,,a,3.4322,1,461,2,1,7,19,2,1,1,0,0,0,0,0,0,1,triangle,star,,,,,,,,,,,,,,,,,,,,,,,,,,,,,,,,,,,,,,,,,,,,,,,,,,,,,,
297232,2022-12-05_12h25.08.379,vts_reward_expectancy_bt,2022.2.4,Win32,59.05628064,Chrome,1368,912,,,a,2.7385,1,462,2,1,8,20,11,1,0,0,0,1,0,0,1,0,star,hexagon,,,,,,,,,,,,,,,,,,,,,,,,,,,,,,,,,,,,,,,,,,,,,,,,,,,,,,
297232,2022-12-05_12h25.08.379,vts_reward_expectancy_bt,2022.2.4,Win32,59.05628064,Chrome,1368,912,,,l,2.4035,1,463,2,1,9,21,4,1,0,1,0,0,0,0,1,0,circle,hexagon,,,,,,,,,,,,,,,,,,,,,,,,,,,,,,,,,,,,,,,,,,,,,,,,,,,,,,
297232,2022-12-05_12h25.08.379,vts_reward_expectancy_bt,2022.2.4,Win32,59.05628064,Chrome,1368,912,,,a,0.4215,1,464,2,1,10,22,7,1,0,0,1,0,0,1,0,0,hexagon,circle,,,,,,,,,,,,,,,,,,,,,,,,,,,,,,,,,,,,,,,,,,,,,,,,,,,,,,
297232,2022-12-05_12h25.08.379,vts_reward_expectancy_bt,2022.2.4,Win32,59.05628064,Chrome,1368,912,,,l,0.5446,10,474,2,1,11,23,1,1,1,0,0,0,0,0,1,0,triangle,hexagon,,,,,,,,,,,,,,,,,,,,,,,,,,,,,,,,,,,,,,,,,,,,,,,,,,,,,,
297232,2022-12-05_12h25.08.379,vts_reward_expectancy_bt,2022.2.4,Win32,59.05628064,Chrome,1368,912,,,a,0.4344,1,475,2,2,0,24,0,1,1,0,0,0,0,1,0,0,triangle,circle,,,,,,,,,,,,,,,,,,,,,,,,,,,,,,,,,,,,,,,,,,,,,,,,,,,,,,
297232,2022-12-05_12h25.08.379,vts_reward_expectancy_bt,2022.2.4,Win32,59.05628064,Chrome,1368,912,,,l,0.5382,10,485,2,2,1,25,8,1,0,0,1,0,0,0,0,1,hexagon,star,,,,,,,,,,,,,,,,,,,,,,,,,,,,,,,,,,,,,,,,,,,,,,,,,,,,,,
297232,2022-12-05_12h25.08.379,vts_reward_expectancy_bt,2022.2.4,Win32,59.05628064,Chrome,1368,912,,,a,0.4911,1,486,2,2,2,26,9,1,0,0,0,1,1,0,0,0,star,triangle,,,,,,,,,,,,,,,,,,,,,,,,,,,,,,,,,,,,,,,,,,,,,,,,,,,,,,
297232,2022-12-05_12h25.08.379,vts_reward_expectancy_bt,2022.2.4,Win32,59.05628064,Chrome,1368,912,,,a,0.6104,1,487,2,2,3,27,3,1,0,1,0,0,1,0,0,0,circle,triangle,,,,,,,,,,,,,,,,,,,,,,,,,,,,,,,,,,,,,,,,,,,,,,,,,,,,,,
297232,2022-12-05_12h25.08.379,vts_reward_expectancy_bt,2022.2.4,Win32,59.05628064,Chrome,1368,912,,,l,0.3131,1,488,2,2,4,28,2,1,1,0,0,0,0,0,0,1,triangle,star,,,,,,,,,,,,,,,,,,,,,,,,,,,,,,,,,,,,,,,,,,,,,,,,,,,,,,
297232,2022-12-05_12h25.08.379,vts_reward_expectancy_bt,2022.2.4,Win32,59.05628064,Chrome,1368,912,,,a,0.0613,1,489,2,2,5,29,10,1,0,0,0,1,0,1,0,0,star ,circle,,,,,,,,,,,,,,,,,,,,,,,,,,,,,,,,,,,,,,,,,,,,,,,,,,,,,,
297232,2022-12-05_12h25.08.379,vts_reward_expectancy_bt,2022.2.4,Win32,59.05628064,Chrome,1368,912,,,a,0.394,1,490,2,2,6,30,5,1,0,1,0,0,0,0,0,1,circle,star,,,,,,,,,,,,,,,,,,,,,,,,,,,,,,,,,,,,,,,,,,,,,,,,,,,,,,
297232,2022-12-05_12h25.08.379,vts_reward_expectancy_bt,2022.2.4,Win32,59.05628064,Chrome,1368,912,,,l,0.2773,10,500,2,2,7,31,7,1,0,0,1,0,0,1,0,0,hexagon,circle,,,,,,,,,,,,,,,,,,,,,,,,,,,,,,,,,,,,,,,,,,,,,,,,,,,,,,
297232,2022-12-05_12h25.08.379,vts_reward_expectancy_bt,2022.2.4,Win32,59.05628064,Chrome,1368,912,,,l,0.3883,1,501,2,2,8,32,1,1,1,0,0,0,0,0,1,0,triangle,hexagon,,,,,,,,,,,,,,,,,,,,,,,,,,,,,,,,,,,,,,,,,,,,,,,,,,,,,,
297232,2022-12-05_12h25.08.379,vts_reward_expectancy_bt,2022.2.4,Win32,59.05628064,Chrome,1368,912,,,a,0.2507,1,502,2,2,9,33,4,1,0,1,0,0,0,0,1,0,circle,hexagon,,,,,,,,,,,,,,,,,,,,,,,,,,,,,,,,,,,,,,,,,,,,,,,,,,,,,,
297232,2022-12-05_12h25.08.379,vts_reward_expectancy_bt,2022.2.4,Win32,59.05628064,Chrome,1368,912,,,l,0.3348,1,503,2,2,10,34,11,1,0,0,0,1,0,0,1,0,star,hexagon,,,,,,,,,,,,,,,,,,,,,,,,,,,,,,,,,,,,,,,,,,,,,,,,,,,,,,
297232,2022-12-05_12h25.08.379,vts_reward_expectancy_bt,2022.2.4,Win32,59.05628064,Chrome,1368,912,,,a,0.4842,10,513,2,2,11,35,6,1,0,0,1,0,1,0,0,0,hexagon,triangle,,,,,,,,,,,,,,,,,,,,,,,,,,,,,,,,,,,,,,,,,,,,,,,,,,,,,,
297232,2022-12-05_12h25.08.379,vts_reward_expectancy_bt,2022.2.4,Win32,59.05628064,Chrome,1368,912,,,,,,,,,,,,,,,,,,,,,,,W,132,circle,0,0,d,1.0024,0,0,0,0,0,1,,,,,,,,,,,,,,,,,,,,,,,,,,,,,,,,,,,,,,,,,
297232,2022-12-05_12h25.08.379,vts_reward_expectancy_bt,2022.2.4,Win32,59.05628064,Chrome,1368,912,,,,,,,,,,,,,,,,,,,,,,,D,160,star,0,1,f,0.4671,0,1,0,1,0,1,,,,,,,,,,,,,,,,,,,,,,,,,,,,,,,,,,,,,,,,,
297232,2022-12-05_12h25.08.379,vts_reward_expectancy_bt,2022.2.4,Win32,59.05628064,Chrome,1368,912,,,,,,,,,,,,,,,,,,,,,,,H,167,triangle,1,1,d,0.7511,0,2,0,2,0,1,,,,,,,,,,,,,,,,,,,,,,,,,,,,,,,,,,,,,,,,,
297232,2022-12-05_12h25.08.379,vts_reward_expectancy_bt,2022.2.4,Win32,59.05628064,Chrome,1368,912,,,,,,,,,,,,,,,,,,,,,,,Y,139,hexagon,1,0,f,0.6506,0,3,0,3,0,1,,,,,,,,,,,,,,,,,,,,,,,,,,,,,,,,,,,,,,,,,
297232,2022-12-05_12h25.08.379,vts_reward_expectancy_bt,2022.2.4,Win32,59.05628064,Chrome,1368,912,,,,,,,,,,,,,,,,,,,,,,,F,146,circle,1,0,d,0.7189,0,4,0,4,0,1,,,,,,,,,,,,,,,,,,,,,,,,,,,,,,,,,,,,,,,,,
297232,2022-12-05_12h25.08.379,vts_reward_expectancy_bt,2022.2.4,Win32,59.05628064,Chrome,1368,912,,,,,,,,,,,,,,,,,,,,,,,U,174,star,0,0,d,0.8002,0,5,0,5,0,1,,,,,,,,,,,,,,,,,,,,,,,,,,,,,,,,,,,,,,,,,
297232,2022-12-05_12h25.08.379,vts_reward_expectancy_bt,2022.2.4,Win32,59.05628064,Chrome,1368,912,,,,,,,,,,,,,,,,,,,,,,,S,125,triangle,1,1,f,0.634,0,6,0,6,0,1,,,,,,,,,,,,,,,,,,,,,,,,,,,,,,,,,,,,,,,,,
297232,2022-12-05_12h25.08.379,vts_reward_expectancy_bt,2022.2.4,Win32,59.05628064,Chrome,1368,912,,,,,,,,,,,,,,,,,,,,,,,B,181,hexagon,1,0,d,0.6843,0,7,0,7,0,1,,,,,,,,,,,,,,,,,,,,,,,,,,,,,,,,,,,,,,,,,
297232,2022-12-05_12h25.08.379,vts_reward_expectancy_bt,2022.2.4,Win32,59.05628064,Chrome,1368,912,,,,,,,,,,,,,,,,,,,,,,,W,132,star,1,0,f,0.5014,0,8,0,8,0,1,,,,,,,,,,,,,,,,,,,,,,,,,,,,,,,,,,,,,,,,,
297232,2022-12-05_12h25.08.379,vts_reward_expectancy_bt,2022.2.4,Win32,59.05628064,Chrome,1368,912,,,,,,,,,,,,,,,,,,,,,,,D,160,triangle,1,0,d,0.5891,0,9,0,9,0,1,,,,,,,,,,,,,,,,,,,,,,,,,,,,,,,,,,,,,,,,,
297232,2022-12-05_12h25.08.379,vts_reward_expectancy_bt,2022.2.4,Win32,59.05628064,Chrome,1368,912,,,,,,,,,,,,,,,,,,,,,,,U,146,hexagon,1,0,f,0.6166,1,0,0,0,0,1,,,,,,,,,,,,,,,,,,,,,,,,,,,,,,,,,,,,,,,,,
297232,2022-12-05_12h25.08.379,vts_reward_expectancy_bt,2022.2.4,Win32,59.05628064,Chrome,1368,912,,,,,,,,,,,,,,,,,,,,,,,B,125,circle,1,0,d,0.5169,1,1,0,1,0,1,,,,,,,,,,,,,,,,,,,,,,,,,,,,,,,,,,,,,,,,,
297232,2022-12-05_12h25.08.379,vts_reward_expectancy_bt,2022.2.4,Win32,59.05628064,Chrome,1368,912,,,,,,,,,,,,,,,,,,,,,,,H,160,triangle,0,0,f,0.6164,1,2,0,2,0,1,,,,,,,,,,,,,,,,,,,,,,,,,,,,,,,,,,,,,,,,,
297232,2022-12-05_12h25.08.379,vts_reward_expectancy_bt,2022.2.4,Win32,59.05628064,Chrome,1368,912,,,,,,,,,,,,,,,,,,,,,,,W,181,star,1,1,f,0.6826,1,3,0,3,0,1,,,,,,,,,,,,,,,,,,,,,,,,,,,,,,,,,,,,,,,,,
297232,2022-12-05_12h25.08.379,vts_reward_expectancy_bt,2022.2.4,Win32,59.05628064,Chrome,1368,912,,,,,,,,,,,,,,,,,,,,,,,D,139,hexagon,1,0,d,0.516,1,4,0,4,0,1,,,,,,,,,,,,,,,,,,,,,,,,,,,,,,,,,,,,,,,,,
297232,2022-12-05_12h25.08.379,vts_reward_expectancy_bt,2022.2.4,Win32,59.05628064,Chrome,1368,912,,,,,,,,,,,,,,,,,,,,,,,S,167,circle,1,0,f,1.133,1,5,0,5,0,1,,,,,,,,,,,,,,,,,,,,,,,,,,,,,,,,,,,,,,,,,
297232,2022-12-05_12h25.08.379,vts_reward_expectancy_bt,2022.2.4,Win32,59.05628064,Chrome,1368,912,,,,,,,,,,,,,,,,,,,,,,,Y,174,triangle,1,0,f,0.6831,1,6,0,6,0,1,,,,,,,,,,,,,,,,,,,,,,,,,,,,,,,,,,,,,,,,,
297232,2022-12-05_12h25.08.379,vts_reward_expectancy_bt,2022.2.4,Win32,59.05628064,Chrome,1368,912,,,,,,,,,,,,,,,,,,,,,,,F,132,star,1,0,d,1.1997,1,7,0,7,0,1,,,,,,,,,,,,,,,,,,,,,,,,,,,,,,,,,,,,,,,,,
297232,2022-12-05_12h25.08.379,vts_reward_expectancy_bt,2022.2.4,Win32,59.05628064,Chrome,1368,912,,,,,,,,,,,,,,,,,,,,,,,U,146,hexagon,1,0,f,0.9841,1,8,0,8,0,1,,,,,,,,,,,,,,,,,,,,,,,,,,,,,,,,,,,,,,,,,
297232,2022-12-05_12h25.08.379,vts_reward_expectancy_bt,2022.2.4,Win32,59.05628064,Chrome,1368,912,,,,,,,,,,,,,,,,,,,,,,,B,125,star,1,0,d,0.683,1,9,0,9,0,1,,,,,,,,,,,,,,,,,,,,,,,,,,,,,,,,,,,,,,,,,
297232,2022-12-05_12h25.08.379,vts_reward_expectancy_bt,2022.2.4,Win32,59.05628064,Chrome,1368,912,,,,,,,,,,,,,,,,,,,,,,,B,139,hexagon,1,0,,,2,,,,,,j,0.7504,0,0,0,0,1,,,,,,,,,,,,,,,,,,,,,,,,,,,,,,,,,,
297232,2022-12-05_12h25.08.379,vts_reward_expectancy_bt,2022.2.4,Win32,59.05628064,Chrome,1368,912,,,,,,,,,,,,,,,,,,,,,,,U,146,triangle,1,0,,,2,,,,,,j,0.9826,1,0,1,0,1,,,,,,,,,,,,,,,,,,,,,,,,,,,,,,,,,,
297232,2022-12-05_12h25.08.379,vts_reward_expectancy_bt,2022.2.4,Win32,59.05628064,Chrome,1368,912,,,,,,,,,,,,,,,,,,,,,,,Y,160,circle,1,0,,,2,,,,,,k,0.4848,2,0,2,0,1,,,,,,,,,,,,,,,,,,,,,,,,,,,,,,,,,,
297232,2022-12-05_12h25.08.379,vts_reward_expectancy_bt,2022.2.4,Win32,59.05628064,Chrome,1368,912,,,,,,,,,,,,,,,,,,,,,,,W,181,star,1,0,,,2,,,,,,k,0.6669,3,0,3,0,1,,,,,,,,,,,,,,,,,,,,,,,,,,,,,,,,,,
297232,2022-12-05_12h25.08.379,vts_reward_expectancy_bt,2022.2.4,Win32,59.05628064,Chrome,1368,912,,,,,,,,,,,,,,,,,,,,,,,H,167,hexagon,1,0,,,2,,,,,,k,1.0828,4,0,4,0,1,,,,,,,,,,,,,,,,,,,,,,,,,,,,,,,,,,
297232,2022-12-05_12h25.08.379,vts_reward_expectancy_bt,2022.2.4,Win32,59.05628064,Chrome,1368,912,,,,,,,,,,,,,,,,,,,,,,,F,125,triangle,1,0,,,2,,,,,,j,0.6506,5,0,5,0,1,,,,,,,,,,,,,,,,,,,,,,,,,,,,,,,,,,
297232,2022-12-05_12h25.08.379,vts_reward_expectancy_bt,2022.2.4,Win32,59.05628064,Chrome,1368,912,,,,,,,,,,,,,,,,,,,,,,,S,132,circle,1,0,,,2,,,,,,j,0.5832,6,0,6,0,1,,,,,,,,,,,,,,,,,,,,,,,,,,,,,,,,,,
297232,2022-12-05_12h25.08.379,vts_reward_expectancy_bt,2022.2.4,Win32,59.05628064,Chrome,1368,912,,,,,,,,,,,,,,,,,,,,,,,D,174,star,1,0,,,2,,,,,,k,0.9994,7,0,7,0,1,,,,,,,,,,,,,,,,,,,,,,,,,,,,,,,,,,
297232,2022-12-05_12h25.08.379,vts_reward_expectancy_bt,2022.2.4,Win32,59.05628064,Chrome,1368,912,,,,,,,,,,,,,,,,,,,,,,,B,139,star,1,0,,,2,,,,,,j,0.8665,8,0,8,0,1,,,,,,,,,,,,,,,,,,,,,,,,,,,,,,,,,,
297232,2022-12-05_12h25.08.379,vts_reward_expectancy_bt,2022.2.4,Win32,59.05628064,Chrome,1368,912,,,,,,,,,,,,,,,,,,,,,,,U,146,triangle,0,0,,,2,,,,,,k,1.0991,9,0,9,0,1,,,,,,,,,,,,,,,,,,,,,,,,,,,,,,,,,,
297232,2022-12-05_12h25.08.379,vts_reward_expectancy_bt,2022.2.4,Win32,59.05628064,Chrome,1368,912,,,,,0,513,,,,,,,,,,,,,,,,,H,174,circle,1,1,,,3,,,,,,,,,,,,,-1,letter,NA,d,0.8699,vtsPrac,0,0,0,0,1,,,,,,,,,,,,,,,,,,,,,,,
297232,2022-12-05_12h25.08.379,vts_reward_expectancy_bt,2022.2.4,Win32,59.05628064,Chrome,1368,912,,,,,0,513,,,,,,,,,,,,,,,,,W,167,star,0,0,,,3,,,,,,,,,,,,,repeat,letter,NA,d,0.001,vtsPrac,1,0,1,0,1,,,,,,,,,,,,,,,,,,,,,,,
297232,2022-12-05_12h25.08.379,vts_reward_expectancy_bt,2022.2.4,Win32,59.05628064,Chrome,1368,912,,,,,0,513,,,,,,,,,,,,,,,,,B,125,circle,1,1,,,3,,,,,,,,,,,,,switch,number,numSwt,j,1.0351,vtsPrac,2,0,2,0,1,,,,,,,,,,,,,,,,,,,,,,,
297232,2022-12-05_12h25.08.379,vts_reward_expectancy_bt,2022.2.4,Win32,59.05628064,Chrome,1368,912,,,,,0,513,,,,,,,,,,,,,,,,,U,160,star,1,0,,,3,,,,,,,,,,,,,repeat,number,numRpt,k,0.9526,vtsPrac,3,0,3,0,1,,,,,,,,,,,,,,,,,,,,,,,
297232,2022-12-05_12h25.08.379,vts_reward_expectancy_bt,2022.2.4,Win32,59.05628064,Chrome,1368,912,,,,,0,513,,,,,,,,,,,,,,,,,H,174,hexagon,1,0,,,3,,,,,,,,,,,,,switch,letter,lettSwt,d,0.7855,vtsPrac,4,0,4,0,1,,,,,,,,,,,,,,,,,,,,,,,
297232,2022-12-05_12h25.08.379,vts_reward_expectancy_bt,2022.2.4,Win32,59.05628064,Chrome,1368,912,,,,,0,513,,,,,,,,,,,,,,,,,W,167,triangle,1,0,,,3,,,,,,,,,,,,,repeat,letter,lettRpt,f,1.1343,vtsPrac,5,0,5,0,1,,,,,,,,,,,,,,,,,,,,,,,
297232,2022-12-05_12h25.08.379,vts_reward_expectancy_bt,2022.2.4,Win32,59.05628064,Chrome,1368,912,,,,,0,513,,,,,,,,,,,,,,,,,B,125,hexagon,1,0,,,3,,,,,,,,,,,,,repeat,letter,lettRpt,d,1.0175,vtsPrac,6,0,6,0,1,,,,,,,,,,,,,,,,,,,,,,,
297232,2022-12-05_12h25.08.379,vts_reward_expectancy_bt,2022.2.4,Win32,59.05628064,Chrome,1368,912,,,,,0,513,,,,,,,,,,,,,,,,,U,160,triangle,1,0,,,3,,,,,,,,,,,,,repeat,letter,lettRpt,f,1.9685,vtsPrac,7,0,7,0,1,,,,,,,,,,,,,,,,,,,,,,,
297232,2022-12-05_12h25.08.379,vts_reward_expectancy_bt,2022.2.4,Win32,59.05628064,Chrome,1368,912,,,,,0,513,,,,,,,,,,,,,,,,,U,132,star,0,0,,,3,,,,,,,,,,,,,switch,number,NA,k,0.8966,vtsPrac,8,0,8,0,1,,,,,,,,,,,,,,,,,,,,,,,
297232,2022-12-05_12h25.08.379,vts_reward_expectancy_bt,2022.2.4,Win32,59.05628064,Chrome,1368,912,,,,,0,513,,,,,,,,,,,,,,,,,Y,167,triangle,1,1,,,3,,,,,,,,,,,,,switch,letter,lettSwt,f,0.7358,vtsPrac,9,0,9,0,1,,,,,,,,,,,,,,,,,,,,,,,
297232,2022-12-05_12h25.08.379,vts_reward_expectancy_bt,2022.2.4,Win32,59.05628064,Chrome,1368,912,,,,,0,513,,,,,,,,,,,,,,,,,S,146,circle,1,0,,,3,,,,,,,,,,,,,repeat,letter,lettRpt,f,1.6508,vtsPrac,10,0,10,0,1,,,,,,,,,,,,,,,,,,,,,,,
297232,2022-12-05_12h25.08.379,vts_reward_expectancy_bt,2022.2.4,Win32,59.05628064,Chrome,1368,912,,,,,0,513,,,,,,,,,,,,,,,,,F,160,star,1,0,,,3,,,,,,,,,,,,,repeat,letter,lettRpt,d,1.5366,vtsPrac,11,0,11,0,1,,,,,,,,,,,,,,,,,,,,,,,
297232,2022-12-05_12h25.08.379,vts_reward_expectancy_bt,2022.2.4,Win32,59.05628064,Chrome,1368,912,,,,,0,513,,,,,,,,,,,,,,,,,W,160,circle,1,0,,,3,,,,,,,,,,,,,repeat,letter,lettRpt,f,2.1684,vtsPrac,12,0,12,0,1,,,,,,,,,,,,,,,,,,,,,,,
297232,2022-12-05_12h25.08.379,vts_reward_expectancy_bt,2022.2.4,Win32,59.05628064,Chrome,1368,912,,,,,0,513,,,,,,,,,,,,,,,,,S,174,triangle,1,0,,,3,,,,,,,,,,,,,switch,number,numSwt,k,1.2019,vtsPrac,13,0,13,0,1,,,,,,,,,,,,,,,,,,,,,,,
297232,2022-12-05_12h25.08.379,vts_reward_expectancy_bt,2022.2.4,Win32,59.05628064,Chrome,1368,912,,,,,0,513,,,,,,,,,,,,,,,,,U,132,circle,1,0,,,3,,,,,,,,,,,,,repeat,number,numRpt,j,0.7345,vtsPrac,14,0,14,0,1,,,,,,,,,,,,,,,,,,,,,,,
297232,2022-12-05_12h25.08.379,vts_reward_expectancy_bt,2022.2.4,Win32,59.05628064,Chrome,1368,912,,,,,0,513,,,,,,,,,,,,,,,,,F,181,hexagon,1,0,,,3,,,,,,,,,,,,,switch,letter,lettSwt,d,0.92,vtsPrac,15,0,15,0,1,,,,,,,,,,,,,,,,,,,,,,,
297232,2022-12-05_12h25.08.379,vts_reward_expectancy_bt,2022.2.4,Win32,59.05628064,Chrome,1368,912,,,,,0,513,,,,,,,,,,,,,,,,,Y,132,star,1,0,,,3,,,,,,,,,,,,,switch,number,numSwt,j,0.7507,vtsPrac,16,0,16,0,1,,,,,,,,,,,,,,,,,,,,,,,
297232,2022-12-05_12h25.08.379,vts_reward_expectancy_bt,2022.2.4,Win32,59.05628064,Chrome,1368,912,,,,,0,513,,,,,,,,,,,,,,,,,U,146,triangle,1,0,,,3,,,,,,,,,,,,,repeat,number,numRpt,j,0.8175,vtsPrac,17,0,17,0,1,,,,,,,,,,,,,,,,,,,,,,,
297232,2022-12-05_12h25.08.379,vts_reward_expectancy_bt,2022.2.4,Win32,59.05628064,Chrome,1368,912,,,,,0,513,,,,,,,,,,,,,,,,,D,174,circle,1,0,,,3,,,,,,,,,,,,,repeat,number,numRpt,k,0.8707,vtsPrac,18,0,18,0,1,,,,,,,,,,,,,,,,,,,,,,,
297232,2022-12-05_12h25.08.379,vts_reward_expectancy_bt,2022.2.4,Win32,59.05628064,Chrome,1368,912,,,,,0,513,,,,,,,,,,,,,,,,,F,167,triangle,1,0,,,3,,,,,,,,,,,,,switch,letter,lettSwt,d,1.3679,vtsPrac,19,0,19,0,1,,,,,,,,,,,,,,,,,,,,,,,
297232,2022-12-05_12h25.08.379,vts_reward_expectancy_bt,2022.2.4,Win32,59.05628064,Chrome,1368,912,,,,,0,513,,,,,,,,,,,,,,,,,S,167,circle,1,0,,,3,,,,,,,,,,,,,switch,number,numSwt,k,1.7736,vtsPrac,20,0,20,0,1,,,,,,,,,,,,,,,,,,,,,,,
297232,2022-12-05_12h25.08.379,vts_reward_expectancy_bt,2022.2.4,Win32,59.05628064,Chrome,1368,912,,,,,0,513,,,,,,,,,,,,,,,,,F,132,hexagon,1,0,,,3,,,,,,,,,,,,,repeat,number,numRpt,j,1.3517,vtsPrac,21,0,21,0,1,,,,,,,,,,,,,,,,,,,,,,,
297232,2022-12-05_12h25.08.379,vts_reward_expectancy_bt,2022.2.4,Win32,59.05628064,Chrome,1368,912,,,,,0,513,,,,,,,,,,,,,,,,,H,146,hexagon,1,0,,,3,,,,,,,,,,,,,switch,letter,lettSwt,d,1.2354,vtsPrac,22,0,22,0,1,,,,,,,,,,,,,,,,,,,,,,,
297232,2022-12-05_12h25.08.379,vts_reward_expectancy_bt,2022.2.4,Win32,59.05628064,Chrome,1368,912,,,,,0,513,,,,,,,,,,,,,,,,,B,125,triangle,1,0,,,3,,,,,,,,,,,,,repeat,letter,lettRpt,d,1.3526,vtsPrac,23,0,23,0,1,,,,,,,,,,,,,,,,,,,,,,,
297232,2022-12-05_12h25.08.379,vts_reward_expectancy_bt,2022.2.4,Win32,59.05628064,Chrome,1368,912,,,,,0,513,,,,,,,,,,,,,,,,,B,160,hexagon,1,0,,,3,,,,,,,,,,,,,repeat,letter,lettRpt,d,0.6852,vtsPrac,24,0,24,0,1,,,,,,,,,,,,,,,,,,,,,,,
297232,2022-12-05_12h25.08.379,vts_reward_expectancy_bt,2022.2.4,Win32,59.05628064,Chrome,1368,912,,,,,0,513,,,,,,,,,,,,,,,,,D,146,triangle,1,0,,,3,,,,,,,,,,,,,repeat,letter,lettRpt,d,1.5681,vtsPrac,25,0,25,0,1,,,,,,,,,,,,,,,,,,,,,,,
297232,2022-12-05_12h25.08.379,vts_reward_expectancy_bt,2022.2.4,Win32,59.05628064,Chrome,1368,912,,,,,0,513,,,,,,,,,,,,,,,,,U,167,triangle,1,0,,,3,,,,,,,,,,,,,switch,number,numSwt,k,1.0843,vtsPrac,26,0,26,0,1,,,,,,,,,,,,,,,,,,,,,,,
297232,2022-12-05_12h25.08.379,vts_reward_expectancy_bt,2022.2.4,Win32,59.05628064,Chrome,1368,912,,,,,0,513,,,,,,,,,,,,,,,,,Y,132,hexagon,1,0,,,3,,,,,,,,,,,,,repeat,number,numRpt,j,1.1186,vtsPrac,27,0,27,0,1,,,,,,,,,,,,,,,,,,,,,,,
297232,2022-12-05_12h25.08.379,vts_reward_expectancy_bt,2022.2.4,Win32,59.05628064,Chrome,1368,912,,,,,0,513,,,,,,,,,,,,,,,,,H,125,triangle,1,0,,,3,,,,,,,,,,,,,repeat,number,numRpt,j,0.6346,vtsPrac,28,0,28,0,1,,,,,,,,,,,,,,,,,,,,,,,
297232,2022-12-05_12h25.08.379,vts_reward_expectancy_bt,2022.2.4,Win32,59.05628064,Chrome,1368,912,,,,,0,513,,,,,,,,,,,,,,,,,W,174,circle,1,0,,,3,,,,,,,,,,,,,repeat,number,numRpt,k,0.8871,vtsPrac,29,0,29,0,1,,,,,,,,,,,,,,,,,,,,,,,
297232,2022-12-05_12h25.08.379,vts_reward_expectancy_bt,2022.2.4,Win32,59.05628064,Chrome,1368,912,,,,,0,513,,,,,,,,,,,,,,,,,U,167,circle,1,0,,,3,,,,,,,,,,,,,repeat,number,numRpt,k,2.2508,vtsPrac,30,0,30,0,1,,,,,,,,,,,,,,,,,,,,,,,
297232,2022-12-05_12h25.08.379,vts_reward_expectancy_bt,2022.2.4,Win32,59.05628064,Chrome,1368,912,,,,,0,513,,,,,,,,,,,,,,,,,Y,160,triangle,1,0,,,3,,,,,,,,,,,,,repeat,number,numRpt,k,1.2173,vtsPrac,31,0,31,0,1,,,,,,,,,,,,,,,,,,,,,,,
297232,2022-12-05_12h25.08.379,vts_reward_expectancy_bt,2022.2.4,Win32,59.05628064,Chrome,1368,912,,,,,,,,,,,,,,,,,,,,,,,,,,,,,,,,,,,,,,,,,,,,,,,,,,,,,,,,,,,,,,,,,,,,,,,,,,,,
297232,2022-12-05_12h25.08.379,vts_reward_expectancy_bt,2022.2.4,Win32,59.05628064,Chrome,1368,912,,,,,,,,,,,,,,,,,,,,,,,,,,,,,,,,,,,,,,,,,,,,,,,,,,,,,,,,,,,,,,,,,,,,,,,,,,,,
297232,2022-12-05_12h25.08.379,vts_reward_expectancy_bt,2022.2.4,Win32,59.05628064,Chrome,1368,912,,,,,0,513,,,,,,,,,,,,,,,,,H,167,star,1,0,,,,,,,,,,,,,,,,switch,letter,lettSwt,d,0.9507,noRew,,,,,,0,0,0,0,0,1,,,,,,,,,,,,,,,,,
297232,2022-12-05_12h25.08.379,vts_reward_expectancy_bt,2022.2.4,Win32,59.05628064,Chrome,1368,912,,,,,0,513,,,,,,,,,,,,,,,,,D,174,hexagon,1,0,,,,,,,,,,,,,,,,repeat,letter,lettRpt,d,0.5822,noRew,,,,,,0,1,0,1,0,1,,,,,,,,,,,,,,,,,
297232,2022-12-05_12h25.08.379,vts_reward_expectancy_bt,2022.2.4,Win32,59.05628064,Chrome,1368,912,,,,,0,513,,,,,,,,,,,,,,,,,W,125,star,0,0,,,,,,,,,,,,,,,,repeat,letter,NA,d,0.5657,noRew,,,,,,0,2,0,2,0,1,,,,,,,,,,,,,,,,,
297232,2022-12-05_12h25.08.379,vts_reward_expectancy_bt,2022.2.4,Win32,59.05628064,Chrome,1368,912,,,,,0,513,,,,,,,,,,,,,,,,,F,160,hexagon,1,1,,,,,,,,,,,,,,,,repeat,letter,lettRpt,d,0.9175,noRew,,,,,,0,3,0,3,0,1,,,,,,,,,,,,,,,,,
297232,2022-12-05_12h25.08.379,vts_reward_expectancy_bt,2022.2.4,Win32,59.05628064,Chrome,1368,912,,,,,0,513,,,,,,,,,,,,,,,,,H,167,star,1,0,,,,,,,,,,,,,,,,repeat,letter,lettRpt,d,0.9337,noRew,,,,,,0,4,0,4,0,1,,,,,,,,,,,,,,,,,
297232,2022-12-05_12h25.08.379,vts_reward_expectancy_bt,2022.2.4,Win32,59.05628064,Chrome,1368,912,,,,,0,513,,,,,,,,,,,,,,,,,D,174,hexagon,1,0,,,,,,,,,,,,,,,,switch,number,numSwt,k,1.1177,noRew,,,,,,0,5,0,5,0,1,,,,,,,,,,,,,,,,,
297232,2022-12-05_12h25.08.379,vts_reward_expectancy_bt,2022.2.4,Win32,59.05628064,Chrome,1368,912,,,,,0,513,,,,,,,,,,,,,,,,,W,125,circle,1,0,,,,,,,,,,,,,,,,repeat,number,numRpt,j,0.5324,noRew,,,,,,0,6,0,6,0,1,,,,,,,,,,,,,,,,,
297232,2022-12-05_12h25.08.379,vts_reward_expectancy_bt,2022.2.4,Win32,59.05628064,Chrome,1368,912,,,,,0,513,,,,,,,,,,,,,,,,,F,160,triangle,0,0,,,,,,,,,,,,,,,,switch,letter,NA,f,0.6508,noRew,,,,,,0,7,0,7,0,1,,,,,,,,,,,,,,,,,
297232,2022-12-05_12h25.08.379,vts_reward_expectancy_bt,2022.2.4,Win32,59.05628064,Chrome,1368,912,,,,,0,513,,,,,,,,,,,,,,,,,F,146,star,1,1,,,,,,,,,,,,,,,,switch,number,numSwt,j,2.3018,noRew,,,,,,0,8,0,8,0,1,,,,,,,,,,,,,,,,,
297232,2022-12-05_12h25.08.379,vts_reward_expectancy_bt,2022.2.4,Win32,59.05628064,Chrome,1368,912,,,,,0,513,,,,,,,,,,,,,,,,,B,139,circle,1,0,,,,,,,,,,,,,,,,switch,letter,lettSwt,d,0.6998,noRew,,,,,,0,9,0,9,0,1,,,,,,,,,,,,,,,,,
297232,2022-12-05_12h25.08.379,vts_reward_expectancy_bt,2022.2.4,Win32,59.05628064,Chrome,1368,912,,,,,0,513,,,,,,,,,,,,,,,,,Y,181,hexagon,1,0,,,,,,,,,,,,,,,,repeat,letter,lettRpt,f,0.6656,noRew,,,,,,0,10,0,10,0,1,,,,,,,,,,,,,,,,,
297232,2022-12-05_12h25.08.379,vts_reward_expectancy_bt,2022.2.4,Win32,59.05628064,Chrome,1368,912,,,,,0,513,,,,,,,,,,,,,,,,,D,160,star,1,0,,,,,,,,,,,,,,,,repeat,letter,lettRpt,d,0.6669,noRew,,,,,,0,11,0,11,0,1,,,,,,,,,,,,,,,,,
297232,2022-12-05_12h25.08.379,vts_reward_expectancy_bt,2022.2.4,Win32,59.05628064,Chrome,1368,912,,,,,0,513,,,,,,,,,,,,,,,,,U,160,hexagon,1,0,,,,,,,,,,,,,,,,repeat,letter,lettRpt,f,0.7171,noRew,,,,,,0,12,0,12,0,1,,,,,,,,,,,,,,,,,
297232,2022-12-05_12h25.08.379,vts_reward_expectancy_bt,2022.2.4,Win32,59.05628064,Chrome,1368,912,,,,,0,513,,,,,,,,,,,,,,,,,W,174,triangle,1,0,,,,,,,,,,,,,,,,switch,number,numSwt,k,0.6665,noRew,,,,,,0,13,0,13,0,1,,,,,,,,,,,,,,,,,
297232,2022-12-05_12h25.08.379,vts_reward_expectancy_bt,2022.2.4,Win32,59.05628064,Chrome,1368,912,,,,,0,513,,,,,,,,,,,,,,,,,F,146,circle,1,0,,,,,,,,,,,,,,,,repeat,number,numRpt,j,1.0665,noRew,,,,,,0,14,0,14,0,1,,,,,,,,,,,,,,,,,
297232,2022-12-05_12h25.08.379,vts_reward_expectancy_bt,2022.2.4,Win32,59.05628064,Chrome,1368,912,,,,,0,513,,,,,,,,,,,,,,,,,H,139,triangle,1,0,,,,,,,,,,,,,,,,repeat,number,numRpt,j,0.6506,noRew,,,,,,0,15,0,15,0,1,,,,,,,,,,,,,,,,,
297232,2022-12-05_12h25.08.379,vts_reward_expectancy_bt,2022.2.4,Win32,59.05628064,Chrome,1368,912,,,,,0,513,,,,,,,,,,,,,,,,,F,132,circle,1,0,,,,,,,,,,,,,,,,repeat,number,numRpt,j,0.9671,noRew,,,,,,0,16,0,16,0,1,,,,,,,,,,,,,,,,,
297232,2022-12-05_12h25.08.379,vts_reward_expectancy_bt,2022.2.4,Win32,59.05628064,Chrome,1368,912,,,,,0,513,,,,,,,,,,,,,,,,,D,167,hexagon,1,0,,,,,,,,,,,,,,,,repeat,number,numRpt,k,1.9866,noRew,,,,,,0,17,0,17,0,1,,,,,,,,,,,,,,,,,
297232,2022-12-05_12h25.08.379,vts_reward_expectancy_bt,2022.2.4,Win32,59.05628064,Chrome,1368,912,,,,,0,513,,,,,,,,,,,,,,,,,B,160,star,1,0,,,,,,,,,,,,,,,,repeat,number,numRpt,k,1.8345,noRew,,,,,,0,18,0,18,0,1,,,,,,,,,,,,,,,,,
297232,2022-12-05_12h25.08.379,vts_reward_expectancy_bt,2022.2.4,Win32,59.05628064,Chrome,1368,912,,,,,0,513,,,,,,,,,,,,,,,,,W,174,triangle,1,0,,,,,,,,,,,,,,,,repeat,number,numRpt,k,1.2155,noRew,,,,,,0,19,0,19,0,1,,,,,,,,,,,,,,,,,
297232,2022-12-05_12h25.08.379,vts_reward_expectancy_bt,2022.2.4,Win32,59.05628064,Chrome,1368,912,,,,,0,513,,,,,,,,,,,,,,,,,W,132,circle,0,0,,,,,,,,,,,,,,,,switch,letter,NA,d,0.967,noRew,,,,,,0,20,0,20,0,1,,,,,,,,,,,,,,,,,
297232,2022-12-05_12h25.08.379,vts_reward_expectancy_bt,2022.2.4,Win32,59.05628064,Chrome,1368,912,,,,,0,513,,,,,,,,,,,,,,,,,S,174,hexagon,1,1,,,,,,,,,,,,,,,,switch,number,numSwt,k,1.6174,noRew,,,,,,0,21,0,21,0,1,,,,,,,,,,,,,,,,,
297232,2022-12-05_12h25.08.379,vts_reward_expectancy_bt,2022.2.4,Win32,59.05628064,Chrome,1368,912,,,,,0,513,,,,,,,,,,,,,,,,,F,139,circle,1,0,,,,,,,,,,,,,,,,repeat,number,numRpt,j,1.0155,noRew,,,,,,0,22,0,22,0,1,,,,,,,,,,,,,,,,,
297232,2022-12-05_12h25.08.379,vts_reward_expectancy_bt,2022.2.4,Win32,59.05628064,Chrome,1368,912,,,,,0,513,,,,,,,,,,,,,,,,,Y,125,triangle,1,0,,,,,,,,,,,,,,,,switch,letter,lettSwt,f,0.6835,noRew,,,,,,0,23,0,23,0,1,,,,,,,,,,,,,,,,,
297232,2022-12-05_12h25.08.379,vts_reward_expectancy_bt,2022.2.4,Win32,59.05628064,Chrome,1368,912,,,,,0,513,,,,,,,,,,,,,,,,,B,160,star,1,0,,,,,,,,,,,,,,,,repeat,letter,lettRpt,d,1.4677,noRew,,,,,,0,24,0,24,0,1,,,,,,,,,,,,,,,,,
297232,2022-12-05_12h25.08.379,vts_reward_expectancy_bt,2022.2.4,Win32,59.05628064,Chrome,1368,912,,,,,0,513,,,,,,,,,,,,,,,,,Y,146,circle,1,0,,,,,,,,,,,,,,,,switch,number,numSwt,j,1.0998,noRew,,,,,,0,25,0,25,0,1,,,,,,,,,,,,,,,,,
297232,2022-12-05_12h25.08.379,vts_reward_expectancy_bt,2022.2.4,Win32,59.05628064,Chrome,1368,912,,,,,0,513,,,,,,,,,,,,,,,,,U,174,hexagon,1,0,,,,,,,,,,,,,,,,repeat,number,numRpt,k,1.5835,noRew,,,,,,0,26,0,26,0,1,,,,,,,,,,,,,,,,,
297232,2022-12-05_12h25.08.379,vts_reward_expectancy_bt,2022.2.4,Win32,59.05628064,Chrome,1368,912,,,,,0,513,,,,,,,,,,,,,,,,,D,132,star,1,0,,,,,,,,,,,,,,,,repeat,number,numRpt,j,0.8489,noRew,,,,,,0,27,0,27,0,1,,,,,,,,,,,,,,,,,
297232,2022-12-05_12h25.08.379,vts_reward_expectancy_bt,2022.2.4,Win32,59.05628064,Chrome,1368,912,,,,,0,513,,,,,,,,,,,,,,,,,H,174,star,1,0,,,,,,,,,,,,,,,,repeat,number,numRpt,k,2.1174,noRew,,,,,,0,28,0,28,0,1,,,,,,,,,,,,,,,,,
297232,2022-12-05_12h25.08.379,vts_reward_expectancy_bt,2022.2.4,Win32,59.05628064,Chrome,1368,912,,,,,0,513,,,,,,,,,,,,,,,,,F,181,circle,1,0,,,,,,,,,,,,,,,,repeat,number,numRpt,k,1.0666,noRew,,,,,,0,29,0,29,0,1,,,,,,,,,,,,,,,,,
297232,2022-12-05_12h25.08.379,vts_reward_expectancy_bt,2022.2.4,Win32,59.05628064,Chrome,1368,912,,,,,0,513,,,,,,,,,,,,,,,,,D,125,hexagon,1,0,,,,,,,,,,,,,,,,repeat,number,numRpt,j,0.9322,noRew,,,,,,0,30,0,30,0,1,,,,,,,,,,,,,,,,,
297232,2022-12-05_12h25.08.379,vts_reward_expectancy_bt,2022.2.4,Win32,59.05628064,Chrome,1368,912,,,,,0,513,,,,,,,,,,,,,,,,,B,167,star,1,0,,,,,,,,,,,,,,,,switch,letter,lettSwt,d,0.819,noRew,,,,,,0,31,0,31,0,1,,,,,,,,,,,,,,,,,
297232,2022-12-05_12h25.08.379,vts_reward_expectancy_bt,2022.2.4,Win32,59.05628064,Chrome,1368,912,,,,,0,513,,,,,,,,,,,,,,,,,W,139,hexagon,0,0,,,,,,,,,,,,,,,,repeat,letter,NA,d,1.3505,noRew,,,,,,0,32,0,32,0,1,,,,,,,,,,,,,,,,,
297232,2022-12-05_12h25.08.379,vts_reward_expectancy_bt,2022.2.4,Win32,59.05628064,Chrome,1368,912,,,,,0,513,,,,,,,,,,,,,,,,,D,181,star,1,1,,,,,,,,,,,,,,,,switch,number,numSwt,k,0.8178,noRew,,,,,,0,33,0,33,0,1,,,,,,,,,,,,,,,,,
297232,2022-12-05_12h25.08.379,vts_reward_expectancy_bt,2022.2.4,Win32,59.05628064,Chrome,1368,912,,,,,0,513,,,,,,,,,,,,,,,,,H,167,circle,1,0,,,,,,,,,,,,,,,,repeat,number,numRpt,k,1.7834,noRew,,,,,,0,34,0,34,0,1,,,,,,,,,,,,,,,,,
297232,2022-12-05_12h25.08.379,vts_reward_expectancy_bt,2022.2.4,Win32,59.05628064,Chrome,1368,912,,,,,0,513,,,,,,,,,,,,,,,,,S,160,triangle,1,0,,,,,,,,,,,,,,,,switch,letter,lettSwt,f,1.9005,noRew,,,,,,0,35,0,35,0,1,,,,,,,,,,,,,,,,,
297232,2022-12-05_12h25.08.379,vts_reward_expectancy_bt,2022.2.4,Win32,59.05628064,Chrome,1368,912,,,,,0,513,,,,,,,,,,,,,,,,,S,132,triangle,1,0,,,,,,,,,,,,,,,,repeat,letter,lettRpt,f,1.6695,noRew,,,,,,0,36,0,36,0,1,,,,,,,,,,,,,,,,,
297232,2022-12-05_12h25.08.379,vts_reward_expectancy_bt,2022.2.4,Win32,59.05628064,Chrome,1368,912,,,,,0,513,,,,,,,,,,,,,,,,,W,174,hexagon,1,0,,,,,,,,,,,,,,,,repeat,letter,lettRpt,f,1.4338,noRew,,,,,,0,37,0,37,0,1,,,,,,,,,,,,,,,,,
297232,2022-12-05_12h25.08.379,vts_reward_expectancy_bt,2022.2.4,Win32,59.05628064,Chrome,1368,912,,,,,0,513,,,,,,,,,,,,,,,,,H,125,circle,1,0,,,,,,,,,,,,,,,,switch,number,numSwt,j,1.5016,noRew,,,,,,0,38,0,38,0,1,,,,,,,,,,,,,,,,,
297232,2022-12-05_12h25.08.379,vts_reward_expectancy_bt,2022.2.4,Win32,59.05628064,Chrome,1368,912,,,,,0,513,,,,,,,,,,,,,,,,,U,139,star,1,0,,,,,,,,,,,,,,,,repeat,number,numRpt,j,1.1321,noRew,,,,,,0,39,0,39,0,1,,,,,,,,,,,,,,,,,
297232,2022-12-05_12h25.08.379,vts_reward_expectancy_bt,2022.2.4,Win32,59.05628064,Chrome,1368,912,,,,,0,513,,,,,,,,,,,,,,,,,S,160,triangle,1,0,,,,,,,,,,,,,,,,repeat,number,numRpt,k,0.9668,noRew,,,,,,0,40,0,40,0,1,,,,,,,,,,,,,,,,,
297232,2022-12-05_12h25.08.379,vts_reward_expectancy_bt,2022.2.4,Win32,59.05628064,Chrome,1368,912,,,,,0,513,,,,,,,,,,,,,,,,,F,139,hexagon,1,0,,,,,,,,,,,,,,,,repeat,number,numRpt,j,1.0515,noRew,,,,,,0,41,0,41,0,1,,,,,,,,,,,,,,,,,
297232,2022-12-05_12h25.08.379,vts_reward_expectancy_bt,2022.2.4,Win32,59.05628064,Chrome,1368,912,,,,,0,513,,,,,,,,,,,,,,,,,U,174,circle,1,0,,,,,,,,,,,,,,,,repeat,number,numRpt,k,0.8019,noRew,,,,,,0,42,0,42,0,1,,,,,,,,,,,,,,,,,
297232,2022-12-05_12h25.08.379,vts_reward_expectancy_bt,2022.2.4,Win32,59.05628064,Chrome,1368,912,,,,,0,513,,,,,,,,,,,,,,,,,W,132,star,1,0,,,,,,,,,,,,,,,,repeat,number,numRpt,j,0.7319,noRew,,,,,,0,43,0,43,0,1,,,,,,,,,,,,,,,,,
297232,2022-12-05_12h25.08.379,vts_reward_expectancy_bt,2022.2.4,Win32,59.05628064,Chrome,1368,912,,,,,0,513,,,,,,,,,,,,,,,,,F,139,circle,1,0,,,,,,,,,,,,,,,,repeat,number,numRpt,j,1.9351,noRew,,,,,,0,44,0,44,0,1,,,,,,,,,,,,,,,,,
297232,2022-12-05_12h25.08.379,vts_reward_expectancy_bt,2022.2.4,Win32,59.05628064,Chrome,1368,912,,,,,0,513,,,,,,,,,,,,,,,,,B,125,triangle,1,0,,,,,,,,,,,,,,,,repeat,number,numRpt,j,0.6663,noRew,,,,,,0,45,0,45,0,1,,,,,,,,,,,,,,,,,
297232,2022-12-05_12h25.08.379,vts_reward_expectancy_bt,2022.2.4,Win32,59.05628064,Chrome,1368,912,,,,,0,513,,,,,,,,,,,,,,,,,D,160,circle,1,0,,,,,,,,,,,,,,,,switch,letter,lettSwt,d,1.7357,noRew,,,,,,0,46,0,46,0,1,,,,,,,,,,,,,,,,,
297232,2022-12-05_12h25.08.379,vts_reward_expectancy_bt,2022.2.4,Win32,59.05628064,Chrome,1368,912,,,,,0,513,,,,,,,,,,,,,,,,,S,132,star,1,0,,,,,,,,,,,,,,,,repeat,letter,lettRpt,f,0.8834,noRew,,,,,,0,47,0,47,0,1,,,,,,,,,,,,,,,,,
297232,2022-12-05_12h25.08.379,vts_reward_expectancy_bt,2022.2.4,Win32,59.05628064,Chrome,1368,912,,,,,0,513,,,,,,,,,,,,,,,,,F,139,circle,1,0,,,,,,,,,,,,,,,,switch,number,numSwt,j,1.1685,noRew,,,,,,0,48,0,48,0,1,,,,,,,,,,,,,,,,,
297232,2022-12-05_12h25.08.379,vts_reward_expectancy_bt,2022.2.4,Win32,59.05628064,Chrome,1368,912,,,,,0,513,,,,,,,,,,,,,,,,,H,167,star,0,0,,,,,,,,,,,,,,,,switch,letter,NA,f,1.0823,noRew,,,,,,0,49,0,49,0,1,,,,,,,,,,,,,,,,,
297232,2022-12-05_12h25.08.379,vts_reward_expectancy_bt,2022.2.4,Win32,59.05628064,Chrome,1368,912,,,,,0,513,,,,,,,,,,,,,,,,,W,174,triangle,1,1,,,,,,,,,,,,,,,,switch,number,numSwt,k,1.2208,noRew,,,,,,0,50,0,50,0,1,,,,,,,,,,,,,,,,,
297232,2022-12-05_12h25.08.379,vts_reward_expectancy_bt,2022.2.4,Win32,59.05628064,Chrome,1368,912,,,,,0,513,,,,,,,,,,,,,,,,,S,160,star,1,0,,,,,,,,,,,,,,,,repeat,number,numRpt,k,0.6511,noRew,,,,,,0,51,0,51,0,1,,,,,,,,,,,,,,,,,
297232,2022-12-05_12h25.08.379,vts_reward_expectancy_bt,2022.2.4,Win32,59.05628064,Chrome,1368,912,,,,,0,513,,,,,,,,,,,,,,,,,B,146,hexagon,1,0,,,,,,,,,,,,,,,,repeat,number,numRpt,j,1.2172,noRew,,,,,,0,52,0,52,0,1,,,,,,,,,,,,,,,,,
297232,2022-12-05_12h25.08.379,vts_reward_expectancy_bt,2022.2.4,Win32,59.05628064,Chrome,1368,912,,,,,0,513,,,,,,,,,,,,,,,,,F,181,star,1,0,,,,,,,,,,,,,,,,repeat,number,numRpt,k,0.9839,noRew,,,,,,0,53,0,53,0,1,,,,,,,,,,,,,,,,,
297232,2022-12-05_12h25.08.379,vts_reward_expectancy_bt,2022.2.4,Win32,59.05628064,Chrome,1368,912,,,,,0,513,,,,,,,,,,,,,,,,,S,174,circle,1,0,,,,,,,,,,,,,,,,repeat,number,numRpt,k,2.9698,noRew,,,,,,0,54,0,54,0,1,,,,,,,,,,,,,,,,,
297232,2022-12-05_12h25.08.379,vts_reward_expectancy_bt,2022.2.4,Win32,59.05628064,Chrome,1368,912,,,,,0,513,,,,,,,,,,,,,,,,,Y,139,star,1,0,,,,,,,,,,,,,,,,repeat,number,numRpt,j,2.0186,noRew,,,,,,0,55,0,55,0,1,,,,,,,,,,,,,,,,,
297232,2022-12-05_12h25.08.379,vts_reward_expectancy_bt,2022.2.4,Win32,59.05628064,Chrome,1368,912,,,,,0,513,,,,,,,,,,,,,,,,,W,139,circle,1,0,,,,,,,,,,,,,,,,switch,letter,lettSwt,f,0.7178,noRew,,,,,,0,56,0,56,0,1,,,,,,,,,,,,,,,,,
297232,2022-12-05_12h25.08.379,vts_reward_expectancy_bt,2022.2.4,Win32,59.05628064,Chrome,1368,912,,,,,0,513,,,,,,,,,,,,,,,,,Y,125,hexagon,1,0,,,,,,,,,,,,,,,,repeat,letter,lettRpt,f,0.8492,noRew,,,,,,0,57,0,57,0,1,,,,,,,,,,,,,,,,,
297232,2022-12-05_12h25.08.379,vts_reward_expectancy_bt,2022.2.4,Win32,59.05628064,Chrome,1368,912,,,,,0,513,,,,,,,,,,,,,,,,,F,181,star,1,0,,,,,,,,,,,,,,,,repeat,letter,lettRpt,d,1.768,noRew,,,,,,0,58,0,58,0,1,,,,,,,,,,,,,,,,,
297232,2022-12-05_12h25.08.379,vts_reward_expectancy_bt,2022.2.4,Win32,59.05628064,Chrome,1368,912,,,,,0,513,,,,,,,,,,,,,,,,,B,160,triangle,1,0,,,,,,,,,,,,,,,,repeat,letter,lettRpt,d,1.3317,noRew,,,,,,0,59,0,59,0,1,,,,,,,,,,,,,,,,,
297232,2022-12-05_12h25.08.379,vts_reward_expectancy_bt,2022.2.4,Win32,59.05628064,Chrome,1368,912,,,,,0,513,,,,,,,,,,,,,,,,,H,139,triangle,1,0,,,,,,,,,,,,,,,,switch,number,numSwt,j,2.0358,noRew,,,,,,0,60,0,60,0,1,,,,,,,,,,,,,,,,,
297232,2022-12-05_12h25.08.379,vts_reward_expectancy_bt,2022.2.4,Win32,59.05628064,Chrome,1368,912,,,,,0,513,,,,,,,,,,,,,,,,,W,146,circle,1,0,,,,,,,,,,,,,,,,switch,letter,lettSwt,f,1.0162,noRew,,,,,,0,61,0,61,0,1,,,,,,,,,,,,,,,,,
297232,2022-12-05_12h25.08.379,vts_reward_expectancy_bt,2022.2.4,Win32,59.05628064,Chrome,1368,912,,,,,0,513,,,,,,,,,,,,,,,,,B,181,hexagon,1,0,,,,,,,,,,,,,,,,repeat,letter,lettRpt,d,0.8997,noRew,,,,,,0,62,0,62,0,1,,,,,,,,,,,,,,,,,
297232,2022-12-05_12h25.08.379,vts_reward_expectancy_bt,2022.2.4,Win32,59.05628064,Chrome,1368,912,,,,,0,513,,,,,,,,,,,,,,,,,U,167,circle,-1,0,,,,,,,,,,,,,,,,switch,no_choice,NA,,,noRew,,,,,,0,63,0,63,0,1,,,,,,,,,,,,,,,,,
297232,2022-12-05_12h25.08.379,vts_reward_expectancy_bt,2022.2.4,Win32,59.05628064,Chrome,1368,912,,,,,,,,,,,,,,,,,,,,,,,,,,,,,,,,,,,,,,,,,,,,,,,,,,,,,,,,,,,,,,,,,,,,,,,,,,,,
297232,2022-12-05_12h25.08.379,vts_reward_expectancy_bt,2022.2.4,Win32,59.05628064,Chrome,1368,912,,,,,10,523,,,,,,,,,,,,,,,,,U,160,circle,1,0,,,,,,,,,,,,,,,,switch,letter,lettSwt,f,0.968,Lo,,,,,,0,,,,,,space,9.1064,low,0,0,0,0,1,,,,,,,,,
297232,2022-12-05_12h25.08.379,vts_reward_expectancy_bt,2022.2.4,Win32,59.05628064,Chrome,1368,912,,,,,1,524,,,,,,,,,,,,,,,,,W,146,star,1,0,,,,,,,,,,,,,,,,repeat,letter,lettRpt,f,0.7161,Lo,,,,,,0,,,,,,,,low,1,0,1,0,1,,,,,,,,,
297232,2022-12-05_12h25.08.379,vts_reward_expectancy_bt,2022.2.4,Win32,59.05628064,Chrome,1368,912,,,,,0,524,,,,,,,,,,,,,,,,,H,139,hexagon,0,0,,,,,,,,,,,,,,,,switch,number,NA,k,1.2679,Lo,,,,,,0,,,,,,,,low,2,0,2,0,1,,,,,,,,,
297232,2022-12-05_12h25.08.379,vts_reward_expectancy_bt,2022.2.4,Win32,59.05628064,Chrome,1368,912,,,,,10,534,,,,,,,,,,,,,,,,,Y,181,triangle,1,1,,,,,,,,,,,,,,,,repeat,number,numRpt,k,0.7506,Hi,,,,,,0,,,,,,,,low,3,0,3,0,1,,,,,,,,,
297232,2022-12-05_12h25.08.379,vts_reward_expectancy_bt,2022.2.4,Win32,59.05628064,Chrome,1368,912,,,,,1,535,,,,,,,,,,,,,,,,,F,174,circle,1,0,,,,,,,,,,,,,,,,repeat,number,numRpt,k,0.92,Lo,,,,,,0,,,,,,,,low,4,0,4,0,1,,,,,,,,,
297232,2022-12-05_12h25.08.379,vts_reward_expectancy_bt,2022.2.4,Win32,59.05628064,Chrome,1368,912,,,,,0,535,,,,,,,,,,,,,,,,,B,167,star,0,0,,,,,,,,,,,,,,,,switch,letter,NA,f,0.7518,Lo,,,,,,0,,,,,,,,low,5,0,5,0,1,,,,,,,,,
297232,2022-12-05_12h25.08.379,vts_reward_expectancy_bt,2022.2.4,Win32,59.05628064,Chrome,1368,912,,,,,10,545,,,,,,,,,,,,,,,,,S,132,hexagon,1,1,,,,,,,,,,,,,,,,repeat,letter,lettRpt,f,0.554,Hi,,,,,,0,,,,,,,,low,6,0,6,0,1,,,,,,,,,
297232,2022-12-05_12h25.08.379,vts_reward_expectancy_bt,2022.2.4,Win32,59.05628064,Chrome,1368,912,,,,,10,555,,,,,,,,,,,,,,,,,D,125,triangle,1,0,,,,,,,,,,,,,,,,repeat,letter,lettRpt,d,0.7178,Hi,,,,,,0,,,,,,,,low,7,0,7,0,1,,,,,,,,,
297232,2022-12-05_12h25.08.379,vts_reward_expectancy_bt,2022.2.4,Win32,59.05628064,Chrome,1368,912,,,,,10,565,,,,,,,,,,,,,,,,,U,160,triangle,1,0,,,,,,,,,,,,,,,,repeat,letter,lettRpt,f,0.6869,Hi,,,,,,0,,,,,,,,low,8,0,8,0,1,,,,,,,,,
297232,2022-12-05_12h25.08.379,vts_reward_expectancy_bt,2022.2.4,Win32,59.05628064,Chrome,1368,912,,,,,1,566,,,,,,,,,,,,,,,,,W,146,circle,1,0,,,,,,,,,,,,,,,,switch,number,numSwt,j,0.8048,Lo,,,,,,0,,,,,,,,low,9,0,9,0,1,,,,,,,,,
297232,2022-12-05_12h25.08.379,vts_reward_expectancy_bt,2022.2.4,Win32,59.05628064,Chrome,1368,912,,,,,0,566,,,,,,,,,,,,,,,,,H,139,hexagon,1,0,,,,,,,,,,,,,,,,switch,letter,lettSwt,d,0.9017,Hi,,,,,,0,,,,,,,,low,10,0,10,0,1,,,,,,,,,
297232,2022-12-05_12h25.08.379,vts_reward_expectancy_bt,2022.2.4,Win32,59.05628064,Chrome,1368,912,,,,,1,567,,,,,,,,,,,,,,,,,Y,181,star,1,0,,,,,,,,,,,,,,,,switch,number,numSwt,k,0.5182,Lo,,,,,,0,,,,,,,,low,11,0,11,0,1,,,,,,,,,
297232,2022-12-05_12h25.08.379,vts_reward_expectancy_bt,2022.2.4,Win32,59.05628064,Chrome,1368,912,,,,,1,568,,,,,,,,,,,,,,,,,F,174,star,1,0,,,,,,,,,,,,,,,,repeat,number,numRpt,k,0.4011,Lo,,,,,,0,,,,,,,,low,12,0,12,0,1,,,,,,,,,
297232,2022-12-05_12h25.08.379,vts_reward_expectancy_bt,2022.2.4,Win32,59.05628064,Chrome,1368,912,,,,,10,578,,,,,,,,,,,,,,,,,B,167,triangle,1,0,,,,,,,,,,,,,,,,repeat,number,numRpt,k,0.7012,Hi,,,,,,0,,,,,,,,low,13,0,13,0,1,,,,,,,,,
297232,2022-12-05_12h25.08.379,vts_reward_expectancy_bt,2022.2.4,Win32,59.05628064,Chrome,1368,912,,,,,10,588,,,,,,,,,,,,,,,,,S,132,circle,1,0,,,,,,,,,,,,,,,,repeat,number,numRpt,j,0.6855,Lo,,,,,,0,,,,,,,,low,14,0,14,0,1,,,,,,,,,
297232,2022-12-05_12h25.08.379,vts_reward_expectancy_bt,2022.2.4,Win32,59.05628064,Chrome,1368,912,,,,,1,589,,,,,,,,,,,,,,,,,D,125,hexagon,1,0,,,,,,,,,,,,,,,,repeat,number,numRpt,j,0.6753,Hi,,,,,,0,,,,,,,,low,15,0,15,0,1,,,,,,,,,
297232,2022-12-05_12h25.08.379,vts_reward_expectancy_bt,2022.2.4,Win32,59.05628064,Chrome,1368,912,,,,,1,590,,,,,,,,,,,,,,,,,H,160,circle,1,0,,,,,,,,,,,,,,,,repeat,number,numRpt,k,0.7027,Lo,,,,,,0,,,,,,,,low,16,0,16,0,1,,,,,,,,,
297232,2022-12-05_12h25.08.379,vts_reward_expectancy_bt,2022.2.4,Win32,59.05628064,Chrome,1368,912,,,,,1,591,,,,,,,,,,,,,,,,,S,146,triangle,1,0,,,,,,,,,,,,,,,,repeat,number,numRpt,j,0.8346,Hi,,,,,,0,,,,,,,,low,17,0,17,0,1,,,,,,,,,
297232,2022-12-05_12h25.08.379,vts_reward_expectancy_bt,2022.2.4,Win32,59.05628064,Chrome,1368,912,,,,,1,592,,,,,,,,,,,,,,,,,W,132,hexagon,1,0,,,,,,,,,,,,,,,,repeat,number,numRpt,j,0.9025,Hi,,,,,,0,,,,,,,,low,18,0,18,0,1,,,,,,,,,
297232,2022-12-05_12h25.08.379,vts_reward_expectancy_bt,2022.2.4,Win32,59.05628064,Chrome,1368,912,,,,,1,593,,,,,,,,,,,,,,,,,F,167,star,1,0,,,,,,,,,,,,,,,,switch,letter,lettSwt,d,0.6865,Lo,,,,,,0,,,,,,,,low,19,0,19,0,1,,,,,,,,,
297232,2022-12-05_12h25.08.379,vts_reward_expectancy_bt,2022.2.4,Win32,59.05628064,Chrome,1368,912,,,,,10,603,,,,,,,,,,,,,,,,,D,125,star,1,0,,,,,,,,,,,,,,,,repeat,letter,lettRpt,d,0.5843,Lo,,,,,,0,,,,,,,,low,20,0,20,0,1,,,,,,,,,
297232,2022-12-05_12h25.08.379,vts_reward_expectancy_bt,2022.2.4,Win32,59.05628064,Chrome,1368,912,,,,,1,604,,,,,,,,,,,,,,,,,B,139,hexagon,1,0,,,,,,,,,,,,,,,,repeat,letter,lettRpt,d,0.5509,Hi,,,,,,0,,,,,,,,low,21,0,21,0,1,,,,,,,,,
297232,2022-12-05_12h25.08.379,vts_reward_expectancy_bt,2022.2.4,Win32,59.05628064,Chrome,1368,912,,,,,0,604,,,,,,,,,,,,,,,,,U,174,circle,0,0,,,,,,,,,,,,,,,,switch,number,NA,j,0.5173,Hi,,,,,,0,,,,,,,,low,22,0,22,0,1,,,,,,,,,
297232,2022-12-05_12h25.08.379,vts_reward_expectancy_bt,2022.2.4,Win32,59.05628064,Chrome,1368,912,,,,,10,614,,,,,,,,,,,,,,,,,Y,181,triangle,1,1,,,,,,,,,,,,,,,,repeat,number,numRpt,k,0.4674,Hi,,,,,,0,,,,,,,,low,23,0,23,0,1,,,,,,,,,
297232,2022-12-05_12h25.08.379,vts_reward_expectancy_bt,2022.2.4,Win32,59.05628064,Chrome,1368,912,,,,,1,615,,,,,,,,,,,,,,,,,S,160,circle,1,0,,,,,,,,,,,,,,,,switch,letter,lettSwt,f,0.9015,Lo,,,,,,0,,,,,,,,low,24,0,24,0,1,,,,,,,,,
297232,2022-12-05_12h25.08.379,vts_reward_expectancy_bt,2022.2.4,Win32,59.05628064,Chrome,1368,912,,,,,0,615,,,,,,,,,,,,,,,,,F,174,star,0,0,,,,,,,,,,,,,,,,switch,number,NA,j,0.9548,Lo,,,,,,0,,,,,,,,low,25,0,25,0,1,,,,,,,,,
297232,2022-12-05_12h25.08.379,vts_reward_expectancy_bt,2022.2.4,Win32,59.05628064,Chrome,1368,912,,,,,1,616,,,,,,,,,,,,,,,,,H,125,triangle,1,1,,,,,,,,,,,,,,,,repeat,number,numRpt,j,0.6181,Hi,,,,,,0,,,,,,,,low,26,0,26,0,1,,,,,,,,,
297232,2022-12-05_12h25.08.379,vts_reward_expectancy_bt,2022.2.4,Win32,59.05628064,Chrome,1368,912,,,,,10,626,,,,,,,,,,,,,,,,,Y,181,hexagon,1,0,,,,,,,,,,,,,,,,repeat,number,numRpt,k,0.7035,Hi,,,,,,0,,,,,,,,low,27,0,27,0,1,,,,,,,,,
297232,2022-12-05_12h25.08.379,vts_reward_expectancy_bt,2022.2.4,Win32,59.05628064,Chrome,1368,912,,,,,1,627,,,,,,,,,,,,,,,,,D,132,hexagon,1,0,,,,,,,,,,,,,,,,switch,letter,lettSwt,d,0.6,Hi,,,,,,0,,,,,,,,low,28,0,28,0,1,,,,,,,,,
297232,2022-12-05_12h25.08.379,vts_reward_expectancy_bt,2022.2.4,Win32,59.05628064,Chrome,1368,912,,,,,1,628,,,,,,,,,,,,,,,,,U,139,star,1,0,,,,,,,,,,,,,,,,switch,number,numSwt,j,0.4685,Lo,,,,,,0,,,,,,,,low,29,0,29,0,1,,,,,,,,,
297232,2022-12-05_12h25.08.379,vts_reward_expectancy_bt,2022.2.4,Win32,59.05628064,Chrome,1368,912,,,,,10,638,,,,,,,,,,,,,,,,,W,146,circle,1,0,,,,,,,,,,,,,,,,repeat,number,numRpt,j,1.1007,Lo,,,,,,0,,,,,,,,low,30,0,30,0,1,,,,,,,,,
297232,2022-12-05_12h25.08.379,vts_reward_expectancy_bt,2022.2.4,Win32,59.05628064,Chrome,1368,912,,,,,0,638,,,,,,,,,,,,,,,,,B,167,triangle,1,0,,,,,,,,,,,,,,,,repeat,number,numRpt,k,1.235,Hi,,,,,,0,,,,,,,,low,31,0,31,0,1,,,,,,,,,
297232,2022-12-05_12h25.08.379,vts_reward_expectancy_bt,2022.2.4,Win32,59.05628064,Chrome,1368,912,,,,,1,639,,,,,,,,,,,,,,,,,Y,174,star,1,0,,,,,,,,,,,,,,,,switch,letter,lettSwt,f,0.789,Lo,,,,,,1,,,,,,space,10.9434,low,0,0,0,0,1,,,,,,,,,
297232,2022-12-05_12h25.08.379,vts_reward_expectancy_bt,2022.2.4,Win32,59.05628064,Chrome,1368,912,,,,,1,640,,,,,,,,,,,,,,,,,F,132,circle,1,0,,,,,,,,,,,,,,,,repeat,letter,lettRpt,d,0.7529,Lo,,,,,,1,,,,,,,,low,1,0,1,0,1,,,,,,,,,
297232,2022-12-05_12h25.08.379,vts_reward_expectancy_bt,2022.2.4,Win32,59.05628064,Chrome,1368,912,,,,,0,640,,,,,,,,,,,,,,,,,H,146,triangle,1,0,,,,,,,,,,,,,,,,switch,number,numSwt,j,0.6007,Hi,,,,,,1,,,,,,,,low,2,0,2,0,1,,,,,,,,,
297232,2022-12-05_12h25.08.379,vts_reward_expectancy_bt,2022.2.4,Win32,59.05628064,Chrome,1368,912,,,,,1,641,,,,,,,,,,,,,,,,,D,181,hexagon,1,0,,,,,,,,,,,,,,,,repeat,number,numRpt,k,0.6009,Hi,,,,,,1,,,,,,,,low,3,0,3,0,1,,,,,,,,,
297232,2022-12-05_12h25.08.379,vts_reward_expectancy_bt,2022.2.4,Win32,59.05628064,Chrome,1368,912,,,,,1,642,,,,,,,,,,,,,,,,,W,139,star,1,0,,,,,,,,,,,,,,,,repeat,number,numRpt,j,0.5001,Lo,,,,,,1,,,,,,,,low,4,0,4,0,1,,,,,,,,,
297232,2022-12-05_12h25.08.379,vts_reward_expectancy_bt,2022.2.4,Win32,59.05628064,Chrome,1368,912,,,,,1,643,,,,,,,,,,,,,,,,,S,160,circle,1,0,,,,,,,,,,,,,,,,switch,letter,lettSwt,f,0.5513,Lo,,,,,,1,,,,,,,,low,5,0,5,0,1,,,,,,,,,
297232,2022-12-05_12h25.08.379,vts_reward_expectancy_bt,2022.2.4,Win32,59.05628064,Chrome,1368,912,,,,,0,643,,,,,,,,,,,,,,,,,B,125,triangle,1,0,,,,,,,,,,,,,,,,switch,number,numSwt,j,0.6202,Hi,,,,,,1,,,,,,,,low,6,0,6,0,1,,,,,,,,,
297232,2022-12-05_12h25.08.379,vts_reward_expectancy_bt,2022.2.4,Win32,59.05628064,Chrome,1368,912,,,,,1,644,,,,,,,,,,,,,,,,,U,167,hexagon,1,0,,,,,,,,,,,,,,,,switch,letter,lettSwt,f,0.6017,Hi,,,,,,1,,,,,,,,low,7,0,7,0,1,,,,,,,,,
297232,2022-12-05_12h25.08.379,vts_reward_expectancy_bt,2022.2.4,Win32,59.05628064,Chrome,1368,912,,,,,0,644,,,,,,,,,,,,,,,,,Y,174,hexagon,1,0,,,,,,,,,,,,,,,,repeat,letter,lettRpt,f,0.7378,Hi,,,,,,1,,,,,,,,low,8,0,8,0,1,,,,,,,,,
297232,2022-12-05_12h25.08.379,vts_reward_expectancy_bt,2022.2.4,Win32,59.05628064,Chrome,1368,912,,,,,10,654,,,,,,,,,,,,,,,,,F,132,circle,1,0,,,,,,,,,,,,,,,,switch,number,numSwt,j,0.8173,Lo,,,,,,1,,,,,,,,low,9,0,9,0,1,,,,,,,,,
297232,2022-12-05_12h25.08.379,vts_reward_expectancy_bt,2022.2.4,Win32,59.05628064,Chrome,1368,912,,,,,10,664,,,,,,,,,,,,,,,,,H,146,star,1,0,,,,,,,,,,,,,,,,repeat,number,numRpt,j,0.7263,Lo,,,,,,1,,,,,,,,low,10,0,10,0,1,,,,,,,,,
297232,2022-12-05_12h25.08.379,vts_reward_expectancy_bt,2022.2.4,Win32,59.05628064,Chrome,1368,912,,,,,10,674,,,,,,,,,,,,,,,,,D,181,triangle,1,0,,,,,,,,,,,,,,,,repeat,number,numRpt,k,0.6205,Hi,,,,,,1,,,,,,,,low,11,0,11,0,1,,,,,,,,,
297232,2022-12-05_12h25.08.379,vts_reward_expectancy_bt,2022.2.4,Win32,59.05628064,Chrome,1368,912,,,,,10,684,,,,,,,,,,,,,,,,,W,139,circle,1,0,,,,,,,,,,,,,,,,repeat,number,numRpt,j,0.6349,Lo,,,,,,1,,,,,,,,low,12,0,12,0,1,,,,,,,,,
297232,2022-12-05_12h25.08.379,vts_reward_expectancy_bt,2022.2.4,Win32,59.05628064,Chrome,1368,912,,,,,0,684,,,,,,,,,,,,,,,,,S,160,star,0,0,,,,,,,,,,,,,,,,repeat,number,NA,j,0.8152,Lo,,,,,,1,,,,,,,,low,13,0,13,0,1,,,,,,,,,
297232,2022-12-05_12h25.08.379,vts_reward_expectancy_bt,2022.2.4,Win32,59.05628064,Chrome,1368,912,,,,,10,694,,,,,,,,,,,,,,,,,B,125,hexagon,1,1,,,,,,,,,,,,,,,,repeat,number,numRpt,j,0.6426,Hi,,,,,,1,,,,,,,,low,14,0,14,0,1,,,,,,,,,
297232,2022-12-05_12h25.08.379,vts_reward_expectancy_bt,2022.2.4,Win32,59.05628064,Chrome,1368,912,,,,,0,694,,,,,,,,,,,,,,,,,U,167,triangle,1,0,,,,,,,,,,,,,,,,repeat,number,numRpt,k,1.068,Hi,,,,,,1,,,,,,,,low,15,0,15,0,1,,,,,,,,,
297232,2022-12-05_12h25.08.379,vts_reward_expectancy_bt,2022.2.4,Win32,59.05628064,Chrome,1368,912,,,,,1,695,,,,,,,,,,,,,,,,,W,146,star,1,0,,,,,,,,,,,,,,,,repeat,number,numRpt,j,2.2191,Lo,,,,,,1,,,,,,,,low,16,0,16,0,1,,,,,,,,,
297232,2022-12-05_12h25.08.379,vts_reward_expectancy_bt,2022.2.4,Win32,59.05628064,Chrome,1368,912,,,,,10,705,,,,,,,,,,,,,,,,,H,132,circle,1,0,,,,,,,,,,,,,,,,repeat,number,numRpt,j,0.6844,Lo,,,,,,1,,,,,,,,low,17,0,17,0,1,,,,,,,,,
297232,2022-12-05_12h25.08.379,vts_reward_expectancy_bt,2022.2.4,Win32,59.05628064,Chrome,1368,912,,,,,0,705,,,,,,,,,,,,,,,,,U,181,triangle,1,0,,,,,,,,,,,,,,,,repeat,number,numRpt,k,0.8031,Hi,,,,,,1,,,,,,,,low,18,0,18,0,1,,,,,,,,,
297232,2022-12-05_12h25.08.379,vts_reward_expectancy_bt,2022.2.4,Win32,59.05628064,Chrome,1368,912,,,,,1,706,,,,,,,,,,,,,,,,,D,139,hexagon,1,0,,,,,,,,,,,,,,,,repeat,number,numRpt,j,0.6022,Hi,,,,,,1,,,,,,,,low,19,0,19,0,1,,,,,,,,,
297232,2022-12-05_12h25.08.379,vts_reward_expectancy_bt,2022.2.4,Win32,59.05628064,Chrome,1368,912,,,,,1,707,,,,,,,,,,,,,,,,,F,167,star,1,0,,,,,,,,,,,,,,,,repeat,number,numRpt,k,1.6186,Lo,,,,,,1,,,,,,,,low,20,0,20,0,1,,,,,,,,,
297232,2022-12-05_12h25.08.379,vts_reward_expectancy_bt,2022.2.4,Win32,59.05628064,Chrome,1368,912,,,,,0,707,,,,,,,,,,,,,,,,,B,160,hexagon,1,0,,,,,,,,,,,,,,,,repeat,number,numRpt,k,0.8529,Hi,,,,,,1,,,,,,,,low,21,0,21,0,1,,,,,,,,,
297232,2022-12-05_12h25.08.379,vts_reward_expectancy_bt,2022.2.4,Win32,59.05628064,Chrome,1368,912,,,,,0,707,,,,,,,,,,,,,,,,,Y,125,triangle,1,0,,,,,,,,,,,,,,,,switch,letter,lettSwt,f,0.7677,Hi,,,,,,1,,,,,,,,low,22,0,22,0,1,,,,,,,,,
297232,2022-12-05_12h25.08.379,vts_reward_expectancy_bt,2022.2.4,Win32,59.05628064,Chrome,1368,912,,,,,1,708,,,,,,,,,,,,,,,,,S,174,circle,1,0,,,,,,,,,,,,,,,,switch,number,numSwt,k,0.7865,Lo,,,,,,1,,,,,,,,low,23,0,23,0,1,,,,,,,,,
297232,2022-12-05_12h25.08.379,vts_reward_expectancy_bt,2022.2.4,Win32,59.05628064,Chrome,1368,912,,,,,10,718,,,,,,,,,,,,,,,,,Y,167,circle,1,0,,,,,,,,,,,,,,,,switch,letter,lettSwt,f,0.8355,Lo,,,,,,1,,,,,,,,low,24,0,24,0,1,,,,,,,,,
297232,2022-12-05_12h25.08.379,vts_reward_expectancy_bt,2022.2.4,Win32,59.05628064,Chrome,1368,912,,,,,0,718,,,,,,,,,,,,,,,,,S,132,star,0,0,,,,,,,,,,,,,,,,repeat,letter,NA,d,0.736,Lo,,,,,,1,,,,,,,,low,25,0,25,0,1,,,,,,,,,
297232,2022-12-05_12h25.08.379,vts_reward_expectancy_bt,2022.2.4,Win32,59.05628064,Chrome,1368,912,,,,,0,718,,,,,,,,,,,,,,,,,U,160,triangle,1,1,,,,,,,,,,,,,,,,repeat,letter,lettRpt,f,1.0352,Hi,,,,,,1,,,,,,,,low,26,0,26,0,1,,,,,,,,,
297232,2022-12-05_12h25.08.379,vts_reward_expectancy_bt,2022.2.4,Win32,59.05628064,Chrome,1368,912,,,,,0,718,,,,,,,,,,,,,,,,,B,146,hexagon,1,0,,,,,,,,,,,,,,,,repeat,letter,lettRpt,d,0.9341,Hi,,,,,,1,,,,,,,,low,27,0,27,0,1,,,,,,,,,
297232,2022-12-05_12h25.08.379,vts_reward_expectancy_bt,2022.2.4,Win32,59.05628064,Chrome,1368,912,,,,,0,718,,,,,,,,,,,,,,,,,F,181,circle,0,0,,,,,,,,,,,,,,,,repeat,letter,NA,f,0.6263,Hi,,,,,,1,,,,,,,,low,28,0,28,0,1,,,,,,,,,
297232,2022-12-05_12h25.08.379,vts_reward_expectancy_bt,2022.2.4,Win32,59.05628064,Chrome,1368,912,,,,,0,718,,,,,,,,,,,,,,,,,W,139,star,0,1,,,,,,,,,,,,,,,,repeat,letter,NA,d,0.9009,Hi,,,,,,1,,,,,,,,low,29,0,29,0,1,,,,,,,,,
297232,2022-12-05_12h25.08.379,vts_reward_expectancy_bt,2022.2.4,Win32,59.05628064,Chrome,1368,912,,,,,0,718,,,,,,,,,,,,,,,,,H,174,hexagon,1,1,,,,,,,,,,,,,,,,switch,number,numSwt,k,1.0171,Hi,,,,,,1,,,,,,,,low,30,0,30,0,1,,,,,,,,,
297232,2022-12-05_12h25.08.379,vts_reward_expectancy_bt,2022.2.4,Win32,59.05628064,Chrome,1368,912,,,,,1,719,,,,,,,,,,,,,,,,,D,125,triangle,1,0,,,,,,,,,,,,,,,,repeat,number,numRpt,j,0.6004,Hi,,,,,,1,,,,,,,,low,31,0,31,0,1,,,,,,,,,
297232,2022-12-05_12h25.08.379,vts_reward_expectancy_bt,2022.2.4,Win32,59.05628064,Chrome,1368,912,,,,,1,720,,,,,,,,,,,,,,,,,S,132,star,1,0,,,,,,,,,,,,,,,,switch,letter,lettSwt,f,0.851,Lo,,,,,,2,,,,,,space,4.6231,low,0,0,0,0,1,,,,,,,,,
297232,2022-12-05_12h25.08.379,vts_reward_expectancy_bt,2022.2.4,Win32,59.05628064,Chrome,1368,912,,,,,1,721,,,,,,,,,,,,,,,,,Y,125,circle,1,0,,,,,,,,,,,,,,,,switch,number,numSwt,j,0.5007,Lo,,,,,,2,,,,,,,,low,1,0,1,0,1,,,,,,,,,
297232,2022-12-05_12h25.08.379,vts_reward_expectancy_bt,2022.2.4,Win32,59.05628064,Chrome,1368,912,,,,,1,722,,,,,,,,,,,,,,,,,F,167,triangle,1,0,,,,,,,,,,,,,,,,repeat,number,numRpt,k,0.4182,Hi,,,,,,2,,,,,,,,low,2,0,2,0,1,,,,,,,,,
297232,2022-12-05_12h25.08.379,vts_reward_expectancy_bt,2022.2.4,Win32,59.05628064,Chrome,1368,912,,,,,0,722,,,,,,,,,,,,,,,,,B,160,hexagon,1,0,,,,,,,,,,,,,,,,repeat,number,numRpt,k,1.0856,Hi,,,,,,2,,,,,,,,low,3,0,3,0,1,,,,,,,,,
297232,2022-12-05_12h25.08.379,vts_reward_expectancy_bt,2022.2.4,Win32,59.05628064,Chrome,1368,912,,,,,1,723,,,,,,,,,,,,,,,,,W,181,star,1,0,,,,,,,,,,,,,,,,repeat,number,numRpt,k,0.6854,Lo,,,,,,2,,,,,,,,low,4,0,4,0,1,,,,,,,,,
297232,2022-12-05_12h25.08.379,vts_reward_expectancy_bt,2022.2.4,Win32,59.05628064,Chrome,1368,912,,,,,1,724,,,,,,,,,,,,,,,,,U,146,circle,1,0,,,,,,,,,,,,,,,,switch,letter,lettSwt,f,0.5384,Lo,,,,,,2,,,,,,,,low,5,0,5,0,1,,,,,,,,,
297232,2022-12-05_12h25.08.379,vts_reward_expectancy_bt,2022.2.4,Win32,59.05628064,Chrome,1368,912,,,,,0,724,,,,,,,,,,,,,,,,,H,139,triangle,1,0,,,,,,,,,,,,,,,,switch,number,numSwt,j,0.9186,Hi,,,,,,2,,,,,,,,low,6,0,6,0,1,,,,,,,,,
297232,2022-12-05_12h25.08.379,vts_reward_expectancy_bt,2022.2.4,Win32,59.05628064,Chrome,1368,912,,,,,1,725,,,,,,,,,,,,,,,,,D,174,hexagon,1,0,,,,,,,,,,,,,,,,repeat,number,numRpt,k,0.4837,Hi,,,,,,2,,,,,,,,low,7,0,7,0,1,,,,,,,,,
297232,2022-12-05_12h25.08.379,vts_reward_expectancy_bt,2022.2.4,Win32,59.05628064,Chrome,1368,912,,,,,0,725,,,,,,,,,,,,,,,,,S,132,triangle,1,0,,,,,,,,,,,,,,,,repeat,number,numRpt,j,0.6357,Hi,,,,,,2,,,,,,,,low,8,0,8,0,1,,,,,,,,,
297232,2022-12-05_12h25.08.379,vts_reward_expectancy_bt,2022.2.4,Win32,59.05628064,Chrome,1368,912,,,,,1,726,,,,,,,,,,,,,,,,,Y,125,star,1,0,,,,,,,,,,,,,,,,repeat,number,numRpt,j,0.6218,Lo,,,,,,2,,,,,,,,low,9,0,9,0,1,,,,,,,,,
297232,2022-12-05_12h25.08.379,vts_reward_expectancy_bt,2022.2.4,Win32,59.05628064,Chrome,1368,912,,,,,10,736,,,,,,,,,,,,,,,,,F,167,hexagon,1,0,,,,,,,,,,,,,,,,repeat,number,numRpt,k,0.5513,Hi,,,,,,2,,,,,,,,low,10,0,10,0,1,,,,,,,,,
297232,2022-12-05_12h25.08.379,vts_reward_expectancy_bt,2022.2.4,Win32,59.05628064,Chrome,1368,912,,,,,1,737,,,,,,,,,,,,,,,,,B,160,circle,1,0,,,,,,,,,,,,,,,,repeat,number,numRpt,k,0.4836,Lo,,,,,,2,,,,,,,,low,11,0,11,0,1,,,,,,,,,
297232,2022-12-05_12h25.08.379,vts_reward_expectancy_bt,2022.2.4,Win32,59.05628064,Chrome,1368,912,,,,,1,738,,,,,,,,,,,,,,,,,W,181,circle,1,0,,,,,,,,,,,,,,,,repeat,number,numRpt,k,0.4502,Lo,,,,,,2,,,,,,,,low,12,0,12,0,1,,,,,,,,,
297232,2022-12-05_12h25.08.379,vts_reward_expectancy_bt,2022.2.4,Win32,59.05628064,Chrome,1368,912,,,,,0,738,,,,,,,,,,,,,,,,,U,146,hexagon,0,0,,,,,,,,,,,,,,,,repeat,number,NA,k,0.5344,Lo,,,,,,2,,,,,,,,low,13,0,13,0,1,,,,,,,,,
297232,2022-12-05_12h25.08.379,vts_reward_expectancy_bt,2022.2.4,Win32,59.05628064,Chrome,1368,912,,,,,1,739,,,,,,,,,,,,,,,,,H,139,star,1,1,,,,,,,,,,,,,,,,repeat,number,numRpt,j,0.5867,Lo,,,,,,2,,,,,,,,low,14,0,14,0,1,,,,,,,,,
297232,2022-12-05_12h25.08.379,vts_reward_expectancy_bt,2022.2.4,Win32,59.05628064,Chrome,1368,912,,,,,0,739,,,,,,,,,,,,,,,,,D,174,triangle,0,0,,,,,,,,,,,,,,,,switch,letter,NA,f,0.734,Lo,,,,,,2,,,,,,,,low,15,0,15,0,1,,,,,,,,,
297232,2022-12-05_12h25.08.379,vts_reward_expectancy_bt,2022.2.4,Win32,59.05628064,Chrome,1368,912,,,,,1,740,,,,,,,,,,,,,,,,,W,146,circle,1,1,,,,,,,,,,,,,,,,switch,number,numSwt,j,0.7838,Lo,,,,,,2,,,,,,,,low,16,0,16,0,1,,,,,,,,,
297232,2022-12-05_12h25.08.379,vts_reward_expectancy_bt,2022.2.4,Win32,59.05628064,Chrome,1368,912,,,,,0,740,,,,,,,,,,,,,,,,,H,167,star,0,0,,,,,,,,,,,,,,,,switch,letter,NA,f,0.6679,Lo,,,,,,2,,,,,,,,low,17,0,17,0,1,,,,,,,,,
297232,2022-12-05_12h25.08.379,vts_reward_expectancy_bt,2022.2.4,Win32,59.05628064,Chrome,1368,912,,,,,0,740,,,,,,,,,,,,,,,,,U,160,triangle,1,1,,,,,,,,,,,,,,,,repeat,letter,lettRpt,f,0.8846,Hi,,,,,,2,,,,,,,,low,18,0,18,0,1,,,,,,,,,
297232,2022-12-05_12h25.08.379,vts_reward_expectancy_bt,2022.2.4,Win32,59.05628064,Chrome,1368,912,,,,,0,740,,,,,,,,,,,,,,,,,S,132,hexagon,1,0,,,,,,,,,,,,,,,,switch,number,numSwt,j,0.7537,Hi,,,,,,2,,,,,,,,low,19,0,19,0,1,,,,,,,,,
297232,2022-12-05_12h25.08.379,vts_reward_expectancy_bt,2022.2.4,Win32,59.05628064,Chrome,1368,912,,,,,10,750,,,,,,,,,,,,,,,,,B,174,triangle,1,0,,,,,,,,,,,,,,,,repeat,number,numRpt,k,0.4847,Hi,,,,,,2,,,,,,,,low,20,0,20,0,1,,,,,,,,,
297232,2022-12-05_12h25.08.379,vts_reward_expectancy_bt,2022.2.4,Win32,59.05628064,Chrome,1368,912,,,,,1,751,,,,,,,,,,,,,,,,,F,181,star,1,0,,,,,,,,,,,,,,,,repeat,number,numRpt,k,0.4871,Lo,,,,,,2,,,,,,,,low,21,0,21,0,1,,,,,,,,,
297232,2022-12-05_12h25.08.379,vts_reward_expectancy_bt,2022.2.4,Win32,59.05628064,Chrome,1368,912,,,,,1,752,,,,,,,,,,,,,,,,,Y,139,hexagon,1,0,,,,,,,,,,,,,,,,switch,letter,lettSwt,f,0.5505,Hi,,,,,,2,,,,,,,,low,22,0,22,0,1,,,,,,,,,
297232,2022-12-05_12h25.08.379,vts_reward_expectancy_bt,2022.2.4,Win32,59.05628064,Chrome,1368,912,,,,,1,753,,,,,,,,,,,,,,,,,D,125,circle,1,0,,,,,,,,,,,,,,,,switch,number,numSwt,j,0.6174,Lo,,,,,,2,,,,,,,,low,23,0,23,0,1,,,,,,,,,
297232,2022-12-05_12h25.08.379,vts_reward_expectancy_bt,2022.2.4,Win32,59.05628064,Chrome,1368,912,,,,,0,753,,,,,,,,,,,,,,,,,F,174,hexagon,0,0,,,,,,,,,,,,,,,,switch,letter,NA,f,0.4709,Lo,,,,,,2,,,,,,,,low,24,0,24,0,1,,,,,,,,,
297232,2022-12-05_12h25.08.379,vts_reward_expectancy_bt,2022.2.4,Win32,59.05628064,Chrome,1368,912,,,,,10,763,,,,,,,,,,,,,,,,,H,160,triangle,1,1,,,,,,,,,,,,,,,,switch,number,numSwt,k,0.6018,Hi,,,,,,2,,,,,,,,low,25,0,25,0,1,,,,,,,,,
297232,2022-12-05_12h25.08.379,vts_reward_expectancy_bt,2022.2.4,Win32,59.05628064,Chrome,1368,912,,,,,1,764,,,,,,,,,,,,,,,,,D,125,star,1,0,,,,,,,,,,,,,,,,repeat,number,numRpt,j,0.6856,Lo,,,,,,2,,,,,,,,low,26,0,26,0,1,,,,,,,,,
297232,2022-12-05_12h25.08.379,vts_reward_expectancy_bt,2022.2.4,Win32,59.05628064,Chrome,1368,912,,,,,0,764,,,,,,,,,,,,,,,,,W,146,circle,0,0,,,,,,,,,,,,,,,,repeat,number,NA,k,1.5197,Lo,,,,,,2,,,,,,,,low,27,0,27,0,1,,,,,,,,,
297232,2022-12-05_12h25.08.379,vts_reward_expectancy_bt,2022.2.4,Win32,59.05628064,Chrome,1368,912,,,,,0,764,,,,,,,,,,,,,,,,,S,181,hexagon,1,1,,,,,,,,,,,,,,,,repeat,number,numRpt,k,0.6683,Hi,,,,,,2,,,,,,,,low,28,0,28,0,1,,,,,,,,,
297232,2022-12-05_12h25.08.379,vts_reward_expectancy_bt,2022.2.4,Win32,59.05628064,Chrome,1368,912,,,,,1,765,,,,,,,,,,,,,,,,,Y,139,circle,1,0,,,,,,,,,,,,,,,,repeat,number,numRpt,j,0.5685,Lo,,,,,,2,,,,,,,,low,29,0,29,0,1,,,,,,,,,
297232,2022-12-05_12h25.08.379,vts_reward_expectancy_bt,2022.2.4,Win32,59.05628064,Chrome,1368,912,,,,,10,775,,,,,,,,,,,,,,,,,U,132,triangle,1,0,,,,,,,,,,,,,,,,repeat,number,numRpt,j,0.5177,Hi,,,,,,2,,,,,,,,low,30,0,30,0,1,,,,,,,,,
297232,2022-12-05_12h25.08.379,vts_reward_expectancy_bt,2022.2.4,Win32,59.05628064,Chrome,1368,912,,,,,0,775,,,,,,,,,,,,,,,,,B,167,star,0,0,,,,,,,,,,,,,,,,switch,letter,NA,f,0.6559,Hi,,,,,,2,,,,,,,,low,31,0,31,0,1,,,,,,,,,
297232,2022-12-05_12h25.08.379,vts_reward_expectancy_bt,2022.2.4,Win32,59.05628064,Chrome,1368,912,,,,,1,776,,,,,,,,,,,,,,,,,S,181,circle,1,1,,,,,,,,,,,,,,,,repeat,letter,lettRpt,f,0.7009,Lo,,,,,,3,,,,,,space,0.8362,low,0,0,0,0,1,,,,,,,,,
297232,2022-12-05_12h25.08.379,vts_reward_expectancy_bt,2022.2.4,Win32,59.05628064,Chrome,1368,912,,,,,10,786,,,,,,,,,,,,,,,,,B,139,star,1,0,,,,,,,,,,,,,,,,switch,number,numSwt,j,0.8013,Lo,,,,,,3,,,,,,,,low,1,0,1,0,1,,,,,,,,,
297232,2022-12-05_12h25.08.379,vts_reward_expectancy_bt,2022.2.4,Win32,59.05628064,Chrome,1368,912,,,,,0,786,,,,,,,,,,,,,,,,,W,146,triangle,1,0,,,,,,,,,,,,,,,,repeat,number,numRpt,j,0.567,Hi,,,,,,3,,,,,,,,low,2,0,2,0,1,,,,,,,,,
297232,2022-12-05_12h25.08.379,vts_reward_expectancy_bt,2022.2.4,Win32,59.05628064,Chrome,1368,912,,,,,1,787,,,,,,,,,,,,,,,,,U,160,hexagon,1,0,,,,,,,,,,,,,,,,repeat,number,numRpt,k,0.4868,Hi,,,,,,3,,,,,,,,low,3,0,3,0,1,,,,,,,,,
297232,2022-12-05_12h25.08.379,vts_reward_expectancy_bt,2022.2.4,Win32,59.05628064,Chrome,1368,912,,,,,10,797,,,,,,,,,,,,,,,,,D,132,circle,1,0,,,,,,,,,,,,,,,,repeat,number,numRpt,j,0.4925,Lo,,,,,,3,,,,,,,,low,4,0,4,0,1,,,,,,,,,
297232,2022-12-05_12h25.08.379,vts_reward_expectancy_bt,2022.2.4,Win32,59.05628064,Chrome,1368,912,,,,,1,798,,,,,,,,,,,,,,,,,Y,125,star,1,0,,,,,,,,,,,,,,,,repeat,number,numRpt,j,0.6923,Lo,,,,,,3,,,,,,,,low,5,0,5,0,1,,,,,,,,,
297232,2022-12-05_12h25.08.379,vts_reward_expectancy_bt,2022.2.4,Win32,59.05628064,Chrome,1368,912,,,,,0,798,,,,,,,,,,,,,,,,,F,167,triangle,1,0,,,,,,,,,,,,,,,,switch,letter,lettSwt,d,0.7008,Hi,,,,,,3,,,,,,,,low,6,0,6,0,1,,,,,,,,,
297232,2022-12-05_12h25.08.379,vts_reward_expectancy_bt,2022.2.4,Win32,59.05628064,Chrome,1368,912,,,,,0,798,,,,,,,,,,,,,,,,,H,174,hexagon,1,0,,,,,,,,,,,,,,,,switch,number,numSwt,k,0.7037,Hi,,,,,,3,,,,,,,,low,7,0,7,0,1,,,,,,,,,
297232,2022-12-05_12h25.08.379,vts_reward_expectancy_bt,2022.2.4,Win32,59.05628064,Chrome,1368,912,,,,,0,798,,,,,,,,,,,,,,,,,S,181,circle,0,0,,,,,,,,,,,,,,,,switch,letter,NA,d,1.6008,Hi,,,,,,3,,,,,,,,low,8,0,8,0,1,,,,,,,,,
297232,2022-12-05_12h25.08.379,vts_reward_expectancy_bt,2022.2.4,Win32,59.05628064,Chrome,1368,912,,,,,1,799,,,,,,,,,,,,,,,,,B,139,star,1,1,,,,,,,,,,,,,,,,switch,number,numSwt,j,0.6517,Lo,,,,,,3,,,,,,,,low,9,0,9,0,1,,,,,,,,,
297232,2022-12-05_12h25.08.379,vts_reward_expectancy_bt,2022.2.4,Win32,59.05628064,Chrome,1368,912,,,,,0,799,,,,,,,,,,,,,,,,,W,146,hexagon,0,0,,,,,,,,,,,,,,,,repeat,number,NA,k,0.6673,Lo,,,,,,3,,,,,,,,low,10,0,10,0,1,,,,,,,,,
297232,2022-12-05_12h25.08.379,vts_reward_expectancy_bt,2022.2.4,Win32,59.05628064,Chrome,1368,912,,,,,0,799,,,,,,,,,,,,,,,,,U,160,triangle,0,1,,,,,,,,,,,,,,,,repeat,number,NA,j,1.018,Lo,,,,,,3,,,,,,,,low,11,0,11,0,1,,,,,,,,,
297232,2022-12-05_12h25.08.379,vts_reward_expectancy_bt,2022.2.4,Win32,59.05628064,Chrome,1368,912,,,,,10,809,,,,,,,,,,,,,,,,,D,132,star,1,1,,,,,,,,,,,,,,,,repeat,number,numRpt,j,1.0023,Lo,,,,,,3,,,,,,,,low,12,0,12,0,1,,,,,,,,,
297232,2022-12-05_12h25.08.379,vts_reward_expectancy_bt,2022.2.4,Win32,59.05628064,Chrome,1368,912,,,,,0,809,,,,,,,,,,,,,,,,,Y,125,triangle,1,0,,,,,,,,,,,,,,,,repeat,number,numRpt,j,0.5671,Hi,,,,,,3,,,,,,,,low,13,0,13,0,1,,,,,,,,,
297232,2022-12-05_12h25.08.379,vts_reward_expectancy_bt,2022.2.4,Win32,59.05628064,Chrome,1368,912,,,,,0,809,,,,,,,,,,,,,,,,,F,167,hexagon,1,0,,,,,,,,,,,,,,,,repeat,number,numRpt,k,0.9332,Hi,,,,,,3,,,,,,,,low,14,0,14,0,1,,,,,,,,,
297232,2022-12-05_12h25.08.379,vts_reward_expectancy_bt,2022.2.4,Win32,59.05628064,Chrome,1368,912,,,,,10,819,,,,,,,,,,,,,,,,,H,174,circle,1,0,,,,,,,,,,,,,,,,repeat,number,numRpt,k,0.7514,Lo,,,,,,3,,,,,,,,low,15,0,15,0,1,,,,,,,,,
297232,2022-12-05_12h25.08.379,vts_reward_expectancy_bt,2022.2.4,Win32,59.05628064,Chrome,1368,912,,,,,1,820,,,,,,,,,,,,,,,,,Y,167,circle,1,0,,,,,,,,,,,,,,,,repeat,number,numRpt,k,0.5686,Lo,,,,,,3,,,,,,,,low,16,0,16,0,1,,,,,,,,,
297232,2022-12-05_12h25.08.379,vts_reward_expectancy_bt,2022.2.4,Win32,59.05628064,Chrome,1368,912,,,,,0,820,,,,,,,,,,,,,,,,,D,139,hexagon,1,0,,,,,,,,,,,,,,,,repeat,number,numRpt,j,0.685,Hi,,,,,,3,,,,,,,,low,17,0,17,0,1,,,,,,,,,
297232,2022-12-05_12h25.08.379,vts_reward_expectancy_bt,2022.2.4,Win32,59.05628064,Chrome,1368,912,,,,,0,820,,,,,,,,,,,,,,,,,S,181,triangle,1,0,,,,,,,,,,,,,,,,repeat,number,numRpt,k,0.6017,Hi,,,,,,3,,,,,,,,low,18,0,18,0,1,,,,,,,,,
297232,2022-12-05_12h25.08.379,vts_reward_expectancy_bt,2022.2.4,Win32,59.05628064,Chrome,1368,912,,,,,1,821,,,,,,,,,,,,,,,,,W,146,star,1,0,,,,,,,,,,,,,,,,repeat,number,numRpt,j,2.3349,Lo,,,,,,3,,,,,,,,low,19,0,19,0,1,,,,,,,,,
297232,2022-12-05_12h25.08.379,vts_reward_expectancy_bt,2022.2.4,Win32,59.05628064,Chrome,1368,912,,,,,1,822,,,,,,,,,,,,,,,,,U,174,circle,1,0,,,,,,,,,,,,,,,,repeat,number,numRpt,k,0.8347,Lo,,,,,,3,,,,,,,,low,20,0,20,0,1,,,,,,,,,
297232,2022-12-05_12h25.08.379,vts_reward_expectancy_bt,2022.2.4,Win32,59.05628064,Chrome,1368,912,,,,,1,823,,,,,,,,,,,,,,,,,F,132,star,1,0,,,,,,,,,,,,,,,,repeat,number,numRpt,j,0.6681,Lo,,,,,,3,,,,,,,,low,21,0,21,0,1,,,,,,,,,
297232,2022-12-05_12h25.08.379,vts_reward_expectancy_bt,2022.2.4,Win32,59.05628064,Chrome,1368,912,,,,,0,823,,,,,,,,,,,,,,,,,B,160,hexagon,1,0,,,,,,,,,,,,,,,,repeat,number,numRpt,k,0.7271,Hi,,,,,,3,,,,,,,,low,22,0,22,0,1,,,,,,,,,
297232,2022-12-05_12h25.08.379,vts_reward_expectancy_bt,2022.2.4,Win32,59.05628064,Chrome,1368,912,,,,,0,823,,,,,,,,,,,,,,,,,H,125,triangle,1,0,,,,,,,,,,,,,,,,repeat,number,numRpt,j,0.5786,Hi,,,,,,3,,,,,,,,low,23,0,23,0,1,,,,,,,,,
297232,2022-12-05_12h25.08.379,vts_reward_expectancy_bt,2022.2.4,Win32,59.05628064,Chrome,1368,912,,,,,0,823,,,,,,,,,,,,,,,,,F,125,hexagon,1,0,,,,,,,,,,,,,,,,repeat,number,numRpt,j,0.5601,Hi,,,,,,3,,,,,,,,low,24,0,24,0,1,,,,,,,,,
297232,2022-12-05_12h25.08.379,vts_reward_expectancy_bt,2022.2.4,Win32,59.05628064,Chrome,1368,912,,,,,0,823,,,,,,,,,,,,,,,,,H,132,triangle,1,0,,,,,,,,,,,,,,,,repeat,number,numRpt,j,0.5181,Hi,,,,,,3,,,,,,,,low,25,0,25,0,1,,,,,,,,,
297232,2022-12-05_12h25.08.379,vts_reward_expectancy_bt,2022.2.4,Win32,59.05628064,Chrome,1368,912,,,,,10,833,,,,,,,,,,,,,,,,,Y,167,circle,1,0,,,,,,,,,,,,,,,,repeat,number,numRpt,k,0.5333,Lo,,,,,,3,,,,,,,,low,26,0,26,0,1,,,,,,,,,
297232,2022-12-05_12h25.08.379,vts_reward_expectancy_bt,2022.2.4,Win32,59.05628064,Chrome,1368,912,,,,,10,843,,,,,,,,,,,,,,,,,W,139,star,1,0,,,,,,,,,,,,,,,,repeat,number,numRpt,j,0.5346,Lo,,,,,,3,,,,,,,,low,27,0,27,0,1,,,,,,,,,
297232,2022-12-05_12h25.08.379,vts_reward_expectancy_bt,2022.2.4,Win32,59.05628064,Chrome,1368,912,,,,,1,844,,,,,,,,,,,,,,,,,U,174,star,1,0,,,,,,,,,,,,,,,,repeat,number,numRpt,k,0.552,Lo,,,,,,3,,,,,,,,low,28,0,28,0,1,,,,,,,,,
297232,2022-12-05_12h25.08.379,vts_reward_expectancy_bt,2022.2.4,Win32,59.05628064,Chrome,1368,912,,,,,0,844,,,,,,,,,,,,,,,,,D,160,hexagon,1,0,,,,,,,,,,,,,,,,repeat,number,numRpt,k,0.6175,Hi,,,,,,3,,,,,,,,low,29,0,29,0,1,,,,,,,,,
297232,2022-12-05_12h25.08.379,vts_reward_expectancy_bt,2022.2.4,Win32,59.05628064,Chrome,1368,912,,,,,1,845,,,,,,,,,,,,,,,,,S,181,circle,1,0,,,,,,,,,,,,,,,,repeat,number,numRpt,k,0.5173,Lo,,,,,,3,,,,,,,,low,30,0,30,0,1,,,,,,,,,
297232,2022-12-05_12h25.08.379,vts_reward_expectancy_bt,2022.2.4,Win32,59.05628064,Chrome,1368,912,,,,,10,855,,,,,,,,,,,,,,,,,B,146,triangle,1,0,,,,,,,,,,,,,,,,switch,letter,lettSwt,d,0.5172,Hi,,,,,,3,,,,,,,,low,31,0,31,0,1,,,,,,,,,
297232,2022-12-05_12h25.08.379,vts_reward_expectancy_bt,2022.2.4,Win32,59.05628064,Chrome,1368,912,,,,,10,865,,,,,,,,,,,,,,,,,B,132,circle,1,0,,,,,,,,,,,,,,,,switch,number,numSwt,j,0.8328,Lo,,,,,,4,,,,,,space,1.702,low,0,0,0,0,1,,,,,,,,,
297232,2022-12-05_12h25.08.379,vts_reward_expectancy_bt,2022.2.4,Win32,59.05628064,Chrome,1368,912,,,,,0,865,,,,,,,,,,,,,,,,,U,181,triangle,1,0,,,,,,,,,,,,,,,,repeat,number,numRpt,k,0.6681,Hi,,,,,,4,,,,,,,,low,1,0,1,0,1,,,,,,,,,
297232,2022-12-05_12h25.08.379,vts_reward_expectancy_bt,2022.2.4,Win32,59.05628064,Chrome,1368,912,,,,,0,865,,,,,,,,,,,,,,,,,F,125,hexagon,1,0,,,,,,,,,,,,,,,,repeat,number,numRpt,j,0.7016,Hi,,,,,,4,,,,,,,,low,2,0,2,0,1,,,,,,,,,
297232,2022-12-05_12h25.08.379,vts_reward_expectancy_bt,2022.2.4,Win32,59.05628064,Chrome,1368,912,,,,,1,866,,,,,,,,,,,,,,,,,S,139,star,1,0,,,,,,,,,,,,,,,,repeat,number,numRpt,j,0.6083,Lo,,,,,,4,,,,,,,,low,3,0,3,0,1,,,,,,,,,
297232,2022-12-05_12h25.08.379,vts_reward_expectancy_bt,2022.2.4,Win32,59.05628064,Chrome,1368,912,,,,,1,867,,,,,,,,,,,,,,,,,W,174,circle,1,0,,,,,,,,,,,,,,,,repeat,number,numRpt,k,0.5183,Lo,,,,,,4,,,,,,,,low,4,0,4,0,1,,,,,,,,,
297232,2022-12-05_12h25.08.379,vts_reward_expectancy_bt,2022.2.4,Win32,59.05628064,Chrome,1368,912,,,,,1,868,,,,,,,,,,,,,,,,,D,160,triangle,1,0,,,,,,,,,,,,,,,,switch,letter,lettSwt,d,0.6675,Hi,,,,,,4,,,,,,,,low,5,0,5,0,1,,,,,,,,,
297232,2022-12-05_12h25.08.379,vts_reward_expectancy_bt,2022.2.4,Win32,59.05628064,Chrome,1368,912,,,,,1,869,,,,,,,,,,,,,,,,,H,167,hexagon,1,0,,,,,,,,,,,,,,,,repeat,letter,lettRpt,d,0.5185,Hi,,,,,,4,,,,,,,,low,6,0,6,0,1,,,,,,,,,
297232,2022-12-05_12h25.08.379,vts_reward_expectancy_bt,2022.2.4,Win32,59.05628064,Chrome,1368,912,,,,,0,869,,,,,,,,,,,,,,,,,Y,146,star,0,0,,,,,,,,,,,,,,,,switch,number,NA,k,0.7848,Hi,,,,,,4,,,,,,,,low,7,0,7,0,1,,,,,,,,,
297232,2022-12-05_12h25.08.379,vts_reward_expectancy_bt,2022.2.4,Win32,59.05628064,Chrome,1368,912,,,,,10,879,,,,,,,,,,,,,,,,,B,132,hexagon,1,1,,,,,,,,,,,,,,,,repeat,number,numRpt,j,0.4884,Hi,,,,,,4,,,,,,,,low,8,0,8,0,1,,,,,,,,,
297232,2022-12-05_12h25.08.379,vts_reward_expectancy_bt,2022.2.4,Win32,59.05628064,Chrome,1368,912,,,,,1,880,,,,,,,,,,,,,,,,,U,181,circle,1,0,,,,,,,,,,,,,,,,repeat,number,numRpt,k,1.1352,Lo,,,,,,4,,,,,,,,low,9,0,9,0,1,,,,,,,,,
297232,2022-12-05_12h25.08.379,vts_reward_expectancy_bt,2022.2.4,Win32,59.05628064,Chrome,1368,912,,,,,0,880,,,,,,,,,,,,,,,,,F,125,triangle,1,0,,,,,,,,,,,,,,,,switch,letter,lettSwt,d,1.589,Hi,,,,,,4,,,,,,,,low,10,0,10,0,1,,,,,,,,,
297232,2022-12-05_12h25.08.379,vts_reward_expectancy_bt,2022.2.4,Win32,59.05628064,Chrome,1368,912,,,,,0,880,,,,,,,,,,,,,,,,,S,139,star,0,0,,,,,,,,,,,,,,,,switch,number,NA,k,1.8064,Hi,,,,,,4,,,,,,,,low,11,0,11,0,1,,,,,,,,,
297232,2022-12-05_12h25.08.379,vts_reward_expectancy_bt,2022.2.4,Win32,59.05628064,Chrome,1368,912,,,,,1,881,,,,,,,,,,,,,,,,,W,174,star,1,1,,,,,,,,,,,,,,,,switch,letter,lettSwt,f,1.3689,Lo,,,,,,4,,,,,,,,low,12,0,12,0,1,,,,,,,,,
297232,2022-12-05_12h25.08.379,vts_reward_expectancy_bt,2022.2.4,Win32,59.05628064,Chrome,1368,912,,,,,1,882,,,,,,,,,,,,,,,,,D,160,circle,1,0,,,,,,,,,,,,,,,,switch,number,numSwt,k,0.7182,Lo,,,,,,4,,,,,,,,low,13,0,13,0,1,,,,,,,,,
297232,2022-12-05_12h25.08.379,vts_reward_expectancy_bt,2022.2.4,Win32,59.05628064,Chrome,1368,912,,,,,0,882,,,,,,,,,,,,,,,,,H,167,hexagon,1,0,,,,,,,,,,,,,,,,repeat,number,numRpt,k,1.1181,Hi,,,,,,4,,,,,,,,low,14,0,14,0,1,,,,,,,,,
297232,2022-12-05_12h25.08.379,vts_reward_expectancy_bt,2022.2.4,Win32,59.05628064,Chrome,1368,912,,,,,0,882,,,,,,,,,,,,,,,,,Y,146,triangle,1,0,,,,,,,,,,,,,,,,repeat,number,numRpt,j,1.4531,Hi,,,,,,4,,,,,,,,low,15,0,15,0,1,,,,,,,,,
297232,2022-12-05_12h25.08.379,vts_reward_expectancy_bt,2022.2.4,Win32,59.05628064,Chrome,1368,912,,,,,1,883,,,,,,,,,,,,,,,,,H,181,star,1,0,,,,,,,,,,,,,,,,repeat,number,numRpt,k,1.369,Lo,,,,,,4,,,,,,,,low,16,0,16,0,1,,,,,,,,,
297232,2022-12-05_12h25.08.379,vts_reward_expectancy_bt,2022.2.4,Win32,59.05628064,Chrome,1368,912,,,,,1,884,,,,,,,,,,,,,,,,,S,167,circle,1,0,,,,,,,,,,,,,,,,switch,letter,lettSwt,f,2.0021,Lo,,,,,,4,,,,,,,,low,17,0,17,0,1,,,,,,,,,
297232,2022-12-05_12h25.08.379,vts_reward_expectancy_bt,2022.2.4,Win32,59.05628064,Chrome,1368,912,,,,,0,884,,,,,,,,,,,,,,,,,F,125,hexagon,0,0,,,,,,,,,,,,,,,,repeat,letter,NA,f,2.2432,Lo,,,,,,4,,,,,,,,low,18,0,18,0,1,,,,,,,,,
297232,2022-12-05_12h25.08.379,vts_reward_expectancy_bt,2022.2.4,Win32,59.05628064,Chrome,1368,912,,,,,0,884,,,,,,,,,,,,,,,,,Y,146,triangle,-1,1,,,,,,,,,,,,,,,,switch,no_choice,NA,,,Lo,,,,,,4,,,,,,,,low,19,0,19,0,1,,,,,,,,,
297232,2022-12-05_12h25.08.379,vts_reward_expectancy_bt,2022.2.4,Win32,59.05628064,Chrome,1368,912,,,,,1,885,,,,,,,,,,,,,,,,,U,139,star,1,0,,,,,,,,,,,,,,,,switch,letter,lettSwt,f,2.8021,Lo,,,,,,4,,,,,,,,low,20,0,20,0,1,,,,,,,,,
297232,2022-12-05_12h25.08.379,vts_reward_expectancy_bt,2022.2.4,Win32,59.05628064,Chrome,1368,912,,,,,0,885,,,,,,,,,,,,,,,,,B,160,hexagon,-1,0,,,,,,,,,,,,,,,,switch,no_choice,NA,,,Lo,,,,,,4,,,,,,,,low,21,0,21,0,1,,,,,,,,,
297232,2022-12-05_12h25.08.379,vts_reward_expectancy_bt,2022.2.4,Win32,59.05628064,Chrome,1368,912,,,,,0,885,,,,,,,,,,,,,,,,,D,132,triangle,0,0,,,,,,,,,,,,,,,,switch,letter,NA,f,2.6527,Lo,,,,,,4,,,,,,,,low,22,0,22,0,1,,,,,,,,,
297232,2022-12-05_12h25.08.379,vts_reward_expectancy_bt,2022.2.4,Win32,59.05628064,Chrome,1368,912,,,,,0,885,,,,,,,,,,,,,,,,,W,174,circle,0,1,,,,,,,,,,,,,,,,repeat,letter,NA,d,0.7916,Lo,,,,,,4,,,,,,,,low,23,0,23,0,1,,,,,,,,,
297232,2022-12-05_12h25.08.379,vts_reward_expectancy_bt,2022.2.4,Win32,59.05628064,Chrome,1368,912,,,,,0,885,,,,,,,,,,,,,,,,,S,167,triangle,1,1,,,,,,,,,,,,,,,,repeat,letter,lettRpt,f,0.9695,Hi,,,,,,4,,,,,,,,low,24,0,24,0,1,,,,,,,,,
297232,2022-12-05_12h25.08.379,vts_reward_expectancy_bt,2022.2.4,Win32,59.05628064,Chrome,1368,912,,,,,10,895,,,,,,,,,,,,,,,,,Y,160,circle,1,0,,,,,,,,,,,,,,,,switch,number,numSwt,k,0.9011,Lo,,,,,,4,,,,,,,,low,25,0,25,0,1,,,,,,,,,
297232,2022-12-05_12h25.08.379,vts_reward_expectancy_bt,2022.2.4,Win32,59.05628064,Chrome,1368,912,,,,,0,895,,,,,,,,,,,,,,,,,B,139,hexagon,1,0,,,,,,,,,,,,,,,,switch,letter,lettSwt,d,0.8582,Hi,,,,,,4,,,,,,,,low,26,0,26,0,1,,,,,,,,,
297232,2022-12-05_12h25.08.379,vts_reward_expectancy_bt,2022.2.4,Win32,59.05628064,Chrome,1368,912,,,,,0,895,,,,,,,,,,,,,,,,,F,146,star,0,0,,,,,,,,,,,,,,,,repeat,letter,NA,f,0.5675,Hi,,,,,,4,,,,,,,,low,27,0,27,0,1,,,,,,,,,
297232,2022-12-05_12h25.08.379,vts_reward_expectancy_bt,2022.2.4,Win32,59.05628064,Chrome,1368,912,,,,,0,895,,,,,,,,,,,,,,,,,H,174,hexagon,1,1,,,,,,,,,,,,,,,,repeat,letter,lettRpt,d,1.0015,Hi,,,,,,4,,,,,,,,low,28,0,28,0,1,,,,,,,,,
297232,2022-12-05_12h25.08.379,vts_reward_expectancy_bt,2022.2.4,Win32,59.05628064,Chrome,1368,912,,,,,0,895,,,,,,,,,,,,,,,,,W,125,star,0,0,,,,,,,,,,,,,,,,repeat,letter,NA,d,1.0705,Hi,,,,,,4,,,,,,,,low,29,0,29,0,1,,,,,,,,,
297232,2022-12-05_12h25.08.379,vts_reward_expectancy_bt,2022.2.4,Win32,59.05628064,Chrome,1368,912,,,,,0,895,,,,,,,,,,,,,,,,,D,132,triangle,1,1,,,,,,,,,,,,,,,,switch,number,numSwt,j,1.1351,Hi,,,,,,4,,,,,,,,low,30,0,30,0,1,,,,,,,,,
297232,2022-12-05_12h25.08.379,vts_reward_expectancy_bt,2022.2.4,Win32,59.05628064,Chrome,1368,912,,,,,10,905,,,,,,,,,,,,,,,,,U,181,circle,1,0,,,,,,,,,,,,,,,,repeat,number,numRpt,k,0.7363,Lo,,,,,,4,,,,,,,,low,31,0,31,0,1,,,,,,,,,
297232,2022-12-05_12h25.08.379,vts_reward_expectancy_bt,2022.2.4,Win32,59.05628064,Chrome,1368,912,,,,,0,905,,,,,,,,,,,,,,,,,B,181,triangle,1,0,,,,,,,,,,,,,,,,repeat,number,numRpt,k,0.8179,Hi,,,,,,5,,,,,,space,0.9704,low,0,0,0,0,1,,,,,,,,,
297232,2022-12-05_12h25.08.379,vts_reward_expectancy_bt,2022.2.4,Win32,59.05628064,Chrome,1368,912,,,,,1,906,,,,,,,,,,,,,,,,,Y,132,circle,1,0,,,,,,,,,,,,,,,,repeat,number,numRpt,j,0.7333,Lo,,,,,,5,,,,,,,,low,1,0,1,0,1,,,,,,,,,
297232,2022-12-05_12h25.08.379,vts_reward_expectancy_bt,2022.2.4,Win32,59.05628064,Chrome,1368,912,,,,,1,907,,,,,,,,,,,,,,,,,D,125,star,1,0,,,,,,,,,,,,,,,,repeat,number,numRpt,j,0.6344,Lo,,,,,,5,,,,,,,,low,2,0,2,0,1,,,,,,,,,
297232,2022-12-05_12h25.08.379,vts_reward_expectancy_bt,2022.2.4,Win32,59.05628064,Chrome,1368,912,,,,,10,917,,,,,,,,,,,,,,,,,U,146,hexagon,1,0,,,,,,,,,,,,,,,,repeat,number,numRpt,j,0.5853,Hi,,,,,,5,,,,,,,,low,3,0,3,0,1,,,,,,,,,
297232,2022-12-05_12h25.08.379,vts_reward_expectancy_bt,2022.2.4,Win32,59.05628064,Chrome,1368,912,,,,,0,917,,,,,,,,,,,,,,,,,F,167,triangle,0,0,,,,,,,,,,,,,,,,repeat,number,NA,j,0.4183,Hi,,,,,,5,,,,,,,,low,4,0,4,0,1,,,,,,,,,
297232,2022-12-05_12h25.08.379,vts_reward_expectancy_bt,2022.2.4,Win32,59.05628064,Chrome,1368,912,,,,,1,918,,,,,,,,,,,,,,,,,W,160,circle,1,1,,,,,,,,,,,,,,,,repeat,number,numRpt,k,0.502,Lo,,,,,,5,,,,,,,,low,5,0,5,0,1,,,,,,,,,
297232,2022-12-05_12h25.08.379,vts_reward_expectancy_bt,2022.2.4,Win32,59.05628064,Chrome,1368,912,,,,,10,928,,,,,,,,,,,,,,,,,H,174,star,1,0,,,,,,,,,,,,,,,,repeat,number,numRpt,k,0.4501,Lo,,,,,,5,,,,,,,,low,6,0,6,0,1,,,,,,,,,
297232,2022-12-05_12h25.08.379,vts_reward_expectancy_bt,2022.2.4,Win32,59.05628064,Chrome,1368,912,,,,,10,938,,,,,,,,,,,,,,,,,S,139,hexagon,1,0,,,,,,,,,,,,,,,,repeat,number,numRpt,j,0.6343,Hi,,,,,,5,,,,,,,,low,7,0,7,0,1,,,,,,,,,
297232,2022-12-05_12h25.08.379,vts_reward_expectancy_bt,2022.2.4,Win32,59.05628064,Chrome,1368,912,,,,,1,939,,,,,,,,,,,,,,,,,B,181,hexagon,1,0,,,,,,,,,,,,,,,,repeat,number,numRpt,k,0.4836,Hi,,,,,,5,,,,,,,,low,8,0,8,0,1,,,,,,,,,
297232,2022-12-05_12h25.08.379,vts_reward_expectancy_bt,2022.2.4,Win32,59.05628064,Chrome,1368,912,,,,,1,940,,,,,,,,,,,,,,,,,Y,132,star,1,0,,,,,,,,,,,,,,,,repeat,number,numRpt,j,0.5601,Lo,,,,,,5,,,,,,,,low,9,0,9,0,1,,,,,,,,,
297232,2022-12-05_12h25.08.379,vts_reward_expectancy_bt,2022.2.4,Win32,59.05628064,Chrome,1368,912,,,,,10,950,,,,,,,,,,,,,,,,,D,125,circle,1,0,,,,,,,,,,,,,,,,repeat,number,numRpt,j,0.6514,Lo,,,,,,5,,,,,,,,low,10,0,10,0,1,,,,,,,,,
297232,2022-12-05_12h25.08.379,vts_reward_expectancy_bt,2022.2.4,Win32,59.05628064,Chrome,1368,912,,,,,10,960,,,,,,,,,,,,,,,,,U,146,triangle,1,0,,,,,,,,,,,,,,,,switch,letter,lettSwt,f,0.7681,Hi,,,,,,5,,,,,,,,low,11,0,11,0,1,,,,,,,,,
297232,2022-12-05_12h25.08.379,vts_reward_expectancy_bt,2022.2.4,Win32,59.05628064,Chrome,1368,912,,,,,1,961,,,,,,,,,,,,,,,,,F,167,circle,1,0,,,,,,,,,,,,,,,,repeat,letter,lettRpt,d,0.7005,Lo,,,,,,5,,,,,,,,low,12,0,12,0,1,,,,,,,,,
297232,2022-12-05_12h25.08.379,vts_reward_expectancy_bt,2022.2.4,Win32,59.05628064,Chrome,1368,912,,,,,0,961,,,,,,,,,,,,,,,,,W,160,hexagon,1,0,,,,,,,,,,,,,,,,repeat,letter,lettRpt,f,0.968,Hi,,,,,,5,,,,,,,,low,13,0,13,0,1,,,,,,,,,
297232,2022-12-05_12h25.08.379,vts_reward_expectancy_bt,2022.2.4,Win32,59.05628064,Chrome,1368,912,,,,,0,961,,,,,,,,,,,,,,,,,H,174,triangle,0,0,,,,,,,,,,,,,,,,repeat,letter,NA,f,0.7017,Hi,,,,,,5,,,,,,,,low,14,0,14,0,1,,,,,,,,,
297232,2022-12-05_12h25.08.379,vts_reward_expectancy_bt,2022.2.4,Win32,59.05628064,Chrome,1368,912,,,,,1,962,,,,,,,,,,,,,,,,,S,139,star,1,1,,,,,,,,,,,,,,,,switch,number,numSwt,j,0.5512,Lo,,,,,,5,,,,,,,,low,15,0,15,0,1,,,,,,,,,
297232,2022-12-05_12h25.08.379,vts_reward_expectancy_bt,2022.2.4,Win32,59.05628064,Chrome,1368,912,,,,,10,972,,,,,,,,,,,,,,,,,U,146,circle,1,0,,,,,,,,,,,,,,,,repeat,number,numRpt,j,0.7673,Lo,,,,,,5,,,,,,,,low,16,0,16,0,1,,,,,,,,,
297232,2022-12-05_12h25.08.379,vts_reward_expectancy_bt,2022.2.4,Win32,59.05628064,Chrome,1368,912,,,,,10,982,,,,,,,,,,,,,,,,,W,174,hexagon,1,0,,,,,,,,,,,,,,,,repeat,number,numRpt,k,0.6358,Hi,,,,,,5,,,,,,,,low,17,0,17,0,1,,,,,,,,,
297232,2022-12-05_12h25.08.379,vts_reward_expectancy_bt,2022.2.4,Win32,59.05628064,Chrome,1368,912,,,,,10,992,,,,,,,,,,,,,,,,,H,181,triangle,1,0,,,,,,,,,,,,,,,,repeat,number,numRpt,k,0.651,Hi,,,,,,5,,,,,,,,low,18,0,18,0,1,,,,,,,,,
297232,2022-12-05_12h25.08.379,vts_reward_expectancy_bt,2022.2.4,Win32,59.05628064,Chrome,1368,912,,,,,1,993,,,,,,,,,,,,,,,,,Y,167,star,1,0,,,,,,,,,,,,,,,,repeat,number,numRpt,k,0.4825,Lo,,,,,,5,,,,,,,,low,19,0,19,0,1,,,,,,,,,
297232,2022-12-05_12h25.08.379,vts_reward_expectancy_bt,2022.2.4,Win32,59.05628064,Chrome,1368,912,,,,,10,1003,,,,,,,,,,,,,,,,,S,160,star,1,0,,,,,,,,,,,,,,,,repeat,number,numRpt,k,0.6349,Lo,,,,,,5,,,,,,,,low,20,0,20,0,1,,,,,,,,,
297232,2022-12-05_12h25.08.379,vts_reward_expectancy_bt,2022.2.4,Win32,59.05628064,Chrome,1368,912,,,,,1,1004,,,,,,,,,,,,,,,,,B,139,circle,1,0,,,,,,,,,,,,,,,,switch,letter,lettSwt,d,0.8183,Lo,,,,,,5,,,,,,,,low,21,0,21,0,1,,,,,,,,,
297232,2022-12-05_12h25.08.379,vts_reward_expectancy_bt,2022.2.4,Win32,59.05628064,Chrome,1368,912,,,,,1,1005,,,,,,,,,,,,,,,,,D,125,hexagon,1,0,,,,,,,,,,,,,,,,repeat,letter,lettRpt,d,0.8018,Hi,,,,,,5,,,,,,,,low,22,0,22,0,1,,,,,,,,,
297232,2022-12-05_12h25.08.379,vts_reward_expectancy_bt,2022.2.4,Win32,59.05628064,Chrome,1368,912,,,,,0,1005,,,,,,,,,,,,,,,,,F,132,triangle,1,0,,,,,,,,,,,,,,,,repeat,letter,lettRpt,d,0.9508,Hi,,,,,,5,,,,,,,,low,23,0,23,0,1,,,,,,,,,
297232,2022-12-05_12h25.08.379,vts_reward_expectancy_bt,2022.2.4,Win32,59.05628064,Chrome,1368,912,,,,,0,1005,,,,,,,,,,,,,,,,,W,167,hexagon,1,0,,,,,,,,,,,,,,,,switch,number,numSwt,k,1.2179,Hi,,,,,,5,,,,,,,,low,24,0,24,0,1,,,,,,,,,
297232,2022-12-05_12h25.08.379,vts_reward_expectancy_bt,2022.2.4,Win32,59.05628064,Chrome,1368,912,,,,,0,1005,,,,,,,,,,,,,,,,,F,125,circle,0,0,,,,,,,,,,,,,,,,switch,letter,NA,f,0.9519,Hi,,,,,,5,,,,,,,,low,25,0,25,0,1,,,,,,,,,
297232,2022-12-05_12h25.08.379,vts_reward_expectancy_bt,2022.2.4,Win32,59.05628064,Chrome,1368,912,,,,,0,1005,,,,,,,,,,,,,,,,,B,181,triangle,1,1,,,,,,,,,,,,,,,,switch,number,numSwt,k,0.9027,Hi,,,,,,5,,,,,,,,low,26,0,26,0,1,,,,,,,,,
297232,2022-12-05_12h25.08.379,vts_reward_expectancy_bt,2022.2.4,Win32,59.05628064,Chrome,1368,912,,,,,0,1005,,,,,,,,,,,,,,,,,Y,139,star,0,0,,,,,,,,,,,,,,,,repeat,number,NA,k,2.8865,Hi,,,,,,5,,,,,,,,low,27,0,27,0,1,,,,,,,,,
297232,2022-12-05_12h25.08.379,vts_reward_expectancy_bt,2022.2.4,Win32,59.05628064,Chrome,1368,912,,,,,0,1005,,,,,,,,,,,,,,,,,H,132,hexagon,1,1,,,,,,,,,,,,,,,,repeat,number,numRpt,j,1.604,Hi,,,,,,5,,,,,,,,low,28,0,28,0,1,,,,,,,,,
297232,2022-12-05_12h25.08.379,vts_reward_expectancy_bt,2022.2.4,Win32,59.05628064,Chrome,1368,912,,,,,10,1015,,,,,,,,,,,,,,,,,S,174,circle,1,0,,,,,,,,,,,,,,,,repeat,number,numRpt,k,1.2842,Lo,,,,,,5,,,,,,,,low,29,0,29,0,1,,,,,,,,,
297232,2022-12-05_12h25.08.379,vts_reward_expectancy_bt,2022.2.4,Win32,59.05628064,Chrome,1368,912,,,,,10,1025,,,,,,,,,,,,,,,,,D,160,triangle,1,0,,,,,,,,,,,,,,,,repeat,number,numRpt,k,0.6515,Hi,,,,,,5,,,,,,,,low,30,0,30,0,1,,,,,,,,,
297232,2022-12-05_12h25.08.379,vts_reward_expectancy_bt,2022.2.4,Win32,59.05628064,Chrome,1368,912,,,,,10,1035,,,,,,,,,,,,,,,,,U,146,star,1,0,,,,,,,,,,,,,,,,switch,letter,lettSwt,f,0.6353,Lo,,,,,,5,,,,,,,,low,31,0,31,0,1,,,,,,,,,
297232,2022-12-05_12h25.08.379,vts_reward_expectancy_bt,2022.2.4,Win32,59.05628064,Chrome,1368,912,,,,,1,1036,,,,,,,,,,,,,,,,,B,174,circle,1,0,,,,,,,,,,,,,,,,switch,number,numSwt,k,1.1095,Lo,,,,,,6,,,,,,space,0.6519,low,0,0,0,0,1,,,,,,,,,
297232,2022-12-05_12h25.08.379,vts_reward_expectancy_bt,2022.2.4,Win32,59.05628064,Chrome,1368,912,,,,,1,1037,,,,,,,,,,,,,,,,,S,167,star,1,0,,,,,,,,,,,,,,,,repeat,number,numRpt,k,0.4201,Lo,,,,,,6,,,,,,,,low,1,0,1,0,1,,,,,,,,,
297232,2022-12-05_12h25.08.379,vts_reward_expectancy_bt,2022.2.4,Win32,59.05628064,Chrome,1368,912,,,,,0,1037,,,,,,,,,,,,,,,,,F,146,hexagon,1,0,,,,,,,,,,,,,,,,repeat,number,numRpt,j,0.8181,Hi,,,,,,6,,,,,,,,low,2,0,2,0,1,,,,,,,,,
297232,2022-12-05_12h25.08.379,vts_reward_expectancy_bt,2022.2.4,Win32,59.05628064,Chrome,1368,912,,,,,0,1037,,,,,,,,,,,,,,,,,W,160,triangle,1,0,,,,,,,,,,,,,,,,repeat,number,numRpt,k,0.6893,Hi,,,,,,6,,,,,,,,low,3,0,3,0,1,,,,,,,,,
297232,2022-12-05_12h25.08.379,vts_reward_expectancy_bt,2022.2.4,Win32,59.05628064,Chrome,1368,912,,,,,1,1038,,,,,,,,,,,,,,,,,H,132,circle,1,0,,,,,,,,,,,,,,,,switch,letter,lettSwt,d,0.6857,Lo,,,,,,6,,,,,,,,low,4,0,4,0,1,,,,,,,,,
297232,2022-12-05_12h25.08.379,vts_reward_expectancy_bt,2022.2.4,Win32,59.05628064,Chrome,1368,912,,,,,10,1048,,,,,,,,,,,,,,,,,D,181,star,1,0,,,,,,,,,,,,,,,,switch,number,numSwt,k,0.4688,Lo,,,,,,6,,,,,,,,low,5,0,5,0,1,,,,,,,,,
297232,2022-12-05_12h25.08.379,vts_reward_expectancy_bt,2022.2.4,Win32,59.05628064,Chrome,1368,912,,,,,10,1058,,,,,,,,,,,,,,,,,Y,139,hexagon,1,0,,,,,,,,,,,,,,,,repeat,number,numRpt,j,0.4519,Hi,,,,,,6,,,,,,,,low,6,0,6,0,1,,,,,,,,,
297232,2022-12-05_12h25.08.379,vts_reward_expectancy_bt,2022.2.4,Win32,59.05628064,Chrome,1368,912,,,,,1,1059,,,,,,,,,,,,,,,,,U,125,triangle,1,0,,,,,,,,,,,,,,,,switch,letter,lettSwt,f,0.7219,Hi,,,,,,6,,,,,,,,low,7,0,7,0,1,,,,,,,,,
297232,2022-12-05_12h25.08.379,vts_reward_expectancy_bt,2022.2.4,Win32,59.05628064,Chrome,1368,912,,,,,10,1069,,,,,,,,,,,,,,,,,B,174,hexagon,1,0,,,,,,,,,,,,,,,,switch,number,numSwt,k,0.6518,Hi,,,,,,6,,,,,,,,low,8,0,8,0,1,,,,,,,,,
