participant,date,expName,psychopyVersion,OS,frameRate,browser,xResolution,yResolution,key_resp.keys,key_resp.rt,training_resp.keys,training_resp.rt,points_trial,points_cumul,trainBlock,training.thisRepN,training.thisTrialN,training.thisN,training.thisIndex,training.ran,LTriangleOpac,LCircleOpac,LHexagonOpac,LStarOpac,RTriangleOpac,RCircleOpac,RHexagonOpac,RStarOpac,LShape_ID,RShape_ID,curr_topStim,curr_bottStim,curr_shape,acc,E1,target_resp_prac1.keys,target_resp_prac1.rt,pracBlock,task1_prac_trials.thisRepN,task1_prac_trials.thisTrialN,task1_prac_trials.thisN,task1_prac_trials.thisIndex,task1_prac_trials.ran,target_resp_prac2.keys,target_resp_prac2.rt,task2_praac_trials.thisRepN,task2_praac_trials.thisTrialN,task2_praac_trials.thisN,task2_praac_trials.thisIndex,task2_praac_trials.ran,alt,task,condition,target_resp.keys,target_resp.rt,rewCond,vts_practice_trials.thisRepN,vts_practice_trials.thisTrialN,vts_practice_trials.thisN,vts_practice_trials.thisIndex,vts_practice_trials.ran,blockNum,trials_norew.thisRepN,trials_norew.thisTrialN,trials_norew.thisN,trials_norew.thisIndex,trials_norew.ran,key_resp_2.keys,key_resp_2.rt,rewExpectancy,trials_rew.thisRepN,trials_rew.thisTrialN,trials_rew.thisN,trials_rew.thisIndex,trials_rew.ran,Q1,Q2,Q2_text,Q3,Q4,Q5_text,Q5,xRes,yRes
297220,2022-12-05_14h34.01.892,vts_reward_expectancy_bt,2022.2.4,Win32,60.81245439,Chrome,1280,720,,,,,,,,,,,,,,,,,,,,,,,,,,,,,,,,,,,,,,,,,,,,,,,,,,,,,,,,,,,,,,,,,,,,,,,,,,,,
297220,2022-12-05_14h34.01.892,vts_reward_expectancy_bt,2022.2.4,Win32,60.81245439,Chrome,1280,720,space,16.9758,,,,,,,,,,,,,,,,,,,,,,,,,,,,,,,,,,,,,,,,,,,,,,,,,,,,,,,,,,,,,,,,,,,,,,,,,,
297220,2022-12-05_14h34.01.892,vts_reward_expectancy_bt,2022.2.4,Win32,60.81245439,Chrome,1280,720,,,,,,,,,,,,,,,,,,,,,,,,,,,,,,,,,,,,,,,,,,,,,,,,,,,,,,,,,,,,,,,,,,,,,,,,,,,,
297220,2022-12-05_14h34.01.892,vts_reward_expectancy_bt,2022.2.4,Win32,60.81245439,Chrome,1280,720,,,a,1.5036,10,10,0,0,0,0,11,1,0,0,0,1,0,0,1,0,star,hexagon,,,,,,,,,,,,,,,,,,,,,,,,,,,,,,,,,,,,,,,,,,,,,,,,,,,,,,
297220,2022-12-05_14h34.01.892,vts_reward_expectancy_bt,2022.2.4,Win32,60.81245439,Chrome,1280,720,,,a,1.4664,10,20,0,0,1,1,6,1,0,0,1,0,1,0,0,0,hexagon,triangle,,,,,,,,,,,,,,,,,,,,,,,,,,,,,,,,,,,,,,,,,,,,,,,,,,,,,,
297220,2022-12-05_14h34.01.892,vts_reward_expectancy_bt,2022.2.4,Win32,60.81245439,Chrome,1280,720,,,l,0.7322,1,21,0,0,2,2,4,1,0,1,0,0,0,0,1,0,circle,hexagon,,,,,,,,,,,,,,,,,,,,,,,,,,,,,,,,,,,,,,,,,,,,,,,,,,,,,,
297220,2022-12-05_14h34.01.892,vts_reward_expectancy_bt,2022.2.4,Win32,60.81245439,Chrome,1280,720,,,a,0.9363,1,22,0,0,3,3,0,1,1,0,0,0,0,1,0,0,triangle,circle,,,,,,,,,,,,,,,,,,,,,,,,,,,,,,,,,,,,,,,,,,,,,,,,,,,,,,
297220,2022-12-05_14h34.01.892,vts_reward_expectancy_bt,2022.2.4,Win32,60.81245439,Chrome,1280,720,,,a,0.6021,10,32,0,0,4,4,7,1,0,0,1,0,0,1,0,0,hexagon,circle,,,,,,,,,,,,,,,,,,,,,,,,,,,,,,,,,,,,,,,,,,,,,,,,,,,,,,
297220,2022-12-05_14h34.01.892,vts_reward_expectancy_bt,2022.2.4,Win32,60.81245439,Chrome,1280,720,,,l,0.8238,1,33,0,0,5,5,1,1,1,0,0,0,0,0,1,0,triangle,hexagon,,,,,,,,,,,,,,,,,,,,,,,,,,,,,,,,,,,,,,,,,,,,,,,,,,,,,,
297220,2022-12-05_14h34.01.892,vts_reward_expectancy_bt,2022.2.4,Win32,60.81245439,Chrome,1280,720,,,a,0.5621,1,34,0,0,6,6,9,1,0,0,0,1,1,0,0,0,star,triangle,,,,,,,,,,,,,,,,,,,,,,,,,,,,,,,,,,,,,,,,,,,,,,,,,,,,,,
297220,2022-12-05_14h34.01.892,vts_reward_expectancy_bt,2022.2.4,Win32,60.81245439,Chrome,1280,720,,,a,0.6097,1,35,0,0,7,7,10,1,0,0,0,1,0,1,0,0,star ,circle,,,,,,,,,,,,,,,,,,,,,,,,,,,,,,,,,,,,,,,,,,,,,,,,,,,,,,
297220,2022-12-05_14h34.01.892,vts_reward_expectancy_bt,2022.2.4,Win32,60.81245439,Chrome,1280,720,,,l,0.5896,1,36,0,0,8,8,5,1,0,1,0,0,0,0,0,1,circle,star,,,,,,,,,,,,,,,,,,,,,,,,,,,,,,,,,,,,,,,,,,,,,,,,,,,,,,
297220,2022-12-05_14h34.01.892,vts_reward_expectancy_bt,2022.2.4,Win32,60.81245439,Chrome,1280,720,,,a,1.0165,1,37,0,0,9,9,2,1,1,0,0,0,0,0,0,1,triangle,star,,,,,,,,,,,,,,,,,,,,,,,,,,,,,,,,,,,,,,,,,,,,,,,,,,,,,,
297220,2022-12-05_14h34.01.892,vts_reward_expectancy_bt,2022.2.4,Win32,60.81245439,Chrome,1280,720,,,a,1.3544,10,47,0,0,10,10,3,1,0,1,0,0,1,0,0,0,circle,triangle,,,,,,,,,,,,,,,,,,,,,,,,,,,,,,,,,,,,,,,,,,,,,,,,,,,,,,
297220,2022-12-05_14h34.01.892,vts_reward_expectancy_bt,2022.2.4,Win32,60.81245439,Chrome,1280,720,,,l,0.6427,10,57,0,0,11,11,8,1,0,0,1,0,0,0,0,1,hexagon,star,,,,,,,,,,,,,,,,,,,,,,,,,,,,,,,,,,,,,,,,,,,,,,,,,,,,,,
297220,2022-12-05_14h34.01.892,vts_reward_expectancy_bt,2022.2.4,Win32,60.81245439,Chrome,1280,720,,,a,0.5426,10,67,0,1,0,12,10,1,0,0,0,1,0,1,0,0,star ,circle,,,,,,,,,,,,,,,,,,,,,,,,,,,,,,,,,,,,,,,,,,,,,,,,,,,,,,
297220,2022-12-05_14h34.01.892,vts_reward_expectancy_bt,2022.2.4,Win32,60.81245439,Chrome,1280,720,,,l,0.8817,1,68,0,1,1,13,6,1,0,0,1,0,1,0,0,0,hexagon,triangle,,,,,,,,,,,,,,,,,,,,,,,,,,,,,,,,,,,,,,,,,,,,,,,,,,,,,,
297220,2022-12-05_14h34.01.892,vts_reward_expectancy_bt,2022.2.4,Win32,60.81245439,Chrome,1280,720,,,l,0.7707,1,69,0,1,2,14,8,1,0,0,1,0,0,0,0,1,hexagon,star,,,,,,,,,,,,,,,,,,,,,,,,,,,,,,,,,,,,,,,,,,,,,,,,,,,,,,
297220,2022-12-05_14h34.01.892,vts_reward_expectancy_bt,2022.2.4,Win32,60.81245439,Chrome,1280,720,,,a,1.1567,10,79,0,1,3,15,1,1,1,0,0,0,0,0,1,0,triangle,hexagon,,,,,,,,,,,,,,,,,,,,,,,,,,,,,,,,,,,,,,,,,,,,,,,,,,,,,,
297220,2022-12-05_14h34.01.892,vts_reward_expectancy_bt,2022.2.4,Win32,60.81245439,Chrome,1280,720,,,l,0.9824,10,89,0,1,4,16,4,1,0,1,0,0,0,0,1,0,circle,hexagon,,,,,,,,,,,,,,,,,,,,,,,,,,,,,,,,,,,,,,,,,,,,,,,,,,,,,,
297220,2022-12-05_14h34.01.892,vts_reward_expectancy_bt,2022.2.4,Win32,60.81245439,Chrome,1280,720,,,a,0.997,10,99,0,1,5,17,0,1,1,0,0,0,0,1,0,0,triangle,circle,,,,,,,,,,,,,,,,,,,,,,,,,,,,,,,,,,,,,,,,,,,,,,,,,,,,,,
297220,2022-12-05_14h34.01.892,vts_reward_expectancy_bt,2022.2.4,Win32,60.81245439,Chrome,1280,720,,,a,0.5529,1,100,0,1,6,18,9,1,0,0,0,1,1,0,0,0,star,triangle,,,,,,,,,,,,,,,,,,,,,,,,,,,,,,,,,,,,,,,,,,,,,,,,,,,,,,
297220,2022-12-05_14h34.01.892,vts_reward_expectancy_bt,2022.2.4,Win32,60.81245439,Chrome,1280,720,,,a,1.0064,10,110,0,1,7,19,2,1,1,0,0,0,0,0,0,1,triangle,star,,,,,,,,,,,,,,,,,,,,,,,,,,,,,,,,,,,,,,,,,,,,,,,,,,,,,,
297220,2022-12-05_14h34.01.892,vts_reward_expectancy_bt,2022.2.4,Win32,60.81245439,Chrome,1280,720,,,a,0.9928,1,111,0,1,8,20,3,1,0,1,0,0,1,0,0,0,circle,triangle,,,,,,,,,,,,,,,,,,,,,,,,,,,,,,,,,,,,,,,,,,,,,,,,,,,,,,
297220,2022-12-05_14h34.01.892,vts_reward_expectancy_bt,2022.2.4,Win32,60.81245439,Chrome,1280,720,,,a,0.6861,10,121,0,1,9,21,7,1,0,0,1,0,0,1,0,0,hexagon,circle,,,,,,,,,,,,,,,,,,,,,,,,,,,,,,,,,,,,,,,,,,,,,,,,,,,,,,
297220,2022-12-05_14h34.01.892,vts_reward_expectancy_bt,2022.2.4,Win32,60.81245439,Chrome,1280,720,,,l,0.5825,10,131,0,1,10,22,5,1,0,1,0,0,0,0,0,1,circle,star,,,,,,,,,,,,,,,,,,,,,,,,,,,,,,,,,,,,,,,,,,,,,,,,,,,,,,
297220,2022-12-05_14h34.01.892,vts_reward_expectancy_bt,2022.2.4,Win32,60.81245439,Chrome,1280,720,,,a,1.2213,1,132,0,1,11,23,11,1,0,0,0,1,0,0,1,0,star,hexagon,,,,,,,,,,,,,,,,,,,,,,,,,,,,,,,,,,,,,,,,,,,,,,,,,,,,,,
297220,2022-12-05_14h34.01.892,vts_reward_expectancy_bt,2022.2.4,Win32,60.81245439,Chrome,1280,720,,,l,0.7804,10,142,0,2,0,24,5,1,0,1,0,0,0,0,0,1,circle,star,,,,,,,,,,,,,,,,,,,,,,,,,,,,,,,,,,,,,,,,,,,,,,,,,,,,,,
297220,2022-12-05_14h34.01.892,vts_reward_expectancy_bt,2022.2.4,Win32,60.81245439,Chrome,1280,720,,,l,0.8538,10,152,0,2,1,25,1,1,1,0,0,0,0,0,1,0,triangle,hexagon,,,,,,,,,,,,,,,,,,,,,,,,,,,,,,,,,,,,,,,,,,,,,,,,,,,,,,
297220,2022-12-05_14h34.01.892,vts_reward_expectancy_bt,2022.2.4,Win32,60.81245439,Chrome,1280,720,,,a,0.5819,10,162,0,2,2,26,10,1,0,0,0,1,0,1,0,0,star ,circle,,,,,,,,,,,,,,,,,,,,,,,,,,,,,,,,,,,,,,,,,,,,,,,,,,,,,,
297220,2022-12-05_14h34.01.892,vts_reward_expectancy_bt,2022.2.4,Win32,60.81245439,Chrome,1280,720,,,l,1.2484,10,172,0,2,3,27,0,1,1,0,0,0,0,1,0,0,triangle,circle,,,,,,,,,,,,,,,,,,,,,,,,,,,,,,,,,,,,,,,,,,,,,,,,,,,,,,
297220,2022-12-05_14h34.01.892,vts_reward_expectancy_bt,2022.2.4,Win32,60.81245439,Chrome,1280,720,,,a,0.5757,1,173,0,2,4,28,7,1,0,0,1,0,0,1,0,0,hexagon,circle,,,,,,,,,,,,,,,,,,,,,,,,,,,,,,,,,,,,,,,,,,,,,,,,,,,,,,
297220,2022-12-05_14h34.01.892,vts_reward_expectancy_bt,2022.2.4,Win32,60.81245439,Chrome,1280,720,,,a,0.7321,10,183,0,2,5,29,3,1,0,1,0,0,1,0,0,0,circle,triangle,,,,,,,,,,,,,,,,,,,,,,,,,,,,,,,,,,,,,,,,,,,,,,,,,,,,,,
297220,2022-12-05_14h34.01.892,vts_reward_expectancy_bt,2022.2.4,Win32,60.81245439,Chrome,1280,720,,,a,0.8763,10,193,0,2,6,30,9,1,0,0,0,1,1,0,0,0,star,triangle,,,,,,,,,,,,,,,,,,,,,,,,,,,,,,,,,,,,,,,,,,,,,,,,,,,,,,
297220,2022-12-05_14h34.01.892,vts_reward_expectancy_bt,2022.2.4,Win32,60.81245439,Chrome,1280,720,,,l,0.6317,1,194,0,2,7,31,2,1,1,0,0,0,0,0,0,1,triangle,star,,,,,,,,,,,,,,,,,,,,,,,,,,,,,,,,,,,,,,,,,,,,,,,,,,,,,,
297220,2022-12-05_14h34.01.892,vts_reward_expectancy_bt,2022.2.4,Win32,60.81245439,Chrome,1280,720,,,l,0.838,10,204,0,2,8,32,4,1,0,1,0,0,0,0,1,0,circle,hexagon,,,,,,,,,,,,,,,,,,,,,,,,,,,,,,,,,,,,,,,,,,,,,,,,,,,,,,
297220,2022-12-05_14h34.01.892,vts_reward_expectancy_bt,2022.2.4,Win32,60.81245439,Chrome,1280,720,,,l,0.74,1,205,0,2,9,33,8,1,0,0,1,0,0,0,0,1,hexagon,star,,,,,,,,,,,,,,,,,,,,,,,,,,,,,,,,,,,,,,,,,,,,,,,,,,,,,,
297220,2022-12-05_14h34.01.892,vts_reward_expectancy_bt,2022.2.4,Win32,60.81245439,Chrome,1280,720,,,a,0.7664,10,215,0,2,10,34,6,1,0,0,1,0,1,0,0,0,hexagon,triangle,,,,,,,,,,,,,,,,,,,,,,,,,,,,,,,,,,,,,,,,,,,,,,,,,,,,,,
297220,2022-12-05_14h34.01.892,vts_reward_expectancy_bt,2022.2.4,Win32,60.81245439,Chrome,1280,720,,,a,0.5276,1,216,0,2,11,35,11,1,0,0,0,1,0,0,1,0,star,hexagon,,,,,,,,,,,,,,,,,,,,,,,,,,,,,,,,,,,,,,,,,,,,,,,,,,,,,,
297220,2022-12-05_14h34.01.892,vts_reward_expectancy_bt,2022.2.4,Win32,60.81245439,Chrome,1280,720,,,l,0.8154,10,226,1,0,0,0,0,1,1,0,0,0,0,1,0,0,triangle,circle,,,,,,,,,,,,,,,,,,,,,,,,,,,,,,,,,,,,,,,,,,,,,,,,,,,,,,
297220,2022-12-05_14h34.01.892,vts_reward_expectancy_bt,2022.2.4,Win32,60.81245439,Chrome,1280,720,,,a,0.5736,10,236,1,0,1,1,9,1,0,0,0,1,1,0,0,0,star,triangle,,,,,,,,,,,,,,,,,,,,,,,,,,,,,,,,,,,,,,,,,,,,,,,,,,,,,,
297220,2022-12-05_14h34.01.892,vts_reward_expectancy_bt,2022.2.4,Win32,60.81245439,Chrome,1280,720,,,l,0.6301,1,237,1,0,2,2,4,1,0,1,0,0,0,0,1,0,circle,hexagon,,,,,,,,,,,,,,,,,,,,,,,,,,,,,,,,,,,,,,,,,,,,,,,,,,,,,,
297220,2022-12-05_14h34.01.892,vts_reward_expectancy_bt,2022.2.4,Win32,60.81245439,Chrome,1280,720,,,a,0.4788,1,238,1,0,3,3,3,1,0,1,0,0,1,0,0,0,circle,triangle,,,,,,,,,,,,,,,,,,,,,,,,,,,,,,,,,,,,,,,,,,,,,,,,,,,,,,
297220,2022-12-05_14h34.01.892,vts_reward_expectancy_bt,2022.2.4,Win32,60.81245439,Chrome,1280,720,,,l,0.5385,1,239,1,0,4,4,6,1,0,0,1,0,1,0,0,0,hexagon,triangle,,,,,,,,,,,,,,,,,,,,,,,,,,,,,,,,,,,,,,,,,,,,,,,,,,,,,,
297220,2022-12-05_14h34.01.892,vts_reward_expectancy_bt,2022.2.4,Win32,60.81245439,Chrome,1280,720,,,a,0.6173,1,240,1,0,5,5,1,1,1,0,0,0,0,0,1,0,triangle,hexagon,,,,,,,,,,,,,,,,,,,,,,,,,,,,,,,,,,,,,,,,,,,,,,,,,,,,,,
297220,2022-12-05_14h34.01.892,vts_reward_expectancy_bt,2022.2.4,Win32,60.81245439,Chrome,1280,720,,,l,0.4824,1,241,1,0,6,6,5,1,0,1,0,0,0,0,0,1,circle,star,,,,,,,,,,,,,,,,,,,,,,,,,,,,,,,,,,,,,,,,,,,,,,,,,,,,,,
297220,2022-12-05_14h34.01.892,vts_reward_expectancy_bt,2022.2.4,Win32,60.81245439,Chrome,1280,720,,,a,0.3934,1,242,1,0,7,7,7,1,0,0,1,0,0,1,0,0,hexagon,circle,,,,,,,,,,,,,,,,,,,,,,,,,,,,,,,,,,,,,,,,,,,,,,,,,,,,,,
297220,2022-12-05_14h34.01.892,vts_reward_expectancy_bt,2022.2.4,Win32,60.81245439,Chrome,1280,720,,,a,0.4347,10,252,1,0,8,8,11,1,0,0,0,1,0,0,1,0,star,hexagon,,,,,,,,,,,,,,,,,,,,,,,,,,,,,,,,,,,,,,,,,,,,,,,,,,,,,,
297220,2022-12-05_14h34.01.892,vts_reward_expectancy_bt,2022.2.4,Win32,60.81245439,Chrome,1280,720,,,a,0.4138,10,262,1,0,9,9,10,1,0,0,0,1,0,1,0,0,star ,circle,,,,,,,,,,,,,,,,,,,,,,,,,,,,,,,,,,,,,,,,,,,,,,,,,,,,,,
297220,2022-12-05_14h34.01.892,vts_reward_expectancy_bt,2022.2.4,Win32,60.81245439,Chrome,1280,720,,,l,0.4048,1,263,1,0,10,10,8,1,0,0,1,0,0,0,0,1,hexagon,star,,,,,,,,,,,,,,,,,,,,,,,,,,,,,,,,,,,,,,,,,,,,,,,,,,,,,,
297220,2022-12-05_14h34.01.892,vts_reward_expectancy_bt,2022.2.4,Win32,60.81245439,Chrome,1280,720,,,a,0.6205,1,264,1,0,11,11,2,1,1,0,0,0,0,0,0,1,triangle,star,,,,,,,,,,,,,,,,,,,,,,,,,,,,,,,,,,,,,,,,,,,,,,,,,,,,,,
297220,2022-12-05_14h34.01.892,vts_reward_expectancy_bt,2022.2.4,Win32,60.81245439,Chrome,1280,720,,,a,0.39,1,265,1,1,0,12,11,1,0,0,0,1,0,0,1,0,star,hexagon,,,,,,,,,,,,,,,,,,,,,,,,,,,,,,,,,,,,,,,,,,,,,,,,,,,,,,
297220,2022-12-05_14h34.01.892,vts_reward_expectancy_bt,2022.2.4,Win32,60.81245439,Chrome,1280,720,,,l,0.8721,1,266,1,1,1,13,1,1,1,0,0,0,0,0,1,0,triangle,hexagon,,,,,,,,,,,,,,,,,,,,,,,,,,,,,,,,,,,,,,,,,,,,,,,,,,,,,,
297220,2022-12-05_14h34.01.892,vts_reward_expectancy_bt,2022.2.4,Win32,60.81245439,Chrome,1280,720,,,a,0.5669,10,276,1,1,2,14,0,1,1,0,0,0,0,1,0,0,triangle,circle,,,,,,,,,,,,,,,,,,,,,,,,,,,,,,,,,,,,,,,,,,,,,,,,,,,,,,
297220,2022-12-05_14h34.01.892,vts_reward_expectancy_bt,2022.2.4,Win32,60.81245439,Chrome,1280,720,,,l,0.575,1,277,1,1,3,15,7,1,0,0,1,0,0,1,0,0,hexagon,circle,,,,,,,,,,,,,,,,,,,,,,,,,,,,,,,,,,,,,,,,,,,,,,,,,,,,,,
297220,2022-12-05_14h34.01.892,vts_reward_expectancy_bt,2022.2.4,Win32,60.81245439,Chrome,1280,720,,,a,0.4509,10,287,1,1,4,16,6,1,0,0,1,0,1,0,0,0,hexagon,triangle,,,,,,,,,,,,,,,,,,,,,,,,,,,,,,,,,,,,,,,,,,,,,,,,,,,,,,
297220,2022-12-05_14h34.01.892,vts_reward_expectancy_bt,2022.2.4,Win32,60.81245439,Chrome,1280,720,,,l,0.616,10,297,1,1,5,17,5,1,0,1,0,0,0,0,0,1,circle,star,,,,,,,,,,,,,,,,,,,,,,,,,,,,,,,,,,,,,,,,,,,,,,,,,,,,,,
297220,2022-12-05_14h34.01.892,vts_reward_expectancy_bt,2022.2.4,Win32,60.81245439,Chrome,1280,720,,,a,0.443,10,307,1,1,6,18,10,1,0,0,0,1,0,1,0,0,star ,circle,,,,,,,,,,,,,,,,,,,,,,,,,,,,,,,,,,,,,,,,,,,,,,,,,,,,,,
297220,2022-12-05_14h34.01.892,vts_reward_expectancy_bt,2022.2.4,Win32,60.81245439,Chrome,1280,720,,,l,0.7441,1,308,1,1,7,19,9,1,0,0,0,1,1,0,0,0,star,triangle,,,,,,,,,,,,,,,,,,,,,,,,,,,,,,,,,,,,,,,,,,,,,,,,,,,,,,
297220,2022-12-05_14h34.01.892,vts_reward_expectancy_bt,2022.2.4,Win32,60.81245439,Chrome,1280,720,,,a,0.5511,1,309,1,1,8,20,3,1,0,1,0,0,1,0,0,0,circle,triangle,,,,,,,,,,,,,,,,,,,,,,,,,,,,,,,,,,,,,,,,,,,,,,,,,,,,,,
297220,2022-12-05_14h34.01.892,vts_reward_expectancy_bt,2022.2.4,Win32,60.81245439,Chrome,1280,720,,,l,0.6663,10,319,1,1,9,21,2,1,1,0,0,0,0,0,0,1,triangle,star,,,,,,,,,,,,,,,,,,,,,,,,,,,,,,,,,,,,,,,,,,,,,,,,,,,,,,
297220,2022-12-05_14h34.01.892,vts_reward_expectancy_bt,2022.2.4,Win32,60.81245439,Chrome,1280,720,,,l,0.4094,1,320,1,1,10,22,4,1,0,1,0,0,0,0,1,0,circle,hexagon,,,,,,,,,,,,,,,,,,,,,,,,,,,,,,,,,,,,,,,,,,,,,,,,,,,,,,
297220,2022-12-05_14h34.01.892,vts_reward_expectancy_bt,2022.2.4,Win32,60.81245439,Chrome,1280,720,,,l,0.6203,10,330,1,1,11,23,8,1,0,0,1,0,0,0,0,1,hexagon,star,,,,,,,,,,,,,,,,,,,,,,,,,,,,,,,,,,,,,,,,,,,,,,,,,,,,,,
297220,2022-12-05_14h34.01.892,vts_reward_expectancy_bt,2022.2.4,Win32,60.81245439,Chrome,1280,720,,,a,1.3831,10,340,1,2,0,24,10,1,0,0,0,1,0,1,0,0,star ,circle,,,,,,,,,,,,,,,,,,,,,,,,,,,,,,,,,,,,,,,,,,,,,,,,,,,,,,
297220,2022-12-05_14h34.01.892,vts_reward_expectancy_bt,2022.2.4,Win32,60.81245439,Chrome,1280,720,,,a,1.0832,10,350,1,2,1,25,4,1,0,1,0,0,0,0,1,0,circle,hexagon,,,,,,,,,,,,,,,,,,,,,,,,,,,,,,,,,,,,,,,,,,,,,,,,,,,,,,
297220,2022-12-05_14h34.01.892,vts_reward_expectancy_bt,2022.2.4,Win32,60.81245439,Chrome,1280,720,,,a,1.6058,10,360,1,2,2,26,8,1,0,0,1,0,0,0,0,1,hexagon,star,,,,,,,,,,,,,,,,,,,,,,,,,,,,,,,,,,,,,,,,,,,,,,,,,,,,,,
297220,2022-12-05_14h34.01.892,vts_reward_expectancy_bt,2022.2.4,Win32,60.81245439,Chrome,1280,720,,,l,1.0592,1,361,1,2,3,27,11,1,0,0,0,1,0,0,1,0,star,hexagon,,,,,,,,,,,,,,,,,,,,,,,,,,,,,,,,,,,,,,,,,,,,,,,,,,,,,,
297220,2022-12-05_14h34.01.892,vts_reward_expectancy_bt,2022.2.4,Win32,60.81245439,Chrome,1280,720,,,l,0.9183,10,371,1,2,4,28,9,1,0,0,0,1,1,0,0,0,star,triangle,,,,,,,,,,,,,,,,,,,,,,,,,,,,,,,,,,,,,,,,,,,,,,,,,,,,,,
297220,2022-12-05_14h34.01.892,vts_reward_expectancy_bt,2022.2.4,Win32,60.81245439,Chrome,1280,720,,,l,1.2494,10,381,1,2,5,29,0,1,1,0,0,0,0,1,0,0,triangle,circle,,,,,,,,,,,,,,,,,,,,,,,,,,,,,,,,,,,,,,,,,,,,,,,,,,,,,,
297220,2022-12-05_14h34.01.892,vts_reward_expectancy_bt,2022.2.4,Win32,60.81245439,Chrome,1280,720,,,a,0.9678,10,391,1,2,6,30,3,1,0,1,0,0,1,0,0,0,circle,triangle,,,,,,,,,,,,,,,,,,,,,,,,,,,,,,,,,,,,,,,,,,,,,,,,,,,,,,
297220,2022-12-05_14h34.01.892,vts_reward_expectancy_bt,2022.2.4,Win32,60.81245439,Chrome,1280,720,,,a,0.6177,1,392,1,2,7,31,2,1,1,0,0,0,0,0,0,1,triangle,star,,,,,,,,,,,,,,,,,,,,,,,,,,,,,,,,,,,,,,,,,,,,,,,,,,,,,,
297220,2022-12-05_14h34.01.892,vts_reward_expectancy_bt,2022.2.4,Win32,60.81245439,Chrome,1280,720,,,a,0.9087,10,402,1,2,8,32,5,1,0,1,0,0,0,0,0,1,circle,star,,,,,,,,,,,,,,,,,,,,,,,,,,,,,,,,,,,,,,,,,,,,,,,,,,,,,,
297220,2022-12-05_14h34.01.892,vts_reward_expectancy_bt,2022.2.4,Win32,60.81245439,Chrome,1280,720,,,a,1.069,10,412,1,2,9,33,1,1,1,0,0,0,0,0,1,0,triangle,hexagon,,,,,,,,,,,,,,,,,,,,,,,,,,,,,,,,,,,,,,,,,,,,,,,,,,,,,,
297220,2022-12-05_14h34.01.892,vts_reward_expectancy_bt,2022.2.4,Win32,60.81245439,Chrome,1280,720,,,l,0.8274,10,422,1,2,10,34,7,1,0,0,1,0,0,1,0,0,hexagon,circle,,,,,,,,,,,,,,,,,,,,,,,,,,,,,,,,,,,,,,,,,,,,,,,,,,,,,,
297220,2022-12-05_14h34.01.892,vts_reward_expectancy_bt,2022.2.4,Win32,60.81245439,Chrome,1280,720,,,l,0.9093,10,432,1,2,11,35,6,1,0,0,1,0,1,0,0,0,hexagon,triangle,,,,,,,,,,,,,,,,,,,,,,,,,,,,,,,,,,,,,,,,,,,,,,,,,,,,,,
297220,2022-12-05_14h34.01.892,vts_reward_expectancy_bt,2022.2.4,Win32,60.81245439,Chrome,1280,720,,,a,1.1819,1,433,2,0,0,0,1,1,1,0,0,0,0,0,1,0,triangle,hexagon,,,,,,,,,,,,,,,,,,,,,,,,,,,,,,,,,,,,,,,,,,,,,,,,,,,,,,
297220,2022-12-05_14h34.01.892,vts_reward_expectancy_bt,2022.2.4,Win32,60.81245439,Chrome,1280,720,,,l,0.5551,1,434,2,0,1,1,2,1,1,0,0,0,0,0,0,1,triangle,star,,,,,,,,,,,,,,,,,,,,,,,,,,,,,,,,,,,,,,,,,,,,,,,,,,,,,,
297220,2022-12-05_14h34.01.892,vts_reward_expectancy_bt,2022.2.4,Win32,60.81245439,Chrome,1280,720,,,l,1.249,10,444,2,0,2,2,3,1,0,1,0,0,1,0,0,0,circle,triangle,,,,,,,,,,,,,,,,,,,,,,,,,,,,,,,,,,,,,,,,,,,,,,,,,,,,,,
297220,2022-12-05_14h34.01.892,vts_reward_expectancy_bt,2022.2.4,Win32,60.81245439,Chrome,1280,720,,,a,0.6708,1,445,2,0,3,3,6,1,0,0,1,0,1,0,0,0,hexagon,triangle,,,,,,,,,,,,,,,,,,,,,,,,,,,,,,,,,,,,,,,,,,,,,,,,,,,,,,
297220,2022-12-05_14h34.01.892,vts_reward_expectancy_bt,2022.2.4,Win32,60.81245439,Chrome,1280,720,,,l,0.5599,1,446,2,0,4,4,8,1,0,0,1,0,0,0,0,1,hexagon,star,,,,,,,,,,,,,,,,,,,,,,,,,,,,,,,,,,,,,,,,,,,,,,,,,,,,,,
297220,2022-12-05_14h34.01.892,vts_reward_expectancy_bt,2022.2.4,Win32,60.81245439,Chrome,1280,720,,,l,0.7148,1,447,2,0,5,5,11,1,0,0,0,1,0,0,1,0,star,hexagon,,,,,,,,,,,,,,,,,,,,,,,,,,,,,,,,,,,,,,,,,,,,,,,,,,,,,,
297220,2022-12-05_14h34.01.892,vts_reward_expectancy_bt,2022.2.4,Win32,60.81245439,Chrome,1280,720,,,a,0.4338,1,448,2,0,6,6,5,1,0,1,0,0,0,0,0,1,circle,star,,,,,,,,,,,,,,,,,,,,,,,,,,,,,,,,,,,,,,,,,,,,,,,,,,,,,,
297220,2022-12-05_14h34.01.892,vts_reward_expectancy_bt,2022.2.4,Win32,60.81245439,Chrome,1280,720,,,a,0.6222,1,449,2,0,7,7,9,1,0,0,0,1,1,0,0,0,star,triangle,,,,,,,,,,,,,,,,,,,,,,,,,,,,,,,,,,,,,,,,,,,,,,,,,,,,,,
297220,2022-12-05_14h34.01.892,vts_reward_expectancy_bt,2022.2.4,Win32,60.81245439,Chrome,1280,720,,,l,0.5598,1,450,2,0,8,8,7,1,0,0,1,0,0,1,0,0,hexagon,circle,,,,,,,,,,,,,,,,,,,,,,,,,,,,,,,,,,,,,,,,,,,,,,,,,,,,,,
297220,2022-12-05_14h34.01.892,vts_reward_expectancy_bt,2022.2.4,Win32,60.81245439,Chrome,1280,720,,,a,0.2832,10,460,2,0,9,9,4,1,0,1,0,0,0,0,1,0,circle,hexagon,,,,,,,,,,,,,,,,,,,,,,,,,,,,,,,,,,,,,,,,,,,,,,,,,,,,,,
297220,2022-12-05_14h34.01.892,vts_reward_expectancy_bt,2022.2.4,Win32,60.81245439,Chrome,1280,720,,,l,0.4731,10,470,2,0,10,10,0,1,1,0,0,0,0,1,0,0,triangle,circle,,,,,,,,,,,,,,,,,,,,,,,,,,,,,,,,,,,,,,,,,,,,,,,,,,,,,,
297220,2022-12-05_14h34.01.892,vts_reward_expectancy_bt,2022.2.4,Win32,60.81245439,Chrome,1280,720,,,l,0.4507,10,480,2,0,11,11,10,1,0,0,0,1,0,1,0,0,star ,circle,,,,,,,,,,,,,,,,,,,,,,,,,,,,,,,,,,,,,,,,,,,,,,,,,,,,,,
297220,2022-12-05_14h34.01.892,vts_reward_expectancy_bt,2022.2.4,Win32,60.81245439,Chrome,1280,720,,,a,0.4441,10,490,2,1,0,12,8,1,0,0,1,0,0,0,0,1,hexagon,star,,,,,,,,,,,,,,,,,,,,,,,,,,,,,,,,,,,,,,,,,,,,,,,,,,,,,,
297220,2022-12-05_14h34.01.892,vts_reward_expectancy_bt,2022.2.4,Win32,60.81245439,Chrome,1280,720,,,l,0.6395,10,500,2,1,1,13,9,1,0,0,0,1,1,0,0,0,star,triangle,,,,,,,,,,,,,,,,,,,,,,,,,,,,,,,,,,,,,,,,,,,,,,,,,,,,,,
297220,2022-12-05_14h34.01.892,vts_reward_expectancy_bt,2022.2.4,Win32,60.81245439,Chrome,1280,720,,,l,0.3862,10,510,2,1,2,14,11,1,0,0,0,1,0,0,1,0,star,hexagon,,,,,,,,,,,,,,,,,,,,,,,,,,,,,,,,,,,,,,,,,,,,,,,,,,,,,,
297220,2022-12-05_14h34.01.892,vts_reward_expectancy_bt,2022.2.4,Win32,60.81245439,Chrome,1280,720,,,a,0.3425,10,520,2,1,3,15,5,1,0,1,0,0,0,0,0,1,circle,star,,,,,,,,,,,,,,,,,,,,,,,,,,,,,,,,,,,,,,,,,,,,,,,,,,,,,,
297220,2022-12-05_14h34.01.892,vts_reward_expectancy_bt,2022.2.4,Win32,60.81245439,Chrome,1280,720,,,a,0.5853,10,530,2,1,4,16,2,1,1,0,0,0,0,0,0,1,triangle,star,,,,,,,,,,,,,,,,,,,,,,,,,,,,,,,,,,,,,,,,,,,,,,,,,,,,,,
297220,2022-12-05_14h34.01.892,vts_reward_expectancy_bt,2022.2.4,Win32,60.81245439,Chrome,1280,720,,,l,0.4825,10,540,2,1,5,17,6,1,0,0,1,0,1,0,0,0,hexagon,triangle,,,,,,,,,,,,,,,,,,,,,,,,,,,,,,,,,,,,,,,,,,,,,,,,,,,,,,
297220,2022-12-05_14h34.01.892,vts_reward_expectancy_bt,2022.2.4,Win32,60.81245439,Chrome,1280,720,,,l,0.4581,10,550,2,1,6,18,0,1,1,0,0,0,0,1,0,0,triangle,circle,,,,,,,,,,,,,,,,,,,,,,,,,,,,,,,,,,,,,,,,,,,,,,,,,,,,,,
297220,2022-12-05_14h34.01.892,vts_reward_expectancy_bt,2022.2.4,Win32,60.81245439,Chrome,1280,720,,,a,0.4503,1,551,2,1,7,19,3,1,0,1,0,0,1,0,0,0,circle,triangle,,,,,,,,,,,,,,,,,,,,,,,,,,,,,,,,,,,,,,,,,,,,,,,,,,,,,,
297220,2022-12-05_14h34.01.892,vts_reward_expectancy_bt,2022.2.4,Win32,60.81245439,Chrome,1280,720,,,l,0.4174,10,561,2,1,8,20,10,1,0,0,0,1,0,1,0,0,star ,circle,,,,,,,,,,,,,,,,,,,,,,,,,,,,,,,,,,,,,,,,,,,,,,,,,,,,,,
297220,2022-12-05_14h34.01.892,vts_reward_expectancy_bt,2022.2.4,Win32,60.81245439,Chrome,1280,720,,,l,0.4326,1,562,2,1,9,21,7,1,0,0,1,0,0,1,0,0,hexagon,circle,,,,,,,,,,,,,,,,,,,,,,,,,,,,,,,,,,,,,,,,,,,,,,,,,,,,,,
297220,2022-12-05_14h34.01.892,vts_reward_expectancy_bt,2022.2.4,Win32,60.81245439,Chrome,1280,720,,,a,0.467,1,563,2,1,10,22,4,1,0,1,0,0,0,0,1,0,circle,hexagon,,,,,,,,,,,,,,,,,,,,,,,,,,,,,,,,,,,,,,,,,,,,,,,,,,,,,,
297220,2022-12-05_14h34.01.892,vts_reward_expectancy_bt,2022.2.4,Win32,60.81245439,Chrome,1280,720,,,l,0.6672,1,564,2,1,11,23,1,1,1,0,0,0,0,0,1,0,triangle,hexagon,,,,,,,,,,,,,,,,,,,,,,,,,,,,,,,,,,,,,,,,,,,,,,,,,,,,,,
297220,2022-12-05_14h34.01.892,vts_reward_expectancy_bt,2022.2.4,Win32,60.81245439,Chrome,1280,720,,,l,0.6048,10,574,2,2,0,24,11,1,0,0,0,1,0,0,1,0,star,hexagon,,,,,,,,,,,,,,,,,,,,,,,,,,,,,,,,,,,,,,,,,,,,,,,,,,,,,,
297220,2022-12-05_14h34.01.892,vts_reward_expectancy_bt,2022.2.4,Win32,60.81245439,Chrome,1280,720,,,a,0.4805,10,584,2,2,1,25,3,1,0,1,0,0,1,0,0,0,circle,triangle,,,,,,,,,,,,,,,,,,,,,,,,,,,,,,,,,,,,,,,,,,,,,,,,,,,,,,
297220,2022-12-05_14h34.01.892,vts_reward_expectancy_bt,2022.2.4,Win32,60.81245439,Chrome,1280,720,,,a,2.5777,10,594,2,2,2,26,8,1,0,0,1,0,0,0,0,1,hexagon,star,,,,,,,,,,,,,,,,,,,,,,,,,,,,,,,,,,,,,,,,,,,,,,,,,,,,,,
297220,2022-12-05_14h34.01.892,vts_reward_expectancy_bt,2022.2.4,Win32,60.81245439,Chrome,1280,720,,,l,0.449,10,604,2,2,3,27,7,1,0,0,1,0,0,1,0,0,hexagon,circle,,,,,,,,,,,,,,,,,,,,,,,,,,,,,,,,,,,,,,,,,,,,,,,,,,,,,,
297220,2022-12-05_14h34.01.892,vts_reward_expectancy_bt,2022.2.4,Win32,60.81245439,Chrome,1280,720,,,a,0.9001,10,614,2,2,4,28,2,1,1,0,0,0,0,0,0,1,triangle,star,,,,,,,,,,,,,,,,,,,,,,,,,,,,,,,,,,,,,,,,,,,,,,,,,,,,,,
297220,2022-12-05_14h34.01.892,vts_reward_expectancy_bt,2022.2.4,Win32,60.81245439,Chrome,1280,720,,,a,0.5319,10,624,2,2,5,29,5,1,0,1,0,0,0,0,0,1,circle,star,,,,,,,,,,,,,,,,,,,,,,,,,,,,,,,,,,,,,,,,,,,,,,,,,,,,,,
297220,2022-12-05_14h34.01.892,vts_reward_expectancy_bt,2022.2.4,Win32,60.81245439,Chrome,1280,720,,,l,0.442,10,634,2,2,6,30,10,1,0,0,0,1,0,1,0,0,star ,circle,,,,,,,,,,,,,,,,,,,,,,,,,,,,,,,,,,,,,,,,,,,,,,,,,,,,,,
297220,2022-12-05_14h34.01.892,vts_reward_expectancy_bt,2022.2.4,Win32,60.81245439,Chrome,1280,720,,,a,0.534,10,644,2,2,7,31,1,1,1,0,0,0,0,0,1,0,triangle,hexagon,,,,,,,,,,,,,,,,,,,,,,,,,,,,,,,,,,,,,,,,,,,,,,,,,,,,,,
297220,2022-12-05_14h34.01.892,vts_reward_expectancy_bt,2022.2.4,Win32,60.81245439,Chrome,1280,720,,,a,0.6498,10,654,2,2,8,32,6,1,0,0,1,0,1,0,0,0,hexagon,triangle,,,,,,,,,,,,,,,,,,,,,,,,,,,,,,,,,,,,,,,,,,,,,,,,,,,,,,
297220,2022-12-05_14h34.01.892,vts_reward_expectancy_bt,2022.2.4,Win32,60.81245439,Chrome,1280,720,,,l,0.4874,10,664,2,2,9,33,9,1,0,0,0,1,1,0,0,0,star,triangle,,,,,,,,,,,,,,,,,,,,,,,,,,,,,,,,,,,,,,,,,,,,,,,,,,,,,,
297220,2022-12-05_14h34.01.892,vts_reward_expectancy_bt,2022.2.4,Win32,60.81245439,Chrome,1280,720,,,l,0.8339,10,674,2,2,10,34,0,1,1,0,0,0,0,1,0,0,triangle,circle,,,,,,,,,,,,,,,,,,,,,,,,,,,,,,,,,,,,,,,,,,,,,,,,,,,,,,
297220,2022-12-05_14h34.01.892,vts_reward_expectancy_bt,2022.2.4,Win32,60.81245439,Chrome,1280,720,,,a,0.5065,1,675,2,2,11,35,4,1,0,1,0,0,0,0,1,0,circle,hexagon,,,,,,,,,,,,,,,,,,,,,,,,,,,,,,,,,,,,,,,,,,,,,,,,,,,,,,
297220,2022-12-05_14h34.01.892,vts_reward_expectancy_bt,2022.2.4,Win32,60.81245439,Chrome,1280,720,,,,,,,,,,,,,,,,,,,,,,,181,B,triangle,0,0,d,1.4496,0,0,0,0,0,1,,,,,,,,,,,,,,,,,,,,,,,,,,,,,,,,,,,,,,,,,
297220,2022-12-05_14h34.01.892,vts_reward_expectancy_bt,2022.2.4,Win32,60.81245439,Chrome,1280,720,,,,,,,,,,,,,,,,,,,,,,,139,S,hexagon,1,1,d,0.6602,0,1,0,1,0,1,,,,,,,,,,,,,,,,,,,,,,,,,,,,,,,,,,,,,,,,,
297220,2022-12-05_14h34.01.892,vts_reward_expectancy_bt,2022.2.4,Win32,60.81245439,Chrome,1280,720,,,,,,,,,,,,,,,,,,,,,,,160,W,circle,1,0,f,0.5111,0,2,0,2,0,1,,,,,,,,,,,,,,,,,,,,,,,,,,,,,,,,,,,,,,,,,
297220,2022-12-05_14h34.01.892,vts_reward_expectancy_bt,2022.2.4,Win32,60.81245439,Chrome,1280,720,,,,,,,,,,,,,,,,,,,,,,,146,D,star,1,0,d,0.5667,0,3,0,3,0,1,,,,,,,,,,,,,,,,,,,,,,,,,,,,,,,,,,,,,,,,,
297220,2022-12-05_14h34.01.892,vts_reward_expectancy_bt,2022.2.4,Win32,60.81245439,Chrome,1280,720,,,,,,,,,,,,,,,,,,,,,,,167,Y,triangle,1,0,f,0.5341,0,4,0,4,0,1,,,,,,,,,,,,,,,,,,,,,,,,,,,,,,,,,,,,,,,,,
297220,2022-12-05_14h34.01.892,vts_reward_expectancy_bt,2022.2.4,Win32,60.81245439,Chrome,1280,720,,,,,,,,,,,,,,,,,,,,,,,174,F,hexagon,1,0,f,0.516,0,5,0,5,0,1,,,,,,,,,,,,,,,,,,,,,,,,,,,,,,,,,,,,,,,,,
297220,2022-12-05_14h34.01.892,vts_reward_expectancy_bt,2022.2.4,Win32,60.81245439,Chrome,1280,720,,,,,,,,,,,,,,,,,,,,,,,125,U,circle,1,0,d,0.6086,0,6,0,6,0,1,,,,,,,,,,,,,,,,,,,,,,,,,,,,,,,,,,,,,,,,,
297220,2022-12-05_14h34.01.892,vts_reward_expectancy_bt,2022.2.4,Win32,60.81245439,Chrome,1280,720,,,,,,,,,,,,,,,,,,,,,,,132,H,star,1,0,d,0.6012,0,7,0,7,0,1,,,,,,,,,,,,,,,,,,,,,,,,,,,,,,,,,,,,,,,,,
297220,2022-12-05_14h34.01.892,vts_reward_expectancy_bt,2022.2.4,Win32,60.81245439,Chrome,1280,720,,,,,,,,,,,,,,,,,,,,,,,181,B,star,1,0,f,0.2829,0,8,0,8,0,1,,,,,,,,,,,,,,,,,,,,,,,,,,,,,,,,,,,,,,,,,
297220,2022-12-05_14h34.01.892,vts_reward_expectancy_bt,2022.2.4,Win32,60.81245439,Chrome,1280,720,,,,,,,,,,,,,,,,,,,,,,,139,S,circle,1,0,d,0.535,0,9,0,9,0,1,,,,,,,,,,,,,,,,,,,,,,,,,,,,,,,,,,,,,,,,,
297220,2022-12-05_14h34.01.892,vts_reward_expectancy_bt,2022.2.4,Win32,60.81245439,Chrome,1280,720,,,,,,,,,,,,,,,,,,,,,,,167,U,hexagon,0,0,,,1,,,,,,j,1.662,0,0,0,0,1,,,,,,,,,,,,,,,,,,,,,,,,,,,,,,,,,,
297220,2022-12-05_14h34.01.892,vts_reward_expectancy_bt,2022.2.4,Win32,60.81245439,Chrome,1280,720,,,,,,,,,,,,,,,,,,,,,,,139,W,triangle,0,1,,,1,,,,,,,,1,0,1,0,1,,,,,,,,,,,,,,,,,,,,,,,,,,,,,,,,,,
297220,2022-12-05_14h34.01.892,vts_reward_expectancy_bt,2022.2.4,Win32,60.81245439,Chrome,1280,720,,,,,,,,,,,,,,,,,,,,,,,181,B,circle,1,1,,,1,,,,,,j,0.9457,2,0,2,0,1,,,,,,,,,,,,,,,,,,,,,,,,,,,,,,,,,,
297220,2022-12-05_14h34.01.892,vts_reward_expectancy_bt,2022.2.4,Win32,60.81245439,Chrome,1280,720,,,,,,,,,,,,,,,,,,,,,,,160,S,star,0,0,,,1,,,,,,j,0.9896,3,0,3,0,1,,,,,,,,,,,,,,,,,,,,,,,,,,,,,,,,,,
297220,2022-12-05_14h34.01.892,vts_reward_expectancy_bt,2022.2.4,Win32,60.81245439,Chrome,1280,720,,,,,,,,,,,,,,,,,,,,,,,132,H,hexagon,0,1,,,1,,,,,,k,0.7474,4,0,4,0,1,,,,,,,,,,,,,,,,,,,,,,,,,,,,,,,,,,
297220,2022-12-05_14h34.01.892,vts_reward_expectancy_bt,2022.2.4,Win32,60.81245439,Chrome,1280,720,,,,,,,,,,,,,,,,,,,,,,,174,Y,triangle,1,1,,,1,,,,,,k,1.4119,5,0,5,0,1,,,,,,,,,,,,,,,,,,,,,,,,,,,,,,,,,,
297220,2022-12-05_14h34.01.892,vts_reward_expectancy_bt,2022.2.4,Win32,60.81245439,Chrome,1280,720,,,,,,,,,,,,,,,,,,,,,,,125,D,circle,1,0,,,1,,,,,,j,1.2716,6,0,6,0,1,,,,,,,,,,,,,,,,,,,,,,,,,,,,,,,,,,
297220,2022-12-05_14h34.01.892,vts_reward_expectancy_bt,2022.2.4,Win32,60.81245439,Chrome,1280,720,,,,,,,,,,,,,,,,,,,,,,,146,F,star,0,0,,,1,,,,,,k,0.9994,7,0,7,0,1,,,,,,,,,,,,,,,,,,,,,,,,,,,,,,,,,,
297220,2022-12-05_14h34.01.892,vts_reward_expectancy_bt,2022.2.4,Win32,60.81245439,Chrome,1280,720,,,,,,,,,,,,,,,,,,,,,,,167,U,triangle,0,1,,,1,,,,,,j,0.6017,8,0,8,0,1,,,,,,,,,,,,,,,,,,,,,,,,,,,,,,,,,,
297220,2022-12-05_14h34.01.892,vts_reward_expectancy_bt,2022.2.4,Win32,60.81245439,Chrome,1280,720,,,,,,,,,,,,,,,,,,,,,,,139,W,hexagon,1,1,,,1,,,,,,k,1.9055,9,0,9,0,1,,,,,,,,,,,,,,,,,,,,,,,,,,,,,,,,,,
297220,2022-12-05_14h34.01.892,vts_reward_expectancy_bt,2022.2.4,Win32,60.81245439,Chrome,1280,720,,,,,,,,,,,,,,,,,,,,,,,146,W,star,1,0,,,2,,,,,,k,0.9087,0,0,0,0,1,,,,,,,,,,,,,,,,,,,,,,,,,,,,,,,,,,
297220,2022-12-05_14h34.01.892,vts_reward_expectancy_bt,2022.2.4,Win32,60.81245439,Chrome,1280,720,,,,,,,,,,,,,,,,,,,,,,,181,B,circle,1,0,,,2,,,,,,j,0.5194,1,0,1,0,1,,,,,,,,,,,,,,,,,,,,,,,,,,,,,,,,,,
297220,2022-12-05_14h34.01.892,vts_reward_expectancy_bt,2022.2.4,Win32,60.81245439,Chrome,1280,720,,,,,,,,,,,,,,,,,,,,,,,125,Y,triangle,1,0,,,2,,,,,,k,0.6468,2,0,2,0,1,,,,,,,,,,,,,,,,,,,,,,,,,,,,,,,,,,
297220,2022-12-05_14h34.01.892,vts_reward_expectancy_bt,2022.2.4,Win32,60.81245439,Chrome,1280,720,,,,,,,,,,,,,,,,,,,,,,,139,U,hexagon,1,0,,,2,,,,,,k,0.6837,3,0,3,0,1,,,,,,,,,,,,,,,,,,,,,,,,,,,,,,,,,,
297220,2022-12-05_14h34.01.892,vts_reward_expectancy_bt,2022.2.4,Win32,60.81245439,Chrome,1280,720,,,,,,,,,,,,,,,,,,,,,,,174,S,star,1,0,,,2,,,,,,k,1.0916,4,0,4,0,1,,,,,,,,,,,,,,,,,,,,,,,,,,,,,,,,,,
297220,2022-12-05_14h34.01.892,vts_reward_expectancy_bt,2022.2.4,Win32,60.81245439,Chrome,1280,720,,,,,,,,,,,,,,,,,,,,,,,160,D,circle,1,0,,,2,,,,,,j,0.5176,5,0,5,0,1,,,,,,,,,,,,,,,,,,,,,,,,,,,,,,,,,,
297220,2022-12-05_14h34.01.892,vts_reward_expectancy_bt,2022.2.4,Win32,60.81245439,Chrome,1280,720,,,,,,,,,,,,,,,,,,,,,,,132,H,triangle,0,0,,,2,,,,,,k,0.5671,6,0,6,0,1,,,,,,,,,,,,,,,,,,,,,,,,,,,,,,,,,,
297220,2022-12-05_14h34.01.892,vts_reward_expectancy_bt,2022.2.4,Win32,60.81245439,Chrome,1280,720,,,,,,,,,,,,,,,,,,,,,,,167,F,hexagon,1,1,,,2,,,,,,j,0.7877,7,0,7,0,1,,,,,,,,,,,,,,,,,,,,,,,,,,,,,,,,,,
297220,2022-12-05_14h34.01.892,vts_reward_expectancy_bt,2022.2.4,Win32,60.81245439,Chrome,1280,720,,,,,,,,,,,,,,,,,,,,,,,146,W,hexagon,1,0,,,2,,,,,,k,0.6232,8,0,8,0,1,,,,,,,,,,,,,,,,,,,,,,,,,,,,,,,,,,
297220,2022-12-05_14h34.01.892,vts_reward_expectancy_bt,2022.2.4,Win32,60.81245439,Chrome,1280,720,,,,,,,,,,,,,,,,,,,,,,,181,B,triangle,1,0,,,2,,,,,,j,0.5336,9,0,9,0,1,,,,,,,,,,,,,,,,,,,,,,,,,,,,,,,,,,
297220,2022-12-05_14h34.01.892,vts_reward_expectancy_bt,2022.2.4,Win32,60.81245439,Chrome,1280,720,,,,,0,675,,,,,,,,,,,,,,,,,125,U,circle,1,0,,,3,,,,,,,,,,,,,-1,number,NA,d,1.6241,vtsPrac,0,0,0,0,1,,,,,,,,,,,,,,,,,,,,,,,
297220,2022-12-05_14h34.01.892,vts_reward_expectancy_bt,2022.2.4,Win32,60.81245439,Chrome,1280,720,,,,,0,675,,,,,,,,,,,,,,,,,181,H,hexagon,1,0,,,3,,,,,,,,,,,,,repeat,number,numRpt,f,0.5421,vtsPrac,1,0,1,0,1,,,,,,,,,,,,,,,,,,,,,,,
297220,2022-12-05_14h34.01.892,vts_reward_expectancy_bt,2022.2.4,Win32,60.81245439,Chrome,1280,720,,,,,0,675,,,,,,,,,,,,,,,,,174,W,circle,1,0,,,3,,,,,,,,,,,,,repeat,number,numRpt,f,0.4699,vtsPrac,2,0,2,0,1,,,,,,,,,,,,,,,,,,,,,,,
297220,2022-12-05_14h34.01.892,vts_reward_expectancy_bt,2022.2.4,Win32,60.81245439,Chrome,1280,720,,,,,0,675,,,,,,,,,,,,,,,,,146,S,hexagon,1,0,,,3,,,,,,,,,,,,,repeat,number,numRpt,d,0.2673,vtsPrac,3,0,3,0,1,,,,,,,,,,,,,,,,,,,,,,,
297220,2022-12-05_14h34.01.892,vts_reward_expectancy_bt,2022.2.4,Win32,60.81245439,Chrome,1280,720,,,,,0,675,,,,,,,,,,,,,,,,,125,U,triangle,0,0,,,3,,,,,,,,,,,,,repeat,number,NA,f,0.2835,vtsPrac,4,0,4,0,1,,,,,,,,,,,,,,,,,,,,,,,
297220,2022-12-05_14h34.01.892,vts_reward_expectancy_bt,2022.2.4,Win32,60.81245439,Chrome,1280,720,,,,,0,675,,,,,,,,,,,,,,,,,181,H,circle,0,1,,,3,,,,,,,,,,,,,repeat,number,NA,d,0.4987,vtsPrac,5,0,5,0,1,,,,,,,,,,,,,,,,,,,,,,,
297220,2022-12-05_14h34.01.892,vts_reward_expectancy_bt,2022.2.4,Win32,60.81245439,Chrome,1280,720,,,,,0,675,,,,,,,,,,,,,,,,,174,W,hexagon,1,1,,,3,,,,,,,,,,,,,repeat,number,numRpt,f,1.6663,vtsPrac,6,0,6,0,1,,,,,,,,,,,,,,,,,,,,,,,
297220,2022-12-05_14h34.01.892,vts_reward_expectancy_bt,2022.2.4,Win32,60.81245439,Chrome,1280,720,,,,,0,675,,,,,,,,,,,,,,,,,146,S,star,1,0,,,3,,,,,,,,,,,,,repeat,number,numRpt,d,1.2253,vtsPrac,7,0,7,0,1,,,,,,,,,,,,,,,,,,,,,,,
297220,2022-12-05_14h34.01.892,vts_reward_expectancy_bt,2022.2.4,Win32,60.81245439,Chrome,1280,720,,,,,0,675,,,,,,,,,,,,,,,,,181,W,circle,1,0,,,3,,,,,,,,,,,,,repeat,number,numRpt,f,0.7333,vtsPrac,8,0,8,0,1,,,,,,,,,,,,,,,,,,,,,,,
297220,2022-12-05_14h34.01.892,vts_reward_expectancy_bt,2022.2.4,Win32,60.81245439,Chrome,1280,720,,,,,0,675,,,,,,,,,,,,,,,,,132,H,star,1,0,,,3,,,,,,,,,,,,,repeat,number,numRpt,d,0.1595,vtsPrac,9,0,9,0,1,,,,,,,,,,,,,,,,,,,,,,,
297220,2022-12-05_14h34.01.892,vts_reward_expectancy_bt,2022.2.4,Win32,60.81245439,Chrome,1280,720,,,,,0,675,,,,,,,,,,,,,,,,,139,F,circle,0,0,,,3,,,,,,,,,,,,,repeat,number,NA,f,0.3044,vtsPrac,10,0,10,0,1,,,,,,,,,,,,,,,,,,,,,,,
297220,2022-12-05_14h34.01.892,vts_reward_expectancy_bt,2022.2.4,Win32,60.81245439,Chrome,1280,720,,,,,0,675,,,,,,,,,,,,,,,,,167,B,triangle,1,1,,,3,,,,,,,,,,,,,repeat,number,numRpt,f,0.5165,vtsPrac,11,0,11,0,1,,,,,,,,,,,,,,,,,,,,,,,
297220,2022-12-05_14h34.01.892,vts_reward_expectancy_bt,2022.2.4,Win32,60.81245439,Chrome,1280,720,,,,,0,675,,,,,,,,,,,,,,,,,174,Y,triangle,0,0,,,3,,,,,,,,,,,,,repeat,number,NA,d,0.2498,vtsPrac,12,0,12,0,1,,,,,,,,,,,,,,,,,,,,,,,
297220,2022-12-05_14h34.01.892,vts_reward_expectancy_bt,2022.2.4,Win32,60.81245439,Chrome,1280,720,,,,,0,675,,,,,,,,,,,,,,,,,167,F,circle,0,1,,,3,,,,,,,,,,,,,repeat,number,NA,d,0.018,vtsPrac,13,0,13,0,1,,,,,,,,,,,,,,,,,,,,,,,
297220,2022-12-05_14h34.01.892,vts_reward_expectancy_bt,2022.2.4,Win32,60.81245439,Chrome,1280,720,,,,,0,675,,,,,,,,,,,,,,,,,139,D,triangle,1,1,,,3,,,,,,,,,,,,,repeat,number,numRpt,d,0.6102,vtsPrac,14,0,14,0,1,,,,,,,,,,,,,,,,,,,,,,,
297220,2022-12-05_14h34.01.892,vts_reward_expectancy_bt,2022.2.4,Win32,60.81245439,Chrome,1280,720,,,,,0,675,,,,,,,,,,,,,,,,,125,U,circle,1,0,,,3,,,,,,,,,,,,,repeat,number,numRpt,d,0.5837,vtsPrac,15,0,15,0,1,,,,,,,,,,,,,,,,,,,,,,,
297220,2022-12-05_14h34.01.892,vts_reward_expectancy_bt,2022.2.4,Win32,60.81245439,Chrome,1280,720,,,,,0,675,,,,,,,,,,,,,,,,,125,S,circle,1,0,,,3,,,,,,,,,,,,,repeat,number,numRpt,d,0.4512,vtsPrac,16,0,16,0,1,,,,,,,,,,,,,,,,,,,,,,,
297220,2022-12-05_14h34.01.892,vts_reward_expectancy_bt,2022.2.4,Win32,60.81245439,Chrome,1280,720,,,,,0,675,,,,,,,,,,,,,,,,,174,D,star,0,0,,,3,,,,,,,,,,,,,repeat,number,NA,d,0.3376,vtsPrac,17,0,17,0,1,,,,,,,,,,,,,,,,,,,,,,,
297220,2022-12-05_14h34.01.892,vts_reward_expectancy_bt,2022.2.4,Win32,60.81245439,Chrome,1280,720,,,,,0,675,,,,,,,,,,,,,,,,,132,Y,circle,1,1,,,3,,,,,,,,,,,,,repeat,number,numRpt,d,0.7852,vtsPrac,18,0,18,0,1,,,,,,,,,,,,,,,,,,,,,,,
297220,2022-12-05_14h34.01.892,vts_reward_expectancy_bt,2022.2.4,Win32,60.81245439,Chrome,1280,720,,,,,0,675,,,,,,,,,,,,,,,,,167,H,star,1,0,,,3,,,,,,,,,,,,,repeat,number,numRpt,f,1.1507,vtsPrac,19,0,19,0,1,,,,,,,,,,,,,,,,,,,,,,,
297220,2022-12-05_14h34.01.892,vts_reward_expectancy_bt,2022.2.4,Win32,60.81245439,Chrome,1280,720,,,,,0,675,,,,,,,,,,,,,,,,,160,H,circle,1,0,,,3,,,,,,,,,,,,,repeat,number,numRpt,f,0.4936,vtsPrac,20,0,20,0,1,,,,,,,,,,,,,,,,,,,,,,,
297220,2022-12-05_14h34.01.892,vts_reward_expectancy_bt,2022.2.4,Win32,60.81245439,Chrome,1280,720,,,,,0,675,,,,,,,,,,,,,,,,,139,Y,hexagon,0,0,,,3,,,,,,,,,,,,,repeat,number,NA,f,0.801,vtsPrac,21,0,21,0,1,,,,,,,,,,,,,,,,,,,,,,,
297220,2022-12-05_14h34.01.892,vts_reward_expectancy_bt,2022.2.4,Win32,60.81245439,Chrome,1280,720,,,,,0,675,,,,,,,,,,,,,,,,,181,F,triangle,1,1,,,3,,,,,,,,,,,,,repeat,number,numRpt,f,0.5225,vtsPrac,22,0,22,0,1,,,,,,,,,,,,,,,,,,,,,,,
297220,2022-12-05_14h34.01.892,vts_reward_expectancy_bt,2022.2.4,Win32,60.81245439,Chrome,1280,720,,,,,0,675,,,,,,,,,,,,,,,,,167,W,circle,1,0,,,3,,,,,,,,,,,,,repeat,number,numRpt,f,0.9737,vtsPrac,23,0,23,0,1,,,,,,,,,,,,,,,,,,,,,,,
297220,2022-12-05_14h34.01.892,vts_reward_expectancy_bt,2022.2.4,Win32,60.81245439,Chrome,1280,720,,,,,0,675,,,,,,,,,,,,,,,,,146,Y,hexagon,1,0,,,3,,,,,,,,,,,,,repeat,number,numRpt,d,0.6498,vtsPrac,24,0,24,0,1,,,,,,,,,,,,,,,,,,,,,,,
297220,2022-12-05_14h34.01.892,vts_reward_expectancy_bt,2022.2.4,Win32,60.81245439,Chrome,1280,720,,,,,0,675,,,,,,,,,,,,,,,,,167,S,star,1,0,,,3,,,,,,,,,,,,,repeat,number,numRpt,f,0.5292,vtsPrac,25,0,25,0,1,,,,,,,,,,,,,,,,,,,,,,,
297220,2022-12-05_14h34.01.892,vts_reward_expectancy_bt,2022.2.4,Win32,60.81245439,Chrome,1280,720,,,,,0,675,,,,,,,,,,,,,,,,,174,H,circle,1,0,,,3,,,,,,,,,,,,,repeat,number,numRpt,f,0.5176,vtsPrac,26,0,26,0,1,,,,,,,,,,,,,,,,,,,,,,,
297220,2022-12-05_14h34.01.892,vts_reward_expectancy_bt,2022.2.4,Win32,60.81245439,Chrome,1280,720,,,,,0,675,,,,,,,,,,,,,,,,,139,F,triangle,1,0,,,3,,,,,,,,,,,,,repeat,number,numRpt,d,0.8821,vtsPrac,27,0,27,0,1,,,,,,,,,,,,,,,,,,,,,,,
297220,2022-12-05_14h34.01.892,vts_reward_expectancy_bt,2022.2.4,Win32,60.81245439,Chrome,1280,720,,,,,0,675,,,,,,,,,,,,,,,,,125,W,star,-1,0,,,3,,,,,,,,,,,,,switch,no_choice,NA,,,vtsPrac,28,0,28,0,1,,,,,,,,,,,,,,,,,,,,,,,
297220,2022-12-05_14h34.01.892,vts_reward_expectancy_bt,2022.2.4,Win32,60.81245439,Chrome,1280,720,,,,,0,675,,,,,,,,,,,,,,,,,167,U,triangle,1,0,,,3,,,,,,,,,,,,,switch,number,numSwt,f,0.4752,vtsPrac,29,0,29,0,1,,,,,,,,,,,,,,,,,,,,,,,
297220,2022-12-05_14h34.01.892,vts_reward_expectancy_bt,2022.2.4,Win32,60.81245439,Chrome,1280,720,,,,,0,675,,,,,,,,,,,,,,,,,139,B,hexagon,1,0,,,3,,,,,,,,,,,,,repeat,number,numRpt,d,0.5835,vtsPrac,30,0,30,0,1,,,,,,,,,,,,,,,,,,,,,,,
297220,2022-12-05_14h34.01.892,vts_reward_expectancy_bt,2022.2.4,Win32,60.81245439,Chrome,1280,720,,,,,0,675,,,,,,,,,,,,,,,,,181,Y,circle,1,0,,,3,,,,,,,,,,,,,repeat,number,numRpt,f,0.6173,vtsPrac,31,0,31,0,1,,,,,,,,,,,,,,,,,,,,,,,
297220,2022-12-05_14h34.01.892,vts_reward_expectancy_bt,2022.2.4,Win32,60.81245439,Chrome,1280,720,,,,,0,675,,,,,,,,,,,,,,,,,146,Y,circle,1,0,,,4,,,,,,,,,,,,,switch,letter,lettSwt,k,0.8848,vtsPrac,0,0,0,0,1,,,,,,,,,,,,,,,,,,,,,,,
297220,2022-12-05_14h34.01.892,vts_reward_expectancy_bt,2022.2.4,Win32,60.81245439,Chrome,1280,720,,,,,0,675,,,,,,,,,,,,,,,,,174,F,star,0,0,,,4,,,,,,,,,,,,,repeat,letter,NA,k,0.7171,vtsPrac,1,0,1,0,1,,,,,,,,,,,,,,,,,,,,,,,
297220,2022-12-05_14h34.01.892,vts_reward_expectancy_bt,2022.2.4,Win32,60.81245439,Chrome,1280,720,,,,,0,675,,,,,,,,,,,,,,,,,139,D,circle,1,1,,,4,,,,,,,,,,,,,switch,number,numSwt,d,0.6,vtsPrac,2,0,2,0,1,,,,,,,,,,,,,,,,,,,,,,,
297220,2022-12-05_14h34.01.892,vts_reward_expectancy_bt,2022.2.4,Win32,60.81245439,Chrome,1280,720,,,,,0,675,,,,,,,,,,,,,,,,,181,U,star,1,0,,,4,,,,,,,,,,,,,switch,letter,lettSwt,k,0.9465,vtsPrac,3,0,3,0,1,,,,,,,,,,,,,,,,,,,,,,,
297220,2022-12-05_14h34.01.892,vts_reward_expectancy_bt,2022.2.4,Win32,60.81245439,Chrome,1280,720,,,,,0,675,,,,,,,,,,,,,,,,,146,Y,circle,1,0,,,4,,,,,,,,,,,,,repeat,letter,lettRpt,k,0.8958,vtsPrac,4,0,4,0,1,,,,,,,,,,,,,,,,,,,,,,,
297220,2022-12-05_14h34.01.892,vts_reward_expectancy_bt,2022.2.4,Win32,60.81245439,Chrome,1280,720,,,,,0,675,,,,,,,,,,,,,,,,,174,F,hexagon,1,0,,,4,,,,,,,,,,,,,switch,number,numSwt,f,0.6999,vtsPrac,5,0,5,0,1,,,,,,,,,,,,,,,,,,,,,,,
297220,2022-12-05_14h34.01.892,vts_reward_expectancy_bt,2022.2.4,Win32,60.81245439,Chrome,1280,720,,,,,0,675,,,,,,,,,,,,,,,,,139,D,triangle,0,0,,,4,,,,,,,,,,,,,switch,letter,NA,k,0.9356,vtsPrac,6,0,6,0,1,,,,,,,,,,,,,,,,,,,,,,,
297220,2022-12-05_14h34.01.892,vts_reward_expectancy_bt,2022.2.4,Win32,60.81245439,Chrome,1280,720,,,,,0,675,,,,,,,,,,,,,,,,,181,U,star,1,1,,,4,,,,,,,,,,,,,repeat,letter,lettRpt,k,0.6841,vtsPrac,7,0,7,0,1,,,,,,,,,,,,,,,,,,,,,,,
297220,2022-12-05_14h34.01.892,vts_reward_expectancy_bt,2022.2.4,Win32,60.81245439,Chrome,1280,720,,,,,0,675,,,,,,,,,,,,,,,,,181,D,triangle,1,0,,,4,,,,,,,,,,,,,switch,number,numSwt,f,0.5623,vtsPrac,8,0,8,0,1,,,,,,,,,,,,,,,,,,,,,,,
297220,2022-12-05_14h34.01.892,vts_reward_expectancy_bt,2022.2.4,Win32,60.81245439,Chrome,1280,720,,,,,0,675,,,,,,,,,,,,,,,,,125,W,hexagon,1,0,,,4,,,,,,,,,,,,,switch,letter,lettSwt,k,0.5085,vtsPrac,9,0,9,0,1,,,,,,,,,,,,,,,,,,,,,,,
297220,2022-12-05_14h34.01.892,vts_reward_expectancy_bt,2022.2.4,Win32,60.81245439,Chrome,1280,720,,,,,0,675,,,,,,,,,,,,,,,,,146,H,circle,0,0,,,4,,,,,,,,,,,,,repeat,letter,NA,k,0.5368,vtsPrac,10,0,10,0,1,,,,,,,,,,,,,,,,,,,,,,,
297220,2022-12-05_14h34.01.892,vts_reward_expectancy_bt,2022.2.4,Win32,60.81245439,Chrome,1280,720,,,,,0,675,,,,,,,,,,,,,,,,,132,Y,hexagon,1,1,,,4,,,,,,,,,,,,,repeat,letter,lettRpt,k,0.54,vtsPrac,11,0,11,0,1,,,,,,,,,,,,,,,,,,,,,,,
297220,2022-12-05_14h34.01.892,vts_reward_expectancy_bt,2022.2.4,Win32,60.81245439,Chrome,1280,720,,,,,0,675,,,,,,,,,,,,,,,,,125,H,circle,1,0,,,4,,,,,,,,,,,,,repeat,letter,lettRpt,j,0.6847,vtsPrac,12,0,12,0,1,,,,,,,,,,,,,,,,,,,,,,,
297220,2022-12-05_14h34.01.892,vts_reward_expectancy_bt,2022.2.4,Win32,60.81245439,Chrome,1280,720,,,,,0,675,,,,,,,,,,,,,,,,,174,F,hexagon,1,0,,,4,,,,,,,,,,,,,switch,number,numSwt,f,0.6501,vtsPrac,13,0,13,0,1,,,,,,,,,,,,,,,,,,,,,,,
297220,2022-12-05_14h34.01.892,vts_reward_expectancy_bt,2022.2.4,Win32,60.81245439,Chrome,1280,720,,,,,0,675,,,,,,,,,,,,,,,,,167,U,star,0,0,,,4,,,,,,,,,,,,,repeat,number,NA,d,0.5503,vtsPrac,14,0,14,0,1,,,,,,,,,,,,,,,,,,,,,,,
297220,2022-12-05_14h34.01.892,vts_reward_expectancy_bt,2022.2.4,Win32,60.81245439,Chrome,1280,720,,,,,0,675,,,,,,,,,,,,,,,,,139,B,hexagon,1,1,,,4,,,,,,,,,,,,,repeat,number,numRpt,d,0.5229,vtsPrac,15,0,15,0,1,,,,,,,,,,,,,,,,,,,,,,,
297220,2022-12-05_14h34.01.892,vts_reward_expectancy_bt,2022.2.4,Win32,60.81245439,Chrome,1280,720,,,,,0,675,,,,,,,,,,,,,,,,,181,U,star,1,0,,,4,,,,,,,,,,,,,repeat,number,numRpt,f,0.6193,vtsPrac,16,0,16,0,1,,,,,,,,,,,,,,,,,,,,,,,
297220,2022-12-05_14h34.01.892,vts_reward_expectancy_bt,2022.2.4,Win32,60.81245439,Chrome,1280,720,,,,,0,675,,,,,,,,,,,,,,,,,174,D,circle,1,0,,,4,,,,,,,,,,,,,repeat,number,numRpt,f,0.737,vtsPrac,17,0,17,0,1,,,,,,,,,,,,,,,,,,,,,,,
297220,2022-12-05_14h34.01.892,vts_reward_expectancy_bt,2022.2.4,Win32,60.81245439,Chrome,1280,720,,,,,0,675,,,,,,,,,,,,,,,,,139,B,star,0,0,,,4,,,,,,,,,,,,,switch,letter,NA,k,0.5619,vtsPrac,18,0,18,0,1,,,,,,,,,,,,,,,,,,,,,,,
297220,2022-12-05_14h34.01.892,vts_reward_expectancy_bt,2022.2.4,Win32,60.81245439,Chrome,1280,720,,,,,0,675,,,,,,,,,,,,,,,,,132,S,circle,1,1,,,4,,,,,,,,,,,,,repeat,letter,lettRpt,k,0.8903,vtsPrac,19,0,19,0,1,,,,,,,,,,,,,,,,,,,,,,,
297220,2022-12-05_14h34.01.892,vts_reward_expectancy_bt,2022.2.4,Win32,60.81245439,Chrome,1280,720,,,,,0,675,,,,,,,,,,,,,,,,,132,F,triangle,1,0,,,4,,,,,,,,,,,,,repeat,letter,lettRpt,j,1.0274,vtsPrac,20,0,20,0,1,,,,,,,,,,,,,,,,,,,,,,,
297220,2022-12-05_14h34.01.892,vts_reward_expectancy_bt,2022.2.4,Win32,60.81245439,Chrome,1280,720,,,,,0,675,,,,,,,,,,,,,,,,,125,H,circle,1,0,,,4,,,,,,,,,,,,,switch,number,numSwt,d,0.8784,vtsPrac,21,0,21,0,1,,,,,,,,,,,,,,,,,,,,,,,
297220,2022-12-05_14h34.01.892,vts_reward_expectancy_bt,2022.2.4,Win32,60.81245439,Chrome,1280,720,,,,,0,675,,,,,,,,,,,,,,,,,167,B,star,0,0,,,4,,,,,,,,,,,,,switch,letter,NA,k,0.5837,vtsPrac,22,0,22,0,1,,,,,,,,,,,,,,,,,,,,,,,
297220,2022-12-05_14h34.01.892,vts_reward_expectancy_bt,2022.2.4,Win32,60.81245439,Chrome,1280,720,,,,,0,675,,,,,,,,,,,,,,,,,174,D,hexagon,0,1,,,4,,,,,,,,,,,,,switch,number,NA,d,0.6998,vtsPrac,23,0,23,0,1,,,,,,,,,,,,,,,,,,,,,,,
297220,2022-12-05_14h34.01.892,vts_reward_expectancy_bt,2022.2.4,Win32,60.81245439,Chrome,1280,720,,,,,0,675,,,,,,,,,,,,,,,,,167,F,star,1,1,,,4,,,,,,,,,,,,,repeat,number,numRpt,f,0.5744,vtsPrac,24,0,24,0,1,,,,,,,,,,,,,,,,,,,,,,,
297220,2022-12-05_14h34.01.892,vts_reward_expectancy_bt,2022.2.4,Win32,60.81245439,Chrome,1280,720,,,,,0,675,,,,,,,,,,,,,,,,,132,H,circle,1,0,,,4,,,,,,,,,,,,,switch,letter,lettSwt,j,0.6673,vtsPrac,25,0,25,0,1,,,,,,,,,,,,,,,,,,,,,,,
297220,2022-12-05_14h34.01.892,vts_reward_expectancy_bt,2022.2.4,Win32,60.81245439,Chrome,1280,720,,,,,0,675,,,,,,,,,,,,,,,,,139,B,circle,1,0,,,4,,,,,,,,,,,,,switch,number,numSwt,d,0.5402,vtsPrac,26,0,26,0,1,,,,,,,,,,,,,,,,,,,,,,,
297220,2022-12-05_14h34.01.892,vts_reward_expectancy_bt,2022.2.4,Win32,60.81245439,Chrome,1280,720,,,,,0,675,,,,,,,,,,,,,,,,,174,S,triangle,1,0,,,4,,,,,,,,,,,,,repeat,number,numRpt,f,0.5527,vtsPrac,27,0,27,0,1,,,,,,,,,,,,,,,,,,,,,,,
297220,2022-12-05_14h34.01.892,vts_reward_expectancy_bt,2022.2.4,Win32,60.81245439,Chrome,1280,720,,,,,0,675,,,,,,,,,,,,,,,,,160,U,triangle,0,0,,,4,,,,,,,,,,,,,switch,letter,NA,j,0.3301,vtsPrac,28,0,28,0,1,,,,,,,,,,,,,,,,,,,,,,,
297220,2022-12-05_14h34.01.892,vts_reward_expectancy_bt,2022.2.4,Win32,60.81245439,Chrome,1280,720,,,,,0,675,,,,,,,,,,,,,,,,,139,W,hexagon,1,1,,,4,,,,,,,,,,,,,switch,number,numSwt,d,0.7041,vtsPrac,29,0,29,0,1,,,,,,,,,,,,,,,,,,,,,,,
297220,2022-12-05_14h34.01.892,vts_reward_expectancy_bt,2022.2.4,Win32,60.81245439,Chrome,1280,720,,,,,0,675,,,,,,,,,,,,,,,,,174,H,star,0,0,,,4,,,,,,,,,,,,,switch,letter,NA,k,0.2271,vtsPrac,30,0,30,0,1,,,,,,,,,,,,,,,,,,,,,,,
297220,2022-12-05_14h34.01.892,vts_reward_expectancy_bt,2022.2.4,Win32,60.81245439,Chrome,1280,720,,,,,0,675,,,,,,,,,,,,,,,,,167,Y,hexagon,1,1,,,4,,,,,,,,,,,,,repeat,letter,lettRpt,k,0.8172,vtsPrac,31,0,31,0,1,,,,,,,,,,,,,,,,,,,,,,,
297220,2022-12-05_14h34.01.892,vts_reward_expectancy_bt,2022.2.4,Win32,60.81245439,Chrome,1280,720,,,,,0,675,,,,,,,,,,,,,,,,,139,U,circle,1,0,,,5,,,,,,,,,,,,,switch,number,numSwt,d,0.917,vtsPrac,0,0,0,0,1,,,,,,,,,,,,,,,,,,,,,,,
297220,2022-12-05_14h34.01.892,vts_reward_expectancy_bt,2022.2.4,Win32,60.81245439,Chrome,1280,720,,,,,0,675,,,,,,,,,,,,,,,,,132,H,hexagon,0,0,,,5,,,,,,,,,,,,,switch,letter,NA,k,1.4659,vtsPrac,1,0,1,0,1,,,,,,,,,,,,,,,,,,,,,,,
297220,2022-12-05_14h34.01.892,vts_reward_expectancy_bt,2022.2.4,Win32,60.81245439,Chrome,1280,720,,,,,0,675,,,,,,,,,,,,,,,,,160,D,circle,1,1,,,5,,,,,,,,,,,,,repeat,letter,lettRpt,j,0.6538,vtsPrac,2,0,2,0,1,,,,,,,,,,,,,,,,,,,,,,,
297220,2022-12-05_14h34.01.892,vts_reward_expectancy_bt,2022.2.4,Win32,60.81245439,Chrome,1280,720,,,,,0,675,,,,,,,,,,,,,,,,,174,B,hexagon,0,0,,,5,,,,,,,,,,,,,switch,number,NA,d,0.4927,vtsPrac,3,0,3,0,1,,,,,,,,,,,,,,,,,,,,,,,
297220,2022-12-05_14h34.01.892,vts_reward_expectancy_bt,2022.2.4,Win32,60.81245439,Chrome,1280,720,,,,,0,675,,,,,,,,,,,,,,,,,139,U,circle,0,1,,,5,,,,,,,,,,,,,switch,letter,NA,j,0.5663,vtsPrac,4,0,4,0,1,,,,,,,,,,,,,,,,,,,,,,,
297220,2022-12-05_14h34.01.892,vts_reward_expectancy_bt,2022.2.4,Win32,60.81245439,Chrome,1280,720,,,,,0,675,,,,,,,,,,,,,,,,,132,H,hexagon,1,1,,,5,,,,,,,,,,,,,switch,number,numSwt,d,0.5995,vtsPrac,5,0,5,0,1,,,,,,,,,,,,,,,,,,,,,,,
297220,2022-12-05_14h34.01.892,vts_reward_expectancy_bt,2022.2.4,Win32,60.81245439,Chrome,1280,720,,,,,0,675,,,,,,,,,,,,,,,,,160,D,circle,1,0,,,5,,,,,,,,,,,,,switch,letter,lettSwt,j,0.6337,vtsPrac,6,0,6,0,1,,,,,,,,,,,,,,,,,,,,,,,
297220,2022-12-05_14h34.01.892,vts_reward_expectancy_bt,2022.2.4,Win32,60.81245439,Chrome,1280,720,,,,,0,675,,,,,,,,,,,,,,,,,174,B,hexagon,1,0,,,5,,,,,,,,,,,,,switch,number,numSwt,f,0.716,vtsPrac,7,0,7,0,1,,,,,,,,,,,,,,,,,,,,,,,
297220,2022-12-05_14h34.01.892,vts_reward_expectancy_bt,2022.2.4,Win32,60.81245439,Chrome,1280,720,,,,,0,675,,,,,,,,,,,,,,,,,125,D,circle,1,0,,,5,,,,,,,,,,,,,repeat,number,numRpt,d,0.7155,vtsPrac,8,0,8,0,1,,,,,,,,,,,,,,,,,,,,,,,
297220,2022-12-05_14h34.01.892,vts_reward_expectancy_bt,2022.2.4,Win32,60.81245439,Chrome,1280,720,,,,,0,675,,,,,,,,,,,,,,,,,181,F,star,1,0,,,5,,,,,,,,,,,,,switch,letter,lettSwt,j,0.4425,vtsPrac,9,0,9,0,1,,,,,,,,,,,,,,,,,,,,,,,
297220,2022-12-05_14h34.01.892,vts_reward_expectancy_bt,2022.2.4,Win32,60.81245439,Chrome,1280,720,,,,,0,675,,,,,,,,,,,,,,,,,160,S,circle,0,0,,,5,,,,,,,,,,,,,repeat,letter,NA,j,0.828,vtsPrac,10,0,10,0,1,,,,,,,,,,,,,,,,,,,,,,,
297220,2022-12-05_14h34.01.892,vts_reward_expectancy_bt,2022.2.4,Win32,60.81245439,Chrome,1280,720,,,,,0,675,,,,,,,,,,,,,,,,,167,B,triangle,0,1,,,5,,,,,,,,,,,,,repeat,letter,NA,k,0.3834,vtsPrac,11,0,11,0,1,,,,,,,,,,,,,,,,,,,,,,,
297220,2022-12-05_14h34.01.892,vts_reward_expectancy_bt,2022.2.4,Win32,60.81245439,Chrome,1280,720,,,,,0,675,,,,,,,,,,,,,,,,,174,Y,triangle,1,1,,,5,,,,,,,,,,,,,switch,number,numSwt,f,0.6332,vtsPrac,12,0,12,0,1,,,,,,,,,,,,,,,,,,,,,,,
297220,2022-12-05_14h34.01.892,vts_reward_expectancy_bt,2022.2.4,Win32,60.81245439,Chrome,1280,720,,,,,0,675,,,,,,,,,,,,,,,,,160,B,circle,1,0,,,5,,,,,,,,,,,,,switch,letter,lettSwt,j,0.7668,vtsPrac,13,0,13,0,1,,,,,,,,,,,,,,,,,,,,,,,
297220,2022-12-05_14h34.01.892,vts_reward_expectancy_bt,2022.2.4,Win32,60.81245439,Chrome,1280,720,,,,,0,675,,,,,,,,,,,,,,,,,181,S,circle,1,0,,,5,,,,,,,,,,,,,repeat,letter,lettRpt,k,0.6874,vtsPrac,14,0,14,0,1,,,,,,,,,,,,,,,,,,,,,,,
297220,2022-12-05_14h34.01.892,vts_reward_expectancy_bt,2022.2.4,Win32,60.81245439,Chrome,1280,720,,,,,0,675,,,,,,,,,,,,,,,,,167,H,hexagon,0,0,,,5,,,,,,,,,,,,,switch,number,NA,d,0.6712,vtsPrac,15,0,15,0,1,,,,,,,,,,,,,,,,,,,,,,,
297220,2022-12-05_14h34.01.892,vts_reward_expectancy_bt,2022.2.4,Win32,60.81245439,Chrome,1280,720,,,,,0,675,,,,,,,,,,,,,,,,,125,S,hexagon,0,1,,,5,,,,,,,,,,,,,switch,letter,NA,j,0.4285,vtsPrac,16,0,16,0,1,,,,,,,,,,,,,,,,,,,,,,,
297220,2022-12-05_14h34.01.892,vts_reward_expectancy_bt,2022.2.4,Win32,60.81245439,Chrome,1280,720,,,,,0,675,,,,,,,,,,,,,,,,,160,B,triangle,1,1,,,5,,,,,,,,,,,,,switch,number,numSwt,f,0.4819,vtsPrac,17,0,17,0,1,,,,,,,,,,,,,,,,,,,,,,,
297220,2022-12-05_14h34.01.892,vts_reward_expectancy_bt,2022.2.4,Win32,60.81245439,Chrome,1280,720,,,,,0,675,,,,,,,,,,,,,,,,,132,Y,triangle,1,0,,,5,,,,,,,,,,,,,repeat,number,numRpt,d,0.6095,vtsPrac,18,0,18,0,1,,,,,,,,,,,,,,,,,,,,,,,
297220,2022-12-05_14h34.01.892,vts_reward_expectancy_bt,2022.2.4,Win32,60.81245439,Chrome,1280,720,,,,,0,675,,,,,,,,,,,,,,,,,167,D,circle,0,0,,,5,,,,,,,,,,,,,repeat,number,NA,d,0.6053,vtsPrac,19,0,19,0,1,,,,,,,,,,,,,,,,,,,,,,,
297220,2022-12-05_14h34.01.892,vts_reward_expectancy_bt,2022.2.4,Win32,60.81245439,Chrome,1280,720,,,,,0,675,,,,,,,,,,,,,,,,,160,F,triangle,0,1,,,5,,,,,,,,,,,,,switch,letter,NA,k,0.7495,vtsPrac,20,0,20,0,1,,,,,,,,,,,,,,,,,,,,,,,
297220,2022-12-05_14h34.01.892,vts_reward_expectancy_bt,2022.2.4,Win32,60.81245439,Chrome,1280,720,,,,,0,675,,,,,,,,,,,,,,,,,125,D,star,1,1,,,5,,,,,,,,,,,,,repeat,letter,lettRpt,j,0.7566,vtsPrac,21,0,21,0,1,,,,,,,,,,,,,,,,,,,,,,,
297220,2022-12-05_14h34.01.892,vts_reward_expectancy_bt,2022.2.4,Win32,60.81245439,Chrome,1280,720,,,,,0,675,,,,,,,,,,,,,,,,,132,U,circle,1,0,,,5,,,,,,,,,,,,,switch,number,numSwt,d,0.6614,vtsPrac,22,0,22,0,1,,,,,,,,,,,,,,,,,,,,,,,
297220,2022-12-05_14h34.01.892,vts_reward_expectancy_bt,2022.2.4,Win32,60.81245439,Chrome,1280,720,,,,,0,675,,,,,,,,,,,,,,,,,139,B,triangle,0,0,,,5,,,,,,,,,,,,,switch,letter,NA,k,0.8212,vtsPrac,23,0,23,0,1,,,,,,,,,,,,,,,,,,,,,,,
297220,2022-12-05_14h34.01.892,vts_reward_expectancy_bt,2022.2.4,Win32,60.81245439,Chrome,1280,720,,,,,0,675,,,,,,,,,,,,,,,,,132,F,circle,1,1,,,5,,,,,,,,,,,,,repeat,letter,lettRpt,j,0.5624,vtsPrac,24,0,24,0,1,,,,,,,,,,,,,,,,,,,,,,,
297220,2022-12-05_14h34.01.892,vts_reward_expectancy_bt,2022.2.4,Win32,60.81245439,Chrome,1280,720,,,,,0,675,,,,,,,,,,,,,,,,,139,S,triangle,0,0,,,5,,,,,,,,,,,,,repeat,letter,NA,j,1.0397,vtsPrac,25,0,25,0,1,,,,,,,,,,,,,,,,,,,,,,,
297220,2022-12-05_14h34.01.892,vts_reward_expectancy_bt,2022.2.4,Win32,60.81245439,Chrome,1280,720,,,,,0,675,,,,,,,,,,,,,,,,,174,U,triangle,0,1,,,5,,,,,,,,,,,,,repeat,letter,NA,j,0.7791,vtsPrac,26,0,26,0,1,,,,,,,,,,,,,,,,,,,,,,,
297220,2022-12-05_14h34.01.892,vts_reward_expectancy_bt,2022.2.4,Win32,60.81245439,Chrome,1280,720,,,,,0,675,,,,,,,,,,,,,,,,,160,W,hexagon,1,1,,,5,,,,,,,,,,,,,switch,number,numSwt,f,1.05,vtsPrac,27,0,27,0,1,,,,,,,,,,,,,,,,,,,,,,,
297220,2022-12-05_14h34.01.892,vts_reward_expectancy_bt,2022.2.4,Win32,60.81245439,Chrome,1280,720,,,,,0,675,,,,,,,,,,,,,,,,,167,U,triangle,1,0,,,5,,,,,,,,,,,,,repeat,number,numRpt,f,0.9686,vtsPrac,28,0,28,0,1,,,,,,,,,,,,,,,,,,,,,,,
297220,2022-12-05_14h34.01.892,vts_reward_expectancy_bt,2022.2.4,Win32,60.81245439,Chrome,1280,720,,,,,0,675,,,,,,,,,,,,,,,,,181,H,star,1,0,,,5,,,,,,,,,,,,,repeat,number,numRpt,f,0.7061,vtsPrac,29,0,29,0,1,,,,,,,,,,,,,,,,,,,,,,,
297220,2022-12-05_14h34.01.892,vts_reward_expectancy_bt,2022.2.4,Win32,60.81245439,Chrome,1280,720,,,,,0,675,,,,,,,,,,,,,,,,,174,S,triangle,1,0,,,5,,,,,,,,,,,,,repeat,number,numRpt,f,0.6072,vtsPrac,30,0,30,0,1,,,,,,,,,,,,,,,,,,,,,,,
297220,2022-12-05_14h34.01.892,vts_reward_expectancy_bt,2022.2.4,Win32,60.81245439,Chrome,1280,720,,,,,0,675,,,,,,,,,,,,,,,,,132,B,hexagon,1,0,,,5,,,,,,,,,,,,,repeat,number,numRpt,d,0.5336,vtsPrac,31,0,31,0,1,,,,,,,,,,,,,,,,,,,,,,,
297220,2022-12-05_14h34.01.892,vts_reward_expectancy_bt,2022.2.4,Win32,60.81245439,Chrome,1280,720,,,,,,,,,,,,,,,,,,,,,,,,,,,,,,,,,,,,,,,,,,,,,,,,,,,,,,,,,,,,,,,,,,,,,,,,,,,,
297220,2022-12-05_14h34.01.892,vts_reward_expectancy_bt,2022.2.4,Win32,60.81245439,Chrome,1280,720,,,,,,,,,,,,,,,,,,,,,,,,,,,,,,,,,,,,,,,,,,,,,,,,,,,,,,,,,,,,,,,,,,,,,,,,,,,,
297220,2022-12-05_14h34.01.892,vts_reward_expectancy_bt,2022.2.4,Win32,60.81245439,Chrome,1280,720,,,,,0,675,,,,,,,,,,,,,,,,,167,W,triangle,1,0,,,,,,,,,,,,,,,,repeat,number,numRpt,f,0.7253,noRew,,,,,,0,0,0,0,0,1,,,,,,,,,,,,,,,,,
297220,2022-12-05_14h34.01.892,vts_reward_expectancy_bt,2022.2.4,Win32,60.81245439,Chrome,1280,720,,,,,0,675,,,,,,,,,,,,,,,,,132,S,hexagon,1,0,,,,,,,,,,,,,,,,switch,letter,lettSwt,k,0.5743,noRew,,,,,,0,1,0,1,0,1,,,,,,,,,,,,,,,,,
297220,2022-12-05_14h34.01.892,vts_reward_expectancy_bt,2022.2.4,Win32,60.81245439,Chrome,1280,720,,,,,0,675,,,,,,,,,,,,,,,,,146,F,triangle,1,0,,,,,,,,,,,,,,,,switch,number,numSwt,d,0.7447,noRew,,,,,,0,2,0,2,0,1,,,,,,,,,,,,,,,,,
297220,2022-12-05_14h34.01.892,vts_reward_expectancy_bt,2022.2.4,Win32,60.81245439,Chrome,1280,720,,,,,0,675,,,,,,,,,,,,,,,,,139,H,hexagon,1,0,,,,,,,,,,,,,,,,repeat,number,numRpt,d,0.4921,noRew,,,,,,0,3,0,3,0,1,,,,,,,,,,,,,,,,,
297220,2022-12-05_14h34.01.892,vts_reward_expectancy_bt,2022.2.4,Win32,60.81245439,Chrome,1280,720,,,,,0,675,,,,,,,,,,,,,,,,,167,W,hexagon,1,0,,,,,,,,,,,,,,,,switch,letter,lettSwt,k,0.6546,noRew,,,,,,0,4,0,4,0,1,,,,,,,,,,,,,,,,,
297220,2022-12-05_14h34.01.892,vts_reward_expectancy_bt,2022.2.4,Win32,60.81245439,Chrome,1280,720,,,,,0,675,,,,,,,,,,,,,,,,,132,S,triangle,0,0,,,,,,,,,,,,,,,,repeat,letter,NA,j,0.8555,noRew,,,,,,0,5,0,5,0,1,,,,,,,,,,,,,,,,,
297220,2022-12-05_14h34.01.892,vts_reward_expectancy_bt,2022.2.4,Win32,60.81245439,Chrome,1280,720,,,,,0,675,,,,,,,,,,,,,,,,,146,F,hexagon,1,1,,,,,,,,,,,,,,,,switch,number,numSwt,d,0.8019,noRew,,,,,,0,6,0,6,0,1,,,,,,,,,,,,,,,,,
297220,2022-12-05_14h34.01.892,vts_reward_expectancy_bt,2022.2.4,Win32,60.81245439,Chrome,1280,720,,,,,0,675,,,,,,,,,,,,,,,,,139,H,triangle,1,0,,,,,,,,,,,,,,,,repeat,number,numRpt,d,0.6832,noRew,,,,,,0,7,0,7,0,1,,,,,,,,,,,,,,,,,
297220,2022-12-05_14h34.01.892,vts_reward_expectancy_bt,2022.2.4,Win32,60.81245439,Chrome,1280,720,,,,,0,675,,,,,,,,,,,,,,,,,174,B,hexagon,1,0,,,,,,,,,,,,,,,,switch,letter,lettSwt,j,0.665,noRew,,,,,,0,8,0,8,0,1,,,,,,,,,,,,,,,,,
297220,2022-12-05_14h34.01.892,vts_reward_expectancy_bt,2022.2.4,Win32,60.81245439,Chrome,1280,720,,,,,0,675,,,,,,,,,,,,,,,,,160,Y,star,1,0,,,,,,,,,,,,,,,,repeat,letter,lettRpt,k,0.5806,noRew,,,,,,0,9,0,9,0,1,,,,,,,,,,,,,,,,,
297220,2022-12-05_14h34.01.892,vts_reward_expectancy_bt,2022.2.4,Win32,60.81245439,Chrome,1280,720,,,,,0,675,,,,,,,,,,,,,,,,,146,S,triangle,1,0,,,,,,,,,,,,,,,,repeat,letter,lettRpt,k,0.8722,noRew,,,,,,0,10,0,10,0,1,,,,,,,,,,,,,,,,,
297220,2022-12-05_14h34.01.892,vts_reward_expectancy_bt,2022.2.4,Win32,60.81245439,Chrome,1280,720,,,,,0,675,,,,,,,,,,,,,,,,,125,U,hexagon,1,0,,,,,,,,,,,,,,,,repeat,letter,lettRpt,k,0.7693,noRew,,,,,,0,11,0,11,0,1,,,,,,,,,,,,,,,,,
297220,2022-12-05_14h34.01.892,vts_reward_expectancy_bt,2022.2.4,Win32,60.81245439,Chrome,1280,720,,,,,0,675,,,,,,,,,,,,,,,,,181,U,star,1,0,,,,,,,,,,,,,,,,repeat,letter,lettRpt,k,0.6172,noRew,,,,,,0,12,0,12,0,1,,,,,,,,,,,,,,,,,
297220,2022-12-05_14h34.01.892,vts_reward_expectancy_bt,2022.2.4,Win32,60.81245439,Chrome,1280,720,,,,,0,675,,,,,,,,,,,,,,,,,125,S,circle,1,0,,,,,,,,,,,,,,,,switch,number,numSwt,d,0.6002,noRew,,,,,,0,13,0,13,0,1,,,,,,,,,,,,,,,,,
297220,2022-12-05_14h34.01.892,vts_reward_expectancy_bt,2022.2.4,Win32,60.81245439,Chrome,1280,720,,,,,0,675,,,,,,,,,,,,,,,,,146,H,triangle,1,0,,,,,,,,,,,,,,,,repeat,number,numRpt,d,0.7188,noRew,,,,,,0,14,0,14,0,1,,,,,,,,,,,,,,,,,
297220,2022-12-05_14h34.01.892,vts_reward_expectancy_bt,2022.2.4,Win32,60.81245439,Chrome,1280,720,,,,,0,675,,,,,,,,,,,,,,,,,132,D,circle,1,0,,,,,,,,,,,,,,,,switch,letter,lettSwt,j,0.5663,noRew,,,,,,0,15,0,15,0,1,,,,,,,,,,,,,,,,,
297220,2022-12-05_14h34.01.892,vts_reward_expectancy_bt,2022.2.4,Win32,60.81245439,Chrome,1280,720,,,,,0,675,,,,,,,,,,,,,,,,,174,Y,triangle,1,0,,,,,,,,,,,,,,,,repeat,letter,lettRpt,k,0.9212,noRew,,,,,,0,16,0,16,0,1,,,,,,,,,,,,,,,,,
297220,2022-12-05_14h34.01.892,vts_reward_expectancy_bt,2022.2.4,Win32,60.81245439,Chrome,1280,720,,,,,0,675,,,,,,,,,,,,,,,,,139,U,circle,0,0,,,,,,,,,,,,,,,,repeat,letter,NA,j,0.5739,noRew,,,,,,0,17,0,17,0,1,,,,,,,,,,,,,,,,,
297220,2022-12-05_14h34.01.892,vts_reward_expectancy_bt,2022.2.4,Win32,60.81245439,Chrome,1280,720,,,,,0,675,,,,,,,,,,,,,,,,,125,H,circle,1,1,,,,,,,,,,,,,,,,switch,number,numSwt,d,0.9991,noRew,,,,,,0,18,0,18,0,1,,,,,,,,,,,,,,,,,
297220,2022-12-05_14h34.01.892,vts_reward_expectancy_bt,2022.2.4,Win32,60.81245439,Chrome,1280,720,,,,,0,675,,,,,,,,,,,,,,,,,181,W,triangle,1,0,,,,,,,,,,,,,,,,switch,letter,lettSwt,k,0.5674,noRew,,,,,,0,19,0,19,0,1,,,,,,,,,,,,,,,,,
297220,2022-12-05_14h34.01.892,vts_reward_expectancy_bt,2022.2.4,Win32,60.81245439,Chrome,1280,720,,,,,0,675,,,,,,,,,,,,,,,,,174,Y,star,1,0,,,,,,,,,,,,,,,,repeat,letter,lettRpt,k,0.5833,noRew,,,,,,0,20,0,20,0,1,,,,,,,,,,,,,,,,,
297220,2022-12-05_14h34.01.892,vts_reward_expectancy_bt,2022.2.4,Win32,60.81245439,Chrome,1280,720,,,,,0,675,,,,,,,,,,,,,,,,,160,D,hexagon,1,0,,,,,,,,,,,,,,,,switch,number,numSwt,f,0.6006,noRew,,,,,,0,21,0,21,0,1,,,,,,,,,,,,,,,,,
297220,2022-12-05_14h34.01.892,vts_reward_expectancy_bt,2022.2.4,Win32,60.81245439,Chrome,1280,720,,,,,0,675,,,,,,,,,,,,,,,,,132,F,circle,0,0,,,,,,,,,,,,,,,,switch,letter,NA,k,0.7788,noRew,,,,,,0,22,0,22,0,1,,,,,,,,,,,,,,,,,
297220,2022-12-05_14h34.01.892,vts_reward_expectancy_bt,2022.2.4,Win32,60.81245439,Chrome,1280,720,,,,,0,675,,,,,,,,,,,,,,,,,125,W,star,0,1,,,,,,,,,,,,,,,,repeat,letter,NA,j,0.518,noRew,,,,,,0,23,0,23,0,1,,,,,,,,,,,,,,,,,
297220,2022-12-05_14h34.01.892,vts_reward_expectancy_bt,2022.2.4,Win32,60.81245439,Chrome,1280,720,,,,,0,675,,,,,,,,,,,,,,,,,167,S,star,1,1,,,,,,,,,,,,,,,,switch,number,numSwt,f,0.6669,noRew,,,,,,0,24,0,24,0,1,,,,,,,,,,,,,,,,,
297220,2022-12-05_14h34.01.892,vts_reward_expectancy_bt,2022.2.4,Win32,60.81245439,Chrome,1280,720,,,,,0,675,,,,,,,,,,,,,,,,,160,F,circle,1,0,,,,,,,,,,,,,,,,repeat,number,numRpt,f,0.6733,noRew,,,,,,0,25,0,25,0,1,,,,,,,,,,,,,,,,,
297220,2022-12-05_14h34.01.892,vts_reward_expectancy_bt,2022.2.4,Win32,60.81245439,Chrome,1280,720,,,,,0,675,,,,,,,,,,,,,,,,,132,Y,triangle,1,0,,,,,,,,,,,,,,,,repeat,number,numRpt,d,0.7263,noRew,,,,,,0,26,0,26,0,1,,,,,,,,,,,,,,,,,
297220,2022-12-05_14h34.01.892,vts_reward_expectancy_bt,2022.2.4,Win32,60.81245439,Chrome,1280,720,,,,,0,675,,,,,,,,,,,,,,,,,174,U,star,1,0,,,,,,,,,,,,,,,,switch,letter,lettSwt,k,0.5387,noRew,,,,,,0,27,0,27,0,1,,,,,,,,,,,,,,,,,
297220,2022-12-05_14h34.01.892,vts_reward_expectancy_bt,2022.2.4,Win32,60.81245439,Chrome,1280,720,,,,,0,675,,,,,,,,,,,,,,,,,132,F,triangle,1,0,,,,,,,,,,,,,,,,repeat,letter,lettRpt,j,0.5922,noRew,,,,,,0,28,0,28,0,1,,,,,,,,,,,,,,,,,
297220,2022-12-05_14h34.01.892,vts_reward_expectancy_bt,2022.2.4,Win32,60.81245439,Chrome,1280,720,,,,,0,675,,,,,,,,,,,,,,,,,146,B,circle,0,0,,,,,,,,,,,,,,,,repeat,letter,NA,k,0.5121,noRew,,,,,,0,29,0,29,0,1,,,,,,,,,,,,,,,,,
297220,2022-12-05_14h34.01.892,vts_reward_expectancy_bt,2022.2.4,Win32,60.81245439,Chrome,1280,720,,,,,0,675,,,,,,,,,,,,,,,,,125,Y,triangle,1,1,,,,,,,,,,,,,,,,repeat,letter,lettRpt,k,0.64,noRew,,,,,,0,30,0,30,0,1,,,,,,,,,,,,,,,,,
297220,2022-12-05_14h34.01.892,vts_reward_expectancy_bt,2022.2.4,Win32,60.81245439,Chrome,1280,720,,,,,0,675,,,,,,,,,,,,,,,,,160,H,circle,1,0,,,,,,,,,,,,,,,,repeat,letter,lettRpt,j,0.7605,noRew,,,,,,0,31,0,31,0,1,,,,,,,,,,,,,,,,,
297220,2022-12-05_14h34.01.892,vts_reward_expectancy_bt,2022.2.4,Win32,60.81245439,Chrome,1280,720,,,,,0,675,,,,,,,,,,,,,,,,,125,U,star,1,0,,,,,,,,,,,,,,,,switch,number,numSwt,d,0.4423,noRew,,,,,,0,32,0,32,0,1,,,,,,,,,,,,,,,,,
297220,2022-12-05_14h34.01.892,vts_reward_expectancy_bt,2022.2.4,Win32,60.81245439,Chrome,1280,720,,,,,0,675,,,,,,,,,,,,,,,,,132,D,triangle,1,0,,,,,,,,,,,,,,,,repeat,number,numRpt,d,0.506,noRew,,,,,,0,33,0,33,0,1,,,,,,,,,,,,,,,,,
297220,2022-12-05_14h34.01.892,vts_reward_expectancy_bt,2022.2.4,Win32,60.81245439,Chrome,1280,720,,,,,0,675,,,,,,,,,,,,,,,,,160,H,triangle,0,0,,,,,,,,,,,,,,,,switch,letter,NA,k,0.5533,noRew,,,,,,0,34,0,34,0,1,,,,,,,,,,,,,,,,,
297220,2022-12-05_14h34.01.892,vts_reward_expectancy_bt,2022.2.4,Win32,60.81245439,Chrome,1280,720,,,,,0,675,,,,,,,,,,,,,,,,,146,S,star,0,1,,,,,,,,,,,,,,,,repeat,letter,NA,j,0.6719,noRew,,,,,,0,35,0,35,0,1,,,,,,,,,,,,,,,,,
297220,2022-12-05_14h34.01.892,vts_reward_expectancy_bt,2022.2.4,Win32,60.81245439,Chrome,1280,720,,,,,0,675,,,,,,,,,,,,,,,,,174,W,circle,1,1,,,,,,,,,,,,,,,,repeat,letter,lettRpt,k,0.5548,noRew,,,,,,0,36,0,36,0,1,,,,,,,,,,,,,,,,,
297220,2022-12-05_14h34.01.892,vts_reward_expectancy_bt,2022.2.4,Win32,60.81245439,Chrome,1280,720,,,,,0,675,,,,,,,,,,,,,,,,,181,H,hexagon,1,0,,,,,,,,,,,,,,,,switch,number,numSwt,f,0.5517,noRew,,,,,,0,37,0,37,0,1,,,,,,,,,,,,,,,,,
297220,2022-12-05_14h34.01.892,vts_reward_expectancy_bt,2022.2.4,Win32,60.81245439,Chrome,1280,720,,,,,0,675,,,,,,,,,,,,,,,,,125,S,star,1,0,,,,,,,,,,,,,,,,repeat,number,numRpt,d,0.6454,noRew,,,,,,0,38,0,38,0,1,,,,,,,,,,,,,,,,,
297220,2022-12-05_14h34.01.892,vts_reward_expectancy_bt,2022.2.4,Win32,60.81245439,Chrome,1280,720,,,,,0,675,,,,,,,,,,,,,,,,,139,U,triangle,0,0,,,,,,,,,,,,,,,,switch,letter,NA,j,0.5606,noRew,,,,,,0,39,0,39,0,1,,,,,,,,,,,,,,,,,
297220,2022-12-05_14h34.01.892,vts_reward_expectancy_bt,2022.2.4,Win32,60.81245439,Chrome,1280,720,,,,,0,675,,,,,,,,,,,,,,,,,174,Y,star,1,1,,,,,,,,,,,,,,,,switch,number,numSwt,f,0.4708,noRew,,,,,,0,40,0,40,0,1,,,,,,,,,,,,,,,,,
297220,2022-12-05_14h34.01.892,vts_reward_expectancy_bt,2022.2.4,Win32,60.81245439,Chrome,1280,720,,,,,0,675,,,,,,,,,,,,,,,,,167,H,triangle,1,0,,,,,,,,,,,,,,,,repeat,number,numRpt,f,0.8639,noRew,,,,,,0,41,0,41,0,1,,,,,,,,,,,,,,,,,
297220,2022-12-05_14h34.01.892,vts_reward_expectancy_bt,2022.2.4,Win32,60.81245439,Chrome,1280,720,,,,,0,675,,,,,,,,,,,,,,,,,132,S,hexagon,1,0,,,,,,,,,,,,,,,,switch,letter,lettSwt,k,0.6289,noRew,,,,,,0,42,0,42,0,1,,,,,,,,,,,,,,,,,
297220,2022-12-05_14h34.01.892,vts_reward_expectancy_bt,2022.2.4,Win32,60.81245439,Chrome,1280,720,,,,,0,675,,,,,,,,,,,,,,,,,139,D,star,1,0,,,,,,,,,,,,,,,,repeat,letter,lettRpt,j,0.5964,noRew,,,,,,0,43,0,43,0,1,,,,,,,,,,,,,,,,,
297220,2022-12-05_14h34.01.892,vts_reward_expectancy_bt,2022.2.4,Win32,60.81245439,Chrome,1280,720,,,,,0,675,,,,,,,,,,,,,,,,,167,D,circle,1,0,,,,,,,,,,,,,,,,switch,number,numSwt,f,0.7796,noRew,,,,,,0,44,0,44,0,1,,,,,,,,,,,,,,,,,
297220,2022-12-05_14h34.01.892,vts_reward_expectancy_bt,2022.2.4,Win32,60.81245439,Chrome,1280,720,,,,,0,675,,,,,,,,,,,,,,,,,139,Y,hexagon,1,0,,,,,,,,,,,,,,,,switch,letter,lettSwt,k,0.9551,noRew,,,,,,0,45,0,45,0,1,,,,,,,,,,,,,,,,,
297220,2022-12-05_14h34.01.892,vts_reward_expectancy_bt,2022.2.4,Win32,60.81245439,Chrome,1280,720,,,,,0,675,,,,,,,,,,,,,,,,,125,F,triangle,0,0,,,,,,,,,,,,,,,,switch,number,NA,f,0.5832,noRew,,,,,,0,46,0,46,0,1,,,,,,,,,,,,,,,,,
297220,2022-12-05_14h34.01.892,vts_reward_expectancy_bt,2022.2.4,Win32,60.81245439,Chrome,1280,720,,,,,0,675,,,,,,,,,,,,,,,,,132,S,star,1,1,,,,,,,,,,,,,,,,repeat,number,numRpt,d,0.7077,noRew,,,,,,0,47,0,47,0,1,,,,,,,,,,,,,,,,,
297220,2022-12-05_14h34.01.892,vts_reward_expectancy_bt,2022.2.4,Win32,60.81245439,Chrome,1280,720,,,,,0,675,,,,,,,,,,,,,,,,,132,S,star,1,0,,,,,,,,,,,,,,,,repeat,number,numRpt,d,0.6755,noRew,,,,,,0,48,0,48,0,1,,,,,,,,,,,,,,,,,
297220,2022-12-05_14h34.01.892,vts_reward_expectancy_bt,2022.2.4,Win32,60.81245439,Chrome,1280,720,,,,,0,675,,,,,,,,,,,,,,,,,146,B,triangle,1,0,,,,,,,,,,,,,,,,repeat,number,numRpt,d,0.6163,noRew,,,,,,0,49,0,49,0,1,,,,,,,,,,,,,,,,,
297220,2022-12-05_14h34.01.892,vts_reward_expectancy_bt,2022.2.4,Win32,60.81245439,Chrome,1280,720,,,,,0,675,,,,,,,,,,,,,,,,,167,D,triangle,0,0,,,,,,,,,,,,,,,,repeat,number,NA,d,0.5044,noRew,,,,,,0,50,0,50,0,1,,,,,,,,,,,,,,,,,
297220,2022-12-05_14h34.01.892,vts_reward_expectancy_bt,2022.2.4,Win32,60.81245439,Chrome,1280,720,,,,,0,675,,,,,,,,,,,,,,,,,174,U,star,0,1,,,,,,,,,,,,,,,,repeat,number,NA,d,0.8675,noRew,,,,,,0,51,0,51,0,1,,,,,,,,,,,,,,,,,
297220,2022-12-05_14h34.01.892,vts_reward_expectancy_bt,2022.2.4,Win32,60.81245439,Chrome,1280,720,,,,,0,675,,,,,,,,,,,,,,,,,167,D,star,1,1,,,,,,,,,,,,,,,,repeat,number,numRpt,f,0.6437,noRew,,,,,,0,52,0,52,0,1,,,,,,,,,,,,,,,,,
297220,2022-12-05_14h34.01.892,vts_reward_expectancy_bt,2022.2.4,Win32,60.81245439,Chrome,1280,720,,,,,0,675,,,,,,,,,,,,,,,,,174,F,circle,1,0,,,,,,,,,,,,,,,,switch,letter,lettSwt,j,0.5831,noRew,,,,,,0,53,0,53,0,1,,,,,,,,,,,,,,,,,
297220,2022-12-05_14h34.01.892,vts_reward_expectancy_bt,2022.2.4,Win32,60.81245439,Chrome,1280,720,,,,,0,675,,,,,,,,,,,,,,,,,146,S,triangle,1,0,,,,,,,,,,,,,,,,switch,number,numSwt,d,0.6048,noRew,,,,,,0,54,0,54,0,1,,,,,,,,,,,,,,,,,
297220,2022-12-05_14h34.01.892,vts_reward_expectancy_bt,2022.2.4,Win32,60.81245439,Chrome,1280,720,,,,,0,675,,,,,,,,,,,,,,,,,139,U,hexagon,1,0,,,,,,,,,,,,,,,,repeat,number,numRpt,d,0.3,noRew,,,,,,0,55,0,55,0,1,,,,,,,,,,,,,,,,,
297220,2022-12-05_14h34.01.892,vts_reward_expectancy_bt,2022.2.4,Win32,60.81245439,Chrome,1280,720,,,,,0,675,,,,,,,,,,,,,,,,,125,H,circle,1,0,,,,,,,,,,,,,,,,switch,letter,lettSwt,j,0.5798,noRew,,,,,,0,56,0,56,0,1,,,,,,,,,,,,,,,,,
297220,2022-12-05_14h34.01.892,vts_reward_expectancy_bt,2022.2.4,Win32,60.81245439,Chrome,1280,720,,,,,0,675,,,,,,,,,,,,,,,,,174,B,star,1,0,,,,,,,,,,,,,,,,repeat,letter,lettRpt,j,0.5997,noRew,,,,,,0,57,0,57,0,1,,,,,,,,,,,,,,,,,
297220,2022-12-05_14h34.01.892,vts_reward_expectancy_bt,2022.2.4,Win32,60.81245439,Chrome,1280,720,,,,,0,675,,,,,,,,,,,,,,,,,132,W,triangle,1,0,,,,,,,,,,,,,,,,repeat,letter,lettRpt,k,0.617,noRew,,,,,,0,58,0,58,0,1,,,,,,,,,,,,,,,,,
297220,2022-12-05_14h34.01.892,vts_reward_expectancy_bt,2022.2.4,Win32,60.81245439,Chrome,1280,720,,,,,0,675,,,,,,,,,,,,,,,,,139,F,circle,0,0,,,,,,,,,,,,,,,,repeat,letter,NA,k,0.6338,noRew,,,,,,0,59,0,59,0,1,,,,,,,,,,,,,,,,,
297220,2022-12-05_14h34.01.892,vts_reward_expectancy_bt,2022.2.4,Win32,60.81245439,Chrome,1280,720,,,,,0,675,,,,,,,,,,,,,,,,,167,Y,triangle,0,1,,,,,,,,,,,,,,,,repeat,letter,NA,j,0.5286,noRew,,,,,,0,60,0,60,0,1,,,,,,,,,,,,,,,,,
297220,2022-12-05_14h34.01.892,vts_reward_expectancy_bt,2022.2.4,Win32,60.81245439,Chrome,1280,720,,,,,0,675,,,,,,,,,,,,,,,,,125,U,hexagon,1,1,,,,,,,,,,,,,,,,switch,number,numSwt,d,0.6497,noRew,,,,,,0,61,0,61,0,1,,,,,,,,,,,,,,,,,
297220,2022-12-05_14h34.01.892,vts_reward_expectancy_bt,2022.2.4,Win32,60.81245439,Chrome,1280,720,,,,,0,675,,,,,,,,,,,,,,,,,181,W,star,0,0,,,,,,,,,,,,,,,,repeat,number,NA,d,1.317,noRew,,,,,,0,62,0,62,0,1,,,,,,,,,,,,,,,,,
297220,2022-12-05_14h34.01.892,vts_reward_expectancy_bt,2022.2.4,Win32,60.81245439,Chrome,1280,720,,,,,0,675,,,,,,,,,,,,,,,,,139,S,hexagon,0,1,,,,,,,,,,,,,,,,repeat,number,NA,f,1.351,noRew,,,,,,0,63,0,63,0,1,,,,,,,,,,,,,,,,,
297220,2022-12-05_14h34.01.892,vts_reward_expectancy_bt,2022.2.4,Win32,60.81245439,Chrome,1280,720,,,,,,,,,,,,,,,,,,,,,,,,,,,,,,,,,,,,,,,,,,,,,,,,,,,,,,,,,,,,,,,,,,,,,,,,,,,,
297220,2022-12-05_14h34.01.892,vts_reward_expectancy_bt,2022.2.4,Win32,60.81245439,Chrome,1280,720,,,,,0,675,,,,,,,,,,,,,,,,,132,F,hexagon,1,1,,,,,,,,,,,,,,,,repeat,number,numRpt,d,0.8464,Hi,,,,,,0,,,,,,space,0.6828,low,0,0,0,0,1,,,,,,,,,
297220,2022-12-05_14h34.01.892,vts_reward_expectancy_bt,2022.2.4,Win32,60.81245439,Chrome,1280,720,,,,,0,675,,,,,,,,,,,,,,,,,181,D,circle,0,0,,,,,,,,,,,,,,,,repeat,number,NA,d,0.4801,Hi,,,,,,0,,,,,,,,low,1,0,1,0,1,,,,,,,,,
297220,2022-12-05_14h34.01.892,vts_reward_expectancy_bt,2022.2.4,Win32,60.81245439,Chrome,1280,720,,,,,1,676,,,,,,,,,,,,,,,,,146,B,triangle,1,1,,,,,,,,,,,,,,,,repeat,number,numRpt,d,0.5092,Lo,,,,,,0,,,,,,,,low,2,0,2,0,1,,,,,,,,,
297220,2022-12-05_14h34.01.892,vts_reward_expectancy_bt,2022.2.4,Win32,60.81245439,Chrome,1280,720,,,,,1,677,,,,,,,,,,,,,,,,,160,S,star,1,0,,,,,,,,,,,,,,,,repeat,number,numRpt,f,0.4166,Lo,,,,,,0,,,,,,,,low,3,0,3,0,1,,,,,,,,,
297220,2022-12-05_14h34.01.892,vts_reward_expectancy_bt,2022.2.4,Win32,60.81245439,Chrome,1280,720,,,,,0,677,,,,,,,,,,,,,,,,,167,W,hexagon,0,0,,,,,,,,,,,,,,,,switch,letter,NA,j,0.1919,Lo,,,,,,0,,,,,,,,low,4,0,4,0,1,,,,,,,,,
297220,2022-12-05_14h34.01.892,vts_reward_expectancy_bt,2022.2.4,Win32,60.81245439,Chrome,1280,720,,,,,0,677,,,,,,,,,,,,,,,,,139,H,circle,0,1,,,,,,,,,,,,,,,,repeat,letter,NA,k,0.4402,Lo,,,,,,0,,,,,,,,low,5,0,5,0,1,,,,,,,,,
297220,2022-12-05_14h34.01.892,vts_reward_expectancy_bt,2022.2.4,Win32,60.81245439,Chrome,1280,720,,,,,1,678,,,,,,,,,,,,,,,,,174,U,triangle,1,1,,,,,,,,,,,,,,,,switch,number,numSwt,f,0.3654,Lo,,,,,,0,,,,,,,,low,6,0,6,0,1,,,,,,,,,
297220,2022-12-05_14h34.01.892,vts_reward_expectancy_bt,2022.2.4,Win32,60.81245439,Chrome,1280,720,,,,,0,678,,,,,,,,,,,,,,,,,125,Y,star,0,0,,,,,,,,,,,,,,,,repeat,number,NA,f,0.4549,Lo,,,,,,0,,,,,,,,low,7,0,7,0,1,,,,,,,,,
297220,2022-12-05_14h34.01.892,vts_reward_expectancy_bt,2022.2.4,Win32,60.81245439,Chrome,1280,720,,,,,10,688,,,,,,,,,,,,,,,,,132,F,circle,1,1,,,,,,,,,,,,,,,,repeat,number,numRpt,d,0.411,Hi,,,,,,0,,,,,,,,low,8,0,8,0,1,,,,,,,,,
297220,2022-12-05_14h34.01.892,vts_reward_expectancy_bt,2022.2.4,Win32,60.81245439,Chrome,1280,720,,,,,1,689,,,,,,,,,,,,,,,,,181,D,triangle,1,0,,,,,,,,,,,,,,,,repeat,number,numRpt,f,0.4843,Lo,,,,,,0,,,,,,,,low,9,0,9,0,1,,,,,,,,,
297220,2022-12-05_14h34.01.892,vts_reward_expectancy_bt,2022.2.4,Win32,60.81245439,Chrome,1280,720,,,,,0,689,,,,,,,,,,,,,,,,,146,B,star,0,0,,,,,,,,,,,,,,,,repeat,number,NA,f,0.6052,Lo,,,,,,0,,,,,,,,low,10,0,10,0,1,,,,,,,,,
297220,2022-12-05_14h34.01.892,vts_reward_expectancy_bt,2022.2.4,Win32,60.81245439,Chrome,1280,720,,,,,10,699,,,,,,,,,,,,,,,,,160,S,hexagon,1,1,,,,,,,,,,,,,,,,repeat,number,numRpt,f,0.5501,Hi,,,,,,0,,,,,,,,low,11,0,11,0,1,,,,,,,,,
297220,2022-12-05_14h34.01.892,vts_reward_expectancy_bt,2022.2.4,Win32,60.81245439,Chrome,1280,720,,,,,10,709,,,,,,,,,,,,,,,,,167,W,star,1,0,,,,,,,,,,,,,,,,repeat,number,numRpt,f,0.9332,Lo,,,,,,0,,,,,,,,low,12,0,12,0,1,,,,,,,,,
297220,2022-12-05_14h34.01.892,vts_reward_expectancy_bt,2022.2.4,Win32,60.81245439,Chrome,1280,720,,,,,0,709,,,,,,,,,,,,,,,,,139,H,hexagon,0,0,,,,,,,,,,,,,,,,repeat,number,NA,f,0.4666,Lo,,,,,,0,,,,,,,,low,13,0,13,0,1,,,,,,,,,
297220,2022-12-05_14h34.01.892,vts_reward_expectancy_bt,2022.2.4,Win32,60.81245439,Chrome,1280,720,,,,,10,719,,,,,,,,,,,,,,,,,174,U,triangle,1,1,,,,,,,,,,,,,,,,repeat,number,numRpt,f,0.4925,Lo,,,,,,0,,,,,,,,low,14,0,14,0,1,,,,,,,,,
297220,2022-12-05_14h34.01.892,vts_reward_expectancy_bt,2022.2.4,Win32,60.81245439,Chrome,1280,720,,,,,1,720,,,,,,,,,,,,,,,,,125,Y,circle,1,0,,,,,,,,,,,,,,,,repeat,number,numRpt,d,0.4839,Hi,,,,,,0,,,,,,,,low,15,0,15,0,1,,,,,,,,,
297220,2022-12-05_14h34.01.892,vts_reward_expectancy_bt,2022.2.4,Win32,60.81245439,Chrome,1280,720,,,,,1,721,,,,,,,,,,,,,,,,,146,F,star,1,0,,,,,,,,,,,,,,,,switch,letter,lettSwt,j,0.5424,Lo,,,,,,0,,,,,,,,low,16,0,16,0,1,,,,,,,,,
297220,2022-12-05_14h34.01.892,vts_reward_expectancy_bt,2022.2.4,Win32,60.81245439,Chrome,1280,720,,,,,0,721,,,,,,,,,,,,,,,,,167,S,hexagon,0,0,,,,,,,,,,,,,,,,switch,number,NA,d,0.8857,Lo,,,,,,0,,,,,,,,low,17,0,17,0,1,,,,,,,,,
297220,2022-12-05_14h34.01.892,vts_reward_expectancy_bt,2022.2.4,Win32,60.81245439,Chrome,1280,720,,,,,1,722,,,,,,,,,,,,,,,,,181,H,triangle,1,1,,,,,,,,,,,,,,,,repeat,number,numRpt,f,0.6832,Lo,,,,,,0,,,,,,,,low,18,0,18,0,1,,,,,,,,,
297220,2022-12-05_14h34.01.892,vts_reward_expectancy_bt,2022.2.4,Win32,60.81245439,Chrome,1280,720,,,,,0,722,,,,,,,,,,,,,,,,,132,B,circle,1,0,,,,,,,,,,,,,,,,repeat,number,numRpt,d,0.785,Hi,,,,,,0,,,,,,,,low,19,0,19,0,1,,,,,,,,,
297220,2022-12-05_14h34.01.892,vts_reward_expectancy_bt,2022.2.4,Win32,60.81245439,Chrome,1280,720,,,,,0,722,,,,,,,,,,,,,,,,,125,D,circle,0,0,,,,,,,,,,,,,,,,repeat,number,NA,f,0.423,Hi,,,,,,0,,,,,,,,low,20,0,20,0,1,,,,,,,,,
297220,2022-12-05_14h34.01.892,vts_reward_expectancy_bt,2022.2.4,Win32,60.81245439,Chrome,1280,720,,,,,1,723,,,,,,,,,,,,,,,,,160,Y,triangle,1,1,,,,,,,,,,,,,,,,repeat,number,numRpt,f,0.4449,Lo,,,,,,0,,,,,,,,low,21,0,21,0,1,,,,,,,,,
297220,2022-12-05_14h34.01.892,vts_reward_expectancy_bt,2022.2.4,Win32,60.81245439,Chrome,1280,720,,,,,0,723,,,,,,,,,,,,,,,,,174,U,star,0,0,,,,,,,,,,,,,,,,switch,letter,NA,j,0.4932,Lo,,,,,,0,,,,,,,,low,22,0,22,0,1,,,,,,,,,
297220,2022-12-05_14h34.01.892,vts_reward_expectancy_bt,2022.2.4,Win32,60.81245439,Chrome,1280,720,,,,,10,733,,,,,,,,,,,,,,,,,139,W,hexagon,1,1,,,,,,,,,,,,,,,,switch,number,numSwt,d,0.5518,Hi,,,,,,0,,,,,,,,low,23,0,23,0,1,,,,,,,,,
297220,2022-12-05_14h34.01.892,vts_reward_expectancy_bt,2022.2.4,Win32,60.81245439,Chrome,1280,720,,,,,0,733,,,,,,,,,,,,,,,,,167,Y,triangle,0,0,,,,,,,,,,,,,,,,switch,letter,NA,j,0.5337,Hi,,,,,,0,,,,,,,,low,24,0,24,0,1,,,,,,,,,
297220,2022-12-05_14h34.01.892,vts_reward_expectancy_bt,2022.2.4,Win32,60.81245439,Chrome,1280,720,,,,,10,743,,,,,,,,,,,,,,,,,125,S,hexagon,1,1,,,,,,,,,,,,,,,,switch,number,numSwt,d,0.4331,Hi,,,,,,0,,,,,,,,low,25,0,25,0,1,,,,,,,,,
297220,2022-12-05_14h34.01.892,vts_reward_expectancy_bt,2022.2.4,Win32,60.81245439,Chrome,1280,720,,,,,10,753,,,,,,,,,,,,,,,,,160,B,circle,1,0,,,,,,,,,,,,,,,,repeat,number,numRpt,f,0.406,Hi,,,,,,0,,,,,,,,low,26,0,26,0,1,,,,,,,,,
297220,2022-12-05_14h34.01.892,vts_reward_expectancy_bt,2022.2.4,Win32,60.81245439,Chrome,1280,720,,,,,1,754,,,,,,,,,,,,,,,,,181,F,star,1,0,,,,,,,,,,,,,,,,repeat,number,numRpt,f,0.9823,Lo,,,,,,0,,,,,,,,low,27,0,27,0,1,,,,,,,,,
297220,2022-12-05_14h34.01.892,vts_reward_expectancy_bt,2022.2.4,Win32,60.81245439,Chrome,1280,720,,,,,1,755,,,,,,,,,,,,,,,,,174,H,triangle,1,0,,,,,,,,,,,,,,,,repeat,number,numRpt,f,0.5011,Lo,,,,,,0,,,,,,,,low,28,0,28,0,1,,,,,,,,,
297220,2022-12-05_14h34.01.892,vts_reward_expectancy_bt,2022.2.4,Win32,60.81245439,Chrome,1280,720,,,,,1,756,,,,,,,,,,,,,,,,,139,W,star,1,0,,,,,,,,,,,,,,,,repeat,number,numRpt,d,0.6291,Lo,,,,,,0,,,,,,,,low,29,0,29,0,1,,,,,,,,,
297220,2022-12-05_14h34.01.892,vts_reward_expectancy_bt,2022.2.4,Win32,60.81245439,Chrome,1280,720,,,,,10,766,,,,,,,,,,,,,,,,,146,U,circle,1,0,,,,,,,,,,,,,,,,switch,letter,lettSwt,k,0.4574,Hi,,,,,,0,,,,,,,,low,30,0,30,0,1,,,,,,,,,
297220,2022-12-05_14h34.01.892,vts_reward_expectancy_bt,2022.2.4,Win32,60.81245439,Chrome,1280,720,,,,,10,776,,,,,,,,,,,,,,,,,132,D,hexagon,1,0,,,,,,,,,,,,,,,,repeat,letter,lettRpt,j,0.5528,Hi,,,,,,0,,,,,,,,low,31,0,31,0,1,,,,,,,,,
297220,2022-12-05_14h34.01.892,vts_reward_expectancy_bt,2022.2.4,Win32,60.81245439,Chrome,1280,720,,,,,0,776,,,,,,,,,,,,,,,,,160,W,hexagon,1,0,,,,,,,,,,,,,,,,switch,number,numSwt,f,0.5288,Hi,,,,,,1,,,,,,space,12.948,low,0,0,0,0,1,,,,,,,,,
297220,2022-12-05_14h34.01.892,vts_reward_expectancy_bt,2022.2.4,Win32,60.81245439,Chrome,1280,720,,,,,0,776,,,,,,,,,,,,,,,,,174,F,triangle,0,0,,,,,,,,,,,,,,,,repeat,number,NA,d,0.355,Hi,,,,,,1,,,,,,,,low,1,0,1,0,1,,,,,,,,,
297220,2022-12-05_14h34.01.892,vts_reward_expectancy_bt,2022.2.4,Win32,60.81245439,Chrome,1280,720,,,,,1,777,,,,,,,,,,,,,,,,,139,B,circle,1,1,,,,,,,,,,,,,,,,switch,letter,lettSwt,j,0.3907,Hi,,,,,,1,,,,,,,,low,2,0,2,0,1,,,,,,,,,
297220,2022-12-05_14h34.01.892,vts_reward_expectancy_bt,2022.2.4,Win32,60.81245439,Chrome,1280,720,,,,,1,778,,,,,,,,,,,,,,,,,167,Y,star,1,0,,,,,,,,,,,,,,,,switch,number,numSwt,f,0.3573,Lo,,,,,,1,,,,,,,,low,3,0,3,0,1,,,,,,,,,
297220,2022-12-05_14h34.01.892,vts_reward_expectancy_bt,2022.2.4,Win32,60.81245439,Chrome,1280,720,,,,,0,778,,,,,,,,,,,,,,,,,132,H,hexagon,1,0,,,,,,,,,,,,,,,,switch,letter,lettSwt,j,0.5832,Hi,,,,,,1,,,,,,,,low,4,0,4,0,1,,,,,,,,,
297220,2022-12-05_14h34.01.892,vts_reward_expectancy_bt,2022.2.4,Win32,60.81245439,Chrome,1280,720,,,,,10,788,,,,,,,,,,,,,,,,,181,S,triangle,1,0,,,,,,,,,,,,,,,,switch,number,numSwt,f,0.3664,Lo,,,,,,1,,,,,,,,low,5,0,5,0,1,,,,,,,,,
297220,2022-12-05_14h34.01.892,vts_reward_expectancy_bt,2022.2.4,Win32,60.81245439,Chrome,1280,720,,,,,0,788,,,,,,,,,,,,,,,,,125,U,circle,0,0,,,,,,,,,,,,,,,,repeat,number,NA,f,0.4329,Lo,,,,,,1,,,,,,,,low,6,0,6,0,1,,,,,,,,,
297220,2022-12-05_14h34.01.892,vts_reward_expectancy_bt,2022.2.4,Win32,60.81245439,Chrome,1280,720,,,,,0,788,,,,,,,,,,,,,,,,,146,D,star,0,1,,,,,,,,,,,,,,,,repeat,number,NA,f,0.47,Lo,,,,,,1,,,,,,,,low,7,0,7,0,1,,,,,,,,,
297220,2022-12-05_14h34.01.892,vts_reward_expectancy_bt,2022.2.4,Win32,60.81245439,Chrome,1280,720,,,,,10,798,,,,,,,,,,,,,,,,,160,W,triangle,1,1,,,,,,,,,,,,,,,,switch,letter,lettSwt,k,0.4999,Lo,,,,,,1,,,,,,,,low,8,0,8,0,1,,,,,,,,,
297220,2022-12-05_14h34.01.892,vts_reward_expectancy_bt,2022.2.4,Win32,60.81245439,Chrome,1280,720,,,,,0,798,,,,,,,,,,,,,,,,,174,F,star,0,0,,,,,,,,,,,,,,,,repeat,letter,NA,k,0.9158,Lo,,,,,,1,,,,,,,,low,9,0,9,0,1,,,,,,,,,
297220,2022-12-05_14h34.01.892,vts_reward_expectancy_bt,2022.2.4,Win32,60.81245439,Chrome,1280,720,,,,,0,798,,,,,,,,,,,,,,,,,139,B,circle,1,1,,,,,,,,,,,,,,,,repeat,letter,lettRpt,j,1.0468,Hi,,,,,,1,,,,,,,,low,10,0,10,0,1,,,,,,,,,
297220,2022-12-05_14h34.01.892,vts_reward_expectancy_bt,2022.2.4,Win32,60.81245439,Chrome,1280,720,,,,,1,799,,,,,,,,,,,,,,,,,167,Y,hexagon,1,0,,,,,,,,,,,,,,,,repeat,letter,lettRpt,k,0.4951,Hi,,,,,,1,,,,,,,,low,11,0,11,0,1,,,,,,,,,
297220,2022-12-05_14h34.01.892,vts_reward_expectancy_bt,2022.2.4,Win32,60.81245439,Chrome,1280,720,,,,,1,800,,,,,,,,,,,,,,,,,132,H,star,1,0,,,,,,,,,,,,,,,,switch,number,numSwt,d,0.4699,Lo,,,,,,1,,,,,,,,low,12,0,12,0,1,,,,,,,,,
297220,2022-12-05_14h34.01.892,vts_reward_expectancy_bt,2022.2.4,Win32,60.81245439,Chrome,1280,720,,,,,0,800,,,,,,,,,,,,,,,,,181,S,circle,0,0,,,,,,,,,,,,,,,,switch,letter,NA,j,0.4429,Lo,,,,,,1,,,,,,,,low,13,0,13,0,1,,,,,,,,,
297220,2022-12-05_14h34.01.892,vts_reward_expectancy_bt,2022.2.4,Win32,60.81245439,Chrome,1280,720,,,,,1,801,,,,,,,,,,,,,,,,,125,U,triangle,1,1,,,,,,,,,,,,,,,,switch,number,numSwt,d,0.4162,Lo,,,,,,1,,,,,,,,low,14,0,14,0,1,,,,,,,,,
297220,2022-12-05_14h34.01.892,vts_reward_expectancy_bt,2022.2.4,Win32,60.81245439,Chrome,1280,720,,,,,0,801,,,,,,,,,,,,,,,,,146,D,hexagon,1,0,,,,,,,,,,,,,,,,repeat,number,numRpt,d,0.539,Hi,,,,,,1,,,,,,,,low,15,0,15,0,1,,,,,,,,,
297220,2022-12-05_14h34.01.892,vts_reward_expectancy_bt,2022.2.4,Win32,60.81245439,Chrome,1280,720,,,,,1,802,,,,,,,,,,,,,,,,,181,S,star,1,0,,,,,,,,,,,,,,,,repeat,number,numRpt,f,0.4182,Lo,,,,,,1,,,,,,,,low,16,0,16,0,1,,,,,,,,,
297220,2022-12-05_14h34.01.892,vts_reward_expectancy_bt,2022.2.4,Win32,60.81245439,Chrome,1280,720,,,,,1,803,,,,,,,,,,,,,,,,,167,D,hexagon,1,0,,,,,,,,,,,,,,,,repeat,number,numRpt,f,0.4175,Hi,,,,,,1,,,,,,,,low,17,0,17,0,1,,,,,,,,,
297220,2022-12-05_14h34.01.892,vts_reward_expectancy_bt,2022.2.4,Win32,60.81245439,Chrome,1280,720,,,,,1,804,,,,,,,,,,,,,,,,,139,W,triangle,1,0,,,,,,,,,,,,,,,,repeat,number,numRpt,d,0.5161,Lo,,,,,,1,,,,,,,,low,18,0,18,0,1,,,,,,,,,
297220,2022-12-05_14h34.01.892,vts_reward_expectancy_bt,2022.2.4,Win32,60.81245439,Chrome,1280,720,,,,,0,804,,,,,,,,,,,,,,,,,146,B,circle,0,0,,,,,,,,,,,,,,,,switch,letter,NA,k,0.4259,Lo,,,,,,1,,,,,,,,low,19,0,19,0,1,,,,,,,,,
297220,2022-12-05_14h34.01.892,vts_reward_expectancy_bt,2022.2.4,Win32,60.81245439,Chrome,1280,720,,,,,0,804,,,,,,,,,,,,,,,,,125,H,star,0,1,,,,,,,,,,,,,,,,repeat,letter,NA,k,0.7995,Lo,,,,,,1,,,,,,,,low,20,0,20,0,1,,,,,,,,,
297220,2022-12-05_14h34.01.892,vts_reward_expectancy_bt,2022.2.4,Win32,60.81245439,Chrome,1280,720,,,,,0,804,,,,,,,,,,,,,,,,,174,F,circle,0,1,,,,,,,,,,,,,,,,repeat,letter,NA,k,0.5674,Lo,,,,,,1,,,,,,,,low,21,0,21,0,1,,,,,,,,,
297220,2022-12-05_14h34.01.892,vts_reward_expectancy_bt,2022.2.4,Win32,60.81245439,Chrome,1280,720,,,,,0,804,,,,,,,,,,,,,,,,,132,U,triangle,0,1,,,,,,,,,,,,,,,,switch,number,NA,f,0.6704,Lo,,,,,,1,,,,,,,,low,22,0,22,0,1,,,,,,,,,
297220,2022-12-05_14h34.01.892,vts_reward_expectancy_bt,2022.2.4,Win32,60.81245439,Chrome,1280,720,,,,,10,814,,,,,,,,,,,,,,,,,160,Y,hexagon,1,1,,,,,,,,,,,,,,,,repeat,number,numRpt,f,0.4336,Hi,,,,,,1,,,,,,,,low,23,0,23,0,1,,,,,,,,,
297220,2022-12-05_14h34.01.892,vts_reward_expectancy_bt,2022.2.4,Win32,60.81245439,Chrome,1280,720,,,,,1,815,,,,,,,,,,,,,,,,,160,H,star,1,0,,,,,,,,,,,,,,,,repeat,number,numRpt,f,0.7655,Lo,,,,,,1,,,,,,,,low,24,0,24,0,1,,,,,,,,,
297220,2022-12-05_14h34.01.892,vts_reward_expectancy_bt,2022.2.4,Win32,60.81245439,Chrome,1280,720,,,,,1,816,,,,,,,,,,,,,,,,,174,B,triangle,1,0,,,,,,,,,,,,,,,,switch,letter,lettSwt,j,0.3436,Lo,,,,,,1,,,,,,,,low,25,0,25,0,1,,,,,,,,,
297220,2022-12-05_14h34.01.892,vts_reward_expectancy_bt,2022.2.4,Win32,60.81245439,Chrome,1280,720,,,,,10,826,,,,,,,,,,,,,,,,,146,U,hexagon,1,0,,,,,,,,,,,,,,,,repeat,letter,lettRpt,k,0.528,Hi,,,,,,1,,,,,,,,low,26,0,26,0,1,,,,,,,,,
297220,2022-12-05_14h34.01.892,vts_reward_expectancy_bt,2022.2.4,Win32,60.81245439,Chrome,1280,720,,,,,10,836,,,,,,,,,,,,,,,,,132,D,circle,1,0,,,,,,,,,,,,,,,,switch,number,numSwt,d,0.3764,Hi,,,,,,1,,,,,,,,low,27,0,27,0,1,,,,,,,,,
297220,2022-12-05_14h34.01.892,vts_reward_expectancy_bt,2022.2.4,Win32,60.81245439,Chrome,1280,720,,,,,10,846,,,,,,,,,,,,,,,,,181,W,triangle,1,0,,,,,,,,,,,,,,,,repeat,number,numRpt,f,0.4843,Lo,,,,,,1,,,,,,,,low,28,0,28,0,1,,,,,,,,,
297220,2022-12-05_14h34.01.892,vts_reward_expectancy_bt,2022.2.4,Win32,60.81245439,Chrome,1280,720,,,,,10,856,,,,,,,,,,,,,,,,,139,F,star,1,0,,,,,,,,,,,,,,,,repeat,number,numRpt,d,0.5281,Lo,,,,,,1,,,,,,,,low,29,0,29,0,1,,,,,,,,,
297220,2022-12-05_14h34.01.892,vts_reward_expectancy_bt,2022.2.4,Win32,60.81245439,Chrome,1280,720,,,,,0,856,,,,,,,,,,,,,,,,,167,S,hexagon,0,0,,,,,,,,,,,,,,,,repeat,number,NA,d,0.4326,Lo,,,,,,1,,,,,,,,low,30,0,30,0,1,,,,,,,,,
297220,2022-12-05_14h34.01.892,vts_reward_expectancy_bt,2022.2.4,Win32,60.81245439,Chrome,1280,720,,,,,0,856,,,,,,,,,,,,,,,,,125,Y,circle,1,1,,,,,,,,,,,,,,,,repeat,number,numRpt,d,0.6522,Hi,,,,,,1,,,,,,,,low,31,0,31,0,1,,,,,,,,,
297220,2022-12-05_14h34.01.892,vts_reward_expectancy_bt,2022.2.4,Win32,60.81245439,Chrome,1280,720,,,,,0,856,,,,,,,,,,,,,,,,,181,U,circle,1,0,,,,,,,,,,,,,,,,repeat,number,numRpt,f,0.583,Hi,,,,,,2,,,,,,space,1.117,low,0,0,0,0,1,,,,,,,,,
297220,2022-12-05_14h34.01.892,vts_reward_expectancy_bt,2022.2.4,Win32,60.81245439,Chrome,1280,720,,,,,0,856,,,,,,,,,,,,,,,,,146,D,star,0,0,,,,,,,,,,,,,,,,repeat,number,NA,f,0.4354,Hi,,,,,,2,,,,,,,,low,1,0,1,0,1,,,,,,,,,
297220,2022-12-05_14h34.01.892,vts_reward_expectancy_bt,2022.2.4,Win32,60.81245439,Chrome,1280,720,,,,,0,856,,,,,,,,,,,,,,,,,139,Y,hexagon,0,1,,,,,,,,,,,,,,,,repeat,number,NA,f,0.4709,Hi,,,,,,2,,,,,,,,low,2,0,2,0,1,,,,,,,,,
297220,2022-12-05_14h34.01.892,vts_reward_expectancy_bt,2022.2.4,Win32,60.81245439,Chrome,1280,720,,,,,1,857,,,,,,,,,,,,,,,,,167,F,triangle,1,1,,,,,,,,,,,,,,,,repeat,number,numRpt,f,0.4874,Lo,,,,,,2,,,,,,,,low,3,0,3,0,1,,,,,,,,,
297220,2022-12-05_14h34.01.892,vts_reward_expectancy_bt,2022.2.4,Win32,60.81245439,Chrome,1280,720,,,,,0,857,,,,,,,,,,,,,,,,,132,W,circle,0,0,,,,,,,,,,,,,,,,repeat,number,NA,f,0.4361,Lo,,,,,,2,,,,,,,,low,4,0,4,0,1,,,,,,,,,
297220,2022-12-05_14h34.01.892,vts_reward_expectancy_bt,2022.2.4,Win32,60.81245439,Chrome,1280,720,,,,,1,858,,,,,,,,,,,,,,,,,125,S,star,1,1,,,,,,,,,,,,,,,,repeat,number,numRpt,d,0.4167,Lo,,,,,,2,,,,,,,,low,5,0,5,0,1,,,,,,,,,
297220,2022-12-05_14h34.01.892,vts_reward_expectancy_bt,2022.2.4,Win32,60.81245439,Chrome,1280,720,,,,,0,858,,,,,,,,,,,,,,,,,174,B,hexagon,1,0,,,,,,,,,,,,,,,,switch,letter,lettSwt,j,0.3905,Hi,,,,,,2,,,,,,,,low,6,0,6,0,1,,,,,,,,,
297220,2022-12-05_14h34.01.892,vts_reward_expectancy_bt,2022.2.4,Win32,60.81245439,Chrome,1280,720,,,,,1,859,,,,,,,,,,,,,,,,,160,H,triangle,1,0,,,,,,,,,,,,,,,,switch,number,numSwt,f,0.592,Lo,,,,,,2,,,,,,,,low,7,0,7,0,1,,,,,,,,,
297220,2022-12-05_14h34.01.892,vts_reward_expectancy_bt,2022.2.4,Win32,60.81245439,Chrome,1280,720,,,,,0,859,,,,,,,,,,,,,,,,,181,U,circle,1,0,,,,,,,,,,,,,,,,repeat,number,numRpt,f,0.4831,Hi,,,,,,2,,,,,,,,low,8,0,8,0,1,,,,,,,,,
297220,2022-12-05_14h34.01.892,vts_reward_expectancy_bt,2022.2.4,Win32,60.81245439,Chrome,1280,720,,,,,0,859,,,,,,,,,,,,,,,,,146,D,hexagon,0,0,,,,,,,,,,,,,,,,repeat,number,NA,f,0.2053,Hi,,,,,,2,,,,,,,,low,9,0,9,0,1,,,,,,,,,
297220,2022-12-05_14h34.01.892,vts_reward_expectancy_bt,2022.2.4,Win32,60.81245439,Chrome,1280,720,,,,,1,860,,,,,,,,,,,,,,,,,139,Y,triangle,1,1,,,,,,,,,,,,,,,,repeat,number,numRpt,d,0.4898,Lo,,,,,,2,,,,,,,,low,10,0,10,0,1,,,,,,,,,
297220,2022-12-05_14h34.01.892,vts_reward_expectancy_bt,2022.2.4,Win32,60.81245439,Chrome,1280,720,,,,,1,861,,,,,,,,,,,,,,,,,167,F,star,1,0,,,,,,,,,,,,,,,,repeat,number,numRpt,f,0.8502,Lo,,,,,,2,,,,,,,,low,11,0,11,0,1,,,,,,,,,
297220,2022-12-05_14h34.01.892,vts_reward_expectancy_bt,2022.2.4,Win32,60.81245439,Chrome,1280,720,,,,,10,871,,,,,,,,,,,,,,,,,132,W,star,1,0,,,,,,,,,,,,,,,,repeat,number,numRpt,d,0.5378,Lo,,,,,,2,,,,,,,,low,12,0,12,0,1,,,,,,,,,
297220,2022-12-05_14h34.01.892,vts_reward_expectancy_bt,2022.2.4,Win32,60.81245439,Chrome,1280,720,,,,,10,881,,,,,,,,,,,,,,,,,125,S,triangle,1,0,,,,,,,,,,,,,,,,repeat,number,numRpt,d,0.6001,Lo,,,,,,2,,,,,,,,low,13,0,13,0,1,,,,,,,,,
297220,2022-12-05_14h34.01.892,vts_reward_expectancy_bt,2022.2.4,Win32,60.81245439,Chrome,1280,720,,,,,0,881,,,,,,,,,,,,,,,,,174,B,hexagon,1,0,,,,,,,,,,,,,,,,repeat,number,numRpt,f,0.5736,Hi,,,,,,2,,,,,,,,low,14,0,14,0,1,,,,,,,,,
297220,2022-12-05_14h34.01.892,vts_reward_expectancy_bt,2022.2.4,Win32,60.81245439,Chrome,1280,720,,,,,0,881,,,,,,,,,,,,,,,,,160,H,circle,0,0,,,,,,,,,,,,,,,,repeat,number,NA,d,0.5774,Hi,,,,,,2,,,,,,,,low,15,0,15,0,1,,,,,,,,,
297220,2022-12-05_14h34.01.892,vts_reward_expectancy_bt,2022.2.4,Win32,60.81245439,Chrome,1280,720,,,,,0,881,,,,,,,,,,,,,,,,,125,B,star,0,1,,,,,,,,,,,,,,,,repeat,number,NA,f,0.4831,Hi,,,,,,2,,,,,,,,low,16,0,16,0,1,,,,,,,,,
297220,2022-12-05_14h34.01.892,vts_reward_expectancy_bt,2022.2.4,Win32,60.81245439,Chrome,1280,720,,,,,0,881,,,,,,,,,,,,,,,,,132,W,hexagon,1,1,,,,,,,,,,,,,,,,repeat,number,numRpt,d,0.9909,Hi,,,,,,2,,,,,,,,low,17,0,17,0,1,,,,,,,,,
297220,2022-12-05_14h34.01.892,vts_reward_expectancy_bt,2022.2.4,Win32,60.81245439,Chrome,1280,720,,,,,1,882,,,,,,,,,,,,,,,,,174,Y,triangle,1,0,,,,,,,,,,,,,,,,repeat,number,numRpt,f,0.7446,Lo,,,,,,2,,,,,,,,low,18,0,18,0,1,,,,,,,,,
297220,2022-12-05_14h34.01.892,vts_reward_expectancy_bt,2022.2.4,Win32,60.81245439,Chrome,1280,720,,,,,0,882,,,,,,,,,,,,,,,,,167,S,circle,0,0,,,,,,,,,,,,,,,,repeat,number,NA,d,0.5417,Lo,,,,,,2,,,,,,,,low,19,0,19,0,1,,,,,,,,,
297220,2022-12-05_14h34.01.892,vts_reward_expectancy_bt,2022.2.4,Win32,60.81245439,Chrome,1280,720,,,,,1,883,,,,,,,,,,,,,,,,,139,D,triangle,1,1,,,,,,,,,,,,,,,,repeat,number,numRpt,d,0.893,Lo,,,,,,2,,,,,,,,low,20,0,20,0,1,,,,,,,,,
297220,2022-12-05_14h34.01.892,vts_reward_expectancy_bt,2022.2.4,Win32,60.81245439,Chrome,1280,720,,,,,0,883,,,,,,,,,,,,,,,,,146,H,star,0,0,,,,,,,,,,,,,,,,repeat,number,NA,f,0.3897,Lo,,,,,,2,,,,,,,,low,21,0,21,0,1,,,,,,,,,
297220,2022-12-05_14h34.01.892,vts_reward_expectancy_bt,2022.2.4,Win32,60.81245439,Chrome,1280,720,,,,,10,893,,,,,,,,,,,,,,,,,160,U,circle,1,1,,,,,,,,,,,,,,,,repeat,number,numRpt,f,0.4576,Hi,,,,,,2,,,,,,,,low,22,0,22,0,1,,,,,,,,,
297220,2022-12-05_14h34.01.892,vts_reward_expectancy_bt,2022.2.4,Win32,60.81245439,Chrome,1280,720,,,,,0,893,,,,,,,,,,,,,,,,,181,F,hexagon,1,0,,,,,,,,,,,,,,,,repeat,number,numRpt,f,0.5526,Hi,,,,,,2,,,,,,,,low,23,0,23,0,1,,,,,,,,,
297220,2022-12-05_14h34.01.892,vts_reward_expectancy_bt,2022.2.4,Win32,60.81245439,Chrome,1280,720,,,,,10,903,,,,,,,,,,,,,,,,,167,D,star,1,0,,,,,,,,,,,,,,,,repeat,number,numRpt,f,0.6623,Lo,,,,,,2,,,,,,,,low,24,0,24,0,1,,,,,,,,,
297220,2022-12-05_14h34.01.892,vts_reward_expectancy_bt,2022.2.4,Win32,60.81245439,Chrome,1280,720,,,,,0,903,,,,,,,,,,,,,,,,,139,W,hexagon,1,0,,,,,,,,,,,,,,,,repeat,number,numRpt,d,0.4838,Hi,,,,,,2,,,,,,,,low,25,0,25,0,1,,,,,,,,,
297220,2022-12-05_14h34.01.892,vts_reward_expectancy_bt,2022.2.4,Win32,60.81245439,Chrome,1280,720,,,,,10,913,,,,,,,,,,,,,,,,,125,Y,triangle,1,0,,,,,,,,,,,,,,,,repeat,number,numRpt,d,0.5341,Lo,,,,,,2,,,,,,,,low,26,0,26,0,1,,,,,,,,,
297220,2022-12-05_14h34.01.892,vts_reward_expectancy_bt,2022.2.4,Win32,60.81245439,Chrome,1280,720,,,,,0,913,,,,,,,,,,,,,,,,,174,F,circle,0,0,,,,,,,,,,,,,,,,repeat,number,NA,d,0.5428,Lo,,,,,,2,,,,,,,,low,27,0,27,0,1,,,,,,,,,
297220,2022-12-05_14h34.01.892,vts_reward_expectancy_bt,2022.2.4,Win32,60.81245439,Chrome,1280,720,,,,,1,914,,,,,,,,,,,,,,,,,146,U,star,1,1,,,,,,,,,,,,,,,,repeat,number,numRpt,d,0.5461,Lo,,,,,,2,,,,,,,,low,28,0,28,0,1,,,,,,,,,
297220,2022-12-05_14h34.01.892,vts_reward_expectancy_bt,2022.2.4,Win32,60.81245439,Chrome,1280,720,,,,,10,924,,,,,,,,,,,,,,,,,160,S,triangle,1,0,,,,,,,,,,,,,,,,repeat,number,numRpt,f,0.5266,Lo,,,,,,2,,,,,,,,low,29,0,29,0,1,,,,,,,,,
297220,2022-12-05_14h34.01.892,vts_reward_expectancy_bt,2022.2.4,Win32,60.81245439,Chrome,1280,720,,,,,0,924,,,,,,,,,,,,,,,,,132,H,hexagon,0,0,,,,,,,,,,,,,,,,repeat,number,NA,f,1.8272,Lo,,,,,,2,,,,,,,,low,30,0,30,0,1,,,,,,,,,
297220,2022-12-05_14h34.01.892,vts_reward_expectancy_bt,2022.2.4,Win32,60.81245439,Chrome,1280,720,,,,,0,924,,,,,,,,,,,,,,,,,181,B,circle,1,1,,,,,,,,,,,,,,,,repeat,number,numRpt,f,0.6829,Hi,,,,,,2,,,,,,,,low,31,0,31,0,1,,,,,,,,,
297220,2022-12-05_14h34.01.892,vts_reward_expectancy_bt,2022.2.4,Win32,60.81245439,Chrome,1280,720,,,,,1,925,,,,,,,,,,,,,,,,,139,S,triangle,1,0,,,,,,,,,,,,,,,,repeat,number,numRpt,d,0.5704,Lo,,,,,,3,,,,,,space,1.514,low,0,0,0,0,1,,,,,,,,,
297220,2022-12-05_14h34.01.892,vts_reward_expectancy_bt,2022.2.4,Win32,60.81245439,Chrome,1280,720,,,,,1,926,,,,,,,,,,,,,,,,,132,U,hexagon,1,0,,,,,,,,,,,,,,,,repeat,number,numRpt,d,0.4128,Hi,,,,,,3,,,,,,,,low,1,0,1,0,1,,,,,,,,,
297220,2022-12-05_14h34.01.892,vts_reward_expectancy_bt,2022.2.4,Win32,60.81245439,Chrome,1280,720,,,,,0,926,,,,,,,,,,,,,,,,,181,F,circle,0,0,,,,,,,,,,,,,,,,switch,letter,NA,k,0.4863,Hi,,,,,,3,,,,,,,,low,2,0,2,0,1,,,,,,,,,
297220,2022-12-05_14h34.01.892,vts_reward_expectancy_bt,2022.2.4,Win32,60.81245439,Chrome,1280,720,,,,,10,936,,,,,,,,,,,,,,,,,167,D,star,1,1,,,,,,,,,,,,,,,,switch,number,numSwt,f,0.5498,Lo,,,,,,3,,,,,,,,low,3,0,3,0,1,,,,,,,,,
297220,2022-12-05_14h34.01.892,vts_reward_expectancy_bt,2022.2.4,Win32,60.81245439,Chrome,1280,720,,,,,10,946,,,,,,,,,,,,,,,,,174,W,triangle,1,0,,,,,,,,,,,,,,,,repeat,number,numRpt,f,0.5495,Lo,,,,,,3,,,,,,,,low,4,0,4,0,1,,,,,,,,,
297220,2022-12-05_14h34.01.892,vts_reward_expectancy_bt,2022.2.4,Win32,60.81245439,Chrome,1280,720,,,,,0,946,,,,,,,,,,,,,,,,,160,Y,hexagon,0,0,,,,,,,,,,,,,,,,repeat,number,NA,d,0.53,Lo,,,,,,3,,,,,,,,low,5,0,5,0,1,,,,,,,,,
297220,2022-12-05_14h34.01.892,vts_reward_expectancy_bt,2022.2.4,Win32,60.81245439,Chrome,1280,720,,,,,0,946,,,,,,,,,,,,,,,,,146,H,circle,0,1,,,,,,,,,,,,,,,,repeat,number,NA,f,0.6001,Lo,,,,,,3,,,,,,,,low,6,0,6,0,1,,,,,,,,,
297220,2022-12-05_14h34.01.892,vts_reward_expectancy_bt,2022.2.4,Win32,60.81245439,Chrome,1280,720,,,,,1,947,,,,,,,,,,,,,,,,,125,B,star,1,1,,,,,,,,,,,,,,,,repeat,number,numRpt,d,0.5497,Lo,,,,,,3,,,,,,,,low,7,0,7,0,1,,,,,,,,,
297220,2022-12-05_14h34.01.892,vts_reward_expectancy_bt,2022.2.4,Win32,60.81245439,Chrome,1280,720,,,,,0,947,,,,,,,,,,,,,,,,,139,S,circle,1,0,,,,,,,,,,,,,,,,repeat,number,numRpt,d,0.5491,Hi,,,,,,3,,,,,,,,low,8,0,8,0,1,,,,,,,,,
297220,2022-12-05_14h34.01.892,vts_reward_expectancy_bt,2022.2.4,Win32,60.81245439,Chrome,1280,720,,,,,10,957,,,,,,,,,,,,,,,,,132,U,star,1,0,,,,,,,,,,,,,,,,repeat,number,numRpt,d,0.4782,Lo,,,,,,3,,,,,,,,low,9,0,9,0,1,,,,,,,,,
297220,2022-12-05_14h34.01.892,vts_reward_expectancy_bt,2022.2.4,Win32,60.81245439,Chrome,1280,720,,,,,1,958,,,,,,,,,,,,,,,,,181,F,hexagon,1,0,,,,,,,,,,,,,,,,repeat,number,numRpt,f,0.4654,Hi,,,,,,3,,,,,,,,low,10,0,10,0,1,,,,,,,,,
297220,2022-12-05_14h34.01.892,vts_reward_expectancy_bt,2022.2.4,Win32,60.81245439,Chrome,1280,720,,,,,0,958,,,,,,,,,,,,,,,,,167,D,triangle,0,0,,,,,,,,,,,,,,,,repeat,number,NA,d,0.4911,Hi,,,,,,3,,,,,,,,low,11,0,11,0,1,,,,,,,,,
297220,2022-12-05_14h34.01.892,vts_reward_expectancy_bt,2022.2.4,Win32,60.81245439,Chrome,1280,720,,,,,10,968,,,,,,,,,,,,,,,,,174,W,star,1,1,,,,,,,,,,,,,,,,repeat,number,numRpt,f,0.6321,Lo,,,,,,3,,,,,,,,low,12,0,12,0,1,,,,,,,,,
297220,2022-12-05_14h34.01.892,vts_reward_expectancy_bt,2022.2.4,Win32,60.81245439,Chrome,1280,720,,,,,0,968,,,,,,,,,,,,,,,,,160,Y,circle,0,0,,,,,,,,,,,,,,,,repeat,number,NA,d,0.5751,Lo,,,,,,3,,,,,,,,low,13,0,13,0,1,,,,,,,,,
297220,2022-12-05_14h34.01.892,vts_reward_expectancy_bt,2022.2.4,Win32,60.81245439,Chrome,1280,720,,,,,0,968,,,,,,,,,,,,,,,,,146,H,hexagon,1,1,,,,,,,,,,,,,,,,repeat,number,numRpt,d,0.5737,Hi,,,,,,3,,,,,,,,low,14,0,14,0,1,,,,,,,,,
297220,2022-12-05_14h34.01.892,vts_reward_expectancy_bt,2022.2.4,Win32,60.81245439,Chrome,1280,720,,,,,1,969,,,,,,,,,,,,,,,,,125,B,triangle,1,0,,,,,,,,,,,,,,,,repeat,number,numRpt,d,0.4936,Lo,,,,,,3,,,,,,,,low,15,0,15,0,1,,,,,,,,,
297220,2022-12-05_14h34.01.892,vts_reward_expectancy_bt,2022.2.4,Win32,60.81245439,Chrome,1280,720,,,,,1,970,,,,,,,,,,,,,,,,,174,F,triangle,1,0,,,,,,,,,,,,,,,,repeat,number,numRpt,f,0.3984,Lo,,,,,,3,,,,,,,,low,16,0,16,0,1,,,,,,,,,
297220,2022-12-05_14h34.01.892,vts_reward_expectancy_bt,2022.2.4,Win32,60.81245439,Chrome,1280,720,,,,,10,980,,,,,,,,,,,,,,,,,167,B,circle,1,0,,,,,,,,,,,,,,,,repeat,number,numRpt,f,0.4962,Hi,,,,,,3,,,,,,,,low,17,0,17,0,1,,,,,,,,,
297220,2022-12-05_14h34.01.892,vts_reward_expectancy_bt,2022.2.4,Win32,60.81245439,Chrome,1280,720,,,,,1,981,,,,,,,,,,,,,,,,,125,D,star,1,0,,,,,,,,,,,,,,,,repeat,number,numRpt,d,0.6085,Lo,,,,,,3,,,,,,,,low,18,0,18,0,1,,,,,,,,,
297220,2022-12-05_14h34.01.892,vts_reward_expectancy_bt,2022.2.4,Win32,60.81245439,Chrome,1280,720,,,,,0,981,,,,,,,,,,,,,,,,,132,S,hexagon,0,0,,,,,,,,,,,,,,,,switch,letter,NA,j,0.5611,Lo,,,,,,3,,,,,,,,low,19,0,19,0,1,,,,,,,,,
297220,2022-12-05_14h34.01.892,vts_reward_expectancy_bt,2022.2.4,Win32,60.81245439,Chrome,1280,720,,,,,0,981,,,,,,,,,,,,,,,,,146,Y,circle,0,1,,,,,,,,,,,,,,,,repeat,letter,NA,j,0.5685,Lo,,,,,,3,,,,,,,,low,20,0,20,0,1,,,,,,,,,
297220,2022-12-05_14h34.01.892,vts_reward_expectancy_bt,2022.2.4,Win32,60.81245439,Chrome,1280,720,,,,,10,991,,,,,,,,,,,,,,,,,139,W,star,1,1,,,,,,,,,,,,,,,,switch,number,numSwt,d,0.4811,Lo,,,,,,3,,,,,,,,low,21,0,21,0,1,,,,,,,,,
297220,2022-12-05_14h34.01.892,vts_reward_expectancy_bt,2022.2.4,Win32,60.81245439,Chrome,1280,720,,,,,1,992,,,,,,,,,,,,,,,,,181,U,triangle,1,0,,,,,,,,,,,,,,,,repeat,number,numRpt,f,0.582,Lo,,,,,,3,,,,,,,,low,22,0,22,0,1,,,,,,,,,
297220,2022-12-05_14h34.01.892,vts_reward_expectancy_bt,2022.2.4,Win32,60.81245439,Chrome,1280,720,,,,,1,993,,,,,,,,,,,,,,,,,160,H,hexagon,1,0,,,,,,,,,,,,,,,,repeat,number,numRpt,f,0.4374,Hi,,,,,,3,,,,,,,,low,23,0,23,0,1,,,,,,,,,
297220,2022-12-05_14h34.01.892,vts_reward_expectancy_bt,2022.2.4,Win32,60.81245439,Chrome,1280,720,,,,,1,994,,,,,,,,,,,,,,,,,160,W,triangle,1,0,,,,,,,,,,,,,,,,repeat,number,numRpt,f,0.4036,Lo,,,,,,3,,,,,,,,low,24,0,24,0,1,,,,,,,,,
297220,2022-12-05_14h34.01.892,vts_reward_expectancy_bt,2022.2.4,Win32,60.81245439,Chrome,1280,720,,,,,10,1004,,,,,,,,,,,,,,,,,167,F,circle,1,0,,,,,,,,,,,,,,,,repeat,number,numRpt,f,0.4845,Hi,,,,,,3,,,,,,,,low,25,0,25,0,1,,,,,,,,,
297220,2022-12-05_14h34.01.892,vts_reward_expectancy_bt,2022.2.4,Win32,60.81245439,Chrome,1280,720,,,,,0,1004,,,,,,,,,,,,,,,,,132,Y,hexagon,0,0,,,,,,,,,,,,,,,,repeat,number,NA,f,0.4375,Hi,,,,,,3,,,,,,,,low,26,0,26,0,1,,,,,,,,,
297220,2022-12-05_14h34.01.892,vts_reward_expectancy_bt,2022.2.4,Win32,60.81245439,Chrome,1280,720,,,,,10,1014,,,,,,,,,,,,,,,,,125,D,star,1,1,,,,,,,,,,,,,,,,repeat,number,numRpt,d,0.5185,Lo,,,,,,3,,,,,,,,low,27,0,27,0,1,,,,,,,,,
297220,2022-12-05_14h34.01.892,vts_reward_expectancy_bt,2022.2.4,Win32,60.81245439,Chrome,1280,720,,,,,10,1024,,,,,,,,,,,,,,,,,181,B,triangle,1,0,,,,,,,,,,,,,,,,repeat,number,numRpt,f,0.4654,Lo,,,,,,3,,,,,,,,low,28,0,28,0,1,,,,,,,,,
297220,2022-12-05_14h34.01.892,vts_reward_expectancy_bt,2022.2.4,Win32,60.81245439,Chrome,1280,720,,,,,10,1034,,,,,,,,,,,,,,,,,139,S,hexagon,1,0,,,,,,,,,,,,,,,,repeat,number,numRpt,d,0.4962,Hi,,,,,,3,,,,,,,,low,29,0,29,0,1,,,,,,,,,
297220,2022-12-05_14h34.01.892,vts_reward_expectancy_bt,2022.2.4,Win32,60.81245439,Chrome,1280,720,,,,,1,1035,,,,,,,,,,,,,,,,,174,U,star,1,0,,,,,,,,,,,,,,,,repeat,number,numRpt,f,0.5496,Lo,,,,,,3,,,,,,,,low,30,0,30,0,1,,,,,,,,,
297220,2022-12-05_14h34.01.892,vts_reward_expectancy_bt,2022.2.4,Win32,60.81245439,Chrome,1280,720,,,,,1,1036,,,,,,,,,,,,,,,,,146,H,circle,1,0,,,,,,,,,,,,,,,,repeat,number,numRpt,d,0.513,Hi,,,,,,3,,,,,,,,low,31,0,31,0,1,,,,,,,,,
297220,2022-12-05_14h34.01.892,vts_reward_expectancy_bt,2022.2.4,Win32,60.81245439,Chrome,1280,720,,,,,0,1036,,,,,,,,,,,,,,,,,181,F,hexagon,1,0,,,,,,,,,,,,,,,,repeat,number,numRpt,f,0.6655,Hi,,,,,,4,,,,,,space,0.9828,low,0,0,0,0,1,,,,,,,,,
297220,2022-12-05_14h34.01.892,vts_reward_expectancy_bt,2022.2.4,Win32,60.81245439,Chrome,1280,720,,,,,1,1037,,,,,,,,,,,,,,,,,174,U,circle,1,0,,,,,,,,,,,,,,,,repeat,number,numRpt,f,0.4494,Hi,,,,,,4,,,,,,,,low,1,0,1,0,1,,,,,,,,,
297220,2022-12-05_14h34.01.892,vts_reward_expectancy_bt,2022.2.4,Win32,60.81245439,Chrome,1280,720,,,,,0,1037,,,,,,,,,,,,,,,,,160,H,triangle,0,0,,,,,,,,,,,,,,,,switch,letter,NA,k,0.4538,Hi,,,,,,4,,,,,,,,low,2,0,2,0,1,,,,,,,,,
297220,2022-12-05_14h34.01.892,vts_reward_expectancy_bt,2022.2.4,Win32,60.81245439,Chrome,1280,720,,,,,1,1038,,,,,,,,,,,,,,,,,125,D,star,1,1,,,,,,,,,,,,,,,,repeat,letter,lettRpt,j,0.5991,Lo,,,,,,4,,,,,,,,low,3,0,3,0,1,,,,,,,,,
297220,2022-12-05_14h34.01.892,vts_reward_expectancy_bt,2022.2.4,Win32,60.81245439,Chrome,1280,720,,,,,0,1038,,,,,,,,,,,,,,,,,146,S,hexagon,0,0,,,,,,,,,,,,,,,,switch,number,NA,f,0.5988,Lo,,,,,,4,,,,,,,,low,4,0,4,0,1,,,,,,,,,
297220,2022-12-05_14h34.01.892,vts_reward_expectancy_bt,2022.2.4,Win32,60.81245439,Chrome,1280,720,,,,,10,1048,,,,,,,,,,,,,,,,,167,Y,circle,1,1,,,,,,,,,,,,,,,,switch,letter,lettSwt,k,0.5188,Hi,,,,,,4,,,,,,,,low,5,0,5,0,1,,,,,,,,,
297220,2022-12-05_14h34.01.892,vts_reward_expectancy_bt,2022.2.4,Win32,60.81245439,Chrome,1280,720,,,,,1,1049,,,,,,,,,,,,,,,,,132,W,triangle,1,0,,,,,,,,,,,,,,,,repeat,letter,lettRpt,k,0.418,Lo,,,,,,4,,,,,,,,low,6,0,6,0,1,,,,,,,,,
297220,2022-12-05_14h34.01.892,vts_reward_expectancy_bt,2022.2.4,Win32,60.81245439,Chrome,1280,720,,,,,10,1059,,,,,,,,,,,,,,,,,139,B,star,1,0,,,,,,,,,,,,,,,,repeat,letter,lettRpt,j,0.4685,Lo,,,,,,4,,,,,,,,low,7,0,7,0,1,,,,,,,,,
297220,2022-12-05_14h34.01.892,vts_reward_expectancy_bt,2022.2.4,Win32,60.81245439,Chrome,1280,720,,,,,1,1060,,,,,,,,,,,,,,,,,181,F,triangle,1,0,,,,,,,,,,,,,,,,repeat,letter,lettRpt,j,0.5877,Lo,,,,,,4,,,,,,,,low,8,0,8,0,1,,,,,,,,,
