participant,date,expName,psychopyVersion,OS,frameRate,browser,xResolution,yResolution,key_resp.keys,key_resp.rt,training_resp.keys,training_resp.rt,points_trial,points_cumul,trainBlock,training.thisRepN,training.thisTrialN,training.thisN,training.thisIndex,training.ran,LTriangleOpac,LCircleOpac,LHexagonOpac,LStarOpac,RTriangleOpac,RCircleOpac,RHexagonOpac,RStarOpac,LShape_ID,RShape_ID,curr_topStim,curr_bottStim,curr_shape,acc,E1,target_resp_prac1.keys,target_resp_prac1.rt,pracBlock,task1_prac_trials.thisRepN,task1_prac_trials.thisTrialN,task1_prac_trials.thisN,task1_prac_trials.thisIndex,task1_prac_trials.ran,target_resp_prac2.keys,target_resp_prac2.rt,task2_praac_trials.thisRepN,task2_praac_trials.thisTrialN,task2_praac_trials.thisN,task2_praac_trials.thisIndex,task2_praac_trials.ran,alt,task,condition,target_resp.keys,target_resp.rt,rewCond,vts_practice_trials.thisRepN,vts_practice_trials.thisTrialN,vts_practice_trials.thisN,vts_practice_trials.thisIndex,vts_practice_trials.ran,blockNum,trials_norew.thisRepN,trials_norew.thisTrialN,trials_norew.thisN,trials_norew.thisIndex,trials_norew.ran,key_resp_2.keys,key_resp_2.rt,rewExpectancy,trials_rew.thisRepN,trials_rew.thisTrialN,trials_rew.thisN,trials_rew.thisIndex,trials_rew.ran,Q1,Q2,Q2_text,Q3,Q4,Q5_text,Q5,xRes,yRes
297217,2022-12-06_10h21.34.707,vts_reward_expectancy_bt,2022.2.4,Win32,62.05398697,Chrome,1280,800,,,,,,,,,,,,,,,,,,,,,,,,,,,,,,,,,,,,,,,,,,,,,,,,,,,,,,,,,,,,,,,,,,,,,,,,,,,,
297217,2022-12-06_10h21.34.707,vts_reward_expectancy_bt,2022.2.4,Win32,62.05398697,Chrome,1280,800,space,38.0784,,,,,,,,,,,,,,,,,,,,,,,,,,,,,,,,,,,,,,,,,,,,,,,,,,,,,,,,,,,,,,,,,,,,,,,,,,
297217,2022-12-06_10h21.34.707,vts_reward_expectancy_bt,2022.2.4,Win32,62.05398697,Chrome,1280,800,,,,,,,,,,,,,,,,,,,,,,,,,,,,,,,,,,,,,,,,,,,,,,,,,,,,,,,,,,,,,,,,,,,,,,,,,,,,
297217,2022-12-06_10h21.34.707,vts_reward_expectancy_bt,2022.2.4,Win32,62.05398697,Chrome,1280,800,,,a,1.9485,1,1,0,0,0,0,8,1,0,0,1,0,0,0,0,1,hexagon,star,,,,,,,,,,,,,,,,,,,,,,,,,,,,,,,,,,,,,,,,,,,,,,,,,,,,,,
297217,2022-12-06_10h21.34.707,vts_reward_expectancy_bt,2022.2.4,Win32,62.05398697,Chrome,1280,800,,,l,1.1098,1,2,0,0,1,1,2,1,1,0,0,0,0,0,0,1,triangle,star,,,,,,,,,,,,,,,,,,,,,,,,,,,,,,,,,,,,,,,,,,,,,,,,,,,,,,
297217,2022-12-06_10h21.34.707,vts_reward_expectancy_bt,2022.2.4,Win32,62.05398697,Chrome,1280,800,,,a,2.1379,1,3,0,0,2,2,11,1,0,0,0,1,0,0,1,0,star,hexagon,,,,,,,,,,,,,,,,,,,,,,,,,,,,,,,,,,,,,,,,,,,,,,,,,,,,,,
297217,2022-12-06_10h21.34.707,vts_reward_expectancy_bt,2022.2.4,Win32,62.05398697,Chrome,1280,800,,,l,2.2233,10,13,0,0,3,3,3,1,0,1,0,0,1,0,0,0,circle,triangle,,,,,,,,,,,,,,,,,,,,,,,,,,,,,,,,,,,,,,,,,,,,,,,,,,,,,,
297217,2022-12-06_10h21.34.707,vts_reward_expectancy_bt,2022.2.4,Win32,62.05398697,Chrome,1280,800,,,a,0.7847,10,23,0,0,4,4,1,1,1,0,0,0,0,0,1,0,triangle,hexagon,,,,,,,,,,,,,,,,,,,,,,,,,,,,,,,,,,,,,,,,,,,,,,,,,,,,,,
297217,2022-12-06_10h21.34.707,vts_reward_expectancy_bt,2022.2.4,Win32,62.05398697,Chrome,1280,800,,,l,0.5152,10,33,0,0,5,5,9,1,0,0,0,1,1,0,0,0,star,triangle,,,,,,,,,,,,,,,,,,,,,,,,,,,,,,,,,,,,,,,,,,,,,,,,,,,,,,
297217,2022-12-06_10h21.34.707,vts_reward_expectancy_bt,2022.2.4,Win32,62.05398697,Chrome,1280,800,,,l,1.4018,1,34,0,0,6,6,5,1,0,1,0,0,0,0,0,1,circle,star,,,,,,,,,,,,,,,,,,,,,,,,,,,,,,,,,,,,,,,,,,,,,,,,,,,,,,
297217,2022-12-06_10h21.34.707,vts_reward_expectancy_bt,2022.2.4,Win32,62.05398697,Chrome,1280,800,,,l,1.3376,1,35,0,0,7,7,7,1,0,0,1,0,0,1,0,0,hexagon,circle,,,,,,,,,,,,,,,,,,,,,,,,,,,,,,,,,,,,,,,,,,,,,,,,,,,,,,
297217,2022-12-06_10h21.34.707,vts_reward_expectancy_bt,2022.2.4,Win32,62.05398697,Chrome,1280,800,,,a,0.5668,10,45,0,0,8,8,0,1,1,0,0,0,0,1,0,0,triangle,circle,,,,,,,,,,,,,,,,,,,,,,,,,,,,,,,,,,,,,,,,,,,,,,,,,,,,,,
297217,2022-12-06_10h21.34.707,vts_reward_expectancy_bt,2022.2.4,Win32,62.05398697,Chrome,1280,800,,,l,1.8327,1,46,0,0,9,9,10,1,0,0,0,1,0,1,0,0,star ,circle,,,,,,,,,,,,,,,,,,,,,,,,,,,,,,,,,,,,,,,,,,,,,,,,,,,,,,
297217,2022-12-06_10h21.34.707,vts_reward_expectancy_bt,2022.2.4,Win32,62.05398697,Chrome,1280,800,,,l,0.6188,10,56,0,0,10,10,6,1,0,0,1,0,1,0,0,0,hexagon,triangle,,,,,,,,,,,,,,,,,,,,,,,,,,,,,,,,,,,,,,,,,,,,,,,,,,,,,,
297217,2022-12-06_10h21.34.707,vts_reward_expectancy_bt,2022.2.4,Win32,62.05398697,Chrome,1280,800,,,l,0.9251,10,66,0,0,11,11,4,1,0,1,0,0,0,0,1,0,circle,hexagon,,,,,,,,,,,,,,,,,,,,,,,,,,,,,,,,,,,,,,,,,,,,,,,,,,,,,,
297217,2022-12-06_10h21.34.707,vts_reward_expectancy_bt,2022.2.4,Win32,62.05398697,Chrome,1280,800,,,a,0.4126,10,76,0,1,0,12,2,1,1,0,0,0,0,0,0,1,triangle,star,,,,,,,,,,,,,,,,,,,,,,,,,,,,,,,,,,,,,,,,,,,,,,,,,,,,,,
297217,2022-12-06_10h21.34.707,vts_reward_expectancy_bt,2022.2.4,Win32,62.05398697,Chrome,1280,800,,,l,0.6031,1,77,0,1,1,13,10,1,0,0,0,1,0,1,0,0,star ,circle,,,,,,,,,,,,,,,,,,,,,,,,,,,,,,,,,,,,,,,,,,,,,,,,,,,,,,
297217,2022-12-06_10h21.34.707,vts_reward_expectancy_bt,2022.2.4,Win32,62.05398697,Chrome,1280,800,,,l,0.4684,10,87,0,1,2,14,9,1,0,0,0,1,1,0,0,0,star,triangle,,,,,,,,,,,,,,,,,,,,,,,,,,,,,,,,,,,,,,,,,,,,,,,,,,,,,,
297217,2022-12-06_10h21.34.707,vts_reward_expectancy_bt,2022.2.4,Win32,62.05398697,Chrome,1280,800,,,l,1.1687,10,97,0,1,3,15,11,1,0,0,0,1,0,0,1,0,star,hexagon,,,,,,,,,,,,,,,,,,,,,,,,,,,,,,,,,,,,,,,,,,,,,,,,,,,,,,
297217,2022-12-06_10h21.34.707,vts_reward_expectancy_bt,2022.2.4,Win32,62.05398697,Chrome,1280,800,,,a,0.8463,10,107,0,1,4,16,0,1,1,0,0,0,0,1,0,0,triangle,circle,,,,,,,,,,,,,,,,,,,,,,,,,,,,,,,,,,,,,,,,,,,,,,,,,,,,,,
297217,2022-12-06_10h21.34.707,vts_reward_expectancy_bt,2022.2.4,Win32,62.05398697,Chrome,1280,800,,,l,0.5363,1,108,0,1,5,17,6,1,0,0,1,0,1,0,0,0,hexagon,triangle,,,,,,,,,,,,,,,,,,,,,,,,,,,,,,,,,,,,,,,,,,,,,,,,,,,,,,
297217,2022-12-06_10h21.34.707,vts_reward_expectancy_bt,2022.2.4,Win32,62.05398697,Chrome,1280,800,,,a,1.0327,1,109,0,1,6,18,5,1,0,1,0,0,0,0,0,1,circle,star,,,,,,,,,,,,,,,,,,,,,,,,,,,,,,,,,,,,,,,,,,,,,,,,,,,,,,
297217,2022-12-06_10h21.34.707,vts_reward_expectancy_bt,2022.2.4,Win32,62.05398697,Chrome,1280,800,,,l,0.9184,10,119,0,1,7,19,7,1,0,0,1,0,0,1,0,0,hexagon,circle,,,,,,,,,,,,,,,,,,,,,,,,,,,,,,,,,,,,,,,,,,,,,,,,,,,,,,
297217,2022-12-06_10h21.34.707,vts_reward_expectancy_bt,2022.2.4,Win32,62.05398697,Chrome,1280,800,,,a,0.8173,1,120,0,1,8,20,1,1,1,0,0,0,0,0,1,0,triangle,hexagon,,,,,,,,,,,,,,,,,,,,,,,,,,,,,,,,,,,,,,,,,,,,,,,,,,,,,,
297217,2022-12-06_10h21.34.707,vts_reward_expectancy_bt,2022.2.4,Win32,62.05398697,Chrome,1280,800,,,l,0.7182,1,121,0,1,9,21,8,1,0,0,1,0,0,0,0,1,hexagon,star,,,,,,,,,,,,,,,,,,,,,,,,,,,,,,,,,,,,,,,,,,,,,,,,,,,,,,
297217,2022-12-06_10h21.34.707,vts_reward_expectancy_bt,2022.2.4,Win32,62.05398697,Chrome,1280,800,,,a,1.766,10,131,0,1,10,22,4,1,0,1,0,0,0,0,1,0,circle,hexagon,,,,,,,,,,,,,,,,,,,,,,,,,,,,,,,,,,,,,,,,,,,,,,,,,,,,,,
297217,2022-12-06_10h21.34.707,vts_reward_expectancy_bt,2022.2.4,Win32,62.05398697,Chrome,1280,800,,,a,1.7741,1,132,0,1,11,23,3,1,0,1,0,0,1,0,0,0,circle,triangle,,,,,,,,,,,,,,,,,,,,,,,,,,,,,,,,,,,,,,,,,,,,,,,,,,,,,,
297217,2022-12-06_10h21.34.707,vts_reward_expectancy_bt,2022.2.4,Win32,62.05398697,Chrome,1280,800,,,a,1.4354,1,133,0,2,0,24,1,1,1,0,0,0,0,0,1,0,triangle,hexagon,,,,,,,,,,,,,,,,,,,,,,,,,,,,,,,,,,,,,,,,,,,,,,,,,,,,,,
297217,2022-12-06_10h21.34.707,vts_reward_expectancy_bt,2022.2.4,Win32,62.05398697,Chrome,1280,800,,,l,0.6224,1,134,0,2,1,25,7,1,0,0,1,0,0,1,0,0,hexagon,circle,,,,,,,,,,,,,,,,,,,,,,,,,,,,,,,,,,,,,,,,,,,,,,,,,,,,,,
297217,2022-12-06_10h21.34.707,vts_reward_expectancy_bt,2022.2.4,Win32,62.05398697,Chrome,1280,800,,,a,0.8518,10,144,0,2,2,26,6,1,0,0,1,0,1,0,0,0,hexagon,triangle,,,,,,,,,,,,,,,,,,,,,,,,,,,,,,,,,,,,,,,,,,,,,,,,,,,,,,
297217,2022-12-06_10h21.34.707,vts_reward_expectancy_bt,2022.2.4,Win32,62.05398697,Chrome,1280,800,,,a,1.4528,10,154,0,2,3,27,10,1,0,0,0,1,0,1,0,0,star ,circle,,,,,,,,,,,,,,,,,,,,,,,,,,,,,,,,,,,,,,,,,,,,,,,,,,,,,,
297217,2022-12-06_10h21.34.707,vts_reward_expectancy_bt,2022.2.4,Win32,62.05398697,Chrome,1280,800,,,a,1.3367,10,164,0,2,4,28,0,1,1,0,0,0,0,1,0,0,triangle,circle,,,,,,,,,,,,,,,,,,,,,,,,,,,,,,,,,,,,,,,,,,,,,,,,,,,,,,
297217,2022-12-06_10h21.34.707,vts_reward_expectancy_bt,2022.2.4,Win32,62.05398697,Chrome,1280,800,,,a,0.8665,10,174,0,2,5,29,2,1,1,0,0,0,0,0,0,1,triangle,star,,,,,,,,,,,,,,,,,,,,,,,,,,,,,,,,,,,,,,,,,,,,,,,,,,,,,,
297217,2022-12-06_10h21.34.707,vts_reward_expectancy_bt,2022.2.4,Win32,62.05398697,Chrome,1280,800,,,l,1.2683,10,184,0,2,6,30,4,1,0,1,0,0,0,0,1,0,circle,hexagon,,,,,,,,,,,,,,,,,,,,,,,,,,,,,,,,,,,,,,,,,,,,,,,,,,,,,,
297217,2022-12-06_10h21.34.707,vts_reward_expectancy_bt,2022.2.4,Win32,62.05398697,Chrome,1280,800,,,l,0.6154,10,194,0,2,7,31,3,1,0,1,0,0,1,0,0,0,circle,triangle,,,,,,,,,,,,,,,,,,,,,,,,,,,,,,,,,,,,,,,,,,,,,,,,,,,,,,
297217,2022-12-06_10h21.34.707,vts_reward_expectancy_bt,2022.2.4,Win32,62.05398697,Chrome,1280,800,,,l,0.917,1,195,0,2,8,32,5,1,0,1,0,0,0,0,0,1,circle,star,,,,,,,,,,,,,,,,,,,,,,,,,,,,,,,,,,,,,,,,,,,,,,,,,,,,,,
297217,2022-12-06_10h21.34.707,vts_reward_expectancy_bt,2022.2.4,Win32,62.05398697,Chrome,1280,800,,,l,0.5076,10,205,0,2,9,33,11,1,0,0,0,1,0,0,1,0,star,hexagon,,,,,,,,,,,,,,,,,,,,,,,,,,,,,,,,,,,,,,,,,,,,,,,,,,,,,,
297217,2022-12-06_10h21.34.707,vts_reward_expectancy_bt,2022.2.4,Win32,62.05398697,Chrome,1280,800,,,l,0.5713,10,215,0,2,10,34,9,1,0,0,0,1,1,0,0,0,star,triangle,,,,,,,,,,,,,,,,,,,,,,,,,,,,,,,,,,,,,,,,,,,,,,,,,,,,,,
297217,2022-12-06_10h21.34.707,vts_reward_expectancy_bt,2022.2.4,Win32,62.05398697,Chrome,1280,800,,,a,0.6685,1,216,0,2,11,35,8,1,0,0,1,0,0,0,0,1,hexagon,star,,,,,,,,,,,,,,,,,,,,,,,,,,,,,,,,,,,,,,,,,,,,,,,,,,,,,,
297217,2022-12-06_10h21.34.707,vts_reward_expectancy_bt,2022.2.4,Win32,62.05398697,Chrome,1280,800,,,a,1.3782,1,217,1,0,0,0,10,1,0,0,0,1,0,1,0,0,star ,circle,,,,,,,,,,,,,,,,,,,,,,,,,,,,,,,,,,,,,,,,,,,,,,,,,,,,,,
297217,2022-12-06_10h21.34.707,vts_reward_expectancy_bt,2022.2.4,Win32,62.05398697,Chrome,1280,800,,,l,0.5878,10,227,1,0,1,1,3,1,0,1,0,0,1,0,0,0,circle,triangle,,,,,,,,,,,,,,,,,,,,,,,,,,,,,,,,,,,,,,,,,,,,,,,,,,,,,,
297217,2022-12-06_10h21.34.707,vts_reward_expectancy_bt,2022.2.4,Win32,62.05398697,Chrome,1280,800,,,a,0.5674,10,237,1,0,2,2,8,1,0,0,1,0,0,0,0,1,hexagon,star,,,,,,,,,,,,,,,,,,,,,,,,,,,,,,,,,,,,,,,,,,,,,,,,,,,,,,
297217,2022-12-06_10h21.34.707,vts_reward_expectancy_bt,2022.2.4,Win32,62.05398697,Chrome,1280,800,,,l,0.5372,10,247,1,0,3,3,6,1,0,0,1,0,1,0,0,0,hexagon,triangle,,,,,,,,,,,,,,,,,,,,,,,,,,,,,,,,,,,,,,,,,,,,,,,,,,,,,,
297217,2022-12-06_10h21.34.707,vts_reward_expectancy_bt,2022.2.4,Win32,62.05398697,Chrome,1280,800,,,l,0.511,10,257,1,0,4,4,11,1,0,0,0,1,0,0,1,0,star,hexagon,,,,,,,,,,,,,,,,,,,,,,,,,,,,,,,,,,,,,,,,,,,,,,,,,,,,,,
297217,2022-12-06_10h21.34.707,vts_reward_expectancy_bt,2022.2.4,Win32,62.05398697,Chrome,1280,800,,,a,0.5381,10,267,1,0,5,5,7,1,0,0,1,0,0,1,0,0,hexagon,circle,,,,,,,,,,,,,,,,,,,,,,,,,,,,,,,,,,,,,,,,,,,,,,,,,,,,,,
297217,2022-12-06_10h21.34.707,vts_reward_expectancy_bt,2022.2.4,Win32,62.05398697,Chrome,1280,800,,,l,0.4572,10,277,1,0,6,6,9,1,0,0,0,1,1,0,0,0,star,triangle,,,,,,,,,,,,,,,,,,,,,,,,,,,,,,,,,,,,,,,,,,,,,,,,,,,,,,
297217,2022-12-06_10h21.34.707,vts_reward_expectancy_bt,2022.2.4,Win32,62.05398697,Chrome,1280,800,,,a,0.491,10,287,1,0,7,7,2,1,1,0,0,0,0,0,0,1,triangle,star,,,,,,,,,,,,,,,,,,,,,,,,,,,,,,,,,,,,,,,,,,,,,,,,,,,,,,
297217,2022-12-06_10h21.34.707,vts_reward_expectancy_bt,2022.2.4,Win32,62.05398697,Chrome,1280,800,,,a,0.453,1,288,1,0,8,8,5,1,0,1,0,0,0,0,0,1,circle,star,,,,,,,,,,,,,,,,,,,,,,,,,,,,,,,,,,,,,,,,,,,,,,,,,,,,,,
297217,2022-12-06_10h21.34.707,vts_reward_expectancy_bt,2022.2.4,Win32,62.05398697,Chrome,1280,800,,,l,0.5519,10,298,1,0,9,9,4,1,0,1,0,0,0,0,1,0,circle,hexagon,,,,,,,,,,,,,,,,,,,,,,,,,,,,,,,,,,,,,,,,,,,,,,,,,,,,,,
297217,2022-12-06_10h21.34.707,vts_reward_expectancy_bt,2022.2.4,Win32,62.05398697,Chrome,1280,800,,,a,0.5351,1,299,1,0,10,10,1,1,1,0,0,0,0,0,1,0,triangle,hexagon,,,,,,,,,,,,,,,,,,,,,,,,,,,,,,,,,,,,,,,,,,,,,,,,,,,,,,
297217,2022-12-06_10h21.34.707,vts_reward_expectancy_bt,2022.2.4,Win32,62.05398697,Chrome,1280,800,,,a,0.6733,10,309,1,0,11,11,0,1,1,0,0,0,0,1,0,0,triangle,circle,,,,,,,,,,,,,,,,,,,,,,,,,,,,,,,,,,,,,,,,,,,,,,,,,,,,,,
297217,2022-12-06_10h21.34.707,vts_reward_expectancy_bt,2022.2.4,Win32,62.05398697,Chrome,1280,800,,,a,0.7524,10,319,1,1,0,12,10,1,0,0,0,1,0,1,0,0,star ,circle,,,,,,,,,,,,,,,,,,,,,,,,,,,,,,,,,,,,,,,,,,,,,,,,,,,,,,
297217,2022-12-06_10h21.34.707,vts_reward_expectancy_bt,2022.2.4,Win32,62.05398697,Chrome,1280,800,,,a,0.7005,10,329,1,1,1,13,6,1,0,0,1,0,1,0,0,0,hexagon,triangle,,,,,,,,,,,,,,,,,,,,,,,,,,,,,,,,,,,,,,,,,,,,,,,,,,,,,,
297217,2022-12-06_10h21.34.707,vts_reward_expectancy_bt,2022.2.4,Win32,62.05398697,Chrome,1280,800,,,l,0.5036,10,339,1,1,2,14,4,1,0,1,0,0,0,0,1,0,circle,hexagon,,,,,,,,,,,,,,,,,,,,,,,,,,,,,,,,,,,,,,,,,,,,,,,,,,,,,,
297217,2022-12-06_10h21.34.707,vts_reward_expectancy_bt,2022.2.4,Win32,62.05398697,Chrome,1280,800,,,l,0.7335,10,349,1,1,3,15,3,1,0,1,0,0,1,0,0,0,circle,triangle,,,,,,,,,,,,,,,,,,,,,,,,,,,,,,,,,,,,,,,,,,,,,,,,,,,,,,
297217,2022-12-06_10h21.34.707,vts_reward_expectancy_bt,2022.2.4,Win32,62.05398697,Chrome,1280,800,,,l,0.4727,1,350,1,1,4,16,9,1,0,0,0,1,1,0,0,0,star,triangle,,,,,,,,,,,,,,,,,,,,,,,,,,,,,,,,,,,,,,,,,,,,,,,,,,,,,,
297217,2022-12-06_10h21.34.707,vts_reward_expectancy_bt,2022.2.4,Win32,62.05398697,Chrome,1280,800,,,a,0.6492,10,360,1,1,5,17,5,1,0,1,0,0,0,0,0,1,circle,star,,,,,,,,,,,,,,,,,,,,,,,,,,,,,,,,,,,,,,,,,,,,,,,,,,,,,,
297217,2022-12-06_10h21.34.707,vts_reward_expectancy_bt,2022.2.4,Win32,62.05398697,Chrome,1280,800,,,a,0.644,10,370,1,1,6,18,11,1,0,0,0,1,0,0,1,0,star,hexagon,,,,,,,,,,,,,,,,,,,,,,,,,,,,,,,,,,,,,,,,,,,,,,,,,,,,,,
297217,2022-12-06_10h21.34.707,vts_reward_expectancy_bt,2022.2.4,Win32,62.05398697,Chrome,1280,800,,,a,0.7817,10,380,1,1,7,19,7,1,0,0,1,0,0,1,0,0,hexagon,circle,,,,,,,,,,,,,,,,,,,,,,,,,,,,,,,,,,,,,,,,,,,,,,,,,,,,,,
297217,2022-12-06_10h21.34.707,vts_reward_expectancy_bt,2022.2.4,Win32,62.05398697,Chrome,1280,800,,,a,0.4746,1,381,1,1,8,20,0,1,1,0,0,0,0,1,0,0,triangle,circle,,,,,,,,,,,,,,,,,,,,,,,,,,,,,,,,,,,,,,,,,,,,,,,,,,,,,,
297217,2022-12-06_10h21.34.707,vts_reward_expectancy_bt,2022.2.4,Win32,62.05398697,Chrome,1280,800,,,l,0.7671,1,382,1,1,9,21,2,1,1,0,0,0,0,0,0,1,triangle,star,,,,,,,,,,,,,,,,,,,,,,,,,,,,,,,,,,,,,,,,,,,,,,,,,,,,,,
297217,2022-12-06_10h21.34.707,vts_reward_expectancy_bt,2022.2.4,Win32,62.05398697,Chrome,1280,800,,,l,0.6001,1,383,1,1,10,22,8,1,0,0,1,0,0,0,0,1,hexagon,star,,,,,,,,,,,,,,,,,,,,,,,,,,,,,,,,,,,,,,,,,,,,,,,,,,,,,,
297217,2022-12-06_10h21.34.707,vts_reward_expectancy_bt,2022.2.4,Win32,62.05398697,Chrome,1280,800,,,a,0.5162,10,393,1,1,11,23,1,1,1,0,0,0,0,0,1,0,triangle,hexagon,,,,,,,,,,,,,,,,,,,,,,,,,,,,,,,,,,,,,,,,,,,,,,,,,,,,,,
297217,2022-12-06_10h21.34.707,vts_reward_expectancy_bt,2022.2.4,Win32,62.05398697,Chrome,1280,800,,,l,0.5643,10,403,1,2,0,24,5,1,0,1,0,0,0,0,0,1,circle,star,,,,,,,,,,,,,,,,,,,,,,,,,,,,,,,,,,,,,,,,,,,,,,,,,,,,,,
297217,2022-12-06_10h21.34.707,vts_reward_expectancy_bt,2022.2.4,Win32,62.05398697,Chrome,1280,800,,,a,0.6843,1,404,1,2,1,25,11,1,0,0,0,1,0,0,1,0,star,hexagon,,,,,,,,,,,,,,,,,,,,,,,,,,,,,,,,,,,,,,,,,,,,,,,,,,,,,,
297217,2022-12-06_10h21.34.707,vts_reward_expectancy_bt,2022.2.4,Win32,62.05398697,Chrome,1280,800,,,l,0.7867,10,414,1,2,2,26,4,1,0,1,0,0,0,0,1,0,circle,hexagon,,,,,,,,,,,,,,,,,,,,,,,,,,,,,,,,,,,,,,,,,,,,,,,,,,,,,,
297217,2022-12-06_10h21.34.707,vts_reward_expectancy_bt,2022.2.4,Win32,62.05398697,Chrome,1280,800,,,l,0.6392,10,424,1,2,3,27,3,1,0,1,0,0,1,0,0,0,circle,triangle,,,,,,,,,,,,,,,,,,,,,,,,,,,,,,,,,,,,,,,,,,,,,,,,,,,,,,
297217,2022-12-06_10h21.34.707,vts_reward_expectancy_bt,2022.2.4,Win32,62.05398697,Chrome,1280,800,,,a,0.7759,10,434,1,2,4,28,9,1,0,0,0,1,1,0,0,0,star,triangle,,,,,,,,,,,,,,,,,,,,,,,,,,,,,,,,,,,,,,,,,,,,,,,,,,,,,,
297217,2022-12-06_10h21.34.707,vts_reward_expectancy_bt,2022.2.4,Win32,62.05398697,Chrome,1280,800,,,a,0.599,10,444,1,2,5,29,10,1,0,0,0,1,0,1,0,0,star ,circle,,,,,,,,,,,,,,,,,,,,,,,,,,,,,,,,,,,,,,,,,,,,,,,,,,,,,,
297217,2022-12-06_10h21.34.707,vts_reward_expectancy_bt,2022.2.4,Win32,62.05398697,Chrome,1280,800,,,a,0.7561,1,445,1,2,6,30,8,1,0,0,1,0,0,0,0,1,hexagon,star,,,,,,,,,,,,,,,,,,,,,,,,,,,,,,,,,,,,,,,,,,,,,,,,,,,,,,
297217,2022-12-06_10h21.34.707,vts_reward_expectancy_bt,2022.2.4,Win32,62.05398697,Chrome,1280,800,,,a,0.5189,10,455,1,2,7,31,7,1,0,0,1,0,0,1,0,0,hexagon,circle,,,,,,,,,,,,,,,,,,,,,,,,,,,,,,,,,,,,,,,,,,,,,,,,,,,,,,
297217,2022-12-06_10h21.34.707,vts_reward_expectancy_bt,2022.2.4,Win32,62.05398697,Chrome,1280,800,,,a,0.4512,1,456,1,2,8,32,0,1,1,0,0,0,0,1,0,0,triangle,circle,,,,,,,,,,,,,,,,,,,,,,,,,,,,,,,,,,,,,,,,,,,,,,,,,,,,,,
297217,2022-12-06_10h21.34.707,vts_reward_expectancy_bt,2022.2.4,Win32,62.05398697,Chrome,1280,800,,,a,0.6358,10,466,1,2,9,33,6,1,0,0,1,0,1,0,0,0,hexagon,triangle,,,,,,,,,,,,,,,,,,,,,,,,,,,,,,,,,,,,,,,,,,,,,,,,,,,,,,
297217,2022-12-06_10h21.34.707,vts_reward_expectancy_bt,2022.2.4,Win32,62.05398697,Chrome,1280,800,,,l,0.5383,1,467,1,2,10,34,2,1,1,0,0,0,0,0,0,1,triangle,star,,,,,,,,,,,,,,,,,,,,,,,,,,,,,,,,,,,,,,,,,,,,,,,,,,,,,,
297217,2022-12-06_10h21.34.707,vts_reward_expectancy_bt,2022.2.4,Win32,62.05398697,Chrome,1280,800,,,a,0.5843,10,477,1,2,11,35,1,1,1,0,0,0,0,0,1,0,triangle,hexagon,,,,,,,,,,,,,,,,,,,,,,,,,,,,,,,,,,,,,,,,,,,,,,,,,,,,,,
297217,2022-12-06_10h21.34.707,vts_reward_expectancy_bt,2022.2.4,Win32,62.05398697,Chrome,1280,800,,,l,0.7095,10,487,2,0,0,0,4,1,0,1,0,0,0,0,1,0,circle,hexagon,,,,,,,,,,,,,,,,,,,,,,,,,,,,,,,,,,,,,,,,,,,,,,,,,,,,,,
297217,2022-12-06_10h21.34.707,vts_reward_expectancy_bt,2022.2.4,Win32,62.05398697,Chrome,1280,800,,,a,0.4391,1,488,2,0,1,1,0,1,1,0,0,0,0,1,0,0,triangle,circle,,,,,,,,,,,,,,,,,,,,,,,,,,,,,,,,,,,,,,,,,,,,,,,,,,,,,,
297217,2022-12-06_10h21.34.707,vts_reward_expectancy_bt,2022.2.4,Win32,62.05398697,Chrome,1280,800,,,l,0.4477,1,489,2,0,2,2,1,1,1,0,0,0,0,0,1,0,triangle,hexagon,,,,,,,,,,,,,,,,,,,,,,,,,,,,,,,,,,,,,,,,,,,,,,,,,,,,,,
297217,2022-12-06_10h21.34.707,vts_reward_expectancy_bt,2022.2.4,Win32,62.05398697,Chrome,1280,800,,,a,0.3908,1,490,2,0,3,3,9,1,0,0,0,1,1,0,0,0,star,triangle,,,,,,,,,,,,,,,,,,,,,,,,,,,,,,,,,,,,,,,,,,,,,,,,,,,,,,
297217,2022-12-06_10h21.34.707,vts_reward_expectancy_bt,2022.2.4,Win32,62.05398697,Chrome,1280,800,,,l,0.7852,10,500,2,0,4,4,3,1,0,1,0,0,1,0,0,0,circle,triangle,,,,,,,,,,,,,,,,,,,,,,,,,,,,,,,,,,,,,,,,,,,,,,,,,,,,,,
297217,2022-12-06_10h21.34.707,vts_reward_expectancy_bt,2022.2.4,Win32,62.05398697,Chrome,1280,800,,,l,0.8565,1,501,2,0,5,5,10,1,0,0,0,1,0,1,0,0,star ,circle,,,,,,,,,,,,,,,,,,,,,,,,,,,,,,,,,,,,,,,,,,,,,,,,,,,,,,
297217,2022-12-06_10h21.34.707,vts_reward_expectancy_bt,2022.2.4,Win32,62.05398697,Chrome,1280,800,,,l,0.6013,1,502,2,0,6,6,2,1,1,0,0,0,0,0,0,1,triangle,star,,,,,,,,,,,,,,,,,,,,,,,,,,,,,,,,,,,,,,,,,,,,,,,,,,,,,,
297217,2022-12-06_10h21.34.707,vts_reward_expectancy_bt,2022.2.4,Win32,62.05398697,Chrome,1280,800,,,a,0.5375,10,512,2,0,7,7,8,1,0,0,1,0,0,0,0,1,hexagon,star,,,,,,,,,,,,,,,,,,,,,,,,,,,,,,,,,,,,,,,,,,,,,,,,,,,,,,
297217,2022-12-06_10h21.34.707,vts_reward_expectancy_bt,2022.2.4,Win32,62.05398697,Chrome,1280,800,,,a,0.6024,10,522,2,0,8,8,7,1,0,0,1,0,0,1,0,0,hexagon,circle,,,,,,,,,,,,,,,,,,,,,,,,,,,,,,,,,,,,,,,,,,,,,,,,,,,,,,
297217,2022-12-06_10h21.34.707,vts_reward_expectancy_bt,2022.2.4,Win32,62.05398697,Chrome,1280,800,,,a,0.5359,1,523,2,0,9,9,11,1,0,0,0,1,0,0,1,0,star,hexagon,,,,,,,,,,,,,,,,,,,,,,,,,,,,,,,,,,,,,,,,,,,,,,,,,,,,,,
297217,2022-12-06_10h21.34.707,vts_reward_expectancy_bt,2022.2.4,Win32,62.05398697,Chrome,1280,800,,,a,0.4695,10,533,2,0,10,10,6,1,0,0,1,0,1,0,0,0,hexagon,triangle,,,,,,,,,,,,,,,,,,,,,,,,,,,,,,,,,,,,,,,,,,,,,,,,,,,,,,
297217,2022-12-06_10h21.34.707,vts_reward_expectancy_bt,2022.2.4,Win32,62.05398697,Chrome,1280,800,,,a,0.58,1,534,2,0,11,11,5,1,0,1,0,0,0,0,0,1,circle,star,,,,,,,,,,,,,,,,,,,,,,,,,,,,,,,,,,,,,,,,,,,,,,,,,,,,,,
297217,2022-12-06_10h21.34.707,vts_reward_expectancy_bt,2022.2.4,Win32,62.05398697,Chrome,1280,800,,,a,0.5492,10,544,2,1,0,12,7,1,0,0,1,0,0,1,0,0,hexagon,circle,,,,,,,,,,,,,,,,,,,,,,,,,,,,,,,,,,,,,,,,,,,,,,,,,,,,,,
297217,2022-12-06_10h21.34.707,vts_reward_expectancy_bt,2022.2.4,Win32,62.05398697,Chrome,1280,800,,,l,0.4487,10,554,2,1,1,13,10,1,0,0,0,1,0,1,0,0,star ,circle,,,,,,,,,,,,,,,,,,,,,,,,,,,,,,,,,,,,,,,,,,,,,,,,,,,,,,
297217,2022-12-06_10h21.34.707,vts_reward_expectancy_bt,2022.2.4,Win32,62.05398697,Chrome,1280,800,,,a,0.3275,1,555,2,1,2,14,6,1,0,0,1,0,1,0,0,0,hexagon,triangle,,,,,,,,,,,,,,,,,,,,,,,,,,,,,,,,,,,,,,,,,,,,,,,,,,,,,,
297217,2022-12-06_10h21.34.707,vts_reward_expectancy_bt,2022.2.4,Win32,62.05398697,Chrome,1280,800,,,l,0.4169,10,565,2,1,3,15,3,1,0,1,0,0,1,0,0,0,circle,triangle,,,,,,,,,,,,,,,,,,,,,,,,,,,,,,,,,,,,,,,,,,,,,,,,,,,,,,
297217,2022-12-06_10h21.34.707,vts_reward_expectancy_bt,2022.2.4,Win32,62.05398697,Chrome,1280,800,,,l,0.4878,10,575,2,1,4,16,4,1,0,1,0,0,0,0,1,0,circle,hexagon,,,,,,,,,,,,,,,,,,,,,,,,,,,,,,,,,,,,,,,,,,,,,,,,,,,,,,
297217,2022-12-06_10h21.34.707,vts_reward_expectancy_bt,2022.2.4,Win32,62.05398697,Chrome,1280,800,,,l,0.5322,1,576,2,1,5,17,5,1,0,1,0,0,0,0,0,1,circle,star,,,,,,,,,,,,,,,,,,,,,,,,,,,,,,,,,,,,,,,,,,,,,,,,,,,,,,
297217,2022-12-06_10h21.34.707,vts_reward_expectancy_bt,2022.2.4,Win32,62.05398697,Chrome,1280,800,,,a,0.597,10,586,2,1,6,18,0,1,1,0,0,0,0,1,0,0,triangle,circle,,,,,,,,,,,,,,,,,,,,,,,,,,,,,,,,,,,,,,,,,,,,,,,,,,,,,,
297217,2022-12-06_10h21.34.707,vts_reward_expectancy_bt,2022.2.4,Win32,62.05398697,Chrome,1280,800,,,l,0.7179,10,596,2,1,7,19,9,1,0,0,0,1,1,0,0,0,star,triangle,,,,,,,,,,,,,,,,,,,,,,,,,,,,,,,,,,,,,,,,,,,,,,,,,,,,,,
297217,2022-12-06_10h21.34.707,vts_reward_expectancy_bt,2022.2.4,Win32,62.05398697,Chrome,1280,800,,,l,0.9893,10,606,2,1,8,20,11,1,0,0,0,1,0,0,1,0,star,hexagon,,,,,,,,,,,,,,,,,,,,,,,,,,,,,,,,,,,,,,,,,,,,,,,,,,,,,,
297217,2022-12-06_10h21.34.707,vts_reward_expectancy_bt,2022.2.4,Win32,62.05398697,Chrome,1280,800,,,a,0.4447,1,607,2,1,9,21,1,1,1,0,0,0,0,0,1,0,triangle,hexagon,,,,,,,,,,,,,,,,,,,,,,,,,,,,,,,,,,,,,,,,,,,,,,,,,,,,,,
297217,2022-12-06_10h21.34.707,vts_reward_expectancy_bt,2022.2.4,Win32,62.05398697,Chrome,1280,800,,,a,0.3887,1,608,2,1,10,22,8,1,0,0,1,0,0,0,0,1,hexagon,star,,,,,,,,,,,,,,,,,,,,,,,,,,,,,,,,,,,,,,,,,,,,,,,,,,,,,,
297217,2022-12-06_10h21.34.707,vts_reward_expectancy_bt,2022.2.4,Win32,62.05398697,Chrome,1280,800,,,a,0.501,10,618,2,1,11,23,2,1,1,0,0,0,0,0,0,1,triangle,star,,,,,,,,,,,,,,,,,,,,,,,,,,,,,,,,,,,,,,,,,,,,,,,,,,,,,,
297217,2022-12-06_10h21.34.707,vts_reward_expectancy_bt,2022.2.4,Win32,62.05398697,Chrome,1280,800,,,a,0.5999,10,628,2,2,0,24,0,1,1,0,0,0,0,1,0,0,triangle,circle,,,,,,,,,,,,,,,,,,,,,,,,,,,,,,,,,,,,,,,,,,,,,,,,,,,,,,
297217,2022-12-06_10h21.34.707,vts_reward_expectancy_bt,2022.2.4,Win32,62.05398697,Chrome,1280,800,,,a,0.5204,1,629,2,2,1,25,5,1,0,1,0,0,0,0,0,1,circle,star,,,,,,,,,,,,,,,,,,,,,,,,,,,,,,,,,,,,,,,,,,,,,,,,,,,,,,
297217,2022-12-06_10h21.34.707,vts_reward_expectancy_bt,2022.2.4,Win32,62.05398697,Chrome,1280,800,,,l,0.7675,10,639,2,2,2,26,6,1,0,0,1,0,1,0,0,0,hexagon,triangle,,,,,,,,,,,,,,,,,,,,,,,,,,,,,,,,,,,,,,,,,,,,,,,,,,,,,,
297217,2022-12-06_10h21.34.707,vts_reward_expectancy_bt,2022.2.4,Win32,62.05398697,Chrome,1280,800,,,l,0.4233,1,640,2,2,3,27,4,1,0,1,0,0,0,0,1,0,circle,hexagon,,,,,,,,,,,,,,,,,,,,,,,,,,,,,,,,,,,,,,,,,,,,,,,,,,,,,,
297217,2022-12-06_10h21.34.707,vts_reward_expectancy_bt,2022.2.4,Win32,62.05398697,Chrome,1280,800,,,a,0.641,10,650,2,2,4,28,7,1,0,0,1,0,0,1,0,0,hexagon,circle,,,,,,,,,,,,,,,,,,,,,,,,,,,,,,,,,,,,,,,,,,,,,,,,,,,,,,
297217,2022-12-06_10h21.34.707,vts_reward_expectancy_bt,2022.2.4,Win32,62.05398697,Chrome,1280,800,,,a,0.6978,10,660,2,2,5,29,10,1,0,0,0,1,0,1,0,0,star ,circle,,,,,,,,,,,,,,,,,,,,,,,,,,,,,,,,,,,,,,,,,,,,,,,,,,,,,,
297217,2022-12-06_10h21.34.707,vts_reward_expectancy_bt,2022.2.4,Win32,62.05398697,Chrome,1280,800,,,l,0.8178,1,661,2,2,6,30,3,1,0,1,0,0,1,0,0,0,circle,triangle,,,,,,,,,,,,,,,,,,,,,,,,,,,,,,,,,,,,,,,,,,,,,,,,,,,,,,
297217,2022-12-06_10h21.34.707,vts_reward_expectancy_bt,2022.2.4,Win32,62.05398697,Chrome,1280,800,,,a,0.3794,1,662,2,2,7,31,11,1,0,0,0,1,0,0,1,0,star,hexagon,,,,,,,,,,,,,,,,,,,,,,,,,,,,,,,,,,,,,,,,,,,,,,,,,,,,,,
297217,2022-12-06_10h21.34.707,vts_reward_expectancy_bt,2022.2.4,Win32,62.05398697,Chrome,1280,800,,,l,0.7397,1,663,2,2,8,32,8,1,0,0,1,0,0,0,0,1,hexagon,star,,,,,,,,,,,,,,,,,,,,,,,,,,,,,,,,,,,,,,,,,,,,,,,,,,,,,,
297217,2022-12-06_10h21.34.707,vts_reward_expectancy_bt,2022.2.4,Win32,62.05398697,Chrome,1280,800,,,a,1.0515,10,673,2,2,9,33,1,1,1,0,0,0,0,0,1,0,triangle,hexagon,,,,,,,,,,,,,,,,,,,,,,,,,,,,,,,,,,,,,,,,,,,,,,,,,,,,,,
297217,2022-12-06_10h21.34.707,vts_reward_expectancy_bt,2022.2.4,Win32,62.05398697,Chrome,1280,800,,,a,1.0494,1,674,2,2,10,34,2,1,1,0,0,0,0,0,0,1,triangle,star,,,,,,,,,,,,,,,,,,,,,,,,,,,,,,,,,,,,,,,,,,,,,,,,,,,,,,
297217,2022-12-06_10h21.34.707,vts_reward_expectancy_bt,2022.2.4,Win32,62.05398697,Chrome,1280,800,,,l,0.7679,10,684,2,2,11,35,9,1,0,0,0,1,1,0,0,0,star,triangle,,,,,,,,,,,,,,,,,,,,,,,,,,,,,,,,,,,,,,,,,,,,,,,,,,,,,,
297217,2022-12-06_10h21.34.707,vts_reward_expectancy_bt,2022.2.4,Win32,62.05398697,Chrome,1280,800,,,,,,,,,,,,,,,,,,,,,,,167,U,triangle,1,0,f,1.15,0,0,0,0,0,1,,,,,,,,,,,,,,,,,,,,,,,,,,,,,,,,,,,,,,,,,
297217,2022-12-06_10h21.34.707,vts_reward_expectancy_bt,2022.2.4,Win32,62.05398697,Chrome,1280,800,,,,,,,,,,,,,,,,,,,,,,,146,W,hexagon,1,0,d,0.7842,0,1,0,1,0,1,,,,,,,,,,,,,,,,,,,,,,,,,,,,,,,,,,,,,,,,,
297217,2022-12-06_10h21.34.707,vts_reward_expectancy_bt,2022.2.4,Win32,62.05398697,Chrome,1280,800,,,,,,,,,,,,,,,,,,,,,,,160,B,circle,1,0,f,0.7176,0,2,0,2,0,1,,,,,,,,,,,,,,,,,,,,,,,,,,,,,,,,,,,,,,,,,
297217,2022-12-06_10h21.34.707,vts_reward_expectancy_bt,2022.2.4,Win32,62.05398697,Chrome,1280,800,,,,,,,,,,,,,,,,,,,,,,,139,D,star,1,0,d,0.7096,0,3,0,3,0,1,,,,,,,,,,,,,,,,,,,,,,,,,,,,,,,,,,,,,,,,,
297217,2022-12-06_10h21.34.707,vts_reward_expectancy_bt,2022.2.4,Win32,62.05398697,Chrome,1280,800,,,,,,,,,,,,,,,,,,,,,,,181,F,triangle,1,0,f,0.563,0,4,0,4,0,1,,,,,,,,,,,,,,,,,,,,,,,,,,,,,,,,,,,,,,,,,
297217,2022-12-06_10h21.34.707,vts_reward_expectancy_bt,2022.2.4,Win32,62.05398697,Chrome,1280,800,,,,,,,,,,,,,,,,,,,,,,,125,Y,hexagon,1,0,d,1.5628,0,5,0,5,0,1,,,,,,,,,,,,,,,,,,,,,,,,,,,,,,,,,,,,,,,,,
297217,2022-12-06_10h21.34.707,vts_reward_expectancy_bt,2022.2.4,Win32,62.05398697,Chrome,1280,800,,,,,,,,,,,,,,,,,,,,,,,132,S,circle,1,0,d,0.6336,0,6,0,6,0,1,,,,,,,,,,,,,,,,,,,,,,,,,,,,,,,,,,,,,,,,,
297217,2022-12-06_10h21.34.707,vts_reward_expectancy_bt,2022.2.4,Win32,62.05398697,Chrome,1280,800,,,,,,,,,,,,,,,,,,,,,,,174,H,star,1,0,f,0.482,0,7,0,7,0,1,,,,,,,,,,,,,,,,,,,,,,,,,,,,,,,,,,,,,,,,,
297217,2022-12-06_10h21.34.707,vts_reward_expectancy_bt,2022.2.4,Win32,62.05398697,Chrome,1280,800,,,,,,,,,,,,,,,,,,,,,,,167,U,star,1,0,f,0.6849,0,8,0,8,0,1,,,,,,,,,,,,,,,,,,,,,,,,,,,,,,,,,,,,,,,,,
297217,2022-12-06_10h21.34.707,vts_reward_expectancy_bt,2022.2.4,Win32,62.05398697,Chrome,1280,800,,,,,,,,,,,,,,,,,,,,,,,146,W,circle,1,0,d,0.8469,0,9,0,9,0,1,,,,,,,,,,,,,,,,,,,,,,,,,,,,,,,,,,,,,,,,,
297217,2022-12-06_10h21.34.707,vts_reward_expectancy_bt,2022.2.4,Win32,62.05398697,Chrome,1280,800,,,,,,,,,,,,,,,,,,,,,,,146,U,star,1,0,,,1,,,,,,k,2.4021,0,0,0,0,1,,,,,,,,,,,,,,,,,,,,,,,,,,,,,,,,,,
297217,2022-12-06_10h21.34.707,vts_reward_expectancy_bt,2022.2.4,Win32,62.05398697,Chrome,1280,800,,,,,,,,,,,,,,,,,,,,,,,132,H,triangle,1,0,,,1,,,,,,j,0.7199,1,0,1,0,1,,,,,,,,,,,,,,,,,,,,,,,,,,,,,,,,,,
297217,2022-12-06_10h21.34.707,vts_reward_expectancy_bt,2022.2.4,Win32,62.05398697,Chrome,1280,800,,,,,,,,,,,,,,,,,,,,,,,160,D,circle,1,0,,,1,,,,,,j,0.7116,2,0,2,0,1,,,,,,,,,,,,,,,,,,,,,,,,,,,,,,,,,,
297217,2022-12-06_10h21.34.707,vts_reward_expectancy_bt,2022.2.4,Win32,62.05398697,Chrome,1280,800,,,,,,,,,,,,,,,,,,,,,,,167,F,hexagon,0,0,,,1,,,,,,k,0.6982,3,0,3,0,1,,,,,,,,,,,,,,,,,,,,,,,,,,,,,,,,,,
297217,2022-12-06_10h21.34.707,vts_reward_expectancy_bt,2022.2.4,Win32,62.05398697,Chrome,1280,800,,,,,,,,,,,,,,,,,,,,,,,139,Y,star,1,1,,,1,,,,,,k,0.6535,4,0,4,0,1,,,,,,,,,,,,,,,,,,,,,,,,,,,,,,,,,,
297217,2022-12-06_10h21.34.707,vts_reward_expectancy_bt,2022.2.4,Win32,62.05398697,Chrome,1280,800,,,,,,,,,,,,,,,,,,,,,,,174,B,triangle,1,0,,,1,,,,,,j,0.501,5,0,5,0,1,,,,,,,,,,,,,,,,,,,,,,,,,,,,,,,,,,
297217,2022-12-06_10h21.34.707,vts_reward_expectancy_bt,2022.2.4,Win32,62.05398697,Chrome,1280,800,,,,,,,,,,,,,,,,,,,,,,,125,W,circle,1,0,,,1,,,,,,k,0.7191,6,0,6,0,1,,,,,,,,,,,,,,,,,,,,,,,,,,,,,,,,,,
297217,2022-12-06_10h21.34.707,vts_reward_expectancy_bt,2022.2.4,Win32,62.05398697,Chrome,1280,800,,,,,,,,,,,,,,,,,,,,,,,181,S,hexagon,1,0,,,1,,,,,,k,1.3488,7,0,7,0,1,,,,,,,,,,,,,,,,,,,,,,,,,,,,,,,,,,
297217,2022-12-06_10h21.34.707,vts_reward_expectancy_bt,2022.2.4,Win32,62.05398697,Chrome,1280,800,,,,,,,,,,,,,,,,,,,,,,,146,U,circle,1,0,,,1,,,,,,k,0.5684,8,0,8,0,1,,,,,,,,,,,,,,,,,,,,,,,,,,,,,,,,,,
297217,2022-12-06_10h21.34.707,vts_reward_expectancy_bt,2022.2.4,Win32,62.05398697,Chrome,1280,800,,,,,,,,,,,,,,,,,,,,,,,132,H,hexagon,1,0,,,1,,,,,,j,1.0342,9,0,9,0,1,,,,,,,,,,,,,,,,,,,,,,,,,,,,,,,,,,
297217,2022-12-06_10h21.34.707,vts_reward_expectancy_bt,2022.2.4,Win32,62.05398697,Chrome,1280,800,,,,,0,684,,,,,,,,,,,,,,,,,125,Y,hexagon,1,0,,,2,,,,,,,,,,,,,-1,number,NA,d,2.5911,vtsPrac,0,0,0,0,1,,,,,,,,,,,,,,,,,,,,,,,
297217,2022-12-06_10h21.34.707,vts_reward_expectancy_bt,2022.2.4,Win32,62.05398697,Chrome,1280,800,,,,,0,684,,,,,,,,,,,,,,,,,167,S,triangle,1,0,,,2,,,,,,,,,,,,,repeat,number,numRpt,f,0.9428,vtsPrac,1,0,1,0,1,,,,,,,,,,,,,,,,,,,,,,,
297217,2022-12-06_10h21.34.707,vts_reward_expectancy_bt,2022.2.4,Win32,62.05398697,Chrome,1280,800,,,,,0,684,,,,,,,,,,,,,,,,,132,D,hexagon,0,0,,,2,,,,,,,,,,,,,switch,letter,NA,k,1.0614,vtsPrac,2,0,2,0,1,,,,,,,,,,,,,,,,,,,,,,,
297217,2022-12-06_10h21.34.707,vts_reward_expectancy_bt,2022.2.4,Win32,62.05398697,Chrome,1280,800,,,,,0,684,,,,,,,,,,,,,,,,,146,U,triangle,1,1,,,2,,,,,,,,,,,,,switch,number,numSwt,d,1.2926,vtsPrac,3,0,3,0,1,,,,,,,,,,,,,,,,,,,,,,,
297217,2022-12-06_10h21.34.707,vts_reward_expectancy_bt,2022.2.4,Win32,62.05398697,Chrome,1280,800,,,,,0,684,,,,,,,,,,,,,,,,,125,Y,circle,1,0,,,2,,,,,,,,,,,,,repeat,number,numRpt,d,1.1948,vtsPrac,4,0,4,0,1,,,,,,,,,,,,,,,,,,,,,,,
297217,2022-12-06_10h21.34.707,vts_reward_expectancy_bt,2022.2.4,Win32,62.05398697,Chrome,1280,800,,,,,0,684,,,,,,,,,,,,,,,,,167,S,triangle,1,0,,,2,,,,,,,,,,,,,repeat,number,numRpt,f,0.7267,vtsPrac,5,0,5,0,1,,,,,,,,,,,,,,,,,,,,,,,
297217,2022-12-06_10h21.34.707,vts_reward_expectancy_bt,2022.2.4,Win32,62.05398697,Chrome,1280,800,,,,,0,684,,,,,,,,,,,,,,,,,132,D,circle,1,0,,,2,,,,,,,,,,,,,repeat,number,numRpt,d,0.7433,vtsPrac,6,0,6,0,1,,,,,,,,,,,,,,,,,,,,,,,
297217,2022-12-06_10h21.34.707,vts_reward_expectancy_bt,2022.2.4,Win32,62.05398697,Chrome,1280,800,,,,,0,684,,,,,,,,,,,,,,,,,146,U,triangle,1,0,,,2,,,,,,,,,,,,,repeat,number,numRpt,d,0.7848,vtsPrac,7,0,7,0,1,,,,,,,,,,,,,,,,,,,,,,,
297217,2022-12-06_10h21.34.707,vts_reward_expectancy_bt,2022.2.4,Win32,62.05398697,Chrome,1280,800,,,,,0,684,,,,,,,,,,,,,,,,,167,Y,triangle,1,0,,,2,,,,,,,,,,,,,repeat,number,numRpt,f,0.633,vtsPrac,8,0,8,0,1,,,,,,,,,,,,,,,,,,,,,,,
297217,2022-12-06_10h21.34.707,vts_reward_expectancy_bt,2022.2.4,Win32,62.05398697,Chrome,1280,800,,,,,0,684,,,,,,,,,,,,,,,,,146,U,circle,1,0,,,2,,,,,,,,,,,,,repeat,number,numRpt,d,0.7848,vtsPrac,9,0,9,0,1,,,,,,,,,,,,,,,,,,,,,,,
297217,2022-12-06_10h21.34.707,vts_reward_expectancy_bt,2022.2.4,Win32,62.05398697,Chrome,1280,800,,,,,0,684,,,,,,,,,,,,,,,,,125,H,star,1,0,,,2,,,,,,,,,,,,,repeat,number,numRpt,d,0.5175,vtsPrac,10,0,10,0,1,,,,,,,,,,,,,,,,,,,,,,,
297217,2022-12-06_10h21.34.707,vts_reward_expectancy_bt,2022.2.4,Win32,62.05398697,Chrome,1280,800,,,,,0,684,,,,,,,,,,,,,,,,,139,B,triangle,1,0,,,2,,,,,,,,,,,,,repeat,number,numRpt,d,0.919,vtsPrac,11,0,11,0,1,,,,,,,,,,,,,,,,,,,,,,,
297217,2022-12-06_10h21.34.707,vts_reward_expectancy_bt,2022.2.4,Win32,62.05398697,Chrome,1280,800,,,,,0,684,,,,,,,,,,,,,,,,,132,W,star,1,0,,,2,,,,,,,,,,,,,repeat,number,numRpt,d,0.5425,vtsPrac,12,0,12,0,1,,,,,,,,,,,,,,,,,,,,,,,
297217,2022-12-06_10h21.34.707,vts_reward_expectancy_bt,2022.2.4,Win32,62.05398697,Chrome,1280,800,,,,,0,684,,,,,,,,,,,,,,,,,146,U,circle,1,0,,,2,,,,,,,,,,,,,repeat,number,numRpt,d,0.7529,vtsPrac,13,0,13,0,1,,,,,,,,,,,,,,,,,,,,,,,
297217,2022-12-06_10h21.34.707,vts_reward_expectancy_bt,2022.2.4,Win32,62.05398697,Chrome,1280,800,,,,,0,684,,,,,,,,,,,,,,,,,139,B,hexagon,1,0,,,2,,,,,,,,,,,,,repeat,number,numRpt,d,0.5761,vtsPrac,14,0,14,0,1,,,,,,,,,,,,,,,,,,,,,,,
297217,2022-12-06_10h21.34.707,vts_reward_expectancy_bt,2022.2.4,Win32,62.05398697,Chrome,1280,800,,,,,0,684,,,,,,,,,,,,,,,,,174,H,triangle,1,0,,,2,,,,,,,,,,,,,repeat,number,numRpt,f,0.7674,vtsPrac,15,0,15,0,1,,,,,,,,,,,,,,,,,,,,,,,
297217,2022-12-06_10h21.34.707,vts_reward_expectancy_bt,2022.2.4,Win32,62.05398697,Chrome,1280,800,,,,,0,684,,,,,,,,,,,,,,,,,174,F,star,1,0,,,2,,,,,,,,,,,,,repeat,number,numRpt,f,0.8865,vtsPrac,16,0,16,0,1,,,,,,,,,,,,,,,,,,,,,,,
297217,2022-12-06_10h21.34.707,vts_reward_expectancy_bt,2022.2.4,Win32,62.05398697,Chrome,1280,800,,,,,0,684,,,,,,,,,,,,,,,,,139,U,hexagon,1,0,,,2,,,,,,,,,,,,,repeat,number,numRpt,d,0.6913,vtsPrac,17,0,17,0,1,,,,,,,,,,,,,,,,,,,,,,,
297217,2022-12-06_10h21.34.707,vts_reward_expectancy_bt,2022.2.4,Win32,62.05398697,Chrome,1280,800,,,,,0,684,,,,,,,,,,,,,,,,,146,H,triangle,1,0,,,2,,,,,,,,,,,,,repeat,number,numRpt,d,0.8018,vtsPrac,18,0,18,0,1,,,,,,,,,,,,,,,,,,,,,,,
297217,2022-12-06_10h21.34.707,vts_reward_expectancy_bt,2022.2.4,Win32,62.05398697,Chrome,1280,800,,,,,0,684,,,,,,,,,,,,,,,,,160,D,star,1,0,,,2,,,,,,,,,,,,,repeat,number,numRpt,f,1.4302,vtsPrac,19,0,19,0,1,,,,,,,,,,,,,,,,,,,,,,,
297217,2022-12-06_10h21.34.707,vts_reward_expectancy_bt,2022.2.4,Win32,62.05398697,Chrome,1280,800,,,,,0,684,,,,,,,,,,,,,,,,,132,W,circle,1,0,,,2,,,,,,,,,,,,,repeat,number,numRpt,d,1.3173,vtsPrac,20,0,20,0,1,,,,,,,,,,,,,,,,,,,,,,,
297217,2022-12-06_10h21.34.707,vts_reward_expectancy_bt,2022.2.4,Win32,62.05398697,Chrome,1280,800,,,,,0,684,,,,,,,,,,,,,,,,,146,F,triangle,1,0,,,2,,,,,,,,,,,,,repeat,number,numRpt,d,0.9859,vtsPrac,21,0,21,0,1,,,,,,,,,,,,,,,,,,,,,,,
297217,2022-12-06_10h21.34.707,vts_reward_expectancy_bt,2022.2.4,Win32,62.05398697,Chrome,1280,800,,,,,0,684,,,,,,,,,,,,,,,,,125,U,star,1,0,,,2,,,,,,,,,,,,,repeat,number,numRpt,d,0.964,vtsPrac,22,0,22,0,1,,,,,,,,,,,,,,,,,,,,,,,
297217,2022-12-06_10h21.34.707,vts_reward_expectancy_bt,2022.2.4,Win32,62.05398697,Chrome,1280,800,,,,,0,684,,,,,,,,,,,,,,,,,167,D,triangle,1,0,,,2,,,,,,,,,,,,,repeat,number,numRpt,f,0.6436,vtsPrac,23,0,23,0,1,,,,,,,,,,,,,,,,,,,,,,,
297217,2022-12-06_10h21.34.707,vts_reward_expectancy_bt,2022.2.4,Win32,62.05398697,Chrome,1280,800,,,,,0,684,,,,,,,,,,,,,,,,,167,Y,star,1,0,,,2,,,,,,,,,,,,,repeat,number,numRpt,f,0.7315,vtsPrac,24,0,24,0,1,,,,,,,,,,,,,,,,,,,,,,,
297217,2022-12-06_10h21.34.707,vts_reward_expectancy_bt,2022.2.4,Win32,62.05398697,Chrome,1280,800,,,,,0,684,,,,,,,,,,,,,,,,,160,D,hexagon,1,0,,,2,,,,,,,,,,,,,repeat,number,numRpt,f,0.5937,vtsPrac,25,0,25,0,1,,,,,,,,,,,,,,,,,,,,,,,
297217,2022-12-06_10h21.34.707,vts_reward_expectancy_bt,2022.2.4,Win32,62.05398697,Chrome,1280,800,,,,,0,684,,,,,,,,,,,,,,,,,132,S,triangle,1,0,,,2,,,,,,,,,,,,,repeat,number,numRpt,d,1.1115,vtsPrac,26,0,26,0,1,,,,,,,,,,,,,,,,,,,,,,,
297217,2022-12-06_10h21.34.707,vts_reward_expectancy_bt,2022.2.4,Win32,62.05398697,Chrome,1280,800,,,,,0,684,,,,,,,,,,,,,,,,,146,B,star,1,0,,,2,,,,,,,,,,,,,switch,letter,lettSwt,j,0.6479,vtsPrac,27,0,27,0,1,,,,,,,,,,,,,,,,,,,,,,,
297217,2022-12-06_10h21.34.707,vts_reward_expectancy_bt,2022.2.4,Win32,62.05398697,Chrome,1280,800,,,,,0,684,,,,,,,,,,,,,,,,,167,S,hexagon,1,0,,,2,,,,,,,,,,,,,repeat,letter,lettRpt,k,0.7997,vtsPrac,28,0,28,0,1,,,,,,,,,,,,,,,,,,,,,,,
297217,2022-12-06_10h21.34.707,vts_reward_expectancy_bt,2022.2.4,Win32,62.05398697,Chrome,1280,800,,,,,0,684,,,,,,,,,,,,,,,,,160,U,star,1,0,,,2,,,,,,,,,,,,,repeat,letter,lettRpt,k,0.6681,vtsPrac,29,0,29,0,1,,,,,,,,,,,,,,,,,,,,,,,
297217,2022-12-06_10h21.34.707,vts_reward_expectancy_bt,2022.2.4,Win32,62.05398697,Chrome,1280,800,,,,,0,684,,,,,,,,,,,,,,,,,139,F,star,1,0,,,2,,,,,,,,,,,,,repeat,letter,lettRpt,j,0.8667,vtsPrac,30,0,30,0,1,,,,,,,,,,,,,,,,,,,,,,,
297217,2022-12-06_10h21.34.707,vts_reward_expectancy_bt,2022.2.4,Win32,62.05398697,Chrome,1280,800,,,,,0,684,,,,,,,,,,,,,,,,,132,D,circle,1,0,,,2,,,,,,,,,,,,,repeat,letter,lettRpt,j,0.8173,vtsPrac,31,0,31,0,1,,,,,,,,,,,,,,,,,,,,,,,
297217,2022-12-06_10h21.34.707,vts_reward_expectancy_bt,2022.2.4,Win32,62.05398697,Chrome,1280,800,,,,,0,684,,,,,,,,,,,,,,,,,181,U,circle,1,0,,,3,,,,,,,,,,,,,switch,number,numSwt,f,0.6983,vtsPrac,0,0,0,0,1,,,,,,,,,,,,,,,,,,,,,,,
297217,2022-12-06_10h21.34.707,vts_reward_expectancy_bt,2022.2.4,Win32,62.05398697,Chrome,1280,800,,,,,0,684,,,,,,,,,,,,,,,,,174,Y,star,1,0,,,3,,,,,,,,,,,,,switch,letter,lettSwt,k,0.6028,vtsPrac,1,0,1,0,1,,,,,,,,,,,,,,,,,,,,,,,
297217,2022-12-06_10h21.34.707,vts_reward_expectancy_bt,2022.2.4,Win32,62.05398697,Chrome,1280,800,,,,,0,684,,,,,,,,,,,,,,,,,125,D,circle,1,0,,,3,,,,,,,,,,,,,switch,number,numSwt,d,2.1857,vtsPrac,2,0,2,0,1,,,,,,,,,,,,,,,,,,,,,,,
297217,2022-12-06_10h21.34.707,vts_reward_expectancy_bt,2022.2.4,Win32,62.05398697,Chrome,1280,800,,,,,0,684,,,,,,,,,,,,,,,,,167,S,star,1,0,,,3,,,,,,,,,,,,,switch,letter,lettSwt,k,1.1783,vtsPrac,3,0,3,0,1,,,,,,,,,,,,,,,,,,,,,,,
297217,2022-12-06_10h21.34.707,vts_reward_expectancy_bt,2022.2.4,Win32,62.05398697,Chrome,1280,800,,,,,0,684,,,,,,,,,,,,,,,,,181,U,hexagon,1,0,,,3,,,,,,,,,,,,,switch,number,numSwt,f,0.612,vtsPrac,4,0,4,0,1,,,,,,,,,,,,,,,,,,,,,,,
297217,2022-12-06_10h21.34.707,vts_reward_expectancy_bt,2022.2.4,Win32,62.05398697,Chrome,1280,800,,,,,0,684,,,,,,,,,,,,,,,,,174,Y,triangle,1,0,,,3,,,,,,,,,,,,,switch,letter,lettSwt,k,1.6966,vtsPrac,5,0,5,0,1,,,,,,,,,,,,,,,,,,,,,,,
297217,2022-12-06_10h21.34.707,vts_reward_expectancy_bt,2022.2.4,Win32,62.05398697,Chrome,1280,800,,,,,0,684,,,,,,,,,,,,,,,,,125,D,circle,1,0,,,3,,,,,,,,,,,,,switch,number,numSwt,d,0.8524,vtsPrac,6,0,6,0,1,,,,,,,,,,,,,,,,,,,,,,,
297217,2022-12-06_10h21.34.707,vts_reward_expectancy_bt,2022.2.4,Win32,62.05398697,Chrome,1280,800,,,,,0,684,,,,,,,,,,,,,,,,,167,S,hexagon,1,0,,,3,,,,,,,,,,,,,switch,letter,lettSwt,k,0.6617,vtsPrac,7,0,7,0,1,,,,,,,,,,,,,,,,,,,,,,,
297217,2022-12-06_10h21.34.707,vts_reward_expectancy_bt,2022.2.4,Win32,62.05398697,Chrome,1280,800,,,,,0,684,,,,,,,,,,,,,,,,,132,W,triangle,1,0,,,3,,,,,,,,,,,,,switch,number,numSwt,d,0.4315,vtsPrac,8,0,8,0,1,,,,,,,,,,,,,,,,,,,,,,,
297217,2022-12-06_10h21.34.707,vts_reward_expectancy_bt,2022.2.4,Win32,62.05398697,Chrome,1280,800,,,,,0,684,,,,,,,,,,,,,,,,,174,D,circle,1,0,,,3,,,,,,,,,,,,,switch,letter,lettSwt,j,1.5301,vtsPrac,9,0,9,0,1,,,,,,,,,,,,,,,,,,,,,,,
297217,2022-12-06_10h21.34.707,vts_reward_expectancy_bt,2022.2.4,Win32,62.05398697,Chrome,1280,800,,,,,0,684,,,,,,,,,,,,,,,,,146,F,circle,1,0,,,3,,,,,,,,,,,,,switch,number,numSwt,d,1.7173,vtsPrac,10,0,10,0,1,,,,,,,,,,,,,,,,,,,,,,,
297217,2022-12-06_10h21.34.707,vts_reward_expectancy_bt,2022.2.4,Win32,62.05398697,Chrome,1280,800,,,,,0,684,,,,,,,,,,,,,,,,,125,B,star,1,0,,,3,,,,,,,,,,,,,switch,letter,lettSwt,j,2.1012,vtsPrac,11,0,11,0,1,,,,,,,,,,,,,,,,,,,,,,,
297217,2022-12-06_10h21.34.707,vts_reward_expectancy_bt,2022.2.4,Win32,62.05398697,Chrome,1280,800,,,,,0,684,,,,,,,,,,,,,,,,,139,Y,triangle,1,0,,,3,,,,,,,,,,,,,switch,number,numSwt,d,1.0974,vtsPrac,12,0,12,0,1,,,,,,,,,,,,,,,,,,,,,,,
297217,2022-12-06_10h21.34.707,vts_reward_expectancy_bt,2022.2.4,Win32,62.05398697,Chrome,1280,800,,,,,0,684,,,,,,,,,,,,,,,,,174,H,hexagon,1,0,,,3,,,,,,,,,,,,,switch,letter,lettSwt,j,1.1301,vtsPrac,13,0,13,0,1,,,,,,,,,,,,,,,,,,,,,,,
297217,2022-12-06_10h21.34.707,vts_reward_expectancy_bt,2022.2.4,Win32,62.05398697,Chrome,1280,800,,,,,0,684,,,,,,,,,,,,,,,,,125,B,circle,1,0,,,3,,,,,,,,,,,,,switch,number,numSwt,d,0.7891,vtsPrac,14,0,14,0,1,,,,,,,,,,,,,,,,,,,,,,,
297217,2022-12-06_10h21.34.707,vts_reward_expectancy_bt,2022.2.4,Win32,62.05398697,Chrome,1280,800,,,,,0,684,,,,,,,,,,,,,,,,,181,W,hexagon,1,0,,,3,,,,,,,,,,,,,switch,letter,lettSwt,k,1.5169,vtsPrac,15,0,15,0,1,,,,,,,,,,,,,,,,,,,,,,,
297217,2022-12-06_10h21.34.707,vts_reward_expectancy_bt,2022.2.4,Win32,62.05398697,Chrome,1280,800,,,,,0,684,,,,,,,,,,,,,,,,,146,F,star,1,0,,,3,,,,,,,,,,,,,switch,number,numSwt,d,1.8632,vtsPrac,16,0,16,0,1,,,,,,,,,,,,,,,,,,,,,,,
297217,2022-12-06_10h21.34.707,vts_reward_expectancy_bt,2022.2.4,Win32,62.05398697,Chrome,1280,800,,,,,0,684,,,,,,,,,,,,,,,,,167,D,triangle,1,0,,,3,,,,,,,,,,,,,switch,letter,lettSwt,j,0.546,vtsPrac,17,0,17,0,1,,,,,,,,,,,,,,,,,,,,,,,
297217,2022-12-06_10h21.34.707,vts_reward_expectancy_bt,2022.2.4,Win32,62.05398697,Chrome,1280,800,,,,,0,684,,,,,,,,,,,,,,,,,132,Y,hexagon,1,0,,,3,,,,,,,,,,,,,switch,number,numSwt,d,0.6831,vtsPrac,18,0,18,0,1,,,,,,,,,,,,,,,,,,,,,,,
297217,2022-12-06_10h21.34.707,vts_reward_expectancy_bt,2022.2.4,Win32,62.05398697,Chrome,1280,800,,,,,0,684,,,,,,,,,,,,,,,,,139,U,star,1,0,,,3,,,,,,,,,,,,,switch,letter,lettSwt,k,0.5525,vtsPrac,19,0,19,0,1,,,,,,,,,,,,,,,,,,,,,,,
297217,2022-12-06_10h21.34.707,vts_reward_expectancy_bt,2022.2.4,Win32,62.05398697,Chrome,1280,800,,,,,0,684,,,,,,,,,,,,,,,,,174,W,circle,1,0,,,3,,,,,,,,,,,,,switch,number,numSwt,f,0.4866,vtsPrac,20,0,20,0,1,,,,,,,,,,,,,,,,,,,,,,,
297217,2022-12-06_10h21.34.707,vts_reward_expectancy_bt,2022.2.4,Win32,62.05398697,Chrome,1280,800,,,,,0,684,,,,,,,,,,,,,,,,,139,Y,hexagon,1,0,,,3,,,,,,,,,,,,,switch,letter,lettSwt,k,1.2982,vtsPrac,21,0,21,0,1,,,,,,,,,,,,,,,,,,,,,,,
297217,2022-12-06_10h21.34.707,vts_reward_expectancy_bt,2022.2.4,Win32,62.05398697,Chrome,1280,800,,,,,0,684,,,,,,,,,,,,,,,,,132,U,hexagon,1,0,,,3,,,,,,,,,,,,,switch,number,numSwt,d,0.7363,vtsPrac,22,0,22,0,1,,,,,,,,,,,,,,,,,,,,,,,
297217,2022-12-06_10h21.34.707,vts_reward_expectancy_bt,2022.2.4,Win32,62.05398697,Chrome,1280,800,,,,,0,684,,,,,,,,,,,,,,,,,167,F,triangle,1,0,,,3,,,,,,,,,,,,,switch,letter,lettSwt,j,0.9777,vtsPrac,23,0,23,0,1,,,,,,,,,,,,,,,,,,,,,,,
297217,2022-12-06_10h21.34.707,vts_reward_expectancy_bt,2022.2.4,Win32,62.05398697,Chrome,1280,800,,,,,0,684,,,,,,,,,,,,,,,,,146,B,hexagon,1,0,,,3,,,,,,,,,,,,,switch,number,numSwt,d,0.7137,vtsPrac,24,0,24,0,1,,,,,,,,,,,,,,,,,,,,,,,
297217,2022-12-06_10h21.34.707,vts_reward_expectancy_bt,2022.2.4,Win32,62.05398697,Chrome,1280,800,,,,,0,684,,,,,,,,,,,,,,,,,160,U,circle,1,0,,,3,,,,,,,,,,,,,switch,letter,lettSwt,k,0.8798,vtsPrac,25,0,25,0,1,,,,,,,,,,,,,,,,,,,,,,,
297217,2022-12-06_10h21.34.707,vts_reward_expectancy_bt,2022.2.4,Win32,62.05398697,Chrome,1280,800,,,,,0,684,,,,,,,,,,,,,,,,,174,Y,circle,1,0,,,3,,,,,,,,,,,,,switch,number,numSwt,f,1.4524,vtsPrac,26,0,26,0,1,,,,,,,,,,,,,,,,,,,,,,,
297217,2022-12-06_10h21.34.707,vts_reward_expectancy_bt,2022.2.4,Win32,62.05398697,Chrome,1280,800,,,,,0,684,,,,,,,,,,,,,,,,,132,F,star,1,0,,,3,,,,,,,,,,,,,switch,letter,lettSwt,j,0.8457,vtsPrac,27,0,27,0,1,,,,,,,,,,,,,,,,,,,,,,,
297217,2022-12-06_10h21.34.707,vts_reward_expectancy_bt,2022.2.4,Win32,62.05398697,Chrome,1280,800,,,,,0,684,,,,,,,,,,,,,,,,,146,Y,star,1,0,,,3,,,,,,,,,,,,,repeat,letter,lettRpt,k,2.313,vtsPrac,28,0,28,0,1,,,,,,,,,,,,,,,,,,,,,,,
297217,2022-12-06_10h21.34.707,vts_reward_expectancy_bt,2022.2.4,Win32,62.05398697,Chrome,1280,800,,,,,0,684,,,,,,,,,,,,,,,,,160,D,triangle,0,0,,,3,,,,,,,,,,,,,switch,number,NA,d,0.752,vtsPrac,29,0,29,0,1,,,,,,,,,,,,,,,,,,,,,,,
297217,2022-12-06_10h21.34.707,vts_reward_expectancy_bt,2022.2.4,Win32,62.05398697,Chrome,1280,800,,,,,0,684,,,,,,,,,,,,,,,,,181,S,circle,1,1,,,3,,,,,,,,,,,,,switch,letter,lettSwt,k,1.469,vtsPrac,30,0,30,0,1,,,,,,,,,,,,,,,,,,,,,,,
297217,2022-12-06_10h21.34.707,vts_reward_expectancy_bt,2022.2.4,Win32,62.05398697,Chrome,1280,800,,,,,0,684,,,,,,,,,,,,,,,,,125,U,hexagon,1,0,,,3,,,,,,,,,,,,,switch,number,numSwt,d,1.2958,vtsPrac,31,0,31,0,1,,,,,,,,,,,,,,,,,,,,,,,
297217,2022-12-06_10h21.34.707,vts_reward_expectancy_bt,2022.2.4,Win32,62.05398697,Chrome,1280,800,,,,,0,684,,,,,,,,,,,,,,,,,139,D,circle,1,0,,,4,,,,,,,,,,,,,repeat,number,numRpt,d,0.8123,vtsPrac,0,0,0,0,1,,,,,,,,,,,,,,,,,,,,,,,
297217,2022-12-06_10h21.34.707,vts_reward_expectancy_bt,2022.2.4,Win32,62.05398697,Chrome,1280,800,,,,,0,684,,,,,,,,,,,,,,,,,125,F,triangle,0,0,,,4,,,,,,,,,,,,,switch,letter,NA,k,1.1098,vtsPrac,1,0,1,0,1,,,,,,,,,,,,,,,,,,,,,,,
297217,2022-12-06_10h21.34.707,vts_reward_expectancy_bt,2022.2.4,Win32,62.05398697,Chrome,1280,800,,,,,0,684,,,,,,,,,,,,,,,,,181,W,circle,1,1,,,4,,,,,,,,,,,,,switch,number,numSwt,f,0.4637,vtsPrac,2,0,2,0,1,,,,,,,,,,,,,,,,,,,,,,,
297217,2022-12-06_10h21.34.707,vts_reward_expectancy_bt,2022.2.4,Win32,62.05398697,Chrome,1280,800,,,,,0,684,,,,,,,,,,,,,,,,,132,H,triangle,1,0,,,4,,,,,,,,,,,,,switch,letter,lettSwt,j,1.3841,vtsPrac,3,0,3,0,1,,,,,,,,,,,,,,,,,,,,,,,
297217,2022-12-06_10h21.34.707,vts_reward_expectancy_bt,2022.2.4,Win32,62.05398697,Chrome,1280,800,,,,,0,684,,,,,,,,,,,,,,,,,139,D,star,1,0,,,4,,,,,,,,,,,,,switch,number,numSwt,d,0.7862,vtsPrac,4,0,4,0,1,,,,,,,,,,,,,,,,,,,,,,,
297217,2022-12-06_10h21.34.707,vts_reward_expectancy_bt,2022.2.4,Win32,62.05398697,Chrome,1280,800,,,,,0,684,,,,,,,,,,,,,,,,,125,F,triangle,1,0,,,4,,,,,,,,,,,,,switch,letter,lettSwt,j,0.8037,vtsPrac,5,0,5,0,1,,,,,,,,,,,,,,,,,,,,,,,
297217,2022-12-06_10h21.34.707,vts_reward_expectancy_bt,2022.2.4,Win32,62.05398697,Chrome,1280,800,,,,,0,684,,,,,,,,,,,,,,,,,181,W,hexagon,1,0,,,4,,,,,,,,,,,,,switch,number,numSwt,f,2.7021,vtsPrac,6,0,6,0,1,,,,,,,,,,,,,,,,,,,,,,,
297217,2022-12-06_10h21.34.707,vts_reward_expectancy_bt,2022.2.4,Win32,62.05398697,Chrome,1280,800,,,,,0,684,,,,,,,,,,,,,,,,,132,H,star,1,0,,,4,,,,,,,,,,,,,switch,letter,lettSwt,j,0.7486,vtsPrac,7,0,7,0,1,,,,,,,,,,,,,,,,,,,,,,,
297217,2022-12-06_10h21.34.707,vts_reward_expectancy_bt,2022.2.4,Win32,62.05398697,Chrome,1280,800,,,,,0,684,,,,,,,,,,,,,,,,,167,D,star,1,0,,,4,,,,,,,,,,,,,switch,number,numSwt,f,0.8513,vtsPrac,8,0,8,0,1,,,,,,,,,,,,,,,,,,,,,,,
297217,2022-12-06_10h21.34.707,vts_reward_expectancy_bt,2022.2.4,Win32,62.05398697,Chrome,1280,800,,,,,0,684,,,,,,,,,,,,,,,,,139,Y,circle,1,0,,,4,,,,,,,,,,,,,switch,letter,lettSwt,k,1.1543,vtsPrac,9,0,9,0,1,,,,,,,,,,,,,,,,,,,,,,,
297217,2022-12-06_10h21.34.707,vts_reward_expectancy_bt,2022.2.4,Win32,62.05398697,Chrome,1280,800,,,,,0,684,,,,,,,,,,,,,,,,,132,B,circle,1,0,,,4,,,,,,,,,,,,,switch,number,numSwt,d,0.437,vtsPrac,10,0,10,0,1,,,,,,,,,,,,,,,,,,,,,,,
297217,2022-12-06_10h21.34.707,vts_reward_expectancy_bt,2022.2.4,Win32,62.05398697,Chrome,1280,800,,,,,0,684,,,,,,,,,,,,,,,,,181,H,star,1,0,,,4,,,,,,,,,,,,,switch,letter,lettSwt,j,0.5849,vtsPrac,11,0,11,0,1,,,,,,,,,,,,,,,,,,,,,,,
297217,2022-12-06_10h21.34.707,vts_reward_expectancy_bt,2022.2.4,Win32,62.05398697,Chrome,1280,800,,,,,0,684,,,,,,,,,,,,,,,,,146,B,hexagon,1,0,,,4,,,,,,,,,,,,,switch,number,numSwt,d,0.9969,vtsPrac,12,0,12,0,1,,,,,,,,,,,,,,,,,,,,,,,
297217,2022-12-06_10h21.34.707,vts_reward_expectancy_bt,2022.2.4,Win32,62.05398697,Chrome,1280,800,,,,,0,684,,,,,,,,,,,,,,,,,167,U,triangle,1,0,,,4,,,,,,,,,,,,,switch,letter,lettSwt,k,0.5375,vtsPrac,13,0,13,0,1,,,,,,,,,,,,,,,,,,,,,,,
297217,2022-12-06_10h21.34.707,vts_reward_expectancy_bt,2022.2.4,Win32,62.05398697,Chrome,1280,800,,,,,0,684,,,,,,,,,,,,,,,,,125,S,star,1,0,,,4,,,,,,,,,,,,,switch,number,numSwt,d,0.4222,vtsPrac,14,0,14,0,1,,,,,,,,,,,,,,,,,,,,,,,
297217,2022-12-06_10h21.34.707,vts_reward_expectancy_bt,2022.2.4,Win32,62.05398697,Chrome,1280,800,,,,,0,684,,,,,,,,,,,,,,,,,174,F,triangle,1,0,,,4,,,,,,,,,,,,,switch,letter,lettSwt,j,0.7807,vtsPrac,15,0,15,0,1,,,,,,,,,,,,,,,,,,,,,,,
297217,2022-12-06_10h21.34.707,vts_reward_expectancy_bt,2022.2.4,Win32,62.05398697,Chrome,1280,800,,,,,0,684,,,,,,,,,,,,,,,,,125,B,star,1,0,,,4,,,,,,,,,,,,,switch,number,numSwt,d,0.5842,vtsPrac,16,0,16,0,1,,,,,,,,,,,,,,,,,,,,,,,
297217,2022-12-06_10h21.34.707,vts_reward_expectancy_bt,2022.2.4,Win32,62.05398697,Chrome,1280,800,,,,,0,684,,,,,,,,,,,,,,,,,174,F,circle,1,0,,,4,,,,,,,,,,,,,switch,letter,lettSwt,j,0.7627,vtsPrac,17,0,17,0,1,,,,,,,,,,,,,,,,,,,,,,,
297217,2022-12-06_10h21.34.707,vts_reward_expectancy_bt,2022.2.4,Win32,62.05398697,Chrome,1280,800,,,,,0,684,,,,,,,,,,,,,,,,,132,H,triangle,1,0,,,4,,,,,,,,,,,,,switch,number,numSwt,d,0.5358,vtsPrac,18,0,18,0,1,,,,,,,,,,,,,,,,,,,,,,,
297217,2022-12-06_10h21.34.707,vts_reward_expectancy_bt,2022.2.4,Win32,62.05398697,Chrome,1280,800,,,,,0,684,,,,,,,,,,,,,,,,,146,W,star,1,0,,,4,,,,,,,,,,,,,switch,letter,lettSwt,k,1.0689,vtsPrac,19,0,19,0,1,,,,,,,,,,,,,,,,,,,,,,,
297217,2022-12-06_10h21.34.707,vts_reward_expectancy_bt,2022.2.4,Win32,62.05398697,Chrome,1280,800,,,,,0,684,,,,,,,,,,,,,,,,,174,B,star,1,0,,,4,,,,,,,,,,,,,switch,number,numSwt,f,0.5825,vtsPrac,20,0,20,0,1,,,,,,,,,,,,,,,,,,,,,,,
297217,2022-12-06_10h21.34.707,vts_reward_expectancy_bt,2022.2.4,Win32,62.05398697,Chrome,1280,800,,,,,0,684,,,,,,,,,,,,,,,,,125,F,hexagon,1,0,,,4,,,,,,,,,,,,,switch,letter,lettSwt,j,1.2291,vtsPrac,21,0,21,0,1,,,,,,,,,,,,,,,,,,,,,,,
297217,2022-12-06_10h21.34.707,vts_reward_expectancy_bt,2022.2.4,Win32,62.05398697,Chrome,1280,800,,,,,0,684,,,,,,,,,,,,,,,,,139,Y,hexagon,1,0,,,4,,,,,,,,,,,,,switch,number,numSwt,d,0.5187,vtsPrac,22,0,22,0,1,,,,,,,,,,,,,,,,,,,,,,,
297217,2022-12-06_10h21.34.707,vts_reward_expectancy_bt,2022.2.4,Win32,62.05398697,Chrome,1280,800,,,,,0,684,,,,,,,,,,,,,,,,,146,W,star,1,0,,,4,,,,,,,,,,,,,switch,letter,lettSwt,k,0.8185,vtsPrac,23,0,23,0,1,,,,,,,,,,,,,,,,,,,,,,,
297217,2022-12-06_10h21.34.707,vts_reward_expectancy_bt,2022.2.4,Win32,62.05398697,Chrome,1280,800,,,,,0,684,,,,,,,,,,,,,,,,,146,Y,star,1,0,,,4,,,,,,,,,,,,,switch,number,numSwt,d,0.5717,vtsPrac,24,0,24,0,1,,,,,,,,,,,,,,,,,,,,,,,
297217,2022-12-06_10h21.34.707,vts_reward_expectancy_bt,2022.2.4,Win32,62.05398697,Chrome,1280,800,,,,,0,684,,,,,,,,,,,,,,,,,160,U,triangle,1,0,,,4,,,,,,,,,,,,,switch,letter,lettSwt,k,0.6993,vtsPrac,25,0,25,0,1,,,,,,,,,,,,,,,,,,,,,,,
297217,2022-12-06_10h21.34.707,vts_reward_expectancy_bt,2022.2.4,Win32,62.05398697,Chrome,1280,800,,,,,0,684,,,,,,,,,,,,,,,,,139,W,circle,1,0,,,4,,,,,,,,,,,,,switch,number,numSwt,d,0.6042,vtsPrac,26,0,26,0,1,,,,,,,,,,,,,,,,,,,,,,,
297217,2022-12-06_10h21.34.707,vts_reward_expectancy_bt,2022.2.4,Win32,62.05398697,Chrome,1280,800,,,,,0,684,,,,,,,,,,,,,,,,,174,D,hexagon,1,0,,,4,,,,,,,,,,,,,switch,letter,lettSwt,j,0.8386,vtsPrac,27,0,27,0,1,,,,,,,,,,,,,,,,,,,,,,,
297217,2022-12-06_10h21.34.707,vts_reward_expectancy_bt,2022.2.4,Win32,62.05398697,Chrome,1280,800,,,,,0,684,,,,,,,,,,,,,,,,,146,D,star,1,0,,,4,,,,,,,,,,,,,switch,number,numSwt,d,0.5981,vtsPrac,28,0,28,0,1,,,,,,,,,,,,,,,,,,,,,,,
297217,2022-12-06_10h21.34.707,vts_reward_expectancy_bt,2022.2.4,Win32,62.05398697,Chrome,1280,800,,,,,0,684,,,,,,,,,,,,,,,,,160,H,hexagon,1,0,,,4,,,,,,,,,,,,,switch,letter,lettSwt,j,0.8117,vtsPrac,29,0,29,0,1,,,,,,,,,,,,,,,,,,,,,,,
297217,2022-12-06_10h21.34.707,vts_reward_expectancy_bt,2022.2.4,Win32,62.05398697,Chrome,1280,800,,,,,0,684,,,,,,,,,,,,,,,,,167,B,triangle,1,0,,,4,,,,,,,,,,,,,switch,number,numSwt,f,0.9134,vtsPrac,30,0,30,0,1,,,,,,,,,,,,,,,,,,,,,,,
297217,2022-12-06_10h21.34.707,vts_reward_expectancy_bt,2022.2.4,Win32,62.05398697,Chrome,1280,800,,,,,0,684,,,,,,,,,,,,,,,,,181,W,circle,1,0,,,4,,,,,,,,,,,,,switch,letter,lettSwt,k,0.7182,vtsPrac,31,0,31,0,1,,,,,,,,,,,,,,,,,,,,,,,
297217,2022-12-06_10h21.34.707,vts_reward_expectancy_bt,2022.2.4,Win32,62.05398697,Chrome,1280,800,,,,,,,,,,,,,,,,,,,,,,,,,,,,,,,,,,,,,,,,,,,,,,,,,,,,,,,,,,,,,,,,,,,,,,,,,,,,
297217,2022-12-06_10h21.34.707,vts_reward_expectancy_bt,2022.2.4,Win32,62.05398697,Chrome,1280,800,,,,,,,,,,,,,,,,,,,,,,,,,,,,,,,,,,,,,,,,,,,,,,,,,,,,,,,,,,,,,,,,,,,,,,,,,,,,
297217,2022-12-06_10h21.34.707,vts_reward_expectancy_bt,2022.2.4,Win32,62.05398697,Chrome,1280,800,,,,,0,684,,,,,,,,,,,,,,,,,167,B,circle,-1,0,,,,,,,,,,,,,,,,switch,no_choice,NA,,,noRew,,,,,,0,0,0,0,0,1,,,,,,,,,,,,,,,,,
297217,2022-12-06_10h21.34.707,vts_reward_expectancy_bt,2022.2.4,Win32,62.05398697,Chrome,1280,800,,,,,0,684,,,,,,,,,,,,,,,,,146,D,hexagon,1,0,,,,,,,,,,,,,,,,switch,letter,lettSwt,j,1.3136,noRew,,,,,,0,1,0,1,0,1,,,,,,,,,,,,,,,,,
297217,2022-12-06_10h21.34.707,vts_reward_expectancy_bt,2022.2.4,Win32,62.05398697,Chrome,1280,800,,,,,0,684,,,,,,,,,,,,,,,,,139,W,circle,1,0,,,,,,,,,,,,,,,,repeat,letter,lettRpt,k,0.9661,noRew,,,,,,0,2,0,2,0,1,,,,,,,,,,,,,,,,,
297217,2022-12-06_10h21.34.707,vts_reward_expectancy_bt,2022.2.4,Win32,62.05398697,Chrome,1280,800,,,,,0,684,,,,,,,,,,,,,,,,,132,S,hexagon,1,0,,,,,,,,,,,,,,,,switch,number,numSwt,d,1.578,noRew,,,,,,0,3,0,3,0,1,,,,,,,,,,,,,,,,,
297217,2022-12-06_10h21.34.707,vts_reward_expectancy_bt,2022.2.4,Win32,62.05398697,Chrome,1280,800,,,,,0,684,,,,,,,,,,,,,,,,,167,B,hexagon,1,0,,,,,,,,,,,,,,,,switch,letter,lettSwt,j,2.012,noRew,,,,,,0,4,0,4,0,1,,,,,,,,,,,,,,,,,
297217,2022-12-06_10h21.34.707,vts_reward_expectancy_bt,2022.2.4,Win32,62.05398697,Chrome,1280,800,,,,,0,684,,,,,,,,,,,,,,,,,146,D,triangle,0,0,,,,,,,,,,,,,,,,repeat,letter,NA,k,0.631,noRew,,,,,,0,5,0,5,0,1,,,,,,,,,,,,,,,,,
297217,2022-12-06_10h21.34.707,vts_reward_expectancy_bt,2022.2.4,Win32,62.05398697,Chrome,1280,800,,,,,0,684,,,,,,,,,,,,,,,,,139,W,hexagon,1,1,,,,,,,,,,,,,,,,switch,number,numSwt,d,1.1031,noRew,,,,,,0,6,0,6,0,1,,,,,,,,,,,,,,,,,
297217,2022-12-06_10h21.34.707,vts_reward_expectancy_bt,2022.2.4,Win32,62.05398697,Chrome,1280,800,,,,,0,684,,,,,,,,,,,,,,,,,132,S,star,1,0,,,,,,,,,,,,,,,,repeat,number,numRpt,d,0.5635,noRew,,,,,,0,7,0,7,0,1,,,,,,,,,,,,,,,,,
297217,2022-12-06_10h21.34.707,vts_reward_expectancy_bt,2022.2.4,Win32,62.05398697,Chrome,1280,800,,,,,0,684,,,,,,,,,,,,,,,,,160,B,triangle,0,0,,,,,,,,,,,,,,,,switch,letter,NA,k,0.6801,noRew,,,,,,0,8,0,8,0,1,,,,,,,,,,,,,,,,,
297217,2022-12-06_10h21.34.707,vts_reward_expectancy_bt,2022.2.4,Win32,62.05398697,Chrome,1280,800,,,,,0,684,,,,,,,,,,,,,,,,,139,U,circle,1,1,,,,,,,,,,,,,,,,switch,number,numSwt,d,0.9798,noRew,,,,,,0,9,0,9,0,1,,,,,,,,,,,,,,,,,
297217,2022-12-06_10h21.34.707,vts_reward_expectancy_bt,2022.2.4,Win32,62.05398697,Chrome,1280,800,,,,,0,684,,,,,,,,,,,,,,,,,132,H,circle,1,0,,,,,,,,,,,,,,,,repeat,number,numRpt,d,1.2667,noRew,,,,,,0,10,0,10,0,1,,,,,,,,,,,,,,,,,
297217,2022-12-06_10h21.34.707,vts_reward_expectancy_bt,2022.2.4,Win32,62.05398697,Chrome,1280,800,,,,,0,684,,,,,,,,,,,,,,,,,125,S,star,1,0,,,,,,,,,,,,,,,,repeat,number,numRpt,d,0.7458,noRew,,,,,,0,11,0,11,0,1,,,,,,,,,,,,,,,,,
297217,2022-12-06_10h21.34.707,vts_reward_expectancy_bt,2022.2.4,Win32,62.05398697,Chrome,1280,800,,,,,0,684,,,,,,,,,,,,,,,,,167,U,hexagon,1,0,,,,,,,,,,,,,,,,switch,letter,lettSwt,k,0.8296,noRew,,,,,,0,12,0,12,0,1,,,,,,,,,,,,,,,,,
297217,2022-12-06_10h21.34.707,vts_reward_expectancy_bt,2022.2.4,Win32,62.05398697,Chrome,1280,800,,,,,0,684,,,,,,,,,,,,,,,,,174,Y,triangle,1,0,,,,,,,,,,,,,,,,switch,number,numSwt,f,1.0473,noRew,,,,,,0,13,0,13,0,1,,,,,,,,,,,,,,,,,
297217,2022-12-06_10h21.34.707,vts_reward_expectancy_bt,2022.2.4,Win32,62.05398697,Chrome,1280,800,,,,,0,684,,,,,,,,,,,,,,,,,125,W,hexagon,1,0,,,,,,,,,,,,,,,,switch,letter,lettSwt,k,0.9037,noRew,,,,,,0,14,0,14,0,1,,,,,,,,,,,,,,,,,
297217,2022-12-06_10h21.34.707,vts_reward_expectancy_bt,2022.2.4,Win32,62.05398697,Chrome,1280,800,,,,,0,684,,,,,,,,,,,,,,,,,160,F,circle,0,0,,,,,,,,,,,,,,,,repeat,letter,NA,k,0.5635,noRew,,,,,,0,15,0,15,0,1,,,,,,,,,,,,,,,,,
297217,2022-12-06_10h21.34.707,vts_reward_expectancy_bt,2022.2.4,Win32,62.05398697,Chrome,1280,800,,,,,0,684,,,,,,,,,,,,,,,,,146,F,hexagon,1,1,,,,,,,,,,,,,,,,switch,number,numSwt,d,0.6041,noRew,,,,,,0,16,0,16,0,1,,,,,,,,,,,,,,,,,
297217,2022-12-06_10h21.34.707,vts_reward_expectancy_bt,2022.2.4,Win32,62.05398697,Chrome,1280,800,,,,,0,684,,,,,,,,,,,,,,,,,181,B,triangle,1,0,,,,,,,,,,,,,,,,switch,letter,lettSwt,j,1.0804,noRew,,,,,,0,17,0,17,0,1,,,,,,,,,,,,,,,,,
297217,2022-12-06_10h21.34.707,vts_reward_expectancy_bt,2022.2.4,Win32,62.05398697,Chrome,1280,800,,,,,0,684,,,,,,,,,,,,,,,,,167,Y,hexagon,1,0,,,,,,,,,,,,,,,,switch,number,numSwt,f,0.781,noRew,,,,,,0,18,0,18,0,1,,,,,,,,,,,,,,,,,
297217,2022-12-06_10h21.34.707,vts_reward_expectancy_bt,2022.2.4,Win32,62.05398697,Chrome,1280,800,,,,,0,684,,,,,,,,,,,,,,,,,132,D,triangle,1,0,,,,,,,,,,,,,,,,repeat,number,numRpt,d,0.771,noRew,,,,,,0,19,0,19,0,1,,,,,,,,,,,,,,,,,
297217,2022-12-06_10h21.34.707,vts_reward_expectancy_bt,2022.2.4,Win32,62.05398697,Chrome,1280,800,,,,,0,684,,,,,,,,,,,,,,,,,125,H,star,1,0,,,,,,,,,,,,,,,,repeat,number,numRpt,d,0.7078,noRew,,,,,,0,20,0,20,0,1,,,,,,,,,,,,,,,,,
297217,2022-12-06_10h21.34.707,vts_reward_expectancy_bt,2022.2.4,Win32,62.05398697,Chrome,1280,800,,,,,0,684,,,,,,,,,,,,,,,,,160,S,circle,1,0,,,,,,,,,,,,,,,,switch,letter,lettSwt,k,0.5967,noRew,,,,,,0,21,0,21,0,1,,,,,,,,,,,,,,,,,
297217,2022-12-06_10h21.34.707,vts_reward_expectancy_bt,2022.2.4,Win32,62.05398697,Chrome,1280,800,,,,,0,684,,,,,,,,,,,,,,,,,146,F,circle,1,0,,,,,,,,,,,,,,,,repeat,letter,lettRpt,j,0.8773,noRew,,,,,,0,22,0,22,0,1,,,,,,,,,,,,,,,,,
297217,2022-12-06_10h21.34.707,vts_reward_expectancy_bt,2022.2.4,Win32,62.05398697,Chrome,1280,800,,,,,0,684,,,,,,,,,,,,,,,,,174,B,triangle,1,0,,,,,,,,,,,,,,,,repeat,letter,lettRpt,j,0.6139,noRew,,,,,,0,23,0,23,0,1,,,,,,,,,,,,,,,,,
297217,2022-12-06_10h21.34.707,vts_reward_expectancy_bt,2022.2.4,Win32,62.05398697,Chrome,1280,800,,,,,0,684,,,,,,,,,,,,,,,,,146,H,hexagon,1,0,,,,,,,,,,,,,,,,switch,number,numSwt,d,1.231,noRew,,,,,,0,24,0,24,0,1,,,,,,,,,,,,,,,,,
297217,2022-12-06_10h21.34.707,vts_reward_expectancy_bt,2022.2.4,Win32,62.05398697,Chrome,1280,800,,,,,0,684,,,,,,,,,,,,,,,,,132,Y,star,1,0,,,,,,,,,,,,,,,,switch,letter,lettSwt,k,1.5852,noRew,,,,,,0,25,0,25,0,1,,,,,,,,,,,,,,,,,
297217,2022-12-06_10h21.34.707,vts_reward_expectancy_bt,2022.2.4,Win32,62.05398697,Chrome,1280,800,,,,,0,684,,,,,,,,,,,,,,,,,160,S,star,1,0,,,,,,,,,,,,,,,,repeat,letter,lettRpt,k,1.1318,noRew,,,,,,0,26,0,26,0,1,,,,,,,,,,,,,,,,,
297217,2022-12-06_10h21.34.707,vts_reward_expectancy_bt,2022.2.4,Win32,62.05398697,Chrome,1280,800,,,,,0,684,,,,,,,,,,,,,,,,,125,D,circle,1,0,,,,,,,,,,,,,,,,switch,number,numSwt,d,0.7291,noRew,,,,,,0,27,0,27,0,1,,,,,,,,,,,,,,,,,
297217,2022-12-06_10h21.34.707,vts_reward_expectancy_bt,2022.2.4,Win32,62.05398697,Chrome,1280,800,,,,,0,684,,,,,,,,,,,,,,,,,160,W,hexagon,1,0,,,,,,,,,,,,,,,,switch,letter,lettSwt,k,0.6493,noRew,,,,,,0,28,0,28,0,1,,,,,,,,,,,,,,,,,
297217,2022-12-06_10h21.34.707,vts_reward_expectancy_bt,2022.2.4,Win32,62.05398697,Chrome,1280,800,,,,,0,684,,,,,,,,,,,,,,,,,167,F,circle,1,0,,,,,,,,,,,,,,,,repeat,letter,lettRpt,j,1.1474,noRew,,,,,,0,29,0,29,0,1,,,,,,,,,,,,,,,,,
297217,2022-12-06_10h21.34.707,vts_reward_expectancy_bt,2022.2.4,Win32,62.05398697,Chrome,1280,800,,,,,0,684,,,,,,,,,,,,,,,,,146,B,hexagon,1,0,,,,,,,,,,,,,,,,repeat,letter,lettRpt,j,0.8808,noRew,,,,,,0,30,0,30,0,1,,,,,,,,,,,,,,,,,
297217,2022-12-06_10h21.34.707,vts_reward_expectancy_bt,2022.2.4,Win32,62.05398697,Chrome,1280,800,,,,,0,684,,,,,,,,,,,,,,,,,139,Y,star,1,0,,,,,,,,,,,,,,,,switch,number,numSwt,d,1.3699,noRew,,,,,,0,31,0,31,0,1,,,,,,,,,,,,,,,,,
297217,2022-12-06_10h21.34.707,vts_reward_expectancy_bt,2022.2.4,Win32,62.05398697,Chrome,1280,800,,,,,0,684,,,,,,,,,,,,,,,,,125,W,hexagon,1,0,,,,,,,,,,,,,,,,switch,letter,lettSwt,k,0.716,noRew,,,,,,0,32,0,32,0,1,,,,,,,,,,,,,,,,,
297217,2022-12-06_10h21.34.707,vts_reward_expectancy_bt,2022.2.4,Win32,62.05398697,Chrome,1280,800,,,,,0,684,,,,,,,,,,,,,,,,,139,S,star,1,0,,,,,,,,,,,,,,,,switch,number,numSwt,d,1.2976,noRew,,,,,,0,33,0,33,0,1,,,,,,,,,,,,,,,,,
297217,2022-12-06_10h21.34.707,vts_reward_expectancy_bt,2022.2.4,Win32,62.05398697,Chrome,1280,800,,,,,0,684,,,,,,,,,,,,,,,,,132,Y,hexagon,1,0,,,,,,,,,,,,,,,,repeat,number,numRpt,d,0.6825,noRew,,,,,,0,34,0,34,0,1,,,,,,,,,,,,,,,,,
297217,2022-12-06_10h21.34.707,vts_reward_expectancy_bt,2022.2.4,Win32,62.05398697,Chrome,1280,800,,,,,0,684,,,,,,,,,,,,,,,,,174,B,triangle,1,0,,,,,,,,,,,,,,,,repeat,number,numRpt,f,0.7339,noRew,,,,,,0,35,0,35,0,1,,,,,,,,,,,,,,,,,
297217,2022-12-06_10h21.34.707,vts_reward_expectancy_bt,2022.2.4,Win32,62.05398697,Chrome,1280,800,,,,,0,684,,,,,,,,,,,,,,,,,181,U,hexagon,1,0,,,,,,,,,,,,,,,,switch,letter,lettSwt,k,0.6988,noRew,,,,,,0,36,0,36,0,1,,,,,,,,,,,,,,,,,
297217,2022-12-06_10h21.34.707,vts_reward_expectancy_bt,2022.2.4,Win32,62.05398697,Chrome,1280,800,,,,,0,684,,,,,,,,,,,,,,,,,167,W,star,1,0,,,,,,,,,,,,,,,,switch,number,numSwt,f,1.0466,noRew,,,,,,0,37,0,37,0,1,,,,,,,,,,,,,,,,,
297217,2022-12-06_10h21.34.707,vts_reward_expectancy_bt,2022.2.4,Win32,62.05398697,Chrome,1280,800,,,,,0,684,,,,,,,,,,,,,,,,,132,B,triangle,1,0,,,,,,,,,,,,,,,,switch,letter,lettSwt,j,1.6436,noRew,,,,,,0,38,0,38,0,1,,,,,,,,,,,,,,,,,
297217,2022-12-06_10h21.34.707,vts_reward_expectancy_bt,2022.2.4,Win32,62.05398697,Chrome,1280,800,,,,,0,684,,,,,,,,,,,,,,,,,125,Y,hexagon,1,0,,,,,,,,,,,,,,,,repeat,letter,lettRpt,k,0.8012,noRew,,,,,,0,39,0,39,0,1,,,,,,,,,,,,,,,,,
297217,2022-12-06_10h21.34.707,vts_reward_expectancy_bt,2022.2.4,Win32,62.05398697,Chrome,1280,800,,,,,0,684,,,,,,,,,,,,,,,,,139,B,star,1,0,,,,,,,,,,,,,,,,switch,number,numSwt,d,0.847,noRew,,,,,,0,40,0,40,0,1,,,,,,,,,,,,,,,,,
297217,2022-12-06_10h21.34.707,vts_reward_expectancy_bt,2022.2.4,Win32,62.05398697,Chrome,1280,800,,,,,0,684,,,,,,,,,,,,,,,,,167,S,hexagon,1,0,,,,,,,,,,,,,,,,switch,letter,lettSwt,k,1.0933,noRew,,,,,,0,41,0,41,0,1,,,,,,,,,,,,,,,,,
297217,2022-12-06_10h21.34.707,vts_reward_expectancy_bt,2022.2.4,Win32,62.05398697,Chrome,1280,800,,,,,0,684,,,,,,,,,,,,,,,,,160,H,star,1,0,,,,,,,,,,,,,,,,switch,number,numSwt,f,1.1952,noRew,,,,,,0,42,0,42,0,1,,,,,,,,,,,,,,,,,
297217,2022-12-06_10h21.34.707,vts_reward_expectancy_bt,2022.2.4,Win32,62.05398697,Chrome,1280,800,,,,,0,684,,,,,,,,,,,,,,,,,181,W,hexagon,0,0,,,,,,,,,,,,,,,,repeat,number,NA,d,1.6477,noRew,,,,,,0,43,0,43,0,1,,,,,,,,,,,,,,,,,
297217,2022-12-06_10h21.34.707,vts_reward_expectancy_bt,2022.2.4,Win32,62.05398697,Chrome,1280,800,,,,,0,684,,,,,,,,,,,,,,,,,132,D,hexagon,1,1,,,,,,,,,,,,,,,,switch,letter,lettSwt,j,2.4833,noRew,,,,,,0,44,0,44,0,1,,,,,,,,,,,,,,,,,
297217,2022-12-06_10h21.34.707,vts_reward_expectancy_bt,2022.2.4,Win32,62.05398697,Chrome,1280,800,,,,,0,684,,,,,,,,,,,,,,,,,181,U,star,1,0,,,,,,,,,,,,,,,,switch,number,numSwt,f,0.9667,noRew,,,,,,0,45,0,45,0,1,,,,,,,,,,,,,,,,,
297217,2022-12-06_10h21.34.707,vts_reward_expectancy_bt,2022.2.4,Win32,62.05398697,Chrome,1280,800,,,,,0,684,,,,,,,,,,,,,,,,,174,F,triangle,1,0,,,,,,,,,,,,,,,,repeat,number,numRpt,f,1.3601,noRew,,,,,,0,46,0,46,0,1,,,,,,,,,,,,,,,,,
297217,2022-12-06_10h21.34.707,vts_reward_expectancy_bt,2022.2.4,Win32,62.05398697,Chrome,1280,800,,,,,0,684,,,,,,,,,,,,,,,,,167,H,circle,1,0,,,,,,,,,,,,,,,,switch,letter,lettSwt,j,1.2296,noRew,,,,,,0,47,0,47,0,1,,,,,,,,,,,,,,,,,
297217,2022-12-06_10h21.34.707,vts_reward_expectancy_bt,2022.2.4,Win32,62.05398697,Chrome,1280,800,,,,,0,684,,,,,,,,,,,,,,,,,181,H,circle,1,0,,,,,,,,,,,,,,,,switch,number,numSwt,f,0.5977,noRew,,,,,,0,48,0,48,0,1,,,,,,,,,,,,,,,,,
297217,2022-12-06_10h21.34.707,vts_reward_expectancy_bt,2022.2.4,Win32,62.05398697,Chrome,1280,800,,,,,0,684,,,,,,,,,,,,,,,,,132,Y,triangle,1,0,,,,,,,,,,,,,,,,repeat,number,numRpt,d,0.6176,noRew,,,,,,0,49,0,49,0,1,,,,,,,,,,,,,,,,,
297217,2022-12-06_10h21.34.707,vts_reward_expectancy_bt,2022.2.4,Win32,62.05398697,Chrome,1280,800,,,,,0,684,,,,,,,,,,,,,,,,,167,W,hexagon,1,0,,,,,,,,,,,,,,,,switch,letter,lettSwt,k,0.5978,noRew,,,,,,0,50,0,50,0,1,,,,,,,,,,,,,,,,,
297217,2022-12-06_10h21.34.707,vts_reward_expectancy_bt,2022.2.4,Win32,62.05398697,Chrome,1280,800,,,,,0,684,,,,,,,,,,,,,,,,,174,D,star,1,0,,,,,,,,,,,,,,,,switch,number,numSwt,f,0.7621,noRew,,,,,,0,51,0,51,0,1,,,,,,,,,,,,,,,,,
297217,2022-12-06_10h21.34.707,vts_reward_expectancy_bt,2022.2.4,Win32,62.05398697,Chrome,1280,800,,,,,0,684,,,,,,,,,,,,,,,,,139,S,hexagon,1,0,,,,,,,,,,,,,,,,switch,letter,lettSwt,k,0.8783,noRew,,,,,,0,52,0,52,0,1,,,,,,,,,,,,,,,,,
297217,2022-12-06_10h21.34.707,vts_reward_expectancy_bt,2022.2.4,Win32,62.05398697,Chrome,1280,800,,,,,0,684,,,,,,,,,,,,,,,,,132,U,star,1,0,,,,,,,,,,,,,,,,switch,number,numSwt,d,1.564,noRew,,,,,,0,53,0,53,0,1,,,,,,,,,,,,,,,,,
297217,2022-12-06_10h21.34.707,vts_reward_expectancy_bt,2022.2.4,Win32,62.05398697,Chrome,1280,800,,,,,0,684,,,,,,,,,,,,,,,,,174,F,star,1,0,,,,,,,,,,,,,,,,switch,letter,lettSwt,j,1.1797,noRew,,,,,,0,54,0,54,0,1,,,,,,,,,,,,,,,,,
297217,2022-12-06_10h21.34.707,vts_reward_expectancy_bt,2022.2.4,Win32,62.05398697,Chrome,1280,800,,,,,0,684,,,,,,,,,,,,,,,,,181,H,circle,1,0,,,,,,,,,,,,,,,,switch,number,numSwt,f,1.2313,noRew,,,,,,0,55,0,55,0,1,,,,,,,,,,,,,,,,,
297217,2022-12-06_10h21.34.707,vts_reward_expectancy_bt,2022.2.4,Win32,62.05398697,Chrome,1280,800,,,,,0,684,,,,,,,,,,,,,,,,,160,B,circle,1,0,,,,,,,,,,,,,,,,repeat,number,numRpt,f,1.1973,noRew,,,,,,0,56,0,56,0,1,,,,,,,,,,,,,,,,,
297217,2022-12-06_10h21.34.707,vts_reward_expectancy_bt,2022.2.4,Win32,62.05398697,Chrome,1280,800,,,,,0,684,,,,,,,,,,,,,,,,,174,Y,hexagon,1,0,,,,,,,,,,,,,,,,switch,letter,lettSwt,k,0.6313,noRew,,,,,,0,57,0,57,0,1,,,,,,,,,,,,,,,,,
297217,2022-12-06_10h21.34.707,vts_reward_expectancy_bt,2022.2.4,Win32,62.05398697,Chrome,1280,800,,,,,0,684,,,,,,,,,,,,,,,,,181,W,hexagon,1,0,,,,,,,,,,,,,,,,repeat,letter,lettRpt,k,1.1693,noRew,,,,,,0,58,0,58,0,1,,,,,,,,,,,,,,,,,
297217,2022-12-06_10h21.34.707,vts_reward_expectancy_bt,2022.2.4,Win32,62.05398697,Chrome,1280,800,,,,,0,684,,,,,,,,,,,,,,,,,167,U,circle,1,0,,,,,,,,,,,,,,,,repeat,letter,lettRpt,k,0.5492,noRew,,,,,,0,59,0,59,0,1,,,,,,,,,,,,,,,,,
297217,2022-12-06_10h21.34.707,vts_reward_expectancy_bt,2022.2.4,Win32,62.05398697,Chrome,1280,800,,,,,0,684,,,,,,,,,,,,,,,,,160,H,hexagon,1,0,,,,,,,,,,,,,,,,switch,number,numSwt,f,0.6817,noRew,,,,,,0,60,0,60,0,1,,,,,,,,,,,,,,,,,
297217,2022-12-06_10h21.34.707,vts_reward_expectancy_bt,2022.2.4,Win32,62.05398697,Chrome,1280,800,,,,,0,684,,,,,,,,,,,,,,,,,139,D,triangle,1,0,,,,,,,,,,,,,,,,repeat,number,numRpt,d,0.6283,noRew,,,,,,0,61,0,61,0,1,,,,,,,,,,,,,,,,,
297217,2022-12-06_10h21.34.707,vts_reward_expectancy_bt,2022.2.4,Win32,62.05398697,Chrome,1280,800,,,,,0,684,,,,,,,,,,,,,,,,,125,Y,hexagon,1,0,,,,,,,,,,,,,,,,repeat,number,numRpt,d,0.9262,noRew,,,,,,0,62,0,62,0,1,,,,,,,,,,,,,,,,,
297217,2022-12-06_10h21.34.707,vts_reward_expectancy_bt,2022.2.4,Win32,62.05398697,Chrome,1280,800,,,,,0,684,,,,,,,,,,,,,,,,,181,W,triangle,1,0,,,,,,,,,,,,,,,,switch,letter,lettSwt,k,0.4948,noRew,,,,,,0,63,0,63,0,1,,,,,,,,,,,,,,,,,
297217,2022-12-06_10h21.34.707,vts_reward_expectancy_bt,2022.2.4,Win32,62.05398697,Chrome,1280,800,,,,,,,,,,,,,,,,,,,,,,,,,,,,,,,,,,,,,,,,,,,,,,,,,,,,,,,,,,,,,,,,,,,,,,,,,,,,
297217,2022-12-06_10h21.34.707,vts_reward_expectancy_bt,2022.2.4,Win32,62.05398697,Chrome,1280,800,,,,,1,685,,,,,,,,,,,,,,,,,139,S,star,1,0,,,,,,,,,,,,,,,,switch,number,numSwt,d,1.314,Lo,,,,,,0,,,,,,space,7.0362,high,0,0,0,0,1,,,,,,,,,
297217,2022-12-06_10h21.34.707,vts_reward_expectancy_bt,2022.2.4,Win32,62.05398697,Chrome,1280,800,,,,,0,685,,,,,,,,,,,,,,,,,132,F,hexagon,1,0,,,,,,,,,,,,,,,,switch,letter,lettSwt,j,1.3939,Hi,,,,,,0,,,,,,,,high,1,0,1,0,1,,,,,,,,,
297217,2022-12-06_10h21.34.707,vts_reward_expectancy_bt,2022.2.4,Win32,62.05398697,Chrome,1280,800,,,,,0,685,,,,,,,,,,,,,,,,,160,D,triangle,1,0,,,,,,,,,,,,,,,,switch,number,numSwt,f,0.9514,Hi,,,,,,0,,,,,,,,high,2,0,2,0,1,,,,,,,,,
297217,2022-12-06_10h21.34.707,vts_reward_expectancy_bt,2022.2.4,Win32,62.05398697,Chrome,1280,800,,,,,1,686,,,,,,,,,,,,,,,,,181,U,circle,1,0,,,,,,,,,,,,,,,,repeat,number,numRpt,f,0.6126,Lo,,,,,,0,,,,,,,,high,3,0,3,0,1,,,,,,,,,
297217,2022-12-06_10h21.34.707,vts_reward_expectancy_bt,2022.2.4,Win32,62.05398697,Chrome,1280,800,,,,,1,687,,,,,,,,,,,,,,,,,146,W,star,1,0,,,,,,,,,,,,,,,,switch,letter,lettSwt,k,0.539,Lo,,,,,,0,,,,,,,,high,4,0,4,0,1,,,,,,,,,
297217,2022-12-06_10h21.34.707,vts_reward_expectancy_bt,2022.2.4,Win32,62.05398697,Chrome,1280,800,,,,,10,697,,,,,,,,,,,,,,,,,125,Y,hexagon,1,0,,,,,,,,,,,,,,,,repeat,letter,lettRpt,k,0.5698,Hi,,,,,,0,,,,,,,,high,5,0,5,0,1,,,,,,,,,
297217,2022-12-06_10h21.34.707,vts_reward_expectancy_bt,2022.2.4,Win32,62.05398697,Chrome,1280,800,,,,,10,707,,,,,,,,,,,,,,,,,174,B,triangle,1,0,,,,,,,,,,,,,,,,switch,number,numSwt,f,0.4475,Hi,,,,,,0,,,,,,,,high,6,0,6,0,1,,,,,,,,,
297217,2022-12-06_10h21.34.707,vts_reward_expectancy_bt,2022.2.4,Win32,62.05398697,Chrome,1280,800,,,,,1,708,,,,,,,,,,,,,,,,,167,H,circle,1,0,,,,,,,,,,,,,,,,repeat,number,numRpt,f,0.897,Lo,,,,,,0,,,,,,,,high,7,0,7,0,1,,,,,,,,,
297217,2022-12-06_10h21.34.707,vts_reward_expectancy_bt,2022.2.4,Win32,62.05398697,Chrome,1280,800,,,,,10,718,,,,,,,,,,,,,,,,,139,S,hexagon,1,0,,,,,,,,,,,,,,,,repeat,number,numRpt,d,0.4138,Hi,,,,,,0,,,,,,,,high,8,0,8,0,1,,,,,,,,,
297217,2022-12-06_10h21.34.707,vts_reward_expectancy_bt,2022.2.4,Win32,62.05398697,Chrome,1280,800,,,,,1,719,,,,,,,,,,,,,,,,,132,F,circle,1,0,,,,,,,,,,,,,,,,switch,letter,lettSwt,j,0.6803,Lo,,,,,,0,,,,,,,,high,9,0,9,0,1,,,,,,,,,
297217,2022-12-06_10h21.34.707,vts_reward_expectancy_bt,2022.2.4,Win32,62.05398697,Chrome,1280,800,,,,,1,720,,,,,,,,,,,,,,,,,160,D,star,1,0,,,,,,,,,,,,,,,,repeat,letter,lettRpt,j,1.0614,Lo,,,,,,0,,,,,,,,high,10,0,10,0,1,,,,,,,,,
297217,2022-12-06_10h21.34.707,vts_reward_expectancy_bt,2022.2.4,Win32,62.05398697,Chrome,1280,800,,,,,0,720,,,,,,,,,,,,,,,,,181,U,triangle,1,0,,,,,,,,,,,,,,,,repeat,letter,lettRpt,k,1.0301,Hi,,,,,,0,,,,,,,,high,11,0,11,0,1,,,,,,,,,
297217,2022-12-06_10h21.34.707,vts_reward_expectancy_bt,2022.2.4,Win32,62.05398697,Chrome,1280,800,,,,,10,730,,,,,,,,,,,,,,,,,146,W,triangle,1,0,,,,,,,,,,,,,,,,switch,number,numSwt,d,0.5648,Hi,,,,,,0,,,,,,,,high,12,0,12,0,1,,,,,,,,,
297217,2022-12-06_10h21.34.707,vts_reward_expectancy_bt,2022.2.4,Win32,62.05398697,Chrome,1280,800,,,,,1,731,,,,,,,,,,,,,,,,,125,Y,circle,1,0,,,,,,,,,,,,,,,,repeat,number,numRpt,d,0.5975,Lo,,,,,,0,,,,,,,,high,13,0,13,0,1,,,,,,,,,
297217,2022-12-06_10h21.34.707,vts_reward_expectancy_bt,2022.2.4,Win32,62.05398697,Chrome,1280,800,,,,,10,741,,,,,,,,,,,,,,,,,174,B,hexagon,1,0,,,,,,,,,,,,,,,,repeat,number,numRpt,f,0.4467,Hi,,,,,,0,,,,,,,,high,14,0,14,0,1,,,,,,,,,
297217,2022-12-06_10h21.34.707,vts_reward_expectancy_bt,2022.2.4,Win32,62.05398697,Chrome,1280,800,,,,,1,742,,,,,,,,,,,,,,,,,167,H,star,1,0,,,,,,,,,,,,,,,,switch,letter,lettSwt,j,0.9727,Lo,,,,,,0,,,,,,,,high,15,0,15,0,1,,,,,,,,,
297217,2022-12-06_10h21.34.707,vts_reward_expectancy_bt,2022.2.4,Win32,62.05398697,Chrome,1280,800,,,,,10,752,,,,,,,,,,,,,,,,,139,F,triangle,1,0,,,,,,,,,,,,,,,,switch,number,numSwt,d,0.4302,Hi,,,,,,0,,,,,,,,high,16,0,16,0,1,,,,,,,,,
297217,2022-12-06_10h21.34.707,vts_reward_expectancy_bt,2022.2.4,Win32,62.05398697,Chrome,1280,800,,,,,10,762,,,,,,,,,,,,,,,,,160,D,hexagon,1,0,,,,,,,,,,,,,,,,switch,letter,lettSwt,j,0.6961,Hi,,,,,,0,,,,,,,,high,17,0,17,0,1,,,,,,,,,
297217,2022-12-06_10h21.34.707,vts_reward_expectancy_bt,2022.2.4,Win32,62.05398697,Chrome,1280,800,,,,,1,763,,,,,,,,,,,,,,,,,174,W,star,1,0,,,,,,,,,,,,,,,,switch,number,numSwt,f,0.6296,Lo,,,,,,0,,,,,,,,high,18,0,18,0,1,,,,,,,,,
297217,2022-12-06_10h21.34.707,vts_reward_expectancy_bt,2022.2.4,Win32,62.05398697,Chrome,1280,800,,,,,1,764,,,,,,,,,,,,,,,,,146,H,circle,1,0,,,,,,,,,,,,,,,,repeat,number,numRpt,d,0.5975,Lo,,,,,,0,,,,,,,,high,19,0,19,0,1,,,,,,,,,
297217,2022-12-06_10h21.34.707,vts_reward_expectancy_bt,2022.2.4,Win32,62.05398697,Chrome,1280,800,,,,,10,774,,,,,,,,,,,,,,,,,181,U,triangle,1,0,,,,,,,,,,,,,,,,repeat,number,numRpt,f,0.4995,Hi,,,,,,0,,,,,,,,high,20,0,20,0,1,,,,,,,,,
297217,2022-12-06_10h21.34.707,vts_reward_expectancy_bt,2022.2.4,Win32,62.05398697,Chrome,1280,800,,,,,1,775,,,,,,,,,,,,,,,,,167,B,star,1,0,,,,,,,,,,,,,,,,switch,letter,lettSwt,j,0.615,Lo,,,,,,0,,,,,,,,high,21,0,21,0,1,,,,,,,,,
297217,2022-12-06_10h21.34.707,vts_reward_expectancy_bt,2022.2.4,Win32,62.05398697,Chrome,1280,800,,,,,10,785,,,,,,,,,,,,,,,,,132,Y,circle,1,0,,,,,,,,,,,,,,,,switch,number,numSwt,d,0.6127,Lo,,,,,,0,,,,,,,,high,22,0,22,0,1,,,,,,,,,
297217,2022-12-06_10h21.34.707,vts_reward_expectancy_bt,2022.2.4,Win32,62.05398697,Chrome,1280,800,,,,,10,795,,,,,,,,,,,,,,,,,125,S,hexagon,1,0,,,,,,,,,,,,,,,,repeat,number,numRpt,d,0.5139,Hi,,,,,,0,,,,,,,,high,23,0,23,0,1,,,,,,,,,
297217,2022-12-06_10h21.34.707,vts_reward_expectancy_bt,2022.2.4,Win32,62.05398697,Chrome,1280,800,,,,,1,796,,,,,,,,,,,,,,,,,181,H,star,1,0,,,,,,,,,,,,,,,,switch,letter,lettSwt,j,1.0507,Lo,,,,,,0,,,,,,,,high,24,0,24,0,1,,,,,,,,,
297217,2022-12-06_10h21.34.707,vts_reward_expectancy_bt,2022.2.4,Win32,62.05398697,Chrome,1280,800,,,,,1,797,,,,,,,,,,,,,,,,,139,U,triangle,1,0,,,,,,,,,,,,,,,,repeat,letter,lettRpt,k,0.7491,Hi,,,,,,0,,,,,,,,high,25,0,25,0,1,,,,,,,,,
297217,2022-12-06_10h21.34.707,vts_reward_expectancy_bt,2022.2.4,Win32,62.05398697,Chrome,1280,800,,,,,1,798,,,,,,,,,,,,,,,,,174,D,circle,1,0,,,,,,,,,,,,,,,,repeat,letter,lettRpt,j,0.636,Lo,,,,,,0,,,,,,,,high,26,0,26,0,1,,,,,,,,,
297217,2022-12-06_10h21.34.707,vts_reward_expectancy_bt,2022.2.4,Win32,62.05398697,Chrome,1280,800,,,,,10,808,,,,,,,,,,,,,,,,,160,S,hexagon,1,0,,,,,,,,,,,,,,,,switch,number,numSwt,f,0.531,Hi,,,,,,0,,,,,,,,high,27,0,27,0,1,,,,,,,,,
297217,2022-12-06_10h21.34.707,vts_reward_expectancy_bt,2022.2.4,Win32,62.05398697,Chrome,1280,800,,,,,0,808,,,,,,,,,,,,,,,,,167,W,triangle,1,0,,,,,,,,,,,,,,,,repeat,number,numRpt,f,0.97,Hi,,,,,,0,,,,,,,,high,28,0,28,0,1,,,,,,,,,
297217,2022-12-06_10h21.34.707,vts_reward_expectancy_bt,2022.2.4,Win32,62.05398697,Chrome,1280,800,,,,,0,808,,,,,,,,,,,,,,,,,132,F,hexagon,1,0,,,,,,,,,,,,,,,,repeat,number,numRpt,d,0.7233,Hi,,,,,,0,,,,,,,,high,29,0,29,0,1,,,,,,,,,
297217,2022-12-06_10h21.34.707,vts_reward_expectancy_bt,2022.2.4,Win32,62.05398697,Chrome,1280,800,,,,,1,809,,,,,,,,,,,,,,,,,125,Y,star,1,0,,,,,,,,,,,,,,,,repeat,number,numRpt,d,0.4462,Lo,,,,,,0,,,,,,,,high,30,0,30,0,1,,,,,,,,,
297217,2022-12-06_10h21.34.707,vts_reward_expectancy_bt,2022.2.4,Win32,62.05398697,Chrome,1280,800,,,,,1,810,,,,,,,,,,,,,,,,,146,B,circle,1,0,,,,,,,,,,,,,,,,switch,letter,lettSwt,j,0.5345,Lo,,,,,,0,,,,,,,,high,31,0,31,0,1,,,,,,,,,
297217,2022-12-06_10h21.34.707,vts_reward_expectancy_bt,2022.2.4,Win32,62.05398697,Chrome,1280,800,,,,,0,810,,,,,,,,,,,,,,,,,160,F,star,0,0,,,,,,,,,,,,,,,,switch,number,NA,d,0.4832,Lo,,,,,,1,,,,,,space,5.6875,high,0,0,0,0,1,,,,,,,,,
297217,2022-12-06_10h21.34.707,vts_reward_expectancy_bt,2022.2.4,Win32,62.05398697,Chrome,1280,800,,,,,10,820,,,,,,,,,,,,,,,,,167,H,hexagon,1,1,,,,,,,,,,,,,,,,repeat,number,numRpt,f,0.4824,Hi,,,,,,1,,,,,,,,high,1,0,1,0,1,,,,,,,,,
297217,2022-12-06_10h21.34.707,vts_reward_expectancy_bt,2022.2.4,Win32,62.05398697,Chrome,1280,800,,,,,1,821,,,,,,,,,,,,,,,,,132,B,triangle,1,0,,,,,,,,,,,,,,,,switch,letter,lettSwt,j,0.4475,Hi,,,,,,1,,,,,,,,high,2,0,2,0,1,,,,,,,,,
297217,2022-12-06_10h21.34.707,vts_reward_expectancy_bt,2022.2.4,Win32,62.05398697,Chrome,1280,800,,,,,1,822,,,,,,,,,,,,,,,,,125,D,circle,1,0,,,,,,,,,,,,,,,,repeat,letter,lettRpt,j,0.5804,Lo,,,,,,1,,,,,,,,high,3,0,3,0,1,,,,,,,,,
297217,2022-12-06_10h21.34.707,vts_reward_expectancy_bt,2022.2.4,Win32,62.05398697,Chrome,1280,800,,,,,10,832,,,,,,,,,,,,,,,,,181,U,star,1,0,,,,,,,,,,,,,,,,repeat,letter,lettRpt,k,0.5502,Lo,,,,,,1,,,,,,,,high,4,0,4,0,1,,,,,,,,,
297217,2022-12-06_10h21.34.707,vts_reward_expectancy_bt,2022.2.4,Win32,62.05398697,Chrome,1280,800,,,,,0,832,,,,,,,,,,,,,,,,,174,W,hexagon,1,0,,,,,,,,,,,,,,,,switch,number,numSwt,f,0.5818,Hi,,,,,,1,,,,,,,,high,5,0,5,0,1,,,,,,,,,
297217,2022-12-06_10h21.34.707,vts_reward_expectancy_bt,2022.2.4,Win32,62.05398697,Chrome,1280,800,,,,,10,842,,,,,,,,,,,,,,,,,146,S,triangle,1,0,,,,,,,,,,,,,,,,repeat,number,numRpt,d,0.4675,Hi,,,,,,1,,,,,,,,high,6,0,6,0,1,,,,,,,,,
297217,2022-12-06_10h21.34.707,vts_reward_expectancy_bt,2022.2.4,Win32,62.05398697,Chrome,1280,800,,,,,10,852,,,,,,,,,,,,,,,,,139,Y,circle,1,0,,,,,,,,,,,,,,,,switch,letter,lettSwt,k,0.5189,Lo,,,,,,1,,,,,,,,high,7,0,7,0,1,,,,,,,,,
297217,2022-12-06_10h21.34.707,vts_reward_expectancy_bt,2022.2.4,Win32,62.05398697,Chrome,1280,800,,,,,1,853,,,,,,,,,,,,,,,,,160,F,star,1,0,,,,,,,,,,,,,,,,repeat,letter,lettRpt,j,0.7792,Lo,,,,,,1,,,,,,,,high,8,0,8,0,1,,,,,,,,,
297217,2022-12-06_10h21.34.707,vts_reward_expectancy_bt,2022.2.4,Win32,62.05398697,Chrome,1280,800,,,,,0,853,,,,,,,,,,,,,,,,,167,H,hexagon,1,0,,,,,,,,,,,,,,,,switch,number,numSwt,f,0.6129,Hi,,,,,,1,,,,,,,,high,9,0,9,0,1,,,,,,,,,
297217,2022-12-06_10h21.34.707,vts_reward_expectancy_bt,2022.2.4,Win32,62.05398697,Chrome,1280,800,,,,,10,863,,,,,,,,,,,,,,,,,132,B,triangle,1,0,,,,,,,,,,,,,,,,repeat,number,numRpt,d,0.415,Hi,,,,,,1,,,,,,,,high,10,0,10,0,1,,,,,,,,,
297217,2022-12-06_10h21.34.707,vts_reward_expectancy_bt,2022.2.4,Win32,62.05398697,Chrome,1280,800,,,,,1,864,,,,,,,,,,,,,,,,,125,D,circle,1,0,,,,,,,,,,,,,,,,switch,letter,lettSwt,j,0.5292,Lo,,,,,,1,,,,,,,,high,11,0,11,0,1,,,,,,,,,
297217,2022-12-06_10h21.34.707,vts_reward_expectancy_bt,2022.2.4,Win32,62.05398697,Chrome,1280,800,,,,,10,874,,,,,,,,,,,,,,,,,181,U,hexagon,1,0,,,,,,,,,,,,,,,,switch,number,numSwt,f,0.4176,Hi,,,,,,1,,,,,,,,high,12,0,12,0,1,,,,,,,,,
297217,2022-12-06_10h21.34.707,vts_reward_expectancy_bt,2022.2.4,Win32,62.05398697,Chrome,1280,800,,,,,0,874,,,,,,,,,,,,,,,,,174,W,triangle,1,0,,,,,,,,,,,,,,,,repeat,number,numRpt,f,0.6633,Hi,,,,,,1,,,,,,,,high,13,0,13,0,1,,,,,,,,,
297217,2022-12-06_10h21.34.707,vts_reward_expectancy_bt,2022.2.4,Win32,62.05398697,Chrome,1280,800,,,,,1,875,,,,,,,,,,,,,,,,,146,S,circle,1,0,,,,,,,,,,,,,,,,repeat,number,numRpt,d,0.595,Lo,,,,,,1,,,,,,,,high,14,0,14,0,1,,,,,,,,,
297217,2022-12-06_10h21.34.707,vts_reward_expectancy_bt,2022.2.4,Win32,62.05398697,Chrome,1280,800,,,,,1,876,,,,,,,,,,,,,,,,,139,Y,star,1,0,,,,,,,,,,,,,,,,switch,letter,lettSwt,k,0.6953,Lo,,,,,,1,,,,,,,,high,15,0,15,0,1,,,,,,,,,
297217,2022-12-06_10h21.34.707,vts_reward_expectancy_bt,2022.2.4,Win32,62.05398697,Chrome,1280,800,,,,,0,876,,,,,,,,,,,,,,,,,132,H,triangle,1,0,,,,,,,,,,,,,,,,switch,number,numSwt,d,0.5496,Hi,,,,,,1,,,,,,,,high,16,0,16,0,1,,,,,,,,,
297217,2022-12-06_10h21.34.707,vts_reward_expectancy_bt,2022.2.4,Win32,62.05398697,Chrome,1280,800,,,,,1,877,,,,,,,,,,,,,,,,,146,S,star,1,0,,,,,,,,,,,,,,,,repeat,number,numRpt,d,0.6146,Lo,,,,,,1,,,,,,,,high,17,0,17,0,1,,,,,,,,,
297217,2022-12-06_10h21.34.707,vts_reward_expectancy_bt,2022.2.4,Win32,62.05398697,Chrome,1280,800,,,,,1,878,,,,,,,,,,,,,,,,,181,D,circle,1,0,,,,,,,,,,,,,,,,repeat,number,numRpt,f,0.5221,Lo,,,,,,1,,,,,,,,high,18,0,18,0,1,,,,,,,,,
297217,2022-12-06_10h21.34.707,vts_reward_expectancy_bt,2022.2.4,Win32,62.05398697,Chrome,1280,800,,,,,0,878,,,,,,,,,,,,,,,,,125,W,hexagon,1,0,,,,,,,,,,,,,,,,switch,letter,lettSwt,k,0.8998,Hi,,,,,,1,,,,,,,,high,19,0,19,0,1,,,,,,,,,
297217,2022-12-06_10h21.34.707,vts_reward_expectancy_bt,2022.2.4,Win32,62.05398697,Chrome,1280,800,,,,,1,879,,,,,,,,,,,,,,,,,167,B,circle,1,0,,,,,,,,,,,,,,,,repeat,letter,lettRpt,j,0.3798,Lo,,,,,,1,,,,,,,,high,20,0,20,0,1,,,,,,,,,
297217,2022-12-06_10h21.34.707,vts_reward_expectancy_bt,2022.2.4,Win32,62.05398697,Chrome,1280,800,,,,,1,880,,,,,,,,,,,,,,,,,174,Y,star,1,0,,,,,,,,,,,,,,,,repeat,letter,lettRpt,k,0.6135,Lo,,,,,,1,,,,,,,,high,21,0,21,0,1,,,,,,,,,
297217,2022-12-06_10h21.34.707,vts_reward_expectancy_bt,2022.2.4,Win32,62.05398697,Chrome,1280,800,,,,,10,890,,,,,,,,,,,,,,,,,139,F,hexagon,1,0,,,,,,,,,,,,,,,,switch,number,numSwt,d,0.4803,Hi,,,,,,1,,,,,,,,high,22,0,22,0,1,,,,,,,,,
297217,2022-12-06_10h21.34.707,vts_reward_expectancy_bt,2022.2.4,Win32,62.05398697,Chrome,1280,800,,,,,10,900,,,,,,,,,,,,,,,,,160,U,triangle,1,0,,,,,,,,,,,,,,,,repeat,number,numRpt,f,0.446,Hi,,,,,,1,,,,,,,,high,23,0,23,0,1,,,,,,,,,
297217,2022-12-06_10h21.34.707,vts_reward_expectancy_bt,2022.2.4,Win32,62.05398697,Chrome,1280,800,,,,,10,910,,,,,,,,,,,,,,,,,160,Y,hexagon,1,0,,,,,,,,,,,,,,,,repeat,number,numRpt,f,0.5032,Hi,,,,,,1,,,,,,,,high,24,0,24,0,1,,,,,,,,,
297217,2022-12-06_10h21.34.707,vts_reward_expectancy_bt,2022.2.4,Win32,62.05398697,Chrome,1280,800,,,,,10,920,,,,,,,,,,,,,,,,,132,B,circle,1,0,,,,,,,,,,,,,,,,repeat,number,numRpt,d,0.4519,Lo,,,,,,1,,,,,,,,high,25,0,25,0,1,,,,,,,,,
297217,2022-12-06_10h21.34.707,vts_reward_expectancy_bt,2022.2.4,Win32,62.05398697,Chrome,1280,800,,,,,0,920,,,,,,,,,,,,,,,,,181,F,triangle,1,0,,,,,,,,,,,,,,,,switch,letter,lettSwt,j,0.6967,Hi,,,,,,1,,,,,,,,high,26,0,26,0,1,,,,,,,,,
297217,2022-12-06_10h21.34.707,vts_reward_expectancy_bt,2022.2.4,Win32,62.05398697,Chrome,1280,800,,,,,0,920,,,,,,,,,,,,,,,,,167,S,star,0,0,,,,,,,,,,,,,,,,repeat,letter,NA,j,0.7763,Hi,,,,,,1,,,,,,,,high,27,0,27,0,1,,,,,,,,,
297217,2022-12-06_10h21.34.707,vts_reward_expectancy_bt,2022.2.4,Win32,62.05398697,Chrome,1280,800,,,,,10,930,,,,,,,,,,,,,,,,,125,D,triangle,1,1,,,,,,,,,,,,,,,,repeat,letter,lettRpt,j,0.6068,Hi,,,,,,1,,,,,,,,high,28,0,28,0,1,,,,,,,,,
297217,2022-12-06_10h21.34.707,vts_reward_expectancy_bt,2022.2.4,Win32,62.05398697,Chrome,1280,800,,,,,1,931,,,,,,,,,,,,,,,,,146,W,circle,1,0,,,,,,,,,,,,,,,,switch,number,numSwt,d,0.5816,Lo,,,,,,1,,,,,,,,high,29,0,29,0,1,,,,,,,,,
297217,2022-12-06_10h21.34.707,vts_reward_expectancy_bt,2022.2.4,Win32,62.05398697,Chrome,1280,800,,,,,10,941,,,,,,,,,,,,,,,,,139,H,hexagon,1,0,,,,,,,,,,,,,,,,repeat,number,numRpt,d,0.4476,Hi,,,,,,1,,,,,,,,high,30,0,30,0,1,,,,,,,,,
297217,2022-12-06_10h21.34.707,vts_reward_expectancy_bt,2022.2.4,Win32,62.05398697,Chrome,1280,800,,,,,1,942,,,,,,,,,,,,,,,,,174,U,star,1,0,,,,,,,,,,,,,,,,repeat,number,numRpt,f,0.7159,Lo,,,,,,1,,,,,,,,high,31,0,31,0,1,,,,,,,,,
297217,2022-12-06_10h21.34.707,vts_reward_expectancy_bt,2022.2.4,Win32,62.05398697,Chrome,1280,800,,,,,0,942,,,,,,,,,,,,,,,,,146,Y,triangle,1,0,,,,,,,,,,,,,,,,repeat,number,numRpt,d,0.571,Hi,,,,,,2,,,,,,space,3.8257,high,0,0,0,0,1,,,,,,,,,
297217,2022-12-06_10h21.34.707,vts_reward_expectancy_bt,2022.2.4,Win32,62.05398697,Chrome,1280,800,,,,,1,943,,,,,,,,,,,,,,,,,174,W,circle,1,0,,,,,,,,,,,,,,,,switch,letter,lettSwt,k,1.0069,Lo,,,,,,2,,,,,,,,high,1,0,1,0,1,,,,,,,,,
297217,2022-12-06_10h21.34.707,vts_reward_expectancy_bt,2022.2.4,Win32,62.05398697,Chrome,1280,800,,,,,10,953,,,,,,,,,,,,,,,,,132,S,star,1,0,,,,,,,,,,,,,,,,repeat,letter,lettRpt,k,0.5121,Lo,,,,,,2,,,,,,,,high,2,0,2,0,1,,,,,,,,,
297217,2022-12-06_10h21.34.707,vts_reward_expectancy_bt,2022.2.4,Win32,62.05398697,Chrome,1280,800,,,,,10,963,,,,,,,,,,,,,,,,,160,D,hexagon,1,0,,,,,,,,,,,,,,,,repeat,letter,lettRpt,j,0.5474,Hi,,,,,,2,,,,,,,,high,3,0,3,0,1,,,,,,,,,
297217,2022-12-06_10h21.34.707,vts_reward_expectancy_bt,2022.2.4,Win32,62.05398697,Chrome,1280,800,,,,,0,963,,,,,,,,,,,,,,,,,181,H,triangle,1,0,,,,,,,,,,,,,,,,switch,number,numSwt,f,0.546,Hi,,,,,,2,,,,,,,,high,4,0,4,0,1,,,,,,,,,
297217,2022-12-06_10h21.34.707,vts_reward_expectancy_bt,2022.2.4,Win32,62.05398697,Chrome,1280,800,,,,,1,964,,,,,,,,,,,,,,,,,125,U,circle,1,0,,,,,,,,,,,,,,,,repeat,number,numRpt,d,0.4991,Lo,,,,,,2,,,,,,,,high,5,0,5,0,1,,,,,,,,,
297217,2022-12-06_10h21.34.707,vts_reward_expectancy_bt,2022.2.4,Win32,62.05398697,Chrome,1280,800,,,,,0,964,,,,,,,,,,,,,,,,,139,F,star,0,0,,,,,,,,,,,,,,,,switch,letter,NA,k,0.4467,Lo,,,,,,2,,,,,,,,high,6,0,6,0,1,,,,,,,,,
297217,2022-12-06_10h21.34.707,vts_reward_expectancy_bt,2022.2.4,Win32,62.05398697,Chrome,1280,800,,,,,10,974,,,,,,,,,,,,,,,,,167,B,hexagon,1,1,,,,,,,,,,,,,,,,repeat,letter,lettRpt,j,0.4142,Hi,,,,,,2,,,,,,,,high,7,0,7,0,1,,,,,,,,,
297217,2022-12-06_10h21.34.707,vts_reward_expectancy_bt,2022.2.4,Win32,62.05398697,Chrome,1280,800,,,,,1,975,,,,,,,,,,,,,,,,,146,Y,triangle,1,0,,,,,,,,,,,,,,,,repeat,letter,lettRpt,k,0.5521,Hi,,,,,,2,,,,,,,,high,8,0,8,0,1,,,,,,,,,
297217,2022-12-06_10h21.34.707,vts_reward_expectancy_bt,2022.2.4,Win32,62.05398697,Chrome,1280,800,,,,,1,976,,,,,,,,,,,,,,,,,174,W,circle,1,0,,,,,,,,,,,,,,,,switch,number,numSwt,f,0.4295,Lo,,,,,,2,,,,,,,,high,9,0,9,0,1,,,,,,,,,
297217,2022-12-06_10h21.34.707,vts_reward_expectancy_bt,2022.2.4,Win32,62.05398697,Chrome,1280,800,,,,,0,976,,,,,,,,,,,,,,,,,132,S,hexagon,1,0,,,,,,,,,,,,,,,,switch,letter,lettSwt,k,0.6166,Hi,,,,,,2,,,,,,,,high,10,0,10,0,1,,,,,,,,,
297217,2022-12-06_10h21.34.707,vts_reward_expectancy_bt,2022.2.4,Win32,62.05398697,Chrome,1280,800,,,,,1,977,,,,,,,,,,,,,,,,,160,D,star,1,0,,,,,,,,,,,,,,,,repeat,letter,lettRpt,j,0.4311,Lo,,,,,,2,,,,,,,,high,11,0,11,0,1,,,,,,,,,
297217,2022-12-06_10h21.34.707,vts_reward_expectancy_bt,2022.2.4,Win32,62.05398697,Chrome,1280,800,,,,,1,978,,,,,,,,,,,,,,,,,181,H,circle,1,0,,,,,,,,,,,,,,,,repeat,letter,lettRpt,j,0.9474,Lo,,,,,,2,,,,,,,,high,12,0,12,0,1,,,,,,,,,
297217,2022-12-06_10h21.34.707,vts_reward_expectancy_bt,2022.2.4,Win32,62.05398697,Chrome,1280,800,,,,,0,978,,,,,,,,,,,,,,,,,125,U,hexagon,1,0,,,,,,,,,,,,,,,,repeat,letter,lettRpt,k,0.7468,Hi,,,,,,2,,,,,,,,high,13,0,13,0,1,,,,,,,,,
297217,2022-12-06_10h21.34.707,vts_reward_expectancy_bt,2022.2.4,Win32,62.05398697,Chrome,1280,800,,,,,0,978,,,,,,,,,,,,,,,,,139,F,triangle,1,0,,,,,,,,,,,,,,,,repeat,letter,lettRpt,j,0.6641,Hi,,,,,,2,,,,,,,,high,14,0,14,0,1,,,,,,,,,
297217,2022-12-06_10h21.34.707,vts_reward_expectancy_bt,2022.2.4,Win32,62.05398697,Chrome,1280,800,,,,,1,979,,,,,,,,,,,,,,,,,167,B,star,1,0,,,,,,,,,,,,,,,,switch,number,numSwt,f,0.5853,Lo,,,,,,2,,,,,,,,high,15,0,15,0,1,,,,,,,,,
297217,2022-12-06_10h21.34.707,vts_reward_expectancy_bt,2022.2.4,Win32,62.05398697,Chrome,1280,800,,,,,0,979,,,,,,,,,,,,,,,,,132,S,triangle,1,0,,,,,,,,,,,,,,,,repeat,number,numRpt,d,0.6872,Hi,,,,,,2,,,,,,,,high,16,0,16,0,1,,,,,,,,,
297217,2022-12-06_10h21.34.707,vts_reward_expectancy_bt,2022.2.4,Win32,62.05398697,Chrome,1280,800,,,,,1,980,,,,,,,,,,,,,,,,,160,Y,circle,1,0,,,,,,,,,,,,,,,,repeat,number,numRpt,f,0.4195,Lo,,,,,,2,,,,,,,,high,17,0,17,0,1,,,,,,,,,
297217,2022-12-06_10h21.34.707,vts_reward_expectancy_bt,2022.2.4,Win32,62.05398697,Chrome,1280,800,,,,,1,981,,,,,,,,,,,,,,,,,181,H,hexagon,1,0,,,,,,,,,,,,,,,,repeat,number,numRpt,f,0.4144,Hi,,,,,,2,,,,,,,,high,18,0,18,0,1,,,,,,,,,
297217,2022-12-06_10h21.34.707,vts_reward_expectancy_bt,2022.2.4,Win32,62.05398697,Chrome,1280,800,,,,,1,982,,,,,,,,,,,,,,,,,174,B,star,1,0,,,,,,,,,,,,,,,,repeat,number,numRpt,f,0.6306,Lo,,,,,,2,,,,,,,,high,19,0,19,0,1,,,,,,,,,
297217,2022-12-06_10h21.34.707,vts_reward_expectancy_bt,2022.2.4,Win32,62.05398697,Chrome,1280,800,,,,,0,982,,,,,,,,,,,,,,,,,139,F,circle,0,0,,,,,,,,,,,,,,,,switch,letter,NA,k,0.5495,Lo,,,,,,2,,,,,,,,high,20,0,20,0,1,,,,,,,,,
297217,2022-12-06_10h21.34.707,vts_reward_expectancy_bt,2022.2.4,Win32,62.05398697,Chrome,1280,800,,,,,10,992,,,,,,,,,,,,,,,,,146,U,hexagon,1,1,,,,,,,,,,,,,,,,repeat,letter,lettRpt,k,0.5467,Hi,,,,,,2,,,,,,,,high,21,0,21,0,1,,,,,,,,,
297217,2022-12-06_10h21.34.707,vts_reward_expectancy_bt,2022.2.4,Win32,62.05398697,Chrome,1280,800,,,,,10,1002,,,,,,,,,,,,,,,,,167,D,triangle,1,0,,,,,,,,,,,,,,,,switch,number,numSwt,f,0.4141,Hi,,,,,,2,,,,,,,,high,22,0,22,0,1,,,,,,,,,
297217,2022-12-06_10h21.34.707,vts_reward_expectancy_bt,2022.2.4,Win32,62.05398697,Chrome,1280,800,,,,,10,1012,,,,,,,,,,,,,,,,,125,W,star,1,0,,,,,,,,,,,,,,,,repeat,number,numRpt,d,0.5627,Lo,,,,,,2,,,,,,,,high,23,0,23,0,1,,,,,,,,,
297217,2022-12-06_10h21.34.707,vts_reward_expectancy_bt,2022.2.4,Win32,62.05398697,Chrome,1280,800,,,,,1,1013,,,,,,,,,,,,,,,,,160,H,hexagon,1,0,,,,,,,,,,,,,,,,switch,letter,lettSwt,j,0.4616,Hi,,,,,,2,,,,,,,,high,24,0,24,0,1,,,,,,,,,
297217,2022-12-06_10h21.34.707,vts_reward_expectancy_bt,2022.2.4,Win32,62.05398697,Chrome,1280,800,,,,,10,1023,,,,,,,,,,,,,,,,,146,U,star,1,0,,,,,,,,,,,,,,,,repeat,letter,lettRpt,k,0.5119,Lo,,,,,,2,,,,,,,,high,25,0,25,0,1,,,,,,,,,
297217,2022-12-06_10h21.34.707,vts_reward_expectancy_bt,2022.2.4,Win32,62.05398697,Chrome,1280,800,,,,,0,1023,,,,,,,,,,,,,,,,,125,D,triangle,1,0,,,,,,,,,,,,,,,,switch,number,numSwt,d,0.7608,Hi,,,,,,2,,,,,,,,high,26,0,26,0,1,,,,,,,,,
297217,2022-12-06_10h21.34.707,vts_reward_expectancy_bt,2022.2.4,Win32,62.05398697,Chrome,1280,800,,,,,0,1023,,,,,,,,,,,,,,,,,132,S,circle,0,0,,,,,,,,,,,,,,,,switch,letter,NA,j,0.8641,Hi,,,,,,2,,,,,,,,high,27,0,27,0,1,,,,,,,,,
297217,2022-12-06_10h21.34.707,vts_reward_expectancy_bt,2022.2.4,Win32,62.05398697,Chrome,1280,800,,,,,1,1024,,,,,,,,,,,,,,,,,139,B,circle,1,1,,,,,,,,,,,,,,,,repeat,letter,lettRpt,j,0.5635,Lo,,,,,,2,,,,,,,,high,28,0,28,0,1,,,,,,,,,
297217,2022-12-06_10h21.34.707,vts_reward_expectancy_bt,2022.2.4,Win32,62.05398697,Chrome,1280,800,,,,,0,1024,,,,,,,,,,,,,,,,,174,W,hexagon,1,0,,,,,,,,,,,,,,,,switch,number,numSwt,f,0.5806,Hi,,,,,,2,,,,,,,,high,29,0,29,0,1,,,,,,,,,
297217,2022-12-06_10h21.34.707,vts_reward_expectancy_bt,2022.2.4,Win32,62.05398697,Chrome,1280,800,,,,,0,1024,,,,,,,,,,,,,,,,,181,F,triangle,1,0,,,,,,,,,,,,,,,,repeat,number,numRpt,f,0.4822,Hi,,,,,,2,,,,,,,,high,30,0,30,0,1,,,,,,,,,
297217,2022-12-06_10h21.34.707,vts_reward_expectancy_bt,2022.2.4,Win32,62.05398697,Chrome,1280,800,,,,,1,1025,,,,,,,,,,,,,,,,,167,Y,star,1,0,,,,,,,,,,,,,,,,switch,letter,lettSwt,k,0.6809,Lo,,,,,,2,,,,,,,,high,31,0,31,0,1,,,,,,,,,
297217,2022-12-06_10h21.34.707,vts_reward_expectancy_bt,2022.2.4,Win32,62.05398697,Chrome,1280,800,,,,,0,1025,,,,,,,,,,,,,,,,,146,F,triangle,0,0,,,,,,,,,,,,,,,,switch,number,NA,f,0.7953,Lo,,,,,,3,,,,,,space,1.8349,high,0,0,0,0,1,,,,,,,,,
297217,2022-12-06_10h21.34.707,vts_reward_expectancy_bt,2022.2.4,Win32,62.05398697,Chrome,1280,800,,,,,10,1035,,,,,,,,,,,,,,,,,167,H,star,1,1,,,,,,,,,,,,,,,,repeat,number,numRpt,f,0.4298,Lo,,,,,,3,,,,,,,,high,1,0,1,0,1,,,,,,,,,
297217,2022-12-06_10h21.34.707,vts_reward_expectancy_bt,2022.2.4,Win32,62.05398697,Chrome,1280,800,,,,,0,1035,,,,,,,,,,,,,,,,,132,B,hexagon,1,0,,,,,,,,,,,,,,,,repeat,number,numRpt,d,0.5037,Hi,,,,,,3,,,,,,,,high,2,0,2,0,1,,,,,,,,,
297217,2022-12-06_10h21.34.707,vts_reward_expectancy_bt,2022.2.4,Win32,62.05398697,Chrome,1280,800,,,,,1,1036,,,,,,,,,,,,,,,,,174,U,circle,1,0,,,,,,,,,,,,,,,,switch,letter,lettSwt,k,0.5471,Lo,,,,,,3,,,,,,,,high,3,0,3,0,1,,,,,,,,,
297217,2022-12-06_10h21.34.707,vts_reward_expectancy_bt,2022.2.4,Win32,62.05398697,Chrome,1280,800,,,,,0,1036,,,,,,,,,,,,,,,,,125,S,triangle,0,0,,,,,,,,,,,,,,,,repeat,letter,NA,j,0.6999,Lo,,,,,,3,,,,,,,,high,4,0,4,0,1,,,,,,,,,
297217,2022-12-06_10h21.34.707,vts_reward_expectancy_bt,2022.2.4,Win32,62.05398697,Chrome,1280,800,,,,,10,1046,,,,,,,,,,,,,,,,,160,W,star,1,1,,,,,,,,,,,,,,,,repeat,letter,lettRpt,k,0.55,Lo,,,,,,3,,,,,,,,high,5,0,5,0,1,,,,,,,,,
297217,2022-12-06_10h21.34.707,vts_reward_expectancy_bt,2022.2.4,Win32,62.05398697,Chrome,1280,800,,,,,10,1056,,,,,,,,,,,,,,,,,139,D,hexagon,1,0,,,,,,,,,,,,,,,,switch,number,numSwt,d,0.4309,Hi,,,,,,3,,,,,,,,high,6,0,6,0,1,,,,,,,,,
297217,2022-12-06_10h21.34.707,vts_reward_expectancy_bt,2022.2.4,Win32,62.05398697,Chrome,1280,800,,,,,1,1057,,,,,,,,,,,,,,,,,181,Y,circle,1,0,,,,,,,,,,,,,,,,repeat,number,numRpt,f,0.4476,Lo,,,,,,3,,,,,,,,high,7,0,7,0,1,,,,,,,,,
297217,2022-12-06_10h21.34.707,vts_reward_expectancy_bt,2022.2.4,Win32,62.05398697,Chrome,1280,800,,,,,0,1057,,,,,,,,,,,,,,,,,146,F,circle,0,0,,,,,,,,,,,,,,,,repeat,number,NA,f,0.6702,Lo,,,,,,3,,,,,,,,high,8,0,8,0,1,,,,,,,,,
297217,2022-12-06_10h21.34.707,vts_reward_expectancy_bt,2022.2.4,Win32,62.05398697,Chrome,1280,800,,,,,10,1067,,,,,,,,,,,,,,,,,167,H,star,1,1,,,,,,,,,,,,,,,,repeat,number,numRpt,f,0.5468,Lo,,,,,,3,,,,,,,,high,9,0,9,0,1,,,,,,,,,
297217,2022-12-06_10h21.34.707,vts_reward_expectancy_bt,2022.2.4,Win32,62.05398697,Chrome,1280,800,,,,,10,1077,,,,,,,,,,,,,,,,,132,B,triangle,1,0,,,,,,,,,,,,,,,,switch,letter,lettSwt,j,0.4313,Hi,,,,,,3,,,,,,,,high,10,0,10,0,1,,,,,,,,,
297217,2022-12-06_10h21.34.707,vts_reward_expectancy_bt,2022.2.4,Win32,62.05398697,Chrome,1280,800,,,,,0,1077,,,,,,,,,,,,,,,,,174,U,hexagon,1,0,,,,,,,,,,,,,,,,repeat,letter,lettRpt,k,0.5814,Hi,,,,,,3,,,,,,,,high,11,0,11,0,1,,,,,,,,,
297217,2022-12-06_10h21.34.707,vts_reward_expectancy_bt,2022.2.4,Win32,62.05398697,Chrome,1280,800,,,,,10,1087,,,,,,,,,,,,,,,,,125,S,hexagon,1,0,,,,,,,,,,,,,,,,switch,number,numSwt,d,0.4003,Hi,,,,,,3,,,,,,,,high,12,0,12,0,1,,,,,,,,,
297217,2022-12-06_10h21.34.707,vts_reward_expectancy_bt,2022.2.4,Win32,62.05398697,Chrome,1280,800,,,,,1,1088,,,,,,,,,,,,,,,,,160,W,star,1,0,,,,,,,,,,,,,,,,switch,letter,lettSwt,k,0.6976,Lo,,,,,,3,,,,,,,,high,13,0,13,0,1,,,,,,,,,
297217,2022-12-06_10h21.34.707,vts_reward_expectancy_bt,2022.2.4,Win32,62.05398697,Chrome,1280,800,,,,,0,1088,,,,,,,,,,,,,,,,,139,D,triangle,1,0,,,,,,,,,,,,,,,,repeat,letter,lettRpt,j,0.6063,Hi,,,,,,3,,,,,,,,high,14,0,14,0,1,,,,,,,,,
297217,2022-12-06_10h21.34.707,vts_reward_expectancy_bt,2022.2.4,Win32,62.05398697,Chrome,1280,800,,,,,1,1089,,,,,,,,,,,,,,,,,181,Y,circle,1,0,,,,,,,,,,,,,,,,switch,number,numSwt,f,0.5971,Lo,,,,,,3,,,,,,,,high,15,0,15,0,1,,,,,,,,,
297217,2022-12-06_10h21.34.707,vts_reward_expectancy_bt,2022.2.4,Win32,62.05398697,Chrome,1280,800,,,,,10,1099,,,,,,,,,,,,,,,,,167,B,star,1,0,,,,,,,,,,,,,,,,repeat,number,numRpt,f,0.6148,Lo,,,,,,3,,,,,,,,high,16,0,16,0,1,,,,,,,,,
297217,2022-12-06_10h21.34.707,vts_reward_expectancy_bt,2022.2.4,Win32,62.05398697,Chrome,1280,800,,,,,0,1099,,,,,,,,,,,,,,,,,125,D,triangle,1,0,,,,,,,,,,,,,,,,repeat,number,numRpt,d,0.4961,Hi,,,,,,3,,,,,,,,high,17,0,17,0,1,,,,,,,,,
297217,2022-12-06_10h21.34.707,vts_reward_expectancy_bt,2022.2.4,Win32,62.05398697,Chrome,1280,800,,,,,0,1099,,,,,,,,,,,,,,,,,181,F,circle,0,0,,,,,,,,,,,,,,,,switch,letter,NA,k,0.6819,Hi,,,,,,3,,,,,,,,high,18,0,18,0,1,,,,,,,,,
297217,2022-12-06_10h21.34.707,vts_reward_expectancy_bt,2022.2.4,Win32,62.05398697,Chrome,1280,800,,,,,0,1099,,,,,,,,,,,,,,,,,146,U,hexagon,1,1,,,,,,,,,,,,,,,,repeat,letter,lettRpt,k,0.5638,Hi,,,,,,3,,,,,,,,high,19,0,19,0,1,,,,,,,,,
297217,2022-12-06_10h21.34.707,vts_reward_expectancy_bt,2022.2.4,Win32,62.05398697,Chrome,1280,800,,,,,1,1100,,,,,,,,,,,,,,,,,139,S,circle,1,0,,,,,,,,,,,,,,,,switch,number,numSwt,d,0.7451,Lo,,,,,,3,,,,,,,,high,20,0,20,0,1,,,,,,,,,
297217,2022-12-06_10h21.34.707,vts_reward_expectancy_bt,2022.2.4,Win32,62.05398697,Chrome,1280,800,,,,,1,1101,,,,,,,,,,,,,,,,,160,W,star,1,0,,,,,,,,,,,,,,,,repeat,number,numRpt,f,0.6885,Lo,,,,,,3,,,,,,,,high,21,0,21,0,1,,,,,,,,,
297217,2022-12-06_10h21.34.707,vts_reward_expectancy_bt,2022.2.4,Win32,62.05398697,Chrome,1280,800,,,,,1,1102,,,,,,,,,,,,,,,,,132,Y,triangle,1,0,,,,,,,,,,,,,,,,repeat,number,numRpt,d,0.4818,Hi,,,,,,3,,,,,,,,high,22,0,22,0,1,,,,,,,,,
297217,2022-12-06_10h21.34.707,vts_reward_expectancy_bt,2022.2.4,Win32,62.05398697,Chrome,1280,800,,,,,10,1112,,,,,,,,,,,,,,,,,174,H,hexagon,1,0,,,,,,,,,,,,,,,,switch,letter,lettSwt,j,0.4851,Hi,,,,,,3,,,,,,,,high,23,0,23,0,1,,,,,,,,,
297217,2022-12-06_10h21.34.707,vts_reward_expectancy_bt,2022.2.4,Win32,62.05398697,Chrome,1280,800,,,,,10,1122,,,,,,,,,,,,,,,,,125,W,star,1,0,,,,,,,,,,,,,,,,switch,number,numSwt,d,0.4975,Lo,,,,,,3,,,,,,,,high,24,0,24,0,1,,,,,,,,,
297217,2022-12-06_10h21.34.707,vts_reward_expectancy_bt,2022.2.4,Win32,62.05398697,Chrome,1280,800,,,,,0,1122,,,,,,,,,,,,,,,,,181,D,circle,0,0,,,,,,,,,,,,,,,,switch,letter,NA,k,0.5621,Lo,,,,,,3,,,,,,,,high,25,0,25,0,1,,,,,,,,,
297217,2022-12-06_10h21.34.707,vts_reward_expectancy_bt,2022.2.4,Win32,62.05398697,Chrome,1280,800,,,,,0,1122,,,,,,,,,,,,,,,,,167,S,triangle,0,1,,,,,,,,,,,,,,,,switch,number,NA,d,0.4812,Lo,,,,,,3,,,,,,,,high,26,0,26,0,1,,,,,,,,,
297217,2022-12-06_10h21.34.707,vts_reward_expectancy_bt,2022.2.4,Win32,62.05398697,Chrome,1280,800,,,,,10,1132,,,,,,,,,,,,,,,,,132,B,hexagon,1,1,,,,,,,,,,,,,,,,repeat,number,numRpt,d,0.4149,Hi,,,,,,3,,,,,,,,high,27,0,27,0,1,,,,,,,,,
297217,2022-12-06_10h21.34.707,vts_reward_expectancy_bt,2022.2.4,Win32,62.05398697,Chrome,1280,800,,,,,1,1133,,,,,,,,,,,,,,,,,160,Y,star,1,0,,,,,,,,,,,,,,,,switch,letter,lettSwt,k,0.5134,Lo,,,,,,3,,,,,,,,high,28,0,28,0,1,,,,,,,,,
297217,2022-12-06_10h21.34.707,vts_reward_expectancy_bt,2022.2.4,Win32,62.05398697,Chrome,1280,800,,,,,0,1133,,,,,,,,,,,,,,,,,174,U,hexagon,1,0,,,,,,,,,,,,,,,,repeat,letter,lettRpt,k,0.967,Hi,,,,,,3,,,,,,,,high,29,0,29,0,1,,,,,,,,,
297217,2022-12-06_10h21.34.707,vts_reward_expectancy_bt,2022.2.4,Win32,62.05398697,Chrome,1280,800,,,,,0,1133,,,,,,,,,,,,,,,,,139,F,triangle,1,0,,,,,,,,,,,,,,,,repeat,letter,lettRpt,j,0.5843,Hi,,,,,,3,,,,,,,,high,30,0,30,0,1,,,,,,,,,
297217,2022-12-06_10h21.34.707,vts_reward_expectancy_bt,2022.2.4,Win32,62.05398697,Chrome,1280,800,,,,,1,1134,,,,,,,,,,,,,,,,,146,H,circle,1,0,,,,,,,,,,,,,,,,repeat,letter,lettRpt,j,0.5809,Lo,,,,,,3,,,,,,,,high,31,0,31,0,1,,,,,,,,,
297217,2022-12-06_10h21.34.707,vts_reward_expectancy_bt,2022.2.4,Win32,62.05398697,Chrome,1280,800,,,,,0,1134,,,,,,,,,,,,,,,,,139,F,triangle,1,0,,,,,,,,,,,,,,,,switch,number,numSwt,d,0.6796,Hi,,,,,,4,,,,,,space,5.789,high,0,0,0,0,1,,,,,,,,,
297217,2022-12-06_10h21.34.707,vts_reward_expectancy_bt,2022.2.4,Win32,62.05398697,Chrome,1280,800,,,,,1,1135,,,,,,,,,,,,,,,,,160,H,star,1,0,,,,,,,,,,,,,,,,repeat,number,numRpt,f,0.4918,Lo,,,,,,4,,,,,,,,high,1,0,1,0,1,,,,,,,,,
297217,2022-12-06_10h21.34.707,vts_reward_expectancy_bt,2022.2.4,Win32,62.05398697,Chrome,1280,800,,,,,0,1135,,,,,,,,,,,,,,,,,125,Y,hexagon,1,0,,,,,,,,,,,,,,,,switch,letter,lettSwt,k,0.4975,Hi,,,,,,4,,,,,,,,high,2,0,2,0,1,,,,,,,,,
297217,2022-12-06_10h21.34.707,vts_reward_expectancy_bt,2022.2.4,Win32,62.05398697,Chrome,1280,800,,,,,10,1145,,,,,,,,,,,,,,,,,146,W,circle,1,0,,,,,,,,,,,,,,,,repeat,letter,lettRpt,k,0.4508,Lo,,,,,,4,,,,,,,,high,3,0,3,0,1,,,,,,,,,
297217,2022-12-06_10h21.34.707,vts_reward_expectancy_bt,2022.2.4,Win32,62.05398697,Chrome,1280,800,,,,,1,1146,,,,,,,,,,,,,,,,,181,U,triangle,1,0,,,,,,,,,,,,,,,,repeat,letter,lettRpt,k,0.5141,Hi,,,,,,4,,,,,,,,high,4,0,4,0,1,,,,,,,,,
297217,2022-12-06_10h21.34.707,vts_reward_expectancy_bt,2022.2.4,Win32,62.05398697,Chrome,1280,800,,,,,1,1147,,,,,,,,,,,,,,,,,167,D,star,1,0,,,,,,,,,,,,,,,,switch,number,numSwt,f,0.6646,Lo,,,,,,4,,,,,,,,high,5,0,5,0,1,,,,,,,,,
297217,2022-12-06_10h21.34.707,vts_reward_expectancy_bt,2022.2.4,Win32,62.05398697,Chrome,1280,800,,,,,0,1147,,,,,,,,,,,,,,,,,132,S,hexagon,1,0,,,,,,,,,,,,,,,,repeat,number,numRpt,d,0.5764,Hi,,,,,,4,,,,,,,,high,6,0,6,0,1,,,,,,,,,
297217,2022-12-06_10h21.34.707,vts_reward_expectancy_bt,2022.2.4,Win32,62.05398697,Chrome,1280,800,,,,,1,1148,,,,,,,,,,,,,,,,,174,B,circle,1,0,,,,,,,,,,,,,,,,repeat,number,numRpt,f,0.5143,Lo,,,,,,4,,,,,,,,high,7,0,7,0,1,,,,,,,,,
297217,2022-12-06_10h21.34.707,vts_reward_expectancy_bt,2022.2.4,Win32,62.05398697,Chrome,1280,800,,,,,1,1149,,,,,,,,,,,,,,,,,139,F,circle,1,0,,,,,,,,,,,,,,,,switch,letter,lettSwt,j,0.7876,Lo,,,,,,4,,,,,,,,high,8,0,8,0,1,,,,,,,,,
297217,2022-12-06_10h21.34.707,vts_reward_expectancy_bt,2022.2.4,Win32,62.05398697,Chrome,1280,800,,,,,1,1150,,,,,,,,,,,,,,,,,160,H,star,1,0,,,,,,,,,,,,,,,,repeat,letter,lettRpt,j,0.6314,Lo,,,,,,4,,,,,,,,high,9,0,9,0,1,,,,,,,,,
297217,2022-12-06_10h21.34.707,vts_reward_expectancy_bt,2022.2.4,Win32,62.05398697,Chrome,1280,800,,,,,10,1160,,,,,,,,,,,,,,,,,125,Y,triangle,1,0,,,,,,,,,,,,,,,,switch,number,numSwt,d,0.4248,Hi,,,,,,4,,,,,,,,high,10,0,10,0,1,,,,,,,,,
297217,2022-12-06_10h21.34.707,vts_reward_expectancy_bt,2022.2.4,Win32,62.05398697,Chrome,1280,800,,,,,0,1160,,,,,,,,,,,,,,,,,146,W,hexagon,1,0,,,,,,,,,,,,,,,,repeat,number,numRpt,d,0.5168,Hi,,,,,,4,,,,,,,,high,11,0,11,0,1,,,,,,,,,
297217,2022-12-06_10h21.34.707,vts_reward_expectancy_bt,2022.2.4,Win32,62.05398697,Chrome,1280,800,,,,,1,1161,,,,,,,,,,,,,,,,,181,U,circle,1,0,,,,,,,,,,,,,,,,switch,letter,lettSwt,k,0.5838,Lo,,,,,,4,,,,,,,,high,12,0,12,0,1,,,,,,,,,
297217,2022-12-06_10h21.34.707,vts_reward_expectancy_bt,2022.2.4,Win32,62.05398697,Chrome,1280,800,,,,,1,1162,,,,,,,,,,,,,,,,,167,D,star,1,0,,,,,,,,,,,,,,,,switch,number,numSwt,f,0.4812,Lo,,,,,,4,,,,,,,,high,13,0,13,0,1,,,,,,,,,
297217,2022-12-06_10h21.34.707,vts_reward_expectancy_bt,2022.2.4,Win32,62.05398697,Chrome,1280,800,,,,,0,1162,,,,,,,,,,,,,,,,,132,S,hexagon,1,0,,,,,,,,,,,,,,,,repeat,number,numRpt,d,0.4801,Hi,,,,,,4,,,,,,,,high,14,0,14,0,1,,,,,,,,,
297217,2022-12-06_10h21.34.707,vts_reward_expectancy_bt,2022.2.4,Win32,62.05398697,Chrome,1280,800,,,,,0,1162,,,,,,,,,,,,,,,,,174,B,triangle,1,0,,,,,,,,,,,,,,,,repeat,number,numRpt,f,0.5636,Hi,,,,,,4,,,,,,,,high,15,0,15,0,1,,,,,,,,,
