participant,date,expName,psychopyVersion,OS,frameRate,browser,xResolution,yResolution,key_resp.keys,key_resp.rt,training_resp.keys,training_resp.rt,points_trial,points_cumul,trainBlock,training.thisRepN,training.thisTrialN,training.thisN,training.thisIndex,training.ran,LTriangleOpac,LCircleOpac,LHexagonOpac,LStarOpac,RTriangleOpac,RCircleOpac,RHexagonOpac,RStarOpac,LShape_ID,RShape_ID,curr_topStim,curr_bottStim,curr_shape,acc,E1,target_resp_prac1.keys,target_resp_prac1.rt,pracBlock,task1_prac_trials.thisRepN,task1_prac_trials.thisTrialN,task1_prac_trials.thisN,task1_prac_trials.thisIndex,task1_prac_trials.ran,target_resp_prac2.keys,target_resp_prac2.rt,task2_praac_trials.thisRepN,task2_praac_trials.thisTrialN,task2_praac_trials.thisN,task2_praac_trials.thisIndex,task2_praac_trials.ran,alt,task,condition,target_resp.keys,target_resp.rt,rewCond,vts_practice_trials.thisRepN,vts_practice_trials.thisTrialN,vts_practice_trials.thisN,vts_practice_trials.thisIndex,vts_practice_trials.ran,blockNum,trials_norew.thisRepN,trials_norew.thisTrialN,trials_norew.thisN,trials_norew.thisIndex,trials_norew.ran,key_resp_2.keys,key_resp_2.rt,rewExpectancy,trials_rew.thisRepN,trials_rew.thisTrialN,trials_rew.thisN,trials_rew.thisIndex,trials_rew.ran,Q1,Q2,Q2_text,Q3,Q4,Q5_text,Q5,xRes,yRes
297367,2022-12-07_15h05.47.506,vts_reward_expectancy_bt,2022.2.4,Win32,59.39653124,Chrome,1536,960,,,,,,,,,,,,,,,,,,,,,,,,,,,,,,,,,,,,,,,,,,,,,,,,,,,,,,,,,,,,,,,,,,,,,,,,,,,,
297367,2022-12-07_15h05.47.506,vts_reward_expectancy_bt,2022.2.4,Win32,59.39653124,Chrome,1536,960,space,17.6303,,,,,,,,,,,,,,,,,,,,,,,,,,,,,,,,,,,,,,,,,,,,,,,,,,,,,,,,,,,,,,,,,,,,,,,,,,
297367,2022-12-07_15h05.47.506,vts_reward_expectancy_bt,2022.2.4,Win32,59.39653124,Chrome,1536,960,,,,,,,,,,,,,,,,,,,,,,,,,,,,,,,,,,,,,,,,,,,,,,,,,,,,,,,,,,,,,,,,,,,,,,,,,,,,
297367,2022-12-07_15h05.47.506,vts_reward_expectancy_bt,2022.2.4,Win32,59.39653124,Chrome,1536,960,,,a,1.6869,10,10,0,0,0,0,9,1,0,0,0,1,1,0,0,0,star,triangle,,,,,,,,,,,,,,,,,,,,,,,,,,,,,,,,,,,,,,,,,,,,,,,,,,,,,,
297367,2022-12-07_15h05.47.506,vts_reward_expectancy_bt,2022.2.4,Win32,59.39653124,Chrome,1536,960,,,l,1.8849,10,20,0,0,1,1,0,1,1,0,0,0,0,1,0,0,triangle,circle,,,,,,,,,,,,,,,,,,,,,,,,,,,,,,,,,,,,,,,,,,,,,,,,,,,,,,
297367,2022-12-07_15h05.47.506,vts_reward_expectancy_bt,2022.2.4,Win32,59.39653124,Chrome,1536,960,,,a,3.369,10,30,0,0,2,2,4,1,0,1,0,0,0,0,1,0,circle,hexagon,,,,,,,,,,,,,,,,,,,,,,,,,,,,,,,,,,,,,,,,,,,,,,,,,,,,,,
297367,2022-12-07_15h05.47.506,vts_reward_expectancy_bt,2022.2.4,Win32,59.39653124,Chrome,1536,960,,,l,2.0691,1,31,0,0,3,3,6,1,0,0,1,0,1,0,0,0,hexagon,triangle,,,,,,,,,,,,,,,,,,,,,,,,,,,,,,,,,,,,,,,,,,,,,,,,,,,,,,
297367,2022-12-07_15h05.47.506,vts_reward_expectancy_bt,2022.2.4,Win32,59.39653124,Chrome,1536,960,,,a,1.5346,1,32,0,0,4,4,10,1,0,0,0,1,0,1,0,0,star ,circle,,,,,,,,,,,,,,,,,,,,,,,,,,,,,,,,,,,,,,,,,,,,,,,,,,,,,,
297367,2022-12-07_15h05.47.506,vts_reward_expectancy_bt,2022.2.4,Win32,59.39653124,Chrome,1536,960,,,l,6.2486,1,33,0,0,5,5,11,1,0,0,0,1,0,0,1,0,star,hexagon,,,,,,,,,,,,,,,,,,,,,,,,,,,,,,,,,,,,,,,,,,,,,,,,,,,,,,
297367,2022-12-07_15h05.47.506,vts_reward_expectancy_bt,2022.2.4,Win32,59.39653124,Chrome,1536,960,,,a,1.8187,1,34,0,0,6,6,2,1,1,0,0,0,0,0,0,1,triangle,star,,,,,,,,,,,,,,,,,,,,,,,,,,,,,,,,,,,,,,,,,,,,,,,,,,,,,,
297367,2022-12-07_15h05.47.506,vts_reward_expectancy_bt,2022.2.4,Win32,59.39653124,Chrome,1536,960,,,l,1.7001,1,35,0,0,7,7,1,1,1,0,0,0,0,0,1,0,triangle,hexagon,,,,,,,,,,,,,,,,,,,,,,,,,,,,,,,,,,,,,,,,,,,,,,,,,,,,,,
297367,2022-12-07_15h05.47.506,vts_reward_expectancy_bt,2022.2.4,Win32,59.39653124,Chrome,1536,960,,,l,2.2124,1,36,0,0,8,8,7,1,0,0,1,0,0,1,0,0,hexagon,circle,,,,,,,,,,,,,,,,,,,,,,,,,,,,,,,,,,,,,,,,,,,,,,,,,,,,,,
297367,2022-12-07_15h05.47.506,vts_reward_expectancy_bt,2022.2.4,Win32,59.39653124,Chrome,1536,960,,,a,1.1263,1,37,0,0,9,9,8,1,0,0,1,0,0,0,0,1,hexagon,star,,,,,,,,,,,,,,,,,,,,,,,,,,,,,,,,,,,,,,,,,,,,,,,,,,,,,,
297367,2022-12-07_15h05.47.506,vts_reward_expectancy_bt,2022.2.4,Win32,59.39653124,Chrome,1536,960,,,l,2.6348,10,47,0,0,10,10,5,1,0,1,0,0,0,0,0,1,circle,star,,,,,,,,,,,,,,,,,,,,,,,,,,,,,,,,,,,,,,,,,,,,,,,,,,,,,,
297367,2022-12-07_15h05.47.506,vts_reward_expectancy_bt,2022.2.4,Win32,59.39653124,Chrome,1536,960,,,a,2.2523,10,57,0,0,11,11,3,1,0,1,0,0,1,0,0,0,circle,triangle,,,,,,,,,,,,,,,,,,,,,,,,,,,,,,,,,,,,,,,,,,,,,,,,,,,,,,
297367,2022-12-07_15h05.47.506,vts_reward_expectancy_bt,2022.2.4,Win32,59.39653124,Chrome,1536,960,,,l,4.0992,1,58,0,1,0,12,4,1,0,1,0,0,0,0,1,0,circle,hexagon,,,,,,,,,,,,,,,,,,,,,,,,,,,,,,,,,,,,,,,,,,,,,,,,,,,,,,
297367,2022-12-07_15h05.47.506,vts_reward_expectancy_bt,2022.2.4,Win32,59.39653124,Chrome,1536,960,,,l,1.4518,10,68,0,1,1,13,6,1,0,0,1,0,1,0,0,0,hexagon,triangle,,,,,,,,,,,,,,,,,,,,,,,,,,,,,,,,,,,,,,,,,,,,,,,,,,,,,,
297367,2022-12-07_15h05.47.506,vts_reward_expectancy_bt,2022.2.4,Win32,59.39653124,Chrome,1536,960,,,l,1.1846,10,78,0,1,2,14,8,1,0,0,1,0,0,0,0,1,hexagon,star,,,,,,,,,,,,,,,,,,,,,,,,,,,,,,,,,,,,,,,,,,,,,,,,,,,,,,
297367,2022-12-07_15h05.47.506,vts_reward_expectancy_bt,2022.2.4,Win32,59.39653124,Chrome,1536,960,,,a,2.8095,10,88,0,1,3,15,5,1,0,1,0,0,0,0,0,1,circle,star,,,,,,,,,,,,,,,,,,,,,,,,,,,,,,,,,,,,,,,,,,,,,,,,,,,,,,
297367,2022-12-07_15h05.47.506,vts_reward_expectancy_bt,2022.2.4,Win32,59.39653124,Chrome,1536,960,,,a,1.0852,10,98,0,1,4,16,10,1,0,0,0,1,0,1,0,0,star ,circle,,,,,,,,,,,,,,,,,,,,,,,,,,,,,,,,,,,,,,,,,,,,,,,,,,,,,,
297367,2022-12-07_15h05.47.506,vts_reward_expectancy_bt,2022.2.4,Win32,59.39653124,Chrome,1536,960,,,l,2.0391,10,108,0,1,5,17,1,1,1,0,0,0,0,0,1,0,triangle,hexagon,,,,,,,,,,,,,,,,,,,,,,,,,,,,,,,,,,,,,,,,,,,,,,,,,,,,,,
297367,2022-12-07_15h05.47.506,vts_reward_expectancy_bt,2022.2.4,Win32,59.39653124,Chrome,1536,960,,,l,5.1335,1,109,0,1,6,18,3,1,0,1,0,0,1,0,0,0,circle,triangle,,,,,,,,,,,,,,,,,,,,,,,,,,,,,,,,,,,,,,,,,,,,,,,,,,,,,,
297367,2022-12-07_15h05.47.506,vts_reward_expectancy_bt,2022.2.4,Win32,59.39653124,Chrome,1536,960,,,l,1.4467,10,119,0,1,7,19,2,1,1,0,0,0,0,0,0,1,triangle,star,,,,,,,,,,,,,,,,,,,,,,,,,,,,,,,,,,,,,,,,,,,,,,,,,,,,,,
297367,2022-12-07_15h05.47.506,vts_reward_expectancy_bt,2022.2.4,Win32,59.39653124,Chrome,1536,960,,,l,2.442,1,120,0,1,8,20,0,1,1,0,0,0,0,1,0,0,triangle,circle,,,,,,,,,,,,,,,,,,,,,,,,,,,,,,,,,,,,,,,,,,,,,,,,,,,,,,
297367,2022-12-07_15h05.47.506,vts_reward_expectancy_bt,2022.2.4,Win32,59.39653124,Chrome,1536,960,,,a,1.6847,10,130,0,1,9,21,9,1,0,0,0,1,1,0,0,0,star,triangle,,,,,,,,,,,,,,,,,,,,,,,,,,,,,,,,,,,,,,,,,,,,,,,,,,,,,,
297367,2022-12-07_15h05.47.506,vts_reward_expectancy_bt,2022.2.4,Win32,59.39653124,Chrome,1536,960,,,a,2.7022,1,131,0,1,10,22,7,1,0,0,1,0,0,1,0,0,hexagon,circle,,,,,,,,,,,,,,,,,,,,,,,,,,,,,,,,,,,,,,,,,,,,,,,,,,,,,,
297367,2022-12-07_15h05.47.506,vts_reward_expectancy_bt,2022.2.4,Win32,59.39653124,Chrome,1536,960,,,a,1.7021,1,132,0,1,11,23,11,1,0,0,0,1,0,0,1,0,star,hexagon,,,,,,,,,,,,,,,,,,,,,,,,,,,,,,,,,,,,,,,,,,,,,,,,,,,,,,
297367,2022-12-07_15h05.47.506,vts_reward_expectancy_bt,2022.2.4,Win32,59.39653124,Chrome,1536,960,,,l,0.9119,1,133,0,2,0,24,5,1,0,1,0,0,0,0,0,1,circle,star,,,,,,,,,,,,,,,,,,,,,,,,,,,,,,,,,,,,,,,,,,,,,,,,,,,,,,
297367,2022-12-07_15h05.47.506,vts_reward_expectancy_bt,2022.2.4,Win32,59.39653124,Chrome,1536,960,,,l,3.3191,1,134,0,2,1,25,4,1,0,1,0,0,0,0,1,0,circle,hexagon,,,,,,,,,,,,,,,,,,,,,,,,,,,,,,,,,,,,,,,,,,,,,,,,,,,,,,
297367,2022-12-07_15h05.47.506,vts_reward_expectancy_bt,2022.2.4,Win32,59.39653124,Chrome,1536,960,,,a,2.7688,1,135,0,2,2,26,10,1,0,0,0,1,0,1,0,0,star ,circle,,,,,,,,,,,,,,,,,,,,,,,,,,,,,,,,,,,,,,,,,,,,,,,,,,,,,,
297367,2022-12-07_15h05.47.506,vts_reward_expectancy_bt,2022.2.4,Win32,59.39653124,Chrome,1536,960,,,a,4.7019,1,136,0,2,3,27,6,1,0,0,1,0,1,0,0,0,hexagon,triangle,,,,,,,,,,,,,,,,,,,,,,,,,,,,,,,,,,,,,,,,,,,,,,,,,,,,,,
297367,2022-12-07_15h05.47.506,vts_reward_expectancy_bt,2022.2.4,Win32,59.39653124,Chrome,1536,960,,,a,3.0066,10,146,0,2,4,28,0,1,1,0,0,0,0,1,0,0,triangle,circle,,,,,,,,,,,,,,,,,,,,,,,,,,,,,,,,,,,,,,,,,,,,,,,,,,,,,,
297367,2022-12-07_15h05.47.506,vts_reward_expectancy_bt,2022.2.4,Win32,59.39653124,Chrome,1536,960,,,l,2.6178,1,147,0,2,5,29,3,1,0,1,0,0,1,0,0,0,circle,triangle,,,,,,,,,,,,,,,,,,,,,,,,,,,,,,,,,,,,,,,,,,,,,,,,,,,,,,
297367,2022-12-07_15h05.47.506,vts_reward_expectancy_bt,2022.2.4,Win32,59.39653124,Chrome,1536,960,,,a,3.3857,1,148,0,2,6,30,1,1,1,0,0,0,0,0,1,0,triangle,hexagon,,,,,,,,,,,,,,,,,,,,,,,,,,,,,,,,,,,,,,,,,,,,,,,,,,,,,,
297367,2022-12-07_15h05.47.506,vts_reward_expectancy_bt,2022.2.4,Win32,59.39653124,Chrome,1536,960,,,l,4.4479,10,158,0,2,7,31,7,1,0,0,1,0,0,1,0,0,hexagon,circle,,,,,,,,,,,,,,,,,,,,,,,,,,,,,,,,,,,,,,,,,,,,,,,,,,,,,,
297367,2022-12-07_15h05.47.506,vts_reward_expectancy_bt,2022.2.4,Win32,59.39653124,Chrome,1536,960,,,a,1.1206,10,168,0,2,8,32,11,1,0,0,0,1,0,0,1,0,star,hexagon,,,,,,,,,,,,,,,,,,,,,,,,,,,,,,,,,,,,,,,,,,,,,,,,,,,,,,
297367,2022-12-07_15h05.47.506,vts_reward_expectancy_bt,2022.2.4,Win32,59.39653124,Chrome,1536,960,,,l,1.2191,10,178,0,2,9,33,8,1,0,0,1,0,0,0,0,1,hexagon,star,,,,,,,,,,,,,,,,,,,,,,,,,,,,,,,,,,,,,,,,,,,,,,,,,,,,,,
297367,2022-12-07_15h05.47.506,vts_reward_expectancy_bt,2022.2.4,Win32,59.39653124,Chrome,1536,960,,,a,2.1719,1,179,0,2,10,34,2,1,1,0,0,0,0,0,0,1,triangle,star,,,,,,,,,,,,,,,,,,,,,,,,,,,,,,,,,,,,,,,,,,,,,,,,,,,,,,
297367,2022-12-07_15h05.47.506,vts_reward_expectancy_bt,2022.2.4,Win32,59.39653124,Chrome,1536,960,,,l,1.405,1,180,0,2,11,35,9,1,0,0,0,1,1,0,0,0,star,triangle,,,,,,,,,,,,,,,,,,,,,,,,,,,,,,,,,,,,,,,,,,,,,,,,,,,,,,
297367,2022-12-07_15h05.47.506,vts_reward_expectancy_bt,2022.2.4,Win32,59.39653124,Chrome,1536,960,,,l,1.9662,1,181,1,0,0,0,2,1,1,0,0,0,0,0,0,1,triangle,star,,,,,,,,,,,,,,,,,,,,,,,,,,,,,,,,,,,,,,,,,,,,,,,,,,,,,,
297367,2022-12-07_15h05.47.506,vts_reward_expectancy_bt,2022.2.4,Win32,59.39653124,Chrome,1536,960,,,a,2.1671,1,182,1,0,1,1,8,1,0,0,1,0,0,0,0,1,hexagon,star,,,,,,,,,,,,,,,,,,,,,,,,,,,,,,,,,,,,,,,,,,,,,,,,,,,,,,
297367,2022-12-07_15h05.47.506,vts_reward_expectancy_bt,2022.2.4,Win32,59.39653124,Chrome,1536,960,,,a,1.3849,10,192,1,0,2,2,4,1,0,1,0,0,0,0,1,0,circle,hexagon,,,,,,,,,,,,,,,,,,,,,,,,,,,,,,,,,,,,,,,,,,,,,,,,,,,,,,
297367,2022-12-07_15h05.47.506,vts_reward_expectancy_bt,2022.2.4,Win32,59.39653124,Chrome,1536,960,,,l,1.4262,1,193,1,0,3,3,11,1,0,0,0,1,0,0,1,0,star,hexagon,,,,,,,,,,,,,,,,,,,,,,,,,,,,,,,,,,,,,,,,,,,,,,,,,,,,,,
297367,2022-12-07_15h05.47.506,vts_reward_expectancy_bt,2022.2.4,Win32,59.39653124,Chrome,1536,960,,,a,1.6854,10,203,1,0,4,4,6,1,0,0,1,0,1,0,0,0,hexagon,triangle,,,,,,,,,,,,,,,,,,,,,,,,,,,,,,,,,,,,,,,,,,,,,,,,,,,,,,
297367,2022-12-07_15h05.47.506,vts_reward_expectancy_bt,2022.2.4,Win32,59.39653124,Chrome,1536,960,,,l,2.0678,10,213,1,0,5,5,10,1,0,0,0,1,0,1,0,0,star ,circle,,,,,,,,,,,,,,,,,,,,,,,,,,,,,,,,,,,,,,,,,,,,,,,,,,,,,,
297367,2022-12-07_15h05.47.506,vts_reward_expectancy_bt,2022.2.4,Win32,59.39653124,Chrome,1536,960,,,l,2.8859,1,214,1,0,6,6,5,1,0,1,0,0,0,0,0,1,circle,star,,,,,,,,,,,,,,,,,,,,,,,,,,,,,,,,,,,,,,,,,,,,,,,,,,,,,,
297367,2022-12-07_15h05.47.506,vts_reward_expectancy_bt,2022.2.4,Win32,59.39653124,Chrome,1536,960,,,a,2.1215,10,224,1,0,7,7,9,1,0,0,0,1,1,0,0,0,star,triangle,,,,,,,,,,,,,,,,,,,,,,,,,,,,,,,,,,,,,,,,,,,,,,,,,,,,,,
297367,2022-12-07_15h05.47.506,vts_reward_expectancy_bt,2022.2.4,Win32,59.39653124,Chrome,1536,960,,,l,6.0532,10,234,1,0,8,8,0,1,1,0,0,0,0,1,0,0,triangle,circle,,,,,,,,,,,,,,,,,,,,,,,,,,,,,,,,,,,,,,,,,,,,,,,,,,,,,,
297367,2022-12-07_15h05.47.506,vts_reward_expectancy_bt,2022.2.4,Win32,59.39653124,Chrome,1536,960,,,l,5.5001,1,235,1,0,9,9,1,1,1,0,0,0,0,0,1,0,triangle,hexagon,,,,,,,,,,,,,,,,,,,,,,,,,,,,,,,,,,,,,,,,,,,,,,,,,,,,,,
297367,2022-12-07_15h05.47.506,vts_reward_expectancy_bt,2022.2.4,Win32,59.39653124,Chrome,1536,960,,,l,2.4988,10,245,1,0,10,10,7,1,0,0,1,0,0,1,0,0,hexagon,circle,,,,,,,,,,,,,,,,,,,,,,,,,,,,,,,,,,,,,,,,,,,,,,,,,,,,,,
297367,2022-12-07_15h05.47.506,vts_reward_expectancy_bt,2022.2.4,Win32,59.39653124,Chrome,1536,960,,,l,3.7526,1,246,1,0,11,11,3,1,0,1,0,0,1,0,0,0,circle,triangle,,,,,,,,,,,,,,,,,,,,,,,,,,,,,,,,,,,,,,,,,,,,,,,,,,,,,,
297367,2022-12-07_15h05.47.506,vts_reward_expectancy_bt,2022.2.4,Win32,59.39653124,Chrome,1536,960,,,a,1.4994,10,256,1,1,0,12,9,1,0,0,0,1,1,0,0,0,star,triangle,,,,,,,,,,,,,,,,,,,,,,,,,,,,,,,,,,,,,,,,,,,,,,,,,,,,,,
297367,2022-12-07_15h05.47.506,vts_reward_expectancy_bt,2022.2.4,Win32,59.39653124,Chrome,1536,960,,,a,2.5344,10,266,1,1,1,13,3,1,0,1,0,0,1,0,0,0,circle,triangle,,,,,,,,,,,,,,,,,,,,,,,,,,,,,,,,,,,,,,,,,,,,,,,,,,,,,,
297367,2022-12-07_15h05.47.506,vts_reward_expectancy_bt,2022.2.4,Win32,59.39653124,Chrome,1536,960,,,l,1.9217,10,276,1,1,2,14,2,1,1,0,0,0,0,0,0,1,triangle,star,,,,,,,,,,,,,,,,,,,,,,,,,,,,,,,,,,,,,,,,,,,,,,,,,,,,,,
297367,2022-12-07_15h05.47.506,vts_reward_expectancy_bt,2022.2.4,Win32,59.39653124,Chrome,1536,960,,,a,3.5491,1,277,1,1,3,15,6,1,0,0,1,0,1,0,0,0,hexagon,triangle,,,,,,,,,,,,,,,,,,,,,,,,,,,,,,,,,,,,,,,,,,,,,,,,,,,,,,
297367,2022-12-07_15h05.47.506,vts_reward_expectancy_bt,2022.2.4,Win32,59.39653124,Chrome,1536,960,,,l,1.3992,10,287,1,1,4,16,8,1,0,0,1,0,0,0,0,1,hexagon,star,,,,,,,,,,,,,,,,,,,,,,,,,,,,,,,,,,,,,,,,,,,,,,,,,,,,,,
297367,2022-12-07_15h05.47.506,vts_reward_expectancy_bt,2022.2.4,Win32,59.39653124,Chrome,1536,960,,,a,3.3026,10,297,1,1,5,17,4,1,0,1,0,0,0,0,1,0,circle,hexagon,,,,,,,,,,,,,,,,,,,,,,,,,,,,,,,,,,,,,,,,,,,,,,,,,,,,,,
297367,2022-12-07_15h05.47.506,vts_reward_expectancy_bt,2022.2.4,Win32,59.39653124,Chrome,1536,960,,,a,2.8987,10,307,1,1,6,18,10,1,0,0,0,1,0,1,0,0,star ,circle,,,,,,,,,,,,,,,,,,,,,,,,,,,,,,,,,,,,,,,,,,,,,,,,,,,,,,
297367,2022-12-07_15h05.47.506,vts_reward_expectancy_bt,2022.2.4,Win32,59.39653124,Chrome,1536,960,,,l,2.9481,10,317,1,1,7,19,1,1,1,0,0,0,0,0,1,0,triangle,hexagon,,,,,,,,,,,,,,,,,,,,,,,,,,,,,,,,,,,,,,,,,,,,,,,,,,,,,,
297367,2022-12-07_15h05.47.506,vts_reward_expectancy_bt,2022.2.4,Win32,59.39653124,Chrome,1536,960,,,a,2.4497,1,318,1,1,8,20,11,1,0,0,0,1,0,0,1,0,star,hexagon,,,,,,,,,,,,,,,,,,,,,,,,,,,,,,,,,,,,,,,,,,,,,,,,,,,,,,
297367,2022-12-07_15h05.47.506,vts_reward_expectancy_bt,2022.2.4,Win32,59.39653124,Chrome,1536,960,,,l,6.0868,10,328,1,1,9,21,5,1,0,1,0,0,0,0,0,1,circle,star,,,,,,,,,,,,,,,,,,,,,,,,,,,,,,,,,,,,,,,,,,,,,,,,,,,,,,
297367,2022-12-07_15h05.47.506,vts_reward_expectancy_bt,2022.2.4,Win32,59.39653124,Chrome,1536,960,,,l,3.3968,10,338,1,1,10,22,0,1,1,0,0,0,0,1,0,0,triangle,circle,,,,,,,,,,,,,,,,,,,,,,,,,,,,,,,,,,,,,,,,,,,,,,,,,,,,,,
297367,2022-12-07_15h05.47.506,vts_reward_expectancy_bt,2022.2.4,Win32,59.39653124,Chrome,1536,960,,,a,2.4086,1,339,1,1,11,23,7,1,0,0,1,0,0,1,0,0,hexagon,circle,,,,,,,,,,,,,,,,,,,,,,,,,,,,,,,,,,,,,,,,,,,,,,,,,,,,,,
297367,2022-12-07_15h05.47.506,vts_reward_expectancy_bt,2022.2.4,Win32,59.39653124,Chrome,1536,960,,,l,2.9357,10,349,1,2,0,24,2,1,1,0,0,0,0,0,0,1,triangle,star,,,,,,,,,,,,,,,,,,,,,,,,,,,,,,,,,,,,,,,,,,,,,,,,,,,,,,
297367,2022-12-07_15h05.47.506,vts_reward_expectancy_bt,2022.2.4,Win32,59.39653124,Chrome,1536,960,,,l,4.959,1,350,1,2,1,25,4,1,0,1,0,0,0,0,1,0,circle,hexagon,,,,,,,,,,,,,,,,,,,,,,,,,,,,,,,,,,,,,,,,,,,,,,,,,,,,,,
297367,2022-12-07_15h05.47.506,vts_reward_expectancy_bt,2022.2.4,Win32,59.39653124,Chrome,1536,960,,,l,1.4263,10,360,1,2,2,26,5,1,0,1,0,0,0,0,0,1,circle,star,,,,,,,,,,,,,,,,,,,,,,,,,,,,,,,,,,,,,,,,,,,,,,,,,,,,,,
297367,2022-12-07_15h05.47.506,vts_reward_expectancy_bt,2022.2.4,Win32,59.39653124,Chrome,1536,960,,,a,4.4514,1,361,1,2,3,27,1,1,1,0,0,0,0,0,1,0,triangle,hexagon,,,,,,,,,,,,,,,,,,,,,,,,,,,,,,,,,,,,,,,,,,,,,,,,,,,,,,
297367,2022-12-07_15h05.47.506,vts_reward_expectancy_bt,2022.2.4,Win32,59.39653124,Chrome,1536,960,,,l,2.3694,1,362,1,2,4,28,6,1,0,0,1,0,1,0,0,0,hexagon,triangle,,,,,,,,,,,,,,,,,,,,,,,,,,,,,,,,,,,,,,,,,,,,,,,,,,,,,,
297367,2022-12-07_15h05.47.506,vts_reward_expectancy_bt,2022.2.4,Win32,59.39653124,Chrome,1536,960,,,l,2.3975,10,372,1,2,5,29,7,1,0,0,1,0,0,1,0,0,hexagon,circle,,,,,,,,,,,,,,,,,,,,,,,,,,,,,,,,,,,,,,,,,,,,,,,,,,,,,,
297367,2022-12-07_15h05.47.506,vts_reward_expectancy_bt,2022.2.4,Win32,59.39653124,Chrome,1536,960,,,a,0.7314,10,382,1,2,6,30,10,1,0,0,0,1,0,1,0,0,star ,circle,,,,,,,,,,,,,,,,,,,,,,,,,,,,,,,,,,,,,,,,,,,,,,,,,,,,,,
297367,2022-12-07_15h05.47.506,vts_reward_expectancy_bt,2022.2.4,Win32,59.39653124,Chrome,1536,960,,,a,2.6352,10,392,1,2,7,31,3,1,0,1,0,0,1,0,0,0,circle,triangle,,,,,,,,,,,,,,,,,,,,,,,,,,,,,,,,,,,,,,,,,,,,,,,,,,,,,,
297367,2022-12-07_15h05.47.506,vts_reward_expectancy_bt,2022.2.4,Win32,59.39653124,Chrome,1536,960,,,l,1.1844,10,402,1,2,8,32,0,1,1,0,0,0,0,1,0,0,triangle,circle,,,,,,,,,,,,,,,,,,,,,,,,,,,,,,,,,,,,,,,,,,,,,,,,,,,,,,
297367,2022-12-07_15h05.47.506,vts_reward_expectancy_bt,2022.2.4,Win32,59.39653124,Chrome,1536,960,,,a,0.8349,10,412,1,2,9,33,11,1,0,0,0,1,0,0,1,0,star,hexagon,,,,,,,,,,,,,,,,,,,,,,,,,,,,,,,,,,,,,,,,,,,,,,,,,,,,,,
297367,2022-12-07_15h05.47.506,vts_reward_expectancy_bt,2022.2.4,Win32,59.39653124,Chrome,1536,960,,,l,1.466,10,422,1,2,10,34,8,1,0,0,1,0,0,0,0,1,hexagon,star,,,,,,,,,,,,,,,,,,,,,,,,,,,,,,,,,,,,,,,,,,,,,,,,,,,,,,
297367,2022-12-07_15h05.47.506,vts_reward_expectancy_bt,2022.2.4,Win32,59.39653124,Chrome,1536,960,,,a,1.5977,10,432,1,2,11,35,9,1,0,0,0,1,1,0,0,0,star,triangle,,,,,,,,,,,,,,,,,,,,,,,,,,,,,,,,,,,,,,,,,,,,,,,,,,,,,,
297367,2022-12-07_15h05.47.506,vts_reward_expectancy_bt,2022.2.4,Win32,59.39653124,Chrome,1536,960,,,a,1.7852,10,442,2,0,0,0,3,1,0,1,0,0,1,0,0,0,circle,triangle,,,,,,,,,,,,,,,,,,,,,,,,,,,,,,,,,,,,,,,,,,,,,,,,,,,,,,
297367,2022-12-07_15h05.47.506,vts_reward_expectancy_bt,2022.2.4,Win32,59.39653124,Chrome,1536,960,,,l,0.6715,10,452,2,0,1,1,8,1,0,0,1,0,0,0,0,1,hexagon,star,,,,,,,,,,,,,,,,,,,,,,,,,,,,,,,,,,,,,,,,,,,,,,,,,,,,,,
297367,2022-12-07_15h05.47.506,vts_reward_expectancy_bt,2022.2.4,Win32,59.39653124,Chrome,1536,960,,,a,0.8978,1,453,2,0,2,2,9,1,0,0,0,1,1,0,0,0,star,triangle,,,,,,,,,,,,,,,,,,,,,,,,,,,,,,,,,,,,,,,,,,,,,,,,,,,,,,
297367,2022-12-07_15h05.47.506,vts_reward_expectancy_bt,2022.2.4,Win32,59.39653124,Chrome,1536,960,,,a,1.9351,10,463,2,0,3,3,4,1,0,1,0,0,0,0,1,0,circle,hexagon,,,,,,,,,,,,,,,,,,,,,,,,,,,,,,,,,,,,,,,,,,,,,,,,,,,,,,
297367,2022-12-07_15h05.47.506,vts_reward_expectancy_bt,2022.2.4,Win32,59.39653124,Chrome,1536,960,,,l,1.5544,1,464,2,0,4,4,7,1,0,0,1,0,0,1,0,0,hexagon,circle,,,,,,,,,,,,,,,,,,,,,,,,,,,,,,,,,,,,,,,,,,,,,,,,,,,,,,
297367,2022-12-07_15h05.47.506,vts_reward_expectancy_bt,2022.2.4,Win32,59.39653124,Chrome,1536,960,,,a,0.7479,1,465,2,0,5,5,11,1,0,0,0,1,0,0,1,0,star,hexagon,,,,,,,,,,,,,,,,,,,,,,,,,,,,,,,,,,,,,,,,,,,,,,,,,,,,,,
297367,2022-12-07_15h05.47.506,vts_reward_expectancy_bt,2022.2.4,Win32,59.39653124,Chrome,1536,960,,,l,1.1874,10,475,2,0,6,6,5,1,0,1,0,0,0,0,0,1,circle,star,,,,,,,,,,,,,,,,,,,,,,,,,,,,,,,,,,,,,,,,,,,,,,,,,,,,,,
297367,2022-12-07_15h05.47.506,vts_reward_expectancy_bt,2022.2.4,Win32,59.39653124,Chrome,1536,960,,,l,0.9927,10,485,2,0,7,7,2,1,1,0,0,0,0,0,0,1,triangle,star,,,,,,,,,,,,,,,,,,,,,,,,,,,,,,,,,,,,,,,,,,,,,,,,,,,,,,
297367,2022-12-07_15h05.47.506,vts_reward_expectancy_bt,2022.2.4,Win32,59.39653124,Chrome,1536,960,,,l,2.2006,1,486,2,0,8,8,1,1,1,0,0,0,0,0,1,0,triangle,hexagon,,,,,,,,,,,,,,,,,,,,,,,,,,,,,,,,,,,,,,,,,,,,,,,,,,,,,,
297367,2022-12-07_15h05.47.506,vts_reward_expectancy_bt,2022.2.4,Win32,59.39653124,Chrome,1536,960,,,l,1.0518,10,496,2,0,9,9,0,1,1,0,0,0,0,1,0,0,triangle,circle,,,,,,,,,,,,,,,,,,,,,,,,,,,,,,,,,,,,,,,,,,,,,,,,,,,,,,
297367,2022-12-07_15h05.47.506,vts_reward_expectancy_bt,2022.2.4,Win32,59.39653124,Chrome,1536,960,,,a,4.6545,10,506,2,0,10,10,6,1,0,0,1,0,1,0,0,0,hexagon,triangle,,,,,,,,,,,,,,,,,,,,,,,,,,,,,,,,,,,,,,,,,,,,,,,,,,,,,,
297367,2022-12-07_15h05.47.506,vts_reward_expectancy_bt,2022.2.4,Win32,59.39653124,Chrome,1536,960,,,a,2.4852,10,516,2,0,11,11,10,1,0,0,0,1,0,1,0,0,star ,circle,,,,,,,,,,,,,,,,,,,,,,,,,,,,,,,,,,,,,,,,,,,,,,,,,,,,,,
297367,2022-12-07_15h05.47.506,vts_reward_expectancy_bt,2022.2.4,Win32,59.39653124,Chrome,1536,960,,,a,1.0815,1,517,2,1,0,12,4,1,0,1,0,0,0,0,1,0,circle,hexagon,,,,,,,,,,,,,,,,,,,,,,,,,,,,,,,,,,,,,,,,,,,,,,,,,,,,,,
297367,2022-12-07_15h05.47.506,vts_reward_expectancy_bt,2022.2.4,Win32,59.39653124,Chrome,1536,960,,,l,2.7524,10,527,2,1,1,13,1,1,1,0,0,0,0,0,1,0,triangle,hexagon,,,,,,,,,,,,,,,,,,,,,,,,,,,,,,,,,,,,,,,,,,,,,,,,,,,,,,
297367,2022-12-07_15h05.47.506,vts_reward_expectancy_bt,2022.2.4,Win32,59.39653124,Chrome,1536,960,,,a,1.2663,10,537,2,1,2,14,3,1,0,1,0,0,1,0,0,0,circle,triangle,,,,,,,,,,,,,,,,,,,,,,,,,,,,,,,,,,,,,,,,,,,,,,,,,,,,,,
297367,2022-12-07_15h05.47.506,vts_reward_expectancy_bt,2022.2.4,Win32,59.39653124,Chrome,1536,960,,,l,0.8734,10,547,2,1,3,15,5,1,0,1,0,0,0,0,0,1,circle,star,,,,,,,,,,,,,,,,,,,,,,,,,,,,,,,,,,,,,,,,,,,,,,,,,,,,,,
297367,2022-12-07_15h05.47.506,vts_reward_expectancy_bt,2022.2.4,Win32,59.39653124,Chrome,1536,960,,,a,1.7853,1,548,2,1,4,16,6,1,0,0,1,0,1,0,0,0,hexagon,triangle,,,,,,,,,,,,,,,,,,,,,,,,,,,,,,,,,,,,,,,,,,,,,,,,,,,,,,
297367,2022-12-07_15h05.47.506,vts_reward_expectancy_bt,2022.2.4,Win32,59.39653124,Chrome,1536,960,,,l,1.5975,10,558,2,1,5,17,2,1,1,0,0,0,0,0,0,1,triangle,star,,,,,,,,,,,,,,,,,,,,,,,,,,,,,,,,,,,,,,,,,,,,,,,,,,,,,,
297367,2022-12-07_15h05.47.506,vts_reward_expectancy_bt,2022.2.4,Win32,59.39653124,Chrome,1536,960,,,l,0.9678,1,559,2,1,6,18,8,1,0,0,1,0,0,0,0,1,hexagon,star,,,,,,,,,,,,,,,,,,,,,,,,,,,,,,,,,,,,,,,,,,,,,,,,,,,,,,
297367,2022-12-07_15h05.47.506,vts_reward_expectancy_bt,2022.2.4,Win32,59.39653124,Chrome,1536,960,,,a,0.8172,10,569,2,1,7,19,9,1,0,0,0,1,1,0,0,0,star,triangle,,,,,,,,,,,,,,,,,,,,,,,,,,,,,,,,,,,,,,,,,,,,,,,,,,,,,,
297367,2022-12-07_15h05.47.506,vts_reward_expectancy_bt,2022.2.4,Win32,59.39653124,Chrome,1536,960,,,a,3.2351,1,570,2,1,8,20,11,1,0,0,0,1,0,0,1,0,star,hexagon,,,,,,,,,,,,,,,,,,,,,,,,,,,,,,,,,,,,,,,,,,,,,,,,,,,,,,
297367,2022-12-07_15h05.47.506,vts_reward_expectancy_bt,2022.2.4,Win32,59.39653124,Chrome,1536,960,,,a,2.1022,1,571,2,1,9,21,0,1,1,0,0,0,0,1,0,0,triangle,circle,,,,,,,,,,,,,,,,,,,,,,,,,,,,,,,,,,,,,,,,,,,,,,,,,,,,,,
297367,2022-12-07_15h05.47.506,vts_reward_expectancy_bt,2022.2.4,Win32,59.39653124,Chrome,1536,960,,,l,1.0324,1,572,2,1,10,22,7,1,0,0,1,0,0,1,0,0,hexagon,circle,,,,,,,,,,,,,,,,,,,,,,,,,,,,,,,,,,,,,,,,,,,,,,,,,,,,,,
297367,2022-12-07_15h05.47.506,vts_reward_expectancy_bt,2022.2.4,Win32,59.39653124,Chrome,1536,960,,,a,0.6852,1,573,2,1,11,23,10,1,0,0,0,1,0,1,0,0,star ,circle,,,,,,,,,,,,,,,,,,,,,,,,,,,,,,,,,,,,,,,,,,,,,,,,,,,,,,
297367,2022-12-07_15h05.47.506,vts_reward_expectancy_bt,2022.2.4,Win32,59.39653124,Chrome,1536,960,,,l,3.4021,1,574,2,2,0,24,6,1,0,0,1,0,1,0,0,0,hexagon,triangle,,,,,,,,,,,,,,,,,,,,,,,,,,,,,,,,,,,,,,,,,,,,,,,,,,,,,,
297367,2022-12-07_15h05.47.506,vts_reward_expectancy_bt,2022.2.4,Win32,59.39653124,Chrome,1536,960,,,l,1.0195,10,584,2,2,1,25,2,1,1,0,0,0,0,0,0,1,triangle,star,,,,,,,,,,,,,,,,,,,,,,,,,,,,,,,,,,,,,,,,,,,,,,,,,,,,,,
297367,2022-12-07_15h05.47.506,vts_reward_expectancy_bt,2022.2.4,Win32,59.39653124,Chrome,1536,960,,,a,1.0074,10,594,2,2,2,26,3,1,0,1,0,0,1,0,0,0,circle,triangle,,,,,,,,,,,,,,,,,,,,,,,,,,,,,,,,,,,,,,,,,,,,,,,,,,,,,,
297367,2022-12-07_15h05.47.506,vts_reward_expectancy_bt,2022.2.4,Win32,59.39653124,Chrome,1536,960,,,a,1.3006,10,604,2,2,3,27,4,1,0,1,0,0,0,0,1,0,circle,hexagon,,,,,,,,,,,,,,,,,,,,,,,,,,,,,,,,,,,,,,,,,,,,,,,,,,,,,,
297367,2022-12-07_15h05.47.506,vts_reward_expectancy_bt,2022.2.4,Win32,59.39653124,Chrome,1536,960,,,a,1.109,10,614,2,2,4,28,11,1,0,0,0,1,0,0,1,0,star,hexagon,,,,,,,,,,,,,,,,,,,,,,,,,,,,,,,,,,,,,,,,,,,,,,,,,,,,,,
297367,2022-12-07_15h05.47.506,vts_reward_expectancy_bt,2022.2.4,Win32,59.39653124,Chrome,1536,960,,,a,1.6875,1,615,2,2,5,29,7,1,0,0,1,0,0,1,0,0,hexagon,circle,,,,,,,,,,,,,,,,,,,,,,,,,,,,,,,,,,,,,,,,,,,,,,,,,,,,,,
297367,2022-12-07_15h05.47.506,vts_reward_expectancy_bt,2022.2.4,Win32,59.39653124,Chrome,1536,960,,,a,0.8184,10,625,2,2,6,30,9,1,0,0,0,1,1,0,0,0,star,triangle,,,,,,,,,,,,,,,,,,,,,,,,,,,,,,,,,,,,,,,,,,,,,,,,,,,,,,
297367,2022-12-07_15h05.47.506,vts_reward_expectancy_bt,2022.2.4,Win32,59.39653124,Chrome,1536,960,,,l,2.869,10,635,2,2,7,31,1,1,1,0,0,0,0,0,1,0,triangle,hexagon,,,,,,,,,,,,,,,,,,,,,,,,,,,,,,,,,,,,,,,,,,,,,,,,,,,,,,
297367,2022-12-07_15h05.47.506,vts_reward_expectancy_bt,2022.2.4,Win32,59.39653124,Chrome,1536,960,,,l,1.7233,10,645,2,2,8,32,0,1,1,0,0,0,0,1,0,0,triangle,circle,,,,,,,,,,,,,,,,,,,,,,,,,,,,,,,,,,,,,,,,,,,,,,,,,,,,,,
297367,2022-12-07_15h05.47.506,vts_reward_expectancy_bt,2022.2.4,Win32,59.39653124,Chrome,1536,960,,,a,1.6161,1,646,2,2,9,33,8,1,0,0,1,0,0,0,0,1,hexagon,star,,,,,,,,,,,,,,,,,,,,,,,,,,,,,,,,,,,,,,,,,,,,,,,,,,,,,,
297367,2022-12-07_15h05.47.506,vts_reward_expectancy_bt,2022.2.4,Win32,59.39653124,Chrome,1536,960,,,l,1.1369,10,656,2,2,10,34,5,1,0,1,0,0,0,0,0,1,circle,star,,,,,,,,,,,,,,,,,,,,,,,,,,,,,,,,,,,,,,,,,,,,,,,,,,,,,,
297367,2022-12-07_15h05.47.506,vts_reward_expectancy_bt,2022.2.4,Win32,59.39653124,Chrome,1536,960,,,a,0.761,10,666,2,2,11,35,10,1,0,0,0,1,0,1,0,0,star ,circle,,,,,,,,,,,,,,,,,,,,,,,,,,,,,,,,,,,,,,,,,,,,,,,,,,,,,,
297367,2022-12-07_15h05.47.506,vts_reward_expectancy_bt,2022.2.4,Win32,59.39653124,Chrome,1536,960,,,,,,,,,,,,,,,,,,,,,,,125,F,triangle,0,0,f,2.0736,0,0,0,0,0,1,,,,,,,,,,,,,,,,,,,,,,,,,,,,,,,,,,,,,,,,,
297367,2022-12-07_15h05.47.506,vts_reward_expectancy_bt,2022.2.4,Win32,59.39653124,Chrome,1536,960,,,,,,,,,,,,,,,,,,,,,,,160,D,star,0,1,d,1.0048,0,1,0,1,0,1,,,,,,,,,,,,,,,,,,,,,,,,,,,,,,,,,,,,,,,,,
297367,2022-12-07_15h05.47.506,vts_reward_expectancy_bt,2022.2.4,Win32,59.39653124,Chrome,1536,960,,,,,,,,,,,,,,,,,,,,,,,139,S,circle,0,1,f,1.7346,0,2,0,2,0,1,,,,,,,,,,,,,,,,,,,,,,,,,,,,,,,,,,,,,,,,,
297367,2022-12-07_15h05.47.506,vts_reward_expectancy_bt,2022.2.4,Win32,59.39653124,Chrome,1536,960,,,,,,,,,,,,,,,,,,,,,,,146,U,hexagon,1,1,d,1.1039,0,3,0,3,0,1,,,,,,,,,,,,,,,,,,,,,,,,,,,,,,,,,,,,,,,,,
297367,2022-12-07_15h05.47.506,vts_reward_expectancy_bt,2022.2.4,Win32,59.39653124,Chrome,1536,960,,,,,,,,,,,,,,,,,,,,,,,181,B,triangle,1,0,f,1.0212,0,4,0,4,0,1,,,,,,,,,,,,,,,,,,,,,,,,,,,,,,,,,,,,,,,,,
297367,2022-12-07_15h05.47.506,vts_reward_expectancy_bt,2022.2.4,Win32,59.39653124,Chrome,1536,960,,,,,,,,,,,,,,,,,,,,,,,167,W,star,1,0,f,0.9013,0,5,0,5,0,1,,,,,,,,,,,,,,,,,,,,,,,,,,,,,,,,,,,,,,,,,
297367,2022-12-07_15h05.47.506,vts_reward_expectancy_bt,2022.2.4,Win32,59.39653124,Chrome,1536,960,,,,,,,,,,,,,,,,,,,,,,,132,H,circle,1,0,d,0.8849,0,6,0,6,0,1,,,,,,,,,,,,,,,,,,,,,,,,,,,,,,,,,,,,,,,,,
297367,2022-12-07_15h05.47.506,vts_reward_expectancy_bt,2022.2.4,Win32,59.39653124,Chrome,1536,960,,,,,,,,,,,,,,,,,,,,,,,174,Y,hexagon,1,0,f,0.767,0,7,0,7,0,1,,,,,,,,,,,,,,,,,,,,,,,,,,,,,,,,,,,,,,,,,
297367,2022-12-07_15h05.47.506,vts_reward_expectancy_bt,2022.2.4,Win32,59.39653124,Chrome,1536,960,,,,,,,,,,,,,,,,,,,,,,,125,F,circle,1,0,d,0.7339,0,8,0,8,0,1,,,,,,,,,,,,,,,,,,,,,,,,,,,,,,,,,,,,,,,,,
297367,2022-12-07_15h05.47.506,vts_reward_expectancy_bt,2022.2.4,Win32,59.39653124,Chrome,1536,960,,,,,,,,,,,,,,,,,,,,,,,160,D,star,0,0,d,1.2351,0,9,0,9,0,1,,,,,,,,,,,,,,,,,,,,,,,,,,,,,,,,,,,,,,,,,
297367,2022-12-07_15h05.47.506,vts_reward_expectancy_bt,2022.2.4,Win32,59.39653124,Chrome,1536,960,,,,,,,,,,,,,,,,,,,,,,,181,H,circle,1,1,f,0.6785,1,0,0,0,0,1,,,,,,,,,,,,,,,,,,,,,,,,,,,,,,,,,,,,,,,,,
297367,2022-12-07_15h05.47.506,vts_reward_expectancy_bt,2022.2.4,Win32,59.39653124,Chrome,1536,960,,,,,,,,,,,,,,,,,,,,,,,160,U,triangle,1,0,f,0.864,1,1,0,1,0,1,,,,,,,,,,,,,,,,,,,,,,,,,,,,,,,,,,,,,,,,,
297367,2022-12-07_15h05.47.506,vts_reward_expectancy_bt,2022.2.4,Win32,59.39653124,Chrome,1536,960,,,,,,,,,,,,,,,,,,,,,,,174,B,star,1,0,f,0.7338,1,2,0,2,0,1,,,,,,,,,,,,,,,,,,,,,,,,,,,,,,,,,,,,,,,,,
297367,2022-12-07_15h05.47.506,vts_reward_expectancy_bt,2022.2.4,Win32,59.39653124,Chrome,1536,960,,,,,,,,,,,,,,,,,,,,,,,139,F,hexagon,1,0,d,0.4983,1,3,0,3,0,1,,,,,,,,,,,,,,,,,,,,,,,,,,,,,,,,,,,,,,,,,
297367,2022-12-07_15h05.47.506,vts_reward_expectancy_bt,2022.2.4,Win32,59.39653124,Chrome,1536,960,,,,,,,,,,,,,,,,,,,,,,,125,D,circle,1,0,d,0.7809,1,4,0,4,0,1,,,,,,,,,,,,,,,,,,,,,,,,,,,,,,,,,,,,,,,,,
297367,2022-12-07_15h05.47.506,vts_reward_expectancy_bt,2022.2.4,Win32,59.39653124,Chrome,1536,960,,,,,,,,,,,,,,,,,,,,,,,146,Y,triangle,1,0,d,1.0691,1,5,0,5,0,1,,,,,,,,,,,,,,,,,,,,,,,,,,,,,,,,,,,,,,,,,
297367,2022-12-07_15h05.47.506,vts_reward_expectancy_bt,2022.2.4,Win32,59.39653124,Chrome,1536,960,,,,,,,,,,,,,,,,,,,,,,,132,S,star,1,0,d,0.8186,1,6,0,6,0,1,,,,,,,,,,,,,,,,,,,,,,,,,,,,,,,,,,,,,,,,,
297367,2022-12-07_15h05.47.506,vts_reward_expectancy_bt,2022.2.4,Win32,59.39653124,Chrome,1536,960,,,,,,,,,,,,,,,,,,,,,,,167,W,hexagon,1,0,f,0.6844,1,7,0,7,0,1,,,,,,,,,,,,,,,,,,,,,,,,,,,,,,,,,,,,,,,,,
297367,2022-12-07_15h05.47.506,vts_reward_expectancy_bt,2022.2.4,Win32,59.39653124,Chrome,1536,960,,,,,,,,,,,,,,,,,,,,,,,181,H,hexagon,1,0,f,0.7879,1,8,0,8,0,1,,,,,,,,,,,,,,,,,,,,,,,,,,,,,,,,,,,,,,,,,
297367,2022-12-07_15h05.47.506,vts_reward_expectancy_bt,2022.2.4,Win32,59.39653124,Chrome,1536,960,,,,,,,,,,,,,,,,,,,,,,,160,U,triangle,1,0,f,0.7377,1,9,0,9,0,1,,,,,,,,,,,,,,,,,,,,,,,,,,,,,,,,,,,,,,,,,
297367,2022-12-07_15h05.47.506,vts_reward_expectancy_bt,2022.2.4,Win32,59.39653124,Chrome,1536,960,,,,,,,,,,,,,,,,,,,,,,,167,F,star,1,0,,,2,,,,,,j,0.7506,0,0,0,0,1,,,,,,,,,,,,,,,,,,,,,,,,,,,,,,,,,,
297367,2022-12-07_15h05.47.506,vts_reward_expectancy_bt,2022.2.4,Win32,59.39653124,Chrome,1536,960,,,,,,,,,,,,,,,,,,,,,,,125,D,circle,1,0,,,2,,,,,,j,0.7002,1,0,1,0,1,,,,,,,,,,,,,,,,,,,,,,,,,,,,,,,,,,
297367,2022-12-07_15h05.47.506,vts_reward_expectancy_bt,2022.2.4,Win32,59.39653124,Chrome,1536,960,,,,,,,,,,,,,,,,,,,,,,,139,W,triangle,1,0,,,2,,,,,,k,0.7203,2,0,2,0,1,,,,,,,,,,,,,,,,,,,,,,,,,,,,,,,,,,
297367,2022-12-07_15h05.47.506,vts_reward_expectancy_bt,2022.2.4,Win32,59.39653124,Chrome,1536,960,,,,,,,,,,,,,,,,,,,,,,,132,Y,hexagon,1,0,,,2,,,,,,k,0.8354,3,0,3,0,1,,,,,,,,,,,,,,,,,,,,,,,,,,,,,,,,,,
297367,2022-12-07_15h05.47.506,vts_reward_expectancy_bt,2022.2.4,Win32,59.39653124,Chrome,1536,960,,,,,,,,,,,,,,,,,,,,,,,160,H,star,1,0,,,2,,,,,,j,1.0316,4,0,4,0,1,,,,,,,,,,,,,,,,,,,,,,,,,,,,,,,,,,
297367,2022-12-07_15h05.47.506,vts_reward_expectancy_bt,2022.2.4,Win32,59.39653124,Chrome,1536,960,,,,,,,,,,,,,,,,,,,,,,,174,U,circle,1,0,,,2,,,,,,k,0.783,5,0,5,0,1,,,,,,,,,,,,,,,,,,,,,,,,,,,,,,,,,,
297367,2022-12-07_15h05.47.506,vts_reward_expectancy_bt,2022.2.4,Win32,59.39653124,Chrome,1536,960,,,,,,,,,,,,,,,,,,,,,,,146,S,triangle,1,0,,,2,,,,,,k,0.6516,6,0,6,0,1,,,,,,,,,,,,,,,,,,,,,,,,,,,,,,,,,,
297367,2022-12-07_15h05.47.506,vts_reward_expectancy_bt,2022.2.4,Win32,59.39653124,Chrome,1536,960,,,,,,,,,,,,,,,,,,,,,,,181,B,hexagon,1,0,,,2,,,,,,j,0.6837,7,0,7,0,1,,,,,,,,,,,,,,,,,,,,,,,,,,,,,,,,,,
297367,2022-12-07_15h05.47.506,vts_reward_expectancy_bt,2022.2.4,Win32,59.39653124,Chrome,1536,960,,,,,,,,,,,,,,,,,,,,,,,167,F,hexagon,0,0,,,2,,,,,,k,0.7946,8,0,8,0,1,,,,,,,,,,,,,,,,,,,,,,,,,,,,,,,,,,
297367,2022-12-07_15h05.47.506,vts_reward_expectancy_bt,2022.2.4,Win32,59.39653124,Chrome,1536,960,,,,,,,,,,,,,,,,,,,,,,,125,D,circle,1,1,,,2,,,,,,j,0.7224,9,0,9,0,1,,,,,,,,,,,,,,,,,,,,,,,,,,,,,,,,,,
297367,2022-12-07_15h05.47.506,vts_reward_expectancy_bt,2022.2.4,Win32,59.39653124,Chrome,1536,960,,,,,0,666,,,,,,,,,,,,,,,,,125,B,triangle,1,0,,,3,,,,,,,,,,,,,-1,number,NA,d,1.502,vtsPrac,0,0,0,0,1,,,,,,,,,,,,,,,,,,,,,,,
297367,2022-12-07_15h05.47.506,vts_reward_expectancy_bt,2022.2.4,Win32,59.39653124,Chrome,1536,960,,,,,0,666,,,,,,,,,,,,,,,,,167,D,star,1,0,,,3,,,,,,,,,,,,,switch,letter,lettSwt,j,0.6034,vtsPrac,1,0,1,0,1,,,,,,,,,,,,,,,,,,,,,,,
297367,2022-12-07_15h05.47.506,vts_reward_expectancy_bt,2022.2.4,Win32,59.39653124,Chrome,1536,960,,,,,0,666,,,,,,,,,,,,,,,,,181,H,triangle,0,0,,,3,,,,,,,,,,,,,switch,number,NA,d,0.71,vtsPrac,2,0,2,0,1,,,,,,,,,,,,,,,,,,,,,,,
297367,2022-12-07_15h05.47.506,vts_reward_expectancy_bt,2022.2.4,Win32,59.39653124,Chrome,1536,960,,,,,0,666,,,,,,,,,,,,,,,,,139,F,star,1,1,,,3,,,,,,,,,,,,,repeat,number,numRpt,d,0.5964,vtsPrac,3,0,3,0,1,,,,,,,,,,,,,,,,,,,,,,,
297367,2022-12-07_15h05.47.506,vts_reward_expectancy_bt,2022.2.4,Win32,59.39653124,Chrome,1536,960,,,,,0,666,,,,,,,,,,,,,,,,,125,B,triangle,1,0,,,3,,,,,,,,,,,,,switch,letter,lettSwt,j,0.5468,vtsPrac,4,0,4,0,1,,,,,,,,,,,,,,,,,,,,,,,
297367,2022-12-07_15h05.47.506,vts_reward_expectancy_bt,2022.2.4,Win32,59.39653124,Chrome,1536,960,,,,,0,666,,,,,,,,,,,,,,,,,167,D,circle,1,0,,,3,,,,,,,,,,,,,switch,number,numSwt,f,0.4852,vtsPrac,5,0,5,0,1,,,,,,,,,,,,,,,,,,,,,,,
297367,2022-12-07_15h05.47.506,vts_reward_expectancy_bt,2022.2.4,Win32,59.39653124,Chrome,1536,960,,,,,0,666,,,,,,,,,,,,,,,,,181,H,star,1,0,,,3,,,,,,,,,,,,,switch,letter,lettSwt,j,0.764,vtsPrac,6,0,6,0,1,,,,,,,,,,,,,,,,,,,,,,,
297367,2022-12-07_15h05.47.506,vts_reward_expectancy_bt,2022.2.4,Win32,59.39653124,Chrome,1536,960,,,,,0,666,,,,,,,,,,,,,,,,,139,F,hexagon,1,0,,,3,,,,,,,,,,,,,switch,number,numSwt,d,0.7174,vtsPrac,7,0,7,0,1,,,,,,,,,,,,,,,,,,,,,,,
297367,2022-12-07_15h05.47.506,vts_reward_expectancy_bt,2022.2.4,Win32,59.39653124,Chrome,1536,960,,,,,0,666,,,,,,,,,,,,,,,,,139,W,hexagon,1,0,,,3,,,,,,,,,,,,,switch,letter,lettSwt,k,0.5161,vtsPrac,8,0,8,0,1,,,,,,,,,,,,,,,,,,,,,,,
297367,2022-12-07_15h05.47.506,vts_reward_expectancy_bt,2022.2.4,Win32,59.39653124,Chrome,1536,960,,,,,0,666,,,,,,,,,,,,,,,,,132,S,triangle,1,0,,,3,,,,,,,,,,,,,switch,number,numSwt,d,0.6792,vtsPrac,9,0,9,0,1,,,,,,,,,,,,,,,,,,,,,,,
297367,2022-12-07_15h05.47.506,vts_reward_expectancy_bt,2022.2.4,Win32,59.39653124,Chrome,1536,960,,,,,0,666,,,,,,,,,,,,,,,,,181,D,triangle,1,0,,,3,,,,,,,,,,,,,switch,letter,lettSwt,j,0.6616,vtsPrac,10,0,10,0,1,,,,,,,,,,,,,,,,,,,,,,,
297367,2022-12-07_15h05.47.506,vts_reward_expectancy_bt,2022.2.4,Win32,59.39653124,Chrome,1536,960,,,,,0,666,,,,,,,,,,,,,,,,,160,H,hexagon,1,0,,,3,,,,,,,,,,,,,repeat,letter,lettRpt,j,0.5997,vtsPrac,11,0,11,0,1,,,,,,,,,,,,,,,,,,,,,,,
297367,2022-12-07_15h05.47.506,vts_reward_expectancy_bt,2022.2.4,Win32,59.39653124,Chrome,1536,960,,,,,0,666,,,,,,,,,,,,,,,,,132,F,star,1,0,,,3,,,,,,,,,,,,,switch,number,numSwt,d,0.6118,vtsPrac,12,0,12,0,1,,,,,,,,,,,,,,,,,,,,,,,
297367,2022-12-07_15h05.47.506,vts_reward_expectancy_bt,2022.2.4,Win32,59.39653124,Chrome,1536,960,,,,,0,666,,,,,,,,,,,,,,,,,160,U,triangle,1,0,,,3,,,,,,,,,,,,,switch,letter,lettSwt,k,0.7212,vtsPrac,13,0,13,0,1,,,,,,,,,,,,,,,,,,,,,,,
297367,2022-12-07_15h05.47.506,vts_reward_expectancy_bt,2022.2.4,Win32,59.39653124,Chrome,1536,960,,,,,0,666,,,,,,,,,,,,,,,,,146,B,star,1,0,,,3,,,,,,,,,,,,,repeat,letter,lettRpt,j,0.6847,vtsPrac,14,0,14,0,1,,,,,,,,,,,,,,,,,,,,,,,
297367,2022-12-07_15h05.47.506,vts_reward_expectancy_bt,2022.2.4,Win32,59.39653124,Chrome,1536,960,,,,,0,666,,,,,,,,,,,,,,,,,174,H,triangle,1,0,,,3,,,,,,,,,,,,,switch,number,numSwt,f,0.7676,vtsPrac,15,0,15,0,1,,,,,,,,,,,,,,,,,,,,,,,
297367,2022-12-07_15h05.47.506,vts_reward_expectancy_bt,2022.2.4,Win32,59.39653124,Chrome,1536,960,,,,,0,666,,,,,,,,,,,,,,,,,174,F,circle,1,0,,,3,,,,,,,,,,,,,repeat,number,numRpt,f,0.7176,vtsPrac,16,0,16,0,1,,,,,,,,,,,,,,,,,,,,,,,
297367,2022-12-07_15h05.47.506,vts_reward_expectancy_bt,2022.2.4,Win32,59.39653124,Chrome,1536,960,,,,,0,666,,,,,,,,,,,,,,,,,167,W,triangle,1,0,,,3,,,,,,,,,,,,,repeat,number,numRpt,f,1.1344,vtsPrac,17,0,17,0,1,,,,,,,,,,,,,,,,,,,,,,,
297367,2022-12-07_15h05.47.506,vts_reward_expectancy_bt,2022.2.4,Win32,59.39653124,Chrome,1536,960,,,,,0,666,,,,,,,,,,,,,,,,,125,B,triangle,1,0,,,3,,,,,,,,,,,,,switch,letter,lettSwt,j,0.934,vtsPrac,18,0,18,0,1,,,,,,,,,,,,,,,,,,,,,,,
297367,2022-12-07_15h05.47.506,vts_reward_expectancy_bt,2022.2.4,Win32,59.39653124,Chrome,1536,960,,,,,0,666,,,,,,,,,,,,,,,,,160,H,star,1,0,,,3,,,,,,,,,,,,,repeat,letter,lettRpt,j,0.8847,vtsPrac,19,0,19,0,1,,,,,,,,,,,,,,,,,,,,,,,
297367,2022-12-07_15h05.47.506,vts_reward_expectancy_bt,2022.2.4,Win32,59.39653124,Chrome,1536,960,,,,,0,666,,,,,,,,,,,,,,,,,167,S,star,1,0,,,3,,,,,,,,,,,,,switch,number,numSwt,f,0.9696,vtsPrac,20,0,20,0,1,,,,,,,,,,,,,,,,,,,,,,,
297367,2022-12-07_15h05.47.506,vts_reward_expectancy_bt,2022.2.4,Win32,59.39653124,Chrome,1536,960,,,,,0,666,,,,,,,,,,,,,,,,,146,H,hexagon,1,0,,,3,,,,,,,,,,,,,switch,letter,lettSwt,j,0.7211,vtsPrac,21,0,21,0,1,,,,,,,,,,,,,,,,,,,,,,,
297367,2022-12-07_15h05.47.506,vts_reward_expectancy_bt,2022.2.4,Win32,59.39653124,Chrome,1536,960,,,,,0,666,,,,,,,,,,,,,,,,,139,B,circle,1,0,,,3,,,,,,,,,,,,,switch,number,numSwt,d,0.9011,vtsPrac,22,0,22,0,1,,,,,,,,,,,,,,,,,,,,,,,
297367,2022-12-07_15h05.47.506,vts_reward_expectancy_bt,2022.2.4,Win32,59.39653124,Chrome,1536,960,,,,,0,666,,,,,,,,,,,,,,,,,174,W,hexagon,1,0,,,3,,,,,,,,,,,,,repeat,number,numRpt,f,0.8227,vtsPrac,23,0,23,0,1,,,,,,,,,,,,,,,,,,,,,,,
297367,2022-12-07_15h05.47.506,vts_reward_expectancy_bt,2022.2.4,Win32,59.39653124,Chrome,1536,960,,,,,0,666,,,,,,,,,,,,,,,,,174,Y,hexagon,1,0,,,3,,,,,,,,,,,,,switch,letter,lettSwt,k,0.9349,vtsPrac,24,0,24,0,1,,,,,,,,,,,,,,,,,,,,,,,
297367,2022-12-07_15h05.47.506,vts_reward_expectancy_bt,2022.2.4,Win32,59.39653124,Chrome,1536,960,,,,,0,666,,,,,,,,,,,,,,,,,146,F,triangle,1,0,,,3,,,,,,,,,,,,,switch,number,numSwt,d,0.7506,vtsPrac,25,0,25,0,1,,,,,,,,,,,,,,,,,,,,,,,
297367,2022-12-07_15h05.47.506,vts_reward_expectancy_bt,2022.2.4,Win32,59.39653124,Chrome,1536,960,,,,,0,666,,,,,,,,,,,,,,,,,125,H,hexagon,1,0,,,3,,,,,,,,,,,,,switch,letter,lettSwt,j,0.9591,vtsPrac,26,0,26,0,1,,,,,,,,,,,,,,,,,,,,,,,
297367,2022-12-07_15h05.47.506,vts_reward_expectancy_bt,2022.2.4,Win32,59.39653124,Chrome,1536,960,,,,,0,666,,,,,,,,,,,,,,,,,132,S,star,1,0,,,3,,,,,,,,,,,,,repeat,letter,lettRpt,k,0.9173,vtsPrac,27,0,27,0,1,,,,,,,,,,,,,,,,,,,,,,,
297367,2022-12-07_15h05.47.506,vts_reward_expectancy_bt,2022.2.4,Win32,59.39653124,Chrome,1536,960,,,,,0,666,,,,,,,,,,,,,,,,,146,U,circle,1,0,,,3,,,,,,,,,,,,,switch,number,numSwt,d,0.9351,vtsPrac,28,0,28,0,1,,,,,,,,,,,,,,,,,,,,,,,
297367,2022-12-07_15h05.47.506,vts_reward_expectancy_bt,2022.2.4,Win32,59.39653124,Chrome,1536,960,,,,,0,666,,,,,,,,,,,,,,,,,139,B,star,1,0,,,3,,,,,,,,,,,,,switch,letter,lettSwt,j,0.8844,vtsPrac,29,0,29,0,1,,,,,,,,,,,,,,,,,,,,,,,
297367,2022-12-07_15h05.47.506,vts_reward_expectancy_bt,2022.2.4,Win32,59.39653124,Chrome,1536,960,,,,,0,666,,,,,,,,,,,,,,,,,167,H,circle,1,0,,,3,,,,,,,,,,,,,repeat,letter,lettRpt,j,0.7833,vtsPrac,30,0,30,0,1,,,,,,,,,,,,,,,,,,,,,,,
297367,2022-12-07_15h05.47.506,vts_reward_expectancy_bt,2022.2.4,Win32,59.39653124,Chrome,1536,960,,,,,0,666,,,,,,,,,,,,,,,,,125,S,star,1,0,,,3,,,,,,,,,,,,,switch,number,numSwt,d,1.1006,vtsPrac,31,0,31,0,1,,,,,,,,,,,,,,,,,,,,,,,
297367,2022-12-07_15h05.47.506,vts_reward_expectancy_bt,2022.2.4,Win32,59.39653124,Chrome,1536,960,,,,,,,,,,,,,,,,,,,,,,,,,,,,,,,,,,,,,,,,,,,,,,,,,,,,,,,,,,,,,,,,,,,,,,,,,,,,
297367,2022-12-07_15h05.47.506,vts_reward_expectancy_bt,2022.2.4,Win32,59.39653124,Chrome,1536,960,,,,,,,,,,,,,,,,,,,,,,,,,,,,,,,,,,,,,,,,,,,,,,,,,,,,,,,,,,,,,,,,,,,,,,,,,,,,
297367,2022-12-07_15h05.47.506,vts_reward_expectancy_bt,2022.2.4,Win32,59.39653124,Chrome,1536,960,,,,,0,666,,,,,,,,,,,,,,,,,132,D,star,1,0,,,,,,,,,,,,,,,,repeat,number,numRpt,d,0.8854,noRew,,,,,,0,0,0,0,0,1,,,,,,,,,,,,,,,,,
297367,2022-12-07_15h05.47.506,vts_reward_expectancy_bt,2022.2.4,Win32,59.39653124,Chrome,1536,960,,,,,0,666,,,,,,,,,,,,,,,,,146,S,circle,1,0,,,,,,,,,,,,,,,,switch,letter,lettSwt,k,0.7849,noRew,,,,,,0,1,0,1,0,1,,,,,,,,,,,,,,,,,
297367,2022-12-07_15h05.47.506,vts_reward_expectancy_bt,2022.2.4,Win32,59.39653124,Chrome,1536,960,,,,,0,666,,,,,,,,,,,,,,,,,167,B,star,1,0,,,,,,,,,,,,,,,,repeat,letter,lettRpt,j,0.6541,noRew,,,,,,0,2,0,2,0,1,,,,,,,,,,,,,,,,,
297367,2022-12-07_15h05.47.506,vts_reward_expectancy_bt,2022.2.4,Win32,59.39653124,Chrome,1536,960,,,,,0,666,,,,,,,,,,,,,,,,,160,U,circle,1,0,,,,,,,,,,,,,,,,switch,number,numSwt,f,0.7496,noRew,,,,,,0,3,0,3,0,1,,,,,,,,,,,,,,,,,
297367,2022-12-07_15h05.47.506,vts_reward_expectancy_bt,2022.2.4,Win32,59.39653124,Chrome,1536,960,,,,,0,666,,,,,,,,,,,,,,,,,132,D,star,1,0,,,,,,,,,,,,,,,,switch,letter,lettSwt,j,0.6707,noRew,,,,,,0,4,0,4,0,1,,,,,,,,,,,,,,,,,
297367,2022-12-07_15h05.47.506,vts_reward_expectancy_bt,2022.2.4,Win32,59.39653124,Chrome,1536,960,,,,,0,666,,,,,,,,,,,,,,,,,146,S,circle,1,0,,,,,,,,,,,,,,,,switch,number,numSwt,d,1.0838,noRew,,,,,,0,5,0,5,0,1,,,,,,,,,,,,,,,,,
297367,2022-12-07_15h05.47.506,vts_reward_expectancy_bt,2022.2.4,Win32,59.39653124,Chrome,1536,960,,,,,0,666,,,,,,,,,,,,,,,,,167,B,hexagon,1,0,,,,,,,,,,,,,,,,switch,letter,lettSwt,j,0.6845,noRew,,,,,,0,6,0,6,0,1,,,,,,,,,,,,,,,,,
297367,2022-12-07_15h05.47.506,vts_reward_expectancy_bt,2022.2.4,Win32,59.39653124,Chrome,1536,960,,,,,0,666,,,,,,,,,,,,,,,,,160,U,star,1,0,,,,,,,,,,,,,,,,switch,number,numSwt,f,0.8667,noRew,,,,,,0,7,0,7,0,1,,,,,,,,,,,,,,,,,
297367,2022-12-07_15h05.47.506,vts_reward_expectancy_bt,2022.2.4,Win32,59.39653124,Chrome,1536,960,,,,,0,666,,,,,,,,,,,,,,,,,174,F,circle,1,0,,,,,,,,,,,,,,,,repeat,number,numRpt,f,0.5753,noRew,,,,,,0,8,0,8,0,1,,,,,,,,,,,,,,,,,
297367,2022-12-07_15h05.47.506,vts_reward_expectancy_bt,2022.2.4,Win32,59.39653124,Chrome,1536,960,,,,,0,666,,,,,,,,,,,,,,,,,160,D,triangle,1,0,,,,,,,,,,,,,,,,switch,letter,lettSwt,j,0.6261,noRew,,,,,,0,9,0,9,0,1,,,,,,,,,,,,,,,,,
297367,2022-12-07_15h05.47.506,vts_reward_expectancy_bt,2022.2.4,Win32,59.39653124,Chrome,1536,960,,,,,0,666,,,,,,,,,,,,,,,,,139,B,hexagon,1,0,,,,,,,,,,,,,,,,switch,number,numSwt,d,0.834,noRew,,,,,,0,10,0,10,0,1,,,,,,,,,,,,,,,,,
297367,2022-12-07_15h05.47.506,vts_reward_expectancy_bt,2022.2.4,Win32,59.39653124,Chrome,1536,960,,,,,0,666,,,,,,,,,,,,,,,,,132,Y,circle,1,0,,,,,,,,,,,,,,,,switch,letter,lettSwt,k,0.7499,noRew,,,,,,0,11,0,11,0,1,,,,,,,,,,,,,,,,,
297367,2022-12-07_15h05.47.506,vts_reward_expectancy_bt,2022.2.4,Win32,59.39653124,Chrome,1536,960,,,,,0,666,,,,,,,,,,,,,,,,,160,D,star,1,0,,,,,,,,,,,,,,,,switch,number,numSwt,f,0.6894,noRew,,,,,,0,12,0,12,0,1,,,,,,,,,,,,,,,,,
297367,2022-12-07_15h05.47.506,vts_reward_expectancy_bt,2022.2.4,Win32,59.39653124,Chrome,1536,960,,,,,0,666,,,,,,,,,,,,,,,,,181,S,triangle,1,0,,,,,,,,,,,,,,,,switch,letter,lettSwt,k,0.6535,noRew,,,,,,0,13,0,13,0,1,,,,,,,,,,,,,,,,,
297367,2022-12-07_15h05.47.506,vts_reward_expectancy_bt,2022.2.4,Win32,59.39653124,Chrome,1536,960,,,,,0,666,,,,,,,,,,,,,,,,,132,Y,star,1,0,,,,,,,,,,,,,,,,switch,number,numSwt,d,0.7665,noRew,,,,,,0,14,0,14,0,1,,,,,,,,,,,,,,,,,
297367,2022-12-07_15h05.47.506,vts_reward_expectancy_bt,2022.2.4,Win32,59.39653124,Chrome,1536,960,,,,,0,666,,,,,,,,,,,,,,,,,167,F,triangle,0,0,,,,,,,,,,,,,,,,switch,letter,NA,k,0.9841,noRew,,,,,,0,15,0,15,0,1,,,,,,,,,,,,,,,,,
297367,2022-12-07_15h05.47.506,vts_reward_expectancy_bt,2022.2.4,Win32,59.39653124,Chrome,1536,960,,,,,0,666,,,,,,,,,,,,,,,,,132,Y,triangle,1,1,,,,,,,,,,,,,,,,switch,number,numSwt,d,0.7525,noRew,,,,,,0,16,0,16,0,1,,,,,,,,,,,,,,,,,
297367,2022-12-07_15h05.47.506,vts_reward_expectancy_bt,2022.2.4,Win32,59.39653124,Chrome,1536,960,,,,,0,666,,,,,,,,,,,,,,,,,125,U,circle,1,0,,,,,,,,,,,,,,,,repeat,number,numRpt,d,0.7849,noRew,,,,,,0,17,0,17,0,1,,,,,,,,,,,,,,,,,
297367,2022-12-07_15h05.47.506,vts_reward_expectancy_bt,2022.2.4,Win32,59.39653124,Chrome,1536,960,,,,,0,666,,,,,,,,,,,,,,,,,146,B,hexagon,1,0,,,,,,,,,,,,,,,,repeat,number,numRpt,d,0.8835,noRew,,,,,,0,18,0,18,0,1,,,,,,,,,,,,,,,,,
297367,2022-12-07_15h05.47.506,vts_reward_expectancy_bt,2022.2.4,Win32,59.39653124,Chrome,1536,960,,,,,0,666,,,,,,,,,,,,,,,,,139,W,circle,1,0,,,,,,,,,,,,,,,,repeat,number,numRpt,d,0.8866,noRew,,,,,,0,19,0,19,0,1,,,,,,,,,,,,,,,,,
297367,2022-12-07_15h05.47.506,vts_reward_expectancy_bt,2022.2.4,Win32,59.39653124,Chrome,1536,960,,,,,0,666,,,,,,,,,,,,,,,,,160,S,hexagon,1,0,,,,,,,,,,,,,,,,repeat,number,numRpt,f,1.0165,noRew,,,,,,0,20,0,20,0,1,,,,,,,,,,,,,,,,,
297367,2022-12-07_15h05.47.506,vts_reward_expectancy_bt,2022.2.4,Win32,59.39653124,Chrome,1536,960,,,,,0,666,,,,,,,,,,,,,,,,,139,D,triangle,1,0,,,,,,,,,,,,,,,,repeat,number,numRpt,d,0.9206,noRew,,,,,,0,21,0,21,0,1,,,,,,,,,,,,,,,,,
297367,2022-12-07_15h05.47.506,vts_reward_expectancy_bt,2022.2.4,Win32,59.39653124,Chrome,1536,960,,,,,0,666,,,,,,,,,,,,,,,,,146,W,circle,1,0,,,,,,,,,,,,,,,,repeat,number,numRpt,d,0.9091,noRew,,,,,,0,22,0,22,0,1,,,,,,,,,,,,,,,,,
297367,2022-12-07_15h05.47.506,vts_reward_expectancy_bt,2022.2.4,Win32,59.39653124,Chrome,1536,960,,,,,0,666,,,,,,,,,,,,,,,,,125,U,triangle,1,0,,,,,,,,,,,,,,,,repeat,number,numRpt,d,0.7861,noRew,,,,,,0,23,0,23,0,1,,,,,,,,,,,,,,,,,
297367,2022-12-07_15h05.47.506,vts_reward_expectancy_bt,2022.2.4,Win32,59.39653124,Chrome,1536,960,,,,,0,666,,,,,,,,,,,,,,,,,139,F,star,1,0,,,,,,,,,,,,,,,,repeat,number,numRpt,d,0.8182,noRew,,,,,,0,24,0,24,0,1,,,,,,,,,,,,,,,,,
297367,2022-12-07_15h05.47.506,vts_reward_expectancy_bt,2022.2.4,Win32,59.39653124,Chrome,1536,960,,,,,0,666,,,,,,,,,,,,,,,,,146,S,triangle,1,0,,,,,,,,,,,,,,,,repeat,number,numRpt,d,0.7404,noRew,,,,,,0,25,0,25,0,1,,,,,,,,,,,,,,,,,
297367,2022-12-07_15h05.47.506,vts_reward_expectancy_bt,2022.2.4,Win32,59.39653124,Chrome,1536,960,,,,,0,666,,,,,,,,,,,,,,,,,132,U,triangle,1,0,,,,,,,,,,,,,,,,repeat,number,numRpt,d,0.6893,noRew,,,,,,0,26,0,26,0,1,,,,,,,,,,,,,,,,,
297367,2022-12-07_15h05.47.506,vts_reward_expectancy_bt,2022.2.4,Win32,59.39653124,Chrome,1536,960,,,,,0,666,,,,,,,,,,,,,,,,,125,W,hexagon,1,0,,,,,,,,,,,,,,,,repeat,number,numRpt,d,1.2907,noRew,,,,,,0,27,0,27,0,1,,,,,,,,,,,,,,,,,
297367,2022-12-07_15h05.47.506,vts_reward_expectancy_bt,2022.2.4,Win32,59.39653124,Chrome,1536,960,,,,,0,666,,,,,,,,,,,,,,,,,174,D,circle,1,0,,,,,,,,,,,,,,,,repeat,number,numRpt,f,1.0177,noRew,,,,,,0,28,0,28,0,1,,,,,,,,,,,,,,,,,
297367,2022-12-07_15h05.47.506,vts_reward_expectancy_bt,2022.2.4,Win32,59.39653124,Chrome,1536,960,,,,,0,666,,,,,,,,,,,,,,,,,167,U,star,1,0,,,,,,,,,,,,,,,,repeat,number,numRpt,f,0.9693,noRew,,,,,,0,29,0,29,0,1,,,,,,,,,,,,,,,,,
297367,2022-12-07_15h05.47.506,vts_reward_expectancy_bt,2022.2.4,Win32,59.39653124,Chrome,1536,960,,,,,0,666,,,,,,,,,,,,,,,,,160,Y,hexagon,1,0,,,,,,,,,,,,,,,,switch,letter,lettSwt,k,0.6343,noRew,,,,,,0,30,0,30,0,1,,,,,,,,,,,,,,,,,
297367,2022-12-07_15h05.47.506,vts_reward_expectancy_bt,2022.2.4,Win32,59.39653124,Chrome,1536,960,,,,,0,666,,,,,,,,,,,,,,,,,146,B,circle,1,0,,,,,,,,,,,,,,,,repeat,letter,lettRpt,j,0.6187,noRew,,,,,,0,31,0,31,0,1,,,,,,,,,,,,,,,,,
297367,2022-12-07_15h05.47.506,vts_reward_expectancy_bt,2022.2.4,Win32,59.39653124,Chrome,1536,960,,,,,0,666,,,,,,,,,,,,,,,,,125,U,hexagon,1,0,,,,,,,,,,,,,,,,switch,number,numSwt,d,0.6384,noRew,,,,,,0,32,0,32,0,1,,,,,,,,,,,,,,,,,
297367,2022-12-07_15h05.47.506,vts_reward_expectancy_bt,2022.2.4,Win32,59.39653124,Chrome,1536,960,,,,,0,666,,,,,,,,,,,,,,,,,146,B,triangle,1,0,,,,,,,,,,,,,,,,switch,letter,lettSwt,j,0.6514,noRew,,,,,,0,33,0,33,0,1,,,,,,,,,,,,,,,,,
297367,2022-12-07_15h05.47.506,vts_reward_expectancy_bt,2022.2.4,Win32,59.39653124,Chrome,1536,960,,,,,0,666,,,,,,,,,,,,,,,,,174,D,triangle,1,0,,,,,,,,,,,,,,,,switch,number,numSwt,f,0.9726,noRew,,,,,,0,34,0,34,0,1,,,,,,,,,,,,,,,,,
297367,2022-12-07_15h05.47.506,vts_reward_expectancy_bt,2022.2.4,Win32,59.39653124,Chrome,1536,960,,,,,0,666,,,,,,,,,,,,,,,,,132,F,circle,1,0,,,,,,,,,,,,,,,,switch,letter,lettSwt,j,0.7718,noRew,,,,,,0,35,0,35,0,1,,,,,,,,,,,,,,,,,
297367,2022-12-07_15h05.47.506,vts_reward_expectancy_bt,2022.2.4,Win32,59.39653124,Chrome,1536,960,,,,,0,666,,,,,,,,,,,,,,,,,174,D,triangle,1,0,,,,,,,,,,,,,,,,switch,number,numSwt,f,0.9334,noRew,,,,,,0,36,0,36,0,1,,,,,,,,,,,,,,,,,
297367,2022-12-07_15h05.47.506,vts_reward_expectancy_bt,2022.2.4,Win32,59.39653124,Chrome,1536,960,,,,,0,666,,,,,,,,,,,,,,,,,139,U,star,1,0,,,,,,,,,,,,,,,,repeat,number,numRpt,d,0.684,noRew,,,,,,0,37,0,37,0,1,,,,,,,,,,,,,,,,,
297367,2022-12-07_15h05.47.506,vts_reward_expectancy_bt,2022.2.4,Win32,59.39653124,Chrome,1536,960,,,,,0,666,,,,,,,,,,,,,,,,,146,B,star,1,0,,,,,,,,,,,,,,,,repeat,number,numRpt,d,1.1263,noRew,,,,,,0,38,0,38,0,1,,,,,,,,,,,,,,,,,
297367,2022-12-07_15h05.47.506,vts_reward_expectancy_bt,2022.2.4,Win32,59.39653124,Chrome,1536,960,,,,,0,666,,,,,,,,,,,,,,,,,125,Y,hexagon,0,0,,,,,,,,,,,,,,,,switch,letter,NA,j,0.6423,noRew,,,,,,0,39,0,39,0,1,,,,,,,,,,,,,,,,,
297367,2022-12-07_15h05.47.506,vts_reward_expectancy_bt,2022.2.4,Win32,59.39653124,Chrome,1536,960,,,,,0,666,,,,,,,,,,,,,,,,,160,F,triangle,1,1,,,,,,,,,,,,,,,,switch,number,numSwt,f,0.9243,noRew,,,,,,0,40,0,40,0,1,,,,,,,,,,,,,,,,,
297367,2022-12-07_15h05.47.506,vts_reward_expectancy_bt,2022.2.4,Win32,59.39653124,Chrome,1536,960,,,,,0,666,,,,,,,,,,,,,,,,,146,B,circle,1,0,,,,,,,,,,,,,,,,switch,letter,lettSwt,j,0.709,noRew,,,,,,0,41,0,41,0,1,,,,,,,,,,,,,,,,,
297367,2022-12-07_15h05.47.506,vts_reward_expectancy_bt,2022.2.4,Win32,59.39653124,Chrome,1536,960,,,,,0,666,,,,,,,,,,,,,,,,,139,S,triangle,1,0,,,,,,,,,,,,,,,,switch,number,numSwt,d,0.8384,noRew,,,,,,0,42,0,42,0,1,,,,,,,,,,,,,,,,,
297367,2022-12-07_15h05.47.506,vts_reward_expectancy_bt,2022.2.4,Win32,59.39653124,Chrome,1536,960,,,,,0,666,,,,,,,,,,,,,,,,,167,U,star,1,0,,,,,,,,,,,,,,,,repeat,number,numRpt,f,0.8425,noRew,,,,,,0,43,0,43,0,1,,,,,,,,,,,,,,,,,
297367,2022-12-07_15h05.47.506,vts_reward_expectancy_bt,2022.2.4,Win32,59.39653124,Chrome,1536,960,,,,,0,666,,,,,,,,,,,,,,,,,174,D,star,1,0,,,,,,,,,,,,,,,,repeat,number,numRpt,f,0.8341,noRew,,,,,,0,44,0,44,0,1,,,,,,,,,,,,,,,,,
297367,2022-12-07_15h05.47.506,vts_reward_expectancy_bt,2022.2.4,Win32,59.39653124,Chrome,1536,960,,,,,0,666,,,,,,,,,,,,,,,,,146,Y,circle,1,0,,,,,,,,,,,,,,,,switch,letter,lettSwt,k,0.7404,noRew,,,,,,0,45,0,45,0,1,,,,,,,,,,,,,,,,,
297367,2022-12-07_15h05.47.506,vts_reward_expectancy_bt,2022.2.4,Win32,59.39653124,Chrome,1536,960,,,,,0,666,,,,,,,,,,,,,,,,,125,S,star,1,0,,,,,,,,,,,,,,,,switch,number,numSwt,d,0.9501,noRew,,,,,,0,46,0,46,0,1,,,,,,,,,,,,,,,,,
297367,2022-12-07_15h05.47.506,vts_reward_expectancy_bt,2022.2.4,Win32,59.39653124,Chrome,1536,960,,,,,0,666,,,,,,,,,,,,,,,,,167,H,circle,1,0,,,,,,,,,,,,,,,,repeat,number,numRpt,f,0.8393,noRew,,,,,,0,47,0,47,0,1,,,,,,,,,,,,,,,,,
297367,2022-12-07_15h05.47.506,vts_reward_expectancy_bt,2022.2.4,Win32,59.39653124,Chrome,1536,960,,,,,0,666,,,,,,,,,,,,,,,,,174,S,star,1,0,,,,,,,,,,,,,,,,repeat,number,numRpt,f,0.7512,noRew,,,,,,0,48,0,48,0,1,,,,,,,,,,,,,,,,,
297367,2022-12-07_15h05.47.506,vts_reward_expectancy_bt,2022.2.4,Win32,59.39653124,Chrome,1536,960,,,,,0,666,,,,,,,,,,,,,,,,,132,F,circle,1,0,,,,,,,,,,,,,,,,repeat,number,numRpt,d,1.0528,noRew,,,,,,0,49,0,49,0,1,,,,,,,,,,,,,,,,,
297367,2022-12-07_15h05.47.506,vts_reward_expectancy_bt,2022.2.4,Win32,59.39653124,Chrome,1536,960,,,,,0,666,,,,,,,,,,,,,,,,,160,U,circle,1,0,,,,,,,,,,,,,,,,repeat,number,numRpt,f,0.9176,noRew,,,,,,0,50,0,50,0,1,,,,,,,,,,,,,,,,,
297367,2022-12-07_15h05.47.506,vts_reward_expectancy_bt,2022.2.4,Win32,59.39653124,Chrome,1536,960,,,,,0,666,,,,,,,,,,,,,,,,,146,D,hexagon,1,0,,,,,,,,,,,,,,,,repeat,number,numRpt,d,0.851,noRew,,,,,,0,51,0,51,0,1,,,,,,,,,,,,,,,,,
297367,2022-12-07_15h05.47.506,vts_reward_expectancy_bt,2022.2.4,Win32,59.39653124,Chrome,1536,960,,,,,0,666,,,,,,,,,,,,,,,,,132,Y,star,1,0,,,,,,,,,,,,,,,,repeat,number,numRpt,d,0.8879,noRew,,,,,,0,52,0,52,0,1,,,,,,,,,,,,,,,,,
297367,2022-12-07_15h05.47.506,vts_reward_expectancy_bt,2022.2.4,Win32,59.39653124,Chrome,1536,960,,,,,0,666,,,,,,,,,,,,,,,,,167,H,triangle,1,0,,,,,,,,,,,,,,,,repeat,number,numRpt,f,0.8702,noRew,,,,,,0,53,0,53,0,1,,,,,,,,,,,,,,,,,
297367,2022-12-07_15h05.47.506,vts_reward_expectancy_bt,2022.2.4,Win32,59.39653124,Chrome,1536,960,,,,,0,666,,,,,,,,,,,,,,,,,160,U,hexagon,1,0,,,,,,,,,,,,,,,,repeat,number,numRpt,f,0.7178,noRew,,,,,,0,54,0,54,0,1,,,,,,,,,,,,,,,,,
297367,2022-12-07_15h05.47.506,vts_reward_expectancy_bt,2022.2.4,Win32,59.39653124,Chrome,1536,960,,,,,0,666,,,,,,,,,,,,,,,,,125,D,star,1,0,,,,,,,,,,,,,,,,repeat,number,numRpt,d,0.9668,noRew,,,,,,0,55,0,55,0,1,,,,,,,,,,,,,,,,,
297367,2022-12-07_15h05.47.506,vts_reward_expectancy_bt,2022.2.4,Win32,59.39653124,Chrome,1536,960,,,,,0,666,,,,,,,,,,,,,,,,,125,H,star,1,0,,,,,,,,,,,,,,,,repeat,number,numRpt,d,0.8019,noRew,,,,,,0,56,0,56,0,1,,,,,,,,,,,,,,,,,
297367,2022-12-07_15h05.47.506,vts_reward_expectancy_bt,2022.2.4,Win32,59.39653124,Chrome,1536,960,,,,,0,666,,,,,,,,,,,,,,,,,139,Y,triangle,1,0,,,,,,,,,,,,,,,,repeat,number,numRpt,d,1.0182,noRew,,,,,,0,57,0,57,0,1,,,,,,,,,,,,,,,,,
297367,2022-12-07_15h05.47.506,vts_reward_expectancy_bt,2022.2.4,Win32,59.39653124,Chrome,1536,960,,,,,0,666,,,,,,,,,,,,,,,,,181,F,circle,1,0,,,,,,,,,,,,,,,,repeat,number,numRpt,f,0.8717,noRew,,,,,,0,58,0,58,0,1,,,,,,,,,,,,,,,,,
297367,2022-12-07_15h05.47.506,vts_reward_expectancy_bt,2022.2.4,Win32,59.39653124,Chrome,1536,960,,,,,0,666,,,,,,,,,,,,,,,,,174,S,triangle,1,0,,,,,,,,,,,,,,,,repeat,number,numRpt,f,0.8186,noRew,,,,,,0,59,0,59,0,1,,,,,,,,,,,,,,,,,
297367,2022-12-07_15h05.47.506,vts_reward_expectancy_bt,2022.2.4,Win32,59.39653124,Chrome,1536,960,,,,,0,666,,,,,,,,,,,,,,,,,174,F,hexagon,1,0,,,,,,,,,,,,,,,,repeat,number,numRpt,f,0.8344,noRew,,,,,,0,60,0,60,0,1,,,,,,,,,,,,,,,,,
297367,2022-12-07_15h05.47.506,vts_reward_expectancy_bt,2022.2.4,Win32,59.39653124,Chrome,1536,960,,,,,0,666,,,,,,,,,,,,,,,,,167,W,circle,1,0,,,,,,,,,,,,,,,,switch,letter,lettSwt,k,0.7887,noRew,,,,,,0,61,0,61,0,1,,,,,,,,,,,,,,,,,
297367,2022-12-07_15h05.47.506,vts_reward_expectancy_bt,2022.2.4,Win32,59.39653124,Chrome,1536,960,,,,,0,666,,,,,,,,,,,,,,,,,139,U,hexagon,1,0,,,,,,,,,,,,,,,,repeat,letter,lettRpt,k,0.6849,noRew,,,,,,0,62,0,62,0,1,,,,,,,,,,,,,,,,,
297367,2022-12-07_15h05.47.506,vts_reward_expectancy_bt,2022.2.4,Win32,59.39653124,Chrome,1536,960,,,,,0,666,,,,,,,,,,,,,,,,,132,Y,triangle,1,0,,,,,,,,,,,,,,,,repeat,letter,lettRpt,k,1.2506,noRew,,,,,,0,63,0,63,0,1,,,,,,,,,,,,,,,,,
297367,2022-12-07_15h05.47.506,vts_reward_expectancy_bt,2022.2.4,Win32,59.39653124,Chrome,1536,960,,,,,,,,,,,,,,,,,,,,,,,,,,,,,,,,,,,,,,,,,,,,,,,,,,,,,,,,,,,,,,,,,,,,,,,,,,,,
297367,2022-12-07_15h05.47.506,vts_reward_expectancy_bt,2022.2.4,Win32,59.39653124,Chrome,1536,960,,,,,10,676,,,,,,,,,,,,,,,,,139,H,star,1,0,,,,,,,,,,,,,,,,switch,number,numSwt,d,0.6681,Hi,,,,,,0,,,,,,space,3.3354,high,0,0,0,0,1,,,,,,,,,
297367,2022-12-07_15h05.47.506,vts_reward_expectancy_bt,2022.2.4,Win32,59.39653124,Chrome,1536,960,,,,,10,686,,,,,,,,,,,,,,,,,181,S,circle,1,0,,,,,,,,,,,,,,,,switch,letter,lettSwt,k,0.5842,Hi,,,,,,0,,,,,,,,high,1,0,1,0,1,,,,,,,,,
297367,2022-12-07_15h05.47.506,vts_reward_expectancy_bt,2022.2.4,Win32,59.39653124,Chrome,1536,960,,,,,10,696,,,,,,,,,,,,,,,,,146,Y,triangle,1,0,,,,,,,,,,,,,,,,switch,number,numSwt,d,0.5013,Lo,,,,,,0,,,,,,,,high,2,0,2,0,1,,,,,,,,,
297367,2022-12-07_15h05.47.506,vts_reward_expectancy_bt,2022.2.4,Win32,59.39653124,Chrome,1536,960,,,,,1,697,,,,,,,,,,,,,,,,,132,B,hexagon,1,0,,,,,,,,,,,,,,,,repeat,number,numRpt,d,0.5342,Lo,,,,,,0,,,,,,,,high,3,0,3,0,1,,,,,,,,,
297367,2022-12-07_15h05.47.506,vts_reward_expectancy_bt,2022.2.4,Win32,59.39653124,Chrome,1536,960,,,,,0,697,,,,,,,,,,,,,,,,,125,F,star,0,0,,,,,,,,,,,,,,,,switch,letter,NA,k,0.5254,Lo,,,,,,0,,,,,,,,high,4,0,4,0,1,,,,,,,,,
297367,2022-12-07_15h05.47.506,vts_reward_expectancy_bt,2022.2.4,Win32,59.39653124,Chrome,1536,960,,,,,10,707,,,,,,,,,,,,,,,,,174,D,circle,1,1,,,,,,,,,,,,,,,,repeat,letter,lettRpt,j,0.5024,Hi,,,,,,0,,,,,,,,high,5,0,5,0,1,,,,,,,,,
297367,2022-12-07_15h05.47.506,vts_reward_expectancy_bt,2022.2.4,Win32,59.39653124,Chrome,1536,960,,,,,1,708,,,,,,,,,,,,,,,,,167,W,triangle,1,0,,,,,,,,,,,,,,,,switch,number,numSwt,f,0.4733,Lo,,,,,,0,,,,,,,,high,6,0,6,0,1,,,,,,,,,
297367,2022-12-07_15h05.47.506,vts_reward_expectancy_bt,2022.2.4,Win32,59.39653124,Chrome,1536,960,,,,,1,709,,,,,,,,,,,,,,,,,160,U,hexagon,1,0,,,,,,,,,,,,,,,,switch,letter,lettSwt,k,0.667,Lo,,,,,,0,,,,,,,,high,7,0,7,0,1,,,,,,,,,
297367,2022-12-07_15h05.47.506,vts_reward_expectancy_bt,2022.2.4,Win32,59.39653124,Chrome,1536,960,,,,,1,710,,,,,,,,,,,,,,,,,139,H,hexagon,1,0,,,,,,,,,,,,,,,,switch,number,numSwt,d,0.7889,Lo,,,,,,0,,,,,,,,high,8,0,8,0,1,,,,,,,,,
297367,2022-12-07_15h05.47.506,vts_reward_expectancy_bt,2022.2.4,Win32,59.39653124,Chrome,1536,960,,,,,10,720,,,,,,,,,,,,,,,,,181,S,circle,1,0,,,,,,,,,,,,,,,,switch,letter,lettSwt,k,0.5508,Hi,,,,,,0,,,,,,,,high,9,0,9,0,1,,,,,,,,,
297367,2022-12-07_15h05.47.506,vts_reward_expectancy_bt,2022.2.4,Win32,59.39653124,Chrome,1536,960,,,,,1,721,,,,,,,,,,,,,,,,,146,Y,triangle,1,0,,,,,,,,,,,,,,,,repeat,letter,lettRpt,k,0.8171,Lo,,,,,,0,,,,,,,,high,10,0,10,0,1,,,,,,,,,
297367,2022-12-07_15h05.47.506,vts_reward_expectancy_bt,2022.2.4,Win32,59.39653124,Chrome,1536,960,,,,,10,731,,,,,,,,,,,,,,,,,132,B,star,1,0,,,,,,,,,,,,,,,,switch,number,numSwt,d,0.5348,Hi,,,,,,0,,,,,,,,high,11,0,11,0,1,,,,,,,,,
297367,2022-12-07_15h05.47.506,vts_reward_expectancy_bt,2022.2.4,Win32,59.39653124,Chrome,1536,960,,,,,10,741,,,,,,,,,,,,,,,,,125,F,star,1,0,,,,,,,,,,,,,,,,repeat,number,numRpt,d,0.5526,Hi,,,,,,0,,,,,,,,high,12,0,12,0,1,,,,,,,,,
297367,2022-12-07_15h05.47.506,vts_reward_expectancy_bt,2022.2.4,Win32,59.39653124,Chrome,1536,960,,,,,1,742,,,,,,,,,,,,,,,,,174,D,circle,1,0,,,,,,,,,,,,,,,,switch,letter,lettSwt,j,0.4782,Hi,,,,,,0,,,,,,,,high,13,0,13,0,1,,,,,,,,,
297367,2022-12-07_15h05.47.506,vts_reward_expectancy_bt,2022.2.4,Win32,59.39653124,Chrome,1536,960,,,,,1,743,,,,,,,,,,,,,,,,,167,W,triangle,1,0,,,,,,,,,,,,,,,,switch,number,numSwt,f,0.6573,Lo,,,,,,0,,,,,,,,high,14,0,14,0,1,,,,,,,,,
297367,2022-12-07_15h05.47.506,vts_reward_expectancy_bt,2022.2.4,Win32,59.39653124,Chrome,1536,960,,,,,0,743,,,,,,,,,,,,,,,,,160,U,hexagon,0,0,,,,,,,,,,,,,,,,switch,letter,NA,j,0.4507,Lo,,,,,,0,,,,,,,,high,15,0,15,0,1,,,,,,,,,
297367,2022-12-07_15h05.47.506,vts_reward_expectancy_bt,2022.2.4,Win32,59.39653124,Chrome,1536,960,,,,,10,753,,,,,,,,,,,,,,,,,160,B,triangle,1,1,,,,,,,,,,,,,,,,repeat,letter,lettRpt,j,0.483,Lo,,,,,,0,,,,,,,,high,16,0,16,0,1,,,,,,,,,
297367,2022-12-07_15h05.47.506,vts_reward_expectancy_bt,2022.2.4,Win32,59.39653124,Chrome,1536,960,,,,,10,763,,,,,,,,,,,,,,,,,132,S,star,1,0,,,,,,,,,,,,,,,,switch,number,numSwt,d,0.4672,Hi,,,,,,0,,,,,,,,high,17,0,17,0,1,,,,,,,,,
297367,2022-12-07_15h05.47.506,vts_reward_expectancy_bt,2022.2.4,Win32,59.39653124,Chrome,1536,960,,,,,10,773,,,,,,,,,,,,,,,,,146,W,circle,1,0,,,,,,,,,,,,,,,,switch,letter,lettSwt,k,0.5871,Hi,,,,,,0,,,,,,,,high,18,0,18,0,1,,,,,,,,,
297367,2022-12-07_15h05.47.506,vts_reward_expectancy_bt,2022.2.4,Win32,59.39653124,Chrome,1536,960,,,,,10,783,,,,,,,,,,,,,,,,,167,U,hexagon,1,0,,,,,,,,,,,,,,,,repeat,letter,lettRpt,k,0.456,Lo,,,,,,0,,,,,,,,high,19,0,19,0,1,,,,,,,,,
297367,2022-12-07_15h05.47.506,vts_reward_expectancy_bt,2022.2.4,Win32,59.39653124,Chrome,1536,960,,,,,1,784,,,,,,,,,,,,,,,,,139,H,hexagon,1,0,,,,,,,,,,,,,,,,switch,number,numSwt,d,0.5711,Lo,,,,,,0,,,,,,,,high,20,0,20,0,1,,,,,,,,,
297367,2022-12-07_15h05.47.506,vts_reward_expectancy_bt,2022.2.4,Win32,59.39653124,Chrome,1536,960,,,,,1,785,,,,,,,,,,,,,,,,,181,D,triangle,1,0,,,,,,,,,,,,,,,,repeat,number,numRpt,f,0.6029,Lo,,,,,,0,,,,,,,,high,21,0,21,0,1,,,,,,,,,
297367,2022-12-07_15h05.47.506,vts_reward_expectancy_bt,2022.2.4,Win32,59.39653124,Chrome,1536,960,,,,,10,795,,,,,,,,,,,,,,,,,125,Y,star,1,0,,,,,,,,,,,,,,,,switch,letter,lettSwt,k,0.5676,Hi,,,,,,0,,,,,,,,high,22,0,22,0,1,,,,,,,,,
297367,2022-12-07_15h05.47.506,vts_reward_expectancy_bt,2022.2.4,Win32,59.39653124,Chrome,1536,960,,,,,10,805,,,,,,,,,,,,,,,,,174,F,circle,1,0,,,,,,,,,,,,,,,,repeat,letter,lettRpt,j,0.5508,Hi,,,,,,0,,,,,,,,high,23,0,23,0,1,,,,,,,,,
297367,2022-12-07_15h05.47.506,vts_reward_expectancy_bt,2022.2.4,Win32,59.39653124,Chrome,1536,960,,,,,10,815,,,,,,,,,,,,,,,,,160,W,triangle,1,0,,,,,,,,,,,,,,,,switch,number,numSwt,f,0.7,Lo,,,,,,0,,,,,,,,high,24,0,24,0,1,,,,,,,,,
297367,2022-12-07_15h05.47.506,vts_reward_expectancy_bt,2022.2.4,Win32,59.39653124,Chrome,1536,960,,,,,10,825,,,,,,,,,,,,,,,,,139,U,star,1,0,,,,,,,,,,,,,,,,switch,letter,lettSwt,k,0.5338,Hi,,,,,,0,,,,,,,,high,25,0,25,0,1,,,,,,,,,
297367,2022-12-07_15h05.47.506,vts_reward_expectancy_bt,2022.2.4,Win32,59.39653124,Chrome,1536,960,,,,,1,826,,,,,,,,,,,,,,,,,146,B,hexagon,1,0,,,,,,,,,,,,,,,,switch,number,numSwt,d,0.5087,Lo,,,,,,0,,,,,,,,high,26,0,26,0,1,,,,,,,,,
297367,2022-12-07_15h05.47.506,vts_reward_expectancy_bt,2022.2.4,Win32,59.39653124,Chrome,1536,960,,,,,10,836,,,,,,,,,,,,,,,,,132,Y,circle,1,0,,,,,,,,,,,,,,,,switch,letter,lettSwt,k,0.4389,Hi,,,,,,0,,,,,,,,high,27,0,27,0,1,,,,,,,,,
297367,2022-12-07_15h05.47.506,vts_reward_expectancy_bt,2022.2.4,Win32,59.39653124,Chrome,1536,960,,,,,10,846,,,,,,,,,,,,,,,,,181,F,circle,1,0,,,,,,,,,,,,,,,,switch,number,numSwt,f,0.6002,Hi,,,,,,0,,,,,,,,high,28,0,28,0,1,,,,,,,,,
297367,2022-12-07_15h05.47.506,vts_reward_expectancy_bt,2022.2.4,Win32,59.39653124,Chrome,1536,960,,,,,0,846,,,,,,,,,,,,,,,,,174,H,star,0,0,,,,,,,,,,,,,,,,switch,letter,NA,k,0.6512,Hi,,,,,,0,,,,,,,,high,29,0,29,0,1,,,,,,,,,
297367,2022-12-07_15h05.47.506,vts_reward_expectancy_bt,2022.2.4,Win32,59.39653124,Chrome,1536,960,,,,,1,847,,,,,,,,,,,,,,,,,125,D,hexagon,1,1,,,,,,,,,,,,,,,,repeat,letter,lettRpt,j,0.5255,Lo,,,,,,0,,,,,,,,high,30,0,30,0,1,,,,,,,,,
297367,2022-12-07_15h05.47.506,vts_reward_expectancy_bt,2022.2.4,Win32,59.39653124,Chrome,1536,960,,,,,0,847,,,,,,,,,,,,,,,,,167,S,triangle,0,0,,,,,,,,,,,,,,,,repeat,letter,NA,j,0.718,Lo,,,,,,0,,,,,,,,high,31,0,31,0,1,,,,,,,,,
297367,2022-12-07_15h05.47.506,vts_reward_expectancy_bt,2022.2.4,Win32,59.39653124,Chrome,1536,960,,,,,1,848,,,,,,,,,,,,,,,,,167,S,hexagon,1,1,,,,,,,,,,,,,,,,switch,number,numSwt,f,0.8598,Lo,,,,,,1,,,,,,space,1.4677,high,0,0,0,0,1,,,,,,,,,
297367,2022-12-07_15h05.47.506,vts_reward_expectancy_bt,2022.2.4,Win32,59.39653124,Chrome,1536,960,,,,,1,849,,,,,,,,,,,,,,,,,181,D,triangle,1,0,,,,,,,,,,,,,,,,switch,letter,lettSwt,j,0.641,Lo,,,,,,1,,,,,,,,high,1,0,1,0,1,,,,,,,,,
297367,2022-12-07_15h05.47.506,vts_reward_expectancy_bt,2022.2.4,Win32,59.39653124,Chrome,1536,960,,,,,10,859,,,,,,,,,,,,,,,,,160,W,circle,1,0,,,,,,,,,,,,,,,,switch,number,numSwt,f,0.4505,Hi,,,,,,1,,,,,,,,high,2,0,2,0,1,,,,,,,,,
297367,2022-12-07_15h05.47.506,vts_reward_expectancy_bt,2022.2.4,Win32,59.39653124,Chrome,1536,960,,,,,10,869,,,,,,,,,,,,,,,,,174,F,star,1,0,,,,,,,,,,,,,,,,repeat,number,numRpt,f,0.4721,Hi,,,,,,1,,,,,,,,high,3,0,3,0,1,,,,,,,,,
297367,2022-12-07_15h05.47.506,vts_reward_expectancy_bt,2022.2.4,Win32,59.39653124,Chrome,1536,960,,,,,1,870,,,,,,,,,,,,,,,,,132,B,hexagon,1,0,,,,,,,,,,,,,,,,switch,letter,lettSwt,j,0.4576,Lo,,,,,,1,,,,,,,,high,4,0,4,0,1,,,,,,,,,
297367,2022-12-07_15h05.47.506,vts_reward_expectancy_bt,2022.2.4,Win32,59.39653124,Chrome,1536,960,,,,,1,871,,,,,,,,,,,,,,,,,146,H,triangle,1,0,,,,,,,,,,,,,,,,switch,number,numSwt,d,0.7667,Lo,,,,,,1,,,,,,,,high,5,0,5,0,1,,,,,,,,,
297367,2022-12-07_15h05.47.506,vts_reward_expectancy_bt,2022.2.4,Win32,59.39653124,Chrome,1536,960,,,,,0,871,,,,,,,,,,,,,,,,,125,Y,circle,1,0,,,,,,,,,,,,,,,,switch,letter,lettSwt,k,0.6374,Hi,,,,,,1,,,,,,,,high,6,0,6,0,1,,,,,,,,,
297367,2022-12-07_15h05.47.506,vts_reward_expectancy_bt,2022.2.4,Win32,59.39653124,Chrome,1536,960,,,,,0,871,,,,,,,,,,,,,,,,,139,U,star,1,0,,,,,,,,,,,,,,,,repeat,letter,lettRpt,k,0.569,Hi,,,,,,1,,,,,,,,high,7,0,7,0,1,,,,,,,,,
297367,2022-12-07_15h05.47.506,vts_reward_expectancy_bt,2022.2.4,Win32,59.39653124,Chrome,1536,960,,,,,0,871,,,,,,,,,,,,,,,,,167,S,star,0,0,,,,,,,,,,,,,,,,repeat,letter,NA,j,0.4682,Hi,,,,,,1,,,,,,,,high,8,0,8,0,1,,,,,,,,,
297367,2022-12-07_15h05.47.506,vts_reward_expectancy_bt,2022.2.4,Win32,59.39653124,Chrome,1536,960,,,,,10,881,,,,,,,,,,,,,,,,,181,D,hexagon,1,1,,,,,,,,,,,,,,,,repeat,letter,lettRpt,j,0.5672,Lo,,,,,,1,,,,,,,,high,9,0,9,0,1,,,,,,,,,
297367,2022-12-07_15h05.47.506,vts_reward_expectancy_bt,2022.2.4,Win32,59.39653124,Chrome,1536,960,,,,,10,891,,,,,,,,,,,,,,,,,160,W,circle,1,0,,,,,,,,,,,,,,,,repeat,letter,lettRpt,k,0.4862,Hi,,,,,,1,,,,,,,,high,10,0,10,0,1,,,,,,,,,
297367,2022-12-07_15h05.47.506,vts_reward_expectancy_bt,2022.2.4,Win32,59.39653124,Chrome,1536,960,,,,,10,901,,,,,,,,,,,,,,,,,174,F,triangle,1,0,,,,,,,,,,,,,,,,repeat,letter,lettRpt,j,0.5231,Lo,,,,,,1,,,,,,,,high,11,0,11,0,1,,,,,,,,,
297367,2022-12-07_15h05.47.506,vts_reward_expectancy_bt,2022.2.4,Win32,59.39653124,Chrome,1536,960,,,,,0,901,,,,,,,,,,,,,,,,,132,B,circle,1,0,,,,,,,,,,,,,,,,repeat,letter,lettRpt,j,0.5205,Hi,,,,,,1,,,,,,,,high,12,0,12,0,1,,,,,,,,,
297367,2022-12-07_15h05.47.506,vts_reward_expectancy_bt,2022.2.4,Win32,59.39653124,Chrome,1536,960,,,,,0,901,,,,,,,,,,,,,,,,,146,H,star,1,0,,,,,,,,,,,,,,,,switch,number,numSwt,d,0.6524,Hi,,,,,,1,,,,,,,,high,13,0,13,0,1,,,,,,,,,
297367,2022-12-07_15h05.47.506,vts_reward_expectancy_bt,2022.2.4,Win32,59.39653124,Chrome,1536,960,,,,,0,901,,,,,,,,,,,,,,,,,125,Y,triangle,0,0,,,,,,,,,,,,,,,,repeat,number,NA,f,0.517,Hi,,,,,,1,,,,,,,,high,14,0,14,0,1,,,,,,,,,
297367,2022-12-07_15h05.47.506,vts_reward_expectancy_bt,2022.2.4,Win32,59.39653124,Chrome,1536,960,,,,,1,902,,,,,,,,,,,,,,,,,139,U,hexagon,1,1,,,,,,,,,,,,,,,,repeat,number,numRpt,d,0.7573,Lo,,,,,,1,,,,,,,,high,15,0,15,0,1,,,,,,,,,
297367,2022-12-07_15h05.47.506,vts_reward_expectancy_bt,2022.2.4,Win32,59.39653124,Chrome,1536,960,,,,,10,912,,,,,,,,,,,,,,,,,181,Y,hexagon,1,0,,,,,,,,,,,,,,,,repeat,number,numRpt,f,0.5237,Lo,,,,,,1,,,,,,,,high,16,0,16,0,1,,,,,,,,,
297367,2022-12-07_15h05.47.506,vts_reward_expectancy_bt,2022.2.4,Win32,59.39653124,Chrome,1536,960,,,,,0,912,,,,,,,,,,,,,,,,,174,D,star,1,0,,,,,,,,,,,,,,,,switch,letter,lettSwt,j,0.6007,Hi,,,,,,1,,,,,,,,high,17,0,17,0,1,,,,,,,,,
297367,2022-12-07_15h05.47.506,vts_reward_expectancy_bt,2022.2.4,Win32,59.39653124,Chrome,1536,960,,,,,0,912,,,,,,,,,,,,,,,,,139,U,circle,1,0,,,,,,,,,,,,,,,,repeat,letter,lettRpt,k,0.5879,Hi,,,,,,1,,,,,,,,high,18,0,18,0,1,,,,,,,,,
297367,2022-12-07_15h05.47.506,vts_reward_expectancy_bt,2022.2.4,Win32,59.39653124,Chrome,1536,960,,,,,1,913,,,,,,,,,,,,,,,,,167,H,triangle,1,0,,,,,,,,,,,,,,,,repeat,letter,lettRpt,j,0.9404,Lo,,,,,,1,,,,,,,,high,19,0,19,0,1,,,,,,,,,
297367,2022-12-07_15h05.47.506,vts_reward_expectancy_bt,2022.2.4,Win32,59.39653124,Chrome,1536,960,,,,,0,913,,,,,,,,,,,,,,,,,146,S,star,0,0,,,,,,,,,,,,,,,,repeat,letter,NA,j,0.5666,Lo,,,,,,1,,,,,,,,high,20,0,20,0,1,,,,,,,,,
297367,2022-12-07_15h05.47.506,vts_reward_expectancy_bt,2022.2.4,Win32,59.39653124,Chrome,1536,960,,,,,0,913,,,,,,,,,,,,,,,,,125,W,circle,1,1,,,,,,,,,,,,,,,,repeat,letter,lettRpt,k,0.6831,Hi,,,,,,1,,,,,,,,high,21,0,21,0,1,,,,,,,,,
297367,2022-12-07_15h05.47.506,vts_reward_expectancy_bt,2022.2.4,Win32,59.39653124,Chrome,1536,960,,,,,0,913,,,,,,,,,,,,,,,,,132,F,hexagon,0,0,,,,,,,,,,,,,,,,repeat,letter,NA,k,0.6669,Hi,,,,,,1,,,,,,,,high,22,0,22,0,1,,,,,,,,,
297367,2022-12-07_15h05.47.506,vts_reward_expectancy_bt,2022.2.4,Win32,59.39653124,Chrome,1536,960,,,,,10,923,,,,,,,,,,,,,,,,,160,B,triangle,1,1,,,,,,,,,,,,,,,,repeat,letter,lettRpt,j,0.5509,Lo,,,,,,1,,,,,,,,high,23,0,23,0,1,,,,,,,,,
297367,2022-12-07_15h05.47.506,vts_reward_expectancy_bt,2022.2.4,Win32,59.39653124,Chrome,1536,960,,,,,0,923,,,,,,,,,,,,,,,,,146,W,star,1,0,,,,,,,,,,,,,,,,switch,number,numSwt,d,0.717,Hi,,,,,,1,,,,,,,,high,24,0,24,0,1,,,,,,,,,
297367,2022-12-07_15h05.47.506,vts_reward_expectancy_bt,2022.2.4,Win32,59.39653124,Chrome,1536,960,,,,,1,924,,,,,,,,,,,,,,,,,181,D,hexagon,1,0,,,,,,,,,,,,,,,,repeat,number,numRpt,f,0.8178,Lo,,,,,,1,,,,,,,,high,25,0,25,0,1,,,,,,,,,
297367,2022-12-07_15h05.47.506,vts_reward_expectancy_bt,2022.2.4,Win32,59.39653124,Chrome,1536,960,,,,,10,934,,,,,,,,,,,,,,,,,132,Y,triangle,1,0,,,,,,,,,,,,,,,,repeat,number,numRpt,d,0.4914,Lo,,,,,,1,,,,,,,,high,26,0,26,0,1,,,,,,,,,
297367,2022-12-07_15h05.47.506,vts_reward_expectancy_bt,2022.2.4,Win32,59.39653124,Chrome,1536,960,,,,,0,934,,,,,,,,,,,,,,,,,167,F,circle,0,0,,,,,,,,,,,,,,,,repeat,number,NA,d,0.5332,Lo,,,,,,1,,,,,,,,high,27,0,27,0,1,,,,,,,,,
297367,2022-12-07_15h05.47.506,vts_reward_expectancy_bt,2022.2.4,Win32,59.39653124,Chrome,1536,960,,,,,0,934,,,,,,,,,,,,,,,,,125,H,circle,0,1,,,,,,,,,,,,,,,,switch,letter,NA,k,0.5176,Lo,,,,,,1,,,,,,,,high,28,0,28,0,1,,,,,,,,,
297367,2022-12-07_15h05.47.506,vts_reward_expectancy_bt,2022.2.4,Win32,59.39653124,Chrome,1536,960,,,,,0,934,,,,,,,,,,,,,,,,,174,B,star,1,1,,,,,,,,,,,,,,,,repeat,letter,lettRpt,j,0.5842,Hi,,,,,,1,,,,,,,,high,29,0,29,0,1,,,,,,,,,
297367,2022-12-07_15h05.47.506,vts_reward_expectancy_bt,2022.2.4,Win32,59.39653124,Chrome,1536,960,,,,,1,935,,,,,,,,,,,,,,,,,139,U,triangle,1,0,,,,,,,,,,,,,,,,repeat,letter,lettRpt,k,0.6342,Lo,,,,,,1,,,,,,,,high,30,0,30,0,1,,,,,,,,,
297367,2022-12-07_15h05.47.506,vts_reward_expectancy_bt,2022.2.4,Win32,59.39653124,Chrome,1536,960,,,,,10,945,,,,,,,,,,,,,,,,,160,S,hexagon,1,0,,,,,,,,,,,,,,,,repeat,letter,lettRpt,k,0.5872,Lo,,,,,,1,,,,,,,,high,31,0,31,0,1,,,,,,,,,
297367,2022-12-07_15h05.47.506,vts_reward_expectancy_bt,2022.2.4,Win32,59.39653124,Chrome,1536,960,,,,,0,945,,,,,,,,,,,,,,,,,125,B,circle,1,0,,,,,,,,,,,,,,,,switch,number,numSwt,d,0.7186,Hi,,,,,,2,,,,,,space,0.8019,high,0,0,0,0,1,,,,,,,,,
297367,2022-12-07_15h05.47.506,vts_reward_expectancy_bt,2022.2.4,Win32,59.39653124,Chrome,1536,960,,,,,1,946,,,,,,,,,,,,,,,,,167,Y,triangle,1,0,,,,,,,,,,,,,,,,repeat,number,numRpt,f,0.4548,Lo,,,,,,2,,,,,,,,high,1,0,1,0,1,,,,,,,,,
297367,2022-12-07_15h05.47.506,vts_reward_expectancy_bt,2022.2.4,Win32,59.39653124,Chrome,1536,960,,,,,0,946,,,,,,,,,,,,,,,,,174,F,hexagon,0,0,,,,,,,,,,,,,,,,switch,letter,NA,k,0.4757,Lo,,,,,,2,,,,,,,,high,2,0,2,0,1,,,,,,,,,
297367,2022-12-07_15h05.47.506,vts_reward_expectancy_bt,2022.2.4,Win32,59.39653124,Chrome,1536,960,,,,,0,946,,,,,,,,,,,,,,,,,132,W,star,0,1,,,,,,,,,,,,,,,,repeat,letter,NA,j,0.5851,Lo,,,,,,2,,,,,,,,high,3,0,3,0,1,,,,,,,,,
297367,2022-12-07_15h05.47.506,vts_reward_expectancy_bt,2022.2.4,Win32,59.39653124,Chrome,1536,960,,,,,0,946,,,,,,,,,,,,,,,,,146,H,circle,0,1,,,,,,,,,,,,,,,,repeat,letter,NA,k,0.5247,Lo,,,,,,2,,,,,,,,high,4,0,4,0,1,,,,,,,,,
297367,2022-12-07_15h05.47.506,vts_reward_expectancy_bt,2022.2.4,Win32,59.39653124,Chrome,1536,960,,,,,1,947,,,,,,,,,,,,,,,,,139,U,triangle,1,1,,,,,,,,,,,,,,,,repeat,letter,lettRpt,k,0.55,Lo,,,,,,2,,,,,,,,high,5,0,5,0,1,,,,,,,,,
297367,2022-12-07_15h05.47.506,vts_reward_expectancy_bt,2022.2.4,Win32,59.39653124,Chrome,1536,960,,,,,1,948,,,,,,,,,,,,,,,,,160,S,hexagon,1,0,,,,,,,,,,,,,,,,switch,number,numSwt,f,0.4675,Lo,,,,,,2,,,,,,,,high,6,0,6,0,1,,,,,,,,,
297367,2022-12-07_15h05.47.506,vts_reward_expectancy_bt,2022.2.4,Win32,59.39653124,Chrome,1536,960,,,,,0,948,,,,,,,,,,,,,,,,,181,D,star,1,0,,,,,,,,,,,,,,,,repeat,number,numRpt,f,0.5201,Hi,,,,,,2,,,,,,,,high,7,0,7,0,1,,,,,,,,,
297367,2022-12-07_15h05.47.506,vts_reward_expectancy_bt,2022.2.4,Win32,59.39653124,Chrome,1536,960,,,,,1,949,,,,,,,,,,,,,,,,,125,B,hexagon,1,0,,,,,,,,,,,,,,,,repeat,number,numRpt,d,0.5678,Lo,,,,,,2,,,,,,,,high,8,0,8,0,1,,,,,,,,,
297367,2022-12-07_15h05.47.506,vts_reward_expectancy_bt,2022.2.4,Win32,59.39653124,Chrome,1536,960,,,,,0,949,,,,,,,,,,,,,,,,,167,Y,star,1,0,,,,,,,,,,,,,,,,repeat,number,numRpt,f,0.5832,Hi,,,,,,2,,,,,,,,high,9,0,9,0,1,,,,,,,,,
297367,2022-12-07_15h05.47.506,vts_reward_expectancy_bt,2022.2.4,Win32,59.39653124,Chrome,1536,960,,,,,0,949,,,,,,,,,,,,,,,,,174,F,circle,1,0,,,,,,,,,,,,,,,,repeat,number,numRpt,f,0.5346,Hi,,,,,,2,,,,,,,,high,10,0,10,0,1,,,,,,,,,
297367,2022-12-07_15h05.47.506,vts_reward_expectancy_bt,2022.2.4,Win32,59.39653124,Chrome,1536,960,,,,,1,950,,,,,,,,,,,,,,,,,132,W,triangle,1,0,,,,,,,,,,,,,,,,switch,letter,lettSwt,k,0.5909,Lo,,,,,,2,,,,,,,,high,11,0,11,0,1,,,,,,,,,
297367,2022-12-07_15h05.47.506,vts_reward_expectancy_bt,2022.2.4,Win32,59.39653124,Chrome,1536,960,,,,,10,960,,,,,,,,,,,,,,,,,146,H,circle,1,0,,,,,,,,,,,,,,,,switch,number,numSwt,d,0.6009,Hi,,,,,,2,,,,,,,,high,12,0,12,0,1,,,,,,,,,
297367,2022-12-07_15h05.47.506,vts_reward_expectancy_bt,2022.2.4,Win32,59.39653124,Chrome,1536,960,,,,,1,961,,,,,,,,,,,,,,,,,139,U,hexagon,1,0,,,,,,,,,,,,,,,,switch,letter,lettSwt,k,0.5221,Lo,,,,,,2,,,,,,,,high,13,0,13,0,1,,,,,,,,,
297367,2022-12-07_15h05.47.506,vts_reward_expectancy_bt,2022.2.4,Win32,59.39653124,Chrome,1536,960,,,,,0,961,,,,,,,,,,,,,,,,,160,S,star,1,0,,,,,,,,,,,,,,,,repeat,letter,lettRpt,k,0.5848,Hi,,,,,,2,,,,,,,,high,14,0,14,0,1,,,,,,,,,
297367,2022-12-07_15h05.47.506,vts_reward_expectancy_bt,2022.2.4,Win32,59.39653124,Chrome,1536,960,,,,,0,961,,,,,,,,,,,,,,,,,181,D,triangle,0,0,,,,,,,,,,,,,,,,repeat,letter,NA,k,0.5734,Hi,,,,,,2,,,,,,,,high,15,0,15,0,1,,,,,,,,,
297367,2022-12-07_15h05.47.506,vts_reward_expectancy_bt,2022.2.4,Win32,59.39653124,Chrome,1536,960,,,,,1,962,,,,,,,,,,,,,,,,,139,W,hexagon,1,1,,,,,,,,,,,,,,,,repeat,letter,lettRpt,k,0.551,Lo,,,,,,2,,,,,,,,high,16,0,16,0,1,,,,,,,,,
297367,2022-12-07_15h05.47.506,vts_reward_expectancy_bt,2022.2.4,Win32,59.39653124,Chrome,1536,960,,,,,10,972,,,,,,,,,,,,,,,,,174,B,star,1,0,,,,,,,,,,,,,,,,repeat,letter,lettRpt,j,0.4668,Hi,,,,,,2,,,,,,,,high,17,0,17,0,1,,,,,,,,,
297367,2022-12-07_15h05.47.506,vts_reward_expectancy_bt,2022.2.4,Win32,59.39653124,Chrome,1536,960,,,,,0,972,,,,,,,,,,,,,,,,,146,H,triangle,0,0,,,,,,,,,,,,,,,,repeat,letter,NA,k,0.6093,Hi,,,,,,2,,,,,,,,high,18,0,18,0,1,,,,,,,,,
297367,2022-12-07_15h05.47.506,vts_reward_expectancy_bt,2022.2.4,Win32,59.39653124,Chrome,1536,960,,,,,0,972,,,,,,,,,,,,,,,,,125,S,circle,0,1,,,,,,,,,,,,,,,,repeat,letter,NA,j,0.5206,Hi,,,,,,2,,,,,,,,high,19,0,19,0,1,,,,,,,,,
297367,2022-12-07_15h05.47.506,vts_reward_expectancy_bt,2022.2.4,Win32,59.39653124,Chrome,1536,960,,,,,10,982,,,,,,,,,,,,,,,,,181,D,triangle,1,1,,,,,,,,,,,,,,,,repeat,letter,lettRpt,j,0.6345,Lo,,,,,,2,,,,,,,,high,20,0,20,0,1,,,,,,,,,
297367,2022-12-07_15h05.47.506,vts_reward_expectancy_bt,2022.2.4,Win32,59.39653124,Chrome,1536,960,,,,,0,982,,,,,,,,,,,,,,,,,132,Y,circle,1,0,,,,,,,,,,,,,,,,repeat,letter,lettRpt,k,0.5715,Hi,,,,,,2,,,,,,,,high,21,0,21,0,1,,,,,,,,,
297367,2022-12-07_15h05.47.506,vts_reward_expectancy_bt,2022.2.4,Win32,59.39653124,Chrome,1536,960,,,,,1,983,,,,,,,,,,,,,,,,,167,U,hexagon,1,0,,,,,,,,,,,,,,,,repeat,letter,lettRpt,k,0.6191,Lo,,,,,,2,,,,,,,,high,22,0,22,0,1,,,,,,,,,
297367,2022-12-07_15h05.47.506,vts_reward_expectancy_bt,2022.2.4,Win32,59.39653124,Chrome,1536,960,,,,,0,983,,,,,,,,,,,,,,,,,160,F,star,0,0,,,,,,,,,,,,,,,,repeat,letter,NA,k,0.55,Lo,,,,,,2,,,,,,,,high,23,0,23,0,1,,,,,,,,,
297367,2022-12-07_15h05.47.506,vts_reward_expectancy_bt,2022.2.4,Win32,59.39653124,Chrome,1536,960,,,,,0,983,,,,,,,,,,,,,,,,,132,Y,triangle,0,1,,,,,,,,,,,,,,,,repeat,letter,NA,j,0.6181,Lo,,,,,,2,,,,,,,,high,24,0,24,0,1,,,,,,,,,
297367,2022-12-07_15h05.47.506,vts_reward_expectancy_bt,2022.2.4,Win32,59.39653124,Chrome,1536,960,,,,,1,984,,,,,,,,,,,,,,,,,181,B,hexagon,1,1,,,,,,,,,,,,,,,,repeat,letter,lettRpt,j,0.6841,Lo,,,,,,2,,,,,,,,high,25,0,25,0,1,,,,,,,,,
297367,2022-12-07_15h05.47.506,vts_reward_expectancy_bt,2022.2.4,Win32,59.39653124,Chrome,1536,960,,,,,0,984,,,,,,,,,,,,,,,,,139,U,star,1,0,,,,,,,,,,,,,,,,repeat,letter,lettRpt,k,0.6352,Hi,,,,,,2,,,,,,,,high,26,0,26,0,1,,,,,,,,,
297367,2022-12-07_15h05.47.506,vts_reward_expectancy_bt,2022.2.4,Win32,59.39653124,Chrome,1536,960,,,,,0,984,,,,,,,,,,,,,,,,,160,D,circle,1,0,,,,,,,,,,,,,,,,repeat,letter,lettRpt,j,0.6905,Hi,,,,,,2,,,,,,,,high,27,0,27,0,1,,,,,,,,,
297367,2022-12-07_15h05.47.506,vts_reward_expectancy_bt,2022.2.4,Win32,59.39653124,Chrome,1536,960,,,,,0,984,,,,,,,,,,,,,,,,,174,W,star,1,0,,,,,,,,,,,,,,,,repeat,letter,lettRpt,k,0.6177,Hi,,,,,,2,,,,,,,,high,28,0,28,0,1,,,,,,,,,
297367,2022-12-07_15h05.47.506,vts_reward_expectancy_bt,2022.2.4,Win32,59.39653124,Chrome,1536,960,,,,,0,984,,,,,,,,,,,,,,,,,125,H,circle,1,0,,,,,,,,,,,,,,,,repeat,letter,lettRpt,j,0.6561,Hi,,,,,,2,,,,,,,,high,29,0,29,0,1,,,,,,,,,
297367,2022-12-07_15h05.47.506,vts_reward_expectancy_bt,2022.2.4,Win32,59.39653124,Chrome,1536,960,,,,,10,994,,,,,,,,,,,,,,,,,167,F,hexagon,1,0,,,,,,,,,,,,,,,,repeat,letter,lettRpt,j,0.5667,Lo,,,,,,2,,,,,,,,high,30,0,30,0,1,,,,,,,,,
297367,2022-12-07_15h05.47.506,vts_reward_expectancy_bt,2022.2.4,Win32,59.39653124,Chrome,1536,960,,,,,1,995,,,,,,,,,,,,,,,,,146,S,triangle,1,0,,,,,,,,,,,,,,,,repeat,letter,lettRpt,k,0.609,Lo,,,,,,2,,,,,,,,high,31,0,31,0,1,,,,,,,,,
297367,2022-12-07_15h05.47.506,vts_reward_expectancy_bt,2022.2.4,Win32,59.39653124,Chrome,1536,960,,,,,1,996,,,,,,,,,,,,,,,,,167,U,hexagon,1,0,,,,,,,,,,,,,,,,switch,number,numSwt,f,0.6355,Lo,,,,,,3,,,,,,space,1.7237,high,0,0,0,0,1,,,,,,,,,
297367,2022-12-07_15h05.47.506,vts_reward_expectancy_bt,2022.2.4,Win32,59.39653124,Chrome,1536,960,,,,,0,996,,,,,,,,,,,,,,,,,146,D,circle,1,0,,,,,,,,,,,,,,,,repeat,number,numRpt,d,0.6394,Hi,,,,,,3,,,,,,,,high,1,0,1,0,1,,,,,,,,,
297367,2022-12-07_15h05.47.506,vts_reward_expectancy_bt,2022.2.4,Win32,59.39653124,Chrome,1536,960,,,,,0,996,,,,,,,,,,,,,,,,,181,S,star,1,0,,,,,,,,,,,,,,,,repeat,number,numRpt,f,0.5603,Hi,,,,,,3,,,,,,,,high,2,0,2,0,1,,,,,,,,,
297367,2022-12-07_15h05.47.506,vts_reward_expectancy_bt,2022.2.4,Win32,59.39653124,Chrome,1536,960,,,,,1,997,,,,,,,,,,,,,,,,,174,W,triangle,1,0,,,,,,,,,,,,,,,,repeat,number,numRpt,f,0.5332,Lo,,,,,,3,,,,,,,,high,3,0,3,0,1,,,,,,,,,
297367,2022-12-07_15h05.47.506,vts_reward_expectancy_bt,2022.2.4,Win32,59.39653124,Chrome,1536,960,,,,,1,998,,,,,,,,,,,,,,,,,125,F,hexagon,1,0,,,,,,,,,,,,,,,,repeat,number,numRpt,d,0.4347,Lo,,,,,,3,,,,,,,,high,4,0,4,0,1,,,,,,,,,
297367,2022-12-07_15h05.47.506,vts_reward_expectancy_bt,2022.2.4,Win32,59.39653124,Chrome,1536,960,,,,,10,1008,,,,,,,,,,,,,,,,,160,H,circle,1,0,,,,,,,,,,,,,,,,repeat,number,numRpt,f,0.4531,Hi,,,,,,3,,,,,,,,high,5,0,5,0,1,,,,,,,,,
297367,2022-12-07_15h05.47.506,vts_reward_expectancy_bt,2022.2.4,Win32,59.39653124,Chrome,1536,960,,,,,1,1009,,,,,,,,,,,,,,,,,139,B,star,1,0,,,,,,,,,,,,,,,,repeat,number,numRpt,d,0.4166,Hi,,,,,,3,,,,,,,,high,6,0,6,0,1,,,,,,,,,
297367,2022-12-07_15h05.47.506,vts_reward_expectancy_bt,2022.2.4,Win32,59.39653124,Chrome,1536,960,,,,,1,1010,,,,,,,,,,,,,,,,,132,Y,triangle,1,0,,,,,,,,,,,,,,,,repeat,number,numRpt,d,0.3939,Lo,,,,,,3,,,,,,,,high,7,0,7,0,1,,,,,,,,,
297367,2022-12-07_15h05.47.506,vts_reward_expectancy_bt,2022.2.4,Win32,59.39653124,Chrome,1536,960,,,,,10,1020,,,,,,,,,,,,,,,,,167,U,circle,1,0,,,,,,,,,,,,,,,,repeat,number,numRpt,f,0.3716,Hi,,,,,,3,,,,,,,,high,8,0,8,0,1,,,,,,,,,
297367,2022-12-07_15h05.47.506,vts_reward_expectancy_bt,2022.2.4,Win32,59.39653124,Chrome,1536,960,,,,,1,1021,,,,,,,,,,,,,,,,,146,D,triangle,1,0,,,,,,,,,,,,,,,,repeat,number,numRpt,d,0.567,Lo,,,,,,3,,,,,,,,high,9,0,9,0,1,,,,,,,,,
297367,2022-12-07_15h05.47.506,vts_reward_expectancy_bt,2022.2.4,Win32,59.39653124,Chrome,1536,960,,,,,10,1031,,,,,,,,,,,,,,,,,181,S,star,1,0,,,,,,,,,,,,,,,,repeat,number,numRpt,f,0.4664,Hi,,,,,,3,,,,,,,,high,10,0,10,0,1,,,,,,,,,
297367,2022-12-07_15h05.47.506,vts_reward_expectancy_bt,2022.2.4,Win32,59.39653124,Chrome,1536,960,,,,,1,1032,,,,,,,,,,,,,,,,,174,W,hexagon,1,0,,,,,,,,,,,,,,,,repeat,number,numRpt,f,0.4841,Lo,,,,,,3,,,,,,,,high,11,0,11,0,1,,,,,,,,,
297367,2022-12-07_15h05.47.506,vts_reward_expectancy_bt,2022.2.4,Win32,59.39653124,Chrome,1536,960,,,,,1,1033,,,,,,,,,,,,,,,,,125,F,triangle,1,0,,,,,,,,,,,,,,,,repeat,number,numRpt,d,0.6176,Lo,,,,,,3,,,,,,,,high,12,0,12,0,1,,,,,,,,,
297367,2022-12-07_15h05.47.506,vts_reward_expectancy_bt,2022.2.4,Win32,59.39653124,Chrome,1536,960,,,,,10,1043,,,,,,,,,,,,,,,,,160,H,circle,1,0,,,,,,,,,,,,,,,,repeat,number,numRpt,f,0.4673,Hi,,,,,,3,,,,,,,,high,13,0,13,0,1,,,,,,,,,
297367,2022-12-07_15h05.47.506,vts_reward_expectancy_bt,2022.2.4,Win32,59.39653124,Chrome,1536,960,,,,,1,1044,,,,,,,,,,,,,,,,,139,B,hexagon,1,0,,,,,,,,,,,,,,,,repeat,number,numRpt,d,0.5039,Lo,,,,,,3,,,,,,,,high,14,0,14,0,1,,,,,,,,,
297367,2022-12-07_15h05.47.506,vts_reward_expectancy_bt,2022.2.4,Win32,59.39653124,Chrome,1536,960,,,,,0,1044,,,,,,,,,,,,,,,,,132,Y,star,1,0,,,,,,,,,,,,,,,,repeat,number,numRpt,d,0.5681,Hi,,,,,,3,,,,,,,,high,15,0,15,0,1,,,,,,,,,
297367,2022-12-07_15h05.47.506,vts_reward_expectancy_bt,2022.2.4,Win32,59.39653124,Chrome,1536,960,,,,,1,1045,,,,,,,,,,,,,,,,,125,D,triangle,1,0,,,,,,,,,,,,,,,,repeat,number,numRpt,d,0.4733,Lo,,,,,,3,,,,,,,,high,16,0,16,0,1,,,,,,,,,
297367,2022-12-07_15h05.47.506,vts_reward_expectancy_bt,2022.2.4,Win32,59.39653124,Chrome,1536,960,,,,,0,1045,,,,,,,,,,,,,,,,,160,S,circle,1,0,,,,,,,,,,,,,,,,repeat,number,numRpt,f,0.6009,Hi,,,,,,3,,,,,,,,high,17,0,17,0,1,,,,,,,,,
297367,2022-12-07_15h05.47.506,vts_reward_expectancy_bt,2022.2.4,Win32,59.39653124,Chrome,1536,960,,,,,1,1046,,,,,,,,,,,,,,,,,174,Y,hexagon,1,0,,,,,,,,,,,,,,,,repeat,number,numRpt,f,0.5843,Lo,,,,,,3,,,,,,,,high,18,0,18,0,1,,,,,,,,,
297367,2022-12-07_15h05.47.506,vts_reward_expectancy_bt,2022.2.4,Win32,59.39653124,Chrome,1536,960,,,,,0,1046,,,,,,,,,,,,,,,,,167,U,star,0,0,,,,,,,,,,,,,,,,repeat,number,NA,d,0.5066,Lo,,,,,,3,,,,,,,,high,19,0,19,0,1,,,,,,,,,
297367,2022-12-07_15h05.47.506,vts_reward_expectancy_bt,2022.2.4,Win32,59.39653124,Chrome,1536,960,,,,,0,1046,,,,,,,,,,,,,,,,,132,F,circle,1,1,,,,,,,,,,,,,,,,repeat,number,numRpt,d,0.6668,Hi,,,,,,3,,,,,,,,high,20,0,20,0,1,,,,,,,,,
297367,2022-12-07_15h05.47.506,vts_reward_expectancy_bt,2022.2.4,Win32,59.39653124,Chrome,1536,960,,,,,1,1047,,,,,,,,,,,,,,,,,146,B,hexagon,1,0,,,,,,,,,,,,,,,,repeat,number,numRpt,d,0.741,Lo,,,,,,3,,,,,,,,high,21,0,21,0,1,,,,,,,,,
297367,2022-12-07_15h05.47.506,vts_reward_expectancy_bt,2022.2.4,Win32,59.39653124,Chrome,1536,960,,,,,1,1048,,,,,,,,,,,,,,,,,181,W,triangle,1,0,,,,,,,,,,,,,,,,repeat,number,numRpt,f,0.4346,Lo,,,,,,3,,,,,,,,high,22,0,22,0,1,,,,,,,,,
297367,2022-12-07_15h05.47.506,vts_reward_expectancy_bt,2022.2.4,Win32,59.39653124,Chrome,1536,960,,,,,0,1048,,,,,,,,,,,,,,,,,139,H,star,1,0,,,,,,,,,,,,,,,,repeat,number,numRpt,d,0.5916,Hi,,,,,,3,,,,,,,,high,23,0,23,0,1,,,,,,,,,
297367,2022-12-07_15h05.47.506,vts_reward_expectancy_bt,2022.2.4,Win32,59.39653124,Chrome,1536,960,,,,,0,1048,,,,,,,,,,,,,,,,,146,D,star,1,0,,,,,,,,,,,,,,,,repeat,number,numRpt,d,0.5395,Hi,,,,,,3,,,,,,,,high,24,0,24,0,1,,,,,,,,,
297367,2022-12-07_15h05.47.506,vts_reward_expectancy_bt,2022.2.4,Win32,59.39653124,Chrome,1536,960,,,,,10,1058,,,,,,,,,,,,,,,,,174,U,triangle,1,0,,,,,,,,,,,,,,,,repeat,number,numRpt,f,0.5672,Lo,,,,,,3,,,,,,,,high,25,0,25,0,1,,,,,,,,,
297367,2022-12-07_15h05.47.506,vts_reward_expectancy_bt,2022.2.4,Win32,59.39653124,Chrome,1536,960,,,,,0,1058,,,,,,,,,,,,,,,,,167,S,circle,1,0,,,,,,,,,,,,,,,,repeat,number,numRpt,f,0.6001,Hi,,,,,,3,,,,,,,,high,26,0,26,0,1,,,,,,,,,
297367,2022-12-07_15h05.47.506,vts_reward_expectancy_bt,2022.2.4,Win32,59.39653124,Chrome,1536,960,,,,,10,1068,,,,,,,,,,,,,,,,,132,F,hexagon,1,0,,,,,,,,,,,,,,,,repeat,number,numRpt,d,0.5511,Lo,,,,,,3,,,,,,,,high,27,0,27,0,1,,,,,,,,,
297367,2022-12-07_15h05.47.506,vts_reward_expectancy_bt,2022.2.4,Win32,59.39653124,Chrome,1536,960,,,,,0,1068,,,,,,,,,,,,,,,,,139,Y,circle,1,0,,,,,,,,,,,,,,,,repeat,number,numRpt,d,0.5669,Hi,,,,,,3,,,,,,,,high,28,0,28,0,1,,,,,,,,,
297367,2022-12-07_15h05.47.506,vts_reward_expectancy_bt,2022.2.4,Win32,59.39653124,Chrome,1536,960,,,,,1,1069,,,,,,,,,,,,,,,,,181,W,hexagon,1,0,,,,,,,,,,,,,,,,repeat,number,numRpt,f,0.5513,Lo,,,,,,3,,,,,,,,high,29,0,29,0,1,,,,,,,,,
297367,2022-12-07_15h05.47.506,vts_reward_expectancy_bt,2022.2.4,Win32,59.39653124,Chrome,1536,960,,,,,1,1070,,,,,,,,,,,,,,,,,160,H,triangle,1,0,,,,,,,,,,,,,,,,repeat,number,numRpt,f,0.5523,Lo,,,,,,3,,,,,,,,high,30,0,30,0,1,,,,,,,,,
297367,2022-12-07_15h05.47.506,vts_reward_expectancy_bt,2022.2.4,Win32,59.39653124,Chrome,1536,960,,,,,0,1070,,,,,,,,,,,,,,,,,125,B,star,1,0,,,,,,,,,,,,,,,,repeat,number,numRpt,d,0.5845,Hi,,,,,,3,,,,,,,,high,31,0,31,0,1,,,,,,,,,
297367,2022-12-07_15h05.47.506,vts_reward_expectancy_bt,2022.2.4,Win32,59.39653124,Chrome,1536,960,,,,,10,1080,,,,,,,,,,,,,,,,,181,H,triangle,1,0,,,,,,,,,,,,,,,,switch,letter,lettSwt,j,0.7345,Lo,,,,,,4,,,,,,space,1.1516,high,0,0,0,0,1,,,,,,,,,
297367,2022-12-07_15h05.47.506,vts_reward_expectancy_bt,2022.2.4,Win32,59.39653124,Chrome,1536,960,,,,,10,1090,,,,,,,,,,,,,,,,,125,U,circle,1,0,,,,,,,,,,,,,,,,repeat,letter,lettRpt,k,0.4379,Hi,,,,,,4,,,,,,,,high,1,0,1,0,1,,,,,,,,,
297367,2022-12-07_15h05.47.506,vts_reward_expectancy_bt,2022.2.4,Win32,59.39653124,Chrome,1536,960,,,,,10,1100,,,,,,,,,,,,,,,,,167,F,star,1,0,,,,,,,,,,,,,,,,repeat,letter,lettRpt,j,0.7561,Hi,,,,,,4,,,,,,,,high,2,0,2,0,1,,,,,,,,,
297367,2022-12-07_15h05.47.506,vts_reward_expectancy_bt,2022.2.4,Win32,59.39653124,Chrome,1536,960,,,,,10,1110,,,,,,,,,,,,,,,,,139,D,hexagon,1,0,,,,,,,,,,,,,,,,repeat,letter,lettRpt,j,0.5841,Lo,,,,,,4,,,,,,,,high,3,0,3,0,1,,,,,,,,,
297367,2022-12-07_15h05.47.506,vts_reward_expectancy_bt,2022.2.4,Win32,59.39653124,Chrome,1536,960,,,,,1,1111,,,,,,,,,,,,,,,,,146,W,triangle,1,0,,,,,,,,,,,,,,,,repeat,letter,lettRpt,k,0.4511,Lo,,,,,,4,,,,,,,,high,4,0,4,0,1,,,,,,,,,
297367,2022-12-07_15h05.47.506,vts_reward_expectancy_bt,2022.2.4,Win32,59.39653124,Chrome,1536,960,,,,,10,1121,,,,,,,,,,,,,,,,,174,Y,circle,1,0,,,,,,,,,,,,,,,,repeat,letter,lettRpt,k,0.5374,Hi,,,,,,4,,,,,,,,high,5,0,5,0,1,,,,,,,,,
297367,2022-12-07_15h05.47.506,vts_reward_expectancy_bt,2022.2.4,Win32,59.39653124,Chrome,1536,960,,,,,0,1121,,,,,,,,,,,,,,,,,160,S,star,0,0,,,,,,,,,,,,,,,,repeat,letter,NA,j,0.5837,Hi,,,,,,4,,,,,,,,high,6,0,6,0,1,,,,,,,,,
297367,2022-12-07_15h05.47.506,vts_reward_expectancy_bt,2022.2.4,Win32,59.39653124,Chrome,1536,960,,,,,1,1122,,,,,,,,,,,,,,,,,132,B,hexagon,1,1,,,,,,,,,,,,,,,,repeat,letter,lettRpt,j,0.5664,Lo,,,,,,4,,,,,,,,high,7,0,7,0,1,,,,,,,,,
297367,2022-12-07_15h05.47.506,vts_reward_expectancy_bt,2022.2.4,Win32,59.39653124,Chrome,1536,960,,,,,1,1123,,,,,,,,,,,,,,,,,181,H,star,1,0,,,,,,,,,,,,,,,,repeat,letter,lettRpt,j,0.6004,Hi,,,,,,4,,,,,,,,high,8,0,8,0,1,,,,,,,,,
297367,2022-12-07_15h05.47.506,vts_reward_expectancy_bt,2022.2.4,Win32,59.39653124,Chrome,1536,960,,,,,10,1133,,,,,,,,,,,,,,,,,125,U,circle,1,0,,,,,,,,,,,,,,,,repeat,letter,lettRpt,k,0.5541,Hi,,,,,,4,,,,,,,,high,9,0,9,0,1,,,,,,,,,
297367,2022-12-07_15h05.47.506,vts_reward_expectancy_bt,2022.2.4,Win32,59.39653124,Chrome,1536,960,,,,,1,1134,,,,,,,,,,,,,,,,,167,F,triangle,1,0,,,,,,,,,,,,,,,,repeat,letter,lettRpt,j,0.5561,Lo,,,,,,4,,,,,,,,high,10,0,10,0,1,,,,,,,,,
297367,2022-12-07_15h05.47.506,vts_reward_expectancy_bt,2022.2.4,Win32,59.39653124,Chrome,1536,960,,,,,1,1135,,,,,,,,,,,,,,,,,139,D,hexagon,1,0,,,,,,,,,,,,,,,,repeat,letter,lettRpt,j,0.5398,Lo,,,,,,4,,,,,,,,high,11,0,11,0,1,,,,,,,,,
297367,2022-12-07_15h05.47.506,vts_reward_expectancy_bt,2022.2.4,Win32,59.39653124,Chrome,1536,960,,,,,1,1136,,,,,,,,,,,,,,,,,146,W,triangle,1,0,,,,,,,,,,,,,,,,repeat,letter,lettRpt,k,0.5509,Lo,,,,,,4,,,,,,,,high,12,0,12,0,1,,,,,,,,,
297367,2022-12-07_15h05.47.506,vts_reward_expectancy_bt,2022.2.4,Win32,59.39653124,Chrome,1536,960,,,,,10,1146,,,,,,,,,,,,,,,,,174,Y,star,1,0,,,,,,,,,,,,,,,,repeat,letter,lettRpt,k,0.9358,Hi,,,,,,4,,,,,,,,high,13,0,13,0,1,,,,,,,,,
297367,2022-12-07_15h05.47.506,vts_reward_expectancy_bt,2022.2.4,Win32,59.39653124,Chrome,1536,960,,,,,10,1156,,,,,,,,,,,,,,,,,160,S,circle,1,0,,,,,,,,,,,,,,,,repeat,letter,lettRpt,k,0.6744,Hi,,,,,,4,,,,,,,,high,14,0,14,0,1,,,,,,,,,
297367,2022-12-07_15h05.47.506,vts_reward_expectancy_bt,2022.2.4,Win32,59.39653124,Chrome,1536,960,,,,,10,1166,,,,,,,,,,,,,,,,,132,B,hexagon,1,0,,,,,,,,,,,,,,,,repeat,letter,lettRpt,j,0.6183,Lo,,,,,,4,,,,,,,,high,15,0,15,0,1,,,,,,,,,
297367,2022-12-07_15h05.47.506,vts_reward_expectancy_bt,2022.2.4,Win32,59.39653124,Chrome,1536,960,,,,,10,1176,,,,,,,,,,,,,,,,,132,Y,circle,1,0,,,,,,,,,,,,,,,,repeat,letter,lettRpt,k,0.7704,Hi,,,,,,4,,,,,,,,high,16,0,16,0,1,,,,,,,,,
297367,2022-12-07_15h05.47.506,vts_reward_expectancy_bt,2022.2.4,Win32,59.39653124,Chrome,1536,960,,,,,1,1177,,,,,,,,,,,,,,,,,139,D,triangle,1,0,,,,,,,,,,,,,,,,repeat,letter,lettRpt,j,0.5383,Lo,,,,,,4,,,,,,,,high,17,0,17,0,1,,,,,,,,,
297367,2022-12-07_15h05.47.506,vts_reward_expectancy_bt,2022.2.4,Win32,59.39653124,Chrome,1536,960,,,,,1,1178,,,,,,,,,,,,,,,,,125,U,hexagon,1,0,,,,,,,,,,,,,,,,repeat,letter,lettRpt,k,0.5173,Lo,,,,,,4,,,,,,,,high,18,0,18,0,1,,,,,,,,,
297367,2022-12-07_15h05.47.506,vts_reward_expectancy_bt,2022.2.4,Win32,59.39653124,Chrome,1536,960,,,,,10,1188,,,,,,,,,,,,,,,,,160,F,star,1,0,,,,,,,,,,,,,,,,repeat,letter,lettRpt,j,0.772,Hi,,,,,,4,,,,,,,,high,19,0,19,0,1,,,,,,,,,
297367,2022-12-07_15h05.47.506,vts_reward_expectancy_bt,2022.2.4,Win32,59.39653124,Chrome,1536,960,,,,,1,1189,,,,,,,,,,,,,,,,,181,W,triangle,1,0,,,,,,,,,,,,,,,,repeat,letter,lettRpt,k,0.6387,Lo,,,,,,4,,,,,,,,high,20,0,20,0,1,,,,,,,,,
297367,2022-12-07_15h05.47.506,vts_reward_expectancy_bt,2022.2.4,Win32,59.39653124,Chrome,1536,960,,,,,10,1199,,,,,,,,,,,,,,,,,174,B,circle,1,0,,,,,,,,,,,,,,,,repeat,letter,lettRpt,j,0.5841,Hi,,,,,,4,,,,,,,,high,21,0,21,0,1,,,,,,,,,
297367,2022-12-07_15h05.47.506,vts_reward_expectancy_bt,2022.2.4,Win32,59.39653124,Chrome,1536,960,,,,,1,1200,,,,,,,,,,,,,,,,,146,H,hexagon,1,0,,,,,,,,,,,,,,,,repeat,letter,lettRpt,j,0.6184,Lo,,,,,,4,,,,,,,,high,22,0,22,0,1,,,,,,,,,
297367,2022-12-07_15h05.47.506,vts_reward_expectancy_bt,2022.2.4,Win32,59.39653124,Chrome,1536,960,,,,,10,1210,,,,,,,,,,,,,,,,,167,S,star,1,0,,,,,,,,,,,,,,,,repeat,letter,lettRpt,k,0.6002,Hi,,,,,,4,,,,,,,,high,23,0,23,0,1,,,,,,,,,
297367,2022-12-07_15h05.47.506,vts_reward_expectancy_bt,2022.2.4,Win32,59.39653124,Chrome,1536,960,,,,,10,1220,,,,,,,,,,,,,,,,,132,B,star,1,0,,,,,,,,,,,,,,,,repeat,letter,lettRpt,j,0.6005,Hi,,,,,,4,,,,,,,,high,24,0,24,0,1,,,,,,,,,
297367,2022-12-07_15h05.47.506,vts_reward_expectancy_bt,2022.2.4,Win32,59.39653124,Chrome,1536,960,,,,,0,1220,,,,,,,,,,,,,,,,,174,D,triangle,0,0,,,,,,,,,,,,,,,,repeat,letter,NA,k,0.4294,Hi,,,,,,4,,,,,,,,high,25,0,25,0,1,,,,,,,,,
297367,2022-12-07_15h05.47.506,vts_reward_expectancy_bt,2022.2.4,Win32,59.39653124,Chrome,1536,960,,,,,10,1230,,,,,,,,,,,,,,,,,146,H,hexagon,1,1,,,,,,,,,,,,,,,,repeat,letter,lettRpt,j,0.6163,Lo,,,,,,4,,,,,,,,high,26,0,26,0,1,,,,,,,,,
297367,2022-12-07_15h05.47.506,vts_reward_expectancy_bt,2022.2.4,Win32,59.39653124,Chrome,1536,960,,,,,10,1240,,,,,,,,,,,,,,,,,181,W,circle,1,0,,,,,,,,,,,,,,,,repeat,letter,lettRpt,k,0.4667,Hi,,,,,,4,,,,,,,,high,27,0,27,0,1,,,,,,,,,
297367,2022-12-07_15h05.47.506,vts_reward_expectancy_bt,2022.2.4,Win32,59.39653124,Chrome,1536,960,,,,,0,1240,,,,,,,,,,,,,,,,,125,U,triangle,0,0,,,,,,,,,,,,,,,,repeat,letter,NA,j,0.6066,Hi,,,,,,4,,,,,,,,high,28,0,28,0,1,,,,,,,,,
297367,2022-12-07_15h05.47.506,vts_reward_expectancy_bt,2022.2.4,Win32,59.39653124,Chrome,1536,960,,,,,10,1250,,,,,,,,,,,,,,,,,167,F,circle,1,1,,,,,,,,,,,,,,,,repeat,letter,lettRpt,j,0.7237,Hi,,,,,,4,,,,,,,,high,29,0,29,0,1,,,,,,,,,
297367,2022-12-07_15h05.47.506,vts_reward_expectancy_bt,2022.2.4,Win32,59.39653124,Chrome,1536,960,,,,,10,1260,,,,,,,,,,,,,,,,,139,Y,star,1,0,,,,,,,,,,,,,,,,repeat,letter,lettRpt,k,0.5504,Hi,,,,,,4,,,,,,,,high,30,0,30,0,1,,,,,,,,,
297367,2022-12-07_15h05.47.506,vts_reward_expectancy_bt,2022.2.4,Win32,59.39653124,Chrome,1536,960,,,,,1,1261,,,,,,,,,,,,,,,,,160,S,hexagon,1,0,,,,,,,,,,,,,,,,repeat,letter,lettRpt,k,0.8027,Lo,,,,,,4,,,,,,,,high,31,0,31,0,1,,,,,,,,,
297367,2022-12-07_15h05.47.506,vts_reward_expectancy_bt,2022.2.4,Win32,59.39653124,Chrome,1536,960,,,,,1,1262,,,,,,,,,,,,,,,,,181,Y,hexagon,1,0,,,,,,,,,,,,,,,,repeat,letter,lettRpt,k,0.5502,Lo,,,,,,5,,,,,,space,0.6084,high,0,0,0,0,1,,,,,,,,,
297367,2022-12-07_15h05.47.506,vts_reward_expectancy_bt,2022.2.4,Win32,59.39653124,Chrome,1536,960,,,,,0,1262,,,,,,,,,,,,,,,,,132,U,star,1,0,,,,,,,,,,,,,,,,repeat,letter,lettRpt,k,0.6342,Hi,,,,,,5,,,,,,,,high,1,0,1,0,1,,,,,,,,,
297367,2022-12-07_15h05.47.506,vts_reward_expectancy_bt,2022.2.4,Win32,59.39653124,Chrome,1536,960,,,,,1,1263,,,,,,,,,,,,,,,,,167,H,triangle,1,0,,,,,,,,,,,,,,,,repeat,letter,lettRpt,j,0.4847,Lo,,,,,,5,,,,,,,,high,2,0,2,0,1,,,,,,,,,
297367,2022-12-07_15h05.47.506,vts_reward_expectancy_bt,2022.2.4,Win32,59.39653124,Chrome,1536,960,,,,,0,1263,,,,,,,,,,,,,,,,,125,D,circle,0,0,,,,,,,,,,,,,,,,repeat,letter,NA,k,0.6333,Lo,,,,,,5,,,,,,,,high,3,0,3,0,1,,,,,,,,,
297367,2022-12-07_15h05.47.506,vts_reward_expectancy_bt,2022.2.4,Win32,59.39653124,Chrome,1536,960,,,,,1,1264,,,,,,,,,,,,,,,,,174,B,hexagon,1,1,,,,,,,,,,,,,,,,repeat,letter,lettRpt,j,0.539,Lo,,,,,,5,,,,,,,,high,4,0,4,0,1,,,,,,,,,
297367,2022-12-07_15h05.47.506,vts_reward_expectancy_bt,2022.2.4,Win32,59.39653124,Chrome,1536,960,,,,,0,1264,,,,,,,,,,,,,,,,,139,F,star,0,0,,,,,,,,,,,,,,,,repeat,letter,NA,k,0.5677,Lo,,,,,,5,,,,,,,,high,5,0,5,0,1,,,,,,,,,
297367,2022-12-07_15h05.47.506,vts_reward_expectancy_bt,2022.2.4,Win32,59.39653124,Chrome,1536,960,,,,,1,1265,,,,,,,,,,,,,,,,,146,S,triangle,1,1,,,,,,,,,,,,,,,,switch,number,numSwt,d,0.5507,Lo,,,,,,5,,,,,,,,high,6,0,6,0,1,,,,,,,,,
297367,2022-12-07_15h05.47.506,vts_reward_expectancy_bt,2022.2.4,Win32,59.39653124,Chrome,1536,960,,,,,10,1275,,,,,,,,,,,,,,,,,160,W,circle,1,0,,,,,,,,,,,,,,,,repeat,number,numRpt,f,0.5791,Hi,,,,,,5,,,,,,,,high,7,0,7,0,1,,,,,,,,,
297367,2022-12-07_15h05.47.506,vts_reward_expectancy_bt,2022.2.4,Win32,59.39653124,Chrome,1536,960,,,,,1,1276,,,,,,,,,,,,,,,,,181,Y,triangle,1,0,,,,,,,,,,,,,,,,repeat,number,numRpt,f,0.5138,Lo,,,,,,5,,,,,,,,high,8,0,8,0,1,,,,,,,,,
297367,2022-12-07_15h05.47.506,vts_reward_expectancy_bt,2022.2.4,Win32,59.39653124,Chrome,1536,960,,,,,1,1277,,,,,,,,,,,,,,,,,132,U,hexagon,1,0,,,,,,,,,,,,,,,,repeat,number,numRpt,d,0.5476,Lo,,,,,,5,,,,,,,,high,9,0,9,0,1,,,,,,,,,
297367,2022-12-07_15h05.47.506,vts_reward_expectancy_bt,2022.2.4,Win32,59.39653124,Chrome,1536,960,,,,,10,1287,,,,,,,,,,,,,,,,,167,H,star,1,0,,,,,,,,,,,,,,,,repeat,number,numRpt,f,0.5831,Hi,,,,,,5,,,,,,,,high,10,0,10,0,1,,,,,,,,,
297367,2022-12-07_15h05.47.506,vts_reward_expectancy_bt,2022.2.4,Win32,59.39653124,Chrome,1536,960,,,,,10,1297,,,,,,,,,,,,,,,,,125,D,circle,1,0,,,,,,,,,,,,,,,,repeat,number,numRpt,d,0.5675,Hi,,,,,,5,,,,,,,,high,11,0,11,0,1,,,,,,,,,
297367,2022-12-07_15h05.47.506,vts_reward_expectancy_bt,2022.2.4,Win32,59.39653124,Chrome,1536,960,,,,,1,1298,,,,,,,,,,,,,,,,,174,B,triangle,1,0,,,,,,,,,,,,,,,,repeat,number,numRpt,f,0.5844,Lo,,,,,,5,,,,,,,,high,12,0,12,0,1,,,,,,,,,
297367,2022-12-07_15h05.47.506,vts_reward_expectancy_bt,2022.2.4,Win32,59.39653124,Chrome,1536,960,,,,,0,1298,,,,,,,,,,,,,,,,,139,F,hexagon,-1,0,,,,,,,,,,,,,,,,switch,no_choice,NA,,,Lo,,,,,,5,,,,,,,,high,13,0,13,0,1,,,,,,,,,
297367,2022-12-07_15h05.47.506,vts_reward_expectancy_bt,2022.2.4,Win32,59.39653124,Chrome,1536,960,,,,,1,1299,,,,,,,,,,,,,,,,,146,S,star,1,0,,,,,,,,,,,,,,,,switch,number,numSwt,d,0.6504,Hi,,,,,,5,,,,,,,,high,14,0,14,0,1,,,,,,,,,
297367,2022-12-07_15h05.47.506,vts_reward_expectancy_bt,2022.2.4,Win32,59.39653124,Chrome,1536,960,,,,,1,1300,,,,,,,,,,,,,,,,,160,W,circle,1,0,,,,,,,,,,,,,,,,repeat,number,numRpt,f,0.6011,Hi,,,,,,5,,,,,,,,high,15,0,15,0,1,,,,,,,,,
297367,2022-12-07_15h05.47.506,vts_reward_expectancy_bt,2022.2.4,Win32,59.39653124,Chrome,1536,960,,,,,1,1301,,,,,,,,,,,,,,,,,125,U,triangle,1,0,,,,,,,,,,,,,,,,repeat,number,numRpt,d,0.6206,Lo,,,,,,5,,,,,,,,high,16,0,16,0,1,,,,,,,,,
297367,2022-12-07_15h05.47.506,vts_reward_expectancy_bt,2022.2.4,Win32,59.39653124,Chrome,1536,960,,,,,1,1302,,,,,,,,,,,,,,,,,139,B,hexagon,1,0,,,,,,,,,,,,,,,,repeat,number,numRpt,d,0.5343,Lo,,,,,,5,,,,,,,,high,17,0,17,0,1,,,,,,,,,
297367,2022-12-07_15h05.47.506,vts_reward_expectancy_bt,2022.2.4,Win32,59.39653124,Chrome,1536,960,,,,,10,1312,,,,,,,,,,,,,,,,,167,F,star,1,0,,,,,,,,,,,,,,,,repeat,number,numRpt,f,0.5367,Hi,,,,,,5,,,,,,,,high,18,0,18,0,1,,,,,,,,,
297367,2022-12-07_15h05.47.506,vts_reward_expectancy_bt,2022.2.4,Win32,59.39653124,Chrome,1536,960,,,,,10,1322,,,,,,,,,,,,,,,,,160,S,circle,1,0,,,,,,,,,,,,,,,,repeat,number,numRpt,f,0.5196,Hi,,,,,,5,,,,,,,,high,19,0,19,0,1,,,,,,,,,
297367,2022-12-07_15h05.47.506,vts_reward_expectancy_bt,2022.2.4,Win32,59.39653124,Chrome,1536,960,,,,,10,1332,,,,,,,,,,,,,,,,,181,W,hexagon,1,0,,,,,,,,,,,,,,,,repeat,number,numRpt,f,0.5668,Lo,,,,,,5,,,,,,,,high,20,0,20,0,1,,,,,,,,,
297367,2022-12-07_15h05.47.506,vts_reward_expectancy_bt,2022.2.4,Win32,59.39653124,Chrome,1536,960,,,,,1,1333,,,,,,,,,,,,,,,,,132,H,circle,1,0,,,,,,,,,,,,,,,,repeat,number,numRpt,d,0.6042,Hi,,,,,,5,,,,,,,,high,21,0,21,0,1,,,,,,,,,
297367,2022-12-07_15h05.47.506,vts_reward_expectancy_bt,2022.2.4,Win32,59.39653124,Chrome,1536,960,,,,,10,1343,,,,,,,,,,,,,,,,,146,D,star,1,0,,,,,,,,,,,,,,,,repeat,number,numRpt,d,0.6018,Hi,,,,,,5,,,,,,,,high,22,0,22,0,1,,,,,,,,,
297367,2022-12-07_15h05.47.506,vts_reward_expectancy_bt,2022.2.4,Win32,59.39653124,Chrome,1536,960,,,,,1,1344,,,,,,,,,,,,,,,,,174,Y,triangle,1,0,,,,,,,,,,,,,,,,repeat,number,numRpt,f,0.5927,Lo,,,,,,5,,,,,,,,high,23,0,23,0,1,,,,,,,,,
297367,2022-12-07_15h05.47.506,vts_reward_expectancy_bt,2022.2.4,Win32,59.39653124,Chrome,1536,960,,,,,10,1354,,,,,,,,,,,,,,,,,146,S,circle,1,0,,,,,,,,,,,,,,,,repeat,number,numRpt,d,0.6225,Hi,,,,,,5,,,,,,,,high,24,0,24,0,1,,,,,,,,,
297367,2022-12-07_15h05.47.506,vts_reward_expectancy_bt,2022.2.4,Win32,59.39653124,Chrome,1536,960,,,,,1,1355,,,,,,,,,,,,,,,,,139,D,triangle,1,0,,,,,,,,,,,,,,,,repeat,number,numRpt,d,0.5344,Lo,,,,,,5,,,,,,,,high,25,0,25,0,1,,,,,,,,,
297367,2022-12-07_15h05.47.506,vts_reward_expectancy_bt,2022.2.4,Win32,59.39653124,Chrome,1536,960,,,,,1,1356,,,,,,,,,,,,,,,,,132,F,hexagon,1,0,,,,,,,,,,,,,,,,repeat,number,numRpt,d,0.5207,Lo,,,,,,5,,,,,,,,high,26,0,26,0,1,,,,,,,,,
297367,2022-12-07_15h05.47.506,vts_reward_expectancy_bt,2022.2.4,Win32,59.39653124,Chrome,1536,960,,,,,10,1366,,,,,,,,,,,,,,,,,160,U,star,1,0,,,,,,,,,,,,,,,,repeat,number,numRpt,f,0.5507,Hi,,,,,,5,,,,,,,,high,27,0,27,0,1,,,,,,,,,
297367,2022-12-07_15h05.47.506,vts_reward_expectancy_bt,2022.2.4,Win32,59.39653124,Chrome,1536,960,,,,,0,1366,,,,,,,,,,,,,,,,,174,H,triangle,0,0,,,,,,,,,,,,,,,,repeat,number,NA,d,0.7166,Hi,,,,,,5,,,,,,,,high,28,0,28,0,1,,,,,,,,,
297367,2022-12-07_15h05.47.506,vts_reward_expectancy_bt,2022.2.4,Win32,59.39653124,Chrome,1536,960,,,,,0,1366,,,,,,,,,,,,,,,,,167,B,hexagon,0,1,,,,,,,,,,,,,,,,repeat,number,NA,d,0.5902,Hi,,,,,,5,,,,,,,,high,29,0,29,0,1,,,,,,,,,
297367,2022-12-07_15h05.47.506,vts_reward_expectancy_bt,2022.2.4,Win32,59.39653124,Chrome,1536,960,,,,,10,1376,,,,,,,,,,,,,,,,,125,Y,star,1,1,,,,,,,,,,,,,,,,repeat,number,numRpt,d,0.5054,Hi,,,,,,5,,,,,,,,high,30,0,30,0,1,,,,,,,,,
297367,2022-12-07_15h05.47.506,vts_reward_expectancy_bt,2022.2.4,Win32,59.39653124,Chrome,1536,960,,,,,10,1386,,,,,,,,,,,,,,,,,181,W,circle,1,0,,,,,,,,,,,,,,,,repeat,number,numRpt,f,0.572,Hi,,,,,,5,,,,,,,,high,31,0,31,0,1,,,,,,,,,
297367,2022-12-07_15h05.47.506,vts_reward_expectancy_bt,2022.2.4,Win32,59.39653124,Chrome,1536,960,,,,,1,1387,,,,,,,,,,,,,,,,,125,B,hexagon,1,0,,,,,,,,,,,,,,,,switch,letter,lettSwt,j,0.5754,Lo,,,,,,6,,,,,,space,0.987,high,0,0,0,0,1,,,,,,,,,
297367,2022-12-07_15h05.47.506,vts_reward_expectancy_bt,2022.2.4,Win32,59.39653124,Chrome,1536,960,,,,,1,1388,,,,,,,,,,,,,,,,,139,Y,triangle,1,0,,,,,,,,,,,,,,,,repeat,letter,lettRpt,k,0.6176,Lo,,,,,,6,,,,,,,,high,1,0,1,0,1,,,,,,,,,
297367,2022-12-07_15h05.47.506,vts_reward_expectancy_bt,2022.2.4,Win32,59.39653124,Chrome,1536,960,,,,,0,1388,,,,,,,,,,,,,,,,,146,F,star,0,0,,,,,,,,,,,,,,,,repeat,letter,NA,k,0.757,Lo,,,,,,6,,,,,,,,high,2,0,2,0,1,,,,,,,,,
297367,2022-12-07_15h05.47.506,vts_reward_expectancy_bt,2022.2.4,Win32,59.39653124,Chrome,1536,960,,,,,0,1388,,,,,,,,,,,,,,,,,167,W,circle,1,1,,,,,,,,,,,,,,,,repeat,letter,lettRpt,k,0.5515,Hi,,,,,,6,,,,,,,,high,3,0,3,0,1,,,,,,,,,
297367,2022-12-07_15h05.47.506,vts_reward_expectancy_bt,2022.2.4,Win32,59.39653124,Chrome,1536,960,,,,,10,1398,,,,,,,,,,,,,,,,,174,H,hexagon,1,0,,,,,,,,,,,,,,,,repeat,letter,lettRpt,j,0.5162,Lo,,,,,,6,,,,,,,,high,4,0,4,0,1,,,,,,,,,
297367,2022-12-07_15h05.47.506,vts_reward_expectancy_bt,2022.2.4,Win32,59.39653124,Chrome,1536,960,,,,,1,1399,,,,,,,,,,,,,,,,,181,S,triangle,1,0,,,,,,,,,,,,,,,,repeat,letter,lettRpt,k,0.6004,Lo,,,,,,6,,,,,,,,high,5,0,5,0,1,,,,,,,,,
297367,2022-12-07_15h05.47.506,vts_reward_expectancy_bt,2022.2.4,Win32,59.39653124,Chrome,1536,960,,,,,0,1399,,,,,,,,,,,,,,,,,132,D,star,1,0,,,,,,,,,,,,,,,,repeat,letter,lettRpt,j,0.7083,Hi,,,,,,6,,,,,,,,high,6,0,6,0,1,,,,,,,,,
