participant,date,expName,psychopyVersion,OS,frameRate,browser,xResolution,yResolution,key_resp.keys,key_resp.rt,training_resp.keys,training_resp.rt,points_trial,points_cumul,trainBlock,training.thisRepN,training.thisTrialN,training.thisN,training.thisIndex,training.ran,LTriangleOpac,LCircleOpac,LHexagonOpac,LStarOpac,RTriangleOpac,RCircleOpac,RHexagonOpac,RStarOpac,LShape_ID,RShape_ID,curr_topStim,curr_bottStim,curr_shape,acc,E1,target_resp_prac1.keys,target_resp_prac1.rt,pracBlock,task1_prac_trials.thisRepN,task1_prac_trials.thisTrialN,task1_prac_trials.thisN,task1_prac_trials.thisIndex,task1_prac_trials.ran,target_resp_prac2.keys,target_resp_prac2.rt,task2_praac_trials.thisRepN,task2_praac_trials.thisTrialN,task2_praac_trials.thisN,task2_praac_trials.thisIndex,task2_praac_trials.ran,alt,task,condition,target_resp.keys,target_resp.rt,rewCond,vts_practice_trials.thisRepN,vts_practice_trials.thisTrialN,vts_practice_trials.thisN,vts_practice_trials.thisIndex,vts_practice_trials.ran,blockNum,trials_norew.thisRepN,trials_norew.thisTrialN,trials_norew.thisN,trials_norew.thisIndex,trials_norew.ran,key_resp_2.keys,key_resp_2.rt,rewExpectancy,trials_rew.thisRepN,trials_rew.thisTrialN,trials_rew.thisN,trials_rew.thisIndex,trials_rew.ran,Q1,Q2,Q2_text,Q3,Q4,Q5_text,Q5,xRes,yRes
297301,2022-11-15_18h54.10.664,vts_reward_expectancy_bt,2022.2.4,MacIntel,60.0024001,Chrome,1440,900,,,,,,,,,,,,,,,,,,,,,,,,,,,,,,,,,,,,,,,,,,,,,,,,,,,,,,,,,,,,,,,,,,,,,,,,,,,,
297301,2022-11-15_18h54.10.664,vts_reward_expectancy_bt,2022.2.4,MacIntel,60.0024001,Chrome,1440,900,space,16.4666,,,,,,,,,,,,,,,,,,,,,,,,,,,,,,,,,,,,,,,,,,,,,,,,,,,,,,,,,,,,,,,,,,,,,,,,,,
297301,2022-11-15_18h54.10.664,vts_reward_expectancy_bt,2022.2.4,MacIntel,60.0024001,Chrome,1440,900,,,,,,,,,,,,,,,,,,,,,,,,,,,,,,,,,,,,,,,,,,,,,,,,,,,,,,,,,,,,,,,,,,,,,,,,,,,,
297301,2022-11-15_18h54.10.664,vts_reward_expectancy_bt,2022.2.4,MacIntel,60.0024001,Chrome,1440,900,,,a,1.7245,1,1,0,0,0,0,6,1,0,0,1,0,1,0,0,0,hexagon,triangle,,,,,,,,,,,,,,,,,,,,,,,,,,,,,,,,,,,,,,,,,,,,,,,,,,,,,,
297301,2022-11-15_18h54.10.664,vts_reward_expectancy_bt,2022.2.4,MacIntel,60.0024001,Chrome,1440,900,,,l,1.9858,1,2,0,0,1,1,1,1,1,0,0,0,0,0,1,0,triangle,hexagon,,,,,,,,,,,,,,,,,,,,,,,,,,,,,,,,,,,,,,,,,,,,,,,,,,,,,,
297301,2022-11-15_18h54.10.664,vts_reward_expectancy_bt,2022.2.4,MacIntel,60.0024001,Chrome,1440,900,,,l,1.9498,10,12,0,0,2,2,0,1,1,0,0,0,0,1,0,0,triangle,circle,,,,,,,,,,,,,,,,,,,,,,,,,,,,,,,,,,,,,,,,,,,,,,,,,,,,,,
297301,2022-11-15_18h54.10.664,vts_reward_expectancy_bt,2022.2.4,MacIntel,60.0024001,Chrome,1440,900,,,a,1.4335,10,22,0,0,3,3,9,1,0,0,0,1,1,0,0,0,star,triangle,,,,,,,,,,,,,,,,,,,,,,,,,,,,,,,,,,,,,,,,,,,,,,,,,,,,,,
297301,2022-11-15_18h54.10.664,vts_reward_expectancy_bt,2022.2.4,MacIntel,60.0024001,Chrome,1440,900,,,l,1.4522,1,23,0,0,4,4,3,1,0,1,0,0,1,0,0,0,circle,triangle,,,,,,,,,,,,,,,,,,,,,,,,,,,,,,,,,,,,,,,,,,,,,,,,,,,,,,
297301,2022-11-15_18h54.10.664,vts_reward_expectancy_bt,2022.2.4,MacIntel,60.0024001,Chrome,1440,900,,,a,0.9685,1,24,0,0,5,5,10,1,0,0,0,1,0,1,0,0,star ,circle,,,,,,,,,,,,,,,,,,,,,,,,,,,,,,,,,,,,,,,,,,,,,,,,,,,,,,
297301,2022-11-15_18h54.10.664,vts_reward_expectancy_bt,2022.2.4,MacIntel,60.0024001,Chrome,1440,900,,,l,2.1345,1,25,0,0,6,6,4,1,0,1,0,0,0,0,1,0,circle,hexagon,,,,,,,,,,,,,,,,,,,,,,,,,,,,,,,,,,,,,,,,,,,,,,,,,,,,,,
297301,2022-11-15_18h54.10.664,vts_reward_expectancy_bt,2022.2.4,MacIntel,60.0024001,Chrome,1440,900,,,a,1.5513,1,26,0,0,7,7,5,1,0,1,0,0,0,0,0,1,circle,star,,,,,,,,,,,,,,,,,,,,,,,,,,,,,,,,,,,,,,,,,,,,,,,,,,,,,,
297301,2022-11-15_18h54.10.664,vts_reward_expectancy_bt,2022.2.4,MacIntel,60.0024001,Chrome,1440,900,,,l,2.2055,1,27,0,0,8,8,11,1,0,0,0,1,0,0,1,0,star,hexagon,,,,,,,,,,,,,,,,,,,,,,,,,,,,,,,,,,,,,,,,,,,,,,,,,,,,,,
297301,2022-11-15_18h54.10.664,vts_reward_expectancy_bt,2022.2.4,MacIntel,60.0024001,Chrome,1440,900,,,a,1.2839,10,37,0,0,9,9,7,1,0,0,1,0,0,1,0,0,hexagon,circle,,,,,,,,,,,,,,,,,,,,,,,,,,,,,,,,,,,,,,,,,,,,,,,,,,,,,,
297301,2022-11-15_18h54.10.664,vts_reward_expectancy_bt,2022.2.4,MacIntel,60.0024001,Chrome,1440,900,,,l,1.0339,10,47,0,0,10,10,8,1,0,0,1,0,0,0,0,1,hexagon,star,,,,,,,,,,,,,,,,,,,,,,,,,,,,,,,,,,,,,,,,,,,,,,,,,,,,,,
297301,2022-11-15_18h54.10.664,vts_reward_expectancy_bt,2022.2.4,MacIntel,60.0024001,Chrome,1440,900,,,a,1.6075,10,57,0,0,11,11,2,1,1,0,0,0,0,0,0,1,triangle,star,,,,,,,,,,,,,,,,,,,,,,,,,,,,,,,,,,,,,,,,,,,,,,,,,,,,,,
297301,2022-11-15_18h54.10.664,vts_reward_expectancy_bt,2022.2.4,MacIntel,60.0024001,Chrome,1440,900,,,a,2.7029,1,58,0,1,0,12,8,1,0,0,1,0,0,0,0,1,hexagon,star,,,,,,,,,,,,,,,,,,,,,,,,,,,,,,,,,,,,,,,,,,,,,,,,,,,,,,
297301,2022-11-15_18h54.10.664,vts_reward_expectancy_bt,2022.2.4,MacIntel,60.0024001,Chrome,1440,900,,,a,1.4364,1,59,0,1,1,13,3,1,0,1,0,0,1,0,0,0,circle,triangle,,,,,,,,,,,,,,,,,,,,,,,,,,,,,,,,,,,,,,,,,,,,,,,,,,,,,,
297301,2022-11-15_18h54.10.664,vts_reward_expectancy_bt,2022.2.4,MacIntel,60.0024001,Chrome,1440,900,,,a,1.7815,1,60,0,1,2,14,2,1,1,0,0,0,0,0,0,1,triangle,star,,,,,,,,,,,,,,,,,,,,,,,,,,,,,,,,,,,,,,,,,,,,,,,,,,,,,,
297301,2022-11-15_18h54.10.664,vts_reward_expectancy_bt,2022.2.4,MacIntel,60.0024001,Chrome,1440,900,,,a,1.3893,1,61,0,1,3,15,9,1,0,0,0,1,1,0,0,0,star,triangle,,,,,,,,,,,,,,,,,,,,,,,,,,,,,,,,,,,,,,,,,,,,,,,,,,,,,,
297301,2022-11-15_18h54.10.664,vts_reward_expectancy_bt,2022.2.4,MacIntel,60.0024001,Chrome,1440,900,,,l,1.3729,1,62,0,1,4,16,11,1,0,0,0,1,0,0,1,0,star,hexagon,,,,,,,,,,,,,,,,,,,,,,,,,,,,,,,,,,,,,,,,,,,,,,,,,,,,,,
297301,2022-11-15_18h54.10.664,vts_reward_expectancy_bt,2022.2.4,MacIntel,60.0024001,Chrome,1440,900,,,l,1.2237,1,63,0,1,5,17,1,1,1,0,0,0,0,0,1,0,triangle,hexagon,,,,,,,,,,,,,,,,,,,,,,,,,,,,,,,,,,,,,,,,,,,,,,,,,,,,,,
297301,2022-11-15_18h54.10.664,vts_reward_expectancy_bt,2022.2.4,MacIntel,60.0024001,Chrome,1440,900,,,l,1.3703,1,64,0,1,6,18,4,1,0,1,0,0,0,0,1,0,circle,hexagon,,,,,,,,,,,,,,,,,,,,,,,,,,,,,,,,,,,,,,,,,,,,,,,,,,,,,,
297301,2022-11-15_18h54.10.664,vts_reward_expectancy_bt,2022.2.4,MacIntel,60.0024001,Chrome,1440,900,,,a,1.5148,10,74,0,1,7,19,0,1,1,0,0,0,0,1,0,0,triangle,circle,,,,,,,,,,,,,,,,,,,,,,,,,,,,,,,,,,,,,,,,,,,,,,,,,,,,,,
297301,2022-11-15_18h54.10.664,vts_reward_expectancy_bt,2022.2.4,MacIntel,60.0024001,Chrome,1440,900,,,l,1.7731,10,84,0,1,8,20,7,1,0,0,1,0,0,1,0,0,hexagon,circle,,,,,,,,,,,,,,,,,,,,,,,,,,,,,,,,,,,,,,,,,,,,,,,,,,,,,,
297301,2022-11-15_18h54.10.664,vts_reward_expectancy_bt,2022.2.4,MacIntel,60.0024001,Chrome,1440,900,,,l,1.869,1,85,0,1,9,21,6,1,0,0,1,0,1,0,0,0,hexagon,triangle,,,,,,,,,,,,,,,,,,,,,,,,,,,,,,,,,,,,,,,,,,,,,,,,,,,,,,
297301,2022-11-15_18h54.10.664,vts_reward_expectancy_bt,2022.2.4,MacIntel,60.0024001,Chrome,1440,900,,,l,0.9532,10,95,0,1,10,22,5,1,0,1,0,0,0,0,0,1,circle,star,,,,,,,,,,,,,,,,,,,,,,,,,,,,,,,,,,,,,,,,,,,,,,,,,,,,,,
297301,2022-11-15_18h54.10.664,vts_reward_expectancy_bt,2022.2.4,MacIntel,60.0024001,Chrome,1440,900,,,a,2.0491,10,105,0,1,11,23,10,1,0,0,0,1,0,1,0,0,star ,circle,,,,,,,,,,,,,,,,,,,,,,,,,,,,,,,,,,,,,,,,,,,,,,,,,,,,,,
297301,2022-11-15_18h54.10.664,vts_reward_expectancy_bt,2022.2.4,MacIntel,60.0024001,Chrome,1440,900,,,a,1.4537,1,106,0,2,0,24,8,1,0,0,1,0,0,0,0,1,hexagon,star,,,,,,,,,,,,,,,,,,,,,,,,,,,,,,,,,,,,,,,,,,,,,,,,,,,,,,
297301,2022-11-15_18h54.10.664,vts_reward_expectancy_bt,2022.2.4,MacIntel,60.0024001,Chrome,1440,900,,,l,1.6219,10,116,0,2,1,25,5,1,0,1,0,0,0,0,0,1,circle,star,,,,,,,,,,,,,,,,,,,,,,,,,,,,,,,,,,,,,,,,,,,,,,,,,,,,,,
297301,2022-11-15_18h54.10.664,vts_reward_expectancy_bt,2022.2.4,MacIntel,60.0024001,Chrome,1440,900,,,a,1.2051,10,126,0,2,2,26,9,1,0,0,0,1,1,0,0,0,star,triangle,,,,,,,,,,,,,,,,,,,,,,,,,,,,,,,,,,,,,,,,,,,,,,,,,,,,,,
297301,2022-11-15_18h54.10.664,vts_reward_expectancy_bt,2022.2.4,MacIntel,60.0024001,Chrome,1440,900,,,l,0.9905,1,127,0,2,3,27,4,1,0,1,0,0,0,0,1,0,circle,hexagon,,,,,,,,,,,,,,,,,,,,,,,,,,,,,,,,,,,,,,,,,,,,,,,,,,,,,,
297301,2022-11-15_18h54.10.664,vts_reward_expectancy_bt,2022.2.4,MacIntel,60.0024001,Chrome,1440,900,,,l,1.2396,10,137,0,2,4,28,3,1,0,1,0,0,1,0,0,0,circle,triangle,,,,,,,,,,,,,,,,,,,,,,,,,,,,,,,,,,,,,,,,,,,,,,,,,,,,,,
297301,2022-11-15_18h54.10.664,vts_reward_expectancy_bt,2022.2.4,MacIntel,60.0024001,Chrome,1440,900,,,l,1.79,1,138,0,2,5,29,1,1,1,0,0,0,0,0,1,0,triangle,hexagon,,,,,,,,,,,,,,,,,,,,,,,,,,,,,,,,,,,,,,,,,,,,,,,,,,,,,,
297301,2022-11-15_18h54.10.664,vts_reward_expectancy_bt,2022.2.4,MacIntel,60.0024001,Chrome,1440,900,,,a,1.0518,10,148,0,2,6,30,6,1,0,0,1,0,1,0,0,0,hexagon,triangle,,,,,,,,,,,,,,,,,,,,,,,,,,,,,,,,,,,,,,,,,,,,,,,,,,,,,,
297301,2022-11-15_18h54.10.664,vts_reward_expectancy_bt,2022.2.4,MacIntel,60.0024001,Chrome,1440,900,,,a,1.3519,10,158,0,2,7,31,11,1,0,0,0,1,0,0,1,0,star,hexagon,,,,,,,,,,,,,,,,,,,,,,,,,,,,,,,,,,,,,,,,,,,,,,,,,,,,,,
297301,2022-11-15_18h54.10.664,vts_reward_expectancy_bt,2022.2.4,MacIntel,60.0024001,Chrome,1440,900,,,l,1.8203,1,159,0,2,8,32,10,1,0,0,0,1,0,1,0,0,star ,circle,,,,,,,,,,,,,,,,,,,,,,,,,,,,,,,,,,,,,,,,,,,,,,,,,,,,,,
297301,2022-11-15_18h54.10.664,vts_reward_expectancy_bt,2022.2.4,MacIntel,60.0024001,Chrome,1440,900,,,l,1.4929,1,160,0,2,9,33,0,1,1,0,0,0,0,1,0,0,triangle,circle,,,,,,,,,,,,,,,,,,,,,,,,,,,,,,,,,,,,,,,,,,,,,,,,,,,,,,
297301,2022-11-15_18h54.10.664,vts_reward_expectancy_bt,2022.2.4,MacIntel,60.0024001,Chrome,1440,900,,,a,0.9503,1,161,0,2,10,34,7,1,0,0,1,0,0,1,0,0,hexagon,circle,,,,,,,,,,,,,,,,,,,,,,,,,,,,,,,,,,,,,,,,,,,,,,,,,,,,,,
297301,2022-11-15_18h54.10.664,vts_reward_expectancy_bt,2022.2.4,MacIntel,60.0024001,Chrome,1440,900,,,l,0.7711,10,171,0,2,11,35,2,1,1,0,0,0,0,0,0,1,triangle,star,,,,,,,,,,,,,,,,,,,,,,,,,,,,,,,,,,,,,,,,,,,,,,,,,,,,,,
297301,2022-11-15_18h54.10.664,vts_reward_expectancy_bt,2022.2.4,MacIntel,60.0024001,Chrome,1440,900,,,a,2.062,10,181,1,0,0,0,11,1,0,0,0,1,0,0,1,0,star,hexagon,,,,,,,,,,,,,,,,,,,,,,,,,,,,,,,,,,,,,,,,,,,,,,,,,,,,,,
297301,2022-11-15_18h54.10.664,vts_reward_expectancy_bt,2022.2.4,MacIntel,60.0024001,Chrome,1440,900,,,l,0.807,10,191,1,0,1,1,2,1,1,0,0,0,0,0,0,1,triangle,star,,,,,,,,,,,,,,,,,,,,,,,,,,,,,,,,,,,,,,,,,,,,,,,,,,,,,,
297301,2022-11-15_18h54.10.664,vts_reward_expectancy_bt,2022.2.4,MacIntel,60.0024001,Chrome,1440,900,,,a,0.8831,1,192,1,0,2,2,4,1,0,1,0,0,0,0,1,0,circle,hexagon,,,,,,,,,,,,,,,,,,,,,,,,,,,,,,,,,,,,,,,,,,,,,,,,,,,,,,
297301,2022-11-15_18h54.10.664,vts_reward_expectancy_bt,2022.2.4,MacIntel,60.0024001,Chrome,1440,900,,,l,1.3355,1,193,1,0,3,3,7,1,0,0,1,0,0,1,0,0,hexagon,circle,,,,,,,,,,,,,,,,,,,,,,,,,,,,,,,,,,,,,,,,,,,,,,,,,,,,,,
297301,2022-11-15_18h54.10.664,vts_reward_expectancy_bt,2022.2.4,MacIntel,60.0024001,Chrome,1440,900,,,l,0.9345,10,203,1,0,4,4,3,1,0,1,0,0,1,0,0,0,circle,triangle,,,,,,,,,,,,,,,,,,,,,,,,,,,,,,,,,,,,,,,,,,,,,,,,,,,,,,
297301,2022-11-15_18h54.10.664,vts_reward_expectancy_bt,2022.2.4,MacIntel,60.0024001,Chrome,1440,900,,,l,0.8015,10,213,1,0,5,5,5,1,0,1,0,0,0,0,0,1,circle,star,,,,,,,,,,,,,,,,,,,,,,,,,,,,,,,,,,,,,,,,,,,,,,,,,,,,,,
297301,2022-11-15_18h54.10.664,vts_reward_expectancy_bt,2022.2.4,MacIntel,60.0024001,Chrome,1440,900,,,a,0.8479,10,223,1,0,6,6,10,1,0,0,0,1,0,1,0,0,star ,circle,,,,,,,,,,,,,,,,,,,,,,,,,,,,,,,,,,,,,,,,,,,,,,,,,,,,,,
297301,2022-11-15_18h54.10.664,vts_reward_expectancy_bt,2022.2.4,MacIntel,60.0024001,Chrome,1440,900,,,l,1.4754,10,233,1,0,7,7,0,1,1,0,0,0,0,1,0,0,triangle,circle,,,,,,,,,,,,,,,,,,,,,,,,,,,,,,,,,,,,,,,,,,,,,,,,,,,,,,
297301,2022-11-15_18h54.10.664,vts_reward_expectancy_bt,2022.2.4,MacIntel,60.0024001,Chrome,1440,900,,,a,0.8717,10,243,1,0,8,8,9,1,0,0,0,1,1,0,0,0,star,triangle,,,,,,,,,,,,,,,,,,,,,,,,,,,,,,,,,,,,,,,,,,,,,,,,,,,,,,
297301,2022-11-15_18h54.10.664,vts_reward_expectancy_bt,2022.2.4,MacIntel,60.0024001,Chrome,1440,900,,,l,2.3044,10,253,1,0,9,9,6,1,0,0,1,0,1,0,0,0,hexagon,triangle,,,,,,,,,,,,,,,,,,,,,,,,,,,,,,,,,,,,,,,,,,,,,,,,,,,,,,
297301,2022-11-15_18h54.10.664,vts_reward_expectancy_bt,2022.2.4,MacIntel,60.0024001,Chrome,1440,900,,,l,1.0684,1,254,1,0,10,10,8,1,0,0,1,0,0,0,0,1,hexagon,star,,,,,,,,,,,,,,,,,,,,,,,,,,,,,,,,,,,,,,,,,,,,,,,,,,,,,,
297301,2022-11-15_18h54.10.664,vts_reward_expectancy_bt,2022.2.4,MacIntel,60.0024001,Chrome,1440,900,,,a,1.4082,1,255,1,0,11,11,1,1,1,0,0,0,0,0,1,0,triangle,hexagon,,,,,,,,,,,,,,,,,,,,,,,,,,,,,,,,,,,,,,,,,,,,,,,,,,,,,,
297301,2022-11-15_18h54.10.664,vts_reward_expectancy_bt,2022.2.4,MacIntel,60.0024001,Chrome,1440,900,,,l,0.6663,10,265,1,1,0,12,2,1,1,0,0,0,0,0,0,1,triangle,star,,,,,,,,,,,,,,,,,,,,,,,,,,,,,,,,,,,,,,,,,,,,,,,,,,,,,,
297301,2022-11-15_18h54.10.664,vts_reward_expectancy_bt,2022.2.4,MacIntel,60.0024001,Chrome,1440,900,,,a,1.3501,10,275,1,1,1,13,1,1,1,0,0,0,0,0,1,0,triangle,hexagon,,,,,,,,,,,,,,,,,,,,,,,,,,,,,,,,,,,,,,,,,,,,,,,,,,,,,,
297301,2022-11-15_18h54.10.664,vts_reward_expectancy_bt,2022.2.4,MacIntel,60.0024001,Chrome,1440,900,,,a,1.5682,10,285,1,1,2,14,10,1,0,0,0,1,0,1,0,0,star ,circle,,,,,,,,,,,,,,,,,,,,,,,,,,,,,,,,,,,,,,,,,,,,,,,,,,,,,,
297301,2022-11-15_18h54.10.664,vts_reward_expectancy_bt,2022.2.4,MacIntel,60.0024001,Chrome,1440,900,,,l,1.2575,10,295,1,1,3,15,11,1,0,0,0,1,0,0,1,0,star,hexagon,,,,,,,,,,,,,,,,,,,,,,,,,,,,,,,,,,,,,,,,,,,,,,,,,,,,,,
297301,2022-11-15_18h54.10.664,vts_reward_expectancy_bt,2022.2.4,MacIntel,60.0024001,Chrome,1440,900,,,l,1.2875,10,305,1,1,4,16,8,1,0,0,1,0,0,0,0,1,hexagon,star,,,,,,,,,,,,,,,,,,,,,,,,,,,,,,,,,,,,,,,,,,,,,,,,,,,,,,
297301,2022-11-15_18h54.10.664,vts_reward_expectancy_bt,2022.2.4,MacIntel,60.0024001,Chrome,1440,900,,,a,0.7866,1,306,1,1,5,17,3,1,0,1,0,0,1,0,0,0,circle,triangle,,,,,,,,,,,,,,,,,,,,,,,,,,,,,,,,,,,,,,,,,,,,,,,,,,,,,,
297301,2022-11-15_18h54.10.664,vts_reward_expectancy_bt,2022.2.4,MacIntel,60.0024001,Chrome,1440,900,,,a,0.8371,10,316,1,1,6,18,9,1,0,0,0,1,1,0,0,0,star,triangle,,,,,,,,,,,,,,,,,,,,,,,,,,,,,,,,,,,,,,,,,,,,,,,,,,,,,,
297301,2022-11-15_18h54.10.664,vts_reward_expectancy_bt,2022.2.4,MacIntel,60.0024001,Chrome,1440,900,,,a,1.1132,10,326,1,1,7,19,0,1,1,0,0,0,0,1,0,0,triangle,circle,,,,,,,,,,,,,,,,,,,,,,,,,,,,,,,,,,,,,,,,,,,,,,,,,,,,,,
297301,2022-11-15_18h54.10.664,vts_reward_expectancy_bt,2022.2.4,MacIntel,60.0024001,Chrome,1440,900,,,l,0.5339,10,336,1,1,8,20,5,1,0,1,0,0,0,0,0,1,circle,star,,,,,,,,,,,,,,,,,,,,,,,,,,,,,,,,,,,,,,,,,,,,,,,,,,,,,,
297301,2022-11-15_18h54.10.664,vts_reward_expectancy_bt,2022.2.4,MacIntel,60.0024001,Chrome,1440,900,,,l,0.8146,1,337,1,1,9,21,4,1,0,1,0,0,0,0,1,0,circle,hexagon,,,,,,,,,,,,,,,,,,,,,,,,,,,,,,,,,,,,,,,,,,,,,,,,,,,,,,
297301,2022-11-15_18h54.10.664,vts_reward_expectancy_bt,2022.2.4,MacIntel,60.0024001,Chrome,1440,900,,,a,0.5892,1,338,1,1,10,22,6,1,0,0,1,0,1,0,0,0,hexagon,triangle,,,,,,,,,,,,,,,,,,,,,,,,,,,,,,,,,,,,,,,,,,,,,,,,,,,,,,
297301,2022-11-15_18h54.10.664,vts_reward_expectancy_bt,2022.2.4,MacIntel,60.0024001,Chrome,1440,900,,,l,0.7822,1,339,1,1,11,23,7,1,0,0,1,0,0,1,0,0,hexagon,circle,,,,,,,,,,,,,,,,,,,,,,,,,,,,,,,,,,,,,,,,,,,,,,,,,,,,,,
297301,2022-11-15_18h54.10.664,vts_reward_expectancy_bt,2022.2.4,MacIntel,60.0024001,Chrome,1440,900,,,a,0.5141,10,349,1,2,0,24,11,1,0,0,0,1,0,0,1,0,star,hexagon,,,,,,,,,,,,,,,,,,,,,,,,,,,,,,,,,,,,,,,,,,,,,,,,,,,,,,
297301,2022-11-15_18h54.10.664,vts_reward_expectancy_bt,2022.2.4,MacIntel,60.0024001,Chrome,1440,900,,,a,0.7498,1,350,1,2,1,25,7,1,0,0,1,0,0,1,0,0,hexagon,circle,,,,,,,,,,,,,,,,,,,,,,,,,,,,,,,,,,,,,,,,,,,,,,,,,,,,,,
297301,2022-11-15_18h54.10.664,vts_reward_expectancy_bt,2022.2.4,MacIntel,60.0024001,Chrome,1440,900,,,a,0.7762,10,360,1,2,2,26,9,1,0,0,0,1,1,0,0,0,star,triangle,,,,,,,,,,,,,,,,,,,,,,,,,,,,,,,,,,,,,,,,,,,,,,,,,,,,,,
297301,2022-11-15_18h54.10.664,vts_reward_expectancy_bt,2022.2.4,MacIntel,60.0024001,Chrome,1440,900,,,a,1.1147,10,370,1,2,3,27,10,1,0,0,0,1,0,1,0,0,star ,circle,,,,,,,,,,,,,,,,,,,,,,,,,,,,,,,,,,,,,,,,,,,,,,,,,,,,,,
297301,2022-11-15_18h54.10.664,vts_reward_expectancy_bt,2022.2.4,MacIntel,60.0024001,Chrome,1440,900,,,l,0.7832,1,371,1,2,4,28,4,1,0,1,0,0,0,0,1,0,circle,hexagon,,,,,,,,,,,,,,,,,,,,,,,,,,,,,,,,,,,,,,,,,,,,,,,,,,,,,,
297301,2022-11-15_18h54.10.664,vts_reward_expectancy_bt,2022.2.4,MacIntel,60.0024001,Chrome,1440,900,,,l,1.1069,10,381,1,2,5,29,8,1,0,0,1,0,0,0,0,1,hexagon,star,,,,,,,,,,,,,,,,,,,,,,,,,,,,,,,,,,,,,,,,,,,,,,,,,,,,,,
297301,2022-11-15_18h54.10.664,vts_reward_expectancy_bt,2022.2.4,MacIntel,60.0024001,Chrome,1440,900,,,a,1.3251,1,382,1,2,6,30,1,1,1,0,0,0,0,0,1,0,triangle,hexagon,,,,,,,,,,,,,,,,,,,,,,,,,,,,,,,,,,,,,,,,,,,,,,,,,,,,,,
297301,2022-11-15_18h54.10.664,vts_reward_expectancy_bt,2022.2.4,MacIntel,60.0024001,Chrome,1440,900,,,l,1.6197,10,392,1,2,7,31,6,1,0,0,1,0,1,0,0,0,hexagon,triangle,,,,,,,,,,,,,,,,,,,,,,,,,,,,,,,,,,,,,,,,,,,,,,,,,,,,,,
297301,2022-11-15_18h54.10.664,vts_reward_expectancy_bt,2022.2.4,MacIntel,60.0024001,Chrome,1440,900,,,l,1.6493,10,402,1,2,8,32,3,1,0,1,0,0,1,0,0,0,circle,triangle,,,,,,,,,,,,,,,,,,,,,,,,,,,,,,,,,,,,,,,,,,,,,,,,,,,,,,
297301,2022-11-15_18h54.10.664,vts_reward_expectancy_bt,2022.2.4,MacIntel,60.0024001,Chrome,1440,900,,,l,1.0354,10,412,1,2,9,33,2,1,1,0,0,0,0,0,0,1,triangle,star,,,,,,,,,,,,,,,,,,,,,,,,,,,,,,,,,,,,,,,,,,,,,,,,,,,,,,
297301,2022-11-15_18h54.10.664,vts_reward_expectancy_bt,2022.2.4,MacIntel,60.0024001,Chrome,1440,900,,,a,1.9426,1,413,1,2,10,34,0,1,1,0,0,0,0,1,0,0,triangle,circle,,,,,,,,,,,,,,,,,,,,,,,,,,,,,,,,,,,,,,,,,,,,,,,,,,,,,,
297301,2022-11-15_18h54.10.664,vts_reward_expectancy_bt,2022.2.4,MacIntel,60.0024001,Chrome,1440,900,,,l,0.9003,10,423,1,2,11,35,5,1,0,1,0,0,0,0,0,1,circle,star,,,,,,,,,,,,,,,,,,,,,,,,,,,,,,,,,,,,,,,,,,,,,,,,,,,,,,
297301,2022-11-15_18h54.10.664,vts_reward_expectancy_bt,2022.2.4,MacIntel,60.0024001,Chrome,1440,900,,,a,1.8371,10,433,2,0,0,0,11,1,0,0,0,1,0,0,1,0,star,hexagon,,,,,,,,,,,,,,,,,,,,,,,,,,,,,,,,,,,,,,,,,,,,,,,,,,,,,,
297301,2022-11-15_18h54.10.664,vts_reward_expectancy_bt,2022.2.4,MacIntel,60.0024001,Chrome,1440,900,,,l,0.735,10,443,2,0,1,1,3,1,0,1,0,0,1,0,0,0,circle,triangle,,,,,,,,,,,,,,,,,,,,,,,,,,,,,,,,,,,,,,,,,,,,,,,,,,,,,,
297301,2022-11-15_18h54.10.664,vts_reward_expectancy_bt,2022.2.4,MacIntel,60.0024001,Chrome,1440,900,,,a,0.6143,1,444,2,0,2,2,7,1,0,0,1,0,0,1,0,0,hexagon,circle,,,,,,,,,,,,,,,,,,,,,,,,,,,,,,,,,,,,,,,,,,,,,,,,,,,,,,
297301,2022-11-15_18h54.10.664,vts_reward_expectancy_bt,2022.2.4,MacIntel,60.0024001,Chrome,1440,900,,,l,0.4687,10,454,2,0,3,3,9,1,0,0,0,1,1,0,0,0,star,triangle,,,,,,,,,,,,,,,,,,,,,,,,,,,,,,,,,,,,,,,,,,,,,,,,,,,,,,
297301,2022-11-15_18h54.10.664,vts_reward_expectancy_bt,2022.2.4,MacIntel,60.0024001,Chrome,1440,900,,,a,0.4181,10,464,2,0,4,4,10,1,0,0,0,1,0,1,0,0,star ,circle,,,,,,,,,,,,,,,,,,,,,,,,,,,,,,,,,,,,,,,,,,,,,,,,,,,,,,
297301,2022-11-15_18h54.10.664,vts_reward_expectancy_bt,2022.2.4,MacIntel,60.0024001,Chrome,1440,900,,,l,0.5662,10,474,2,0,5,5,8,1,0,0,1,0,0,0,0,1,hexagon,star,,,,,,,,,,,,,,,,,,,,,,,,,,,,,,,,,,,,,,,,,,,,,,,,,,,,,,
297301,2022-11-15_18h54.10.664,vts_reward_expectancy_bt,2022.2.4,MacIntel,60.0024001,Chrome,1440,900,,,l,0.4721,10,484,2,0,6,6,2,1,1,0,0,0,0,0,0,1,triangle,star,,,,,,,,,,,,,,,,,,,,,,,,,,,,,,,,,,,,,,,,,,,,,,,,,,,,,,
297301,2022-11-15_18h54.10.664,vts_reward_expectancy_bt,2022.2.4,MacIntel,60.0024001,Chrome,1440,900,,,l,1.5166,1,485,2,0,7,7,0,1,1,0,0,0,0,1,0,0,triangle,circle,,,,,,,,,,,,,,,,,,,,,,,,,,,,,,,,,,,,,,,,,,,,,,,,,,,,,,
297301,2022-11-15_18h54.10.664,vts_reward_expectancy_bt,2022.2.4,MacIntel,60.0024001,Chrome,1440,900,,,l,0.684,10,495,2,0,8,8,6,1,0,0,1,0,1,0,0,0,hexagon,triangle,,,,,,,,,,,,,,,,,,,,,,,,,,,,,,,,,,,,,,,,,,,,,,,,,,,,,,
297301,2022-11-15_18h54.10.664,vts_reward_expectancy_bt,2022.2.4,MacIntel,60.0024001,Chrome,1440,900,,,l,0.4862,10,505,2,0,9,9,5,1,0,1,0,0,0,0,0,1,circle,star,,,,,,,,,,,,,,,,,,,,,,,,,,,,,,,,,,,,,,,,,,,,,,,,,,,,,,
297301,2022-11-15_18h54.10.664,vts_reward_expectancy_bt,2022.2.4,MacIntel,60.0024001,Chrome,1440,900,,,a,0.6326,10,515,2,0,10,10,1,1,1,0,0,0,0,0,1,0,triangle,hexagon,,,,,,,,,,,,,,,,,,,,,,,,,,,,,,,,,,,,,,,,,,,,,,,,,,,,,,
297301,2022-11-15_18h54.10.664,vts_reward_expectancy_bt,2022.2.4,MacIntel,60.0024001,Chrome,1440,900,,,l,0.8831,1,516,2,0,11,11,4,1,0,1,0,0,0,0,1,0,circle,hexagon,,,,,,,,,,,,,,,,,,,,,,,,,,,,,,,,,,,,,,,,,,,,,,,,,,,,,,
297301,2022-11-15_18h54.10.664,vts_reward_expectancy_bt,2022.2.4,MacIntel,60.0024001,Chrome,1440,900,,,a,1.0179,10,526,2,1,0,12,1,1,1,0,0,0,0,0,1,0,triangle,hexagon,,,,,,,,,,,,,,,,,,,,,,,,,,,,,,,,,,,,,,,,,,,,,,,,,,,,,,
297301,2022-11-15_18h54.10.664,vts_reward_expectancy_bt,2022.2.4,MacIntel,60.0024001,Chrome,1440,900,,,l,1.1144,10,536,2,1,1,13,6,1,0,0,1,0,1,0,0,0,hexagon,triangle,,,,,,,,,,,,,,,,,,,,,,,,,,,,,,,,,,,,,,,,,,,,,,,,,,,,,,
297301,2022-11-15_18h54.10.664,vts_reward_expectancy_bt,2022.2.4,MacIntel,60.0024001,Chrome,1440,900,,,l,1.285,1,537,2,1,2,14,7,1,0,0,1,0,0,1,0,0,hexagon,circle,,,,,,,,,,,,,,,,,,,,,,,,,,,,,,,,,,,,,,,,,,,,,,,,,,,,,,
297301,2022-11-15_18h54.10.664,vts_reward_expectancy_bt,2022.2.4,MacIntel,60.0024001,Chrome,1440,900,,,l,0.6195,10,547,2,1,3,15,8,1,0,0,1,0,0,0,0,1,hexagon,star,,,,,,,,,,,,,,,,,,,,,,,,,,,,,,,,,,,,,,,,,,,,,,,,,,,,,,
297301,2022-11-15_18h54.10.664,vts_reward_expectancy_bt,2022.2.4,MacIntel,60.0024001,Chrome,1440,900,,,l,0.5759,10,557,2,1,4,16,2,1,1,0,0,0,0,0,0,1,triangle,star,,,,,,,,,,,,,,,,,,,,,,,,,,,,,,,,,,,,,,,,,,,,,,,,,,,,,,
297301,2022-11-15_18h54.10.664,vts_reward_expectancy_bt,2022.2.4,MacIntel,60.0024001,Chrome,1440,900,,,l,1.2207,1,558,2,1,5,17,3,1,0,1,0,0,1,0,0,0,circle,triangle,,,,,,,,,,,,,,,,,,,,,,,,,,,,,,,,,,,,,,,,,,,,,,,,,,,,,,
297301,2022-11-15_18h54.10.664,vts_reward_expectancy_bt,2022.2.4,MacIntel,60.0024001,Chrome,1440,900,,,a,0.9951,10,568,2,1,6,18,9,1,0,0,0,1,1,0,0,0,star,triangle,,,,,,,,,,,,,,,,,,,,,,,,,,,,,,,,,,,,,,,,,,,,,,,,,,,,,,
297301,2022-11-15_18h54.10.664,vts_reward_expectancy_bt,2022.2.4,MacIntel,60.0024001,Chrome,1440,900,,,a,1.1509,1,569,2,1,7,19,11,1,0,0,0,1,0,0,1,0,star,hexagon,,,,,,,,,,,,,,,,,,,,,,,,,,,,,,,,,,,,,,,,,,,,,,,,,,,,,,
297301,2022-11-15_18h54.10.664,vts_reward_expectancy_bt,2022.2.4,MacIntel,60.0024001,Chrome,1440,900,,,l,1.167,10,579,2,1,8,20,0,1,1,0,0,0,0,1,0,0,triangle,circle,,,,,,,,,,,,,,,,,,,,,,,,,,,,,,,,,,,,,,,,,,,,,,,,,,,,,,
297301,2022-11-15_18h54.10.664,vts_reward_expectancy_bt,2022.2.4,MacIntel,60.0024001,Chrome,1440,900,,,l,0.6823,1,580,2,1,9,21,5,1,0,1,0,0,0,0,0,1,circle,star,,,,,,,,,,,,,,,,,,,,,,,,,,,,,,,,,,,,,,,,,,,,,,,,,,,,,,
297301,2022-11-15_18h54.10.664,vts_reward_expectancy_bt,2022.2.4,MacIntel,60.0024001,Chrome,1440,900,,,a,0.7899,1,581,2,1,10,22,10,1,0,0,0,1,0,1,0,0,star ,circle,,,,,,,,,,,,,,,,,,,,,,,,,,,,,,,,,,,,,,,,,,,,,,,,,,,,,,
297301,2022-11-15_18h54.10.664,vts_reward_expectancy_bt,2022.2.4,MacIntel,60.0024001,Chrome,1440,900,,,a,0.4871,1,582,2,1,11,23,4,1,0,1,0,0,0,0,1,0,circle,hexagon,,,,,,,,,,,,,,,,,,,,,,,,,,,,,,,,,,,,,,,,,,,,,,,,,,,,,,
297301,2022-11-15_18h54.10.664,vts_reward_expectancy_bt,2022.2.4,MacIntel,60.0024001,Chrome,1440,900,,,l,0.5855,10,592,2,2,0,24,4,1,0,1,0,0,0,0,1,0,circle,hexagon,,,,,,,,,,,,,,,,,,,,,,,,,,,,,,,,,,,,,,,,,,,,,,,,,,,,,,
297301,2022-11-15_18h54.10.664,vts_reward_expectancy_bt,2022.2.4,MacIntel,60.0024001,Chrome,1440,900,,,l,0.8299,10,602,2,2,1,25,2,1,1,0,0,0,0,0,0,1,triangle,star,,,,,,,,,,,,,,,,,,,,,,,,,,,,,,,,,,,,,,,,,,,,,,,,,,,,,,
297301,2022-11-15_18h54.10.664,vts_reward_expectancy_bt,2022.2.4,MacIntel,60.0024001,Chrome,1440,900,,,l,0.5867,1,603,2,2,2,26,1,1,1,0,0,0,0,0,1,0,triangle,hexagon,,,,,,,,,,,,,,,,,,,,,,,,,,,,,,,,,,,,,,,,,,,,,,,,,,,,,,
297301,2022-11-15_18h54.10.664,vts_reward_expectancy_bt,2022.2.4,MacIntel,60.0024001,Chrome,1440,900,,,a,1.0157,1,604,2,2,3,27,3,1,0,1,0,0,1,0,0,0,circle,triangle,,,,,,,,,,,,,,,,,,,,,,,,,,,,,,,,,,,,,,,,,,,,,,,,,,,,,,
297301,2022-11-15_18h54.10.664,vts_reward_expectancy_bt,2022.2.4,MacIntel,60.0024001,Chrome,1440,900,,,a,0.9358,1,605,2,2,4,28,10,1,0,0,0,1,0,1,0,0,star ,circle,,,,,,,,,,,,,,,,,,,,,,,,,,,,,,,,,,,,,,,,,,,,,,,,,,,,,,
297301,2022-11-15_18h54.10.664,vts_reward_expectancy_bt,2022.2.4,MacIntel,60.0024001,Chrome,1440,900,,,l,0.8183,1,606,2,2,5,29,8,1,0,0,1,0,0,0,0,1,hexagon,star,,,,,,,,,,,,,,,,,,,,,,,,,,,,,,,,,,,,,,,,,,,,,,,,,,,,,,
297301,2022-11-15_18h54.10.664,vts_reward_expectancy_bt,2022.2.4,MacIntel,60.0024001,Chrome,1440,900,,,l,0.6863,1,607,2,2,6,30,11,1,0,0,0,1,0,0,1,0,star,hexagon,,,,,,,,,,,,,,,,,,,,,,,,,,,,,,,,,,,,,,,,,,,,,,,,,,,,,,
297301,2022-11-15_18h54.10.664,vts_reward_expectancy_bt,2022.2.4,MacIntel,60.0024001,Chrome,1440,900,,,l,1.1116,10,617,2,2,7,31,7,1,0,0,1,0,0,1,0,0,hexagon,circle,,,,,,,,,,,,,,,,,,,,,,,,,,,,,,,,,,,,,,,,,,,,,,,,,,,,,,
297301,2022-11-15_18h54.10.664,vts_reward_expectancy_bt,2022.2.4,MacIntel,60.0024001,Chrome,1440,900,,,l,1.0262,1,618,2,2,8,32,0,1,1,0,0,0,0,1,0,0,triangle,circle,,,,,,,,,,,,,,,,,,,,,,,,,,,,,,,,,,,,,,,,,,,,,,,,,,,,,,
297301,2022-11-15_18h54.10.664,vts_reward_expectancy_bt,2022.2.4,MacIntel,60.0024001,Chrome,1440,900,,,l,0.7828,10,628,2,2,9,33,5,1,0,1,0,0,0,0,0,1,circle,star,,,,,,,,,,,,,,,,,,,,,,,,,,,,,,,,,,,,,,,,,,,,,,,,,,,,,,
297301,2022-11-15_18h54.10.664,vts_reward_expectancy_bt,2022.2.4,MacIntel,60.0024001,Chrome,1440,900,,,l,1.3698,10,638,2,2,10,34,6,1,0,0,1,0,1,0,0,0,hexagon,triangle,,,,,,,,,,,,,,,,,,,,,,,,,,,,,,,,,,,,,,,,,,,,,,,,,,,,,,
297301,2022-11-15_18h54.10.664,vts_reward_expectancy_bt,2022.2.4,MacIntel,60.0024001,Chrome,1440,900,,,a,0.9329,10,648,2,2,11,35,9,1,0,0,0,1,1,0,0,0,star,triangle,,,,,,,,,,,,,,,,,,,,,,,,,,,,,,,,,,,,,,,,,,,,,,,,,,,,,,
297301,2022-11-15_18h54.10.664,vts_reward_expectancy_bt,2022.2.4,MacIntel,60.0024001,Chrome,1440,900,,,,,,,,,,,,,,,,,,,,,,,B,167,triangle,1,0,d,2.8155,0,0,0,0,0,1,,,,,,,,,,,,,,,,,,,,,,,,,,,,,,,,,,,,,,,,,
297301,2022-11-15_18h54.10.664,vts_reward_expectancy_bt,2022.2.4,MacIntel,60.0024001,Chrome,1440,900,,,,,,,,,,,,,,,,,,,,,,,Y,181,circle,1,0,f,0.8876,0,1,0,1,0,1,,,,,,,,,,,,,,,,,,,,,,,,,,,,,,,,,,,,,,,,,
297301,2022-11-15_18h54.10.664,vts_reward_expectancy_bt,2022.2.4,MacIntel,60.0024001,Chrome,1440,900,,,,,,,,,,,,,,,,,,,,,,,W,146,hexagon,1,0,f,1.2978,0,2,0,2,0,1,,,,,,,,,,,,,,,,,,,,,,,,,,,,,,,,,,,,,,,,,
297301,2022-11-15_18h54.10.664,vts_reward_expectancy_bt,2022.2.4,MacIntel,60.0024001,Chrome,1440,900,,,,,,,,,,,,,,,,,,,,,,,S,132,star,1,0,f,1.2661,0,3,0,3,0,1,,,,,,,,,,,,,,,,,,,,,,,,,,,,,,,,,,,,,,,,,
297301,2022-11-15_18h54.10.664,vts_reward_expectancy_bt,2022.2.4,MacIntel,60.0024001,Chrome,1440,900,,,,,,,,,,,,,,,,,,,,,,,D,160,triangle,1,0,d,0.6483,0,4,0,4,0,1,,,,,,,,,,,,,,,,,,,,,,,,,,,,,,,,,,,,,,,,,
297301,2022-11-15_18h54.10.664,vts_reward_expectancy_bt,2022.2.4,MacIntel,60.0024001,Chrome,1440,900,,,,,,,,,,,,,,,,,,,,,,,U,174,circle,1,0,f,0.8107,0,5,0,5,0,1,,,,,,,,,,,,,,,,,,,,,,,,,,,,,,,,,,,,,,,,,
297301,2022-11-15_18h54.10.664,vts_reward_expectancy_bt,2022.2.4,MacIntel,60.0024001,Chrome,1440,900,,,,,,,,,,,,,,,,,,,,,,,F,125,hexagon,1,0,d,0.9524,0,6,0,6,0,1,,,,,,,,,,,,,,,,,,,,,,,,,,,,,,,,,,,,,,,,,
297301,2022-11-15_18h54.10.664,vts_reward_expectancy_bt,2022.2.4,MacIntel,60.0024001,Chrome,1440,900,,,,,,,,,,,,,,,,,,,,,,,H,139,star,1,0,d,1.13,0,7,0,7,0,1,,,,,,,,,,,,,,,,,,,,,,,,,,,,,,,,,,,,,,,,,
297301,2022-11-15_18h54.10.664,vts_reward_expectancy_bt,2022.2.4,MacIntel,60.0024001,Chrome,1440,900,,,,,,,,,,,,,,,,,,,,,,,B,167,hexagon,1,0,d,0.7928,0,8,0,8,0,1,,,,,,,,,,,,,,,,,,,,,,,,,,,,,,,,,,,,,,,,,
297301,2022-11-15_18h54.10.664,vts_reward_expectancy_bt,2022.2.4,MacIntel,60.0024001,Chrome,1440,900,,,,,,,,,,,,,,,,,,,,,,,Y,181,circle,1,0,f,0.6804,0,9,0,9,0,1,,,,,,,,,,,,,,,,,,,,,,,,,,,,,,,,,,,,,,,,,
297301,2022-11-15_18h54.10.664,vts_reward_expectancy_bt,2022.2.4,MacIntel,60.0024001,Chrome,1440,900,,,,,,,,,,,,,,,,,,,,,,,Y,146,hexagon,1,0,,,1,,,,,,j,1.512,0,0,0,0,1,,,,,,,,,,,,,,,,,,,,,,,,,,,,,,,,,,
297301,2022-11-15_18h54.10.664,vts_reward_expectancy_bt,2022.2.4,MacIntel,60.0024001,Chrome,1440,900,,,,,,,,,,,,,,,,,,,,,,,U,174,triangle,1,0,,,1,,,,,,k,0.752,1,0,1,0,1,,,,,,,,,,,,,,,,,,,,,,,,,,,,,,,,,,
297301,2022-11-15_18h54.10.664,vts_reward_expectancy_bt,2022.2.4,MacIntel,60.0024001,Chrome,1440,900,,,,,,,,,,,,,,,,,,,,,,,B,167,star,1,0,,,1,,,,,,k,0.8309,2,0,2,0,1,,,,,,,,,,,,,,,,,,,,,,,,,,,,,,,,,,
297301,2022-11-15_18h54.10.664,vts_reward_expectancy_bt,2022.2.4,MacIntel,60.0024001,Chrome,1440,900,,,,,,,,,,,,,,,,,,,,,,,W,125,circle,1,0,,,1,,,,,,j,0.8297,3,0,3,0,1,,,,,,,,,,,,,,,,,,,,,,,,,,,,,,,,,,
297301,2022-11-15_18h54.10.664,vts_reward_expectancy_bt,2022.2.4,MacIntel,60.0024001,Chrome,1440,900,,,,,,,,,,,,,,,,,,,,,,,F,139,hexagon,1,0,,,1,,,,,,j,0.8317,4,0,4,0,1,,,,,,,,,,,,,,,,,,,,,,,,,,,,,,,,,,
297301,2022-11-15_18h54.10.664,vts_reward_expectancy_bt,2022.2.4,MacIntel,60.0024001,Chrome,1440,900,,,,,,,,,,,,,,,,,,,,,,,H,160,triangle,1,0,,,1,,,,,,k,0.8145,5,0,5,0,1,,,,,,,,,,,,,,,,,,,,,,,,,,,,,,,,,,
297301,2022-11-15_18h54.10.664,vts_reward_expectancy_bt,2022.2.4,MacIntel,60.0024001,Chrome,1440,900,,,,,,,,,,,,,,,,,,,,,,,S,132,star,1,0,,,1,,,,,,j,0.9495,6,0,6,0,1,,,,,,,,,,,,,,,,,,,,,,,,,,,,,,,,,,
297301,2022-11-15_18h54.10.664,vts_reward_expectancy_bt,2022.2.4,MacIntel,60.0024001,Chrome,1440,900,,,,,,,,,,,,,,,,,,,,,,,D,181,circle,1,0,,,1,,,,,,k,0.881,7,0,7,0,1,,,,,,,,,,,,,,,,,,,,,,,,,,,,,,,,,,
297301,2022-11-15_18h54.10.664,vts_reward_expectancy_bt,2022.2.4,MacIntel,60.0024001,Chrome,1440,900,,,,,,,,,,,,,,,,,,,,,,,Y,146,hexagon,1,0,,,1,,,,,,j,0.8961,8,0,8,0,1,,,,,,,,,,,,,,,,,,,,,,,,,,,,,,,,,,
297301,2022-11-15_18h54.10.664,vts_reward_expectancy_bt,2022.2.4,MacIntel,60.0024001,Chrome,1440,900,,,,,,,,,,,,,,,,,,,,,,,U,174,circle,1,0,,,1,,,,,,k,0.7036,9,0,9,0,1,,,,,,,,,,,,,,,,,,,,,,,,,,,,,,,,,,
297301,2022-11-15_18h54.10.664,vts_reward_expectancy_bt,2022.2.4,MacIntel,60.0024001,Chrome,1440,900,,,,,0,648,,,,,,,,,,,,,,,,,D,174,star,1,0,,,2,,,,,,,,,,,,,-1,number,NA,k,1.6943,vtsPrac,0,0,0,0,1,,,,,,,,,,,,,,,,,,,,,,,
297301,2022-11-15_18h54.10.664,vts_reward_expectancy_bt,2022.2.4,MacIntel,60.0024001,Chrome,1440,900,,,,,0,648,,,,,,,,,,,,,,,,,S,139,circle,0,0,,,2,,,,,,,,,,,,,repeat,number,NA,k,0.7126,vtsPrac,1,0,1,0,1,,,,,,,,,,,,,,,,,,,,,,,
297301,2022-11-15_18h54.10.664,vts_reward_expectancy_bt,2022.2.4,MacIntel,60.0024001,Chrome,1440,900,,,,,0,648,,,,,,,,,,,,,,,,,H,125,star,1,1,,,2,,,,,,,,,,,,,switch,letter,lettSwt,d,0.8466,vtsPrac,2,0,2,0,1,,,,,,,,,,,,,,,,,,,,,,,
297301,2022-11-15_18h54.10.664,vts_reward_expectancy_bt,2022.2.4,MacIntel,60.0024001,Chrome,1440,900,,,,,0,648,,,,,,,,,,,,,,,,,B,181,circle,1,0,,,2,,,,,,,,,,,,,switch,number,numSwt,k,0.8639,vtsPrac,3,0,3,0,1,,,,,,,,,,,,,,,,,,,,,,,
297301,2022-11-15_18h54.10.664,vts_reward_expectancy_bt,2022.2.4,MacIntel,60.0024001,Chrome,1440,900,,,,,0,648,,,,,,,,,,,,,,,,,D,174,circle,1,0,,,2,,,,,,,,,,,,,switch,letter,lettSwt,d,0.7819,vtsPrac,4,0,4,0,1,,,,,,,,,,,,,,,,,,,,,,,
297301,2022-11-15_18h54.10.664,vts_reward_expectancy_bt,2022.2.4,MacIntel,60.0024001,Chrome,1440,900,,,,,0,648,,,,,,,,,,,,,,,,,S,139,triangle,1,0,,,2,,,,,,,,,,,,,switch,number,numSwt,j,0.7031,vtsPrac,5,0,5,0,1,,,,,,,,,,,,,,,,,,,,,,,
297301,2022-11-15_18h54.10.664,vts_reward_expectancy_bt,2022.2.4,MacIntel,60.0024001,Chrome,1440,900,,,,,0,648,,,,,,,,,,,,,,,,,H,125,circle,1,0,,,2,,,,,,,,,,,,,switch,letter,lettSwt,d,0.8465,vtsPrac,6,0,6,0,1,,,,,,,,,,,,,,,,,,,,,,,
297301,2022-11-15_18h54.10.664,vts_reward_expectancy_bt,2022.2.4,MacIntel,60.0024001,Chrome,1440,900,,,,,0,648,,,,,,,,,,,,,,,,,B,181,hexagon,1,0,,,2,,,,,,,,,,,,,switch,number,numSwt,k,0.5634,vtsPrac,7,0,7,0,1,,,,,,,,,,,,,,,,,,,,,,,
297301,2022-11-15_18h54.10.664,vts_reward_expectancy_bt,2022.2.4,MacIntel,60.0024001,Chrome,1440,900,,,,,0,648,,,,,,,,,,,,,,,,,U,132,circle,1,0,,,2,,,,,,,,,,,,,switch,letter,lettSwt,f,0.6127,vtsPrac,8,0,8,0,1,,,,,,,,,,,,,,,,,,,,,,,
297301,2022-11-15_18h54.10.664,vts_reward_expectancy_bt,2022.2.4,MacIntel,60.0024001,Chrome,1440,900,,,,,0,648,,,,,,,,,,,,,,,,,S,181,star,1,0,,,2,,,,,,,,,,,,,repeat,letter,lettRpt,f,0.865,vtsPrac,9,0,9,0,1,,,,,,,,,,,,,,,,,,,,,,,
297301,2022-11-15_18h54.10.664,vts_reward_expectancy_bt,2022.2.4,MacIntel,60.0024001,Chrome,1440,900,,,,,0,648,,,,,,,,,,,,,,,,,D,167,star,1,0,,,2,,,,,,,,,,,,,switch,number,numSwt,k,0.9839,vtsPrac,10,0,10,0,1,,,,,,,,,,,,,,,,,,,,,,,
297301,2022-11-15_18h54.10.664,vts_reward_expectancy_bt,2022.2.4,MacIntel,60.0024001,Chrome,1440,900,,,,,0,648,,,,,,,,,,,,,,,,,H,146,hexagon,1,0,,,2,,,,,,,,,,,,,switch,letter,lettSwt,d,0.8441,vtsPrac,11,0,11,0,1,,,,,,,,,,,,,,,,,,,,,,,
297301,2022-11-15_18h54.10.664,vts_reward_expectancy_bt,2022.2.4,MacIntel,60.0024001,Chrome,1440,900,,,,,0,648,,,,,,,,,,,,,,,,,Y,160,triangle,1,0,,,2,,,,,,,,,,,,,repeat,letter,lettRpt,f,1.1255,vtsPrac,12,0,12,0,1,,,,,,,,,,,,,,,,,,,,,,,
297301,2022-11-15_18h54.10.664,vts_reward_expectancy_bt,2022.2.4,MacIntel,60.0024001,Chrome,1440,900,,,,,0,648,,,,,,,,,,,,,,,,,F,174,star,1,0,,,2,,,,,,,,,,,,,switch,number,numSwt,k,0.8769,vtsPrac,13,0,13,0,1,,,,,,,,,,,,,,,,,,,,,,,
297301,2022-11-15_18h54.10.664,vts_reward_expectancy_bt,2022.2.4,MacIntel,60.0024001,Chrome,1440,900,,,,,0,648,,,,,,,,,,,,,,,,,H,146,triangle,1,0,,,2,,,,,,,,,,,,,repeat,number,numRpt,j,1.1174,vtsPrac,14,0,14,0,1,,,,,,,,,,,,,,,,,,,,,,,
297301,2022-11-15_18h54.10.664,vts_reward_expectancy_bt,2022.2.4,MacIntel,60.0024001,Chrome,1440,900,,,,,0,648,,,,,,,,,,,,,,,,,D,125,star,1,0,,,2,,,,,,,,,,,,,switch,letter,lettSwt,d,0.763,vtsPrac,15,0,15,0,1,,,,,,,,,,,,,,,,,,,,,,,
297301,2022-11-15_18h54.10.664,vts_reward_expectancy_bt,2022.2.4,MacIntel,60.0024001,Chrome,1440,900,,,,,0,648,,,,,,,,,,,,,,,,,S,132,triangle,1,0,,,2,,,,,,,,,,,,,repeat,letter,lettRpt,f,0.5964,vtsPrac,16,0,16,0,1,,,,,,,,,,,,,,,,,,,,,,,
297301,2022-11-15_18h54.10.664,vts_reward_expectancy_bt,2022.2.4,MacIntel,60.0024001,Chrome,1440,900,,,,,0,648,,,,,,,,,,,,,,,,,Y,160,star,1,0,,,2,,,,,,,,,,,,,repeat,letter,lettRpt,f,0.7862,vtsPrac,17,0,17,0,1,,,,,,,,,,,,,,,,,,,,,,,
297301,2022-11-15_18h54.10.664,vts_reward_expectancy_bt,2022.2.4,MacIntel,60.0024001,Chrome,1440,900,,,,,0,648,,,,,,,,,,,,,,,,,F,167,star,1,0,,,2,,,,,,,,,,,,,switch,number,numSwt,k,1.3143,vtsPrac,18,0,18,0,1,,,,,,,,,,,,,,,,,,,,,,,
297301,2022-11-15_18h54.10.664,vts_reward_expectancy_bt,2022.2.4,MacIntel,60.0024001,Chrome,1440,900,,,,,0,648,,,,,,,,,,,,,,,,,B,146,hexagon,1,0,,,2,,,,,,,,,,,,,repeat,number,numRpt,j,0.7945,vtsPrac,19,0,19,0,1,,,,,,,,,,,,,,,,,,,,,,,
297301,2022-11-15_18h54.10.664,vts_reward_expectancy_bt,2022.2.4,MacIntel,60.0024001,Chrome,1440,900,,,,,0,648,,,,,,,,,,,,,,,,,D,181,circle,1,0,,,2,,,,,,,,,,,,,repeat,number,numRpt,k,0.6944,vtsPrac,20,0,20,0,1,,,,,,,,,,,,,,,,,,,,,,,
297301,2022-11-15_18h54.10.664,vts_reward_expectancy_bt,2022.2.4,MacIntel,60.0024001,Chrome,1440,900,,,,,0,648,,,,,,,,,,,,,,,,,S,167,hexagon,1,0,,,2,,,,,,,,,,,,,repeat,number,numRpt,k,1.6682,vtsPrac,21,0,21,0,1,,,,,,,,,,,,,,,,,,,,,,,
297301,2022-11-15_18h54.10.664,vts_reward_expectancy_bt,2022.2.4,MacIntel,60.0024001,Chrome,1440,900,,,,,0,648,,,,,,,,,,,,,,,,,F,174,circle,1,0,,,2,,,,,,,,,,,,,switch,letter,lettSwt,d,0.798,vtsPrac,22,0,22,0,1,,,,,,,,,,,,,,,,,,,,,,,
297301,2022-11-15_18h54.10.664,vts_reward_expectancy_bt,2022.2.4,MacIntel,60.0024001,Chrome,1440,900,,,,,0,648,,,,,,,,,,,,,,,,,Y,160,hexagon,1,0,,,2,,,,,,,,,,,,,repeat,letter,lettRpt,f,0.5639,vtsPrac,23,0,23,0,1,,,,,,,,,,,,,,,,,,,,,,,
297301,2022-11-15_18h54.10.664,vts_reward_expectancy_bt,2022.2.4,MacIntel,60.0024001,Chrome,1440,900,,,,,0,648,,,,,,,,,,,,,,,,,D,132,circle,1,0,,,2,,,,,,,,,,,,,repeat,letter,lettRpt,d,1.4802,vtsPrac,24,0,24,0,1,,,,,,,,,,,,,,,,,,,,,,,
297301,2022-11-15_18h54.10.664,vts_reward_expectancy_bt,2022.2.4,MacIntel,60.0024001,Chrome,1440,900,,,,,0,648,,,,,,,,,,,,,,,,,Y,174,star,1,0,,,2,,,,,,,,,,,,,switch,number,numSwt,k,0.5789,vtsPrac,25,0,25,0,1,,,,,,,,,,,,,,,,,,,,,,,
297301,2022-11-15_18h54.10.664,vts_reward_expectancy_bt,2022.2.4,MacIntel,60.0024001,Chrome,1440,900,,,,,0,648,,,,,,,,,,,,,,,,,B,146,star,1,0,,,2,,,,,,,,,,,,,repeat,number,numRpt,j,0.7498,vtsPrac,26,0,26,0,1,,,,,,,,,,,,,,,,,,,,,,,
297301,2022-11-15_18h54.10.664,vts_reward_expectancy_bt,2022.2.4,MacIntel,60.0024001,Chrome,1440,900,,,,,0,648,,,,,,,,,,,,,,,,,H,125,hexagon,1,0,,,2,,,,,,,,,,,,,switch,letter,lettSwt,d,0.6161,vtsPrac,27,0,27,0,1,,,,,,,,,,,,,,,,,,,,,,,
297301,2022-11-15_18h54.10.664,vts_reward_expectancy_bt,2022.2.4,MacIntel,60.0024001,Chrome,1440,900,,,,,0,648,,,,,,,,,,,,,,,,,B,139,circle,1,0,,,2,,,,,,,,,,,,,switch,number,numSwt,j,0.779,vtsPrac,28,0,28,0,1,,,,,,,,,,,,,,,,,,,,,,,
297301,2022-11-15_18h54.10.664,vts_reward_expectancy_bt,2022.2.4,MacIntel,60.0024001,Chrome,1440,900,,,,,0,648,,,,,,,,,,,,,,,,,D,181,star,1,0,,,2,,,,,,,,,,,,,switch,letter,lettSwt,d,0.632,vtsPrac,29,0,29,0,1,,,,,,,,,,,,,,,,,,,,,,,
297301,2022-11-15_18h54.10.664,vts_reward_expectancy_bt,2022.2.4,MacIntel,60.0024001,Chrome,1440,900,,,,,0,648,,,,,,,,,,,,,,,,,Y,146,star,1,0,,,2,,,,,,,,,,,,,repeat,letter,lettRpt,f,0.6149,vtsPrac,30,0,30,0,1,,,,,,,,,,,,,,,,,,,,,,,
297301,2022-11-15_18h54.10.664,vts_reward_expectancy_bt,2022.2.4,MacIntel,60.0024001,Chrome,1440,900,,,,,0,648,,,,,,,,,,,,,,,,,F,125,triangle,1,0,,,2,,,,,,,,,,,,,switch,number,numSwt,j,0.769,vtsPrac,31,0,31,0,1,,,,,,,,,,,,,,,,,,,,,,,
297301,2022-11-15_18h54.10.664,vts_reward_expectancy_bt,2022.2.4,MacIntel,60.0024001,Chrome,1440,900,,,,,,,,,,,,,,,,,,,,,,,,,,,,,,,,,,,,,,,,,,,,,,,,,,,,,,,,,,,,,,,,,,,,,,,,,,,,
297301,2022-11-15_18h54.10.664,vts_reward_expectancy_bt,2022.2.4,MacIntel,60.0024001,Chrome,1440,900,,,,,,,,,,,,,,,,,,,,,,,,,,,,,,,,,,,,,,,,,,,,,,,,,,,,,,,,,,,,,,,,,,,,,,,,,,,,
297301,2022-11-15_18h54.10.664,vts_reward_expectancy_bt,2022.2.4,MacIntel,60.0024001,Chrome,1440,900,,,,,0,648,,,,,,,,,,,,,,,,,F,132,hexagon,1,0,,,,,,,,,,,,,,,,repeat,number,numRpt,j,1.1132,noRew,,,,,,0,0,0,0,0,1,,,,,,,,,,,,,,,,,
297301,2022-11-15_18h54.10.664,vts_reward_expectancy_bt,2022.2.4,MacIntel,60.0024001,Chrome,1440,900,,,,,0,648,,,,,,,,,,,,,,,,,Y,139,star,1,0,,,,,,,,,,,,,,,,repeat,number,numRpt,j,0.9693,noRew,,,,,,0,1,0,1,0,1,,,,,,,,,,,,,,,,,
297301,2022-11-15_18h54.10.664,vts_reward_expectancy_bt,2022.2.4,MacIntel,60.0024001,Chrome,1440,900,,,,,0,648,,,,,,,,,,,,,,,,,S,167,hexagon,1,0,,,,,,,,,,,,,,,,switch,letter,lettSwt,f,0.6436,noRew,,,,,,0,2,0,2,0,1,,,,,,,,,,,,,,,,,
297301,2022-11-15_18h54.10.664,vts_reward_expectancy_bt,2022.2.4,MacIntel,60.0024001,Chrome,1440,900,,,,,0,648,,,,,,,,,,,,,,,,,W,181,star,1,0,,,,,,,,,,,,,,,,repeat,letter,lettRpt,f,0.7966,noRew,,,,,,0,3,0,3,0,1,,,,,,,,,,,,,,,,,
297301,2022-11-15_18h54.10.664,vts_reward_expectancy_bt,2022.2.4,MacIntel,60.0024001,Chrome,1440,900,,,,,0,648,,,,,,,,,,,,,,,,,F,132,circle,1,0,,,,,,,,,,,,,,,,switch,number,numSwt,j,0.7151,noRew,,,,,,0,4,0,4,0,1,,,,,,,,,,,,,,,,,
297301,2022-11-15_18h54.10.664,vts_reward_expectancy_bt,2022.2.4,MacIntel,60.0024001,Chrome,1440,900,,,,,0,648,,,,,,,,,,,,,,,,,Y,139,hexagon,1,0,,,,,,,,,,,,,,,,repeat,number,numRpt,j,0.6481,noRew,,,,,,0,5,0,5,0,1,,,,,,,,,,,,,,,,,
297301,2022-11-15_18h54.10.664,vts_reward_expectancy_bt,2022.2.4,MacIntel,60.0024001,Chrome,1440,900,,,,,0,648,,,,,,,,,,,,,,,,,S,167,circle,1,0,,,,,,,,,,,,,,,,switch,letter,lettSwt,f,0.7972,noRew,,,,,,0,6,0,6,0,1,,,,,,,,,,,,,,,,,
297301,2022-11-15_18h54.10.664,vts_reward_expectancy_bt,2022.2.4,MacIntel,60.0024001,Chrome,1440,900,,,,,0,648,,,,,,,,,,,,,,,,,W,181,hexagon,1,0,,,,,,,,,,,,,,,,repeat,letter,lettRpt,f,0.7795,noRew,,,,,,0,7,0,7,0,1,,,,,,,,,,,,,,,,,
297301,2022-11-15_18h54.10.664,vts_reward_expectancy_bt,2022.2.4,MacIntel,60.0024001,Chrome,1440,900,,,,,0,648,,,,,,,,,,,,,,,,,W,160,star,1,0,,,,,,,,,,,,,,,,repeat,letter,lettRpt,f,0.8157,noRew,,,,,,0,8,0,8,0,1,,,,,,,,,,,,,,,,,
297301,2022-11-15_18h54.10.664,vts_reward_expectancy_bt,2022.2.4,MacIntel,60.0024001,Chrome,1440,900,,,,,0,648,,,,,,,,,,,,,,,,,Y,146,hexagon,1,0,,,,,,,,,,,,,,,,switch,number,numSwt,j,0.8023,noRew,,,,,,0,9,0,9,0,1,,,,,,,,,,,,,,,,,
297301,2022-11-15_18h54.10.664,vts_reward_expectancy_bt,2022.2.4,MacIntel,60.0024001,Chrome,1440,900,,,,,0,648,,,,,,,,,,,,,,,,,B,139,triangle,1,0,,,,,,,,,,,,,,,,repeat,number,numRpt,j,0.8035,noRew,,,,,,0,10,0,10,0,1,,,,,,,,,,,,,,,,,
297301,2022-11-15_18h54.10.664,vts_reward_expectancy_bt,2022.2.4,MacIntel,60.0024001,Chrome,1440,900,,,,,0,648,,,,,,,,,,,,,,,,,U,181,hexagon,1,0,,,,,,,,,,,,,,,,repeat,number,numRpt,k,0.9664,noRew,,,,,,0,11,0,11,0,1,,,,,,,,,,,,,,,,,
297301,2022-11-15_18h54.10.664,vts_reward_expectancy_bt,2022.2.4,MacIntel,60.0024001,Chrome,1440,900,,,,,0,648,,,,,,,,,,,,,,,,,D,181,star,1,0,,,,,,,,,,,,,,,,switch,letter,lettSwt,d,0.8492,noRew,,,,,,0,12,0,12,0,1,,,,,,,,,,,,,,,,,
297301,2022-11-15_18h54.10.664,vts_reward_expectancy_bt,2022.2.4,MacIntel,60.0024001,Chrome,1440,900,,,,,0,648,,,,,,,,,,,,,,,,,U,160,triangle,1,0,,,,,,,,,,,,,,,,repeat,letter,lettRpt,f,0.8669,noRew,,,,,,0,13,0,13,0,1,,,,,,,,,,,,,,,,,
297301,2022-11-15_18h54.10.664,vts_reward_expectancy_bt,2022.2.4,MacIntel,60.0024001,Chrome,1440,900,,,,,0,648,,,,,,,,,,,,,,,,,S,132,star,1,0,,,,,,,,,,,,,,,,switch,number,numSwt,j,0.8141,noRew,,,,,,0,14,0,14,0,1,,,,,,,,,,,,,,,,,
297301,2022-11-15_18h54.10.664,vts_reward_expectancy_bt,2022.2.4,MacIntel,60.0024001,Chrome,1440,900,,,,,0,648,,,,,,,,,,,,,,,,,H,125,triangle,1,0,,,,,,,,,,,,,,,,repeat,number,numRpt,j,0.8144,noRew,,,,,,0,15,0,15,0,1,,,,,,,,,,,,,,,,,
297301,2022-11-15_18h54.10.664,vts_reward_expectancy_bt,2022.2.4,MacIntel,60.0024001,Chrome,1440,900,,,,,0,648,,,,,,,,,,,,,,,,,D,132,triangle,1,0,,,,,,,,,,,,,,,,repeat,number,numRpt,j,0.8137,noRew,,,,,,0,16,0,16,0,1,,,,,,,,,,,,,,,,,
297301,2022-11-15_18h54.10.664,vts_reward_expectancy_bt,2022.2.4,MacIntel,60.0024001,Chrome,1440,900,,,,,0,648,,,,,,,,,,,,,,,,,F,146,star,1,0,,,,,,,,,,,,,,,,switch,letter,lettSwt,d,0.9011,noRew,,,,,,0,17,0,17,0,1,,,,,,,,,,,,,,,,,
297301,2022-11-15_18h54.10.664,vts_reward_expectancy_bt,2022.2.4,MacIntel,60.0024001,Chrome,1440,900,,,,,0,648,,,,,,,,,,,,,,,,,H,174,star,1,0,,,,,,,,,,,,,,,,switch,number,numSwt,k,1.1308,noRew,,,,,,0,18,0,18,0,1,,,,,,,,,,,,,,,,,
297301,2022-11-15_18h54.10.664,vts_reward_expectancy_bt,2022.2.4,MacIntel,60.0024001,Chrome,1440,900,,,,,0,648,,,,,,,,,,,,,,,,,W,125,triangle,1,0,,,,,,,,,,,,,,,,switch,letter,lettSwt,f,0.799,noRew,,,,,,0,19,0,19,0,1,,,,,,,,,,,,,,,,,
297301,2022-11-15_18h54.10.664,vts_reward_expectancy_bt,2022.2.4,MacIntel,60.0024001,Chrome,1440,900,,,,,0,648,,,,,,,,,,,,,,,,,D,167,circle,1,0,,,,,,,,,,,,,,,,switch,number,numSwt,k,1.3312,noRew,,,,,,0,20,0,20,0,1,,,,,,,,,,,,,,,,,
297301,2022-11-15_18h54.10.664,vts_reward_expectancy_bt,2022.2.4,MacIntel,60.0024001,Chrome,1440,900,,,,,0,648,,,,,,,,,,,,,,,,,Y,125,star,1,0,,,,,,,,,,,,,,,,switch,letter,lettSwt,f,1.0169,noRew,,,,,,0,21,0,21,0,1,,,,,,,,,,,,,,,,,
297301,2022-11-15_18h54.10.664,vts_reward_expectancy_bt,2022.2.4,MacIntel,60.0024001,Chrome,1440,900,,,,,0,648,,,,,,,,,,,,,,,,,S,181,hexagon,1,0,,,,,,,,,,,,,,,,repeat,letter,lettRpt,f,0.6966,noRew,,,,,,0,22,0,22,0,1,,,,,,,,,,,,,,,,,
297301,2022-11-15_18h54.10.664,vts_reward_expectancy_bt,2022.2.4,MacIntel,60.0024001,Chrome,1440,900,,,,,0,648,,,,,,,,,,,,,,,,,U,146,circle,1,0,,,,,,,,,,,,,,,,switch,number,numSwt,j,0.594,noRew,,,,,,0,23,0,23,0,1,,,,,,,,,,,,,,,,,
297301,2022-11-15_18h54.10.664,vts_reward_expectancy_bt,2022.2.4,MacIntel,60.0024001,Chrome,1440,900,,,,,0,648,,,,,,,,,,,,,,,,,Y,160,triangle,1,0,,,,,,,,,,,,,,,,repeat,number,numRpt,k,0.7291,noRew,,,,,,0,24,0,24,0,1,,,,,,,,,,,,,,,,,
297301,2022-11-15_18h54.10.664,vts_reward_expectancy_bt,2022.2.4,MacIntel,60.0024001,Chrome,1440,900,,,,,0,648,,,,,,,,,,,,,,,,,S,146,star,1,0,,,,,,,,,,,,,,,,switch,letter,lettSwt,f,1.2199,noRew,,,,,,0,25,0,25,0,1,,,,,,,,,,,,,,,,,
297301,2022-11-15_18h54.10.664,vts_reward_expectancy_bt,2022.2.4,MacIntel,60.0024001,Chrome,1440,900,,,,,0,648,,,,,,,,,,,,,,,,,W,174,star,1,0,,,,,,,,,,,,,,,,switch,number,numSwt,k,1.0011,noRew,,,,,,0,26,0,26,0,1,,,,,,,,,,,,,,,,,
297301,2022-11-15_18h54.10.664,vts_reward_expectancy_bt,2022.2.4,MacIntel,60.0024001,Chrome,1440,900,,,,,0,648,,,,,,,,,,,,,,,,,D,167,hexagon,1,0,,,,,,,,,,,,,,,,repeat,number,numRpt,k,0.8966,noRew,,,,,,0,27,0,27,0,1,,,,,,,,,,,,,,,,,
297301,2022-11-15_18h54.10.664,vts_reward_expectancy_bt,2022.2.4,MacIntel,60.0024001,Chrome,1440,900,,,,,0,648,,,,,,,,,,,,,,,,,W,146,hexagon,1,0,,,,,,,,,,,,,,,,switch,letter,lettSwt,f,0.8489,noRew,,,,,,0,28,0,28,0,1,,,,,,,,,,,,,,,,,
297301,2022-11-15_18h54.10.664,vts_reward_expectancy_bt,2022.2.4,MacIntel,60.0024001,Chrome,1440,900,,,,,0,648,,,,,,,,,,,,,,,,,Y,160,triangle,1,0,,,,,,,,,,,,,,,,repeat,letter,lettRpt,f,0.7303,noRew,,,,,,0,29,0,29,0,1,,,,,,,,,,,,,,,,,
297301,2022-11-15_18h54.10.664,vts_reward_expectancy_bt,2022.2.4,MacIntel,60.0024001,Chrome,1440,900,,,,,0,648,,,,,,,,,,,,,,,,,B,125,star,1,0,,,,,,,,,,,,,,,,repeat,letter,lettRpt,d,0.6554,noRew,,,,,,0,30,0,30,0,1,,,,,,,,,,,,,,,,,
297301,2022-11-15_18h54.10.664,vts_reward_expectancy_bt,2022.2.4,MacIntel,60.0024001,Chrome,1440,900,,,,,0,648,,,,,,,,,,,,,,,,,U,167,hexagon,1,0,,,,,,,,,,,,,,,,switch,number,numSwt,k,2.1474,noRew,,,,,,0,31,0,31,0,1,,,,,,,,,,,,,,,,,
297301,2022-11-15_18h54.10.664,vts_reward_expectancy_bt,2022.2.4,MacIntel,60.0024001,Chrome,1440,900,,,,,0,648,,,,,,,,,,,,,,,,,Y,132,star,1,0,,,,,,,,,,,,,,,,repeat,number,numRpt,j,0.7595,noRew,,,,,,0,32,0,32,0,1,,,,,,,,,,,,,,,,,
297301,2022-11-15_18h54.10.664,vts_reward_expectancy_bt,2022.2.4,MacIntel,60.0024001,Chrome,1440,900,,,,,0,648,,,,,,,,,,,,,,,,,D,174,triangle,1,0,,,,,,,,,,,,,,,,repeat,number,numRpt,k,0.803,noRew,,,,,,0,33,0,33,0,1,,,,,,,,,,,,,,,,,
297301,2022-11-15_18h54.10.664,vts_reward_expectancy_bt,2022.2.4,MacIntel,60.0024001,Chrome,1440,900,,,,,0,648,,,,,,,,,,,,,,,,,B,181,triangle,1,0,,,,,,,,,,,,,,,,switch,letter,lettSwt,d,0.994,noRew,,,,,,0,34,0,34,0,1,,,,,,,,,,,,,,,,,
297301,2022-11-15_18h54.10.664,vts_reward_expectancy_bt,2022.2.4,MacIntel,60.0024001,Chrome,1440,900,,,,,0,648,,,,,,,,,,,,,,,,,U,160,circle,1,0,,,,,,,,,,,,,,,,repeat,letter,lettRpt,f,0.9167,noRew,,,,,,0,35,0,35,0,1,,,,,,,,,,,,,,,,,
297301,2022-11-15_18h54.10.664,vts_reward_expectancy_bt,2022.2.4,MacIntel,60.0024001,Chrome,1440,900,,,,,0,648,,,,,,,,,,,,,,,,,H,174,circle,1,0,,,,,,,,,,,,,,,,repeat,letter,lettRpt,d,1.1605,noRew,,,,,,0,36,0,36,0,1,,,,,,,,,,,,,,,,,
297301,2022-11-15_18h54.10.664,vts_reward_expectancy_bt,2022.2.4,MacIntel,60.0024001,Chrome,1440,900,,,,,0,648,,,,,,,,,,,,,,,,,B,139,hexagon,1,0,,,,,,,,,,,,,,,,repeat,letter,lettRpt,d,1.0066,noRew,,,,,,0,37,0,37,0,1,,,,,,,,,,,,,,,,,
297301,2022-11-15_18h54.10.664,vts_reward_expectancy_bt,2022.2.4,MacIntel,60.0024001,Chrome,1440,900,,,,,0,648,,,,,,,,,,,,,,,,,F,125,circle,1,0,,,,,,,,,,,,,,,,repeat,letter,lettRpt,d,0.8786,noRew,,,,,,0,38,0,38,0,1,,,,,,,,,,,,,,,,,
297301,2022-11-15_18h54.10.664,vts_reward_expectancy_bt,2022.2.4,MacIntel,60.0024001,Chrome,1440,900,,,,,0,648,,,,,,,,,,,,,,,,,W,160,star,1,0,,,,,,,,,,,,,,,,switch,number,numSwt,k,0.5697,noRew,,,,,,0,39,0,39,0,1,,,,,,,,,,,,,,,,,
297301,2022-11-15_18h54.10.664,vts_reward_expectancy_bt,2022.2.4,MacIntel,60.0024001,Chrome,1440,900,,,,,0,648,,,,,,,,,,,,,,,,,W,132,star,1,0,,,,,,,,,,,,,,,,repeat,number,numRpt,j,1.5825,noRew,,,,,,0,40,0,40,0,1,,,,,,,,,,,,,,,,,
297301,2022-11-15_18h54.10.664,vts_reward_expectancy_bt,2022.2.4,MacIntel,60.0024001,Chrome,1440,900,,,,,0,648,,,,,,,,,,,,,,,,,D,139,hexagon,1,0,,,,,,,,,,,,,,,,repeat,number,numRpt,j,0.8467,noRew,,,,,,0,41,0,41,0,1,,,,,,,,,,,,,,,,,
297301,2022-11-15_18h54.10.664,vts_reward_expectancy_bt,2022.2.4,MacIntel,60.0024001,Chrome,1440,900,,,,,0,648,,,,,,,,,,,,,,,,,U,181,circle,1,0,,,,,,,,,,,,,,,,repeat,number,numRpt,k,0.8453,noRew,,,,,,0,42,0,42,0,1,,,,,,,,,,,,,,,,,
297301,2022-11-15_18h54.10.664,vts_reward_expectancy_bt,2022.2.4,MacIntel,60.0024001,Chrome,1440,900,,,,,0,648,,,,,,,,,,,,,,,,,B,125,star,1,0,,,,,,,,,,,,,,,,switch,letter,lettSwt,d,0.6464,noRew,,,,,,0,43,0,43,0,1,,,,,,,,,,,,,,,,,
297301,2022-11-15_18h54.10.664,vts_reward_expectancy_bt,2022.2.4,MacIntel,60.0024001,Chrome,1440,900,,,,,0,648,,,,,,,,,,,,,,,,,Y,181,hexagon,1,0,,,,,,,,,,,,,,,,repeat,letter,lettRpt,f,0.8113,noRew,,,,,,0,44,0,44,0,1,,,,,,,,,,,,,,,,,
297301,2022-11-15_18h54.10.664,vts_reward_expectancy_bt,2022.2.4,MacIntel,60.0024001,Chrome,1440,900,,,,,0,648,,,,,,,,,,,,,,,,,U,132,circle,1,0,,,,,,,,,,,,,,,,switch,number,numSwt,j,0.9192,noRew,,,,,,0,45,0,45,0,1,,,,,,,,,,,,,,,,,
297301,2022-11-15_18h54.10.664,vts_reward_expectancy_bt,2022.2.4,MacIntel,60.0024001,Chrome,1440,900,,,,,0,648,,,,,,,,,,,,,,,,,B,139,circle,1,0,,,,,,,,,,,,,,,,repeat,number,numRpt,j,0.8491,noRew,,,,,,0,46,0,46,0,1,,,,,,,,,,,,,,,,,
297301,2022-11-15_18h54.10.664,vts_reward_expectancy_bt,2022.2.4,MacIntel,60.0024001,Chrome,1440,900,,,,,0,648,,,,,,,,,,,,,,,,,D,167,triangle,1,0,,,,,,,,,,,,,,,,switch,letter,lettSwt,d,0.8288,noRew,,,,,,0,47,0,47,0,1,,,,,,,,,,,,,,,,,
297301,2022-11-15_18h54.10.664,vts_reward_expectancy_bt,2022.2.4,MacIntel,60.0024001,Chrome,1440,900,,,,,0,648,,,,,,,,,,,,,,,,,D,181,hexagon,1,0,,,,,,,,,,,,,,,,repeat,letter,lettRpt,d,0.7511,noRew,,,,,,0,48,0,48,0,1,,,,,,,,,,,,,,,,,
297301,2022-11-15_18h54.10.664,vts_reward_expectancy_bt,2022.2.4,MacIntel,60.0024001,Chrome,1440,900,,,,,0,648,,,,,,,,,,,,,,,,,F,160,triangle,1,0,,,,,,,,,,,,,,,,repeat,letter,lettRpt,d,0.8473,noRew,,,,,,0,49,0,49,0,1,,,,,,,,,,,,,,,,,
297301,2022-11-15_18h54.10.664,vts_reward_expectancy_bt,2022.2.4,MacIntel,60.0024001,Chrome,1440,900,,,,,0,648,,,,,,,,,,,,,,,,,H,167,circle,1,0,,,,,,,,,,,,,,,,switch,number,numSwt,k,0.8961,noRew,,,,,,0,50,0,50,0,1,,,,,,,,,,,,,,,,,
297301,2022-11-15_18h54.10.664,vts_reward_expectancy_bt,2022.2.4,MacIntel,60.0024001,Chrome,1440,900,,,,,0,648,,,,,,,,,,,,,,,,,U,146,hexagon,1,0,,,,,,,,,,,,,,,,switch,letter,lettSwt,f,0.9973,noRew,,,,,,0,51,0,51,0,1,,,,,,,,,,,,,,,,,
297301,2022-11-15_18h54.10.664,vts_reward_expectancy_bt,2022.2.4,MacIntel,60.0024001,Chrome,1440,900,,,,,0,648,,,,,,,,,,,,,,,,,B,125,star,1,0,,,,,,,,,,,,,,,,repeat,letter,lettRpt,d,0.8849,noRew,,,,,,0,52,0,52,0,1,,,,,,,,,,,,,,,,,
297301,2022-11-15_18h54.10.664,vts_reward_expectancy_bt,2022.2.4,MacIntel,60.0024001,Chrome,1440,900,,,,,0,648,,,,,,,,,,,,,,,,,W,139,hexagon,1,0,,,,,,,,,,,,,,,,repeat,letter,lettRpt,f,0.9139,noRew,,,,,,0,53,0,53,0,1,,,,,,,,,,,,,,,,,
297301,2022-11-15_18h54.10.664,vts_reward_expectancy_bt,2022.2.4,MacIntel,60.0024001,Chrome,1440,900,,,,,0,648,,,,,,,,,,,,,,,,,D,174,triangle,1,0,,,,,,,,,,,,,,,,repeat,letter,lettRpt,d,1.1778,noRew,,,,,,0,54,0,54,0,1,,,,,,,,,,,,,,,,,
297301,2022-11-15_18h54.10.664,vts_reward_expectancy_bt,2022.2.4,MacIntel,60.0024001,Chrome,1440,900,,,,,0,648,,,,,,,,,,,,,,,,,Y,160,hexagon,1,0,,,,,,,,,,,,,,,,switch,number,numSwt,k,1.1432,noRew,,,,,,0,55,0,55,0,1,,,,,,,,,,,,,,,,,
297301,2022-11-15_18h54.10.664,vts_reward_expectancy_bt,2022.2.4,MacIntel,60.0024001,Chrome,1440,900,,,,,0,648,,,,,,,,,,,,,,,,,W,181,hexagon,1,0,,,,,,,,,,,,,,,,repeat,number,numRpt,k,1.2632,noRew,,,,,,0,56,0,56,0,1,,,,,,,,,,,,,,,,,
297301,2022-11-15_18h54.10.664,vts_reward_expectancy_bt,2022.2.4,MacIntel,60.0024001,Chrome,1440,900,,,,,0,648,,,,,,,,,,,,,,,,,S,160,circle,1,0,,,,,,,,,,,,,,,,switch,letter,lettSwt,f,0.5972,noRew,,,,,,0,57,0,57,0,1,,,,,,,,,,,,,,,,,
297301,2022-11-15_18h54.10.664,vts_reward_expectancy_bt,2022.2.4,MacIntel,60.0024001,Chrome,1440,900,,,,,0,648,,,,,,,,,,,,,,,,,D,146,triangle,1,0,,,,,,,,,,,,,,,,repeat,letter,lettRpt,d,0.6842,noRew,,,,,,0,58,0,58,0,1,,,,,,,,,,,,,,,,,
297301,2022-11-15_18h54.10.664,vts_reward_expectancy_bt,2022.2.4,MacIntel,60.0024001,Chrome,1440,900,,,,,0,648,,,,,,,,,,,,,,,,,U,167,star,1,0,,,,,,,,,,,,,,,,switch,number,numSwt,k,0.9302,noRew,,,,,,0,59,0,59,0,1,,,,,,,,,,,,,,,,,
297301,2022-11-15_18h54.10.664,vts_reward_expectancy_bt,2022.2.4,MacIntel,60.0024001,Chrome,1440,900,,,,,0,648,,,,,,,,,,,,,,,,,Y,146,circle,1,0,,,,,,,,,,,,,,,,repeat,number,numRpt,j,1.0655,noRew,,,,,,0,60,0,60,0,1,,,,,,,,,,,,,,,,,
297301,2022-11-15_18h54.10.664,vts_reward_expectancy_bt,2022.2.4,MacIntel,60.0024001,Chrome,1440,900,,,,,0,648,,,,,,,,,,,,,,,,,W,181,star,1,0,,,,,,,,,,,,,,,,switch,letter,lettSwt,f,1.014,noRew,,,,,,0,61,0,61,0,1,,,,,,,,,,,,,,,,,
297301,2022-11-15_18h54.10.664,vts_reward_expectancy_bt,2022.2.4,MacIntel,60.0024001,Chrome,1440,900,,,,,0,648,,,,,,,,,,,,,,,,,B,132,triangle,1,0,,,,,,,,,,,,,,,,repeat,letter,lettRpt,d,0.816,noRew,,,,,,0,62,0,62,0,1,,,,,,,,,,,,,,,,,
297301,2022-11-15_18h54.10.664,vts_reward_expectancy_bt,2022.2.4,MacIntel,60.0024001,Chrome,1440,900,,,,,0,648,,,,,,,,,,,,,,,,,S,139,circle,1,0,,,,,,,,,,,,,,,,repeat,letter,lettRpt,f,0.8968,noRew,,,,,,0,63,0,63,0,1,,,,,,,,,,,,,,,,,
297301,2022-11-15_18h54.10.664,vts_reward_expectancy_bt,2022.2.4,MacIntel,60.0024001,Chrome,1440,900,,,,,,,,,,,,,,,,,,,,,,,,,,,,,,,,,,,,,,,,,,,,,,,,,,,,,,,,,,,,,,,,,,,,,,,,,,,,
297301,2022-11-15_18h54.10.664,vts_reward_expectancy_bt,2022.2.4,MacIntel,60.0024001,Chrome,1440,900,,,,,0,648,,,,,,,,,,,,,,,,,F,146,triangle,1,0,,,,,,,,,,,,,,,,repeat,letter,lettRpt,d,1.0127,Hi,,,,,,0,,,,,,space,10.5272,high,0,0,0,0,1,,,,,,,,,
297301,2022-11-15_18h54.10.664,vts_reward_expectancy_bt,2022.2.4,MacIntel,60.0024001,Chrome,1440,900,,,,,1,649,,,,,,,,,,,,,,,,,W,139,hexagon,1,0,,,,,,,,,,,,,,,,switch,number,numSwt,j,0.703,Lo,,,,,,0,,,,,,,,high,1,0,1,0,1,,,,,,,,,
297301,2022-11-15_18h54.10.664,vts_reward_expectancy_bt,2022.2.4,MacIntel,60.0024001,Chrome,1440,900,,,,,10,659,,,,,,,,,,,,,,,,,B,167,star,1,0,,,,,,,,,,,,,,,,switch,letter,lettSwt,d,0.6619,Hi,,,,,,0,,,,,,,,high,2,0,2,0,1,,,,,,,,,
297301,2022-11-15_18h54.10.664,vts_reward_expectancy_bt,2022.2.4,MacIntel,60.0024001,Chrome,1440,900,,,,,1,660,,,,,,,,,,,,,,,,,H,125,circle,1,0,,,,,,,,,,,,,,,,switch,number,numSwt,j,0.6959,Lo,,,,,,0,,,,,,,,high,3,0,3,0,1,,,,,,,,,
297301,2022-11-15_18h54.10.664,vts_reward_expectancy_bt,2022.2.4,MacIntel,60.0024001,Chrome,1440,900,,,,,10,670,,,,,,,,,,,,,,,,,Y,160,triangle,1,0,,,,,,,,,,,,,,,,switch,letter,lettSwt,f,0.6274,Hi,,,,,,0,,,,,,,,high,4,0,4,0,1,,,,,,,,,
297301,2022-11-15_18h54.10.664,vts_reward_expectancy_bt,2022.2.4,MacIntel,60.0024001,Chrome,1440,900,,,,,10,680,,,,,,,,,,,,,,,,,S,181,hexagon,1,0,,,,,,,,,,,,,,,,switch,number,numSwt,k,0.7233,Lo,,,,,,0,,,,,,,,high,5,0,5,0,1,,,,,,,,,
297301,2022-11-15_18h54.10.664,vts_reward_expectancy_bt,2022.2.4,MacIntel,60.0024001,Chrome,1440,900,,,,,1,681,,,,,,,,,,,,,,,,,U,132,star,1,0,,,,,,,,,,,,,,,,switch,letter,lettSwt,f,0.4871,Hi,,,,,,0,,,,,,,,high,6,0,6,0,1,,,,,,,,,
297301,2022-11-15_18h54.10.664,vts_reward_expectancy_bt,2022.2.4,MacIntel,60.0024001,Chrome,1440,900,,,,,1,682,,,,,,,,,,,,,,,,,D,174,circle,1,0,,,,,,,,,,,,,,,,switch,number,numSwt,k,0.6094,Lo,,,,,,0,,,,,,,,high,7,0,7,0,1,,,,,,,,,
297301,2022-11-15_18h54.10.664,vts_reward_expectancy_bt,2022.2.4,MacIntel,60.0024001,Chrome,1440,900,,,,,1,683,,,,,,,,,,,,,,,,,F,146,circle,1,0,,,,,,,,,,,,,,,,switch,letter,lettSwt,d,0.7936,Lo,,,,,,0,,,,,,,,high,8,0,8,0,1,,,,,,,,,
297301,2022-11-15_18h54.10.664,vts_reward_expectancy_bt,2022.2.4,MacIntel,60.0024001,Chrome,1440,900,,,,,10,693,,,,,,,,,,,,,,,,,W,139,triangle,1,0,,,,,,,,,,,,,,,,switch,number,numSwt,j,0.5279,Hi,,,,,,0,,,,,,,,high,9,0,9,0,1,,,,,,,,,
297301,2022-11-15_18h54.10.664,vts_reward_expectancy_bt,2022.2.4,MacIntel,60.0024001,Chrome,1440,900,,,,,1,694,,,,,,,,,,,,,,,,,B,167,hexagon,1,0,,,,,,,,,,,,,,,,switch,letter,lettSwt,d,0.6069,Lo,,,,,,0,,,,,,,,high,10,0,10,0,1,,,,,,,,,
297301,2022-11-15_18h54.10.664,vts_reward_expectancy_bt,2022.2.4,MacIntel,60.0024001,Chrome,1440,900,,,,,1,695,,,,,,,,,,,,,,,,,H,125,star,1,0,,,,,,,,,,,,,,,,switch,number,numSwt,j,0.5477,Hi,,,,,,0,,,,,,,,high,11,0,11,0,1,,,,,,,,,
297301,2022-11-15_18h54.10.664,vts_reward_expectancy_bt,2022.2.4,MacIntel,60.0024001,Chrome,1440,900,,,,,10,705,,,,,,,,,,,,,,,,,Y,160,triangle,1,0,,,,,,,,,,,,,,,,repeat,number,numRpt,k,0.5814,Hi,,,,,,0,,,,,,,,high,12,0,12,0,1,,,,,,,,,
297301,2022-11-15_18h54.10.664,vts_reward_expectancy_bt,2022.2.4,MacIntel,60.0024001,Chrome,1440,900,,,,,1,706,,,,,,,,,,,,,,,,,S,181,circle,1,0,,,,,,,,,,,,,,,,switch,letter,lettSwt,f,0.6104,Lo,,,,,,0,,,,,,,,high,13,0,13,0,1,,,,,,,,,
297301,2022-11-15_18h54.10.664,vts_reward_expectancy_bt,2022.2.4,MacIntel,60.0024001,Chrome,1440,900,,,,,10,716,,,,,,,,,,,,,,,,,U,132,star,1,0,,,,,,,,,,,,,,,,repeat,letter,lettRpt,f,0.5481,Hi,,,,,,0,,,,,,,,high,14,0,14,0,1,,,,,,,,,
297301,2022-11-15_18h54.10.664,vts_reward_expectancy_bt,2022.2.4,MacIntel,60.0024001,Chrome,1440,900,,,,,1,717,,,,,,,,,,,,,,,,,D,174,hexagon,1,0,,,,,,,,,,,,,,,,repeat,letter,lettRpt,d,0.4682,Lo,,,,,,0,,,,,,,,high,15,0,15,0,1,,,,,,,,,
297301,2022-11-15_18h54.10.664,vts_reward_expectancy_bt,2022.2.4,MacIntel,60.0024001,Chrome,1440,900,,,,,1,718,,,,,,,,,,,,,,,,,Y,132,hexagon,1,0,,,,,,,,,,,,,,,,switch,number,numSwt,j,0.5264,Lo,,,,,,0,,,,,,,,high,16,0,16,0,1,,,,,,,,,
297301,2022-11-15_18h54.10.664,vts_reward_expectancy_bt,2022.2.4,MacIntel,60.0024001,Chrome,1440,900,,,,,0,718,,,,,,,,,,,,,,,,,S,160,triangle,1,0,,,,,,,,,,,,,,,,switch,letter,lettSwt,f,0.964,Hi,,,,,,0,,,,,,,,high,17,0,17,0,1,,,,,,,,,
297301,2022-11-15_18h54.10.664,vts_reward_expectancy_bt,2022.2.4,MacIntel,60.0024001,Chrome,1440,900,,,,,1,719,,,,,,,,,,,,,,,,,U,125,star,1,0,,,,,,,,,,,,,,,,repeat,letter,lettRpt,f,0.7671,Hi,,,,,,0,,,,,,,,high,18,0,18,0,1,,,,,,,,,
297301,2022-11-15_18h54.10.664,vts_reward_expectancy_bt,2022.2.4,MacIntel,60.0024001,Chrome,1440,900,,,,,1,720,,,,,,,,,,,,,,,,,H,139,circle,1,0,,,,,,,,,,,,,,,,switch,number,numSwt,j,0.686,Lo,,,,,,0,,,,,,,,high,19,0,19,0,1,,,,,,,,,
297301,2022-11-15_18h54.10.664,vts_reward_expectancy_bt,2022.2.4,MacIntel,60.0024001,Chrome,1440,900,,,,,10,730,,,,,,,,,,,,,,,,,B,167,star,1,0,,,,,,,,,,,,,,,,switch,letter,lettSwt,d,0.568,Hi,,,,,,0,,,,,,,,high,20,0,20,0,1,,,,,,,,,
297301,2022-11-15_18h54.10.664,vts_reward_expectancy_bt,2022.2.4,MacIntel,60.0024001,Chrome,1440,900,,,,,10,740,,,,,,,,,,,,,,,,,D,174,circle,1,0,,,,,,,,,,,,,,,,switch,number,numSwt,k,0.4479,Lo,,,,,,0,,,,,,,,high,21,0,21,0,1,,,,,,,,,
297301,2022-11-15_18h54.10.664,vts_reward_expectancy_bt,2022.2.4,MacIntel,60.0024001,Chrome,1440,900,,,,,10,750,,,,,,,,,,,,,,,,,F,181,triangle,1,0,,,,,,,,,,,,,,,,repeat,number,numRpt,k,0.4974,Hi,,,,,,0,,,,,,,,high,22,0,22,0,1,,,,,,,,,
297301,2022-11-15_18h54.10.664,vts_reward_expectancy_bt,2022.2.4,MacIntel,60.0024001,Chrome,1440,900,,,,,1,751,,,,,,,,,,,,,,,,,W,146,hexagon,1,0,,,,,,,,,,,,,,,,repeat,number,numRpt,j,0.836,Lo,,,,,,0,,,,,,,,high,23,0,23,0,1,,,,,,,,,
297301,2022-11-15_18h54.10.664,vts_reward_expectancy_bt,2022.2.4,MacIntel,60.0024001,Chrome,1440,900,,,,,1,752,,,,,,,,,,,,,,,,,D,160,hexagon,1,0,,,,,,,,,,,,,,,,switch,letter,lettSwt,d,0.7054,Lo,,,,,,0,,,,,,,,high,24,0,24,0,1,,,,,,,,,
297301,2022-11-15_18h54.10.664,vts_reward_expectancy_bt,2022.2.4,MacIntel,60.0024001,Chrome,1440,900,,,,,1,753,,,,,,,,,,,,,,,,,Y,132,circle,1,0,,,,,,,,,,,,,,,,switch,number,numSwt,j,0.7187,Lo,,,,,,0,,,,,,,,high,25,0,25,0,1,,,,,,,,,
297301,2022-11-15_18h54.10.664,vts_reward_expectancy_bt,2022.2.4,MacIntel,60.0024001,Chrome,1440,900,,,,,10,763,,,,,,,,,,,,,,,,,B,181,star,1,0,,,,,,,,,,,,,,,,switch,letter,lettSwt,d,0.4714,Hi,,,,,,0,,,,,,,,high,26,0,26,0,1,,,,,,,,,
297301,2022-11-15_18h54.10.664,vts_reward_expectancy_bt,2022.2.4,MacIntel,60.0024001,Chrome,1440,900,,,,,10,773,,,,,,,,,,,,,,,,,H,174,triangle,1,0,,,,,,,,,,,,,,,,switch,number,numSwt,k,0.7818,Hi,,,,,,0,,,,,,,,high,27,0,27,0,1,,,,,,,,,
297301,2022-11-15_18h54.10.664,vts_reward_expectancy_bt,2022.2.4,MacIntel,60.0024001,Chrome,1440,900,,,,,1,774,,,,,,,,,,,,,,,,,U,139,hexagon,1,0,,,,,,,,,,,,,,,,switch,letter,lettSwt,f,0.7032,Lo,,,,,,0,,,,,,,,high,28,0,28,0,1,,,,,,,,,
297301,2022-11-15_18h54.10.664,vts_reward_expectancy_bt,2022.2.4,MacIntel,60.0024001,Chrome,1440,900,,,,,1,775,,,,,,,,,,,,,,,,,W,125,circle,1,0,,,,,,,,,,,,,,,,switch,number,numSwt,j,0.4974,Lo,,,,,,0,,,,,,,,high,29,0,29,0,1,,,,,,,,,
297301,2022-11-15_18h54.10.664,vts_reward_expectancy_bt,2022.2.4,MacIntel,60.0024001,Chrome,1440,900,,,,,10,785,,,,,,,,,,,,,,,,,F,146,star,1,0,,,,,,,,,,,,,,,,switch,letter,lettSwt,d,0.6786,Hi,,,,,,0,,,,,,,,high,30,0,30,0,1,,,,,,,,,
297301,2022-11-15_18h54.10.664,vts_reward_expectancy_bt,2022.2.4,MacIntel,60.0024001,Chrome,1440,900,,,,,10,795,,,,,,,,,,,,,,,,,S,167,triangle,1,0,,,,,,,,,,,,,,,,switch,number,numSwt,k,0.6632,Hi,,,,,,0,,,,,,,,high,31,0,31,0,1,,,,,,,,,
297301,2022-11-15_18h54.10.664,vts_reward_expectancy_bt,2022.2.4,MacIntel,60.0024001,Chrome,1440,900,,,,,10,805,,,,,,,,,,,,,,,,,Y,160,star,1,0,,,,,,,,,,,,,,,,switch,letter,lettSwt,f,0.5961,Hi,,,,,,1,,,,,,space,11.0329,high,0,0,0,0,1,,,,,,,,,
297301,2022-11-15_18h54.10.664,vts_reward_expectancy_bt,2022.2.4,MacIntel,60.0024001,Chrome,1440,900,,,,,0,805,,,,,,,,,,,,,,,,,H,125,triangle,1,0,,,,,,,,,,,,,,,,switch,number,numSwt,j,1.0964,Hi,,,,,,1,,,,,,,,high,1,0,1,0,1,,,,,,,,,
297301,2022-11-15_18h54.10.664,vts_reward_expectancy_bt,2022.2.4,MacIntel,60.0024001,Chrome,1440,900,,,,,1,806,,,,,,,,,,,,,,,,,F,181,hexagon,1,0,,,,,,,,,,,,,,,,switch,letter,lettSwt,d,0.5813,Lo,,,,,,1,,,,,,,,high,2,0,2,0,1,,,,,,,,,
297301,2022-11-15_18h54.10.664,vts_reward_expectancy_bt,2022.2.4,MacIntel,60.0024001,Chrome,1440,900,,,,,1,807,,,,,,,,,,,,,,,,,W,132,circle,1,0,,,,,,,,,,,,,,,,switch,number,numSwt,j,0.5629,Lo,,,,,,1,,,,,,,,high,3,0,3,0,1,,,,,,,,,
297301,2022-11-15_18h54.10.664,vts_reward_expectancy_bt,2022.2.4,MacIntel,60.0024001,Chrome,1440,900,,,,,1,808,,,,,,,,,,,,,,,,,S,139,star,1,0,,,,,,,,,,,,,,,,switch,letter,lettSwt,f,0.5971,Hi,,,,,,1,,,,,,,,high,4,0,4,0,1,,,,,,,,,
297301,2022-11-15_18h54.10.664,vts_reward_expectancy_bt,2022.2.4,MacIntel,60.0024001,Chrome,1440,900,,,,,0,808,,,,,,,,,,,,,,,,,U,146,triangle,1,0,,,,,,,,,,,,,,,,switch,number,numSwt,j,0.5927,Hi,,,,,,1,,,,,,,,high,5,0,5,0,1,,,,,,,,,
297301,2022-11-15_18h54.10.664,vts_reward_expectancy_bt,2022.2.4,MacIntel,60.0024001,Chrome,1440,900,,,,,0,808,,,,,,,,,,,,,,,,,D,167,hexagon,0,0,,,,,,,,,,,,,,,,switch,letter,NA,f,0.5688,Hi,,,,,,1,,,,,,,,high,6,0,6,0,1,,,,,,,,,
297301,2022-11-15_18h54.10.664,vts_reward_expectancy_bt,2022.2.4,MacIntel,60.0024001,Chrome,1440,900,,,,,0,808,,,,,,,,,,,,,,,,,B,174,circle,0,1,,,,,,,,,,,,,,,,switch,number,NA,j,0.7327,Hi,,,,,,1,,,,,,,,high,7,0,7,0,1,,,,,,,,,
297301,2022-11-15_18h54.10.664,vts_reward_expectancy_bt,2022.2.4,MacIntel,60.0024001,Chrome,1440,900,,,,,0,808,,,,,,,,,,,,,,,,,Y,160,star,1,1,,,,,,,,,,,,,,,,repeat,number,numRpt,k,0.9488,Hi,,,,,,1,,,,,,,,high,8,0,8,0,1,,,,,,,,,
297301,2022-11-15_18h54.10.664,vts_reward_expectancy_bt,2022.2.4,MacIntel,60.0024001,Chrome,1440,900,,,,,1,809,,,,,,,,,,,,,,,,,H,125,circle,1,0,,,,,,,,,,,,,,,,switch,letter,lettSwt,d,0.5969,Lo,,,,,,1,,,,,,,,high,9,0,9,0,1,,,,,,,,,
297301,2022-11-15_18h54.10.664,vts_reward_expectancy_bt,2022.2.4,MacIntel,60.0024001,Chrome,1440,900,,,,,1,810,,,,,,,,,,,,,,,,,F,181,hexagon,1,0,,,,,,,,,,,,,,,,switch,number,numSwt,k,0.5308,Lo,,,,,,1,,,,,,,,high,10,0,10,0,1,,,,,,,,,
297301,2022-11-15_18h54.10.664,vts_reward_expectancy_bt,2022.2.4,MacIntel,60.0024001,Chrome,1440,900,,,,,0,810,,,,,,,,,,,,,,,,,W,132,triangle,1,0,,,,,,,,,,,,,,,,switch,letter,lettSwt,f,0.7151,Hi,,,,,,1,,,,,,,,high,11,0,11,0,1,,,,,,,,,
297301,2022-11-15_18h54.10.664,vts_reward_expectancy_bt,2022.2.4,MacIntel,60.0024001,Chrome,1440,900,,,,,0,810,,,,,,,,,,,,,,,,,S,139,circle,0,0,,,,,,,,,,,,,,,,switch,number,NA,k,0.5304,Hi,,,,,,1,,,,,,,,high,12,0,12,0,1,,,,,,,,,
297301,2022-11-15_18h54.10.664,vts_reward_expectancy_bt,2022.2.4,MacIntel,60.0024001,Chrome,1440,900,,,,,0,810,,,,,,,,,,,,,,,,,U,146,star,1,1,,,,,,,,,,,,,,,,repeat,number,numRpt,j,0.6325,Hi,,,,,,1,,,,,,,,high,13,0,13,0,1,,,,,,,,,
297301,2022-11-15_18h54.10.664,vts_reward_expectancy_bt,2022.2.4,MacIntel,60.0024001,Chrome,1440,900,,,,,0,810,,,,,,,,,,,,,,,,,D,167,hexagon,0,0,,,,,,,,,,,,,,,,switch,letter,NA,f,0.4484,Hi,,,,,,1,,,,,,,,high,14,0,14,0,1,,,,,,,,,
297301,2022-11-15_18h54.10.664,vts_reward_expectancy_bt,2022.2.4,MacIntel,60.0024001,Chrome,1440,900,,,,,10,820,,,,,,,,,,,,,,,,,B,174,triangle,1,1,,,,,,,,,,,,,,,,repeat,letter,lettRpt,d,0.5473,Hi,,,,,,1,,,,,,,,high,15,0,15,0,1,,,,,,,,,
297301,2022-11-15_18h54.10.664,vts_reward_expectancy_bt,2022.2.4,MacIntel,60.0024001,Chrome,1440,900,,,,,0,820,,,,,,,,,,,,,,,,,S,146,triangle,1,0,,,,,,,,,,,,,,,,switch,number,numSwt,j,0.6142,Hi,,,,,,1,,,,,,,,high,16,0,16,0,1,,,,,,,,,
297301,2022-11-15_18h54.10.664,vts_reward_expectancy_bt,2022.2.4,MacIntel,60.0024001,Chrome,1440,900,,,,,10,830,,,,,,,,,,,,,,,,,W,139,circle,1,0,,,,,,,,,,,,,,,,switch,letter,lettSwt,f,0.6805,Lo,,,,,,1,,,,,,,,high,17,0,17,0,1,,,,,,,,,
297301,2022-11-15_18h54.10.664,vts_reward_expectancy_bt,2022.2.4,MacIntel,60.0024001,Chrome,1440,900,,,,,1,831,,,,,,,,,,,,,,,,,F,132,hexagon,1,0,,,,,,,,,,,,,,,,repeat,letter,lettRpt,d,0.5983,Lo,,,,,,1,,,,,,,,high,18,0,18,0,1,,,,,,,,,
297301,2022-11-15_18h54.10.664,vts_reward_expectancy_bt,2022.2.4,MacIntel,60.0024001,Chrome,1440,900,,,,,0,831,,,,,,,,,,,,,,,,,D,174,star,1,0,,,,,,,,,,,,,,,,repeat,letter,lettRpt,d,0.5775,Hi,,,,,,1,,,,,,,,high,19,0,19,0,1,,,,,,,,,
297301,2022-11-15_18h54.10.664,vts_reward_expectancy_bt,2022.2.4,MacIntel,60.0024001,Chrome,1440,900,,,,,0,831,,,,,,,,,,,,,,,,,H,160,star,1,0,,,,,,,,,,,,,,,,repeat,letter,lettRpt,d,0.614,Hi,,,,,,1,,,,,,,,high,20,0,20,0,1,,,,,,,,,
297301,2022-11-15_18h54.10.664,vts_reward_expectancy_bt,2022.2.4,MacIntel,60.0024001,Chrome,1440,900,,,,,1,832,,,,,,,,,,,,,,,,,B,181,circle,1,0,,,,,,,,,,,,,,,,switch,number,numSwt,k,0.583,Lo,,,,,,1,,,,,,,,high,21,0,21,0,1,,,,,,,,,
297301,2022-11-15_18h54.10.664,vts_reward_expectancy_bt,2022.2.4,MacIntel,60.0024001,Chrome,1440,900,,,,,0,832,,,,,,,,,,,,,,,,,Y,125,hexagon,0,0,,,,,,,,,,,,,,,,switch,letter,NA,d,0.5096,Lo,,,,,,1,,,,,,,,high,22,0,22,0,1,,,,,,,,,
297301,2022-11-15_18h54.10.664,vts_reward_expectancy_bt,2022.2.4,MacIntel,60.0024001,Chrome,1440,900,,,,,0,832,,,,,,,,,,,,,,,,,U,167,triangle,0,1,,,,,,,,,,,,,,,,switch,number,NA,j,0.3502,Lo,,,,,,1,,,,,,,,high,23,0,23,0,1,,,,,,,,,
297301,2022-11-15_18h54.10.664,vts_reward_expectancy_bt,2022.2.4,MacIntel,60.0024001,Chrome,1440,900,,,,,0,832,,,,,,,,,,,,,,,,,B,167,star,0,1,,,,,,,,,,,,,,,,repeat,number,NA,j,0.6402,Lo,,,,,,1,,,,,,,,high,24,0,24,0,1,,,,,,,,,
297301,2022-11-15_18h54.10.664,vts_reward_expectancy_bt,2022.2.4,MacIntel,60.0024001,Chrome,1440,900,,,,,0,832,,,,,,,,,,,,,,,,,W,125,triangle,1,1,,,,,,,,,,,,,,,,repeat,number,numRpt,j,0.7022,Hi,,,,,,1,,,,,,,,high,25,0,25,0,1,,,,,,,,,
297301,2022-11-15_18h54.10.664,vts_reward_expectancy_bt,2022.2.4,MacIntel,60.0024001,Chrome,1440,900,,,,,10,842,,,,,,,,,,,,,,,,,S,160,circle,1,0,,,,,,,,,,,,,,,,switch,letter,lettSwt,f,0.5763,Lo,,,,,,1,,,,,,,,high,26,0,26,0,1,,,,,,,,,
297301,2022-11-15_18h54.10.664,vts_reward_expectancy_bt,2022.2.4,MacIntel,60.0024001,Chrome,1440,900,,,,,10,852,,,,,,,,,,,,,,,,,U,174,hexagon,1,0,,,,,,,,,,,,,,,,repeat,letter,lettRpt,f,0.7109,Lo,,,,,,1,,,,,,,,high,27,0,27,0,1,,,,,,,,,
297301,2022-11-15_18h54.10.664,vts_reward_expectancy_bt,2022.2.4,MacIntel,60.0024001,Chrome,1440,900,,,,,1,853,,,,,,,,,,,,,,,,,F,181,circle,1,0,,,,,,,,,,,,,,,,repeat,letter,lettRpt,d,0.4816,Lo,,,,,,1,,,,,,,,high,28,0,28,0,1,,,,,,,,,
297301,2022-11-15_18h54.10.664,vts_reward_expectancy_bt,2022.2.4,MacIntel,60.0024001,Chrome,1440,900,,,,,1,854,,,,,,,,,,,,,,,,,Y,132,star,1,0,,,,,,,,,,,,,,,,repeat,letter,lettRpt,f,0.539,Hi,,,,,,1,,,,,,,,high,29,0,29,0,1,,,,,,,,,
297301,2022-11-15_18h54.10.664,vts_reward_expectancy_bt,2022.2.4,MacIntel,60.0024001,Chrome,1440,900,,,,,1,855,,,,,,,,,,,,,,,,,D,146,hexagon,1,0,,,,,,,,,,,,,,,,repeat,letter,lettRpt,d,0.5642,Lo,,,,,,1,,,,,,,,high,30,0,30,0,1,,,,,,,,,
297301,2022-11-15_18h54.10.664,vts_reward_expectancy_bt,2022.2.4,MacIntel,60.0024001,Chrome,1440,900,,,,,0,855,,,,,,,,,,,,,,,,,H,139,triangle,1,0,,,,,,,,,,,,,,,,switch,number,numSwt,j,0.6453,Hi,,,,,,1,,,,,,,,high,31,0,31,0,1,,,,,,,,,
297301,2022-11-15_18h54.10.664,vts_reward_expectancy_bt,2022.2.4,MacIntel,60.0024001,Chrome,1440,900,,,,,1,856,,,,,,,,,,,,,,,,,S,181,circle,1,0,,,,,,,,,,,,,,,,switch,letter,lettSwt,f,0.8313,Lo,,,,,,2,,,,,,space,11.086,high,0,0,0,0,1,,,,,,,,,
297301,2022-11-15_18h54.10.664,vts_reward_expectancy_bt,2022.2.4,MacIntel,60.0024001,Chrome,1440,900,,,,,0,856,,,,,,,,,,,,,,,,,D,125,hexagon,0,0,,,,,,,,,,,,,,,,switch,number,NA,k,0.6539,Lo,,,,,,2,,,,,,,,high,1,0,1,0,1,,,,,,,,,
297301,2022-11-15_18h54.10.664,vts_reward_expectancy_bt,2022.2.4,MacIntel,60.0024001,Chrome,1440,900,,,,,0,856,,,,,,,,,,,,,,,,,F,132,triangle,1,1,,,,,,,,,,,,,,,,repeat,number,numRpt,j,0.7158,Hi,,,,,,2,,,,,,,,high,2,0,2,0,1,,,,,,,,,
297301,2022-11-15_18h54.10.664,vts_reward_expectancy_bt,2022.2.4,MacIntel,60.0024001,Chrome,1440,900,,,,,10,866,,,,,,,,,,,,,,,,,W,174,star,1,0,,,,,,,,,,,,,,,,switch,letter,lettSwt,f,0.5215,Hi,,,,,,2,,,,,,,,high,3,0,3,0,1,,,,,,,,,
297301,2022-11-15_18h54.10.664,vts_reward_expectancy_bt,2022.2.4,MacIntel,60.0024001,Chrome,1440,900,,,,,10,876,,,,,,,,,,,,,,,,,B,167,circle,1,0,,,,,,,,,,,,,,,,switch,number,numSwt,k,0.6314,Lo,,,,,,2,,,,,,,,high,4,0,4,0,1,,,,,,,,,
297301,2022-11-15_18h54.10.664,vts_reward_expectancy_bt,2022.2.4,MacIntel,60.0024001,Chrome,1440,900,,,,,0,876,,,,,,,,,,,,,,,,,H,146,hexagon,0,0,,,,,,,,,,,,,,,,switch,letter,NA,f,0.6991,Lo,,,,,,2,,,,,,,,high,5,0,5,0,1,,,,,,,,,
297301,2022-11-15_18h54.10.664,vts_reward_expectancy_bt,2022.2.4,MacIntel,60.0024001,Chrome,1440,900,,,,,0,876,,,,,,,,,,,,,,,,,U,139,triangle,1,1,,,,,,,,,,,,,,,,repeat,letter,lettRpt,f,0.6457,Hi,,,,,,2,,,,,,,,high,6,0,6,0,1,,,,,,,,,
297301,2022-11-15_18h54.10.664,vts_reward_expectancy_bt,2022.2.4,MacIntel,60.0024001,Chrome,1440,900,,,,,10,886,,,,,,,,,,,,,,,,,Y,160,star,1,0,,,,,,,,,,,,,,,,switch,number,numSwt,k,0.5135,Hi,,,,,,2,,,,,,,,high,7,0,7,0,1,,,,,,,,,
297301,2022-11-15_18h54.10.664,vts_reward_expectancy_bt,2022.2.4,MacIntel,60.0024001,Chrome,1440,900,,,,,0,886,,,,,,,,,,,,,,,,,S,181,star,1,0,,,,,,,,,,,,,,,,repeat,number,numRpt,k,1.1711,Hi,,,,,,2,,,,,,,,high,8,0,8,0,1,,,,,,,,,
297301,2022-11-15_18h54.10.664,vts_reward_expectancy_bt,2022.2.4,MacIntel,60.0024001,Chrome,1440,900,,,,,10,896,,,,,,,,,,,,,,,,,D,125,triangle,1,0,,,,,,,,,,,,,,,,switch,letter,lettSwt,d,0.5314,Hi,,,,,,2,,,,,,,,high,9,0,9,0,1,,,,,,,,,
297301,2022-11-15_18h54.10.664,vts_reward_expectancy_bt,2022.2.4,MacIntel,60.0024001,Chrome,1440,900,,,,,0,896,,,,,,,,,,,,,,,,,F,132,hexagon,0,0,,,,,,,,,,,,,,,,switch,number,NA,k,0.514,Hi,,,,,,2,,,,,,,,high,10,0,10,0,1,,,,,,,,,
297301,2022-11-15_18h54.10.664,vts_reward_expectancy_bt,2022.2.4,MacIntel,60.0024001,Chrome,1440,900,,,,,0,896,,,,,,,,,,,,,,,,,W,174,circle,0,1,,,,,,,,,,,,,,,,repeat,number,NA,j,0.4511,Hi,,,,,,2,,,,,,,,high,11,0,11,0,1,,,,,,,,,
297301,2022-11-15_18h54.10.664,vts_reward_expectancy_bt,2022.2.4,MacIntel,60.0024001,Chrome,1440,900,,,,,1,897,,,,,,,,,,,,,,,,,B,167,circle,1,1,,,,,,,,,,,,,,,,repeat,number,numRpt,k,0.83,Lo,,,,,,2,,,,,,,,high,12,0,12,0,1,,,,,,,,,
297301,2022-11-15_18h54.10.664,vts_reward_expectancy_bt,2022.2.4,MacIntel,60.0024001,Chrome,1440,900,,,,,0,897,,,,,,,,,,,,,,,,,H,146,star,1,0,,,,,,,,,,,,,,,,repeat,number,numRpt,j,1.0135,Hi,,,,,,2,,,,,,,,high,13,0,13,0,1,,,,,,,,,
297301,2022-11-15_18h54.10.664,vts_reward_expectancy_bt,2022.2.4,MacIntel,60.0024001,Chrome,1440,900,,,,,0,897,,,,,,,,,,,,,,,,,U,139,hexagon,0,0,,,,,,,,,,,,,,,,repeat,number,NA,k,1.5695,Hi,,,,,,2,,,,,,,,high,14,0,14,0,1,,,,,,,,,
297301,2022-11-15_18h54.10.664,vts_reward_expectancy_bt,2022.2.4,MacIntel,60.0024001,Chrome,1440,900,,,,,0,897,,,,,,,,,,,,,,,,,Y,160,triangle,0,1,,,,,,,,,,,,,,,,repeat,number,NA,j,1.7797,Hi,,,,,,2,,,,,,,,high,15,0,15,0,1,,,,,,,,,
297301,2022-11-15_18h54.10.664,vts_reward_expectancy_bt,2022.2.4,MacIntel,60.0024001,Chrome,1440,900,,,,,10,907,,,,,,,,,,,,,,,,,H,174,hexagon,1,1,,,,,,,,,,,,,,,,repeat,number,numRpt,k,1.1475,Lo,,,,,,2,,,,,,,,high,16,0,16,0,1,,,,,,,,,
297301,2022-11-15_18h54.10.664,vts_reward_expectancy_bt,2022.2.4,MacIntel,60.0024001,Chrome,1440,900,,,,,0,907,,,,,,,,,,,,,,,,,Y,125,star,1,0,,,,,,,,,,,,,,,,repeat,number,numRpt,j,0.8126,Hi,,,,,,2,,,,,,,,high,17,0,17,0,1,,,,,,,,,
297301,2022-11-15_18h54.10.664,vts_reward_expectancy_bt,2022.2.4,MacIntel,60.0024001,Chrome,1440,900,,,,,10,917,,,,,,,,,,,,,,,,,W,181,circle,1,0,,,,,,,,,,,,,,,,repeat,number,numRpt,k,0.7975,Lo,,,,,,2,,,,,,,,high,18,0,18,0,1,,,,,,,,,
297301,2022-11-15_18h54.10.664,vts_reward_expectancy_bt,2022.2.4,MacIntel,60.0024001,Chrome,1440,900,,,,,0,917,,,,,,,,,,,,,,,,,F,160,triangle,0,0,,,,,,,,,,,,,,,,repeat,number,NA,j,1.0662,Lo,,,,,,2,,,,,,,,high,19,0,19,0,1,,,,,,,,,
297301,2022-11-15_18h54.10.664,vts_reward_expectancy_bt,2022.2.4,MacIntel,60.0024001,Chrome,1440,900,,,,,0,917,,,,,,,,,,,,,,,,,B,167,star,1,1,,,,,,,,,,,,,,,,repeat,number,numRpt,k,0.8941,Hi,,,,,,2,,,,,,,,high,20,0,20,0,1,,,,,,,,,
297301,2022-11-15_18h54.10.664,vts_reward_expectancy_bt,2022.2.4,MacIntel,60.0024001,Chrome,1440,900,,,,,0,917,,,,,,,,,,,,,,,,,U,139,triangle,0,0,,,,,,,,,,,,,,,,switch,letter,NA,d,0.9224,Hi,,,,,,2,,,,,,,,high,21,0,21,0,1,,,,,,,,,
297301,2022-11-15_18h54.10.664,vts_reward_expectancy_bt,2022.2.4,MacIntel,60.0024001,Chrome,1440,900,,,,,10,927,,,,,,,,,,,,,,,,,S,146,hexagon,1,1,,,,,,,,,,,,,,,,switch,number,numSwt,j,1.0283,Lo,,,,,,2,,,,,,,,high,22,0,22,0,1,,,,,,,,,
297301,2022-11-15_18h54.10.664,vts_reward_expectancy_bt,2022.2.4,MacIntel,60.0024001,Chrome,1440,900,,,,,1,928,,,,,,,,,,,,,,,,,D,132,circle,1,0,,,,,,,,,,,,,,,,repeat,number,numRpt,j,0.9439,Lo,,,,,,2,,,,,,,,high,23,0,23,0,1,,,,,,,,,
297301,2022-11-15_18h54.10.664,vts_reward_expectancy_bt,2022.2.4,MacIntel,60.0024001,Chrome,1440,900,,,,,0,928,,,,,,,,,,,,,,,,,W,174,star,1,0,,,,,,,,,,,,,,,,repeat,number,numRpt,k,0.9101,Hi,,,,,,2,,,,,,,,high,24,0,24,0,1,,,,,,,,,
297301,2022-11-15_18h54.10.664,vts_reward_expectancy_bt,2022.2.4,MacIntel,60.0024001,Chrome,1440,900,,,,,10,938,,,,,,,,,,,,,,,,,H,139,triangle,1,0,,,,,,,,,,,,,,,,repeat,number,numRpt,j,0.6426,Hi,,,,,,2,,,,,,,,high,25,0,25,0,1,,,,,,,,,
297301,2022-11-15_18h54.10.664,vts_reward_expectancy_bt,2022.2.4,MacIntel,60.0024001,Chrome,1440,900,,,,,1,939,,,,,,,,,,,,,,,,,U,167,hexagon,1,0,,,,,,,,,,,,,,,,repeat,number,numRpt,k,1.1307,Lo,,,,,,2,,,,,,,,high,26,0,26,0,1,,,,,,,,,
297301,2022-11-15_18h54.10.664,vts_reward_expectancy_bt,2022.2.4,MacIntel,60.0024001,Chrome,1440,900,,,,,0,939,,,,,,,,,,,,,,,,,D,125,circle,0,0,,,,,,,,,,,,,,,,switch,letter,NA,f,0.5344,Lo,,,,,,2,,,,,,,,high,27,0,27,0,1,,,,,,,,,
297301,2022-11-15_18h54.10.664,vts_reward_expectancy_bt,2022.2.4,MacIntel,60.0024001,Chrome,1440,900,,,,,0,939,,,,,,,,,,,,,,,,,S,160,star,1,1,,,,,,,,,,,,,,,,repeat,letter,lettRpt,f,0.6297,Hi,,,,,,2,,,,,,,,high,28,0,28,0,1,,,,,,,,,
297301,2022-11-15_18h54.10.664,vts_reward_expectancy_bt,2022.2.4,MacIntel,60.0024001,Chrome,1440,900,,,,,1,940,,,,,,,,,,,,,,,,,F,181,hexagon,1,0,,,,,,,,,,,,,,,,repeat,letter,lettRpt,d,0.5782,Lo,,,,,,2,,,,,,,,high,29,0,29,0,1,,,,,,,,,
297301,2022-11-15_18h54.10.664,vts_reward_expectancy_bt,2022.2.4,MacIntel,60.0024001,Chrome,1440,900,,,,,10,950,,,,,,,,,,,,,,,,,Y,132,triangle,1,0,,,,,,,,,,,,,,,,repeat,letter,lettRpt,f,0.1984,Hi,,,,,,2,,,,,,,,high,30,0,30,0,1,,,,,,,,,
297301,2022-11-15_18h54.10.664,vts_reward_expectancy_bt,2022.2.4,MacIntel,60.0024001,Chrome,1440,900,,,,,1,951,,,,,,,,,,,,,,,,,B,146,circle,1,0,,,,,,,,,,,,,,,,switch,number,numSwt,j,0.777,Lo,,,,,,2,,,,,,,,high,31,0,31,0,1,,,,,,,,,
297301,2022-11-15_18h54.10.664,vts_reward_expectancy_bt,2022.2.4,MacIntel,60.0024001,Chrome,1440,900,,,,,1,952,,,,,,,,,,,,,,,,,F,125,circle,1,0,,,,,,,,,,,,,,,,switch,letter,lettSwt,d,0.6138,Lo,,,,,,3,,,,,,space,3.3929,high,0,0,0,0,1,,,,,,,,,
297301,2022-11-15_18h54.10.664,vts_reward_expectancy_bt,2022.2.4,MacIntel,60.0024001,Chrome,1440,900,,,,,1,953,,,,,,,,,,,,,,,,,W,132,hexagon,1,0,,,,,,,,,,,,,,,,switch,number,numSwt,j,0.5803,Lo,,,,,,3,,,,,,,,high,1,0,1,0,1,,,,,,,,,
297301,2022-11-15_18h54.10.664,vts_reward_expectancy_bt,2022.2.4,MacIntel,60.0024001,Chrome,1440,900,,,,,0,953,,,,,,,,,,,,,,,,,Y,160,triangle,1,0,,,,,,,,,,,,,,,,switch,letter,lettSwt,f,0.9489,Hi,,,,,,3,,,,,,,,high,2,0,2,0,1,,,,,,,,,
297301,2022-11-15_18h54.10.664,vts_reward_expectancy_bt,2022.2.4,MacIntel,60.0024001,Chrome,1440,900,,,,,10,963,,,,,,,,,,,,,,,,,D,139,star,1,0,,,,,,,,,,,,,,,,repeat,letter,lettRpt,d,0.4806,Hi,,,,,,3,,,,,,,,high,3,0,3,0,1,,,,,,,,,
297301,2022-11-15_18h54.10.664,vts_reward_expectancy_bt,2022.2.4,MacIntel,60.0024001,Chrome,1440,900,,,,,1,964,,,,,,,,,,,,,,,,,H,167,circle,1,0,,,,,,,,,,,,,,,,switch,number,numSwt,k,0.5981,Lo,,,,,,3,,,,,,,,high,4,0,4,0,1,,,,,,,,,
297301,2022-11-15_18h54.10.664,vts_reward_expectancy_bt,2022.2.4,MacIntel,60.0024001,Chrome,1440,900,,,,,0,964,,,,,,,,,,,,,,,,,B,181,hexagon,0,0,,,,,,,,,,,,,,,,switch,letter,NA,f,0.6482,Lo,,,,,,3,,,,,,,,high,5,0,5,0,1,,,,,,,,,
297301,2022-11-15_18h54.10.664,vts_reward_expectancy_bt,2022.2.4,MacIntel,60.0024001,Chrome,1440,900,,,,,1,965,,,,,,,,,,,,,,,,,U,146,triangle,1,1,,,,,,,,,,,,,,,,repeat,letter,lettRpt,f,0.5054,Hi,,,,,,3,,,,,,,,high,6,0,6,0,1,,,,,,,,,
297301,2022-11-15_18h54.10.664,vts_reward_expectancy_bt,2022.2.4,MacIntel,60.0024001,Chrome,1440,900,,,,,0,965,,,,,,,,,,,,,,,,,S,174,star,1,0,,,,,,,,,,,,,,,,switch,number,numSwt,k,1.2504,Hi,,,,,,3,,,,,,,,high,7,0,7,0,1,,,,,,,,,
297301,2022-11-15_18h54.10.664,vts_reward_expectancy_bt,2022.2.4,MacIntel,60.0024001,Chrome,1440,900,,,,,1,966,,,,,,,,,,,,,,,,,F,125,hexagon,1,0,,,,,,,,,,,,,,,,repeat,number,numRpt,j,0.7134,Lo,,,,,,3,,,,,,,,high,8,0,8,0,1,,,,,,,,,
297301,2022-11-15_18h54.10.664,vts_reward_expectancy_bt,2022.2.4,MacIntel,60.0024001,Chrome,1440,900,,,,,0,966,,,,,,,,,,,,,,,,,W,132,triangle,1,0,,,,,,,,,,,,,,,,switch,letter,lettSwt,f,0.5337,Hi,,,,,,3,,,,,,,,high,9,0,9,0,1,,,,,,,,,
297301,2022-11-15_18h54.10.664,vts_reward_expectancy_bt,2022.2.4,MacIntel,60.0024001,Chrome,1440,900,,,,,1,967,,,,,,,,,,,,,,,,,Y,160,circle,1,0,,,,,,,,,,,,,,,,switch,number,numSwt,k,0.6305,Lo,,,,,,3,,,,,,,,high,10,0,10,0,1,,,,,,,,,
297301,2022-11-15_18h54.10.664,vts_reward_expectancy_bt,2022.2.4,MacIntel,60.0024001,Chrome,1440,900,,,,,10,977,,,,,,,,,,,,,,,,,D,139,star,1,0,,,,,,,,,,,,,,,,repeat,number,numRpt,j,0.6857,Hi,,,,,,3,,,,,,,,high,11,0,11,0,1,,,,,,,,,
297301,2022-11-15_18h54.10.664,vts_reward_expectancy_bt,2022.2.4,MacIntel,60.0024001,Chrome,1440,900,,,,,1,978,,,,,,,,,,,,,,,,,H,167,circle,1,0,,,,,,,,,,,,,,,,switch,letter,lettSwt,d,0.7637,Lo,,,,,,3,,,,,,,,high,12,0,12,0,1,,,,,,,,,
297301,2022-11-15_18h54.10.664,vts_reward_expectancy_bt,2022.2.4,MacIntel,60.0024001,Chrome,1440,900,,,,,10,988,,,,,,,,,,,,,,,,,B,181,triangle,1,0,,,,,,,,,,,,,,,,switch,number,numSwt,k,0.6125,Hi,,,,,,3,,,,,,,,high,13,0,13,0,1,,,,,,,,,
297301,2022-11-15_18h54.10.664,vts_reward_expectancy_bt,2022.2.4,MacIntel,60.0024001,Chrome,1440,900,,,,,0,988,,,,,,,,,,,,,,,,,U,146,star,0,0,,,,,,,,,,,,,,,,repeat,number,NA,k,0.8819,Hi,,,,,,3,,,,,,,,high,14,0,14,0,1,,,,,,,,,
297301,2022-11-15_18h54.10.664,vts_reward_expectancy_bt,2022.2.4,MacIntel,60.0024001,Chrome,1440,900,,,,,1,989,,,,,,,,,,,,,,,,,S,174,hexagon,1,1,,,,,,,,,,,,,,,,repeat,number,numRpt,k,2.0805,Lo,,,,,,3,,,,,,,,high,15,0,15,0,1,,,,,,,,,
297301,2022-11-15_18h54.10.664,vts_reward_expectancy_bt,2022.2.4,MacIntel,60.0024001,Chrome,1440,900,,,,,0,989,,,,,,,,,,,,,,,,,H,160,star,1,0,,,,,,,,,,,,,,,,switch,letter,lettSwt,d,0.6146,Hi,,,,,,3,,,,,,,,high,16,0,16,0,1,,,,,,,,,
297301,2022-11-15_18h54.10.664,vts_reward_expectancy_bt,2022.2.4,MacIntel,60.0024001,Chrome,1440,900,,,,,0,989,,,,,,,,,,,,,,,,,S,181,triangle,0,0,,,,,,,,,,,,,,,,switch,number,NA,j,0.577,Hi,,,,,,3,,,,,,,,high,17,0,17,0,1,,,,,,,,,
297301,2022-11-15_18h54.10.664,vts_reward_expectancy_bt,2022.2.4,MacIntel,60.0024001,Chrome,1440,900,,,,,10,999,,,,,,,,,,,,,,,,,Y,146,circle,1,1,,,,,,,,,,,,,,,,repeat,number,numRpt,j,0.7149,Lo,,,,,,3,,,,,,,,high,18,0,18,0,1,,,,,,,,,
297301,2022-11-15_18h54.10.664,vts_reward_expectancy_bt,2022.2.4,MacIntel,60.0024001,Chrome,1440,900,,,,,1,1000,,,,,,,,,,,,,,,,,D,174,hexagon,1,0,,,,,,,,,,,,,,,,switch,letter,lettSwt,d,0.7454,Lo,,,,,,3,,,,,,,,high,19,0,19,0,1,,,,,,,,,
297301,2022-11-15_18h54.10.664,vts_reward_expectancy_bt,2022.2.4,MacIntel,60.0024001,Chrome,1440,900,,,,,0,1000,,,,,,,,,,,,,,,,,F,167,star,1,0,,,,,,,,,,,,,,,,repeat,letter,lettRpt,d,0.6277,Hi,,,,,,3,,,,,,,,high,20,0,20,0,1,,,,,,,,,
297301,2022-11-15_18h54.10.664,vts_reward_expectancy_bt,2022.2.4,MacIntel,60.0024001,Chrome,1440,900,,,,,0,1000,,,,,,,,,,,,,,,,,U,132,triangle,0,0,,,,,,,,,,,,,,,,switch,number,NA,k,0.8635,Hi,,,,,,3,,,,,,,,high,21,0,21,0,1,,,,,,,,,
297301,2022-11-15_18h54.10.664,vts_reward_expectancy_bt,2022.2.4,MacIntel,60.0024001,Chrome,1440,900,,,,,1,1001,,,,,,,,,,,,,,,,,B,125,circle,1,1,,,,,,,,,,,,,,,,switch,letter,lettSwt,d,0.5756,Lo,,,,,,3,,,,,,,,high,22,0,22,0,1,,,,,,,,,
297301,2022-11-15_18h54.10.664,vts_reward_expectancy_bt,2022.2.4,MacIntel,60.0024001,Chrome,1440,900,,,,,1,1002,,,,,,,,,,,,,,,,,W,139,hexagon,1,0,,,,,,,,,,,,,,,,repeat,letter,lettRpt,f,0.7775,Lo,,,,,,3,,,,,,,,high,23,0,23,0,1,,,,,,,,,
297301,2022-11-15_18h54.10.664,vts_reward_expectancy_bt,2022.2.4,MacIntel,60.0024001,Chrome,1440,900,,,,,0,1002,,,,,,,,,,,,,,,,,S,146,star,1,0,,,,,,,,,,,,,,,,switch,number,numSwt,j,0.8121,Hi,,,,,,3,,,,,,,,high,24,0,24,0,1,,,,,,,,,
297301,2022-11-15_18h54.10.664,vts_reward_expectancy_bt,2022.2.4,MacIntel,60.0024001,Chrome,1440,900,,,,,1,1003,,,,,,,,,,,,,,,,,D,174,circle,1,0,,,,,,,,,,,,,,,,switch,letter,lettSwt,d,0.7615,Lo,,,,,,3,,,,,,,,high,25,0,25,0,1,,,,,,,,,
297301,2022-11-15_18h54.10.664,vts_reward_expectancy_bt,2022.2.4,MacIntel,60.0024001,Chrome,1440,900,,,,,10,1013,,,,,,,,,,,,,,,,,U,181,triangle,1,0,,,,,,,,,,,,,,,,switch,number,numSwt,k,0.513,Hi,,,,,,3,,,,,,,,high,26,0,26,0,1,,,,,,,,,
297301,2022-11-15_18h54.10.664,vts_reward_expectancy_bt,2022.2.4,MacIntel,60.0024001,Chrome,1440,900,,,,,1,1014,,,,,,,,,,,,,,,,,H,139,hexagon,1,0,,,,,,,,,,,,,,,,switch,letter,lettSwt,d,0.6962,Lo,,,,,,3,,,,,,,,high,27,0,27,0,1,,,,,,,,,
297301,2022-11-15_18h54.10.664,vts_reward_expectancy_bt,2022.2.4,MacIntel,60.0024001,Chrome,1440,900,,,,,0,1014,,,,,,,,,,,,,,,,,B,125,triangle,0,0,,,,,,,,,,,,,,,,switch,number,NA,k,0.8318,Lo,,,,,,3,,,,,,,,high,28,0,28,0,1,,,,,,,,,
297301,2022-11-15_18h54.10.664,vts_reward_expectancy_bt,2022.2.4,MacIntel,60.0024001,Chrome,1440,900,,,,,1,1015,,,,,,,,,,,,,,,,,F,160,hexagon,1,1,,,,,,,,,,,,,,,,switch,letter,lettSwt,d,0.7323,Lo,,,,,,3,,,,,,,,high,29,0,29,0,1,,,,,,,,,
297301,2022-11-15_18h54.10.664,vts_reward_expectancy_bt,2022.2.4,MacIntel,60.0024001,Chrome,1440,900,,,,,0,1015,,,,,,,,,,,,,,,,,W,132,star,1,0,,,,,,,,,,,,,,,,repeat,letter,lettRpt,f,0.8142,Hi,,,,,,3,,,,,,,,high,30,0,30,0,1,,,,,,,,,
297301,2022-11-15_18h54.10.664,vts_reward_expectancy_bt,2022.2.4,MacIntel,60.0024001,Chrome,1440,900,,,,,1,1016,,,,,,,,,,,,,,,,,Y,167,circle,1,0,,,,,,,,,,,,,,,,repeat,letter,lettRpt,f,1.1168,Lo,,,,,,3,,,,,,,,high,31,0,31,0,1,,,,,,,,,
297301,2022-11-15_18h54.10.664,vts_reward_expectancy_bt,2022.2.4,MacIntel,60.0024001,Chrome,1440,900,,,,,10,1026,,,,,,,,,,,,,,,,,D,174,hexagon,1,0,,,,,,,,,,,,,,,,repeat,letter,lettRpt,d,0.7808,Lo,,,,,,4,,,,,,space,2.2034,high,0,0,0,0,1,,,,,,,,,
297301,2022-11-15_18h54.10.664,vts_reward_expectancy_bt,2022.2.4,MacIntel,60.0024001,Chrome,1440,900,,,,,1,1027,,,,,,,,,,,,,,,,,W,167,circle,1,0,,,,,,,,,,,,,,,,repeat,letter,lettRpt,f,0.5991,Lo,,,,,,4,,,,,,,,high,1,0,1,0,1,,,,,,,,,
297301,2022-11-15_18h54.10.664,vts_reward_expectancy_bt,2022.2.4,MacIntel,60.0024001,Chrome,1440,900,,,,,0,1027,,,,,,,,,,,,,,,,,S,160,star,0,0,,,,,,,,,,,,,,,,switch,number,NA,j,0.565,Lo,,,,,,4,,,,,,,,high,2,0,2,0,1,,,,,,,,,
297301,2022-11-15_18h54.10.664,vts_reward_expectancy_bt,2022.2.4,MacIntel,60.0024001,Chrome,1440,900,,,,,10,1037,,,,,,,,,,,,,,,,,H,146,triangle,1,1,,,,,,,,,,,,,,,,repeat,number,numRpt,j,0.4853,Hi,,,,,,4,,,,,,,,high,3,0,3,0,1,,,,,,,,,
297301,2022-11-15_18h54.10.664,vts_reward_expectancy_bt,2022.2.4,MacIntel,60.0024001,Chrome,1440,900,,,,,1,1038,,,,,,,,,,,,,,,,,B,181,hexagon,1,0,,,,,,,,,,,,,,,,repeat,number,numRpt,k,0.5792,Lo,,,,,,4,,,,,,,,high,4,0,4,0,1,,,,,,,,,
297301,2022-11-15_18h54.10.664,vts_reward_expectancy_bt,2022.2.4,MacIntel,60.0024001,Chrome,1440,900,,,,,1,1039,,,,,,,,,,,,,,,,,U,139,circle,1,0,,,,,,,,,,,,,,,,switch,letter,lettSwt,f,0.7175,Lo,,,,,,4,,,,,,,,high,5,0,5,0,1,,,,,,,,,
297301,2022-11-15_18h54.10.664,vts_reward_expectancy_bt,2022.2.4,MacIntel,60.0024001,Chrome,1440,900,,,,,10,1049,,,,,,,,,,,,,,,,,F,125,star,1,0,,,,,,,,,,,,,,,,repeat,letter,lettRpt,d,0.5633,Hi,,,,,,4,,,,,,,,high,6,0,6,0,1,,,,,,,,,
297301,2022-11-15_18h54.10.664,vts_reward_expectancy_bt,2022.2.4,MacIntel,60.0024001,Chrome,1440,900,,,,,0,1049,,,,,,,,,,,,,,,,,Y,132,triangle,1,0,,,,,,,,,,,,,,,,repeat,letter,lettRpt,f,0.6701,Hi,,,,,,4,,,,,,,,high,7,0,7,0,1,,,,,,,,,
297301,2022-11-15_18h54.10.664,vts_reward_expectancy_bt,2022.2.4,MacIntel,60.0024001,Chrome,1440,900,,,,,1,1050,,,,,,,,,,,,,,,,,D,174,hexagon,1,0,,,,,,,,,,,,,,,,switch,number,numSwt,k,0.8356,Lo,,,,,,4,,,,,,,,high,8,0,8,0,1,,,,,,,,,
297301,2022-11-15_18h54.10.664,vts_reward_expectancy_bt,2022.2.4,MacIntel,60.0024001,Chrome,1440,900,,,,,0,1050,,,,,,,,,,,,,,,,,W,167,triangle,1,0,,,,,,,,,,,,,,,,repeat,number,numRpt,k,0.8446,Hi,,,,,,4,,,,,,,,high,9,0,9,0,1,,,,,,,,,
297301,2022-11-15_18h54.10.664,vts_reward_expectancy_bt,2022.2.4,MacIntel,60.0024001,Chrome,1440,900,,,,,0,1050,,,,,,,,,,,,,,,,,S,160,circle,0,0,,,,,,,,,,,,,,,,repeat,number,NA,j,0.7477,Hi,,,,,,4,,,,,,,,high,10,0,10,0,1,,,,,,,,,
297301,2022-11-15_18h54.10.664,vts_reward_expectancy_bt,2022.2.4,MacIntel,60.0024001,Chrome,1440,900,,,,,0,1050,,,,,,,,,,,,,,,,,H,146,star,1,1,,,,,,,,,,,,,,,,switch,letter,lettSwt,d,0.8974,Hi,,,,,,4,,,,,,,,high,11,0,11,0,1,,,,,,,,,
297301,2022-11-15_18h54.10.664,vts_reward_expectancy_bt,2022.2.4,MacIntel,60.0024001,Chrome,1440,900,,,,,0,1050,,,,,,,,,,,,,,,,,B,181,triangle,0,0,,,,,,,,,,,,,,,,switch,number,NA,j,0.9646,Hi,,,,,,4,,,,,,,,high,12,0,12,0,1,,,,,,,,,
297301,2022-11-15_18h54.10.664,vts_reward_expectancy_bt,2022.2.4,MacIntel,60.0024001,Chrome,1440,900,,,,,1,1051,,,,,,,,,,,,,,,,,U,139,circle,1,1,,,,,,,,,,,,,,,,repeat,number,numRpt,j,0.4144,Lo,,,,,,4,,,,,,,,high,13,0,13,0,1,,,,,,,,,
297301,2022-11-15_18h54.10.664,vts_reward_expectancy_bt,2022.2.4,MacIntel,60.0024001,Chrome,1440,900,,,,,1,1052,,,,,,,,,,,,,,,,,F,125,hexagon,1,0,,,,,,,,,,,,,,,,switch,letter,lettSwt,d,0.7317,Lo,,,,,,4,,,,,,,,high,14,0,14,0,1,,,,,,,,,
297301,2022-11-15_18h54.10.664,vts_reward_expectancy_bt,2022.2.4,MacIntel,60.0024001,Chrome,1440,900,,,,,0,1052,,,,,,,,,,,,,,,,,Y,132,star,1,0,,,,,,,,,,,,,,,,switch,number,numSwt,j,0.701,Hi,,,,,,4,,,,,,,,high,15,0,15,0,1,,,,,,,,,
297301,2022-11-15_18h54.10.664,vts_reward_expectancy_bt,2022.2.4,MacIntel,60.0024001,Chrome,1440,900,,,,,1,1053,,,,,,,,,,,,,,,,,B,125,circle,1,0,,,,,,,,,,,,,,,,switch,letter,lettSwt,d,0.6653,Lo,,,,,,4,,,,,,,,high,16,0,16,0,1,,,,,,,,,
297301,2022-11-15_18h54.10.664,vts_reward_expectancy_bt,2022.2.4,MacIntel,60.0024001,Chrome,1440,900,,,,,0,1053,,,,,,,,,,,,,,,,,W,167,hexagon,0,0,,,,,,,,,,,,,,,,repeat,letter,NA,d,2.3128,Lo,,,,,,4,,,,,,,,high,17,0,17,0,1,,,,,,,,,
297301,2022-11-15_18h54.10.664,vts_reward_expectancy_bt,2022.2.4,MacIntel,60.0024001,Chrome,1440,900,,,,,0,1053,,,,,,,,,,,,,,,,,S,139,star,0,1,,,,,,,,,,,,,,,,switch,number,NA,k,1.7311,Lo,,,,,,4,,,,,,,,high,18,0,18,0,1,,,,,,,,,
297301,2022-11-15_18h54.10.664,vts_reward_expectancy_bt,2022.2.4,MacIntel,60.0024001,Chrome,1440,900,,,,,0,1053,,,,,,,,,,,,,,,,,U,174,triangle,1,1,,,,,,,,,,,,,,,,switch,letter,lettSwt,f,1.22,Hi,,,,,,4,,,,,,,,high,19,0,19,0,1,,,,,,,,,
297301,2022-11-15_18h54.10.664,vts_reward_expectancy_bt,2022.2.4,MacIntel,60.0024001,Chrome,1440,900,,,,,0,1053,,,,,,,,,,,,,,,,,D,146,triangle,1,0,,,,,,,,,,,,,,,,repeat,letter,lettRpt,d,0.7478,Hi,,,,,,4,,,,,,,,high,20,0,20,0,1,,,,,,,,,
297301,2022-11-15_18h54.10.664,vts_reward_expectancy_bt,2022.2.4,MacIntel,60.0024001,Chrome,1440,900,,,,,1,1054,,,,,,,,,,,,,,,,,Y,160,circle,1,0,,,,,,,,,,,,,,,,repeat,letter,lettRpt,f,0.7657,Lo,,,,,,4,,,,,,,,high,21,0,21,0,1,,,,,,,,,
297301,2022-11-15_18h54.10.664,vts_reward_expectancy_bt,2022.2.4,MacIntel,60.0024001,Chrome,1440,900,,,,,10,1064,,,,,,,,,,,,,,,,,F,181,hexagon,1,0,,,,,,,,,,,,,,,,switch,number,numSwt,k,0.7817,Lo,,,,,,4,,,,,,,,high,22,0,22,0,1,,,,,,,,,
297301,2022-11-15_18h54.10.664,vts_reward_expectancy_bt,2022.2.4,MacIntel,60.0024001,Chrome,1440,900,,,,,10,1074,,,,,,,,,,,,,,,,,H,132,star,1,0,,,,,,,,,,,,,,,,switch,letter,lettSwt,d,0.5142,Hi,,,,,,4,,,,,,,,high,23,0,23,0,1,,,,,,,,,
297301,2022-11-15_18h54.10.664,vts_reward_expectancy_bt,2022.2.4,MacIntel,60.0024001,Chrome,1440,900,,,,,1,1075,,,,,,,,,,,,,,,,,F,160,hexagon,1,0,,,,,,,,,,,,,,,,switch,number,numSwt,k,1.525,Lo,,,,,,4,,,,,,,,high,24,0,24,0,1,,,,,,,,,
297301,2022-11-15_18h54.10.664,vts_reward_expectancy_bt,2022.2.4,MacIntel,60.0024001,Chrome,1440,900,,,,,10,1085,,,,,,,,,,,,,,,,,S,132,circle,1,0,,,,,,,,,,,,,,,,repeat,number,numRpt,j,2.0963,Lo,,,,,,4,,,,,,,,high,25,0,25,0,1,,,,,,,,,
297301,2022-11-15_18h54.10.664,vts_reward_expectancy_bt,2022.2.4,MacIntel,60.0024001,Chrome,1440,900,,,,,0,1085,,,,,,,,,,,,,,,,,W,181,star,1,0,,,,,,,,,,,,,,,,switch,letter,lettSwt,f,0.8426,Hi,,,,,,4,,,,,,,,high,26,0,26,0,1,,,,,,,,,
297301,2022-11-15_18h54.10.664,vts_reward_expectancy_bt,2022.2.4,MacIntel,60.0024001,Chrome,1440,900,,,,,0,1085,,,,,,,,,,,,,,,,,U,167,triangle,0,0,,,,,,,,,,,,,,,,repeat,letter,NA,d,0.5442,Hi,,,,,,4,,,,,,,,high,27,0,27,0,1,,,,,,,,,
297301,2022-11-15_18h54.10.664,vts_reward_expectancy_bt,2022.2.4,MacIntel,60.0024001,Chrome,1440,900,,,,,1,1086,,,,,,,,,,,,,,,,,D,125,hexagon,1,1,,,,,,,,,,,,,,,,repeat,letter,lettRpt,d,0.9215,Lo,,,,,,4,,,,,,,,high,28,0,28,0,1,,,,,,,,,
297301,2022-11-15_18h54.10.664,vts_reward_expectancy_bt,2022.2.4,MacIntel,60.0024001,Chrome,1440,900,,,,,0,1086,,,,,,,,,,,,,,,,,B,174,triangle,1,0,,,,,,,,,,,,,,,,switch,number,numSwt,k,1.0335,Hi,,,,,,4,,,,,,,,high,29,0,29,0,1,,,,,,,,,
297301,2022-11-15_18h54.10.664,vts_reward_expectancy_bt,2022.2.4,MacIntel,60.0024001,Chrome,1440,900,,,,,10,1096,,,,,,,,,,,,,,,,,Y,139,star,1,0,,,,,,,,,,,,,,,,switch,letter,lettSwt,f,0.5172,Hi,,,,,,4,,,,,,,,high,30,0,30,0,1,,,,,,,,,
297301,2022-11-15_18h54.10.664,vts_reward_expectancy_bt,2022.2.4,MacIntel,60.0024001,Chrome,1440,900,,,,,1,1097,,,,,,,,,,,,,,,,,H,146,circle,1,0,,,,,,,,,,,,,,,,switch,number,numSwt,j,0.5706,Lo,,,,,,4,,,,,,,,high,31,0,31,0,1,,,,,,,,,
297301,2022-11-15_18h54.10.664,vts_reward_expectancy_bt,2022.2.4,MacIntel,60.0024001,Chrome,1440,900,,,,,0,1097,,,,,,,,,,,,,,,,,W,167,triangle,1,0,,,,,,,,,,,,,,,,repeat,number,numRpt,k,0.664,Hi,,,,,,5,,,,,,space,2.8802,high,0,0,0,0,1,,,,,,,,,
297301,2022-11-15_18h54.10.664,vts_reward_expectancy_bt,2022.2.4,MacIntel,60.0024001,Chrome,1440,900,,,,,1,1098,,,,,,,,,,,,,,,,,Y,125,hexagon,1,0,,,,,,,,,,,,,,,,switch,letter,lettSwt,f,0.5433,Lo,,,,,,5,,,,,,,,high,1,0,1,0,1,,,,,,,,,
297301,2022-11-15_18h54.10.664,vts_reward_expectancy_bt,2022.2.4,MacIntel,60.0024001,Chrome,1440,900,,,,,10,1108,,,,,,,,,,,,,,,,,B,174,star,1,0,,,,,,,,,,,,,,,,switch,number,numSwt,k,0.6837,Hi,,,,,,5,,,,,,,,high,2,0,2,0,1,,,,,,,,,
297301,2022-11-15_18h54.10.664,vts_reward_expectancy_bt,2022.2.4,MacIntel,60.0024001,Chrome,1440,900,,,,,1,1109,,,,,,,,,,,,,,,,,D,160,circle,1,0,,,,,,,,,,,,,,,,switch,letter,lettSwt,d,0.8271,Lo,,,,,,5,,,,,,,,high,3,0,3,0,1,,,,,,,,,
297301,2022-11-15_18h54.10.664,vts_reward_expectancy_bt,2022.2.4,MacIntel,60.0024001,Chrome,1440,900,,,,,1,1110,,,,,,,,,,,,,,,,,U,181,triangle,1,0,,,,,,,,,,,,,,,,switch,number,numSwt,k,0.7145,Hi,,,,,,5,,,,,,,,high,4,0,4,0,1,,,,,,,,,
297301,2022-11-15_18h54.10.664,vts_reward_expectancy_bt,2022.2.4,MacIntel,60.0024001,Chrome,1440,900,,,,,1,1111,,,,,,,,,,,,,,,,,H,146,hexagon,1,0,,,,,,,,,,,,,,,,repeat,number,numRpt,j,0.8934,Lo,,,,,,5,,,,,,,,high,5,0,5,0,1,,,,,,,,,
297301,2022-11-15_18h54.10.664,vts_reward_expectancy_bt,2022.2.4,MacIntel,60.0024001,Chrome,1440,900,,,,,0,1111,,,,,,,,,,,,,,,,,S,139,star,0,0,,,,,,,,,,,,,,,,switch,letter,NA,d,1.3466,Lo,,,,,,5,,,,,,,,high,6,0,6,0,1,,,,,,,,,
297301,2022-11-15_18h54.10.664,vts_reward_expectancy_bt,2022.2.4,MacIntel,60.0024001,Chrome,1440,900,,,,,1,1112,,,,,,,,,,,,,,,,,F,132,circle,1,1,,,,,,,,,,,,,,,,repeat,letter,lettRpt,d,1.0437,Lo,,,,,,5,,,,,,,,high,7,0,7,0,1,,,,,,,,,
297301,2022-11-15_18h54.10.664,vts_reward_expectancy_bt,2022.2.4,MacIntel,60.0024001,Chrome,1440,900,,,,,1,1113,,,,,,,,,,,,,,,,,W,167,hexagon,1,0,,,,,,,,,,,,,,,,repeat,letter,lettRpt,f,0.8305,Lo,,,,,,5,,,,,,,,high,8,0,8,0,1,,,,,,,,,
297301,2022-11-15_18h54.10.664,vts_reward_expectancy_bt,2022.2.4,MacIntel,60.0024001,Chrome,1440,900,,,,,0,1113,,,,,,,,,,,,,,,,,Y,125,triangle,1,0,,,,,,,,,,,,,,,,switch,number,numSwt,j,1.2514,Hi,,,,,,5,,,,,,,,high,9,0,9,0,1,,,,,,,,,
297301,2022-11-15_18h54.10.664,vts_reward_expectancy_bt,2022.2.4,MacIntel,60.0024001,Chrome,1440,900,,,,,0,1113,,,,,,,,,,,,,,,,,B,174,star,1,0,,,,,,,,,,,,,,,,switch,letter,lettSwt,d,0.7364,Hi,,,,,,5,,,,,,,,high,10,0,10,0,1,,,,,,,,,
297301,2022-11-15_18h54.10.664,vts_reward_expectancy_bt,2022.2.4,MacIntel,60.0024001,Chrome,1440,900,,,,,1,1114,,,,,,,,,,,,,,,,,D,160,circle,1,0,,,,,,,,,,,,,,,,repeat,letter,lettRpt,d,0.6949,Lo,,,,,,5,,,,,,,,high,11,0,11,0,1,,,,,,,,,
297301,2022-11-15_18h54.10.664,vts_reward_expectancy_bt,2022.2.4,MacIntel,60.0024001,Chrome,1440,900,,,,,1,1115,,,,,,,,,,,,,,,,,U,181,circle,1,0,,,,,,,,,,,,,,,,repeat,letter,lettRpt,f,0.9156,Lo,,,,,,5,,,,,,,,high,12,0,12,0,1,,,,,,,,,
297301,2022-11-15_18h54.10.664,vts_reward_expectancy_bt,2022.2.4,MacIntel,60.0024001,Chrome,1440,900,,,,,0,1115,,,,,,,,,,,,,,,,,H,146,triangle,1,0,,,,,,,,,,,,,,,,switch,number,numSwt,j,0.7636,Hi,,,,,,5,,,,,,,,high,13,0,13,0,1,,,,,,,,,
297301,2022-11-15_18h54.10.664,vts_reward_expectancy_bt,2022.2.4,MacIntel,60.0024001,Chrome,1440,900,,,,,1,1116,,,,,,,,,,,,,,,,,S,139,hexagon,1,0,,,,,,,,,,,,,,,,switch,letter,lettSwt,f,0.5333,Lo,,,,,,5,,,,,,,,high,14,0,14,0,1,,,,,,,,,
297301,2022-11-15_18h54.10.664,vts_reward_expectancy_bt,2022.2.4,MacIntel,60.0024001,Chrome,1440,900,,,,,10,1126,,,,,,,,,,,,,,,,,F,132,star,1,0,,,,,,,,,,,,,,,,switch,number,numSwt,j,0.7001,Hi,,,,,,5,,,,,,,,high,15,0,15,0,1,,,,,,,,,
297301,2022-11-15_18h54.10.664,vts_reward_expectancy_bt,2022.2.4,MacIntel,60.0024001,Chrome,1440,900,,,,,10,1136,,,,,,,,,,,,,,,,,S,125,hexagon,1,0,,,,,,,,,,,,,,,,repeat,number,numRpt,j,2.2457,Lo,,,,,,5,,,,,,,,high,16,0,16,0,1,,,,,,,,,
297301,2022-11-15_18h54.10.664,vts_reward_expectancy_bt,2022.2.4,MacIntel,60.0024001,Chrome,1440,900,,,,,1,1137,,,,,,,,,,,,,,,,,Y,181,circle,1,0,,,,,,,,,,,,,,,,switch,letter,lettSwt,f,0.9305,Lo,,,,,,5,,,,,,,,high,17,0,17,0,1,,,,,,,,,
297301,2022-11-15_18h54.10.664,vts_reward_expectancy_bt,2022.2.4,MacIntel,60.0024001,Chrome,1440,900,,,,,0,1137,,,,,,,,,,,,,,,,,F,139,star,1,0,,,,,,,,,,,,,,,,switch,number,numSwt,j,1.7127,Hi,,,,,,5,,,,,,,,high,18,0,18,0,1,,,,,,,,,
297301,2022-11-15_18h54.10.664,vts_reward_expectancy_bt,2022.2.4,MacIntel,60.0024001,Chrome,1440,900,,,,,0,1137,,,,,,,,,,,,,,,,,B,160,triangle,1,0,,,,,,,,,,,,,,,,repeat,number,numRpt,k,1.0641,Hi,,,,,,5,,,,,,,,high,19,0,19,0,1,,,,,,,,,
297301,2022-11-15_18h54.10.664,vts_reward_expectancy_bt,2022.2.4,MacIntel,60.0024001,Chrome,1440,900,,,,,0,1137,,,,,,,,,,,,,,,,,W,167,hexagon,0,0,,,,,,,,,,,,,,,,repeat,number,NA,j,0.6305,Hi,,,,,,5,,,,,,,,high,20,0,20,0,1,,,,,,,,,
297301,2022-11-15_18h54.10.664,vts_reward_expectancy_bt,2022.2.4,MacIntel,60.0024001,Chrome,1440,900,,,,,1,1138,,,,,,,,,,,,,,,,,D,146,circle,1,1,,,,,,,,,,,,,,,,repeat,number,numRpt,j,0.5961,Lo,,,,,,5,,,,,,,,high,21,0,21,0,1,,,,,,,,,
297301,2022-11-15_18h54.10.664,vts_reward_expectancy_bt,2022.2.4,MacIntel,60.0024001,Chrome,1440,900,,,,,0,1138,,,,,,,,,,,,,,,,,U,174,triangle,1,0,,,,,,,,,,,,,,,,switch,letter,lettSwt,f,0.856,Hi,,,,,,5,,,,,,,,high,22,0,22,0,1,,,,,,,,,
297301,2022-11-15_18h54.10.664,vts_reward_expectancy_bt,2022.2.4,MacIntel,60.0024001,Chrome,1440,900,,,,,0,1138,,,,,,,,,,,,,,,,,H,132,star,1,0,,,,,,,,,,,,,,,,repeat,letter,lettRpt,d,0.9295,Hi,,,,,,5,,,,,,,,high,23,0,23,0,1,,,,,,,,,
297301,2022-11-15_18h54.10.664,vts_reward_expectancy_bt,2022.2.4,MacIntel,60.0024001,Chrome,1440,900,,,,,1,1139,,,,,,,,,,,,,,,,,D,132,hexagon,1,0,,,,,,,,,,,,,,,,repeat,letter,lettRpt,d,0.8334,Lo,,,,,,5,,,,,,,,high,24,0,24,0,1,,,,,,,,,
297301,2022-11-15_18h54.10.664,vts_reward_expectancy_bt,2022.2.4,MacIntel,60.0024001,Chrome,1440,900,,,,,10,1149,,,,,,,,,,,,,,,,,W,174,circle,1,0,,,,,,,,,,,,,,,,repeat,letter,lettRpt,f,0.7631,Lo,,,,,,5,,,,,,,,high,25,0,25,0,1,,,,,,,,,
297301,2022-11-15_18h54.10.664,vts_reward_expectancy_bt,2022.2.4,MacIntel,60.0024001,Chrome,1440,900,,,,,0,1149,,,,,,,,,,,,,,,,,H,160,star,1,0,,,,,,,,,,,,,,,,repeat,letter,lettRpt,d,1.3303,Hi,,,,,,5,,,,,,,,high,26,0,26,0,1,,,,,,,,,
297301,2022-11-15_18h54.10.664,vts_reward_expectancy_bt,2022.2.4,MacIntel,60.0024001,Chrome,1440,900,,,,,0,1149,,,,,,,,,,,,,,,,,F,146,triangle,1,0,,,,,,,,,,,,,,,,repeat,letter,lettRpt,d,0.7314,Hi,,,,,,5,,,,,,,,high,27,0,27,0,1,,,,,,,,,
297301,2022-11-15_18h54.10.664,vts_reward_expectancy_bt,2022.2.4,MacIntel,60.0024001,Chrome,1440,900,,,,,1,1150,,,,,,,,,,,,,,,,,S,167,circle,1,0,,,,,,,,,,,,,,,,repeat,letter,lettRpt,f,1.0476,Lo,,,,,,5,,,,,,,,high,28,0,28,0,1,,,,,,,,,
297301,2022-11-15_18h54.10.664,vts_reward_expectancy_bt,2022.2.4,MacIntel,60.0024001,Chrome,1440,900,,,,,0,1150,,,,,,,,,,,,,,,,,B,125,triangle,1,0,,,,,,,,,,,,,,,,repeat,letter,lettRpt,d,1.8138,Hi,,,,,,5,,,,,,,,high,29,0,29,0,1,,,,,,,,,
297301,2022-11-15_18h54.10.664,vts_reward_expectancy_bt,2022.2.4,MacIntel,60.0024001,Chrome,1440,900,,,,,10,1160,,,,,,,,,,,,,,,,,Y,181,hexagon,1,0,,,,,,,,,,,,,,,,repeat,letter,lettRpt,f,0.687,Lo,,,,,,5,,,,,,,,high,30,0,30,0,1,,,,,,,,,
297301,2022-11-15_18h54.10.664,vts_reward_expectancy_bt,2022.2.4,MacIntel,60.0024001,Chrome,1440,900,,,,,0,1160,,,,,,,,,,,,,,,,,U,139,star,0,0,,,,,,,,,,,,,,,,repeat,letter,NA,d,1.2382,Lo,,,,,,5,,,,,,,,high,31,0,31,0,1,,,,,,,,,
297301,2022-11-15_18h54.10.664,vts_reward_expectancy_bt,2022.2.4,MacIntel,60.0024001,Chrome,1440,900,,,,,1,1161,,,,,,,,,,,,,,,,,F,125,circle,1,1,,,,,,,,,,,,,,,,repeat,letter,lettRpt,d,0.8457,Lo,,,,,,6,,,,,,space,5.2059,high,0,0,0,0,1,,,,,,,,,
297301,2022-11-15_18h54.10.664,vts_reward_expectancy_bt,2022.2.4,MacIntel,60.0024001,Chrome,1440,900,,,,,10,1171,,,,,,,,,,,,,,,,,B,146,hexagon,1,0,,,,,,,,,,,,,,,,switch,number,numSwt,j,0.5678,Lo,,,,,,6,,,,,,,,high,1,0,1,0,1,,,,,,,,,
297301,2022-11-15_18h54.10.664,vts_reward_expectancy_bt,2022.2.4,MacIntel,60.0024001,Chrome,1440,900,,,,,0,1171,,,,,,,,,,,,,,,,,U,139,star,0,0,,,,,,,,,,,,,,,,switch,letter,NA,d,0.647,Lo,,,,,,6,,,,,,,,high,2,0,2,0,1,,,,,,,,,
297301,2022-11-15_18h54.10.664,vts_reward_expectancy_bt,2022.2.4,MacIntel,60.0024001,Chrome,1440,900,,,,,10,1181,,,,,,,,,,,,,,,,,Y,132,triangle,1,1,,,,,,,,,,,,,,,,switch,number,numSwt,j,0.5976,Hi,,,,,,6,,,,,,,,high,3,0,3,0,1,,,,,,,,,
297301,2022-11-15_18h54.10.664,vts_reward_expectancy_bt,2022.2.4,MacIntel,60.0024001,Chrome,1440,900,,,,,1,1182,,,,,,,,,,,,,,,,,W,160,circle,1,0,,,,,,,,,,,,,,,,switch,letter,lettSwt,f,0.5309,Lo,,,,,,6,,,,,,,,high,4,0,4,0,1,,,,,,,,,
297301,2022-11-15_18h54.10.664,vts_reward_expectancy_bt,2022.2.4,MacIntel,60.0024001,Chrome,1440,900,,,,,10,1192,,,,,,,,,,,,,,,,,S,181,hexagon,1,0,,,,,,,,,,,,,,,,switch,number,numSwt,k,0.5823,Lo,,,,,,6,,,,,,,,high,5,0,5,0,1,,,,,,,,,
297301,2022-11-15_18h54.10.664,vts_reward_expectancy_bt,2022.2.4,MacIntel,60.0024001,Chrome,1440,900,,,,,10,1202,,,,,,,,,,,,,,,,,H,167,star,1,0,,,,,,,,,,,,,,,,switch,letter,lettSwt,d,0.6486,Hi,,,,,,6,,,,,,,,high,6,0,6,0,1,,,,,,,,,
297301,2022-11-15_18h54.10.664,vts_reward_expectancy_bt,2022.2.4,MacIntel,60.0024001,Chrome,1440,900,,,,,10,1212,,,,,,,,,,,,,,,,,D,174,triangle,1,0,,,,,,,,,,,,,,,,repeat,letter,lettRpt,d,0.5962,Hi,,,,,,6,,,,,,,,high,7,0,7,0,1,,,,,,,,,
297301,2022-11-15_18h54.10.664,vts_reward_expectancy_bt,2022.2.4,MacIntel,60.0024001,Chrome,1440,900,,,,,1,1213,,,,,,,,,,,,,,,,,F,125,star,1,0,,,,,,,,,,,,,,,,repeat,letter,lettRpt,d,0.7638,Hi,,,,,,6,,,,,,,,high,8,0,8,0,1,,,,,,,,,
297301,2022-11-15_18h54.10.664,vts_reward_expectancy_bt,2022.2.4,MacIntel,60.0024001,Chrome,1440,900,,,,,10,1223,,,,,,,,,,,,,,,,,B,146,triangle,1,0,,,,,,,,,,,,,,,,repeat,letter,lettRpt,d,0.6976,Hi,,,,,,6,,,,,,,,high,9,0,9,0,1,,,,,,,,,
297301,2022-11-15_18h54.10.664,vts_reward_expectancy_bt,2022.2.4,MacIntel,60.0024001,Chrome,1440,900,,,,,0,1223,,,,,,,,,,,,,,,,,U,139,circle,0,0,,,,,,,,,,,,,,,,switch,number,NA,k,0.8176,Hi,,,,,,6,,,,,,,,high,10,0,10,0,1,,,,,,,,,
297301,2022-11-15_18h54.10.664,vts_reward_expectancy_bt,2022.2.4,MacIntel,60.0024001,Chrome,1440,900,,,,,0,1223,,,,,,,,,,,,,,,,,Y,132,hexagon,-1,1,,,,,,,,,,,,,,,,switch,no_choice,NA,,,Hi,,,,,,6,,,,,,,,high,11,0,11,0,1,,,,,,,,,
