participant,date,expName,psychopyVersion,OS,frameRate,browser,xResolution,yResolution,key_resp.keys,key_resp.rt,training_resp.keys,training_resp.rt,points_trial,points_cumul,trainBlock,training.thisRepN,training.thisTrialN,training.thisN,training.thisIndex,training.ran,LTriangleOpac,LCircleOpac,LHexagonOpac,LStarOpac,RTriangleOpac,RCircleOpac,RHexagonOpac,RStarOpac,LShape_ID,RShape_ID,curr_topStim,curr_bottStim,curr_shape,acc,E1,target_resp_prac1.keys,target_resp_prac1.rt,pracBlock,task1_prac_trials.thisRepN,task1_prac_trials.thisTrialN,task1_prac_trials.thisN,task1_prac_trials.thisIndex,task1_prac_trials.ran,target_resp_prac2.keys,task2_praac_trials.thisRepN,task2_praac_trials.thisTrialN,task2_praac_trials.thisN,task2_praac_trials.thisIndex,task2_praac_trials.ran,target_resp_prac2.rt,alt,task,condition,target_resp.keys,target_resp.rt,rewCond,vts_practice_trials.thisRepN,vts_practice_trials.thisTrialN,vts_practice_trials.thisN,vts_practice_trials.thisIndex,vts_practice_trials.ran,blockNum,trials_norew.thisRepN,trials_norew.thisTrialN,trials_norew.thisN,trials_norew.thisIndex,trials_norew.ran,key_resp_2.keys,key_resp_2.rt,rewExpectancy,trials_rew.thisRepN,trials_rew.thisTrialN,trials_rew.thisN,trials_rew.thisIndex,trials_rew.ran,Q1,Q2,Q2_text,Q3,Q4,Q5,Q5_text,xRes,yRes
297490,2022-12-05_23h30.52.934,vts_reward_expectancy_bt,2022.2.4,MacIntel,20.00080003,Chrome,1440,900,,,,,,,,,,,,,,,,,,,,,,,,,,,,,,,,,,,,,,,,,,,,,,,,,,,,,,,,,,,,,,,,,,,,,,,,,,,,
297490,2022-12-05_23h30.52.934,vts_reward_expectancy_bt,2022.2.4,MacIntel,20.00080003,Chrome,1440,900,space,6.652,,,,,,,,,,,,,,,,,,,,,,,,,,,,,,,,,,,,,,,,,,,,,,,,,,,,,,,,,,,,,,,,,,,,,,,,,,
297490,2022-12-05_23h30.52.934,vts_reward_expectancy_bt,2022.2.4,MacIntel,20.00080003,Chrome,1440,900,,,,,,,,,,,,,,,,,,,,,,,,,,,,,,,,,,,,,,,,,,,,,,,,,,,,,,,,,,,,,,,,,,,,,,,,,,,,
297490,2022-12-05_23h30.52.934,vts_reward_expectancy_bt,2022.2.4,MacIntel,20.00080003,Chrome,1440,900,,,l,14.0153,10,10,0,0,0,0,8,1,0,0,1,0,0,0,0,1,hexagon,star,,,,,,,,,,,,,,,,,,,,,,,,,,,,,,,,,,,,,,,,,,,,,,,,,,,,,,
297490,2022-12-05_23h30.52.934,vts_reward_expectancy_bt,2022.2.4,MacIntel,20.00080003,Chrome,1440,900,,,l,0.7819,1,11,0,0,1,1,11,1,0,0,0,1,0,0,1,0,star,hexagon,,,,,,,,,,,,,,,,,,,,,,,,,,,,,,,,,,,,,,,,,,,,,,,,,,,,,,
297490,2022-12-05_23h30.52.934,vts_reward_expectancy_bt,2022.2.4,MacIntel,20.00080003,Chrome,1440,900,,,l,1.2004,1,12,0,0,2,2,3,1,0,1,0,0,1,0,0,0,circle,triangle,,,,,,,,,,,,,,,,,,,,,,,,,,,,,,,,,,,,,,,,,,,,,,,,,,,,,,
297490,2022-12-05_23h30.52.934,vts_reward_expectancy_bt,2022.2.4,MacIntel,20.00080003,Chrome,1440,900,,,l,0.4341,10,22,0,0,3,3,9,1,0,0,0,1,1,0,0,0,star,triangle,,,,,,,,,,,,,,,,,,,,,,,,,,,,,,,,,,,,,,,,,,,,,,,,,,,,,,
297490,2022-12-05_23h30.52.934,vts_reward_expectancy_bt,2022.2.4,MacIntel,20.00080003,Chrome,1440,900,,,l,0.6115,10,32,0,0,4,4,6,1,0,0,1,0,1,0,0,0,hexagon,triangle,,,,,,,,,,,,,,,,,,,,,,,,,,,,,,,,,,,,,,,,,,,,,,,,,,,,,,
297490,2022-12-05_23h30.52.934,vts_reward_expectancy_bt,2022.2.4,MacIntel,20.00080003,Chrome,1440,900,,,l,0.4014,1,33,0,0,5,5,0,1,1,0,0,0,0,1,0,0,triangle,circle,,,,,,,,,,,,,,,,,,,,,,,,,,,,,,,,,,,,,,,,,,,,,,,,,,,,,,
297490,2022-12-05_23h30.52.934,vts_reward_expectancy_bt,2022.2.4,MacIntel,20.00080003,Chrome,1440,900,,,l,0.1821,1,34,0,0,6,6,7,1,0,0,1,0,0,1,0,0,hexagon,circle,,,,,,,,,,,,,,,,,,,,,,,,,,,,,,,,,,,,,,,,,,,,,,,,,,,,,,
297490,2022-12-05_23h30.52.934,vts_reward_expectancy_bt,2022.2.4,MacIntel,20.00080003,Chrome,1440,900,,,l,0.4671,1,35,0,0,7,7,1,1,1,0,0,0,0,0,1,0,triangle,hexagon,,,,,,,,,,,,,,,,,,,,,,,,,,,,,,,,,,,,,,,,,,,,,,,,,,,,,,
297490,2022-12-05_23h30.52.934,vts_reward_expectancy_bt,2022.2.4,MacIntel,20.00080003,Chrome,1440,900,,,l,0.1375,10,45,0,0,8,8,10,1,0,0,0,1,0,1,0,0,star ,circle,,,,,,,,,,,,,,,,,,,,,,,,,,,,,,,,,,,,,,,,,,,,,,,,,,,,,,
297490,2022-12-05_23h30.52.934,vts_reward_expectancy_bt,2022.2.4,MacIntel,20.00080003,Chrome,1440,900,,,l,0.0671,10,55,0,0,9,9,2,1,1,0,0,0,0,0,0,1,triangle,star,,,,,,,,,,,,,,,,,,,,,,,,,,,,,,,,,,,,,,,,,,,,,,,,,,,,,,
297490,2022-12-05_23h30.52.934,vts_reward_expectancy_bt,2022.2.4,MacIntel,20.00080003,Chrome,1440,900,,,l,0.3002,1,56,0,0,10,10,5,1,0,1,0,0,0,0,0,1,circle,star,,,,,,,,,,,,,,,,,,,,,,,,,,,,,,,,,,,,,,,,,,,,,,,,,,,,,,
297490,2022-12-05_23h30.52.934,vts_reward_expectancy_bt,2022.2.4,MacIntel,20.00080003,Chrome,1440,900,,,l,0.3135,1,57,0,0,11,11,4,1,0,1,0,0,0,0,1,0,circle,hexagon,,,,,,,,,,,,,,,,,,,,,,,,,,,,,,,,,,,,,,,,,,,,,,,,,,,,,,
297490,2022-12-05_23h30.52.934,vts_reward_expectancy_bt,2022.2.4,MacIntel,20.00080003,Chrome,1440,900,,,l,0.3152,10,67,0,1,0,12,4,1,0,1,0,0,0,0,1,0,circle,hexagon,,,,,,,,,,,,,,,,,,,,,,,,,,,,,,,,,,,,,,,,,,,,,,,,,,,,,,
297490,2022-12-05_23h30.52.934,vts_reward_expectancy_bt,2022.2.4,MacIntel,20.00080003,Chrome,1440,900,,,l,0.2574,1,68,0,1,1,13,10,1,0,0,0,1,0,1,0,0,star ,circle,,,,,,,,,,,,,,,,,,,,,,,,,,,,,,,,,,,,,,,,,,,,,,,,,,,,,,
297490,2022-12-05_23h30.52.934,vts_reward_expectancy_bt,2022.2.4,MacIntel,20.00080003,Chrome,1440,900,,,l,0.3617,10,78,0,1,2,14,6,1,0,0,1,0,1,0,0,0,hexagon,triangle,,,,,,,,,,,,,,,,,,,,,,,,,,,,,,,,,,,,,,,,,,,,,,,,,,,,,,
297490,2022-12-05_23h30.52.934,vts_reward_expectancy_bt,2022.2.4,MacIntel,20.00080003,Chrome,1440,900,,,l,0.5841,1,79,0,1,3,15,8,1,0,0,1,0,0,0,0,1,hexagon,star,,,,,,,,,,,,,,,,,,,,,,,,,,,,,,,,,,,,,,,,,,,,,,,,,,,,,,
297490,2022-12-05_23h30.52.934,vts_reward_expectancy_bt,2022.2.4,MacIntel,20.00080003,Chrome,1440,900,,,l,0.3466,10,89,0,1,4,16,5,1,0,1,0,0,0,0,0,1,circle,star,,,,,,,,,,,,,,,,,,,,,,,,,,,,,,,,,,,,,,,,,,,,,,,,,,,,,,
297490,2022-12-05_23h30.52.934,vts_reward_expectancy_bt,2022.2.4,MacIntel,20.00080003,Chrome,1440,900,,,l,0.3975,1,90,0,1,5,17,9,1,0,0,0,1,1,0,0,0,star,triangle,,,,,,,,,,,,,,,,,,,,,,,,,,,,,,,,,,,,,,,,,,,,,,,,,,,,,,
297490,2022-12-05_23h30.52.934,vts_reward_expectancy_bt,2022.2.4,MacIntel,20.00080003,Chrome,1440,900,,,l,0.3852,10,100,0,1,6,18,3,1,0,1,0,0,1,0,0,0,circle,triangle,,,,,,,,,,,,,,,,,,,,,,,,,,,,,,,,,,,,,,,,,,,,,,,,,,,,,,
297490,2022-12-05_23h30.52.934,vts_reward_expectancy_bt,2022.2.4,MacIntel,20.00080003,Chrome,1440,900,,,l,0.6933,10,110,0,1,7,19,7,1,0,0,1,0,0,1,0,0,hexagon,circle,,,,,,,,,,,,,,,,,,,,,,,,,,,,,,,,,,,,,,,,,,,,,,,,,,,,,,
297490,2022-12-05_23h30.52.934,vts_reward_expectancy_bt,2022.2.4,MacIntel,20.00080003,Chrome,1440,900,,,l,0.2958,1,111,0,1,8,20,0,1,1,0,0,0,0,1,0,0,triangle,circle,,,,,,,,,,,,,,,,,,,,,,,,,,,,,,,,,,,,,,,,,,,,,,,,,,,,,,
297490,2022-12-05_23h30.52.934,vts_reward_expectancy_bt,2022.2.4,MacIntel,20.00080003,Chrome,1440,900,,,l,2.3002,1,112,0,1,9,21,1,1,1,0,0,0,0,0,1,0,triangle,hexagon,,,,,,,,,,,,,,,,,,,,,,,,,,,,,,,,,,,,,,,,,,,,,,,,,,,,,,
297490,2022-12-05_23h30.52.934,vts_reward_expectancy_bt,2022.2.4,MacIntel,20.00080003,Chrome,1440,900,,,l,1.0519,1,113,0,1,10,22,11,1,0,0,0,1,0,0,1,0,star,hexagon,,,,,,,,,,,,,,,,,,,,,,,,,,,,,,,,,,,,,,,,,,,,,,,,,,,,,,
297490,2022-12-05_23h30.52.934,vts_reward_expectancy_bt,2022.2.4,MacIntel,20.00080003,Chrome,1440,900,,,l,1.298,10,123,0,1,11,23,2,1,1,0,0,0,0,0,0,1,triangle,star,,,,,,,,,,,,,,,,,,,,,,,,,,,,,,,,,,,,,,,,,,,,,,,,,,,,,,
297490,2022-12-05_23h30.52.934,vts_reward_expectancy_bt,2022.2.4,MacIntel,20.00080003,Chrome,1440,900,,,l,3.9149,1,124,0,2,0,24,9,1,0,0,0,1,1,0,0,0,star,triangle,,,,,,,,,,,,,,,,,,,,,,,,,,,,,,,,,,,,,,,,,,,,,,,,,,,,,,
297490,2022-12-05_23h30.52.934,vts_reward_expectancy_bt,2022.2.4,MacIntel,20.00080003,Chrome,1440,900,,,l,1.8698,1,125,0,2,1,25,5,1,0,1,0,0,0,0,0,1,circle,star,,,,,,,,,,,,,,,,,,,,,,,,,,,,,,,,,,,,,,,,,,,,,,,,,,,,,,
297490,2022-12-05_23h30.52.934,vts_reward_expectancy_bt,2022.2.4,MacIntel,20.00080003,Chrome,1440,900,,,l,1.198,1,126,0,2,2,26,8,1,0,0,1,0,0,0,0,1,hexagon,star,,,,,,,,,,,,,,,,,,,,,,,,,,,,,,,,,,,,,,,,,,,,,,,,,,,,,,
297490,2022-12-05_23h30.52.934,vts_reward_expectancy_bt,2022.2.4,MacIntel,20.00080003,Chrome,1440,900,,,l,0.954,10,136,0,2,3,27,3,1,0,1,0,0,1,0,0,0,circle,triangle,,,,,,,,,,,,,,,,,,,,,,,,,,,,,,,,,,,,,,,,,,,,,,,,,,,,,,
297490,2022-12-05_23h30.52.934,vts_reward_expectancy_bt,2022.2.4,MacIntel,20.00080003,Chrome,1440,900,,,l,1.0502,10,146,0,2,4,28,0,1,1,0,0,0,0,1,0,0,triangle,circle,,,,,,,,,,,,,,,,,,,,,,,,,,,,,,,,,,,,,,,,,,,,,,,,,,,,,,
297490,2022-12-05_23h30.52.934,vts_reward_expectancy_bt,2022.2.4,MacIntel,20.00080003,Chrome,1440,900,,,l,0.7704,1,147,0,2,5,29,11,1,0,0,0,1,0,0,1,0,star,hexagon,,,,,,,,,,,,,,,,,,,,,,,,,,,,,,,,,,,,,,,,,,,,,,,,,,,,,,
297490,2022-12-05_23h30.52.934,vts_reward_expectancy_bt,2022.2.4,MacIntel,20.00080003,Chrome,1440,900,,,l,1.8125,10,157,0,2,6,30,7,1,0,0,1,0,0,1,0,0,hexagon,circle,,,,,,,,,,,,,,,,,,,,,,,,,,,,,,,,,,,,,,,,,,,,,,,,,,,,,,
297490,2022-12-05_23h30.52.934,vts_reward_expectancy_bt,2022.2.4,MacIntel,20.00080003,Chrome,1440,900,,,l,4.7917,10,167,0,2,7,31,2,1,1,0,0,0,0,0,0,1,triangle,star,,,,,,,,,,,,,,,,,,,,,,,,,,,,,,,,,,,,,,,,,,,,,,,,,,,,,,
297490,2022-12-05_23h30.52.934,vts_reward_expectancy_bt,2022.2.4,MacIntel,20.00080003,Chrome,1440,900,,,l,2.6004,1,168,0,2,8,32,10,1,0,0,0,1,0,1,0,0,star ,circle,,,,,,,,,,,,,,,,,,,,,,,,,,,,,,,,,,,,,,,,,,,,,,,,,,,,,,
297490,2022-12-05_23h30.52.934,vts_reward_expectancy_bt,2022.2.4,MacIntel,20.00080003,Chrome,1440,900,,,l,1.5509,1,169,0,2,9,33,1,1,1,0,0,0,0,0,1,0,triangle,hexagon,,,,,,,,,,,,,,,,,,,,,,,,,,,,,,,,,,,,,,,,,,,,,,,,,,,,,,
297490,2022-12-05_23h30.52.934,vts_reward_expectancy_bt,2022.2.4,MacIntel,20.00080003,Chrome,1440,900,,,l,3.5733,10,179,0,2,10,34,6,1,0,0,1,0,1,0,0,0,hexagon,triangle,,,,,,,,,,,,,,,,,,,,,,,,,,,,,,,,,,,,,,,,,,,,,,,,,,,,,,
297490,2022-12-05_23h30.52.934,vts_reward_expectancy_bt,2022.2.4,MacIntel,20.00080003,Chrome,1440,900,,,l,1.3198,1,180,0,2,11,35,4,1,0,1,0,0,0,0,1,0,circle,hexagon,,,,,,,,,,,,,,,,,,,,,,,,,,,,,,,,,,,,,,,,,,,,,,,,,,,,,,
297490,2022-12-05_23h30.52.934,vts_reward_expectancy_bt,2022.2.4,MacIntel,20.00080003,Chrome,1440,900,,,a,1.6853,10,190,1,0,0,0,11,1,0,0,0,1,0,0,1,0,star,hexagon,,,,,,,,,,,,,,,,,,,,,,,,,,,,,,,,,,,,,,,,,,,,,,,,,,,,,,
297490,2022-12-05_23h30.52.934,vts_reward_expectancy_bt,2022.2.4,MacIntel,20.00080003,Chrome,1440,900,,,l,1.4985,1,191,1,0,1,1,10,1,0,0,0,1,0,1,0,0,star ,circle,,,,,,,,,,,,,,,,,,,,,,,,,,,,,,,,,,,,,,,,,,,,,,,,,,,,,,
297490,2022-12-05_23h30.52.934,vts_reward_expectancy_bt,2022.2.4,MacIntel,20.00080003,Chrome,1440,900,,,a,1.1369,10,201,1,0,2,2,1,1,1,0,0,0,0,0,1,0,triangle,hexagon,,,,,,,,,,,,,,,,,,,,,,,,,,,,,,,,,,,,,,,,,,,,,,,,,,,,,,
297490,2022-12-05_23h30.52.934,vts_reward_expectancy_bt,2022.2.4,MacIntel,20.00080003,Chrome,1440,900,,,l,0.913,10,211,1,0,3,3,6,1,0,0,1,0,1,0,0,0,hexagon,triangle,,,,,,,,,,,,,,,,,,,,,,,,,,,,,,,,,,,,,,,,,,,,,,,,,,,,,,
297490,2022-12-05_23h30.52.934,vts_reward_expectancy_bt,2022.2.4,MacIntel,20.00080003,Chrome,1440,900,,,a,1.2479,10,221,1,0,4,4,9,1,0,0,0,1,1,0,0,0,star,triangle,,,,,,,,,,,,,,,,,,,,,,,,,,,,,,,,,,,,,,,,,,,,,,,,,,,,,,
297490,2022-12-05_23h30.52.934,vts_reward_expectancy_bt,2022.2.4,MacIntel,20.00080003,Chrome,1440,900,,,l,0.982,1,222,1,0,5,5,8,1,0,0,1,0,0,0,0,1,hexagon,star,,,,,,,,,,,,,,,,,,,,,,,,,,,,,,,,,,,,,,,,,,,,,,,,,,,,,,
297490,2022-12-05_23h30.52.934,vts_reward_expectancy_bt,2022.2.4,MacIntel,20.00080003,Chrome,1440,900,,,l,1.2836,1,223,1,0,6,6,2,1,1,0,0,0,0,0,0,1,triangle,star,,,,,,,,,,,,,,,,,,,,,,,,,,,,,,,,,,,,,,,,,,,,,,,,,,,,,,
297490,2022-12-05_23h30.52.934,vts_reward_expectancy_bt,2022.2.4,MacIntel,20.00080003,Chrome,1440,900,,,l,0.7118,10,233,1,0,7,7,5,1,0,1,0,0,0,0,0,1,circle,star,,,,,,,,,,,,,,,,,,,,,,,,,,,,,,,,,,,,,,,,,,,,,,,,,,,,,,
297490,2022-12-05_23h30.52.934,vts_reward_expectancy_bt,2022.2.4,MacIntel,20.00080003,Chrome,1440,900,,,l,1.4157,10,243,1,0,8,8,4,1,0,1,0,0,0,0,1,0,circle,hexagon,,,,,,,,,,,,,,,,,,,,,,,,,,,,,,,,,,,,,,,,,,,,,,,,,,,,,,
297490,2022-12-05_23h30.52.934,vts_reward_expectancy_bt,2022.2.4,MacIntel,20.00080003,Chrome,1440,900,,,a,1.1006,10,253,1,0,9,9,7,1,0,0,1,0,0,1,0,0,hexagon,circle,,,,,,,,,,,,,,,,,,,,,,,,,,,,,,,,,,,,,,,,,,,,,,,,,,,,,,
297490,2022-12-05_23h30.52.934,vts_reward_expectancy_bt,2022.2.4,MacIntel,20.00080003,Chrome,1440,900,,,l,2.0153,1,254,1,0,10,10,3,1,0,1,0,0,1,0,0,0,circle,triangle,,,,,,,,,,,,,,,,,,,,,,,,,,,,,,,,,,,,,,,,,,,,,,,,,,,,,,
297490,2022-12-05_23h30.52.934,vts_reward_expectancy_bt,2022.2.4,MacIntel,20.00080003,Chrome,1440,900,,,l,2.7795,1,255,1,0,11,11,0,1,1,0,0,0,0,1,0,0,triangle,circle,,,,,,,,,,,,,,,,,,,,,,,,,,,,,,,,,,,,,,,,,,,,,,,,,,,,,,
297490,2022-12-05_23h30.52.934,vts_reward_expectancy_bt,2022.2.4,MacIntel,20.00080003,Chrome,1440,900,,,a,1.3011,1,256,1,1,0,12,7,1,0,0,1,0,0,1,0,0,hexagon,circle,,,,,,,,,,,,,,,,,,,,,,,,,,,,,,,,,,,,,,,,,,,,,,,,,,,,,,
297490,2022-12-05_23h30.52.934,vts_reward_expectancy_bt,2022.2.4,MacIntel,20.00080003,Chrome,1440,900,,,a,0.8876,10,266,1,1,1,13,2,1,1,0,0,0,0,0,0,1,triangle,star,,,,,,,,,,,,,,,,,,,,,,,,,,,,,,,,,,,,,,,,,,,,,,,,,,,,,,
297490,2022-12-05_23h30.52.934,vts_reward_expectancy_bt,2022.2.4,MacIntel,20.00080003,Chrome,1440,900,,,l,0.6167,1,267,1,1,2,14,0,1,1,0,0,0,0,1,0,0,triangle,circle,,,,,,,,,,,,,,,,,,,,,,,,,,,,,,,,,,,,,,,,,,,,,,,,,,,,,,
297490,2022-12-05_23h30.52.934,vts_reward_expectancy_bt,2022.2.4,MacIntel,20.00080003,Chrome,1440,900,,,l,0.934,10,277,1,1,3,15,1,1,1,0,0,0,0,0,1,0,triangle,hexagon,,,,,,,,,,,,,,,,,,,,,,,,,,,,,,,,,,,,,,,,,,,,,,,,,,,,,,
297490,2022-12-05_23h30.52.934,vts_reward_expectancy_bt,2022.2.4,MacIntel,20.00080003,Chrome,1440,900,,,l,0.4822,10,287,1,1,4,16,3,1,0,1,0,0,1,0,0,0,circle,triangle,,,,,,,,,,,,,,,,,,,,,,,,,,,,,,,,,,,,,,,,,,,,,,,,,,,,,,
297490,2022-12-05_23h30.52.934,vts_reward_expectancy_bt,2022.2.4,MacIntel,20.00080003,Chrome,1440,900,,,l,0.6153,10,297,1,1,5,17,6,1,0,0,1,0,1,0,0,0,hexagon,triangle,,,,,,,,,,,,,,,,,,,,,,,,,,,,,,,,,,,,,,,,,,,,,,,,,,,,,,
297490,2022-12-05_23h30.52.934,vts_reward_expectancy_bt,2022.2.4,MacIntel,20.00080003,Chrome,1440,900,,,l,1.6517,10,307,1,1,6,18,11,1,0,0,0,1,0,0,1,0,star,hexagon,,,,,,,,,,,,,,,,,,,,,,,,,,,,,,,,,,,,,,,,,,,,,,,,,,,,,,
297490,2022-12-05_23h30.52.934,vts_reward_expectancy_bt,2022.2.4,MacIntel,20.00080003,Chrome,1440,900,,,l,0.6485,10,317,1,1,7,19,9,1,0,0,0,1,1,0,0,0,star,triangle,,,,,,,,,,,,,,,,,,,,,,,,,,,,,,,,,,,,,,,,,,,,,,,,,,,,,,
297490,2022-12-05_23h30.52.934,vts_reward_expectancy_bt,2022.2.4,MacIntel,20.00080003,Chrome,1440,900,,,l,6.4677,10,327,1,1,8,20,5,1,0,1,0,0,0,0,0,1,circle,star,,,,,,,,,,,,,,,,,,,,,,,,,,,,,,,,,,,,,,,,,,,,,,,,,,,,,,
297490,2022-12-05_23h30.52.934,vts_reward_expectancy_bt,2022.2.4,MacIntel,20.00080003,Chrome,1440,900,,,l,0.4958,1,328,1,1,9,21,10,1,0,0,0,1,0,1,0,0,star ,circle,,,,,,,,,,,,,,,,,,,,,,,,,,,,,,,,,,,,,,,,,,,,,,,,,,,,,,
297490,2022-12-05_23h30.52.934,vts_reward_expectancy_bt,2022.2.4,MacIntel,20.00080003,Chrome,1440,900,,,l,1.8455,10,338,1,1,10,22,8,1,0,0,1,0,0,0,0,1,hexagon,star,,,,,,,,,,,,,,,,,,,,,,,,,,,,,,,,,,,,,,,,,,,,,,,,,,,,,,
297490,2022-12-05_23h30.52.934,vts_reward_expectancy_bt,2022.2.4,MacIntel,20.00080003,Chrome,1440,900,,,l,1.5979,10,348,1,1,11,23,4,1,0,1,0,0,0,0,1,0,circle,hexagon,,,,,,,,,,,,,,,,,,,,,,,,,,,,,,,,,,,,,,,,,,,,,,,,,,,,,,
297490,2022-12-05_23h30.52.934,vts_reward_expectancy_bt,2022.2.4,MacIntel,20.00080003,Chrome,1440,900,,,l,4.8181,1,349,1,2,0,24,0,1,1,0,0,0,0,1,0,0,triangle,circle,,,,,,,,,,,,,,,,,,,,,,,,,,,,,,,,,,,,,,,,,,,,,,,,,,,,,,
297490,2022-12-05_23h30.52.934,vts_reward_expectancy_bt,2022.2.4,MacIntel,20.00080003,Chrome,1440,900,,,l,3.6011,10,359,1,2,1,25,11,1,0,0,0,1,0,0,1,0,star,hexagon,,,,,,,,,,,,,,,,,,,,,,,,,,,,,,,,,,,,,,,,,,,,,,,,,,,,,,
297490,2022-12-05_23h30.52.934,vts_reward_expectancy_bt,2022.2.4,MacIntel,20.00080003,Chrome,1440,900,,,l,0.3485,10,369,1,2,2,26,2,1,1,0,0,0,0,0,0,1,triangle,star,,,,,,,,,,,,,,,,,,,,,,,,,,,,,,,,,,,,,,,,,,,,,,,,,,,,,,
297490,2022-12-05_23h30.52.934,vts_reward_expectancy_bt,2022.2.4,MacIntel,20.00080003,Chrome,1440,900,,,l,0.9978,10,379,1,2,3,27,7,1,0,0,1,0,0,1,0,0,hexagon,circle,,,,,,,,,,,,,,,,,,,,,,,,,,,,,,,,,,,,,,,,,,,,,,,,,,,,,,
297490,2022-12-05_23h30.52.934,vts_reward_expectancy_bt,2022.2.4,MacIntel,20.00080003,Chrome,1440,900,,,l,0.1292,1,380,1,2,4,28,3,1,0,1,0,0,1,0,0,0,circle,triangle,,,,,,,,,,,,,,,,,,,,,,,,,,,,,,,,,,,,,,,,,,,,,,,,,,,,,,
297490,2022-12-05_23h30.52.934,vts_reward_expectancy_bt,2022.2.4,MacIntel,20.00080003,Chrome,1440,900,,,l,0.4479,1,381,1,2,5,29,10,1,0,0,0,1,0,1,0,0,star ,circle,,,,,,,,,,,,,,,,,,,,,,,,,,,,,,,,,,,,,,,,,,,,,,,,,,,,,,
297490,2022-12-05_23h30.52.934,vts_reward_expectancy_bt,2022.2.4,MacIntel,20.00080003,Chrome,1440,900,,,l,0.7816,1,382,1,2,6,30,8,1,0,0,1,0,0,0,0,1,hexagon,star,,,,,,,,,,,,,,,,,,,,,,,,,,,,,,,,,,,,,,,,,,,,,,,,,,,,,,
297490,2022-12-05_23h30.52.934,vts_reward_expectancy_bt,2022.2.4,MacIntel,20.00080003,Chrome,1440,900,,,l,0.0005,10,392,1,2,7,31,4,1,0,1,0,0,0,0,1,0,circle,hexagon,,,,,,,,,,,,,,,,,,,,,,,,,,,,,,,,,,,,,,,,,,,,,,,,,,,,,,
297490,2022-12-05_23h30.52.934,vts_reward_expectancy_bt,2022.2.4,MacIntel,20.00080003,Chrome,1440,900,,,l,0.1123,10,402,1,2,8,32,1,1,1,0,0,0,0,0,1,0,triangle,hexagon,,,,,,,,,,,,,,,,,,,,,,,,,,,,,,,,,,,,,,,,,,,,,,,,,,,,,,
297490,2022-12-05_23h30.52.934,vts_reward_expectancy_bt,2022.2.4,MacIntel,20.00080003,Chrome,1440,900,,,l,0.4143,1,403,1,2,9,33,6,1,0,0,1,0,1,0,0,0,hexagon,triangle,,,,,,,,,,,,,,,,,,,,,,,,,,,,,,,,,,,,,,,,,,,,,,,,,,,,,,
297490,2022-12-05_23h30.52.934,vts_reward_expectancy_bt,2022.2.4,MacIntel,20.00080003,Chrome,1440,900,,,a,0.1151,1,404,1,2,10,34,5,1,0,1,0,0,0,0,0,1,circle,star,,,,,,,,,,,,,,,,,,,,,,,,,,,,,,,,,,,,,,,,,,,,,,,,,,,,,,
297490,2022-12-05_23h30.52.934,vts_reward_expectancy_bt,2022.2.4,MacIntel,20.00080003,Chrome,1440,900,,,a,0.1128,1,405,1,2,11,35,9,1,0,0,0,1,1,0,0,0,star,triangle,,,,,,,,,,,,,,,,,,,,,,,,,,,,,,,,,,,,,,,,,,,,,,,,,,,,,,
297490,2022-12-05_23h30.52.934,vts_reward_expectancy_bt,2022.2.4,MacIntel,20.00080003,Chrome,1440,900,,,a,0.8194,1,406,2,0,0,0,11,1,0,0,0,1,0,0,1,0,star,hexagon,,,,,,,,,,,,,,,,,,,,,,,,,,,,,,,,,,,,,,,,,,,,,,,,,,,,,,
297490,2022-12-05_23h30.52.934,vts_reward_expectancy_bt,2022.2.4,MacIntel,20.00080003,Chrome,1440,900,,,a,0.3357,10,416,2,0,1,1,7,1,0,0,1,0,0,1,0,0,hexagon,circle,,,,,,,,,,,,,,,,,,,,,,,,,,,,,,,,,,,,,,,,,,,,,,,,,,,,,,
297490,2022-12-05_23h30.52.934,vts_reward_expectancy_bt,2022.2.4,MacIntel,20.00080003,Chrome,1440,900,,,a,0.0007,10,426,2,0,2,2,8,1,0,0,1,0,0,0,0,1,hexagon,star,,,,,,,,,,,,,,,,,,,,,,,,,,,,,,,,,,,,,,,,,,,,,,,,,,,,,,
297490,2022-12-05_23h30.52.934,vts_reward_expectancy_bt,2022.2.4,MacIntel,20.00080003,Chrome,1440,900,,,a,0.4171,10,436,2,0,3,3,1,1,1,0,0,0,0,0,1,0,triangle,hexagon,,,,,,,,,,,,,,,,,,,,,,,,,,,,,,,,,,,,,,,,,,,,,,,,,,,,,,
297490,2022-12-05_23h30.52.934,vts_reward_expectancy_bt,2022.2.4,MacIntel,20.00080003,Chrome,1440,900,,,a,0.332,1,437,2,0,4,4,9,1,0,0,0,1,1,0,0,0,star,triangle,,,,,,,,,,,,,,,,,,,,,,,,,,,,,,,,,,,,,,,,,,,,,,,,,,,,,,
297490,2022-12-05_23h30.52.934,vts_reward_expectancy_bt,2022.2.4,MacIntel,20.00080003,Chrome,1440,900,,,a,0.1991,10,447,2,0,5,5,3,1,0,1,0,0,1,0,0,0,circle,triangle,,,,,,,,,,,,,,,,,,,,,,,,,,,,,,,,,,,,,,,,,,,,,,,,,,,,,,
297490,2022-12-05_23h30.52.934,vts_reward_expectancy_bt,2022.2.4,MacIntel,20.00080003,Chrome,1440,900,,,a,0.4304,1,448,2,0,6,6,0,1,1,0,0,0,0,1,0,0,triangle,circle,,,,,,,,,,,,,,,,,,,,,,,,,,,,,,,,,,,,,,,,,,,,,,,,,,,,,,
297490,2022-12-05_23h30.52.934,vts_reward_expectancy_bt,2022.2.4,MacIntel,20.00080003,Chrome,1440,900,,,a,0.4151,1,449,2,0,7,7,10,1,0,0,0,1,0,1,0,0,star ,circle,,,,,,,,,,,,,,,,,,,,,,,,,,,,,,,,,,,,,,,,,,,,,,,,,,,,,,
297490,2022-12-05_23h30.52.934,vts_reward_expectancy_bt,2022.2.4,MacIntel,20.00080003,Chrome,1440,900,,,a,0.8162,10,459,2,0,8,8,6,1,0,0,1,0,1,0,0,0,hexagon,triangle,,,,,,,,,,,,,,,,,,,,,,,,,,,,,,,,,,,,,,,,,,,,,,,,,,,,,,
297490,2022-12-05_23h30.52.934,vts_reward_expectancy_bt,2022.2.4,MacIntel,20.00080003,Chrome,1440,900,,,a,0.429,10,469,2,0,9,9,4,1,0,1,0,0,0,0,1,0,circle,hexagon,,,,,,,,,,,,,,,,,,,,,,,,,,,,,,,,,,,,,,,,,,,,,,,,,,,,,,
297490,2022-12-05_23h30.52.934,vts_reward_expectancy_bt,2022.2.4,MacIntel,20.00080003,Chrome,1440,900,,,a,1.0793,1,470,2,0,10,10,5,1,0,1,0,0,0,0,0,1,circle,star,,,,,,,,,,,,,,,,,,,,,,,,,,,,,,,,,,,,,,,,,,,,,,,,,,,,,,
297490,2022-12-05_23h30.52.934,vts_reward_expectancy_bt,2022.2.4,MacIntel,20.00080003,Chrome,1440,900,,,a,0.8682,1,471,2,0,11,11,2,1,1,0,0,0,0,0,0,1,triangle,star,,,,,,,,,,,,,,,,,,,,,,,,,,,,,,,,,,,,,,,,,,,,,,,,,,,,,,
297490,2022-12-05_23h30.52.934,vts_reward_expectancy_bt,2022.2.4,MacIntel,20.00080003,Chrome,1440,900,,,a,0.8787,1,472,2,1,0,12,4,1,0,1,0,0,0,0,1,0,circle,hexagon,,,,,,,,,,,,,,,,,,,,,,,,,,,,,,,,,,,,,,,,,,,,,,,,,,,,,,
297490,2022-12-05_23h30.52.934,vts_reward_expectancy_bt,2022.2.4,MacIntel,20.00080003,Chrome,1440,900,,,a,0.3826,10,482,2,1,1,13,11,1,0,0,0,1,0,0,1,0,star,hexagon,,,,,,,,,,,,,,,,,,,,,,,,,,,,,,,,,,,,,,,,,,,,,,,,,,,,,,
297490,2022-12-05_23h30.52.934,vts_reward_expectancy_bt,2022.2.4,MacIntel,20.00080003,Chrome,1440,900,,,a,0.115,10,492,2,1,2,14,7,1,0,0,1,0,0,1,0,0,hexagon,circle,,,,,,,,,,,,,,,,,,,,,,,,,,,,,,,,,,,,,,,,,,,,,,,,,,,,,,
297490,2022-12-05_23h30.52.934,vts_reward_expectancy_bt,2022.2.4,MacIntel,20.00080003,Chrome,1440,900,,,a,0.4142,10,502,2,1,3,15,1,1,1,0,0,0,0,0,1,0,triangle,hexagon,,,,,,,,,,,,,,,,,,,,,,,,,,,,,,,,,,,,,,,,,,,,,,,,,,,,,,
297490,2022-12-05_23h30.52.934,vts_reward_expectancy_bt,2022.2.4,MacIntel,20.00080003,Chrome,1440,900,,,a,0.181,1,503,2,1,4,16,3,1,0,1,0,0,1,0,0,0,circle,triangle,,,,,,,,,,,,,,,,,,,,,,,,,,,,,,,,,,,,,,,,,,,,,,,,,,,,,,
297490,2022-12-05_23h30.52.934,vts_reward_expectancy_bt,2022.2.4,MacIntel,20.00080003,Chrome,1440,900,,,a,0.3327,10,513,2,1,5,17,0,1,1,0,0,0,0,1,0,0,triangle,circle,,,,,,,,,,,,,,,,,,,,,,,,,,,,,,,,,,,,,,,,,,,,,,,,,,,,,,
297490,2022-12-05_23h30.52.934,vts_reward_expectancy_bt,2022.2.4,MacIntel,20.00080003,Chrome,1440,900,,,a,0.1518,1,514,2,1,6,18,2,1,1,0,0,0,0,0,0,1,triangle,star,,,,,,,,,,,,,,,,,,,,,,,,,,,,,,,,,,,,,,,,,,,,,,,,,,,,,,
297490,2022-12-05_23h30.52.934,vts_reward_expectancy_bt,2022.2.4,MacIntel,20.00080003,Chrome,1440,900,,,a,0.3822,1,515,2,1,7,19,6,1,0,0,1,0,1,0,0,0,hexagon,triangle,,,,,,,,,,,,,,,,,,,,,,,,,,,,,,,,,,,,,,,,,,,,,,,,,,,,,,
297490,2022-12-05_23h30.52.934,vts_reward_expectancy_bt,2022.2.4,MacIntel,20.00080003,Chrome,1440,900,,,a,0.4504,1,516,2,1,8,20,9,1,0,0,0,1,1,0,0,0,star,triangle,,,,,,,,,,,,,,,,,,,,,,,,,,,,,,,,,,,,,,,,,,,,,,,,,,,,,,
297490,2022-12-05_23h30.52.934,vts_reward_expectancy_bt,2022.2.4,MacIntel,20.00080003,Chrome,1440,900,,,a,0.2957,10,526,2,1,9,21,8,1,0,0,1,0,0,0,0,1,hexagon,star,,,,,,,,,,,,,,,,,,,,,,,,,,,,,,,,,,,,,,,,,,,,,,,,,,,,,,
297490,2022-12-05_23h30.52.934,vts_reward_expectancy_bt,2022.2.4,MacIntel,20.00080003,Chrome,1440,900,,,a,0.4705,10,536,2,1,10,22,5,1,0,1,0,0,0,0,0,1,circle,star,,,,,,,,,,,,,,,,,,,,,,,,,,,,,,,,,,,,,,,,,,,,,,,,,,,,,,
297490,2022-12-05_23h30.52.934,vts_reward_expectancy_bt,2022.2.4,MacIntel,20.00080003,Chrome,1440,900,,,a,0.1513,10,546,2,1,11,23,10,1,0,0,0,1,0,1,0,0,star ,circle,,,,,,,,,,,,,,,,,,,,,,,,,,,,,,,,,,,,,,,,,,,,,,,,,,,,,,
297490,2022-12-05_23h30.52.934,vts_reward_expectancy_bt,2022.2.4,MacIntel,20.00080003,Chrome,1440,900,,,a,0.502,1,547,2,2,0,24,8,1,0,0,1,0,0,0,0,1,hexagon,star,,,,,,,,,,,,,,,,,,,,,,,,,,,,,,,,,,,,,,,,,,,,,,,,,,,,,,
297490,2022-12-05_23h30.52.934,vts_reward_expectancy_bt,2022.2.4,MacIntel,20.00080003,Chrome,1440,900,,,a,0.3984,1,548,2,2,1,25,5,1,0,1,0,0,0,0,0,1,circle,star,,,,,,,,,,,,,,,,,,,,,,,,,,,,,,,,,,,,,,,,,,,,,,,,,,,,,,
297490,2022-12-05_23h30.52.934,vts_reward_expectancy_bt,2022.2.4,MacIntel,20.00080003,Chrome,1440,900,,,a,0.6173,1,549,2,2,2,26,4,1,0,1,0,0,0,0,1,0,circle,hexagon,,,,,,,,,,,,,,,,,,,,,,,,,,,,,,,,,,,,,,,,,,,,,,,,,,,,,,
297490,2022-12-05_23h30.52.934,vts_reward_expectancy_bt,2022.2.4,MacIntel,20.00080003,Chrome,1440,900,,,a,0.4172,1,550,2,2,3,27,6,1,0,0,1,0,1,0,0,0,hexagon,triangle,,,,,,,,,,,,,,,,,,,,,,,,,,,,,,,,,,,,,,,,,,,,,,,,,,,,,,
297490,2022-12-05_23h30.52.934,vts_reward_expectancy_bt,2022.2.4,MacIntel,20.00080003,Chrome,1440,900,,,a,0.0007,10,560,2,2,4,28,0,1,1,0,0,0,0,1,0,0,triangle,circle,,,,,,,,,,,,,,,,,,,,,,,,,,,,,,,,,,,,,,,,,,,,,,,,,,,,,,
297490,2022-12-05_23h30.52.934,vts_reward_expectancy_bt,2022.2.4,MacIntel,20.00080003,Chrome,1440,900,,,a,2.8821,10,570,2,2,5,29,3,1,0,1,0,0,1,0,0,0,circle,triangle,,,,,,,,,,,,,,,,,,,,,,,,,,,,,,,,,,,,,,,,,,,,,,,,,,,,,,
297490,2022-12-05_23h30.52.934,vts_reward_expectancy_bt,2022.2.4,MacIntel,20.00080003,Chrome,1440,900,,,a,0.4004,1,571,2,2,6,30,9,1,0,0,0,1,1,0,0,0,star,triangle,,,,,,,,,,,,,,,,,,,,,,,,,,,,,,,,,,,,,,,,,,,,,,,,,,,,,,
297490,2022-12-05_23h30.52.934,vts_reward_expectancy_bt,2022.2.4,MacIntel,20.00080003,Chrome,1440,900,,,a,0.3644,10,581,2,2,7,31,2,1,1,0,0,0,0,0,0,1,triangle,star,,,,,,,,,,,,,,,,,,,,,,,,,,,,,,,,,,,,,,,,,,,,,,,,,,,,,,
297490,2022-12-05_23h30.52.934,vts_reward_expectancy_bt,2022.2.4,MacIntel,20.00080003,Chrome,1440,900,,,a,0.3284,10,591,2,2,8,32,10,1,0,0,0,1,0,1,0,0,star ,circle,,,,,,,,,,,,,,,,,,,,,,,,,,,,,,,,,,,,,,,,,,,,,,,,,,,,,,
297490,2022-12-05_23h30.52.934,vts_reward_expectancy_bt,2022.2.4,MacIntel,20.00080003,Chrome,1440,900,,,a,0.3032,1,592,2,2,9,33,7,1,0,0,1,0,0,1,0,0,hexagon,circle,,,,,,,,,,,,,,,,,,,,,,,,,,,,,,,,,,,,,,,,,,,,,,,,,,,,,,
297490,2022-12-05_23h30.52.934,vts_reward_expectancy_bt,2022.2.4,MacIntel,20.00080003,Chrome,1440,900,,,a,0.267,10,602,2,2,10,34,11,1,0,0,0,1,0,0,1,0,star,hexagon,,,,,,,,,,,,,,,,,,,,,,,,,,,,,,,,,,,,,,,,,,,,,,,,,,,,,,
297490,2022-12-05_23h30.52.934,vts_reward_expectancy_bt,2022.2.4,MacIntel,20.00080003,Chrome,1440,900,,,a,0.532,10,612,2,2,11,35,1,1,1,0,0,0,0,0,1,0,triangle,hexagon,,,,,,,,,,,,,,,,,,,,,,,,,,,,,,,,,,,,,,,,,,,,,,,,,,,,,,
297490,2022-12-05_23h30.52.934,vts_reward_expectancy_bt,2022.2.4,MacIntel,20.00080003,Chrome,1440,900,,,,,,,,,,,,,,,,,,,,,,,125,Y,triangle,0,0,f,1.4396,0,0,0,0,0,1,,,,,,,,,,,,,,,,,,,,,,,,,,,,,,,,,,,,,,,,,
297490,2022-12-05_23h30.52.934,vts_reward_expectancy_bt,2022.2.4,MacIntel,20.00080003,Chrome,1440,900,,,,,,,,,,,,,,,,,,,,,,,167,W,hexagon,1,1,f,0.0006,0,1,0,1,0,1,,,,,,,,,,,,,,,,,,,,,,,,,,,,,,,,,,,,,,,,,
297490,2022-12-05_23h30.52.934,vts_reward_expectancy_bt,2022.2.4,MacIntel,20.00080003,Chrome,1440,900,,,,,,,,,,,,,,,,,,,,,,,139,D,star,0,0,f,1.6096,0,2,0,2,0,1,,,,,,,,,,,,,,,,,,,,,,,,,,,,,,,,,,,,,,,,,
297490,2022-12-05_23h30.52.934,vts_reward_expectancy_bt,2022.2.4,MacIntel,20.00080003,Chrome,1440,900,,,,,,,,,,,,,,,,,,,,,,,146,U,circle,1,1,d,0.744,0,3,0,3,0,1,,,,,,,,,,,,,,,,,,,,,,,,,,,,,,,,,,,,,,,,,
297490,2022-12-05_23h30.52.934,vts_reward_expectancy_bt,2022.2.4,MacIntel,20.00080003,Chrome,1440,900,,,,,,,,,,,,,,,,,,,,,,,132,S,triangle,0,0,f,0.6939,0,4,0,4,0,1,,,,,,,,,,,,,,,,,,,,,,,,,,,,,,,,,,,,,,,,,
297490,2022-12-05_23h30.52.934,vts_reward_expectancy_bt,2022.2.4,MacIntel,20.00080003,Chrome,1440,900,,,,,,,,,,,,,,,,,,,,,,,181,H,hexagon,0,1,d,0.4515,0,5,0,5,0,1,,,,,,,,,,,,,,,,,,,,,,,,,,,,,,,,,,,,,,,,,
297490,2022-12-05_23h30.52.934,vts_reward_expectancy_bt,2022.2.4,MacIntel,20.00080003,Chrome,1440,900,,,,,,,,,,,,,,,,,,,,,,,174,F,star,0,1,d,0.6521,0,6,0,6,0,1,,,,,,,,,,,,,,,,,,,,,,,,,,,,,,,,,,,,,,,,,
297490,2022-12-05_23h30.52.934,vts_reward_expectancy_bt,2022.2.4,MacIntel,20.00080003,Chrome,1440,900,,,,,,,,,,,,,,,,,,,,,,,160,B,circle,1,1,f,0.3649,0,7,0,7,0,1,,,,,,,,,,,,,,,,,,,,,,,,,,,,,,,,,,,,,,,,,
297490,2022-12-05_23h30.52.934,vts_reward_expectancy_bt,2022.2.4,MacIntel,20.00080003,Chrome,1440,900,,,,,,,,,,,,,,,,,,,,,,,125,Y,circle,1,0,d,0.4696,0,8,0,8,0,1,,,,,,,,,,,,,,,,,,,,,,,,,,,,,,,,,,,,,,,,,
297490,2022-12-05_23h30.52.934,vts_reward_expectancy_bt,2022.2.4,MacIntel,20.00080003,Chrome,1440,900,,,,,,,,,,,,,,,,,,,,,,,167,W,star,0,0,d,0.7858,0,9,0,9,0,1,,,,,,,,,,,,,,,,,,,,,,,,,,,,,,,,,,,,,,,,,
297490,2022-12-05_23h30.52.934,vts_reward_expectancy_bt,2022.2.4,MacIntel,20.00080003,Chrome,1440,900,,,,,,,,,,,,,,,,,,,,,,,139,H,star,1,1,d,1.627,1,0,0,0,0,1,,,,,,,,,,,,,,,,,,,,,,,,,,,,,,,,,,,,,,,,,
297490,2022-12-05_23h30.52.934,vts_reward_expectancy_bt,2022.2.4,MacIntel,20.00080003,Chrome,1440,900,,,,,,,,,,,,,,,,,,,,,,,132,U,circle,1,0,d,0.5511,1,1,0,1,0,1,,,,,,,,,,,,,,,,,,,,,,,,,,,,,,,,,,,,,,,,,
297490,2022-12-05_23h30.52.934,vts_reward_expectancy_bt,2022.2.4,MacIntel,20.00080003,Chrome,1440,900,,,,,,,,,,,,,,,,,,,,,,,181,W,triangle,1,0,f,0.7272,1,2,0,2,0,1,,,,,,,,,,,,,,,,,,,,,,,,,,,,,,,,,,,,,,,,,
297490,2022-12-05_23h30.52.934,vts_reward_expectancy_bt,2022.2.4,MacIntel,20.00080003,Chrome,1440,900,,,,,,,,,,,,,,,,,,,,,,,167,D,hexagon,1,0,f,0.8923,1,3,0,3,0,1,,,,,,,,,,,,,,,,,,,,,,,,,,,,,,,,,,,,,,,,,
297490,2022-12-05_23h30.52.934,vts_reward_expectancy_bt,2022.2.4,MacIntel,20.00080003,Chrome,1440,900,,,,,,,,,,,,,,,,,,,,,,,146,F,star,1,0,d,1.561,1,4,0,4,0,1,,,,,,,,,,,,,,,,,,,,,,,,,,,,,,,,,,,,,,,,,
297490,2022-12-05_23h30.52.934,vts_reward_expectancy_bt,2022.2.4,MacIntel,20.00080003,Chrome,1440,900,,,,,,,,,,,,,,,,,,,,,,,125,B,circle,1,0,d,0.7386,1,5,0,5,0,1,,,,,,,,,,,,,,,,,,,,,,,,,,,,,,,,,,,,,,,,,
297490,2022-12-05_23h30.52.934,vts_reward_expectancy_bt,2022.2.4,MacIntel,20.00080003,Chrome,1440,900,,,,,,,,,,,,,,,,,,,,,,,160,S,triangle,1,0,f,0.6809,1,6,0,6,0,1,,,,,,,,,,,,,,,,,,,,,,,,,,,,,,,,,,,,,,,,,
297490,2022-12-05_23h30.52.934,vts_reward_expectancy_bt,2022.2.4,MacIntel,20.00080003,Chrome,1440,900,,,,,,,,,,,,,,,,,,,,,,,174,Y,hexagon,1,0,f,0.7762,1,7,0,7,0,1,,,,,,,,,,,,,,,,,,,,,,,,,,,,,,,,,,,,,,,,,
297490,2022-12-05_23h30.52.934,vts_reward_expectancy_bt,2022.2.4,MacIntel,20.00080003,Chrome,1440,900,,,,,,,,,,,,,,,,,,,,,,,139,H,triangle,1,0,d,0.7074,1,8,0,8,0,1,,,,,,,,,,,,,,,,,,,,,,,,,,,,,,,,,,,,,,,,,
297490,2022-12-05_23h30.52.934,vts_reward_expectancy_bt,2022.2.4,MacIntel,20.00080003,Chrome,1440,900,,,,,,,,,,,,,,,,,,,,,,,132,U,circle,1,0,d,0.8027,1,9,0,9,0,1,,,,,,,,,,,,,,,,,,,,,,,,,,,,,,,,,,,,,,,,,
297490,2022-12-05_23h30.52.934,vts_reward_expectancy_bt,2022.2.4,MacIntel,20.00080003,Chrome,1440,900,,,,,,,,,,,,,,,,,,,,,,,125,Y,hexagon,0,0,,,2,,,,,,,0,0,0,0,1,,,,,,,,,,,,,,,,,,,,,,,,,,,,,,,,,,,
297490,2022-12-05_23h30.52.934,vts_reward_expectancy_bt,2022.2.4,MacIntel,20.00080003,Chrome,1440,900,,,,,,,,,,,,,,,,,,,,,,,174,F,triangle,1,1,,,2,,,,,,j,1,0,1,0,1,1.0874,,,,,,,,,,,,,,,,,,,,,,,,,,,,,,,,,,
297490,2022-12-05_23h30.52.934,vts_reward_expectancy_bt,2022.2.4,MacIntel,20.00080003,Chrome,1440,900,,,,,,,,,,,,,,,,,,,,,,,139,B,circle,1,0,,,2,,,,,,j,2,0,2,0,1,1.0188,,,,,,,,,,,,,,,,,,,,,,,,,,,,,,,,,,
297490,2022-12-05_23h30.52.934,vts_reward_expectancy_bt,2022.2.4,MacIntel,20.00080003,Chrome,1440,900,,,,,,,,,,,,,,,,,,,,,,,132,D,star,1,0,,,2,,,,,,j,3,0,3,0,1,0.7999,,,,,,,,,,,,,,,,,,,,,,,,,,,,,,,,,,
297490,2022-12-05_23h30.52.934,vts_reward_expectancy_bt,2022.2.4,MacIntel,20.00080003,Chrome,1440,900,,,,,,,,,,,,,,,,,,,,,,,160,S,hexagon,1,0,,,2,,,,,,k,4,0,4,0,1,2.7518,,,,,,,,,,,,,,,,,,,,,,,,,,,,,,,,,,
297490,2022-12-05_23h30.52.934,vts_reward_expectancy_bt,2022.2.4,MacIntel,20.00080003,Chrome,1440,900,,,,,,,,,,,,,,,,,,,,,,,181,W,triangle,0,0,,,2,,,,,,,5,0,5,0,1,,,,,,,,,,,,,,,,,,,,,,,,,,,,,,,,,,,
297490,2022-12-05_23h30.52.934,vts_reward_expectancy_bt,2022.2.4,MacIntel,20.00080003,Chrome,1440,900,,,,,,,,,,,,,,,,,,,,,,,146,U,circle,0,1,,,2,,,,,,j,6,0,6,0,1,1.2113,,,,,,,,,,,,,,,,,,,,,,,,,,,,,,,,,,
297490,2022-12-05_23h30.52.934,vts_reward_expectancy_bt,2022.2.4,MacIntel,20.00080003,Chrome,1440,900,,,,,,,,,,,,,,,,,,,,,,,167,H,star,1,1,,,2,,,,,,j,7,0,7,0,1,0.9184,,,,,,,,,,,,,,,,,,,,,,,,,,,,,,,,,,
297490,2022-12-05_23h30.52.934,vts_reward_expectancy_bt,2022.2.4,MacIntel,20.00080003,Chrome,1440,900,,,,,,,,,,,,,,,,,,,,,,,125,Y,star,1,0,,,2,,,,,,k,8,0,8,0,1,1.2761,,,,,,,,,,,,,,,,,,,,,,,,,,,,,,,,,,
297490,2022-12-05_23h30.52.934,vts_reward_expectancy_bt,2022.2.4,MacIntel,20.00080003,Chrome,1440,900,,,,,,,,,,,,,,,,,,,,,,,174,F,hexagon,1,0,,,2,,,,,,j,9,0,9,0,1,0.7036,,,,,,,,,,,,,,,,,,,,,,,,,,,,,,,,,,
297490,2022-12-05_23h30.52.934,vts_reward_expectancy_bt,2022.2.4,MacIntel,20.00080003,Chrome,1440,900,,,,,,,,,,,,,,,,,,,,,,,125,H,triangle,1,0,,,3,,,,,,j,0,0,0,0,1,1.3984,,,,,,,,,,,,,,,,,,,,,,,,,,,,,,,,,,
297490,2022-12-05_23h30.52.934,vts_reward_expectancy_bt,2022.2.4,MacIntel,20.00080003,Chrome,1440,900,,,,,,,,,,,,,,,,,,,,,,,174,Y,hexagon,1,0,,,3,,,,,,k,1,0,1,0,1,1.1549,,,,,,,,,,,,,,,,,,,,,,,,,,,,,,,,,,
297490,2022-12-05_23h30.52.934,vts_reward_expectancy_bt,2022.2.4,MacIntel,20.00080003,Chrome,1440,900,,,,,,,,,,,,,,,,,,,,,,,132,D,star,1,0,,,3,,,,,,j,2,0,2,0,1,0.501,,,,,,,,,,,,,,,,,,,,,,,,,,,,,,,,,,
297490,2022-12-05_23h30.52.934,vts_reward_expectancy_bt,2022.2.4,MacIntel,20.00080003,Chrome,1440,900,,,,,,,,,,,,,,,,,,,,,,,181,F,circle,1,0,,,3,,,,,,j,3,0,3,0,1,0.6888,,,,,,,,,,,,,,,,,,,,,,,,,,,,,,,,,,
297490,2022-12-05_23h30.52.934,vts_reward_expectancy_bt,2022.2.4,MacIntel,20.00080003,Chrome,1440,900,,,,,,,,,,,,,,,,,,,,,,,160,S,triangle,1,0,,,3,,,,,,k,4,0,4,0,1,0.9678,,,,,,,,,,,,,,,,,,,,,,,,,,,,,,,,,,
297490,2022-12-05_23h30.52.934,vts_reward_expectancy_bt,2022.2.4,MacIntel,20.00080003,Chrome,1440,900,,,,,,,,,,,,,,,,,,,,,,,146,B,hexagon,1,0,,,3,,,,,,j,5,0,5,0,1,0.7525,,,,,,,,,,,,,,,,,,,,,,,,,,,,,,,,,,
297490,2022-12-05_23h30.52.934,vts_reward_expectancy_bt,2022.2.4,MacIntel,20.00080003,Chrome,1440,900,,,,,,,,,,,,,,,,,,,,,,,139,U,star,0,0,,,3,,,,,,j,6,0,6,0,1,1.0486,,,,,,,,,,,,,,,,,,,,,,,,,,,,,,,,,,
297490,2022-12-05_23h30.52.934,vts_reward_expectancy_bt,2022.2.4,MacIntel,20.00080003,Chrome,1440,900,,,,,,,,,,,,,,,,,,,,,,,167,W,circle,1,1,,,3,,,,,,k,7,0,7,0,1,2.1168,,,,,,,,,,,,,,,,,,,,,,,,,,,,,,,,,,
297490,2022-12-05_23h30.52.934,vts_reward_expectancy_bt,2022.2.4,MacIntel,20.00080003,Chrome,1440,900,,,,,,,,,,,,,,,,,,,,,,,125,H,star,1,0,,,3,,,,,,j,8,0,8,0,1,1.0934,,,,,,,,,,,,,,,,,,,,,,,,,,,,,,,,,,
297490,2022-12-05_23h30.52.934,vts_reward_expectancy_bt,2022.2.4,MacIntel,20.00080003,Chrome,1440,900,,,,,,,,,,,,,,,,,,,,,,,174,Y,circle,1,0,,,3,,,,,,k,9,0,9,0,1,1.3499,,,,,,,,,,,,,,,,,,,,,,,,,,,,,,,,,,
297490,2022-12-05_23h30.52.934,vts_reward_expectancy_bt,2022.2.4,MacIntel,20.00080003,Chrome,1440,900,,,,,0,612,,,,,,,,,,,,,,,,,160,U,hexagon,1,0,,,4,,,,,,,,,,,,,-1,number,NA,f,2.4323,vtsPrac,0,0,0,0,1,,,,,,,,,,,,,,,,,,,,,,,
297490,2022-12-05_23h30.52.934,vts_reward_expectancy_bt,2022.2.4,MacIntel,20.00080003,Chrome,1440,900,,,,,0,612,,,,,,,,,,,,,,,,,146,S,star,1,0,,,4,,,,,,,,,,,,,repeat,number,numRpt,d,1.4848,vtsPrac,1,0,1,0,1,,,,,,,,,,,,,,,,,,,,,,,
297490,2022-12-05_23h30.52.934,vts_reward_expectancy_bt,2022.2.4,MacIntel,20.00080003,Chrome,1440,900,,,,,0,612,,,,,,,,,,,,,,,,,167,Y,hexagon,1,0,,,4,,,,,,,,,,,,,repeat,number,numRpt,f,0.9178,vtsPrac,2,0,2,0,1,,,,,,,,,,,,,,,,,,,,,,,
297490,2022-12-05_23h30.52.934,vts_reward_expectancy_bt,2022.2.4,MacIntel,20.00080003,Chrome,1440,900,,,,,0,612,,,,,,,,,,,,,,,,,181,B,star,1,0,,,4,,,,,,,,,,,,,repeat,number,numRpt,f,1.0551,vtsPrac,3,0,3,0,1,,,,,,,,,,,,,,,,,,,,,,,
297490,2022-12-05_23h30.52.934,vts_reward_expectancy_bt,2022.2.4,MacIntel,20.00080003,Chrome,1440,900,,,,,0,612,,,,,,,,,,,,,,,,,160,U,star,1,0,,,4,,,,,,,,,,,,,repeat,number,numRpt,f,0.658,vtsPrac,4,0,4,0,1,,,,,,,,,,,,,,,,,,,,,,,
297490,2022-12-05_23h30.52.934,vts_reward_expectancy_bt,2022.2.4,MacIntel,20.00080003,Chrome,1440,900,,,,,0,612,,,,,,,,,,,,,,,,,146,S,triangle,1,0,,,4,,,,,,,,,,,,,repeat,number,numRpt,d,1.4289,vtsPrac,5,0,5,0,1,,,,,,,,,,,,,,,,,,,,,,,
297490,2022-12-05_23h30.52.934,vts_reward_expectancy_bt,2022.2.4,MacIntel,20.00080003,Chrome,1440,900,,,,,0,612,,,,,,,,,,,,,,,,,167,Y,circle,1,0,,,4,,,,,,,,,,,,,repeat,number,numRpt,f,1.2964,vtsPrac,6,0,6,0,1,,,,,,,,,,,,,,,,,,,,,,,
297490,2022-12-05_23h30.52.934,vts_reward_expectancy_bt,2022.2.4,MacIntel,20.00080003,Chrome,1440,900,,,,,0,612,,,,,,,,,,,,,,,,,181,B,star,1,0,,,4,,,,,,,,,,,,,repeat,number,numRpt,f,0.713,vtsPrac,7,0,7,0,1,,,,,,,,,,,,,,,,,,,,,,,
297490,2022-12-05_23h30.52.934,vts_reward_expectancy_bt,2022.2.4,MacIntel,20.00080003,Chrome,1440,900,,,,,0,612,,,,,,,,,,,,,,,,,174,U,star,1,0,,,4,,,,,,,,,,,,,repeat,number,numRpt,f,0.6683,vtsPrac,8,0,8,0,1,,,,,,,,,,,,,,,,,,,,,,,
297490,2022-12-05_23h30.52.934,vts_reward_expectancy_bt,2022.2.4,MacIntel,20.00080003,Chrome,1440,900,,,,,0,612,,,,,,,,,,,,,,,,,125,S,triangle,1,0,,,4,,,,,,,,,,,,,repeat,number,numRpt,d,1.4874,vtsPrac,9,0,9,0,1,,,,,,,,,,,,,,,,,,,,,,,
297490,2022-12-05_23h30.52.934,vts_reward_expectancy_bt,2022.2.4,MacIntel,20.00080003,Chrome,1440,900,,,,,0,612,,,,,,,,,,,,,,,,,181,F,star,1,0,,,4,,,,,,,,,,,,,repeat,number,numRpt,f,0.6879,vtsPrac,10,0,10,0,1,,,,,,,,,,,,,,,,,,,,,,,
297490,2022-12-05_23h30.52.934,vts_reward_expectancy_bt,2022.2.4,MacIntel,20.00080003,Chrome,1440,900,,,,,0,612,,,,,,,,,,,,,,,,,139,W,circle,1,0,,,4,,,,,,,,,,,,,repeat,number,numRpt,d,1.11,vtsPrac,11,0,11,0,1,,,,,,,,,,,,,,,,,,,,,,,
297490,2022-12-05_23h30.52.934,vts_reward_expectancy_bt,2022.2.4,MacIntel,20.00080003,Chrome,1440,900,,,,,0,612,,,,,,,,,,,,,,,,,146,D,star,1,0,,,4,,,,,,,,,,,,,repeat,number,numRpt,d,0.819,vtsPrac,12,0,12,0,1,,,,,,,,,,,,,,,,,,,,,,,
297490,2022-12-05_23h30.52.934,vts_reward_expectancy_bt,2022.2.4,MacIntel,20.00080003,Chrome,1440,900,,,,,0,612,,,,,,,,,,,,,,,,,174,Y,hexagon,1,0,,,4,,,,,,,,,,,,,repeat,number,numRpt,f,1.0018,vtsPrac,13,0,13,0,1,,,,,,,,,,,,,,,,,,,,,,,
297490,2022-12-05_23h30.52.934,vts_reward_expectancy_bt,2022.2.4,MacIntel,20.00080003,Chrome,1440,900,,,,,0,612,,,,,,,,,,,,,,,,,167,F,hexagon,1,0,,,4,,,,,,,,,,,,,repeat,number,numRpt,f,0.9428,vtsPrac,14,0,14,0,1,,,,,,,,,,,,,,,,,,,,,,,
297490,2022-12-05_23h30.52.934,vts_reward_expectancy_bt,2022.2.4,MacIntel,20.00080003,Chrome,1440,900,,,,,0,612,,,,,,,,,,,,,,,,,139,W,circle,1,0,,,4,,,,,,,,,,,,,repeat,number,numRpt,d,0.7351,vtsPrac,15,0,15,0,1,,,,,,,,,,,,,,,,,,,,,,,
297490,2022-12-05_23h30.52.934,vts_reward_expectancy_bt,2022.2.4,MacIntel,20.00080003,Chrome,1440,900,,,,,0,612,,,,,,,,,,,,,,,,,160,H,hexagon,1,0,,,4,,,,,,,,,,,,,repeat,number,numRpt,f,0.8354,vtsPrac,16,0,16,0,1,,,,,,,,,,,,,,,,,,,,,,,
297490,2022-12-05_23h30.52.934,vts_reward_expectancy_bt,2022.2.4,MacIntel,20.00080003,Chrome,1440,900,,,,,0,612,,,,,,,,,,,,,,,,,174,W,triangle,1,0,,,4,,,,,,,,,,,,,repeat,number,numRpt,f,0.853,vtsPrac,17,0,17,0,1,,,,,,,,,,,,,,,,,,,,,,,
297490,2022-12-05_23h30.52.934,vts_reward_expectancy_bt,2022.2.4,MacIntel,20.00080003,Chrome,1440,900,,,,,0,612,,,,,,,,,,,,,,,,,139,Y,star,1,0,,,4,,,,,,,,,,,,,repeat,number,numRpt,d,0.8187,vtsPrac,18,0,18,0,1,,,,,,,,,,,,,,,,,,,,,,,
297490,2022-12-05_23h30.52.934,vts_reward_expectancy_bt,2022.2.4,MacIntel,20.00080003,Chrome,1440,900,,,,,0,612,,,,,,,,,,,,,,,,,146,B,hexagon,1,0,,,4,,,,,,,,,,,,,repeat,number,numRpt,d,0.755,vtsPrac,19,0,19,0,1,,,,,,,,,,,,,,,,,,,,,,,
297490,2022-12-05_23h30.52.934,vts_reward_expectancy_bt,2022.2.4,MacIntel,20.00080003,Chrome,1440,900,,,,,0,612,,,,,,,,,,,,,,,,,139,Y,star,1,0,,,4,,,,,,,,,,,,,repeat,number,numRpt,d,0.6709,vtsPrac,20,0,20,0,1,,,,,,,,,,,,,,,,,,,,,,,
297490,2022-12-05_23h30.52.934,vts_reward_expectancy_bt,2022.2.4,MacIntel,20.00080003,Chrome,1440,900,,,,,0,612,,,,,,,,,,,,,,,,,174,S,hexagon,1,0,,,4,,,,,,,,,,,,,repeat,number,numRpt,f,0.6348,vtsPrac,21,0,21,0,1,,,,,,,,,,,,,,,,,,,,,,,
297490,2022-12-05_23h30.52.934,vts_reward_expectancy_bt,2022.2.4,MacIntel,20.00080003,Chrome,1440,900,,,,,0,612,,,,,,,,,,,,,,,,,167,D,circle,1,0,,,4,,,,,,,,,,,,,repeat,number,numRpt,f,0.7004,vtsPrac,22,0,22,0,1,,,,,,,,,,,,,,,,,,,,,,,
297490,2022-12-05_23h30.52.934,vts_reward_expectancy_bt,2022.2.4,MacIntel,20.00080003,Chrome,1440,900,,,,,0,612,,,,,,,,,,,,,,,,,132,W,hexagon,1,0,,,4,,,,,,,,,,,,,repeat,number,numRpt,d,0.8348,vtsPrac,23,0,23,0,1,,,,,,,,,,,,,,,,,,,,,,,
297490,2022-12-05_23h30.52.934,vts_reward_expectancy_bt,2022.2.4,MacIntel,20.00080003,Chrome,1440,900,,,,,0,612,,,,,,,,,,,,,,,,,139,W,circle,1,0,,,4,,,,,,,,,,,,,repeat,number,numRpt,d,0.6607,vtsPrac,24,0,24,0,1,,,,,,,,,,,,,,,,,,,,,,,
297490,2022-12-05_23h30.52.934,vts_reward_expectancy_bt,2022.2.4,MacIntel,20.00080003,Chrome,1440,900,,,,,0,612,,,,,,,,,,,,,,,,,125,D,hexagon,1,0,,,4,,,,,,,,,,,,,repeat,number,numRpt,d,0.5835,vtsPrac,25,0,25,0,1,,,,,,,,,,,,,,,,,,,,,,,
297490,2022-12-05_23h30.52.934,vts_reward_expectancy_bt,2022.2.4,MacIntel,20.00080003,Chrome,1440,900,,,,,0,612,,,,,,,,,,,,,,,,,160,Y,star,1,0,,,4,,,,,,,,,,,,,repeat,number,numRpt,f,2.413,vtsPrac,26,0,26,0,1,,,,,,,,,,,,,,,,,,,,,,,
297490,2022-12-05_23h30.52.934,vts_reward_expectancy_bt,2022.2.4,MacIntel,20.00080003,Chrome,1440,900,,,,,0,612,,,,,,,,,,,,,,,,,181,S,circle,1,0,,,4,,,,,,,,,,,,,repeat,number,numRpt,f,0.9107,vtsPrac,27,0,27,0,1,,,,,,,,,,,,,,,,,,,,,,,
297490,2022-12-05_23h30.52.934,vts_reward_expectancy_bt,2022.2.4,MacIntel,20.00080003,Chrome,1440,900,,,,,0,612,,,,,,,,,,,,,,,,,139,H,star,1,0,,,4,,,,,,,,,,,,,repeat,number,numRpt,d,0.6042,vtsPrac,28,0,28,0,1,,,,,,,,,,,,,,,,,,,,,,,
297490,2022-12-05_23h30.52.934,vts_reward_expectancy_bt,2022.2.4,MacIntel,20.00080003,Chrome,1440,900,,,,,0,612,,,,,,,,,,,,,,,,,181,F,circle,1,0,,,4,,,,,,,,,,,,,repeat,number,numRpt,f,0.8491,vtsPrac,29,0,29,0,1,,,,,,,,,,,,,,,,,,,,,,,
297490,2022-12-05_23h30.52.934,vts_reward_expectancy_bt,2022.2.4,MacIntel,20.00080003,Chrome,1440,900,,,,,0,612,,,,,,,,,,,,,,,,,146,U,circle,0,0,,,4,,,,,,,,,,,,,repeat,number,NA,f,0.9694,vtsPrac,30,0,30,0,1,,,,,,,,,,,,,,,,,,,,,,,
297490,2022-12-05_23h30.52.934,vts_reward_expectancy_bt,2022.2.4,MacIntel,20.00080003,Chrome,1440,900,,,,,0,612,,,,,,,,,,,,,,,,,160,Y,hexagon,1,1,,,4,,,,,,,,,,,,,repeat,number,numRpt,f,0.7315,vtsPrac,31,0,31,0,1,,,,,,,,,,,,,,,,,,,,,,,
297490,2022-12-05_23h30.52.934,vts_reward_expectancy_bt,2022.2.4,MacIntel,20.00080003,Chrome,1440,900,,,,,0,612,,,,,,,,,,,,,,,,,125,S,triangle,0,0,,,5,,,,,,,,,,,,,switch,letter,NA,j,1.4226,vtsPrac,0,0,0,0,1,,,,,,,,,,,,,,,,,,,,,,,
297490,2022-12-05_23h30.52.934,vts_reward_expectancy_bt,2022.2.4,MacIntel,20.00080003,Chrome,1440,900,,,,,0,612,,,,,,,,,,,,,,,,,167,Y,circle,1,1,,,5,,,,,,,,,,,,,repeat,letter,lettRpt,k,1.4904,vtsPrac,1,0,1,0,1,,,,,,,,,,,,,,,,,,,,,,,
297490,2022-12-05_23h30.52.934,vts_reward_expectancy_bt,2022.2.4,MacIntel,20.00080003,Chrome,1440,900,,,,,0,612,,,,,,,,,,,,,,,,,160,H,triangle,1,0,,,5,,,,,,,,,,,,,switch,number,numSwt,f,0.6261,vtsPrac,2,0,2,0,1,,,,,,,,,,,,,,,,,,,,,,,
297490,2022-12-05_23h30.52.934,vts_reward_expectancy_bt,2022.2.4,MacIntel,20.00080003,Chrome,1440,900,,,,,0,612,,,,,,,,,,,,,,,,,146,F,circle,1,0,,,5,,,,,,,,,,,,,switch,letter,lettSwt,j,0.7179,vtsPrac,3,0,3,0,1,,,,,,,,,,,,,,,,,,,,,,,
297490,2022-12-05_23h30.52.934,vts_reward_expectancy_bt,2022.2.4,MacIntel,20.00080003,Chrome,1440,900,,,,,0,612,,,,,,,,,,,,,,,,,125,S,star,1,0,,,5,,,,,,,,,,,,,switch,number,numSwt,d,1.2053,vtsPrac,4,0,4,0,1,,,,,,,,,,,,,,,,,,,,,,,
297490,2022-12-05_23h30.52.934,vts_reward_expectancy_bt,2022.2.4,MacIntel,20.00080003,Chrome,1440,900,,,,,0,612,,,,,,,,,,,,,,,,,167,Y,hexagon,1,0,,,5,,,,,,,,,,,,,repeat,number,numRpt,f,1.3624,vtsPrac,5,0,5,0,1,,,,,,,,,,,,,,,,,,,,,,,
297490,2022-12-05_23h30.52.934,vts_reward_expectancy_bt,2022.2.4,MacIntel,20.00080003,Chrome,1440,900,,,,,0,612,,,,,,,,,,,,,,,,,160,H,star,1,0,,,5,,,,,,,,,,,,,switch,letter,lettSwt,j,1.0517,vtsPrac,6,0,6,0,1,,,,,,,,,,,,,,,,,,,,,,,
297490,2022-12-05_23h30.52.934,vts_reward_expectancy_bt,2022.2.4,MacIntel,20.00080003,Chrome,1440,900,,,,,0,612,,,,,,,,,,,,,,,,,146,F,circle,1,0,,,5,,,,,,,,,,,,,repeat,letter,lettRpt,j,1.1693,vtsPrac,7,0,7,0,1,,,,,,,,,,,,,,,,,,,,,,,
297490,2022-12-05_23h30.52.934,vts_reward_expectancy_bt,2022.2.4,MacIntel,20.00080003,Chrome,1440,900,,,,,0,612,,,,,,,,,,,,,,,,,132,B,circle,1,0,,,5,,,,,,,,,,,,,repeat,letter,lettRpt,j,0.6519,vtsPrac,8,0,8,0,1,,,,,,,,,,,,,,,,,,,,,,,
297490,2022-12-05_23h30.52.934,vts_reward_expectancy_bt,2022.2.4,MacIntel,20.00080003,Chrome,1440,900,,,,,0,612,,,,,,,,,,,,,,,,,174,W,triangle,1,0,,,5,,,,,,,,,,,,,switch,number,numSwt,f,0.9859,vtsPrac,9,0,9,0,1,,,,,,,,,,,,,,,,,,,,,,,
297490,2022-12-05_23h30.52.934,vts_reward_expectancy_bt,2022.2.4,MacIntel,20.00080003,Chrome,1440,900,,,,,0,612,,,,,,,,,,,,,,,,,167,F,circle,1,0,,,5,,,,,,,,,,,,,switch,letter,lettSwt,j,0.6628,vtsPrac,10,0,10,0,1,,,,,,,,,,,,,,,,,,,,,,,
297490,2022-12-05_23h30.52.934,vts_reward_expectancy_bt,2022.2.4,MacIntel,20.00080003,Chrome,1440,900,,,,,0,612,,,,,,,,,,,,,,,,,160,S,star,1,0,,,5,,,,,,,,,,,,,switch,number,numSwt,f,0.9297,vtsPrac,11,0,11,0,1,,,,,,,,,,,,,,,,,,,,,,,
297490,2022-12-05_23h30.52.934,vts_reward_expectancy_bt,2022.2.4,MacIntel,20.00080003,Chrome,1440,900,,,,,0,612,,,,,,,,,,,,,,,,,132,F,hexagon,1,0,,,5,,,,,,,,,,,,,repeat,number,numRpt,d,0.6912,vtsPrac,12,0,12,0,1,,,,,,,,,,,,,,,,,,,,,,,
297490,2022-12-05_23h30.52.934,vts_reward_expectancy_bt,2022.2.4,MacIntel,20.00080003,Chrome,1440,900,,,,,0,612,,,,,,,,,,,,,,,,,146,Y,triangle,1,0,,,5,,,,,,,,,,,,,repeat,number,numRpt,d,1.5513,vtsPrac,13,0,13,0,1,,,,,,,,,,,,,,,,,,,,,,,
297490,2022-12-05_23h30.52.934,vts_reward_expectancy_bt,2022.2.4,MacIntel,20.00080003,Chrome,1440,900,,,,,0,612,,,,,,,,,,,,,,,,,174,H,triangle,1,0,,,5,,,,,,,,,,,,,switch,letter,lettSwt,j,0.9797,vtsPrac,14,0,14,0,1,,,,,,,,,,,,,,,,,,,,,,,
297490,2022-12-05_23h30.52.934,vts_reward_expectancy_bt,2022.2.4,MacIntel,20.00080003,Chrome,1440,900,,,,,0,612,,,,,,,,,,,,,,,,,125,W,circle,1,0,,,5,,,,,,,,,,,,,switch,number,numSwt,d,1.0454,vtsPrac,15,0,15,0,1,,,,,,,,,,,,,,,,,,,,,,,
297490,2022-12-05_23h30.52.934,vts_reward_expectancy_bt,2022.2.4,MacIntel,20.00080003,Chrome,1440,900,,,,,0,612,,,,,,,,,,,,,,,,,125,H,star,1,0,,,5,,,,,,,,,,,,,repeat,number,numRpt,d,0.8569,vtsPrac,16,0,16,0,1,,,,,,,,,,,,,,,,,,,,,,,
297490,2022-12-05_23h30.52.934,vts_reward_expectancy_bt,2022.2.4,MacIntel,20.00080003,Chrome,1440,900,,,,,0,612,,,,,,,,,,,,,,,,,181,W,circle,1,0,,,5,,,,,,,,,,,,,repeat,number,numRpt,f,1.0617,vtsPrac,17,0,17,0,1,,,,,,,,,,,,,,,,,,,,,,,
297490,2022-12-05_23h30.52.934,vts_reward_expectancy_bt,2022.2.4,MacIntel,20.00080003,Chrome,1440,900,,,,,0,612,,,,,,,,,,,,,,,,,174,B,star,1,0,,,5,,,,,,,,,,,,,switch,letter,lettSwt,j,0.7127,vtsPrac,18,0,18,0,1,,,,,,,,,,,,,,,,,,,,,,,
297490,2022-12-05_23h30.52.934,vts_reward_expectancy_bt,2022.2.4,MacIntel,20.00080003,Chrome,1440,900,,,,,0,612,,,,,,,,,,,,,,,,,139,U,circle,1,0,,,5,,,,,,,,,,,,,switch,number,numSwt,d,0.8463,vtsPrac,19,0,19,0,1,,,,,,,,,,,,,,,,,,,,,,,
297490,2022-12-05_23h30.52.934,vts_reward_expectancy_bt,2022.2.4,MacIntel,20.00080003,Chrome,1440,900,,,,,0,612,,,,,,,,,,,,,,,,,160,W,star,1,0,,,5,,,,,,,,,,,,,repeat,number,numRpt,f,1.165,vtsPrac,20,0,20,0,1,,,,,,,,,,,,,,,,,,,,,,,
297490,2022-12-05_23h30.52.934,vts_reward_expectancy_bt,2022.2.4,MacIntel,20.00080003,Chrome,1440,900,,,,,0,612,,,,,,,,,,,,,,,,,139,U,hexagon,1,0,,,5,,,,,,,,,,,,,repeat,number,numRpt,d,0.7314,vtsPrac,21,0,21,0,1,,,,,,,,,,,,,,,,,,,,,,,
297490,2022-12-05_23h30.52.934,vts_reward_expectancy_bt,2022.2.4,MacIntel,20.00080003,Chrome,1440,900,,,,,0,612,,,,,,,,,,,,,,,,,167,Y,triangle,1,0,,,5,,,,,,,,,,,,,switch,letter,lettSwt,k,1.4824,vtsPrac,22,0,22,0,1,,,,,,,,,,,,,,,,,,,,,,,
297490,2022-12-05_23h30.52.934,vts_reward_expectancy_bt,2022.2.4,MacIntel,20.00080003,Chrome,1440,900,,,,,0,612,,,,,,,,,,,,,,,,,181,B,star,1,0,,,5,,,,,,,,,,,,,switch,number,numSwt,f,1.0136,vtsPrac,23,0,23,0,1,,,,,,,,,,,,,,,,,,,,,,,
297490,2022-12-05_23h30.52.934,vts_reward_expectancy_bt,2022.2.4,MacIntel,20.00080003,Chrome,1440,900,,,,,0,612,,,,,,,,,,,,,,,,,167,B,triangle,1,0,,,5,,,,,,,,,,,,,switch,letter,lettSwt,j,0.9832,vtsPrac,24,0,24,0,1,,,,,,,,,,,,,,,,,,,,,,,
297490,2022-12-05_23h30.52.934,vts_reward_expectancy_bt,2022.2.4,MacIntel,20.00080003,Chrome,1440,900,,,,,0,612,,,,,,,,,,,,,,,,,132,D,star,1,0,,,5,,,,,,,,,,,,,repeat,letter,lettRpt,j,1.2808,vtsPrac,25,0,25,0,1,,,,,,,,,,,,,,,,,,,,,,,
297490,2022-12-05_23h30.52.934,vts_reward_expectancy_bt,2022.2.4,MacIntel,20.00080003,Chrome,1440,900,,,,,0,612,,,,,,,,,,,,,,,,,181,Y,circle,1,0,,,5,,,,,,,,,,,,,switch,number,numSwt,f,0.9462,vtsPrac,26,0,26,0,1,,,,,,,,,,,,,,,,,,,,,,,
297490,2022-12-05_23h30.52.934,vts_reward_expectancy_bt,2022.2.4,MacIntel,20.00080003,Chrome,1440,900,,,,,0,612,,,,,,,,,,,,,,,,,125,H,hexagon,1,0,,,5,,,,,,,,,,,,,repeat,number,numRpt,d,0.8312,vtsPrac,27,0,27,0,1,,,,,,,,,,,,,,,,,,,,,,,
297490,2022-12-05_23h30.52.934,vts_reward_expectancy_bt,2022.2.4,MacIntel,20.00080003,Chrome,1440,900,,,,,0,612,,,,,,,,,,,,,,,,,139,H,hexagon,1,0,,,5,,,,,,,,,,,,,switch,letter,lettSwt,j,0.9832,vtsPrac,28,0,28,0,1,,,,,,,,,,,,,,,,,,,,,,,
297490,2022-12-05_23h30.52.934,vts_reward_expectancy_bt,2022.2.4,MacIntel,20.00080003,Chrome,1440,900,,,,,0,612,,,,,,,,,,,,,,,,,125,Y,star,1,0,,,5,,,,,,,,,,,,,switch,number,numSwt,d,1.231,vtsPrac,29,0,29,0,1,,,,,,,,,,,,,,,,,,,,,,,
297490,2022-12-05_23h30.52.934,vts_reward_expectancy_bt,2022.2.4,MacIntel,20.00080003,Chrome,1440,900,,,,,0,612,,,,,,,,,,,,,,,,,160,W,hexagon,1,0,,,5,,,,,,,,,,,,,repeat,number,numRpt,f,0.9241,vtsPrac,30,0,30,0,1,,,,,,,,,,,,,,,,,,,,,,,
297490,2022-12-05_23h30.52.934,vts_reward_expectancy_bt,2022.2.4,MacIntel,20.00080003,Chrome,1440,900,,,,,0,612,,,,,,,,,,,,,,,,,167,U,circle,1,0,,,5,,,,,,,,,,,,,repeat,number,numRpt,f,1.3633,vtsPrac,31,0,31,0,1,,,,,,,,,,,,,,,,,,,,,,,
297490,2022-12-05_23h30.52.934,vts_reward_expectancy_bt,2022.2.4,MacIntel,20.00080003,Chrome,1440,900,,,,,,,,,,,,,,,,,,,,,,,,,,,,,,,,,,,,,,,,,,,,,,,,,,,,,,,,,,,,,,,,,,,,,,,,,,,,
297490,2022-12-05_23h30.52.934,vts_reward_expectancy_bt,2022.2.4,MacIntel,20.00080003,Chrome,1440,900,,,,,,,,,,,,,,,,,,,,,,,,,,,,,,,,,,,,,,,,,,,,,,,,,,,,,,,,,,,,,,,,,,,,,,,,,,,,
297490,2022-12-05_23h30.52.934,vts_reward_expectancy_bt,2022.2.4,MacIntel,20.00080003,Chrome,1440,900,,,,,0,612,,,,,,,,,,,,,,,,,174,F,star,1,0,,,,,,,,,,,,,,,,repeat,number,numRpt,f,1.1477,noRew,,,,,,0,0,0,0,0,1,,,,,,,,,,,,,,,,,
297490,2022-12-05_23h30.52.934,vts_reward_expectancy_bt,2022.2.4,MacIntel,20.00080003,Chrome,1440,900,,,,,0,612,,,,,,,,,,,,,,,,,125,H,hexagon,1,0,,,,,,,,,,,,,,,,switch,letter,lettSwt,j,1.2311,noRew,,,,,,0,1,0,1,0,1,,,,,,,,,,,,,,,,,
297490,2022-12-05_23h30.52.934,vts_reward_expectancy_bt,2022.2.4,MacIntel,20.00080003,Chrome,1440,900,,,,,0,612,,,,,,,,,,,,,,,,,146,B,star,1,0,,,,,,,,,,,,,,,,repeat,letter,lettRpt,j,0.9817,noRew,,,,,,0,2,0,2,0,1,,,,,,,,,,,,,,,,,
297490,2022-12-05_23h30.52.934,vts_reward_expectancy_bt,2022.2.4,MacIntel,20.00080003,Chrome,1440,900,,,,,0,612,,,,,,,,,,,,,,,,,139,S,hexagon,1,0,,,,,,,,,,,,,,,,switch,number,numSwt,d,1.1649,noRew,,,,,,0,3,0,3,0,1,,,,,,,,,,,,,,,,,
297490,2022-12-05_23h30.52.934,vts_reward_expectancy_bt,2022.2.4,MacIntel,20.00080003,Chrome,1440,900,,,,,0,612,,,,,,,,,,,,,,,,,174,F,star,1,0,,,,,,,,,,,,,,,,switch,letter,lettSwt,j,0.8981,noRew,,,,,,0,4,0,4,0,1,,,,,,,,,,,,,,,,,
297490,2022-12-05_23h30.52.934,vts_reward_expectancy_bt,2022.2.4,MacIntel,20.00080003,Chrome,1440,900,,,,,0,612,,,,,,,,,,,,,,,,,125,H,hexagon,1,0,,,,,,,,,,,,,,,,switch,number,numSwt,d,1.1309,noRew,,,,,,0,5,0,5,0,1,,,,,,,,,,,,,,,,,
297490,2022-12-05_23h30.52.934,vts_reward_expectancy_bt,2022.2.4,MacIntel,20.00080003,Chrome,1440,900,,,,,0,612,,,,,,,,,,,,,,,,,146,B,star,1,0,,,,,,,,,,,,,,,,switch,letter,lettSwt,j,1.2488,noRew,,,,,,0,6,0,6,0,1,,,,,,,,,,,,,,,,,
297490,2022-12-05_23h30.52.934,vts_reward_expectancy_bt,2022.2.4,MacIntel,20.00080003,Chrome,1440,900,,,,,0,612,,,,,,,,,,,,,,,,,139,S,circle,1,0,,,,,,,,,,,,,,,,switch,number,numSwt,d,0.8482,noRew,,,,,,0,7,0,7,0,1,,,,,,,,,,,,,,,,,
297490,2022-12-05_23h30.52.934,vts_reward_expectancy_bt,2022.2.4,MacIntel,20.00080003,Chrome,1440,900,,,,,0,612,,,,,,,,,,,,,,,,,181,H,triangle,1,0,,,,,,,,,,,,,,,,repeat,number,numRpt,f,1.1136,noRew,,,,,,0,8,0,8,0,1,,,,,,,,,,,,,,,,,
297490,2022-12-05_23h30.52.934,vts_reward_expectancy_bt,2022.2.4,MacIntel,20.00080003,Chrome,1440,900,,,,,0,612,,,,,,,,,,,,,,,,,132,Y,hexagon,1,0,,,,,,,,,,,,,,,,switch,letter,lettSwt,k,1.3306,noRew,,,,,,0,9,0,9,0,1,,,,,,,,,,,,,,,,,
297490,2022-12-05_23h30.52.934,vts_reward_expectancy_bt,2022.2.4,MacIntel,20.00080003,Chrome,1440,900,,,,,0,612,,,,,,,,,,,,,,,,,160,F,triangle,1,0,,,,,,,,,,,,,,,,repeat,letter,lettRpt,j,0.7475,noRew,,,,,,0,10,0,10,0,1,,,,,,,,,,,,,,,,,
297490,2022-12-05_23h30.52.934,vts_reward_expectancy_bt,2022.2.4,MacIntel,20.00080003,Chrome,1440,900,,,,,0,612,,,,,,,,,,,,,,,,,146,D,hexagon,1,0,,,,,,,,,,,,,,,,repeat,letter,lettRpt,j,0.6646,noRew,,,,,,0,11,0,11,0,1,,,,,,,,,,,,,,,,,
297490,2022-12-05_23h30.52.934,vts_reward_expectancy_bt,2022.2.4,MacIntel,20.00080003,Chrome,1440,900,,,,,0,612,,,,,,,,,,,,,,,,,160,W,star,0,0,,,,,,,,,,,,,,,,repeat,letter,NA,j,1.1729,noRew,,,,,,0,12,0,12,0,1,,,,,,,,,,,,,,,,,
297490,2022-12-05_23h30.52.934,vts_reward_expectancy_bt,2022.2.4,MacIntel,20.00080003,Chrome,1440,900,,,,,0,612,,,,,,,,,,,,,,,,,167,U,circle,1,1,,,,,,,,,,,,,,,,switch,number,numSwt,f,1.2359,noRew,,,,,,0,13,0,13,0,1,,,,,,,,,,,,,,,,,
297490,2022-12-05_23h30.52.934,vts_reward_expectancy_bt,2022.2.4,MacIntel,20.00080003,Chrome,1440,900,,,,,0,612,,,,,,,,,,,,,,,,,174,D,triangle,1,0,,,,,,,,,,,,,,,,switch,letter,lettSwt,j,1.1344,noRew,,,,,,0,14,0,14,0,1,,,,,,,,,,,,,,,,,
297490,2022-12-05_23h30.52.934,vts_reward_expectancy_bt,2022.2.4,MacIntel,20.00080003,Chrome,1440,900,,,,,0,612,,,,,,,,,,,,,,,,,139,H,hexagon,1,0,,,,,,,,,,,,,,,,switch,number,numSwt,d,1.1519,noRew,,,,,,0,15,0,15,0,1,,,,,,,,,,,,,,,,,
297490,2022-12-05_23h30.52.934,vts_reward_expectancy_bt,2022.2.4,MacIntel,20.00080003,Chrome,1440,900,,,,,0,612,,,,,,,,,,,,,,,,,181,S,hexagon,1,0,,,,,,,,,,,,,,,,repeat,number,numRpt,f,1.019,noRew,,,,,,0,16,0,16,0,1,,,,,,,,,,,,,,,,,
297490,2022-12-05_23h30.52.934,vts_reward_expectancy_bt,2022.2.4,MacIntel,20.00080003,Chrome,1440,900,,,,,0,612,,,,,,,,,,,,,,,,,132,W,circle,1,0,,,,,,,,,,,,,,,,repeat,number,numRpt,d,1.331,noRew,,,,,,0,17,0,17,0,1,,,,,,,,,,,,,,,,,
297490,2022-12-05_23h30.52.934,vts_reward_expectancy_bt,2022.2.4,MacIntel,20.00080003,Chrome,1440,900,,,,,0,612,,,,,,,,,,,,,,,,,139,Y,circle,1,0,,,,,,,,,,,,,,,,switch,letter,lettSwt,k,1.9704,noRew,,,,,,0,18,0,18,0,1,,,,,,,,,,,,,,,,,
297490,2022-12-05_23h30.52.934,vts_reward_expectancy_bt,2022.2.4,MacIntel,20.00080003,Chrome,1440,900,,,,,0,612,,,,,,,,,,,,,,,,,125,F,triangle,1,0,,,,,,,,,,,,,,,,repeat,letter,lettRpt,j,0.8004,noRew,,,,,,0,19,0,19,0,1,,,,,,,,,,,,,,,,,
297490,2022-12-05_23h30.52.934,vts_reward_expectancy_bt,2022.2.4,MacIntel,20.00080003,Chrome,1440,900,,,,,0,612,,,,,,,,,,,,,,,,,146,B,circle,1,0,,,,,,,,,,,,,,,,repeat,letter,lettRpt,j,0.6525,noRew,,,,,,0,20,0,20,0,1,,,,,,,,,,,,,,,,,
297490,2022-12-05_23h30.52.934,vts_reward_expectancy_bt,2022.2.4,MacIntel,20.00080003,Chrome,1440,900,,,,,0,612,,,,,,,,,,,,,,,,,160,Y,star,1,0,,,,,,,,,,,,,,,,repeat,letter,lettRpt,k,0.8391,noRew,,,,,,0,21,0,21,0,1,,,,,,,,,,,,,,,,,
297490,2022-12-05_23h30.52.934,vts_reward_expectancy_bt,2022.2.4,MacIntel,20.00080003,Chrome,1440,900,,,,,0,612,,,,,,,,,,,,,,,,,174,W,hexagon,1,0,,,,,,,,,,,,,,,,switch,number,numSwt,f,1.3397,noRew,,,,,,0,22,0,22,0,1,,,,,,,,,,,,,,,,,
297490,2022-12-05_23h30.52.934,vts_reward_expectancy_bt,2022.2.4,MacIntel,20.00080003,Chrome,1440,900,,,,,0,612,,,,,,,,,,,,,,,,,125,H,circle,1,0,,,,,,,,,,,,,,,,repeat,number,numRpt,d,1.4638,noRew,,,,,,0,23,0,23,0,1,,,,,,,,,,,,,,,,,
297490,2022-12-05_23h30.52.934,vts_reward_expectancy_bt,2022.2.4,MacIntel,20.00080003,Chrome,1440,900,,,,,0,612,,,,,,,,,,,,,,,,,167,H,triangle,1,0,,,,,,,,,,,,,,,,repeat,number,numRpt,f,2.0477,noRew,,,,,,0,24,0,24,0,1,,,,,,,,,,,,,,,,,
297490,2022-12-05_23h30.52.934,vts_reward_expectancy_bt,2022.2.4,MacIntel,20.00080003,Chrome,1440,900,,,,,0,612,,,,,,,,,,,,,,,,,139,W,star,1,0,,,,,,,,,,,,,,,,repeat,number,numRpt,d,0.9276,noRew,,,,,,0,25,0,25,0,1,,,,,,,,,,,,,,,,,
297490,2022-12-05_23h30.52.934,vts_reward_expectancy_bt,2022.2.4,MacIntel,20.00080003,Chrome,1440,900,,,,,0,612,,,,,,,,,,,,,,,,,174,B,circle,1,0,,,,,,,,,,,,,,,,switch,letter,lettSwt,j,0.5704,noRew,,,,,,0,26,0,26,0,1,,,,,,,,,,,,,,,,,
297490,2022-12-05_23h30.52.934,vts_reward_expectancy_bt,2022.2.4,MacIntel,20.00080003,Chrome,1440,900,,,,,0,612,,,,,,,,,,,,,,,,,146,F,hexagon,1,0,,,,,,,,,,,,,,,,repeat,letter,lettRpt,j,0.8861,noRew,,,,,,0,27,0,27,0,1,,,,,,,,,,,,,,,,,
297490,2022-12-05_23h30.52.934,vts_reward_expectancy_bt,2022.2.4,MacIntel,20.00080003,Chrome,1440,900,,,,,0,612,,,,,,,,,,,,,,,,,132,D,circle,1,0,,,,,,,,,,,,,,,,repeat,letter,lettRpt,j,0.6867,noRew,,,,,,0,28,0,28,0,1,,,,,,,,,,,,,,,,,
297490,2022-12-05_23h30.52.934,vts_reward_expectancy_bt,2022.2.4,MacIntel,20.00080003,Chrome,1440,900,,,,,0,612,,,,,,,,,,,,,,,,,160,Y,star,1,0,,,,,,,,,,,,,,,,switch,number,numSwt,f,0.9195,noRew,,,,,,0,29,0,29,0,1,,,,,,,,,,,,,,,,,
297490,2022-12-05_23h30.52.934,vts_reward_expectancy_bt,2022.2.4,MacIntel,20.00080003,Chrome,1440,900,,,,,0,612,,,,,,,,,,,,,,,,,139,H,hexagon,1,0,,,,,,,,,,,,,,,,repeat,number,numRpt,d,1.5525,noRew,,,,,,0,30,0,30,0,1,,,,,,,,,,,,,,,,,
297490,2022-12-05_23h30.52.934,vts_reward_expectancy_bt,2022.2.4,MacIntel,20.00080003,Chrome,1440,900,,,,,0,612,,,,,,,,,,,,,,,,,167,B,star,1,0,,,,,,,,,,,,,,,,switch,letter,lettSwt,j,0.631,noRew,,,,,,0,31,0,31,0,1,,,,,,,,,,,,,,,,,
297490,2022-12-05_23h30.52.934,vts_reward_expectancy_bt,2022.2.4,MacIntel,20.00080003,Chrome,1440,900,,,,,0,612,,,,,,,,,,,,,,,,,160,H,triangle,1,0,,,,,,,,,,,,,,,,switch,number,numSwt,f,1.0465,noRew,,,,,,0,32,0,32,0,1,,,,,,,,,,,,,,,,,
297490,2022-12-05_23h30.52.934,vts_reward_expectancy_bt,2022.2.4,MacIntel,20.00080003,Chrome,1440,900,,,,,0,612,,,,,,,,,,,,,,,,,139,D,hexagon,1,0,,,,,,,,,,,,,,,,switch,letter,lettSwt,j,1.0555,noRew,,,,,,0,33,0,33,0,1,,,,,,,,,,,,,,,,,
297490,2022-12-05_23h30.52.934,vts_reward_expectancy_bt,2022.2.4,MacIntel,20.00080003,Chrome,1440,900,,,,,0,612,,,,,,,,,,,,,,,,,167,B,star,1,0,,,,,,,,,,,,,,,,repeat,letter,lettRpt,j,0.7124,noRew,,,,,,0,34,0,34,0,1,,,,,,,,,,,,,,,,,
297490,2022-12-05_23h30.52.934,vts_reward_expectancy_bt,2022.2.4,MacIntel,20.00080003,Chrome,1440,900,,,,,0,612,,,,,,,,,,,,,,,,,181,Y,circle,1,0,,,,,,,,,,,,,,,,switch,number,numSwt,f,0.6567,noRew,,,,,,0,35,0,35,0,1,,,,,,,,,,,,,,,,,
297490,2022-12-05_23h30.52.934,vts_reward_expectancy_bt,2022.2.4,MacIntel,20.00080003,Chrome,1440,900,,,,,0,612,,,,,,,,,,,,,,,,,167,S,hexagon,1,0,,,,,,,,,,,,,,,,repeat,number,numRpt,f,1.1165,noRew,,,,,,0,36,0,36,0,1,,,,,,,,,,,,,,,,,
297490,2022-12-05_23h30.52.934,vts_reward_expectancy_bt,2022.2.4,MacIntel,20.00080003,Chrome,1440,900,,,,,0,612,,,,,,,,,,,,,,,,,132,H,circle,-1,0,,,,,,,,,,,,,,,,switch,no_choice,NA,,,noRew,,,,,,0,37,0,37,0,1,,,,,,,,,,,,,,,,,
297490,2022-12-05_23h30.52.934,vts_reward_expectancy_bt,2022.2.4,MacIntel,20.00080003,Chrome,1440,900,,,,,0,612,,,,,,,,,,,,,,,,,174,Y,triangle,1,0,,,,,,,,,,,,,,,,switch,number,numSwt,f,1.4635,noRew,,,,,,0,38,0,38,0,1,,,,,,,,,,,,,,,,,
297490,2022-12-05_23h30.52.934,vts_reward_expectancy_bt,2022.2.4,MacIntel,20.00080003,Chrome,1440,900,,,,,0,612,,,,,,,,,,,,,,,,,125,U,hexagon,1,0,,,,,,,,,,,,,,,,repeat,number,numRpt,d,1.4137,noRew,,,,,,0,39,0,39,0,1,,,,,,,,,,,,,,,,,
297490,2022-12-05_23h30.52.934,vts_reward_expectancy_bt,2022.2.4,MacIntel,20.00080003,Chrome,1440,900,,,,,0,612,,,,,,,,,,,,,,,,,139,Y,star,1,0,,,,,,,,,,,,,,,,repeat,number,numRpt,d,0.972,noRew,,,,,,0,40,0,40,0,1,,,,,,,,,,,,,,,,,
297490,2022-12-05_23h30.52.934,vts_reward_expectancy_bt,2022.2.4,MacIntel,20.00080003,Chrome,1440,900,,,,,0,612,,,,,,,,,,,,,,,,,174,D,hexagon,1,0,,,,,,,,,,,,,,,,switch,letter,lettSwt,j,1.1347,noRew,,,,,,0,41,0,41,0,1,,,,,,,,,,,,,,,,,
297490,2022-12-05_23h30.52.934,vts_reward_expectancy_bt,2022.2.4,MacIntel,20.00080003,Chrome,1440,900,,,,,0,612,,,,,,,,,,,,,,,,,146,U,triangle,1,0,,,,,,,,,,,,,,,,switch,number,numSwt,d,1.6851,noRew,,,,,,0,42,0,42,0,1,,,,,,,,,,,,,,,,,
297490,2022-12-05_23h30.52.934,vts_reward_expectancy_bt,2022.2.4,MacIntel,20.00080003,Chrome,1440,900,,,,,0,612,,,,,,,,,,,,,,,,,181,F,circle,1,0,,,,,,,,,,,,,,,,repeat,number,numRpt,f,0.8295,noRew,,,,,,0,43,0,43,0,1,,,,,,,,,,,,,,,,,
297490,2022-12-05_23h30.52.934,vts_reward_expectancy_bt,2022.2.4,MacIntel,20.00080003,Chrome,1440,900,,,,,0,612,,,,,,,,,,,,,,,,,181,B,star,1,0,,,,,,,,,,,,,,,,repeat,number,numRpt,f,1.0504,noRew,,,,,,0,44,0,44,0,1,,,,,,,,,,,,,,,,,
297490,2022-12-05_23h30.52.934,vts_reward_expectancy_bt,2022.2.4,MacIntel,20.00080003,Chrome,1440,900,,,,,0,612,,,,,,,,,,,,,,,,,174,W,hexagon,1,0,,,,,,,,,,,,,,,,repeat,number,numRpt,f,0.6968,noRew,,,,,,0,45,0,45,0,1,,,,,,,,,,,,,,,,,
297490,2022-12-05_23h30.52.934,vts_reward_expectancy_bt,2022.2.4,MacIntel,20.00080003,Chrome,1440,900,,,,,0,612,,,,,,,,,,,,,,,,,160,F,star,1,0,,,,,,,,,,,,,,,,repeat,number,numRpt,f,0.9308,noRew,,,,,,0,46,0,46,0,1,,,,,,,,,,,,,,,,,
297490,2022-12-05_23h30.52.934,vts_reward_expectancy_bt,2022.2.4,MacIntel,20.00080003,Chrome,1440,900,,,,,0,612,,,,,,,,,,,,,,,,,139,S,triangle,1,0,,,,,,,,,,,,,,,,repeat,number,numRpt,d,0.9816,noRew,,,,,,0,47,0,47,0,1,,,,,,,,,,,,,,,,,
297490,2022-12-05_23h30.52.934,vts_reward_expectancy_bt,2022.2.4,MacIntel,20.00080003,Chrome,1440,900,,,,,0,612,,,,,,,,,,,,,,,,,174,Y,hexagon,1,0,,,,,,,,,,,,,,,,switch,letter,lettSwt,k,1.1145,noRew,,,,,,0,48,0,48,0,1,,,,,,,,,,,,,,,,,
297490,2022-12-05_23h30.52.934,vts_reward_expectancy_bt,2022.2.4,MacIntel,20.00080003,Chrome,1440,900,,,,,0,612,,,,,,,,,,,,,,,,,139,H,triangle,1,0,,,,,,,,,,,,,,,,switch,number,numSwt,d,1.164,noRew,,,,,,0,49,0,49,0,1,,,,,,,,,,,,,,,,,
297490,2022-12-05_23h30.52.934,vts_reward_expectancy_bt,2022.2.4,MacIntel,20.00080003,Chrome,1440,900,,,,,0,612,,,,,,,,,,,,,,,,,160,U,triangle,1,0,,,,,,,,,,,,,,,,switch,letter,lettSwt,k,1.3991,noRew,,,,,,0,50,0,50,0,1,,,,,,,,,,,,,,,,,
297490,2022-12-05_23h30.52.934,vts_reward_expectancy_bt,2022.2.4,MacIntel,20.00080003,Chrome,1440,900,,,,,0,612,,,,,,,,,,,,,,,,,125,W,circle,1,0,,,,,,,,,,,,,,,,switch,number,numSwt,d,1.2146,noRew,,,,,,0,51,0,51,0,1,,,,,,,,,,,,,,,,,
297490,2022-12-05_23h30.52.934,vts_reward_expectancy_bt,2022.2.4,MacIntel,20.00080003,Chrome,1440,900,,,,,0,612,,,,,,,,,,,,,,,,,146,H,star,1,0,,,,,,,,,,,,,,,,repeat,number,numRpt,d,1.4973,noRew,,,,,,0,52,0,52,0,1,,,,,,,,,,,,,,,,,
297490,2022-12-05_23h30.52.934,vts_reward_expectancy_bt,2022.2.4,MacIntel,20.00080003,Chrome,1440,900,,,,,0,612,,,,,,,,,,,,,,,,,167,U,triangle,1,0,,,,,,,,,,,,,,,,repeat,number,numRpt,f,1.8312,noRew,,,,,,0,53,0,53,0,1,,,,,,,,,,,,,,,,,
297490,2022-12-05_23h30.52.934,vts_reward_expectancy_bt,2022.2.4,MacIntel,20.00080003,Chrome,1440,900,,,,,0,612,,,,,,,,,,,,,,,,,132,S,star,1,0,,,,,,,,,,,,,,,,switch,letter,lettSwt,k,1.1969,noRew,,,,,,0,54,0,54,0,1,,,,,,,,,,,,,,,,,
297490,2022-12-05_23h30.52.934,vts_reward_expectancy_bt,2022.2.4,MacIntel,20.00080003,Chrome,1440,900,,,,,0,612,,,,,,,,,,,,,,,,,139,D,circle,1,0,,,,,,,,,,,,,,,,repeat,letter,lettRpt,j,0.7812,noRew,,,,,,0,55,0,55,0,1,,,,,,,,,,,,,,,,,
297490,2022-12-05_23h30.52.934,vts_reward_expectancy_bt,2022.2.4,MacIntel,20.00080003,Chrome,1440,900,,,,,0,612,,,,,,,,,,,,,,,,,132,D,circle,1,0,,,,,,,,,,,,,,,,repeat,letter,lettRpt,j,0.5821,noRew,,,,,,0,56,0,56,0,1,,,,,,,,,,,,,,,,,
297490,2022-12-05_23h30.52.934,vts_reward_expectancy_bt,2022.2.4,MacIntel,20.00080003,Chrome,1440,900,,,,,0,612,,,,,,,,,,,,,,,,,125,H,triangle,0,0,,,,,,,,,,,,,,,,repeat,letter,NA,k,0.9147,noRew,,,,,,0,57,0,57,0,1,,,,,,,,,,,,,,,,,
297490,2022-12-05_23h30.52.934,vts_reward_expectancy_bt,2022.2.4,MacIntel,20.00080003,Chrome,1440,900,,,,,0,612,,,,,,,,,,,,,,,,,174,S,circle,1,1,,,,,,,,,,,,,,,,repeat,letter,lettRpt,k,1.0138,noRew,,,,,,0,58,0,58,0,1,,,,,,,,,,,,,,,,,
297490,2022-12-05_23h30.52.934,vts_reward_expectancy_bt,2022.2.4,MacIntel,20.00080003,Chrome,1440,900,,,,,0,612,,,,,,,,,,,,,,,,,181,B,triangle,0,0,,,,,,,,,,,,,,,,switch,number,NA,d,1.0815,noRew,,,,,,0,59,0,59,0,1,,,,,,,,,,,,,,,,,
297490,2022-12-05_23h30.52.934,vts_reward_expectancy_bt,2022.2.4,MacIntel,20.00080003,Chrome,1440,900,,,,,0,612,,,,,,,,,,,,,,,,,181,S,triangle,1,1,,,,,,,,,,,,,,,,repeat,number,numRpt,f,1.6665,noRew,,,,,,0,60,0,60,0,1,,,,,,,,,,,,,,,,,
297490,2022-12-05_23h30.52.934,vts_reward_expectancy_bt,2022.2.4,MacIntel,20.00080003,Chrome,1440,900,,,,,0,612,,,,,,,,,,,,,,,,,125,Y,star,1,0,,,,,,,,,,,,,,,,repeat,number,numRpt,d,1.2486,noRew,,,,,,0,61,0,61,0,1,,,,,,,,,,,,,,,,,
297490,2022-12-05_23h30.52.934,vts_reward_expectancy_bt,2022.2.4,MacIntel,20.00080003,Chrome,1440,900,,,,,0,612,,,,,,,,,,,,,,,,,146,U,hexagon,1,0,,,,,,,,,,,,,,,,switch,letter,lettSwt,k,0.9649,noRew,,,,,,0,62,0,62,0,1,,,,,,,,,,,,,,,,,
297490,2022-12-05_23h30.52.934,vts_reward_expectancy_bt,2022.2.4,MacIntel,20.00080003,Chrome,1440,900,,,,,0,612,,,,,,,,,,,,,,,,,132,F,circle,1,0,,,,,,,,,,,,,,,,switch,number,numSwt,d,0.7991,noRew,,,,,,0,63,0,63,0,1,,,,,,,,,,,,,,,,,
297490,2022-12-05_23h30.52.934,vts_reward_expectancy_bt,2022.2.4,MacIntel,20.00080003,Chrome,1440,900,,,,,,,,,,,,,,,,,,,,,,,,,,,,,,,,,,,,,,,,,,,,,,,,,,,,,,,,,,,,,,,,,,,,,,,,,,,,
297490,2022-12-05_23h30.52.934,vts_reward_expectancy_bt,2022.2.4,MacIntel,20.00080003,Chrome,1440,900,,,,,0,612,,,,,,,,,,,,,,,,,174,F,triangle,0,0,,,,,,,,,,,,,,,,repeat,number,NA,d,1.0654,noRew,,,,,,0,,,,,,space,12.411,low,0,0,0,0,1,,,,,,,,,
297490,2022-12-05_23h30.52.934,vts_reward_expectancy_bt,2022.2.4,MacIntel,20.00080003,Chrome,1440,900,,,,,10,622,,,,,,,,,,,,,,,,,132,B,circle,1,1,,,,,,,,,,,,,,,,repeat,number,numRpt,d,0.7635,Hi,,,,,,0,,,,,,,,low,1,0,1,0,1,,,,,,,,,
297490,2022-12-05_23h30.52.934,vts_reward_expectancy_bt,2022.2.4,MacIntel,20.00080003,Chrome,1440,900,,,,,10,632,,,,,,,,,,,,,,,,,181,S,star,1,0,,,,,,,,,,,,,,,,switch,letter,lettSwt,k,1.5572,Lo,,,,,,0,,,,,,,,low,2,0,2,0,1,,,,,,,,,
297490,2022-12-05_23h30.52.934,vts_reward_expectancy_bt,2022.2.4,MacIntel,20.00080003,Chrome,1440,900,,,,,10,642,,,,,,,,,,,,,,,,,125,U,hexagon,1,0,,,,,,,,,,,,,,,,switch,number,numSwt,d,0.8472,Lo,,,,,,0,,,,,,,,low,3,0,3,0,1,,,,,,,,,
297490,2022-12-05_23h30.52.934,vts_reward_expectancy_bt,2022.2.4,MacIntel,20.00080003,Chrome,1440,900,,,,,0,642,,,,,,,,,,,,,,,,,146,W,triangle,0,0,,,,,,,,,,,,,,,,repeat,number,NA,f,1.0526,Lo,,,,,,0,,,,,,,,low,4,0,4,0,1,,,,,,,,,
297490,2022-12-05_23h30.52.934,vts_reward_expectancy_bt,2022.2.4,MacIntel,20.00080003,Chrome,1440,900,,,,,1,643,,,,,,,,,,,,,,,,,139,H,circle,1,1,,,,,,,,,,,,,,,,repeat,number,numRpt,d,0.6499,Hi,,,,,,0,,,,,,,,low,5,0,5,0,1,,,,,,,,,
297490,2022-12-05_23h30.52.934,vts_reward_expectancy_bt,2022.2.4,MacIntel,20.00080003,Chrome,1440,900,,,,,1,644,,,,,,,,,,,,,,,,,160,D,star,1,0,,,,,,,,,,,,,,,,switch,letter,lettSwt,j,0.7154,Lo,,,,,,0,,,,,,,,low,6,0,6,0,1,,,,,,,,,
297490,2022-12-05_23h30.52.934,vts_reward_expectancy_bt,2022.2.4,MacIntel,20.00080003,Chrome,1440,900,,,,,10,654,,,,,,,,,,,,,,,,,167,Y,hexagon,1,0,,,,,,,,,,,,,,,,repeat,letter,lettRpt,k,0.8821,Lo,,,,,,0,,,,,,,,low,7,0,7,0,1,,,,,,,,,
297490,2022-12-05_23h30.52.934,vts_reward_expectancy_bt,2022.2.4,MacIntel,20.00080003,Chrome,1440,900,,,,,10,664,,,,,,,,,,,,,,,,,174,F,star,1,0,,,,,,,,,,,,,,,,repeat,letter,lettRpt,j,0.8124,Lo,,,,,,0,,,,,,,,low,8,0,8,0,1,,,,,,,,,
297490,2022-12-05_23h30.52.934,vts_reward_expectancy_bt,2022.2.4,MacIntel,20.00080003,Chrome,1440,900,,,,,1,665,,,,,,,,,,,,,,,,,132,B,hexagon,1,0,,,,,,,,,,,,,,,,repeat,letter,lettRpt,j,0.7488,Lo,,,,,,0,,,,,,,,low,9,0,9,0,1,,,,,,,,,
297490,2022-12-05_23h30.52.934,vts_reward_expectancy_bt,2022.2.4,MacIntel,20.00080003,Chrome,1440,900,,,,,0,665,,,,,,,,,,,,,,,,,181,S,triangle,1,0,,,,,,,,,,,,,,,,switch,number,numSwt,f,1.6949,Hi,,,,,,0,,,,,,,,low,10,0,10,0,1,,,,,,,,,
297490,2022-12-05_23h30.52.934,vts_reward_expectancy_bt,2022.2.4,MacIntel,20.00080003,Chrome,1440,900,,,,,1,666,,,,,,,,,,,,,,,,,125,U,circle,1,0,,,,,,,,,,,,,,,,repeat,number,numRpt,d,0.5538,Hi,,,,,,0,,,,,,,,low,11,0,11,0,1,,,,,,,,,
297490,2022-12-05_23h30.52.934,vts_reward_expectancy_bt,2022.2.4,MacIntel,20.00080003,Chrome,1440,900,,,,,10,676,,,,,,,,,,,,,,,,,146,W,hexagon,1,0,,,,,,,,,,,,,,,,switch,letter,lettSwt,k,1.2736,Lo,,,,,,0,,,,,,,,low,12,0,12,0,1,,,,,,,,,
297490,2022-12-05_23h30.52.934,vts_reward_expectancy_bt,2022.2.4,MacIntel,20.00080003,Chrome,1440,900,,,,,1,677,,,,,,,,,,,,,,,,,139,H,triangle,1,0,,,,,,,,,,,,,,,,switch,number,numSwt,d,0.7587,Hi,,,,,,0,,,,,,,,low,13,0,13,0,1,,,,,,,,,
297490,2022-12-05_23h30.52.934,vts_reward_expectancy_bt,2022.2.4,MacIntel,20.00080003,Chrome,1440,900,,,,,10,687,,,,,,,,,,,,,,,,,160,D,star,1,0,,,,,,,,,,,,,,,,switch,letter,lettSwt,j,0.8801,Lo,,,,,,0,,,,,,,,low,14,0,14,0,1,,,,,,,,,
297490,2022-12-05_23h30.52.934,vts_reward_expectancy_bt,2022.2.4,MacIntel,20.00080003,Chrome,1440,900,,,,,0,687,,,,,,,,,,,,,,,,,167,Y,circle,1,0,,,,,,,,,,,,,,,,switch,number,numSwt,f,1.253,Hi,,,,,,0,,,,,,,,low,15,0,15,0,1,,,,,,,,,
297490,2022-12-05_23h30.52.934,vts_reward_expectancy_bt,2022.2.4,MacIntel,20.00080003,Chrome,1440,900,,,,,1,688,,,,,,,,,,,,,,,,,139,F,hexagon,1,0,,,,,,,,,,,,,,,,repeat,number,numRpt,d,0.563,Lo,,,,,,0,,,,,,,,low,16,0,16,0,1,,,,,,,,,
297490,2022-12-05_23h30.52.934,vts_reward_expectancy_bt,2022.2.4,MacIntel,20.00080003,Chrome,1440,900,,,,,0,688,,,,,,,,,,,,,,,,,146,S,circle,1,0,,,,,,,,,,,,,,,,switch,letter,lettSwt,k,1.0791,Hi,,,,,,0,,,,,,,,low,17,0,17,0,1,,,,,,,,,
297490,2022-12-05_23h30.52.934,vts_reward_expectancy_bt,2022.2.4,MacIntel,20.00080003,Chrome,1440,900,,,,,10,698,,,,,,,,,,,,,,,,,174,H,triangle,1,0,,,,,,,,,,,,,,,,switch,number,numSwt,f,0.569,Hi,,,,,,0,,,,,,,,low,18,0,18,0,1,,,,,,,,,
297490,2022-12-05_23h30.52.934,vts_reward_expectancy_bt,2022.2.4,MacIntel,20.00080003,Chrome,1440,900,,,,,1,699,,,,,,,,,,,,,,,,,132,D,star,1,0,,,,,,,,,,,,,,,,repeat,number,numRpt,d,0.485,Lo,,,,,,0,,,,,,,,low,19,0,19,0,1,,,,,,,,,
297490,2022-12-05_23h30.52.934,vts_reward_expectancy_bt,2022.2.4,MacIntel,20.00080003,Chrome,1440,900,,,,,10,709,,,,,,,,,,,,,,,,,160,Y,circle,1,0,,,,,,,,,,,,,,,,switch,letter,lettSwt,k,0.7453,Hi,,,,,,0,,,,,,,,low,20,0,20,0,1,,,,,,,,,
297490,2022-12-05_23h30.52.934,vts_reward_expectancy_bt,2022.2.4,MacIntel,20.00080003,Chrome,1440,900,,,,,1,710,,,,,,,,,,,,,,,,,167,U,triangle,1,0,,,,,,,,,,,,,,,,switch,number,numSwt,f,0.6023,Hi,,,,,,0,,,,,,,,low,21,0,21,0,1,,,,,,,,,
297490,2022-12-05_23h30.52.934,vts_reward_expectancy_bt,2022.2.4,MacIntel,20.00080003,Chrome,1440,900,,,,,1,711,,,,,,,,,,,,,,,,,181,B,star,1,0,,,,,,,,,,,,,,,,repeat,number,numRpt,f,0.7112,Lo,,,,,,0,,,,,,,,low,22,0,22,0,1,,,,,,,,,
297490,2022-12-05_23h30.52.934,vts_reward_expectancy_bt,2022.2.4,MacIntel,20.00080003,Chrome,1440,900,,,,,10,721,,,,,,,,,,,,,,,,,125,W,hexagon,1,0,,,,,,,,,,,,,,,,switch,letter,lettSwt,k,0.9862,Lo,,,,,,0,,,,,,,,low,23,0,23,0,1,,,,,,,,,
297490,2022-12-05_23h30.52.934,vts_reward_expectancy_bt,2022.2.4,MacIntel,20.00080003,Chrome,1440,900,,,,,10,731,,,,,,,,,,,,,,,,,160,B,star,1,0,,,,,,,,,,,,,,,,repeat,letter,lettRpt,j,0.5069,Lo,,,,,,0,,,,,,,,low,24,0,24,0,1,,,,,,,,,
297490,2022-12-05_23h30.52.934,vts_reward_expectancy_bt,2022.2.4,MacIntel,20.00080003,Chrome,1440,900,,,,,0,731,,,,,,,,,,,,,,,,,181,D,circle,1,0,,,,,,,,,,,,,,,,repeat,letter,lettRpt,j,0.7987,Hi,,,,,,0,,,,,,,,low,25,0,25,0,1,,,,,,,,,
297490,2022-12-05_23h30.52.934,vts_reward_expectancy_bt,2022.2.4,MacIntel,20.00080003,Chrome,1440,900,,,,,10,741,,,,,,,,,,,,,,,,,146,H,hexagon,1,0,,,,,,,,,,,,,,,,repeat,letter,lettRpt,j,0.7789,Lo,,,,,,0,,,,,,,,low,26,0,26,0,1,,,,,,,,,
297490,2022-12-05_23h30.52.934,vts_reward_expectancy_bt,2022.2.4,MacIntel,20.00080003,Chrome,1440,900,,,,,10,751,,,,,,,,,,,,,,,,,125,Y,triangle,1,0,,,,,,,,,,,,,,,,switch,number,numSwt,d,0.5854,Hi,,,,,,0,,,,,,,,low,27,0,27,0,1,,,,,,,,,
297490,2022-12-05_23h30.52.934,vts_reward_expectancy_bt,2022.2.4,MacIntel,20.00080003,Chrome,1440,900,,,,,10,761,,,,,,,,,,,,,,,,,174,F,circle,1,0,,,,,,,,,,,,,,,,repeat,number,numRpt,f,0.6838,Hi,,,,,,0,,,,,,,,low,28,0,28,0,1,,,,,,,,,
297490,2022-12-05_23h30.52.934,vts_reward_expectancy_bt,2022.2.4,MacIntel,20.00080003,Chrome,1440,900,,,,,1,762,,,,,,,,,,,,,,,,,132,S,hexagon,1,0,,,,,,,,,,,,,,,,switch,letter,lettSwt,k,0.688,Lo,,,,,,0,,,,,,,,low,29,0,29,0,1,,,,,,,,,
297490,2022-12-05_23h30.52.934,vts_reward_expectancy_bt,2022.2.4,MacIntel,20.00080003,Chrome,1440,900,,,,,10,772,,,,,,,,,,,,,,,,,167,U,star,1,0,,,,,,,,,,,,,,,,switch,number,numSwt,f,0.5358,Lo,,,,,,0,,,,,,,,low,30,0,30,0,1,,,,,,,,,
297490,2022-12-05_23h30.52.934,vts_reward_expectancy_bt,2022.2.4,MacIntel,20.00080003,Chrome,1440,900,,,,,0,772,,,,,,,,,,,,,,,,,139,W,triangle,1,0,,,,,,,,,,,,,,,,repeat,number,numRpt,d,1.2633,Hi,,,,,,0,,,,,,,,low,31,0,31,0,1,,,,,,,,,
297490,2022-12-05_23h30.52.934,vts_reward_expectancy_bt,2022.2.4,MacIntel,20.00080003,Chrome,1440,900,,,,,1,773,,,,,,,,,,,,,,,,,160,F,star,1,0,,,,,,,,,,,,,,,,repeat,number,numRpt,f,0.6781,Lo,,,,,,1,,,,,,space,5.8604,low,0,0,0,0,1,,,,,,,,,
297490,2022-12-05_23h30.52.934,vts_reward_expectancy_bt,2022.2.4,MacIntel,20.00080003,Chrome,1440,900,,,,,0,773,,,,,,,,,,,,,,,,,181,S,triangle,1,0,,,,,,,,,,,,,,,,repeat,number,numRpt,f,0.5907,Hi,,,,,,1,,,,,,,,low,1,0,1,0,1,,,,,,,,,
297490,2022-12-05_23h30.52.934,vts_reward_expectancy_bt,2022.2.4,MacIntel,20.00080003,Chrome,1440,900,,,,,10,783,,,,,,,,,,,,,,,,,139,W,circle,1,0,,,,,,,,,,,,,,,,repeat,number,numRpt,d,0.564,Hi,,,,,,1,,,,,,,,low,2,0,2,0,1,,,,,,,,,
297490,2022-12-05_23h30.52.934,vts_reward_expectancy_bt,2022.2.4,MacIntel,20.00080003,Chrome,1440,900,,,,,1,784,,,,,,,,,,,,,,,,,125,D,hexagon,1,0,,,,,,,,,,,,,,,,switch,letter,lettSwt,j,0.6517,Lo,,,,,,1,,,,,,,,low,3,0,3,0,1,,,,,,,,,
297490,2022-12-05_23h30.52.934,vts_reward_expectancy_bt,2022.2.4,MacIntel,20.00080003,Chrome,1440,900,,,,,10,794,,,,,,,,,,,,,,,,,146,B,star,1,0,,,,,,,,,,,,,,,,repeat,letter,lettRpt,j,0.5126,Lo,,,,,,1,,,,,,,,low,4,0,4,0,1,,,,,,,,,
297490,2022-12-05_23h30.52.934,vts_reward_expectancy_bt,2022.2.4,MacIntel,20.00080003,Chrome,1440,900,,,,,0,794,,,,,,,,,,,,,,,,,167,Y,triangle,1,0,,,,,,,,,,,,,,,,switch,number,numSwt,f,0.634,Hi,,,,,,1,,,,,,,,low,5,0,5,0,1,,,,,,,,,
297490,2022-12-05_23h30.52.934,vts_reward_expectancy_bt,2022.2.4,MacIntel,20.00080003,Chrome,1440,900,,,,,0,794,,,,,,,,,,,,,,,,,174,U,circle,0,0,,,,,,,,,,,,,,,,switch,letter,NA,j,0.8577,Hi,,,,,,1,,,,,,,,low,6,0,6,0,1,,,,,,,,,
297490,2022-12-05_23h30.52.934,vts_reward_expectancy_bt,2022.2.4,MacIntel,20.00080003,Chrome,1440,900,,,,,10,804,,,,,,,,,,,,,,,,,132,H,hexagon,1,1,,,,,,,,,,,,,,,,switch,number,numSwt,d,0.5856,Lo,,,,,,1,,,,,,,,low,7,0,7,0,1,,,,,,,,,
297490,2022-12-05_23h30.52.934,vts_reward_expectancy_bt,2022.2.4,MacIntel,20.00080003,Chrome,1440,900,,,,,10,814,,,,,,,,,,,,,,,,,160,F,circle,1,0,,,,,,,,,,,,,,,,repeat,number,numRpt,f,0.5303,Hi,,,,,,1,,,,,,,,low,8,0,8,0,1,,,,,,,,,
297490,2022-12-05_23h30.52.934,vts_reward_expectancy_bt,2022.2.4,MacIntel,20.00080003,Chrome,1440,900,,,,,1,815,,,,,,,,,,,,,,,,,181,S,hexagon,1,0,,,,,,,,,,,,,,,,switch,letter,lettSwt,k,0.8134,Lo,,,,,,1,,,,,,,,low,9,0,9,0,1,,,,,,,,,
297490,2022-12-05_23h30.52.934,vts_reward_expectancy_bt,2022.2.4,MacIntel,20.00080003,Chrome,1440,900,,,,,10,825,,,,,,,,,,,,,,,,,139,W,triangle,1,0,,,,,,,,,,,,,,,,repeat,letter,lettRpt,k,0.6398,Hi,,,,,,1,,,,,,,,low,10,0,10,0,1,,,,,,,,,
297490,2022-12-05_23h30.52.934,vts_reward_expectancy_bt,2022.2.4,MacIntel,20.00080003,Chrome,1440,900,,,,,1,826,,,,,,,,,,,,,,,,,125,D,star,1,0,,,,,,,,,,,,,,,,switch,number,numSwt,d,0.5166,Lo,,,,,,1,,,,,,,,low,11,0,11,0,1,,,,,,,,,
297490,2022-12-05_23h30.52.934,vts_reward_expectancy_bt,2022.2.4,MacIntel,20.00080003,Chrome,1440,900,,,,,1,827,,,,,,,,,,,,,,,,,146,B,triangle,1,0,,,,,,,,,,,,,,,,switch,letter,lettSwt,j,0.5031,Hi,,,,,,1,,,,,,,,low,12,0,12,0,1,,,,,,,,,
297490,2022-12-05_23h30.52.934,vts_reward_expectancy_bt,2022.2.4,MacIntel,20.00080003,Chrome,1440,900,,,,,1,828,,,,,,,,,,,,,,,,,167,Y,hexagon,1,0,,,,,,,,,,,,,,,,switch,number,numSwt,f,0.5467,Lo,,,,,,1,,,,,,,,low,13,0,13,0,1,,,,,,,,,
297490,2022-12-05_23h30.52.934,vts_reward_expectancy_bt,2022.2.4,MacIntel,20.00080003,Chrome,1440,900,,,,,1,829,,,,,,,,,,,,,,,,,174,U,circle,1,0,,,,,,,,,,,,,,,,switch,letter,lettSwt,k,0.6928,Hi,,,,,,1,,,,,,,,low,14,0,14,0,1,,,,,,,,,
297490,2022-12-05_23h30.52.934,vts_reward_expectancy_bt,2022.2.4,MacIntel,20.00080003,Chrome,1440,900,,,,,1,830,,,,,,,,,,,,,,,,,132,H,star,1,0,,,,,,,,,,,,,,,,switch,number,numSwt,d,0.5865,Lo,,,,,,1,,,,,,,,low,15,0,15,0,1,,,,,,,,,
297490,2022-12-05_23h30.52.934,vts_reward_expectancy_bt,2022.2.4,MacIntel,20.00080003,Chrome,1440,900,,,,,1,831,,,,,,,,,,,,,,,,,139,Y,circle,1,0,,,,,,,,,,,,,,,,repeat,number,numRpt,d,0.5134,Hi,,,,,,1,,,,,,,,low,16,0,16,0,1,,,,,,,,,
297490,2022-12-05_23h30.52.934,vts_reward_expectancy_bt,2022.2.4,MacIntel,20.00080003,Chrome,1440,900,,,,,0,831,,,,,,,,,,,,,,,,,146,U,triangle,0,0,,,,,,,,,,,,,,,,repeat,number,NA,f,0.6533,Hi,,,,,,1,,,,,,,,low,17,0,17,0,1,,,,,,,,,
297490,2022-12-05_23h30.52.934,vts_reward_expectancy_bt,2022.2.4,MacIntel,20.00080003,Chrome,1440,900,,,,,1,832,,,,,,,,,,,,,,,,,132,H,hexagon,1,1,,,,,,,,,,,,,,,,switch,letter,lettSwt,j,0.8202,Lo,,,,,,1,,,,,,,,low,18,0,18,0,1,,,,,,,,,
297490,2022-12-05_23h30.52.934,vts_reward_expectancy_bt,2022.2.4,MacIntel,20.00080003,Chrome,1440,900,,,,,1,833,,,,,,,,,,,,,,,,,174,W,star,1,0,,,,,,,,,,,,,,,,switch,number,numSwt,f,0.6782,Lo,,,,,,1,,,,,,,,low,19,0,19,0,1,,,,,,,,,
297490,2022-12-05_23h30.52.934,vts_reward_expectancy_bt,2022.2.4,MacIntel,20.00080003,Chrome,1440,900,,,,,0,833,,,,,,,,,,,,,,,,,160,B,circle,1,0,,,,,,,,,,,,,,,,repeat,number,numRpt,f,0.7186,Hi,,,,,,1,,,,,,,,low,20,0,20,0,1,,,,,,,,,
297490,2022-12-05_23h30.52.934,vts_reward_expectancy_bt,2022.2.4,MacIntel,20.00080003,Chrome,1440,900,,,,,0,833,,,,,,,,,,,,,,,,,125,F,triangle,1,0,,,,,,,,,,,,,,,,repeat,number,numRpt,d,0.6333,Hi,,,,,,1,,,,,,,,low,21,0,21,0,1,,,,,,,,,
297490,2022-12-05_23h30.52.934,vts_reward_expectancy_bt,2022.2.4,MacIntel,20.00080003,Chrome,1440,900,,,,,1,834,,,,,,,,,,,,,,,,,181,D,star,1,0,,,,,,,,,,,,,,,,repeat,number,numRpt,f,0.6282,Lo,,,,,,1,,,,,,,,low,22,0,22,0,1,,,,,,,,,
297490,2022-12-05_23h30.52.934,vts_reward_expectancy_bt,2022.2.4,MacIntel,20.00080003,Chrome,1440,900,,,,,10,844,,,,,,,,,,,,,,,,,167,S,hexagon,1,0,,,,,,,,,,,,,,,,repeat,number,numRpt,f,0.5045,Lo,,,,,,1,,,,,,,,low,23,0,23,0,1,,,,,,,,,
297490,2022-12-05_23h30.52.934,vts_reward_expectancy_bt,2022.2.4,MacIntel,20.00080003,Chrome,1440,900,,,,,10,854,,,,,,,,,,,,,,,,,125,Y,triangle,1,0,,,,,,,,,,,,,,,,switch,letter,lettSwt,k,0.71,Hi,,,,,,1,,,,,,,,low,24,0,24,0,1,,,,,,,,,
297490,2022-12-05_23h30.52.934,vts_reward_expectancy_bt,2022.2.4,MacIntel,20.00080003,Chrome,1440,900,,,,,10,864,,,,,,,,,,,,,,,,,167,S,star,1,0,,,,,,,,,,,,,,,,repeat,letter,lettRpt,k,0.9694,Lo,,,,,,1,,,,,,,,low,25,0,25,0,1,,,,,,,,,
297490,2022-12-05_23h30.52.934,vts_reward_expectancy_bt,2022.2.4,MacIntel,20.00080003,Chrome,1440,900,,,,,1,865,,,,,,,,,,,,,,,,,160,B,hexagon,1,0,,,,,,,,,,,,,,,,repeat,letter,lettRpt,j,0.5282,Lo,,,,,,1,,,,,,,,low,26,0,26,0,1,,,,,,,,,
297490,2022-12-05_23h30.52.934,vts_reward_expectancy_bt,2022.2.4,MacIntel,20.00080003,Chrome,1440,900,,,,,1,866,,,,,,,,,,,,,,,,,132,U,circle,1,0,,,,,,,,,,,,,,,,switch,number,numSwt,d,0.4856,Hi,,,,,,1,,,,,,,,low,27,0,27,0,1,,,,,,,,,
297490,2022-12-05_23h30.52.934,vts_reward_expectancy_bt,2022.2.4,MacIntel,20.00080003,Chrome,1440,900,,,,,0,866,,,,,,,,,,,,,,,,,139,H,circle,0,0,,,,,,,,,,,,,,,,switch,letter,NA,k,0.8125,Hi,,,,,,1,,,,,,,,low,28,0,28,0,1,,,,,,,,,
297490,2022-12-05_23h30.52.934,vts_reward_expectancy_bt,2022.2.4,MacIntel,20.00080003,Chrome,1440,900,,,,,1,867,,,,,,,,,,,,,,,,,181,W,hexagon,1,1,,,,,,,,,,,,,,,,switch,number,numSwt,f,0.5843,Lo,,,,,,1,,,,,,,,low,29,0,29,0,1,,,,,,,,,
297490,2022-12-05_23h30.52.934,vts_reward_expectancy_bt,2022.2.4,MacIntel,20.00080003,Chrome,1440,900,,,,,10,877,,,,,,,,,,,,,,,,,146,D,star,1,0,,,,,,,,,,,,,,,,repeat,number,numRpt,d,0.546,Lo,,,,,,1,,,,,,,,low,30,0,30,0,1,,,,,,,,,
297490,2022-12-05_23h30.52.934,vts_reward_expectancy_bt,2022.2.4,MacIntel,20.00080003,Chrome,1440,900,,,,,10,887,,,,,,,,,,,,,,,,,174,F,triangle,1,0,,,,,,,,,,,,,,,,switch,letter,lettSwt,j,0.5953,Hi,,,,,,1,,,,,,,,low,31,0,31,0,1,,,,,,,,,
297490,2022-12-05_23h30.52.934,vts_reward_expectancy_bt,2022.2.4,MacIntel,20.00080003,Chrome,1440,900,,,,,0,887,,,,,,,,,,,,,,,,,146,B,star,0,0,,,,,,,,,,,,,,,,switch,number,NA,f,0.9403,Hi,,,,,,2,,,,,,space,1.6521,low,0,0,0,0,1,,,,,,,,,
297490,2022-12-05_23h30.52.934,vts_reward_expectancy_bt,2022.2.4,MacIntel,20.00080003,Chrome,1440,900,,,,,1,888,,,,,,,,,,,,,,,,,174,U,hexagon,1,1,,,,,,,,,,,,,,,,repeat,number,numRpt,f,0.6525,Lo,,,,,,2,,,,,,,,low,1,0,1,0,1,,,,,,,,,
297490,2022-12-05_23h30.52.934,vts_reward_expectancy_bt,2022.2.4,MacIntel,20.00080003,Chrome,1440,900,,,,,0,888,,,,,,,,,,,,,,,,,139,F,triangle,1,0,,,,,,,,,,,,,,,,repeat,number,numRpt,d,0.6622,Hi,,,,,,2,,,,,,,,low,2,0,2,0,1,,,,,,,,,
297490,2022-12-05_23h30.52.934,vts_reward_expectancy_bt,2022.2.4,MacIntel,20.00080003,Chrome,1440,900,,,,,0,888,,,,,,,,,,,,,,,,,132,S,circle,1,0,,,,,,,,,,,,,,,,switch,letter,lettSwt,k,0.6531,Hi,,,,,,2,,,,,,,,low,3,0,3,0,1,,,,,,,,,
297490,2022-12-05_23h30.52.934,vts_reward_expectancy_bt,2022.2.4,MacIntel,20.00080003,Chrome,1440,900,,,,,0,888,,,,,,,,,,,,,,,,,181,H,star,0,0,,,,,,,,,,,,,,,,switch,number,NA,d,0.3447,Hi,,,,,,2,,,,,,,,low,4,0,4,0,1,,,,,,,,,
297490,2022-12-05_23h30.52.934,vts_reward_expectancy_bt,2022.2.4,MacIntel,20.00080003,Chrome,1440,900,,,,,10,898,,,,,,,,,,,,,,,,,160,Y,hexagon,1,1,,,,,,,,,,,,,,,,repeat,number,numRpt,f,0.6275,Lo,,,,,,2,,,,,,,,low,5,0,5,0,1,,,,,,,,,
297490,2022-12-05_23h30.52.934,vts_reward_expectancy_bt,2022.2.4,MacIntel,20.00080003,Chrome,1440,900,,,,,0,898,,,,,,,,,,,,,,,,,125,W,triangle,1,0,,,,,,,,,,,,,,,,repeat,number,numRpt,d,0.5965,Hi,,,,,,2,,,,,,,,low,6,0,6,0,1,,,,,,,,,
297490,2022-12-05_23h30.52.934,vts_reward_expectancy_bt,2022.2.4,MacIntel,20.00080003,Chrome,1440,900,,,,,1,899,,,,,,,,,,,,,,,,,167,D,circle,1,0,,,,,,,,,,,,,,,,repeat,number,numRpt,f,0.5131,Hi,,,,,,2,,,,,,,,low,7,0,7,0,1,,,,,,,,,
297490,2022-12-05_23h30.52.934,vts_reward_expectancy_bt,2022.2.4,MacIntel,20.00080003,Chrome,1440,900,,,,,10,909,,,,,,,,,,,,,,,,,146,B,hexagon,1,0,,,,,,,,,,,,,,,,repeat,number,numRpt,d,0.6886,Lo,,,,,,2,,,,,,,,low,8,0,8,0,1,,,,,,,,,
297490,2022-12-05_23h30.52.934,vts_reward_expectancy_bt,2022.2.4,MacIntel,20.00080003,Chrome,1440,900,,,,,10,919,,,,,,,,,,,,,,,,,174,U,circle,1,0,,,,,,,,,,,,,,,,repeat,number,numRpt,f,0.4808,Hi,,,,,,2,,,,,,,,low,9,0,9,0,1,,,,,,,,,
297490,2022-12-05_23h30.52.934,vts_reward_expectancy_bt,2022.2.4,MacIntel,20.00080003,Chrome,1440,900,,,,,10,929,,,,,,,,,,,,,,,,,139,F,triangle,1,0,,,,,,,,,,,,,,,,switch,letter,lettSwt,j,0.5851,Hi,,,,,,2,,,,,,,,low,10,0,10,0,1,,,,,,,,,
297490,2022-12-05_23h30.52.934,vts_reward_expectancy_bt,2022.2.4,MacIntel,20.00080003,Chrome,1440,900,,,,,10,939,,,,,,,,,,,,,,,,,132,S,star,1,0,,,,,,,,,,,,,,,,repeat,letter,lettRpt,k,0.8522,Lo,,,,,,2,,,,,,,,low,11,0,11,0,1,,,,,,,,,
297490,2022-12-05_23h30.52.934,vts_reward_expectancy_bt,2022.2.4,MacIntel,20.00080003,Chrome,1440,900,,,,,1,940,,,,,,,,,,,,,,,,,181,H,hexagon,1,0,,,,,,,,,,,,,,,,repeat,letter,lettRpt,j,0.8804,Lo,,,,,,2,,,,,,,,low,12,0,12,0,1,,,,,,,,,
297490,2022-12-05_23h30.52.934,vts_reward_expectancy_bt,2022.2.4,MacIntel,20.00080003,Chrome,1440,900,,,,,10,950,,,,,,,,,,,,,,,,,160,Y,star,1,0,,,,,,,,,,,,,,,,switch,number,numSwt,f,0.5192,Lo,,,,,,2,,,,,,,,low,13,0,13,0,1,,,,,,,,,
297490,2022-12-05_23h30.52.934,vts_reward_expectancy_bt,2022.2.4,MacIntel,20.00080003,Chrome,1440,900,,,,,10,960,,,,,,,,,,,,,,,,,125,W,circle,1,0,,,,,,,,,,,,,,,,repeat,number,numRpt,d,0.5365,Hi,,,,,,2,,,,,,,,low,14,0,14,0,1,,,,,,,,,
297490,2022-12-05_23h30.52.934,vts_reward_expectancy_bt,2022.2.4,MacIntel,20.00080003,Chrome,1440,900,,,,,0,960,,,,,,,,,,,,,,,,,167,D,triangle,1,0,,,,,,,,,,,,,,,,repeat,number,numRpt,f,0.6664,Hi,,,,,,2,,,,,,,,low,15,0,15,0,1,,,,,,,,,
297490,2022-12-05_23h30.52.934,vts_reward_expectancy_bt,2022.2.4,MacIntel,20.00080003,Chrome,1440,900,,,,,0,960,,,,,,,,,,,,,,,,,139,U,triangle,1,0,,,,,,,,,,,,,,,,repeat,number,numRpt,d,0.5946,Hi,,,,,,2,,,,,,,,low,16,0,16,0,1,,,,,,,,,
297490,2022-12-05_23h30.52.934,vts_reward_expectancy_bt,2022.2.4,MacIntel,20.00080003,Chrome,1440,900,,,,,10,970,,,,,,,,,,,,,,,,,125,B,star,1,0,,,,,,,,,,,,,,,,switch,letter,lettSwt,j,0.6191,Lo,,,,,,2,,,,,,,,low,17,0,17,0,1,,,,,,,,,
297490,2022-12-05_23h30.52.934,vts_reward_expectancy_bt,2022.2.4,MacIntel,20.00080003,Chrome,1440,900,,,,,0,970,,,,,,,,,,,,,,,,,167,S,hexagon,0,0,,,,,,,,,,,,,,,,repeat,letter,NA,j,0.9134,Lo,,,,,,2,,,,,,,,low,18,0,18,0,1,,,,,,,,,
297490,2022-12-05_23h30.52.934,vts_reward_expectancy_bt,2022.2.4,MacIntel,20.00080003,Chrome,1440,900,,,,,0,970,,,,,,,,,,,,,,,,,146,H,circle,1,1,,,,,,,,,,,,,,,,switch,number,numSwt,d,0.6178,Hi,,,,,,2,,,,,,,,low,19,0,19,0,1,,,,,,,,,
297490,2022-12-05_23h30.52.934,vts_reward_expectancy_bt,2022.2.4,MacIntel,20.00080003,Chrome,1440,900,,,,,1,971,,,,,,,,,,,,,,,,,181,F,star,1,0,,,,,,,,,,,,,,,,switch,letter,lettSwt,j,0.6214,Lo,,,,,,2,,,,,,,,low,20,0,20,0,1,,,,,,,,,
297490,2022-12-05_23h30.52.934,vts_reward_expectancy_bt,2022.2.4,MacIntel,20.00080003,Chrome,1440,900,,,,,1,972,,,,,,,,,,,,,,,,,174,W,triangle,1,0,,,,,,,,,,,,,,,,switch,number,numSwt,f,0.5201,Hi,,,,,,2,,,,,,,,low,21,0,21,0,1,,,,,,,,,
297490,2022-12-05_23h30.52.934,vts_reward_expectancy_bt,2022.2.4,MacIntel,20.00080003,Chrome,1440,900,,,,,1,973,,,,,,,,,,,,,,,,,160,D,circle,1,0,,,,,,,,,,,,,,,,switch,letter,lettSwt,j,0.4442,Hi,,,,,,2,,,,,,,,low,22,0,22,0,1,,,,,,,,,
297490,2022-12-05_23h30.52.934,vts_reward_expectancy_bt,2022.2.4,MacIntel,20.00080003,Chrome,1440,900,,,,,1,974,,,,,,,,,,,,,,,,,132,Y,hexagon,1,0,,,,,,,,,,,,,,,,switch,number,numSwt,d,0.58,Lo,,,,,,2,,,,,,,,low,23,0,23,0,1,,,,,,,,,
297490,2022-12-05_23h30.52.934,vts_reward_expectancy_bt,2022.2.4,MacIntel,20.00080003,Chrome,1440,900,,,,,10,984,,,,,,,,,,,,,,,,,160,H,hexagon,1,0,,,,,,,,,,,,,,,,repeat,number,numRpt,f,0.7194,Lo,,,,,,2,,,,,,,,low,24,0,24,0,1,,,,,,,,,
297490,2022-12-05_23h30.52.934,vts_reward_expectancy_bt,2022.2.4,MacIntel,20.00080003,Chrome,1440,900,,,,,10,994,,,,,,,,,,,,,,,,,181,B,star,1,0,,,,,,,,,,,,,,,,repeat,number,numRpt,f,0.5167,Lo,,,,,,2,,,,,,,,low,25,0,25,0,1,,,,,,,,,
297490,2022-12-05_23h30.52.934,vts_reward_expectancy_bt,2022.2.4,MacIntel,20.00080003,Chrome,1440,900,,,,,0,994,,,,,,,,,,,,,,,,,125,W,circle,0,0,,,,,,,,,,,,,,,,repeat,number,NA,f,0.6011,Lo,,,,,,2,,,,,,,,low,26,0,26,0,1,,,,,,,,,
297490,2022-12-05_23h30.52.934,vts_reward_expectancy_bt,2022.2.4,MacIntel,20.00080003,Chrome,1440,900,,,,,1,995,,,,,,,,,,,,,,,,,174,F,triangle,1,1,,,,,,,,,,,,,,,,repeat,number,numRpt,f,0.4809,Hi,,,,,,2,,,,,,,,low,27,0,27,0,1,,,,,,,,,
297490,2022-12-05_23h30.52.934,vts_reward_expectancy_bt,2022.2.4,MacIntel,20.00080003,Chrome,1440,900,,,,,0,995,,,,,,,,,,,,,,,,,132,Y,triangle,1,0,,,,,,,,,,,,,,,,switch,letter,lettSwt,k,0.8963,Hi,,,,,,2,,,,,,,,low,28,0,28,0,1,,,,,,,,,
297490,2022-12-05_23h30.52.934,vts_reward_expectancy_bt,2022.2.4,MacIntel,20.00080003,Chrome,1440,900,,,,,0,995,,,,,,,,,,,,,,,,,167,S,circle,0,0,,,,,,,,,,,,,,,,repeat,letter,NA,j,0.6611,Hi,,,,,,2,,,,,,,,low,29,0,29,0,1,,,,,,,,,
297490,2022-12-05_23h30.52.934,vts_reward_expectancy_bt,2022.2.4,MacIntel,20.00080003,Chrome,1440,900,,,,,10,1005,,,,,,,,,,,,,,,,,139,D,star,1,1,,,,,,,,,,,,,,,,switch,number,numSwt,d,0.5422,Lo,,,,,,2,,,,,,,,low,30,0,30,0,1,,,,,,,,,
297490,2022-12-05_23h30.52.934,vts_reward_expectancy_bt,2022.2.4,MacIntel,20.00080003,Chrome,1440,900,,,,,0,1005,,,,,,,,,,,,,,,,,146,U,hexagon,0,0,,,,,,,,,,,,,,,,switch,letter,NA,j,0.8131,Lo,,,,,,2,,,,,,,,low,31,0,31,0,1,,,,,,,,,
297490,2022-12-05_23h30.52.934,vts_reward_expectancy_bt,2022.2.4,MacIntel,20.00080003,Chrome,1440,900,,,,,0,1005,,,,,,,,,,,,,,,,,139,U,star,0,1,,,,,,,,,,,,,,,,repeat,letter,NA,j,0.7968,Lo,,,,,,3,,,,,,space,1.0135,low,0,0,0,0,1,,,,,,,,,
297490,2022-12-05_23h30.52.934,vts_reward_expectancy_bt,2022.2.4,MacIntel,20.00080003,Chrome,1440,900,,,,,0,1005,,,,,,,,,,,,,,,,,181,F,circle,1,1,,,,,,,,,,,,,,,,switch,number,numSwt,f,0.8629,Hi,,,,,,3,,,,,,,,low,1,0,1,0,1,,,,,,,,,
297490,2022-12-05_23h30.52.934,vts_reward_expectancy_bt,2022.2.4,MacIntel,20.00080003,Chrome,1440,900,,,,,10,1015,,,,,,,,,,,,,,,,,167,B,triangle,1,0,,,,,,,,,,,,,,,,switch,letter,lettSwt,j,0.1652,Hi,,,,,,3,,,,,,,,low,2,0,2,0,1,,,,,,,,,
297490,2022-12-05_23h30.52.934,vts_reward_expectancy_bt,2022.2.4,MacIntel,20.00080003,Chrome,1440,900,,,,,1,1016,,,,,,,,,,,,,,,,,125,H,hexagon,1,0,,,,,,,,,,,,,,,,switch,number,numSwt,d,0.489,Lo,,,,,,3,,,,,,,,low,3,0,3,0,1,,,,,,,,,
297490,2022-12-05_23h30.52.934,vts_reward_expectancy_bt,2022.2.4,MacIntel,20.00080003,Chrome,1440,900,,,,,1,1017,,,,,,,,,,,,,,,,,174,Y,star,1,0,,,,,,,,,,,,,,,,switch,letter,lettSwt,k,0.8531,Lo,,,,,,3,,,,,,,,low,4,0,4,0,1,,,,,,,,,
297490,2022-12-05_23h30.52.934,vts_reward_expectancy_bt,2022.2.4,MacIntel,20.00080003,Chrome,1440,900,,,,,0,1017,,,,,,,,,,,,,,,,,132,D,circle,1,0,,,,,,,,,,,,,,,,switch,number,numSwt,d,0.6456,Hi,,,,,,3,,,,,,,,low,5,0,5,0,1,,,,,,,,,
297490,2022-12-05_23h30.52.934,vts_reward_expectancy_bt,2022.2.4,MacIntel,20.00080003,Chrome,1440,900,,,,,0,1017,,,,,,,,,,,,,,,,,160,S,triangle,1,0,,,,,,,,,,,,,,,,repeat,number,numRpt,f,0.6526,Hi,,,,,,3,,,,,,,,low,6,0,6,0,1,,,,,,,,,
297490,2022-12-05_23h30.52.934,vts_reward_expectancy_bt,2022.2.4,MacIntel,20.00080003,Chrome,1440,900,,,,,0,1017,,,,,,,,,,,,,,,,,146,W,hexagon,-1,0,,,,,,,,,,,,,,,,switch,no_choice,NA,,,Hi,,,,,,3,,,,,,,,low,7,0,7,0,1,,,,,,,,,
297490,2022-12-05_23h30.52.934,vts_reward_expectancy_bt,2022.2.4,MacIntel,20.00080003,Chrome,1440,900,,,,,0,1017,,,,,,,,,,,,,,,,,139,U,hexagon,0,0,,,,,,,,,,,,,,,,switch,letter,NA,j,1.0668,Hi,,,,,,3,,,,,,,,low,8,0,8,0,1,,,,,,,,,
297490,2022-12-05_23h30.52.934,vts_reward_expectancy_bt,2022.2.4,MacIntel,20.00080003,Chrome,1440,900,,,,,0,1017,,,,,,,,,,,,,,,,,181,F,triangle,1,1,,,,,,,,,,,,,,,,switch,number,numSwt,f,0.5964,Hi,,,,,,3,,,,,,,,low,9,0,9,0,1,,,,,,,,,
297490,2022-12-05_23h30.52.934,vts_reward_expectancy_bt,2022.2.4,MacIntel,20.00080003,Chrome,1440,900,,,,,0,1017,,,,,,,,,,,,,,,,,167,B,circle,1,0,,,,,,,,,,,,,,,,repeat,number,numRpt,f,0.7284,Hi,,,,,,3,,,,,,,,low,10,0,10,0,1,,,,,,,,,
297490,2022-12-05_23h30.52.934,vts_reward_expectancy_bt,2022.2.4,MacIntel,20.00080003,Chrome,1440,900,,,,,1,1018,,,,,,,,,,,,,,,,,125,H,star,1,0,,,,,,,,,,,,,,,,repeat,number,numRpt,d,0.4972,Lo,,,,,,3,,,,,,,,low,11,0,11,0,1,,,,,,,,,
297490,2022-12-05_23h30.52.934,vts_reward_expectancy_bt,2022.2.4,MacIntel,20.00080003,Chrome,1440,900,,,,,10,1028,,,,,,,,,,,,,,,,,174,Y,star,1,0,,,,,,,,,,,,,,,,switch,letter,lettSwt,k,1.0529,Lo,,,,,,3,,,,,,,,low,12,0,12,0,1,,,,,,,,,
297490,2022-12-05_23h30.52.934,vts_reward_expectancy_bt,2022.2.4,MacIntel,20.00080003,Chrome,1440,900,,,,,10,1038,,,,,,,,,,,,,,,,,132,D,hexagon,1,0,,,,,,,,,,,,,,,,switch,number,numSwt,d,0.6191,Lo,,,,,,3,,,,,,,,low,13,0,13,0,1,,,,,,,,,
297490,2022-12-05_23h30.52.934,vts_reward_expectancy_bt,2022.2.4,MacIntel,20.00080003,Chrome,1440,900,,,,,0,1038,,,,,,,,,,,,,,,,,160,S,triangle,1,0,,,,,,,,,,,,,,,,repeat,number,numRpt,f,0.5465,Hi,,,,,,3,,,,,,,,low,14,0,14,0,1,,,,,,,,,
297490,2022-12-05_23h30.52.934,vts_reward_expectancy_bt,2022.2.4,MacIntel,20.00080003,Chrome,1440,900,,,,,0,1038,,,,,,,,,,,,,,,,,146,W,circle,1,0,,,,,,,,,,,,,,,,repeat,number,numRpt,d,0.968,Hi,,,,,,3,,,,,,,,low,15,0,15,0,1,,,,,,,,,
297490,2022-12-05_23h30.52.934,vts_reward_expectancy_bt,2022.2.4,MacIntel,20.00080003,Chrome,1440,900,,,,,10,1048,,,,,,,,,,,,,,,,,174,H,star,1,0,,,,,,,,,,,,,,,,switch,letter,lettSwt,j,0.6075,Lo,,,,,,3,,,,,,,,low,16,0,16,0,1,,,,,,,,,
297490,2022-12-05_23h30.52.934,vts_reward_expectancy_bt,2022.2.4,MacIntel,20.00080003,Chrome,1440,900,,,,,1,1049,,,,,,,,,,,,,,,,,139,F,triangle,1,0,,,,,,,,,,,,,,,,switch,number,numSwt,d,0.4793,Hi,,,,,,3,,,,,,,,low,17,0,17,0,1,,,,,,,,,
297490,2022-12-05_23h30.52.934,vts_reward_expectancy_bt,2022.2.4,MacIntel,20.00080003,Chrome,1440,900,,,,,0,1049,,,,,,,,,,,,,,,,,125,W,circle,1,0,,,,,,,,,,,,,,,,repeat,number,numRpt,d,0.8184,Hi,,,,,,3,,,,,,,,low,18,0,18,0,1,,,,,,,,,
297490,2022-12-05_23h30.52.934,vts_reward_expectancy_bt,2022.2.4,MacIntel,20.00080003,Chrome,1440,900,,,,,0,1049,,,,,,,,,,,,,,,,,160,U,hexagon,0,0,,,,,,,,,,,,,,,,switch,letter,NA,j,0.1942,Hi,,,,,,3,,,,,,,,low,19,0,19,0,1,,,,,,,,,
297490,2022-12-05_23h30.52.934,vts_reward_expectancy_bt,2022.2.4,MacIntel,20.00080003,Chrome,1440,900,,,,,1,1050,,,,,,,,,,,,,,,,,167,B,circle,1,1,,,,,,,,,,,,,,,,repeat,letter,lettRpt,j,0.263,Hi,,,,,,3,,,,,,,,low,20,0,20,0,1,,,,,,,,,
297490,2022-12-05_23h30.52.934,vts_reward_expectancy_bt,2022.2.4,MacIntel,20.00080003,Chrome,1440,900,,,,,10,1060,,,,,,,,,,,,,,,,,132,D,hexagon,1,0,,,,,,,,,,,,,,,,switch,number,numSwt,d,0.4163,Lo,,,,,,3,,,,,,,,low,21,0,21,0,1,,,,,,,,,
297490,2022-12-05_23h30.52.934,vts_reward_expectancy_bt,2022.2.4,MacIntel,20.00080003,Chrome,1440,900,,,,,1,1061,,,,,,,,,,,,,,,,,146,S,star,1,0,,,,,,,,,,,,,,,,repeat,number,numRpt,d,0.7819,Lo,,,,,,3,,,,,,,,low,22,0,22,0,1,,,,,,,,,
297490,2022-12-05_23h30.52.934,vts_reward_expectancy_bt,2022.2.4,MacIntel,20.00080003,Chrome,1440,900,,,,,0,1061,,,,,,,,,,,,,,,,,181,Y,triangle,1,0,,,,,,,,,,,,,,,,repeat,number,numRpt,f,0.5849,Hi,,,,,,3,,,,,,,,low,23,0,23,0,1,,,,,,,,,
297490,2022-12-05_23h30.52.934,vts_reward_expectancy_bt,2022.2.4,MacIntel,20.00080003,Chrome,1440,900,,,,,0,1061,,,,,,,,,,,,,,,,,174,W,triangle,1,0,,,,,,,,,,,,,,,,repeat,number,numRpt,f,0.6426,Hi,,,,,,3,,,,,,,,low,24,0,24,0,1,,,,,,,,,
297490,2022-12-05_23h30.52.934,vts_reward_expectancy_bt,2022.2.4,MacIntel,20.00080003,Chrome,1440,900,,,,,0,1061,,,,,,,,,,,,,,,,,125,D,circle,1,0,,,,,,,,,,,,,,,,repeat,number,numRpt,d,0.6275,Hi,,,,,,3,,,,,,,,low,25,0,25,0,1,,,,,,,,,
297490,2022-12-05_23h30.52.934,vts_reward_expectancy_bt,2022.2.4,MacIntel,20.00080003,Chrome,1440,900,,,,,1,1062,,,,,,,,,,,,,,,,,181,H,hexagon,1,0,,,,,,,,,,,,,,,,switch,letter,lettSwt,j,0.5715,Lo,,,,,,3,,,,,,,,low,26,0,26,0,1,,,,,,,,,
297490,2022-12-05_23h30.52.934,vts_reward_expectancy_bt,2022.2.4,MacIntel,20.00080003,Chrome,1440,900,,,,,10,1072,,,,,,,,,,,,,,,,,146,U,star,1,0,,,,,,,,,,,,,,,,switch,number,numSwt,d,0.9405,Lo,,,,,,3,,,,,,,,low,27,0,27,0,1,,,,,,,,,
297490,2022-12-05_23h30.52.934,vts_reward_expectancy_bt,2022.2.4,MacIntel,20.00080003,Chrome,1440,900,,,,,10,1082,,,,,,,,,,,,,,,,,139,S,circle,1,0,,,,,,,,,,,,,,,,repeat,number,numRpt,d,0.4354,Hi,,,,,,3,,,,,,,,low,28,0,28,0,1,,,,,,,,,
297490,2022-12-05_23h30.52.934,vts_reward_expectancy_bt,2022.2.4,MacIntel,20.00080003,Chrome,1440,900,,,,,0,1082,,,,,,,,,,,,,,,,,160,Y,triangle,1,0,,,,,,,,,,,,,,,,switch,letter,lettSwt,k,0.7861,Hi,,,,,,3,,,,,,,,low,29,0,29,0,1,,,,,,,,,
297490,2022-12-05_23h30.52.934,vts_reward_expectancy_bt,2022.2.4,MacIntel,20.00080003,Chrome,1440,900,,,,,10,1092,,,,,,,,,,,,,,,,,132,B,hexagon,1,0,,,,,,,,,,,,,,,,switch,number,numSwt,d,0.4299,Lo,,,,,,3,,,,,,,,low,30,0,30,0,1,,,,,,,,,
297490,2022-12-05_23h30.52.934,vts_reward_expectancy_bt,2022.2.4,MacIntel,20.00080003,Chrome,1440,900,,,,,10,1102,,,,,,,,,,,,,,,,,167,F,star,1,0,,,,,,,,,,,,,,,,switch,letter,lettSwt,j,0.5194,Lo,,,,,,3,,,,,,,,low,31,0,31,0,1,,,,,,,,,
297490,2022-12-05_23h30.52.934,vts_reward_expectancy_bt,2022.2.4,MacIntel,20.00080003,Chrome,1440,900,,,,,0,1102,,,,,,,,,,,,,,,,,160,S,circle,1,0,,,,,,,,,,,,,,,,switch,number,numSwt,f,1.1227,Hi,,,,,,4,,,,,,space,1.4832,low,0,0,0,0,1,,,,,,,,,
297490,2022-12-05_23h30.52.934,vts_reward_expectancy_bt,2022.2.4,MacIntel,20.00080003,Chrome,1440,900,,,,,10,1112,,,,,,,,,,,,,,,,,167,F,hexagon,1,0,,,,,,,,,,,,,,,,switch,letter,lettSwt,j,0.3195,Lo,,,,,,4,,,,,,,,low,1,0,1,0,1,,,,,,,,,
297490,2022-12-05_23h30.52.934,vts_reward_expectancy_bt,2022.2.4,MacIntel,20.00080003,Chrome,1440,900,,,,,10,1122,,,,,,,,,,,,,,,,,181,H,star,1,0,,,,,,,,,,,,,,,,switch,number,numSwt,f,0.4037,Lo,,,,,,4,,,,,,,,low,2,0,2,0,1,,,,,,,,,
297490,2022-12-05_23h30.52.934,vts_reward_expectancy_bt,2022.2.4,MacIntel,20.00080003,Chrome,1440,900,,,,,0,1122,,,,,,,,,,,,,,,,,132,D,triangle,1,0,,,,,,,,,,,,,,,,repeat,number,numRpt,d,0.6199,Hi,,,,,,4,,,,,,,,low,3,0,3,0,1,,,,,,,,,
297490,2022-12-05_23h30.52.934,vts_reward_expectancy_bt,2022.2.4,MacIntel,20.00080003,Chrome,1440,900,,,,,0,1122,,,,,,,,,,,,,,,,,174,Y,circle,0,0,,,,,,,,,,,,,,,,switch,letter,NA,j,0.567,Hi,,,,,,4,,,,,,,,low,4,0,4,0,1,,,,,,,,,
297490,2022-12-05_23h30.52.934,vts_reward_expectancy_bt,2022.2.4,MacIntel,20.00080003,Chrome,1440,900,,,,,0,1122,,,,,,,,,,,,,,,,,125,U,hexagon,0,1,,,,,,,,,,,,,,,,repeat,letter,NA,j,0.4516,Hi,,,,,,4,,,,,,,,low,5,0,5,0,1,,,,,,,,,
297490,2022-12-05_23h30.52.934,vts_reward_expectancy_bt,2022.2.4,MacIntel,20.00080003,Chrome,1440,900,,,,,1,1123,,,,,,,,,,,,,,,,,139,W,star,1,1,,,,,,,,,,,,,,,,repeat,letter,lettRpt,k,0.5362,Lo,,,,,,4,,,,,,,,low,6,0,6,0,1,,,,,,,,,
297490,2022-12-05_23h30.52.934,vts_reward_expectancy_bt,2022.2.4,MacIntel,20.00080003,Chrome,1440,900,,,,,0,1123,,,,,,,,,,,,,,,,,146,B,triangle,1,0,,,,,,,,,,,,,,,,repeat,letter,lettRpt,j,0.3973,Hi,,,,,,4,,,,,,,,low,7,0,7,0,1,,,,,,,,,
297490,2022-12-05_23h30.52.934,vts_reward_expectancy_bt,2022.2.4,MacIntel,20.00080003,Chrome,1440,900,,,,,0,1123,,,,,,,,,,,,,,,,,160,S,triangle,0,0,,,,,,,,,,,,,,,,repeat,letter,NA,j,0.442,Hi,,,,,,4,,,,,,,,low,8,0,8,0,1,,,,,,,,,
297490,2022-12-05_23h30.52.934,vts_reward_expectancy_bt,2022.2.4,MacIntel,20.00080003,Chrome,1440,900,,,,,1,1124,,,,,,,,,,,,,,,,,167,F,hexagon,1,1,,,,,,,,,,,,,,,,switch,number,numSwt,f,0.5813,Lo,,,,,,4,,,,,,,,low,9,0,9,0,1,,,,,,,,,
297490,2022-12-05_23h30.52.934,vts_reward_expectancy_bt,2022.2.4,MacIntel,20.00080003,Chrome,1440,900,,,,,10,1134,,,,,,,,,,,,,,,,,181,H,circle,1,0,,,,,,,,,,,,,,,,repeat,number,numRpt,f,0.5299,Hi,,,,,,4,,,,,,,,low,10,0,10,0,1,,,,,,,,,
297490,2022-12-05_23h30.52.934,vts_reward_expectancy_bt,2022.2.4,MacIntel,20.00080003,Chrome,1440,900,,,,,1,1135,,,,,,,,,,,,,,,,,132,D,star,1,0,,,,,,,,,,,,,,,,repeat,number,numRpt,d,0.4858,Lo,,,,,,4,,,,,,,,low,11,0,11,0,1,,,,,,,,,
297490,2022-12-05_23h30.52.934,vts_reward_expectancy_bt,2022.2.4,MacIntel,20.00080003,Chrome,1440,900,,,,,1,1136,,,,,,,,,,,,,,,,,174,Y,star,1,0,,,,,,,,,,,,,,,,repeat,number,numRpt,f,0.4802,Lo,,,,,,4,,,,,,,,low,12,0,12,0,1,,,,,,,,,
297490,2022-12-05_23h30.52.934,vts_reward_expectancy_bt,2022.2.4,MacIntel,20.00080003,Chrome,1440,900,,,,,1,1137,,,,,,,,,,,,,,,,,125,U,hexagon,1,0,,,,,,,,,,,,,,,,repeat,number,numRpt,d,0.4721,Lo,,,,,,4,,,,,,,,low,13,0,13,0,1,,,,,,,,,
297490,2022-12-05_23h30.52.934,vts_reward_expectancy_bt,2022.2.4,MacIntel,20.00080003,Chrome,1440,900,,,,,0,1137,,,,,,,,,,,,,,,,,139,W,triangle,0,0,,,,,,,,,,,,,,,,switch,letter,NA,j,0.8302,Lo,,,,,,4,,,,,,,,low,14,0,14,0,1,,,,,,,,,
297490,2022-12-05_23h30.52.934,vts_reward_expectancy_bt,2022.2.4,MacIntel,20.00080003,Chrome,1440,900,,,,,0,1137,,,,,,,,,,,,,,,,,146,B,circle,1,1,,,,,,,,,,,,,,,,repeat,letter,lettRpt,j,0.5364,Hi,,,,,,4,,,,,,,,low,15,0,15,0,1,,,,,,,,,
297490,2022-12-05_23h30.52.934,vts_reward_expectancy_bt,2022.2.4,MacIntel,20.00080003,Chrome,1440,900,,,,,0,1137,,,,,,,,,,,,,,,,,132,U,hexagon,0,0,,,,,,,,,,,,,,,,repeat,letter,NA,j,0.6281,Hi,,,,,,4,,,,,,,,low,16,0,16,0,1,,,,,,,,,
297490,2022-12-05_23h30.52.934,vts_reward_expectancy_bt,2022.2.4,MacIntel,20.00080003,Chrome,1440,900,,,,,0,1137,,,,,,,,,,,,,,,,,174,Y,triangle,0,1,,,,,,,,,,,,,,,,repeat,letter,NA,j,0.5871,Hi,,,,,,4,,,,,,,,low,17,0,17,0,1,,,,,,,,,
297490,2022-12-05_23h30.52.934,vts_reward_expectancy_bt,2022.2.4,MacIntel,20.00080003,Chrome,1440,900,,,,,0,1137,,,,,,,,,,,,,,,,,160,W,circle,0,1,,,,,,,,,,,,,,,,switch,number,NA,d,0.2586,Hi,,,,,,4,,,,,,,,low,18,0,18,0,1,,,,,,,,,
297490,2022-12-05_23h30.52.934,vts_reward_expectancy_bt,2022.2.4,MacIntel,20.00080003,Chrome,1440,900,,,,,1,1138,,,,,,,,,,,,,,,,,146,F,star,1,1,,,,,,,,,,,,,,,,switch,letter,lettSwt,j,0.6368,Lo,,,,,,4,,,,,,,,low,19,0,19,0,1,,,,,,,,,
297490,2022-12-05_23h30.52.934,vts_reward_expectancy_bt,2022.2.4,MacIntel,20.00080003,Chrome,1440,900,,,,,1,1139,,,,,,,,,,,,,,,,,125,D,hexagon,1,0,,,,,,,,,,,,,,,,switch,number,numSwt,d,0.4636,Lo,,,,,,4,,,,,,,,low,20,0,20,0,1,,,,,,,,,
297490,2022-12-05_23h30.52.934,vts_reward_expectancy_bt,2022.2.4,MacIntel,20.00080003,Chrome,1440,900,,,,,0,1139,,,,,,,,,,,,,,,,,167,S,star,0,0,,,,,,,,,,,,,,,,switch,letter,NA,j,0.6643,Lo,,,,,,4,,,,,,,,low,21,0,21,0,1,,,,,,,,,
297490,2022-12-05_23h30.52.934,vts_reward_expectancy_bt,2022.2.4,MacIntel,20.00080003,Chrome,1440,900,,,,,0,1139,,,,,,,,,,,,,,,,,181,B,triangle,0,1,,,,,,,,,,,,,,,,repeat,letter,NA,k,0.2788,Lo,,,,,,4,,,,,,,,low,22,0,22,0,1,,,,,,,,,
297490,2022-12-05_23h30.52.934,vts_reward_expectancy_bt,2022.2.4,MacIntel,20.00080003,Chrome,1440,900,,,,,0,1139,,,,,,,,,,,,,,,,,139,H,circle,1,1,,,,,,,,,,,,,,,,repeat,letter,lettRpt,j,0.5769,Hi,,,,,,4,,,,,,,,low,23,0,23,0,1,,,,,,,,,
297490,2022-12-05_23h30.52.934,vts_reward_expectancy_bt,2022.2.4,MacIntel,20.00080003,Chrome,1440,900,,,,,0,1139,,,,,,,,,,,,,,,,,146,S,triangle,1,0,,,,,,,,,,,,,,,,switch,number,numSwt,d,0.8822,Hi,,,,,,4,,,,,,,,low,24,0,24,0,1,,,,,,,,,
297490,2022-12-05_23h30.52.934,vts_reward_expectancy_bt,2022.2.4,MacIntel,20.00080003,Chrome,1440,900,,,,,0,1139,,,,,,,,,,,,,,,,,181,U,circle,1,0,,,,,,,,,,,,,,,,repeat,number,numRpt,f,0.6086,Hi,,,,,,4,,,,,,,,low,25,0,25,0,1,,,,,,,,,
