participant,date,expName,psychopyVersion,OS,frameRate,browser,xResolution,yResolution,key_resp.keys,key_resp.rt,training_resp.keys,training_resp.rt,points_trial,points_cumul,trainBlock,training.thisRepN,training.thisTrialN,training.thisN,training.thisIndex,training.ran,LTriangleOpac,LCircleOpac,LHexagonOpac,LStarOpac,RTriangleOpac,RCircleOpac,RHexagonOpac,RStarOpac,LShape_ID,RShape_ID,curr_topStim,curr_bottStim,curr_shape,acc,E1,target_resp_prac1.keys,target_resp_prac1.rt,pracBlock,task1_prac_trials.thisRepN,task1_prac_trials.thisTrialN,task1_prac_trials.thisN,task1_prac_trials.thisIndex,task1_prac_trials.ran,target_resp_prac2.keys,target_resp_prac2.rt,task2_praac_trials.thisRepN,task2_praac_trials.thisTrialN,task2_praac_trials.thisN,task2_praac_trials.thisIndex,task2_praac_trials.ran,alt,task,condition,target_resp.keys,rewCond,vts_practice_trials.thisRepN,vts_practice_trials.thisTrialN,vts_practice_trials.thisN,vts_practice_trials.thisIndex,vts_practice_trials.ran,target_resp.rt,blockNum,trials_norew.thisRepN,trials_norew.thisTrialN,trials_norew.thisN,trials_norew.thisIndex,trials_norew.ran,key_resp_2.keys,key_resp_2.rt,rewExpectancy,trials_rew.thisRepN,trials_rew.thisTrialN,trials_rew.thisN,trials_rew.thisIndex,trials_rew.ran,Q1,Q2,Q2_text,Q3,Q4,Q5_text,Q5,xRes,yRes
297538,2022-11-30_23h47.24.529,vts_reward_expectancy_bt,2022.2.4,MacIntel,62.5,Safari,1366,768,,,,,,,,,,,,,,,,,,,,,,,,,,,,,,,,,,,,,,,,,,,,,,,,,,,,,,,,,,,,,,,,,,,,,,,,,,,,
297538,2022-11-30_23h47.24.529,vts_reward_expectancy_bt,2022.2.4,MacIntel,62.5,Safari,1366,768,space,22.502,,,,,,,,,,,,,,,,,,,,,,,,,,,,,,,,,,,,,,,,,,,,,,,,,,,,,,,,,,,,,,,,,,,,,,,,,,
297538,2022-11-30_23h47.24.529,vts_reward_expectancy_bt,2022.2.4,MacIntel,62.5,Safari,1366,768,,,,,,,,,,,,,,,,,,,,,,,,,,,,,,,,,,,,,,,,,,,,,,,,,,,,,,,,,,,,,,,,,,,,,,,,,,,,
297538,2022-11-30_23h47.24.529,vts_reward_expectancy_bt,2022.2.4,MacIntel,62.5,Safari,1366,768,,,l,2.665,10,10,0,0,0,0,3,1,0,1,0,0,1,0,0,0,circle,triangle,,,,,,,,,,,,,,,,,,,,,,,,,,,,,,,,,,,,,,,,,,,,,,,,,,,,,,
297538,2022-11-30_23h47.24.529,vts_reward_expectancy_bt,2022.2.4,MacIntel,62.5,Safari,1366,768,,,a,5.564,10,20,0,0,1,1,8,1,0,0,1,0,0,0,0,1,hexagon,star,,,,,,,,,,,,,,,,,,,,,,,,,,,,,,,,,,,,,,,,,,,,,,,,,,,,,,
297538,2022-11-30_23h47.24.529,vts_reward_expectancy_bt,2022.2.4,MacIntel,62.5,Safari,1366,768,,,a,3.814,10,30,0,0,2,2,6,1,0,0,1,0,1,0,0,0,hexagon,triangle,,,,,,,,,,,,,,,,,,,,,,,,,,,,,,,,,,,,,,,,,,,,,,,,,,,,,,
297538,2022-11-30_23h47.24.529,vts_reward_expectancy_bt,2022.2.4,MacIntel,62.5,Safari,1366,768,,,l,4.835,10,40,0,0,3,3,5,1,0,1,0,0,0,0,0,1,circle,star,,,,,,,,,,,,,,,,,,,,,,,,,,,,,,,,,,,,,,,,,,,,,,,,,,,,,,
297538,2022-11-30_23h47.24.529,vts_reward_expectancy_bt,2022.2.4,MacIntel,62.5,Safari,1366,768,,,l,2.015,10,50,0,0,4,4,11,1,0,0,0,1,0,0,1,0,star,hexagon,,,,,,,,,,,,,,,,,,,,,,,,,,,,,,,,,,,,,,,,,,,,,,,,,,,,,,
297538,2022-11-30_23h47.24.529,vts_reward_expectancy_bt,2022.2.4,MacIntel,62.5,Safari,1366,768,,,a,2.417,10,60,0,0,5,5,10,1,0,0,0,1,0,1,0,0,star ,circle,,,,,,,,,,,,,,,,,,,,,,,,,,,,,,,,,,,,,,,,,,,,,,,,,,,,,,
297538,2022-11-30_23h47.24.529,vts_reward_expectancy_bt,2022.2.4,MacIntel,62.5,Safari,1366,768,,,l,1.884,10,70,0,0,6,6,9,1,0,0,0,1,1,0,0,0,star,triangle,,,,,,,,,,,,,,,,,,,,,,,,,,,,,,,,,,,,,,,,,,,,,,,,,,,,,,
297538,2022-11-30_23h47.24.529,vts_reward_expectancy_bt,2022.2.4,MacIntel,62.5,Safari,1366,768,,,a,1.497,10,80,0,0,7,7,0,1,1,0,0,0,0,1,0,0,triangle,circle,,,,,,,,,,,,,,,,,,,,,,,,,,,,,,,,,,,,,,,,,,,,,,,,,,,,,,
297538,2022-11-30_23h47.24.529,vts_reward_expectancy_bt,2022.2.4,MacIntel,62.5,Safari,1366,768,,,l,1.271,10,90,0,0,8,8,4,1,0,1,0,0,0,0,1,0,circle,hexagon,,,,,,,,,,,,,,,,,,,,,,,,,,,,,,,,,,,,,,,,,,,,,,,,,,,,,,
297538,2022-11-30_23h47.24.529,vts_reward_expectancy_bt,2022.2.4,MacIntel,62.5,Safari,1366,768,,,a,1.531,1,91,0,0,9,9,2,1,1,0,0,0,0,0,0,1,triangle,star,,,,,,,,,,,,,,,,,,,,,,,,,,,,,,,,,,,,,,,,,,,,,,,,,,,,,,
297538,2022-11-30_23h47.24.529,vts_reward_expectancy_bt,2022.2.4,MacIntel,62.5,Safari,1366,768,,,a,1.624,1,92,0,0,10,10,7,1,0,0,1,0,0,1,0,0,hexagon,circle,,,,,,,,,,,,,,,,,,,,,,,,,,,,,,,,,,,,,,,,,,,,,,,,,,,,,,
297538,2022-11-30_23h47.24.529,vts_reward_expectancy_bt,2022.2.4,MacIntel,62.5,Safari,1366,768,,,l,1.049,10,102,0,0,11,11,1,1,1,0,0,0,0,0,1,0,triangle,hexagon,,,,,,,,,,,,,,,,,,,,,,,,,,,,,,,,,,,,,,,,,,,,,,,,,,,,,,
297538,2022-11-30_23h47.24.529,vts_reward_expectancy_bt,2022.2.4,MacIntel,62.5,Safari,1366,768,,,l,1.039,1,103,0,1,0,12,7,1,0,0,1,0,0,1,0,0,hexagon,circle,,,,,,,,,,,,,,,,,,,,,,,,,,,,,,,,,,,,,,,,,,,,,,,,,,,,,,
297538,2022-11-30_23h47.24.529,vts_reward_expectancy_bt,2022.2.4,MacIntel,62.5,Safari,1366,768,,,a,1.94,1,104,0,1,1,13,9,1,0,0,0,1,1,0,0,0,star,triangle,,,,,,,,,,,,,,,,,,,,,,,,,,,,,,,,,,,,,,,,,,,,,,,,,,,,,,
297538,2022-11-30_23h47.24.529,vts_reward_expectancy_bt,2022.2.4,MacIntel,62.5,Safari,1366,768,,,l,0.835,10,114,0,1,2,14,6,1,0,0,1,0,1,0,0,0,hexagon,triangle,,,,,,,,,,,,,,,,,,,,,,,,,,,,,,,,,,,,,,,,,,,,,,,,,,,,,,
297538,2022-11-30_23h47.24.529,vts_reward_expectancy_bt,2022.2.4,MacIntel,62.5,Safari,1366,768,,,l,4.051,10,124,0,1,3,15,5,1,0,1,0,0,0,0,0,1,circle,star,,,,,,,,,,,,,,,,,,,,,,,,,,,,,,,,,,,,,,,,,,,,,,,,,,,,,,
297538,2022-11-30_23h47.24.529,vts_reward_expectancy_bt,2022.2.4,MacIntel,62.5,Safari,1366,768,,,a,5.534,1,125,0,1,4,16,11,1,0,0,0,1,0,0,1,0,star,hexagon,,,,,,,,,,,,,,,,,,,,,,,,,,,,,,,,,,,,,,,,,,,,,,,,,,,,,,
297538,2022-11-30_23h47.24.529,vts_reward_expectancy_bt,2022.2.4,MacIntel,62.5,Safari,1366,768,,,l,1.72,10,135,0,1,5,17,1,1,1,0,0,0,0,0,1,0,triangle,hexagon,,,,,,,,,,,,,,,,,,,,,,,,,,,,,,,,,,,,,,,,,,,,,,,,,,,,,,
297538,2022-11-30_23h47.24.529,vts_reward_expectancy_bt,2022.2.4,MacIntel,62.5,Safari,1366,768,,,a,2.686,10,145,0,1,6,18,2,1,1,0,0,0,0,0,0,1,triangle,star,,,,,,,,,,,,,,,,,,,,,,,,,,,,,,,,,,,,,,,,,,,,,,,,,,,,,,
297538,2022-11-30_23h47.24.529,vts_reward_expectancy_bt,2022.2.4,MacIntel,62.5,Safari,1366,768,,,l,1.232,1,146,0,1,7,19,4,1,0,1,0,0,0,0,1,0,circle,hexagon,,,,,,,,,,,,,,,,,,,,,,,,,,,,,,,,,,,,,,,,,,,,,,,,,,,,,,
297538,2022-11-30_23h47.24.529,vts_reward_expectancy_bt,2022.2.4,MacIntel,62.5,Safari,1366,768,,,a,2.667,1,147,0,1,8,20,10,1,0,0,0,1,0,1,0,0,star ,circle,,,,,,,,,,,,,,,,,,,,,,,,,,,,,,,,,,,,,,,,,,,,,,,,,,,,,,
297538,2022-11-30_23h47.24.529,vts_reward_expectancy_bt,2022.2.4,MacIntel,62.5,Safari,1366,768,,,a,1.487,1,148,0,1,9,21,0,1,1,0,0,0,0,1,0,0,triangle,circle,,,,,,,,,,,,,,,,,,,,,,,,,,,,,,,,,,,,,,,,,,,,,,,,,,,,,,
297538,2022-11-30_23h47.24.529,vts_reward_expectancy_bt,2022.2.4,MacIntel,62.5,Safari,1366,768,,,a,1.666,1,149,0,1,10,22,3,1,0,1,0,0,1,0,0,0,circle,triangle,,,,,,,,,,,,,,,,,,,,,,,,,,,,,,,,,,,,,,,,,,,,,,,,,,,,,,
297538,2022-11-30_23h47.24.529,vts_reward_expectancy_bt,2022.2.4,MacIntel,62.5,Safari,1366,768,,,a,1.666,10,159,0,1,11,23,8,1,0,0,1,0,0,0,0,1,hexagon,star,,,,,,,,,,,,,,,,,,,,,,,,,,,,,,,,,,,,,,,,,,,,,,,,,,,,,,
297538,2022-11-30_23h47.24.529,vts_reward_expectancy_bt,2022.2.4,MacIntel,62.5,Safari,1366,768,,,l,0.884,10,169,0,2,0,24,9,1,0,0,0,1,1,0,0,0,star,triangle,,,,,,,,,,,,,,,,,,,,,,,,,,,,,,,,,,,,,,,,,,,,,,,,,,,,,,
297538,2022-11-30_23h47.24.529,vts_reward_expectancy_bt,2022.2.4,MacIntel,62.5,Safari,1366,768,,,l,1.359,1,170,0,2,1,25,10,1,0,0,0,1,0,1,0,0,star ,circle,,,,,,,,,,,,,,,,,,,,,,,,,,,,,,,,,,,,,,,,,,,,,,,,,,,,,,
297538,2022-11-30_23h47.24.529,vts_reward_expectancy_bt,2022.2.4,MacIntel,62.5,Safari,1366,768,,,a,1.703,1,171,0,2,2,26,2,1,1,0,0,0,0,0,0,1,triangle,star,,,,,,,,,,,,,,,,,,,,,,,,,,,,,,,,,,,,,,,,,,,,,,,,,,,,,,
297538,2022-11-30_23h47.24.529,vts_reward_expectancy_bt,2022.2.4,MacIntel,62.5,Safari,1366,768,,,a,2.836,10,181,0,2,3,27,5,1,0,1,0,0,0,0,0,1,circle,star,,,,,,,,,,,,,,,,,,,,,,,,,,,,,,,,,,,,,,,,,,,,,,,,,,,,,,
297538,2022-11-30_23h47.24.529,vts_reward_expectancy_bt,2022.2.4,MacIntel,62.5,Safari,1366,768,,,a,2.037,1,182,0,2,4,28,1,1,1,0,0,0,0,0,1,0,triangle,hexagon,,,,,,,,,,,,,,,,,,,,,,,,,,,,,,,,,,,,,,,,,,,,,,,,,,,,,,
297538,2022-11-30_23h47.24.529,vts_reward_expectancy_bt,2022.2.4,MacIntel,62.5,Safari,1366,768,,,a,1.569,10,192,0,2,5,29,7,1,0,0,1,0,0,1,0,0,hexagon,circle,,,,,,,,,,,,,,,,,,,,,,,,,,,,,,,,,,,,,,,,,,,,,,,,,,,,,,
297538,2022-11-30_23h47.24.529,vts_reward_expectancy_bt,2022.2.4,MacIntel,62.5,Safari,1366,768,,,l,1.589,1,193,0,2,6,30,6,1,0,0,1,0,1,0,0,0,hexagon,triangle,,,,,,,,,,,,,,,,,,,,,,,,,,,,,,,,,,,,,,,,,,,,,,,,,,,,,,
297538,2022-11-30_23h47.24.529,vts_reward_expectancy_bt,2022.2.4,MacIntel,62.5,Safari,1366,768,,,a,1.672,1,194,0,2,7,31,8,1,0,0,1,0,0,0,0,1,hexagon,star,,,,,,,,,,,,,,,,,,,,,,,,,,,,,,,,,,,,,,,,,,,,,,,,,,,,,,
297538,2022-11-30_23h47.24.529,vts_reward_expectancy_bt,2022.2.4,MacIntel,62.5,Safari,1366,768,,,l,1.049,10,204,0,2,8,32,4,1,0,1,0,0,0,0,1,0,circle,hexagon,,,,,,,,,,,,,,,,,,,,,,,,,,,,,,,,,,,,,,,,,,,,,,,,,,,,,,
297538,2022-11-30_23h47.24.529,vts_reward_expectancy_bt,2022.2.4,MacIntel,62.5,Safari,1366,768,,,l,0.839,10,214,0,2,9,33,11,1,0,0,0,1,0,0,1,0,star,hexagon,,,,,,,,,,,,,,,,,,,,,,,,,,,,,,,,,,,,,,,,,,,,,,,,,,,,,,
297538,2022-11-30_23h47.24.529,vts_reward_expectancy_bt,2022.2.4,MacIntel,62.5,Safari,1366,768,,,l,2.034,1,215,0,2,10,34,0,1,1,0,0,0,0,1,0,0,triangle,circle,,,,,,,,,,,,,,,,,,,,,,,,,,,,,,,,,,,,,,,,,,,,,,,,,,,,,,
297538,2022-11-30_23h47.24.529,vts_reward_expectancy_bt,2022.2.4,MacIntel,62.5,Safari,1366,768,,,l,0.847,1,216,0,2,11,35,3,1,0,1,0,0,1,0,0,0,circle,triangle,,,,,,,,,,,,,,,,,,,,,,,,,,,,,,,,,,,,,,,,,,,,,,,,,,,,,,
297538,2022-11-30_23h47.24.529,vts_reward_expectancy_bt,2022.2.4,MacIntel,62.5,Safari,1366,768,,,a,1.92,10,226,1,0,0,0,7,1,0,0,1,0,0,1,0,0,hexagon,circle,,,,,,,,,,,,,,,,,,,,,,,,,,,,,,,,,,,,,,,,,,,,,,,,,,,,,,
297538,2022-11-30_23h47.24.529,vts_reward_expectancy_bt,2022.2.4,MacIntel,62.5,Safari,1366,768,,,a,1.533,1,227,1,0,1,1,1,1,1,0,0,0,0,0,1,0,triangle,hexagon,,,,,,,,,,,,,,,,,,,,,,,,,,,,,,,,,,,,,,,,,,,,,,,,,,,,,,
297538,2022-11-30_23h47.24.529,vts_reward_expectancy_bt,2022.2.4,MacIntel,62.5,Safari,1366,768,,,a,1.915,1,228,1,0,2,2,10,1,0,0,0,1,0,1,0,0,star ,circle,,,,,,,,,,,,,,,,,,,,,,,,,,,,,,,,,,,,,,,,,,,,,,,,,,,,,,
297538,2022-11-30_23h47.24.529,vts_reward_expectancy_bt,2022.2.4,MacIntel,62.5,Safari,1366,768,,,a,1.09,1,229,1,0,3,3,0,1,1,0,0,0,0,1,0,0,triangle,circle,,,,,,,,,,,,,,,,,,,,,,,,,,,,,,,,,,,,,,,,,,,,,,,,,,,,,,
297538,2022-11-30_23h47.24.529,vts_reward_expectancy_bt,2022.2.4,MacIntel,62.5,Safari,1366,768,,,l,1.436,1,230,1,0,4,4,9,1,0,0,0,1,1,0,0,0,star,triangle,,,,,,,,,,,,,,,,,,,,,,,,,,,,,,,,,,,,,,,,,,,,,,,,,,,,,,
297538,2022-11-30_23h47.24.529,vts_reward_expectancy_bt,2022.2.4,MacIntel,62.5,Safari,1366,768,,,l,1.273,1,231,1,0,5,5,6,1,0,0,1,0,1,0,0,0,hexagon,triangle,,,,,,,,,,,,,,,,,,,,,,,,,,,,,,,,,,,,,,,,,,,,,,,,,,,,,,
297538,2022-11-30_23h47.24.529,vts_reward_expectancy_bt,2022.2.4,MacIntel,62.5,Safari,1366,768,,,l,0.902,10,241,1,0,6,6,8,1,0,0,1,0,0,0,0,1,hexagon,star,,,,,,,,,,,,,,,,,,,,,,,,,,,,,,,,,,,,,,,,,,,,,,,,,,,,,,
297538,2022-11-30_23h47.24.529,vts_reward_expectancy_bt,2022.2.4,MacIntel,62.5,Safari,1366,768,,,l,0.705,10,251,1,0,7,7,2,1,1,0,0,0,0,0,0,1,triangle,star,,,,,,,,,,,,,,,,,,,,,,,,,,,,,,,,,,,,,,,,,,,,,,,,,,,,,,
297538,2022-11-30_23h47.24.529,vts_reward_expectancy_bt,2022.2.4,MacIntel,62.5,Safari,1366,768,,,l,0.625,1,252,1,0,8,8,5,1,0,1,0,0,0,0,0,1,circle,star,,,,,,,,,,,,,,,,,,,,,,,,,,,,,,,,,,,,,,,,,,,,,,,,,,,,,,
297538,2022-11-30_23h47.24.529,vts_reward_expectancy_bt,2022.2.4,MacIntel,62.5,Safari,1366,768,,,a,1.388,1,253,1,0,9,9,11,1,0,0,0,1,0,0,1,0,star,hexagon,,,,,,,,,,,,,,,,,,,,,,,,,,,,,,,,,,,,,,,,,,,,,,,,,,,,,,
297538,2022-11-30_23h47.24.529,vts_reward_expectancy_bt,2022.2.4,MacIntel,62.5,Safari,1366,768,,,l,0.701,1,254,1,0,10,10,4,1,0,1,0,0,0,0,1,0,circle,hexagon,,,,,,,,,,,,,,,,,,,,,,,,,,,,,,,,,,,,,,,,,,,,,,,,,,,,,,
297538,2022-11-30_23h47.24.529,vts_reward_expectancy_bt,2022.2.4,MacIntel,62.5,Safari,1366,768,,,a,0.535,10,264,1,0,11,11,3,1,0,1,0,0,1,0,0,0,circle,triangle,,,,,,,,,,,,,,,,,,,,,,,,,,,,,,,,,,,,,,,,,,,,,,,,,,,,,,
297538,2022-11-30_23h47.24.529,vts_reward_expectancy_bt,2022.2.4,MacIntel,62.5,Safari,1366,768,,,l,1.386,1,265,1,1,0,12,1,1,1,0,0,0,0,0,1,0,triangle,hexagon,,,,,,,,,,,,,,,,,,,,,,,,,,,,,,,,,,,,,,,,,,,,,,,,,,,,,,
297538,2022-11-30_23h47.24.529,vts_reward_expectancy_bt,2022.2.4,MacIntel,62.5,Safari,1366,768,,,l,1.149,1,266,1,1,1,13,0,1,1,0,0,0,0,1,0,0,triangle,circle,,,,,,,,,,,,,,,,,,,,,,,,,,,,,,,,,,,,,,,,,,,,,,,,,,,,,,
297538,2022-11-30_23h47.24.529,vts_reward_expectancy_bt,2022.2.4,MacIntel,62.5,Safari,1366,768,,,a,0.785,10,276,1,1,2,14,9,1,0,0,0,1,1,0,0,0,star,triangle,,,,,,,,,,,,,,,,,,,,,,,,,,,,,,,,,,,,,,,,,,,,,,,,,,,,,,
297538,2022-11-30_23h47.24.529,vts_reward_expectancy_bt,2022.2.4,MacIntel,62.5,Safari,1366,768,,,l,0.619,10,286,1,1,3,15,5,1,0,1,0,0,0,0,0,1,circle,star,,,,,,,,,,,,,,,,,,,,,,,,,,,,,,,,,,,,,,,,,,,,,,,,,,,,,,
297538,2022-11-30_23h47.24.529,vts_reward_expectancy_bt,2022.2.4,MacIntel,62.5,Safari,1366,768,,,a,0.818,10,296,1,1,4,16,11,1,0,0,0,1,0,0,1,0,star,hexagon,,,,,,,,,,,,,,,,,,,,,,,,,,,,,,,,,,,,,,,,,,,,,,,,,,,,,,
297538,2022-11-30_23h47.24.529,vts_reward_expectancy_bt,2022.2.4,MacIntel,62.5,Safari,1366,768,,,l,0.787,10,306,1,1,5,17,2,1,1,0,0,0,0,0,0,1,triangle,star,,,,,,,,,,,,,,,,,,,,,,,,,,,,,,,,,,,,,,,,,,,,,,,,,,,,,,
297538,2022-11-30_23h47.24.529,vts_reward_expectancy_bt,2022.2.4,MacIntel,62.5,Safari,1366,768,,,l,0.651,10,316,1,1,6,18,8,1,0,0,1,0,0,0,0,1,hexagon,star,,,,,,,,,,,,,,,,,,,,,,,,,,,,,,,,,,,,,,,,,,,,,,,,,,,,,,
297538,2022-11-30_23h47.24.529,vts_reward_expectancy_bt,2022.2.4,MacIntel,62.5,Safari,1366,768,,,a,0.588,10,326,1,1,7,19,10,1,0,0,0,1,0,1,0,0,star ,circle,,,,,,,,,,,,,,,,,,,,,,,,,,,,,,,,,,,,,,,,,,,,,,,,,,,,,,
297538,2022-11-30_23h47.24.529,vts_reward_expectancy_bt,2022.2.4,MacIntel,62.5,Safari,1366,768,,,l,2.048,10,336,1,1,8,20,6,1,0,0,1,0,1,0,0,0,hexagon,triangle,,,,,,,,,,,,,,,,,,,,,,,,,,,,,,,,,,,,,,,,,,,,,,,,,,,,,,
297538,2022-11-30_23h47.24.529,vts_reward_expectancy_bt,2022.2.4,MacIntel,62.5,Safari,1366,768,,,l,3.252,10,346,1,1,9,21,3,1,0,1,0,0,1,0,0,0,circle,triangle,,,,,,,,,,,,,,,,,,,,,,,,,,,,,,,,,,,,,,,,,,,,,,,,,,,,,,
297538,2022-11-30_23h47.24.529,vts_reward_expectancy_bt,2022.2.4,MacIntel,62.5,Safari,1366,768,,,l,1.135,10,356,1,1,10,22,4,1,0,1,0,0,0,0,1,0,circle,hexagon,,,,,,,,,,,,,,,,,,,,,,,,,,,,,,,,,,,,,,,,,,,,,,,,,,,,,,
297538,2022-11-30_23h47.24.529,vts_reward_expectancy_bt,2022.2.4,MacIntel,62.5,Safari,1366,768,,,a,1.054,1,357,1,1,11,23,7,1,0,0,1,0,0,1,0,0,hexagon,circle,,,,,,,,,,,,,,,,,,,,,,,,,,,,,,,,,,,,,,,,,,,,,,,,,,,,,,
297538,2022-11-30_23h47.24.529,vts_reward_expectancy_bt,2022.2.4,MacIntel,62.5,Safari,1366,768,,,l,0.682,1,358,1,2,0,24,5,1,0,1,0,0,0,0,0,1,circle,star,,,,,,,,,,,,,,,,,,,,,,,,,,,,,,,,,,,,,,,,,,,,,,,,,,,,,,
297538,2022-11-30_23h47.24.529,vts_reward_expectancy_bt,2022.2.4,MacIntel,62.5,Safari,1366,768,,,l,0.621,10,368,1,2,1,25,8,1,0,0,1,0,0,0,0,1,hexagon,star,,,,,,,,,,,,,,,,,,,,,,,,,,,,,,,,,,,,,,,,,,,,,,,,,,,,,,
297538,2022-11-30_23h47.24.529,vts_reward_expectancy_bt,2022.2.4,MacIntel,62.5,Safari,1366,768,,,a,0.771,1,369,1,2,2,26,1,1,1,0,0,0,0,0,1,0,triangle,hexagon,,,,,,,,,,,,,,,,,,,,,,,,,,,,,,,,,,,,,,,,,,,,,,,,,,,,,,
297538,2022-11-30_23h47.24.529,vts_reward_expectancy_bt,2022.2.4,MacIntel,62.5,Safari,1366,768,,,a,0.637,1,370,1,2,3,27,10,1,0,0,0,1,0,1,0,0,star ,circle,,,,,,,,,,,,,,,,,,,,,,,,,,,,,,,,,,,,,,,,,,,,,,,,,,,,,,
297538,2022-11-30_23h47.24.529,vts_reward_expectancy_bt,2022.2.4,MacIntel,62.5,Safari,1366,768,,,a,0.656,1,371,1,2,4,28,9,1,0,0,0,1,1,0,0,0,star,triangle,,,,,,,,,,,,,,,,,,,,,,,,,,,,,,,,,,,,,,,,,,,,,,,,,,,,,,
297538,2022-11-30_23h47.24.529,vts_reward_expectancy_bt,2022.2.4,MacIntel,62.5,Safari,1366,768,,,l,1.755,1,372,1,2,5,29,6,1,0,0,1,0,1,0,0,0,hexagon,triangle,,,,,,,,,,,,,,,,,,,,,,,,,,,,,,,,,,,,,,,,,,,,,,,,,,,,,,
297538,2022-11-30_23h47.24.529,vts_reward_expectancy_bt,2022.2.4,MacIntel,62.5,Safari,1366,768,,,l,0.721,10,382,1,2,6,30,2,1,1,0,0,0,0,0,0,1,triangle,star,,,,,,,,,,,,,,,,,,,,,,,,,,,,,,,,,,,,,,,,,,,,,,,,,,,,,,
297538,2022-11-30_23h47.24.529,vts_reward_expectancy_bt,2022.2.4,MacIntel,62.5,Safari,1366,768,,,a,1.785,1,383,1,2,7,31,0,1,1,0,0,0,0,1,0,0,triangle,circle,,,,,,,,,,,,,,,,,,,,,,,,,,,,,,,,,,,,,,,,,,,,,,,,,,,,,,
297538,2022-11-30_23h47.24.529,vts_reward_expectancy_bt,2022.2.4,MacIntel,62.5,Safari,1366,768,,,l,1.569,1,384,1,2,8,32,7,1,0,0,1,0,0,1,0,0,hexagon,circle,,,,,,,,,,,,,,,,,,,,,,,,,,,,,,,,,,,,,,,,,,,,,,,,,,,,,,
297538,2022-11-30_23h47.24.529,vts_reward_expectancy_bt,2022.2.4,MacIntel,62.5,Safari,1366,768,,,l,0.901,1,385,1,2,9,33,3,1,0,1,0,0,1,0,0,0,circle,triangle,,,,,,,,,,,,,,,,,,,,,,,,,,,,,,,,,,,,,,,,,,,,,,,,,,,,,,
297538,2022-11-30_23h47.24.529,vts_reward_expectancy_bt,2022.2.4,MacIntel,62.5,Safari,1366,768,,,l,0.991,10,395,1,2,10,34,4,1,0,1,0,0,0,0,1,0,circle,hexagon,,,,,,,,,,,,,,,,,,,,,,,,,,,,,,,,,,,,,,,,,,,,,,,,,,,,,,
297538,2022-11-30_23h47.24.529,vts_reward_expectancy_bt,2022.2.4,MacIntel,62.5,Safari,1366,768,,,a,0.592,10,405,1,2,11,35,11,1,0,0,0,1,0,0,1,0,star,hexagon,,,,,,,,,,,,,,,,,,,,,,,,,,,,,,,,,,,,,,,,,,,,,,,,,,,,,,
297538,2022-11-30_23h47.24.529,vts_reward_expectancy_bt,2022.2.4,MacIntel,62.5,Safari,1366,768,,,l,1.572,1,406,2,0,0,0,8,1,0,0,1,0,0,0,0,1,hexagon,star,,,,,,,,,,,,,,,,,,,,,,,,,,,,,,,,,,,,,,,,,,,,,,,,,,,,,,
297538,2022-11-30_23h47.24.529,vts_reward_expectancy_bt,2022.2.4,MacIntel,62.5,Safari,1366,768,,,l,1.153,1,407,2,0,1,1,1,1,1,0,0,0,0,0,1,0,triangle,hexagon,,,,,,,,,,,,,,,,,,,,,,,,,,,,,,,,,,,,,,,,,,,,,,,,,,,,,,
297538,2022-11-30_23h47.24.529,vts_reward_expectancy_bt,2022.2.4,MacIntel,62.5,Safari,1366,768,,,l,1.133,10,417,2,0,2,2,10,1,0,0,0,1,0,1,0,0,star ,circle,,,,,,,,,,,,,,,,,,,,,,,,,,,,,,,,,,,,,,,,,,,,,,,,,,,,,,
297538,2022-11-30_23h47.24.529,vts_reward_expectancy_bt,2022.2.4,MacIntel,62.5,Safari,1366,768,,,a,0.718,10,427,2,0,3,3,2,1,1,0,0,0,0,0,0,1,triangle,star,,,,,,,,,,,,,,,,,,,,,,,,,,,,,,,,,,,,,,,,,,,,,,,,,,,,,,
297538,2022-11-30_23h47.24.529,vts_reward_expectancy_bt,2022.2.4,MacIntel,62.5,Safari,1366,768,,,l,0.684,10,437,2,0,4,4,9,1,0,0,0,1,1,0,0,0,star,triangle,,,,,,,,,,,,,,,,,,,,,,,,,,,,,,,,,,,,,,,,,,,,,,,,,,,,,,
297538,2022-11-30_23h47.24.529,vts_reward_expectancy_bt,2022.2.4,MacIntel,62.5,Safari,1366,768,,,l,0.918,10,447,2,0,5,5,0,1,1,0,0,0,0,1,0,0,triangle,circle,,,,,,,,,,,,,,,,,,,,,,,,,,,,,,,,,,,,,,,,,,,,,,,,,,,,,,
297538,2022-11-30_23h47.24.529,vts_reward_expectancy_bt,2022.2.4,MacIntel,62.5,Safari,1366,768,,,a,1.069,10,457,2,0,6,6,3,1,0,1,0,0,1,0,0,0,circle,triangle,,,,,,,,,,,,,,,,,,,,,,,,,,,,,,,,,,,,,,,,,,,,,,,,,,,,,,
297538,2022-11-30_23h47.24.529,vts_reward_expectancy_bt,2022.2.4,MacIntel,62.5,Safari,1366,768,,,a,1.402,10,467,2,0,7,7,5,1,0,1,0,0,0,0,0,1,circle,star,,,,,,,,,,,,,,,,,,,,,,,,,,,,,,,,,,,,,,,,,,,,,,,,,,,,,,
297538,2022-11-30_23h47.24.529,vts_reward_expectancy_bt,2022.2.4,MacIntel,62.5,Safari,1366,768,,,l,1.785,10,477,2,0,8,8,11,1,0,0,0,1,0,0,1,0,star,hexagon,,,,,,,,,,,,,,,,,,,,,,,,,,,,,,,,,,,,,,,,,,,,,,,,,,,,,,
297538,2022-11-30_23h47.24.529,vts_reward_expectancy_bt,2022.2.4,MacIntel,62.5,Safari,1366,768,,,l,1.951,1,478,2,0,9,9,4,1,0,1,0,0,0,0,1,0,circle,hexagon,,,,,,,,,,,,,,,,,,,,,,,,,,,,,,,,,,,,,,,,,,,,,,,,,,,,,,
297538,2022-11-30_23h47.24.529,vts_reward_expectancy_bt,2022.2.4,MacIntel,62.5,Safari,1366,768,,,l,0.732,10,488,2,0,10,10,7,1,0,0,1,0,0,1,0,0,hexagon,circle,,,,,,,,,,,,,,,,,,,,,,,,,,,,,,,,,,,,,,,,,,,,,,,,,,,,,,
297538,2022-11-30_23h47.24.529,vts_reward_expectancy_bt,2022.2.4,MacIntel,62.5,Safari,1366,768,,,l,3.021,1,489,2,0,11,11,6,1,0,0,1,0,1,0,0,0,hexagon,triangle,,,,,,,,,,,,,,,,,,,,,,,,,,,,,,,,,,,,,,,,,,,,,,,,,,,,,,
297538,2022-11-30_23h47.24.529,vts_reward_expectancy_bt,2022.2.4,MacIntel,62.5,Safari,1366,768,,,a,0.843,1,490,2,1,0,12,8,1,0,0,1,0,0,0,0,1,hexagon,star,,,,,,,,,,,,,,,,,,,,,,,,,,,,,,,,,,,,,,,,,,,,,,,,,,,,,,
297538,2022-11-30_23h47.24.529,vts_reward_expectancy_bt,2022.2.4,MacIntel,62.5,Safari,1366,768,,,a,2.636,10,500,2,1,1,13,6,1,0,0,1,0,1,0,0,0,hexagon,triangle,,,,,,,,,,,,,,,,,,,,,,,,,,,,,,,,,,,,,,,,,,,,,,,,,,,,,,
297538,2022-11-30_23h47.24.529,vts_reward_expectancy_bt,2022.2.4,MacIntel,62.5,Safari,1366,768,,,l,0.919,1,501,2,1,2,14,0,1,1,0,0,0,0,1,0,0,triangle,circle,,,,,,,,,,,,,,,,,,,,,,,,,,,,,,,,,,,,,,,,,,,,,,,,,,,,,,
297538,2022-11-30_23h47.24.529,vts_reward_expectancy_bt,2022.2.4,MacIntel,62.5,Safari,1366,768,,,l,1.157,1,502,2,1,3,15,9,1,0,0,0,1,1,0,0,0,star,triangle,,,,,,,,,,,,,,,,,,,,,,,,,,,,,,,,,,,,,,,,,,,,,,,,,,,,,,
297538,2022-11-30_23h47.24.529,vts_reward_expectancy_bt,2022.2.4,MacIntel,62.5,Safari,1366,768,,,l,0.732,10,512,2,1,4,16,7,1,0,0,1,0,0,1,0,0,hexagon,circle,,,,,,,,,,,,,,,,,,,,,,,,,,,,,,,,,,,,,,,,,,,,,,,,,,,,,,
297538,2022-11-30_23h47.24.529,vts_reward_expectancy_bt,2022.2.4,MacIntel,62.5,Safari,1366,768,,,a,1.004,1,513,2,1,5,17,4,1,0,1,0,0,0,0,1,0,circle,hexagon,,,,,,,,,,,,,,,,,,,,,,,,,,,,,,,,,,,,,,,,,,,,,,,,,,,,,,
297538,2022-11-30_23h47.24.529,vts_reward_expectancy_bt,2022.2.4,MacIntel,62.5,Safari,1366,768,,,a,0.69,1,514,2,1,6,18,3,1,0,1,0,0,1,0,0,0,circle,triangle,,,,,,,,,,,,,,,,,,,,,,,,,,,,,,,,,,,,,,,,,,,,,,,,,,,,,,
297538,2022-11-30_23h47.24.529,vts_reward_expectancy_bt,2022.2.4,MacIntel,62.5,Safari,1366,768,,,a,0.818,10,524,2,1,7,19,2,1,1,0,0,0,0,0,0,1,triangle,star,,,,,,,,,,,,,,,,,,,,,,,,,,,,,,,,,,,,,,,,,,,,,,,,,,,,,,
297538,2022-11-30_23h47.24.529,vts_reward_expectancy_bt,2022.2.4,MacIntel,62.5,Safari,1366,768,,,l,0.593,10,534,2,1,8,20,11,1,0,0,0,1,0,0,1,0,star,hexagon,,,,,,,,,,,,,,,,,,,,,,,,,,,,,,,,,,,,,,,,,,,,,,,,,,,,,,
297538,2022-11-30_23h47.24.529,vts_reward_expectancy_bt,2022.2.4,MacIntel,62.5,Safari,1366,768,,,a,0.605,10,544,2,1,9,21,5,1,0,1,0,0,0,0,0,1,circle,star,,,,,,,,,,,,,,,,,,,,,,,,,,,,,,,,,,,,,,,,,,,,,,,,,,,,,,
297538,2022-11-30_23h47.24.529,vts_reward_expectancy_bt,2022.2.4,MacIntel,62.5,Safari,1366,768,,,l,0.602,10,554,2,1,10,22,1,1,1,0,0,0,0,0,1,0,triangle,hexagon,,,,,,,,,,,,,,,,,,,,,,,,,,,,,,,,,,,,,,,,,,,,,,,,,,,,,,
297538,2022-11-30_23h47.24.529,vts_reward_expectancy_bt,2022.2.4,MacIntel,62.5,Safari,1366,768,,,l,0.631,10,564,2,1,11,23,10,1,0,0,0,1,0,1,0,0,star ,circle,,,,,,,,,,,,,,,,,,,,,,,,,,,,,,,,,,,,,,,,,,,,,,,,,,,,,,
297538,2022-11-30_23h47.24.529,vts_reward_expectancy_bt,2022.2.4,MacIntel,62.5,Safari,1366,768,,,l,0.617,1,565,2,2,0,24,11,1,0,0,0,1,0,0,1,0,star,hexagon,,,,,,,,,,,,,,,,,,,,,,,,,,,,,,,,,,,,,,,,,,,,,,,,,,,,,,
297538,2022-11-30_23h47.24.529,vts_reward_expectancy_bt,2022.2.4,MacIntel,62.5,Safari,1366,768,,,l,0.667,1,566,2,2,1,25,9,1,0,0,0,1,1,0,0,0,star,triangle,,,,,,,,,,,,,,,,,,,,,,,,,,,,,,,,,,,,,,,,,,,,,,,,,,,,,,
297538,2022-11-30_23h47.24.529,vts_reward_expectancy_bt,2022.2.4,MacIntel,62.5,Safari,1366,768,,,a,1.019,10,576,2,2,2,26,6,1,0,0,1,0,1,0,0,0,hexagon,triangle,,,,,,,,,,,,,,,,,,,,,,,,,,,,,,,,,,,,,,,,,,,,,,,,,,,,,,
297538,2022-11-30_23h47.24.529,vts_reward_expectancy_bt,2022.2.4,MacIntel,62.5,Safari,1366,768,,,a,0.837,10,586,2,2,3,27,4,1,0,1,0,0,0,0,1,0,circle,hexagon,,,,,,,,,,,,,,,,,,,,,,,,,,,,,,,,,,,,,,,,,,,,,,,,,,,,,,
297538,2022-11-30_23h47.24.529,vts_reward_expectancy_bt,2022.2.4,MacIntel,62.5,Safari,1366,768,,,l,0.597,10,596,2,2,4,28,7,1,0,0,1,0,0,1,0,0,hexagon,circle,,,,,,,,,,,,,,,,,,,,,,,,,,,,,,,,,,,,,,,,,,,,,,,,,,,,,,
297538,2022-11-30_23h47.24.529,vts_reward_expectancy_bt,2022.2.4,MacIntel,62.5,Safari,1366,768,,,l,0.591,1,597,2,2,5,29,10,1,0,0,0,1,0,1,0,0,star ,circle,,,,,,,,,,,,,,,,,,,,,,,,,,,,,,,,,,,,,,,,,,,,,,,,,,,,,,
297538,2022-11-30_23h47.24.529,vts_reward_expectancy_bt,2022.2.4,MacIntel,62.5,Safari,1366,768,,,a,0.634,1,598,2,2,6,30,5,1,0,1,0,0,0,0,0,1,circle,star,,,,,,,,,,,,,,,,,,,,,,,,,,,,,,,,,,,,,,,,,,,,,,,,,,,,,,
297538,2022-11-30_23h47.24.529,vts_reward_expectancy_bt,2022.2.4,MacIntel,62.5,Safari,1366,768,,,l,0.77,10,608,2,2,7,31,1,1,1,0,0,0,0,0,1,0,triangle,hexagon,,,,,,,,,,,,,,,,,,,,,,,,,,,,,,,,,,,,,,,,,,,,,,,,,,,,,,
297538,2022-11-30_23h47.24.529,vts_reward_expectancy_bt,2022.2.4,MacIntel,62.5,Safari,1366,768,,,l,0.925,1,609,2,2,8,32,0,1,1,0,0,0,0,1,0,0,triangle,circle,,,,,,,,,,,,,,,,,,,,,,,,,,,,,,,,,,,,,,,,,,,,,,,,,,,,,,
297538,2022-11-30_23h47.24.529,vts_reward_expectancy_bt,2022.2.4,MacIntel,62.5,Safari,1366,768,,,a,1.017,1,610,2,2,9,33,3,1,0,1,0,0,1,0,0,0,circle,triangle,,,,,,,,,,,,,,,,,,,,,,,,,,,,,,,,,,,,,,,,,,,,,,,,,,,,,,
297538,2022-11-30_23h47.24.529,vts_reward_expectancy_bt,2022.2.4,MacIntel,62.5,Safari,1366,768,,,l,0.548,10,620,2,2,10,34,8,1,0,0,1,0,0,0,0,1,hexagon,star,,,,,,,,,,,,,,,,,,,,,,,,,,,,,,,,,,,,,,,,,,,,,,,,,,,,,,
297538,2022-11-30_23h47.24.529,vts_reward_expectancy_bt,2022.2.4,MacIntel,62.5,Safari,1366,768,,,a,0.753,10,630,2,2,11,35,2,1,1,0,0,0,0,0,0,1,triangle,star,,,,,,,,,,,,,,,,,,,,,,,,,,,,,,,,,,,,,,,,,,,,,,,,,,,,,,
297538,2022-11-30_23h47.24.529,vts_reward_expectancy_bt,2022.2.4,MacIntel,62.5,Safari,1366,768,,,,,,,,,,,,,,,,,,,,,,,146,B,circle,1,0,d,2.218,0,0,0,0,0,1,,,,,,,,,,,,,,,,,,,,,,,,,,,,,,,,,,,,,,,,,
297538,2022-11-30_23h47.24.529,vts_reward_expectancy_bt,2022.2.4,MacIntel,62.5,Safari,1366,768,,,,,,,,,,,,,,,,,,,,,,,174,U,star,1,0,f,0.96,0,1,0,1,0,1,,,,,,,,,,,,,,,,,,,,,,,,,,,,,,,,,,,,,,,,,
297538,2022-11-30_23h47.24.529,vts_reward_expectancy_bt,2022.2.4,MacIntel,62.5,Safari,1366,768,,,,,,,,,,,,,,,,,,,,,,,181,S,hexagon,1,0,f,0.994,0,2,0,2,0,1,,,,,,,,,,,,,,,,,,,,,,,,,,,,,,,,,,,,,,,,,
297538,2022-11-30_23h47.24.529,vts_reward_expectancy_bt,2022.2.4,MacIntel,62.5,Safari,1366,768,,,,,,,,,,,,,,,,,,,,,,,139,Y,triangle,1,0,d,0.793,0,3,0,3,0,1,,,,,,,,,,,,,,,,,,,,,,,,,,,,,,,,,,,,,,,,,
297538,2022-11-30_23h47.24.529,vts_reward_expectancy_bt,2022.2.4,MacIntel,62.5,Safari,1366,768,,,,,,,,,,,,,,,,,,,,,,,167,F,circle,1,0,f,0.777,0,4,0,4,0,1,,,,,,,,,,,,,,,,,,,,,,,,,,,,,,,,,,,,,,,,,
297538,2022-11-30_23h47.24.529,vts_reward_expectancy_bt,2022.2.4,MacIntel,62.5,Safari,1366,768,,,,,,,,,,,,,,,,,,,,,,,132,H,star,1,0,d,0.646,0,5,0,5,0,1,,,,,,,,,,,,,,,,,,,,,,,,,,,,,,,,,,,,,,,,,
297538,2022-11-30_23h47.24.529,vts_reward_expectancy_bt,2022.2.4,MacIntel,62.5,Safari,1366,768,,,,,,,,,,,,,,,,,,,,,,,160,D,hexagon,1,0,f,0.925,0,6,0,6,0,1,,,,,,,,,,,,,,,,,,,,,,,,,,,,,,,,,,,,,,,,,
297538,2022-11-30_23h47.24.529,vts_reward_expectancy_bt,2022.2.4,MacIntel,62.5,Safari,1366,768,,,,,,,,,,,,,,,,,,,,,,,125,W,triangle,1,0,d,0.749,0,7,0,7,0,1,,,,,,,,,,,,,,,,,,,,,,,,,,,,,,,,,,,,,,,,,
297538,2022-11-30_23h47.24.529,vts_reward_expectancy_bt,2022.2.4,MacIntel,62.5,Safari,1366,768,,,,,,,,,,,,,,,,,,,,,,,146,B,hexagon,1,0,d,1.659,0,8,0,8,0,1,,,,,,,,,,,,,,,,,,,,,,,,,,,,,,,,,,,,,,,,,
297538,2022-11-30_23h47.24.529,vts_reward_expectancy_bt,2022.2.4,MacIntel,62.5,Safari,1366,768,,,,,,,,,,,,,,,,,,,,,,,174,U,star,1,0,f,0.585,0,9,0,9,0,1,,,,,,,,,,,,,,,,,,,,,,,,,,,,,,,,,,,,,,,,,
297538,2022-11-30_23h47.24.529,vts_reward_expectancy_bt,2022.2.4,MacIntel,62.5,Safari,1366,768,,,,,,,,,,,,,,,,,,,,,,,181,W,hexagon,1,0,,,1,,,,,,k,1.479,0,0,0,0,1,,,,,,,,,,,,,,,,,,,,,,,,,,,,,,,,,,
297538,2022-11-30_23h47.24.529,vts_reward_expectancy_bt,2022.2.4,MacIntel,62.5,Safari,1366,768,,,,,,,,,,,,,,,,,,,,,,,146,U,star,1,0,,,1,,,,,,k,1.314,1,0,1,0,1,,,,,,,,,,,,,,,,,,,,,,,,,,,,,,,,,,
297538,2022-11-30_23h47.24.529,vts_reward_expectancy_bt,2022.2.4,MacIntel,62.5,Safari,1366,768,,,,,,,,,,,,,,,,,,,,,,,139,F,circle,1,0,,,1,,,,,,j,1.476,2,0,2,0,1,,,,,,,,,,,,,,,,,,,,,,,,,,,,,,,,,,
297538,2022-11-30_23h47.24.529,vts_reward_expectancy_bt,2022.2.4,MacIntel,62.5,Safari,1366,768,,,,,,,,,,,,,,,,,,,,,,,160,Y,triangle,1,0,,,1,,,,,,k,0.896,3,0,3,0,1,,,,,,,,,,,,,,,,,,,,,,,,,,,,,,,,,,
297538,2022-11-30_23h47.24.529,vts_reward_expectancy_bt,2022.2.4,MacIntel,62.5,Safari,1366,768,,,,,,,,,,,,,,,,,,,,,,,132,S,hexagon,1,0,,,1,,,,,,k,1.963,4,0,4,0,1,,,,,,,,,,,,,,,,,,,,,,,,,,,,,,,,,,
297538,2022-11-30_23h47.24.529,vts_reward_expectancy_bt,2022.2.4,MacIntel,62.5,Safari,1366,768,,,,,,,,,,,,,,,,,,,,,,,125,D,star,1,0,,,1,,,,,,j,0.726,5,0,5,0,1,,,,,,,,,,,,,,,,,,,,,,,,,,,,,,,,,,
297538,2022-11-30_23h47.24.529,vts_reward_expectancy_bt,2022.2.4,MacIntel,62.5,Safari,1366,768,,,,,,,,,,,,,,,,,,,,,,,174,H,circle,1,0,,,1,,,,,,j,0.892,6,0,6,0,1,,,,,,,,,,,,,,,,,,,,,,,,,,,,,,,,,,
297538,2022-11-30_23h47.24.529,vts_reward_expectancy_bt,2022.2.4,MacIntel,62.5,Safari,1366,768,,,,,,,,,,,,,,,,,,,,,,,167,B,triangle,1,0,,,1,,,,,,j,0.709,7,0,7,0,1,,,,,,,,,,,,,,,,,,,,,,,,,,,,,,,,,,
297538,2022-11-30_23h47.24.529,vts_reward_expectancy_bt,2022.2.4,MacIntel,62.5,Safari,1366,768,,,,,,,,,,,,,,,,,,,,,,,181,W,triangle,1,0,,,1,,,,,,k,0.93,8,0,8,0,1,,,,,,,,,,,,,,,,,,,,,,,,,,,,,,,,,,
297538,2022-11-30_23h47.24.529,vts_reward_expectancy_bt,2022.2.4,MacIntel,62.5,Safari,1366,768,,,,,,,,,,,,,,,,,,,,,,,146,U,star,1,0,,,1,,,,,,k,0.66,9,0,9,0,1,,,,,,,,,,,,,,,,,,,,,,,,,,,,,,,,,,
297538,2022-11-30_23h47.24.529,vts_reward_expectancy_bt,2022.2.4,MacIntel,62.5,Safari,1366,768,,,,,0,630,,,,,,,,,,,,,,,,,146,Y,triangle,-1,0,,,2,,,,,,,,,,,,,-1,no_choice,NA,,vtsPrac,0,0,0,0,1,,,,,,,,,,,,,,,,,,,,,,,,
297538,2022-11-30_23h47.24.529,vts_reward_expectancy_bt,2022.2.4,MacIntel,62.5,Safari,1366,768,,,,,0,630,,,,,,,,,,,,,,,,,125,S,star,1,0,,,2,,,,,,,,,,,,,switch,number,numSwt,d,vtsPrac,1,0,1,0,1,1.191,,,,,,,,,,,,,,,,,,,,,,,
297538,2022-11-30_23h47.24.529,vts_reward_expectancy_bt,2022.2.4,MacIntel,62.5,Safari,1366,768,,,,,0,630,,,,,,,,,,,,,,,,,181,D,triangle,1,0,,,2,,,,,,,,,,,,,repeat,number,numRpt,f,vtsPrac,2,0,2,0,1,0.744,,,,,,,,,,,,,,,,,,,,,,,
297538,2022-11-30_23h47.24.529,vts_reward_expectancy_bt,2022.2.4,MacIntel,62.5,Safari,1366,768,,,,,0,630,,,,,,,,,,,,,,,,,132,H,star,1,0,,,2,,,,,,,,,,,,,repeat,number,numRpt,d,vtsPrac,3,0,3,0,1,0.858,,,,,,,,,,,,,,,,,,,,,,,
297538,2022-11-30_23h47.24.529,vts_reward_expectancy_bt,2022.2.4,MacIntel,62.5,Safari,1366,768,,,,,0,630,,,,,,,,,,,,,,,,,146,Y,hexagon,1,0,,,2,,,,,,,,,,,,,switch,letter,lettSwt,k,vtsPrac,4,0,4,0,1,0.729,,,,,,,,,,,,,,,,,,,,,,,
297538,2022-11-30_23h47.24.529,vts_reward_expectancy_bt,2022.2.4,MacIntel,62.5,Safari,1366,768,,,,,0,630,,,,,,,,,,,,,,,,,125,S,circle,1,0,,,2,,,,,,,,,,,,,repeat,letter,lettRpt,k,vtsPrac,5,0,5,0,1,1.247,,,,,,,,,,,,,,,,,,,,,,,
297538,2022-11-30_23h47.24.529,vts_reward_expectancy_bt,2022.2.4,MacIntel,62.5,Safari,1366,768,,,,,0,630,,,,,,,,,,,,,,,,,181,D,star,1,0,,,2,,,,,,,,,,,,,switch,number,numSwt,f,vtsPrac,6,0,6,0,1,0.73,,,,,,,,,,,,,,,,,,,,,,,
297538,2022-11-30_23h47.24.529,vts_reward_expectancy_bt,2022.2.4,MacIntel,62.5,Safari,1366,768,,,,,0,630,,,,,,,,,,,,,,,,,132,H,circle,1,0,,,2,,,,,,,,,,,,,switch,letter,lettSwt,j,vtsPrac,7,0,7,0,1,0.699,,,,,,,,,,,,,,,,,,,,,,,
297538,2022-11-30_23h47.24.529,vts_reward_expectancy_bt,2022.2.4,MacIntel,62.5,Safari,1366,768,,,,,0,630,,,,,,,,,,,,,,,,,146,D,triangle,1,0,,,2,,,,,,,,,,,,,switch,number,numSwt,d,vtsPrac,8,0,8,0,1,0.76,,,,,,,,,,,,,,,,,,,,,,,
297538,2022-11-30_23h47.24.529,vts_reward_expectancy_bt,2022.2.4,MacIntel,62.5,Safari,1366,768,,,,,0,630,,,,,,,,,,,,,,,,,132,U,circle,1,0,,,2,,,,,,,,,,,,,repeat,number,numRpt,d,vtsPrac,9,0,9,0,1,0.745,,,,,,,,,,,,,,,,,,,,,,,
297538,2022-11-30_23h47.24.529,vts_reward_expectancy_bt,2022.2.4,MacIntel,62.5,Safari,1366,768,,,,,0,630,,,,,,,,,,,,,,,,,167,F,hexagon,1,0,,,2,,,,,,,,,,,,,switch,letter,lettSwt,j,vtsPrac,10,0,10,0,1,0.763,,,,,,,,,,,,,,,,,,,,,,,
297538,2022-11-30_23h47.24.529,vts_reward_expectancy_bt,2022.2.4,MacIntel,62.5,Safari,1366,768,,,,,0,630,,,,,,,,,,,,,,,,,160,W,star,1,0,,,2,,,,,,,,,,,,,repeat,letter,lettRpt,k,vtsPrac,11,0,11,0,1,0.596,,,,,,,,,,,,,,,,,,,,,,,
297538,2022-11-30_23h47.24.529,vts_reward_expectancy_bt,2022.2.4,MacIntel,62.5,Safari,1366,768,,,,,0,630,,,,,,,,,,,,,,,,,125,W,circle,1,0,,,2,,,,,,,,,,,,,repeat,letter,lettRpt,k,vtsPrac,12,0,12,0,1,0.621,,,,,,,,,,,,,,,,,,,,,,,
297538,2022-11-30_23h47.24.529,vts_reward_expectancy_bt,2022.2.4,MacIntel,62.5,Safari,1366,768,,,,,0,630,,,,,,,,,,,,,,,,,181,U,star,1,0,,,2,,,,,,,,,,,,,switch,number,numSwt,f,vtsPrac,13,0,13,0,1,1.059,,,,,,,,,,,,,,,,,,,,,,,
297538,2022-11-30_23h47.24.529,vts_reward_expectancy_bt,2022.2.4,MacIntel,62.5,Safari,1366,768,,,,,0,630,,,,,,,,,,,,,,,,,167,F,circle,1,0,,,2,,,,,,,,,,,,,repeat,number,numRpt,f,vtsPrac,14,0,14,0,1,0.931,,,,,,,,,,,,,,,,,,,,,,,
297538,2022-11-30_23h47.24.529,vts_reward_expectancy_bt,2022.2.4,MacIntel,62.5,Safari,1366,768,,,,,0,630,,,,,,,,,,,,,,,,,174,B,star,1,0,,,2,,,,,,,,,,,,,switch,letter,lettSwt,j,vtsPrac,15,0,15,0,1,0.684,,,,,,,,,,,,,,,,,,,,,,,
297538,2022-11-30_23h47.24.529,vts_reward_expectancy_bt,2022.2.4,MacIntel,62.5,Safari,1366,768,,,,,0,630,,,,,,,,,,,,,,,,,132,F,circle,1,0,,,2,,,,,,,,,,,,,switch,number,numSwt,d,vtsPrac,16,0,16,0,1,0.726,,,,,,,,,,,,,,,,,,,,,,,
297538,2022-11-30_23h47.24.529,vts_reward_expectancy_bt,2022.2.4,MacIntel,62.5,Safari,1366,768,,,,,0,630,,,,,,,,,,,,,,,,,125,Y,star,1,0,,,2,,,,,,,,,,,,,repeat,number,numRpt,d,vtsPrac,17,0,17,0,1,0.659,,,,,,,,,,,,,,,,,,,,,,,
297538,2022-11-30_23h47.24.529,vts_reward_expectancy_bt,2022.2.4,MacIntel,62.5,Safari,1366,768,,,,,0,630,,,,,,,,,,,,,,,,,167,W,hexagon,1,0,,,2,,,,,,,,,,,,,repeat,number,numRpt,f,vtsPrac,18,0,18,0,1,1.017,,,,,,,,,,,,,,,,,,,,,,,
297538,2022-11-30_23h47.24.529,vts_reward_expectancy_bt,2022.2.4,MacIntel,62.5,Safari,1366,768,,,,,0,630,,,,,,,,,,,,,,,,,139,H,triangle,1,0,,,2,,,,,,,,,,,,,repeat,number,numRpt,d,vtsPrac,19,0,19,0,1,1.129,,,,,,,,,,,,,,,,,,,,,,,
297538,2022-11-30_23h47.24.529,vts_reward_expectancy_bt,2022.2.4,MacIntel,62.5,Safari,1366,768,,,,,0,630,,,,,,,,,,,,,,,,,146,W,circle,1,0,,,2,,,,,,,,,,,,,switch,letter,lettSwt,k,vtsPrac,20,0,20,0,1,0.76,,,,,,,,,,,,,,,,,,,,,,,
297538,2022-11-30_23h47.24.529,vts_reward_expectancy_bt,2022.2.4,MacIntel,62.5,Safari,1366,768,,,,,0,630,,,,,,,,,,,,,,,,,132,B,star,1,0,,,2,,,,,,,,,,,,,repeat,letter,lettRpt,j,vtsPrac,21,0,21,0,1,0.729,,,,,,,,,,,,,,,,,,,,,,,
297538,2022-11-30_23h47.24.529,vts_reward_expectancy_bt,2022.2.4,MacIntel,62.5,Safari,1366,768,,,,,0,630,,,,,,,,,,,,,,,,,167,D,triangle,1,0,,,2,,,,,,,,,,,,,repeat,letter,lettRpt,j,vtsPrac,22,0,22,0,1,0.793,,,,,,,,,,,,,,,,,,,,,,,
297538,2022-11-30_23h47.24.529,vts_reward_expectancy_bt,2022.2.4,MacIntel,62.5,Safari,1366,768,,,,,0,630,,,,,,,,,,,,,,,,,174,S,hexagon,1,0,,,2,,,,,,,,,,,,,switch,number,numSwt,f,vtsPrac,23,0,23,0,1,0.796,,,,,,,,,,,,,,,,,,,,,,,
297538,2022-11-30_23h47.24.529,vts_reward_expectancy_bt,2022.2.4,MacIntel,62.5,Safari,1366,768,,,,,0,630,,,,,,,,,,,,,,,,,125,H,triangle,1,0,,,2,,,,,,,,,,,,,switch,letter,lettSwt,j,vtsPrac,24,0,24,0,1,0.745,,,,,,,,,,,,,,,,,,,,,,,
297538,2022-11-30_23h47.24.529,vts_reward_expectancy_bt,2022.2.4,MacIntel,62.5,Safari,1366,768,,,,,0,630,,,,,,,,,,,,,,,,,132,U,circle,1,0,,,2,,,,,,,,,,,,,switch,number,numSwt,d,vtsPrac,25,0,25,0,1,0.697,,,,,,,,,,,,,,,,,,,,,,,
297538,2022-11-30_23h47.24.529,vts_reward_expectancy_bt,2022.2.4,MacIntel,62.5,Safari,1366,768,,,,,0,630,,,,,,,,,,,,,,,,,181,S,hexagon,1,0,,,2,,,,,,,,,,,,,repeat,number,numRpt,f,vtsPrac,26,0,26,0,1,0.685,,,,,,,,,,,,,,,,,,,,,,,
297538,2022-11-30_23h47.24.529,vts_reward_expectancy_bt,2022.2.4,MacIntel,62.5,Safari,1366,768,,,,,0,630,,,,,,,,,,,,,,,,,167,Y,circle,1,0,,,2,,,,,,,,,,,,,switch,letter,lettSwt,k,vtsPrac,27,0,27,0,1,0.731,,,,,,,,,,,,,,,,,,,,,,,
297538,2022-11-30_23h47.24.529,vts_reward_expectancy_bt,2022.2.4,MacIntel,62.5,Safari,1366,768,,,,,0,630,,,,,,,,,,,,,,,,,160,D,star,1,0,,,2,,,,,,,,,,,,,repeat,letter,lettRpt,j,vtsPrac,28,0,28,0,1,0.795,,,,,,,,,,,,,,,,,,,,,,,
297538,2022-11-30_23h47.24.529,vts_reward_expectancy_bt,2022.2.4,MacIntel,62.5,Safari,1366,768,,,,,0,630,,,,,,,,,,,,,,,,,174,F,hexagon,1,0,,,2,,,,,,,,,,,,,repeat,letter,lettRpt,j,vtsPrac,29,0,29,0,1,0.896,,,,,,,,,,,,,,,,,,,,,,,
297538,2022-11-30_23h47.24.529,vts_reward_expectancy_bt,2022.2.4,MacIntel,62.5,Safari,1366,768,,,,,0,630,,,,,,,,,,,,,,,,,125,W,hexagon,1,0,,,2,,,,,,,,,,,,,switch,number,numSwt,d,vtsPrac,30,0,30,0,1,0.797,,,,,,,,,,,,,,,,,,,,,,,
297538,2022-11-30_23h47.24.529,vts_reward_expectancy_bt,2022.2.4,MacIntel,62.5,Safari,1366,768,,,,,0,630,,,,,,,,,,,,,,,,,167,S,triangle,1,0,,,2,,,,,,,,,,,,,repeat,number,numRpt,f,vtsPrac,31,0,31,0,1,0.892,,,,,,,,,,,,,,,,,,,,,,,
297538,2022-11-30_23h47.24.529,vts_reward_expectancy_bt,2022.2.4,MacIntel,62.5,Safari,1366,768,,,,,,,,,,,,,,,,,,,,,,,,,,,,,,,,,,,,,,,,,,,,,,,,,,,,,,,,,,,,,,,,,,,,,,,,,,,,
297538,2022-11-30_23h47.24.529,vts_reward_expectancy_bt,2022.2.4,MacIntel,62.5,Safari,1366,768,,,,,,,,,,,,,,,,,,,,,,,,,,,,,,,,,,,,,,,,,,,,,,,,,,,,,,,,,,,,,,,,,,,,,,,,,,,,
297538,2022-11-30_23h47.24.529,vts_reward_expectancy_bt,2022.2.4,MacIntel,62.5,Safari,1366,768,,,,,0,630,,,,,,,,,,,,,,,,,160,S,star,1,0,,,,,,,,,,,,,,,,repeat,number,numRpt,f,noRew,,,,,,1.062,0,0,0,0,0,1,,,,,,,,,,,,,,,,,
297538,2022-11-30_23h47.24.529,vts_reward_expectancy_bt,2022.2.4,MacIntel,62.5,Safari,1366,768,,,,,0,630,,,,,,,,,,,,,,,,,139,B,hexagon,1,0,,,,,,,,,,,,,,,,repeat,number,numRpt,d,noRew,,,,,,0.694,0,1,0,1,0,1,,,,,,,,,,,,,,,,,
297538,2022-11-30_23h47.24.529,vts_reward_expectancy_bt,2022.2.4,MacIntel,62.5,Safari,1366,768,,,,,0,630,,,,,,,,,,,,,,,,,167,W,star,1,0,,,,,,,,,,,,,,,,switch,letter,lettSwt,k,noRew,,,,,,0.91,0,2,0,2,0,1,,,,,,,,,,,,,,,,,
297538,2022-11-30_23h47.24.529,vts_reward_expectancy_bt,2022.2.4,MacIntel,62.5,Safari,1366,768,,,,,0,630,,,,,,,,,,,,,,,,,125,Y,hexagon,1,0,,,,,,,,,,,,,,,,repeat,letter,lettRpt,k,noRew,,,,,,0.711,0,3,0,3,0,1,,,,,,,,,,,,,,,,,
297538,2022-11-30_23h47.24.529,vts_reward_expectancy_bt,2022.2.4,MacIntel,62.5,Safari,1366,768,,,,,0,630,,,,,,,,,,,,,,,,,160,S,triangle,1,0,,,,,,,,,,,,,,,,repeat,letter,lettRpt,k,noRew,,,,,,0.743,0,4,0,4,0,1,,,,,,,,,,,,,,,,,
297538,2022-11-30_23h47.24.529,vts_reward_expectancy_bt,2022.2.4,MacIntel,62.5,Safari,1366,768,,,,,0,630,,,,,,,,,,,,,,,,,139,B,hexagon,1,0,,,,,,,,,,,,,,,,switch,number,numSwt,d,noRew,,,,,,0.668,0,5,0,5,0,1,,,,,,,,,,,,,,,,,
297538,2022-11-30_23h47.24.529,vts_reward_expectancy_bt,2022.2.4,MacIntel,62.5,Safari,1366,768,,,,,0,630,,,,,,,,,,,,,,,,,167,W,circle,1,0,,,,,,,,,,,,,,,,repeat,number,numRpt,f,noRew,,,,,,0.884,0,6,0,6,0,1,,,,,,,,,,,,,,,,,
297538,2022-11-30_23h47.24.529,vts_reward_expectancy_bt,2022.2.4,MacIntel,62.5,Safari,1366,768,,,,,0,630,,,,,,,,,,,,,,,,,125,Y,hexagon,1,0,,,,,,,,,,,,,,,,repeat,number,numRpt,d,noRew,,,,,,0.661,0,7,0,7,0,1,,,,,,,,,,,,,,,,,
297538,2022-11-30_23h47.24.529,vts_reward_expectancy_bt,2022.2.4,MacIntel,62.5,Safari,1366,768,,,,,0,630,,,,,,,,,,,,,,,,,174,B,circle,1,0,,,,,,,,,,,,,,,,repeat,number,numRpt,f,noRew,,,,,,0.71,0,8,0,8,0,1,,,,,,,,,,,,,,,,,
297538,2022-11-30_23h47.24.529,vts_reward_expectancy_bt,2022.2.4,MacIntel,62.5,Safari,1366,768,,,,,0,630,,,,,,,,,,,,,,,,,139,H,triangle,1,0,,,,,,,,,,,,,,,,switch,letter,lettSwt,j,noRew,,,,,,0.598,0,9,0,9,0,1,,,,,,,,,,,,,,,,,
297538,2022-11-30_23h47.24.529,vts_reward_expectancy_bt,2022.2.4,MacIntel,62.5,Safari,1366,768,,,,,0,630,,,,,,,,,,,,,,,,,146,W,triangle,1,0,,,,,,,,,,,,,,,,repeat,letter,lettRpt,k,noRew,,,,,,0.599,0,10,0,10,0,1,,,,,,,,,,,,,,,,,
297538,2022-11-30_23h47.24.529,vts_reward_expectancy_bt,2022.2.4,MacIntel,62.5,Safari,1366,768,,,,,0,630,,,,,,,,,,,,,,,,,160,F,star,1,0,,,,,,,,,,,,,,,,repeat,letter,lettRpt,j,noRew,,,,,,1.145,0,11,0,11,0,1,,,,,,,,,,,,,,,,,
297538,2022-11-30_23h47.24.529,vts_reward_expectancy_bt,2022.2.4,MacIntel,62.5,Safari,1366,768,,,,,0,630,,,,,,,,,,,,,,,,,139,W,circle,1,0,,,,,,,,,,,,,,,,repeat,letter,lettRpt,k,noRew,,,,,,0.596,0,12,0,12,0,1,,,,,,,,,,,,,,,,,
297538,2022-11-30_23h47.24.529,vts_reward_expectancy_bt,2022.2.4,MacIntel,62.5,Safari,1366,768,,,,,0,630,,,,,,,,,,,,,,,,,167,F,star,1,0,,,,,,,,,,,,,,,,switch,number,numSwt,f,noRew,,,,,,1.061,0,13,0,13,0,1,,,,,,,,,,,,,,,,,
297538,2022-11-30_23h47.24.529,vts_reward_expectancy_bt,2022.2.4,MacIntel,62.5,Safari,1366,768,,,,,0,630,,,,,,,,,,,,,,,,,125,H,circle,1,0,,,,,,,,,,,,,,,,switch,letter,lettSwt,j,noRew,,,,,,0.793,0,14,0,14,0,1,,,,,,,,,,,,,,,,,
297538,2022-11-30_23h47.24.529,vts_reward_expectancy_bt,2022.2.4,MacIntel,62.5,Safari,1366,768,,,,,0,630,,,,,,,,,,,,,,,,,174,S,star,1,0,,,,,,,,,,,,,,,,switch,number,numSwt,f,noRew,,,,,,0.867,0,15,0,15,0,1,,,,,,,,,,,,,,,,,
297538,2022-11-30_23h47.24.529,vts_reward_expectancy_bt,2022.2.4,MacIntel,62.5,Safari,1366,768,,,,,0,630,,,,,,,,,,,,,,,,,160,U,star,1,0,,,,,,,,,,,,,,,,repeat,number,numRpt,f,noRew,,,,,,0.901,0,16,0,16,0,1,,,,,,,,,,,,,,,,,
297538,2022-11-30_23h47.24.529,vts_reward_expectancy_bt,2022.2.4,MacIntel,62.5,Safari,1366,768,,,,,0,630,,,,,,,,,,,,,,,,,125,B,circle,1,0,,,,,,,,,,,,,,,,switch,letter,lettSwt,j,noRew,,,,,,0.632,0,17,0,17,0,1,,,,,,,,,,,,,,,,,
297538,2022-11-30_23h47.24.529,vts_reward_expectancy_bt,2022.2.4,MacIntel,62.5,Safari,1366,768,,,,,0,630,,,,,,,,,,,,,,,,,174,W,star,1,0,,,,,,,,,,,,,,,,repeat,letter,lettRpt,k,noRew,,,,,,0.596,0,18,0,18,0,1,,,,,,,,,,,,,,,,,
297538,2022-11-30_23h47.24.529,vts_reward_expectancy_bt,2022.2.4,MacIntel,62.5,Safari,1366,768,,,,,0,630,,,,,,,,,,,,,,,,,139,D,circle,1,0,,,,,,,,,,,,,,,,repeat,letter,lettRpt,j,noRew,,,,,,0.831,0,19,0,19,0,1,,,,,,,,,,,,,,,,,
297538,2022-11-30_23h47.24.529,vts_reward_expectancy_bt,2022.2.4,MacIntel,62.5,Safari,1366,768,,,,,0,630,,,,,,,,,,,,,,,,,125,D,circle,1,0,,,,,,,,,,,,,,,,switch,number,numSwt,d,noRew,,,,,,0.814,0,20,0,20,0,1,,,,,,,,,,,,,,,,,
297538,2022-11-30_23h47.24.529,vts_reward_expectancy_bt,2022.2.4,MacIntel,62.5,Safari,1366,768,,,,,0,630,,,,,,,,,,,,,,,,,132,S,hexagon,1,0,,,,,,,,,,,,,,,,repeat,number,numRpt,d,noRew,,,,,,0.664,0,21,0,21,0,1,,,,,,,,,,,,,,,,,
297538,2022-11-30_23h47.24.529,vts_reward_expectancy_bt,2022.2.4,MacIntel,62.5,Safari,1366,768,,,,,0,630,,,,,,,,,,,,,,,,,167,F,triangle,1,0,,,,,,,,,,,,,,,,repeat,number,numRpt,f,noRew,,,,,,0.678,0,22,0,22,0,1,,,,,,,,,,,,,,,,,
297538,2022-11-30_23h47.24.529,vts_reward_expectancy_bt,2022.2.4,MacIntel,62.5,Safari,1366,768,,,,,0,630,,,,,,,,,,,,,,,,,139,B,circle,1,0,,,,,,,,,,,,,,,,repeat,number,numRpt,d,noRew,,,,,,0.795,0,23,0,23,0,1,,,,,,,,,,,,,,,,,
297538,2022-11-30_23h47.24.529,vts_reward_expectancy_bt,2022.2.4,MacIntel,62.5,Safari,1366,768,,,,,0,630,,,,,,,,,,,,,,,,,167,D,hexagon,1,0,,,,,,,,,,,,,,,,repeat,number,numRpt,f,noRew,,,,,,0.733,0,24,0,24,0,1,,,,,,,,,,,,,,,,,
297538,2022-11-30_23h47.24.529,vts_reward_expectancy_bt,2022.2.4,MacIntel,62.5,Safari,1366,768,,,,,0,630,,,,,,,,,,,,,,,,,146,F,triangle,1,0,,,,,,,,,,,,,,,,switch,letter,lettSwt,j,noRew,,,,,,0.667,0,25,0,25,0,1,,,,,,,,,,,,,,,,,
297538,2022-11-30_23h47.24.529,vts_reward_expectancy_bt,2022.2.4,MacIntel,62.5,Safari,1366,768,,,,,0,630,,,,,,,,,,,,,,,,,160,Y,circle,1,0,,,,,,,,,,,,,,,,repeat,letter,lettRpt,k,noRew,,,,,,1.179,0,26,0,26,0,1,,,,,,,,,,,,,,,,,
297538,2022-11-30_23h47.24.529,vts_reward_expectancy_bt,2022.2.4,MacIntel,62.5,Safari,1366,768,,,,,0,630,,,,,,,,,,,,,,,,,125,B,hexagon,1,0,,,,,,,,,,,,,,,,switch,number,numSwt,d,noRew,,,,,,0.715,0,27,0,27,0,1,,,,,,,,,,,,,,,,,
297538,2022-11-30_23h47.24.529,vts_reward_expectancy_bt,2022.2.4,MacIntel,62.5,Safari,1366,768,,,,,0,630,,,,,,,,,,,,,,,,,132,H,star,1,0,,,,,,,,,,,,,,,,switch,letter,lettSwt,j,noRew,,,,,,0.827,0,28,0,28,0,1,,,,,,,,,,,,,,,,,
297538,2022-11-30_23h47.24.529,vts_reward_expectancy_bt,2022.2.4,MacIntel,62.5,Safari,1366,768,,,,,0,630,,,,,,,,,,,,,,,,,146,W,circle,1,0,,,,,,,,,,,,,,,,repeat,letter,lettRpt,k,noRew,,,,,,0.834,0,29,0,29,0,1,,,,,,,,,,,,,,,,,
297538,2022-11-30_23h47.24.529,vts_reward_expectancy_bt,2022.2.4,MacIntel,62.5,Safari,1366,768,,,,,0,630,,,,,,,,,,,,,,,,,167,D,circle,1,0,,,,,,,,,,,,,,,,switch,number,numSwt,f,noRew,,,,,,0.832,0,30,0,30,0,1,,,,,,,,,,,,,,,,,
297538,2022-11-30_23h47.24.529,vts_reward_expectancy_bt,2022.2.4,MacIntel,62.5,Safari,1366,768,,,,,0,630,,,,,,,,,,,,,,,,,125,B,hexagon,1,0,,,,,,,,,,,,,,,,repeat,number,numRpt,d,noRew,,,,,,0.632,0,31,0,31,0,1,,,,,,,,,,,,,,,,,
297538,2022-11-30_23h47.24.529,vts_reward_expectancy_bt,2022.2.4,MacIntel,62.5,Safari,1366,768,,,,,0,630,,,,,,,,,,,,,,,,,139,W,triangle,1,0,,,,,,,,,,,,,,,,repeat,number,numRpt,d,noRew,,,,,,1.112,0,32,0,32,0,1,,,,,,,,,,,,,,,,,
297538,2022-11-30_23h47.24.529,vts_reward_expectancy_bt,2022.2.4,MacIntel,62.5,Safari,1366,768,,,,,0,630,,,,,,,,,,,,,,,,,181,S,hexagon,1,0,,,,,,,,,,,,,,,,repeat,number,numRpt,f,noRew,,,,,,0.646,0,33,0,33,0,1,,,,,,,,,,,,,,,,,
297538,2022-11-30_23h47.24.529,vts_reward_expectancy_bt,2022.2.4,MacIntel,62.5,Safari,1366,768,,,,,0,630,,,,,,,,,,,,,,,,,146,B,circle,1,0,,,,,,,,,,,,,,,,switch,letter,lettSwt,j,noRew,,,,,,0.895,0,34,0,34,0,1,,,,,,,,,,,,,,,,,
297538,2022-11-30_23h47.24.529,vts_reward_expectancy_bt,2022.2.4,MacIntel,62.5,Safari,1366,768,,,,,0,630,,,,,,,,,,,,,,,,,125,U,hexagon,1,0,,,,,,,,,,,,,,,,repeat,letter,lettRpt,k,noRew,,,,,,0.747,0,35,0,35,0,1,,,,,,,,,,,,,,,,,
297538,2022-11-30_23h47.24.529,vts_reward_expectancy_bt,2022.2.4,MacIntel,62.5,Safari,1366,768,,,,,0,630,,,,,,,,,,,,,,,,,139,H,circle,1,0,,,,,,,,,,,,,,,,repeat,letter,lettRpt,j,noRew,,,,,,0.736,0,36,0,36,0,1,,,,,,,,,,,,,,,,,
297538,2022-11-30_23h47.24.529,vts_reward_expectancy_bt,2022.2.4,MacIntel,62.5,Safari,1366,768,,,,,0,630,,,,,,,,,,,,,,,,,125,D,hexagon,1,0,,,,,,,,,,,,,,,,repeat,letter,lettRpt,j,noRew,,,,,,0.684,0,37,0,37,0,1,,,,,,,,,,,,,,,,,
297538,2022-11-30_23h47.24.529,vts_reward_expectancy_bt,2022.2.4,MacIntel,62.5,Safari,1366,768,,,,,0,630,,,,,,,,,,,,,,,,,181,F,circle,1,0,,,,,,,,,,,,,,,,repeat,letter,lettRpt,j,noRew,,,,,,0.942,0,38,0,38,0,1,,,,,,,,,,,,,,,,,
297538,2022-11-30_23h47.24.529,vts_reward_expectancy_bt,2022.2.4,MacIntel,62.5,Safari,1366,768,,,,,0,630,,,,,,,,,,,,,,,,,160,S,hexagon,1,0,,,,,,,,,,,,,,,,switch,number,numSwt,f,noRew,,,,,,0.81,0,39,0,39,0,1,,,,,,,,,,,,,,,,,
297538,2022-11-30_23h47.24.529,vts_reward_expectancy_bt,2022.2.4,MacIntel,62.5,Safari,1366,768,,,,,0,630,,,,,,,,,,,,,,,,,160,Y,hexagon,1,0,,,,,,,,,,,,,,,,repeat,number,numRpt,f,noRew,,,,,,0.802,0,40,0,40,0,1,,,,,,,,,,,,,,,,,
297538,2022-11-30_23h47.24.529,vts_reward_expectancy_bt,2022.2.4,MacIntel,62.5,Safari,1366,768,,,,,0,630,,,,,,,,,,,,,,,,,132,U,star,1,0,,,,,,,,,,,,,,,,switch,letter,lettSwt,k,noRew,,,,,,0.695,0,41,0,41,0,1,,,,,,,,,,,,,,,,,
297538,2022-11-30_23h47.24.529,vts_reward_expectancy_bt,2022.2.4,MacIntel,62.5,Safari,1366,768,,,,,0,630,,,,,,,,,,,,,,,,,146,S,hexagon,1,0,,,,,,,,,,,,,,,,switch,number,numSwt,d,noRew,,,,,,0.78,0,42,0,42,0,1,,,,,,,,,,,,,,,,,
297538,2022-11-30_23h47.24.529,vts_reward_expectancy_bt,2022.2.4,MacIntel,62.5,Safari,1366,768,,,,,0,630,,,,,,,,,,,,,,,,,139,B,triangle,1,0,,,,,,,,,,,,,,,,repeat,number,numRpt,d,noRew,,,,,,0.702,0,43,0,43,0,1,,,,,,,,,,,,,,,,,
297538,2022-11-30_23h47.24.529,vts_reward_expectancy_bt,2022.2.4,MacIntel,62.5,Safari,1366,768,,,,,0,630,,,,,,,,,,,,,,,,,174,U,circle,1,0,,,,,,,,,,,,,,,,repeat,number,numRpt,f,noRew,,,,,,0.68,0,44,0,44,0,1,,,,,,,,,,,,,,,,,
297538,2022-11-30_23h47.24.529,vts_reward_expectancy_bt,2022.2.4,MacIntel,62.5,Safari,1366,768,,,,,0,630,,,,,,,,,,,,,,,,,160,F,star,0,0,,,,,,,,,,,,,,,,switch,letter,NA,k,noRew,,,,,,0.879,0,45,0,45,0,1,,,,,,,,,,,,,,,,,
297538,2022-11-30_23h47.24.529,vts_reward_expectancy_bt,2022.2.4,MacIntel,62.5,Safari,1366,768,,,,,0,630,,,,,,,,,,,,,,,,,167,D,hexagon,1,1,,,,,,,,,,,,,,,,repeat,letter,lettRpt,j,noRew,,,,,,0.935,0,46,0,46,0,1,,,,,,,,,,,,,,,,,
297538,2022-11-30_23h47.24.529,vts_reward_expectancy_bt,2022.2.4,MacIntel,62.5,Safari,1366,768,,,,,0,630,,,,,,,,,,,,,,,,,125,W,star,1,0,,,,,,,,,,,,,,,,repeat,letter,lettRpt,k,noRew,,,,,,0.852,0,47,0,47,0,1,,,,,,,,,,,,,,,,,
297538,2022-11-30_23h47.24.529,vts_reward_expectancy_bt,2022.2.4,MacIntel,62.5,Safari,1366,768,,,,,0,630,,,,,,,,,,,,,,,,,132,B,star,1,0,,,,,,,,,,,,,,,,repeat,letter,lettRpt,j,noRew,,,,,,0.626,0,48,0,48,0,1,,,,,,,,,,,,,,,,,
297538,2022-11-30_23h47.24.529,vts_reward_expectancy_bt,2022.2.4,MacIntel,62.5,Safari,1366,768,,,,,0,630,,,,,,,,,,,,,,,,,181,S,hexagon,1,0,,,,,,,,,,,,,,,,switch,number,numSwt,f,noRew,,,,,,0.784,0,49,0,49,0,1,,,,,,,,,,,,,,,,,
297538,2022-11-30_23h47.24.529,vts_reward_expectancy_bt,2022.2.4,MacIntel,62.5,Safari,1366,768,,,,,0,630,,,,,,,,,,,,,,,,,146,D,star,1,0,,,,,,,,,,,,,,,,repeat,number,numRpt,d,noRew,,,,,,0.829,0,50,0,50,0,1,,,,,,,,,,,,,,,,,
297538,2022-11-30_23h47.24.529,vts_reward_expectancy_bt,2022.2.4,MacIntel,62.5,Safari,1366,768,,,,,0,630,,,,,,,,,,,,,,,,,174,W,hexagon,1,0,,,,,,,,,,,,,,,,repeat,number,numRpt,f,noRew,,,,,,0.729,0,51,0,51,0,1,,,,,,,,,,,,,,,,,
297538,2022-11-30_23h47.24.529,vts_reward_expectancy_bt,2022.2.4,MacIntel,62.5,Safari,1366,768,,,,,0,630,,,,,,,,,,,,,,,,,146,H,circle,1,0,,,,,,,,,,,,,,,,repeat,number,numRpt,d,noRew,,,,,,1.115,0,52,0,52,0,1,,,,,,,,,,,,,,,,,
297538,2022-11-30_23h47.24.529,vts_reward_expectancy_bt,2022.2.4,MacIntel,62.5,Safari,1366,768,,,,,0,630,,,,,,,,,,,,,,,,,160,Y,star,1,0,,,,,,,,,,,,,,,,switch,letter,lettSwt,k,noRew,,,,,,0.659,0,53,0,53,0,1,,,,,,,,,,,,,,,,,
297538,2022-11-30_23h47.24.529,vts_reward_expectancy_bt,2022.2.4,MacIntel,62.5,Safari,1366,768,,,,,0,630,,,,,,,,,,,,,,,,,167,U,hexagon,1,0,,,,,,,,,,,,,,,,repeat,letter,lettRpt,k,noRew,,,,,,0.874,0,54,0,54,0,1,,,,,,,,,,,,,,,,,
297538,2022-11-30_23h47.24.529,vts_reward_expectancy_bt,2022.2.4,MacIntel,62.5,Safari,1366,768,,,,,0,630,,,,,,,,,,,,,,,,,174,F,triangle,1,0,,,,,,,,,,,,,,,,repeat,letter,lettRpt,j,noRew,,,,,,1.129,0,55,0,55,0,1,,,,,,,,,,,,,,,,,
297538,2022-11-30_23h47.24.529,vts_reward_expectancy_bt,2022.2.4,MacIntel,62.5,Safari,1366,768,,,,,0,630,,,,,,,,,,,,,,,,,160,D,triangle,1,0,,,,,,,,,,,,,,,,repeat,letter,lettRpt,j,noRew,,,,,,0.847,0,56,0,56,0,1,,,,,,,,,,,,,,,,,
297538,2022-11-30_23h47.24.529,vts_reward_expectancy_bt,2022.2.4,MacIntel,62.5,Safari,1366,768,,,,,0,630,,,,,,,,,,,,,,,,,139,Y,hexagon,1,0,,,,,,,,,,,,,,,,switch,number,numSwt,d,noRew,,,,,,0.793,0,57,0,57,0,1,,,,,,,,,,,,,,,,,
297538,2022-11-30_23h47.24.529,vts_reward_expectancy_bt,2022.2.4,MacIntel,62.5,Safari,1366,768,,,,,0,630,,,,,,,,,,,,,,,,,125,B,hexagon,1,0,,,,,,,,,,,,,,,,repeat,number,numRpt,d,noRew,,,,,,0.646,0,58,0,58,0,1,,,,,,,,,,,,,,,,,
297538,2022-11-30_23h47.24.529,vts_reward_expectancy_bt,2022.2.4,MacIntel,62.5,Safari,1366,768,,,,,0,630,,,,,,,,,,,,,,,,,132,S,triangle,1,0,,,,,,,,,,,,,,,,switch,letter,lettSwt,k,noRew,,,,,,0.864,0,59,0,59,0,1,,,,,,,,,,,,,,,,,
297538,2022-11-30_23h47.24.529,vts_reward_expectancy_bt,2022.2.4,MacIntel,62.5,Safari,1366,768,,,,,0,630,,,,,,,,,,,,,,,,,125,W,triangle,1,0,,,,,,,,,,,,,,,,switch,number,numSwt,d,noRew,,,,,,0.845,0,60,0,60,0,1,,,,,,,,,,,,,,,,,
297538,2022-11-30_23h47.24.529,vts_reward_expectancy_bt,2022.2.4,MacIntel,62.5,Safari,1366,768,,,,,0,630,,,,,,,,,,,,,,,,,146,D,hexagon,1,0,,,,,,,,,,,,,,,,repeat,number,numRpt,d,noRew,,,,,,1.446,0,61,0,61,0,1,,,,,,,,,,,,,,,,,
297538,2022-11-30_23h47.24.529,vts_reward_expectancy_bt,2022.2.4,MacIntel,62.5,Safari,1366,768,,,,,0,630,,,,,,,,,,,,,,,,,167,S,star,1,0,,,,,,,,,,,,,,,,switch,letter,lettSwt,k,noRew,,,,,,0.902,0,62,0,62,0,1,,,,,,,,,,,,,,,,,
297538,2022-11-30_23h47.24.529,vts_reward_expectancy_bt,2022.2.4,MacIntel,62.5,Safari,1366,768,,,,,0,630,,,,,,,,,,,,,,,,,132,F,triangle,1,0,,,,,,,,,,,,,,,,repeat,letter,lettRpt,j,noRew,,,,,,0.877,0,63,0,63,0,1,,,,,,,,,,,,,,,,,
297538,2022-11-30_23h47.24.529,vts_reward_expectancy_bt,2022.2.4,MacIntel,62.5,Safari,1366,768,,,,,,,,,,,,,,,,,,,,,,,,,,,,,,,,,,,,,,,,,,,,,,,,,,,,,,,,,,,,,,,,,,,,,,,,,,,,
297538,2022-11-30_23h47.24.529,vts_reward_expectancy_bt,2022.2.4,MacIntel,62.5,Safari,1366,768,,,,,0,630,,,,,,,,,,,,,,,,,146,Y,star,1,0,,,,,,,,,,,,,,,,repeat,letter,lettRpt,k,Hi,,,,,,1.853,0,,,,,,space,11.5,low,0,0,0,0,1,,,,,,,,,
297538,2022-11-30_23h47.24.529,vts_reward_expectancy_bt,2022.2.4,MacIntel,62.5,Safari,1366,768,,,,,10,640,,,,,,,,,,,,,,,,,181,W,triangle,1,0,,,,,,,,,,,,,,,,repeat,letter,lettRpt,k,Lo,,,,,,0.694,0,,,,,,,,low,1,0,1,0,1,,,,,,,,,
297538,2022-11-30_23h47.24.529,vts_reward_expectancy_bt,2022.2.4,MacIntel,62.5,Safari,1366,768,,,,,1,641,,,,,,,,,,,,,,,,,139,F,circle,1,0,,,,,,,,,,,,,,,,switch,number,numSwt,d,Lo,,,,,,0.779,0,,,,,,,,low,2,0,2,0,1,,,,,,,,,
297538,2022-11-30_23h47.24.529,vts_reward_expectancy_bt,2022.2.4,MacIntel,62.5,Safari,1366,768,,,,,10,651,,,,,,,,,,,,,,,,,132,S,hexagon,1,0,,,,,,,,,,,,,,,,switch,letter,lettSwt,k,Hi,,,,,,0.651,0,,,,,,,,low,3,0,3,0,1,,,,,,,,,
297538,2022-11-30_23h47.24.529,vts_reward_expectancy_bt,2022.2.4,MacIntel,62.5,Safari,1366,768,,,,,0,651,,,,,,,,,,,,,,,,,125,H,star,0,0,,,,,,,,,,,,,,,,repeat,letter,NA,k,Hi,,,,,,1.464,0,,,,,,,,low,4,0,4,0,1,,,,,,,,,
297538,2022-11-30_23h47.24.529,vts_reward_expectancy_bt,2022.2.4,MacIntel,62.5,Safari,1366,768,,,,,10,661,,,,,,,,,,,,,,,,,160,D,triangle,1,1,,,,,,,,,,,,,,,,repeat,letter,lettRpt,j,Lo,,,,,,0.895,0,,,,,,,,low,5,0,5,0,1,,,,,,,,,
297538,2022-11-30_23h47.24.529,vts_reward_expectancy_bt,2022.2.4,MacIntel,62.5,Safari,1366,768,,,,,1,662,,,,,,,,,,,,,,,,,167,B,circle,1,0,,,,,,,,,,,,,,,,switch,number,numSwt,f,Lo,,,,,,0.802,0,,,,,,,,low,6,0,6,0,1,,,,,,,,,
297538,2022-11-30_23h47.24.529,vts_reward_expectancy_bt,2022.2.4,MacIntel,62.5,Safari,1366,768,,,,,0,662,,,,,,,,,,,,,,,,,174,U,hexagon,1,0,,,,,,,,,,,,,,,,switch,letter,lettSwt,k,Hi,,,,,,0.897,0,,,,,,,,low,7,0,7,0,1,,,,,,,,,
297538,2022-11-30_23h47.24.529,vts_reward_expectancy_bt,2022.2.4,MacIntel,62.5,Safari,1366,768,,,,,1,663,,,,,,,,,,,,,,,,,146,Y,hexagon,1,0,,,,,,,,,,,,,,,,repeat,letter,lettRpt,k,Hi,,,,,,0.598,0,,,,,,,,low,8,0,8,0,1,,,,,,,,,
297538,2022-11-30_23h47.24.529,vts_reward_expectancy_bt,2022.2.4,MacIntel,62.5,Safari,1366,768,,,,,1,664,,,,,,,,,,,,,,,,,181,W,triangle,1,0,,,,,,,,,,,,,,,,switch,number,numSwt,f,Lo,,,,,,0.683,0,,,,,,,,low,9,0,9,0,1,,,,,,,,,
297538,2022-11-30_23h47.24.529,vts_reward_expectancy_bt,2022.2.4,MacIntel,62.5,Safari,1366,768,,,,,1,665,,,,,,,,,,,,,,,,,139,F,circle,1,0,,,,,,,,,,,,,,,,repeat,number,numRpt,d,Lo,,,,,,0.847,0,,,,,,,,low,10,0,10,0,1,,,,,,,,,
297538,2022-11-30_23h47.24.529,vts_reward_expectancy_bt,2022.2.4,MacIntel,62.5,Safari,1366,768,,,,,0,665,,,,,,,,,,,,,,,,,132,S,star,0,0,,,,,,,,,,,,,,,,repeat,number,NA,f,Lo,,,,,,0.944,0,,,,,,,,low,11,0,11,0,1,,,,,,,,,
297538,2022-11-30_23h47.24.529,vts_reward_expectancy_bt,2022.2.4,MacIntel,62.5,Safari,1366,768,,,,,0,665,,,,,,,,,,,,,,,,,125,H,star,1,1,,,,,,,,,,,,,,,,repeat,number,numRpt,d,Hi,,,,,,1.312,0,,,,,,,,low,12,0,12,0,1,,,,,,,,,
297538,2022-11-30_23h47.24.529,vts_reward_expectancy_bt,2022.2.4,MacIntel,62.5,Safari,1366,768,,,,,0,665,,,,,,,,,,,,,,,,,160,D,hexagon,1,0,,,,,,,,,,,,,,,,switch,letter,lettSwt,j,Hi,,,,,,0.819,0,,,,,,,,low,13,0,13,0,1,,,,,,,,,
297538,2022-11-30_23h47.24.529,vts_reward_expectancy_bt,2022.2.4,MacIntel,62.5,Safari,1366,768,,,,,1,666,,,,,,,,,,,,,,,,,167,B,circle,1,0,,,,,,,,,,,,,,,,repeat,letter,lettRpt,j,Lo,,,,,,0.502,0,,,,,,,,low,14,0,14,0,1,,,,,,,,,
297538,2022-11-30_23h47.24.529,vts_reward_expectancy_bt,2022.2.4,MacIntel,62.5,Safari,1366,768,,,,,1,667,,,,,,,,,,,,,,,,,174,U,triangle,1,0,,,,,,,,,,,,,,,,switch,number,numSwt,f,Lo,,,,,,0.613,0,,,,,,,,low,15,0,15,0,1,,,,,,,,,
297538,2022-11-30_23h47.24.529,vts_reward_expectancy_bt,2022.2.4,MacIntel,62.5,Safari,1366,768,,,,,0,667,,,,,,,,,,,,,,,,,160,B,hexagon,1,0,,,,,,,,,,,,,,,,repeat,number,numRpt,f,Hi,,,,,,0.711,0,,,,,,,,low,16,0,16,0,1,,,,,,,,,
297538,2022-11-30_23h47.24.529,vts_reward_expectancy_bt,2022.2.4,MacIntel,62.5,Safari,1366,768,,,,,1,668,,,,,,,,,,,,,,,,,174,S,triangle,1,0,,,,,,,,,,,,,,,,repeat,number,numRpt,f,Lo,,,,,,0.485,0,,,,,,,,low,17,0,17,0,1,,,,,,,,,
297538,2022-11-30_23h47.24.529,vts_reward_expectancy_bt,2022.2.4,MacIntel,62.5,Safari,1366,768,,,,,0,668,,,,,,,,,,,,,,,,,146,D,star,0,0,,,,,,,,,,,,,,,,switch,letter,NA,k,Lo,,,,,,0.527,0,,,,,,,,low,18,0,18,0,1,,,,,,,,,
297538,2022-11-30_23h47.24.529,vts_reward_expectancy_bt,2022.2.4,MacIntel,62.5,Safari,1366,768,,,,,1,669,,,,,,,,,,,,,,,,,139,Y,circle,1,1,,,,,,,,,,,,,,,,repeat,letter,lettRpt,k,Lo,,,,,,0.616,0,,,,,,,,low,19,0,19,0,1,,,,,,,,,
297538,2022-11-30_23h47.24.529,vts_reward_expectancy_bt,2022.2.4,MacIntel,62.5,Safari,1366,768,,,,,1,670,,,,,,,,,,,,,,,,,167,H,triangle,1,0,,,,,,,,,,,,,,,,repeat,letter,lettRpt,j,Lo,,,,,,0.479,0,,,,,,,,low,20,0,20,0,1,,,,,,,,,
297538,2022-11-30_23h47.24.529,vts_reward_expectancy_bt,2022.2.4,MacIntel,62.5,Safari,1366,768,,,,,1,671,,,,,,,,,,,,,,,,,132,F,circle,1,0,,,,,,,,,,,,,,,,repeat,letter,lettRpt,j,Lo,,,,,,1.027,0,,,,,,,,low,21,0,21,0,1,,,,,,,,,
297538,2022-11-30_23h47.24.529,vts_reward_expectancy_bt,2022.2.4,MacIntel,62.5,Safari,1366,768,,,,,10,681,,,,,,,,,,,,,,,,,181,U,star,1,0,,,,,,,,,,,,,,,,switch,number,numSwt,f,Hi,,,,,,0.586,0,,,,,,,,low,22,0,22,0,1,,,,,,,,,
297538,2022-11-30_23h47.24.529,vts_reward_expectancy_bt,2022.2.4,MacIntel,62.5,Safari,1366,768,,,,,1,682,,,,,,,,,,,,,,,,,125,W,hexagon,1,0,,,,,,,,,,,,,,,,repeat,number,numRpt,d,Hi,,,,,,0.534,0,,,,,,,,low,23,0,23,0,1,,,,,,,,,
297538,2022-11-30_23h47.24.529,vts_reward_expectancy_bt,2022.2.4,MacIntel,62.5,Safari,1366,768,,,,,10,692,,,,,,,,,,,,,,,,,125,U,hexagon,1,0,,,,,,,,,,,,,,,,switch,letter,lettSwt,k,Hi,,,,,,0.667,0,,,,,,,,low,24,0,24,0,1,,,,,,,,,
297538,2022-11-30_23h47.24.529,vts_reward_expectancy_bt,2022.2.4,MacIntel,62.5,Safari,1366,768,,,,,10,702,,,,,,,,,,,,,,,,,174,S,circle,1,0,,,,,,,,,,,,,,,,repeat,letter,lettRpt,k,Lo,,,,,,0.81,0,,,,,,,,low,25,0,25,0,1,,,,,,,,,
297538,2022-11-30_23h47.24.529,vts_reward_expectancy_bt,2022.2.4,MacIntel,62.5,Safari,1366,768,,,,,1,703,,,,,,,,,,,,,,,,,139,B,triangle,1,0,,,,,,,,,,,,,,,,repeat,letter,lettRpt,j,Lo,,,,,,0.663,0,,,,,,,,low,26,0,26,0,1,,,,,,,,,
297538,2022-11-30_23h47.24.529,vts_reward_expectancy_bt,2022.2.4,MacIntel,62.5,Safari,1366,768,,,,,10,713,,,,,,,,,,,,,,,,,181,F,star,1,0,,,,,,,,,,,,,,,,switch,number,numSwt,f,Hi,,,,,,0.547,0,,,,,,,,low,27,0,27,0,1,,,,,,,,,
297538,2022-11-30_23h47.24.529,vts_reward_expectancy_bt,2022.2.4,MacIntel,62.5,Safari,1366,768,,,,,10,723,,,,,,,,,,,,,,,,,146,W,circle,1,0,,,,,,,,,,,,,,,,repeat,number,numRpt,d,Lo,,,,,,0.677,0,,,,,,,,low,28,0,28,0,1,,,,,,,,,
297538,2022-11-30_23h47.24.529,vts_reward_expectancy_bt,2022.2.4,MacIntel,62.5,Safari,1366,768,,,,,10,733,,,,,,,,,,,,,,,,,167,H,triangle,1,0,,,,,,,,,,,,,,,,repeat,number,numRpt,f,Lo,,,,,,0.667,0,,,,,,,,low,29,0,29,0,1,,,,,,,,,
297538,2022-11-30_23h47.24.529,vts_reward_expectancy_bt,2022.2.4,MacIntel,62.5,Safari,1366,768,,,,,1,734,,,,,,,,,,,,,,,,,132,Y,hexagon,1,0,,,,,,,,,,,,,,,,repeat,number,numRpt,d,Hi,,,,,,0.614,0,,,,,,,,low,30,0,30,0,1,,,,,,,,,
297538,2022-11-30_23h47.24.529,vts_reward_expectancy_bt,2022.2.4,MacIntel,62.5,Safari,1366,768,,,,,0,734,,,,,,,,,,,,,,,,,160,D,star,1,0,,,,,,,,,,,,,,,,switch,letter,lettSwt,j,Hi,,,,,,0.929,0,,,,,,,,low,31,0,31,0,1,,,,,,,,,
297538,2022-11-30_23h47.24.529,vts_reward_expectancy_bt,2022.2.4,MacIntel,62.5,Safari,1366,768,,,,,0,734,,,,,,,,,,,,,,,,,139,F,hexagon,1,0,,,,,,,,,,,,,,,,repeat,letter,lettRpt,j,Hi,,,,,,0.677,1,,,,,,space,7.987,low,0,0,0,0,1,,,,,,,,,
297538,2022-11-30_23h47.24.529,vts_reward_expectancy_bt,2022.2.4,MacIntel,62.5,Safari,1366,768,,,,,10,744,,,,,,,,,,,,,,,,,125,U,star,1,0,,,,,,,,,,,,,,,,repeat,letter,lettRpt,k,Hi,,,,,,0.542,1,,,,,,,,low,1,0,1,0,1,,,,,,,,,
297538,2022-11-30_23h47.24.529,vts_reward_expectancy_bt,2022.2.4,MacIntel,62.5,Safari,1366,768,,,,,10,754,,,,,,,,,,,,,,,,,160,H,triangle,1,0,,,,,,,,,,,,,,,,repeat,letter,lettRpt,j,Lo,,,,,,0.497,1,,,,,,,,low,2,0,2,0,1,,,,,,,,,
297538,2022-11-30_23h47.24.529,vts_reward_expectancy_bt,2022.2.4,MacIntel,62.5,Safari,1366,768,,,,,1,755,,,,,,,,,,,,,,,,,146,S,circle,1,0,,,,,,,,,,,,,,,,repeat,letter,lettRpt,k,Lo,,,,,,0.585,1,,,,,,,,low,3,0,3,0,1,,,,,,,,,
297538,2022-11-30_23h47.24.529,vts_reward_expectancy_bt,2022.2.4,MacIntel,62.5,Safari,1366,768,,,,,10,765,,,,,,,,,,,,,,,,,181,Y,hexagon,1,0,,,,,,,,,,,,,,,,repeat,letter,lettRpt,k,Hi,,,,,,0.579,1,,,,,,,,low,4,0,4,0,1,,,,,,,,,
297538,2022-11-30_23h47.24.529,vts_reward_expectancy_bt,2022.2.4,MacIntel,62.5,Safari,1366,768,,,,,1,766,,,,,,,,,,,,,,,,,167,B,star,1,0,,,,,,,,,,,,,,,,switch,number,numSwt,f,Hi,,,,,,0.551,1,,,,,,,,low,5,0,5,0,1,,,,,,,,,
297538,2022-11-30_23h47.24.529,vts_reward_expectancy_bt,2022.2.4,MacIntel,62.5,Safari,1366,768,,,,,10,776,,,,,,,,,,,,,,,,,132,W,triangle,1,0,,,,,,,,,,,,,,,,repeat,number,numRpt,d,Lo,,,,,,0.494,1,,,,,,,,low,6,0,6,0,1,,,,,,,,,
297538,2022-11-30_23h47.24.529,vts_reward_expectancy_bt,2022.2.4,MacIntel,62.5,Safari,1366,768,,,,,1,777,,,,,,,,,,,,,,,,,174,D,circle,1,0,,,,,,,,,,,,,,,,repeat,number,numRpt,f,Lo,,,,,,0.593,1,,,,,,,,low,7,0,7,0,1,,,,,,,,,
297538,2022-11-30_23h47.24.529,vts_reward_expectancy_bt,2022.2.4,MacIntel,62.5,Safari,1366,768,,,,,1,778,,,,,,,,,,,,,,,,,139,F,hexagon,1,0,,,,,,,,,,,,,,,,switch,letter,lettSwt,j,Hi,,,,,,0.67,1,,,,,,,,low,8,0,8,0,1,,,,,,,,,
297538,2022-11-30_23h47.24.529,vts_reward_expectancy_bt,2022.2.4,MacIntel,62.5,Safari,1366,768,,,,,10,788,,,,,,,,,,,,,,,,,125,U,star,1,0,,,,,,,,,,,,,,,,repeat,letter,lettRpt,k,Hi,,,,,,0.527,1,,,,,,,,low,9,0,9,0,1,,,,,,,,,
297538,2022-11-30_23h47.24.529,vts_reward_expectancy_bt,2022.2.4,MacIntel,62.5,Safari,1366,768,,,,,1,789,,,,,,,,,,,,,,,,,160,H,circle,1,0,,,,,,,,,,,,,,,,switch,number,numSwt,f,Lo,,,,,,0.562,1,,,,,,,,low,10,0,10,0,1,,,,,,,,,
297538,2022-11-30_23h47.24.529,vts_reward_expectancy_bt,2022.2.4,MacIntel,62.5,Safari,1366,768,,,,,1,790,,,,,,,,,,,,,,,,,146,S,triangle,1,0,,,,,,,,,,,,,,,,repeat,number,numRpt,d,Lo,,,,,,0.585,1,,,,,,,,low,11,0,11,0,1,,,,,,,,,
297538,2022-11-30_23h47.24.529,vts_reward_expectancy_bt,2022.2.4,MacIntel,62.5,Safari,1366,768,,,,,10,800,,,,,,,,,,,,,,,,,181,Y,circle,1,0,,,,,,,,,,,,,,,,switch,letter,lettSwt,k,Lo,,,,,,0.592,1,,,,,,,,low,12,0,12,0,1,,,,,,,,,
297538,2022-11-30_23h47.24.529,vts_reward_expectancy_bt,2022.2.4,MacIntel,62.5,Safari,1366,768,,,,,10,810,,,,,,,,,,,,,,,,,167,B,triangle,1,0,,,,,,,,,,,,,,,,repeat,letter,lettRpt,j,Lo,,,,,,0.499,1,,,,,,,,low,13,0,13,0,1,,,,,,,,,
297538,2022-11-30_23h47.24.529,vts_reward_expectancy_bt,2022.2.4,MacIntel,62.5,Safari,1366,768,,,,,10,820,,,,,,,,,,,,,,,,,132,W,hexagon,1,0,,,,,,,,,,,,,,,,repeat,letter,lettRpt,k,Hi,,,,,,0.595,1,,,,,,,,low,14,0,14,0,1,,,,,,,,,
297538,2022-11-30_23h47.24.529,vts_reward_expectancy_bt,2022.2.4,MacIntel,62.5,Safari,1366,768,,,,,10,830,,,,,,,,,,,,,,,,,174,D,star,1,0,,,,,,,,,,,,,,,,repeat,letter,lettRpt,j,Hi,,,,,,0.512,1,,,,,,,,low,15,0,15,0,1,,,,,,,,,
297538,2022-11-30_23h47.24.529,vts_reward_expectancy_bt,2022.2.4,MacIntel,62.5,Safari,1366,768,,,,,1,831,,,,,,,,,,,,,,,,,181,H,circle,1,0,,,,,,,,,,,,,,,,repeat,letter,lettRpt,j,Lo,,,,,,0.661,1,,,,,,,,low,16,0,16,0,1,,,,,,,,,
297538,2022-11-30_23h47.24.529,vts_reward_expectancy_bt,2022.2.4,MacIntel,62.5,Safari,1366,768,,,,,0,831,,,,,,,,,,,,,,,,,160,F,hexagon,1,0,,,,,,,,,,,,,,,,repeat,letter,lettRpt,j,Hi,,,,,,0.743,1,,,,,,,,low,17,0,17,0,1,,,,,,,,,
297538,2022-11-30_23h47.24.529,vts_reward_expectancy_bt,2022.2.4,MacIntel,62.5,Safari,1366,768,,,,,1,832,,,,,,,,,,,,,,,,,146,W,triangle,1,0,,,,,,,,,,,,,,,,switch,number,numSwt,d,Lo,,,,,,0.733,1,,,,,,,,low,18,0,18,0,1,,,,,,,,,
297538,2022-11-30_23h47.24.529,vts_reward_expectancy_bt,2022.2.4,MacIntel,62.5,Safari,1366,768,,,,,10,842,,,,,,,,,,,,,,,,,167,B,star,1,0,,,,,,,,,,,,,,,,repeat,number,numRpt,f,Hi,,,,,,0.543,1,,,,,,,,low,19,0,19,0,1,,,,,,,,,
297538,2022-11-30_23h47.24.529,vts_reward_expectancy_bt,2022.2.4,MacIntel,62.5,Safari,1366,768,,,,,10,852,,,,,,,,,,,,,,,,,125,Y,circle,1,0,,,,,,,,,,,,,,,,repeat,number,numRpt,d,Lo,,,,,,0.595,1,,,,,,,,low,20,0,20,0,1,,,,,,,,,
297538,2022-11-30_23h47.24.529,vts_reward_expectancy_bt,2022.2.4,MacIntel,62.5,Safari,1366,768,,,,,10,862,,,,,,,,,,,,,,,,,174,D,triangle,1,0,,,,,,,,,,,,,,,,repeat,number,numRpt,f,Lo,,,,,,0.513,1,,,,,,,,low,21,0,21,0,1,,,,,,,,,
297538,2022-11-30_23h47.24.529,vts_reward_expectancy_bt,2022.2.4,MacIntel,62.5,Safari,1366,768,,,,,10,872,,,,,,,,,,,,,,,,,139,U,hexagon,1,0,,,,,,,,,,,,,,,,repeat,number,numRpt,d,Hi,,,,,,0.566,1,,,,,,,,low,22,0,22,0,1,,,,,,,,,
297538,2022-11-30_23h47.24.529,vts_reward_expectancy_bt,2022.2.4,MacIntel,62.5,Safari,1366,768,,,,,10,882,,,,,,,,,,,,,,,,,132,S,star,1,0,,,,,,,,,,,,,,,,repeat,number,numRpt,d,Hi,,,,,,0.513,1,,,,,,,,low,23,0,23,0,1,,,,,,,,,
297538,2022-11-30_23h47.24.529,vts_reward_expectancy_bt,2022.2.4,MacIntel,62.5,Safari,1366,768,,,,,10,892,,,,,,,,,,,,,,,,,132,D,triangle,1,0,,,,,,,,,,,,,,,,repeat,number,numRpt,d,Lo,,,,,,0.564,1,,,,,,,,low,24,0,24,0,1,,,,,,,,,
297538,2022-11-30_23h47.24.529,vts_reward_expectancy_bt,2022.2.4,MacIntel,62.5,Safari,1366,768,,,,,1,893,,,,,,,,,,,,,,,,,160,H,circle,1,0,,,,,,,,,,,,,,,,repeat,number,numRpt,f,Lo,,,,,,0.511,1,,,,,,,,low,25,0,25,0,1,,,,,,,,,
297538,2022-11-30_23h47.24.529,vts_reward_expectancy_bt,2022.2.4,MacIntel,62.5,Safari,1366,768,,,,,0,893,,,,,,,,,,,,,,,,,181,S,star,1,0,,,,,,,,,,,,,,,,switch,letter,lettSwt,k,Hi,,,,,,0.777,1,,,,,,,,low,26,0,26,0,1,,,,,,,,,
297538,2022-11-30_23h47.24.529,vts_reward_expectancy_bt,2022.2.4,MacIntel,62.5,Safari,1366,768,,,,,1,894,,,,,,,,,,,,,,,,,139,Y,hexagon,1,0,,,,,,,,,,,,,,,,repeat,letter,lettRpt,k,Hi,,,,,,0.582,1,,,,,,,,low,27,0,27,0,1,,,,,,,,,
297538,2022-11-30_23h47.24.529,vts_reward_expectancy_bt,2022.2.4,MacIntel,62.5,Safari,1366,768,,,,,10,904,,,,,,,,,,,,,,,,,125,U,triangle,1,0,,,,,,,,,,,,,,,,repeat,letter,lettRpt,k,Lo,,,,,,0.602,1,,,,,,,,low,28,0,28,0,1,,,,,,,,,
297538,2022-11-30_23h47.24.529,vts_reward_expectancy_bt,2022.2.4,MacIntel,62.5,Safari,1366,768,,,,,10,914,,,,,,,,,,,,,,,,,167,W,circle,1,0,,,,,,,,,,,,,,,,repeat,letter,lettRpt,k,Lo,,,,,,0.492,1,,,,,,,,low,29,0,29,0,1,,,,,,,,,
297538,2022-11-30_23h47.24.529,vts_reward_expectancy_bt,2022.2.4,MacIntel,62.5,Safari,1366,768,,,,,10,924,,,,,,,,,,,,,,,,,146,F,star,1,0,,,,,,,,,,,,,,,,repeat,letter,lettRpt,j,Hi,,,,,,0.615,1,,,,,,,,low,30,0,30,0,1,,,,,,,,,
297538,2022-11-30_23h47.24.529,vts_reward_expectancy_bt,2022.2.4,MacIntel,62.5,Safari,1366,768,,,,,10,934,,,,,,,,,,,,,,,,,174,B,hexagon,1,0,,,,,,,,,,,,,,,,repeat,letter,lettRpt,j,Hi,,,,,,0.549,1,,,,,,,,low,31,0,31,0,1,,,,,,,,,
297538,2022-11-30_23h47.24.529,vts_reward_expectancy_bt,2022.2.4,MacIntel,62.5,Safari,1366,768,,,,,0,934,,,,,,,,,,,,,,,,,160,F,circle,0,0,,,,,,,,,,,,,,,,repeat,letter,NA,k,Hi,,,,,,0.562,2,,,,,,space,3.291,low,0,0,0,0,1,,,,,,,,,
297538,2022-11-30_23h47.24.529,vts_reward_expectancy_bt,2022.2.4,MacIntel,62.5,Safari,1366,768,,,,,1,935,,,,,,,,,,,,,,,,,146,W,triangle,1,1,,,,,,,,,,,,,,,,repeat,letter,lettRpt,k,Lo,,,,,,0.527,2,,,,,,,,low,1,0,1,0,1,,,,,,,,,
297538,2022-11-30_23h47.24.529,vts_reward_expectancy_bt,2022.2.4,MacIntel,62.5,Safari,1366,768,,,,,0,935,,,,,,,,,,,,,,,,,132,U,star,1,0,,,,,,,,,,,,,,,,repeat,letter,lettRpt,k,Hi,,,,,,0.618,2,,,,,,,,low,2,0,2,0,1,,,,,,,,,
297538,2022-11-30_23h47.24.529,vts_reward_expectancy_bt,2022.2.4,MacIntel,62.5,Safari,1366,768,,,,,0,935,,,,,,,,,,,,,,,,,181,D,hexagon,0,0,,,,,,,,,,,,,,,,repeat,letter,NA,k,Hi,,,,,,0.564,2,,,,,,,,low,3,0,3,0,1,,,,,,,,,
297538,2022-11-30_23h47.24.529,vts_reward_expectancy_bt,2022.2.4,MacIntel,62.5,Safari,1366,768,,,,,1,936,,,,,,,,,,,,,,,,,174,H,circle,1,1,,,,,,,,,,,,,,,,switch,number,numSwt,f,Lo,,,,,,0.527,2,,,,,,,,low,4,0,4,0,1,,,,,,,,,
297538,2022-11-30_23h47.24.529,vts_reward_expectancy_bt,2022.2.4,MacIntel,62.5,Safari,1366,768,,,,,10,946,,,,,,,,,,,,,,,,,167,B,triangle,1,0,,,,,,,,,,,,,,,,repeat,number,numRpt,f,Lo,,,,,,0.485,2,,,,,,,,low,5,0,5,0,1,,,,,,,,,
297538,2022-11-30_23h47.24.529,vts_reward_expectancy_bt,2022.2.4,MacIntel,62.5,Safari,1366,768,,,,,0,946,,,,,,,,,,,,,,,,,125,Y,star,1,0,,,,,,,,,,,,,,,,repeat,number,numRpt,d,Hi,,,,,,0.567,2,,,,,,,,low,6,0,6,0,1,,,,,,,,,
297538,2022-11-30_23h47.24.529,vts_reward_expectancy_bt,2022.2.4,MacIntel,62.5,Safari,1366,768,,,,,1,947,,,,,,,,,,,,,,,,,139,S,hexagon,1,0,,,,,,,,,,,,,,,,repeat,number,numRpt,d,Hi,,,,,,0.448,2,,,,,,,,low,7,0,7,0,1,,,,,,,,,
297538,2022-11-30_23h47.24.529,vts_reward_expectancy_bt,2022.2.4,MacIntel,62.5,Safari,1366,768,,,,,1,948,,,,,,,,,,,,,,,,,160,F,hexagon,1,0,,,,,,,,,,,,,,,,repeat,number,numRpt,f,Hi,,,,,,0.476,2,,,,,,,,low,8,0,8,0,1,,,,,,,,,
297538,2022-11-30_23h47.24.529,vts_reward_expectancy_bt,2022.2.4,MacIntel,62.5,Safari,1366,768,,,,,1,949,,,,,,,,,,,,,,,,,146,W,star,1,0,,,,,,,,,,,,,,,,switch,letter,lettSwt,k,Hi,,,,,,0.528,2,,,,,,,,low,9,0,9,0,1,,,,,,,,,
297538,2022-11-30_23h47.24.529,vts_reward_expectancy_bt,2022.2.4,MacIntel,62.5,Safari,1366,768,,,,,1,950,,,,,,,,,,,,,,,,,132,U,triangle,1,0,,,,,,,,,,,,,,,,repeat,letter,lettRpt,k,Lo,,,,,,0.592,2,,,,,,,,low,10,0,10,0,1,,,,,,,,,
297538,2022-11-30_23h47.24.529,vts_reward_expectancy_bt,2022.2.4,MacIntel,62.5,Safari,1366,768,,,,,1,951,,,,,,,,,,,,,,,,,181,D,circle,1,0,,,,,,,,,,,,,,,,repeat,letter,lettRpt,j,Lo,,,,,,0.45,2,,,,,,,,low,11,0,11,0,1,,,,,,,,,
297538,2022-11-30_23h47.24.529,vts_reward_expectancy_bt,2022.2.4,MacIntel,62.5,Safari,1366,768,,,,,1,952,,,,,,,,,,,,,,,,,174,H,star,1,0,,,,,,,,,,,,,,,,switch,number,numSwt,f,Hi,,,,,,0.462,2,,,,,,,,low,12,0,12,0,1,,,,,,,,,
297538,2022-11-30_23h47.24.529,vts_reward_expectancy_bt,2022.2.4,MacIntel,62.5,Safari,1366,768,,,,,0,952,,,,,,,,,,,,,,,,,167,B,hexagon,1,0,,,,,,,,,,,,,,,,repeat,number,numRpt,f,Hi,,,,,,0.693,2,,,,,,,,low,13,0,13,0,1,,,,,,,,,
297538,2022-11-30_23h47.24.529,vts_reward_expectancy_bt,2022.2.4,MacIntel,62.5,Safari,1366,768,,,,,1,953,,,,,,,,,,,,,,,,,125,Y,circle,1,0,,,,,,,,,,,,,,,,repeat,number,numRpt,d,Lo,,,,,,0.698,2,,,,,,,,low,14,0,14,0,1,,,,,,,,,
297538,2022-11-30_23h47.24.529,vts_reward_expectancy_bt,2022.2.4,MacIntel,62.5,Safari,1366,768,,,,,1,954,,,,,,,,,,,,,,,,,139,S,triangle,1,0,,,,,,,,,,,,,,,,repeat,number,numRpt,d,Lo,,,,,,0.593,2,,,,,,,,low,15,0,15,0,1,,,,,,,,,
297538,2022-11-30_23h47.24.529,vts_reward_expectancy_bt,2022.2.4,MacIntel,62.5,Safari,1366,768,,,,,0,954,,,,,,,,,,,,,,,,,174,W,hexagon,1,0,,,,,,,,,,,,,,,,repeat,number,numRpt,f,Hi,,,,,,0.595,2,,,,,,,,low,16,0,16,0,1,,,,,,,,,
297538,2022-11-30_23h47.24.529,vts_reward_expectancy_bt,2022.2.4,MacIntel,62.5,Safari,1366,768,,,,,0,954,,,,,,,,,,,,,,,,,139,F,triangle,0,0,,,,,,,,,,,,,,,,repeat,number,NA,f,Hi,,,,,,0.586,2,,,,,,,,low,17,0,17,0,1,,,,,,,,,
297538,2022-11-30_23h47.24.529,vts_reward_expectancy_bt,2022.2.4,MacIntel,62.5,Safari,1366,768,,,,,10,964,,,,,,,,,,,,,,,,,132,D,circle,1,1,,,,,,,,,,,,,,,,repeat,number,numRpt,d,Lo,,,,,,0.828,2,,,,,,,,low,18,0,18,0,1,,,,,,,,,
297538,2022-11-30_23h47.24.529,vts_reward_expectancy_bt,2022.2.4,MacIntel,62.5,Safari,1366,768,,,,,0,964,,,,,,,,,,,,,,,,,146,Y,star,1,0,,,,,,,,,,,,,,,,repeat,number,numRpt,d,Hi,,,,,,0.811,2,,,,,,,,low,19,0,19,0,1,,,,,,,,,
297538,2022-11-30_23h47.24.529,vts_reward_expectancy_bt,2022.2.4,MacIntel,62.5,Safari,1366,768,,,,,1,965,,,,,,,,,,,,,,,,,167,H,circle,1,0,,,,,,,,,,,,,,,,repeat,number,numRpt,f,Lo,,,,,,0.795,2,,,,,,,,low,20,0,20,0,1,,,,,,,,,
297538,2022-11-30_23h47.24.529,vts_reward_expectancy_bt,2022.2.4,MacIntel,62.5,Safari,1366,768,,,,,10,975,,,,,,,,,,,,,,,,,181,U,triangle,1,0,,,,,,,,,,,,,,,,repeat,number,numRpt,f,Lo,,,,,,0.608,2,,,,,,,,low,21,0,21,0,1,,,,,,,,,
297538,2022-11-30_23h47.24.529,vts_reward_expectancy_bt,2022.2.4,MacIntel,62.5,Safari,1366,768,,,,,0,975,,,,,,,,,,,,,,,,,160,S,hexagon,1,0,,,,,,,,,,,,,,,,repeat,number,numRpt,f,Hi,,,,,,0.595,2,,,,,,,,low,22,0,22,0,1,,,,,,,,,
297538,2022-11-30_23h47.24.529,vts_reward_expectancy_bt,2022.2.4,MacIntel,62.5,Safari,1366,768,,,,,0,975,,,,,,,,,,,,,,,,,125,B,star,1,0,,,,,,,,,,,,,,,,switch,letter,lettSwt,j,Hi,,,,,,0.682,2,,,,,,,,low,23,0,23,0,1,,,,,,,,,
297538,2022-11-30_23h47.24.529,vts_reward_expectancy_bt,2022.2.4,MacIntel,62.5,Safari,1366,768,,,,,10,985,,,,,,,,,,,,,,,,,146,U,circle,1,0,,,,,,,,,,,,,,,,repeat,letter,lettRpt,k,Lo,,,,,,0.585,2,,,,,,,,low,24,0,24,0,1,,,,,,,,,
297538,2022-11-30_23h47.24.529,vts_reward_expectancy_bt,2022.2.4,MacIntel,62.5,Safari,1366,768,,,,,10,995,,,,,,,,,,,,,,,,,125,B,triangle,1,0,,,,,,,,,,,,,,,,repeat,letter,lettRpt,j,Lo,,,,,,0.546,2,,,,,,,,low,25,0,25,0,1,,,,,,,,,
297538,2022-11-30_23h47.24.529,vts_reward_expectancy_bt,2022.2.4,MacIntel,62.5,Safari,1366,768,,,,,0,995,,,,,,,,,,,,,,,,,132,D,star,1,0,,,,,,,,,,,,,,,,repeat,letter,lettRpt,j,Hi,,,,,,0.579,2,,,,,,,,low,26,0,26,0,1,,,,,,,,,
297538,2022-11-30_23h47.24.529,vts_reward_expectancy_bt,2022.2.4,MacIntel,62.5,Safari,1366,768,,,,,0,995,,,,,,,,,,,,,,,,,160,S,hexagon,1,0,,,,,,,,,,,,,,,,repeat,letter,lettRpt,k,Hi,,,,,,0.576,2,,,,,,,,low,27,0,27,0,1,,,,,,,,,
297538,2022-11-30_23h47.24.529,vts_reward_expectancy_bt,2022.2.4,MacIntel,62.5,Safari,1366,768,,,,,1,996,,,,,,,,,,,,,,,,,167,H,circle,1,0,,,,,,,,,,,,,,,,repeat,letter,lettRpt,j,Lo,,,,,,0.529,2,,,,,,,,low,28,0,28,0,1,,,,,,,,,
297538,2022-11-30_23h47.24.529,vts_reward_expectancy_bt,2022.2.4,MacIntel,62.5,Safari,1366,768,,,,,1,997,,,,,,,,,,,,,,,,,174,Y,star,1,0,,,,,,,,,,,,,,,,repeat,letter,lettRpt,k,Hi,,,,,,0.495,2,,,,,,,,low,29,0,29,0,1,,,,,,,,,
297538,2022-11-30_23h47.24.529,vts_reward_expectancy_bt,2022.2.4,MacIntel,62.5,Safari,1366,768,,,,,0,997,,,,,,,,,,,,,,,,,139,F,hexagon,1,0,,,,,,,,,,,,,,,,repeat,letter,lettRpt,j,Hi,,,,,,0.582,2,,,,,,,,low,30,0,30,0,1,,,,,,,,,
297538,2022-11-30_23h47.24.529,vts_reward_expectancy_bt,2022.2.4,MacIntel,62.5,Safari,1366,768,,,,,1,998,,,,,,,,,,,,,,,,,181,W,triangle,1,0,,,,,,,,,,,,,,,,switch,number,numSwt,f,Lo,,,,,,0.56,2,,,,,,,,low,31,0,31,0,1,,,,,,,,,
297538,2022-11-30_23h47.24.529,vts_reward_expectancy_bt,2022.2.4,MacIntel,62.5,Safari,1366,768,,,,,1,999,,,,,,,,,,,,,,,,,160,D,triangle,1,0,,,,,,,,,,,,,,,,switch,letter,lettSwt,j,Lo,,,,,,0.576,3,,,,,,space,1.389,low,0,0,0,0,1,,,,,,,,,
297538,2022-11-30_23h47.24.529,vts_reward_expectancy_bt,2022.2.4,MacIntel,62.5,Safari,1366,768,,,,,1,1000,,,,,,,,,,,,,,,,,139,U,circle,1,0,,,,,,,,,,,,,,,,repeat,letter,lettRpt,k,Lo,,,,,,0.578,3,,,,,,,,low,1,0,1,0,1,,,,,,,,,
297538,2022-11-30_23h47.24.529,vts_reward_expectancy_bt,2022.2.4,MacIntel,62.5,Safari,1366,768,,,,,10,1010,,,,,,,,,,,,,,,,,167,S,hexagon,1,0,,,,,,,,,,,,,,,,switch,number,numSwt,f,Hi,,,,,,0.466,3,,,,,,,,low,2,0,2,0,1,,,,,,,,,
297538,2022-11-30_23h47.24.529,vts_reward_expectancy_bt,2022.2.4,MacIntel,62.5,Safari,1366,768,,,,,1,1011,,,,,,,,,,,,,,,,,146,W,star,1,0,,,,,,,,,,,,,,,,repeat,number,numRpt,d,Hi,,,,,,0.482,3,,,,,,,,low,3,0,3,0,1,,,,,,,,,
297538,2022-11-30_23h47.24.529,vts_reward_expectancy_bt,2022.2.4,MacIntel,62.5,Safari,1366,768,,,,,1,1012,,,,,,,,,,,,,,,,,132,H,triangle,1,0,,,,,,,,,,,,,,,,repeat,number,numRpt,d,Lo,,,,,,0.48,3,,,,,,,,low,4,0,4,0,1,,,,,,,,,
297538,2022-11-30_23h47.24.529,vts_reward_expectancy_bt,2022.2.4,MacIntel,62.5,Safari,1366,768,,,,,10,1022,,,,,,,,,,,,,,,,,125,B,circle,1,0,,,,,,,,,,,,,,,,repeat,number,numRpt,d,Lo,,,,,,0.495,3,,,,,,,,low,5,0,5,0,1,,,,,,,,,
297538,2022-11-30_23h47.24.529,vts_reward_expectancy_bt,2022.2.4,MacIntel,62.5,Safari,1366,768,,,,,10,1032,,,,,,,,,,,,,,,,,174,F,hexagon,1,0,,,,,,,,,,,,,,,,repeat,number,numRpt,f,Hi,,,,,,0.477,3,,,,,,,,low,6,0,6,0,1,,,,,,,,,
297538,2022-11-30_23h47.24.529,vts_reward_expectancy_bt,2022.2.4,MacIntel,62.5,Safari,1366,768,,,,,10,1042,,,,,,,,,,,,,,,,,181,Y,star,1,0,,,,,,,,,,,,,,,,repeat,number,numRpt,f,Hi,,,,,,0.427,3,,,,,,,,low,7,0,7,0,1,,,,,,,,,
297538,2022-11-30_23h47.24.529,vts_reward_expectancy_bt,2022.2.4,MacIntel,62.5,Safari,1366,768,,,,,10,1052,,,,,,,,,,,,,,,,,160,D,star,1,0,,,,,,,,,,,,,,,,repeat,number,numRpt,f,Hi,,,,,,0.458,3,,,,,,,,low,8,0,8,0,1,,,,,,,,,
297538,2022-11-30_23h47.24.529,vts_reward_expectancy_bt,2022.2.4,MacIntel,62.5,Safari,1366,768,,,,,10,1062,,,,,,,,,,,,,,,,,139,U,triangle,1,0,,,,,,,,,,,,,,,,repeat,number,numRpt,d,Lo,,,,,,0.51,3,,,,,,,,low,9,0,9,0,1,,,,,,,,,
297538,2022-11-30_23h47.24.529,vts_reward_expectancy_bt,2022.2.4,MacIntel,62.5,Safari,1366,768,,,,,10,1072,,,,,,,,,,,,,,,,,167,S,circle,1,0,,,,,,,,,,,,,,,,repeat,number,numRpt,f,Lo,,,,,,0.404,3,,,,,,,,low,10,0,10,0,1,,,,,,,,,
297538,2022-11-30_23h47.24.529,vts_reward_expectancy_bt,2022.2.4,MacIntel,62.5,Safari,1366,768,,,,,0,1072,,,,,,,,,,,,,,,,,146,W,hexagon,1,0,,,,,,,,,,,,,,,,repeat,number,numRpt,d,Hi,,,,,,0.62,3,,,,,,,,low,11,0,11,0,1,,,,,,,,,
297538,2022-11-30_23h47.24.529,vts_reward_expectancy_bt,2022.2.4,MacIntel,62.5,Safari,1366,768,,,,,1,1073,,,,,,,,,,,,,,,,,132,H,triangle,1,0,,,,,,,,,,,,,,,,switch,letter,lettSwt,j,Lo,,,,,,0.565,3,,,,,,,,low,12,0,12,0,1,,,,,,,,,
297538,2022-11-30_23h47.24.529,vts_reward_expectancy_bt,2022.2.4,MacIntel,62.5,Safari,1366,768,,,,,1,1074,,,,,,,,,,,,,,,,,125,B,circle,1,0,,,,,,,,,,,,,,,,repeat,letter,lettRpt,j,Lo,,,,,,0.517,3,,,,,,,,low,13,0,13,0,1,,,,,,,,,
297538,2022-11-30_23h47.24.529,vts_reward_expectancy_bt,2022.2.4,MacIntel,62.5,Safari,1366,768,,,,,0,1074,,,,,,,,,,,,,,,,,174,F,star,1,0,,,,,,,,,,,,,,,,repeat,letter,lettRpt,j,Hi,,,,,,0.593,3,,,,,,,,low,14,0,14,0,1,,,,,,,,,
297538,2022-11-30_23h47.24.529,vts_reward_expectancy_bt,2022.2.4,MacIntel,62.5,Safari,1366,768,,,,,0,1074,,,,,,,,,,,,,,,,,181,Y,hexagon,1,0,,,,,,,,,,,,,,,,repeat,letter,lettRpt,k,Hi,,,,,,0.542,3,,,,,,,,low,15,0,15,0,1,,,,,,,,,
297538,2022-11-30_23h47.24.529,vts_reward_expectancy_bt,2022.2.4,MacIntel,62.5,Safari,1366,768,,,,,10,1084,,,,,,,,,,,,,,,,,146,D,circle,1,0,,,,,,,,,,,,,,,,repeat,letter,lettRpt,j,Lo,,,,,,0.512,3,,,,,,,,low,16,0,16,0,1,,,,,,,,,
297538,2022-11-30_23h47.24.529,vts_reward_expectancy_bt,2022.2.4,MacIntel,62.5,Safari,1366,768,,,,,0,1084,,,,,,,,,,,,,,,,,174,Y,hexagon,1,0,,,,,,,,,,,,,,,,repeat,letter,lettRpt,k,Hi,,,,,,0.578,3,,,,,,,,low,17,0,17,0,1,,,,,,,,,
297538,2022-11-30_23h47.24.529,vts_reward_expectancy_bt,2022.2.4,MacIntel,62.5,Safari,1366,768,,,,,0,1084,,,,,,,,,,,,,,,,,139,H,triangle,0,0,,,,,,,,,,,,,,,,repeat,letter,NA,k,Hi,,,,,,0.426,3,,,,,,,,low,18,0,18,0,1,,,,,,,,,
297538,2022-11-30_23h47.24.529,vts_reward_expectancy_bt,2022.2.4,MacIntel,62.5,Safari,1366,768,,,,,0,1084,,,,,,,,,,,,,,,,,167,B,star,1,1,,,,,,,,,,,,,,,,repeat,letter,lettRpt,j,Hi,,,,,,0.552,3,,,,,,,,low,19,0,19,0,1,,,,,,,,,
297538,2022-11-30_23h47.24.529,vts_reward_expectancy_bt,2022.2.4,MacIntel,62.5,Safari,1366,768,,,,,10,1094,,,,,,,,,,,,,,,,,160,W,circle,1,0,,,,,,,,,,,,,,,,repeat,letter,lettRpt,k,Lo,,,,,,0.484,3,,,,,,,,low,20,0,20,0,1,,,,,,,,,
297538,2022-11-30_23h47.24.529,vts_reward_expectancy_bt,2022.2.4,MacIntel,62.5,Safari,1366,768,,,,,0,1094,,,,,,,,,,,,,,,,,125,F,triangle,0,0,,,,,,,,,,,,,,,,repeat,letter,NA,k,Lo,,,,,,0.66,3,,,,,,,,low,21,0,21,0,1,,,,,,,,,
297538,2022-11-30_23h47.24.529,vts_reward_expectancy_bt,2022.2.4,MacIntel,62.5,Safari,1366,768,,,,,10,1104,,,,,,,,,,,,,,,,,181,S,star,1,1,,,,,,,,,,,,,,,,repeat,letter,lettRpt,k,Hi,,,,,,0.528,3,,,,,,,,low,22,0,22,0,1,,,,,,,,,
297538,2022-11-30_23h47.24.529,vts_reward_expectancy_bt,2022.2.4,MacIntel,62.5,Safari,1366,768,,,,,0,1104,,,,,,,,,,,,,,,,,132,U,hexagon,0,0,,,,,,,,,,,,,,,,switch,number,NA,f,Hi,,,,,,0.643,3,,,,,,,,low,23,0,23,0,1,,,,,,,,,
297538,2022-11-30_23h47.24.529,vts_reward_expectancy_bt,2022.2.4,MacIntel,62.5,Safari,1366,768,,,,,1,1105,,,,,,,,,,,,,,,,,181,Y,hexagon,1,1,,,,,,,,,,,,,,,,repeat,number,numRpt,f,Hi,,,,,,0.48,3,,,,,,,,low,24,0,24,0,1,,,,,,,,,
297538,2022-11-30_23h47.24.529,vts_reward_expectancy_bt,2022.2.4,MacIntel,62.5,Safari,1366,768,,,,,0,1105,,,,,,,,,,,,,,,,,139,W,star,1,0,,,,,,,,,,,,,,,,repeat,number,numRpt,d,Hi,,,,,,0.696,3,,,,,,,,low,25,0,25,0,1,,,,,,,,,
297538,2022-11-30_23h47.24.529,vts_reward_expectancy_bt,2022.2.4,MacIntel,62.5,Safari,1366,768,,,,,1,1106,,,,,,,,,,,,,,,,,174,D,circle,1,0,,,,,,,,,,,,,,,,repeat,number,numRpt,f,Lo,,,,,,0.586,3,,,,,,,,low,26,0,26,0,1,,,,,,,,,
297538,2022-11-30_23h47.24.529,vts_reward_expectancy_bt,2022.2.4,MacIntel,62.5,Safari,1366,768,,,,,10,1116,,,,,,,,,,,,,,,,,160,F,triangle,1,0,,,,,,,,,,,,,,,,repeat,number,numRpt,f,Lo,,,,,,0.513,3,,,,,,,,low,27,0,27,0,1,,,,,,,,,
297538,2022-11-30_23h47.24.529,vts_reward_expectancy_bt,2022.2.4,MacIntel,62.5,Safari,1366,768,,,,,0,1116,,,,,,,,,,,,,,,,,125,U,star,1,0,,,,,,,,,,,,,,,,repeat,number,numRpt,d,Hi,,,,,,0.61,3,,,,,,,,low,28,0,28,0,1,,,,,,,,,
297538,2022-11-30_23h47.24.529,vts_reward_expectancy_bt,2022.2.4,MacIntel,62.5,Safari,1366,768,,,,,10,1126,,,,,,,,,,,,,,,,,132,S,hexagon,1,0,,,,,,,,,,,,,,,,repeat,number,numRpt,d,Hi,,,,,,0.567,3,,,,,,,,low,29,0,29,0,1,,,,,,,,,
297538,2022-11-30_23h47.24.529,vts_reward_expectancy_bt,2022.2.4,MacIntel,62.5,Safari,1366,768,,,,,1,1127,,,,,,,,,,,,,,,,,146,B,circle,1,0,,,,,,,,,,,,,,,,repeat,number,numRpt,d,Lo,,,,,,0.596,3,,,,,,,,low,30,0,30,0,1,,,,,,,,,
297538,2022-11-30_23h47.24.529,vts_reward_expectancy_bt,2022.2.4,MacIntel,62.5,Safari,1366,768,,,,,1,1128,,,,,,,,,,,,,,,,,167,H,triangle,1,0,,,,,,,,,,,,,,,,switch,letter,lettSwt,j,Lo,,,,,,0.626,3,,,,,,,,low,31,0,31,0,1,,,,,,,,,
297538,2022-11-30_23h47.24.529,vts_reward_expectancy_bt,2022.2.4,MacIntel,62.5,Safari,1366,768,,,,,1,1129,,,,,,,,,,,,,,,,,167,H,triangle,1,0,,,,,,,,,,,,,,,,repeat,letter,lettRpt,j,Lo,,,,,,0.985,4,,,,,,space,7.131,low,0,0,0,0,1,,,,,,,,,
297538,2022-11-30_23h47.24.529,vts_reward_expectancy_bt,2022.2.4,MacIntel,62.5,Safari,1366,768,,,,,1,1130,,,,,,,,,,,,,,,,,146,D,hexagon,1,0,,,,,,,,,,,,,,,,repeat,letter,lettRpt,j,Hi,,,,,,0.524,4,,,,,,,,low,1,0,1,0,1,,,,,,,,,
297538,2022-11-30_23h47.24.529,vts_reward_expectancy_bt,2022.2.4,MacIntel,62.5,Safari,1366,768,,,,,1,1131,,,,,,,,,,,,,,,,,181,F,circle,1,0,,,,,,,,,,,,,,,,repeat,letter,lettRpt,j,Lo,,,,,,0.726,4,,,,,,,,low,2,0,2,0,1,,,,,,,,,
297538,2022-11-30_23h47.24.529,vts_reward_expectancy_bt,2022.2.4,MacIntel,62.5,Safari,1366,768,,,,,0,1131,,,,,,,,,,,,,,,,,139,U,star,0,0,,,,,,,,,,,,,,,,repeat,letter,NA,j,Lo,,,,,,0.61,4,,,,,,,,low,3,0,3,0,1,,,,,,,,,
297538,2022-11-30_23h47.24.529,vts_reward_expectancy_bt,2022.2.4,MacIntel,62.5,Safari,1366,768,,,,,1,1132,,,,,,,,,,,,,,,,,160,W,triangle,1,1,,,,,,,,,,,,,,,,repeat,letter,lettRpt,k,Lo,,,,,,0.613,4,,,,,,,,low,4,0,4,0,1,,,,,,,,,
297538,2022-11-30_23h47.24.529,vts_reward_expectancy_bt,2022.2.4,MacIntel,62.5,Safari,1366,768,,,,,0,1132,,,,,,,,,,,,,,,,,125,B,hexagon,1,0,,,,,,,,,,,,,,,,switch,number,numSwt,d,Hi,,,,,,0.587,4,,,,,,,,low,5,0,5,0,1,,,,,,,,,
297538,2022-11-30_23h47.24.529,vts_reward_expectancy_bt,2022.2.4,MacIntel,62.5,Safari,1366,768,,,,,10,1142,,,,,,,,,,,,,,,,,132,S,circle,1,0,,,,,,,,,,,,,,,,repeat,number,numRpt,d,Lo,,,,,,0.463,4,,,,,,,,low,6,0,6,0,1,,,,,,,,,
297538,2022-11-30_23h47.24.529,vts_reward_expectancy_bt,2022.2.4,MacIntel,62.5,Safari,1366,768,,,,,10,1152,,,,,,,,,,,,,,,,,174,Y,star,1,0,,,,,,,,,,,,,,,,repeat,number,numRpt,f,Hi,,,,,,0.394,4,,,,,,,,low,7,0,7,0,1,,,,,,,,,
297538,2022-11-30_23h47.24.529,vts_reward_expectancy_bt,2022.2.4,MacIntel,62.5,Safari,1366,768,,,,,10,1162,,,,,,,,,,,,,,,,,167,H,circle,1,0,,,,,,,,,,,,,,,,repeat,number,numRpt,f,Lo,,,,,,0.485,4,,,,,,,,low,8,0,8,0,1,,,,,,,,,
297538,2022-11-30_23h47.24.529,vts_reward_expectancy_bt,2022.2.4,MacIntel,62.5,Safari,1366,768,,,,,0,1162,,,,,,,,,,,,,,,,,146,D,star,1,0,,,,,,,,,,,,,,,,repeat,number,numRpt,d,Hi,,,,,,0.56,4,,,,,,,,low,9,0,9,0,1,,,,,,,,,
297538,2022-11-30_23h47.24.529,vts_reward_expectancy_bt,2022.2.4,MacIntel,62.5,Safari,1366,768,,,,,1,1163,,,,,,,,,,,,,,,,,181,F,triangle,1,0,,,,,,,,,,,,,,,,repeat,number,numRpt,f,Lo,,,,,,0.484,4,,,,,,,,low,10,0,10,0,1,,,,,,,,,
297538,2022-11-30_23h47.24.529,vts_reward_expectancy_bt,2022.2.4,MacIntel,62.5,Safari,1366,768,,,,,1,1164,,,,,,,,,,,,,,,,,139,U,hexagon,1,0,,,,,,,,,,,,,,,,repeat,number,numRpt,d,Hi,,,,,,0.377,4,,,,,,,,low,11,0,11,0,1,,,,,,,,,
297538,2022-11-30_23h47.24.529,vts_reward_expectancy_bt,2022.2.4,MacIntel,62.5,Safari,1366,768,,,,,10,1174,,,,,,,,,,,,,,,,,160,W,triangle,1,0,,,,,,,,,,,,,,,,switch,letter,lettSwt,k,Lo,,,,,,0.612,4,,,,,,,,low,12,0,12,0,1,,,,,,,,,
297538,2022-11-30_23h47.24.529,vts_reward_expectancy_bt,2022.2.4,MacIntel,62.5,Safari,1366,768,,,,,1,1175,,,,,,,,,,,,,,,,,125,B,circle,1,0,,,,,,,,,,,,,,,,repeat,letter,lettRpt,j,Lo,,,,,,0.484,4,,,,,,,,low,13,0,13,0,1,,,,,,,,,
297538,2022-11-30_23h47.24.529,vts_reward_expectancy_bt,2022.2.4,MacIntel,62.5,Safari,1366,768,,,,,0,1175,,,,,,,,,,,,,,,,,132,S,star,1,0,,,,,,,,,,,,,,,,repeat,letter,lettRpt,k,Hi,,,,,,0.542,4,,,,,,,,low,14,0,14,0,1,,,,,,,,,
297538,2022-11-30_23h47.24.529,vts_reward_expectancy_bt,2022.2.4,MacIntel,62.5,Safari,1366,768,,,,,0,1175,,,,,,,,,,,,,,,,,174,Y,hexagon,1,0,,,,,,,,,,,,,,,,switch,number,numSwt,f,Hi,,,,,,0.593,4,,,,,,,,low,15,0,15,0,1,,,,,,,,,
297538,2022-11-30_23h47.24.529,vts_reward_expectancy_bt,2022.2.4,MacIntel,62.5,Safari,1366,768,,,,,1,1176,,,,,,,,,,,,,,,,,139,F,triangle,1,0,,,,,,,,,,,,,,,,repeat,number,numRpt,d,Lo,,,,,,0.629,4,,,,,,,,low,16,0,16,0,1,,,,,,,,,
297538,2022-11-30_23h47.24.529,vts_reward_expectancy_bt,2022.2.4,MacIntel,62.5,Safari,1366,768,,,,,10,1186,,,,,,,,,,,,,,,,,174,H,circle,1,0,,,,,,,,,,,,,,,,repeat,number,numRpt,f,Lo,,,,,,0.67,4,,,,,,,,low,17,0,17,0,1,,,,,,,,,
297538,2022-11-30_23h47.24.529,vts_reward_expectancy_bt,2022.2.4,MacIntel,62.5,Safari,1366,768,,,,,10,1196,,,,,,,,,,,,,,,,,181,B,star,1,0,,,,,,,,,,,,,,,,switch,letter,lettSwt,j,Hi,,,,,,0.463,4,,,,,,,,low,18,0,18,0,1,,,,,,,,,
297538,2022-11-30_23h47.24.529,vts_reward_expectancy_bt,2022.2.4,MacIntel,62.5,Safari,1366,768,,,,,0,1196,,,,,,,,,,,,,,,,,146,S,hexagon,1,0,,,,,,,,,,,,,,,,repeat,letter,lettRpt,k,Hi,,,,,,0.592,4,,,,,,,,low,19,0,19,0,1,,,,,,,,,
297538,2022-11-30_23h47.24.529,vts_reward_expectancy_bt,2022.2.4,MacIntel,62.5,Safari,1366,768,,,,,10,1206,,,,,,,,,,,,,,,,,132,W,hexagon,1,0,,,,,,,,,,,,,,,,repeat,letter,lettRpt,k,Hi,,,,,,0.495,4,,,,,,,,low,20,0,20,0,1,,,,,,,,,
297538,2022-11-30_23h47.24.529,vts_reward_expectancy_bt,2022.2.4,MacIntel,62.5,Safari,1366,768,,,,,10,1216,,,,,,,,,,,,,,,,,125,D,triangle,1,0,,,,,,,,,,,,,,,,repeat,letter,lettRpt,j,Lo,,,,,,0.544,4,,,,,,,,low,21,0,21,0,1,,,,,,,,,
297538,2022-11-30_23h47.24.529,vts_reward_expectancy_bt,2022.2.4,MacIntel,62.5,Safari,1366,768,,,,,0,1216,,,,,,,,,,,,,,,,,160,U,star,1,0,,,,,,,,,,,,,,,,repeat,letter,lettRpt,k,Hi,,,,,,0.543,4,,,,,,,,low,22,0,22,0,1,,,,,,,,,
297538,2022-11-30_23h47.24.529,vts_reward_expectancy_bt,2022.2.4,MacIntel,62.5,Safari,1366,768,,,,,10,1226,,,,,,,,,,,,,,,,,167,Y,circle,1,0,,,,,,,,,,,,,,,,repeat,letter,lettRpt,k,Lo,,,,,,0.496,4,,,,,,,,low,23,0,23,0,1,,,,,,,,,
297538,2022-11-30_23h47.24.529,vts_reward_expectancy_bt,2022.2.4,MacIntel,62.5,Safari,1366,768,,,,,1,1227,,,,,,,,,,,,,,,,,160,U,hexagon,1,0,,,,,,,,,,,,,,,,switch,number,numSwt,f,Hi,,,,,,0.443,4,,,,,,,,low,24,0,24,0,1,,,,,,,,,
297538,2022-11-30_23h47.24.529,vts_reward_expectancy_bt,2022.2.4,MacIntel,62.5,Safari,1366,768,,,,,0,1227,,,,,,,,,,,,,,,,,146,S,circle,0,0,,,,,,,,,,,,,,,,repeat,number,NA,f,Hi,,,,,,0.492,4,,,,,,,,low,25,0,25,0,1,,,,,,,,,
297538,2022-11-30_23h47.24.529,vts_reward_expectancy_bt,2022.2.4,MacIntel,62.5,Safari,1366,768,,,,,10,1237,,,,,,,,,,,,,,,,,181,Y,star,1,1,,,,,,,,,,,,,,,,repeat,number,numRpt,f,Hi,,,,,,0.436,4,,,,,,,,low,26,0,26,0,1,,,,,,,,,
297538,2022-11-30_23h47.24.529,vts_reward_expectancy_bt,2022.2.4,MacIntel,62.5,Safari,1366,768,,,,,1,1238,,,,,,,,,,,,,,,,,167,W,triangle,1,0,,,,,,,,,,,,,,,,repeat,number,numRpt,f,Lo,,,,,,0.596,4,,,,,,,,low,27,0,27,0,1,,,,,,,,,
297538,2022-11-30_23h47.24.529,vts_reward_expectancy_bt,2022.2.4,MacIntel,62.5,Safari,1366,768,,,,,1,1239,,,,,,,,,,,,,,,,,132,B,circle,1,0,,,,,,,,,,,,,,,,repeat,number,numRpt,d,Lo,,,,,,0.563,4,,,,,,,,low,28,0,28,0,1,,,,,,,,,
297538,2022-11-30_23h47.24.529,vts_reward_expectancy_bt,2022.2.4,MacIntel,62.5,Safari,1366,768,,,,,1,1240,,,,,,,,,,,,,,,,,174,D,star,1,0,,,,,,,,,,,,,,,,switch,letter,lettSwt,j,Hi,,,,,,0.545,4,,,,,,,,low,29,0,29,0,1,,,,,,,,,
297538,2022-11-30_23h47.24.529,vts_reward_expectancy_bt,2022.2.4,MacIntel,62.5,Safari,1366,768,,,,,0,1240,,,,,,,,,,,,,,,,,139,F,triangle,0,0,,,,,,,,,,,,,,,,repeat,letter,NA,k,Hi,,,,,,0.527,4,,,,,,,,low,30,0,30,0,1,,,,,,,,,
297538,2022-11-30_23h47.24.529,vts_reward_expectancy_bt,2022.2.4,MacIntel,62.5,Safari,1366,768,,,,,0,1240,,,,,,,,,,,,,,,,,125,H,hexagon,1,1,,,,,,,,,,,,,,,,repeat,letter,lettRpt,j,Hi,,,,,,0.583,4,,,,,,,,low,31,0,31,0,1,,,,,,,,,
297538,2022-11-30_23h47.24.529,vts_reward_expectancy_bt,2022.2.4,MacIntel,62.5,Safari,1366,768,,,,,0,1240,,,,,,,,,,,,,,,,,132,U,star,0,0,,,,,,,,,,,,,,,,repeat,letter,NA,j,Hi,,,,,,0.631,5,,,,,,space,0.975,low,0,0,0,0,1,,,,,,,,,
297538,2022-11-30_23h47.24.529,vts_reward_expectancy_bt,2022.2.4,MacIntel,62.5,Safari,1366,768,,,,,10,1250,,,,,,,,,,,,,,,,,181,H,triangle,1,1,,,,,,,,,,,,,,,,repeat,letter,lettRpt,j,Lo,,,,,,0.478,5,,,,,,,,low,1,0,1,0,1,,,,,,,,,
297538,2022-11-30_23h47.24.529,vts_reward_expectancy_bt,2022.2.4,MacIntel,62.5,Safari,1366,768,,,,,10,1260,,,,,,,,,,,,,,,,,146,W,hexagon,1,0,,,,,,,,,,,,,,,,repeat,letter,lettRpt,k,Hi,,,,,,0.533,5,,,,,,,,low,2,0,2,0,1,,,,,,,,,
297538,2022-11-30_23h47.24.529,vts_reward_expectancy_bt,2022.2.4,MacIntel,62.5,Safari,1366,768,,,,,10,1270,,,,,,,,,,,,,,,,,160,D,circle,1,0,,,,,,,,,,,,,,,,repeat,letter,lettRpt,j,Lo,,,,,,0.66,5,,,,,,,,low,3,0,3,0,1,,,,,,,,,
297538,2022-11-30_23h47.24.529,vts_reward_expectancy_bt,2022.2.4,MacIntel,62.5,Safari,1366,768,,,,,0,1270,,,,,,,,,,,,,,,,,167,S,star,1,0,,,,,,,,,,,,,,,,repeat,letter,lettRpt,k,Hi,,,,,,0.576,5,,,,,,,,low,4,0,4,0,1,,,,,,,,,
297538,2022-11-30_23h47.24.529,vts_reward_expectancy_bt,2022.2.4,MacIntel,62.5,Safari,1366,768,,,,,1,1271,,,,,,,,,,,,,,,,,125,F,triangle,1,0,,,,,,,,,,,,,,,,switch,number,numSwt,d,Lo,,,,,,0.51,5,,,,,,,,low,5,0,5,0,1,,,,,,,,,
297538,2022-11-30_23h47.24.529,vts_reward_expectancy_bt,2022.2.4,MacIntel,62.5,Safari,1366,768,,,,,0,1271,,,,,,,,,,,,,,,,,174,B,hexagon,1,0,,,,,,,,,,,,,,,,repeat,number,numRpt,f,Hi,,,,,,0.51,5,,,,,,,,low,6,0,6,0,1,,,,,,,,,
297538,2022-11-30_23h47.24.529,vts_reward_expectancy_bt,2022.2.4,MacIntel,62.5,Safari,1366,768,,,,,0,1271,,,,,,,,,,,,,,,,,139,Y,circle,0,0,,,,,,,,,,,,,,,,repeat,number,NA,f,Hi,,,,,,0.478,5,,,,,,,,low,7,0,7,0,1,,,,,,,,,
297538,2022-11-30_23h47.24.529,vts_reward_expectancy_bt,2022.2.4,MacIntel,62.5,Safari,1366,768,,,,,0,1271,,,,,,,,,,,,,,,,,132,U,star,1,1,,,,,,,,,,,,,,,,repeat,number,numRpt,d,Hi,,,,,,0.526,5,,,,,,,,low,8,0,8,0,1,,,,,,,,,
297538,2022-11-30_23h47.24.529,vts_reward_expectancy_bt,2022.2.4,MacIntel,62.5,Safari,1366,768,,,,,10,1281,,,,,,,,,,,,,,,,,181,H,hexagon,1,0,,,,,,,,,,,,,,,,repeat,number,numRpt,f,Hi,,,,,,0.397,5,,,,,,,,low,9,0,9,0,1,,,,,,,,,
297538,2022-11-30_23h47.24.529,vts_reward_expectancy_bt,2022.2.4,MacIntel,62.5,Safari,1366,768,,,,,0,1281,,,,,,,,,,,,,,,,,146,W,circle,0,0,,,,,,,,,,,,,,,,repeat,number,NA,f,Hi,,,,,,0.466,5,,,,,,,,low,10,0,10,0,1,,,,,,,,,
297538,2022-11-30_23h47.24.529,vts_reward_expectancy_bt,2022.2.4,MacIntel,62.5,Safari,1366,768,,,,,0,1281,,,,,,,,,,,,,,,,,160,D,triangle,0,1,,,,,,,,,,,,,,,,repeat,number,NA,d,Hi,,,,,,0.577,5,,,,,,,,low,11,0,11,0,1,,,,,,,,,
297538,2022-11-30_23h47.24.529,vts_reward_expectancy_bt,2022.2.4,MacIntel,62.5,Safari,1366,768,,,,,10,1291,,,,,,,,,,,,,,,,,167,S,hexagon,1,1,,,,,,,,,,,,,,,,repeat,number,numRpt,f,Hi,,,,,,0.414,5,,,,,,,,low,12,0,12,0,1,,,,,,,,,
297538,2022-11-30_23h47.24.529,vts_reward_expectancy_bt,2022.2.4,MacIntel,62.5,Safari,1366,768,,,,,0,1291,,,,,,,,,,,,,,,,,125,F,star,1,0,,,,,,,,,,,,,,,,repeat,number,numRpt,d,Hi,,,,,,0.514,5,,,,,,,,low,13,0,13,0,1,,,,,,,,,
297538,2022-11-30_23h47.24.529,vts_reward_expectancy_bt,2022.2.4,MacIntel,62.5,Safari,1366,768,,,,,1,1292,,,,,,,,,,,,,,,,,174,B,triangle,1,0,,,,,,,,,,,,,,,,repeat,number,numRpt,f,Lo,,,,,,0.528,5,,,,,,,,low,14,0,14,0,1,,,,,,,,,
297538,2022-11-30_23h47.24.529,vts_reward_expectancy_bt,2022.2.4,MacIntel,62.5,Safari,1366,768,,,,,1,1293,,,,,,,,,,,,,,,,,139,Y,circle,1,0,,,,,,,,,,,,,,,,switch,letter,lettSwt,k,Lo,,,,,,0.562,5,,,,,,,,low,15,0,15,0,1,,,,,,,,,
297538,2022-11-30_23h47.24.529,vts_reward_expectancy_bt,2022.2.4,MacIntel,62.5,Safari,1366,768,,,,,0,1293,,,,,,,,,,,,,,,,,146,U,triangle,0,0,,,,,,,,,,,,,,,,repeat,letter,NA,j,Lo,,,,,,0.543,5,,,,,,,,low,16,0,16,0,1,,,,,,,,,
297538,2022-11-30_23h47.24.529,vts_reward_expectancy_bt,2022.2.4,MacIntel,62.5,Safari,1366,768,,,,,10,1303,,,,,,,,,,,,,,,,,174,W,hexagon,1,1,,,,,,,,,,,,,,,,repeat,letter,lettRpt,k,Hi,,,,,,0.527,5,,,,,,,,low,17,0,17,0,1,,,,,,,,,
297538,2022-11-30_23h47.24.529,vts_reward_expectancy_bt,2022.2.4,MacIntel,62.5,Safari,1366,768,,,,,10,1313,,,,,,,,,,,,,,,,,181,Y,circle,1,0,,,,,,,,,,,,,,,,repeat,letter,lettRpt,k,Lo,,,,,,0.593,5,,,,,,,,low,18,0,18,0,1,,,,,,,,,
297538,2022-11-30_23h47.24.529,vts_reward_expectancy_bt,2022.2.4,MacIntel,62.5,Safari,1366,768,,,,,1,1314,,,,,,,,,,,,,,,,,160,D,star,1,0,,,,,,,,,,,,,,,,repeat,letter,lettRpt,j,Hi,,,,,,0.393,5,,,,,,,,low,19,0,19,0,1,,,,,,,,,
297538,2022-11-30_23h47.24.529,vts_reward_expectancy_bt,2022.2.4,MacIntel,62.5,Safari,1366,768,,,,,0,1314,,,,,,,,,,,,,,,,,125,F,circle,0,0,,,,,,,,,,,,,,,,repeat,letter,NA,k,Hi,,,,,,0.702,5,,,,,,,,low,20,0,20,0,1,,,,,,,,,
297538,2022-11-30_23h47.24.529,vts_reward_expectancy_bt,2022.2.4,MacIntel,62.5,Safari,1366,768,,,,,10,1324,,,,,,,,,,,,,,,,,139,B,star,1,1,,,,,,,,,,,,,,,,switch,number,numSwt,d,Hi,,,,,,0.528,5,,,,,,,,low,21,0,21,0,1,,,,,,,,,
297538,2022-11-30_23h47.24.529,vts_reward_expectancy_bt,2022.2.4,MacIntel,62.5,Safari,1366,768,,,,,0,1324,,,,,,,,,,,,,,,,,167,H,hexagon,1,0,,,,,,,,,,,,,,,,repeat,number,numRpt,f,Hi,,,,,,0.595,5,,,,,,,,low,22,0,22,0,1,,,,,,,,,
297538,2022-11-30_23h47.24.529,vts_reward_expectancy_bt,2022.2.4,MacIntel,62.5,Safari,1366,768,,,,,0,1324,,,,,,,,,,,,,,,,,132,S,triangle,0,0,,,,,,,,,,,,,,,,repeat,number,NA,f,Hi,,,,,,0.512,5,,,,,,,,low,23,0,23,0,1,,,,,,,,,
297538,2022-11-30_23h47.24.529,vts_reward_expectancy_bt,2022.2.4,MacIntel,62.5,Safari,1366,768,,,,,10,1334,,,,,,,,,,,,,,,,,132,B,circle,1,1,,,,,,,,,,,,,,,,repeat,number,numRpt,d,Lo,,,,,,0.531,5,,,,,,,,low,24,0,24,0,1,,,,,,,,,
297538,2022-11-30_23h47.24.529,vts_reward_expectancy_bt,2022.2.4,MacIntel,62.5,Safari,1366,768,,,,,10,1344,,,,,,,,,,,,,,,,,160,W,hexagon,1,0,,,,,,,,,,,,,,,,repeat,number,numRpt,f,Hi,,,,,,0.383,5,,,,,,,,low,25,0,25,0,1,,,,,,,,,
297538,2022-11-30_23h47.24.529,vts_reward_expectancy_bt,2022.2.4,MacIntel,62.5,Safari,1366,768,,,,,10,1354,,,,,,,,,,,,,,,,,139,D,triangle,1,0,,,,,,,,,,,,,,,,repeat,number,numRpt,d,Lo,,,,,,0.627,5,,,,,,,,low,26,0,26,0,1,,,,,,,,,
297538,2022-11-30_23h47.24.529,vts_reward_expectancy_bt,2022.2.4,MacIntel,62.5,Safari,1366,768,,,,,0,1354,,,,,,,,,,,,,,,,,146,Y,star,1,0,,,,,,,,,,,,,,,,switch,letter,lettSwt,k,Hi,,,,,,0.583,5,,,,,,,,low,27,0,27,0,1,,,,,,,,,
297538,2022-11-30_23h47.24.529,vts_reward_expectancy_bt,2022.2.4,MacIntel,62.5,Safari,1366,768,,,,,1,1355,,,,,,,,,,,,,,,,,167,H,circle,1,0,,,,,,,,,,,,,,,,repeat,letter,lettRpt,j,Lo,,,,,,0.609,5,,,,,,,,low,28,0,28,0,1,,,,,,,,,
297538,2022-11-30_23h47.24.529,vts_reward_expectancy_bt,2022.2.4,MacIntel,62.5,Safari,1366,768,,,,,1,1356,,,,,,,,,,,,,,,,,181,U,hexagon,1,0,,,,,,,,,,,,,,,,repeat,letter,lettRpt,k,Hi,,,,,,0.515,5,,,,,,,,low,29,0,29,0,1,,,,,,,,,
297538,2022-11-30_23h47.24.529,vts_reward_expectancy_bt,2022.2.4,MacIntel,62.5,Safari,1366,768,,,,,10,1366,,,,,,,,,,,,,,,,,174,S,star,1,0,,,,,,,,,,,,,,,,switch,number,numSwt,f,Hi,,,,,,0.524,5,,,,,,,,low,30,0,30,0,1,,,,,,,,,
297538,2022-11-30_23h47.24.529,vts_reward_expectancy_bt,2022.2.4,MacIntel,62.5,Safari,1366,768,,,,,1,1367,,,,,,,,,,,,,,,,,125,F,triangle,1,0,,,,,,,,,,,,,,,,repeat,number,numRpt,d,Lo,,,,,,0.588,5,,,,,,,,low,31,0,31,0,1,,,,,,,,,
297538,2022-11-30_23h47.24.529,vts_reward_expectancy_bt,2022.2.4,MacIntel,62.5,Safari,1366,768,,,,,0,1367,,,,,,,,,,,,,,,,,160,Y,star,1,0,,,,,,,,,,,,,,,,repeat,number,numRpt,f,Hi,,,,,,0.746,6,,,,,,space,0.536,low,0,0,0,0,1,,,,,,,,,
297538,2022-11-30_23h47.24.529,vts_reward_expectancy_bt,2022.2.4,MacIntel,62.5,Safari,1366,768,,,,,1,1368,,,,,,,,,,,,,,,,,181,S,circle,1,0,,,,,,,,,,,,,,,,repeat,number,numRpt,f,Lo,,,,,,0.501,6,,,,,,,,low,1,0,1,0,1,,,,,,,,,
297538,2022-11-30_23h47.24.529,vts_reward_expectancy_bt,2022.2.4,MacIntel,62.5,Safari,1366,768,,,,,10,1378,,,,,,,,,,,,,,,,,174,F,triangle,1,0,,,,,,,,,,,,,,,,repeat,number,numRpt,f,Lo,,,,,,0.564,6,,,,,,,,low,2,0,2,0,1,,,,,,,,,
297538,2022-11-30_23h47.24.529,vts_reward_expectancy_bt,2022.2.4,MacIntel,62.5,Safari,1366,768,,,,,1,1379,,,,,,,,,,,,,,,,,125,W,hexagon,1,0,,,,,,,,,,,,,,,,repeat,number,numRpt,d,Hi,,,,,,0.479,6,,,,,,,,low,3,0,3,0,1,,,,,,,,,
297538,2022-11-30_23h47.24.529,vts_reward_expectancy_bt,2022.2.4,MacIntel,62.5,Safari,1366,768,,,,,0,1379,,,,,,,,,,,,,,,,,146,H,star,0,0,,,,,,,,,,,,,,,,repeat,number,NA,f,Hi,,,,,,0.499,6,,,,,,,,low,4,0,4,0,1,,,,,,,,,
297538,2022-11-30_23h47.24.529,vts_reward_expectancy_bt,2022.2.4,MacIntel,62.5,Safari,1366,768,,,,,1,1380,,,,,,,,,,,,,,,,,167,B,circle,1,1,,,,,,,,,,,,,,,,switch,letter,lettSwt,j,Lo,,,,,,0.535,6,,,,,,,,low,5,0,5,0,1,,,,,,,,,
297538,2022-11-30_23h47.24.529,vts_reward_expectancy_bt,2022.2.4,MacIntel,62.5,Safari,1366,768,,,,,1,1381,,,,,,,,,,,,,,,,,132,U,triangle,1,0,,,,,,,,,,,,,,,,repeat,letter,lettRpt,k,Lo,,,,,,0.502,6,,,,,,,,low,6,0,6,0,1,,,,,,,,,
297538,2022-11-30_23h47.24.529,vts_reward_expectancy_bt,2022.2.4,MacIntel,62.5,Safari,1366,768,,,,,10,1391,,,,,,,,,,,,,,,,,139,D,hexagon,1,0,,,,,,,,,,,,,,,,repeat,letter,lettRpt,j,Hi,,,,,,0.431,6,,,,,,,,low,7,0,7,0,1,,,,,,,,,
297538,2022-11-30_23h47.24.529,vts_reward_expectancy_bt,2022.2.4,MacIntel,62.5,Safari,1366,768,,,,,1,1392,,,,,,,,,,,,,,,,,160,Y,triangle,1,0,,,,,,,,,,,,,,,,repeat,letter,lettRpt,k,Lo,,,,,,0.463,6,,,,,,,,low,8,0,8,0,1,,,,,,,,,
297538,2022-11-30_23h47.24.529,vts_reward_expectancy_bt,2022.2.4,MacIntel,62.5,Safari,1366,768,,,,,1,1393,,,,,,,,,,,,,,,,,181,S,star,1,0,,,,,,,,,,,,,,,,repeat,letter,lettRpt,k,Hi,,,,,,0.518,6,,,,,,,,low,9,0,9,0,1,,,,,,,,,
297538,2022-11-30_23h47.24.529,vts_reward_expectancy_bt,2022.2.4,MacIntel,62.5,Safari,1366,768,,,,,0,1393,,,,,,,,,,,,,,,,,174,F,hexagon,1,0,,,,,,,,,,,,,,,,switch,number,numSwt,f,Hi,,,,,,0.546,6,,,,,,,,low,10,0,10,0,1,,,,,,,,,
297538,2022-11-30_23h47.24.529,vts_reward_expectancy_bt,2022.2.4,MacIntel,62.5,Safari,1366,768,,,,,1,1394,,,,,,,,,,,,,,,,,125,W,circle,1,0,,,,,,,,,,,,,,,,repeat,number,numRpt,d,Lo,,,,,,0.615,6,,,,,,,,low,11,0,11,0,1,,,,,,,,,
297538,2022-11-30_23h47.24.529,vts_reward_expectancy_bt,2022.2.4,MacIntel,62.5,Safari,1366,768,,,,,10,1404,,,,,,,,,,,,,,,,,146,H,hexagon,1,0,,,,,,,,,,,,,,,,repeat,number,numRpt,d,Hi,,,,,,0.497,6,,,,,,,,low,12,0,12,0,1,,,,,,,,,
297538,2022-11-30_23h47.24.529,vts_reward_expectancy_bt,2022.2.4,MacIntel,62.5,Safari,1366,768,,,,,1,1405,,,,,,,,,,,,,,,,,167,B,circle,1,0,,,,,,,,,,,,,,,,repeat,number,numRpt,f,Lo,,,,,,0.462,6,,,,,,,,low,13,0,13,0,1,,,,,,,,,
297538,2022-11-30_23h47.24.529,vts_reward_expectancy_bt,2022.2.4,MacIntel,62.5,Safari,1366,768,,,,,10,1415,,,,,,,,,,,,,,,,,132,U,triangle,1,0,,,,,,,,,,,,,,,,repeat,number,numRpt,d,Lo,,,,,,0.533,6,,,,,,,,low,14,0,14,0,1,,,,,,,,,
297538,2022-11-30_23h47.24.529,vts_reward_expectancy_bt,2022.2.4,MacIntel,62.5,Safari,1366,768,,,,,1,1416,,,,,,,,,,,,,,,,,139,D,star,1,0,,,,,,,,,,,,,,,,repeat,number,numRpt,d,Hi,,,,,,0.483,6,,,,,,,,low,15,0,15,0,1,,,,,,,,,
297538,2022-11-30_23h47.24.529,vts_reward_expectancy_bt,2022.2.4,MacIntel,62.5,Safari,1366,768,,,,,1,1417,,,,,,,,,,,,,,,,,160,H,circle,1,0,,,,,,,,,,,,,,,,repeat,number,numRpt,f,Lo,,,,,,0.537,6,,,,,,,,low,16,0,16,0,1,,,,,,,,,
297538,2022-11-30_23h47.24.529,vts_reward_expectancy_bt,2022.2.4,MacIntel,62.5,Safari,1366,768,,,,,1,1418,,,,,,,,,,,,,,,,,174,Y,triangle,1,0,,,,,,,,,,,,,,,,switch,letter,lettSwt,k,Lo,,,,,,0.531,6,,,,,,,,low,17,0,17,0,1,,,,,,,,,
297538,2022-11-30_23h47.24.529,vts_reward_expectancy_bt,2022.2.4,MacIntel,62.5,Safari,1366,768,,,,,0,1418,,,,,,,,,,,,,,,,,181,D,hexagon,0,0,,,,,,,,,,,,,,,,repeat,letter,NA,k,Lo,,,,,,0.464,6,,,,,,,,low,18,0,18,0,1,,,,,,,,,
297538,2022-11-30_23h47.24.529,vts_reward_expectancy_bt,2022.2.4,MacIntel,62.5,Safari,1366,768,,,,,0,1418,,,,,,,,,,,,,,,,,125,S,star,0,1,,,,,,,,,,,,,,,,repeat,letter,NA,j,Lo,,,,,,0.629,6,,,,,,,,low,19,0,19,0,1,,,,,,,,,
297538,2022-11-30_23h47.24.529,vts_reward_expectancy_bt,2022.2.4,MacIntel,62.5,Safari,1366,768,,,,,10,1428,,,,,,,,,,,,,,,,,132,B,hexagon,1,1,,,,,,,,,,,,,,,,repeat,letter,lettRpt,j,Hi,,,,,,0.492,6,,,,,,,,low,20,0,20,0,1,,,,,,,,,
297538,2022-11-30_23h47.24.529,vts_reward_expectancy_bt,2022.2.4,MacIntel,62.5,Safari,1366,768,,,,,1,1429,,,,,,,,,,,,,,,,,139,U,triangle,1,0,,,,,,,,,,,,,,,,repeat,letter,lettRpt,k,Lo,,,,,,0.476,6,,,,,,,,low,21,0,21,0,1,,,,,,,,,
297538,2022-11-30_23h47.24.529,vts_reward_expectancy_bt,2022.2.4,MacIntel,62.5,Safari,1366,768,,,,,1,1430,,,,,,,,,,,,,,,,,167,W,circle,1,0,,,,,,,,,,,,,,,,repeat,letter,lettRpt,k,Lo,,,,,,0.682,6,,,,,,,,low,22,0,22,0,1,,,,,,,,,
297538,2022-11-30_23h47.24.529,vts_reward_expectancy_bt,2022.2.4,MacIntel,62.5,Safari,1366,768,,,,,0,1430,,,,,,,,,,,,,,,,,146,F,star,0,0,,,,,,,,,,,,,,,,repeat,letter,NA,k,Lo,,,,,,0.584,6,,,,,,,,low,23,0,23,0,1,,,,,,,,,
297538,2022-11-30_23h47.24.529,vts_reward_expectancy_bt,2022.2.4,MacIntel,62.5,Safari,1366,768,,,,,0,1430,,,,,,,,,,,,,,,,,167,W,hexagon,1,1,,,,,,,,,,,,,,,,repeat,letter,lettRpt,k,Hi,,,,,,0.694,6,,,,,,,,low,24,0,24,0,1,,,,,,,,,
297538,2022-11-30_23h47.24.529,vts_reward_expectancy_bt,2022.2.4,MacIntel,62.5,Safari,1366,768,,,,,0,1430,,,,,,,,,,,,,,,,,174,F,star,0,0,,,,,,,,,,,,,,,,repeat,letter,NA,k,Hi,,,,,,0.647,6,,,,,,,,low,25,0,25,0,1,,,,,,,,,
