participant,date,expName,psychopyVersion,OS,frameRate,browser,xResolution,yResolution,key_resp.keys,key_resp.rt,training_resp.keys,training_resp.rt,points_trial,points_cumul,trainBlock,training.thisRepN,training.thisTrialN,training.thisN,training.thisIndex,training.ran,LTriangleOpac,LCircleOpac,LHexagonOpac,LStarOpac,RTriangleOpac,RCircleOpac,RHexagonOpac,RStarOpac,LShape_ID,RShape_ID,curr_topStim,curr_bottStim,curr_shape,acc,E1,target_resp_prac1.keys,target_resp_prac1.rt,pracBlock,task1_prac_trials.thisRepN,task1_prac_trials.thisTrialN,task1_prac_trials.thisN,task1_prac_trials.thisIndex,task1_prac_trials.ran,target_resp_prac2.keys,target_resp_prac2.rt,task2_praac_trials.thisRepN,task2_praac_trials.thisTrialN,task2_praac_trials.thisN,task2_praac_trials.thisIndex,task2_praac_trials.ran,alt,task,condition,target_resp.keys,target_resp.rt,rewCond,vts_practice_trials.thisRepN,vts_practice_trials.thisTrialN,vts_practice_trials.thisN,vts_practice_trials.thisIndex,vts_practice_trials.ran,blockNum,trials_norew.thisRepN,trials_norew.thisTrialN,trials_norew.thisN,trials_norew.thisIndex,trials_norew.ran,key_resp_2.keys,key_resp_2.rt,rewExpectancy,trials_rew.thisRepN,trials_rew.thisTrialN,trials_rew.thisN,trials_rew.thisIndex,trials_rew.ran,Q1,Q2,Q2_text,Q3,Q4,Q5_text,Q5,xRes,yRes
297556,2022-12-06_06h29.32.188,vts_reward_expectancy_bt,2022.2.4,MacIntel,120.0048002,Chrome,1728,1117,,,,,,,,,,,,,,,,,,,,,,,,,,,,,,,,,,,,,,,,,,,,,,,,,,,,,,,,,,,,,,,,,,,,,,,,,,,,
297556,2022-12-06_06h29.32.188,vts_reward_expectancy_bt,2022.2.4,MacIntel,120.0048002,Chrome,1728,1117,space,11.683,,,,,,,,,,,,,,,,,,,,,,,,,,,,,,,,,,,,,,,,,,,,,,,,,,,,,,,,,,,,,,,,,,,,,,,,,,
297556,2022-12-06_06h29.32.188,vts_reward_expectancy_bt,2022.2.4,MacIntel,120.0048002,Chrome,1728,1117,,,,,,,,,,,,,,,,,,,,,,,,,,,,,,,,,,,,,,,,,,,,,,,,,,,,,,,,,,,,,,,,,,,,,,,,,,,,
297556,2022-12-06_06h29.32.188,vts_reward_expectancy_bt,2022.2.4,MacIntel,120.0048002,Chrome,1728,1117,,,l,3.1301,1,1,0,0,0,0,3,1,0,1,0,0,1,0,0,0,circle,triangle,,,,,,,,,,,,,,,,,,,,,,,,,,,,,,,,,,,,,,,,,,,,,,,,,,,,,,
297556,2022-12-06_06h29.32.188,vts_reward_expectancy_bt,2022.2.4,MacIntel,120.0048002,Chrome,1728,1117,,,l,1.4709,10,11,0,0,1,1,2,1,1,0,0,0,0,0,0,1,triangle,star,,,,,,,,,,,,,,,,,,,,,,,,,,,,,,,,,,,,,,,,,,,,,,,,,,,,,,
297556,2022-12-06_06h29.32.188,vts_reward_expectancy_bt,2022.2.4,MacIntel,120.0048002,Chrome,1728,1117,,,a,2.2413,1,12,0,0,2,2,6,1,0,0,1,0,1,0,0,0,hexagon,triangle,,,,,,,,,,,,,,,,,,,,,,,,,,,,,,,,,,,,,,,,,,,,,,,,,,,,,,
297556,2022-12-06_06h29.32.188,vts_reward_expectancy_bt,2022.2.4,MacIntel,120.0048002,Chrome,1728,1117,,,a,0.7383,1,13,0,0,3,3,9,1,0,0,0,1,1,0,0,0,star,triangle,,,,,,,,,,,,,,,,,,,,,,,,,,,,,,,,,,,,,,,,,,,,,,,,,,,,,,
297556,2022-12-06_06h29.32.188,vts_reward_expectancy_bt,2022.2.4,MacIntel,120.0048002,Chrome,1728,1117,,,a,1.6571,1,14,0,0,4,4,10,1,0,0,0,1,0,1,0,0,star ,circle,,,,,,,,,,,,,,,,,,,,,,,,,,,,,,,,,,,,,,,,,,,,,,,,,,,,,,
297556,2022-12-06_06h29.32.188,vts_reward_expectancy_bt,2022.2.4,MacIntel,120.0048002,Chrome,1728,1117,,,l,0.6369,1,15,0,0,5,5,11,1,0,0,0,1,0,0,1,0,star,hexagon,,,,,,,,,,,,,,,,,,,,,,,,,,,,,,,,,,,,,,,,,,,,,,,,,,,,,,
297556,2022-12-06_06h29.32.188,vts_reward_expectancy_bt,2022.2.4,MacIntel,120.0048002,Chrome,1728,1117,,,l,1.5094,10,25,0,0,6,6,1,1,1,0,0,0,0,0,1,0,triangle,hexagon,,,,,,,,,,,,,,,,,,,,,,,,,,,,,,,,,,,,,,,,,,,,,,,,,,,,,,
297556,2022-12-06_06h29.32.188,vts_reward_expectancy_bt,2022.2.4,MacIntel,120.0048002,Chrome,1728,1117,,,l,4.464,1,26,0,0,7,7,7,1,0,0,1,0,0,1,0,0,hexagon,circle,,,,,,,,,,,,,,,,,,,,,,,,,,,,,,,,,,,,,,,,,,,,,,,,,,,,,,
297556,2022-12-06_06h29.32.188,vts_reward_expectancy_bt,2022.2.4,MacIntel,120.0048002,Chrome,1728,1117,,,l,0.7959,10,36,0,0,8,8,4,1,0,1,0,0,0,0,1,0,circle,hexagon,,,,,,,,,,,,,,,,,,,,,,,,,,,,,,,,,,,,,,,,,,,,,,,,,,,,,,
297556,2022-12-06_06h29.32.188,vts_reward_expectancy_bt,2022.2.4,MacIntel,120.0048002,Chrome,1728,1117,,,l,0.4468,1,37,0,0,9,9,8,1,0,0,1,0,0,0,0,1,hexagon,star,,,,,,,,,,,,,,,,,,,,,,,,,,,,,,,,,,,,,,,,,,,,,,,,,,,,,,
297556,2022-12-06_06h29.32.188,vts_reward_expectancy_bt,2022.2.4,MacIntel,120.0048002,Chrome,1728,1117,,,a,1.6352,10,47,0,0,10,10,0,1,1,0,0,0,0,1,0,0,triangle,circle,,,,,,,,,,,,,,,,,,,,,,,,,,,,,,,,,,,,,,,,,,,,,,,,,,,,,,
297556,2022-12-06_06h29.32.188,vts_reward_expectancy_bt,2022.2.4,MacIntel,120.0048002,Chrome,1728,1117,,,l,5.2171,1,48,0,0,11,11,5,1,0,1,0,0,0,0,0,1,circle,star,,,,,,,,,,,,,,,,,,,,,,,,,,,,,,,,,,,,,,,,,,,,,,,,,,,,,,
297556,2022-12-06_06h29.32.188,vts_reward_expectancy_bt,2022.2.4,MacIntel,120.0048002,Chrome,1728,1117,,,a,1.0192,10,58,0,1,0,12,0,1,1,0,0,0,0,1,0,0,triangle,circle,,,,,,,,,,,,,,,,,,,,,,,,,,,,,,,,,,,,,,,,,,,,,,,,,,,,,,
297556,2022-12-06_06h29.32.188,vts_reward_expectancy_bt,2022.2.4,MacIntel,120.0048002,Chrome,1728,1117,,,a,1.2235,1,59,0,1,1,13,8,1,0,0,1,0,0,0,0,1,hexagon,star,,,,,,,,,,,,,,,,,,,,,,,,,,,,,,,,,,,,,,,,,,,,,,,,,,,,,,
297556,2022-12-06_06h29.32.188,vts_reward_expectancy_bt,2022.2.4,MacIntel,120.0048002,Chrome,1728,1117,,,a,1.2306,1,60,0,1,2,14,9,1,0,0,0,1,1,0,0,0,star,triangle,,,,,,,,,,,,,,,,,,,,,,,,,,,,,,,,,,,,,,,,,,,,,,,,,,,,,,
297556,2022-12-06_06h29.32.188,vts_reward_expectancy_bt,2022.2.4,MacIntel,120.0048002,Chrome,1728,1117,,,l,0.6246,10,70,0,1,3,15,5,1,0,1,0,0,0,0,0,1,circle,star,,,,,,,,,,,,,,,,,,,,,,,,,,,,,,,,,,,,,,,,,,,,,,,,,,,,,,
297556,2022-12-06_06h29.32.188,vts_reward_expectancy_bt,2022.2.4,MacIntel,120.0048002,Chrome,1728,1117,,,l,3.414,1,71,0,1,4,16,3,1,0,1,0,0,1,0,0,0,circle,triangle,,,,,,,,,,,,,,,,,,,,,,,,,,,,,,,,,,,,,,,,,,,,,,,,,,,,,,
297556,2022-12-06_06h29.32.188,vts_reward_expectancy_bt,2022.2.4,MacIntel,120.0048002,Chrome,1728,1117,,,a,1.6029,1,72,0,1,5,17,10,1,0,0,0,1,0,1,0,0,star ,circle,,,,,,,,,,,,,,,,,,,,,,,,,,,,,,,,,,,,,,,,,,,,,,,,,,,,,,
297556,2022-12-06_06h29.32.188,vts_reward_expectancy_bt,2022.2.4,MacIntel,120.0048002,Chrome,1728,1117,,,a,1.1579,10,82,0,1,6,18,6,1,0,0,1,0,1,0,0,0,hexagon,triangle,,,,,,,,,,,,,,,,,,,,,,,,,,,,,,,,,,,,,,,,,,,,,,,,,,,,,,
297556,2022-12-06_06h29.32.188,vts_reward_expectancy_bt,2022.2.4,MacIntel,120.0048002,Chrome,1728,1117,,,l,1.0763,1,83,0,1,7,19,4,1,0,1,0,0,0,0,1,0,circle,hexagon,,,,,,,,,,,,,,,,,,,,,,,,,,,,,,,,,,,,,,,,,,,,,,,,,,,,,,
297556,2022-12-06_06h29.32.188,vts_reward_expectancy_bt,2022.2.4,MacIntel,120.0048002,Chrome,1728,1117,,,l,1.6921,1,84,0,1,8,20,2,1,1,0,0,0,0,0,0,1,triangle,star,,,,,,,,,,,,,,,,,,,,,,,,,,,,,,,,,,,,,,,,,,,,,,,,,,,,,,
297556,2022-12-06_06h29.32.188,vts_reward_expectancy_bt,2022.2.4,MacIntel,120.0048002,Chrome,1728,1117,,,l,0.5852,10,94,0,1,9,21,7,1,0,0,1,0,0,1,0,0,hexagon,circle,,,,,,,,,,,,,,,,,,,,,,,,,,,,,,,,,,,,,,,,,,,,,,,,,,,,,,
297556,2022-12-06_06h29.32.188,vts_reward_expectancy_bt,2022.2.4,MacIntel,120.0048002,Chrome,1728,1117,,,a,0.6317,10,104,0,1,10,22,11,1,0,0,0,1,0,0,1,0,star,hexagon,,,,,,,,,,,,,,,,,,,,,,,,,,,,,,,,,,,,,,,,,,,,,,,,,,,,,,
297556,2022-12-06_06h29.32.188,vts_reward_expectancy_bt,2022.2.4,MacIntel,120.0048002,Chrome,1728,1117,,,l,0.3743,10,114,0,1,11,23,1,1,1,0,0,0,0,0,1,0,triangle,hexagon,,,,,,,,,,,,,,,,,,,,,,,,,,,,,,,,,,,,,,,,,,,,,,,,,,,,,,
297556,2022-12-06_06h29.32.188,vts_reward_expectancy_bt,2022.2.4,MacIntel,120.0048002,Chrome,1728,1117,,,a,0.3338,10,124,0,2,0,24,3,1,0,1,0,0,1,0,0,0,circle,triangle,,,,,,,,,,,,,,,,,,,,,,,,,,,,,,,,,,,,,,,,,,,,,,,,,,,,,,
297556,2022-12-06_06h29.32.188,vts_reward_expectancy_bt,2022.2.4,MacIntel,120.0048002,Chrome,1728,1117,,,l,0.2664,10,134,0,2,1,25,4,1,0,1,0,0,0,0,1,0,circle,hexagon,,,,,,,,,,,,,,,,,,,,,,,,,,,,,,,,,,,,,,,,,,,,,,,,,,,,,,
297556,2022-12-06_06h29.32.188,vts_reward_expectancy_bt,2022.2.4,MacIntel,120.0048002,Chrome,1728,1117,,,a,0.293,10,144,0,2,2,26,1,1,1,0,0,0,0,0,1,0,triangle,hexagon,,,,,,,,,,,,,,,,,,,,,,,,,,,,,,,,,,,,,,,,,,,,,,,,,,,,,,
297556,2022-12-06_06h29.32.188,vts_reward_expectancy_bt,2022.2.4,MacIntel,120.0048002,Chrome,1728,1117,,,l,0.2562,1,145,0,2,3,27,8,1,0,0,1,0,0,0,0,1,hexagon,star,,,,,,,,,,,,,,,,,,,,,,,,,,,,,,,,,,,,,,,,,,,,,,,,,,,,,,
297556,2022-12-06_06h29.32.188,vts_reward_expectancy_bt,2022.2.4,MacIntel,120.0048002,Chrome,1728,1117,,,l,0.326,10,155,0,2,4,28,11,1,0,0,0,1,0,0,1,0,star,hexagon,,,,,,,,,,,,,,,,,,,,,,,,,,,,,,,,,,,,,,,,,,,,,,,,,,,,,,
297556,2022-12-06_06h29.32.188,vts_reward_expectancy_bt,2022.2.4,MacIntel,120.0048002,Chrome,1728,1117,,,a,0.1106,10,165,0,2,5,29,7,1,0,0,1,0,0,1,0,0,hexagon,circle,,,,,,,,,,,,,,,,,,,,,,,,,,,,,,,,,,,,,,,,,,,,,,,,,,,,,,
297556,2022-12-06_06h29.32.188,vts_reward_expectancy_bt,2022.2.4,MacIntel,120.0048002,Chrome,1728,1117,,,l,0.6443,10,175,0,2,6,30,10,1,0,0,0,1,0,1,0,0,star ,circle,,,,,,,,,,,,,,,,,,,,,,,,,,,,,,,,,,,,,,,,,,,,,,,,,,,,,,
297556,2022-12-06_06h29.32.188,vts_reward_expectancy_bt,2022.2.4,MacIntel,120.0048002,Chrome,1728,1117,,,a,0.3909,1,176,0,2,7,31,0,1,1,0,0,0,0,1,0,0,triangle,circle,,,,,,,,,,,,,,,,,,,,,,,,,,,,,,,,,,,,,,,,,,,,,,,,,,,,,,
297556,2022-12-06_06h29.32.188,vts_reward_expectancy_bt,2022.2.4,MacIntel,120.0048002,Chrome,1728,1117,,,a,0.4109,10,186,0,2,8,32,2,1,1,0,0,0,0,0,0,1,triangle,star,,,,,,,,,,,,,,,,,,,,,,,,,,,,,,,,,,,,,,,,,,,,,,,,,,,,,,
297556,2022-12-06_06h29.32.188,vts_reward_expectancy_bt,2022.2.4,MacIntel,120.0048002,Chrome,1728,1117,,,l,0.2686,10,196,0,2,9,33,6,1,0,0,1,0,1,0,0,0,hexagon,triangle,,,,,,,,,,,,,,,,,,,,,,,,,,,,,,,,,,,,,,,,,,,,,,,,,,,,,,
297556,2022-12-06_06h29.32.188,vts_reward_expectancy_bt,2022.2.4,MacIntel,120.0048002,Chrome,1728,1117,,,a,0.31,1,197,0,2,10,34,9,1,0,0,0,1,1,0,0,0,star,triangle,,,,,,,,,,,,,,,,,,,,,,,,,,,,,,,,,,,,,,,,,,,,,,,,,,,,,,
297556,2022-12-06_06h29.32.188,vts_reward_expectancy_bt,2022.2.4,MacIntel,120.0048002,Chrome,1728,1117,,,a,0.2193,1,198,0,2,11,35,5,1,0,1,0,0,0,0,0,1,circle,star,,,,,,,,,,,,,,,,,,,,,,,,,,,,,,,,,,,,,,,,,,,,,,,,,,,,,,
297556,2022-12-06_06h29.32.188,vts_reward_expectancy_bt,2022.2.4,MacIntel,120.0048002,Chrome,1728,1117,,,a,0.9061,1,199,1,0,0,0,9,1,0,0,0,1,1,0,0,0,star,triangle,,,,,,,,,,,,,,,,,,,,,,,,,,,,,,,,,,,,,,,,,,,,,,,,,,,,,,
297556,2022-12-06_06h29.32.188,vts_reward_expectancy_bt,2022.2.4,MacIntel,120.0048002,Chrome,1728,1117,,,a,0.0739,1,200,1,0,1,1,10,1,0,0,0,1,0,1,0,0,star ,circle,,,,,,,,,,,,,,,,,,,,,,,,,,,,,,,,,,,,,,,,,,,,,,,,,,,,,,
297556,2022-12-06_06h29.32.188,vts_reward_expectancy_bt,2022.2.4,MacIntel,120.0048002,Chrome,1728,1117,,,a,0.2181,10,210,1,0,2,2,5,1,0,1,0,0,0,0,0,1,circle,star,,,,,,,,,,,,,,,,,,,,,,,,,,,,,,,,,,,,,,,,,,,,,,,,,,,,,,
297556,2022-12-06_06h29.32.188,vts_reward_expectancy_bt,2022.2.4,MacIntel,120.0048002,Chrome,1728,1117,,,l,0.2175,10,220,1,0,3,3,8,1,0,0,1,0,0,0,0,1,hexagon,star,,,,,,,,,,,,,,,,,,,,,,,,,,,,,,,,,,,,,,,,,,,,,,,,,,,,,,
297556,2022-12-06_06h29.32.188,vts_reward_expectancy_bt,2022.2.4,MacIntel,120.0048002,Chrome,1728,1117,,,a,0.2854,10,230,1,0,4,4,4,1,0,1,0,0,0,0,1,0,circle,hexagon,,,,,,,,,,,,,,,,,,,,,,,,,,,,,,,,,,,,,,,,,,,,,,,,,,,,,,
297556,2022-12-06_06h29.32.188,vts_reward_expectancy_bt,2022.2.4,MacIntel,120.0048002,Chrome,1728,1117,,,l,0.1649,1,231,1,0,5,5,11,1,0,0,0,1,0,0,1,0,star,hexagon,,,,,,,,,,,,,,,,,,,,,,,,,,,,,,,,,,,,,,,,,,,,,,,,,,,,,,
297556,2022-12-06_06h29.32.188,vts_reward_expectancy_bt,2022.2.4,MacIntel,120.0048002,Chrome,1728,1117,,,l,0.2983,1,232,1,0,6,6,2,1,1,0,0,0,0,0,0,1,triangle,star,,,,,,,,,,,,,,,,,,,,,,,,,,,,,,,,,,,,,,,,,,,,,,,,,,,,,,
297556,2022-12-06_06h29.32.188,vts_reward_expectancy_bt,2022.2.4,MacIntel,120.0048002,Chrome,1728,1117,,,l,0.441,10,242,1,0,7,7,0,1,1,0,0,0,0,1,0,0,triangle,circle,,,,,,,,,,,,,,,,,,,,,,,,,,,,,,,,,,,,,,,,,,,,,,,,,,,,,,
297556,2022-12-06_06h29.32.188,vts_reward_expectancy_bt,2022.2.4,MacIntel,120.0048002,Chrome,1728,1117,,,a,0.1555,1,243,1,0,8,8,1,1,1,0,0,0,0,0,1,0,triangle,hexagon,,,,,,,,,,,,,,,,,,,,,,,,,,,,,,,,,,,,,,,,,,,,,,,,,,,,,,
297556,2022-12-06_06h29.32.188,vts_reward_expectancy_bt,2022.2.4,MacIntel,120.0048002,Chrome,1728,1117,,,a,0.1507,10,253,1,0,9,9,7,1,0,0,1,0,0,1,0,0,hexagon,circle,,,,,,,,,,,,,,,,,,,,,,,,,,,,,,,,,,,,,,,,,,,,,,,,,,,,,,
297556,2022-12-06_06h29.32.188,vts_reward_expectancy_bt,2022.2.4,MacIntel,120.0048002,Chrome,1728,1117,,,l,0.3083,1,254,1,0,10,10,6,1,0,0,1,0,1,0,0,0,hexagon,triangle,,,,,,,,,,,,,,,,,,,,,,,,,,,,,,,,,,,,,,,,,,,,,,,,,,,,,,
297556,2022-12-06_06h29.32.188,vts_reward_expectancy_bt,2022.2.4,MacIntel,120.0048002,Chrome,1728,1117,,,l,0.0327,1,255,1,0,11,11,3,1,0,1,0,0,1,0,0,0,circle,triangle,,,,,,,,,,,,,,,,,,,,,,,,,,,,,,,,,,,,,,,,,,,,,,,,,,,,,,
297556,2022-12-06_06h29.32.188,vts_reward_expectancy_bt,2022.2.4,MacIntel,120.0048002,Chrome,1728,1117,,,l,0.227,1,256,1,1,0,12,3,1,0,1,0,0,1,0,0,0,circle,triangle,,,,,,,,,,,,,,,,,,,,,,,,,,,,,,,,,,,,,,,,,,,,,,,,,,,,,,
297556,2022-12-06_06h29.32.188,vts_reward_expectancy_bt,2022.2.4,MacIntel,120.0048002,Chrome,1728,1117,,,l,0.1612,10,266,1,1,1,13,8,1,0,0,1,0,0,0,0,1,hexagon,star,,,,,,,,,,,,,,,,,,,,,,,,,,,,,,,,,,,,,,,,,,,,,,,,,,,,,,
297556,2022-12-06_06h29.32.188,vts_reward_expectancy_bt,2022.2.4,MacIntel,120.0048002,Chrome,1728,1117,,,a,0.2775,10,276,1,1,2,14,5,1,0,1,0,0,0,0,0,1,circle,star,,,,,,,,,,,,,,,,,,,,,,,,,,,,,,,,,,,,,,,,,,,,,,,,,,,,,,
297556,2022-12-06_06h29.32.188,vts_reward_expectancy_bt,2022.2.4,MacIntel,120.0048002,Chrome,1728,1117,,,l,0.3087,10,286,1,1,3,15,2,1,1,0,0,0,0,0,0,1,triangle,star,,,,,,,,,,,,,,,,,,,,,,,,,,,,,,,,,,,,,,,,,,,,,,,,,,,,,,
297556,2022-12-06_06h29.32.188,vts_reward_expectancy_bt,2022.2.4,MacIntel,120.0048002,Chrome,1728,1117,,,a,0.6899,1,287,1,1,4,16,7,1,0,0,1,0,0,1,0,0,hexagon,circle,,,,,,,,,,,,,,,,,,,,,,,,,,,,,,,,,,,,,,,,,,,,,,,,,,,,,,
297556,2022-12-06_06h29.32.188,vts_reward_expectancy_bt,2022.2.4,MacIntel,120.0048002,Chrome,1728,1117,,,l,0.2408,1,288,1,1,5,17,9,1,0,0,0,1,1,0,0,0,star,triangle,,,,,,,,,,,,,,,,,,,,,,,,,,,,,,,,,,,,,,,,,,,,,,,,,,,,,,
297556,2022-12-06_06h29.32.188,vts_reward_expectancy_bt,2022.2.4,MacIntel,120.0048002,Chrome,1728,1117,,,l,0.251,1,289,1,1,6,18,6,1,0,0,1,0,1,0,0,0,hexagon,triangle,,,,,,,,,,,,,,,,,,,,,,,,,,,,,,,,,,,,,,,,,,,,,,,,,,,,,,
297556,2022-12-06_06h29.32.188,vts_reward_expectancy_bt,2022.2.4,MacIntel,120.0048002,Chrome,1728,1117,,,a,0.1147,10,299,1,1,7,19,4,1,0,1,0,0,0,0,1,0,circle,hexagon,,,,,,,,,,,,,,,,,,,,,,,,,,,,,,,,,,,,,,,,,,,,,,,,,,,,,,
297556,2022-12-06_06h29.32.188,vts_reward_expectancy_bt,2022.2.4,MacIntel,120.0048002,Chrome,1728,1117,,,l,0.191,10,309,1,1,8,20,0,1,1,0,0,0,0,1,0,0,triangle,circle,,,,,,,,,,,,,,,,,,,,,,,,,,,,,,,,,,,,,,,,,,,,,,,,,,,,,,
297556,2022-12-06_06h29.32.188,vts_reward_expectancy_bt,2022.2.4,MacIntel,120.0048002,Chrome,1728,1117,,,a,0.1859,1,310,1,1,9,21,11,1,0,0,0,1,0,0,1,0,star,hexagon,,,,,,,,,,,,,,,,,,,,,,,,,,,,,,,,,,,,,,,,,,,,,,,,,,,,,,
297556,2022-12-06_06h29.32.188,vts_reward_expectancy_bt,2022.2.4,MacIntel,120.0048002,Chrome,1728,1117,,,a,0.2314,1,311,1,1,10,22,10,1,0,0,0,1,0,1,0,0,star ,circle,,,,,,,,,,,,,,,,,,,,,,,,,,,,,,,,,,,,,,,,,,,,,,,,,,,,,,
297556,2022-12-06_06h29.32.188,vts_reward_expectancy_bt,2022.2.4,MacIntel,120.0048002,Chrome,1728,1117,,,a,0.2027,10,321,1,1,11,23,1,1,1,0,0,0,0,0,1,0,triangle,hexagon,,,,,,,,,,,,,,,,,,,,,,,,,,,,,,,,,,,,,,,,,,,,,,,,,,,,,,
297556,2022-12-06_06h29.32.188,vts_reward_expectancy_bt,2022.2.4,MacIntel,120.0048002,Chrome,1728,1117,,,l,0.2189,10,331,1,2,0,24,3,1,0,1,0,0,1,0,0,0,circle,triangle,,,,,,,,,,,,,,,,,,,,,,,,,,,,,,,,,,,,,,,,,,,,,,,,,,,,,,
297556,2022-12-06_06h29.32.188,vts_reward_expectancy_bt,2022.2.4,MacIntel,120.0048002,Chrome,1728,1117,,,a,0.1573,10,341,1,2,1,25,5,1,0,1,0,0,0,0,0,1,circle,star,,,,,,,,,,,,,,,,,,,,,,,,,,,,,,,,,,,,,,,,,,,,,,,,,,,,,,
297556,2022-12-06_06h29.32.188,vts_reward_expectancy_bt,2022.2.4,MacIntel,120.0048002,Chrome,1728,1117,,,l,0.2652,1,342,1,2,2,26,6,1,0,0,1,0,1,0,0,0,hexagon,triangle,,,,,,,,,,,,,,,,,,,,,,,,,,,,,,,,,,,,,,,,,,,,,,,,,,,,,,
297556,2022-12-06_06h29.32.188,vts_reward_expectancy_bt,2022.2.4,MacIntel,120.0048002,Chrome,1728,1117,,,l,0.2185,1,343,1,2,3,27,2,1,1,0,0,0,0,0,0,1,triangle,star,,,,,,,,,,,,,,,,,,,,,,,,,,,,,,,,,,,,,,,,,,,,,,,,,,,,,,
297556,2022-12-06_06h29.32.188,vts_reward_expectancy_bt,2022.2.4,MacIntel,120.0048002,Chrome,1728,1117,,,l,0.2308,1,344,1,2,4,28,9,1,0,0,0,1,1,0,0,0,star,triangle,,,,,,,,,,,,,,,,,,,,,,,,,,,,,,,,,,,,,,,,,,,,,,,,,,,,,,
297556,2022-12-06_06h29.32.188,vts_reward_expectancy_bt,2022.2.4,MacIntel,120.0048002,Chrome,1728,1117,,,l,0.0811,1,345,1,2,5,29,7,1,0,0,1,0,0,1,0,0,hexagon,circle,,,,,,,,,,,,,,,,,,,,,,,,,,,,,,,,,,,,,,,,,,,,,,,,,,,,,,
297556,2022-12-06_06h29.32.188,vts_reward_expectancy_bt,2022.2.4,MacIntel,120.0048002,Chrome,1728,1117,,,l,0.2676,10,355,1,2,6,30,8,1,0,0,1,0,0,0,0,1,hexagon,star,,,,,,,,,,,,,,,,,,,,,,,,,,,,,,,,,,,,,,,,,,,,,,,,,,,,,,
297556,2022-12-06_06h29.32.188,vts_reward_expectancy_bt,2022.2.4,MacIntel,120.0048002,Chrome,1728,1117,,,a,0.8816,1,356,1,2,7,31,1,1,1,0,0,0,0,0,1,0,triangle,hexagon,,,,,,,,,,,,,,,,,,,,,,,,,,,,,,,,,,,,,,,,,,,,,,,,,,,,,,
297556,2022-12-06_06h29.32.188,vts_reward_expectancy_bt,2022.2.4,MacIntel,120.0048002,Chrome,1728,1117,,,a,0.6815,1,357,1,2,8,32,4,1,0,1,0,0,0,0,1,0,circle,hexagon,,,,,,,,,,,,,,,,,,,,,,,,,,,,,,,,,,,,,,,,,,,,,,,,,,,,,,
297556,2022-12-06_06h29.32.188,vts_reward_expectancy_bt,2022.2.4,MacIntel,120.0048002,Chrome,1728,1117,,,l,0.4105,10,367,1,2,9,33,0,1,1,0,0,0,0,1,0,0,triangle,circle,,,,,,,,,,,,,,,,,,,,,,,,,,,,,,,,,,,,,,,,,,,,,,,,,,,,,,
297556,2022-12-06_06h29.32.188,vts_reward_expectancy_bt,2022.2.4,MacIntel,120.0048002,Chrome,1728,1117,,,a,1.6225,10,377,1,2,10,34,11,1,0,0,0,1,0,0,1,0,star,hexagon,,,,,,,,,,,,,,,,,,,,,,,,,,,,,,,,,,,,,,,,,,,,,,,,,,,,,,
297556,2022-12-06_06h29.32.188,vts_reward_expectancy_bt,2022.2.4,MacIntel,120.0048002,Chrome,1728,1117,,,l,1.1737,1,378,1,2,11,35,10,1,0,0,0,1,0,1,0,0,star ,circle,,,,,,,,,,,,,,,,,,,,,,,,,,,,,,,,,,,,,,,,,,,,,,,,,,,,,,
297556,2022-12-06_06h29.32.188,vts_reward_expectancy_bt,2022.2.4,MacIntel,120.0048002,Chrome,1728,1117,,,a,0.7831,1,379,2,0,0,0,0,1,1,0,0,0,0,1,0,0,triangle,circle,,,,,,,,,,,,,,,,,,,,,,,,,,,,,,,,,,,,,,,,,,,,,,,,,,,,,,
297556,2022-12-06_06h29.32.188,vts_reward_expectancy_bt,2022.2.4,MacIntel,120.0048002,Chrome,1728,1117,,,l,0.8419,1,380,2,0,1,1,8,1,0,0,1,0,0,0,0,1,hexagon,star,,,,,,,,,,,,,,,,,,,,,,,,,,,,,,,,,,,,,,,,,,,,,,,,,,,,,,
297556,2022-12-06_06h29.32.188,vts_reward_expectancy_bt,2022.2.4,MacIntel,120.0048002,Chrome,1728,1117,,,a,7.5656,1,381,2,0,2,2,6,1,0,0,1,0,1,0,0,0,hexagon,triangle,,,,,,,,,,,,,,,,,,,,,,,,,,,,,,,,,,,,,,,,,,,,,,,,,,,,,,
297556,2022-12-06_06h29.32.188,vts_reward_expectancy_bt,2022.2.4,MacIntel,120.0048002,Chrome,1728,1117,,,l,0.9423,10,391,2,0,3,3,1,1,1,0,0,0,0,0,1,0,triangle,hexagon,,,,,,,,,,,,,,,,,,,,,,,,,,,,,,,,,,,,,,,,,,,,,,,,,,,,,,
297556,2022-12-06_06h29.32.188,vts_reward_expectancy_bt,2022.2.4,MacIntel,120.0048002,Chrome,1728,1117,,,l,1.1814,1,392,2,0,4,4,5,1,0,1,0,0,0,0,0,1,circle,star,,,,,,,,,,,,,,,,,,,,,,,,,,,,,,,,,,,,,,,,,,,,,,,,,,,,,,
297556,2022-12-06_06h29.32.188,vts_reward_expectancy_bt,2022.2.4,MacIntel,120.0048002,Chrome,1728,1117,,,a,0.973,1,393,2,0,5,5,10,1,0,0,0,1,0,1,0,0,star ,circle,,,,,,,,,,,,,,,,,,,,,,,,,,,,,,,,,,,,,,,,,,,,,,,,,,,,,,
297556,2022-12-06_06h29.32.188,vts_reward_expectancy_bt,2022.2.4,MacIntel,120.0048002,Chrome,1728,1117,,,a,1.3306,10,403,2,0,6,6,3,1,0,1,0,0,1,0,0,0,circle,triangle,,,,,,,,,,,,,,,,,,,,,,,,,,,,,,,,,,,,,,,,,,,,,,,,,,,,,,
297556,2022-12-06_06h29.32.188,vts_reward_expectancy_bt,2022.2.4,MacIntel,120.0048002,Chrome,1728,1117,,,l,1.7404,10,413,2,0,7,7,11,1,0,0,0,1,0,0,1,0,star,hexagon,,,,,,,,,,,,,,,,,,,,,,,,,,,,,,,,,,,,,,,,,,,,,,,,,,,,,,
297556,2022-12-06_06h29.32.188,vts_reward_expectancy_bt,2022.2.4,MacIntel,120.0048002,Chrome,1728,1117,,,l,4.0885,1,414,2,0,8,8,7,1,0,0,1,0,0,1,0,0,hexagon,circle,,,,,,,,,,,,,,,,,,,,,,,,,,,,,,,,,,,,,,,,,,,,,,,,,,,,,,
297556,2022-12-06_06h29.32.188,vts_reward_expectancy_bt,2022.2.4,MacIntel,120.0048002,Chrome,1728,1117,,,a,3.0456,1,415,2,0,9,9,4,1,0,1,0,0,0,0,1,0,circle,hexagon,,,,,,,,,,,,,,,,,,,,,,,,,,,,,,,,,,,,,,,,,,,,,,,,,,,,,,
297556,2022-12-06_06h29.32.188,vts_reward_expectancy_bt,2022.2.4,MacIntel,120.0048002,Chrome,1728,1117,,,l,1.482,1,416,2,0,10,10,2,1,1,0,0,0,0,0,0,1,triangle,star,,,,,,,,,,,,,,,,,,,,,,,,,,,,,,,,,,,,,,,,,,,,,,,,,,,,,,
297556,2022-12-06_06h29.32.188,vts_reward_expectancy_bt,2022.2.4,MacIntel,120.0048002,Chrome,1728,1117,,,a,1.0391,10,426,2,0,11,11,9,1,0,0,0,1,1,0,0,0,star,triangle,,,,,,,,,,,,,,,,,,,,,,,,,,,,,,,,,,,,,,,,,,,,,,,,,,,,,,
297556,2022-12-06_06h29.32.188,vts_reward_expectancy_bt,2022.2.4,MacIntel,120.0048002,Chrome,1728,1117,,,a,0.8339,1,427,2,1,0,12,9,1,0,0,0,1,1,0,0,0,star,triangle,,,,,,,,,,,,,,,,,,,,,,,,,,,,,,,,,,,,,,,,,,,,,,,,,,,,,,
297556,2022-12-06_06h29.32.188,vts_reward_expectancy_bt,2022.2.4,MacIntel,120.0048002,Chrome,1728,1117,,,a,1.9864,1,428,2,1,1,13,1,1,1,0,0,0,0,0,1,0,triangle,hexagon,,,,,,,,,,,,,,,,,,,,,,,,,,,,,,,,,,,,,,,,,,,,,,,,,,,,,,
297556,2022-12-06_06h29.32.188,vts_reward_expectancy_bt,2022.2.4,MacIntel,120.0048002,Chrome,1728,1117,,,l,1.3277,10,438,2,1,2,14,7,1,0,0,1,0,0,1,0,0,hexagon,circle,,,,,,,,,,,,,,,,,,,,,,,,,,,,,,,,,,,,,,,,,,,,,,,,,,,,,,
297556,2022-12-06_06h29.32.188,vts_reward_expectancy_bt,2022.2.4,MacIntel,120.0048002,Chrome,1728,1117,,,a,2.2868,10,448,2,1,3,15,3,1,0,1,0,0,1,0,0,0,circle,triangle,,,,,,,,,,,,,,,,,,,,,,,,,,,,,,,,,,,,,,,,,,,,,,,,,,,,,,
297556,2022-12-06_06h29.32.188,vts_reward_expectancy_bt,2022.2.4,MacIntel,120.0048002,Chrome,1728,1117,,,l,0.7615,10,458,2,1,4,16,10,1,0,0,0,1,0,1,0,0,star ,circle,,,,,,,,,,,,,,,,,,,,,,,,,,,,,,,,,,,,,,,,,,,,,,,,,,,,,,
297556,2022-12-06_06h29.32.188,vts_reward_expectancy_bt,2022.2.4,MacIntel,120.0048002,Chrome,1728,1117,,,a,1.8499,10,468,2,1,5,17,8,1,0,0,1,0,0,0,0,1,hexagon,star,,,,,,,,,,,,,,,,,,,,,,,,,,,,,,,,,,,,,,,,,,,,,,,,,,,,,,
297556,2022-12-06_06h29.32.188,vts_reward_expectancy_bt,2022.2.4,MacIntel,120.0048002,Chrome,1728,1117,,,a,0.9785,1,469,2,1,6,18,5,1,0,1,0,0,0,0,0,1,circle,star,,,,,,,,,,,,,,,,,,,,,,,,,,,,,,,,,,,,,,,,,,,,,,,,,,,,,,
297556,2022-12-06_06h29.32.188,vts_reward_expectancy_bt,2022.2.4,MacIntel,120.0048002,Chrome,1728,1117,,,l,1.3204,1,470,2,1,7,19,6,1,0,0,1,0,1,0,0,0,hexagon,triangle,,,,,,,,,,,,,,,,,,,,,,,,,,,,,,,,,,,,,,,,,,,,,,,,,,,,,,
297556,2022-12-06_06h29.32.188,vts_reward_expectancy_bt,2022.2.4,MacIntel,120.0048002,Chrome,1728,1117,,,l,0.8672,10,480,2,1,8,20,4,1,0,1,0,0,0,0,1,0,circle,hexagon,,,,,,,,,,,,,,,,,,,,,,,,,,,,,,,,,,,,,,,,,,,,,,,,,,,,,,
297556,2022-12-06_06h29.32.188,vts_reward_expectancy_bt,2022.2.4,MacIntel,120.0048002,Chrome,1728,1117,,,a,1.5588,1,481,2,1,9,21,2,1,1,0,0,0,0,0,0,1,triangle,star,,,,,,,,,,,,,,,,,,,,,,,,,,,,,,,,,,,,,,,,,,,,,,,,,,,,,,
297556,2022-12-06_06h29.32.188,vts_reward_expectancy_bt,2022.2.4,MacIntel,120.0048002,Chrome,1728,1117,,,l,0.9404,10,491,2,1,10,22,0,1,1,0,0,0,0,1,0,0,triangle,circle,,,,,,,,,,,,,,,,,,,,,,,,,,,,,,,,,,,,,,,,,,,,,,,,,,,,,,
297556,2022-12-06_06h29.32.188,vts_reward_expectancy_bt,2022.2.4,MacIntel,120.0048002,Chrome,1728,1117,,,l,1.3943,1,492,2,1,11,23,11,1,0,0,0,1,0,0,1,0,star,hexagon,,,,,,,,,,,,,,,,,,,,,,,,,,,,,,,,,,,,,,,,,,,,,,,,,,,,,,
297556,2022-12-06_06h29.32.188,vts_reward_expectancy_bt,2022.2.4,MacIntel,120.0048002,Chrome,1728,1117,,,l,1.038,1,493,2,2,0,24,7,1,0,0,1,0,0,1,0,0,hexagon,circle,,,,,,,,,,,,,,,,,,,,,,,,,,,,,,,,,,,,,,,,,,,,,,,,,,,,,,
297556,2022-12-06_06h29.32.188,vts_reward_expectancy_bt,2022.2.4,MacIntel,120.0048002,Chrome,1728,1117,,,a,1.0088,1,494,2,2,1,25,1,1,1,0,0,0,0,0,1,0,triangle,hexagon,,,,,,,,,,,,,,,,,,,,,,,,,,,,,,,,,,,,,,,,,,,,,,,,,,,,,,
297556,2022-12-06_06h29.32.188,vts_reward_expectancy_bt,2022.2.4,MacIntel,120.0048002,Chrome,1728,1117,,,l,0.7295,10,504,2,2,2,26,0,1,1,0,0,0,0,1,0,0,triangle,circle,,,,,,,,,,,,,,,,,,,,,,,,,,,,,,,,,,,,,,,,,,,,,,,,,,,,,,
297556,2022-12-06_06h29.32.188,vts_reward_expectancy_bt,2022.2.4,MacIntel,120.0048002,Chrome,1728,1117,,,l,1.378,1,505,2,2,3,27,9,1,0,0,0,1,1,0,0,0,star,triangle,,,,,,,,,,,,,,,,,,,,,,,,,,,,,,,,,,,,,,,,,,,,,,,,,,,,,,
297556,2022-12-06_06h29.32.188,vts_reward_expectancy_bt,2022.2.4,MacIntel,120.0048002,Chrome,1728,1117,,,a,0.8458,1,506,2,2,4,28,5,1,0,1,0,0,0,0,0,1,circle,star,,,,,,,,,,,,,,,,,,,,,,,,,,,,,,,,,,,,,,,,,,,,,,,,,,,,,,
297556,2022-12-06_06h29.32.188,vts_reward_expectancy_bt,2022.2.4,MacIntel,120.0048002,Chrome,1728,1117,,,a,0.6699,10,516,2,2,5,29,4,1,0,1,0,0,0,0,1,0,circle,hexagon,,,,,,,,,,,,,,,,,,,,,,,,,,,,,,,,,,,,,,,,,,,,,,,,,,,,,,
297556,2022-12-06_06h29.32.188,vts_reward_expectancy_bt,2022.2.4,MacIntel,120.0048002,Chrome,1728,1117,,,l,0.977,10,526,2,2,6,30,2,1,1,0,0,0,0,0,0,1,triangle,star,,,,,,,,,,,,,,,,,,,,,,,,,,,,,,,,,,,,,,,,,,,,,,,,,,,,,,
297556,2022-12-06_06h29.32.188,vts_reward_expectancy_bt,2022.2.4,MacIntel,120.0048002,Chrome,1728,1117,,,l,1.7665,10,536,2,2,7,31,8,1,0,0,1,0,0,0,0,1,hexagon,star,,,,,,,,,,,,,,,,,,,,,,,,,,,,,,,,,,,,,,,,,,,,,,,,,,,,,,
297556,2022-12-06_06h29.32.188,vts_reward_expectancy_bt,2022.2.4,MacIntel,120.0048002,Chrome,1728,1117,,,l,4.0065,1,537,2,2,8,32,6,1,0,0,1,0,1,0,0,0,hexagon,triangle,,,,,,,,,,,,,,,,,,,,,,,,,,,,,,,,,,,,,,,,,,,,,,,,,,,,,,
297556,2022-12-06_06h29.32.188,vts_reward_expectancy_bt,2022.2.4,MacIntel,120.0048002,Chrome,1728,1117,,,a,1.4203,10,547,2,2,9,33,11,1,0,0,0,1,0,0,1,0,star,hexagon,,,,,,,,,,,,,,,,,,,,,,,,,,,,,,,,,,,,,,,,,,,,,,,,,,,,,,
297556,2022-12-06_06h29.32.188,vts_reward_expectancy_bt,2022.2.4,MacIntel,120.0048002,Chrome,1728,1117,,,l,0.8614,1,548,2,2,10,34,10,1,0,0,0,1,0,1,0,0,star ,circle,,,,,,,,,,,,,,,,,,,,,,,,,,,,,,,,,,,,,,,,,,,,,,,,,,,,,,
297556,2022-12-06_06h29.32.188,vts_reward_expectancy_bt,2022.2.4,MacIntel,120.0048002,Chrome,1728,1117,,,a,1.1163,10,558,2,2,11,35,3,1,0,1,0,0,1,0,0,0,circle,triangle,,,,,,,,,,,,,,,,,,,,,,,,,,,,,,,,,,,,,,,,,,,,,,,,,,,,,,
297556,2022-12-06_06h29.32.188,vts_reward_expectancy_bt,2022.2.4,MacIntel,120.0048002,Chrome,1728,1117,,,,,,,,,,,,,,,,,,,,,,,D,125,triangle,1,0,d,1.8998,0,0,0,0,0,1,,,,,,,,,,,,,,,,,,,,,,,,,,,,,,,,,,,,,,,,,
297556,2022-12-06_06h29.32.188,vts_reward_expectancy_bt,2022.2.4,MacIntel,120.0048002,Chrome,1728,1117,,,,,,,,,,,,,,,,,,,,,,,B,132,star,1,0,d,0.7386,0,1,0,1,0,1,,,,,,,,,,,,,,,,,,,,,,,,,,,,,,,,,,,,,,,,,
297556,2022-12-06_06h29.32.188,vts_reward_expectancy_bt,2022.2.4,MacIntel,120.0048002,Chrome,1728,1117,,,,,,,,,,,,,,,,,,,,,,,U,167,circle,1,0,f,1.4496,0,2,0,2,0,1,,,,,,,,,,,,,,,,,,,,,,,,,,,,,,,,,,,,,,,,,
297556,2022-12-06_06h29.32.188,vts_reward_expectancy_bt,2022.2.4,MacIntel,120.0048002,Chrome,1728,1117,,,,,,,,,,,,,,,,,,,,,,,W,146,hexagon,1,0,f,1.4146,0,3,0,3,0,1,,,,,,,,,,,,,,,,,,,,,,,,,,,,,,,,,,,,,,,,,
297556,2022-12-06_06h29.32.188,vts_reward_expectancy_bt,2022.2.4,MacIntel,120.0048002,Chrome,1728,1117,,,,,,,,,,,,,,,,,,,,,,,S,160,triangle,1,0,f,0.6384,0,4,0,4,0,1,,,,,,,,,,,,,,,,,,,,,,,,,,,,,,,,,,,,,,,,,
297556,2022-12-06_06h29.32.188,vts_reward_expectancy_bt,2022.2.4,MacIntel,120.0048002,Chrome,1728,1117,,,,,,,,,,,,,,,,,,,,,,,F,139,star,1,0,d,2.3942,0,5,0,5,0,1,,,,,,,,,,,,,,,,,,,,,,,,,,,,,,,,,,,,,,,,,
297556,2022-12-06_06h29.32.188,vts_reward_expectancy_bt,2022.2.4,MacIntel,120.0048002,Chrome,1728,1117,,,,,,,,,,,,,,,,,,,,,,,H,181,circle,1,0,d,1.5319,0,6,0,6,0,1,,,,,,,,,,,,,,,,,,,,,,,,,,,,,,,,,,,,,,,,,
297556,2022-12-06_06h29.32.188,vts_reward_expectancy_bt,2022.2.4,MacIntel,120.0048002,Chrome,1728,1117,,,,,,,,,,,,,,,,,,,,,,,Y,174,hexagon,1,0,f,0.671,0,7,0,7,0,1,,,,,,,,,,,,,,,,,,,,,,,,,,,,,,,,,,,,,,,,,
297556,2022-12-06_06h29.32.188,vts_reward_expectancy_bt,2022.2.4,MacIntel,120.0048002,Chrome,1728,1117,,,,,,,,,,,,,,,,,,,,,,,D,125,star,1,0,d,0.6788,0,8,0,8,0,1,,,,,,,,,,,,,,,,,,,,,,,,,,,,,,,,,,,,,,,,,
297556,2022-12-06_06h29.32.188,vts_reward_expectancy_bt,2022.2.4,MacIntel,120.0048002,Chrome,1728,1117,,,,,,,,,,,,,,,,,,,,,,,B,132,triangle,1,0,d,1.0233,0,9,0,9,0,1,,,,,,,,,,,,,,,,,,,,,,,,,,,,,,,,,,,,,,,,,
297556,2022-12-06_06h29.32.188,vts_reward_expectancy_bt,2022.2.4,MacIntel,120.0048002,Chrome,1728,1117,,,,,,,,,,,,,,,,,,,,,,,W,146,circle,1,0,,,1,,,,,,j,1.0347,0,0,0,0,1,,,,,,,,,,,,,,,,,,,,,,,,,,,,,,,,,,
297556,2022-12-06_06h29.32.188,vts_reward_expectancy_bt,2022.2.4,MacIntel,120.0048002,Chrome,1728,1117,,,,,,,,,,,,,,,,,,,,,,,S,167,triangle,1,0,,,1,,,,,,k,0.4706,1,0,1,0,1,,,,,,,,,,,,,,,,,,,,,,,,,,,,,,,,,,
297556,2022-12-06_06h29.32.188,vts_reward_expectancy_bt,2022.2.4,MacIntel,120.0048002,Chrome,1728,1117,,,,,,,,,,,,,,,,,,,,,,,H,132,hexagon,1,0,,,1,,,,,,j,0.4443,2,0,2,0,1,,,,,,,,,,,,,,,,,,,,,,,,,,,,,,,,,,
297556,2022-12-06_06h29.32.188,vts_reward_expectancy_bt,2022.2.4,MacIntel,120.0048002,Chrome,1728,1117,,,,,,,,,,,,,,,,,,,,,,,F,125,star,1,0,,,1,,,,,,j,0.5277,3,0,3,0,1,,,,,,,,,,,,,,,,,,,,,,,,,,,,,,,,,,
297556,2022-12-06_06h29.32.188,vts_reward_expectancy_bt,2022.2.4,MacIntel,120.0048002,Chrome,1728,1117,,,,,,,,,,,,,,,,,,,,,,,B,160,circle,1,0,,,1,,,,,,k,0.6293,4,0,4,0,1,,,,,,,,,,,,,,,,,,,,,,,,,,,,,,,,,,
297556,2022-12-06_06h29.32.188,vts_reward_expectancy_bt,2022.2.4,MacIntel,120.0048002,Chrome,1728,1117,,,,,,,,,,,,,,,,,,,,,,,U,181,triangle,1,0,,,1,,,,,,k,0.7859,5,0,5,0,1,,,,,,,,,,,,,,,,,,,,,,,,,,,,,,,,,,
297556,2022-12-06_06h29.32.188,vts_reward_expectancy_bt,2022.2.4,MacIntel,120.0048002,Chrome,1728,1117,,,,,,,,,,,,,,,,,,,,,,,D,174,hexagon,1,0,,,1,,,,,,k,0.7024,6,0,6,0,1,,,,,,,,,,,,,,,,,,,,,,,,,,,,,,,,,,
297556,2022-12-06_06h29.32.188,vts_reward_expectancy_bt,2022.2.4,MacIntel,120.0048002,Chrome,1728,1117,,,,,,,,,,,,,,,,,,,,,,,Y,139,star,1,0,,,1,,,,,,j,0.596,7,0,7,0,1,,,,,,,,,,,,,,,,,,,,,,,,,,,,,,,,,,
297556,2022-12-06_06h29.32.188,vts_reward_expectancy_bt,2022.2.4,MacIntel,120.0048002,Chrome,1728,1117,,,,,,,,,,,,,,,,,,,,,,,W,146,circle,1,0,,,1,,,,,,j,1.4408,8,0,8,0,1,,,,,,,,,,,,,,,,,,,,,,,,,,,,,,,,,,
297556,2022-12-06_06h29.32.188,vts_reward_expectancy_bt,2022.2.4,MacIntel,120.0048002,Chrome,1728,1117,,,,,,,,,,,,,,,,,,,,,,,S,167,star,1,0,,,1,,,,,,k,0.5814,9,0,9,0,1,,,,,,,,,,,,,,,,,,,,,,,,,,,,,,,,,,
297556,2022-12-06_06h29.32.188,vts_reward_expectancy_bt,2022.2.4,MacIntel,120.0048002,Chrome,1728,1117,,,,,0,558,,,,,,,,,,,,,,,,,F,139,star,1,0,,,2,,,,,,,,,,,,,-1,number,NA,j,2.3262,vtsPrac,0,0,0,0,1,,,,,,,,,,,,,,,,,,,,,,,
297556,2022-12-06_06h29.32.188,vts_reward_expectancy_bt,2022.2.4,MacIntel,120.0048002,Chrome,1728,1117,,,,,0,558,,,,,,,,,,,,,,,,,B,132,triangle,1,0,,,2,,,,,,,,,,,,,repeat,number,numRpt,j,1.0047,vtsPrac,1,0,1,0,1,,,,,,,,,,,,,,,,,,,,,,,
297556,2022-12-06_06h29.32.188,vts_reward_expectancy_bt,2022.2.4,MacIntel,120.0048002,Chrome,1728,1117,,,,,0,558,,,,,,,,,,,,,,,,,W,181,star,1,0,,,2,,,,,,,,,,,,,repeat,number,numRpt,k,0.6194,vtsPrac,2,0,2,0,1,,,,,,,,,,,,,,,,,,,,,,,
297556,2022-12-06_06h29.32.188,vts_reward_expectancy_bt,2022.2.4,MacIntel,120.0048002,Chrome,1728,1117,,,,,0,558,,,,,,,,,,,,,,,,,S,160,triangle,1,0,,,2,,,,,,,,,,,,,repeat,number,numRpt,k,0.7566,vtsPrac,3,0,3,0,1,,,,,,,,,,,,,,,,,,,,,,,
297556,2022-12-06_06h29.32.188,vts_reward_expectancy_bt,2022.2.4,MacIntel,120.0048002,Chrome,1728,1117,,,,,0,558,,,,,,,,,,,,,,,,,F,139,circle,1,0,,,2,,,,,,,,,,,,,repeat,number,numRpt,j,1.4667,vtsPrac,4,0,4,0,1,,,,,,,,,,,,,,,,,,,,,,,
297556,2022-12-06_06h29.32.188,vts_reward_expectancy_bt,2022.2.4,MacIntel,120.0048002,Chrome,1728,1117,,,,,0,558,,,,,,,,,,,,,,,,,B,132,star,1,0,,,2,,,,,,,,,,,,,repeat,number,numRpt,j,0.6809,vtsPrac,5,0,5,0,1,,,,,,,,,,,,,,,,,,,,,,,
297556,2022-12-06_06h29.32.188,vts_reward_expectancy_bt,2022.2.4,MacIntel,120.0048002,Chrome,1728,1117,,,,,0,558,,,,,,,,,,,,,,,,,W,181,hexagon,1,0,,,2,,,,,,,,,,,,,repeat,number,numRpt,k,0.7229,vtsPrac,6,0,6,0,1,,,,,,,,,,,,,,,,,,,,,,,
297556,2022-12-06_06h29.32.188,vts_reward_expectancy_bt,2022.2.4,MacIntel,120.0048002,Chrome,1728,1117,,,,,0,558,,,,,,,,,,,,,,,,,S,160,triangle,1,0,,,2,,,,,,,,,,,,,repeat,number,numRpt,k,0.5612,vtsPrac,7,0,7,0,1,,,,,,,,,,,,,,,,,,,,,,,
297556,2022-12-06_06h29.32.188,vts_reward_expectancy_bt,2022.2.4,MacIntel,120.0048002,Chrome,1728,1117,,,,,0,558,,,,,,,,,,,,,,,,,Y,146,star,1,0,,,2,,,,,,,,,,,,,repeat,number,numRpt,j,1.1701,vtsPrac,8,0,8,0,1,,,,,,,,,,,,,,,,,,,,,,,
297556,2022-12-06_06h29.32.188,vts_reward_expectancy_bt,2022.2.4,MacIntel,120.0048002,Chrome,1728,1117,,,,,0,558,,,,,,,,,,,,,,,,,B,125,triangle,1,0,,,2,,,,,,,,,,,,,repeat,number,numRpt,j,0.5054,vtsPrac,9,0,9,0,1,,,,,,,,,,,,,,,,,,,,,,,
297556,2022-12-06_06h29.32.188,vts_reward_expectancy_bt,2022.2.4,MacIntel,120.0048002,Chrome,1728,1117,,,,,0,558,,,,,,,,,,,,,,,,,W,181,triangle,1,0,,,2,,,,,,,,,,,,,repeat,number,numRpt,k,0.4601,vtsPrac,10,0,10,0,1,,,,,,,,,,,,,,,,,,,,,,,
297556,2022-12-06_06h29.32.188,vts_reward_expectancy_bt,2022.2.4,MacIntel,120.0048002,Chrome,1728,1117,,,,,0,558,,,,,,,,,,,,,,,,,F,139,hexagon,1,0,,,2,,,,,,,,,,,,,repeat,number,numRpt,j,0.6427,vtsPrac,11,0,11,0,1,,,,,,,,,,,,,,,,,,,,,,,
297556,2022-12-06_06h29.32.188,vts_reward_expectancy_bt,2022.2.4,MacIntel,120.0048002,Chrome,1728,1117,,,,,0,558,,,,,,,,,,,,,,,,,D,146,triangle,1,0,,,2,,,,,,,,,,,,,repeat,number,numRpt,j,1.0215,vtsPrac,12,0,12,0,1,,,,,,,,,,,,,,,,,,,,,,,
297556,2022-12-06_06h29.32.188,vts_reward_expectancy_bt,2022.2.4,MacIntel,120.0048002,Chrome,1728,1117,,,,,0,558,,,,,,,,,,,,,,,,,W,160,circle,1,0,,,2,,,,,,,,,,,,,repeat,number,numRpt,k,0.6538,vtsPrac,13,0,13,0,1,,,,,,,,,,,,,,,,,,,,,,,
297556,2022-12-06_06h29.32.188,vts_reward_expectancy_bt,2022.2.4,MacIntel,120.0048002,Chrome,1728,1117,,,,,0,558,,,,,,,,,,,,,,,,,S,132,hexagon,1,0,,,2,,,,,,,,,,,,,repeat,number,numRpt,j,0.7258,vtsPrac,14,0,14,0,1,,,,,,,,,,,,,,,,,,,,,,,
297556,2022-12-06_06h29.32.188,vts_reward_expectancy_bt,2022.2.4,MacIntel,120.0048002,Chrome,1728,1117,,,,,0,558,,,,,,,,,,,,,,,,,H,174,star,1,0,,,2,,,,,,,,,,,,,repeat,number,numRpt,k,0.4866,vtsPrac,15,0,15,0,1,,,,,,,,,,,,,,,,,,,,,,,
297556,2022-12-06_06h29.32.188,vts_reward_expectancy_bt,2022.2.4,MacIntel,120.0048002,Chrome,1728,1117,,,,,0,558,,,,,,,,,,,,,,,,,Y,125,hexagon,1,0,,,2,,,,,,,,,,,,,repeat,number,numRpt,j,0.5656,vtsPrac,16,0,16,0,1,,,,,,,,,,,,,,,,,,,,,,,
297556,2022-12-06_06h29.32.188,vts_reward_expectancy_bt,2022.2.4,MacIntel,120.0048002,Chrome,1728,1117,,,,,0,558,,,,,,,,,,,,,,,,,U,132,circle,1,0,,,2,,,,,,,,,,,,,repeat,number,numRpt,j,0.7529,vtsPrac,17,0,17,0,1,,,,,,,,,,,,,,,,,,,,,,,
297556,2022-12-06_06h29.32.188,vts_reward_expectancy_bt,2022.2.4,MacIntel,120.0048002,Chrome,1728,1117,,,,,0,558,,,,,,,,,,,,,,,,,B,160,circle,1,0,,,2,,,,,,,,,,,,,repeat,number,numRpt,k,0.6713,vtsPrac,18,0,18,0,1,,,,,,,,,,,,,,,,,,,,,,,
297556,2022-12-06_06h29.32.188,vts_reward_expectancy_bt,2022.2.4,MacIntel,120.0048002,Chrome,1728,1117,,,,,0,558,,,,,,,,,,,,,,,,,F,181,hexagon,0,0,,,2,,,,,,,,,,,,,repeat,number,NA,j,0.5711,vtsPrac,19,0,19,0,1,,,,,,,,,,,,,,,,,,,,,,,
297556,2022-12-06_06h29.32.188,vts_reward_expectancy_bt,2022.2.4,MacIntel,120.0048002,Chrome,1728,1117,,,,,0,558,,,,,,,,,,,,,,,,,Y,181,star,1,1,,,2,,,,,,,,,,,,,repeat,number,numRpt,k,0.5011,vtsPrac,20,0,20,0,1,,,,,,,,,,,,,,,,,,,,,,,
297556,2022-12-06_06h29.32.188,vts_reward_expectancy_bt,2022.2.4,MacIntel,120.0048002,Chrome,1728,1117,,,,,0,558,,,,,,,,,,,,,,,,,H,160,hexagon,1,0,,,2,,,,,,,,,,,,,repeat,number,numRpt,k,0.5565,vtsPrac,21,0,21,0,1,,,,,,,,,,,,,,,,,,,,,,,
297556,2022-12-06_06h29.32.188,vts_reward_expectancy_bt,2022.2.4,MacIntel,120.0048002,Chrome,1728,1117,,,,,0,558,,,,,,,,,,,,,,,,,W,139,hexagon,1,0,,,2,,,,,,,,,,,,,repeat,number,numRpt,j,0.6968,vtsPrac,22,0,22,0,1,,,,,,,,,,,,,,,,,,,,,,,
297556,2022-12-06_06h29.32.188,vts_reward_expectancy_bt,2022.2.4,MacIntel,120.0048002,Chrome,1728,1117,,,,,0,558,,,,,,,,,,,,,,,,,B,174,star,1,0,,,2,,,,,,,,,,,,,repeat,number,numRpt,k,0.4726,vtsPrac,23,0,23,0,1,,,,,,,,,,,,,,,,,,,,,,,
297556,2022-12-06_06h29.32.188,vts_reward_expectancy_bt,2022.2.4,MacIntel,120.0048002,Chrome,1728,1117,,,,,0,558,,,,,,,,,,,,,,,,,D,132,triangle,1,0,,,2,,,,,,,,,,,,,repeat,number,numRpt,j,0.5975,vtsPrac,24,0,24,0,1,,,,,,,,,,,,,,,,,,,,,,,
297556,2022-12-06_06h29.32.188,vts_reward_expectancy_bt,2022.2.4,MacIntel,120.0048002,Chrome,1728,1117,,,,,0,558,,,,,,,,,,,,,,,,,B,139,circle,1,0,,,2,,,,,,,,,,,,,repeat,number,numRpt,j,0.6801,vtsPrac,25,0,25,0,1,,,,,,,,,,,,,,,,,,,,,,,
297556,2022-12-06_06h29.32.188,vts_reward_expectancy_bt,2022.2.4,MacIntel,120.0048002,Chrome,1728,1117,,,,,0,558,,,,,,,,,,,,,,,,,H,146,circle,1,0,,,2,,,,,,,,,,,,,repeat,number,numRpt,j,0.9559,vtsPrac,26,0,26,0,1,,,,,,,,,,,,,,,,,,,,,,,
297556,2022-12-06_06h29.32.188,vts_reward_expectancy_bt,2022.2.4,MacIntel,120.0048002,Chrome,1728,1117,,,,,0,558,,,,,,,,,,,,,,,,,Y,167,triangle,1,0,,,2,,,,,,,,,,,,,repeat,number,numRpt,k,1.314,vtsPrac,27,0,27,0,1,,,,,,,,,,,,,,,,,,,,,,,
297556,2022-12-06_06h29.32.188,vts_reward_expectancy_bt,2022.2.4,MacIntel,120.0048002,Chrome,1728,1117,,,,,0,558,,,,,,,,,,,,,,,,,D,139,hexagon,1,0,,,2,,,,,,,,,,,,,repeat,number,numRpt,j,0.7326,vtsPrac,28,0,28,0,1,,,,,,,,,,,,,,,,,,,,,,,
297556,2022-12-06_06h29.32.188,vts_reward_expectancy_bt,2022.2.4,MacIntel,120.0048002,Chrome,1728,1117,,,,,0,558,,,,,,,,,,,,,,,,,S,174,triangle,1,0,,,2,,,,,,,,,,,,,repeat,number,numRpt,k,0.6438,vtsPrac,29,0,29,0,1,,,,,,,,,,,,,,,,,,,,,,,
297556,2022-12-06_06h29.32.188,vts_reward_expectancy_bt,2022.2.4,MacIntel,120.0048002,Chrome,1728,1117,,,,,0,558,,,,,,,,,,,,,,,,,U,181,star,1,0,,,2,,,,,,,,,,,,,repeat,number,numRpt,k,0.6382,vtsPrac,30,0,30,0,1,,,,,,,,,,,,,,,,,,,,,,,
297556,2022-12-06_06h29.32.188,vts_reward_expectancy_bt,2022.2.4,MacIntel,120.0048002,Chrome,1728,1117,,,,,0,558,,,,,,,,,,,,,,,,,B,167,hexagon,1,0,,,2,,,,,,,,,,,,,repeat,number,numRpt,k,0.5982,vtsPrac,31,0,31,0,1,,,,,,,,,,,,,,,,,,,,,,,
297556,2022-12-06_06h29.32.188,vts_reward_expectancy_bt,2022.2.4,MacIntel,120.0048002,Chrome,1728,1117,,,,,0,558,,,,,,,,,,,,,,,,,H,139,star,1,0,,,3,,,,,,,,,,,,,switch,letter,lettSwt,d,1.9208,vtsPrac,0,0,0,0,1,,,,,,,,,,,,,,,,,,,,,,,
297556,2022-12-06_06h29.32.188,vts_reward_expectancy_bt,2022.2.4,MacIntel,120.0048002,Chrome,1728,1117,,,,,0,558,,,,,,,,,,,,,,,,,D,132,hexagon,0,0,,,3,,,,,,,,,,,,,switch,number,NA,k,0.5455,vtsPrac,1,0,1,0,1,,,,,,,,,,,,,,,,,,,,,,,
297556,2022-12-06_06h29.32.188,vts_reward_expectancy_bt,2022.2.4,MacIntel,120.0048002,Chrome,1728,1117,,,,,0,558,,,,,,,,,,,,,,,,,F,125,star,1,1,,,3,,,,,,,,,,,,,switch,letter,lettSwt,d,2.6387,vtsPrac,2,0,2,0,1,,,,,,,,,,,,,,,,,,,,,,,
297556,2022-12-06_06h29.32.188,vts_reward_expectancy_bt,2022.2.4,MacIntel,120.0048002,Chrome,1728,1117,,,,,0,558,,,,,,,,,,,,,,,,,S,181,hexagon,1,0,,,3,,,,,,,,,,,,,switch,number,numSwt,k,0.9358,vtsPrac,3,0,3,0,1,,,,,,,,,,,,,,,,,,,,,,,
297556,2022-12-06_06h29.32.188,vts_reward_expectancy_bt,2022.2.4,MacIntel,120.0048002,Chrome,1728,1117,,,,,0,558,,,,,,,,,,,,,,,,,H,139,circle,1,0,,,3,,,,,,,,,,,,,switch,letter,lettSwt,d,1.0941,vtsPrac,4,0,4,0,1,,,,,,,,,,,,,,,,,,,,,,,
297556,2022-12-06_06h29.32.188,vts_reward_expectancy_bt,2022.2.4,MacIntel,120.0048002,Chrome,1728,1117,,,,,0,558,,,,,,,,,,,,,,,,,D,132,hexagon,1,0,,,3,,,,,,,,,,,,,switch,number,numSwt,j,0.8252,vtsPrac,5,0,5,0,1,,,,,,,,,,,,,,,,,,,,,,,
297556,2022-12-06_06h29.32.188,vts_reward_expectancy_bt,2022.2.4,MacIntel,120.0048002,Chrome,1728,1117,,,,,0,558,,,,,,,,,,,,,,,,,F,125,star,-1,0,,,3,,,,,,,,,,,,,switch,no_choice,NA,,,vtsPrac,6,0,6,0,1,,,,,,,,,,,,,,,,,,,,,,,
297556,2022-12-06_06h29.32.188,vts_reward_expectancy_bt,2022.2.4,MacIntel,120.0048002,Chrome,1728,1117,,,,,0,558,,,,,,,,,,,,,,,,,S,181,hexagon,1,0,,,3,,,,,,,,,,,,,switch,letter,lettSwt,f,0.7358,vtsPrac,7,0,7,0,1,,,,,,,,,,,,,,,,,,,,,,,
297556,2022-12-06_06h29.32.188,vts_reward_expectancy_bt,2022.2.4,MacIntel,120.0048002,Chrome,1728,1117,,,,,0,558,,,,,,,,,,,,,,,,,W,167,hexagon,1,0,,,3,,,,,,,,,,,,,repeat,letter,lettRpt,f,0.9318,vtsPrac,8,0,8,0,1,,,,,,,,,,,,,,,,,,,,,,,
297556,2022-12-06_06h29.32.188,vts_reward_expectancy_bt,2022.2.4,MacIntel,120.0048002,Chrome,1728,1117,,,,,0,558,,,,,,,,,,,,,,,,,B,125,triangle,1,0,,,3,,,,,,,,,,,,,switch,number,numSwt,j,0.7055,vtsPrac,9,0,9,0,1,,,,,,,,,,,,,,,,,,,,,,,
297556,2022-12-06_06h29.32.188,vts_reward_expectancy_bt,2022.2.4,MacIntel,120.0048002,Chrome,1728,1117,,,,,0,558,,,,,,,,,,,,,,,,,D,174,hexagon,1,0,,,3,,,,,,,,,,,,,repeat,number,numRpt,k,0.6079,vtsPrac,10,0,10,0,1,,,,,,,,,,,,,,,,,,,,,,,
297556,2022-12-06_06h29.32.188,vts_reward_expectancy_bt,2022.2.4,MacIntel,120.0048002,Chrome,1728,1117,,,,,0,558,,,,,,,,,,,,,,,,,Y,146,circle,1,0,,,3,,,,,,,,,,,,,switch,letter,lettSwt,f,0.7724,vtsPrac,11,0,11,0,1,,,,,,,,,,,,,,,,,,,,,,,
297556,2022-12-06_06h29.32.188,vts_reward_expectancy_bt,2022.2.4,MacIntel,120.0048002,Chrome,1728,1117,,,,,0,558,,,,,,,,,,,,,,,,,H,167,hexagon,1,0,,,3,,,,,,,,,,,,,switch,number,numSwt,k,0.7041,vtsPrac,12,0,12,0,1,,,,,,,,,,,,,,,,,,,,,,,
297556,2022-12-06_06h29.32.188,vts_reward_expectancy_bt,2022.2.4,MacIntel,120.0048002,Chrome,1728,1117,,,,,0,558,,,,,,,,,,,,,,,,,D,160,star,1,0,,,3,,,,,,,,,,,,,switch,letter,lettSwt,d,1.2611,vtsPrac,13,0,13,0,1,,,,,,,,,,,,,,,,,,,,,,,
297556,2022-12-06_06h29.32.188,vts_reward_expectancy_bt,2022.2.4,MacIntel,120.0048002,Chrome,1728,1117,,,,,0,558,,,,,,,,,,,,,,,,,F,181,circle,1,0,,,3,,,,,,,,,,,,,switch,number,numSwt,k,0.5949,vtsPrac,14,0,14,0,1,,,,,,,,,,,,,,,,,,,,,,,
297556,2022-12-06_06h29.32.188,vts_reward_expectancy_bt,2022.2.4,MacIntel,120.0048002,Chrome,1728,1117,,,,,0,558,,,,,,,,,,,,,,,,,B,139,star,1,0,,,3,,,,,,,,,,,,,switch,letter,lettSwt,d,0.5643,vtsPrac,15,0,15,0,1,,,,,,,,,,,,,,,,,,,,,,,
297556,2022-12-06_06h29.32.188,vts_reward_expectancy_bt,2022.2.4,MacIntel,120.0048002,Chrome,1728,1117,,,,,0,558,,,,,,,,,,,,,,,,,H,160,triangle,1,0,,,3,,,,,,,,,,,,,switch,number,numSwt,k,0.6929,vtsPrac,16,0,16,0,1,,,,,,,,,,,,,,,,,,,,,,,
297556,2022-12-06_06h29.32.188,vts_reward_expectancy_bt,2022.2.4,MacIntel,120.0048002,Chrome,1728,1117,,,,,0,558,,,,,,,,,,,,,,,,,W,132,circle,1,0,,,3,,,,,,,,,,,,,switch,letter,lettSwt,f,0.6743,vtsPrac,17,0,17,0,1,,,,,,,,,,,,,,,,,,,,,,,
297556,2022-12-06_06h29.32.188,vts_reward_expectancy_bt,2022.2.4,MacIntel,120.0048002,Chrome,1728,1117,,,,,0,558,,,,,,,,,,,,,,,,,F,167,hexagon,1,0,,,3,,,,,,,,,,,,,switch,number,numSwt,k,0.82,vtsPrac,18,0,18,0,1,,,,,,,,,,,,,,,,,,,,,,,
297556,2022-12-06_06h29.32.188,vts_reward_expectancy_bt,2022.2.4,MacIntel,120.0048002,Chrome,1728,1117,,,,,0,558,,,,,,,,,,,,,,,,,U,174,star,1,0,,,3,,,,,,,,,,,,,switch,letter,lettSwt,f,0.6339,vtsPrac,19,0,19,0,1,,,,,,,,,,,,,,,,,,,,,,,
297556,2022-12-06_06h29.32.188,vts_reward_expectancy_bt,2022.2.4,MacIntel,120.0048002,Chrome,1728,1117,,,,,0,558,,,,,,,,,,,,,,,,,W,174,triangle,1,0,,,3,,,,,,,,,,,,,switch,number,numSwt,k,0.5986,vtsPrac,20,0,20,0,1,,,,,,,,,,,,,,,,,,,,,,,
297556,2022-12-06_06h29.32.188,vts_reward_expectancy_bt,2022.2.4,MacIntel,120.0048002,Chrome,1728,1117,,,,,0,558,,,,,,,,,,,,,,,,,B,167,circle,1,0,,,3,,,,,,,,,,,,,repeat,number,numRpt,k,0.5876,vtsPrac,21,0,21,0,1,,,,,,,,,,,,,,,,,,,,,,,
297556,2022-12-06_06h29.32.188,vts_reward_expectancy_bt,2022.2.4,MacIntel,120.0048002,Chrome,1728,1117,,,,,0,558,,,,,,,,,,,,,,,,,Y,132,star,1,0,,,3,,,,,,,,,,,,,switch,letter,lettSwt,f,0.7716,vtsPrac,22,0,22,0,1,,,,,,,,,,,,,,,,,,,,,,,
297556,2022-12-06_06h29.32.188,vts_reward_expectancy_bt,2022.2.4,MacIntel,120.0048002,Chrome,1728,1117,,,,,0,558,,,,,,,,,,,,,,,,,S,160,triangle,1,0,,,3,,,,,,,,,,,,,repeat,letter,lettRpt,f,0.66,vtsPrac,23,0,23,0,1,,,,,,,,,,,,,,,,,,,,,,,
297556,2022-12-06_06h29.32.188,vts_reward_expectancy_bt,2022.2.4,MacIntel,120.0048002,Chrome,1728,1117,,,,,0,558,,,,,,,,,,,,,,,,,B,146,hexagon,1,0,,,3,,,,,,,,,,,,,switch,number,numSwt,j,0.811,vtsPrac,24,0,24,0,1,,,,,,,,,,,,,,,,,,,,,,,
297556,2022-12-06_06h29.32.188,vts_reward_expectancy_bt,2022.2.4,MacIntel,120.0048002,Chrome,1728,1117,,,,,0,558,,,,,,,,,,,,,,,,,H,167,star,1,0,,,3,,,,,,,,,,,,,repeat,number,numRpt,k,0.6175,vtsPrac,25,0,25,0,1,,,,,,,,,,,,,,,,,,,,,,,
297556,2022-12-06_06h29.32.188,vts_reward_expectancy_bt,2022.2.4,MacIntel,120.0048002,Chrome,1728,1117,,,,,0,558,,,,,,,,,,,,,,,,,D,174,circle,1,0,,,3,,,,,,,,,,,,,switch,letter,lettSwt,d,0.6453,vtsPrac,26,0,26,0,1,,,,,,,,,,,,,,,,,,,,,,,
297556,2022-12-06_06h29.32.188,vts_reward_expectancy_bt,2022.2.4,MacIntel,120.0048002,Chrome,1728,1117,,,,,0,558,,,,,,,,,,,,,,,,,F,160,star,1,0,,,3,,,,,,,,,,,,,switch,number,numSwt,k,0.6107,vtsPrac,27,0,27,0,1,,,,,,,,,,,,,,,,,,,,,,,
297556,2022-12-06_06h29.32.188,vts_reward_expectancy_bt,2022.2.4,MacIntel,120.0048002,Chrome,1728,1117,,,,,0,558,,,,,,,,,,,,,,,,,B,167,hexagon,1,0,,,3,,,,,,,,,,,,,switch,letter,lettSwt,d,0.5284,vtsPrac,28,0,28,0,1,,,,,,,,,,,,,,,,,,,,,,,
297556,2022-12-06_06h29.32.188,vts_reward_expectancy_bt,2022.2.4,MacIntel,120.0048002,Chrome,1728,1117,,,,,0,558,,,,,,,,,,,,,,,,,S,160,triangle,1,0,,,3,,,,,,,,,,,,,switch,number,numSwt,k,0.5394,vtsPrac,29,0,29,0,1,,,,,,,,,,,,,,,,,,,,,,,
297556,2022-12-06_06h29.32.188,vts_reward_expectancy_bt,2022.2.4,MacIntel,120.0048002,Chrome,1728,1117,,,,,0,558,,,,,,,,,,,,,,,,,H,125,circle,1,0,,,3,,,,,,,,,,,,,switch,letter,lettSwt,d,1.0206,vtsPrac,30,0,30,0,1,,,,,,,,,,,,,,,,,,,,,,,
297556,2022-12-06_06h29.32.188,vts_reward_expectancy_bt,2022.2.4,MacIntel,120.0048002,Chrome,1728,1117,,,,,0,558,,,,,,,,,,,,,,,,,U,132,hexagon,1,0,,,3,,,,,,,,,,,,,repeat,letter,lettRpt,f,0.6851,vtsPrac,31,0,31,0,1,,,,,,,,,,,,,,,,,,,,,,,
297556,2022-12-06_06h29.32.188,vts_reward_expectancy_bt,2022.2.4,MacIntel,120.0048002,Chrome,1728,1117,,,,,0,558,,,,,,,,,,,,,,,,,S,167,star,0,0,,,4,,,,,,,,,,,,,repeat,letter,NA,d,0.7123,vtsPrac,0,0,0,0,1,,,,,,,,,,,,,,,,,,,,,,,
297556,2022-12-06_06h29.32.188,vts_reward_expectancy_bt,2022.2.4,MacIntel,120.0048002,Chrome,1728,1117,,,,,0,558,,,,,,,,,,,,,,,,,B,139,hexagon,1,1,,,4,,,,,,,,,,,,,switch,number,numSwt,j,1.0791,vtsPrac,1,0,1,0,1,,,,,,,,,,,,,,,,,,,,,,,
297556,2022-12-06_06h29.32.188,vts_reward_expectancy_bt,2022.2.4,MacIntel,120.0048002,Chrome,1728,1117,,,,,0,558,,,,,,,,,,,,,,,,,W,160,star,1,0,,,4,,,,,,,,,,,,,switch,letter,lettSwt,f,0.8029,vtsPrac,2,0,2,0,1,,,,,,,,,,,,,,,,,,,,,,,
297556,2022-12-06_06h29.32.188,vts_reward_expectancy_bt,2022.2.4,MacIntel,120.0048002,Chrome,1728,1117,,,,,0,558,,,,,,,,,,,,,,,,,U,125,hexagon,1,0,,,4,,,,,,,,,,,,,switch,number,numSwt,j,1.022,vtsPrac,3,0,3,0,1,,,,,,,,,,,,,,,,,,,,,,,
297556,2022-12-06_06h29.32.188,vts_reward_expectancy_bt,2022.2.4,MacIntel,120.0048002,Chrome,1728,1117,,,,,0,558,,,,,,,,,,,,,,,,,S,167,star,1,0,,,4,,,,,,,,,,,,,switch,letter,lettSwt,f,0.6848,vtsPrac,4,0,4,0,1,,,,,,,,,,,,,,,,,,,,,,,
297556,2022-12-06_06h29.32.188,vts_reward_expectancy_bt,2022.2.4,MacIntel,120.0048002,Chrome,1728,1117,,,,,0,558,,,,,,,,,,,,,,,,,B,139,triangle,1,0,,,4,,,,,,,,,,,,,switch,number,numSwt,j,1.1875,vtsPrac,5,0,5,0,1,,,,,,,,,,,,,,,,,,,,,,,
297556,2022-12-06_06h29.32.188,vts_reward_expectancy_bt,2022.2.4,MacIntel,120.0048002,Chrome,1728,1117,,,,,0,558,,,,,,,,,,,,,,,,,W,160,triangle,1,0,,,4,,,,,,,,,,,,,repeat,number,numRpt,k,0.5602,vtsPrac,6,0,6,0,1,,,,,,,,,,,,,,,,,,,,,,,
297556,2022-12-06_06h29.32.188,vts_reward_expectancy_bt,2022.2.4,MacIntel,120.0048002,Chrome,1728,1117,,,,,0,558,,,,,,,,,,,,,,,,,U,125,circle,1,0,,,4,,,,,,,,,,,,,repeat,number,numRpt,j,1.4029,vtsPrac,7,0,7,0,1,,,,,,,,,,,,,,,,,,,,,,,
297556,2022-12-06_06h29.32.188,vts_reward_expectancy_bt,2022.2.4,MacIntel,120.0048002,Chrome,1728,1117,,,,,0,558,,,,,,,,,,,,,,,,,Y,160,hexagon,1,0,,,4,,,,,,,,,,,,,switch,letter,lettSwt,f,0.5953,vtsPrac,8,0,8,0,1,,,,,,,,,,,,,,,,,,,,,,,
297556,2022-12-06_06h29.32.188,vts_reward_expectancy_bt,2022.2.4,MacIntel,120.0048002,Chrome,1728,1117,,,,,0,558,,,,,,,,,,,,,,,,,S,167,triangle,1,0,,,4,,,,,,,,,,,,,switch,number,numSwt,k,0.7306,vtsPrac,9,0,9,0,1,,,,,,,,,,,,,,,,,,,,,,,
297556,2022-12-06_06h29.32.188,vts_reward_expectancy_bt,2022.2.4,MacIntel,120.0048002,Chrome,1728,1117,,,,,0,558,,,,,,,,,,,,,,,,,H,139,star,1,0,,,4,,,,,,,,,,,,,switch,letter,lettSwt,d,1.4551,vtsPrac,10,0,10,0,1,,,,,,,,,,,,,,,,,,,,,,,
297556,2022-12-06_06h29.32.188,vts_reward_expectancy_bt,2022.2.4,MacIntel,120.0048002,Chrome,1728,1117,,,,,0,558,,,,,,,,,,,,,,,,,W,125,circle,1,0,,,4,,,,,,,,,,,,,repeat,letter,lettRpt,f,0.5839,vtsPrac,11,0,11,0,1,,,,,,,,,,,,,,,,,,,,,,,
297556,2022-12-06_06h29.32.188,vts_reward_expectancy_bt,2022.2.4,MacIntel,120.0048002,Chrome,1728,1117,,,,,0,558,,,,,,,,,,,,,,,,,W,146,hexagon,1,0,,,4,,,,,,,,,,,,,repeat,letter,lettRpt,f,1.0527,vtsPrac,12,0,12,0,1,,,,,,,,,,,,,,,,,,,,,,,
297556,2022-12-06_06h29.32.188,vts_reward_expectancy_bt,2022.2.4,MacIntel,120.0048002,Chrome,1728,1117,,,,,0,558,,,,,,,,,,,,,,,,,Y,174,triangle,1,0,,,4,,,,,,,,,,,,,repeat,letter,lettRpt,f,0.9195,vtsPrac,13,0,13,0,1,,,,,,,,,,,,,,,,,,,,,,,
297556,2022-12-06_06h29.32.188,vts_reward_expectancy_bt,2022.2.4,MacIntel,120.0048002,Chrome,1728,1117,,,,,0,558,,,,,,,,,,,,,,,,,D,139,triangle,1,0,,,4,,,,,,,,,,,,,switch,number,numSwt,j,0.9459,vtsPrac,14,0,14,0,1,,,,,,,,,,,,,,,,,,,,,,,
297556,2022-12-06_06h29.32.188,vts_reward_expectancy_bt,2022.2.4,MacIntel,120.0048002,Chrome,1728,1117,,,,,0,558,,,,,,,,,,,,,,,,,H,125,circle,1,0,,,4,,,,,,,,,,,,,switch,letter,lettSwt,d,0.6475,vtsPrac,15,0,15,0,1,,,,,,,,,,,,,,,,,,,,,,,
297556,2022-12-06_06h29.32.188,vts_reward_expectancy_bt,2022.2.4,MacIntel,120.0048002,Chrome,1728,1117,,,,,0,558,,,,,,,,,,,,,,,,,W,160,star,1,0,,,4,,,,,,,,,,,,,switch,number,numSwt,k,1.205,vtsPrac,16,0,16,0,1,,,,,,,,,,,,,,,,,,,,,,,
297556,2022-12-06_06h29.32.188,vts_reward_expectancy_bt,2022.2.4,MacIntel,120.0048002,Chrome,1728,1117,,,,,0,558,,,,,,,,,,,,,,,,,F,132,hexagon,1,0,,,4,,,,,,,,,,,,,repeat,number,numRpt,j,1.2547,vtsPrac,17,0,17,0,1,,,,,,,,,,,,,,,,,,,,,,,
297556,2022-12-06_06h29.32.188,vts_reward_expectancy_bt,2022.2.4,MacIntel,120.0048002,Chrome,1728,1117,,,,,0,558,,,,,,,,,,,,,,,,,H,125,hexagon,1,0,,,4,,,,,,,,,,,,,repeat,number,numRpt,j,0.777,vtsPrac,18,0,18,0,1,,,,,,,,,,,,,,,,,,,,,,,
297556,2022-12-06_06h29.32.188,vts_reward_expectancy_bt,2022.2.4,MacIntel,120.0048002,Chrome,1728,1117,,,,,0,558,,,,,,,,,,,,,,,,,S,181,triangle,1,0,,,4,,,,,,,,,,,,,repeat,number,numRpt,k,1.098,vtsPrac,19,0,19,0,1,,,,,,,,,,,,,,,,,,,,,,,
297556,2022-12-06_06h29.32.188,vts_reward_expectancy_bt,2022.2.4,MacIntel,120.0048002,Chrome,1728,1117,,,,,0,558,,,,,,,,,,,,,,,,,Y,167,hexagon,1,0,,,4,,,,,,,,,,,,,switch,letter,lettSwt,f,0.8121,vtsPrac,20,0,20,0,1,,,,,,,,,,,,,,,,,,,,,,,
297556,2022-12-06_06h29.32.188,vts_reward_expectancy_bt,2022.2.4,MacIntel,120.0048002,Chrome,1728,1117,,,,,0,558,,,,,,,,,,,,,,,,,S,125,star,1,0,,,4,,,,,,,,,,,,,repeat,letter,lettRpt,f,0.805,vtsPrac,21,0,21,0,1,,,,,,,,,,,,,,,,,,,,,,,
297556,2022-12-06_06h29.32.188,vts_reward_expectancy_bt,2022.2.4,MacIntel,120.0048002,Chrome,1728,1117,,,,,0,558,,,,,,,,,,,,,,,,,B,139,hexagon,1,0,,,4,,,,,,,,,,,,,switch,number,numSwt,j,0.7051,vtsPrac,22,0,22,0,1,,,,,,,,,,,,,,,,,,,,,,,
297556,2022-12-06_06h29.32.188,vts_reward_expectancy_bt,2022.2.4,MacIntel,120.0048002,Chrome,1728,1117,,,,,0,558,,,,,,,,,,,,,,,,,U,146,star,0,0,,,4,,,,,,,,,,,,,switch,letter,NA,d,1.3312,vtsPrac,23,0,23,0,1,,,,,,,,,,,,,,,,,,,,,,,
297556,2022-12-06_06h29.32.188,vts_reward_expectancy_bt,2022.2.4,MacIntel,120.0048002,Chrome,1728,1117,,,,,0,558,,,,,,,,,,,,,,,,,W,174,triangle,1,1,,,4,,,,,,,,,,,,,repeat,letter,lettRpt,f,0.7625,vtsPrac,24,0,24,0,1,,,,,,,,,,,,,,,,,,,,,,,
297556,2022-12-06_06h29.32.188,vts_reward_expectancy_bt,2022.2.4,MacIntel,120.0048002,Chrome,1728,1117,,,,,0,558,,,,,,,,,,,,,,,,,D,125,hexagon,1,0,,,4,,,,,,,,,,,,,repeat,letter,lettRpt,d,0.5683,vtsPrac,25,0,25,0,1,,,,,,,,,,,,,,,,,,,,,,,
297556,2022-12-06_06h29.32.188,vts_reward_expectancy_bt,2022.2.4,MacIntel,120.0048002,Chrome,1728,1117,,,,,0,558,,,,,,,,,,,,,,,,,Y,132,star,1,0,,,4,,,,,,,,,,,,,repeat,letter,lettRpt,f,0.6797,vtsPrac,26,0,26,0,1,,,,,,,,,,,,,,,,,,,,,,,
297556,2022-12-06_06h29.32.188,vts_reward_expectancy_bt,2022.2.4,MacIntel,120.0048002,Chrome,1728,1117,,,,,0,558,,,,,,,,,,,,,,,,,B,181,triangle,1,0,,,4,,,,,,,,,,,,,repeat,letter,lettRpt,d,0.6638,vtsPrac,27,0,27,0,1,,,,,,,,,,,,,,,,,,,,,,,
297556,2022-12-06_06h29.32.188,vts_reward_expectancy_bt,2022.2.4,MacIntel,120.0048002,Chrome,1728,1117,,,,,0,558,,,,,,,,,,,,,,,,,H,146,triangle,1,0,,,4,,,,,,,,,,,,,switch,number,numSwt,j,0.6908,vtsPrac,28,0,28,0,1,,,,,,,,,,,,,,,,,,,,,,,
297556,2022-12-06_06h29.32.188,vts_reward_expectancy_bt,2022.2.4,MacIntel,120.0048002,Chrome,1728,1117,,,,,0,558,,,,,,,,,,,,,,,,,S,167,hexagon,1,0,,,4,,,,,,,,,,,,,repeat,number,numRpt,k,0.5198,vtsPrac,29,0,29,0,1,,,,,,,,,,,,,,,,,,,,,,,
297556,2022-12-06_06h29.32.188,vts_reward_expectancy_bt,2022.2.4,MacIntel,120.0048002,Chrome,1728,1117,,,,,0,558,,,,,,,,,,,,,,,,,Y,181,circle,1,0,,,4,,,,,,,,,,,,,repeat,number,numRpt,k,0.574,vtsPrac,30,0,30,0,1,,,,,,,,,,,,,,,,,,,,,,,
297556,2022-12-06_06h29.32.188,vts_reward_expectancy_bt,2022.2.4,MacIntel,120.0048002,Chrome,1728,1117,,,,,0,558,,,,,,,,,,,,,,,,,F,125,hexagon,1,0,,,4,,,,,,,,,,,,,repeat,number,numRpt,j,0.6768,vtsPrac,31,0,31,0,1,,,,,,,,,,,,,,,,,,,,,,,
297556,2022-12-06_06h29.32.188,vts_reward_expectancy_bt,2022.2.4,MacIntel,120.0048002,Chrome,1728,1117,,,,,,,,,,,,,,,,,,,,,,,,,,,,,,,,,,,,,,,,,,,,,,,,,,,,,,,,,,,,,,,,,,,,,,,,,,,,
297556,2022-12-06_06h29.32.188,vts_reward_expectancy_bt,2022.2.4,MacIntel,120.0048002,Chrome,1728,1117,,,,,,,,,,,,,,,,,,,,,,,,,,,,,,,,,,,,,,,,,,,,,,,,,,,,,,,,,,,,,,,,,,,,,,,,,,,,
297556,2022-12-06_06h29.32.188,vts_reward_expectancy_bt,2022.2.4,MacIntel,120.0048002,Chrome,1728,1117,,,,,0,558,,,,,,,,,,,,,,,,,U,146,star,1,0,,,,,,,,,,,,,,,,repeat,number,numRpt,j,0.6113,noRew,,,,,,0,0,0,0,0,1,,,,,,,,,,,,,,,,,
297556,2022-12-06_06h29.32.188,vts_reward_expectancy_bt,2022.2.4,MacIntel,120.0048002,Chrome,1728,1117,,,,,0,558,,,,,,,,,,,,,,,,,Y,139,circle,1,0,,,,,,,,,,,,,,,,repeat,number,numRpt,j,0.9542,noRew,,,,,,0,1,0,1,0,1,,,,,,,,,,,,,,,,,
297556,2022-12-06_06h29.32.188,vts_reward_expectancy_bt,2022.2.4,MacIntel,120.0048002,Chrome,1728,1117,,,,,0,558,,,,,,,,,,,,,,,,,F,174,star,1,0,,,,,,,,,,,,,,,,repeat,number,numRpt,k,1.0107,noRew,,,,,,0,2,0,2,0,1,,,,,,,,,,,,,,,,,
297556,2022-12-06_06h29.32.188,vts_reward_expectancy_bt,2022.2.4,MacIntel,120.0048002,Chrome,1728,1117,,,,,0,558,,,,,,,,,,,,,,,,,W,160,circle,0,0,,,,,,,,,,,,,,,,repeat,number,NA,j,0.7214,noRew,,,,,,0,3,0,3,0,1,,,,,,,,,,,,,,,,,
297556,2022-12-06_06h29.32.188,vts_reward_expectancy_bt,2022.2.4,MacIntel,120.0048002,Chrome,1728,1117,,,,,0,558,,,,,,,,,,,,,,,,,U,146,hexagon,1,1,,,,,,,,,,,,,,,,switch,letter,lettSwt,f,1.2201,noRew,,,,,,0,4,0,4,0,1,,,,,,,,,,,,,,,,,
297556,2022-12-06_06h29.32.188,vts_reward_expectancy_bt,2022.2.4,MacIntel,120.0048002,Chrome,1728,1117,,,,,0,558,,,,,,,,,,,,,,,,,Y,139,triangle,1,0,,,,,,,,,,,,,,,,repeat,letter,lettRpt,f,0.655,noRew,,,,,,0,5,0,5,0,1,,,,,,,,,,,,,,,,,
297556,2022-12-06_06h29.32.188,vts_reward_expectancy_bt,2022.2.4,MacIntel,120.0048002,Chrome,1728,1117,,,,,0,558,,,,,,,,,,,,,,,,,F,174,triangle,0,0,,,,,,,,,,,,,,,,repeat,letter,NA,f,0.979,noRew,,,,,,0,6,0,6,0,1,,,,,,,,,,,,,,,,,
297556,2022-12-06_06h29.32.188,vts_reward_expectancy_bt,2022.2.4,MacIntel,120.0048002,Chrome,1728,1117,,,,,0,558,,,,,,,,,,,,,,,,,W,160,star,1,1,,,,,,,,,,,,,,,,repeat,letter,lettRpt,f,0.6905,noRew,,,,,,0,7,0,7,0,1,,,,,,,,,,,,,,,,,
297556,2022-12-06_06h29.32.188,vts_reward_expectancy_bt,2022.2.4,MacIntel,120.0048002,Chrome,1728,1117,,,,,0,558,,,,,,,,,,,,,,,,,H,132,star,1,0,,,,,,,,,,,,,,,,switch,number,numSwt,j,0.5553,noRew,,,,,,0,8,0,8,0,1,,,,,,,,,,,,,,,,,
297556,2022-12-06_06h29.32.188,vts_reward_expectancy_bt,2022.2.4,MacIntel,120.0048002,Chrome,1728,1117,,,,,0,558,,,,,,,,,,,,,,,,,F,167,hexagon,1,0,,,,,,,,,,,,,,,,repeat,number,numRpt,k,0.6619,noRew,,,,,,0,9,0,9,0,1,,,,,,,,,,,,,,,,,
297556,2022-12-06_06h29.32.188,vts_reward_expectancy_bt,2022.2.4,MacIntel,120.0048002,Chrome,1728,1117,,,,,0,558,,,,,,,,,,,,,,,,,Y,160,triangle,1,0,,,,,,,,,,,,,,,,switch,letter,lettSwt,f,0.7138,noRew,,,,,,0,10,0,10,0,1,,,,,,,,,,,,,,,,,
297556,2022-12-06_06h29.32.188,vts_reward_expectancy_bt,2022.2.4,MacIntel,120.0048002,Chrome,1728,1117,,,,,0,558,,,,,,,,,,,,,,,,,B,174,hexagon,1,0,,,,,,,,,,,,,,,,repeat,letter,lettRpt,d,0.9452,noRew,,,,,,0,11,0,11,0,1,,,,,,,,,,,,,,,,,
297556,2022-12-06_06h29.32.188,vts_reward_expectancy_bt,2022.2.4,MacIntel,120.0048002,Chrome,1728,1117,,,,,0,558,,,,,,,,,,,,,,,,,D,125,hexagon,1,0,,,,,,,,,,,,,,,,repeat,letter,lettRpt,d,0.7801,noRew,,,,,,0,12,0,12,0,1,,,,,,,,,,,,,,,,,
297556,2022-12-06_06h29.32.188,vts_reward_expectancy_bt,2022.2.4,MacIntel,120.0048002,Chrome,1728,1117,,,,,0,558,,,,,,,,,,,,,,,,,H,160,circle,1,0,,,,,,,,,,,,,,,,switch,number,numSwt,k,0.6165,noRew,,,,,,0,13,0,13,0,1,,,,,,,,,,,,,,,,,
297556,2022-12-06_06h29.32.188,vts_reward_expectancy_bt,2022.2.4,MacIntel,120.0048002,Chrome,1728,1117,,,,,0,558,,,,,,,,,,,,,,,,,U,174,triangle,1,0,,,,,,,,,,,,,,,,repeat,number,numRpt,k,1.2742,noRew,,,,,,0,14,0,14,0,1,,,,,,,,,,,,,,,,,
297556,2022-12-06_06h29.32.188,vts_reward_expectancy_bt,2022.2.4,MacIntel,120.0048002,Chrome,1728,1117,,,,,0,558,,,,,,,,,,,,,,,,,S,167,hexagon,1,0,,,,,,,,,,,,,,,,repeat,number,numRpt,k,1.0778,noRew,,,,,,0,15,0,15,0,1,,,,,,,,,,,,,,,,,
297556,2022-12-06_06h29.32.188,vts_reward_expectancy_bt,2022.2.4,MacIntel,120.0048002,Chrome,1728,1117,,,,,0,558,,,,,,,,,,,,,,,,,F,174,circle,0,0,,,,,,,,,,,,,,,,switch,letter,NA,f,1.1677,noRew,,,,,,0,16,0,16,0,1,,,,,,,,,,,,,,,,,
297556,2022-12-06_06h29.32.188,vts_reward_expectancy_bt,2022.2.4,MacIntel,120.0048002,Chrome,1728,1117,,,,,0,558,,,,,,,,,,,,,,,,,Y,125,hexagon,1,1,,,,,,,,,,,,,,,,repeat,letter,lettRpt,f,1.2045,noRew,,,,,,0,17,0,17,0,1,,,,,,,,,,,,,,,,,
297556,2022-12-06_06h29.32.188,vts_reward_expectancy_bt,2022.2.4,MacIntel,120.0048002,Chrome,1728,1117,,,,,0,558,,,,,,,,,,,,,,,,,W,181,star,1,0,,,,,,,,,,,,,,,,repeat,letter,lettRpt,f,0.9902,noRew,,,,,,0,18,0,18,0,1,,,,,,,,,,,,,,,,,
297556,2022-12-06_06h29.32.188,vts_reward_expectancy_bt,2022.2.4,MacIntel,120.0048002,Chrome,1728,1117,,,,,0,558,,,,,,,,,,,,,,,,,U,132,circle,1,0,,,,,,,,,,,,,,,,switch,number,numSwt,j,0.996,noRew,,,,,,0,19,0,19,0,1,,,,,,,,,,,,,,,,,
297556,2022-12-06_06h29.32.188,vts_reward_expectancy_bt,2022.2.4,MacIntel,120.0048002,Chrome,1728,1117,,,,,0,558,,,,,,,,,,,,,,,,,F,167,hexagon,1,0,,,,,,,,,,,,,,,,repeat,number,numRpt,k,1.0321,noRew,,,,,,0,20,0,20,0,1,,,,,,,,,,,,,,,,,
297556,2022-12-06_06h29.32.188,vts_reward_expectancy_bt,2022.2.4,MacIntel,120.0048002,Chrome,1728,1117,,,,,0,558,,,,,,,,,,,,,,,,,B,160,circle,1,0,,,,,,,,,,,,,,,,switch,letter,lettSwt,d,0.699,noRew,,,,,,0,21,0,21,0,1,,,,,,,,,,,,,,,,,
297556,2022-12-06_06h29.32.188,vts_reward_expectancy_bt,2022.2.4,MacIntel,120.0048002,Chrome,1728,1117,,,,,0,558,,,,,,,,,,,,,,,,,W,181,star,1,0,,,,,,,,,,,,,,,,switch,number,numSwt,k,1.1042,noRew,,,,,,0,22,0,22,0,1,,,,,,,,,,,,,,,,,
297556,2022-12-06_06h29.32.188,vts_reward_expectancy_bt,2022.2.4,MacIntel,120.0048002,Chrome,1728,1117,,,,,0,558,,,,,,,,,,,,,,,,,H,132,hexagon,1,0,,,,,,,,,,,,,,,,repeat,number,numRpt,j,0.6417,noRew,,,,,,0,23,0,23,0,1,,,,,,,,,,,,,,,,,
297556,2022-12-06_06h29.32.188,vts_reward_expectancy_bt,2022.2.4,MacIntel,120.0048002,Chrome,1728,1117,,,,,0,558,,,,,,,,,,,,,,,,,S,125,triangle,0,0,,,,,,,,,,,,,,,,repeat,number,NA,k,1.7248,noRew,,,,,,0,24,0,24,0,1,,,,,,,,,,,,,,,,,
297556,2022-12-06_06h29.32.188,vts_reward_expectancy_bt,2022.2.4,MacIntel,120.0048002,Chrome,1728,1117,,,,,0,558,,,,,,,,,,,,,,,,,U,174,star,0,1,,,,,,,,,,,,,,,,switch,letter,NA,d,1.101,noRew,,,,,,0,25,0,25,0,1,,,,,,,,,,,,,,,,,
297556,2022-12-06_06h29.32.188,vts_reward_expectancy_bt,2022.2.4,MacIntel,120.0048002,Chrome,1728,1117,,,,,0,558,,,,,,,,,,,,,,,,,F,132,hexagon,0,1,,,,,,,,,,,,,,,,repeat,letter,NA,f,0.7385,noRew,,,,,,0,26,0,26,0,1,,,,,,,,,,,,,,,,,
297556,2022-12-06_06h29.32.188,vts_reward_expectancy_bt,2022.2.4,MacIntel,120.0048002,Chrome,1728,1117,,,,,0,558,,,,,,,,,,,,,,,,,H,167,star,1,1,,,,,,,,,,,,,,,,repeat,letter,lettRpt,d,0.9177,noRew,,,,,,0,27,0,27,0,1,,,,,,,,,,,,,,,,,
297556,2022-12-06_06h29.32.188,vts_reward_expectancy_bt,2022.2.4,MacIntel,120.0048002,Chrome,1728,1117,,,,,0,558,,,,,,,,,,,,,,,,,Y,181,hexagon,1,0,,,,,,,,,,,,,,,,switch,number,numSwt,k,0.7358,noRew,,,,,,0,28,0,28,0,1,,,,,,,,,,,,,,,,,
297556,2022-12-06_06h29.32.188,vts_reward_expectancy_bt,2022.2.4,MacIntel,120.0048002,Chrome,1728,1117,,,,,0,558,,,,,,,,,,,,,,,,,D,132,star,1,0,,,,,,,,,,,,,,,,repeat,number,numRpt,j,0.7488,noRew,,,,,,0,29,0,29,0,1,,,,,,,,,,,,,,,,,
297556,2022-12-06_06h29.32.188,vts_reward_expectancy_bt,2022.2.4,MacIntel,120.0048002,Chrome,1728,1117,,,,,0,558,,,,,,,,,,,,,,,,,S,139,triangle,1,0,,,,,,,,,,,,,,,,repeat,number,numRpt,j,0.7383,noRew,,,,,,0,30,0,30,0,1,,,,,,,,,,,,,,,,,
297556,2022-12-06_06h29.32.188,vts_reward_expectancy_bt,2022.2.4,MacIntel,120.0048002,Chrome,1728,1117,,,,,0,558,,,,,,,,,,,,,,,,,B,125,hexagon,1,0,,,,,,,,,,,,,,,,switch,letter,lettSwt,d,0.544,noRew,,,,,,0,31,0,31,0,1,,,,,,,,,,,,,,,,,
297556,2022-12-06_06h29.32.188,vts_reward_expectancy_bt,2022.2.4,MacIntel,120.0048002,Chrome,1728,1117,,,,,0,558,,,,,,,,,,,,,,,,,U,132,circle,1,0,,,,,,,,,,,,,,,,switch,number,numSwt,j,0.688,noRew,,,,,,0,32,0,32,0,1,,,,,,,,,,,,,,,,,
297556,2022-12-06_06h29.32.188,vts_reward_expectancy_bt,2022.2.4,MacIntel,120.0048002,Chrome,1728,1117,,,,,0,558,,,,,,,,,,,,,,,,,S,146,star,1,0,,,,,,,,,,,,,,,,switch,letter,lettSwt,f,0.755,noRew,,,,,,0,33,0,33,0,1,,,,,,,,,,,,,,,,,
297556,2022-12-06_06h29.32.188,vts_reward_expectancy_bt,2022.2.4,MacIntel,120.0048002,Chrome,1728,1117,,,,,0,558,,,,,,,,,,,,,,,,,D,160,circle,1,0,,,,,,,,,,,,,,,,repeat,letter,lettRpt,d,1.1287,noRew,,,,,,0,34,0,34,0,1,,,,,,,,,,,,,,,,,
297556,2022-12-06_06h29.32.188,vts_reward_expectancy_bt,2022.2.4,MacIntel,120.0048002,Chrome,1728,1117,,,,,0,558,,,,,,,,,,,,,,,,,F,181,hexagon,0,0,,,,,,,,,,,,,,,,repeat,letter,NA,f,0.7484,noRew,,,,,,0,35,0,35,0,1,,,,,,,,,,,,,,,,,
297556,2022-12-06_06h29.32.188,vts_reward_expectancy_bt,2022.2.4,MacIntel,120.0048002,Chrome,1728,1117,,,,,0,558,,,,,,,,,,,,,,,,,B,139,star,1,1,,,,,,,,,,,,,,,,repeat,letter,lettRpt,d,0.5316,noRew,,,,,,0,36,0,36,0,1,,,,,,,,,,,,,,,,,
297556,2022-12-06_06h29.32.188,vts_reward_expectancy_bt,2022.2.4,MacIntel,120.0048002,Chrome,1728,1117,,,,,0,558,,,,,,,,,,,,,,,,,H,160,circle,1,0,,,,,,,,,,,,,,,,switch,number,numSwt,k,0.5117,noRew,,,,,,0,37,0,37,0,1,,,,,,,,,,,,,,,,,
297556,2022-12-06_06h29.32.188,vts_reward_expectancy_bt,2022.2.4,MacIntel,120.0048002,Chrome,1728,1117,,,,,0,558,,,,,,,,,,,,,,,,,D,132,circle,1,0,,,,,,,,,,,,,,,,repeat,number,numRpt,j,0.9299,noRew,,,,,,0,38,0,38,0,1,,,,,,,,,,,,,,,,,
297556,2022-12-06_06h29.32.188,vts_reward_expectancy_bt,2022.2.4,MacIntel,120.0048002,Chrome,1728,1117,,,,,0,558,,,,,,,,,,,,,,,,,S,181,hexagon,1,0,,,,,,,,,,,,,,,,repeat,number,numRpt,k,0.6447,noRew,,,,,,0,39,0,39,0,1,,,,,,,,,,,,,,,,,
297556,2022-12-06_06h29.32.188,vts_reward_expectancy_bt,2022.2.4,MacIntel,120.0048002,Chrome,1728,1117,,,,,0,558,,,,,,,,,,,,,,,,,Y,139,star,1,0,,,,,,,,,,,,,,,,repeat,number,numRpt,j,1.4492,noRew,,,,,,0,40,0,40,0,1,,,,,,,,,,,,,,,,,
297556,2022-12-06_06h29.32.188,vts_reward_expectancy_bt,2022.2.4,MacIntel,120.0048002,Chrome,1728,1117,,,,,0,558,,,,,,,,,,,,,,,,,B,174,hexagon,1,0,,,,,,,,,,,,,,,,repeat,number,numRpt,k,1.0647,noRew,,,,,,0,41,0,41,0,1,,,,,,,,,,,,,,,,,
297556,2022-12-06_06h29.32.188,vts_reward_expectancy_bt,2022.2.4,MacIntel,120.0048002,Chrome,1728,1117,,,,,0,558,,,,,,,,,,,,,,,,,H,132,star,1,0,,,,,,,,,,,,,,,,repeat,number,numRpt,j,0.6295,noRew,,,,,,0,42,0,42,0,1,,,,,,,,,,,,,,,,,
297556,2022-12-06_06h29.32.188,vts_reward_expectancy_bt,2022.2.4,MacIntel,120.0048002,Chrome,1728,1117,,,,,0,558,,,,,,,,,,,,,,,,,F,125,hexagon,0,0,,,,,,,,,,,,,,,,switch,letter,NA,f,0.656,noRew,,,,,,0,43,0,43,0,1,,,,,,,,,,,,,,,,,
297556,2022-12-06_06h29.32.188,vts_reward_expectancy_bt,2022.2.4,MacIntel,120.0048002,Chrome,1728,1117,,,,,0,558,,,,,,,,,,,,,,,,,D,125,star,1,1,,,,,,,,,,,,,,,,repeat,letter,lettRpt,d,0.6484,noRew,,,,,,0,44,0,44,0,1,,,,,,,,,,,,,,,,,
297556,2022-12-06_06h29.32.188,vts_reward_expectancy_bt,2022.2.4,MacIntel,120.0048002,Chrome,1728,1117,,,,,0,558,,,,,,,,,,,,,,,,,U,146,circle,1,0,,,,,,,,,,,,,,,,repeat,letter,lettRpt,f,0.772,noRew,,,,,,0,45,0,45,0,1,,,,,,,,,,,,,,,,,
297556,2022-12-06_06h29.32.188,vts_reward_expectancy_bt,2022.2.4,MacIntel,120.0048002,Chrome,1728,1117,,,,,0,558,,,,,,,,,,,,,,,,,Y,139,star,1,0,,,,,,,,,,,,,,,,repeat,letter,lettRpt,f,0.9812,noRew,,,,,,0,46,0,46,0,1,,,,,,,,,,,,,,,,,
297556,2022-12-06_06h29.32.188,vts_reward_expectancy_bt,2022.2.4,MacIntel,120.0048002,Chrome,1728,1117,,,,,0,558,,,,,,,,,,,,,,,,,S,160,hexagon,1,0,,,,,,,,,,,,,,,,repeat,letter,lettRpt,f,0.7507,noRew,,,,,,0,47,0,47,0,1,,,,,,,,,,,,,,,,,
297556,2022-12-06_06h29.32.188,vts_reward_expectancy_bt,2022.2.4,MacIntel,120.0048002,Chrome,1728,1117,,,,,0,558,,,,,,,,,,,,,,,,,U,139,circle,1,0,,,,,,,,,,,,,,,,repeat,letter,lettRpt,f,0.8365,noRew,,,,,,0,48,0,48,0,1,,,,,,,,,,,,,,,,,
297556,2022-12-06_06h29.32.188,vts_reward_expectancy_bt,2022.2.4,MacIntel,120.0048002,Chrome,1728,1117,,,,,0,558,,,,,,,,,,,,,,,,,H,174,hexagon,1,0,,,,,,,,,,,,,,,,repeat,letter,lettRpt,d,0.8212,noRew,,,,,,0,49,0,49,0,1,,,,,,,,,,,,,,,,,
297556,2022-12-06_06h29.32.188,vts_reward_expectancy_bt,2022.2.4,MacIntel,120.0048002,Chrome,1728,1117,,,,,0,558,,,,,,,,,,,,,,,,,W,160,circle,1,0,,,,,,,,,,,,,,,,repeat,letter,lettRpt,f,0.9742,noRew,,,,,,0,50,0,50,0,1,,,,,,,,,,,,,,,,,
297556,2022-12-06_06h29.32.188,vts_reward_expectancy_bt,2022.2.4,MacIntel,120.0048002,Chrome,1728,1117,,,,,0,558,,,,,,,,,,,,,,,,,D,181,hexagon,1,0,,,,,,,,,,,,,,,,switch,number,numSwt,k,0.5873,noRew,,,,,,0,51,0,51,0,1,,,,,,,,,,,,,,,,,
297556,2022-12-06_06h29.32.188,vts_reward_expectancy_bt,2022.2.4,MacIntel,120.0048002,Chrome,1728,1117,,,,,0,558,,,,,,,,,,,,,,,,,Y,174,triangle,1,0,,,,,,,,,,,,,,,,repeat,number,numRpt,k,0.5219,noRew,,,,,,0,52,0,52,0,1,,,,,,,,,,,,,,,,,
297556,2022-12-06_06h29.32.188,vts_reward_expectancy_bt,2022.2.4,MacIntel,120.0048002,Chrome,1728,1117,,,,,0,558,,,,,,,,,,,,,,,,,W,160,circle,1,0,,,,,,,,,,,,,,,,repeat,number,numRpt,k,0.8249,noRew,,,,,,0,53,0,53,0,1,,,,,,,,,,,,,,,,,
297556,2022-12-06_06h29.32.188,vts_reward_expectancy_bt,2022.2.4,MacIntel,120.0048002,Chrome,1728,1117,,,,,0,558,,,,,,,,,,,,,,,,,S,181,hexagon,1,0,,,,,,,,,,,,,,,,repeat,number,numRpt,k,0.6121,noRew,,,,,,0,54,0,54,0,1,,,,,,,,,,,,,,,,,
297556,2022-12-06_06h29.32.188,vts_reward_expectancy_bt,2022.2.4,MacIntel,120.0048002,Chrome,1728,1117,,,,,0,558,,,,,,,,,,,,,,,,,U,125,circle,1,0,,,,,,,,,,,,,,,,repeat,number,numRpt,j,0.8346,noRew,,,,,,0,55,0,55,0,1,,,,,,,,,,,,,,,,,
297556,2022-12-06_06h29.32.188,vts_reward_expectancy_bt,2022.2.4,MacIntel,120.0048002,Chrome,1728,1117,,,,,0,558,,,,,,,,,,,,,,,,,W,167,circle,1,0,,,,,,,,,,,,,,,,repeat,number,numRpt,k,0.5376,noRew,,,,,,0,56,0,56,0,1,,,,,,,,,,,,,,,,,
297556,2022-12-06_06h29.32.188,vts_reward_expectancy_bt,2022.2.4,MacIntel,120.0048002,Chrome,1728,1117,,,,,0,558,,,,,,,,,,,,,,,,,S,139,star,1,0,,,,,,,,,,,,,,,,switch,letter,lettSwt,f,0.8357,noRew,,,,,,0,57,0,57,0,1,,,,,,,,,,,,,,,,,
297556,2022-12-06_06h29.32.188,vts_reward_expectancy_bt,2022.2.4,MacIntel,120.0048002,Chrome,1728,1117,,,,,0,558,,,,,,,,,,,,,,,,,D,125,star,1,0,,,,,,,,,,,,,,,,repeat,letter,lettRpt,d,0.7622,noRew,,,,,,0,58,0,58,0,1,,,,,,,,,,,,,,,,,
297556,2022-12-06_06h29.32.188,vts_reward_expectancy_bt,2022.2.4,MacIntel,120.0048002,Chrome,1728,1117,,,,,0,558,,,,,,,,,,,,,,,,,H,146,triangle,1,0,,,,,,,,,,,,,,,,repeat,letter,lettRpt,d,1.0708,noRew,,,,,,0,59,0,59,0,1,,,,,,,,,,,,,,,,,
297556,2022-12-06_06h29.32.188,vts_reward_expectancy_bt,2022.2.4,MacIntel,120.0048002,Chrome,1728,1117,,,,,0,558,,,,,,,,,,,,,,,,,D,160,hexagon,1,0,,,,,,,,,,,,,,,,repeat,letter,lettRpt,d,0.9368,noRew,,,,,,0,60,0,60,0,1,,,,,,,,,,,,,,,,,
297556,2022-12-06_06h29.32.188,vts_reward_expectancy_bt,2022.2.4,MacIntel,120.0048002,Chrome,1728,1117,,,,,0,558,,,,,,,,,,,,,,,,,W,181,circle,1,0,,,,,,,,,,,,,,,,repeat,letter,lettRpt,f,0.7178,noRew,,,,,,0,61,0,61,0,1,,,,,,,,,,,,,,,,,
297556,2022-12-06_06h29.32.188,vts_reward_expectancy_bt,2022.2.4,MacIntel,120.0048002,Chrome,1728,1117,,,,,0,558,,,,,,,,,,,,,,,,,Y,146,circle,1,0,,,,,,,,,,,,,,,,repeat,letter,lettRpt,f,0.7476,noRew,,,,,,0,62,0,62,0,1,,,,,,,,,,,,,,,,,
297556,2022-12-06_06h29.32.188,vts_reward_expectancy_bt,2022.2.4,MacIntel,120.0048002,Chrome,1728,1117,,,,,0,558,,,,,,,,,,,,,,,,,H,167,star,1,0,,,,,,,,,,,,,,,,switch,number,numSwt,k,0.8004,noRew,,,,,,0,63,0,63,0,1,,,,,,,,,,,,,,,,,
297556,2022-12-06_06h29.32.188,vts_reward_expectancy_bt,2022.2.4,MacIntel,120.0048002,Chrome,1728,1117,,,,,,,,,,,,,,,,,,,,,,,,,,,,,,,,,,,,,,,,,,,,,,,,,,,,,,,,,,,,,,,,,,,,,,,,,,,,
297556,2022-12-06_06h29.32.188,vts_reward_expectancy_bt,2022.2.4,MacIntel,120.0048002,Chrome,1728,1117,,,,,0,558,,,,,,,,,,,,,,,,,W,139,circle,1,0,,,,,,,,,,,,,,,,switch,letter,lettSwt,f,1.1995,Hi,,,,,,0,,,,,,space,8.3197,low,0,0,0,0,1,,,,,,,,,
297556,2022-12-06_06h29.32.188,vts_reward_expectancy_bt,2022.2.4,MacIntel,120.0048002,Chrome,1728,1117,,,,,0,558,,,,,,,,,,,,,,,,,H,160,hexagon,1,0,,,,,,,,,,,,,,,,switch,number,numSwt,k,0.7423,Hi,,,,,,0,,,,,,,,low,1,0,1,0,1,,,,,,,,,
297556,2022-12-06_06h29.32.188,vts_reward_expectancy_bt,2022.2.4,MacIntel,120.0048002,Chrome,1728,1117,,,,,1,559,,,,,,,,,,,,,,,,,F,174,star,1,0,,,,,,,,,,,,,,,,repeat,number,numRpt,k,0.4237,Lo,,,,,,0,,,,,,,,low,2,0,2,0,1,,,,,,,,,
297556,2022-12-06_06h29.32.188,vts_reward_expectancy_bt,2022.2.4,MacIntel,120.0048002,Chrome,1728,1117,,,,,10,569,,,,,,,,,,,,,,,,,B,181,triangle,1,0,,,,,,,,,,,,,,,,repeat,number,numRpt,k,0.4366,Lo,,,,,,0,,,,,,,,low,3,0,3,0,1,,,,,,,,,
297556,2022-12-06_06h29.32.188,vts_reward_expectancy_bt,2022.2.4,MacIntel,120.0048002,Chrome,1728,1117,,,,,1,570,,,,,,,,,,,,,,,,,U,146,circle,1,0,,,,,,,,,,,,,,,,repeat,number,numRpt,j,0.3558,Hi,,,,,,0,,,,,,,,low,4,0,4,0,1,,,,,,,,,
297556,2022-12-06_06h29.32.188,vts_reward_expectancy_bt,2022.2.4,MacIntel,120.0048002,Chrome,1728,1117,,,,,10,580,,,,,,,,,,,,,,,,,S,167,hexagon,1,0,,,,,,,,,,,,,,,,repeat,number,numRpt,k,0.4473,Hi,,,,,,0,,,,,,,,low,5,0,5,0,1,,,,,,,,,
297556,2022-12-06_06h29.32.188,vts_reward_expectancy_bt,2022.2.4,MacIntel,120.0048002,Chrome,1728,1117,,,,,1,581,,,,,,,,,,,,,,,,,Y,132,star,1,0,,,,,,,,,,,,,,,,repeat,number,numRpt,j,0.4449,Lo,,,,,,0,,,,,,,,low,6,0,6,0,1,,,,,,,,,
297556,2022-12-06_06h29.32.188,vts_reward_expectancy_bt,2022.2.4,MacIntel,120.0048002,Chrome,1728,1117,,,,,1,582,,,,,,,,,,,,,,,,,D,125,triangle,1,0,,,,,,,,,,,,,,,,switch,letter,lettSwt,d,0.404,Lo,,,,,,0,,,,,,,,low,7,0,7,0,1,,,,,,,,,
297556,2022-12-06_06h29.32.188,vts_reward_expectancy_bt,2022.2.4,MacIntel,120.0048002,Chrome,1728,1117,,,,,1,583,,,,,,,,,,,,,,,,,W,139,star,1,0,,,,,,,,,,,,,,,,repeat,letter,lettRpt,f,0.4715,Lo,,,,,,0,,,,,,,,low,8,0,8,0,1,,,,,,,,,
297556,2022-12-06_06h29.32.188,vts_reward_expectancy_bt,2022.2.4,MacIntel,120.0048002,Chrome,1728,1117,,,,,1,584,,,,,,,,,,,,,,,,,H,160,triangle,1,0,,,,,,,,,,,,,,,,switch,number,numSwt,k,0.4253,Lo,,,,,,0,,,,,,,,low,9,0,9,0,1,,,,,,,,,
297556,2022-12-06_06h29.32.188,vts_reward_expectancy_bt,2022.2.4,MacIntel,120.0048002,Chrome,1728,1117,,,,,10,594,,,,,,,,,,,,,,,,,F,174,hexagon,1,0,,,,,,,,,,,,,,,,repeat,number,numRpt,k,0.5216,Hi,,,,,,0,,,,,,,,low,10,0,10,0,1,,,,,,,,,
297556,2022-12-06_06h29.32.188,vts_reward_expectancy_bt,2022.2.4,MacIntel,120.0048002,Chrome,1728,1117,,,,,1,595,,,,,,,,,,,,,,,,,B,181,circle,1,0,,,,,,,,,,,,,,,,repeat,number,numRpt,k,0.5538,Hi,,,,,,0,,,,,,,,low,11,0,11,0,1,,,,,,,,,
297556,2022-12-06_06h29.32.188,vts_reward_expectancy_bt,2022.2.4,MacIntel,120.0048002,Chrome,1728,1117,,,,,0,595,,,,,,,,,,,,,,,,,U,146,circle,0,0,,,,,,,,,,,,,,,,repeat,number,NA,k,0.4801,Hi,,,,,,0,,,,,,,,low,12,0,12,0,1,,,,,,,,,
297556,2022-12-06_06h29.32.188,vts_reward_expectancy_bt,2022.2.4,MacIntel,120.0048002,Chrome,1728,1117,,,,,1,596,,,,,,,,,,,,,,,,,S,167,triangle,1,1,,,,,,,,,,,,,,,,repeat,number,numRpt,k,0.6432,Lo,,,,,,0,,,,,,,,low,13,0,13,0,1,,,,,,,,,
297556,2022-12-06_06h29.32.188,vts_reward_expectancy_bt,2022.2.4,MacIntel,120.0048002,Chrome,1728,1117,,,,,10,606,,,,,,,,,,,,,,,,,Y,132,hexagon,1,0,,,,,,,,,,,,,,,,repeat,number,numRpt,j,0.5413,Hi,,,,,,0,,,,,,,,low,14,0,14,0,1,,,,,,,,,
297556,2022-12-06_06h29.32.188,vts_reward_expectancy_bt,2022.2.4,MacIntel,120.0048002,Chrome,1728,1117,,,,,1,607,,,,,,,,,,,,,,,,,D,125,star,1,0,,,,,,,,,,,,,,,,switch,letter,lettSwt,d,0.4829,Lo,,,,,,0,,,,,,,,low,15,0,15,0,1,,,,,,,,,
297556,2022-12-06_06h29.32.188,vts_reward_expectancy_bt,2022.2.4,MacIntel,120.0048002,Chrome,1728,1117,,,,,0,607,,,,,,,,,,,,,,,,,F,181,star,0,0,,,,,,,,,,,,,,,,repeat,letter,NA,f,0.4715,Lo,,,,,,0,,,,,,,,low,16,0,16,0,1,,,,,,,,,
297556,2022-12-06_06h29.32.188,vts_reward_expectancy_bt,2022.2.4,MacIntel,120.0048002,Chrome,1728,1117,,,,,10,617,,,,,,,,,,,,,,,,,W,132,circle,1,1,,,,,,,,,,,,,,,,switch,number,numSwt,j,0.4367,Hi,,,,,,0,,,,,,,,low,17,0,17,0,1,,,,,,,,,
297556,2022-12-06_06h29.32.188,vts_reward_expectancy_bt,2022.2.4,MacIntel,120.0048002,Chrome,1728,1117,,,,,1,618,,,,,,,,,,,,,,,,,Y,167,triangle,1,0,,,,,,,,,,,,,,,,repeat,number,numRpt,k,0.3935,Lo,,,,,,0,,,,,,,,low,18,0,18,0,1,,,,,,,,,
297556,2022-12-06_06h29.32.188,vts_reward_expectancy_bt,2022.2.4,MacIntel,120.0048002,Chrome,1728,1117,,,,,1,619,,,,,,,,,,,,,,,,,H,139,hexagon,1,0,,,,,,,,,,,,,,,,repeat,number,numRpt,j,0.5035,Hi,,,,,,0,,,,,,,,low,19,0,19,0,1,,,,,,,,,
297556,2022-12-06_06h29.32.188,vts_reward_expectancy_bt,2022.2.4,MacIntel,120.0048002,Chrome,1728,1117,,,,,0,619,,,,,,,,,,,,,,,,,U,174,circle,0,0,,,,,,,,,,,,,,,,repeat,number,NA,j,0.4871,Hi,,,,,,0,,,,,,,,low,20,0,20,0,1,,,,,,,,,
297556,2022-12-06_06h29.32.188,vts_reward_expectancy_bt,2022.2.4,MacIntel,120.0048002,Chrome,1728,1117,,,,,1,620,,,,,,,,,,,,,,,,,B,160,star,1,1,,,,,,,,,,,,,,,,repeat,number,numRpt,k,0.6199,Lo,,,,,,0,,,,,,,,low,21,0,21,0,1,,,,,,,,,
297556,2022-12-06_06h29.32.188,vts_reward_expectancy_bt,2022.2.4,MacIntel,120.0048002,Chrome,1728,1117,,,,,10,630,,,,,,,,,,,,,,,,,D,146,hexagon,1,0,,,,,,,,,,,,,,,,repeat,number,numRpt,j,0.6272,Hi,,,,,,0,,,,,,,,low,22,0,22,0,1,,,,,,,,,
297556,2022-12-06_06h29.32.188,vts_reward_expectancy_bt,2022.2.4,MacIntel,120.0048002,Chrome,1728,1117,,,,,1,631,,,,,,,,,,,,,,,,,S,125,triangle,1,0,,,,,,,,,,,,,,,,repeat,number,numRpt,j,0.5902,Lo,,,,,,0,,,,,,,,low,23,0,23,0,1,,,,,,,,,
297556,2022-12-06_06h29.32.188,vts_reward_expectancy_bt,2022.2.4,MacIntel,120.0048002,Chrome,1728,1117,,,,,10,641,,,,,,,,,,,,,,,,,U,174,circle,1,0,,,,,,,,,,,,,,,,switch,letter,lettSwt,f,0.6089,Hi,,,,,,0,,,,,,,,low,24,0,24,0,1,,,,,,,,,
297556,2022-12-06_06h29.32.188,vts_reward_expectancy_bt,2022.2.4,MacIntel,120.0048002,Chrome,1728,1117,,,,,10,651,,,,,,,,,,,,,,,,,Y,181,star,1,0,,,,,,,,,,,,,,,,repeat,letter,lettRpt,f,0.6214,Lo,,,,,,0,,,,,,,,low,25,0,25,0,1,,,,,,,,,
297556,2022-12-06_06h29.32.188,vts_reward_expectancy_bt,2022.2.4,MacIntel,120.0048002,Chrome,1728,1117,,,,,10,661,,,,,,,,,,,,,,,,,F,160,triangle,1,0,,,,,,,,,,,,,,,,repeat,letter,lettRpt,d,0.9711,Lo,,,,,,0,,,,,,,,low,26,0,26,0,1,,,,,,,,,
297556,2022-12-06_06h29.32.188,vts_reward_expectancy_bt,2022.2.4,MacIntel,120.0048002,Chrome,1728,1117,,,,,0,661,,,,,,,,,,,,,,,,,H,139,hexagon,0,0,,,,,,,,,,,,,,,,repeat,letter,NA,f,0.7269,Lo,,,,,,0,,,,,,,,low,27,0,27,0,1,,,,,,,,,
297556,2022-12-06_06h29.32.188,vts_reward_expectancy_bt,2022.2.4,MacIntel,120.0048002,Chrome,1728,1117,,,,,1,662,,,,,,,,,,,,,,,,,W,167,star,1,1,,,,,,,,,,,,,,,,switch,number,numSwt,k,0.6697,Lo,,,,,,0,,,,,,,,low,28,0,28,0,1,,,,,,,,,
297556,2022-12-06_06h29.32.188,vts_reward_expectancy_bt,2022.2.4,MacIntel,120.0048002,Chrome,1728,1117,,,,,10,672,,,,,,,,,,,,,,,,,S,146,circle,1,0,,,,,,,,,,,,,,,,repeat,number,numRpt,j,0.5844,Hi,,,,,,0,,,,,,,,low,29,0,29,0,1,,,,,,,,,
297556,2022-12-06_06h29.32.188,vts_reward_expectancy_bt,2022.2.4,MacIntel,120.0048002,Chrome,1728,1117,,,,,10,682,,,,,,,,,,,,,,,,,D,132,hexagon,1,0,,,,,,,,,,,,,,,,repeat,number,numRpt,j,0.6076,Hi,,,,,,0,,,,,,,,low,30,0,30,0,1,,,,,,,,,
297556,2022-12-06_06h29.32.188,vts_reward_expectancy_bt,2022.2.4,MacIntel,120.0048002,Chrome,1728,1117,,,,,1,683,,,,,,,,,,,,,,,,,B,125,triangle,1,0,,,,,,,,,,,,,,,,repeat,number,numRpt,j,0.4811,Lo,,,,,,0,,,,,,,,low,31,0,31,0,1,,,,,,,,,
297556,2022-12-06_06h29.32.188,vts_reward_expectancy_bt,2022.2.4,MacIntel,120.0048002,Chrome,1728,1117,,,,,0,683,,,,,,,,,,,,,,,,,S,125,circle,0,0,,,,,,,,,,,,,,,,repeat,number,NA,k,0.6057,Lo,,,,,,1,,,,,,space,1.9473,low,0,0,0,0,1,,,,,,,,,
297556,2022-12-06_06h29.32.188,vts_reward_expectancy_bt,2022.2.4,MacIntel,120.0048002,Chrome,1728,1117,,,,,1,684,,,,,,,,,,,,,,,,,B,139,triangle,1,1,,,,,,,,,,,,,,,,repeat,number,numRpt,j,0.4519,Lo,,,,,,1,,,,,,,,low,1,0,1,0,1,,,,,,,,,
297556,2022-12-06_06h29.32.188,vts_reward_expectancy_bt,2022.2.4,MacIntel,120.0048002,Chrome,1728,1117,,,,,1,685,,,,,,,,,,,,,,,,,F,167,hexagon,1,0,,,,,,,,,,,,,,,,repeat,number,numRpt,k,0.3561,Hi,,,,,,1,,,,,,,,low,2,0,2,0,1,,,,,,,,,
297556,2022-12-06_06h29.32.188,vts_reward_expectancy_bt,2022.2.4,MacIntel,120.0048002,Chrome,1728,1117,,,,,1,686,,,,,,,,,,,,,,,,,U,181,star,1,0,,,,,,,,,,,,,,,,repeat,number,numRpt,k,0.5086,Lo,,,,,,1,,,,,,,,low,3,0,3,0,1,,,,,,,,,
297556,2022-12-06_06h29.32.188,vts_reward_expectancy_bt,2022.2.4,MacIntel,120.0048002,Chrome,1728,1117,,,,,0,686,,,,,,,,,,,,,,,,,W,160,circle,1,0,,,,,,,,,,,,,,,,switch,letter,lettSwt,f,0.6839,Hi,,,,,,1,,,,,,,,low,4,0,4,0,1,,,,,,,,,
297556,2022-12-06_06h29.32.188,vts_reward_expectancy_bt,2022.2.4,MacIntel,120.0048002,Chrome,1728,1117,,,,,10,696,,,,,,,,,,,,,,,,,H,132,triangle,1,0,,,,,,,,,,,,,,,,switch,number,numSwt,j,0.4809,Lo,,,,,,1,,,,,,,,low,5,0,5,0,1,,,,,,,,,
297556,2022-12-06_06h29.32.188,vts_reward_expectancy_bt,2022.2.4,MacIntel,120.0048002,Chrome,1728,1117,,,,,0,696,,,,,,,,,,,,,,,,,D,174,hexagon,1,0,,,,,,,,,,,,,,,,repeat,number,numRpt,k,0.5527,Hi,,,,,,1,,,,,,,,low,6,0,6,0,1,,,,,,,,,
297556,2022-12-06_06h29.32.188,vts_reward_expectancy_bt,2022.2.4,MacIntel,120.0048002,Chrome,1728,1117,,,,,0,696,,,,,,,,,,,,,,,,,Y,146,star,0,0,,,,,,,,,,,,,,,,repeat,number,NA,k,0.5172,Hi,,,,,,1,,,,,,,,low,7,0,7,0,1,,,,,,,,,
297556,2022-12-06_06h29.32.188,vts_reward_expectancy_bt,2022.2.4,MacIntel,120.0048002,Chrome,1728,1117,,,,,0,696,,,,,,,,,,,,,,,,,S,125,hexagon,1,1,,,,,,,,,,,,,,,,repeat,number,numRpt,j,0.4955,Hi,,,,,,1,,,,,,,,low,8,0,8,0,1,,,,,,,,,
297556,2022-12-06_06h29.32.188,vts_reward_expectancy_bt,2022.2.4,MacIntel,120.0048002,Chrome,1728,1117,,,,,10,706,,,,,,,,,,,,,,,,,B,139,circle,1,0,,,,,,,,,,,,,,,,repeat,number,numRpt,j,0.3286,Hi,,,,,,1,,,,,,,,low,9,0,9,0,1,,,,,,,,,
297556,2022-12-06_06h29.32.188,vts_reward_expectancy_bt,2022.2.4,MacIntel,120.0048002,Chrome,1728,1117,,,,,10,716,,,,,,,,,,,,,,,,,F,167,star,1,0,,,,,,,,,,,,,,,,repeat,number,numRpt,k,0.3431,Lo,,,,,,1,,,,,,,,low,10,0,10,0,1,,,,,,,,,
297556,2022-12-06_06h29.32.188,vts_reward_expectancy_bt,2022.2.4,MacIntel,120.0048002,Chrome,1728,1117,,,,,10,726,,,,,,,,,,,,,,,,,U,181,triangle,1,0,,,,,,,,,,,,,,,,repeat,number,numRpt,k,0.4115,Lo,,,,,,1,,,,,,,,low,11,0,11,0,1,,,,,,,,,
297556,2022-12-06_06h29.32.188,vts_reward_expectancy_bt,2022.2.4,MacIntel,120.0048002,Chrome,1728,1117,,,,,10,736,,,,,,,,,,,,,,,,,W,160,circle,1,0,,,,,,,,,,,,,,,,repeat,number,numRpt,k,0.3936,Hi,,,,,,1,,,,,,,,low,12,0,12,0,1,,,,,,,,,
297556,2022-12-06_06h29.32.188,vts_reward_expectancy_bt,2022.2.4,MacIntel,120.0048002,Chrome,1728,1117,,,,,0,736,,,,,,,,,,,,,,,,,H,132,hexagon,1,0,,,,,,,,,,,,,,,,repeat,number,numRpt,j,0.595,Hi,,,,,,1,,,,,,,,low,13,0,13,0,1,,,,,,,,,
297556,2022-12-06_06h29.32.188,vts_reward_expectancy_bt,2022.2.4,MacIntel,120.0048002,Chrome,1728,1117,,,,,1,737,,,,,,,,,,,,,,,,,D,174,star,1,0,,,,,,,,,,,,,,,,repeat,number,numRpt,k,0.5079,Lo,,,,,,1,,,,,,,,low,14,0,14,0,1,,,,,,,,,
297556,2022-12-06_06h29.32.188,vts_reward_expectancy_bt,2022.2.4,MacIntel,120.0048002,Chrome,1728,1117,,,,,1,738,,,,,,,,,,,,,,,,,Y,146,triangle,1,0,,,,,,,,,,,,,,,,repeat,number,numRpt,j,0.5534,Lo,,,,,,1,,,,,,,,low,15,0,15,0,1,,,,,,,,,
297556,2022-12-06_06h29.32.188,vts_reward_expectancy_bt,2022.2.4,MacIntel,120.0048002,Chrome,1728,1117,,,,,0,738,,,,,,,,,,,,,,,,,F,146,circle,0,0,,,,,,,,,,,,,,,,repeat,number,NA,k,0.4073,Lo,,,,,,1,,,,,,,,low,16,0,16,0,1,,,,,,,,,
297556,2022-12-06_06h29.32.188,vts_reward_expectancy_bt,2022.2.4,MacIntel,120.0048002,Chrome,1728,1117,,,,,10,748,,,,,,,,,,,,,,,,,B,174,triangle,1,1,,,,,,,,,,,,,,,,repeat,number,numRpt,k,0.5698,Lo,,,,,,1,,,,,,,,low,17,0,17,0,1,,,,,,,,,
297556,2022-12-06_06h29.32.188,vts_reward_expectancy_bt,2022.2.4,MacIntel,120.0048002,Chrome,1728,1117,,,,,0,748,,,,,,,,,,,,,,,,,W,125,hexagon,1,0,,,,,,,,,,,,,,,,repeat,number,numRpt,j,0.5231,Hi,,,,,,1,,,,,,,,low,18,0,18,0,1,,,,,,,,,
297556,2022-12-06_06h29.32.188,vts_reward_expectancy_bt,2022.2.4,MacIntel,120.0048002,Chrome,1728,1117,,,,,1,749,,,,,,,,,,,,,,,,,U,160,star,1,0,,,,,,,,,,,,,,,,repeat,number,numRpt,k,0.4881,Lo,,,,,,1,,,,,,,,low,19,0,19,0,1,,,,,,,,,
297556,2022-12-06_06h29.32.188,vts_reward_expectancy_bt,2022.2.4,MacIntel,120.0048002,Chrome,1728,1117,,,,,1,750,,,,,,,,,,,,,,,,,D,181,star,1,0,,,,,,,,,,,,,,,,repeat,number,numRpt,k,0.426,Lo,,,,,,1,,,,,,,,low,20,0,20,0,1,,,,,,,,,
297556,2022-12-06_06h29.32.188,vts_reward_expectancy_bt,2022.2.4,MacIntel,120.0048002,Chrome,1728,1117,,,,,0,750,,,,,,,,,,,,,,,,,Y,132,hexagon,1,0,,,,,,,,,,,,,,,,repeat,number,numRpt,j,0.4643,Hi,,,,,,1,,,,,,,,low,21,0,21,0,1,,,,,,,,,
297556,2022-12-06_06h29.32.188,vts_reward_expectancy_bt,2022.2.4,MacIntel,120.0048002,Chrome,1728,1117,,,,,0,750,,,,,,,,,,,,,,,,,H,167,circle,1,0,,,,,,,,,,,,,,,,repeat,number,numRpt,k,0.4734,Hi,,,,,,1,,,,,,,,low,22,0,22,0,1,,,,,,,,,
297556,2022-12-06_06h29.32.188,vts_reward_expectancy_bt,2022.2.4,MacIntel,120.0048002,Chrome,1728,1117,,,,,10,760,,,,,,,,,,,,,,,,,S,139,triangle,1,0,,,,,,,,,,,,,,,,repeat,number,numRpt,j,0.4671,Lo,,,,,,1,,,,,,,,low,23,0,23,0,1,,,,,,,,,
297556,2022-12-06_06h29.32.188,vts_reward_expectancy_bt,2022.2.4,MacIntel,120.0048002,Chrome,1728,1117,,,,,1,761,,,,,,,,,,,,,,,,,U,181,triangle,1,0,,,,,,,,,,,,,,,,repeat,number,numRpt,k,0.5509,Lo,,,,,,1,,,,,,,,low,24,0,24,0,1,,,,,,,,,
297556,2022-12-06_06h29.32.188,vts_reward_expectancy_bt,2022.2.4,MacIntel,120.0048002,Chrome,1728,1117,,,,,0,761,,,,,,,,,,,,,,,,,Y,167,circle,1,0,,,,,,,,,,,,,,,,repeat,number,numRpt,k,0.4787,Hi,,,,,,1,,,,,,,,low,25,0,25,0,1,,,,,,,,,
297556,2022-12-06_06h29.32.188,vts_reward_expectancy_bt,2022.2.4,MacIntel,120.0048002,Chrome,1728,1117,,,,,10,771,,,,,,,,,,,,,,,,,B,160,hexagon,1,0,,,,,,,,,,,,,,,,repeat,number,numRpt,k,0.3724,Hi,,,,,,1,,,,,,,,low,26,0,26,0,1,,,,,,,,,
297556,2022-12-06_06h29.32.188,vts_reward_expectancy_bt,2022.2.4,MacIntel,120.0048002,Chrome,1728,1117,,,,,10,781,,,,,,,,,,,,,,,,,F,174,star,1,0,,,,,,,,,,,,,,,,repeat,number,numRpt,k,0.4255,Lo,,,,,,1,,,,,,,,low,27,0,27,0,1,,,,,,,,,
297556,2022-12-06_06h29.32.188,vts_reward_expectancy_bt,2022.2.4,MacIntel,120.0048002,Chrome,1728,1117,,,,,0,781,,,,,,,,,,,,,,,,,S,139,hexagon,1,0,,,,,,,,,,,,,,,,repeat,number,numRpt,j,0.543,Hi,,,,,,1,,,,,,,,low,28,0,28,0,1,,,,,,,,,
297556,2022-12-06_06h29.32.188,vts_reward_expectancy_bt,2022.2.4,MacIntel,120.0048002,Chrome,1728,1117,,,,,10,791,,,,,,,,,,,,,,,,,W,125,star,1,0,,,,,,,,,,,,,,,,repeat,number,numRpt,j,0.4725,Lo,,,,,,1,,,,,,,,low,29,0,29,0,1,,,,,,,,,
297556,2022-12-06_06h29.32.188,vts_reward_expectancy_bt,2022.2.4,MacIntel,120.0048002,Chrome,1728,1117,,,,,0,791,,,,,,,,,,,,,,,,,D,132,circle,0,0,,,,,,,,,,,,,,,,repeat,number,NA,k,0.4066,Lo,,,,,,1,,,,,,,,low,30,0,30,0,1,,,,,,,,,
297556,2022-12-06_06h29.32.188,vts_reward_expectancy_bt,2022.2.4,MacIntel,120.0048002,Chrome,1728,1117,,,,,0,791,,,,,,,,,,,,,,,,,H,146,triangle,0,1,,,,,,,,,,,,,,,,repeat,number,NA,k,0.1982,Lo,,,,,,1,,,,,,,,low,31,0,31,0,1,,,,,,,,,
297556,2022-12-06_06h29.32.188,vts_reward_expectancy_bt,2022.2.4,MacIntel,120.0048002,Chrome,1728,1117,,,,,1,792,,,,,,,,,,,,,,,,,F,146,hexagon,1,1,,,,,,,,,,,,,,,,repeat,number,numRpt,j,0.399,Hi,,,,,,2,,,,,,space,1.0679,low,0,0,0,0,1,,,,,,,,,
297556,2022-12-06_06h29.32.188,vts_reward_expectancy_bt,2022.2.4,MacIntel,120.0048002,Chrome,1728,1117,,,,,10,802,,,,,,,,,,,,,,,,,U,174,circle,1,0,,,,,,,,,,,,,,,,repeat,number,numRpt,k,0.4235,Hi,,,,,,2,,,,,,,,low,1,0,1,0,1,,,,,,,,,
297556,2022-12-06_06h29.32.188,vts_reward_expectancy_bt,2022.2.4,MacIntel,120.0048002,Chrome,1728,1117,,,,,10,812,,,,,,,,,,,,,,,,,H,139,star,1,0,,,,,,,,,,,,,,,,repeat,number,numRpt,j,0.3329,Lo,,,,,,2,,,,,,,,low,2,0,2,0,1,,,,,,,,,
297556,2022-12-06_06h29.32.188,vts_reward_expectancy_bt,2022.2.4,MacIntel,120.0048002,Chrome,1728,1117,,,,,1,813,,,,,,,,,,,,,,,,,D,160,triangle,1,0,,,,,,,,,,,,,,,,repeat,number,numRpt,k,0.38,Lo,,,,,,2,,,,,,,,low,3,0,3,0,1,,,,,,,,,
297556,2022-12-06_06h29.32.188,vts_reward_expectancy_bt,2022.2.4,MacIntel,120.0048002,Chrome,1728,1117,,,,,1,814,,,,,,,,,,,,,,,,,S,167,hexagon,1,0,,,,,,,,,,,,,,,,repeat,number,numRpt,k,0.4149,Hi,,,,,,2,,,,,,,,low,4,0,4,0,1,,,,,,,,,
297556,2022-12-06_06h29.32.188,vts_reward_expectancy_bt,2022.2.4,MacIntel,120.0048002,Chrome,1728,1117,,,,,0,814,,,,,,,,,,,,,,,,,Y,125,circle,1,0,,,,,,,,,,,,,,,,repeat,number,numRpt,j,0.5413,Hi,,,,,,2,,,,,,,,low,5,0,5,0,1,,,,,,,,,
297556,2022-12-06_06h29.32.188,vts_reward_expectancy_bt,2022.2.4,MacIntel,120.0048002,Chrome,1728,1117,,,,,10,824,,,,,,,,,,,,,,,,,W,181,star,1,0,,,,,,,,,,,,,,,,repeat,number,numRpt,k,0.46,Lo,,,,,,2,,,,,,,,low,6,0,6,0,1,,,,,,,,,
297556,2022-12-06_06h29.32.188,vts_reward_expectancy_bt,2022.2.4,MacIntel,120.0048002,Chrome,1728,1117,,,,,1,825,,,,,,,,,,,,,,,,,B,132,triangle,1,0,,,,,,,,,,,,,,,,repeat,number,numRpt,j,0.4018,Lo,,,,,,2,,,,,,,,low,7,0,7,0,1,,,,,,,,,
297556,2022-12-06_06h29.32.188,vts_reward_expectancy_bt,2022.2.4,MacIntel,120.0048002,Chrome,1728,1117,,,,,0,825,,,,,,,,,,,,,,,,,F,146,star,0,0,,,,,,,,,,,,,,,,repeat,number,NA,k,0.4318,Lo,,,,,,2,,,,,,,,low,8,0,8,0,1,,,,,,,,,
297556,2022-12-06_06h29.32.188,vts_reward_expectancy_bt,2022.2.4,MacIntel,120.0048002,Chrome,1728,1117,,,,,0,825,,,,,,,,,,,,,,,,,U,174,circle,1,1,,,,,,,,,,,,,,,,repeat,number,numRpt,k,0.4805,Hi,,,,,,2,,,,,,,,low,9,0,9,0,1,,,,,,,,,
297556,2022-12-06_06h29.32.188,vts_reward_expectancy_bt,2022.2.4,MacIntel,120.0048002,Chrome,1728,1117,,,,,0,825,,,,,,,,,,,,,,,,,H,139,hexagon,1,0,,,,,,,,,,,,,,,,repeat,number,numRpt,j,0.453,Hi,,,,,,2,,,,,,,,low,10,0,10,0,1,,,,,,,,,
297556,2022-12-06_06h29.32.188,vts_reward_expectancy_bt,2022.2.4,MacIntel,120.0048002,Chrome,1728,1117,,,,,1,826,,,,,,,,,,,,,,,,,D,160,triangle,1,0,,,,,,,,,,,,,,,,repeat,number,numRpt,k,0.488,Lo,,,,,,2,,,,,,,,low,11,0,11,0,1,,,,,,,,,
297556,2022-12-06_06h29.32.188,vts_reward_expectancy_bt,2022.2.4,MacIntel,120.0048002,Chrome,1728,1117,,,,,0,826,,,,,,,,,,,,,,,,,S,167,circle,1,0,,,,,,,,,,,,,,,,repeat,number,numRpt,k,0.4564,Hi,,,,,,2,,,,,,,,low,12,0,12,0,1,,,,,,,,,
297556,2022-12-06_06h29.32.188,vts_reward_expectancy_bt,2022.2.4,MacIntel,120.0048002,Chrome,1728,1117,,,,,10,836,,,,,,,,,,,,,,,,,Y,125,star,1,0,,,,,,,,,,,,,,,,repeat,number,numRpt,j,0.5294,Lo,,,,,,2,,,,,,,,low,13,0,13,0,1,,,,,,,,,
297556,2022-12-06_06h29.32.188,vts_reward_expectancy_bt,2022.2.4,MacIntel,120.0048002,Chrome,1728,1117,,,,,1,837,,,,,,,,,,,,,,,,,W,181,triangle,1,0,,,,,,,,,,,,,,,,repeat,number,numRpt,k,0.4547,Lo,,,,,,2,,,,,,,,low,14,0,14,0,1,,,,,,,,,
297556,2022-12-06_06h29.32.188,vts_reward_expectancy_bt,2022.2.4,MacIntel,120.0048002,Chrome,1728,1117,,,,,0,837,,,,,,,,,,,,,,,,,B,132,hexagon,1,0,,,,,,,,,,,,,,,,repeat,number,numRpt,j,0.4577,Hi,,,,,,2,,,,,,,,low,15,0,15,0,1,,,,,,,,,
297556,2022-12-06_06h29.32.188,vts_reward_expectancy_bt,2022.2.4,MacIntel,120.0048002,Chrome,1728,1117,,,,,0,837,,,,,,,,,,,,,,,,,U,181,hexagon,1,0,,,,,,,,,,,,,,,,repeat,number,numRpt,k,0.5328,Hi,,,,,,2,,,,,,,,low,16,0,16,0,1,,,,,,,,,
297556,2022-12-06_06h29.32.188,vts_reward_expectancy_bt,2022.2.4,MacIntel,120.0048002,Chrome,1728,1117,,,,,10,847,,,,,,,,,,,,,,,,,S,132,triangle,1,0,,,,,,,,,,,,,,,,repeat,number,numRpt,j,0.0959,Lo,,,,,,2,,,,,,,,low,17,0,17,0,1,,,,,,,,,
297556,2022-12-06_06h29.32.188,vts_reward_expectancy_bt,2022.2.4,MacIntel,120.0048002,Chrome,1728,1117,,,,,0,847,,,,,,,,,,,,,,,,,H,174,star,0,0,,,,,,,,,,,,,,,,repeat,number,NA,j,0.0123,Lo,,,,,,2,,,,,,,,low,18,0,18,0,1,,,,,,,,,
297556,2022-12-06_06h29.32.188,vts_reward_expectancy_bt,2022.2.4,MacIntel,120.0048002,Chrome,1728,1117,,,,,0,847,,,,,,,,,,,,,,,,,Y,125,circle,0,1,,,,,,,,,,,,,,,,repeat,number,NA,k,0.1719,Lo,,,,,,2,,,,,,,,low,19,0,19,0,1,,,,,,,,,
297556,2022-12-06_06h29.32.188,vts_reward_expectancy_bt,2022.2.4,MacIntel,120.0048002,Chrome,1728,1117,,,,,0,847,,,,,,,,,,,,,,,,,W,160,hexagon,1,1,,,,,,,,,,,,,,,,repeat,number,numRpt,k,0.4564,Hi,,,,,,2,,,,,,,,low,20,0,20,0,1,,,,,,,,,
297556,2022-12-06_06h29.32.188,vts_reward_expectancy_bt,2022.2.4,MacIntel,120.0048002,Chrome,1728,1117,,,,,1,848,,,,,,,,,,,,,,,,,F,139,circle,1,0,,,,,,,,,,,,,,,,repeat,number,numRpt,j,0.3309,Hi,,,,,,2,,,,,,,,low,21,0,21,0,1,,,,,,,,,
297556,2022-12-06_06h29.32.188,vts_reward_expectancy_bt,2022.2.4,MacIntel,120.0048002,Chrome,1728,1117,,,,,1,849,,,,,,,,,,,,,,,,,B,167,triangle,1,0,,,,,,,,,,,,,,,,repeat,number,numRpt,k,0.4627,Lo,,,,,,2,,,,,,,,low,22,0,22,0,1,,,,,,,,,
297556,2022-12-06_06h29.32.188,vts_reward_expectancy_bt,2022.2.4,MacIntel,120.0048002,Chrome,1728,1117,,,,,10,859,,,,,,,,,,,,,,,,,D,146,star,1,0,,,,,,,,,,,,,,,,repeat,number,numRpt,j,0.4391,Lo,,,,,,2,,,,,,,,low,23,0,23,0,1,,,,,,,,,
297556,2022-12-06_06h29.32.188,vts_reward_expectancy_bt,2022.2.4,MacIntel,120.0048002,Chrome,1728,1117,,,,,10,869,,,,,,,,,,,,,,,,,F,146,star,1,0,,,,,,,,,,,,,,,,repeat,number,numRpt,j,0.4718,Lo,,,,,,2,,,,,,,,low,24,0,24,0,1,,,,,,,,,
297556,2022-12-06_06h29.32.188,vts_reward_expectancy_bt,2022.2.4,MacIntel,120.0048002,Chrome,1728,1117,,,,,0,869,,,,,,,,,,,,,,,,,S,174,circle,1,0,,,,,,,,,,,,,,,,repeat,number,numRpt,k,0.565,Hi,,,,,,2,,,,,,,,low,25,0,25,0,1,,,,,,,,,
297556,2022-12-06_06h29.32.188,vts_reward_expectancy_bt,2022.2.4,MacIntel,120.0048002,Chrome,1728,1117,,,,,1,870,,,,,,,,,,,,,,,,,U,125,hexagon,1,0,,,,,,,,,,,,,,,,repeat,number,numRpt,j,0.3884,Hi,,,,,,2,,,,,,,,low,26,0,26,0,1,,,,,,,,,
297556,2022-12-06_06h29.32.188,vts_reward_expectancy_bt,2022.2.4,MacIntel,120.0048002,Chrome,1728,1117,,,,,0,870,,,,,,,,,,,,,,,,,W,132,triangle,0,0,,,,,,,,,,,,,,,,repeat,number,NA,k,0.3874,Hi,,,,,,2,,,,,,,,low,27,0,27,0,1,,,,,,,,,
297556,2022-12-06_06h29.32.188,vts_reward_expectancy_bt,2022.2.4,MacIntel,120.0048002,Chrome,1728,1117,,,,,10,880,,,,,,,,,,,,,,,,,B,181,hexagon,1,1,,,,,,,,,,,,,,,,repeat,number,numRpt,k,0.412,Hi,,,,,,2,,,,,,,,low,28,0,28,0,1,,,,,,,,,
297556,2022-12-06_06h29.32.188,vts_reward_expectancy_bt,2022.2.4,MacIntel,120.0048002,Chrome,1728,1117,,,,,0,880,,,,,,,,,,,,,,,,,H,160,triangle,0,0,,,,,,,,,,,,,,,,repeat,number,NA,j,0.4288,Hi,,,,,,2,,,,,,,,low,29,0,29,0,1,,,,,,,,,
297556,2022-12-06_06h29.32.188,vts_reward_expectancy_bt,2022.2.4,MacIntel,120.0048002,Chrome,1728,1117,,,,,1,881,,,,,,,,,,,,,,,,,Y,167,star,1,1,,,,,,,,,,,,,,,,repeat,number,numRpt,k,0.4042,Lo,,,,,,2,,,,,,,,low,30,0,30,0,1,,,,,,,,,
297556,2022-12-06_06h29.32.188,vts_reward_expectancy_bt,2022.2.4,MacIntel,120.0048002,Chrome,1728,1117,,,,,10,891,,,,,,,,,,,,,,,,,D,139,circle,1,0,,,,,,,,,,,,,,,,repeat,number,numRpt,j,0.4223,Hi,,,,,,2,,,,,,,,low,31,0,31,0,1,,,,,,,,,
297556,2022-12-06_06h29.32.188,vts_reward_expectancy_bt,2022.2.4,MacIntel,120.0048002,Chrome,1728,1117,,,,,10,901,,,,,,,,,,,,,,,,,S,132,triangle,1,0,,,,,,,,,,,,,,,,repeat,number,numRpt,j,0.7382,Lo,,,,,,3,,,,,,space,2.4402,low,0,0,0,0,1,,,,,,,,,
297556,2022-12-06_06h29.32.188,vts_reward_expectancy_bt,2022.2.4,MacIntel,120.0048002,Chrome,1728,1117,,,,,0,901,,,,,,,,,,,,,,,,,B,125,hexagon,1,0,,,,,,,,,,,,,,,,repeat,number,numRpt,j,0.6053,Hi,,,,,,3,,,,,,,,low,1,0,1,0,1,,,,,,,,,
297556,2022-12-06_06h29.32.188,vts_reward_expectancy_bt,2022.2.4,MacIntel,120.0048002,Chrome,1728,1117,,,,,0,901,,,,,,,,,,,,,,,,,D,160,circle,1,0,,,,,,,,,,,,,,,,repeat,number,numRpt,k,0.5369,Hi,,,,,,3,,,,,,,,low,2,0,2,0,1,,,,,,,,,
297556,2022-12-06_06h29.32.188,vts_reward_expectancy_bt,2022.2.4,MacIntel,120.0048002,Chrome,1728,1117,,,,,0,901,,,,,,,,,,,,,,,,,Y,167,star,0,0,,,,,,,,,,,,,,,,repeat,number,NA,j,0.328,Hi,,,,,,3,,,,,,,,low,3,0,3,0,1,,,,,,,,,
297556,2022-12-06_06h29.32.188,vts_reward_expectancy_bt,2022.2.4,MacIntel,120.0048002,Chrome,1728,1117,,,,,10,911,,,,,,,,,,,,,,,,,W,181,triangle,1,1,,,,,,,,,,,,,,,,repeat,number,numRpt,k,0.4121,Lo,,,,,,3,,,,,,,,low,4,0,4,0,1,,,,,,,,,
297556,2022-12-06_06h29.32.188,vts_reward_expectancy_bt,2022.2.4,MacIntel,120.0048002,Chrome,1728,1117,,,,,0,911,,,,,,,,,,,,,,,,,F,146,hexagon,0,0,,,,,,,,,,,,,,,,repeat,number,NA,k,0.4263,Lo,,,,,,3,,,,,,,,low,5,0,5,0,1,,,,,,,,,
297556,2022-12-06_06h29.32.188,vts_reward_expectancy_bt,2022.2.4,MacIntel,120.0048002,Chrome,1728,1117,,,,,10,921,,,,,,,,,,,,,,,,,U,174,circle,1,1,,,,,,,,,,,,,,,,repeat,number,numRpt,k,0.372,Hi,,,,,,3,,,,,,,,low,6,0,6,0,1,,,,,,,,,
297556,2022-12-06_06h29.32.188,vts_reward_expectancy_bt,2022.2.4,MacIntel,120.0048002,Chrome,1728,1117,,,,,10,931,,,,,,,,,,,,,,,,,H,139,star,1,0,,,,,,,,,,,,,,,,repeat,number,numRpt,j,0.3974,Lo,,,,,,3,,,,,,,,low,7,0,7,0,1,,,,,,,,,
297556,2022-12-06_06h29.32.188,vts_reward_expectancy_bt,2022.2.4,MacIntel,120.0048002,Chrome,1728,1117,,,,,1,932,,,,,,,,,,,,,,,,,S,132,hexagon,1,0,,,,,,,,,,,,,,,,repeat,number,numRpt,j,0.3737,Hi,,,,,,3,,,,,,,,low,8,0,8,0,1,,,,,,,,,
297556,2022-12-06_06h29.32.188,vts_reward_expectancy_bt,2022.2.4,MacIntel,120.0048002,Chrome,1728,1117,,,,,1,933,,,,,,,,,,,,,,,,,B,125,circle,1,0,,,,,,,,,,,,,,,,repeat,number,numRpt,j,0.3793,Hi,,,,,,3,,,,,,,,low,9,0,9,0,1,,,,,,,,,
297556,2022-12-06_06h29.32.188,vts_reward_expectancy_bt,2022.2.4,MacIntel,120.0048002,Chrome,1728,1117,,,,,1,934,,,,,,,,,,,,,,,,,D,160,triangle,1,0,,,,,,,,,,,,,,,,repeat,number,numRpt,k,0.5013,Lo,,,,,,3,,,,,,,,low,10,0,10,0,1,,,,,,,,,
297556,2022-12-06_06h29.32.188,vts_reward_expectancy_bt,2022.2.4,MacIntel,120.0048002,Chrome,1728,1117,,,,,1,935,,,,,,,,,,,,,,,,,Y,167,star,1,0,,,,,,,,,,,,,,,,repeat,number,numRpt,k,0.5146,Lo,,,,,,3,,,,,,,,low,11,0,11,0,1,,,,,,,,,
297556,2022-12-06_06h29.32.188,vts_reward_expectancy_bt,2022.2.4,MacIntel,120.0048002,Chrome,1728,1117,,,,,1,936,,,,,,,,,,,,,,,,,W,181,star,1,0,,,,,,,,,,,,,,,,repeat,number,numRpt,k,0.4255,Lo,,,,,,3,,,,,,,,low,12,0,12,0,1,,,,,,,,,
297556,2022-12-06_06h29.32.188,vts_reward_expectancy_bt,2022.2.4,MacIntel,120.0048002,Chrome,1728,1117,,,,,1,937,,,,,,,,,,,,,,,,,F,146,triangle,1,0,,,,,,,,,,,,,,,,repeat,number,numRpt,j,0.6319,Lo,,,,,,3,,,,,,,,low,13,0,13,0,1,,,,,,,,,
297556,2022-12-06_06h29.32.188,vts_reward_expectancy_bt,2022.2.4,MacIntel,120.0048002,Chrome,1728,1117,,,,,10,947,,,,,,,,,,,,,,,,,U,174,circle,1,0,,,,,,,,,,,,,,,,repeat,number,numRpt,k,0.3933,Hi,,,,,,3,,,,,,,,low,14,0,14,0,1,,,,,,,,,
297556,2022-12-06_06h29.32.188,vts_reward_expectancy_bt,2022.2.4,MacIntel,120.0048002,Chrome,1728,1117,,,,,0,947,,,,,,,,,,,,,,,,,H,139,hexagon,1,0,,,,,,,,,,,,,,,,repeat,number,numRpt,j,0.581,Hi,,,,,,3,,,,,,,,low,15,0,15,0,1,,,,,,,,,
297556,2022-12-06_06h29.32.188,vts_reward_expectancy_bt,2022.2.4,MacIntel,120.0048002,Chrome,1728,1117,,,,,10,957,,,,,,,,,,,,,,,,,W,174,star,1,0,,,,,,,,,,,,,,,,repeat,number,numRpt,k,0.5435,Lo,,,,,,3,,,,,,,,low,16,0,16,0,1,,,,,,,,,
297556,2022-12-06_06h29.32.188,vts_reward_expectancy_bt,2022.2.4,MacIntel,120.0048002,Chrome,1728,1117,,,,,0,957,,,,,,,,,,,,,,,,,U,160,hexagon,1,0,,,,,,,,,,,,,,,,repeat,number,numRpt,k,0.5133,Hi,,,,,,3,,,,,,,,low,17,0,17,0,1,,,,,,,,,
297556,2022-12-06_06h29.32.188,vts_reward_expectancy_bt,2022.2.4,MacIntel,120.0048002,Chrome,1728,1117,,,,,0,957,,,,,,,,,,,,,,,,,Y,167,circle,1,0,,,,,,,,,,,,,,,,repeat,number,numRpt,k,0.4699,Hi,,,,,,3,,,,,,,,low,18,0,18,0,1,,,,,,,,,
297556,2022-12-06_06h29.32.188,vts_reward_expectancy_bt,2022.2.4,MacIntel,120.0048002,Chrome,1728,1117,,,,,1,958,,,,,,,,,,,,,,,,,D,125,triangle,1,0,,,,,,,,,,,,,,,,repeat,number,numRpt,j,0.5506,Lo,,,,,,3,,,,,,,,low,19,0,19,0,1,,,,,,,,,
297556,2022-12-06_06h29.32.188,vts_reward_expectancy_bt,2022.2.4,MacIntel,120.0048002,Chrome,1728,1117,,,,,1,959,,,,,,,,,,,,,,,,,H,132,triangle,1,0,,,,,,,,,,,,,,,,repeat,number,numRpt,j,0.4471,Lo,,,,,,3,,,,,,,,low,20,0,20,0,1,,,,,,,,,
297556,2022-12-06_06h29.32.188,vts_reward_expectancy_bt,2022.2.4,MacIntel,120.0048002,Chrome,1728,1117,,,,,0,959,,,,,,,,,,,,,,,,,S,139,circle,1,0,,,,,,,,,,,,,,,,repeat,number,numRpt,j,0.4361,Hi,,,,,,3,,,,,,,,low,21,0,21,0,1,,,,,,,,,
297556,2022-12-06_06h29.32.188,vts_reward_expectancy_bt,2022.2.4,MacIntel,120.0048002,Chrome,1728,1117,,,,,0,959,,,,,,,,,,,,,,,,,B,146,hexagon,0,0,,,,,,,,,,,,,,,,repeat,number,NA,k,0.4154,Hi,,,,,,3,,,,,,,,low,22,0,22,0,1,,,,,,,,,
297556,2022-12-06_06h29.32.188,vts_reward_expectancy_bt,2022.2.4,MacIntel,120.0048002,Chrome,1728,1117,,,,,0,959,,,,,,,,,,,,,,,,,F,181,star,0,1,,,,,,,,,,,,,,,,repeat,number,NA,j,0.3911,Hi,,,,,,3,,,,,,,,low,23,0,23,0,1,,,,,,,,,
297556,2022-12-06_06h29.32.188,vts_reward_expectancy_bt,2022.2.4,MacIntel,120.0048002,Chrome,1728,1117,,,,,10,969,,,,,,,,,,,,,,,,,U,174,triangle,1,1,,,,,,,,,,,,,,,,repeat,number,numRpt,k,0.4258,Lo,,,,,,3,,,,,,,,low,24,0,24,0,1,,,,,,,,,
297556,2022-12-06_06h29.32.188,vts_reward_expectancy_bt,2022.2.4,MacIntel,120.0048002,Chrome,1728,1117,,,,,0,969,,,,,,,,,,,,,,,,,F,167,hexagon,1,0,,,,,,,,,,,,,,,,repeat,number,numRpt,k,0.5772,Hi,,,,,,3,,,,,,,,low,25,0,25,0,1,,,,,,,,,
297556,2022-12-06_06h29.32.188,vts_reward_expectancy_bt,2022.2.4,MacIntel,120.0048002,Chrome,1728,1117,,,,,0,969,,,,,,,,,,,,,,,,,D,125,circle,0,0,,,,,,,,,,,,,,,,repeat,number,NA,k,0.3904,Hi,,,,,,3,,,,,,,,low,26,0,26,0,1,,,,,,,,,
297556,2022-12-06_06h29.32.188,vts_reward_expectancy_bt,2022.2.4,MacIntel,120.0048002,Chrome,1728,1117,,,,,1,970,,,,,,,,,,,,,,,,,H,146,star,1,1,,,,,,,,,,,,,,,,repeat,number,numRpt,j,0.5274,Lo,,,,,,3,,,,,,,,low,27,0,27,0,1,,,,,,,,,
297556,2022-12-06_06h29.32.188,vts_reward_expectancy_bt,2022.2.4,MacIntel,120.0048002,Chrome,1728,1117,,,,,10,980,,,,,,,,,,,,,,,,,Y,160,triangle,1,0,,,,,,,,,,,,,,,,repeat,number,numRpt,k,0.3347,Lo,,,,,,3,,,,,,,,low,28,0,28,0,1,,,,,,,,,
297556,2022-12-06_06h29.32.188,vts_reward_expectancy_bt,2022.2.4,MacIntel,120.0048002,Chrome,1728,1117,,,,,10,990,,,,,,,,,,,,,,,,,S,132,hexagon,1,0,,,,,,,,,,,,,,,,repeat,number,numRpt,j,0.4048,Hi,,,,,,3,,,,,,,,low,29,0,29,0,1,,,,,,,,,
297556,2022-12-06_06h29.32.188,vts_reward_expectancy_bt,2022.2.4,MacIntel,120.0048002,Chrome,1728,1117,,,,,10,1000,,,,,,,,,,,,,,,,,B,181,star,1,0,,,,,,,,,,,,,,,,repeat,number,numRpt,k,0.3998,Lo,,,,,,3,,,,,,,,low,30,0,30,0,1,,,,,,,,,
297556,2022-12-06_06h29.32.188,vts_reward_expectancy_bt,2022.2.4,MacIntel,120.0048002,Chrome,1728,1117,,,,,0,1000,,,,,,,,,,,,,,,,,W,139,circle,1,0,,,,,,,,,,,,,,,,repeat,number,numRpt,j,0.4285,Hi,,,,,,3,,,,,,,,low,31,0,31,0,1,,,,,,,,,
297556,2022-12-06_06h29.32.188,vts_reward_expectancy_bt,2022.2.4,MacIntel,120.0048002,Chrome,1728,1117,,,,,1,1001,,,,,,,,,,,,,,,,,Y,139,circle,1,0,,,,,,,,,,,,,,,,repeat,number,numRpt,j,0.3902,Hi,,,,,,4,,,,,,space,1.2714,low,0,0,0,0,1,,,,,,,,,
297556,2022-12-06_06h29.32.188,vts_reward_expectancy_bt,2022.2.4,MacIntel,120.0048002,Chrome,1728,1117,,,,,1,1002,,,,,,,,,,,,,,,,,D,132,star,1,0,,,,,,,,,,,,,,,,repeat,number,numRpt,j,0.42,Lo,,,,,,4,,,,,,,,low,1,0,1,0,1,,,,,,,,,
297556,2022-12-06_06h29.32.188,vts_reward_expectancy_bt,2022.2.4,MacIntel,120.0048002,Chrome,1728,1117,,,,,10,1012,,,,,,,,,,,,,,,,,S,146,triangle,1,0,,,,,,,,,,,,,,,,repeat,number,numRpt,j,0.4057,Lo,,,,,,4,,,,,,,,low,2,0,2,0,1,,,,,,,,,
297556,2022-12-06_06h29.32.188,vts_reward_expectancy_bt,2022.2.4,MacIntel,120.0048002,Chrome,1728,1117,,,,,0,1012,,,,,,,,,,,,,,,,,B,167,hexagon,1,0,,,,,,,,,,,,,,,,repeat,number,numRpt,k,0.484,Hi,,,,,,4,,,,,,,,low,3,0,3,0,1,,,,,,,,,
297556,2022-12-06_06h29.32.188,vts_reward_expectancy_bt,2022.2.4,MacIntel,120.0048002,Chrome,1728,1117,,,,,0,1012,,,,,,,,,,,,,,,,,U,174,circle,1,0,,,,,,,,,,,,,,,,repeat,number,numRpt,k,0.4542,Hi,,,,,,4,,,,,,,,low,4,0,4,0,1,,,,,,,,,
297556,2022-12-06_06h29.32.188,vts_reward_expectancy_bt,2022.2.4,MacIntel,120.0048002,Chrome,1728,1117,,,,,1,1013,,,,,,,,,,,,,,,,,H,125,star,1,0,,,,,,,,,,,,,,,,repeat,number,numRpt,j,0.4225,Lo,,,,,,4,,,,,,,,low,5,0,5,0,1,,,,,,,,,
297556,2022-12-06_06h29.32.188,vts_reward_expectancy_bt,2022.2.4,MacIntel,120.0048002,Chrome,1728,1117,,,,,1,1014,,,,,,,,,,,,,,,,,W,160,triangle,1,0,,,,,,,,,,,,,,,,repeat,number,numRpt,k,0.5058,Lo,,,,,,4,,,,,,,,low,6,0,6,0,1,,,,,,,,,
297556,2022-12-06_06h29.32.188,vts_reward_expectancy_bt,2022.2.4,MacIntel,120.0048002,Chrome,1728,1117,,,,,0,1014,,,,,,,,,,,,,,,,,F,181,hexagon,0,0,,,,,,,,,,,,,,,,repeat,number,NA,j,0.637,Lo,,,,,,4,,,,,,,,low,7,0,7,0,1,,,,,,,,,
297556,2022-12-06_06h29.32.188,vts_reward_expectancy_bt,2022.2.4,MacIntel,120.0048002,Chrome,1728,1117,,,,,0,1014,,,,,,,,,,,,,,,,,Y,139,hexagon,1,1,,,,,,,,,,,,,,,,repeat,number,numRpt,j,0.596,Hi,,,,,,4,,,,,,,,low,8,0,8,0,1,,,,,,,,,
297556,2022-12-06_06h29.32.188,vts_reward_expectancy_bt,2022.2.4,MacIntel,120.0048002,Chrome,1728,1117,,,,,0,1014,,,,,,,,,,,,,,,,,D,132,circle,1,0,,,,,,,,,,,,,,,,repeat,number,numRpt,j,0.4757,Hi,,,,,,4,,,,,,,,low,9,0,9,0,1,,,,,,,,,
