participant,date,expName,psychopyVersion,OS,frameRate,browser,xResolution,yResolution,key_resp.keys,key_resp.rt,training_resp.keys,training_resp.rt,points_trial,points_cumul,trainBlock,training.thisRepN,training.thisTrialN,training.thisN,training.thisIndex,training.ran,LTriangleOpac,LCircleOpac,LHexagonOpac,LStarOpac,RTriangleOpac,RCircleOpac,RHexagonOpac,RStarOpac,LShape_ID,RShape_ID,curr_topStim,curr_bottStim,curr_shape,acc,E1,target_resp_prac1.keys,target_resp_prac1.rt,pracBlock,task1_prac_trials.thisRepN,task1_prac_trials.thisTrialN,task1_prac_trials.thisN,task1_prac_trials.thisIndex,task1_prac_trials.ran,target_resp_prac2.keys,target_resp_prac2.rt,task2_praac_trials.thisRepN,task2_praac_trials.thisTrialN,task2_praac_trials.thisN,task2_praac_trials.thisIndex,task2_praac_trials.ran,alt,task,condition,target_resp.keys,rewCond,vts_practice_trials.thisRepN,vts_practice_trials.thisTrialN,vts_practice_trials.thisN,vts_practice_trials.thisIndex,vts_practice_trials.ran,target_resp.rt,blockNum,trials_norew.thisRepN,trials_norew.thisTrialN,trials_norew.thisN,trials_norew.thisIndex,trials_norew.ran,key_resp_2.keys,key_resp_2.rt,rewExpectancy,trials_rew.thisRepN,trials_rew.thisTrialN,trials_rew.thisN,trials_rew.thisIndex,trials_rew.ran,Q1,Q2,Q2_text,Q3,Q4,Q5_text,Q5,xRes,yRes
297523,2022-11-19_15h16.14.881,vts_reward_expectancy_bt,2022.2.4,Win32,60.20832079,Chrome,1366,768,,,,,,,,,,,,,,,,,,,,,,,,,,,,,,,,,,,,,,,,,,,,,,,,,,,,,,,,,,,,,,,,,,,,,,,,,,,,
297523,2022-11-19_15h16.14.881,vts_reward_expectancy_bt,2022.2.4,Win32,60.20832079,Chrome,1366,768,space,13.7915,,,,,,,,,,,,,,,,,,,,,,,,,,,,,,,,,,,,,,,,,,,,,,,,,,,,,,,,,,,,,,,,,,,,,,,,,,
297523,2022-11-19_15h16.14.881,vts_reward_expectancy_bt,2022.2.4,Win32,60.20832079,Chrome,1366,768,,,,,,,,,,,,,,,,,,,,,,,,,,,,,,,,,,,,,,,,,,,,,,,,,,,,,,,,,,,,,,,,,,,,,,,,,,,,
297523,2022-11-19_15h16.14.881,vts_reward_expectancy_bt,2022.2.4,Win32,60.20832079,Chrome,1366,768,,,l,2.7372,10,10,0,0,0,0,8,1,0,0,1,0,0,0,0,1,hexagon,star,,,,,,,,,,,,,,,,,,,,,,,,,,,,,,,,,,,,,,,,,,,,,,,,,,,,,,
297523,2022-11-19_15h16.14.881,vts_reward_expectancy_bt,2022.2.4,Win32,60.20832079,Chrome,1366,768,,,a,1.5635,10,20,0,0,1,1,10,1,0,0,0,1,0,1,0,0,star ,circle,,,,,,,,,,,,,,,,,,,,,,,,,,,,,,,,,,,,,,,,,,,,,,,,,,,,,,
297523,2022-11-19_15h16.14.881,vts_reward_expectancy_bt,2022.2.4,Win32,60.20832079,Chrome,1366,768,,,l,0.9999,10,30,0,0,2,2,2,1,1,0,0,0,0,0,0,1,triangle,star,,,,,,,,,,,,,,,,,,,,,,,,,,,,,,,,,,,,,,,,,,,,,,,,,,,,,,
297523,2022-11-19_15h16.14.881,vts_reward_expectancy_bt,2022.2.4,Win32,60.20832079,Chrome,1366,768,,,a,1.5622,10,40,0,0,3,3,0,1,1,0,0,0,0,1,0,0,triangle,circle,,,,,,,,,,,,,,,,,,,,,,,,,,,,,,,,,,,,,,,,,,,,,,,,,,,,,,
297523,2022-11-19_15h16.14.881,vts_reward_expectancy_bt,2022.2.4,Win32,60.20832079,Chrome,1366,768,,,a,0.8259,10,50,0,0,4,4,1,1,1,0,0,0,0,0,1,0,triangle,hexagon,,,,,,,,,,,,,,,,,,,,,,,,,,,,,,,,,,,,,,,,,,,,,,,,,,,,,,
297523,2022-11-19_15h16.14.881,vts_reward_expectancy_bt,2022.2.4,Win32,60.20832079,Chrome,1366,768,,,l,0.755,1,51,0,0,5,5,11,1,0,0,0,1,0,0,1,0,star,hexagon,,,,,,,,,,,,,,,,,,,,,,,,,,,,,,,,,,,,,,,,,,,,,,,,,,,,,,
297523,2022-11-19_15h16.14.881,vts_reward_expectancy_bt,2022.2.4,Win32,60.20832079,Chrome,1366,768,,,l,1.4632,10,61,0,0,6,6,5,1,0,1,0,0,0,0,0,1,circle,star,,,,,,,,,,,,,,,,,,,,,,,,,,,,,,,,,,,,,,,,,,,,,,,,,,,,,,
297523,2022-11-19_15h16.14.881,vts_reward_expectancy_bt,2022.2.4,Win32,60.20832079,Chrome,1366,768,,,a,1.5518,10,71,0,0,7,7,7,1,0,0,1,0,0,1,0,0,hexagon,circle,,,,,,,,,,,,,,,,,,,,,,,,,,,,,,,,,,,,,,,,,,,,,,,,,,,,,,
297523,2022-11-19_15h16.14.881,vts_reward_expectancy_bt,2022.2.4,Win32,60.20832079,Chrome,1366,768,,,l,1.5692,1,72,0,0,8,8,3,1,0,1,0,0,1,0,0,0,circle,triangle,,,,,,,,,,,,,,,,,,,,,,,,,,,,,,,,,,,,,,,,,,,,,,,,,,,,,,
297523,2022-11-19_15h16.14.881,vts_reward_expectancy_bt,2022.2.4,Win32,60.20832079,Chrome,1366,768,,,a,0.957,1,73,0,0,9,9,6,1,0,0,1,0,1,0,0,0,hexagon,triangle,,,,,,,,,,,,,,,,,,,,,,,,,,,,,,,,,,,,,,,,,,,,,,,,,,,,,,
297523,2022-11-19_15h16.14.881,vts_reward_expectancy_bt,2022.2.4,Win32,60.20832079,Chrome,1366,768,,,a,1.3716,1,74,0,0,10,10,4,1,0,1,0,0,0,0,1,0,circle,hexagon,,,,,,,,,,,,,,,,,,,,,,,,,,,,,,,,,,,,,,,,,,,,,,,,,,,,,,
297523,2022-11-19_15h16.14.881,vts_reward_expectancy_bt,2022.2.4,Win32,60.20832079,Chrome,1366,768,,,a,1.1655,10,84,0,0,11,11,9,1,0,0,0,1,1,0,0,0,star,triangle,,,,,,,,,,,,,,,,,,,,,,,,,,,,,,,,,,,,,,,,,,,,,,,,,,,,,,
297523,2022-11-19_15h16.14.881,vts_reward_expectancy_bt,2022.2.4,Win32,60.20832079,Chrome,1366,768,,,l,0.6661,1,85,0,1,0,12,5,1,0,1,0,0,0,0,0,1,circle,star,,,,,,,,,,,,,,,,,,,,,,,,,,,,,,,,,,,,,,,,,,,,,,,,,,,,,,
297523,2022-11-19_15h16.14.881,vts_reward_expectancy_bt,2022.2.4,Win32,60.20832079,Chrome,1366,768,,,a,0.655,1,86,0,1,1,13,11,1,0,0,0,1,0,0,1,0,star,hexagon,,,,,,,,,,,,,,,,,,,,,,,,,,,,,,,,,,,,,,,,,,,,,,,,,,,,,,
297523,2022-11-19_15h16.14.881,vts_reward_expectancy_bt,2022.2.4,Win32,60.20832079,Chrome,1366,768,,,a,1.987,1,87,0,1,2,14,4,1,0,1,0,0,0,0,1,0,circle,hexagon,,,,,,,,,,,,,,,,,,,,,,,,,,,,,,,,,,,,,,,,,,,,,,,,,,,,,,
297523,2022-11-19_15h16.14.881,vts_reward_expectancy_bt,2022.2.4,Win32,60.20832079,Chrome,1366,768,,,l,1.0465,1,88,0,1,3,15,7,1,0,0,1,0,0,1,0,0,hexagon,circle,,,,,,,,,,,,,,,,,,,,,,,,,,,,,,,,,,,,,,,,,,,,,,,,,,,,,,
297523,2022-11-19_15h16.14.881,vts_reward_expectancy_bt,2022.2.4,Win32,60.20832079,Chrome,1366,768,,,l,0.5823,1,89,0,1,4,16,2,1,1,0,0,0,0,0,0,1,triangle,star,,,,,,,,,,,,,,,,,,,,,,,,,,,,,,,,,,,,,,,,,,,,,,,,,,,,,,
297523,2022-11-19_15h16.14.881,vts_reward_expectancy_bt,2022.2.4,Win32,60.20832079,Chrome,1366,768,,,l,0.7471,10,99,0,1,5,17,3,1,0,1,0,0,1,0,0,0,circle,triangle,,,,,,,,,,,,,,,,,,,,,,,,,,,,,,,,,,,,,,,,,,,,,,,,,,,,,,
297523,2022-11-19_15h16.14.881,vts_reward_expectancy_bt,2022.2.4,Win32,60.20832079,Chrome,1366,768,,,a,0.9002,10,109,0,1,6,18,0,1,1,0,0,0,0,1,0,0,triangle,circle,,,,,,,,,,,,,,,,,,,,,,,,,,,,,,,,,,,,,,,,,,,,,,,,,,,,,,
297523,2022-11-19_15h16.14.881,vts_reward_expectancy_bt,2022.2.4,Win32,60.20832079,Chrome,1366,768,,,a,0.7763,10,119,0,1,7,19,9,1,0,0,0,1,1,0,0,0,star,triangle,,,,,,,,,,,,,,,,,,,,,,,,,,,,,,,,,,,,,,,,,,,,,,,,,,,,,,
297523,2022-11-19_15h16.14.881,vts_reward_expectancy_bt,2022.2.4,Win32,60.20832079,Chrome,1366,768,,,a,1.1492,10,129,0,1,8,20,1,1,1,0,0,0,0,0,1,0,triangle,hexagon,,,,,,,,,,,,,,,,,,,,,,,,,,,,,,,,,,,,,,,,,,,,,,,,,,,,,,
297523,2022-11-19_15h16.14.881,vts_reward_expectancy_bt,2022.2.4,Win32,60.20832079,Chrome,1366,768,,,a,0.833,10,139,0,1,9,21,6,1,0,0,1,0,1,0,0,0,hexagon,triangle,,,,,,,,,,,,,,,,,,,,,,,,,,,,,,,,,,,,,,,,,,,,,,,,,,,,,,
297523,2022-11-19_15h16.14.881,vts_reward_expectancy_bt,2022.2.4,Win32,60.20832079,Chrome,1366,768,,,a,3.0144,10,149,0,1,10,22,10,1,0,0,0,1,0,1,0,0,star ,circle,,,,,,,,,,,,,,,,,,,,,,,,,,,,,,,,,,,,,,,,,,,,,,,,,,,,,,
297523,2022-11-19_15h16.14.881,vts_reward_expectancy_bt,2022.2.4,Win32,60.20832079,Chrome,1366,768,,,l,0.6323,1,150,0,1,11,23,8,1,0,0,1,0,0,0,0,1,hexagon,star,,,,,,,,,,,,,,,,,,,,,,,,,,,,,,,,,,,,,,,,,,,,,,,,,,,,,,
297523,2022-11-19_15h16.14.881,vts_reward_expectancy_bt,2022.2.4,Win32,60.20832079,Chrome,1366,768,,,a,0.9495,1,151,0,2,0,24,5,1,0,1,0,0,0,0,0,1,circle,star,,,,,,,,,,,,,,,,,,,,,,,,,,,,,,,,,,,,,,,,,,,,,,,,,,,,,,
297523,2022-11-19_15h16.14.881,vts_reward_expectancy_bt,2022.2.4,Win32,60.20832079,Chrome,1366,768,,,l,0.4863,1,152,0,2,1,25,8,1,0,0,1,0,0,0,0,1,hexagon,star,,,,,,,,,,,,,,,,,,,,,,,,,,,,,,,,,,,,,,,,,,,,,,,,,,,,,,
297523,2022-11-19_15h16.14.881,vts_reward_expectancy_bt,2022.2.4,Win32,60.20832079,Chrome,1366,768,,,a,0.7764,10,162,0,2,2,26,1,1,1,0,0,0,0,0,1,0,triangle,hexagon,,,,,,,,,,,,,,,,,,,,,,,,,,,,,,,,,,,,,,,,,,,,,,,,,,,,,,
297523,2022-11-19_15h16.14.881,vts_reward_expectancy_bt,2022.2.4,Win32,60.20832079,Chrome,1366,768,,,a,0.799,1,163,0,2,3,27,11,1,0,0,0,1,0,0,1,0,star,hexagon,,,,,,,,,,,,,,,,,,,,,,,,,,,,,,,,,,,,,,,,,,,,,,,,,,,,,,
297523,2022-11-19_15h16.14.881,vts_reward_expectancy_bt,2022.2.4,Win32,60.20832079,Chrome,1366,768,,,a,1.3208,1,164,0,2,4,28,4,1,0,1,0,0,0,0,1,0,circle,hexagon,,,,,,,,,,,,,,,,,,,,,,,,,,,,,,,,,,,,,,,,,,,,,,,,,,,,,,
297523,2022-11-19_15h16.14.881,vts_reward_expectancy_bt,2022.2.4,Win32,60.20832079,Chrome,1366,768,,,l,1.6317,10,174,0,2,5,29,0,1,1,0,0,0,0,1,0,0,triangle,circle,,,,,,,,,,,,,,,,,,,,,,,,,,,,,,,,,,,,,,,,,,,,,,,,,,,,,,
297523,2022-11-19_15h16.14.881,vts_reward_expectancy_bt,2022.2.4,Win32,60.20832079,Chrome,1366,768,,,a,0.8658,1,175,0,2,6,30,3,1,0,1,0,0,1,0,0,0,circle,triangle,,,,,,,,,,,,,,,,,,,,,,,,,,,,,,,,,,,,,,,,,,,,,,,,,,,,,,
297523,2022-11-19_15h16.14.881,vts_reward_expectancy_bt,2022.2.4,Win32,60.20832079,Chrome,1366,768,,,l,0.9665,10,185,0,2,7,31,9,1,0,0,0,1,1,0,0,0,star,triangle,,,,,,,,,,,,,,,,,,,,,,,,,,,,,,,,,,,,,,,,,,,,,,,,,,,,,,
297523,2022-11-19_15h16.14.881,vts_reward_expectancy_bt,2022.2.4,Win32,60.20832079,Chrome,1366,768,,,l,0.8833,10,195,0,2,8,32,6,1,0,0,1,0,1,0,0,0,hexagon,triangle,,,,,,,,,,,,,,,,,,,,,,,,,,,,,,,,,,,,,,,,,,,,,,,,,,,,,,
297523,2022-11-19_15h16.14.881,vts_reward_expectancy_bt,2022.2.4,Win32,60.20832079,Chrome,1366,768,,,a,0.8233,10,205,0,2,9,33,2,1,1,0,0,0,0,0,0,1,triangle,star,,,,,,,,,,,,,,,,,,,,,,,,,,,,,,,,,,,,,,,,,,,,,,,,,,,,,,
297523,2022-11-19_15h16.14.881,vts_reward_expectancy_bt,2022.2.4,Win32,60.20832079,Chrome,1366,768,,,l,1.0829,1,206,0,2,10,34,7,1,0,0,1,0,0,1,0,0,hexagon,circle,,,,,,,,,,,,,,,,,,,,,,,,,,,,,,,,,,,,,,,,,,,,,,,,,,,,,,
297523,2022-11-19_15h16.14.881,vts_reward_expectancy_bt,2022.2.4,Win32,60.20832079,Chrome,1366,768,,,a,1.8345,1,207,0,2,11,35,10,1,0,0,0,1,0,1,0,0,star ,circle,,,,,,,,,,,,,,,,,,,,,,,,,,,,,,,,,,,,,,,,,,,,,,,,,,,,,,
297523,2022-11-19_15h16.14.881,vts_reward_expectancy_bt,2022.2.4,Win32,60.20832079,Chrome,1366,768,,,l,1.0225,1,208,1,0,0,0,8,1,0,0,1,0,0,0,0,1,hexagon,star,,,,,,,,,,,,,,,,,,,,,,,,,,,,,,,,,,,,,,,,,,,,,,,,,,,,,,
297523,2022-11-19_15h16.14.881,vts_reward_expectancy_bt,2022.2.4,Win32,60.20832079,Chrome,1366,768,,,l,1.3522,10,218,1,0,1,1,6,1,0,0,1,0,1,0,0,0,hexagon,triangle,,,,,,,,,,,,,,,,,,,,,,,,,,,,,,,,,,,,,,,,,,,,,,,,,,,,,,
297523,2022-11-19_15h16.14.881,vts_reward_expectancy_bt,2022.2.4,Win32,60.20832079,Chrome,1366,768,,,l,1.2003,10,228,1,0,2,2,11,1,0,0,0,1,0,0,1,0,star,hexagon,,,,,,,,,,,,,,,,,,,,,,,,,,,,,,,,,,,,,,,,,,,,,,,,,,,,,,
297523,2022-11-19_15h16.14.881,vts_reward_expectancy_bt,2022.2.4,Win32,60.20832079,Chrome,1366,768,,,l,1.1144,1,229,1,0,3,3,10,1,0,0,0,1,0,1,0,0,star ,circle,,,,,,,,,,,,,,,,,,,,,,,,,,,,,,,,,,,,,,,,,,,,,,,,,,,,,,
297523,2022-11-19_15h16.14.881,vts_reward_expectancy_bt,2022.2.4,Win32,60.20832079,Chrome,1366,768,,,a,0.9539,10,239,1,0,4,4,1,1,1,0,0,0,0,0,1,0,triangle,hexagon,,,,,,,,,,,,,,,,,,,,,,,,,,,,,,,,,,,,,,,,,,,,,,,,,,,,,,
297523,2022-11-19_15h16.14.881,vts_reward_expectancy_bt,2022.2.4,Win32,60.20832079,Chrome,1366,768,,,a,0.6887,1,240,1,0,5,5,3,1,0,1,0,0,1,0,0,0,circle,triangle,,,,,,,,,,,,,,,,,,,,,,,,,,,,,,,,,,,,,,,,,,,,,,,,,,,,,,
297523,2022-11-19_15h16.14.881,vts_reward_expectancy_bt,2022.2.4,Win32,60.20832079,Chrome,1366,768,,,a,1.7086,1,241,1,0,6,6,9,1,0,0,0,1,1,0,0,0,star,triangle,,,,,,,,,,,,,,,,,,,,,,,,,,,,,,,,,,,,,,,,,,,,,,,,,,,,,,
297523,2022-11-19_15h16.14.881,vts_reward_expectancy_bt,2022.2.4,Win32,60.20832079,Chrome,1366,768,,,a,0.9975,1,242,1,0,7,7,5,1,0,1,0,0,0,0,0,1,circle,star,,,,,,,,,,,,,,,,,,,,,,,,,,,,,,,,,,,,,,,,,,,,,,,,,,,,,,
297523,2022-11-19_15h16.14.881,vts_reward_expectancy_bt,2022.2.4,Win32,60.20832079,Chrome,1366,768,,,l,0.6361,1,243,1,0,8,8,7,1,0,0,1,0,0,1,0,0,hexagon,circle,,,,,,,,,,,,,,,,,,,,,,,,,,,,,,,,,,,,,,,,,,,,,,,,,,,,,,
297523,2022-11-19_15h16.14.881,vts_reward_expectancy_bt,2022.2.4,Win32,60.20832079,Chrome,1366,768,,,a,1.2679,10,253,1,0,9,9,0,1,1,0,0,0,0,1,0,0,triangle,circle,,,,,,,,,,,,,,,,,,,,,,,,,,,,,,,,,,,,,,,,,,,,,,,,,,,,,,
297523,2022-11-19_15h16.14.881,vts_reward_expectancy_bt,2022.2.4,Win32,60.20832079,Chrome,1366,768,,,a,1.8443,1,254,1,0,10,10,4,1,0,1,0,0,0,0,1,0,circle,hexagon,,,,,,,,,,,,,,,,,,,,,,,,,,,,,,,,,,,,,,,,,,,,,,,,,,,,,,
297523,2022-11-19_15h16.14.881,vts_reward_expectancy_bt,2022.2.4,Win32,60.20832079,Chrome,1366,768,,,a,1.1991,10,264,1,0,11,11,2,1,1,0,0,0,0,0,0,1,triangle,star,,,,,,,,,,,,,,,,,,,,,,,,,,,,,,,,,,,,,,,,,,,,,,,,,,,,,,
297523,2022-11-19_15h16.14.881,vts_reward_expectancy_bt,2022.2.4,Win32,60.20832079,Chrome,1366,768,,,l,1.1481,10,274,1,1,0,12,5,1,0,1,0,0,0,0,0,1,circle,star,,,,,,,,,,,,,,,,,,,,,,,,,,,,,,,,,,,,,,,,,,,,,,,,,,,,,,
297523,2022-11-19_15h16.14.881,vts_reward_expectancy_bt,2022.2.4,Win32,60.20832079,Chrome,1366,768,,,a,0.7223,1,275,1,1,1,13,9,1,0,0,0,1,1,0,0,0,star,triangle,,,,,,,,,,,,,,,,,,,,,,,,,,,,,,,,,,,,,,,,,,,,,,,,,,,,,,
297523,2022-11-19_15h16.14.881,vts_reward_expectancy_bt,2022.2.4,Win32,60.20832079,Chrome,1366,768,,,a,1.5681,1,276,1,1,2,14,1,1,1,0,0,0,0,0,1,0,triangle,hexagon,,,,,,,,,,,,,,,,,,,,,,,,,,,,,,,,,,,,,,,,,,,,,,,,,,,,,,
297523,2022-11-19_15h16.14.881,vts_reward_expectancy_bt,2022.2.4,Win32,60.20832079,Chrome,1366,768,,,l,0.679,1,277,1,1,3,15,11,1,0,0,0,1,0,0,1,0,star,hexagon,,,,,,,,,,,,,,,,,,,,,,,,,,,,,,,,,,,,,,,,,,,,,,,,,,,,,,
297523,2022-11-19_15h16.14.881,vts_reward_expectancy_bt,2022.2.4,Win32,60.20832079,Chrome,1366,768,,,a,0.5659,1,278,1,1,4,16,10,1,0,0,0,1,0,1,0,0,star ,circle,,,,,,,,,,,,,,,,,,,,,,,,,,,,,,,,,,,,,,,,,,,,,,,,,,,,,,
297523,2022-11-19_15h16.14.881,vts_reward_expectancy_bt,2022.2.4,Win32,60.20832079,Chrome,1366,768,,,l,0.708,1,279,1,1,5,17,7,1,0,0,1,0,0,1,0,0,hexagon,circle,,,,,,,,,,,,,,,,,,,,,,,,,,,,,,,,,,,,,,,,,,,,,,,,,,,,,,
297523,2022-11-19_15h16.14.881,vts_reward_expectancy_bt,2022.2.4,Win32,60.20832079,Chrome,1366,768,,,a,1.0991,1,280,1,1,6,18,4,1,0,1,0,0,0,0,1,0,circle,hexagon,,,,,,,,,,,,,,,,,,,,,,,,,,,,,,,,,,,,,,,,,,,,,,,,,,,,,,
297523,2022-11-19_15h16.14.881,vts_reward_expectancy_bt,2022.2.4,Win32,60.20832079,Chrome,1366,768,,,l,0.8888,1,281,1,1,7,19,8,1,0,0,1,0,0,0,0,1,hexagon,star,,,,,,,,,,,,,,,,,,,,,,,,,,,,,,,,,,,,,,,,,,,,,,,,,,,,,,
297523,2022-11-19_15h16.14.881,vts_reward_expectancy_bt,2022.2.4,Win32,60.20832079,Chrome,1366,768,,,l,0.8894,1,282,1,1,8,20,3,1,0,1,0,0,1,0,0,0,circle,triangle,,,,,,,,,,,,,,,,,,,,,,,,,,,,,,,,,,,,,,,,,,,,,,,,,,,,,,
297523,2022-11-19_15h16.14.881,vts_reward_expectancy_bt,2022.2.4,Win32,60.20832079,Chrome,1366,768,,,a,0.9519,10,292,1,1,9,21,0,1,1,0,0,0,0,1,0,0,triangle,circle,,,,,,,,,,,,,,,,,,,,,,,,,,,,,,,,,,,,,,,,,,,,,,,,,,,,,,
297523,2022-11-19_15h16.14.881,vts_reward_expectancy_bt,2022.2.4,Win32,60.20832079,Chrome,1366,768,,,a,0.982,1,293,1,1,10,22,6,1,0,0,1,0,1,0,0,0,hexagon,triangle,,,,,,,,,,,,,,,,,,,,,,,,,,,,,,,,,,,,,,,,,,,,,,,,,,,,,,
297523,2022-11-19_15h16.14.881,vts_reward_expectancy_bt,2022.2.4,Win32,60.20832079,Chrome,1366,768,,,a,0.9164,10,303,1,1,11,23,2,1,1,0,0,0,0,0,0,1,triangle,star,,,,,,,,,,,,,,,,,,,,,,,,,,,,,,,,,,,,,,,,,,,,,,,,,,,,,,
297523,2022-11-19_15h16.14.881,vts_reward_expectancy_bt,2022.2.4,Win32,60.20832079,Chrome,1366,768,,,a,1.0339,10,313,1,2,0,24,7,1,0,0,1,0,0,1,0,0,hexagon,circle,,,,,,,,,,,,,,,,,,,,,,,,,,,,,,,,,,,,,,,,,,,,,,,,,,,,,,
297523,2022-11-19_15h16.14.881,vts_reward_expectancy_bt,2022.2.4,Win32,60.20832079,Chrome,1366,768,,,l,1.0539,10,323,1,2,1,25,4,1,0,1,0,0,0,0,1,0,circle,hexagon,,,,,,,,,,,,,,,,,,,,,,,,,,,,,,,,,,,,,,,,,,,,,,,,,,,,,,
297523,2022-11-19_15h16.14.881,vts_reward_expectancy_bt,2022.2.4,Win32,60.20832079,Chrome,1366,768,,,a,1.4397,10,333,1,2,2,26,2,1,1,0,0,0,0,0,0,1,triangle,star,,,,,,,,,,,,,,,,,,,,,,,,,,,,,,,,,,,,,,,,,,,,,,,,,,,,,,
297523,2022-11-19_15h16.14.881,vts_reward_expectancy_bt,2022.2.4,Win32,60.20832079,Chrome,1366,768,,,l,1.8601,10,343,1,2,3,27,11,1,0,0,0,1,0,0,1,0,star,hexagon,,,,,,,,,,,,,,,,,,,,,,,,,,,,,,,,,,,,,,,,,,,,,,,,,,,,,,
297523,2022-11-19_15h16.14.881,vts_reward_expectancy_bt,2022.2.4,Win32,60.20832079,Chrome,1366,768,,,l,1.1664,10,353,1,2,4,28,9,1,0,0,0,1,1,0,0,0,star,triangle,,,,,,,,,,,,,,,,,,,,,,,,,,,,,,,,,,,,,,,,,,,,,,,,,,,,,,
297523,2022-11-19_15h16.14.881,vts_reward_expectancy_bt,2022.2.4,Win32,60.20832079,Chrome,1366,768,,,l,0.9063,10,363,1,2,5,29,1,1,1,0,0,0,0,0,1,0,triangle,hexagon,,,,,,,,,,,,,,,,,,,,,,,,,,,,,,,,,,,,,,,,,,,,,,,,,,,,,,
297523,2022-11-19_15h16.14.881,vts_reward_expectancy_bt,2022.2.4,Win32,60.20832079,Chrome,1366,768,,,l,2.1223,1,364,1,2,6,30,10,1,0,0,0,1,0,1,0,0,star ,circle,,,,,,,,,,,,,,,,,,,,,,,,,,,,,,,,,,,,,,,,,,,,,,,,,,,,,,
297523,2022-11-19_15h16.14.881,vts_reward_expectancy_bt,2022.2.4,Win32,60.20832079,Chrome,1366,768,,,a,0.6606,10,374,1,2,7,31,8,1,0,0,1,0,0,0,0,1,hexagon,star,,,,,,,,,,,,,,,,,,,,,,,,,,,,,,,,,,,,,,,,,,,,,,,,,,,,,,
297523,2022-11-19_15h16.14.881,vts_reward_expectancy_bt,2022.2.4,Win32,60.20832079,Chrome,1366,768,,,a,0.8168,1,375,1,2,8,32,5,1,0,1,0,0,0,0,0,1,circle,star,,,,,,,,,,,,,,,,,,,,,,,,,,,,,,,,,,,,,,,,,,,,,,,,,,,,,,
297523,2022-11-19_15h16.14.881,vts_reward_expectancy_bt,2022.2.4,Win32,60.20832079,Chrome,1366,768,,,l,1.0281,10,385,1,2,9,33,3,1,0,1,0,0,1,0,0,0,circle,triangle,,,,,,,,,,,,,,,,,,,,,,,,,,,,,,,,,,,,,,,,,,,,,,,,,,,,,,
297523,2022-11-19_15h16.14.881,vts_reward_expectancy_bt,2022.2.4,Win32,60.20832079,Chrome,1366,768,,,l,1.2333,10,395,1,2,10,34,6,1,0,0,1,0,1,0,0,0,hexagon,triangle,,,,,,,,,,,,,,,,,,,,,,,,,,,,,,,,,,,,,,,,,,,,,,,,,,,,,,
297523,2022-11-19_15h16.14.881,vts_reward_expectancy_bt,2022.2.4,Win32,60.20832079,Chrome,1366,768,,,a,1.3249,1,396,1,2,11,35,0,1,1,0,0,0,0,1,0,0,triangle,circle,,,,,,,,,,,,,,,,,,,,,,,,,,,,,,,,,,,,,,,,,,,,,,,,,,,,,,
297523,2022-11-19_15h16.14.881,vts_reward_expectancy_bt,2022.2.4,Win32,60.20832079,Chrome,1366,768,,,a,0.7191,10,406,2,0,0,0,8,1,0,0,1,0,0,0,0,1,hexagon,star,,,,,,,,,,,,,,,,,,,,,,,,,,,,,,,,,,,,,,,,,,,,,,,,,,,,,,
297523,2022-11-19_15h16.14.881,vts_reward_expectancy_bt,2022.2.4,Win32,60.20832079,Chrome,1366,768,,,a,0.6027,10,416,2,0,1,1,2,1,1,0,0,0,0,0,0,1,triangle,star,,,,,,,,,,,,,,,,,,,,,,,,,,,,,,,,,,,,,,,,,,,,,,,,,,,,,,
297523,2022-11-19_15h16.14.881,vts_reward_expectancy_bt,2022.2.4,Win32,60.20832079,Chrome,1366,768,,,l,0.6707,10,426,2,0,2,2,6,1,0,0,1,0,1,0,0,0,hexagon,triangle,,,,,,,,,,,,,,,,,,,,,,,,,,,,,,,,,,,,,,,,,,,,,,,,,,,,,,
297523,2022-11-19_15h16.14.881,vts_reward_expectancy_bt,2022.2.4,Win32,60.20832079,Chrome,1366,768,,,a,0.8346,10,436,2,0,3,3,7,1,0,0,1,0,0,1,0,0,hexagon,circle,,,,,,,,,,,,,,,,,,,,,,,,,,,,,,,,,,,,,,,,,,,,,,,,,,,,,,
297523,2022-11-19_15h16.14.881,vts_reward_expectancy_bt,2022.2.4,Win32,60.20832079,Chrome,1366,768,,,l,1.3213,1,437,2,0,4,4,0,1,1,0,0,0,0,1,0,0,triangle,circle,,,,,,,,,,,,,,,,,,,,,,,,,,,,,,,,,,,,,,,,,,,,,,,,,,,,,,
297523,2022-11-19_15h16.14.881,vts_reward_expectancy_bt,2022.2.4,Win32,60.20832079,Chrome,1366,768,,,l,1.1989,10,447,2,0,5,5,3,1,0,1,0,0,1,0,0,0,circle,triangle,,,,,,,,,,,,,,,,,,,,,,,,,,,,,,,,,,,,,,,,,,,,,,,,,,,,,,
297523,2022-11-19_15h16.14.881,vts_reward_expectancy_bt,2022.2.4,Win32,60.20832079,Chrome,1366,768,,,a,0.7197,1,448,2,0,6,6,9,1,0,0,0,1,1,0,0,0,star,triangle,,,,,,,,,,,,,,,,,,,,,,,,,,,,,,,,,,,,,,,,,,,,,,,,,,,,,,
297523,2022-11-19_15h16.14.881,vts_reward_expectancy_bt,2022.2.4,Win32,60.20832079,Chrome,1366,768,,,a,0.9263,10,458,2,0,7,7,5,1,0,1,0,0,0,0,0,1,circle,star,,,,,,,,,,,,,,,,,,,,,,,,,,,,,,,,,,,,,,,,,,,,,,,,,,,,,,
297523,2022-11-19_15h16.14.881,vts_reward_expectancy_bt,2022.2.4,Win32,60.20832079,Chrome,1366,768,,,l,0.7773,10,468,2,0,8,8,1,1,1,0,0,0,0,0,1,0,triangle,hexagon,,,,,,,,,,,,,,,,,,,,,,,,,,,,,,,,,,,,,,,,,,,,,,,,,,,,,,
297523,2022-11-19_15h16.14.881,vts_reward_expectancy_bt,2022.2.4,Win32,60.20832079,Chrome,1366,768,,,l,0.8163,1,469,2,0,9,9,11,1,0,0,0,1,0,0,1,0,star,hexagon,,,,,,,,,,,,,,,,,,,,,,,,,,,,,,,,,,,,,,,,,,,,,,,,,,,,,,
297523,2022-11-19_15h16.14.881,vts_reward_expectancy_bt,2022.2.4,Win32,60.20832079,Chrome,1366,768,,,l,1.3027,10,479,2,0,10,10,4,1,0,1,0,0,0,0,1,0,circle,hexagon,,,,,,,,,,,,,,,,,,,,,,,,,,,,,,,,,,,,,,,,,,,,,,,,,,,,,,
297523,2022-11-19_15h16.14.881,vts_reward_expectancy_bt,2022.2.4,Win32,60.20832079,Chrome,1366,768,,,a,1.0819,10,489,2,0,11,11,10,1,0,0,0,1,0,1,0,0,star ,circle,,,,,,,,,,,,,,,,,,,,,,,,,,,,,,,,,,,,,,,,,,,,,,,,,,,,,,
297523,2022-11-19_15h16.14.881,vts_reward_expectancy_bt,2022.2.4,Win32,60.20832079,Chrome,1366,768,,,a,0.8214,10,499,2,1,0,12,10,1,0,0,0,1,0,1,0,0,star ,circle,,,,,,,,,,,,,,,,,,,,,,,,,,,,,,,,,,,,,,,,,,,,,,,,,,,,,,
297523,2022-11-19_15h16.14.881,vts_reward_expectancy_bt,2022.2.4,Win32,60.20832079,Chrome,1366,768,,,l,1.2999,10,509,2,1,1,13,1,1,1,0,0,0,0,0,1,0,triangle,hexagon,,,,,,,,,,,,,,,,,,,,,,,,,,,,,,,,,,,,,,,,,,,,,,,,,,,,,,
297523,2022-11-19_15h16.14.881,vts_reward_expectancy_bt,2022.2.4,Win32,60.20832079,Chrome,1366,768,,,a,5.2285,10,519,2,1,2,14,3,1,0,1,0,0,1,0,0,0,circle,triangle,,,,,,,,,,,,,,,,,,,,,,,,,,,,,,,,,,,,,,,,,,,,,,,,,,,,,,
297523,2022-11-19_15h16.14.881,vts_reward_expectancy_bt,2022.2.4,Win32,60.20832079,Chrome,1366,768,,,a,1.4846,10,529,2,1,3,15,2,1,1,0,0,0,0,0,0,1,triangle,star,,,,,,,,,,,,,,,,,,,,,,,,,,,,,,,,,,,,,,,,,,,,,,,,,,,,,,
297523,2022-11-19_15h16.14.881,vts_reward_expectancy_bt,2022.2.4,Win32,60.20832079,Chrome,1366,768,,,l,1.1545,1,530,2,1,4,16,0,1,1,0,0,0,0,1,0,0,triangle,circle,,,,,,,,,,,,,,,,,,,,,,,,,,,,,,,,,,,,,,,,,,,,,,,,,,,,,,
297523,2022-11-19_15h16.14.881,vts_reward_expectancy_bt,2022.2.4,Win32,60.20832079,Chrome,1366,768,,,a,1.6382,1,531,2,1,5,17,5,1,0,1,0,0,0,0,0,1,circle,star,,,,,,,,,,,,,,,,,,,,,,,,,,,,,,,,,,,,,,,,,,,,,,,,,,,,,,
297523,2022-11-19_15h16.14.881,vts_reward_expectancy_bt,2022.2.4,Win32,60.20832079,Chrome,1366,768,,,a,0.8344,1,532,2,1,6,18,8,1,0,0,1,0,0,0,0,1,hexagon,star,,,,,,,,,,,,,,,,,,,,,,,,,,,,,,,,,,,,,,,,,,,,,,,,,,,,,,
297523,2022-11-19_15h16.14.881,vts_reward_expectancy_bt,2022.2.4,Win32,60.20832079,Chrome,1366,768,,,l,0.9065,1,533,2,1,7,19,4,1,0,1,0,0,0,0,1,0,circle,hexagon,,,,,,,,,,,,,,,,,,,,,,,,,,,,,,,,,,,,,,,,,,,,,,,,,,,,,,
297523,2022-11-19_15h16.14.881,vts_reward_expectancy_bt,2022.2.4,Win32,60.20832079,Chrome,1366,768,,,a,0.8662,10,543,2,1,8,20,11,1,0,0,0,1,0,0,1,0,star,hexagon,,,,,,,,,,,,,,,,,,,,,,,,,,,,,,,,,,,,,,,,,,,,,,,,,,,,,,
297523,2022-11-19_15h16.14.881,vts_reward_expectancy_bt,2022.2.4,Win32,60.20832079,Chrome,1366,768,,,a,0.7188,10,553,2,1,9,21,7,1,0,0,1,0,0,1,0,0,hexagon,circle,,,,,,,,,,,,,,,,,,,,,,,,,,,,,,,,,,,,,,,,,,,,,,,,,,,,,,
297523,2022-11-19_15h16.14.881,vts_reward_expectancy_bt,2022.2.4,Win32,60.20832079,Chrome,1366,768,,,a,1.5319,1,554,2,1,10,22,9,1,0,0,0,1,1,0,0,0,star,triangle,,,,,,,,,,,,,,,,,,,,,,,,,,,,,,,,,,,,,,,,,,,,,,,,,,,,,,
297523,2022-11-19_15h16.14.881,vts_reward_expectancy_bt,2022.2.4,Win32,60.20832079,Chrome,1366,768,,,l,0.9699,10,564,2,1,11,23,6,1,0,0,1,0,1,0,0,0,hexagon,triangle,,,,,,,,,,,,,,,,,,,,,,,,,,,,,,,,,,,,,,,,,,,,,,,,,,,,,,
297523,2022-11-19_15h16.14.881,vts_reward_expectancy_bt,2022.2.4,Win32,60.20832079,Chrome,1366,768,,,a,0.5255,1,565,2,2,0,24,1,1,1,0,0,0,0,0,1,0,triangle,hexagon,,,,,,,,,,,,,,,,,,,,,,,,,,,,,,,,,,,,,,,,,,,,,,,,,,,,,,
297523,2022-11-19_15h16.14.881,vts_reward_expectancy_bt,2022.2.4,Win32,60.20832079,Chrome,1366,768,,,l,1.189,1,566,2,2,1,25,0,1,1,0,0,0,0,1,0,0,triangle,circle,,,,,,,,,,,,,,,,,,,,,,,,,,,,,,,,,,,,,,,,,,,,,,,,,,,,,,
297523,2022-11-19_15h16.14.881,vts_reward_expectancy_bt,2022.2.4,Win32,60.20832079,Chrome,1366,768,,,l,0.9158,10,576,2,2,2,26,10,1,0,0,0,1,0,1,0,0,star ,circle,,,,,,,,,,,,,,,,,,,,,,,,,,,,,,,,,,,,,,,,,,,,,,,,,,,,,,
297523,2022-11-19_15h16.14.881,vts_reward_expectancy_bt,2022.2.4,Win32,60.20832079,Chrome,1366,768,,,a,0.5164,1,577,2,2,3,27,5,1,0,1,0,0,0,0,0,1,circle,star,,,,,,,,,,,,,,,,,,,,,,,,,,,,,,,,,,,,,,,,,,,,,,,,,,,,,,
297523,2022-11-19_15h16.14.881,vts_reward_expectancy_bt,2022.2.4,Win32,60.20832079,Chrome,1366,768,,,l,0.899,10,587,2,2,4,28,9,1,0,0,0,1,1,0,0,0,star,triangle,,,,,,,,,,,,,,,,,,,,,,,,,,,,,,,,,,,,,,,,,,,,,,,,,,,,,,
297523,2022-11-19_15h16.14.881,vts_reward_expectancy_bt,2022.2.4,Win32,60.20832079,Chrome,1366,768,,,l,0.7738,1,588,2,2,5,29,4,1,0,1,0,0,0,0,1,0,circle,hexagon,,,,,,,,,,,,,,,,,,,,,,,,,,,,,,,,,,,,,,,,,,,,,,,,,,,,,,
297523,2022-11-19_15h16.14.881,vts_reward_expectancy_bt,2022.2.4,Win32,60.20832079,Chrome,1366,768,,,a,0.6086,1,589,2,2,6,30,8,1,0,0,1,0,0,0,0,1,hexagon,star,,,,,,,,,,,,,,,,,,,,,,,,,,,,,,,,,,,,,,,,,,,,,,,,,,,,,,
297523,2022-11-19_15h16.14.881,vts_reward_expectancy_bt,2022.2.4,Win32,60.20832079,Chrome,1366,768,,,l,0.4002,10,599,2,2,7,31,6,1,0,0,1,0,1,0,0,0,hexagon,triangle,,,,,,,,,,,,,,,,,,,,,,,,,,,,,,,,,,,,,,,,,,,,,,,,,,,,,,
297523,2022-11-19_15h16.14.881,vts_reward_expectancy_bt,2022.2.4,Win32,60.20832079,Chrome,1366,768,,,l,0.7176,10,609,2,2,8,32,11,1,0,0,0,1,0,0,1,0,star,hexagon,,,,,,,,,,,,,,,,,,,,,,,,,,,,,,,,,,,,,,,,,,,,,,,,,,,,,,
297523,2022-11-19_15h16.14.881,vts_reward_expectancy_bt,2022.2.4,Win32,60.20832079,Chrome,1366,768,,,a,0.8164,10,619,2,2,9,33,7,1,0,0,1,0,0,1,0,0,hexagon,circle,,,,,,,,,,,,,,,,,,,,,,,,,,,,,,,,,,,,,,,,,,,,,,,,,,,,,,
297523,2022-11-19_15h16.14.881,vts_reward_expectancy_bt,2022.2.4,Win32,60.20832079,Chrome,1366,768,,,l,1.0403,1,620,2,2,10,34,2,1,1,0,0,0,0,0,0,1,triangle,star,,,,,,,,,,,,,,,,,,,,,,,,,,,,,,,,,,,,,,,,,,,,,,,,,,,,,,
297523,2022-11-19_15h16.14.881,vts_reward_expectancy_bt,2022.2.4,Win32,60.20832079,Chrome,1366,768,,,a,0.4491,1,621,2,2,11,35,3,1,0,1,0,0,1,0,0,0,circle,triangle,,,,,,,,,,,,,,,,,,,,,,,,,,,,,,,,,,,,,,,,,,,,,,,,,,,,,,
297523,2022-11-19_15h16.14.881,vts_reward_expectancy_bt,2022.2.4,Win32,60.20832079,Chrome,1366,768,,,,,,,,,,,,,,,,,,,,,,,W,167,hexagon,1,0,f,2.4359,0,0,0,0,0,1,,,,,,,,,,,,,,,,,,,,,,,,,,,,,,,,,,,,,,,,,
297523,2022-11-19_15h16.14.881,vts_reward_expectancy_bt,2022.2.4,Win32,60.20832079,Chrome,1366,768,,,,,,,,,,,,,,,,,,,,,,,B,132,triangle,0,0,,,0,1,0,1,0,1,,,,,,,,,,,,,,,,,,,,,,,,,,,,,,,,,,,,,,,,,
297523,2022-11-19_15h16.14.881,vts_reward_expectancy_bt,2022.2.4,Win32,60.20832079,Chrome,1366,768,,,,,,,,,,,,,,,,,,,,,,,Y,160,star,1,1,f,0.7928,0,2,0,2,0,1,,,,,,,,,,,,,,,,,,,,,,,,,,,,,,,,,,,,,,,,,
297523,2022-11-19_15h16.14.881,vts_reward_expectancy_bt,2022.2.4,Win32,60.20832079,Chrome,1366,768,,,,,,,,,,,,,,,,,,,,,,,F,146,circle,1,0,d,1.1051,0,3,0,3,0,1,,,,,,,,,,,,,,,,,,,,,,,,,,,,,,,,,,,,,,,,,
297523,2022-11-19_15h16.14.881,vts_reward_expectancy_bt,2022.2.4,Win32,60.20832079,Chrome,1366,768,,,,,,,,,,,,,,,,,,,,,,,H,174,hexagon,1,0,d,0.7212,0,4,0,4,0,1,,,,,,,,,,,,,,,,,,,,,,,,,,,,,,,,,,,,,,,,,
297523,2022-11-19_15h16.14.881,vts_reward_expectancy_bt,2022.2.4,Win32,60.20832079,Chrome,1366,768,,,,,,,,,,,,,,,,,,,,,,,D,181,triangle,1,0,d,0.6874,0,5,0,5,0,1,,,,,,,,,,,,,,,,,,,,,,,,,,,,,,,,,,,,,,,,,
297523,2022-11-19_15h16.14.881,vts_reward_expectancy_bt,2022.2.4,Win32,60.20832079,Chrome,1366,768,,,,,,,,,,,,,,,,,,,,,,,S,139,star,1,0,f,0.6912,0,6,0,6,0,1,,,,,,,,,,,,,,,,,,,,,,,,,,,,,,,,,,,,,,,,,
297523,2022-11-19_15h16.14.881,vts_reward_expectancy_bt,2022.2.4,Win32,60.20832079,Chrome,1366,768,,,,,,,,,,,,,,,,,,,,,,,U,125,circle,1,0,f,0.7174,0,7,0,7,0,1,,,,,,,,,,,,,,,,,,,,,,,,,,,,,,,,,,,,,,,,,
297523,2022-11-19_15h16.14.881,vts_reward_expectancy_bt,2022.2.4,Win32,60.20832079,Chrome,1366,768,,,,,,,,,,,,,,,,,,,,,,,W,167,circle,1,0,f,0.8662,0,8,0,8,0,1,,,,,,,,,,,,,,,,,,,,,,,,,,,,,,,,,,,,,,,,,
297523,2022-11-19_15h16.14.881,vts_reward_expectancy_bt,2022.2.4,Win32,60.20832079,Chrome,1366,768,,,,,,,,,,,,,,,,,,,,,,,B,132,star,1,0,d,0.5171,0,9,0,9,0,1,,,,,,,,,,,,,,,,,,,,,,,,,,,,,,,,,,,,,,,,,
297523,2022-11-19_15h16.14.881,vts_reward_expectancy_bt,2022.2.4,Win32,60.20832079,Chrome,1366,768,,,,,,,,,,,,,,,,,,,,,,,H,146,triangle,1,0,,,1,,,,,,j,1.5658,0,0,0,0,1,,,,,,,,,,,,,,,,,,,,,,,,,,,,,,,,,,
297523,2022-11-19_15h16.14.881,vts_reward_expectancy_bt,2022.2.4,Win32,60.20832079,Chrome,1366,768,,,,,,,,,,,,,,,,,,,,,,,W,125,star,1,0,,,1,,,,,,j,0.6356,1,0,1,0,1,,,,,,,,,,,,,,,,,,,,,,,,,,,,,,,,,,
297523,2022-11-19_15h16.14.881,vts_reward_expectancy_bt,2022.2.4,Win32,60.20832079,Chrome,1366,768,,,,,,,,,,,,,,,,,,,,,,,Y,174,circle,1,0,,,1,,,,,,k,0.6339,2,0,2,0,1,,,,,,,,,,,,,,,,,,,,,,,,,,,,,,,,,,
297523,2022-11-19_15h16.14.881,vts_reward_expectancy_bt,2022.2.4,Win32,60.20832079,Chrome,1366,768,,,,,,,,,,,,,,,,,,,,,,,D,160,hexagon,1,0,,,1,,,,,,k,0.5676,3,0,3,0,1,,,,,,,,,,,,,,,,,,,,,,,,,,,,,,,,,,
297523,2022-11-19_15h16.14.881,vts_reward_expectancy_bt,2022.2.4,Win32,60.20832079,Chrome,1366,768,,,,,,,,,,,,,,,,,,,,,,,B,181,triangle,1,0,,,1,,,,,,k,0.5111,4,0,4,0,1,,,,,,,,,,,,,,,,,,,,,,,,,,,,,,,,,,
297523,2022-11-19_15h16.14.881,vts_reward_expectancy_bt,2022.2.4,Win32,60.20832079,Chrome,1366,768,,,,,,,,,,,,,,,,,,,,,,,F,167,star,1,0,,,1,,,,,,k,0.8797,5,0,5,0,1,,,,,,,,,,,,,,,,,,,,,,,,,,,,,,,,,,
297523,2022-11-19_15h16.14.881,vts_reward_expectancy_bt,2022.2.4,Win32,60.20832079,Chrome,1366,768,,,,,,,,,,,,,,,,,,,,,,,U,132,circle,1,0,,,1,,,,,,j,0.7781,6,0,6,0,1,,,,,,,,,,,,,,,,,,,,,,,,,,,,,,,,,,
297523,2022-11-19_15h16.14.881,vts_reward_expectancy_bt,2022.2.4,Win32,60.20832079,Chrome,1366,768,,,,,,,,,,,,,,,,,,,,,,,S,139,hexagon,1,0,,,1,,,,,,j,1.1662,7,0,7,0,1,,,,,,,,,,,,,,,,,,,,,,,,,,,,,,,,,,
297523,2022-11-19_15h16.14.881,vts_reward_expectancy_bt,2022.2.4,Win32,60.20832079,Chrome,1366,768,,,,,,,,,,,,,,,,,,,,,,,H,146,triangle,1,0,,,1,,,,,,j,0.8376,8,0,8,0,1,,,,,,,,,,,,,,,,,,,,,,,,,,,,,,,,,,
297523,2022-11-19_15h16.14.881,vts_reward_expectancy_bt,2022.2.4,Win32,60.20832079,Chrome,1366,768,,,,,,,,,,,,,,,,,,,,,,,W,125,star,1,0,,,1,,,,,,j,0.5234,9,0,9,0,1,,,,,,,,,,,,,,,,,,,,,,,,,,,,,,,,,,
297523,2022-11-19_15h16.14.881,vts_reward_expectancy_bt,2022.2.4,Win32,60.20832079,Chrome,1366,768,,,,,0,621,,,,,,,,,,,,,,,,,D,132,star,-1,0,,,2,,,,,,,,,,,,,-1,no_choice,NA,,vtsPrac,0,0,0,0,1,,,,,,,,,,,,,,,,,,,,,,,,
297523,2022-11-19_15h16.14.881,vts_reward_expectancy_bt,2022.2.4,Win32,60.20832079,Chrome,1366,768,,,,,0,621,,,,,,,,,,,,,,,,,W,160,circle,1,0,,,2,,,,,,,,,,,,,switch,letter,lettSwt,f,vtsPrac,1,0,1,0,1,0.9294,,,,,,,,,,,,,,,,,,,,,,,
297523,2022-11-19_15h16.14.881,vts_reward_expectancy_bt,2022.2.4,Win32,60.20832079,Chrome,1366,768,,,,,0,621,,,,,,,,,,,,,,,,,F,146,star,1,0,,,2,,,,,,,,,,,,,repeat,letter,lettRpt,d,vtsPrac,2,0,2,0,1,1.2403,,,,,,,,,,,,,,,,,,,,,,,
297523,2022-11-19_15h16.14.881,vts_reward_expectancy_bt,2022.2.4,Win32,60.20832079,Chrome,1366,768,,,,,0,621,,,,,,,,,,,,,,,,,Y,181,circle,1,0,,,2,,,,,,,,,,,,,repeat,letter,lettRpt,f,vtsPrac,3,0,3,0,1,0.886,,,,,,,,,,,,,,,,,,,,,,,
297523,2022-11-19_15h16.14.881,vts_reward_expectancy_bt,2022.2.4,Win32,60.20832079,Chrome,1366,768,,,,,0,621,,,,,,,,,,,,,,,,,D,132,star,1,0,,,2,,,,,,,,,,,,,repeat,letter,lettRpt,d,vtsPrac,4,0,4,0,1,0.7692,,,,,,,,,,,,,,,,,,,,,,,
297523,2022-11-19_15h16.14.881,vts_reward_expectancy_bt,2022.2.4,Win32,60.20832079,Chrome,1366,768,,,,,0,621,,,,,,,,,,,,,,,,,W,160,triangle,1,0,,,2,,,,,,,,,,,,,repeat,letter,lettRpt,f,vtsPrac,5,0,5,0,1,0.69,,,,,,,,,,,,,,,,,,,,,,,
297523,2022-11-19_15h16.14.881,vts_reward_expectancy_bt,2022.2.4,Win32,60.20832079,Chrome,1366,768,,,,,0,621,,,,,,,,,,,,,,,,,F,146,triangle,0,0,,,2,,,,,,,,,,,,,repeat,letter,NA,f,vtsPrac,6,0,6,0,1,0.5658,,,,,,,,,,,,,,,,,,,,,,,
297523,2022-11-19_15h16.14.881,vts_reward_expectancy_bt,2022.2.4,Win32,60.20832079,Chrome,1366,768,,,,,0,621,,,,,,,,,,,,,,,,,Y,181,hexagon,1,1,,,2,,,,,,,,,,,,,repeat,letter,lettRpt,f,vtsPrac,7,0,7,0,1,0.7086,,,,,,,,,,,,,,,,,,,,,,,
297523,2022-11-19_15h16.14.881,vts_reward_expectancy_bt,2022.2.4,Win32,60.20832079,Chrome,1366,768,,,,,0,621,,,,,,,,,,,,,,,,,U,174,circle,1,0,,,2,,,,,,,,,,,,,repeat,letter,lettRpt,f,vtsPrac,8,0,8,0,1,0.7515,,,,,,,,,,,,,,,,,,,,,,,
297523,2022-11-19_15h16.14.881,vts_reward_expectancy_bt,2022.2.4,Win32,60.20832079,Chrome,1366,768,,,,,0,621,,,,,,,,,,,,,,,,,D,132,star,1,0,,,2,,,,,,,,,,,,,repeat,letter,lettRpt,d,vtsPrac,9,0,9,0,1,0.6011,,,,,,,,,,,,,,,,,,,,,,,
297523,2022-11-19_15h16.14.881,vts_reward_expectancy_bt,2022.2.4,Win32,60.20832079,Chrome,1366,768,,,,,0,621,,,,,,,,,,,,,,,,,F,160,circle,1,0,,,2,,,,,,,,,,,,,repeat,letter,lettRpt,d,vtsPrac,10,0,10,0,1,0.8324,,,,,,,,,,,,,,,,,,,,,,,
297523,2022-11-19_15h16.14.881,vts_reward_expectancy_bt,2022.2.4,Win32,60.20832079,Chrome,1366,768,,,,,0,621,,,,,,,,,,,,,,,,,S,167,star,1,0,,,2,,,,,,,,,,,,,repeat,letter,lettRpt,f,vtsPrac,11,0,11,0,1,0.7232,,,,,,,,,,,,,,,,,,,,,,,
297523,2022-11-19_15h16.14.881,vts_reward_expectancy_bt,2022.2.4,Win32,60.20832079,Chrome,1366,768,,,,,0,621,,,,,,,,,,,,,,,,,W,132,circle,1,0,,,2,,,,,,,,,,,,,repeat,letter,lettRpt,f,vtsPrac,12,0,12,0,1,0.8094,,,,,,,,,,,,,,,,,,,,,,,
297523,2022-11-19_15h16.14.881,vts_reward_expectancy_bt,2022.2.4,Win32,60.20832079,Chrome,1366,768,,,,,0,621,,,,,,,,,,,,,,,,,F,174,triangle,1,0,,,2,,,,,,,,,,,,,repeat,letter,lettRpt,d,vtsPrac,13,0,13,0,1,1.146,,,,,,,,,,,,,,,,,,,,,,,
297523,2022-11-19_15h16.14.881,vts_reward_expectancy_bt,2022.2.4,Win32,60.20832079,Chrome,1366,768,,,,,0,621,,,,,,,,,,,,,,,,,S,139,triangle,1,0,,,2,,,,,,,,,,,,,repeat,letter,lettRpt,f,vtsPrac,14,0,14,0,1,0.8271,,,,,,,,,,,,,,,,,,,,,,,
297523,2022-11-19_15h16.14.881,vts_reward_expectancy_bt,2022.2.4,Win32,60.20832079,Chrome,1366,768,,,,,0,621,,,,,,,,,,,,,,,,,U,181,hexagon,1,0,,,2,,,,,,,,,,,,,repeat,letter,lettRpt,f,vtsPrac,15,0,15,0,1,0.6506,,,,,,,,,,,,,,,,,,,,,,,
297523,2022-11-19_15h16.14.881,vts_reward_expectancy_bt,2022.2.4,Win32,60.20832079,Chrome,1366,768,,,,,0,621,,,,,,,,,,,,,,,,,D,132,star,1,0,,,2,,,,,,,,,,,,,repeat,letter,lettRpt,d,vtsPrac,16,0,16,0,1,0.7556,,,,,,,,,,,,,,,,,,,,,,,
297523,2022-11-19_15h16.14.881,vts_reward_expectancy_bt,2022.2.4,Win32,60.20832079,Chrome,1366,768,,,,,0,621,,,,,,,,,,,,,,,,,Y,174,hexagon,1,0,,,2,,,,,,,,,,,,,repeat,letter,lettRpt,f,vtsPrac,17,0,17,0,1,0.757,,,,,,,,,,,,,,,,,,,,,,,
297523,2022-11-19_15h16.14.881,vts_reward_expectancy_bt,2022.2.4,Win32,60.20832079,Chrome,1366,768,,,,,0,621,,,,,,,,,,,,,,,,,U,146,triangle,1,0,,,2,,,,,,,,,,,,,repeat,letter,lettRpt,f,vtsPrac,18,0,18,0,1,0.8062,,,,,,,,,,,,,,,,,,,,,,,
297523,2022-11-19_15h16.14.881,vts_reward_expectancy_bt,2022.2.4,Win32,60.20832079,Chrome,1366,768,,,,,0,621,,,,,,,,,,,,,,,,,S,125,hexagon,1,0,,,2,,,,,,,,,,,,,repeat,letter,lettRpt,f,vtsPrac,19,0,19,0,1,0.6831,,,,,,,,,,,,,,,,,,,,,,,
297523,2022-11-19_15h16.14.881,vts_reward_expectancy_bt,2022.2.4,Win32,60.20832079,Chrome,1366,768,,,,,0,621,,,,,,,,,,,,,,,,,S,181,hexagon,1,0,,,2,,,,,,,,,,,,,repeat,letter,lettRpt,f,vtsPrac,20,0,20,0,1,0.5043,,,,,,,,,,,,,,,,,,,,,,,
297523,2022-11-19_15h16.14.881,vts_reward_expectancy_bt,2022.2.4,Win32,60.20832079,Chrome,1366,768,,,,,0,621,,,,,,,,,,,,,,,,,Y,174,circle,1,0,,,2,,,,,,,,,,,,,repeat,letter,lettRpt,f,vtsPrac,21,0,21,0,1,0.7181,,,,,,,,,,,,,,,,,,,,,,,
297523,2022-11-19_15h16.14.881,vts_reward_expectancy_bt,2022.2.4,Win32,60.20832079,Chrome,1366,768,,,,,0,621,,,,,,,,,,,,,,,,,D,146,triangle,1,0,,,2,,,,,,,,,,,,,repeat,letter,lettRpt,d,vtsPrac,22,0,22,0,1,0.721,,,,,,,,,,,,,,,,,,,,,,,
297523,2022-11-19_15h16.14.881,vts_reward_expectancy_bt,2022.2.4,Win32,60.20832079,Chrome,1366,768,,,,,0,621,,,,,,,,,,,,,,,,,W,132,star,1,0,,,2,,,,,,,,,,,,,repeat,letter,lettRpt,f,vtsPrac,23,0,23,0,1,0.7181,,,,,,,,,,,,,,,,,,,,,,,
297523,2022-11-19_15h16.14.881,vts_reward_expectancy_bt,2022.2.4,Win32,60.20832079,Chrome,1366,768,,,,,0,621,,,,,,,,,,,,,,,,,Y,174,star,1,0,,,2,,,,,,,,,,,,,repeat,letter,lettRpt,f,vtsPrac,24,0,24,0,1,0.7197,,,,,,,,,,,,,,,,,,,,,,,
297523,2022-11-19_15h16.14.881,vts_reward_expectancy_bt,2022.2.4,Win32,60.20832079,Chrome,1366,768,,,,,0,621,,,,,,,,,,,,,,,,,F,125,hexagon,1,0,,,2,,,,,,,,,,,,,repeat,letter,lettRpt,d,vtsPrac,25,0,25,0,1,0.8663,,,,,,,,,,,,,,,,,,,,,,,
297523,2022-11-19_15h16.14.881,vts_reward_expectancy_bt,2022.2.4,Win32,60.20832079,Chrome,1366,768,,,,,0,621,,,,,,,,,,,,,,,,,S,139,star,0,0,,,2,,,,,,,,,,,,,repeat,letter,NA,d,vtsPrac,26,0,26,0,1,0.4779,,,,,,,,,,,,,,,,,,,,,,,
297523,2022-11-19_15h16.14.881,vts_reward_expectancy_bt,2022.2.4,Win32,60.20832079,Chrome,1366,768,,,,,0,621,,,,,,,,,,,,,,,,,H,132,triangle,1,1,,,2,,,,,,,,,,,,,repeat,letter,lettRpt,d,vtsPrac,27,0,27,0,1,0.7991,,,,,,,,,,,,,,,,,,,,,,,
297523,2022-11-19_15h16.14.881,vts_reward_expectancy_bt,2022.2.4,Win32,60.20832079,Chrome,1366,768,,,,,0,621,,,,,,,,,,,,,,,,,F,125,triangle,1,0,,,2,,,,,,,,,,,,,repeat,letter,lettRpt,d,vtsPrac,28,0,28,0,1,0.7949,,,,,,,,,,,,,,,,,,,,,,,
297523,2022-11-19_15h16.14.881,vts_reward_expectancy_bt,2022.2.4,Win32,60.20832079,Chrome,1366,768,,,,,0,621,,,,,,,,,,,,,,,,,D,132,star,1,0,,,2,,,,,,,,,,,,,repeat,letter,lettRpt,d,vtsPrac,29,0,29,0,1,0.601,,,,,,,,,,,,,,,,,,,,,,,
297523,2022-11-19_15h16.14.881,vts_reward_expectancy_bt,2022.2.4,Win32,60.20832079,Chrome,1366,768,,,,,0,621,,,,,,,,,,,,,,,,,H,146,star,1,0,,,2,,,,,,,,,,,,,repeat,letter,lettRpt,d,vtsPrac,30,0,30,0,1,0.6196,,,,,,,,,,,,,,,,,,,,,,,
297523,2022-11-19_15h16.14.881,vts_reward_expectancy_bt,2022.2.4,Win32,60.20832079,Chrome,1366,768,,,,,0,621,,,,,,,,,,,,,,,,,B,167,hexagon,1,0,,,2,,,,,,,,,,,,,repeat,letter,lettRpt,d,vtsPrac,31,0,31,0,1,0.7582,,,,,,,,,,,,,,,,,,,,,,,
297523,2022-11-19_15h16.14.881,vts_reward_expectancy_bt,2022.2.4,Win32,60.20832079,Chrome,1366,768,,,,,0,621,,,,,,,,,,,,,,,,,D,160,triangle,1,0,,,3,,,,,,,,,,,,,repeat,letter,lettRpt,d,vtsPrac,0,0,0,0,1,0.9007,,,,,,,,,,,,,,,,,,,,,,,
297523,2022-11-19_15h16.14.881,vts_reward_expectancy_bt,2022.2.4,Win32,60.20832079,Chrome,1366,768,,,,,0,621,,,,,,,,,,,,,,,,,H,139,star,1,0,,,3,,,,,,,,,,,,,switch,number,numSwt,j,vtsPrac,1,0,1,0,1,1.1035,,,,,,,,,,,,,,,,,,,,,,,
297523,2022-11-19_15h16.14.881,vts_reward_expectancy_bt,2022.2.4,Win32,60.20832079,Chrome,1366,768,,,,,0,621,,,,,,,,,,,,,,,,,S,167,triangle,1,0,,,3,,,,,,,,,,,,,switch,letter,lettSwt,f,vtsPrac,2,0,2,0,1,1.0486,,,,,,,,,,,,,,,,,,,,,,,
297523,2022-11-19_15h16.14.881,vts_reward_expectancy_bt,2022.2.4,Win32,60.20832079,Chrome,1366,768,,,,,0,621,,,,,,,,,,,,,,,,,W,181,star,1,0,,,3,,,,,,,,,,,,,switch,number,numSwt,k,vtsPrac,3,0,3,0,1,1.9,,,,,,,,,,,,,,,,,,,,,,,
297523,2022-11-19_15h16.14.881,vts_reward_expectancy_bt,2022.2.4,Win32,60.20832079,Chrome,1366,768,,,,,0,621,,,,,,,,,,,,,,,,,D,160,star,1,0,,,3,,,,,,,,,,,,,switch,letter,lettSwt,d,vtsPrac,4,0,4,0,1,0.5889,,,,,,,,,,,,,,,,,,,,,,,
297523,2022-11-19_15h16.14.881,vts_reward_expectancy_bt,2022.2.4,Win32,60.20832079,Chrome,1366,768,,,,,0,621,,,,,,,,,,,,,,,,,H,139,triangle,1,0,,,3,,,,,,,,,,,,,switch,number,numSwt,j,vtsPrac,5,0,5,0,1,0.8517,,,,,,,,,,,,,,,,,,,,,,,
297523,2022-11-19_15h16.14.881,vts_reward_expectancy_bt,2022.2.4,Win32,60.20832079,Chrome,1366,768,,,,,0,621,,,,,,,,,,,,,,,,,S,167,star,0,0,,,3,,,,,,,,,,,,,repeat,number,NA,j,vtsPrac,6,0,6,0,1,1.502,,,,,,,,,,,,,,,,,,,,,,,
297523,2022-11-19_15h16.14.881,vts_reward_expectancy_bt,2022.2.4,Win32,60.20832079,Chrome,1366,768,,,,,0,621,,,,,,,,,,,,,,,,,W,181,hexagon,1,1,,,3,,,,,,,,,,,,,switch,letter,lettSwt,f,vtsPrac,7,0,7,0,1,0.878,,,,,,,,,,,,,,,,,,,,,,,
297523,2022-11-19_15h16.14.881,vts_reward_expectancy_bt,2022.2.4,Win32,60.20832079,Chrome,1366,768,,,,,0,621,,,,,,,,,,,,,,,,,F,146,hexagon,1,0,,,3,,,,,,,,,,,,,switch,number,numSwt,j,vtsPrac,8,0,8,0,1,1.1598,,,,,,,,,,,,,,,,,,,,,,,
297523,2022-11-19_15h16.14.881,vts_reward_expectancy_bt,2022.2.4,Win32,60.20832079,Chrome,1366,768,,,,,0,621,,,,,,,,,,,,,,,,,W,181,triangle,1,0,,,3,,,,,,,,,,,,,switch,letter,lettSwt,f,vtsPrac,9,0,9,0,1,0.7943,,,,,,,,,,,,,,,,,,,,,,,
297523,2022-11-19_15h16.14.881,vts_reward_expectancy_bt,2022.2.4,Win32,60.20832079,Chrome,1366,768,,,,,0,621,,,,,,,,,,,,,,,,,H,139,circle,1,0,,,3,,,,,,,,,,,,,switch,number,numSwt,j,vtsPrac,10,0,10,0,1,0.8694,,,,,,,,,,,,,,,,,,,,,,,
297523,2022-11-19_15h16.14.881,vts_reward_expectancy_bt,2022.2.4,Win32,60.20832079,Chrome,1366,768,,,,,0,621,,,,,,,,,,,,,,,,,B,174,star,1,0,,,3,,,,,,,,,,,,,switch,letter,lettSwt,d,vtsPrac,11,0,11,0,1,0.7688,,,,,,,,,,,,,,,,,,,,,,,
297523,2022-11-19_15h16.14.881,vts_reward_expectancy_bt,2022.2.4,Win32,60.20832079,Chrome,1366,768,,,,,0,621,,,,,,,,,,,,,,,,,Y,146,triangle,1,0,,,3,,,,,,,,,,,,,switch,number,numSwt,j,vtsPrac,12,0,12,0,1,1.2378,,,,,,,,,,,,,,,,,,,,,,,
297523,2022-11-19_15h16.14.881,vts_reward_expectancy_bt,2022.2.4,Win32,60.20832079,Chrome,1366,768,,,,,0,621,,,,,,,,,,,,,,,,,F,181,circle,1,0,,,3,,,,,,,,,,,,,repeat,number,numRpt,k,vtsPrac,13,0,13,0,1,0.8829,,,,,,,,,,,,,,,,,,,,,,,
297523,2022-11-19_15h16.14.881,vts_reward_expectancy_bt,2022.2.4,Win32,60.20832079,Chrome,1366,768,,,,,0,621,,,,,,,,,,,,,,,,,U,139,hexagon,1,0,,,3,,,,,,,,,,,,,switch,letter,lettSwt,f,vtsPrac,14,0,14,0,1,0.7395,,,,,,,,,,,,,,,,,,,,,,,
297523,2022-11-19_15h16.14.881,vts_reward_expectancy_bt,2022.2.4,Win32,60.20832079,Chrome,1366,768,,,,,0,621,,,,,,,,,,,,,,,,,D,160,triangle,1,0,,,3,,,,,,,,,,,,,repeat,letter,lettRpt,d,vtsPrac,15,0,15,0,1,0.8529,,,,,,,,,,,,,,,,,,,,,,,
297523,2022-11-19_15h16.14.881,vts_reward_expectancy_bt,2022.2.4,Win32,60.20832079,Chrome,1366,768,,,,,0,621,,,,,,,,,,,,,,,,,S,174,star,1,0,,,3,,,,,,,,,,,,,switch,number,numSwt,k,vtsPrac,16,0,16,0,1,1.0889,,,,,,,,,,,,,,,,,,,,,,,
297523,2022-11-19_15h16.14.881,vts_reward_expectancy_bt,2022.2.4,Win32,60.20832079,Chrome,1366,768,,,,,0,621,,,,,,,,,,,,,,,,,H,167,hexagon,1,0,,,3,,,,,,,,,,,,,switch,letter,lettSwt,d,vtsPrac,17,0,17,0,1,1.001,,,,,,,,,,,,,,,,,,,,,,,
297523,2022-11-19_15h16.14.881,vts_reward_expectancy_bt,2022.2.4,Win32,60.20832079,Chrome,1366,768,,,,,0,621,,,,,,,,,,,,,,,,,B,146,circle,1,0,,,3,,,,,,,,,,,,,switch,number,numSwt,j,vtsPrac,18,0,18,0,1,1.0913,,,,,,,,,,,,,,,,,,,,,,,
297523,2022-11-19_15h16.14.881,vts_reward_expectancy_bt,2022.2.4,Win32,60.20832079,Chrome,1366,768,,,,,0,621,,,,,,,,,,,,,,,,,D,132,hexagon,1,0,,,3,,,,,,,,,,,,,switch,letter,lettSwt,d,vtsPrac,19,0,19,0,1,0.8105,,,,,,,,,,,,,,,,,,,,,,,
297523,2022-11-19_15h16.14.881,vts_reward_expectancy_bt,2022.2.4,Win32,60.20832079,Chrome,1366,768,,,,,0,621,,,,,,,,,,,,,,,,,U,160,hexagon,1,0,,,3,,,,,,,,,,,,,repeat,letter,lettRpt,f,vtsPrac,20,0,20,0,1,0.9334,,,,,,,,,,,,,,,,,,,,,,,
297523,2022-11-19_15h16.14.881,vts_reward_expectancy_bt,2022.2.4,Win32,60.20832079,Chrome,1366,768,,,,,0,621,,,,,,,,,,,,,,,,,D,139,circle,1,0,,,3,,,,,,,,,,,,,switch,number,numSwt,j,vtsPrac,21,0,21,0,1,0.6668,,,,,,,,,,,,,,,,,,,,,,,
297523,2022-11-19_15h16.14.881,vts_reward_expectancy_bt,2022.2.4,Win32,60.20832079,Chrome,1366,768,,,,,0,621,,,,,,,,,,,,,,,,,B,167,star,1,0,,,3,,,,,,,,,,,,,switch,letter,lettSwt,d,vtsPrac,22,0,22,0,1,0.8451,,,,,,,,,,,,,,,,,,,,,,,
297523,2022-11-19_15h16.14.881,vts_reward_expectancy_bt,2022.2.4,Win32,60.20832079,Chrome,1366,768,,,,,0,621,,,,,,,,,,,,,,,,,Y,146,hexagon,1,0,,,3,,,,,,,,,,,,,repeat,letter,lettRpt,f,vtsPrac,23,0,23,0,1,0.7008,,,,,,,,,,,,,,,,,,,,,,,
297523,2022-11-19_15h16.14.881,vts_reward_expectancy_bt,2022.2.4,Win32,60.20832079,Chrome,1366,768,,,,,0,621,,,,,,,,,,,,,,,,,D,167,circle,1,0,,,3,,,,,,,,,,,,,switch,number,numSwt,k,vtsPrac,24,0,24,0,1,0.7099,,,,,,,,,,,,,,,,,,,,,,,
297523,2022-11-19_15h16.14.881,vts_reward_expectancy_bt,2022.2.4,Win32,60.20832079,Chrome,1366,768,,,,,0,621,,,,,,,,,,,,,,,,,Y,132,triangle,1,0,,,3,,,,,,,,,,,,,switch,letter,lettSwt,f,vtsPrac,25,0,25,0,1,0.8553,,,,,,,,,,,,,,,,,,,,,,,
297523,2022-11-19_15h16.14.881,vts_reward_expectancy_bt,2022.2.4,Win32,60.20832079,Chrome,1366,768,,,,,0,621,,,,,,,,,,,,,,,,,H,125,hexagon,1,0,,,3,,,,,,,,,,,,,repeat,letter,lettRpt,d,vtsPrac,26,0,26,0,1,0.6666,,,,,,,,,,,,,,,,,,,,,,,
297523,2022-11-19_15h16.14.881,vts_reward_expectancy_bt,2022.2.4,Win32,60.20832079,Chrome,1366,768,,,,,0,621,,,,,,,,,,,,,,,,,F,174,star,1,0,,,3,,,,,,,,,,,,,repeat,letter,lettRpt,d,vtsPrac,27,0,27,0,1,0.9511,,,,,,,,,,,,,,,,,,,,,,,
297523,2022-11-19_15h16.14.881,vts_reward_expectancy_bt,2022.2.4,Win32,60.20832079,Chrome,1366,768,,,,,0,621,,,,,,,,,,,,,,,,,U,167,hexagon,1,0,,,3,,,,,,,,,,,,,repeat,letter,lettRpt,f,vtsPrac,28,0,28,0,1,0.7432,,,,,,,,,,,,,,,,,,,,,,,
297523,2022-11-19_15h16.14.881,vts_reward_expectancy_bt,2022.2.4,Win32,60.20832079,Chrome,1366,768,,,,,0,621,,,,,,,,,,,,,,,,,W,132,triangle,1,0,,,3,,,,,,,,,,,,,switch,number,numSwt,j,vtsPrac,29,0,29,0,1,1.5208,,,,,,,,,,,,,,,,,,,,,,,
297523,2022-11-19_15h16.14.881,vts_reward_expectancy_bt,2022.2.4,Win32,60.20832079,Chrome,1366,768,,,,,0,621,,,,,,,,,,,,,,,,,D,174,star,1,0,,,3,,,,,,,,,,,,,repeat,number,numRpt,k,vtsPrac,30,0,30,0,1,1.0108,,,,,,,,,,,,,,,,,,,,,,,
297523,2022-11-19_15h16.14.881,vts_reward_expectancy_bt,2022.2.4,Win32,60.20832079,Chrome,1366,768,,,,,0,621,,,,,,,,,,,,,,,,,B,125,circle,1,0,,,3,,,,,,,,,,,,,switch,letter,lettSwt,d,vtsPrac,31,0,31,0,1,0.9198,,,,,,,,,,,,,,,,,,,,,,,
297523,2022-11-19_15h16.14.881,vts_reward_expectancy_bt,2022.2.4,Win32,60.20832079,Chrome,1366,768,,,,,,,,,,,,,,,,,,,,,,,,,,,,,,,,,,,,,,,,,,,,,,,,,,,,,,,,,,,,,,,,,,,,,,,,,,,,
297523,2022-11-19_15h16.14.881,vts_reward_expectancy_bt,2022.2.4,Win32,60.20832079,Chrome,1366,768,,,,,,,,,,,,,,,,,,,,,,,,,,,,,,,,,,,,,,,,,,,,,,,,,,,,,,,,,,,,,,,,,,,,,,,,,,,,
297523,2022-11-19_15h16.14.881,vts_reward_expectancy_bt,2022.2.4,Win32,60.20832079,Chrome,1366,768,,,,,0,621,,,,,,,,,,,,,,,,,W,146,circle,1,0,,,,,,,,,,,,,,,,repeat,letter,lettRpt,f,noRew,,,,,,1.0548,0,0,0,0,0,1,,,,,,,,,,,,,,,,,
297523,2022-11-19_15h16.14.881,vts_reward_expectancy_bt,2022.2.4,Win32,60.20832079,Chrome,1366,768,,,,,0,621,,,,,,,,,,,,,,,,,F,167,hexagon,1,0,,,,,,,,,,,,,,,,repeat,letter,lettRpt,d,noRew,,,,,,0.7825,0,1,0,1,0,1,,,,,,,,,,,,,,,,,
297523,2022-11-19_15h16.14.881,vts_reward_expectancy_bt,2022.2.4,Win32,60.20832079,Chrome,1366,768,,,,,0,621,,,,,,,,,,,,,,,,,H,160,circle,1,0,,,,,,,,,,,,,,,,switch,number,numSwt,k,noRew,,,,,,0.6575,0,2,0,2,0,1,,,,,,,,,,,,,,,,,
297523,2022-11-19_15h16.14.881,vts_reward_expectancy_bt,2022.2.4,Win32,60.20832079,Chrome,1366,768,,,,,0,621,,,,,,,,,,,,,,,,,U,139,hexagon,1,0,,,,,,,,,,,,,,,,switch,letter,lettSwt,f,noRew,,,,,,0.794,0,3,0,3,0,1,,,,,,,,,,,,,,,,,
297523,2022-11-19_15h16.14.881,vts_reward_expectancy_bt,2022.2.4,Win32,60.20832079,Chrome,1366,768,,,,,0,621,,,,,,,,,,,,,,,,,W,146,hexagon,1,0,,,,,,,,,,,,,,,,switch,number,numSwt,j,noRew,,,,,,0.8158,0,4,0,4,0,1,,,,,,,,,,,,,,,,,
297523,2022-11-19_15h16.14.881,vts_reward_expectancy_bt,2022.2.4,Win32,60.20832079,Chrome,1366,768,,,,,0,621,,,,,,,,,,,,,,,,,F,167,triangle,0,0,,,,,,,,,,,,,,,,switch,letter,NA,f,noRew,,,,,,1.4486,0,5,0,5,0,1,,,,,,,,,,,,,,,,,
297523,2022-11-19_15h16.14.881,vts_reward_expectancy_bt,2022.2.4,Win32,60.20832079,Chrome,1366,768,,,,,0,621,,,,,,,,,,,,,,,,,H,160,triangle,1,1,,,,,,,,,,,,,,,,repeat,letter,lettRpt,d,noRew,,,,,,0.6897,0,6,0,6,0,1,,,,,,,,,,,,,,,,,
297523,2022-11-19_15h16.14.881,vts_reward_expectancy_bt,2022.2.4,Win32,60.20832079,Chrome,1366,768,,,,,0,621,,,,,,,,,,,,,,,,,U,139,hexagon,1,0,,,,,,,,,,,,,,,,switch,number,numSwt,j,noRew,,,,,,0.7833,0,7,0,7,0,1,,,,,,,,,,,,,,,,,
297523,2022-11-19_15h16.14.881,vts_reward_expectancy_bt,2022.2.4,Win32,60.20832079,Chrome,1366,768,,,,,0,621,,,,,,,,,,,,,,,,,B,181,triangle,1,0,,,,,,,,,,,,,,,,switch,letter,lettSwt,d,noRew,,,,,,0.573,0,8,0,8,0,1,,,,,,,,,,,,,,,,,
297523,2022-11-19_15h16.14.881,vts_reward_expectancy_bt,2022.2.4,Win32,60.20832079,Chrome,1366,768,,,,,0,621,,,,,,,,,,,,,,,,,F,160,hexagon,0,0,,,,,,,,,,,,,,,,switch,number,NA,j,noRew,,,,,,1.0169,0,9,0,9,0,1,,,,,,,,,,,,,,,,,
297523,2022-11-19_15h16.14.881,vts_reward_expectancy_bt,2022.2.4,Win32,60.20832079,Chrome,1366,768,,,,,0,621,,,,,,,,,,,,,,,,,W,132,star,1,1,,,,,,,,,,,,,,,,repeat,number,numRpt,j,noRew,,,,,,1.9162,0,10,0,10,0,1,,,,,,,,,,,,,,,,,
297523,2022-11-19_15h16.14.881,vts_reward_expectancy_bt,2022.2.4,Win32,60.20832079,Chrome,1366,768,,,,,0,621,,,,,,,,,,,,,,,,,S,174,triangle,1,0,,,,,,,,,,,,,,,,switch,letter,lettSwt,f,noRew,,,,,,1.083,0,11,0,11,0,1,,,,,,,,,,,,,,,,,
297523,2022-11-19_15h16.14.881,vts_reward_expectancy_bt,2022.2.4,Win32,60.20832079,Chrome,1366,768,,,,,0,621,,,,,,,,,,,,,,,,,H,167,triangle,1,0,,,,,,,,,,,,,,,,switch,number,numSwt,k,noRew,,,,,,1.4344,0,12,0,12,0,1,,,,,,,,,,,,,,,,,
297523,2022-11-19_15h16.14.881,vts_reward_expectancy_bt,2022.2.4,Win32,60.20832079,Chrome,1366,768,,,,,0,621,,,,,,,,,,,,,,,,,W,146,star,1,0,,,,,,,,,,,,,,,,switch,letter,lettSwt,f,noRew,,,,,,0.6891,0,13,0,13,0,1,,,,,,,,,,,,,,,,,
297523,2022-11-19_15h16.14.881,vts_reward_expectancy_bt,2022.2.4,Win32,60.20832079,Chrome,1366,768,,,,,0,621,,,,,,,,,,,,,,,,,Y,125,circle,1,0,,,,,,,,,,,,,,,,switch,number,numSwt,j,noRew,,,,,,0.9718,0,14,0,14,0,1,,,,,,,,,,,,,,,,,
297523,2022-11-19_15h16.14.881,vts_reward_expectancy_bt,2022.2.4,Win32,60.20832079,Chrome,1366,768,,,,,0,621,,,,,,,,,,,,,,,,,S,132,hexagon,1,0,,,,,,,,,,,,,,,,switch,letter,lettSwt,f,noRew,,,,,,0.6339,0,15,0,15,0,1,,,,,,,,,,,,,,,,,
297523,2022-11-19_15h16.14.881,vts_reward_expectancy_bt,2022.2.4,Win32,60.20832079,Chrome,1366,768,,,,,0,621,,,,,,,,,,,,,,,,,S,174,circle,1,0,,,,,,,,,,,,,,,,switch,number,numSwt,k,noRew,,,,,,1.1104,0,16,0,16,0,1,,,,,,,,,,,,,,,,,
297523,2022-11-19_15h16.14.881,vts_reward_expectancy_bt,2022.2.4,Win32,60.20832079,Chrome,1366,768,,,,,0,621,,,,,,,,,,,,,,,,,H,167,star,1,0,,,,,,,,,,,,,,,,repeat,number,numRpt,k,noRew,,,,,,1.0613,0,17,0,17,0,1,,,,,,,,,,,,,,,,,
297523,2022-11-19_15h16.14.881,vts_reward_expectancy_bt,2022.2.4,Win32,60.20832079,Chrome,1366,768,,,,,0,621,,,,,,,,,,,,,,,,,W,160,star,1,0,,,,,,,,,,,,,,,,switch,letter,lettSwt,f,noRew,,,,,,0.7447,0,18,0,18,0,1,,,,,,,,,,,,,,,,,
297523,2022-11-19_15h16.14.881,vts_reward_expectancy_bt,2022.2.4,Win32,60.20832079,Chrome,1366,768,,,,,0,621,,,,,,,,,,,,,,,,,B,139,triangle,1,0,,,,,,,,,,,,,,,,switch,number,numSwt,j,noRew,,,,,,0.821,0,19,0,19,0,1,,,,,,,,,,,,,,,,,
297523,2022-11-19_15h16.14.881,vts_reward_expectancy_bt,2022.2.4,Win32,60.20832079,Chrome,1366,768,,,,,0,621,,,,,,,,,,,,,,,,,B,181,star,1,0,,,,,,,,,,,,,,,,switch,letter,lettSwt,d,noRew,,,,,,0.9625,0,20,0,20,0,1,,,,,,,,,,,,,,,,,
297523,2022-11-19_15h16.14.881,vts_reward_expectancy_bt,2022.2.4,Win32,60.20832079,Chrome,1366,768,,,,,0,621,,,,,,,,,,,,,,,,,S,146,hexagon,1,0,,,,,,,,,,,,,,,,repeat,letter,lettRpt,f,noRew,,,,,,0.8366,0,21,0,21,0,1,,,,,,,,,,,,,,,,,
297523,2022-11-19_15h16.14.881,vts_reward_expectancy_bt,2022.2.4,Win32,60.20832079,Chrome,1366,768,,,,,0,621,,,,,,,,,,,,,,,,,Y,160,hexagon,1,0,,,,,,,,,,,,,,,,repeat,letter,lettRpt,f,noRew,,,,,,0.6389,0,22,0,22,0,1,,,,,,,,,,,,,,,,,
297523,2022-11-19_15h16.14.881,vts_reward_expectancy_bt,2022.2.4,Win32,60.20832079,Chrome,1366,768,,,,,0,621,,,,,,,,,,,,,,,,,D,167,star,1,0,,,,,,,,,,,,,,,,switch,number,numSwt,k,noRew,,,,,,1.0011,0,23,0,23,0,1,,,,,,,,,,,,,,,,,
297523,2022-11-19_15h16.14.881,vts_reward_expectancy_bt,2022.2.4,Win32,60.20832079,Chrome,1366,768,,,,,0,621,,,,,,,,,,,,,,,,,D,146,star,1,0,,,,,,,,,,,,,,,,repeat,number,numRpt,j,noRew,,,,,,1.0682,0,24,0,24,0,1,,,,,,,,,,,,,,,,,
297523,2022-11-19_15h16.14.881,vts_reward_expectancy_bt,2022.2.4,Win32,60.20832079,Chrome,1366,768,,,,,0,621,,,,,,,,,,,,,,,,,W,132,circle,1,0,,,,,,,,,,,,,,,,switch,letter,lettSwt,f,noRew,,,,,,0.6159,0,25,0,25,0,1,,,,,,,,,,,,,,,,,
297523,2022-11-19_15h16.14.881,vts_reward_expectancy_bt,2022.2.4,Win32,60.20832079,Chrome,1366,768,,,,,0,621,,,,,,,,,,,,,,,,,F,160,triangle,0,0,,,,,,,,,,,,,,,,repeat,letter,NA,f,noRew,,,,,,0.7121,0,26,0,26,0,1,,,,,,,,,,,,,,,,,
297523,2022-11-19_15h16.14.881,vts_reward_expectancy_bt,2022.2.4,Win32,60.20832079,Chrome,1366,768,,,,,0,621,,,,,,,,,,,,,,,,,S,174,circle,1,1,,,,,,,,,,,,,,,,switch,number,numSwt,k,noRew,,,,,,1.0495,0,27,0,27,0,1,,,,,,,,,,,,,,,,,
297523,2022-11-19_15h16.14.881,vts_reward_expectancy_bt,2022.2.4,Win32,60.20832079,Chrome,1366,768,,,,,0,621,,,,,,,,,,,,,,,,,H,146,star,1,0,,,,,,,,,,,,,,,,switch,letter,lettSwt,d,noRew,,,,,,0.6209,0,28,0,28,0,1,,,,,,,,,,,,,,,,,
297523,2022-11-19_15h16.14.881,vts_reward_expectancy_bt,2022.2.4,Win32,60.20832079,Chrome,1366,768,,,,,0,621,,,,,,,,,,,,,,,,,S,174,circle,1,0,,,,,,,,,,,,,,,,switch,number,numSwt,k,noRew,,,,,,0.9519,0,29,0,29,0,1,,,,,,,,,,,,,,,,,
297523,2022-11-19_15h16.14.881,vts_reward_expectancy_bt,2022.2.4,Win32,60.20832079,Chrome,1366,768,,,,,0,621,,,,,,,,,,,,,,,,,Y,132,hexagon,1,0,,,,,,,,,,,,,,,,switch,letter,lettSwt,f,noRew,,,,,,1.4604,0,30,0,30,0,1,,,,,,,,,,,,,,,,,
297523,2022-11-19_15h16.14.881,vts_reward_expectancy_bt,2022.2.4,Win32,60.20832079,Chrome,1366,768,,,,,0,621,,,,,,,,,,,,,,,,,W,139,circle,1,0,,,,,,,,,,,,,,,,repeat,letter,lettRpt,f,noRew,,,,,,0.7459,0,31,0,31,0,1,,,,,,,,,,,,,,,,,
297523,2022-11-19_15h16.14.881,vts_reward_expectancy_bt,2022.2.4,Win32,60.20832079,Chrome,1366,768,,,,,0,621,,,,,,,,,,,,,,,,,U,132,hexagon,1,0,,,,,,,,,,,,,,,,switch,number,numSwt,j,noRew,,,,,,0.9492,0,32,0,32,0,1,,,,,,,,,,,,,,,,,
297523,2022-11-19_15h16.14.881,vts_reward_expectancy_bt,2022.2.4,Win32,60.20832079,Chrome,1366,768,,,,,0,621,,,,,,,,,,,,,,,,,F,174,triangle,0,0,,,,,,,,,,,,,,,,repeat,number,NA,j,noRew,,,,,,1.1043,0,33,0,33,0,1,,,,,,,,,,,,,,,,,
297523,2022-11-19_15h16.14.881,vts_reward_expectancy_bt,2022.2.4,Win32,60.20832079,Chrome,1366,768,,,,,0,621,,,,,,,,,,,,,,,,,D,139,circle,1,1,,,,,,,,,,,,,,,,switch,letter,lettSwt,d,noRew,,,,,,0.6798,0,34,0,34,0,1,,,,,,,,,,,,,,,,,
297523,2022-11-19_15h16.14.881,vts_reward_expectancy_bt,2022.2.4,Win32,60.20832079,Chrome,1366,768,,,,,0,621,,,,,,,,,,,,,,,,,Y,160,triangle,1,0,,,,,,,,,,,,,,,,repeat,letter,lettRpt,f,noRew,,,,,,1.085,0,35,0,35,0,1,,,,,,,,,,,,,,,,,
297523,2022-11-19_15h16.14.881,vts_reward_expectancy_bt,2022.2.4,Win32,60.20832079,Chrome,1366,768,,,,,0,621,,,,,,,,,,,,,,,,,U,160,triangle,1,0,,,,,,,,,,,,,,,,repeat,letter,lettRpt,f,noRew,,,,,,1.1578,0,36,0,36,0,1,,,,,,,,,,,,,,,,,
297523,2022-11-19_15h16.14.881,vts_reward_expectancy_bt,2022.2.4,Win32,60.20832079,Chrome,1366,768,,,,,0,621,,,,,,,,,,,,,,,,,H,174,hexagon,1,0,,,,,,,,,,,,,,,,repeat,letter,lettRpt,d,noRew,,,,,,0.7671,0,37,0,37,0,1,,,,,,,,,,,,,,,,,
297523,2022-11-19_15h16.14.881,vts_reward_expectancy_bt,2022.2.4,Win32,60.20832079,Chrome,1366,768,,,,,0,621,,,,,,,,,,,,,,,,,Y,125,hexagon,1,0,,,,,,,,,,,,,,,,repeat,letter,lettRpt,f,noRew,,,,,,0.9958,0,38,0,38,0,1,,,,,,,,,,,,,,,,,
297523,2022-11-19_15h16.14.881,vts_reward_expectancy_bt,2022.2.4,Win32,60.20832079,Chrome,1366,768,,,,,0,621,,,,,,,,,,,,,,,,,D,132,circle,1,0,,,,,,,,,,,,,,,,repeat,letter,lettRpt,d,noRew,,,,,,0.7676,0,39,0,39,0,1,,,,,,,,,,,,,,,,,
297523,2022-11-19_15h16.14.881,vts_reward_expectancy_bt,2022.2.4,Win32,60.20832079,Chrome,1366,768,,,,,0,621,,,,,,,,,,,,,,,,,S,132,circle,1,0,,,,,,,,,,,,,,,,repeat,letter,lettRpt,f,noRew,,,,,,0.8268,0,40,0,40,0,1,,,,,,,,,,,,,,,,,
297523,2022-11-19_15h16.14.881,vts_reward_expectancy_bt,2022.2.4,Win32,60.20832079,Chrome,1366,768,,,,,0,621,,,,,,,,,,,,,,,,,U,181,triangle,1,0,,,,,,,,,,,,,,,,switch,number,numSwt,k,noRew,,,,,,1.1533,0,41,0,41,0,1,,,,,,,,,,,,,,,,,
297523,2022-11-19_15h16.14.881,vts_reward_expectancy_bt,2022.2.4,Win32,60.20832079,Chrome,1366,768,,,,,0,621,,,,,,,,,,,,,,,,,Y,167,hexagon,1,0,,,,,,,,,,,,,,,,repeat,number,numRpt,k,noRew,,,,,,0.8892,0,42,0,42,0,1,,,,,,,,,,,,,,,,,
297523,2022-11-19_15h16.14.881,vts_reward_expectancy_bt,2022.2.4,Win32,60.20832079,Chrome,1366,768,,,,,0,621,,,,,,,,,,,,,,,,,F,125,star,1,0,,,,,,,,,,,,,,,,repeat,number,numRpt,j,noRew,,,,,,0.8409,0,43,0,43,0,1,,,,,,,,,,,,,,,,,
297523,2022-11-19_15h16.14.881,vts_reward_expectancy_bt,2022.2.4,Win32,60.20832079,Chrome,1366,768,,,,,0,621,,,,,,,,,,,,,,,,,S,181,circle,1,0,,,,,,,,,,,,,,,,repeat,number,numRpt,k,noRew,,,,,,0.9014,0,44,0,44,0,1,,,,,,,,,,,,,,,,,
297523,2022-11-19_15h16.14.881,vts_reward_expectancy_bt,2022.2.4,Win32,60.20832079,Chrome,1366,768,,,,,0,621,,,,,,,,,,,,,,,,,B,146,hexagon,1,0,,,,,,,,,,,,,,,,repeat,number,numRpt,j,noRew,,,,,,1.1403,0,45,0,45,0,1,,,,,,,,,,,,,,,,,
297523,2022-11-19_15h16.14.881,vts_reward_expectancy_bt,2022.2.4,Win32,60.20832079,Chrome,1366,768,,,,,0,621,,,,,,,,,,,,,,,,,U,174,circle,1,0,,,,,,,,,,,,,,,,repeat,number,numRpt,k,noRew,,,,,,0.8968,0,46,0,46,0,1,,,,,,,,,,,,,,,,,
297523,2022-11-19_15h16.14.881,vts_reward_expectancy_bt,2022.2.4,Win32,60.20832079,Chrome,1366,768,,,,,0,621,,,,,,,,,,,,,,,,,F,125,hexagon,1,0,,,,,,,,,,,,,,,,switch,letter,lettSwt,d,noRew,,,,,,1.2699,0,47,0,47,0,1,,,,,,,,,,,,,,,,,
297523,2022-11-19_15h16.14.881,vts_reward_expectancy_bt,2022.2.4,Win32,60.20832079,Chrome,1366,768,,,,,0,621,,,,,,,,,,,,,,,,,W,139,circle,1,0,,,,,,,,,,,,,,,,switch,number,numSwt,j,noRew,,,,,,1.9274,0,48,0,48,0,1,,,,,,,,,,,,,,,,,
297523,2022-11-19_15h16.14.881,vts_reward_expectancy_bt,2022.2.4,Win32,60.20832079,Chrome,1366,768,,,,,0,621,,,,,,,,,,,,,,,,,F,174,hexagon,1,0,,,,,,,,,,,,,,,,repeat,number,numRpt,k,noRew,,,,,,0.9833,0,49,0,49,0,1,,,,,,,,,,,,,,,,,
297523,2022-11-19_15h16.14.881,vts_reward_expectancy_bt,2022.2.4,Win32,60.20832079,Chrome,1366,768,,,,,0,621,,,,,,,,,,,,,,,,,H,181,hexagon,1,0,,,,,,,,,,,,,,,,switch,letter,lettSwt,d,noRew,,,,,,0.9214,0,50,0,50,0,1,,,,,,,,,,,,,,,,,
297523,2022-11-19_15h16.14.881,vts_reward_expectancy_bt,2022.2.4,Win32,60.20832079,Chrome,1366,768,,,,,0,621,,,,,,,,,,,,,,,,,S,125,circle,1,0,,,,,,,,,,,,,,,,repeat,letter,lettRpt,f,noRew,,,,,,1.711,0,51,0,51,0,1,,,,,,,,,,,,,,,,,
297523,2022-11-19_15h16.14.881,vts_reward_expectancy_bt,2022.2.4,Win32,60.20832079,Chrome,1366,768,,,,,0,621,,,,,,,,,,,,,,,,,F,146,star,0,0,,,,,,,,,,,,,,,,switch,number,NA,k,noRew,,,,,,1.1665,0,52,0,52,0,1,,,,,,,,,,,,,,,,,
297523,2022-11-19_15h16.14.881,vts_reward_expectancy_bt,2022.2.4,Win32,60.20832079,Chrome,1366,768,,,,,0,621,,,,,,,,,,,,,,,,,U,139,triangle,1,1,,,,,,,,,,,,,,,,repeat,number,numRpt,j,noRew,,,,,,1.8495,0,53,0,53,0,1,,,,,,,,,,,,,,,,,
297523,2022-11-19_15h16.14.881,vts_reward_expectancy_bt,2022.2.4,Win32,60.20832079,Chrome,1366,768,,,,,0,621,,,,,,,,,,,,,,,,,S,125,circle,1,0,,,,,,,,,,,,,,,,repeat,number,numRpt,j,noRew,,,,,,1.2278,0,54,0,54,0,1,,,,,,,,,,,,,,,,,
297523,2022-11-19_15h16.14.881,vts_reward_expectancy_bt,2022.2.4,Win32,60.20832079,Chrome,1366,768,,,,,0,621,,,,,,,,,,,,,,,,,D,167,triangle,1,0,,,,,,,,,,,,,,,,repeat,number,numRpt,k,noRew,,,,,,0.8759,0,55,0,55,0,1,,,,,,,,,,,,,,,,,
297523,2022-11-19_15h16.14.881,vts_reward_expectancy_bt,2022.2.4,Win32,60.20832079,Chrome,1366,768,,,,,0,621,,,,,,,,,,,,,,,,,U,160,star,1,0,,,,,,,,,,,,,,,,repeat,number,numRpt,k,noRew,,,,,,1.1497,0,56,0,56,0,1,,,,,,,,,,,,,,,,,
297523,2022-11-19_15h16.14.881,vts_reward_expectancy_bt,2022.2.4,Win32,60.20832079,Chrome,1366,768,,,,,0,621,,,,,,,,,,,,,,,,,S,125,circle,1,0,,,,,,,,,,,,,,,,switch,letter,lettSwt,f,noRew,,,,,,1.0658,0,57,0,57,0,1,,,,,,,,,,,,,,,,,
297523,2022-11-19_15h16.14.881,vts_reward_expectancy_bt,2022.2.4,Win32,60.20832079,Chrome,1366,768,,,,,0,621,,,,,,,,,,,,,,,,,B,167,circle,1,0,,,,,,,,,,,,,,,,repeat,letter,lettRpt,d,noRew,,,,,,0.7834,0,58,0,58,0,1,,,,,,,,,,,,,,,,,
297523,2022-11-19_15h16.14.881,vts_reward_expectancy_bt,2022.2.4,Win32,60.20832079,Chrome,1366,768,,,,,0,621,,,,,,,,,,,,,,,,,F,181,hexagon,1,0,,,,,,,,,,,,,,,,repeat,letter,lettRpt,d,noRew,,,,,,0.6999,0,59,0,59,0,1,,,,,,,,,,,,,,,,,
297523,2022-11-19_15h16.14.881,vts_reward_expectancy_bt,2022.2.4,Win32,60.20832079,Chrome,1366,768,,,,,0,621,,,,,,,,,,,,,,,,,U,167,triangle,1,0,,,,,,,,,,,,,,,,switch,number,numSwt,k,noRew,,,,,,0.8331,0,60,0,60,0,1,,,,,,,,,,,,,,,,,
297523,2022-11-19_15h16.14.881,vts_reward_expectancy_bt,2022.2.4,Win32,60.20832079,Chrome,1366,768,,,,,0,621,,,,,,,,,,,,,,,,,W,146,star,1,0,,,,,,,,,,,,,,,,repeat,number,numRpt,j,noRew,,,,,,0.4245,0,61,0,61,0,1,,,,,,,,,,,,,,,,,
297523,2022-11-19_15h16.14.881,vts_reward_expectancy_bt,2022.2.4,Win32,60.20832079,Chrome,1366,768,,,,,0,621,,,,,,,,,,,,,,,,,D,132,hexagon,1,0,,,,,,,,,,,,,,,,repeat,number,numRpt,j,noRew,,,,,,0.7508,0,62,0,62,0,1,,,,,,,,,,,,,,,,,
297523,2022-11-19_15h16.14.881,vts_reward_expectancy_bt,2022.2.4,Win32,60.20832079,Chrome,1366,768,,,,,0,621,,,,,,,,,,,,,,,,,S,181,triangle,1,0,,,,,,,,,,,,,,,,switch,letter,lettSwt,f,noRew,,,,,,1.5249,0,63,0,63,0,1,,,,,,,,,,,,,,,,,
297523,2022-11-19_15h16.14.881,vts_reward_expectancy_bt,2022.2.4,Win32,60.20832079,Chrome,1366,768,,,,,,,,,,,,,,,,,,,,,,,,,,,,,,,,,,,,,,,,,,,,,,,,,,,,,,,,,,,,,,,,,,,,,,,,,,,,
297523,2022-11-19_15h16.14.881,vts_reward_expectancy_bt,2022.2.4,Win32,60.20832079,Chrome,1366,768,,,,,0,621,,,,,,,,,,,,,,,,,D,160,triangle,1,0,,,,,,,,,,,,,,,,repeat,letter,lettRpt,d,Hi,,,,,,1.922,0,,,,,,space,8.8804,high,0,0,0,0,1,,,,,,,,,
297523,2022-11-19_15h16.14.881,vts_reward_expectancy_bt,2022.2.4,Win32,60.20832079,Chrome,1366,768,,,,,10,631,,,,,,,,,,,,,,,,,S,146,star,1,0,,,,,,,,,,,,,,,,switch,number,numSwt,j,Lo,,,,,,0.9775,0,,,,,,,,high,1,0,1,0,1,,,,,,,,,
297523,2022-11-19_15h16.14.881,vts_reward_expectancy_bt,2022.2.4,Win32,60.20832079,Chrome,1366,768,,,,,1,632,,,,,,,,,,,,,,,,,U,125,circle,1,0,,,,,,,,,,,,,,,,repeat,number,numRpt,j,Lo,,,,,,0.7202,0,,,,,,,,high,2,0,2,0,1,,,,,,,,,
297523,2022-11-19_15h16.14.881,vts_reward_expectancy_bt,2022.2.4,Win32,60.20832079,Chrome,1366,768,,,,,0,632,,,,,,,,,,,,,,,,,B,181,hexagon,1,0,,,,,,,,,,,,,,,,switch,letter,lettSwt,d,Hi,,,,,,1.1155,0,,,,,,,,high,3,0,3,0,1,,,,,,,,,
297523,2022-11-19_15h16.14.881,vts_reward_expectancy_bt,2022.2.4,Win32,60.20832079,Chrome,1366,768,,,,,0,632,,,,,,,,,,,,,,,,,Y,139,triangle,1,0,,,,,,,,,,,,,,,,switch,number,numSwt,j,Hi,,,,,,1.3715,0,,,,,,,,high,4,0,4,0,1,,,,,,,,,
297523,2022-11-19_15h16.14.881,vts_reward_expectancy_bt,2022.2.4,Win32,60.20832079,Chrome,1366,768,,,,,1,633,,,,,,,,,,,,,,,,,W,132,star,1,0,,,,,,,,,,,,,,,,repeat,number,numRpt,j,Lo,,,,,,0.7022,0,,,,,,,,high,5,0,5,0,1,,,,,,,,,
297523,2022-11-19_15h16.14.881,vts_reward_expectancy_bt,2022.2.4,Win32,60.20832079,Chrome,1366,768,,,,,0,633,,,,,,,,,,,,,,,,,H,174,circle,0,0,,,,,,,,,,,,,,,,switch,letter,NA,f,Lo,,,,,,1.057,0,,,,,,,,high,6,0,6,0,1,,,,,,,,,
297523,2022-11-19_15h16.14.881,vts_reward_expectancy_bt,2022.2.4,Win32,60.20832079,Chrome,1366,768,,,,,0,633,,,,,,,,,,,,,,,,,F,167,hexagon,0,1,,,,,,,,,,,,,,,,switch,number,NA,j,Lo,,,,,,1.3327,0,,,,,,,,high,7,0,7,0,1,,,,,,,,,
297523,2022-11-19_15h16.14.881,vts_reward_expectancy_bt,2022.2.4,Win32,60.20832079,Chrome,1366,768,,,,,10,643,,,,,,,,,,,,,,,,,D,160,star,1,1,,,,,,,,,,,,,,,,repeat,number,numRpt,k,Lo,,,,,,0.8685,0,,,,,,,,high,8,0,8,0,1,,,,,,,,,
297523,2022-11-19_15h16.14.881,vts_reward_expectancy_bt,2022.2.4,Win32,60.20832079,Chrome,1366,768,,,,,0,643,,,,,,,,,,,,,,,,,S,146,triangle,1,0,,,,,,,,,,,,,,,,switch,letter,lettSwt,f,Hi,,,,,,0.7022,0,,,,,,,,high,9,0,9,0,1,,,,,,,,,
297523,2022-11-19_15h16.14.881,vts_reward_expectancy_bt,2022.2.4,Win32,60.20832079,Chrome,1366,768,,,,,10,653,,,,,,,,,,,,,,,,,U,125,circle,1,0,,,,,,,,,,,,,,,,switch,number,numSwt,j,Lo,,,,,,0.9192,0,,,,,,,,high,10,0,10,0,1,,,,,,,,,
297523,2022-11-19_15h16.14.881,vts_reward_expectancy_bt,2022.2.4,Win32,60.20832079,Chrome,1366,768,,,,,0,653,,,,,,,,,,,,,,,,,B,181,hexagon,1,0,,,,,,,,,,,,,,,,repeat,number,numRpt,k,Hi,,,,,,1.2584,0,,,,,,,,high,11,0,11,0,1,,,,,,,,,
297523,2022-11-19_15h16.14.881,vts_reward_expectancy_bt,2022.2.4,Win32,60.20832079,Chrome,1366,768,,,,,1,654,,,,,,,,,,,,,,,,,Y,139,circle,1,0,,,,,,,,,,,,,,,,repeat,number,numRpt,j,Lo,,,,,,0.8501,0,,,,,,,,high,12,0,12,0,1,,,,,,,,,
297523,2022-11-19_15h16.14.881,vts_reward_expectancy_bt,2022.2.4,Win32,60.20832079,Chrome,1366,768,,,,,10,664,,,,,,,,,,,,,,,,,W,132,hexagon,1,0,,,,,,,,,,,,,,,,switch,letter,lettSwt,f,Hi,,,,,,0.5448,0,,,,,,,,high,13,0,13,0,1,,,,,,,,,
297523,2022-11-19_15h16.14.881,vts_reward_expectancy_bt,2022.2.4,Win32,60.20832079,Chrome,1366,768,,,,,1,665,,,,,,,,,,,,,,,,,H,174,star,1,0,,,,,,,,,,,,,,,,repeat,letter,lettRpt,d,Lo,,,,,,0.4672,0,,,,,,,,high,14,0,14,0,1,,,,,,,,,
297523,2022-11-19_15h16.14.881,vts_reward_expectancy_bt,2022.2.4,Win32,60.20832079,Chrome,1366,768,,,,,10,675,,,,,,,,,,,,,,,,,F,167,triangle,1,0,,,,,,,,,,,,,,,,switch,number,numSwt,k,Hi,,,,,,0.5953,0,,,,,,,,high,15,0,15,0,1,,,,,,,,,
297523,2022-11-19_15h16.14.881,vts_reward_expectancy_bt,2022.2.4,Win32,60.20832079,Chrome,1366,768,,,,,10,685,,,,,,,,,,,,,,,,,F,174,triangle,1,0,,,,,,,,,,,,,,,,repeat,number,numRpt,k,Hi,,,,,,0.533,0,,,,,,,,high,16,0,16,0,1,,,,,,,,,
297523,2022-11-19_15h16.14.881,vts_reward_expectancy_bt,2022.2.4,Win32,60.20832079,Chrome,1366,768,,,,,10,695,,,,,,,,,,,,,,,,,Y,160,hexagon,1,0,,,,,,,,,,,,,,,,switch,letter,lettSwt,f,Hi,,,,,,0.6012,0,,,,,,,,high,17,0,17,0,1,,,,,,,,,
297523,2022-11-19_15h16.14.881,vts_reward_expectancy_bt,2022.2.4,Win32,60.20832079,Chrome,1366,768,,,,,1,696,,,,,,,,,,,,,,,,,W,125,star,1,0,,,,,,,,,,,,,,,,switch,number,numSwt,j,Lo,,,,,,0.6028,0,,,,,,,,high,18,0,18,0,1,,,,,,,,,
297523,2022-11-19_15h16.14.881,vts_reward_expectancy_bt,2022.2.4,Win32,60.20832079,Chrome,1366,768,,,,,1,697,,,,,,,,,,,,,,,,,S,132,circle,1,0,,,,,,,,,,,,,,,,switch,letter,lettSwt,f,Lo,,,,,,0.5828,0,,,,,,,,high,19,0,19,0,1,,,,,,,,,
297523,2022-11-19_15h16.14.881,vts_reward_expectancy_bt,2022.2.4,Win32,60.20832079,Chrome,1366,768,,,,,10,707,,,,,,,,,,,,,,,,,H,181,triangle,1,0,,,,,,,,,,,,,,,,switch,number,numSwt,k,Hi,,,,,,0.5343,0,,,,,,,,high,20,0,20,0,1,,,,,,,,,
297523,2022-11-19_15h16.14.881,vts_reward_expectancy_bt,2022.2.4,Win32,60.20832079,Chrome,1366,768,,,,,1,708,,,,,,,,,,,,,,,,,D,167,star,1,0,,,,,,,,,,,,,,,,repeat,number,numRpt,k,Lo,,,,,,0.6593,0,,,,,,,,high,21,0,21,0,1,,,,,,,,,
297523,2022-11-19_15h16.14.881,vts_reward_expectancy_bt,2022.2.4,Win32,60.20832079,Chrome,1366,768,,,,,1,709,,,,,,,,,,,,,,,,,B,139,circle,1,0,,,,,,,,,,,,,,,,repeat,number,numRpt,j,Lo,,,,,,0.7493,0,,,,,,,,high,22,0,22,0,1,,,,,,,,,
297523,2022-11-19_15h16.14.881,vts_reward_expectancy_bt,2022.2.4,Win32,60.20832079,Chrome,1366,768,,,,,0,709,,,,,,,,,,,,,,,,,U,146,hexagon,1,0,,,,,,,,,,,,,,,,repeat,number,numRpt,j,Hi,,,,,,0.9085,0,,,,,,,,high,23,0,23,0,1,,,,,,,,,
297523,2022-11-19_15h16.14.881,vts_reward_expectancy_bt,2022.2.4,Win32,60.20832079,Chrome,1366,768,,,,,1,710,,,,,,,,,,,,,,,,,F,125,circle,1,0,,,,,,,,,,,,,,,,switch,letter,lettSwt,d,Lo,,,,,,1.2664,0,,,,,,,,high,24,0,24,0,1,,,,,,,,,
297523,2022-11-19_15h16.14.881,vts_reward_expectancy_bt,2022.2.4,Win32,60.20832079,Chrome,1366,768,,,,,10,720,,,,,,,,,,,,,,,,,D,167,hexagon,1,0,,,,,,,,,,,,,,,,switch,number,numSwt,k,Hi,,,,,,0.8504,0,,,,,,,,high,25,0,25,0,1,,,,,,,,,
297523,2022-11-19_15h16.14.881,vts_reward_expectancy_bt,2022.2.4,Win32,60.20832079,Chrome,1366,768,,,,,10,730,,,,,,,,,,,,,,,,,H,139,triangle,1,0,,,,,,,,,,,,,,,,switch,letter,lettSwt,d,Hi,,,,,,0.4686,0,,,,,,,,high,26,0,26,0,1,,,,,,,,,
297523,2022-11-19_15h16.14.881,vts_reward_expectancy_bt,2022.2.4,Win32,60.20832079,Chrome,1366,768,,,,,0,730,,,,,,,,,,,,,,,,,W,181,star,0,0,,,,,,,,,,,,,,,,repeat,letter,NA,d,Hi,,,,,,0.7727,0,,,,,,,,high,27,0,27,0,1,,,,,,,,,
297523,2022-11-19_15h16.14.881,vts_reward_expectancy_bt,2022.2.4,Win32,60.20832079,Chrome,1366,768,,,,,10,740,,,,,,,,,,,,,,,,,U,132,hexagon,1,1,,,,,,,,,,,,,,,,switch,number,numSwt,j,Hi,,,,,,0.8613,0,,,,,,,,high,28,0,28,0,1,,,,,,,,,
297523,2022-11-19_15h16.14.881,vts_reward_expectancy_bt,2022.2.4,Win32,60.20832079,Chrome,1366,768,,,,,0,740,,,,,,,,,,,,,,,,,Y,146,circle,0,0,,,,,,,,,,,,,,,,repeat,number,NA,k,Hi,,,,,,0.6839,0,,,,,,,,high,29,0,29,0,1,,,,,,,,,
297523,2022-11-19_15h16.14.881,vts_reward_expectancy_bt,2022.2.4,Win32,60.20832079,Chrome,1366,768,,,,,1,741,,,,,,,,,,,,,,,,,S,160,star,1,1,,,,,,,,,,,,,,,,repeat,number,numRpt,k,Lo,,,,,,0.8161,0,,,,,,,,high,30,0,30,0,1,,,,,,,,,
297523,2022-11-19_15h16.14.881,vts_reward_expectancy_bt,2022.2.4,Win32,60.20832079,Chrome,1366,768,,,,,1,742,,,,,,,,,,,,,,,,,B,174,triangle,1,0,,,,,,,,,,,,,,,,repeat,number,numRpt,k,Hi,,,,,,0.8414,0,,,,,,,,high,31,0,31,0,1,,,,,,,,,
297523,2022-11-19_15h16.14.881,vts_reward_expectancy_bt,2022.2.4,Win32,60.20832079,Chrome,1366,768,,,,,0,742,,,,,,,,,,,,,,,,,W,125,star,0,0,,,,,,,,,,,,,,,,switch,letter,NA,d,Hi,,,,,,1.317,1,,,,,,space,1.2721,high,0,0,0,0,1,,,,,,,,,
297523,2022-11-19_15h16.14.881,vts_reward_expectancy_bt,2022.2.4,Win32,60.20832079,Chrome,1366,768,,,,,1,743,,,,,,,,,,,,,,,,,F,160,circle,1,1,,,,,,,,,,,,,,,,switch,number,numSwt,k,Lo,,,,,,1.016,1,,,,,,,,high,1,0,1,0,1,,,,,,,,,
297523,2022-11-19_15h16.14.881,vts_reward_expectancy_bt,2022.2.4,Win32,60.20832079,Chrome,1366,768,,,,,0,743,,,,,,,,,,,,,,,,,H,132,hexagon,1,0,,,,,,,,,,,,,,,,repeat,number,numRpt,j,Hi,,,,,,1.0338,1,,,,,,,,high,2,0,2,0,1,,,,,,,,,
297523,2022-11-19_15h16.14.881,vts_reward_expectancy_bt,2022.2.4,Win32,60.20832079,Chrome,1366,768,,,,,10,753,,,,,,,,,,,,,,,,,D,139,triangle,1,0,,,,,,,,,,,,,,,,repeat,number,numRpt,j,Hi,,,,,,0.6731,1,,,,,,,,high,3,0,3,0,1,,,,,,,,,
297523,2022-11-19_15h16.14.881,vts_reward_expectancy_bt,2022.2.4,Win32,60.20832079,Chrome,1366,768,,,,,1,754,,,,,,,,,,,,,,,,,B,146,star,1,0,,,,,,,,,,,,,,,,switch,letter,lettSwt,d,Lo,,,,,,0.5336,1,,,,,,,,high,4,0,4,0,1,,,,,,,,,
297523,2022-11-19_15h16.14.881,vts_reward_expectancy_bt,2022.2.4,Win32,60.20832079,Chrome,1366,768,,,,,1,755,,,,,,,,,,,,,,,,,Y,181,circle,1,0,,,,,,,,,,,,,,,,switch,number,numSwt,k,Lo,,,,,,0.6401,1,,,,,,,,high,5,0,5,0,1,,,,,,,,,
297523,2022-11-19_15h16.14.881,vts_reward_expectancy_bt,2022.2.4,Win32,60.20832079,Chrome,1366,768,,,,,0,755,,,,,,,,,,,,,,,,,U,167,hexagon,1,0,,,,,,,,,,,,,,,,switch,letter,lettSwt,f,Hi,,,,,,1.1365,1,,,,,,,,high,6,0,6,0,1,,,,,,,,,
297523,2022-11-19_15h16.14.881,vts_reward_expectancy_bt,2022.2.4,Win32,60.20832079,Chrome,1366,768,,,,,10,765,,,,,,,,,,,,,,,,,S,174,triangle,1,0,,,,,,,,,,,,,,,,repeat,letter,lettRpt,f,Hi,,,,,,0.5604,1,,,,,,,,high,7,0,7,0,1,,,,,,,,,
297523,2022-11-19_15h16.14.881,vts_reward_expectancy_bt,2022.2.4,Win32,60.20832079,Chrome,1366,768,,,,,10,775,,,,,,,,,,,,,,,,,W,125,hexagon,1,0,,,,,,,,,,,,,,,,switch,number,numSwt,j,Hi,,,,,,0.6428,1,,,,,,,,high,8,0,8,0,1,,,,,,,,,
297523,2022-11-19_15h16.14.881,vts_reward_expectancy_bt,2022.2.4,Win32,60.20832079,Chrome,1366,768,,,,,1,776,,,,,,,,,,,,,,,,,F,160,star,1,0,,,,,,,,,,,,,,,,switch,letter,lettSwt,d,Lo,,,,,,0.8857,1,,,,,,,,high,9,0,9,0,1,,,,,,,,,
297523,2022-11-19_15h16.14.881,vts_reward_expectancy_bt,2022.2.4,Win32,60.20832079,Chrome,1366,768,,,,,0,776,,,,,,,,,,,,,,,,,H,132,circle,0,0,,,,,,,,,,,,,,,,switch,number,NA,k,Lo,,,,,,0.7706,1,,,,,,,,high,10,0,10,0,1,,,,,,,,,
297523,2022-11-19_15h16.14.881,vts_reward_expectancy_bt,2022.2.4,Win32,60.20832079,Chrome,1366,768,,,,,0,776,,,,,,,,,,,,,,,,,D,139,triangle,1,1,,,,,,,,,,,,,,,,repeat,number,numRpt,j,Hi,,,,,,1.0779,1,,,,,,,,high,11,0,11,0,1,,,,,,,,,
297523,2022-11-19_15h16.14.881,vts_reward_expectancy_bt,2022.2.4,Win32,60.20832079,Chrome,1366,768,,,,,1,777,,,,,,,,,,,,,,,,,B,146,star,1,0,,,,,,,,,,,,,,,,repeat,number,numRpt,j,Lo,,,,,,0.869,1,,,,,,,,high,12,0,12,0,1,,,,,,,,,
297523,2022-11-19_15h16.14.881,vts_reward_expectancy_bt,2022.2.4,Win32,60.20832079,Chrome,1366,768,,,,,10,787,,,,,,,,,,,,,,,,,Y,181,triangle,1,0,,,,,,,,,,,,,,,,switch,letter,lettSwt,f,Hi,,,,,,0.4874,1,,,,,,,,high,13,0,13,0,1,,,,,,,,,
297523,2022-11-19_15h16.14.881,vts_reward_expectancy_bt,2022.2.4,Win32,60.20832079,Chrome,1366,768,,,,,10,797,,,,,,,,,,,,,,,,,U,167,hexagon,1,0,,,,,,,,,,,,,,,,repeat,letter,lettRpt,f,Hi,,,,,,0.6832,1,,,,,,,,high,14,0,14,0,1,,,,,,,,,
297523,2022-11-19_15h16.14.881,vts_reward_expectancy_bt,2022.2.4,Win32,60.20832079,Chrome,1366,768,,,,,1,798,,,,,,,,,,,,,,,,,S,174,circle,1,0,,,,,,,,,,,,,,,,switch,number,numSwt,k,Lo,,,,,,1.2668,1,,,,,,,,high,15,0,15,0,1,,,,,,,,,
297523,2022-11-19_15h16.14.881,vts_reward_expectancy_bt,2022.2.4,Win32,60.20832079,Chrome,1366,768,,,,,0,798,,,,,,,,,,,,,,,,,S,132,hexagon,1,0,,,,,,,,,,,,,,,,switch,letter,lettSwt,f,Hi,,,,,,1.1771,1,,,,,,,,high,16,0,16,0,1,,,,,,,,,
297523,2022-11-19_15h16.14.881,vts_reward_expectancy_bt,2022.2.4,Win32,60.20832079,Chrome,1366,768,,,,,1,799,,,,,,,,,,,,,,,,,F,125,circle,1,0,,,,,,,,,,,,,,,,switch,number,numSwt,j,Lo,,,,,,0.6675,1,,,,,,,,high,17,0,17,0,1,,,,,,,,,
297523,2022-11-19_15h16.14.881,vts_reward_expectancy_bt,2022.2.4,Win32,60.20832079,Chrome,1366,768,,,,,10,809,,,,,,,,,,,,,,,,,W,167,star,1,0,,,,,,,,,,,,,,,,switch,letter,lettSwt,f,Lo,,,,,,0.9358,1,,,,,,,,high,18,0,18,0,1,,,,,,,,,
297523,2022-11-19_15h16.14.881,vts_reward_expectancy_bt,2022.2.4,Win32,60.20832079,Chrome,1366,768,,,,,10,819,,,,,,,,,,,,,,,,,D,139,triangle,1,0,,,,,,,,,,,,,,,,repeat,letter,lettRpt,d,Hi,,,,,,0.7176,1,,,,,,,,high,19,0,19,0,1,,,,,,,,,
297523,2022-11-19_15h16.14.881,vts_reward_expectancy_bt,2022.2.4,Win32,60.20832079,Chrome,1366,768,,,,,1,820,,,,,,,,,,,,,,,,,H,146,circle,1,0,,,,,,,,,,,,,,,,switch,number,numSwt,j,Lo,,,,,,1.0498,1,,,,,,,,high,20,0,20,0,1,,,,,,,,,
297523,2022-11-19_15h16.14.881,vts_reward_expectancy_bt,2022.2.4,Win32,60.20832079,Chrome,1366,768,,,,,0,820,,,,,,,,,,,,,,,,,B,174,triangle,1,0,,,,,,,,,,,,,,,,switch,letter,lettSwt,d,Hi,,,,,,0.6673,1,,,,,,,,high,21,0,21,0,1,,,,,,,,,
297523,2022-11-19_15h16.14.881,vts_reward_expectancy_bt,2022.2.4,Win32,60.20832079,Chrome,1366,768,,,,,1,821,,,,,,,,,,,,,,,,,U,181,star,1,0,,,,,,,,,,,,,,,,switch,number,numSwt,k,Lo,,,,,,0.5844,1,,,,,,,,high,22,0,22,0,1,,,,,,,,,
297523,2022-11-19_15h16.14.881,vts_reward_expectancy_bt,2022.2.4,Win32,60.20832079,Chrome,1366,768,,,,,0,821,,,,,,,,,,,,,,,,,Y,160,hexagon,1,0,,,,,,,,,,,,,,,,switch,letter,lettSwt,f,Hi,,,,,,0.8495,1,,,,,,,,high,23,0,23,0,1,,,,,,,,,
297523,2022-11-19_15h16.14.881,vts_reward_expectancy_bt,2022.2.4,Win32,60.20832079,Chrome,1366,768,,,,,1,822,,,,,,,,,,,,,,,,,U,167,star,1,0,,,,,,,,,,,,,,,,switch,number,numSwt,k,Lo,,,,,,0.6179,1,,,,,,,,high,24,0,24,0,1,,,,,,,,,
297523,2022-11-19_15h16.14.881,vts_reward_expectancy_bt,2022.2.4,Win32,60.20832079,Chrome,1366,768,,,,,10,832,,,,,,,,,,,,,,,,,D,181,triangle,1,0,,,,,,,,,,,,,,,,repeat,number,numRpt,k,Hi,,,,,,0.5664,1,,,,,,,,high,25,0,25,0,1,,,,,,,,,
297523,2022-11-19_15h16.14.881,vts_reward_expectancy_bt,2022.2.4,Win32,60.20832079,Chrome,1366,768,,,,,10,842,,,,,,,,,,,,,,,,,B,174,hexagon,1,0,,,,,,,,,,,,,,,,repeat,number,numRpt,k,Hi,,,,,,0.3771,1,,,,,,,,high,26,0,26,0,1,,,,,,,,,
297523,2022-11-19_15h16.14.881,vts_reward_expectancy_bt,2022.2.4,Win32,60.20832079,Chrome,1366,768,,,,,1,843,,,,,,,,,,,,,,,,,Y,160,circle,1,0,,,,,,,,,,,,,,,,repeat,number,numRpt,k,Lo,,,,,,0.456,1,,,,,,,,high,27,0,27,0,1,,,,,,,,,
297523,2022-11-19_15h16.14.881,vts_reward_expectancy_bt,2022.2.4,Win32,60.20832079,Chrome,1366,768,,,,,10,853,,,,,,,,,,,,,,,,,S,125,hexagon,1,0,,,,,,,,,,,,,,,,repeat,number,numRpt,j,Hi,,,,,,0.6601,1,,,,,,,,high,28,0,28,0,1,,,,,,,,,
297523,2022-11-19_15h16.14.881,vts_reward_expectancy_bt,2022.2.4,Win32,60.20832079,Chrome,1366,768,,,,,10,863,,,,,,,,,,,,,,,,,F,139,triangle,1,0,,,,,,,,,,,,,,,,repeat,number,numRpt,j,Hi,,,,,,0.6048,1,,,,,,,,high,29,0,29,0,1,,,,,,,,,
297523,2022-11-19_15h16.14.881,vts_reward_expectancy_bt,2022.2.4,Win32,60.20832079,Chrome,1366,768,,,,,1,864,,,,,,,,,,,,,,,,,H,146,star,1,0,,,,,,,,,,,,,,,,repeat,number,numRpt,j,Lo,,,,,,0.6164,1,,,,,,,,high,30,0,30,0,1,,,,,,,,,
297523,2022-11-19_15h16.14.881,vts_reward_expectancy_bt,2022.2.4,Win32,60.20832079,Chrome,1366,768,,,,,1,865,,,,,,,,,,,,,,,,,W,132,circle,1,0,,,,,,,,,,,,,,,,switch,letter,lettSwt,f,Lo,,,,,,0.4997,1,,,,,,,,high,31,0,31,0,1,,,,,,,,,
297523,2022-11-19_15h16.14.881,vts_reward_expectancy_bt,2022.2.4,Win32,60.20832079,Chrome,1366,768,,,,,1,866,,,,,,,,,,,,,,,,,Y,167,circle,1,0,,,,,,,,,,,,,,,,switch,number,numSwt,k,Lo,,,,,,0.6845,2,,,,,,space,3.1304,high,0,0,0,0,1,,,,,,,,,
297523,2022-11-19_15h16.14.881,vts_reward_expectancy_bt,2022.2.4,Win32,60.20832079,Chrome,1366,768,,,,,1,867,,,,,,,,,,,,,,,,,H,132,star,1,0,,,,,,,,,,,,,,,,repeat,number,numRpt,j,Lo,,,,,,0.5426,2,,,,,,,,high,1,0,1,0,1,,,,,,,,,
297523,2022-11-19_15h16.14.881,vts_reward_expectancy_bt,2022.2.4,Win32,60.20832079,Chrome,1366,768,,,,,0,867,,,,,,,,,,,,,,,,,F,146,triangle,0,0,,,,,,,,,,,,,,,,repeat,number,NA,k,Lo,,,,,,0.7514,2,,,,,,,,high,2,0,2,0,1,,,,,,,,,
297523,2022-11-19_15h16.14.881,vts_reward_expectancy_bt,2022.2.4,Win32,60.20832079,Chrome,1366,768,,,,,0,867,,,,,,,,,,,,,,,,,D,181,hexagon,1,1,,,,,,,,,,,,,,,,switch,letter,lettSwt,d,Hi,,,,,,0.9667,2,,,,,,,,high,3,0,3,0,1,,,,,,,,,
297523,2022-11-19_15h16.14.881,vts_reward_expectancy_bt,2022.2.4,Win32,60.20832079,Chrome,1366,768,,,,,1,868,,,,,,,,,,,,,,,,,B,160,circle,1,0,,,,,,,,,,,,,,,,repeat,letter,lettRpt,d,Lo,,,,,,0.5056,2,,,,,,,,high,4,0,4,0,1,,,,,,,,,
297523,2022-11-19_15h16.14.881,vts_reward_expectancy_bt,2022.2.4,Win32,60.20832079,Chrome,1366,768,,,,,1,869,,,,,,,,,,,,,,,,,U,174,star,1,0,,,,,,,,,,,,,,,,repeat,letter,lettRpt,f,Lo,,,,,,0.8497,2,,,,,,,,high,5,0,5,0,1,,,,,,,,,
297523,2022-11-19_15h16.14.881,vts_reward_expectancy_bt,2022.2.4,Win32,60.20832079,Chrome,1366,768,,,,,10,879,,,,,,,,,,,,,,,,,W,139,triangle,1,0,,,,,,,,,,,,,,,,switch,number,numSwt,j,Hi,,,,,,0.4863,2,,,,,,,,high,6,0,6,0,1,,,,,,,,,
297523,2022-11-19_15h16.14.881,vts_reward_expectancy_bt,2022.2.4,Win32,60.20832079,Chrome,1366,768,,,,,10,889,,,,,,,,,,,,,,,,,S,125,hexagon,1,0,,,,,,,,,,,,,,,,repeat,number,numRpt,j,Hi,,,,,,0.6003,2,,,,,,,,high,7,0,7,0,1,,,,,,,,,
297523,2022-11-19_15h16.14.881,vts_reward_expectancy_bt,2022.2.4,Win32,60.20832079,Chrome,1366,768,,,,,0,889,,,,,,,,,,,,,,,,,Y,167,star,0,0,,,,,,,,,,,,,,,,repeat,number,NA,j,Hi,,,,,,0.5081,2,,,,,,,,high,8,0,8,0,1,,,,,,,,,
297523,2022-11-19_15h16.14.881,vts_reward_expectancy_bt,2022.2.4,Win32,60.20832079,Chrome,1366,768,,,,,1,890,,,,,,,,,,,,,,,,,H,132,circle,1,1,,,,,,,,,,,,,,,,repeat,number,numRpt,j,Lo,,,,,,0.5758,2,,,,,,,,high,9,0,9,0,1,,,,,,,,,
297523,2022-11-19_15h16.14.881,vts_reward_expectancy_bt,2022.2.4,Win32,60.20832079,Chrome,1366,768,,,,,0,890,,,,,,,,,,,,,,,,,F,146,triangle,1,0,,,,,,,,,,,,,,,,switch,letter,lettSwt,d,Hi,,,,,,0.6746,2,,,,,,,,high,10,0,10,0,1,,,,,,,,,
297523,2022-11-19_15h16.14.881,vts_reward_expectancy_bt,2022.2.4,Win32,60.20832079,Chrome,1366,768,,,,,10,900,,,,,,,,,,,,,,,,,D,181,hexagon,1,0,,,,,,,,,,,,,,,,switch,number,numSwt,k,Hi,,,,,,0.5502,2,,,,,,,,high,11,0,11,0,1,,,,,,,,,
297523,2022-11-19_15h16.14.881,vts_reward_expectancy_bt,2022.2.4,Win32,60.20832079,Chrome,1366,768,,,,,0,900,,,,,,,,,,,,,,,,,B,160,hexagon,1,0,,,,,,,,,,,,,,,,repeat,number,numRpt,k,Hi,,,,,,0.6181,2,,,,,,,,high,12,0,12,0,1,,,,,,,,,
297523,2022-11-19_15h16.14.881,vts_reward_expectancy_bt,2022.2.4,Win32,60.20832079,Chrome,1366,768,,,,,1,901,,,,,,,,,,,,,,,,,U,174,star,1,0,,,,,,,,,,,,,,,,repeat,number,numRpt,k,Lo,,,,,,0.6333,2,,,,,,,,high,13,0,13,0,1,,,,,,,,,
297523,2022-11-19_15h16.14.881,vts_reward_expectancy_bt,2022.2.4,Win32,60.20832079,Chrome,1366,768,,,,,1,902,,,,,,,,,,,,,,,,,W,139,circle,1,0,,,,,,,,,,,,,,,,repeat,number,numRpt,j,Lo,,,,,,0.6564,2,,,,,,,,high,14,0,14,0,1,,,,,,,,,
297523,2022-11-19_15h16.14.881,vts_reward_expectancy_bt,2022.2.4,Win32,60.20832079,Chrome,1366,768,,,,,1,903,,,,,,,,,,,,,,,,,S,125,triangle,1,0,,,,,,,,,,,,,,,,switch,letter,lettSwt,f,Hi,,,,,,0.4281,2,,,,,,,,high,15,0,15,0,1,,,,,,,,,
297523,2022-11-19_15h16.14.881,vts_reward_expectancy_bt,2022.2.4,Win32,60.20832079,Chrome,1366,768,,,,,10,913,,,,,,,,,,,,,,,,,S,132,hexagon,1,0,,,,,,,,,,,,,,,,repeat,letter,lettRpt,f,Hi,,,,,,0.544,2,,,,,,,,high,16,0,16,0,1,,,,,,,,,
297523,2022-11-19_15h16.14.881,vts_reward_expectancy_bt,2022.2.4,Win32,60.20832079,Chrome,1366,768,,,,,1,914,,,,,,,,,,,,,,,,,Y,167,circle,1,0,,,,,,,,,,,,,,,,repeat,letter,lettRpt,f,Lo,,,,,,0.5435,2,,,,,,,,high,17,0,17,0,1,,,,,,,,,
297523,2022-11-19_15h16.14.881,vts_reward_expectancy_bt,2022.2.4,Win32,60.20832079,Chrome,1366,768,,,,,0,914,,,,,,,,,,,,,,,,,U,125,triangle,1,0,,,,,,,,,,,,,,,,switch,number,numSwt,j,Hi,,,,,,0.6575,2,,,,,,,,high,18,0,18,0,1,,,,,,,,,
297523,2022-11-19_15h16.14.881,vts_reward_expectancy_bt,2022.2.4,Win32,60.20832079,Chrome,1366,768,,,,,1,915,,,,,,,,,,,,,,,,,H,139,star,1,0,,,,,,,,,,,,,,,,repeat,number,numRpt,j,Lo,,,,,,0.5162,2,,,,,,,,high,19,0,19,0,1,,,,,,,,,
297523,2022-11-19_15h16.14.881,vts_reward_expectancy_bt,2022.2.4,Win32,60.20832079,Chrome,1366,768,,,,,0,915,,,,,,,,,,,,,,,,,F,174,hexagon,1,0,,,,,,,,,,,,,,,,switch,letter,lettSwt,d,Hi,,,,,,0.6837,2,,,,,,,,high,20,0,20,0,1,,,,,,,,,
297523,2022-11-19_15h16.14.881,vts_reward_expectancy_bt,2022.2.4,Win32,60.20832079,Chrome,1366,768,,,,,1,916,,,,,,,,,,,,,,,,,D,181,circle,1,0,,,,,,,,,,,,,,,,switch,number,numSwt,k,Lo,,,,,,0.4177,2,,,,,,,,high,21,0,21,0,1,,,,,,,,,
297523,2022-11-19_15h16.14.881,vts_reward_expectancy_bt,2022.2.4,Win32,60.20832079,Chrome,1366,768,,,,,0,916,,,,,,,,,,,,,,,,,B,146,triangle,1,0,,,,,,,,,,,,,,,,repeat,number,numRpt,j,Hi,,,,,,0.6922,2,,,,,,,,high,22,0,22,0,1,,,,,,,,,
297523,2022-11-19_15h16.14.881,vts_reward_expectancy_bt,2022.2.4,Win32,60.20832079,Chrome,1366,768,,,,,0,916,,,,,,,,,,,,,,,,,W,160,star,0,0,,,,,,,,,,,,,,,,repeat,number,NA,j,Hi,,,,,,0.5171,2,,,,,,,,high,23,0,23,0,1,,,,,,,,,
297523,2022-11-19_15h16.14.881,vts_reward_expectancy_bt,2022.2.4,Win32,60.20832079,Chrome,1366,768,,,,,1,917,,,,,,,,,,,,,,,,,B,160,circle,1,1,,,,,,,,,,,,,,,,repeat,number,numRpt,k,Lo,,,,,,0.3895,2,,,,,,,,high,24,0,24,0,1,,,,,,,,,
297523,2022-11-19_15h16.14.881,vts_reward_expectancy_bt,2022.2.4,Win32,60.20832079,Chrome,1366,768,,,,,1,918,,,,,,,,,,,,,,,,,Y,132,star,1,0,,,,,,,,,,,,,,,,repeat,number,numRpt,j,Lo,,,,,,0.6503,2,,,,,,,,high,25,0,25,0,1,,,,,,,,,
297523,2022-11-19_15h16.14.881,vts_reward_expectancy_bt,2022.2.4,Win32,60.20832079,Chrome,1366,768,,,,,1,919,,,,,,,,,,,,,,,,,F,125,triangle,1,0,,,,,,,,,,,,,,,,repeat,number,numRpt,j,Hi,,,,,,0.5272,2,,,,,,,,high,26,0,26,0,1,,,,,,,,,
297523,2022-11-19_15h16.14.881,vts_reward_expectancy_bt,2022.2.4,Win32,60.20832079,Chrome,1366,768,,,,,0,919,,,,,,,,,,,,,,,,,D,146,hexagon,0,0,,,,,,,,,,,,,,,,repeat,number,NA,k,Hi,,,,,,0.6894,2,,,,,,,,high,27,0,27,0,1,,,,,,,,,
297523,2022-11-19_15h16.14.881,vts_reward_expectancy_bt,2022.2.4,Win32,60.20832079,Chrome,1366,768,,,,,1,920,,,,,,,,,,,,,,,,,H,139,circle,1,1,,,,,,,,,,,,,,,,repeat,number,numRpt,j,Lo,,,,,,0.8212,2,,,,,,,,high,28,0,28,0,1,,,,,,,,,
297523,2022-11-19_15h16.14.881,vts_reward_expectancy_bt,2022.2.4,Win32,60.20832079,Chrome,1366,768,,,,,0,920,,,,,,,,,,,,,,,,,W,167,hexagon,0,0,,,,,,,,,,,,,,,,repeat,number,NA,j,Lo,,,,,,0.617,2,,,,,,,,high,29,0,29,0,1,,,,,,,,,
297523,2022-11-19_15h16.14.881,vts_reward_expectancy_bt,2022.2.4,Win32,60.20832079,Chrome,1366,768,,,,,1,921,,,,,,,,,,,,,,,,,U,181,star,1,1,,,,,,,,,,,,,,,,repeat,number,numRpt,k,Lo,,,,,,0.4514,2,,,,,,,,high,30,0,30,0,1,,,,,,,,,
297523,2022-11-19_15h16.14.881,vts_reward_expectancy_bt,2022.2.4,Win32,60.20832079,Chrome,1366,768,,,,,10,931,,,,,,,,,,,,,,,,,S,174,triangle,1,0,,,,,,,,,,,,,,,,repeat,number,numRpt,k,Hi,,,,,,0.5499,2,,,,,,,,high,31,0,31,0,1,,,,,,,,,
297523,2022-11-19_15h16.14.881,vts_reward_expectancy_bt,2022.2.4,Win32,60.20832079,Chrome,1366,768,,,,,0,931,,,,,,,,,,,,,,,,,Y,139,triangle,1,0,,,,,,,,,,,,,,,,repeat,number,numRpt,j,Hi,,,,,,0.8834,3,,,,,,space,1.3094,high,0,0,0,0,1,,,,,,,,,
297523,2022-11-19_15h16.14.881,vts_reward_expectancy_bt,2022.2.4,Win32,60.20832079,Chrome,1366,768,,,,,10,941,,,,,,,,,,,,,,,,,H,181,hexagon,1,0,,,,,,,,,,,,,,,,switch,letter,lettSwt,d,Hi,,,,,,0.6011,3,,,,,,,,high,1,0,1,0,1,,,,,,,,,
297523,2022-11-19_15h16.14.881,vts_reward_expectancy_bt,2022.2.4,Win32,60.20832079,Chrome,1366,768,,,,,1,942,,,,,,,,,,,,,,,,,B,174,circle,1,0,,,,,,,,,,,,,,,,repeat,letter,lettRpt,d,Lo,,,,,,0.5278,3,,,,,,,,high,2,0,2,0,1,,,,,,,,,
297523,2022-11-19_15h16.14.881,vts_reward_expectancy_bt,2022.2.4,Win32,60.20832079,Chrome,1366,768,,,,,1,943,,,,,,,,,,,,,,,,,D,125,star,1,0,,,,,,,,,,,,,,,,repeat,letter,lettRpt,d,Lo,,,,,,0.4666,3,,,,,,,,high,3,0,3,0,1,,,,,,,,,
297523,2022-11-19_15h16.14.881,vts_reward_expectancy_bt,2022.2.4,Win32,60.20832079,Chrome,1366,768,,,,,0,943,,,,,,,,,,,,,,,,,W,167,triangle,1,0,,,,,,,,,,,,,,,,switch,number,numSwt,k,Hi,,,,,,0.5503,3,,,,,,,,high,4,0,4,0,1,,,,,,,,,
297523,2022-11-19_15h16.14.881,vts_reward_expectancy_bt,2022.2.4,Win32,60.20832079,Chrome,1366,768,,,,,0,943,,,,,,,,,,,,,,,,,F,146,hexagon,1,0,,,,,,,,,,,,,,,,repeat,number,numRpt,j,Hi,,,,,,0.6949,3,,,,,,,,high,5,0,5,0,1,,,,,,,,,
297523,2022-11-19_15h16.14.881,vts_reward_expectancy_bt,2022.2.4,Win32,60.20832079,Chrome,1366,768,,,,,1,944,,,,,,,,,,,,,,,,,S,132,circle,1,0,,,,,,,,,,,,,,,,repeat,number,numRpt,j,Lo,,,,,,0.6123,3,,,,,,,,high,6,0,6,0,1,,,,,,,,,
297523,2022-11-19_15h16.14.881,vts_reward_expectancy_bt,2022.2.4,Win32,60.20832079,Chrome,1366,768,,,,,1,945,,,,,,,,,,,,,,,,,U,160,star,1,0,,,,,,,,,,,,,,,,switch,letter,lettSwt,f,Lo,,,,,,0.6937,3,,,,,,,,high,7,0,7,0,1,,,,,,,,,
297523,2022-11-19_15h16.14.881,vts_reward_expectancy_bt,2022.2.4,Win32,60.20832079,Chrome,1366,768,,,,,10,955,,,,,,,,,,,,,,,,,Y,139,circle,1,0,,,,,,,,,,,,,,,,switch,number,numSwt,j,Lo,,,,,,0.5505,3,,,,,,,,high,8,0,8,0,1,,,,,,,,,
297523,2022-11-19_15h16.14.881,vts_reward_expectancy_bt,2022.2.4,Win32,60.20832079,Chrome,1366,768,,,,,0,955,,,,,,,,,,,,,,,,,H,181,triangle,1,0,,,,,,,,,,,,,,,,switch,letter,lettSwt,d,Hi,,,,,,0.7411,3,,,,,,,,high,9,0,9,0,1,,,,,,,,,
297523,2022-11-19_15h16.14.881,vts_reward_expectancy_bt,2022.2.4,Win32,60.20832079,Chrome,1366,768,,,,,1,956,,,,,,,,,,,,,,,,,B,174,hexagon,1,0,,,,,,,,,,,,,,,,repeat,letter,lettRpt,d,Hi,,,,,,0.5104,3,,,,,,,,high,10,0,10,0,1,,,,,,,,,
297523,2022-11-19_15h16.14.881,vts_reward_expectancy_bt,2022.2.4,Win32,60.20832079,Chrome,1366,768,,,,,10,966,,,,,,,,,,,,,,,,,D,125,star,1,0,,,,,,,,,,,,,,,,switch,number,numSwt,j,Lo,,,,,,0.7264,3,,,,,,,,high,11,0,11,0,1,,,,,,,,,
297523,2022-11-19_15h16.14.881,vts_reward_expectancy_bt,2022.2.4,Win32,60.20832079,Chrome,1366,768,,,,,10,976,,,,,,,,,,,,,,,,,W,167,hexagon,1,0,,,,,,,,,,,,,,,,switch,letter,lettSwt,f,Hi,,,,,,0.6432,3,,,,,,,,high,12,0,12,0,1,,,,,,,,,
297523,2022-11-19_15h16.14.881,vts_reward_expectancy_bt,2022.2.4,Win32,60.20832079,Chrome,1366,768,,,,,10,986,,,,,,,,,,,,,,,,,F,146,circle,1,0,,,,,,,,,,,,,,,,switch,number,numSwt,j,Lo,,,,,,0.5139,3,,,,,,,,high,13,0,13,0,1,,,,,,,,,
297523,2022-11-19_15h16.14.881,vts_reward_expectancy_bt,2022.2.4,Win32,60.20832079,Chrome,1366,768,,,,,1,987,,,,,,,,,,,,,,,,,S,132,star,1,0,,,,,,,,,,,,,,,,switch,letter,lettSwt,f,Lo,,,,,,0.5066,3,,,,,,,,high,14,0,14,0,1,,,,,,,,,
297523,2022-11-19_15h16.14.881,vts_reward_expectancy_bt,2022.2.4,Win32,60.20832079,Chrome,1366,768,,,,,0,987,,,,,,,,,,,,,,,,,U,160,triangle,1,0,,,,,,,,,,,,,,,,repeat,letter,lettRpt,f,Hi,,,,,,0.5836,3,,,,,,,,high,15,0,15,0,1,,,,,,,,,
297523,2022-11-19_15h16.14.881,vts_reward_expectancy_bt,2022.2.4,Win32,60.20832079,Chrome,1366,768,,,,,0,987,,,,,,,,,,,,,,,,,B,146,triangle,1,0,,,,,,,,,,,,,,,,switch,number,numSwt,j,Hi,,,,,,0.7253,3,,,,,,,,high,16,0,16,0,1,,,,,,,,,
297523,2022-11-19_15h16.14.881,vts_reward_expectancy_bt,2022.2.4,Win32,60.20832079,Chrome,1366,768,,,,,0,987,,,,,,,,,,,,,,,,,U,125,hexagon,1,0,,,,,,,,,,,,,,,,repeat,number,numRpt,j,Hi,,,,,,0.6691,3,,,,,,,,high,17,0,17,0,1,,,,,,,,,
297523,2022-11-19_15h16.14.881,vts_reward_expectancy_bt,2022.2.4,Win32,60.20832079,Chrome,1366,768,,,,,1,988,,,,,,,,,,,,,,,,,H,160,circle,1,0,,,,,,,,,,,,,,,,switch,letter,lettSwt,d,Lo,,,,,,0.4201,3,,,,,,,,high,18,0,18,0,1,,,,,,,,,
297523,2022-11-19_15h16.14.881,vts_reward_expectancy_bt,2022.2.4,Win32,60.20832079,Chrome,1366,768,,,,,0,988,,,,,,,,,,,,,,,,,W,139,star,0,0,,,,,,,,,,,,,,,,switch,number,NA,k,Lo,,,,,,0.0438,3,,,,,,,,high,19,0,19,0,1,,,,,,,,,
297523,2022-11-19_15h16.14.881,vts_reward_expectancy_bt,2022.2.4,Win32,60.20832079,Chrome,1366,768,,,,,1,989,,,,,,,,,,,,,,,,,D,132,star,1,1,,,,,,,,,,,,,,,,repeat,number,numRpt,j,Lo,,,,,,0.6503,3,,,,,,,,high,20,0,20,0,1,,,,,,,,,
297523,2022-11-19_15h16.14.881,vts_reward_expectancy_bt,2022.2.4,Win32,60.20832079,Chrome,1366,768,,,,,1,990,,,,,,,,,,,,,,,,,S,174,triangle,1,0,,,,,,,,,,,,,,,,repeat,number,numRpt,k,Hi,,,,,,0.4005,3,,,,,,,,high,21,0,21,0,1,,,,,,,,,
297523,2022-11-19_15h16.14.881,vts_reward_expectancy_bt,2022.2.4,Win32,60.20832079,Chrome,1366,768,,,,,10,1000,,,,,,,,,,,,,,,,,F,181,hexagon,1,0,,,,,,,,,,,,,,,,repeat,number,numRpt,k,Hi,,,,,,0.5074,3,,,,,,,,high,22,0,22,0,1,,,,,,,,,
297523,2022-11-19_15h16.14.881,vts_reward_expectancy_bt,2022.2.4,Win32,60.20832079,Chrome,1366,768,,,,,1,1001,,,,,,,,,,,,,,,,,Y,167,circle,1,0,,,,,,,,,,,,,,,,repeat,number,numRpt,k,Lo,,,,,,0.599,3,,,,,,,,high,23,0,23,0,1,,,,,,,,,
297523,2022-11-19_15h16.14.881,vts_reward_expectancy_bt,2022.2.4,Win32,60.20832079,Chrome,1366,768,,,,,1,1002,,,,,,,,,,,,,,,,,Y,174,triangle,1,0,,,,,,,,,,,,,,,,repeat,number,numRpt,k,Hi,,,,,,0.5354,3,,,,,,,,high,24,0,24,0,1,,,,,,,,,
297523,2022-11-19_15h16.14.881,vts_reward_expectancy_bt,2022.2.4,Win32,60.20832079,Chrome,1366,768,,,,,0,1002,,,,,,,,,,,,,,,,,F,160,star,0,0,,,,,,,,,,,,,,,,repeat,number,NA,j,Hi,,,,,,0.4756,3,,,,,,,,high,25,0,25,0,1,,,,,,,,,
297523,2022-11-19_15h16.14.881,vts_reward_expectancy_bt,2022.2.4,Win32,60.20832079,Chrome,1366,768,,,,,1,1003,,,,,,,,,,,,,,,,,D,167,circle,1,1,,,,,,,,,,,,,,,,repeat,number,numRpt,k,Lo,,,,,,0.5171,3,,,,,,,,high,26,0,26,0,1,,,,,,,,,
297523,2022-11-19_15h16.14.881,vts_reward_expectancy_bt,2022.2.4,Win32,60.20832079,Chrome,1366,768,,,,,0,1003,,,,,,,,,,,,,,,,,U,139,hexagon,0,0,,,,,,,,,,,,,,,,repeat,number,NA,k,Lo,,,,,,0.4416,3,,,,,,,,high,27,0,27,0,1,,,,,,,,,
297523,2022-11-19_15h16.14.881,vts_reward_expectancy_bt,2022.2.4,Win32,60.20832079,Chrome,1366,768,,,,,10,1013,,,,,,,,,,,,,,,,,W,181,circle,1,1,,,,,,,,,,,,,,,,repeat,number,numRpt,k,Lo,,,,,,0.7003,3,,,,,,,,high,28,0,28,0,1,,,,,,,,,
297523,2022-11-19_15h16.14.881,vts_reward_expectancy_bt,2022.2.4,Win32,60.20832079,Chrome,1366,768,,,,,1,1014,,,,,,,,,,,,,,,,,S,125,star,1,0,,,,,,,,,,,,,,,,repeat,number,numRpt,j,Lo,,,,,,0.5169,3,,,,,,,,high,29,0,29,0,1,,,,,,,,,
297523,2022-11-19_15h16.14.881,vts_reward_expectancy_bt,2022.2.4,Win32,60.20832079,Chrome,1366,768,,,,,0,1014,,,,,,,,,,,,,,,,,H,146,hexagon,1,0,,,,,,,,,,,,,,,,repeat,number,numRpt,j,Hi,,,,,,0.7489,3,,,,,,,,high,30,0,30,0,1,,,,,,,,,
297523,2022-11-19_15h16.14.881,vts_reward_expectancy_bt,2022.2.4,Win32,60.20832079,Chrome,1366,768,,,,,10,1024,,,,,,,,,,,,,,,,,B,132,triangle,1,0,,,,,,,,,,,,,,,,repeat,number,numRpt,j,Hi,,,,,,0.5209,3,,,,,,,,high,31,0,31,0,1,,,,,,,,,
297523,2022-11-19_15h16.14.881,vts_reward_expectancy_bt,2022.2.4,Win32,60.20832079,Chrome,1366,768,,,,,1,1025,,,,,,,,,,,,,,,,,Y,160,star,1,0,,,,,,,,,,,,,,,,repeat,number,numRpt,k,Lo,,,,,,0.5247,4,,,,,,space,0.6943,high,0,0,0,0,1,,,,,,,,,
297523,2022-11-19_15h16.14.881,vts_reward_expectancy_bt,2022.2.4,Win32,60.20832079,Chrome,1366,768,,,,,10,1035,,,,,,,,,,,,,,,,,H,146,triangle,1,0,,,,,,,,,,,,,,,,repeat,number,numRpt,j,Hi,,,,,,0.4401,4,,,,,,,,high,1,0,1,0,1,,,,,,,,,
297523,2022-11-19_15h16.14.881,vts_reward_expectancy_bt,2022.2.4,Win32,60.20832079,Chrome,1366,768,,,,,0,1035,,,,,,,,,,,,,,,,,D,139,hexagon,1,0,,,,,,,,,,,,,,,,repeat,number,numRpt,j,Hi,,,,,,0.5425,4,,,,,,,,high,2,0,2,0,1,,,,,,,,,
297523,2022-11-19_15h16.14.881,vts_reward_expectancy_bt,2022.2.4,Win32,60.20832079,Chrome,1366,768,,,,,1,1036,,,,,,,,,,,,,,,,,S,132,circle,1,0,,,,,,,,,,,,,,,,repeat,number,numRpt,j,Lo,,,,,,0.4837,4,,,,,,,,high,3,0,3,0,1,,,,,,,,,
297523,2022-11-19_15h16.14.881,vts_reward_expectancy_bt,2022.2.4,Win32,60.20832079,Chrome,1366,768,,,,,1,1037,,,,,,,,,,,,,,,,,B,167,star,1,0,,,,,,,,,,,,,,,,repeat,number,numRpt,k,Lo,,,,,,0.4257,4,,,,,,,,high,4,0,4,0,1,,,,,,,,,
297523,2022-11-19_15h16.14.881,vts_reward_expectancy_bt,2022.2.4,Win32,60.20832079,Chrome,1366,768,,,,,0,1037,,,,,,,,,,,,,,,,,U,125,triangle,1,0,,,,,,,,,,,,,,,,repeat,number,numRpt,j,Hi,,,,,,0.5609,4,,,,,,,,high,5,0,5,0,1,,,,,,,,,
297523,2022-11-19_15h16.14.881,vts_reward_expectancy_bt,2022.2.4,Win32,60.20832079,Chrome,1366,768,,,,,0,1037,,,,,,,,,,,,,,,,,F,181,hexagon,0,0,,,,,,,,,,,,,,,,repeat,number,NA,j,Hi,,,,,,0.497,4,,,,,,,,high,6,0,6,0,1,,,,,,,,,
297523,2022-11-19_15h16.14.881,vts_reward_expectancy_bt,2022.2.4,Win32,60.20832079,Chrome,1366,768,,,,,10,1047,,,,,,,,,,,,,,,,,W,174,circle,1,1,,,,,,,,,,,,,,,,repeat,number,numRpt,k,Lo,,,,,,0.5093,4,,,,,,,,high,7,0,7,0,1,,,,,,,,,
297523,2022-11-19_15h16.14.881,vts_reward_expectancy_bt,2022.2.4,Win32,60.20832079,Chrome,1366,768,,,,,1,1048,,,,,,,,,,,,,,,,,Y,160,circle,1,0,,,,,,,,,,,,,,,,repeat,number,numRpt,k,Lo,,,,,,0.624,4,,,,,,,,high,8,0,8,0,1,,,,,,,,,
297523,2022-11-19_15h16.14.881,vts_reward_expectancy_bt,2022.2.4,Win32,60.20832079,Chrome,1366,768,,,,,10,1058,,,,,,,,,,,,,,,,,H,146,triangle,1,0,,,,,,,,,,,,,,,,switch,letter,lettSwt,d,Hi,,,,,,0.5206,4,,,,,,,,high,9,0,9,0,1,,,,,,,,,
297523,2022-11-19_15h16.14.881,vts_reward_expectancy_bt,2022.2.4,Win32,60.20832079,Chrome,1366,768,,,,,10,1068,,,,,,,,,,,,,,,,,D,139,hexagon,1,0,,,,,,,,,,,,,,,,repeat,letter,lettRpt,d,Hi,,,,,,0.4712,4,,,,,,,,high,10,0,10,0,1,,,,,,,,,
297523,2022-11-19_15h16.14.881,vts_reward_expectancy_bt,2022.2.4,Win32,60.20832079,Chrome,1366,768,,,,,1,1069,,,,,,,,,,,,,,,,,S,132,star,1,0,,,,,,,,,,,,,,,,repeat,letter,lettRpt,f,Lo,,,,,,0.5053,4,,,,,,,,high,11,0,11,0,1,,,,,,,,,
297523,2022-11-19_15h16.14.881,vts_reward_expectancy_bt,2022.2.4,Win32,60.20832079,Chrome,1366,768,,,,,1,1070,,,,,,,,,,,,,,,,,B,167,triangle,1,0,,,,,,,,,,,,,,,,repeat,letter,lettRpt,d,Hi,,,,,,0.4843,4,,,,,,,,high,12,0,12,0,1,,,,,,,,,
297523,2022-11-19_15h16.14.881,vts_reward_expectancy_bt,2022.2.4,Win32,60.20832079,Chrome,1366,768,,,,,1,1071,,,,,,,,,,,,,,,,,U,125,circle,1,0,,,,,,,,,,,,,,,,repeat,letter,lettRpt,f,Lo,,,,,,0.5357,4,,,,,,,,high,13,0,13,0,1,,,,,,,,,
297523,2022-11-19_15h16.14.881,vts_reward_expectancy_bt,2022.2.4,Win32,60.20832079,Chrome,1366,768,,,,,1,1072,,,,,,,,,,,,,,,,,F,181,star,1,0,,,,,,,,,,,,,,,,repeat,letter,lettRpt,d,Lo,,,,,,0.7494,4,,,,,,,,high,14,0,14,0,1,,,,,,,,,
297523,2022-11-19_15h16.14.881,vts_reward_expectancy_bt,2022.2.4,Win32,60.20832079,Chrome,1366,768,,,,,0,1072,,,,,,,,,,,,,,,,,W,174,hexagon,1,0,,,,,,,,,,,,,,,,repeat,letter,lettRpt,f,Hi,,,,,,0.5943,4,,,,,,,,high,15,0,15,0,1,,,,,,,,,
297523,2022-11-19_15h16.14.881,vts_reward_expectancy_bt,2022.2.4,Win32,60.20832079,Chrome,1366,768,,,,,1,1073,,,,,,,,,,,,,,,,,D,125,star,1,0,,,,,,,,,,,,,,,,repeat,letter,lettRpt,d,Lo,,,,,,0.5572,4,,,,,,,,high,16,0,16,0,1,,,,,,,,,
297523,2022-11-19_15h16.14.881,vts_reward_expectancy_bt,2022.2.4,Win32,60.20832079,Chrome,1366,768,,,,,0,1073,,,,,,,,,,,,,,,,,F,132,triangle,1,0,,,,,,,,,,,,,,,,repeat,letter,lettRpt,d,Hi,,,,,,0.5244,4,,,,,,,,high,17,0,17,0,1,,,,,,,,,
297523,2022-11-19_15h16.14.881,vts_reward_expectancy_bt,2022.2.4,Win32,60.20832079,Chrome,1366,768,,,,,1,1074,,,,,,,,,,,,,,,,,U,139,circle,1,0,,,,,,,,,,,,,,,,switch,number,numSwt,j,Lo,,,,,,0.5825,4,,,,,,,,high,18,0,18,0,1,,,,,,,,,
297523,2022-11-19_15h16.14.881,vts_reward_expectancy_bt,2022.2.4,Win32,60.20832079,Chrome,1366,768,,,,,0,1074,,,,,,,,,,,,,,,,,W,160,hexagon,1,0,,,,,,,,,,,,,,,,repeat,number,numRpt,k,Hi,,,,,,0.6168,4,,,,,,,,high,19,0,19,0,1,,,,,,,,,
297523,2022-11-19_15h16.14.881,vts_reward_expectancy_bt,2022.2.4,Win32,60.20832079,Chrome,1366,768,,,,,0,1074,,,,,,,,,,,,,,,,,H,181,triangle,1,0,,,,,,,,,,,,,,,,repeat,number,numRpt,k,Hi,,,,,,0.742,4,,,,,,,,high,20,0,20,0,1,,,,,,,,,
297523,2022-11-19_15h16.14.881,vts_reward_expectancy_bt,2022.2.4,Win32,60.20832079,Chrome,1366,768,,,,,10,1084,,,,,,,,,,,,,,,,,S,167,star,1,0,,,,,,,,,,,,,,,,repeat,number,numRpt,k,Lo,,,,,,0.6414,4,,,,,,,,high,21,0,21,0,1,,,,,,,,,
297523,2022-11-19_15h16.14.881,vts_reward_expectancy_bt,2022.2.4,Win32,60.20832079,Chrome,1366,768,,,,,10,1094,,,,,,,,,,,,,,,,,B,174,circle,1,0,,,,,,,,,,,,,,,,repeat,number,numRpt,k,Lo,,,,,,0.7449,4,,,,,,,,high,22,0,22,0,1,,,,,,,,,
297523,2022-11-19_15h16.14.881,vts_reward_expectancy_bt,2022.2.4,Win32,60.20832079,Chrome,1366,768,,,,,0,1094,,,,,,,,,,,,,,,,,Y,146,hexagon,1,0,,,,,,,,,,,,,,,,repeat,number,numRpt,j,Hi,,,,,,0.6463,4,,,,,,,,high,23,0,23,0,1,,,,,,,,,
297523,2022-11-19_15h16.14.881,vts_reward_expectancy_bt,2022.2.4,Win32,60.20832079,Chrome,1366,768,,,,,1,1095,,,,,,,,,,,,,,,,,D,139,hexagon,1,0,,,,,,,,,,,,,,,,repeat,number,numRpt,j,Hi,,,,,,0.5121,4,,,,,,,,high,24,0,24,0,1,,,,,,,,,
297523,2022-11-19_15h16.14.881,vts_reward_expectancy_bt,2022.2.4,Win32,60.20832079,Chrome,1366,768,,,,,0,1095,,,,,,,,,,,,,,,,,U,167,star,0,0,,,,,,,,,,,,,,,,repeat,number,NA,j,Hi,,,,,,0.4337,4,,,,,,,,high,25,0,25,0,1,,,,,,,,,
297523,2022-11-19_15h16.14.881,vts_reward_expectancy_bt,2022.2.4,Win32,60.20832079,Chrome,1366,768,,,,,10,1105,,,,,,,,,,,,,,,,,B,132,circle,1,1,,,,,,,,,,,,,,,,repeat,number,numRpt,j,Lo,,,,,,0.5874,4,,,,,,,,high,26,0,26,0,1,,,,,,,,,
297523,2022-11-19_15h16.14.881,vts_reward_expectancy_bt,2022.2.4,Win32,60.20832079,Chrome,1366,768,,,,,0,1105,,,,,,,,,,,,,,,,,H,174,triangle,1,0,,,,,,,,,,,,,,,,repeat,number,numRpt,k,Hi,,,,,,0.6884,4,,,,,,,,high,27,0,27,0,1,,,,,,,,,
297523,2022-11-19_15h16.14.881,vts_reward_expectancy_bt,2022.2.4,Win32,60.20832079,Chrome,1366,768,,,,,1,1106,,,,,,,,,,,,,,,,,W,160,star,1,0,,,,,,,,,,,,,,,,repeat,number,numRpt,k,Lo,,,,,,0.6511,4,,,,,,,,high,28,0,28,0,1,,,,,,,,,
297523,2022-11-19_15h16.14.881,vts_reward_expectancy_bt,2022.2.4,Win32,60.20832079,Chrome,1366,768,,,,,0,1106,,,,,,,,,,,,,,,,,F,146,hexagon,1,0,,,,,,,,,,,,,,,,repeat,number,numRpt,j,Hi,,,,,,0.6134,4,,,,,,,,high,29,0,29,0,1,,,,,,,,,
297523,2022-11-19_15h16.14.881,vts_reward_expectancy_bt,2022.2.4,Win32,60.20832079,Chrome,1366,768,,,,,0,1106,,,,,,,,,,,,,,,,,Y,125,triangle,1,0,,,,,,,,,,,,,,,,repeat,number,numRpt,j,Hi,,,,,,0.6127,4,,,,,,,,high,30,0,30,0,1,,,,,,,,,
297523,2022-11-19_15h16.14.881,vts_reward_expectancy_bt,2022.2.4,Win32,60.20832079,Chrome,1366,768,,,,,10,1116,,,,,,,,,,,,,,,,,S,181,circle,1,0,,,,,,,,,,,,,,,,repeat,number,numRpt,k,Lo,,,,,,0.5679,4,,,,,,,,high,31,0,31,0,1,,,,,,,,,
297523,2022-11-19_15h16.14.881,vts_reward_expectancy_bt,2022.2.4,Win32,60.20832079,Chrome,1366,768,,,,,10,1126,,,,,,,,,,,,,,,,,W,181,circle,1,0,,,,,,,,,,,,,,,,repeat,number,numRpt,k,Lo,,,,,,0.8668,5,,,,,,space,0.834,high,0,0,0,0,1,,,,,,,,,
297523,2022-11-19_15h16.14.881,vts_reward_expectancy_bt,2022.2.4,Win32,60.20832079,Chrome,1366,768,,,,,0,1126,,,,,,,,,,,,,,,,,U,146,star,0,0,,,,,,,,,,,,,,,,repeat,number,NA,k,Lo,,,,,,0.5755,5,,,,,,,,high,1,0,1,0,1,,,,,,,,,
297523,2022-11-19_15h16.14.881,vts_reward_expectancy_bt,2022.2.4,Win32,60.20832079,Chrome,1366,768,,,,,0,1126,,,,,,,,,,,,,,,,,B,125,triangle,1,1,,,,,,,,,,,,,,,,repeat,number,numRpt,j,Hi,,,,,,0.6505,5,,,,,,,,high,2,0,2,0,1,,,,,,,,,
297523,2022-11-19_15h16.14.881,vts_reward_expectancy_bt,2022.2.4,Win32,60.20832079,Chrome,1366,768,,,,,0,1126,,,,,,,,,,,,,,,,,H,167,hexagon,1,0,,,,,,,,,,,,,,,,repeat,number,numRpt,k,Hi,,,,,,1.0331,5,,,,,,,,high,3,0,3,0,1,,,,,,,,,
297523,2022-11-19_15h16.14.881,vts_reward_expectancy_bt,2022.2.4,Win32,60.20832079,Chrome,1366,768,,,,,1,1127,,,,,,,,,,,,,,,,,S,160,circle,1,0,,,,,,,,,,,,,,,,repeat,number,numRpt,k,Lo,,,,,,0.5501,5,,,,,,,,high,4,0,4,0,1,,,,,,,,,
297523,2022-11-19_15h16.14.881,vts_reward_expectancy_bt,2022.2.4,Win32,60.20832079,Chrome,1366,768,,,,,1,1128,,,,,,,,,,,,,,,,,F,132,star,1,0,,,,,,,,,,,,,,,,switch,letter,lettSwt,d,Lo,,,,,,0.6128,5,,,,,,,,high,5,0,5,0,1,,,,,,,,,
297523,2022-11-19_15h16.14.881,vts_reward_expectancy_bt,2022.2.4,Win32,60.20832079,Chrome,1366,768,,,,,0,1128,,,,,,,,,,,,,,,,,D,174,triangle,1,0,,,,,,,,,,,,,,,,repeat,letter,lettRpt,d,Hi,,,,,,0.8456,5,,,,,,,,high,6,0,6,0,1,,,,,,,,,
297523,2022-11-19_15h16.14.881,vts_reward_expectancy_bt,2022.2.4,Win32,60.20832079,Chrome,1366,768,,,,,0,1128,,,,,,,,,,,,,,,,,Y,139,hexagon,1,0,,,,,,,,,,,,,,,,repeat,letter,lettRpt,f,Hi,,,,,,0.6903,5,,,,,,,,high,7,0,7,0,1,,,,,,,,,
297523,2022-11-19_15h16.14.881,vts_reward_expectancy_bt,2022.2.4,Win32,60.20832079,Chrome,1366,768,,,,,0,1128,,,,,,,,,,,,,,,,,W,181,hexagon,1,0,,,,,,,,,,,,,,,,repeat,letter,lettRpt,f,Hi,,,,,,0.5177,5,,,,,,,,high,8,0,8,0,1,,,,,,,,,
297523,2022-11-19_15h16.14.881,vts_reward_expectancy_bt,2022.2.4,Win32,60.20832079,Chrome,1366,768,,,,,10,1138,,,,,,,,,,,,,,,,,U,146,triangle,1,0,,,,,,,,,,,,,,,,switch,number,numSwt,j,Hi,,,,,,0.5257,5,,,,,,,,high,9,0,9,0,1,,,,,,,,,
297523,2022-11-19_15h16.14.881,vts_reward_expectancy_bt,2022.2.4,Win32,60.20832079,Chrome,1366,768,,,,,1,1139,,,,,,,,,,,,,,,,,B,125,star,1,0,,,,,,,,,,,,,,,,repeat,number,numRpt,j,Lo,,,,,,0.5765,5,,,,,,,,high,10,0,10,0,1,,,,,,,,,
297523,2022-11-19_15h16.14.881,vts_reward_expectancy_bt,2022.2.4,Win32,60.20832079,Chrome,1366,768,,,,,1,1140,,,,,,,,,,,,,,,,,H,167,circle,1,0,,,,,,,,,,,,,,,,repeat,number,numRpt,k,Lo,,,,,,0.4917,5,,,,,,,,high,11,0,11,0,1,,,,,,,,,
297523,2022-11-19_15h16.14.881,vts_reward_expectancy_bt,2022.2.4,Win32,60.20832079,Chrome,1366,768,,,,,1,1141,,,,,,,,,,,,,,,,,S,160,star,1,0,,,,,,,,,,,,,,,,repeat,number,numRpt,k,Lo,,,,,,0.5501,5,,,,,,,,high,12,0,12,0,1,,,,,,,,,
297523,2022-11-19_15h16.14.881,vts_reward_expectancy_bt,2022.2.4,Win32,60.20832079,Chrome,1366,768,,,,,0,1141,,,,,,,,,,,,,,,,,F,132,triangle,1,0,,,,,,,,,,,,,,,,switch,letter,lettSwt,d,Hi,,,,,,0.5348,5,,,,,,,,high,13,0,13,0,1,,,,,,,,,
297523,2022-11-19_15h16.14.881,vts_reward_expectancy_bt,2022.2.4,Win32,60.20832079,Chrome,1366,768,,,,,1,1142,,,,,,,,,,,,,,,,,D,174,circle,1,0,,,,,,,,,,,,,,,,switch,number,numSwt,k,Lo,,,,,,0.6036,5,,,,,,,,high,14,0,14,0,1,,,,,,,,,
297523,2022-11-19_15h16.14.881,vts_reward_expectancy_bt,2022.2.4,Win32,60.20832079,Chrome,1366,768,,,,,0,1142,,,,,,,,,,,,,,,,,Y,139,hexagon,1,0,,,,,,,,,,,,,,,,repeat,number,numRpt,j,Hi,,,,,,0.6664,5,,,,,,,,high,15,0,15,0,1,,,,,,,,,
