participant,date,expName,psychopyVersion,OS,frameRate,browser,xResolution,yResolution,key_resp.keys,key_resp.rt,training_resp.keys,training_resp.rt,points_trial,points_cumul,trainBlock,training.thisRepN,training.thisTrialN,training.thisN,training.thisIndex,training.ran,LTriangleOpac,LCircleOpac,LHexagonOpac,LStarOpac,RTriangleOpac,RCircleOpac,RHexagonOpac,RStarOpac,LShape_ID,RShape_ID,curr_topStim,curr_bottStim,curr_shape,acc,E1,target_resp_prac1.keys,target_resp_prac1.rt,pracBlock,task1_prac_trials.thisRepN,task1_prac_trials.thisTrialN,task1_prac_trials.thisN,task1_prac_trials.thisIndex,task1_prac_trials.ran,target_resp_prac2.keys,target_resp_prac2.rt,task2_praac_trials.thisRepN,task2_praac_trials.thisTrialN,task2_praac_trials.thisN,task2_praac_trials.thisIndex,task2_praac_trials.ran,alt,task,condition,target_resp.keys,target_resp.rt,rewCond,vts_practice_trials.thisRepN,vts_practice_trials.thisTrialN,vts_practice_trials.thisN,vts_practice_trials.thisIndex,vts_practice_trials.ran,blockNum,trials_norew.thisRepN,trials_norew.thisTrialN,trials_norew.thisN,trials_norew.thisIndex,trials_norew.ran,key_resp_2.keys,key_resp_2.rt,rewExpectancy,trials_rew.thisRepN,trials_rew.thisTrialN,trials_rew.thisN,trials_rew.thisIndex,trials_rew.ran,Q1,Q2,Q2_text,Q3,Q4,Q5_text,Q5,xRes,yRes
297583,2022-11-15_13h55.12.038,vts_reward_expectancy_bt,2022.2.4,MacIntel,60.0024001,Chrome,1680,1050,,,,,,,,,,,,,,,,,,,,,,,,,,,,,,,,,,,,,,,,,,,,,,,,,,,,,,,,,,,,,,,,,,,,,,,,,,,,
297583,2022-11-15_13h55.12.038,vts_reward_expectancy_bt,2022.2.4,MacIntel,60.0024001,Chrome,1680,1050,space,79.627,,,,,,,,,,,,,,,,,,,,,,,,,,,,,,,,,,,,,,,,,,,,,,,,,,,,,,,,,,,,,,,,,,,,,,,,,,
297583,2022-11-15_13h55.12.038,vts_reward_expectancy_bt,2022.2.4,MacIntel,60.0024001,Chrome,1680,1050,,,,,,,,,,,,,,,,,,,,,,,,,,,,,,,,,,,,,,,,,,,,,,,,,,,,,,,,,,,,,,,,,,,,,,,,,,,,
297583,2022-11-15_13h55.12.038,vts_reward_expectancy_bt,2022.2.4,MacIntel,60.0024001,Chrome,1680,1050,,,a,1.4606,0,0,0,0,0,0,10,1,0,0,0,1,0,1,0,0,star ,circle,,,,,,,,,,,,,,,,,,,,,,,,,,,,,,,,,,,,,,,,,,,,,,,,,,,,,,
297583,2022-11-15_13h55.12.038,vts_reward_expectancy_bt,2022.2.4,MacIntel,60.0024001,Chrome,1680,1050,,,a,1.519,1,1,0,0,1,1,8,1,0,0,1,0,0,0,0,1,hexagon,star,,,,,,,,,,,,,,,,,,,,,,,,,,,,,,,,,,,,,,,,,,,,,,,,,,,,,,
297583,2022-11-15_13h55.12.038,vts_reward_expectancy_bt,2022.2.4,MacIntel,60.0024001,Chrome,1680,1050,,,a,1.7923,10,11,0,0,2,2,4,1,0,1,0,0,0,0,1,0,circle,hexagon,,,,,,,,,,,,,,,,,,,,,,,,,,,,,,,,,,,,,,,,,,,,,,,,,,,,,,
297583,2022-11-15_13h55.12.038,vts_reward_expectancy_bt,2022.2.4,MacIntel,60.0024001,Chrome,1680,1050,,,l,0.8326,10,21,0,0,3,3,0,1,1,0,0,0,0,1,0,0,triangle,circle,,,,,,,,,,,,,,,,,,,,,,,,,,,,,,,,,,,,,,,,,,,,,,,,,,,,,,
297583,2022-11-15_13h55.12.038,vts_reward_expectancy_bt,2022.2.4,MacIntel,60.0024001,Chrome,1680,1050,,,l,0.683,10,31,0,0,4,4,7,1,0,0,1,0,0,1,0,0,hexagon,circle,,,,,,,,,,,,,,,,,,,,,,,,,,,,,,,,,,,,,,,,,,,,,,,,,,,,,,
297583,2022-11-15_13h55.12.038,vts_reward_expectancy_bt,2022.2.4,MacIntel,60.0024001,Chrome,1680,1050,,,a,0.8779,1,32,0,0,5,5,3,1,0,1,0,0,1,0,0,0,circle,triangle,,,,,,,,,,,,,,,,,,,,,,,,,,,,,,,,,,,,,,,,,,,,,,,,,,,,,,
297583,2022-11-15_13h55.12.038,vts_reward_expectancy_bt,2022.2.4,MacIntel,60.0024001,Chrome,1680,1050,,,a,1.5117,10,42,0,0,6,6,2,1,1,0,0,0,0,0,0,1,triangle,star,,,,,,,,,,,,,,,,,,,,,,,,,,,,,,,,,,,,,,,,,,,,,,,,,,,,,,
297583,2022-11-15_13h55.12.038,vts_reward_expectancy_bt,2022.2.4,MacIntel,60.0024001,Chrome,1680,1050,,,l,1.5695,1,43,0,0,7,7,9,1,0,0,0,1,1,0,0,0,star,triangle,,,,,,,,,,,,,,,,,,,,,,,,,,,,,,,,,,,,,,,,,,,,,,,,,,,,,,
297583,2022-11-15_13h55.12.038,vts_reward_expectancy_bt,2022.2.4,MacIntel,60.0024001,Chrome,1680,1050,,,a,1.1193,1,44,0,0,8,8,6,1,0,0,1,0,1,0,0,0,hexagon,triangle,,,,,,,,,,,,,,,,,,,,,,,,,,,,,,,,,,,,,,,,,,,,,,,,,,,,,,
297583,2022-11-15_13h55.12.038,vts_reward_expectancy_bt,2022.2.4,MacIntel,60.0024001,Chrome,1680,1050,,,a,1.0895,10,54,0,0,9,9,1,1,1,0,0,0,0,0,1,0,triangle,hexagon,,,,,,,,,,,,,,,,,,,,,,,,,,,,,,,,,,,,,,,,,,,,,,,,,,,,,,
297583,2022-11-15_13h55.12.038,vts_reward_expectancy_bt,2022.2.4,MacIntel,60.0024001,Chrome,1680,1050,,,a,0.762,10,64,0,0,10,10,5,1,0,1,0,0,0,0,0,1,circle,star,,,,,,,,,,,,,,,,,,,,,,,,,,,,,,,,,,,,,,,,,,,,,,,,,,,,,,
297583,2022-11-15_13h55.12.038,vts_reward_expectancy_bt,2022.2.4,MacIntel,60.0024001,Chrome,1680,1050,,,a,2.559,1,65,0,0,11,11,11,1,0,0,0,1,0,0,1,0,star,hexagon,,,,,,,,,,,,,,,,,,,,,,,,,,,,,,,,,,,,,,,,,,,,,,,,,,,,,,
297583,2022-11-15_13h55.12.038,vts_reward_expectancy_bt,2022.2.4,MacIntel,60.0024001,Chrome,1680,1050,,,l,0.8585,10,75,0,1,0,12,7,1,0,0,1,0,0,1,0,0,hexagon,circle,,,,,,,,,,,,,,,,,,,,,,,,,,,,,,,,,,,,,,,,,,,,,,,,,,,,,,
297583,2022-11-15_13h55.12.038,vts_reward_expectancy_bt,2022.2.4,MacIntel,60.0024001,Chrome,1680,1050,,,l,1.1141,1,76,0,1,1,13,11,1,0,0,0,1,0,0,1,0,star,hexagon,,,,,,,,,,,,,,,,,,,,,,,,,,,,,,,,,,,,,,,,,,,,,,,,,,,,,,
297583,2022-11-15_13h55.12.038,vts_reward_expectancy_bt,2022.2.4,MacIntel,60.0024001,Chrome,1680,1050,,,a,1.5377,10,86,0,1,2,14,1,1,1,0,0,0,0,0,1,0,triangle,hexagon,,,,,,,,,,,,,,,,,,,,,,,,,,,,,,,,,,,,,,,,,,,,,,,,,,,,,,
297583,2022-11-15_13h55.12.038,vts_reward_expectancy_bt,2022.2.4,MacIntel,60.0024001,Chrome,1680,1050,,,a,0.5936,1,87,0,1,3,15,4,1,0,1,0,0,0,0,1,0,circle,hexagon,,,,,,,,,,,,,,,,,,,,,,,,,,,,,,,,,,,,,,,,,,,,,,,,,,,,,,
297583,2022-11-15_13h55.12.038,vts_reward_expectancy_bt,2022.2.4,MacIntel,60.0024001,Chrome,1680,1050,,,l,0.6172,10,97,0,1,4,16,0,1,1,0,0,0,0,1,0,0,triangle,circle,,,,,,,,,,,,,,,,,,,,,,,,,,,,,,,,,,,,,,,,,,,,,,,,,,,,,,
297583,2022-11-15_13h55.12.038,vts_reward_expectancy_bt,2022.2.4,MacIntel,60.0024001,Chrome,1680,1050,,,l,0.9006,1,98,0,1,5,17,6,1,0,0,1,0,1,0,0,0,hexagon,triangle,,,,,,,,,,,,,,,,,,,,,,,,,,,,,,,,,,,,,,,,,,,,,,,,,,,,,,
297583,2022-11-15_13h55.12.038,vts_reward_expectancy_bt,2022.2.4,MacIntel,60.0024001,Chrome,1680,1050,,,l,0.6262,10,108,0,1,6,18,10,1,0,0,0,1,0,1,0,0,star ,circle,,,,,,,,,,,,,,,,,,,,,,,,,,,,,,,,,,,,,,,,,,,,,,,,,,,,,,
297583,2022-11-15_13h55.12.038,vts_reward_expectancy_bt,2022.2.4,MacIntel,60.0024001,Chrome,1680,1050,,,a,0.576,10,118,0,1,7,19,5,1,0,1,0,0,0,0,0,1,circle,star,,,,,,,,,,,,,,,,,,,,,,,,,,,,,,,,,,,,,,,,,,,,,,,,,,,,,,
297583,2022-11-15_13h55.12.038,vts_reward_expectancy_bt,2022.2.4,MacIntel,60.0024001,Chrome,1680,1050,,,l,1.1007,10,128,0,1,8,20,9,1,0,0,0,1,1,0,0,0,star,triangle,,,,,,,,,,,,,,,,,,,,,,,,,,,,,,,,,,,,,,,,,,,,,,,,,,,,,,
297583,2022-11-15_13h55.12.038,vts_reward_expectancy_bt,2022.2.4,MacIntel,60.0024001,Chrome,1680,1050,,,a,0.4978,10,138,0,1,9,21,3,1,0,1,0,0,1,0,0,0,circle,triangle,,,,,,,,,,,,,,,,,,,,,,,,,,,,,,,,,,,,,,,,,,,,,,,,,,,,,,
297583,2022-11-15_13h55.12.038,vts_reward_expectancy_bt,2022.2.4,MacIntel,60.0024001,Chrome,1680,1050,,,a,0.6857,10,148,0,1,10,22,2,1,1,0,0,0,0,0,0,1,triangle,star,,,,,,,,,,,,,,,,,,,,,,,,,,,,,,,,,,,,,,,,,,,,,,,,,,,,,,
297583,2022-11-15_13h55.12.038,vts_reward_expectancy_bt,2022.2.4,MacIntel,60.0024001,Chrome,1680,1050,,,a,2.5457,1,149,0,1,11,23,8,1,0,0,1,0,0,0,0,1,hexagon,star,,,,,,,,,,,,,,,,,,,,,,,,,,,,,,,,,,,,,,,,,,,,,,,,,,,,,,
297583,2022-11-15_13h55.12.038,vts_reward_expectancy_bt,2022.2.4,MacIntel,60.0024001,Chrome,1680,1050,,,a,0.6762,10,159,0,2,0,24,3,1,0,1,0,0,1,0,0,0,circle,triangle,,,,,,,,,,,,,,,,,,,,,,,,,,,,,,,,,,,,,,,,,,,,,,,,,,,,,,
297583,2022-11-15_13h55.12.038,vts_reward_expectancy_bt,2022.2.4,MacIntel,60.0024001,Chrome,1680,1050,,,a,1.3888,1,160,0,2,1,25,11,1,0,0,0,1,0,0,1,0,star,hexagon,,,,,,,,,,,,,,,,,,,,,,,,,,,,,,,,,,,,,,,,,,,,,,,,,,,,,,
297583,2022-11-15_13h55.12.038,vts_reward_expectancy_bt,2022.2.4,MacIntel,60.0024001,Chrome,1680,1050,,,l,0.878,10,170,0,2,2,26,9,1,0,0,0,1,1,0,0,0,star,triangle,,,,,,,,,,,,,,,,,,,,,,,,,,,,,,,,,,,,,,,,,,,,,,,,,,,,,,
297583,2022-11-15_13h55.12.038,vts_reward_expectancy_bt,2022.2.4,MacIntel,60.0024001,Chrome,1680,1050,,,a,0.6639,10,180,0,2,3,27,8,1,0,0,1,0,0,0,0,1,hexagon,star,,,,,,,,,,,,,,,,,,,,,,,,,,,,,,,,,,,,,,,,,,,,,,,,,,,,,,
297583,2022-11-15_13h55.12.038,vts_reward_expectancy_bt,2022.2.4,MacIntel,60.0024001,Chrome,1680,1050,,,l,0.5718,10,190,0,2,4,28,7,1,0,0,1,0,0,1,0,0,hexagon,circle,,,,,,,,,,,,,,,,,,,,,,,,,,,,,,,,,,,,,,,,,,,,,,,,,,,,,,
297583,2022-11-15_13h55.12.038,vts_reward_expectancy_bt,2022.2.4,MacIntel,60.0024001,Chrome,1680,1050,,,l,2.1714,10,200,0,2,5,29,0,1,1,0,0,0,0,1,0,0,triangle,circle,,,,,,,,,,,,,,,,,,,,,,,,,,,,,,,,,,,,,,,,,,,,,,,,,,,,,,
297583,2022-11-15_13h55.12.038,vts_reward_expectancy_bt,2022.2.4,MacIntel,60.0024001,Chrome,1680,1050,,,a,0.607,1,201,0,2,6,30,2,1,1,0,0,0,0,0,0,1,triangle,star,,,,,,,,,,,,,,,,,,,,,,,,,,,,,,,,,,,,,,,,,,,,,,,,,,,,,,
297583,2022-11-15_13h55.12.038,vts_reward_expectancy_bt,2022.2.4,MacIntel,60.0024001,Chrome,1680,1050,,,a,0.5823,10,211,0,2,7,31,5,1,0,1,0,0,0,0,0,1,circle,star,,,,,,,,,,,,,,,,,,,,,,,,,,,,,,,,,,,,,,,,,,,,,,,,,,,,,,
297583,2022-11-15_13h55.12.038,vts_reward_expectancy_bt,2022.2.4,MacIntel,60.0024001,Chrome,1680,1050,,,l,0.4997,10,221,0,2,8,32,10,1,0,0,0,1,0,1,0,0,star ,circle,,,,,,,,,,,,,,,,,,,,,,,,,,,,,,,,,,,,,,,,,,,,,,,,,,,,,,
297583,2022-11-15_13h55.12.038,vts_reward_expectancy_bt,2022.2.4,MacIntel,60.0024001,Chrome,1680,1050,,,a,1.2079,10,231,0,2,9,33,4,1,0,1,0,0,0,0,1,0,circle,hexagon,,,,,,,,,,,,,,,,,,,,,,,,,,,,,,,,,,,,,,,,,,,,,,,,,,,,,,
297583,2022-11-15_13h55.12.038,vts_reward_expectancy_bt,2022.2.4,MacIntel,60.0024001,Chrome,1680,1050,,,a,0.7664,10,241,0,2,10,34,1,1,1,0,0,0,0,0,1,0,triangle,hexagon,,,,,,,,,,,,,,,,,,,,,,,,,,,,,,,,,,,,,,,,,,,,,,,,,,,,,,
297583,2022-11-15_13h55.12.038,vts_reward_expectancy_bt,2022.2.4,MacIntel,60.0024001,Chrome,1680,1050,,,l,0.7449,1,242,0,2,11,35,6,1,0,0,1,0,1,0,0,0,hexagon,triangle,,,,,,,,,,,,,,,,,,,,,,,,,,,,,,,,,,,,,,,,,,,,,,,,,,,,,,
297583,2022-11-15_13h55.12.038,vts_reward_expectancy_bt,2022.2.4,MacIntel,60.0024001,Chrome,1680,1050,,,a,0.9532,10,252,1,0,0,0,1,1,1,0,0,0,0,0,1,0,triangle,hexagon,,,,,,,,,,,,,,,,,,,,,,,,,,,,,,,,,,,,,,,,,,,,,,,,,,,,,,
297583,2022-11-15_13h55.12.038,vts_reward_expectancy_bt,2022.2.4,MacIntel,60.0024001,Chrome,1680,1050,,,l,1.9134,10,262,1,0,1,1,0,1,1,0,0,0,0,1,0,0,triangle,circle,,,,,,,,,,,,,,,,,,,,,,,,,,,,,,,,,,,,,,,,,,,,,,,,,,,,,,
297583,2022-11-15_13h55.12.038,vts_reward_expectancy_bt,2022.2.4,MacIntel,60.0024001,Chrome,1680,1050,,,l,0.7346,1,263,1,0,2,2,7,1,0,0,1,0,0,1,0,0,hexagon,circle,,,,,,,,,,,,,,,,,,,,,,,,,,,,,,,,,,,,,,,,,,,,,,,,,,,,,,
297583,2022-11-15_13h55.12.038,vts_reward_expectancy_bt,2022.2.4,MacIntel,60.0024001,Chrome,1680,1050,,,l,0.5777,10,273,1,0,3,3,10,1,0,0,0,1,0,1,0,0,star ,circle,,,,,,,,,,,,,,,,,,,,,,,,,,,,,,,,,,,,,,,,,,,,,,,,,,,,,,
297583,2022-11-15_13h55.12.038,vts_reward_expectancy_bt,2022.2.4,MacIntel,60.0024001,Chrome,1680,1050,,,a,0.5517,10,283,1,0,4,4,3,1,0,1,0,0,1,0,0,0,circle,triangle,,,,,,,,,,,,,,,,,,,,,,,,,,,,,,,,,,,,,,,,,,,,,,,,,,,,,,
297583,2022-11-15_13h55.12.038,vts_reward_expectancy_bt,2022.2.4,MacIntel,60.0024001,Chrome,1680,1050,,,l,1.7646,1,284,1,0,5,5,11,1,0,0,0,1,0,0,1,0,star,hexagon,,,,,,,,,,,,,,,,,,,,,,,,,,,,,,,,,,,,,,,,,,,,,,,,,,,,,,
297583,2022-11-15_13h55.12.038,vts_reward_expectancy_bt,2022.2.4,MacIntel,60.0024001,Chrome,1680,1050,,,a,0.7561,10,294,1,0,6,6,2,1,1,0,0,0,0,0,0,1,triangle,star,,,,,,,,,,,,,,,,,,,,,,,,,,,,,,,,,,,,,,,,,,,,,,,,,,,,,,
297583,2022-11-15_13h55.12.038,vts_reward_expectancy_bt,2022.2.4,MacIntel,60.0024001,Chrome,1680,1050,,,a,2.3845,1,295,1,0,7,7,8,1,0,0,1,0,0,0,0,1,hexagon,star,,,,,,,,,,,,,,,,,,,,,,,,,,,,,,,,,,,,,,,,,,,,,,,,,,,,,,
297583,2022-11-15_13h55.12.038,vts_reward_expectancy_bt,2022.2.4,MacIntel,60.0024001,Chrome,1680,1050,,,a,0.644,1,296,1,0,8,8,4,1,0,1,0,0,0,0,1,0,circle,hexagon,,,,,,,,,,,,,,,,,,,,,,,,,,,,,,,,,,,,,,,,,,,,,,,,,,,,,,
297583,2022-11-15_13h55.12.038,vts_reward_expectancy_bt,2022.2.4,MacIntel,60.0024001,Chrome,1680,1050,,,l,1.2055,1,297,1,0,9,9,5,1,0,1,0,0,0,0,0,1,circle,star,,,,,,,,,,,,,,,,,,,,,,,,,,,,,,,,,,,,,,,,,,,,,,,,,,,,,,
297583,2022-11-15_13h55.12.038,vts_reward_expectancy_bt,2022.2.4,MacIntel,60.0024001,Chrome,1680,1050,,,l,0.6968,10,307,1,0,10,10,9,1,0,0,0,1,1,0,0,0,star,triangle,,,,,,,,,,,,,,,,,,,,,,,,,,,,,,,,,,,,,,,,,,,,,,,,,,,,,,
297583,2022-11-15_13h55.12.038,vts_reward_expectancy_bt,2022.2.4,MacIntel,60.0024001,Chrome,1680,1050,,,l,0.809,10,317,1,0,11,11,6,1,0,0,1,0,1,0,0,0,hexagon,triangle,,,,,,,,,,,,,,,,,,,,,,,,,,,,,,,,,,,,,,,,,,,,,,,,,,,,,,
297583,2022-11-15_13h55.12.038,vts_reward_expectancy_bt,2022.2.4,MacIntel,60.0024001,Chrome,1680,1050,,,a,0.5062,10,327,1,1,0,12,4,1,0,1,0,0,0,0,1,0,circle,hexagon,,,,,,,,,,,,,,,,,,,,,,,,,,,,,,,,,,,,,,,,,,,,,,,,,,,,,,
297583,2022-11-15_13h55.12.038,vts_reward_expectancy_bt,2022.2.4,MacIntel,60.0024001,Chrome,1680,1050,,,l,0.9569,10,337,1,1,1,13,0,1,1,0,0,0,0,1,0,0,triangle,circle,,,,,,,,,,,,,,,,,,,,,,,,,,,,,,,,,,,,,,,,,,,,,,,,,,,,,,
297583,2022-11-15_13h55.12.038,vts_reward_expectancy_bt,2022.2.4,MacIntel,60.0024001,Chrome,1680,1050,,,l,0.8328,10,347,1,1,2,14,9,1,0,0,0,1,1,0,0,0,star,triangle,,,,,,,,,,,,,,,,,,,,,,,,,,,,,,,,,,,,,,,,,,,,,,,,,,,,,,
297583,2022-11-15_13h55.12.038,vts_reward_expectancy_bt,2022.2.4,MacIntel,60.0024001,Chrome,1680,1050,,,l,0.5968,10,357,1,1,3,15,6,1,0,0,1,0,1,0,0,0,hexagon,triangle,,,,,,,,,,,,,,,,,,,,,,,,,,,,,,,,,,,,,,,,,,,,,,,,,,,,,,
297583,2022-11-15_13h55.12.038,vts_reward_expectancy_bt,2022.2.4,MacIntel,60.0024001,Chrome,1680,1050,,,a,0.5176,10,367,1,1,4,16,5,1,0,1,0,0,0,0,0,1,circle,star,,,,,,,,,,,,,,,,,,,,,,,,,,,,,,,,,,,,,,,,,,,,,,,,,,,,,,
297583,2022-11-15_13h55.12.038,vts_reward_expectancy_bt,2022.2.4,MacIntel,60.0024001,Chrome,1680,1050,,,a,1.1451,1,368,1,1,5,17,8,1,0,0,1,0,0,0,0,1,hexagon,star,,,,,,,,,,,,,,,,,,,,,,,,,,,,,,,,,,,,,,,,,,,,,,,,,,,,,,
297583,2022-11-15_13h55.12.038,vts_reward_expectancy_bt,2022.2.4,MacIntel,60.0024001,Chrome,1680,1050,,,l,0.6241,1,369,1,1,6,18,11,1,0,0,0,1,0,0,1,0,star,hexagon,,,,,,,,,,,,,,,,,,,,,,,,,,,,,,,,,,,,,,,,,,,,,,,,,,,,,,
297583,2022-11-15_13h55.12.038,vts_reward_expectancy_bt,2022.2.4,MacIntel,60.0024001,Chrome,1680,1050,,,a,0.9724,10,379,1,1,7,19,1,1,1,0,0,0,0,0,1,0,triangle,hexagon,,,,,,,,,,,,,,,,,,,,,,,,,,,,,,,,,,,,,,,,,,,,,,,,,,,,,,
297583,2022-11-15_13h55.12.038,vts_reward_expectancy_bt,2022.2.4,MacIntel,60.0024001,Chrome,1680,1050,,,a,1.1802,10,389,1,1,8,20,3,1,0,1,0,0,1,0,0,0,circle,triangle,,,,,,,,,,,,,,,,,,,,,,,,,,,,,,,,,,,,,,,,,,,,,,,,,,,,,,
297583,2022-11-15_13h55.12.038,vts_reward_expectancy_bt,2022.2.4,MacIntel,60.0024001,Chrome,1680,1050,,,l,0.6679,10,399,1,1,9,21,7,1,0,0,1,0,0,1,0,0,hexagon,circle,,,,,,,,,,,,,,,,,,,,,,,,,,,,,,,,,,,,,,,,,,,,,,,,,,,,,,
297583,2022-11-15_13h55.12.038,vts_reward_expectancy_bt,2022.2.4,MacIntel,60.0024001,Chrome,1680,1050,,,l,0.6327,1,400,1,1,10,22,10,1,0,0,0,1,0,1,0,0,star ,circle,,,,,,,,,,,,,,,,,,,,,,,,,,,,,,,,,,,,,,,,,,,,,,,,,,,,,,
297583,2022-11-15_13h55.12.038,vts_reward_expectancy_bt,2022.2.4,MacIntel,60.0024001,Chrome,1680,1050,,,a,0.7054,10,410,1,1,11,23,2,1,1,0,0,0,0,0,0,1,triangle,star,,,,,,,,,,,,,,,,,,,,,,,,,,,,,,,,,,,,,,,,,,,,,,,,,,,,,,
297583,2022-11-15_13h55.12.038,vts_reward_expectancy_bt,2022.2.4,MacIntel,60.0024001,Chrome,1680,1050,,,l,0.5534,10,420,1,2,0,24,9,1,0,0,0,1,1,0,0,0,star,triangle,,,,,,,,,,,,,,,,,,,,,,,,,,,,,,,,,,,,,,,,,,,,,,,,,,,,,,
297583,2022-11-15_13h55.12.038,vts_reward_expectancy_bt,2022.2.4,MacIntel,60.0024001,Chrome,1680,1050,,,l,1.9514,10,430,1,2,1,25,8,1,0,0,1,0,0,0,0,1,hexagon,star,,,,,,,,,,,,,,,,,,,,,,,,,,,,,,,,,,,,,,,,,,,,,,,,,,,,,,
297583,2022-11-15_13h55.12.038,vts_reward_expectancy_bt,2022.2.4,MacIntel,60.0024001,Chrome,1680,1050,,,a,1.0501,10,440,1,2,2,26,5,1,0,1,0,0,0,0,0,1,circle,star,,,,,,,,,,,,,,,,,,,,,,,,,,,,,,,,,,,,,,,,,,,,,,,,,,,,,,
297583,2022-11-15_13h55.12.038,vts_reward_expectancy_bt,2022.2.4,MacIntel,60.0024001,Chrome,1680,1050,,,l,0.849,10,450,1,2,3,27,7,1,0,0,1,0,0,1,0,0,hexagon,circle,,,,,,,,,,,,,,,,,,,,,,,,,,,,,,,,,,,,,,,,,,,,,,,,,,,,,,
297583,2022-11-15_13h55.12.038,vts_reward_expectancy_bt,2022.2.4,MacIntel,60.0024001,Chrome,1680,1050,,,a,1.6927,10,460,1,2,4,28,3,1,0,1,0,0,1,0,0,0,circle,triangle,,,,,,,,,,,,,,,,,,,,,,,,,,,,,,,,,,,,,,,,,,,,,,,,,,,,,,
297583,2022-11-15_13h55.12.038,vts_reward_expectancy_bt,2022.2.4,MacIntel,60.0024001,Chrome,1680,1050,,,l,0.5381,10,470,1,2,5,29,0,1,1,0,0,0,0,1,0,0,triangle,circle,,,,,,,,,,,,,,,,,,,,,,,,,,,,,,,,,,,,,,,,,,,,,,,,,,,,,,
297583,2022-11-15_13h55.12.038,vts_reward_expectancy_bt,2022.2.4,MacIntel,60.0024001,Chrome,1680,1050,,,a,1.1199,10,480,1,2,6,30,1,1,1,0,0,0,0,0,1,0,triangle,hexagon,,,,,,,,,,,,,,,,,,,,,,,,,,,,,,,,,,,,,,,,,,,,,,,,,,,,,,
297583,2022-11-15_13h55.12.038,vts_reward_expectancy_bt,2022.2.4,MacIntel,60.0024001,Chrome,1680,1050,,,a,0.7611,10,490,1,2,7,31,4,1,0,1,0,0,0,0,1,0,circle,hexagon,,,,,,,,,,,,,,,,,,,,,,,,,,,,,,,,,,,,,,,,,,,,,,,,,,,,,,
297583,2022-11-15_13h55.12.038,vts_reward_expectancy_bt,2022.2.4,MacIntel,60.0024001,Chrome,1680,1050,,,a,1.2438,10,500,1,2,8,32,2,1,1,0,0,0,0,0,0,1,triangle,star,,,,,,,,,,,,,,,,,,,,,,,,,,,,,,,,,,,,,,,,,,,,,,,,,,,,,,
297583,2022-11-15_13h55.12.038,vts_reward_expectancy_bt,2022.2.4,MacIntel,60.0024001,Chrome,1680,1050,,,l,0.6995,1,501,1,2,9,33,6,1,0,0,1,0,1,0,0,0,hexagon,triangle,,,,,,,,,,,,,,,,,,,,,,,,,,,,,,,,,,,,,,,,,,,,,,,,,,,,,,
297583,2022-11-15_13h55.12.038,vts_reward_expectancy_bt,2022.2.4,MacIntel,60.0024001,Chrome,1680,1050,,,a,2.4165,10,511,1,2,10,34,11,1,0,0,0,1,0,0,1,0,star,hexagon,,,,,,,,,,,,,,,,,,,,,,,,,,,,,,,,,,,,,,,,,,,,,,,,,,,,,,
297583,2022-11-15_13h55.12.038,vts_reward_expectancy_bt,2022.2.4,MacIntel,60.0024001,Chrome,1680,1050,,,l,0.6553,10,521,1,2,11,35,10,1,0,0,0,1,0,1,0,0,star ,circle,,,,,,,,,,,,,,,,,,,,,,,,,,,,,,,,,,,,,,,,,,,,,,,,,,,,,,
297583,2022-11-15_13h55.12.038,vts_reward_expectancy_bt,2022.2.4,MacIntel,60.0024001,Chrome,1680,1050,,,a,0.7158,10,531,2,0,0,0,2,1,1,0,0,0,0,0,0,1,triangle,star,,,,,,,,,,,,,,,,,,,,,,,,,,,,,,,,,,,,,,,,,,,,,,,,,,,,,,
297583,2022-11-15_13h55.12.038,vts_reward_expectancy_bt,2022.2.4,MacIntel,60.0024001,Chrome,1680,1050,,,l,0.4762,10,541,2,0,1,1,10,1,0,0,0,1,0,1,0,0,star ,circle,,,,,,,,,,,,,,,,,,,,,,,,,,,,,,,,,,,,,,,,,,,,,,,,,,,,,,
297583,2022-11-15_13h55.12.038,vts_reward_expectancy_bt,2022.2.4,MacIntel,60.0024001,Chrome,1680,1050,,,a,1.7733,10,551,2,0,2,2,11,1,0,0,0,1,0,0,1,0,star,hexagon,,,,,,,,,,,,,,,,,,,,,,,,,,,,,,,,,,,,,,,,,,,,,,,,,,,,,,
297583,2022-11-15_13h55.12.038,vts_reward_expectancy_bt,2022.2.4,MacIntel,60.0024001,Chrome,1680,1050,,,l,0.6264,10,561,2,0,3,3,9,1,0,0,0,1,1,0,0,0,star,triangle,,,,,,,,,,,,,,,,,,,,,,,,,,,,,,,,,,,,,,,,,,,,,,,,,,,,,,
297583,2022-11-15_13h55.12.038,vts_reward_expectancy_bt,2022.2.4,MacIntel,60.0024001,Chrome,1680,1050,,,a,0.7239,10,571,2,0,4,4,4,1,0,1,0,0,0,0,1,0,circle,hexagon,,,,,,,,,,,,,,,,,,,,,,,,,,,,,,,,,,,,,,,,,,,,,,,,,,,,,,
297583,2022-11-15_13h55.12.038,vts_reward_expectancy_bt,2022.2.4,MacIntel,60.0024001,Chrome,1680,1050,,,a,0.8624,1,572,2,0,5,5,5,1,0,1,0,0,0,0,0,1,circle,star,,,,,,,,,,,,,,,,,,,,,,,,,,,,,,,,,,,,,,,,,,,,,,,,,,,,,,
297583,2022-11-15_13h55.12.038,vts_reward_expectancy_bt,2022.2.4,MacIntel,60.0024001,Chrome,1680,1050,,,l,0.5417,10,582,2,0,6,6,0,1,1,0,0,0,0,1,0,0,triangle,circle,,,,,,,,,,,,,,,,,,,,,,,,,,,,,,,,,,,,,,,,,,,,,,,,,,,,,,
297583,2022-11-15_13h55.12.038,vts_reward_expectancy_bt,2022.2.4,MacIntel,60.0024001,Chrome,1680,1050,,,a,0.7526,10,592,2,0,7,7,1,1,1,0,0,0,0,0,1,0,triangle,hexagon,,,,,,,,,,,,,,,,,,,,,,,,,,,,,,,,,,,,,,,,,,,,,,,,,,,,,,
297583,2022-11-15_13h55.12.038,vts_reward_expectancy_bt,2022.2.4,MacIntel,60.0024001,Chrome,1680,1050,,,l,1.2248,1,593,2,0,8,8,8,1,0,0,1,0,0,0,0,1,hexagon,star,,,,,,,,,,,,,,,,,,,,,,,,,,,,,,,,,,,,,,,,,,,,,,,,,,,,,,
297583,2022-11-15_13h55.12.038,vts_reward_expectancy_bt,2022.2.4,MacIntel,60.0024001,Chrome,1680,1050,,,a,0.5823,1,594,2,0,9,9,3,1,0,1,0,0,1,0,0,0,circle,triangle,,,,,,,,,,,,,,,,,,,,,,,,,,,,,,,,,,,,,,,,,,,,,,,,,,,,,,
297583,2022-11-15_13h55.12.038,vts_reward_expectancy_bt,2022.2.4,MacIntel,60.0024001,Chrome,1680,1050,,,l,1.0395,10,604,2,0,10,10,6,1,0,0,1,0,1,0,0,0,hexagon,triangle,,,,,,,,,,,,,,,,,,,,,,,,,,,,,,,,,,,,,,,,,,,,,,,,,,,,,,
297583,2022-11-15_13h55.12.038,vts_reward_expectancy_bt,2022.2.4,MacIntel,60.0024001,Chrome,1680,1050,,,l,0.5911,10,614,2,0,11,11,7,1,0,0,1,0,0,1,0,0,hexagon,circle,,,,,,,,,,,,,,,,,,,,,,,,,,,,,,,,,,,,,,,,,,,,,,,,,,,,,,
297583,2022-11-15_13h55.12.038,vts_reward_expectancy_bt,2022.2.4,MacIntel,60.0024001,Chrome,1680,1050,,,l,0.6641,10,624,2,1,0,12,7,1,0,0,1,0,0,1,0,0,hexagon,circle,,,,,,,,,,,,,,,,,,,,,,,,,,,,,,,,,,,,,,,,,,,,,,,,,,,,,,
297583,2022-11-15_13h55.12.038,vts_reward_expectancy_bt,2022.2.4,MacIntel,60.0024001,Chrome,1680,1050,,,l,1.0706,10,634,2,1,1,13,0,1,1,0,0,0,0,1,0,0,triangle,circle,,,,,,,,,,,,,,,,,,,,,,,,,,,,,,,,,,,,,,,,,,,,,,,,,,,,,,
297583,2022-11-15_13h55.12.038,vts_reward_expectancy_bt,2022.2.4,MacIntel,60.0024001,Chrome,1680,1050,,,a,1.0383,1,635,2,1,2,14,11,1,0,0,0,1,0,0,1,0,star,hexagon,,,,,,,,,,,,,,,,,,,,,,,,,,,,,,,,,,,,,,,,,,,,,,,,,,,,,,
297583,2022-11-15_13h55.12.038,vts_reward_expectancy_bt,2022.2.4,MacIntel,60.0024001,Chrome,1680,1050,,,l,0.7387,10,645,2,1,3,15,6,1,0,0,1,0,1,0,0,0,hexagon,triangle,,,,,,,,,,,,,,,,,,,,,,,,,,,,,,,,,,,,,,,,,,,,,,,,,,,,,,
297583,2022-11-15_13h55.12.038,vts_reward_expectancy_bt,2022.2.4,MacIntel,60.0024001,Chrome,1680,1050,,,a,1.05,10,655,2,1,4,16,3,1,0,1,0,0,1,0,0,0,circle,triangle,,,,,,,,,,,,,,,,,,,,,,,,,,,,,,,,,,,,,,,,,,,,,,,,,,,,,,
297583,2022-11-15_13h55.12.038,vts_reward_expectancy_bt,2022.2.4,MacIntel,60.0024001,Chrome,1680,1050,,,a,2.09,10,665,2,1,5,17,1,1,1,0,0,0,0,0,1,0,triangle,hexagon,,,,,,,,,,,,,,,,,,,,,,,,,,,,,,,,,,,,,,,,,,,,,,,,,,,,,,
297583,2022-11-15_13h55.12.038,vts_reward_expectancy_bt,2022.2.4,MacIntel,60.0024001,Chrome,1680,1050,,,a,0.7092,10,675,2,1,6,18,4,1,0,1,0,0,0,0,1,0,circle,hexagon,,,,,,,,,,,,,,,,,,,,,,,,,,,,,,,,,,,,,,,,,,,,,,,,,,,,,,
297583,2022-11-15_13h55.12.038,vts_reward_expectancy_bt,2022.2.4,MacIntel,60.0024001,Chrome,1680,1050,,,l,0.531,10,685,2,1,7,19,9,1,0,0,0,1,1,0,0,0,star,triangle,,,,,,,,,,,,,,,,,,,,,,,,,,,,,,,,,,,,,,,,,,,,,,,,,,,,,,
297583,2022-11-15_13h55.12.038,vts_reward_expectancy_bt,2022.2.4,MacIntel,60.0024001,Chrome,1680,1050,,,l,0.871,10,695,2,1,8,20,10,1,0,0,0,1,0,1,0,0,star ,circle,,,,,,,,,,,,,,,,,,,,,,,,,,,,,,,,,,,,,,,,,,,,,,,,,,,,,,
297583,2022-11-15_13h55.12.038,vts_reward_expectancy_bt,2022.2.4,MacIntel,60.0024001,Chrome,1680,1050,,,a,1.1447,10,705,2,1,9,21,5,1,0,1,0,0,0,0,0,1,circle,star,,,,,,,,,,,,,,,,,,,,,,,,,,,,,,,,,,,,,,,,,,,,,,,,,,,,,,
297583,2022-11-15_13h55.12.038,vts_reward_expectancy_bt,2022.2.4,MacIntel,60.0024001,Chrome,1680,1050,,,l,1.6558,1,706,2,1,10,22,8,1,0,0,1,0,0,0,0,1,hexagon,star,,,,,,,,,,,,,,,,,,,,,,,,,,,,,,,,,,,,,,,,,,,,,,,,,,,,,,
297583,2022-11-15_13h55.12.038,vts_reward_expectancy_bt,2022.2.4,MacIntel,60.0024001,Chrome,1680,1050,,,a,0.4952,10,716,2,1,11,23,2,1,1,0,0,0,0,0,0,1,triangle,star,,,,,,,,,,,,,,,,,,,,,,,,,,,,,,,,,,,,,,,,,,,,,,,,,,,,,,
297583,2022-11-15_13h55.12.038,vts_reward_expectancy_bt,2022.2.4,MacIntel,60.0024001,Chrome,1680,1050,,,l,0.7756,1,717,2,2,0,24,9,1,0,0,0,1,1,0,0,0,star,triangle,,,,,,,,,,,,,,,,,,,,,,,,,,,,,,,,,,,,,,,,,,,,,,,,,,,,,,
297583,2022-11-15_13h55.12.038,vts_reward_expectancy_bt,2022.2.4,MacIntel,60.0024001,Chrome,1680,1050,,,l,0.907,1,718,2,2,1,25,11,1,0,0,0,1,0,0,1,0,star,hexagon,,,,,,,,,,,,,,,,,,,,,,,,,,,,,,,,,,,,,,,,,,,,,,,,,,,,,,
297583,2022-11-15_13h55.12.038,vts_reward_expectancy_bt,2022.2.4,MacIntel,60.0024001,Chrome,1680,1050,,,a,0.8501,1,719,2,2,2,26,5,1,0,1,0,0,0,0,0,1,circle,star,,,,,,,,,,,,,,,,,,,,,,,,,,,,,,,,,,,,,,,,,,,,,,,,,,,,,,
297583,2022-11-15_13h55.12.038,vts_reward_expectancy_bt,2022.2.4,MacIntel,60.0024001,Chrome,1680,1050,,,a,0.687,10,729,2,2,3,27,2,1,1,0,0,0,0,0,0,1,triangle,star,,,,,,,,,,,,,,,,,,,,,,,,,,,,,,,,,,,,,,,,,,,,,,,,,,,,,,
297583,2022-11-15_13h55.12.038,vts_reward_expectancy_bt,2022.2.4,MacIntel,60.0024001,Chrome,1680,1050,,,l,0.546,10,739,2,2,4,28,7,1,0,0,1,0,0,1,0,0,hexagon,circle,,,,,,,,,,,,,,,,,,,,,,,,,,,,,,,,,,,,,,,,,,,,,,,,,,,,,,
297583,2022-11-15_13h55.12.038,vts_reward_expectancy_bt,2022.2.4,MacIntel,60.0024001,Chrome,1680,1050,,,l,1.4977,1,740,2,2,5,29,0,1,1,0,0,0,0,1,0,0,triangle,circle,,,,,,,,,,,,,,,,,,,,,,,,,,,,,,,,,,,,,,,,,,,,,,,,,,,,,,
297583,2022-11-15_13h55.12.038,vts_reward_expectancy_bt,2022.2.4,MacIntel,60.0024001,Chrome,1680,1050,,,a,0.885,10,750,2,2,6,30,1,1,1,0,0,0,0,0,1,0,triangle,hexagon,,,,,,,,,,,,,,,,,,,,,,,,,,,,,,,,,,,,,,,,,,,,,,,,,,,,,,
297583,2022-11-15_13h55.12.038,vts_reward_expectancy_bt,2022.2.4,MacIntel,60.0024001,Chrome,1680,1050,,,a,1.6608,1,751,2,2,7,31,8,1,0,0,1,0,0,0,0,1,hexagon,star,,,,,,,,,,,,,,,,,,,,,,,,,,,,,,,,,,,,,,,,,,,,,,,,,,,,,,
297583,2022-11-15_13h55.12.038,vts_reward_expectancy_bt,2022.2.4,MacIntel,60.0024001,Chrome,1680,1050,,,a,1.4221,1,752,2,2,8,32,3,1,0,1,0,0,1,0,0,0,circle,triangle,,,,,,,,,,,,,,,,,,,,,,,,,,,,,,,,,,,,,,,,,,,,,,,,,,,,,,
297583,2022-11-15_13h55.12.038,vts_reward_expectancy_bt,2022.2.4,MacIntel,60.0024001,Chrome,1680,1050,,,l,0.507,10,762,2,2,9,33,10,1,0,0,0,1,0,1,0,0,star ,circle,,,,,,,,,,,,,,,,,,,,,,,,,,,,,,,,,,,,,,,,,,,,,,,,,,,,,,
297583,2022-11-15_13h55.12.038,vts_reward_expectancy_bt,2022.2.4,MacIntel,60.0024001,Chrome,1680,1050,,,l,1.7445,10,772,2,2,10,34,6,1,0,0,1,0,1,0,0,0,hexagon,triangle,,,,,,,,,,,,,,,,,,,,,,,,,,,,,,,,,,,,,,,,,,,,,,,,,,,,,,
297583,2022-11-15_13h55.12.038,vts_reward_expectancy_bt,2022.2.4,MacIntel,60.0024001,Chrome,1680,1050,,,a,0.6151,1,773,2,2,11,35,4,1,0,1,0,0,0,0,1,0,circle,hexagon,,,,,,,,,,,,,,,,,,,,,,,,,,,,,,,,,,,,,,,,,,,,,,,,,,,,,,
297583,2022-11-15_13h55.12.038,vts_reward_expectancy_bt,2022.2.4,MacIntel,60.0024001,Chrome,1680,1050,,,,,,,,,,,,,,,,,,,,,,,174,D,circle,1,0,f,1.0281,0,0,0,0,0,1,,,,,,,,,,,,,,,,,,,,,,,,,,,,,,,,,,,,,,,,,
297583,2022-11-15_13h55.12.038,vts_reward_expectancy_bt,2022.2.4,MacIntel,60.0024001,Chrome,1680,1050,,,,,,,,,,,,,,,,,,,,,,,160,S,triangle,1,0,f,0.7907,0,1,0,1,0,1,,,,,,,,,,,,,,,,,,,,,,,,,,,,,,,,,,,,,,,,,
297583,2022-11-15_13h55.12.038,vts_reward_expectancy_bt,2022.2.4,MacIntel,60.0024001,Chrome,1680,1050,,,,,,,,,,,,,,,,,,,,,,,181,B,star,1,0,f,0.6973,0,2,0,2,0,1,,,,,,,,,,,,,,,,,,,,,,,,,,,,,,,,,,,,,,,,,
297583,2022-11-15_13h55.12.038,vts_reward_expectancy_bt,2022.2.4,MacIntel,60.0024001,Chrome,1680,1050,,,,,,,,,,,,,,,,,,,,,,,125,U,hexagon,1,0,d,0.7785,0,3,0,3,0,1,,,,,,,,,,,,,,,,,,,,,,,,,,,,,,,,,,,,,,,,,
297583,2022-11-15_13h55.12.038,vts_reward_expectancy_bt,2022.2.4,MacIntel,60.0024001,Chrome,1680,1050,,,,,,,,,,,,,,,,,,,,,,,146,Y,circle,1,0,d,0.9435,0,4,0,4,0,1,,,,,,,,,,,,,,,,,,,,,,,,,,,,,,,,,,,,,,,,,
297583,2022-11-15_13h55.12.038,vts_reward_expectancy_bt,2022.2.4,MacIntel,60.0024001,Chrome,1680,1050,,,,,,,,,,,,,,,,,,,,,,,167,H,triangle,1,0,f,0.707,0,5,0,5,0,1,,,,,,,,,,,,,,,,,,,,,,,,,,,,,,,,,,,,,,,,,
297583,2022-11-15_13h55.12.038,vts_reward_expectancy_bt,2022.2.4,MacIntel,60.0024001,Chrome,1680,1050,,,,,,,,,,,,,,,,,,,,,,,132,F,star,1,0,d,0.7194,0,6,0,6,0,1,,,,,,,,,,,,,,,,,,,,,,,,,,,,,,,,,,,,,,,,,
297583,2022-11-15_13h55.12.038,vts_reward_expectancy_bt,2022.2.4,MacIntel,60.0024001,Chrome,1680,1050,,,,,,,,,,,,,,,,,,,,,,,139,W,hexagon,1,0,d,0.7589,0,7,0,7,0,1,,,,,,,,,,,,,,,,,,,,,,,,,,,,,,,,,,,,,,,,,
297583,2022-11-15_13h55.12.038,vts_reward_expectancy_bt,2022.2.4,MacIntel,60.0024001,Chrome,1680,1050,,,,,,,,,,,,,,,,,,,,,,,174,D,hexagon,1,0,f,0.6151,0,8,0,8,0,1,,,,,,,,,,,,,,,,,,,,,,,,,,,,,,,,,,,,,,,,,
297583,2022-11-15_13h55.12.038,vts_reward_expectancy_bt,2022.2.4,MacIntel,60.0024001,Chrome,1680,1050,,,,,,,,,,,,,,,,,,,,,,,160,S,triangle,1,0,f,1.0429,0,9,0,9,0,1,,,,,,,,,,,,,,,,,,,,,,,,,,,,,,,,,,,,,,,,,
297583,2022-11-15_13h55.12.038,vts_reward_expectancy_bt,2022.2.4,MacIntel,60.0024001,Chrome,1680,1050,,,,,,,,,,,,,,,,,,,,,,,125,U,circle,1,0,,,1,,,,,,k,1.4103,0,0,0,0,1,,,,,,,,,,,,,,,,,,,,,,,,,,,,,,,,,,
297583,2022-11-15_13h55.12.038,vts_reward_expectancy_bt,2022.2.4,MacIntel,60.0024001,Chrome,1680,1050,,,,,,,,,,,,,,,,,,,,,,,181,W,triangle,1,0,,,1,,,,,,k,0.8803,1,0,1,0,1,,,,,,,,,,,,,,,,,,,,,,,,,,,,,,,,,,
297583,2022-11-15_13h55.12.038,vts_reward_expectancy_bt,2022.2.4,MacIntel,60.0024001,Chrome,1680,1050,,,,,,,,,,,,,,,,,,,,,,,160,F,star,1,0,,,1,,,,,,j,0.7597,2,0,2,0,1,,,,,,,,,,,,,,,,,,,,,,,,,,,,,,,,,,
297583,2022-11-15_13h55.12.038,vts_reward_expectancy_bt,2022.2.4,MacIntel,60.0024001,Chrome,1680,1050,,,,,,,,,,,,,,,,,,,,,,,174,Y,hexagon,1,0,,,1,,,,,,k,0.5768,3,0,3,0,1,,,,,,,,,,,,,,,,,,,,,,,,,,,,,,,,,,
297583,2022-11-15_13h55.12.038,vts_reward_expectancy_bt,2022.2.4,MacIntel,60.0024001,Chrome,1680,1050,,,,,,,,,,,,,,,,,,,,,,,167,D,circle,1,0,,,1,,,,,,j,0.7469,4,0,4,0,1,,,,,,,,,,,,,,,,,,,,,,,,,,,,,,,,,,
297583,2022-11-15_13h55.12.038,vts_reward_expectancy_bt,2022.2.4,MacIntel,60.0024001,Chrome,1680,1050,,,,,,,,,,,,,,,,,,,,,,,132,H,triangle,1,0,,,1,,,,,,j,0.7837,5,0,5,0,1,,,,,,,,,,,,,,,,,,,,,,,,,,,,,,,,,,
297583,2022-11-15_13h55.12.038,vts_reward_expectancy_bt,2022.2.4,MacIntel,60.0024001,Chrome,1680,1050,,,,,,,,,,,,,,,,,,,,,,,139,S,star,1,0,,,1,,,,,,k,0.5861,6,0,6,0,1,,,,,,,,,,,,,,,,,,,,,,,,,,,,,,,,,,
297583,2022-11-15_13h55.12.038,vts_reward_expectancy_bt,2022.2.4,MacIntel,60.0024001,Chrome,1680,1050,,,,,,,,,,,,,,,,,,,,,,,146,B,hexagon,1,0,,,1,,,,,,j,0.6723,7,0,7,0,1,,,,,,,,,,,,,,,,,,,,,,,,,,,,,,,,,,
297583,2022-11-15_13h55.12.038,vts_reward_expectancy_bt,2022.2.4,MacIntel,60.0024001,Chrome,1680,1050,,,,,,,,,,,,,,,,,,,,,,,125,U,triangle,1,0,,,1,,,,,,k,0.5878,8,0,8,0,1,,,,,,,,,,,,,,,,,,,,,,,,,,,,,,,,,,
297583,2022-11-15_13h55.12.038,vts_reward_expectancy_bt,2022.2.4,MacIntel,60.0024001,Chrome,1680,1050,,,,,,,,,,,,,,,,,,,,,,,181,W,star,1,0,,,1,,,,,,k,1.001,9,0,9,0,1,,,,,,,,,,,,,,,,,,,,,,,,,,,,,,,,,,
297583,2022-11-15_13h55.12.038,vts_reward_expectancy_bt,2022.2.4,MacIntel,60.0024001,Chrome,1680,1050,,,,,0,773,,,,,,,,,,,,,,,,,160,S,circle,0,0,,,2,,,,,,,,,,,,,-1,number,NA,d,0.9815,vtsPrac,0,0,0,0,1,,,,,,,,,,,,,,,,,,,,,,,
297583,2022-11-15_13h55.12.038,vts_reward_expectancy_bt,2022.2.4,MacIntel,60.0024001,Chrome,1680,1050,,,,,0,773,,,,,,,,,,,,,,,,,181,B,star,1,1,,,2,,,,,,,,,,,,,switch,letter,lettSwt,j,1.5892,vtsPrac,1,0,1,0,1,,,,,,,,,,,,,,,,,,,,,,,
297583,2022-11-15_13h55.12.038,vts_reward_expectancy_bt,2022.2.4,MacIntel,60.0024001,Chrome,1680,1050,,,,,0,773,,,,,,,,,,,,,,,,,146,W,circle,1,0,,,2,,,,,,,,,,,,,switch,number,numSwt,d,1.0541,vtsPrac,2,0,2,0,1,,,,,,,,,,,,,,,,,,,,,,,
297583,2022-11-15_13h55.12.038,vts_reward_expectancy_bt,2022.2.4,MacIntel,60.0024001,Chrome,1680,1050,,,,,0,773,,,,,,,,,,,,,,,,,139,D,star,1,0,,,2,,,,,,,,,,,,,repeat,number,numRpt,d,0.8829,vtsPrac,3,0,3,0,1,,,,,,,,,,,,,,,,,,,,,,,
297583,2022-11-15_13h55.12.038,vts_reward_expectancy_bt,2022.2.4,MacIntel,60.0024001,Chrome,1680,1050,,,,,0,773,,,,,,,,,,,,,,,,,160,S,star,1,0,,,2,,,,,,,,,,,,,switch,letter,lettSwt,k,0.8954,vtsPrac,4,0,4,0,1,,,,,,,,,,,,,,,,,,,,,,,
297583,2022-11-15_13h55.12.038,vts_reward_expectancy_bt,2022.2.4,MacIntel,60.0024001,Chrome,1680,1050,,,,,0,773,,,,,,,,,,,,,,,,,181,B,triangle,1,0,,,2,,,,,,,,,,,,,repeat,letter,lettRpt,j,2.426,vtsPrac,5,0,5,0,1,,,,,,,,,,,,,,,,,,,,,,,
297583,2022-11-15_13h55.12.038,vts_reward_expectancy_bt,2022.2.4,MacIntel,60.0024001,Chrome,1680,1050,,,,,0,773,,,,,,,,,,,,,,,,,146,W,circle,1,0,,,2,,,,,,,,,,,,,repeat,letter,lettRpt,k,0.8303,vtsPrac,6,0,6,0,1,,,,,,,,,,,,,,,,,,,,,,,
297583,2022-11-15_13h55.12.038,vts_reward_expectancy_bt,2022.2.4,MacIntel,60.0024001,Chrome,1680,1050,,,,,0,773,,,,,,,,,,,,,,,,,139,D,hexagon,1,0,,,2,,,,,,,,,,,,,switch,number,numSwt,d,1.1929,vtsPrac,7,0,7,0,1,,,,,,,,,,,,,,,,,,,,,,,
297583,2022-11-15_13h55.12.038,vts_reward_expectancy_bt,2022.2.4,MacIntel,60.0024001,Chrome,1680,1050,,,,,0,773,,,,,,,,,,,,,,,,,167,B,star,1,0,,,2,,,,,,,,,,,,,repeat,number,numRpt,f,0.8826,vtsPrac,8,0,8,0,1,,,,,,,,,,,,,,,,,,,,,,,
297583,2022-11-15_13h55.12.038,vts_reward_expectancy_bt,2022.2.4,MacIntel,60.0024001,Chrome,1680,1050,,,,,0,773,,,,,,,,,,,,,,,,,132,S,triangle,1,0,,,2,,,,,,,,,,,,,switch,letter,lettSwt,k,0.7918,vtsPrac,9,0,9,0,1,,,,,,,,,,,,,,,,,,,,,,,
297583,2022-11-15_13h55.12.038,vts_reward_expectancy_bt,2022.2.4,MacIntel,60.0024001,Chrome,1680,1050,,,,,0,773,,,,,,,,,,,,,,,,,139,F,circle,1,0,,,2,,,,,,,,,,,,,switch,number,numSwt,d,0.7881,vtsPrac,10,0,10,0,1,,,,,,,,,,,,,,,,,,,,,,,
297583,2022-11-15_13h55.12.038,vts_reward_expectancy_bt,2022.2.4,MacIntel,60.0024001,Chrome,1680,1050,,,,,0,773,,,,,,,,,,,,,,,,,181,H,star,1,0,,,2,,,,,,,,,,,,,switch,letter,lettSwt,j,1.5207,vtsPrac,11,0,11,0,1,,,,,,,,,,,,,,,,,,,,,,,
297583,2022-11-15_13h55.12.038,vts_reward_expectancy_bt,2022.2.4,MacIntel,60.0024001,Chrome,1680,1050,,,,,0,773,,,,,,,,,,,,,,,,,174,F,star,1,0,,,2,,,,,,,,,,,,,repeat,letter,lettRpt,j,0.613,vtsPrac,12,0,12,0,1,,,,,,,,,,,,,,,,,,,,,,,
297583,2022-11-15_13h55.12.038,vts_reward_expectancy_bt,2022.2.4,MacIntel,60.0024001,Chrome,1680,1050,,,,,0,773,,,,,,,,,,,,,,,,,160,D,hexagon,1,0,,,2,,,,,,,,,,,,,switch,number,numSwt,f,0.8169,vtsPrac,13,0,13,0,1,,,,,,,,,,,,,,,,,,,,,,,
297583,2022-11-15_13h55.12.038,vts_reward_expectancy_bt,2022.2.4,MacIntel,60.0024001,Chrome,1680,1050,,,,,0,773,,,,,,,,,,,,,,,,,181,Y,star,1,0,,,2,,,,,,,,,,,,,repeat,number,numRpt,f,0.7294,vtsPrac,14,0,14,0,1,,,,,,,,,,,,,,,,,,,,,,,
297583,2022-11-15_13h55.12.038,vts_reward_expectancy_bt,2022.2.4,MacIntel,60.0024001,Chrome,1680,1050,,,,,0,773,,,,,,,,,,,,,,,,,132,H,triangle,1,0,,,2,,,,,,,,,,,,,switch,letter,lettSwt,j,0.7428,vtsPrac,15,0,15,0,1,,,,,,,,,,,,,,,,,,,,,,,
297583,2022-11-15_13h55.12.038,vts_reward_expectancy_bt,2022.2.4,MacIntel,60.0024001,Chrome,1680,1050,,,,,0,773,,,,,,,,,,,,,,,,,181,B,hexagon,1,0,,,2,,,,,,,,,,,,,repeat,letter,lettRpt,j,0.7189,vtsPrac,16,0,16,0,1,,,,,,,,,,,,,,,,,,,,,,,
297583,2022-11-15_13h55.12.038,vts_reward_expectancy_bt,2022.2.4,MacIntel,60.0024001,Chrome,1680,1050,,,,,0,773,,,,,,,,,,,,,,,,,132,U,triangle,1,0,,,2,,,,,,,,,,,,,switch,number,numSwt,d,0.7602,vtsPrac,17,0,17,0,1,,,,,,,,,,,,,,,,,,,,,,,
297583,2022-11-15_13h55.12.038,vts_reward_expectancy_bt,2022.2.4,MacIntel,60.0024001,Chrome,1680,1050,,,,,0,773,,,,,,,,,,,,,,,,,167,W,star,1,0,,,2,,,,,,,,,,,,,repeat,number,numRpt,f,1.2675,vtsPrac,18,0,18,0,1,,,,,,,,,,,,,,,,,,,,,,,
297583,2022-11-15_13h55.12.038,vts_reward_expectancy_bt,2022.2.4,MacIntel,60.0024001,Chrome,1680,1050,,,,,0,773,,,,,,,,,,,,,,,,,146,D,hexagon,1,0,,,2,,,,,,,,,,,,,repeat,number,numRpt,d,1.5021,vtsPrac,19,0,19,0,1,,,,,,,,,,,,,,,,,,,,,,,
297583,2022-11-15_13h55.12.038,vts_reward_expectancy_bt,2022.2.4,MacIntel,60.0024001,Chrome,1680,1050,,,,,0,773,,,,,,,,,,,,,,,,,146,B,triangle,1,0,,,2,,,,,,,,,,,,,switch,letter,lettSwt,j,0.7798,vtsPrac,20,0,20,0,1,,,,,,,,,,,,,,,,,,,,,,,
297583,2022-11-15_13h55.12.038,vts_reward_expectancy_bt,2022.2.4,MacIntel,60.0024001,Chrome,1680,1050,,,,,0,773,,,,,,,,,,,,,,,,,139,S,circle,1,0,,,2,,,,,,,,,,,,,switch,number,numSwt,d,0.8252,vtsPrac,21,0,21,0,1,,,,,,,,,,,,,,,,,,,,,,,
297583,2022-11-15_13h55.12.038,vts_reward_expectancy_bt,2022.2.4,MacIntel,60.0024001,Chrome,1680,1050,,,,,0,773,,,,,,,,,,,,,,,,,125,H,triangle,1,0,,,2,,,,,,,,,,,,,switch,letter,lettSwt,j,0.6626,vtsPrac,22,0,22,0,1,,,,,,,,,,,,,,,,,,,,,,,
297583,2022-11-15_13h55.12.038,vts_reward_expectancy_bt,2022.2.4,MacIntel,60.0024001,Chrome,1680,1050,,,,,0,773,,,,,,,,,,,,,,,,,167,D,hexagon,1,0,,,2,,,,,,,,,,,,,repeat,letter,lettRpt,j,0.7478,vtsPrac,23,0,23,0,1,,,,,,,,,,,,,,,,,,,,,,,
297583,2022-11-15_13h55.12.038,vts_reward_expectancy_bt,2022.2.4,MacIntel,60.0024001,Chrome,1680,1050,,,,,0,773,,,,,,,,,,,,,,,,,167,H,triangle,1,0,,,2,,,,,,,,,,,,,switch,number,numSwt,f,1.319,vtsPrac,24,0,24,0,1,,,,,,,,,,,,,,,,,,,,,,,
297583,2022-11-15_13h55.12.038,vts_reward_expectancy_bt,2022.2.4,MacIntel,60.0024001,Chrome,1680,1050,,,,,0,773,,,,,,,,,,,,,,,,,139,S,circle,1,0,,,2,,,,,,,,,,,,,repeat,number,numRpt,d,2.2929,vtsPrac,25,0,25,0,1,,,,,,,,,,,,,,,,,,,,,,,
297583,2022-11-15_13h55.12.038,vts_reward_expectancy_bt,2022.2.4,MacIntel,60.0024001,Chrome,1680,1050,,,,,0,773,,,,,,,,,,,,,,,,,160,Y,hexagon,1,0,,,2,,,,,,,,,,,,,repeat,number,numRpt,f,0.8728,vtsPrac,26,0,26,0,1,,,,,,,,,,,,,,,,,,,,,,,
297583,2022-11-15_13h55.12.038,vts_reward_expectancy_bt,2022.2.4,MacIntel,60.0024001,Chrome,1680,1050,,,,,0,773,,,,,,,,,,,,,,,,,125,U,star,1,0,,,2,,,,,,,,,,,,,switch,letter,lettSwt,k,0.7605,vtsPrac,27,0,27,0,1,,,,,,,,,,,,,,,,,,,,,,,
297583,2022-11-15_13h55.12.038,vts_reward_expectancy_bt,2022.2.4,MacIntel,60.0024001,Chrome,1680,1050,,,,,0,773,,,,,,,,,,,,,,,,,139,H,hexagon,1,0,,,2,,,,,,,,,,,,,repeat,letter,lettRpt,j,0.6545,vtsPrac,28,0,28,0,1,,,,,,,,,,,,,,,,,,,,,,,
297583,2022-11-15_13h55.12.038,vts_reward_expectancy_bt,2022.2.4,MacIntel,60.0024001,Chrome,1680,1050,,,,,0,773,,,,,,,,,,,,,,,,,174,Y,triangle,1,0,,,2,,,,,,,,,,,,,repeat,letter,lettRpt,k,0.9368,vtsPrac,29,0,29,0,1,,,,,,,,,,,,,,,,,,,,,,,
297583,2022-11-15_13h55.12.038,vts_reward_expectancy_bt,2022.2.4,MacIntel,60.0024001,Chrome,1680,1050,,,,,0,773,,,,,,,,,,,,,,,,,125,F,hexagon,1,0,,,2,,,,,,,,,,,,,switch,number,numSwt,d,1.1087,vtsPrac,30,0,30,0,1,,,,,,,,,,,,,,,,,,,,,,,
297583,2022-11-15_13h55.12.038,vts_reward_expectancy_bt,2022.2.4,MacIntel,60.0024001,Chrome,1680,1050,,,,,0,773,,,,,,,,,,,,,,,,,146,D,triangle,1,0,,,2,,,,,,,,,,,,,repeat,number,numRpt,d,0.814,vtsPrac,31,0,31,0,1,,,,,,,,,,,,,,,,,,,,,,,
297583,2022-11-15_13h55.12.038,vts_reward_expectancy_bt,2022.2.4,MacIntel,60.0024001,Chrome,1680,1050,,,,,,,,,,,,,,,,,,,,,,,,,,,,,,,,,,,,,,,,,,,,,,,,,,,,,,,,,,,,,,,,,,,,,,,,,,,,
297583,2022-11-15_13h55.12.038,vts_reward_expectancy_bt,2022.2.4,MacIntel,60.0024001,Chrome,1680,1050,,,,,,,,,,,,,,,,,,,,,,,,,,,,,,,,,,,,,,,,,,,,,,,,,,,,,,,,,,,,,,,,,,,,,,,,,,,,
297583,2022-11-15_13h55.12.038,vts_reward_expectancy_bt,2022.2.4,MacIntel,60.0024001,Chrome,1680,1050,,,,,0,773,,,,,,,,,,,,,,,,,181,F,star,1,0,,,,,,,,,,,,,,,,repeat,number,numRpt,f,0.8632,noRew,,,,,,0,0,0,0,0,1,,,,,,,,,,,,,,,,,
297583,2022-11-15_13h55.12.038,vts_reward_expectancy_bt,2022.2.4,MacIntel,60.0024001,Chrome,1680,1050,,,,,0,773,,,,,,,,,,,,,,,,,146,B,triangle,1,0,,,,,,,,,,,,,,,,repeat,number,numRpt,d,0.5623,noRew,,,,,,0,1,0,1,0,1,,,,,,,,,,,,,,,,,
297583,2022-11-15_13h55.12.038,vts_reward_expectancy_bt,2022.2.4,MacIntel,60.0024001,Chrome,1680,1050,,,,,0,773,,,,,,,,,,,,,,,,,160,U,star,1,0,,,,,,,,,,,,,,,,switch,letter,lettSwt,k,0.6324,noRew,,,,,,0,2,0,2,0,1,,,,,,,,,,,,,,,,,
297583,2022-11-15_13h55.12.038,vts_reward_expectancy_bt,2022.2.4,MacIntel,60.0024001,Chrome,1680,1050,,,,,0,773,,,,,,,,,,,,,,,,,139,D,triangle,1,0,,,,,,,,,,,,,,,,switch,number,numSwt,d,0.7188,noRew,,,,,,0,3,0,3,0,1,,,,,,,,,,,,,,,,,
297583,2022-11-15_13h55.12.038,vts_reward_expectancy_bt,2022.2.4,MacIntel,60.0024001,Chrome,1680,1050,,,,,0,773,,,,,,,,,,,,,,,,,181,F,star,1,0,,,,,,,,,,,,,,,,switch,letter,lettSwt,j,1.1002,noRew,,,,,,0,4,0,4,0,1,,,,,,,,,,,,,,,,,
297583,2022-11-15_13h55.12.038,vts_reward_expectancy_bt,2022.2.4,MacIntel,60.0024001,Chrome,1680,1050,,,,,0,773,,,,,,,,,,,,,,,,,146,B,circle,1,0,,,,,,,,,,,,,,,,repeat,letter,lettRpt,j,0.7867,noRew,,,,,,0,5,0,5,0,1,,,,,,,,,,,,,,,,,
297583,2022-11-15_13h55.12.038,vts_reward_expectancy_bt,2022.2.4,MacIntel,60.0024001,Chrome,1680,1050,,,,,0,773,,,,,,,,,,,,,,,,,160,U,star,1,0,,,,,,,,,,,,,,,,repeat,letter,lettRpt,k,0.6115,noRew,,,,,,0,6,0,6,0,1,,,,,,,,,,,,,,,,,
297583,2022-11-15_13h55.12.038,vts_reward_expectancy_bt,2022.2.4,MacIntel,60.0024001,Chrome,1680,1050,,,,,0,773,,,,,,,,,,,,,,,,,139,D,circle,1,0,,,,,,,,,,,,,,,,repeat,letter,lettRpt,j,0.9131,noRew,,,,,,0,7,0,7,0,1,,,,,,,,,,,,,,,,,
297583,2022-11-15_13h55.12.038,vts_reward_expectancy_bt,2022.2.4,MacIntel,60.0024001,Chrome,1680,1050,,,,,0,773,,,,,,,,,,,,,,,,,139,H,circle,1,0,,,,,,,,,,,,,,,,switch,number,numSwt,d,0.6951,noRew,,,,,,0,8,0,8,0,1,,,,,,,,,,,,,,,,,
297583,2022-11-15_13h55.12.038,vts_reward_expectancy_bt,2022.2.4,MacIntel,60.0024001,Chrome,1680,1050,,,,,0,773,,,,,,,,,,,,,,,,,160,D,triangle,1,0,,,,,,,,,,,,,,,,repeat,number,numRpt,f,0.9494,noRew,,,,,,0,9,0,9,0,1,,,,,,,,,,,,,,,,,
297583,2022-11-15_13h55.12.038,vts_reward_expectancy_bt,2022.2.4,MacIntel,60.0024001,Chrome,1680,1050,,,,,0,773,,,,,,,,,,,,,,,,,174,S,star,1,0,,,,,,,,,,,,,,,,switch,letter,lettSwt,k,1.1507,noRew,,,,,,0,10,0,10,0,1,,,,,,,,,,,,,,,,,
297583,2022-11-15_13h55.12.038,vts_reward_expectancy_bt,2022.2.4,MacIntel,60.0024001,Chrome,1680,1050,,,,,0,773,,,,,,,,,,,,,,,,,125,Y,hexagon,1,0,,,,,,,,,,,,,,,,repeat,letter,lettRpt,k,0.797,noRew,,,,,,0,11,0,11,0,1,,,,,,,,,,,,,,,,,
297583,2022-11-15_13h55.12.038,vts_reward_expectancy_bt,2022.2.4,MacIntel,60.0024001,Chrome,1680,1050,,,,,0,773,,,,,,,,,,,,,,,,,174,W,hexagon,1,0,,,,,,,,,,,,,,,,switch,number,numSwt,f,0.998,noRew,,,,,,0,12,0,12,0,1,,,,,,,,,,,,,,,,,
297583,2022-11-15_13h55.12.038,vts_reward_expectancy_bt,2022.2.4,MacIntel,60.0024001,Chrome,1680,1050,,,,,0,773,,,,,,,,,,,,,,,,,181,U,triangle,1,0,,,,,,,,,,,,,,,,switch,letter,lettSwt,k,0.7729,noRew,,,,,,0,13,0,13,0,1,,,,,,,,,,,,,,,,,
297583,2022-11-15_13h55.12.038,vts_reward_expectancy_bt,2022.2.4,MacIntel,60.0024001,Chrome,1680,1050,,,,,0,773,,,,,,,,,,,,,,,,,167,Y,triangle,1,0,,,,,,,,,,,,,,,,switch,number,numSwt,f,0.8989,noRew,,,,,,0,14,0,14,0,1,,,,,,,,,,,,,,,,,
297583,2022-11-15_13h55.12.038,vts_reward_expectancy_bt,2022.2.4,MacIntel,60.0024001,Chrome,1680,1050,,,,,0,773,,,,,,,,,,,,,,,,,139,H,hexagon,1,0,,,,,,,,,,,,,,,,repeat,number,numRpt,d,0.7816,noRew,,,,,,0,15,0,15,0,1,,,,,,,,,,,,,,,,,
297583,2022-11-15_13h55.12.038,vts_reward_expectancy_bt,2022.2.4,MacIntel,60.0024001,Chrome,1680,1050,,,,,0,773,,,,,,,,,,,,,,,,,174,Y,triangle,1,0,,,,,,,,,,,,,,,,repeat,number,numRpt,f,0.9181,noRew,,,,,,0,16,0,16,0,1,,,,,,,,,,,,,,,,,
297583,2022-11-15_13h55.12.038,vts_reward_expectancy_bt,2022.2.4,MacIntel,60.0024001,Chrome,1680,1050,,,,,0,773,,,,,,,,,,,,,,,,,132,W,circle,1,0,,,,,,,,,,,,,,,,switch,letter,lettSwt,k,0.7837,noRew,,,,,,0,17,0,17,0,1,,,,,,,,,,,,,,,,,
297583,2022-11-15_13h55.12.038,vts_reward_expectancy_bt,2022.2.4,MacIntel,60.0024001,Chrome,1680,1050,,,,,0,773,,,,,,,,,,,,,,,,,125,H,star,1,0,,,,,,,,,,,,,,,,switch,number,numSwt,d,1.0532,noRew,,,,,,0,18,0,18,0,1,,,,,,,,,,,,,,,,,
297583,2022-11-15_13h55.12.038,vts_reward_expectancy_bt,2022.2.4,MacIntel,60.0024001,Chrome,1680,1050,,,,,0,773,,,,,,,,,,,,,,,,,139,B,hexagon,1,0,,,,,,,,,,,,,,,,switch,letter,lettSwt,j,1.039,noRew,,,,,,0,19,0,19,0,1,,,,,,,,,,,,,,,,,
297583,2022-11-15_13h55.12.038,vts_reward_expectancy_bt,2022.2.4,MacIntel,60.0024001,Chrome,1680,1050,,,,,0,773,,,,,,,,,,,,,,,,,174,F,hexagon,1,0,,,,,,,,,,,,,,,,repeat,letter,lettRpt,j,0.8944,noRew,,,,,,0,20,0,20,0,1,,,,,,,,,,,,,,,,,
297583,2022-11-15_13h55.12.038,vts_reward_expectancy_bt,2022.2.4,MacIntel,60.0024001,Chrome,1680,1050,,,,,0,773,,,,,,,,,,,,,,,,,139,H,star,1,0,,,,,,,,,,,,,,,,switch,number,numSwt,d,0.9355,noRew,,,,,,0,21,0,21,0,1,,,,,,,,,,,,,,,,,
297583,2022-11-15_13h55.12.038,vts_reward_expectancy_bt,2022.2.4,MacIntel,60.0024001,Chrome,1680,1050,,,,,0,773,,,,,,,,,,,,,,,,,146,W,star,1,0,,,,,,,,,,,,,,,,repeat,number,numRpt,d,0.8467,noRew,,,,,,0,22,0,22,0,1,,,,,,,,,,,,,,,,,
297583,2022-11-15_13h55.12.038,vts_reward_expectancy_bt,2022.2.4,MacIntel,60.0024001,Chrome,1680,1050,,,,,0,773,,,,,,,,,,,,,,,,,167,S,triangle,1,0,,,,,,,,,,,,,,,,switch,letter,lettSwt,k,0.6609,noRew,,,,,,0,23,0,23,0,1,,,,,,,,,,,,,,,,,
297583,2022-11-15_13h55.12.038,vts_reward_expectancy_bt,2022.2.4,MacIntel,60.0024001,Chrome,1680,1050,,,,,0,773,,,,,,,,,,,,,,,,,125,D,hexagon,1,0,,,,,,,,,,,,,,,,repeat,letter,lettRpt,j,0.7029,noRew,,,,,,0,24,0,24,0,1,,,,,,,,,,,,,,,,,
297583,2022-11-15_13h55.12.038,vts_reward_expectancy_bt,2022.2.4,MacIntel,60.0024001,Chrome,1680,1050,,,,,0,773,,,,,,,,,,,,,,,,,132,H,star,1,0,,,,,,,,,,,,,,,,repeat,letter,lettRpt,j,0.756,noRew,,,,,,0,25,0,25,0,1,,,,,,,,,,,,,,,,,
297583,2022-11-15_13h55.12.038,vts_reward_expectancy_bt,2022.2.4,MacIntel,60.0024001,Chrome,1680,1050,,,,,0,773,,,,,,,,,,,,,,,,,167,B,star,1,0,,,,,,,,,,,,,,,,switch,number,numSwt,f,1.3781,noRew,,,,,,0,26,0,26,0,1,,,,,,,,,,,,,,,,,
297583,2022-11-15_13h55.12.038,vts_reward_expectancy_bt,2022.2.4,MacIntel,60.0024001,Chrome,1680,1050,,,,,0,773,,,,,,,,,,,,,,,,,181,S,triangle,1,0,,,,,,,,,,,,,,,,repeat,number,numRpt,f,0.8048,noRew,,,,,,0,27,0,27,0,1,,,,,,,,,,,,,,,,,
297583,2022-11-15_13h55.12.038,vts_reward_expectancy_bt,2022.2.4,MacIntel,60.0024001,Chrome,1680,1050,,,,,0,773,,,,,,,,,,,,,,,,,132,B,hexagon,1,0,,,,,,,,,,,,,,,,switch,letter,lettSwt,j,0.6365,noRew,,,,,,0,28,0,28,0,1,,,,,,,,,,,,,,,,,
297583,2022-11-15_13h55.12.038,vts_reward_expectancy_bt,2022.2.4,MacIntel,60.0024001,Chrome,1680,1050,,,,,0,773,,,,,,,,,,,,,,,,,167,F,circle,1,0,,,,,,,,,,,,,,,,switch,number,numSwt,f,0.8398,noRew,,,,,,0,29,0,29,0,1,,,,,,,,,,,,,,,,,
297583,2022-11-15_13h55.12.038,vts_reward_expectancy_bt,2022.2.4,MacIntel,60.0024001,Chrome,1680,1050,,,,,0,773,,,,,,,,,,,,,,,,,174,U,triangle,1,0,,,,,,,,,,,,,,,,switch,letter,lettSwt,k,0.9453,noRew,,,,,,0,30,0,30,0,1,,,,,,,,,,,,,,,,,
297583,2022-11-15_13h55.12.038,vts_reward_expectancy_bt,2022.2.4,MacIntel,60.0024001,Chrome,1680,1050,,,,,0,773,,,,,,,,,,,,,,,,,160,D,star,1,0,,,,,,,,,,,,,,,,repeat,letter,lettRpt,j,1.0617,noRew,,,,,,0,31,0,31,0,1,,,,,,,,,,,,,,,,,
297583,2022-11-15_13h55.12.038,vts_reward_expectancy_bt,2022.2.4,MacIntel,60.0024001,Chrome,1680,1050,,,,,0,773,,,,,,,,,,,,,,,,,167,W,triangle,1,0,,,,,,,,,,,,,,,,switch,number,numSwt,f,0.8724,noRew,,,,,,0,32,0,32,0,1,,,,,,,,,,,,,,,,,
297583,2022-11-15_13h55.12.038,vts_reward_expectancy_bt,2022.2.4,MacIntel,60.0024001,Chrome,1680,1050,,,,,0,773,,,,,,,,,,,,,,,,,181,U,star,1,0,,,,,,,,,,,,,,,,repeat,number,numRpt,f,0.5402,noRew,,,,,,0,33,0,33,0,1,,,,,,,,,,,,,,,,,
297583,2022-11-15_13h55.12.038,vts_reward_expectancy_bt,2022.2.4,MacIntel,60.0024001,Chrome,1680,1050,,,,,0,773,,,,,,,,,,,,,,,,,125,H,circle,1,0,,,,,,,,,,,,,,,,repeat,number,numRpt,d,0.8702,noRew,,,,,,0,34,0,34,0,1,,,,,,,,,,,,,,,,,
297583,2022-11-15_13h55.12.038,vts_reward_expectancy_bt,2022.2.4,MacIntel,60.0024001,Chrome,1680,1050,,,,,0,773,,,,,,,,,,,,,,,,,132,Y,star,1,0,,,,,,,,,,,,,,,,repeat,number,numRpt,d,0.7393,noRew,,,,,,0,35,0,35,0,1,,,,,,,,,,,,,,,,,
297583,2022-11-15_13h55.12.038,vts_reward_expectancy_bt,2022.2.4,MacIntel,60.0024001,Chrome,1680,1050,,,,,0,773,,,,,,,,,,,,,,,,,146,H,triangle,1,0,,,,,,,,,,,,,,,,switch,letter,lettSwt,j,0.8314,noRew,,,,,,0,36,0,36,0,1,,,,,,,,,,,,,,,,,
297583,2022-11-15_13h55.12.038,vts_reward_expectancy_bt,2022.2.4,MacIntel,60.0024001,Chrome,1680,1050,,,,,0,773,,,,,,,,,,,,,,,,,181,D,circle,1,0,,,,,,,,,,,,,,,,repeat,letter,lettRpt,j,2,noRew,,,,,,0,37,0,37,0,1,,,,,,,,,,,,,,,,,
297583,2022-11-15_13h55.12.038,vts_reward_expectancy_bt,2022.2.4,MacIntel,60.0024001,Chrome,1680,1050,,,,,0,773,,,,,,,,,,,,,,,,,139,Y,triangle,1,0,,,,,,,,,,,,,,,,switch,number,numSwt,d,0.8784,noRew,,,,,,0,38,0,38,0,1,,,,,,,,,,,,,,,,,
297583,2022-11-15_13h55.12.038,vts_reward_expectancy_bt,2022.2.4,MacIntel,60.0024001,Chrome,1680,1050,,,,,0,773,,,,,,,,,,,,,,,,,125,F,hexagon,1,0,,,,,,,,,,,,,,,,switch,letter,lettSwt,j,1.1499,noRew,,,,,,0,39,0,39,0,1,,,,,,,,,,,,,,,,,
297583,2022-11-15_13h55.12.038,vts_reward_expectancy_bt,2022.2.4,MacIntel,60.0024001,Chrome,1680,1050,,,,,0,773,,,,,,,,,,,,,,,,,125,S,star,1,0,,,,,,,,,,,,,,,,repeat,letter,lettRpt,k,1.0808,noRew,,,,,,0,40,0,40,0,1,,,,,,,,,,,,,,,,,
297583,2022-11-15_13h55.12.038,vts_reward_expectancy_bt,2022.2.4,MacIntel,60.0024001,Chrome,1680,1050,,,,,0,773,,,,,,,,,,,,,,,,,146,F,circle,1,0,,,,,,,,,,,,,,,,repeat,letter,lettRpt,j,0.9494,noRew,,,,,,0,41,0,41,0,1,,,,,,,,,,,,,,,,,
297583,2022-11-15_13h55.12.038,vts_reward_expectancy_bt,2022.2.4,MacIntel,60.0024001,Chrome,1680,1050,,,,,0,773,,,,,,,,,,,,,,,,,167,H,triangle,1,0,,,,,,,,,,,,,,,,switch,number,numSwt,f,0.6953,noRew,,,,,,0,42,0,42,0,1,,,,,,,,,,,,,,,,,
297583,2022-11-15_13h55.12.038,vts_reward_expectancy_bt,2022.2.4,MacIntel,60.0024001,Chrome,1680,1050,,,,,0,773,,,,,,,,,,,,,,,,,132,D,circle,1,0,,,,,,,,,,,,,,,,repeat,number,numRpt,d,0.579,noRew,,,,,,0,43,0,43,0,1,,,,,,,,,,,,,,,,,
297583,2022-11-15_13h55.12.038,vts_reward_expectancy_bt,2022.2.4,MacIntel,60.0024001,Chrome,1680,1050,,,,,0,773,,,,,,,,,,,,,,,,,174,F,circle,1,0,,,,,,,,,,,,,,,,switch,letter,lettSwt,j,0.7897,noRew,,,,,,0,44,0,44,0,1,,,,,,,,,,,,,,,,,
297583,2022-11-15_13h55.12.038,vts_reward_expectancy_bt,2022.2.4,MacIntel,60.0024001,Chrome,1680,1050,,,,,0,773,,,,,,,,,,,,,,,,,167,W,hexagon,1,0,,,,,,,,,,,,,,,,repeat,letter,lettRpt,k,0.672,noRew,,,,,,0,45,0,45,0,1,,,,,,,,,,,,,,,,,
297583,2022-11-15_13h55.12.038,vts_reward_expectancy_bt,2022.2.4,MacIntel,60.0024001,Chrome,1680,1050,,,,,0,773,,,,,,,,,,,,,,,,,181,U,hexagon,1,0,,,,,,,,,,,,,,,,switch,number,numSwt,f,0.8603,noRew,,,,,,0,46,0,46,0,1,,,,,,,,,,,,,,,,,
297583,2022-11-15_13h55.12.038,vts_reward_expectancy_bt,2022.2.4,MacIntel,60.0024001,Chrome,1680,1050,,,,,0,773,,,,,,,,,,,,,,,,,139,D,circle,1,0,,,,,,,,,,,,,,,,repeat,number,numRpt,d,0.7189,noRew,,,,,,0,47,0,47,0,1,,,,,,,,,,,,,,,,,
297583,2022-11-15_13h55.12.038,vts_reward_expectancy_bt,2022.2.4,MacIntel,60.0024001,Chrome,1680,1050,,,,,0,773,,,,,,,,,,,,,,,,,167,U,star,1,0,,,,,,,,,,,,,,,,switch,letter,lettSwt,k,1.8294,noRew,,,,,,0,48,0,48,0,1,,,,,,,,,,,,,,,,,
297583,2022-11-15_13h55.12.038,vts_reward_expectancy_bt,2022.2.4,MacIntel,60.0024001,Chrome,1680,1050,,,,,0,773,,,,,,,,,,,,,,,,,132,S,hexagon,1,0,,,,,,,,,,,,,,,,repeat,letter,lettRpt,k,0.8343,noRew,,,,,,0,49,0,49,0,1,,,,,,,,,,,,,,,,,
297583,2022-11-15_13h55.12.038,vts_reward_expectancy_bt,2022.2.4,MacIntel,60.0024001,Chrome,1680,1050,,,,,0,773,,,,,,,,,,,,,,,,,181,Y,star,1,0,,,,,,,,,,,,,,,,repeat,letter,lettRpt,k,0.8944,noRew,,,,,,0,50,0,50,0,1,,,,,,,,,,,,,,,,,
297583,2022-11-15_13h55.12.038,vts_reward_expectancy_bt,2022.2.4,MacIntel,60.0024001,Chrome,1680,1050,,,,,0,773,,,,,,,,,,,,,,,,,146,H,triangle,1,0,,,,,,,,,,,,,,,,switch,number,numSwt,d,0.8525,noRew,,,,,,0,51,0,51,0,1,,,,,,,,,,,,,,,,,
297583,2022-11-15_13h55.12.038,vts_reward_expectancy_bt,2022.2.4,MacIntel,60.0024001,Chrome,1680,1050,,,,,0,773,,,,,,,,,,,,,,,,,146,Y,triangle,1,0,,,,,,,,,,,,,,,,repeat,number,numRpt,d,0.7407,noRew,,,,,,0,52,0,52,0,1,,,,,,,,,,,,,,,,,
297583,2022-11-15_13h55.12.038,vts_reward_expectancy_bt,2022.2.4,MacIntel,60.0024001,Chrome,1680,1050,,,,,0,773,,,,,,,,,,,,,,,,,139,U,circle,1,0,,,,,,,,,,,,,,,,switch,letter,lettSwt,k,0.9775,noRew,,,,,,0,53,0,53,0,1,,,,,,,,,,,,,,,,,
297583,2022-11-15_13h55.12.038,vts_reward_expectancy_bt,2022.2.4,MacIntel,60.0024001,Chrome,1680,1050,,,,,0,773,,,,,,,,,,,,,,,,,160,D,triangle,1,0,,,,,,,,,,,,,,,,switch,number,numSwt,f,0.7768,noRew,,,,,,0,54,0,54,0,1,,,,,,,,,,,,,,,,,
297583,2022-11-15_13h55.12.038,vts_reward_expectancy_bt,2022.2.4,MacIntel,60.0024001,Chrome,1680,1050,,,,,0,773,,,,,,,,,,,,,,,,,174,F,circle,1,0,,,,,,,,,,,,,,,,repeat,number,numRpt,f,0.8634,noRew,,,,,,0,55,0,55,0,1,,,,,,,,,,,,,,,,,
297583,2022-11-15_13h55.12.038,vts_reward_expectancy_bt,2022.2.4,MacIntel,60.0024001,Chrome,1680,1050,,,,,0,773,,,,,,,,,,,,,,,,,132,H,hexagon,1,0,,,,,,,,,,,,,,,,switch,letter,lettSwt,j,1.6327,noRew,,,,,,0,56,0,56,0,1,,,,,,,,,,,,,,,,,
297583,2022-11-15_13h55.12.038,vts_reward_expectancy_bt,2022.2.4,MacIntel,60.0024001,Chrome,1680,1050,,,,,0,773,,,,,,,,,,,,,,,,,146,Y,star,1,0,,,,,,,,,,,,,,,,repeat,letter,lettRpt,k,0.7923,noRew,,,,,,0,57,0,57,0,1,,,,,,,,,,,,,,,,,
297583,2022-11-15_13h55.12.038,vts_reward_expectancy_bt,2022.2.4,MacIntel,60.0024001,Chrome,1680,1050,,,,,0,773,,,,,,,,,,,,,,,,,167,D,hexagon,0,0,,,,,,,,,,,,,,,,switch,number,NA,d,1.843,noRew,,,,,,0,58,0,58,0,1,,,,,,,,,,,,,,,,,
297583,2022-11-15_13h55.12.038,vts_reward_expectancy_bt,2022.2.4,MacIntel,60.0024001,Chrome,1680,1050,,,,,0,773,,,,,,,,,,,,,,,,,174,W,star,1,1,,,,,,,,,,,,,,,,repeat,number,numRpt,f,2.2904,noRew,,,,,,0,59,0,59,0,1,,,,,,,,,,,,,,,,,
297583,2022-11-15_13h55.12.038,vts_reward_expectancy_bt,2022.2.4,MacIntel,60.0024001,Chrome,1680,1050,,,,,0,773,,,,,,,,,,,,,,,,,181,U,circle,1,0,,,,,,,,,,,,,,,,repeat,number,numRpt,f,1.55,noRew,,,,,,0,60,0,60,0,1,,,,,,,,,,,,,,,,,
297583,2022-11-15_13h55.12.038,vts_reward_expectancy_bt,2022.2.4,MacIntel,60.0024001,Chrome,1680,1050,,,,,0,773,,,,,,,,,,,,,,,,,139,D,hexagon,1,0,,,,,,,,,,,,,,,,repeat,number,numRpt,d,1.4792,noRew,,,,,,0,61,0,61,0,1,,,,,,,,,,,,,,,,,
297583,2022-11-15_13h55.12.038,vts_reward_expectancy_bt,2022.2.4,MacIntel,60.0024001,Chrome,1680,1050,,,,,0,773,,,,,,,,,,,,,,,,,167,H,triangle,1,0,,,,,,,,,,,,,,,,switch,letter,lettSwt,j,2.2123,noRew,,,,,,0,62,0,62,0,1,,,,,,,,,,,,,,,,,
297583,2022-11-15_13h55.12.038,vts_reward_expectancy_bt,2022.2.4,MacIntel,60.0024001,Chrome,1680,1050,,,,,0,773,,,,,,,,,,,,,,,,,174,S,hexagon,1,0,,,,,,,,,,,,,,,,switch,number,numSwt,f,1.9487,noRew,,,,,,0,63,0,63,0,1,,,,,,,,,,,,,,,,,
297583,2022-11-15_13h55.12.038,vts_reward_expectancy_bt,2022.2.4,MacIntel,60.0024001,Chrome,1680,1050,,,,,,,,,,,,,,,,,,,,,,,,,,,,,,,,,,,,,,,,,,,,,,,,,,,,,,,,,,,,,,,,,,,,,,,,,,,,
297583,2022-11-15_13h55.12.038,vts_reward_expectancy_bt,2022.2.4,MacIntel,60.0024001,Chrome,1680,1050,,,,,0,773,,,,,,,,,,,,,,,,,139,H,circle,1,0,,,,,,,,,,,,,,,,repeat,number,numRpt,d,1.0521,Hi,,,,,,0,,,,,,space,13.6037,high,0,0,0,0,1,,,,,,,,,
297583,2022-11-15_13h55.12.038,vts_reward_expectancy_bt,2022.2.4,MacIntel,60.0024001,Chrome,1680,1050,,,,,1,774,,,,,,,,,,,,,,,,,167,Y,star,1,0,,,,,,,,,,,,,,,,switch,letter,lettSwt,k,0.7071,Lo,,,,,,0,,,,,,,,high,1,0,1,0,1,,,,,,,,,
297583,2022-11-15_13h55.12.038,vts_reward_expectancy_bt,2022.2.4,MacIntel,60.0024001,Chrome,1680,1050,,,,,10,784,,,,,,,,,,,,,,,,,174,W,triangle,1,0,,,,,,,,,,,,,,,,switch,number,numSwt,f,0.6055,Hi,,,,,,0,,,,,,,,high,2,0,2,0,1,,,,,,,,,
297583,2022-11-15_13h55.12.038,vts_reward_expectancy_bt,2022.2.4,MacIntel,60.0024001,Chrome,1680,1050,,,,,10,794,,,,,,,,,,,,,,,,,146,U,hexagon,1,0,,,,,,,,,,,,,,,,switch,letter,lettSwt,k,0.4877,Lo,,,,,,0,,,,,,,,high,3,0,3,0,1,,,,,,,,,
297583,2022-11-15_13h55.12.038,vts_reward_expectancy_bt,2022.2.4,MacIntel,60.0024001,Chrome,1680,1050,,,,,0,794,,,,,,,,,,,,,,,,,160,D,circle,0,0,,,,,,,,,,,,,,,,repeat,letter,NA,k,0.5388,Lo,,,,,,0,,,,,,,,high,4,0,4,0,1,,,,,,,,,
297583,2022-11-15_13h55.12.038,vts_reward_expectancy_bt,2022.2.4,MacIntel,60.0024001,Chrome,1680,1050,,,,,1,795,,,,,,,,,,,,,,,,,181,S,star,1,1,,,,,,,,,,,,,,,,switch,number,numSwt,f,0.6453,Lo,,,,,,0,,,,,,,,high,5,0,5,0,1,,,,,,,,,
297583,2022-11-15_13h55.12.038,vts_reward_expectancy_bt,2022.2.4,MacIntel,60.0024001,Chrome,1680,1050,,,,,10,805,,,,,,,,,,,,,,,,,125,B,triangle,1,0,,,,,,,,,,,,,,,,switch,letter,lettSwt,j,0.5836,Hi,,,,,,0,,,,,,,,high,6,0,6,0,1,,,,,,,,,
297583,2022-11-15_13h55.12.038,vts_reward_expectancy_bt,2022.2.4,MacIntel,60.0024001,Chrome,1680,1050,,,,,0,805,,,,,,,,,,,,,,,,,132,F,hexagon,0,0,,,,,,,,,,,,,,,,repeat,letter,NA,k,0.4894,Hi,,,,,,0,,,,,,,,high,7,0,7,0,1,,,,,,,,,
297583,2022-11-15_13h55.12.038,vts_reward_expectancy_bt,2022.2.4,MacIntel,60.0024001,Chrome,1680,1050,,,,,1,806,,,,,,,,,,,,,,,,,139,H,circle,1,1,,,,,,,,,,,,,,,,switch,number,numSwt,d,0.5096,Hi,,,,,,0,,,,,,,,high,8,0,8,0,1,,,,,,,,,
297583,2022-11-15_13h55.12.038,vts_reward_expectancy_bt,2022.2.4,MacIntel,60.0024001,Chrome,1680,1050,,,,,10,816,,,,,,,,,,,,,,,,,167,Y,star,1,0,,,,,,,,,,,,,,,,repeat,number,numRpt,f,0.6018,Lo,,,,,,0,,,,,,,,high,9,0,9,0,1,,,,,,,,,
297583,2022-11-15_13h55.12.038,vts_reward_expectancy_bt,2022.2.4,MacIntel,60.0024001,Chrome,1680,1050,,,,,10,826,,,,,,,,,,,,,,,,,174,W,triangle,1,0,,,,,,,,,,,,,,,,switch,letter,lettSwt,k,0.5398,Hi,,,,,,0,,,,,,,,high,10,0,10,0,1,,,,,,,,,
297583,2022-11-15_13h55.12.038,vts_reward_expectancy_bt,2022.2.4,MacIntel,60.0024001,Chrome,1680,1050,,,,,1,827,,,,,,,,,,,,,,,,,146,U,hexagon,1,0,,,,,,,,,,,,,,,,switch,number,numSwt,d,0.6613,Lo,,,,,,0,,,,,,,,high,11,0,11,0,1,,,,,,,,,
297583,2022-11-15_13h55.12.038,vts_reward_expectancy_bt,2022.2.4,MacIntel,60.0024001,Chrome,1680,1050,,,,,1,828,,,,,,,,,,,,,,,,,160,D,star,1,0,,,,,,,,,,,,,,,,switch,letter,lettSwt,j,0.5342,Lo,,,,,,0,,,,,,,,high,12,0,12,0,1,,,,,,,,,
297583,2022-11-15_13h55.12.038,vts_reward_expectancy_bt,2022.2.4,MacIntel,60.0024001,Chrome,1680,1050,,,,,10,838,,,,,,,,,,,,,,,,,181,S,circle,1,0,,,,,,,,,,,,,,,,switch,number,numSwt,f,0.51,Hi,,,,,,0,,,,,,,,high,13,0,13,0,1,,,,,,,,,
297583,2022-11-15_13h55.12.038,vts_reward_expectancy_bt,2022.2.4,MacIntel,60.0024001,Chrome,1680,1050,,,,,1,839,,,,,,,,,,,,,,,,,125,B,triangle,1,0,,,,,,,,,,,,,,,,repeat,number,numRpt,d,0.5452,Hi,,,,,,0,,,,,,,,high,14,0,14,0,1,,,,,,,,,
297583,2022-11-15_13h55.12.038,vts_reward_expectancy_bt,2022.2.4,MacIntel,60.0024001,Chrome,1680,1050,,,,,1,840,,,,,,,,,,,,,,,,,132,F,hexagon,1,0,,,,,,,,,,,,,,,,switch,letter,lettSwt,j,0.5936,Lo,,,,,,0,,,,,,,,high,15,0,15,0,1,,,,,,,,,
297583,2022-11-15_13h55.12.038,vts_reward_expectancy_bt,2022.2.4,MacIntel,60.0024001,Chrome,1680,1050,,,,,0,840,,,,,,,,,,,,,,,,,132,U,triangle,1,0,,,,,,,,,,,,,,,,repeat,letter,lettRpt,k,0.8375,Hi,,,,,,0,,,,,,,,high,16,0,16,0,1,,,,,,,,,
297583,2022-11-15_13h55.12.038,vts_reward_expectancy_bt,2022.2.4,MacIntel,60.0024001,Chrome,1680,1050,,,,,10,850,,,,,,,,,,,,,,,,,181,Y,star,1,0,,,,,,,,,,,,,,,,repeat,letter,lettRpt,k,0.6571,Lo,,,,,,0,,,,,,,,high,17,0,17,0,1,,,,,,,,,
297583,2022-11-15_13h55.12.038,vts_reward_expectancy_bt,2022.2.4,MacIntel,60.0024001,Chrome,1680,1050,,,,,10,860,,,,,,,,,,,,,,,,,167,B,circle,1,0,,,,,,,,,,,,,,,,switch,number,numSwt,f,0.4889,Hi,,,,,,0,,,,,,,,high,18,0,18,0,1,,,,,,,,,
297583,2022-11-15_13h55.12.038,vts_reward_expectancy_bt,2022.2.4,MacIntel,60.0024001,Chrome,1680,1050,,,,,1,861,,,,,,,,,,,,,,,,,160,W,hexagon,1,0,,,,,,,,,,,,,,,,repeat,number,numRpt,f,0.5698,Lo,,,,,,0,,,,,,,,high,19,0,19,0,1,,,,,,,,,
297583,2022-11-15_13h55.12.038,vts_reward_expectancy_bt,2022.2.4,MacIntel,60.0024001,Chrome,1680,1050,,,,,10,871,,,,,,,,,,,,,,,,,139,H,triangle,1,0,,,,,,,,,,,,,,,,switch,letter,lettSwt,j,0.5764,Hi,,,,,,0,,,,,,,,high,20,0,20,0,1,,,,,,,,,
297583,2022-11-15_13h55.12.038,vts_reward_expectancy_bt,2022.2.4,MacIntel,60.0024001,Chrome,1680,1050,,,,,1,872,,,,,,,,,,,,,,,,,174,S,hexagon,1,0,,,,,,,,,,,,,,,,repeat,letter,lettRpt,k,0.5642,Lo,,,,,,0,,,,,,,,high,21,0,21,0,1,,,,,,,,,
297583,2022-11-15_13h55.12.038,vts_reward_expectancy_bt,2022.2.4,MacIntel,60.0024001,Chrome,1680,1050,,,,,10,882,,,,,,,,,,,,,,,,,146,D,star,1,0,,,,,,,,,,,,,,,,switch,number,numSwt,d,0.5419,Lo,,,,,,0,,,,,,,,high,22,0,22,0,1,,,,,,,,,
297583,2022-11-15_13h55.12.038,vts_reward_expectancy_bt,2022.2.4,MacIntel,60.0024001,Chrome,1680,1050,,,,,10,892,,,,,,,,,,,,,,,,,125,F,circle,1,0,,,,,,,,,,,,,,,,switch,letter,lettSwt,j,0.7127,Hi,,,,,,0,,,,,,,,high,23,0,23,0,1,,,,,,,,,
297583,2022-11-15_13h55.12.038,vts_reward_expectancy_bt,2022.2.4,MacIntel,60.0024001,Chrome,1680,1050,,,,,10,902,,,,,,,,,,,,,,,,,146,F,triangle,1,0,,,,,,,,,,,,,,,,switch,number,numSwt,d,0.63,Hi,,,,,,0,,,,,,,,high,24,0,24,0,1,,,,,,,,,
297583,2022-11-15_13h55.12.038,vts_reward_expectancy_bt,2022.2.4,MacIntel,60.0024001,Chrome,1680,1050,,,,,1,903,,,,,,,,,,,,,,,,,160,Y,star,1,0,,,,,,,,,,,,,,,,switch,letter,lettSwt,k,0.5404,Lo,,,,,,0,,,,,,,,high,25,0,25,0,1,,,,,,,,,
297583,2022-11-15_13h55.12.038,vts_reward_expectancy_bt,2022.2.4,MacIntel,60.0024001,Chrome,1680,1050,,,,,10,913,,,,,,,,,,,,,,,,,132,W,circle,1,0,,,,,,,,,,,,,,,,switch,number,numSwt,d,0.5508,Hi,,,,,,0,,,,,,,,high,26,0,26,0,1,,,,,,,,,
297583,2022-11-15_13h55.12.038,vts_reward_expectancy_bt,2022.2.4,MacIntel,60.0024001,Chrome,1680,1050,,,,,1,914,,,,,,,,,,,,,,,,,181,D,hexagon,1,0,,,,,,,,,,,,,,,,repeat,number,numRpt,f,0.7427,Lo,,,,,,0,,,,,,,,high,27,0,27,0,1,,,,,,,,,
297583,2022-11-15_13h55.12.038,vts_reward_expectancy_bt,2022.2.4,MacIntel,60.0024001,Chrome,1680,1050,,,,,10,924,,,,,,,,,,,,,,,,,174,H,circle,1,0,,,,,,,,,,,,,,,,repeat,number,numRpt,f,0.6287,Hi,,,,,,0,,,,,,,,high,28,0,28,0,1,,,,,,,,,
297583,2022-11-15_13h55.12.038,vts_reward_expectancy_bt,2022.2.4,MacIntel,60.0024001,Chrome,1680,1050,,,,,10,934,,,,,,,,,,,,,,,,,125,B,triangle,1,0,,,,,,,,,,,,,,,,switch,letter,lettSwt,j,0.6469,Hi,,,,,,0,,,,,,,,high,29,0,29,0,1,,,,,,,,,
297583,2022-11-15_13h55.12.038,vts_reward_expectancy_bt,2022.2.4,MacIntel,60.0024001,Chrome,1680,1050,,,,,1,935,,,,,,,,,,,,,,,,,167,S,hexagon,1,0,,,,,,,,,,,,,,,,repeat,letter,lettRpt,k,0.5154,Lo,,,,,,0,,,,,,,,high,30,0,30,0,1,,,,,,,,,
297583,2022-11-15_13h55.12.038,vts_reward_expectancy_bt,2022.2.4,MacIntel,60.0024001,Chrome,1680,1050,,,,,1,936,,,,,,,,,,,,,,,,,139,U,star,1,0,,,,,,,,,,,,,,,,repeat,letter,lettRpt,k,0.7298,Lo,,,,,,0,,,,,,,,high,31,0,31,0,1,,,,,,,,,
297583,2022-11-15_13h55.12.038,vts_reward_expectancy_bt,2022.2.4,MacIntel,60.0024001,Chrome,1680,1050,,,,,0,936,,,,,,,,,,,,,,,,,139,U,circle,1,0,,,,,,,,,,,,,,,,switch,number,numSwt,d,0.6184,Hi,,,,,,1,,,,,,space,3.5596,high,0,0,0,0,1,,,,,,,,,
297583,2022-11-15_13h55.12.038,vts_reward_expectancy_bt,2022.2.4,MacIntel,60.0024001,Chrome,1680,1050,,,,,1,937,,,,,,,,,,,,,,,,,160,S,star,1,0,,,,,,,,,,,,,,,,repeat,number,numRpt,f,0.5599,Lo,,,,,,1,,,,,,,,high,1,0,1,0,1,,,,,,,,,
297583,2022-11-15_13h55.12.038,vts_reward_expectancy_bt,2022.2.4,MacIntel,60.0024001,Chrome,1680,1050,,,,,0,937,,,,,,,,,,,,,,,,,174,W,triangle,1,0,,,,,,,,,,,,,,,,repeat,number,numRpt,f,0.6135,Hi,,,,,,1,,,,,,,,high,2,0,2,0,1,,,,,,,,,
297583,2022-11-15_13h55.12.038,vts_reward_expectancy_bt,2022.2.4,MacIntel,60.0024001,Chrome,1680,1050,,,,,1,938,,,,,,,,,,,,,,,,,125,F,hexagon,1,0,,,,,,,,,,,,,,,,repeat,number,numRpt,d,0.556,Lo,,,,,,1,,,,,,,,high,3,0,3,0,1,,,,,,,,,
297583,2022-11-15_13h55.12.038,vts_reward_expectancy_bt,2022.2.4,MacIntel,60.0024001,Chrome,1680,1050,,,,,0,938,,,,,,,,,,,,,,,,,132,D,circle,0,0,,,,,,,,,,,,,,,,repeat,number,NA,f,0.6086,Lo,,,,,,1,,,,,,,,high,4,0,4,0,1,,,,,,,,,
297583,2022-11-15_13h55.12.038,vts_reward_expectancy_bt,2022.2.4,MacIntel,60.0024001,Chrome,1680,1050,,,,,1,939,,,,,,,,,,,,,,,,,167,H,star,1,1,,,,,,,,,,,,,,,,repeat,number,numRpt,f,0.6616,Lo,,,,,,1,,,,,,,,high,5,0,5,0,1,,,,,,,,,
297583,2022-11-15_13h55.12.038,vts_reward_expectancy_bt,2022.2.4,MacIntel,60.0024001,Chrome,1680,1050,,,,,10,949,,,,,,,,,,,,,,,,,181,B,triangle,1,0,,,,,,,,,,,,,,,,switch,letter,lettSwt,j,0.5161,Hi,,,,,,1,,,,,,,,high,6,0,6,0,1,,,,,,,,,
297583,2022-11-15_13h55.12.038,vts_reward_expectancy_bt,2022.2.4,MacIntel,60.0024001,Chrome,1680,1050,,,,,10,959,,,,,,,,,,,,,,,,,146,Y,hexagon,1,0,,,,,,,,,,,,,,,,repeat,letter,lettRpt,k,0.5884,Lo,,,,,,1,,,,,,,,high,7,0,7,0,1,,,,,,,,,
297583,2022-11-15_13h55.12.038,vts_reward_expectancy_bt,2022.2.4,MacIntel,60.0024001,Chrome,1680,1050,,,,,0,959,,,,,,,,,,,,,,,,,139,U,circle,1,0,,,,,,,,,,,,,,,,repeat,letter,lettRpt,k,0.6431,Hi,,,,,,1,,,,,,,,high,8,0,8,0,1,,,,,,,,,
297583,2022-11-15_13h55.12.038,vts_reward_expectancy_bt,2022.2.4,MacIntel,60.0024001,Chrome,1680,1050,,,,,1,960,,,,,,,,,,,,,,,,,160,S,star,1,0,,,,,,,,,,,,,,,,switch,number,numSwt,f,0.5087,Lo,,,,,,1,,,,,,,,high,9,0,9,0,1,,,,,,,,,
297583,2022-11-15_13h55.12.038,vts_reward_expectancy_bt,2022.2.4,MacIntel,60.0024001,Chrome,1680,1050,,,,,10,970,,,,,,,,,,,,,,,,,174,W,triangle,1,0,,,,,,,,,,,,,,,,repeat,number,numRpt,f,0.4573,Hi,,,,,,1,,,,,,,,high,10,0,10,0,1,,,,,,,,,
297583,2022-11-15_13h55.12.038,vts_reward_expectancy_bt,2022.2.4,MacIntel,60.0024001,Chrome,1680,1050,,,,,1,971,,,,,,,,,,,,,,,,,125,F,hexagon,1,0,,,,,,,,,,,,,,,,switch,letter,lettSwt,j,0.6467,Lo,,,,,,1,,,,,,,,high,11,0,11,0,1,,,,,,,,,
297583,2022-11-15_13h55.12.038,vts_reward_expectancy_bt,2022.2.4,MacIntel,60.0024001,Chrome,1680,1050,,,,,1,972,,,,,,,,,,,,,,,,,132,D,circle,1,0,,,,,,,,,,,,,,,,repeat,letter,lettRpt,j,0.5419,Hi,,,,,,1,,,,,,,,high,12,0,12,0,1,,,,,,,,,
297583,2022-11-15_13h55.12.038,vts_reward_expectancy_bt,2022.2.4,MacIntel,60.0024001,Chrome,1680,1050,,,,,0,972,,,,,,,,,,,,,,,,,167,H,star,0,0,,,,,,,,,,,,,,,,repeat,letter,NA,k,0.5739,Hi,,,,,,1,,,,,,,,high,13,0,13,0,1,,,,,,,,,
297583,2022-11-15_13h55.12.038,vts_reward_expectancy_bt,2022.2.4,MacIntel,60.0024001,Chrome,1680,1050,,,,,10,982,,,,,,,,,,,,,,,,,181,B,triangle,1,1,,,,,,,,,,,,,,,,switch,number,numSwt,f,0.5296,Hi,,,,,,1,,,,,,,,high,14,0,14,0,1,,,,,,,,,
297583,2022-11-15_13h55.12.038,vts_reward_expectancy_bt,2022.2.4,MacIntel,60.0024001,Chrome,1680,1050,,,,,1,983,,,,,,,,,,,,,,,,,146,Y,hexagon,1,0,,,,,,,,,,,,,,,,repeat,number,numRpt,d,0.5436,Lo,,,,,,1,,,,,,,,high,15,0,15,0,1,,,,,,,,,
297583,2022-11-15_13h55.12.038,vts_reward_expectancy_bt,2022.2.4,MacIntel,60.0024001,Chrome,1680,1050,,,,,0,983,,,,,,,,,,,,,,,,,125,H,star,0,0,,,,,,,,,,,,,,,,switch,letter,NA,k,0.5432,Lo,,,,,,1,,,,,,,,high,16,0,16,0,1,,,,,,,,,
297583,2022-11-15_13h55.12.038,vts_reward_expectancy_bt,2022.2.4,MacIntel,60.0024001,Chrome,1680,1050,,,,,0,983,,,,,,,,,,,,,,,,,132,S,circle,0,1,,,,,,,,,,,,,,,,repeat,letter,NA,j,0.4313,Lo,,,,,,1,,,,,,,,high,17,0,17,0,1,,,,,,,,,
297583,2022-11-15_13h55.12.038,vts_reward_expectancy_bt,2022.2.4,MacIntel,60.0024001,Chrome,1680,1050,,,,,1,984,,,,,,,,,,,,,,,,,174,D,hexagon,1,1,,,,,,,,,,,,,,,,switch,number,numSwt,f,0.5829,Lo,,,,,,1,,,,,,,,high,18,0,18,0,1,,,,,,,,,
297583,2022-11-15_13h55.12.038,vts_reward_expectancy_bt,2022.2.4,MacIntel,60.0024001,Chrome,1680,1050,,,,,0,984,,,,,,,,,,,,,,,,,167,B,triangle,1,0,,,,,,,,,,,,,,,,switch,letter,lettSwt,j,0.5457,Hi,,,,,,1,,,,,,,,high,19,0,19,0,1,,,,,,,,,
297583,2022-11-15_13h55.12.038,vts_reward_expectancy_bt,2022.2.4,MacIntel,60.0024001,Chrome,1680,1050,,,,,0,984,,,,,,,,,,,,,,,,,146,U,hexagon,0,0,,,,,,,,,,,,,,,,repeat,letter,NA,j,0.4977,Hi,,,,,,1,,,,,,,,high,20,0,20,0,1,,,,,,,,,
297583,2022-11-15_13h55.12.038,vts_reward_expectancy_bt,2022.2.4,MacIntel,60.0024001,Chrome,1680,1050,,,,,1,985,,,,,,,,,,,,,,,,,160,Y,star,1,1,,,,,,,,,,,,,,,,repeat,letter,lettRpt,k,0.3756,Lo,,,,,,1,,,,,,,,high,21,0,21,0,1,,,,,,,,,
297583,2022-11-15_13h55.12.038,vts_reward_expectancy_bt,2022.2.4,MacIntel,60.0024001,Chrome,1680,1050,,,,,1,986,,,,,,,,,,,,,,,,,139,F,circle,1,0,,,,,,,,,,,,,,,,repeat,letter,lettRpt,j,0.4457,Hi,,,,,,1,,,,,,,,high,22,0,22,0,1,,,,,,,,,
297583,2022-11-15_13h55.12.038,vts_reward_expectancy_bt,2022.2.4,MacIntel,60.0024001,Chrome,1680,1050,,,,,1,987,,,,,,,,,,,,,,,,,181,W,triangle,1,0,,,,,,,,,,,,,,,,switch,number,numSwt,f,0.4612,Hi,,,,,,1,,,,,,,,high,23,0,23,0,1,,,,,,,,,
297583,2022-11-15_13h55.12.038,vts_reward_expectancy_bt,2022.2.4,MacIntel,60.0024001,Chrome,1680,1050,,,,,1,988,,,,,,,,,,,,,,,,,167,B,star,1,0,,,,,,,,,,,,,,,,repeat,number,numRpt,f,0.4945,Lo,,,,,,1,,,,,,,,high,24,0,24,0,1,,,,,,,,,
297583,2022-11-15_13h55.12.038,vts_reward_expectancy_bt,2022.2.4,MacIntel,60.0024001,Chrome,1680,1050,,,,,1,989,,,,,,,,,,,,,,,,,125,S,hexagon,1,0,,,,,,,,,,,,,,,,repeat,number,numRpt,d,0.384,Lo,,,,,,1,,,,,,,,high,25,0,25,0,1,,,,,,,,,
297583,2022-11-15_13h55.12.038,vts_reward_expectancy_bt,2022.2.4,MacIntel,60.0024001,Chrome,1680,1050,,,,,0,989,,,,,,,,,,,,,,,,,160,U,circle,1,0,,,,,,,,,,,,,,,,switch,letter,lettSwt,k,0.6286,Hi,,,,,,1,,,,,,,,high,26,0,26,0,1,,,,,,,,,
297583,2022-11-15_13h55.12.038,vts_reward_expectancy_bt,2022.2.4,MacIntel,60.0024001,Chrome,1680,1050,,,,,10,999,,,,,,,,,,,,,,,,,174,H,triangle,1,0,,,,,,,,,,,,,,,,switch,number,numSwt,f,0.5095,Hi,,,,,,1,,,,,,,,high,27,0,27,0,1,,,,,,,,,
297583,2022-11-15_13h55.12.038,vts_reward_expectancy_bt,2022.2.4,MacIntel,60.0024001,Chrome,1680,1050,,,,,10,1009,,,,,,,,,,,,,,,,,139,F,hexagon,1,0,,,,,,,,,,,,,,,,switch,letter,lettSwt,j,0.4658,Lo,,,,,,1,,,,,,,,high,28,0,28,0,1,,,,,,,,,
297583,2022-11-15_13h55.12.038,vts_reward_expectancy_bt,2022.2.4,MacIntel,60.0024001,Chrome,1680,1050,,,,,0,1009,,,,,,,,,,,,,,,,,146,D,triangle,0,0,,,,,,,,,,,,,,,,switch,number,NA,f,0.4905,Lo,,,,,,1,,,,,,,,high,29,0,29,0,1,,,,,,,,,
297583,2022-11-15_13h55.12.038,vts_reward_expectancy_bt,2022.2.4,MacIntel,60.0024001,Chrome,1680,1050,,,,,10,1019,,,,,,,,,,,,,,,,,181,Y,circle,1,1,,,,,,,,,,,,,,,,repeat,number,numRpt,f,0.4481,Hi,,,,,,1,,,,,,,,high,30,0,30,0,1,,,,,,,,,
297583,2022-11-15_13h55.12.038,vts_reward_expectancy_bt,2022.2.4,MacIntel,60.0024001,Chrome,1680,1050,,,,,1,1020,,,,,,,,,,,,,,,,,132,W,star,1,0,,,,,,,,,,,,,,,,switch,letter,lettSwt,k,0.4445,Lo,,,,,,1,,,,,,,,high,31,0,31,0,1,,,,,,,,,
297583,2022-11-15_13h55.12.038,vts_reward_expectancy_bt,2022.2.4,MacIntel,60.0024001,Chrome,1680,1050,,,,,0,1020,,,,,,,,,,,,,,,,,125,D,triangle,1,0,,,,,,,,,,,,,,,,switch,number,numSwt,d,0.6441,Hi,,,,,,2,,,,,,space,1.3823,high,0,0,0,0,1,,,,,,,,,
297583,2022-11-15_13h55.12.038,vts_reward_expectancy_bt,2022.2.4,MacIntel,60.0024001,Chrome,1680,1050,,,,,1,1021,,,,,,,,,,,,,,,,,181,F,hexagon,1,0,,,,,,,,,,,,,,,,repeat,number,numRpt,f,0.5625,Lo,,,,,,2,,,,,,,,high,1,0,1,0,1,,,,,,,,,
297583,2022-11-15_13h55.12.038,vts_reward_expectancy_bt,2022.2.4,MacIntel,60.0024001,Chrome,1680,1050,,,,,0,1021,,,,,,,,,,,,,,,,,132,U,circle,1,0,,,,,,,,,,,,,,,,repeat,number,numRpt,d,0.5096,Hi,,,,,,2,,,,,,,,high,2,0,2,0,1,,,,,,,,,
297583,2022-11-15_13h55.12.038,vts_reward_expectancy_bt,2022.2.4,MacIntel,60.0024001,Chrome,1680,1050,,,,,10,1031,,,,,,,,,,,,,,,,,160,S,star,1,0,,,,,,,,,,,,,,,,switch,letter,lettSwt,k,0.5434,Lo,,,,,,2,,,,,,,,high,3,0,3,0,1,,,,,,,,,
297583,2022-11-15_13h55.12.038,vts_reward_expectancy_bt,2022.2.4,MacIntel,60.0024001,Chrome,1680,1050,,,,,0,1031,,,,,,,,,,,,,,,,,174,Y,triangle,1,0,,,,,,,,,,,,,,,,switch,number,numSwt,f,0.5433,Hi,,,,,,2,,,,,,,,high,4,0,4,0,1,,,,,,,,,
297583,2022-11-15_13h55.12.038,vts_reward_expectancy_bt,2022.2.4,MacIntel,60.0024001,Chrome,1680,1050,,,,,0,1031,,,,,,,,,,,,,,,,,146,B,hexagon,0,0,,,,,,,,,,,,,,,,repeat,number,NA,f,0.5678,Hi,,,,,,2,,,,,,,,high,5,0,5,0,1,,,,,,,,,
297583,2022-11-15_13h55.12.038,vts_reward_expectancy_bt,2022.2.4,MacIntel,60.0024001,Chrome,1680,1050,,,,,0,1031,,,,,,,,,,,,,,,,,139,H,circle,1,1,,,,,,,,,,,,,,,,switch,letter,lettSwt,j,0.5305,Hi,,,,,,2,,,,,,,,high,6,0,6,0,1,,,,,,,,,
297583,2022-11-15_13h55.12.038,vts_reward_expectancy_bt,2022.2.4,MacIntel,60.0024001,Chrome,1680,1050,,,,,0,1031,,,,,,,,,,,,,,,,,167,W,star,0,0,,,,,,,,,,,,,,,,repeat,letter,NA,j,0.668,Hi,,,,,,2,,,,,,,,high,7,0,7,0,1,,,,,,,,,
297583,2022-11-15_13h55.12.038,vts_reward_expectancy_bt,2022.2.4,MacIntel,60.0024001,Chrome,1680,1050,,,,,10,1041,,,,,,,,,,,,,,,,,125,D,triangle,1,1,,,,,,,,,,,,,,,,repeat,letter,lettRpt,j,0.4573,Hi,,,,,,2,,,,,,,,high,8,0,8,0,1,,,,,,,,,
297583,2022-11-15_13h55.12.038,vts_reward_expectancy_bt,2022.2.4,MacIntel,60.0024001,Chrome,1680,1050,,,,,0,1041,,,,,,,,,,,,,,,,,181,F,circle,0,0,,,,,,,,,,,,,,,,repeat,letter,NA,k,0.4109,Hi,,,,,,2,,,,,,,,high,9,0,9,0,1,,,,,,,,,
297583,2022-11-15_13h55.12.038,vts_reward_expectancy_bt,2022.2.4,MacIntel,60.0024001,Chrome,1680,1050,,,,,0,1041,,,,,,,,,,,,,,,,,132,U,star,0,1,,,,,,,,,,,,,,,,switch,number,NA,f,0.4427,Hi,,,,,,2,,,,,,,,high,10,0,10,0,1,,,,,,,,,
297583,2022-11-15_13h55.12.038,vts_reward_expectancy_bt,2022.2.4,MacIntel,60.0024001,Chrome,1680,1050,,,,,0,1041,,,,,,,,,,,,,,,,,160,S,hexagon,0,1,,,,,,,,,,,,,,,,repeat,number,NA,d,0.3845,Hi,,,,,,2,,,,,,,,high,11,0,11,0,1,,,,,,,,,
297583,2022-11-15_13h55.12.038,vts_reward_expectancy_bt,2022.2.4,MacIntel,60.0024001,Chrome,1680,1050,,,,,0,1041,,,,,,,,,,,,,,,,,174,Y,circle,1,1,,,,,,,,,,,,,,,,switch,letter,lettSwt,k,0.5419,Hi,,,,,,2,,,,,,,,high,12,0,12,0,1,,,,,,,,,
297583,2022-11-15_13h55.12.038,vts_reward_expectancy_bt,2022.2.4,MacIntel,60.0024001,Chrome,1680,1050,,,,,1,1042,,,,,,,,,,,,,,,,,146,B,hexagon,1,0,,,,,,,,,,,,,,,,switch,number,numSwt,d,0.5083,Lo,,,,,,2,,,,,,,,high,13,0,13,0,1,,,,,,,,,
297583,2022-11-15_13h55.12.038,vts_reward_expectancy_bt,2022.2.4,MacIntel,60.0024001,Chrome,1680,1050,,,,,0,1042,,,,,,,,,,,,,,,,,139,H,triangle,1,0,,,,,,,,,,,,,,,,repeat,number,numRpt,d,0.5658,Hi,,,,,,2,,,,,,,,high,14,0,14,0,1,,,,,,,,,
297583,2022-11-15_13h55.12.038,vts_reward_expectancy_bt,2022.2.4,MacIntel,60.0024001,Chrome,1680,1050,,,,,1,1043,,,,,,,,,,,,,,,,,167,W,star,1,0,,,,,,,,,,,,,,,,repeat,number,numRpt,f,0.5278,Lo,,,,,,2,,,,,,,,high,15,0,15,0,1,,,,,,,,,
297583,2022-11-15_13h55.12.038,vts_reward_expectancy_bt,2022.2.4,MacIntel,60.0024001,Chrome,1680,1050,,,,,10,1053,,,,,,,,,,,,,,,,,174,Y,triangle,1,0,,,,,,,,,,,,,,,,switch,letter,lettSwt,k,0.4977,Hi,,,,,,2,,,,,,,,high,16,0,16,0,1,,,,,,,,,
297583,2022-11-15_13h55.12.038,vts_reward_expectancy_bt,2022.2.4,MacIntel,60.0024001,Chrome,1680,1050,,,,,0,1053,,,,,,,,,,,,,,,,,139,W,star,0,0,,,,,,,,,,,,,,,,switch,number,NA,f,0.6462,Hi,,,,,,2,,,,,,,,high,17,0,17,0,1,,,,,,,,,
297583,2022-11-15_13h55.12.038,vts_reward_expectancy_bt,2022.2.4,MacIntel,60.0024001,Chrome,1680,1050,,,,,1,1054,,,,,,,,,,,,,,,,,160,D,hexagon,1,1,,,,,,,,,,,,,,,,repeat,number,numRpt,f,0.5954,Lo,,,,,,2,,,,,,,,high,18,0,18,0,1,,,,,,,,,
297583,2022-11-15_13h55.12.038,vts_reward_expectancy_bt,2022.2.4,MacIntel,60.0024001,Chrome,1680,1050,,,,,0,1054,,,,,,,,,,,,,,,,,167,F,circle,1,0,,,,,,,,,,,,,,,,switch,letter,lettSwt,j,0.5631,Hi,,,,,,2,,,,,,,,high,19,0,19,0,1,,,,,,,,,
297583,2022-11-15_13h55.12.038,vts_reward_expectancy_bt,2022.2.4,MacIntel,60.0024001,Chrome,1680,1050,,,,,1,1055,,,,,,,,,,,,,,,,,181,U,hexagon,1,0,,,,,,,,,,,,,,,,repeat,letter,lettRpt,k,0.5149,Lo,,,,,,2,,,,,,,,high,20,0,20,0,1,,,,,,,,,
297583,2022-11-15_13h55.12.038,vts_reward_expectancy_bt,2022.2.4,MacIntel,60.0024001,Chrome,1680,1050,,,,,0,1055,,,,,,,,,,,,,,,,,146,H,triangle,1,0,,,,,,,,,,,,,,,,repeat,letter,lettRpt,j,0.6325,Hi,,,,,,2,,,,,,,,high,21,0,21,0,1,,,,,,,,,
297583,2022-11-15_13h55.12.038,vts_reward_expectancy_bt,2022.2.4,MacIntel,60.0024001,Chrome,1680,1050,,,,,0,1055,,,,,,,,,,,,,,,,,132,S,circle,1,0,,,,,,,,,,,,,,,,repeat,letter,lettRpt,k,0.5116,Hi,,,,,,2,,,,,,,,high,22,0,22,0,1,,,,,,,,,
297583,2022-11-15_13h55.12.038,vts_reward_expectancy_bt,2022.2.4,MacIntel,60.0024001,Chrome,1680,1050,,,,,10,1065,,,,,,,,,,,,,,,,,125,B,star,1,0,,,,,,,,,,,,,,,,repeat,letter,lettRpt,j,0.5448,Lo,,,,,,2,,,,,,,,high,23,0,23,0,1,,,,,,,,,
297583,2022-11-15_13h55.12.038,vts_reward_expectancy_bt,2022.2.4,MacIntel,60.0024001,Chrome,1680,1050,,,,,10,1075,,,,,,,,,,,,,,,,,146,S,star,1,0,,,,,,,,,,,,,,,,repeat,letter,lettRpt,k,0.4299,Lo,,,,,,2,,,,,,,,high,24,0,24,0,1,,,,,,,,,
297583,2022-11-15_13h55.12.038,vts_reward_expectancy_bt,2022.2.4,MacIntel,60.0024001,Chrome,1680,1050,,,,,1,1076,,,,,,,,,,,,,,,,,174,U,circle,1,0,,,,,,,,,,,,,,,,repeat,letter,lettRpt,k,0.4657,Hi,,,,,,2,,,,,,,,high,25,0,25,0,1,,,,,,,,,
297583,2022-11-15_13h55.12.038,vts_reward_expectancy_bt,2022.2.4,MacIntel,60.0024001,Chrome,1680,1050,,,,,0,1076,,,,,,,,,,,,,,,,,160,W,triangle,0,0,,,,,,,,,,,,,,,,switch,number,NA,d,0.6115,Hi,,,,,,2,,,,,,,,high,26,0,26,0,1,,,,,,,,,
297583,2022-11-15_13h55.12.038,vts_reward_expectancy_bt,2022.2.4,MacIntel,60.0024001,Chrome,1680,1050,,,,,10,1086,,,,,,,,,,,,,,,,,181,B,hexagon,1,1,,,,,,,,,,,,,,,,repeat,number,numRpt,f,0.5067,Lo,,,,,,2,,,,,,,,high,27,0,27,0,1,,,,,,,,,
297583,2022-11-15_13h55.12.038,vts_reward_expectancy_bt,2022.2.4,MacIntel,60.0024001,Chrome,1680,1050,,,,,0,1086,,,,,,,,,,,,,,,,,139,D,circle,1,0,,,,,,,,,,,,,,,,repeat,number,numRpt,d,0.5407,Hi,,,,,,2,,,,,,,,high,28,0,28,0,1,,,,,,,,,
297583,2022-11-15_13h55.12.038,vts_reward_expectancy_bt,2022.2.4,MacIntel,60.0024001,Chrome,1680,1050,,,,,0,1086,,,,,,,,,,,,,,,,,167,H,triangle,1,0,,,,,,,,,,,,,,,,switch,letter,lettSwt,j,0.6909,Hi,,,,,,2,,,,,,,,high,29,0,29,0,1,,,,,,,,,
297583,2022-11-15_13h55.12.038,vts_reward_expectancy_bt,2022.2.4,MacIntel,60.0024001,Chrome,1680,1050,,,,,1,1087,,,,,,,,,,,,,,,,,125,F,star,1,0,,,,,,,,,,,,,,,,switch,number,numSwt,d,0.5351,Lo,,,,,,2,,,,,,,,high,30,0,30,0,1,,,,,,,,,
297583,2022-11-15_13h55.12.038,vts_reward_expectancy_bt,2022.2.4,MacIntel,60.0024001,Chrome,1680,1050,,,,,1,1088,,,,,,,,,,,,,,,,,132,Y,hexagon,1,0,,,,,,,,,,,,,,,,repeat,number,numRpt,d,0.6436,Lo,,,,,,2,,,,,,,,high,31,0,31,0,1,,,,,,,,,
297583,2022-11-15_13h55.12.038,vts_reward_expectancy_bt,2022.2.4,MacIntel,60.0024001,Chrome,1680,1050,,,,,10,1098,,,,,,,,,,,,,,,,,160,Y,circle,1,0,,,,,,,,,,,,,,,,repeat,number,numRpt,f,0.5101,Hi,,,,,,3,,,,,,space,0.9681,high,0,0,0,0,1,,,,,,,,,
297583,2022-11-15_13h55.12.038,vts_reward_expectancy_bt,2022.2.4,MacIntel,60.0024001,Chrome,1680,1050,,,,,10,1108,,,,,,,,,,,,,,,,,174,H,triangle,1,0,,,,,,,,,,,,,,,,repeat,number,numRpt,f,0.497,Hi,,,,,,3,,,,,,,,high,1,0,1,0,1,,,,,,,,,
297583,2022-11-15_13h55.12.038,vts_reward_expectancy_bt,2022.2.4,MacIntel,60.0024001,Chrome,1680,1050,,,,,1,1109,,,,,,,,,,,,,,,,,181,F,hexagon,1,0,,,,,,,,,,,,,,,,switch,letter,lettSwt,j,0.6462,Lo,,,,,,3,,,,,,,,high,2,0,2,0,1,,,,,,,,,
297583,2022-11-15_13h55.12.038,vts_reward_expectancy_bt,2022.2.4,MacIntel,60.0024001,Chrome,1680,1050,,,,,1,1110,,,,,,,,,,,,,,,,,139,D,star,1,0,,,,,,,,,,,,,,,,repeat,letter,lettRpt,j,0.5095,Lo,,,,,,3,,,,,,,,high,3,0,3,0,1,,,,,,,,,
297583,2022-11-15_13h55.12.038,vts_reward_expectancy_bt,2022.2.4,MacIntel,60.0024001,Chrome,1680,1050,,,,,0,1110,,,,,,,,,,,,,,,,,125,B,circle,0,0,,,,,,,,,,,,,,,,repeat,letter,NA,k,0.4648,Lo,,,,,,3,,,,,,,,high,4,0,4,0,1,,,,,,,,,
297583,2022-11-15_13h55.12.038,vts_reward_expectancy_bt,2022.2.4,MacIntel,60.0024001,Chrome,1680,1050,,,,,0,1110,,,,,,,,,,,,,,,,,146,S,triangle,1,1,,,,,,,,,,,,,,,,repeat,letter,lettRpt,k,0.5834,Hi,,,,,,3,,,,,,,,high,5,0,5,0,1,,,,,,,,,
297583,2022-11-15_13h55.12.038,vts_reward_expectancy_bt,2022.2.4,MacIntel,60.0024001,Chrome,1680,1050,,,,,1,1111,,,,,,,,,,,,,,,,,132,U,hexagon,1,0,,,,,,,,,,,,,,,,switch,number,numSwt,d,0.4562,Lo,,,,,,3,,,,,,,,high,6,0,6,0,1,,,,,,,,,
297583,2022-11-15_13h55.12.038,vts_reward_expectancy_bt,2022.2.4,MacIntel,60.0024001,Chrome,1680,1050,,,,,1,1112,,,,,,,,,,,,,,,,,167,W,star,1,0,,,,,,,,,,,,,,,,repeat,number,numRpt,f,0.4919,Lo,,,,,,3,,,,,,,,high,7,0,7,0,1,,,,,,,,,
297583,2022-11-15_13h55.12.038,vts_reward_expectancy_bt,2022.2.4,MacIntel,60.0024001,Chrome,1680,1050,,,,,10,1122,,,,,,,,,,,,,,,,,160,Y,triangle,1,0,,,,,,,,,,,,,,,,switch,letter,lettSwt,k,0.4895,Hi,,,,,,3,,,,,,,,high,8,0,8,0,1,,,,,,,,,
297583,2022-11-15_13h55.12.038,vts_reward_expectancy_bt,2022.2.4,MacIntel,60.0024001,Chrome,1680,1050,,,,,1,1123,,,,,,,,,,,,,,,,,174,H,star,1,0,,,,,,,,,,,,,,,,repeat,letter,lettRpt,j,0.5391,Lo,,,,,,3,,,,,,,,high,9,0,9,0,1,,,,,,,,,
297583,2022-11-15_13h55.12.038,vts_reward_expectancy_bt,2022.2.4,MacIntel,60.0024001,Chrome,1680,1050,,,,,1,1124,,,,,,,,,,,,,,,,,181,F,hexagon,1,0,,,,,,,,,,,,,,,,repeat,letter,lettRpt,j,0.5121,Lo,,,,,,3,,,,,,,,high,10,0,10,0,1,,,,,,,,,
297583,2022-11-15_13h55.12.038,vts_reward_expectancy_bt,2022.2.4,MacIntel,60.0024001,Chrome,1680,1050,,,,,0,1124,,,,,,,,,,,,,,,,,139,D,circle,1,0,,,,,,,,,,,,,,,,repeat,letter,lettRpt,j,0.4791,Hi,,,,,,3,,,,,,,,high,11,0,11,0,1,,,,,,,,,
297583,2022-11-15_13h55.12.038,vts_reward_expectancy_bt,2022.2.4,MacIntel,60.0024001,Chrome,1680,1050,,,,,1,1125,,,,,,,,,,,,,,,,,125,B,hexagon,1,0,,,,,,,,,,,,,,,,repeat,letter,lettRpt,j,0.5777,Lo,,,,,,3,,,,,,,,high,12,0,12,0,1,,,,,,,,,
297583,2022-11-15_13h55.12.038,vts_reward_expectancy_bt,2022.2.4,MacIntel,60.0024001,Chrome,1680,1050,,,,,0,1125,,,,,,,,,,,,,,,,,146,S,star,0,0,,,,,,,,,,,,,,,,switch,number,NA,f,0.5107,Lo,,,,,,3,,,,,,,,high,13,0,13,0,1,,,,,,,,,
297583,2022-11-15_13h55.12.038,vts_reward_expectancy_bt,2022.2.4,MacIntel,60.0024001,Chrome,1680,1050,,,,,0,1125,,,,,,,,,,,,,,,,,132,U,triangle,1,1,,,,,,,,,,,,,,,,repeat,number,numRpt,d,0.7172,Hi,,,,,,3,,,,,,,,high,14,0,14,0,1,,,,,,,,,
297583,2022-11-15_13h55.12.038,vts_reward_expectancy_bt,2022.2.4,MacIntel,60.0024001,Chrome,1680,1050,,,,,1,1126,,,,,,,,,,,,,,,,,167,W,circle,1,0,,,,,,,,,,,,,,,,repeat,number,numRpt,f,0.5029,Hi,,,,,,3,,,,,,,,high,15,0,15,0,1,,,,,,,,,
297583,2022-11-15_13h55.12.038,vts_reward_expectancy_bt,2022.2.4,MacIntel,60.0024001,Chrome,1680,1050,,,,,1,1127,,,,,,,,,,,,,,,,,132,Y,star,1,0,,,,,,,,,,,,,,,,repeat,number,numRpt,d,0.5171,Lo,,,,,,3,,,,,,,,high,16,0,16,0,1,,,,,,,,,
297583,2022-11-15_13h55.12.038,vts_reward_expectancy_bt,2022.2.4,MacIntel,60.0024001,Chrome,1680,1050,,,,,1,1128,,,,,,,,,,,,,,,,,174,U,hexagon,1,0,,,,,,,,,,,,,,,,repeat,number,numRpt,f,0.5249,Lo,,,,,,3,,,,,,,,high,17,0,17,0,1,,,,,,,,,
297583,2022-11-15_13h55.12.038,vts_reward_expectancy_bt,2022.2.4,MacIntel,60.0024001,Chrome,1680,1050,,,,,10,1138,,,,,,,,,,,,,,,,,139,W,circle,1,0,,,,,,,,,,,,,,,,switch,letter,lettSwt,k,0.5244,Hi,,,,,,3,,,,,,,,high,18,0,18,0,1,,,,,,,,,
297583,2022-11-15_13h55.12.038,vts_reward_expectancy_bt,2022.2.4,MacIntel,60.0024001,Chrome,1680,1050,,,,,0,1138,,,,,,,,,,,,,,,,,125,H,triangle,1,0,,,,,,,,,,,,,,,,repeat,letter,lettRpt,j,0.6253,Hi,,,,,,3,,,,,,,,high,19,0,19,0,1,,,,,,,,,
297583,2022-11-15_13h55.12.038,vts_reward_expectancy_bt,2022.2.4,MacIntel,60.0024001,Chrome,1680,1050,,,,,1,1139,,,,,,,,,,,,,,,,,181,F,star,1,0,,,,,,,,,,,,,,,,repeat,letter,lettRpt,j,0.4713,Lo,,,,,,3,,,,,,,,high,20,0,20,0,1,,,,,,,,,
297583,2022-11-15_13h55.12.038,vts_reward_expectancy_bt,2022.2.4,MacIntel,60.0024001,Chrome,1680,1050,,,,,10,1149,,,,,,,,,,,,,,,,,160,D,hexagon,1,0,,,,,,,,,,,,,,,,repeat,letter,lettRpt,j,0.5626,Lo,,,,,,3,,,,,,,,high,21,0,21,0,1,,,,,,,,,
297583,2022-11-15_13h55.12.038,vts_reward_expectancy_bt,2022.2.4,MacIntel,60.0024001,Chrome,1680,1050,,,,,0,1149,,,,,,,,,,,,,,,,,146,S,circle,0,0,,,,,,,,,,,,,,,,switch,number,NA,f,0.5911,Lo,,,,,,3,,,,,,,,high,22,0,22,0,1,,,,,,,,,
297583,2022-11-15_13h55.12.038,vts_reward_expectancy_bt,2022.2.4,MacIntel,60.0024001,Chrome,1680,1050,,,,,0,1149,,,,,,,,,,,,,,,,,167,B,triangle,1,1,,,,,,,,,,,,,,,,repeat,number,numRpt,f,0.6119,Hi,,,,,,3,,,,,,,,high,23,0,23,0,1,,,,,,,,,
297583,2022-11-15_13h55.12.038,vts_reward_expectancy_bt,2022.2.4,MacIntel,60.0024001,Chrome,1680,1050,,,,,0,1149,,,,,,,,,,,,,,,,,125,W,triangle,1,0,,,,,,,,,,,,,,,,repeat,number,numRpt,d,0.5975,Hi,,,,,,3,,,,,,,,high,24,0,24,0,1,,,,,,,,,
297583,2022-11-15_13h55.12.038,vts_reward_expectancy_bt,2022.2.4,MacIntel,60.0024001,Chrome,1680,1050,,,,,1,1150,,,,,,,,,,,,,,,,,167,D,star,1,0,,,,,,,,,,,,,,,,repeat,number,numRpt,f,0.6483,Lo,,,,,,3,,,,,,,,high,25,0,25,0,1,,,,,,,,,
297583,2022-11-15_13h55.12.038,vts_reward_expectancy_bt,2022.2.4,MacIntel,60.0024001,Chrome,1680,1050,,,,,0,1150,,,,,,,,,,,,,,,,,139,F,circle,0,0,,,,,,,,,,,,,,,,repeat,number,NA,f,0.509,Lo,,,,,,3,,,,,,,,high,26,0,26,0,1,,,,,,,,,
297583,2022-11-15_13h55.12.038,vts_reward_expectancy_bt,2022.2.4,MacIntel,60.0024001,Chrome,1680,1050,,,,,1,1151,,,,,,,,,,,,,,,,,181,H,hexagon,1,1,,,,,,,,,,,,,,,,repeat,number,numRpt,f,0.5654,Lo,,,,,,3,,,,,,,,high,27,0,27,0,1,,,,,,,,,
297583,2022-11-15_13h55.12.038,vts_reward_expectancy_bt,2022.2.4,MacIntel,60.0024001,Chrome,1680,1050,,,,,0,1151,,,,,,,,,,,,,,,,,132,Y,triangle,1,0,,,,,,,,,,,,,,,,repeat,number,numRpt,d,0.5345,Hi,,,,,,3,,,,,,,,high,28,0,28,0,1,,,,,,,,,
297583,2022-11-15_13h55.12.038,vts_reward_expectancy_bt,2022.2.4,MacIntel,60.0024001,Chrome,1680,1050,,,,,10,1161,,,,,,,,,,,,,,,,,160,S,star,1,0,,,,,,,,,,,,,,,,repeat,number,numRpt,f,0.5624,Lo,,,,,,3,,,,,,,,high,29,0,29,0,1,,,,,,,,,
297583,2022-11-15_13h55.12.038,vts_reward_expectancy_bt,2022.2.4,MacIntel,60.0024001,Chrome,1680,1050,,,,,1,1162,,,,,,,,,,,,,,,,,174,B,circle,1,0,,,,,,,,,,,,,,,,switch,letter,lettSwt,j,0.4901,Hi,,,,,,3,,,,,,,,high,30,0,30,0,1,,,,,,,,,
297583,2022-11-15_13h55.12.038,vts_reward_expectancy_bt,2022.2.4,MacIntel,60.0024001,Chrome,1680,1050,,,,,1,1163,,,,,,,,,,,,,,,,,146,U,hexagon,1,0,,,,,,,,,,,,,,,,repeat,letter,lettRpt,k,0.4426,Lo,,,,,,3,,,,,,,,high,31,0,31,0,1,,,,,,,,,
297583,2022-11-15_13h55.12.038,vts_reward_expectancy_bt,2022.2.4,MacIntel,60.0024001,Chrome,1680,1050,,,,,10,1173,,,,,,,,,,,,,,,,,181,F,star,1,0,,,,,,,,,,,,,,,,repeat,letter,lettRpt,j,0.5443,Lo,,,,,,4,,,,,,space,0.8879,high,0,0,0,0,1,,,,,,,,,
297583,2022-11-15_13h55.12.038,vts_reward_expectancy_bt,2022.2.4,MacIntel,60.0024001,Chrome,1680,1050,,,,,1,1174,,,,,,,,,,,,,,,,,146,H,hexagon,1,0,,,,,,,,,,,,,,,,repeat,letter,lettRpt,j,0.552,Lo,,,,,,4,,,,,,,,high,1,0,1,0,1,,,,,,,,,
297583,2022-11-15_13h55.12.038,vts_reward_expectancy_bt,2022.2.4,MacIntel,60.0024001,Chrome,1680,1050,,,,,0,1174,,,,,,,,,,,,,,,,,125,B,triangle,0,0,,,,,,,,,,,,,,,,switch,number,NA,f,0.5657,Lo,,,,,,4,,,,,,,,high,2,0,2,0,1,,,,,,,,,
297583,2022-11-15_13h55.12.038,vts_reward_expectancy_bt,2022.2.4,MacIntel,60.0024001,Chrome,1680,1050,,,,,10,1184,,,,,,,,,,,,,,,,,167,Y,circle,1,1,,,,,,,,,,,,,,,,repeat,number,numRpt,f,0.4691,Hi,,,,,,4,,,,,,,,high,3,0,3,0,1,,,,,,,,,
297583,2022-11-15_13h55.12.038,vts_reward_expectancy_bt,2022.2.4,MacIntel,60.0024001,Chrome,1680,1050,,,,,1,1185,,,,,,,,,,,,,,,,,174,D,star,1,0,,,,,,,,,,,,,,,,repeat,number,numRpt,f,0.4381,Lo,,,,,,4,,,,,,,,high,4,0,4,0,1,,,,,,,,,
297583,2022-11-15_13h55.12.038,vts_reward_expectancy_bt,2022.2.4,MacIntel,60.0024001,Chrome,1680,1050,,,,,1,1186,,,,,,,,,,,,,,,,,132,S,hexagon,1,0,,,,,,,,,,,,,,,,switch,letter,lettSwt,k,0.5573,Lo,,,,,,4,,,,,,,,high,5,0,5,0,1,,,,,,,,,
297583,2022-11-15_13h55.12.038,vts_reward_expectancy_bt,2022.2.4,MacIntel,60.0024001,Chrome,1680,1050,,,,,0,1186,,,,,,,,,,,,,,,,,139,W,triangle,1,0,,,,,,,,,,,,,,,,repeat,letter,lettRpt,k,0.5452,Hi,,,,,,4,,,,,,,,high,6,0,6,0,1,,,,,,,,,
297583,2022-11-15_13h55.12.038,vts_reward_expectancy_bt,2022.2.4,MacIntel,60.0024001,Chrome,1680,1050,,,,,0,1186,,,,,,,,,,,,,,,,,160,U,circle,0,0,,,,,,,,,,,,,,,,repeat,letter,NA,j,0.6145,Hi,,,,,,4,,,,,,,,high,7,0,7,0,1,,,,,,,,,
297583,2022-11-15_13h55.12.038,vts_reward_expectancy_bt,2022.2.4,MacIntel,60.0024001,Chrome,1680,1050,,,,,0,1186,,,,,,,,,,,,,,,,,181,F,circle,1,1,,,,,,,,,,,,,,,,repeat,letter,lettRpt,j,0.6703,Hi,,,,,,4,,,,,,,,high,8,0,8,0,1,,,,,,,,,
297583,2022-11-15_13h55.12.038,vts_reward_expectancy_bt,2022.2.4,MacIntel,60.0024001,Chrome,1680,1050,,,,,0,1186,,,,,,,,,,,,,,,,,146,H,triangle,0,0,,,,,,,,,,,,,,,,repeat,letter,NA,k,0.6738,Hi,,,,,,4,,,,,,,,high,9,0,9,0,1,,,,,,,,,
297583,2022-11-15_13h55.12.038,vts_reward_expectancy_bt,2022.2.4,MacIntel,60.0024001,Chrome,1680,1050,,,,,1,1187,,,,,,,,,,,,,,,,,125,B,hexagon,1,1,,,,,,,,,,,,,,,,repeat,letter,lettRpt,j,0.5276,Lo,,,,,,4,,,,,,,,high,10,0,10,0,1,,,,,,,,,
297583,2022-11-15_13h55.12.038,vts_reward_expectancy_bt,2022.2.4,MacIntel,60.0024001,Chrome,1680,1050,,,,,1,1188,,,,,,,,,,,,,,,,,167,Y,star,1,0,,,,,,,,,,,,,,,,switch,number,numSwt,f,0.6829,Lo,,,,,,4,,,,,,,,high,11,0,11,0,1,,,,,,,,,
297583,2022-11-15_13h55.12.038,vts_reward_expectancy_bt,2022.2.4,MacIntel,60.0024001,Chrome,1680,1050,,,,,1,1189,,,,,,,,,,,,,,,,,174,D,hexagon,1,0,,,,,,,,,,,,,,,,repeat,number,numRpt,f,0.5648,Lo,,,,,,4,,,,,,,,high,12,0,12,0,1,,,,,,,,,
297583,2022-11-15_13h55.12.038,vts_reward_expectancy_bt,2022.2.4,MacIntel,60.0024001,Chrome,1680,1050,,,,,0,1189,,,,,,,,,,,,,,,,,132,S,circle,1,0,,,,,,,,,,,,,,,,repeat,number,numRpt,d,0.5423,Hi,,,,,,4,,,,,,,,high,13,0,13,0,1,,,,,,,,,
297583,2022-11-15_13h55.12.038,vts_reward_expectancy_bt,2022.2.4,MacIntel,60.0024001,Chrome,1680,1050,,,,,0,1189,,,,,,,,,,,,,,,,,139,W,triangle,1,0,,,,,,,,,,,,,,,,repeat,number,numRpt,d,0.6101,Hi,,,,,,4,,,,,,,,high,14,0,14,0,1,,,,,,,,,
297583,2022-11-15_13h55.12.038,vts_reward_expectancy_bt,2022.2.4,MacIntel,60.0024001,Chrome,1680,1050,,,,,1,1190,,,,,,,,,,,,,,,,,160,U,star,1,0,,,,,,,,,,,,,,,,repeat,number,numRpt,f,0.5421,Lo,,,,,,4,,,,,,,,high,15,0,15,0,1,,,,,,,,,
297583,2022-11-15_13h55.12.038,vts_reward_expectancy_bt,2022.2.4,MacIntel,60.0024001,Chrome,1680,1050,,,,,0,1190,,,,,,,,,,,,,,,,,139,S,triangle,0,0,,,,,,,,,,,,,,,,repeat,number,NA,f,0.3378,Lo,,,,,,4,,,,,,,,high,16,0,16,0,1,,,,,,,,,
297583,2022-11-15_13h55.12.038,vts_reward_expectancy_bt,2022.2.4,MacIntel,60.0024001,Chrome,1680,1050,,,,,1,1191,,,,,,,,,,,,,,,,,174,D,hexagon,1,1,,,,,,,,,,,,,,,,repeat,number,numRpt,f,0.7381,Lo,,,,,,4,,,,,,,,high,17,0,17,0,1,,,,,,,,,
297583,2022-11-15_13h55.12.038,vts_reward_expectancy_bt,2022.2.4,MacIntel,60.0024001,Chrome,1680,1050,,,,,1,1192,,,,,,,,,,,,,,,,,125,U,star,1,0,,,,,,,,,,,,,,,,switch,letter,lettSwt,k,0.5943,Lo,,,,,,4,,,,,,,,high,18,0,18,0,1,,,,,,,,,
297583,2022-11-15_13h55.12.038,vts_reward_expectancy_bt,2022.2.4,MacIntel,60.0024001,Chrome,1680,1050,,,,,0,1192,,,,,,,,,,,,,,,,,167,Y,circle,1,0,,,,,,,,,,,,,,,,repeat,letter,lettRpt,k,0.6459,Hi,,,,,,4,,,,,,,,high,19,0,19,0,1,,,,,,,,,
297583,2022-11-15_13h55.12.038,vts_reward_expectancy_bt,2022.2.4,MacIntel,60.0024001,Chrome,1680,1050,,,,,1,1193,,,,,,,,,,,,,,,,,181,H,hexagon,1,0,,,,,,,,,,,,,,,,repeat,letter,lettRpt,j,0.5851,Lo,,,,,,4,,,,,,,,high,20,0,20,0,1,,,,,,,,,
297583,2022-11-15_13h55.12.038,vts_reward_expectancy_bt,2022.2.4,MacIntel,60.0024001,Chrome,1680,1050,,,,,1,1194,,,,,,,,,,,,,,,,,146,W,star,1,0,,,,,,,,,,,,,,,,repeat,letter,lettRpt,k,0.5815,Lo,,,,,,4,,,,,,,,high,21,0,21,0,1,,,,,,,,,
297583,2022-11-15_13h55.12.038,vts_reward_expectancy_bt,2022.2.4,MacIntel,60.0024001,Chrome,1680,1050,,,,,0,1194,,,,,,,,,,,,,,,,,132,B,circle,1,0,,,,,,,,,,,,,,,,switch,number,numSwt,d,0.5112,Hi,,,,,,4,,,,,,,,high,22,0,22,0,1,,,,,,,,,
297583,2022-11-15_13h55.12.038,vts_reward_expectancy_bt,2022.2.4,MacIntel,60.0024001,Chrome,1680,1050,,,,,10,1204,,,,,,,,,,,,,,,,,160,F,triangle,1,0,,,,,,,,,,,,,,,,repeat,number,numRpt,f,0.5023,Hi,,,,,,4,,,,,,,,high,23,0,23,0,1,,,,,,,,,
297583,2022-11-15_13h55.12.038,vts_reward_expectancy_bt,2022.2.4,MacIntel,60.0024001,Chrome,1680,1050,,,,,0,1204,,,,,,,,,,,,,,,,,139,U,circle,1,0,,,,,,,,,,,,,,,,repeat,number,numRpt,d,0.5188,Hi,,,,,,4,,,,,,,,high,24,0,24,0,1,,,,,,,,,
297583,2022-11-15_13h55.12.038,vts_reward_expectancy_bt,2022.2.4,MacIntel,60.0024001,Chrome,1680,1050,,,,,1,1205,,,,,,,,,,,,,,,,,167,B,hexagon,1,0,,,,,,,,,,,,,,,,repeat,number,numRpt,f,0.4896,Lo,,,,,,4,,,,,,,,high,25,0,25,0,1,,,,,,,,,
297583,2022-11-15_13h55.12.038,vts_reward_expectancy_bt,2022.2.4,MacIntel,60.0024001,Chrome,1680,1050,,,,,0,1205,,,,,,,,,,,,,,,,,174,H,star,0,0,,,,,,,,,,,,,,,,repeat,number,NA,d,0.4394,Lo,,,,,,4,,,,,,,,high,26,0,26,0,1,,,,,,,,,
297583,2022-11-15_13h55.12.038,vts_reward_expectancy_bt,2022.2.4,MacIntel,60.0024001,Chrome,1680,1050,,,,,1,1206,,,,,,,,,,,,,,,,,160,Y,triangle,1,1,,,,,,,,,,,,,,,,repeat,number,numRpt,f,0.431,Hi,,,,,,4,,,,,,,,high,27,0,27,0,1,,,,,,,,,
297583,2022-11-15_13h55.12.038,vts_reward_expectancy_bt,2022.2.4,MacIntel,60.0024001,Chrome,1680,1050,,,,,10,1216,,,,,,,,,,,,,,,,,146,F,hexagon,1,0,,,,,,,,,,,,,,,,repeat,number,numRpt,d,0.7126,Lo,,,,,,4,,,,,,,,high,28,0,28,0,1,,,,,,,,,
297583,2022-11-15_13h55.12.038,vts_reward_expectancy_bt,2022.2.4,MacIntel,60.0024001,Chrome,1680,1050,,,,,0,1216,,,,,,,,,,,,,,,,,125,S,triangle,0,0,,,,,,,,,,,,,,,,switch,letter,NA,j,0.6675,Lo,,,,,,4,,,,,,,,high,29,0,29,0,1,,,,,,,,,
297583,2022-11-15_13h55.12.038,vts_reward_expectancy_bt,2022.2.4,MacIntel,60.0024001,Chrome,1680,1050,,,,,0,1216,,,,,,,,,,,,,,,,,132,W,circle,1,1,,,,,,,,,,,,,,,,repeat,letter,lettRpt,k,0.5418,Hi,,,,,,4,,,,,,,,high,30,0,30,0,1,,,,,,,,,
297583,2022-11-15_13h55.12.038,vts_reward_expectancy_bt,2022.2.4,MacIntel,60.0024001,Chrome,1680,1050,,,,,0,1216,,,,,,,,,,,,,,,,,181,D,star,0,0,,,,,,,,,,,,,,,,repeat,letter,NA,k,0.9821,Hi,,,,,,4,,,,,,,,high,31,0,31,0,1,,,,,,,,,
297583,2022-11-15_13h55.12.038,vts_reward_expectancy_bt,2022.2.4,MacIntel,60.0024001,Chrome,1680,1050,,,,,1,1217,,,,,,,,,,,,,,,,,167,F,hexagon,1,1,,,,,,,,,,,,,,,,repeat,letter,lettRpt,j,0.8151,Lo,,,,,,5,,,,,,space,0.8318,high,0,0,0,0,1,,,,,,,,,
297583,2022-11-15_13h55.12.038,vts_reward_expectancy_bt,2022.2.4,MacIntel,60.0024001,Chrome,1680,1050,,,,,10,1227,,,,,,,,,,,,,,,,,132,W,star,1,0,,,,,,,,,,,,,,,,switch,number,numSwt,d,0.4659,Lo,,,,,,5,,,,,,,,high,1,0,1,0,1,,,,,,,,,
297583,2022-11-15_13h55.12.038,vts_reward_expectancy_bt,2022.2.4,MacIntel,60.0024001,Chrome,1680,1050,,,,,0,1227,,,,,,,,,,,,,,,,,181,H,circle,1,0,,,,,,,,,,,,,,,,repeat,number,numRpt,f,0.5261,Hi,,,,,,5,,,,,,,,high,2,0,2,0,1,,,,,,,,,
297583,2022-11-15_13h55.12.038,vts_reward_expectancy_bt,2022.2.4,MacIntel,60.0024001,Chrome,1680,1050,,,,,1,1228,,,,,,,,,,,,,,,,,174,U,triangle,1,0,,,,,,,,,,,,,,,,switch,letter,lettSwt,k,0.449,Hi,,,,,,5,,,,,,,,high,3,0,3,0,1,,,,,,,,,
297583,2022-11-15_13h55.12.038,vts_reward_expectancy_bt,2022.2.4,MacIntel,60.0024001,Chrome,1680,1050,,,,,10,1238,,,,,,,,,,,,,,,,,160,S,hexagon,1,0,,,,,,,,,,,,,,,,repeat,letter,lettRpt,k,0.7289,Lo,,,,,,5,,,,,,,,high,4,0,4,0,1,,,,,,,,,
297583,2022-11-15_13h55.12.038,vts_reward_expectancy_bt,2022.2.4,MacIntel,60.0024001,Chrome,1680,1050,,,,,1,1239,,,,,,,,,,,,,,,,,125,D,star,1,0,,,,,,,,,,,,,,,,switch,number,numSwt,d,0.6788,Lo,,,,,,5,,,,,,,,high,5,0,5,0,1,,,,,,,,,
297583,2022-11-15_13h55.12.038,vts_reward_expectancy_bt,2022.2.4,MacIntel,60.0024001,Chrome,1680,1050,,,,,0,1239,,,,,,,,,,,,,,,,,146,Y,circle,1,0,,,,,,,,,,,,,,,,switch,letter,lettSwt,k,0.6429,Hi,,,,,,5,,,,,,,,high,6,0,6,0,1,,,,,,,,,
297583,2022-11-15_13h55.12.038,vts_reward_expectancy_bt,2022.2.4,MacIntel,60.0024001,Chrome,1680,1050,,,,,10,1249,,,,,,,,,,,,,,,,,139,B,triangle,1,0,,,,,,,,,,,,,,,,switch,number,numSwt,d,0.6118,Hi,,,,,,5,,,,,,,,high,7,0,7,0,1,,,,,,,,,
297583,2022-11-15_13h55.12.038,vts_reward_expectancy_bt,2022.2.4,MacIntel,60.0024001,Chrome,1680,1050,,,,,1,1250,,,,,,,,,,,,,,,,,167,F,star,1,0,,,,,,,,,,,,,,,,repeat,number,numRpt,f,0.5376,Lo,,,,,,5,,,,,,,,high,8,0,8,0,1,,,,,,,,,
297583,2022-11-15_13h55.12.038,vts_reward_expectancy_bt,2022.2.4,MacIntel,60.0024001,Chrome,1680,1050,,,,,1,1251,,,,,,,,,,,,,,,,,132,W,hexagon,1,0,,,,,,,,,,,,,,,,switch,letter,lettSwt,k,0.647,Lo,,,,,,5,,,,,,,,high,9,0,9,0,1,,,,,,,,,
297583,2022-11-15_13h55.12.038,vts_reward_expectancy_bt,2022.2.4,MacIntel,60.0024001,Chrome,1680,1050,,,,,0,1251,,,,,,,,,,,,,,,,,181,H,triangle,1,0,,,,,,,,,,,,,,,,repeat,letter,lettRpt,j,0.5623,Hi,,,,,,5,,,,,,,,high,10,0,10,0,1,,,,,,,,,
297583,2022-11-15_13h55.12.038,vts_reward_expectancy_bt,2022.2.4,MacIntel,60.0024001,Chrome,1680,1050,,,,,10,1261,,,,,,,,,,,,,,,,,174,U,circle,1,0,,,,,,,,,,,,,,,,switch,number,numSwt,f,0.5012,Hi,,,,,,5,,,,,,,,high,11,0,11,0,1,,,,,,,,,
297583,2022-11-15_13h55.12.038,vts_reward_expectancy_bt,2022.2.4,MacIntel,60.0024001,Chrome,1680,1050,,,,,1,1262,,,,,,,,,,,,,,,,,160,S,star,1,0,,,,,,,,,,,,,,,,repeat,number,numRpt,f,0.5373,Lo,,,,,,5,,,,,,,,high,12,0,12,0,1,,,,,,,,,
297583,2022-11-15_13h55.12.038,vts_reward_expectancy_bt,2022.2.4,MacIntel,60.0024001,Chrome,1680,1050,,,,,1,1263,,,,,,,,,,,,,,,,,125,D,hexagon,1,0,,,,,,,,,,,,,,,,switch,letter,lettSwt,j,0.4633,Lo,,,,,,5,,,,,,,,high,13,0,13,0,1,,,,,,,,,
297583,2022-11-15_13h55.12.038,vts_reward_expectancy_bt,2022.2.4,MacIntel,60.0024001,Chrome,1680,1050,,,,,0,1263,,,,,,,,,,,,,,,,,146,Y,triangle,0,0,,,,,,,,,,,,,,,,switch,number,NA,f,0.5457,Lo,,,,,,5,,,,,,,,high,14,0,14,0,1,,,,,,,,,
297583,2022-11-15_13h55.12.038,vts_reward_expectancy_bt,2022.2.4,MacIntel,60.0024001,Chrome,1680,1050,,,,,0,1263,,,,,,,,,,,,,,,,,139,B,circle,1,1,,,,,,,,,,,,,,,,switch,letter,lettSwt,j,0.6115,Hi,,,,,,5,,,,,,,,high,15,0,15,0,1,,,,,,,,,
297583,2022-11-15_13h55.12.038,vts_reward_expectancy_bt,2022.2.4,MacIntel,60.0024001,Chrome,1680,1050,,,,,10,1273,,,,,,,,,,,,,,,,,160,D,hexagon,1,0,,,,,,,,,,,,,,,,switch,number,numSwt,f,0.6427,Lo,,,,,,5,,,,,,,,high,16,0,16,0,1,,,,,,,,,
297583,2022-11-15_13h55.12.038,vts_reward_expectancy_bt,2022.2.4,MacIntel,60.0024001,Chrome,1680,1050,,,,,0,1273,,,,,,,,,,,,,,,,,125,H,circle,1,0,,,,,,,,,,,,,,,,repeat,number,numRpt,d,0.5693,Hi,,,,,,5,,,,,,,,high,17,0,17,0,1,,,,,,,,,
297583,2022-11-15_13h55.12.038,vts_reward_expectancy_bt,2022.2.4,MacIntel,60.0024001,Chrome,1680,1050,,,,,0,1273,,,,,,,,,,,,,,,,,167,S,triangle,1,0,,,,,,,,,,,,,,,,repeat,number,numRpt,f,0.4993,Hi,,,,,,5,,,,,,,,high,18,0,18,0,1,,,,,,,,,
297583,2022-11-15_13h55.12.038,vts_reward_expectancy_bt,2022.2.4,MacIntel,60.0024001,Chrome,1680,1050,,,,,1,1274,,,,,,,,,,,,,,,,,139,W,star,1,0,,,,,,,,,,,,,,,,switch,letter,lettSwt,k,0.4837,Lo,,,,,,5,,,,,,,,high,19,0,19,0,1,,,,,,,,,
297583,2022-11-15_13h55.12.038,vts_reward_expectancy_bt,2022.2.4,MacIntel,60.0024001,Chrome,1680,1050,,,,,0,1274,,,,,,,,,,,,,,,,,132,B,triangle,1,0,,,,,,,,,,,,,,,,repeat,letter,lettRpt,j,0.5636,Hi,,,,,,5,,,,,,,,high,20,0,20,0,1,,,,,,,,,
297583,2022-11-15_13h55.12.038,vts_reward_expectancy_bt,2022.2.4,MacIntel,60.0024001,Chrome,1680,1050,,,,,10,1284,,,,,,,,,,,,,,,,,181,U,circle,1,0,,,,,,,,,,,,,,,,switch,number,numSwt,f,0.4938,Hi,,,,,,5,,,,,,,,high,21,0,21,0,1,,,,,,,,,
297583,2022-11-15_13h55.12.038,vts_reward_expectancy_bt,2022.2.4,MacIntel,60.0024001,Chrome,1680,1050,,,,,1,1285,,,,,,,,,,,,,,,,,146,F,hexagon,1,0,,,,,,,,,,,,,,,,switch,letter,lettSwt,j,0.4698,Lo,,,,,,5,,,,,,,,high,22,0,22,0,1,,,,,,,,,
297583,2022-11-15_13h55.12.038,vts_reward_expectancy_bt,2022.2.4,MacIntel,60.0024001,Chrome,1680,1050,,,,,1,1286,,,,,,,,,,,,,,,,,174,Y,star,1,0,,,,,,,,,,,,,,,,switch,number,numSwt,f,0.543,Lo,,,,,,5,,,,,,,,high,23,0,23,0,1,,,,,,,,,
297583,2022-11-15_13h55.12.038,vts_reward_expectancy_bt,2022.2.4,MacIntel,60.0024001,Chrome,1680,1050,,,,,10,1296,,,,,,,,,,,,,,,,,181,S,hexagon,1,0,,,,,,,,,,,,,,,,repeat,number,numRpt,f,0.501,Lo,,,,,,5,,,,,,,,high,24,0,24,0,1,,,,,,,,,
297583,2022-11-15_13h55.12.038,vts_reward_expectancy_bt,2022.2.4,MacIntel,60.0024001,Chrome,1680,1050,,,,,0,1296,,,,,,,,,,,,,,,,,160,D,circle,1,0,,,,,,,,,,,,,,,,switch,letter,lettSwt,j,0.7162,Hi,,,,,,5,,,,,,,,high,25,0,25,0,1,,,,,,,,,
297583,2022-11-15_13h55.12.038,vts_reward_expectancy_bt,2022.2.4,MacIntel,60.0024001,Chrome,1680,1050,,,,,0,1296,,,,,,,,,,,,,,,,,139,B,star,0,0,,,,,,,,,,,,,,,,repeat,letter,NA,k,0.7648,Hi,,,,,,5,,,,,,,,high,26,0,26,0,1,,,,,,,,,
297583,2022-11-15_13h55.12.038,vts_reward_expectancy_bt,2022.2.4,MacIntel,60.0024001,Chrome,1680,1050,,,,,10,1306,,,,,,,,,,,,,,,,,174,U,triangle,1,1,,,,,,,,,,,,,,,,switch,number,numSwt,f,0.5105,Hi,,,,,,5,,,,,,,,high,27,0,27,0,1,,,,,,,,,
297583,2022-11-15_13h55.12.038,vts_reward_expectancy_bt,2022.2.4,MacIntel,60.0024001,Chrome,1680,1050,,,,,0,1306,,,,,,,,,,,,,,,,,125,Y,triangle,1,0,,,,,,,,,,,,,,,,repeat,number,numRpt,d,0.6498,Hi,,,,,,5,,,,,,,,high,28,0,28,0,1,,,,,,,,,
297583,2022-11-15_13h55.12.038,vts_reward_expectancy_bt,2022.2.4,MacIntel,60.0024001,Chrome,1680,1050,,,,,1,1307,,,,,,,,,,,,,,,,,167,W,star,1,0,,,,,,,,,,,,,,,,switch,letter,lettSwt,k,0.5626,Lo,,,,,,5,,,,,,,,high,29,0,29,0,1,,,,,,,,,
297583,2022-11-15_13h55.12.038,vts_reward_expectancy_bt,2022.2.4,MacIntel,60.0024001,Chrome,1680,1050,,,,,10,1317,,,,,,,,,,,,,,,,,146,F,circle,1,0,,,,,,,,,,,,,,,,repeat,letter,lettRpt,j,0.4715,Hi,,,,,,5,,,,,,,,high,30,0,30,0,1,,,,,,,,,
297583,2022-11-15_13h55.12.038,vts_reward_expectancy_bt,2022.2.4,MacIntel,60.0024001,Chrome,1680,1050,,,,,0,1317,,,,,,,,,,,,,,,,,132,H,hexagon,0,0,,,,,,,,,,,,,,,,switch,number,NA,f,0.4216,Hi,,,,,,5,,,,,,,,high,31,0,31,0,1,,,,,,,,,
297583,2022-11-15_13h55.12.038,vts_reward_expectancy_bt,2022.2.4,MacIntel,60.0024001,Chrome,1680,1050,,,,,0,1317,,,,,,,,,,,,,,,,,174,F,triangle,1,1,,,,,,,,,,,,,,,,switch,letter,lettSwt,j,0.5666,Hi,,,,,,6,,,,,,space,1.2902,high,0,0,0,0,1,,,,,,,,,
297583,2022-11-15_13h55.12.038,vts_reward_expectancy_bt,2022.2.4,MacIntel,60.0024001,Chrome,1680,1050,,,,,0,1317,,,,,,,,,,,,,,,,,132,D,circle,1,0,,,,,,,,,,,,,,,,switch,number,numSwt,d,0.5356,Hi,,,,,,6,,,,,,,,high,1,0,1,0,1,,,,,,,,,
297583,2022-11-15_13h55.12.038,vts_reward_expectancy_bt,2022.2.4,MacIntel,60.0024001,Chrome,1680,1050,,,,,1,1318,,,,,,,,,,,,,,,,,125,Y,hexagon,1,0,,,,,,,,,,,,,,,,repeat,number,numRpt,d,0.5312,Lo,,,,,,6,,,,,,,,high,2,0,2,0,1,,,,,,,,,
297583,2022-11-15_13h55.12.038,vts_reward_expectancy_bt,2022.2.4,MacIntel,60.0024001,Chrome,1680,1050,,,,,1,1319,,,,,,,,,,,,,,,,,167,W,star,1,0,,,,,,,,,,,,,,,,switch,letter,lettSwt,k,0.7626,Lo,,,,,,6,,,,,,,,high,3,0,3,0,1,,,,,,,,,
297583,2022-11-15_13h55.12.038,vts_reward_expectancy_bt,2022.2.4,MacIntel,60.0024001,Chrome,1680,1050,,,,,0,1319,,,,,,,,,,,,,,,,,181,S,triangle,0,0,,,,,,,,,,,,,,,,repeat,letter,NA,j,0.5101,Lo,,,,,,6,,,,,,,,high,4,0,4,0,1,,,,,,,,,
297583,2022-11-15_13h55.12.038,vts_reward_expectancy_bt,2022.2.4,MacIntel,60.0024001,Chrome,1680,1050,,,,,0,1319,,,,,,,,,,,,,,,,,146,H,circle,0,1,,,,,,,,,,,,,,,,switch,number,NA,f,0.5839,Lo,,,,,,6,,,,,,,,high,5,0,5,0,1,,,,,,,,,
297583,2022-11-15_13h55.12.038,vts_reward_expectancy_bt,2022.2.4,MacIntel,60.0024001,Chrome,1680,1050,,,,,1,1320,,,,,,,,,,,,,,,,,160,B,hexagon,1,1,,,,,,,,,,,,,,,,repeat,number,numRpt,f,0.6442,Lo,,,,,,6,,,,,,,,high,6,0,6,0,1,,,,,,,,,
297583,2022-11-15_13h55.12.038,vts_reward_expectancy_bt,2022.2.4,MacIntel,60.0024001,Chrome,1680,1050,,,,,1,1321,,,,,,,,,,,,,,,,,139,U,star,1,0,,,,,,,,,,,,,,,,switch,letter,lettSwt,k,0.5429,Lo,,,,,,6,,,,,,,,high,7,0,7,0,1,,,,,,,,,
297583,2022-11-15_13h55.12.038,vts_reward_expectancy_bt,2022.2.4,MacIntel,60.0024001,Chrome,1680,1050,,,,,1,1322,,,,,,,,,,,,,,,,,174,F,hexagon,1,0,,,,,,,,,,,,,,,,repeat,letter,lettRpt,j,0.4494,Lo,,,,,,6,,,,,,,,high,8,0,8,0,1,,,,,,,,,
297583,2022-11-15_13h55.12.038,vts_reward_expectancy_bt,2022.2.4,MacIntel,60.0024001,Chrome,1680,1050,,,,,0,1322,,,,,,,,,,,,,,,,,132,D,circle,1,0,,,,,,,,,,,,,,,,switch,number,numSwt,d,0.6392,Hi,,,,,,6,,,,,,,,high,9,0,9,0,1,,,,,,,,,
