participant,date,expName,psychopyVersion,OS,frameRate,browser,xResolution,yResolution,key_resp.keys,key_resp.rt,training_resp.keys,training_resp.rt,points_trial,points_cumul,trainBlock,training.thisRepN,training.thisTrialN,training.thisN,training.thisIndex,training.ran,LTriangleOpac,LCircleOpac,LHexagonOpac,LStarOpac,RTriangleOpac,RCircleOpac,RHexagonOpac,RStarOpac,LShape_ID,RShape_ID,curr_topStim,curr_bottStim,curr_shape,acc,E1,target_resp_prac1.keys,pracBlock,task1_prac_trials.thisRepN,task1_prac_trials.thisTrialN,task1_prac_trials.thisN,task1_prac_trials.thisIndex,task1_prac_trials.ran,target_resp_prac1.rt,target_resp_prac2.keys,target_resp_prac2.rt,task2_praac_trials.thisRepN,task2_praac_trials.thisTrialN,task2_praac_trials.thisN,task2_praac_trials.thisIndex,task2_praac_trials.ran,alt,task,condition,target_resp.keys,rewCond,vts_practice_trials.thisRepN,vts_practice_trials.thisTrialN,vts_practice_trials.thisN,vts_practice_trials.thisIndex,vts_practice_trials.ran,target_resp.rt,blockNum,trials_norew.thisRepN,trials_norew.thisTrialN,trials_norew.thisN,trials_norew.thisIndex,trials_norew.ran,key_resp_2.keys,key_resp_2.rt,rewExpectancy,trials_rew.thisRepN,trials_rew.thisTrialN,trials_rew.thisN,trials_rew.thisIndex,trials_rew.ran,Q1,Q2,Q2_text,Q3,Q4,Q5_text,Q5,xRes,yRes
297568,2022-11-27_12h43.16.694,vts_reward_expectancy_bt,2022.2.4,Win32,59.91970759,Chrome,1536,864,,,,,,,,,,,,,,,,,,,,,,,,,,,,,,,,,,,,,,,,,,,,,,,,,,,,,,,,,,,,,,,,,,,,,,,,,,,,
297568,2022-11-27_12h43.16.694,vts_reward_expectancy_bt,2022.2.4,Win32,59.91970759,Chrome,1536,864,space,7.0952,,,,,,,,,,,,,,,,,,,,,,,,,,,,,,,,,,,,,,,,,,,,,,,,,,,,,,,,,,,,,,,,,,,,,,,,,,
297568,2022-11-27_12h43.16.694,vts_reward_expectancy_bt,2022.2.4,Win32,59.91970759,Chrome,1536,864,,,,,,,,,,,,,,,,,,,,,,,,,,,,,,,,,,,,,,,,,,,,,,,,,,,,,,,,,,,,,,,,,,,,,,,,,,,,
297568,2022-11-27_12h43.16.694,vts_reward_expectancy_bt,2022.2.4,Win32,59.91970759,Chrome,1536,864,,,l,3.1864,1,1,0,0,0,0,4,1,0,1,0,0,0,0,1,0,circle,hexagon,,,,,,,,,,,,,,,,,,,,,,,,,,,,,,,,,,,,,,,,,,,,,,,,,,,,,,
297568,2022-11-27_12h43.16.694,vts_reward_expectancy_bt,2022.2.4,Win32,59.91970759,Chrome,1536,864,,,a,1.3902,10,11,0,0,1,1,0,1,1,0,0,0,0,1,0,0,triangle,circle,,,,,,,,,,,,,,,,,,,,,,,,,,,,,,,,,,,,,,,,,,,,,,,,,,,,,,
297568,2022-11-27_12h43.16.694,vts_reward_expectancy_bt,2022.2.4,Win32,59.91970759,Chrome,1536,864,,,l,1.5558,1,12,0,0,2,2,1,1,1,0,0,0,0,0,1,0,triangle,hexagon,,,,,,,,,,,,,,,,,,,,,,,,,,,,,,,,,,,,,,,,,,,,,,,,,,,,,,
297568,2022-11-27_12h43.16.694,vts_reward_expectancy_bt,2022.2.4,Win32,59.91970759,Chrome,1536,864,,,a,1.2022,1,13,0,0,3,3,9,1,0,0,0,1,1,0,0,0,star,triangle,,,,,,,,,,,,,,,,,,,,,,,,,,,,,,,,,,,,,,,,,,,,,,,,,,,,,,
297568,2022-11-27_12h43.16.694,vts_reward_expectancy_bt,2022.2.4,Win32,59.91970759,Chrome,1536,864,,,l,1.0165,1,14,0,0,4,4,7,1,0,0,1,0,0,1,0,0,hexagon,circle,,,,,,,,,,,,,,,,,,,,,,,,,,,,,,,,,,,,,,,,,,,,,,,,,,,,,,
297568,2022-11-27_12h43.16.694,vts_reward_expectancy_bt,2022.2.4,Win32,59.91970759,Chrome,1536,864,,,a,1.0392,1,15,0,0,5,5,10,1,0,0,0,1,0,1,0,0,star ,circle,,,,,,,,,,,,,,,,,,,,,,,,,,,,,,,,,,,,,,,,,,,,,,,,,,,,,,
297568,2022-11-27_12h43.16.694,vts_reward_expectancy_bt,2022.2.4,Win32,59.91970759,Chrome,1536,864,,,a,1.1664,10,25,0,0,6,6,5,1,0,1,0,0,0,0,0,1,circle,star,,,,,,,,,,,,,,,,,,,,,,,,,,,,,,,,,,,,,,,,,,,,,,,,,,,,,,
297568,2022-11-27_12h43.16.694,vts_reward_expectancy_bt,2022.2.4,Win32,59.91970759,Chrome,1536,864,,,l,0.8051,10,35,0,0,7,7,8,1,0,0,1,0,0,0,0,1,hexagon,star,,,,,,,,,,,,,,,,,,,,,,,,,,,,,,,,,,,,,,,,,,,,,,,,,,,,,,
297568,2022-11-27_12h43.16.694,vts_reward_expectancy_bt,2022.2.4,Win32,59.91970759,Chrome,1536,864,,,a,0.9687,10,45,0,0,8,8,2,1,1,0,0,0,0,0,0,1,triangle,star,,,,,,,,,,,,,,,,,,,,,,,,,,,,,,,,,,,,,,,,,,,,,,,,,,,,,,
297568,2022-11-27_12h43.16.694,vts_reward_expectancy_bt,2022.2.4,Win32,59.91970759,Chrome,1536,864,,,l,1.4501,1,46,0,0,9,9,3,1,0,1,0,0,1,0,0,0,circle,triangle,,,,,,,,,,,,,,,,,,,,,,,,,,,,,,,,,,,,,,,,,,,,,,,,,,,,,,
297568,2022-11-27_12h43.16.694,vts_reward_expectancy_bt,2022.2.4,Win32,59.91970759,Chrome,1536,864,,,a,1.3129,10,56,0,0,10,10,11,1,0,0,0,1,0,0,1,0,star,hexagon,,,,,,,,,,,,,,,,,,,,,,,,,,,,,,,,,,,,,,,,,,,,,,,,,,,,,,
297568,2022-11-27_12h43.16.694,vts_reward_expectancy_bt,2022.2.4,Win32,59.91970759,Chrome,1536,864,,,l,0.9878,1,57,0,0,11,11,6,1,0,0,1,0,1,0,0,0,hexagon,triangle,,,,,,,,,,,,,,,,,,,,,,,,,,,,,,,,,,,,,,,,,,,,,,,,,,,,,,
297568,2022-11-27_12h43.16.694,vts_reward_expectancy_bt,2022.2.4,Win32,59.91970759,Chrome,1536,864,,,a,0.7749,10,67,0,1,0,12,5,1,0,1,0,0,0,0,0,1,circle,star,,,,,,,,,,,,,,,,,,,,,,,,,,,,,,,,,,,,,,,,,,,,,,,,,,,,,,
297568,2022-11-27_12h43.16.694,vts_reward_expectancy_bt,2022.2.4,Win32,59.91970759,Chrome,1536,864,,,a,1.1504,10,77,0,1,1,13,1,1,1,0,0,0,0,0,1,0,triangle,hexagon,,,,,,,,,,,,,,,,,,,,,,,,,,,,,,,,,,,,,,,,,,,,,,,,,,,,,,
297568,2022-11-27_12h43.16.694,vts_reward_expectancy_bt,2022.2.4,Win32,59.91970759,Chrome,1536,864,,,l,0.8551,1,78,0,1,2,14,2,1,1,0,0,0,0,0,0,1,triangle,star,,,,,,,,,,,,,,,,,,,,,,,,,,,,,,,,,,,,,,,,,,,,,,,,,,,,,,
297568,2022-11-27_12h43.16.694,vts_reward_expectancy_bt,2022.2.4,Win32,59.91970759,Chrome,1536,864,,,l,0.7333,10,88,0,1,3,15,7,1,0,0,1,0,0,1,0,0,hexagon,circle,,,,,,,,,,,,,,,,,,,,,,,,,,,,,,,,,,,,,,,,,,,,,,,,,,,,,,
297568,2022-11-27_12h43.16.694,vts_reward_expectancy_bt,2022.2.4,Win32,59.91970759,Chrome,1536,864,,,l,1.0869,1,89,0,1,4,16,8,1,0,0,1,0,0,0,0,1,hexagon,star,,,,,,,,,,,,,,,,,,,,,,,,,,,,,,,,,,,,,,,,,,,,,,,,,,,,,,
297568,2022-11-27_12h43.16.694,vts_reward_expectancy_bt,2022.2.4,Win32,59.91970759,Chrome,1536,864,,,l,0.6695,1,90,0,1,5,17,0,1,1,0,0,0,0,1,0,0,triangle,circle,,,,,,,,,,,,,,,,,,,,,,,,,,,,,,,,,,,,,,,,,,,,,,,,,,,,,,
297568,2022-11-27_12h43.16.694,vts_reward_expectancy_bt,2022.2.4,Win32,59.91970759,Chrome,1536,864,,,l,0.4835,1,91,0,1,6,18,6,1,0,0,1,0,1,0,0,0,hexagon,triangle,,,,,,,,,,,,,,,,,,,,,,,,,,,,,,,,,,,,,,,,,,,,,,,,,,,,,,
297568,2022-11-27_12h43.16.694,vts_reward_expectancy_bt,2022.2.4,Win32,59.91970759,Chrome,1536,864,,,a,0.5491,10,101,0,1,7,19,4,1,0,1,0,0,0,0,1,0,circle,hexagon,,,,,,,,,,,,,,,,,,,,,,,,,,,,,,,,,,,,,,,,,,,,,,,,,,,,,,
297568,2022-11-27_12h43.16.694,vts_reward_expectancy_bt,2022.2.4,Win32,59.91970759,Chrome,1536,864,,,a,0.4839,1,102,0,1,8,20,3,1,0,1,0,0,1,0,0,0,circle,triangle,,,,,,,,,,,,,,,,,,,,,,,,,,,,,,,,,,,,,,,,,,,,,,,,,,,,,,
297568,2022-11-27_12h43.16.694,vts_reward_expectancy_bt,2022.2.4,Win32,59.91970759,Chrome,1536,864,,,l,1.0361,1,103,0,1,9,21,11,1,0,0,0,1,0,0,1,0,star,hexagon,,,,,,,,,,,,,,,,,,,,,,,,,,,,,,,,,,,,,,,,,,,,,,,,,,,,,,
297568,2022-11-27_12h43.16.694,vts_reward_expectancy_bt,2022.2.4,Win32,59.91970759,Chrome,1536,864,,,a,0.333,1,104,0,1,10,22,10,1,0,0,0,1,0,1,0,0,star ,circle,,,,,,,,,,,,,,,,,,,,,,,,,,,,,,,,,,,,,,,,,,,,,,,,,,,,,,
297568,2022-11-27_12h43.16.694,vts_reward_expectancy_bt,2022.2.4,Win32,59.91970759,Chrome,1536,864,,,a,0.2675,10,114,0,1,11,23,9,1,0,0,0,1,1,0,0,0,star,triangle,,,,,,,,,,,,,,,,,,,,,,,,,,,,,,,,,,,,,,,,,,,,,,,,,,,,,,
297568,2022-11-27_12h43.16.694,vts_reward_expectancy_bt,2022.2.4,Win32,59.91970759,Chrome,1536,864,,,l,0.5962,1,115,0,2,0,24,0,1,1,0,0,0,0,1,0,0,triangle,circle,,,,,,,,,,,,,,,,,,,,,,,,,,,,,,,,,,,,,,,,,,,,,,,,,,,,,,
297568,2022-11-27_12h43.16.694,vts_reward_expectancy_bt,2022.2.4,Win32,59.91970759,Chrome,1536,864,,,l,0.4628,10,125,0,2,1,25,9,1,0,0,0,1,1,0,0,0,star,triangle,,,,,,,,,,,,,,,,,,,,,,,,,,,,,,,,,,,,,,,,,,,,,,,,,,,,,,
297568,2022-11-27_12h43.16.694,vts_reward_expectancy_bt,2022.2.4,Win32,59.91970759,Chrome,1536,864,,,l,1.0353,10,135,0,2,2,26,11,1,0,0,0,1,0,0,1,0,star,hexagon,,,,,,,,,,,,,,,,,,,,,,,,,,,,,,,,,,,,,,,,,,,,,,,,,,,,,,
297568,2022-11-27_12h43.16.694,vts_reward_expectancy_bt,2022.2.4,Win32,59.91970759,Chrome,1536,864,,,l,0.9826,1,136,0,2,3,27,1,1,1,0,0,0,0,0,1,0,triangle,hexagon,,,,,,,,,,,,,,,,,,,,,,,,,,,,,,,,,,,,,,,,,,,,,,,,,,,,,,
297568,2022-11-27_12h43.16.694,vts_reward_expectancy_bt,2022.2.4,Win32,59.91970759,Chrome,1536,864,,,a,0.4684,1,137,0,2,4,28,3,1,0,1,0,0,1,0,0,0,circle,triangle,,,,,,,,,,,,,,,,,,,,,,,,,,,,,,,,,,,,,,,,,,,,,,,,,,,,,,
297568,2022-11-27_12h43.16.694,vts_reward_expectancy_bt,2022.2.4,Win32,59.91970759,Chrome,1536,864,,,l,0.4744,10,147,0,2,5,29,10,1,0,0,0,1,0,1,0,0,star ,circle,,,,,,,,,,,,,,,,,,,,,,,,,,,,,,,,,,,,,,,,,,,,,,,,,,,,,,
297568,2022-11-27_12h43.16.694,vts_reward_expectancy_bt,2022.2.4,Win32,59.91970759,Chrome,1536,864,,,a,0.5819,10,157,0,2,6,30,4,1,0,1,0,0,0,0,1,0,circle,hexagon,,,,,,,,,,,,,,,,,,,,,,,,,,,,,,,,,,,,,,,,,,,,,,,,,,,,,,
297568,2022-11-27_12h43.16.694,vts_reward_expectancy_bt,2022.2.4,Win32,59.91970759,Chrome,1536,864,,,a,0.5696,10,167,0,2,7,31,5,1,0,1,0,0,0,0,0,1,circle,star,,,,,,,,,,,,,,,,,,,,,,,,,,,,,,,,,,,,,,,,,,,,,,,,,,,,,,
297568,2022-11-27_12h43.16.694,vts_reward_expectancy_bt,2022.2.4,Win32,59.91970759,Chrome,1536,864,,,a,0.9693,10,177,0,2,8,32,2,1,1,0,0,0,0,0,0,1,triangle,star,,,,,,,,,,,,,,,,,,,,,,,,,,,,,,,,,,,,,,,,,,,,,,,,,,,,,,
297568,2022-11-27_12h43.16.694,vts_reward_expectancy_bt,2022.2.4,Win32,59.91970759,Chrome,1536,864,,,l,1.1209,10,187,0,2,9,33,6,1,0,0,1,0,1,0,0,0,hexagon,triangle,,,,,,,,,,,,,,,,,,,,,,,,,,,,,,,,,,,,,,,,,,,,,,,,,,,,,,
297568,2022-11-27_12h43.16.694,vts_reward_expectancy_bt,2022.2.4,Win32,59.91970759,Chrome,1536,864,,,l,1.0523,10,197,0,2,10,34,8,1,0,0,1,0,0,0,0,1,hexagon,star,,,,,,,,,,,,,,,,,,,,,,,,,,,,,,,,,,,,,,,,,,,,,,,,,,,,,,
297568,2022-11-27_12h43.16.694,vts_reward_expectancy_bt,2022.2.4,Win32,59.91970759,Chrome,1536,864,,,l,0.484,1,198,0,2,11,35,7,1,0,0,1,0,0,1,0,0,hexagon,circle,,,,,,,,,,,,,,,,,,,,,,,,,,,,,,,,,,,,,,,,,,,,,,,,,,,,,,
297568,2022-11-27_12h43.16.694,vts_reward_expectancy_bt,2022.2.4,Win32,59.91970759,Chrome,1536,864,,,l,1.2146,10,208,1,0,0,0,9,1,0,0,0,1,1,0,0,0,star,triangle,,,,,,,,,,,,,,,,,,,,,,,,,,,,,,,,,,,,,,,,,,,,,,,,,,,,,,
297568,2022-11-27_12h43.16.694,vts_reward_expectancy_bt,2022.2.4,Win32,59.91970759,Chrome,1536,864,,,a,0.7187,1,209,1,0,1,1,8,1,0,0,1,0,0,0,0,1,hexagon,star,,,,,,,,,,,,,,,,,,,,,,,,,,,,,,,,,,,,,,,,,,,,,,,,,,,,,,
297568,2022-11-27_12h43.16.694,vts_reward_expectancy_bt,2022.2.4,Win32,59.91970759,Chrome,1536,864,,,a,0.6716,10,219,1,0,2,2,1,1,1,0,0,0,0,0,1,0,triangle,hexagon,,,,,,,,,,,,,,,,,,,,,,,,,,,,,,,,,,,,,,,,,,,,,,,,,,,,,,
297568,2022-11-27_12h43.16.694,vts_reward_expectancy_bt,2022.2.4,Win32,59.91970759,Chrome,1536,864,,,l,0.4182,1,220,1,0,3,3,0,1,1,0,0,0,0,1,0,0,triangle,circle,,,,,,,,,,,,,,,,,,,,,,,,,,,,,,,,,,,,,,,,,,,,,,,,,,,,,,
297568,2022-11-27_12h43.16.694,vts_reward_expectancy_bt,2022.2.4,Win32,59.91970759,Chrome,1536,864,,,a,1.2861,10,230,1,0,4,4,4,1,0,1,0,0,0,0,1,0,circle,hexagon,,,,,,,,,,,,,,,,,,,,,,,,,,,,,,,,,,,,,,,,,,,,,,,,,,,,,,
297568,2022-11-27_12h43.16.694,vts_reward_expectancy_bt,2022.2.4,Win32,59.91970759,Chrome,1536,864,,,l,0.5983,1,231,1,0,5,5,6,1,0,0,1,0,1,0,0,0,hexagon,triangle,,,,,,,,,,,,,,,,,,,,,,,,,,,,,,,,,,,,,,,,,,,,,,,,,,,,,,
297568,2022-11-27_12h43.16.694,vts_reward_expectancy_bt,2022.2.4,Win32,59.91970759,Chrome,1536,864,,,l,0.885,10,241,1,0,6,6,10,1,0,0,0,1,0,1,0,0,star ,circle,,,,,,,,,,,,,,,,,,,,,,,,,,,,,,,,,,,,,,,,,,,,,,,,,,,,,,
297568,2022-11-27_12h43.16.694,vts_reward_expectancy_bt,2022.2.4,Win32,59.91970759,Chrome,1536,864,,,a,0.5026,1,242,1,0,7,7,2,1,1,0,0,0,0,0,0,1,triangle,star,,,,,,,,,,,,,,,,,,,,,,,,,,,,,,,,,,,,,,,,,,,,,,,,,,,,,,
297568,2022-11-27_12h43.16.694,vts_reward_expectancy_bt,2022.2.4,Win32,59.91970759,Chrome,1536,864,,,l,0.585,1,243,1,0,8,8,7,1,0,0,1,0,0,1,0,0,hexagon,circle,,,,,,,,,,,,,,,,,,,,,,,,,,,,,,,,,,,,,,,,,,,,,,,,,,,,,,
297568,2022-11-27_12h43.16.694,vts_reward_expectancy_bt,2022.2.4,Win32,59.91970759,Chrome,1536,864,,,a,0.8014,1,244,1,0,9,9,11,1,0,0,0,1,0,0,1,0,star,hexagon,,,,,,,,,,,,,,,,,,,,,,,,,,,,,,,,,,,,,,,,,,,,,,,,,,,,,,
297568,2022-11-27_12h43.16.694,vts_reward_expectancy_bt,2022.2.4,Win32,59.91970759,Chrome,1536,864,,,l,0.9121,1,245,1,0,10,10,3,1,0,1,0,0,1,0,0,0,circle,triangle,,,,,,,,,,,,,,,,,,,,,,,,,,,,,,,,,,,,,,,,,,,,,,,,,,,,,,
297568,2022-11-27_12h43.16.694,vts_reward_expectancy_bt,2022.2.4,Win32,59.91970759,Chrome,1536,864,,,a,0.4523,1,246,1,0,11,11,5,1,0,1,0,0,0,0,0,1,circle,star,,,,,,,,,,,,,,,,,,,,,,,,,,,,,,,,,,,,,,,,,,,,,,,,,,,,,,
297568,2022-11-27_12h43.16.694,vts_reward_expectancy_bt,2022.2.4,Win32,59.91970759,Chrome,1536,864,,,a,0.7353,10,256,1,1,0,12,5,1,0,1,0,0,0,0,0,1,circle,star,,,,,,,,,,,,,,,,,,,,,,,,,,,,,,,,,,,,,,,,,,,,,,,,,,,,,,
297568,2022-11-27_12h43.16.694,vts_reward_expectancy_bt,2022.2.4,Win32,59.91970759,Chrome,1536,864,,,a,0.5739,10,266,1,1,1,13,3,1,0,1,0,0,1,0,0,0,circle,triangle,,,,,,,,,,,,,,,,,,,,,,,,,,,,,,,,,,,,,,,,,,,,,,,,,,,,,,
297568,2022-11-27_12h43.16.694,vts_reward_expectancy_bt,2022.2.4,Win32,59.91970759,Chrome,1536,864,,,l,0.4851,1,267,1,1,2,14,6,1,0,0,1,0,1,0,0,0,hexagon,triangle,,,,,,,,,,,,,,,,,,,,,,,,,,,,,,,,,,,,,,,,,,,,,,,,,,,,,,
297568,2022-11-27_12h43.16.694,vts_reward_expectancy_bt,2022.2.4,Win32,59.91970759,Chrome,1536,864,,,l,0.2848,1,268,1,1,3,15,4,1,0,1,0,0,0,0,1,0,circle,hexagon,,,,,,,,,,,,,,,,,,,,,,,,,,,,,,,,,,,,,,,,,,,,,,,,,,,,,,
297568,2022-11-27_12h43.16.694,vts_reward_expectancy_bt,2022.2.4,Win32,59.91970759,Chrome,1536,864,,,l,0.3058,10,278,1,1,4,16,7,1,0,0,1,0,0,1,0,0,hexagon,circle,,,,,,,,,,,,,,,,,,,,,,,,,,,,,,,,,,,,,,,,,,,,,,,,,,,,,,
297568,2022-11-27_12h43.16.694,vts_reward_expectancy_bt,2022.2.4,Win32,59.91970759,Chrome,1536,864,,,a,0.552,10,288,1,1,5,17,11,1,0,0,0,1,0,0,1,0,star,hexagon,,,,,,,,,,,,,,,,,,,,,,,,,,,,,,,,,,,,,,,,,,,,,,,,,,,,,,
297568,2022-11-27_12h43.16.694,vts_reward_expectancy_bt,2022.2.4,Win32,59.91970759,Chrome,1536,864,,,l,0.3057,10,298,1,1,6,18,2,1,1,0,0,0,0,0,0,1,triangle,star,,,,,,,,,,,,,,,,,,,,,,,,,,,,,,,,,,,,,,,,,,,,,,,,,,,,,,
297568,2022-11-27_12h43.16.694,vts_reward_expectancy_bt,2022.2.4,Win32,59.91970759,Chrome,1536,864,,,a,0.4346,10,308,1,1,7,19,9,1,0,0,0,1,1,0,0,0,star,triangle,,,,,,,,,,,,,,,,,,,,,,,,,,,,,,,,,,,,,,,,,,,,,,,,,,,,,,
297568,2022-11-27_12h43.16.694,vts_reward_expectancy_bt,2022.2.4,Win32,59.91970759,Chrome,1536,864,,,a,0.9958,10,318,1,1,8,20,0,1,1,0,0,0,0,1,0,0,triangle,circle,,,,,,,,,,,,,,,,,,,,,,,,,,,,,,,,,,,,,,,,,,,,,,,,,,,,,,
297568,2022-11-27_12h43.16.694,vts_reward_expectancy_bt,2022.2.4,Win32,59.91970759,Chrome,1536,864,,,a,0.8053,10,328,1,1,9,21,1,1,1,0,0,0,0,0,1,0,triangle,hexagon,,,,,,,,,,,,,,,,,,,,,,,,,,,,,,,,,,,,,,,,,,,,,,,,,,,,,,
297568,2022-11-27_12h43.16.694,vts_reward_expectancy_bt,2022.2.4,Win32,59.91970759,Chrome,1536,864,,,l,0.4355,10,338,1,1,10,22,8,1,0,0,1,0,0,0,0,1,hexagon,star,,,,,,,,,,,,,,,,,,,,,,,,,,,,,,,,,,,,,,,,,,,,,,,,,,,,,,
297568,2022-11-27_12h43.16.694,vts_reward_expectancy_bt,2022.2.4,Win32,59.91970759,Chrome,1536,864,,,a,0.6179,10,348,1,1,11,23,10,1,0,0,0,1,0,1,0,0,star ,circle,,,,,,,,,,,,,,,,,,,,,,,,,,,,,,,,,,,,,,,,,,,,,,,,,,,,,,
297568,2022-11-27_12h43.16.694,vts_reward_expectancy_bt,2022.2.4,Win32,59.91970759,Chrome,1536,864,,,l,0.3904,10,358,1,2,0,24,8,1,0,0,1,0,0,0,0,1,hexagon,star,,,,,,,,,,,,,,,,,,,,,,,,,,,,,,,,,,,,,,,,,,,,,,,,,,,,,,
297568,2022-11-27_12h43.16.694,vts_reward_expectancy_bt,2022.2.4,Win32,59.91970759,Chrome,1536,864,,,l,0.7481,10,368,1,2,1,25,7,1,0,0,1,0,0,1,0,0,hexagon,circle,,,,,,,,,,,,,,,,,,,,,,,,,,,,,,,,,,,,,,,,,,,,,,,,,,,,,,
297568,2022-11-27_12h43.16.694,vts_reward_expectancy_bt,2022.2.4,Win32,59.91970759,Chrome,1536,864,,,a,0.5013,10,378,1,2,2,26,11,1,0,0,0,1,0,0,1,0,star,hexagon,,,,,,,,,,,,,,,,,,,,,,,,,,,,,,,,,,,,,,,,,,,,,,,,,,,,,,
297568,2022-11-27_12h43.16.694,vts_reward_expectancy_bt,2022.2.4,Win32,59.91970759,Chrome,1536,864,,,l,0.6027,10,388,1,2,3,27,0,1,1,0,0,0,0,1,0,0,triangle,circle,,,,,,,,,,,,,,,,,,,,,,,,,,,,,,,,,,,,,,,,,,,,,,,,,,,,,,
297568,2022-11-27_12h43.16.694,vts_reward_expectancy_bt,2022.2.4,Win32,59.91970759,Chrome,1536,864,,,a,0.5516,1,389,1,2,4,28,4,1,0,1,0,0,0,0,1,0,circle,hexagon,,,,,,,,,,,,,,,,,,,,,,,,,,,,,,,,,,,,,,,,,,,,,,,,,,,,,,
297568,2022-11-27_12h43.16.694,vts_reward_expectancy_bt,2022.2.4,Win32,59.91970759,Chrome,1536,864,,,a,1.0343,10,399,1,2,5,29,9,1,0,0,0,1,1,0,0,0,star,triangle,,,,,,,,,,,,,,,,,,,,,,,,,,,,,,,,,,,,,,,,,,,,,,,,,,,,,,
297568,2022-11-27_12h43.16.694,vts_reward_expectancy_bt,2022.2.4,Win32,59.91970759,Chrome,1536,864,,,l,1.2692,10,409,1,2,6,30,2,1,1,0,0,0,0,0,0,1,triangle,star,,,,,,,,,,,,,,,,,,,,,,,,,,,,,,,,,,,,,,,,,,,,,,,,,,,,,,
297568,2022-11-27_12h43.16.694,vts_reward_expectancy_bt,2022.2.4,Win32,59.91970759,Chrome,1536,864,,,a,0.5469,1,410,1,2,7,31,6,1,0,0,1,0,1,0,0,0,hexagon,triangle,,,,,,,,,,,,,,,,,,,,,,,,,,,,,,,,,,,,,,,,,,,,,,,,,,,,,,
297568,2022-11-27_12h43.16.694,vts_reward_expectancy_bt,2022.2.4,Win32,59.91970759,Chrome,1536,864,,,a,1.0332,10,420,1,2,8,32,5,1,0,1,0,0,0,0,0,1,circle,star,,,,,,,,,,,,,,,,,,,,,,,,,,,,,,,,,,,,,,,,,,,,,,,,,,,,,,
297568,2022-11-27_12h43.16.694,vts_reward_expectancy_bt,2022.2.4,Win32,59.91970759,Chrome,1536,864,,,a,0.6382,10,430,1,2,9,33,1,1,1,0,0,0,0,0,1,0,triangle,hexagon,,,,,,,,,,,,,,,,,,,,,,,,,,,,,,,,,,,,,,,,,,,,,,,,,,,,,,
297568,2022-11-27_12h43.16.694,vts_reward_expectancy_bt,2022.2.4,Win32,59.91970759,Chrome,1536,864,,,a,0.5959,10,440,1,2,10,34,3,1,0,1,0,0,1,0,0,0,circle,triangle,,,,,,,,,,,,,,,,,,,,,,,,,,,,,,,,,,,,,,,,,,,,,,,,,,,,,,
297568,2022-11-27_12h43.16.694,vts_reward_expectancy_bt,2022.2.4,Win32,59.91970759,Chrome,1536,864,,,l,0.9865,10,450,1,2,11,35,10,1,0,0,0,1,0,1,0,0,star ,circle,,,,,,,,,,,,,,,,,,,,,,,,,,,,,,,,,,,,,,,,,,,,,,,,,,,,,,
297568,2022-11-27_12h43.16.694,vts_reward_expectancy_bt,2022.2.4,Win32,59.91970759,Chrome,1536,864,,,a,1.0103,10,460,2,0,0,0,9,1,0,0,0,1,1,0,0,0,star,triangle,,,,,,,,,,,,,,,,,,,,,,,,,,,,,,,,,,,,,,,,,,,,,,,,,,,,,,
297568,2022-11-27_12h43.16.694,vts_reward_expectancy_bt,2022.2.4,Win32,59.91970759,Chrome,1536,864,,,l,0.6055,10,470,2,0,1,1,5,1,0,1,0,0,0,0,0,1,circle,star,,,,,,,,,,,,,,,,,,,,,,,,,,,,,,,,,,,,,,,,,,,,,,,,,,,,,,
297568,2022-11-27_12h43.16.694,vts_reward_expectancy_bt,2022.2.4,Win32,59.91970759,Chrome,1536,864,,,a,0.3849,10,480,2,0,2,2,11,1,0,0,0,1,0,0,1,0,star,hexagon,,,,,,,,,,,,,,,,,,,,,,,,,,,,,,,,,,,,,,,,,,,,,,,,,,,,,,
297568,2022-11-27_12h43.16.694,vts_reward_expectancy_bt,2022.2.4,Win32,59.91970759,Chrome,1536,864,,,l,0.5192,10,490,2,0,3,3,7,1,0,0,1,0,0,1,0,0,hexagon,circle,,,,,,,,,,,,,,,,,,,,,,,,,,,,,,,,,,,,,,,,,,,,,,,,,,,,,,
297568,2022-11-27_12h43.16.694,vts_reward_expectancy_bt,2022.2.4,Win32,59.91970759,Chrome,1536,864,,,a,0.3714,10,500,2,0,4,4,10,1,0,0,0,1,0,1,0,0,star ,circle,,,,,,,,,,,,,,,,,,,,,,,,,,,,,,,,,,,,,,,,,,,,,,,,,,,,,,
297568,2022-11-27_12h43.16.694,vts_reward_expectancy_bt,2022.2.4,Win32,59.91970759,Chrome,1536,864,,,a,0.4861,1,501,2,0,5,5,3,1,0,1,0,0,1,0,0,0,circle,triangle,,,,,,,,,,,,,,,,,,,,,,,,,,,,,,,,,,,,,,,,,,,,,,,,,,,,,,
297568,2022-11-27_12h43.16.694,vts_reward_expectancy_bt,2022.2.4,Win32,59.91970759,Chrome,1536,864,,,l,0.6688,10,511,2,0,6,6,8,1,0,0,1,0,0,0,0,1,hexagon,star,,,,,,,,,,,,,,,,,,,,,,,,,,,,,,,,,,,,,,,,,,,,,,,,,,,,,,
297568,2022-11-27_12h43.16.694,vts_reward_expectancy_bt,2022.2.4,Win32,59.91970759,Chrome,1536,864,,,a,0.4346,10,521,2,0,7,7,1,1,1,0,0,0,0,0,1,0,triangle,hexagon,,,,,,,,,,,,,,,,,,,,,,,,,,,,,,,,,,,,,,,,,,,,,,,,,,,,,,
297568,2022-11-27_12h43.16.694,vts_reward_expectancy_bt,2022.2.4,Win32,59.91970759,Chrome,1536,864,,,l,0.5712,10,531,2,0,8,8,0,1,1,0,0,0,0,1,0,0,triangle,circle,,,,,,,,,,,,,,,,,,,,,,,,,,,,,,,,,,,,,,,,,,,,,,,,,,,,,,
297568,2022-11-27_12h43.16.694,vts_reward_expectancy_bt,2022.2.4,Win32,59.91970759,Chrome,1536,864,,,a,0.5449,10,541,2,0,9,9,6,1,0,0,1,0,1,0,0,0,hexagon,triangle,,,,,,,,,,,,,,,,,,,,,,,,,,,,,,,,,,,,,,,,,,,,,,,,,,,,,,
297568,2022-11-27_12h43.16.694,vts_reward_expectancy_bt,2022.2.4,Win32,59.91970759,Chrome,1536,864,,,l,1.0025,10,551,2,0,10,10,2,1,1,0,0,0,0,0,0,1,triangle,star,,,,,,,,,,,,,,,,,,,,,,,,,,,,,,,,,,,,,,,,,,,,,,,,,,,,,,
297568,2022-11-27_12h43.16.694,vts_reward_expectancy_bt,2022.2.4,Win32,59.91970759,Chrome,1536,864,,,l,0.4096,10,561,2,0,11,11,4,1,0,1,0,0,0,0,1,0,circle,hexagon,,,,,,,,,,,,,,,,,,,,,,,,,,,,,,,,,,,,,,,,,,,,,,,,,,,,,,
297568,2022-11-27_12h43.16.694,vts_reward_expectancy_bt,2022.2.4,Win32,59.91970759,Chrome,1536,864,,,l,0.4348,1,562,2,1,0,12,8,1,0,0,1,0,0,0,0,1,hexagon,star,,,,,,,,,,,,,,,,,,,,,,,,,,,,,,,,,,,,,,,,,,,,,,,,,,,,,,
297568,2022-11-27_12h43.16.694,vts_reward_expectancy_bt,2022.2.4,Win32,59.91970759,Chrome,1536,864,,,a,0.2712,10,572,2,1,1,13,5,1,0,1,0,0,0,0,0,1,circle,star,,,,,,,,,,,,,,,,,,,,,,,,,,,,,,,,,,,,,,,,,,,,,,,,,,,,,,
297568,2022-11-27_12h43.16.694,vts_reward_expectancy_bt,2022.2.4,Win32,59.91970759,Chrome,1536,864,,,l,0.5846,1,573,2,1,2,14,11,1,0,0,0,1,0,0,1,0,star,hexagon,,,,,,,,,,,,,,,,,,,,,,,,,,,,,,,,,,,,,,,,,,,,,,,,,,,,,,
297568,2022-11-27_12h43.16.694,vts_reward_expectancy_bt,2022.2.4,Win32,59.91970759,Chrome,1536,864,,,a,0.3846,1,574,2,1,3,15,10,1,0,0,0,1,0,1,0,0,star ,circle,,,,,,,,,,,,,,,,,,,,,,,,,,,,,,,,,,,,,,,,,,,,,,,,,,,,,,
297568,2022-11-27_12h43.16.694,vts_reward_expectancy_bt,2022.2.4,Win32,59.91970759,Chrome,1536,864,,,a,0.2107,10,584,2,1,4,16,6,1,0,0,1,0,1,0,0,0,hexagon,triangle,,,,,,,,,,,,,,,,,,,,,,,,,,,,,,,,,,,,,,,,,,,,,,,,,,,,,,
297568,2022-11-27_12h43.16.694,vts_reward_expectancy_bt,2022.2.4,Win32,59.91970759,Chrome,1536,864,,,l,0.4013,10,594,2,1,5,17,3,1,0,1,0,0,1,0,0,0,circle,triangle,,,,,,,,,,,,,,,,,,,,,,,,,,,,,,,,,,,,,,,,,,,,,,,,,,,,,,
297568,2022-11-27_12h43.16.694,vts_reward_expectancy_bt,2022.2.4,Win32,59.91970759,Chrome,1536,864,,,l,0.4847,10,604,2,1,6,18,9,1,0,0,0,1,1,0,0,0,star,triangle,,,,,,,,,,,,,,,,,,,,,,,,,,,,,,,,,,,,,,,,,,,,,,,,,,,,,,
297568,2022-11-27_12h43.16.694,vts_reward_expectancy_bt,2022.2.4,Win32,59.91970759,Chrome,1536,864,,,l,0.5015,10,614,2,1,7,19,7,1,0,0,1,0,0,1,0,0,hexagon,circle,,,,,,,,,,,,,,,,,,,,,,,,,,,,,,,,,,,,,,,,,,,,,,,,,,,,,,
297568,2022-11-27_12h43.16.694,vts_reward_expectancy_bt,2022.2.4,Win32,59.91970759,Chrome,1536,864,,,a,0.4509,10,624,2,1,8,20,2,1,1,0,0,0,0,0,0,1,triangle,star,,,,,,,,,,,,,,,,,,,,,,,,,,,,,,,,,,,,,,,,,,,,,,,,,,,,,,
297568,2022-11-27_12h43.16.694,vts_reward_expectancy_bt,2022.2.4,Win32,59.91970759,Chrome,1536,864,,,a,0.6443,10,634,2,1,9,21,0,1,1,0,0,0,0,1,0,0,triangle,circle,,,,,,,,,,,,,,,,,,,,,,,,,,,,,,,,,,,,,,,,,,,,,,,,,,,,,,
297568,2022-11-27_12h43.16.694,vts_reward_expectancy_bt,2022.2.4,Win32,59.91970759,Chrome,1536,864,,,a,0.819,1,635,2,1,10,22,1,1,1,0,0,0,0,0,1,0,triangle,hexagon,,,,,,,,,,,,,,,,,,,,,,,,,,,,,,,,,,,,,,,,,,,,,,,,,,,,,,
297568,2022-11-27_12h43.16.694,vts_reward_expectancy_bt,2022.2.4,Win32,59.91970759,Chrome,1536,864,,,l,0.4017,1,636,2,1,11,23,4,1,0,1,0,0,0,0,1,0,circle,hexagon,,,,,,,,,,,,,,,,,,,,,,,,,,,,,,,,,,,,,,,,,,,,,,,,,,,,,,
297568,2022-11-27_12h43.16.694,vts_reward_expectancy_bt,2022.2.4,Win32,59.91970759,Chrome,1536,864,,,a,0.4065,1,637,2,2,0,24,3,1,0,1,0,0,1,0,0,0,circle,triangle,,,,,,,,,,,,,,,,,,,,,,,,,,,,,,,,,,,,,,,,,,,,,,,,,,,,,,
297568,2022-11-27_12h43.16.694,vts_reward_expectancy_bt,2022.2.4,Win32,59.91970759,Chrome,1536,864,,,l,0.6179,1,638,2,2,1,25,8,1,0,0,1,0,0,0,0,1,hexagon,star,,,,,,,,,,,,,,,,,,,,,,,,,,,,,,,,,,,,,,,,,,,,,,,,,,,,,,
297568,2022-11-27_12h43.16.694,vts_reward_expectancy_bt,2022.2.4,Win32,59.91970759,Chrome,1536,864,,,l,0.2692,1,639,2,2,2,26,5,1,0,1,0,0,0,0,0,1,circle,star,,,,,,,,,,,,,,,,,,,,,,,,,,,,,,,,,,,,,,,,,,,,,,,,,,,,,,
297568,2022-11-27_12h43.16.694,vts_reward_expectancy_bt,2022.2.4,Win32,59.91970759,Chrome,1536,864,,,l,0.8189,1,640,2,2,3,27,4,1,0,1,0,0,0,0,1,0,circle,hexagon,,,,,,,,,,,,,,,,,,,,,,,,,,,,,,,,,,,,,,,,,,,,,,,,,,,,,,
297568,2022-11-27_12h43.16.694,vts_reward_expectancy_bt,2022.2.4,Win32,59.91970759,Chrome,1536,864,,,a,0.738,1,641,2,2,4,28,11,1,0,0,0,1,0,0,1,0,star,hexagon,,,,,,,,,,,,,,,,,,,,,,,,,,,,,,,,,,,,,,,,,,,,,,,,,,,,,,
297568,2022-11-27_12h43.16.694,vts_reward_expectancy_bt,2022.2.4,Win32,59.91970759,Chrome,1536,864,,,a,0.3678,10,651,2,2,5,29,6,1,0,0,1,0,1,0,0,0,hexagon,triangle,,,,,,,,,,,,,,,,,,,,,,,,,,,,,,,,,,,,,,,,,,,,,,,,,,,,,,
297568,2022-11-27_12h43.16.694,vts_reward_expectancy_bt,2022.2.4,Win32,59.91970759,Chrome,1536,864,,,l,0.8354,1,652,2,2,6,30,1,1,1,0,0,0,0,0,1,0,triangle,hexagon,,,,,,,,,,,,,,,,,,,,,,,,,,,,,,,,,,,,,,,,,,,,,,,,,,,,,,
297568,2022-11-27_12h43.16.694,vts_reward_expectancy_bt,2022.2.4,Win32,59.91970759,Chrome,1536,864,,,a,0.4801,10,662,2,2,7,31,2,1,1,0,0,0,0,0,0,1,triangle,star,,,,,,,,,,,,,,,,,,,,,,,,,,,,,,,,,,,,,,,,,,,,,,,,,,,,,,
297568,2022-11-27_12h43.16.694,vts_reward_expectancy_bt,2022.2.4,Win32,59.91970759,Chrome,1536,864,,,l,0.6848,10,672,2,2,8,32,10,1,0,0,0,1,0,1,0,0,star ,circle,,,,,,,,,,,,,,,,,,,,,,,,,,,,,,,,,,,,,,,,,,,,,,,,,,,,,,
297568,2022-11-27_12h43.16.694,vts_reward_expectancy_bt,2022.2.4,Win32,59.91970759,Chrome,1536,864,,,l,0.6512,1,673,2,2,9,33,9,1,0,0,0,1,1,0,0,0,star,triangle,,,,,,,,,,,,,,,,,,,,,,,,,,,,,,,,,,,,,,,,,,,,,,,,,,,,,,
297568,2022-11-27_12h43.16.694,vts_reward_expectancy_bt,2022.2.4,Win32,59.91970759,Chrome,1536,864,,,l,0.3849,1,674,2,2,10,34,0,1,1,0,0,0,0,1,0,0,triangle,circle,,,,,,,,,,,,,,,,,,,,,,,,,,,,,,,,,,,,,,,,,,,,,,,,,,,,,,
297568,2022-11-27_12h43.16.694,vts_reward_expectancy_bt,2022.2.4,Win32,59.91970759,Chrome,1536,864,,,l,0.4816,10,684,2,2,11,35,7,1,0,0,1,0,0,1,0,0,hexagon,circle,,,,,,,,,,,,,,,,,,,,,,,,,,,,,,,,,,,,,,,,,,,,,,,,,,,,,,
297568,2022-11-27_12h43.16.694,vts_reward_expectancy_bt,2022.2.4,Win32,59.91970759,Chrome,1536,864,,,,,,,,,,,,,,,,,,,,,,,F,167,triangle,0,0,,0,0,0,0,0,1,,,,,,,,,,,,,,,,,,,,,,,,,,,,,,,,,,,,,,,,,,
297568,2022-11-27_12h43.16.694,vts_reward_expectancy_bt,2022.2.4,Win32,59.91970759,Chrome,1536,864,,,,,,,,,,,,,,,,,,,,,,,W,125,star,0,1,,0,1,0,1,0,1,,,,,,,,,,,,,,,,,,,,,,,,,,,,,,,,,,,,,,,,,,
297568,2022-11-27_12h43.16.694,vts_reward_expectancy_bt,2022.2.4,Win32,59.91970759,Chrome,1536,864,,,,,,,,,,,,,,,,,,,,,,,U,174,circle,0,1,d,0,2,0,2,0,1,0.4685,,,,,,,,,,,,,,,,,,,,,,,,,,,,,,,,,,,,,,,,,
297568,2022-11-27_12h43.16.694,vts_reward_expectancy_bt,2022.2.4,Win32,59.91970759,Chrome,1536,864,,,,,,,,,,,,,,,,,,,,,,,H,146,hexagon,0,1,f,0,3,0,3,0,1,0.3152,,,,,,,,,,,,,,,,,,,,,,,,,,,,,,,,,,,,,,,,,
297568,2022-11-27_12h43.16.694,vts_reward_expectancy_bt,2022.2.4,Win32,59.91970759,Chrome,1536,864,,,,,,,,,,,,,,,,,,,,,,,D,181,triangle,1,1,d,0,4,0,4,0,1,0.3339,,,,,,,,,,,,,,,,,,,,,,,,,,,,,,,,,,,,,,,,,
297568,2022-11-27_12h43.16.694,vts_reward_expectancy_bt,2022.2.4,Win32,59.91970759,Chrome,1536,864,,,,,,,,,,,,,,,,,,,,,,,S,139,star,0,0,d,0,5,0,5,0,1,0.7791,,,,,,,,,,,,,,,,,,,,,,,,,,,,,,,,,,,,,,,,,
297568,2022-11-27_12h43.16.694,vts_reward_expectancy_bt,2022.2.4,Win32,59.91970759,Chrome,1536,864,,,,,,,,,,,,,,,,,,,,,,,Y,160,circle,0,1,d,0,6,0,6,0,1,0.5691,,,,,,,,,,,,,,,,,,,,,,,,,,,,,,,,,,,,,,,,,
297568,2022-11-27_12h43.16.694,vts_reward_expectancy_bt,2022.2.4,Win32,59.91970759,Chrome,1536,864,,,,,,,,,,,,,,,,,,,,,,,B,132,hexagon,0,1,f,0,7,0,7,0,1,0.5115,,,,,,,,,,,,,,,,,,,,,,,,,,,,,,,,,,,,,,,,,
297568,2022-11-27_12h43.16.694,vts_reward_expectancy_bt,2022.2.4,Win32,59.91970759,Chrome,1536,864,,,,,,,,,,,,,,,,,,,,,,,F,167,circle,1,1,d,0,8,0,8,0,1,0.7226,,,,,,,,,,,,,,,,,,,,,,,,,,,,,,,,,,,,,,,,,
297568,2022-11-27_12h43.16.694,vts_reward_expectancy_bt,2022.2.4,Win32,59.91970759,Chrome,1536,864,,,,,,,,,,,,,,,,,,,,,,,W,125,star,0,0,d,0,9,0,9,0,1,0.5056,,,,,,,,,,,,,,,,,,,,,,,,,,,,,,,,,,,,,,,,,
297568,2022-11-27_12h43.16.694,vts_reward_expectancy_bt,2022.2.4,Win32,59.91970759,Chrome,1536,864,,,,,,,,,,,,,,,,,,,,,,,F,125,triangle,1,1,d,1,0,0,0,0,1,0.8855,,,,,,,,,,,,,,,,,,,,,,,,,,,,,,,,,,,,,,,,,
297568,2022-11-27_12h43.16.694,vts_reward_expectancy_bt,2022.2.4,Win32,59.91970759,Chrome,1536,864,,,,,,,,,,,,,,,,,,,,,,,Y,139,hexagon,1,0,f,1,1,0,1,0,1,0.5956,,,,,,,,,,,,,,,,,,,,,,,,,,,,,,,,,,,,,,,,,
297568,2022-11-27_12h43.16.694,vts_reward_expectancy_bt,2022.2.4,Win32,59.91970759,Chrome,1536,864,,,,,,,,,,,,,,,,,,,,,,,H,181,circle,1,0,d,1,2,0,2,0,1,0.702,,,,,,,,,,,,,,,,,,,,,,,,,,,,,,,,,,,,,,,,,
297568,2022-11-27_12h43.16.694,vts_reward_expectancy_bt,2022.2.4,Win32,59.91970759,Chrome,1536,864,,,,,,,,,,,,,,,,,,,,,,,S,132,star,1,0,f,1,3,0,3,0,1,0.7079,,,,,,,,,,,,,,,,,,,,,,,,,,,,,,,,,,,,,,,,,
297568,2022-11-27_12h43.16.694,vts_reward_expectancy_bt,2022.2.4,Win32,59.91970759,Chrome,1536,864,,,,,,,,,,,,,,,,,,,,,,,W,160,triangle,1,0,f,1,4,0,4,0,1,0.5957,,,,,,,,,,,,,,,,,,,,,,,,,,,,,,,,,,,,,,,,,
297568,2022-11-27_12h43.16.694,vts_reward_expectancy_bt,2022.2.4,Win32,59.91970759,Chrome,1536,864,,,,,,,,,,,,,,,,,,,,,,,B,146,hexagon,1,0,d,1,5,0,5,0,1,0.7207,,,,,,,,,,,,,,,,,,,,,,,,,,,,,,,,,,,,,,,,,
297568,2022-11-27_12h43.16.694,vts_reward_expectancy_bt,2022.2.4,Win32,59.91970759,Chrome,1536,864,,,,,,,,,,,,,,,,,,,,,,,U,174,circle,1,0,f,1,6,0,6,0,1,0.6744,,,,,,,,,,,,,,,,,,,,,,,,,,,,,,,,,,,,,,,,,
297568,2022-11-27_12h43.16.694,vts_reward_expectancy_bt,2022.2.4,Win32,59.91970759,Chrome,1536,864,,,,,,,,,,,,,,,,,,,,,,,D,167,star,1,0,d,1,7,0,7,0,1,0.6267,,,,,,,,,,,,,,,,,,,,,,,,,,,,,,,,,,,,,,,,,
297568,2022-11-27_12h43.16.694,vts_reward_expectancy_bt,2022.2.4,Win32,59.91970759,Chrome,1536,864,,,,,,,,,,,,,,,,,,,,,,,F,125,circle,1,0,d,1,8,0,8,0,1,0.7297,,,,,,,,,,,,,,,,,,,,,,,,,,,,,,,,,,,,,,,,,
297568,2022-11-27_12h43.16.694,vts_reward_expectancy_bt,2022.2.4,Win32,59.91970759,Chrome,1536,864,,,,,,,,,,,,,,,,,,,,,,,Y,139,star,1,0,f,1,9,0,9,0,1,0.7071,,,,,,,,,,,,,,,,,,,,,,,,,,,,,,,,,,,,,,,,,
297568,2022-11-27_12h43.16.694,vts_reward_expectancy_bt,2022.2.4,Win32,59.91970759,Chrome,1536,864,,,,,,,,,,,,,,,,,,,,,,,H,160,triangle,1,0,,2,,,,,,,k,0.9523,0,0,0,0,1,,,,,,,,,,,,,,,,,,,,,,,,,,,,,,,,,,
297568,2022-11-27_12h43.16.694,vts_reward_expectancy_bt,2022.2.4,Win32,59.91970759,Chrome,1536,864,,,,,,,,,,,,,,,,,,,,,,,B,146,star,1,0,,2,,,,,,,j,0.9297,1,0,1,0,1,,,,,,,,,,,,,,,,,,,,,,,,,,,,,,,,,,
297568,2022-11-27_12h43.16.694,vts_reward_expectancy_bt,2022.2.4,Win32,59.91970759,Chrome,1536,864,,,,,,,,,,,,,,,,,,,,,,,S,181,hexagon,0,0,,2,,,,,,,j,1.3541,2,0,2,0,1,,,,,,,,,,,,,,,,,,,,,,,,,,,,,,,,,,
297568,2022-11-27_12h43.16.694,vts_reward_expectancy_bt,2022.2.4,Win32,59.91970759,Chrome,1536,864,,,,,,,,,,,,,,,,,,,,,,,D,139,circle,1,1,,2,,,,,,,j,0.8341,3,0,3,0,1,,,,,,,,,,,,,,,,,,,,,,,,,,,,,,,,,,
297568,2022-11-27_12h43.16.694,vts_reward_expectancy_bt,2022.2.4,Win32,59.91970759,Chrome,1536,864,,,,,,,,,,,,,,,,,,,,,,,F,167,triangle,1,0,,2,,,,,,,k,0.6968,4,0,4,0,1,,,,,,,,,,,,,,,,,,,,,,,,,,,,,,,,,,
297568,2022-11-27_12h43.16.694,vts_reward_expectancy_bt,2022.2.4,Win32,59.91970759,Chrome,1536,864,,,,,,,,,,,,,,,,,,,,,,,W,174,star,1,0,,2,,,,,,,k,0.797,5,0,5,0,1,,,,,,,,,,,,,,,,,,,,,,,,,,,,,,,,,,
297568,2022-11-27_12h43.16.694,vts_reward_expectancy_bt,2022.2.4,Win32,59.91970759,Chrome,1536,864,,,,,,,,,,,,,,,,,,,,,,,Y,125,hexagon,1,0,,2,,,,,,,j,0.7619,6,0,6,0,1,,,,,,,,,,,,,,,,,,,,,,,,,,,,,,,,,,
297568,2022-11-27_12h43.16.694,vts_reward_expectancy_bt,2022.2.4,Win32,59.91970759,Chrome,1536,864,,,,,,,,,,,,,,,,,,,,,,,U,132,circle,1,0,,2,,,,,,,j,0.6634,7,0,7,0,1,,,,,,,,,,,,,,,,,,,,,,,,,,,,,,,,,,
297568,2022-11-27_12h43.16.694,vts_reward_expectancy_bt,2022.2.4,Win32,59.91970759,Chrome,1536,864,,,,,,,,,,,,,,,,,,,,,,,H,160,circle,1,0,,2,,,,,,,k,1.136,8,0,8,0,1,,,,,,,,,,,,,,,,,,,,,,,,,,,,,,,,,,
297568,2022-11-27_12h43.16.694,vts_reward_expectancy_bt,2022.2.4,Win32,59.91970759,Chrome,1536,864,,,,,,,,,,,,,,,,,,,,,,,B,146,hexagon,1,0,,2,,,,,,,j,0.7136,9,0,9,0,1,,,,,,,,,,,,,,,,,,,,,,,,,,,,,,,,,,
297568,2022-11-27_12h43.16.694,vts_reward_expectancy_bt,2022.2.4,Win32,59.91970759,Chrome,1536,864,,,,,0,684,,,,,,,,,,,,,,,,,W,160,hexagon,-1,0,,3,,,,,,,,,,,,,,-1,no_choice,NA,,vtsPrac,0,0,0,0,1,,,,,,,,,,,,,,,,,,,,,,,,
297568,2022-11-27_12h43.16.694,vts_reward_expectancy_bt,2022.2.4,Win32,59.91970759,Chrome,1536,864,,,,,0,684,,,,,,,,,,,,,,,,,H,167,triangle,1,0,,3,,,,,,,,,,,,,,switch,number,numSwt,k,vtsPrac,1,0,1,0,1,0.6447,,,,,,,,,,,,,,,,,,,,,,,
297568,2022-11-27_12h43.16.694,vts_reward_expectancy_bt,2022.2.4,Win32,59.91970759,Chrome,1536,864,,,,,0,684,,,,,,,,,,,,,,,,,B,146,hexagon,1,0,,3,,,,,,,,,,,,,,switch,letter,lettSwt,d,vtsPrac,2,0,2,0,1,0.8115,,,,,,,,,,,,,,,,,,,,,,,
297568,2022-11-27_12h43.16.694,vts_reward_expectancy_bt,2022.2.4,Win32,59.91970759,Chrome,1536,864,,,,,0,684,,,,,,,,,,,,,,,,,U,132,triangle,1,0,,3,,,,,,,,,,,,,,repeat,letter,lettRpt,f,vtsPrac,3,0,3,0,1,1.3448,,,,,,,,,,,,,,,,,,,,,,,
297568,2022-11-27_12h43.16.694,vts_reward_expectancy_bt,2022.2.4,Win32,59.91970759,Chrome,1536,864,,,,,0,684,,,,,,,,,,,,,,,,,W,160,hexagon,1,0,,3,,,,,,,,,,,,,,repeat,letter,lettRpt,f,vtsPrac,4,0,4,0,1,0.9867,,,,,,,,,,,,,,,,,,,,,,,
297568,2022-11-27_12h43.16.694,vts_reward_expectancy_bt,2022.2.4,Win32,59.91970759,Chrome,1536,864,,,,,0,684,,,,,,,,,,,,,,,,,H,167,circle,1,0,,3,,,,,,,,,,,,,,repeat,letter,lettRpt,d,vtsPrac,5,0,5,0,1,1.5466,,,,,,,,,,,,,,,,,,,,,,,
297568,2022-11-27_12h43.16.694,vts_reward_expectancy_bt,2022.2.4,Win32,59.91970759,Chrome,1536,864,,,,,0,684,,,,,,,,,,,,,,,,,B,146,star,1,0,,3,,,,,,,,,,,,,,switch,number,numSwt,j,vtsPrac,6,0,6,0,1,1.2635,,,,,,,,,,,,,,,,,,,,,,,
297568,2022-11-27_12h43.16.694,vts_reward_expectancy_bt,2022.2.4,Win32,59.91970759,Chrome,1536,864,,,,,0,684,,,,,,,,,,,,,,,,,U,132,hexagon,1,0,,3,,,,,,,,,,,,,,repeat,number,numRpt,j,vtsPrac,7,0,7,0,1,1.197,,,,,,,,,,,,,,,,,,,,,,,
297568,2022-11-27_12h43.16.694,vts_reward_expectancy_bt,2022.2.4,Win32,59.91970759,Chrome,1536,864,,,,,0,684,,,,,,,,,,,,,,,,,H,167,star,1,0,,3,,,,,,,,,,,,,,switch,letter,lettSwt,d,vtsPrac,8,0,8,0,1,1.7479,,,,,,,,,,,,,,,,,,,,,,,
297568,2022-11-27_12h43.16.694,vts_reward_expectancy_bt,2022.2.4,Win32,59.91970759,Chrome,1536,864,,,,,0,684,,,,,,,,,,,,,,,,,B,146,triangle,1,0,,3,,,,,,,,,,,,,,switch,number,numSwt,j,vtsPrac,9,0,9,0,1,1.0958,,,,,,,,,,,,,,,,,,,,,,,
297568,2022-11-27_12h43.16.694,vts_reward_expectancy_bt,2022.2.4,Win32,59.91970759,Chrome,1536,864,,,,,0,684,,,,,,,,,,,,,,,,,F,139,circle,1,0,,3,,,,,,,,,,,,,,repeat,number,numRpt,j,vtsPrac,10,0,10,0,1,1.3463,,,,,,,,,,,,,,,,,,,,,,,
297568,2022-11-27_12h43.16.694,vts_reward_expectancy_bt,2022.2.4,Win32,59.91970759,Chrome,1536,864,,,,,0,684,,,,,,,,,,,,,,,,,Y,132,triangle,1,0,,3,,,,,,,,,,,,,,switch,letter,lettSwt,f,vtsPrac,11,0,11,0,1,1.3289,,,,,,,,,,,,,,,,,,,,,,,
297568,2022-11-27_12h43.16.694,vts_reward_expectancy_bt,2022.2.4,Win32,59.91970759,Chrome,1536,864,,,,,0,684,,,,,,,,,,,,,,,,,W,167,star,1,0,,3,,,,,,,,,,,,,,switch,number,numSwt,k,vtsPrac,12,0,12,0,1,1.1634,,,,,,,,,,,,,,,,,,,,,,,
297568,2022-11-27_12h43.16.694,vts_reward_expectancy_bt,2022.2.4,Win32,59.91970759,Chrome,1536,864,,,,,0,684,,,,,,,,,,,,,,,,,D,132,triangle,1,0,,3,,,,,,,,,,,,,,switch,letter,lettSwt,d,vtsPrac,13,0,13,0,1,1.1444,,,,,,,,,,,,,,,,,,,,,,,
297568,2022-11-27_12h43.16.694,vts_reward_expectancy_bt,2022.2.4,Win32,59.91970759,Chrome,1536,864,,,,,0,684,,,,,,,,,,,,,,,,,U,181,circle,1,0,,3,,,,,,,,,,,,,,switch,number,numSwt,k,vtsPrac,14,0,14,0,1,0.9392,,,,,,,,,,,,,,,,,,,,,,,
297568,2022-11-27_12h43.16.694,vts_reward_expectancy_bt,2022.2.4,Win32,59.91970759,Chrome,1536,864,,,,,0,684,,,,,,,,,,,,,,,,,S,160,triangle,1,0,,3,,,,,,,,,,,,,,repeat,number,numRpt,k,vtsPrac,15,0,15,0,1,1.0454,,,,,,,,,,,,,,,,,,,,,,,
297568,2022-11-27_12h43.16.694,vts_reward_expectancy_bt,2022.2.4,Win32,59.91970759,Chrome,1536,864,,,,,0,684,,,,,,,,,,,,,,,,,S,125,hexagon,1,0,,3,,,,,,,,,,,,,,switch,letter,lettSwt,f,vtsPrac,16,0,16,0,1,1.0527,,,,,,,,,,,,,,,,,,,,,,,
297568,2022-11-27_12h43.16.694,vts_reward_expectancy_bt,2022.2.4,Win32,59.91970759,Chrome,1536,864,,,,,0,684,,,,,,,,,,,,,,,,,H,132,triangle,1,0,,3,,,,,,,,,,,,,,switch,number,numSwt,j,vtsPrac,17,0,17,0,1,1.4633,,,,,,,,,,,,,,,,,,,,,,,
297568,2022-11-27_12h43.16.694,vts_reward_expectancy_bt,2022.2.4,Win32,59.91970759,Chrome,1536,864,,,,,0,684,,,,,,,,,,,,,,,,,U,167,star,1,0,,3,,,,,,,,,,,,,,switch,letter,lettSwt,f,vtsPrac,18,0,18,0,1,1.0632,,,,,,,,,,,,,,,,,,,,,,,
297568,2022-11-27_12h43.16.694,vts_reward_expectancy_bt,2022.2.4,Win32,59.91970759,Chrome,1536,864,,,,,0,684,,,,,,,,,,,,,,,,,B,160,hexagon,1,0,,3,,,,,,,,,,,,,,switch,number,numSwt,k,vtsPrac,19,0,19,0,1,1.2821,,,,,,,,,,,,,,,,,,,,,,,
297568,2022-11-27_12h43.16.694,vts_reward_expectancy_bt,2022.2.4,Win32,59.91970759,Chrome,1536,864,,,,,0,684,,,,,,,,,,,,,,,,,S,174,triangle,1,0,,3,,,,,,,,,,,,,,switch,letter,lettSwt,f,vtsPrac,20,0,20,0,1,1.1564,,,,,,,,,,,,,,,,,,,,,,,
297568,2022-11-27_12h43.16.694,vts_reward_expectancy_bt,2022.2.4,Win32,59.91970759,Chrome,1536,864,,,,,0,684,,,,,,,,,,,,,,,,,H,146,hexagon,1,0,,3,,,,,,,,,,,,,,repeat,letter,lettRpt,d,vtsPrac,21,0,21,0,1,1.124,,,,,,,,,,,,,,,,,,,,,,,
297568,2022-11-27_12h43.16.694,vts_reward_expectancy_bt,2022.2.4,Win32,59.91970759,Chrome,1536,864,,,,,0,684,,,,,,,,,,,,,,,,,B,160,triangle,1,0,,3,,,,,,,,,,,,,,switch,number,numSwt,k,vtsPrac,22,0,22,0,1,1.0353,,,,,,,,,,,,,,,,,,,,,,,
297568,2022-11-27_12h43.16.694,vts_reward_expectancy_bt,2022.2.4,Win32,59.91970759,Chrome,1536,864,,,,,0,684,,,,,,,,,,,,,,,,,D,139,star,1,0,,3,,,,,,,,,,,,,,repeat,number,numRpt,j,vtsPrac,23,0,23,0,1,0.9845,,,,,,,,,,,,,,,,,,,,,,,
297568,2022-11-27_12h43.16.694,vts_reward_expectancy_bt,2022.2.4,Win32,59.91970759,Chrome,1536,864,,,,,0,684,,,,,,,,,,,,,,,,,U,132,circle,1,0,,3,,,,,,,,,,,,,,repeat,number,numRpt,j,vtsPrac,24,0,24,0,1,1.5867,,,,,,,,,,,,,,,,,,,,,,,
297568,2022-11-27_12h43.16.694,vts_reward_expectancy_bt,2022.2.4,Win32,59.91970759,Chrome,1536,864,,,,,0,684,,,,,,,,,,,,,,,,,B,160,star,1,0,,3,,,,,,,,,,,,,,switch,letter,lettSwt,d,vtsPrac,25,0,25,0,1,1.07,,,,,,,,,,,,,,,,,,,,,,,
297568,2022-11-27_12h43.16.694,vts_reward_expectancy_bt,2022.2.4,Win32,59.91970759,Chrome,1536,864,,,,,0,684,,,,,,,,,,,,,,,,,W,146,star,1,0,,3,,,,,,,,,,,,,,repeat,letter,lettRpt,f,vtsPrac,26,0,26,0,1,1.3813,,,,,,,,,,,,,,,,,,,,,,,
297568,2022-11-27_12h43.16.694,vts_reward_expectancy_bt,2022.2.4,Win32,59.91970759,Chrome,1536,864,,,,,0,684,,,,,,,,,,,,,,,,,H,139,triangle,1,0,,3,,,,,,,,,,,,,,switch,number,numSwt,j,vtsPrac,27,0,27,0,1,1.4134,,,,,,,,,,,,,,,,,,,,,,,
297568,2022-11-27_12h43.16.694,vts_reward_expectancy_bt,2022.2.4,Win32,59.91970759,Chrome,1536,864,,,,,0,684,,,,,,,,,,,,,,,,,W,160,triangle,1,0,,3,,,,,,,,,,,,,,switch,letter,lettSwt,f,vtsPrac,28,0,28,0,1,1.1312,,,,,,,,,,,,,,,,,,,,,,,
297568,2022-11-27_12h43.16.694,vts_reward_expectancy_bt,2022.2.4,Win32,59.91970759,Chrome,1536,864,,,,,0,684,,,,,,,,,,,,,,,,,D,125,circle,1,0,,3,,,,,,,,,,,,,,repeat,letter,lettRpt,d,vtsPrac,29,0,29,0,1,1.148,,,,,,,,,,,,,,,,,,,,,,,
297568,2022-11-27_12h43.16.694,vts_reward_expectancy_bt,2022.2.4,Win32,59.91970759,Chrome,1536,864,,,,,0,684,,,,,,,,,,,,,,,,,U,167,hexagon,1,0,,3,,,,,,,,,,,,,,switch,number,numSwt,k,vtsPrac,30,0,30,0,1,1.0146,,,,,,,,,,,,,,,,,,,,,,,
297568,2022-11-27_12h43.16.694,vts_reward_expectancy_bt,2022.2.4,Win32,59.91970759,Chrome,1536,864,,,,,0,684,,,,,,,,,,,,,,,,,Y,132,circle,1,0,,3,,,,,,,,,,,,,,repeat,number,numRpt,j,vtsPrac,31,0,31,0,1,1.5992,,,,,,,,,,,,,,,,,,,,,,,
297568,2022-11-27_12h43.16.694,vts_reward_expectancy_bt,2022.2.4,Win32,59.91970759,Chrome,1536,864,,,,,,,,,,,,,,,,,,,,,,,,,,,,,,,,,,,,,,,,,,,,,,,,,,,,,,,,,,,,,,,,,,,,,,,,,,,,
297568,2022-11-27_12h43.16.694,vts_reward_expectancy_bt,2022.2.4,Win32,59.91970759,Chrome,1536,864,,,,,,,,,,,,,,,,,,,,,,,,,,,,,,,,,,,,,,,,,,,,,,,,,,,,,,,,,,,,,,,,,,,,,,,,,,,,
297568,2022-11-27_12h43.16.694,vts_reward_expectancy_bt,2022.2.4,Win32,59.91970759,Chrome,1536,864,,,,,0,684,,,,,,,,,,,,,,,,,U,181,circle,1,0,,,,,,,,,,,,,,,,repeat,number,numRpt,k,noRew,,,,,,1.0518,0,0,0,0,0,1,,,,,,,,,,,,,,,,,
297568,2022-11-27_12h43.16.694,vts_reward_expectancy_bt,2022.2.4,Win32,59.91970759,Chrome,1536,864,,,,,0,684,,,,,,,,,,,,,,,,,D,167,triangle,1,0,,,,,,,,,,,,,,,,repeat,number,numRpt,k,noRew,,,,,,1.2187,0,1,0,1,0,1,,,,,,,,,,,,,,,,,
297568,2022-11-27_12h43.16.694,vts_reward_expectancy_bt,2022.2.4,Win32,59.91970759,Chrome,1536,864,,,,,0,684,,,,,,,,,,,,,,,,,S,174,circle,1,0,,,,,,,,,,,,,,,,repeat,number,numRpt,k,noRew,,,,,,1.5013,0,2,0,2,0,1,,,,,,,,,,,,,,,,,
297568,2022-11-27_12h43.16.694,vts_reward_expectancy_bt,2022.2.4,Win32,59.91970759,Chrome,1536,864,,,,,0,684,,,,,,,,,,,,,,,,,F,132,triangle,1,0,,,,,,,,,,,,,,,,repeat,number,numRpt,j,noRew,,,,,,1.1015,0,3,0,3,0,1,,,,,,,,,,,,,,,,,
297568,2022-11-27_12h43.16.694,vts_reward_expectancy_bt,2022.2.4,Win32,59.91970759,Chrome,1536,864,,,,,0,684,,,,,,,,,,,,,,,,,U,181,star,1,0,,,,,,,,,,,,,,,,repeat,number,numRpt,k,noRew,,,,,,1.6801,0,4,0,4,0,1,,,,,,,,,,,,,,,,,
297568,2022-11-27_12h43.16.694,vts_reward_expectancy_bt,2022.2.4,Win32,59.91970759,Chrome,1536,864,,,,,0,684,,,,,,,,,,,,,,,,,D,167,circle,1,0,,,,,,,,,,,,,,,,repeat,number,numRpt,k,noRew,,,,,,1.1974,0,5,0,5,0,1,,,,,,,,,,,,,,,,,
297568,2022-11-27_12h43.16.694,vts_reward_expectancy_bt,2022.2.4,Win32,59.91970759,Chrome,1536,864,,,,,0,684,,,,,,,,,,,,,,,,,S,174,star,1,0,,,,,,,,,,,,,,,,repeat,number,numRpt,k,noRew,,,,,,0.7857,0,6,0,6,0,1,,,,,,,,,,,,,,,,,
297568,2022-11-27_12h43.16.694,vts_reward_expectancy_bt,2022.2.4,Win32,59.91970759,Chrome,1536,864,,,,,0,684,,,,,,,,,,,,,,,,,F,132,circle,1,0,,,,,,,,,,,,,,,,switch,letter,lettSwt,d,noRew,,,,,,1.0813,0,7,0,7,0,1,,,,,,,,,,,,,,,,,
297568,2022-11-27_12h43.16.694,vts_reward_expectancy_bt,2022.2.4,Win32,59.91970759,Chrome,1536,864,,,,,0,684,,,,,,,,,,,,,,,,,H,146,hexagon,1,0,,,,,,,,,,,,,,,,switch,number,numSwt,j,noRew,,,,,,1.8542,0,8,0,8,0,1,,,,,,,,,,,,,,,,,
297568,2022-11-27_12h43.16.694,vts_reward_expectancy_bt,2022.2.4,Win32,59.91970759,Chrome,1536,864,,,,,0,684,,,,,,,,,,,,,,,,,S,125,star,1,0,,,,,,,,,,,,,,,,repeat,number,numRpt,j,noRew,,,,,,1.6199,0,9,0,9,0,1,,,,,,,,,,,,,,,,,
297568,2022-11-27_12h43.16.694,vts_reward_expectancy_bt,2022.2.4,Win32,59.91970759,Chrome,1536,864,,,,,0,684,,,,,,,,,,,,,,,,,U,181,triangle,1,0,,,,,,,,,,,,,,,,repeat,number,numRpt,k,noRew,,,,,,1.0353,0,10,0,10,0,1,,,,,,,,,,,,,,,,,
297568,2022-11-27_12h43.16.694,vts_reward_expectancy_bt,2022.2.4,Win32,59.91970759,Chrome,1536,864,,,,,0,684,,,,,,,,,,,,,,,,,D,160,star,1,0,,,,,,,,,,,,,,,,repeat,number,numRpt,k,noRew,,,,,,1.6805,0,11,0,11,0,1,,,,,,,,,,,,,,,,,
297568,2022-11-27_12h43.16.694,vts_reward_expectancy_bt,2022.2.4,Win32,59.91970759,Chrome,1536,864,,,,,0,684,,,,,,,,,,,,,,,,,Y,174,circle,1,0,,,,,,,,,,,,,,,,switch,letter,lettSwt,f,noRew,,,,,,1.063,0,12,0,12,0,1,,,,,,,,,,,,,,,,,
297568,2022-11-27_12h43.16.694,vts_reward_expectancy_bt,2022.2.4,Win32,59.91970759,Chrome,1536,864,,,,,0,684,,,,,,,,,,,,,,,,,W,132,triangle,-1,0,,,,,,,,,,,,,,,,switch,no_choice,NA,,noRew,,,,,,,0,13,0,13,0,1,,,,,,,,,,,,,,,,,
297568,2022-11-27_12h43.16.694,vts_reward_expectancy_bt,2022.2.4,Win32,59.91970759,Chrome,1536,864,,,,,0,684,,,,,,,,,,,,,,,,,D,146,triangle,1,0,,,,,,,,,,,,,,,,switch,number,numSwt,j,noRew,,,,,,0.935,0,14,0,14,0,1,,,,,,,,,,,,,,,,,
297568,2022-11-27_12h43.16.694,vts_reward_expectancy_bt,2022.2.4,Win32,59.91970759,Chrome,1536,864,,,,,0,684,,,,,,,,,,,,,,,,,H,125,star,1,0,,,,,,,,,,,,,,,,repeat,number,numRpt,j,noRew,,,,,,0.935,0,15,0,15,0,1,,,,,,,,,,,,,,,,,
297568,2022-11-27_12h43.16.694,vts_reward_expectancy_bt,2022.2.4,Win32,59.91970759,Chrome,1536,864,,,,,0,684,,,,,,,,,,,,,,,,,W,181,triangle,1,0,,,,,,,,,,,,,,,,repeat,number,numRpt,k,noRew,,,,,,0.9688,0,16,0,16,0,1,,,,,,,,,,,,,,,,,
297568,2022-11-27_12h43.16.694,vts_reward_expectancy_bt,2022.2.4,Win32,59.91970759,Chrome,1536,864,,,,,0,684,,,,,,,,,,,,,,,,,B,139,star,1,0,,,,,,,,,,,,,,,,repeat,number,numRpt,j,noRew,,,,,,0.6718,0,17,0,17,0,1,,,,,,,,,,,,,,,,,
297568,2022-11-27_12h43.16.694,vts_reward_expectancy_bt,2022.2.4,Win32,59.91970759,Chrome,1536,864,,,,,0,684,,,,,,,,,,,,,,,,,D,167,triangle,1,0,,,,,,,,,,,,,,,,repeat,number,numRpt,k,noRew,,,,,,0.9356,0,18,0,18,0,1,,,,,,,,,,,,,,,,,
297568,2022-11-27_12h43.16.694,vts_reward_expectancy_bt,2022.2.4,Win32,59.91970759,Chrome,1536,864,,,,,0,684,,,,,,,,,,,,,,,,,Y,160,hexagon,1,0,,,,,,,,,,,,,,,,repeat,number,numRpt,k,noRew,,,,,,1.0687,0,19,0,19,0,1,,,,,,,,,,,,,,,,,
297568,2022-11-27_12h43.16.694,vts_reward_expectancy_bt,2022.2.4,Win32,59.91970759,Chrome,1536,864,,,,,0,684,,,,,,,,,,,,,,,,,W,132,triangle,1,0,,,,,,,,,,,,,,,,repeat,number,numRpt,j,noRew,,,,,,0.6851,0,20,0,20,0,1,,,,,,,,,,,,,,,,,
297568,2022-11-27_12h43.16.694,vts_reward_expectancy_bt,2022.2.4,Win32,59.91970759,Chrome,1536,864,,,,,0,684,,,,,,,,,,,,,,,,,H,174,hexagon,1,0,,,,,,,,,,,,,,,,repeat,number,numRpt,k,noRew,,,,,,0.7016,0,21,0,21,0,1,,,,,,,,,,,,,,,,,
297568,2022-11-27_12h43.16.694,vts_reward_expectancy_bt,2022.2.4,Win32,59.91970759,Chrome,1536,864,,,,,0,684,,,,,,,,,,,,,,,,,S,125,circle,1,0,,,,,,,,,,,,,,,,repeat,number,numRpt,j,noRew,,,,,,0.6583,0,22,0,22,0,1,,,,,,,,,,,,,,,,,
297568,2022-11-27_12h43.16.694,vts_reward_expectancy_bt,2022.2.4,Win32,59.91970759,Chrome,1536,864,,,,,0,684,,,,,,,,,,,,,,,,,D,160,star,1,0,,,,,,,,,,,,,,,,repeat,number,numRpt,k,noRew,,,,,,1.1022,0,23,0,23,0,1,,,,,,,,,,,,,,,,,
297568,2022-11-27_12h43.16.694,vts_reward_expectancy_bt,2022.2.4,Win32,59.91970759,Chrome,1536,864,,,,,0,684,,,,,,,,,,,,,,,,,B,146,triangle,1,0,,,,,,,,,,,,,,,,repeat,number,numRpt,j,noRew,,,,,,0.7688,0,24,0,24,0,1,,,,,,,,,,,,,,,,,
297568,2022-11-27_12h43.16.694,vts_reward_expectancy_bt,2022.2.4,Win32,59.91970759,Chrome,1536,864,,,,,0,684,,,,,,,,,,,,,,,,,H,167,hexagon,1,0,,,,,,,,,,,,,,,,repeat,number,numRpt,k,noRew,,,,,,0.8186,0,25,0,25,0,1,,,,,,,,,,,,,,,,,
297568,2022-11-27_12h43.16.694,vts_reward_expectancy_bt,2022.2.4,Win32,59.91970759,Chrome,1536,864,,,,,0,684,,,,,,,,,,,,,,,,,Y,174,star,1,0,,,,,,,,,,,,,,,,repeat,number,numRpt,k,noRew,,,,,,0.5853,0,26,0,26,0,1,,,,,,,,,,,,,,,,,
297568,2022-11-27_12h43.16.694,vts_reward_expectancy_bt,2022.2.4,Win32,59.91970759,Chrome,1536,864,,,,,0,684,,,,,,,,,,,,,,,,,D,125,triangle,1,0,,,,,,,,,,,,,,,,repeat,number,numRpt,j,noRew,,,,,,0.619,0,27,0,27,0,1,,,,,,,,,,,,,,,,,
297568,2022-11-27_12h43.16.694,vts_reward_expectancy_bt,2022.2.4,Win32,59.91970759,Chrome,1536,864,,,,,0,684,,,,,,,,,,,,,,,,,U,174,star,1,0,,,,,,,,,,,,,,,,repeat,number,numRpt,k,noRew,,,,,,0.7276,0,28,0,28,0,1,,,,,,,,,,,,,,,,,
297568,2022-11-27_12h43.16.694,vts_reward_expectancy_bt,2022.2.4,Win32,59.91970759,Chrome,1536,864,,,,,0,684,,,,,,,,,,,,,,,,,H,160,circle,1,0,,,,,,,,,,,,,,,,repeat,number,numRpt,k,noRew,,,,,,0.8355,0,29,0,29,0,1,,,,,,,,,,,,,,,,,
297568,2022-11-27_12h43.16.694,vts_reward_expectancy_bt,2022.2.4,Win32,59.91970759,Chrome,1536,864,,,,,0,684,,,,,,,,,,,,,,,,,B,167,circle,1,0,,,,,,,,,,,,,,,,repeat,number,numRpt,k,noRew,,,,,,0.7019,0,30,0,30,0,1,,,,,,,,,,,,,,,,,
297568,2022-11-27_12h43.16.694,vts_reward_expectancy_bt,2022.2.4,Win32,59.91970759,Chrome,1536,864,,,,,0,684,,,,,,,,,,,,,,,,,W,146,star,1,0,,,,,,,,,,,,,,,,repeat,number,numRpt,j,noRew,,,,,,1.1855,0,31,0,31,0,1,,,,,,,,,,,,,,,,,
297568,2022-11-27_12h43.16.694,vts_reward_expectancy_bt,2022.2.4,Win32,59.91970759,Chrome,1536,864,,,,,0,684,,,,,,,,,,,,,,,,,S,167,circle,1,0,,,,,,,,,,,,,,,,repeat,number,numRpt,k,noRew,,,,,,1.0194,0,32,0,32,0,1,,,,,,,,,,,,,,,,,
297568,2022-11-27_12h43.16.694,vts_reward_expectancy_bt,2022.2.4,Win32,59.91970759,Chrome,1536,864,,,,,0,684,,,,,,,,,,,,,,,,,F,146,star,1,0,,,,,,,,,,,,,,,,repeat,number,numRpt,j,noRew,,,,,,0.7523,0,33,0,33,0,1,,,,,,,,,,,,,,,,,
297568,2022-11-27_12h43.16.694,vts_reward_expectancy_bt,2022.2.4,Win32,59.91970759,Chrome,1536,864,,,,,0,684,,,,,,,,,,,,,,,,,D,160,star,1,0,,,,,,,,,,,,,,,,repeat,number,numRpt,k,noRew,,,,,,0.9519,0,34,0,34,0,1,,,,,,,,,,,,,,,,,
297568,2022-11-27_12h43.16.694,vts_reward_expectancy_bt,2022.2.4,Win32,59.91970759,Chrome,1536,864,,,,,0,684,,,,,,,,,,,,,,,,,B,181,circle,1,0,,,,,,,,,,,,,,,,repeat,number,numRpt,k,noRew,,,,,,1.2025,0,35,0,35,0,1,,,,,,,,,,,,,,,,,
297568,2022-11-27_12h43.16.694,vts_reward_expectancy_bt,2022.2.4,Win32,59.91970759,Chrome,1536,864,,,,,0,684,,,,,,,,,,,,,,,,,F,174,hexagon,-1,0,,,,,,,,,,,,,,,,switch,no_choice,NA,,noRew,,,,,,,0,36,0,36,0,1,,,,,,,,,,,,,,,,,
297568,2022-11-27_12h43.16.694,vts_reward_expectancy_bt,2022.2.4,Win32,59.91970759,Chrome,1536,864,,,,,0,684,,,,,,,,,,,,,,,,,U,132,circle,1,0,,,,,,,,,,,,,,,,switch,number,numSwt,j,noRew,,,,,,0.8627,0,37,0,37,0,1,,,,,,,,,,,,,,,,,
297568,2022-11-27_12h43.16.694,vts_reward_expectancy_bt,2022.2.4,Win32,59.91970759,Chrome,1536,864,,,,,0,684,,,,,,,,,,,,,,,,,D,181,triangle,1,0,,,,,,,,,,,,,,,,repeat,number,numRpt,k,noRew,,,,,,0.6805,0,38,0,38,0,1,,,,,,,,,,,,,,,,,
297568,2022-11-27_12h43.16.694,vts_reward_expectancy_bt,2022.2.4,Win32,59.91970759,Chrome,1536,864,,,,,0,684,,,,,,,,,,,,,,,,,B,125,star,1,0,,,,,,,,,,,,,,,,repeat,number,numRpt,j,noRew,,,,,,0.6688,0,39,0,39,0,1,,,,,,,,,,,,,,,,,
297568,2022-11-27_12h43.16.694,vts_reward_expectancy_bt,2022.2.4,Win32,59.91970759,Chrome,1536,864,,,,,0,684,,,,,,,,,,,,,,,,,H,181,triangle,1,0,,,,,,,,,,,,,,,,repeat,number,numRpt,k,noRew,,,,,,1.1478,0,40,0,40,0,1,,,,,,,,,,,,,,,,,
297568,2022-11-27_12h43.16.694,vts_reward_expectancy_bt,2022.2.4,Win32,59.91970759,Chrome,1536,864,,,,,0,684,,,,,,,,,,,,,,,,,W,174,circle,1,0,,,,,,,,,,,,,,,,repeat,number,numRpt,k,noRew,,,,,,1.2445,0,41,0,41,0,1,,,,,,,,,,,,,,,,,
297568,2022-11-27_12h43.16.694,vts_reward_expectancy_bt,2022.2.4,Win32,59.91970759,Chrome,1536,864,,,,,0,684,,,,,,,,,,,,,,,,,B,160,star,1,0,,,,,,,,,,,,,,,,repeat,number,numRpt,k,noRew,,,,,,1.0628,0,42,0,42,0,1,,,,,,,,,,,,,,,,,
297568,2022-11-27_12h43.16.694,vts_reward_expectancy_bt,2022.2.4,Win32,59.91970759,Chrome,1536,864,,,,,0,684,,,,,,,,,,,,,,,,,U,125,circle,1,0,,,,,,,,,,,,,,,,repeat,number,numRpt,j,noRew,,,,,,0.8646,0,43,0,43,0,1,,,,,,,,,,,,,,,,,
297568,2022-11-27_12h43.16.694,vts_reward_expectancy_bt,2022.2.4,Win32,59.91970759,Chrome,1536,864,,,,,0,684,,,,,,,,,,,,,,,,,Y,132,circle,1,0,,,,,,,,,,,,,,,,repeat,number,numRpt,j,noRew,,,,,,0.6636,0,44,0,44,0,1,,,,,,,,,,,,,,,,,
297568,2022-11-27_12h43.16.694,vts_reward_expectancy_bt,2022.2.4,Win32,59.91970759,Chrome,1536,864,,,,,0,684,,,,,,,,,,,,,,,,,U,174,hexagon,1,0,,,,,,,,,,,,,,,,repeat,number,numRpt,k,noRew,,,,,,0.6309,0,45,0,45,0,1,,,,,,,,,,,,,,,,,
297568,2022-11-27_12h43.16.694,vts_reward_expectancy_bt,2022.2.4,Win32,59.91970759,Chrome,1536,864,,,,,0,684,,,,,,,,,,,,,,,,,B,181,triangle,1,0,,,,,,,,,,,,,,,,repeat,number,numRpt,k,noRew,,,,,,0.8803,0,46,0,46,0,1,,,,,,,,,,,,,,,,,
297568,2022-11-27_12h43.16.694,vts_reward_expectancy_bt,2022.2.4,Win32,59.91970759,Chrome,1536,864,,,,,0,684,,,,,,,,,,,,,,,,,W,146,circle,1,0,,,,,,,,,,,,,,,,repeat,number,numRpt,j,noRew,,,,,,0.8399,0,47,0,47,0,1,,,,,,,,,,,,,,,,,
297568,2022-11-27_12h43.16.694,vts_reward_expectancy_bt,2022.2.4,Win32,59.91970759,Chrome,1536,864,,,,,0,684,,,,,,,,,,,,,,,,,Y,146,hexagon,1,0,,,,,,,,,,,,,,,,repeat,number,numRpt,j,noRew,,,,,,0.7345,0,48,0,48,0,1,,,,,,,,,,,,,,,,,
297568,2022-11-27_12h43.16.694,vts_reward_expectancy_bt,2022.2.4,Win32,59.91970759,Chrome,1536,864,,,,,0,684,,,,,,,,,,,,,,,,,S,181,triangle,1,0,,,,,,,,,,,,,,,,repeat,number,numRpt,k,noRew,,,,,,0.9643,0,49,0,49,0,1,,,,,,,,,,,,,,,,,
297568,2022-11-27_12h43.16.694,vts_reward_expectancy_bt,2022.2.4,Win32,59.91970759,Chrome,1536,864,,,,,0,684,,,,,,,,,,,,,,,,,W,125,hexagon,1,0,,,,,,,,,,,,,,,,repeat,number,numRpt,j,noRew,,,,,,0.647,0,50,0,50,0,1,,,,,,,,,,,,,,,,,
297568,2022-11-27_12h43.16.694,vts_reward_expectancy_bt,2022.2.4,Win32,59.91970759,Chrome,1536,864,,,,,0,684,,,,,,,,,,,,,,,,,U,160,circle,1,0,,,,,,,,,,,,,,,,repeat,number,numRpt,k,noRew,,,,,,0.8464,0,51,0,51,0,1,,,,,,,,,,,,,,,,,
297568,2022-11-27_12h43.16.694,vts_reward_expectancy_bt,2022.2.4,Win32,59.91970759,Chrome,1536,864,,,,,0,684,,,,,,,,,,,,,,,,,D,174,star,1,0,,,,,,,,,,,,,,,,repeat,number,numRpt,k,noRew,,,,,,0.9852,0,52,0,52,0,1,,,,,,,,,,,,,,,,,
297568,2022-11-27_12h43.16.694,vts_reward_expectancy_bt,2022.2.4,Win32,59.91970759,Chrome,1536,864,,,,,0,684,,,,,,,,,,,,,,,,,W,181,triangle,1,0,,,,,,,,,,,,,,,,repeat,number,numRpt,k,noRew,,,,,,0.7244,0,53,0,53,0,1,,,,,,,,,,,,,,,,,
297568,2022-11-27_12h43.16.694,vts_reward_expectancy_bt,2022.2.4,Win32,59.91970759,Chrome,1536,864,,,,,0,684,,,,,,,,,,,,,,,,,F,125,hexagon,1,0,,,,,,,,,,,,,,,,repeat,number,numRpt,j,noRew,,,,,,0.6284,0,54,0,54,0,1,,,,,,,,,,,,,,,,,
297568,2022-11-27_12h43.16.694,vts_reward_expectancy_bt,2022.2.4,Win32,59.91970759,Chrome,1536,864,,,,,0,684,,,,,,,,,,,,,,,,,Y,139,star,1,0,,,,,,,,,,,,,,,,repeat,number,numRpt,j,noRew,,,,,,0.7242,0,55,0,55,0,1,,,,,,,,,,,,,,,,,
297568,2022-11-27_12h43.16.694,vts_reward_expectancy_bt,2022.2.4,Win32,59.91970759,Chrome,1536,864,,,,,0,684,,,,,,,,,,,,,,,,,W,125,star,1,0,,,,,,,,,,,,,,,,repeat,number,numRpt,j,noRew,,,,,,0.6022,0,56,0,56,0,1,,,,,,,,,,,,,,,,,
297568,2022-11-27_12h43.16.694,vts_reward_expectancy_bt,2022.2.4,Win32,59.91970759,Chrome,1536,864,,,,,0,684,,,,,,,,,,,,,,,,,D,132,circle,0,0,,,,,,,,,,,,,,,,repeat,number,NA,k,noRew,,,,,,1.2309,0,57,0,57,0,1,,,,,,,,,,,,,,,,,
297568,2022-11-27_12h43.16.694,vts_reward_expectancy_bt,2022.2.4,Win32,59.91970759,Chrome,1536,864,,,,,0,684,,,,,,,,,,,,,,,,,U,167,triangle,1,1,,,,,,,,,,,,,,,,repeat,number,numRpt,k,noRew,,,,,,1.1528,0,58,0,58,0,1,,,,,,,,,,,,,,,,,
297568,2022-11-27_12h43.16.694,vts_reward_expectancy_bt,2022.2.4,Win32,59.91970759,Chrome,1536,864,,,,,0,684,,,,,,,,,,,,,,,,,H,174,hexagon,1,0,,,,,,,,,,,,,,,,repeat,number,numRpt,k,noRew,,,,,,1.0129,0,59,0,59,0,1,,,,,,,,,,,,,,,,,
297568,2022-11-27_12h43.16.694,vts_reward_expectancy_bt,2022.2.4,Win32,59.91970759,Chrome,1536,864,,,,,0,684,,,,,,,,,,,,,,,,,U,174,star,1,0,,,,,,,,,,,,,,,,repeat,number,numRpt,k,noRew,,,,,,0.951,0,60,0,60,0,1,,,,,,,,,,,,,,,,,
297568,2022-11-27_12h43.16.694,vts_reward_expectancy_bt,2022.2.4,Win32,59.91970759,Chrome,1536,864,,,,,0,684,,,,,,,,,,,,,,,,,F,146,circle,1,0,,,,,,,,,,,,,,,,repeat,number,numRpt,j,noRew,,,,,,0.7127,0,61,0,61,0,1,,,,,,,,,,,,,,,,,
297568,2022-11-27_12h43.16.694,vts_reward_expectancy_bt,2022.2.4,Win32,59.91970759,Chrome,1536,864,,,,,0,684,,,,,,,,,,,,,,,,,S,125,star,1,0,,,,,,,,,,,,,,,,repeat,number,numRpt,j,noRew,,,,,,1.2075,0,62,0,62,0,1,,,,,,,,,,,,,,,,,
297568,2022-11-27_12h43.16.694,vts_reward_expectancy_bt,2022.2.4,Win32,59.91970759,Chrome,1536,864,,,,,0,684,,,,,,,,,,,,,,,,,D,139,triangle,1,0,,,,,,,,,,,,,,,,repeat,number,numRpt,j,noRew,,,,,,0.8209,0,63,0,63,0,1,,,,,,,,,,,,,,,,,
297568,2022-11-27_12h43.16.694,vts_reward_expectancy_bt,2022.2.4,Win32,59.91970759,Chrome,1536,864,,,,,,,,,,,,,,,,,,,,,,,,,,,,,,,,,,,,,,,,,,,,,,,,,,,,,,,,,,,,,,,,,,,,,,,,,,,,
297568,2022-11-27_12h43.16.694,vts_reward_expectancy_bt,2022.2.4,Win32,59.91970759,Chrome,1536,864,,,,,0,684,,,,,,,,,,,,,,,,,U,174,triangle,1,0,,,,,,,,,,,,,,,,repeat,number,numRpt,k,Hi,,,,,,1.2373,0,,,,,,space,7.0853,low,0,0,0,0,1,,,,,,,,,
297568,2022-11-27_12h43.16.694,vts_reward_expectancy_bt,2022.2.4,Win32,59.91970759,Chrome,1536,864,,,,,0,684,,,,,,,,,,,,,,,,,F,132,hexagon,0,0,,,,,,,,,,,,,,,,repeat,number,NA,k,Hi,,,,,,0.947,0,,,,,,,,low,1,0,1,0,1,,,,,,,,,
297568,2022-11-27_12h43.16.694,vts_reward_expectancy_bt,2022.2.4,Win32,59.91970759,Chrome,1536,864,,,,,0,684,,,,,,,,,,,,,,,,,Y,139,star,1,1,,,,,,,,,,,,,,,,repeat,number,numRpt,j,Hi,,,,,,1.1231,0,,,,,,,,low,2,0,2,0,1,,,,,,,,,
297568,2022-11-27_12h43.16.694,vts_reward_expectancy_bt,2022.2.4,Win32,59.91970759,Chrome,1536,864,,,,,10,694,,,,,,,,,,,,,,,,,D,146,circle,1,0,,,,,,,,,,,,,,,,repeat,number,numRpt,j,Lo,,,,,,0.6516,0,,,,,,,,low,3,0,3,0,1,,,,,,,,,
297568,2022-11-27_12h43.16.694,vts_reward_expectancy_bt,2022.2.4,Win32,59.91970759,Chrome,1536,864,,,,,10,704,,,,,,,,,,,,,,,,,H,181,triangle,1,0,,,,,,,,,,,,,,,,repeat,number,numRpt,k,Hi,,,,,,0.5967,0,,,,,,,,low,4,0,4,0,1,,,,,,,,,
297568,2022-11-27_12h43.16.694,vts_reward_expectancy_bt,2022.2.4,Win32,59.91970759,Chrome,1536,864,,,,,1,705,,,,,,,,,,,,,,,,,W,125,hexagon,1,0,,,,,,,,,,,,,,,,repeat,number,numRpt,j,Lo,,,,,,0.4856,0,,,,,,,,low,5,0,5,0,1,,,,,,,,,
297568,2022-11-27_12h43.16.694,vts_reward_expectancy_bt,2022.2.4,Win32,59.91970759,Chrome,1536,864,,,,,0,705,,,,,,,,,,,,,,,,,S,167,star,1,0,,,,,,,,,,,,,,,,repeat,number,numRpt,k,Hi,,,,,,0.7521,0,,,,,,,,low,6,0,6,0,1,,,,,,,,,
297568,2022-11-27_12h43.16.694,vts_reward_expectancy_bt,2022.2.4,Win32,59.91970759,Chrome,1536,864,,,,,0,705,,,,,,,,,,,,,,,,,B,160,circle,0,0,,,,,,,,,,,,,,,,repeat,number,NA,j,Hi,,,,,,0.4747,0,,,,,,,,low,7,0,7,0,1,,,,,,,,,
297568,2022-11-27_12h43.16.694,vts_reward_expectancy_bt,2022.2.4,Win32,59.91970759,Chrome,1536,864,,,,,10,715,,,,,,,,,,,,,,,,,U,174,star,1,1,,,,,,,,,,,,,,,,repeat,number,numRpt,k,Hi,,,,,,0.5847,0,,,,,,,,low,8,0,8,0,1,,,,,,,,,
297568,2022-11-27_12h43.16.694,vts_reward_expectancy_bt,2022.2.4,Win32,59.91970759,Chrome,1536,864,,,,,10,725,,,,,,,,,,,,,,,,,F,132,hexagon,1,0,,,,,,,,,,,,,,,,repeat,number,numRpt,j,Lo,,,,,,0.6353,0,,,,,,,,low,9,0,9,0,1,,,,,,,,,
297568,2022-11-27_12h43.16.694,vts_reward_expectancy_bt,2022.2.4,Win32,59.91970759,Chrome,1536,864,,,,,10,735,,,,,,,,,,,,,,,,,Y,139,triangle,1,0,,,,,,,,,,,,,,,,repeat,number,numRpt,j,Hi,,,,,,0.5969,0,,,,,,,,low,10,0,10,0,1,,,,,,,,,
297568,2022-11-27_12h43.16.694,vts_reward_expectancy_bt,2022.2.4,Win32,59.91970759,Chrome,1536,864,,,,,1,736,,,,,,,,,,,,,,,,,D,146,circle,1,0,,,,,,,,,,,,,,,,repeat,number,numRpt,j,Lo,,,,,,0.7022,0,,,,,,,,low,11,0,11,0,1,,,,,,,,,
297568,2022-11-27_12h43.16.694,vts_reward_expectancy_bt,2022.2.4,Win32,59.91970759,Chrome,1536,864,,,,,1,737,,,,,,,,,,,,,,,,,H,181,hexagon,1,0,,,,,,,,,,,,,,,,repeat,number,numRpt,k,Lo,,,,,,0.9238,0,,,,,,,,low,12,0,12,0,1,,,,,,,,,
297568,2022-11-27_12h43.16.694,vts_reward_expectancy_bt,2022.2.4,Win32,59.91970759,Chrome,1536,864,,,,,10,747,,,,,,,,,,,,,,,,,W,125,circle,1,0,,,,,,,,,,,,,,,,repeat,number,numRpt,j,Lo,,,,,,0.6833,0,,,,,,,,low,13,0,13,0,1,,,,,,,,,
297568,2022-11-27_12h43.16.694,vts_reward_expectancy_bt,2022.2.4,Win32,59.91970759,Chrome,1536,864,,,,,0,747,,,,,,,,,,,,,,,,,S,167,triangle,1,0,,,,,,,,,,,,,,,,repeat,number,numRpt,k,Hi,,,,,,1.1942,0,,,,,,,,low,14,0,14,0,1,,,,,,,,,
297568,2022-11-27_12h43.16.694,vts_reward_expectancy_bt,2022.2.4,Win32,59.91970759,Chrome,1536,864,,,,,0,747,,,,,,,,,,,,,,,,,B,160,star,1,0,,,,,,,,,,,,,,,,repeat,number,numRpt,k,Hi,,,,,,0.8121,0,,,,,,,,low,15,0,15,0,1,,,,,,,,,
297568,2022-11-27_12h43.16.694,vts_reward_expectancy_bt,2022.2.4,Win32,59.91970759,Chrome,1536,864,,,,,1,748,,,,,,,,,,,,,,,,,F,167,hexagon,1,0,,,,,,,,,,,,,,,,repeat,number,numRpt,k,Lo,,,,,,0.5279,0,,,,,,,,low,16,0,16,0,1,,,,,,,,,
297568,2022-11-27_12h43.16.694,vts_reward_expectancy_bt,2022.2.4,Win32,59.91970759,Chrome,1536,864,,,,,10,758,,,,,,,,,,,,,,,,,H,160,circle,1,0,,,,,,,,,,,,,,,,repeat,number,numRpt,k,Lo,,,,,,0.6352,0,,,,,,,,low,17,0,17,0,1,,,,,,,,,
297568,2022-11-27_12h43.16.694,vts_reward_expectancy_bt,2022.2.4,Win32,59.91970759,Chrome,1536,864,,,,,0,758,,,,,,,,,,,,,,,,,W,139,triangle,0,0,,,,,,,,,,,,,,,,repeat,number,NA,k,Lo,,,,,,1.4134,0,,,,,,,,low,18,0,18,0,1,,,,,,,,,
297568,2022-11-27_12h43.16.694,vts_reward_expectancy_bt,2022.2.4,Win32,59.91970759,Chrome,1536,864,,,,,10,768,,,,,,,,,,,,,,,,,Y,132,star,1,1,,,,,,,,,,,,,,,,repeat,number,numRpt,j,Hi,,,,,,0.597,0,,,,,,,,low,19,0,19,0,1,,,,,,,,,
297568,2022-11-27_12h43.16.694,vts_reward_expectancy_bt,2022.2.4,Win32,59.91970759,Chrome,1536,864,,,,,0,768,,,,,,,,,,,,,,,,,B,174,star,0,0,,,,,,,,,,,,,,,,repeat,number,NA,j,Hi,,,,,,0.8359,0,,,,,,,,low,20,0,20,0,1,,,,,,,,,
297568,2022-11-27_12h43.16.694,vts_reward_expectancy_bt,2022.2.4,Win32,59.91970759,Chrome,1536,864,,,,,10,778,,,,,,,,,,,,,,,,,D,181,triangle,1,1,,,,,,,,,,,,,,,,repeat,number,numRpt,k,Hi,,,,,,0.5214,0,,,,,,,,low,21,0,21,0,1,,,,,,,,,
297568,2022-11-27_12h43.16.694,vts_reward_expectancy_bt,2022.2.4,Win32,59.91970759,Chrome,1536,864,,,,,1,779,,,,,,,,,,,,,,,,,S,146,circle,1,0,,,,,,,,,,,,,,,,repeat,number,numRpt,j,Lo,,,,,,0.7286,0,,,,,,,,low,22,0,22,0,1,,,,,,,,,
297568,2022-11-27_12h43.16.694,vts_reward_expectancy_bt,2022.2.4,Win32,59.91970759,Chrome,1536,864,,,,,1,780,,,,,,,,,,,,,,,,,U,125,hexagon,1,0,,,,,,,,,,,,,,,,repeat,number,numRpt,j,Lo,,,,,,0.7119,0,,,,,,,,low,23,0,23,0,1,,,,,,,,,
297568,2022-11-27_12h43.16.694,vts_reward_expectancy_bt,2022.2.4,Win32,59.91970759,Chrome,1536,864,,,,,10,790,,,,,,,,,,,,,,,,,U,181,hexagon,1,0,,,,,,,,,,,,,,,,repeat,number,numRpt,k,Lo,,,,,,0.7258,0,,,,,,,,low,24,0,24,0,1,,,,,,,,,
297568,2022-11-27_12h43.16.694,vts_reward_expectancy_bt,2022.2.4,Win32,59.91970759,Chrome,1536,864,,,,,0,790,,,,,,,,,,,,,,,,,H,146,triangle,1,0,,,,,,,,,,,,,,,,repeat,number,numRpt,j,Hi,,,,,,1.0056,0,,,,,,,,low,25,0,25,0,1,,,,,,,,,
297568,2022-11-27_12h43.16.694,vts_reward_expectancy_bt,2022.2.4,Win32,59.91970759,Chrome,1536,864,,,,,1,791,,,,,,,,,,,,,,,,,W,174,star,1,0,,,,,,,,,,,,,,,,repeat,number,numRpt,k,Hi,,,,,,0.5788,0,,,,,,,,low,26,0,26,0,1,,,,,,,,,
297568,2022-11-27_12h43.16.694,vts_reward_expectancy_bt,2022.2.4,Win32,59.91970759,Chrome,1536,864,,,,,1,792,,,,,,,,,,,,,,,,,Y,125,circle,1,0,,,,,,,,,,,,,,,,repeat,number,numRpt,j,Lo,,,,,,0.7398,0,,,,,,,,low,27,0,27,0,1,,,,,,,,,
297568,2022-11-27_12h43.16.694,vts_reward_expectancy_bt,2022.2.4,Win32,59.91970759,Chrome,1536,864,,,,,1,793,,,,,,,,,,,,,,,,,D,167,hexagon,1,0,,,,,,,,,,,,,,,,repeat,number,numRpt,k,Lo,,,,,,0.8353,0,,,,,,,,low,28,0,28,0,1,,,,,,,,,
297568,2022-11-27_12h43.16.694,vts_reward_expectancy_bt,2022.2.4,Win32,59.91970759,Chrome,1536,864,,,,,10,803,,,,,,,,,,,,,,,,,B,160,star,1,0,,,,,,,,,,,,,,,,repeat,number,numRpt,k,Hi,,,,,,0.6853,0,,,,,,,,low,29,0,29,0,1,,,,,,,,,
297568,2022-11-27_12h43.16.694,vts_reward_expectancy_bt,2022.2.4,Win32,59.91970759,Chrome,1536,864,,,,,10,813,,,,,,,,,,,,,,,,,F,132,circle,1,0,,,,,,,,,,,,,,,,repeat,number,numRpt,j,Lo,,,,,,0.6285,0,,,,,,,,low,30,0,30,0,1,,,,,,,,,
297568,2022-11-27_12h43.16.694,vts_reward_expectancy_bt,2022.2.4,Win32,59.91970759,Chrome,1536,864,,,,,0,813,,,,,,,,,,,,,,,,,S,139,triangle,1,0,,,,,,,,,,,,,,,,repeat,number,numRpt,j,Hi,,,,,,0.8065,0,,,,,,,,low,31,0,31,0,1,,,,,,,,,
297568,2022-11-27_12h43.16.694,vts_reward_expectancy_bt,2022.2.4,Win32,59.91970759,Chrome,1536,864,,,,,10,823,,,,,,,,,,,,,,,,,U,181,triangle,1,0,,,,,,,,,,,,,,,,repeat,number,numRpt,k,Hi,,,,,,0.5619,1,,,,,,space,0.9728,low,0,0,0,0,1,,,,,,,,,
297568,2022-11-27_12h43.16.694,vts_reward_expectancy_bt,2022.2.4,Win32,59.91970759,Chrome,1536,864,,,,,10,833,,,,,,,,,,,,,,,,,B,174,hexagon,1,0,,,,,,,,,,,,,,,,repeat,number,numRpt,k,Lo,,,,,,0.5521,1,,,,,,,,low,1,0,1,0,1,,,,,,,,,
297568,2022-11-27_12h43.16.694,vts_reward_expectancy_bt,2022.2.4,Win32,59.91970759,Chrome,1536,864,,,,,10,843,,,,,,,,,,,,,,,,,D,146,circle,1,0,,,,,,,,,,,,,,,,repeat,number,numRpt,j,Lo,,,,,,0.6975,1,,,,,,,,low,2,0,2,0,1,,,,,,,,,
297568,2022-11-27_12h43.16.694,vts_reward_expectancy_bt,2022.2.4,Win32,59.91970759,Chrome,1536,864,,,,,0,843,,,,,,,,,,,,,,,,,F,132,star,1,0,,,,,,,,,,,,,,,,repeat,number,numRpt,j,Hi,,,,,,0.6347,1,,,,,,,,low,3,0,3,0,1,,,,,,,,,
297568,2022-11-27_12h43.16.694,vts_reward_expectancy_bt,2022.2.4,Win32,59.91970759,Chrome,1536,864,,,,,0,843,,,,,,,,,,,,,,,,,W,125,triangle,-1,0,,,,,,,,,,,,,,,,switch,no_choice,NA,,Hi,,,,,,,1,,,,,,,,low,4,0,4,0,1,,,,,,,,,
297568,2022-11-27_12h43.16.694,vts_reward_expectancy_bt,2022.2.4,Win32,59.91970759,Chrome,1536,864,,,,,1,844,,,,,,,,,,,,,,,,,H,160,hexagon,1,0,,,,,,,,,,,,,,,,switch,number,numSwt,k,Lo,,,,,,1.2585,1,,,,,,,,low,5,0,5,0,1,,,,,,,,,
297568,2022-11-27_12h43.16.694,vts_reward_expectancy_bt,2022.2.4,Win32,59.91970759,Chrome,1536,864,,,,,0,844,,,,,,,,,,,,,,,,,S,167,circle,0,0,,,,,,,,,,,,,,,,repeat,number,NA,j,Lo,,,,,,0.5261,1,,,,,,,,low,6,0,6,0,1,,,,,,,,,
297568,2022-11-27_12h43.16.694,vts_reward_expectancy_bt,2022.2.4,Win32,59.91970759,Chrome,1536,864,,,,,10,854,,,,,,,,,,,,,,,,,Y,139,star,1,1,,,,,,,,,,,,,,,,repeat,number,numRpt,j,Hi,,,,,,0.6126,1,,,,,,,,low,7,0,7,0,1,,,,,,,,,
297568,2022-11-27_12h43.16.694,vts_reward_expectancy_bt,2022.2.4,Win32,59.91970759,Chrome,1536,864,,,,,0,854,,,,,,,,,,,,,,,,,U,181,star,1,0,,,,,,,,,,,,,,,,repeat,number,numRpt,k,Hi,,,,,,0.8958,1,,,,,,,,low,8,0,8,0,1,,,,,,,,,
297568,2022-11-27_12h43.16.694,vts_reward_expectancy_bt,2022.2.4,Win32,59.91970759,Chrome,1536,864,,,,,1,855,,,,,,,,,,,,,,,,,B,174,circle,1,0,,,,,,,,,,,,,,,,repeat,number,numRpt,k,Lo,,,,,,0.619,1,,,,,,,,low,9,0,9,0,1,,,,,,,,,
297568,2022-11-27_12h43.16.694,vts_reward_expectancy_bt,2022.2.4,Win32,59.91970759,Chrome,1536,864,,,,,1,856,,,,,,,,,,,,,,,,,D,146,hexagon,1,0,,,,,,,,,,,,,,,,repeat,number,numRpt,j,Lo,,,,,,0.6453,1,,,,,,,,low,10,0,10,0,1,,,,,,,,,
297568,2022-11-27_12h43.16.694,vts_reward_expectancy_bt,2022.2.4,Win32,59.91970759,Chrome,1536,864,,,,,0,856,,,,,,,,,,,,,,,,,F,132,triangle,1,0,,,,,,,,,,,,,,,,repeat,number,numRpt,j,Hi,,,,,,0.7452,1,,,,,,,,low,11,0,11,0,1,,,,,,,,,
297568,2022-11-27_12h43.16.694,vts_reward_expectancy_bt,2022.2.4,Win32,59.91970759,Chrome,1536,864,,,,,10,866,,,,,,,,,,,,,,,,,W,125,triangle,1,0,,,,,,,,,,,,,,,,repeat,number,numRpt,j,Hi,,,,,,0.5474,1,,,,,,,,low,12,0,12,0,1,,,,,,,,,
297568,2022-11-27_12h43.16.694,vts_reward_expectancy_bt,2022.2.4,Win32,59.91970759,Chrome,1536,864,,,,,10,876,,,,,,,,,,,,,,,,,H,160,circle,1,0,,,,,,,,,,,,,,,,repeat,number,numRpt,k,Lo,,,,,,0.6284,1,,,,,,,,low,13,0,13,0,1,,,,,,,,,
297568,2022-11-27_12h43.16.694,vts_reward_expectancy_bt,2022.2.4,Win32,59.91970759,Chrome,1536,864,,,,,0,876,,,,,,,,,,,,,,,,,S,167,star,1,0,,,,,,,,,,,,,,,,repeat,number,numRpt,k,Hi,,,,,,0.7296,1,,,,,,,,low,14,0,14,0,1,,,,,,,,,
297568,2022-11-27_12h43.16.694,vts_reward_expectancy_bt,2022.2.4,Win32,59.91970759,Chrome,1536,864,,,,,10,886,,,,,,,,,,,,,,,,,Y,139,hexagon,1,0,,,,,,,,,,,,,,,,repeat,number,numRpt,j,Lo,,,,,,0.6135,1,,,,,,,,low,15,0,15,0,1,,,,,,,,,
297568,2022-11-27_12h43.16.694,vts_reward_expectancy_bt,2022.2.4,Win32,59.91970759,Chrome,1536,864,,,,,10,896,,,,,,,,,,,,,,,,,B,125,hexagon,1,0,,,,,,,,,,,,,,,,repeat,number,numRpt,j,Lo,,,,,,0.6469,1,,,,,,,,low,16,0,16,0,1,,,,,,,,,
297568,2022-11-27_12h43.16.694,vts_reward_expectancy_bt,2022.2.4,Win32,59.91970759,Chrome,1536,864,,,,,0,896,,,,,,,,,,,,,,,,,Y,174,star,1,0,,,,,,,,,,,,,,,,repeat,number,numRpt,k,Hi,,,,,,0.6624,1,,,,,,,,low,17,0,17,0,1,,,,,,,,,
297568,2022-11-27_12h43.16.694,vts_reward_expectancy_bt,2022.2.4,Win32,59.91970759,Chrome,1536,864,,,,,1,897,,,,,,,,,,,,,,,,,S,139,triangle,1,0,,,,,,,,,,,,,,,,repeat,number,numRpt,j,Hi,,,,,,0.562,1,,,,,,,,low,18,0,18,0,1,,,,,,,,,
297568,2022-11-27_12h43.16.694,vts_reward_expectancy_bt,2022.2.4,Win32,59.91970759,Chrome,1536,864,,,,,1,898,,,,,,,,,,,,,,,,,U,132,circle,1,0,,,,,,,,,,,,,,,,repeat,number,numRpt,j,Lo,,,,,,0.5465,1,,,,,,,,low,19,0,19,0,1,,,,,,,,,
297568,2022-11-27_12h43.16.694,vts_reward_expectancy_bt,2022.2.4,Win32,59.91970759,Chrome,1536,864,,,,,10,908,,,,,,,,,,,,,,,,,W,181,circle,1,0,,,,,,,,,,,,,,,,repeat,number,numRpt,k,Lo,,,,,,0.5962,1,,,,,,,,low,20,0,20,0,1,,,,,,,,,
297568,2022-11-27_12h43.16.694,vts_reward_expectancy_bt,2022.2.4,Win32,59.91970759,Chrome,1536,864,,,,,1,909,,,,,,,,,,,,,,,,,F,160,hexagon,1,0,,,,,,,,,,,,,,,,repeat,number,numRpt,k,Lo,,,,,,0.5685,1,,,,,,,,low,21,0,21,0,1,,,,,,,,,
297568,2022-11-27_12h43.16.694,vts_reward_expectancy_bt,2022.2.4,Win32,59.91970759,Chrome,1536,864,,,,,0,909,,,,,,,,,,,,,,,,,H,146,triangle,0,0,,,,,,,,,,,,,,,,repeat,number,NA,k,Lo,,,,,,0.4734,1,,,,,,,,low,22,0,22,0,1,,,,,,,,,
297568,2022-11-27_12h43.16.694,vts_reward_expectancy_bt,2022.2.4,Win32,59.91970759,Chrome,1536,864,,,,,10,919,,,,,,,,,,,,,,,,,D,167,star,1,1,,,,,,,,,,,,,,,,repeat,number,numRpt,k,Hi,,,,,,0.4289,1,,,,,,,,low,23,0,23,0,1,,,,,,,,,
297568,2022-11-27_12h43.16.694,vts_reward_expectancy_bt,2022.2.4,Win32,59.91970759,Chrome,1536,864,,,,,1,920,,,,,,,,,,,,,,,,,U,125,triangle,1,0,,,,,,,,,,,,,,,,repeat,number,numRpt,j,Hi,,,,,,0.5458,1,,,,,,,,low,24,0,24,0,1,,,,,,,,,
297568,2022-11-27_12h43.16.694,vts_reward_expectancy_bt,2022.2.4,Win32,59.91970759,Chrome,1536,864,,,,,10,930,,,,,,,,,,,,,,,,,W,181,circle,1,0,,,,,,,,,,,,,,,,repeat,number,numRpt,k,Lo,,,,,,0.6633,1,,,,,,,,low,25,0,25,0,1,,,,,,,,,
297568,2022-11-27_12h43.16.694,vts_reward_expectancy_bt,2022.2.4,Win32,59.91970759,Chrome,1536,864,,,,,1,931,,,,,,,,,,,,,,,,,H,167,hexagon,1,0,,,,,,,,,,,,,,,,repeat,number,numRpt,k,Lo,,,,,,1.3572,1,,,,,,,,low,26,0,26,0,1,,,,,,,,,
297568,2022-11-27_12h43.16.694,vts_reward_expectancy_bt,2022.2.4,Win32,59.91970759,Chrome,1536,864,,,,,0,931,,,,,,,,,,,,,,,,,D,146,star,1,0,,,,,,,,,,,,,,,,repeat,number,numRpt,j,Hi,,,,,,0.6475,1,,,,,,,,low,27,0,27,0,1,,,,,,,,,
297568,2022-11-27_12h43.16.694,vts_reward_expectancy_bt,2022.2.4,Win32,59.91970759,Chrome,1536,864,,,,,1,932,,,,,,,,,,,,,,,,,Y,174,circle,1,0,,,,,,,,,,,,,,,,repeat,number,numRpt,k,Lo,,,,,,0.6468,1,,,,,,,,low,28,0,28,0,1,,,,,,,,,
297568,2022-11-27_12h43.16.694,vts_reward_expectancy_bt,2022.2.4,Win32,59.91970759,Chrome,1536,864,,,,,1,933,,,,,,,,,,,,,,,,,B,160,hexagon,1,0,,,,,,,,,,,,,,,,repeat,number,numRpt,k,Lo,,,,,,0.8522,1,,,,,,,,low,29,0,29,0,1,,,,,,,,,
297568,2022-11-27_12h43.16.694,vts_reward_expectancy_bt,2022.2.4,Win32,59.91970759,Chrome,1536,864,,,,,1,934,,,,,,,,,,,,,,,,,S,132,star,1,0,,,,,,,,,,,,,,,,repeat,number,numRpt,j,Hi,,,,,,0.564,1,,,,,,,,low,30,0,30,0,1,,,,,,,,,
297568,2022-11-27_12h43.16.694,vts_reward_expectancy_bt,2022.2.4,Win32,59.91970759,Chrome,1536,864,,,,,0,934,,,,,,,,,,,,,,,,,F,139,triangle,1,0,,,,,,,,,,,,,,,,repeat,number,numRpt,j,Hi,,,,,,0.681,1,,,,,,,,low,31,0,31,0,1,,,,,,,,,
297568,2022-11-27_12h43.16.694,vts_reward_expectancy_bt,2022.2.4,Win32,59.91970759,Chrome,1536,864,,,,,0,934,,,,,,,,,,,,,,,,,F,132,triangle,1,0,,,,,,,,,,,,,,,,repeat,number,numRpt,j,Hi,,,,,,0.6421,2,,,,,,space,5.5148,low,0,0,0,0,1,,,,,,,,,
297568,2022-11-27_12h43.16.694,vts_reward_expectancy_bt,2022.2.4,Win32,59.91970759,Chrome,1536,864,,,,,1,935,,,,,,,,,,,,,,,,,U,167,hexagon,1,0,,,,,,,,,,,,,,,,repeat,number,numRpt,k,Lo,,,,,,0.6141,2,,,,,,,,low,1,0,1,0,1,,,,,,,,,
297568,2022-11-27_12h43.16.694,vts_reward_expectancy_bt,2022.2.4,Win32,59.91970759,Chrome,1536,864,,,,,1,936,,,,,,,,,,,,,,,,,S,146,circle,1,0,,,,,,,,,,,,,,,,repeat,number,numRpt,j,Lo,,,,,,0.4949,2,,,,,,,,low,2,0,2,0,1,,,,,,,,,
297568,2022-11-27_12h43.16.694,vts_reward_expectancy_bt,2022.2.4,Win32,59.91970759,Chrome,1536,864,,,,,0,936,,,,,,,,,,,,,,,,,H,139,star,1,0,,,,,,,,,,,,,,,,repeat,number,numRpt,j,Hi,,,,,,0.6189,2,,,,,,,,low,3,0,3,0,1,,,,,,,,,
297568,2022-11-27_12h43.16.694,vts_reward_expectancy_bt,2022.2.4,Win32,59.91970759,Chrome,1536,864,,,,,10,946,,,,,,,,,,,,,,,,,Y,125,triangle,1,0,,,,,,,,,,,,,,,,repeat,number,numRpt,j,Hi,,,,,,0.5826,2,,,,,,,,low,4,0,4,0,1,,,,,,,,,
297568,2022-11-27_12h43.16.694,vts_reward_expectancy_bt,2022.2.4,Win32,59.91970759,Chrome,1536,864,,,,,0,946,,,,,,,,,,,,,,,,,W,174,hexagon,0,0,,,,,,,,,,,,,,,,repeat,number,NA,j,Hi,,,,,,0.8995,2,,,,,,,,low,5,0,5,0,1,,,,,,,,,
297568,2022-11-27_12h43.16.694,vts_reward_expectancy_bt,2022.2.4,Win32,59.91970759,Chrome,1536,864,,,,,0,946,,,,,,,,,,,,,,,,,D,160,circle,0,1,,,,,,,,,,,,,,,,repeat,number,NA,j,Hi,,,,,,0.6311,2,,,,,,,,low,6,0,6,0,1,,,,,,,,,
297568,2022-11-27_12h43.16.694,vts_reward_expectancy_bt,2022.2.4,Win32,59.91970759,Chrome,1536,864,,,,,0,946,,,,,,,,,,,,,,,,,B,181,star,1,1,,,,,,,,,,,,,,,,repeat,number,numRpt,k,Hi,,,,,,0.6623,2,,,,,,,,low,7,0,7,0,1,,,,,,,,,
297568,2022-11-27_12h43.16.694,vts_reward_expectancy_bt,2022.2.4,Win32,59.91970759,Chrome,1536,864,,,,,10,956,,,,,,,,,,,,,,,,,F,132,circle,1,0,,,,,,,,,,,,,,,,repeat,number,numRpt,j,Lo,,,,,,0.5892,2,,,,,,,,low,8,0,8,0,1,,,,,,,,,
297568,2022-11-27_12h43.16.694,vts_reward_expectancy_bt,2022.2.4,Win32,59.91970759,Chrome,1536,864,,,,,1,957,,,,,,,,,,,,,,,,,U,167,hexagon,1,0,,,,,,,,,,,,,,,,repeat,number,numRpt,k,Lo,,,,,,0.6019,2,,,,,,,,low,9,0,9,0,1,,,,,,,,,
297568,2022-11-27_12h43.16.694,vts_reward_expectancy_bt,2022.2.4,Win32,59.91970759,Chrome,1536,864,,,,,0,957,,,,,,,,,,,,,,,,,S,146,triangle,1,0,,,,,,,,,,,,,,,,repeat,number,numRpt,j,Hi,,,,,,0.5954,2,,,,,,,,low,10,0,10,0,1,,,,,,,,,
297568,2022-11-27_12h43.16.694,vts_reward_expectancy_bt,2022.2.4,Win32,59.91970759,Chrome,1536,864,,,,,1,958,,,,,,,,,,,,,,,,,H,139,star,1,0,,,,,,,,,,,,,,,,repeat,number,numRpt,j,Hi,,,,,,0.5292,2,,,,,,,,low,11,0,11,0,1,,,,,,,,,
297568,2022-11-27_12h43.16.694,vts_reward_expectancy_bt,2022.2.4,Win32,59.91970759,Chrome,1536,864,,,,,1,959,,,,,,,,,,,,,,,,,Y,125,hexagon,1,0,,,,,,,,,,,,,,,,repeat,number,numRpt,j,Lo,,,,,,0.5826,2,,,,,,,,low,12,0,12,0,1,,,,,,,,,
297568,2022-11-27_12h43.16.694,vts_reward_expectancy_bt,2022.2.4,Win32,59.91970759,Chrome,1536,864,,,,,1,960,,,,,,,,,,,,,,,,,W,174,circle,1,0,,,,,,,,,,,,,,,,repeat,number,numRpt,k,Lo,,,,,,0.6558,2,,,,,,,,low,13,0,13,0,1,,,,,,,,,
297568,2022-11-27_12h43.16.694,vts_reward_expectancy_bt,2022.2.4,Win32,59.91970759,Chrome,1536,864,,,,,0,960,,,,,,,,,,,,,,,,,D,160,triangle,1,0,,,,,,,,,,,,,,,,repeat,number,numRpt,k,Hi,,,,,,0.8645,2,,,,,,,,low,14,0,14,0,1,,,,,,,,,
297568,2022-11-27_12h43.16.694,vts_reward_expectancy_bt,2022.2.4,Win32,59.91970759,Chrome,1536,864,,,,,0,960,,,,,,,,,,,,,,,,,B,181,star,1,0,,,,,,,,,,,,,,,,repeat,number,numRpt,k,Hi,,,,,,0.8634,2,,,,,,,,low,15,0,15,0,1,,,,,,,,,
297568,2022-11-27_12h43.16.694,vts_reward_expectancy_bt,2022.2.4,Win32,59.91970759,Chrome,1536,864,,,,,10,970,,,,,,,,,,,,,,,,,H,167,circle,1,0,,,,,,,,,,,,,,,,repeat,number,numRpt,k,Lo,,,,,,1.1804,2,,,,,,,,low,16,0,16,0,1,,,,,,,,,
297568,2022-11-27_12h43.16.694,vts_reward_expectancy_bt,2022.2.4,Win32,59.91970759,Chrome,1536,864,,,,,10,980,,,,,,,,,,,,,,,,,U,132,triangle,1,0,,,,,,,,,,,,,,,,repeat,number,numRpt,j,Hi,,,,,,0.4138,2,,,,,,,,low,17,0,17,0,1,,,,,,,,,
297568,2022-11-27_12h43.16.694,vts_reward_expectancy_bt,2022.2.4,Win32,59.91970759,Chrome,1536,864,,,,,0,980,,,,,,,,,,,,,,,,,F,146,star,1,0,,,,,,,,,,,,,,,,repeat,number,numRpt,j,Hi,,,,,,0.6964,2,,,,,,,,low,18,0,18,0,1,,,,,,,,,
297568,2022-11-27_12h43.16.694,vts_reward_expectancy_bt,2022.2.4,Win32,59.91970759,Chrome,1536,864,,,,,10,990,,,,,,,,,,,,,,,,,Y,181,hexagon,1,0,,,,,,,,,,,,,,,,repeat,number,numRpt,k,Lo,,,,,,0.6294,2,,,,,,,,low,19,0,19,0,1,,,,,,,,,
297568,2022-11-27_12h43.16.694,vts_reward_expectancy_bt,2022.2.4,Win32,59.91970759,Chrome,1536,864,,,,,1,991,,,,,,,,,,,,,,,,,W,125,star,1,0,,,,,,,,,,,,,,,,repeat,number,numRpt,j,Hi,,,,,,0.5457,2,,,,,,,,low,20,0,20,0,1,,,,,,,,,
297568,2022-11-27_12h43.16.694,vts_reward_expectancy_bt,2022.2.4,Win32,59.91970759,Chrome,1536,864,,,,,10,1001,,,,,,,,,,,,,,,,,D,139,triangle,1,0,,,,,,,,,,,,,,,,repeat,number,numRpt,j,Hi,,,,,,0.5737,2,,,,,,,,low,21,0,21,0,1,,,,,,,,,
297568,2022-11-27_12h43.16.694,vts_reward_expectancy_bt,2022.2.4,Win32,59.91970759,Chrome,1536,864,,,,,10,1011,,,,,,,,,,,,,,,,,S,160,hexagon,1,0,,,,,,,,,,,,,,,,repeat,number,numRpt,k,Lo,,,,,,0.6114,2,,,,,,,,low,22,0,22,0,1,,,,,,,,,
297568,2022-11-27_12h43.16.694,vts_reward_expectancy_bt,2022.2.4,Win32,59.91970759,Chrome,1536,864,,,,,1,1012,,,,,,,,,,,,,,,,,B,174,circle,1,0,,,,,,,,,,,,,,,,repeat,number,numRpt,k,Lo,,,,,,0.6537,2,,,,,,,,low,23,0,23,0,1,,,,,,,,,
297568,2022-11-27_12h43.16.694,vts_reward_expectancy_bt,2022.2.4,Win32,59.91970759,Chrome,1536,864,,,,,10,1022,,,,,,,,,,,,,,,,,W,146,circle,1,0,,,,,,,,,,,,,,,,repeat,number,numRpt,j,Lo,,,,,,0.6479,2,,,,,,,,low,24,0,24,0,1,,,,,,,,,
297568,2022-11-27_12h43.16.694,vts_reward_expectancy_bt,2022.2.4,Win32,59.91970759,Chrome,1536,864,,,,,10,1032,,,,,,,,,,,,,,,,,Y,132,triangle,1,0,,,,,,,,,,,,,,,,repeat,number,numRpt,j,Hi,,,,,,0.5861,2,,,,,,,,low,25,0,25,0,1,,,,,,,,,
297568,2022-11-27_12h43.16.694,vts_reward_expectancy_bt,2022.2.4,Win32,59.91970759,Chrome,1536,864,,,,,0,1032,,,,,,,,,,,,,,,,,D,139,star,1,0,,,,,,,,,,,,,,,,repeat,number,numRpt,j,Hi,,,,,,0.752,2,,,,,,,,low,26,0,26,0,1,,,,,,,,,
297568,2022-11-27_12h43.16.694,vts_reward_expectancy_bt,2022.2.4,Win32,59.91970759,Chrome,1536,864,,,,,0,1032,,,,,,,,,,,,,,,,,H,160,hexagon,0,0,,,,,,,,,,,,,,,,repeat,number,NA,j,Hi,,,,,,0.8365,2,,,,,,,,low,27,0,27,0,1,,,,,,,,,
297568,2022-11-27_12h43.16.694,vts_reward_expectancy_bt,2022.2.4,Win32,59.91970759,Chrome,1536,864,,,,,0,1032,,,,,,,,,,,,,,,,,U,167,star,1,1,,,,,,,,,,,,,,,,repeat,number,numRpt,k,Hi,,,,,,1.0405,2,,,,,,,,low,28,0,28,0,1,,,,,,,,,
297568,2022-11-27_12h43.16.694,vts_reward_expectancy_bt,2022.2.4,Win32,59.91970759,Chrome,1536,864,,,,,1,1033,,,,,,,,,,,,,,,,,F,125,circle,1,0,,,,,,,,,,,,,,,,repeat,number,numRpt,j,Lo,,,,,,0.6955,2,,,,,,,,low,29,0,29,0,1,,,,,,,,,
297568,2022-11-27_12h43.16.694,vts_reward_expectancy_bt,2022.2.4,Win32,59.91970759,Chrome,1536,864,,,,,1,1034,,,,,,,,,,,,,,,,,B,181,hexagon,1,0,,,,,,,,,,,,,,,,repeat,number,numRpt,k,Lo,,,,,,0.7972,2,,,,,,,,low,30,0,30,0,1,,,,,,,,,
297568,2022-11-27_12h43.16.694,vts_reward_expectancy_bt,2022.2.4,Win32,59.91970759,Chrome,1536,864,,,,,0,1034,,,,,,,,,,,,,,,,,S,174,triangle,1,0,,,,,,,,,,,,,,,,repeat,number,numRpt,k,Hi,,,,,,0.7636,2,,,,,,,,low,31,0,31,0,1,,,,,,,,,
297568,2022-11-27_12h43.16.694,vts_reward_expectancy_bt,2022.2.4,Win32,59.91970759,Chrome,1536,864,,,,,10,1044,,,,,,,,,,,,,,,,,H,125,triangle,1,0,,,,,,,,,,,,,,,,repeat,number,numRpt,j,Hi,,,,,,0.5133,3,,,,,,space,4.8805,low,0,0,0,0,1,,,,,,,,,
297568,2022-11-27_12h43.16.694,vts_reward_expectancy_bt,2022.2.4,Win32,59.91970759,Chrome,1536,864,,,,,0,1044,,,,,,,,,,,,,,,,,B,174,hexagon,0,0,,,,,,,,,,,,,,,,repeat,number,NA,j,Hi,,,,,,0.4288,3,,,,,,,,low,1,0,1,0,1,,,,,,,,,
297568,2022-11-27_12h43.16.694,vts_reward_expectancy_bt,2022.2.4,Win32,59.91970759,Chrome,1536,864,,,,,1,1045,,,,,,,,,,,,,,,,,D,132,star,1,1,,,,,,,,,,,,,,,,repeat,number,numRpt,j,Hi,,,,,,0.486,3,,,,,,,,low,2,0,2,0,1,,,,,,,,,
297568,2022-11-27_12h43.16.694,vts_reward_expectancy_bt,2022.2.4,Win32,59.91970759,Chrome,1536,864,,,,,1,1046,,,,,,,,,,,,,,,,,W,167,circle,1,0,,,,,,,,,,,,,,,,repeat,number,numRpt,k,Lo,,,,,,0.7793,3,,,,,,,,low,3,0,3,0,1,,,,,,,,,
297568,2022-11-27_12h43.16.694,vts_reward_expectancy_bt,2022.2.4,Win32,59.91970759,Chrome,1536,864,,,,,0,1046,,,,,,,,,,,,,,,,,U,139,triangle,1,0,,,,,,,,,,,,,,,,repeat,number,numRpt,j,Hi,,,,,,0.719,3,,,,,,,,low,4,0,4,0,1,,,,,,,,,
297568,2022-11-27_12h43.16.694,vts_reward_expectancy_bt,2022.2.4,Win32,59.91970759,Chrome,1536,864,,,,,1,1047,,,,,,,,,,,,,,,,,S,181,hexagon,1,0,,,,,,,,,,,,,,,,repeat,number,numRpt,k,Lo,,,,,,0.6269,3,,,,,,,,low,5,0,5,0,1,,,,,,,,,
297568,2022-11-27_12h43.16.694,vts_reward_expectancy_bt,2022.2.4,Win32,59.91970759,Chrome,1536,864,,,,,0,1047,,,,,,,,,,,,,,,,,Y,160,star,1,0,,,,,,,,,,,,,,,,repeat,number,numRpt,k,Hi,,,,,,0.9637,3,,,,,,,,low,6,0,6,0,1,,,,,,,,,
297568,2022-11-27_12h43.16.694,vts_reward_expectancy_bt,2022.2.4,Win32,59.91970759,Chrome,1536,864,,,,,1,1048,,,,,,,,,,,,,,,,,F,146,circle,1,0,,,,,,,,,,,,,,,,repeat,number,numRpt,j,Lo,,,,,,0.9126,3,,,,,,,,low,7,0,7,0,1,,,,,,,,,
297568,2022-11-27_12h43.16.694,vts_reward_expectancy_bt,2022.2.4,Win32,59.91970759,Chrome,1536,864,,,,,1,1049,,,,,,,,,,,,,,,,,H,125,circle,1,0,,,,,,,,,,,,,,,,repeat,number,numRpt,j,Lo,,,,,,0.6019,3,,,,,,,,low,8,0,8,0,1,,,,,,,,,
297568,2022-11-27_12h43.16.694,vts_reward_expectancy_bt,2022.2.4,Win32,59.91970759,Chrome,1536,864,,,,,0,1049,,,,,,,,,,,,,,,,,B,174,triangle,1,0,,,,,,,,,,,,,,,,repeat,number,numRpt,k,Hi,,,,,,0.7362,3,,,,,,,,low,9,0,9,0,1,,,,,,,,,
297568,2022-11-27_12h43.16.694,vts_reward_expectancy_bt,2022.2.4,Win32,59.91970759,Chrome,1536,864,,,,,0,1049,,,,,,,,,,,,,,,,,D,132,star,1,0,,,,,,,,,,,,,,,,repeat,number,numRpt,j,Hi,,,,,,0.6461,3,,,,,,,,low,10,0,10,0,1,,,,,,,,,
297568,2022-11-27_12h43.16.694,vts_reward_expectancy_bt,2022.2.4,Win32,59.91970759,Chrome,1536,864,,,,,10,1059,,,,,,,,,,,,,,,,,W,167,hexagon,1,0,,,,,,,,,,,,,,,,repeat,number,numRpt,k,Lo,,,,,,0.4809,3,,,,,,,,low,11,0,11,0,1,,,,,,,,,
297568,2022-11-27_12h43.16.694,vts_reward_expectancy_bt,2022.2.4,Win32,59.91970759,Chrome,1536,864,,,,,1,1060,,,,,,,,,,,,,,,,,U,139,circle,1,0,,,,,,,,,,,,,,,,repeat,number,numRpt,j,Lo,,,,,,0.579,3,,,,,,,,low,12,0,12,0,1,,,,,,,,,
297568,2022-11-27_12h43.16.694,vts_reward_expectancy_bt,2022.2.4,Win32,59.91970759,Chrome,1536,864,,,,,0,1060,,,,,,,,,,,,,,,,,S,181,star,1,0,,,,,,,,,,,,,,,,repeat,number,numRpt,k,Hi,,,,,,0.696,3,,,,,,,,low,13,0,13,0,1,,,,,,,,,
297568,2022-11-27_12h43.16.694,vts_reward_expectancy_bt,2022.2.4,Win32,59.91970759,Chrome,1536,864,,,,,0,1060,,,,,,,,,,,,,,,,,Y,160,triangle,1,0,,,,,,,,,,,,,,,,repeat,number,numRpt,k,Hi,,,,,,0.9126,3,,,,,,,,low,14,0,14,0,1,,,,,,,,,
297568,2022-11-27_12h43.16.694,vts_reward_expectancy_bt,2022.2.4,Win32,59.91970759,Chrome,1536,864,,,,,10,1070,,,,,,,,,,,,,,,,,F,146,hexagon,1,0,,,,,,,,,,,,,,,,repeat,number,numRpt,j,Lo,,,,,,0.7952,3,,,,,,,,low,15,0,15,0,1,,,,,,,,,
297568,2022-11-27_12h43.16.694,vts_reward_expectancy_bt,2022.2.4,Win32,59.91970759,Chrome,1536,864,,,,,0,1070,,,,,,,,,,,,,,,,,B,132,hexagon,0,0,,,,,,,,,,,,,,,,repeat,number,NA,k,Lo,,,,,,0.7284,3,,,,,,,,low,16,0,16,0,1,,,,,,,,,
297568,2022-11-27_12h43.16.694,vts_reward_expectancy_bt,2022.2.4,Win32,59.91970759,Chrome,1536,864,,,,,0,1070,,,,,,,,,,,,,,,,,W,167,star,1,1,,,,,,,,,,,,,,,,repeat,number,numRpt,k,Hi,,,,,,0.7478,3,,,,,,,,low,17,0,17,0,1,,,,,,,,,
297568,2022-11-27_12h43.16.694,vts_reward_expectancy_bt,2022.2.4,Win32,59.91970759,Chrome,1536,864,,,,,10,1080,,,,,,,,,,,,,,,,,D,181,circle,1,0,,,,,,,,,,,,,,,,repeat,number,numRpt,k,Lo,,,,,,0.7225,3,,,,,,,,low,18,0,18,0,1,,,,,,,,,
297568,2022-11-27_12h43.16.694,vts_reward_expectancy_bt,2022.2.4,Win32,59.91970759,Chrome,1536,864,,,,,0,1080,,,,,,,,,,,,,,,,,Y,160,triangle,1,0,,,,,,,,,,,,,,,,repeat,number,numRpt,k,Hi,,,,,,0.7349,3,,,,,,,,low,19,0,19,0,1,,,,,,,,,
297568,2022-11-27_12h43.16.694,vts_reward_expectancy_bt,2022.2.4,Win32,59.91970759,Chrome,1536,864,,,,,0,1080,,,,,,,,,,,,,,,,,S,174,triangle,1,0,,,,,,,,,,,,,,,,repeat,number,numRpt,k,Hi,,,,,,0.597,3,,,,,,,,low,20,0,20,0,1,,,,,,,,,
297568,2022-11-27_12h43.16.694,vts_reward_expectancy_bt,2022.2.4,Win32,59.91970759,Chrome,1536,864,,,,,1,1081,,,,,,,,,,,,,,,,,F,125,hexagon,1,0,,,,,,,,,,,,,,,,repeat,number,numRpt,j,Lo,,,,,,0.5844,3,,,,,,,,low,21,0,21,0,1,,,,,,,,,
297568,2022-11-27_12h43.16.694,vts_reward_expectancy_bt,2022.2.4,Win32,59.91970759,Chrome,1536,864,,,,,0,1081,,,,,,,,,,,,,,,,,H,146,star,1,0,,,,,,,,,,,,,,,,repeat,number,numRpt,j,Hi,,,,,,0.7021,3,,,,,,,,low,22,0,22,0,1,,,,,,,,,
297568,2022-11-27_12h43.16.694,vts_reward_expectancy_bt,2022.2.4,Win32,59.91970759,Chrome,1536,864,,,,,10,1091,,,,,,,,,,,,,,,,,U,139,circle,1,0,,,,,,,,,,,,,,,,repeat,number,numRpt,j,Lo,,,,,,0.6134,3,,,,,,,,low,23,0,23,0,1,,,,,,,,,
297568,2022-11-27_12h43.16.694,vts_reward_expectancy_bt,2022.2.4,Win32,59.91970759,Chrome,1536,864,,,,,0,1091,,,,,,,,,,,,,,,,,S,181,triangle,1,0,,,,,,,,,,,,,,,,repeat,number,numRpt,k,Hi,,,,,,0.6128,3,,,,,,,,low,24,0,24,0,1,,,,,,,,,
297568,2022-11-27_12h43.16.694,vts_reward_expectancy_bt,2022.2.4,Win32,59.91970759,Chrome,1536,864,,,,,1,1092,,,,,,,,,,,,,,,,,H,160,hexagon,1,0,,,,,,,,,,,,,,,,repeat,number,numRpt,k,Lo,,,,,,0.6958,3,,,,,,,,low,25,0,25,0,1,,,,,,,,,
297568,2022-11-27_12h43.16.694,vts_reward_expectancy_bt,2022.2.4,Win32,59.91970759,Chrome,1536,864,,,,,10,1102,,,,,,,,,,,,,,,,,W,174,circle,1,0,,,,,,,,,,,,,,,,repeat,number,numRpt,k,Lo,,,,,,0.6691,3,,,,,,,,low,26,0,26,0,1,,,,,,,,,
297568,2022-11-27_12h43.16.694,vts_reward_expectancy_bt,2022.2.4,Win32,59.91970759,Chrome,1536,864,,,,,0,1102,,,,,,,,,,,,,,,,,B,125,star,1,0,,,,,,,,,,,,,,,,repeat,number,numRpt,j,Hi,,,,,,0.8056,3,,,,,,,,low,27,0,27,0,1,,,,,,,,,
297568,2022-11-27_12h43.16.694,vts_reward_expectancy_bt,2022.2.4,Win32,59.91970759,Chrome,1536,864,,,,,10,1112,,,,,,,,,,,,,,,,,F,167,hexagon,1,0,,,,,,,,,,,,,,,,repeat,number,numRpt,k,Lo,,,,,,0.8728,3,,,,,,,,low,28,0,28,0,1,,,,,,,,,
297568,2022-11-27_12h43.16.694,vts_reward_expectancy_bt,2022.2.4,Win32,59.91970759,Chrome,1536,864,,,,,10,1122,,,,,,,,,,,,,,,,,U,132,circle,1,0,,,,,,,,,,,,,,,,repeat,number,numRpt,j,Lo,,,,,,0.613,3,,,,,,,,low,29,0,29,0,1,,,,,,,,,
297568,2022-11-27_12h43.16.694,vts_reward_expectancy_bt,2022.2.4,Win32,59.91970759,Chrome,1536,864,,,,,0,1122,,,,,,,,,,,,,,,,,D,139,star,0,0,,,,,,,,,,,,,,,,repeat,number,NA,k,Lo,,,,,,0.6292,3,,,,,,,,low,30,0,30,0,1,,,,,,,,,
297568,2022-11-27_12h43.16.694,vts_reward_expectancy_bt,2022.2.4,Win32,59.91970759,Chrome,1536,864,,,,,0,1122,,,,,,,,,,,,,,,,,Y,146,triangle,1,1,,,,,,,,,,,,,,,,repeat,number,numRpt,j,Hi,,,,,,1.4706,3,,,,,,,,low,31,0,31,0,1,,,,,,,,,
297568,2022-11-27_12h43.16.694,vts_reward_expectancy_bt,2022.2.4,Win32,59.91970759,Chrome,1536,864,,,,,0,1122,,,,,,,,,,,,,,,,,B,125,star,1,0,,,,,,,,,,,,,,,,repeat,number,numRpt,j,Hi,,,,,,0.8468,4,,,,,,space,1.105,low,0,0,0,0,1,,,,,,,,,
297568,2022-11-27_12h43.16.694,vts_reward_expectancy_bt,2022.2.4,Win32,59.91970759,Chrome,1536,864,,,,,1,1123,,,,,,,,,,,,,,,,,S,181,hexagon,1,0,,,,,,,,,,,,,,,,repeat,number,numRpt,k,Lo,,,,,,0.5132,4,,,,,,,,low,1,0,1,0,1,,,,,,,,,
297568,2022-11-27_12h43.16.694,vts_reward_expectancy_bt,2022.2.4,Win32,59.91970759,Chrome,1536,864,,,,,1,1124,,,,,,,,,,,,,,,,,F,139,triangle,1,0,,,,,,,,,,,,,,,,repeat,number,numRpt,j,Hi,,,,,,0.5386,4,,,,,,,,low,2,0,2,0,1,,,,,,,,,
297568,2022-11-27_12h43.16.694,vts_reward_expectancy_bt,2022.2.4,Win32,59.91970759,Chrome,1536,864,,,,,10,1134,,,,,,,,,,,,,,,,,D,160,circle,1,0,,,,,,,,,,,,,,,,repeat,number,numRpt,k,Lo,,,,,,0.537,4,,,,,,,,low,3,0,3,0,1,,,,,,,,,
297568,2022-11-27_12h43.16.694,vts_reward_expectancy_bt,2022.2.4,Win32,59.91970759,Chrome,1536,864,,,,,0,1134,,,,,,,,,,,,,,,,,H,167,star,1,0,,,,,,,,,,,,,,,,repeat,number,numRpt,k,Hi,,,,,,0.7022,4,,,,,,,,low,4,0,4,0,1,,,,,,,,,
297568,2022-11-27_12h43.16.694,vts_reward_expectancy_bt,2022.2.4,Win32,59.91970759,Chrome,1536,864,,,,,1,1135,,,,,,,,,,,,,,,,,U,132,hexagon,1,0,,,,,,,,,,,,,,,,repeat,number,numRpt,j,Lo,,,,,,0.5408,4,,,,,,,,low,5,0,5,0,1,,,,,,,,,
297568,2022-11-27_12h43.16.694,vts_reward_expectancy_bt,2022.2.4,Win32,59.91970759,Chrome,1536,864,,,,,0,1135,,,,,,,,,,,,,,,,,Y,174,triangle,1,0,,,,,,,,,,,,,,,,repeat,number,numRpt,k,Hi,,,,,,0.7458,4,,,,,,,,low,6,0,6,0,1,,,,,,,,,
297568,2022-11-27_12h43.16.694,vts_reward_expectancy_bt,2022.2.4,Win32,59.91970759,Chrome,1536,864,,,,,1,1136,,,,,,,,,,,,,,,,,W,146,circle,1,0,,,,,,,,,,,,,,,,repeat,number,numRpt,j,Lo,,,,,,0.7523,4,,,,,,,,low,7,0,7,0,1,,,,,,,,,
297568,2022-11-27_12h43.16.694,vts_reward_expectancy_bt,2022.2.4,Win32,59.91970759,Chrome,1536,864,,,,,10,1146,,,,,,,,,,,,,,,,,B,125,triangle,1,0,,,,,,,,,,,,,,,,repeat,number,numRpt,j,Hi,,,,,,0.597,4,,,,,,,,low,8,0,8,0,1,,,,,,,,,
297568,2022-11-27_12h43.16.694,vts_reward_expectancy_bt,2022.2.4,Win32,59.91970759,Chrome,1536,864,,,,,1,1147,,,,,,,,,,,,,,,,,S,181,star,1,0,,,,,,,,,,,,,,,,repeat,number,numRpt,k,Hi,,,,,,0.546,4,,,,,,,,low,9,0,9,0,1,,,,,,,,,
297568,2022-11-27_12h43.16.694,vts_reward_expectancy_bt,2022.2.4,Win32,59.91970759,Chrome,1536,864,,,,,10,1157,,,,,,,,,,,,,,,,,F,139,circle,1,0,,,,,,,,,,,,,,,,repeat,number,numRpt,j,Lo,,,,,,0.6474,4,,,,,,,,low,10,0,10,0,1,,,,,,,,,
297568,2022-11-27_12h43.16.694,vts_reward_expectancy_bt,2022.2.4,Win32,59.91970759,Chrome,1536,864,,,,,1,1158,,,,,,,,,,,,,,,,,D,160,hexagon,1,0,,,,,,,,,,,,,,,,repeat,number,numRpt,k,Lo,,,,,,0.5643,4,,,,,,,,low,11,0,11,0,1,,,,,,,,,
297568,2022-11-27_12h43.16.694,vts_reward_expectancy_bt,2022.2.4,Win32,59.91970759,Chrome,1536,864,,,,,0,1158,,,,,,,,,,,,,,,,,H,167,star,0,0,,,,,,,,,,,,,,,,repeat,number,NA,j,Lo,,,,,,0.5477,4,,,,,,,,low,12,0,12,0,1,,,,,,,,,
297568,2022-11-27_12h43.16.694,vts_reward_expectancy_bt,2022.2.4,Win32,59.91970759,Chrome,1536,864,,,,,1,1159,,,,,,,,,,,,,,,,,U,132,hexagon,1,1,,,,,,,,,,,,,,,,repeat,number,numRpt,j,Lo,,,,,,0.5628,4,,,,,,,,low,13,0,13,0,1,,,,,,,,,
297568,2022-11-27_12h43.16.694,vts_reward_expectancy_bt,2022.2.4,Win32,59.91970759,Chrome,1536,864,,,,,0,1159,,,,,,,,,,,,,,,,,Y,174,triangle,1,0,,,,,,,,,,,,,,,,repeat,number,numRpt,k,Hi,,,,,,0.7639,4,,,,,,,,low,14,0,14,0,1,,,,,,,,,
297568,2022-11-27_12h43.16.694,vts_reward_expectancy_bt,2022.2.4,Win32,59.91970759,Chrome,1536,864,,,,,1,1160,,,,,,,,,,,,,,,,,W,146,circle,1,0,,,,,,,,,,,,,,,,repeat,number,numRpt,j,Lo,,,,,,0.6973,4,,,,,,,,low,15,0,15,0,1,,,,,,,,,
297568,2022-11-27_12h43.16.694,vts_reward_expectancy_bt,2022.2.4,Win32,59.91970759,Chrome,1536,864,,,,,0,1160,,,,,,,,,,,,,,,,,D,139,star,1,0,,,,,,,,,,,,,,,,repeat,number,numRpt,j,Hi,,,,,,0.6633,4,,,,,,,,low,16,0,16,0,1,,,,,,,,,
297568,2022-11-27_12h43.16.694,vts_reward_expectancy_bt,2022.2.4,Win32,59.91970759,Chrome,1536,864,,,,,1,1161,,,,,,,,,,,,,,,,,W,181,circle,1,0,,,,,,,,,,,,,,,,repeat,number,numRpt,k,Lo,,,,,,0.6306,4,,,,,,,,low,17,0,17,0,1,,,,,,,,,
297568,2022-11-27_12h43.16.694,vts_reward_expectancy_bt,2022.2.4,Win32,59.91970759,Chrome,1536,864,,,,,0,1161,,,,,,,,,,,,,,,,,Y,125,triangle,1,0,,,,,,,,,,,,,,,,repeat,number,numRpt,j,Hi,,,,,,0.7187,4,,,,,,,,low,18,0,18,0,1,,,,,,,,,
297568,2022-11-27_12h43.16.694,vts_reward_expectancy_bt,2022.2.4,Win32,59.91970759,Chrome,1536,864,,,,,1,1162,,,,,,,,,,,,,,,,,F,174,hexagon,1,0,,,,,,,,,,,,,,,,repeat,number,numRpt,k,Lo,,,,,,0.6812,4,,,,,,,,low,19,0,19,0,1,,,,,,,,,
297568,2022-11-27_12h43.16.694,vts_reward_expectancy_bt,2022.2.4,Win32,59.91970759,Chrome,1536,864,,,,,1,1163,,,,,,,,,,,,,,,,,H,132,hexagon,1,0,,,,,,,,,,,,,,,,repeat,number,numRpt,j,Lo,,,,,,0.8936,4,,,,,,,,low,20,0,20,0,1,,,,,,,,,
297568,2022-11-27_12h43.16.694,vts_reward_expectancy_bt,2022.2.4,Win32,59.91970759,Chrome,1536,864,,,,,10,1173,,,,,,,,,,,,,,,,,U,146,star,1,0,,,,,,,,,,,,,,,,repeat,number,numRpt,j,Hi,,,,,,0.55,4,,,,,,,,low,21,0,21,0,1,,,,,,,,,
297568,2022-11-27_12h43.16.694,vts_reward_expectancy_bt,2022.2.4,Win32,59.91970759,Chrome,1536,864,,,,,0,1173,,,,,,,,,,,,,,,,,B,167,triangle,1,0,,,,,,,,,,,,,,,,repeat,number,numRpt,k,Hi,,,,,,0.7809,4,,,,,,,,low,22,0,22,0,1,,,,,,,,,
297568,2022-11-27_12h43.16.694,vts_reward_expectancy_bt,2022.2.4,Win32,59.91970759,Chrome,1536,864,,,,,1,1174,,,,,,,,,,,,,,,,,S,160,circle,1,0,,,,,,,,,,,,,,,,repeat,number,numRpt,k,Lo,,,,,,1.0638,4,,,,,,,,low,23,0,23,0,1,,,,,,,,,
297568,2022-11-27_12h43.16.694,vts_reward_expectancy_bt,2022.2.4,Win32,59.91970759,Chrome,1536,864,,,,,10,1184,,,,,,,,,,,,,,,,,U,174,star,1,0,,,,,,,,,,,,,,,,repeat,number,numRpt,k,Hi,,,,,,0.5971,4,,,,,,,,low,24,0,24,0,1,,,,,,,,,
297568,2022-11-27_12h43.16.694,vts_reward_expectancy_bt,2022.2.4,Win32,59.91970759,Chrome,1536,864,,,,,1,1185,,,,,,,,,,,,,,,,,S,146,hexagon,1,0,,,,,,,,,,,,,,,,repeat,number,numRpt,j,Lo,,,,,,1.1347,4,,,,,,,,low,25,0,25,0,1,,,,,,,,,
297568,2022-11-27_12h43.16.694,vts_reward_expectancy_bt,2022.2.4,Win32,59.91970759,Chrome,1536,864,,,,,0,1185,,,,,,,,,,,,,,,,,W,132,triangle,1,0,,,,,,,,,,,,,,,,repeat,number,numRpt,j,Hi,,,,,,0.7785,4,,,,,,,,low,26,0,26,0,1,,,,,,,,,
297568,2022-11-27_12h43.16.694,vts_reward_expectancy_bt,2022.2.4,Win32,59.91970759,Chrome,1536,864,,,,,10,1195,,,,,,,,,,,,,,,,,F,125,circle,1,0,,,,,,,,,,,,,,,,repeat,number,numRpt,j,Lo,,,,,,0.5846,4,,,,,,,,low,27,0,27,0,1,,,,,,,,,
297568,2022-11-27_12h43.16.694,vts_reward_expectancy_bt,2022.2.4,Win32,59.91970759,Chrome,1536,864,,,,,0,1195,,,,,,,,,,,,,,,,,Y,181,star,0,0,,,,,,,,,,,,,,,,repeat,number,NA,j,Lo,,,,,,0.7458,4,,,,,,,,low,28,0,28,0,1,,,,,,,,,
297568,2022-11-27_12h43.16.694,vts_reward_expectancy_bt,2022.2.4,Win32,59.91970759,Chrome,1536,864,,,,,0,1195,,,,,,,,,,,,,,,,,D,160,triangle,1,1,,,,,,,,,,,,,,,,repeat,number,numRpt,k,Hi,,,,,,0.7482,4,,,,,,,,low,29,0,29,0,1,,,,,,,,,
297568,2022-11-27_12h43.16.694,vts_reward_expectancy_bt,2022.2.4,Win32,59.91970759,Chrome,1536,864,,,,,1,1196,,,,,,,,,,,,,,,,,B,167,hexagon,1,0,,,,,,,,,,,,,,,,repeat,number,numRpt,k,Lo,,,,,,0.6096,4,,,,,,,,low,30,0,30,0,1,,,,,,,,,
297568,2022-11-27_12h43.16.694,vts_reward_expectancy_bt,2022.2.4,Win32,59.91970759,Chrome,1536,864,,,,,1,1197,,,,,,,,,,,,,,,,,H,139,circle,1,0,,,,,,,,,,,,,,,,repeat,number,numRpt,j,Lo,,,,,,0.8306,4,,,,,,,,low,31,0,31,0,1,,,,,,,,,
297568,2022-11-27_12h43.16.694,vts_reward_expectancy_bt,2022.2.4,Win32,59.91970759,Chrome,1536,864,,,,,1,1198,,,,,,,,,,,,,,,,,F,174,hexagon,1,0,,,,,,,,,,,,,,,,repeat,number,numRpt,k,Lo,,,,,,0.9273,5,,,,,,space,1.0807,low,0,0,0,0,1,,,,,,,,,
297568,2022-11-27_12h43.16.694,vts_reward_expectancy_bt,2022.2.4,Win32,59.91970759,Chrome,1536,864,,,,,1,1199,,,,,,,,,,,,,,,,,H,181,circle,1,0,,,,,,,,,,,,,,,,repeat,number,numRpt,k,Lo,,,,,,0.5793,5,,,,,,,,low,1,0,1,0,1,,,,,,,,,
297568,2022-11-27_12h43.16.694,vts_reward_expectancy_bt,2022.2.4,Win32,59.91970759,Chrome,1536,864,,,,,1,1200,,,,,,,,,,,,,,,,,D,139,star,1,0,,,,,,,,,,,,,,,,repeat,number,numRpt,j,Hi,,,,,,0.3983,5,,,,,,,,low,2,0,2,0,1,,,,,,,,,
297568,2022-11-27_12h43.16.694,vts_reward_expectancy_bt,2022.2.4,Win32,59.91970759,Chrome,1536,864,,,,,10,1210,,,,,,,,,,,,,,,,,W,160,triangle,1,0,,,,,,,,,,,,,,,,repeat,number,numRpt,k,Hi,,,,,,0.5488,5,,,,,,,,low,3,0,3,0,1,,,,,,,,,
297568,2022-11-27_12h43.16.694,vts_reward_expectancy_bt,2022.2.4,Win32,59.91970759,Chrome,1536,864,,,,,10,1220,,,,,,,,,,,,,,,,,S,125,hexagon,1,0,,,,,,,,,,,,,,,,repeat,number,numRpt,j,Lo,,,,,,0.3435,5,,,,,,,,low,4,0,4,0,1,,,,,,,,,
297568,2022-11-27_12h43.16.694,vts_reward_expectancy_bt,2022.2.4,Win32,59.91970759,Chrome,1536,864,,,,,1,1221,,,,,,,,,,,,,,,,,U,132,circle,1,0,,,,,,,,,,,,,,,,repeat,number,numRpt,j,Lo,,,,,,0.9178,5,,,,,,,,low,5,0,5,0,1,,,,,,,,,
297568,2022-11-27_12h43.16.694,vts_reward_expectancy_bt,2022.2.4,Win32,59.91970759,Chrome,1536,864,,,,,0,1221,,,,,,,,,,,,,,,,,B,167,star,1,0,,,,,,,,,,,,,,,,repeat,number,numRpt,k,Hi,,,,,,0.6416,5,,,,,,,,low,6,0,6,0,1,,,,,,,,,
297568,2022-11-27_12h43.16.694,vts_reward_expectancy_bt,2022.2.4,Win32,59.91970759,Chrome,1536,864,,,,,10,1231,,,,,,,,,,,,,,,,,Y,146,triangle,1,0,,,,,,,,,,,,,,,,repeat,number,numRpt,j,Hi,,,,,,0.5446,5,,,,,,,,low,7,0,7,0,1,,,,,,,,,
297568,2022-11-27_12h43.16.694,vts_reward_expectancy_bt,2022.2.4,Win32,59.91970759,Chrome,1536,864,,,,,1,1232,,,,,,,,,,,,,,,,,F,174,hexagon,1,0,,,,,,,,,,,,,,,,repeat,number,numRpt,k,Lo,,,,,,0.4117,5,,,,,,,,low,8,0,8,0,1,,,,,,,,,
297568,2022-11-27_12h43.16.694,vts_reward_expectancy_bt,2022.2.4,Win32,59.91970759,Chrome,1536,864,,,,,0,1232,,,,,,,,,,,,,,,,,H,181,triangle,1,0,,,,,,,,,,,,,,,,repeat,number,numRpt,k,Hi,,,,,,0.8285,5,,,,,,,,low,9,0,9,0,1,,,,,,,,,
297568,2022-11-27_12h43.16.694,vts_reward_expectancy_bt,2022.2.4,Win32,59.91970759,Chrome,1536,864,,,,,10,1242,,,,,,,,,,,,,,,,,D,139,circle,1,0,,,,,,,,,,,,,,,,repeat,number,numRpt,j,Lo,,,,,,0.652,5,,,,,,,,low,10,0,10,0,1,,,,,,,,,
297568,2022-11-27_12h43.16.694,vts_reward_expectancy_bt,2022.2.4,Win32,59.91970759,Chrome,1536,864,,,,,0,1242,,,,,,,,,,,,,,,,,W,160,star,1,0,,,,,,,,,,,,,,,,repeat,number,numRpt,k,Hi,,,,,,0.6186,5,,,,,,,,low,11,0,11,0,1,,,,,,,,,
297568,2022-11-27_12h43.16.694,vts_reward_expectancy_bt,2022.2.4,Win32,59.91970759,Chrome,1536,864,,,,,1,1243,,,,,,,,,,,,,,,,,S,125,triangle,1,0,,,,,,,,,,,,,,,,repeat,number,numRpt,j,Hi,,,,,,0.4488,5,,,,,,,,low,12,0,12,0,1,,,,,,,,,
297568,2022-11-27_12h43.16.694,vts_reward_expectancy_bt,2022.2.4,Win32,59.91970759,Chrome,1536,864,,,,,0,1243,,,,,,,,,,,,,,,,,U,132,star,1,0,,,,,,,,,,,,,,,,repeat,number,numRpt,j,Hi,,,,,,0.7141,5,,,,,,,,low,13,0,13,0,1,,,,,,,,,
297568,2022-11-27_12h43.16.694,vts_reward_expectancy_bt,2022.2.4,Win32,59.91970759,Chrome,1536,864,,,,,10,1253,,,,,,,,,,,,,,,,,B,167,hexagon,1,0,,,,,,,,,,,,,,,,repeat,number,numRpt,k,Lo,,,,,,0.6893,5,,,,,,,,low,14,0,14,0,1,,,,,,,,,
297568,2022-11-27_12h43.16.694,vts_reward_expectancy_bt,2022.2.4,Win32,59.91970759,Chrome,1536,864,,,,,10,1263,,,,,,,,,,,,,,,,,Y,146,circle,1,0,,,,,,,,,,,,,,,,repeat,number,numRpt,j,Lo,,,,,,0.5474,5,,,,,,,,low,15,0,15,0,1,,,,,,,,,
297568,2022-11-27_12h43.16.694,vts_reward_expectancy_bt,2022.2.4,Win32,59.91970759,Chrome,1536,864,,,,,10,1273,,,,,,,,,,,,,,,,,U,174,star,1,0,,,,,,,,,,,,,,,,repeat,number,numRpt,k,Hi,,,,,,0.5467,5,,,,,,,,low,16,0,16,0,1,,,,,,,,,
297568,2022-11-27_12h43.16.694,vts_reward_expectancy_bt,2022.2.4,Win32,59.91970759,Chrome,1536,864,,,,,0,1273,,,,,,,,,,,,,,,,,F,167,triangle,1,0,,,,,,,,,,,,,,,,repeat,number,numRpt,k,Hi,,,,,,0.6638,5,,,,,,,,low,17,0,17,0,1,,,,,,,,,
297568,2022-11-27_12h43.16.694,vts_reward_expectancy_bt,2022.2.4,Win32,59.91970759,Chrome,1536,864,,,,,10,1283,,,,,,,,,,,,,,,,,B,160,circle,1,0,,,,,,,,,,,,,,,,repeat,number,numRpt,k,Lo,,,,,,0.7693,5,,,,,,,,low,18,0,18,0,1,,,,,,,,,
297568,2022-11-27_12h43.16.694,vts_reward_expectancy_bt,2022.2.4,Win32,59.91970759,Chrome,1536,864,,,,,1,1284,,,,,,,,,,,,,,,,,W,125,hexagon,1,0,,,,,,,,,,,,,,,,repeat,number,numRpt,j,Lo,,,,,,0.8191,5,,,,,,,,low,19,0,19,0,1,,,,,,,,,
297568,2022-11-27_12h43.16.694,vts_reward_expectancy_bt,2022.2.4,Win32,59.91970759,Chrome,1536,864,,,,,0,1284,,,,,,,,,,,,,,,,,D,132,triangle,1,0,,,,,,,,,,,,,,,,repeat,number,numRpt,j,Hi,,,,,,1.5485,5,,,,,,,,low,20,0,20,0,1,,,,,,,,,
297568,2022-11-27_12h43.16.694,vts_reward_expectancy_bt,2022.2.4,Win32,59.91970759,Chrome,1536,864,,,,,0,1284,,,,,,,,,,,,,,,,,Y,139,star,1,0,,,,,,,,,,,,,,,,repeat,number,numRpt,j,Hi,,,,,,0.8806,5,,,,,,,,low,21,0,21,0,1,,,,,,,,,
297568,2022-11-27_12h43.16.694,vts_reward_expectancy_bt,2022.2.4,Win32,59.91970759,Chrome,1536,864,,,,,1,1285,,,,,,,,,,,,,,,,,S,181,circle,1,0,,,,,,,,,,,,,,,,repeat,number,numRpt,k,Lo,,,,,,0.5636,5,,,,,,,,low,22,0,22,0,1,,,,,,,,,
297568,2022-11-27_12h43.16.694,vts_reward_expectancy_bt,2022.2.4,Win32,59.91970759,Chrome,1536,864,,,,,10,1295,,,,,,,,,,,,,,,,,H,146,hexagon,1,0,,,,,,,,,,,,,,,,repeat,number,numRpt,j,Lo,,,,,,0.8753,5,,,,,,,,low,23,0,23,0,1,,,,,,,,,
297568,2022-11-27_12h43.16.694,vts_reward_expectancy_bt,2022.2.4,Win32,59.91970759,Chrome,1536,864,,,,,1,1296,,,,,,,,,,,,,,,,,S,167,hexagon,1,0,,,,,,,,,,,,,,,,repeat,number,numRpt,k,Lo,,,,,,0.931,5,,,,,,,,low,24,0,24,0,1,,,,,,,,,
297568,2022-11-27_12h43.16.694,vts_reward_expectancy_bt,2022.2.4,Win32,59.91970759,Chrome,1536,864,,,,,10,1306,,,,,,,,,,,,,,,,,D,125,star,1,0,,,,,,,,,,,,,,,,repeat,number,numRpt,j,Hi,,,,,,0.4967,5,,,,,,,,low,25,0,25,0,1,,,,,,,,,
297568,2022-11-27_12h43.16.694,vts_reward_expectancy_bt,2022.2.4,Win32,59.91970759,Chrome,1536,864,,,,,1,1307,,,,,,,,,,,,,,,,,W,181,circle,1,0,,,,,,,,,,,,,,,,repeat,number,numRpt,k,Lo,,,,,,0.5909,5,,,,,,,,low,26,0,26,0,1,,,,,,,,,
297568,2022-11-27_12h43.16.694,vts_reward_expectancy_bt,2022.2.4,Win32,59.91970759,Chrome,1536,864,,,,,0,1307,,,,,,,,,,,,,,,,,F,139,triangle,1,0,,,,,,,,,,,,,,,,repeat,number,numRpt,j,Hi,,,,,,0.6443,5,,,,,,,,low,27,0,27,0,1,,,,,,,,,
297568,2022-11-27_12h43.16.694,vts_reward_expectancy_bt,2022.2.4,Win32,59.91970759,Chrome,1536,864,,,,,0,1307,,,,,,,,,,,,,,,,,B,160,star,1,0,,,,,,,,,,,,,,,,repeat,number,numRpt,k,Hi,,,,,,0.7479,5,,,,,,,,low,28,0,28,0,1,,,,,,,,,
297568,2022-11-27_12h43.16.694,vts_reward_expectancy_bt,2022.2.4,Win32,59.91970759,Chrome,1536,864,,,,,0,1307,,,,,,,,,,,,,,,,,U,146,triangle,1,0,,,,,,,,,,,,,,,,repeat,number,numRpt,j,Hi,,,,,,0.6534,5,,,,,,,,low,29,0,29,0,1,,,,,,,,,
297568,2022-11-27_12h43.16.694,vts_reward_expectancy_bt,2022.2.4,Win32,59.91970759,Chrome,1536,864,,,,,10,1317,,,,,,,,,,,,,,,,,Y,174,circle,1,0,,,,,,,,,,,,,,,,repeat,number,numRpt,k,Lo,,,,,,0.6914,5,,,,,,,,low,30,0,30,0,1,,,,,,,,,
297568,2022-11-27_12h43.16.694,vts_reward_expectancy_bt,2022.2.4,Win32,59.91970759,Chrome,1536,864,,,,,10,1327,,,,,,,,,,,,,,,,,H,132,hexagon,1,0,,,,,,,,,,,,,,,,repeat,number,numRpt,j,Lo,,,,,,0.7301,5,,,,,,,,low,31,0,31,0,1,,,,,,,,,
297568,2022-11-27_12h43.16.694,vts_reward_expectancy_bt,2022.2.4,Win32,59.91970759,Chrome,1536,864,,,,,0,1327,,,,,,,,,,,,,,,,,Y,174,triangle,1,0,,,,,,,,,,,,,,,,repeat,number,numRpt,k,Hi,,,,,,0.7803,6,,,,,,space,1.0541,low,0,0,0,0,1,,,,,,,,,
297568,2022-11-27_12h43.16.694,vts_reward_expectancy_bt,2022.2.4,Win32,59.91970759,Chrome,1536,864,,,,,0,1327,,,,,,,,,,,,,,,,,F,160,hexagon,0,0,,,,,,,,,,,,,,,,repeat,number,NA,j,Hi,,,,,,0.3972,6,,,,,,,,low,1,0,1,0,1,,,,,,,,,
297568,2022-11-27_12h43.16.694,vts_reward_expectancy_bt,2022.2.4,Win32,59.91970759,Chrome,1536,864,,,,,0,1327,,,,,,,,,,,,,,,,,S,146,star,0,1,,,,,,,,,,,,,,,,repeat,number,NA,k,Hi,,,,,,0.5837,6,,,,,,,,low,2,0,2,0,1,,,,,,,,,
297568,2022-11-27_12h43.16.694,vts_reward_expectancy_bt,2022.2.4,Win32,59.91970759,Chrome,1536,864,,,,,1,1328,,,,,,,,,,,,,,,,,W,139,circle,1,1,,,,,,,,,,,,,,,,repeat,number,numRpt,j,Lo,,,,,,1.7816,6,,,,,,,,low,3,0,3,0,1,,,,,,,,,
297568,2022-11-27_12h43.16.694,vts_reward_expectancy_bt,2022.2.4,Win32,59.91970759,Chrome,1536,864,,,,,0,1328,,,,,,,,,,,,,,,,,U,167,triangle,0,0,,,,,,,,,,,,,,,,repeat,number,NA,j,Lo,,,,,,0.8647,6,,,,,,,,low,4,0,4,0,1,,,,,,,,,
297568,2022-11-27_12h43.16.694,vts_reward_expectancy_bt,2022.2.4,Win32,59.91970759,Chrome,1536,864,,,,,10,1338,,,,,,,,,,,,,,,,,B,181,hexagon,1,1,,,,,,,,,,,,,,,,repeat,number,numRpt,k,Lo,,,,,,0.619,6,,,,,,,,low,5,0,5,0,1,,,,,,,,,
297568,2022-11-27_12h43.16.694,vts_reward_expectancy_bt,2022.2.4,Win32,59.91970759,Chrome,1536,864,,,,,0,1338,,,,,,,,,,,,,,,,,D,125,star,1,0,,,,,,,,,,,,,,,,repeat,number,numRpt,j,Hi,,,,,,0.5975,6,,,,,,,,low,6,0,6,0,1,,,,,,,,,
297568,2022-11-27_12h43.16.694,vts_reward_expectancy_bt,2022.2.4,Win32,59.91970759,Chrome,1536,864,,,,,10,1348,,,,,,,,,,,,,,,,,H,132,circle,1,0,,,,,,,,,,,,,,,,repeat,number,numRpt,j,Lo,,,,,,0.6632,6,,,,,,,,low,7,0,7,0,1,,,,,,,,,
297568,2022-11-27_12h43.16.694,vts_reward_expectancy_bt,2022.2.4,Win32,59.91970759,Chrome,1536,864,,,,,10,1358,,,,,,,,,,,,,,,,,Y,174,star,1,0,,,,,,,,,,,,,,,,repeat,number,numRpt,k,Hi,,,,,,0.5686,6,,,,,,,,low,8,0,8,0,1,,,,,,,,,
