participant,date,expName,psychopyVersion,OS,frameRate,browser,xResolution,yResolution,key_resp.keys,key_resp.rt,training_resp.keys,training_resp.rt,points_trial,points_cumul,trainBlock,training.thisRepN,training.thisTrialN,training.thisN,training.thisIndex,training.ran,LTriangleOpac,LCircleOpac,LHexagonOpac,LStarOpac,RTriangleOpac,RCircleOpac,RHexagonOpac,RStarOpac,LShape_ID,RShape_ID,curr_topStim,curr_bottStim,curr_shape,acc,E1,target_resp_prac1.keys,target_resp_prac1.rt,pracBlock,task1_prac_trials.thisRepN,task1_prac_trials.thisTrialN,task1_prac_trials.thisN,task1_prac_trials.thisIndex,task1_prac_trials.ran,target_resp_prac2.keys,target_resp_prac2.rt,task2_praac_trials.thisRepN,task2_praac_trials.thisTrialN,task2_praac_trials.thisN,task2_praac_trials.thisIndex,task2_praac_trials.ran,alt,task,condition,target_resp.keys,target_resp.rt,rewCond,vts_practice_trials.thisRepN,vts_practice_trials.thisTrialN,vts_practice_trials.thisN,vts_practice_trials.thisIndex,vts_practice_trials.ran,blockNum,trials_norew.thisRepN,trials_norew.thisTrialN,trials_norew.thisN,trials_norew.thisIndex,trials_norew.ran,key_resp_2.keys,key_resp_2.rt,rewExpectancy,trials_rew.thisRepN,trials_rew.thisTrialN,trials_rew.thisN,trials_rew.thisIndex,trials_rew.ran,Q1,Q2,Q2_text,Q3,Q4,Q5_text,Q5,xRes,yRes
297628,2022-11-14_12h29.35.054,vts_reward_expectancy_bt,2022.2.4,MacIntel,59.97361161,Chrome,1280,800,,,,,,,,,,,,,,,,,,,,,,,,,,,,,,,,,,,,,,,,,,,,,,,,,,,,,,,,,,,,,,,,,,,,,,,,,,,,
297628,2022-11-14_12h29.35.054,vts_reward_expectancy_bt,2022.2.4,MacIntel,59.97361161,Chrome,1280,800,space,1.8021,,,,,,,,,,,,,,,,,,,,,,,,,,,,,,,,,,,,,,,,,,,,,,,,,,,,,,,,,,,,,,,,,,,,,,,,,,
297628,2022-11-14_12h29.35.054,vts_reward_expectancy_bt,2022.2.4,MacIntel,59.97361161,Chrome,1280,800,,,,,,,,,,,,,,,,,,,,,,,,,,,,,,,,,,,,,,,,,,,,,,,,,,,,,,,,,,,,,,,,,,,,,,,,,,,,
297628,2022-11-14_12h29.35.054,vts_reward_expectancy_bt,2022.2.4,MacIntel,59.97361161,Chrome,1280,800,,,a,2.735,10,10,0,0,0,0,11,1,0,0,0,1,0,0,1,0,star,hexagon,,,,,,,,,,,,,,,,,,,,,,,,,,,,,,,,,,,,,,,,,,,,,,,,,,,,,,
297628,2022-11-14_12h29.35.054,vts_reward_expectancy_bt,2022.2.4,MacIntel,59.97361161,Chrome,1280,800,,,a,1.1818,1,11,0,0,1,1,5,1,0,1,0,0,0,0,0,1,circle,star,,,,,,,,,,,,,,,,,,,,,,,,,,,,,,,,,,,,,,,,,,,,,,,,,,,,,,
297628,2022-11-14_12h29.35.054,vts_reward_expectancy_bt,2022.2.4,MacIntel,59.97361161,Chrome,1280,800,,,l,0.9169,10,21,0,0,2,2,2,1,1,0,0,0,0,0,0,1,triangle,star,,,,,,,,,,,,,,,,,,,,,,,,,,,,,,,,,,,,,,,,,,,,,,,,,,,,,,
297628,2022-11-14_12h29.35.054,vts_reward_expectancy_bt,2022.2.4,MacIntel,59.97361161,Chrome,1280,800,,,l,1.4111,10,31,0,0,3,3,10,1,0,0,0,1,0,1,0,0,star ,circle,,,,,,,,,,,,,,,,,,,,,,,,,,,,,,,,,,,,,,,,,,,,,,,,,,,,,,
297628,2022-11-14_12h29.35.054,vts_reward_expectancy_bt,2022.2.4,MacIntel,59.97361161,Chrome,1280,800,,,a,1.1622,1,32,0,0,4,4,9,1,0,0,0,1,1,0,0,0,star,triangle,,,,,,,,,,,,,,,,,,,,,,,,,,,,,,,,,,,,,,,,,,,,,,,,,,,,,,
297628,2022-11-14_12h29.35.054,vts_reward_expectancy_bt,2022.2.4,MacIntel,59.97361161,Chrome,1280,800,,,a,0.8198,1,33,0,0,5,5,3,1,0,1,0,0,1,0,0,0,circle,triangle,,,,,,,,,,,,,,,,,,,,,,,,,,,,,,,,,,,,,,,,,,,,,,,,,,,,,,
297628,2022-11-14_12h29.35.054,vts_reward_expectancy_bt,2022.2.4,MacIntel,59.97361161,Chrome,1280,800,,,l,1.1293,1,34,0,0,6,6,4,1,0,1,0,0,0,0,1,0,circle,hexagon,,,,,,,,,,,,,,,,,,,,,,,,,,,,,,,,,,,,,,,,,,,,,,,,,,,,,,
297628,2022-11-14_12h29.35.054,vts_reward_expectancy_bt,2022.2.4,MacIntel,59.97361161,Chrome,1280,800,,,l,0.8505,10,44,0,0,7,7,8,1,0,0,1,0,0,0,0,1,hexagon,star,,,,,,,,,,,,,,,,,,,,,,,,,,,,,,,,,,,,,,,,,,,,,,,,,,,,,,
297628,2022-11-14_12h29.35.054,vts_reward_expectancy_bt,2022.2.4,MacIntel,59.97361161,Chrome,1280,800,,,a,0.996,1,45,0,0,8,8,6,1,0,0,1,0,1,0,0,0,hexagon,triangle,,,,,,,,,,,,,,,,,,,,,,,,,,,,,,,,,,,,,,,,,,,,,,,,,,,,,,
297628,2022-11-14_12h29.35.054,vts_reward_expectancy_bt,2022.2.4,MacIntel,59.97361161,Chrome,1280,800,,,l,0.6839,10,55,0,0,9,9,1,1,1,0,0,0,0,0,1,0,triangle,hexagon,,,,,,,,,,,,,,,,,,,,,,,,,,,,,,,,,,,,,,,,,,,,,,,,,,,,,,
297628,2022-11-14_12h29.35.054,vts_reward_expectancy_bt,2022.2.4,MacIntel,59.97361161,Chrome,1280,800,,,l,0.9445,1,56,0,0,10,10,7,1,0,0,1,0,0,1,0,0,hexagon,circle,,,,,,,,,,,,,,,,,,,,,,,,,,,,,,,,,,,,,,,,,,,,,,,,,,,,,,
297628,2022-11-14_12h29.35.054,vts_reward_expectancy_bt,2022.2.4,MacIntel,59.97361161,Chrome,1280,800,,,l,0.8169,1,57,0,0,11,11,0,1,1,0,0,0,0,1,0,0,triangle,circle,,,,,,,,,,,,,,,,,,,,,,,,,,,,,,,,,,,,,,,,,,,,,,,,,,,,,,
297628,2022-11-14_12h29.35.054,vts_reward_expectancy_bt,2022.2.4,MacIntel,59.97361161,Chrome,1280,800,,,l,0.7171,10,67,0,1,0,12,5,1,0,1,0,0,0,0,0,1,circle,star,,,,,,,,,,,,,,,,,,,,,,,,,,,,,,,,,,,,,,,,,,,,,,,,,,,,,,
297628,2022-11-14_12h29.35.054,vts_reward_expectancy_bt,2022.2.4,MacIntel,59.97361161,Chrome,1280,800,,,l,2.4787,10,77,0,1,1,13,6,1,0,0,1,0,1,0,0,0,hexagon,triangle,,,,,,,,,,,,,,,,,,,,,,,,,,,,,,,,,,,,,,,,,,,,,,,,,,,,,,
297628,2022-11-14_12h29.35.054,vts_reward_expectancy_bt,2022.2.4,MacIntel,59.97361161,Chrome,1280,800,,,l,2.6436,10,87,0,1,2,14,3,1,0,1,0,0,1,0,0,0,circle,triangle,,,,,,,,,,,,,,,,,,,,,,,,,,,,,,,,,,,,,,,,,,,,,,,,,,,,,,
297628,2022-11-14_12h29.35.054,vts_reward_expectancy_bt,2022.2.4,MacIntel,59.97361161,Chrome,1280,800,,,l,1.1298,1,88,0,1,3,15,8,1,0,0,1,0,0,0,0,1,hexagon,star,,,,,,,,,,,,,,,,,,,,,,,,,,,,,,,,,,,,,,,,,,,,,,,,,,,,,,
297628,2022-11-14_12h29.35.054,vts_reward_expectancy_bt,2022.2.4,MacIntel,59.97361161,Chrome,1280,800,,,l,2.2246,10,98,0,1,4,16,2,1,1,0,0,0,0,0,0,1,triangle,star,,,,,,,,,,,,,,,,,,,,,,,,,,,,,,,,,,,,,,,,,,,,,,,,,,,,,,
297628,2022-11-14_12h29.35.054,vts_reward_expectancy_bt,2022.2.4,MacIntel,59.97361161,Chrome,1280,800,,,l,1.0778,10,108,0,1,5,17,0,1,1,0,0,0,0,1,0,0,triangle,circle,,,,,,,,,,,,,,,,,,,,,,,,,,,,,,,,,,,,,,,,,,,,,,,,,,,,,,
297628,2022-11-14_12h29.35.054,vts_reward_expectancy_bt,2022.2.4,MacIntel,59.97361161,Chrome,1280,800,,,l,0.9439,1,109,0,1,6,18,7,1,0,0,1,0,0,1,0,0,hexagon,circle,,,,,,,,,,,,,,,,,,,,,,,,,,,,,,,,,,,,,,,,,,,,,,,,,,,,,,
297628,2022-11-14_12h29.35.054,vts_reward_expectancy_bt,2022.2.4,MacIntel,59.97361161,Chrome,1280,800,,,a,1.3504,10,119,0,1,7,19,4,1,0,1,0,0,0,0,1,0,circle,hexagon,,,,,,,,,,,,,,,,,,,,,,,,,,,,,,,,,,,,,,,,,,,,,,,,,,,,,,
297628,2022-11-14_12h29.35.054,vts_reward_expectancy_bt,2022.2.4,MacIntel,59.97361161,Chrome,1280,800,,,a,0.7124,1,120,0,1,8,20,9,1,0,0,0,1,1,0,0,0,star,triangle,,,,,,,,,,,,,,,,,,,,,,,,,,,,,,,,,,,,,,,,,,,,,,,,,,,,,,
297628,2022-11-14_12h29.35.054,vts_reward_expectancy_bt,2022.2.4,MacIntel,59.97361161,Chrome,1280,800,,,a,3.0534,10,130,0,1,9,21,11,1,0,0,0,1,0,0,1,0,star,hexagon,,,,,,,,,,,,,,,,,,,,,,,,,,,,,,,,,,,,,,,,,,,,,,,,,,,,,,
297628,2022-11-14_12h29.35.054,vts_reward_expectancy_bt,2022.2.4,MacIntel,59.97361161,Chrome,1280,800,,,a,3.4796,1,131,0,1,10,22,1,1,1,0,0,0,0,0,1,0,triangle,hexagon,,,,,,,,,,,,,,,,,,,,,,,,,,,,,,,,,,,,,,,,,,,,,,,,,,,,,,
297628,2022-11-14_12h29.35.054,vts_reward_expectancy_bt,2022.2.4,MacIntel,59.97361161,Chrome,1280,800,,,a,5.6785,1,132,0,1,11,23,10,1,0,0,0,1,0,1,0,0,star ,circle,,,,,,,,,,,,,,,,,,,,,,,,,,,,,,,,,,,,,,,,,,,,,,,,,,,,,,
297628,2022-11-14_12h29.35.054,vts_reward_expectancy_bt,2022.2.4,MacIntel,59.97361161,Chrome,1280,800,,,a,1.3131,1,133,0,2,0,24,9,1,0,0,0,1,1,0,0,0,star,triangle,,,,,,,,,,,,,,,,,,,,,,,,,,,,,,,,,,,,,,,,,,,,,,,,,,,,,,
297628,2022-11-14_12h29.35.054,vts_reward_expectancy_bt,2022.2.4,MacIntel,59.97361161,Chrome,1280,800,,,l,0.5348,10,143,0,2,1,25,2,1,1,0,0,0,0,0,0,1,triangle,star,,,,,,,,,,,,,,,,,,,,,,,,,,,,,,,,,,,,,,,,,,,,,,,,,,,,,,
297628,2022-11-14_12h29.35.054,vts_reward_expectancy_bt,2022.2.4,MacIntel,59.97361161,Chrome,1280,800,,,l,0.502,1,144,0,2,2,26,5,1,0,1,0,0,0,0,0,1,circle,star,,,,,,,,,,,,,,,,,,,,,,,,,,,,,,,,,,,,,,,,,,,,,,,,,,,,,,
297628,2022-11-14_12h29.35.054,vts_reward_expectancy_bt,2022.2.4,MacIntel,59.97361161,Chrome,1280,800,,,a,0.7469,10,154,0,2,3,27,3,1,0,1,0,0,1,0,0,0,circle,triangle,,,,,,,,,,,,,,,,,,,,,,,,,,,,,,,,,,,,,,,,,,,,,,,,,,,,,,
297628,2022-11-14_12h29.35.054,vts_reward_expectancy_bt,2022.2.4,MacIntel,59.97361161,Chrome,1280,800,,,a,0.5196,10,164,0,2,4,28,1,1,1,0,0,0,0,0,1,0,triangle,hexagon,,,,,,,,,,,,,,,,,,,,,,,,,,,,,,,,,,,,,,,,,,,,,,,,,,,,,,
297628,2022-11-14_12h29.35.054,vts_reward_expectancy_bt,2022.2.4,MacIntel,59.97361161,Chrome,1280,800,,,a,0.5004,10,174,0,2,5,29,11,1,0,0,0,1,0,0,1,0,star,hexagon,,,,,,,,,,,,,,,,,,,,,,,,,,,,,,,,,,,,,,,,,,,,,,,,,,,,,,
297628,2022-11-14_12h29.35.054,vts_reward_expectancy_bt,2022.2.4,MacIntel,59.97361161,Chrome,1280,800,,,l,2.1926,1,175,0,2,6,30,7,1,0,0,1,0,0,1,0,0,hexagon,circle,,,,,,,,,,,,,,,,,,,,,,,,,,,,,,,,,,,,,,,,,,,,,,,,,,,,,,
297628,2022-11-14_12h29.35.054,vts_reward_expectancy_bt,2022.2.4,MacIntel,59.97361161,Chrome,1280,800,,,a,0.6445,1,176,0,2,7,31,8,1,0,0,1,0,0,0,0,1,hexagon,star,,,,,,,,,,,,,,,,,,,,,,,,,,,,,,,,,,,,,,,,,,,,,,,,,,,,,,
297628,2022-11-14_12h29.35.054,vts_reward_expectancy_bt,2022.2.4,MacIntel,59.97361161,Chrome,1280,800,,,l,0.6512,10,186,0,2,8,32,4,1,0,1,0,0,0,0,1,0,circle,hexagon,,,,,,,,,,,,,,,,,,,,,,,,,,,,,,,,,,,,,,,,,,,,,,,,,,,,,,
297628,2022-11-14_12h29.35.054,vts_reward_expectancy_bt,2022.2.4,MacIntel,59.97361161,Chrome,1280,800,,,l,0.818,10,196,0,2,9,33,6,1,0,0,1,0,1,0,0,0,hexagon,triangle,,,,,,,,,,,,,,,,,,,,,,,,,,,,,,,,,,,,,,,,,,,,,,,,,,,,,,
297628,2022-11-14_12h29.35.054,vts_reward_expectancy_bt,2022.2.4,MacIntel,59.97361161,Chrome,1280,800,,,l,1.3602,10,206,0,2,10,34,0,1,1,0,0,0,0,1,0,0,triangle,circle,,,,,,,,,,,,,,,,,,,,,,,,,,,,,,,,,,,,,,,,,,,,,,,,,,,,,,
297628,2022-11-14_12h29.35.054,vts_reward_expectancy_bt,2022.2.4,MacIntel,59.97361161,Chrome,1280,800,,,a,1.1856,10,216,0,2,11,35,10,1,0,0,0,1,0,1,0,0,star ,circle,,,,,,,,,,,,,,,,,,,,,,,,,,,,,,,,,,,,,,,,,,,,,,,,,,,,,,
297628,2022-11-14_12h29.35.054,vts_reward_expectancy_bt,2022.2.4,MacIntel,59.97361161,Chrome,1280,800,,,a,1.3419,1,217,1,0,0,0,7,1,0,0,1,0,0,1,0,0,hexagon,circle,,,,,,,,,,,,,,,,,,,,,,,,,,,,,,,,,,,,,,,,,,,,,,,,,,,,,,
297628,2022-11-14_12h29.35.054,vts_reward_expectancy_bt,2022.2.4,MacIntel,59.97361161,Chrome,1280,800,,,l,0.3521,10,227,1,0,1,1,8,1,0,0,1,0,0,0,0,1,hexagon,star,,,,,,,,,,,,,,,,,,,,,,,,,,,,,,,,,,,,,,,,,,,,,,,,,,,,,,
297628,2022-11-14_12h29.35.054,vts_reward_expectancy_bt,2022.2.4,MacIntel,59.97361161,Chrome,1280,800,,,l,0.834,1,228,1,0,2,2,11,1,0,0,0,1,0,0,1,0,star,hexagon,,,,,,,,,,,,,,,,,,,,,,,,,,,,,,,,,,,,,,,,,,,,,,,,,,,,,,
297628,2022-11-14_12h29.35.054,vts_reward_expectancy_bt,2022.2.4,MacIntel,59.97361161,Chrome,1280,800,,,l,0.6459,1,229,1,0,3,3,2,1,1,0,0,0,0,0,0,1,triangle,star,,,,,,,,,,,,,,,,,,,,,,,,,,,,,,,,,,,,,,,,,,,,,,,,,,,,,,
297628,2022-11-14_12h29.35.054,vts_reward_expectancy_bt,2022.2.4,MacIntel,59.97361161,Chrome,1280,800,,,l,0.3691,1,230,1,0,4,4,10,1,0,0,0,1,0,1,0,0,star ,circle,,,,,,,,,,,,,,,,,,,,,,,,,,,,,,,,,,,,,,,,,,,,,,,,,,,,,,
297628,2022-11-14_12h29.35.054,vts_reward_expectancy_bt,2022.2.4,MacIntel,59.97361161,Chrome,1280,800,,,l,0.8209,10,240,1,0,5,5,3,1,0,1,0,0,1,0,0,0,circle,triangle,,,,,,,,,,,,,,,,,,,,,,,,,,,,,,,,,,,,,,,,,,,,,,,,,,,,,,
297628,2022-11-14_12h29.35.054,vts_reward_expectancy_bt,2022.2.4,MacIntel,59.97361161,Chrome,1280,800,,,l,0.761,1,241,1,0,6,6,0,1,1,0,0,0,0,1,0,0,triangle,circle,,,,,,,,,,,,,,,,,,,,,,,,,,,,,,,,,,,,,,,,,,,,,,,,,,,,,,
297628,2022-11-14_12h29.35.054,vts_reward_expectancy_bt,2022.2.4,MacIntel,59.97361161,Chrome,1280,800,,,l,1.019,1,242,1,0,7,7,4,1,0,1,0,0,0,0,1,0,circle,hexagon,,,,,,,,,,,,,,,,,,,,,,,,,,,,,,,,,,,,,,,,,,,,,,,,,,,,,,
297628,2022-11-14_12h29.35.054,vts_reward_expectancy_bt,2022.2.4,MacIntel,59.97361161,Chrome,1280,800,,,a,0.4457,10,252,1,0,8,8,6,1,0,0,1,0,1,0,0,0,hexagon,triangle,,,,,,,,,,,,,,,,,,,,,,,,,,,,,,,,,,,,,,,,,,,,,,,,,,,,,,
297628,2022-11-14_12h29.35.054,vts_reward_expectancy_bt,2022.2.4,MacIntel,59.97361161,Chrome,1280,800,,,a,0.4683,1,253,1,0,9,9,5,1,0,1,0,0,0,0,0,1,circle,star,,,,,,,,,,,,,,,,,,,,,,,,,,,,,,,,,,,,,,,,,,,,,,,,,,,,,,
297628,2022-11-14_12h29.35.054,vts_reward_expectancy_bt,2022.2.4,MacIntel,59.97361161,Chrome,1280,800,,,a,0.835,1,254,1,0,10,10,9,1,0,0,0,1,1,0,0,0,star,triangle,,,,,,,,,,,,,,,,,,,,,,,,,,,,,,,,,,,,,,,,,,,,,,,,,,,,,,
297628,2022-11-14_12h29.35.054,vts_reward_expectancy_bt,2022.2.4,MacIntel,59.97361161,Chrome,1280,800,,,a,1.3099,10,264,1,0,11,11,1,1,1,0,0,0,0,0,1,0,triangle,hexagon,,,,,,,,,,,,,,,,,,,,,,,,,,,,,,,,,,,,,,,,,,,,,,,,,,,,,,
297628,2022-11-14_12h29.35.054,vts_reward_expectancy_bt,2022.2.4,MacIntel,59.97361161,Chrome,1280,800,,,a,0.7522,10,274,1,1,0,12,10,1,0,0,0,1,0,1,0,0,star ,circle,,,,,,,,,,,,,,,,,,,,,,,,,,,,,,,,,,,,,,,,,,,,,,,,,,,,,,
297628,2022-11-14_12h29.35.054,vts_reward_expectancy_bt,2022.2.4,MacIntel,59.97361161,Chrome,1280,800,,,l,1.5613,10,284,1,1,1,13,3,1,0,1,0,0,1,0,0,0,circle,triangle,,,,,,,,,,,,,,,,,,,,,,,,,,,,,,,,,,,,,,,,,,,,,,,,,,,,,,
297628,2022-11-14_12h29.35.054,vts_reward_expectancy_bt,2022.2.4,MacIntel,59.97361161,Chrome,1280,800,,,l,0.5842,1,285,1,1,2,14,2,1,1,0,0,0,0,0,0,1,triangle,star,,,,,,,,,,,,,,,,,,,,,,,,,,,,,,,,,,,,,,,,,,,,,,,,,,,,,,
297628,2022-11-14_12h29.35.054,vts_reward_expectancy_bt,2022.2.4,MacIntel,59.97361161,Chrome,1280,800,,,a,1.5262,10,295,1,1,3,15,9,1,0,0,0,1,1,0,0,0,star,triangle,,,,,,,,,,,,,,,,,,,,,,,,,,,,,,,,,,,,,,,,,,,,,,,,,,,,,,
297628,2022-11-14_12h29.35.054,vts_reward_expectancy_bt,2022.2.4,MacIntel,59.97361161,Chrome,1280,800,,,l,0.7017,1,296,1,1,4,16,7,1,0,0,1,0,0,1,0,0,hexagon,circle,,,,,,,,,,,,,,,,,,,,,,,,,,,,,,,,,,,,,,,,,,,,,,,,,,,,,,
297628,2022-11-14_12h29.35.054,vts_reward_expectancy_bt,2022.2.4,MacIntel,59.97361161,Chrome,1280,800,,,l,0.4276,10,306,1,1,5,17,5,1,0,1,0,0,0,0,0,1,circle,star,,,,,,,,,,,,,,,,,,,,,,,,,,,,,,,,,,,,,,,,,,,,,,,,,,,,,,
297628,2022-11-14_12h29.35.054,vts_reward_expectancy_bt,2022.2.4,MacIntel,59.97361161,Chrome,1280,800,,,a,0.4174,10,316,1,1,6,18,6,1,0,0,1,0,1,0,0,0,hexagon,triangle,,,,,,,,,,,,,,,,,,,,,,,,,,,,,,,,,,,,,,,,,,,,,,,,,,,,,,
297628,2022-11-14_12h29.35.054,vts_reward_expectancy_bt,2022.2.4,MacIntel,59.97361161,Chrome,1280,800,,,a,0.3345,10,326,1,1,7,19,1,1,1,0,0,0,0,0,1,0,triangle,hexagon,,,,,,,,,,,,,,,,,,,,,,,,,,,,,,,,,,,,,,,,,,,,,,,,,,,,,,
297628,2022-11-14_12h29.35.054,vts_reward_expectancy_bt,2022.2.4,MacIntel,59.97361161,Chrome,1280,800,,,a,0.3001,10,336,1,1,8,20,0,1,1,0,0,0,0,1,0,0,triangle,circle,,,,,,,,,,,,,,,,,,,,,,,,,,,,,,,,,,,,,,,,,,,,,,,,,,,,,,
297628,2022-11-14_12h29.35.054,vts_reward_expectancy_bt,2022.2.4,MacIntel,59.97361161,Chrome,1280,800,,,l,0.3789,1,337,1,1,9,21,4,1,0,1,0,0,0,0,1,0,circle,hexagon,,,,,,,,,,,,,,,,,,,,,,,,,,,,,,,,,,,,,,,,,,,,,,,,,,,,,,
297628,2022-11-14_12h29.35.054,vts_reward_expectancy_bt,2022.2.4,MacIntel,59.97361161,Chrome,1280,800,,,l,0.7188,1,338,1,1,10,22,8,1,0,0,1,0,0,0,0,1,hexagon,star,,,,,,,,,,,,,,,,,,,,,,,,,,,,,,,,,,,,,,,,,,,,,,,,,,,,,,
297628,2022-11-14_12h29.35.054,vts_reward_expectancy_bt,2022.2.4,MacIntel,59.97361161,Chrome,1280,800,,,a,0.5802,10,348,1,1,11,23,11,1,0,0,0,1,0,0,1,0,star,hexagon,,,,,,,,,,,,,,,,,,,,,,,,,,,,,,,,,,,,,,,,,,,,,,,,,,,,,,
297628,2022-11-14_12h29.35.054,vts_reward_expectancy_bt,2022.2.4,MacIntel,59.97361161,Chrome,1280,800,,,a,0.7663,10,358,1,2,0,24,1,1,1,0,0,0,0,0,1,0,triangle,hexagon,,,,,,,,,,,,,,,,,,,,,,,,,,,,,,,,,,,,,,,,,,,,,,,,,,,,,,
297628,2022-11-14_12h29.35.054,vts_reward_expectancy_bt,2022.2.4,MacIntel,59.97361161,Chrome,1280,800,,,a,0.4589,1,359,1,2,1,25,6,1,0,0,1,0,1,0,0,0,hexagon,triangle,,,,,,,,,,,,,,,,,,,,,,,,,,,,,,,,,,,,,,,,,,,,,,,,,,,,,,
297628,2022-11-14_12h29.35.054,vts_reward_expectancy_bt,2022.2.4,MacIntel,59.97361161,Chrome,1280,800,,,l,1.0331,10,369,1,2,2,26,2,1,1,0,0,0,0,0,0,1,triangle,star,,,,,,,,,,,,,,,,,,,,,,,,,,,,,,,,,,,,,,,,,,,,,,,,,,,,,,
297628,2022-11-14_12h29.35.054,vts_reward_expectancy_bt,2022.2.4,MacIntel,59.97361161,Chrome,1280,800,,,l,0.5275,10,379,1,2,3,27,3,1,0,1,0,0,1,0,0,0,circle,triangle,,,,,,,,,,,,,,,,,,,,,,,,,,,,,,,,,,,,,,,,,,,,,,,,,,,,,,
297628,2022-11-14_12h29.35.054,vts_reward_expectancy_bt,2022.2.4,MacIntel,59.97361161,Chrome,1280,800,,,l,1.3515,10,389,1,2,4,28,11,1,0,0,0,1,0,0,1,0,star,hexagon,,,,,,,,,,,,,,,,,,,,,,,,,,,,,,,,,,,,,,,,,,,,,,,,,,,,,,
297628,2022-11-14_12h29.35.054,vts_reward_expectancy_bt,2022.2.4,MacIntel,59.97361161,Chrome,1280,800,,,a,1.9963,1,390,1,2,5,29,5,1,0,1,0,0,0,0,0,1,circle,star,,,,,,,,,,,,,,,,,,,,,,,,,,,,,,,,,,,,,,,,,,,,,,,,,,,,,,
297628,2022-11-14_12h29.35.054,vts_reward_expectancy_bt,2022.2.4,MacIntel,59.97361161,Chrome,1280,800,,,l,0.5617,1,391,1,2,6,30,10,1,0,0,0,1,0,1,0,0,star ,circle,,,,,,,,,,,,,,,,,,,,,,,,,,,,,,,,,,,,,,,,,,,,,,,,,,,,,,
297628,2022-11-14_12h29.35.054,vts_reward_expectancy_bt,2022.2.4,MacIntel,59.97361161,Chrome,1280,800,,,l,0.3169,10,401,1,2,7,31,8,1,0,0,1,0,0,0,0,1,hexagon,star,,,,,,,,,,,,,,,,,,,,,,,,,,,,,,,,,,,,,,,,,,,,,,,,,,,,,,
297628,2022-11-14_12h29.35.054,vts_reward_expectancy_bt,2022.2.4,MacIntel,59.97361161,Chrome,1280,800,,,l,0.6344,10,411,1,2,8,32,9,1,0,0,0,1,1,0,0,0,star,triangle,,,,,,,,,,,,,,,,,,,,,,,,,,,,,,,,,,,,,,,,,,,,,,,,,,,,,,
297628,2022-11-14_12h29.35.054,vts_reward_expectancy_bt,2022.2.4,MacIntel,59.97361161,Chrome,1280,800,,,l,0.5024,1,412,1,2,9,33,0,1,1,0,0,0,0,1,0,0,triangle,circle,,,,,,,,,,,,,,,,,,,,,,,,,,,,,,,,,,,,,,,,,,,,,,,,,,,,,,
297628,2022-11-14_12h29.35.054,vts_reward_expectancy_bt,2022.2.4,MacIntel,59.97361161,Chrome,1280,800,,,l,0.3451,10,422,1,2,10,34,4,1,0,1,0,0,0,0,1,0,circle,hexagon,,,,,,,,,,,,,,,,,,,,,,,,,,,,,,,,,,,,,,,,,,,,,,,,,,,,,,
297628,2022-11-14_12h29.35.054,vts_reward_expectancy_bt,2022.2.4,MacIntel,59.97361161,Chrome,1280,800,,,l,0.2832,10,432,1,2,11,35,7,1,0,0,1,0,0,1,0,0,hexagon,circle,,,,,,,,,,,,,,,,,,,,,,,,,,,,,,,,,,,,,,,,,,,,,,,,,,,,,,
297628,2022-11-14_12h29.35.054,vts_reward_expectancy_bt,2022.2.4,MacIntel,59.97361161,Chrome,1280,800,,,a,1.0025,1,433,2,0,0,0,7,1,0,0,1,0,0,1,0,0,hexagon,circle,,,,,,,,,,,,,,,,,,,,,,,,,,,,,,,,,,,,,,,,,,,,,,,,,,,,,,
297628,2022-11-14_12h29.35.054,vts_reward_expectancy_bt,2022.2.4,MacIntel,59.97361161,Chrome,1280,800,,,l,0.3965,1,434,2,0,1,1,10,1,0,0,0,1,0,1,0,0,star ,circle,,,,,,,,,,,,,,,,,,,,,,,,,,,,,,,,,,,,,,,,,,,,,,,,,,,,,,
297628,2022-11-14_12h29.35.054,vts_reward_expectancy_bt,2022.2.4,MacIntel,59.97361161,Chrome,1280,800,,,a,0.4003,1,435,2,0,2,2,9,1,0,0,0,1,1,0,0,0,star,triangle,,,,,,,,,,,,,,,,,,,,,,,,,,,,,,,,,,,,,,,,,,,,,,,,,,,,,,
297628,2022-11-14_12h29.35.054,vts_reward_expectancy_bt,2022.2.4,MacIntel,59.97361161,Chrome,1280,800,,,l,0.701,1,436,2,0,3,3,0,1,1,0,0,0,0,1,0,0,triangle,circle,,,,,,,,,,,,,,,,,,,,,,,,,,,,,,,,,,,,,,,,,,,,,,,,,,,,,,
297628,2022-11-14_12h29.35.054,vts_reward_expectancy_bt,2022.2.4,MacIntel,59.97361161,Chrome,1280,800,,,l,0.5949,1,437,2,0,4,4,4,1,0,1,0,0,0,0,1,0,circle,hexagon,,,,,,,,,,,,,,,,,,,,,,,,,,,,,,,,,,,,,,,,,,,,,,,,,,,,,,
297628,2022-11-14_12h29.35.054,vts_reward_expectancy_bt,2022.2.4,MacIntel,59.97361161,Chrome,1280,800,,,l,0.2849,10,447,2,0,5,5,2,1,1,0,0,0,0,0,0,1,triangle,star,,,,,,,,,,,,,,,,,,,,,,,,,,,,,,,,,,,,,,,,,,,,,,,,,,,,,,
297628,2022-11-14_12h29.35.054,vts_reward_expectancy_bt,2022.2.4,MacIntel,59.97361161,Chrome,1280,800,,,a,0.402,10,457,2,0,6,6,8,1,0,0,1,0,0,0,0,1,hexagon,star,,,,,,,,,,,,,,,,,,,,,,,,,,,,,,,,,,,,,,,,,,,,,,,,,,,,,,
297628,2022-11-14_12h29.35.054,vts_reward_expectancy_bt,2022.2.4,MacIntel,59.97361161,Chrome,1280,800,,,a,0.3849,10,467,2,0,7,7,1,1,1,0,0,0,0,0,1,0,triangle,hexagon,,,,,,,,,,,,,,,,,,,,,,,,,,,,,,,,,,,,,,,,,,,,,,,,,,,,,,
297628,2022-11-14_12h29.35.054,vts_reward_expectancy_bt,2022.2.4,MacIntel,59.97361161,Chrome,1280,800,,,l,0.4458,1,468,2,0,8,8,11,1,0,0,0,1,0,0,1,0,star,hexagon,,,,,,,,,,,,,,,,,,,,,,,,,,,,,,,,,,,,,,,,,,,,,,,,,,,,,,
297628,2022-11-14_12h29.35.054,vts_reward_expectancy_bt,2022.2.4,MacIntel,59.97361161,Chrome,1280,800,,,l,0.3306,10,478,2,0,9,9,6,1,0,0,1,0,1,0,0,0,hexagon,triangle,,,,,,,,,,,,,,,,,,,,,,,,,,,,,,,,,,,,,,,,,,,,,,,,,,,,,,
297628,2022-11-14_12h29.35.054,vts_reward_expectancy_bt,2022.2.4,MacIntel,59.97361161,Chrome,1280,800,,,a,0.2843,10,488,2,0,10,10,3,1,0,1,0,0,1,0,0,0,circle,triangle,,,,,,,,,,,,,,,,,,,,,,,,,,,,,,,,,,,,,,,,,,,,,,,,,,,,,,
297628,2022-11-14_12h29.35.054,vts_reward_expectancy_bt,2022.2.4,MacIntel,59.97361161,Chrome,1280,800,,,a,0.3035,1,489,2,0,11,11,5,1,0,1,0,0,0,0,0,1,circle,star,,,,,,,,,,,,,,,,,,,,,,,,,,,,,,,,,,,,,,,,,,,,,,,,,,,,,,
297628,2022-11-14_12h29.35.054,vts_reward_expectancy_bt,2022.2.4,MacIntel,59.97361161,Chrome,1280,800,,,a,0.4349,10,499,2,1,0,12,9,1,0,0,0,1,1,0,0,0,star,triangle,,,,,,,,,,,,,,,,,,,,,,,,,,,,,,,,,,,,,,,,,,,,,,,,,,,,,,
297628,2022-11-14_12h29.35.054,vts_reward_expectancy_bt,2022.2.4,MacIntel,59.97361161,Chrome,1280,800,,,a,0.2454,10,509,2,1,1,13,10,1,0,0,0,1,0,1,0,0,star ,circle,,,,,,,,,,,,,,,,,,,,,,,,,,,,,,,,,,,,,,,,,,,,,,,,,,,,,,
297628,2022-11-14_12h29.35.054,vts_reward_expectancy_bt,2022.2.4,MacIntel,59.97361161,Chrome,1280,800,,,a,0.4838,1,510,2,1,2,14,4,1,0,1,0,0,0,0,1,0,circle,hexagon,,,,,,,,,,,,,,,,,,,,,,,,,,,,,,,,,,,,,,,,,,,,,,,,,,,,,,
297628,2022-11-14_12h29.35.054,vts_reward_expectancy_bt,2022.2.4,MacIntel,59.97361161,Chrome,1280,800,,,a,0.3011,10,520,2,1,3,15,11,1,0,0,0,1,0,0,1,0,star,hexagon,,,,,,,,,,,,,,,,,,,,,,,,,,,,,,,,,,,,,,,,,,,,,,,,,,,,,,
297628,2022-11-14_12h29.35.054,vts_reward_expectancy_bt,2022.2.4,MacIntel,59.97361161,Chrome,1280,800,,,a,0.3995,10,530,2,1,4,16,3,1,0,1,0,0,1,0,0,0,circle,triangle,,,,,,,,,,,,,,,,,,,,,,,,,,,,,,,,,,,,,,,,,,,,,,,,,,,,,,
297628,2022-11-14_12h29.35.054,vts_reward_expectancy_bt,2022.2.4,MacIntel,59.97361161,Chrome,1280,800,,,a,0.7329,10,540,2,1,5,17,1,1,1,0,0,0,0,0,1,0,triangle,hexagon,,,,,,,,,,,,,,,,,,,,,,,,,,,,,,,,,,,,,,,,,,,,,,,,,,,,,,
297628,2022-11-14_12h29.35.054,vts_reward_expectancy_bt,2022.2.4,MacIntel,59.97361161,Chrome,1280,800,,,l,0.4126,1,541,2,1,6,18,7,1,0,0,1,0,0,1,0,0,hexagon,circle,,,,,,,,,,,,,,,,,,,,,,,,,,,,,,,,,,,,,,,,,,,,,,,,,,,,,,
297628,2022-11-14_12h29.35.054,vts_reward_expectancy_bt,2022.2.4,MacIntel,59.97361161,Chrome,1280,800,,,a,0.5835,10,551,2,1,7,19,8,1,0,0,1,0,0,0,0,1,hexagon,star,,,,,,,,,,,,,,,,,,,,,,,,,,,,,,,,,,,,,,,,,,,,,,,,,,,,,,
297628,2022-11-14_12h29.35.054,vts_reward_expectancy_bt,2022.2.4,MacIntel,59.97361161,Chrome,1280,800,,,a,0.3386,10,561,2,1,8,20,2,1,1,0,0,0,0,0,0,1,triangle,star,,,,,,,,,,,,,,,,,,,,,,,,,,,,,,,,,,,,,,,,,,,,,,,,,,,,,,
297628,2022-11-14_12h29.35.054,vts_reward_expectancy_bt,2022.2.4,MacIntel,59.97361161,Chrome,1280,800,,,a,0.4027,1,562,2,1,9,21,6,1,0,0,1,0,1,0,0,0,hexagon,triangle,,,,,,,,,,,,,,,,,,,,,,,,,,,,,,,,,,,,,,,,,,,,,,,,,,,,,,
297628,2022-11-14_12h29.35.054,vts_reward_expectancy_bt,2022.2.4,MacIntel,59.97361161,Chrome,1280,800,,,l,0.3124,1,563,2,1,10,22,0,1,1,0,0,0,0,1,0,0,triangle,circle,,,,,,,,,,,,,,,,,,,,,,,,,,,,,,,,,,,,,,,,,,,,,,,,,,,,,,
297628,2022-11-14_12h29.35.054,vts_reward_expectancy_bt,2022.2.4,MacIntel,59.97361161,Chrome,1280,800,,,a,0.5343,1,564,2,1,11,23,5,1,0,1,0,0,0,0,0,1,circle,star,,,,,,,,,,,,,,,,,,,,,,,,,,,,,,,,,,,,,,,,,,,,,,,,,,,,,,
297628,2022-11-14_12h29.35.054,vts_reward_expectancy_bt,2022.2.4,MacIntel,59.97361161,Chrome,1280,800,,,a,0.3017,1,565,2,2,0,24,4,1,0,1,0,0,0,0,1,0,circle,hexagon,,,,,,,,,,,,,,,,,,,,,,,,,,,,,,,,,,,,,,,,,,,,,,,,,,,,,,
297628,2022-11-14_12h29.35.054,vts_reward_expectancy_bt,2022.2.4,MacIntel,59.97361161,Chrome,1280,800,,,l,0.4163,1,566,2,2,1,25,11,1,0,0,0,1,0,0,1,0,star,hexagon,,,,,,,,,,,,,,,,,,,,,,,,,,,,,,,,,,,,,,,,,,,,,,,,,,,,,,
297628,2022-11-14_12h29.35.054,vts_reward_expectancy_bt,2022.2.4,MacIntel,59.97361161,Chrome,1280,800,,,a,0.2862,10,576,2,2,2,26,2,1,1,0,0,0,0,0,0,1,triangle,star,,,,,,,,,,,,,,,,,,,,,,,,,,,,,,,,,,,,,,,,,,,,,,,,,,,,,,
297628,2022-11-14_12h29.35.054,vts_reward_expectancy_bt,2022.2.4,MacIntel,59.97361161,Chrome,1280,800,,,a,0.286,1,577,2,2,3,27,5,1,0,1,0,0,0,0,0,1,circle,star,,,,,,,,,,,,,,,,,,,,,,,,,,,,,,,,,,,,,,,,,,,,,,,,,,,,,,
297628,2022-11-14_12h29.35.054,vts_reward_expectancy_bt,2022.2.4,MacIntel,59.97361161,Chrome,1280,800,,,l,0.309,1,578,2,2,4,28,0,1,1,0,0,0,0,1,0,0,triangle,circle,,,,,,,,,,,,,,,,,,,,,,,,,,,,,,,,,,,,,,,,,,,,,,,,,,,,,,
297628,2022-11-14_12h29.35.054,vts_reward_expectancy_bt,2022.2.4,MacIntel,59.97361161,Chrome,1280,800,,,a,4.437,10,588,2,2,5,29,3,1,0,1,0,0,1,0,0,0,circle,triangle,,,,,,,,,,,,,,,,,,,,,,,,,,,,,,,,,,,,,,,,,,,,,,,,,,,,,,
297628,2022-11-14_12h29.35.054,vts_reward_expectancy_bt,2022.2.4,MacIntel,59.97361161,Chrome,1280,800,,,a,9.2139,10,598,2,2,6,30,7,1,0,0,1,0,0,1,0,0,hexagon,circle,,,,,,,,,,,,,,,,,,,,,,,,,,,,,,,,,,,,,,,,,,,,,,,,,,,,,,
297628,2022-11-14_12h29.35.054,vts_reward_expectancy_bt,2022.2.4,MacIntel,59.97361161,Chrome,1280,800,,,l,0.3936,1,599,2,2,7,31,6,1,0,0,1,0,1,0,0,0,hexagon,triangle,,,,,,,,,,,,,,,,,,,,,,,,,,,,,,,,,,,,,,,,,,,,,,,,,,,,,,
297628,2022-11-14_12h29.35.054,vts_reward_expectancy_bt,2022.2.4,MacIntel,59.97361161,Chrome,1280,800,,,a,0.4512,1,600,2,2,8,32,10,1,0,0,0,1,0,1,0,0,star ,circle,,,,,,,,,,,,,,,,,,,,,,,,,,,,,,,,,,,,,,,,,,,,,,,,,,,,,,
297628,2022-11-14_12h29.35.054,vts_reward_expectancy_bt,2022.2.4,MacIntel,59.97361161,Chrome,1280,800,,,l,0.3175,1,601,2,2,9,33,9,1,0,0,0,1,1,0,0,0,star,triangle,,,,,,,,,,,,,,,,,,,,,,,,,,,,,,,,,,,,,,,,,,,,,,,,,,,,,,
297628,2022-11-14_12h29.35.054,vts_reward_expectancy_bt,2022.2.4,MacIntel,59.97361161,Chrome,1280,800,,,a,0.5841,10,611,2,2,10,34,1,1,1,0,0,0,0,0,1,0,triangle,hexagon,,,,,,,,,,,,,,,,,,,,,,,,,,,,,,,,,,,,,,,,,,,,,,,,,,,,,,
297628,2022-11-14_12h29.35.054,vts_reward_expectancy_bt,2022.2.4,MacIntel,59.97361161,Chrome,1280,800,,,a,0.2515,1,612,2,2,11,35,8,1,0,0,1,0,0,0,0,1,hexagon,star,,,,,,,,,,,,,,,,,,,,,,,,,,,,,,,,,,,,,,,,,,,,,,,,,,,,,,
297628,2022-11-14_12h29.35.054,vts_reward_expectancy_bt,2022.2.4,MacIntel,59.97361161,Chrome,1280,800,,,,,,,,,,,,,,,,,,,,,,,139,B,star,1,0,d,2.3494,0,0,0,0,0,1,,,,,,,,,,,,,,,,,,,,,,,,,,,,,,,,,,,,,,,,,
297628,2022-11-14_12h29.35.054,vts_reward_expectancy_bt,2022.2.4,MacIntel,59.97361161,Chrome,1280,800,,,,,,,,,,,,,,,,,,,,,,,146,S,hexagon,1,0,d,0.8981,0,1,0,1,0,1,,,,,,,,,,,,,,,,,,,,,,,,,,,,,,,,,,,,,,,,,
297628,2022-11-14_12h29.35.054,vts_reward_expectancy_bt,2022.2.4,MacIntel,59.97361161,Chrome,1280,800,,,,,,,,,,,,,,,,,,,,,,,174,H,triangle,1,0,f,0.9313,0,2,0,2,0,1,,,,,,,,,,,,,,,,,,,,,,,,,,,,,,,,,,,,,,,,,
297628,2022-11-14_12h29.35.054,vts_reward_expectancy_bt,2022.2.4,MacIntel,59.97361161,Chrome,1280,800,,,,,,,,,,,,,,,,,,,,,,,132,W,circle,1,0,d,0.6995,0,3,0,3,0,1,,,,,,,,,,,,,,,,,,,,,,,,,,,,,,,,,,,,,,,,,
297628,2022-11-14_12h29.35.054,vts_reward_expectancy_bt,2022.2.4,MacIntel,59.97361161,Chrome,1280,800,,,,,,,,,,,,,,,,,,,,,,,181,U,star,1,0,f,0.614,0,4,0,4,0,1,,,,,,,,,,,,,,,,,,,,,,,,,,,,,,,,,,,,,,,,,
297628,2022-11-14_12h29.35.054,vts_reward_expectancy_bt,2022.2.4,MacIntel,59.97361161,Chrome,1280,800,,,,,,,,,,,,,,,,,,,,,,,167,F,hexagon,1,0,f,1.0483,0,5,0,5,0,1,,,,,,,,,,,,,,,,,,,,,,,,,,,,,,,,,,,,,,,,,
297628,2022-11-14_12h29.35.054,vts_reward_expectancy_bt,2022.2.4,MacIntel,59.97361161,Chrome,1280,800,,,,,,,,,,,,,,,,,,,,,,,125,Y,triangle,1,0,d,0.631,0,6,0,6,0,1,,,,,,,,,,,,,,,,,,,,,,,,,,,,,,,,,,,,,,,,,
297628,2022-11-14_12h29.35.054,vts_reward_expectancy_bt,2022.2.4,MacIntel,59.97361161,Chrome,1280,800,,,,,,,,,,,,,,,,,,,,,,,160,D,circle,1,0,f,1.1964,0,7,0,7,0,1,,,,,,,,,,,,,,,,,,,,,,,,,,,,,,,,,,,,,,,,,
297628,2022-11-14_12h29.35.054,vts_reward_expectancy_bt,2022.2.4,MacIntel,59.97361161,Chrome,1280,800,,,,,,,,,,,,,,,,,,,,,,,139,B,hexagon,1,0,d,1.2835,0,8,0,8,0,1,,,,,,,,,,,,,,,,,,,,,,,,,,,,,,,,,,,,,,,,,
297628,2022-11-14_12h29.35.054,vts_reward_expectancy_bt,2022.2.4,MacIntel,59.97361161,Chrome,1280,800,,,,,,,,,,,,,,,,,,,,,,,146,S,circle,1,0,d,0.7652,0,9,0,9,0,1,,,,,,,,,,,,,,,,,,,,,,,,,,,,,,,,,,,,,,,,,
297628,2022-11-14_12h29.35.054,vts_reward_expectancy_bt,2022.2.4,MacIntel,59.97361161,Chrome,1280,800,,,,,,,,,,,,,,,,,,,,,,,146,B,circle,1,0,,,1,,,,,,j,0.899,0,0,0,0,1,,,,,,,,,,,,,,,,,,,,,,,,,,,,,,,,,,
297628,2022-11-14_12h29.35.054,vts_reward_expectancy_bt,2022.2.4,MacIntel,59.97361161,Chrome,1280,800,,,,,,,,,,,,,,,,,,,,,,,125,U,triangle,1,0,,,1,,,,,,k,0.6808,1,0,1,0,1,,,,,,,,,,,,,,,,,,,,,,,,,,,,,,,,,,
297628,2022-11-14_12h29.35.054,vts_reward_expectancy_bt,2022.2.4,MacIntel,59.97361161,Chrome,1280,800,,,,,,,,,,,,,,,,,,,,,,,181,W,hexagon,1,0,,,1,,,,,,k,0.732,2,0,2,0,1,,,,,,,,,,,,,,,,,,,,,,,,,,,,,,,,,,
297628,2022-11-14_12h29.35.054,vts_reward_expectancy_bt,2022.2.4,MacIntel,59.97361161,Chrome,1280,800,,,,,,,,,,,,,,,,,,,,,,,167,H,star,1,0,,,1,,,,,,j,0.8814,3,0,3,0,1,,,,,,,,,,,,,,,,,,,,,,,,,,,,,,,,,,
297628,2022-11-14_12h29.35.054,vts_reward_expectancy_bt,2022.2.4,MacIntel,59.97361161,Chrome,1280,800,,,,,,,,,,,,,,,,,,,,,,,160,Y,circle,1,0,,,1,,,,,,k,0.8307,4,0,4,0,1,,,,,,,,,,,,,,,,,,,,,,,,,,,,,,,,,,
297628,2022-11-14_12h29.35.054,vts_reward_expectancy_bt,2022.2.4,MacIntel,59.97361161,Chrome,1280,800,,,,,,,,,,,,,,,,,,,,,,,132,S,triangle,1,0,,,1,,,,,,k,0.8313,5,0,5,0,1,,,,,,,,,,,,,,,,,,,,,,,,,,,,,,,,,,
297628,2022-11-14_12h29.35.054,vts_reward_expectancy_bt,2022.2.4,MacIntel,59.97361161,Chrome,1280,800,,,,,,,,,,,,,,,,,,,,,,,139,D,hexagon,1,0,,,1,,,,,,j,0.6141,6,0,6,0,1,,,,,,,,,,,,,,,,,,,,,,,,,,,,,,,,,,
297628,2022-11-14_12h29.35.054,vts_reward_expectancy_bt,2022.2.4,MacIntel,59.97361161,Chrome,1280,800,,,,,,,,,,,,,,,,,,,,,,,174,F,star,1,0,,,1,,,,,,j,0.8322,7,0,7,0,1,,,,,,,,,,,,,,,,,,,,,,,,,,,,,,,,,,
297628,2022-11-14_12h29.35.054,vts_reward_expectancy_bt,2022.2.4,MacIntel,59.97361161,Chrome,1280,800,,,,,,,,,,,,,,,,,,,,,,,146,B,triangle,1,0,,,1,,,,,,j,0.6504,8,0,8,0,1,,,,,,,,,,,,,,,,,,,,,,,,,,,,,,,,,,
297628,2022-11-14_12h29.35.054,vts_reward_expectancy_bt,2022.2.4,MacIntel,59.97361161,Chrome,1280,800,,,,,,,,,,,,,,,,,,,,,,,125,U,hexagon,1,0,,,1,,,,,,k,0.6326,9,0,9,0,1,,,,,,,,,,,,,,,,,,,,,,,,,,,,,,,,,,
297628,2022-11-14_12h29.35.054,vts_reward_expectancy_bt,2022.2.4,MacIntel,59.97361161,Chrome,1280,800,,,,,0,612,,,,,,,,,,,,,,,,,146,Y,hexagon,1,0,,,2,,,,,,,,,,,,,-1,letter,NA,k,1.1742,vtsPrac,0,0,0,0,1,,,,,,,,,,,,,,,,,,,,,,,
297628,2022-11-14_12h29.35.054,vts_reward_expectancy_bt,2022.2.4,MacIntel,59.97361161,Chrome,1280,800,,,,,0,612,,,,,,,,,,,,,,,,,125,U,star,1,0,,,2,,,,,,,,,,,,,switch,number,numSwt,d,1.2469,vtsPrac,1,0,1,0,1,,,,,,,,,,,,,,,,,,,,,,,
297628,2022-11-14_12h29.35.054,vts_reward_expectancy_bt,2022.2.4,MacIntel,59.97361161,Chrome,1280,800,,,,,0,612,,,,,,,,,,,,,,,,,181,W,hexagon,1,0,,,2,,,,,,,,,,,,,repeat,number,numRpt,f,0.5136,vtsPrac,2,0,2,0,1,,,,,,,,,,,,,,,,,,,,,,,
297628,2022-11-14_12h29.35.054,vts_reward_expectancy_bt,2022.2.4,MacIntel,59.97361161,Chrome,1280,800,,,,,0,612,,,,,,,,,,,,,,,,,139,B,star,1,0,,,2,,,,,,,,,,,,,repeat,number,numRpt,d,0.9814,vtsPrac,3,0,3,0,1,,,,,,,,,,,,,,,,,,,,,,,
297628,2022-11-14_12h29.35.054,vts_reward_expectancy_bt,2022.2.4,MacIntel,59.97361161,Chrome,1280,800,,,,,0,612,,,,,,,,,,,,,,,,,146,Y,hexagon,1,0,,,2,,,,,,,,,,,,,switch,letter,lettSwt,k,0.7628,vtsPrac,4,0,4,0,1,,,,,,,,,,,,,,,,,,,,,,,
297628,2022-11-14_12h29.35.054,vts_reward_expectancy_bt,2022.2.4,MacIntel,59.97361161,Chrome,1280,800,,,,,0,612,,,,,,,,,,,,,,,,,125,U,star,1,0,,,2,,,,,,,,,,,,,switch,number,numSwt,d,1.0985,vtsPrac,5,0,5,0,1,,,,,,,,,,,,,,,,,,,,,,,
297628,2022-11-14_12h29.35.054,vts_reward_expectancy_bt,2022.2.4,MacIntel,59.97361161,Chrome,1280,800,,,,,0,612,,,,,,,,,,,,,,,,,181,W,triangle,1,0,,,2,,,,,,,,,,,,,switch,letter,lettSwt,k,0.6004,vtsPrac,6,0,6,0,1,,,,,,,,,,,,,,,,,,,,,,,
297628,2022-11-14_12h29.35.054,vts_reward_expectancy_bt,2022.2.4,MacIntel,59.97361161,Chrome,1280,800,,,,,0,612,,,,,,,,,,,,,,,,,139,B,star,1,0,,,2,,,,,,,,,,,,,repeat,letter,lettRpt,j,0.6807,vtsPrac,7,0,7,0,1,,,,,,,,,,,,,,,,,,,,,,,
297628,2022-11-14_12h29.35.054,vts_reward_expectancy_bt,2022.2.4,MacIntel,59.97361161,Chrome,1280,800,,,,,0,612,,,,,,,,,,,,,,,,,125,F,triangle,1,0,,,2,,,,,,,,,,,,,switch,number,numSwt,d,0.6134,vtsPrac,8,0,8,0,1,,,,,,,,,,,,,,,,,,,,,,,
297628,2022-11-14_12h29.35.054,vts_reward_expectancy_bt,2022.2.4,MacIntel,59.97361161,Chrome,1280,800,,,,,0,612,,,,,,,,,,,,,,,,,132,W,circle,1,0,,,2,,,,,,,,,,,,,repeat,number,numRpt,d,0.8606,vtsPrac,9,0,9,0,1,,,,,,,,,,,,,,,,,,,,,,,
297628,2022-11-14_12h29.35.054,vts_reward_expectancy_bt,2022.2.4,MacIntel,59.97361161,Chrome,1280,800,,,,,0,612,,,,,,,,,,,,,,,,,139,S,star,1,0,,,2,,,,,,,,,,,,,repeat,number,numRpt,d,0.7163,vtsPrac,10,0,10,0,1,,,,,,,,,,,,,,,,,,,,,,,
297628,2022-11-14_12h29.35.054,vts_reward_expectancy_bt,2022.2.4,MacIntel,59.97361161,Chrome,1280,800,,,,,0,612,,,,,,,,,,,,,,,,,160,H,triangle,1,0,,,2,,,,,,,,,,,,,switch,letter,lettSwt,j,1.2478,vtsPrac,11,0,11,0,1,,,,,,,,,,,,,,,,,,,,,,,
297628,2022-11-14_12h29.35.054,vts_reward_expectancy_bt,2022.2.4,MacIntel,59.97361161,Chrome,1280,800,,,,,0,612,,,,,,,,,,,,,,,,,174,Y,star,1,0,,,2,,,,,,,,,,,,,repeat,letter,lettRpt,k,0.6962,vtsPrac,12,0,12,0,1,,,,,,,,,,,,,,,,,,,,,,,
297628,2022-11-14_12h29.35.054,vts_reward_expectancy_bt,2022.2.4,MacIntel,59.97361161,Chrome,1280,800,,,,,0,612,,,,,,,,,,,,,,,,,160,F,hexagon,1,0,,,2,,,,,,,,,,,,,repeat,letter,lettRpt,j,0.8159,vtsPrac,13,0,13,0,1,,,,,,,,,,,,,,,,,,,,,,,
297628,2022-11-14_12h29.35.054,vts_reward_expectancy_bt,2022.2.4,MacIntel,59.97361161,Chrome,1280,800,,,,,0,612,,,,,,,,,,,,,,,,,125,S,star,1,0,,,2,,,,,,,,,,,,,switch,number,numSwt,d,0.9479,vtsPrac,14,0,14,0,1,,,,,,,,,,,,,,,,,,,,,,,
297628,2022-11-14_12h29.35.054,vts_reward_expectancy_bt,2022.2.4,MacIntel,59.97361161,Chrome,1280,800,,,,,0,612,,,,,,,,,,,,,,,,,146,B,triangle,1,0,,,2,,,,,,,,,,,,,switch,letter,lettSwt,j,1.348,vtsPrac,15,0,15,0,1,,,,,,,,,,,,,,,,,,,,,,,
297628,2022-11-14_12h29.35.054,vts_reward_expectancy_bt,2022.2.4,MacIntel,59.97361161,Chrome,1280,800,,,,,0,612,,,,,,,,,,,,,,,,,146,D,star,1,0,,,2,,,,,,,,,,,,,switch,number,numSwt,d,0.983,vtsPrac,16,0,16,0,1,,,,,,,,,,,,,,,,,,,,,,,
297628,2022-11-14_12h29.35.054,vts_reward_expectancy_bt,2022.2.4,MacIntel,59.97361161,Chrome,1280,800,,,,,0,612,,,,,,,,,,,,,,,,,167,U,circle,1,0,,,2,,,,,,,,,,,,,repeat,number,numRpt,f,0.8444,vtsPrac,17,0,17,0,1,,,,,,,,,,,,,,,,,,,,,,,
297628,2022-11-14_12h29.35.054,vts_reward_expectancy_bt,2022.2.4,MacIntel,59.97361161,Chrome,1280,800,,,,,0,612,,,,,,,,,,,,,,,,,181,F,triangle,1,0,,,2,,,,,,,,,,,,,switch,letter,lettSwt,j,1.1483,vtsPrac,18,0,18,0,1,,,,,,,,,,,,,,,,,,,,,,,
297628,2022-11-14_12h29.35.054,vts_reward_expectancy_bt,2022.2.4,MacIntel,59.97361161,Chrome,1280,800,,,,,0,612,,,,,,,,,,,,,,,,,125,B,hexagon,1,0,,,2,,,,,,,,,,,,,repeat,letter,lettRpt,j,0.7824,vtsPrac,19,0,19,0,1,,,,,,,,,,,,,,,,,,,,,,,
297628,2022-11-14_12h29.35.054,vts_reward_expectancy_bt,2022.2.4,MacIntel,59.97361161,Chrome,1280,800,,,,,0,612,,,,,,,,,,,,,,,,,146,B,circle,1,0,,,2,,,,,,,,,,,,,repeat,letter,lettRpt,j,0.8651,vtsPrac,20,0,20,0,1,,,,,,,,,,,,,,,,,,,,,,,
297628,2022-11-14_12h29.35.054,vts_reward_expectancy_bt,2022.2.4,MacIntel,59.97361161,Chrome,1280,800,,,,,0,612,,,,,,,,,,,,,,,,,139,W,star,1,0,,,2,,,,,,,,,,,,,switch,number,numSwt,d,0.5493,vtsPrac,21,0,21,0,1,,,,,,,,,,,,,,,,,,,,,,,
297628,2022-11-14_12h29.35.054,vts_reward_expectancy_bt,2022.2.4,MacIntel,59.97361161,Chrome,1280,800,,,,,0,612,,,,,,,,,,,,,,,,,167,U,star,1,0,,,2,,,,,,,,,,,,,repeat,number,numRpt,f,0.9156,vtsPrac,22,0,22,0,1,,,,,,,,,,,,,,,,,,,,,,,
297628,2022-11-14_12h29.35.054,vts_reward_expectancy_bt,2022.2.4,MacIntel,59.97361161,Chrome,1280,800,,,,,0,612,,,,,,,,,,,,,,,,,132,Y,circle,1,0,,,2,,,,,,,,,,,,,repeat,number,numRpt,d,1.2831,vtsPrac,23,0,23,0,1,,,,,,,,,,,,,,,,,,,,,,,
297628,2022-11-14_12h29.35.054,vts_reward_expectancy_bt,2022.2.4,MacIntel,59.97361161,Chrome,1280,800,,,,,0,612,,,,,,,,,,,,,,,,,174,B,star,1,0,,,2,,,,,,,,,,,,,repeat,number,numRpt,f,0.8973,vtsPrac,24,0,24,0,1,,,,,,,,,,,,,,,,,,,,,,,
297628,2022-11-14_12h29.35.054,vts_reward_expectancy_bt,2022.2.4,MacIntel,59.97361161,Chrome,1280,800,,,,,0,612,,,,,,,,,,,,,,,,,125,D,circle,1,0,,,2,,,,,,,,,,,,,repeat,number,numRpt,d,0.731,vtsPrac,25,0,25,0,1,,,,,,,,,,,,,,,,,,,,,,,
297628,2022-11-14_12h29.35.054,vts_reward_expectancy_bt,2022.2.4,MacIntel,59.97361161,Chrome,1280,800,,,,,0,612,,,,,,,,,,,,,,,,,132,F,hexagon,1,0,,,2,,,,,,,,,,,,,switch,letter,lettSwt,j,0.8162,vtsPrac,26,0,26,0,1,,,,,,,,,,,,,,,,,,,,,,,
297628,2022-11-14_12h29.35.054,vts_reward_expectancy_bt,2022.2.4,MacIntel,59.97361161,Chrome,1280,800,,,,,0,612,,,,,,,,,,,,,,,,,181,W,triangle,1,0,,,2,,,,,,,,,,,,,repeat,letter,lettRpt,k,0.9162,vtsPrac,27,0,27,0,1,,,,,,,,,,,,,,,,,,,,,,,
297628,2022-11-14_12h29.35.054,vts_reward_expectancy_bt,2022.2.4,MacIntel,59.97361161,Chrome,1280,800,,,,,0,612,,,,,,,,,,,,,,,,,174,H,circle,1,0,,,2,,,,,,,,,,,,,switch,number,numSwt,f,0.9999,vtsPrac,28,0,28,0,1,,,,,,,,,,,,,,,,,,,,,,,
297628,2022-11-14_12h29.35.054,vts_reward_expectancy_bt,2022.2.4,MacIntel,59.97361161,Chrome,1280,800,,,,,0,612,,,,,,,,,,,,,,,,,146,S,triangle,1,0,,,2,,,,,,,,,,,,,switch,letter,lettSwt,k,0.9652,vtsPrac,29,0,29,0,1,,,,,,,,,,,,,,,,,,,,,,,
297628,2022-11-14_12h29.35.054,vts_reward_expectancy_bt,2022.2.4,MacIntel,59.97361161,Chrome,1280,800,,,,,0,612,,,,,,,,,,,,,,,,,125,Y,star,1,0,,,2,,,,,,,,,,,,,switch,number,numSwt,d,1.7458,vtsPrac,30,0,30,0,1,,,,,,,,,,,,,,,,,,,,,,,
297628,2022-11-14_12h29.35.054,vts_reward_expectancy_bt,2022.2.4,MacIntel,59.97361161,Chrome,1280,800,,,,,0,612,,,,,,,,,,,,,,,,,139,F,circle,1,0,,,2,,,,,,,,,,,,,switch,letter,lettSwt,j,1.2647,vtsPrac,31,0,31,0,1,,,,,,,,,,,,,,,,,,,,,,,
297628,2022-11-14_12h29.35.054,vts_reward_expectancy_bt,2022.2.4,MacIntel,59.97361161,Chrome,1280,800,,,,,,,,,,,,,,,,,,,,,,,,,,,,,,,,,,,,,,,,,,,,,,,,,,,,,,,,,,,,,,,,,,,,,,,,,,,,
297628,2022-11-14_12h29.35.054,vts_reward_expectancy_bt,2022.2.4,MacIntel,59.97361161,Chrome,1280,800,,,,,,,,,,,,,,,,,,,,,,,,,,,,,,,,,,,,,,,,,,,,,,,,,,,,,,,,,,,,,,,,,,,,,,,,,,,,
297628,2022-11-14_12h29.35.054,vts_reward_expectancy_bt,2022.2.4,MacIntel,59.97361161,Chrome,1280,800,,,,,0,612,,,,,,,,,,,,,,,,,160,S,triangle,0,0,,,,,,,,,,,,,,,,switch,number,NA,d,2.1155,noRew,,,,,,0,0,0,0,0,1,,,,,,,,,,,,,,,,,
297628,2022-11-14_12h29.35.054,vts_reward_expectancy_bt,2022.2.4,MacIntel,59.97361161,Chrome,1280,800,,,,,0,612,,,,,,,,,,,,,,,,,139,D,circle,1,1,,,,,,,,,,,,,,,,repeat,number,numRpt,d,1.2296,noRew,,,,,,0,1,0,1,0,1,,,,,,,,,,,,,,,,,
297628,2022-11-14_12h29.35.054,vts_reward_expectancy_bt,2022.2.4,MacIntel,59.97361161,Chrome,1280,800,,,,,0,612,,,,,,,,,,,,,,,,,174,Y,triangle,1,0,,,,,,,,,,,,,,,,switch,letter,lettSwt,k,1.398,noRew,,,,,,0,2,0,2,0,1,,,,,,,,,,,,,,,,,
297628,2022-11-14_12h29.35.054,vts_reward_expectancy_bt,2022.2.4,MacIntel,59.97361161,Chrome,1280,800,,,,,0,612,,,,,,,,,,,,,,,,,125,B,circle,1,0,,,,,,,,,,,,,,,,repeat,letter,lettRpt,j,1.1812,noRew,,,,,,0,3,0,3,0,1,,,,,,,,,,,,,,,,,
297628,2022-11-14_12h29.35.054,vts_reward_expectancy_bt,2022.2.4,MacIntel,59.97361161,Chrome,1280,800,,,,,0,612,,,,,,,,,,,,,,,,,160,S,star,1,0,,,,,,,,,,,,,,,,switch,number,numSwt,f,0.8978,noRew,,,,,,0,4,0,4,0,1,,,,,,,,,,,,,,,,,
297628,2022-11-14_12h29.35.054,vts_reward_expectancy_bt,2022.2.4,MacIntel,59.97361161,Chrome,1280,800,,,,,0,612,,,,,,,,,,,,,,,,,139,D,triangle,1,0,,,,,,,,,,,,,,,,repeat,number,numRpt,d,1.1169,noRew,,,,,,0,5,0,5,0,1,,,,,,,,,,,,,,,,,
297628,2022-11-14_12h29.35.054,vts_reward_expectancy_bt,2022.2.4,MacIntel,59.97361161,Chrome,1280,800,,,,,0,612,,,,,,,,,,,,,,,,,174,Y,triangle,1,0,,,,,,,,,,,,,,,,repeat,number,numRpt,f,0.9168,noRew,,,,,,0,6,0,6,0,1,,,,,,,,,,,,,,,,,
297628,2022-11-14_12h29.35.054,vts_reward_expectancy_bt,2022.2.4,MacIntel,59.97361161,Chrome,1280,800,,,,,0,612,,,,,,,,,,,,,,,,,125,B,circle,1,0,,,,,,,,,,,,,,,,repeat,number,numRpt,d,0.7978,noRew,,,,,,0,7,0,7,0,1,,,,,,,,,,,,,,,,,
297628,2022-11-14_12h29.35.054,vts_reward_expectancy_bt,2022.2.4,MacIntel,59.97361161,Chrome,1280,800,,,,,0,612,,,,,,,,,,,,,,,,,125,W,hexagon,1,0,,,,,,,,,,,,,,,,switch,letter,lettSwt,k,0.785,noRew,,,,,,0,8,0,8,0,1,,,,,,,,,,,,,,,,,
297628,2022-11-14_12h29.35.054,vts_reward_expectancy_bt,2022.2.4,MacIntel,59.97361161,Chrome,1280,800,,,,,0,612,,,,,,,,,,,,,,,,,174,S,circle,1,0,,,,,,,,,,,,,,,,repeat,letter,lettRpt,k,0.8153,noRew,,,,,,0,9,0,9,0,1,,,,,,,,,,,,,,,,,
297628,2022-11-14_12h29.35.054,vts_reward_expectancy_bt,2022.2.4,MacIntel,59.97361161,Chrome,1280,800,,,,,0,612,,,,,,,,,,,,,,,,,167,U,circle,1,0,,,,,,,,,,,,,,,,switch,number,numSwt,f,0.8771,noRew,,,,,,0,10,0,10,0,1,,,,,,,,,,,,,,,,,
297628,2022-11-14_12h29.35.054,vts_reward_expectancy_bt,2022.2.4,MacIntel,59.97361161,Chrome,1280,800,,,,,0,612,,,,,,,,,,,,,,,,,132,Y,star,1,0,,,,,,,,,,,,,,,,switch,letter,lettSwt,k,0.7181,noRew,,,,,,0,11,0,11,0,1,,,,,,,,,,,,,,,,,
297628,2022-11-14_12h29.35.054,vts_reward_expectancy_bt,2022.2.4,MacIntel,59.97361161,Chrome,1280,800,,,,,0,612,,,,,,,,,,,,,,,,,132,F,triangle,1,0,,,,,,,,,,,,,,,,switch,number,numSwt,d,0.9009,noRew,,,,,,0,12,0,12,0,1,,,,,,,,,,,,,,,,,
297628,2022-11-14_12h29.35.054,vts_reward_expectancy_bt,2022.2.4,MacIntel,59.97361161,Chrome,1280,800,,,,,0,612,,,,,,,,,,,,,,,,,146,U,star,1,0,,,,,,,,,,,,,,,,repeat,number,numRpt,d,0.8987,noRew,,,,,,0,13,0,13,0,1,,,,,,,,,,,,,,,,,
297628,2022-11-14_12h29.35.054,vts_reward_expectancy_bt,2022.2.4,MacIntel,59.97361161,Chrome,1280,800,,,,,0,612,,,,,,,,,,,,,,,,,139,Y,triangle,1,0,,,,,,,,,,,,,,,,repeat,number,numRpt,d,0.7964,noRew,,,,,,0,14,0,14,0,1,,,,,,,,,,,,,,,,,
297628,2022-11-14_12h29.35.054,vts_reward_expectancy_bt,2022.2.4,MacIntel,59.97361161,Chrome,1280,800,,,,,0,612,,,,,,,,,,,,,,,,,174,H,circle,1,0,,,,,,,,,,,,,,,,repeat,number,numRpt,f,0.9807,noRew,,,,,,0,15,0,15,0,1,,,,,,,,,,,,,,,,,
297628,2022-11-14_12h29.35.054,vts_reward_expectancy_bt,2022.2.4,MacIntel,59.97361161,Chrome,1280,800,,,,,0,612,,,,,,,,,,,,,,,,,139,S,circle,1,0,,,,,,,,,,,,,,,,switch,letter,lettSwt,k,1.2313,noRew,,,,,,0,16,0,16,0,1,,,,,,,,,,,,,,,,,
297628,2022-11-14_12h29.35.054,vts_reward_expectancy_bt,2022.2.4,MacIntel,59.97361161,Chrome,1280,800,,,,,0,612,,,,,,,,,,,,,,,,,132,D,hexagon,1,0,,,,,,,,,,,,,,,,switch,number,numSwt,d,0.8141,noRew,,,,,,0,17,0,17,0,1,,,,,,,,,,,,,,,,,
297628,2022-11-14_12h29.35.054,vts_reward_expectancy_bt,2022.2.4,MacIntel,59.97361161,Chrome,1280,800,,,,,0,612,,,,,,,,,,,,,,,,,174,U,star,1,0,,,,,,,,,,,,,,,,switch,letter,lettSwt,k,0.9631,noRew,,,,,,0,18,0,18,0,1,,,,,,,,,,,,,,,,,
297628,2022-11-14_12h29.35.054,vts_reward_expectancy_bt,2022.2.4,MacIntel,59.97361161,Chrome,1280,800,,,,,0,612,,,,,,,,,,,,,,,,,181,B,hexagon,1,0,,,,,,,,,,,,,,,,switch,number,numSwt,f,1.9667,noRew,,,,,,0,19,0,19,0,1,,,,,,,,,,,,,,,,,
297628,2022-11-14_12h29.35.054,vts_reward_expectancy_bt,2022.2.4,MacIntel,59.97361161,Chrome,1280,800,,,,,0,612,,,,,,,,,,,,,,,,,167,W,star,1,0,,,,,,,,,,,,,,,,repeat,number,numRpt,f,1.682,noRew,,,,,,0,20,0,20,0,1,,,,,,,,,,,,,,,,,
297628,2022-11-14_12h29.35.054,vts_reward_expectancy_bt,2022.2.4,MacIntel,59.97361161,Chrome,1280,800,,,,,0,612,,,,,,,,,,,,,,,,,160,D,hexagon,1,0,,,,,,,,,,,,,,,,repeat,number,numRpt,f,1.3319,noRew,,,,,,0,21,0,21,0,1,,,,,,,,,,,,,,,,,
297628,2022-11-14_12h29.35.054,vts_reward_expectancy_bt,2022.2.4,MacIntel,59.97361161,Chrome,1280,800,,,,,0,612,,,,,,,,,,,,,,,,,146,Y,circle,1,0,,,,,,,,,,,,,,,,switch,letter,lettSwt,k,0.7792,noRew,,,,,,0,22,0,22,0,1,,,,,,,,,,,,,,,,,
297628,2022-11-14_12h29.35.054,vts_reward_expectancy_bt,2022.2.4,MacIntel,59.97361161,Chrome,1280,800,,,,,0,612,,,,,,,,,,,,,,,,,139,B,triangle,1,0,,,,,,,,,,,,,,,,repeat,letter,lettRpt,j,0.6335,noRew,,,,,,0,23,0,23,0,1,,,,,,,,,,,,,,,,,
297628,2022-11-14_12h29.35.054,vts_reward_expectancy_bt,2022.2.4,MacIntel,59.97361161,Chrome,1280,800,,,,,0,612,,,,,,,,,,,,,,,,,160,B,hexagon,1,0,,,,,,,,,,,,,,,,repeat,letter,lettRpt,j,0.8635,noRew,,,,,,0,24,0,24,0,1,,,,,,,,,,,,,,,,,
297628,2022-11-14_12h29.35.054,vts_reward_expectancy_bt,2022.2.4,MacIntel,59.97361161,Chrome,1280,800,,,,,0,612,,,,,,,,,,,,,,,,,132,H,triangle,1,0,,,,,,,,,,,,,,,,switch,number,numSwt,d,1.1991,noRew,,,,,,0,25,0,25,0,1,,,,,,,,,,,,,,,,,
297628,2022-11-14_12h29.35.054,vts_reward_expectancy_bt,2022.2.4,MacIntel,59.97361161,Chrome,1280,800,,,,,0,612,,,,,,,,,,,,,,,,,146,S,circle,1,0,,,,,,,,,,,,,,,,repeat,number,numRpt,d,1.8151,noRew,,,,,,0,26,0,26,0,1,,,,,,,,,,,,,,,,,
297628,2022-11-14_12h29.35.054,vts_reward_expectancy_bt,2022.2.4,MacIntel,59.97361161,Chrome,1280,800,,,,,0,612,,,,,,,,,,,,,,,,,125,F,star,1,0,,,,,,,,,,,,,,,,repeat,number,numRpt,d,0.6651,noRew,,,,,,0,27,0,27,0,1,,,,,,,,,,,,,,,,,
297628,2022-11-14_12h29.35.054,vts_reward_expectancy_bt,2022.2.4,MacIntel,59.97361161,Chrome,1280,800,,,,,0,612,,,,,,,,,,,,,,,,,174,W,triangle,1,0,,,,,,,,,,,,,,,,repeat,number,numRpt,f,0.9773,noRew,,,,,,0,28,0,28,0,1,,,,,,,,,,,,,,,,,
297628,2022-11-14_12h29.35.054,vts_reward_expectancy_bt,2022.2.4,MacIntel,59.97361161,Chrome,1280,800,,,,,0,612,,,,,,,,,,,,,,,,,132,B,star,1,0,,,,,,,,,,,,,,,,switch,letter,lettSwt,j,0.6488,noRew,,,,,,0,29,0,29,0,1,,,,,,,,,,,,,,,,,
297628,2022-11-14_12h29.35.054,vts_reward_expectancy_bt,2022.2.4,MacIntel,59.97361161,Chrome,1280,800,,,,,0,612,,,,,,,,,,,,,,,,,139,U,circle,1,0,,,,,,,,,,,,,,,,repeat,letter,lettRpt,k,0.7456,noRew,,,,,,0,30,0,30,0,1,,,,,,,,,,,,,,,,,
297628,2022-11-14_12h29.35.054,vts_reward_expectancy_bt,2022.2.4,MacIntel,59.97361161,Chrome,1280,800,,,,,0,612,,,,,,,,,,,,,,,,,167,H,star,1,0,,,,,,,,,,,,,,,,repeat,letter,lettRpt,j,0.7646,noRew,,,,,,0,31,0,31,0,1,,,,,,,,,,,,,,,,,
297628,2022-11-14_12h29.35.054,vts_reward_expectancy_bt,2022.2.4,MacIntel,59.97361161,Chrome,1280,800,,,,,0,612,,,,,,,,,,,,,,,,,146,U,triangle,1,0,,,,,,,,,,,,,,,,repeat,letter,lettRpt,k,1.2931,noRew,,,,,,0,32,0,32,0,1,,,,,,,,,,,,,,,,,
297628,2022-11-14_12h29.35.054,vts_reward_expectancy_bt,2022.2.4,MacIntel,59.97361161,Chrome,1280,800,,,,,0,612,,,,,,,,,,,,,,,,,167,B,hexagon,1,0,,,,,,,,,,,,,,,,switch,number,numSwt,f,1.9649,noRew,,,,,,0,33,0,33,0,1,,,,,,,,,,,,,,,,,
297628,2022-11-14_12h29.35.054,vts_reward_expectancy_bt,2022.2.4,MacIntel,59.97361161,Chrome,1280,800,,,,,0,612,,,,,,,,,,,,,,,,,160,D,triangle,1,0,,,,,,,,,,,,,,,,repeat,number,numRpt,f,0.9807,noRew,,,,,,0,34,0,34,0,1,,,,,,,,,,,,,,,,,
297628,2022-11-14_12h29.35.054,vts_reward_expectancy_bt,2022.2.4,MacIntel,59.97361161,Chrome,1280,800,,,,,0,612,,,,,,,,,,,,,,,,,174,S,circle,1,0,,,,,,,,,,,,,,,,switch,letter,lettSwt,k,2.8495,noRew,,,,,,0,35,0,35,0,1,,,,,,,,,,,,,,,,,
297628,2022-11-14_12h29.35.054,vts_reward_expectancy_bt,2022.2.4,MacIntel,59.97361161,Chrome,1280,800,,,,,0,612,,,,,,,,,,,,,,,,,160,F,hexagon,1,0,,,,,,,,,,,,,,,,repeat,letter,lettRpt,j,1.3253,noRew,,,,,,0,36,0,36,0,1,,,,,,,,,,,,,,,,,
297628,2022-11-14_12h29.35.054,vts_reward_expectancy_bt,2022.2.4,MacIntel,59.97361161,Chrome,1280,800,,,,,0,612,,,,,,,,,,,,,,,,,125,Y,circle,1,0,,,,,,,,,,,,,,,,repeat,letter,lettRpt,k,0.8524,noRew,,,,,,0,37,0,37,0,1,,,,,,,,,,,,,,,,,
297628,2022-11-14_12h29.35.054,vts_reward_expectancy_bt,2022.2.4,MacIntel,59.97361161,Chrome,1280,800,,,,,0,612,,,,,,,,,,,,,,,,,146,H,hexagon,1,0,,,,,,,,,,,,,,,,repeat,letter,lettRpt,j,1.1991,noRew,,,,,,0,38,0,38,0,1,,,,,,,,,,,,,,,,,
297628,2022-11-14_12h29.35.054,vts_reward_expectancy_bt,2022.2.4,MacIntel,59.97361161,Chrome,1280,800,,,,,0,612,,,,,,,,,,,,,,,,,167,B,star,1,0,,,,,,,,,,,,,,,,switch,number,numSwt,f,0.6394,noRew,,,,,,0,39,0,39,0,1,,,,,,,,,,,,,,,,,
297628,2022-11-14_12h29.35.054,vts_reward_expectancy_bt,2022.2.4,MacIntel,59.97361161,Chrome,1280,800,,,,,0,612,,,,,,,,,,,,,,,,,132,B,hexagon,1,0,,,,,,,,,,,,,,,,switch,letter,lettSwt,j,1.2168,noRew,,,,,,0,40,0,40,0,1,,,,,,,,,,,,,,,,,
297628,2022-11-14_12h29.35.054,vts_reward_expectancy_bt,2022.2.4,MacIntel,59.97361161,Chrome,1280,800,,,,,0,612,,,,,,,,,,,,,,,,,125,U,star,1,0,,,,,,,,,,,,,,,,switch,number,numSwt,d,0.8648,noRew,,,,,,0,41,0,41,0,1,,,,,,,,,,,,,,,,,
297628,2022-11-14_12h29.35.054,vts_reward_expectancy_bt,2022.2.4,MacIntel,59.97361161,Chrome,1280,800,,,,,0,612,,,,,,,,,,,,,,,,,146,H,circle,1,0,,,,,,,,,,,,,,,,switch,letter,lettSwt,j,1.0945,noRew,,,,,,0,42,0,42,0,1,,,,,,,,,,,,,,,,,
297628,2022-11-14_12h29.35.054,vts_reward_expectancy_bt,2022.2.4,MacIntel,59.97361161,Chrome,1280,800,,,,,0,612,,,,,,,,,,,,,,,,,167,Y,hexagon,1,0,,,,,,,,,,,,,,,,switch,number,numSwt,f,0.8154,noRew,,,,,,0,43,0,43,0,1,,,,,,,,,,,,,,,,,
297628,2022-11-14_12h29.35.054,vts_reward_expectancy_bt,2022.2.4,MacIntel,59.97361161,Chrome,1280,800,,,,,0,612,,,,,,,,,,,,,,,,,146,U,star,1,0,,,,,,,,,,,,,,,,switch,letter,lettSwt,k,1.0998,noRew,,,,,,0,44,0,44,0,1,,,,,,,,,,,,,,,,,
297628,2022-11-14_12h29.35.054,vts_reward_expectancy_bt,2022.2.4,MacIntel,59.97361161,Chrome,1280,800,,,,,0,612,,,,,,,,,,,,,,,,,160,Y,circle,1,0,,,,,,,,,,,,,,,,repeat,letter,lettRpt,k,0.8977,noRew,,,,,,0,45,0,45,0,1,,,,,,,,,,,,,,,,,
297628,2022-11-14_12h29.35.054,vts_reward_expectancy_bt,2022.2.4,MacIntel,59.97361161,Chrome,1280,800,,,,,0,612,,,,,,,,,,,,,,,,,125,S,hexagon,1,0,,,,,,,,,,,,,,,,switch,number,numSwt,d,0.7277,noRew,,,,,,0,46,0,46,0,1,,,,,,,,,,,,,,,,,
297628,2022-11-14_12h29.35.054,vts_reward_expectancy_bt,2022.2.4,MacIntel,59.97361161,Chrome,1280,800,,,,,0,612,,,,,,,,,,,,,,,,,181,W,triangle,1,0,,,,,,,,,,,,,,,,repeat,number,numRpt,f,1.2814,noRew,,,,,,0,47,0,47,0,1,,,,,,,,,,,,,,,,,
297628,2022-11-14_12h29.35.054,vts_reward_expectancy_bt,2022.2.4,MacIntel,59.97361161,Chrome,1280,800,,,,,0,612,,,,,,,,,,,,,,,,,125,H,star,1,0,,,,,,,,,,,,,,,,switch,letter,lettSwt,j,1.0965,noRew,,,,,,0,48,0,48,0,1,,,,,,,,,,,,,,,,,
297628,2022-11-14_12h29.35.054,vts_reward_expectancy_bt,2022.2.4,MacIntel,59.97361161,Chrome,1280,800,,,,,0,612,,,,,,,,,,,,,,,,,167,S,triangle,1,0,,,,,,,,,,,,,,,,repeat,letter,lettRpt,k,0.7494,noRew,,,,,,0,49,0,49,0,1,,,,,,,,,,,,,,,,,
297628,2022-11-14_12h29.35.054,vts_reward_expectancy_bt,2022.2.4,MacIntel,59.97361161,Chrome,1280,800,,,,,0,612,,,,,,,,,,,,,,,,,160,U,triangle,1,0,,,,,,,,,,,,,,,,repeat,letter,lettRpt,k,1.2482,noRew,,,,,,0,50,0,50,0,1,,,,,,,,,,,,,,,,,
297628,2022-11-14_12h29.35.054,vts_reward_expectancy_bt,2022.2.4,MacIntel,59.97361161,Chrome,1280,800,,,,,0,612,,,,,,,,,,,,,,,,,146,B,star,1,0,,,,,,,,,,,,,,,,repeat,letter,lettRpt,j,1.4271,noRew,,,,,,0,51,0,51,0,1,,,,,,,,,,,,,,,,,
297628,2022-11-14_12h29.35.054,vts_reward_expectancy_bt,2022.2.4,MacIntel,59.97361161,Chrome,1280,800,,,,,0,612,,,,,,,,,,,,,,,,,146,B,circle,1,0,,,,,,,,,,,,,,,,switch,number,numSwt,d,1.4176,noRew,,,,,,0,52,0,52,0,1,,,,,,,,,,,,,,,,,
297628,2022-11-14_12h29.35.054,vts_reward_expectancy_bt,2022.2.4,MacIntel,59.97361161,Chrome,1280,800,,,,,0,612,,,,,,,,,,,,,,,,,167,U,triangle,1,0,,,,,,,,,,,,,,,,repeat,number,numRpt,f,2.7815,noRew,,,,,,0,53,0,53,0,1,,,,,,,,,,,,,,,,,
297628,2022-11-14_12h29.35.054,vts_reward_expectancy_bt,2022.2.4,MacIntel,59.97361161,Chrome,1280,800,,,,,0,612,,,,,,,,,,,,,,,,,139,F,star,-1,0,,,,,,,,,,,,,,,,switch,no_choice,NA,,,noRew,,,,,,0,54,0,54,0,1,,,,,,,,,,,,,,,,,
297628,2022-11-14_12h29.35.054,vts_reward_expectancy_bt,2022.2.4,MacIntel,59.97361161,Chrome,1280,800,,,,,0,612,,,,,,,,,,,,,,,,,181,D,hexagon,0,0,,,,,,,,,,,,,,,,switch,number,NA,d,0.9484,noRew,,,,,,0,55,0,55,0,1,,,,,,,,,,,,,,,,,
297628,2022-11-14_12h29.35.054,vts_reward_expectancy_bt,2022.2.4,MacIntel,59.97361161,Chrome,1280,800,,,,,0,612,,,,,,,,,,,,,,,,,125,W,star,1,1,,,,,,,,,,,,,,,,repeat,number,numRpt,d,1.3307,noRew,,,,,,0,56,0,56,0,1,,,,,,,,,,,,,,,,,
297628,2022-11-14_12h29.35.054,vts_reward_expectancy_bt,2022.2.4,MacIntel,59.97361161,Chrome,1280,800,,,,,0,612,,,,,,,,,,,,,,,,,146,F,circle,1,0,,,,,,,,,,,,,,,,switch,letter,lettSwt,j,0.965,noRew,,,,,,0,57,0,57,0,1,,,,,,,,,,,,,,,,,
297628,2022-11-14_12h29.35.054,vts_reward_expectancy_bt,2022.2.4,MacIntel,59.97361161,Chrome,1280,800,,,,,0,612,,,,,,,,,,,,,,,,,174,Y,triangle,1,0,,,,,,,,,,,,,,,,repeat,letter,lettRpt,k,0.7174,noRew,,,,,,0,58,0,58,0,1,,,,,,,,,,,,,,,,,
297628,2022-11-14_12h29.35.054,vts_reward_expectancy_bt,2022.2.4,MacIntel,59.97361161,Chrome,1280,800,,,,,0,612,,,,,,,,,,,,,,,,,139,D,circle,1,0,,,,,,,,,,,,,,,,repeat,letter,lettRpt,j,0.7155,noRew,,,,,,0,59,0,59,0,1,,,,,,,,,,,,,,,,,
297628,2022-11-14_12h29.35.054,vts_reward_expectancy_bt,2022.2.4,MacIntel,59.97361161,Chrome,1280,800,,,,,0,612,,,,,,,,,,,,,,,,,181,B,hexagon,1,0,,,,,,,,,,,,,,,,repeat,letter,lettRpt,j,0.6985,noRew,,,,,,0,60,0,60,0,1,,,,,,,,,,,,,,,,,
297628,2022-11-14_12h29.35.054,vts_reward_expectancy_bt,2022.2.4,MacIntel,59.97361161,Chrome,1280,800,,,,,0,612,,,,,,,,,,,,,,,,,125,U,triangle,1,0,,,,,,,,,,,,,,,,repeat,letter,lettRpt,k,0.8811,noRew,,,,,,0,61,0,61,0,1,,,,,,,,,,,,,,,,,
297628,2022-11-14_12h29.35.054,vts_reward_expectancy_bt,2022.2.4,MacIntel,59.97361161,Chrome,1280,800,,,,,0,612,,,,,,,,,,,,,,,,,174,S,circle,1,0,,,,,,,,,,,,,,,,switch,number,numSwt,f,1.8315,noRew,,,,,,0,62,0,62,0,1,,,,,,,,,,,,,,,,,
297628,2022-11-14_12h29.35.054,vts_reward_expectancy_bt,2022.2.4,MacIntel,59.97361161,Chrome,1280,800,,,,,0,612,,,,,,,,,,,,,,,,,146,Y,hexagon,1,0,,,,,,,,,,,,,,,,switch,letter,lettSwt,k,1.4305,noRew,,,,,,0,63,0,63,0,1,,,,,,,,,,,,,,,,,
297628,2022-11-14_12h29.35.054,vts_reward_expectancy_bt,2022.2.4,MacIntel,59.97361161,Chrome,1280,800,,,,,,,,,,,,,,,,,,,,,,,,,,,,,,,,,,,,,,,,,,,,,,,,,,,,,,,,,,,,,,,,,,,,,,,,,,,,
297628,2022-11-14_12h29.35.054,vts_reward_expectancy_bt,2022.2.4,MacIntel,59.97361161,Chrome,1280,800,,,,,1,613,,,,,,,,,,,,,,,,,125,H,hexagon,1,0,,,,,,,,,,,,,,,,switch,number,numSwt,d,0.9135,Lo,,,,,,0,,,,,,space,15.6249,low,0,0,0,0,1,,,,,,,,,
297628,2022-11-14_12h29.35.054,vts_reward_expectancy_bt,2022.2.4,MacIntel,59.97361161,Chrome,1280,800,,,,,1,614,,,,,,,,,,,,,,,,,174,W,circle,1,0,,,,,,,,,,,,,,,,switch,letter,lettSwt,k,1.7347,Lo,,,,,,0,,,,,,,,low,1,0,1,0,1,,,,,,,,,
297628,2022-11-14_12h29.35.054,vts_reward_expectancy_bt,2022.2.4,MacIntel,59.97361161,Chrome,1280,800,,,,,0,614,,,,,,,,,,,,,,,,,132,B,star,1,0,,,,,,,,,,,,,,,,repeat,letter,lettRpt,j,0.9353,Hi,,,,,,0,,,,,,,,low,2,0,2,0,1,,,,,,,,,
297628,2022-11-14_12h29.35.054,vts_reward_expectancy_bt,2022.2.4,MacIntel,59.97361161,Chrome,1280,800,,,,,10,624,,,,,,,,,,,,,,,,,167,U,triangle,1,0,,,,,,,,,,,,,,,,switch,number,numSwt,f,0.7122,Hi,,,,,,0,,,,,,,,low,3,0,3,0,1,,,,,,,,,
297628,2022-11-14_12h29.35.054,vts_reward_expectancy_bt,2022.2.4,MacIntel,59.97361161,Chrome,1280,800,,,,,1,625,,,,,,,,,,,,,,,,,139,S,hexagon,1,0,,,,,,,,,,,,,,,,switch,letter,lettSwt,k,0.715,Lo,,,,,,0,,,,,,,,low,4,0,4,0,1,,,,,,,,,
297628,2022-11-14_12h29.35.054,vts_reward_expectancy_bt,2022.2.4,MacIntel,59.97361161,Chrome,1280,800,,,,,1,626,,,,,,,,,,,,,,,,,181,D,circle,1,0,,,,,,,,,,,,,,,,switch,number,numSwt,f,0.6983,Lo,,,,,,0,,,,,,,,low,5,0,5,0,1,,,,,,,,,
297628,2022-11-14_12h29.35.054,vts_reward_expectancy_bt,2022.2.4,MacIntel,59.97361161,Chrome,1280,800,,,,,10,636,,,,,,,,,,,,,,,,,160,Y,star,1,0,,,,,,,,,,,,,,,,repeat,number,numRpt,f,0.4801,Hi,,,,,,0,,,,,,,,low,6,0,6,0,1,,,,,,,,,
297628,2022-11-14_12h29.35.054,vts_reward_expectancy_bt,2022.2.4,MacIntel,59.97361161,Chrome,1280,800,,,,,10,646,,,,,,,,,,,,,,,,,146,F,triangle,1,0,,,,,,,,,,,,,,,,repeat,number,numRpt,d,0.8832,Hi,,,,,,0,,,,,,,,low,7,0,7,0,1,,,,,,,,,
297628,2022-11-14_12h29.35.054,vts_reward_expectancy_bt,2022.2.4,MacIntel,59.97361161,Chrome,1280,800,,,,,1,647,,,,,,,,,,,,,,,,,125,H,star,1,0,,,,,,,,,,,,,,,,repeat,number,numRpt,d,0.598,Hi,,,,,,0,,,,,,,,low,8,0,8,0,1,,,,,,,,,
297628,2022-11-14_12h29.35.054,vts_reward_expectancy_bt,2022.2.4,MacIntel,59.97361161,Chrome,1280,800,,,,,1,648,,,,,,,,,,,,,,,,,174,W,triangle,1,0,,,,,,,,,,,,,,,,repeat,number,numRpt,f,0.7318,Hi,,,,,,0,,,,,,,,low,9,0,9,0,1,,,,,,,,,
297628,2022-11-14_12h29.35.054,vts_reward_expectancy_bt,2022.2.4,MacIntel,59.97361161,Chrome,1280,800,,,,,1,649,,,,,,,,,,,,,,,,,132,B,circle,1,0,,,,,,,,,,,,,,,,switch,letter,lettSwt,j,1.031,Lo,,,,,,0,,,,,,,,low,10,0,10,0,1,,,,,,,,,
297628,2022-11-14_12h29.35.054,vts_reward_expectancy_bt,2022.2.4,MacIntel,59.97361161,Chrome,1280,800,,,,,1,650,,,,,,,,,,,,,,,,,167,U,hexagon,1,0,,,,,,,,,,,,,,,,switch,number,numSwt,f,0.9303,Lo,,,,,,0,,,,,,,,low,11,0,11,0,1,,,,,,,,,
297628,2022-11-14_12h29.35.054,vts_reward_expectancy_bt,2022.2.4,MacIntel,59.97361161,Chrome,1280,800,,,,,1,651,,,,,,,,,,,,,,,,,139,S,star,1,0,,,,,,,,,,,,,,,,switch,letter,lettSwt,k,0.7332,Hi,,,,,,0,,,,,,,,low,12,0,12,0,1,,,,,,,,,
297628,2022-11-14_12h29.35.054,vts_reward_expectancy_bt,2022.2.4,MacIntel,59.97361161,Chrome,1280,800,,,,,1,652,,,,,,,,,,,,,,,,,181,D,hexagon,1,0,,,,,,,,,,,,,,,,repeat,letter,lettRpt,j,0.6659,Lo,,,,,,0,,,,,,,,low,13,0,13,0,1,,,,,,,,,
297628,2022-11-14_12h29.35.054,vts_reward_expectancy_bt,2022.2.4,MacIntel,59.97361161,Chrome,1280,800,,,,,1,653,,,,,,,,,,,,,,,,,160,Y,circle,1,0,,,,,,,,,,,,,,,,switch,number,numSwt,f,0.7816,Lo,,,,,,0,,,,,,,,low,14,0,14,0,1,,,,,,,,,
297628,2022-11-14_12h29.35.054,vts_reward_expectancy_bt,2022.2.4,MacIntel,59.97361161,Chrome,1280,800,,,,,0,653,,,,,,,,,,,,,,,,,146,F,triangle,1,0,,,,,,,,,,,,,,,,repeat,number,numRpt,d,1.8974,Hi,,,,,,0,,,,,,,,low,15,0,15,0,1,,,,,,,,,
297628,2022-11-14_12h29.35.054,vts_reward_expectancy_bt,2022.2.4,MacIntel,59.97361161,Chrome,1280,800,,,,,0,653,,,,,,,,,,,,,,,,,146,H,star,0,0,,,,,,,,,,,,,,,,switch,letter,NA,k,1.103,Hi,,,,,,0,,,,,,,,low,16,0,16,0,1,,,,,,,,,
297628,2022-11-14_12h29.35.054,vts_reward_expectancy_bt,2022.2.4,MacIntel,59.97361161,Chrome,1280,800,,,,,10,663,,,,,,,,,,,,,,,,,125,U,circle,1,1,,,,,,,,,,,,,,,,switch,number,numSwt,d,0.8648,Lo,,,,,,0,,,,,,,,low,17,0,17,0,1,,,,,,,,,
297628,2022-11-14_12h29.35.054,vts_reward_expectancy_bt,2022.2.4,MacIntel,59.97361161,Chrome,1280,800,,,,,0,663,,,,,,,,,,,,,,,,,139,F,triangle,1,0,,,,,,,,,,,,,,,,repeat,number,numRpt,d,1.216,Hi,,,,,,0,,,,,,,,low,18,0,18,0,1,,,,,,,,,
297628,2022-11-14_12h29.35.054,vts_reward_expectancy_bt,2022.2.4,MacIntel,59.97361161,Chrome,1280,800,,,,,1,664,,,,,,,,,,,,,,,,,132,B,hexagon,1,0,,,,,,,,,,,,,,,,switch,letter,lettSwt,j,0.8468,Lo,,,,,,0,,,,,,,,low,19,0,19,0,1,,,,,,,,,
297628,2022-11-14_12h29.35.054,vts_reward_expectancy_bt,2022.2.4,MacIntel,59.97361161,Chrome,1280,800,,,,,1,665,,,,,,,,,,,,,,,,,181,Y,hexagon,1,0,,,,,,,,,,,,,,,,switch,number,numSwt,f,0.9155,Lo,,,,,,0,,,,,,,,low,20,0,20,0,1,,,,,,,,,
297628,2022-11-14_12h29.35.054,vts_reward_expectancy_bt,2022.2.4,MacIntel,59.97361161,Chrome,1280,800,,,,,0,665,,,,,,,,,,,,,,,,,160,S,circle,0,0,,,,,,,,,,,,,,,,switch,letter,NA,j,0.7669,Lo,,,,,,0,,,,,,,,low,21,0,21,0,1,,,,,,,,,
297628,2022-11-14_12h29.35.054,vts_reward_expectancy_bt,2022.2.4,MacIntel,59.97361161,Chrome,1280,800,,,,,1,666,,,,,,,,,,,,,,,,,167,D,triangle,1,1,,,,,,,,,,,,,,,,switch,number,numSwt,f,0.7155,Hi,,,,,,0,,,,,,,,low,22,0,22,0,1,,,,,,,,,
297628,2022-11-14_12h29.35.054,vts_reward_expectancy_bt,2022.2.4,MacIntel,59.97361161,Chrome,1280,800,,,,,1,667,,,,,,,,,,,,,,,,,174,W,star,1,0,,,,,,,,,,,,,,,,switch,letter,lettSwt,k,0.6645,Hi,,,,,,0,,,,,,,,low,23,0,23,0,1,,,,,,,,,
297628,2022-11-14_12h29.35.054,vts_reward_expectancy_bt,2022.2.4,MacIntel,59.97361161,Chrome,1280,800,,,,,10,677,,,,,,,,,,,,,,,,,132,H,circle,1,0,,,,,,,,,,,,,,,,repeat,letter,lettRpt,j,0.0169,Lo,,,,,,0,,,,,,,,low,24,0,24,0,1,,,,,,,,,
297628,2022-11-14_12h29.35.054,vts_reward_expectancy_bt,2022.2.4,MacIntel,59.97361161,Chrome,1280,800,,,,,0,677,,,,,,,,,,,,,,,,,146,Y,triangle,1,0,,,,,,,,,,,,,,,,switch,number,numSwt,d,0.9809,Hi,,,,,,0,,,,,,,,low,25,0,25,0,1,,,,,,,,,
297628,2022-11-14_12h29.35.054,vts_reward_expectancy_bt,2022.2.4,MacIntel,59.97361161,Chrome,1280,800,,,,,1,678,,,,,,,,,,,,,,,,,181,W,hexagon,1,0,,,,,,,,,,,,,,,,switch,letter,lettSwt,k,0.6481,Lo,,,,,,0,,,,,,,,low,26,0,26,0,1,,,,,,,,,
297628,2022-11-14_12h29.35.054,vts_reward_expectancy_bt,2022.2.4,MacIntel,59.97361161,Chrome,1280,800,,,,,10,688,,,,,,,,,,,,,,,,,167,B,star,1,0,,,,,,,,,,,,,,,,switch,number,numSwt,f,0.5149,Hi,,,,,,0,,,,,,,,low,27,0,27,0,1,,,,,,,,,
297628,2022-11-14_12h29.35.054,vts_reward_expectancy_bt,2022.2.4,MacIntel,59.97361161,Chrome,1280,800,,,,,1,689,,,,,,,,,,,,,,,,,174,F,triangle,1,0,,,,,,,,,,,,,,,,repeat,number,numRpt,f,0.4478,Hi,,,,,,0,,,,,,,,low,28,0,28,0,1,,,,,,,,,
297628,2022-11-14_12h29.35.054,vts_reward_expectancy_bt,2022.2.4,MacIntel,59.97361161,Chrome,1280,800,,,,,10,699,,,,,,,,,,,,,,,,,160,U,hexagon,1,0,,,,,,,,,,,,,,,,switch,letter,lettSwt,k,0.6636,Lo,,,,,,0,,,,,,,,low,29,0,29,0,1,,,,,,,,,
297628,2022-11-14_12h29.35.054,vts_reward_expectancy_bt,2022.2.4,MacIntel,59.97361161,Chrome,1280,800,,,,,10,709,,,,,,,,,,,,,,,,,125,D,star,1,0,,,,,,,,,,,,,,,,switch,number,numSwt,d,0.4435,Hi,,,,,,0,,,,,,,,low,30,0,30,0,1,,,,,,,,,
297628,2022-11-14_12h29.35.054,vts_reward_expectancy_bt,2022.2.4,MacIntel,59.97361161,Chrome,1280,800,,,,,10,719,,,,,,,,,,,,,,,,,139,S,circle,1,0,,,,,,,,,,,,,,,,switch,letter,lettSwt,k,0.563,Lo,,,,,,0,,,,,,,,low,31,0,31,0,1,,,,,,,,,
297628,2022-11-14_12h29.35.054,vts_reward_expectancy_bt,2022.2.4,MacIntel,59.97361161,Chrome,1280,800,,,,,1,720,,,,,,,,,,,,,,,,,132,S,circle,1,0,,,,,,,,,,,,,,,,switch,number,numSwt,d,0.7839,Lo,,,,,,1,,,,,,space,5.7451,low,0,0,0,0,1,,,,,,,,,
297628,2022-11-14_12h29.35.054,vts_reward_expectancy_bt,2022.2.4,MacIntel,59.97361161,Chrome,1280,800,,,,,1,721,,,,,,,,,,,,,,,,,160,B,hexagon,1,0,,,,,,,,,,,,,,,,switch,letter,lettSwt,j,0.5976,Lo,,,,,,1,,,,,,,,low,1,0,1,0,1,,,,,,,,,
297628,2022-11-14_12h29.35.054,vts_reward_expectancy_bt,2022.2.4,MacIntel,59.97361161,Chrome,1280,800,,,,,1,722,,,,,,,,,,,,,,,,,146,W,triangle,1,0,,,,,,,,,,,,,,,,switch,number,numSwt,d,0.5471,Hi,,,,,,1,,,,,,,,low,2,0,2,0,1,,,,,,,,,
297628,2022-11-14_12h29.35.054,vts_reward_expectancy_bt,2022.2.4,MacIntel,59.97361161,Chrome,1280,800,,,,,1,723,,,,,,,,,,,,,,,,,139,H,star,1,0,,,,,,,,,,,,,,,,repeat,number,numRpt,d,0.5826,Hi,,,,,,1,,,,,,,,low,3,0,3,0,1,,,,,,,,,
297628,2022-11-14_12h29.35.054,vts_reward_expectancy_bt,2022.2.4,MacIntel,59.97361161,Chrome,1280,800,,,,,1,724,,,,,,,,,,,,,,,,,174,D,circle,1,0,,,,,,,,,,,,,,,,switch,letter,lettSwt,j,0.7143,Lo,,,,,,1,,,,,,,,low,4,0,4,0,1,,,,,,,,,
297628,2022-11-14_12h29.35.054,vts_reward_expectancy_bt,2022.2.4,MacIntel,59.97361161,Chrome,1280,800,,,,,1,725,,,,,,,,,,,,,,,,,181,Y,hexagon,1,0,,,,,,,,,,,,,,,,switch,number,numSwt,f,0.4481,Lo,,,,,,1,,,,,,,,low,5,0,5,0,1,,,,,,,,,
297628,2022-11-14_12h29.35.054,vts_reward_expectancy_bt,2022.2.4,MacIntel,59.97361161,Chrome,1280,800,,,,,0,725,,,,,,,,,,,,,,,,,125,F,triangle,1,0,,,,,,,,,,,,,,,,repeat,number,numRpt,d,0.614,Hi,,,,,,1,,,,,,,,low,6,0,6,0,1,,,,,,,,,
297628,2022-11-14_12h29.35.054,vts_reward_expectancy_bt,2022.2.4,MacIntel,59.97361161,Chrome,1280,800,,,,,0,725,,,,,,,,,,,,,,,,,167,U,star,0,0,,,,,,,,,,,,,,,,switch,letter,NA,j,0.5317,Hi,,,,,,1,,,,,,,,low,7,0,7,0,1,,,,,,,,,
297628,2022-11-14_12h29.35.054,vts_reward_expectancy_bt,2022.2.4,MacIntel,59.97361161,Chrome,1280,800,,,,,1,726,,,,,,,,,,,,,,,,,132,S,star,1,1,,,,,,,,,,,,,,,,switch,number,numSwt,d,0.6485,Hi,,,,,,1,,,,,,,,low,8,0,8,0,1,,,,,,,,,
297628,2022-11-14_12h29.35.054,vts_reward_expectancy_bt,2022.2.4,MacIntel,59.97361161,Chrome,1280,800,,,,,1,727,,,,,,,,,,,,,,,,,160,B,hexagon,1,0,,,,,,,,,,,,,,,,repeat,number,numRpt,f,0.4297,Lo,,,,,,1,,,,,,,,low,9,0,9,0,1,,,,,,,,,
297628,2022-11-14_12h29.35.054,vts_reward_expectancy_bt,2022.2.4,MacIntel,59.97361161,Chrome,1280,800,,,,,1,728,,,,,,,,,,,,,,,,,146,W,triangle,1,0,,,,,,,,,,,,,,,,switch,letter,lettSwt,k,0.4977,Hi,,,,,,1,,,,,,,,low,10,0,10,0,1,,,,,,,,,
297628,2022-11-14_12h29.35.054,vts_reward_expectancy_bt,2022.2.4,MacIntel,59.97361161,Chrome,1280,800,,,,,10,738,,,,,,,,,,,,,,,,,139,H,circle,1,0,,,,,,,,,,,,,,,,switch,number,numSwt,d,0.6307,Lo,,,,,,1,,,,,,,,low,11,0,11,0,1,,,,,,,,,
297628,2022-11-14_12h29.35.054,vts_reward_expectancy_bt,2022.2.4,MacIntel,59.97361161,Chrome,1280,800,,,,,1,739,,,,,,,,,,,,,,,,,174,D,hexagon,1,0,,,,,,,,,,,,,,,,repeat,number,numRpt,f,0.6645,Lo,,,,,,1,,,,,,,,low,12,0,12,0,1,,,,,,,,,
297628,2022-11-14_12h29.35.054,vts_reward_expectancy_bt,2022.2.4,MacIntel,59.97361161,Chrome,1280,800,,,,,10,749,,,,,,,,,,,,,,,,,181,Y,triangle,1,0,,,,,,,,,,,,,,,,repeat,number,numRpt,f,0.5473,Hi,,,,,,1,,,,,,,,low,13,0,13,0,1,,,,,,,,,
297628,2022-11-14_12h29.35.054,vts_reward_expectancy_bt,2022.2.4,MacIntel,59.97361161,Chrome,1280,800,,,,,10,759,,,,,,,,,,,,,,,,,125,F,circle,1,0,,,,,,,,,,,,,,,,repeat,number,numRpt,d,0.583,Lo,,,,,,1,,,,,,,,low,14,0,14,0,1,,,,,,,,,
297628,2022-11-14_12h29.35.054,vts_reward_expectancy_bt,2022.2.4,MacIntel,59.97361161,Chrome,1280,800,,,,,10,769,,,,,,,,,,,,,,,,,167,U,star,1,0,,,,,,,,,,,,,,,,repeat,number,numRpt,f,0.514,Hi,,,,,,1,,,,,,,,low,15,0,15,0,1,,,,,,,,,
297628,2022-11-14_12h29.35.054,vts_reward_expectancy_bt,2022.2.4,MacIntel,59.97361161,Chrome,1280,800,,,,,0,769,,,,,,,,,,,,,,,,,167,D,triangle,0,0,,,,,,,,,,,,,,,,switch,letter,NA,k,0.5488,Hi,,,,,,1,,,,,,,,low,16,0,16,0,1,,,,,,,,,
297628,2022-11-14_12h29.35.054,vts_reward_expectancy_bt,2022.2.4,MacIntel,59.97361161,Chrome,1280,800,,,,,10,779,,,,,,,,,,,,,,,,,174,U,hexagon,1,1,,,,,,,,,,,,,,,,repeat,letter,lettRpt,k,0.7144,Lo,,,,,,1,,,,,,,,low,17,0,17,0,1,,,,,,,,,
297628,2022-11-14_12h29.35.054,vts_reward_expectancy_bt,2022.2.4,MacIntel,59.97361161,Chrome,1280,800,,,,,0,779,,,,,,,,,,,,,,,,,125,W,star,1,0,,,,,,,,,,,,,,,,repeat,letter,lettRpt,k,0.5488,Hi,,,,,,1,,,,,,,,low,18,0,18,0,1,,,,,,,,,
297628,2022-11-14_12h29.35.054,vts_reward_expectancy_bt,2022.2.4,MacIntel,59.97361161,Chrome,1280,800,,,,,10,789,,,,,,,,,,,,,,,,,139,B,circle,1,0,,,,,,,,,,,,,,,,repeat,letter,lettRpt,j,0.7315,Lo,,,,,,1,,,,,,,,low,19,0,19,0,1,,,,,,,,,
297628,2022-11-14_12h29.35.054,vts_reward_expectancy_bt,2022.2.4,MacIntel,59.97361161,Chrome,1280,800,,,,,0,789,,,,,,,,,,,,,,,,,160,Y,triangle,1,0,,,,,,,,,,,,,,,,repeat,letter,lettRpt,k,0.5478,Hi,,,,,,1,,,,,,,,low,20,0,20,0,1,,,,,,,,,
297628,2022-11-14_12h29.35.054,vts_reward_expectancy_bt,2022.2.4,MacIntel,59.97361161,Chrome,1280,800,,,,,1,790,,,,,,,,,,,,,,,,,132,S,star,1,0,,,,,,,,,,,,,,,,switch,number,numSwt,d,0.5456,Hi,,,,,,1,,,,,,,,low,21,0,21,0,1,,,,,,,,,
297628,2022-11-14_12h29.35.054,vts_reward_expectancy_bt,2022.2.4,MacIntel,59.97361161,Chrome,1280,800,,,,,10,800,,,,,,,,,,,,,,,,,146,H,hexagon,1,0,,,,,,,,,,,,,,,,repeat,number,numRpt,d,0.7142,Lo,,,,,,1,,,,,,,,low,22,0,22,0,1,,,,,,,,,
297628,2022-11-14_12h29.35.054,vts_reward_expectancy_bt,2022.2.4,MacIntel,59.97361161,Chrome,1280,800,,,,,1,801,,,,,,,,,,,,,,,,,181,F,circle,1,0,,,,,,,,,,,,,,,,switch,letter,lettSwt,j,0.5487,Lo,,,,,,1,,,,,,,,low,23,0,23,0,1,,,,,,,,,
297628,2022-11-14_12h29.35.054,vts_reward_expectancy_bt,2022.2.4,MacIntel,59.97361161,Chrome,1280,800,,,,,1,802,,,,,,,,,,,,,,,,,125,W,hexagon,1,0,,,,,,,,,,,,,,,,repeat,letter,lettRpt,k,0.5652,Lo,,,,,,1,,,,,,,,low,24,0,24,0,1,,,,,,,,,
297628,2022-11-14_12h29.35.054,vts_reward_expectancy_bt,2022.2.4,MacIntel,59.97361161,Chrome,1280,800,,,,,0,802,,,,,,,,,,,,,,,,,167,S,star,1,0,,,,,,,,,,,,,,,,repeat,letter,lettRpt,k,0.7159,Hi,,,,,,1,,,,,,,,low,25,0,25,0,1,,,,,,,,,
297628,2022-11-14_12h29.35.054,vts_reward_expectancy_bt,2022.2.4,MacIntel,59.97361161,Chrome,1280,800,,,,,10,812,,,,,,,,,,,,,,,,,132,F,circle,1,0,,,,,,,,,,,,,,,,switch,number,numSwt,d,0.7998,Lo,,,,,,1,,,,,,,,low,26,0,26,0,1,,,,,,,,,
297628,2022-11-14_12h29.35.054,vts_reward_expectancy_bt,2022.2.4,MacIntel,59.97361161,Chrome,1280,800,,,,,0,812,,,,,,,,,,,,,,,,,139,Y,triangle,1,0,,,,,,,,,,,,,,,,repeat,number,numRpt,d,0.6146,Hi,,,,,,1,,,,,,,,low,27,0,27,0,1,,,,,,,,,
297628,2022-11-14_12h29.35.054,vts_reward_expectancy_bt,2022.2.4,MacIntel,59.97361161,Chrome,1280,800,,,,,1,813,,,,,,,,,,,,,,,,,174,D,circle,1,0,,,,,,,,,,,,,,,,repeat,number,numRpt,f,0.7157,Lo,,,,,,1,,,,,,,,low,28,0,28,0,1,,,,,,,,,
297628,2022-11-14_12h29.35.054,vts_reward_expectancy_bt,2022.2.4,MacIntel,59.97361161,Chrome,1280,800,,,,,0,813,,,,,,,,,,,,,,,,,160,B,triangle,1,0,,,,,,,,,,,,,,,,repeat,number,numRpt,f,0.9483,Hi,,,,,,1,,,,,,,,low,29,0,29,0,1,,,,,,,,,
297628,2022-11-14_12h29.35.054,vts_reward_expectancy_bt,2022.2.4,MacIntel,59.97361161,Chrome,1280,800,,,,,10,823,,,,,,,,,,,,,,,,,146,H,star,1,0,,,,,,,,,,,,,,,,repeat,number,numRpt,d,0.5642,Hi,,,,,,1,,,,,,,,low,30,0,30,0,1,,,,,,,,,
297628,2022-11-14_12h29.35.054,vts_reward_expectancy_bt,2022.2.4,MacIntel,59.97361161,Chrome,1280,800,,,,,10,833,,,,,,,,,,,,,,,,,181,U,hexagon,1,0,,,,,,,,,,,,,,,,repeat,number,numRpt,f,0.6335,Lo,,,,,,1,,,,,,,,low,31,0,31,0,1,,,,,,,,,
297628,2022-11-14_12h29.35.054,vts_reward_expectancy_bt,2022.2.4,MacIntel,59.97361161,Chrome,1280,800,,,,,0,833,,,,,,,,,,,,,,,,,132,S,star,1,0,,,,,,,,,,,,,,,,repeat,number,numRpt,d,0.6641,Hi,,,,,,2,,,,,,space,2.3958,low,0,0,0,0,1,,,,,,,,,
297628,2022-11-14_12h29.35.054,vts_reward_expectancy_bt,2022.2.4,MacIntel,59.97361161,Chrome,1280,800,,,,,10,843,,,,,,,,,,,,,,,,,160,B,triangle,1,0,,,,,,,,,,,,,,,,switch,letter,lettSwt,j,0.5155,Hi,,,,,,2,,,,,,,,low,1,0,1,0,1,,,,,,,,,
297628,2022-11-14_12h29.35.054,vts_reward_expectancy_bt,2022.2.4,MacIntel,59.97361161,Chrome,1280,800,,,,,1,844,,,,,,,,,,,,,,,,,167,F,hexagon,1,0,,,,,,,,,,,,,,,,switch,number,numSwt,f,0.4489,Lo,,,,,,2,,,,,,,,low,2,0,2,0,1,,,,,,,,,
297628,2022-11-14_12h29.35.054,vts_reward_expectancy_bt,2022.2.4,MacIntel,59.97361161,Chrome,1280,800,,,,,0,844,,,,,,,,,,,,,,,,,146,D,circle,0,0,,,,,,,,,,,,,,,,switch,letter,NA,k,0.5334,Lo,,,,,,2,,,,,,,,low,3,0,3,0,1,,,,,,,,,
297628,2022-11-14_12h29.35.054,vts_reward_expectancy_bt,2022.2.4,MacIntel,59.97361161,Chrome,1280,800,,,,,0,844,,,,,,,,,,,,,,,,,174,W,star,1,1,,,,,,,,,,,,,,,,switch,number,numSwt,f,0.6004,Hi,,,,,,2,,,,,,,,low,4,0,4,0,1,,,,,,,,,
297628,2022-11-14_12h29.35.054,vts_reward_expectancy_bt,2022.2.4,MacIntel,59.97361161,Chrome,1280,800,,,,,10,854,,,,,,,,,,,,,,,,,139,H,triangle,1,0,,,,,,,,,,,,,,,,repeat,number,numRpt,d,0.4484,Hi,,,,,,2,,,,,,,,low,5,0,5,0,1,,,,,,,,,
297628,2022-11-14_12h29.35.054,vts_reward_expectancy_bt,2022.2.4,MacIntel,59.97361161,Chrome,1280,800,,,,,10,864,,,,,,,,,,,,,,,,,125,U,hexagon,1,0,,,,,,,,,,,,,,,,repeat,number,numRpt,d,0.5824,Lo,,,,,,2,,,,,,,,low,6,0,6,0,1,,,,,,,,,
297628,2022-11-14_12h29.35.054,vts_reward_expectancy_bt,2022.2.4,MacIntel,59.97361161,Chrome,1280,800,,,,,1,865,,,,,,,,,,,,,,,,,181,Y,circle,1,0,,,,,,,,,,,,,,,,repeat,number,numRpt,f,0.6146,Lo,,,,,,2,,,,,,,,low,7,0,7,0,1,,,,,,,,,
297628,2022-11-14_12h29.35.054,vts_reward_expectancy_bt,2022.2.4,MacIntel,59.97361161,Chrome,1280,800,,,,,1,866,,,,,,,,,,,,,,,,,132,S,circle,1,0,,,,,,,,,,,,,,,,switch,letter,lettSwt,k,0.7618,Lo,,,,,,2,,,,,,,,low,8,0,8,0,1,,,,,,,,,
297628,2022-11-14_12h29.35.054,vts_reward_expectancy_bt,2022.2.4,MacIntel,59.97361161,Chrome,1280,800,,,,,0,866,,,,,,,,,,,,,,,,,160,B,star,1,0,,,,,,,,,,,,,,,,switch,number,numSwt,f,0.65,Hi,,,,,,2,,,,,,,,low,9,0,9,0,1,,,,,,,,,
297628,2022-11-14_12h29.35.054,vts_reward_expectancy_bt,2022.2.4,MacIntel,59.97361161,Chrome,1280,800,,,,,0,866,,,,,,,,,,,,,,,,,167,F,triangle,1,0,,,,,,,,,,,,,,,,switch,letter,lettSwt,j,0.7479,Hi,,,,,,2,,,,,,,,low,10,0,10,0,1,,,,,,,,,
297628,2022-11-14_12h29.35.054,vts_reward_expectancy_bt,2022.2.4,MacIntel,59.97361161,Chrome,1280,800,,,,,1,867,,,,,,,,,,,,,,,,,146,D,hexagon,1,0,,,,,,,,,,,,,,,,switch,number,numSwt,d,0.8846,Lo,,,,,,2,,,,,,,,low,11,0,11,0,1,,,,,,,,,
297628,2022-11-14_12h29.35.054,vts_reward_expectancy_bt,2022.2.4,MacIntel,59.97361161,Chrome,1280,800,,,,,1,868,,,,,,,,,,,,,,,,,174,W,hexagon,1,0,,,,,,,,,,,,,,,,switch,letter,lettSwt,k,0.8988,Lo,,,,,,2,,,,,,,,low,12,0,12,0,1,,,,,,,,,
297628,2022-11-14_12h29.35.054,vts_reward_expectancy_bt,2022.2.4,MacIntel,59.97361161,Chrome,1280,800,,,,,1,869,,,,,,,,,,,,,,,,,139,H,circle,1,0,,,,,,,,,,,,,,,,repeat,letter,lettRpt,j,0.6659,Lo,,,,,,2,,,,,,,,low,13,0,13,0,1,,,,,,,,,
297628,2022-11-14_12h29.35.054,vts_reward_expectancy_bt,2022.2.4,MacIntel,59.97361161,Chrome,1280,800,,,,,0,869,,,,,,,,,,,,,,,,,125,U,triangle,1,0,,,,,,,,,,,,,,,,repeat,letter,lettRpt,k,0.6493,Hi,,,,,,2,,,,,,,,low,14,0,14,0,1,,,,,,,,,
297628,2022-11-14_12h29.35.054,vts_reward_expectancy_bt,2022.2.4,MacIntel,59.97361161,Chrome,1280,800,,,,,1,870,,,,,,,,,,,,,,,,,181,Y,star,1,0,,,,,,,,,,,,,,,,switch,number,numSwt,f,0.4772,Hi,,,,,,2,,,,,,,,low,15,0,15,0,1,,,,,,,,,
297628,2022-11-14_12h29.35.054,vts_reward_expectancy_bt,2022.2.4,MacIntel,59.97361161,Chrome,1280,800,,,,,1,871,,,,,,,,,,,,,,,,,125,W,hexagon,1,0,,,,,,,,,,,,,,,,repeat,number,numRpt,d,0.632,Lo,,,,,,2,,,,,,,,low,16,0,16,0,1,,,,,,,,,
297628,2022-11-14_12h29.35.054,vts_reward_expectancy_bt,2022.2.4,MacIntel,59.97361161,Chrome,1280,800,,,,,10,881,,,,,,,,,,,,,,,,,160,Y,star,1,0,,,,,,,,,,,,,,,,repeat,number,numRpt,f,0.4799,Hi,,,,,,2,,,,,,,,low,17,0,17,0,1,,,,,,,,,
297628,2022-11-14_12h29.35.054,vts_reward_expectancy_bt,2022.2.4,MacIntel,59.97361161,Chrome,1280,800,,,,,1,882,,,,,,,,,,,,,,,,,132,B,circle,1,0,,,,,,,,,,,,,,,,repeat,number,numRpt,d,0.4144,Lo,,,,,,2,,,,,,,,low,18,0,18,0,1,,,,,,,,,
297628,2022-11-14_12h29.35.054,vts_reward_expectancy_bt,2022.2.4,MacIntel,59.97361161,Chrome,1280,800,,,,,0,882,,,,,,,,,,,,,,,,,146,H,triangle,1,0,,,,,,,,,,,,,,,,repeat,number,numRpt,d,0.8985,Hi,,,,,,2,,,,,,,,low,19,0,19,0,1,,,,,,,,,
297628,2022-11-14_12h29.35.054,vts_reward_expectancy_bt,2022.2.4,MacIntel,59.97361161,Chrome,1280,800,,,,,1,883,,,,,,,,,,,,,,,,,181,S,circle,1,0,,,,,,,,,,,,,,,,switch,letter,lettSwt,k,0.7313,Lo,,,,,,2,,,,,,,,low,20,0,20,0,1,,,,,,,,,
297628,2022-11-14_12h29.35.054,vts_reward_expectancy_bt,2022.2.4,MacIntel,59.97361161,Chrome,1280,800,,,,,0,883,,,,,,,,,,,,,,,,,139,F,star,1,0,,,,,,,,,,,,,,,,repeat,letter,lettRpt,j,0.8813,Hi,,,,,,2,,,,,,,,low,21,0,21,0,1,,,,,,,,,
297628,2022-11-14_12h29.35.054,vts_reward_expectancy_bt,2022.2.4,MacIntel,59.97361161,Chrome,1280,800,,,,,1,884,,,,,,,,,,,,,,,,,174,D,hexagon,1,0,,,,,,,,,,,,,,,,repeat,letter,lettRpt,j,0.6339,Lo,,,,,,2,,,,,,,,low,22,0,22,0,1,,,,,,,,,
297628,2022-11-14_12h29.35.054,vts_reward_expectancy_bt,2022.2.4,MacIntel,59.97361161,Chrome,1280,800,,,,,10,894,,,,,,,,,,,,,,,,,167,U,triangle,1,0,,,,,,,,,,,,,,,,repeat,letter,lettRpt,k,0.5326,Hi,,,,,,2,,,,,,,,low,23,0,23,0,1,,,,,,,,,
297628,2022-11-14_12h29.35.054,vts_reward_expectancy_bt,2022.2.4,MacIntel,59.97361161,Chrome,1280,800,,,,,0,894,,,,,,,,,,,,,,,,,132,U,triangle,1,0,,,,,,,,,,,,,,,,switch,number,numSwt,d,0.6649,Hi,,,,,,2,,,,,,,,low,24,0,24,0,1,,,,,,,,,
297628,2022-11-14_12h29.35.054,vts_reward_expectancy_bt,2022.2.4,MacIntel,59.97361161,Chrome,1280,800,,,,,10,904,,,,,,,,,,,,,,,,,125,F,star,1,0,,,,,,,,,,,,,,,,repeat,number,numRpt,d,0.5649,Hi,,,,,,2,,,,,,,,low,25,0,25,0,1,,,,,,,,,
297628,2022-11-14_12h29.35.054,vts_reward_expectancy_bt,2022.2.4,MacIntel,59.97361161,Chrome,1280,800,,,,,1,905,,,,,,,,,,,,,,,,,181,H,hexagon,1,0,,,,,,,,,,,,,,,,repeat,number,numRpt,f,0.482,Lo,,,,,,2,,,,,,,,low,26,0,26,0,1,,,,,,,,,
297628,2022-11-14_12h29.35.054,vts_reward_expectancy_bt,2022.2.4,MacIntel,59.97361161,Chrome,1280,800,,,,,1,906,,,,,,,,,,,,,,,,,160,Y,circle,1,0,,,,,,,,,,,,,,,,switch,letter,lettSwt,k,0.6841,Lo,,,,,,2,,,,,,,,low,27,0,27,0,1,,,,,,,,,
297628,2022-11-14_12h29.35.054,vts_reward_expectancy_bt,2022.2.4,MacIntel,59.97361161,Chrome,1280,800,,,,,10,916,,,,,,,,,,,,,,,,,139,B,hexagon,1,0,,,,,,,,,,,,,,,,repeat,letter,lettRpt,j,0.535,Lo,,,,,,2,,,,,,,,low,28,0,28,0,1,,,,,,,,,
297628,2022-11-14_12h29.35.054,vts_reward_expectancy_bt,2022.2.4,MacIntel,59.97361161,Chrome,1280,800,,,,,1,917,,,,,,,,,,,,,,,,,174,S,circle,1,0,,,,,,,,,,,,,,,,switch,number,numSwt,f,0.5142,Lo,,,,,,2,,,,,,,,low,29,0,29,0,1,,,,,,,,,
297628,2022-11-14_12h29.35.054,vts_reward_expectancy_bt,2022.2.4,MacIntel,59.97361161,Chrome,1280,800,,,,,0,917,,,,,,,,,,,,,,,,,167,D,triangle,1,0,,,,,,,,,,,,,,,,switch,letter,lettSwt,j,0.8021,Hi,,,,,,2,,,,,,,,low,30,0,30,0,1,,,,,,,,,
297628,2022-11-14_12h29.35.054,vts_reward_expectancy_bt,2022.2.4,MacIntel,59.97361161,Chrome,1280,800,,,,,0,917,,,,,,,,,,,,,,,,,146,W,star,1,0,,,,,,,,,,,,,,,,switch,number,numSwt,d,0.6158,Hi,,,,,,2,,,,,,,,low,31,0,31,0,1,,,,,,,,,
297628,2022-11-14_12h29.35.054,vts_reward_expectancy_bt,2022.2.4,MacIntel,59.97361161,Chrome,1280,800,,,,,0,917,,,,,,,,,,,,,,,,,139,H,star,1,0,,,,,,,,,,,,,,,,repeat,number,numRpt,d,0.548,Hi,,,,,,3,,,,,,space,3.0096,low,0,0,0,0,1,,,,,,,,,
297628,2022-11-14_12h29.35.054,vts_reward_expectancy_bt,2022.2.4,MacIntel,59.97361161,Chrome,1280,800,,,,,0,917,,,,,,,,,,,,,,,,,174,B,triangle,1,0,,,,,,,,,,,,,,,,repeat,number,numRpt,f,0.4984,Hi,,,,,,3,,,,,,,,low,1,0,1,0,1,,,,,,,,,
297628,2022-11-14_12h29.35.054,vts_reward_expectancy_bt,2022.2.4,MacIntel,59.97361161,Chrome,1280,800,,,,,0,917,,,,,,,,,,,,,,,,,146,U,hexagon,0,0,,,,,,,,,,,,,,,,switch,letter,NA,j,0.4648,Hi,,,,,,3,,,,,,,,low,2,0,2,0,1,,,,,,,,,
297628,2022-11-14_12h29.35.054,vts_reward_expectancy_bt,2022.2.4,MacIntel,59.97361161,Chrome,1280,800,,,,,1,918,,,,,,,,,,,,,,,,,160,Y,circle,1,1,,,,,,,,,,,,,,,,repeat,letter,lettRpt,k,0.4647,Lo,,,,,,3,,,,,,,,low,3,0,3,0,1,,,,,,,,,
297628,2022-11-14_12h29.35.054,vts_reward_expectancy_bt,2022.2.4,MacIntel,59.97361161,Chrome,1280,800,,,,,10,928,,,,,,,,,,,,,,,,,167,W,star,1,0,,,,,,,,,,,,,,,,repeat,letter,lettRpt,k,0.5648,Hi,,,,,,3,,,,,,,,low,4,0,4,0,1,,,,,,,,,
297628,2022-11-14_12h29.35.054,vts_reward_expectancy_bt,2022.2.4,MacIntel,59.97361161,Chrome,1280,800,,,,,10,938,,,,,,,,,,,,,,,,,181,F,triangle,1,0,,,,,,,,,,,,,,,,repeat,letter,lettRpt,j,0.5147,Hi,,,,,,3,,,,,,,,low,5,0,5,0,1,,,,,,,,,
297628,2022-11-14_12h29.35.054,vts_reward_expectancy_bt,2022.2.4,MacIntel,59.97361161,Chrome,1280,800,,,,,1,939,,,,,,,,,,,,,,,,,132,S,hexagon,1,0,,,,,,,,,,,,,,,,repeat,letter,lettRpt,k,0.3824,Lo,,,,,,3,,,,,,,,low,6,0,6,0,1,,,,,,,,,
297628,2022-11-14_12h29.35.054,vts_reward_expectancy_bt,2022.2.4,MacIntel,59.97361161,Chrome,1280,800,,,,,1,940,,,,,,,,,,,,,,,,,125,D,circle,1,0,,,,,,,,,,,,,,,,repeat,letter,lettRpt,j,0.4971,Lo,,,,,,3,,,,,,,,low,7,0,7,0,1,,,,,,,,,
297628,2022-11-14_12h29.35.054,vts_reward_expectancy_bt,2022.2.4,MacIntel,59.97361161,Chrome,1280,800,,,,,1,941,,,,,,,,,,,,,,,,,139,H,triangle,1,0,,,,,,,,,,,,,,,,switch,number,numSwt,d,0.4483,Hi,,,,,,3,,,,,,,,low,8,0,8,0,1,,,,,,,,,
297628,2022-11-14_12h29.35.054,vts_reward_expectancy_bt,2022.2.4,MacIntel,59.97361161,Chrome,1280,800,,,,,10,951,,,,,,,,,,,,,,,,,174,B,circle,1,0,,,,,,,,,,,,,,,,repeat,number,numRpt,f,0.5317,Lo,,,,,,3,,,,,,,,low,9,0,9,0,1,,,,,,,,,
297628,2022-11-14_12h29.35.054,vts_reward_expectancy_bt,2022.2.4,MacIntel,59.97361161,Chrome,1280,800,,,,,1,952,,,,,,,,,,,,,,,,,146,U,star,1,0,,,,,,,,,,,,,,,,switch,letter,lettSwt,k,0.649,Hi,,,,,,3,,,,,,,,low,10,0,10,0,1,,,,,,,,,
297628,2022-11-14_12h29.35.054,vts_reward_expectancy_bt,2022.2.4,MacIntel,59.97361161,Chrome,1280,800,,,,,10,962,,,,,,,,,,,,,,,,,160,Y,hexagon,1,0,,,,,,,,,,,,,,,,switch,number,numSwt,f,0.5473,Lo,,,,,,3,,,,,,,,low,11,0,11,0,1,,,,,,,,,
297628,2022-11-14_12h29.35.054,vts_reward_expectancy_bt,2022.2.4,MacIntel,59.97361161,Chrome,1280,800,,,,,1,963,,,,,,,,,,,,,,,,,167,W,hexagon,1,0,,,,,,,,,,,,,,,,switch,letter,lettSwt,k,0.5486,Lo,,,,,,3,,,,,,,,low,12,0,12,0,1,,,,,,,,,
297628,2022-11-14_12h29.35.054,vts_reward_expectancy_bt,2022.2.4,MacIntel,59.97361161,Chrome,1280,800,,,,,0,963,,,,,,,,,,,,,,,,,181,F,triangle,1,0,,,,,,,,,,,,,,,,repeat,letter,lettRpt,j,0.6983,Hi,,,,,,3,,,,,,,,low,13,0,13,0,1,,,,,,,,,
297628,2022-11-14_12h29.35.054,vts_reward_expectancy_bt,2022.2.4,MacIntel,59.97361161,Chrome,1280,800,,,,,0,963,,,,,,,,,,,,,,,,,132,S,star,1,0,,,,,,,,,,,,,,,,repeat,letter,lettRpt,k,0.6645,Hi,,,,,,3,,,,,,,,low,14,0,14,0,1,,,,,,,,,
297628,2022-11-14_12h29.35.054,vts_reward_expectancy_bt,2022.2.4,MacIntel,59.97361161,Chrome,1280,800,,,,,10,973,,,,,,,,,,,,,,,,,125,D,circle,1,0,,,,,,,,,,,,,,,,switch,number,numSwt,d,0.6699,Lo,,,,,,3,,,,,,,,low,15,0,15,0,1,,,,,,,,,
297628,2022-11-14_12h29.35.054,vts_reward_expectancy_bt,2022.2.4,MacIntel,59.97361161,Chrome,1280,800,,,,,0,973,,,,,,,,,,,,,,,,,167,F,hexagon,0,0,,,,,,,,,,,,,,,,repeat,number,NA,d,0.7029,Lo,,,,,,3,,,,,,,,low,16,0,16,0,1,,,,,,,,,
297628,2022-11-14_12h29.35.054,vts_reward_expectancy_bt,2022.2.4,MacIntel,59.97361161,Chrome,1280,800,,,,,10,983,,,,,,,,,,,,,,,,,174,B,circle,1,1,,,,,,,,,,,,,,,,repeat,number,numRpt,f,0.6459,Lo,,,,,,3,,,,,,,,low,17,0,17,0,1,,,,,,,,,
297628,2022-11-14_12h29.35.054,vts_reward_expectancy_bt,2022.2.4,MacIntel,59.97361161,Chrome,1280,800,,,,,0,983,,,,,,,,,,,,,,,,,160,U,triangle,1,0,,,,,,,,,,,,,,,,repeat,number,numRpt,f,0.8819,Hi,,,,,,3,,,,,,,,low,18,0,18,0,1,,,,,,,,,
297628,2022-11-14_12h29.35.054,vts_reward_expectancy_bt,2022.2.4,MacIntel,59.97361161,Chrome,1280,800,,,,,1,984,,,,,,,,,,,,,,,,,181,S,star,1,0,,,,,,,,,,,,,,,,switch,letter,lettSwt,k,0.5987,Hi,,,,,,3,,,,,,,,low,19,0,19,0,1,,,,,,,,,
297628,2022-11-14_12h29.35.054,vts_reward_expectancy_bt,2022.2.4,MacIntel,59.97361161,Chrome,1280,800,,,,,1,985,,,,,,,,,,,,,,,,,125,D,circle,1,0,,,,,,,,,,,,,,,,repeat,letter,lettRpt,j,0.5655,Lo,,,,,,3,,,,,,,,low,20,0,20,0,1,,,,,,,,,
297628,2022-11-14_12h29.35.054,vts_reward_expectancy_bt,2022.2.4,MacIntel,59.97361161,Chrome,1280,800,,,,,0,985,,,,,,,,,,,,,,,,,146,W,hexagon,0,0,,,,,,,,,,,,,,,,switch,number,NA,f,0.565,Lo,,,,,,3,,,,,,,,low,21,0,21,0,1,,,,,,,,,
297628,2022-11-14_12h29.35.054,vts_reward_expectancy_bt,2022.2.4,MacIntel,59.97361161,Chrome,1280,800,,,,,0,985,,,,,,,,,,,,,,,,,132,H,triangle,1,1,,,,,,,,,,,,,,,,repeat,number,numRpt,d,0.7848,Hi,,,,,,3,,,,,,,,low,22,0,22,0,1,,,,,,,,,
297628,2022-11-14_12h29.35.054,vts_reward_expectancy_bt,2022.2.4,MacIntel,59.97361161,Chrome,1280,800,,,,,0,985,,,,,,,,,,,,,,,,,139,Y,star,1,0,,,,,,,,,,,,,,,,repeat,number,numRpt,d,0.6151,Hi,,,,,,3,,,,,,,,low,23,0,23,0,1,,,,,,,,,
297628,2022-11-14_12h29.35.054,vts_reward_expectancy_bt,2022.2.4,MacIntel,59.97361161,Chrome,1280,800,,,,,10,995,,,,,,,,,,,,,,,,,160,F,hexagon,1,0,,,,,,,,,,,,,,,,repeat,number,numRpt,f,0.5454,Lo,,,,,,3,,,,,,,,low,24,0,24,0,1,,,,,,,,,
297628,2022-11-14_12h29.35.054,vts_reward_expectancy_bt,2022.2.4,MacIntel,59.97361161,Chrome,1280,800,,,,,10,1005,,,,,,,,,,,,,,,,,167,U,circle,1,0,,,,,,,,,,,,,,,,repeat,number,numRpt,f,0.6494,Lo,,,,,,3,,,,,,,,low,25,0,25,0,1,,,,,,,,,
297628,2022-11-14_12h29.35.054,vts_reward_expectancy_bt,2022.2.4,MacIntel,59.97361161,Chrome,1280,800,,,,,0,1005,,,,,,,,,,,,,,,,,146,B,triangle,0,0,,,,,,,,,,,,,,,,repeat,number,NA,f,0.6637,Lo,,,,,,3,,,,,,,,low,26,0,26,0,1,,,,,,,,,
297628,2022-11-14_12h29.35.054,vts_reward_expectancy_bt,2022.2.4,MacIntel,59.97361161,Chrome,1280,800,,,,,0,1005,,,,,,,,,,,,,,,,,181,H,star,1,1,,,,,,,,,,,,,,,,repeat,number,numRpt,f,0.6152,Hi,,,,,,3,,,,,,,,low,27,0,27,0,1,,,,,,,,,
297628,2022-11-14_12h29.35.054,vts_reward_expectancy_bt,2022.2.4,MacIntel,59.97361161,Chrome,1280,800,,,,,10,1015,,,,,,,,,,,,,,,,,132,W,hexagon,1,0,,,,,,,,,,,,,,,,switch,letter,lettSwt,k,0.6988,Lo,,,,,,3,,,,,,,,low,28,0,28,0,1,,,,,,,,,
297628,2022-11-14_12h29.35.054,vts_reward_expectancy_bt,2022.2.4,MacIntel,59.97361161,Chrome,1280,800,,,,,0,1015,,,,,,,,,,,,,,,,,174,S,triangle,1,0,,,,,,,,,,,,,,,,repeat,letter,lettRpt,k,1.0815,Hi,,,,,,3,,,,,,,,low,29,0,29,0,1,,,,,,,,,
297628,2022-11-14_12h29.35.054,vts_reward_expectancy_bt,2022.2.4,MacIntel,59.97361161,Chrome,1280,800,,,,,0,1015,,,,,,,,,,,,,,,,,125,D,star,1,0,,,,,,,,,,,,,,,,switch,number,numSwt,d,0.6141,Hi,,,,,,3,,,,,,,,low,30,0,30,0,1,,,,,,,,,
297628,2022-11-14_12h29.35.054,vts_reward_expectancy_bt,2022.2.4,MacIntel,59.97361161,Chrome,1280,800,,,,,1,1016,,,,,,,,,,,,,,,,,139,Y,circle,1,0,,,,,,,,,,,,,,,,repeat,number,numRpt,d,0.3822,Lo,,,,,,3,,,,,,,,low,31,0,31,0,1,,,,,,,,,
297628,2022-11-14_12h29.35.054,vts_reward_expectancy_bt,2022.2.4,MacIntel,59.97361161,Chrome,1280,800,,,,,1,1017,,,,,,,,,,,,,,,,,146,S,hexagon,1,0,,,,,,,,,,,,,,,,repeat,number,numRpt,d,0.7141,Lo,,,,,,4,,,,,,space,5.8964,low,0,0,0,0,1,,,,,,,,,
297628,2022-11-14_12h29.35.054,vts_reward_expectancy_bt,2022.2.4,MacIntel,59.97361161,Chrome,1280,800,,,,,1,1018,,,,,,,,,,,,,,,,,167,W,circle,1,0,,,,,,,,,,,,,,,,switch,letter,lettSwt,k,0.5981,Lo,,,,,,4,,,,,,,,low,1,0,1,0,1,,,,,,,,,
297628,2022-11-14_12h29.35.054,vts_reward_expectancy_bt,2022.2.4,MacIntel,59.97361161,Chrome,1280,800,,,,,10,1028,,,,,,,,,,,,,,,,,132,U,star,1,0,,,,,,,,,,,,,,,,repeat,letter,lettRpt,k,0.4815,Hi,,,,,,4,,,,,,,,low,2,0,2,0,1,,,,,,,,,
297628,2022-11-14_12h29.35.054,vts_reward_expectancy_bt,2022.2.4,MacIntel,59.97361161,Chrome,1280,800,,,,,0,1028,,,,,,,,,,,,,,,,,181,D,triangle,1,0,,,,,,,,,,,,,,,,switch,number,numSwt,f,0.6189,Hi,,,,,,4,,,,,,,,low,3,0,3,0,1,,,,,,,,,
297628,2022-11-14_12h29.35.054,vts_reward_expectancy_bt,2022.2.4,MacIntel,59.97361161,Chrome,1280,800,,,,,0,1028,,,,,,,,,,,,,,,,,139,H,hexagon,0,0,,,,,,,,,,,,,,,,switch,letter,NA,k,0.7822,Hi,,,,,,4,,,,,,,,low,4,0,4,0,1,,,,,,,,,
297628,2022-11-14_12h29.35.054,vts_reward_expectancy_bt,2022.2.4,MacIntel,59.97361161,Chrome,1280,800,,,,,10,1038,,,,,,,,,,,,,,,,,160,B,circle,1,1,,,,,,,,,,,,,,,,repeat,letter,lettRpt,j,0.4981,Lo,,,,,,4,,,,,,,,low,5,0,5,0,1,,,,,,,,,
297628,2022-11-14_12h29.35.054,vts_reward_expectancy_bt,2022.2.4,MacIntel,59.97361161,Chrome,1280,800,,,,,0,1038,,,,,,,,,,,,,,,,,174,Y,star,1,0,,,,,,,,,,,,,,,,switch,number,numSwt,f,0.8147,Hi,,,,,,4,,,,,,,,low,6,0,6,0,1,,,,,,,,,
297628,2022-11-14_12h29.35.054,vts_reward_expectancy_bt,2022.2.4,MacIntel,59.97361161,Chrome,1280,800,,,,,0,1038,,,,,,,,,,,,,,,,,125,F,triangle,1,0,,,,,,,,,,,,,,,,repeat,number,numRpt,d,0.6485,Hi,,,,,,4,,,,,,,,low,7,0,7,0,1,,,,,,,,,
297628,2022-11-14_12h29.35.054,vts_reward_expectancy_bt,2022.2.4,MacIntel,59.97361161,Chrome,1280,800,,,,,1,1039,,,,,,,,,,,,,,,,,146,S,hexagon,1,0,,,,,,,,,,,,,,,,switch,letter,lettSwt,k,0.5487,Lo,,,,,,4,,,,,,,,low,8,0,8,0,1,,,,,,,,,
297628,2022-11-14_12h29.35.054,vts_reward_expectancy_bt,2022.2.4,MacIntel,59.97361161,Chrome,1280,800,,,,,0,1039,,,,,,,,,,,,,,,,,167,W,circle,0,0,,,,,,,,,,,,,,,,switch,number,NA,d,0.7313,Lo,,,,,,4,,,,,,,,low,9,0,9,0,1,,,,,,,,,
297628,2022-11-14_12h29.35.054,vts_reward_expectancy_bt,2022.2.4,MacIntel,59.97361161,Chrome,1280,800,,,,,0,1039,,,,,,,,,,,,,,,,,132,U,triangle,1,1,,,,,,,,,,,,,,,,repeat,number,numRpt,d,0.6306,Hi,,,,,,4,,,,,,,,low,10,0,10,0,1,,,,,,,,,
297628,2022-11-14_12h29.35.054,vts_reward_expectancy_bt,2022.2.4,MacIntel,59.97361161,Chrome,1280,800,,,,,0,1039,,,,,,,,,,,,,,,,,181,D,star,1,0,,,,,,,,,,,,,,,,switch,letter,lettSwt,j,0.8677,Hi,,,,,,4,,,,,,,,low,11,0,11,0,1,,,,,,,,,
297628,2022-11-14_12h29.35.054,vts_reward_expectancy_bt,2022.2.4,MacIntel,59.97361161,Chrome,1280,800,,,,,0,1039,,,,,,,,,,,,,,,,,139,H,star,1,0,,,,,,,,,,,,,,,,switch,number,numSwt,d,0.6821,Hi,,,,,,4,,,,,,,,low,12,0,12,0,1,,,,,,,,,
297628,2022-11-14_12h29.35.054,vts_reward_expectancy_bt,2022.2.4,MacIntel,59.97361161,Chrome,1280,800,,,,,1,1040,,,,,,,,,,,,,,,,,160,B,circle,1,0,,,,,,,,,,,,,,,,switch,letter,lettSwt,j,0.4999,Lo,,,,,,4,,,,,,,,low,13,0,13,0,1,,,,,,,,,
297628,2022-11-14_12h29.35.054,vts_reward_expectancy_bt,2022.2.4,MacIntel,59.97361161,Chrome,1280,800,,,,,0,1040,,,,,,,,,,,,,,,,,174,Y,triangle,1,0,,,,,,,,,,,,,,,,switch,number,numSwt,f,0.7974,Hi,,,,,,4,,,,,,,,low,14,0,14,0,1,,,,,,,,,
297628,2022-11-14_12h29.35.054,vts_reward_expectancy_bt,2022.2.4,MacIntel,59.97361161,Chrome,1280,800,,,,,10,1050,,,,,,,,,,,,,,,,,125,F,hexagon,1,0,,,,,,,,,,,,,,,,repeat,number,numRpt,d,0.5655,Lo,,,,,,4,,,,,,,,low,15,0,15,0,1,,,,,,,,,
297628,2022-11-14_12h29.35.054,vts_reward_expectancy_bt,2022.2.4,MacIntel,59.97361161,Chrome,1280,800,,,,,1,1051,,,,,,,,,,,,,,,,,160,H,circle,1,0,,,,,,,,,,,,,,,,repeat,number,numRpt,f,0.5675,Lo,,,,,,4,,,,,,,,low,16,0,16,0,1,,,,,,,,,
297628,2022-11-14_12h29.35.054,vts_reward_expectancy_bt,2022.2.4,MacIntel,59.97361161,Chrome,1280,800,,,,,10,1061,,,,,,,,,,,,,,,,,125,U,triangle,1,0,,,,,,,,,,,,,,,,repeat,number,numRpt,d,0.4028,Hi,,,,,,4,,,,,,,,low,17,0,17,0,1,,,,,,,,,
297628,2022-11-14_12h29.35.054,vts_reward_expectancy_bt,2022.2.4,MacIntel,59.97361161,Chrome,1280,800,,,,,0,1061,,,,,,,,,,,,,,,,,146,W,star,0,0,,,,,,,,,,,,,,,,repeat,number,NA,f,0.4504,Hi,,,,,,4,,,,,,,,low,18,0,18,0,1,,,,,,,,,
297628,2022-11-14_12h29.35.054,vts_reward_expectancy_bt,2022.2.4,MacIntel,59.97361161,Chrome,1280,800,,,,,1,1062,,,,,,,,,,,,,,,,,132,S,hexagon,1,1,,,,,,,,,,,,,,,,repeat,number,numRpt,d,0.4823,Lo,,,,,,4,,,,,,,,low,19,0,19,0,1,,,,,,,,,
297628,2022-11-14_12h29.35.054,vts_reward_expectancy_bt,2022.2.4,MacIntel,59.97361161,Chrome,1280,800,,,,,10,1072,,,,,,,,,,,,,,,,,139,B,hexagon,1,0,,,,,,,,,,,,,,,,repeat,number,numRpt,d,0.5487,Lo,,,,,,4,,,,,,,,low,20,0,20,0,1,,,,,,,,,
297628,2022-11-14_12h29.35.054,vts_reward_expectancy_bt,2022.2.4,MacIntel,59.97361161,Chrome,1280,800,,,,,0,1072,,,,,,,,,,,,,,,,,167,D,triangle,1,0,,,,,,,,,,,,,,,,repeat,number,numRpt,f,0.5481,Hi,,,,,,4,,,,,,,,low,21,0,21,0,1,,,,,,,,,
297628,2022-11-14_12h29.35.054,vts_reward_expectancy_bt,2022.2.4,MacIntel,59.97361161,Chrome,1280,800,,,,,1,1073,,,,,,,,,,,,,,,,,181,Y,star,1,0,,,,,,,,,,,,,,,,switch,letter,lettSwt,k,0.5317,Hi,,,,,,4,,,,,,,,low,22,0,22,0,1,,,,,,,,,
297628,2022-11-14_12h29.35.054,vts_reward_expectancy_bt,2022.2.4,MacIntel,59.97361161,Chrome,1280,800,,,,,10,1083,,,,,,,,,,,,,,,,,174,F,circle,1,0,,,,,,,,,,,,,,,,switch,number,numSwt,f,0.4969,Lo,,,,,,4,,,,,,,,low,23,0,23,0,1,,,,,,,,,
297628,2022-11-14_12h29.35.054,vts_reward_expectancy_bt,2022.2.4,MacIntel,59.97361161,Chrome,1280,800,,,,,10,1093,,,,,,,,,,,,,,,,,167,S,hexagon,1,0,,,,,,,,,,,,,,,,repeat,number,numRpt,f,0.5638,Lo,,,,,,4,,,,,,,,low,24,0,24,0,1,,,,,,,,,
297628,2022-11-14_12h29.35.054,vts_reward_expectancy_bt,2022.2.4,MacIntel,59.97361161,Chrome,1280,800,,,,,1,1094,,,,,,,,,,,,,,,,,132,F,circle,1,0,,,,,,,,,,,,,,,,switch,letter,lettSwt,j,0.6988,Lo,,,,,,4,,,,,,,,low,25,0,25,0,1,,,,,,,,,
297628,2022-11-14_12h29.35.054,vts_reward_expectancy_bt,2022.2.4,MacIntel,59.97361161,Chrome,1280,800,,,,,0,1094,,,,,,,,,,,,,,,,,139,B,star,1,0,,,,,,,,,,,,,,,,switch,number,numSwt,d,0.6489,Hi,,,,,,4,,,,,,,,low,26,0,26,0,1,,,,,,,,,
297628,2022-11-14_12h29.35.054,vts_reward_expectancy_bt,2022.2.4,MacIntel,59.97361161,Chrome,1280,800,,,,,1,1095,,,,,,,,,,,,,,,,,174,W,triangle,1,0,,,,,,,,,,,,,,,,repeat,number,numRpt,f,0.4982,Hi,,,,,,4,,,,,,,,low,27,0,27,0,1,,,,,,,,,
297628,2022-11-14_12h29.35.054,vts_reward_expectancy_bt,2022.2.4,MacIntel,59.97361161,Chrome,1280,800,,,,,0,1095,,,,,,,,,,,,,,,,,125,D,triangle,1,0,,,,,,,,,,,,,,,,switch,letter,lettSwt,j,0.7148,Hi,,,,,,4,,,,,,,,low,28,0,28,0,1,,,,,,,,,
297628,2022-11-14_12h29.35.054,vts_reward_expectancy_bt,2022.2.4,MacIntel,59.97361161,Chrome,1280,800,,,,,0,1095,,,,,,,,,,,,,,,,,181,Y,star,1,0,,,,,,,,,,,,,,,,switch,number,numSwt,f,0.5816,Hi,,,,,,4,,,,,,,,low,29,0,29,0,1,,,,,,,,,
297628,2022-11-14_12h29.35.054,vts_reward_expectancy_bt,2022.2.4,MacIntel,59.97361161,Chrome,1280,800,,,,,10,1105,,,,,,,,,,,,,,,,,160,H,circle,1,0,,,,,,,,,,,,,,,,switch,letter,lettSwt,j,0.5978,Lo,,,,,,4,,,,,,,,low,30,0,30,0,1,,,,,,,,,
297628,2022-11-14_12h29.35.054,vts_reward_expectancy_bt,2022.2.4,MacIntel,59.97361161,Chrome,1280,800,,,,,10,1115,,,,,,,,,,,,,,,,,146,U,hexagon,1,0,,,,,,,,,,,,,,,,switch,number,numSwt,d,0.7815,Lo,,,,,,4,,,,,,,,low,31,0,31,0,1,,,,,,,,,
297628,2022-11-14_12h29.35.054,vts_reward_expectancy_bt,2022.2.4,MacIntel,59.97361161,Chrome,1280,800,,,,,0,1115,,,,,,,,,,,,,,,,,181,B,star,1,0,,,,,,,,,,,,,,,,repeat,number,numRpt,f,0.6015,Hi,,,,,,5,,,,,,space,1.1628,low,0,0,0,0,1,,,,,,,,,
297628,2022-11-14_12h29.35.054,vts_reward_expectancy_bt,2022.2.4,MacIntel,59.97361161,Chrome,1280,800,,,,,0,1115,,,,,,,,,,,,,,,,,174,F,triangle,1,0,,,,,,,,,,,,,,,,switch,letter,lettSwt,j,0.6465,Hi,,,,,,5,,,,,,,,low,1,0,1,0,1,,,,,,,,,
297628,2022-11-14_12h29.35.054,vts_reward_expectancy_bt,2022.2.4,MacIntel,59.97361161,Chrome,1280,800,,,,,1,1116,,,,,,,,,,,,,,,,,132,Y,circle,1,0,,,,,,,,,,,,,,,,repeat,letter,lettRpt,k,0.5166,Lo,,,,,,5,,,,,,,,low,2,0,2,0,1,,,,,,,,,
297628,2022-11-14_12h29.35.054,vts_reward_expectancy_bt,2022.2.4,MacIntel,59.97361161,Chrome,1280,800,,,,,10,1126,,,,,,,,,,,,,,,,,146,H,hexagon,1,0,,,,,,,,,,,,,,,,switch,number,numSwt,d,0.565,Lo,,,,,,5,,,,,,,,low,3,0,3,0,1,,,,,,,,,
297628,2022-11-14_12h29.35.054,vts_reward_expectancy_bt,2022.2.4,MacIntel,59.97361161,Chrome,1280,800,,,,,10,1136,,,,,,,,,,,,,,,,,167,D,star,1,0,,,,,,,,,,,,,,,,switch,letter,lettSwt,j,0.448,Hi,,,,,,5,,,,,,,,low,4,0,4,0,1,,,,,,,,,
297628,2022-11-14_12h29.35.054,vts_reward_expectancy_bt,2022.2.4,MacIntel,59.97361161,Chrome,1280,800,,,,,10,1146,,,,,,,,,,,,,,,,,139,S,triangle,1,0,,,,,,,,,,,,,,,,switch,number,numSwt,d,0.5143,Hi,,,,,,5,,,,,,,,low,5,0,5,0,1,,,,,,,,,
297628,2022-11-14_12h29.35.054,vts_reward_expectancy_bt,2022.2.4,MacIntel,59.97361161,Chrome,1280,800,,,,,10,1156,,,,,,,,,,,,,,,,,160,W,circle,1,0,,,,,,,,,,,,,,,,switch,letter,lettSwt,k,0.6015,Lo,,,,,,5,,,,,,,,low,6,0,6,0,1,,,,,,,,,
297628,2022-11-14_12h29.35.054,vts_reward_expectancy_bt,2022.2.4,MacIntel,59.97361161,Chrome,1280,800,,,,,10,1166,,,,,,,,,,,,,,,,,125,U,hexagon,1,0,,,,,,,,,,,,,,,,switch,number,numSwt,d,0.6649,Lo,,,,,,5,,,,,,,,low,7,0,7,0,1,,,,,,,,,
297628,2022-11-14_12h29.35.054,vts_reward_expectancy_bt,2022.2.4,MacIntel,59.97361161,Chrome,1280,800,,,,,1,1167,,,,,,,,,,,,,,,,,181,B,hexagon,1,0,,,,,,,,,,,,,,,,repeat,number,numRpt,f,0.6473,Lo,,,,,,5,,,,,,,,low,8,0,8,0,1,,,,,,,,,
297628,2022-11-14_12h29.35.054,vts_reward_expectancy_bt,2022.2.4,MacIntel,59.97361161,Chrome,1280,800,,,,,0,1167,,,,,,,,,,,,,,,,,174,F,star,1,0,,,,,,,,,,,,,,,,switch,letter,lettSwt,j,0.5654,Hi,,,,,,5,,,,,,,,low,9,0,9,0,1,,,,,,,,,
297628,2022-11-14_12h29.35.054,vts_reward_expectancy_bt,2022.2.4,MacIntel,59.97361161,Chrome,1280,800,,,,,1,1168,,,,,,,,,,,,,,,,,132,Y,circle,1,0,,,,,,,,,,,,,,,,switch,number,numSwt,d,0.7805,Lo,,,,,,5,,,,,,,,low,10,0,10,0,1,,,,,,,,,
297628,2022-11-14_12h29.35.054,vts_reward_expectancy_bt,2022.2.4,MacIntel,59.97361161,Chrome,1280,800,,,,,0,1168,,,,,,,,,,,,,,,,,146,H,triangle,1,0,,,,,,,,,,,,,,,,repeat,number,numRpt,d,0.577,Hi,,,,,,5,,,,,,,,low,11,0,11,0,1,,,,,,,,,
297628,2022-11-14_12h29.35.054,vts_reward_expectancy_bt,2022.2.4,MacIntel,59.97361161,Chrome,1280,800,,,,,10,1178,,,,,,,,,,,,,,,,,167,D,hexagon,1,0,,,,,,,,,,,,,,,,repeat,number,numRpt,f,0.6995,Lo,,,,,,5,,,,,,,,low,12,0,12,0,1,,,,,,,,,
297628,2022-11-14_12h29.35.054,vts_reward_expectancy_bt,2022.2.4,MacIntel,59.97361161,Chrome,1280,800,,,,,0,1178,,,,,,,,,,,,,,,,,139,S,star,1,0,,,,,,,,,,,,,,,,switch,letter,lettSwt,k,0.6153,Hi,,,,,,5,,,,,,,,low,13,0,13,0,1,,,,,,,,,
297628,2022-11-14_12h29.35.054,vts_reward_expectancy_bt,2022.2.4,MacIntel,59.97361161,Chrome,1280,800,,,,,0,1178,,,,,,,,,,,,,,,,,160,W,triangle,1,0,,,,,,,,,,,,,,,,repeat,letter,lettRpt,k,0.6142,Hi,,,,,,5,,,,,,,,low,14,0,14,0,1,,,,,,,,,
297628,2022-11-14_12h29.35.054,vts_reward_expectancy_bt,2022.2.4,MacIntel,59.97361161,Chrome,1280,800,,,,,1,1179,,,,,,,,,,,,,,,,,125,U,circle,1,0,,,,,,,,,,,,,,,,repeat,letter,lettRpt,k,0.6314,Lo,,,,,,5,,,,,,,,low,15,0,15,0,1,,,,,,,,,
297628,2022-11-14_12h29.35.054,vts_reward_expectancy_bt,2022.2.4,MacIntel,59.97361161,Chrome,1280,800,,,,,1,1180,,,,,,,,,,,,,,,,,125,U,triangle,1,0,,,,,,,,,,,,,,,,switch,number,numSwt,d,0.5496,Hi,,,,,,5,,,,,,,,low,16,0,16,0,1,,,,,,,,,
297628,2022-11-14_12h29.35.054,vts_reward_expectancy_bt,2022.2.4,MacIntel,59.97361161,Chrome,1280,800,,,,,10,1190,,,,,,,,,,,,,,,,,174,Y,star,1,0,,,,,,,,,,,,,,,,repeat,number,numRpt,f,0.4611,Hi,,,,,,5,,,,,,,,low,17,0,17,0,1,,,,,,,,,
297628,2022-11-14_12h29.35.054,vts_reward_expectancy_bt,2022.2.4,MacIntel,59.97361161,Chrome,1280,800,,,,,1,1191,,,,,,,,,,,,,,,,,139,H,circle,1,0,,,,,,,,,,,,,,,,repeat,number,numRpt,d,0.6156,Lo,,,,,,5,,,,,,,,low,18,0,18,0,1,,,,,,,,,
297628,2022-11-14_12h29.35.054,vts_reward_expectancy_bt,2022.2.4,MacIntel,59.97361161,Chrome,1280,800,,,,,1,1192,,,,,,,,,,,,,,,,,160,D,hexagon,1,0,,,,,,,,,,,,,,,,repeat,number,numRpt,f,0.6662,Lo,,,,,,5,,,,,,,,low,19,0,19,0,1,,,,,,,,,
297628,2022-11-14_12h29.35.054,vts_reward_expectancy_bt,2022.2.4,MacIntel,59.97361161,Chrome,1280,800,,,,,0,1192,,,,,,,,,,,,,,,,,146,S,triangle,1,0,,,,,,,,,,,,,,,,repeat,number,numRpt,d,0.9922,Hi,,,,,,5,,,,,,,,low,20,0,20,0,1,,,,,,,,,
297628,2022-11-14_12h29.35.054,vts_reward_expectancy_bt,2022.2.4,MacIntel,59.97361161,Chrome,1280,800,,,,,0,1192,,,,,,,,,,,,,,,,,132,W,star,1,0,,,,,,,,,,,,,,,,switch,letter,lettSwt,k,1.0625,Hi,,,,,,5,,,,,,,,low,21,0,21,0,1,,,,,,,,,
297628,2022-11-14_12h29.35.054,vts_reward_expectancy_bt,2022.2.4,MacIntel,59.97361161,Chrome,1280,800,,,,,10,1202,,,,,,,,,,,,,,,,,167,F,hexagon,1,0,,,,,,,,,,,,,,,,repeat,letter,lettRpt,j,0.7481,Lo,,,,,,5,,,,,,,,low,22,0,22,0,1,,,,,,,,,
297628,2022-11-14_12h29.35.054,vts_reward_expectancy_bt,2022.2.4,MacIntel,59.97361161,Chrome,1280,800,,,,,10,1212,,,,,,,,,,,,,,,,,181,B,circle,1,0,,,,,,,,,,,,,,,,repeat,letter,lettRpt,j,0.6664,Lo,,,,,,5,,,,,,,,low,23,0,23,0,1,,,,,,,,,
297628,2022-11-14_12h29.35.054,vts_reward_expectancy_bt,2022.2.4,MacIntel,59.97361161,Chrome,1280,800,,,,,0,1212,,,,,,,,,,,,,,,,,167,W,star,1,0,,,,,,,,,,,,,,,,repeat,letter,lettRpt,k,0.7167,Hi,,,,,,5,,,,,,,,low,24,0,24,0,1,,,,,,,,,
297628,2022-11-14_12h29.35.054,vts_reward_expectancy_bt,2022.2.4,MacIntel,59.97361161,Chrome,1280,800,,,,,0,1212,,,,,,,,,,,,,,,,,160,F,circle,0,0,,,,,,,,,,,,,,,,repeat,letter,NA,k,0.6107,Hi,,,,,,5,,,,,,,,low,25,0,25,0,1,,,,,,,,,
297628,2022-11-14_12h29.35.054,vts_reward_expectancy_bt,2022.2.4,MacIntel,59.97361161,Chrome,1280,800,,,,,0,1212,,,,,,,,,,,,,,,,,125,Y,triangle,1,1,,,,,,,,,,,,,,,,repeat,letter,lettRpt,k,0.6146,Hi,,,,,,5,,,,,,,,low,26,0,26,0,1,,,,,,,,,
297628,2022-11-14_12h29.35.054,vts_reward_expectancy_bt,2022.2.4,MacIntel,59.97361161,Chrome,1280,800,,,,,10,1222,,,,,,,,,,,,,,,,,146,S,hexagon,1,0,,,,,,,,,,,,,,,,repeat,letter,lettRpt,k,0.7821,Lo,,,,,,5,,,,,,,,low,27,0,27,0,1,,,,,,,,,
297628,2022-11-14_12h29.35.054,vts_reward_expectancy_bt,2022.2.4,MacIntel,59.97361161,Chrome,1280,800,,,,,0,1222,,,,,,,,,,,,,,,,,174,B,star,1,0,,,,,,,,,,,,,,,,repeat,letter,lettRpt,j,0.4992,Hi,,,,,,5,,,,,,,,low,28,0,28,0,1,,,,,,,,,
297628,2022-11-14_12h29.35.054,vts_reward_expectancy_bt,2022.2.4,MacIntel,59.97361161,Chrome,1280,800,,,,,0,1222,,,,,,,,,,,,,,,,,181,D,circle,0,0,,,,,,,,,,,,,,,,repeat,letter,NA,k,0.5645,Hi,,,,,,5,,,,,,,,low,29,0,29,0,1,,,,,,,,,
297628,2022-11-14_12h29.35.054,vts_reward_expectancy_bt,2022.2.4,MacIntel,59.97361161,Chrome,1280,800,,,,,1,1223,,,,,,,,,,,,,,,,,132,U,triangle,1,1,,,,,,,,,,,,,,,,switch,number,numSwt,d,0.4976,Hi,,,,,,5,,,,,,,,low,30,0,30,0,1,,,,,,,,,
297628,2022-11-14_12h29.35.054,vts_reward_expectancy_bt,2022.2.4,MacIntel,59.97361161,Chrome,1280,800,,,,,1,1224,,,,,,,,,,,,,,,,,139,H,hexagon,1,0,,,,,,,,,,,,,,,,switch,letter,lettSwt,j,0.5638,Lo,,,,,,5,,,,,,,,low,31,0,31,0,1,,,,,,,,,
297628,2022-11-14_12h29.35.054,vts_reward_expectancy_bt,2022.2.4,MacIntel,59.97361161,Chrome,1280,800,,,,,10,1234,,,,,,,,,,,,,,,,,167,B,circle,1,0,,,,,,,,,,,,,,,,repeat,letter,lettRpt,j,0.6643,Lo,,,,,,6,,,,,,space,0.9485,low,0,0,0,0,1,,,,,,,,,
297628,2022-11-14_12h29.35.054,vts_reward_expectancy_bt,2022.2.4,MacIntel,59.97361161,Chrome,1280,800,,,,,0,1234,,,,,,,,,,,,,,,,,181,U,star,1,0,,,,,,,,,,,,,,,,repeat,letter,lettRpt,k,0.6642,Hi,,,,,,6,,,,,,,,low,1,0,1,0,1,,,,,,,,,
297628,2022-11-14_12h29.35.054,vts_reward_expectancy_bt,2022.2.4,MacIntel,59.97361161,Chrome,1280,800,,,,,0,1234,,,,,,,,,,,,,,,,,132,S,triangle,1,0,,,,,,,,,,,,,,,,switch,number,numSwt,d,0.6112,Hi,,,,,,6,,,,,,,,low,2,0,2,0,1,,,,,,,,,
297628,2022-11-14_12h29.35.054,vts_reward_expectancy_bt,2022.2.4,MacIntel,59.97361161,Chrome,1280,800,,,,,10,1244,,,,,,,,,,,,,,,,,125,F,hexagon,1,0,,,,,,,,,,,,,,,,repeat,number,numRpt,d,0.6644,Lo,,,,,,6,,,,,,,,low,3,0,3,0,1,,,,,,,,,
297628,2022-11-14_12h29.35.054,vts_reward_expectancy_bt,2022.2.4,MacIntel,59.97361161,Chrome,1280,800,,,,,1,1245,,,,,,,,,,,,,,,,,139,H,circle,1,0,,,,,,,,,,,,,,,,repeat,number,numRpt,d,0.5991,Lo,,,,,,6,,,,,,,,low,4,0,4,0,1,,,,,,,,,
297628,2022-11-14_12h29.35.054,vts_reward_expectancy_bt,2022.2.4,MacIntel,59.97361161,Chrome,1280,800,,,,,0,1245,,,,,,,,,,,,,,,,,146,Y,star,1,0,,,,,,,,,,,,,,,,switch,letter,lettSwt,k,0.5785,Hi,,,,,,6,,,,,,,,low,5,0,5,0,1,,,,,,,,,
297628,2022-11-14_12h29.35.054,vts_reward_expectancy_bt,2022.2.4,MacIntel,59.97361161,Chrome,1280,800,,,,,0,1245,,,,,,,,,,,,,,,,,174,W,triangle,1,0,,,,,,,,,,,,,,,,repeat,letter,lettRpt,k,0.7475,Hi,,,,,,6,,,,,,,,low,6,0,6,0,1,,,,,,,,,
297628,2022-11-14_12h29.35.054,vts_reward_expectancy_bt,2022.2.4,MacIntel,59.97361161,Chrome,1280,800,,,,,1,1246,,,,,,,,,,,,,,,,,160,D,hexagon,1,0,,,,,,,,,,,,,,,,switch,number,numSwt,f,1.2316,Lo,,,,,,6,,,,,,,,low,7,0,7,0,1,,,,,,,,,
297628,2022-11-14_12h29.35.054,vts_reward_expectancy_bt,2022.2.4,MacIntel,59.97361161,Chrome,1280,800,,,,,1,1247,,,,,,,,,,,,,,,,,167,B,hexagon,1,0,,,,,,,,,,,,,,,,repeat,number,numRpt,f,0.532,Lo,,,,,,6,,,,,,,,low,8,0,8,0,1,,,,,,,,,
297628,2022-11-14_12h29.35.054,vts_reward_expectancy_bt,2022.2.4,MacIntel,59.97361161,Chrome,1280,800,,,,,0,1247,,,,,,,,,,,,,,,,,181,U,star,1,0,,,,,,,,,,,,,,,,switch,letter,lettSwt,k,0.647,Hi,,,,,,6,,,,,,,,low,9,0,9,0,1,,,,,,,,,
297628,2022-11-14_12h29.35.054,vts_reward_expectancy_bt,2022.2.4,MacIntel,59.97361161,Chrome,1280,800,,,,,0,1247,,,,,,,,,,,,,,,,,132,S,triangle,1,0,,,,,,,,,,,,,,,,repeat,letter,lettRpt,k,1.7145,Hi,,,,,,6,,,,,,,,low,10,0,10,0,1,,,,,,,,,
