participant,date,expName,psychopyVersion,OS,frameRate,browser,xResolution,yResolution,key_resp.keys,key_resp.rt,training_resp.keys,training_resp.rt,points_trial,points_cumul,trainBlock,training.thisRepN,training.thisTrialN,training.thisN,training.thisIndex,training.ran,LTriangleOpac,LCircleOpac,LHexagonOpac,LStarOpac,RTriangleOpac,RCircleOpac,RHexagonOpac,RStarOpac,LShape_ID,RShape_ID,curr_topStim,curr_bottStim,curr_shape,acc,E1,target_resp_prac1.keys,target_resp_prac1.rt,pracBlock,task1_prac_trials.thisRepN,task1_prac_trials.thisTrialN,task1_prac_trials.thisN,task1_prac_trials.thisIndex,task1_prac_trials.ran,target_resp_prac2.keys,target_resp_prac2.rt,task2_praac_trials.thisRepN,task2_praac_trials.thisTrialN,task2_praac_trials.thisN,task2_praac_trials.thisIndex,task2_praac_trials.ran,alt,task,condition,target_resp.keys,rewCond,vts_practice_trials.thisRepN,vts_practice_trials.thisTrialN,vts_practice_trials.thisN,vts_practice_trials.thisIndex,vts_practice_trials.ran,target_resp.rt,blockNum,trials_norew.thisRepN,trials_norew.thisTrialN,trials_norew.thisN,trials_norew.thisIndex,trials_norew.ran,key_resp_2.keys,key_resp_2.rt,rewExpectancy,trials_rew.thisRepN,trials_rew.thisTrialN,trials_rew.thisN,trials_rew.thisIndex,trials_rew.ran,Q1,Q2,Q2_text,Q3,Q4,Q5,Q5_text,xRes,yRes
297619,2022-11-15_15h08.13.591,vts_reward_expectancy_bt,2022.2.4,Win32,15.00240038,Chrome,1280,720,,,,,,,,,,,,,,,,,,,,,,,,,,,,,,,,,,,,,,,,,,,,,,,,,,,,,,,,,,,,,,,,,,,,,,,,,,,,
297619,2022-11-15_15h08.13.591,vts_reward_expectancy_bt,2022.2.4,Win32,15.00240038,Chrome,1280,720,space,1.4765,,,,,,,,,,,,,,,,,,,,,,,,,,,,,,,,,,,,,,,,,,,,,,,,,,,,,,,,,,,,,,,,,,,,,,,,,,
297619,2022-11-15_15h08.13.591,vts_reward_expectancy_bt,2022.2.4,Win32,15.00240038,Chrome,1280,720,,,,,,,,,,,,,,,,,,,,,,,,,,,,,,,,,,,,,,,,,,,,,,,,,,,,,,,,,,,,,,,,,,,,,,,,,,,,
297619,2022-11-15_15h08.13.591,vts_reward_expectancy_bt,2022.2.4,Win32,15.00240038,Chrome,1280,720,,,a,4.3082,1,1,0,0,0,0,6,1,0,0,1,0,1,0,0,0,hexagon,triangle,,,,,,,,,,,,,,,,,,,,,,,,,,,,,,,,,,,,,,,,,,,,,,,,,,,,,,
297619,2022-11-15_15h08.13.591,vts_reward_expectancy_bt,2022.2.4,Win32,15.00240038,Chrome,1280,720,,,l,0.0846,1,2,0,0,1,1,1,1,1,0,0,0,0,0,1,0,triangle,hexagon,,,,,,,,,,,,,,,,,,,,,,,,,,,,,,,,,,,,,,,,,,,,,,,,,,,,,,
297619,2022-11-15_15h08.13.591,vts_reward_expectancy_bt,2022.2.4,Win32,15.00240038,Chrome,1280,720,,,l,1.0746,1,3,0,0,2,2,5,1,0,1,0,0,0,0,0,1,circle,star,,,,,,,,,,,,,,,,,,,,,,,,,,,,,,,,,,,,,,,,,,,,,,,,,,,,,,
297619,2022-11-15_15h08.13.591,vts_reward_expectancy_bt,2022.2.4,Win32,15.00240038,Chrome,1280,720,,,a,0.6941,10,13,0,0,3,3,11,1,0,0,0,1,0,0,1,0,star,hexagon,,,,,,,,,,,,,,,,,,,,,,,,,,,,,,,,,,,,,,,,,,,,,,,,,,,,,,
297619,2022-11-15_15h08.13.591,vts_reward_expectancy_bt,2022.2.4,Win32,15.00240038,Chrome,1280,720,,,l,0.5369,10,23,0,0,4,4,8,1,0,0,1,0,0,0,0,1,hexagon,star,,,,,,,,,,,,,,,,,,,,,,,,,,,,,,,,,,,,,,,,,,,,,,,,,,,,,,
297619,2022-11-15_15h08.13.591,vts_reward_expectancy_bt,2022.2.4,Win32,15.00240038,Chrome,1280,720,,,l,0.4688,10,33,0,0,5,5,2,1,1,0,0,0,0,0,0,1,triangle,star,,,,,,,,,,,,,,,,,,,,,,,,,,,,,,,,,,,,,,,,,,,,,,,,,,,,,,
297619,2022-11-15_15h08.13.591,vts_reward_expectancy_bt,2022.2.4,Win32,15.00240038,Chrome,1280,720,,,l,0.4688,1,34,0,0,6,6,4,1,0,1,0,0,0,0,1,0,circle,hexagon,,,,,,,,,,,,,,,,,,,,,,,,,,,,,,,,,,,,,,,,,,,,,,,,,,,,,,
297619,2022-11-15_15h08.13.591,vts_reward_expectancy_bt,2022.2.4,Win32,15.00240038,Chrome,1280,720,,,a,0.7701,1,35,0,0,7,7,3,1,0,1,0,0,1,0,0,0,circle,triangle,,,,,,,,,,,,,,,,,,,,,,,,,,,,,,,,,,,,,,,,,,,,,,,,,,,,,,
297619,2022-11-15_15h08.13.591,vts_reward_expectancy_bt,2022.2.4,Win32,15.00240038,Chrome,1280,720,,,a,0.4642,1,36,0,0,8,8,10,1,0,0,0,1,0,1,0,0,star ,circle,,,,,,,,,,,,,,,,,,,,,,,,,,,,,,,,,,,,,,,,,,,,,,,,,,,,,,
297619,2022-11-15_15h08.13.591,vts_reward_expectancy_bt,2022.2.4,Win32,15.00240038,Chrome,1280,720,,,a,0.4633,10,46,0,0,9,9,9,1,0,0,0,1,1,0,0,0,star,triangle,,,,,,,,,,,,,,,,,,,,,,,,,,,,,,,,,,,,,,,,,,,,,,,,,,,,,,
297619,2022-11-15_15h08.13.591,vts_reward_expectancy_bt,2022.2.4,Win32,15.00240038,Chrome,1280,720,,,a,1.0763,1,47,0,0,10,10,7,1,0,0,1,0,0,1,0,0,hexagon,circle,,,,,,,,,,,,,,,,,,,,,,,,,,,,,,,,,,,,,,,,,,,,,,,,,,,,,,
297619,2022-11-15_15h08.13.591,vts_reward_expectancy_bt,2022.2.4,Win32,15.00240038,Chrome,1280,720,,,l,0.457,10,57,0,0,11,11,0,1,1,0,0,0,0,1,0,0,triangle,circle,,,,,,,,,,,,,,,,,,,,,,,,,,,,,,,,,,,,,,,,,,,,,,,,,,,,,,
297619,2022-11-15_15h08.13.591,vts_reward_expectancy_bt,2022.2.4,Win32,15.00240038,Chrome,1280,720,,,l,0.7923,10,67,0,1,0,12,2,1,1,0,0,0,0,0,0,1,triangle,star,,,,,,,,,,,,,,,,,,,,,,,,,,,,,,,,,,,,,,,,,,,,,,,,,,,,,,
297619,2022-11-15_15h08.13.591,vts_reward_expectancy_bt,2022.2.4,Win32,15.00240038,Chrome,1280,720,,,l,0.4616,10,77,0,1,1,13,0,1,1,0,0,0,0,1,0,0,triangle,circle,,,,,,,,,,,,,,,,,,,,,,,,,,,,,,,,,,,,,,,,,,,,,,,,,,,,,,
297619,2022-11-15_15h08.13.591,vts_reward_expectancy_bt,2022.2.4,Win32,15.00240038,Chrome,1280,720,,,l,0.4573,10,87,0,1,2,14,11,1,0,0,0,1,0,0,1,0,star,hexagon,,,,,,,,,,,,,,,,,,,,,,,,,,,,,,,,,,,,,,,,,,,,,,,,,,,,,,
297619,2022-11-15_15h08.13.591,vts_reward_expectancy_bt,2022.2.4,Win32,15.00240038,Chrome,1280,720,,,l,0.2386,10,97,0,1,3,15,8,1,0,0,1,0,0,0,0,1,hexagon,star,,,,,,,,,,,,,,,,,,,,,,,,,,,,,,,,,,,,,,,,,,,,,,,,,,,,,,
297619,2022-11-15_15h08.13.591,vts_reward_expectancy_bt,2022.2.4,Win32,15.00240038,Chrome,1280,720,,,a,0.0075,10,107,0,1,4,16,10,1,0,0,0,1,0,1,0,0,star ,circle,,,,,,,,,,,,,,,,,,,,,,,,,,,,,,,,,,,,,,,,,,,,,,,,,,,,,,
297619,2022-11-15_15h08.13.591,vts_reward_expectancy_bt,2022.2.4,Win32,15.00240038,Chrome,1280,720,,,a,0.008,1,108,0,1,5,17,6,1,0,0,1,0,1,0,0,0,hexagon,triangle,,,,,,,,,,,,,,,,,,,,,,,,,,,,,,,,,,,,,,,,,,,,,,,,,,,,,,
297619,2022-11-15_15h08.13.591,vts_reward_expectancy_bt,2022.2.4,Win32,15.00240038,Chrome,1280,720,,,l,0.3151,1,109,0,1,6,18,9,1,0,0,0,1,1,0,0,0,star,triangle,,,,,,,,,,,,,,,,,,,,,,,,,,,,,,,,,,,,,,,,,,,,,,,,,,,,,,
297619,2022-11-15_15h08.13.591,vts_reward_expectancy_bt,2022.2.4,Win32,15.00240038,Chrome,1280,720,,,l,0.16,10,119,0,1,7,19,4,1,0,1,0,0,0,0,1,0,circle,hexagon,,,,,,,,,,,,,,,,,,,,,,,,,,,,,,,,,,,,,,,,,,,,,,,,,,,,,,
297619,2022-11-15_15h08.13.591,vts_reward_expectancy_bt,2022.2.4,Win32,15.00240038,Chrome,1280,720,,,a,0.5337,1,120,0,1,8,20,3,1,0,1,0,0,1,0,0,0,circle,triangle,,,,,,,,,,,,,,,,,,,,,,,,,,,,,,,,,,,,,,,,,,,,,,,,,,,,,,
297619,2022-11-15_15h08.13.591,vts_reward_expectancy_bt,2022.2.4,Win32,15.00240038,Chrome,1280,720,,,l,0.4602,1,121,0,1,9,21,7,1,0,0,1,0,0,1,0,0,hexagon,circle,,,,,,,,,,,,,,,,,,,,,,,,,,,,,,,,,,,,,,,,,,,,,,,,,,,,,,
297619,2022-11-15_15h08.13.591,vts_reward_expectancy_bt,2022.2.4,Win32,15.00240038,Chrome,1280,720,,,l,2.0485,1,122,0,1,10,22,1,1,1,0,0,0,0,0,1,0,triangle,hexagon,,,,,,,,,,,,,,,,,,,,,,,,,,,,,,,,,,,,,,,,,,,,,,,,,,,,,,
297619,2022-11-15_15h08.13.591,vts_reward_expectancy_bt,2022.2.4,Win32,15.00240038,Chrome,1280,720,,,a,2.5813,10,132,0,1,11,23,5,1,0,1,0,0,0,0,0,1,circle,star,,,,,,,,,,,,,,,,,,,,,,,,,,,,,,,,,,,,,,,,,,,,,,,,,,,,,,
297619,2022-11-15_15h08.13.591,vts_reward_expectancy_bt,2022.2.4,Win32,15.00240038,Chrome,1280,720,,,l,0.8498,10,142,0,2,0,24,9,1,0,0,0,1,1,0,0,0,star,triangle,,,,,,,,,,,,,,,,,,,,,,,,,,,,,,,,,,,,,,,,,,,,,,,,,,,,,,
297619,2022-11-15_15h08.13.591,vts_reward_expectancy_bt,2022.2.4,Win32,15.00240038,Chrome,1280,720,,,l,0.5326,10,152,0,2,1,25,10,1,0,0,0,1,0,1,0,0,star ,circle,,,,,,,,,,,,,,,,,,,,,,,,,,,,,,,,,,,,,,,,,,,,,,,,,,,,,,
297619,2022-11-15_15h08.13.591,vts_reward_expectancy_bt,2022.2.4,Win32,15.00240038,Chrome,1280,720,,,a,0.7679,10,162,0,2,2,26,1,1,1,0,0,0,0,0,1,0,triangle,hexagon,,,,,,,,,,,,,,,,,,,,,,,,,,,,,,,,,,,,,,,,,,,,,,,,,,,,,,
297619,2022-11-15_15h08.13.591,vts_reward_expectancy_bt,2022.2.4,Win32,15.00240038,Chrome,1280,720,,,a,0.7631,1,163,0,2,3,27,6,1,0,0,1,0,1,0,0,0,hexagon,triangle,,,,,,,,,,,,,,,,,,,,,,,,,,,,,,,,,,,,,,,,,,,,,,,,,,,,,,
297619,2022-11-15_15h08.13.591,vts_reward_expectancy_bt,2022.2.4,Win32,15.00240038,Chrome,1280,720,,,a,1.1467,1,164,0,2,4,28,8,1,0,0,1,0,0,0,0,1,hexagon,star,,,,,,,,,,,,,,,,,,,,,,,,,,,,,,,,,,,,,,,,,,,,,,,,,,,,,,
297619,2022-11-15_15h08.13.591,vts_reward_expectancy_bt,2022.2.4,Win32,15.00240038,Chrome,1280,720,,,l,3.0735,10,174,0,2,5,29,2,1,1,0,0,0,0,0,0,1,triangle,star,,,,,,,,,,,,,,,,,,,,,,,,,,,,,,,,,,,,,,,,,,,,,,,,,,,,,,
297619,2022-11-15_15h08.13.591,vts_reward_expectancy_bt,2022.2.4,Win32,15.00240038,Chrome,1280,720,,,l,1.9085,10,184,0,2,6,30,7,1,0,0,1,0,0,1,0,0,hexagon,circle,,,,,,,,,,,,,,,,,,,,,,,,,,,,,,,,,,,,,,,,,,,,,,,,,,,,,,
297619,2022-11-15_15h08.13.591,vts_reward_expectancy_bt,2022.2.4,Win32,15.00240038,Chrome,1280,720,,,l,0.0076,1,185,0,2,7,31,11,1,0,0,0,1,0,0,1,0,star,hexagon,,,,,,,,,,,,,,,,,,,,,,,,,,,,,,,,,,,,,,,,,,,,,,,,,,,,,,
297619,2022-11-15_15h08.13.591,vts_reward_expectancy_bt,2022.2.4,Win32,15.00240038,Chrome,1280,720,,,l,0.1565,1,186,0,2,8,32,0,1,1,0,0,0,0,1,0,0,triangle,circle,,,,,,,,,,,,,,,,,,,,,,,,,,,,,,,,,,,,,,,,,,,,,,,,,,,,,,
297619,2022-11-15_15h08.13.591,vts_reward_expectancy_bt,2022.2.4,Win32,15.00240038,Chrome,1280,720,,,l,0.5394,10,196,0,2,9,33,5,1,0,1,0,0,0,0,0,1,circle,star,,,,,,,,,,,,,,,,,,,,,,,,,,,,,,,,,,,,,,,,,,,,,,,,,,,,,,
297619,2022-11-15_15h08.13.591,vts_reward_expectancy_bt,2022.2.4,Win32,15.00240038,Chrome,1280,720,,,l,0.0077,1,197,0,2,10,34,4,1,0,1,0,0,0,0,1,0,circle,hexagon,,,,,,,,,,,,,,,,,,,,,,,,,,,,,,,,,,,,,,,,,,,,,,,,,,,,,,
297619,2022-11-15_15h08.13.591,vts_reward_expectancy_bt,2022.2.4,Win32,15.00240038,Chrome,1280,720,,,l,0.4641,10,207,0,2,11,35,3,1,0,1,0,0,1,0,0,0,circle,triangle,,,,,,,,,,,,,,,,,,,,,,,,,,,,,,,,,,,,,,,,,,,,,,,,,,,,,,
297619,2022-11-15_15h08.13.591,vts_reward_expectancy_bt,2022.2.4,Win32,15.00240038,Chrome,1280,720,,,l,0.4647,1,208,1,0,0,0,4,1,0,1,0,0,0,0,1,0,circle,hexagon,,,,,,,,,,,,,,,,,,,,,,,,,,,,,,,,,,,,,,,,,,,,,,,,,,,,,,
297619,2022-11-15_15h08.13.591,vts_reward_expectancy_bt,2022.2.4,Win32,15.00240038,Chrome,1280,720,,,l,0.0082,10,218,1,0,1,1,2,1,1,0,0,0,0,0,0,1,triangle,star,,,,,,,,,,,,,,,,,,,,,,,,,,,,,,,,,,,,,,,,,,,,,,,,,,,,,,
297619,2022-11-15_15h08.13.591,vts_reward_expectancy_bt,2022.2.4,Win32,15.00240038,Chrome,1280,720,,,l,0.0823,10,228,1,0,2,2,6,1,0,0,1,0,1,0,0,0,hexagon,triangle,,,,,,,,,,,,,,,,,,,,,,,,,,,,,,,,,,,,,,,,,,,,,,,,,,,,,,
297619,2022-11-15_15h08.13.591,vts_reward_expectancy_bt,2022.2.4,Win32,15.00240038,Chrome,1280,720,,,a,0.081,1,229,1,0,3,3,5,1,0,1,0,0,0,0,0,1,circle,star,,,,,,,,,,,,,,,,,,,,,,,,,,,,,,,,,,,,,,,,,,,,,,,,,,,,,,
297619,2022-11-15_15h08.13.591,vts_reward_expectancy_bt,2022.2.4,Win32,15.00240038,Chrome,1280,720,,,a,0.0827,1,230,1,0,4,4,8,1,0,0,1,0,0,0,0,1,hexagon,star,,,,,,,,,,,,,,,,,,,,,,,,,,,,,,,,,,,,,,,,,,,,,,,,,,,,,,
297619,2022-11-15_15h08.13.591,vts_reward_expectancy_bt,2022.2.4,Win32,15.00240038,Chrome,1280,720,,,l,0.0074,10,240,1,0,5,5,11,1,0,0,0,1,0,0,1,0,star,hexagon,,,,,,,,,,,,,,,,,,,,,,,,,,,,,,,,,,,,,,,,,,,,,,,,,,,,,,
297619,2022-11-15_15h08.13.591,vts_reward_expectancy_bt,2022.2.4,Win32,15.00240038,Chrome,1280,720,,,l,0.1577,1,241,1,0,6,6,3,1,0,1,0,0,1,0,0,0,circle,triangle,,,,,,,,,,,,,,,,,,,,,,,,,,,,,,,,,,,,,,,,,,,,,,,,,,,,,,
297619,2022-11-15_15h08.13.591,vts_reward_expectancy_bt,2022.2.4,Win32,15.00240038,Chrome,1280,720,,,l,0.2321,10,251,1,0,7,7,10,1,0,0,0,1,0,1,0,0,star ,circle,,,,,,,,,,,,,,,,,,,,,,,,,,,,,,,,,,,,,,,,,,,,,,,,,,,,,,
297619,2022-11-15_15h08.13.591,vts_reward_expectancy_bt,2022.2.4,Win32,15.00240038,Chrome,1280,720,,,a,0.0832,10,261,1,0,8,8,9,1,0,0,0,1,1,0,0,0,star,triangle,,,,,,,,,,,,,,,,,,,,,,,,,,,,,,,,,,,,,,,,,,,,,,,,,,,,,,
297619,2022-11-15_15h08.13.591,vts_reward_expectancy_bt,2022.2.4,Win32,15.00240038,Chrome,1280,720,,,l,0.0829,1,262,1,0,9,9,1,1,1,0,0,0,0,0,1,0,triangle,hexagon,,,,,,,,,,,,,,,,,,,,,,,,,,,,,,,,,,,,,,,,,,,,,,,,,,,,,,
297619,2022-11-15_15h08.13.591,vts_reward_expectancy_bt,2022.2.4,Win32,15.00240038,Chrome,1280,720,,,l,0.1598,10,272,1,0,10,10,0,1,1,0,0,0,0,1,0,0,triangle,circle,,,,,,,,,,,,,,,,,,,,,,,,,,,,,,,,,,,,,,,,,,,,,,,,,,,,,,
297619,2022-11-15_15h08.13.591,vts_reward_expectancy_bt,2022.2.4,Win32,15.00240038,Chrome,1280,720,,,l,0.1591,1,273,1,0,11,11,7,1,0,0,1,0,0,1,0,0,hexagon,circle,,,,,,,,,,,,,,,,,,,,,,,,,,,,,,,,,,,,,,,,,,,,,,,,,,,,,,
297619,2022-11-15_15h08.13.591,vts_reward_expectancy_bt,2022.2.4,Win32,15.00240038,Chrome,1280,720,,,a,0.0074,1,274,1,1,0,12,4,1,0,1,0,0,0,0,1,0,circle,hexagon,,,,,,,,,,,,,,,,,,,,,,,,,,,,,,,,,,,,,,,,,,,,,,,,,,,,,,
297619,2022-11-15_15h08.13.591,vts_reward_expectancy_bt,2022.2.4,Win32,15.00240038,Chrome,1280,720,,,a,0.4665,10,284,1,1,1,13,7,1,0,0,1,0,0,1,0,0,hexagon,circle,,,,,,,,,,,,,,,,,,,,,,,,,,,,,,,,,,,,,,,,,,,,,,,,,,,,,,
297619,2022-11-15_15h08.13.591,vts_reward_expectancy_bt,2022.2.4,Win32,15.00240038,Chrome,1280,720,,,l,0.6088,10,294,1,1,2,14,5,1,0,1,0,0,0,0,0,1,circle,star,,,,,,,,,,,,,,,,,,,,,,,,,,,,,,,,,,,,,,,,,,,,,,,,,,,,,,
297619,2022-11-15_15h08.13.591,vts_reward_expectancy_bt,2022.2.4,Win32,15.00240038,Chrome,1280,720,,,l,0.4596,10,304,1,1,3,15,9,1,0,0,0,1,1,0,0,0,star,triangle,,,,,,,,,,,,,,,,,,,,,,,,,,,,,,,,,,,,,,,,,,,,,,,,,,,,,,
297619,2022-11-15_15h08.13.591,vts_reward_expectancy_bt,2022.2.4,Win32,15.00240038,Chrome,1280,720,,,l,0.618,1,305,1,1,4,16,0,1,1,0,0,0,0,1,0,0,triangle,circle,,,,,,,,,,,,,,,,,,,,,,,,,,,,,,,,,,,,,,,,,,,,,,,,,,,,,,
297619,2022-11-15_15h08.13.591,vts_reward_expectancy_bt,2022.2.4,Win32,15.00240038,Chrome,1280,720,,,a,0.9971,1,306,1,1,5,17,8,1,0,0,1,0,0,0,0,1,hexagon,star,,,,,,,,,,,,,,,,,,,,,,,,,,,,,,,,,,,,,,,,,,,,,,,,,,,,,,
297619,2022-11-15_15h08.13.591,vts_reward_expectancy_bt,2022.2.4,Win32,15.00240038,Chrome,1280,720,,,a,0.0817,1,307,1,1,6,18,10,1,0,0,0,1,0,1,0,0,star ,circle,,,,,,,,,,,,,,,,,,,,,,,,,,,,,,,,,,,,,,,,,,,,,,,,,,,,,,
297619,2022-11-15_15h08.13.591,vts_reward_expectancy_bt,2022.2.4,Win32,15.00240038,Chrome,1280,720,,,a,2.0504,10,317,1,1,7,19,1,1,1,0,0,0,0,0,1,0,triangle,hexagon,,,,,,,,,,,,,,,,,,,,,,,,,,,,,,,,,,,,,,,,,,,,,,,,,,,,,,
297619,2022-11-15_15h08.13.591,vts_reward_expectancy_bt,2022.2.4,Win32,15.00240038,Chrome,1280,720,,,a,0.0823,1,318,1,1,8,20,11,1,0,0,0,1,0,0,1,0,star,hexagon,,,,,,,,,,,,,,,,,,,,,,,,,,,,,,,,,,,,,,,,,,,,,,,,,,,,,,
297619,2022-11-15_15h08.13.591,vts_reward_expectancy_bt,2022.2.4,Win32,15.00240038,Chrome,1280,720,,,a,0.9947,10,328,1,1,9,21,2,1,1,0,0,0,0,0,0,1,triangle,star,,,,,,,,,,,,,,,,,,,,,,,,,,,,,,,,,,,,,,,,,,,,,,,,,,,,,,
297619,2022-11-15_15h08.13.591,vts_reward_expectancy_bt,2022.2.4,Win32,15.00240038,Chrome,1280,720,,,a,0.3807,1,329,1,1,10,22,6,1,0,0,1,0,1,0,0,0,hexagon,triangle,,,,,,,,,,,,,,,,,,,,,,,,,,,,,,,,,,,,,,,,,,,,,,,,,,,,,,
297619,2022-11-15_15h08.13.591,vts_reward_expectancy_bt,2022.2.4,Win32,15.00240038,Chrome,1280,720,,,l,0.3152,10,339,1,1,11,23,3,1,0,1,0,0,1,0,0,0,circle,triangle,,,,,,,,,,,,,,,,,,,,,,,,,,,,,,,,,,,,,,,,,,,,,,,,,,,,,,
297619,2022-11-15_15h08.13.591,vts_reward_expectancy_bt,2022.2.4,Win32,15.00240038,Chrome,1280,720,,,a,0.1579,10,349,1,2,0,24,7,1,0,0,1,0,0,1,0,0,hexagon,circle,,,,,,,,,,,,,,,,,,,,,,,,,,,,,,,,,,,,,,,,,,,,,,,,,,,,,,
297619,2022-11-15_15h08.13.591,vts_reward_expectancy_bt,2022.2.4,Win32,15.00240038,Chrome,1280,720,,,l,0.163,10,359,1,2,1,25,8,1,0,0,1,0,0,0,0,1,hexagon,star,,,,,,,,,,,,,,,,,,,,,,,,,,,,,,,,,,,,,,,,,,,,,,,,,,,,,,
297619,2022-11-15_15h08.13.591,vts_reward_expectancy_bt,2022.2.4,Win32,15.00240038,Chrome,1280,720,,,a,0.2347,10,369,1,2,2,26,9,1,0,0,0,1,1,0,0,0,star,triangle,,,,,,,,,,,,,,,,,,,,,,,,,,,,,,,,,,,,,,,,,,,,,,,,,,,,,,
297619,2022-11-15_15h08.13.591,vts_reward_expectancy_bt,2022.2.4,Win32,15.00240038,Chrome,1280,720,,,l,0.1688,1,370,1,2,3,27,4,1,0,1,0,0,0,0,1,0,circle,hexagon,,,,,,,,,,,,,,,,,,,,,,,,,,,,,,,,,,,,,,,,,,,,,,,,,,,,,,
297619,2022-11-15_15h08.13.591,vts_reward_expectancy_bt,2022.2.4,Win32,15.00240038,Chrome,1280,720,,,l,0.1594,10,380,1,2,4,28,6,1,0,0,1,0,1,0,0,0,hexagon,triangle,,,,,,,,,,,,,,,,,,,,,,,,,,,,,,,,,,,,,,,,,,,,,,,,,,,,,,
297619,2022-11-15_15h08.13.591,vts_reward_expectancy_bt,2022.2.4,Win32,15.00240038,Chrome,1280,720,,,a,0.1618,1,381,1,2,5,29,11,1,0,0,0,1,0,0,1,0,star,hexagon,,,,,,,,,,,,,,,,,,,,,,,,,,,,,,,,,,,,,,,,,,,,,,,,,,,,,,
297619,2022-11-15_15h08.13.591,vts_reward_expectancy_bt,2022.2.4,Win32,15.00240038,Chrome,1280,720,,,a,0.0077,1,382,1,2,6,30,10,1,0,0,0,1,0,1,0,0,star ,circle,,,,,,,,,,,,,,,,,,,,,,,,,,,,,,,,,,,,,,,,,,,,,,,,,,,,,,
297619,2022-11-15_15h08.13.591,vts_reward_expectancy_bt,2022.2.4,Win32,15.00240038,Chrome,1280,720,,,a,0.0076,1,383,1,2,7,31,3,1,0,1,0,0,1,0,0,0,circle,triangle,,,,,,,,,,,,,,,,,,,,,,,,,,,,,,,,,,,,,,,,,,,,,,,,,,,,,,
297619,2022-11-15_15h08.13.591,vts_reward_expectancy_bt,2022.2.4,Win32,15.00240038,Chrome,1280,720,,,l,0.6775,1,384,1,2,8,32,1,1,1,0,0,0,0,0,1,0,triangle,hexagon,,,,,,,,,,,,,,,,,,,,,,,,,,,,,,,,,,,,,,,,,,,,,,,,,,,,,,
297619,2022-11-15_15h08.13.591,vts_reward_expectancy_bt,2022.2.4,Win32,15.00240038,Chrome,1280,720,,,l,0.1608,1,385,1,2,9,33,0,1,1,0,0,0,0,1,0,0,triangle,circle,,,,,,,,,,,,,,,,,,,,,,,,,,,,,,,,,,,,,,,,,,,,,,,,,,,,,,
297619,2022-11-15_15h08.13.591,vts_reward_expectancy_bt,2022.2.4,Win32,15.00240038,Chrome,1280,720,,,a,0.1654,1,386,1,2,10,34,2,1,1,0,0,0,0,0,0,1,triangle,star,,,,,,,,,,,,,,,,,,,,,,,,,,,,,,,,,,,,,,,,,,,,,,,,,,,,,,
297619,2022-11-15_15h08.13.591,vts_reward_expectancy_bt,2022.2.4,Win32,15.00240038,Chrome,1280,720,,,l,0.0857,10,396,1,2,11,35,5,1,0,1,0,0,0,0,0,1,circle,star,,,,,,,,,,,,,,,,,,,,,,,,,,,,,,,,,,,,,,,,,,,,,,,,,,,,,,
297619,2022-11-15_15h08.13.591,vts_reward_expectancy_bt,2022.2.4,Win32,15.00240038,Chrome,1280,720,,,a,1.1464,1,397,2,0,0,0,8,1,0,0,1,0,0,0,0,1,hexagon,star,,,,,,,,,,,,,,,,,,,,,,,,,,,,,,,,,,,,,,,,,,,,,,,,,,,,,,
297619,2022-11-15_15h08.13.591,vts_reward_expectancy_bt,2022.2.4,Win32,15.00240038,Chrome,1280,720,,,l,0.0072,1,398,2,0,1,1,10,1,0,0,0,1,0,1,0,0,star ,circle,,,,,,,,,,,,,,,,,,,,,,,,,,,,,,,,,,,,,,,,,,,,,,,,,,,,,,
297619,2022-11-15_15h08.13.591,vts_reward_expectancy_bt,2022.2.4,Win32,15.00240038,Chrome,1280,720,,,a,0.0074,1,399,2,0,2,2,4,1,0,1,0,0,0,0,1,0,circle,hexagon,,,,,,,,,,,,,,,,,,,,,,,,,,,,,,,,,,,,,,,,,,,,,,,,,,,,,,
297619,2022-11-15_15h08.13.591,vts_reward_expectancy_bt,2022.2.4,Win32,15.00240038,Chrome,1280,720,,,l,0.4559,10,409,2,0,3,3,9,1,0,0,0,1,1,0,0,0,star,triangle,,,,,,,,,,,,,,,,,,,,,,,,,,,,,,,,,,,,,,,,,,,,,,,,,,,,,,
297619,2022-11-15_15h08.13.591,vts_reward_expectancy_bt,2022.2.4,Win32,15.00240038,Chrome,1280,720,,,a,0.8433,10,419,2,0,4,4,3,1,0,1,0,0,1,0,0,0,circle,triangle,,,,,,,,,,,,,,,,,,,,,,,,,,,,,,,,,,,,,,,,,,,,,,,,,,,,,,
297619,2022-11-15_15h08.13.591,vts_reward_expectancy_bt,2022.2.4,Win32,15.00240038,Chrome,1280,720,,,l,0.3173,1,420,2,0,5,5,1,1,1,0,0,0,0,0,1,0,triangle,hexagon,,,,,,,,,,,,,,,,,,,,,,,,,,,,,,,,,,,,,,,,,,,,,,,,,,,,,,
297619,2022-11-15_15h08.13.591,vts_reward_expectancy_bt,2022.2.4,Win32,15.00240038,Chrome,1280,720,,,a,0.759,1,421,2,0,6,6,5,1,0,1,0,0,0,0,0,1,circle,star,,,,,,,,,,,,,,,,,,,,,,,,,,,,,,,,,,,,,,,,,,,,,,,,,,,,,,
297619,2022-11-15_15h08.13.591,vts_reward_expectancy_bt,2022.2.4,Win32,15.00240038,Chrome,1280,720,,,l,1.2201,1,422,2,0,7,7,0,1,1,0,0,0,0,1,0,0,triangle,circle,,,,,,,,,,,,,,,,,,,,,,,,,,,,,,,,,,,,,,,,,,,,,,,,,,,,,,
297619,2022-11-15_15h08.13.591,vts_reward_expectancy_bt,2022.2.4,Win32,15.00240038,Chrome,1280,720,,,a,0.2355,10,432,2,0,8,8,11,1,0,0,0,1,0,0,1,0,star,hexagon,,,,,,,,,,,,,,,,,,,,,,,,,,,,,,,,,,,,,,,,,,,,,,,,,,,,,,
297619,2022-11-15_15h08.13.591,vts_reward_expectancy_bt,2022.2.4,Win32,15.00240038,Chrome,1280,720,,,l,0.1581,1,433,2,0,9,9,7,1,0,0,1,0,0,1,0,0,hexagon,circle,,,,,,,,,,,,,,,,,,,,,,,,,,,,,,,,,,,,,,,,,,,,,,,,,,,,,,
297619,2022-11-15_15h08.13.591,vts_reward_expectancy_bt,2022.2.4,Win32,15.00240038,Chrome,1280,720,,,l,0.3067,10,443,2,0,10,10,2,1,1,0,0,0,0,0,0,1,triangle,star,,,,,,,,,,,,,,,,,,,,,,,,,,,,,,,,,,,,,,,,,,,,,,,,,,,,,,
297619,2022-11-15_15h08.13.591,vts_reward_expectancy_bt,2022.2.4,Win32,15.00240038,Chrome,1280,720,,,a,0.3827,1,444,2,0,11,11,6,1,0,0,1,0,1,0,0,0,hexagon,triangle,,,,,,,,,,,,,,,,,,,,,,,,,,,,,,,,,,,,,,,,,,,,,,,,,,,,,,
297619,2022-11-15_15h08.13.591,vts_reward_expectancy_bt,2022.2.4,Win32,15.00240038,Chrome,1280,720,,,l,0.4642,1,445,2,1,0,12,4,1,0,1,0,0,0,0,1,0,circle,hexagon,,,,,,,,,,,,,,,,,,,,,,,,,,,,,,,,,,,,,,,,,,,,,,,,,,,,,,
297619,2022-11-15_15h08.13.591,vts_reward_expectancy_bt,2022.2.4,Win32,15.00240038,Chrome,1280,720,,,l,0.9084,10,455,2,1,1,13,3,1,0,1,0,0,1,0,0,0,circle,triangle,,,,,,,,,,,,,,,,,,,,,,,,,,,,,,,,,,,,,,,,,,,,,,,,,,,,,,
297619,2022-11-15_15h08.13.591,vts_reward_expectancy_bt,2022.2.4,Win32,15.00240038,Chrome,1280,720,,,a,0.7661,10,465,2,1,2,14,1,1,1,0,0,0,0,0,1,0,triangle,hexagon,,,,,,,,,,,,,,,,,,,,,,,,,,,,,,,,,,,,,,,,,,,,,,,,,,,,,,
297619,2022-11-15_15h08.13.591,vts_reward_expectancy_bt,2022.2.4,Win32,15.00240038,Chrome,1280,720,,,l,0.3105,10,475,2,1,3,15,0,1,1,0,0,0,0,1,0,0,triangle,circle,,,,,,,,,,,,,,,,,,,,,,,,,,,,,,,,,,,,,,,,,,,,,,,,,,,,,,
297619,2022-11-15_15h08.13.591,vts_reward_expectancy_bt,2022.2.4,Win32,15.00240038,Chrome,1280,720,,,a,0.5372,1,476,2,1,4,16,6,1,0,0,1,0,1,0,0,0,hexagon,triangle,,,,,,,,,,,,,,,,,,,,,,,,,,,,,,,,,,,,,,,,,,,,,,,,,,,,,,
297619,2022-11-15_15h08.13.591,vts_reward_expectancy_bt,2022.2.4,Win32,15.00240038,Chrome,1280,720,,,l,0.5317,10,486,2,1,5,17,2,1,1,0,0,0,0,0,0,1,triangle,star,,,,,,,,,,,,,,,,,,,,,,,,,,,,,,,,,,,,,,,,,,,,,,,,,,,,,,
297619,2022-11-15_15h08.13.591,vts_reward_expectancy_bt,2022.2.4,Win32,15.00240038,Chrome,1280,720,,,a,0.3069,10,496,2,1,6,18,9,1,0,0,0,1,1,0,0,0,star,triangle,,,,,,,,,,,,,,,,,,,,,,,,,,,,,,,,,,,,,,,,,,,,,,,,,,,,,,
297619,2022-11-15_15h08.13.591,vts_reward_expectancy_bt,2022.2.4,Win32,15.00240038,Chrome,1280,720,,,l,0.4659,1,497,2,1,7,19,7,1,0,0,1,0,0,1,0,0,hexagon,circle,,,,,,,,,,,,,,,,,,,,,,,,,,,,,,,,,,,,,,,,,,,,,,,,,,,,,,
297619,2022-11-15_15h08.13.591,vts_reward_expectancy_bt,2022.2.4,Win32,15.00240038,Chrome,1280,720,,,a,0.391,1,498,2,1,8,20,5,1,0,1,0,0,0,0,0,1,circle,star,,,,,,,,,,,,,,,,,,,,,,,,,,,,,,,,,,,,,,,,,,,,,,,,,,,,,,
297619,2022-11-15_15h08.13.591,vts_reward_expectancy_bt,2022.2.4,Win32,15.00240038,Chrome,1280,720,,,l,1.3692,10,508,2,1,9,21,10,1,0,0,0,1,0,1,0,0,star ,circle,,,,,,,,,,,,,,,,,,,,,,,,,,,,,,,,,,,,,,,,,,,,,,,,,,,,,,
297619,2022-11-15_15h08.13.591,vts_reward_expectancy_bt,2022.2.4,Win32,15.00240038,Chrome,1280,720,,,a,0.3911,1,509,2,1,10,22,8,1,0,0,1,0,0,0,0,1,hexagon,star,,,,,,,,,,,,,,,,,,,,,,,,,,,,,,,,,,,,,,,,,,,,,,,,,,,,,,
297619,2022-11-15_15h08.13.591,vts_reward_expectancy_bt,2022.2.4,Win32,15.00240038,Chrome,1280,720,,,l,2.6454,1,510,2,1,11,23,11,1,0,0,0,1,0,0,1,0,star,hexagon,,,,,,,,,,,,,,,,,,,,,,,,,,,,,,,,,,,,,,,,,,,,,,,,,,,,,,
297619,2022-11-15_15h08.13.591,vts_reward_expectancy_bt,2022.2.4,Win32,15.00240038,Chrome,1280,720,,,a,1.7532,10,520,2,2,0,24,11,1,0,0,0,1,0,0,1,0,star,hexagon,,,,,,,,,,,,,,,,,,,,,,,,,,,,,,,,,,,,,,,,,,,,,,,,,,,,,,
297619,2022-11-15_15h08.13.591,vts_reward_expectancy_bt,2022.2.4,Win32,15.00240038,Chrome,1280,720,,,l,0.8344,1,521,2,2,1,25,4,1,0,1,0,0,0,0,1,0,circle,hexagon,,,,,,,,,,,,,,,,,,,,,,,,,,,,,,,,,,,,,,,,,,,,,,,,,,,,,,
297619,2022-11-15_15h08.13.591,vts_reward_expectancy_bt,2022.2.4,Win32,15.00240038,Chrome,1280,720,,,a,0.3853,1,522,2,2,2,26,5,1,0,1,0,0,0,0,0,1,circle,star,,,,,,,,,,,,,,,,,,,,,,,,,,,,,,,,,,,,,,,,,,,,,,,,,,,,,,
297619,2022-11-15_15h08.13.591,vts_reward_expectancy_bt,2022.2.4,Win32,15.00240038,Chrome,1280,720,,,a,0.3875,10,532,2,2,3,27,9,1,0,0,0,1,1,0,0,0,star,triangle,,,,,,,,,,,,,,,,,,,,,,,,,,,,,,,,,,,,,,,,,,,,,,,,,,,,,,
297619,2022-11-15_15h08.13.591,vts_reward_expectancy_bt,2022.2.4,Win32,15.00240038,Chrome,1280,720,,,l,2.5145,1,533,2,2,4,28,8,1,0,0,1,0,0,0,0,1,hexagon,star,,,,,,,,,,,,,,,,,,,,,,,,,,,,,,,,,,,,,,,,,,,,,,,,,,,,,,
297619,2022-11-15_15h08.13.591,vts_reward_expectancy_bt,2022.2.4,Win32,15.00240038,Chrome,1280,720,,,a,0.609,10,543,2,2,5,29,3,1,0,1,0,0,1,0,0,0,circle,triangle,,,,,,,,,,,,,,,,,,,,,,,,,,,,,,,,,,,,,,,,,,,,,,,,,,,,,,
297619,2022-11-15_15h08.13.591,vts_reward_expectancy_bt,2022.2.4,Win32,15.00240038,Chrome,1280,720,,,l,2.8925,1,544,2,2,6,30,0,1,1,0,0,0,0,1,0,0,triangle,circle,,,,,,,,,,,,,,,,,,,,,,,,,,,,,,,,,,,,,,,,,,,,,,,,,,,,,,
297619,2022-11-15_15h08.13.591,vts_reward_expectancy_bt,2022.2.4,Win32,15.00240038,Chrome,1280,720,,,l,0.3106,10,554,2,2,7,31,6,1,0,0,1,0,1,0,0,0,hexagon,triangle,,,,,,,,,,,,,,,,,,,,,,,,,,,,,,,,,,,,,,,,,,,,,,,,,,,,,,
297619,2022-11-15_15h08.13.591,vts_reward_expectancy_bt,2022.2.4,Win32,15.00240038,Chrome,1280,720,,,l,0.7568,1,555,2,2,8,32,1,1,1,0,0,0,0,0,1,0,triangle,hexagon,,,,,,,,,,,,,,,,,,,,,,,,,,,,,,,,,,,,,,,,,,,,,,,,,,,,,,
297619,2022-11-15_15h08.13.591,vts_reward_expectancy_bt,2022.2.4,Win32,15.00240038,Chrome,1280,720,,,a,0.6983,10,565,2,2,9,33,7,1,0,0,1,0,0,1,0,0,hexagon,circle,,,,,,,,,,,,,,,,,,,,,,,,,,,,,,,,,,,,,,,,,,,,,,,,,,,,,,
297619,2022-11-15_15h08.13.591,vts_reward_expectancy_bt,2022.2.4,Win32,15.00240038,Chrome,1280,720,,,l,0.5382,10,575,2,2,10,34,2,1,1,0,0,0,0,0,0,1,triangle,star,,,,,,,,,,,,,,,,,,,,,,,,,,,,,,,,,,,,,,,,,,,,,,,,,,,,,,
297619,2022-11-15_15h08.13.591,vts_reward_expectancy_bt,2022.2.4,Win32,15.00240038,Chrome,1280,720,,,a,0.532,10,585,2,2,11,35,10,1,0,0,0,1,0,1,0,0,star ,circle,,,,,,,,,,,,,,,,,,,,,,,,,,,,,,,,,,,,,,,,,,,,,,,,,,,,,,
297619,2022-11-15_15h08.13.591,vts_reward_expectancy_bt,2022.2.4,Win32,15.00240038,Chrome,1280,720,,,,,,,,,,,,,,,,,,,,,,,181,D,star,0,0,d,1.4454,0,0,0,0,0,1,,,,,,,,,,,,,,,,,,,,,,,,,,,,,,,,,,,,,,,,,
297619,2022-11-15_15h08.13.591,vts_reward_expectancy_bt,2022.2.4,Win32,15.00240038,Chrome,1280,720,,,,,,,,,,,,,,,,,,,,,,,174,F,triangle,0,1,d,1.0721,0,1,0,1,0,1,,,,,,,,,,,,,,,,,,,,,,,,,,,,,,,,,,,,,,,,,
297619,2022-11-15_15h08.13.591,vts_reward_expectancy_bt,2022.2.4,Win32,15.00240038,Chrome,1280,720,,,,,,,,,,,,,,,,,,,,,,,167,S,hexagon,1,1,f,0.0817,0,2,0,2,0,1,,,,,,,,,,,,,,,,,,,,,,,,,,,,,,,,,,,,,,,,,
297619,2022-11-15_15h08.13.591,vts_reward_expectancy_bt,2022.2.4,Win32,15.00240038,Chrome,1280,720,,,,,,,,,,,,,,,,,,,,,,,146,H,circle,1,0,d,0.8332,0,3,0,3,0,1,,,,,,,,,,,,,,,,,,,,,,,,,,,,,,,,,,,,,,,,,
297619,2022-11-15_15h08.13.591,vts_reward_expectancy_bt,2022.2.4,Win32,15.00240038,Chrome,1280,720,,,,,,,,,,,,,,,,,,,,,,,132,W,star,1,0,d,0.773,0,4,0,4,0,1,,,,,,,,,,,,,,,,,,,,,,,,,,,,,,,,,,,,,,,,,
297619,2022-11-15_15h08.13.591,vts_reward_expectancy_bt,2022.2.4,Win32,15.00240038,Chrome,1280,720,,,,,,,,,,,,,,,,,,,,,,,125,B,triangle,1,0,d,0.924,0,5,0,5,0,1,,,,,,,,,,,,,,,,,,,,,,,,,,,,,,,,,,,,,,,,,
297619,2022-11-15_15h08.13.591,vts_reward_expectancy_bt,2022.2.4,Win32,15.00240038,Chrome,1280,720,,,,,,,,,,,,,,,,,,,,,,,160,U,hexagon,1,0,f,0.6881,0,6,0,6,0,1,,,,,,,,,,,,,,,,,,,,,,,,,,,,,,,,,,,,,,,,,
297619,2022-11-15_15h08.13.591,vts_reward_expectancy_bt,2022.2.4,Win32,15.00240038,Chrome,1280,720,,,,,,,,,,,,,,,,,,,,,,,139,Y,circle,1,0,d,1.0656,0,7,0,7,0,1,,,,,,,,,,,,,,,,,,,,,,,,,,,,,,,,,,,,,,,,,
297619,2022-11-15_15h08.13.591,vts_reward_expectancy_bt,2022.2.4,Win32,15.00240038,Chrome,1280,720,,,,,,,,,,,,,,,,,,,,,,,181,D,circle,1,0,f,1.1476,0,8,0,8,0,1,,,,,,,,,,,,,,,,,,,,,,,,,,,,,,,,,,,,,,,,,
297619,2022-11-15_15h08.13.591,vts_reward_expectancy_bt,2022.2.4,Win32,15.00240038,Chrome,1280,720,,,,,,,,,,,,,,,,,,,,,,,174,F,triangle,1,0,f,0.9179,0,9,0,9,0,1,,,,,,,,,,,,,,,,,,,,,,,,,,,,,,,,,,,,,,,,,
297619,2022-11-15_15h08.13.591,vts_reward_expectancy_bt,2022.2.4,Win32,15.00240038,Chrome,1280,720,,,,,,,,,,,,,,,,,,,,,,,160,F,triangle,1,0,f,0.6161,1,0,0,0,0,1,,,,,,,,,,,,,,,,,,,,,,,,,,,,,,,,,,,,,,,,,
297619,2022-11-15_15h08.13.591,vts_reward_expectancy_bt,2022.2.4,Win32,15.00240038,Chrome,1280,720,,,,,,,,,,,,,,,,,,,,,,,167,H,star,1,0,f,0.9093,1,1,0,1,0,1,,,,,,,,,,,,,,,,,,,,,,,,,,,,,,,,,,,,,,,,,
297619,2022-11-15_15h08.13.591,vts_reward_expectancy_bt,2022.2.4,Win32,15.00240038,Chrome,1280,720,,,,,,,,,,,,,,,,,,,,,,,181,B,hexagon,0,0,,,1,2,0,2,0,1,,,,,,,,,,,,,,,,,,,,,,,,,,,,,,,,,,,,,,,,,
297619,2022-11-15_15h08.13.591,vts_reward_expectancy_bt,2022.2.4,Win32,15.00240038,Chrome,1280,720,,,,,,,,,,,,,,,,,,,,,,,132,U,circle,1,1,d,0.683,1,3,0,3,0,1,,,,,,,,,,,,,,,,,,,,,,,,,,,,,,,,,,,,,,,,,
297619,2022-11-15_15h08.13.591,vts_reward_expectancy_bt,2022.2.4,Win32,15.00240038,Chrome,1280,720,,,,,,,,,,,,,,,,,,,,,,,139,Y,triangle,1,0,d,0.999,1,4,0,4,0,1,,,,,,,,,,,,,,,,,,,,,,,,,,,,,,,,,,,,,,,,,
297619,2022-11-15_15h08.13.591,vts_reward_expectancy_bt,2022.2.4,Win32,15.00240038,Chrome,1280,720,,,,,,,,,,,,,,,,,,,,,,,146,D,star,1,0,d,1.7424,1,5,0,5,0,1,,,,,,,,,,,,,,,,,,,,,,,,,,,,,,,,,,,,,,,,,
297619,2022-11-15_15h08.13.591,vts_reward_expectancy_bt,2022.2.4,Win32,15.00240038,Chrome,1280,720,,,,,,,,,,,,,,,,,,,,,,,125,W,hexagon,1,0,d,1.3571,1,6,0,6,0,1,,,,,,,,,,,,,,,,,,,,,,,,,,,,,,,,,,,,,,,,,
297619,2022-11-15_15h08.13.591,vts_reward_expectancy_bt,2022.2.4,Win32,15.00240038,Chrome,1280,720,,,,,,,,,,,,,,,,,,,,,,,174,S,circle,1,0,f,0.8502,1,7,0,7,0,1,,,,,,,,,,,,,,,,,,,,,,,,,,,,,,,,,,,,,,,,,
297619,2022-11-15_15h08.13.591,vts_reward_expectancy_bt,2022.2.4,Win32,15.00240038,Chrome,1280,720,,,,,,,,,,,,,,,,,,,,,,,160,F,triangle,1,0,f,1.2029,1,8,0,8,0,1,,,,,,,,,,,,,,,,,,,,,,,,,,,,,,,,,,,,,,,,,
297619,2022-11-15_15h08.13.591,vts_reward_expectancy_bt,2022.2.4,Win32,15.00240038,Chrome,1280,720,,,,,,,,,,,,,,,,,,,,,,,167,H,star,1,0,f,0.8382,1,9,0,9,0,1,,,,,,,,,,,,,,,,,,,,,,,,,,,,,,,,,,,,,,,,,
297619,2022-11-15_15h08.13.591,vts_reward_expectancy_bt,2022.2.4,Win32,15.00240038,Chrome,1280,720,,,,,,,,,,,,,,,,,,,,,,,160,H,triangle,0,0,,,2,,,,,,k,1.2873,0,0,0,0,1,,,,,,,,,,,,,,,,,,,,,,,,,,,,,,,,,,
297619,2022-11-15_15h08.13.591,vts_reward_expectancy_bt,2022.2.4,Win32,15.00240038,Chrome,1280,720,,,,,,,,,,,,,,,,,,,,,,,181,D,star,1,1,,,2,,,,,,j,0.0841,1,0,1,0,1,,,,,,,,,,,,,,,,,,,,,,,,,,,,,,,,,,
297619,2022-11-15_15h08.13.591,vts_reward_expectancy_bt,2022.2.4,Win32,15.00240038,Chrome,1280,720,,,,,,,,,,,,,,,,,,,,,,,132,W,hexagon,0,0,,,2,,,,,,,,2,0,2,0,1,,,,,,,,,,,,,,,,,,,,,,,,,,,,,,,,,,
297619,2022-11-15_15h08.13.591,vts_reward_expectancy_bt,2022.2.4,Win32,15.00240038,Chrome,1280,720,,,,,,,,,,,,,,,,,,,,,,,167,Y,circle,0,1,,,2,,,,,,j,1.6733,3,0,3,0,1,,,,,,,,,,,,,,,,,,,,,,,,,,,,,,,,,,
297619,2022-11-15_15h08.13.591,vts_reward_expectancy_bt,2022.2.4,Win32,15.00240038,Chrome,1280,720,,,,,,,,,,,,,,,,,,,,,,,146,S,triangle,0,1,,,2,,,,,,,,4,0,4,0,1,,,,,,,,,,,,,,,,,,,,,,,,,,,,,,,,,,
297619,2022-11-15_15h08.13.591,vts_reward_expectancy_bt,2022.2.4,Win32,15.00240038,Chrome,1280,720,,,,,,,,,,,,,,,,,,,,,,,174,F,star,0,1,,,2,,,,,,,,5,0,5,0,1,,,,,,,,,,,,,,,,,,,,,,,,,,,,,,,,,,
297619,2022-11-15_15h08.13.591,vts_reward_expectancy_bt,2022.2.4,Win32,15.00240038,Chrome,1280,720,,,,,,,,,,,,,,,,,,,,,,,125,B,hexagon,1,1,,,2,,,,,,j,1.6017,6,0,6,0,1,,,,,,,,,,,,,,,,,,,,,,,,,,,,,,,,,,
297619,2022-11-15_15h08.13.591,vts_reward_expectancy_bt,2022.2.4,Win32,15.00240038,Chrome,1280,720,,,,,,,,,,,,,,,,,,,,,,,139,U,circle,0,0,,,2,,,,,,,,7,0,7,0,1,,,,,,,,,,,,,,,,,,,,,,,,,,,,,,,,,,
297619,2022-11-15_15h08.13.591,vts_reward_expectancy_bt,2022.2.4,Win32,15.00240038,Chrome,1280,720,,,,,,,,,,,,,,,,,,,,,,,160,H,triangle,1,1,,,2,,,,,,j,0.4547,8,0,8,0,1,,,,,,,,,,,,,,,,,,,,,,,,,,,,,,,,,,
297619,2022-11-15_15h08.13.591,vts_reward_expectancy_bt,2022.2.4,Win32,15.00240038,Chrome,1280,720,,,,,,,,,,,,,,,,,,,,,,,181,D,hexagon,0,0,,,2,,,,,,,,9,0,9,0,1,,,,,,,,,,,,,,,,,,,,,,,,,,,,,,,,,,
297619,2022-11-15_15h08.13.591,vts_reward_expectancy_bt,2022.2.4,Win32,15.00240038,Chrome,1280,720,,,,,,,,,,,,,,,,,,,,,,,181,H,triangle,0,1,,,3,,,,,,,,0,0,0,0,1,,,,,,,,,,,,,,,,,,,,,,,,,,,,,,,,,,
297619,2022-11-15_15h08.13.591,vts_reward_expectancy_bt,2022.2.4,Win32,15.00240038,Chrome,1280,720,,,,,,,,,,,,,,,,,,,,,,,174,F,hexagon,1,1,,,3,,,,,,j,1.5135,1,0,1,0,1,,,,,,,,,,,,,,,,,,,,,,,,,,,,,,,,,,
297619,2022-11-15_15h08.13.591,vts_reward_expectancy_bt,2022.2.4,Win32,15.00240038,Chrome,1280,720,,,,,,,,,,,,,,,,,,,,,,,139,S,circle,1,0,,,3,,,,,,k,1.6693,2,0,2,0,1,,,,,,,,,,,,,,,,,,,,,,,,,,,,,,,,,,
297619,2022-11-15_15h08.13.591,vts_reward_expectancy_bt,2022.2.4,Win32,15.00240038,Chrome,1280,720,,,,,,,,,,,,,,,,,,,,,,,146,W,star,1,0,,,3,,,,,,k,1.6,3,0,3,0,1,,,,,,,,,,,,,,,,,,,,,,,,,,,,,,,,,,
297619,2022-11-15_15h08.13.591,vts_reward_expectancy_bt,2022.2.4,Win32,15.00240038,Chrome,1280,720,,,,,,,,,,,,,,,,,,,,,,,160,D,triangle,1,0,,,3,,,,,,j,2.2166,4,0,4,0,1,,,,,,,,,,,,,,,,,,,,,,,,,,,,,,,,,,
297619,2022-11-15_15h08.13.591,vts_reward_expectancy_bt,2022.2.4,Win32,15.00240038,Chrome,1280,720,,,,,,,,,,,,,,,,,,,,,,,167,Y,hexagon,1,0,,,3,,,,,,k,2.1365,5,0,5,0,1,,,,,,,,,,,,,,,,,,,,,,,,,,,,,,,,,,
297619,2022-11-15_15h08.13.591,vts_reward_expectancy_bt,2022.2.4,Win32,15.00240038,Chrome,1280,720,,,,,,,,,,,,,,,,,,,,,,,125,B,circle,1,0,,,3,,,,,,j,0.8365,6,0,6,0,1,,,,,,,,,,,,,,,,,,,,,,,,,,,,,,,,,,
297619,2022-11-15_15h08.13.591,vts_reward_expectancy_bt,2022.2.4,Win32,15.00240038,Chrome,1280,720,,,,,,,,,,,,,,,,,,,,,,,132,U,star,1,0,,,3,,,,,,k,2.1233,7,0,7,0,1,,,,,,,,,,,,,,,,,,,,,,,,,,,,,,,,,,
297619,2022-11-15_15h08.13.591,vts_reward_expectancy_bt,2022.2.4,Win32,15.00240038,Chrome,1280,720,,,,,,,,,,,,,,,,,,,,,,,181,H,circle,1,0,,,3,,,,,,j,2.1955,8,0,8,0,1,,,,,,,,,,,,,,,,,,,,,,,,,,,,,,,,,,
297619,2022-11-15_15h08.13.591,vts_reward_expectancy_bt,2022.2.4,Win32,15.00240038,Chrome,1280,720,,,,,,,,,,,,,,,,,,,,,,,174,F,triangle,1,0,,,3,,,,,,j,1.0162,9,0,9,0,1,,,,,,,,,,,,,,,,,,,,,,,,,,,,,,,,,,
297619,2022-11-15_15h08.13.591,vts_reward_expectancy_bt,2022.2.4,Win32,15.00240038,Chrome,1280,720,,,,,0,585,,,,,,,,,,,,,,,,,160,D,star,-1,0,,,4,,,,,,,,,,,,,-1,no_choice,NA,,vtsPrac,0,0,0,0,1,,,,,,,,,,,,,,,,,,,,,,,,
297619,2022-11-15_15h08.13.591,vts_reward_expectancy_bt,2022.2.4,Win32,15.00240038,Chrome,1280,720,,,,,0,585,,,,,,,,,,,,,,,,,146,U,triangle,1,0,,,4,,,,,,,,,,,,,switch,number,numSwt,d,vtsPrac,1,0,1,0,1,2.2017,,,,,,,,,,,,,,,,,,,,,,,
297619,2022-11-15_15h08.13.591,vts_reward_expectancy_bt,2022.2.4,Win32,15.00240038,Chrome,1280,720,,,,,0,585,,,,,,,,,,,,,,,,,174,S,star,1,0,,,4,,,,,,,,,,,,,repeat,number,numRpt,f,vtsPrac,2,0,2,0,1,2.6547,,,,,,,,,,,,,,,,,,,,,,,
297619,2022-11-15_15h08.13.591,vts_reward_expectancy_bt,2022.2.4,Win32,15.00240038,Chrome,1280,720,,,,,0,585,,,,,,,,,,,,,,,,,132,Y,triangle,1,0,,,4,,,,,,,,,,,,,repeat,number,numRpt,d,vtsPrac,3,0,3,0,1,1.0092,,,,,,,,,,,,,,,,,,,,,,,
297619,2022-11-15_15h08.13.591,vts_reward_expectancy_bt,2022.2.4,Win32,15.00240038,Chrome,1280,720,,,,,0,585,,,,,,,,,,,,,,,,,160,D,circle,1,0,,,4,,,,,,,,,,,,,repeat,number,numRpt,f,vtsPrac,4,0,4,0,1,0.8404,,,,,,,,,,,,,,,,,,,,,,,
297619,2022-11-15_15h08.13.591,vts_reward_expectancy_bt,2022.2.4,Win32,15.00240038,Chrome,1280,720,,,,,0,585,,,,,,,,,,,,,,,,,146,U,star,1,0,,,4,,,,,,,,,,,,,repeat,number,numRpt,d,vtsPrac,5,0,5,0,1,0.9871,,,,,,,,,,,,,,,,,,,,,,,
297619,2022-11-15_15h08.13.591,vts_reward_expectancy_bt,2022.2.4,Win32,15.00240038,Chrome,1280,720,,,,,0,585,,,,,,,,,,,,,,,,,174,S,hexagon,1,0,,,4,,,,,,,,,,,,,repeat,number,numRpt,f,vtsPrac,6,0,6,0,1,1.0825,,,,,,,,,,,,,,,,,,,,,,,
297619,2022-11-15_15h08.13.591,vts_reward_expectancy_bt,2022.2.4,Win32,15.00240038,Chrome,1280,720,,,,,0,585,,,,,,,,,,,,,,,,,132,Y,circle,1,0,,,4,,,,,,,,,,,,,repeat,number,numRpt,d,vtsPrac,7,0,7,0,1,1.2095,,,,,,,,,,,,,,,,,,,,,,,
297619,2022-11-15_15h08.13.591,vts_reward_expectancy_bt,2022.2.4,Win32,15.00240038,Chrome,1280,720,,,,,0,585,,,,,,,,,,,,,,,,,167,H,circle,1,0,,,4,,,,,,,,,,,,,repeat,number,numRpt,f,vtsPrac,8,0,8,0,1,1.2177,,,,,,,,,,,,,,,,,,,,,,,
297619,2022-11-15_15h08.13.591,vts_reward_expectancy_bt,2022.2.4,Win32,15.00240038,Chrome,1280,720,,,,,0,585,,,,,,,,,,,,,,,,,132,D,triangle,1,0,,,4,,,,,,,,,,,,,repeat,number,numRpt,d,vtsPrac,9,0,9,0,1,0.9154,,,,,,,,,,,,,,,,,,,,,,,
297619,2022-11-15_15h08.13.591,vts_reward_expectancy_bt,2022.2.4,Win32,15.00240038,Chrome,1280,720,,,,,0,585,,,,,,,,,,,,,,,,,146,U,circle,0,0,,,4,,,,,,,,,,,,,repeat,number,NA,f,vtsPrac,10,0,10,0,1,1.4413,,,,,,,,,,,,,,,,,,,,,,,
297619,2022-11-15_15h08.13.591,vts_reward_expectancy_bt,2022.2.4,Win32,15.00240038,Chrome,1280,720,,,,,0,585,,,,,,,,,,,,,,,,,174,Y,hexagon,1,1,,,4,,,,,,,,,,,,,repeat,number,numRpt,f,vtsPrac,11,0,11,0,1,2.5886,,,,,,,,,,,,,,,,,,,,,,,
297619,2022-11-15_15h08.13.591,vts_reward_expectancy_bt,2022.2.4,Win32,15.00240038,Chrome,1280,720,,,,,0,585,,,,,,,,,,,,,,,,,125,W,circle,1,0,,,4,,,,,,,,,,,,,repeat,number,numRpt,d,vtsPrac,12,0,12,0,1,0.9155,,,,,,,,,,,,,,,,,,,,,,,
297619,2022-11-15_15h08.13.591,vts_reward_expectancy_bt,2022.2.4,Win32,15.00240038,Chrome,1280,720,,,,,0,585,,,,,,,,,,,,,,,,,139,B,triangle,1,0,,,4,,,,,,,,,,,,,repeat,number,numRpt,d,vtsPrac,13,0,13,0,1,1.0026,,,,,,,,,,,,,,,,,,,,,,,
297619,2022-11-15_15h08.13.591,vts_reward_expectancy_bt,2022.2.4,Win32,15.00240038,Chrome,1280,720,,,,,0,585,,,,,,,,,,,,,,,,,167,S,star,-1,0,,,4,,,,,,,,,,,,,switch,no_choice,NA,,vtsPrac,14,0,14,0,1,,,,,,,,,,,,,,,,,,,,,,,,
297619,2022-11-15_15h08.13.591,vts_reward_expectancy_bt,2022.2.4,Win32,15.00240038,Chrome,1280,720,,,,,0,585,,,,,,,,,,,,,,,,,174,F,circle,1,0,,,4,,,,,,,,,,,,,switch,number,numSwt,f,vtsPrac,15,0,15,0,1,1.22,,,,,,,,,,,,,,,,,,,,,,,
297619,2022-11-15_15h08.13.591,vts_reward_expectancy_bt,2022.2.4,Win32,15.00240038,Chrome,1280,720,,,,,0,585,,,,,,,,,,,,,,,,,146,W,hexagon,-1,0,,,4,,,,,,,,,,,,,switch,no_choice,NA,,vtsPrac,16,0,16,0,1,,,,,,,,,,,,,,,,,,,,,,,,
297619,2022-11-15_15h08.13.591,vts_reward_expectancy_bt,2022.2.4,Win32,15.00240038,Chrome,1280,720,,,,,0,585,,,,,,,,,,,,,,,,,181,D,star,1,0,,,4,,,,,,,,,,,,,switch,number,numSwt,f,vtsPrac,17,0,17,0,1,1.6775,,,,,,,,,,,,,,,,,,,,,,,
297619,2022-11-15_15h08.13.591,vts_reward_expectancy_bt,2022.2.4,Win32,15.00240038,Chrome,1280,720,,,,,0,585,,,,,,,,,,,,,,,,,139,B,circle,1,0,,,4,,,,,,,,,,,,,repeat,number,numRpt,d,vtsPrac,18,0,18,0,1,1.9728,,,,,,,,,,,,,,,,,,,,,,,
297619,2022-11-15_15h08.13.591,vts_reward_expectancy_bt,2022.2.4,Win32,15.00240038,Chrome,1280,720,,,,,0,585,,,,,,,,,,,,,,,,,132,H,hexagon,1,0,,,4,,,,,,,,,,,,,repeat,number,numRpt,d,vtsPrac,19,0,19,0,1,1.0738,,,,,,,,,,,,,,,,,,,,,,,
297619,2022-11-15_15h08.13.591,vts_reward_expectancy_bt,2022.2.4,Win32,15.00240038,Chrome,1280,720,,,,,0,585,,,,,,,,,,,,,,,,,174,B,star,1,0,,,4,,,,,,,,,,,,,repeat,number,numRpt,f,vtsPrac,20,0,20,0,1,1.2162,,,,,,,,,,,,,,,,,,,,,,,
297619,2022-11-15_15h08.13.591,vts_reward_expectancy_bt,2022.2.4,Win32,15.00240038,Chrome,1280,720,,,,,0,585,,,,,,,,,,,,,,,,,132,H,hexagon,1,0,,,4,,,,,,,,,,,,,repeat,number,numRpt,d,vtsPrac,21,0,21,0,1,0.9146,,,,,,,,,,,,,,,,,,,,,,,
297619,2022-11-15_15h08.13.591,vts_reward_expectancy_bt,2022.2.4,Win32,15.00240038,Chrome,1280,720,,,,,0,585,,,,,,,,,,,,,,,,,146,S,hexagon,1,0,,,4,,,,,,,,,,,,,repeat,number,numRpt,d,vtsPrac,22,0,22,0,1,1.0703,,,,,,,,,,,,,,,,,,,,,,,
297619,2022-11-15_15h08.13.591,vts_reward_expectancy_bt,2022.2.4,Win32,15.00240038,Chrome,1280,720,,,,,0,585,,,,,,,,,,,,,,,,,139,Y,triangle,1,0,,,4,,,,,,,,,,,,,repeat,number,numRpt,d,vtsPrac,23,0,23,0,1,0.8365,,,,,,,,,,,,,,,,,,,,,,,
297619,2022-11-15_15h08.13.591,vts_reward_expectancy_bt,2022.2.4,Win32,15.00240038,Chrome,1280,720,,,,,0,585,,,,,,,,,,,,,,,,,125,U,triangle,1,0,,,4,,,,,,,,,,,,,repeat,number,numRpt,d,vtsPrac,24,0,24,0,1,1.2202,,,,,,,,,,,,,,,,,,,,,,,
297619,2022-11-15_15h08.13.591,vts_reward_expectancy_bt,2022.2.4,Win32,15.00240038,Chrome,1280,720,,,,,0,585,,,,,,,,,,,,,,,,,160,H,star,1,0,,,4,,,,,,,,,,,,,repeat,number,numRpt,f,vtsPrac,25,0,25,0,1,1.7031,,,,,,,,,,,,,,,,,,,,,,,
297619,2022-11-15_15h08.13.591,vts_reward_expectancy_bt,2022.2.4,Win32,15.00240038,Chrome,1280,720,,,,,0,585,,,,,,,,,,,,,,,,,139,D,hexagon,1,0,,,4,,,,,,,,,,,,,repeat,number,numRpt,d,vtsPrac,26,0,26,0,1,1.5302,,,,,,,,,,,,,,,,,,,,,,,
297619,2022-11-15_15h08.13.591,vts_reward_expectancy_bt,2022.2.4,Win32,15.00240038,Chrome,1280,720,,,,,0,585,,,,,,,,,,,,,,,,,181,Y,circle,1,0,,,4,,,,,,,,,,,,,repeat,number,numRpt,f,vtsPrac,27,0,27,0,1,1.5131,,,,,,,,,,,,,,,,,,,,,,,
297619,2022-11-15_15h08.13.591,vts_reward_expectancy_bt,2022.2.4,Win32,15.00240038,Chrome,1280,720,,,,,0,585,,,,,,,,,,,,,,,,,146,U,hexagon,1,0,,,4,,,,,,,,,,,,,repeat,number,numRpt,d,vtsPrac,28,0,28,0,1,1.1366,,,,,,,,,,,,,,,,,,,,,,,
297619,2022-11-15_15h08.13.591,vts_reward_expectancy_bt,2022.2.4,Win32,15.00240038,Chrome,1280,720,,,,,0,585,,,,,,,,,,,,,,,,,167,W,star,1,0,,,4,,,,,,,,,,,,,repeat,number,numRpt,f,vtsPrac,29,0,29,0,1,1.5993,,,,,,,,,,,,,,,,,,,,,,,
297619,2022-11-15_15h08.13.591,vts_reward_expectancy_bt,2022.2.4,Win32,15.00240038,Chrome,1280,720,,,,,0,585,,,,,,,,,,,,,,,,,139,B,triangle,1,0,,,4,,,,,,,,,,,,,repeat,number,numRpt,d,vtsPrac,30,0,30,0,1,0.7623,,,,,,,,,,,,,,,,,,,,,,,
297619,2022-11-15_15h08.13.591,vts_reward_expectancy_bt,2022.2.4,Win32,15.00240038,Chrome,1280,720,,,,,0,585,,,,,,,,,,,,,,,,,125,F,circle,1,0,,,4,,,,,,,,,,,,,repeat,number,numRpt,d,vtsPrac,31,0,31,0,1,2.2852,,,,,,,,,,,,,,,,,,,,,,,
297619,2022-11-15_15h08.13.591,vts_reward_expectancy_bt,2022.2.4,Win32,15.00240038,Chrome,1280,720,,,,,0,585,,,,,,,,,,,,,,,,,146,B,star,1,0,,,5,,,,,,,,,,,,,repeat,number,numRpt,d,vtsPrac,0,0,0,0,1,0.8366,,,,,,,,,,,,,,,,,,,,,,,
297619,2022-11-15_15h08.13.591,vts_reward_expectancy_bt,2022.2.4,Win32,15.00240038,Chrome,1280,720,,,,,0,585,,,,,,,,,,,,,,,,,132,D,hexagon,0,0,,,5,,,,,,,,,,,,,switch,letter,NA,k,vtsPrac,1,0,1,0,1,0.9208,,,,,,,,,,,,,,,,,,,,,,,
297619,2022-11-15_15h08.13.591,vts_reward_expectancy_bt,2022.2.4,Win32,15.00240038,Chrome,1280,720,,,,,0,585,,,,,,,,,,,,,,,,,167,H,star,1,1,,,5,,,,,,,,,,,,,switch,number,numSwt,f,vtsPrac,2,0,2,0,1,1.6783,,,,,,,,,,,,,,,,,,,,,,,
297619,2022-11-15_15h08.13.591,vts_reward_expectancy_bt,2022.2.4,Win32,15.00240038,Chrome,1280,720,,,,,0,585,,,,,,,,,,,,,,,,,174,Y,hexagon,1,0,,,5,,,,,,,,,,,,,repeat,number,numRpt,f,vtsPrac,3,0,3,0,1,0.8395,,,,,,,,,,,,,,,,,,,,,,,
297619,2022-11-15_15h08.13.591,vts_reward_expectancy_bt,2022.2.4,Win32,15.00240038,Chrome,1280,720,,,,,0,585,,,,,,,,,,,,,,,,,146,B,star,1,0,,,5,,,,,,,,,,,,,switch,letter,lettSwt,j,vtsPrac,4,0,4,0,1,0.993,,,,,,,,,,,,,,,,,,,,,,,
297619,2022-11-15_15h08.13.591,vts_reward_expectancy_bt,2022.2.4,Win32,15.00240038,Chrome,1280,720,,,,,0,585,,,,,,,,,,,,,,,,,132,D,hexagon,1,0,,,5,,,,,,,,,,,,,repeat,letter,lettRpt,j,vtsPrac,5,0,5,0,1,1.5904,,,,,,,,,,,,,,,,,,,,,,,
297619,2022-11-15_15h08.13.591,vts_reward_expectancy_bt,2022.2.4,Win32,15.00240038,Chrome,1280,720,,,,,0,585,,,,,,,,,,,,,,,,,167,H,circle,1,0,,,5,,,,,,,,,,,,,switch,number,numSwt,f,vtsPrac,6,0,6,0,1,1.7638,,,,,,,,,,,,,,,,,,,,,,,
297619,2022-11-15_15h08.13.591,vts_reward_expectancy_bt,2022.2.4,Win32,15.00240038,Chrome,1280,720,,,,,0,585,,,,,,,,,,,,,,,,,174,Y,hexagon,1,0,,,5,,,,,,,,,,,,,repeat,number,numRpt,f,vtsPrac,7,0,7,0,1,0.8497,,,,,,,,,,,,,,,,,,,,,,,
297619,2022-11-15_15h08.13.591,vts_reward_expectancy_bt,2022.2.4,Win32,15.00240038,Chrome,1280,720,,,,,0,585,,,,,,,,,,,,,,,,,139,U,hexagon,1,0,,,5,,,,,,,,,,,,,switch,letter,lettSwt,k,vtsPrac,8,0,8,0,1,0.7641,,,,,,,,,,,,,,,,,,,,,,,
297619,2022-11-15_15h08.13.591,vts_reward_expectancy_bt,2022.2.4,Win32,15.00240038,Chrome,1280,720,,,,,0,585,,,,,,,,,,,,,,,,,125,S,circle,1,0,,,5,,,,,,,,,,,,,repeat,letter,lettRpt,k,vtsPrac,9,0,9,0,1,1.8941,,,,,,,,,,,,,,,,,,,,,,,
297619,2022-11-15_15h08.13.591,vts_reward_expectancy_bt,2022.2.4,Win32,15.00240038,Chrome,1280,720,,,,,0,585,,,,,,,,,,,,,,,,,167,D,star,1,0,,,5,,,,,,,,,,,,,repeat,letter,lettRpt,j,vtsPrac,10,0,10,0,1,1.5233,,,,,,,,,,,,,,,,,,,,,,,
297619,2022-11-15_15h08.13.591,vts_reward_expectancy_bt,2022.2.4,Win32,15.00240038,Chrome,1280,720,,,,,0,585,,,,,,,,,,,,,,,,,181,W,triangle,1,0,,,5,,,,,,,,,,,,,switch,number,numSwt,f,vtsPrac,11,0,11,0,1,0.8342,,,,,,,,,,,,,,,,,,,,,,,
297619,2022-11-15_15h08.13.591,vts_reward_expectancy_bt,2022.2.4,Win32,15.00240038,Chrome,1280,720,,,,,0,585,,,,,,,,,,,,,,,,,174,U,star,1,0,,,5,,,,,,,,,,,,,switch,letter,lettSwt,k,vtsPrac,12,0,12,0,1,0.9187,,,,,,,,,,,,,,,,,,,,,,,
297619,2022-11-15_15h08.13.591,vts_reward_expectancy_bt,2022.2.4,Win32,15.00240038,Chrome,1280,720,,,,,0,585,,,,,,,,,,,,,,,,,167,S,triangle,1,0,,,5,,,,,,,,,,,,,switch,number,numSwt,f,vtsPrac,13,0,13,0,1,0.6983,,,,,,,,,,,,,,,,,,,,,,,
297619,2022-11-15_15h08.13.591,vts_reward_expectancy_bt,2022.2.4,Win32,15.00240038,Chrome,1280,720,,,,,0,585,,,,,,,,,,,,,,,,,125,D,circle,1,0,,,5,,,,,,,,,,,,,switch,letter,lettSwt,j,vtsPrac,14,0,14,0,1,1.2336,,,,,,,,,,,,,,,,,,,,,,,
297619,2022-11-15_15h08.13.591,vts_reward_expectancy_bt,2022.2.4,Win32,15.00240038,Chrome,1280,720,,,,,0,585,,,,,,,,,,,,,,,,,146,Y,triangle,1,0,,,5,,,,,,,,,,,,,repeat,letter,lettRpt,k,vtsPrac,15,0,15,0,1,2.3613,,,,,,,,,,,,,,,,,,,,,,,
297619,2022-11-15_15h08.13.591,vts_reward_expectancy_bt,2022.2.4,Win32,15.00240038,Chrome,1280,720,,,,,0,585,,,,,,,,,,,,,,,,,181,H,hexagon,1,0,,,5,,,,,,,,,,,,,switch,number,numSwt,f,vtsPrac,16,0,16,0,1,1.7474,,,,,,,,,,,,,,,,,,,,,,,
297619,2022-11-15_15h08.13.591,vts_reward_expectancy_bt,2022.2.4,Win32,15.00240038,Chrome,1280,720,,,,,0,585,,,,,,,,,,,,,,,,,132,B,circle,1,0,,,5,,,,,,,,,,,,,repeat,number,numRpt,d,vtsPrac,17,0,17,0,1,2.0835,,,,,,,,,,,,,,,,,,,,,,,
297619,2022-11-15_15h08.13.591,vts_reward_expectancy_bt,2022.2.4,Win32,15.00240038,Chrome,1280,720,,,,,0,585,,,,,,,,,,,,,,,,,174,F,star,1,0,,,5,,,,,,,,,,,,,switch,letter,lettSwt,j,vtsPrac,18,0,18,0,1,2.289,,,,,,,,,,,,,,,,,,,,,,,
297619,2022-11-15_15h08.13.591,vts_reward_expectancy_bt,2022.2.4,Win32,15.00240038,Chrome,1280,720,,,,,0,585,,,,,,,,,,,,,,,,,139,D,hexagon,0,0,,,5,,,,,,,,,,,,,switch,number,NA,f,vtsPrac,19,0,19,0,1,1.8651,,,,,,,,,,,,,,,,,,,,,,,
297619,2022-11-15_15h08.13.591,vts_reward_expectancy_bt,2022.2.4,Win32,15.00240038,Chrome,1280,720,,,,,0,585,,,,,,,,,,,,,,,,,125,F,triangle,1,1,,,5,,,,,,,,,,,,,repeat,number,numRpt,d,vtsPrac,20,0,20,0,1,2.3344,,,,,,,,,,,,,,,,,,,,,,,
297619,2022-11-15_15h08.13.591,vts_reward_expectancy_bt,2022.2.4,Win32,15.00240038,Chrome,1280,720,,,,,0,585,,,,,,,,,,,,,,,,,167,Y,circle,1,0,,,5,,,,,,,,,,,,,switch,letter,lettSwt,k,vtsPrac,21,0,21,0,1,1.2468,,,,,,,,,,,,,,,,,,,,,,,
297619,2022-11-15_15h08.13.591,vts_reward_expectancy_bt,2022.2.4,Win32,15.00240038,Chrome,1280,720,,,,,0,585,,,,,,,,,,,,,,,,,174,W,triangle,1,0,,,5,,,,,,,,,,,,,switch,number,numSwt,f,vtsPrac,22,0,22,0,1,2.2819,,,,,,,,,,,,,,,,,,,,,,,
297619,2022-11-15_15h08.13.591,vts_reward_expectancy_bt,2022.2.4,Win32,15.00240038,Chrome,1280,720,,,,,0,585,,,,,,,,,,,,,,,,,139,H,circle,1,0,,,5,,,,,,,,,,,,,switch,letter,lettSwt,j,vtsPrac,23,0,23,0,1,1.7152,,,,,,,,,,,,,,,,,,,,,,,
297619,2022-11-15_15h08.13.591,vts_reward_expectancy_bt,2022.2.4,Win32,15.00240038,Chrome,1280,720,,,,,0,585,,,,,,,,,,,,,,,,,139,D,triangle,1,0,,,5,,,,,,,,,,,,,switch,number,numSwt,d,vtsPrac,24,0,24,0,1,0.9905,,,,,,,,,,,,,,,,,,,,,,,
297619,2022-11-15_15h08.13.591,vts_reward_expectancy_bt,2022.2.4,Win32,15.00240038,Chrome,1280,720,,,,,0,585,,,,,,,,,,,,,,,,,146,S,star,1,0,,,5,,,,,,,,,,,,,switch,letter,lettSwt,k,vtsPrac,25,0,25,0,1,1.7777,,,,,,,,,,,,,,,,,,,,,,,
297619,2022-11-15_15h08.13.591,vts_reward_expectancy_bt,2022.2.4,Win32,15.00240038,Chrome,1280,720,,,,,0,585,,,,,,,,,,,,,,,,,167,B,hexagon,1,0,,,5,,,,,,,,,,,,,switch,number,numSwt,f,vtsPrac,26,0,26,0,1,1.177,,,,,,,,,,,,,,,,,,,,,,,
297619,2022-11-15_15h08.13.591,vts_reward_expectancy_bt,2022.2.4,Win32,15.00240038,Chrome,1280,720,,,,,0,585,,,,,,,,,,,,,,,,,125,W,circle,1,0,,,5,,,,,,,,,,,,,switch,letter,lettSwt,k,vtsPrac,27,0,27,0,1,2.3069,,,,,,,,,,,,,,,,,,,,,,,
297619,2022-11-15_15h08.13.591,vts_reward_expectancy_bt,2022.2.4,Win32,15.00240038,Chrome,1280,720,,,,,0,585,,,,,,,,,,,,,,,,,167,S,triangle,1,0,,,5,,,,,,,,,,,,,switch,number,numSwt,f,vtsPrac,28,0,28,0,1,0.7588,,,,,,,,,,,,,,,,,,,,,,,
297619,2022-11-15_15h08.13.591,vts_reward_expectancy_bt,2022.2.4,Win32,15.00240038,Chrome,1280,720,,,,,0,585,,,,,,,,,,,,,,,,,181,Y,star,1,0,,,5,,,,,,,,,,,,,switch,letter,lettSwt,k,vtsPrac,29,0,29,0,1,1.6365,,,,,,,,,,,,,,,,,,,,,,,
297619,2022-11-15_15h08.13.591,vts_reward_expectancy_bt,2022.2.4,Win32,15.00240038,Chrome,1280,720,,,,,0,585,,,,,,,,,,,,,,,,,139,F,star,1,0,,,5,,,,,,,,,,,,,switch,number,numSwt,d,vtsPrac,30,0,30,0,1,1.8339,,,,,,,,,,,,,,,,,,,,,,,
297619,2022-11-15_15h08.13.591,vts_reward_expectancy_bt,2022.2.4,Win32,15.00240038,Chrome,1280,720,,,,,0,585,,,,,,,,,,,,,,,,,125,D,triangle,1,0,,,5,,,,,,,,,,,,,switch,letter,lettSwt,j,vtsPrac,31,0,31,0,1,1.6646,,,,,,,,,,,,,,,,,,,,,,,
297619,2022-11-15_15h08.13.591,vts_reward_expectancy_bt,2022.2.4,Win32,15.00240038,Chrome,1280,720,,,,,,,,,,,,,,,,,,,,,,,,,,,,,,,,,,,,,,,,,,,,,,,,,,,,,,,,,,,,,,,,,,,,,,,,,,,,
297619,2022-11-15_15h08.13.591,vts_reward_expectancy_bt,2022.2.4,Win32,15.00240038,Chrome,1280,720,,,,,,,,,,,,,,,,,,,,,,,,,,,,,,,,,,,,,,,,,,,,,,,,,,,,,,,,,,,,,,,,,,,,,,,,,,,,
297619,2022-11-15_15h08.13.591,vts_reward_expectancy_bt,2022.2.4,Win32,15.00240038,Chrome,1280,720,,,,,0,585,,,,,,,,,,,,,,,,,146,F,hexagon,1,0,,,,,,,,,,,,,,,,switch,number,numSwt,d,noRew,,,,,,1.5246,0,0,0,0,0,1,,,,,,,,,,,,,,,,,
297619,2022-11-15_15h08.13.591,vts_reward_expectancy_bt,2022.2.4,Win32,15.00240038,Chrome,1280,720,,,,,0,585,,,,,,,,,,,,,,,,,139,U,circle,1,0,,,,,,,,,,,,,,,,switch,letter,lettSwt,k,noRew,,,,,,1.5868,0,1,0,1,0,1,,,,,,,,,,,,,,,,,
297619,2022-11-15_15h08.13.591,vts_reward_expectancy_bt,2022.2.4,Win32,15.00240038,Chrome,1280,720,,,,,0,585,,,,,,,,,,,,,,,,,132,W,hexagon,1,0,,,,,,,,,,,,,,,,switch,number,numSwt,d,noRew,,,,,,1.0706,0,2,0,2,0,1,,,,,,,,,,,,,,,,,
297619,2022-11-15_15h08.13.591,vts_reward_expectancy_bt,2022.2.4,Win32,15.00240038,Chrome,1280,720,,,,,0,585,,,,,,,,,,,,,,,,,160,Y,circle,1,0,,,,,,,,,,,,,,,,switch,letter,lettSwt,k,noRew,,,,,,0.8328,0,3,0,3,0,1,,,,,,,,,,,,,,,,,
297619,2022-11-15_15h08.13.591,vts_reward_expectancy_bt,2022.2.4,Win32,15.00240038,Chrome,1280,720,,,,,0,585,,,,,,,,,,,,,,,,,146,F,triangle,1,0,,,,,,,,,,,,,,,,repeat,letter,lettRpt,j,noRew,,,,,,1.2938,0,4,0,4,0,1,,,,,,,,,,,,,,,,,
297619,2022-11-15_15h08.13.591,vts_reward_expectancy_bt,2022.2.4,Win32,15.00240038,Chrome,1280,720,,,,,0,585,,,,,,,,,,,,,,,,,139,U,star,1,0,,,,,,,,,,,,,,,,switch,number,numSwt,d,noRew,,,,,,1.9871,0,5,0,5,0,1,,,,,,,,,,,,,,,,,
297619,2022-11-15_15h08.13.591,vts_reward_expectancy_bt,2022.2.4,Win32,15.00240038,Chrome,1280,720,,,,,0,585,,,,,,,,,,,,,,,,,132,W,hexagon,1,0,,,,,,,,,,,,,,,,switch,letter,lettSwt,k,noRew,,,,,,1.9844,0,6,0,6,0,1,,,,,,,,,,,,,,,,,
297619,2022-11-15_15h08.13.591,vts_reward_expectancy_bt,2022.2.4,Win32,15.00240038,Chrome,1280,720,,,,,0,585,,,,,,,,,,,,,,,,,160,Y,star,1,0,,,,,,,,,,,,,,,,switch,number,numSwt,f,noRew,,,,,,1.3026,0,7,0,7,0,1,,,,,,,,,,,,,,,,,
297619,2022-11-15_15h08.13.591,vts_reward_expectancy_bt,2022.2.4,Win32,15.00240038,Chrome,1280,720,,,,,0,585,,,,,,,,,,,,,,,,,146,H,star,1,0,,,,,,,,,,,,,,,,switch,letter,lettSwt,j,noRew,,,,,,1.2185,0,8,0,8,0,1,,,,,,,,,,,,,,,,,
297619,2022-11-15_15h08.13.591,vts_reward_expectancy_bt,2022.2.4,Win32,15.00240038,Chrome,1280,720,,,,,0,585,,,,,,,,,,,,,,,,,174,U,triangle,1,0,,,,,,,,,,,,,,,,switch,number,numSwt,f,noRew,,,,,,1.0018,0,9,0,9,0,1,,,,,,,,,,,,,,,,,
297619,2022-11-15_15h08.13.591,vts_reward_expectancy_bt,2022.2.4,Win32,15.00240038,Chrome,1280,720,,,,,0,585,,,,,,,,,,,,,,,,,125,Y,triangle,1,0,,,,,,,,,,,,,,,,switch,letter,lettSwt,k,noRew,,,,,,1.0707,0,10,0,10,0,1,,,,,,,,,,,,,,,,,
297619,2022-11-15_15h08.13.591,vts_reward_expectancy_bt,2022.2.4,Win32,15.00240038,Chrome,1280,720,,,,,0,585,,,,,,,,,,,,,,,,,139,F,star,1,0,,,,,,,,,,,,,,,,switch,number,numSwt,d,noRew,,,,,,2.0562,0,11,0,11,0,1,,,,,,,,,,,,,,,,,
297619,2022-11-15_15h08.13.591,vts_reward_expectancy_bt,2022.2.4,Win32,15.00240038,Chrome,1280,720,,,,,0,585,,,,,,,,,,,,,,,,,174,S,hexagon,1,0,,,,,,,,,,,,,,,,switch,letter,lettSwt,k,noRew,,,,,,1.1432,0,12,0,12,0,1,,,,,,,,,,,,,,,,,
297619,2022-11-15_15h08.13.591,vts_reward_expectancy_bt,2022.2.4,Win32,15.00240038,Chrome,1280,720,,,,,0,585,,,,,,,,,,,,,,,,,160,W,triangle,1,0,,,,,,,,,,,,,,,,switch,number,numSwt,f,noRew,,,,,,2.2005,0,13,0,13,0,1,,,,,,,,,,,,,,,,,
297619,2022-11-15_15h08.13.591,vts_reward_expectancy_bt,2022.2.4,Win32,15.00240038,Chrome,1280,720,,,,,0,585,,,,,,,,,,,,,,,,,132,Y,circle,1,0,,,,,,,,,,,,,,,,switch,letter,lettSwt,k,noRew,,,,,,1.291,0,14,0,14,0,1,,,,,,,,,,,,,,,,,
297619,2022-11-15_15h08.13.591,vts_reward_expectancy_bt,2022.2.4,Win32,15.00240038,Chrome,1280,720,,,,,0,585,,,,,,,,,,,,,,,,,146,U,star,1,0,,,,,,,,,,,,,,,,switch,number,numSwt,d,noRew,,,,,,1.1515,0,15,0,15,0,1,,,,,,,,,,,,,,,,,
297619,2022-11-15_15h08.13.591,vts_reward_expectancy_bt,2022.2.4,Win32,15.00240038,Chrome,1280,720,,,,,0,585,,,,,,,,,,,,,,,,,146,D,triangle,1,0,,,,,,,,,,,,,,,,switch,letter,lettSwt,j,noRew,,,,,,1.4503,0,16,0,16,0,1,,,,,,,,,,,,,,,,,
297619,2022-11-15_15h08.13.591,vts_reward_expectancy_bt,2022.2.4,Win32,15.00240038,Chrome,1280,720,,,,,0,585,,,,,,,,,,,,,,,,,174,W,circle,1,0,,,,,,,,,,,,,,,,switch,number,numSwt,f,noRew,,,,,,1.1528,0,17,0,17,0,1,,,,,,,,,,,,,,,,,
297619,2022-11-15_15h08.13.591,vts_reward_expectancy_bt,2022.2.4,Win32,15.00240038,Chrome,1280,720,,,,,0,585,,,,,,,,,,,,,,,,,139,S,triangle,1,0,,,,,,,,,,,,,,,,repeat,number,numRpt,d,noRew,,,,,,1.8296,0,18,0,18,0,1,,,,,,,,,,,,,,,,,
297619,2022-11-15_15h08.13.591,vts_reward_expectancy_bt,2022.2.4,Win32,15.00240038,Chrome,1280,720,,,,,0,585,,,,,,,,,,,,,,,,,132,B,star,1,0,,,,,,,,,,,,,,,,switch,letter,lettSwt,j,noRew,,,,,,1.3665,0,19,0,19,0,1,,,,,,,,,,,,,,,,,
297619,2022-11-15_15h08.13.591,vts_reward_expectancy_bt,2022.2.4,Win32,15.00240038,Chrome,1280,720,,,,,0,585,,,,,,,,,,,,,,,,,181,U,star,1,0,,,,,,,,,,,,,,,,switch,number,numSwt,f,noRew,,,,,,2.0464,0,20,0,20,0,1,,,,,,,,,,,,,,,,,
297619,2022-11-15_15h08.13.591,vts_reward_expectancy_bt,2022.2.4,Win32,15.00240038,Chrome,1280,720,,,,,0,585,,,,,,,,,,,,,,,,,139,W,hexagon,1,0,,,,,,,,,,,,,,,,switch,letter,lettSwt,k,noRew,,,,,,1.2928,0,21,0,21,0,1,,,,,,,,,,,,,,,,,
297619,2022-11-15_15h08.13.591,vts_reward_expectancy_bt,2022.2.4,Win32,15.00240038,Chrome,1280,720,,,,,0,585,,,,,,,,,,,,,,,,,160,S,star,1,0,,,,,,,,,,,,,,,,switch,number,numSwt,f,noRew,,,,,,1.9804,0,22,0,22,0,1,,,,,,,,,,,,,,,,,
297619,2022-11-15_15h08.13.591,vts_reward_expectancy_bt,2022.2.4,Win32,15.00240038,Chrome,1280,720,,,,,0,585,,,,,,,,,,,,,,,,,167,B,hexagon,1,0,,,,,,,,,,,,,,,,switch,letter,lettSwt,j,noRew,,,,,,0.9889,0,23,0,23,0,1,,,,,,,,,,,,,,,,,
297619,2022-11-15_15h08.13.591,vts_reward_expectancy_bt,2022.2.4,Win32,15.00240038,Chrome,1280,720,,,,,0,585,,,,,,,,,,,,,,,,,139,H,star,1,0,,,,,,,,,,,,,,,,switch,number,numSwt,d,noRew,,,,,,1.9673,0,24,0,24,0,1,,,,,,,,,,,,,,,,,
297619,2022-11-15_15h08.13.591,vts_reward_expectancy_bt,2022.2.4,Win32,15.00240038,Chrome,1280,720,,,,,0,585,,,,,,,,,,,,,,,,,181,D,circle,1,0,,,,,,,,,,,,,,,,switch,letter,lettSwt,j,noRew,,,,,,1.1895,0,25,0,25,0,1,,,,,,,,,,,,,,,,,
297619,2022-11-15_15h08.13.591,vts_reward_expectancy_bt,2022.2.4,Win32,15.00240038,Chrome,1280,720,,,,,0,585,,,,,,,,,,,,,,,,,125,B,circle,1,0,,,,,,,,,,,,,,,,switch,number,numSwt,d,noRew,,,,,,0.8514,0,26,0,26,0,1,,,,,,,,,,,,,,,,,
297619,2022-11-15_15h08.13.591,vts_reward_expectancy_bt,2022.2.4,Win32,15.00240038,Chrome,1280,720,,,,,0,585,,,,,,,,,,,,,,,,,132,S,triangle,1,0,,,,,,,,,,,,,,,,switch,letter,lettSwt,k,noRew,,,,,,2.1508,0,27,0,27,0,1,,,,,,,,,,,,,,,,,
297619,2022-11-15_15h08.13.591,vts_reward_expectancy_bt,2022.2.4,Win32,15.00240038,Chrome,1280,720,,,,,0,585,,,,,,,,,,,,,,,,,146,F,hexagon,1,0,,,,,,,,,,,,,,,,repeat,letter,lettRpt,j,noRew,,,,,,2.2133,0,28,0,28,0,1,,,,,,,,,,,,,,,,,
297619,2022-11-15_15h08.13.591,vts_reward_expectancy_bt,2022.2.4,Win32,15.00240038,Chrome,1280,720,,,,,0,585,,,,,,,,,,,,,,,,,160,B,star,1,0,,,,,,,,,,,,,,,,switch,number,numSwt,f,noRew,,,,,,2.4295,0,29,0,29,0,1,,,,,,,,,,,,,,,,,
297619,2022-11-15_15h08.13.591,vts_reward_expectancy_bt,2022.2.4,Win32,15.00240038,Chrome,1280,720,,,,,0,585,,,,,,,,,,,,,,,,,181,W,star,1,0,,,,,,,,,,,,,,,,switch,letter,lettSwt,k,noRew,,,,,,1.5947,0,30,0,30,0,1,,,,,,,,,,,,,,,,,
297619,2022-11-15_15h08.13.591,vts_reward_expectancy_bt,2022.2.4,Win32,15.00240038,Chrome,1280,720,,,,,0,585,,,,,,,,,,,,,,,,,174,H,hexagon,1,0,,,,,,,,,,,,,,,,switch,number,numSwt,f,noRew,,,,,,2.8061,0,31,0,31,0,1,,,,,,,,,,,,,,,,,
297619,2022-11-15_15h08.13.591,vts_reward_expectancy_bt,2022.2.4,Win32,15.00240038,Chrome,1280,720,,,,,0,585,,,,,,,,,,,,,,,,,125,H,triangle,1,0,,,,,,,,,,,,,,,,switch,letter,lettSwt,j,noRew,,,,,,1.9048,0,32,0,32,0,1,,,,,,,,,,,,,,,,,
297619,2022-11-15_15h08.13.591,vts_reward_expectancy_bt,2022.2.4,Win32,15.00240038,Chrome,1280,720,,,,,0,585,,,,,,,,,,,,,,,,,167,D,star,1,0,,,,,,,,,,,,,,,,switch,number,numSwt,f,noRew,,,,,,1.337,0,33,0,33,0,1,,,,,,,,,,,,,,,,,
297619,2022-11-15_15h08.13.591,vts_reward_expectancy_bt,2022.2.4,Win32,15.00240038,Chrome,1280,720,,,,,0,585,,,,,,,,,,,,,,,,,181,U,star,1,0,,,,,,,,,,,,,,,,switch,letter,lettSwt,k,noRew,,,,,,0.8409,0,34,0,34,0,1,,,,,,,,,,,,,,,,,
297619,2022-11-15_15h08.13.591,vts_reward_expectancy_bt,2022.2.4,Win32,15.00240038,Chrome,1280,720,,,,,0,585,,,,,,,,,,,,,,,,,132,B,hexagon,-1,0,,,,,,,,,,,,,,,,switch,no_choice,NA,,noRew,,,,,,,0,35,0,35,0,1,,,,,,,,,,,,,,,,,
297619,2022-11-15_15h08.13.591,vts_reward_expectancy_bt,2022.2.4,Win32,15.00240038,Chrome,1280,720,,,,,0,585,,,,,,,,,,,,,,,,,146,F,triangle,1,0,,,,,,,,,,,,,,,,switch,letter,lettSwt,j,noRew,,,,,,0.8413,0,36,0,36,0,1,,,,,,,,,,,,,,,,,
297619,2022-11-15_15h08.13.591,vts_reward_expectancy_bt,2022.2.4,Win32,15.00240038,Chrome,1280,720,,,,,0,585,,,,,,,,,,,,,,,,,174,D,circle,1,0,,,,,,,,,,,,,,,,repeat,letter,lettRpt,j,noRew,,,,,,1.1469,0,37,0,37,0,1,,,,,,,,,,,,,,,,,
297619,2022-11-15_15h08.13.591,vts_reward_expectancy_bt,2022.2.4,Win32,15.00240038,Chrome,1280,720,,,,,0,585,,,,,,,,,,,,,,,,,139,H,star,1,0,,,,,,,,,,,,,,,,switch,number,numSwt,d,noRew,,,,,,1.6976,0,38,0,38,0,1,,,,,,,,,,,,,,,,,
297619,2022-11-15_15h08.13.591,vts_reward_expectancy_bt,2022.2.4,Win32,15.00240038,Chrome,1280,720,,,,,0,585,,,,,,,,,,,,,,,,,167,U,circle,1,0,,,,,,,,,,,,,,,,switch,letter,lettSwt,k,noRew,,,,,,1.2919,0,39,0,39,0,1,,,,,,,,,,,,,,,,,
297619,2022-11-15_15h08.13.591,vts_reward_expectancy_bt,2022.2.4,Win32,15.00240038,Chrome,1280,720,,,,,0,585,,,,,,,,,,,,,,,,,139,S,circle,1,0,,,,,,,,,,,,,,,,switch,number,numSwt,d,noRew,,,,,,1.3666,0,40,0,40,0,1,,,,,,,,,,,,,,,,,
297619,2022-11-15_15h08.13.591,vts_reward_expectancy_bt,2022.2.4,Win32,15.00240038,Chrome,1280,720,,,,,0,585,,,,,,,,,,,,,,,,,132,D,hexagon,1,0,,,,,,,,,,,,,,,,switch,letter,lettSwt,j,noRew,,,,,,0.8536,0,41,0,41,0,1,,,,,,,,,,,,,,,,,
297619,2022-11-15_15h08.13.591,vts_reward_expectancy_bt,2022.2.4,Win32,15.00240038,Chrome,1280,720,,,,,0,585,,,,,,,,,,,,,,,,,167,U,hexagon,1,0,,,,,,,,,,,,,,,,switch,number,numSwt,f,noRew,,,,,,1.0623,0,42,0,42,0,1,,,,,,,,,,,,,,,,,
297619,2022-11-15_15h08.13.591,vts_reward_expectancy_bt,2022.2.4,Win32,15.00240038,Chrome,1280,720,,,,,0,585,,,,,,,,,,,,,,,,,125,H,circle,1,0,,,,,,,,,,,,,,,,switch,letter,lettSwt,j,noRew,,,,,,2.3618,0,43,0,43,0,1,,,,,,,,,,,,,,,,,
297619,2022-11-15_15h08.13.591,vts_reward_expectancy_bt,2022.2.4,Win32,15.00240038,Chrome,1280,720,,,,,0,585,,,,,,,,,,,,,,,,,160,D,triangle,0,0,,,,,,,,,,,,,,,,switch,number,NA,d,noRew,,,,,,2.6662,0,44,0,44,0,1,,,,,,,,,,,,,,,,,
297619,2022-11-15_15h08.13.591,vts_reward_expectancy_bt,2022.2.4,Win32,15.00240038,Chrome,1280,720,,,,,0,585,,,,,,,,,,,,,,,,,174,W,star,0,1,,,,,,,,,,,,,,,,switch,letter,NA,j,noRew,,,,,,1.4401,0,45,0,45,0,1,,,,,,,,,,,,,,,,,
297619,2022-11-15_15h08.13.591,vts_reward_expectancy_bt,2022.2.4,Win32,15.00240038,Chrome,1280,720,,,,,0,585,,,,,,,,,,,,,,,,,132,H,triangle,1,1,,,,,,,,,,,,,,,,switch,number,numSwt,d,noRew,,,,,,0.8354,0,46,0,46,0,1,,,,,,,,,,,,,,,,,
297619,2022-11-15_15h08.13.591,vts_reward_expectancy_bt,2022.2.4,Win32,15.00240038,Chrome,1280,720,,,,,0,585,,,,,,,,,,,,,,,,,125,Y,star,1,0,,,,,,,,,,,,,,,,switch,letter,lettSwt,k,noRew,,,,,,0.757,0,47,0,47,0,1,,,,,,,,,,,,,,,,,
297619,2022-11-15_15h08.13.591,vts_reward_expectancy_bt,2022.2.4,Win32,15.00240038,Chrome,1280,720,,,,,0,585,,,,,,,,,,,,,,,,,146,D,circle,1,0,,,,,,,,,,,,,,,,switch,number,numSwt,d,noRew,,,,,,1.0043,0,48,0,48,0,1,,,,,,,,,,,,,,,,,
297619,2022-11-15_15h08.13.591,vts_reward_expectancy_bt,2022.2.4,Win32,15.00240038,Chrome,1280,720,,,,,0,585,,,,,,,,,,,,,,,,,167,U,hexagon,1,0,,,,,,,,,,,,,,,,switch,letter,lettSwt,k,noRew,,,,,,1.6737,0,49,0,49,0,1,,,,,,,,,,,,,,,,,
297619,2022-11-15_15h08.13.591,vts_reward_expectancy_bt,2022.2.4,Win32,15.00240038,Chrome,1280,720,,,,,0,585,,,,,,,,,,,,,,,,,139,S,circle,1,0,,,,,,,,,,,,,,,,switch,number,numSwt,d,noRew,,,,,,0.8396,0,50,0,50,0,1,,,,,,,,,,,,,,,,,
297619,2022-11-15_15h08.13.591,vts_reward_expectancy_bt,2022.2.4,Win32,15.00240038,Chrome,1280,720,,,,,0,585,,,,,,,,,,,,,,,,,174,B,star,1,0,,,,,,,,,,,,,,,,switch,letter,lettSwt,j,noRew,,,,,,1.223,0,51,0,51,0,1,,,,,,,,,,,,,,,,,
297619,2022-11-15_15h08.13.591,vts_reward_expectancy_bt,2022.2.4,Win32,15.00240038,Chrome,1280,720,,,,,0,585,,,,,,,,,,,,,,,,,146,W,star,1,0,,,,,,,,,,,,,,,,switch,number,numSwt,d,noRew,,,,,,0.9979,0,52,0,52,0,1,,,,,,,,,,,,,,,,,
297619,2022-11-15_15h08.13.591,vts_reward_expectancy_bt,2022.2.4,Win32,15.00240038,Chrome,1280,720,,,,,0,585,,,,,,,,,,,,,,,,,167,Y,triangle,1,0,,,,,,,,,,,,,,,,switch,letter,lettSwt,k,noRew,,,,,,0.9949,0,53,0,53,0,1,,,,,,,,,,,,,,,,,
297619,2022-11-15_15h08.13.591,vts_reward_expectancy_bt,2022.2.4,Win32,15.00240038,Chrome,1280,720,,,,,0,585,,,,,,,,,,,,,,,,,174,F,circle,1,0,,,,,,,,,,,,,,,,switch,number,numSwt,f,noRew,,,,,,1.9865,0,54,0,54,0,1,,,,,,,,,,,,,,,,,
297619,2022-11-15_15h08.13.591,vts_reward_expectancy_bt,2022.2.4,Win32,15.00240038,Chrome,1280,720,,,,,0,585,,,,,,,,,,,,,,,,,160,S,triangle,1,0,,,,,,,,,,,,,,,,switch,letter,lettSwt,k,noRew,,,,,,1.3745,0,55,0,55,0,1,,,,,,,,,,,,,,,,,
297619,2022-11-15_15h08.13.591,vts_reward_expectancy_bt,2022.2.4,Win32,15.00240038,Chrome,1280,720,,,,,0,585,,,,,,,,,,,,,,,,,174,U,hexagon,1,0,,,,,,,,,,,,,,,,switch,number,numSwt,f,noRew,,,,,,1.9065,0,56,0,56,0,1,,,,,,,,,,,,,,,,,
297619,2022-11-15_15h08.13.591,vts_reward_expectancy_bt,2022.2.4,Win32,15.00240038,Chrome,1280,720,,,,,0,585,,,,,,,,,,,,,,,,,160,H,triangle,1,0,,,,,,,,,,,,,,,,switch,letter,lettSwt,j,noRew,,,,,,2.1259,0,57,0,57,0,1,,,,,,,,,,,,,,,,,
297619,2022-11-15_15h08.13.591,vts_reward_expectancy_bt,2022.2.4,Win32,15.00240038,Chrome,1280,720,,,,,0,585,,,,,,,,,,,,,,,,,139,Y,star,1,0,,,,,,,,,,,,,,,,repeat,letter,lettRpt,k,noRew,,,,,,0.775,0,58,0,58,0,1,,,,,,,,,,,,,,,,,
297619,2022-11-15_15h08.13.591,vts_reward_expectancy_bt,2022.2.4,Win32,15.00240038,Chrome,1280,720,,,,,0,585,,,,,,,,,,,,,,,,,132,B,hexagon,1,0,,,,,,,,,,,,,,,,switch,number,numSwt,d,noRew,,,,,,1.0664,0,59,0,59,0,1,,,,,,,,,,,,,,,,,
297619,2022-11-15_15h08.13.591,vts_reward_expectancy_bt,2022.2.4,Win32,15.00240038,Chrome,1280,720,,,,,0,585,,,,,,,,,,,,,,,,,160,W,circle,1,0,,,,,,,,,,,,,,,,switch,letter,lettSwt,k,noRew,,,,,,0.6936,0,60,0,60,0,1,,,,,,,,,,,,,,,,,
297619,2022-11-15_15h08.13.591,vts_reward_expectancy_bt,2022.2.4,Win32,15.00240038,Chrome,1280,720,,,,,0,585,,,,,,,,,,,,,,,,,132,B,star,1,0,,,,,,,,,,,,,,,,switch,number,numSwt,d,noRew,,,,,,0.4569,0,61,0,61,0,1,,,,,,,,,,,,,,,,,
297619,2022-11-15_15h08.13.591,vts_reward_expectancy_bt,2022.2.4,Win32,15.00240038,Chrome,1280,720,,,,,0,585,,,,,,,,,,,,,,,,,167,H,triangle,1,0,,,,,,,,,,,,,,,,switch,letter,lettSwt,j,noRew,,,,,,1.0631,0,62,0,62,0,1,,,,,,,,,,,,,,,,,
297619,2022-11-15_15h08.13.591,vts_reward_expectancy_bt,2022.2.4,Win32,15.00240038,Chrome,1280,720,,,,,0,585,,,,,,,,,,,,,,,,,174,Y,hexagon,1,0,,,,,,,,,,,,,,,,repeat,letter,lettRpt,k,noRew,,,,,,0.7611,0,63,0,63,0,1,,,,,,,,,,,,,,,,,
297619,2022-11-15_15h08.13.591,vts_reward_expectancy_bt,2022.2.4,Win32,15.00240038,Chrome,1280,720,,,,,,,,,,,,,,,,,,,,,,,,,,,,,,,,,,,,,,,,,,,,,,,,,,,,,,,,,,,,,,,,,,,,,,,,,,,,
297619,2022-11-15_15h08.13.591,vts_reward_expectancy_bt,2022.2.4,Win32,15.00240038,Chrome,1280,720,,,,,0,585,,,,,,,,,,,,,,,,,181,S,triangle,1,0,,,,,,,,,,,,,,,,switch,number,numSwt,f,Hi,,,,,,1.2149,0,,,,,,space,4.7486,high,0,0,0,0,1,,,,,,,,,
297619,2022-11-15_15h08.13.591,vts_reward_expectancy_bt,2022.2.4,Win32,15.00240038,Chrome,1280,720,,,,,1,586,,,,,,,,,,,,,,,,,139,Y,hexagon,1,0,,,,,,,,,,,,,,,,switch,letter,lettSwt,k,Lo,,,,,,0.4649,0,,,,,,,,high,1,0,1,0,1,,,,,,,,,
297619,2022-11-15_15h08.13.591,vts_reward_expectancy_bt,2022.2.4,Win32,15.00240038,Chrome,1280,720,,,,,10,596,,,,,,,,,,,,,,,,,174,F,star,1,0,,,,,,,,,,,,,,,,switch,number,numSwt,f,Hi,,,,,,0.4591,0,,,,,,,,high,2,0,2,0,1,,,,,,,,,
297619,2022-11-15_15h08.13.591,vts_reward_expectancy_bt,2022.2.4,Win32,15.00240038,Chrome,1280,720,,,,,1,597,,,,,,,,,,,,,,,,,132,U,circle,1,0,,,,,,,,,,,,,,,,switch,letter,lettSwt,k,Lo,,,,,,0.5309,0,,,,,,,,high,3,0,3,0,1,,,,,,,,,
297619,2022-11-15_15h08.13.591,vts_reward_expectancy_bt,2022.2.4,Win32,15.00240038,Chrome,1280,720,,,,,10,607,,,,,,,,,,,,,,,,,160,B,triangle,1,0,,,,,,,,,,,,,,,,switch,number,numSwt,f,Hi,,,,,,0.7821,0,,,,,,,,high,4,0,4,0,1,,,,,,,,,
297619,2022-11-15_15h08.13.591,vts_reward_expectancy_bt,2022.2.4,Win32,15.00240038,Chrome,1280,720,,,,,1,608,,,,,,,,,,,,,,,,,167,D,hexagon,1,0,,,,,,,,,,,,,,,,repeat,number,numRpt,f,Lo,,,,,,0.9086,0,,,,,,,,high,5,0,5,0,1,,,,,,,,,
297619,2022-11-15_15h08.13.591,vts_reward_expectancy_bt,2022.2.4,Win32,15.00240038,Chrome,1280,720,,,,,10,618,,,,,,,,,,,,,,,,,125,W,star,1,0,,,,,,,,,,,,,,,,switch,letter,lettSwt,k,Hi,,,,,,0.7671,0,,,,,,,,high,6,0,6,0,1,,,,,,,,,
297619,2022-11-15_15h08.13.591,vts_reward_expectancy_bt,2022.2.4,Win32,15.00240038,Chrome,1280,720,,,,,1,619,,,,,,,,,,,,,,,,,146,H,circle,1,0,,,,,,,,,,,,,,,,switch,number,numSwt,d,Lo,,,,,,1.599,0,,,,,,,,high,7,0,7,0,1,,,,,,,,,
297619,2022-11-15_15h08.13.591,vts_reward_expectancy_bt,2022.2.4,Win32,15.00240038,Chrome,1280,720,,,,,1,620,,,,,,,,,,,,,,,,,181,S,hexagon,1,0,,,,,,,,,,,,,,,,switch,letter,lettSwt,k,Lo,,,,,,1.16,0,,,,,,,,high,8,0,8,0,1,,,,,,,,,
297619,2022-11-15_15h08.13.591,vts_reward_expectancy_bt,2022.2.4,Win32,15.00240038,Chrome,1280,720,,,,,1,621,,,,,,,,,,,,,,,,,139,Y,circle,1,0,,,,,,,,,,,,,,,,switch,number,numSwt,d,Lo,,,,,,1.4427,0,,,,,,,,high,9,0,9,0,1,,,,,,,,,
297619,2022-11-15_15h08.13.591,vts_reward_expectancy_bt,2022.2.4,Win32,15.00240038,Chrome,1280,720,,,,,10,631,,,,,,,,,,,,,,,,,174,F,star,1,0,,,,,,,,,,,,,,,,switch,letter,lettSwt,j,Hi,,,,,,0.9889,0,,,,,,,,high,10,0,10,0,1,,,,,,,,,
297619,2022-11-15_15h08.13.591,vts_reward_expectancy_bt,2022.2.4,Win32,15.00240038,Chrome,1280,720,,,,,0,631,,,,,,,,,,,,,,,,,132,U,triangle,1,0,,,,,,,,,,,,,,,,repeat,letter,lettRpt,k,Hi,,,,,,0.986,0,,,,,,,,high,11,0,11,0,1,,,,,,,,,
297619,2022-11-15_15h08.13.591,vts_reward_expectancy_bt,2022.2.4,Win32,15.00240038,Chrome,1280,720,,,,,1,632,,,,,,,,,,,,,,,,,160,B,hexagon,1,0,,,,,,,,,,,,,,,,repeat,letter,lettRpt,j,Lo,,,,,,0.6271,0,,,,,,,,high,12,0,12,0,1,,,,,,,,,
297619,2022-11-15_15h08.13.591,vts_reward_expectancy_bt,2022.2.4,Win32,15.00240038,Chrome,1280,720,,,,,0,632,,,,,,,,,,,,,,,,,167,D,star,0,0,,,,,,,,,,,,,,,,switch,number,NA,d,Lo,,,,,,0.4584,0,,,,,,,,high,13,0,13,0,1,,,,,,,,,
297619,2022-11-15_15h08.13.591,vts_reward_expectancy_bt,2022.2.4,Win32,15.00240038,Chrome,1280,720,,,,,10,642,,,,,,,,,,,,,,,,,125,W,triangle,1,1,,,,,,,,,,,,,,,,repeat,number,numRpt,d,Hi,,,,,,0.6135,0,,,,,,,,high,14,0,14,0,1,,,,,,,,,
297619,2022-11-15_15h08.13.591,vts_reward_expectancy_bt,2022.2.4,Win32,15.00240038,Chrome,1280,720,,,,,1,643,,,,,,,,,,,,,,,,,146,H,circle,1,0,,,,,,,,,,,,,,,,switch,letter,lettSwt,j,Lo,,,,,,0.8192,0,,,,,,,,high,15,0,15,0,1,,,,,,,,,
297619,2022-11-15_15h08.13.591,vts_reward_expectancy_bt,2022.2.4,Win32,15.00240038,Chrome,1280,720,,,,,1,644,,,,,,,,,,,,,,,,,146,D,hexagon,1,0,,,,,,,,,,,,,,,,repeat,letter,lettRpt,j,Lo,,,,,,1.056,0,,,,,,,,high,16,0,16,0,1,,,,,,,,,
297619,2022-11-15_15h08.13.591,vts_reward_expectancy_bt,2022.2.4,Win32,15.00240038,Chrome,1280,720,,,,,1,645,,,,,,,,,,,,,,,,,174,S,triangle,1,0,,,,,,,,,,,,,,,,switch,number,numSwt,f,Hi,,,,,,0.6154,0,,,,,,,,high,17,0,17,0,1,,,,,,,,,
297619,2022-11-15_15h08.13.591,vts_reward_expectancy_bt,2022.2.4,Win32,15.00240038,Chrome,1280,720,,,,,10,655,,,,,,,,,,,,,,,,,181,Y,star,1,0,,,,,,,,,,,,,,,,switch,letter,lettSwt,k,Hi,,,,,,0.8317,0,,,,,,,,high,18,0,18,0,1,,,,,,,,,
297619,2022-11-15_15h08.13.591,vts_reward_expectancy_bt,2022.2.4,Win32,15.00240038,Chrome,1280,720,,,,,10,665,,,,,,,,,,,,,,,,,160,F,circle,1,0,,,,,,,,,,,,,,,,switch,number,numSwt,f,Lo,,,,,,1.0724,0,,,,,,,,high,19,0,19,0,1,,,,,,,,,
297619,2022-11-15_15h08.13.591,vts_reward_expectancy_bt,2022.2.4,Win32,15.00240038,Chrome,1280,720,,,,,0,665,,,,,,,,,,,,,,,,,139,B,triangle,0,0,,,,,,,,,,,,,,,,switch,letter,NA,k,Lo,,,,,,0.5389,0,,,,,,,,high,20,0,20,0,1,,,,,,,,,
297619,2022-11-15_15h08.13.591,vts_reward_expectancy_bt,2022.2.4,Win32,15.00240038,Chrome,1280,720,,,,,1,666,,,,,,,,,,,,,,,,,167,U,hexagon,1,1,,,,,,,,,,,,,,,,repeat,letter,lettRpt,k,Lo,,,,,,0.308,0,,,,,,,,high,21,0,21,0,1,,,,,,,,,
297619,2022-11-15_15h08.13.591,vts_reward_expectancy_bt,2022.2.4,Win32,15.00240038,Chrome,1280,720,,,,,10,676,,,,,,,,,,,,,,,,,125,W,star,1,0,,,,,,,,,,,,,,,,switch,number,numSwt,d,Hi,,,,,,0.9833,0,,,,,,,,high,22,0,22,0,1,,,,,,,,,
297619,2022-11-15_15h08.13.591,vts_reward_expectancy_bt,2022.2.4,Win32,15.00240038,Chrome,1280,720,,,,,0,676,,,,,,,,,,,,,,,,,132,H,circle,0,0,,,,,,,,,,,,,,,,switch,letter,NA,k,Hi,,,,,,0.9887,0,,,,,,,,high,23,0,23,0,1,,,,,,,,,
297619,2022-11-15_15h08.13.591,vts_reward_expectancy_bt,2022.2.4,Win32,15.00240038,Chrome,1280,720,,,,,0,676,,,,,,,,,,,,,,,,,125,S,hexagon,-1,1,,,,,,,,,,,,,,,,switch,no_choice,NA,,Hi,,,,,,,0,,,,,,,,high,24,0,24,0,1,,,,,,,,,
297619,2022-11-15_15h08.13.591,vts_reward_expectancy_bt,2022.2.4,Win32,15.00240038,Chrome,1280,720,,,,,10,686,,,,,,,,,,,,,,,,,174,D,star,1,0,,,,,,,,,,,,,,,,switch,letter,lettSwt,j,Hi,,,,,,0.8393,0,,,,,,,,high,25,0,25,0,1,,,,,,,,,
297619,2022-11-15_15h08.13.591,vts_reward_expectancy_bt,2022.2.4,Win32,15.00240038,Chrome,1280,720,,,,,1,687,,,,,,,,,,,,,,,,,181,B,circle,1,0,,,,,,,,,,,,,,,,repeat,letter,lettRpt,j,Lo,,,,,,1.1395,0,,,,,,,,high,26,0,26,0,1,,,,,,,,,
297619,2022-11-15_15h08.13.591,vts_reward_expectancy_bt,2022.2.4,Win32,15.00240038,Chrome,1280,720,,,,,1,688,,,,,,,,,,,,,,,,,167,F,triangle,1,0,,,,,,,,,,,,,,,,switch,number,numSwt,f,Hi,,,,,,0.6948,0,,,,,,,,high,27,0,27,0,1,,,,,,,,,
297619,2022-11-15_15h08.13.591,vts_reward_expectancy_bt,2022.2.4,Win32,15.00240038,Chrome,1280,720,,,,,1,689,,,,,,,,,,,,,,,,,139,Y,circle,1,0,,,,,,,,,,,,,,,,switch,letter,lettSwt,k,Lo,,,,,,1.9798,0,,,,,,,,high,28,0,28,0,1,,,,,,,,,
297619,2022-11-15_15h08.13.591,vts_reward_expectancy_bt,2022.2.4,Win32,15.00240038,Chrome,1280,720,,,,,0,689,,,,,,,,,,,,,,,,,146,U,star,0,0,,,,,,,,,,,,,,,,repeat,letter,NA,j,Lo,,,,,,0.7127,0,,,,,,,,high,29,0,29,0,1,,,,,,,,,
297619,2022-11-15_15h08.13.591,vts_reward_expectancy_bt,2022.2.4,Win32,15.00240038,Chrome,1280,720,,,,,1,690,,,,,,,,,,,,,,,,,132,H,hexagon,1,1,,,,,,,,,,,,,,,,repeat,letter,lettRpt,j,Lo,,,,,,1.5366,0,,,,,,,,high,30,0,30,0,1,,,,,,,,,
297619,2022-11-15_15h08.13.591,vts_reward_expectancy_bt,2022.2.4,Win32,15.00240038,Chrome,1280,720,,,,,0,690,,,,,,,,,,,,,,,,,160,W,triangle,1,0,,,,,,,,,,,,,,,,switch,number,numSwt,f,Hi,,,,,,1.3683,0,,,,,,,,high,31,0,31,0,1,,,,,,,,,
297619,2022-11-15_15h08.13.591,vts_reward_expectancy_bt,2022.2.4,Win32,15.00240038,Chrome,1280,720,,,,,0,690,,,,,,,,,,,,,,,,,167,B,circle,0,0,,,,,,,,,,,,,,,,switch,letter,NA,k,Hi,,,,,,0.457,1,,,,,,space,0.8865,high,0,0,0,0,1,,,,,,,,,
297619,2022-11-15_15h08.13.591,vts_reward_expectancy_bt,2022.2.4,Win32,15.00240038,Chrome,1280,720,,,,,10,700,,,,,,,,,,,,,,,,,139,U,star,1,1,,,,,,,,,,,,,,,,switch,number,numSwt,d,Hi,,,,,,0.7598,1,,,,,,,,high,1,0,1,0,1,,,,,,,,,
297619,2022-11-15_15h08.13.591,vts_reward_expectancy_bt,2022.2.4,Win32,15.00240038,Chrome,1280,720,,,,,1,701,,,,,,,,,,,,,,,,,132,W,triangle,1,0,,,,,,,,,,,,,,,,repeat,number,numRpt,d,Hi,,,,,,0.8389,1,,,,,,,,high,2,0,2,0,1,,,,,,,,,
297619,2022-11-15_15h08.13.591,vts_reward_expectancy_bt,2022.2.4,Win32,15.00240038,Chrome,1280,720,,,,,1,702,,,,,,,,,,,,,,,,,181,F,hexagon,1,0,,,,,,,,,,,,,,,,switch,letter,lettSwt,j,Lo,,,,,,0.8433,1,,,,,,,,high,3,0,3,0,1,,,,,,,,,
297619,2022-11-15_15h08.13.591,vts_reward_expectancy_bt,2022.2.4,Win32,15.00240038,Chrome,1280,720,,,,,1,703,,,,,,,,,,,,,,,,,125,S,circle,1,0,,,,,,,,,,,,,,,,switch,number,numSwt,d,Lo,,,,,,1.3758,1,,,,,,,,high,4,0,4,0,1,,,,,,,,,
297619,2022-11-15_15h08.13.591,vts_reward_expectancy_bt,2022.2.4,Win32,15.00240038,Chrome,1280,720,,,,,1,704,,,,,,,,,,,,,,,,,174,Y,star,1,0,,,,,,,,,,,,,,,,repeat,number,numRpt,f,Hi,,,,,,0.844,1,,,,,,,,high,5,0,5,0,1,,,,,,,,,
297619,2022-11-15_15h08.13.591,vts_reward_expectancy_bt,2022.2.4,Win32,15.00240038,Chrome,1280,720,,,,,10,714,,,,,,,,,,,,,,,,,146,H,triangle,1,0,,,,,,,,,,,,,,,,switch,letter,lettSwt,j,Hi,,,,,,0.6884,1,,,,,,,,high,6,0,6,0,1,,,,,,,,,
297619,2022-11-15_15h08.13.591,vts_reward_expectancy_bt,2022.2.4,Win32,15.00240038,Chrome,1280,720,,,,,10,724,,,,,,,,,,,,,,,,,160,D,hexagon,1,0,,,,,,,,,,,,,,,,switch,number,numSwt,f,Lo,,,,,,0.9842,1,,,,,,,,high,7,0,7,0,1,,,,,,,,,
297619,2022-11-15_15h08.13.591,vts_reward_expectancy_bt,2022.2.4,Win32,15.00240038,Chrome,1280,720,,,,,0,724,,,,,,,,,,,,,,,,,167,B,star,1,0,,,,,,,,,,,,,,,,switch,letter,lettSwt,j,Hi,,,,,,1.0703,1,,,,,,,,high,8,0,8,0,1,,,,,,,,,
297619,2022-11-15_15h08.13.591,vts_reward_expectancy_bt,2022.2.4,Win32,15.00240038,Chrome,1280,720,,,,,1,725,,,,,,,,,,,,,,,,,139,U,hexagon,1,0,,,,,,,,,,,,,,,,switch,number,numSwt,d,Lo,,,,,,0.9165,1,,,,,,,,high,9,0,9,0,1,,,,,,,,,
297619,2022-11-15_15h08.13.591,vts_reward_expectancy_bt,2022.2.4,Win32,15.00240038,Chrome,1280,720,,,,,10,735,,,,,,,,,,,,,,,,,132,W,triangle,1,0,,,,,,,,,,,,,,,,switch,letter,lettSwt,k,Hi,,,,,,0.7717,1,,,,,,,,high,10,0,10,0,1,,,,,,,,,
297619,2022-11-15_15h08.13.591,vts_reward_expectancy_bt,2022.2.4,Win32,15.00240038,Chrome,1280,720,,,,,1,736,,,,,,,,,,,,,,,,,181,F,circle,1,0,,,,,,,,,,,,,,,,switch,number,numSwt,f,Lo,,,,,,0.754,1,,,,,,,,high,11,0,11,0,1,,,,,,,,,
297619,2022-11-15_15h08.13.591,vts_reward_expectancy_bt,2022.2.4,Win32,15.00240038,Chrome,1280,720,,,,,1,737,,,,,,,,,,,,,,,,,125,S,circle,1,0,,,,,,,,,,,,,,,,switch,letter,lettSwt,k,Lo,,,,,,0.7687,1,,,,,,,,high,12,0,12,0,1,,,,,,,,,
297619,2022-11-15_15h08.13.591,vts_reward_expectancy_bt,2022.2.4,Win32,15.00240038,Chrome,1280,720,,,,,1,738,,,,,,,,,,,,,,,,,174,Y,hexagon,1,0,,,,,,,,,,,,,,,,switch,number,numSwt,f,Lo,,,,,,0.6863,1,,,,,,,,high,13,0,13,0,1,,,,,,,,,
297619,2022-11-15_15h08.13.591,vts_reward_expectancy_bt,2022.2.4,Win32,15.00240038,Chrome,1280,720,,,,,0,738,,,,,,,,,,,,,,,,,146,H,triangle,0,0,,,,,,,,,,,,,,,,switch,letter,NA,k,Lo,,,,,,0.8344,1,,,,,,,,high,14,0,14,0,1,,,,,,,,,
297619,2022-11-15_15h08.13.591,vts_reward_expectancy_bt,2022.2.4,Win32,15.00240038,Chrome,1280,720,,,,,10,748,,,,,,,,,,,,,,,,,160,D,star,1,1,,,,,,,,,,,,,,,,switch,number,numSwt,f,Hi,,,,,,0.7742,1,,,,,,,,high,15,0,15,0,1,,,,,,,,,
297619,2022-11-15_15h08.13.591,vts_reward_expectancy_bt,2022.2.4,Win32,15.00240038,Chrome,1280,720,,,,,1,749,,,,,,,,,,,,,,,,,132,Y,triangle,1,0,,,,,,,,,,,,,,,,switch,letter,lettSwt,k,Hi,,,,,,0.7702,1,,,,,,,,high,16,0,16,0,1,,,,,,,,,
297619,2022-11-15_15h08.13.591,vts_reward_expectancy_bt,2022.2.4,Win32,15.00240038,Chrome,1280,720,,,,,1,750,,,,,,,,,,,,,,,,,181,S,circle,1,0,,,,,,,,,,,,,,,,switch,number,numSwt,f,Lo,,,,,,1.1514,1,,,,,,,,high,17,0,17,0,1,,,,,,,,,
297619,2022-11-15_15h08.13.591,vts_reward_expectancy_bt,2022.2.4,Win32,15.00240038,Chrome,1280,720,,,,,1,751,,,,,,,,,,,,,,,,,174,B,hexagon,1,0,,,,,,,,,,,,,,,,switch,letter,lettSwt,j,Lo,,,,,,0.8381,1,,,,,,,,high,18,0,18,0,1,,,,,,,,,
297619,2022-11-15_15h08.13.591,vts_reward_expectancy_bt,2022.2.4,Win32,15.00240038,Chrome,1280,720,,,,,0,751,,,,,,,,,,,,,,,,,125,F,star,1,0,,,,,,,,,,,,,,,,repeat,letter,lettRpt,j,Hi,,,,,,1.2221,1,,,,,,,,high,19,0,19,0,1,,,,,,,,,
297619,2022-11-15_15h08.13.591,vts_reward_expectancy_bt,2022.2.4,Win32,15.00240038,Chrome,1280,720,,,,,1,752,,,,,,,,,,,,,,,,,167,U,hexagon,1,0,,,,,,,,,,,,,,,,switch,number,numSwt,f,Lo,,,,,,0.6873,1,,,,,,,,high,20,0,20,0,1,,,,,,,,,
297619,2022-11-15_15h08.13.591,vts_reward_expectancy_bt,2022.2.4,Win32,15.00240038,Chrome,1280,720,,,,,10,762,,,,,,,,,,,,,,,,,160,D,circle,1,0,,,,,,,,,,,,,,,,switch,letter,lettSwt,j,Lo,,,,,,0.6066,1,,,,,,,,high,21,0,21,0,1,,,,,,,,,
297619,2022-11-15_15h08.13.591,vts_reward_expectancy_bt,2022.2.4,Win32,15.00240038,Chrome,1280,720,,,,,0,762,,,,,,,,,,,,,,,,,146,W,triangle,1,0,,,,,,,,,,,,,,,,switch,number,numSwt,d,Hi,,,,,,0.8383,1,,,,,,,,high,22,0,22,0,1,,,,,,,,,
297619,2022-11-15_15h08.13.591,vts_reward_expectancy_bt,2022.2.4,Win32,15.00240038,Chrome,1280,720,,,,,0,762,,,,,,,,,,,,,,,,,139,H,star,1,0,,,,,,,,,,,,,,,,switch,letter,lettSwt,j,Hi,,,,,,0.8404,1,,,,,,,,high,23,0,23,0,1,,,,,,,,,
297619,2022-11-15_15h08.13.591,vts_reward_expectancy_bt,2022.2.4,Win32,15.00240038,Chrome,1280,720,,,,,0,762,,,,,,,,,,,,,,,,,125,B,triangle,1,0,,,,,,,,,,,,,,,,repeat,letter,lettRpt,j,Hi,,,,,,1.1422,1,,,,,,,,high,24,0,24,0,1,,,,,,,,,
297619,2022-11-15_15h08.13.591,vts_reward_expectancy_bt,2022.2.4,Win32,15.00240038,Chrome,1280,720,,,,,0,762,,,,,,,,,,,,,,,,,181,S,star,0,0,,,,,,,,,,,,,,,,repeat,letter,NA,j,Hi,,,,,,0.9148,1,,,,,,,,high,25,0,25,0,1,,,,,,,,,
297619,2022-11-15_15h08.13.591,vts_reward_expectancy_bt,2022.2.4,Win32,15.00240038,Chrome,1280,720,,,,,1,763,,,,,,,,,,,,,,,,,174,D,circle,1,1,,,,,,,,,,,,,,,,repeat,letter,lettRpt,j,Lo,,,,,,0.683,1,,,,,,,,high,26,0,26,0,1,,,,,,,,,
297619,2022-11-15_15h08.13.591,vts_reward_expectancy_bt,2022.2.4,Win32,15.00240038,Chrome,1280,720,,,,,1,764,,,,,,,,,,,,,,,,,146,U,hexagon,1,0,,,,,,,,,,,,,,,,repeat,letter,lettRpt,k,Lo,,,,,,0.7644,1,,,,,,,,high,27,0,27,0,1,,,,,,,,,
297619,2022-11-15_15h08.13.591,vts_reward_expectancy_bt,2022.2.4,Win32,15.00240038,Chrome,1280,720,,,,,1,765,,,,,,,,,,,,,,,,,139,Y,hexagon,1,0,,,,,,,,,,,,,,,,repeat,letter,lettRpt,k,Lo,,,,,,1.2074,1,,,,,,,,high,28,0,28,0,1,,,,,,,,,
297619,2022-11-15_15h08.13.591,vts_reward_expectancy_bt,2022.2.4,Win32,15.00240038,Chrome,1280,720,,,,,0,765,,,,,,,,,,,,,,,,,132,H,triangle,0,0,,,,,,,,,,,,,,,,repeat,letter,NA,k,Lo,,,,,,1.0643,1,,,,,,,,high,29,0,29,0,1,,,,,,,,,
297619,2022-11-15_15h08.13.591,vts_reward_expectancy_bt,2022.2.4,Win32,15.00240038,Chrome,1280,720,,,,,1,766,,,,,,,,,,,,,,,,,160,W,circle,1,1,,,,,,,,,,,,,,,,repeat,letter,lettRpt,k,Lo,,,,,,0.6832,1,,,,,,,,high,30,0,30,0,1,,,,,,,,,
297619,2022-11-15_15h08.13.591,vts_reward_expectancy_bt,2022.2.4,Win32,15.00240038,Chrome,1280,720,,,,,0,766,,,,,,,,,,,,,,,,,167,F,star,0,0,,,,,,,,,,,,,,,,repeat,letter,NA,k,Lo,,,,,,0.6304,1,,,,,,,,high,31,0,31,0,1,,,,,,,,,
297619,2022-11-15_15h08.13.591,vts_reward_expectancy_bt,2022.2.4,Win32,15.00240038,Chrome,1280,720,,,,,0,766,,,,,,,,,,,,,,,,,146,U,hexagon,0,1,,,,,,,,,,,,,,,,switch,number,NA,f,Lo,,,,,,0.7612,2,,,,,,space,1.1874,high,0,0,0,0,1,,,,,,,,,
297619,2022-11-15_15h08.13.591,vts_reward_expectancy_bt,2022.2.4,Win32,15.00240038,Chrome,1280,720,,,,,0,766,,,,,,,,,,,,,,,,,181,D,star,1,1,,,,,,,,,,,,,,,,repeat,number,numRpt,f,Hi,,,,,,0.8492,2,,,,,,,,high,1,0,1,0,1,,,,,,,,,
297619,2022-11-15_15h08.13.591,vts_reward_expectancy_bt,2022.2.4,Win32,15.00240038,Chrome,1280,720,,,,,1,767,,,,,,,,,,,,,,,,,167,H,circle,1,0,,,,,,,,,,,,,,,,switch,letter,lettSwt,j,Lo,,,,,,0.6831,2,,,,,,,,high,2,0,2,0,1,,,,,,,,,
297619,2022-11-15_15h08.13.591,vts_reward_expectancy_bt,2022.2.4,Win32,15.00240038,Chrome,1280,720,,,,,10,777,,,,,,,,,,,,,,,,,160,S,triangle,1,0,,,,,,,,,,,,,,,,switch,number,numSwt,f,Hi,,,,,,0.1617,2,,,,,,,,high,3,0,3,0,1,,,,,,,,,
297619,2022-11-15_15h08.13.591,vts_reward_expectancy_bt,2022.2.4,Win32,15.00240038,Chrome,1280,720,,,,,10,787,,,,,,,,,,,,,,,,,132,W,hexagon,1,0,,,,,,,,,,,,,,,,switch,letter,lettSwt,k,Lo,,,,,,0.3139,2,,,,,,,,high,4,0,4,0,1,,,,,,,,,
297619,2022-11-15_15h08.13.591,vts_reward_expectancy_bt,2022.2.4,Win32,15.00240038,Chrome,1280,720,,,,,10,797,,,,,,,,,,,,,,,,,125,Y,star,1,0,,,,,,,,,,,,,,,,switch,number,numSwt,d,Hi,,,,,,0.3834,2,,,,,,,,high,5,0,5,0,1,,,,,,,,,
297619,2022-11-15_15h08.13.591,vts_reward_expectancy_bt,2022.2.4,Win32,15.00240038,Chrome,1280,720,,,,,0,797,,,,,,,,,,,,,,,,,139,F,circle,0,0,,,,,,,,,,,,,,,,switch,letter,NA,k,Hi,,,,,,0.6052,2,,,,,,,,high,6,0,6,0,1,,,,,,,,,
297619,2022-11-15_15h08.13.591,vts_reward_expectancy_bt,2022.2.4,Win32,15.00240038,Chrome,1280,720,,,,,1,798,,,,,,,,,,,,,,,,,174,B,triangle,1,1,,,,,,,,,,,,,,,,switch,number,numSwt,f,Hi,,,,,,0.4618,2,,,,,,,,high,7,0,7,0,1,,,,,,,,,
297619,2022-11-15_15h08.13.591,vts_reward_expectancy_bt,2022.2.4,Win32,15.00240038,Chrome,1280,720,,,,,0,798,,,,,,,,,,,,,,,,,146,U,triangle,1,0,,,,,,,,,,,,,,,,switch,letter,lettSwt,k,Hi,,,,,,0.8514,2,,,,,,,,high,8,0,8,0,1,,,,,,,,,
297619,2022-11-15_15h08.13.591,vts_reward_expectancy_bt,2022.2.4,Win32,15.00240038,Chrome,1280,720,,,,,0,798,,,,,,,,,,,,,,,,,181,D,star,1,0,,,,,,,,,,,,,,,,switch,number,numSwt,f,Hi,,,,,,0.9844,2,,,,,,,,high,9,0,9,0,1,,,,,,,,,
297619,2022-11-15_15h08.13.591,vts_reward_expectancy_bt,2022.2.4,Win32,15.00240038,Chrome,1280,720,,,,,0,798,,,,,,,,,,,,,,,,,167,H,hexagon,0,0,,,,,,,,,,,,,,,,switch,letter,NA,k,Hi,,,,,,0.4638,2,,,,,,,,high,10,0,10,0,1,,,,,,,,,
297619,2022-11-15_15h08.13.591,vts_reward_expectancy_bt,2022.2.4,Win32,15.00240038,Chrome,1280,720,,,,,1,799,,,,,,,,,,,,,,,,,160,S,circle,1,1,,,,,,,,,,,,,,,,switch,number,numSwt,f,Lo,,,,,,0.3913,2,,,,,,,,high,11,0,11,0,1,,,,,,,,,
297619,2022-11-15_15h08.13.591,vts_reward_expectancy_bt,2022.2.4,Win32,15.00240038,Chrome,1280,720,,,,,1,800,,,,,,,,,,,,,,,,,132,W,hexagon,1,0,,,,,,,,,,,,,,,,switch,letter,lettSwt,k,Lo,,,,,,0.5145,2,,,,,,,,high,12,0,12,0,1,,,,,,,,,
297619,2022-11-15_15h08.13.591,vts_reward_expectancy_bt,2022.2.4,Win32,15.00240038,Chrome,1280,720,,,,,0,800,,,,,,,,,,,,,,,,,125,Y,star,1,0,,,,,,,,,,,,,,,,switch,number,numSwt,d,Hi,,,,,,0.833,2,,,,,,,,high,13,0,13,0,1,,,,,,,,,
297619,2022-11-15_15h08.13.591,vts_reward_expectancy_bt,2022.2.4,Win32,15.00240038,Chrome,1280,720,,,,,0,800,,,,,,,,,,,,,,,,,139,F,circle,0,0,,,,,,,,,,,,,,,,repeat,number,NA,f,Hi,,,,,,0.7678,2,,,,,,,,high,14,0,14,0,1,,,,,,,,,
297619,2022-11-15_15h08.13.591,vts_reward_expectancy_bt,2022.2.4,Win32,15.00240038,Chrome,1280,720,,,,,0,800,,,,,,,,,,,,,,,,,174,B,triangle,0,1,,,,,,,,,,,,,,,,switch,letter,NA,k,Hi,,,,,,0.6215,2,,,,,,,,high,15,0,15,0,1,,,,,,,,,
297619,2022-11-15_15h08.13.591,vts_reward_expectancy_bt,2022.2.4,Win32,15.00240038,Chrome,1280,720,,,,,10,810,,,,,,,,,,,,,,,,,146,B,circle,1,1,,,,,,,,,,,,,,,,switch,number,numSwt,d,Lo,,,,,,1.0731,2,,,,,,,,high,16,0,16,0,1,,,,,,,,,
297619,2022-11-15_15h08.13.591,vts_reward_expectancy_bt,2022.2.4,Win32,15.00240038,Chrome,1280,720,,,,,10,820,,,,,,,,,,,,,,,,,174,W,star,1,0,,,,,,,,,,,,,,,,switch,letter,lettSwt,k,Hi,,,,,,0.7646,2,,,,,,,,high,17,0,17,0,1,,,,,,,,,
297619,2022-11-15_15h08.13.591,vts_reward_expectancy_bt,2022.2.4,Win32,15.00240038,Chrome,1280,720,,,,,10,830,,,,,,,,,,,,,,,,,125,D,triangle,1,0,,,,,,,,,,,,,,,,switch,number,numSwt,d,Hi,,,,,,0.7579,2,,,,,,,,high,18,0,18,0,1,,,,,,,,,
297619,2022-11-15_15h08.13.591,vts_reward_expectancy_bt,2022.2.4,Win32,15.00240038,Chrome,1280,720,,,,,1,831,,,,,,,,,,,,,,,,,181,S,hexagon,1,0,,,,,,,,,,,,,,,,repeat,number,numRpt,f,Lo,,,,,,1.0753,2,,,,,,,,high,19,0,19,0,1,,,,,,,,,
297619,2022-11-15_15h08.13.591,vts_reward_expectancy_bt,2022.2.4,Win32,15.00240038,Chrome,1280,720,,,,,10,841,,,,,,,,,,,,,,,,,139,F,star,1,0,,,,,,,,,,,,,,,,repeat,number,numRpt,d,Hi,,,,,,0.8365,2,,,,,,,,high,20,0,20,0,1,,,,,,,,,
297619,2022-11-15_15h08.13.591,vts_reward_expectancy_bt,2022.2.4,Win32,15.00240038,Chrome,1280,720,,,,,1,842,,,,,,,,,,,,,,,,,132,Y,hexagon,1,0,,,,,,,,,,,,,,,,switch,letter,lettSwt,k,Lo,,,,,,0.9946,2,,,,,,,,high,21,0,21,0,1,,,,,,,,,
297619,2022-11-15_15h08.13.591,vts_reward_expectancy_bt,2022.2.4,Win32,15.00240038,Chrome,1280,720,,,,,0,842,,,,,,,,,,,,,,,,,160,H,triangle,1,0,,,,,,,,,,,,,,,,switch,number,numSwt,f,Hi,,,,,,1.6611,2,,,,,,,,high,22,0,22,0,1,,,,,,,,,
297619,2022-11-15_15h08.13.591,vts_reward_expectancy_bt,2022.2.4,Win32,15.00240038,Chrome,1280,720,,,,,1,843,,,,,,,,,,,,,,,,,167,U,circle,1,0,,,,,,,,,,,,,,,,switch,letter,lettSwt,k,Lo,,,,,,0.7739,2,,,,,,,,high,23,0,23,0,1,,,,,,,,,
297619,2022-11-15_15h08.13.591,vts_reward_expectancy_bt,2022.2.4,Win32,15.00240038,Chrome,1280,720,,,,,1,844,,,,,,,,,,,,,,,,,174,F,hexagon,1,0,,,,,,,,,,,,,,,,switch,number,numSwt,f,Lo,,,,,,0.5334,2,,,,,,,,high,24,0,24,0,1,,,,,,,,,
297619,2022-11-15_15h08.13.591,vts_reward_expectancy_bt,2022.2.4,Win32,15.00240038,Chrome,1280,720,,,,,0,844,,,,,,,,,,,,,,,,,146,D,star,0,0,,,,,,,,,,,,,,,,switch,letter,NA,k,Lo,,,,,,0.7767,2,,,,,,,,high,25,0,25,0,1,,,,,,,,,
297619,2022-11-15_15h08.13.591,vts_reward_expectancy_bt,2022.2.4,Win32,15.00240038,Chrome,1280,720,,,,,0,844,,,,,,,,,,,,,,,,,125,H,triangle,1,1,,,,,,,,,,,,,,,,switch,number,numSwt,d,Hi,,,,,,0.7628,2,,,,,,,,high,26,0,26,0,1,,,,,,,,,
297619,2022-11-15_15h08.13.591,vts_reward_expectancy_bt,2022.2.4,Win32,15.00240038,Chrome,1280,720,,,,,1,845,,,,,,,,,,,,,,,,,160,Y,circle,1,0,,,,,,,,,,,,,,,,switch,letter,lettSwt,k,Lo,,,,,,0.9896,2,,,,,,,,high,27,0,27,0,1,,,,,,,,,
297619,2022-11-15_15h08.13.591,vts_reward_expectancy_bt,2022.2.4,Win32,15.00240038,Chrome,1280,720,,,,,1,846,,,,,,,,,,,,,,,,,181,U,circle,1,0,,,,,,,,,,,,,,,,repeat,letter,lettRpt,k,Lo,,,,,,0.7774,2,,,,,,,,high,28,0,28,0,1,,,,,,,,,
297619,2022-11-15_15h08.13.591,vts_reward_expectancy_bt,2022.2.4,Win32,15.00240038,Chrome,1280,720,,,,,10,856,,,,,,,,,,,,,,,,,167,W,star,1,0,,,,,,,,,,,,,,,,switch,number,numSwt,f,Hi,,,,,,0.5347,2,,,,,,,,high,29,0,29,0,1,,,,,,,,,
297619,2022-11-15_15h08.13.591,vts_reward_expectancy_bt,2022.2.4,Win32,15.00240038,Chrome,1280,720,,,,,0,856,,,,,,,,,,,,,,,,,139,B,triangle,1,0,,,,,,,,,,,,,,,,repeat,number,numRpt,d,Hi,,,,,,1.3729,2,,,,,,,,high,30,0,30,0,1,,,,,,,,,
297619,2022-11-15_15h08.13.591,vts_reward_expectancy_bt,2022.2.4,Win32,15.00240038,Chrome,1280,720,,,,,1,857,,,,,,,,,,,,,,,,,132,S,hexagon,1,0,,,,,,,,,,,,,,,,switch,letter,lettSwt,k,Lo,,,,,,0.5318,2,,,,,,,,high,31,0,31,0,1,,,,,,,,,
297619,2022-11-15_15h08.13.591,vts_reward_expectancy_bt,2022.2.4,Win32,15.00240038,Chrome,1280,720,,,,,0,857,,,,,,,,,,,,,,,,,167,F,triangle,0,0,,,,,,,,,,,,,,,,repeat,letter,NA,k,Lo,,,,,,0.0831,3,,,,,,space,0.7101,high,0,0,0,0,1,,,,,,,,,
297619,2022-11-15_15h08.13.591,vts_reward_expectancy_bt,2022.2.4,Win32,15.00240038,Chrome,1280,720,,,,,10,867,,,,,,,,,,,,,,,,,139,W,circle,1,1,,,,,,,,,,,,,,,,switch,number,numSwt,d,Lo,,,,,,0.5493,3,,,,,,,,high,1,0,1,0,1,,,,,,,,,
297619,2022-11-15_15h08.13.591,vts_reward_expectancy_bt,2022.2.4,Win32,15.00240038,Chrome,1280,720,,,,,0,867,,,,,,,,,,,,,,,,,132,S,star,1,0,,,,,,,,,,,,,,,,switch,letter,lettSwt,k,Hi,,,,,,0.8416,3,,,,,,,,high,2,0,2,0,1,,,,,,,,,
297619,2022-11-15_15h08.13.591,vts_reward_expectancy_bt,2022.2.4,Win32,15.00240038,Chrome,1280,720,,,,,10,877,,,,,,,,,,,,,,,,,160,U,hexagon,1,0,,,,,,,,,,,,,,,,switch,number,numSwt,f,Lo,,,,,,0.4587,3,,,,,,,,high,3,0,3,0,1,,,,,,,,,
297619,2022-11-15_15h08.13.591,vts_reward_expectancy_bt,2022.2.4,Win32,15.00240038,Chrome,1280,720,,,,,0,877,,,,,,,,,,,,,,,,,181,B,triangle,1,0,,,,,,,,,,,,,,,,switch,letter,lettSwt,j,Hi,,,,,,0.8399,3,,,,,,,,high,4,0,4,0,1,,,,,,,,,
297619,2022-11-15_15h08.13.591,vts_reward_expectancy_bt,2022.2.4,Win32,15.00240038,Chrome,1280,720,,,,,0,877,,,,,,,,,,,,,,,,,174,Y,circle,0,0,,,,,,,,,,,,,,,,switch,number,NA,d,Hi,,,,,,0.5523,3,,,,,,,,high,5,0,5,0,1,,,,,,,,,
297619,2022-11-15_15h08.13.591,vts_reward_expectancy_bt,2022.2.4,Win32,15.00240038,Chrome,1280,720,,,,,0,877,,,,,,,,,,,,,,,,,125,H,star,0,1,,,,,,,,,,,,,,,,switch,letter,NA,k,Hi,,,,,,0.6111,3,,,,,,,,high,6,0,6,0,1,,,,,,,,,
297619,2022-11-15_15h08.13.591,vts_reward_expectancy_bt,2022.2.4,Win32,15.00240038,Chrome,1280,720,,,,,1,878,,,,,,,,,,,,,,,,,146,D,hexagon,1,1,,,,,,,,,,,,,,,,switch,number,numSwt,d,Lo,,,,,,0.6875,3,,,,,,,,high,7,0,7,0,1,,,,,,,,,
297619,2022-11-15_15h08.13.591,vts_reward_expectancy_bt,2022.2.4,Win32,15.00240038,Chrome,1280,720,,,,,10,888,,,,,,,,,,,,,,,,,167,F,circle,1,0,,,,,,,,,,,,,,,,repeat,number,numRpt,f,Lo,,,,,,0.765,3,,,,,,,,high,8,0,8,0,1,,,,,,,,,
297619,2022-11-15_15h08.13.591,vts_reward_expectancy_bt,2022.2.4,Win32,15.00240038,Chrome,1280,720,,,,,10,898,,,,,,,,,,,,,,,,,139,W,triangle,1,0,,,,,,,,,,,,,,,,switch,letter,lettSwt,k,Hi,,,,,,0.6159,3,,,,,,,,high,9,0,9,0,1,,,,,,,,,
297619,2022-11-15_15h08.13.591,vts_reward_expectancy_bt,2022.2.4,Win32,15.00240038,Chrome,1280,720,,,,,10,908,,,,,,,,,,,,,,,,,132,S,hexagon,1,0,,,,,,,,,,,,,,,,switch,number,numSwt,d,Lo,,,,,,0.6261,3,,,,,,,,high,10,0,10,0,1,,,,,,,,,
297619,2022-11-15_15h08.13.591,vts_reward_expectancy_bt,2022.2.4,Win32,15.00240038,Chrome,1280,720,,,,,0,908,,,,,,,,,,,,,,,,,160,U,star,1,0,,,,,,,,,,,,,,,,switch,letter,lettSwt,k,Hi,,,,,,0.9382,3,,,,,,,,high,11,0,11,0,1,,,,,,,,,
297619,2022-11-15_15h08.13.591,vts_reward_expectancy_bt,2022.2.4,Win32,15.00240038,Chrome,1280,720,,,,,1,909,,,,,,,,,,,,,,,,,181,B,triangle,1,0,,,,,,,,,,,,,,,,switch,number,numSwt,f,Hi,,,,,,0.4632,3,,,,,,,,high,12,0,12,0,1,,,,,,,,,
297619,2022-11-15_15h08.13.591,vts_reward_expectancy_bt,2022.2.4,Win32,15.00240038,Chrome,1280,720,,,,,1,910,,,,,,,,,,,,,,,,,174,Y,hexagon,1,0,,,,,,,,,,,,,,,,switch,letter,lettSwt,k,Lo,,,,,,0.8408,3,,,,,,,,high,13,0,13,0,1,,,,,,,,,
297619,2022-11-15_15h08.13.591,vts_reward_expectancy_bt,2022.2.4,Win32,15.00240038,Chrome,1280,720,,,,,0,910,,,,,,,,,,,,,,,,,125,H,star,1,0,,,,,,,,,,,,,,,,switch,number,numSwt,d,Hi,,,,,,1.1632,3,,,,,,,,high,14,0,14,0,1,,,,,,,,,
297619,2022-11-15_15h08.13.591,vts_reward_expectancy_bt,2022.2.4,Win32,15.00240038,Chrome,1280,720,,,,,0,910,,,,,,,,,,,,,,,,,146,D,circle,0,0,,,,,,,,,,,,,,,,switch,letter,NA,k,Hi,,,,,,0.6221,3,,,,,,,,high,15,0,15,0,1,,,,,,,,,
297619,2022-11-15_15h08.13.591,vts_reward_expectancy_bt,2022.2.4,Win32,15.00240038,Chrome,1280,720,,,,,1,911,,,,,,,,,,,,,,,,,174,F,hexagon,1,1,,,,,,,,,,,,,,,,switch,number,numSwt,f,Lo,,,,,,0.9856,3,,,,,,,,high,16,0,16,0,1,,,,,,,,,
297619,2022-11-15_15h08.13.591,vts_reward_expectancy_bt,2022.2.4,Win32,15.00240038,Chrome,1280,720,,,,,0,911,,,,,,,,,,,,,,,,,146,S,star,0,0,,,,,,,,,,,,,,,,repeat,number,NA,f,Lo,,,,,,0.7816,3,,,,,,,,high,17,0,17,0,1,,,,,,,,,
297619,2022-11-15_15h08.13.591,vts_reward_expectancy_bt,2022.2.4,Win32,15.00240038,Chrome,1280,720,,,,,0,911,,,,,,,,,,,,,,,,,125,B,circle,0,1,,,,,,,,,,,,,,,,switch,letter,NA,k,Lo,,,,,,0.7617,3,,,,,,,,high,18,0,18,0,1,,,,,,,,,
297619,2022-11-15_15h08.13.591,vts_reward_expectancy_bt,2022.2.4,Win32,15.00240038,Chrome,1280,720,,,,,0,911,,,,,,,,,,,,,,,,,132,Y,triangle,1,1,,,,,,,,,,,,,,,,switch,number,numSwt,d,Hi,,,,,,0.6129,3,,,,,,,,high,19,0,19,0,1,,,,,,,,,
297619,2022-11-15_15h08.13.591,vts_reward_expectancy_bt,2022.2.4,Win32,15.00240038,Chrome,1280,720,,,,,0,911,,,,,,,,,,,,,,,,,160,U,star,1,0,,,,,,,,,,,,,,,,switch,letter,lettSwt,k,Hi,,,,,,0.7725,3,,,,,,,,high,20,0,20,0,1,,,,,,,,,
297619,2022-11-15_15h08.13.591,vts_reward_expectancy_bt,2022.2.4,Win32,15.00240038,Chrome,1280,720,,,,,0,911,,,,,,,,,,,,,,,,,139,W,triangle,0,0,,,,,,,,,,,,,,,,switch,number,NA,f,Hi,,,,,,0.5384,3,,,,,,,,high,21,0,21,0,1,,,,,,,,,
297619,2022-11-15_15h08.13.591,vts_reward_expectancy_bt,2022.2.4,Win32,15.00240038,Chrome,1280,720,,,,,0,911,,,,,,,,,,,,,,,,,167,H,hexagon,0,1,,,,,,,,,,,,,,,,switch,letter,NA,k,Hi,,,,,,0.6127,3,,,,,,,,high,22,0,22,0,1,,,,,,,,,
297619,2022-11-15_15h08.13.591,vts_reward_expectancy_bt,2022.2.4,Win32,15.00240038,Chrome,1280,720,,,,,0,911,,,,,,,,,,,,,,,,,181,D,circle,0,1,,,,,,,,,,,,,,,,repeat,letter,NA,k,Hi,,,,,,0.6132,3,,,,,,,,high,23,0,23,0,1,,,,,,,,,
297619,2022-11-15_15h08.13.591,vts_reward_expectancy_bt,2022.2.4,Win32,15.00240038,Chrome,1280,720,,,,,0,911,,,,,,,,,,,,,,,,,125,F,star,0,1,,,,,,,,,,,,,,,,repeat,letter,NA,k,Hi,,,,,,0.5409,3,,,,,,,,high,24,0,24,0,1,,,,,,,,,
297619,2022-11-15_15h08.13.591,vts_reward_expectancy_bt,2022.2.4,Win32,15.00240038,Chrome,1280,720,,,,,10,921,,,,,,,,,,,,,,,,,132,B,circle,1,1,,,,,,,,,,,,,,,,repeat,letter,lettRpt,j,Lo,,,,,,0.6875,3,,,,,,,,high,25,0,25,0,1,,,,,,,,,
297619,2022-11-15_15h08.13.591,vts_reward_expectancy_bt,2022.2.4,Win32,15.00240038,Chrome,1280,720,,,,,1,922,,,,,,,,,,,,,,,,,146,D,hexagon,1,0,,,,,,,,,,,,,,,,switch,number,numSwt,d,Lo,,,,,,0.9294,3,,,,,,,,high,26,0,26,0,1,,,,,,,,,
297619,2022-11-15_15h08.13.591,vts_reward_expectancy_bt,2022.2.4,Win32,15.00240038,Chrome,1280,720,,,,,0,922,,,,,,,,,,,,,,,,,160,H,triangle,0,0,,,,,,,,,,,,,,,,switch,letter,NA,k,Lo,,,,,,1.6684,3,,,,,,,,high,27,0,27,0,1,,,,,,,,,
297619,2022-11-15_15h08.13.591,vts_reward_expectancy_bt,2022.2.4,Win32,15.00240038,Chrome,1280,720,,,,,0,922,,,,,,,,,,,,,,,,,139,S,star,1,1,,,,,,,,,,,,,,,,switch,number,numSwt,d,Hi,,,,,,1.1432,3,,,,,,,,high,28,0,28,0,1,,,,,,,,,
297619,2022-11-15_15h08.13.591,vts_reward_expectancy_bt,2022.2.4,Win32,15.00240038,Chrome,1280,720,,,,,1,923,,,,,,,,,,,,,,,,,181,Y,circle,1,0,,,,,,,,,,,,,,,,repeat,number,numRpt,f,Lo,,,,,,0.8419,3,,,,,,,,high,29,0,29,0,1,,,,,,,,,
297619,2022-11-15_15h08.13.591,vts_reward_expectancy_bt,2022.2.4,Win32,15.00240038,Chrome,1280,720,,,,,10,933,,,,,,,,,,,,,,,,,174,U,triangle,1,0,,,,,,,,,,,,,,,,repeat,number,numRpt,f,Hi,,,,,,0.6883,3,,,,,,,,high,30,0,30,0,1,,,,,,,,,
297619,2022-11-15_15h08.13.591,vts_reward_expectancy_bt,2022.2.4,Win32,15.00240038,Chrome,1280,720,,,,,1,934,,,,,,,,,,,,,,,,,167,W,hexagon,1,0,,,,,,,,,,,,,,,,switch,letter,lettSwt,k,Lo,,,,,,0.8426,3,,,,,,,,high,31,0,31,0,1,,,,,,,,,
297619,2022-11-15_15h08.13.591,vts_reward_expectancy_bt,2022.2.4,Win32,15.00240038,Chrome,1280,720,,,,,0,934,,,,,,,,,,,,,,,,,146,B,triangle,0,0,,,,,,,,,,,,,,,,repeat,letter,NA,k,Lo,,,,,,1.9903,4,,,,,,space,0.7135,high,0,0,0,0,1,,,,,,,,,
297619,2022-11-15_15h08.13.591,vts_reward_expectancy_bt,2022.2.4,Win32,15.00240038,Chrome,1280,720,,,,,1,935,,,,,,,,,,,,,,,,,139,D,hexagon,1,1,,,,,,,,,,,,,,,,switch,number,numSwt,d,Lo,,,,,,0.4665,4,,,,,,,,high,1,0,1,0,1,,,,,,,,,
297619,2022-11-15_15h08.13.591,vts_reward_expectancy_bt,2022.2.4,Win32,15.00240038,Chrome,1280,720,,,,,0,935,,,,,,,,,,,,,,,,,174,H,circle,0,0,,,,,,,,,,,,,,,,switch,letter,NA,k,Lo,,,,,,0.692,4,,,,,,,,high,2,0,2,0,1,,,,,,,,,
297619,2022-11-15_15h08.13.591,vts_reward_expectancy_bt,2022.2.4,Win32,15.00240038,Chrome,1280,720,,,,,10,945,,,,,,,,,,,,,,,,,181,W,star,1,1,,,,,,,,,,,,,,,,switch,number,numSwt,f,Hi,,,,,,0.4569,4,,,,,,,,high,3,0,3,0,1,,,,,,,,,
297619,2022-11-15_15h08.13.591,vts_reward_expectancy_bt,2022.2.4,Win32,15.00240038,Chrome,1280,720,,,,,10,955,,,,,,,,,,,,,,,,,125,Y,triangle,1,0,,,,,,,,,,,,,,,,switch,letter,lettSwt,k,Hi,,,,,,0.7621,4,,,,,,,,high,4,0,4,0,1,,,,,,,,,
297619,2022-11-15_15h08.13.591,vts_reward_expectancy_bt,2022.2.4,Win32,15.00240038,Chrome,1280,720,,,,,1,956,,,,,,,,,,,,,,,,,132,U,hexagon,1,0,,,,,,,,,,,,,,,,repeat,letter,lettRpt,k,Lo,,,,,,0.618,4,,,,,,,,high,5,0,5,0,1,,,,,,,,,
297619,2022-11-15_15h08.13.591,vts_reward_expectancy_bt,2022.2.4,Win32,15.00240038,Chrome,1280,720,,,,,1,957,,,,,,,,,,,,,,,,,160,F,circle,1,0,,,,,,,,,,,,,,,,switch,number,numSwt,f,Lo,,,,,,0.6116,4,,,,,,,,high,6,0,6,0,1,,,,,,,,,
297619,2022-11-15_15h08.13.591,vts_reward_expectancy_bt,2022.2.4,Win32,15.00240038,Chrome,1280,720,,,,,10,967,,,,,,,,,,,,,,,,,167,S,star,1,0,,,,,,,,,,,,,,,,repeat,number,numRpt,f,Hi,,,,,,0.6156,4,,,,,,,,high,7,0,7,0,1,,,,,,,,,
297619,2022-11-15_15h08.13.591,vts_reward_expectancy_bt,2022.2.4,Win32,15.00240038,Chrome,1280,720,,,,,0,967,,,,,,,,,,,,,,,,,146,B,star,1,0,,,,,,,,,,,,,,,,switch,letter,lettSwt,j,Hi,,,,,,0.851,4,,,,,,,,high,8,0,8,0,1,,,,,,,,,
297619,2022-11-15_15h08.13.591,vts_reward_expectancy_bt,2022.2.4,Win32,15.00240038,Chrome,1280,720,,,,,0,967,,,,,,,,,,,,,,,,,139,D,hexagon,0,0,,,,,,,,,,,,,,,,repeat,letter,NA,k,Hi,,,,,,0.6074,4,,,,,,,,high,9,0,9,0,1,,,,,,,,,
297619,2022-11-15_15h08.13.591,vts_reward_expectancy_bt,2022.2.4,Win32,15.00240038,Chrome,1280,720,,,,,0,967,,,,,,,,,,,,,,,,,174,H,triangle,1,1,,,,,,,,,,,,,,,,switch,number,numSwt,f,Hi,,,,,,1.0744,4,,,,,,,,high,10,0,10,0,1,,,,,,,,,
297619,2022-11-15_15h08.13.591,vts_reward_expectancy_bt,2022.2.4,Win32,15.00240038,Chrome,1280,720,,,,,0,967,,,,,,,,,,,,,,,,,181,W,circle,0,0,,,,,,,,,,,,,,,,switch,letter,NA,j,Hi,,,,,,0.0081,4,,,,,,,,high,11,0,11,0,1,,,,,,,,,
297619,2022-11-15_15h08.13.591,vts_reward_expectancy_bt,2022.2.4,Win32,15.00240038,Chrome,1280,720,,,,,1,968,,,,,,,,,,,,,,,,,125,Y,hexagon,1,1,,,,,,,,,,,,,,,,repeat,letter,lettRpt,k,Lo,,,,,,0.3913,4,,,,,,,,high,12,0,12,0,1,,,,,,,,,
297619,2022-11-15_15h08.13.591,vts_reward_expectancy_bt,2022.2.4,Win32,15.00240038,Chrome,1280,720,,,,,10,978,,,,,,,,,,,,,,,,,132,U,triangle,1,0,,,,,,,,,,,,,,,,switch,number,numSwt,d,Hi,,,,,,0.5384,4,,,,,,,,high,13,0,13,0,1,,,,,,,,,
297619,2022-11-15_15h08.13.591,vts_reward_expectancy_bt,2022.2.4,Win32,15.00240038,Chrome,1280,720,,,,,0,978,,,,,,,,,,,,,,,,,160,F,star,0,0,,,,,,,,,,,,,,,,switch,letter,NA,k,Hi,,,,,,0.2398,4,,,,,,,,high,14,0,14,0,1,,,,,,,,,
297619,2022-11-15_15h08.13.591,vts_reward_expectancy_bt,2022.2.4,Win32,15.00240038,Chrome,1280,720,,,,,0,978,,,,,,,,,,,,,,,,,167,S,circle,0,1,,,,,,,,,,,,,,,,switch,number,NA,d,Hi,,,,,,0.309,4,,,,,,,,high,15,0,15,0,1,,,,,,,,,
297619,2022-11-15_15h08.13.591,vts_reward_expectancy_bt,2022.2.4,Win32,15.00240038,Chrome,1280,720,,,,,0,978,,,,,,,,,,,,,,,,,167,B,hexagon,0,1,,,,,,,,,,,,,,,,switch,letter,NA,k,Hi,,,,,,0.9182,4,,,,,,,,high,16,0,16,0,1,,,,,,,,,
297619,2022-11-15_15h08.13.591,vts_reward_expectancy_bt,2022.2.4,Win32,15.00240038,Chrome,1280,720,,,,,0,978,,,,,,,,,,,,,,,,,174,S,triangle,1,1,,,,,,,,,,,,,,,,switch,number,numSwt,f,Hi,,,,,,0.8326,4,,,,,,,,high,17,0,17,0,1,,,,,,,,,
297619,2022-11-15_15h08.13.591,vts_reward_expectancy_bt,2022.2.4,Win32,15.00240038,Chrome,1280,720,,,,,1,979,,,,,,,,,,,,,,,,,181,U,circle,1,0,,,,,,,,,,,,,,,,repeat,number,numRpt,f,Lo,,,,,,0.8365,4,,,,,,,,high,18,0,18,0,1,,,,,,,,,
297619,2022-11-15_15h08.13.591,vts_reward_expectancy_bt,2022.2.4,Win32,15.00240038,Chrome,1280,720,,,,,10,989,,,,,,,,,,,,,,,,,146,D,star,1,0,,,,,,,,,,,,,,,,repeat,number,numRpt,d,Hi,,,,,,0.6887,4,,,,,,,,high,19,0,19,0,1,,,,,,,,,
297619,2022-11-15_15h08.13.591,vts_reward_expectancy_bt,2022.2.4,Win32,15.00240038,Chrome,1280,720,,,,,10,999,,,,,,,,,,,,,,,,,132,W,triangle,1,0,,,,,,,,,,,,,,,,switch,letter,lettSwt,k,Hi,,,,,,0.6061,4,,,,,,,,high,20,0,20,0,1,,,,,,,,,
297619,2022-11-15_15h08.13.591,vts_reward_expectancy_bt,2022.2.4,Win32,15.00240038,Chrome,1280,720,,,,,0,999,,,,,,,,,,,,,,,,,160,F,star,1,0,,,,,,,,,,,,,,,,switch,number,numSwt,f,Hi,,,,,,0.9253,4,,,,,,,,high,21,0,21,0,1,,,,,,,,,
297619,2022-11-15_15h08.13.591,vts_reward_expectancy_bt,2022.2.4,Win32,15.00240038,Chrome,1280,720,,,,,0,999,,,,,,,,,,,,,,,,,139,H,circle,0,0,,,,,,,,,,,,,,,,switch,letter,NA,k,Hi,,,,,,1.3602,4,,,,,,,,high,22,0,22,0,1,,,,,,,,,
297619,2022-11-15_15h08.13.591,vts_reward_expectancy_bt,2022.2.4,Win32,15.00240038,Chrome,1280,720,,,,,1,1000,,,,,,,,,,,,,,,,,125,Y,hexagon,1,1,,,,,,,,,,,,,,,,repeat,letter,lettRpt,k,Lo,,,,,,0.9415,4,,,,,,,,high,23,0,23,0,1,,,,,,,,,
297619,2022-11-15_15h08.13.591,vts_reward_expectancy_bt,2022.2.4,Win32,15.00240038,Chrome,1280,720,,,,,1,1001,,,,,,,,,,,,,,,,,167,W,hexagon,1,0,,,,,,,,,,,,,,,,switch,number,numSwt,f,Lo,,,,,,1.0592,4,,,,,,,,high,24,0,24,0,1,,,,,,,,,
297619,2022-11-15_15h08.13.591,vts_reward_expectancy_bt,2022.2.4,Win32,15.00240038,Chrome,1280,720,,,,,10,1011,,,,,,,,,,,,,,,,,174,D,circle,1,0,,,,,,,,,,,,,,,,repeat,number,numRpt,f,Lo,,,,,,0.9217,4,,,,,,,,high,25,0,25,0,1,,,,,,,,,
297619,2022-11-15_15h08.13.591,vts_reward_expectancy_bt,2022.2.4,Win32,15.00240038,Chrome,1280,720,,,,,0,1011,,,,,,,,,,,,,,,,,125,B,star,0,0,,,,,,,,,,,,,,,,switch,letter,NA,k,Lo,,,,,,1.4477,4,,,,,,,,high,26,0,26,0,1,,,,,,,,,
297619,2022-11-15_15h08.13.591,vts_reward_expectancy_bt,2022.2.4,Win32,15.00240038,Chrome,1280,720,,,,,10,1021,,,,,,,,,,,,,,,,,181,U,triangle,1,1,,,,,,,,,,,,,,,,repeat,letter,lettRpt,k,Hi,,,,,,0.5437,4,,,,,,,,high,27,0,27,0,1,,,,,,,,,
297619,2022-11-15_15h08.13.591,vts_reward_expectancy_bt,2022.2.4,Win32,15.00240038,Chrome,1280,720,,,,,1,1022,,,,,,,,,,,,,,,,,139,Y,hexagon,1,0,,,,,,,,,,,,,,,,repeat,letter,lettRpt,k,Lo,,,,,,0.6121,4,,,,,,,,high,28,0,28,0,1,,,,,,,,,
297619,2022-11-15_15h08.13.591,vts_reward_expectancy_bt,2022.2.4,Win32,15.00240038,Chrome,1280,720,,,,,0,1022,,,,,,,,,,,,,,,,,160,F,triangle,1,0,,,,,,,,,,,,,,,,repeat,letter,lettRpt,j,Hi,,,,,,0.918,4,,,,,,,,high,29,0,29,0,1,,,,,,,,,
297619,2022-11-15_15h08.13.591,vts_reward_expectancy_bt,2022.2.4,Win32,15.00240038,Chrome,1280,720,,,,,1,1023,,,,,,,,,,,,,,,,,132,H,circle,1,0,,,,,,,,,,,,,,,,repeat,letter,lettRpt,j,Lo,,,,,,2.2763,4,,,,,,,,high,30,0,30,0,1,,,,,,,,,
297619,2022-11-15_15h08.13.591,vts_reward_expectancy_bt,2022.2.4,Win32,15.00240038,Chrome,1280,720,,,,,0,1023,,,,,,,,,,,,,,,,,146,S,star,1,0,,,,,,,,,,,,,,,,repeat,letter,lettRpt,k,Hi,,,,,,2.6678,4,,,,,,,,high,31,0,31,0,1,,,,,,,,,
