participant,date,expName,psychopyVersion,OS,frameRate,browser,xResolution,yResolution,key_resp.keys,key_resp.rt,training_resp.keys,training_resp.rt,points_trial,points_cumul,trainBlock,training.thisRepN,training.thisTrialN,training.thisN,training.thisIndex,training.ran,LTriangleOpac,LCircleOpac,LHexagonOpac,LStarOpac,RTriangleOpac,RCircleOpac,RHexagonOpac,RStarOpac,LShape_ID,RShape_ID,curr_topStim,curr_bottStim,curr_shape,acc,E1,target_resp_prac1.keys,target_resp_prac1.rt,pracBlock,task1_prac_trials.thisRepN,task1_prac_trials.thisTrialN,task1_prac_trials.thisN,task1_prac_trials.thisIndex,task1_prac_trials.ran,target_resp_prac2.keys,target_resp_prac2.rt,task2_praac_trials.thisRepN,task2_praac_trials.thisTrialN,task2_praac_trials.thisN,task2_praac_trials.thisIndex,task2_praac_trials.ran,alt,task,condition,target_resp.keys,target_resp.rt,rewCond,vts_practice_trials.thisRepN,vts_practice_trials.thisTrialN,vts_practice_trials.thisN,vts_practice_trials.thisIndex,vts_practice_trials.ran,blockNum,trials_norew.thisRepN,trials_norew.thisTrialN,trials_norew.thisN,trials_norew.thisIndex,trials_norew.ran,key_resp_2.keys,key_resp_2.rt,rewExpectancy,trials_rew.thisRepN,trials_rew.thisTrialN,trials_rew.thisN,trials_rew.thisIndex,trials_rew.ran,Q1,Q2,Q2_text,Q3,Q4,Q5_text,Q5,xRes,yRes
297640,2022-11-29_15h10.46.181,vts_reward_expectancy_bt,2022.2.4,MacIntel,60.0024001,Chrome,1440,900,,,,,,,,,,,,,,,,,,,,,,,,,,,,,,,,,,,,,,,,,,,,,,,,,,,,,,,,,,,,,,,,,,,,,,,,,,,,
297640,2022-11-29_15h10.46.181,vts_reward_expectancy_bt,2022.2.4,MacIntel,60.0024001,Chrome,1440,900,space,14.126,,,,,,,,,,,,,,,,,,,,,,,,,,,,,,,,,,,,,,,,,,,,,,,,,,,,,,,,,,,,,,,,,,,,,,,,,,
297640,2022-11-29_15h10.46.181,vts_reward_expectancy_bt,2022.2.4,MacIntel,60.0024001,Chrome,1440,900,,,,,,,,,,,,,,,,,,,,,,,,,,,,,,,,,,,,,,,,,,,,,,,,,,,,,,,,,,,,,,,,,,,,,,,,,,,,
297640,2022-11-29_15h10.46.181,vts_reward_expectancy_bt,2022.2.4,MacIntel,60.0024001,Chrome,1440,900,,,a,1.5482,10,10,0,0,0,0,5,1,0,1,0,0,0,0,0,1,circle,star,,,,,,,,,,,,,,,,,,,,,,,,,,,,,,,,,,,,,,,,,,,,,,,,,,,,,,
297640,2022-11-29_15h10.46.181,vts_reward_expectancy_bt,2022.2.4,MacIntel,60.0024001,Chrome,1440,900,,,l,1.0818,10,20,0,0,1,1,10,1,0,0,0,1,0,1,0,0,star ,circle,,,,,,,,,,,,,,,,,,,,,,,,,,,,,,,,,,,,,,,,,,,,,,,,,,,,,,
297640,2022-11-29_15h10.46.181,vts_reward_expectancy_bt,2022.2.4,MacIntel,60.0024001,Chrome,1440,900,,,l,0.8098,1,21,0,0,2,2,3,1,0,1,0,0,1,0,0,0,circle,triangle,,,,,,,,,,,,,,,,,,,,,,,,,,,,,,,,,,,,,,,,,,,,,,,,,,,,,,
297640,2022-11-29_15h10.46.181,vts_reward_expectancy_bt,2022.2.4,MacIntel,60.0024001,Chrome,1440,900,,,a,1.0752,10,31,0,0,3,3,6,1,0,0,1,0,1,0,0,0,hexagon,triangle,,,,,,,,,,,,,,,,,,,,,,,,,,,,,,,,,,,,,,,,,,,,,,,,,,,,,,
297640,2022-11-29_15h10.46.181,vts_reward_expectancy_bt,2022.2.4,MacIntel,60.0024001,Chrome,1440,900,,,a,1.2071,10,41,0,0,4,4,4,1,0,1,0,0,0,0,1,0,circle,hexagon,,,,,,,,,,,,,,,,,,,,,,,,,,,,,,,,,,,,,,,,,,,,,,,,,,,,,,
297640,2022-11-29_15h10.46.181,vts_reward_expectancy_bt,2022.2.4,MacIntel,60.0024001,Chrome,1440,900,,,a,0.8337,1,42,0,0,5,5,7,1,0,0,1,0,0,1,0,0,hexagon,circle,,,,,,,,,,,,,,,,,,,,,,,,,,,,,,,,,,,,,,,,,,,,,,,,,,,,,,
297640,2022-11-29_15h10.46.181,vts_reward_expectancy_bt,2022.2.4,MacIntel,60.0024001,Chrome,1440,900,,,l,1.0363,1,43,0,0,6,6,11,1,0,0,0,1,0,0,1,0,star,hexagon,,,,,,,,,,,,,,,,,,,,,,,,,,,,,,,,,,,,,,,,,,,,,,,,,,,,,,
297640,2022-11-29_15h10.46.181,vts_reward_expectancy_bt,2022.2.4,MacIntel,60.0024001,Chrome,1440,900,,,l,0.6852,10,53,0,0,7,7,0,1,1,0,0,0,0,1,0,0,triangle,circle,,,,,,,,,,,,,,,,,,,,,,,,,,,,,,,,,,,,,,,,,,,,,,,,,,,,,,
297640,2022-11-29_15h10.46.181,vts_reward_expectancy_bt,2022.2.4,MacIntel,60.0024001,Chrome,1440,900,,,a,1.0948,10,63,0,0,8,8,9,1,0,0,0,1,1,0,0,0,star,triangle,,,,,,,,,,,,,,,,,,,,,,,,,,,,,,,,,,,,,,,,,,,,,,,,,,,,,,
297640,2022-11-29_15h10.46.181,vts_reward_expectancy_bt,2022.2.4,MacIntel,60.0024001,Chrome,1440,900,,,l,0.9242,1,64,0,0,9,9,1,1,1,0,0,0,0,0,1,0,triangle,hexagon,,,,,,,,,,,,,,,,,,,,,,,,,,,,,,,,,,,,,,,,,,,,,,,,,,,,,,
297640,2022-11-29_15h10.46.181,vts_reward_expectancy_bt,2022.2.4,MacIntel,60.0024001,Chrome,1440,900,,,a,0.8779,10,74,0,0,10,10,2,1,1,0,0,0,0,0,0,1,triangle,star,,,,,,,,,,,,,,,,,,,,,,,,,,,,,,,,,,,,,,,,,,,,,,,,,,,,,,
297640,2022-11-29_15h10.46.181,vts_reward_expectancy_bt,2022.2.4,MacIntel,60.0024001,Chrome,1440,900,,,a,0.3672,10,84,0,0,11,11,8,1,0,0,1,0,0,0,0,1,hexagon,star,,,,,,,,,,,,,,,,,,,,,,,,,,,,,,,,,,,,,,,,,,,,,,,,,,,,,,
297640,2022-11-29_15h10.46.181,vts_reward_expectancy_bt,2022.2.4,MacIntel,60.0024001,Chrome,1440,900,,,a,0.4163,10,94,0,1,0,12,2,1,1,0,0,0,0,0,0,1,triangle,star,,,,,,,,,,,,,,,,,,,,,,,,,,,,,,,,,,,,,,,,,,,,,,,,,,,,,,
297640,2022-11-29_15h10.46.181,vts_reward_expectancy_bt,2022.2.4,MacIntel,60.0024001,Chrome,1440,900,,,l,0.8116,10,104,0,1,1,13,8,1,0,0,1,0,0,0,0,1,hexagon,star,,,,,,,,,,,,,,,,,,,,,,,,,,,,,,,,,,,,,,,,,,,,,,,,,,,,,,
297640,2022-11-29_15h10.46.181,vts_reward_expectancy_bt,2022.2.4,MacIntel,60.0024001,Chrome,1440,900,,,l,0.4169,1,105,0,1,2,14,0,1,1,0,0,0,0,1,0,0,triangle,circle,,,,,,,,,,,,,,,,,,,,,,,,,,,,,,,,,,,,,,,,,,,,,,,,,,,,,,
297640,2022-11-29_15h10.46.181,vts_reward_expectancy_bt,2022.2.4,MacIntel,60.0024001,Chrome,1440,900,,,l,0.4209,1,106,0,1,3,15,11,1,0,0,0,1,0,0,1,0,star,hexagon,,,,,,,,,,,,,,,,,,,,,,,,,,,,,,,,,,,,,,,,,,,,,,,,,,,,,,
297640,2022-11-29_15h10.46.181,vts_reward_expectancy_bt,2022.2.4,MacIntel,60.0024001,Chrome,1440,900,,,a,0.4831,1,107,0,1,4,16,4,1,0,1,0,0,0,0,1,0,circle,hexagon,,,,,,,,,,,,,,,,,,,,,,,,,,,,,,,,,,,,,,,,,,,,,,,,,,,,,,
297640,2022-11-29_15h10.46.181,vts_reward_expectancy_bt,2022.2.4,MacIntel,60.0024001,Chrome,1440,900,,,a,0.6523,10,117,0,1,5,17,9,1,0,0,0,1,1,0,0,0,star,triangle,,,,,,,,,,,,,,,,,,,,,,,,,,,,,,,,,,,,,,,,,,,,,,,,,,,,,,
297640,2022-11-29_15h10.46.181,vts_reward_expectancy_bt,2022.2.4,MacIntel,60.0024001,Chrome,1440,900,,,a,0.4418,10,127,0,1,6,18,3,1,0,1,0,0,1,0,0,0,circle,triangle,,,,,,,,,,,,,,,,,,,,,,,,,,,,,,,,,,,,,,,,,,,,,,,,,,,,,,
297640,2022-11-29_15h10.46.181,vts_reward_expectancy_bt,2022.2.4,MacIntel,60.0024001,Chrome,1440,900,,,l,0.6572,1,128,0,1,7,19,6,1,0,0,1,0,1,0,0,0,hexagon,triangle,,,,,,,,,,,,,,,,,,,,,,,,,,,,,,,,,,,,,,,,,,,,,,,,,,,,,,
297640,2022-11-29_15h10.46.181,vts_reward_expectancy_bt,2022.2.4,MacIntel,60.0024001,Chrome,1440,900,,,l,0.459,10,138,0,1,8,20,7,1,0,0,1,0,0,1,0,0,hexagon,circle,,,,,,,,,,,,,,,,,,,,,,,,,,,,,,,,,,,,,,,,,,,,,,,,,,,,,,
297640,2022-11-29_15h10.46.181,vts_reward_expectancy_bt,2022.2.4,MacIntel,60.0024001,Chrome,1440,900,,,l,0.4589,1,139,0,1,9,21,10,1,0,0,0,1,0,1,0,0,star ,circle,,,,,,,,,,,,,,,,,,,,,,,,,,,,,,,,,,,,,,,,,,,,,,,,,,,,,,
297640,2022-11-29_15h10.46.181,vts_reward_expectancy_bt,2022.2.4,MacIntel,60.0024001,Chrome,1440,900,,,l,0.5056,10,149,0,1,10,22,5,1,0,1,0,0,0,0,0,1,circle,star,,,,,,,,,,,,,,,,,,,,,,,,,,,,,,,,,,,,,,,,,,,,,,,,,,,,,,
297640,2022-11-29_15h10.46.181,vts_reward_expectancy_bt,2022.2.4,MacIntel,60.0024001,Chrome,1440,900,,,l,0.8583,1,150,0,1,11,23,1,1,1,0,0,0,0,0,1,0,triangle,hexagon,,,,,,,,,,,,,,,,,,,,,,,,,,,,,,,,,,,,,,,,,,,,,,,,,,,,,,
297640,2022-11-29_15h10.46.181,vts_reward_expectancy_bt,2022.2.4,MacIntel,60.0024001,Chrome,1440,900,,,l,0.4877,10,160,0,2,0,24,0,1,1,0,0,0,0,1,0,0,triangle,circle,,,,,,,,,,,,,,,,,,,,,,,,,,,,,,,,,,,,,,,,,,,,,,,,,,,,,,
297640,2022-11-29_15h10.46.181,vts_reward_expectancy_bt,2022.2.4,MacIntel,60.0024001,Chrome,1440,900,,,a,0.8259,1,161,0,2,1,25,2,1,1,0,0,0,0,0,0,1,triangle,star,,,,,,,,,,,,,,,,,,,,,,,,,,,,,,,,,,,,,,,,,,,,,,,,,,,,,,
297640,2022-11-29_15h10.46.181,vts_reward_expectancy_bt,2022.2.4,MacIntel,60.0024001,Chrome,1440,900,,,l,0.666,10,171,0,2,2,26,5,1,0,1,0,0,0,0,0,1,circle,star,,,,,,,,,,,,,,,,,,,,,,,,,,,,,,,,,,,,,,,,,,,,,,,,,,,,,,
297640,2022-11-29_15h10.46.181,vts_reward_expectancy_bt,2022.2.4,MacIntel,60.0024001,Chrome,1440,900,,,a,0.4083,10,181,0,2,3,27,10,1,0,0,0,1,0,1,0,0,star ,circle,,,,,,,,,,,,,,,,,,,,,,,,,,,,,,,,,,,,,,,,,,,,,,,,,,,,,,
297640,2022-11-29_15h10.46.181,vts_reward_expectancy_bt,2022.2.4,MacIntel,60.0024001,Chrome,1440,900,,,l,0.8015,10,191,0,2,4,28,4,1,0,1,0,0,0,0,1,0,circle,hexagon,,,,,,,,,,,,,,,,,,,,,,,,,,,,,,,,,,,,,,,,,,,,,,,,,,,,,,
297640,2022-11-29_15h10.46.181,vts_reward_expectancy_bt,2022.2.4,MacIntel,60.0024001,Chrome,1440,900,,,l,0.5412,10,201,0,2,5,29,1,1,1,0,0,0,0,0,1,0,triangle,hexagon,,,,,,,,,,,,,,,,,,,,,,,,,,,,,,,,,,,,,,,,,,,,,,,,,,,,,,
297640,2022-11-29_15h10.46.181,vts_reward_expectancy_bt,2022.2.4,MacIntel,60.0024001,Chrome,1440,900,,,l,0.4613,1,202,0,2,6,30,8,1,0,0,1,0,0,0,0,1,hexagon,star,,,,,,,,,,,,,,,,,,,,,,,,,,,,,,,,,,,,,,,,,,,,,,,,,,,,,,
297640,2022-11-29_15h10.46.181,vts_reward_expectancy_bt,2022.2.4,MacIntel,60.0024001,Chrome,1440,900,,,l,0.9445,1,203,0,2,7,31,11,1,0,0,0,1,0,0,1,0,star,hexagon,,,,,,,,,,,,,,,,,,,,,,,,,,,,,,,,,,,,,,,,,,,,,,,,,,,,,,
297640,2022-11-29_15h10.46.181,vts_reward_expectancy_bt,2022.2.4,MacIntel,60.0024001,Chrome,1440,900,,,a,0.5126,10,213,0,2,8,32,6,1,0,0,1,0,1,0,0,0,hexagon,triangle,,,,,,,,,,,,,,,,,,,,,,,,,,,,,,,,,,,,,,,,,,,,,,,,,,,,,,
297640,2022-11-29_15h10.46.181,vts_reward_expectancy_bt,2022.2.4,MacIntel,60.0024001,Chrome,1440,900,,,a,0.4264,10,223,0,2,9,33,3,1,0,1,0,0,1,0,0,0,circle,triangle,,,,,,,,,,,,,,,,,,,,,,,,,,,,,,,,,,,,,,,,,,,,,,,,,,,,,,
297640,2022-11-29_15h10.46.181,vts_reward_expectancy_bt,2022.2.4,MacIntel,60.0024001,Chrome,1440,900,,,l,0.3909,1,224,0,2,10,34,9,1,0,0,0,1,1,0,0,0,star,triangle,,,,,,,,,,,,,,,,,,,,,,,,,,,,,,,,,,,,,,,,,,,,,,,,,,,,,,
297640,2022-11-29_15h10.46.181,vts_reward_expectancy_bt,2022.2.4,MacIntel,60.0024001,Chrome,1440,900,,,l,0.5328,10,234,0,2,11,35,7,1,0,0,1,0,0,1,0,0,hexagon,circle,,,,,,,,,,,,,,,,,,,,,,,,,,,,,,,,,,,,,,,,,,,,,,,,,,,,,,
297640,2022-11-29_15h10.46.181,vts_reward_expectancy_bt,2022.2.4,MacIntel,60.0024001,Chrome,1440,900,,,l,0.6829,1,235,1,0,0,0,10,1,0,0,0,1,0,1,0,0,star ,circle,,,,,,,,,,,,,,,,,,,,,,,,,,,,,,,,,,,,,,,,,,,,,,,,,,,,,,
297640,2022-11-29_15h10.46.181,vts_reward_expectancy_bt,2022.2.4,MacIntel,60.0024001,Chrome,1440,900,,,a,0.6833,10,245,1,0,1,1,6,1,0,0,1,0,1,0,0,0,hexagon,triangle,,,,,,,,,,,,,,,,,,,,,,,,,,,,,,,,,,,,,,,,,,,,,,,,,,,,,,
297640,2022-11-29_15h10.46.181,vts_reward_expectancy_bt,2022.2.4,MacIntel,60.0024001,Chrome,1440,900,,,a,1.3486,10,255,1,0,2,2,7,1,0,0,1,0,0,1,0,0,hexagon,circle,,,,,,,,,,,,,,,,,,,,,,,,,,,,,,,,,,,,,,,,,,,,,,,,,,,,,,
297640,2022-11-29_15h10.46.181,vts_reward_expectancy_bt,2022.2.4,MacIntel,60.0024001,Chrome,1440,900,,,l,0.893,1,256,1,0,3,3,5,1,0,1,0,0,0,0,0,1,circle,star,,,,,,,,,,,,,,,,,,,,,,,,,,,,,,,,,,,,,,,,,,,,,,,,,,,,,,
297640,2022-11-29_15h10.46.181,vts_reward_expectancy_bt,2022.2.4,MacIntel,60.0024001,Chrome,1440,900,,,a,3.4667,10,266,1,0,4,4,8,1,0,0,1,0,0,0,0,1,hexagon,star,,,,,,,,,,,,,,,,,,,,,,,,,,,,,,,,,,,,,,,,,,,,,,,,,,,,,,
297640,2022-11-29_15h10.46.181,vts_reward_expectancy_bt,2022.2.4,MacIntel,60.0024001,Chrome,1440,900,,,l,1.3911,1,267,1,0,5,5,1,1,1,0,0,0,0,0,1,0,triangle,hexagon,,,,,,,,,,,,,,,,,,,,,,,,,,,,,,,,,,,,,,,,,,,,,,,,,,,,,,
297640,2022-11-29_15h10.46.181,vts_reward_expectancy_bt,2022.2.4,MacIntel,60.0024001,Chrome,1440,900,,,a,0.8599,10,277,1,0,6,6,3,1,0,1,0,0,1,0,0,0,circle,triangle,,,,,,,,,,,,,,,,,,,,,,,,,,,,,,,,,,,,,,,,,,,,,,,,,,,,,,
297640,2022-11-29_15h10.46.181,vts_reward_expectancy_bt,2022.2.4,MacIntel,60.0024001,Chrome,1440,900,,,l,0.8056,1,278,1,0,7,7,2,1,1,0,0,0,0,0,0,1,triangle,star,,,,,,,,,,,,,,,,,,,,,,,,,,,,,,,,,,,,,,,,,,,,,,,,,,,,,,
297640,2022-11-29_15h10.46.181,vts_reward_expectancy_bt,2022.2.4,MacIntel,60.0024001,Chrome,1440,900,,,l,0.8718,10,288,1,0,8,8,9,1,0,0,0,1,1,0,0,0,star,triangle,,,,,,,,,,,,,,,,,,,,,,,,,,,,,,,,,,,,,,,,,,,,,,,,,,,,,,
297640,2022-11-29_15h10.46.181,vts_reward_expectancy_bt,2022.2.4,MacIntel,60.0024001,Chrome,1440,900,,,l,0.5672,1,289,1,0,9,9,4,1,0,1,0,0,0,0,1,0,circle,hexagon,,,,,,,,,,,,,,,,,,,,,,,,,,,,,,,,,,,,,,,,,,,,,,,,,,,,,,
297640,2022-11-29_15h10.46.181,vts_reward_expectancy_bt,2022.2.4,MacIntel,60.0024001,Chrome,1440,900,,,l,0.4513,10,299,1,0,10,10,11,1,0,0,0,1,0,0,1,0,star,hexagon,,,,,,,,,,,,,,,,,,,,,,,,,,,,,,,,,,,,,,,,,,,,,,,,,,,,,,
297640,2022-11-29_15h10.46.181,vts_reward_expectancy_bt,2022.2.4,MacIntel,60.0024001,Chrome,1440,900,,,l,0.3938,1,300,1,0,11,11,0,1,1,0,0,0,0,1,0,0,triangle,circle,,,,,,,,,,,,,,,,,,,,,,,,,,,,,,,,,,,,,,,,,,,,,,,,,,,,,,
297640,2022-11-29_15h10.46.181,vts_reward_expectancy_bt,2022.2.4,MacIntel,60.0024001,Chrome,1440,900,,,l,0.4439,10,310,1,1,0,12,2,1,1,0,0,0,0,0,0,1,triangle,star,,,,,,,,,,,,,,,,,,,,,,,,,,,,,,,,,,,,,,,,,,,,,,,,,,,,,,
297640,2022-11-29_15h10.46.181,vts_reward_expectancy_bt,2022.2.4,MacIntel,60.0024001,Chrome,1440,900,,,a,0.4335,1,311,1,1,1,13,1,1,1,0,0,0,0,0,1,0,triangle,hexagon,,,,,,,,,,,,,,,,,,,,,,,,,,,,,,,,,,,,,,,,,,,,,,,,,,,,,,
297640,2022-11-29_15h10.46.181,vts_reward_expectancy_bt,2022.2.4,MacIntel,60.0024001,Chrome,1440,900,,,l,0.3987,10,321,1,1,2,14,4,1,0,1,0,0,0,0,1,0,circle,hexagon,,,,,,,,,,,,,,,,,,,,,,,,,,,,,,,,,,,,,,,,,,,,,,,,,,,,,,
297640,2022-11-29_15h10.46.181,vts_reward_expectancy_bt,2022.2.4,MacIntel,60.0024001,Chrome,1440,900,,,l,1.0506,10,331,1,1,3,15,0,1,1,0,0,0,0,1,0,0,triangle,circle,,,,,,,,,,,,,,,,,,,,,,,,,,,,,,,,,,,,,,,,,,,,,,,,,,,,,,
297640,2022-11-29_15h10.46.181,vts_reward_expectancy_bt,2022.2.4,MacIntel,60.0024001,Chrome,1440,900,,,a,0.4265,1,332,1,1,4,16,8,1,0,0,1,0,0,0,0,1,hexagon,star,,,,,,,,,,,,,,,,,,,,,,,,,,,,,,,,,,,,,,,,,,,,,,,,,,,,,,
297640,2022-11-29_15h10.46.181,vts_reward_expectancy_bt,2022.2.4,MacIntel,60.0024001,Chrome,1440,900,,,l,0.5806,1,333,1,1,5,17,7,1,0,0,1,0,0,1,0,0,hexagon,circle,,,,,,,,,,,,,,,,,,,,,,,,,,,,,,,,,,,,,,,,,,,,,,,,,,,,,,
297640,2022-11-29_15h10.46.181,vts_reward_expectancy_bt,2022.2.4,MacIntel,60.0024001,Chrome,1440,900,,,a,0.394,1,334,1,1,6,18,3,1,0,1,0,0,1,0,0,0,circle,triangle,,,,,,,,,,,,,,,,,,,,,,,,,,,,,,,,,,,,,,,,,,,,,,,,,,,,,,
297640,2022-11-29_15h10.46.181,vts_reward_expectancy_bt,2022.2.4,MacIntel,60.0024001,Chrome,1440,900,,,l,0.351,10,344,1,1,7,19,9,1,0,0,0,1,1,0,0,0,star,triangle,,,,,,,,,,,,,,,,,,,,,,,,,,,,,,,,,,,,,,,,,,,,,,,,,,,,,,
297640,2022-11-29_15h10.46.181,vts_reward_expectancy_bt,2022.2.4,MacIntel,60.0024001,Chrome,1440,900,,,l,0.4661,1,345,1,1,8,20,5,1,0,1,0,0,0,0,0,1,circle,star,,,,,,,,,,,,,,,,,,,,,,,,,,,,,,,,,,,,,,,,,,,,,,,,,,,,,,
297640,2022-11-29_15h10.46.181,vts_reward_expectancy_bt,2022.2.4,MacIntel,60.0024001,Chrome,1440,900,,,l,0.3634,1,346,1,1,9,21,6,1,0,0,1,0,1,0,0,0,hexagon,triangle,,,,,,,,,,,,,,,,,,,,,,,,,,,,,,,,,,,,,,,,,,,,,,,,,,,,,,
297640,2022-11-29_15h10.46.181,vts_reward_expectancy_bt,2022.2.4,MacIntel,60.0024001,Chrome,1440,900,,,a,0.6424,1,347,1,1,10,22,10,1,0,0,0,1,0,1,0,0,star ,circle,,,,,,,,,,,,,,,,,,,,,,,,,,,,,,,,,,,,,,,,,,,,,,,,,,,,,,
297640,2022-11-29_15h10.46.181,vts_reward_expectancy_bt,2022.2.4,MacIntel,60.0024001,Chrome,1440,900,,,a,0.5769,10,357,1,1,11,23,11,1,0,0,0,1,0,0,1,0,star,hexagon,,,,,,,,,,,,,,,,,,,,,,,,,,,,,,,,,,,,,,,,,,,,,,,,,,,,,,
297640,2022-11-29_15h10.46.181,vts_reward_expectancy_bt,2022.2.4,MacIntel,60.0024001,Chrome,1440,900,,,l,0.4542,10,367,1,2,0,24,5,1,0,1,0,0,0,0,0,1,circle,star,,,,,,,,,,,,,,,,,,,,,,,,,,,,,,,,,,,,,,,,,,,,,,,,,,,,,,
297640,2022-11-29_15h10.46.181,vts_reward_expectancy_bt,2022.2.4,MacIntel,60.0024001,Chrome,1440,900,,,a,0.4952,10,377,1,2,1,25,1,1,1,0,0,0,0,0,1,0,triangle,hexagon,,,,,,,,,,,,,,,,,,,,,,,,,,,,,,,,,,,,,,,,,,,,,,,,,,,,,,
297640,2022-11-29_15h10.46.181,vts_reward_expectancy_bt,2022.2.4,MacIntel,60.0024001,Chrome,1440,900,,,a,0.8556,1,378,1,2,2,26,7,1,0,0,1,0,0,1,0,0,hexagon,circle,,,,,,,,,,,,,,,,,,,,,,,,,,,,,,,,,,,,,,,,,,,,,,,,,,,,,,
297640,2022-11-29_15h10.46.181,vts_reward_expectancy_bt,2022.2.4,MacIntel,60.0024001,Chrome,1440,900,,,l,0.4382,1,379,1,2,3,27,3,1,0,1,0,0,1,0,0,0,circle,triangle,,,,,,,,,,,,,,,,,,,,,,,,,,,,,,,,,,,,,,,,,,,,,,,,,,,,,,
297640,2022-11-29_15h10.46.181,vts_reward_expectancy_bt,2022.2.4,MacIntel,60.0024001,Chrome,1440,900,,,l,0.7932,1,380,1,2,4,28,6,1,0,0,1,0,1,0,0,0,hexagon,triangle,,,,,,,,,,,,,,,,,,,,,,,,,,,,,,,,,,,,,,,,,,,,,,,,,,,,,,
297640,2022-11-29_15h10.46.181,vts_reward_expectancy_bt,2022.2.4,MacIntel,60.0024001,Chrome,1440,900,,,l,0.4052,1,381,1,2,5,29,8,1,0,0,1,0,0,0,0,1,hexagon,star,,,,,,,,,,,,,,,,,,,,,,,,,,,,,,,,,,,,,,,,,,,,,,,,,,,,,,
297640,2022-11-29_15h10.46.181,vts_reward_expectancy_bt,2022.2.4,MacIntel,60.0024001,Chrome,1440,900,,,a,0.4831,10,391,1,2,6,30,9,1,0,0,0,1,1,0,0,0,star,triangle,,,,,,,,,,,,,,,,,,,,,,,,,,,,,,,,,,,,,,,,,,,,,,,,,,,,,,
297640,2022-11-29_15h10.46.181,vts_reward_expectancy_bt,2022.2.4,MacIntel,60.0024001,Chrome,1440,900,,,a,1.1999,10,401,1,2,7,31,0,1,1,0,0,0,0,1,0,0,triangle,circle,,,,,,,,,,,,,,,,,,,,,,,,,,,,,,,,,,,,,,,,,,,,,,,,,,,,,,
297640,2022-11-29_15h10.46.181,vts_reward_expectancy_bt,2022.2.4,MacIntel,60.0024001,Chrome,1440,900,,,a,0.4284,1,402,1,2,8,32,11,1,0,0,0,1,0,0,1,0,star,hexagon,,,,,,,,,,,,,,,,,,,,,,,,,,,,,,,,,,,,,,,,,,,,,,,,,,,,,,
297640,2022-11-29_15h10.46.181,vts_reward_expectancy_bt,2022.2.4,MacIntel,60.0024001,Chrome,1440,900,,,l,0.4865,10,412,1,2,9,33,10,1,0,0,0,1,0,1,0,0,star ,circle,,,,,,,,,,,,,,,,,,,,,,,,,,,,,,,,,,,,,,,,,,,,,,,,,,,,,,
297640,2022-11-29_15h10.46.181,vts_reward_expectancy_bt,2022.2.4,MacIntel,60.0024001,Chrome,1440,900,,,l,1.3322,1,413,1,2,10,34,4,1,0,1,0,0,0,0,1,0,circle,hexagon,,,,,,,,,,,,,,,,,,,,,,,,,,,,,,,,,,,,,,,,,,,,,,,,,,,,,,
297640,2022-11-29_15h10.46.181,vts_reward_expectancy_bt,2022.2.4,MacIntel,60.0024001,Chrome,1440,900,,,l,0.4536,10,423,1,2,11,35,2,1,1,0,0,0,0,0,0,1,triangle,star,,,,,,,,,,,,,,,,,,,,,,,,,,,,,,,,,,,,,,,,,,,,,,,,,,,,,,
297640,2022-11-29_15h10.46.181,vts_reward_expectancy_bt,2022.2.4,MacIntel,60.0024001,Chrome,1440,900,,,l,1.1851,10,433,2,0,0,0,4,1,0,1,0,0,0,0,1,0,circle,hexagon,,,,,,,,,,,,,,,,,,,,,,,,,,,,,,,,,,,,,,,,,,,,,,,,,,,,,,
297640,2022-11-29_15h10.46.181,vts_reward_expectancy_bt,2022.2.4,MacIntel,60.0024001,Chrome,1440,900,,,l,0.5484,10,443,2,0,1,1,7,1,0,0,1,0,0,1,0,0,hexagon,circle,,,,,,,,,,,,,,,,,,,,,,,,,,,,,,,,,,,,,,,,,,,,,,,,,,,,,,
297640,2022-11-29_15h10.46.181,vts_reward_expectancy_bt,2022.2.4,MacIntel,60.0024001,Chrome,1440,900,,,l,0.5502,1,444,2,0,2,2,0,1,1,0,0,0,0,1,0,0,triangle,circle,,,,,,,,,,,,,,,,,,,,,,,,,,,,,,,,,,,,,,,,,,,,,,,,,,,,,,
297640,2022-11-29_15h10.46.181,vts_reward_expectancy_bt,2022.2.4,MacIntel,60.0024001,Chrome,1440,900,,,a,0.5443,10,454,2,0,3,3,11,1,0,0,0,1,0,0,1,0,star,hexagon,,,,,,,,,,,,,,,,,,,,,,,,,,,,,,,,,,,,,,,,,,,,,,,,,,,,,,
297640,2022-11-29_15h10.46.181,vts_reward_expectancy_bt,2022.2.4,MacIntel,60.0024001,Chrome,1440,900,,,a,1.1319,10,464,2,0,4,4,10,1,0,0,0,1,0,1,0,0,star ,circle,,,,,,,,,,,,,,,,,,,,,,,,,,,,,,,,,,,,,,,,,,,,,,,,,,,,,,
297640,2022-11-29_15h10.46.181,vts_reward_expectancy_bt,2022.2.4,MacIntel,60.0024001,Chrome,1440,900,,,l,1.1532,10,474,2,0,5,5,5,1,0,1,0,0,0,0,0,1,circle,star,,,,,,,,,,,,,,,,,,,,,,,,,,,,,,,,,,,,,,,,,,,,,,,,,,,,,,
297640,2022-11-29_15h10.46.181,vts_reward_expectancy_bt,2022.2.4,MacIntel,60.0024001,Chrome,1440,900,,,l,0.9836,1,475,2,0,6,6,2,1,1,0,0,0,0,0,0,1,triangle,star,,,,,,,,,,,,,,,,,,,,,,,,,,,,,,,,,,,,,,,,,,,,,,,,,,,,,,
297640,2022-11-29_15h10.46.181,vts_reward_expectancy_bt,2022.2.4,MacIntel,60.0024001,Chrome,1440,900,,,a,1.0036,10,485,2,0,7,7,9,1,0,0,0,1,1,0,0,0,star,triangle,,,,,,,,,,,,,,,,,,,,,,,,,,,,,,,,,,,,,,,,,,,,,,,,,,,,,,
297640,2022-11-29_15h10.46.181,vts_reward_expectancy_bt,2022.2.4,MacIntel,60.0024001,Chrome,1440,900,,,l,1.5008,10,495,2,0,8,8,8,1,0,0,1,0,0,0,0,1,hexagon,star,,,,,,,,,,,,,,,,,,,,,,,,,,,,,,,,,,,,,,,,,,,,,,,,,,,,,,
297640,2022-11-29_15h10.46.181,vts_reward_expectancy_bt,2022.2.4,MacIntel,60.0024001,Chrome,1440,900,,,a,3.7763,10,505,2,0,9,9,6,1,0,0,1,0,1,0,0,0,hexagon,triangle,,,,,,,,,,,,,,,,,,,,,,,,,,,,,,,,,,,,,,,,,,,,,,,,,,,,,,
297640,2022-11-29_15h10.46.181,vts_reward_expectancy_bt,2022.2.4,MacIntel,60.0024001,Chrome,1440,900,,,l,3.4272,1,506,2,0,10,10,3,1,0,1,0,0,1,0,0,0,circle,triangle,,,,,,,,,,,,,,,,,,,,,,,,,,,,,,,,,,,,,,,,,,,,,,,,,,,,,,
297640,2022-11-29_15h10.46.181,vts_reward_expectancy_bt,2022.2.4,MacIntel,60.0024001,Chrome,1440,900,,,a,0.9705,1,507,2,0,11,11,1,1,1,0,0,0,0,0,1,0,triangle,hexagon,,,,,,,,,,,,,,,,,,,,,,,,,,,,,,,,,,,,,,,,,,,,,,,,,,,,,,
297640,2022-11-29_15h10.46.181,vts_reward_expectancy_bt,2022.2.4,MacIntel,60.0024001,Chrome,1440,900,,,l,1.4373,10,517,2,1,0,12,2,1,1,0,0,0,0,0,0,1,triangle,star,,,,,,,,,,,,,,,,,,,,,,,,,,,,,,,,,,,,,,,,,,,,,,,,,,,,,,
297640,2022-11-29_15h10.46.181,vts_reward_expectancy_bt,2022.2.4,MacIntel,60.0024001,Chrome,1440,900,,,a,0.6044,10,527,2,1,1,13,9,1,0,0,0,1,1,0,0,0,star,triangle,,,,,,,,,,,,,,,,,,,,,,,,,,,,,,,,,,,,,,,,,,,,,,,,,,,,,,
297640,2022-11-29_15h10.46.181,vts_reward_expectancy_bt,2022.2.4,MacIntel,60.0024001,Chrome,1440,900,,,l,0.551,10,537,2,1,2,14,5,1,0,1,0,0,0,0,0,1,circle,star,,,,,,,,,,,,,,,,,,,,,,,,,,,,,,,,,,,,,,,,,,,,,,,,,,,,,,
297640,2022-11-29_15h10.46.181,vts_reward_expectancy_bt,2022.2.4,MacIntel,60.0024001,Chrome,1440,900,,,l,0.5477,1,538,2,1,3,15,7,1,0,0,1,0,0,1,0,0,hexagon,circle,,,,,,,,,,,,,,,,,,,,,,,,,,,,,,,,,,,,,,,,,,,,,,,,,,,,,,
297640,2022-11-29_15h10.46.181,vts_reward_expectancy_bt,2022.2.4,MacIntel,60.0024001,Chrome,1440,900,,,a,3.0283,1,539,2,1,4,16,10,1,0,0,0,1,0,1,0,0,star ,circle,,,,,,,,,,,,,,,,,,,,,,,,,,,,,,,,,,,,,,,,,,,,,,,,,,,,,,
297640,2022-11-29_15h10.46.181,vts_reward_expectancy_bt,2022.2.4,MacIntel,60.0024001,Chrome,1440,900,,,a,2.2272,10,549,2,1,5,17,11,1,0,0,0,1,0,0,1,0,star,hexagon,,,,,,,,,,,,,,,,,,,,,,,,,,,,,,,,,,,,,,,,,,,,,,,,,,,,,,
297640,2022-11-29_15h10.46.181,vts_reward_expectancy_bt,2022.2.4,MacIntel,60.0024001,Chrome,1440,900,,,a,0.589,1,550,2,1,6,18,3,1,0,1,0,0,1,0,0,0,circle,triangle,,,,,,,,,,,,,,,,,,,,,,,,,,,,,,,,,,,,,,,,,,,,,,,,,,,,,,
297640,2022-11-29_15h10.46.181,vts_reward_expectancy_bt,2022.2.4,MacIntel,60.0024001,Chrome,1440,900,,,l,0.5205,10,560,2,1,7,19,1,1,1,0,0,0,0,0,1,0,triangle,hexagon,,,,,,,,,,,,,,,,,,,,,,,,,,,,,,,,,,,,,,,,,,,,,,,,,,,,,,
297640,2022-11-29_15h10.46.181,vts_reward_expectancy_bt,2022.2.4,MacIntel,60.0024001,Chrome,1440,900,,,a,0.6336,1,561,2,1,8,20,6,1,0,0,1,0,1,0,0,0,hexagon,triangle,,,,,,,,,,,,,,,,,,,,,,,,,,,,,,,,,,,,,,,,,,,,,,,,,,,,,,
297640,2022-11-29_15h10.46.181,vts_reward_expectancy_bt,2022.2.4,MacIntel,60.0024001,Chrome,1440,900,,,l,0.425,10,571,2,1,9,21,0,1,1,0,0,0,0,1,0,0,triangle,circle,,,,,,,,,,,,,,,,,,,,,,,,,,,,,,,,,,,,,,,,,,,,,,,,,,,,,,
297640,2022-11-29_15h10.46.181,vts_reward_expectancy_bt,2022.2.4,MacIntel,60.0024001,Chrome,1440,900,,,l,0.4759,1,572,2,1,10,22,8,1,0,0,1,0,0,0,0,1,hexagon,star,,,,,,,,,,,,,,,,,,,,,,,,,,,,,,,,,,,,,,,,,,,,,,,,,,,,,,
297640,2022-11-29_15h10.46.181,vts_reward_expectancy_bt,2022.2.4,MacIntel,60.0024001,Chrome,1440,900,,,l,1.1239,1,573,2,1,11,23,4,1,0,1,0,0,0,0,1,0,circle,hexagon,,,,,,,,,,,,,,,,,,,,,,,,,,,,,,,,,,,,,,,,,,,,,,,,,,,,,,
297640,2022-11-29_15h10.46.181,vts_reward_expectancy_bt,2022.2.4,MacIntel,60.0024001,Chrome,1440,900,,,l,1.1161,10,583,2,2,0,24,5,1,0,1,0,0,0,0,0,1,circle,star,,,,,,,,,,,,,,,,,,,,,,,,,,,,,,,,,,,,,,,,,,,,,,,,,,,,,,
297640,2022-11-29_15h10.46.181,vts_reward_expectancy_bt,2022.2.4,MacIntel,60.0024001,Chrome,1440,900,,,l,0.9689,10,593,2,2,1,25,0,1,1,0,0,0,0,1,0,0,triangle,circle,,,,,,,,,,,,,,,,,,,,,,,,,,,,,,,,,,,,,,,,,,,,,,,,,,,,,,
297640,2022-11-29_15h10.46.181,vts_reward_expectancy_bt,2022.2.4,MacIntel,60.0024001,Chrome,1440,900,,,l,0.7904,10,603,2,2,2,26,7,1,0,0,1,0,0,1,0,0,hexagon,circle,,,,,,,,,,,,,,,,,,,,,,,,,,,,,,,,,,,,,,,,,,,,,,,,,,,,,,
297640,2022-11-29_15h10.46.181,vts_reward_expectancy_bt,2022.2.4,MacIntel,60.0024001,Chrome,1440,900,,,a,0.4524,10,613,2,2,3,27,9,1,0,0,0,1,1,0,0,0,star,triangle,,,,,,,,,,,,,,,,,,,,,,,,,,,,,,,,,,,,,,,,,,,,,,,,,,,,,,
297640,2022-11-29_15h10.46.181,vts_reward_expectancy_bt,2022.2.4,MacIntel,60.0024001,Chrome,1440,900,,,l,0.4501,1,614,2,2,4,28,2,1,1,0,0,0,0,0,0,1,triangle,star,,,,,,,,,,,,,,,,,,,,,,,,,,,,,,,,,,,,,,,,,,,,,,,,,,,,,,
297640,2022-11-29_15h10.46.181,vts_reward_expectancy_bt,2022.2.4,MacIntel,60.0024001,Chrome,1440,900,,,l,0.6235,10,624,2,2,5,29,3,1,0,1,0,0,1,0,0,0,circle,triangle,,,,,,,,,,,,,,,,,,,,,,,,,,,,,,,,,,,,,,,,,,,,,,,,,,,,,,
297640,2022-11-29_15h10.46.181,vts_reward_expectancy_bt,2022.2.4,MacIntel,60.0024001,Chrome,1440,900,,,a,0.8459,1,625,2,2,6,30,6,1,0,0,1,0,1,0,0,0,hexagon,triangle,,,,,,,,,,,,,,,,,,,,,,,,,,,,,,,,,,,,,,,,,,,,,,,,,,,,,,
297640,2022-11-29_15h10.46.181,vts_reward_expectancy_bt,2022.2.4,MacIntel,60.0024001,Chrome,1440,900,,,a,0.9197,1,626,2,2,7,31,11,1,0,0,0,1,0,0,1,0,star,hexagon,,,,,,,,,,,,,,,,,,,,,,,,,,,,,,,,,,,,,,,,,,,,,,,,,,,,,,
297640,2022-11-29_15h10.46.181,vts_reward_expectancy_bt,2022.2.4,MacIntel,60.0024001,Chrome,1440,900,,,l,0.9931,1,627,2,2,8,32,4,1,0,1,0,0,0,0,1,0,circle,hexagon,,,,,,,,,,,,,,,,,,,,,,,,,,,,,,,,,,,,,,,,,,,,,,,,,,,,,,
297640,2022-11-29_15h10.46.181,vts_reward_expectancy_bt,2022.2.4,MacIntel,60.0024001,Chrome,1440,900,,,l,0.4453,10,637,2,2,9,33,8,1,0,0,1,0,0,0,0,1,hexagon,star,,,,,,,,,,,,,,,,,,,,,,,,,,,,,,,,,,,,,,,,,,,,,,,,,,,,,,
297640,2022-11-29_15h10.46.181,vts_reward_expectancy_bt,2022.2.4,MacIntel,60.0024001,Chrome,1440,900,,,a,0.4665,10,647,2,2,10,34,10,1,0,0,0,1,0,1,0,0,star ,circle,,,,,,,,,,,,,,,,,,,,,,,,,,,,,,,,,,,,,,,,,,,,,,,,,,,,,,
297640,2022-11-29_15h10.46.181,vts_reward_expectancy_bt,2022.2.4,MacIntel,60.0024001,Chrome,1440,900,,,l,0.677,10,657,2,2,11,35,1,1,1,0,0,0,0,0,1,0,triangle,hexagon,,,,,,,,,,,,,,,,,,,,,,,,,,,,,,,,,,,,,,,,,,,,,,,,,,,,,,
297640,2022-11-29_15h10.46.181,vts_reward_expectancy_bt,2022.2.4,MacIntel,60.0024001,Chrome,1440,900,,,,,,,,,,,,,,,,,,,,,,,B,125,triangle,1,0,d,2.4534,0,0,0,0,0,1,,,,,,,,,,,,,,,,,,,,,,,,,,,,,,,,,,,,,,,,,
297640,2022-11-29_15h10.46.181,vts_reward_expectancy_bt,2022.2.4,MacIntel,60.0024001,Chrome,1440,900,,,,,,,,,,,,,,,,,,,,,,,W,132,hexagon,1,0,f,0.5816,0,1,0,1,0,1,,,,,,,,,,,,,,,,,,,,,,,,,,,,,,,,,,,,,,,,,
297640,2022-11-29_15h10.46.181,vts_reward_expectancy_bt,2022.2.4,MacIntel,60.0024001,Chrome,1440,900,,,,,,,,,,,,,,,,,,,,,,,U,139,circle,1,0,f,1.064,0,2,0,2,0,1,,,,,,,,,,,,,,,,,,,,,,,,,,,,,,,,,,,,,,,,,
297640,2022-11-29_15h10.46.181,vts_reward_expectancy_bt,2022.2.4,MacIntel,60.0024001,Chrome,1440,900,,,,,,,,,,,,,,,,,,,,,,,H,174,star,1,0,d,0.6409,0,3,0,3,0,1,,,,,,,,,,,,,,,,,,,,,,,,,,,,,,,,,,,,,,,,,
297640,2022-11-29_15h10.46.181,vts_reward_expectancy_bt,2022.2.4,MacIntel,60.0024001,Chrome,1440,900,,,,,,,,,,,,,,,,,,,,,,,F,167,triangle,1,0,d,0.6286,0,4,0,4,0,1,,,,,,,,,,,,,,,,,,,,,,,,,,,,,,,,,,,,,,,,,
297640,2022-11-29_15h10.46.181,vts_reward_expectancy_bt,2022.2.4,MacIntel,60.0024001,Chrome,1440,900,,,,,,,,,,,,,,,,,,,,,,,Y,146,hexagon,1,0,f,0.565,0,5,0,5,0,1,,,,,,,,,,,,,,,,,,,,,,,,,,,,,,,,,,,,,,,,,
297640,2022-11-29_15h10.46.181,vts_reward_expectancy_bt,2022.2.4,MacIntel,60.0024001,Chrome,1440,900,,,,,,,,,,,,,,,,,,,,,,,S,181,circle,1,0,f,0.7417,0,6,0,6,0,1,,,,,,,,,,,,,,,,,,,,,,,,,,,,,,,,,,,,,,,,,
297640,2022-11-29_15h10.46.181,vts_reward_expectancy_bt,2022.2.4,MacIntel,60.0024001,Chrome,1440,900,,,,,,,,,,,,,,,,,,,,,,,D,160,star,1,0,d,0.7146,0,7,0,7,0,1,,,,,,,,,,,,,,,,,,,,,,,,,,,,,,,,,,,,,,,,,
297640,2022-11-29_15h10.46.181,vts_reward_expectancy_bt,2022.2.4,MacIntel,60.0024001,Chrome,1440,900,,,,,,,,,,,,,,,,,,,,,,,B,125,star,1,0,d,0.6932,0,8,0,8,0,1,,,,,,,,,,,,,,,,,,,,,,,,,,,,,,,,,,,,,,,,,
297640,2022-11-29_15h10.46.181,vts_reward_expectancy_bt,2022.2.4,MacIntel,60.0024001,Chrome,1440,900,,,,,,,,,,,,,,,,,,,,,,,W,132,circle,0,0,d,0.7751,0,9,0,9,0,1,,,,,,,,,,,,,,,,,,,,,,,,,,,,,,,,,,,,,,,,,
297640,2022-11-29_15h10.46.181,vts_reward_expectancy_bt,2022.2.4,MacIntel,60.0024001,Chrome,1440,900,,,,,,,,,,,,,,,,,,,,,,,U,139,circle,1,1,,,1,,,,,,j,0.6983,0,0,0,0,1,,,,,,,,,,,,,,,,,,,,,,,,,,,,,,,,,,
297640,2022-11-29_15h10.46.181,vts_reward_expectancy_bt,2022.2.4,MacIntel,60.0024001,Chrome,1440,900,,,,,,,,,,,,,,,,,,,,,,,W,160,hexagon,1,0,,,1,,,,,,k,0.5568,1,0,1,0,1,,,,,,,,,,,,,,,,,,,,,,,,,,,,,,,,,,
297640,2022-11-29_15h10.46.181,vts_reward_expectancy_bt,2022.2.4,MacIntel,60.0024001,Chrome,1440,900,,,,,,,,,,,,,,,,,,,,,,,D,167,star,1,0,,,1,,,,,,k,0.4913,2,0,2,0,1,,,,,,,,,,,,,,,,,,,,,,,,,,,,,,,,,,
297640,2022-11-29_15h10.46.181,vts_reward_expectancy_bt,2022.2.4,MacIntel,60.0024001,Chrome,1440,900,,,,,,,,,,,,,,,,,,,,,,,S,181,triangle,1,0,,,1,,,,,,k,0.526,3,0,3,0,1,,,,,,,,,,,,,,,,,,,,,,,,,,,,,,,,,,
297640,2022-11-29_15h10.46.181,vts_reward_expectancy_bt,2022.2.4,MacIntel,60.0024001,Chrome,1440,900,,,,,,,,,,,,,,,,,,,,,,,Y,125,circle,1,0,,,1,,,,,,j,0.7155,4,0,4,0,1,,,,,,,,,,,,,,,,,,,,,,,,,,,,,,,,,,
297640,2022-11-29_15h10.46.181,vts_reward_expectancy_bt,2022.2.4,MacIntel,60.0024001,Chrome,1440,900,,,,,,,,,,,,,,,,,,,,,,,B,146,hexagon,1,0,,,1,,,,,,j,0.7132,5,0,5,0,1,,,,,,,,,,,,,,,,,,,,,,,,,,,,,,,,,,
297640,2022-11-29_15h10.46.181,vts_reward_expectancy_bt,2022.2.4,MacIntel,60.0024001,Chrome,1440,900,,,,,,,,,,,,,,,,,,,,,,,F,174,star,1,0,,,1,,,,,,k,0.7936,6,0,6,0,1,,,,,,,,,,,,,,,,,,,,,,,,,,,,,,,,,,
297640,2022-11-29_15h10.46.181,vts_reward_expectancy_bt,2022.2.4,MacIntel,60.0024001,Chrome,1440,900,,,,,,,,,,,,,,,,,,,,,,,H,132,triangle,1,0,,,1,,,,,,j,0.6559,7,0,7,0,1,,,,,,,,,,,,,,,,,,,,,,,,,,,,,,,,,,
297640,2022-11-29_15h10.46.181,vts_reward_expectancy_bt,2022.2.4,MacIntel,60.0024001,Chrome,1440,900,,,,,,,,,,,,,,,,,,,,,,,U,139,star,1,0,,,1,,,,,,j,0.6115,8,0,8,0,1,,,,,,,,,,,,,,,,,,,,,,,,,,,,,,,,,,
297640,2022-11-29_15h10.46.181,vts_reward_expectancy_bt,2022.2.4,MacIntel,60.0024001,Chrome,1440,900,,,,,,,,,,,,,,,,,,,,,,,W,160,triangle,1,0,,,1,,,,,,k,1.2317,9,0,9,0,1,,,,,,,,,,,,,,,,,,,,,,,,,,,,,,,,,,
297640,2022-11-29_15h10.46.181,vts_reward_expectancy_bt,2022.2.4,MacIntel,60.0024001,Chrome,1440,900,,,,,0,657,,,,,,,,,,,,,,,,,W,167,hexagon,1,0,,,2,,,,,,,,,,,,,-1,number,NA,k,1.2281,vtsPrac,0,0,0,0,1,,,,,,,,,,,,,,,,,,,,,,,
297640,2022-11-29_15h10.46.181,vts_reward_expectancy_bt,2022.2.4,MacIntel,60.0024001,Chrome,1440,900,,,,,0,657,,,,,,,,,,,,,,,,,H,146,circle,0,0,,,2,,,,,,,,,,,,,repeat,number,NA,k,0.7246,vtsPrac,1,0,1,0,1,,,,,,,,,,,,,,,,,,,,,,,
297640,2022-11-29_15h10.46.181,vts_reward_expectancy_bt,2022.2.4,MacIntel,60.0024001,Chrome,1440,900,,,,,0,657,,,,,,,,,,,,,,,,,F,181,hexagon,1,1,,,2,,,,,,,,,,,,,switch,letter,lettSwt,d,1.4741,vtsPrac,2,0,2,0,1,,,,,,,,,,,,,,,,,,,,,,,
297640,2022-11-29_15h10.46.181,vts_reward_expectancy_bt,2022.2.4,MacIntel,60.0024001,Chrome,1440,900,,,,,0,657,,,,,,,,,,,,,,,,,Y,160,circle,1,0,,,2,,,,,,,,,,,,,repeat,letter,lettRpt,f,0.7155,vtsPrac,3,0,3,0,1,,,,,,,,,,,,,,,,,,,,,,,
297640,2022-11-29_15h10.46.181,vts_reward_expectancy_bt,2022.2.4,MacIntel,60.0024001,Chrome,1440,900,,,,,0,657,,,,,,,,,,,,,,,,,W,167,hexagon,1,0,,,2,,,,,,,,,,,,,repeat,letter,lettRpt,f,0.6037,vtsPrac,4,0,4,0,1,,,,,,,,,,,,,,,,,,,,,,,
297640,2022-11-29_15h10.46.181,vts_reward_expectancy_bt,2022.2.4,MacIntel,60.0024001,Chrome,1440,900,,,,,0,657,,,,,,,,,,,,,,,,,H,146,star,1,0,,,2,,,,,,,,,,,,,switch,number,numSwt,j,1.1068,vtsPrac,5,0,5,0,1,,,,,,,,,,,,,,,,,,,,,,,
297640,2022-11-29_15h10.46.181,vts_reward_expectancy_bt,2022.2.4,MacIntel,60.0024001,Chrome,1440,900,,,,,0,657,,,,,,,,,,,,,,,,,F,181,circle,1,0,,,2,,,,,,,,,,,,,repeat,number,numRpt,k,0.7632,vtsPrac,6,0,6,0,1,,,,,,,,,,,,,,,,,,,,,,,
297640,2022-11-29_15h10.46.181,vts_reward_expectancy_bt,2022.2.4,MacIntel,60.0024001,Chrome,1440,900,,,,,0,657,,,,,,,,,,,,,,,,,Y,160,triangle,1,0,,,2,,,,,,,,,,,,,repeat,number,numRpt,k,0.9484,vtsPrac,7,0,7,0,1,,,,,,,,,,,,,,,,,,,,,,,
297640,2022-11-29_15h10.46.181,vts_reward_expectancy_bt,2022.2.4,MacIntel,60.0024001,Chrome,1440,900,,,,,0,657,,,,,,,,,,,,,,,,,B,125,circle,1,0,,,2,,,,,,,,,,,,,repeat,number,numRpt,j,0.5527,vtsPrac,8,0,8,0,1,,,,,,,,,,,,,,,,,,,,,,,
297640,2022-11-29_15h10.46.181,vts_reward_expectancy_bt,2022.2.4,MacIntel,60.0024001,Chrome,1440,900,,,,,0,657,,,,,,,,,,,,,,,,,W,181,triangle,1,0,,,2,,,,,,,,,,,,,repeat,number,numRpt,k,0.8303,vtsPrac,9,0,9,0,1,,,,,,,,,,,,,,,,,,,,,,,
297640,2022-11-29_15h10.46.181,vts_reward_expectancy_bt,2022.2.4,MacIntel,60.0024001,Chrome,1440,900,,,,,0,657,,,,,,,,,,,,,,,,,Y,132,star,1,0,,,2,,,,,,,,,,,,,switch,letter,lettSwt,f,0.5714,vtsPrac,10,0,10,0,1,,,,,,,,,,,,,,,,,,,,,,,
297640,2022-11-29_15h10.46.181,vts_reward_expectancy_bt,2022.2.4,MacIntel,60.0024001,Chrome,1440,900,,,,,0,657,,,,,,,,,,,,,,,,,S,167,triangle,1,0,,,2,,,,,,,,,,,,,repeat,letter,lettRpt,f,0.7491,vtsPrac,11,0,11,0,1,,,,,,,,,,,,,,,,,,,,,,,
297640,2022-11-29_15h10.46.181,vts_reward_expectancy_bt,2022.2.4,MacIntel,60.0024001,Chrome,1440,900,,,,,0,657,,,,,,,,,,,,,,,,,H,146,triangle,1,0,,,2,,,,,,,,,,,,,switch,number,numSwt,j,0.9646,vtsPrac,12,0,12,0,1,,,,,,,,,,,,,,,,,,,,,,,
297640,2022-11-29_15h10.46.181,vts_reward_expectancy_bt,2022.2.4,MacIntel,60.0024001,Chrome,1440,900,,,,,0,657,,,,,,,,,,,,,,,,,U,167,circle,1,0,,,2,,,,,,,,,,,,,switch,letter,lettSwt,f,0.9112,vtsPrac,13,0,13,0,1,,,,,,,,,,,,,,,,,,,,,,,
297640,2022-11-29_15h10.46.181,vts_reward_expectancy_bt,2022.2.4,MacIntel,60.0024001,Chrome,1440,900,,,,,0,657,,,,,,,,,,,,,,,,,F,125,triangle,1,0,,,2,,,,,,,,,,,,,repeat,letter,lettRpt,d,0.812,vtsPrac,14,0,14,0,1,,,,,,,,,,,,,,,,,,,,,,,
297640,2022-11-29_15h10.46.181,vts_reward_expectancy_bt,2022.2.4,MacIntel,60.0024001,Chrome,1440,900,,,,,0,657,,,,,,,,,,,,,,,,,B,132,hexagon,1,0,,,2,,,,,,,,,,,,,repeat,letter,lettRpt,d,1.0266,vtsPrac,15,0,15,0,1,,,,,,,,,,,,,,,,,,,,,,,
297640,2022-11-29_15h10.46.181,vts_reward_expectancy_bt,2022.2.4,MacIntel,60.0024001,Chrome,1440,900,,,,,0,657,,,,,,,,,,,,,,,,,D,146,star,1,0,,,2,,,,,,,,,,,,,repeat,letter,lettRpt,d,0.5631,vtsPrac,16,0,16,0,1,,,,,,,,,,,,,,,,,,,,,,,
297640,2022-11-29_15h10.46.181,vts_reward_expectancy_bt,2022.2.4,MacIntel,60.0024001,Chrome,1440,900,,,,,0,657,,,,,,,,,,,,,,,,,S,132,hexagon,1,0,,,2,,,,,,,,,,,,,switch,number,numSwt,j,0.7479,vtsPrac,17,0,17,0,1,,,,,,,,,,,,,,,,,,,,,,,
297640,2022-11-29_15h10.46.181,vts_reward_expectancy_bt,2022.2.4,MacIntel,60.0024001,Chrome,1440,900,,,,,0,657,,,,,,,,,,,,,,,,,W,160,triangle,1,0,,,2,,,,,,,,,,,,,repeat,number,numRpt,k,0.9909,vtsPrac,18,0,18,0,1,,,,,,,,,,,,,,,,,,,,,,,
297640,2022-11-29_15h10.46.181,vts_reward_expectancy_bt,2022.2.4,MacIntel,60.0024001,Chrome,1440,900,,,,,0,657,,,,,,,,,,,,,,,,,F,125,hexagon,1,0,,,2,,,,,,,,,,,,,switch,letter,lettSwt,d,0.7715,vtsPrac,19,0,19,0,1,,,,,,,,,,,,,,,,,,,,,,,
297640,2022-11-29_15h10.46.181,vts_reward_expectancy_bt,2022.2.4,MacIntel,60.0024001,Chrome,1440,900,,,,,0,657,,,,,,,,,,,,,,,,,D,181,circle,1,0,,,2,,,,,,,,,,,,,repeat,letter,lettRpt,d,0.7049,vtsPrac,20,0,20,0,1,,,,,,,,,,,,,,,,,,,,,,,
297640,2022-11-29_15h10.46.181,vts_reward_expectancy_bt,2022.2.4,MacIntel,60.0024001,Chrome,1440,900,,,,,0,657,,,,,,,,,,,,,,,,,U,125,hexagon,1,0,,,2,,,,,,,,,,,,,repeat,letter,lettRpt,f,1.0714,vtsPrac,21,0,21,0,1,,,,,,,,,,,,,,,,,,,,,,,
297640,2022-11-29_15h10.46.181,vts_reward_expectancy_bt,2022.2.4,MacIntel,60.0024001,Chrome,1440,900,,,,,0,657,,,,,,,,,,,,,,,,,H,139,star,1,0,,,2,,,,,,,,,,,,,repeat,letter,lettRpt,d,0.7784,vtsPrac,22,0,22,0,1,,,,,,,,,,,,,,,,,,,,,,,
297640,2022-11-29_15h10.46.181,vts_reward_expectancy_bt,2022.2.4,MacIntel,60.0024001,Chrome,1440,900,,,,,0,657,,,,,,,,,,,,,,,,,S,167,circle,1,0,,,2,,,,,,,,,,,,,repeat,letter,lettRpt,f,0.7904,vtsPrac,23,0,23,0,1,,,,,,,,,,,,,,,,,,,,,,,
297640,2022-11-29_15h10.46.181,vts_reward_expectancy_bt,2022.2.4,MacIntel,60.0024001,Chrome,1440,900,,,,,0,657,,,,,,,,,,,,,,,,,F,160,triangle,1,0,,,2,,,,,,,,,,,,,switch,number,numSwt,k,0.4731,vtsPrac,24,0,24,0,1,,,,,,,,,,,,,,,,,,,,,,,
297640,2022-11-29_15h10.46.181,vts_reward_expectancy_bt,2022.2.4,MacIntel,60.0024001,Chrome,1440,900,,,,,0,657,,,,,,,,,,,,,,,,,U,139,star,1,0,,,2,,,,,,,,,,,,,switch,letter,lettSwt,f,0.9482,vtsPrac,25,0,25,0,1,,,,,,,,,,,,,,,,,,,,,,,
297640,2022-11-29_15h10.46.181,vts_reward_expectancy_bt,2022.2.4,MacIntel,60.0024001,Chrome,1440,900,,,,,0,657,,,,,,,,,,,,,,,,,H,125,hexagon,1,0,,,2,,,,,,,,,,,,,switch,number,numSwt,j,0.753,vtsPrac,26,0,26,0,1,,,,,,,,,,,,,,,,,,,,,,,
297640,2022-11-29_15h10.46.181,vts_reward_expectancy_bt,2022.2.4,MacIntel,60.0024001,Chrome,1440,900,,,,,0,657,,,,,,,,,,,,,,,,,W,181,triangle,1,0,,,2,,,,,,,,,,,,,repeat,number,numRpt,k,0.6129,vtsPrac,27,0,27,0,1,,,,,,,,,,,,,,,,,,,,,,,
297640,2022-11-29_15h10.46.181,vts_reward_expectancy_bt,2022.2.4,MacIntel,60.0024001,Chrome,1440,900,,,,,0,657,,,,,,,,,,,,,,,,,D,146,circle,1,0,,,2,,,,,,,,,,,,,switch,letter,lettSwt,d,1.2023,vtsPrac,28,0,28,0,1,,,,,,,,,,,,,,,,,,,,,,,
297640,2022-11-29_15h10.46.181,vts_reward_expectancy_bt,2022.2.4,MacIntel,60.0024001,Chrome,1440,900,,,,,0,657,,,,,,,,,,,,,,,,,H,125,triangle,1,0,,,2,,,,,,,,,,,,,repeat,letter,lettRpt,d,0.7225,vtsPrac,29,0,29,0,1,,,,,,,,,,,,,,,,,,,,,,,
297640,2022-11-29_15h10.46.181,vts_reward_expectancy_bt,2022.2.4,MacIntel,60.0024001,Chrome,1440,900,,,,,0,657,,,,,,,,,,,,,,,,,W,174,star,1,0,,,2,,,,,,,,,,,,,switch,number,numSwt,k,0.6642,vtsPrac,30,0,30,0,1,,,,,,,,,,,,,,,,,,,,,,,
297640,2022-11-29_15h10.46.181,vts_reward_expectancy_bt,2022.2.4,MacIntel,60.0024001,Chrome,1440,900,,,,,0,657,,,,,,,,,,,,,,,,,U,132,circle,1,0,,,2,,,,,,,,,,,,,repeat,number,numRpt,j,0.7981,vtsPrac,31,0,31,0,1,,,,,,,,,,,,,,,,,,,,,,,
297640,2022-11-29_15h10.46.181,vts_reward_expectancy_bt,2022.2.4,MacIntel,60.0024001,Chrome,1440,900,,,,,,,,,,,,,,,,,,,,,,,,,,,,,,,,,,,,,,,,,,,,,,,,,,,,,,,,,,,,,,,,,,,,,,,,,,,,
297640,2022-11-29_15h10.46.181,vts_reward_expectancy_bt,2022.2.4,MacIntel,60.0024001,Chrome,1440,900,,,,,,,,,,,,,,,,,,,,,,,,,,,,,,,,,,,,,,,,,,,,,,,,,,,,,,,,,,,,,,,,,,,,,,,,,,,,
297640,2022-11-29_15h10.46.181,vts_reward_expectancy_bt,2022.2.4,MacIntel,60.0024001,Chrome,1440,900,,,,,0,657,,,,,,,,,,,,,,,,,S,174,hexagon,1,0,,,,,,,,,,,,,,,,switch,letter,lettSwt,f,1.0592,noRew,,,,,,0,0,0,0,0,1,,,,,,,,,,,,,,,,,
297640,2022-11-29_15h10.46.181,vts_reward_expectancy_bt,2022.2.4,MacIntel,60.0024001,Chrome,1440,900,,,,,0,657,,,,,,,,,,,,,,,,,D,132,triangle,1,0,,,,,,,,,,,,,,,,repeat,letter,lettRpt,d,0.8825,noRew,,,,,,0,1,0,1,0,1,,,,,,,,,,,,,,,,,
297640,2022-11-29_15h10.46.181,vts_reward_expectancy_bt,2022.2.4,MacIntel,60.0024001,Chrome,1440,900,,,,,0,657,,,,,,,,,,,,,,,,,U,181,hexagon,1,0,,,,,,,,,,,,,,,,switch,number,numSwt,k,0.5401,noRew,,,,,,0,2,0,2,0,1,,,,,,,,,,,,,,,,,
297640,2022-11-29_15h10.46.181,vts_reward_expectancy_bt,2022.2.4,MacIntel,60.0024001,Chrome,1440,900,,,,,0,657,,,,,,,,,,,,,,,,,H,167,triangle,1,0,,,,,,,,,,,,,,,,repeat,number,numRpt,k,0.582,noRew,,,,,,0,3,0,3,0,1,,,,,,,,,,,,,,,,,
297640,2022-11-29_15h10.46.181,vts_reward_expectancy_bt,2022.2.4,MacIntel,60.0024001,Chrome,1440,900,,,,,0,657,,,,,,,,,,,,,,,,,S,174,hexagon,1,0,,,,,,,,,,,,,,,,repeat,number,numRpt,k,0.6154,noRew,,,,,,0,4,0,4,0,1,,,,,,,,,,,,,,,,,
297640,2022-11-29_15h10.46.181,vts_reward_expectancy_bt,2022.2.4,MacIntel,60.0024001,Chrome,1440,900,,,,,0,657,,,,,,,,,,,,,,,,,D,132,star,1,0,,,,,,,,,,,,,,,,repeat,number,numRpt,j,0.6405,noRew,,,,,,0,5,0,5,0,1,,,,,,,,,,,,,,,,,
297640,2022-11-29_15h10.46.181,vts_reward_expectancy_bt,2022.2.4,MacIntel,60.0024001,Chrome,1440,900,,,,,0,657,,,,,,,,,,,,,,,,,U,181,circle,1,0,,,,,,,,,,,,,,,,repeat,number,numRpt,k,0.7008,noRew,,,,,,0,6,0,6,0,1,,,,,,,,,,,,,,,,,
297640,2022-11-29_15h10.46.181,vts_reward_expectancy_bt,2022.2.4,MacIntel,60.0024001,Chrome,1440,900,,,,,0,657,,,,,,,,,,,,,,,,,H,167,hexagon,1,0,,,,,,,,,,,,,,,,repeat,number,numRpt,k,0.8649,noRew,,,,,,0,7,0,7,0,1,,,,,,,,,,,,,,,,,
297640,2022-11-29_15h10.46.181,vts_reward_expectancy_bt,2022.2.4,MacIntel,60.0024001,Chrome,1440,900,,,,,0,657,,,,,,,,,,,,,,,,,F,181,star,1,0,,,,,,,,,,,,,,,,repeat,number,numRpt,k,0.8807,noRew,,,,,,0,8,0,8,0,1,,,,,,,,,,,,,,,,,
297640,2022-11-29_15h10.46.181,vts_reward_expectancy_bt,2022.2.4,MacIntel,60.0024001,Chrome,1440,900,,,,,0,657,,,,,,,,,,,,,,,,,D,160,circle,1,0,,,,,,,,,,,,,,,,repeat,number,numRpt,k,0.757,noRew,,,,,,0,9,0,9,0,1,,,,,,,,,,,,,,,,,
297640,2022-11-29_15h10.46.181,vts_reward_expectancy_bt,2022.2.4,MacIntel,60.0024001,Chrome,1440,900,,,,,0,657,,,,,,,,,,,,,,,,,W,139,hexagon,1,0,,,,,,,,,,,,,,,,repeat,number,numRpt,j,0.6654,noRew,,,,,,0,10,0,10,0,1,,,,,,,,,,,,,,,,,
297640,2022-11-29_15h10.46.181,vts_reward_expectancy_bt,2022.2.4,MacIntel,60.0024001,Chrome,1440,900,,,,,0,657,,,,,,,,,,,,,,,,,U,125,circle,1,0,,,,,,,,,,,,,,,,repeat,number,numRpt,j,0.8564,noRew,,,,,,0,11,0,11,0,1,,,,,,,,,,,,,,,,,
297640,2022-11-29_15h10.46.181,vts_reward_expectancy_bt,2022.2.4,MacIntel,60.0024001,Chrome,1440,900,,,,,0,657,,,,,,,,,,,,,,,,,Y,125,circle,1,0,,,,,,,,,,,,,,,,repeat,number,numRpt,j,0.7651,noRew,,,,,,0,12,0,12,0,1,,,,,,,,,,,,,,,,,
297640,2022-11-29_15h10.46.181,vts_reward_expectancy_bt,2022.2.4,MacIntel,60.0024001,Chrome,1440,900,,,,,0,657,,,,,,,,,,,,,,,,,B,160,star,1,0,,,,,,,,,,,,,,,,repeat,number,numRpt,k,0.9471,noRew,,,,,,0,13,0,13,0,1,,,,,,,,,,,,,,,,,
297640,2022-11-29_15h10.46.181,vts_reward_expectancy_bt,2022.2.4,MacIntel,60.0024001,Chrome,1440,900,,,,,0,657,,,,,,,,,,,,,,,,,S,146,star,0,0,,,,,,,,,,,,,,,,switch,letter,NA,d,1.8054,noRew,,,,,,0,14,0,14,0,1,,,,,,,,,,,,,,,,,
297640,2022-11-29_15h10.46.181,vts_reward_expectancy_bt,2022.2.4,MacIntel,60.0024001,Chrome,1440,900,,,,,0,657,,,,,,,,,,,,,,,,,H,132,circle,1,1,,,,,,,,,,,,,,,,switch,number,numSwt,j,2.2294,noRew,,,,,,0,15,0,15,0,1,,,,,,,,,,,,,,,,,
297640,2022-11-29_15h10.46.181,vts_reward_expectancy_bt,2022.2.4,MacIntel,60.0024001,Chrome,1440,900,,,,,0,657,,,,,,,,,,,,,,,,,Y,125,circle,1,0,,,,,,,,,,,,,,,,repeat,number,numRpt,j,0.962,noRew,,,,,,0,16,0,16,0,1,,,,,,,,,,,,,,,,,
297640,2022-11-29_15h10.46.181,vts_reward_expectancy_bt,2022.2.4,MacIntel,60.0024001,Chrome,1440,900,,,,,0,657,,,,,,,,,,,,,,,,,H,132,star,1,0,,,,,,,,,,,,,,,,repeat,number,numRpt,j,0.7824,noRew,,,,,,0,17,0,17,0,1,,,,,,,,,,,,,,,,,
297640,2022-11-29_15h10.46.181,vts_reward_expectancy_bt,2022.2.4,MacIntel,60.0024001,Chrome,1440,900,,,,,0,657,,,,,,,,,,,,,,,,,W,160,star,1,0,,,,,,,,,,,,,,,,switch,letter,lettSwt,f,0.5469,noRew,,,,,,0,18,0,18,0,1,,,,,,,,,,,,,,,,,
297640,2022-11-29_15h10.46.181,vts_reward_expectancy_bt,2022.2.4,MacIntel,60.0024001,Chrome,1440,900,,,,,0,657,,,,,,,,,,,,,,,,,S,174,hexagon,1,0,,,,,,,,,,,,,,,,repeat,letter,lettRpt,f,0.524,noRew,,,,,,0,19,0,19,0,1,,,,,,,,,,,,,,,,,
297640,2022-11-29_15h10.46.181,vts_reward_expectancy_bt,2022.2.4,MacIntel,60.0024001,Chrome,1440,900,,,,,0,657,,,,,,,,,,,,,,,,,F,146,star,1,0,,,,,,,,,,,,,,,,switch,number,numSwt,j,1.9797,noRew,,,,,,0,20,0,20,0,1,,,,,,,,,,,,,,,,,
297640,2022-11-29_15h10.46.181,vts_reward_expectancy_bt,2022.2.4,MacIntel,60.0024001,Chrome,1440,900,,,,,0,657,,,,,,,,,,,,,,,,,D,181,hexagon,1,0,,,,,,,,,,,,,,,,switch,letter,lettSwt,d,0.54,noRew,,,,,,0,21,0,21,0,1,,,,,,,,,,,,,,,,,
297640,2022-11-29_15h10.46.181,vts_reward_expectancy_bt,2022.2.4,MacIntel,60.0024001,Chrome,1440,900,,,,,0,657,,,,,,,,,,,,,,,,,B,139,circle,1,0,,,,,,,,,,,,,,,,repeat,letter,lettRpt,d,0.7083,noRew,,,,,,0,22,0,22,0,1,,,,,,,,,,,,,,,,,
297640,2022-11-29_15h10.46.181,vts_reward_expectancy_bt,2022.2.4,MacIntel,60.0024001,Chrome,1440,900,,,,,0,657,,,,,,,,,,,,,,,,,W,132,triangle,1,0,,,,,,,,,,,,,,,,repeat,letter,lettRpt,f,0.5548,noRew,,,,,,0,23,0,23,0,1,,,,,,,,,,,,,,,,,
297640,2022-11-29_15h10.46.181,vts_reward_expectancy_bt,2022.2.4,MacIntel,60.0024001,Chrome,1440,900,,,,,0,657,,,,,,,,,,,,,,,,,Y,174,triangle,1,0,,,,,,,,,,,,,,,,repeat,letter,lettRpt,f,0.7631,noRew,,,,,,0,24,0,24,0,1,,,,,,,,,,,,,,,,,
297640,2022-11-29_15h10.46.181,vts_reward_expectancy_bt,2022.2.4,MacIntel,60.0024001,Chrome,1440,900,,,,,0,657,,,,,,,,,,,,,,,,,S,132,circle,1,0,,,,,,,,,,,,,,,,switch,number,numSwt,j,0.4417,noRew,,,,,,0,25,0,25,0,1,,,,,,,,,,,,,,,,,
297640,2022-11-29_15h10.46.181,vts_reward_expectancy_bt,2022.2.4,MacIntel,60.0024001,Chrome,1440,900,,,,,0,657,,,,,,,,,,,,,,,,,F,146,circle,1,0,,,,,,,,,,,,,,,,repeat,number,numRpt,j,0.628,noRew,,,,,,0,26,0,26,0,1,,,,,,,,,,,,,,,,,
297640,2022-11-29_15h10.46.181,vts_reward_expectancy_bt,2022.2.4,MacIntel,60.0024001,Chrome,1440,900,,,,,0,657,,,,,,,,,,,,,,,,,D,160,triangle,1,0,,,,,,,,,,,,,,,,repeat,number,numRpt,k,0.84,noRew,,,,,,0,27,0,27,0,1,,,,,,,,,,,,,,,,,
297640,2022-11-29_15h10.46.181,vts_reward_expectancy_bt,2022.2.4,MacIntel,60.0024001,Chrome,1440,900,,,,,0,657,,,,,,,,,,,,,,,,,B,174,star,1,0,,,,,,,,,,,,,,,,repeat,number,numRpt,k,0.7727,noRew,,,,,,0,28,0,28,0,1,,,,,,,,,,,,,,,,,
297640,2022-11-29_15h10.46.181,vts_reward_expectancy_bt,2022.2.4,MacIntel,60.0024001,Chrome,1440,900,,,,,0,657,,,,,,,,,,,,,,,,,S,146,hexagon,1,0,,,,,,,,,,,,,,,,switch,letter,lettSwt,f,0.7959,noRew,,,,,,0,29,0,29,0,1,,,,,,,,,,,,,,,,,
297640,2022-11-29_15h10.46.181,vts_reward_expectancy_bt,2022.2.4,MacIntel,60.0024001,Chrome,1440,900,,,,,0,657,,,,,,,,,,,,,,,,,Y,132,triangle,1,0,,,,,,,,,,,,,,,,repeat,letter,lettRpt,f,1.0713,noRew,,,,,,0,30,0,30,0,1,,,,,,,,,,,,,,,,,
297640,2022-11-29_15h10.46.181,vts_reward_expectancy_bt,2022.2.4,MacIntel,60.0024001,Chrome,1440,900,,,,,0,657,,,,,,,,,,,,,,,,,U,160,circle,1,0,,,,,,,,,,,,,,,,repeat,letter,lettRpt,f,0.6395,noRew,,,,,,0,31,0,31,0,1,,,,,,,,,,,,,,,,,
297640,2022-11-29_15h10.46.181,vts_reward_expectancy_bt,2022.2.4,MacIntel,60.0024001,Chrome,1440,900,,,,,0,657,,,,,,,,,,,,,,,,,Y,181,star,1,0,,,,,,,,,,,,,,,,repeat,letter,lettRpt,f,0.8154,noRew,,,,,,0,32,0,32,0,1,,,,,,,,,,,,,,,,,
297640,2022-11-29_15h10.46.181,vts_reward_expectancy_bt,2022.2.4,MacIntel,60.0024001,Chrome,1440,900,,,,,0,657,,,,,,,,,,,,,,,,,H,160,circle,1,0,,,,,,,,,,,,,,,,repeat,letter,lettRpt,d,0.8581,noRew,,,,,,0,33,0,33,0,1,,,,,,,,,,,,,,,,,
297640,2022-11-29_15h10.46.181,vts_reward_expectancy_bt,2022.2.4,MacIntel,60.0024001,Chrome,1440,900,,,,,0,657,,,,,,,,,,,,,,,,,F,132,hexagon,1,0,,,,,,,,,,,,,,,,repeat,letter,lettRpt,d,1.9804,noRew,,,,,,0,34,0,34,0,1,,,,,,,,,,,,,,,,,
297640,2022-11-29_15h10.46.181,vts_reward_expectancy_bt,2022.2.4,MacIntel,60.0024001,Chrome,1440,900,,,,,0,657,,,,,,,,,,,,,,,,,D,146,circle,1,0,,,,,,,,,,,,,,,,repeat,letter,lettRpt,d,0.644,noRew,,,,,,0,35,0,35,0,1,,,,,,,,,,,,,,,,,
297640,2022-11-29_15h10.46.181,vts_reward_expectancy_bt,2022.2.4,MacIntel,60.0024001,Chrome,1440,900,,,,,0,657,,,,,,,,,,,,,,,,,Y,174,circle,1,0,,,,,,,,,,,,,,,,repeat,letter,lettRpt,f,0.7648,noRew,,,,,,0,36,0,36,0,1,,,,,,,,,,,,,,,,,
297640,2022-11-29_15h10.46.181,vts_reward_expectancy_bt,2022.2.4,MacIntel,60.0024001,Chrome,1440,900,,,,,0,657,,,,,,,,,,,,,,,,,U,132,hexagon,1,0,,,,,,,,,,,,,,,,switch,number,numSwt,j,1.1398,noRew,,,,,,0,37,0,37,0,1,,,,,,,,,,,,,,,,,
297640,2022-11-29_15h10.46.181,vts_reward_expectancy_bt,2022.2.4,MacIntel,60.0024001,Chrome,1440,900,,,,,0,657,,,,,,,,,,,,,,,,,B,146,hexagon,1,0,,,,,,,,,,,,,,,,switch,letter,lettSwt,d,0.6904,noRew,,,,,,0,38,0,38,0,1,,,,,,,,,,,,,,,,,
297640,2022-11-29_15h10.46.181,vts_reward_expectancy_bt,2022.2.4,MacIntel,60.0024001,Chrome,1440,900,,,,,0,657,,,,,,,,,,,,,,,,,H,139,star,1,0,,,,,,,,,,,,,,,,repeat,letter,lettRpt,d,0.9079,noRew,,,,,,0,39,0,39,0,1,,,,,,,,,,,,,,,,,
297640,2022-11-29_15h10.46.181,vts_reward_expectancy_bt,2022.2.4,MacIntel,60.0024001,Chrome,1440,900,,,,,0,657,,,,,,,,,,,,,,,,,W,146,circle,1,0,,,,,,,,,,,,,,,,switch,number,numSwt,j,1.2969,noRew,,,,,,0,40,0,40,0,1,,,,,,,,,,,,,,,,,
297640,2022-11-29_15h10.46.181,vts_reward_expectancy_bt,2022.2.4,MacIntel,60.0024001,Chrome,1440,900,,,,,0,657,,,,,,,,,,,,,,,,,H,132,star,1,0,,,,,,,,,,,,,,,,repeat,number,numRpt,j,0.764,noRew,,,,,,0,41,0,41,0,1,,,,,,,,,,,,,,,,,
297640,2022-11-29_15h10.46.181,vts_reward_expectancy_bt,2022.2.4,MacIntel,60.0024001,Chrome,1440,900,,,,,0,657,,,,,,,,,,,,,,,,,Y,125,hexagon,1,0,,,,,,,,,,,,,,,,repeat,number,numRpt,j,1.1614,noRew,,,,,,0,42,0,42,0,1,,,,,,,,,,,,,,,,,
297640,2022-11-29_15h10.46.181,vts_reward_expectancy_bt,2022.2.4,MacIntel,60.0024001,Chrome,1440,900,,,,,0,657,,,,,,,,,,,,,,,,,D,139,circle,1,0,,,,,,,,,,,,,,,,repeat,number,numRpt,j,1.1299,noRew,,,,,,0,43,0,43,0,1,,,,,,,,,,,,,,,,,
297640,2022-11-29_15h10.46.181,vts_reward_expectancy_bt,2022.2.4,MacIntel,60.0024001,Chrome,1440,900,,,,,0,657,,,,,,,,,,,,,,,,,S,181,triangle,1,0,,,,,,,,,,,,,,,,repeat,number,numRpt,k,0.9124,noRew,,,,,,0,44,0,44,0,1,,,,,,,,,,,,,,,,,
297640,2022-11-29_15h10.46.181,vts_reward_expectancy_bt,2022.2.4,MacIntel,60.0024001,Chrome,1440,900,,,,,0,657,,,,,,,,,,,,,,,,,H,125,hexagon,1,0,,,,,,,,,,,,,,,,repeat,number,numRpt,j,0.6444,noRew,,,,,,0,45,0,45,0,1,,,,,,,,,,,,,,,,,
297640,2022-11-29_15h10.46.181,vts_reward_expectancy_bt,2022.2.4,MacIntel,60.0024001,Chrome,1440,900,,,,,0,657,,,,,,,,,,,,,,,,,U,146,hexagon,1,0,,,,,,,,,,,,,,,,repeat,number,numRpt,j,0.7471,noRew,,,,,,0,46,0,46,0,1,,,,,,,,,,,,,,,,,
297640,2022-11-29_15h10.46.181,vts_reward_expectancy_bt,2022.2.4,MacIntel,60.0024001,Chrome,1440,900,,,,,0,657,,,,,,,,,,,,,,,,,B,167,star,1,0,,,,,,,,,,,,,,,,repeat,number,numRpt,k,1.0313,noRew,,,,,,0,47,0,47,0,1,,,,,,,,,,,,,,,,,
297640,2022-11-29_15h10.46.181,vts_reward_expectancy_bt,2022.2.4,MacIntel,60.0024001,Chrome,1440,900,,,,,0,657,,,,,,,,,,,,,,,,,D,181,hexagon,1,0,,,,,,,,,,,,,,,,repeat,number,numRpt,k,1.2283,noRew,,,,,,0,48,0,48,0,1,,,,,,,,,,,,,,,,,
297640,2022-11-29_15h10.46.181,vts_reward_expectancy_bt,2022.2.4,MacIntel,60.0024001,Chrome,1440,900,,,,,0,657,,,,,,,,,,,,,,,,,B,146,star,1,0,,,,,,,,,,,,,,,,repeat,number,numRpt,j,1.0588,noRew,,,,,,0,49,0,49,0,1,,,,,,,,,,,,,,,,,
297640,2022-11-29_15h10.46.181,vts_reward_expectancy_bt,2022.2.4,MacIntel,60.0024001,Chrome,1440,900,,,,,0,657,,,,,,,,,,,,,,,,,F,174,triangle,1,0,,,,,,,,,,,,,,,,repeat,number,numRpt,k,0.9461,noRew,,,,,,0,50,0,50,0,1,,,,,,,,,,,,,,,,,
297640,2022-11-29_15h10.46.181,vts_reward_expectancy_bt,2022.2.4,MacIntel,60.0024001,Chrome,1440,900,,,,,0,657,,,,,,,,,,,,,,,,,W,125,circle,1,0,,,,,,,,,,,,,,,,switch,letter,lettSwt,f,0.7067,noRew,,,,,,0,51,0,51,0,1,,,,,,,,,,,,,,,,,
297640,2022-11-29_15h10.46.181,vts_reward_expectancy_bt,2022.2.4,MacIntel,60.0024001,Chrome,1440,900,,,,,0,657,,,,,,,,,,,,,,,,,F,139,circle,1,0,,,,,,,,,,,,,,,,repeat,letter,lettRpt,d,0.7317,noRew,,,,,,0,52,0,52,0,1,,,,,,,,,,,,,,,,,
297640,2022-11-29_15h10.46.181,vts_reward_expectancy_bt,2022.2.4,MacIntel,60.0024001,Chrome,1440,900,,,,,0,657,,,,,,,,,,,,,,,,,H,125,triangle,1,0,,,,,,,,,,,,,,,,repeat,letter,lettRpt,d,0.5957,noRew,,,,,,0,53,0,53,0,1,,,,,,,,,,,,,,,,,
297640,2022-11-29_15h10.46.181,vts_reward_expectancy_bt,2022.2.4,MacIntel,60.0024001,Chrome,1440,900,,,,,0,657,,,,,,,,,,,,,,,,,D,160,circle,1,0,,,,,,,,,,,,,,,,repeat,letter,lettRpt,d,0.713,noRew,,,,,,0,54,0,54,0,1,,,,,,,,,,,,,,,,,
297640,2022-11-29_15h10.46.181,vts_reward_expectancy_bt,2022.2.4,MacIntel,60.0024001,Chrome,1440,900,,,,,0,657,,,,,,,,,,,,,,,,,Y,174,triangle,1,0,,,,,,,,,,,,,,,,repeat,letter,lettRpt,f,0.8413,noRew,,,,,,0,55,0,55,0,1,,,,,,,,,,,,,,,,,
297640,2022-11-29_15h10.46.181,vts_reward_expectancy_bt,2022.2.4,MacIntel,60.0024001,Chrome,1440,900,,,,,0,657,,,,,,,,,,,,,,,,,D,160,hexagon,1,0,,,,,,,,,,,,,,,,repeat,letter,lettRpt,d,0.6651,noRew,,,,,,0,56,0,56,0,1,,,,,,,,,,,,,,,,,
297640,2022-11-29_15h10.46.181,vts_reward_expectancy_bt,2022.2.4,MacIntel,60.0024001,Chrome,1440,900,,,,,0,657,,,,,,,,,,,,,,,,,U,146,star,1,0,,,,,,,,,,,,,,,,repeat,letter,lettRpt,f,0.8135,noRew,,,,,,0,57,0,57,0,1,,,,,,,,,,,,,,,,,
297640,2022-11-29_15h10.46.181,vts_reward_expectancy_bt,2022.2.4,MacIntel,60.0024001,Chrome,1440,900,,,,,0,657,,,,,,,,,,,,,,,,,W,167,hexagon,1,0,,,,,,,,,,,,,,,,repeat,letter,lettRpt,f,0.7639,noRew,,,,,,0,58,0,58,0,1,,,,,,,,,,,,,,,,,
297640,2022-11-29_15h10.46.181,vts_reward_expectancy_bt,2022.2.4,MacIntel,60.0024001,Chrome,1440,900,,,,,0,657,,,,,,,,,,,,,,,,,F,174,star,1,0,,,,,,,,,,,,,,,,switch,number,numSwt,k,0.7322,noRew,,,,,,0,59,0,59,0,1,,,,,,,,,,,,,,,,,
297640,2022-11-29_15h10.46.181,vts_reward_expectancy_bt,2022.2.4,MacIntel,60.0024001,Chrome,1440,900,,,,,0,657,,,,,,,,,,,,,,,,,W,160,circle,1,0,,,,,,,,,,,,,,,,switch,letter,lettSwt,f,0.8883,noRew,,,,,,0,60,0,60,0,1,,,,,,,,,,,,,,,,,
297640,2022-11-29_15h10.46.181,vts_reward_expectancy_bt,2022.2.4,MacIntel,60.0024001,Chrome,1440,900,,,,,0,657,,,,,,,,,,,,,,,,,D,139,triangle,1,0,,,,,,,,,,,,,,,,switch,number,numSwt,j,0.7479,noRew,,,,,,0,61,0,61,0,1,,,,,,,,,,,,,,,,,
297640,2022-11-29_15h10.46.181,vts_reward_expectancy_bt,2022.2.4,MacIntel,60.0024001,Chrome,1440,900,,,,,0,657,,,,,,,,,,,,,,,,,B,132,triangle,1,0,,,,,,,,,,,,,,,,repeat,number,numRpt,j,1.1124,noRew,,,,,,0,62,0,62,0,1,,,,,,,,,,,,,,,,,
297640,2022-11-29_15h10.46.181,vts_reward_expectancy_bt,2022.2.4,MacIntel,60.0024001,Chrome,1440,900,,,,,0,657,,,,,,,,,,,,,,,,,H,125,hexagon,1,0,,,,,,,,,,,,,,,,repeat,number,numRpt,j,0.8316,noRew,,,,,,0,63,0,63,0,1,,,,,,,,,,,,,,,,,
297640,2022-11-29_15h10.46.181,vts_reward_expectancy_bt,2022.2.4,MacIntel,60.0024001,Chrome,1440,900,,,,,,,,,,,,,,,,,,,,,,,,,,,,,,,,,,,,,,,,,,,,,,,,,,,,,,,,,,,,,,,,,,,,,,,,,,,,
297640,2022-11-29_15h10.46.181,vts_reward_expectancy_bt,2022.2.4,MacIntel,60.0024001,Chrome,1440,900,,,,,0,657,,,,,,,,,,,,,,,,,D,160,star,1,0,,,,,,,,,,,,,,,,switch,letter,lettSwt,d,0.8271,Hi,,,,,,0,,,,,,space,34.4655,low,0,0,0,0,1,,,,,,,,,
297640,2022-11-29_15h10.46.181,vts_reward_expectancy_bt,2022.2.4,MacIntel,60.0024001,Chrome,1440,900,,,,,10,667,,,,,,,,,,,,,,,,,B,146,triangle,1,0,,,,,,,,,,,,,,,,switch,number,numSwt,j,0.705,Lo,,,,,,0,,,,,,,,low,1,0,1,0,1,,,,,,,,,
297640,2022-11-29_15h10.46.181,vts_reward_expectancy_bt,2022.2.4,MacIntel,60.0024001,Chrome,1440,900,,,,,1,668,,,,,,,,,,,,,,,,,W,174,hexagon,1,0,,,,,,,,,,,,,,,,repeat,number,numRpt,k,0.4709,Lo,,,,,,0,,,,,,,,low,2,0,2,0,1,,,,,,,,,
297640,2022-11-29_15h10.46.181,vts_reward_expectancy_bt,2022.2.4,MacIntel,60.0024001,Chrome,1440,900,,,,,1,669,,,,,,,,,,,,,,,,,U,132,circle,1,0,,,,,,,,,,,,,,,,repeat,number,numRpt,j,0.5519,Hi,,,,,,0,,,,,,,,low,3,0,3,0,1,,,,,,,,,
297640,2022-11-29_15h10.46.181,vts_reward_expectancy_bt,2022.2.4,MacIntel,60.0024001,Chrome,1440,900,,,,,0,669,,,,,,,,,,,,,,,,,S,181,star,0,0,,,,,,,,,,,,,,,,repeat,number,NA,j,0.5236,Hi,,,,,,0,,,,,,,,low,4,0,4,0,1,,,,,,,,,
297640,2022-11-29_15h10.46.181,vts_reward_expectancy_bt,2022.2.4,MacIntel,60.0024001,Chrome,1440,900,,,,,1,670,,,,,,,,,,,,,,,,,H,125,triangle,1,1,,,,,,,,,,,,,,,,repeat,number,numRpt,j,0.4943,Lo,,,,,,0,,,,,,,,low,5,0,5,0,1,,,,,,,,,
297640,2022-11-29_15h10.46.181,vts_reward_expectancy_bt,2022.2.4,MacIntel,60.0024001,Chrome,1440,900,,,,,10,680,,,,,,,,,,,,,,,,,Y,139,hexagon,1,0,,,,,,,,,,,,,,,,repeat,number,numRpt,j,0.6813,Lo,,,,,,0,,,,,,,,low,6,0,6,0,1,,,,,,,,,
297640,2022-11-29_15h10.46.181,vts_reward_expectancy_bt,2022.2.4,MacIntel,60.0024001,Chrome,1440,900,,,,,10,690,,,,,,,,,,,,,,,,,F,167,circle,1,0,,,,,,,,,,,,,,,,switch,letter,lettSwt,d,0.5143,Hi,,,,,,0,,,,,,,,low,7,0,7,0,1,,,,,,,,,
297640,2022-11-29_15h10.46.181,vts_reward_expectancy_bt,2022.2.4,MacIntel,60.0024001,Chrome,1440,900,,,,,1,691,,,,,,,,,,,,,,,,,D,160,hexagon,1,0,,,,,,,,,,,,,,,,repeat,letter,lettRpt,d,0.4568,Lo,,,,,,0,,,,,,,,low,8,0,8,0,1,,,,,,,,,
297640,2022-11-29_15h10.46.181,vts_reward_expectancy_bt,2022.2.4,MacIntel,60.0024001,Chrome,1440,900,,,,,10,701,,,,,,,,,,,,,,,,,B,146,circle,1,0,,,,,,,,,,,,,,,,repeat,letter,lettRpt,d,0.5631,Hi,,,,,,0,,,,,,,,low,9,0,9,0,1,,,,,,,,,
297640,2022-11-29_15h10.46.181,vts_reward_expectancy_bt,2022.2.4,MacIntel,60.0024001,Chrome,1440,900,,,,,10,711,,,,,,,,,,,,,,,,,W,174,triangle,1,0,,,,,,,,,,,,,,,,switch,number,numSwt,k,1.049,Lo,,,,,,0,,,,,,,,low,10,0,10,0,1,,,,,,,,,
297640,2022-11-29_15h10.46.181,vts_reward_expectancy_bt,2022.2.4,MacIntel,60.0024001,Chrome,1440,900,,,,,1,712,,,,,,,,,,,,,,,,,U,132,star,1,0,,,,,,,,,,,,,,,,repeat,number,numRpt,j,0.6853,Hi,,,,,,0,,,,,,,,low,11,0,11,0,1,,,,,,,,,
297640,2022-11-29_15h10.46.181,vts_reward_expectancy_bt,2022.2.4,MacIntel,60.0024001,Chrome,1440,900,,,,,1,713,,,,,,,,,,,,,,,,,S,181,hexagon,1,0,,,,,,,,,,,,,,,,switch,letter,lettSwt,f,0.5924,Lo,,,,,,0,,,,,,,,low,12,0,12,0,1,,,,,,,,,
297640,2022-11-29_15h10.46.181,vts_reward_expectancy_bt,2022.2.4,MacIntel,60.0024001,Chrome,1440,900,,,,,10,723,,,,,,,,,,,,,,,,,H,125,star,1,0,,,,,,,,,,,,,,,,repeat,letter,lettRpt,d,0.5805,Hi,,,,,,0,,,,,,,,low,13,0,13,0,1,,,,,,,,,
297640,2022-11-29_15h10.46.181,vts_reward_expectancy_bt,2022.2.4,MacIntel,60.0024001,Chrome,1440,900,,,,,1,724,,,,,,,,,,,,,,,,,Y,139,triangle,1,0,,,,,,,,,,,,,,,,repeat,letter,lettRpt,f,0.6054,Lo,,,,,,0,,,,,,,,low,14,0,14,0,1,,,,,,,,,
297640,2022-11-29_15h10.46.181,vts_reward_expectancy_bt,2022.2.4,MacIntel,60.0024001,Chrome,1440,900,,,,,10,734,,,,,,,,,,,,,,,,,F,167,circle,1,0,,,,,,,,,,,,,,,,switch,number,numSwt,k,0.6772,Hi,,,,,,0,,,,,,,,low,15,0,15,0,1,,,,,,,,,
297640,2022-11-29_15h10.46.181,vts_reward_expectancy_bt,2022.2.4,MacIntel,60.0024001,Chrome,1440,900,,,,,10,744,,,,,,,,,,,,,,,,,Y,125,triangle,1,0,,,,,,,,,,,,,,,,switch,letter,lettSwt,f,0.5797,Lo,,,,,,0,,,,,,,,low,16,0,16,0,1,,,,,,,,,
297640,2022-11-29_15h10.46.181,vts_reward_expectancy_bt,2022.2.4,MacIntel,60.0024001,Chrome,1440,900,,,,,10,754,,,,,,,,,,,,,,,,,F,146,star,1,0,,,,,,,,,,,,,,,,repeat,letter,lettRpt,d,0.6649,Hi,,,,,,0,,,,,,,,low,17,0,17,0,1,,,,,,,,,
297640,2022-11-29_15h10.46.181,vts_reward_expectancy_bt,2022.2.4,MacIntel,60.0024001,Chrome,1440,900,,,,,1,755,,,,,,,,,,,,,,,,,W,174,hexagon,1,0,,,,,,,,,,,,,,,,repeat,letter,lettRpt,f,0.571,Lo,,,,,,0,,,,,,,,low,18,0,18,0,1,,,,,,,,,
297640,2022-11-29_15h10.46.181,vts_reward_expectancy_bt,2022.2.4,MacIntel,60.0024001,Chrome,1440,900,,,,,10,765,,,,,,,,,,,,,,,,,U,139,circle,1,0,,,,,,,,,,,,,,,,repeat,letter,lettRpt,f,0.6818,Hi,,,,,,0,,,,,,,,low,19,0,19,0,1,,,,,,,,,
297640,2022-11-29_15h10.46.181,vts_reward_expectancy_bt,2022.2.4,MacIntel,60.0024001,Chrome,1440,900,,,,,0,765,,,,,,,,,,,,,,,,,H,167,circle,1,0,,,,,,,,,,,,,,,,repeat,letter,lettRpt,d,0.7119,Hi,,,,,,0,,,,,,,,low,20,0,20,0,1,,,,,,,,,
297640,2022-11-29_15h10.46.181,vts_reward_expectancy_bt,2022.2.4,MacIntel,60.0024001,Chrome,1440,900,,,,,10,775,,,,,,,,,,,,,,,,,D,160,triangle,1,0,,,,,,,,,,,,,,,,repeat,letter,lettRpt,d,0.5566,Lo,,,,,,0,,,,,,,,low,21,0,21,0,1,,,,,,,,,
297640,2022-11-29_15h10.46.181,vts_reward_expectancy_bt,2022.2.4,MacIntel,60.0024001,Chrome,1440,900,,,,,0,775,,,,,,,,,,,,,,,,,B,181,star,1,0,,,,,,,,,,,,,,,,repeat,letter,lettRpt,d,0.7477,Hi,,,,,,0,,,,,,,,low,22,0,22,0,1,,,,,,,,,
297640,2022-11-29_15h10.46.181,vts_reward_expectancy_bt,2022.2.4,MacIntel,60.0024001,Chrome,1440,900,,,,,1,776,,,,,,,,,,,,,,,,,S,132,hexagon,1,0,,,,,,,,,,,,,,,,switch,number,numSwt,j,0.5396,Lo,,,,,,0,,,,,,,,low,23,0,23,0,1,,,,,,,,,
297640,2022-11-29_15h10.46.181,vts_reward_expectancy_bt,2022.2.4,MacIntel,60.0024001,Chrome,1440,900,,,,,1,777,,,,,,,,,,,,,,,,,U,160,triangle,1,0,,,,,,,,,,,,,,,,repeat,number,numRpt,k,1.2919,Lo,,,,,,0,,,,,,,,low,24,0,24,0,1,,,,,,,,,
297640,2022-11-29_15h10.46.181,vts_reward_expectancy_bt,2022.2.4,MacIntel,60.0024001,Chrome,1440,900,,,,,10,787,,,,,,,,,,,,,,,,,D,132,hexagon,1,0,,,,,,,,,,,,,,,,repeat,number,numRpt,j,1.2154,Lo,,,,,,0,,,,,,,,low,25,0,25,0,1,,,,,,,,,
297640,2022-11-29_15h10.46.181,vts_reward_expectancy_bt,2022.2.4,MacIntel,60.0024001,Chrome,1440,900,,,,,0,787,,,,,,,,,,,,,,,,,Y,125,circle,1,0,,,,,,,,,,,,,,,,repeat,number,numRpt,j,1.7715,Hi,,,,,,0,,,,,,,,low,26,0,26,0,1,,,,,,,,,
297640,2022-11-29_15h10.46.181,vts_reward_expectancy_bt,2022.2.4,MacIntel,60.0024001,Chrome,1440,900,,,,,1,788,,,,,,,,,,,,,,,,,B,139,star,1,0,,,,,,,,,,,,,,,,repeat,number,numRpt,j,0.6068,Hi,,,,,,0,,,,,,,,low,27,0,27,0,1,,,,,,,,,
297640,2022-11-29_15h10.46.181,vts_reward_expectancy_bt,2022.2.4,MacIntel,60.0024001,Chrome,1440,900,,,,,0,788,,,,,,,,,,,,,,,,,W,181,star,1,0,,,,,,,,,,,,,,,,repeat,number,numRpt,k,0.7816,Hi,,,,,,0,,,,,,,,low,28,0,28,0,1,,,,,,,,,
297640,2022-11-29_15h10.46.181,vts_reward_expectancy_bt,2022.2.4,MacIntel,60.0024001,Chrome,1440,900,,,,,0,788,,,,,,,,,,,,,,,,,S,167,circle,1,0,,,,,,,,,,,,,,,,repeat,number,numRpt,k,1.0709,Hi,,,,,,0,,,,,,,,low,29,0,29,0,1,,,,,,,,,
297640,2022-11-29_15h10.46.181,vts_reward_expectancy_bt,2022.2.4,MacIntel,60.0024001,Chrome,1440,900,,,,,1,789,,,,,,,,,,,,,,,,,F,146,triangle,1,0,,,,,,,,,,,,,,,,repeat,number,numRpt,j,0.8462,Lo,,,,,,0,,,,,,,,low,30,0,30,0,1,,,,,,,,,
297640,2022-11-29_15h10.46.181,vts_reward_expectancy_bt,2022.2.4,MacIntel,60.0024001,Chrome,1440,900,,,,,1,790,,,,,,,,,,,,,,,,,H,174,hexagon,1,0,,,,,,,,,,,,,,,,repeat,number,numRpt,k,0.6931,Lo,,,,,,0,,,,,,,,low,31,0,31,0,1,,,,,,,,,
297640,2022-11-29_15h10.46.181,vts_reward_expectancy_bt,2022.2.4,MacIntel,60.0024001,Chrome,1440,900,,,,,0,790,,,,,,,,,,,,,,,,,F,139,circle,1,0,,,,,,,,,,,,,,,,repeat,number,numRpt,j,0.9318,Hi,,,,,,1,,,,,,space,2.6556,low,0,0,0,0,1,,,,,,,,,
297640,2022-11-29_15h10.46.181,vts_reward_expectancy_bt,2022.2.4,MacIntel,60.0024001,Chrome,1440,900,,,,,1,791,,,,,,,,,,,,,,,,,D,146,hexagon,1,0,,,,,,,,,,,,,,,,repeat,number,numRpt,j,0.5985,Lo,,,,,,1,,,,,,,,low,1,0,1,0,1,,,,,,,,,
297640,2022-11-29_15h10.46.181,vts_reward_expectancy_bt,2022.2.4,MacIntel,60.0024001,Chrome,1440,900,,,,,10,801,,,,,,,,,,,,,,,,,H,125,star,1,0,,,,,,,,,,,,,,,,switch,letter,lettSwt,d,0.5113,Hi,,,,,,1,,,,,,,,low,2,0,2,0,1,,,,,,,,,
297640,2022-11-29_15h10.46.181,vts_reward_expectancy_bt,2022.2.4,MacIntel,60.0024001,Chrome,1440,900,,,,,10,811,,,,,,,,,,,,,,,,,B,181,triangle,1,0,,,,,,,,,,,,,,,,switch,number,numSwt,k,0.6573,Lo,,,,,,1,,,,,,,,low,3,0,3,0,1,,,,,,,,,
297640,2022-11-29_15h10.46.181,vts_reward_expectancy_bt,2022.2.4,MacIntel,60.0024001,Chrome,1440,900,,,,,0,811,,,,,,,,,,,,,,,,,Y,160,circle,0,0,,,,,,,,,,,,,,,,repeat,number,NA,j,0.5466,Lo,,,,,,1,,,,,,,,low,4,0,4,0,1,,,,,,,,,
297640,2022-11-29_15h10.46.181,vts_reward_expectancy_bt,2022.2.4,MacIntel,60.0024001,Chrome,1440,900,,,,,0,811,,,,,,,,,,,,,,,,,S,167,hexagon,0,1,,,,,,,,,,,,,,,,repeat,number,NA,j,0.6084,Lo,,,,,,1,,,,,,,,low,5,0,5,0,1,,,,,,,,,
297640,2022-11-29_15h10.46.181,vts_reward_expectancy_bt,2022.2.4,MacIntel,60.0024001,Chrome,1440,900,,,,,10,821,,,,,,,,,,,,,,,,,W,132,star,1,1,,,,,,,,,,,,,,,,repeat,number,numRpt,j,0.6063,Hi,,,,,,1,,,,,,,,low,6,0,6,0,1,,,,,,,,,
297640,2022-11-29_15h10.46.181,vts_reward_expectancy_bt,2022.2.4,MacIntel,60.0024001,Chrome,1440,900,,,,,0,821,,,,,,,,,,,,,,,,,U,174,triangle,0,0,,,,,,,,,,,,,,,,repeat,number,NA,j,0.5066,Hi,,,,,,1,,,,,,,,low,7,0,7,0,1,,,,,,,,,
297640,2022-11-29_15h10.46.181,vts_reward_expectancy_bt,2022.2.4,MacIntel,60.0024001,Chrome,1440,900,,,,,1,822,,,,,,,,,,,,,,,,,F,139,hexagon,1,1,,,,,,,,,,,,,,,,repeat,number,numRpt,j,0.6934,Lo,,,,,,1,,,,,,,,low,8,0,8,0,1,,,,,,,,,
297640,2022-11-29_15h10.46.181,vts_reward_expectancy_bt,2022.2.4,MacIntel,60.0024001,Chrome,1440,900,,,,,0,822,,,,,,,,,,,,,,,,,D,146,circle,1,0,,,,,,,,,,,,,,,,switch,letter,lettSwt,d,0.9548,Hi,,,,,,1,,,,,,,,low,9,0,9,0,1,,,,,,,,,
297640,2022-11-29_15h10.46.181,vts_reward_expectancy_bt,2022.2.4,MacIntel,60.0024001,Chrome,1440,900,,,,,1,823,,,,,,,,,,,,,,,,,H,125,triangle,1,0,,,,,,,,,,,,,,,,repeat,letter,lettRpt,d,0.5972,Lo,,,,,,1,,,,,,,,low,10,0,10,0,1,,,,,,,,,
297640,2022-11-29_15h10.46.181,vts_reward_expectancy_bt,2022.2.4,MacIntel,60.0024001,Chrome,1440,900,,,,,10,833,,,,,,,,,,,,,,,,,B,181,star,1,0,,,,,,,,,,,,,,,,repeat,letter,lettRpt,d,0.4896,Hi,,,,,,1,,,,,,,,low,11,0,11,0,1,,,,,,,,,
297640,2022-11-29_15h10.46.181,vts_reward_expectancy_bt,2022.2.4,MacIntel,60.0024001,Chrome,1440,900,,,,,10,843,,,,,,,,,,,,,,,,,Y,160,star,1,0,,,,,,,,,,,,,,,,switch,number,numSwt,k,0.6318,Hi,,,,,,1,,,,,,,,low,12,0,12,0,1,,,,,,,,,
297640,2022-11-29_15h10.46.181,vts_reward_expectancy_bt,2022.2.4,MacIntel,60.0024001,Chrome,1440,900,,,,,10,853,,,,,,,,,,,,,,,,,S,167,triangle,1,0,,,,,,,,,,,,,,,,repeat,number,numRpt,k,0.5492,Lo,,,,,,1,,,,,,,,low,13,0,13,0,1,,,,,,,,,
297640,2022-11-29_15h10.46.181,vts_reward_expectancy_bt,2022.2.4,MacIntel,60.0024001,Chrome,1440,900,,,,,1,854,,,,,,,,,,,,,,,,,W,132,hexagon,1,0,,,,,,,,,,,,,,,,repeat,number,numRpt,j,0.5868,Lo,,,,,,1,,,,,,,,low,14,0,14,0,1,,,,,,,,,
297640,2022-11-29_15h10.46.181,vts_reward_expectancy_bt,2022.2.4,MacIntel,60.0024001,Chrome,1440,900,,,,,10,864,,,,,,,,,,,,,,,,,U,174,circle,1,0,,,,,,,,,,,,,,,,switch,letter,lettSwt,f,0.5373,Hi,,,,,,1,,,,,,,,low,15,0,15,0,1,,,,,,,,,
297640,2022-11-29_15h10.46.181,vts_reward_expectancy_bt,2022.2.4,MacIntel,60.0024001,Chrome,1440,900,,,,,1,865,,,,,,,,,,,,,,,,,U,139,hexagon,1,0,,,,,,,,,,,,,,,,switch,number,numSwt,j,0.6156,Lo,,,,,,1,,,,,,,,low,16,0,16,0,1,,,,,,,,,
297640,2022-11-29_15h10.46.181,vts_reward_expectancy_bt,2022.2.4,MacIntel,60.0024001,Chrome,1440,900,,,,,0,865,,,,,,,,,,,,,,,,,S,125,star,1,0,,,,,,,,,,,,,,,,repeat,number,numRpt,j,0.6817,Hi,,,,,,1,,,,,,,,low,17,0,17,0,1,,,,,,,,,
297640,2022-11-29_15h10.46.181,vts_reward_expectancy_bt,2022.2.4,MacIntel,60.0024001,Chrome,1440,900,,,,,1,866,,,,,,,,,,,,,,,,,Y,146,circle,1,0,,,,,,,,,,,,,,,,repeat,number,numRpt,j,0.6624,Hi,,,,,,1,,,,,,,,low,18,0,18,0,1,,,,,,,,,
297640,2022-11-29_15h10.46.181,vts_reward_expectancy_bt,2022.2.4,MacIntel,60.0024001,Chrome,1440,900,,,,,10,876,,,,,,,,,,,,,,,,,W,160,triangle,1,0,,,,,,,,,,,,,,,,switch,letter,lettSwt,f,0.6408,Lo,,,,,,1,,,,,,,,low,19,0,19,0,1,,,,,,,,,
297640,2022-11-29_15h10.46.181,vts_reward_expectancy_bt,2022.2.4,MacIntel,60.0024001,Chrome,1440,900,,,,,1,877,,,,,,,,,,,,,,,,,B,132,hexagon,1,0,,,,,,,,,,,,,,,,repeat,letter,lettRpt,d,0.6462,Lo,,,,,,1,,,,,,,,low,20,0,20,0,1,,,,,,,,,
297640,2022-11-29_15h10.46.181,vts_reward_expectancy_bt,2022.2.4,MacIntel,60.0024001,Chrome,1440,900,,,,,10,887,,,,,,,,,,,,,,,,,H,181,triangle,1,0,,,,,,,,,,,,,,,,repeat,letter,lettRpt,d,0.5451,Lo,,,,,,1,,,,,,,,low,21,0,21,0,1,,,,,,,,,
297640,2022-11-29_15h10.46.181,vts_reward_expectancy_bt,2022.2.4,MacIntel,60.0024001,Chrome,1440,900,,,,,0,887,,,,,,,,,,,,,,,,,F,174,star,1,0,,,,,,,,,,,,,,,,switch,number,numSwt,k,0.6771,Hi,,,,,,1,,,,,,,,low,22,0,22,0,1,,,,,,,,,
297640,2022-11-29_15h10.46.181,vts_reward_expectancy_bt,2022.2.4,MacIntel,60.0024001,Chrome,1440,900,,,,,10,897,,,,,,,,,,,,,,,,,D,167,circle,1,0,,,,,,,,,,,,,,,,repeat,number,numRpt,k,0.5048,Hi,,,,,,1,,,,,,,,low,23,0,23,0,1,,,,,,,,,
297640,2022-11-29_15h10.46.181,vts_reward_expectancy_bt,2022.2.4,MacIntel,60.0024001,Chrome,1440,900,,,,,0,897,,,,,,,,,,,,,,,,,H,132,circle,1,0,,,,,,,,,,,,,,,,repeat,number,numRpt,j,0.7813,Hi,,,,,,1,,,,,,,,low,24,0,24,0,1,,,,,,,,,
297640,2022-11-29_15h10.46.181,vts_reward_expectancy_bt,2022.2.4,MacIntel,60.0024001,Chrome,1440,900,,,,,10,907,,,,,,,,,,,,,,,,,U,167,hexagon,1,0,,,,,,,,,,,,,,,,repeat,number,numRpt,k,1.0567,Lo,,,,,,1,,,,,,,,low,25,0,25,0,1,,,,,,,,,
297640,2022-11-29_15h10.46.181,vts_reward_expectancy_bt,2022.2.4,MacIntel,60.0024001,Chrome,1440,900,,,,,1,908,,,,,,,,,,,,,,,,,F,125,triangle,1,0,,,,,,,,,,,,,,,,switch,letter,lettSwt,d,0.4648,Lo,,,,,,1,,,,,,,,low,26,0,26,0,1,,,,,,,,,
297640,2022-11-29_15h10.46.181,vts_reward_expectancy_bt,2022.2.4,MacIntel,60.0024001,Chrome,1440,900,,,,,0,908,,,,,,,,,,,,,,,,,Y,174,star,1,0,,,,,,,,,,,,,,,,switch,number,numSwt,k,0.9729,Hi,,,,,,1,,,,,,,,low,27,0,27,0,1,,,,,,,,,
297640,2022-11-29_15h10.46.181,vts_reward_expectancy_bt,2022.2.4,MacIntel,60.0024001,Chrome,1440,900,,,,,1,909,,,,,,,,,,,,,,,,,D,139,star,1,0,,,,,,,,,,,,,,,,repeat,number,numRpt,j,0.6488,Hi,,,,,,1,,,,,,,,low,28,0,28,0,1,,,,,,,,,
297640,2022-11-29_15h10.46.181,vts_reward_expectancy_bt,2022.2.4,MacIntel,60.0024001,Chrome,1440,900,,,,,10,919,,,,,,,,,,,,,,,,,B,181,circle,1,0,,,,,,,,,,,,,,,,repeat,number,numRpt,k,0.6323,Hi,,,,,,1,,,,,,,,low,29,0,29,0,1,,,,,,,,,
297640,2022-11-29_15h10.46.181,vts_reward_expectancy_bt,2022.2.4,MacIntel,60.0024001,Chrome,1440,900,,,,,10,929,,,,,,,,,,,,,,,,,S,146,triangle,1,0,,,,,,,,,,,,,,,,repeat,number,numRpt,j,0.6295,Lo,,,,,,1,,,,,,,,low,30,0,30,0,1,,,,,,,,,
297640,2022-11-29_15h10.46.181,vts_reward_expectancy_bt,2022.2.4,MacIntel,60.0024001,Chrome,1440,900,,,,,1,930,,,,,,,,,,,,,,,,,W,160,hexagon,1,0,,,,,,,,,,,,,,,,switch,letter,lettSwt,f,0.6887,Lo,,,,,,1,,,,,,,,low,31,0,31,0,1,,,,,,,,,
297640,2022-11-29_15h10.46.181,vts_reward_expectancy_bt,2022.2.4,MacIntel,60.0024001,Chrome,1440,900,,,,,10,940,,,,,,,,,,,,,,,,,B,132,hexagon,1,0,,,,,,,,,,,,,,,,switch,number,numSwt,j,0.6318,Lo,,,,,,2,,,,,,space,11.1216,low,0,0,0,0,1,,,,,,,,,
297640,2022-11-29_15h10.46.181,vts_reward_expectancy_bt,2022.2.4,MacIntel,60.0024001,Chrome,1440,900,,,,,0,940,,,,,,,,,,,,,,,,,F,174,star,1,0,,,,,,,,,,,,,,,,repeat,number,numRpt,k,0.6327,Hi,,,,,,2,,,,,,,,low,1,0,1,0,1,,,,,,,,,
297640,2022-11-29_15h10.46.181,vts_reward_expectancy_bt,2022.2.4,MacIntel,60.0024001,Chrome,1440,900,,,,,10,950,,,,,,,,,,,,,,,,,H,125,circle,1,0,,,,,,,,,,,,,,,,repeat,number,numRpt,j,0.5491,Hi,,,,,,2,,,,,,,,low,2,0,2,0,1,,,,,,,,,
297640,2022-11-29_15h10.46.181,vts_reward_expectancy_bt,2022.2.4,MacIntel,60.0024001,Chrome,1440,900,,,,,1,951,,,,,,,,,,,,,,,,,W,160,triangle,1,0,,,,,,,,,,,,,,,,repeat,number,numRpt,k,0.639,Lo,,,,,,2,,,,,,,,low,3,0,3,0,1,,,,,,,,,
297640,2022-11-29_15h10.46.181,vts_reward_expectancy_bt,2022.2.4,MacIntel,60.0024001,Chrome,1440,900,,,,,1,952,,,,,,,,,,,,,,,,,Y,167,hexagon,1,0,,,,,,,,,,,,,,,,switch,letter,lettSwt,f,0.5959,Lo,,,,,,2,,,,,,,,low,4,0,4,0,1,,,,,,,,,
297640,2022-11-29_15h10.46.181,vts_reward_expectancy_bt,2022.2.4,MacIntel,60.0024001,Chrome,1440,900,,,,,0,952,,,,,,,,,,,,,,,,,U,146,star,0,0,,,,,,,,,,,,,,,,repeat,letter,NA,d,0.5069,Lo,,,,,,2,,,,,,,,low,5,0,5,0,1,,,,,,,,,
297640,2022-11-29_15h10.46.181,vts_reward_expectancy_bt,2022.2.4,MacIntel,60.0024001,Chrome,1440,900,,,,,0,952,,,,,,,,,,,,,,,,,D,181,circle,1,1,,,,,,,,,,,,,,,,repeat,letter,lettRpt,d,0.7448,Hi,,,,,,2,,,,,,,,low,6,0,6,0,1,,,,,,,,,
297640,2022-11-29_15h10.46.181,vts_reward_expectancy_bt,2022.2.4,MacIntel,60.0024001,Chrome,1440,900,,,,,1,953,,,,,,,,,,,,,,,,,S,139,triangle,1,0,,,,,,,,,,,,,,,,switch,number,numSwt,j,0.6711,Lo,,,,,,2,,,,,,,,low,7,0,7,0,1,,,,,,,,,
297640,2022-11-29_15h10.46.181,vts_reward_expectancy_bt,2022.2.4,MacIntel,60.0024001,Chrome,1440,900,,,,,1,954,,,,,,,,,,,,,,,,,B,132,triangle,1,0,,,,,,,,,,,,,,,,switch,letter,lettSwt,d,0.5321,Lo,,,,,,2,,,,,,,,low,8,0,8,0,1,,,,,,,,,
297640,2022-11-29_15h10.46.181,vts_reward_expectancy_bt,2022.2.4,MacIntel,60.0024001,Chrome,1440,900,,,,,10,964,,,,,,,,,,,,,,,,,F,174,circle,1,0,,,,,,,,,,,,,,,,switch,number,numSwt,k,0.5319,Hi,,,,,,2,,,,,,,,low,9,0,9,0,1,,,,,,,,,
297640,2022-11-29_15h10.46.181,vts_reward_expectancy_bt,2022.2.4,MacIntel,60.0024001,Chrome,1440,900,,,,,1,965,,,,,,,,,,,,,,,,,H,125,hexagon,1,0,,,,,,,,,,,,,,,,repeat,number,numRpt,j,0.6983,Lo,,,,,,2,,,,,,,,low,10,0,10,0,1,,,,,,,,,
297640,2022-11-29_15h10.46.181,vts_reward_expectancy_bt,2022.2.4,MacIntel,60.0024001,Chrome,1440,900,,,,,0,965,,,,,,,,,,,,,,,,,W,160,star,1,0,,,,,,,,,,,,,,,,repeat,number,numRpt,k,0.9118,Hi,,,,,,2,,,,,,,,low,11,0,11,0,1,,,,,,,,,
297640,2022-11-29_15h10.46.181,vts_reward_expectancy_bt,2022.2.4,MacIntel,60.0024001,Chrome,1440,900,,,,,1,966,,,,,,,,,,,,,,,,,Y,167,triangle,1,0,,,,,,,,,,,,,,,,repeat,number,numRpt,k,0.7153,Lo,,,,,,2,,,,,,,,low,12,0,12,0,1,,,,,,,,,
297640,2022-11-29_15h10.46.181,vts_reward_expectancy_bt,2022.2.4,MacIntel,60.0024001,Chrome,1440,900,,,,,0,966,,,,,,,,,,,,,,,,,U,146,star,0,0,,,,,,,,,,,,,,,,switch,letter,NA,d,0.7212,Lo,,,,,,2,,,,,,,,low,13,0,13,0,1,,,,,,,,,
297640,2022-11-29_15h10.46.181,vts_reward_expectancy_bt,2022.2.4,MacIntel,60.0024001,Chrome,1440,900,,,,,0,966,,,,,,,,,,,,,,,,,D,181,circle,1,1,,,,,,,,,,,,,,,,repeat,letter,lettRpt,d,0.8819,Hi,,,,,,2,,,,,,,,low,14,0,14,0,1,,,,,,,,,
297640,2022-11-29_15h10.46.181,vts_reward_expectancy_bt,2022.2.4,MacIntel,60.0024001,Chrome,1440,900,,,,,1,967,,,,,,,,,,,,,,,,,S,139,hexagon,1,0,,,,,,,,,,,,,,,,repeat,letter,lettRpt,f,0.6621,Lo,,,,,,2,,,,,,,,low,15,0,15,0,1,,,,,,,,,
297640,2022-11-29_15h10.46.181,vts_reward_expectancy_bt,2022.2.4,MacIntel,60.0024001,Chrome,1440,900,,,,,1,968,,,,,,,,,,,,,,,,,Y,146,hexagon,1,0,,,,,,,,,,,,,,,,switch,number,numSwt,j,0.6548,Lo,,,,,,2,,,,,,,,low,16,0,16,0,1,,,,,,,,,
297640,2022-11-29_15h10.46.181,vts_reward_expectancy_bt,2022.2.4,MacIntel,60.0024001,Chrome,1440,900,,,,,0,968,,,,,,,,,,,,,,,,,U,174,star,1,0,,,,,,,,,,,,,,,,repeat,number,numRpt,k,0.6572,Hi,,,,,,2,,,,,,,,low,17,0,17,0,1,,,,,,,,,
297640,2022-11-29_15h10.46.181,vts_reward_expectancy_bt,2022.2.4,MacIntel,60.0024001,Chrome,1440,900,,,,,10,978,,,,,,,,,,,,,,,,,W,132,triangle,1,0,,,,,,,,,,,,,,,,repeat,number,numRpt,j,0.6859,Lo,,,,,,2,,,,,,,,low,18,0,18,0,1,,,,,,,,,
297640,2022-11-29_15h10.46.181,vts_reward_expectancy_bt,2022.2.4,MacIntel,60.0024001,Chrome,1440,900,,,,,10,988,,,,,,,,,,,,,,,,,S,125,circle,1,0,,,,,,,,,,,,,,,,repeat,number,numRpt,j,0.6045,Hi,,,,,,2,,,,,,,,low,19,0,19,0,1,,,,,,,,,
297640,2022-11-29_15h10.46.181,vts_reward_expectancy_bt,2022.2.4,MacIntel,60.0024001,Chrome,1440,900,,,,,0,988,,,,,,,,,,,,,,,,,H,167,star,0,0,,,,,,,,,,,,,,,,repeat,number,NA,j,0.6292,Hi,,,,,,2,,,,,,,,low,20,0,20,0,1,,,,,,,,,
297640,2022-11-29_15h10.46.181,vts_reward_expectancy_bt,2022.2.4,MacIntel,60.0024001,Chrome,1440,900,,,,,10,998,,,,,,,,,,,,,,,,,D,139,circle,1,1,,,,,,,,,,,,,,,,repeat,number,numRpt,j,0.4992,Hi,,,,,,2,,,,,,,,low,21,0,21,0,1,,,,,,,,,
297640,2022-11-29_15h10.46.181,vts_reward_expectancy_bt,2022.2.4,MacIntel,60.0024001,Chrome,1440,900,,,,,1,999,,,,,,,,,,,,,,,,,B,160,hexagon,1,0,,,,,,,,,,,,,,,,repeat,number,numRpt,k,0.5896,Lo,,,,,,2,,,,,,,,low,22,0,22,0,1,,,,,,,,,
297640,2022-11-29_15h10.46.181,vts_reward_expectancy_bt,2022.2.4,MacIntel,60.0024001,Chrome,1440,900,,,,,1,1000,,,,,,,,,,,,,,,,,F,181,triangle,1,0,,,,,,,,,,,,,,,,repeat,number,numRpt,k,0.5823,Lo,,,,,,2,,,,,,,,low,23,0,23,0,1,,,,,,,,,
297640,2022-11-29_15h10.46.181,vts_reward_expectancy_bt,2022.2.4,MacIntel,60.0024001,Chrome,1440,900,,,,,10,1010,,,,,,,,,,,,,,,,,H,181,circle,1,0,,,,,,,,,,,,,,,,repeat,number,numRpt,k,0.5997,Hi,,,,,,2,,,,,,,,low,24,0,24,0,1,,,,,,,,,
297640,2022-11-29_15h10.46.181,vts_reward_expectancy_bt,2022.2.4,MacIntel,60.0024001,Chrome,1440,900,,,,,10,1020,,,,,,,,,,,,,,,,,D,160,star,1,0,,,,,,,,,,,,,,,,repeat,number,numRpt,k,0.4993,Hi,,,,,,2,,,,,,,,low,25,0,25,0,1,,,,,,,,,
297640,2022-11-29_15h10.46.181,vts_reward_expectancy_bt,2022.2.4,MacIntel,60.0024001,Chrome,1440,900,,,,,10,1030,,,,,,,,,,,,,,,,,W,174,hexagon,1,0,,,,,,,,,,,,,,,,switch,letter,lettSwt,f,0.5327,Lo,,,,,,2,,,,,,,,low,26,0,26,0,1,,,,,,,,,
297640,2022-11-29_15h10.46.181,vts_reward_expectancy_bt,2022.2.4,MacIntel,60.0024001,Chrome,1440,900,,,,,1,1031,,,,,,,,,,,,,,,,,Y,132,triangle,1,0,,,,,,,,,,,,,,,,switch,number,numSwt,j,0.4655,Lo,,,,,,2,,,,,,,,low,27,0,27,0,1,,,,,,,,,
297640,2022-11-29_15h10.46.181,vts_reward_expectancy_bt,2022.2.4,MacIntel,60.0024001,Chrome,1440,900,,,,,1,1032,,,,,,,,,,,,,,,,,U,146,star,1,0,,,,,,,,,,,,,,,,repeat,number,numRpt,j,0.4291,Hi,,,,,,2,,,,,,,,low,28,0,28,0,1,,,,,,,,,
297640,2022-11-29_15h10.46.181,vts_reward_expectancy_bt,2022.2.4,MacIntel,60.0024001,Chrome,1440,900,,,,,0,1032,,,,,,,,,,,,,,,,,S,125,circle,1,0,,,,,,,,,,,,,,,,switch,letter,lettSwt,f,0.7202,Hi,,,,,,2,,,,,,,,low,29,0,29,0,1,,,,,,,,,
297640,2022-11-29_15h10.46.181,vts_reward_expectancy_bt,2022.2.4,MacIntel,60.0024001,Chrome,1440,900,,,,,1,1033,,,,,,,,,,,,,,,,,B,167,hexagon,1,0,,,,,,,,,,,,,,,,repeat,letter,lettRpt,d,1.1384,Lo,,,,,,2,,,,,,,,low,30,0,30,0,1,,,,,,,,,
297640,2022-11-29_15h10.46.181,vts_reward_expectancy_bt,2022.2.4,MacIntel,60.0024001,Chrome,1440,900,,,,,1,1034,,,,,,,,,,,,,,,,,F,139,triangle,1,0,,,,,,,,,,,,,,,,switch,number,numSwt,j,0.7283,Lo,,,,,,2,,,,,,,,low,31,0,31,0,1,,,,,,,,,
297640,2022-11-29_15h10.46.181,vts_reward_expectancy_bt,2022.2.4,MacIntel,60.0024001,Chrome,1440,900,,,,,0,1034,,,,,,,,,,,,,,,,,W,125,circle,1,0,,,,,,,,,,,,,,,,repeat,number,numRpt,j,0.8491,Hi,,,,,,3,,,,,,space,1.6922,low,0,0,0,0,1,,,,,,,,,
297640,2022-11-29_15h10.46.181,vts_reward_expectancy_bt,2022.2.4,MacIntel,60.0024001,Chrome,1440,900,,,,,0,1034,,,,,,,,,,,,,,,,,B,174,star,1,0,,,,,,,,,,,,,,,,repeat,number,numRpt,k,0.599,Hi,,,,,,3,,,,,,,,low,1,0,1,0,1,,,,,,,,,
297640,2022-11-29_15h10.46.181,vts_reward_expectancy_bt,2022.2.4,MacIntel,60.0024001,Chrome,1440,900,,,,,10,1044,,,,,,,,,,,,,,,,,F,146,hexagon,1,0,,,,,,,,,,,,,,,,repeat,number,numRpt,j,0.5317,Lo,,,,,,3,,,,,,,,low,2,0,2,0,1,,,,,,,,,
297640,2022-11-29_15h10.46.181,vts_reward_expectancy_bt,2022.2.4,MacIntel,60.0024001,Chrome,1440,900,,,,,1,1045,,,,,,,,,,,,,,,,,S,132,triangle,1,0,,,,,,,,,,,,,,,,repeat,number,numRpt,j,0.456,Lo,,,,,,3,,,,,,,,low,3,0,3,0,1,,,,,,,,,
297640,2022-11-29_15h10.46.181,vts_reward_expectancy_bt,2022.2.4,MacIntel,60.0024001,Chrome,1440,900,,,,,10,1055,,,,,,,,,,,,,,,,,U,167,circle,1,0,,,,,,,,,,,,,,,,repeat,number,numRpt,k,0.4399,Hi,,,,,,3,,,,,,,,low,4,0,4,0,1,,,,,,,,,
297640,2022-11-29_15h10.46.181,vts_reward_expectancy_bt,2022.2.4,MacIntel,60.0024001,Chrome,1440,900,,,,,0,1055,,,,,,,,,,,,,,,,,H,139,star,1,0,,,,,,,,,,,,,,,,switch,letter,lettSwt,d,0.5459,Hi,,,,,,3,,,,,,,,low,5,0,5,0,1,,,,,,,,,
297640,2022-11-29_15h10.46.181,vts_reward_expectancy_bt,2022.2.4,MacIntel,60.0024001,Chrome,1440,900,,,,,10,1065,,,,,,,,,,,,,,,,,D,181,hexagon,1,0,,,,,,,,,,,,,,,,repeat,letter,lettRpt,d,0.4632,Lo,,,,,,3,,,,,,,,low,6,0,6,0,1,,,,,,,,,
297640,2022-11-29_15h10.46.181,vts_reward_expectancy_bt,2022.2.4,MacIntel,60.0024001,Chrome,1440,900,,,,,10,1075,,,,,,,,,,,,,,,,,Y,160,triangle,1,0,,,,,,,,,,,,,,,,repeat,letter,lettRpt,f,0.4729,Lo,,,,,,3,,,,,,,,low,7,0,7,0,1,,,,,,,,,
297640,2022-11-29_15h10.46.181,vts_reward_expectancy_bt,2022.2.4,MacIntel,60.0024001,Chrome,1440,900,,,,,1,1076,,,,,,,,,,,,,,,,,W,125,triangle,1,0,,,,,,,,,,,,,,,,repeat,letter,lettRpt,f,0.5073,Lo,,,,,,3,,,,,,,,low,8,0,8,0,1,,,,,,,,,
297640,2022-11-29_15h10.46.181,vts_reward_expectancy_bt,2022.2.4,MacIntel,60.0024001,Chrome,1440,900,,,,,10,1086,,,,,,,,,,,,,,,,,B,174,star,1,0,,,,,,,,,,,,,,,,switch,number,numSwt,k,0.5421,Hi,,,,,,3,,,,,,,,low,9,0,9,0,1,,,,,,,,,
297640,2022-11-29_15h10.46.181,vts_reward_expectancy_bt,2022.2.4,MacIntel,60.0024001,Chrome,1440,900,,,,,1,1087,,,,,,,,,,,,,,,,,F,146,circle,1,0,,,,,,,,,,,,,,,,repeat,number,numRpt,j,0.498,Hi,,,,,,3,,,,,,,,low,10,0,10,0,1,,,,,,,,,
297640,2022-11-29_15h10.46.181,vts_reward_expectancy_bt,2022.2.4,MacIntel,60.0024001,Chrome,1440,900,,,,,1,1088,,,,,,,,,,,,,,,,,S,132,hexagon,1,0,,,,,,,,,,,,,,,,repeat,number,numRpt,j,0.465,Lo,,,,,,3,,,,,,,,low,11,0,11,0,1,,,,,,,,,
297640,2022-11-29_15h10.46.181,vts_reward_expectancy_bt,2022.2.4,MacIntel,60.0024001,Chrome,1440,900,,,,,1,1089,,,,,,,,,,,,,,,,,U,167,circle,1,0,,,,,,,,,,,,,,,,repeat,number,numRpt,k,0.5068,Hi,,,,,,3,,,,,,,,low,12,0,12,0,1,,,,,,,,,
297640,2022-11-29_15h10.46.181,vts_reward_expectancy_bt,2022.2.4,MacIntel,60.0024001,Chrome,1440,900,,,,,1,1090,,,,,,,,,,,,,,,,,H,139,hexagon,1,0,,,,,,,,,,,,,,,,repeat,number,numRpt,j,0.5815,Lo,,,,,,3,,,,,,,,low,13,0,13,0,1,,,,,,,,,
297640,2022-11-29_15h10.46.181,vts_reward_expectancy_bt,2022.2.4,MacIntel,60.0024001,Chrome,1440,900,,,,,1,1091,,,,,,,,,,,,,,,,,D,181,triangle,1,0,,,,,,,,,,,,,,,,switch,letter,lettSwt,d,0.6091,Lo,,,,,,3,,,,,,,,low,14,0,14,0,1,,,,,,,,,
297640,2022-11-29_15h10.46.181,vts_reward_expectancy_bt,2022.2.4,MacIntel,60.0024001,Chrome,1440,900,,,,,10,1101,,,,,,,,,,,,,,,,,Y,160,star,1,0,,,,,,,,,,,,,,,,repeat,letter,lettRpt,f,0.4312,Hi,,,,,,3,,,,,,,,low,15,0,15,0,1,,,,,,,,,
297640,2022-11-29_15h10.46.181,vts_reward_expectancy_bt,2022.2.4,MacIntel,60.0024001,Chrome,1440,900,,,,,1,1102,,,,,,,,,,,,,,,,,F,167,circle,1,0,,,,,,,,,,,,,,,,repeat,letter,lettRpt,d,0.5744,Hi,,,,,,3,,,,,,,,low,16,0,16,0,1,,,,,,,,,
297640,2022-11-29_15h10.46.181,vts_reward_expectancy_bt,2022.2.4,MacIntel,60.0024001,Chrome,1440,900,,,,,1,1103,,,,,,,,,,,,,,,,,U,181,star,1,0,,,,,,,,,,,,,,,,repeat,letter,lettRpt,f,0.5819,Hi,,,,,,3,,,,,,,,low,17,0,17,0,1,,,,,,,,,
297640,2022-11-29_15h10.46.181,vts_reward_expectancy_bt,2022.2.4,MacIntel,60.0024001,Chrome,1440,900,,,,,1,1104,,,,,,,,,,,,,,,,,W,132,hexagon,1,0,,,,,,,,,,,,,,,,repeat,letter,lettRpt,f,0.5991,Lo,,,,,,3,,,,,,,,low,18,0,18,0,1,,,,,,,,,
297640,2022-11-29_15h10.46.181,vts_reward_expectancy_bt,2022.2.4,MacIntel,60.0024001,Chrome,1440,900,,,,,1,1105,,,,,,,,,,,,,,,,,B,139,triangle,1,0,,,,,,,,,,,,,,,,repeat,letter,lettRpt,d,0.5709,Lo,,,,,,3,,,,,,,,low,19,0,19,0,1,,,,,,,,,
297640,2022-11-29_15h10.46.181,vts_reward_expectancy_bt,2022.2.4,MacIntel,60.0024001,Chrome,1440,900,,,,,1,1106,,,,,,,,,,,,,,,,,D,146,hexagon,1,0,,,,,,,,,,,,,,,,repeat,letter,lettRpt,d,0.5792,Lo,,,,,,3,,,,,,,,low,20,0,20,0,1,,,,,,,,,
297640,2022-11-29_15h10.46.181,vts_reward_expectancy_bt,2022.2.4,MacIntel,60.0024001,Chrome,1440,900,,,,,0,1106,,,,,,,,,,,,,,,,,S,160,star,1,0,,,,,,,,,,,,,,,,switch,number,numSwt,k,0.5996,Hi,,,,,,3,,,,,,,,low,21,0,21,0,1,,,,,,,,,
297640,2022-11-29_15h10.46.181,vts_reward_expectancy_bt,2022.2.4,MacIntel,60.0024001,Chrome,1440,900,,,,,0,1106,,,,,,,,,,,,,,,,,H,174,circle,1,0,,,,,,,,,,,,,,,,repeat,number,numRpt,k,0.6576,Hi,,,,,,3,,,,,,,,low,22,0,22,0,1,,,,,,,,,
297640,2022-11-29_15h10.46.181,vts_reward_expectancy_bt,2022.2.4,MacIntel,60.0024001,Chrome,1440,900,,,,,10,1116,,,,,,,,,,,,,,,,,Y,125,triangle,1,0,,,,,,,,,,,,,,,,repeat,number,numRpt,j,0.5649,Lo,,,,,,3,,,,,,,,low,23,0,23,0,1,,,,,,,,,
297640,2022-11-29_15h10.46.181,vts_reward_expectancy_bt,2022.2.4,MacIntel,60.0024001,Chrome,1440,900,,,,,1,1117,,,,,,,,,,,,,,,,,F,132,hexagon,1,0,,,,,,,,,,,,,,,,repeat,number,numRpt,j,0.7492,Lo,,,,,,3,,,,,,,,low,24,0,24,0,1,,,,,,,,,
297640,2022-11-29_15h10.46.181,vts_reward_expectancy_bt,2022.2.4,MacIntel,60.0024001,Chrome,1440,900,,,,,1,1118,,,,,,,,,,,,,,,,,U,167,triangle,1,0,,,,,,,,,,,,,,,,repeat,number,numRpt,k,0.7822,Lo,,,,,,3,,,,,,,,low,25,0,25,0,1,,,,,,,,,
297640,2022-11-29_15h10.46.181,vts_reward_expectancy_bt,2022.2.4,MacIntel,60.0024001,Chrome,1440,900,,,,,0,1118,,,,,,,,,,,,,,,,,W,146,circle,1,0,,,,,,,,,,,,,,,,repeat,number,numRpt,j,0.6057,Hi,,,,,,3,,,,,,,,low,26,0,26,0,1,,,,,,,,,
297640,2022-11-29_15h10.46.181,vts_reward_expectancy_bt,2022.2.4,MacIntel,60.0024001,Chrome,1440,900,,,,,0,1118,,,,,,,,,,,,,,,,,B,174,star,0,0,,,,,,,,,,,,,,,,repeat,number,NA,j,0.5321,Hi,,,,,,3,,,,,,,,low,27,0,27,0,1,,,,,,,,,
297640,2022-11-29_15h10.46.181,vts_reward_expectancy_bt,2022.2.4,MacIntel,60.0024001,Chrome,1440,900,,,,,10,1128,,,,,,,,,,,,,,,,,D,160,circle,1,1,,,,,,,,,,,,,,,,repeat,number,numRpt,k,0.5066,Hi,,,,,,3,,,,,,,,low,28,0,28,0,1,,,,,,,,,
297640,2022-11-29_15h10.46.181,vts_reward_expectancy_bt,2022.2.4,MacIntel,60.0024001,Chrome,1440,900,,,,,1,1129,,,,,,,,,,,,,,,,,S,139,triangle,1,0,,,,,,,,,,,,,,,,repeat,number,numRpt,j,0.4311,Lo,,,,,,3,,,,,,,,low,29,0,29,0,1,,,,,,,,,
297640,2022-11-29_15h10.46.181,vts_reward_expectancy_bt,2022.2.4,MacIntel,60.0024001,Chrome,1440,900,,,,,1,1130,,,,,,,,,,,,,,,,,H,181,hexagon,1,0,,,,,,,,,,,,,,,,repeat,number,numRpt,k,0.5432,Lo,,,,,,3,,,,,,,,low,30,0,30,0,1,,,,,,,,,
297640,2022-11-29_15h10.46.181,vts_reward_expectancy_bt,2022.2.4,MacIntel,60.0024001,Chrome,1440,900,,,,,0,1130,,,,,,,,,,,,,,,,,Y,125,star,1,0,,,,,,,,,,,,,,,,repeat,number,numRpt,j,0.6154,Hi,,,,,,3,,,,,,,,low,31,0,31,0,1,,,,,,,,,
297640,2022-11-29_15h10.46.181,vts_reward_expectancy_bt,2022.2.4,MacIntel,60.0024001,Chrome,1440,900,,,,,1,1131,,,,,,,,,,,,,,,,,Y,160,hexagon,1,0,,,,,,,,,,,,,,,,repeat,number,numRpt,k,0.7329,Lo,,,,,,4,,,,,,space,31.2285,low,0,0,0,0,1,,,,,,,,,
297640,2022-11-29_15h10.46.181,vts_reward_expectancy_bt,2022.2.4,MacIntel,60.0024001,Chrome,1440,900,,,,,10,1141,,,,,,,,,,,,,,,,,U,139,star,1,0,,,,,,,,,,,,,,,,switch,letter,lettSwt,f,0.513,Hi,,,,,,4,,,,,,,,low,1,0,1,0,1,,,,,,,,,
297640,2022-11-29_15h10.46.181,vts_reward_expectancy_bt,2022.2.4,MacIntel,60.0024001,Chrome,1440,900,,,,,0,1141,,,,,,,,,,,,,,,,,S,132,circle,1,0,,,,,,,,,,,,,,,,repeat,letter,lettRpt,f,0.6794,Hi,,,,,,4,,,,,,,,low,2,0,2,0,1,,,,,,,,,
297640,2022-11-29_15h10.46.181,vts_reward_expectancy_bt,2022.2.4,MacIntel,60.0024001,Chrome,1440,900,,,,,1,1142,,,,,,,,,,,,,,,,,B,174,triangle,1,0,,,,,,,,,,,,,,,,repeat,letter,lettRpt,d,0.4902,Lo,,,,,,4,,,,,,,,low,3,0,3,0,1,,,,,,,,,
297640,2022-11-29_15h10.46.181,vts_reward_expectancy_bt,2022.2.4,MacIntel,60.0024001,Chrome,1440,900,,,,,1,1143,,,,,,,,,,,,,,,,,F,167,hexagon,1,0,,,,,,,,,,,,,,,,repeat,letter,lettRpt,d,0.532,Lo,,,,,,4,,,,,,,,low,4,0,4,0,1,,,,,,,,,
297640,2022-11-29_15h10.46.181,vts_reward_expectancy_bt,2022.2.4,MacIntel,60.0024001,Chrome,1440,900,,,,,0,1143,,,,,,,,,,,,,,,,,D,146,star,0,0,,,,,,,,,,,,,,,,switch,number,NA,k,0.5967,Lo,,,,,,4,,,,,,,,low,5,0,5,0,1,,,,,,,,,
297640,2022-11-29_15h10.46.181,vts_reward_expectancy_bt,2022.2.4,MacIntel,60.0024001,Chrome,1440,900,,,,,0,1143,,,,,,,,,,,,,,,,,W,181,circle,1,1,,,,,,,,,,,,,,,,repeat,number,numRpt,k,0.5638,Hi,,,,,,4,,,,,,,,low,6,0,6,0,1,,,,,,,,,
297640,2022-11-29_15h10.46.181,vts_reward_expectancy_bt,2022.2.4,MacIntel,60.0024001,Chrome,1440,900,,,,,1,1144,,,,,,,,,,,,,,,,,H,125,triangle,1,0,,,,,,,,,,,,,,,,repeat,number,numRpt,j,0.6098,Lo,,,,,,4,,,,,,,,low,7,0,7,0,1,,,,,,,,,
297640,2022-11-29_15h10.46.181,vts_reward_expectancy_bt,2022.2.4,MacIntel,60.0024001,Chrome,1440,900,,,,,1,1145,,,,,,,,,,,,,,,,,Y,160,triangle,1,0,,,,,,,,,,,,,,,,repeat,number,numRpt,k,0.5478,Lo,,,,,,4,,,,,,,,low,8,0,8,0,1,,,,,,,,,
297640,2022-11-29_15h10.46.181,vts_reward_expectancy_bt,2022.2.4,MacIntel,60.0024001,Chrome,1440,900,,,,,10,1155,,,,,,,,,,,,,,,,,U,139,circle,1,0,,,,,,,,,,,,,,,,repeat,number,numRpt,j,0.4888,Hi,,,,,,4,,,,,,,,low,9,0,9,0,1,,,,,,,,,
297640,2022-11-29_15h10.46.181,vts_reward_expectancy_bt,2022.2.4,MacIntel,60.0024001,Chrome,1440,900,,,,,10,1165,,,,,,,,,,,,,,,,,S,132,hexagon,1,0,,,,,,,,,,,,,,,,repeat,number,numRpt,j,0.5603,Lo,,,,,,4,,,,,,,,low,10,0,10,0,1,,,,,,,,,
297640,2022-11-29_15h10.46.181,vts_reward_expectancy_bt,2022.2.4,MacIntel,60.0024001,Chrome,1440,900,,,,,10,1175,,,,,,,,,,,,,,,,,B,174,star,1,0,,,,,,,,,,,,,,,,repeat,number,numRpt,k,0.5064,Hi,,,,,,4,,,,,,,,low,11,0,11,0,1,,,,,,,,,
297640,2022-11-29_15h10.46.181,vts_reward_expectancy_bt,2022.2.4,MacIntel,60.0024001,Chrome,1440,900,,,,,0,1175,,,,,,,,,,,,,,,,,F,167,hexagon,0,0,,,,,,,,,,,,,,,,switch,letter,NA,f,0.393,Hi,,,,,,4,,,,,,,,low,12,0,12,0,1,,,,,,,,,
297640,2022-11-29_15h10.46.181,vts_reward_expectancy_bt,2022.2.4,MacIntel,60.0024001,Chrome,1440,900,,,,,0,1175,,,,,,,,,,,,,,,,,D,146,star,0,1,,,,,,,,,,,,,,,,switch,number,NA,k,0.6486,Hi,,,,,,4,,,,,,,,low,13,0,13,0,1,,,,,,,,,
297640,2022-11-29_15h10.46.181,vts_reward_expectancy_bt,2022.2.4,MacIntel,60.0024001,Chrome,1440,900,,,,,0,1175,,,,,,,,,,,,,,,,,W,181,circle,1,1,,,,,,,,,,,,,,,,repeat,number,numRpt,k,0.5375,Hi,,,,,,4,,,,,,,,low,14,0,14,0,1,,,,,,,,,
297640,2022-11-29_15h10.46.181,vts_reward_expectancy_bt,2022.2.4,MacIntel,60.0024001,Chrome,1440,900,,,,,1,1176,,,,,,,,,,,,,,,,,H,125,triangle,1,0,,,,,,,,,,,,,,,,switch,letter,lettSwt,d,0.4979,Lo,,,,,,4,,,,,,,,low,15,0,15,0,1,,,,,,,,,
297640,2022-11-29_15h10.46.181,vts_reward_expectancy_bt,2022.2.4,MacIntel,60.0024001,Chrome,1440,900,,,,,10,1186,,,,,,,,,,,,,,,,,U,146,hexagon,1,0,,,,,,,,,,,,,,,,switch,number,numSwt,j,0.7246,Lo,,,,,,4,,,,,,,,low,16,0,16,0,1,,,,,,,,,
297640,2022-11-29_15h10.46.181,vts_reward_expectancy_bt,2022.2.4,MacIntel,60.0024001,Chrome,1440,900,,,,,10,1196,,,,,,,,,,,,,,,,,H,132,triangle,1,0,,,,,,,,,,,,,,,,switch,letter,lettSwt,d,0.5472,Lo,,,,,,4,,,,,,,,low,17,0,17,0,1,,,,,,,,,
297640,2022-11-29_15h10.46.181,vts_reward_expectancy_bt,2022.2.4,MacIntel,60.0024001,Chrome,1440,900,,,,,0,1196,,,,,,,,,,,,,,,,,W,174,star,1,0,,,,,,,,,,,,,,,,switch,number,numSwt,k,0.7982,Hi,,,,,,4,,,,,,,,low,18,0,18,0,1,,,,,,,,,
297640,2022-11-29_15h10.46.181,vts_reward_expectancy_bt,2022.2.4,MacIntel,60.0024001,Chrome,1440,900,,,,,0,1196,,,,,,,,,,,,,,,,,D,125,circle,1,0,,,,,,,,,,,,,,,,repeat,number,numRpt,j,0.5651,Hi,,,,,,4,,,,,,,,low,19,0,19,0,1,,,,,,,,,
297640,2022-11-29_15h10.46.181,vts_reward_expectancy_bt,2022.2.4,MacIntel,60.0024001,Chrome,1440,900,,,,,0,1196,,,,,,,,,,,,,,,,,F,160,circle,1,0,,,,,,,,,,,,,,,,repeat,number,numRpt,k,0.6292,Hi,,,,,,4,,,,,,,,low,20,0,20,0,1,,,,,,,,,
297640,2022-11-29_15h10.46.181,vts_reward_expectancy_bt,2022.2.4,MacIntel,60.0024001,Chrome,1440,900,,,,,0,1196,,,,,,,,,,,,,,,,,B,139,star,1,0,,,,,,,,,,,,,,,,repeat,number,numRpt,j,0.5146,Hi,,,,,,4,,,,,,,,low,21,0,21,0,1,,,,,,,,,
297640,2022-11-29_15h10.46.181,vts_reward_expectancy_bt,2022.2.4,MacIntel,60.0024001,Chrome,1440,900,,,,,10,1206,,,,,,,,,,,,,,,,,S,181,hexagon,1,0,,,,,,,,,,,,,,,,switch,letter,lettSwt,f,0.4729,Lo,,,,,,4,,,,,,,,low,22,0,22,0,1,,,,,,,,,
297640,2022-11-29_15h10.46.181,vts_reward_expectancy_bt,2022.2.4,MacIntel,60.0024001,Chrome,1440,900,,,,,1,1207,,,,,,,,,,,,,,,,,Y,167,triangle,1,0,,,,,,,,,,,,,,,,repeat,letter,lettRpt,f,0.5627,Lo,,,,,,4,,,,,,,,low,23,0,23,0,1,,,,,,,,,
297640,2022-11-29_15h10.46.181,vts_reward_expectancy_bt,2022.2.4,MacIntel,60.0024001,Chrome,1440,900,,,,,10,1217,,,,,,,,,,,,,,,,,W,146,star,1,0,,,,,,,,,,,,,,,,switch,number,numSwt,j,0.5321,Hi,,,,,,4,,,,,,,,low,24,0,24,0,1,,,,,,,,,
297640,2022-11-29_15h10.46.181,vts_reward_expectancy_bt,2022.2.4,MacIntel,60.0024001,Chrome,1440,900,,,,,10,1227,,,,,,,,,,,,,,,,,B,132,hexagon,1,0,,,,,,,,,,,,,,,,switch,letter,lettSwt,d,0.4652,Lo,,,,,,4,,,,,,,,low,25,0,25,0,1,,,,,,,,,
297640,2022-11-29_15h10.46.181,vts_reward_expectancy_bt,2022.2.4,MacIntel,60.0024001,Chrome,1440,900,,,,,1,1228,,,,,,,,,,,,,,,,,D,139,triangle,1,0,,,,,,,,,,,,,,,,switch,number,numSwt,j,0.5411,Lo,,,,,,4,,,,,,,,low,26,0,26,0,1,,,,,,,,,
297640,2022-11-29_15h10.46.181,vts_reward_expectancy_bt,2022.2.4,MacIntel,60.0024001,Chrome,1440,900,,,,,0,1228,,,,,,,,,,,,,,,,,S,167,circle,1,0,,,,,,,,,,,,,,,,switch,letter,lettSwt,f,0.5494,Hi,,,,,,4,,,,,,,,low,27,0,27,0,1,,,,,,,,,
297640,2022-11-29_15h10.46.181,vts_reward_expectancy_bt,2022.2.4,MacIntel,60.0024001,Chrome,1440,900,,,,,0,1228,,,,,,,,,,,,,,,,,U,174,circle,0,0,,,,,,,,,,,,,,,,repeat,letter,NA,d,0.6066,Hi,,,,,,4,,,,,,,,low,28,0,28,0,1,,,,,,,,,
297640,2022-11-29_15h10.46.181,vts_reward_expectancy_bt,2022.2.4,MacIntel,60.0024001,Chrome,1440,900,,,,,1,1229,,,,,,,,,,,,,,,,,Y,160,hexagon,1,1,,,,,,,,,,,,,,,,repeat,letter,lettRpt,f,0.6406,Lo,,,,,,4,,,,,,,,low,29,0,29,0,1,,,,,,,,,
297640,2022-11-29_15h10.46.181,vts_reward_expectancy_bt,2022.2.4,MacIntel,60.0024001,Chrome,1440,900,,,,,0,1229,,,,,,,,,,,,,,,,,F,125,star,0,0,,,,,,,,,,,,,,,,repeat,letter,NA,f,0.6042,Lo,,,,,,4,,,,,,,,low,30,0,30,0,1,,,,,,,,,
297640,2022-11-29_15h10.46.181,vts_reward_expectancy_bt,2022.2.4,MacIntel,60.0024001,Chrome,1440,900,,,,,10,1239,,,,,,,,,,,,,,,,,H,181,triangle,1,1,,,,,,,,,,,,,,,,switch,number,numSwt,k,0.5768,Lo,,,,,,4,,,,,,,,low,31,0,31,0,1,,,,,,,,,
297640,2022-11-29_15h10.46.181,vts_reward_expectancy_bt,2022.2.4,MacIntel,60.0024001,Chrome,1440,900,,,,,0,1239,,,,,,,,,,,,,,,,,H,174,star,1,0,,,,,,,,,,,,,,,,repeat,number,numRpt,k,0.6881,Hi,,,,,,5,,,,,,space,0.7868,low,0,0,0,0,1,,,,,,,,,
297640,2022-11-29_15h10.46.181,vts_reward_expectancy_bt,2022.2.4,MacIntel,60.0024001,Chrome,1440,900,,,,,0,1239,,,,,,,,,,,,,,,,,F,132,circle,1,0,,,,,,,,,,,,,,,,switch,letter,lettSwt,d,0.5955,Hi,,,,,,5,,,,,,,,low,1,0,1,0,1,,,,,,,,,
297640,2022-11-29_15h10.46.181,vts_reward_expectancy_bt,2022.2.4,MacIntel,60.0024001,Chrome,1440,900,,,,,1,1240,,,,,,,,,,,,,,,,,D,146,triangle,1,0,,,,,,,,,,,,,,,,repeat,letter,lettRpt,d,0.4826,Lo,,,,,,5,,,,,,,,low,2,0,2,0,1,,,,,,,,,
297640,2022-11-29_15h10.46.181,vts_reward_expectancy_bt,2022.2.4,MacIntel,60.0024001,Chrome,1440,900,,,,,10,1250,,,,,,,,,,,,,,,,,Y,139,hexagon,1,0,,,,,,,,,,,,,,,,repeat,letter,lettRpt,f,0.5328,Lo,,,,,,5,,,,,,,,low,3,0,3,0,1,,,,,,,,,
297640,2022-11-29_15h10.46.181,vts_reward_expectancy_bt,2022.2.4,MacIntel,60.0024001,Chrome,1440,900,,,,,1,1251,,,,,,,,,,,,,,,,,B,181,star,1,0,,,,,,,,,,,,,,,,switch,number,numSwt,k,0.4734,Hi,,,,,,5,,,,,,,,low,4,0,4,0,1,,,,,,,,,
297640,2022-11-29_15h10.46.181,vts_reward_expectancy_bt,2022.2.4,MacIntel,60.0024001,Chrome,1440,900,,,,,0,1251,,,,,,,,,,,,,,,,,U,160,circle,1,0,,,,,,,,,,,,,,,,switch,letter,lettSwt,f,0.5325,Hi,,,,,,5,,,,,,,,low,5,0,5,0,1,,,,,,,,,
297640,2022-11-29_15h10.46.181,vts_reward_expectancy_bt,2022.2.4,MacIntel,60.0024001,Chrome,1440,900,,,,,0,1251,,,,,,,,,,,,,,,,,S,167,triangle,0,0,,,,,,,,,,,,,,,,switch,number,NA,j,0.5461,Hi,,,,,,5,,,,,,,,low,6,0,6,0,1,,,,,,,,,
297640,2022-11-29_15h10.46.181,vts_reward_expectancy_bt,2022.2.4,MacIntel,60.0024001,Chrome,1440,900,,,,,1,1252,,,,,,,,,,,,,,,,,W,125,hexagon,1,1,,,,,,,,,,,,,,,,switch,letter,lettSwt,f,0.5787,Lo,,,,,,5,,,,,,,,low,7,0,7,0,1,,,,,,,,,
297640,2022-11-29_15h10.46.181,vts_reward_expectancy_bt,2022.2.4,MacIntel,60.0024001,Chrome,1440,900,,,,,10,1262,,,,,,,,,,,,,,,,,H,174,star,1,0,,,,,,,,,,,,,,,,switch,number,numSwt,k,0.4608,Hi,,,,,,5,,,,,,,,low,8,0,8,0,1,,,,,,,,,
297640,2022-11-29_15h10.46.181,vts_reward_expectancy_bt,2022.2.4,MacIntel,60.0024001,Chrome,1440,900,,,,,1,1263,,,,,,,,,,,,,,,,,F,132,triangle,1,0,,,,,,,,,,,,,,,,repeat,number,numRpt,j,0.4819,Lo,,,,,,5,,,,,,,,low,9,0,9,0,1,,,,,,,,,
297640,2022-11-29_15h10.46.181,vts_reward_expectancy_bt,2022.2.4,MacIntel,60.0024001,Chrome,1440,900,,,,,0,1263,,,,,,,,,,,,,,,,,D,146,hexagon,0,0,,,,,,,,,,,,,,,,repeat,number,NA,k,0.5327,Lo,,,,,,5,,,,,,,,low,10,0,10,0,1,,,,,,,,,
297640,2022-11-29_15h10.46.181,vts_reward_expectancy_bt,2022.2.4,MacIntel,60.0024001,Chrome,1440,900,,,,,10,1273,,,,,,,,,,,,,,,,,Y,139,circle,1,1,,,,,,,,,,,,,,,,switch,letter,lettSwt,f,0.4776,Hi,,,,,,5,,,,,,,,low,11,0,11,0,1,,,,,,,,,
297640,2022-11-29_15h10.46.181,vts_reward_expectancy_bt,2022.2.4,MacIntel,60.0024001,Chrome,1440,900,,,,,1,1274,,,,,,,,,,,,,,,,,B,181,triangle,1,0,,,,,,,,,,,,,,,,switch,number,numSwt,k,0.4911,Lo,,,,,,5,,,,,,,,low,12,0,12,0,1,,,,,,,,,
297640,2022-11-29_15h10.46.181,vts_reward_expectancy_bt,2022.2.4,MacIntel,60.0024001,Chrome,1440,900,,,,,0,1274,,,,,,,,,,,,,,,,,U,160,circle,1,0,,,,,,,,,,,,,,,,switch,letter,lettSwt,f,0.5852,Hi,,,,,,5,,,,,,,,low,13,0,13,0,1,,,,,,,,,
297640,2022-11-29_15h10.46.181,vts_reward_expectancy_bt,2022.2.4,MacIntel,60.0024001,Chrome,1440,900,,,,,1,1275,,,,,,,,,,,,,,,,,S,167,hexagon,1,0,,,,,,,,,,,,,,,,switch,number,numSwt,k,0.7316,Lo,,,,,,5,,,,,,,,low,14,0,14,0,1,,,,,,,,,
297640,2022-11-29_15h10.46.181,vts_reward_expectancy_bt,2022.2.4,MacIntel,60.0024001,Chrome,1440,900,,,,,0,1275,,,,,,,,,,,,,,,,,W,125,star,1,0,,,,,,,,,,,,,,,,repeat,number,numRpt,j,0.6164,Hi,,,,,,5,,,,,,,,low,15,0,15,0,1,,,,,,,,,
297640,2022-11-29_15h10.46.181,vts_reward_expectancy_bt,2022.2.4,MacIntel,60.0024001,Chrome,1440,900,,,,,0,1275,,,,,,,,,,,,,,,,,B,139,circle,1,0,,,,,,,,,,,,,,,,repeat,number,numRpt,j,0.5811,Hi,,,,,,5,,,,,,,,low,16,0,16,0,1,,,,,,,,,
297640,2022-11-29_15h10.46.181,vts_reward_expectancy_bt,2022.2.4,MacIntel,60.0024001,Chrome,1440,900,,,,,1,1276,,,,,,,,,,,,,,,,,W,146,star,1,0,,,,,,,,,,,,,,,,switch,letter,lettSwt,f,0.3639,Hi,,,,,,5,,,,,,,,low,17,0,17,0,1,,,,,,,,,
297640,2022-11-29_15h10.46.181,vts_reward_expectancy_bt,2022.2.4,MacIntel,60.0024001,Chrome,1440,900,,,,,10,1286,,,,,,,,,,,,,,,,,H,174,hexagon,1,0,,,,,,,,,,,,,,,,repeat,letter,lettRpt,d,0.4646,Lo,,,,,,5,,,,,,,,low,18,0,18,0,1,,,,,,,,,
297640,2022-11-29_15h10.46.181,vts_reward_expectancy_bt,2022.2.4,MacIntel,60.0024001,Chrome,1440,900,,,,,1,1287,,,,,,,,,,,,,,,,,D,160,triangle,1,0,,,,,,,,,,,,,,,,repeat,letter,lettRpt,d,0.4835,Lo,,,,,,5,,,,,,,,low,19,0,19,0,1,,,,,,,,,
297640,2022-11-29_15h10.46.181,vts_reward_expectancy_bt,2022.2.4,MacIntel,60.0024001,Chrome,1440,900,,,,,1,1288,,,,,,,,,,,,,,,,,F,132,circle,1,0,,,,,,,,,,,,,,,,repeat,letter,lettRpt,d,0.4322,Hi,,,,,,5,,,,,,,,low,20,0,20,0,1,,,,,,,,,
297640,2022-11-29_15h10.46.181,vts_reward_expectancy_bt,2022.2.4,MacIntel,60.0024001,Chrome,1440,900,,,,,0,1288,,,,,,,,,,,,,,,,,S,125,hexagon,0,0,,,,,,,,,,,,,,,,repeat,letter,NA,d,0.3987,Hi,,,,,,5,,,,,,,,low,21,0,21,0,1,,,,,,,,,
297640,2022-11-29_15h10.46.181,vts_reward_expectancy_bt,2022.2.4,MacIntel,60.0024001,Chrome,1440,900,,,,,1,1289,,,,,,,,,,,,,,,,,U,181,star,1,1,,,,,,,,,,,,,,,,switch,number,numSwt,k,0.4644,Hi,,,,,,5,,,,,,,,low,22,0,22,0,1,,,,,,,,,
297640,2022-11-29_15h10.46.181,vts_reward_expectancy_bt,2022.2.4,MacIntel,60.0024001,Chrome,1440,900,,,,,1,1290,,,,,,,,,,,,,,,,,Y,167,triangle,1,0,,,,,,,,,,,,,,,,switch,letter,lettSwt,f,0.3949,Lo,,,,,,5,,,,,,,,low,23,0,23,0,1,,,,,,,,,
297640,2022-11-29_15h10.46.181,vts_reward_expectancy_bt,2022.2.4,MacIntel,60.0024001,Chrome,1440,900,,,,,10,1300,,,,,,,,,,,,,,,,,S,181,circle,1,0,,,,,,,,,,,,,,,,repeat,letter,lettRpt,f,0.3978,Hi,,,,,,5,,,,,,,,low,24,0,24,0,1,,,,,,,,,
297640,2022-11-29_15h10.46.181,vts_reward_expectancy_bt,2022.2.4,MacIntel,60.0024001,Chrome,1440,900,,,,,1,1301,,,,,,,,,,,,,,,,,B,160,star,1,0,,,,,,,,,,,,,,,,repeat,letter,lettRpt,d,0.4618,Hi,,,,,,5,,,,,,,,low,25,0,25,0,1,,,,,,,,,
297640,2022-11-29_15h10.46.181,vts_reward_expectancy_bt,2022.2.4,MacIntel,60.0024001,Chrome,1440,900,,,,,1,1302,,,,,,,,,,,,,,,,,W,167,hexagon,1,0,,,,,,,,,,,,,,,,repeat,letter,lettRpt,f,0.4038,Lo,,,,,,5,,,,,,,,low,26,0,26,0,1,,,,,,,,,
297640,2022-11-29_15h10.46.181,vts_reward_expectancy_bt,2022.2.4,MacIntel,60.0024001,Chrome,1440,900,,,,,0,1302,,,,,,,,,,,,,,,,,F,146,triangle,0,0,,,,,,,,,,,,,,,,repeat,letter,NA,f,0.3831,Lo,,,,,,5,,,,,,,,low,27,0,27,0,1,,,,,,,,,
297640,2022-11-29_15h10.46.181,vts_reward_expectancy_bt,2022.2.4,MacIntel,60.0024001,Chrome,1440,900,,,,,10,1312,,,,,,,,,,,,,,,,,Y,132,hexagon,1,1,,,,,,,,,,,,,,,,repeat,letter,lettRpt,f,0.6816,Lo,,,,,,5,,,,,,,,low,28,0,28,0,1,,,,,,,,,
297640,2022-11-29_15h10.46.181,vts_reward_expectancy_bt,2022.2.4,MacIntel,60.0024001,Chrome,1440,900,,,,,10,1322,,,,,,,,,,,,,,,,,H,174,circle,1,0,,,,,,,,,,,,,,,,repeat,letter,lettRpt,d,0.498,Hi,,,,,,5,,,,,,,,low,29,0,29,0,1,,,,,,,,,
297640,2022-11-29_15h10.46.181,vts_reward_expectancy_bt,2022.2.4,MacIntel,60.0024001,Chrome,1440,900,,,,,1,1323,,,,,,,,,,,,,,,,,U,139,star,1,0,,,,,,,,,,,,,,,,switch,number,numSwt,j,0.4652,Hi,,,,,,5,,,,,,,,low,30,0,30,0,1,,,,,,,,,
297640,2022-11-29_15h10.46.181,vts_reward_expectancy_bt,2022.2.4,MacIntel,60.0024001,Chrome,1440,900,,,,,1,1324,,,,,,,,,,,,,,,,,D,125,triangle,1,0,,,,,,,,,,,,,,,,repeat,number,numRpt,j,0.5997,Lo,,,,,,5,,,,,,,,low,31,0,31,0,1,,,,,,,,,
297640,2022-11-29_15h10.46.181,vts_reward_expectancy_bt,2022.2.4,MacIntel,60.0024001,Chrome,1440,900,,,,,1,1325,,,,,,,,,,,,,,,,,W,181,triangle,1,0,,,,,,,,,,,,,,,,repeat,number,numRpt,k,0.7986,Lo,,,,,,6,,,,,,space,1.3498,low,0,0,0,0,1,,,,,,,,,
297640,2022-11-29_15h10.46.181,vts_reward_expectancy_bt,2022.2.4,MacIntel,60.0024001,Chrome,1440,900,,,,,1,1326,,,,,,,,,,,,,,,,,H,132,hexagon,1,0,,,,,,,,,,,,,,,,repeat,number,numRpt,j,0.4479,Lo,,,,,,6,,,,,,,,low,1,0,1,0,1,,,,,,,,,
297640,2022-11-29_15h10.46.181,vts_reward_expectancy_bt,2022.2.4,MacIntel,60.0024001,Chrome,1440,900,,,,,1,1327,,,,,,,,,,,,,,,,,F,160,circle,1,0,,,,,,,,,,,,,,,,repeat,number,numRpt,k,0.4413,Hi,,,,,,6,,,,,,,,low,2,0,2,0,1,,,,,,,,,
297640,2022-11-29_15h10.46.181,vts_reward_expectancy_bt,2022.2.4,MacIntel,60.0024001,Chrome,1440,900,,,,,1,1328,,,,,,,,,,,,,,,,,S,174,star,1,0,,,,,,,,,,,,,,,,repeat,number,numRpt,k,0.448,Hi,,,,,,6,,,,,,,,low,3,0,3,0,1,,,,,,,,,
297640,2022-11-29_15h10.46.181,vts_reward_expectancy_bt,2022.2.4,MacIntel,60.0024001,Chrome,1440,900,,,,,10,1338,,,,,,,,,,,,,,,,,B,146,triangle,1,0,,,,,,,,,,,,,,,,repeat,number,numRpt,j,0.4472,Lo,,,,,,6,,,,,,,,low,4,0,4,0,1,,,,,,,,,
297640,2022-11-29_15h10.46.181,vts_reward_expectancy_bt,2022.2.4,MacIntel,60.0024001,Chrome,1440,900,,,,,10,1348,,,,,,,,,,,,,,,,,D,167,hexagon,1,0,,,,,,,,,,,,,,,,repeat,number,numRpt,k,0.6321,Lo,,,,,,6,,,,,,,,low,5,0,5,0,1,,,,,,,,,
297640,2022-11-29_15h10.46.181,vts_reward_expectancy_bt,2022.2.4,MacIntel,60.0024001,Chrome,1440,900,,,,,1,1349,,,,,,,,,,,,,,,,,U,125,circle,1,0,,,,,,,,,,,,,,,,repeat,number,numRpt,j,0.5642,Hi,,,,,,6,,,,,,,,low,6,0,6,0,1,,,,,,,,,
297640,2022-11-29_15h10.46.181,vts_reward_expectancy_bt,2022.2.4,MacIntel,60.0024001,Chrome,1440,900,,,,,10,1359,,,,,,,,,,,,,,,,,Y,139,star,1,0,,,,,,,,,,,,,,,,repeat,number,numRpt,j,0.449,Hi,,,,,,6,,,,,,,,low,7,0,7,0,1,,,,,,,,,
297640,2022-11-29_15h10.46.181,vts_reward_expectancy_bt,2022.2.4,MacIntel,60.0024001,Chrome,1440,900,,,,,1,1360,,,,,,,,,,,,,,,,,W,181,hexagon,1,0,,,,,,,,,,,,,,,,repeat,number,numRpt,k,0.7488,Lo,,,,,,6,,,,,,,,low,8,0,8,0,1,,,,,,,,,
297640,2022-11-29_15h10.46.181,vts_reward_expectancy_bt,2022.2.4,MacIntel,60.0024001,Chrome,1440,900,,,,,10,1370,,,,,,,,,,,,,,,,,H,132,star,1,0,,,,,,,,,,,,,,,,repeat,number,numRpt,j,0.3977,Hi,,,,,,6,,,,,,,,low,9,0,9,0,1,,,,,,,,,
297640,2022-11-29_15h10.46.181,vts_reward_expectancy_bt,2022.2.4,MacIntel,60.0024001,Chrome,1440,900,,,,,10,1380,,,,,,,,,,,,,,,,,F,160,triangle,1,0,,,,,,,,,,,,,,,,repeat,number,numRpt,k,0.5302,Lo,,,,,,6,,,,,,,,low,10,0,10,0,1,,,,,,,,,
297640,2022-11-29_15h10.46.181,vts_reward_expectancy_bt,2022.2.4,MacIntel,60.0024001,Chrome,1440,900,,,,,10,1390,,,,,,,,,,,,,,,,,S,174,circle,1,0,,,,,,,,,,,,,,,,repeat,number,numRpt,k,0.5075,Hi,,,,,,6,,,,,,,,low,11,0,11,0,1,,,,,,,,,
297640,2022-11-29_15h10.46.181,vts_reward_expectancy_bt,2022.2.4,MacIntel,60.0024001,Chrome,1440,900,,,,,0,1390,,,,,,,,,,,,,,,,,B,146,circle,0,0,,,,,,,,,,,,,,,,repeat,number,NA,k,0.658,Hi,,,,,,6,,,,,,,,low,12,0,12,0,1,,,,,,,,,
