participant,date,expName,psychopyVersion,OS,frameRate,browser,xResolution,yResolution,key_resp.keys,key_resp.rt,training_resp.keys,training_resp.rt,points_trial,points_cumul,trainBlock,training.thisRepN,training.thisTrialN,training.thisN,training.thisIndex,training.ran,LTriangleOpac,LCircleOpac,LHexagonOpac,LStarOpac,RTriangleOpac,RCircleOpac,RHexagonOpac,RStarOpac,LShape_ID,RShape_ID,curr_topStim,curr_bottStim,curr_shape,acc,E1,target_resp_prac1.keys,pracBlock,task1_prac_trials.thisRepN,task1_prac_trials.thisTrialN,task1_prac_trials.thisN,task1_prac_trials.thisIndex,task1_prac_trials.ran,target_resp_prac1.rt,target_resp_prac2.keys,target_resp_prac2.rt,task2_praac_trials.thisRepN,task2_praac_trials.thisTrialN,task2_praac_trials.thisN,task2_praac_trials.thisIndex,task2_praac_trials.ran,alt,task,condition,target_resp.keys,target_resp.rt,rewCond,vts_practice_trials.thisRepN,vts_practice_trials.thisTrialN,vts_practice_trials.thisN,vts_practice_trials.thisIndex,vts_practice_trials.ran,blockNum,trials_norew.thisRepN,trials_norew.thisTrialN,trials_norew.thisN,trials_norew.thisIndex,trials_norew.ran,key_resp_2.keys,key_resp_2.rt,rewExpectancy,trials_rew.thisRepN,trials_rew.thisTrialN,trials_rew.thisN,trials_rew.thisIndex,trials_rew.ran,Q1,Q2,Q2_text,Q3,Q4,Q5_text,Q5,xRes,yRes
297715,2022-11-29_19h28.12.287,vts_reward_expectancy_bt,2022.2.4,MacIntel,60.0024001,Chrome,1440,900,,,,,,,,,,,,,,,,,,,,,,,,,,,,,,,,,,,,,,,,,,,,,,,,,,,,,,,,,,,,,,,,,,,,,,,,,,,,
297715,2022-11-29_19h28.12.287,vts_reward_expectancy_bt,2022.2.4,MacIntel,60.0024001,Chrome,1440,900,space,138.4749,,,,,,,,,,,,,,,,,,,,,,,,,,,,,,,,,,,,,,,,,,,,,,,,,,,,,,,,,,,,,,,,,,,,,,,,,,
297715,2022-11-29_19h28.12.287,vts_reward_expectancy_bt,2022.2.4,MacIntel,60.0024001,Chrome,1440,900,,,,,,,,,,,,,,,,,,,,,,,,,,,,,,,,,,,,,,,,,,,,,,,,,,,,,,,,,,,,,,,,,,,,,,,,,,,,
297715,2022-11-29_19h28.12.287,vts_reward_expectancy_bt,2022.2.4,MacIntel,60.0024001,Chrome,1440,900,,,a,1.9601,1,1,0,0,0,0,1,1,1,0,0,0,0,0,1,0,triangle,hexagon,,,,,,,,,,,,,,,,,,,,,,,,,,,,,,,,,,,,,,,,,,,,,,,,,,,,,,
297715,2022-11-29_19h28.12.287,vts_reward_expectancy_bt,2022.2.4,MacIntel,60.0024001,Chrome,1440,900,,,a,1.7815,1,2,0,0,1,1,9,1,0,0,0,1,1,0,0,0,star,triangle,,,,,,,,,,,,,,,,,,,,,,,,,,,,,,,,,,,,,,,,,,,,,,,,,,,,,,
297715,2022-11-29_19h28.12.287,vts_reward_expectancy_bt,2022.2.4,MacIntel,60.0024001,Chrome,1440,900,,,a,3.615,1,3,0,0,2,2,8,1,0,0,1,0,0,0,0,1,hexagon,star,,,,,,,,,,,,,,,,,,,,,,,,,,,,,,,,,,,,,,,,,,,,,,,,,,,,,,
297715,2022-11-29_19h28.12.287,vts_reward_expectancy_bt,2022.2.4,MacIntel,60.0024001,Chrome,1440,900,,,a,1.3643,1,4,0,0,3,3,5,1,0,1,0,0,0,0,0,1,circle,star,,,,,,,,,,,,,,,,,,,,,,,,,,,,,,,,,,,,,,,,,,,,,,,,,,,,,,
297715,2022-11-29_19h28.12.287,vts_reward_expectancy_bt,2022.2.4,MacIntel,60.0024001,Chrome,1440,900,,,l,2.473,10,14,0,0,4,4,0,1,1,0,0,0,0,1,0,0,triangle,circle,,,,,,,,,,,,,,,,,,,,,,,,,,,,,,,,,,,,,,,,,,,,,,,,,,,,,,
297715,2022-11-29_19h28.12.287,vts_reward_expectancy_bt,2022.2.4,MacIntel,60.0024001,Chrome,1440,900,,,l,2.7382,10,24,0,0,5,5,7,1,0,0,1,0,0,1,0,0,hexagon,circle,,,,,,,,,,,,,,,,,,,,,,,,,,,,,,,,,,,,,,,,,,,,,,,,,,,,,,
297715,2022-11-29_19h28.12.287,vts_reward_expectancy_bt,2022.2.4,MacIntel,60.0024001,Chrome,1440,900,,,a,1.1674,10,34,0,0,6,6,10,1,0,0,0,1,0,1,0,0,star ,circle,,,,,,,,,,,,,,,,,,,,,,,,,,,,,,,,,,,,,,,,,,,,,,,,,,,,,,
297715,2022-11-29_19h28.12.287,vts_reward_expectancy_bt,2022.2.4,MacIntel,60.0024001,Chrome,1440,900,,,l,3.6732,10,44,0,0,7,7,11,1,0,0,0,1,0,0,1,0,star,hexagon,,,,,,,,,,,,,,,,,,,,,,,,,,,,,,,,,,,,,,,,,,,,,,,,,,,,,,
297715,2022-11-29_19h28.12.287,vts_reward_expectancy_bt,2022.2.4,MacIntel,60.0024001,Chrome,1440,900,,,l,1.6245,1,45,0,0,8,8,3,1,0,1,0,0,1,0,0,0,circle,triangle,,,,,,,,,,,,,,,,,,,,,,,,,,,,,,,,,,,,,,,,,,,,,,,,,,,,,,
297715,2022-11-29_19h28.12.287,vts_reward_expectancy_bt,2022.2.4,MacIntel,60.0024001,Chrome,1440,900,,,l,2.5371,1,46,0,0,9,9,6,1,0,0,1,0,1,0,0,0,hexagon,triangle,,,,,,,,,,,,,,,,,,,,,,,,,,,,,,,,,,,,,,,,,,,,,,,,,,,,,,
297715,2022-11-29_19h28.12.287,vts_reward_expectancy_bt,2022.2.4,MacIntel,60.0024001,Chrome,1440,900,,,a,2.3888,1,47,0,0,10,10,2,1,1,0,0,0,0,0,0,1,triangle,star,,,,,,,,,,,,,,,,,,,,,,,,,,,,,,,,,,,,,,,,,,,,,,,,,,,,,,
297715,2022-11-29_19h28.12.287,vts_reward_expectancy_bt,2022.2.4,MacIntel,60.0024001,Chrome,1440,900,,,a,1.0836,1,48,0,0,11,11,4,1,0,1,0,0,0,0,1,0,circle,hexagon,,,,,,,,,,,,,,,,,,,,,,,,,,,,,,,,,,,,,,,,,,,,,,,,,,,,,,
297715,2022-11-29_19h28.12.287,vts_reward_expectancy_bt,2022.2.4,MacIntel,60.0024001,Chrome,1440,900,,,l,4.5567,10,58,0,1,0,12,1,1,1,0,0,0,0,0,1,0,triangle,hexagon,,,,,,,,,,,,,,,,,,,,,,,,,,,,,,,,,,,,,,,,,,,,,,,,,,,,,,
297715,2022-11-29_19h28.12.287,vts_reward_expectancy_bt,2022.2.4,MacIntel,60.0024001,Chrome,1440,900,,,l,1.717,10,68,0,1,1,13,11,1,0,0,0,1,0,0,1,0,star,hexagon,,,,,,,,,,,,,,,,,,,,,,,,,,,,,,,,,,,,,,,,,,,,,,,,,,,,,,
297715,2022-11-29_19h28.12.287,vts_reward_expectancy_bt,2022.2.4,MacIntel,60.0024001,Chrome,1440,900,,,l,2.4005,10,78,0,1,2,14,4,1,0,1,0,0,0,0,1,0,circle,hexagon,,,,,,,,,,,,,,,,,,,,,,,,,,,,,,,,,,,,,,,,,,,,,,,,,,,,,,
297715,2022-11-29_19h28.12.287,vts_reward_expectancy_bt,2022.2.4,MacIntel,60.0024001,Chrome,1440,900,,,a,3.5687,10,88,0,1,3,15,5,1,0,1,0,0,0,0,0,1,circle,star,,,,,,,,,,,,,,,,,,,,,,,,,,,,,,,,,,,,,,,,,,,,,,,,,,,,,,
297715,2022-11-29_19h28.12.287,vts_reward_expectancy_bt,2022.2.4,MacIntel,60.0024001,Chrome,1440,900,,,a,5.7176,10,98,0,1,4,16,6,1,0,0,1,0,1,0,0,0,hexagon,triangle,,,,,,,,,,,,,,,,,,,,,,,,,,,,,,,,,,,,,,,,,,,,,,,,,,,,,,
297715,2022-11-29_19h28.12.287,vts_reward_expectancy_bt,2022.2.4,MacIntel,60.0024001,Chrome,1440,900,,,a,1.0058,1,99,0,1,5,17,9,1,0,0,0,1,1,0,0,0,star,triangle,,,,,,,,,,,,,,,,,,,,,,,,,,,,,,,,,,,,,,,,,,,,,,,,,,,,,,
297715,2022-11-29_19h28.12.287,vts_reward_expectancy_bt,2022.2.4,MacIntel,60.0024001,Chrome,1440,900,,,a,3.6008,10,109,0,1,6,18,8,1,0,0,1,0,0,0,0,1,hexagon,star,,,,,,,,,,,,,,,,,,,,,,,,,,,,,,,,,,,,,,,,,,,,,,,,,,,,,,
297715,2022-11-29_19h28.12.287,vts_reward_expectancy_bt,2022.2.4,MacIntel,60.0024001,Chrome,1440,900,,,a,2.5676,10,119,0,1,7,19,3,1,0,1,0,0,1,0,0,0,circle,triangle,,,,,,,,,,,,,,,,,,,,,,,,,,,,,,,,,,,,,,,,,,,,,,,,,,,,,,
297715,2022-11-29_19h28.12.287,vts_reward_expectancy_bt,2022.2.4,MacIntel,60.0024001,Chrome,1440,900,,,l,2.4167,10,129,0,1,8,20,0,1,1,0,0,0,0,1,0,0,triangle,circle,,,,,,,,,,,,,,,,,,,,,,,,,,,,,,,,,,,,,,,,,,,,,,,,,,,,,,
297715,2022-11-29_19h28.12.287,vts_reward_expectancy_bt,2022.2.4,MacIntel,60.0024001,Chrome,1440,900,,,l,2.0206,1,130,0,1,9,21,2,1,1,0,0,0,0,0,0,1,triangle,star,,,,,,,,,,,,,,,,,,,,,,,,,,,,,,,,,,,,,,,,,,,,,,,,,,,,,,
297715,2022-11-29_19h28.12.287,vts_reward_expectancy_bt,2022.2.4,MacIntel,60.0024001,Chrome,1440,900,,,l,3.6671,1,131,0,1,10,22,10,1,0,0,0,1,0,1,0,0,star ,circle,,,,,,,,,,,,,,,,,,,,,,,,,,,,,,,,,,,,,,,,,,,,,,,,,,,,,,
297715,2022-11-29_19h28.12.287,vts_reward_expectancy_bt,2022.2.4,MacIntel,60.0024001,Chrome,1440,900,,,a,1.9874,10,141,0,1,11,23,7,1,0,0,1,0,0,1,0,0,hexagon,circle,,,,,,,,,,,,,,,,,,,,,,,,,,,,,,,,,,,,,,,,,,,,,,,,,,,,,,
297715,2022-11-29_19h28.12.287,vts_reward_expectancy_bt,2022.2.4,MacIntel,60.0024001,Chrome,1440,900,,,a,1.5186,10,151,0,2,0,24,3,1,0,1,0,0,1,0,0,0,circle,triangle,,,,,,,,,,,,,,,,,,,,,,,,,,,,,,,,,,,,,,,,,,,,,,,,,,,,,,
297715,2022-11-29_19h28.12.287,vts_reward_expectancy_bt,2022.2.4,MacIntel,60.0024001,Chrome,1440,900,,,l,2.9675,10,161,0,2,1,25,10,1,0,0,0,1,0,1,0,0,star ,circle,,,,,,,,,,,,,,,,,,,,,,,,,,,,,,,,,,,,,,,,,,,,,,,,,,,,,,
297715,2022-11-29_19h28.12.287,vts_reward_expectancy_bt,2022.2.4,MacIntel,60.0024001,Chrome,1440,900,,,a,4.2591,10,171,0,2,2,26,4,1,0,1,0,0,0,0,1,0,circle,hexagon,,,,,,,,,,,,,,,,,,,,,,,,,,,,,,,,,,,,,,,,,,,,,,,,,,,,,,
297715,2022-11-29_19h28.12.287,vts_reward_expectancy_bt,2022.2.4,MacIntel,60.0024001,Chrome,1440,900,,,a,2.2902,1,172,0,2,3,27,11,1,0,0,0,1,0,0,1,0,star,hexagon,,,,,,,,,,,,,,,,,,,,,,,,,,,,,,,,,,,,,,,,,,,,,,,,,,,,,,
297715,2022-11-29_19h28.12.287,vts_reward_expectancy_bt,2022.2.4,MacIntel,60.0024001,Chrome,1440,900,,,l,1.5545,10,182,0,2,4,28,0,1,1,0,0,0,0,1,0,0,triangle,circle,,,,,,,,,,,,,,,,,,,,,,,,,,,,,,,,,,,,,,,,,,,,,,,,,,,,,,
297715,2022-11-29_19h28.12.287,vts_reward_expectancy_bt,2022.2.4,MacIntel,60.0024001,Chrome,1440,900,,,a,4.2258,1,183,0,2,5,29,2,1,1,0,0,0,0,0,0,1,triangle,star,,,,,,,,,,,,,,,,,,,,,,,,,,,,,,,,,,,,,,,,,,,,,,,,,,,,,,
297715,2022-11-29_19h28.12.287,vts_reward_expectancy_bt,2022.2.4,MacIntel,60.0024001,Chrome,1440,900,,,a,2.0858,10,193,0,2,6,30,8,1,0,0,1,0,0,0,0,1,hexagon,star,,,,,,,,,,,,,,,,,,,,,,,,,,,,,,,,,,,,,,,,,,,,,,,,,,,,,,
297715,2022-11-29_19h28.12.287,vts_reward_expectancy_bt,2022.2.4,MacIntel,60.0024001,Chrome,1440,900,,,a,0.8697,10,203,0,2,7,31,5,1,0,1,0,0,0,0,0,1,circle,star,,,,,,,,,,,,,,,,,,,,,,,,,,,,,,,,,,,,,,,,,,,,,,,,,,,,,,
297715,2022-11-29_19h28.12.287,vts_reward_expectancy_bt,2022.2.4,MacIntel,60.0024001,Chrome,1440,900,,,a,2.4033,10,213,0,2,8,32,9,1,0,0,0,1,1,0,0,0,star,triangle,,,,,,,,,,,,,,,,,,,,,,,,,,,,,,,,,,,,,,,,,,,,,,,,,,,,,,
297715,2022-11-29_19h28.12.287,vts_reward_expectancy_bt,2022.2.4,MacIntel,60.0024001,Chrome,1440,900,,,l,5.5194,10,223,0,2,9,33,7,1,0,0,1,0,0,1,0,0,hexagon,circle,,,,,,,,,,,,,,,,,,,,,,,,,,,,,,,,,,,,,,,,,,,,,,,,,,,,,,
297715,2022-11-29_19h28.12.287,vts_reward_expectancy_bt,2022.2.4,MacIntel,60.0024001,Chrome,1440,900,,,l,1.4543,10,233,0,2,10,34,1,1,1,0,0,0,0,0,1,0,triangle,hexagon,,,,,,,,,,,,,,,,,,,,,,,,,,,,,,,,,,,,,,,,,,,,,,,,,,,,,,
297715,2022-11-29_19h28.12.287,vts_reward_expectancy_bt,2022.2.4,MacIntel,60.0024001,Chrome,1440,900,,,a,2.8845,10,243,0,2,11,35,6,1,0,0,1,0,1,0,0,0,hexagon,triangle,,,,,,,,,,,,,,,,,,,,,,,,,,,,,,,,,,,,,,,,,,,,,,,,,,,,,,
297715,2022-11-29_19h28.12.287,vts_reward_expectancy_bt,2022.2.4,MacIntel,60.0024001,Chrome,1440,900,,,l,5.5494,10,253,1,0,0,0,11,1,0,0,0,1,0,0,1,0,star,hexagon,,,,,,,,,,,,,,,,,,,,,,,,,,,,,,,,,,,,,,,,,,,,,,,,,,,,,,
297715,2022-11-29_19h28.12.287,vts_reward_expectancy_bt,2022.2.4,MacIntel,60.0024001,Chrome,1440,900,,,l,7.0999,1,254,1,0,1,1,2,1,1,0,0,0,0,0,0,1,triangle,star,,,,,,,,,,,,,,,,,,,,,,,,,,,,,,,,,,,,,,,,,,,,,,,,,,,,,,
297715,2022-11-29_19h28.12.287,vts_reward_expectancy_bt,2022.2.4,MacIntel,60.0024001,Chrome,1440,900,,,l,4.2341,10,264,1,0,2,2,1,1,1,0,0,0,0,0,1,0,triangle,hexagon,,,,,,,,,,,,,,,,,,,,,,,,,,,,,,,,,,,,,,,,,,,,,,,,,,,,,,
297715,2022-11-29_19h28.12.287,vts_reward_expectancy_bt,2022.2.4,MacIntel,60.0024001,Chrome,1440,900,,,l,2.6499,10,274,1,0,3,3,10,1,0,0,0,1,0,1,0,0,star ,circle,,,,,,,,,,,,,,,,,,,,,,,,,,,,,,,,,,,,,,,,,,,,,,,,,,,,,,
297715,2022-11-29_19h28.12.287,vts_reward_expectancy_bt,2022.2.4,MacIntel,60.0024001,Chrome,1440,900,,,l,1.2356,10,284,1,0,4,4,0,1,1,0,0,0,0,1,0,0,triangle,circle,,,,,,,,,,,,,,,,,,,,,,,,,,,,,,,,,,,,,,,,,,,,,,,,,,,,,,
297715,2022-11-29_19h28.12.287,vts_reward_expectancy_bt,2022.2.4,MacIntel,60.0024001,Chrome,1440,900,,,a,1.7164,1,285,1,0,5,5,4,1,0,1,0,0,0,0,1,0,circle,hexagon,,,,,,,,,,,,,,,,,,,,,,,,,,,,,,,,,,,,,,,,,,,,,,,,,,,,,,
297715,2022-11-29_19h28.12.287,vts_reward_expectancy_bt,2022.2.4,MacIntel,60.0024001,Chrome,1440,900,,,l,1.1185,10,295,1,0,6,6,7,1,0,0,1,0,0,1,0,0,hexagon,circle,,,,,,,,,,,,,,,,,,,,,,,,,,,,,,,,,,,,,,,,,,,,,,,,,,,,,,
297715,2022-11-29_19h28.12.287,vts_reward_expectancy_bt,2022.2.4,MacIntel,60.0024001,Chrome,1440,900,,,a,1.4417,10,305,1,0,7,7,3,1,0,1,0,0,1,0,0,0,circle,triangle,,,,,,,,,,,,,,,,,,,,,,,,,,,,,,,,,,,,,,,,,,,,,,,,,,,,,,
297715,2022-11-29_19h28.12.287,vts_reward_expectancy_bt,2022.2.4,MacIntel,60.0024001,Chrome,1440,900,,,a,2.419,10,315,1,0,8,8,8,1,0,0,1,0,0,0,0,1,hexagon,star,,,,,,,,,,,,,,,,,,,,,,,,,,,,,,,,,,,,,,,,,,,,,,,,,,,,,,
297715,2022-11-29_19h28.12.287,vts_reward_expectancy_bt,2022.2.4,MacIntel,60.0024001,Chrome,1440,900,,,a,1.4829,10,325,1,0,9,9,5,1,0,1,0,0,0,0,0,1,circle,star,,,,,,,,,,,,,,,,,,,,,,,,,,,,,,,,,,,,,,,,,,,,,,,,,,,,,,
297715,2022-11-29_19h28.12.287,vts_reward_expectancy_bt,2022.2.4,MacIntel,60.0024001,Chrome,1440,900,,,a,4.7371,10,335,1,0,10,10,6,1,0,0,1,0,1,0,0,0,hexagon,triangle,,,,,,,,,,,,,,,,,,,,,,,,,,,,,,,,,,,,,,,,,,,,,,,,,,,,,,
297715,2022-11-29_19h28.12.287,vts_reward_expectancy_bt,2022.2.4,MacIntel,60.0024001,Chrome,1440,900,,,a,2.2836,1,336,1,0,11,11,9,1,0,0,0,1,1,0,0,0,star,triangle,,,,,,,,,,,,,,,,,,,,,,,,,,,,,,,,,,,,,,,,,,,,,,,,,,,,,,
297715,2022-11-29_19h28.12.287,vts_reward_expectancy_bt,2022.2.4,MacIntel,60.0024001,Chrome,1440,900,,,a,4.039,10,346,1,1,0,12,3,1,0,1,0,0,1,0,0,0,circle,triangle,,,,,,,,,,,,,,,,,,,,,,,,,,,,,,,,,,,,,,,,,,,,,,,,,,,,,,
297715,2022-11-29_19h28.12.287,vts_reward_expectancy_bt,2022.2.4,MacIntel,60.0024001,Chrome,1440,900,,,l,1.5364,1,347,1,1,1,13,1,1,1,0,0,0,0,0,1,0,triangle,hexagon,,,,,,,,,,,,,,,,,,,,,,,,,,,,,,,,,,,,,,,,,,,,,,,,,,,,,,
297715,2022-11-29_19h28.12.287,vts_reward_expectancy_bt,2022.2.4,MacIntel,60.0024001,Chrome,1440,900,,,a,1.5679,1,348,1,1,2,14,8,1,0,0,1,0,0,0,0,1,hexagon,star,,,,,,,,,,,,,,,,,,,,,,,,,,,,,,,,,,,,,,,,,,,,,,,,,,,,,,
297715,2022-11-29_19h28.12.287,vts_reward_expectancy_bt,2022.2.4,MacIntel,60.0024001,Chrome,1440,900,,,a,1.0992,10,358,1,1,3,15,5,1,0,1,0,0,0,0,0,1,circle,star,,,,,,,,,,,,,,,,,,,,,,,,,,,,,,,,,,,,,,,,,,,,,,,,,,,,,,
297715,2022-11-29_19h28.12.287,vts_reward_expectancy_bt,2022.2.4,MacIntel,60.0024001,Chrome,1440,900,,,a,1.8039,10,368,1,1,4,16,0,1,1,0,0,0,0,1,0,0,triangle,circle,,,,,,,,,,,,,,,,,,,,,,,,,,,,,,,,,,,,,,,,,,,,,,,,,,,,,,
297715,2022-11-29_19h28.12.287,vts_reward_expectancy_bt,2022.2.4,MacIntel,60.0024001,Chrome,1440,900,,,l,1.5677,10,378,1,1,5,17,7,1,0,0,1,0,0,1,0,0,hexagon,circle,,,,,,,,,,,,,,,,,,,,,,,,,,,,,,,,,,,,,,,,,,,,,,,,,,,,,,
297715,2022-11-29_19h28.12.287,vts_reward_expectancy_bt,2022.2.4,MacIntel,60.0024001,Chrome,1440,900,,,a,1.4511,10,388,1,1,6,18,6,1,0,0,1,0,1,0,0,0,hexagon,triangle,,,,,,,,,,,,,,,,,,,,,,,,,,,,,,,,,,,,,,,,,,,,,,,,,,,,,,
297715,2022-11-29_19h28.12.287,vts_reward_expectancy_bt,2022.2.4,MacIntel,60.0024001,Chrome,1440,900,,,l,1.7868,10,398,1,1,7,19,11,1,0,0,0,1,0,0,1,0,star,hexagon,,,,,,,,,,,,,,,,,,,,,,,,,,,,,,,,,,,,,,,,,,,,,,,,,,,,,,
297715,2022-11-29_19h28.12.287,vts_reward_expectancy_bt,2022.2.4,MacIntel,60.0024001,Chrome,1440,900,,,a,2.0917,1,399,1,1,8,20,2,1,1,0,0,0,0,0,0,1,triangle,star,,,,,,,,,,,,,,,,,,,,,,,,,,,,,,,,,,,,,,,,,,,,,,,,,,,,,,
297715,2022-11-29_19h28.12.287,vts_reward_expectancy_bt,2022.2.4,MacIntel,60.0024001,Chrome,1440,900,,,l,1.0869,10,409,1,1,9,21,10,1,0,0,0,1,0,1,0,0,star ,circle,,,,,,,,,,,,,,,,,,,,,,,,,,,,,,,,,,,,,,,,,,,,,,,,,,,,,,
297715,2022-11-29_19h28.12.287,vts_reward_expectancy_bt,2022.2.4,MacIntel,60.0024001,Chrome,1440,900,,,l,4.851,1,410,1,1,10,22,9,1,0,0,0,1,1,0,0,0,star,triangle,,,,,,,,,,,,,,,,,,,,,,,,,,,,,,,,,,,,,,,,,,,,,,,,,,,,,,
297715,2022-11-29_19h28.12.287,vts_reward_expectancy_bt,2022.2.4,MacIntel,60.0024001,Chrome,1440,900,,,a,2.0664,10,420,1,1,11,23,4,1,0,1,0,0,0,0,1,0,circle,hexagon,,,,,,,,,,,,,,,,,,,,,,,,,,,,,,,,,,,,,,,,,,,,,,,,,,,,,,
297715,2022-11-29_19h28.12.287,vts_reward_expectancy_bt,2022.2.4,MacIntel,60.0024001,Chrome,1440,900,,,l,1.0515,10,430,1,2,0,24,7,1,0,0,1,0,0,1,0,0,hexagon,circle,,,,,,,,,,,,,,,,,,,,,,,,,,,,,,,,,,,,,,,,,,,,,,,,,,,,,,
297715,2022-11-29_19h28.12.287,vts_reward_expectancy_bt,2022.2.4,MacIntel,60.0024001,Chrome,1440,900,,,l,2.1331,10,440,1,2,1,25,0,1,1,0,0,0,0,1,0,0,triangle,circle,,,,,,,,,,,,,,,,,,,,,,,,,,,,,,,,,,,,,,,,,,,,,,,,,,,,,,
297715,2022-11-29_19h28.12.287,vts_reward_expectancy_bt,2022.2.4,MacIntel,60.0024001,Chrome,1440,900,,,a,1.0518,10,450,1,2,2,26,4,1,0,1,0,0,0,0,1,0,circle,hexagon,,,,,,,,,,,,,,,,,,,,,,,,,,,,,,,,,,,,,,,,,,,,,,,,,,,,,,
297715,2022-11-29_19h28.12.287,vts_reward_expectancy_bt,2022.2.4,MacIntel,60.0024001,Chrome,1440,900,,,l,1.5399,10,460,1,2,3,27,1,1,1,0,0,0,0,0,1,0,triangle,hexagon,,,,,,,,,,,,,,,,,,,,,,,,,,,,,,,,,,,,,,,,,,,,,,,,,,,,,,
297715,2022-11-29_19h28.12.287,vts_reward_expectancy_bt,2022.2.4,MacIntel,60.0024001,Chrome,1440,900,,,a,1.0514,10,470,1,2,4,28,5,1,0,1,0,0,0,0,0,1,circle,star,,,,,,,,,,,,,,,,,,,,,,,,,,,,,,,,,,,,,,,,,,,,,,,,,,,,,,
297715,2022-11-29_19h28.12.287,vts_reward_expectancy_bt,2022.2.4,MacIntel,60.0024001,Chrome,1440,900,,,a,1.1205,10,480,1,2,5,29,3,1,0,1,0,0,1,0,0,0,circle,triangle,,,,,,,,,,,,,,,,,,,,,,,,,,,,,,,,,,,,,,,,,,,,,,,,,,,,,,
297715,2022-11-29_19h28.12.287,vts_reward_expectancy_bt,2022.2.4,MacIntel,60.0024001,Chrome,1440,900,,,l,1.4494,1,481,1,2,6,30,10,1,0,0,0,1,0,1,0,0,star ,circle,,,,,,,,,,,,,,,,,,,,,,,,,,,,,,,,,,,,,,,,,,,,,,,,,,,,,,
297715,2022-11-29_19h28.12.287,vts_reward_expectancy_bt,2022.2.4,MacIntel,60.0024001,Chrome,1440,900,,,l,5.4028,1,482,1,2,7,31,9,1,0,0,0,1,1,0,0,0,star,triangle,,,,,,,,,,,,,,,,,,,,,,,,,,,,,,,,,,,,,,,,,,,,,,,,,,,,,,
297715,2022-11-29_19h28.12.287,vts_reward_expectancy_bt,2022.2.4,MacIntel,60.0024001,Chrome,1440,900,,,l,2.7699,10,492,1,2,8,32,11,1,0,0,0,1,0,0,1,0,star,hexagon,,,,,,,,,,,,,,,,,,,,,,,,,,,,,,,,,,,,,,,,,,,,,,,,,,,,,,
297715,2022-11-29_19h28.12.287,vts_reward_expectancy_bt,2022.2.4,MacIntel,60.0024001,Chrome,1440,900,,,a,2.1587,10,502,1,2,9,33,8,1,0,0,1,0,0,0,0,1,hexagon,star,,,,,,,,,,,,,,,,,,,,,,,,,,,,,,,,,,,,,,,,,,,,,,,,,,,,,,
297715,2022-11-29_19h28.12.287,vts_reward_expectancy_bt,2022.2.4,MacIntel,60.0024001,Chrome,1440,900,,,a,1.3036,1,503,1,2,10,34,6,1,0,0,1,0,1,0,0,0,hexagon,triangle,,,,,,,,,,,,,,,,,,,,,,,,,,,,,,,,,,,,,,,,,,,,,,,,,,,,,,
297715,2022-11-29_19h28.12.287,vts_reward_expectancy_bt,2022.2.4,MacIntel,60.0024001,Chrome,1440,900,,,l,4.6834,10,513,1,2,11,35,2,1,1,0,0,0,0,0,0,1,triangle,star,,,,,,,,,,,,,,,,,,,,,,,,,,,,,,,,,,,,,,,,,,,,,,,,,,,,,,
297715,2022-11-29_19h28.12.287,vts_reward_expectancy_bt,2022.2.4,MacIntel,60.0024001,Chrome,1440,900,,,a,2.0444,10,523,2,0,0,0,6,1,0,0,1,0,1,0,0,0,hexagon,triangle,,,,,,,,,,,,,,,,,,,,,,,,,,,,,,,,,,,,,,,,,,,,,,,,,,,,,,
297715,2022-11-29_19h28.12.287,vts_reward_expectancy_bt,2022.2.4,MacIntel,60.0024001,Chrome,1440,900,,,a,1.3529,10,533,2,0,1,1,5,1,0,1,0,0,0,0,0,1,circle,star,,,,,,,,,,,,,,,,,,,,,,,,,,,,,,,,,,,,,,,,,,,,,,,,,,,,,,
297715,2022-11-29_19h28.12.287,vts_reward_expectancy_bt,2022.2.4,MacIntel,60.0024001,Chrome,1440,900,,,l,1.3996,10,543,2,0,2,2,10,1,0,0,0,1,0,1,0,0,star ,circle,,,,,,,,,,,,,,,,,,,,,,,,,,,,,,,,,,,,,,,,,,,,,,,,,,,,,,
297715,2022-11-29_19h28.12.287,vts_reward_expectancy_bt,2022.2.4,MacIntel,60.0024001,Chrome,1440,900,,,l,1.5356,10,553,2,0,3,3,1,1,1,0,0,0,0,0,1,0,triangle,hexagon,,,,,,,,,,,,,,,,,,,,,,,,,,,,,,,,,,,,,,,,,,,,,,,,,,,,,,
297715,2022-11-29_19h28.12.287,vts_reward_expectancy_bt,2022.2.4,MacIntel,60.0024001,Chrome,1440,900,,,l,1.4519,10,563,2,0,4,4,11,1,0,0,0,1,0,0,1,0,star,hexagon,,,,,,,,,,,,,,,,,,,,,,,,,,,,,,,,,,,,,,,,,,,,,,,,,,,,,,
297715,2022-11-29_19h28.12.287,vts_reward_expectancy_bt,2022.2.4,MacIntel,60.0024001,Chrome,1440,900,,,a,3.469,10,573,2,0,5,5,9,1,0,0,0,1,1,0,0,0,star,triangle,,,,,,,,,,,,,,,,,,,,,,,,,,,,,,,,,,,,,,,,,,,,,,,,,,,,,,
297715,2022-11-29_19h28.12.287,vts_reward_expectancy_bt,2022.2.4,MacIntel,60.0024001,Chrome,1440,900,,,l,1.209,10,583,2,0,6,6,0,1,1,0,0,0,0,1,0,0,triangle,circle,,,,,,,,,,,,,,,,,,,,,,,,,,,,,,,,,,,,,,,,,,,,,,,,,,,,,,
297715,2022-11-29_19h28.12.287,vts_reward_expectancy_bt,2022.2.4,MacIntel,60.0024001,Chrome,1440,900,,,l,1.7172,1,584,2,0,7,7,7,1,0,0,1,0,0,1,0,0,hexagon,circle,,,,,,,,,,,,,,,,,,,,,,,,,,,,,,,,,,,,,,,,,,,,,,,,,,,,,,
297715,2022-11-29_19h28.12.287,vts_reward_expectancy_bt,2022.2.4,MacIntel,60.0024001,Chrome,1440,900,,,a,0.6543,10,594,2,0,8,8,3,1,0,1,0,0,1,0,0,0,circle,triangle,,,,,,,,,,,,,,,,,,,,,,,,,,,,,,,,,,,,,,,,,,,,,,,,,,,,,,
297715,2022-11-29_19h28.12.287,vts_reward_expectancy_bt,2022.2.4,MacIntel,60.0024001,Chrome,1440,900,,,l,1.901,1,595,2,0,9,9,2,1,1,0,0,0,0,0,0,1,triangle,star,,,,,,,,,,,,,,,,,,,,,,,,,,,,,,,,,,,,,,,,,,,,,,,,,,,,,,
297715,2022-11-29_19h28.12.287,vts_reward_expectancy_bt,2022.2.4,MacIntel,60.0024001,Chrome,1440,900,,,a,2.1266,10,605,2,0,10,10,4,1,0,1,0,0,0,0,1,0,circle,hexagon,,,,,,,,,,,,,,,,,,,,,,,,,,,,,,,,,,,,,,,,,,,,,,,,,,,,,,
297715,2022-11-29_19h28.12.287,vts_reward_expectancy_bt,2022.2.4,MacIntel,60.0024001,Chrome,1440,900,,,a,1.651,10,615,2,0,11,11,8,1,0,0,1,0,0,0,0,1,hexagon,star,,,,,,,,,,,,,,,,,,,,,,,,,,,,,,,,,,,,,,,,,,,,,,,,,,,,,,
297715,2022-11-29_19h28.12.287,vts_reward_expectancy_bt,2022.2.4,MacIntel,60.0024001,Chrome,1440,900,,,a,1.0531,1,616,2,1,0,12,4,1,0,1,0,0,0,0,1,0,circle,hexagon,,,,,,,,,,,,,,,,,,,,,,,,,,,,,,,,,,,,,,,,,,,,,,,,,,,,,,
297715,2022-11-29_19h28.12.287,vts_reward_expectancy_bt,2022.2.4,MacIntel,60.0024001,Chrome,1440,900,,,l,1.4529,10,626,2,1,1,13,10,1,0,0,0,1,0,1,0,0,star ,circle,,,,,,,,,,,,,,,,,,,,,,,,,,,,,,,,,,,,,,,,,,,,,,,,,,,,,,
297715,2022-11-29_19h28.12.287,vts_reward_expectancy_bt,2022.2.4,MacIntel,60.0024001,Chrome,1440,900,,,a,3.4086,10,636,2,1,2,14,6,1,0,0,1,0,1,0,0,0,hexagon,triangle,,,,,,,,,,,,,,,,,,,,,,,,,,,,,,,,,,,,,,,,,,,,,,,,,,,,,,
297715,2022-11-29_19h28.12.287,vts_reward_expectancy_bt,2022.2.4,MacIntel,60.0024001,Chrome,1440,900,,,a,1.7551,10,646,2,1,3,15,5,1,0,1,0,0,0,0,0,1,circle,star,,,,,,,,,,,,,,,,,,,,,,,,,,,,,,,,,,,,,,,,,,,,,,,,,,,,,,
297715,2022-11-29_19h28.12.287,vts_reward_expectancy_bt,2022.2.4,MacIntel,60.0024001,Chrome,1440,900,,,l,1.7862,10,656,2,1,4,16,1,1,1,0,0,0,0,0,1,0,triangle,hexagon,,,,,,,,,,,,,,,,,,,,,,,,,,,,,,,,,,,,,,,,,,,,,,,,,,,,,,
297715,2022-11-29_19h28.12.287,vts_reward_expectancy_bt,2022.2.4,MacIntel,60.0024001,Chrome,1440,900,,,l,1.9227,1,657,2,1,5,17,2,1,1,0,0,0,0,0,0,1,triangle,star,,,,,,,,,,,,,,,,,,,,,,,,,,,,,,,,,,,,,,,,,,,,,,,,,,,,,,
297715,2022-11-29_19h28.12.287,vts_reward_expectancy_bt,2022.2.4,MacIntel,60.0024001,Chrome,1440,900,,,a,1.2357,10,667,2,1,6,18,8,1,0,0,1,0,0,0,0,1,hexagon,star,,,,,,,,,,,,,,,,,,,,,,,,,,,,,,,,,,,,,,,,,,,,,,,,,,,,,,
297715,2022-11-29_19h28.12.287,vts_reward_expectancy_bt,2022.2.4,MacIntel,60.0024001,Chrome,1440,900,,,l,0.8854,10,677,2,1,7,19,11,1,0,0,0,1,0,0,1,0,star,hexagon,,,,,,,,,,,,,,,,,,,,,,,,,,,,,,,,,,,,,,,,,,,,,,,,,,,,,,
297715,2022-11-29_19h28.12.287,vts_reward_expectancy_bt,2022.2.4,MacIntel,60.0024001,Chrome,1440,900,,,a,1.9564,10,687,2,1,8,20,9,1,0,0,0,1,1,0,0,0,star,triangle,,,,,,,,,,,,,,,,,,,,,,,,,,,,,,,,,,,,,,,,,,,,,,,,,,,,,,
297715,2022-11-29_19h28.12.287,vts_reward_expectancy_bt,2022.2.4,MacIntel,60.0024001,Chrome,1440,900,,,a,8.6256,10,697,2,1,9,21,3,1,0,1,0,0,1,0,0,0,circle,triangle,,,,,,,,,,,,,,,,,,,,,,,,,,,,,,,,,,,,,,,,,,,,,,,,,,,,,,
297715,2022-11-29_19h28.12.287,vts_reward_expectancy_bt,2022.2.4,MacIntel,60.0024001,Chrome,1440,900,,,l,2.0009,1,698,2,1,10,22,7,1,0,0,1,0,0,1,0,0,hexagon,circle,,,,,,,,,,,,,,,,,,,,,,,,,,,,,,,,,,,,,,,,,,,,,,,,,,,,,,
297715,2022-11-29_19h28.12.287,vts_reward_expectancy_bt,2022.2.4,MacIntel,60.0024001,Chrome,1440,900,,,l,1.6554,10,708,2,1,11,23,0,1,1,0,0,0,0,1,0,0,triangle,circle,,,,,,,,,,,,,,,,,,,,,,,,,,,,,,,,,,,,,,,,,,,,,,,,,,,,,,
297715,2022-11-29_19h28.12.287,vts_reward_expectancy_bt,2022.2.4,MacIntel,60.0024001,Chrome,1440,900,,,a,1.6676,10,718,2,2,0,24,3,1,0,1,0,0,1,0,0,0,circle,triangle,,,,,,,,,,,,,,,,,,,,,,,,,,,,,,,,,,,,,,,,,,,,,,,,,,,,,,
297715,2022-11-29_19h28.12.287,vts_reward_expectancy_bt,2022.2.4,MacIntel,60.0024001,Chrome,1440,900,,,l,1.0861,10,728,2,2,1,25,7,1,0,0,1,0,0,1,0,0,hexagon,circle,,,,,,,,,,,,,,,,,,,,,,,,,,,,,,,,,,,,,,,,,,,,,,,,,,,,,,
297715,2022-11-29_19h28.12.287,vts_reward_expectancy_bt,2022.2.4,MacIntel,60.0024001,Chrome,1440,900,,,l,1.586,10,738,2,2,2,26,0,1,1,0,0,0,0,1,0,0,triangle,circle,,,,,,,,,,,,,,,,,,,,,,,,,,,,,,,,,,,,,,,,,,,,,,,,,,,,,,
297715,2022-11-29_19h28.12.287,vts_reward_expectancy_bt,2022.2.4,MacIntel,60.0024001,Chrome,1440,900,,,l,2.8185,10,748,2,2,3,27,11,1,0,0,0,1,0,0,1,0,star,hexagon,,,,,,,,,,,,,,,,,,,,,,,,,,,,,,,,,,,,,,,,,,,,,,,,,,,,,,
297715,2022-11-29_19h28.12.287,vts_reward_expectancy_bt,2022.2.4,MacIntel,60.0024001,Chrome,1440,900,,,a,0.7682,1,749,2,2,4,28,5,1,0,1,0,0,0,0,0,1,circle,star,,,,,,,,,,,,,,,,,,,,,,,,,,,,,,,,,,,,,,,,,,,,,,,,,,,,,,
297715,2022-11-29_19h28.12.287,vts_reward_expectancy_bt,2022.2.4,MacIntel,60.0024001,Chrome,1440,900,,,a,2.2164,10,759,2,2,5,29,4,1,0,1,0,0,0,0,1,0,circle,hexagon,,,,,,,,,,,,,,,,,,,,,,,,,,,,,,,,,,,,,,,,,,,,,,,,,,,,,,
297715,2022-11-29_19h28.12.287,vts_reward_expectancy_bt,2022.2.4,MacIntel,60.0024001,Chrome,1440,900,,,l,2.9027,1,760,2,2,6,30,1,1,1,0,0,0,0,0,1,0,triangle,hexagon,,,,,,,,,,,,,,,,,,,,,,,,,,,,,,,,,,,,,,,,,,,,,,,,,,,,,,
297715,2022-11-29_19h28.12.287,vts_reward_expectancy_bt,2022.2.4,MacIntel,60.0024001,Chrome,1440,900,,,l,0.969,10,770,2,2,7,31,10,1,0,0,0,1,0,1,0,0,star ,circle,,,,,,,,,,,,,,,,,,,,,,,,,,,,,,,,,,,,,,,,,,,,,,,,,,,,,,
297715,2022-11-29_19h28.12.287,vts_reward_expectancy_bt,2022.2.4,MacIntel,60.0024001,Chrome,1440,900,,,a,1.4851,10,780,2,2,8,32,6,1,0,0,1,0,1,0,0,0,hexagon,triangle,,,,,,,,,,,,,,,,,,,,,,,,,,,,,,,,,,,,,,,,,,,,,,,,,,,,,,
297715,2022-11-29_19h28.12.287,vts_reward_expectancy_bt,2022.2.4,MacIntel,60.0024001,Chrome,1440,900,,,a,3.1588,10,790,2,2,9,33,8,1,0,0,1,0,0,0,0,1,hexagon,star,,,,,,,,,,,,,,,,,,,,,,,,,,,,,,,,,,,,,,,,,,,,,,,,,,,,,,
297715,2022-11-29_19h28.12.287,vts_reward_expectancy_bt,2022.2.4,MacIntel,60.0024001,Chrome,1440,900,,,a,3.4365,1,791,2,2,10,34,9,1,0,0,0,1,1,0,0,0,star,triangle,,,,,,,,,,,,,,,,,,,,,,,,,,,,,,,,,,,,,,,,,,,,,,,,,,,,,,
297715,2022-11-29_19h28.12.287,vts_reward_expectancy_bt,2022.2.4,MacIntel,60.0024001,Chrome,1440,900,,,l,3.5541,1,792,2,2,11,35,2,1,1,0,0,0,0,0,0,1,triangle,star,,,,,,,,,,,,,,,,,,,,,,,,,,,,,,,,,,,,,,,,,,,,,,,,,,,,,,
297715,2022-11-29_19h28.12.287,vts_reward_expectancy_bt,2022.2.4,MacIntel,60.0024001,Chrome,1440,900,,,,,,,,,,,,,,,,,,,,,,,W,139,triangle,0,0,,0,0,0,0,0,1,,,,,,,,,,,,,,,,,,,,,,,,,,,,,,,,,,,,,,,,,,
297715,2022-11-29_19h28.12.287,vts_reward_expectancy_bt,2022.2.4,MacIntel,60.0024001,Chrome,1440,900,,,,,,,,,,,,,,,,,,,,,,,F,125,star,0,1,f,0,1,0,1,0,1,0.8586,,,,,,,,,,,,,,,,,,,,,,,,,,,,,,,,,,,,,,,,,
297715,2022-11-29_19h28.12.287,vts_reward_expectancy_bt,2022.2.4,MacIntel,60.0024001,Chrome,1440,900,,,,,,,,,,,,,,,,,,,,,,,D,181,circle,1,1,d,0,2,0,2,0,1,0.8957,,,,,,,,,,,,,,,,,,,,,,,,,,,,,,,,,,,,,,,,,
297715,2022-11-29_19h28.12.287,vts_reward_expectancy_bt,2022.2.4,MacIntel,60.0024001,Chrome,1440,900,,,,,,,,,,,,,,,,,,,,,,,S,132,hexagon,1,0,f,0,3,0,3,0,1,1.9722,,,,,,,,,,,,,,,,,,,,,,,,,,,,,,,,,,,,,,,,,
297715,2022-11-29_19h28.12.287,vts_reward_expectancy_bt,2022.2.4,MacIntel,60.0024001,Chrome,1440,900,,,,,,,,,,,,,,,,,,,,,,,U,146,triangle,1,0,f,0,4,0,4,0,1,0.8787,,,,,,,,,,,,,,,,,,,,,,,,,,,,,,,,,,,,,,,,,
297715,2022-11-29_19h28.12.287,vts_reward_expectancy_bt,2022.2.4,MacIntel,60.0024001,Chrome,1440,900,,,,,,,,,,,,,,,,,,,,,,,H,160,star,1,0,d,0,5,0,5,0,1,0.9677,,,,,,,,,,,,,,,,,,,,,,,,,,,,,,,,,,,,,,,,,
297715,2022-11-29_19h28.12.287,vts_reward_expectancy_bt,2022.2.4,MacIntel,60.0024001,Chrome,1440,900,,,,,,,,,,,,,,,,,,,,,,,B,174,circle,1,0,d,0,6,0,6,0,1,0.7364,,,,,,,,,,,,,,,,,,,,,,,,,,,,,,,,,,,,,,,,,
297715,2022-11-29_19h28.12.287,vts_reward_expectancy_bt,2022.2.4,MacIntel,60.0024001,Chrome,1440,900,,,,,,,,,,,,,,,,,,,,,,,Y,167,hexagon,1,0,f,0,7,0,7,0,1,0.7153,,,,,,,,,,,,,,,,,,,,,,,,,,,,,,,,,,,,,,,,,
297715,2022-11-29_19h28.12.287,vts_reward_expectancy_bt,2022.2.4,MacIntel,60.0024001,Chrome,1440,900,,,,,,,,,,,,,,,,,,,,,,,W,139,circle,1,0,f,0,8,0,8,0,1,1.2472,,,,,,,,,,,,,,,,,,,,,,,,,,,,,,,,,,,,,,,,,
297715,2022-11-29_19h28.12.287,vts_reward_expectancy_bt,2022.2.4,MacIntel,60.0024001,Chrome,1440,900,,,,,,,,,,,,,,,,,,,,,,,F,125,star,1,0,d,0,9,0,9,0,1,1.1295,,,,,,,,,,,,,,,,,,,,,,,,,,,,,,,,,,,,,,,,,
297715,2022-11-29_19h28.12.287,vts_reward_expectancy_bt,2022.2.4,MacIntel,60.0024001,Chrome,1440,900,,,,,,,,,,,,,,,,,,,,,,,B,181,hexagon,1,0,d,1,0,0,0,0,1,2.5522,,,,,,,,,,,,,,,,,,,,,,,,,,,,,,,,,,,,,,,,,
297715,2022-11-29_19h28.12.287,vts_reward_expectancy_bt,2022.2.4,MacIntel,60.0024001,Chrome,1440,900,,,,,,,,,,,,,,,,,,,,,,,H,167,triangle,1,0,d,1,1,0,1,0,1,0.8229,,,,,,,,,,,,,,,,,,,,,,,,,,,,,,,,,,,,,,,,,
297715,2022-11-29_19h28.12.287,vts_reward_expectancy_bt,2022.2.4,MacIntel,60.0024001,Chrome,1440,900,,,,,,,,,,,,,,,,,,,,,,,D,125,circle,1,0,d,1,2,0,2,0,1,0.7204,,,,,,,,,,,,,,,,,,,,,,,,,,,,,,,,,,,,,,,,,
297715,2022-11-29_19h28.12.287,vts_reward_expectancy_bt,2022.2.4,MacIntel,60.0024001,Chrome,1440,900,,,,,,,,,,,,,,,,,,,,,,,U,132,star,1,0,f,1,3,0,3,0,1,0.9182,,,,,,,,,,,,,,,,,,,,,,,,,,,,,,,,,,,,,,,,,
297715,2022-11-29_19h28.12.287,vts_reward_expectancy_bt,2022.2.4,MacIntel,60.0024001,Chrome,1440,900,,,,,,,,,,,,,,,,,,,,,,,F,160,hexagon,1,0,d,1,4,0,4,0,1,0.8185,,,,,,,,,,,,,,,,,,,,,,,,,,,,,,,,,,,,,,,,,
297715,2022-11-29_19h28.12.287,vts_reward_expectancy_bt,2022.2.4,MacIntel,60.0024001,Chrome,1440,900,,,,,,,,,,,,,,,,,,,,,,,S,174,triangle,0,0,d,1,5,0,5,0,1,0.8527,,,,,,,,,,,,,,,,,,,,,,,,,,,,,,,,,,,,,,,,,
297715,2022-11-29_19h28.12.287,vts_reward_expectancy_bt,2022.2.4,MacIntel,60.0024001,Chrome,1440,900,,,,,,,,,,,,,,,,,,,,,,,Y,146,circle,1,1,f,1,6,0,6,0,1,0.7909,,,,,,,,,,,,,,,,,,,,,,,,,,,,,,,,,,,,,,,,,
297715,2022-11-29_19h28.12.287,vts_reward_expectancy_bt,2022.2.4,MacIntel,60.0024001,Chrome,1440,900,,,,,,,,,,,,,,,,,,,,,,,W,139,star,1,0,f,1,7,0,7,0,1,0.719,,,,,,,,,,,,,,,,,,,,,,,,,,,,,,,,,,,,,,,,,
297715,2022-11-29_19h28.12.287,vts_reward_expectancy_bt,2022.2.4,MacIntel,60.0024001,Chrome,1440,900,,,,,,,,,,,,,,,,,,,,,,,B,181,hexagon,1,0,d,1,8,0,8,0,1,0.8887,,,,,,,,,,,,,,,,,,,,,,,,,,,,,,,,,,,,,,,,,
297715,2022-11-29_19h28.12.287,vts_reward_expectancy_bt,2022.2.4,MacIntel,60.0024001,Chrome,1440,900,,,,,,,,,,,,,,,,,,,,,,,H,167,triangle,1,0,d,1,9,0,9,0,1,0.8195,,,,,,,,,,,,,,,,,,,,,,,,,,,,,,,,,,,,,,,,,
297715,2022-11-29_19h28.12.287,vts_reward_expectancy_bt,2022.2.4,MacIntel,60.0024001,Chrome,1440,900,,,,,,,,,,,,,,,,,,,,,,,H,132,triangle,1,0,,2,,,,,,,j,1.6532,0,0,0,0,1,,,,,,,,,,,,,,,,,,,,,,,,,,,,,,,,,,
297715,2022-11-29_19h28.12.287,vts_reward_expectancy_bt,2022.2.4,MacIntel,60.0024001,Chrome,1440,900,,,,,,,,,,,,,,,,,,,,,,,U,160,star,1,0,,2,,,,,,,k,0.8678,1,0,1,0,1,,,,,,,,,,,,,,,,,,,,,,,,,,,,,,,,,,
297715,2022-11-29_19h28.12.287,vts_reward_expectancy_bt,2022.2.4,MacIntel,60.0024001,Chrome,1440,900,,,,,,,,,,,,,,,,,,,,,,,S,125,circle,1,0,,2,,,,,,,j,0.6843,2,0,2,0,1,,,,,,,,,,,,,,,,,,,,,,,,,,,,,,,,,,
297715,2022-11-29_19h28.12.287,vts_reward_expectancy_bt,2022.2.4,MacIntel,60.0024001,Chrome,1440,900,,,,,,,,,,,,,,,,,,,,,,,F,146,hexagon,1,0,,2,,,,,,,j,1.4053,3,0,3,0,1,,,,,,,,,,,,,,,,,,,,,,,,,,,,,,,,,,
297715,2022-11-29_19h28.12.287,vts_reward_expectancy_bt,2022.2.4,MacIntel,60.0024001,Chrome,1440,900,,,,,,,,,,,,,,,,,,,,,,,D,167,triangle,1,0,,2,,,,,,,k,1.1069,4,0,4,0,1,,,,,,,,,,,,,,,,,,,,,,,,,,,,,,,,,,
297715,2022-11-29_19h28.12.287,vts_reward_expectancy_bt,2022.2.4,MacIntel,60.0024001,Chrome,1440,900,,,,,,,,,,,,,,,,,,,,,,,B,139,star,1,0,,2,,,,,,,j,0.919,5,0,5,0,1,,,,,,,,,,,,,,,,,,,,,,,,,,,,,,,,,,
297715,2022-11-29_19h28.12.287,vts_reward_expectancy_bt,2022.2.4,MacIntel,60.0024001,Chrome,1440,900,,,,,,,,,,,,,,,,,,,,,,,Y,181,circle,1,0,,2,,,,,,,k,0.8039,6,0,6,0,1,,,,,,,,,,,,,,,,,,,,,,,,,,,,,,,,,,
297715,2022-11-29_19h28.12.287,vts_reward_expectancy_bt,2022.2.4,MacIntel,60.0024001,Chrome,1440,900,,,,,,,,,,,,,,,,,,,,,,,W,174,hexagon,1,0,,2,,,,,,,k,1.0192,7,0,7,0,1,,,,,,,,,,,,,,,,,,,,,,,,,,,,,,,,,,
297715,2022-11-29_19h28.12.287,vts_reward_expectancy_bt,2022.2.4,MacIntel,60.0024001,Chrome,1440,900,,,,,,,,,,,,,,,,,,,,,,,H,132,circle,1,0,,2,,,,,,,j,1.035,8,0,8,0,1,,,,,,,,,,,,,,,,,,,,,,,,,,,,,,,,,,
297715,2022-11-29_19h28.12.287,vts_reward_expectancy_bt,2022.2.4,MacIntel,60.0024001,Chrome,1440,900,,,,,,,,,,,,,,,,,,,,,,,U,160,triangle,1,0,,2,,,,,,,k,0.9922,9,0,9,0,1,,,,,,,,,,,,,,,,,,,,,,,,,,,,,,,,,,
297715,2022-11-29_19h28.12.287,vts_reward_expectancy_bt,2022.2.4,MacIntel,60.0024001,Chrome,1440,900,,,,,0,792,,,,,,,,,,,,,,,,,U,146,hexagon,0,0,,3,,,,,,,,,,,,,,-1,letter,NA,d,2.0106,vtsPrac,0,0,0,0,1,,,,,,,,,,,,,,,,,,,,,,,
297715,2022-11-29_19h28.12.287,vts_reward_expectancy_bt,2022.2.4,MacIntel,60.0024001,Chrome,1440,900,,,,,0,792,,,,,,,,,,,,,,,,,W,160,triangle,1,1,,3,,,,,,,,,,,,,,repeat,letter,lettRpt,f,1.3366,vtsPrac,1,0,1,0,1,,,,,,,,,,,,,,,,,,,,,,,
297715,2022-11-29_19h28.12.287,vts_reward_expectancy_bt,2022.2.4,MacIntel,60.0024001,Chrome,1440,900,,,,,0,792,,,,,,,,,,,,,,,,,F,139,hexagon,1,0,,3,,,,,,,,,,,,,,switch,number,numSwt,j,1.4362,vtsPrac,2,0,2,0,1,,,,,,,,,,,,,,,,,,,,,,,
297715,2022-11-29_19h28.12.287,vts_reward_expectancy_bt,2022.2.4,MacIntel,60.0024001,Chrome,1440,900,,,,,0,792,,,,,,,,,,,,,,,,,D,125,triangle,1,0,,3,,,,,,,,,,,,,,repeat,number,numRpt,j,1.0867,vtsPrac,3,0,3,0,1,,,,,,,,,,,,,,,,,,,,,,,
297715,2022-11-29_19h28.12.287,vts_reward_expectancy_bt,2022.2.4,MacIntel,60.0024001,Chrome,1440,900,,,,,0,792,,,,,,,,,,,,,,,,,U,146,hexagon,1,0,,3,,,,,,,,,,,,,,switch,letter,lettSwt,f,1.3705,vtsPrac,4,0,4,0,1,,,,,,,,,,,,,,,,,,,,,,,
297715,2022-11-29_19h28.12.287,vts_reward_expectancy_bt,2022.2.4,MacIntel,60.0024001,Chrome,1440,900,,,,,0,792,,,,,,,,,,,,,,,,,W,160,triangle,1,0,,3,,,,,,,,,,,,,,switch,number,numSwt,k,1.2708,vtsPrac,5,0,5,0,1,,,,,,,,,,,,,,,,,,,,,,,
297715,2022-11-29_19h28.12.287,vts_reward_expectancy_bt,2022.2.4,MacIntel,60.0024001,Chrome,1440,900,,,,,0,792,,,,,,,,,,,,,,,,,F,139,hexagon,0,0,,3,,,,,,,,,,,,,,switch,letter,NA,f,1.2991,vtsPrac,6,0,6,0,1,,,,,,,,,,,,,,,,,,,,,,,
297715,2022-11-29_19h28.12.287,vts_reward_expectancy_bt,2022.2.4,MacIntel,60.0024001,Chrome,1440,900,,,,,0,792,,,,,,,,,,,,,,,,,D,125,star,1,1,,3,,,,,,,,,,,,,,switch,number,numSwt,j,0.9985,vtsPrac,7,0,7,0,1,,,,,,,,,,,,,,,,,,,,,,,
297715,2022-11-29_19h28.12.287,vts_reward_expectancy_bt,2022.2.4,MacIntel,60.0024001,Chrome,1440,900,,,,,0,792,,,,,,,,,,,,,,,,,F,146,star,1,0,,3,,,,,,,,,,,,,,switch,letter,lettSwt,d,1.3364,vtsPrac,8,0,8,0,1,,,,,,,,,,,,,,,,,,,,,,,
297715,2022-11-29_19h28.12.287,vts_reward_expectancy_bt,2022.2.4,MacIntel,60.0024001,Chrome,1440,900,,,,,0,792,,,,,,,,,,,,,,,,,B,174,hexagon,1,0,,3,,,,,,,,,,,,,,switch,number,numSwt,k,1.007,vtsPrac,9,0,9,0,1,,,,,,,,,,,,,,,,,,,,,,,
297715,2022-11-29_19h28.12.287,vts_reward_expectancy_bt,2022.2.4,MacIntel,60.0024001,Chrome,1440,900,,,,,0,792,,,,,,,,,,,,,,,,,H,132,hexagon,1,0,,3,,,,,,,,,,,,,,switch,letter,lettSwt,d,0.8503,vtsPrac,10,0,10,0,1,,,,,,,,,,,,,,,,,,,,,,,
297715,2022-11-29_19h28.12.287,vts_reward_expectancy_bt,2022.2.4,MacIntel,60.0024001,Chrome,1440,900,,,,,0,792,,,,,,,,,,,,,,,,,U,167,circle,1,0,,3,,,,,,,,,,,,,,switch,number,numSwt,k,1.3119,vtsPrac,11,0,11,0,1,,,,,,,,,,,,,,,,,,,,,,,
297715,2022-11-29_19h28.12.287,vts_reward_expectancy_bt,2022.2.4,MacIntel,60.0024001,Chrome,1440,900,,,,,0,792,,,,,,,,,,,,,,,,,U,125,hexagon,1,0,,3,,,,,,,,,,,,,,switch,letter,lettSwt,f,0.7812,vtsPrac,12,0,12,0,1,,,,,,,,,,,,,,,,,,,,,,,
297715,2022-11-29_19h28.12.287,vts_reward_expectancy_bt,2022.2.4,MacIntel,60.0024001,Chrome,1440,900,,,,,0,792,,,,,,,,,,,,,,,,,W,181,star,1,0,,3,,,,,,,,,,,,,,switch,number,numSwt,k,1.0539,vtsPrac,13,0,13,0,1,,,,,,,,,,,,,,,,,,,,,,,
297715,2022-11-29_19h28.12.287,vts_reward_expectancy_bt,2022.2.4,MacIntel,60.0024001,Chrome,1440,900,,,,,0,792,,,,,,,,,,,,,,,,,D,174,triangle,1,0,,3,,,,,,,,,,,,,,switch,letter,lettSwt,d,0.8495,vtsPrac,14,0,14,0,1,,,,,,,,,,,,,,,,,,,,,,,
297715,2022-11-29_19h28.12.287,vts_reward_expectancy_bt,2022.2.4,MacIntel,60.0024001,Chrome,1440,900,,,,,0,792,,,,,,,,,,,,,,,,,Y,167,hexagon,1,0,,3,,,,,,,,,,,,,,switch,number,numSwt,k,1.003,vtsPrac,15,0,15,0,1,,,,,,,,,,,,,,,,,,,,,,,
297715,2022-11-29_19h28.12.287,vts_reward_expectancy_bt,2022.2.4,MacIntel,60.0024001,Chrome,1440,900,,,,,0,792,,,,,,,,,,,,,,,,,W,160,star,1,0,,3,,,,,,,,,,,,,,repeat,number,numRpt,k,0.9857,vtsPrac,16,0,16,0,1,,,,,,,,,,,,,,,,,,,,,,,
297715,2022-11-29_19h28.12.287,vts_reward_expectancy_bt,2022.2.4,MacIntel,60.0024001,Chrome,1440,900,,,,,0,792,,,,,,,,,,,,,,,,,F,146,circle,1,0,,3,,,,,,,,,,,,,,repeat,number,numRpt,j,1.5994,vtsPrac,17,0,17,0,1,,,,,,,,,,,,,,,,,,,,,,,
297715,2022-11-29_19h28.12.287,vts_reward_expectancy_bt,2022.2.4,MacIntel,60.0024001,Chrome,1440,900,,,,,0,792,,,,,,,,,,,,,,,,,H,125,triangle,1,0,,3,,,,,,,,,,,,,,switch,letter,lettSwt,d,0.9997,vtsPrac,18,0,18,0,1,,,,,,,,,,,,,,,,,,,,,,,
297715,2022-11-29_19h28.12.287,vts_reward_expectancy_bt,2022.2.4,MacIntel,60.0024001,Chrome,1440,900,,,,,0,792,,,,,,,,,,,,,,,,,Y,174,circle,1,0,,3,,,,,,,,,,,,,,switch,number,numSwt,k,0.8217,vtsPrac,19,0,19,0,1,,,,,,,,,,,,,,,,,,,,,,,
297715,2022-11-29_19h28.12.287,vts_reward_expectancy_bt,2022.2.4,MacIntel,60.0024001,Chrome,1440,900,,,,,0,792,,,,,,,,,,,,,,,,,U,146,triangle,1,0,,3,,,,,,,,,,,,,,switch,letter,lettSwt,f,0.9687,vtsPrac,20,0,20,0,1,,,,,,,,,,,,,,,,,,,,,,,
297715,2022-11-29_19h28.12.287,vts_reward_expectancy_bt,2022.2.4,MacIntel,60.0024001,Chrome,1440,900,,,,,0,792,,,,,,,,,,,,,,,,,F,167,hexagon,1,0,,3,,,,,,,,,,,,,,repeat,letter,lettRpt,d,1.0127,vtsPrac,21,0,21,0,1,,,,,,,,,,,,,,,,,,,,,,,
297715,2022-11-29_19h28.12.287,vts_reward_expectancy_bt,2022.2.4,MacIntel,60.0024001,Chrome,1440,900,,,,,0,792,,,,,,,,,,,,,,,,,Y,174,circle,1,0,,3,,,,,,,,,,,,,,switch,number,numSwt,k,0.9437,vtsPrac,22,0,22,0,1,,,,,,,,,,,,,,,,,,,,,,,
297715,2022-11-29_19h28.12.287,vts_reward_expectancy_bt,2022.2.4,MacIntel,60.0024001,Chrome,1440,900,,,,,0,792,,,,,,,,,,,,,,,,,S,139,hexagon,1,0,,3,,,,,,,,,,,,,,repeat,number,numRpt,j,2.1298,vtsPrac,23,0,23,0,1,,,,,,,,,,,,,,,,,,,,,,,
297715,2022-11-29_19h28.12.287,vts_reward_expectancy_bt,2022.2.4,MacIntel,60.0024001,Chrome,1440,900,,,,,0,792,,,,,,,,,,,,,,,,,U,139,hexagon,1,0,,3,,,,,,,,,,,,,,switch,letter,lettSwt,f,1.031,vtsPrac,24,0,24,0,1,,,,,,,,,,,,,,,,,,,,,,,
297715,2022-11-29_19h28.12.287,vts_reward_expectancy_bt,2022.2.4,MacIntel,60.0024001,Chrome,1440,900,,,,,0,792,,,,,,,,,,,,,,,,,B,160,star,1,0,,3,,,,,,,,,,,,,,switch,number,numSwt,k,1.7182,vtsPrac,25,0,25,0,1,,,,,,,,,,,,,,,,,,,,,,,
297715,2022-11-29_19h28.12.287,vts_reward_expectancy_bt,2022.2.4,MacIntel,60.0024001,Chrome,1440,900,,,,,0,792,,,,,,,,,,,,,,,,,F,125,star,1,0,,3,,,,,,,,,,,,,,switch,letter,lettSwt,d,0.9853,vtsPrac,26,0,26,0,1,,,,,,,,,,,,,,,,,,,,,,,
297715,2022-11-29_19h28.12.287,vts_reward_expectancy_bt,2022.2.4,MacIntel,60.0024001,Chrome,1440,900,,,,,0,792,,,,,,,,,,,,,,,,,Y,132,circle,1,0,,3,,,,,,,,,,,,,,repeat,letter,lettRpt,f,0.8725,vtsPrac,27,0,27,0,1,,,,,,,,,,,,,,,,,,,,,,,
297715,2022-11-29_19h28.12.287,vts_reward_expectancy_bt,2022.2.4,MacIntel,60.0024001,Chrome,1440,900,,,,,0,792,,,,,,,,,,,,,,,,,B,146,triangle,1,0,,3,,,,,,,,,,,,,,switch,number,numSwt,j,1.3539,vtsPrac,28,0,28,0,1,,,,,,,,,,,,,,,,,,,,,,,
297715,2022-11-29_19h28.12.287,vts_reward_expectancy_bt,2022.2.4,MacIntel,60.0024001,Chrome,1440,900,,,,,0,792,,,,,,,,,,,,,,,,,Y,132,hexagon,1,0,,3,,,,,,,,,,,,,,repeat,number,numRpt,j,0.6872,vtsPrac,29,0,29,0,1,,,,,,,,,,,,,,,,,,,,,,,
297715,2022-11-29_19h28.12.287,vts_reward_expectancy_bt,2022.2.4,MacIntel,60.0024001,Chrome,1440,900,,,,,0,792,,,,,,,,,,,,,,,,,H,160,triangle,1,0,,3,,,,,,,,,,,,,,switch,letter,lettSwt,d,1.0641,vtsPrac,30,0,30,0,1,,,,,,,,,,,,,,,,,,,,,,,
297715,2022-11-29_19h28.12.287,vts_reward_expectancy_bt,2022.2.4,MacIntel,60.0024001,Chrome,1440,900,,,,,0,792,,,,,,,,,,,,,,,,,F,167,circle,1,0,,3,,,,,,,,,,,,,,repeat,letter,lettRpt,d,0.8506,vtsPrac,31,0,31,0,1,,,,,,,,,,,,,,,,,,,,,,,
297715,2022-11-29_19h28.12.287,vts_reward_expectancy_bt,2022.2.4,MacIntel,60.0024001,Chrome,1440,900,,,,,,,,,,,,,,,,,,,,,,,,,,,,,,,,,,,,,,,,,,,,,,,,,,,,,,,,,,,,,,,,,,,,,,,,,,,,
297715,2022-11-29_19h28.12.287,vts_reward_expectancy_bt,2022.2.4,MacIntel,60.0024001,Chrome,1440,900,,,,,,,,,,,,,,,,,,,,,,,,,,,,,,,,,,,,,,,,,,,,,,,,,,,,,,,,,,,,,,,,,,,,,,,,,,,,
297715,2022-11-29_19h28.12.287,vts_reward_expectancy_bt,2022.2.4,MacIntel,60.0024001,Chrome,1440,900,,,,,0,792,,,,,,,,,,,,,,,,,Y,132,star,1,0,,,,,,,,,,,,,,,,repeat,letter,lettRpt,f,0.8532,noRew,,,,,,0,0,0,0,0,1,,,,,,,,,,,,,,,,,
297715,2022-11-29_19h28.12.287,vts_reward_expectancy_bt,2022.2.4,MacIntel,60.0024001,Chrome,1440,900,,,,,0,792,,,,,,,,,,,,,,,,,S,139,hexagon,1,0,,,,,,,,,,,,,,,,switch,number,numSwt,j,1.3701,noRew,,,,,,0,1,0,1,0,1,,,,,,,,,,,,,,,,,
297715,2022-11-29_19h28.12.287,vts_reward_expectancy_bt,2022.2.4,MacIntel,60.0024001,Chrome,1440,900,,,,,0,792,,,,,,,,,,,,,,,,,W,146,star,1,0,,,,,,,,,,,,,,,,switch,letter,lettSwt,f,1.0345,noRew,,,,,,0,2,0,2,0,1,,,,,,,,,,,,,,,,,
297715,2022-11-29_19h28.12.287,vts_reward_expectancy_bt,2022.2.4,MacIntel,60.0024001,Chrome,1440,900,,,,,0,792,,,,,,,,,,,,,,,,,B,125,hexagon,1,0,,,,,,,,,,,,,,,,repeat,letter,lettRpt,d,0.8332,noRew,,,,,,0,3,0,3,0,1,,,,,,,,,,,,,,,,,
297715,2022-11-29_19h28.12.287,vts_reward_expectancy_bt,2022.2.4,MacIntel,60.0024001,Chrome,1440,900,,,,,0,792,,,,,,,,,,,,,,,,,Y,132,hexagon,1,0,,,,,,,,,,,,,,,,switch,number,numSwt,j,0.9019,noRew,,,,,,0,4,0,4,0,1,,,,,,,,,,,,,,,,,
297715,2022-11-29_19h28.12.287,vts_reward_expectancy_bt,2022.2.4,MacIntel,60.0024001,Chrome,1440,900,,,,,0,792,,,,,,,,,,,,,,,,,S,139,star,1,0,,,,,,,,,,,,,,,,repeat,number,numRpt,j,0.8209,noRew,,,,,,0,5,0,5,0,1,,,,,,,,,,,,,,,,,
297715,2022-11-29_19h28.12.287,vts_reward_expectancy_bt,2022.2.4,MacIntel,60.0024001,Chrome,1440,900,,,,,0,792,,,,,,,,,,,,,,,,,W,146,triangle,1,0,,,,,,,,,,,,,,,,switch,letter,lettSwt,f,1.4449,noRew,,,,,,0,6,0,6,0,1,,,,,,,,,,,,,,,,,
297715,2022-11-29_19h28.12.287,vts_reward_expectancy_bt,2022.2.4,MacIntel,60.0024001,Chrome,1440,900,,,,,0,792,,,,,,,,,,,,,,,,,B,125,star,1,0,,,,,,,,,,,,,,,,switch,number,numSwt,j,0.701,noRew,,,,,,0,7,0,7,0,1,,,,,,,,,,,,,,,,,
297715,2022-11-29_19h28.12.287,vts_reward_expectancy_bt,2022.2.4,MacIntel,60.0024001,Chrome,1440,900,,,,,0,792,,,,,,,,,,,,,,,,,B,167,star,1,0,,,,,,,,,,,,,,,,switch,letter,lettSwt,d,0.962,noRew,,,,,,0,8,0,8,0,1,,,,,,,,,,,,,,,,,
297715,2022-11-29_19h28.12.287,vts_reward_expectancy_bt,2022.2.4,MacIntel,60.0024001,Chrome,1440,900,,,,,0,792,,,,,,,,,,,,,,,,,W,125,triangle,1,0,,,,,,,,,,,,,,,,repeat,letter,lettRpt,f,0.8858,noRew,,,,,,0,9,0,9,0,1,,,,,,,,,,,,,,,,,
297715,2022-11-29_19h28.12.287,vts_reward_expectancy_bt,2022.2.4,MacIntel,60.0024001,Chrome,1440,900,,,,,0,792,,,,,,,,,,,,,,,,,F,160,hexagon,1,0,,,,,,,,,,,,,,,,switch,number,numSwt,k,0.7329,noRew,,,,,,0,10,0,10,0,1,,,,,,,,,,,,,,,,,
297715,2022-11-29_19h28.12.287,vts_reward_expectancy_bt,2022.2.4,MacIntel,60.0024001,Chrome,1440,900,,,,,0,792,,,,,,,,,,,,,,,,,H,139,star,1,0,,,,,,,,,,,,,,,,repeat,number,numRpt,j,1.3335,noRew,,,,,,0,11,0,11,0,1,,,,,,,,,,,,,,,,,
297715,2022-11-29_19h28.12.287,vts_reward_expectancy_bt,2022.2.4,MacIntel,60.0024001,Chrome,1440,900,,,,,0,792,,,,,,,,,,,,,,,,,H,167,hexagon,1,0,,,,,,,,,,,,,,,,switch,letter,lettSwt,d,0.8957,noRew,,,,,,0,12,0,12,0,1,,,,,,,,,,,,,,,,,
297715,2022-11-29_19h28.12.287,vts_reward_expectancy_bt,2022.2.4,MacIntel,60.0024001,Chrome,1440,900,,,,,0,792,,,,,,,,,,,,,,,,,D,160,circle,1,0,,,,,,,,,,,,,,,,repeat,letter,lettRpt,d,1.0525,noRew,,,,,,0,13,0,13,0,1,,,,,,,,,,,,,,,,,
297715,2022-11-29_19h28.12.287,vts_reward_expectancy_bt,2022.2.4,MacIntel,60.0024001,Chrome,1440,900,,,,,0,792,,,,,,,,,,,,,,,,,F,139,hexagon,1,0,,,,,,,,,,,,,,,,switch,number,numSwt,j,0.8856,noRew,,,,,,0,14,0,14,0,1,,,,,,,,,,,,,,,,,
297715,2022-11-29_19h28.12.287,vts_reward_expectancy_bt,2022.2.4,MacIntel,60.0024001,Chrome,1440,900,,,,,0,792,,,,,,,,,,,,,,,,,S,174,triangle,1,0,,,,,,,,,,,,,,,,repeat,number,numRpt,k,1.4545,noRew,,,,,,0,15,0,15,0,1,,,,,,,,,,,,,,,,,
297715,2022-11-29_19h28.12.287,vts_reward_expectancy_bt,2022.2.4,MacIntel,60.0024001,Chrome,1440,900,,,,,0,792,,,,,,,,,,,,,,,,,F,139,star,1,0,,,,,,,,,,,,,,,,switch,letter,lettSwt,d,1.0258,noRew,,,,,,0,16,0,16,0,1,,,,,,,,,,,,,,,,,
297715,2022-11-29_19h28.12.287,vts_reward_expectancy_bt,2022.2.4,MacIntel,60.0024001,Chrome,1440,900,,,,,0,792,,,,,,,,,,,,,,,,,D,181,circle,1,0,,,,,,,,,,,,,,,,repeat,letter,lettRpt,d,0.8578,noRew,,,,,,0,17,0,17,0,1,,,,,,,,,,,,,,,,,
297715,2022-11-29_19h28.12.287,vts_reward_expectancy_bt,2022.2.4,MacIntel,60.0024001,Chrome,1440,900,,,,,0,792,,,,,,,,,,,,,,,,,Y,132,circle,1,0,,,,,,,,,,,,,,,,switch,number,numSwt,j,1.0844,noRew,,,,,,0,18,0,18,0,1,,,,,,,,,,,,,,,,,
297715,2022-11-29_19h28.12.287,vts_reward_expectancy_bt,2022.2.4,MacIntel,60.0024001,Chrome,1440,900,,,,,0,792,,,,,,,,,,,,,,,,,H,174,star,1,0,,,,,,,,,,,,,,,,repeat,number,numRpt,k,0.8661,noRew,,,,,,0,19,0,19,0,1,,,,,,,,,,,,,,,,,
297715,2022-11-29_19h28.12.287,vts_reward_expectancy_bt,2022.2.4,MacIntel,60.0024001,Chrome,1440,900,,,,,0,792,,,,,,,,,,,,,,,,,H,132,hexagon,1,0,,,,,,,,,,,,,,,,repeat,number,numRpt,j,1.0195,noRew,,,,,,0,20,0,20,0,1,,,,,,,,,,,,,,,,,
297715,2022-11-29_19h28.12.287,vts_reward_expectancy_bt,2022.2.4,MacIntel,60.0024001,Chrome,1440,900,,,,,0,792,,,,,,,,,,,,,,,,,D,139,triangle,1,0,,,,,,,,,,,,,,,,switch,letter,lettSwt,d,0.8497,noRew,,,,,,0,21,0,21,0,1,,,,,,,,,,,,,,,,,
297715,2022-11-29_19h28.12.287,vts_reward_expectancy_bt,2022.2.4,MacIntel,60.0024001,Chrome,1440,900,,,,,0,792,,,,,,,,,,,,,,,,,W,125,hexagon,1,0,,,,,,,,,,,,,,,,repeat,letter,lettRpt,f,0.9345,noRew,,,,,,0,22,0,22,0,1,,,,,,,,,,,,,,,,,
297715,2022-11-29_19h28.12.287,vts_reward_expectancy_bt,2022.2.4,MacIntel,60.0024001,Chrome,1440,900,,,,,0,792,,,,,,,,,,,,,,,,,S,160,circle,0,0,,,,,,,,,,,,,,,,repeat,letter,NA,d,2.2222,noRew,,,,,,0,23,0,23,0,1,,,,,,,,,,,,,,,,,
297715,2022-11-29_19h28.12.287,vts_reward_expectancy_bt,2022.2.4,MacIntel,60.0024001,Chrome,1440,900,,,,,0,792,,,,,,,,,,,,,,,,,U,160,hexagon,1,1,,,,,,,,,,,,,,,,repeat,letter,lettRpt,f,1.7968,noRew,,,,,,0,24,0,24,0,1,,,,,,,,,,,,,,,,,
297715,2022-11-29_19h28.12.287,vts_reward_expectancy_bt,2022.2.4,MacIntel,60.0024001,Chrome,1440,900,,,,,0,792,,,,,,,,,,,,,,,,,B,139,circle,1,0,,,,,,,,,,,,,,,,switch,number,numSwt,j,0.8176,noRew,,,,,,0,25,0,25,0,1,,,,,,,,,,,,,,,,,
297715,2022-11-29_19h28.12.287,vts_reward_expectancy_bt,2022.2.4,MacIntel,60.0024001,Chrome,1440,900,,,,,0,792,,,,,,,,,,,,,,,,,W,167,triangle,1,0,,,,,,,,,,,,,,,,repeat,number,numRpt,k,1.0043,noRew,,,,,,0,26,0,26,0,1,,,,,,,,,,,,,,,,,
297715,2022-11-29_19h28.12.287,vts_reward_expectancy_bt,2022.2.4,MacIntel,60.0024001,Chrome,1440,900,,,,,0,792,,,,,,,,,,,,,,,,,H,146,circle,1,0,,,,,,,,,,,,,,,,repeat,number,numRpt,j,1.5919,noRew,,,,,,0,27,0,27,0,1,,,,,,,,,,,,,,,,,
297715,2022-11-29_19h28.12.287,vts_reward_expectancy_bt,2022.2.4,MacIntel,60.0024001,Chrome,1440,900,,,,,0,792,,,,,,,,,,,,,,,,,W,167,hexagon,1,0,,,,,,,,,,,,,,,,switch,letter,lettSwt,f,1.2155,noRew,,,,,,0,28,0,28,0,1,,,,,,,,,,,,,,,,,
297715,2022-11-29_19h28.12.287,vts_reward_expectancy_bt,2022.2.4,MacIntel,60.0024001,Chrome,1440,900,,,,,0,792,,,,,,,,,,,,,,,,,B,181,triangle,1,0,,,,,,,,,,,,,,,,switch,number,numSwt,k,0.9822,noRew,,,,,,0,29,0,29,0,1,,,,,,,,,,,,,,,,,
297715,2022-11-29_19h28.12.287,vts_reward_expectancy_bt,2022.2.4,MacIntel,60.0024001,Chrome,1440,900,,,,,0,792,,,,,,,,,,,,,,,,,Y,146,hexagon,1,0,,,,,,,,,,,,,,,,repeat,number,numRpt,j,1.5331,noRew,,,,,,0,30,0,30,0,1,,,,,,,,,,,,,,,,,
297715,2022-11-29_19h28.12.287,vts_reward_expectancy_bt,2022.2.4,MacIntel,60.0024001,Chrome,1440,900,,,,,0,792,,,,,,,,,,,,,,,,,U,125,circle,1,0,,,,,,,,,,,,,,,,repeat,number,numRpt,j,1.9785,noRew,,,,,,0,31,0,31,0,1,,,,,,,,,,,,,,,,,
297715,2022-11-29_19h28.12.287,vts_reward_expectancy_bt,2022.2.4,MacIntel,60.0024001,Chrome,1440,900,,,,,0,792,,,,,,,,,,,,,,,,,B,132,hexagon,1,0,,,,,,,,,,,,,,,,switch,letter,lettSwt,d,0.9824,noRew,,,,,,0,32,0,32,0,1,,,,,,,,,,,,,,,,,
297715,2022-11-29_19h28.12.287,vts_reward_expectancy_bt,2022.2.4,MacIntel,60.0024001,Chrome,1440,900,,,,,0,792,,,,,,,,,,,,,,,,,W,146,circle,1,0,,,,,,,,,,,,,,,,repeat,letter,lettRpt,f,1.4055,noRew,,,,,,0,33,0,33,0,1,,,,,,,,,,,,,,,,,
297715,2022-11-29_19h28.12.287,vts_reward_expectancy_bt,2022.2.4,MacIntel,60.0024001,Chrome,1440,900,,,,,0,792,,,,,,,,,,,,,,,,,D,167,star,1,0,,,,,,,,,,,,,,,,repeat,letter,lettRpt,d,1.685,noRew,,,,,,0,34,0,34,0,1,,,,,,,,,,,,,,,,,
297715,2022-11-29_19h28.12.287,vts_reward_expectancy_bt,2022.2.4,MacIntel,60.0024001,Chrome,1440,900,,,,,0,792,,,,,,,,,,,,,,,,,S,125,triangle,1,0,,,,,,,,,,,,,,,,switch,number,numSwt,j,1.4667,noRew,,,,,,0,35,0,35,0,1,,,,,,,,,,,,,,,,,
297715,2022-11-29_19h28.12.287,vts_reward_expectancy_bt,2022.2.4,MacIntel,60.0024001,Chrome,1440,900,,,,,0,792,,,,,,,,,,,,,,,,,S,174,star,1,0,,,,,,,,,,,,,,,,repeat,number,numRpt,k,1.4617,noRew,,,,,,0,36,0,36,0,1,,,,,,,,,,,,,,,,,
297715,2022-11-29_19h28.12.287,vts_reward_expectancy_bt,2022.2.4,MacIntel,60.0024001,Chrome,1440,900,,,,,0,792,,,,,,,,,,,,,,,,,W,160,hexagon,1,0,,,,,,,,,,,,,,,,switch,letter,lettSwt,f,1.4006,noRew,,,,,,0,37,0,37,0,1,,,,,,,,,,,,,,,,,
297715,2022-11-29_19h28.12.287,vts_reward_expectancy_bt,2022.2.4,MacIntel,60.0024001,Chrome,1440,900,,,,,0,792,,,,,,,,,,,,,,,,,U,167,circle,1,0,,,,,,,,,,,,,,,,repeat,letter,lettRpt,f,1.1364,noRew,,,,,,0,38,0,38,0,1,,,,,,,,,,,,,,,,,
297715,2022-11-29_19h28.12.287,vts_reward_expectancy_bt,2022.2.4,MacIntel,60.0024001,Chrome,1440,900,,,,,0,792,,,,,,,,,,,,,,,,,D,132,star,1,0,,,,,,,,,,,,,,,,switch,number,numSwt,j,1.0384,noRew,,,,,,0,39,0,39,0,1,,,,,,,,,,,,,,,,,
297715,2022-11-29_19h28.12.287,vts_reward_expectancy_bt,2022.2.4,MacIntel,60.0024001,Chrome,1440,900,,,,,0,792,,,,,,,,,,,,,,,,,D,167,hexagon,1,0,,,,,,,,,,,,,,,,repeat,number,numRpt,k,1.7986,noRew,,,,,,0,40,0,40,0,1,,,,,,,,,,,,,,,,,
297715,2022-11-29_19h28.12.287,vts_reward_expectancy_bt,2022.2.4,MacIntel,60.0024001,Chrome,1440,900,,,,,0,792,,,,,,,,,,,,,,,,,B,132,circle,1,0,,,,,,,,,,,,,,,,switch,letter,lettSwt,d,0.7403,noRew,,,,,,0,41,0,41,0,1,,,,,,,,,,,,,,,,,
297715,2022-11-29_19h28.12.287,vts_reward_expectancy_bt,2022.2.4,MacIntel,60.0024001,Chrome,1440,900,,,,,0,792,,,,,,,,,,,,,,,,,S,181,triangle,1,0,,,,,,,,,,,,,,,,repeat,letter,lettRpt,f,1.0819,noRew,,,,,,0,42,0,42,0,1,,,,,,,,,,,,,,,,,
297715,2022-11-29_19h28.12.287,vts_reward_expectancy_bt,2022.2.4,MacIntel,60.0024001,Chrome,1440,900,,,,,0,792,,,,,,,,,,,,,,,,,Y,125,hexagon,1,0,,,,,,,,,,,,,,,,repeat,letter,lettRpt,f,0.8698,noRew,,,,,,0,43,0,43,0,1,,,,,,,,,,,,,,,,,
297715,2022-11-29_19h28.12.287,vts_reward_expectancy_bt,2022.2.4,MacIntel,60.0024001,Chrome,1440,900,,,,,0,792,,,,,,,,,,,,,,,,,S,139,triangle,1,0,,,,,,,,,,,,,,,,switch,number,numSwt,j,1.2962,noRew,,,,,,0,44,0,44,0,1,,,,,,,,,,,,,,,,,
297715,2022-11-29_19h28.12.287,vts_reward_expectancy_bt,2022.2.4,MacIntel,60.0024001,Chrome,1440,900,,,,,0,792,,,,,,,,,,,,,,,,,U,160,hexagon,1,0,,,,,,,,,,,,,,,,switch,letter,lettSwt,f,1.0002,noRew,,,,,,0,45,0,45,0,1,,,,,,,,,,,,,,,,,
297715,2022-11-29_19h28.12.287,vts_reward_expectancy_bt,2022.2.4,MacIntel,60.0024001,Chrome,1440,900,,,,,0,792,,,,,,,,,,,,,,,,,Y,146,star,1,0,,,,,,,,,,,,,,,,switch,number,numSwt,j,1.1883,noRew,,,,,,0,46,0,46,0,1,,,,,,,,,,,,,,,,,
297715,2022-11-29_19h28.12.287,vts_reward_expectancy_bt,2022.2.4,MacIntel,60.0024001,Chrome,1440,900,,,,,0,792,,,,,,,,,,,,,,,,,H,181,hexagon,1,0,,,,,,,,,,,,,,,,switch,letter,lettSwt,d,1.2045,noRew,,,,,,0,47,0,47,0,1,,,,,,,,,,,,,,,,,
297715,2022-11-29_19h28.12.287,vts_reward_expectancy_bt,2022.2.4,MacIntel,60.0024001,Chrome,1440,900,,,,,0,792,,,,,,,,,,,,,,,,,U,139,triangle,1,0,,,,,,,,,,,,,,,,switch,number,numSwt,j,1.2989,noRew,,,,,,0,48,0,48,0,1,,,,,,,,,,,,,,,,,
297715,2022-11-29_19h28.12.287,vts_reward_expectancy_bt,2022.2.4,MacIntel,60.0024001,Chrome,1440,900,,,,,0,792,,,,,,,,,,,,,,,,,H,167,hexagon,1,0,,,,,,,,,,,,,,,,repeat,number,numRpt,k,0.8749,noRew,,,,,,0,49,0,49,0,1,,,,,,,,,,,,,,,,,
297715,2022-11-29_19h28.12.287,vts_reward_expectancy_bt,2022.2.4,MacIntel,60.0024001,Chrome,1440,900,,,,,0,792,,,,,,,,,,,,,,,,,S,174,star,1,0,,,,,,,,,,,,,,,,repeat,number,numRpt,k,0.9461,noRew,,,,,,0,50,0,50,0,1,,,,,,,,,,,,,,,,,
297715,2022-11-29_19h28.12.287,vts_reward_expectancy_bt,2022.2.4,MacIntel,60.0024001,Chrome,1440,900,,,,,0,792,,,,,,,,,,,,,,,,,B,160,circle,1,0,,,,,,,,,,,,,,,,repeat,number,numRpt,k,0.8166,noRew,,,,,,0,51,0,51,0,1,,,,,,,,,,,,,,,,,
297715,2022-11-29_19h28.12.287,vts_reward_expectancy_bt,2022.2.4,MacIntel,60.0024001,Chrome,1440,900,,,,,0,792,,,,,,,,,,,,,,,,,D,160,star,1,0,,,,,,,,,,,,,,,,switch,letter,lettSwt,d,0.9611,noRew,,,,,,0,52,0,52,0,1,,,,,,,,,,,,,,,,,
297715,2022-11-29_19h28.12.287,vts_reward_expectancy_bt,2022.2.4,MacIntel,60.0024001,Chrome,1440,900,,,,,0,792,,,,,,,,,,,,,,,,,F,125,hexagon,1,0,,,,,,,,,,,,,,,,repeat,letter,lettRpt,d,0.9378,noRew,,,,,,0,53,0,53,0,1,,,,,,,,,,,,,,,,,
297715,2022-11-29_19h28.12.287,vts_reward_expectancy_bt,2022.2.4,MacIntel,60.0024001,Chrome,1440,900,,,,,0,792,,,,,,,,,,,,,,,,,U,167,circle,1,0,,,,,,,,,,,,,,,,switch,number,numSwt,k,1.2309,noRew,,,,,,0,54,0,54,0,1,,,,,,,,,,,,,,,,,
297715,2022-11-29_19h28.12.287,vts_reward_expectancy_bt,2022.2.4,MacIntel,60.0024001,Chrome,1440,900,,,,,0,792,,,,,,,,,,,,,,,,,Y,139,triangle,1,0,,,,,,,,,,,,,,,,switch,letter,lettSwt,f,1.044,noRew,,,,,,0,55,0,55,0,1,,,,,,,,,,,,,,,,,
297715,2022-11-29_19h28.12.287,vts_reward_expectancy_bt,2022.2.4,MacIntel,60.0024001,Chrome,1440,900,,,,,0,792,,,,,,,,,,,,,,,,,S,167,hexagon,1,0,,,,,,,,,,,,,,,,switch,number,numSwt,k,1.0351,noRew,,,,,,0,56,0,56,0,1,,,,,,,,,,,,,,,,,
297715,2022-11-29_19h28.12.287,vts_reward_expectancy_bt,2022.2.4,MacIntel,60.0024001,Chrome,1440,900,,,,,0,792,,,,,,,,,,,,,,,,,B,160,triangle,1,0,,,,,,,,,,,,,,,,switch,letter,lettSwt,d,1.2503,noRew,,,,,,0,57,0,57,0,1,,,,,,,,,,,,,,,,,
297715,2022-11-29_19h28.12.287,vts_reward_expectancy_bt,2022.2.4,MacIntel,60.0024001,Chrome,1440,900,,,,,0,792,,,,,,,,,,,,,,,,,W,132,hexagon,1,0,,,,,,,,,,,,,,,,switch,number,numSwt,j,0.9113,noRew,,,,,,0,58,0,58,0,1,,,,,,,,,,,,,,,,,
297715,2022-11-29_19h28.12.287,vts_reward_expectancy_bt,2022.2.4,MacIntel,60.0024001,Chrome,1440,900,,,,,0,792,,,,,,,,,,,,,,,,,D,125,circle,1,0,,,,,,,,,,,,,,,,switch,letter,lettSwt,d,0.8772,noRew,,,,,,0,59,0,59,0,1,,,,,,,,,,,,,,,,,
297715,2022-11-29_19h28.12.287,vts_reward_expectancy_bt,2022.2.4,MacIntel,60.0024001,Chrome,1440,900,,,,,0,792,,,,,,,,,,,,,,,,,W,160,star,1,0,,,,,,,,,,,,,,,,switch,number,numSwt,k,1.1269,noRew,,,,,,0,60,0,60,0,1,,,,,,,,,,,,,,,,,
297715,2022-11-29_19h28.12.287,vts_reward_expectancy_bt,2022.2.4,MacIntel,60.0024001,Chrome,1440,900,,,,,0,792,,,,,,,,,,,,,,,,,U,125,circle,1,0,,,,,,,,,,,,,,,,switch,letter,lettSwt,f,1.2557,noRew,,,,,,0,61,0,61,0,1,,,,,,,,,,,,,,,,,
297715,2022-11-29_19h28.12.287,vts_reward_expectancy_bt,2022.2.4,MacIntel,60.0024001,Chrome,1440,900,,,,,0,792,,,,,,,,,,,,,,,,,D,167,triangle,1,0,,,,,,,,,,,,,,,,repeat,letter,lettRpt,d,0.9863,noRew,,,,,,0,62,0,62,0,1,,,,,,,,,,,,,,,,,
297715,2022-11-29_19h28.12.287,vts_reward_expectancy_bt,2022.2.4,MacIntel,60.0024001,Chrome,1440,900,,,,,0,792,,,,,,,,,,,,,,,,,H,146,hexagon,1,0,,,,,,,,,,,,,,,,repeat,letter,lettRpt,d,1.1444,noRew,,,,,,0,63,0,63,0,1,,,,,,,,,,,,,,,,,
297715,2022-11-29_19h28.12.287,vts_reward_expectancy_bt,2022.2.4,MacIntel,60.0024001,Chrome,1440,900,,,,,,,,,,,,,,,,,,,,,,,,,,,,,,,,,,,,,,,,,,,,,,,,,,,,,,,,,,,,,,,,,,,,,,,,,,,,
297715,2022-11-29_19h28.12.287,vts_reward_expectancy_bt,2022.2.4,MacIntel,60.0024001,Chrome,1440,900,,,,,10,802,,,,,,,,,,,,,,,,,B,132,star,1,0,,,,,,,,,,,,,,,,repeat,letter,lettRpt,d,1.0288,Lo,,,,,,0,,,,,,space,6.1129,high,0,0,0,0,1,,,,,,,,,
297715,2022-11-29_19h28.12.287,vts_reward_expectancy_bt,2022.2.4,MacIntel,60.0024001,Chrome,1440,900,,,,,0,802,,,,,,,,,,,,,,,,,U,174,circle,-1,0,,,,,,,,,,,,,,,,switch,no_choice,NA,,,Lo,,,,,,0,,,,,,,,high,1,0,1,0,1,,,,,,,,,
297715,2022-11-29_19h28.12.287,vts_reward_expectancy_bt,2022.2.4,MacIntel,60.0024001,Chrome,1440,900,,,,,10,812,,,,,,,,,,,,,,,,,Y,125,triangle,1,0,,,,,,,,,,,,,,,,switch,letter,lettSwt,f,1.4509,Lo,,,,,,0,,,,,,,,high,2,0,2,0,1,,,,,,,,,
297715,2022-11-29_19h28.12.287,vts_reward_expectancy_bt,2022.2.4,MacIntel,60.0024001,Chrome,1440,900,,,,,0,812,,,,,,,,,,,,,,,,,D,146,hexagon,1,0,,,,,,,,,,,,,,,,switch,number,numSwt,j,1.2473,Hi,,,,,,0,,,,,,,,high,3,0,3,0,1,,,,,,,,,
297715,2022-11-29_19h28.12.287,vts_reward_expectancy_bt,2022.2.4,MacIntel,60.0024001,Chrome,1440,900,,,,,1,813,,,,,,,,,,,,,,,,,H,167,star,1,0,,,,,,,,,,,,,,,,switch,letter,lettSwt,d,1.0478,Lo,,,,,,0,,,,,,,,high,4,0,4,0,1,,,,,,,,,
297715,2022-11-29_19h28.12.287,vts_reward_expectancy_bt,2022.2.4,MacIntel,60.0024001,Chrome,1440,900,,,,,1,814,,,,,,,,,,,,,,,,,S,160,circle,1,0,,,,,,,,,,,,,,,,repeat,letter,lettRpt,f,0.7964,Hi,,,,,,0,,,,,,,,high,5,0,5,0,1,,,,,,,,,
297715,2022-11-29_19h28.12.287,vts_reward_expectancy_bt,2022.2.4,MacIntel,60.0024001,Chrome,1440,900,,,,,1,815,,,,,,,,,,,,,,,,,W,139,triangle,1,0,,,,,,,,,,,,,,,,repeat,letter,lettRpt,f,0.9503,Lo,,,,,,0,,,,,,,,high,6,0,6,0,1,,,,,,,,,
297715,2022-11-29_19h28.12.287,vts_reward_expectancy_bt,2022.2.4,MacIntel,60.0024001,Chrome,1440,900,,,,,10,825,,,,,,,,,,,,,,,,,F,181,hexagon,1,0,,,,,,,,,,,,,,,,switch,number,numSwt,k,0.7153,Hi,,,,,,0,,,,,,,,high,7,0,7,0,1,,,,,,,,,
297715,2022-11-29_19h28.12.287,vts_reward_expectancy_bt,2022.2.4,MacIntel,60.0024001,Chrome,1440,900,,,,,10,835,,,,,,,,,,,,,,,,,B,132,circle,1,0,,,,,,,,,,,,,,,,repeat,number,numRpt,j,0.7955,Hi,,,,,,0,,,,,,,,high,8,0,8,0,1,,,,,,,,,
297715,2022-11-29_19h28.12.287,vts_reward_expectancy_bt,2022.2.4,MacIntel,60.0024001,Chrome,1440,900,,,,,1,836,,,,,,,,,,,,,,,,,U,174,triangle,1,0,,,,,,,,,,,,,,,,switch,letter,lettSwt,f,1.1602,Lo,,,,,,0,,,,,,,,high,9,0,9,0,1,,,,,,,,,
297715,2022-11-29_19h28.12.287,vts_reward_expectancy_bt,2022.2.4,MacIntel,60.0024001,Chrome,1440,900,,,,,1,837,,,,,,,,,,,,,,,,,Y,125,star,1,0,,,,,,,,,,,,,,,,switch,number,numSwt,j,0.8451,Lo,,,,,,0,,,,,,,,high,10,0,10,0,1,,,,,,,,,
297715,2022-11-29_19h28.12.287,vts_reward_expectancy_bt,2022.2.4,MacIntel,60.0024001,Chrome,1440,900,,,,,0,837,,,,,,,,,,,,,,,,,D,146,hexagon,1,0,,,,,,,,,,,,,,,,repeat,number,numRpt,j,1.0276,Hi,,,,,,0,,,,,,,,high,11,0,11,0,1,,,,,,,,,
297715,2022-11-29_19h28.12.287,vts_reward_expectancy_bt,2022.2.4,MacIntel,60.0024001,Chrome,1440,900,,,,,1,838,,,,,,,,,,,,,,,,,H,167,triangle,1,0,,,,,,,,,,,,,,,,switch,letter,lettSwt,d,1.0463,Lo,,,,,,0,,,,,,,,high,12,0,12,0,1,,,,,,,,,
297715,2022-11-29_19h28.12.287,vts_reward_expectancy_bt,2022.2.4,MacIntel,60.0024001,Chrome,1440,900,,,,,1,839,,,,,,,,,,,,,,,,,S,160,star,1,0,,,,,,,,,,,,,,,,repeat,letter,lettRpt,f,0.8115,Lo,,,,,,0,,,,,,,,high,13,0,13,0,1,,,,,,,,,
297715,2022-11-29_19h28.12.287,vts_reward_expectancy_bt,2022.2.4,MacIntel,60.0024001,Chrome,1440,900,,,,,10,849,,,,,,,,,,,,,,,,,W,139,circle,1,0,,,,,,,,,,,,,,,,switch,number,numSwt,j,0.6858,Hi,,,,,,0,,,,,,,,high,14,0,14,0,1,,,,,,,,,
297715,2022-11-29_19h28.12.287,vts_reward_expectancy_bt,2022.2.4,MacIntel,60.0024001,Chrome,1440,900,,,,,10,859,,,,,,,,,,,,,,,,,F,181,hexagon,1,0,,,,,,,,,,,,,,,,repeat,number,numRpt,k,0.7204,Hi,,,,,,0,,,,,,,,high,15,0,15,0,1,,,,,,,,,
297715,2022-11-29_19h28.12.287,vts_reward_expectancy_bt,2022.2.4,MacIntel,60.0024001,Chrome,1440,900,,,,,10,869,,,,,,,,,,,,,,,,,U,125,circle,1,0,,,,,,,,,,,,,,,,repeat,number,numRpt,j,0.5787,Hi,,,,,,0,,,,,,,,high,16,0,16,0,1,,,,,,,,,
297715,2022-11-29_19h28.12.287,vts_reward_expectancy_bt,2022.2.4,MacIntel,60.0024001,Chrome,1440,900,,,,,1,870,,,,,,,,,,,,,,,,,F,167,triangle,1,0,,,,,,,,,,,,,,,,switch,letter,lettSwt,d,0.7854,Lo,,,,,,0,,,,,,,,high,17,0,17,0,1,,,,,,,,,
297715,2022-11-29_19h28.12.287,vts_reward_expectancy_bt,2022.2.4,MacIntel,60.0024001,Chrome,1440,900,,,,,1,871,,,,,,,,,,,,,,,,,D,160,star,1,0,,,,,,,,,,,,,,,,repeat,letter,lettRpt,d,1.086,Lo,,,,,,0,,,,,,,,high,18,0,18,0,1,,,,,,,,,
297715,2022-11-29_19h28.12.287,vts_reward_expectancy_bt,2022.2.4,MacIntel,60.0024001,Chrome,1440,900,,,,,10,881,,,,,,,,,,,,,,,,,B,174,hexagon,1,0,,,,,,,,,,,,,,,,switch,number,numSwt,k,0.8476,Hi,,,,,,0,,,,,,,,high,19,0,19,0,1,,,,,,,,,
297715,2022-11-29_19h28.12.287,vts_reward_expectancy_bt,2022.2.4,MacIntel,60.0024001,Chrome,1440,900,,,,,10,891,,,,,,,,,,,,,,,,,S,132,star,1,0,,,,,,,,,,,,,,,,switch,letter,lettSwt,f,1.1981,Lo,,,,,,0,,,,,,,,high,20,0,20,0,1,,,,,,,,,
297715,2022-11-29_19h28.12.287,vts_reward_expectancy_bt,2022.2.4,MacIntel,60.0024001,Chrome,1440,900,,,,,10,901,,,,,,,,,,,,,,,,,W,181,hexagon,1,0,,,,,,,,,,,,,,,,switch,number,numSwt,k,0.5849,Hi,,,,,,0,,,,,,,,high,21,0,21,0,1,,,,,,,,,
297715,2022-11-29_19h28.12.287,vts_reward_expectancy_bt,2022.2.4,MacIntel,60.0024001,Chrome,1440,900,,,,,1,902,,,,,,,,,,,,,,,,,Y,146,triangle,1,0,,,,,,,,,,,,,,,,switch,letter,lettSwt,f,0.848,Lo,,,,,,0,,,,,,,,high,22,0,22,0,1,,,,,,,,,
297715,2022-11-29_19h28.12.287,vts_reward_expectancy_bt,2022.2.4,MacIntel,60.0024001,Chrome,1440,900,,,,,0,902,,,,,,,,,,,,,,,,,H,139,circle,1,0,,,,,,,,,,,,,,,,repeat,letter,lettRpt,d,1.5267,Hi,,,,,,0,,,,,,,,high,23,0,23,0,1,,,,,,,,,
297715,2022-11-29_19h28.12.287,vts_reward_expectancy_bt,2022.2.4,MacIntel,60.0024001,Chrome,1440,900,,,,,10,912,,,,,,,,,,,,,,,,,W,132,circle,1,0,,,,,,,,,,,,,,,,repeat,letter,lettRpt,f,0.7297,Hi,,,,,,0,,,,,,,,high,24,0,24,0,1,,,,,,,,,
297715,2022-11-29_19h28.12.287,vts_reward_expectancy_bt,2022.2.4,MacIntel,60.0024001,Chrome,1440,900,,,,,1,913,,,,,,,,,,,,,,,,,D,146,triangle,1,0,,,,,,,,,,,,,,,,repeat,letter,lettRpt,d,0.7156,Lo,,,,,,0,,,,,,,,high,25,0,25,0,1,,,,,,,,,
297715,2022-11-29_19h28.12.287,vts_reward_expectancy_bt,2022.2.4,MacIntel,60.0024001,Chrome,1440,900,,,,,10,923,,,,,,,,,,,,,,,,,S,160,hexagon,1,0,,,,,,,,,,,,,,,,switch,number,numSwt,k,0.68,Hi,,,,,,0,,,,,,,,high,26,0,26,0,1,,,,,,,,,
297715,2022-11-29_19h28.12.287,vts_reward_expectancy_bt,2022.2.4,MacIntel,60.0024001,Chrome,1440,900,,,,,1,924,,,,,,,,,,,,,,,,,Y,174,star,1,0,,,,,,,,,,,,,,,,switch,letter,lettSwt,f,0.8815,Lo,,,,,,0,,,,,,,,high,27,0,27,0,1,,,,,,,,,
297715,2022-11-29_19h28.12.287,vts_reward_expectancy_bt,2022.2.4,MacIntel,60.0024001,Chrome,1440,900,,,,,1,925,,,,,,,,,,,,,,,,,F,125,triangle,1,0,,,,,,,,,,,,,,,,repeat,letter,lettRpt,d,0.7806,Lo,,,,,,0,,,,,,,,high,28,0,28,0,1,,,,,,,,,
297715,2022-11-29_19h28.12.287,vts_reward_expectancy_bt,2022.2.4,MacIntel,60.0024001,Chrome,1440,900,,,,,10,935,,,,,,,,,,,,,,,,,B,167,circle,1,0,,,,,,,,,,,,,,,,switch,number,numSwt,k,0.648,Hi,,,,,,0,,,,,,,,high,29,0,29,0,1,,,,,,,,,
297715,2022-11-29_19h28.12.287,vts_reward_expectancy_bt,2022.2.4,MacIntel,60.0024001,Chrome,1440,900,,,,,10,945,,,,,,,,,,,,,,,,,H,181,star,1,0,,,,,,,,,,,,,,,,switch,letter,lettSwt,d,0.8481,Lo,,,,,,0,,,,,,,,high,30,0,30,0,1,,,,,,,,,
297715,2022-11-29_19h28.12.287,vts_reward_expectancy_bt,2022.2.4,MacIntel,60.0024001,Chrome,1440,900,,,,,0,945,,,,,,,,,,,,,,,,,U,139,hexagon,1,0,,,,,,,,,,,,,,,,repeat,letter,lettRpt,f,1.4804,Hi,,,,,,0,,,,,,,,high,31,0,31,0,1,,,,,,,,,
297715,2022-11-29_19h28.12.287,vts_reward_expectancy_bt,2022.2.4,MacIntel,60.0024001,Chrome,1440,900,,,,,10,955,,,,,,,,,,,,,,,,,S,181,triangle,1,0,,,,,,,,,,,,,,,,switch,number,numSwt,k,1.2985,Lo,,,,,,1,,,,,,space,3.7354,high,0,0,0,0,1,,,,,,,,,
297715,2022-11-29_19h28.12.287,vts_reward_expectancy_bt,2022.2.4,MacIntel,60.0024001,Chrome,1440,900,,,,,10,965,,,,,,,,,,,,,,,,,W,160,circle,1,0,,,,,,,,,,,,,,,,switch,letter,lettSwt,f,0.7708,Hi,,,,,,1,,,,,,,,high,1,0,1,0,1,,,,,,,,,
297715,2022-11-29_19h28.12.287,vts_reward_expectancy_bt,2022.2.4,MacIntel,60.0024001,Chrome,1440,900,,,,,0,965,,,,,,,,,,,,,,,,,H,125,hexagon,1,0,,,,,,,,,,,,,,,,switch,number,numSwt,j,0.734,Hi,,,,,,1,,,,,,,,high,2,0,2,0,1,,,,,,,,,
297715,2022-11-29_19h28.12.287,vts_reward_expectancy_bt,2022.2.4,MacIntel,60.0024001,Chrome,1440,900,,,,,1,966,,,,,,,,,,,,,,,,,U,167,star,1,0,,,,,,,,,,,,,,,,switch,letter,lettSwt,f,0.6476,Lo,,,,,,1,,,,,,,,high,3,0,3,0,1,,,,,,,,,
297715,2022-11-29_19h28.12.287,vts_reward_expectancy_bt,2022.2.4,MacIntel,60.0024001,Chrome,1440,900,,,,,1,967,,,,,,,,,,,,,,,,,F,146,triangle,1,0,,,,,,,,,,,,,,,,repeat,letter,lettRpt,d,0.8151,Lo,,,,,,1,,,,,,,,high,4,0,4,0,1,,,,,,,,,
297715,2022-11-29_19h28.12.287,vts_reward_expectancy_bt,2022.2.4,MacIntel,60.0024001,Chrome,1440,900,,,,,10,977,,,,,,,,,,,,,,,,,B,139,circle,1,0,,,,,,,,,,,,,,,,switch,number,numSwt,j,0.6113,Hi,,,,,,1,,,,,,,,high,5,0,5,0,1,,,,,,,,,
297715,2022-11-29_19h28.12.287,vts_reward_expectancy_bt,2022.2.4,MacIntel,60.0024001,Chrome,1440,900,,,,,1,978,,,,,,,,,,,,,,,,,D,132,hexagon,1,0,,,,,,,,,,,,,,,,repeat,number,numRpt,j,0.6629,Hi,,,,,,1,,,,,,,,high,6,0,6,0,1,,,,,,,,,
297715,2022-11-29_19h28.12.287,vts_reward_expectancy_bt,2022.2.4,MacIntel,60.0024001,Chrome,1440,900,,,,,10,988,,,,,,,,,,,,,,,,,Y,174,star,1,0,,,,,,,,,,,,,,,,switch,letter,lettSwt,f,0.7156,Lo,,,,,,1,,,,,,,,high,7,0,7,0,1,,,,,,,,,
297715,2022-11-29_19h28.12.287,vts_reward_expectancy_bt,2022.2.4,MacIntel,60.0024001,Chrome,1440,900,,,,,0,988,,,,,,,,,,,,,,,,,S,181,triangle,0,0,,,,,,,,,,,,,,,,repeat,letter,NA,d,0.8446,Lo,,,,,,1,,,,,,,,high,8,0,8,0,1,,,,,,,,,
297715,2022-11-29_19h28.12.287,vts_reward_expectancy_bt,2022.2.4,MacIntel,60.0024001,Chrome,1440,900,,,,,1,989,,,,,,,,,,,,,,,,,W,160,star,1,1,,,,,,,,,,,,,,,,repeat,letter,lettRpt,f,0.7126,Lo,,,,,,1,,,,,,,,high,9,0,9,0,1,,,,,,,,,
297715,2022-11-29_19h28.12.287,vts_reward_expectancy_bt,2022.2.4,MacIntel,60.0024001,Chrome,1440,900,,,,,0,989,,,,,,,,,,,,,,,,,H,125,hexagon,1,0,,,,,,,,,,,,,,,,switch,number,numSwt,j,0.9147,Hi,,,,,,1,,,,,,,,high,10,0,10,0,1,,,,,,,,,
297715,2022-11-29_19h28.12.287,vts_reward_expectancy_bt,2022.2.4,MacIntel,60.0024001,Chrome,1440,900,,,,,0,989,,,,,,,,,,,,,,,,,U,167,circle,1,0,,,,,,,,,,,,,,,,repeat,number,numRpt,k,0.9148,Hi,,,,,,1,,,,,,,,high,11,0,11,0,1,,,,,,,,,
297715,2022-11-29_19h28.12.287,vts_reward_expectancy_bt,2022.2.4,MacIntel,60.0024001,Chrome,1440,900,,,,,0,989,,,,,,,,,,,,,,,,,F,146,star,0,0,,,,,,,,,,,,,,,,repeat,number,NA,k,0.6892,Hi,,,,,,1,,,,,,,,high,12,0,12,0,1,,,,,,,,,
297715,2022-11-29_19h28.12.287,vts_reward_expectancy_bt,2022.2.4,MacIntel,60.0024001,Chrome,1440,900,,,,,1,990,,,,,,,,,,,,,,,,,B,139,circle,1,1,,,,,,,,,,,,,,,,switch,letter,lettSwt,d,0.781,Hi,,,,,,1,,,,,,,,high,13,0,13,0,1,,,,,,,,,
297715,2022-11-29_19h28.12.287,vts_reward_expectancy_bt,2022.2.4,MacIntel,60.0024001,Chrome,1440,900,,,,,10,1000,,,,,,,,,,,,,,,,,D,132,hexagon,1,0,,,,,,,,,,,,,,,,repeat,letter,lettRpt,d,0.7612,Hi,,,,,,1,,,,,,,,high,14,0,14,0,1,,,,,,,,,
297715,2022-11-29_19h28.12.287,vts_reward_expectancy_bt,2022.2.4,MacIntel,60.0024001,Chrome,1440,900,,,,,1,1001,,,,,,,,,,,,,,,,,Y,174,triangle,1,0,,,,,,,,,,,,,,,,repeat,letter,lettRpt,f,1.1979,Lo,,,,,,1,,,,,,,,high,15,0,15,0,1,,,,,,,,,
297715,2022-11-29_19h28.12.287,vts_reward_expectancy_bt,2022.2.4,MacIntel,60.0024001,Chrome,1440,900,,,,,0,1001,,,,,,,,,,,,,,,,,H,167,hexagon,1,0,,,,,,,,,,,,,,,,switch,number,numSwt,k,0.7968,Hi,,,,,,1,,,,,,,,high,16,0,16,0,1,,,,,,,,,
297715,2022-11-29_19h28.12.287,vts_reward_expectancy_bt,2022.2.4,MacIntel,60.0024001,Chrome,1440,900,,,,,10,1011,,,,,,,,,,,,,,,,,B,132,circle,1,0,,,,,,,,,,,,,,,,repeat,number,numRpt,j,0.5978,Hi,,,,,,1,,,,,,,,high,17,0,17,0,1,,,,,,,,,
297715,2022-11-29_19h28.12.287,vts_reward_expectancy_bt,2022.2.4,MacIntel,60.0024001,Chrome,1440,900,,,,,1,1012,,,,,,,,,,,,,,,,,Y,125,star,1,0,,,,,,,,,,,,,,,,repeat,number,numRpt,j,0.6807,Lo,,,,,,1,,,,,,,,high,18,0,18,0,1,,,,,,,,,
297715,2022-11-29_19h28.12.287,vts_reward_expectancy_bt,2022.2.4,MacIntel,60.0024001,Chrome,1440,900,,,,,1,1013,,,,,,,,,,,,,,,,,S,139,triangle,1,0,,,,,,,,,,,,,,,,switch,letter,lettSwt,f,0.9269,Lo,,,,,,1,,,,,,,,high,19,0,19,0,1,,,,,,,,,
297715,2022-11-29_19h28.12.287,vts_reward_expectancy_bt,2022.2.4,MacIntel,60.0024001,Chrome,1440,900,,,,,10,1023,,,,,,,,,,,,,,,,,W,146,hexagon,1,0,,,,,,,,,,,,,,,,repeat,letter,lettRpt,f,0.7356,Hi,,,,,,1,,,,,,,,high,20,0,20,0,1,,,,,,,,,
297715,2022-11-29_19h28.12.287,vts_reward_expectancy_bt,2022.2.4,MacIntel,60.0024001,Chrome,1440,900,,,,,1,1024,,,,,,,,,,,,,,,,,F,174,triangle,1,0,,,,,,,,,,,,,,,,switch,number,numSwt,k,0.6496,Lo,,,,,,1,,,,,,,,high,21,0,21,0,1,,,,,,,,,
297715,2022-11-29_19h28.12.287,vts_reward_expectancy_bt,2022.2.4,MacIntel,60.0024001,Chrome,1440,900,,,,,1,1025,,,,,,,,,,,,,,,,,D,160,star,1,0,,,,,,,,,,,,,,,,repeat,number,numRpt,k,0.5538,Lo,,,,,,1,,,,,,,,high,22,0,22,0,1,,,,,,,,,
297715,2022-11-29_19h28.12.287,vts_reward_expectancy_bt,2022.2.4,MacIntel,60.0024001,Chrome,1440,900,,,,,10,1035,,,,,,,,,,,,,,,,,U,181,circle,1,0,,,,,,,,,,,,,,,,repeat,number,numRpt,k,0.6826,Hi,,,,,,1,,,,,,,,high,23,0,23,0,1,,,,,,,,,
297715,2022-11-29_19h28.12.287,vts_reward_expectancy_bt,2022.2.4,MacIntel,60.0024001,Chrome,1440,900,,,,,10,1045,,,,,,,,,,,,,,,,,D,160,hexagon,1,0,,,,,,,,,,,,,,,,switch,letter,lettSwt,d,0.7351,Hi,,,,,,1,,,,,,,,high,24,0,24,0,1,,,,,,,,,
297715,2022-11-29_19h28.12.287,vts_reward_expectancy_bt,2022.2.4,MacIntel,60.0024001,Chrome,1440,900,,,,,0,1045,,,,,,,,,,,,,,,,,H,132,circle,1,0,,,,,,,,,,,,,,,,repeat,letter,lettRpt,d,0.8983,Hi,,,,,,1,,,,,,,,high,25,0,25,0,1,,,,,,,,,
297715,2022-11-29_19h28.12.287,vts_reward_expectancy_bt,2022.2.4,MacIntel,60.0024001,Chrome,1440,900,,,,,1,1046,,,,,,,,,,,,,,,,,U,125,triangle,1,0,,,,,,,,,,,,,,,,repeat,letter,lettRpt,f,0.8035,Lo,,,,,,1,,,,,,,,high,26,0,26,0,1,,,,,,,,,
297715,2022-11-29_19h28.12.287,vts_reward_expectancy_bt,2022.2.4,MacIntel,60.0024001,Chrome,1440,900,,,,,10,1056,,,,,,,,,,,,,,,,,Y,139,star,1,0,,,,,,,,,,,,,,,,repeat,letter,lettRpt,f,0.5954,Lo,,,,,,1,,,,,,,,high,27,0,27,0,1,,,,,,,,,
297715,2022-11-29_19h28.12.287,vts_reward_expectancy_bt,2022.2.4,MacIntel,60.0024001,Chrome,1440,900,,,,,1,1057,,,,,,,,,,,,,,,,,W,167,triangle,1,0,,,,,,,,,,,,,,,,switch,number,numSwt,k,0.747,Lo,,,,,,1,,,,,,,,high,28,0,28,0,1,,,,,,,,,
297715,2022-11-29_19h28.12.287,vts_reward_expectancy_bt,2022.2.4,MacIntel,60.0024001,Chrome,1440,900,,,,,10,1067,,,,,,,,,,,,,,,,,S,181,circle,1,0,,,,,,,,,,,,,,,,repeat,number,numRpt,k,0.5821,Hi,,,,,,1,,,,,,,,high,29,0,29,0,1,,,,,,,,,
297715,2022-11-29_19h28.12.287,vts_reward_expectancy_bt,2022.2.4,MacIntel,60.0024001,Chrome,1440,900,,,,,1,1068,,,,,,,,,,,,,,,,,F,174,star,1,0,,,,,,,,,,,,,,,,repeat,number,numRpt,k,0.8468,Lo,,,,,,1,,,,,,,,high,30,0,30,0,1,,,,,,,,,
297715,2022-11-29_19h28.12.287,vts_reward_expectancy_bt,2022.2.4,MacIntel,60.0024001,Chrome,1440,900,,,,,10,1078,,,,,,,,,,,,,,,,,B,146,hexagon,1,0,,,,,,,,,,,,,,,,switch,letter,lettSwt,d,0.8316,Hi,,,,,,1,,,,,,,,high,31,0,31,0,1,,,,,,,,,
297715,2022-11-29_19h28.12.287,vts_reward_expectancy_bt,2022.2.4,MacIntel,60.0024001,Chrome,1440,900,,,,,0,1078,,,,,,,,,,,,,,,,,S,181,hexagon,1,0,,,,,,,,,,,,,,,,switch,number,numSwt,k,0.9177,Hi,,,,,,2,,,,,,space,5.9818,high,0,0,0,0,1,,,,,,,,,
297715,2022-11-29_19h28.12.287,vts_reward_expectancy_bt,2022.2.4,MacIntel,60.0024001,Chrome,1440,900,,,,,1,1079,,,,,,,,,,,,,,,,,H,160,triangle,1,0,,,,,,,,,,,,,,,,repeat,number,numRpt,k,0.6369,Lo,,,,,,2,,,,,,,,high,1,0,1,0,1,,,,,,,,,
297715,2022-11-29_19h28.12.287,vts_reward_expectancy_bt,2022.2.4,MacIntel,60.0024001,Chrome,1440,900,,,,,10,1089,,,,,,,,,,,,,,,,,D,167,circle,1,0,,,,,,,,,,,,,,,,switch,letter,lettSwt,d,0.5708,Hi,,,,,,2,,,,,,,,high,2,0,2,0,1,,,,,,,,,
297715,2022-11-29_19h28.12.287,vts_reward_expectancy_bt,2022.2.4,MacIntel,60.0024001,Chrome,1440,900,,,,,1,1090,,,,,,,,,,,,,,,,,U,174,star,1,0,,,,,,,,,,,,,,,,repeat,letter,lettRpt,f,0.6352,Lo,,,,,,2,,,,,,,,high,3,0,3,0,1,,,,,,,,,
297715,2022-11-29_19h28.12.287,vts_reward_expectancy_bt,2022.2.4,MacIntel,60.0024001,Chrome,1440,900,,,,,10,1100,,,,,,,,,,,,,,,,,W,132,hexagon,1,0,,,,,,,,,,,,,,,,repeat,letter,lettRpt,f,0.682,Hi,,,,,,2,,,,,,,,high,4,0,4,0,1,,,,,,,,,
297715,2022-11-29_19h28.12.287,vts_reward_expectancy_bt,2022.2.4,MacIntel,60.0024001,Chrome,1440,900,,,,,1,1101,,,,,,,,,,,,,,,,,B,139,triangle,1,0,,,,,,,,,,,,,,,,switch,number,numSwt,j,0.7,Lo,,,,,,2,,,,,,,,high,5,0,5,0,1,,,,,,,,,
297715,2022-11-29_19h28.12.287,vts_reward_expectancy_bt,2022.2.4,MacIntel,60.0024001,Chrome,1440,900,,,,,10,1111,,,,,,,,,,,,,,,,,Y,125,circle,1,0,,,,,,,,,,,,,,,,repeat,number,numRpt,j,0.6127,Hi,,,,,,2,,,,,,,,high,6,0,6,0,1,,,,,,,,,
297715,2022-11-29_19h28.12.287,vts_reward_expectancy_bt,2022.2.4,MacIntel,60.0024001,Chrome,1440,900,,,,,1,1112,,,,,,,,,,,,,,,,,F,146,star,1,0,,,,,,,,,,,,,,,,repeat,number,numRpt,j,0.75,Lo,,,,,,2,,,,,,,,high,7,0,7,0,1,,,,,,,,,
297715,2022-11-29_19h28.12.287,vts_reward_expectancy_bt,2022.2.4,MacIntel,60.0024001,Chrome,1440,900,,,,,1,1113,,,,,,,,,,,,,,,,,S,181,star,1,0,,,,,,,,,,,,,,,,repeat,number,numRpt,k,0.6835,Lo,,,,,,2,,,,,,,,high,8,0,8,0,1,,,,,,,,,
297715,2022-11-29_19h28.12.287,vts_reward_expectancy_bt,2022.2.4,MacIntel,60.0024001,Chrome,1440,900,,,,,0,1113,,,,,,,,,,,,,,,,,H,160,triangle,0,0,,,,,,,,,,,,,,,,switch,letter,NA,f,0.8351,Lo,,,,,,2,,,,,,,,high,9,0,9,0,1,,,,,,,,,
297715,2022-11-29_19h28.12.287,vts_reward_expectancy_bt,2022.2.4,MacIntel,60.0024001,Chrome,1440,900,,,,,10,1123,,,,,,,,,,,,,,,,,D,167,hexagon,1,1,,,,,,,,,,,,,,,,repeat,letter,lettRpt,d,0.7261,Hi,,,,,,2,,,,,,,,high,10,0,10,0,1,,,,,,,,,
297715,2022-11-29_19h28.12.287,vts_reward_expectancy_bt,2022.2.4,MacIntel,60.0024001,Chrome,1440,900,,,,,0,1123,,,,,,,,,,,,,,,,,U,174,circle,1,0,,,,,,,,,,,,,,,,repeat,letter,lettRpt,f,1.2957,Hi,,,,,,2,,,,,,,,high,11,0,11,0,1,,,,,,,,,
297715,2022-11-29_19h28.12.287,vts_reward_expectancy_bt,2022.2.4,MacIntel,60.0024001,Chrome,1440,900,,,,,0,1123,,,,,,,,,,,,,,,,,W,132,hexagon,1,0,,,,,,,,,,,,,,,,repeat,letter,lettRpt,f,0.8814,Hi,,,,,,2,,,,,,,,high,12,0,12,0,1,,,,,,,,,
297715,2022-11-29_19h28.12.287,vts_reward_expectancy_bt,2022.2.4,MacIntel,60.0024001,Chrome,1440,900,,,,,1,1124,,,,,,,,,,,,,,,,,B,139,triangle,1,0,,,,,,,,,,,,,,,,repeat,letter,lettRpt,d,0.6709,Lo,,,,,,2,,,,,,,,high,13,0,13,0,1,,,,,,,,,
297715,2022-11-29_19h28.12.287,vts_reward_expectancy_bt,2022.2.4,MacIntel,60.0024001,Chrome,1440,900,,,,,1,1125,,,,,,,,,,,,,,,,,Y,125,star,1,0,,,,,,,,,,,,,,,,switch,number,numSwt,j,0.7039,Lo,,,,,,2,,,,,,,,high,14,0,14,0,1,,,,,,,,,
297715,2022-11-29_19h28.12.287,vts_reward_expectancy_bt,2022.2.4,MacIntel,60.0024001,Chrome,1440,900,,,,,0,1125,,,,,,,,,,,,,,,,,F,146,circle,1,0,,,,,,,,,,,,,,,,repeat,number,numRpt,j,0.8199,Hi,,,,,,2,,,,,,,,high,15,0,15,0,1,,,,,,,,,
297715,2022-11-29_19h28.12.287,vts_reward_expectancy_bt,2022.2.4,MacIntel,60.0024001,Chrome,1440,900,,,,,10,1135,,,,,,,,,,,,,,,,,W,132,hexagon,1,0,,,,,,,,,,,,,,,,repeat,number,numRpt,j,0.5357,Hi,,,,,,2,,,,,,,,high,16,0,16,0,1,,,,,,,,,
297715,2022-11-29_19h28.12.287,vts_reward_expectancy_bt,2022.2.4,MacIntel,60.0024001,Chrome,1440,900,,,,,10,1145,,,,,,,,,,,,,,,,,U,167,star,1,0,,,,,,,,,,,,,,,,switch,letter,lettSwt,f,0.5962,Lo,,,,,,2,,,,,,,,high,17,0,17,0,1,,,,,,,,,
297715,2022-11-29_19h28.12.287,vts_reward_expectancy_bt,2022.2.4,MacIntel,60.0024001,Chrome,1440,900,,,,,1,1146,,,,,,,,,,,,,,,,,H,181,triangle,1,0,,,,,,,,,,,,,,,,repeat,letter,lettRpt,d,0.7022,Lo,,,,,,2,,,,,,,,high,18,0,18,0,1,,,,,,,,,
297715,2022-11-29_19h28.12.287,vts_reward_expectancy_bt,2022.2.4,MacIntel,60.0024001,Chrome,1440,900,,,,,0,1146,,,,,,,,,,,,,,,,,S,139,circle,1,0,,,,,,,,,,,,,,,,repeat,letter,lettRpt,f,1.2603,Hi,,,,,,2,,,,,,,,high,19,0,19,0,1,,,,,,,,,
297715,2022-11-29_19h28.12.287,vts_reward_expectancy_bt,2022.2.4,MacIntel,60.0024001,Chrome,1440,900,,,,,10,1156,,,,,,,,,,,,,,,,,B,125,circle,1,0,,,,,,,,,,,,,,,,switch,number,numSwt,j,0.6821,Hi,,,,,,2,,,,,,,,high,20,0,20,0,1,,,,,,,,,
297715,2022-11-29_19h28.12.287,vts_reward_expectancy_bt,2022.2.4,MacIntel,60.0024001,Chrome,1440,900,,,,,0,1156,,,,,,,,,,,,,,,,,F,160,hexagon,1,0,,,,,,,,,,,,,,,,switch,letter,lettSwt,d,0.7661,Hi,,,,,,2,,,,,,,,high,21,0,21,0,1,,,,,,,,,
297715,2022-11-29_19h28.12.287,vts_reward_expectancy_bt,2022.2.4,MacIntel,60.0024001,Chrome,1440,900,,,,,0,1156,,,,,,,,,,,,,,,,,D,146,star,0,0,,,,,,,,,,,,,,,,switch,number,NA,k,0.8509,Hi,,,,,,2,,,,,,,,high,22,0,22,0,1,,,,,,,,,
297715,2022-11-29_19h28.12.287,vts_reward_expectancy_bt,2022.2.4,MacIntel,60.0024001,Chrome,1440,900,,,,,10,1166,,,,,,,,,,,,,,,,,Y,174,triangle,1,1,,,,,,,,,,,,,,,,repeat,number,numRpt,k,0.8208,Lo,,,,,,2,,,,,,,,high,23,0,23,0,1,,,,,,,,,
297715,2022-11-29_19h28.12.287,vts_reward_expectancy_bt,2022.2.4,MacIntel,60.0024001,Chrome,1440,900,,,,,1,1167,,,,,,,,,,,,,,,,,B,167,star,1,0,,,,,,,,,,,,,,,,repeat,number,numRpt,k,1.2849,Lo,,,,,,2,,,,,,,,high,24,0,24,0,1,,,,,,,,,
297715,2022-11-29_19h28.12.287,vts_reward_expectancy_bt,2022.2.4,MacIntel,60.0024001,Chrome,1440,900,,,,,10,1177,,,,,,,,,,,,,,,,,F,132,triangle,1,0,,,,,,,,,,,,,,,,switch,letter,lettSwt,d,1.0024,Lo,,,,,,2,,,,,,,,high,25,0,25,0,1,,,,,,,,,
297715,2022-11-29_19h28.12.287,vts_reward_expectancy_bt,2022.2.4,MacIntel,60.0024001,Chrome,1440,900,,,,,0,1177,,,,,,,,,,,,,,,,,Y,174,hexagon,1,0,,,,,,,,,,,,,,,,repeat,letter,lettRpt,f,0.9681,Hi,,,,,,2,,,,,,,,high,26,0,26,0,1,,,,,,,,,
297715,2022-11-29_19h28.12.287,vts_reward_expectancy_bt,2022.2.4,MacIntel,60.0024001,Chrome,1440,900,,,,,0,1177,,,,,,,,,,,,,,,,,U,139,circle,1,0,,,,,,,,,,,,,,,,repeat,letter,lettRpt,f,0.8684,Hi,,,,,,2,,,,,,,,high,27,0,27,0,1,,,,,,,,,
297715,2022-11-29_19h28.12.287,vts_reward_expectancy_bt,2022.2.4,MacIntel,60.0024001,Chrome,1440,900,,,,,10,1187,,,,,,,,,,,,,,,,,D,146,hexagon,1,0,,,,,,,,,,,,,,,,repeat,letter,lettRpt,d,0.6456,Hi,,,,,,2,,,,,,,,high,28,0,28,0,1,,,,,,,,,
297715,2022-11-29_19h28.12.287,vts_reward_expectancy_bt,2022.2.4,MacIntel,60.0024001,Chrome,1440,900,,,,,1,1188,,,,,,,,,,,,,,,,,W,125,star,1,0,,,,,,,,,,,,,,,,repeat,letter,lettRpt,f,0.7133,Lo,,,,,,2,,,,,,,,high,29,0,29,0,1,,,,,,,,,
297715,2022-11-29_19h28.12.287,vts_reward_expectancy_bt,2022.2.4,MacIntel,60.0024001,Chrome,1440,900,,,,,10,1198,,,,,,,,,,,,,,,,,H,181,circle,1,0,,,,,,,,,,,,,,,,switch,number,numSwt,k,0.7145,Hi,,,,,,2,,,,,,,,high,30,0,30,0,1,,,,,,,,,
297715,2022-11-29_19h28.12.287,vts_reward_expectancy_bt,2022.2.4,MacIntel,60.0024001,Chrome,1440,900,,,,,1,1199,,,,,,,,,,,,,,,,,S,160,triangle,1,0,,,,,,,,,,,,,,,,repeat,number,numRpt,k,0.913,Lo,,,,,,2,,,,,,,,high,31,0,31,0,1,,,,,,,,,
297715,2022-11-29_19h28.12.287,vts_reward_expectancy_bt,2022.2.4,MacIntel,60.0024001,Chrome,1440,900,,,,,0,1199,,,,,,,,,,,,,,,,,B,132,hexagon,1,0,,,,,,,,,,,,,,,,repeat,number,numRpt,j,0.8197,Hi,,,,,,3,,,,,,space,227.4491,high,0,0,0,0,1,,,,,,,,,
297715,2022-11-29_19h28.12.287,vts_reward_expectancy_bt,2022.2.4,MacIntel,60.0024001,Chrome,1440,900,,,,,1,1200,,,,,,,,,,,,,,,,,U,125,star,1,0,,,,,,,,,,,,,,,,repeat,number,numRpt,j,0.5524,Lo,,,,,,3,,,,,,,,high,1,0,1,0,1,,,,,,,,,
297715,2022-11-29_19h28.12.287,vts_reward_expectancy_bt,2022.2.4,MacIntel,60.0024001,Chrome,1440,900,,,,,1,1201,,,,,,,,,,,,,,,,,H,174,triangle,1,0,,,,,,,,,,,,,,,,switch,letter,lettSwt,d,0.7066,Lo,,,,,,3,,,,,,,,high,2,0,2,0,1,,,,,,,,,
297715,2022-11-29_19h28.12.287,vts_reward_expectancy_bt,2022.2.4,MacIntel,60.0024001,Chrome,1440,900,,,,,0,1201,,,,,,,,,,,,,,,,,D,146,circle,1,0,,,,,,,,,,,,,,,,repeat,letter,lettRpt,d,0.7011,Hi,,,,,,3,,,,,,,,high,3,0,3,0,1,,,,,,,,,
297715,2022-11-29_19h28.12.287,vts_reward_expectancy_bt,2022.2.4,MacIntel,60.0024001,Chrome,1440,900,,,,,0,1201,,,,,,,,,,,,,,,,,W,181,hexagon,1,0,,,,,,,,,,,,,,,,repeat,letter,lettRpt,f,0.8807,Hi,,,,,,3,,,,,,,,high,4,0,4,0,1,,,,,,,,,
297715,2022-11-29_19h28.12.287,vts_reward_expectancy_bt,2022.2.4,MacIntel,60.0024001,Chrome,1440,900,,,,,0,1201,,,,,,,,,,,,,,,,,S,139,star,0,0,,,,,,,,,,,,,,,,repeat,letter,NA,d,0.6635,Hi,,,,,,3,,,,,,,,high,5,0,5,0,1,,,,,,,,,
297715,2022-11-29_19h28.12.287,vts_reward_expectancy_bt,2022.2.4,MacIntel,60.0024001,Chrome,1440,900,,,,,1,1202,,,,,,,,,,,,,,,,,F,167,triangle,1,1,,,,,,,,,,,,,,,,switch,number,numSwt,k,0.9794,Lo,,,,,,3,,,,,,,,high,6,0,6,0,1,,,,,,,,,
297715,2022-11-29_19h28.12.287,vts_reward_expectancy_bt,2022.2.4,MacIntel,60.0024001,Chrome,1440,900,,,,,0,1202,,,,,,,,,,,,,,,,,Y,160,circle,1,0,,,,,,,,,,,,,,,,repeat,number,numRpt,k,0.7266,Hi,,,,,,3,,,,,,,,high,7,0,7,0,1,,,,,,,,,
297715,2022-11-29_19h28.12.287,vts_reward_expectancy_bt,2022.2.4,MacIntel,60.0024001,Chrome,1440,900,,,,,10,1212,,,,,,,,,,,,,,,,,B,132,hexagon,1,0,,,,,,,,,,,,,,,,repeat,number,numRpt,j,0.6422,Hi,,,,,,3,,,,,,,,high,8,0,8,0,1,,,,,,,,,
297715,2022-11-29_19h28.12.287,vts_reward_expectancy_bt,2022.2.4,MacIntel,60.0024001,Chrome,1440,900,,,,,1,1213,,,,,,,,,,,,,,,,,U,125,triangle,1,0,,,,,,,,,,,,,,,,repeat,number,numRpt,j,0.5919,Lo,,,,,,3,,,,,,,,high,9,0,9,0,1,,,,,,,,,
297715,2022-11-29_19h28.12.287,vts_reward_expectancy_bt,2022.2.4,MacIntel,60.0024001,Chrome,1440,900,,,,,1,1214,,,,,,,,,,,,,,,,,H,174,star,1,0,,,,,,,,,,,,,,,,switch,letter,lettSwt,d,0.891,Lo,,,,,,3,,,,,,,,high,10,0,10,0,1,,,,,,,,,
297715,2022-11-29_19h28.12.287,vts_reward_expectancy_bt,2022.2.4,MacIntel,60.0024001,Chrome,1440,900,,,,,0,1214,,,,,,,,,,,,,,,,,D,146,circle,1,0,,,,,,,,,,,,,,,,repeat,letter,lettRpt,d,0.7585,Hi,,,,,,3,,,,,,,,high,11,0,11,0,1,,,,,,,,,
297715,2022-11-29_19h28.12.287,vts_reward_expectancy_bt,2022.2.4,MacIntel,60.0024001,Chrome,1440,900,,,,,1,1215,,,,,,,,,,,,,,,,,W,181,triangle,1,0,,,,,,,,,,,,,,,,repeat,letter,lettRpt,f,0.7307,Lo,,,,,,3,,,,,,,,high,12,0,12,0,1,,,,,,,,,
297715,2022-11-29_19h28.12.287,vts_reward_expectancy_bt,2022.2.4,MacIntel,60.0024001,Chrome,1440,900,,,,,0,1215,,,,,,,,,,,,,,,,,S,139,hexagon,1,0,,,,,,,,,,,,,,,,switch,number,numSwt,j,0.8972,Hi,,,,,,3,,,,,,,,high,13,0,13,0,1,,,,,,,,,
297715,2022-11-29_19h28.12.287,vts_reward_expectancy_bt,2022.2.4,MacIntel,60.0024001,Chrome,1440,900,,,,,1,1216,,,,,,,,,,,,,,,,,F,167,star,1,0,,,,,,,,,,,,,,,,repeat,number,numRpt,k,0.696,Lo,,,,,,3,,,,,,,,high,14,0,14,0,1,,,,,,,,,
297715,2022-11-29_19h28.12.287,vts_reward_expectancy_bt,2022.2.4,MacIntel,60.0024001,Chrome,1440,900,,,,,0,1216,,,,,,,,,,,,,,,,,Y,160,circle,1,0,,,,,,,,,,,,,,,,repeat,number,numRpt,k,0.8942,Hi,,,,,,3,,,,,,,,high,15,0,15,0,1,,,,,,,,,
297715,2022-11-29_19h28.12.287,vts_reward_expectancy_bt,2022.2.4,MacIntel,60.0024001,Chrome,1440,900,,,,,10,1226,,,,,,,,,,,,,,,,,S,181,circle,1,0,,,,,,,,,,,,,,,,repeat,number,numRpt,k,0.5643,Hi,,,,,,3,,,,,,,,high,16,0,16,0,1,,,,,,,,,
297715,2022-11-29_19h28.12.287,vts_reward_expectancy_bt,2022.2.4,MacIntel,60.0024001,Chrome,1440,900,,,,,1,1227,,,,,,,,,,,,,,,,,H,139,triangle,1,0,,,,,,,,,,,,,,,,switch,letter,lettSwt,d,0.799,Lo,,,,,,3,,,,,,,,high,17,0,17,0,1,,,,,,,,,
297715,2022-11-29_19h28.12.287,vts_reward_expectancy_bt,2022.2.4,MacIntel,60.0024001,Chrome,1440,900,,,,,0,1227,,,,,,,,,,,,,,,,,U,174,hexagon,1,0,,,,,,,,,,,,,,,,repeat,letter,lettRpt,f,0.7982,Hi,,,,,,3,,,,,,,,high,18,0,18,0,1,,,,,,,,,
297715,2022-11-29_19h28.12.287,vts_reward_expectancy_bt,2022.2.4,MacIntel,60.0024001,Chrome,1440,900,,,,,10,1237,,,,,,,,,,,,,,,,,Y,146,star,1,0,,,,,,,,,,,,,,,,repeat,letter,lettRpt,f,0.7816,Lo,,,,,,3,,,,,,,,high,19,0,19,0,1,,,,,,,,,
297715,2022-11-29_19h28.12.287,vts_reward_expectancy_bt,2022.2.4,MacIntel,60.0024001,Chrome,1440,900,,,,,0,1237,,,,,,,,,,,,,,,,,F,167,circle,1,0,,,,,,,,,,,,,,,,switch,number,numSwt,k,0.8081,Hi,,,,,,3,,,,,,,,high,20,0,20,0,1,,,,,,,,,
297715,2022-11-29_19h28.12.287,vts_reward_expectancy_bt,2022.2.4,MacIntel,60.0024001,Chrome,1440,900,,,,,10,1247,,,,,,,,,,,,,,,,,D,132,hexagon,1,0,,,,,,,,,,,,,,,,repeat,number,numRpt,j,0.6537,Hi,,,,,,3,,,,,,,,high,21,0,21,0,1,,,,,,,,,
297715,2022-11-29_19h28.12.287,vts_reward_expectancy_bt,2022.2.4,MacIntel,60.0024001,Chrome,1440,900,,,,,1,1248,,,,,,,,,,,,,,,,,W,125,star,1,0,,,,,,,,,,,,,,,,switch,letter,lettSwt,f,0.6631,Lo,,,,,,3,,,,,,,,high,22,0,22,0,1,,,,,,,,,
297715,2022-11-29_19h28.12.287,vts_reward_expectancy_bt,2022.2.4,MacIntel,60.0024001,Chrome,1440,900,,,,,1,1249,,,,,,,,,,,,,,,,,B,160,triangle,1,0,,,,,,,,,,,,,,,,repeat,letter,lettRpt,d,0.5671,Lo,,,,,,3,,,,,,,,high,23,0,23,0,1,,,,,,,,,
297715,2022-11-29_19h28.12.287,vts_reward_expectancy_bt,2022.2.4,MacIntel,60.0024001,Chrome,1440,900,,,,,1,1250,,,,,,,,,,,,,,,,,S,125,triangle,1,0,,,,,,,,,,,,,,,,switch,number,numSwt,j,0.6972,Lo,,,,,,3,,,,,,,,high,24,0,24,0,1,,,,,,,,,
297715,2022-11-29_19h28.12.287,vts_reward_expectancy_bt,2022.2.4,MacIntel,60.0024001,Chrome,1440,900,,,,,10,1260,,,,,,,,,,,,,,,,,D,132,hexagon,1,0,,,,,,,,,,,,,,,,repeat,number,numRpt,j,0.6516,Hi,,,,,,3,,,,,,,,high,25,0,25,0,1,,,,,,,,,
297715,2022-11-29_19h28.12.287,vts_reward_expectancy_bt,2022.2.4,MacIntel,60.0024001,Chrome,1440,900,,,,,0,1260,,,,,,,,,,,,,,,,,B,139,circle,1,0,,,,,,,,,,,,,,,,repeat,number,numRpt,j,0.8438,Hi,,,,,,3,,,,,,,,high,26,0,26,0,1,,,,,,,,,
297715,2022-11-29_19h28.12.287,vts_reward_expectancy_bt,2022.2.4,MacIntel,60.0024001,Chrome,1440,900,,,,,1,1261,,,,,,,,,,,,,,,,,Y,167,star,1,0,,,,,,,,,,,,,,,,switch,letter,lettSwt,f,0.7301,Lo,,,,,,3,,,,,,,,high,27,0,27,0,1,,,,,,,,,
297715,2022-11-29_19h28.12.287,vts_reward_expectancy_bt,2022.2.4,MacIntel,60.0024001,Chrome,1440,900,,,,,0,1261,,,,,,,,,,,,,,,,,U,146,circle,1,0,,,,,,,,,,,,,,,,switch,number,numSwt,j,0.7968,Hi,,,,,,3,,,,,,,,high,28,0,28,0,1,,,,,,,,,
297715,2022-11-29_19h28.12.287,vts_reward_expectancy_bt,2022.2.4,MacIntel,60.0024001,Chrome,1440,900,,,,,1,1262,,,,,,,,,,,,,,,,,W,174,star,1,0,,,,,,,,,,,,,,,,switch,letter,lettSwt,f,0.6637,Lo,,,,,,3,,,,,,,,high,29,0,29,0,1,,,,,,,,,
297715,2022-11-29_19h28.12.287,vts_reward_expectancy_bt,2022.2.4,MacIntel,60.0024001,Chrome,1440,900,,,,,10,1272,,,,,,,,,,,,,,,,,H,160,hexagon,1,0,,,,,,,,,,,,,,,,switch,number,numSwt,k,0.5791,Hi,,,,,,3,,,,,,,,high,30,0,30,0,1,,,,,,,,,
297715,2022-11-29_19h28.12.287,vts_reward_expectancy_bt,2022.2.4,MacIntel,60.0024001,Chrome,1440,900,,,,,1,1273,,,,,,,,,,,,,,,,,F,181,triangle,1,0,,,,,,,,,,,,,,,,switch,letter,lettSwt,d,1.0335,Lo,,,,,,3,,,,,,,,high,31,0,31,0,1,,,,,,,,,
297715,2022-11-29_19h28.12.287,vts_reward_expectancy_bt,2022.2.4,MacIntel,60.0024001,Chrome,1440,900,,,,,10,1283,,,,,,,,,,,,,,,,,U,181,star,1,0,,,,,,,,,,,,,,,,switch,number,numSwt,k,0.6498,Lo,,,,,,4,,,,,,space,0.7002,high,0,0,0,0,1,,,,,,,,,
297715,2022-11-29_19h28.12.287,vts_reward_expectancy_bt,2022.2.4,MacIntel,60.0024001,Chrome,1440,900,,,,,1,1284,,,,,,,,,,,,,,,,,B,139,triangle,1,0,,,,,,,,,,,,,,,,switch,letter,lettSwt,d,0.6501,Lo,,,,,,4,,,,,,,,high,1,0,1,0,1,,,,,,,,,
297715,2022-11-29_19h28.12.287,vts_reward_expectancy_bt,2022.2.4,MacIntel,60.0024001,Chrome,1440,900,,,,,10,1294,,,,,,,,,,,,,,,,,F,146,hexagon,1,0,,,,,,,,,,,,,,,,switch,number,numSwt,j,0.6819,Hi,,,,,,4,,,,,,,,high,2,0,2,0,1,,,,,,,,,
297715,2022-11-29_19h28.12.287,vts_reward_expectancy_bt,2022.2.4,MacIntel,60.0024001,Chrome,1440,900,,,,,10,1304,,,,,,,,,,,,,,,,,Y,174,circle,1,0,,,,,,,,,,,,,,,,repeat,number,numRpt,k,0.5807,Hi,,,,,,4,,,,,,,,high,3,0,3,0,1,,,,,,,,,
297715,2022-11-29_19h28.12.287,vts_reward_expectancy_bt,2022.2.4,MacIntel,60.0024001,Chrome,1440,900,,,,,1,1305,,,,,,,,,,,,,,,,,D,160,star,1,0,,,,,,,,,,,,,,,,switch,letter,lettSwt,d,0.8928,Lo,,,,,,4,,,,,,,,high,4,0,4,0,1,,,,,,,,,
297715,2022-11-29_19h28.12.287,vts_reward_expectancy_bt,2022.2.4,MacIntel,60.0024001,Chrome,1440,900,,,,,1,1306,,,,,,,,,,,,,,,,,W,167,triangle,1,0,,,,,,,,,,,,,,,,repeat,letter,lettRpt,f,0.6648,Lo,,,,,,4,,,,,,,,high,5,0,5,0,1,,,,,,,,,
297715,2022-11-29_19h28.12.287,vts_reward_expectancy_bt,2022.2.4,MacIntel,60.0024001,Chrome,1440,900,,,,,0,1306,,,,,,,,,,,,,,,,,S,125,hexagon,0,0,,,,,,,,,,,,,,,,repeat,letter,NA,d,0.8109,Lo,,,,,,4,,,,,,,,high,6,0,6,0,1,,,,,,,,,
297715,2022-11-29_19h28.12.287,vts_reward_expectancy_bt,2022.2.4,MacIntel,60.0024001,Chrome,1440,900,,,,,10,1316,,,,,,,,,,,,,,,,,H,132,circle,1,1,,,,,,,,,,,,,,,,switch,number,numSwt,j,0.5546,Hi,,,,,,4,,,,,,,,high,7,0,7,0,1,,,,,,,,,
297715,2022-11-29_19h28.12.287,vts_reward_expectancy_bt,2022.2.4,MacIntel,60.0024001,Chrome,1440,900,,,,,1,1317,,,,,,,,,,,,,,,,,U,181,triangle,1,0,,,,,,,,,,,,,,,,switch,letter,lettSwt,f,0.6437,Lo,,,,,,4,,,,,,,,high,8,0,8,0,1,,,,,,,,,
297715,2022-11-29_19h28.12.287,vts_reward_expectancy_bt,2022.2.4,MacIntel,60.0024001,Chrome,1440,900,,,,,1,1318,,,,,,,,,,,,,,,,,B,139,star,1,0,,,,,,,,,,,,,,,,repeat,letter,lettRpt,d,0.6453,Lo,,,,,,4,,,,,,,,high,9,0,9,0,1,,,,,,,,,
297715,2022-11-29_19h28.12.287,vts_reward_expectancy_bt,2022.2.4,MacIntel,60.0024001,Chrome,1440,900,,,,,0,1318,,,,,,,,,,,,,,,,,F,146,circle,1,0,,,,,,,,,,,,,,,,switch,number,numSwt,j,0.765,Hi,,,,,,4,,,,,,,,high,10,0,10,0,1,,,,,,,,,
297715,2022-11-29_19h28.12.287,vts_reward_expectancy_bt,2022.2.4,MacIntel,60.0024001,Chrome,1440,900,,,,,0,1318,,,,,,,,,,,,,,,,,Y,174,hexagon,1,0,,,,,,,,,,,,,,,,repeat,number,numRpt,k,0.7304,Hi,,,,,,4,,,,,,,,high,11,0,11,0,1,,,,,,,,,
297715,2022-11-29_19h28.12.287,vts_reward_expectancy_bt,2022.2.4,MacIntel,60.0024001,Chrome,1440,900,,,,,10,1328,,,,,,,,,,,,,,,,,D,160,hexagon,1,0,,,,,,,,,,,,,,,,repeat,number,numRpt,k,0.6007,Hi,,,,,,4,,,,,,,,high,12,0,12,0,1,,,,,,,,,
297715,2022-11-29_19h28.12.287,vts_reward_expectancy_bt,2022.2.4,MacIntel,60.0024001,Chrome,1440,900,,,,,1,1329,,,,,,,,,,,,,,,,,W,167,star,1,0,,,,,,,,,,,,,,,,switch,letter,lettSwt,f,0.8687,Lo,,,,,,4,,,,,,,,high,13,0,13,0,1,,,,,,,,,
297715,2022-11-29_19h28.12.287,vts_reward_expectancy_bt,2022.2.4,MacIntel,60.0024001,Chrome,1440,900,,,,,0,1329,,,,,,,,,,,,,,,,,S,125,triangle,0,0,,,,,,,,,,,,,,,,repeat,letter,NA,d,0.8039,Lo,,,,,,4,,,,,,,,high,14,0,14,0,1,,,,,,,,,
297715,2022-11-29_19h28.12.287,vts_reward_expectancy_bt,2022.2.4,MacIntel,60.0024001,Chrome,1440,900,,,,,1,1330,,,,,,,,,,,,,,,,,H,132,circle,1,1,,,,,,,,,,,,,,,,switch,number,numSwt,j,0.6141,Hi,,,,,,4,,,,,,,,high,15,0,15,0,1,,,,,,,,,
297715,2022-11-29_19h28.12.287,vts_reward_expectancy_bt,2022.2.4,MacIntel,60.0024001,Chrome,1440,900,,,,,0,1330,,,,,,,,,,,,,,,,,D,160,star,0,0,,,,,,,,,,,,,,,,repeat,number,NA,j,1.0817,Hi,,,,,,4,,,,,,,,high,16,0,16,0,1,,,,,,,,,
297715,2022-11-29_19h28.12.287,vts_reward_expectancy_bt,2022.2.4,MacIntel,60.0024001,Chrome,1440,900,,,,,0,1330,,,,,,,,,,,,,,,,,S,146,hexagon,0,1,,,,,,,,,,,,,,,,repeat,number,NA,k,0.6156,Hi,,,,,,4,,,,,,,,high,17,0,17,0,1,,,,,,,,,
297715,2022-11-29_19h28.12.287,vts_reward_expectancy_bt,2022.2.4,MacIntel,60.0024001,Chrome,1440,900,,,,,1,1331,,,,,,,,,,,,,,,,,U,132,triangle,1,1,,,,,,,,,,,,,,,,switch,letter,lettSwt,f,0.8615,Lo,,,,,,4,,,,,,,,high,18,0,18,0,1,,,,,,,,,
297715,2022-11-29_19h28.12.287,vts_reward_expectancy_bt,2022.2.4,MacIntel,60.0024001,Chrome,1440,900,,,,,0,1331,,,,,,,,,,,,,,,,,B,167,circle,1,0,,,,,,,,,,,,,,,,repeat,letter,lettRpt,d,0.7302,Hi,,,,,,4,,,,,,,,high,19,0,19,0,1,,,,,,,,,
297715,2022-11-29_19h28.12.287,vts_reward_expectancy_bt,2022.2.4,MacIntel,60.0024001,Chrome,1440,900,,,,,10,1341,,,,,,,,,,,,,,,,,F,181,triangle,1,0,,,,,,,,,,,,,,,,repeat,letter,lettRpt,d,0.7971,Lo,,,,,,4,,,,,,,,high,20,0,20,0,1,,,,,,,,,
297715,2022-11-29_19h28.12.287,vts_reward_expectancy_bt,2022.2.4,MacIntel,60.0024001,Chrome,1440,900,,,,,1,1342,,,,,,,,,,,,,,,,,H,174,star,1,0,,,,,,,,,,,,,,,,repeat,letter,lettRpt,d,0.6477,Lo,,,,,,4,,,,,,,,high,21,0,21,0,1,,,,,,,,,
297715,2022-11-29_19h28.12.287,vts_reward_expectancy_bt,2022.2.4,MacIntel,60.0024001,Chrome,1440,900,,,,,10,1352,,,,,,,,,,,,,,,,,Y,125,circle,1,0,,,,,,,,,,,,,,,,switch,number,numSwt,j,0.5114,Hi,,,,,,4,,,,,,,,high,22,0,22,0,1,,,,,,,,,
297715,2022-11-29_19h28.12.287,vts_reward_expectancy_bt,2022.2.4,MacIntel,60.0024001,Chrome,1440,900,,,,,10,1362,,,,,,,,,,,,,,,,,W,139,hexagon,1,0,,,,,,,,,,,,,,,,repeat,number,numRpt,j,0.5967,Hi,,,,,,4,,,,,,,,high,23,0,23,0,1,,,,,,,,,
297715,2022-11-29_19h28.12.287,vts_reward_expectancy_bt,2022.2.4,MacIntel,60.0024001,Chrome,1440,900,,,,,10,1372,,,,,,,,,,,,,,,,,U,174,circle,1,0,,,,,,,,,,,,,,,,repeat,number,numRpt,k,0.585,Hi,,,,,,4,,,,,,,,high,24,0,24,0,1,,,,,,,,,
297715,2022-11-29_19h28.12.287,vts_reward_expectancy_bt,2022.2.4,MacIntel,60.0024001,Chrome,1440,900,,,,,1,1373,,,,,,,,,,,,,,,,,F,181,triangle,1,0,,,,,,,,,,,,,,,,switch,letter,lettSwt,d,0.7784,Lo,,,,,,4,,,,,,,,high,25,0,25,0,1,,,,,,,,,
297715,2022-11-29_19h28.12.287,vts_reward_expectancy_bt,2022.2.4,MacIntel,60.0024001,Chrome,1440,900,,,,,1,1374,,,,,,,,,,,,,,,,,D,125,hexagon,1,0,,,,,,,,,,,,,,,,repeat,letter,lettRpt,d,0.7192,Hi,,,,,,4,,,,,,,,high,26,0,26,0,1,,,,,,,,,
297715,2022-11-29_19h28.12.287,vts_reward_expectancy_bt,2022.2.4,MacIntel,60.0024001,Chrome,1440,900,,,,,1,1375,,,,,,,,,,,,,,,,,B,146,star,1,0,,,,,,,,,,,,,,,,switch,number,numSwt,j,0.9961,Lo,,,,,,4,,,,,,,,high,27,0,27,0,1,,,,,,,,,
297715,2022-11-29_19h28.12.287,vts_reward_expectancy_bt,2022.2.4,MacIntel,60.0024001,Chrome,1440,900,,,,,1,1376,,,,,,,,,,,,,,,,,S,139,star,1,0,,,,,,,,,,,,,,,,repeat,number,numRpt,j,0.7328,Lo,,,,,,4,,,,,,,,high,28,0,28,0,1,,,,,,,,,
297715,2022-11-29_19h28.12.287,vts_reward_expectancy_bt,2022.2.4,MacIntel,60.0024001,Chrome,1440,900,,,,,10,1386,,,,,,,,,,,,,,,,,Y,160,circle,1,0,,,,,,,,,,,,,,,,switch,letter,lettSwt,f,0.6473,Hi,,,,,,4,,,,,,,,high,29,0,29,0,1,,,,,,,,,
297715,2022-11-29_19h28.12.287,vts_reward_expectancy_bt,2022.2.4,MacIntel,60.0024001,Chrome,1440,900,,,,,1,1387,,,,,,,,,,,,,,,,,W,132,triangle,1,0,,,,,,,,,,,,,,,,switch,number,numSwt,j,0.8527,Lo,,,,,,4,,,,,,,,high,30,0,30,0,1,,,,,,,,,
297715,2022-11-29_19h28.12.287,vts_reward_expectancy_bt,2022.2.4,MacIntel,60.0024001,Chrome,1440,900,,,,,0,1387,,,,,,,,,,,,,,,,,H,167,hexagon,1,0,,,,,,,,,,,,,,,,switch,letter,lettSwt,d,0.7999,Hi,,,,,,4,,,,,,,,high,31,0,31,0,1,,,,,,,,,
297715,2022-11-29_19h28.12.287,vts_reward_expectancy_bt,2022.2.4,MacIntel,60.0024001,Chrome,1440,900,,,,,0,1387,,,,,,,,,,,,,,,,,D,146,hexagon,1,0,,,,,,,,,,,,,,,,repeat,letter,lettRpt,d,0.6654,Hi,,,,,,5,,,,,,space,1.0352,high,0,0,0,0,1,,,,,,,,,
297715,2022-11-29_19h28.12.287,vts_reward_expectancy_bt,2022.2.4,MacIntel,60.0024001,Chrome,1440,900,,,,,10,1397,,,,,,,,,,,,,,,,,B,125,circle,1,0,,,,,,,,,,,,,,,,repeat,letter,lettRpt,d,0.6499,Hi,,,,,,5,,,,,,,,high,1,0,1,0,1,,,,,,,,,
297715,2022-11-29_19h28.12.287,vts_reward_expectancy_bt,2022.2.4,MacIntel,60.0024001,Chrome,1440,900,,,,,1,1398,,,,,,,,,,,,,,,,,H,139,star,1,0,,,,,,,,,,,,,,,,switch,number,numSwt,j,0.6667,Lo,,,,,,5,,,,,,,,high,2,0,2,0,1,,,,,,,,,
297715,2022-11-29_19h28.12.287,vts_reward_expectancy_bt,2022.2.4,MacIntel,60.0024001,Chrome,1440,900,,,,,1,1399,,,,,,,,,,,,,,,,,W,174,triangle,1,0,,,,,,,,,,,,,,,,repeat,number,numRpt,k,0.9459,Lo,,,,,,5,,,,,,,,high,3,0,3,0,1,,,,,,,,,
297715,2022-11-29_19h28.12.287,vts_reward_expectancy_bt,2022.2.4,MacIntel,60.0024001,Chrome,1440,900,,,,,10,1409,,,,,,,,,,,,,,,,,U,160,hexagon,1,0,,,,,,,,,,,,,,,,repeat,number,numRpt,k,0.5674,Hi,,,,,,5,,,,,,,,high,4,0,4,0,1,,,,,,,,,
297715,2022-11-29_19h28.12.287,vts_reward_expectancy_bt,2022.2.4,MacIntel,60.0024001,Chrome,1440,900,,,,,0,1409,,,,,,,,,,,,,,,,,S,132,circle,0,0,,,,,,,,,,,,,,,,switch,letter,NA,d,0.9112,Hi,,,,,,5,,,,,,,,high,5,0,5,0,1,,,,,,,,,
297715,2022-11-29_19h28.12.287,vts_reward_expectancy_bt,2022.2.4,MacIntel,60.0024001,Chrome,1440,900,,,,,1,1410,,,,,,,,,,,,,,,,,Y,181,star,1,1,,,,,,,,,,,,,,,,repeat,letter,lettRpt,f,0.7617,Lo,,,,,,5,,,,,,,,high,6,0,6,0,1,,,,,,,,,
297715,2022-11-29_19h28.12.287,vts_reward_expectancy_bt,2022.2.4,MacIntel,60.0024001,Chrome,1440,900,,,,,1,1411,,,,,,,,,,,,,,,,,F,167,triangle,1,0,,,,,,,,,,,,,,,,repeat,letter,lettRpt,d,0.8957,Lo,,,,,,5,,,,,,,,high,7,0,7,0,1,,,,,,,,,
297715,2022-11-29_19h28.12.287,vts_reward_expectancy_bt,2022.2.4,MacIntel,60.0024001,Chrome,1440,900,,,,,1,1412,,,,,,,,,,,,,,,,,D,146,star,1,0,,,,,,,,,,,,,,,,repeat,letter,lettRpt,d,0.631,Lo,,,,,,5,,,,,,,,high,8,0,8,0,1,,,,,,,,,
297715,2022-11-29_19h28.12.287,vts_reward_expectancy_bt,2022.2.4,MacIntel,60.0024001,Chrome,1440,900,,,,,0,1412,,,,,,,,,,,,,,,,,B,125,hexagon,1,0,,,,,,,,,,,,,,,,switch,number,numSwt,j,0.7095,Hi,,,,,,5,,,,,,,,high,9,0,9,0,1,,,,,,,,,
297715,2022-11-29_19h28.12.287,vts_reward_expectancy_bt,2022.2.4,MacIntel,60.0024001,Chrome,1440,900,,,,,0,1412,,,,,,,,,,,,,,,,,H,139,circle,1,0,,,,,,,,,,,,,,,,switch,letter,lettSwt,d,0.716,Hi,,,,,,5,,,,,,,,high,10,0,10,0,1,,,,,,,,,
297715,2022-11-29_19h28.12.287,vts_reward_expectancy_bt,2022.2.4,MacIntel,60.0024001,Chrome,1440,900,,,,,1,1413,,,,,,,,,,,,,,,,,W,174,triangle,1,0,,,,,,,,,,,,,,,,repeat,letter,lettRpt,f,0.6119,Lo,,,,,,5,,,,,,,,high,11,0,11,0,1,,,,,,,,,
297715,2022-11-29_19h28.12.287,vts_reward_expectancy_bt,2022.2.4,MacIntel,60.0024001,Chrome,1440,900,,,,,1,1414,,,,,,,,,,,,,,,,,U,160,star,1,0,,,,,,,,,,,,,,,,switch,number,numSwt,k,0.8479,Lo,,,,,,5,,,,,,,,high,12,0,12,0,1,,,,,,,,,
297715,2022-11-29_19h28.12.287,vts_reward_expectancy_bt,2022.2.4,MacIntel,60.0024001,Chrome,1440,900,,,,,0,1414,,,,,,,,,,,,,,,,,S,132,hexagon,1,0,,,,,,,,,,,,,,,,switch,letter,lettSwt,f,1.016,Hi,,,,,,5,,,,,,,,high,13,0,13,0,1,,,,,,,,,
297715,2022-11-29_19h28.12.287,vts_reward_expectancy_bt,2022.2.4,MacIntel,60.0024001,Chrome,1440,900,,,,,0,1414,,,,,,,,,,,,,,,,,Y,181,circle,1,0,,,,,,,,,,,,,,,,repeat,letter,lettRpt,f,0.9394,Hi,,,,,,5,,,,,,,,high,14,0,14,0,1,,,,,,,,,
297715,2022-11-29_19h28.12.287,vts_reward_expectancy_bt,2022.2.4,MacIntel,60.0024001,Chrome,1440,900,,,,,1,1415,,,,,,,,,,,,,,,,,F,167,triangle,1,0,,,,,,,,,,,,,,,,repeat,letter,lettRpt,d,0.7979,Lo,,,,,,5,,,,,,,,high,15,0,15,0,1,,,,,,,,,
297715,2022-11-29_19h28.12.287,vts_reward_expectancy_bt,2022.2.4,MacIntel,60.0024001,Chrome,1440,900,,,,,1,1416,,,,,,,,,,,,,,,,,F,160,triangle,1,0,,,,,,,,,,,,,,,,switch,number,numSwt,k,0.8686,Lo,,,,,,5,,,,,,,,high,16,0,16,0,1,,,,,,,,,
297715,2022-11-29_19h28.12.287,vts_reward_expectancy_bt,2022.2.4,MacIntel,60.0024001,Chrome,1440,900,,,,,0,1416,,,,,,,,,,,,,,,,,H,132,hexagon,1,0,,,,,,,,,,,,,,,,repeat,number,numRpt,j,0.7787,Hi,,,,,,5,,,,,,,,high,17,0,17,0,1,,,,,,,,,
297715,2022-11-29_19h28.12.287,vts_reward_expectancy_bt,2022.2.4,MacIntel,60.0024001,Chrome,1440,900,,,,,1,1417,,,,,,,,,,,,,,,,,B,181,star,1,0,,,,,,,,,,,,,,,,repeat,number,numRpt,k,0.7877,Lo,,,,,,5,,,,,,,,high,18,0,18,0,1,,,,,,,,,
297715,2022-11-29_19h28.12.287,vts_reward_expectancy_bt,2022.2.4,MacIntel,60.0024001,Chrome,1440,900,,,,,0,1417,,,,,,,,,,,,,,,,,S,167,circle,1,0,,,,,,,,,,,,,,,,switch,letter,lettSwt,f,0.8965,Hi,,,,,,5,,,,,,,,high,19,0,19,0,1,,,,,,,,,
297715,2022-11-29_19h28.12.287,vts_reward_expectancy_bt,2022.2.4,MacIntel,60.0024001,Chrome,1440,900,,,,,1,1418,,,,,,,,,,,,,,,,,W,125,star,1,0,,,,,,,,,,,,,,,,repeat,letter,lettRpt,f,0.9471,Lo,,,,,,5,,,,,,,,high,20,0,20,0,1,,,,,,,,,
297715,2022-11-29_19h28.12.287,vts_reward_expectancy_bt,2022.2.4,MacIntel,60.0024001,Chrome,1440,900,,,,,10,1428,,,,,,,,,,,,,,,,,U,139,triangle,1,0,,,,,,,,,,,,,,,,repeat,letter,lettRpt,f,0.6967,Lo,,,,,,5,,,,,,,,high,21,0,21,0,1,,,,,,,,,
297715,2022-11-29_19h28.12.287,vts_reward_expectancy_bt,2022.2.4,MacIntel,60.0024001,Chrome,1440,900,,,,,0,1428,,,,,,,,,,,,,,,,,Y,146,circle,1,0,,,,,,,,,,,,,,,,switch,number,numSwt,j,1.0486,Hi,,,,,,5,,,,,,,,high,22,0,22,0,1,,,,,,,,,
297715,2022-11-29_19h28.12.287,vts_reward_expectancy_bt,2022.2.4,MacIntel,60.0024001,Chrome,1440,900,,,,,0,1428,,,,,,,,,,,,,,,,,D,174,hexagon,1,0,,,,,,,,,,,,,,,,repeat,number,numRpt,k,1.6356,Hi,,,,,,5,,,,,,,,high,23,0,23,0,1,,,,,,,,,
297715,2022-11-29_19h28.12.287,vts_reward_expectancy_bt,2022.2.4,MacIntel,60.0024001,Chrome,1440,900,,,,,10,1438,,,,,,,,,,,,,,,,,S,167,star,1,0,,,,,,,,,,,,,,,,repeat,number,numRpt,k,0.7472,Lo,,,,,,5,,,,,,,,high,24,0,24,0,1,,,,,,,,,
297715,2022-11-29_19h28.12.287,vts_reward_expectancy_bt,2022.2.4,MacIntel,60.0024001,Chrome,1440,900,,,,,10,1448,,,,,,,,,,,,,,,,,D,125,triangle,1,0,,,,,,,,,,,,,,,,repeat,number,numRpt,j,0.665,Lo,,,,,,5,,,,,,,,high,25,0,25,0,1,,,,,,,,,
297715,2022-11-29_19h28.12.287,vts_reward_expectancy_bt,2022.2.4,MacIntel,60.0024001,Chrome,1440,900,,,,,0,1448,,,,,,,,,,,,,,,,,B,174,circle,1,0,,,,,,,,,,,,,,,,switch,letter,lettSwt,d,0.7308,Hi,,,,,,5,,,,,,,,high,26,0,26,0,1,,,,,,,,,
297715,2022-11-29_19h28.12.287,vts_reward_expectancy_bt,2022.2.4,MacIntel,60.0024001,Chrome,1440,900,,,,,0,1448,,,,,,,,,,,,,,,,,H,146,hexagon,1,0,,,,,,,,,,,,,,,,repeat,letter,lettRpt,d,0.7444,Hi,,,,,,5,,,,,,,,high,27,0,27,0,1,,,,,,,,,
297715,2022-11-29_19h28.12.287,vts_reward_expectancy_bt,2022.2.4,MacIntel,60.0024001,Chrome,1440,900,,,,,10,1458,,,,,,,,,,,,,,,,,F,160,hexagon,1,0,,,,,,,,,,,,,,,,switch,number,numSwt,k,0.5976,Hi,,,,,,5,,,,,,,,high,28,0,28,0,1,,,,,,,,,
297715,2022-11-29_19h28.12.287,vts_reward_expectancy_bt,2022.2.4,MacIntel,60.0024001,Chrome,1440,900,,,,,1,1459,,,,,,,,,,,,,,,,,Y,132,star,1,0,,,,,,,,,,,,,,,,switch,letter,lettSwt,f,0.9632,Lo,,,,,,5,,,,,,,,high,29,0,29,0,1,,,,,,,,,
297715,2022-11-29_19h28.12.287,vts_reward_expectancy_bt,2022.2.4,MacIntel,60.0024001,Chrome,1440,900,,,,,1,1460,,,,,,,,,,,,,,,,,W,181,triangle,1,0,,,,,,,,,,,,,,,,switch,number,numSwt,k,0.6816,Lo,,,,,,5,,,,,,,,high,30,0,30,0,1,,,,,,,,,
297715,2022-11-29_19h28.12.287,vts_reward_expectancy_bt,2022.2.4,MacIntel,60.0024001,Chrome,1440,900,,,,,0,1460,,,,,,,,,,,,,,,,,U,139,circle,1,0,,,,,,,,,,,,,,,,switch,letter,lettSwt,f,0.715,Hi,,,,,,5,,,,,,,,high,31,0,31,0,1,,,,,,,,,
297715,2022-11-29_19h28.12.287,vts_reward_expectancy_bt,2022.2.4,MacIntel,60.0024001,Chrome,1440,900,,,,,0,1460,,,,,,,,,,,,,,,,,B,181,triangle,0,0,,,,,,,,,,,,,,,,repeat,letter,NA,f,0.7261,Hi,,,,,,6,,,,,,space,3.7136,high,0,0,0,0,1,,,,,,,,,
297715,2022-11-29_19h28.12.287,vts_reward_expectancy_bt,2022.2.4,MacIntel,60.0024001,Chrome,1440,900,,,,,1,1461,,,,,,,,,,,,,,,,,Y,139,star,1,1,,,,,,,,,,,,,,,,repeat,letter,lettRpt,f,0.6132,Lo,,,,,,6,,,,,,,,high,1,0,1,0,1,,,,,,,,,
297715,2022-11-29_19h28.12.287,vts_reward_expectancy_bt,2022.2.4,MacIntel,60.0024001,Chrome,1440,900,,,,,0,1461,,,,,,,,,,,,,,,,,H,125,circle,1,0,,,,,,,,,,,,,,,,switch,number,numSwt,j,0.7117,Hi,,,,,,6,,,,,,,,high,2,0,2,0,1,,,,,,,,,
