participant,date,expName,psychopyVersion,OS,frameRate,browser,xResolution,yResolution,key_resp.keys,key_resp.rt,training_resp.keys,training_resp.rt,points_trial,points_cumul,trainBlock,training.thisRepN,training.thisTrialN,training.thisN,training.thisIndex,training.ran,LTriangleOpac,LCircleOpac,LHexagonOpac,LStarOpac,RTriangleOpac,RCircleOpac,RHexagonOpac,RStarOpac,LShape_ID,RShape_ID,curr_topStim,curr_bottStim,curr_shape,acc,E1,target_resp_prac1.keys,pracBlock,task1_prac_trials.thisRepN,task1_prac_trials.thisTrialN,task1_prac_trials.thisN,task1_prac_trials.thisIndex,task1_prac_trials.ran,target_resp_prac1.rt,target_resp_prac2.keys,target_resp_prac2.rt,task2_praac_trials.thisRepN,task2_praac_trials.thisTrialN,task2_praac_trials.thisN,task2_praac_trials.thisIndex,task2_praac_trials.ran,alt,task,condition,target_resp.keys,target_resp.rt,rewCond,vts_practice_trials.thisRepN,vts_practice_trials.thisTrialN,vts_practice_trials.thisN,vts_practice_trials.thisIndex,vts_practice_trials.ran,blockNum,trials_norew.thisRepN,trials_norew.thisTrialN,trials_norew.thisN,trials_norew.thisIndex,trials_norew.ran,key_resp_2.keys,key_resp_2.rt,rewExpectancy,trials_rew.thisRepN,trials_rew.thisTrialN,trials_rew.thisN,trials_rew.thisIndex,trials_rew.ran,Q1,Q2,Q2_text,Q3,Q4,Q5_text,Q5,xRes,yRes
297781,2022-12-05_11h45.32.342,vts_reward_expectancy_bt,2022.2.4,MacIntel,60.0024001,Chrome,1440,900,,,,,,,,,,,,,,,,,,,,,,,,,,,,,,,,,,,,,,,,,,,,,,,,,,,,,,,,,,,,,,,,,,,,,,,,,,,,
297781,2022-12-05_11h45.32.342,vts_reward_expectancy_bt,2022.2.4,MacIntel,60.0024001,Chrome,1440,900,space,35.7495,,,,,,,,,,,,,,,,,,,,,,,,,,,,,,,,,,,,,,,,,,,,,,,,,,,,,,,,,,,,,,,,,,,,,,,,,,
297781,2022-12-05_11h45.32.342,vts_reward_expectancy_bt,2022.2.4,MacIntel,60.0024001,Chrome,1440,900,,,,,,,,,,,,,,,,,,,,,,,,,,,,,,,,,,,,,,,,,,,,,,,,,,,,,,,,,,,,,,,,,,,,,,,,,,,,
297781,2022-12-05_11h45.32.342,vts_reward_expectancy_bt,2022.2.4,MacIntel,60.0024001,Chrome,1440,900,,,a,1.0217,10,10,0,0,0,0,11,1,0,0,0,1,0,0,1,0,star,hexagon,,,,,,,,,,,,,,,,,,,,,,,,,,,,,,,,,,,,,,,,,,,,,,,,,,,,,,
297781,2022-12-05_11h45.32.342,vts_reward_expectancy_bt,2022.2.4,MacIntel,60.0024001,Chrome,1440,900,,,l,1.4473,10,20,0,0,1,1,7,1,0,0,1,0,0,1,0,0,hexagon,circle,,,,,,,,,,,,,,,,,,,,,,,,,,,,,,,,,,,,,,,,,,,,,,,,,,,,,,
297781,2022-12-05_11h45.32.342,vts_reward_expectancy_bt,2022.2.4,MacIntel,60.0024001,Chrome,1440,900,,,a,0.9338,10,30,0,0,2,2,0,1,1,0,0,0,0,1,0,0,triangle,circle,,,,,,,,,,,,,,,,,,,,,,,,,,,,,,,,,,,,,,,,,,,,,,,,,,,,,,
297781,2022-12-05_11h45.32.342,vts_reward_expectancy_bt,2022.2.4,MacIntel,60.0024001,Chrome,1440,900,,,a,0.8511,1,31,0,0,3,3,6,1,0,0,1,0,1,0,0,0,hexagon,triangle,,,,,,,,,,,,,,,,,,,,,,,,,,,,,,,,,,,,,,,,,,,,,,,,,,,,,,
297781,2022-12-05_11h45.32.342,vts_reward_expectancy_bt,2022.2.4,MacIntel,60.0024001,Chrome,1440,900,,,a,0.6309,10,41,0,0,4,4,9,1,0,0,0,1,1,0,0,0,star,triangle,,,,,,,,,,,,,,,,,,,,,,,,,,,,,,,,,,,,,,,,,,,,,,,,,,,,,,
297781,2022-12-05_11h45.32.342,vts_reward_expectancy_bt,2022.2.4,MacIntel,60.0024001,Chrome,1440,900,,,a,0.878,1,42,0,0,5,5,1,1,1,0,0,0,0,0,1,0,triangle,hexagon,,,,,,,,,,,,,,,,,,,,,,,,,,,,,,,,,,,,,,,,,,,,,,,,,,,,,,
297781,2022-12-05_11h45.32.342,vts_reward_expectancy_bt,2022.2.4,MacIntel,60.0024001,Chrome,1440,900,,,a,0.6324,1,43,0,0,6,6,10,1,0,0,0,1,0,1,0,0,star ,circle,,,,,,,,,,,,,,,,,,,,,,,,,,,,,,,,,,,,,,,,,,,,,,,,,,,,,,
297781,2022-12-05_11h45.32.342,vts_reward_expectancy_bt,2022.2.4,MacIntel,60.0024001,Chrome,1440,900,,,a,1.0848,1,44,0,0,7,7,2,1,1,0,0,0,0,0,0,1,triangle,star,,,,,,,,,,,,,,,,,,,,,,,,,,,,,,,,,,,,,,,,,,,,,,,,,,,,,,
297781,2022-12-05_11h45.32.342,vts_reward_expectancy_bt,2022.2.4,MacIntel,60.0024001,Chrome,1440,900,,,l,1.0173,10,54,0,0,8,8,5,1,0,1,0,0,0,0,0,1,circle,star,,,,,,,,,,,,,,,,,,,,,,,,,,,,,,,,,,,,,,,,,,,,,,,,,,,,,,
297781,2022-12-05_11h45.32.342,vts_reward_expectancy_bt,2022.2.4,MacIntel,60.0024001,Chrome,1440,900,,,a,1.2832,1,55,0,0,9,9,3,1,0,1,0,0,1,0,0,0,circle,triangle,,,,,,,,,,,,,,,,,,,,,,,,,,,,,,,,,,,,,,,,,,,,,,,,,,,,,,
297781,2022-12-05_11h45.32.342,vts_reward_expectancy_bt,2022.2.4,MacIntel,60.0024001,Chrome,1440,900,,,a,1.4741,10,65,0,0,10,10,4,1,0,1,0,0,0,0,1,0,circle,hexagon,,,,,,,,,,,,,,,,,,,,,,,,,,,,,,,,,,,,,,,,,,,,,,,,,,,,,,
297781,2022-12-05_11h45.32.342,vts_reward_expectancy_bt,2022.2.4,MacIntel,60.0024001,Chrome,1440,900,,,l,0.8927,10,75,0,0,11,11,8,1,0,0,1,0,0,0,0,1,hexagon,star,,,,,,,,,,,,,,,,,,,,,,,,,,,,,,,,,,,,,,,,,,,,,,,,,,,,,,
297781,2022-12-05_11h45.32.342,vts_reward_expectancy_bt,2022.2.4,MacIntel,60.0024001,Chrome,1440,900,,,l,0.7698,10,85,0,1,0,12,2,1,1,0,0,0,0,0,0,1,triangle,star,,,,,,,,,,,,,,,,,,,,,,,,,,,,,,,,,,,,,,,,,,,,,,,,,,,,,,
297781,2022-12-05_11h45.32.342,vts_reward_expectancy_bt,2022.2.4,MacIntel,60.0024001,Chrome,1440,900,,,a,0.6256,10,95,0,1,1,13,11,1,0,0,0,1,0,0,1,0,star,hexagon,,,,,,,,,,,,,,,,,,,,,,,,,,,,,,,,,,,,,,,,,,,,,,,,,,,,,,
297781,2022-12-05_11h45.32.342,vts_reward_expectancy_bt,2022.2.4,MacIntel,60.0024001,Chrome,1440,900,,,a,1.713,10,105,0,1,2,14,3,1,0,1,0,0,1,0,0,0,circle,triangle,,,,,,,,,,,,,,,,,,,,,,,,,,,,,,,,,,,,,,,,,,,,,,,,,,,,,,
297781,2022-12-05_11h45.32.342,vts_reward_expectancy_bt,2022.2.4,MacIntel,60.0024001,Chrome,1440,900,,,a,0.4919,10,115,0,1,3,15,9,1,0,0,0,1,1,0,0,0,star,triangle,,,,,,,,,,,,,,,,,,,,,,,,,,,,,,,,,,,,,,,,,,,,,,,,,,,,,,
297781,2022-12-05_11h45.32.342,vts_reward_expectancy_bt,2022.2.4,MacIntel,60.0024001,Chrome,1440,900,,,a,1.4167,10,125,0,1,4,16,4,1,0,1,0,0,0,0,1,0,circle,hexagon,,,,,,,,,,,,,,,,,,,,,,,,,,,,,,,,,,,,,,,,,,,,,,,,,,,,,,
297781,2022-12-05_11h45.32.342,vts_reward_expectancy_bt,2022.2.4,MacIntel,60.0024001,Chrome,1440,900,,,l,1.0469,10,135,0,1,5,17,0,1,1,0,0,0,0,1,0,0,triangle,circle,,,,,,,,,,,,,,,,,,,,,,,,,,,,,,,,,,,,,,,,,,,,,,,,,,,,,,
297781,2022-12-05_11h45.32.342,vts_reward_expectancy_bt,2022.2.4,MacIntel,60.0024001,Chrome,1440,900,,,l,1.2271,1,136,0,1,6,18,1,1,1,0,0,0,0,0,1,0,triangle,hexagon,,,,,,,,,,,,,,,,,,,,,,,,,,,,,,,,,,,,,,,,,,,,,,,,,,,,,,
297781,2022-12-05_11h45.32.342,vts_reward_expectancy_bt,2022.2.4,MacIntel,60.0024001,Chrome,1440,900,,,l,1.0643,1,137,0,1,7,19,7,1,0,0,1,0,0,1,0,0,hexagon,circle,,,,,,,,,,,,,,,,,,,,,,,,,,,,,,,,,,,,,,,,,,,,,,,,,,,,,,
297781,2022-12-05_11h45.32.342,vts_reward_expectancy_bt,2022.2.4,MacIntel,60.0024001,Chrome,1440,900,,,l,0.9885,10,147,0,1,8,20,5,1,0,1,0,0,0,0,0,1,circle,star,,,,,,,,,,,,,,,,,,,,,,,,,,,,,,,,,,,,,,,,,,,,,,,,,,,,,,
297781,2022-12-05_11h45.32.342,vts_reward_expectancy_bt,2022.2.4,MacIntel,60.0024001,Chrome,1440,900,,,l,0.8274,1,148,0,1,9,21,8,1,0,0,1,0,0,0,0,1,hexagon,star,,,,,,,,,,,,,,,,,,,,,,,,,,,,,,,,,,,,,,,,,,,,,,,,,,,,,,
297781,2022-12-05_11h45.32.342,vts_reward_expectancy_bt,2022.2.4,MacIntel,60.0024001,Chrome,1440,900,,,a,1.7462,1,149,0,1,10,22,6,1,0,0,1,0,1,0,0,0,hexagon,triangle,,,,,,,,,,,,,,,,,,,,,,,,,,,,,,,,,,,,,,,,,,,,,,,,,,,,,,
297781,2022-12-05_11h45.32.342,vts_reward_expectancy_bt,2022.2.4,MacIntel,60.0024001,Chrome,1440,900,,,a,0.4764,1,150,0,1,11,23,10,1,0,0,0,1,0,1,0,0,star ,circle,,,,,,,,,,,,,,,,,,,,,,,,,,,,,,,,,,,,,,,,,,,,,,,,,,,,,,
297781,2022-12-05_11h45.32.342,vts_reward_expectancy_bt,2022.2.4,MacIntel,60.0024001,Chrome,1440,900,,,l,1.1822,10,160,0,2,0,24,7,1,0,0,1,0,0,1,0,0,hexagon,circle,,,,,,,,,,,,,,,,,,,,,,,,,,,,,,,,,,,,,,,,,,,,,,,,,,,,,,
297781,2022-12-05_11h45.32.342,vts_reward_expectancy_bt,2022.2.4,MacIntel,60.0024001,Chrome,1440,900,,,a,0.6859,10,170,0,2,1,25,11,1,0,0,0,1,0,0,1,0,star,hexagon,,,,,,,,,,,,,,,,,,,,,,,,,,,,,,,,,,,,,,,,,,,,,,,,,,,,,,
297781,2022-12-05_11h45.32.342,vts_reward_expectancy_bt,2022.2.4,MacIntel,60.0024001,Chrome,1440,900,,,l,2.036,1,171,0,2,2,26,3,1,0,1,0,0,1,0,0,0,circle,triangle,,,,,,,,,,,,,,,,,,,,,,,,,,,,,,,,,,,,,,,,,,,,,,,,,,,,,,
297781,2022-12-05_11h45.32.342,vts_reward_expectancy_bt,2022.2.4,MacIntel,60.0024001,Chrome,1440,900,,,l,0.8015,1,172,0,2,3,27,2,1,1,0,0,0,0,0,0,1,triangle,star,,,,,,,,,,,,,,,,,,,,,,,,,,,,,,,,,,,,,,,,,,,,,,,,,,,,,,
297781,2022-12-05_11h45.32.342,vts_reward_expectancy_bt,2022.2.4,MacIntel,60.0024001,Chrome,1440,900,,,a,0.6825,10,182,0,2,4,28,9,1,0,0,0,1,1,0,0,0,star,triangle,,,,,,,,,,,,,,,,,,,,,,,,,,,,,,,,,,,,,,,,,,,,,,,,,,,,,,
297781,2022-12-05_11h45.32.342,vts_reward_expectancy_bt,2022.2.4,MacIntel,60.0024001,Chrome,1440,900,,,a,0.8313,10,192,0,2,5,29,10,1,0,0,0,1,0,1,0,0,star ,circle,,,,,,,,,,,,,,,,,,,,,,,,,,,,,,,,,,,,,,,,,,,,,,,,,,,,,,
297781,2022-12-05_11h45.32.342,vts_reward_expectancy_bt,2022.2.4,MacIntel,60.0024001,Chrome,1440,900,,,l,1.466,1,193,0,2,6,30,1,1,1,0,0,0,0,0,1,0,triangle,hexagon,,,,,,,,,,,,,,,,,,,,,,,,,,,,,,,,,,,,,,,,,,,,,,,,,,,,,,
297781,2022-12-05_11h45.32.342,vts_reward_expectancy_bt,2022.2.4,MacIntel,60.0024001,Chrome,1440,900,,,a,1.2511,10,203,0,2,7,31,4,1,0,1,0,0,0,0,1,0,circle,hexagon,,,,,,,,,,,,,,,,,,,,,,,,,,,,,,,,,,,,,,,,,,,,,,,,,,,,,,
297781,2022-12-05_11h45.32.342,vts_reward_expectancy_bt,2022.2.4,MacIntel,60.0024001,Chrome,1440,900,,,l,1.683,1,204,0,2,8,32,6,1,0,0,1,0,1,0,0,0,hexagon,triangle,,,,,,,,,,,,,,,,,,,,,,,,,,,,,,,,,,,,,,,,,,,,,,,,,,,,,,
297781,2022-12-05_11h45.32.342,vts_reward_expectancy_bt,2022.2.4,MacIntel,60.0024001,Chrome,1440,900,,,l,0.7849,10,214,0,2,9,33,5,1,0,1,0,0,0,0,0,1,circle,star,,,,,,,,,,,,,,,,,,,,,,,,,,,,,,,,,,,,,,,,,,,,,,,,,,,,,,
297781,2022-12-05_11h45.32.342,vts_reward_expectancy_bt,2022.2.4,MacIntel,60.0024001,Chrome,1440,900,,,l,0.6069,10,224,0,2,10,34,8,1,0,0,1,0,0,0,0,1,hexagon,star,,,,,,,,,,,,,,,,,,,,,,,,,,,,,,,,,,,,,,,,,,,,,,,,,,,,,,
297781,2022-12-05_11h45.32.342,vts_reward_expectancy_bt,2022.2.4,MacIntel,60.0024001,Chrome,1440,900,,,l,1.5324,10,234,0,2,11,35,0,1,1,0,0,0,0,1,0,0,triangle,circle,,,,,,,,,,,,,,,,,,,,,,,,,,,,,,,,,,,,,,,,,,,,,,,,,,,,,,
297781,2022-12-05_11h45.32.342,vts_reward_expectancy_bt,2022.2.4,MacIntel,60.0024001,Chrome,1440,900,,,l,0.6858,1,235,1,0,0,0,8,1,0,0,1,0,0,0,0,1,hexagon,star,,,,,,,,,,,,,,,,,,,,,,,,,,,,,,,,,,,,,,,,,,,,,,,,,,,,,,
297781,2022-12-05_11h45.32.342,vts_reward_expectancy_bt,2022.2.4,MacIntel,60.0024001,Chrome,1440,900,,,a,0.4679,1,236,1,0,1,1,7,1,0,0,1,0,0,1,0,0,hexagon,circle,,,,,,,,,,,,,,,,,,,,,,,,,,,,,,,,,,,,,,,,,,,,,,,,,,,,,,
297781,2022-12-05_11h45.32.342,vts_reward_expectancy_bt,2022.2.4,MacIntel,60.0024001,Chrome,1440,900,,,l,0.7484,1,237,1,0,2,2,4,1,0,1,0,0,0,0,1,0,circle,hexagon,,,,,,,,,,,,,,,,,,,,,,,,,,,,,,,,,,,,,,,,,,,,,,,,,,,,,,
297781,2022-12-05_11h45.32.342,vts_reward_expectancy_bt,2022.2.4,MacIntel,60.0024001,Chrome,1440,900,,,a,0.3638,10,247,1,0,3,3,3,1,0,1,0,0,1,0,0,0,circle,triangle,,,,,,,,,,,,,,,,,,,,,,,,,,,,,,,,,,,,,,,,,,,,,,,,,,,,,,
297781,2022-12-05_11h45.32.342,vts_reward_expectancy_bt,2022.2.4,MacIntel,60.0024001,Chrome,1440,900,,,a,0.5485,1,248,1,0,4,4,9,1,0,0,0,1,1,0,0,0,star,triangle,,,,,,,,,,,,,,,,,,,,,,,,,,,,,,,,,,,,,,,,,,,,,,,,,,,,,,
297781,2022-12-05_11h45.32.342,vts_reward_expectancy_bt,2022.2.4,MacIntel,60.0024001,Chrome,1440,900,,,l,0.5251,1,249,1,0,5,5,5,1,0,1,0,0,0,0,0,1,circle,star,,,,,,,,,,,,,,,,,,,,,,,,,,,,,,,,,,,,,,,,,,,,,,,,,,,,,,
297781,2022-12-05_11h45.32.342,vts_reward_expectancy_bt,2022.2.4,MacIntel,60.0024001,Chrome,1440,900,,,a,0.5673,1,250,1,0,6,6,0,1,1,0,0,0,0,1,0,0,triangle,circle,,,,,,,,,,,,,,,,,,,,,,,,,,,,,,,,,,,,,,,,,,,,,,,,,,,,,,
297781,2022-12-05_11h45.32.342,vts_reward_expectancy_bt,2022.2.4,MacIntel,60.0024001,Chrome,1440,900,,,l,0.6004,1,251,1,0,7,7,6,1,0,0,1,0,1,0,0,0,hexagon,triangle,,,,,,,,,,,,,,,,,,,,,,,,,,,,,,,,,,,,,,,,,,,,,,,,,,,,,,
297781,2022-12-05_11h45.32.342,vts_reward_expectancy_bt,2022.2.4,MacIntel,60.0024001,Chrome,1440,900,,,a,0.3691,1,252,1,0,8,8,10,1,0,0,0,1,0,1,0,0,star ,circle,,,,,,,,,,,,,,,,,,,,,,,,,,,,,,,,,,,,,,,,,,,,,,,,,,,,,,
297781,2022-12-05_11h45.32.342,vts_reward_expectancy_bt,2022.2.4,MacIntel,60.0024001,Chrome,1440,900,,,a,1.0928,1,253,1,0,9,9,1,1,1,0,0,0,0,0,1,0,triangle,hexagon,,,,,,,,,,,,,,,,,,,,,,,,,,,,,,,,,,,,,,,,,,,,,,,,,,,,,,
297781,2022-12-05_11h45.32.342,vts_reward_expectancy_bt,2022.2.4,MacIntel,60.0024001,Chrome,1440,900,,,l,0.6841,10,263,1,0,10,10,2,1,1,0,0,0,0,0,0,1,triangle,star,,,,,,,,,,,,,,,,,,,,,,,,,,,,,,,,,,,,,,,,,,,,,,,,,,,,,,
297781,2022-12-05_11h45.32.342,vts_reward_expectancy_bt,2022.2.4,MacIntel,60.0024001,Chrome,1440,900,,,a,0.7132,10,273,1,0,11,11,11,1,0,0,0,1,0,0,1,0,star,hexagon,,,,,,,,,,,,,,,,,,,,,,,,,,,,,,,,,,,,,,,,,,,,,,,,,,,,,,
297781,2022-12-05_11h45.32.342,vts_reward_expectancy_bt,2022.2.4,MacIntel,60.0024001,Chrome,1440,900,,,l,1.0583,1,274,1,1,0,12,7,1,0,0,1,0,0,1,0,0,hexagon,circle,,,,,,,,,,,,,,,,,,,,,,,,,,,,,,,,,,,,,,,,,,,,,,,,,,,,,,
297781,2022-12-05_11h45.32.342,vts_reward_expectancy_bt,2022.2.4,MacIntel,60.0024001,Chrome,1440,900,,,l,2.7488,10,284,1,1,1,13,2,1,1,0,0,0,0,0,0,1,triangle,star,,,,,,,,,,,,,,,,,,,,,,,,,,,,,,,,,,,,,,,,,,,,,,,,,,,,,,
297781,2022-12-05_11h45.32.342,vts_reward_expectancy_bt,2022.2.4,MacIntel,60.0024001,Chrome,1440,900,,,a,0.5358,10,294,1,1,2,14,10,1,0,0,0,1,0,1,0,0,star ,circle,,,,,,,,,,,,,,,,,,,,,,,,,,,,,,,,,,,,,,,,,,,,,,,,,,,,,,
297781,2022-12-05_11h45.32.342,vts_reward_expectancy_bt,2022.2.4,MacIntel,60.0024001,Chrome,1440,900,,,a,2.7743,1,295,1,1,3,15,1,1,1,0,0,0,0,0,1,0,triangle,hexagon,,,,,,,,,,,,,,,,,,,,,,,,,,,,,,,,,,,,,,,,,,,,,,,,,,,,,,
297781,2022-12-05_11h45.32.342,vts_reward_expectancy_bt,2022.2.4,MacIntel,60.0024001,Chrome,1440,900,,,a,1.1712,1,296,1,1,4,16,6,1,0,0,1,0,1,0,0,0,hexagon,triangle,,,,,,,,,,,,,,,,,,,,,,,,,,,,,,,,,,,,,,,,,,,,,,,,,,,,,,
297781,2022-12-05_11h45.32.342,vts_reward_expectancy_bt,2022.2.4,MacIntel,60.0024001,Chrome,1440,900,,,a,0.916,10,306,1,1,5,17,9,1,0,0,0,1,1,0,0,0,star,triangle,,,,,,,,,,,,,,,,,,,,,,,,,,,,,,,,,,,,,,,,,,,,,,,,,,,,,,
297781,2022-12-05_11h45.32.342,vts_reward_expectancy_bt,2022.2.4,MacIntel,60.0024001,Chrome,1440,900,,,a,0.9119,10,316,1,1,6,18,11,1,0,0,0,1,0,0,1,0,star,hexagon,,,,,,,,,,,,,,,,,,,,,,,,,,,,,,,,,,,,,,,,,,,,,,,,,,,,,,
297781,2022-12-05_11h45.32.342,vts_reward_expectancy_bt,2022.2.4,MacIntel,60.0024001,Chrome,1440,900,,,l,1.4851,1,317,1,1,7,19,0,1,1,0,0,0,0,1,0,0,triangle,circle,,,,,,,,,,,,,,,,,,,,,,,,,,,,,,,,,,,,,,,,,,,,,,,,,,,,,,
297781,2022-12-05_11h45.32.342,vts_reward_expectancy_bt,2022.2.4,MacIntel,60.0024001,Chrome,1440,900,,,a,1.0984,10,327,1,1,8,20,4,1,0,1,0,0,0,0,1,0,circle,hexagon,,,,,,,,,,,,,,,,,,,,,,,,,,,,,,,,,,,,,,,,,,,,,,,,,,,,,,
297781,2022-12-05_11h45.32.342,vts_reward_expectancy_bt,2022.2.4,MacIntel,60.0024001,Chrome,1440,900,,,l,0.6269,1,328,1,1,9,21,8,1,0,0,1,0,0,0,0,1,hexagon,star,,,,,,,,,,,,,,,,,,,,,,,,,,,,,,,,,,,,,,,,,,,,,,,,,,,,,,
297781,2022-12-05_11h45.32.342,vts_reward_expectancy_bt,2022.2.4,MacIntel,60.0024001,Chrome,1440,900,,,l,1.6673,10,338,1,1,10,22,5,1,0,1,0,0,0,0,0,1,circle,star,,,,,,,,,,,,,,,,,,,,,,,,,,,,,,,,,,,,,,,,,,,,,,,,,,,,,,
297781,2022-12-05_11h45.32.342,vts_reward_expectancy_bt,2022.2.4,MacIntel,60.0024001,Chrome,1440,900,,,a,1.3249,1,339,1,1,11,23,3,1,0,1,0,0,1,0,0,0,circle,triangle,,,,,,,,,,,,,,,,,,,,,,,,,,,,,,,,,,,,,,,,,,,,,,,,,,,,,,
297781,2022-12-05_11h45.32.342,vts_reward_expectancy_bt,2022.2.4,MacIntel,60.0024001,Chrome,1440,900,,,l,0.8207,1,340,1,2,0,24,2,1,1,0,0,0,0,0,0,1,triangle,star,,,,,,,,,,,,,,,,,,,,,,,,,,,,,,,,,,,,,,,,,,,,,,,,,,,,,,
297781,2022-12-05_11h45.32.342,vts_reward_expectancy_bt,2022.2.4,MacIntel,60.0024001,Chrome,1440,900,,,a,0.6083,1,341,1,2,1,25,10,1,0,0,0,1,0,1,0,0,star ,circle,,,,,,,,,,,,,,,,,,,,,,,,,,,,,,,,,,,,,,,,,,,,,,,,,,,,,,
297781,2022-12-05_11h45.32.342,vts_reward_expectancy_bt,2022.2.4,MacIntel,60.0024001,Chrome,1440,900,,,l,0.9426,10,351,1,2,2,26,8,1,0,0,1,0,0,0,0,1,hexagon,star,,,,,,,,,,,,,,,,,,,,,,,,,,,,,,,,,,,,,,,,,,,,,,,,,,,,,,
297781,2022-12-05_11h45.32.342,vts_reward_expectancy_bt,2022.2.4,MacIntel,60.0024001,Chrome,1440,900,,,l,1.3226,1,352,1,2,3,27,7,1,0,0,1,0,0,1,0,0,hexagon,circle,,,,,,,,,,,,,,,,,,,,,,,,,,,,,,,,,,,,,,,,,,,,,,,,,,,,,,
297781,2022-12-05_11h45.32.342,vts_reward_expectancy_bt,2022.2.4,MacIntel,60.0024001,Chrome,1440,900,,,l,2.8502,10,362,1,2,4,28,1,1,1,0,0,0,0,0,1,0,triangle,hexagon,,,,,,,,,,,,,,,,,,,,,,,,,,,,,,,,,,,,,,,,,,,,,,,,,,,,,,
297781,2022-12-05_11h45.32.342,vts_reward_expectancy_bt,2022.2.4,MacIntel,60.0024001,Chrome,1440,900,,,l,0.7446,1,363,1,2,5,29,11,1,0,0,0,1,0,0,1,0,star,hexagon,,,,,,,,,,,,,,,,,,,,,,,,,,,,,,,,,,,,,,,,,,,,,,,,,,,,,,
297781,2022-12-05_11h45.32.342,vts_reward_expectancy_bt,2022.2.4,MacIntel,60.0024001,Chrome,1440,900,,,a,1.7321,1,364,1,2,6,30,6,1,0,0,1,0,1,0,0,0,hexagon,triangle,,,,,,,,,,,,,,,,,,,,,,,,,,,,,,,,,,,,,,,,,,,,,,,,,,,,,,
297781,2022-12-05_11h45.32.342,vts_reward_expectancy_bt,2022.2.4,MacIntel,60.0024001,Chrome,1440,900,,,l,0.4689,1,365,1,2,7,31,4,1,0,1,0,0,0,0,1,0,circle,hexagon,,,,,,,,,,,,,,,,,,,,,,,,,,,,,,,,,,,,,,,,,,,,,,,,,,,,,,
297781,2022-12-05_11h45.32.342,vts_reward_expectancy_bt,2022.2.4,MacIntel,60.0024001,Chrome,1440,900,,,l,1.3574,10,375,1,2,8,32,0,1,1,0,0,0,0,1,0,0,triangle,circle,,,,,,,,,,,,,,,,,,,,,,,,,,,,,,,,,,,,,,,,,,,,,,,,,,,,,,
297781,2022-12-05_11h45.32.342,vts_reward_expectancy_bt,2022.2.4,MacIntel,60.0024001,Chrome,1440,900,,,a,0.7811,10,385,1,2,9,33,9,1,0,0,0,1,1,0,0,0,star,triangle,,,,,,,,,,,,,,,,,,,,,,,,,,,,,,,,,,,,,,,,,,,,,,,,,,,,,,
297781,2022-12-05_11h45.32.342,vts_reward_expectancy_bt,2022.2.4,MacIntel,60.0024001,Chrome,1440,900,,,l,0.6095,10,395,1,2,10,34,5,1,0,1,0,0,0,0,0,1,circle,star,,,,,,,,,,,,,,,,,,,,,,,,,,,,,,,,,,,,,,,,,,,,,,,,,,,,,,
297781,2022-12-05_11h45.32.342,vts_reward_expectancy_bt,2022.2.4,MacIntel,60.0024001,Chrome,1440,900,,,l,1.3671,1,396,1,2,11,35,3,1,0,1,0,0,1,0,0,0,circle,triangle,,,,,,,,,,,,,,,,,,,,,,,,,,,,,,,,,,,,,,,,,,,,,,,,,,,,,,
297781,2022-12-05_11h45.32.342,vts_reward_expectancy_bt,2022.2.4,MacIntel,60.0024001,Chrome,1440,900,,,l,1.4435,1,397,2,0,0,0,3,1,0,1,0,0,1,0,0,0,circle,triangle,,,,,,,,,,,,,,,,,,,,,,,,,,,,,,,,,,,,,,,,,,,,,,,,,,,,,,
297781,2022-12-05_11h45.32.342,vts_reward_expectancy_bt,2022.2.4,MacIntel,60.0024001,Chrome,1440,900,,,a,0.7322,1,398,2,0,1,1,4,1,0,1,0,0,0,0,1,0,circle,hexagon,,,,,,,,,,,,,,,,,,,,,,,,,,,,,,,,,,,,,,,,,,,,,,,,,,,,,,
297781,2022-12-05_11h45.32.342,vts_reward_expectancy_bt,2022.2.4,MacIntel,60.0024001,Chrome,1440,900,,,l,0.7347,10,408,2,0,2,2,5,1,0,1,0,0,0,0,0,1,circle,star,,,,,,,,,,,,,,,,,,,,,,,,,,,,,,,,,,,,,,,,,,,,,,,,,,,,,,
297781,2022-12-05_11h45.32.342,vts_reward_expectancy_bt,2022.2.4,MacIntel,60.0024001,Chrome,1440,900,,,l,3.3118,10,418,2,0,3,3,8,1,0,0,1,0,0,0,0,1,hexagon,star,,,,,,,,,,,,,,,,,,,,,,,,,,,,,,,,,,,,,,,,,,,,,,,,,,,,,,
297781,2022-12-05_11h45.32.342,vts_reward_expectancy_bt,2022.2.4,MacIntel,60.0024001,Chrome,1440,900,,,l,4.3017,1,419,2,0,4,4,1,1,1,0,0,0,0,0,1,0,triangle,hexagon,,,,,,,,,,,,,,,,,,,,,,,,,,,,,,,,,,,,,,,,,,,,,,,,,,,,,,
297781,2022-12-05_11h45.32.342,vts_reward_expectancy_bt,2022.2.4,MacIntel,60.0024001,Chrome,1440,900,,,a,0.5352,1,420,2,0,5,5,10,1,0,0,0,1,0,1,0,0,star ,circle,,,,,,,,,,,,,,,,,,,,,,,,,,,,,,,,,,,,,,,,,,,,,,,,,,,,,,
297781,2022-12-05_11h45.32.342,vts_reward_expectancy_bt,2022.2.4,MacIntel,60.0024001,Chrome,1440,900,,,l,0.574,10,430,2,0,6,6,0,1,1,0,0,0,0,1,0,0,triangle,circle,,,,,,,,,,,,,,,,,,,,,,,,,,,,,,,,,,,,,,,,,,,,,,,,,,,,,,
297781,2022-12-05_11h45.32.342,vts_reward_expectancy_bt,2022.2.4,MacIntel,60.0024001,Chrome,1440,900,,,a,0.5437,10,440,2,0,7,7,9,1,0,0,0,1,1,0,0,0,star,triangle,,,,,,,,,,,,,,,,,,,,,,,,,,,,,,,,,,,,,,,,,,,,,,,,,,,,,,
297781,2022-12-05_11h45.32.342,vts_reward_expectancy_bt,2022.2.4,MacIntel,60.0024001,Chrome,1440,900,,,a,0.7274,1,441,2,0,8,8,7,1,0,0,1,0,0,1,0,0,hexagon,circle,,,,,,,,,,,,,,,,,,,,,,,,,,,,,,,,,,,,,,,,,,,,,,,,,,,,,,
297781,2022-12-05_11h45.32.342,vts_reward_expectancy_bt,2022.2.4,MacIntel,60.0024001,Chrome,1440,900,,,l,0.591,1,442,2,0,9,9,6,1,0,0,1,0,1,0,0,0,hexagon,triangle,,,,,,,,,,,,,,,,,,,,,,,,,,,,,,,,,,,,,,,,,,,,,,,,,,,,,,
297781,2022-12-05_11h45.32.342,vts_reward_expectancy_bt,2022.2.4,MacIntel,60.0024001,Chrome,1440,900,,,l,1.1591,1,443,2,0,10,10,2,1,1,0,0,0,0,0,0,1,triangle,star,,,,,,,,,,,,,,,,,,,,,,,,,,,,,,,,,,,,,,,,,,,,,,,,,,,,,,
297781,2022-12-05_11h45.32.342,vts_reward_expectancy_bt,2022.2.4,MacIntel,60.0024001,Chrome,1440,900,,,a,0.8958,1,444,2,0,11,11,11,1,0,0,0,1,0,0,1,0,star,hexagon,,,,,,,,,,,,,,,,,,,,,,,,,,,,,,,,,,,,,,,,,,,,,,,,,,,,,,
297781,2022-12-05_11h45.32.342,vts_reward_expectancy_bt,2022.2.4,MacIntel,60.0024001,Chrome,1440,900,,,a,1.0103,1,445,2,1,0,12,1,1,1,0,0,0,0,0,1,0,triangle,hexagon,,,,,,,,,,,,,,,,,,,,,,,,,,,,,,,,,,,,,,,,,,,,,,,,,,,,,,
297781,2022-12-05_11h45.32.342,vts_reward_expectancy_bt,2022.2.4,MacIntel,60.0024001,Chrome,1440,900,,,a,1.7822,10,455,2,1,1,13,11,1,0,0,0,1,0,0,1,0,star,hexagon,,,,,,,,,,,,,,,,,,,,,,,,,,,,,,,,,,,,,,,,,,,,,,,,,,,,,,
297781,2022-12-05_11h45.32.342,vts_reward_expectancy_bt,2022.2.4,MacIntel,60.0024001,Chrome,1440,900,,,l,1.2004,10,465,2,1,2,14,5,1,0,1,0,0,0,0,0,1,circle,star,,,,,,,,,,,,,,,,,,,,,,,,,,,,,,,,,,,,,,,,,,,,,,,,,,,,,,
297781,2022-12-05_11h45.32.342,vts_reward_expectancy_bt,2022.2.4,MacIntel,60.0024001,Chrome,1440,900,,,a,0.9076,10,475,2,1,3,15,10,1,0,0,0,1,0,1,0,0,star ,circle,,,,,,,,,,,,,,,,,,,,,,,,,,,,,,,,,,,,,,,,,,,,,,,,,,,,,,
297781,2022-12-05_11h45.32.342,vts_reward_expectancy_bt,2022.2.4,MacIntel,60.0024001,Chrome,1440,900,,,l,1.3014,10,485,2,1,4,16,4,1,0,1,0,0,0,0,1,0,circle,hexagon,,,,,,,,,,,,,,,,,,,,,,,,,,,,,,,,,,,,,,,,,,,,,,,,,,,,,,
297781,2022-12-05_11h45.32.342,vts_reward_expectancy_bt,2022.2.4,MacIntel,60.0024001,Chrome,1440,900,,,l,1.0246,10,495,2,1,5,17,8,1,0,0,1,0,0,0,0,1,hexagon,star,,,,,,,,,,,,,,,,,,,,,,,,,,,,,,,,,,,,,,,,,,,,,,,,,,,,,,
297781,2022-12-05_11h45.32.342,vts_reward_expectancy_bt,2022.2.4,MacIntel,60.0024001,Chrome,1440,900,,,l,1.5339,10,505,2,1,6,18,0,1,1,0,0,0,0,1,0,0,triangle,circle,,,,,,,,,,,,,,,,,,,,,,,,,,,,,,,,,,,,,,,,,,,,,,,,,,,,,,
297781,2022-12-05_11h45.32.342,vts_reward_expectancy_bt,2022.2.4,MacIntel,60.0024001,Chrome,1440,900,,,l,0.8796,1,506,2,1,7,19,3,1,0,1,0,0,1,0,0,0,circle,triangle,,,,,,,,,,,,,,,,,,,,,,,,,,,,,,,,,,,,,,,,,,,,,,,,,,,,,,
297781,2022-12-05_11h45.32.342,vts_reward_expectancy_bt,2022.2.4,MacIntel,60.0024001,Chrome,1440,900,,,a,1.1476,1,507,2,1,8,20,7,1,0,0,1,0,0,1,0,0,hexagon,circle,,,,,,,,,,,,,,,,,,,,,,,,,,,,,,,,,,,,,,,,,,,,,,,,,,,,,,
297781,2022-12-05_11h45.32.342,vts_reward_expectancy_bt,2022.2.4,MacIntel,60.0024001,Chrome,1440,900,,,l,1.9942,1,508,2,1,9,21,6,1,0,0,1,0,1,0,0,0,hexagon,triangle,,,,,,,,,,,,,,,,,,,,,,,,,,,,,,,,,,,,,,,,,,,,,,,,,,,,,,
297781,2022-12-05_11h45.32.342,vts_reward_expectancy_bt,2022.2.4,MacIntel,60.0024001,Chrome,1440,900,,,a,3.0433,10,518,2,1,10,22,9,1,0,0,0,1,1,0,0,0,star,triangle,,,,,,,,,,,,,,,,,,,,,,,,,,,,,,,,,,,,,,,,,,,,,,,,,,,,,,
297781,2022-12-05_11h45.32.342,vts_reward_expectancy_bt,2022.2.4,MacIntel,60.0024001,Chrome,1440,900,,,l,0.5718,10,528,2,1,11,23,2,1,1,0,0,0,0,0,0,1,triangle,star,,,,,,,,,,,,,,,,,,,,,,,,,,,,,,,,,,,,,,,,,,,,,,,,,,,,,,
297781,2022-12-05_11h45.32.342,vts_reward_expectancy_bt,2022.2.4,MacIntel,60.0024001,Chrome,1440,900,,,a,1.6347,10,538,2,2,0,24,3,1,0,1,0,0,1,0,0,0,circle,triangle,,,,,,,,,,,,,,,,,,,,,,,,,,,,,,,,,,,,,,,,,,,,,,,,,,,,,,
297781,2022-12-05_11h45.32.342,vts_reward_expectancy_bt,2022.2.4,MacIntel,60.0024001,Chrome,1440,900,,,l,1.3175,10,548,2,2,1,25,2,1,1,0,0,0,0,0,0,1,triangle,star,,,,,,,,,,,,,,,,,,,,,,,,,,,,,,,,,,,,,,,,,,,,,,,,,,,,,,
297781,2022-12-05_11h45.32.342,vts_reward_expectancy_bt,2022.2.4,MacIntel,60.0024001,Chrome,1440,900,,,l,0.6772,1,549,2,2,2,26,1,1,1,0,0,0,0,0,1,0,triangle,hexagon,,,,,,,,,,,,,,,,,,,,,,,,,,,,,,,,,,,,,,,,,,,,,,,,,,,,,,
297781,2022-12-05_11h45.32.342,vts_reward_expectancy_bt,2022.2.4,MacIntel,60.0024001,Chrome,1440,900,,,a,0.8939,1,550,2,2,3,27,10,1,0,0,0,1,0,1,0,0,star ,circle,,,,,,,,,,,,,,,,,,,,,,,,,,,,,,,,,,,,,,,,,,,,,,,,,,,,,,
297781,2022-12-05_11h45.32.342,vts_reward_expectancy_bt,2022.2.4,MacIntel,60.0024001,Chrome,1440,900,,,l,0.6304,1,551,2,2,4,28,4,1,0,1,0,0,0,0,1,0,circle,hexagon,,,,,,,,,,,,,,,,,,,,,,,,,,,,,,,,,,,,,,,,,,,,,,,,,,,,,,
297781,2022-12-05_11h45.32.342,vts_reward_expectancy_bt,2022.2.4,MacIntel,60.0024001,Chrome,1440,900,,,a,0.5088,1,552,2,2,5,29,11,1,0,0,0,1,0,0,1,0,star,hexagon,,,,,,,,,,,,,,,,,,,,,,,,,,,,,,,,,,,,,,,,,,,,,,,,,,,,,,
297781,2022-12-05_11h45.32.342,vts_reward_expectancy_bt,2022.2.4,MacIntel,60.0024001,Chrome,1440,900,,,l,0.5123,1,553,2,2,6,30,0,1,1,0,0,0,0,1,0,0,triangle,circle,,,,,,,,,,,,,,,,,,,,,,,,,,,,,,,,,,,,,,,,,,,,,,,,,,,,,,
297781,2022-12-05_11h45.32.342,vts_reward_expectancy_bt,2022.2.4,MacIntel,60.0024001,Chrome,1440,900,,,l,0.7509,10,563,2,2,7,31,8,1,0,0,1,0,0,0,0,1,hexagon,star,,,,,,,,,,,,,,,,,,,,,,,,,,,,,,,,,,,,,,,,,,,,,,,,,,,,,,
297781,2022-12-05_11h45.32.342,vts_reward_expectancy_bt,2022.2.4,MacIntel,60.0024001,Chrome,1440,900,,,a,0.625,10,573,2,2,8,32,7,1,0,0,1,0,0,1,0,0,hexagon,circle,,,,,,,,,,,,,,,,,,,,,,,,,,,,,,,,,,,,,,,,,,,,,,,,,,,,,,
297781,2022-12-05_11h45.32.342,vts_reward_expectancy_bt,2022.2.4,MacIntel,60.0024001,Chrome,1440,900,,,l,0.3798,1,574,2,2,9,33,5,1,0,1,0,0,0,0,0,1,circle,star,,,,,,,,,,,,,,,,,,,,,,,,,,,,,,,,,,,,,,,,,,,,,,,,,,,,,,
297781,2022-12-05_11h45.32.342,vts_reward_expectancy_bt,2022.2.4,MacIntel,60.0024001,Chrome,1440,900,,,a,0.394,10,584,2,2,10,34,9,1,0,0,0,1,1,0,0,0,star,triangle,,,,,,,,,,,,,,,,,,,,,,,,,,,,,,,,,,,,,,,,,,,,,,,,,,,,,,
297781,2022-12-05_11h45.32.342,vts_reward_expectancy_bt,2022.2.4,MacIntel,60.0024001,Chrome,1440,900,,,a,0.4334,1,585,2,2,11,35,6,1,0,0,1,0,1,0,0,0,hexagon,triangle,,,,,,,,,,,,,,,,,,,,,,,,,,,,,,,,,,,,,,,,,,,,,,,,,,,,,,
297781,2022-12-05_11h45.32.342,vts_reward_expectancy_bt,2022.2.4,MacIntel,60.0024001,Chrome,1440,900,,,,,,,,,,,,,,,,,,,,,,,U,146,star,0,0,,0,0,0,0,0,1,,,,,,,,,,,,,,,,,,,,,,,,,,,,,,,,,,,,,,,,,,
297781,2022-12-05_11h45.32.342,vts_reward_expectancy_bt,2022.2.4,MacIntel,60.0024001,Chrome,1440,900,,,,,,,,,,,,,,,,,,,,,,,D,167,circle,0,1,,0,1,0,1,0,1,,,,,,,,,,,,,,,,,,,,,,,,,,,,,,,,,,,,,,,,,,
297781,2022-12-05_11h45.32.342,vts_reward_expectancy_bt,2022.2.4,MacIntel,60.0024001,Chrome,1440,900,,,,,,,,,,,,,,,,,,,,,,,W,160,hexagon,1,1,f,0,2,0,2,0,1,1.0621,,,,,,,,,,,,,,,,,,,,,,,,,,,,,,,,,,,,,,,,,
297781,2022-12-05_11h45.32.342,vts_reward_expectancy_bt,2022.2.4,MacIntel,60.0024001,Chrome,1440,900,,,,,,,,,,,,,,,,,,,,,,,S,181,triangle,1,0,f,0,3,0,3,0,1,0.6519,,,,,,,,,,,,,,,,,,,,,,,,,,,,,,,,,,,,,,,,,
297781,2022-12-05_11h45.32.342,vts_reward_expectancy_bt,2022.2.4,MacIntel,60.0024001,Chrome,1440,900,,,,,,,,,,,,,,,,,,,,,,,Y,132,star,1,0,f,0,4,0,4,0,1,0.894,,,,,,,,,,,,,,,,,,,,,,,,,,,,,,,,,,,,,,,,,
297781,2022-12-05_11h45.32.342,vts_reward_expectancy_bt,2022.2.4,MacIntel,60.0024001,Chrome,1440,900,,,,,,,,,,,,,,,,,,,,,,,H,125,circle,0,0,,0,5,0,5,0,1,,,,,,,,,,,,,,,,,,,,,,,,,,,,,,,,,,,,,,,,,,
297781,2022-12-05_11h45.32.342,vts_reward_expectancy_bt,2022.2.4,MacIntel,60.0024001,Chrome,1440,900,,,,,,,,,,,,,,,,,,,,,,,B,174,hexagon,1,1,d,0,6,0,6,0,1,0.5711,,,,,,,,,,,,,,,,,,,,,,,,,,,,,,,,,,,,,,,,,
297781,2022-12-05_11h45.32.342,vts_reward_expectancy_bt,2022.2.4,MacIntel,60.0024001,Chrome,1440,900,,,,,,,,,,,,,,,,,,,,,,,F,139,triangle,0,0,f,0,7,0,7,0,1,1.377,,,,,,,,,,,,,,,,,,,,,,,,,,,,,,,,,,,,,,,,,
297781,2022-12-05_11h45.32.342,vts_reward_expectancy_bt,2022.2.4,MacIntel,60.0024001,Chrome,1440,900,,,,,,,,,,,,,,,,,,,,,,,U,146,circle,1,1,f,0,8,0,8,0,1,0.896,,,,,,,,,,,,,,,,,,,,,,,,,,,,,,,,,,,,,,,,,
297781,2022-12-05_11h45.32.342,vts_reward_expectancy_bt,2022.2.4,MacIntel,60.0024001,Chrome,1440,900,,,,,,,,,,,,,,,,,,,,,,,D,167,hexagon,1,0,d,0,9,0,9,0,1,0.6956,,,,,,,,,,,,,,,,,,,,,,,,,,,,,,,,,,,,,,,,,
297781,2022-12-05_11h45.32.342,vts_reward_expectancy_bt,2022.2.4,MacIntel,60.0024001,Chrome,1440,900,,,,,,,,,,,,,,,,,,,,,,,S,132,triangle,1,0,f,1,0,0,0,0,1,0.8482,,,,,,,,,,,,,,,,,,,,,,,,,,,,,,,,,,,,,,,,,
297781,2022-12-05_11h45.32.342,vts_reward_expectancy_bt,2022.2.4,MacIntel,60.0024001,Chrome,1440,900,,,,,,,,,,,,,,,,,,,,,,,H,181,hexagon,1,0,d,1,1,0,1,0,1,1.0478,,,,,,,,,,,,,,,,,,,,,,,,,,,,,,,,,,,,,,,,,
297781,2022-12-05_11h45.32.342,vts_reward_expectancy_bt,2022.2.4,MacIntel,60.0024001,Chrome,1440,900,,,,,,,,,,,,,,,,,,,,,,,D,125,circle,1,0,d,1,2,0,2,0,1,0.6246,,,,,,,,,,,,,,,,,,,,,,,,,,,,,,,,,,,,,,,,,
297781,2022-12-05_11h45.32.342,vts_reward_expectancy_bt,2022.2.4,MacIntel,60.0024001,Chrome,1440,900,,,,,,,,,,,,,,,,,,,,,,,B,160,star,1,0,d,1,3,0,3,0,1,0.5586,,,,,,,,,,,,,,,,,,,,,,,,,,,,,,,,,,,,,,,,,
297781,2022-12-05_11h45.32.342,vts_reward_expectancy_bt,2022.2.4,MacIntel,60.0024001,Chrome,1440,900,,,,,,,,,,,,,,,,,,,,,,,U,174,triangle,1,0,f,1,4,0,4,0,1,0.8285,,,,,,,,,,,,,,,,,,,,,,,,,,,,,,,,,,,,,,,,,
297781,2022-12-05_11h45.32.342,vts_reward_expectancy_bt,2022.2.4,MacIntel,60.0024001,Chrome,1440,900,,,,,,,,,,,,,,,,,,,,,,,Y,146,hexagon,1,0,f,1,5,0,5,0,1,0.7106,,,,,,,,,,,,,,,,,,,,,,,,,,,,,,,,,,,,,,,,,
297781,2022-12-05_11h45.32.342,vts_reward_expectancy_bt,2022.2.4,MacIntel,60.0024001,Chrome,1440,900,,,,,,,,,,,,,,,,,,,,,,,F,167,circle,1,0,d,1,6,0,6,0,1,1.3052,,,,,,,,,,,,,,,,,,,,,,,,,,,,,,,,,,,,,,,,,
297781,2022-12-05_11h45.32.342,vts_reward_expectancy_bt,2022.2.4,MacIntel,60.0024001,Chrome,1440,900,,,,,,,,,,,,,,,,,,,,,,,W,139,star,1,0,f,1,7,0,7,0,1,0.8748,,,,,,,,,,,,,,,,,,,,,,,,,,,,,,,,,,,,,,,,,
297781,2022-12-05_11h45.32.342,vts_reward_expectancy_bt,2022.2.4,MacIntel,60.0024001,Chrome,1440,900,,,,,,,,,,,,,,,,,,,,,,,S,132,star,1,0,f,1,8,0,8,0,1,0.6321,,,,,,,,,,,,,,,,,,,,,,,,,,,,,,,,,,,,,,,,,
297781,2022-12-05_11h45.32.342,vts_reward_expectancy_bt,2022.2.4,MacIntel,60.0024001,Chrome,1440,900,,,,,,,,,,,,,,,,,,,,,,,H,181,triangle,1,0,d,1,9,0,9,0,1,1.0788,,,,,,,,,,,,,,,,,,,,,,,,,,,,,,,,,,,,,,,,,
297781,2022-12-05_11h45.32.342,vts_reward_expectancy_bt,2022.2.4,MacIntel,60.0024001,Chrome,1440,900,,,,,,,,,,,,,,,,,,,,,,,D,139,hexagon,1,0,,2,,,,,,,j,0.8955,0,0,0,0,1,,,,,,,,,,,,,,,,,,,,,,,,,,,,,,,,,,
297781,2022-12-05_11h45.32.342,vts_reward_expectancy_bt,2022.2.4,MacIntel,60.0024001,Chrome,1440,900,,,,,,,,,,,,,,,,,,,,,,,W,160,triangle,1,0,,2,,,,,,,k,0.5433,1,0,1,0,1,,,,,,,,,,,,,,,,,,,,,,,,,,,,,,,,,,
297781,2022-12-05_11h45.32.342,vts_reward_expectancy_bt,2022.2.4,MacIntel,60.0024001,Chrome,1440,900,,,,,,,,,,,,,,,,,,,,,,,S,146,star,1,0,,2,,,,,,,j,0.5789,2,0,2,0,1,,,,,,,,,,,,,,,,,,,,,,,,,,,,,,,,,,
297781,2022-12-05_11h45.32.342,vts_reward_expectancy_bt,2022.2.4,MacIntel,60.0024001,Chrome,1440,900,,,,,,,,,,,,,,,,,,,,,,,F,125,circle,1,0,,2,,,,,,,j,0.5318,3,0,3,0,1,,,,,,,,,,,,,,,,,,,,,,,,,,,,,,,,,,
297781,2022-12-05_11h45.32.342,vts_reward_expectancy_bt,2022.2.4,MacIntel,60.0024001,Chrome,1440,900,,,,,,,,,,,,,,,,,,,,,,,B,132,hexagon,1,0,,2,,,,,,,j,0.609,4,0,4,0,1,,,,,,,,,,,,,,,,,,,,,,,,,,,,,,,,,,
297781,2022-12-05_11h45.32.342,vts_reward_expectancy_bt,2022.2.4,MacIntel,60.0024001,Chrome,1440,900,,,,,,,,,,,,,,,,,,,,,,,U,181,triangle,1,0,,2,,,,,,,k,0.5905,5,0,5,0,1,,,,,,,,,,,,,,,,,,,,,,,,,,,,,,,,,,
297781,2022-12-05_11h45.32.342,vts_reward_expectancy_bt,2022.2.4,MacIntel,60.0024001,Chrome,1440,900,,,,,,,,,,,,,,,,,,,,,,,H,167,star,1,0,,2,,,,,,,k,0.633,6,0,6,0,1,,,,,,,,,,,,,,,,,,,,,,,,,,,,,,,,,,
297781,2022-12-05_11h45.32.342,vts_reward_expectancy_bt,2022.2.4,MacIntel,60.0024001,Chrome,1440,900,,,,,,,,,,,,,,,,,,,,,,,Y,174,circle,1,0,,2,,,,,,,k,0.5932,7,0,7,0,1,,,,,,,,,,,,,,,,,,,,,,,,,,,,,,,,,,
297781,2022-12-05_11h45.32.342,vts_reward_expectancy_bt,2022.2.4,MacIntel,60.0024001,Chrome,1440,900,,,,,,,,,,,,,,,,,,,,,,,D,139,star,1,0,,2,,,,,,,j,0.6657,8,0,8,0,1,,,,,,,,,,,,,,,,,,,,,,,,,,,,,,,,,,
297781,2022-12-05_11h45.32.342,vts_reward_expectancy_bt,2022.2.4,MacIntel,60.0024001,Chrome,1440,900,,,,,,,,,,,,,,,,,,,,,,,W,160,triangle,1,0,,2,,,,,,,k,0.5614,9,0,9,0,1,,,,,,,,,,,,,,,,,,,,,,,,,,,,,,,,,,
297781,2022-12-05_11h45.32.342,vts_reward_expectancy_bt,2022.2.4,MacIntel,60.0024001,Chrome,1440,900,,,,,0,585,,,,,,,,,,,,,,,,,U,174,star,1,0,,3,,,,,,,,,,,,,,-1,number,NA,k,1.8589,vtsPrac,0,0,0,0,1,,,,,,,,,,,,,,,,,,,,,,,
297781,2022-12-05_11h45.32.342,vts_reward_expectancy_bt,2022.2.4,MacIntel,60.0024001,Chrome,1440,900,,,,,0,585,,,,,,,,,,,,,,,,,D,132,circle,1,0,,3,,,,,,,,,,,,,,repeat,number,numRpt,j,1.1122,vtsPrac,1,0,1,0,1,,,,,,,,,,,,,,,,,,,,,,,
297781,2022-12-05_11h45.32.342,vts_reward_expectancy_bt,2022.2.4,MacIntel,60.0024001,Chrome,1440,900,,,,,0,585,,,,,,,,,,,,,,,,,B,167,star,0,0,,3,,,,,,,,,,,,,,switch,letter,NA,f,1.3,vtsPrac,2,0,2,0,1,,,,,,,,,,,,,,,,,,,,,,,
297781,2022-12-05_11h45.32.342,vts_reward_expectancy_bt,2022.2.4,MacIntel,60.0024001,Chrome,1440,900,,,,,0,585,,,,,,,,,,,,,,,,,S,125,circle,1,1,,3,,,,,,,,,,,,,,switch,number,numSwt,j,1.7483,vtsPrac,3,0,3,0,1,,,,,,,,,,,,,,,,,,,,,,,
297781,2022-12-05_11h45.32.342,vts_reward_expectancy_bt,2022.2.4,MacIntel,60.0024001,Chrome,1440,900,,,,,0,585,,,,,,,,,,,,,,,,,U,174,star,1,0,,3,,,,,,,,,,,,,,repeat,number,numRpt,k,1.3083,vtsPrac,4,0,4,0,1,,,,,,,,,,,,,,,,,,,,,,,
297781,2022-12-05_11h45.32.342,vts_reward_expectancy_bt,2022.2.4,MacIntel,60.0024001,Chrome,1440,900,,,,,0,585,,,,,,,,,,,,,,,,,D,132,hexagon,1,0,,3,,,,,,,,,,,,,,repeat,number,numRpt,j,1.6435,vtsPrac,5,0,5,0,1,,,,,,,,,,,,,,,,,,,,,,,
297781,2022-12-05_11h45.32.342,vts_reward_expectancy_bt,2022.2.4,MacIntel,60.0024001,Chrome,1440,900,,,,,0,585,,,,,,,,,,,,,,,,,B,167,triangle,1,0,,3,,,,,,,,,,,,,,repeat,number,numRpt,k,0.8114,vtsPrac,6,0,6,0,1,,,,,,,,,,,,,,,,,,,,,,,
297781,2022-12-05_11h45.32.342,vts_reward_expectancy_bt,2022.2.4,MacIntel,60.0024001,Chrome,1440,900,,,,,0,585,,,,,,,,,,,,,,,,,S,125,star,1,0,,3,,,,,,,,,,,,,,repeat,number,numRpt,j,0.8305,vtsPrac,7,0,7,0,1,,,,,,,,,,,,,,,,,,,,,,,
297781,2022-12-05_11h45.32.342,vts_reward_expectancy_bt,2022.2.4,MacIntel,60.0024001,Chrome,1440,900,,,,,0,585,,,,,,,,,,,,,,,,,S,160,star,0,0,,3,,,,,,,,,,,,,,switch,letter,NA,d,0.3986,vtsPrac,8,0,8,0,1,,,,,,,,,,,,,,,,,,,,,,,
297781,2022-12-05_11h45.32.342,vts_reward_expectancy_bt,2022.2.4,MacIntel,60.0024001,Chrome,1440,900,,,,,0,585,,,,,,,,,,,,,,,,,B,146,triangle,1,1,,3,,,,,,,,,,,,,,switch,number,numSwt,j,1.8983,vtsPrac,9,0,9,0,1,,,,,,,,,,,,,,,,,,,,,,,
297781,2022-12-05_11h45.32.342,vts_reward_expectancy_bt,2022.2.4,MacIntel,60.0024001,Chrome,1440,900,,,,,0,585,,,,,,,,,,,,,,,,,Y,125,triangle,1,0,,3,,,,,,,,,,,,,,repeat,number,numRpt,j,0.7727,vtsPrac,10,0,10,0,1,,,,,,,,,,,,,,,,,,,,,,,
297781,2022-12-05_11h45.32.342,vts_reward_expectancy_bt,2022.2.4,MacIntel,60.0024001,Chrome,1440,900,,,,,0,585,,,,,,,,,,,,,,,,,H,132,star,1,0,,3,,,,,,,,,,,,,,repeat,number,numRpt,j,0.9914,vtsPrac,11,0,11,0,1,,,,,,,,,,,,,,,,,,,,,,,
297781,2022-12-05_11h45.32.342,vts_reward_expectancy_bt,2022.2.4,MacIntel,60.0024001,Chrome,1440,900,,,,,0,585,,,,,,,,,,,,,,,,,B,167,triangle,1,0,,3,,,,,,,,,,,,,,repeat,number,numRpt,k,0.6971,vtsPrac,12,0,12,0,1,,,,,,,,,,,,,,,,,,,,,,,
297781,2022-12-05_11h45.32.342,vts_reward_expectancy_bt,2022.2.4,MacIntel,60.0024001,Chrome,1440,900,,,,,0,585,,,,,,,,,,,,,,,,,U,139,circle,1,0,,3,,,,,,,,,,,,,,repeat,number,numRpt,j,0.6581,vtsPrac,13,0,13,0,1,,,,,,,,,,,,,,,,,,,,,,,
297781,2022-12-05_11h45.32.342,vts_reward_expectancy_bt,2022.2.4,MacIntel,60.0024001,Chrome,1440,900,,,,,0,585,,,,,,,,,,,,,,,,,D,181,circle,1,0,,3,,,,,,,,,,,,,,repeat,number,numRpt,k,0.7248,vtsPrac,14,0,14,0,1,,,,,,,,,,,,,,,,,,,,,,,
297781,2022-12-05_11h45.32.342,vts_reward_expectancy_bt,2022.2.4,MacIntel,60.0024001,Chrome,1440,900,,,,,0,585,,,,,,,,,,,,,,,,,S,125,star,1,0,,3,,,,,,,,,,,,,,repeat,number,numRpt,j,0.7271,vtsPrac,15,0,15,0,1,,,,,,,,,,,,,,,,,,,,,,,
297781,2022-12-05_11h45.32.342,vts_reward_expectancy_bt,2022.2.4,MacIntel,60.0024001,Chrome,1440,900,,,,,0,585,,,,,,,,,,,,,,,,,F,125,star,1,0,,3,,,,,,,,,,,,,,repeat,number,numRpt,j,0.7238,vtsPrac,16,0,16,0,1,,,,,,,,,,,,,,,,,,,,,,,
297781,2022-12-05_11h45.32.342,vts_reward_expectancy_bt,2022.2.4,MacIntel,60.0024001,Chrome,1440,900,,,,,0,585,,,,,,,,,,,,,,,,,S,174,hexagon,1,0,,3,,,,,,,,,,,,,,repeat,number,numRpt,k,0.6914,vtsPrac,17,0,17,0,1,,,,,,,,,,,,,,,,,,,,,,,
297781,2022-12-05_11h45.32.342,vts_reward_expectancy_bt,2022.2.4,MacIntel,60.0024001,Chrome,1440,900,,,,,0,585,,,,,,,,,,,,,,,,,U,160,star,1,0,,3,,,,,,,,,,,,,,repeat,number,numRpt,k,0.7939,vtsPrac,18,0,18,0,1,,,,,,,,,,,,,,,,,,,,,,,
297781,2022-12-05_11h45.32.342,vts_reward_expectancy_bt,2022.2.4,MacIntel,60.0024001,Chrome,1440,900,,,,,0,585,,,,,,,,,,,,,,,,,W,146,triangle,1,0,,3,,,,,,,,,,,,,,repeat,number,numRpt,j,1.0933,vtsPrac,19,0,19,0,1,,,,,,,,,,,,,,,,,,,,,,,
297781,2022-12-05_11h45.32.342,vts_reward_expectancy_bt,2022.2.4,MacIntel,60.0024001,Chrome,1440,900,,,,,0,585,,,,,,,,,,,,,,,,,S,125,circle,1,0,,3,,,,,,,,,,,,,,repeat,number,numRpt,j,1.0443,vtsPrac,20,0,20,0,1,,,,,,,,,,,,,,,,,,,,,,,
297781,2022-12-05_11h45.32.342,vts_reward_expectancy_bt,2022.2.4,MacIntel,60.0024001,Chrome,1440,900,,,,,0,585,,,,,,,,,,,,,,,,,F,174,star,1,0,,3,,,,,,,,,,,,,,repeat,number,numRpt,k,0.5922,vtsPrac,21,0,21,0,1,,,,,,,,,,,,,,,,,,,,,,,
297781,2022-12-05_11h45.32.342,vts_reward_expectancy_bt,2022.2.4,MacIntel,60.0024001,Chrome,1440,900,,,,,0,585,,,,,,,,,,,,,,,,,W,167,hexagon,1,0,,3,,,,,,,,,,,,,,repeat,number,numRpt,k,1.2415,vtsPrac,22,0,22,0,1,,,,,,,,,,,,,,,,,,,,,,,
297781,2022-12-05_11h45.32.342,vts_reward_expectancy_bt,2022.2.4,MacIntel,60.0024001,Chrome,1440,900,,,,,0,585,,,,,,,,,,,,,,,,,U,160,circle,1,0,,3,,,,,,,,,,,,,,repeat,number,numRpt,k,1.1619,vtsPrac,23,0,23,0,1,,,,,,,,,,,,,,,,,,,,,,,
297781,2022-12-05_11h45.32.342,vts_reward_expectancy_bt,2022.2.4,MacIntel,60.0024001,Chrome,1440,900,,,,,0,585,,,,,,,,,,,,,,,,,D,146,triangle,1,0,,3,,,,,,,,,,,,,,repeat,number,numRpt,j,0.974,vtsPrac,24,0,24,0,1,,,,,,,,,,,,,,,,,,,,,,,
297781,2022-12-05_11h45.32.342,vts_reward_expectancy_bt,2022.2.4,MacIntel,60.0024001,Chrome,1440,900,,,,,0,585,,,,,,,,,,,,,,,,,Y,167,star,1,0,,3,,,,,,,,,,,,,,repeat,number,numRpt,k,0.7633,vtsPrac,25,0,25,0,1,,,,,,,,,,,,,,,,,,,,,,,
297781,2022-12-05_11h45.32.342,vts_reward_expectancy_bt,2022.2.4,MacIntel,60.0024001,Chrome,1440,900,,,,,0,585,,,,,,,,,,,,,,,,,U,181,triangle,1,0,,3,,,,,,,,,,,,,,repeat,number,numRpt,k,0.6796,vtsPrac,26,0,26,0,1,,,,,,,,,,,,,,,,,,,,,,,
297781,2022-12-05_11h45.32.342,vts_reward_expectancy_bt,2022.2.4,MacIntel,60.0024001,Chrome,1440,900,,,,,0,585,,,,,,,,,,,,,,,,,F,160,circle,1,0,,3,,,,,,,,,,,,,,repeat,number,numRpt,k,0.9661,vtsPrac,27,0,27,0,1,,,,,,,,,,,,,,,,,,,,,,,
297781,2022-12-05_11h45.32.342,vts_reward_expectancy_bt,2022.2.4,MacIntel,60.0024001,Chrome,1440,900,,,,,0,585,,,,,,,,,,,,,,,,,D,174,star,1,0,,3,,,,,,,,,,,,,,repeat,number,numRpt,k,0.6452,vtsPrac,28,0,28,0,1,,,,,,,,,,,,,,,,,,,,,,,
297781,2022-12-05_11h45.32.342,vts_reward_expectancy_bt,2022.2.4,MacIntel,60.0024001,Chrome,1440,900,,,,,0,585,,,,,,,,,,,,,,,,,H,139,circle,1,0,,3,,,,,,,,,,,,,,repeat,number,numRpt,j,0.7484,vtsPrac,29,0,29,0,1,,,,,,,,,,,,,,,,,,,,,,,
297781,2022-12-05_11h45.32.342,vts_reward_expectancy_bt,2022.2.4,MacIntel,60.0024001,Chrome,1440,900,,,,,0,585,,,,,,,,,,,,,,,,,W,167,star,1,0,,3,,,,,,,,,,,,,,repeat,number,numRpt,k,0.658,vtsPrac,30,0,30,0,1,,,,,,,,,,,,,,,,,,,,,,,
297781,2022-12-05_11h45.32.342,vts_reward_expectancy_bt,2022.2.4,MacIntel,60.0024001,Chrome,1440,900,,,,,0,585,,,,,,,,,,,,,,,,,U,146,circle,1,0,,3,,,,,,,,,,,,,,repeat,number,numRpt,j,0.7235,vtsPrac,31,0,31,0,1,,,,,,,,,,,,,,,,,,,,,,,
297781,2022-12-05_11h45.32.342,vts_reward_expectancy_bt,2022.2.4,MacIntel,60.0024001,Chrome,1440,900,,,,,0,585,,,,,,,,,,,,,,,,,Y,125,triangle,1,0,,4,,,,,,,,,,,,,,switch,letter,lettSwt,f,0.7107,vtsPrac,0,0,0,0,1,,,,,,,,,,,,,,,,,,,,,,,
297781,2022-12-05_11h45.32.342,vts_reward_expectancy_bt,2022.2.4,MacIntel,60.0024001,Chrome,1440,900,,,,,0,585,,,,,,,,,,,,,,,,,H,160,hexagon,1,0,,4,,,,,,,,,,,,,,repeat,letter,lettRpt,d,1.1435,vtsPrac,1,0,1,0,1,,,,,,,,,,,,,,,,,,,,,,,
297781,2022-12-05_11h45.32.342,vts_reward_expectancy_bt,2022.2.4,MacIntel,60.0024001,Chrome,1440,900,,,,,0,585,,,,,,,,,,,,,,,,,S,167,triangle,1,0,,4,,,,,,,,,,,,,,switch,number,numSwt,k,0.8906,vtsPrac,2,0,2,0,1,,,,,,,,,,,,,,,,,,,,,,,
297781,2022-12-05_11h45.32.342,vts_reward_expectancy_bt,2022.2.4,MacIntel,60.0024001,Chrome,1440,900,,,,,0,585,,,,,,,,,,,,,,,,,B,139,hexagon,1,0,,4,,,,,,,,,,,,,,switch,letter,lettSwt,d,0.4947,vtsPrac,3,0,3,0,1,,,,,,,,,,,,,,,,,,,,,,,
297781,2022-12-05_11h45.32.342,vts_reward_expectancy_bt,2022.2.4,MacIntel,60.0024001,Chrome,1440,900,,,,,0,585,,,,,,,,,,,,,,,,,Y,125,hexagon,1,0,,4,,,,,,,,,,,,,,switch,number,numSwt,j,0.8108,vtsPrac,4,0,4,0,1,,,,,,,,,,,,,,,,,,,,,,,
297781,2022-12-05_11h45.32.342,vts_reward_expectancy_bt,2022.2.4,MacIntel,60.0024001,Chrome,1440,900,,,,,0,585,,,,,,,,,,,,,,,,,H,160,star,1,0,,4,,,,,,,,,,,,,,repeat,number,numRpt,k,0.8095,vtsPrac,5,0,5,0,1,,,,,,,,,,,,,,,,,,,,,,,
297781,2022-12-05_11h45.32.342,vts_reward_expectancy_bt,2022.2.4,MacIntel,60.0024001,Chrome,1440,900,,,,,0,585,,,,,,,,,,,,,,,,,S,167,hexagon,1,0,,4,,,,,,,,,,,,,,switch,letter,lettSwt,f,0.6095,vtsPrac,6,0,6,0,1,,,,,,,,,,,,,,,,,,,,,,,
297781,2022-12-05_11h45.32.342,vts_reward_expectancy_bt,2022.2.4,MacIntel,60.0024001,Chrome,1440,900,,,,,0,585,,,,,,,,,,,,,,,,,B,139,star,1,0,,4,,,,,,,,,,,,,,switch,number,numSwt,j,0.7762,vtsPrac,7,0,7,0,1,,,,,,,,,,,,,,,,,,,,,,,
297781,2022-12-05_11h45.32.342,vts_reward_expectancy_bt,2022.2.4,MacIntel,60.0024001,Chrome,1440,900,,,,,0,585,,,,,,,,,,,,,,,,,F,132,circle,1,0,,4,,,,,,,,,,,,,,repeat,number,numRpt,j,0.7864,vtsPrac,8,0,8,0,1,,,,,,,,,,,,,,,,,,,,,,,
297781,2022-12-05_11h45.32.342,vts_reward_expectancy_bt,2022.2.4,MacIntel,60.0024001,Chrome,1440,900,,,,,0,585,,,,,,,,,,,,,,,,,W,160,triangle,1,0,,4,,,,,,,,,,,,,,switch,letter,lettSwt,f,1.074,vtsPrac,9,0,9,0,1,,,,,,,,,,,,,,,,,,,,,,,
297781,2022-12-05_11h45.32.342,vts_reward_expectancy_bt,2022.2.4,MacIntel,60.0024001,Chrome,1440,900,,,,,0,585,,,,,,,,,,,,,,,,,D,146,hexagon,1,0,,4,,,,,,,,,,,,,,repeat,letter,lettRpt,d,0.5258,vtsPrac,10,0,10,0,1,,,,,,,,,,,,,,,,,,,,,,,
297781,2022-12-05_11h45.32.342,vts_reward_expectancy_bt,2022.2.4,MacIntel,60.0024001,Chrome,1440,900,,,,,0,585,,,,,,,,,,,,,,,,,Y,181,triangle,1,0,,4,,,,,,,,,,,,,,repeat,letter,lettRpt,f,0.7589,vtsPrac,11,0,11,0,1,,,,,,,,,,,,,,,,,,,,,,,
297781,2022-12-05_11h45.32.342,vts_reward_expectancy_bt,2022.2.4,MacIntel,60.0024001,Chrome,1440,900,,,,,0,585,,,,,,,,,,,,,,,,,H,174,hexagon,1,0,,4,,,,,,,,,,,,,,switch,number,numSwt,k,0.7413,vtsPrac,12,0,12,0,1,,,,,,,,,,,,,,,,,,,,,,,
297781,2022-12-05_11h45.32.342,vts_reward_expectancy_bt,2022.2.4,MacIntel,60.0024001,Chrome,1440,900,,,,,0,585,,,,,,,,,,,,,,,,,D,132,triangle,1,0,,4,,,,,,,,,,,,,,repeat,number,numRpt,j,0.7656,vtsPrac,13,0,13,0,1,,,,,,,,,,,,,,,,,,,,,,,
297781,2022-12-05_11h45.32.342,vts_reward_expectancy_bt,2022.2.4,MacIntel,60.0024001,Chrome,1440,900,,,,,0,585,,,,,,,,,,,,,,,,,S,139,star,1,0,,4,,,,,,,,,,,,,,switch,letter,lettSwt,f,0.6159,vtsPrac,14,0,14,0,1,,,,,,,,,,,,,,,,,,,,,,,
297781,2022-12-05_11h45.32.342,vts_reward_expectancy_bt,2022.2.4,MacIntel,60.0024001,Chrome,1440,900,,,,,0,585,,,,,,,,,,,,,,,,,B,146,triangle,1,0,,4,,,,,,,,,,,,,,repeat,letter,lettRpt,d,0.6261,vtsPrac,15,0,15,0,1,,,,,,,,,,,,,,,,,,,,,,,
297781,2022-12-05_11h45.32.342,vts_reward_expectancy_bt,2022.2.4,MacIntel,60.0024001,Chrome,1440,900,,,,,0,585,,,,,,,,,,,,,,,,,W,174,star,1,0,,4,,,,,,,,,,,,,,switch,number,numSwt,k,0.7767,vtsPrac,16,0,16,0,1,,,,,,,,,,,,,,,,,,,,,,,
297781,2022-12-05_11h45.32.342,vts_reward_expectancy_bt,2022.2.4,MacIntel,60.0024001,Chrome,1440,900,,,,,0,585,,,,,,,,,,,,,,,,,H,160,hexagon,1,0,,4,,,,,,,,,,,,,,switch,letter,lettSwt,d,0.8088,vtsPrac,17,0,17,0,1,,,,,,,,,,,,,,,,,,,,,,,
297781,2022-12-05_11h45.32.342,vts_reward_expectancy_bt,2022.2.4,MacIntel,60.0024001,Chrome,1440,900,,,,,0,585,,,,,,,,,,,,,,,,,F,132,triangle,1,0,,4,,,,,,,,,,,,,,switch,number,numSwt,j,0.7573,vtsPrac,18,0,18,0,1,,,,,,,,,,,,,,,,,,,,,,,
297781,2022-12-05_11h45.32.342,vts_reward_expectancy_bt,2022.2.4,MacIntel,60.0024001,Chrome,1440,900,,,,,0,585,,,,,,,,,,,,,,,,,B,125,circle,1,0,,4,,,,,,,,,,,,,,repeat,number,numRpt,j,0.5765,vtsPrac,19,0,19,0,1,,,,,,,,,,,,,,,,,,,,,,,
297781,2022-12-05_11h45.32.342,vts_reward_expectancy_bt,2022.2.4,MacIntel,60.0024001,Chrome,1440,900,,,,,0,585,,,,,,,,,,,,,,,,,U,139,circle,1,0,,4,,,,,,,,,,,,,,switch,letter,lettSwt,f,0.7903,vtsPrac,20,0,20,0,1,,,,,,,,,,,,,,,,,,,,,,,
297781,2022-12-05_11h45.32.342,vts_reward_expectancy_bt,2022.2.4,MacIntel,60.0024001,Chrome,1440,900,,,,,0,585,,,,,,,,,,,,,,,,,D,160,star,1,0,,4,,,,,,,,,,,,,,repeat,letter,lettRpt,d,0.7279,vtsPrac,21,0,21,0,1,,,,,,,,,,,,,,,,,,,,,,,
297781,2022-12-05_11h45.32.342,vts_reward_expectancy_bt,2022.2.4,MacIntel,60.0024001,Chrome,1440,900,,,,,0,585,,,,,,,,,,,,,,,,,Y,125,triangle,1,0,,4,,,,,,,,,,,,,,switch,number,numSwt,j,0.6085,vtsPrac,22,0,22,0,1,,,,,,,,,,,,,,,,,,,,,,,
297781,2022-12-05_11h45.32.342,vts_reward_expectancy_bt,2022.2.4,MacIntel,60.0024001,Chrome,1440,900,,,,,0,585,,,,,,,,,,,,,,,,,F,146,star,1,0,,4,,,,,,,,,,,,,,switch,letter,lettSwt,d,1.1641,vtsPrac,23,0,23,0,1,,,,,,,,,,,,,,,,,,,,,,,
297781,2022-12-05_11h45.32.342,vts_reward_expectancy_bt,2022.2.4,MacIntel,60.0024001,Chrome,1440,900,,,,,0,585,,,,,,,,,,,,,,,,,D,181,triangle,1,0,,4,,,,,,,,,,,,,,switch,number,numSwt,k,1.033,vtsPrac,24,0,24,0,1,,,,,,,,,,,,,,,,,,,,,,,
297781,2022-12-05_11h45.32.342,vts_reward_expectancy_bt,2022.2.4,MacIntel,60.0024001,Chrome,1440,900,,,,,0,585,,,,,,,,,,,,,,,,,U,132,circle,1,0,,4,,,,,,,,,,,,,,switch,letter,lettSwt,f,0.6132,vtsPrac,25,0,25,0,1,,,,,,,,,,,,,,,,,,,,,,,
297781,2022-12-05_11h45.32.342,vts_reward_expectancy_bt,2022.2.4,MacIntel,60.0024001,Chrome,1440,900,,,,,0,585,,,,,,,,,,,,,,,,,Y,167,circle,1,0,,4,,,,,,,,,,,,,,repeat,letter,lettRpt,f,0.5936,vtsPrac,26,0,26,0,1,,,,,,,,,,,,,,,,,,,,,,,
297781,2022-12-05_11h45.32.342,vts_reward_expectancy_bt,2022.2.4,MacIntel,60.0024001,Chrome,1440,900,,,,,0,585,,,,,,,,,,,,,,,,,F,160,triangle,1,0,,4,,,,,,,,,,,,,,switch,number,numSwt,k,0.7796,vtsPrac,27,0,27,0,1,,,,,,,,,,,,,,,,,,,,,,,
297781,2022-12-05_11h45.32.342,vts_reward_expectancy_bt,2022.2.4,MacIntel,60.0024001,Chrome,1440,900,,,,,0,585,,,,,,,,,,,,,,,,,Y,174,triangle,1,0,,4,,,,,,,,,,,,,,repeat,number,numRpt,k,0.8412,vtsPrac,28,0,28,0,1,,,,,,,,,,,,,,,,,,,,,,,
297781,2022-12-05_11h45.32.342,vts_reward_expectancy_bt,2022.2.4,MacIntel,60.0024001,Chrome,1440,900,,,,,0,585,,,,,,,,,,,,,,,,,U,181,circle,1,0,,4,,,,,,,,,,,,,,switch,letter,lettSwt,f,1.2939,vtsPrac,29,0,29,0,1,,,,,,,,,,,,,,,,,,,,,,,
297781,2022-12-05_11h45.32.342,vts_reward_expectancy_bt,2022.2.4,MacIntel,60.0024001,Chrome,1440,900,,,,,0,585,,,,,,,,,,,,,,,,,H,125,star,1,0,,4,,,,,,,,,,,,,,switch,number,numSwt,j,2.0265,vtsPrac,30,0,30,0,1,,,,,,,,,,,,,,,,,,,,,,,
297781,2022-12-05_11h45.32.342,vts_reward_expectancy_bt,2022.2.4,MacIntel,60.0024001,Chrome,1440,900,,,,,0,585,,,,,,,,,,,,,,,,,B,139,triangle,1,0,,4,,,,,,,,,,,,,,switch,letter,lettSwt,d,1.7459,vtsPrac,31,0,31,0,1,,,,,,,,,,,,,,,,,,,,,,,
297781,2022-12-05_11h45.32.342,vts_reward_expectancy_bt,2022.2.4,MacIntel,60.0024001,Chrome,1440,900,,,,,,,,,,,,,,,,,,,,,,,,,,,,,,,,,,,,,,,,,,,,,,,,,,,,,,,,,,,,,,,,,,,,,,,,,,,,
297781,2022-12-05_11h45.32.342,vts_reward_expectancy_bt,2022.2.4,MacIntel,60.0024001,Chrome,1440,900,,,,,,,,,,,,,,,,,,,,,,,,,,,,,,,,,,,,,,,,,,,,,,,,,,,,,,,,,,,,,,,,,,,,,,,,,,,,
297781,2022-12-05_11h45.32.342,vts_reward_expectancy_bt,2022.2.4,MacIntel,60.0024001,Chrome,1440,900,,,,,0,585,,,,,,,,,,,,,,,,,W,160,star,1,0,,,,,,,,,,,,,,,,switch,number,numSwt,k,0.6941,noRew,,,,,,0,0,0,0,0,1,,,,,,,,,,,,,,,,,
297781,2022-12-05_11h45.32.342,vts_reward_expectancy_bt,2022.2.4,MacIntel,60.0024001,Chrome,1440,900,,,,,0,585,,,,,,,,,,,,,,,,,F,132,circle,1,0,,,,,,,,,,,,,,,,switch,letter,lettSwt,d,1.4908,noRew,,,,,,0,1,0,1,0,1,,,,,,,,,,,,,,,,,
297781,2022-12-05_11h45.32.342,vts_reward_expectancy_bt,2022.2.4,MacIntel,60.0024001,Chrome,1440,900,,,,,0,585,,,,,,,,,,,,,,,,,D,167,star,1,0,,,,,,,,,,,,,,,,switch,number,numSwt,k,0.6066,noRew,,,,,,0,2,0,2,0,1,,,,,,,,,,,,,,,,,
297781,2022-12-05_11h45.32.342,vts_reward_expectancy_bt,2022.2.4,MacIntel,60.0024001,Chrome,1440,900,,,,,0,585,,,,,,,,,,,,,,,,,B,181,circle,1,0,,,,,,,,,,,,,,,,switch,letter,lettSwt,d,0.7121,noRew,,,,,,0,3,0,3,0,1,,,,,,,,,,,,,,,,,
297781,2022-12-05_11h45.32.342,vts_reward_expectancy_bt,2022.2.4,MacIntel,60.0024001,Chrome,1440,900,,,,,0,585,,,,,,,,,,,,,,,,,W,160,star,1,0,,,,,,,,,,,,,,,,switch,number,numSwt,k,0.7099,noRew,,,,,,0,4,0,4,0,1,,,,,,,,,,,,,,,,,
297781,2022-12-05_11h45.32.342,vts_reward_expectancy_bt,2022.2.4,MacIntel,60.0024001,Chrome,1440,900,,,,,0,585,,,,,,,,,,,,,,,,,F,132,triangle,1,0,,,,,,,,,,,,,,,,repeat,number,numRpt,j,0.829,noRew,,,,,,0,5,0,5,0,1,,,,,,,,,,,,,,,,,
297781,2022-12-05_11h45.32.342,vts_reward_expectancy_bt,2022.2.4,MacIntel,60.0024001,Chrome,1440,900,,,,,0,585,,,,,,,,,,,,,,,,,D,167,hexagon,1,0,,,,,,,,,,,,,,,,switch,letter,lettSwt,d,1.1079,noRew,,,,,,0,6,0,6,0,1,,,,,,,,,,,,,,,,,
297781,2022-12-05_11h45.32.342,vts_reward_expectancy_bt,2022.2.4,MacIntel,60.0024001,Chrome,1440,900,,,,,0,585,,,,,,,,,,,,,,,,,B,181,circle,1,0,,,,,,,,,,,,,,,,repeat,letter,lettRpt,d,0.9624,noRew,,,,,,0,7,0,7,0,1,,,,,,,,,,,,,,,,,
297781,2022-12-05_11h45.32.342,vts_reward_expectancy_bt,2022.2.4,MacIntel,60.0024001,Chrome,1440,900,,,,,0,585,,,,,,,,,,,,,,,,,W,160,triangle,1,0,,,,,,,,,,,,,,,,switch,number,numSwt,k,0.9424,noRew,,,,,,0,8,0,8,0,1,,,,,,,,,,,,,,,,,
297781,2022-12-05_11h45.32.342,vts_reward_expectancy_bt,2022.2.4,MacIntel,60.0024001,Chrome,1440,900,,,,,0,585,,,,,,,,,,,,,,,,,S,132,circle,1,0,,,,,,,,,,,,,,,,repeat,number,numRpt,j,0.7437,noRew,,,,,,0,9,0,9,0,1,,,,,,,,,,,,,,,,,
297781,2022-12-05_11h45.32.342,vts_reward_expectancy_bt,2022.2.4,MacIntel,60.0024001,Chrome,1440,900,,,,,0,585,,,,,,,,,,,,,,,,,B,125,hexagon,1,0,,,,,,,,,,,,,,,,switch,letter,lettSwt,d,0.9416,noRew,,,,,,0,10,0,10,0,1,,,,,,,,,,,,,,,,,
297781,2022-12-05_11h45.32.342,vts_reward_expectancy_bt,2022.2.4,MacIntel,60.0024001,Chrome,1440,900,,,,,0,585,,,,,,,,,,,,,,,,,U,181,triangle,1,0,,,,,,,,,,,,,,,,switch,number,numSwt,k,1.3274,noRew,,,,,,0,11,0,11,0,1,,,,,,,,,,,,,,,,,
297781,2022-12-05_11h45.32.342,vts_reward_expectancy_bt,2022.2.4,MacIntel,60.0024001,Chrome,1440,900,,,,,0,585,,,,,,,,,,,,,,,,,D,125,hexagon,1,0,,,,,,,,,,,,,,,,switch,letter,lettSwt,d,1.2135,noRew,,,,,,0,12,0,12,0,1,,,,,,,,,,,,,,,,,
297781,2022-12-05_11h45.32.342,vts_reward_expectancy_bt,2022.2.4,MacIntel,60.0024001,Chrome,1440,900,,,,,0,585,,,,,,,,,,,,,,,,,U,132,star,1,0,,,,,,,,,,,,,,,,switch,number,numSwt,j,1.0712,noRew,,,,,,0,13,0,13,0,1,,,,,,,,,,,,,,,,,
297781,2022-12-05_11h45.32.342,vts_reward_expectancy_bt,2022.2.4,MacIntel,60.0024001,Chrome,1440,900,,,,,0,585,,,,,,,,,,,,,,,,,S,146,triangle,1,0,,,,,,,,,,,,,,,,switch,letter,lettSwt,f,0.8577,noRew,,,,,,0,14,0,14,0,1,,,,,,,,,,,,,,,,,
297781,2022-12-05_11h45.32.342,vts_reward_expectancy_bt,2022.2.4,MacIntel,60.0024001,Chrome,1440,900,,,,,0,585,,,,,,,,,,,,,,,,,B,160,star,1,0,,,,,,,,,,,,,,,,repeat,letter,lettRpt,d,0.6811,noRew,,,,,,0,15,0,15,0,1,,,,,,,,,,,,,,,,,
297781,2022-12-05_11h45.32.342,vts_reward_expectancy_bt,2022.2.4,MacIntel,60.0024001,Chrome,1440,900,,,,,0,585,,,,,,,,,,,,,,,,,H,146,star,1,0,,,,,,,,,,,,,,,,switch,number,numSwt,j,1.1912,noRew,,,,,,0,16,0,16,0,1,,,,,,,,,,,,,,,,,
297781,2022-12-05_11h45.32.342,vts_reward_expectancy_bt,2022.2.4,MacIntel,60.0024001,Chrome,1440,900,,,,,0,585,,,,,,,,,,,,,,,,,D,160,triangle,1,0,,,,,,,,,,,,,,,,repeat,number,numRpt,k,1.6957,noRew,,,,,,0,17,0,17,0,1,,,,,,,,,,,,,,,,,
297781,2022-12-05_11h45.32.342,vts_reward_expectancy_bt,2022.2.4,MacIntel,60.0024001,Chrome,1440,900,,,,,0,585,,,,,,,,,,,,,,,,,W,181,circle,1,0,,,,,,,,,,,,,,,,switch,letter,lettSwt,f,1.9106,noRew,,,,,,0,18,0,18,0,1,,,,,,,,,,,,,,,,,
297781,2022-12-05_11h45.32.342,vts_reward_expectancy_bt,2022.2.4,MacIntel,60.0024001,Chrome,1440,900,,,,,0,585,,,,,,,,,,,,,,,,,S,139,star,1,0,,,,,,,,,,,,,,,,switch,number,numSwt,j,2.1285,noRew,,,,,,0,19,0,19,0,1,,,,,,,,,,,,,,,,,
297781,2022-12-05_11h45.32.342,vts_reward_expectancy_bt,2022.2.4,MacIntel,60.0024001,Chrome,1440,900,,,,,0,585,,,,,,,,,,,,,,,,,F,160,circle,1,0,,,,,,,,,,,,,,,,switch,letter,lettSwt,d,2.2741,noRew,,,,,,0,20,0,20,0,1,,,,,,,,,,,,,,,,,
297781,2022-12-05_11h45.32.342,vts_reward_expectancy_bt,2022.2.4,MacIntel,60.0024001,Chrome,1440,900,,,,,0,585,,,,,,,,,,,,,,,,,U,174,star,1,0,,,,,,,,,,,,,,,,switch,number,numSwt,k,1.6076,noRew,,,,,,0,21,0,21,0,1,,,,,,,,,,,,,,,,,
297781,2022-12-05_11h45.32.342,vts_reward_expectancy_bt,2022.2.4,MacIntel,60.0024001,Chrome,1440,900,,,,,0,585,,,,,,,,,,,,,,,,,D,181,hexagon,1,0,,,,,,,,,,,,,,,,switch,letter,lettSwt,d,1.4287,noRew,,,,,,0,22,0,22,0,1,,,,,,,,,,,,,,,,,
297781,2022-12-05_11h45.32.342,vts_reward_expectancy_bt,2022.2.4,MacIntel,60.0024001,Chrome,1440,900,,,,,0,585,,,,,,,,,,,,,,,,,S,132,triangle,1,0,,,,,,,,,,,,,,,,switch,number,numSwt,j,0.625,noRew,,,,,,0,23,0,23,0,1,,,,,,,,,,,,,,,,,
297781,2022-12-05_11h45.32.342,vts_reward_expectancy_bt,2022.2.4,MacIntel,60.0024001,Chrome,1440,900,,,,,0,585,,,,,,,,,,,,,,,,,W,139,hexagon,1,0,,,,,,,,,,,,,,,,repeat,number,numRpt,j,1.2792,noRew,,,,,,0,24,0,24,0,1,,,,,,,,,,,,,,,,,
297781,2022-12-05_11h45.32.342,vts_reward_expectancy_bt,2022.2.4,MacIntel,60.0024001,Chrome,1440,900,,,,,0,585,,,,,,,,,,,,,,,,,S,167,star,1,0,,,,,,,,,,,,,,,,switch,letter,lettSwt,f,1.1435,noRew,,,,,,0,25,0,25,0,1,,,,,,,,,,,,,,,,,
297781,2022-12-05_11h45.32.342,vts_reward_expectancy_bt,2022.2.4,MacIntel,60.0024001,Chrome,1440,900,,,,,0,585,,,,,,,,,,,,,,,,,U,181,circle,1,0,,,,,,,,,,,,,,,,repeat,letter,lettRpt,f,0.9312,noRew,,,,,,0,26,0,26,0,1,,,,,,,,,,,,,,,,,
297781,2022-12-05_11h45.32.342,vts_reward_expectancy_bt,2022.2.4,MacIntel,60.0024001,Chrome,1440,900,,,,,0,585,,,,,,,,,,,,,,,,,H,146,star,0,0,,,,,,,,,,,,,,,,switch,number,NA,k,2.5304,noRew,,,,,,0,27,0,27,0,1,,,,,,,,,,,,,,,,,
297781,2022-12-05_11h45.32.342,vts_reward_expectancy_bt,2022.2.4,MacIntel,60.0024001,Chrome,1440,900,,,,,0,585,,,,,,,,,,,,,,,,,H,167,circle,1,1,,,,,,,,,,,,,,,,repeat,number,numRpt,k,0.6613,noRew,,,,,,0,28,0,28,0,1,,,,,,,,,,,,,,,,,
297781,2022-12-05_11h45.32.342,vts_reward_expectancy_bt,2022.2.4,MacIntel,60.0024001,Chrome,1440,900,,,,,0,585,,,,,,,,,,,,,,,,,F,132,star,1,0,,,,,,,,,,,,,,,,repeat,number,numRpt,j,1.3646,noRew,,,,,,0,29,0,29,0,1,,,,,,,,,,,,,,,,,
297781,2022-12-05_11h45.32.342,vts_reward_expectancy_bt,2022.2.4,MacIntel,60.0024001,Chrome,1440,900,,,,,0,585,,,,,,,,,,,,,,,,,D,146,triangle,1,0,,,,,,,,,,,,,,,,switch,letter,lettSwt,d,1.2154,noRew,,,,,,0,30,0,30,0,1,,,,,,,,,,,,,,,,,
297781,2022-12-05_11h45.32.342,vts_reward_expectancy_bt,2022.2.4,MacIntel,60.0024001,Chrome,1440,900,,,,,0,585,,,,,,,,,,,,,,,,,B,160,circle,1,0,,,,,,,,,,,,,,,,repeat,letter,lettRpt,d,1.0295,noRew,,,,,,0,31,0,31,0,1,,,,,,,,,,,,,,,,,
297781,2022-12-05_11h45.32.342,vts_reward_expectancy_bt,2022.2.4,MacIntel,60.0024001,Chrome,1440,900,,,,,0,585,,,,,,,,,,,,,,,,,U,146,circle,0,0,,,,,,,,,,,,,,,,switch,number,NA,k,0.9114,noRew,,,,,,0,32,0,32,0,1,,,,,,,,,,,,,,,,,
297781,2022-12-05_11h45.32.342,vts_reward_expectancy_bt,2022.2.4,MacIntel,60.0024001,Chrome,1440,900,,,,,0,585,,,,,,,,,,,,,,,,,B,125,triangle,1,1,,,,,,,,,,,,,,,,repeat,number,numRpt,j,2.01,noRew,,,,,,0,33,0,33,0,1,,,,,,,,,,,,,,,,,
297781,2022-12-05_11h45.32.342,vts_reward_expectancy_bt,2022.2.4,MacIntel,60.0024001,Chrome,1440,900,,,,,0,585,,,,,,,,,,,,,,,,,F,132,hexagon,1,0,,,,,,,,,,,,,,,,switch,letter,lettSwt,d,2.5571,noRew,,,,,,0,34,0,34,0,1,,,,,,,,,,,,,,,,,
297781,2022-12-05_11h45.32.342,vts_reward_expectancy_bt,2022.2.4,MacIntel,60.0024001,Chrome,1440,900,,,,,0,585,,,,,,,,,,,,,,,,,S,181,triangle,1,0,,,,,,,,,,,,,,,,switch,number,numSwt,k,1.3769,noRew,,,,,,0,35,0,35,0,1,,,,,,,,,,,,,,,,,
297781,2022-12-05_11h45.32.342,vts_reward_expectancy_bt,2022.2.4,MacIntel,60.0024001,Chrome,1440,900,,,,,0,585,,,,,,,,,,,,,,,,,H,132,star,1,0,,,,,,,,,,,,,,,,repeat,number,numRpt,j,1.9269,noRew,,,,,,0,36,0,36,0,1,,,,,,,,,,,,,,,,,
297781,2022-12-05_11h45.32.342,vts_reward_expectancy_bt,2022.2.4,MacIntel,60.0024001,Chrome,1440,900,,,,,0,585,,,,,,,,,,,,,,,,,W,160,triangle,1,0,,,,,,,,,,,,,,,,switch,letter,lettSwt,f,2.1074,noRew,,,,,,0,37,0,37,0,1,,,,,,,,,,,,,,,,,
297781,2022-12-05_11h45.32.342,vts_reward_expectancy_bt,2022.2.4,MacIntel,60.0024001,Chrome,1440,900,,,,,0,585,,,,,,,,,,,,,,,,,D,139,hexagon,1,0,,,,,,,,,,,,,,,,switch,number,numSwt,j,1.4144,noRew,,,,,,0,38,0,38,0,1,,,,,,,,,,,,,,,,,
297781,2022-12-05_11h45.32.342,vts_reward_expectancy_bt,2022.2.4,MacIntel,60.0024001,Chrome,1440,900,,,,,0,585,,,,,,,,,,,,,,,,,S,167,triangle,1,0,,,,,,,,,,,,,,,,switch,letter,lettSwt,f,2.5112,noRew,,,,,,0,39,0,39,0,1,,,,,,,,,,,,,,,,,
297781,2022-12-05_11h45.32.342,vts_reward_expectancy_bt,2022.2.4,MacIntel,60.0024001,Chrome,1440,900,,,,,0,585,,,,,,,,,,,,,,,,,D,167,circle,1,0,,,,,,,,,,,,,,,,switch,number,numSwt,k,1.5683,noRew,,,,,,0,40,0,40,0,1,,,,,,,,,,,,,,,,,
297781,2022-12-05_11h45.32.342,vts_reward_expectancy_bt,2022.2.4,MacIntel,60.0024001,Chrome,1440,900,,,,,0,585,,,,,,,,,,,,,,,,,H,181,hexagon,0,0,,,,,,,,,,,,,,,,switch,letter,NA,f,1.2978,noRew,,,,,,0,41,0,41,0,1,,,,,,,,,,,,,,,,,
297781,2022-12-05_11h45.32.342,vts_reward_expectancy_bt,2022.2.4,MacIntel,60.0024001,Chrome,1440,900,,,,,0,585,,,,,,,,,,,,,,,,,Y,132,circle,1,1,,,,,,,,,,,,,,,,repeat,letter,lettRpt,f,1.5094,noRew,,,,,,0,42,0,42,0,1,,,,,,,,,,,,,,,,,
297781,2022-12-05_11h45.32.342,vts_reward_expectancy_bt,2022.2.4,MacIntel,60.0024001,Chrome,1440,900,,,,,0,585,,,,,,,,,,,,,,,,,F,146,hexagon,1,0,,,,,,,,,,,,,,,,switch,number,numSwt,j,1.4834,noRew,,,,,,0,43,0,43,0,1,,,,,,,,,,,,,,,,,
297781,2022-12-05_11h45.32.342,vts_reward_expectancy_bt,2022.2.4,MacIntel,60.0024001,Chrome,1440,900,,,,,0,585,,,,,,,,,,,,,,,,,D,146,circle,1,0,,,,,,,,,,,,,,,,repeat,number,numRpt,j,1.8298,noRew,,,,,,0,44,0,44,0,1,,,,,,,,,,,,,,,,,
297781,2022-12-05_11h45.32.342,vts_reward_expectancy_bt,2022.2.4,MacIntel,60.0024001,Chrome,1440,900,,,,,0,585,,,,,,,,,,,,,,,,,B,132,triangle,1,0,,,,,,,,,,,,,,,,switch,letter,lettSwt,d,1.2419,noRew,,,,,,0,45,0,45,0,1,,,,,,,,,,,,,,,,,
297781,2022-12-05_11h45.32.342,vts_reward_expectancy_bt,2022.2.4,MacIntel,60.0024001,Chrome,1440,900,,,,,0,585,,,,,,,,,,,,,,,,,W,160,hexagon,1,0,,,,,,,,,,,,,,,,switch,number,numSwt,k,1.262,noRew,,,,,,0,46,0,46,0,1,,,,,,,,,,,,,,,,,
297781,2022-12-05_11h45.32.342,vts_reward_expectancy_bt,2022.2.4,MacIntel,60.0024001,Chrome,1440,900,,,,,0,585,,,,,,,,,,,,,,,,,Y,167,circle,1,0,,,,,,,,,,,,,,,,switch,letter,lettSwt,f,1.6147,noRew,,,,,,0,47,0,47,0,1,,,,,,,,,,,,,,,,,
297781,2022-12-05_11h45.32.342,vts_reward_expectancy_bt,2022.2.4,MacIntel,60.0024001,Chrome,1440,900,,,,,0,585,,,,,,,,,,,,,,,,,U,167,hexagon,1,0,,,,,,,,,,,,,,,,switch,number,numSwt,k,1.6439,noRew,,,,,,0,48,0,48,0,1,,,,,,,,,,,,,,,,,
297781,2022-12-05_11h45.32.342,vts_reward_expectancy_bt,2022.2.4,MacIntel,60.0024001,Chrome,1440,900,,,,,0,585,,,,,,,,,,,,,,,,,Y,132,star,0,0,,,,,,,,,,,,,,,,switch,letter,NA,d,1.7421,noRew,,,,,,0,49,0,49,0,1,,,,,,,,,,,,,,,,,
297781,2022-12-05_11h45.32.342,vts_reward_expectancy_bt,2022.2.4,MacIntel,60.0024001,Chrome,1440,900,,,,,0,585,,,,,,,,,,,,,,,,,D,181,triangle,1,1,,,,,,,,,,,,,,,,repeat,letter,lettRpt,d,1.431,noRew,,,,,,0,50,0,50,0,1,,,,,,,,,,,,,,,,,
297781,2022-12-05_11h45.32.342,vts_reward_expectancy_bt,2022.2.4,MacIntel,60.0024001,Chrome,1440,900,,,,,0,585,,,,,,,,,,,,,,,,,W,125,star,1,0,,,,,,,,,,,,,,,,switch,number,numSwt,j,1.1084,noRew,,,,,,0,51,0,51,0,1,,,,,,,,,,,,,,,,,
297781,2022-12-05_11h45.32.342,vts_reward_expectancy_bt,2022.2.4,MacIntel,60.0024001,Chrome,1440,900,,,,,0,585,,,,,,,,,,,,,,,,,D,167,star,-1,0,,,,,,,,,,,,,,,,switch,no_choice,NA,,,noRew,,,,,,0,52,0,52,0,1,,,,,,,,,,,,,,,,,
297781,2022-12-05_11h45.32.342,vts_reward_expectancy_bt,2022.2.4,MacIntel,60.0024001,Chrome,1440,900,,,,,0,585,,,,,,,,,,,,,,,,,U,125,triangle,1,0,,,,,,,,,,,,,,,,switch,letter,lettSwt,f,2.1095,noRew,,,,,,0,53,0,53,0,1,,,,,,,,,,,,,,,,,
297781,2022-12-05_11h45.32.342,vts_reward_expectancy_bt,2022.2.4,MacIntel,60.0024001,Chrome,1440,900,,,,,0,585,,,,,,,,,,,,,,,,,S,132,star,1,0,,,,,,,,,,,,,,,,switch,number,numSwt,j,1.223,noRew,,,,,,0,54,0,54,0,1,,,,,,,,,,,,,,,,,
297781,2022-12-05_11h45.32.342,vts_reward_expectancy_bt,2022.2.4,MacIntel,60.0024001,Chrome,1440,900,,,,,0,585,,,,,,,,,,,,,,,,,F,146,triangle,-1,0,,,,,,,,,,,,,,,,switch,no_choice,NA,,,noRew,,,,,,0,55,0,55,0,1,,,,,,,,,,,,,,,,,
297781,2022-12-05_11h45.32.342,vts_reward_expectancy_bt,2022.2.4,MacIntel,60.0024001,Chrome,1440,900,,,,,0,585,,,,,,,,,,,,,,,,,B,181,triangle,1,0,,,,,,,,,,,,,,,,switch,letter,lettSwt,d,0.8795,noRew,,,,,,0,56,0,56,0,1,,,,,,,,,,,,,,,,,
297781,2022-12-05_11h45.32.342,vts_reward_expectancy_bt,2022.2.4,MacIntel,60.0024001,Chrome,1440,900,,,,,0,585,,,,,,,,,,,,,,,,,Y,125,hexagon,0,0,,,,,,,,,,,,,,,,switch,number,NA,k,1.3071,noRew,,,,,,0,57,0,57,0,1,,,,,,,,,,,,,,,,,
297781,2022-12-05_11h45.32.342,vts_reward_expectancy_bt,2022.2.4,MacIntel,60.0024001,Chrome,1440,900,,,,,0,585,,,,,,,,,,,,,,,,,H,167,star,0,1,,,,,,,,,,,,,,,,switch,letter,NA,f,2.9058,noRew,,,,,,0,58,0,58,0,1,,,,,,,,,,,,,,,,,
297781,2022-12-05_11h45.32.342,vts_reward_expectancy_bt,2022.2.4,MacIntel,60.0024001,Chrome,1440,900,,,,,0,585,,,,,,,,,,,,,,,,,S,160,hexagon,1,1,,,,,,,,,,,,,,,,switch,number,numSwt,k,1.0597,noRew,,,,,,0,59,0,59,0,1,,,,,,,,,,,,,,,,,
297781,2022-12-05_11h45.32.342,vts_reward_expectancy_bt,2022.2.4,MacIntel,60.0024001,Chrome,1440,900,,,,,0,585,,,,,,,,,,,,,,,,,B,139,triangle,1,0,,,,,,,,,,,,,,,,switch,letter,lettSwt,d,0.7097,noRew,,,,,,0,60,0,60,0,1,,,,,,,,,,,,,,,,,
297781,2022-12-05_11h45.32.342,vts_reward_expectancy_bt,2022.2.4,MacIntel,60.0024001,Chrome,1440,900,,,,,0,585,,,,,,,,,,,,,,,,,S,181,circle,1,0,,,,,,,,,,,,,,,,switch,number,numSwt,k,0.9599,noRew,,,,,,0,61,0,61,0,1,,,,,,,,,,,,,,,,,
297781,2022-12-05_11h45.32.342,vts_reward_expectancy_bt,2022.2.4,MacIntel,60.0024001,Chrome,1440,900,,,,,0,585,,,,,,,,,,,,,,,,,F,174,hexagon,1,0,,,,,,,,,,,,,,,,switch,letter,lettSwt,d,1.4294,noRew,,,,,,0,62,0,62,0,1,,,,,,,,,,,,,,,,,
297781,2022-12-05_11h45.32.342,vts_reward_expectancy_bt,2022.2.4,MacIntel,60.0024001,Chrome,1440,900,,,,,0,585,,,,,,,,,,,,,,,,,H,132,star,1,0,,,,,,,,,,,,,,,,repeat,letter,lettRpt,d,1.4305,noRew,,,,,,0,63,0,63,0,1,,,,,,,,,,,,,,,,,
297781,2022-12-05_11h45.32.342,vts_reward_expectancy_bt,2022.2.4,MacIntel,60.0024001,Chrome,1440,900,,,,,,,,,,,,,,,,,,,,,,,,,,,,,,,,,,,,,,,,,,,,,,,,,,,,,,,,,,,,,,,,,,,,,,,,,,,,
297781,2022-12-05_11h45.32.342,vts_reward_expectancy_bt,2022.2.4,MacIntel,60.0024001,Chrome,1440,900,,,,,10,595,,,,,,,,,,,,,,,,,Y,139,circle,1,0,,,,,,,,,,,,,,,,repeat,letter,lettRpt,f,0.7257,Hi,,,,,,0,,,,,,space,8.9541,high,0,0,0,0,1,,,,,,,,,
297781,2022-12-05_11h45.32.342,vts_reward_expectancy_bt,2022.2.4,MacIntel,60.0024001,Chrome,1440,900,,,,,1,596,,,,,,,,,,,,,,,,,F,181,hexagon,1,0,,,,,,,,,,,,,,,,switch,number,numSwt,k,0.4899,Lo,,,,,,0,,,,,,,,high,1,0,1,0,1,,,,,,,,,
297781,2022-12-05_11h45.32.342,vts_reward_expectancy_bt,2022.2.4,MacIntel,60.0024001,Chrome,1440,900,,,,,1,597,,,,,,,,,,,,,,,,,W,167,triangle,1,0,,,,,,,,,,,,,,,,repeat,number,numRpt,k,0.494,Lo,,,,,,0,,,,,,,,high,2,0,2,0,1,,,,,,,,,
297781,2022-12-05_11h45.32.342,vts_reward_expectancy_bt,2022.2.4,MacIntel,60.0024001,Chrome,1440,900,,,,,1,598,,,,,,,,,,,,,,,,,H,160,star,1,0,,,,,,,,,,,,,,,,switch,letter,lettSwt,d,0.9221,Hi,,,,,,0,,,,,,,,high,3,0,3,0,1,,,,,,,,,
297781,2022-12-05_11h45.32.342,vts_reward_expectancy_bt,2022.2.4,MacIntel,60.0024001,Chrome,1440,900,,,,,10,608,,,,,,,,,,,,,,,,,D,132,circle,1,0,,,,,,,,,,,,,,,,switch,number,numSwt,j,0.8406,Hi,,,,,,0,,,,,,,,high,4,0,4,0,1,,,,,,,,,
297781,2022-12-05_11h45.32.342,vts_reward_expectancy_bt,2022.2.4,MacIntel,60.0024001,Chrome,1440,900,,,,,1,609,,,,,,,,,,,,,,,,,B,146,hexagon,1,0,,,,,,,,,,,,,,,,switch,letter,lettSwt,d,0.6049,Lo,,,,,,0,,,,,,,,high,5,0,5,0,1,,,,,,,,,
297781,2022-12-05_11h45.32.342,vts_reward_expectancy_bt,2022.2.4,MacIntel,60.0024001,Chrome,1440,900,,,,,1,610,,,,,,,,,,,,,,,,,U,174,triangle,1,0,,,,,,,,,,,,,,,,switch,number,numSwt,k,0.4911,Lo,,,,,,0,,,,,,,,high,6,0,6,0,1,,,,,,,,,
297781,2022-12-05_11h45.32.342,vts_reward_expectancy_bt,2022.2.4,MacIntel,60.0024001,Chrome,1440,900,,,,,0,610,,,,,,,,,,,,,,,,,S,125,star,0,0,,,,,,,,,,,,,,,,repeat,number,NA,k,0.8752,Lo,,,,,,0,,,,,,,,high,7,0,7,0,1,,,,,,,,,
297781,2022-12-05_11h45.32.342,vts_reward_expectancy_bt,2022.2.4,MacIntel,60.0024001,Chrome,1440,900,,,,,10,620,,,,,,,,,,,,,,,,,Y,139,star,1,1,,,,,,,,,,,,,,,,repeat,number,numRpt,j,0.9094,Hi,,,,,,0,,,,,,,,high,8,0,8,0,1,,,,,,,,,
297781,2022-12-05_11h45.32.342,vts_reward_expectancy_bt,2022.2.4,MacIntel,60.0024001,Chrome,1440,900,,,,,1,621,,,,,,,,,,,,,,,,,F,181,triangle,1,0,,,,,,,,,,,,,,,,repeat,number,numRpt,k,0.58,Lo,,,,,,0,,,,,,,,high,9,0,9,0,1,,,,,,,,,
297781,2022-12-05_11h45.32.342,vts_reward_expectancy_bt,2022.2.4,MacIntel,60.0024001,Chrome,1440,900,,,,,10,631,,,,,,,,,,,,,,,,,W,167,hexagon,1,0,,,,,,,,,,,,,,,,switch,letter,lettSwt,f,0.6897,Lo,,,,,,0,,,,,,,,high,10,0,10,0,1,,,,,,,,,
297781,2022-12-05_11h45.32.342,vts_reward_expectancy_bt,2022.2.4,MacIntel,60.0024001,Chrome,1440,900,,,,,10,641,,,,,,,,,,,,,,,,,H,160,circle,1,0,,,,,,,,,,,,,,,,repeat,letter,lettRpt,d,0.6553,Hi,,,,,,0,,,,,,,,high,11,0,11,0,1,,,,,,,,,
297781,2022-12-05_11h45.32.342,vts_reward_expectancy_bt,2022.2.4,MacIntel,60.0024001,Chrome,1440,900,,,,,1,642,,,,,,,,,,,,,,,,,D,132,star,1,0,,,,,,,,,,,,,,,,switch,number,numSwt,j,0.8111,Hi,,,,,,0,,,,,,,,high,12,0,12,0,1,,,,,,,,,
297781,2022-12-05_11h45.32.342,vts_reward_expectancy_bt,2022.2.4,MacIntel,60.0024001,Chrome,1440,900,,,,,10,652,,,,,,,,,,,,,,,,,B,146,triangle,1,0,,,,,,,,,,,,,,,,switch,letter,lettSwt,d,0.7401,Lo,,,,,,0,,,,,,,,high,13,0,13,0,1,,,,,,,,,
297781,2022-12-05_11h45.32.342,vts_reward_expectancy_bt,2022.2.4,MacIntel,60.0024001,Chrome,1440,900,,,,,1,653,,,,,,,,,,,,,,,,,U,174,hexagon,1,0,,,,,,,,,,,,,,,,repeat,letter,lettRpt,f,1.6234,Lo,,,,,,0,,,,,,,,high,14,0,14,0,1,,,,,,,,,
297781,2022-12-05_11h45.32.342,vts_reward_expectancy_bt,2022.2.4,MacIntel,60.0024001,Chrome,1440,900,,,,,0,653,,,,,,,,,,,,,,,,,S,125,circle,1,0,,,,,,,,,,,,,,,,switch,number,numSwt,j,1.5069,Hi,,,,,,0,,,,,,,,high,15,0,15,0,1,,,,,,,,,
297781,2022-12-05_11h45.32.342,vts_reward_expectancy_bt,2022.2.4,MacIntel,60.0024001,Chrome,1440,900,,,,,0,653,,,,,,,,,,,,,,,,,B,146,star,1,0,,,,,,,,,,,,,,,,repeat,number,numRpt,j,1.4128,Hi,,,,,,0,,,,,,,,high,16,0,16,0,1,,,,,,,,,
297781,2022-12-05_11h45.32.342,vts_reward_expectancy_bt,2022.2.4,MacIntel,60.0024001,Chrome,1440,900,,,,,10,663,,,,,,,,,,,,,,,,,S,181,circle,1,0,,,,,,,,,,,,,,,,repeat,number,numRpt,k,0.9272,Hi,,,,,,0,,,,,,,,high,17,0,17,0,1,,,,,,,,,
297781,2022-12-05_11h45.32.342,vts_reward_expectancy_bt,2022.2.4,MacIntel,60.0024001,Chrome,1440,900,,,,,1,664,,,,,,,,,,,,,,,,,F,125,triangle,1,0,,,,,,,,,,,,,,,,switch,letter,lettSwt,d,0.8543,Lo,,,,,,0,,,,,,,,high,18,0,18,0,1,,,,,,,,,
297781,2022-12-05_11h45.32.342,vts_reward_expectancy_bt,2022.2.4,MacIntel,60.0024001,Chrome,1440,900,,,,,1,665,,,,,,,,,,,,,,,,,U,174,hexagon,1,0,,,,,,,,,,,,,,,,switch,number,numSwt,k,0.5245,Lo,,,,,,0,,,,,,,,high,19,0,19,0,1,,,,,,,,,
297781,2022-12-05_11h45.32.342,vts_reward_expectancy_bt,2022.2.4,MacIntel,60.0024001,Chrome,1440,900,,,,,1,666,,,,,,,,,,,,,,,,,W,167,triangle,1,0,,,,,,,,,,,,,,,,switch,letter,lettSwt,f,0.6065,Lo,,,,,,0,,,,,,,,high,20,0,20,0,1,,,,,,,,,
297781,2022-12-05_11h45.32.342,vts_reward_expectancy_bt,2022.2.4,MacIntel,60.0024001,Chrome,1440,900,,,,,10,676,,,,,,,,,,,,,,,,,D,160,star,1,0,,,,,,,,,,,,,,,,repeat,letter,lettRpt,d,0.7934,Hi,,,,,,0,,,,,,,,high,21,0,21,0,1,,,,,,,,,
297781,2022-12-05_11h45.32.342,vts_reward_expectancy_bt,2022.2.4,MacIntel,60.0024001,Chrome,1440,900,,,,,1,677,,,,,,,,,,,,,,,,,H,132,hexagon,1,0,,,,,,,,,,,,,,,,switch,number,numSwt,j,0.3898,Lo,,,,,,0,,,,,,,,high,22,0,22,0,1,,,,,,,,,
297781,2022-12-05_11h45.32.342,vts_reward_expectancy_bt,2022.2.4,MacIntel,60.0024001,Chrome,1440,900,,,,,10,687,,,,,,,,,,,,,,,,,Y,139,circle,1,0,,,,,,,,,,,,,,,,repeat,number,numRpt,j,0.5727,Hi,,,,,,0,,,,,,,,high,23,0,23,0,1,,,,,,,,,
297781,2022-12-05_11h45.32.342,vts_reward_expectancy_bt,2022.2.4,MacIntel,60.0024001,Chrome,1440,900,,,,,10,697,,,,,,,,,,,,,,,,,U,146,circle,1,0,,,,,,,,,,,,,,,,switch,letter,lettSwt,f,0.7603,Hi,,,,,,0,,,,,,,,high,24,0,24,0,1,,,,,,,,,
297781,2022-12-05_11h45.32.342,vts_reward_expectancy_bt,2022.2.4,MacIntel,60.0024001,Chrome,1440,900,,,,,10,707,,,,,,,,,,,,,,,,,W,139,star,1,0,,,,,,,,,,,,,,,,repeat,letter,lettRpt,f,0.5775,Hi,,,,,,0,,,,,,,,high,25,0,25,0,1,,,,,,,,,
297781,2022-12-05_11h45.32.342,vts_reward_expectancy_bt,2022.2.4,MacIntel,60.0024001,Chrome,1440,900,,,,,1,708,,,,,,,,,,,,,,,,,Y,167,triangle,1,0,,,,,,,,,,,,,,,,switch,number,numSwt,k,0.6586,Lo,,,,,,0,,,,,,,,high,26,0,26,0,1,,,,,,,,,
297781,2022-12-05_11h45.32.342,vts_reward_expectancy_bt,2022.2.4,MacIntel,60.0024001,Chrome,1440,900,,,,,10,718,,,,,,,,,,,,,,,,,F,181,hexagon,1,0,,,,,,,,,,,,,,,,repeat,number,numRpt,k,0.6091,Lo,,,,,,0,,,,,,,,high,27,0,27,0,1,,,,,,,,,
297781,2022-12-05_11h45.32.342,vts_reward_expectancy_bt,2022.2.4,MacIntel,60.0024001,Chrome,1440,900,,,,,10,728,,,,,,,,,,,,,,,,,S,174,circle,1,0,,,,,,,,,,,,,,,,repeat,number,numRpt,k,0.7097,Hi,,,,,,0,,,,,,,,high,28,0,28,0,1,,,,,,,,,
297781,2022-12-05_11h45.32.342,vts_reward_expectancy_bt,2022.2.4,MacIntel,60.0024001,Chrome,1440,900,,,,,1,729,,,,,,,,,,,,,,,,,B,132,triangle,1,0,,,,,,,,,,,,,,,,switch,letter,lettSwt,d,0.64,Lo,,,,,,0,,,,,,,,high,29,0,29,0,1,,,,,,,,,
297781,2022-12-05_11h45.32.342,vts_reward_expectancy_bt,2022.2.4,MacIntel,60.0024001,Chrome,1440,900,,,,,0,729,,,,,,,,,,,,,,,,,D,160,star,1,0,,,,,,,,,,,,,,,,switch,number,numSwt,k,1.3959,Hi,,,,,,0,,,,,,,,high,30,0,30,0,1,,,,,,,,,
297781,2022-12-05_11h45.32.342,vts_reward_expectancy_bt,2022.2.4,MacIntel,60.0024001,Chrome,1440,900,,,,,1,730,,,,,,,,,,,,,,,,,H,125,hexagon,1,0,,,,,,,,,,,,,,,,repeat,number,numRpt,j,0.5773,Lo,,,,,,0,,,,,,,,high,31,0,31,0,1,,,,,,,,,
297781,2022-12-05_11h45.32.342,vts_reward_expectancy_bt,2022.2.4,MacIntel,60.0024001,Chrome,1440,900,,,,,1,731,,,,,,,,,,,,,,,,,H,132,triangle,1,0,,,,,,,,,,,,,,,,switch,letter,lettSwt,d,0.9252,Lo,,,,,,1,,,,,,space,2.139,high,0,0,0,0,1,,,,,,,,,
297781,2022-12-05_11h45.32.342,vts_reward_expectancy_bt,2022.2.4,MacIntel,60.0024001,Chrome,1440,900,,,,,0,731,,,,,,,,,,,,,,,,,U,139,star,1,0,,,,,,,,,,,,,,,,switch,number,numSwt,j,1.0139,Hi,,,,,,1,,,,,,,,high,1,0,1,0,1,,,,,,,,,
297781,2022-12-05_11h45.32.342,vts_reward_expectancy_bt,2022.2.4,MacIntel,60.0024001,Chrome,1440,900,,,,,1,732,,,,,,,,,,,,,,,,,B,160,hexagon,1,0,,,,,,,,,,,,,,,,repeat,number,numRpt,k,0.5328,Lo,,,,,,1,,,,,,,,high,2,0,2,0,1,,,,,,,,,
297781,2022-12-05_11h45.32.342,vts_reward_expectancy_bt,2022.2.4,MacIntel,60.0024001,Chrome,1440,900,,,,,0,732,,,,,,,,,,,,,,,,,F,125,circle,1,0,,,,,,,,,,,,,,,,switch,letter,lettSwt,d,0.6625,Hi,,,,,,1,,,,,,,,high,3,0,3,0,1,,,,,,,,,
297781,2022-12-05_11h45.32.342,vts_reward_expectancy_bt,2022.2.4,MacIntel,60.0024001,Chrome,1440,900,,,,,10,742,,,,,,,,,,,,,,,,,W,146,triangle,1,0,,,,,,,,,,,,,,,,repeat,letter,lettRpt,f,0.5737,Lo,,,,,,1,,,,,,,,high,4,0,4,0,1,,,,,,,,,
297781,2022-12-05_11h45.32.342,vts_reward_expectancy_bt,2022.2.4,MacIntel,60.0024001,Chrome,1440,900,,,,,10,752,,,,,,,,,,,,,,,,,D,181,star,1,0,,,,,,,,,,,,,,,,switch,number,numSwt,k,0.4734,Hi,,,,,,1,,,,,,,,high,5,0,5,0,1,,,,,,,,,
297781,2022-12-05_11h45.32.342,vts_reward_expectancy_bt,2022.2.4,MacIntel,60.0024001,Chrome,1440,900,,,,,1,753,,,,,,,,,,,,,,,,,Y,174,hexagon,1,0,,,,,,,,,,,,,,,,switch,letter,lettSwt,f,0.6415,Lo,,,,,,1,,,,,,,,high,6,0,6,0,1,,,,,,,,,
297781,2022-12-05_11h45.32.342,vts_reward_expectancy_bt,2022.2.4,MacIntel,60.0024001,Chrome,1440,900,,,,,0,753,,,,,,,,,,,,,,,,,S,167,circle,1,0,,,,,,,,,,,,,,,,switch,number,numSwt,k,0.8488,Hi,,,,,,1,,,,,,,,high,7,0,7,0,1,,,,,,,,,
297781,2022-12-05_11h45.32.342,vts_reward_expectancy_bt,2022.2.4,MacIntel,60.0024001,Chrome,1440,900,,,,,1,754,,,,,,,,,,,,,,,,,H,132,hexagon,1,0,,,,,,,,,,,,,,,,repeat,number,numRpt,j,0.5796,Lo,,,,,,1,,,,,,,,high,8,0,8,0,1,,,,,,,,,
297781,2022-12-05_11h45.32.342,vts_reward_expectancy_bt,2022.2.4,MacIntel,60.0024001,Chrome,1440,900,,,,,1,755,,,,,,,,,,,,,,,,,U,139,circle,1,0,,,,,,,,,,,,,,,,switch,letter,lettSwt,f,0.6076,Hi,,,,,,1,,,,,,,,high,9,0,9,0,1,,,,,,,,,
297781,2022-12-05_11h45.32.342,vts_reward_expectancy_bt,2022.2.4,MacIntel,60.0024001,Chrome,1440,900,,,,,0,755,,,,,,,,,,,,,,,,,B,160,star,1,0,,,,,,,,,,,,,,,,switch,number,numSwt,k,0.5223,Hi,,,,,,1,,,,,,,,high,10,0,10,0,1,,,,,,,,,
297781,2022-12-05_11h45.32.342,vts_reward_expectancy_bt,2022.2.4,MacIntel,60.0024001,Chrome,1440,900,,,,,10,765,,,,,,,,,,,,,,,,,F,125,triangle,1,0,,,,,,,,,,,,,,,,repeat,number,numRpt,j,0.5281,Lo,,,,,,1,,,,,,,,high,11,0,11,0,1,,,,,,,,,
297781,2022-12-05_11h45.32.342,vts_reward_expectancy_bt,2022.2.4,MacIntel,60.0024001,Chrome,1440,900,,,,,10,775,,,,,,,,,,,,,,,,,W,146,hexagon,1,0,,,,,,,,,,,,,,,,switch,letter,lettSwt,f,0.5047,Lo,,,,,,1,,,,,,,,high,12,0,12,0,1,,,,,,,,,
297781,2022-12-05_11h45.32.342,vts_reward_expectancy_bt,2022.2.4,MacIntel,60.0024001,Chrome,1440,900,,,,,1,776,,,,,,,,,,,,,,,,,D,181,circle,1,0,,,,,,,,,,,,,,,,switch,number,numSwt,k,0.4619,Hi,,,,,,1,,,,,,,,high,13,0,13,0,1,,,,,,,,,
297781,2022-12-05_11h45.32.342,vts_reward_expectancy_bt,2022.2.4,MacIntel,60.0024001,Chrome,1440,900,,,,,10,786,,,,,,,,,,,,,,,,,Y,174,star,1,0,,,,,,,,,,,,,,,,switch,letter,lettSwt,f,0.6136,Hi,,,,,,1,,,,,,,,high,14,0,14,0,1,,,,,,,,,
297781,2022-12-05_11h45.32.342,vts_reward_expectancy_bt,2022.2.4,MacIntel,60.0024001,Chrome,1440,900,,,,,1,787,,,,,,,,,,,,,,,,,S,167,triangle,1,0,,,,,,,,,,,,,,,,switch,number,numSwt,k,0.5915,Lo,,,,,,1,,,,,,,,high,15,0,15,0,1,,,,,,,,,
297781,2022-12-05_11h45.32.342,vts_reward_expectancy_bt,2022.2.4,MacIntel,60.0024001,Chrome,1440,900,,,,,10,797,,,,,,,,,,,,,,,,,Y,167,triangle,1,0,,,,,,,,,,,,,,,,switch,letter,lettSwt,f,0.5098,Lo,,,,,,1,,,,,,,,high,16,0,16,0,1,,,,,,,,,
297781,2022-12-05_11h45.32.342,vts_reward_expectancy_bt,2022.2.4,MacIntel,60.0024001,Chrome,1440,900,,,,,1,798,,,,,,,,,,,,,,,,,S,181,hexagon,1,0,,,,,,,,,,,,,,,,switch,number,numSwt,k,0.4903,Lo,,,,,,1,,,,,,,,high,17,0,17,0,1,,,,,,,,,
297781,2022-12-05_11h45.32.342,vts_reward_expectancy_bt,2022.2.4,MacIntel,60.0024001,Chrome,1440,900,,,,,1,799,,,,,,,,,,,,,,,,,B,139,circle,1,0,,,,,,,,,,,,,,,,switch,letter,lettSwt,d,0.5578,Hi,,,,,,1,,,,,,,,high,18,0,18,0,1,,,,,,,,,
297781,2022-12-05_11h45.32.342,vts_reward_expectancy_bt,2022.2.4,MacIntel,60.0024001,Chrome,1440,900,,,,,1,800,,,,,,,,,,,,,,,,,H,146,star,1,0,,,,,,,,,,,,,,,,repeat,letter,lettRpt,d,0.5562,Hi,,,,,,1,,,,,,,,high,19,0,19,0,1,,,,,,,,,
297781,2022-12-05_11h45.32.342,vts_reward_expectancy_bt,2022.2.4,MacIntel,60.0024001,Chrome,1440,900,,,,,10,810,,,,,,,,,,,,,,,,,W,160,star,1,0,,,,,,,,,,,,,,,,switch,number,numSwt,k,0.5094,Hi,,,,,,1,,,,,,,,high,20,0,20,0,1,,,,,,,,,
297781,2022-12-05_11h45.32.342,vts_reward_expectancy_bt,2022.2.4,MacIntel,60.0024001,Chrome,1440,900,,,,,0,810,,,,,,,,,,,,,,,,,D,132,circle,1,0,,,,,,,,,,,,,,,,repeat,number,numRpt,j,0.6272,Hi,,,,,,1,,,,,,,,high,21,0,21,0,1,,,,,,,,,
297781,2022-12-05_11h45.32.342,vts_reward_expectancy_bt,2022.2.4,MacIntel,60.0024001,Chrome,1440,900,,,,,1,811,,,,,,,,,,,,,,,,,U,174,triangle,1,0,,,,,,,,,,,,,,,,repeat,number,numRpt,k,0.4631,Lo,,,,,,1,,,,,,,,high,22,0,22,0,1,,,,,,,,,
297781,2022-12-05_11h45.32.342,vts_reward_expectancy_bt,2022.2.4,MacIntel,60.0024001,Chrome,1440,900,,,,,1,812,,,,,,,,,,,,,,,,,F,125,hexagon,1,0,,,,,,,,,,,,,,,,repeat,number,numRpt,j,0.9288,Lo,,,,,,1,,,,,,,,high,23,0,23,0,1,,,,,,,,,
297781,2022-12-05_11h45.32.342,vts_reward_expectancy_bt,2022.2.4,MacIntel,60.0024001,Chrome,1440,900,,,,,1,813,,,,,,,,,,,,,,,,,B,146,triangle,1,0,,,,,,,,,,,,,,,,switch,letter,lettSwt,d,0.7129,Lo,,,,,,1,,,,,,,,high,24,0,24,0,1,,,,,,,,,
297781,2022-12-05_11h45.32.342,vts_reward_expectancy_bt,2022.2.4,MacIntel,60.0024001,Chrome,1440,900,,,,,0,813,,,,,,,,,,,,,,,,,S,181,circle,1,0,,,,,,,,,,,,,,,,repeat,letter,lettRpt,f,1.2227,Hi,,,,,,1,,,,,,,,high,25,0,25,0,1,,,,,,,,,
297781,2022-12-05_11h45.32.342,vts_reward_expectancy_bt,2022.2.4,MacIntel,60.0024001,Chrome,1440,900,,,,,0,813,,,,,,,,,,,,,,,,,Y,139,hexagon,0,0,,,,,,,,,,,,,,,,switch,number,NA,k,1.4562,Hi,,,,,,1,,,,,,,,high,26,0,26,0,1,,,,,,,,,
297781,2022-12-05_11h45.32.342,vts_reward_expectancy_bt,2022.2.4,MacIntel,60.0024001,Chrome,1440,900,,,,,0,813,,,,,,,,,,,,,,,,,W,160,star,1,1,,,,,,,,,,,,,,,,repeat,number,numRpt,k,0.6141,Hi,,,,,,1,,,,,,,,high,27,0,27,0,1,,,,,,,,,
297781,2022-12-05_11h45.32.342,vts_reward_expectancy_bt,2022.2.4,MacIntel,60.0024001,Chrome,1440,900,,,,,1,814,,,,,,,,,,,,,,,,,D,132,hexagon,1,0,,,,,,,,,,,,,,,,repeat,number,numRpt,j,0.5627,Lo,,,,,,1,,,,,,,,high,28,0,28,0,1,,,,,,,,,
297781,2022-12-05_11h45.32.342,vts_reward_expectancy_bt,2022.2.4,MacIntel,60.0024001,Chrome,1440,900,,,,,1,815,,,,,,,,,,,,,,,,,H,167,triangle,1,0,,,,,,,,,,,,,,,,switch,letter,lettSwt,d,0.6127,Lo,,,,,,1,,,,,,,,high,29,0,29,0,1,,,,,,,,,
297781,2022-12-05_11h45.32.342,vts_reward_expectancy_bt,2022.2.4,MacIntel,60.0024001,Chrome,1440,900,,,,,0,815,,,,,,,,,,,,,,,,,F,125,star,1,0,,,,,,,,,,,,,,,,repeat,letter,lettRpt,d,0.7108,Hi,,,,,,1,,,,,,,,high,30,0,30,0,1,,,,,,,,,
297781,2022-12-05_11h45.32.342,vts_reward_expectancy_bt,2022.2.4,MacIntel,60.0024001,Chrome,1440,900,,,,,10,825,,,,,,,,,,,,,,,,,U,174,circle,1,0,,,,,,,,,,,,,,,,switch,number,numSwt,k,0.5075,Hi,,,,,,1,,,,,,,,high,31,0,31,0,1,,,,,,,,,
297781,2022-12-05_11h45.32.342,vts_reward_expectancy_bt,2022.2.4,MacIntel,60.0024001,Chrome,1440,900,,,,,1,826,,,,,,,,,,,,,,,,,D,125,triangle,1,0,,,,,,,,,,,,,,,,switch,letter,lettSwt,d,0.8282,Lo,,,,,,2,,,,,,space,3.8351,high,0,0,0,0,1,,,,,,,,,
297781,2022-12-05_11h45.32.342,vts_reward_expectancy_bt,2022.2.4,MacIntel,60.0024001,Chrome,1440,900,,,,,0,826,,,,,,,,,,,,,,,,,W,146,star,0,0,,,,,,,,,,,,,,,,switch,number,NA,k,0.9933,Lo,,,,,,2,,,,,,,,high,1,0,1,0,1,,,,,,,,,
297781,2022-12-05_11h45.32.342,vts_reward_expectancy_bt,2022.2.4,MacIntel,60.0024001,Chrome,1440,900,,,,,1,827,,,,,,,,,,,,,,,,,S,167,hexagon,1,1,,,,,,,,,,,,,,,,repeat,number,numRpt,k,0.5954,Lo,,,,,,2,,,,,,,,high,2,0,2,0,1,,,,,,,,,
297781,2022-12-05_11h45.32.342,vts_reward_expectancy_bt,2022.2.4,MacIntel,60.0024001,Chrome,1440,900,,,,,0,827,,,,,,,,,,,,,,,,,H,132,circle,1,0,,,,,,,,,,,,,,,,switch,letter,lettSwt,d,0.8264,Hi,,,,,,2,,,,,,,,high,3,0,3,0,1,,,,,,,,,
297781,2022-12-05_11h45.32.342,vts_reward_expectancy_bt,2022.2.4,MacIntel,60.0024001,Chrome,1440,900,,,,,1,828,,,,,,,,,,,,,,,,,U,160,triangle,1,0,,,,,,,,,,,,,,,,repeat,letter,lettRpt,f,0.5911,Lo,,,,,,2,,,,,,,,high,4,0,4,0,1,,,,,,,,,
297781,2022-12-05_11h45.32.342,vts_reward_expectancy_bt,2022.2.4,MacIntel,60.0024001,Chrome,1440,900,,,,,0,828,,,,,,,,,,,,,,,,,Y,174,star,1,0,,,,,,,,,,,,,,,,switch,number,numSwt,k,0.5546,Hi,,,,,,2,,,,,,,,high,5,0,5,0,1,,,,,,,,,
297781,2022-12-05_11h45.32.342,vts_reward_expectancy_bt,2022.2.4,MacIntel,60.0024001,Chrome,1440,900,,,,,0,828,,,,,,,,,,,,,,,,,F,139,hexagon,0,0,,,,,,,,,,,,,,,,repeat,number,NA,k,0.3777,Hi,,,,,,2,,,,,,,,high,6,0,6,0,1,,,,,,,,,
297781,2022-12-05_11h45.32.342,vts_reward_expectancy_bt,2022.2.4,MacIntel,60.0024001,Chrome,1440,900,,,,,10,838,,,,,,,,,,,,,,,,,B,181,circle,1,1,,,,,,,,,,,,,,,,switch,letter,lettSwt,d,0.446,Hi,,,,,,2,,,,,,,,high,7,0,7,0,1,,,,,,,,,
297781,2022-12-05_11h45.32.342,vts_reward_expectancy_bt,2022.2.4,MacIntel,60.0024001,Chrome,1440,900,,,,,1,839,,,,,,,,,,,,,,,,,D,125,hexagon,1,0,,,,,,,,,,,,,,,,switch,number,numSwt,j,0.4154,Lo,,,,,,2,,,,,,,,high,8,0,8,0,1,,,,,,,,,
297781,2022-12-05_11h45.32.342,vts_reward_expectancy_bt,2022.2.4,MacIntel,60.0024001,Chrome,1440,900,,,,,10,849,,,,,,,,,,,,,,,,,W,146,triangle,1,0,,,,,,,,,,,,,,,,switch,letter,lettSwt,f,0.5808,Lo,,,,,,2,,,,,,,,high,9,0,9,0,1,,,,,,,,,
297781,2022-12-05_11h45.32.342,vts_reward_expectancy_bt,2022.2.4,MacIntel,60.0024001,Chrome,1440,900,,,,,0,849,,,,,,,,,,,,,,,,,S,167,star,1,0,,,,,,,,,,,,,,,,repeat,letter,lettRpt,f,0.6075,Hi,,,,,,2,,,,,,,,high,10,0,10,0,1,,,,,,,,,
297781,2022-12-05_11h45.32.342,vts_reward_expectancy_bt,2022.2.4,MacIntel,60.0024001,Chrome,1440,900,,,,,0,849,,,,,,,,,,,,,,,,,H,132,circle,1,0,,,,,,,,,,,,,,,,switch,number,numSwt,j,0.6924,Hi,,,,,,2,,,,,,,,high,11,0,11,0,1,,,,,,,,,
297781,2022-12-05_11h45.32.342,vts_reward_expectancy_bt,2022.2.4,MacIntel,60.0024001,Chrome,1440,900,,,,,10,859,,,,,,,,,,,,,,,,,U,160,star,1,0,,,,,,,,,,,,,,,,repeat,number,numRpt,k,0.4307,Hi,,,,,,2,,,,,,,,high,12,0,12,0,1,,,,,,,,,
297781,2022-12-05_11h45.32.342,vts_reward_expectancy_bt,2022.2.4,MacIntel,60.0024001,Chrome,1440,900,,,,,10,869,,,,,,,,,,,,,,,,,Y,174,hexagon,1,0,,,,,,,,,,,,,,,,switch,letter,lettSwt,f,0.8445,Lo,,,,,,2,,,,,,,,high,13,0,13,0,1,,,,,,,,,
297781,2022-12-05_11h45.32.342,vts_reward_expectancy_bt,2022.2.4,MacIntel,60.0024001,Chrome,1440,900,,,,,0,869,,,,,,,,,,,,,,,,,F,139,circle,1,0,,,,,,,,,,,,,,,,switch,number,numSwt,j,0.5492,Hi,,,,,,2,,,,,,,,high,14,0,14,0,1,,,,,,,,,
297781,2022-12-05_11h45.32.342,vts_reward_expectancy_bt,2022.2.4,MacIntel,60.0024001,Chrome,1440,900,,,,,1,870,,,,,,,,,,,,,,,,,B,181,triangle,1,0,,,,,,,,,,,,,,,,repeat,number,numRpt,k,0.5083,Lo,,,,,,2,,,,,,,,high,15,0,15,0,1,,,,,,,,,
297781,2022-12-05_11h45.32.342,vts_reward_expectancy_bt,2022.2.4,MacIntel,60.0024001,Chrome,1440,900,,,,,0,870,,,,,,,,,,,,,,,,,Y,132,hexagon,0,0,,,,,,,,,,,,,,,,switch,letter,NA,d,0.6216,Lo,,,,,,2,,,,,,,,high,16,0,16,0,1,,,,,,,,,
297781,2022-12-05_11h45.32.342,vts_reward_expectancy_bt,2022.2.4,MacIntel,60.0024001,Chrome,1440,900,,,,,0,870,,,,,,,,,,,,,,,,,F,167,triangle,0,1,,,,,,,,,,,,,,,,repeat,letter,NA,f,0.5969,Lo,,,,,,2,,,,,,,,high,17,0,17,0,1,,,,,,,,,
297781,2022-12-05_11h45.32.342,vts_reward_expectancy_bt,2022.2.4,MacIntel,60.0024001,Chrome,1440,900,,,,,10,880,,,,,,,,,,,,,,,,,W,160,star,1,1,,,,,,,,,,,,,,,,switch,number,numSwt,k,0.4311,Hi,,,,,,2,,,,,,,,high,18,0,18,0,1,,,,,,,,,
297781,2022-12-05_11h45.32.342,vts_reward_expectancy_bt,2022.2.4,MacIntel,60.0024001,Chrome,1440,900,,,,,0,880,,,,,,,,,,,,,,,,,S,146,circle,0,0,,,,,,,,,,,,,,,,switch,letter,NA,d,0.6406,Hi,,,,,,2,,,,,,,,high,19,0,19,0,1,,,,,,,,,
297781,2022-12-05_11h45.32.342,vts_reward_expectancy_bt,2022.2.4,MacIntel,60.0024001,Chrome,1440,900,,,,,0,880,,,,,,,,,,,,,,,,,D,125,circle,1,1,,,,,,,,,,,,,,,,switch,number,numSwt,j,0.6953,Hi,,,,,,2,,,,,,,,high,20,0,20,0,1,,,,,,,,,
297781,2022-12-05_11h45.32.342,vts_reward_expectancy_bt,2022.2.4,MacIntel,60.0024001,Chrome,1440,900,,,,,1,881,,,,,,,,,,,,,,,,,B,139,hexagon,1,0,,,,,,,,,,,,,,,,repeat,number,numRpt,j,0.5,Lo,,,,,,2,,,,,,,,high,21,0,21,0,1,,,,,,,,,
297781,2022-12-05_11h45.32.342,vts_reward_expectancy_bt,2022.2.4,MacIntel,60.0024001,Chrome,1440,900,,,,,10,891,,,,,,,,,,,,,,,,,H,181,star,1,0,,,,,,,,,,,,,,,,switch,letter,lettSwt,d,0.4418,Hi,,,,,,2,,,,,,,,high,22,0,22,0,1,,,,,,,,,
297781,2022-12-05_11h45.32.342,vts_reward_expectancy_bt,2022.2.4,MacIntel,60.0024001,Chrome,1440,900,,,,,1,892,,,,,,,,,,,,,,,,,U,174,triangle,1,0,,,,,,,,,,,,,,,,repeat,letter,lettRpt,f,0.5756,Lo,,,,,,2,,,,,,,,high,23,0,23,0,1,,,,,,,,,
297781,2022-12-05_11h45.32.342,vts_reward_expectancy_bt,2022.2.4,MacIntel,60.0024001,Chrome,1440,900,,,,,1,893,,,,,,,,,,,,,,,,,Y,160,triangle,1,0,,,,,,,,,,,,,,,,switch,number,numSwt,k,0.4604,Lo,,,,,,2,,,,,,,,high,24,0,24,0,1,,,,,,,,,
297781,2022-12-05_11h45.32.342,vts_reward_expectancy_bt,2022.2.4,MacIntel,60.0024001,Chrome,1440,900,,,,,10,903,,,,,,,,,,,,,,,,,H,174,circle,1,0,,,,,,,,,,,,,,,,repeat,number,numRpt,k,0.5082,Hi,,,,,,2,,,,,,,,high,25,0,25,0,1,,,,,,,,,
297781,2022-12-05_11h45.32.342,vts_reward_expectancy_bt,2022.2.4,MacIntel,60.0024001,Chrome,1440,900,,,,,1,904,,,,,,,,,,,,,,,,,F,167,hexagon,1,0,,,,,,,,,,,,,,,,repeat,number,numRpt,k,0.5116,Lo,,,,,,2,,,,,,,,high,26,0,26,0,1,,,,,,,,,
297781,2022-12-05_11h45.32.342,vts_reward_expectancy_bt,2022.2.4,MacIntel,60.0024001,Chrome,1440,900,,,,,0,904,,,,,,,,,,,,,,,,,U,181,star,1,0,,,,,,,,,,,,,,,,repeat,number,numRpt,k,0.6421,Hi,,,,,,2,,,,,,,,high,27,0,27,0,1,,,,,,,,,
297781,2022-12-05_11h45.32.342,vts_reward_expectancy_bt,2022.2.4,MacIntel,60.0024001,Chrome,1440,900,,,,,1,905,,,,,,,,,,,,,,,,,D,132,triangle,1,0,,,,,,,,,,,,,,,,switch,letter,lettSwt,d,0.4816,Lo,,,,,,2,,,,,,,,high,28,0,28,0,1,,,,,,,,,
297781,2022-12-05_11h45.32.342,vts_reward_expectancy_bt,2022.2.4,MacIntel,60.0024001,Chrome,1440,900,,,,,0,905,,,,,,,,,,,,,,,,,S,125,circle,1,0,,,,,,,,,,,,,,,,repeat,letter,lettRpt,f,0.5753,Hi,,,,,,2,,,,,,,,high,29,0,29,0,1,,,,,,,,,
297781,2022-12-05_11h45.32.342,vts_reward_expectancy_bt,2022.2.4,MacIntel,60.0024001,Chrome,1440,900,,,,,0,905,,,,,,,,,,,,,,,,,B,139,star,1,0,,,,,,,,,,,,,,,,switch,number,numSwt,j,0.5944,Hi,,,,,,2,,,,,,,,high,30,0,30,0,1,,,,,,,,,
297781,2022-12-05_11h45.32.342,vts_reward_expectancy_bt,2022.2.4,MacIntel,60.0024001,Chrome,1440,900,,,,,10,915,,,,,,,,,,,,,,,,,W,146,hexagon,1,0,,,,,,,,,,,,,,,,repeat,number,numRpt,j,0.579,Lo,,,,,,2,,,,,,,,high,31,0,31,0,1,,,,,,,,,
297781,2022-12-05_11h45.32.342,vts_reward_expectancy_bt,2022.2.4,MacIntel,60.0024001,Chrome,1440,900,,,,,0,915,,,,,,,,,,,,,,,,,H,139,star,1,0,,,,,,,,,,,,,,,,switch,letter,lettSwt,d,1.0252,Hi,,,,,,3,,,,,,space,34.9337,high,0,0,0,0,1,,,,,,,,,
297781,2022-12-05_11h45.32.342,vts_reward_expectancy_bt,2022.2.4,MacIntel,60.0024001,Chrome,1440,900,,,,,1,916,,,,,,,,,,,,,,,,,W,160,triangle,1,0,,,,,,,,,,,,,,,,switch,number,numSwt,k,0.5496,Lo,,,,,,3,,,,,,,,high,1,0,1,0,1,,,,,,,,,
297781,2022-12-05_11h45.32.342,vts_reward_expectancy_bt,2022.2.4,MacIntel,60.0024001,Chrome,1440,900,,,,,0,916,,,,,,,,,,,,,,,,,U,132,hexagon,0,0,,,,,,,,,,,,,,,,switch,letter,NA,d,0.8103,Lo,,,,,,3,,,,,,,,high,2,0,2,0,1,,,,,,,,,
297781,2022-12-05_11h45.32.342,vts_reward_expectancy_bt,2022.2.4,MacIntel,60.0024001,Chrome,1440,900,,,,,0,916,,,,,,,,,,,,,,,,,F,167,circle,1,1,,,,,,,,,,,,,,,,switch,number,numSwt,k,0.5934,Hi,,,,,,3,,,,,,,,high,3,0,3,0,1,,,,,,,,,
297781,2022-12-05_11h45.32.342,vts_reward_expectancy_bt,2022.2.4,MacIntel,60.0024001,Chrome,1440,900,,,,,0,916,,,,,,,,,,,,,,,,,B,181,star,1,0,,,,,,,,,,,,,,,,repeat,number,numRpt,k,1.1917,Hi,,,,,,3,,,,,,,,high,4,0,4,0,1,,,,,,,,,
297781,2022-12-05_11h45.32.342,vts_reward_expectancy_bt,2022.2.4,MacIntel,60.0024001,Chrome,1440,900,,,,,1,917,,,,,,,,,,,,,,,,,D,174,triangle,1,0,,,,,,,,,,,,,,,,repeat,number,numRpt,k,0.4952,Lo,,,,,,3,,,,,,,,high,5,0,5,0,1,,,,,,,,,
297781,2022-12-05_11h45.32.342,vts_reward_expectancy_bt,2022.2.4,MacIntel,60.0024001,Chrome,1440,900,,,,,10,927,,,,,,,,,,,,,,,,,Y,146,hexagon,1,0,,,,,,,,,,,,,,,,repeat,number,numRpt,j,0.7929,Lo,,,,,,3,,,,,,,,high,6,0,6,0,1,,,,,,,,,
297781,2022-12-05_11h45.32.342,vts_reward_expectancy_bt,2022.2.4,MacIntel,60.0024001,Chrome,1440,900,,,,,0,927,,,,,,,,,,,,,,,,,S,125,circle,1,0,,,,,,,,,,,,,,,,switch,letter,lettSwt,f,0.516,Hi,,,,,,3,,,,,,,,high,7,0,7,0,1,,,,,,,,,
297781,2022-12-05_11h45.32.342,vts_reward_expectancy_bt,2022.2.4,MacIntel,60.0024001,Chrome,1440,900,,,,,0,927,,,,,,,,,,,,,,,,,H,139,hexagon,0,0,,,,,,,,,,,,,,,,repeat,letter,NA,f,0.5131,Hi,,,,,,3,,,,,,,,high,8,0,8,0,1,,,,,,,,,
297781,2022-12-05_11h45.32.342,vts_reward_expectancy_bt,2022.2.4,MacIntel,60.0024001,Chrome,1440,900,,,,,0,927,,,,,,,,,,,,,,,,,W,160,star,0,1,,,,,,,,,,,,,,,,repeat,letter,NA,d,0.4926,Hi,,,,,,3,,,,,,,,high,9,0,9,0,1,,,,,,,,,
297781,2022-12-05_11h45.32.342,vts_reward_expectancy_bt,2022.2.4,MacIntel,60.0024001,Chrome,1440,900,,,,,1,928,,,,,,,,,,,,,,,,,U,132,triangle,1,1,,,,,,,,,,,,,,,,repeat,letter,lettRpt,f,0.5782,Lo,,,,,,3,,,,,,,,high,10,0,10,0,1,,,,,,,,,
297781,2022-12-05_11h45.32.342,vts_reward_expectancy_bt,2022.2.4,MacIntel,60.0024001,Chrome,1440,900,,,,,0,928,,,,,,,,,,,,,,,,,F,167,circle,1,0,,,,,,,,,,,,,,,,switch,number,numSwt,k,0.608,Hi,,,,,,3,,,,,,,,high,11,0,11,0,1,,,,,,,,,
297781,2022-12-05_11h45.32.342,vts_reward_expectancy_bt,2022.2.4,MacIntel,60.0024001,Chrome,1440,900,,,,,1,929,,,,,,,,,,,,,,,,,B,181,hexagon,1,0,,,,,,,,,,,,,,,,repeat,number,numRpt,k,0.3483,Lo,,,,,,3,,,,,,,,high,12,0,12,0,1,,,,,,,,,
297781,2022-12-05_11h45.32.342,vts_reward_expectancy_bt,2022.2.4,MacIntel,60.0024001,Chrome,1440,900,,,,,10,939,,,,,,,,,,,,,,,,,D,174,circle,1,0,,,,,,,,,,,,,,,,switch,letter,lettSwt,d,0.361,Hi,,,,,,3,,,,,,,,high,13,0,13,0,1,,,,,,,,,
297781,2022-12-05_11h45.32.342,vts_reward_expectancy_bt,2022.2.4,MacIntel,60.0024001,Chrome,1440,900,,,,,0,939,,,,,,,,,,,,,,,,,Y,146,triangle,0,0,,,,,,,,,,,,,,,,switch,number,NA,k,0.3125,Hi,,,,,,3,,,,,,,,high,14,0,14,0,1,,,,,,,,,
297781,2022-12-05_11h45.32.342,vts_reward_expectancy_bt,2022.2.4,MacIntel,60.0024001,Chrome,1440,900,,,,,0,939,,,,,,,,,,,,,,,,,S,125,star,1,1,,,,,,,,,,,,,,,,repeat,number,numRpt,j,0.5414,Hi,,,,,,3,,,,,,,,high,15,0,15,0,1,,,,,,,,,
297781,2022-12-05_11h45.32.342,vts_reward_expectancy_bt,2022.2.4,MacIntel,60.0024001,Chrome,1440,900,,,,,1,940,,,,,,,,,,,,,,,,,F,174,hexagon,1,0,,,,,,,,,,,,,,,,repeat,number,numRpt,k,0.5113,Lo,,,,,,3,,,,,,,,high,16,0,16,0,1,,,,,,,,,
297781,2022-12-05_11h45.32.342,vts_reward_expectancy_bt,2022.2.4,MacIntel,60.0024001,Chrome,1440,900,,,,,0,940,,,,,,,,,,,,,,,,,W,146,star,1,0,,,,,,,,,,,,,,,,switch,letter,lettSwt,f,0.4917,Hi,,,,,,3,,,,,,,,high,17,0,17,0,1,,,,,,,,,
297781,2022-12-05_11h45.32.342,vts_reward_expectancy_bt,2022.2.4,MacIntel,60.0024001,Chrome,1440,900,,,,,10,950,,,,,,,,,,,,,,,,,H,139,circle,1,0,,,,,,,,,,,,,,,,repeat,letter,lettRpt,d,0.3775,Hi,,,,,,3,,,,,,,,high,18,0,18,0,1,,,,,,,,,
297781,2022-12-05_11h45.32.342,vts_reward_expectancy_bt,2022.2.4,MacIntel,60.0024001,Chrome,1440,900,,,,,1,951,,,,,,,,,,,,,,,,,D,125,triangle,1,0,,,,,,,,,,,,,,,,switch,number,numSwt,j,0.3805,Lo,,,,,,3,,,,,,,,high,19,0,19,0,1,,,,,,,,,
297781,2022-12-05_11h45.32.342,vts_reward_expectancy_bt,2022.2.4,MacIntel,60.0024001,Chrome,1440,900,,,,,1,952,,,,,,,,,,,,,,,,,Y,132,triangle,1,0,,,,,,,,,,,,,,,,switch,letter,lettSwt,f,0.4772,Lo,,,,,,3,,,,,,,,high,20,0,20,0,1,,,,,,,,,
297781,2022-12-05_11h45.32.342,vts_reward_expectancy_bt,2022.2.4,MacIntel,60.0024001,Chrome,1440,900,,,,,10,962,,,,,,,,,,,,,,,,,U,160,circle,1,0,,,,,,,,,,,,,,,,repeat,letter,lettRpt,f,0.5421,Hi,,,,,,3,,,,,,,,high,21,0,21,0,1,,,,,,,,,
297781,2022-12-05_11h45.32.342,vts_reward_expectancy_bt,2022.2.4,MacIntel,60.0024001,Chrome,1440,900,,,,,0,962,,,,,,,,,,,,,,,,,S,167,star,1,0,,,,,,,,,,,,,,,,switch,number,numSwt,k,0.5766,Hi,,,,,,3,,,,,,,,high,22,0,22,0,1,,,,,,,,,
297781,2022-12-05_11h45.32.342,vts_reward_expectancy_bt,2022.2.4,MacIntel,60.0024001,Chrome,1440,900,,,,,10,972,,,,,,,,,,,,,,,,,B,181,hexagon,1,0,,,,,,,,,,,,,,,,repeat,number,numRpt,k,0.7177,Lo,,,,,,3,,,,,,,,high,23,0,23,0,1,,,,,,,,,
297781,2022-12-05_11h45.32.342,vts_reward_expectancy_bt,2022.2.4,MacIntel,60.0024001,Chrome,1440,900,,,,,10,982,,,,,,,,,,,,,,,,,W,139,triangle,1,0,,,,,,,,,,,,,,,,repeat,number,numRpt,j,0.6299,Lo,,,,,,3,,,,,,,,high,24,0,24,0,1,,,,,,,,,
297781,2022-12-05_11h45.32.342,vts_reward_expectancy_bt,2022.2.4,MacIntel,60.0024001,Chrome,1440,900,,,,,0,982,,,,,,,,,,,,,,,,,U,125,circle,0,0,,,,,,,,,,,,,,,,switch,letter,NA,d,0.613,Lo,,,,,,3,,,,,,,,high,25,0,25,0,1,,,,,,,,,
297781,2022-12-05_11h45.32.342,vts_reward_expectancy_bt,2022.2.4,MacIntel,60.0024001,Chrome,1440,900,,,,,0,982,,,,,,,,,,,,,,,,,H,132,star,1,1,,,,,,,,,,,,,,,,switch,number,numSwt,j,0.5159,Hi,,,,,,3,,,,,,,,high,26,0,26,0,1,,,,,,,,,
297781,2022-12-05_11h45.32.342,vts_reward_expectancy_bt,2022.2.4,MacIntel,60.0024001,Chrome,1440,900,,,,,1,983,,,,,,,,,,,,,,,,,F,167,hexagon,1,0,,,,,,,,,,,,,,,,repeat,number,numRpt,k,0.3449,Lo,,,,,,3,,,,,,,,high,27,0,27,0,1,,,,,,,,,
297781,2022-12-05_11h45.32.342,vts_reward_expectancy_bt,2022.2.4,MacIntel,60.0024001,Chrome,1440,900,,,,,0,983,,,,,,,,,,,,,,,,,Y,174,circle,1,0,,,,,,,,,,,,,,,,switch,letter,lettSwt,f,0.6149,Hi,,,,,,3,,,,,,,,high,28,0,28,0,1,,,,,,,,,
297781,2022-12-05_11h45.32.342,vts_reward_expectancy_bt,2022.2.4,MacIntel,60.0024001,Chrome,1440,900,,,,,1,984,,,,,,,,,,,,,,,,,S,146,triangle,1,0,,,,,,,,,,,,,,,,repeat,letter,lettRpt,f,0.6105,Lo,,,,,,3,,,,,,,,high,29,0,29,0,1,,,,,,,,,
297781,2022-12-05_11h45.32.342,vts_reward_expectancy_bt,2022.2.4,MacIntel,60.0024001,Chrome,1440,900,,,,,1,985,,,,,,,,,,,,,,,,,D,160,hexagon,1,0,,,,,,,,,,,,,,,,repeat,letter,lettRpt,d,0.4499,Lo,,,,,,3,,,,,,,,high,30,0,30,0,1,,,,,,,,,
297781,2022-12-05_11h45.32.342,vts_reward_expectancy_bt,2022.2.4,MacIntel,60.0024001,Chrome,1440,900,,,,,0,985,,,,,,,,,,,,,,,,,B,181,star,1,0,,,,,,,,,,,,,,,,switch,number,numSwt,k,0.6378,Hi,,,,,,3,,,,,,,,high,31,0,31,0,1,,,,,,,,,
297781,2022-12-05_11h45.32.342,vts_reward_expectancy_bt,2022.2.4,MacIntel,60.0024001,Chrome,1440,900,,,,,1,986,,,,,,,,,,,,,,,,,H,146,hexagon,1,0,,,,,,,,,,,,,,,,switch,letter,lettSwt,d,0.5549,Lo,,,,,,4,,,,,,space,4.6227,high,0,0,0,0,1,,,,,,,,,
297781,2022-12-05_11h45.32.342,vts_reward_expectancy_bt,2022.2.4,MacIntel,60.0024001,Chrome,1440,900,,,,,1,987,,,,,,,,,,,,,,,,,W,181,triangle,1,0,,,,,,,,,,,,,,,,switch,number,numSwt,k,0.3756,Lo,,,,,,4,,,,,,,,high,1,0,1,0,1,,,,,,,,,
297781,2022-12-05_11h45.32.342,vts_reward_expectancy_bt,2022.2.4,MacIntel,60.0024001,Chrome,1440,900,,,,,0,987,,,,,,,,,,,,,,,,,D,139,star,1,0,,,,,,,,,,,,,,,,switch,letter,lettSwt,d,0.5095,Hi,,,,,,4,,,,,,,,high,2,0,2,0,1,,,,,,,,,
297781,2022-12-05_11h45.32.342,vts_reward_expectancy_bt,2022.2.4,MacIntel,60.0024001,Chrome,1440,900,,,,,0,987,,,,,,,,,,,,,,,,,B,125,circle,1,0,,,,,,,,,,,,,,,,repeat,letter,lettRpt,d,0.4985,Hi,,,,,,4,,,,,,,,high,3,0,3,0,1,,,,,,,,,
297781,2022-12-05_11h45.32.342,vts_reward_expectancy_bt,2022.2.4,MacIntel,60.0024001,Chrome,1440,900,,,,,1,988,,,,,,,,,,,,,,,,,S,167,hexagon,1,0,,,,,,,,,,,,,,,,switch,number,numSwt,k,0.3691,Lo,,,,,,4,,,,,,,,high,4,0,4,0,1,,,,,,,,,
297781,2022-12-05_11h45.32.342,vts_reward_expectancy_bt,2022.2.4,MacIntel,60.0024001,Chrome,1440,900,,,,,1,989,,,,,,,,,,,,,,,,,F,132,triangle,1,0,,,,,,,,,,,,,,,,switch,letter,lettSwt,d,0.306,Lo,,,,,,4,,,,,,,,high,5,0,5,0,1,,,,,,,,,
297781,2022-12-05_11h45.32.342,vts_reward_expectancy_bt,2022.2.4,MacIntel,60.0024001,Chrome,1440,900,,,,,0,989,,,,,,,,,,,,,,,,,U,160,star,1,0,,,,,,,,,,,,,,,,repeat,letter,lettRpt,f,0.4802,Hi,,,,,,4,,,,,,,,high,6,0,6,0,1,,,,,,,,,
297781,2022-12-05_11h45.32.342,vts_reward_expectancy_bt,2022.2.4,MacIntel,60.0024001,Chrome,1440,900,,,,,10,999,,,,,,,,,,,,,,,,,Y,174,circle,1,0,,,,,,,,,,,,,,,,switch,number,numSwt,k,0.5281,Hi,,,,,,4,,,,,,,,high,7,0,7,0,1,,,,,,,,,
297781,2022-12-05_11h45.32.342,vts_reward_expectancy_bt,2022.2.4,MacIntel,60.0024001,Chrome,1440,900,,,,,0,999,,,,,,,,,,,,,,,,,H,146,triangle,0,0,,,,,,,,,,,,,,,,switch,letter,NA,f,0.3753,Hi,,,,,,4,,,,,,,,high,8,0,8,0,1,,,,,,,,,
297781,2022-12-05_11h45.32.342,vts_reward_expectancy_bt,2022.2.4,MacIntel,60.0024001,Chrome,1440,900,,,,,10,1009,,,,,,,,,,,,,,,,,W,181,star,1,1,,,,,,,,,,,,,,,,repeat,letter,lettRpt,f,0.38,Hi,,,,,,4,,,,,,,,high,9,0,9,0,1,,,,,,,,,
297781,2022-12-05_11h45.32.342,vts_reward_expectancy_bt,2022.2.4,MacIntel,60.0024001,Chrome,1440,900,,,,,0,1009,,,,,,,,,,,,,,,,,D,139,circle,0,0,,,,,,,,,,,,,,,,switch,number,NA,k,0.4291,Hi,,,,,,4,,,,,,,,high,10,0,10,0,1,,,,,,,,,
297781,2022-12-05_11h45.32.342,vts_reward_expectancy_bt,2022.2.4,MacIntel,60.0024001,Chrome,1440,900,,,,,1,1010,,,,,,,,,,,,,,,,,B,125,hexagon,1,1,,,,,,,,,,,,,,,,repeat,number,numRpt,j,0.4772,Lo,,,,,,4,,,,,,,,high,11,0,11,0,1,,,,,,,,,
297781,2022-12-05_11h45.32.342,vts_reward_expectancy_bt,2022.2.4,MacIntel,60.0024001,Chrome,1440,900,,,,,0,1010,,,,,,,,,,,,,,,,,S,167,circle,1,0,,,,,,,,,,,,,,,,switch,letter,lettSwt,f,0.5379,Hi,,,,,,4,,,,,,,,high,12,0,12,0,1,,,,,,,,,
297781,2022-12-05_11h45.32.342,vts_reward_expectancy_bt,2022.2.4,MacIntel,60.0024001,Chrome,1440,900,,,,,0,1010,,,,,,,,,,,,,,,,,F,132,star,1,0,,,,,,,,,,,,,,,,repeat,letter,lettRpt,d,0.609,Hi,,,,,,4,,,,,,,,high,13,0,13,0,1,,,,,,,,,
297781,2022-12-05_11h45.32.342,vts_reward_expectancy_bt,2022.2.4,MacIntel,60.0024001,Chrome,1440,900,,,,,0,1010,,,,,,,,,,,,,,,,,U,160,hexagon,0,0,,,,,,,,,,,,,,,,repeat,letter,NA,d,0.472,Hi,,,,,,4,,,,,,,,high,14,0,14,0,1,,,,,,,,,
297781,2022-12-05_11h45.32.342,vts_reward_expectancy_bt,2022.2.4,MacIntel,60.0024001,Chrome,1440,900,,,,,1,1011,,,,,,,,,,,,,,,,,Y,174,triangle,1,1,,,,,,,,,,,,,,,,switch,number,numSwt,k,0.7902,Lo,,,,,,4,,,,,,,,high,15,0,15,0,1,,,,,,,,,
297781,2022-12-05_11h45.32.342,vts_reward_expectancy_bt,2022.2.4,MacIntel,60.0024001,Chrome,1440,900,,,,,10,1021,,,,,,,,,,,,,,,,,B,167,star,1,0,,,,,,,,,,,,,,,,switch,letter,lettSwt,d,0.321,Hi,,,,,,4,,,,,,,,high,16,0,16,0,1,,,,,,,,,
297781,2022-12-05_11h45.32.342,vts_reward_expectancy_bt,2022.2.4,MacIntel,60.0024001,Chrome,1440,900,,,,,1,1022,,,,,,,,,,,,,,,,,H,132,circle,1,0,,,,,,,,,,,,,,,,switch,number,numSwt,j,0.2976,Hi,,,,,,4,,,,,,,,high,17,0,17,0,1,,,,,,,,,
297781,2022-12-05_11h45.32.342,vts_reward_expectancy_bt,2022.2.4,MacIntel,60.0024001,Chrome,1440,900,,,,,0,1022,,,,,,,,,,,,,,,,,Y,146,triangle,0,0,,,,,,,,,,,,,,,,switch,letter,NA,d,0.319,Hi,,,,,,4,,,,,,,,high,18,0,18,0,1,,,,,,,,,
297781,2022-12-05_11h45.32.342,vts_reward_expectancy_bt,2022.2.4,MacIntel,60.0024001,Chrome,1440,900,,,,,0,1022,,,,,,,,,,,,,,,,,D,181,hexagon,0,1,,,,,,,,,,,,,,,,switch,number,NA,j,0.341,Hi,,,,,,4,,,,,,,,high,19,0,19,0,1,,,,,,,,,
297781,2022-12-05_11h45.32.342,vts_reward_expectancy_bt,2022.2.4,MacIntel,60.0024001,Chrome,1440,900,,,,,1,1023,,,,,,,,,,,,,,,,,F,160,hexagon,1,1,,,,,,,,,,,,,,,,switch,letter,lettSwt,d,0.4883,Lo,,,,,,4,,,,,,,,high,20,0,20,0,1,,,,,,,,,
297781,2022-12-05_11h45.32.342,vts_reward_expectancy_bt,2022.2.4,MacIntel,60.0024001,Chrome,1440,900,,,,,0,1023,,,,,,,,,,,,,,,,,U,125,star,0,0,,,,,,,,,,,,,,,,switch,number,NA,k,0.3552,Lo,,,,,,4,,,,,,,,high,21,0,21,0,1,,,,,,,,,
297781,2022-12-05_11h45.32.342,vts_reward_expectancy_bt,2022.2.4,MacIntel,60.0024001,Chrome,1440,900,,,,,0,1023,,,,,,,,,,,,,,,,,S,174,triangle,0,1,,,,,,,,,,,,,,,,switch,letter,NA,d,0.8904,Lo,,,,,,4,,,,,,,,high,22,0,22,0,1,,,,,,,,,
297781,2022-12-05_11h45.32.342,vts_reward_expectancy_bt,2022.2.4,MacIntel,60.0024001,Chrome,1440,900,,,,,1,1024,,,,,,,,,,,,,,,,,W,139,circle,1,1,,,,,,,,,,,,,,,,switch,number,numSwt,j,0.4304,Hi,,,,,,4,,,,,,,,high,23,0,23,0,1,,,,,,,,,
297781,2022-12-05_11h45.32.342,vts_reward_expectancy_bt,2022.2.4,MacIntel,60.0024001,Chrome,1440,900,,,,,1,1025,,,,,,,,,,,,,,,,,S,139,hexagon,1,0,,,,,,,,,,,,,,,,switch,letter,lettSwt,f,0.5084,Lo,,,,,,4,,,,,,,,high,24,0,24,0,1,,,,,,,,,
297781,2022-12-05_11h45.32.342,vts_reward_expectancy_bt,2022.2.4,MacIntel,60.0024001,Chrome,1440,900,,,,,10,1035,,,,,,,,,,,,,,,,,D,160,triangle,1,0,,,,,,,,,,,,,,,,switch,number,numSwt,k,0.8952,Lo,,,,,,4,,,,,,,,high,25,0,25,0,1,,,,,,,,,
297781,2022-12-05_11h45.32.342,vts_reward_expectancy_bt,2022.2.4,MacIntel,60.0024001,Chrome,1440,900,,,,,0,1035,,,,,,,,,,,,,,,,,H,132,star,1,0,,,,,,,,,,,,,,,,repeat,number,numRpt,j,0.7766,Hi,,,,,,4,,,,,,,,high,26,0,26,0,1,,,,,,,,,
297781,2022-12-05_11h45.32.342,vts_reward_expectancy_bt,2022.2.4,MacIntel,60.0024001,Chrome,1440,900,,,,,0,1035,,,,,,,,,,,,,,,,,B,174,circle,0,0,,,,,,,,,,,,,,,,repeat,number,NA,j,0.8238,Hi,,,,,,4,,,,,,,,high,27,0,27,0,1,,,,,,,,,
297781,2022-12-05_11h45.32.342,vts_reward_expectancy_bt,2022.2.4,MacIntel,60.0024001,Chrome,1440,900,,,,,0,1035,,,,,,,,,,,,,,,,,F,146,hexagon,0,1,,,,,,,,,,,,,,,,repeat,number,NA,k,0.557,Hi,,,,,,4,,,,,,,,high,28,0,28,0,1,,,,,,,,,
297781,2022-12-05_11h45.32.342,vts_reward_expectancy_bt,2022.2.4,MacIntel,60.0024001,Chrome,1440,900,,,,,10,1045,,,,,,,,,,,,,,,,,W,181,circle,1,1,,,,,,,,,,,,,,,,repeat,number,numRpt,k,0.4804,Hi,,,,,,4,,,,,,,,high,29,0,29,0,1,,,,,,,,,
297781,2022-12-05_11h45.32.342,vts_reward_expectancy_bt,2022.2.4,MacIntel,60.0024001,Chrome,1440,900,,,,,0,1045,,,,,,,,,,,,,,,,,Y,125,star,1,0,,,,,,,,,,,,,,,,repeat,number,numRpt,j,0.6085,Hi,,,,,,4,,,,,,,,high,30,0,30,0,1,,,,,,,,,
297781,2022-12-05_11h45.32.342,vts_reward_expectancy_bt,2022.2.4,MacIntel,60.0024001,Chrome,1440,900,,,,,1,1046,,,,,,,,,,,,,,,,,U,167,triangle,1,0,,,,,,,,,,,,,,,,repeat,number,numRpt,k,0.5782,Lo,,,,,,4,,,,,,,,high,31,0,31,0,1,,,,,,,,,
297781,2022-12-05_11h45.32.342,vts_reward_expectancy_bt,2022.2.4,MacIntel,60.0024001,Chrome,1440,900,,,,,1,1047,,,,,,,,,,,,,,,,,D,167,hexagon,1,0,,,,,,,,,,,,,,,,repeat,number,numRpt,k,0.5739,Lo,,,,,,5,,,,,,space,67.9858,high,0,0,0,0,1,,,,,,,,,
297781,2022-12-05_11h45.32.342,vts_reward_expectancy_bt,2022.2.4,MacIntel,60.0024001,Chrome,1440,900,,,,,0,1047,,,,,,,,,,,,,,,,,Y,146,triangle,0,0,,,,,,,,,,,,,,,,switch,letter,NA,d,0.793,Lo,,,,,,5,,,,,,,,high,1,0,1,0,1,,,,,,,,,
297781,2022-12-05_11h45.32.342,vts_reward_expectancy_bt,2022.2.4,MacIntel,60.0024001,Chrome,1440,900,,,,,0,1047,,,,,,,,,,,,,,,,,U,139,star,0,1,,,,,,,,,,,,,,,,repeat,letter,NA,d,0.6759,Lo,,,,,,5,,,,,,,,high,2,0,2,0,1,,,,,,,,,
297781,2022-12-05_11h45.32.342,vts_reward_expectancy_bt,2022.2.4,MacIntel,60.0024001,Chrome,1440,900,,,,,0,1047,,,,,,,,,,,,,,,,,B,181,circle,1,1,,,,,,,,,,,,,,,,switch,number,numSwt,k,0.6484,Hi,,,,,,5,,,,,,,,high,3,0,3,0,1,,,,,,,,,
