participant,date,expName,psychopyVersion,OS,frameRate,browser,xResolution,yResolution,key_resp.keys,key_resp.rt,training_resp.keys,training_resp.rt,points_trial,points_cumul,trainBlock,training.thisRepN,training.thisTrialN,training.thisN,training.thisIndex,training.ran,LTriangleOpac,LCircleOpac,LHexagonOpac,LStarOpac,RTriangleOpac,RCircleOpac,RHexagonOpac,RStarOpac,LShape_ID,RShape_ID,curr_topStim,curr_bottStim,curr_shape,acc,E1,target_resp_prac1.keys,pracBlock,task1_prac_trials.thisRepN,task1_prac_trials.thisTrialN,task1_prac_trials.thisN,task1_prac_trials.thisIndex,task1_prac_trials.ran,target_resp_prac1.rt,target_resp_prac2.keys,target_resp_prac2.rt,task2_praac_trials.thisRepN,task2_praac_trials.thisTrialN,task2_praac_trials.thisN,task2_praac_trials.thisIndex,task2_praac_trials.ran,alt,task,condition,target_resp.keys,target_resp.rt,rewCond,vts_practice_trials.thisRepN,vts_practice_trials.thisTrialN,vts_practice_trials.thisN,vts_practice_trials.thisIndex,vts_practice_trials.ran,blockNum,trials_norew.thisRepN,trials_norew.thisTrialN,trials_norew.thisN,trials_norew.thisIndex,trials_norew.ran,key_resp_2.keys,key_resp_2.rt,rewExpectancy,trials_rew.thisRepN,trials_rew.thisTrialN,trials_rew.thisN,trials_rew.thisIndex,trials_rew.ran,Q1,Q2,Q2_text,Q3,Q4,Q5_text,Q5,xRes,yRes
297730,2022-12-06_13h04.07.220,vts_reward_expectancy_bt,2022.2.4,Win32,59.9268892,Chrome,1536,864,,,,,,,,,,,,,,,,,,,,,,,,,,,,,,,,,,,,,,,,,,,,,,,,,,,,,,,,,,,,,,,,,,,,,,,,,,,,
297730,2022-12-06_13h04.07.220,vts_reward_expectancy_bt,2022.2.4,Win32,59.9268892,Chrome,1536,864,space,24.3989,,,,,,,,,,,,,,,,,,,,,,,,,,,,,,,,,,,,,,,,,,,,,,,,,,,,,,,,,,,,,,,,,,,,,,,,,,
297730,2022-12-06_13h04.07.220,vts_reward_expectancy_bt,2022.2.4,Win32,59.9268892,Chrome,1536,864,,,,,,,,,,,,,,,,,,,,,,,,,,,,,,,,,,,,,,,,,,,,,,,,,,,,,,,,,,,,,,,,,,,,,,,,,,,,
297730,2022-12-06_13h04.07.220,vts_reward_expectancy_bt,2022.2.4,Win32,59.9268892,Chrome,1536,864,,,l,2.4584,1,1,0,0,0,0,8,1,0,0,1,0,0,0,0,1,hexagon,star,,,,,,,,,,,,,,,,,,,,,,,,,,,,,,,,,,,,,,,,,,,,,,,,,,,,,,
297730,2022-12-06_13h04.07.220,vts_reward_expectancy_bt,2022.2.4,Win32,59.9268892,Chrome,1536,864,,,l,2.032,10,11,0,0,1,1,4,1,0,1,0,0,0,0,1,0,circle,hexagon,,,,,,,,,,,,,,,,,,,,,,,,,,,,,,,,,,,,,,,,,,,,,,,,,,,,,,
297730,2022-12-06_13h04.07.220,vts_reward_expectancy_bt,2022.2.4,Win32,59.9268892,Chrome,1536,864,,,a,1.1751,10,21,0,0,2,2,5,1,0,1,0,0,0,0,0,1,circle,star,,,,,,,,,,,,,,,,,,,,,,,,,,,,,,,,,,,,,,,,,,,,,,,,,,,,,,
297730,2022-12-06_13h04.07.220,vts_reward_expectancy_bt,2022.2.4,Win32,59.9268892,Chrome,1536,864,,,a,1.2292,10,31,0,0,3,3,3,1,0,1,0,0,1,0,0,0,circle,triangle,,,,,,,,,,,,,,,,,,,,,,,,,,,,,,,,,,,,,,,,,,,,,,,,,,,,,,
297730,2022-12-06_13h04.07.220,vts_reward_expectancy_bt,2022.2.4,Win32,59.9268892,Chrome,1536,864,,,l,0.9582,1,32,0,0,4,4,1,1,1,0,0,0,0,0,1,0,triangle,hexagon,,,,,,,,,,,,,,,,,,,,,,,,,,,,,,,,,,,,,,,,,,,,,,,,,,,,,,
297730,2022-12-06_13h04.07.220,vts_reward_expectancy_bt,2022.2.4,Win32,59.9268892,Chrome,1536,864,,,l,1.1216,10,42,0,0,5,5,10,1,0,0,0,1,0,1,0,0,star ,circle,,,,,,,,,,,,,,,,,,,,,,,,,,,,,,,,,,,,,,,,,,,,,,,,,,,,,,
297730,2022-12-06_13h04.07.220,vts_reward_expectancy_bt,2022.2.4,Win32,59.9268892,Chrome,1536,864,,,l,0.8769,1,43,0,0,6,6,11,1,0,0,0,1,0,0,1,0,star,hexagon,,,,,,,,,,,,,,,,,,,,,,,,,,,,,,,,,,,,,,,,,,,,,,,,,,,,,,
297730,2022-12-06_13h04.07.220,vts_reward_expectancy_bt,2022.2.4,Win32,59.9268892,Chrome,1536,864,,,a,0.9163,10,53,0,0,7,7,2,1,1,0,0,0,0,0,0,1,triangle,star,,,,,,,,,,,,,,,,,,,,,,,,,,,,,,,,,,,,,,,,,,,,,,,,,,,,,,
297730,2022-12-06_13h04.07.220,vts_reward_expectancy_bt,2022.2.4,Win32,59.9268892,Chrome,1536,864,,,l,1.7711,10,63,0,0,8,8,9,1,0,0,0,1,1,0,0,0,star,triangle,,,,,,,,,,,,,,,,,,,,,,,,,,,,,,,,,,,,,,,,,,,,,,,,,,,,,,
297730,2022-12-06_13h04.07.220,vts_reward_expectancy_bt,2022.2.4,Win32,59.9268892,Chrome,1536,864,,,l,1.7838,1,64,0,0,9,9,7,1,0,0,1,0,0,1,0,0,hexagon,circle,,,,,,,,,,,,,,,,,,,,,,,,,,,,,,,,,,,,,,,,,,,,,,,,,,,,,,
297730,2022-12-06_13h04.07.220,vts_reward_expectancy_bt,2022.2.4,Win32,59.9268892,Chrome,1536,864,,,a,2.0297,10,74,0,0,10,10,0,1,1,0,0,0,0,1,0,0,triangle,circle,,,,,,,,,,,,,,,,,,,,,,,,,,,,,,,,,,,,,,,,,,,,,,,,,,,,,,
297730,2022-12-06_13h04.07.220,vts_reward_expectancy_bt,2022.2.4,Win32,59.9268892,Chrome,1536,864,,,l,1.1592,10,84,0,0,11,11,6,1,0,0,1,0,1,0,0,0,hexagon,triangle,,,,,,,,,,,,,,,,,,,,,,,,,,,,,,,,,,,,,,,,,,,,,,,,,,,,,,
297730,2022-12-06_13h04.07.220,vts_reward_expectancy_bt,2022.2.4,Win32,59.9268892,Chrome,1536,864,,,l,0.7677,1,85,0,1,0,12,10,1,0,0,0,1,0,1,0,0,star ,circle,,,,,,,,,,,,,,,,,,,,,,,,,,,,,,,,,,,,,,,,,,,,,,,,,,,,,,
297730,2022-12-06_13h04.07.220,vts_reward_expectancy_bt,2022.2.4,Win32,59.9268892,Chrome,1536,864,,,a,1.8307,1,86,0,1,1,13,6,1,0,0,1,0,1,0,0,0,hexagon,triangle,,,,,,,,,,,,,,,,,,,,,,,,,,,,,,,,,,,,,,,,,,,,,,,,,,,,,,
297730,2022-12-06_13h04.07.220,vts_reward_expectancy_bt,2022.2.4,Win32,59.9268892,Chrome,1536,864,,,a,0.6822,10,96,0,1,2,14,2,1,1,0,0,0,0,0,0,1,triangle,star,,,,,,,,,,,,,,,,,,,,,,,,,,,,,,,,,,,,,,,,,,,,,,,,,,,,,,
297730,2022-12-06_13h04.07.220,vts_reward_expectancy_bt,2022.2.4,Win32,59.9268892,Chrome,1536,864,,,a,0.668,10,106,0,1,3,15,5,1,0,1,0,0,0,0,0,1,circle,star,,,,,,,,,,,,,,,,,,,,,,,,,,,,,,,,,,,,,,,,,,,,,,,,,,,,,,
297730,2022-12-06_13h04.07.220,vts_reward_expectancy_bt,2022.2.4,Win32,59.9268892,Chrome,1536,864,,,a,1.3012,1,107,0,1,4,16,8,1,0,0,1,0,0,0,0,1,hexagon,star,,,,,,,,,,,,,,,,,,,,,,,,,,,,,,,,,,,,,,,,,,,,,,,,,,,,,,
297730,2022-12-06_13h04.07.220,vts_reward_expectancy_bt,2022.2.4,Win32,59.9268892,Chrome,1536,864,,,l,0.7171,10,117,0,1,5,17,9,1,0,0,0,1,1,0,0,0,star,triangle,,,,,,,,,,,,,,,,,,,,,,,,,,,,,,,,,,,,,,,,,,,,,,,,,,,,,,
297730,2022-12-06_13h04.07.220,vts_reward_expectancy_bt,2022.2.4,Win32,59.9268892,Chrome,1536,864,,,a,1.9474,1,118,0,1,6,18,4,1,0,1,0,0,0,0,1,0,circle,hexagon,,,,,,,,,,,,,,,,,,,,,,,,,,,,,,,,,,,,,,,,,,,,,,,,,,,,,,
297730,2022-12-06_13h04.07.220,vts_reward_expectancy_bt,2022.2.4,Win32,59.9268892,Chrome,1536,864,,,a,1.4828,10,128,0,1,7,19,0,1,1,0,0,0,0,1,0,0,triangle,circle,,,,,,,,,,,,,,,,,,,,,,,,,,,,,,,,,,,,,,,,,,,,,,,,,,,,,,
297730,2022-12-06_13h04.07.220,vts_reward_expectancy_bt,2022.2.4,Win32,59.9268892,Chrome,1536,864,,,l,1.1786,1,129,0,1,8,20,3,1,0,1,0,0,1,0,0,0,circle,triangle,,,,,,,,,,,,,,,,,,,,,,,,,,,,,,,,,,,,,,,,,,,,,,,,,,,,,,
297730,2022-12-06_13h04.07.220,vts_reward_expectancy_bt,2022.2.4,Win32,59.9268892,Chrome,1536,864,,,a,1.1319,10,139,0,1,9,21,7,1,0,0,1,0,0,1,0,0,hexagon,circle,,,,,,,,,,,,,,,,,,,,,,,,,,,,,,,,,,,,,,,,,,,,,,,,,,,,,,
297730,2022-12-06_13h04.07.220,vts_reward_expectancy_bt,2022.2.4,Win32,59.9268892,Chrome,1536,864,,,l,1.0937,10,149,0,1,10,22,11,1,0,0,0,1,0,0,1,0,star,hexagon,,,,,,,,,,,,,,,,,,,,,,,,,,,,,,,,,,,,,,,,,,,,,,,,,,,,,,
297730,2022-12-06_13h04.07.220,vts_reward_expectancy_bt,2022.2.4,Win32,59.9268892,Chrome,1536,864,,,a,1.7125,10,159,0,1,11,23,1,1,1,0,0,0,0,0,1,0,triangle,hexagon,,,,,,,,,,,,,,,,,,,,,,,,,,,,,,,,,,,,,,,,,,,,,,,,,,,,,,
297730,2022-12-06_13h04.07.220,vts_reward_expectancy_bt,2022.2.4,Win32,59.9268892,Chrome,1536,864,,,a,1.7753,1,160,0,2,0,24,8,1,0,0,1,0,0,0,0,1,hexagon,star,,,,,,,,,,,,,,,,,,,,,,,,,,,,,,,,,,,,,,,,,,,,,,,,,,,,,,
297730,2022-12-06_13h04.07.220,vts_reward_expectancy_bt,2022.2.4,Win32,59.9268892,Chrome,1536,864,,,a,2.2385,10,170,0,2,1,25,0,1,1,0,0,0,0,1,0,0,triangle,circle,,,,,,,,,,,,,,,,,,,,,,,,,,,,,,,,,,,,,,,,,,,,,,,,,,,,,,
297730,2022-12-06_13h04.07.220,vts_reward_expectancy_bt,2022.2.4,Win32,59.9268892,Chrome,1536,864,,,l,1.7197,1,171,0,2,2,26,7,1,0,0,1,0,0,1,0,0,hexagon,circle,,,,,,,,,,,,,,,,,,,,,,,,,,,,,,,,,,,,,,,,,,,,,,,,,,,,,,
297730,2022-12-06_13h04.07.220,vts_reward_expectancy_bt,2022.2.4,Win32,59.9268892,Chrome,1536,864,,,a,1.6334,1,172,0,2,3,27,10,1,0,0,0,1,0,1,0,0,star ,circle,,,,,,,,,,,,,,,,,,,,,,,,,,,,,,,,,,,,,,,,,,,,,,,,,,,,,,
297730,2022-12-06_13h04.07.220,vts_reward_expectancy_bt,2022.2.4,Win32,59.9268892,Chrome,1536,864,,,a,2.0648,10,182,0,2,4,28,5,1,0,1,0,0,0,0,0,1,circle,star,,,,,,,,,,,,,,,,,,,,,,,,,,,,,,,,,,,,,,,,,,,,,,,,,,,,,,
297730,2022-12-06_13h04.07.220,vts_reward_expectancy_bt,2022.2.4,Win32,59.9268892,Chrome,1536,864,,,a,1.9162,10,192,0,2,5,29,2,1,1,0,0,0,0,0,0,1,triangle,star,,,,,,,,,,,,,,,,,,,,,,,,,,,,,,,,,,,,,,,,,,,,,,,,,,,,,,
297730,2022-12-06_13h04.07.220,vts_reward_expectancy_bt,2022.2.4,Win32,59.9268892,Chrome,1536,864,,,l,1.0987,1,193,0,2,6,30,6,1,0,0,1,0,1,0,0,0,hexagon,triangle,,,,,,,,,,,,,,,,,,,,,,,,,,,,,,,,,,,,,,,,,,,,,,,,,,,,,,
297730,2022-12-06_13h04.07.220,vts_reward_expectancy_bt,2022.2.4,Win32,59.9268892,Chrome,1536,864,,,l,0.9135,1,194,0,2,7,31,11,1,0,0,0,1,0,0,1,0,star,hexagon,,,,,,,,,,,,,,,,,,,,,,,,,,,,,,,,,,,,,,,,,,,,,,,,,,,,,,
297730,2022-12-06_13h04.07.220,vts_reward_expectancy_bt,2022.2.4,Win32,59.9268892,Chrome,1536,864,,,l,1.1534,10,204,0,2,8,32,3,1,0,1,0,0,1,0,0,0,circle,triangle,,,,,,,,,,,,,,,,,,,,,,,,,,,,,,,,,,,,,,,,,,,,,,,,,,,,,,
297730,2022-12-06_13h04.07.220,vts_reward_expectancy_bt,2022.2.4,Win32,59.9268892,Chrome,1536,864,,,l,1.7095,10,214,0,2,9,33,4,1,0,1,0,0,0,0,1,0,circle,hexagon,,,,,,,,,,,,,,,,,,,,,,,,,,,,,,,,,,,,,,,,,,,,,,,,,,,,,,
297730,2022-12-06_13h04.07.220,vts_reward_expectancy_bt,2022.2.4,Win32,59.9268892,Chrome,1536,864,,,a,1.114,10,224,0,2,10,34,1,1,1,0,0,0,0,0,1,0,triangle,hexagon,,,,,,,,,,,,,,,,,,,,,,,,,,,,,,,,,,,,,,,,,,,,,,,,,,,,,,
297730,2022-12-06_13h04.07.220,vts_reward_expectancy_bt,2022.2.4,Win32,59.9268892,Chrome,1536,864,,,l,1.3676,10,234,0,2,11,35,9,1,0,0,0,1,1,0,0,0,star,triangle,,,,,,,,,,,,,,,,,,,,,,,,,,,,,,,,,,,,,,,,,,,,,,,,,,,,,,
297730,2022-12-06_13h04.07.220,vts_reward_expectancy_bt,2022.2.4,Win32,59.9268892,Chrome,1536,864,,,a,1.2934,10,244,1,0,0,0,2,1,1,0,0,0,0,0,0,1,triangle,star,,,,,,,,,,,,,,,,,,,,,,,,,,,,,,,,,,,,,,,,,,,,,,,,,,,,,,
297730,2022-12-06_13h04.07.220,vts_reward_expectancy_bt,2022.2.4,Win32,59.9268892,Chrome,1536,864,,,l,0.5669,1,245,1,0,1,1,3,1,0,1,0,0,1,0,0,0,circle,triangle,,,,,,,,,,,,,,,,,,,,,,,,,,,,,,,,,,,,,,,,,,,,,,,,,,,,,,
297730,2022-12-06_13h04.07.220,vts_reward_expectancy_bt,2022.2.4,Win32,59.9268892,Chrome,1536,864,,,a,0.8008,1,246,1,0,2,2,1,1,1,0,0,0,0,0,1,0,triangle,hexagon,,,,,,,,,,,,,,,,,,,,,,,,,,,,,,,,,,,,,,,,,,,,,,,,,,,,,,
297730,2022-12-06_13h04.07.220,vts_reward_expectancy_bt,2022.2.4,Win32,59.9268892,Chrome,1536,864,,,l,0.8789,10,256,1,0,3,3,4,1,0,1,0,0,0,0,1,0,circle,hexagon,,,,,,,,,,,,,,,,,,,,,,,,,,,,,,,,,,,,,,,,,,,,,,,,,,,,,,
297730,2022-12-06_13h04.07.220,vts_reward_expectancy_bt,2022.2.4,Win32,59.9268892,Chrome,1536,864,,,a,2.9696,1,257,1,0,4,4,11,1,0,0,0,1,0,0,1,0,star,hexagon,,,,,,,,,,,,,,,,,,,,,,,,,,,,,,,,,,,,,,,,,,,,,,,,,,,,,,
297730,2022-12-06_13h04.07.220,vts_reward_expectancy_bt,2022.2.4,Win32,59.9268892,Chrome,1536,864,,,a,0.8373,10,267,1,0,5,5,5,1,0,1,0,0,0,0,0,1,circle,star,,,,,,,,,,,,,,,,,,,,,,,,,,,,,,,,,,,,,,,,,,,,,,,,,,,,,,
297730,2022-12-06_13h04.07.220,vts_reward_expectancy_bt,2022.2.4,Win32,59.9268892,Chrome,1536,864,,,l,0.6336,10,277,1,0,6,6,6,1,0,0,1,0,1,0,0,0,hexagon,triangle,,,,,,,,,,,,,,,,,,,,,,,,,,,,,,,,,,,,,,,,,,,,,,,,,,,,,,
297730,2022-12-06_13h04.07.220,vts_reward_expectancy_bt,2022.2.4,Win32,59.9268892,Chrome,1536,864,,,a,2.4601,10,287,1,0,7,7,8,1,0,0,1,0,0,0,0,1,hexagon,star,,,,,,,,,,,,,,,,,,,,,,,,,,,,,,,,,,,,,,,,,,,,,,,,,,,,,,
297730,2022-12-06_13h04.07.220,vts_reward_expectancy_bt,2022.2.4,Win32,59.9268892,Chrome,1536,864,,,a,1.0826,10,297,1,0,8,8,0,1,1,0,0,0,0,1,0,0,triangle,circle,,,,,,,,,,,,,,,,,,,,,,,,,,,,,,,,,,,,,,,,,,,,,,,,,,,,,,
297730,2022-12-06_13h04.07.220,vts_reward_expectancy_bt,2022.2.4,Win32,59.9268892,Chrome,1536,864,,,l,1.0836,10,307,1,0,9,9,9,1,0,0,0,1,1,0,0,0,star,triangle,,,,,,,,,,,,,,,,,,,,,,,,,,,,,,,,,,,,,,,,,,,,,,,,,,,,,,
297730,2022-12-06_13h04.07.220,vts_reward_expectancy_bt,2022.2.4,Win32,59.9268892,Chrome,1536,864,,,a,0.8976,10,317,1,0,10,10,10,1,0,0,0,1,0,1,0,0,star ,circle,,,,,,,,,,,,,,,,,,,,,,,,,,,,,,,,,,,,,,,,,,,,,,,,,,,,,,
297730,2022-12-06_13h04.07.220,vts_reward_expectancy_bt,2022.2.4,Win32,59.9268892,Chrome,1536,864,,,a,3.7211,10,327,1,0,11,11,7,1,0,0,1,0,0,1,0,0,hexagon,circle,,,,,,,,,,,,,,,,,,,,,,,,,,,,,,,,,,,,,,,,,,,,,,,,,,,,,,
297730,2022-12-06_13h04.07.220,vts_reward_expectancy_bt,2022.2.4,Win32,59.9268892,Chrome,1536,864,,,l,1.0949,10,337,1,1,0,12,6,1,0,0,1,0,1,0,0,0,hexagon,triangle,,,,,,,,,,,,,,,,,,,,,,,,,,,,,,,,,,,,,,,,,,,,,,,,,,,,,,
297730,2022-12-06_13h04.07.220,vts_reward_expectancy_bt,2022.2.4,Win32,59.9268892,Chrome,1536,864,,,a,0.7026,10,347,1,1,1,13,2,1,1,0,0,0,0,0,0,1,triangle,star,,,,,,,,,,,,,,,,,,,,,,,,,,,,,,,,,,,,,,,,,,,,,,,,,,,,,,
297730,2022-12-06_13h04.07.220,vts_reward_expectancy_bt,2022.2.4,Win32,59.9268892,Chrome,1536,864,,,a,2.095,1,348,1,1,2,14,7,1,0,0,1,0,0,1,0,0,hexagon,circle,,,,,,,,,,,,,,,,,,,,,,,,,,,,,,,,,,,,,,,,,,,,,,,,,,,,,,
297730,2022-12-06_13h04.07.220,vts_reward_expectancy_bt,2022.2.4,Win32,59.9268892,Chrome,1536,864,,,a,0.881,10,358,1,1,3,15,1,1,1,0,0,0,0,0,1,0,triangle,hexagon,,,,,,,,,,,,,,,,,,,,,,,,,,,,,,,,,,,,,,,,,,,,,,,,,,,,,,
297730,2022-12-06_13h04.07.220,vts_reward_expectancy_bt,2022.2.4,Win32,59.9268892,Chrome,1536,864,,,l,2.0864,10,368,1,1,4,16,11,1,0,0,0,1,0,0,1,0,star,hexagon,,,,,,,,,,,,,,,,,,,,,,,,,,,,,,,,,,,,,,,,,,,,,,,,,,,,,,
297730,2022-12-06_13h04.07.220,vts_reward_expectancy_bt,2022.2.4,Win32,59.9268892,Chrome,1536,864,,,a,0.8166,10,378,1,1,5,17,10,1,0,0,0,1,0,1,0,0,star ,circle,,,,,,,,,,,,,,,,,,,,,,,,,,,,,,,,,,,,,,,,,,,,,,,,,,,,,,
297730,2022-12-06_13h04.07.220,vts_reward_expectancy_bt,2022.2.4,Win32,59.9268892,Chrome,1536,864,,,l,0.5697,1,379,1,1,6,18,5,1,0,1,0,0,0,0,0,1,circle,star,,,,,,,,,,,,,,,,,,,,,,,,,,,,,,,,,,,,,,,,,,,,,,,,,,,,,,
297730,2022-12-06_13h04.07.220,vts_reward_expectancy_bt,2022.2.4,Win32,59.9268892,Chrome,1536,864,,,l,1.5137,1,380,1,1,7,19,4,1,0,1,0,0,0,0,1,0,circle,hexagon,,,,,,,,,,,,,,,,,,,,,,,,,,,,,,,,,,,,,,,,,,,,,,,,,,,,,,
297730,2022-12-06_13h04.07.220,vts_reward_expectancy_bt,2022.2.4,Win32,59.9268892,Chrome,1536,864,,,a,0.917,10,390,1,1,8,20,0,1,1,0,0,0,0,1,0,0,triangle,circle,,,,,,,,,,,,,,,,,,,,,,,,,,,,,,,,,,,,,,,,,,,,,,,,,,,,,,
297730,2022-12-06_13h04.07.220,vts_reward_expectancy_bt,2022.2.4,Win32,59.9268892,Chrome,1536,864,,,l,1.4987,1,391,1,1,9,21,9,1,0,0,0,1,1,0,0,0,star,triangle,,,,,,,,,,,,,,,,,,,,,,,,,,,,,,,,,,,,,,,,,,,,,,,,,,,,,,
297730,2022-12-06_13h04.07.220,vts_reward_expectancy_bt,2022.2.4,Win32,59.9268892,Chrome,1536,864,,,l,0.5886,1,392,1,1,10,22,3,1,0,1,0,0,1,0,0,0,circle,triangle,,,,,,,,,,,,,,,,,,,,,,,,,,,,,,,,,,,,,,,,,,,,,,,,,,,,,,
297730,2022-12-06_13h04.07.220,vts_reward_expectancy_bt,2022.2.4,Win32,59.9268892,Chrome,1536,864,,,a,1.7662,1,393,1,1,11,23,8,1,0,0,1,0,0,0,0,1,hexagon,star,,,,,,,,,,,,,,,,,,,,,,,,,,,,,,,,,,,,,,,,,,,,,,,,,,,,,,
297730,2022-12-06_13h04.07.220,vts_reward_expectancy_bt,2022.2.4,Win32,59.9268892,Chrome,1536,864,,,l,1.4338,10,403,1,2,0,24,8,1,0,0,1,0,0,0,0,1,hexagon,star,,,,,,,,,,,,,,,,,,,,,,,,,,,,,,,,,,,,,,,,,,,,,,,,,,,,,,
297730,2022-12-06_13h04.07.220,vts_reward_expectancy_bt,2022.2.4,Win32,59.9268892,Chrome,1536,864,,,a,1.5041,1,404,1,2,1,25,7,1,0,0,1,0,0,1,0,0,hexagon,circle,,,,,,,,,,,,,,,,,,,,,,,,,,,,,,,,,,,,,,,,,,,,,,,,,,,,,,
297730,2022-12-06_13h04.07.220,vts_reward_expectancy_bt,2022.2.4,Win32,59.9268892,Chrome,1536,864,,,l,0.9508,1,405,1,2,2,26,1,1,1,0,0,0,0,0,1,0,triangle,hexagon,,,,,,,,,,,,,,,,,,,,,,,,,,,,,,,,,,,,,,,,,,,,,,,,,,,,,,
297730,2022-12-06_13h04.07.220,vts_reward_expectancy_bt,2022.2.4,Win32,59.9268892,Chrome,1536,864,,,l,0.7639,10,415,1,2,3,27,6,1,0,0,1,0,1,0,0,0,hexagon,triangle,,,,,,,,,,,,,,,,,,,,,,,,,,,,,,,,,,,,,,,,,,,,,,,,,,,,,,
297730,2022-12-06_13h04.07.220,vts_reward_expectancy_bt,2022.2.4,Win32,59.9268892,Chrome,1536,864,,,a,2.28,10,425,1,2,4,28,10,1,0,0,0,1,0,1,0,0,star ,circle,,,,,,,,,,,,,,,,,,,,,,,,,,,,,,,,,,,,,,,,,,,,,,,,,,,,,,
297730,2022-12-06_13h04.07.220,vts_reward_expectancy_bt,2022.2.4,Win32,59.9268892,Chrome,1536,864,,,l,1.0657,1,426,1,2,5,29,5,1,0,1,0,0,0,0,0,1,circle,star,,,,,,,,,,,,,,,,,,,,,,,,,,,,,,,,,,,,,,,,,,,,,,,,,,,,,,
297730,2022-12-06_13h04.07.220,vts_reward_expectancy_bt,2022.2.4,Win32,59.9268892,Chrome,1536,864,,,l,1.4641,10,436,1,2,6,30,3,1,0,1,0,0,1,0,0,0,circle,triangle,,,,,,,,,,,,,,,,,,,,,,,,,,,,,,,,,,,,,,,,,,,,,,,,,,,,,,
297730,2022-12-06_13h04.07.220,vts_reward_expectancy_bt,2022.2.4,Win32,59.9268892,Chrome,1536,864,,,a,0.5667,1,437,1,2,7,31,9,1,0,0,0,1,1,0,0,0,star,triangle,,,,,,,,,,,,,,,,,,,,,,,,,,,,,,,,,,,,,,,,,,,,,,,,,,,,,,
297730,2022-12-06_13h04.07.220,vts_reward_expectancy_bt,2022.2.4,Win32,59.9268892,Chrome,1536,864,,,a,1.0338,10,447,1,2,8,32,11,1,0,0,0,1,0,0,1,0,star,hexagon,,,,,,,,,,,,,,,,,,,,,,,,,,,,,,,,,,,,,,,,,,,,,,,,,,,,,,
297730,2022-12-06_13h04.07.220,vts_reward_expectancy_bt,2022.2.4,Win32,59.9268892,Chrome,1536,864,,,l,0.8196,1,448,1,2,9,33,4,1,0,1,0,0,0,0,1,0,circle,hexagon,,,,,,,,,,,,,,,,,,,,,,,,,,,,,,,,,,,,,,,,,,,,,,,,,,,,,,
297730,2022-12-06_13h04.07.220,vts_reward_expectancy_bt,2022.2.4,Win32,59.9268892,Chrome,1536,864,,,a,0.8402,10,458,1,2,10,34,0,1,1,0,0,0,0,1,0,0,triangle,circle,,,,,,,,,,,,,,,,,,,,,,,,,,,,,,,,,,,,,,,,,,,,,,,,,,,,,,
297730,2022-12-06_13h04.07.220,vts_reward_expectancy_bt,2022.2.4,Win32,59.9268892,Chrome,1536,864,,,a,2.8014,1,459,1,2,11,35,2,1,1,0,0,0,0,0,0,1,triangle,star,,,,,,,,,,,,,,,,,,,,,,,,,,,,,,,,,,,,,,,,,,,,,,,,,,,,,,
297730,2022-12-06_13h04.07.220,vts_reward_expectancy_bt,2022.2.4,Win32,59.9268892,Chrome,1536,864,,,a,0.7968,10,469,2,0,0,0,1,1,1,0,0,0,0,0,1,0,triangle,hexagon,,,,,,,,,,,,,,,,,,,,,,,,,,,,,,,,,,,,,,,,,,,,,,,,,,,,,,
297730,2022-12-06_13h04.07.220,vts_reward_expectancy_bt,2022.2.4,Win32,59.9268892,Chrome,1536,864,,,a,0.7516,1,470,2,0,1,1,7,1,0,0,1,0,0,1,0,0,hexagon,circle,,,,,,,,,,,,,,,,,,,,,,,,,,,,,,,,,,,,,,,,,,,,,,,,,,,,,,
297730,2022-12-06_13h04.07.220,vts_reward_expectancy_bt,2022.2.4,Win32,59.9268892,Chrome,1536,864,,,l,2.7493,1,471,2,0,2,2,4,1,0,1,0,0,0,0,1,0,circle,hexagon,,,,,,,,,,,,,,,,,,,,,,,,,,,,,,,,,,,,,,,,,,,,,,,,,,,,,,
297730,2022-12-06_13h04.07.220,vts_reward_expectancy_bt,2022.2.4,Win32,59.9268892,Chrome,1536,864,,,a,1.2193,1,472,2,0,3,3,10,1,0,0,0,1,0,1,0,0,star ,circle,,,,,,,,,,,,,,,,,,,,,,,,,,,,,,,,,,,,,,,,,,,,,,,,,,,,,,
297730,2022-12-06_13h04.07.220,vts_reward_expectancy_bt,2022.2.4,Win32,59.9268892,Chrome,1536,864,,,a,0.6835,1,473,2,0,4,4,2,1,1,0,0,0,0,0,0,1,triangle,star,,,,,,,,,,,,,,,,,,,,,,,,,,,,,,,,,,,,,,,,,,,,,,,,,,,,,,
297730,2022-12-06_13h04.07.220,vts_reward_expectancy_bt,2022.2.4,Win32,59.9268892,Chrome,1536,864,,,l,0.5876,10,483,2,0,5,5,6,1,0,0,1,0,1,0,0,0,hexagon,triangle,,,,,,,,,,,,,,,,,,,,,,,,,,,,,,,,,,,,,,,,,,,,,,,,,,,,,,
297730,2022-12-06_13h04.07.220,vts_reward_expectancy_bt,2022.2.4,Win32,59.9268892,Chrome,1536,864,,,a,0.9168,10,493,2,0,6,6,5,1,0,1,0,0,0,0,0,1,circle,star,,,,,,,,,,,,,,,,,,,,,,,,,,,,,,,,,,,,,,,,,,,,,,,,,,,,,,
297730,2022-12-06_13h04.07.220,vts_reward_expectancy_bt,2022.2.4,Win32,59.9268892,Chrome,1536,864,,,a,0.5702,1,494,2,0,7,7,0,1,1,0,0,0,0,1,0,0,triangle,circle,,,,,,,,,,,,,,,,,,,,,,,,,,,,,,,,,,,,,,,,,,,,,,,,,,,,,,
297730,2022-12-06_13h04.07.220,vts_reward_expectancy_bt,2022.2.4,Win32,59.9268892,Chrome,1536,864,,,a,0.5831,10,504,2,0,8,8,3,1,0,1,0,0,1,0,0,0,circle,triangle,,,,,,,,,,,,,,,,,,,,,,,,,,,,,,,,,,,,,,,,,,,,,,,,,,,,,,
297730,2022-12-06_13h04.07.220,vts_reward_expectancy_bt,2022.2.4,Win32,59.9268892,Chrome,1536,864,,,a,0.9691,10,514,2,0,9,9,9,1,0,0,0,1,1,0,0,0,star,triangle,,,,,,,,,,,,,,,,,,,,,,,,,,,,,,,,,,,,,,,,,,,,,,,,,,,,,,
297730,2022-12-06_13h04.07.220,vts_reward_expectancy_bt,2022.2.4,Win32,59.9268892,Chrome,1536,864,,,a,1.417,1,515,2,0,10,10,11,1,0,0,0,1,0,0,1,0,star,hexagon,,,,,,,,,,,,,,,,,,,,,,,,,,,,,,,,,,,,,,,,,,,,,,,,,,,,,,
297730,2022-12-06_13h04.07.220,vts_reward_expectancy_bt,2022.2.4,Win32,59.9268892,Chrome,1536,864,,,l,0.6057,1,516,2,0,11,11,8,1,0,0,1,0,0,0,0,1,hexagon,star,,,,,,,,,,,,,,,,,,,,,,,,,,,,,,,,,,,,,,,,,,,,,,,,,,,,,,
297730,2022-12-06_13h04.07.220,vts_reward_expectancy_bt,2022.2.4,Win32,59.9268892,Chrome,1536,864,,,l,1.723,10,526,2,1,0,12,2,1,1,0,0,0,0,0,0,1,triangle,star,,,,,,,,,,,,,,,,,,,,,,,,,,,,,,,,,,,,,,,,,,,,,,,,,,,,,,
297730,2022-12-06_13h04.07.220,vts_reward_expectancy_bt,2022.2.4,Win32,59.9268892,Chrome,1536,864,,,a,0.467,1,527,2,1,1,13,6,1,0,0,1,0,1,0,0,0,hexagon,triangle,,,,,,,,,,,,,,,,,,,,,,,,,,,,,,,,,,,,,,,,,,,,,,,,,,,,,,
297730,2022-12-06_13h04.07.220,vts_reward_expectancy_bt,2022.2.4,Win32,59.9268892,Chrome,1536,864,,,a,1.0329,10,537,2,1,2,14,4,1,0,1,0,0,0,0,1,0,circle,hexagon,,,,,,,,,,,,,,,,,,,,,,,,,,,,,,,,,,,,,,,,,,,,,,,,,,,,,,
297730,2022-12-06_13h04.07.220,vts_reward_expectancy_bt,2022.2.4,Win32,59.9268892,Chrome,1536,864,,,a,0.725,1,538,2,1,3,15,5,1,0,1,0,0,0,0,0,1,circle,star,,,,,,,,,,,,,,,,,,,,,,,,,,,,,,,,,,,,,,,,,,,,,,,,,,,,,,
297730,2022-12-06_13h04.07.220,vts_reward_expectancy_bt,2022.2.4,Win32,59.9268892,Chrome,1536,864,,,a,0.9007,10,548,2,1,4,16,9,1,0,0,0,1,1,0,0,0,star,triangle,,,,,,,,,,,,,,,,,,,,,,,,,,,,,,,,,,,,,,,,,,,,,,,,,,,,,,
297730,2022-12-06_13h04.07.220,vts_reward_expectancy_bt,2022.2.4,Win32,59.9268892,Chrome,1536,864,,,a,1.0336,1,549,2,1,5,17,0,1,1,0,0,0,0,1,0,0,triangle,circle,,,,,,,,,,,,,,,,,,,,,,,,,,,,,,,,,,,,,,,,,,,,,,,,,,,,,,
297730,2022-12-06_13h04.07.220,vts_reward_expectancy_bt,2022.2.4,Win32,59.9268892,Chrome,1536,864,,,l,0.5879,1,550,2,1,6,18,1,1,1,0,0,0,0,0,1,0,triangle,hexagon,,,,,,,,,,,,,,,,,,,,,,,,,,,,,,,,,,,,,,,,,,,,,,,,,,,,,,
297730,2022-12-06_13h04.07.220,vts_reward_expectancy_bt,2022.2.4,Win32,59.9268892,Chrome,1536,864,,,a,0.7821,1,551,2,1,7,19,10,1,0,0,0,1,0,1,0,0,star ,circle,,,,,,,,,,,,,,,,,,,,,,,,,,,,,,,,,,,,,,,,,,,,,,,,,,,,,,
297730,2022-12-06_13h04.07.220,vts_reward_expectancy_bt,2022.2.4,Win32,59.9268892,Chrome,1536,864,,,l,2.1373,10,561,2,1,8,20,3,1,0,1,0,0,1,0,0,0,circle,triangle,,,,,,,,,,,,,,,,,,,,,,,,,,,,,,,,,,,,,,,,,,,,,,,,,,,,,,
297730,2022-12-06_13h04.07.220,vts_reward_expectancy_bt,2022.2.4,Win32,59.9268892,Chrome,1536,864,,,l,1.5838,1,562,2,1,9,21,7,1,0,0,1,0,0,1,0,0,hexagon,circle,,,,,,,,,,,,,,,,,,,,,,,,,,,,,,,,,,,,,,,,,,,,,,,,,,,,,,
297730,2022-12-06_13h04.07.220,vts_reward_expectancy_bt,2022.2.4,Win32,59.9268892,Chrome,1536,864,,,l,0.334,1,563,2,1,10,22,11,1,0,0,0,1,0,0,1,0,star,hexagon,,,,,,,,,,,,,,,,,,,,,,,,,,,,,,,,,,,,,,,,,,,,,,,,,,,,,,
297730,2022-12-06_13h04.07.220,vts_reward_expectancy_bt,2022.2.4,Win32,59.9268892,Chrome,1536,864,,,l,0.3671,10,573,2,1,11,23,8,1,0,0,1,0,0,0,0,1,hexagon,star,,,,,,,,,,,,,,,,,,,,,,,,,,,,,,,,,,,,,,,,,,,,,,,,,,,,,,
297730,2022-12-06_13h04.07.220,vts_reward_expectancy_bt,2022.2.4,Win32,59.9268892,Chrome,1536,864,,,a,0.5848,10,583,2,2,0,24,9,1,0,0,0,1,1,0,0,0,star,triangle,,,,,,,,,,,,,,,,,,,,,,,,,,,,,,,,,,,,,,,,,,,,,,,,,,,,,,
297730,2022-12-06_13h04.07.220,vts_reward_expectancy_bt,2022.2.4,Win32,59.9268892,Chrome,1536,864,,,l,0.5839,10,593,2,2,1,25,2,1,1,0,0,0,0,0,0,1,triangle,star,,,,,,,,,,,,,,,,,,,,,,,,,,,,,,,,,,,,,,,,,,,,,,,,,,,,,,
297730,2022-12-06_13h04.07.220,vts_reward_expectancy_bt,2022.2.4,Win32,59.9268892,Chrome,1536,864,,,l,1.2186,10,603,2,2,2,26,6,1,0,0,1,0,1,0,0,0,hexagon,triangle,,,,,,,,,,,,,,,,,,,,,,,,,,,,,,,,,,,,,,,,,,,,,,,,,,,,,,
297730,2022-12-06_13h04.07.220,vts_reward_expectancy_bt,2022.2.4,Win32,59.9268892,Chrome,1536,864,,,l,0.6891,1,604,2,2,3,27,3,1,0,1,0,0,1,0,0,0,circle,triangle,,,,,,,,,,,,,,,,,,,,,,,,,,,,,,,,,,,,,,,,,,,,,,,,,,,,,,
297730,2022-12-06_13h04.07.220,vts_reward_expectancy_bt,2022.2.4,Win32,59.9268892,Chrome,1536,864,,,a,0.7506,10,614,2,2,4,28,11,1,0,0,0,1,0,0,1,0,star,hexagon,,,,,,,,,,,,,,,,,,,,,,,,,,,,,,,,,,,,,,,,,,,,,,,,,,,,,,
297730,2022-12-06_13h04.07.220,vts_reward_expectancy_bt,2022.2.4,Win32,59.9268892,Chrome,1536,864,,,l,0.9027,10,624,2,2,5,29,5,1,0,1,0,0,0,0,0,1,circle,star,,,,,,,,,,,,,,,,,,,,,,,,,,,,,,,,,,,,,,,,,,,,,,,,,,,,,,
297730,2022-12-06_13h04.07.220,vts_reward_expectancy_bt,2022.2.4,Win32,59.9268892,Chrome,1536,864,,,a,0.6814,1,625,2,2,6,30,0,1,1,0,0,0,0,1,0,0,triangle,circle,,,,,,,,,,,,,,,,,,,,,,,,,,,,,,,,,,,,,,,,,,,,,,,,,,,,,,
297730,2022-12-06_13h04.07.220,vts_reward_expectancy_bt,2022.2.4,Win32,59.9268892,Chrome,1536,864,,,l,1.0504,1,626,2,2,7,31,7,1,0,0,1,0,0,1,0,0,hexagon,circle,,,,,,,,,,,,,,,,,,,,,,,,,,,,,,,,,,,,,,,,,,,,,,,,,,,,,,
297730,2022-12-06_13h04.07.220,vts_reward_expectancy_bt,2022.2.4,Win32,59.9268892,Chrome,1536,864,,,a,1.447,1,627,2,2,8,32,1,1,1,0,0,0,0,0,1,0,triangle,hexagon,,,,,,,,,,,,,,,,,,,,,,,,,,,,,,,,,,,,,,,,,,,,,,,,,,,,,,
297730,2022-12-06_13h04.07.220,vts_reward_expectancy_bt,2022.2.4,Win32,59.9268892,Chrome,1536,864,,,l,1.3501,1,628,2,2,9,33,4,1,0,1,0,0,0,0,1,0,circle,hexagon,,,,,,,,,,,,,,,,,,,,,,,,,,,,,,,,,,,,,,,,,,,,,,,,,,,,,,
297730,2022-12-06_13h04.07.220,vts_reward_expectancy_bt,2022.2.4,Win32,59.9268892,Chrome,1536,864,,,a,0.8334,10,638,2,2,10,34,8,1,0,0,1,0,0,0,0,1,hexagon,star,,,,,,,,,,,,,,,,,,,,,,,,,,,,,,,,,,,,,,,,,,,,,,,,,,,,,,
297730,2022-12-06_13h04.07.220,vts_reward_expectancy_bt,2022.2.4,Win32,59.9268892,Chrome,1536,864,,,a,0.8491,10,648,2,2,11,35,10,1,0,0,0,1,0,1,0,0,star ,circle,,,,,,,,,,,,,,,,,,,,,,,,,,,,,,,,,,,,,,,,,,,,,,,,,,,,,,
297730,2022-12-06_13h04.07.220,vts_reward_expectancy_bt,2022.2.4,Win32,59.9268892,Chrome,1536,864,,,,,,,,,,,,,,,,,,,,,,,146,W,triangle,0,0,,0,0,0,0,0,1,,,,,,,,,,,,,,,,,,,,,,,,,,,,,,,,,,,,,,,,,,
297730,2022-12-06_13h04.07.220,vts_reward_expectancy_bt,2022.2.4,Win32,59.9268892,Chrome,1536,864,,,,,,,,,,,,,,,,,,,,,,,139,Y,star,1,1,d,0,1,0,1,0,1,1.2446,,,,,,,,,,,,,,,,,,,,,,,,,,,,,,,,,,,,,,,,,
297730,2022-12-06_13h04.07.220,vts_reward_expectancy_bt,2022.2.4,Win32,59.9268892,Chrome,1536,864,,,,,,,,,,,,,,,,,,,,,,,174,B,circle,2,0,j,0,2,0,2,0,1,2.4011,,,,,,,,,,,,,,,,,,,,,,,,,,,,,,,,,,,,,,,,,
297730,2022-12-06_13h04.07.220,vts_reward_expectancy_bt,2022.2.4,Win32,59.9268892,Chrome,1536,864,,,,,,,,,,,,,,,,,,,,,,,181,D,hexagon,2,0,j,0,3,0,3,0,1,2.4517,,,,,,,,,,,,,,,,,,,,,,,,,,,,,,,,,,,,,,,,,
297730,2022-12-06_13h04.07.220,vts_reward_expectancy_bt,2022.2.4,Win32,59.9268892,Chrome,1536,864,,,,,,,,,,,,,,,,,,,,,,,167,F,triangle,0,0,d,0,4,0,4,0,1,2.1768,,,,,,,,,,,,,,,,,,,,,,,,,,,,,,,,,,,,,,,,,
297730,2022-12-06_13h04.07.220,vts_reward_expectancy_bt,2022.2.4,Win32,59.9268892,Chrome,1536,864,,,,,,,,,,,,,,,,,,,,,,,125,U,star,2,1,j,0,5,0,5,0,1,2.016,,,,,,,,,,,,,,,,,,,,,,,,,,,,,,,,,,,,,,,,,
297730,2022-12-06_13h04.07.220,vts_reward_expectancy_bt,2022.2.4,Win32,59.9268892,Chrome,1536,864,,,,,,,,,,,,,,,,,,,,,,,132,H,circle,0,0,,0,6,0,6,0,1,,,,,,,,,,,,,,,,,,,,,,,,,,,,,,,,,,,,,,,,,,
297730,2022-12-06_13h04.07.220,vts_reward_expectancy_bt,2022.2.4,Win32,59.9268892,Chrome,1536,864,,,,,,,,,,,,,,,,,,,,,,,160,S,hexagon,0,1,,0,7,0,7,0,1,,,,,,,,,,,,,,,,,,,,,,,,,,,,,,,,,,,,,,,,,,
297730,2022-12-06_13h04.07.220,vts_reward_expectancy_bt,2022.2.4,Win32,59.9268892,Chrome,1536,864,,,,,,,,,,,,,,,,,,,,,,,146,W,star,2,1,j,0,8,0,8,0,1,0.5116,,,,,,,,,,,,,,,,,,,,,,,,,,,,,,,,,,,,,,,,,
297730,2022-12-06_13h04.07.220,vts_reward_expectancy_bt,2022.2.4,Win32,59.9268892,Chrome,1536,864,,,,,,,,,,,,,,,,,,,,,,,139,Y,hexagon,1,0,d,0,9,0,9,0,1,0.5432,,,,,,,,,,,,,,,,,,,,,,,,,,,,,,,,,,,,,,,,,
297730,2022-12-06_13h04.07.220,vts_reward_expectancy_bt,2022.2.4,Win32,59.9268892,Chrome,1536,864,,,,,,,,,,,,,,,,,,,,,,,181,U,triangle,0,0,d,1,0,0,0,0,1,1.1494,,,,,,,,,,,,,,,,,,,,,,,,,,,,,,,,,,,,,,,,,
297730,2022-12-06_13h04.07.220,vts_reward_expectancy_bt,2022.2.4,Win32,59.9268892,Chrome,1536,864,,,,,,,,,,,,,,,,,,,,,,,174,S,circle,1,1,f,1,1,0,1,0,1,0.9864,,,,,,,,,,,,,,,,,,,,,,,,,,,,,,,,,,,,,,,,,
297730,2022-12-06_13h04.07.220,vts_reward_expectancy_bt,2022.2.4,Win32,59.9268892,Chrome,1536,864,,,,,,,,,,,,,,,,,,,,,,,167,W,hexagon,0,0,d,1,2,0,2,0,1,1.0265,,,,,,,,,,,,,,,,,,,,,,,,,,,,,,,,,,,,,,,,,
297730,2022-12-06_13h04.07.220,vts_reward_expectancy_bt,2022.2.4,Win32,59.9268892,Chrome,1536,864,,,,,,,,,,,,,,,,,,,,,,,132,B,star,1,1,d,1,3,0,3,0,1,2.1653,,,,,,,,,,,,,,,,,,,,,,,,,,,,,,,,,,,,,,,,,
297730,2022-12-06_13h04.07.220,vts_reward_expectancy_bt,2022.2.4,Win32,59.9268892,Chrome,1536,864,,,,,,,,,,,,,,,,,,,,,,,146,Y,triangle,1,0,d,1,4,0,4,0,1,1.112,,,,,,,,,,,,,,,,,,,,,,,,,,,,,,,,,,,,,,,,,
297730,2022-12-06_13h04.07.220,vts_reward_expectancy_bt,2022.2.4,Win32,59.9268892,Chrome,1536,864,,,,,,,,,,,,,,,,,,,,,,,160,D,circle,0,0,d,1,5,0,5,0,1,1.5467,,,,,,,,,,,,,,,,,,,,,,,,,,,,,,,,,,,,,,,,,
297730,2022-12-06_13h04.07.220,vts_reward_expectancy_bt,2022.2.4,Win32,59.9268892,Chrome,1536,864,,,,,,,,,,,,,,,,,,,,,,,125,H,hexagon,0,1,f,1,6,0,6,0,1,0.9625,,,,,,,,,,,,,,,,,,,,,,,,,,,,,,,,,,,,,,,,,
297730,2022-12-06_13h04.07.220,vts_reward_expectancy_bt,2022.2.4,Win32,59.9268892,Chrome,1536,864,,,,,,,,,,,,,,,,,,,,,,,139,F,star,1,1,d,1,7,0,7,0,1,0.6948,,,,,,,,,,,,,,,,,,,,,,,,,,,,,,,,,,,,,,,,,
297730,2022-12-06_13h04.07.220,vts_reward_expectancy_bt,2022.2.4,Win32,59.9268892,Chrome,1536,864,,,,,,,,,,,,,,,,,,,,,,,181,U,triangle,0,0,d,1,8,0,8,0,1,0.4478,,,,,,,,,,,,,,,,,,,,,,,,,,,,,,,,,,,,,,,,,
297730,2022-12-06_13h04.07.220,vts_reward_expectancy_bt,2022.2.4,Win32,59.9268892,Chrome,1536,864,,,,,,,,,,,,,,,,,,,,,,,174,S,hexagon,1,1,f,1,9,0,9,0,1,0.7946,,,,,,,,,,,,,,,,,,,,,,,,,,,,,,,,,,,,,,,,,
297730,2022-12-06_13h04.07.220,vts_reward_expectancy_bt,2022.2.4,Win32,59.9268892,Chrome,1536,864,,,,,,,,,,,,,,,,,,,,,,,160,H,star,1,0,f,2,0,0,0,0,1,0.8951,,,,,,,,,,,,,,,,,,,,,,,,,,,,,,,,,,,,,,,,,
297730,2022-12-06_13h04.07.220,vts_reward_expectancy_bt,2022.2.4,Win32,59.9268892,Chrome,1536,864,,,,,,,,,,,,,,,,,,,,,,,132,D,triangle,1,0,d,2,1,0,1,0,1,1.3294,,,,,,,,,,,,,,,,,,,,,,,,,,,,,,,,,,,,,,,,,
297730,2022-12-06_13h04.07.220,vts_reward_expectancy_bt,2022.2.4,Win32,59.9268892,Chrome,1536,864,,,,,,,,,,,,,,,,,,,,,,,146,B,circle,1,0,d,2,2,0,2,0,1,1.8626,,,,,,,,,,,,,,,,,,,,,,,,,,,,,,,,,,,,,,,,,
297730,2022-12-06_13h04.07.220,vts_reward_expectancy_bt,2022.2.4,Win32,59.9268892,Chrome,1536,864,,,,,,,,,,,,,,,,,,,,,,,125,Y,hexagon,1,0,d,2,3,0,3,0,1,1.4694,,,,,,,,,,,,,,,,,,,,,,,,,,,,,,,,,,,,,,,,,
297730,2022-12-06_13h04.07.220,vts_reward_expectancy_bt,2022.2.4,Win32,59.9268892,Chrome,1536,864,,,,,,,,,,,,,,,,,,,,,,,167,S,star,1,0,f,2,4,0,4,0,1,0.6827,,,,,,,,,,,,,,,,,,,,,,,,,,,,,,,,,,,,,,,,,
297730,2022-12-06_13h04.07.220,vts_reward_expectancy_bt,2022.2.4,Win32,59.9268892,Chrome,1536,864,,,,,,,,,,,,,,,,,,,,,,,139,W,triangle,1,0,d,2,5,0,5,0,1,2.8527,,,,,,,,,,,,,,,,,,,,,,,,,,,,,,,,,,,,,,,,,
297730,2022-12-06_13h04.07.220,vts_reward_expectancy_bt,2022.2.4,Win32,59.9268892,Chrome,1536,864,,,,,,,,,,,,,,,,,,,,,,,181,F,circle,1,0,f,2,6,0,6,0,1,0.7623,,,,,,,,,,,,,,,,,,,,,,,,,,,,,,,,,,,,,,,,,
297730,2022-12-06_13h04.07.220,vts_reward_expectancy_bt,2022.2.4,Win32,59.9268892,Chrome,1536,864,,,,,,,,,,,,,,,,,,,,,,,174,U,hexagon,1,0,f,2,7,0,7,0,1,0.5335,,,,,,,,,,,,,,,,,,,,,,,,,,,,,,,,,,,,,,,,,
297730,2022-12-06_13h04.07.220,vts_reward_expectancy_bt,2022.2.4,Win32,59.9268892,Chrome,1536,864,,,,,,,,,,,,,,,,,,,,,,,160,H,circle,1,0,f,2,8,0,8,0,1,0.7144,,,,,,,,,,,,,,,,,,,,,,,,,,,,,,,,,,,,,,,,,
297730,2022-12-06_13h04.07.220,vts_reward_expectancy_bt,2022.2.4,Win32,59.9268892,Chrome,1536,864,,,,,,,,,,,,,,,,,,,,,,,132,D,hexagon,1,0,d,2,9,0,9,0,1,0.6821,,,,,,,,,,,,,,,,,,,,,,,,,,,,,,,,,,,,,,,,,
297730,2022-12-06_13h04.07.220,vts_reward_expectancy_bt,2022.2.4,Win32,59.9268892,Chrome,1536,864,,,,,,,,,,,,,,,,,,,,,,,167,B,hexagon,1,0,,3,,,,,,,j,0.9804,0,0,0,0,1,,,,,,,,,,,,,,,,,,,,,,,,,,,,,,,,,,
297730,2022-12-06_13h04.07.220,vts_reward_expectancy_bt,2022.2.4,Win32,59.9268892,Chrome,1536,864,,,,,,,,,,,,,,,,,,,,,,,181,U,triangle,1,0,,3,,,,,,,k,0.4992,1,0,1,0,1,,,,,,,,,,,,,,,,,,,,,,,,,,,,,,,,,,
297730,2022-12-06_13h04.07.220,vts_reward_expectancy_bt,2022.2.4,Win32,59.9268892,Chrome,1536,864,,,,,,,,,,,,,,,,,,,,,,,132,Y,star,1,0,,3,,,,,,,k,0.7119,2,0,2,0,1,,,,,,,,,,,,,,,,,,,,,,,,,,,,,,,,,,
297730,2022-12-06_13h04.07.220,vts_reward_expectancy_bt,2022.2.4,Win32,59.9268892,Chrome,1536,864,,,,,,,,,,,,,,,,,,,,,,,174,H,circle,1,0,,3,,,,,,,j,2.3845,3,0,3,0,1,,,,,,,,,,,,,,,,,,,,,,,,,,,,,,,,,,
297730,2022-12-06_13h04.07.220,vts_reward_expectancy_bt,2022.2.4,Win32,59.9268892,Chrome,1536,864,,,,,,,,,,,,,,,,,,,,,,,146,F,hexagon,1,0,,3,,,,,,,j,1.195,4,0,4,0,1,,,,,,,,,,,,,,,,,,,,,,,,,,,,,,,,,,
297730,2022-12-06_13h04.07.220,vts_reward_expectancy_bt,2022.2.4,Win32,59.9268892,Chrome,1536,864,,,,,,,,,,,,,,,,,,,,,,,160,D,triangle,2,0,,3,,,,,,,d,0.7633,5,0,5,0,1,,,,,,,,,,,,,,,,,,,,,,,,,,,,,,,,,,
297730,2022-12-06_13h04.07.220,vts_reward_expectancy_bt,2022.2.4,Win32,59.9268892,Chrome,1536,864,,,,,,,,,,,,,,,,,,,,,,,125,W,star,1,0,,3,,,,,,,k,0.6778,6,0,6,0,1,,,,,,,,,,,,,,,,,,,,,,,,,,,,,,,,,,
297730,2022-12-06_13h04.07.220,vts_reward_expectancy_bt,2022.2.4,Win32,59.9268892,Chrome,1536,864,,,,,,,,,,,,,,,,,,,,,,,139,S,circle,1,0,,3,,,,,,,k,1.3362,7,0,7,0,1,,,,,,,,,,,,,,,,,,,,,,,,,,,,,,,,,,
297730,2022-12-06_13h04.07.220,vts_reward_expectancy_bt,2022.2.4,Win32,59.9268892,Chrome,1536,864,,,,,,,,,,,,,,,,,,,,,,,167,B,hexagon,1,0,,3,,,,,,,j,0.7795,8,0,8,0,1,,,,,,,,,,,,,,,,,,,,,,,,,,,,,,,,,,
297730,2022-12-06_13h04.07.220,vts_reward_expectancy_bt,2022.2.4,Win32,59.9268892,Chrome,1536,864,,,,,,,,,,,,,,,,,,,,,,,181,U,circle,1,0,,3,,,,,,,k,0.603,9,0,9,0,1,,,,,,,,,,,,,,,,,,,,,,,,,,,,,,,,,,
297730,2022-12-06_13h04.07.220,vts_reward_expectancy_bt,2022.2.4,Win32,59.9268892,Chrome,1536,864,,,,,0,648,,,,,,,,,,,,,,,,,181,W,triangle,0,0,,4,,,,,,,,,,,,,,-1,number,NA,d,1.4694,vtsPrac,0,0,0,0,1,,,,,,,,,,,,,,,,,,,,,,,
297730,2022-12-06_13h04.07.220,vts_reward_expectancy_bt,2022.2.4,Win32,59.9268892,Chrome,1536,864,,,,,0,648,,,,,,,,,,,,,,,,,167,B,star,1,1,,4,,,,,,,,,,,,,,repeat,number,numRpt,f,1.3514,vtsPrac,1,0,1,0,1,,,,,,,,,,,,,,,,,,,,,,,
297730,2022-12-06_13h04.07.220,vts_reward_expectancy_bt,2022.2.4,Win32,59.9268892,Chrome,1536,864,,,,,0,648,,,,,,,,,,,,,,,,,174,F,triangle,1,0,,4,,,,,,,,,,,,,,repeat,number,numRpt,f,1.8159,vtsPrac,2,0,2,0,1,,,,,,,,,,,,,,,,,,,,,,,
297730,2022-12-06_13h04.07.220,vts_reward_expectancy_bt,2022.2.4,Win32,59.9268892,Chrome,1536,864,,,,,0,648,,,,,,,,,,,,,,,,,132,Y,star,1,0,,4,,,,,,,,,,,,,,repeat,number,numRpt,d,1.5415,vtsPrac,3,0,3,0,1,,,,,,,,,,,,,,,,,,,,,,,
297730,2022-12-06_13h04.07.220,vts_reward_expectancy_bt,2022.2.4,Win32,59.9268892,Chrome,1536,864,,,,,0,648,,,,,,,,,,,,,,,,,181,W,star,1,0,,4,,,,,,,,,,,,,,repeat,number,numRpt,f,0.7108,vtsPrac,4,0,4,0,1,,,,,,,,,,,,,,,,,,,,,,,
297730,2022-12-06_13h04.07.220,vts_reward_expectancy_bt,2022.2.4,Win32,59.9268892,Chrome,1536,864,,,,,0,648,,,,,,,,,,,,,,,,,167,B,triangle,1,0,,4,,,,,,,,,,,,,,repeat,number,numRpt,f,1.5249,vtsPrac,5,0,5,0,1,,,,,,,,,,,,,,,,,,,,,,,
297730,2022-12-06_13h04.07.220,vts_reward_expectancy_bt,2022.2.4,Win32,59.9268892,Chrome,1536,864,,,,,0,648,,,,,,,,,,,,,,,,,174,F,hexagon,1,0,,4,,,,,,,,,,,,,,repeat,number,numRpt,f,0.6145,vtsPrac,6,0,6,0,1,,,,,,,,,,,,,,,,,,,,,,,
297730,2022-12-06_13h04.07.220,vts_reward_expectancy_bt,2022.2.4,Win32,59.9268892,Chrome,1536,864,,,,,0,648,,,,,,,,,,,,,,,,,132,Y,triangle,1,0,,4,,,,,,,,,,,,,,repeat,number,numRpt,d,0.7025,vtsPrac,7,0,7,0,1,,,,,,,,,,,,,,,,,,,,,,,
297730,2022-12-06_13h04.07.220,vts_reward_expectancy_bt,2022.2.4,Win32,59.9268892,Chrome,1536,864,,,,,0,648,,,,,,,,,,,,,,,,,146,U,star,1,0,,4,,,,,,,,,,,,,,repeat,number,numRpt,d,0.9854,vtsPrac,8,0,8,0,1,,,,,,,,,,,,,,,,,,,,,,,
297730,2022-12-06_13h04.07.220,vts_reward_expectancy_bt,2022.2.4,Win32,59.9268892,Chrome,1536,864,,,,,0,648,,,,,,,,,,,,,,,,,174,F,circle,1,0,,4,,,,,,,,,,,,,,repeat,number,numRpt,f,0.7467,vtsPrac,9,0,9,0,1,,,,,,,,,,,,,,,,,,,,,,,
297730,2022-12-06_13h04.07.220,vts_reward_expectancy_bt,2022.2.4,Win32,59.9268892,Chrome,1536,864,,,,,0,648,,,,,,,,,,,,,,,,,132,Y,star,1,0,,4,,,,,,,,,,,,,,repeat,number,numRpt,d,0.8525,vtsPrac,10,0,10,0,1,,,,,,,,,,,,,,,,,,,,,,,
297730,2022-12-06_13h04.07.220,vts_reward_expectancy_bt,2022.2.4,Win32,59.9268892,Chrome,1536,864,,,,,0,648,,,,,,,,,,,,,,,,,125,W,hexagon,1,0,,4,,,,,,,,,,,,,,repeat,number,numRpt,d,0.631,vtsPrac,11,0,11,0,1,,,,,,,,,,,,,,,,,,,,,,,
297730,2022-12-06_13h04.07.220,vts_reward_expectancy_bt,2022.2.4,Win32,59.9268892,Chrome,1536,864,,,,,0,648,,,,,,,,,,,,,,,,,181,H,circle,1,0,,4,,,,,,,,,,,,,,repeat,number,numRpt,f,1.1155,vtsPrac,12,0,12,0,1,,,,,,,,,,,,,,,,,,,,,,,
297730,2022-12-06_13h04.07.220,vts_reward_expectancy_bt,2022.2.4,Win32,59.9268892,Chrome,1536,864,,,,,0,648,,,,,,,,,,,,,,,,,146,D,star,1,0,,4,,,,,,,,,,,,,,repeat,number,numRpt,d,1.4111,vtsPrac,13,0,13,0,1,,,,,,,,,,,,,,,,,,,,,,,
297730,2022-12-06_13h04.07.220,vts_reward_expectancy_bt,2022.2.4,Win32,59.9268892,Chrome,1536,864,,,,,0,648,,,,,,,,,,,,,,,,,167,S,hexagon,1,0,,4,,,,,,,,,,,,,,repeat,number,numRpt,f,1.2039,vtsPrac,14,0,14,0,1,,,,,,,,,,,,,,,,,,,,,,,
297730,2022-12-06_13h04.07.220,vts_reward_expectancy_bt,2022.2.4,Win32,59.9268892,Chrome,1536,864,,,,,0,648,,,,,,,,,,,,,,,,,132,B,star,1,0,,4,,,,,,,,,,,,,,repeat,number,numRpt,d,0.8264,vtsPrac,15,0,15,0,1,,,,,,,,,,,,,,,,,,,,,,,
297730,2022-12-06_13h04.07.220,vts_reward_expectancy_bt,2022.2.4,Win32,59.9268892,Chrome,1536,864,,,,,0,648,,,,,,,,,,,,,,,,,160,S,star,1,0,,4,,,,,,,,,,,,,,repeat,number,numRpt,f,0.7524,vtsPrac,16,0,16,0,1,,,,,,,,,,,,,,,,,,,,,,,
297730,2022-12-06_13h04.07.220,vts_reward_expectancy_bt,2022.2.4,Win32,59.9268892,Chrome,1536,864,,,,,0,648,,,,,,,,,,,,,,,,,181,B,circle,1,0,,4,,,,,,,,,,,,,,repeat,number,numRpt,f,0.9602,vtsPrac,17,0,17,0,1,,,,,,,,,,,,,,,,,,,,,,,
297730,2022-12-06_13h04.07.220,vts_reward_expectancy_bt,2022.2.4,Win32,59.9268892,Chrome,1536,864,,,,,0,648,,,,,,,,,,,,,,,,,167,H,hexagon,1,0,,4,,,,,,,,,,,,,,repeat,number,numRpt,f,0.6158,vtsPrac,18,0,18,0,1,,,,,,,,,,,,,,,,,,,,,,,
297730,2022-12-06_13h04.07.220,vts_reward_expectancy_bt,2022.2.4,Win32,59.9268892,Chrome,1536,864,,,,,0,648,,,,,,,,,,,,,,,,,174,Y,star,1,0,,4,,,,,,,,,,,,,,repeat,number,numRpt,f,0.6783,vtsPrac,19,0,19,0,1,,,,,,,,,,,,,,,,,,,,,,,
297730,2022-12-06_13h04.07.220,vts_reward_expectancy_bt,2022.2.4,Win32,59.9268892,Chrome,1536,864,,,,,0,648,,,,,,,,,,,,,,,,,174,F,circle,1,0,,4,,,,,,,,,,,,,,repeat,number,numRpt,f,0.67,vtsPrac,20,0,20,0,1,,,,,,,,,,,,,,,,,,,,,,,
297730,2022-12-06_13h04.07.220,vts_reward_expectancy_bt,2022.2.4,Win32,59.9268892,Chrome,1536,864,,,,,0,648,,,,,,,,,,,,,,,,,167,H,star,1,0,,4,,,,,,,,,,,,,,repeat,number,numRpt,f,0.6681,vtsPrac,21,0,21,0,1,,,,,,,,,,,,,,,,,,,,,,,
297730,2022-12-06_13h04.07.220,vts_reward_expectancy_bt,2022.2.4,Win32,59.9268892,Chrome,1536,864,,,,,0,648,,,,,,,,,,,,,,,,,125,Y,star,1,0,,4,,,,,,,,,,,,,,repeat,number,numRpt,d,0.5771,vtsPrac,22,0,22,0,1,,,,,,,,,,,,,,,,,,,,,,,
297730,2022-12-06_13h04.07.220,vts_reward_expectancy_bt,2022.2.4,Win32,59.9268892,Chrome,1536,864,,,,,0,648,,,,,,,,,,,,,,,,,132,U,circle,1,0,,4,,,,,,,,,,,,,,repeat,number,numRpt,d,0.734,vtsPrac,23,0,23,0,1,,,,,,,,,,,,,,,,,,,,,,,
297730,2022-12-06_13h04.07.220,vts_reward_expectancy_bt,2022.2.4,Win32,59.9268892,Chrome,1536,864,,,,,0,648,,,,,,,,,,,,,,,,,146,S,star,1,0,,4,,,,,,,,,,,,,,repeat,number,numRpt,d,0.7788,vtsPrac,24,0,24,0,1,,,,,,,,,,,,,,,,,,,,,,,
297730,2022-12-06_13h04.07.220,vts_reward_expectancy_bt,2022.2.4,Win32,59.9268892,Chrome,1536,864,,,,,0,648,,,,,,,,,,,,,,,,,160,B,triangle,1,0,,4,,,,,,,,,,,,,,repeat,number,numRpt,f,0.5959,vtsPrac,25,0,25,0,1,,,,,,,,,,,,,,,,,,,,,,,
297730,2022-12-06_13h04.07.220,vts_reward_expectancy_bt,2022.2.4,Win32,59.9268892,Chrome,1536,864,,,,,0,648,,,,,,,,,,,,,,,,,125,D,circle,1,0,,4,,,,,,,,,,,,,,repeat,number,numRpt,d,0.6433,vtsPrac,26,0,26,0,1,,,,,,,,,,,,,,,,,,,,,,,
297730,2022-12-06_13h04.07.220,vts_reward_expectancy_bt,2022.2.4,Win32,59.9268892,Chrome,1536,864,,,,,0,648,,,,,,,,,,,,,,,,,181,H,star,1,0,,4,,,,,,,,,,,,,,repeat,number,numRpt,f,0.6451,vtsPrac,27,0,27,0,1,,,,,,,,,,,,,,,,,,,,,,,
297730,2022-12-06_13h04.07.220,vts_reward_expectancy_bt,2022.2.4,Win32,59.9268892,Chrome,1536,864,,,,,0,648,,,,,,,,,,,,,,,,,132,Y,star,1,0,,4,,,,,,,,,,,,,,repeat,number,numRpt,d,0.6794,vtsPrac,28,0,28,0,1,,,,,,,,,,,,,,,,,,,,,,,
297730,2022-12-06_13h04.07.220,vts_reward_expectancy_bt,2022.2.4,Win32,59.9268892,Chrome,1536,864,,,,,0,648,,,,,,,,,,,,,,,,,146,S,hexagon,1,0,,4,,,,,,,,,,,,,,repeat,number,numRpt,d,0.8303,vtsPrac,29,0,29,0,1,,,,,,,,,,,,,,,,,,,,,,,
297730,2022-12-06_13h04.07.220,vts_reward_expectancy_bt,2022.2.4,Win32,59.9268892,Chrome,1536,864,,,,,0,648,,,,,,,,,,,,,,,,,181,H,triangle,1,0,,4,,,,,,,,,,,,,,repeat,number,numRpt,f,0.6952,vtsPrac,30,0,30,0,1,,,,,,,,,,,,,,,,,,,,,,,
297730,2022-12-06_13h04.07.220,vts_reward_expectancy_bt,2022.2.4,Win32,59.9268892,Chrome,1536,864,,,,,0,648,,,,,,,,,,,,,,,,,174,D,star,1,0,,4,,,,,,,,,,,,,,repeat,number,numRpt,f,0.7117,vtsPrac,31,0,31,0,1,,,,,,,,,,,,,,,,,,,,,,,
297730,2022-12-06_13h04.07.220,vts_reward_expectancy_bt,2022.2.4,Win32,59.9268892,Chrome,1536,864,,,,,0,648,,,,,,,,,,,,,,,,,146,B,hexagon,1,0,,5,,,,,,,,,,,,,,repeat,number,numRpt,d,2.3647,vtsPrac,0,0,0,0,1,,,,,,,,,,,,,,,,,,,,,,,
297730,2022-12-06_13h04.07.220,vts_reward_expectancy_bt,2022.2.4,Win32,59.9268892,Chrome,1536,864,,,,,0,648,,,,,,,,,,,,,,,,,174,W,star,1,0,,5,,,,,,,,,,,,,,repeat,number,numRpt,f,0.6286,vtsPrac,1,0,1,0,1,,,,,,,,,,,,,,,,,,,,,,,
297730,2022-12-06_13h04.07.220,vts_reward_expectancy_bt,2022.2.4,Win32,59.9268892,Chrome,1536,864,,,,,0,648,,,,,,,,,,,,,,,,,167,S,hexagon,1,0,,5,,,,,,,,,,,,,,switch,letter,lettSwt,k,0.8281,vtsPrac,2,0,2,0,1,,,,,,,,,,,,,,,,,,,,,,,
297730,2022-12-06_13h04.07.220,vts_reward_expectancy_bt,2022.2.4,Win32,59.9268892,Chrome,1536,864,,,,,0,648,,,,,,,,,,,,,,,,,160,Y,star,1,0,,5,,,,,,,,,,,,,,repeat,letter,lettRpt,k,1.0626,vtsPrac,3,0,3,0,1,,,,,,,,,,,,,,,,,,,,,,,
297730,2022-12-06_13h04.07.220,vts_reward_expectancy_bt,2022.2.4,Win32,59.9268892,Chrome,1536,864,,,,,0,648,,,,,,,,,,,,,,,,,146,B,circle,1,0,,5,,,,,,,,,,,,,,switch,number,numSwt,d,2.5293,vtsPrac,4,0,4,0,1,,,,,,,,,,,,,,,,,,,,,,,
297730,2022-12-06_13h04.07.220,vts_reward_expectancy_bt,2022.2.4,Win32,59.9268892,Chrome,1536,864,,,,,0,648,,,,,,,,,,,,,,,,,174,W,triangle,1,0,,5,,,,,,,,,,,,,,repeat,number,numRpt,f,0.8657,vtsPrac,5,0,5,0,1,,,,,,,,,,,,,,,,,,,,,,,
297730,2022-12-06_13h04.07.220,vts_reward_expectancy_bt,2022.2.4,Win32,59.9268892,Chrome,1536,864,,,,,0,648,,,,,,,,,,,,,,,,,167,S,triangle,1,0,,5,,,,,,,,,,,,,,switch,letter,lettSwt,k,2.1943,vtsPrac,6,0,6,0,1,,,,,,,,,,,,,,,,,,,,,,,
297730,2022-12-06_13h04.07.220,vts_reward_expectancy_bt,2022.2.4,Win32,59.9268892,Chrome,1536,864,,,,,0,648,,,,,,,,,,,,,,,,,160,Y,hexagon,1,0,,5,,,,,,,,,,,,,,switch,number,numSwt,f,2.1506,vtsPrac,7,0,7,0,1,,,,,,,,,,,,,,,,,,,,,,,
297730,2022-12-06_13h04.07.220,vts_reward_expectancy_bt,2022.2.4,Win32,59.9268892,Chrome,1536,864,,,,,0,648,,,,,,,,,,,,,,,,,146,B,circle,1,0,,5,,,,,,,,,,,,,,switch,letter,lettSwt,j,1.2771,vtsPrac,8,0,8,0,1,,,,,,,,,,,,,,,,,,,,,,,
297730,2022-12-06_13h04.07.220,vts_reward_expectancy_bt,2022.2.4,Win32,59.9268892,Chrome,1536,864,,,,,0,648,,,,,,,,,,,,,,,,,167,W,star,1,0,,5,,,,,,,,,,,,,,switch,number,numSwt,f,0.6264,vtsPrac,9,0,9,0,1,,,,,,,,,,,,,,,,,,,,,,,
297730,2022-12-06_13h04.07.220,vts_reward_expectancy_bt,2022.2.4,Win32,59.9268892,Chrome,1536,864,,,,,0,648,,,,,,,,,,,,,,,,,181,S,triangle,1,0,,5,,,,,,,,,,,,,,repeat,number,numRpt,f,0.8331,vtsPrac,10,0,10,0,1,,,,,,,,,,,,,,,,,,,,,,,
297730,2022-12-06_13h04.07.220,vts_reward_expectancy_bt,2022.2.4,Win32,59.9268892,Chrome,1536,864,,,,,0,648,,,,,,,,,,,,,,,,,132,H,circle,0,0,,5,,,,,,,,,,,,,,switch,letter,NA,k,1.1452,vtsPrac,11,0,11,0,1,,,,,,,,,,,,,,,,,,,,,,,
297730,2022-12-06_13h04.07.220,vts_reward_expectancy_bt,2022.2.4,Win32,59.9268892,Chrome,1536,864,,,,,0,648,,,,,,,,,,,,,,,,,125,H,triangle,1,1,,5,,,,,,,,,,,,,,switch,number,numSwt,d,1.0479,vtsPrac,12,0,12,0,1,,,,,,,,,,,,,,,,,,,,,,,
297730,2022-12-06_13h04.07.220,vts_reward_expectancy_bt,2022.2.4,Win32,59.9268892,Chrome,1536,864,,,,,0,648,,,,,,,,,,,,,,,,,139,F,circle,1,0,,5,,,,,,,,,,,,,,switch,letter,lettSwt,j,2.3102,vtsPrac,13,0,13,0,1,,,,,,,,,,,,,,,,,,,,,,,
297730,2022-12-06_13h04.07.220,vts_reward_expectancy_bt,2022.2.4,Win32,59.9268892,Chrome,1536,864,,,,,0,648,,,,,,,,,,,,,,,,,146,U,triangle,1,0,,5,,,,,,,,,,,,,,repeat,letter,lettRpt,k,0.6961,vtsPrac,14,0,14,0,1,,,,,,,,,,,,,,,,,,,,,,,
297730,2022-12-06_13h04.07.220,vts_reward_expectancy_bt,2022.2.4,Win32,59.9268892,Chrome,1536,864,,,,,0,648,,,,,,,,,,,,,,,,,174,Y,circle,1,0,,5,,,,,,,,,,,,,,repeat,letter,lettRpt,k,0.5767,vtsPrac,15,0,15,0,1,,,,,,,,,,,,,,,,,,,,,,,
297730,2022-12-06_13h04.07.220,vts_reward_expectancy_bt,2022.2.4,Win32,59.9268892,Chrome,1536,864,,,,,0,648,,,,,,,,,,,,,,,,,174,F,circle,1,0,,5,,,,,,,,,,,,,,repeat,letter,lettRpt,j,1.0663,vtsPrac,16,0,16,0,1,,,,,,,,,,,,,,,,,,,,,,,
297730,2022-12-06_13h04.07.220,vts_reward_expectancy_bt,2022.2.4,Win32,59.9268892,Chrome,1536,864,,,,,0,648,,,,,,,,,,,,,,,,,132,U,triangle,1,0,,5,,,,,,,,,,,,,,repeat,letter,lettRpt,k,0.6618,vtsPrac,17,0,17,0,1,,,,,,,,,,,,,,,,,,,,,,,
297730,2022-12-06_13h04.07.220,vts_reward_expectancy_bt,2022.2.4,Win32,59.9268892,Chrome,1536,864,,,,,0,648,,,,,,,,,,,,,,,,,139,H,circle,-1,0,,5,,,,,,,,,,,,,,switch,no_choice,NA,,,vtsPrac,18,0,18,0,1,,,,,,,,,,,,,,,,,,,,,,,
297730,2022-12-06_13h04.07.220,vts_reward_expectancy_bt,2022.2.4,Win32,59.9268892,Chrome,1536,864,,,,,0,648,,,,,,,,,,,,,,,,,181,S,hexagon,1,0,,5,,,,,,,,,,,,,,switch,number,numSwt,f,0.8446,vtsPrac,19,0,19,0,1,,,,,,,,,,,,,,,,,,,,,,,
297730,2022-12-06_13h04.07.220,vts_reward_expectancy_bt,2022.2.4,Win32,59.9268892,Chrome,1536,864,,,,,0,648,,,,,,,,,,,,,,,,,146,S,hexagon,1,0,,5,,,,,,,,,,,,,,switch,letter,lettSwt,k,1.1569,vtsPrac,20,0,20,0,1,,,,,,,,,,,,,,,,,,,,,,,
297730,2022-12-06_13h04.07.220,vts_reward_expectancy_bt,2022.2.4,Win32,59.9268892,Chrome,1536,864,,,,,0,648,,,,,,,,,,,,,,,,,125,F,triangle,1,0,,5,,,,,,,,,,,,,,switch,number,numSwt,d,1.0928,vtsPrac,21,0,21,0,1,,,,,,,,,,,,,,,,,,,,,,,
297730,2022-12-06_13h04.07.220,vts_reward_expectancy_bt,2022.2.4,Win32,59.9268892,Chrome,1536,864,,,,,0,648,,,,,,,,,,,,,,,,,167,D,triangle,0,0,,5,,,,,,,,,,,,,,repeat,number,NA,d,2.0613,vtsPrac,22,0,22,0,1,,,,,,,,,,,,,,,,,,,,,,,
297730,2022-12-06_13h04.07.220,vts_reward_expectancy_bt,2022.2.4,Win32,59.9268892,Chrome,1536,864,,,,,0,648,,,,,,,,,,,,,,,,,174,H,star,1,1,,5,,,,,,,,,,,,,,switch,letter,lettSwt,j,1.3789,vtsPrac,23,0,23,0,1,,,,,,,,,,,,,,,,,,,,,,,
297730,2022-12-06_13h04.07.220,vts_reward_expectancy_bt,2022.2.4,Win32,59.9268892,Chrome,1536,864,,,,,0,648,,,,,,,,,,,,,,,,,167,D,circle,1,0,,5,,,,,,,,,,,,,,switch,number,numSwt,f,1.1305,vtsPrac,24,0,24,0,1,,,,,,,,,,,,,,,,,,,,,,,
297730,2022-12-06_13h04.07.220,vts_reward_expectancy_bt,2022.2.4,Win32,59.9268892,Chrome,1536,864,,,,,0,648,,,,,,,,,,,,,,,,,160,W,star,1,0,,5,,,,,,,,,,,,,,repeat,number,numRpt,f,0.9442,vtsPrac,25,0,25,0,1,,,,,,,,,,,,,,,,,,,,,,,
297730,2022-12-06_13h04.07.220,vts_reward_expectancy_bt,2022.2.4,Win32,59.9268892,Chrome,1536,864,,,,,0,648,,,,,,,,,,,,,,,,,174,U,triangle,1,0,,5,,,,,,,,,,,,,,repeat,number,numRpt,f,0.7961,vtsPrac,26,0,26,0,1,,,,,,,,,,,,,,,,,,,,,,,
297730,2022-12-06_13h04.07.220,vts_reward_expectancy_bt,2022.2.4,Win32,59.9268892,Chrome,1536,864,,,,,0,648,,,,,,,,,,,,,,,,,125,Y,star,1,0,,5,,,,,,,,,,,,,,switch,letter,lettSwt,k,0.6139,vtsPrac,27,0,27,0,1,,,,,,,,,,,,,,,,,,,,,,,
297730,2022-12-06_13h04.07.220,vts_reward_expectancy_bt,2022.2.4,Win32,59.9268892,Chrome,1536,864,,,,,0,648,,,,,,,,,,,,,,,,,181,B,circle,1,0,,5,,,,,,,,,,,,,,repeat,letter,lettRpt,j,0.8456,vtsPrac,28,0,28,0,1,,,,,,,,,,,,,,,,,,,,,,,
297730,2022-12-06_13h04.07.220,vts_reward_expectancy_bt,2022.2.4,Win32,59.9268892,Chrome,1536,864,,,,,0,648,,,,,,,,,,,,,,,,,146,W,triangle,1,0,,5,,,,,,,,,,,,,,repeat,letter,lettRpt,k,0.8641,vtsPrac,29,0,29,0,1,,,,,,,,,,,,,,,,,,,,,,,
297730,2022-12-06_13h04.07.220,vts_reward_expectancy_bt,2022.2.4,Win32,59.9268892,Chrome,1536,864,,,,,0,648,,,,,,,,,,,,,,,,,132,S,star,1,0,,5,,,,,,,,,,,,,,switch,number,numSwt,d,1.0804,vtsPrac,30,0,30,0,1,,,,,,,,,,,,,,,,,,,,,,,
297730,2022-12-06_13h04.07.220,vts_reward_expectancy_bt,2022.2.4,Win32,59.9268892,Chrome,1536,864,,,,,0,648,,,,,,,,,,,,,,,,,174,H,triangle,1,0,,5,,,,,,,,,,,,,,repeat,number,numRpt,f,0.8959,vtsPrac,31,0,31,0,1,,,,,,,,,,,,,,,,,,,,,,,
297730,2022-12-06_13h04.07.220,vts_reward_expectancy_bt,2022.2.4,Win32,59.9268892,Chrome,1536,864,,,,,,,,,,,,,,,,,,,,,,,,,,,,,,,,,,,,,,,,,,,,,,,,,,,,,,,,,,,,,,,,,,,,,,,,,,,,
297730,2022-12-06_13h04.07.220,vts_reward_expectancy_bt,2022.2.4,Win32,59.9268892,Chrome,1536,864,,,,,,,,,,,,,,,,,,,,,,,,,,,,,,,,,,,,,,,,,,,,,,,,,,,,,,,,,,,,,,,,,,,,,,,,,,,,
297730,2022-12-06_13h04.07.220,vts_reward_expectancy_bt,2022.2.4,Win32,59.9268892,Chrome,1536,864,,,,,0,648,,,,,,,,,,,,,,,,,139,H,triangle,1,0,,,,,,,,,,,,,,,,repeat,number,numRpt,d,1.2309,noRew,,,,,,0,0,0,0,0,1,,,,,,,,,,,,,,,,,
297730,2022-12-06_13h04.07.220,vts_reward_expectancy_bt,2022.2.4,Win32,59.9268892,Chrome,1536,864,,,,,0,648,,,,,,,,,,,,,,,,,146,D,circle,1,0,,,,,,,,,,,,,,,,repeat,number,numRpt,d,0.9784,noRew,,,,,,0,1,0,1,0,1,,,,,,,,,,,,,,,,,
297730,2022-12-06_13h04.07.220,vts_reward_expectancy_bt,2022.2.4,Win32,59.9268892,Chrome,1536,864,,,,,0,648,,,,,,,,,,,,,,,,,181,F,triangle,1,0,,,,,,,,,,,,,,,,switch,letter,lettSwt,j,1.1939,noRew,,,,,,0,2,0,2,0,1,,,,,,,,,,,,,,,,,
297730,2022-12-06_13h04.07.220,vts_reward_expectancy_bt,2022.2.4,Win32,59.9268892,Chrome,1536,864,,,,,0,648,,,,,,,,,,,,,,,,,132,B,circle,1,0,,,,,,,,,,,,,,,,repeat,letter,lettRpt,j,0.7108,noRew,,,,,,0,3,0,3,0,1,,,,,,,,,,,,,,,,,
297730,2022-12-06_13h04.07.220,vts_reward_expectancy_bt,2022.2.4,Win32,59.9268892,Chrome,1536,864,,,,,0,648,,,,,,,,,,,,,,,,,139,H,circle,1,0,,,,,,,,,,,,,,,,switch,number,numSwt,d,1.2961,noRew,,,,,,0,4,0,4,0,1,,,,,,,,,,,,,,,,,
297730,2022-12-06_13h04.07.220,vts_reward_expectancy_bt,2022.2.4,Win32,59.9268892,Chrome,1536,864,,,,,0,648,,,,,,,,,,,,,,,,,146,D,hexagon,1,0,,,,,,,,,,,,,,,,switch,letter,lettSwt,j,0.8443,noRew,,,,,,0,5,0,5,0,1,,,,,,,,,,,,,,,,,
297730,2022-12-06_13h04.07.220,vts_reward_expectancy_bt,2022.2.4,Win32,59.9268892,Chrome,1536,864,,,,,0,648,,,,,,,,,,,,,,,,,181,F,star,1,0,,,,,,,,,,,,,,,,repeat,letter,lettRpt,j,0.5474,noRew,,,,,,0,6,0,6,0,1,,,,,,,,,,,,,,,,,
297730,2022-12-06_13h04.07.220,vts_reward_expectancy_bt,2022.2.4,Win32,59.9268892,Chrome,1536,864,,,,,0,648,,,,,,,,,,,,,,,,,132,B,hexagon,1,0,,,,,,,,,,,,,,,,repeat,letter,lettRpt,j,0.596,noRew,,,,,,0,7,0,7,0,1,,,,,,,,,,,,,,,,,
297730,2022-12-06_13h04.07.220,vts_reward_expectancy_bt,2022.2.4,Win32,59.9268892,Chrome,1536,864,,,,,0,648,,,,,,,,,,,,,,,,,160,B,star,1,0,,,,,,,,,,,,,,,,switch,number,numSwt,f,1.2133,noRew,,,,,,0,8,0,8,0,1,,,,,,,,,,,,,,,,,
297730,2022-12-06_13h04.07.220,vts_reward_expectancy_bt,2022.2.4,Win32,59.9268892,Chrome,1536,864,,,,,0,648,,,,,,,,,,,,,,,,,139,H,triangle,1,0,,,,,,,,,,,,,,,,repeat,number,numRpt,d,1.0951,noRew,,,,,,0,9,0,9,0,1,,,,,,,,,,,,,,,,,
297730,2022-12-06_13h04.07.220,vts_reward_expectancy_bt,2022.2.4,Win32,59.9268892,Chrome,1536,864,,,,,0,648,,,,,,,,,,,,,,,,,174,Y,circle,1,0,,,,,,,,,,,,,,,,switch,letter,lettSwt,k,1.196,noRew,,,,,,0,10,0,10,0,1,,,,,,,,,,,,,,,,,
297730,2022-12-06_13h04.07.220,vts_reward_expectancy_bt,2022.2.4,Win32,59.9268892,Chrome,1536,864,,,,,0,648,,,,,,,,,,,,,,,,,181,U,triangle,1,0,,,,,,,,,,,,,,,,repeat,letter,lettRpt,k,0.6124,noRew,,,,,,0,11,0,11,0,1,,,,,,,,,,,,,,,,,
297730,2022-12-06_13h04.07.220,vts_reward_expectancy_bt,2022.2.4,Win32,59.9268892,Chrome,1536,864,,,,,0,648,,,,,,,,,,,,,,,,,160,U,triangle,1,0,,,,,,,,,,,,,,,,repeat,letter,lettRpt,k,0.6649,noRew,,,,,,0,12,0,12,0,1,,,,,,,,,,,,,,,,,
297730,2022-12-06_13h04.07.220,vts_reward_expectancy_bt,2022.2.4,Win32,59.9268892,Chrome,1536,864,,,,,0,648,,,,,,,,,,,,,,,,,125,S,circle,1,0,,,,,,,,,,,,,,,,repeat,letter,lettRpt,k,0.8617,noRew,,,,,,0,13,0,13,0,1,,,,,,,,,,,,,,,,,
297730,2022-12-06_13h04.07.220,vts_reward_expectancy_bt,2022.2.4,Win32,59.9268892,Chrome,1536,864,,,,,0,648,,,,,,,,,,,,,,,,,167,H,triangle,1,0,,,,,,,,,,,,,,,,repeat,letter,lettRpt,j,0.8794,noRew,,,,,,0,14,0,14,0,1,,,,,,,,,,,,,,,,,
297730,2022-12-06_13h04.07.220,vts_reward_expectancy_bt,2022.2.4,Win32,59.9268892,Chrome,1536,864,,,,,0,648,,,,,,,,,,,,,,,,,139,D,hexagon,1,0,,,,,,,,,,,,,,,,switch,number,numSwt,d,1.0132,noRew,,,,,,0,15,0,15,0,1,,,,,,,,,,,,,,,,,
297730,2022-12-06_13h04.07.220,vts_reward_expectancy_bt,2022.2.4,Win32,59.9268892,Chrome,1536,864,,,,,0,648,,,,,,,,,,,,,,,,,167,D,hexagon,1,0,,,,,,,,,,,,,,,,repeat,number,numRpt,f,0.7476,noRew,,,,,,0,16,0,16,0,1,,,,,,,,,,,,,,,,,
297730,2022-12-06_13h04.07.220,vts_reward_expectancy_bt,2022.2.4,Win32,59.9268892,Chrome,1536,864,,,,,0,648,,,,,,,,,,,,,,,,,132,Y,circle,1,0,,,,,,,,,,,,,,,,switch,letter,lettSwt,k,0.8324,noRew,,,,,,0,17,0,17,0,1,,,,,,,,,,,,,,,,,
297730,2022-12-06_13h04.07.220,vts_reward_expectancy_bt,2022.2.4,Win32,59.9268892,Chrome,1536,864,,,,,0,648,,,,,,,,,,,,,,,,,174,S,hexagon,1,0,,,,,,,,,,,,,,,,repeat,letter,lettRpt,k,1.1287,noRew,,,,,,0,18,0,18,0,1,,,,,,,,,,,,,,,,,
297730,2022-12-06_13h04.07.220,vts_reward_expectancy_bt,2022.2.4,Win32,59.9268892,Chrome,1536,864,,,,,0,648,,,,,,,,,,,,,,,,,125,B,star,1,0,,,,,,,,,,,,,,,,repeat,letter,lettRpt,j,1.0439,noRew,,,,,,0,19,0,19,0,1,,,,,,,,,,,,,,,,,
297730,2022-12-06_13h04.07.220,vts_reward_expectancy_bt,2022.2.4,Win32,59.9268892,Chrome,1536,864,,,,,0,648,,,,,,,,,,,,,,,,,174,S,star,1,0,,,,,,,,,,,,,,,,switch,number,numSwt,f,0.862,noRew,,,,,,0,20,0,20,0,1,,,,,,,,,,,,,,,,,
297730,2022-12-06_13h04.07.220,vts_reward_expectancy_bt,2022.2.4,Win32,59.9268892,Chrome,1536,864,,,,,0,648,,,,,,,,,,,,,,,,,181,F,circle,1,0,,,,,,,,,,,,,,,,repeat,number,numRpt,f,0.6455,noRew,,,,,,0,21,0,21,0,1,,,,,,,,,,,,,,,,,
297730,2022-12-06_13h04.07.220,vts_reward_expectancy_bt,2022.2.4,Win32,59.9268892,Chrome,1536,864,,,,,0,648,,,,,,,,,,,,,,,,,132,H,triangle,1,0,,,,,,,,,,,,,,,,repeat,number,numRpt,d,0.6982,noRew,,,,,,0,22,0,22,0,1,,,,,,,,,,,,,,,,,
297730,2022-12-06_13h04.07.220,vts_reward_expectancy_bt,2022.2.4,Win32,59.9268892,Chrome,1536,864,,,,,0,648,,,,,,,,,,,,,,,,,146,W,hexagon,1,0,,,,,,,,,,,,,,,,switch,letter,lettSwt,k,0.6821,noRew,,,,,,0,23,0,23,0,1,,,,,,,,,,,,,,,,,
297730,2022-12-06_13h04.07.220,vts_reward_expectancy_bt,2022.2.4,Win32,59.9268892,Chrome,1536,864,,,,,0,648,,,,,,,,,,,,,,,,,160,D,circle,1,0,,,,,,,,,,,,,,,,repeat,letter,lettRpt,j,0.8982,noRew,,,,,,0,24,0,24,0,1,,,,,,,,,,,,,,,,,
297730,2022-12-06_13h04.07.220,vts_reward_expectancy_bt,2022.2.4,Win32,59.9268892,Chrome,1536,864,,,,,0,648,,,,,,,,,,,,,,,,,174,Y,star,1,0,,,,,,,,,,,,,,,,switch,number,numSwt,f,0.8856,noRew,,,,,,0,25,0,25,0,1,,,,,,,,,,,,,,,,,
297730,2022-12-06_13h04.07.220,vts_reward_expectancy_bt,2022.2.4,Win32,59.9268892,Chrome,1536,864,,,,,0,648,,,,,,,,,,,,,,,,,125,F,circle,1,0,,,,,,,,,,,,,,,,repeat,number,numRpt,d,0.8442,noRew,,,,,,0,26,0,26,0,1,,,,,,,,,,,,,,,,,
297730,2022-12-06_13h04.07.220,vts_reward_expectancy_bt,2022.2.4,Win32,59.9268892,Chrome,1536,864,,,,,0,648,,,,,,,,,,,,,,,,,167,W,triangle,1,0,,,,,,,,,,,,,,,,repeat,number,numRpt,f,0.736,noRew,,,,,,0,27,0,27,0,1,,,,,,,,,,,,,,,,,
297730,2022-12-06_13h04.07.220,vts_reward_expectancy_bt,2022.2.4,Win32,59.9268892,Chrome,1536,864,,,,,0,648,,,,,,,,,,,,,,,,,160,H,circle,1,0,,,,,,,,,,,,,,,,switch,letter,lettSwt,j,1.6965,noRew,,,,,,0,28,0,28,0,1,,,,,,,,,,,,,,,,,
297730,2022-12-06_13h04.07.220,vts_reward_expectancy_bt,2022.2.4,Win32,59.9268892,Chrome,1536,864,,,,,0,648,,,,,,,,,,,,,,,,,125,U,star,1,0,,,,,,,,,,,,,,,,repeat,letter,lettRpt,k,1.1446,noRew,,,,,,0,29,0,29,0,1,,,,,,,,,,,,,,,,,
297730,2022-12-06_13h04.07.220,vts_reward_expectancy_bt,2022.2.4,Win32,59.9268892,Chrome,1536,864,,,,,0,648,,,,,,,,,,,,,,,,,139,D,star,1,0,,,,,,,,,,,,,,,,switch,number,numSwt,d,1.9796,noRew,,,,,,0,30,0,30,0,1,,,,,,,,,,,,,,,,,
297730,2022-12-06_13h04.07.220,vts_reward_expectancy_bt,2022.2.4,Win32,59.9268892,Chrome,1536,864,,,,,0,648,,,,,,,,,,,,,,,,,181,B,triangle,1,0,,,,,,,,,,,,,,,,repeat,number,numRpt,f,0.9279,noRew,,,,,,0,31,0,31,0,1,,,,,,,,,,,,,,,,,
297730,2022-12-06_13h04.07.220,vts_reward_expectancy_bt,2022.2.4,Win32,59.9268892,Chrome,1536,864,,,,,0,648,,,,,,,,,,,,,,,,,167,F,star,1,0,,,,,,,,,,,,,,,,switch,letter,lettSwt,j,1.084,noRew,,,,,,0,32,0,32,0,1,,,,,,,,,,,,,,,,,
297730,2022-12-06_13h04.07.220,vts_reward_expectancy_bt,2022.2.4,Win32,59.9268892,Chrome,1536,864,,,,,0,648,,,,,,,,,,,,,,,,,139,Y,triangle,1,0,,,,,,,,,,,,,,,,repeat,letter,lettRpt,k,0.7625,noRew,,,,,,0,33,0,33,0,1,,,,,,,,,,,,,,,,,
297730,2022-12-06_13h04.07.220,vts_reward_expectancy_bt,2022.2.4,Win32,59.9268892,Chrome,1536,864,,,,,0,648,,,,,,,,,,,,,,,,,132,W,circle,1,0,,,,,,,,,,,,,,,,switch,number,numSwt,d,0.9125,noRew,,,,,,0,34,0,34,0,1,,,,,,,,,,,,,,,,,
297730,2022-12-06_13h04.07.220,vts_reward_expectancy_bt,2022.2.4,Win32,59.9268892,Chrome,1536,864,,,,,0,648,,,,,,,,,,,,,,,,,160,B,star,1,0,,,,,,,,,,,,,,,,repeat,number,numRpt,f,1.6113,noRew,,,,,,0,35,0,35,0,1,,,,,,,,,,,,,,,,,
297730,2022-12-06_13h04.07.220,vts_reward_expectancy_bt,2022.2.4,Win32,59.9268892,Chrome,1536,864,,,,,0,648,,,,,,,,,,,,,,,,,160,U,triangle,1,0,,,,,,,,,,,,,,,,switch,letter,lettSwt,k,1.8484,noRew,,,,,,0,36,0,36,0,1,,,,,,,,,,,,,,,,,
297730,2022-12-06_13h04.07.220,vts_reward_expectancy_bt,2022.2.4,Win32,59.9268892,Chrome,1536,864,,,,,0,648,,,,,,,,,,,,,,,,,181,W,hexagon,1,0,,,,,,,,,,,,,,,,repeat,letter,lettRpt,k,0.7798,noRew,,,,,,0,37,0,37,0,1,,,,,,,,,,,,,,,,,
297730,2022-12-06_13h04.07.220,vts_reward_expectancy_bt,2022.2.4,Win32,59.9268892,Chrome,1536,864,,,,,0,648,,,,,,,,,,,,,,,,,174,F,star,1,0,,,,,,,,,,,,,,,,repeat,letter,lettRpt,j,0.9119,noRew,,,,,,0,38,0,38,0,1,,,,,,,,,,,,,,,,,
297730,2022-12-06_13h04.07.220,vts_reward_expectancy_bt,2022.2.4,Win32,59.9268892,Chrome,1536,864,,,,,0,648,,,,,,,,,,,,,,,,,125,D,hexagon,1,0,,,,,,,,,,,,,,,,repeat,letter,lettRpt,j,2.0276,noRew,,,,,,0,39,0,39,0,1,,,,,,,,,,,,,,,,,
297730,2022-12-06_13h04.07.220,vts_reward_expectancy_bt,2022.2.4,Win32,59.9268892,Chrome,1536,864,,,,,0,648,,,,,,,,,,,,,,,,,174,B,hexagon,1,0,,,,,,,,,,,,,,,,switch,number,numSwt,f,1.1435,noRew,,,,,,0,40,0,40,0,1,,,,,,,,,,,,,,,,,
297730,2022-12-06_13h04.07.220,vts_reward_expectancy_bt,2022.2.4,Win32,59.9268892,Chrome,1536,864,,,,,0,648,,,,,,,,,,,,,,,,,125,F,star,1,0,,,,,,,,,,,,,,,,switch,letter,lettSwt,j,1.3298,noRew,,,,,,0,41,0,41,0,1,,,,,,,,,,,,,,,,,
297730,2022-12-06_13h04.07.220,vts_reward_expectancy_bt,2022.2.4,Win32,59.9268892,Chrome,1536,864,,,,,0,648,,,,,,,,,,,,,,,,,139,Y,star,1,0,,,,,,,,,,,,,,,,repeat,letter,lettRpt,k,0.7775,noRew,,,,,,0,42,0,42,0,1,,,,,,,,,,,,,,,,,
297730,2022-12-06_13h04.07.220,vts_reward_expectancy_bt,2022.2.4,Win32,59.9268892,Chrome,1536,864,,,,,0,648,,,,,,,,,,,,,,,,,146,D,hexagon,1,0,,,,,,,,,,,,,,,,switch,number,numSwt,d,1.7449,noRew,,,,,,0,43,0,43,0,1,,,,,,,,,,,,,,,,,
297730,2022-12-06_13h04.07.220,vts_reward_expectancy_bt,2022.2.4,Win32,59.9268892,Chrome,1536,864,,,,,0,648,,,,,,,,,,,,,,,,,160,U,star,1,0,,,,,,,,,,,,,,,,switch,letter,lettSwt,k,0.8629,noRew,,,,,,0,44,0,44,0,1,,,,,,,,,,,,,,,,,
297730,2022-12-06_13h04.07.220,vts_reward_expectancy_bt,2022.2.4,Win32,59.9268892,Chrome,1536,864,,,,,0,648,,,,,,,,,,,,,,,,,139,F,hexagon,1,0,,,,,,,,,,,,,,,,switch,number,numSwt,d,0.8281,noRew,,,,,,0,45,0,45,0,1,,,,,,,,,,,,,,,,,
297730,2022-12-06_13h04.07.220,vts_reward_expectancy_bt,2022.2.4,Win32,59.9268892,Chrome,1536,864,,,,,0,648,,,,,,,,,,,,,,,,,146,B,star,1,0,,,,,,,,,,,,,,,,switch,letter,lettSwt,j,0.8783,noRew,,,,,,0,46,0,46,0,1,,,,,,,,,,,,,,,,,
297730,2022-12-06_13h04.07.220,vts_reward_expectancy_bt,2022.2.4,Win32,59.9268892,Chrome,1536,864,,,,,0,648,,,,,,,,,,,,,,,,,174,Y,hexagon,1,0,,,,,,,,,,,,,,,,switch,number,numSwt,f,1.145,noRew,,,,,,0,47,0,47,0,1,,,,,,,,,,,,,,,,,
297730,2022-12-06_13h04.07.220,vts_reward_expectancy_bt,2022.2.4,Win32,59.9268892,Chrome,1536,864,,,,,0,648,,,,,,,,,,,,,,,,,132,Y,hexagon,1,0,,,,,,,,,,,,,,,,repeat,number,numRpt,d,0.7136,noRew,,,,,,0,48,0,48,0,1,,,,,,,,,,,,,,,,,
297730,2022-12-06_13h04.07.220,vts_reward_expectancy_bt,2022.2.4,Win32,59.9268892,Chrome,1536,864,,,,,0,648,,,,,,,,,,,,,,,,,146,D,star,1,0,,,,,,,,,,,,,,,,repeat,number,numRpt,d,0.9305,noRew,,,,,,0,49,0,49,0,1,,,,,,,,,,,,,,,,,
297730,2022-12-06_13h04.07.220,vts_reward_expectancy_bt,2022.2.4,Win32,59.9268892,Chrome,1536,864,,,,,0,648,,,,,,,,,,,,,,,,,160,W,circle,-1,0,,,,,,,,,,,,,,,,switch,no_choice,NA,,,noRew,,,,,,0,50,0,50,0,1,,,,,,,,,,,,,,,,,
297730,2022-12-06_13h04.07.220,vts_reward_expectancy_bt,2022.2.4,Win32,59.9268892,Chrome,1536,864,,,,,0,648,,,,,,,,,,,,,,,,,174,H,triangle,1,0,,,,,,,,,,,,,,,,switch,number,numSwt,f,0.8452,noRew,,,,,,0,51,0,51,0,1,,,,,,,,,,,,,,,,,
297730,2022-12-06_13h04.07.220,vts_reward_expectancy_bt,2022.2.4,Win32,59.9268892,Chrome,1536,864,,,,,0,648,,,,,,,,,,,,,,,,,174,S,circle,1,0,,,,,,,,,,,,,,,,repeat,number,numRpt,f,0.7039,noRew,,,,,,0,52,0,52,0,1,,,,,,,,,,,,,,,,,
297730,2022-12-06_13h04.07.220,vts_reward_expectancy_bt,2022.2.4,Win32,59.9268892,Chrome,1536,864,,,,,0,648,,,,,,,,,,,,,,,,,167,Y,hexagon,1,0,,,,,,,,,,,,,,,,repeat,number,numRpt,f,0.7612,noRew,,,,,,0,53,0,53,0,1,,,,,,,,,,,,,,,,,
297730,2022-12-06_13h04.07.220,vts_reward_expectancy_bt,2022.2.4,Win32,59.9268892,Chrome,1536,864,,,,,0,648,,,,,,,,,,,,,,,,,139,F,star,1,0,,,,,,,,,,,,,,,,switch,letter,lettSwt,j,2.0022,noRew,,,,,,0,54,0,54,0,1,,,,,,,,,,,,,,,,,
297730,2022-12-06_13h04.07.220,vts_reward_expectancy_bt,2022.2.4,Win32,59.9268892,Chrome,1536,864,,,,,0,648,,,,,,,,,,,,,,,,,132,W,circle,1,0,,,,,,,,,,,,,,,,repeat,letter,lettRpt,k,0.6583,noRew,,,,,,0,55,0,55,0,1,,,,,,,,,,,,,,,,,
297730,2022-12-06_13h04.07.220,vts_reward_expectancy_bt,2022.2.4,Win32,59.9268892,Chrome,1536,864,,,,,0,648,,,,,,,,,,,,,,,,,125,W,triangle,1,0,,,,,,,,,,,,,,,,repeat,letter,lettRpt,k,0.8862,noRew,,,,,,0,56,0,56,0,1,,,,,,,,,,,,,,,,,
297730,2022-12-06_13h04.07.220,vts_reward_expectancy_bt,2022.2.4,Win32,59.9268892,Chrome,1536,864,,,,,0,648,,,,,,,,,,,,,,,,,146,S,star,1,0,,,,,,,,,,,,,,,,repeat,letter,lettRpt,k,0.8899,noRew,,,,,,0,57,0,57,0,1,,,,,,,,,,,,,,,,,
297730,2022-12-06_13h04.07.220,vts_reward_expectancy_bt,2022.2.4,Win32,59.9268892,Chrome,1536,864,,,,,0,648,,,,,,,,,,,,,,,,,139,H,circle,1,0,,,,,,,,,,,,,,,,repeat,letter,lettRpt,j,1.9639,noRew,,,,,,0,58,0,58,0,1,,,,,,,,,,,,,,,,,
297730,2022-12-06_13h04.07.220,vts_reward_expectancy_bt,2022.2.4,Win32,59.9268892,Chrome,1536,864,,,,,0,648,,,,,,,,,,,,,,,,,160,U,hexagon,1,0,,,,,,,,,,,,,,,,switch,number,numSwt,f,1.008,noRew,,,,,,0,59,0,59,0,1,,,,,,,,,,,,,,,,,
297730,2022-12-06_13h04.07.220,vts_reward_expectancy_bt,2022.2.4,Win32,59.9268892,Chrome,1536,864,,,,,0,648,,,,,,,,,,,,,,,,,174,Y,triangle,1,0,,,,,,,,,,,,,,,,repeat,number,numRpt,f,0.8716,noRew,,,,,,0,60,0,60,0,1,,,,,,,,,,,,,,,,,
297730,2022-12-06_13h04.07.220,vts_reward_expectancy_bt,2022.2.4,Win32,59.9268892,Chrome,1536,864,,,,,0,648,,,,,,,,,,,,,,,,,181,U,hexagon,1,0,,,,,,,,,,,,,,,,repeat,number,numRpt,f,0.8116,noRew,,,,,,0,61,0,61,0,1,,,,,,,,,,,,,,,,,
297730,2022-12-06_13h04.07.220,vts_reward_expectancy_bt,2022.2.4,Win32,59.9268892,Chrome,1536,864,,,,,0,648,,,,,,,,,,,,,,,,,132,B,circle,1,0,,,,,,,,,,,,,,,,repeat,number,numRpt,d,1.2793,noRew,,,,,,0,62,0,62,0,1,,,,,,,,,,,,,,,,,
297730,2022-12-06_13h04.07.220,vts_reward_expectancy_bt,2022.2.4,Win32,59.9268892,Chrome,1536,864,,,,,0,648,,,,,,,,,,,,,,,,,167,H,triangle,0,0,,,,,,,,,,,,,,,,switch,letter,NA,k,1.1623,noRew,,,,,,0,63,0,63,0,1,,,,,,,,,,,,,,,,,
297730,2022-12-06_13h04.07.220,vts_reward_expectancy_bt,2022.2.4,Win32,59.9268892,Chrome,1536,864,,,,,,,,,,,,,,,,,,,,,,,,,,,,,,,,,,,,,,,,,,,,,,,,,,,,,,,,,,,,,,,,,,,,,,,,,,,,
297730,2022-12-06_13h04.07.220,vts_reward_expectancy_bt,2022.2.4,Win32,59.9268892,Chrome,1536,864,,,,,10,658,,,,,,,,,,,,,,,,,181,H,hexagon,1,1,,,,,,,,,,,,,,,,switch,number,numSwt,f,1.2853,Lo,,,,,,0,,,,,,space,18.4511,low,0,0,0,0,1,,,,,,,,,
297730,2022-12-06_13h04.07.220,vts_reward_expectancy_bt,2022.2.4,Win32,59.9268892,Chrome,1536,864,,,,,10,668,,,,,,,,,,,,,,,,,174,Y,star,1,0,,,,,,,,,,,,,,,,switch,letter,lettSwt,k,1.0583,Lo,,,,,,0,,,,,,,,low,1,0,1,0,1,,,,,,,,,
297730,2022-12-06_13h04.07.220,vts_reward_expectancy_bt,2022.2.4,Win32,59.9268892,Chrome,1536,864,,,,,0,668,,,,,,,,,,,,,,,,,160,F,triangle,1,0,,,,,,,,,,,,,,,,repeat,letter,lettRpt,j,0.9456,Hi,,,,,,0,,,,,,,,low,2,0,2,0,1,,,,,,,,,
297730,2022-12-06_13h04.07.220,vts_reward_expectancy_bt,2022.2.4,Win32,59.9268892,Chrome,1536,864,,,,,10,678,,,,,,,,,,,,,,,,,139,S,circle,1,0,,,,,,,,,,,,,,,,switch,number,numSwt,d,0.8088,Hi,,,,,,0,,,,,,,,low,3,0,3,0,1,,,,,,,,,
297730,2022-12-06_13h04.07.220,vts_reward_expectancy_bt,2022.2.4,Win32,59.9268892,Chrome,1536,864,,,,,0,678,,,,,,,,,,,,,,,,,146,D,hexagon,0,0,,,,,,,,,,,,,,,,switch,letter,NA,k,0.5737,Hi,,,,,,0,,,,,,,,low,4,0,4,0,1,,,,,,,,,
297730,2022-12-06_13h04.07.220,vts_reward_expectancy_bt,2022.2.4,Win32,59.9268892,Chrome,1536,864,,,,,1,679,,,,,,,,,,,,,,,,,167,B,star,1,1,,,,,,,,,,,,,,,,repeat,letter,lettRpt,j,0.5218,Lo,,,,,,0,,,,,,,,low,5,0,5,0,1,,,,,,,,,
297730,2022-12-06_13h04.07.220,vts_reward_expectancy_bt,2022.2.4,Win32,59.9268892,Chrome,1536,864,,,,,0,679,,,,,,,,,,,,,,,,,125,W,triangle,1,0,,,,,,,,,,,,,,,,switch,number,numSwt,d,1.068,Hi,,,,,,0,,,,,,,,low,6,0,6,0,1,,,,,,,,,
297730,2022-12-06_13h04.07.220,vts_reward_expectancy_bt,2022.2.4,Win32,59.9268892,Chrome,1536,864,,,,,0,679,,,,,,,,,,,,,,,,,132,U,circle,0,0,,,,,,,,,,,,,,,,switch,letter,NA,j,0.9904,Hi,,,,,,0,,,,,,,,low,7,0,7,0,1,,,,,,,,,
297730,2022-12-06_13h04.07.220,vts_reward_expectancy_bt,2022.2.4,Win32,59.9268892,Chrome,1536,864,,,,,10,689,,,,,,,,,,,,,,,,,181,H,hexagon,1,1,,,,,,,,,,,,,,,,repeat,letter,lettRpt,j,1.5815,Lo,,,,,,0,,,,,,,,low,8,0,8,0,1,,,,,,,,,
297730,2022-12-06_13h04.07.220,vts_reward_expectancy_bt,2022.2.4,Win32,59.9268892,Chrome,1536,864,,,,,10,699,,,,,,,,,,,,,,,,,174,Y,circle,1,0,,,,,,,,,,,,,,,,repeat,letter,lettRpt,k,0.7087,Hi,,,,,,0,,,,,,,,low,9,0,9,0,1,,,,,,,,,
297730,2022-12-06_13h04.07.220,vts_reward_expectancy_bt,2022.2.4,Win32,59.9268892,Chrome,1536,864,,,,,1,700,,,,,,,,,,,,,,,,,160,F,star,1,0,,,,,,,,,,,,,,,,switch,number,numSwt,f,0.9163,Lo,,,,,,0,,,,,,,,low,10,0,10,0,1,,,,,,,,,
297730,2022-12-06_13h04.07.220,vts_reward_expectancy_bt,2022.2.4,Win32,59.9268892,Chrome,1536,864,,,,,0,700,,,,,,,,,,,,,,,,,139,S,triangle,1,0,,,,,,,,,,,,,,,,repeat,number,numRpt,d,0.9674,Hi,,,,,,0,,,,,,,,low,11,0,11,0,1,,,,,,,,,
297730,2022-12-06_13h04.07.220,vts_reward_expectancy_bt,2022.2.4,Win32,59.9268892,Chrome,1536,864,,,,,10,710,,,,,,,,,,,,,,,,,146,D,star,1,0,,,,,,,,,,,,,,,,repeat,number,numRpt,d,1.1042,Lo,,,,,,0,,,,,,,,low,12,0,12,0,1,,,,,,,,,
297730,2022-12-06_13h04.07.220,vts_reward_expectancy_bt,2022.2.4,Win32,59.9268892,Chrome,1536,864,,,,,0,710,,,,,,,,,,,,,,,,,167,B,triangle,1,0,,,,,,,,,,,,,,,,repeat,number,numRpt,f,1.3132,Hi,,,,,,0,,,,,,,,low,13,0,13,0,1,,,,,,,,,
297730,2022-12-06_13h04.07.220,vts_reward_expectancy_bt,2022.2.4,Win32,59.9268892,Chrome,1536,864,,,,,0,710,,,,,,,,,,,,,,,,,125,W,circle,1,0,,,,,,,,,,,,,,,,repeat,number,numRpt,d,0.764,Hi,,,,,,0,,,,,,,,low,14,0,14,0,1,,,,,,,,,
297730,2022-12-06_13h04.07.220,vts_reward_expectancy_bt,2022.2.4,Win32,59.9268892,Chrome,1536,864,,,,,10,720,,,,,,,,,,,,,,,,,132,U,hexagon,1,0,,,,,,,,,,,,,,,,repeat,number,numRpt,d,1.2131,Lo,,,,,,0,,,,,,,,low,15,0,15,0,1,,,,,,,,,
297730,2022-12-06_13h04.07.220,vts_reward_expectancy_bt,2022.2.4,Win32,59.9268892,Chrome,1536,864,,,,,1,721,,,,,,,,,,,,,,,,,181,F,hexagon,1,0,,,,,,,,,,,,,,,,repeat,number,numRpt,f,0.9316,Lo,,,,,,0,,,,,,,,low,16,0,16,0,1,,,,,,,,,
297730,2022-12-06_13h04.07.220,vts_reward_expectancy_bt,2022.2.4,Win32,59.9268892,Chrome,1536,864,,,,,10,731,,,,,,,,,,,,,,,,,146,S,circle,1,0,,,,,,,,,,,,,,,,switch,letter,lettSwt,k,0.1923,Hi,,,,,,0,,,,,,,,low,17,0,17,0,1,,,,,,,,,
297730,2022-12-06_13h04.07.220,vts_reward_expectancy_bt,2022.2.4,Win32,59.9268892,Chrome,1536,864,,,,,10,741,,,,,,,,,,,,,,,,,139,B,triangle,1,0,,,,,,,,,,,,,,,,repeat,letter,lettRpt,j,0.6142,Hi,,,,,,0,,,,,,,,low,18,0,18,0,1,,,,,,,,,
297730,2022-12-06_13h04.07.220,vts_reward_expectancy_bt,2022.2.4,Win32,59.9268892,Chrome,1536,864,,,,,1,742,,,,,,,,,,,,,,,,,174,D,star,1,0,,,,,,,,,,,,,,,,repeat,letter,lettRpt,j,0.7261,Lo,,,,,,0,,,,,,,,low,19,0,19,0,1,,,,,,,,,
297730,2022-12-06_13h04.07.220,vts_reward_expectancy_bt,2022.2.4,Win32,59.9268892,Chrome,1536,864,,,,,1,743,,,,,,,,,,,,,,,,,160,Y,triangle,1,0,,,,,,,,,,,,,,,,repeat,letter,lettRpt,k,0.6216,Hi,,,,,,0,,,,,,,,low,20,0,20,0,1,,,,,,,,,
297730,2022-12-06_13h04.07.220,vts_reward_expectancy_bt,2022.2.4,Win32,59.9268892,Chrome,1536,864,,,,,1,744,,,,,,,,,,,,,,,,,125,U,hexagon,1,0,,,,,,,,,,,,,,,,repeat,letter,lettRpt,k,1.6875,Lo,,,,,,0,,,,,,,,low,21,0,21,0,1,,,,,,,,,
297730,2022-12-06_13h04.07.220,vts_reward_expectancy_bt,2022.2.4,Win32,59.9268892,Chrome,1536,864,,,,,0,744,,,,,,,,,,,,,,,,,167,H,circle,1,0,,,,,,,,,,,,,,,,repeat,letter,lettRpt,j,1.301,Hi,,,,,,0,,,,,,,,low,22,0,22,0,1,,,,,,,,,
297730,2022-12-06_13h04.07.220,vts_reward_expectancy_bt,2022.2.4,Win32,59.9268892,Chrome,1536,864,,,,,10,754,,,,,,,,,,,,,,,,,132,W,star,1,0,,,,,,,,,,,,,,,,switch,number,numSwt,d,0.867,Lo,,,,,,0,,,,,,,,low,23,0,23,0,1,,,,,,,,,
297730,2022-12-06_13h04.07.220,vts_reward_expectancy_bt,2022.2.4,Win32,59.9268892,Chrome,1536,864,,,,,10,764,,,,,,,,,,,,,,,,,125,B,star,1,0,,,,,,,,,,,,,,,,switch,letter,lettSwt,j,1.085,Lo,,,,,,0,,,,,,,,low,24,0,24,0,1,,,,,,,,,
297730,2022-12-06_13h04.07.220,vts_reward_expectancy_bt,2022.2.4,Win32,59.9268892,Chrome,1536,864,,,,,10,774,,,,,,,,,,,,,,,,,181,H,hexagon,1,0,,,,,,,,,,,,,,,,repeat,letter,lettRpt,j,1.4348,Lo,,,,,,0,,,,,,,,low,25,0,25,0,1,,,,,,,,,
297730,2022-12-06_13h04.07.220,vts_reward_expectancy_bt,2022.2.4,Win32,59.9268892,Chrome,1536,864,,,,,0,774,,,,,,,,,,,,,,,,,139,U,circle,1,0,,,,,,,,,,,,,,,,repeat,letter,lettRpt,k,1.1015,Hi,,,,,,0,,,,,,,,low,26,0,26,0,1,,,,,,,,,
297730,2022-12-06_13h04.07.220,vts_reward_expectancy_bt,2022.2.4,Win32,59.9268892,Chrome,1536,864,,,,,0,774,,,,,,,,,,,,,,,,,146,D,triangle,1,0,,,,,,,,,,,,,,,,repeat,letter,lettRpt,j,0.8146,Hi,,,,,,0,,,,,,,,low,27,0,27,0,1,,,,,,,,,
297730,2022-12-06_13h04.07.220,vts_reward_expectancy_bt,2022.2.4,Win32,59.9268892,Chrome,1536,864,,,,,1,775,,,,,,,,,,,,,,,,,167,F,triangle,1,0,,,,,,,,,,,,,,,,switch,number,numSwt,f,0.5799,Hi,,,,,,0,,,,,,,,low,28,0,28,0,1,,,,,,,,,
297730,2022-12-06_13h04.07.220,vts_reward_expectancy_bt,2022.2.4,Win32,59.9268892,Chrome,1536,864,,,,,1,776,,,,,,,,,,,,,,,,,132,W,circle,1,0,,,,,,,,,,,,,,,,switch,letter,lettSwt,k,0.6544,Hi,,,,,,0,,,,,,,,low,29,0,29,0,1,,,,,,,,,
297730,2022-12-06_13h04.07.220,vts_reward_expectancy_bt,2022.2.4,Win32,59.9268892,Chrome,1536,864,,,,,10,786,,,,,,,,,,,,,,,,,160,Y,star,1,0,,,,,,,,,,,,,,,,repeat,letter,lettRpt,k,0.7374,Lo,,,,,,0,,,,,,,,low,30,0,30,0,1,,,,,,,,,
297730,2022-12-06_13h04.07.220,vts_reward_expectancy_bt,2022.2.4,Win32,59.9268892,Chrome,1536,864,,,,,10,796,,,,,,,,,,,,,,,,,174,S,hexagon,1,0,,,,,,,,,,,,,,,,repeat,letter,lettRpt,k,0.7508,Lo,,,,,,0,,,,,,,,low,31,0,31,0,1,,,,,,,,,
297730,2022-12-06_13h04.07.220,vts_reward_expectancy_bt,2022.2.4,Win32,59.9268892,Chrome,1536,864,,,,,10,806,,,,,,,,,,,,,,,,,146,B,triangle,1,0,,,,,,,,,,,,,,,,switch,number,numSwt,d,0.5287,Hi,,,,,,1,,,,,,space,1.8369,low,0,0,0,0,1,,,,,,,,,
297730,2022-12-06_13h04.07.220,vts_reward_expectancy_bt,2022.2.4,Win32,59.9268892,Chrome,1536,864,,,,,1,807,,,,,,,,,,,,,,,,,139,H,hexagon,1,0,,,,,,,,,,,,,,,,switch,letter,lettSwt,j,1.0022,Lo,,,,,,1,,,,,,,,low,1,0,1,0,1,,,,,,,,,
297730,2022-12-06_13h04.07.220,vts_reward_expectancy_bt,2022.2.4,Win32,59.9268892,Chrome,1536,864,,,,,10,817,,,,,,,,,,,,,,,,,174,W,circle,1,0,,,,,,,,,,,,,,,,switch,number,numSwt,f,0.5389,Hi,,,,,,1,,,,,,,,low,2,0,2,0,1,,,,,,,,,
297730,2022-12-06_13h04.07.220,vts_reward_expectancy_bt,2022.2.4,Win32,59.9268892,Chrome,1536,864,,,,,1,818,,,,,,,,,,,,,,,,,132,D,star,1,0,,,,,,,,,,,,,,,,switch,letter,lettSwt,j,0.4921,Lo,,,,,,1,,,,,,,,low,3,0,3,0,1,,,,,,,,,
297730,2022-12-06_13h04.07.220,vts_reward_expectancy_bt,2022.2.4,Win32,59.9268892,Chrome,1536,864,,,,,0,818,,,,,,,,,,,,,,,,,167,U,triangle,1,0,,,,,,,,,,,,,,,,repeat,letter,lettRpt,k,0.7399,Hi,,,,,,1,,,,,,,,low,4,0,4,0,1,,,,,,,,,
297730,2022-12-06_13h04.07.220,vts_reward_expectancy_bt,2022.2.4,Win32,59.9268892,Chrome,1536,864,,,,,1,819,,,,,,,,,,,,,,,,,181,S,hexagon,1,0,,,,,,,,,,,,,,,,repeat,letter,lettRpt,k,0.7679,Lo,,,,,,1,,,,,,,,low,5,0,5,0,1,,,,,,,,,
297730,2022-12-06_13h04.07.220,vts_reward_expectancy_bt,2022.2.4,Win32,59.9268892,Chrome,1536,864,,,,,10,829,,,,,,,,,,,,,,,,,160,Y,circle,1,0,,,,,,,,,,,,,,,,repeat,letter,lettRpt,k,0.7178,Hi,,,,,,1,,,,,,,,low,6,0,6,0,1,,,,,,,,,
297730,2022-12-06_13h04.07.220,vts_reward_expectancy_bt,2022.2.4,Win32,59.9268892,Chrome,1536,864,,,,,1,830,,,,,,,,,,,,,,,,,125,F,star,1,0,,,,,,,,,,,,,,,,switch,number,numSwt,d,0.5161,Lo,,,,,,1,,,,,,,,low,7,0,7,0,1,,,,,,,,,
297730,2022-12-06_13h04.07.220,vts_reward_expectancy_bt,2022.2.4,Win32,59.9268892,Chrome,1536,864,,,,,0,830,,,,,,,,,,,,,,,,,146,B,circle,1,0,,,,,,,,,,,,,,,,repeat,number,numRpt,d,1.0598,Hi,,,,,,1,,,,,,,,low,8,0,8,0,1,,,,,,,,,
297730,2022-12-06_13h04.07.220,vts_reward_expectancy_bt,2022.2.4,Win32,59.9268892,Chrome,1536,864,,,,,1,831,,,,,,,,,,,,,,,,,139,H,triangle,1,0,,,,,,,,,,,,,,,,repeat,number,numRpt,d,0.6041,Hi,,,,,,1,,,,,,,,low,9,0,9,0,1,,,,,,,,,
297730,2022-12-06_13h04.07.220,vts_reward_expectancy_bt,2022.2.4,Win32,59.9268892,Chrome,1536,864,,,,,1,832,,,,,,,,,,,,,,,,,174,W,hexagon,1,0,,,,,,,,,,,,,,,,repeat,number,numRpt,f,0.7532,Lo,,,,,,1,,,,,,,,low,10,0,10,0,1,,,,,,,,,
297730,2022-12-06_13h04.07.220,vts_reward_expectancy_bt,2022.2.4,Win32,59.9268892,Chrome,1536,864,,,,,1,833,,,,,,,,,,,,,,,,,132,D,star,1,0,,,,,,,,,,,,,,,,repeat,number,numRpt,d,0.8683,Lo,,,,,,1,,,,,,,,low,11,0,11,0,1,,,,,,,,,
297730,2022-12-06_13h04.07.220,vts_reward_expectancy_bt,2022.2.4,Win32,59.9268892,Chrome,1536,864,,,,,10,843,,,,,,,,,,,,,,,,,167,U,circle,1,0,,,,,,,,,,,,,,,,repeat,number,numRpt,f,0.614,Hi,,,,,,1,,,,,,,,low,12,0,12,0,1,,,,,,,,,
297730,2022-12-06_13h04.07.220,vts_reward_expectancy_bt,2022.2.4,Win32,59.9268892,Chrome,1536,864,,,,,10,853,,,,,,,,,,,,,,,,,181,S,triangle,1,0,,,,,,,,,,,,,,,,repeat,number,numRpt,f,0.7138,Hi,,,,,,1,,,,,,,,low,13,0,13,0,1,,,,,,,,,
297730,2022-12-06_13h04.07.220,vts_reward_expectancy_bt,2022.2.4,Win32,59.9268892,Chrome,1536,864,,,,,1,854,,,,,,,,,,,,,,,,,160,Y,hexagon,1,0,,,,,,,,,,,,,,,,repeat,number,numRpt,f,0.796,Lo,,,,,,1,,,,,,,,low,14,0,14,0,1,,,,,,,,,
297730,2022-12-06_13h04.07.220,vts_reward_expectancy_bt,2022.2.4,Win32,59.9268892,Chrome,1536,864,,,,,10,864,,,,,,,,,,,,,,,,,125,F,star,1,0,,,,,,,,,,,,,,,,repeat,number,numRpt,d,0.7792,Lo,,,,,,1,,,,,,,,low,15,0,15,0,1,,,,,,,,,
297730,2022-12-06_13h04.07.220,vts_reward_expectancy_bt,2022.2.4,Win32,59.9268892,Chrome,1536,864,,,,,10,874,,,,,,,,,,,,,,,,,146,D,star,1,0,,,,,,,,,,,,,,,,repeat,number,numRpt,d,1.0623,Lo,,,,,,1,,,,,,,,low,16,0,16,0,1,,,,,,,,,
297730,2022-12-06_13h04.07.220,vts_reward_expectancy_bt,2022.2.4,Win32,59.9268892,Chrome,1536,864,,,,,1,875,,,,,,,,,,,,,,,,,174,B,hexagon,1,0,,,,,,,,,,,,,,,,repeat,number,numRpt,f,1.3452,Lo,,,,,,1,,,,,,,,low,17,0,17,0,1,,,,,,,,,
297730,2022-12-06_13h04.07.220,vts_reward_expectancy_bt,2022.2.4,Win32,59.9268892,Chrome,1536,864,,,,,0,875,,,,,,,,,,,,,,,,,160,U,triangle,1,0,,,,,,,,,,,,,,,,switch,letter,lettSwt,k,1.3956,Hi,,,,,,1,,,,,,,,low,18,0,18,0,1,,,,,,,,,
297730,2022-12-06_13h04.07.220,vts_reward_expectancy_bt,2022.2.4,Win32,59.9268892,Chrome,1536,864,,,,,10,885,,,,,,,,,,,,,,,,,167,W,circle,1,0,,,,,,,,,,,,,,,,repeat,letter,lettRpt,k,0.6632,Hi,,,,,,1,,,,,,,,low,19,0,19,0,1,,,,,,,,,
297730,2022-12-06_13h04.07.220,vts_reward_expectancy_bt,2022.2.4,Win32,59.9268892,Chrome,1536,864,,,,,10,895,,,,,,,,,,,,,,,,,125,Y,circle,1,0,,,,,,,,,,,,,,,,repeat,letter,lettRpt,k,0.5627,Hi,,,,,,1,,,,,,,,low,20,0,20,0,1,,,,,,,,,
297730,2022-12-06_13h04.07.220,vts_reward_expectancy_bt,2022.2.4,Win32,59.9268892,Chrome,1536,864,,,,,0,895,,,,,,,,,,,,,,,,,132,H,triangle,0,0,,,,,,,,,,,,,,,,repeat,letter,NA,k,0.6605,Hi,,,,,,1,,,,,,,,low,21,0,21,0,1,,,,,,,,,
297730,2022-12-06_13h04.07.220,vts_reward_expectancy_bt,2022.2.4,Win32,59.9268892,Chrome,1536,864,,,,,1,896,,,,,,,,,,,,,,,,,181,F,hexagon,1,1,,,,,,,,,,,,,,,,repeat,letter,lettRpt,j,0.9618,Lo,,,,,,1,,,,,,,,low,22,0,22,0,1,,,,,,,,,
297730,2022-12-06_13h04.07.220,vts_reward_expectancy_bt,2022.2.4,Win32,59.9268892,Chrome,1536,864,,,,,1,897,,,,,,,,,,,,,,,,,139,S,star,1,0,,,,,,,,,,,,,,,,repeat,letter,lettRpt,k,1.0113,Lo,,,,,,1,,,,,,,,low,23,0,23,0,1,,,,,,,,,
297730,2022-12-06_13h04.07.220,vts_reward_expectancy_bt,2022.2.4,Win32,59.9268892,Chrome,1536,864,,,,,1,898,,,,,,,,,,,,,,,,,146,Y,star,1,0,,,,,,,,,,,,,,,,repeat,letter,lettRpt,k,0.8123,Lo,,,,,,1,,,,,,,,low,24,0,24,0,1,,,,,,,,,
297730,2022-12-06_13h04.07.220,vts_reward_expectancy_bt,2022.2.4,Win32,59.9268892,Chrome,1536,864,,,,,0,898,,,,,,,,,,,,,,,,,132,B,triangle,1,0,,,,,,,,,,,,,,,,repeat,letter,lettRpt,j,1.2949,Hi,,,,,,1,,,,,,,,low,25,0,25,0,1,,,,,,,,,
297730,2022-12-06_13h04.07.220,vts_reward_expectancy_bt,2022.2.4,Win32,59.9268892,Chrome,1536,864,,,,,0,898,,,,,,,,,,,,,,,,,174,D,circle,1,0,,,,,,,,,,,,,,,,repeat,letter,lettRpt,j,1.3107,Hi,,,,,,1,,,,,,,,low,26,0,26,0,1,,,,,,,,,
297730,2022-12-06_13h04.07.220,vts_reward_expectancy_bt,2022.2.4,Win32,59.9268892,Chrome,1536,864,,,,,10,908,,,,,,,,,,,,,,,,,160,H,hexagon,1,0,,,,,,,,,,,,,,,,switch,number,numSwt,f,1.3662,Lo,,,,,,1,,,,,,,,low,27,0,27,0,1,,,,,,,,,
297730,2022-12-06_13h04.07.220,vts_reward_expectancy_bt,2022.2.4,Win32,59.9268892,Chrome,1536,864,,,,,1,909,,,,,,,,,,,,,,,,,125,U,star,1,0,,,,,,,,,,,,,,,,repeat,number,numRpt,d,0.8637,Lo,,,,,,1,,,,,,,,low,28,0,28,0,1,,,,,,,,,
297730,2022-12-06_13h04.07.220,vts_reward_expectancy_bt,2022.2.4,Win32,59.9268892,Chrome,1536,864,,,,,1,910,,,,,,,,,,,,,,,,,167,F,triangle,1,0,,,,,,,,,,,,,,,,repeat,number,numRpt,f,0.8474,Hi,,,,,,1,,,,,,,,low,29,0,29,0,1,,,,,,,,,
297730,2022-12-06_13h04.07.220,vts_reward_expectancy_bt,2022.2.4,Win32,59.9268892,Chrome,1536,864,,,,,0,910,,,,,,,,,,,,,,,,,181,S,circle,1,0,,,,,,,,,,,,,,,,switch,letter,lettSwt,k,0.6749,Hi,,,,,,1,,,,,,,,low,30,0,30,0,1,,,,,,,,,
297730,2022-12-06_13h04.07.220,vts_reward_expectancy_bt,2022.2.4,Win32,59.9268892,Chrome,1536,864,,,,,1,911,,,,,,,,,,,,,,,,,139,W,hexagon,1,0,,,,,,,,,,,,,,,,repeat,letter,lettRpt,k,0.5791,Lo,,,,,,1,,,,,,,,low,31,0,31,0,1,,,,,,,,,
297730,2022-12-06_13h04.07.220,vts_reward_expectancy_bt,2022.2.4,Win32,59.9268892,Chrome,1536,864,,,,,0,911,,,,,,,,,,,,,,,,,181,F,circle,1,0,,,,,,,,,,,,,,,,switch,number,numSwt,f,1.0953,Hi,,,,,,2,,,,,,space,3.4256,low,0,0,0,0,1,,,,,,,,,
297730,2022-12-06_13h04.07.220,vts_reward_expectancy_bt,2022.2.4,Win32,59.9268892,Chrome,1536,864,,,,,0,911,,,,,,,,,,,,,,,,,146,S,star,0,0,,,,,,,,,,,,,,,,repeat,number,NA,f,1.851,Hi,,,,,,2,,,,,,,,low,1,0,1,0,1,,,,,,,,,
297730,2022-12-06_13h04.07.220,vts_reward_expectancy_bt,2022.2.4,Win32,59.9268892,Chrome,1536,864,,,,,10,921,,,,,,,,,,,,,,,,,132,U,hexagon,1,1,,,,,,,,,,,,,,,,repeat,number,numRpt,d,1.0999,Lo,,,,,,2,,,,,,,,low,2,0,2,0,1,,,,,,,,,
297730,2022-12-06_13h04.07.220,vts_reward_expectancy_bt,2022.2.4,Win32,59.9268892,Chrome,1536,864,,,,,10,931,,,,,,,,,,,,,,,,,125,Y,triangle,1,0,,,,,,,,,,,,,,,,repeat,number,numRpt,d,0.7605,Hi,,,,,,2,,,,,,,,low,3,0,3,0,1,,,,,,,,,
297730,2022-12-06_13h04.07.220,vts_reward_expectancy_bt,2022.2.4,Win32,59.9268892,Chrome,1536,864,,,,,10,941,,,,,,,,,,,,,,,,,139,B,circle,1,0,,,,,,,,,,,,,,,,repeat,number,numRpt,d,0.4973,Hi,,,,,,2,,,,,,,,low,4,0,4,0,1,,,,,,,,,
297730,2022-12-06_13h04.07.220,vts_reward_expectancy_bt,2022.2.4,Win32,59.9268892,Chrome,1536,864,,,,,1,942,,,,,,,,,,,,,,,,,174,H,star,1,0,,,,,,,,,,,,,,,,repeat,number,numRpt,f,1.0665,Lo,,,,,,2,,,,,,,,low,5,0,5,0,1,,,,,,,,,
297730,2022-12-06_13h04.07.220,vts_reward_expectancy_bt,2022.2.4,Win32,59.9268892,Chrome,1536,864,,,,,10,952,,,,,,,,,,,,,,,,,160,D,hexagon,1,0,,,,,,,,,,,,,,,,repeat,number,numRpt,f,0.8831,Lo,,,,,,2,,,,,,,,low,6,0,6,0,1,,,,,,,,,
297730,2022-12-06_13h04.07.220,vts_reward_expectancy_bt,2022.2.4,Win32,59.9268892,Chrome,1536,864,,,,,0,952,,,,,,,,,,,,,,,,,167,W,triangle,1,0,,,,,,,,,,,,,,,,switch,letter,lettSwt,k,0.9199,Hi,,,,,,2,,,,,,,,low,7,0,7,0,1,,,,,,,,,
297730,2022-12-06_13h04.07.220,vts_reward_expectancy_bt,2022.2.4,Win32,59.9268892,Chrome,1536,864,,,,,0,952,,,,,,,,,,,,,,,,,181,F,circle,1,0,,,,,,,,,,,,,,,,repeat,letter,lettRpt,j,1.1746,Hi,,,,,,2,,,,,,,,low,8,0,8,0,1,,,,,,,,,
297730,2022-12-06_13h04.07.220,vts_reward_expectancy_bt,2022.2.4,Win32,59.9268892,Chrome,1536,864,,,,,1,953,,,,,,,,,,,,,,,,,146,S,hexagon,1,0,,,,,,,,,,,,,,,,repeat,letter,lettRpt,k,1.6286,Lo,,,,,,2,,,,,,,,low,9,0,9,0,1,,,,,,,,,
297730,2022-12-06_13h04.07.220,vts_reward_expectancy_bt,2022.2.4,Win32,59.9268892,Chrome,1536,864,,,,,10,963,,,,,,,,,,,,,,,,,132,U,triangle,1,0,,,,,,,,,,,,,,,,repeat,letter,lettRpt,k,0.6289,Hi,,,,,,2,,,,,,,,low,10,0,10,0,1,,,,,,,,,
297730,2022-12-06_13h04.07.220,vts_reward_expectancy_bt,2022.2.4,Win32,59.9268892,Chrome,1536,864,,,,,10,973,,,,,,,,,,,,,,,,,125,Y,star,1,0,,,,,,,,,,,,,,,,repeat,letter,lettRpt,k,0.6623,Lo,,,,,,2,,,,,,,,low,11,0,11,0,1,,,,,,,,,
297730,2022-12-06_13h04.07.220,vts_reward_expectancy_bt,2022.2.4,Win32,59.9268892,Chrome,1536,864,,,,,1,974,,,,,,,,,,,,,,,,,139,B,star,1,0,,,,,,,,,,,,,,,,switch,number,numSwt,d,0.629,Lo,,,,,,2,,,,,,,,low,12,0,12,0,1,,,,,,,,,
297730,2022-12-06_13h04.07.220,vts_reward_expectancy_bt,2022.2.4,Win32,59.9268892,Chrome,1536,864,,,,,1,975,,,,,,,,,,,,,,,,,174,H,hexagon,1,0,,,,,,,,,,,,,,,,repeat,number,numRpt,f,1.2139,Lo,,,,,,2,,,,,,,,low,13,0,13,0,1,,,,,,,,,
297730,2022-12-06_13h04.07.220,vts_reward_expectancy_bt,2022.2.4,Win32,59.9268892,Chrome,1536,864,,,,,10,985,,,,,,,,,,,,,,,,,160,D,circle,1,0,,,,,,,,,,,,,,,,repeat,number,numRpt,f,0.7464,Hi,,,,,,2,,,,,,,,low,14,0,14,0,1,,,,,,,,,
297730,2022-12-06_13h04.07.220,vts_reward_expectancy_bt,2022.2.4,Win32,59.9268892,Chrome,1536,864,,,,,0,985,,,,,,,,,,,,,,,,,167,W,triangle,0,0,,,,,,,,,,,,,,,,repeat,number,NA,d,1.1454,Hi,,,,,,2,,,,,,,,low,15,0,15,0,1,,,,,,,,,
297730,2022-12-06_13h04.07.220,vts_reward_expectancy_bt,2022.2.4,Win32,59.9268892,Chrome,1536,864,,,,,0,985,,,,,,,,,,,,,,,,,132,H,circle,0,1,,,,,,,,,,,,,,,,switch,letter,NA,k,1.0975,Hi,,,,,,2,,,,,,,,low,16,0,16,0,1,,,,,,,,,
297730,2022-12-06_13h04.07.220,vts_reward_expectancy_bt,2022.2.4,Win32,59.9268892,Chrome,1536,864,,,,,10,995,,,,,,,,,,,,,,,,,146,Y,triangle,1,1,,,,,,,,,,,,,,,,repeat,letter,lettRpt,k,0.5954,Hi,,,,,,2,,,,,,,,low,17,0,17,0,1,,,,,,,,,
297730,2022-12-06_13h04.07.220,vts_reward_expectancy_bt,2022.2.4,Win32,59.9268892,Chrome,1536,864,,,,,1,996,,,,,,,,,,,,,,,,,125,S,hexagon,1,0,,,,,,,,,,,,,,,,repeat,letter,lettRpt,k,0.7291,Lo,,,,,,2,,,,,,,,low,18,0,18,0,1,,,,,,,,,
297730,2022-12-06_13h04.07.220,vts_reward_expectancy_bt,2022.2.4,Win32,59.9268892,Chrome,1536,864,,,,,1,997,,,,,,,,,,,,,,,,,160,F,star,1,0,,,,,,,,,,,,,,,,repeat,letter,lettRpt,j,1.2778,Lo,,,,,,2,,,,,,,,low,19,0,19,0,1,,,,,,,,,
297730,2022-12-06_13h04.07.220,vts_reward_expectancy_bt,2022.2.4,Win32,59.9268892,Chrome,1536,864,,,,,10,1007,,,,,,,,,,,,,,,,,167,D,star,1,0,,,,,,,,,,,,,,,,repeat,letter,lettRpt,j,1.6277,Lo,,,,,,2,,,,,,,,low,20,0,20,0,1,,,,,,,,,
297730,2022-12-06_13h04.07.220,vts_reward_expectancy_bt,2022.2.4,Win32,59.9268892,Chrome,1536,864,,,,,0,1007,,,,,,,,,,,,,,,,,139,B,circle,1,0,,,,,,,,,,,,,,,,repeat,letter,lettRpt,j,0.8804,Hi,,,,,,2,,,,,,,,low,21,0,21,0,1,,,,,,,,,
297730,2022-12-06_13h04.07.220,vts_reward_expectancy_bt,2022.2.4,Win32,59.9268892,Chrome,1536,864,,,,,1,1008,,,,,,,,,,,,,,,,,181,U,hexagon,1,0,,,,,,,,,,,,,,,,repeat,letter,lettRpt,k,1.1626,Lo,,,,,,2,,,,,,,,low,22,0,22,0,1,,,,,,,,,
297730,2022-12-06_13h04.07.220,vts_reward_expectancy_bt,2022.2.4,Win32,59.9268892,Chrome,1536,864,,,,,10,1018,,,,,,,,,,,,,,,,,174,W,triangle,1,0,,,,,,,,,,,,,,,,repeat,letter,lettRpt,k,0.648,Hi,,,,,,2,,,,,,,,low,23,0,23,0,1,,,,,,,,,
297730,2022-12-06_13h04.07.220,vts_reward_expectancy_bt,2022.2.4,Win32,59.9268892,Chrome,1536,864,,,,,0,1018,,,,,,,,,,,,,,,,,125,B,triangle,1,0,,,,,,,,,,,,,,,,repeat,letter,lettRpt,j,0.8143,Hi,,,,,,2,,,,,,,,low,24,0,24,0,1,,,,,,,,,
297730,2022-12-06_13h04.07.220,vts_reward_expectancy_bt,2022.2.4,Win32,59.9268892,Chrome,1536,864,,,,,0,1018,,,,,,,,,,,,,,,,,139,D,circle,0,0,,,,,,,,,,,,,,,,repeat,letter,NA,k,1.1143,Hi,,,,,,2,,,,,,,,low,25,0,25,0,1,,,,,,,,,
297730,2022-12-06_13h04.07.220,vts_reward_expectancy_bt,2022.2.4,Win32,59.9268892,Chrome,1536,864,,,,,1,1019,,,,,,,,,,,,,,,,,146,H,hexagon,1,1,,,,,,,,,,,,,,,,repeat,letter,lettRpt,j,1.1126,Lo,,,,,,2,,,,,,,,low,26,0,26,0,1,,,,,,,,,
297730,2022-12-06_13h04.07.220,vts_reward_expectancy_bt,2022.2.4,Win32,59.9268892,Chrome,1536,864,,,,,1,1020,,,,,,,,,,,,,,,,,181,F,star,1,0,,,,,,,,,,,,,,,,repeat,letter,lettRpt,j,0.9127,Lo,,,,,,2,,,,,,,,low,27,0,27,0,1,,,,,,,,,
297730,2022-12-06_13h04.07.220,vts_reward_expectancy_bt,2022.2.4,Win32,59.9268892,Chrome,1536,864,,,,,0,1020,,,,,,,,,,,,,,,,,174,S,circle,1,0,,,,,,,,,,,,,,,,repeat,letter,lettRpt,k,0.8287,Hi,,,,,,2,,,,,,,,low,28,0,28,0,1,,,,,,,,,
297730,2022-12-06_13h04.07.220,vts_reward_expectancy_bt,2022.2.4,Win32,59.9268892,Chrome,1536,864,,,,,10,1030,,,,,,,,,,,,,,,,,167,W,hexagon,1,0,,,,,,,,,,,,,,,,switch,number,numSwt,f,0.9291,Lo,,,,,,2,,,,,,,,low,29,0,29,0,1,,,,,,,,,
297730,2022-12-06_13h04.07.220,vts_reward_expectancy_bt,2022.2.4,Win32,59.9268892,Chrome,1536,864,,,,,1,1031,,,,,,,,,,,,,,,,,132,U,star,1,0,,,,,,,,,,,,,,,,repeat,number,numRpt,d,0.9447,Lo,,,,,,2,,,,,,,,low,30,0,30,0,1,,,,,,,,,
297730,2022-12-06_13h04.07.220,vts_reward_expectancy_bt,2022.2.4,Win32,59.9268892,Chrome,1536,864,,,,,10,1041,,,,,,,,,,,,,,,,,160,Y,triangle,1,0,,,,,,,,,,,,,,,,repeat,number,numRpt,f,0.6809,Hi,,,,,,2,,,,,,,,low,31,0,31,0,1,,,,,,,,,
297730,2022-12-06_13h04.07.220,vts_reward_expectancy_bt,2022.2.4,Win32,59.9268892,Chrome,1536,864,,,,,1,1042,,,,,,,,,,,,,,,,,167,H,hexagon,1,0,,,,,,,,,,,,,,,,repeat,number,numRpt,f,0.4959,Lo,,,,,,3,,,,,,space,5.8876,low,0,0,0,0,1,,,,,,,,,
297730,2022-12-06_13h04.07.220,vts_reward_expectancy_bt,2022.2.4,Win32,59.9268892,Chrome,1536,864,,,,,10,1052,,,,,,,,,,,,,,,,,125,Y,star,1,0,,,,,,,,,,,,,,,,repeat,number,numRpt,d,0.5035,Lo,,,,,,3,,,,,,,,low,1,0,1,0,1,,,,,,,,,
297730,2022-12-06_13h04.07.220,vts_reward_expectancy_bt,2022.2.4,Win32,59.9268892,Chrome,1536,864,,,,,1,1053,,,,,,,,,,,,,,,,,181,D,triangle,1,0,,,,,,,,,,,,,,,,repeat,number,numRpt,f,0.6351,Hi,,,,,,3,,,,,,,,low,2,0,2,0,1,,,,,,,,,
297730,2022-12-06_13h04.07.220,vts_reward_expectancy_bt,2022.2.4,Win32,59.9268892,Chrome,1536,864,,,,,10,1063,,,,,,,,,,,,,,,,,132,B,circle,1,0,,,,,,,,,,,,,,,,switch,letter,lettSwt,j,0.6655,Hi,,,,,,3,,,,,,,,low,3,0,3,0,1,,,,,,,,,
297730,2022-12-06_13h04.07.220,vts_reward_expectancy_bt,2022.2.4,Win32,59.9268892,Chrome,1536,864,,,,,1,1064,,,,,,,,,,,,,,,,,160,U,hexagon,1,0,,,,,,,,,,,,,,,,repeat,letter,lettRpt,k,0.5315,Lo,,,,,,3,,,,,,,,low,4,0,4,0,1,,,,,,,,,
297730,2022-12-06_13h04.07.220,vts_reward_expectancy_bt,2022.2.4,Win32,59.9268892,Chrome,1536,864,,,,,10,1074,,,,,,,,,,,,,,,,,146,W,star,1,0,,,,,,,,,,,,,,,,repeat,letter,lettRpt,k,0.6312,Lo,,,,,,3,,,,,,,,low,5,0,5,0,1,,,,,,,,,
297730,2022-12-06_13h04.07.220,vts_reward_expectancy_bt,2022.2.4,Win32,59.9268892,Chrome,1536,864,,,,,10,1084,,,,,,,,,,,,,,,,,139,S,triangle,1,0,,,,,,,,,,,,,,,,repeat,letter,lettRpt,k,0.7795,Hi,,,,,,3,,,,,,,,low,6,0,6,0,1,,,,,,,,,
297730,2022-12-06_13h04.07.220,vts_reward_expectancy_bt,2022.2.4,Win32,59.9268892,Chrome,1536,864,,,,,0,1084,,,,,,,,,,,,,,,,,174,F,circle,1,0,,,,,,,,,,,,,,,,repeat,letter,lettRpt,j,0.8684,Hi,,,,,,3,,,,,,,,low,7,0,7,0,1,,,,,,,,,
297730,2022-12-06_13h04.07.220,vts_reward_expectancy_bt,2022.2.4,Win32,59.9268892,Chrome,1536,864,,,,,10,1094,,,,,,,,,,,,,,,,,167,H,triangle,1,0,,,,,,,,,,,,,,,,switch,number,numSwt,f,0.6849,Hi,,,,,,3,,,,,,,,low,8,0,8,0,1,,,,,,,,,
297730,2022-12-06_13h04.07.220,vts_reward_expectancy_bt,2022.2.4,Win32,59.9268892,Chrome,1536,864,,,,,0,1094,,,,,,,,,,,,,,,,,125,Y,circle,1,0,,,,,,,,,,,,,,,,repeat,number,numRpt,d,0.8898,Hi,,,,,,3,,,,,,,,low,9,0,9,0,1,,,,,,,,,
297730,2022-12-06_13h04.07.220,vts_reward_expectancy_bt,2022.2.4,Win32,59.9268892,Chrome,1536,864,,,,,10,1104,,,,,,,,,,,,,,,,,181,D,hexagon,1,0,,,,,,,,,,,,,,,,repeat,number,numRpt,f,2.704,Lo,,,,,,3,,,,,,,,low,10,0,10,0,1,,,,,,,,,
297730,2022-12-06_13h04.07.220,vts_reward_expectancy_bt,2022.2.4,Win32,59.9268892,Chrome,1536,864,,,,,10,1114,,,,,,,,,,,,,,,,,132,B,star,1,0,,,,,,,,,,,,,,,,repeat,number,numRpt,d,0.8602,Lo,,,,,,3,,,,,,,,low,11,0,11,0,1,,,,,,,,,
297730,2022-12-06_13h04.07.220,vts_reward_expectancy_bt,2022.2.4,Win32,59.9268892,Chrome,1536,864,,,,,0,1114,,,,,,,,,,,,,,,,,160,U,circle,0,0,,,,,,,,,,,,,,,,switch,letter,NA,j,1.2109,Lo,,,,,,3,,,,,,,,low,12,0,12,0,1,,,,,,,,,
297730,2022-12-06_13h04.07.220,vts_reward_expectancy_bt,2022.2.4,Win32,59.9268892,Chrome,1536,864,,,,,10,1124,,,,,,,,,,,,,,,,,146,W,star,1,1,,,,,,,,,,,,,,,,repeat,letter,lettRpt,k,0.8947,Lo,,,,,,3,,,,,,,,low,13,0,13,0,1,,,,,,,,,
297730,2022-12-06_13h04.07.220,vts_reward_expectancy_bt,2022.2.4,Win32,59.9268892,Chrome,1536,864,,,,,0,1124,,,,,,,,,,,,,,,,,139,S,triangle,1,0,,,,,,,,,,,,,,,,repeat,letter,lettRpt,k,1.1339,Hi,,,,,,3,,,,,,,,low,14,0,14,0,1,,,,,,,,,
297730,2022-12-06_13h04.07.220,vts_reward_expectancy_bt,2022.2.4,Win32,59.9268892,Chrome,1536,864,,,,,1,1125,,,,,,,,,,,,,,,,,174,F,hexagon,1,0,,,,,,,,,,,,,,,,switch,number,numSwt,f,0.6211,Lo,,,,,,3,,,,,,,,low,15,0,15,0,1,,,,,,,,,
297730,2022-12-06_13h04.07.220,vts_reward_expectancy_bt,2022.2.4,Win32,59.9268892,Chrome,1536,864,,,,,10,1135,,,,,,,,,,,,,,,,,174,Y,star,1,0,,,,,,,,,,,,,,,,repeat,number,numRpt,f,2.2613,Lo,,,,,,3,,,,,,,,low,16,0,16,0,1,,,,,,,,,
297730,2022-12-06_13h04.07.220,vts_reward_expectancy_bt,2022.2.4,Win32,59.9268892,Chrome,1536,864,,,,,0,1135,,,,,,,,,,,,,,,,,181,S,circle,1,0,,,,,,,,,,,,,,,,repeat,number,numRpt,f,1.425,Hi,,,,,,3,,,,,,,,low,17,0,17,0,1,,,,,,,,,
297730,2022-12-06_13h04.07.220,vts_reward_expectancy_bt,2022.2.4,Win32,59.9268892,Chrome,1536,864,,,,,1,1136,,,,,,,,,,,,,,,,,125,W,hexagon,1,0,,,,,,,,,,,,,,,,repeat,number,numRpt,d,0.6041,Lo,,,,,,3,,,,,,,,low,18,0,18,0,1,,,,,,,,,
297730,2022-12-06_13h04.07.220,vts_reward_expectancy_bt,2022.2.4,Win32,59.9268892,Chrome,1536,864,,,,,10,1146,,,,,,,,,,,,,,,,,160,U,triangle,1,0,,,,,,,,,,,,,,,,repeat,number,numRpt,f,0.6484,Hi,,,,,,3,,,,,,,,low,19,0,19,0,1,,,,,,,,,
297730,2022-12-06_13h04.07.220,vts_reward_expectancy_bt,2022.2.4,Win32,59.9268892,Chrome,1536,864,,,,,1,1147,,,,,,,,,,,,,,,,,132,D,circle,1,0,,,,,,,,,,,,,,,,repeat,number,numRpt,d,0.7275,Hi,,,,,,3,,,,,,,,low,20,0,20,0,1,,,,,,,,,
297730,2022-12-06_13h04.07.220,vts_reward_expectancy_bt,2022.2.4,Win32,59.9268892,Chrome,1536,864,,,,,1,1148,,,,,,,,,,,,,,,,,146,F,star,1,0,,,,,,,,,,,,,,,,repeat,number,numRpt,d,0.9107,Lo,,,,,,3,,,,,,,,low,21,0,21,0,1,,,,,,,,,
297730,2022-12-06_13h04.07.220,vts_reward_expectancy_bt,2022.2.4,Win32,59.9268892,Chrome,1536,864,,,,,0,1148,,,,,,,,,,,,,,,,,139,H,triangle,1,0,,,,,,,,,,,,,,,,switch,letter,lettSwt,j,0.9844,Hi,,,,,,3,,,,,,,,low,22,0,22,0,1,,,,,,,,,
297730,2022-12-06_13h04.07.220,vts_reward_expectancy_bt,2022.2.4,Win32,59.9268892,Chrome,1536,864,,,,,10,1158,,,,,,,,,,,,,,,,,167,B,hexagon,1,0,,,,,,,,,,,,,,,,repeat,letter,lettRpt,j,0.7192,Lo,,,,,,3,,,,,,,,low,23,0,23,0,1,,,,,,,,,
297730,2022-12-06_13h04.07.220,vts_reward_expectancy_bt,2022.2.4,Win32,59.9268892,Chrome,1536,864,,,,,10,1168,,,,,,,,,,,,,,,,,125,B,star,1,0,,,,,,,,,,,,,,,,repeat,letter,lettRpt,j,0.6697,Lo,,,,,,3,,,,,,,,low,24,0,24,0,1,,,,,,,,,
297730,2022-12-06_13h04.07.220,vts_reward_expectancy_bt,2022.2.4,Win32,59.9268892,Chrome,1536,864,,,,,10,1178,,,,,,,,,,,,,,,,,174,D,circle,1,0,,,,,,,,,,,,,,,,repeat,letter,lettRpt,j,0.5767,Hi,,,,,,3,,,,,,,,low,25,0,25,0,1,,,,,,,,,
297730,2022-12-06_13h04.07.220,vts_reward_expectancy_bt,2022.2.4,Win32,59.9268892,Chrome,1536,864,,,,,10,1188,,,,,,,,,,,,,,,,,181,F,hexagon,1,0,,,,,,,,,,,,,,,,repeat,letter,lettRpt,j,0.8509,Lo,,,,,,3,,,,,,,,low,26,0,26,0,1,,,,,,,,,
297730,2022-12-06_13h04.07.220,vts_reward_expectancy_bt,2022.2.4,Win32,59.9268892,Chrome,1536,864,,,,,0,1188,,,,,,,,,,,,,,,,,167,S,triangle,1,0,,,,,,,,,,,,,,,,switch,number,numSwt,f,0.8849,Hi,,,,,,3,,,,,,,,low,27,0,27,0,1,,,,,,,,,
297730,2022-12-06_13h04.07.220,vts_reward_expectancy_bt,2022.2.4,Win32,59.9268892,Chrome,1536,864,,,,,10,1198,,,,,,,,,,,,,,,,,160,H,triangle,1,0,,,,,,,,,,,,,,,,repeat,number,numRpt,f,0.6343,Hi,,,,,,3,,,,,,,,low,28,0,28,0,1,,,,,,,,,
297730,2022-12-06_13h04.07.220,vts_reward_expectancy_bt,2022.2.4,Win32,59.9268892,Chrome,1536,864,,,,,1,1199,,,,,,,,,,,,,,,,,132,Y,hexagon,1,0,,,,,,,,,,,,,,,,repeat,number,numRpt,d,0.86,Lo,,,,,,3,,,,,,,,low,29,0,29,0,1,,,,,,,,,
297730,2022-12-06_13h04.07.220,vts_reward_expectancy_bt,2022.2.4,Win32,59.9268892,Chrome,1536,864,,,,,0,1199,,,,,,,,,,,,,,,,,139,W,circle,1,0,,,,,,,,,,,,,,,,repeat,number,numRpt,d,0.7634,Hi,,,,,,3,,,,,,,,low,30,0,30,0,1,,,,,,,,,
297730,2022-12-06_13h04.07.220,vts_reward_expectancy_bt,2022.2.4,Win32,59.9268892,Chrome,1536,864,,,,,1,1200,,,,,,,,,,,,,,,,,146,U,star,1,0,,,,,,,,,,,,,,,,repeat,number,numRpt,d,0.8594,Lo,,,,,,3,,,,,,,,low,31,0,31,0,1,,,,,,,,,
297730,2022-12-06_13h04.07.220,vts_reward_expectancy_bt,2022.2.4,Win32,59.9268892,Chrome,1536,864,,,,,0,1200,,,,,,,,,,,,,,,,,167,U,triangle,1,0,,,,,,,,,,,,,,,,repeat,number,numRpt,f,0.9009,Hi,,,,,,4,,,,,,space,3.0221,low,0,0,0,0,1,,,,,,,,,
297730,2022-12-06_13h04.07.220,vts_reward_expectancy_bt,2022.2.4,Win32,59.9268892,Chrome,1536,864,,,,,1,1201,,,,,,,,,,,,,,,,,139,S,star,1,0,,,,,,,,,,,,,,,,repeat,number,numRpt,d,0.8085,Lo,,,,,,4,,,,,,,,low,1,0,1,0,1,,,,,,,,,
297730,2022-12-06_13h04.07.220,vts_reward_expectancy_bt,2022.2.4,Win32,59.9268892,Chrome,1536,864,,,,,0,1201,,,,,,,,,,,,,,,,,132,H,circle,1,0,,,,,,,,,,,,,,,,repeat,number,numRpt,d,0.7828,Hi,,,,,,4,,,,,,,,low,2,0,2,0,1,,,,,,,,,
297730,2022-12-06_13h04.07.220,vts_reward_expectancy_bt,2022.2.4,Win32,59.9268892,Chrome,1536,864,,,,,1,1202,,,,,,,,,,,,,,,,,125,F,hexagon,1,0,,,,,,,,,,,,,,,,repeat,number,numRpt,d,1.0517,Lo,,,,,,4,,,,,,,,low,3,0,3,0,1,,,,,,,,,
297730,2022-12-06_13h04.07.220,vts_reward_expectancy_bt,2022.2.4,Win32,59.9268892,Chrome,1536,864,,,,,10,1212,,,,,,,,,,,,,,,,,181,D,triangle,1,0,,,,,,,,,,,,,,,,repeat,number,numRpt,f,0.6269,Hi,,,,,,4,,,,,,,,low,4,0,4,0,1,,,,,,,,,
297730,2022-12-06_13h04.07.220,vts_reward_expectancy_bt,2022.2.4,Win32,59.9268892,Chrome,1536,864,,,,,0,1212,,,,,,,,,,,,,,,,,174,B,star,0,0,,,,,,,,,,,,,,,,repeat,number,NA,d,0.8649,Hi,,,,,,4,,,,,,,,low,5,0,5,0,1,,,,,,,,,
297730,2022-12-06_13h04.07.220,vts_reward_expectancy_bt,2022.2.4,Win32,59.9268892,Chrome,1536,864,,,,,0,1212,,,,,,,,,,,,,,,,,160,W,circle,1,1,,,,,,,,,,,,,,,,repeat,number,numRpt,f,0.8777,Hi,,,,,,4,,,,,,,,low,6,0,6,0,1,,,,,,,,,
297730,2022-12-06_13h04.07.220,vts_reward_expectancy_bt,2022.2.4,Win32,59.9268892,Chrome,1536,864,,,,,1,1213,,,,,,,,,,,,,,,,,146,Y,hexagon,1,0,,,,,,,,,,,,,,,,repeat,number,numRpt,d,0.96,Lo,,,,,,4,,,,,,,,low,7,0,7,0,1,,,,,,,,,
297730,2022-12-06_13h04.07.220,vts_reward_expectancy_bt,2022.2.4,Win32,59.9268892,Chrome,1536,864,,,,,0,1213,,,,,,,,,,,,,,,,,167,U,triangle,1,0,,,,,,,,,,,,,,,,switch,letter,lettSwt,k,0.7355,Hi,,,,,,4,,,,,,,,low,8,0,8,0,1,,,,,,,,,
297730,2022-12-06_13h04.07.220,vts_reward_expectancy_bt,2022.2.4,Win32,59.9268892,Chrome,1536,864,,,,,1,1214,,,,,,,,,,,,,,,,,139,S,star,1,0,,,,,,,,,,,,,,,,repeat,letter,lettRpt,k,0.9356,Lo,,,,,,4,,,,,,,,low,9,0,9,0,1,,,,,,,,,
297730,2022-12-06_13h04.07.220,vts_reward_expectancy_bt,2022.2.4,Win32,59.9268892,Chrome,1536,864,,,,,0,1214,,,,,,,,,,,,,,,,,132,H,circle,0,0,,,,,,,,,,,,,,,,repeat,letter,NA,k,0.6845,Lo,,,,,,4,,,,,,,,low,10,0,10,0,1,,,,,,,,,
297730,2022-12-06_13h04.07.220,vts_reward_expectancy_bt,2022.2.4,Win32,59.9268892,Chrome,1536,864,,,,,10,1224,,,,,,,,,,,,,,,,,125,F,hexagon,1,1,,,,,,,,,,,,,,,,repeat,letter,lettRpt,j,1.1343,Lo,,,,,,4,,,,,,,,low,11,0,11,0,1,,,,,,,,,
297730,2022-12-06_13h04.07.220,vts_reward_expectancy_bt,2022.2.4,Win32,59.9268892,Chrome,1536,864,,,,,10,1234,,,,,,,,,,,,,,,,,181,D,star,1,0,,,,,,,,,,,,,,,,repeat,letter,lettRpt,j,0.6353,Lo,,,,,,4,,,,,,,,low,12,0,12,0,1,,,,,,,,,
297730,2022-12-06_13h04.07.220,vts_reward_expectancy_bt,2022.2.4,Win32,59.9268892,Chrome,1536,864,,,,,10,1244,,,,,,,,,,,,,,,,,174,B,circle,1,0,,,,,,,,,,,,,,,,repeat,letter,lettRpt,j,0.6362,Hi,,,,,,4,,,,,,,,low,13,0,13,0,1,,,,,,,,,
297730,2022-12-06_13h04.07.220,vts_reward_expectancy_bt,2022.2.4,Win32,59.9268892,Chrome,1536,864,,,,,10,1254,,,,,,,,,,,,,,,,,160,W,hexagon,1,0,,,,,,,,,,,,,,,,repeat,letter,lettRpt,k,1.6054,Lo,,,,,,4,,,,,,,,low,14,0,14,0,1,,,,,,,,,
297730,2022-12-06_13h04.07.220,vts_reward_expectancy_bt,2022.2.4,Win32,59.9268892,Chrome,1536,864,,,,,0,1254,,,,,,,,,,,,,,,,,146,Y,triangle,1,0,,,,,,,,,,,,,,,,repeat,letter,lettRpt,k,2.1181,Hi,,,,,,4,,,,,,,,low,15,0,15,0,1,,,,,,,,,
297730,2022-12-06_13h04.07.220,vts_reward_expectancy_bt,2022.2.4,Win32,59.9268892,Chrome,1536,864,,,,,1,1255,,,,,,,,,,,,,,,,,132,Y,hexagon,1,0,,,,,,,,,,,,,,,,repeat,letter,lettRpt,k,0.9162,Lo,,,,,,4,,,,,,,,low,16,0,16,0,1,,,,,,,,,
297730,2022-12-06_13h04.07.220,vts_reward_expectancy_bt,2022.2.4,Win32,59.9268892,Chrome,1536,864,,,,,0,1255,,,,,,,,,,,,,,,,,139,B,triangle,1,0,,,,,,,,,,,,,,,,repeat,letter,lettRpt,j,1.8457,Hi,,,,,,4,,,,,,,,low,17,0,17,0,1,,,,,,,,,
297730,2022-12-06_13h04.07.220,vts_reward_expectancy_bt,2022.2.4,Win32,59.9268892,Chrome,1536,864,,,,,1,1256,,,,,,,,,,,,,,,,,146,D,star,1,0,,,,,,,,,,,,,,,,repeat,letter,lettRpt,j,0.6806,Lo,,,,,,4,,,,,,,,low,18,0,18,0,1,,,,,,,,,
297730,2022-12-06_13h04.07.220,vts_reward_expectancy_bt,2022.2.4,Win32,59.9268892,Chrome,1536,864,,,,,0,1256,,,,,,,,,,,,,,,,,125,H,circle,1,0,,,,,,,,,,,,,,,,repeat,letter,lettRpt,j,1.3582,Hi,,,,,,4,,,,,,,,low,19,0,19,0,1,,,,,,,,,
297730,2022-12-06_13h04.07.220,vts_reward_expectancy_bt,2022.2.4,Win32,59.9268892,Chrome,1536,864,,,,,1,1257,,,,,,,,,,,,,,,,,174,U,star,1,0,,,,,,,,,,,,,,,,repeat,letter,lettRpt,k,0.7183,Lo,,,,,,4,,,,,,,,low,20,0,20,0,1,,,,,,,,,
297730,2022-12-06_13h04.07.220,vts_reward_expectancy_bt,2022.2.4,Win32,59.9268892,Chrome,1536,864,,,,,0,1257,,,,,,,,,,,,,,,,,181,F,circle,1,0,,,,,,,,,,,,,,,,repeat,letter,lettRpt,j,0.8767,Hi,,,,,,4,,,,,,,,low,21,0,21,0,1,,,,,,,,,
297730,2022-12-06_13h04.07.220,vts_reward_expectancy_bt,2022.2.4,Win32,59.9268892,Chrome,1536,864,,,,,0,1257,,,,,,,,,,,,,,,,,167,W,triangle,1,0,,,,,,,,,,,,,,,,repeat,letter,lettRpt,k,0.6932,Hi,,,,,,4,,,,,,,,low,22,0,22,0,1,,,,,,,,,
297730,2022-12-06_13h04.07.220,vts_reward_expectancy_bt,2022.2.4,Win32,59.9268892,Chrome,1536,864,,,,,1,1258,,,,,,,,,,,,,,,,,160,S,hexagon,1,0,,,,,,,,,,,,,,,,switch,number,numSwt,f,2.0754,Lo,,,,,,4,,,,,,,,low,23,0,23,0,1,,,,,,,,,
297730,2022-12-06_13h04.07.220,vts_reward_expectancy_bt,2022.2.4,Win32,59.9268892,Chrome,1536,864,,,,,0,1258,,,,,,,,,,,,,,,,,167,H,circle,1,0,,,,,,,,,,,,,,,,repeat,number,numRpt,f,1.0182,Hi,,,,,,4,,,,,,,,low,24,0,24,0,1,,,,,,,,,
297730,2022-12-06_13h04.07.220,vts_reward_expectancy_bt,2022.2.4,Win32,59.9268892,Chrome,1536,864,,,,,1,1259,,,,,,,,,,,,,,,,,132,F,hexagon,1,0,,,,,,,,,,,,,,,,repeat,number,numRpt,d,0.8188,Lo,,,,,,4,,,,,,,,low,25,0,25,0,1,,,,,,,,,
297730,2022-12-06_13h04.07.220,vts_reward_expectancy_bt,2022.2.4,Win32,59.9268892,Chrome,1536,864,,,,,0,1259,,,,,,,,,,,,,,,,,139,Y,triangle,1,0,,,,,,,,,,,,,,,,repeat,number,numRpt,d,1.1218,Hi,,,,,,4,,,,,,,,low,26,0,26,0,1,,,,,,,,,
297730,2022-12-06_13h04.07.220,vts_reward_expectancy_bt,2022.2.4,Win32,59.9268892,Chrome,1536,864,,,,,1,1260,,,,,,,,,,,,,,,,,174,W,star,1,0,,,,,,,,,,,,,,,,repeat,number,numRpt,f,0.8401,Lo,,,,,,4,,,,,,,,low,27,0,27,0,1,,,,,,,,,
297730,2022-12-06_13h04.07.220,vts_reward_expectancy_bt,2022.2.4,Win32,59.9268892,Chrome,1536,864,,,,,0,1260,,,,,,,,,,,,,,,,,146,U,circle,1,0,,,,,,,,,,,,,,,,repeat,number,numRpt,d,1.9843,Hi,,,,,,4,,,,,,,,low,28,0,28,0,1,,,,,,,,,
297730,2022-12-06_13h04.07.220,vts_reward_expectancy_bt,2022.2.4,Win32,59.9268892,Chrome,1536,864,,,,,1,1261,,,,,,,,,,,,,,,,,125,D,star,1,0,,,,,,,,,,,,,,,,repeat,number,numRpt,d,1.0786,Lo,,,,,,4,,,,,,,,low,29,0,29,0,1,,,,,,,,,
297730,2022-12-06_13h04.07.220,vts_reward_expectancy_bt,2022.2.4,Win32,59.9268892,Chrome,1536,864,,,,,0,1261,,,,,,,,,,,,,,,,,160,S,triangle,1,0,,,,,,,,,,,,,,,,repeat,number,numRpt,f,2.1735,Hi,,,,,,4,,,,,,,,low,30,0,30,0,1,,,,,,,,,
297730,2022-12-06_13h04.07.220,vts_reward_expectancy_bt,2022.2.4,Win32,59.9268892,Chrome,1536,864,,,,,1,1262,,,,,,,,,,,,,,,,,181,B,hexagon,1,0,,,,,,,,,,,,,,,,repeat,number,numRpt,f,0.7354,Lo,,,,,,4,,,,,,,,low,31,0,31,0,1,,,,,,,,,
297730,2022-12-06_13h04.07.220,vts_reward_expectancy_bt,2022.2.4,Win32,59.9268892,Chrome,1536,864,,,,,1,1263,,,,,,,,,,,,,,,,,181,Y,hexagon,1,0,,,,,,,,,,,,,,,,repeat,number,numRpt,f,2.319,Lo,,,,,,5,,,,,,space,11.3791,low,0,0,0,0,1,,,,,,,,,
