participant,date,expName,psychopyVersion,OS,frameRate,browser,xResolution,yResolution,key_resp.keys,key_resp.rt,training_resp.keys,training_resp.rt,points_trial,points_cumul,trainBlock,training.thisRepN,training.thisTrialN,training.thisN,training.thisIndex,training.ran,LTriangleOpac,LCircleOpac,LHexagonOpac,LStarOpac,RTriangleOpac,RCircleOpac,RHexagonOpac,RStarOpac,LShape_ID,RShape_ID,curr_topStim,curr_bottStim,curr_shape,acc,E1,target_resp_prac1.keys,pracBlock,task1_prac_trials.thisRepN,task1_prac_trials.thisTrialN,task1_prac_trials.thisN,task1_prac_trials.thisIndex,task1_prac_trials.ran,target_resp_prac1.rt,target_resp_prac2.keys,target_resp_prac2.rt,task2_praac_trials.thisRepN,task2_praac_trials.thisTrialN,task2_praac_trials.thisN,task2_praac_trials.thisIndex,task2_praac_trials.ran,alt,task,condition,target_resp.keys,target_resp.rt,rewCond,vts_practice_trials.thisRepN,vts_practice_trials.thisTrialN,vts_practice_trials.thisN,vts_practice_trials.thisIndex,vts_practice_trials.ran,blockNum,trials_norew.thisRepN,trials_norew.thisTrialN,trials_norew.thisN,trials_norew.thisIndex,trials_norew.ran,key_resp_2.keys,key_resp_2.rt,rewExpectancy,trials_rew.thisRepN,trials_rew.thisTrialN,trials_rew.thisN,trials_rew.thisIndex,trials_rew.ran,Q1,Q2,Q2_text,Q3,Q4,Q5_text,Q5,xRes,yRes
297769,2022-12-06_16h01.30.768,vts_reward_expectancy_bt,2022.2.4,MacIntel,60.0024001,Chrome,1440,900,,,,,,,,,,,,,,,,,,,,,,,,,,,,,,,,,,,,,,,,,,,,,,,,,,,,,,,,,,,,,,,,,,,,,,,,,,,,
297769,2022-12-06_16h01.30.768,vts_reward_expectancy_bt,2022.2.4,MacIntel,60.0024001,Chrome,1440,900,space,47.8219,,,,,,,,,,,,,,,,,,,,,,,,,,,,,,,,,,,,,,,,,,,,,,,,,,,,,,,,,,,,,,,,,,,,,,,,,,
297769,2022-12-06_16h01.30.768,vts_reward_expectancy_bt,2022.2.4,MacIntel,60.0024001,Chrome,1440,900,,,,,,,,,,,,,,,,,,,,,,,,,,,,,,,,,,,,,,,,,,,,,,,,,,,,,,,,,,,,,,,,,,,,,,,,,,,,
297769,2022-12-06_16h01.30.768,vts_reward_expectancy_bt,2022.2.4,MacIntel,60.0024001,Chrome,1440,900,,,a,10.8073,10,10,0,0,0,0,9,1,0,0,0,1,1,0,0,0,star,triangle,,,,,,,,,,,,,,,,,,,,,,,,,,,,,,,,,,,,,,,,,,,,,,,,,,,,,,
297769,2022-12-06_16h01.30.768,vts_reward_expectancy_bt,2022.2.4,MacIntel,60.0024001,Chrome,1440,900,,,a,5.0491,10,20,0,0,1,1,7,1,0,0,1,0,0,1,0,0,hexagon,circle,,,,,,,,,,,,,,,,,,,,,,,,,,,,,,,,,,,,,,,,,,,,,,,,,,,,,,
297769,2022-12-06_16h01.30.768,vts_reward_expectancy_bt,2022.2.4,MacIntel,60.0024001,Chrome,1440,900,,,l,1.7003,1,21,0,0,2,2,4,1,0,1,0,0,0,0,1,0,circle,hexagon,,,,,,,,,,,,,,,,,,,,,,,,,,,,,,,,,,,,,,,,,,,,,,,,,,,,,,
297769,2022-12-06_16h01.30.768,vts_reward_expectancy_bt,2022.2.4,MacIntel,60.0024001,Chrome,1440,900,,,a,3.9655,1,22,0,0,3,3,10,1,0,0,0,1,0,1,0,0,star ,circle,,,,,,,,,,,,,,,,,,,,,,,,,,,,,,,,,,,,,,,,,,,,,,,,,,,,,,
297769,2022-12-06_16h01.30.768,vts_reward_expectancy_bt,2022.2.4,MacIntel,60.0024001,Chrome,1440,900,,,l,11.6116,1,23,0,0,4,4,1,1,1,0,0,0,0,0,1,0,triangle,hexagon,,,,,,,,,,,,,,,,,,,,,,,,,,,,,,,,,,,,,,,,,,,,,,,,,,,,,,
297769,2022-12-06_16h01.30.768,vts_reward_expectancy_bt,2022.2.4,MacIntel,60.0024001,Chrome,1440,900,,,a,7.6016,10,33,0,0,5,5,0,1,1,0,0,0,0,1,0,0,triangle,circle,,,,,,,,,,,,,,,,,,,,,,,,,,,,,,,,,,,,,,,,,,,,,,,,,,,,,,
297769,2022-12-06_16h01.30.768,vts_reward_expectancy_bt,2022.2.4,MacIntel,60.0024001,Chrome,1440,900,,,l,2.1606,10,43,0,0,6,6,8,1,0,0,1,0,0,0,0,1,hexagon,star,,,,,,,,,,,,,,,,,,,,,,,,,,,,,,,,,,,,,,,,,,,,,,,,,,,,,,
297769,2022-12-06_16h01.30.768,vts_reward_expectancy_bt,2022.2.4,MacIntel,60.0024001,Chrome,1440,900,,,l,1.4565,1,44,0,0,7,7,11,1,0,0,0,1,0,0,1,0,star,hexagon,,,,,,,,,,,,,,,,,,,,,,,,,,,,,,,,,,,,,,,,,,,,,,,,,,,,,,
297769,2022-12-06_16h01.30.768,vts_reward_expectancy_bt,2022.2.4,MacIntel,60.0024001,Chrome,1440,900,,,l,1.319,1,45,0,0,8,8,6,1,0,0,1,0,1,0,0,0,hexagon,triangle,,,,,,,,,,,,,,,,,,,,,,,,,,,,,,,,,,,,,,,,,,,,,,,,,,,,,,
297769,2022-12-06_16h01.30.768,vts_reward_expectancy_bt,2022.2.4,MacIntel,60.0024001,Chrome,1440,900,,,l,1.0685,10,55,0,0,9,9,5,1,0,1,0,0,0,0,0,1,circle,star,,,,,,,,,,,,,,,,,,,,,,,,,,,,,,,,,,,,,,,,,,,,,,,,,,,,,,
297769,2022-12-06_16h01.30.768,vts_reward_expectancy_bt,2022.2.4,MacIntel,60.0024001,Chrome,1440,900,,,l,0.9828,10,65,0,0,10,10,2,1,1,0,0,0,0,0,0,1,triangle,star,,,,,,,,,,,,,,,,,,,,,,,,,,,,,,,,,,,,,,,,,,,,,,,,,,,,,,
297769,2022-12-06_16h01.30.768,vts_reward_expectancy_bt,2022.2.4,MacIntel,60.0024001,Chrome,1440,900,,,a,1.3195,10,75,0,0,11,11,3,1,0,1,0,0,1,0,0,0,circle,triangle,,,,,,,,,,,,,,,,,,,,,,,,,,,,,,,,,,,,,,,,,,,,,,,,,,,,,,
297769,2022-12-06_16h01.30.768,vts_reward_expectancy_bt,2022.2.4,MacIntel,60.0024001,Chrome,1440,900,,,l,1.2073,10,85,0,1,0,12,6,1,0,0,1,0,1,0,0,0,hexagon,triangle,,,,,,,,,,,,,,,,,,,,,,,,,,,,,,,,,,,,,,,,,,,,,,,,,,,,,,
297769,2022-12-06_16h01.30.768,vts_reward_expectancy_bt,2022.2.4,MacIntel,60.0024001,Chrome,1440,900,,,l,1.5998,1,86,0,1,1,13,11,1,0,0,0,1,0,0,1,0,star,hexagon,,,,,,,,,,,,,,,,,,,,,,,,,,,,,,,,,,,,,,,,,,,,,,,,,,,,,,
297769,2022-12-06_16h01.30.768,vts_reward_expectancy_bt,2022.2.4,MacIntel,60.0024001,Chrome,1440,900,,,a,0.8909,10,96,0,1,2,14,9,1,0,0,0,1,1,0,0,0,star,triangle,,,,,,,,,,,,,,,,,,,,,,,,,,,,,,,,,,,,,,,,,,,,,,,,,,,,,,
297769,2022-12-06_16h01.30.768,vts_reward_expectancy_bt,2022.2.4,MacIntel,60.0024001,Chrome,1440,900,,,a,1.2156,10,106,0,1,3,15,8,1,0,0,1,0,0,0,0,1,hexagon,star,,,,,,,,,,,,,,,,,,,,,,,,,,,,,,,,,,,,,,,,,,,,,,,,,,,,,,
297769,2022-12-06_16h01.30.768,vts_reward_expectancy_bt,2022.2.4,MacIntel,60.0024001,Chrome,1440,900,,,l,1.2607,1,107,0,1,4,16,1,1,1,0,0,0,0,0,1,0,triangle,hexagon,,,,,,,,,,,,,,,,,,,,,,,,,,,,,,,,,,,,,,,,,,,,,,,,,,,,,,
297769,2022-12-06_16h01.30.768,vts_reward_expectancy_bt,2022.2.4,MacIntel,60.0024001,Chrome,1440,900,,,a,2.9771,10,117,0,1,5,17,3,1,0,1,0,0,1,0,0,0,circle,triangle,,,,,,,,,,,,,,,,,,,,,,,,,,,,,,,,,,,,,,,,,,,,,,,,,,,,,,
297769,2022-12-06_16h01.30.768,vts_reward_expectancy_bt,2022.2.4,MacIntel,60.0024001,Chrome,1440,900,,,l,2.9193,1,118,0,1,6,18,7,1,0,0,1,0,0,1,0,0,hexagon,circle,,,,,,,,,,,,,,,,,,,,,,,,,,,,,,,,,,,,,,,,,,,,,,,,,,,,,,
297769,2022-12-06_16h01.30.768,vts_reward_expectancy_bt,2022.2.4,MacIntel,60.0024001,Chrome,1440,900,,,a,9.2102,10,128,0,1,7,19,4,1,0,1,0,0,0,0,1,0,circle,hexagon,,,,,,,,,,,,,,,,,,,,,,,,,,,,,,,,,,,,,,,,,,,,,,,,,,,,,,
297769,2022-12-06_16h01.30.768,vts_reward_expectancy_bt,2022.2.4,MacIntel,60.0024001,Chrome,1440,900,,,l,4.7074,10,138,0,1,8,20,2,1,1,0,0,0,0,0,0,1,triangle,star,,,,,,,,,,,,,,,,,,,,,,,,,,,,,,,,,,,,,,,,,,,,,,,,,,,,,,
297769,2022-12-06_16h01.30.768,vts_reward_expectancy_bt,2022.2.4,MacIntel,60.0024001,Chrome,1440,900,,,l,1.7194,10,148,0,1,9,21,0,1,1,0,0,0,0,1,0,0,triangle,circle,,,,,,,,,,,,,,,,,,,,,,,,,,,,,,,,,,,,,,,,,,,,,,,,,,,,,,
297769,2022-12-06_16h01.30.768,vts_reward_expectancy_bt,2022.2.4,MacIntel,60.0024001,Chrome,1440,900,,,a,5.6867,10,158,0,1,10,22,10,1,0,0,0,1,0,1,0,0,star ,circle,,,,,,,,,,,,,,,,,,,,,,,,,,,,,,,,,,,,,,,,,,,,,,,,,,,,,,
297769,2022-12-06_16h01.30.768,vts_reward_expectancy_bt,2022.2.4,MacIntel,60.0024001,Chrome,1440,900,,,l,1.2401,10,168,0,1,11,23,5,1,0,1,0,0,0,0,0,1,circle,star,,,,,,,,,,,,,,,,,,,,,,,,,,,,,,,,,,,,,,,,,,,,,,,,,,,,,,
297769,2022-12-06_16h01.30.768,vts_reward_expectancy_bt,2022.2.4,MacIntel,60.0024001,Chrome,1440,900,,,a,1.0158,10,178,0,2,0,24,10,1,0,0,0,1,0,1,0,0,star ,circle,,,,,,,,,,,,,,,,,,,,,,,,,,,,,,,,,,,,,,,,,,,,,,,,,,,,,,
297769,2022-12-06_16h01.30.768,vts_reward_expectancy_bt,2022.2.4,MacIntel,60.0024001,Chrome,1440,900,,,l,1.8353,10,188,0,2,1,25,0,1,1,0,0,0,0,1,0,0,triangle,circle,,,,,,,,,,,,,,,,,,,,,,,,,,,,,,,,,,,,,,,,,,,,,,,,,,,,,,
297769,2022-12-06_16h01.30.768,vts_reward_expectancy_bt,2022.2.4,MacIntel,60.0024001,Chrome,1440,900,,,a,5.009,10,198,0,2,2,26,11,1,0,0,0,1,0,0,1,0,star,hexagon,,,,,,,,,,,,,,,,,,,,,,,,,,,,,,,,,,,,,,,,,,,,,,,,,,,,,,
297769,2022-12-06_16h01.30.768,vts_reward_expectancy_bt,2022.2.4,MacIntel,60.0024001,Chrome,1440,900,,,l,3.1056,10,208,0,2,3,27,5,1,0,1,0,0,0,0,0,1,circle,star,,,,,,,,,,,,,,,,,,,,,,,,,,,,,,,,,,,,,,,,,,,,,,,,,,,,,,
297769,2022-12-06_16h01.30.768,vts_reward_expectancy_bt,2022.2.4,MacIntel,60.0024001,Chrome,1440,900,,,l,0.9246,10,218,0,2,4,28,2,1,1,0,0,0,0,0,0,1,triangle,star,,,,,,,,,,,,,,,,,,,,,,,,,,,,,,,,,,,,,,,,,,,,,,,,,,,,,,
297769,2022-12-06_16h01.30.768,vts_reward_expectancy_bt,2022.2.4,MacIntel,60.0024001,Chrome,1440,900,,,l,4.0327,1,219,0,2,5,29,1,1,1,0,0,0,0,0,1,0,triangle,hexagon,,,,,,,,,,,,,,,,,,,,,,,,,,,,,,,,,,,,,,,,,,,,,,,,,,,,,,
297769,2022-12-06_16h01.30.768,vts_reward_expectancy_bt,2022.2.4,MacIntel,60.0024001,Chrome,1440,900,,,a,6.6559,1,220,0,2,6,30,4,1,0,1,0,0,0,0,1,0,circle,hexagon,,,,,,,,,,,,,,,,,,,,,,,,,,,,,,,,,,,,,,,,,,,,,,,,,,,,,,
297769,2022-12-06_16h01.30.768,vts_reward_expectancy_bt,2022.2.4,MacIntel,60.0024001,Chrome,1440,900,,,l,3.1905,10,230,0,2,7,31,3,1,0,1,0,0,1,0,0,0,circle,triangle,,,,,,,,,,,,,,,,,,,,,,,,,,,,,,,,,,,,,,,,,,,,,,,,,,,,,,
297769,2022-12-06_16h01.30.768,vts_reward_expectancy_bt,2022.2.4,MacIntel,60.0024001,Chrome,1440,900,,,a,50.4493,10,240,0,2,8,32,6,1,0,0,1,0,1,0,0,0,hexagon,triangle,,,,,,,,,,,,,,,,,,,,,,,,,,,,,,,,,,,,,,,,,,,,,,,,,,,,,,
297769,2022-12-06_16h01.30.768,vts_reward_expectancy_bt,2022.2.4,MacIntel,60.0024001,Chrome,1440,900,,,l,1.1392,10,250,0,2,9,33,8,1,0,0,1,0,0,0,0,1,hexagon,star,,,,,,,,,,,,,,,,,,,,,,,,,,,,,,,,,,,,,,,,,,,,,,,,,,,,,,
297769,2022-12-06_16h01.30.768,vts_reward_expectancy_bt,2022.2.4,MacIntel,60.0024001,Chrome,1440,900,,,a,0.6035,10,260,0,2,10,34,9,1,0,0,0,1,1,0,0,0,star,triangle,,,,,,,,,,,,,,,,,,,,,,,,,,,,,,,,,,,,,,,,,,,,,,,,,,,,,,
297769,2022-12-06_16h01.30.768,vts_reward_expectancy_bt,2022.2.4,MacIntel,60.0024001,Chrome,1440,900,,,a,2.7039,1,261,0,2,11,35,7,1,0,0,1,0,0,1,0,0,hexagon,circle,,,,,,,,,,,,,,,,,,,,,,,,,,,,,,,,,,,,,,,,,,,,,,,,,,,,,,
297769,2022-12-06_16h01.30.768,vts_reward_expectancy_bt,2022.2.4,MacIntel,60.0024001,Chrome,1440,900,,,a,1.3992,1,262,1,0,0,0,10,1,0,0,0,1,0,1,0,0,star ,circle,,,,,,,,,,,,,,,,,,,,,,,,,,,,,,,,,,,,,,,,,,,,,,,,,,,,,,
297769,2022-12-06_16h01.30.768,vts_reward_expectancy_bt,2022.2.4,MacIntel,60.0024001,Chrome,1440,900,,,a,0.8327,10,272,1,0,1,1,9,1,0,0,0,1,1,0,0,0,star,triangle,,,,,,,,,,,,,,,,,,,,,,,,,,,,,,,,,,,,,,,,,,,,,,,,,,,,,,
297769,2022-12-06_16h01.30.768,vts_reward_expectancy_bt,2022.2.4,MacIntel,60.0024001,Chrome,1440,900,,,l,0.541,10,282,1,0,2,2,2,1,1,0,0,0,0,0,0,1,triangle,star,,,,,,,,,,,,,,,,,,,,,,,,,,,,,,,,,,,,,,,,,,,,,,,,,,,,,,
297769,2022-12-06_16h01.30.768,vts_reward_expectancy_bt,2022.2.4,MacIntel,60.0024001,Chrome,1440,900,,,a,1.3203,1,283,1,0,3,3,7,1,0,0,1,0,0,1,0,0,hexagon,circle,,,,,,,,,,,,,,,,,,,,,,,,,,,,,,,,,,,,,,,,,,,,,,,,,,,,,,
297769,2022-12-06_16h01.30.768,vts_reward_expectancy_bt,2022.2.4,MacIntel,60.0024001,Chrome,1440,900,,,l,0.5356,1,284,1,0,4,4,1,1,1,0,0,0,0,0,1,0,triangle,hexagon,,,,,,,,,,,,,,,,,,,,,,,,,,,,,,,,,,,,,,,,,,,,,,,,,,,,,,
297769,2022-12-06_16h01.30.768,vts_reward_expectancy_bt,2022.2.4,MacIntel,60.0024001,Chrome,1440,900,,,a,0.633,10,294,1,0,5,5,11,1,0,0,0,1,0,0,1,0,star,hexagon,,,,,,,,,,,,,,,,,,,,,,,,,,,,,,,,,,,,,,,,,,,,,,,,,,,,,,
297769,2022-12-06_16h01.30.768,vts_reward_expectancy_bt,2022.2.4,MacIntel,60.0024001,Chrome,1440,900,,,a,0.7323,1,295,1,0,6,6,4,1,0,1,0,0,0,0,1,0,circle,hexagon,,,,,,,,,,,,,,,,,,,,,,,,,,,,,,,,,,,,,,,,,,,,,,,,,,,,,,
297769,2022-12-06_16h01.30.768,vts_reward_expectancy_bt,2022.2.4,MacIntel,60.0024001,Chrome,1440,900,,,a,0.6562,1,296,1,0,7,7,3,1,0,1,0,0,1,0,0,0,circle,triangle,,,,,,,,,,,,,,,,,,,,,,,,,,,,,,,,,,,,,,,,,,,,,,,,,,,,,,
297769,2022-12-06_16h01.30.768,vts_reward_expectancy_bt,2022.2.4,MacIntel,60.0024001,Chrome,1440,900,,,l,0.4154,10,306,1,0,8,8,8,1,0,0,1,0,0,0,0,1,hexagon,star,,,,,,,,,,,,,,,,,,,,,,,,,,,,,,,,,,,,,,,,,,,,,,,,,,,,,,
297769,2022-12-06_16h01.30.768,vts_reward_expectancy_bt,2022.2.4,MacIntel,60.0024001,Chrome,1440,900,,,l,0.6831,10,316,1,0,9,9,0,1,1,0,0,0,0,1,0,0,triangle,circle,,,,,,,,,,,,,,,,,,,,,,,,,,,,,,,,,,,,,,,,,,,,,,,,,,,,,,
297769,2022-12-06_16h01.30.768,vts_reward_expectancy_bt,2022.2.4,MacIntel,60.0024001,Chrome,1440,900,,,a,2.2813,10,326,1,0,10,10,6,1,0,0,1,0,1,0,0,0,hexagon,triangle,,,,,,,,,,,,,,,,,,,,,,,,,,,,,,,,,,,,,,,,,,,,,,,,,,,,,,
297769,2022-12-06_16h01.30.768,vts_reward_expectancy_bt,2022.2.4,MacIntel,60.0024001,Chrome,1440,900,,,l,0.5892,10,336,1,0,11,11,5,1,0,1,0,0,0,0,0,1,circle,star,,,,,,,,,,,,,,,,,,,,,,,,,,,,,,,,,,,,,,,,,,,,,,,,,,,,,,
297769,2022-12-06_16h01.30.768,vts_reward_expectancy_bt,2022.2.4,MacIntel,60.0024001,Chrome,1440,900,,,a,0.6364,10,346,1,1,0,12,10,1,0,0,0,1,0,1,0,0,star ,circle,,,,,,,,,,,,,,,,,,,,,,,,,,,,,,,,,,,,,,,,,,,,,,,,,,,,,,
297769,2022-12-06_16h01.30.768,vts_reward_expectancy_bt,2022.2.4,MacIntel,60.0024001,Chrome,1440,900,,,l,1.6223,1,347,1,1,1,13,0,1,1,0,0,0,0,1,0,0,triangle,circle,,,,,,,,,,,,,,,,,,,,,,,,,,,,,,,,,,,,,,,,,,,,,,,,,,,,,,
297769,2022-12-06_16h01.30.768,vts_reward_expectancy_bt,2022.2.4,MacIntel,60.0024001,Chrome,1440,900,,,l,0.674,10,357,1,1,2,14,2,1,1,0,0,0,0,0,0,1,triangle,star,,,,,,,,,,,,,,,,,,,,,,,,,,,,,,,,,,,,,,,,,,,,,,,,,,,,,,
297769,2022-12-06_16h01.30.768,vts_reward_expectancy_bt,2022.2.4,MacIntel,60.0024001,Chrome,1440,900,,,a,0.8004,10,367,1,1,3,15,3,1,0,1,0,0,1,0,0,0,circle,triangle,,,,,,,,,,,,,,,,,,,,,,,,,,,,,,,,,,,,,,,,,,,,,,,,,,,,,,
297769,2022-12-06_16h01.30.768,vts_reward_expectancy_bt,2022.2.4,MacIntel,60.0024001,Chrome,1440,900,,,a,0.718,10,377,1,1,4,16,1,1,1,0,0,0,0,0,1,0,triangle,hexagon,,,,,,,,,,,,,,,,,,,,,,,,,,,,,,,,,,,,,,,,,,,,,,,,,,,,,,
297769,2022-12-06_16h01.30.768,vts_reward_expectancy_bt,2022.2.4,MacIntel,60.0024001,Chrome,1440,900,,,l,1.0994,10,387,1,1,5,17,6,1,0,0,1,0,1,0,0,0,hexagon,triangle,,,,,,,,,,,,,,,,,,,,,,,,,,,,,,,,,,,,,,,,,,,,,,,,,,,,,,
297769,2022-12-06_16h01.30.768,vts_reward_expectancy_bt,2022.2.4,MacIntel,60.0024001,Chrome,1440,900,,,l,0.572,10,397,1,1,6,18,8,1,0,0,1,0,0,0,0,1,hexagon,star,,,,,,,,,,,,,,,,,,,,,,,,,,,,,,,,,,,,,,,,,,,,,,,,,,,,,,
297769,2022-12-06_16h01.30.768,vts_reward_expectancy_bt,2022.2.4,MacIntel,60.0024001,Chrome,1440,900,,,a,0.6899,10,407,1,1,7,19,11,1,0,0,0,1,0,0,1,0,star,hexagon,,,,,,,,,,,,,,,,,,,,,,,,,,,,,,,,,,,,,,,,,,,,,,,,,,,,,,
297769,2022-12-06_16h01.30.768,vts_reward_expectancy_bt,2022.2.4,MacIntel,60.0024001,Chrome,1440,900,,,l,0.8536,1,408,1,1,8,20,7,1,0,0,1,0,0,1,0,0,hexagon,circle,,,,,,,,,,,,,,,,,,,,,,,,,,,,,,,,,,,,,,,,,,,,,,,,,,,,,,
297769,2022-12-06_16h01.30.768,vts_reward_expectancy_bt,2022.2.4,MacIntel,60.0024001,Chrome,1440,900,,,l,0.7451,10,418,1,1,9,21,5,1,0,1,0,0,0,0,0,1,circle,star,,,,,,,,,,,,,,,,,,,,,,,,,,,,,,,,,,,,,,,,,,,,,,,,,,,,,,
297769,2022-12-06_16h01.30.768,vts_reward_expectancy_bt,2022.2.4,MacIntel,60.0024001,Chrome,1440,900,,,l,1.1366,1,419,1,1,10,22,4,1,0,1,0,0,0,0,1,0,circle,hexagon,,,,,,,,,,,,,,,,,,,,,,,,,,,,,,,,,,,,,,,,,,,,,,,,,,,,,,
297769,2022-12-06_16h01.30.768,vts_reward_expectancy_bt,2022.2.4,MacIntel,60.0024001,Chrome,1440,900,,,a,1.0028,10,429,1,1,11,23,9,1,0,0,0,1,1,0,0,0,star,triangle,,,,,,,,,,,,,,,,,,,,,,,,,,,,,,,,,,,,,,,,,,,,,,,,,,,,,,
297769,2022-12-06_16h01.30.768,vts_reward_expectancy_bt,2022.2.4,MacIntel,60.0024001,Chrome,1440,900,,,a,0.7537,10,439,1,2,0,24,0,1,1,0,0,0,0,1,0,0,triangle,circle,,,,,,,,,,,,,,,,,,,,,,,,,,,,,,,,,,,,,,,,,,,,,,,,,,,,,,
297769,2022-12-06_16h01.30.768,vts_reward_expectancy_bt,2022.2.4,MacIntel,60.0024001,Chrome,1440,900,,,l,0.7072,10,449,1,2,1,25,7,1,0,0,1,0,0,1,0,0,hexagon,circle,,,,,,,,,,,,,,,,,,,,,,,,,,,,,,,,,,,,,,,,,,,,,,,,,,,,,,
297769,2022-12-06_16h01.30.768,vts_reward_expectancy_bt,2022.2.4,MacIntel,60.0024001,Chrome,1440,900,,,a,0.6897,10,459,1,2,2,26,3,1,0,1,0,0,1,0,0,0,circle,triangle,,,,,,,,,,,,,,,,,,,,,,,,,,,,,,,,,,,,,,,,,,,,,,,,,,,,,,
297769,2022-12-06_16h01.30.768,vts_reward_expectancy_bt,2022.2.4,MacIntel,60.0024001,Chrome,1440,900,,,a,0.317,1,460,1,2,3,27,8,1,0,0,1,0,0,0,0,1,hexagon,star,,,,,,,,,,,,,,,,,,,,,,,,,,,,,,,,,,,,,,,,,,,,,,,,,,,,,,
297769,2022-12-06_16h01.30.768,vts_reward_expectancy_bt,2022.2.4,MacIntel,60.0024001,Chrome,1440,900,,,a,0.3827,10,470,1,2,4,28,2,1,1,0,0,0,0,0,0,1,triangle,star,,,,,,,,,,,,,,,,,,,,,,,,,,,,,,,,,,,,,,,,,,,,,,,,,,,,,,
297769,2022-12-06_16h01.30.768,vts_reward_expectancy_bt,2022.2.4,MacIntel,60.0024001,Chrome,1440,900,,,l,0.3676,10,480,1,2,5,29,5,1,0,1,0,0,0,0,0,1,circle,star,,,,,,,,,,,,,,,,,,,,,,,,,,,,,,,,,,,,,,,,,,,,,,,,,,,,,,
297769,2022-12-06_16h01.30.768,vts_reward_expectancy_bt,2022.2.4,MacIntel,60.0024001,Chrome,1440,900,,,l,0.3663,10,490,1,2,6,30,9,1,0,0,0,1,1,0,0,0,star,triangle,,,,,,,,,,,,,,,,,,,,,,,,,,,,,,,,,,,,,,,,,,,,,,,,,,,,,,
297769,2022-12-06_16h01.30.768,vts_reward_expectancy_bt,2022.2.4,MacIntel,60.0024001,Chrome,1440,900,,,a,0.6831,1,491,1,2,7,31,4,1,0,1,0,0,0,0,1,0,circle,hexagon,,,,,,,,,,,,,,,,,,,,,,,,,,,,,,,,,,,,,,,,,,,,,,,,,,,,,,
297769,2022-12-06_16h01.30.768,vts_reward_expectancy_bt,2022.2.4,MacIntel,60.0024001,Chrome,1440,900,,,l,0.5694,1,492,1,2,8,32,1,1,1,0,0,0,0,0,1,0,triangle,hexagon,,,,,,,,,,,,,,,,,,,,,,,,,,,,,,,,,,,,,,,,,,,,,,,,,,,,,,
297769,2022-12-06_16h01.30.768,vts_reward_expectancy_bt,2022.2.4,MacIntel,60.0024001,Chrome,1440,900,,,a,0.5742,1,493,1,2,9,33,11,1,0,0,0,1,0,0,1,0,star,hexagon,,,,,,,,,,,,,,,,,,,,,,,,,,,,,,,,,,,,,,,,,,,,,,,,,,,,,,
297769,2022-12-06_16h01.30.768,vts_reward_expectancy_bt,2022.2.4,MacIntel,60.0024001,Chrome,1440,900,,,l,0.5494,1,494,1,2,10,34,6,1,0,0,1,0,1,0,0,0,hexagon,triangle,,,,,,,,,,,,,,,,,,,,,,,,,,,,,,,,,,,,,,,,,,,,,,,,,,,,,,
297769,2022-12-06_16h01.30.768,vts_reward_expectancy_bt,2022.2.4,MacIntel,60.0024001,Chrome,1440,900,,,a,7.5666,1,495,1,2,11,35,10,1,0,0,0,1,0,1,0,0,star ,circle,,,,,,,,,,,,,,,,,,,,,,,,,,,,,,,,,,,,,,,,,,,,,,,,,,,,,,
297769,2022-12-06_16h01.30.768,vts_reward_expectancy_bt,2022.2.4,MacIntel,60.0024001,Chrome,1440,900,,,l,0.8454,10,505,2,0,0,0,5,1,0,1,0,0,0,0,0,1,circle,star,,,,,,,,,,,,,,,,,,,,,,,,,,,,,,,,,,,,,,,,,,,,,,,,,,,,,,
297769,2022-12-06_16h01.30.768,vts_reward_expectancy_bt,2022.2.4,MacIntel,60.0024001,Chrome,1440,900,,,a,0.5164,10,515,2,0,1,1,10,1,0,0,0,1,0,1,0,0,star ,circle,,,,,,,,,,,,,,,,,,,,,,,,,,,,,,,,,,,,,,,,,,,,,,,,,,,,,,
297769,2022-12-06_16h01.30.768,vts_reward_expectancy_bt,2022.2.4,MacIntel,60.0024001,Chrome,1440,900,,,l,0.5379,1,516,2,0,2,2,0,1,1,0,0,0,0,1,0,0,triangle,circle,,,,,,,,,,,,,,,,,,,,,,,,,,,,,,,,,,,,,,,,,,,,,,,,,,,,,,
297769,2022-12-06_16h01.30.768,vts_reward_expectancy_bt,2022.2.4,MacIntel,60.0024001,Chrome,1440,900,,,a,0.5823,1,517,2,0,3,3,6,1,0,0,1,0,1,0,0,0,hexagon,triangle,,,,,,,,,,,,,,,,,,,,,,,,,,,,,,,,,,,,,,,,,,,,,,,,,,,,,,
297769,2022-12-06_16h01.30.768,vts_reward_expectancy_bt,2022.2.4,MacIntel,60.0024001,Chrome,1440,900,,,l,0.5615,10,527,2,0,4,4,1,1,1,0,0,0,0,0,1,0,triangle,hexagon,,,,,,,,,,,,,,,,,,,,,,,,,,,,,,,,,,,,,,,,,,,,,,,,,,,,,,
297769,2022-12-06_16h01.30.768,vts_reward_expectancy_bt,2022.2.4,MacIntel,60.0024001,Chrome,1440,900,,,a,0.5991,10,537,2,0,5,5,7,1,0,0,1,0,0,1,0,0,hexagon,circle,,,,,,,,,,,,,,,,,,,,,,,,,,,,,,,,,,,,,,,,,,,,,,,,,,,,,,
297769,2022-12-06_16h01.30.768,vts_reward_expectancy_bt,2022.2.4,MacIntel,60.0024001,Chrome,1440,900,,,l,0.5199,10,547,2,0,6,6,3,1,0,1,0,0,1,0,0,0,circle,triangle,,,,,,,,,,,,,,,,,,,,,,,,,,,,,,,,,,,,,,,,,,,,,,,,,,,,,,
297769,2022-12-06_16h01.30.768,vts_reward_expectancy_bt,2022.2.4,MacIntel,60.0024001,Chrome,1440,900,,,a,0.8124,10,557,2,0,7,7,11,1,0,0,0,1,0,0,1,0,star,hexagon,,,,,,,,,,,,,,,,,,,,,,,,,,,,,,,,,,,,,,,,,,,,,,,,,,,,,,
297769,2022-12-06_16h01.30.768,vts_reward_expectancy_bt,2022.2.4,MacIntel,60.0024001,Chrome,1440,900,,,a,2.0154,10,567,2,0,8,8,9,1,0,0,0,1,1,0,0,0,star,triangle,,,,,,,,,,,,,,,,,,,,,,,,,,,,,,,,,,,,,,,,,,,,,,,,,,,,,,
297769,2022-12-06_16h01.30.768,vts_reward_expectancy_bt,2022.2.4,MacIntel,60.0024001,Chrome,1440,900,,,l,0.5797,10,577,2,0,9,9,2,1,1,0,0,0,0,0,0,1,triangle,star,,,,,,,,,,,,,,,,,,,,,,,,,,,,,,,,,,,,,,,,,,,,,,,,,,,,,,
297769,2022-12-06_16h01.30.768,vts_reward_expectancy_bt,2022.2.4,MacIntel,60.0024001,Chrome,1440,900,,,l,0.8043,10,587,2,0,10,10,4,1,0,1,0,0,0,0,1,0,circle,hexagon,,,,,,,,,,,,,,,,,,,,,,,,,,,,,,,,,,,,,,,,,,,,,,,,,,,,,,
297769,2022-12-06_16h01.30.768,vts_reward_expectancy_bt,2022.2.4,MacIntel,60.0024001,Chrome,1440,900,,,l,6.3125,10,597,2,0,11,11,8,1,0,0,1,0,0,0,0,1,hexagon,star,,,,,,,,,,,,,,,,,,,,,,,,,,,,,,,,,,,,,,,,,,,,,,,,,,,,,,
297769,2022-12-06_16h01.30.768,vts_reward_expectancy_bt,2022.2.4,MacIntel,60.0024001,Chrome,1440,900,,,l,6.0734,10,607,2,1,0,12,5,1,0,1,0,0,0,0,0,1,circle,star,,,,,,,,,,,,,,,,,,,,,,,,,,,,,,,,,,,,,,,,,,,,,,,,,,,,,,
297769,2022-12-06_16h01.30.768,vts_reward_expectancy_bt,2022.2.4,MacIntel,60.0024001,Chrome,1440,900,,,a,11.2634,1,608,2,1,1,13,1,1,1,0,0,0,0,0,1,0,triangle,hexagon,,,,,,,,,,,,,,,,,,,,,,,,,,,,,,,,,,,,,,,,,,,,,,,,,,,,,,
297769,2022-12-06_16h01.30.768,vts_reward_expectancy_bt,2022.2.4,MacIntel,60.0024001,Chrome,1440,900,,,a,0.5244,10,618,2,1,2,14,3,1,0,1,0,0,1,0,0,0,circle,triangle,,,,,,,,,,,,,,,,,,,,,,,,,,,,,,,,,,,,,,,,,,,,,,,,,,,,,,
297769,2022-12-06_16h01.30.768,vts_reward_expectancy_bt,2022.2.4,MacIntel,60.0024001,Chrome,1440,900,,,a,0.3723,10,628,2,1,3,15,9,1,0,0,0,1,1,0,0,0,star,triangle,,,,,,,,,,,,,,,,,,,,,,,,,,,,,,,,,,,,,,,,,,,,,,,,,,,,,,
297769,2022-12-06_16h01.30.768,vts_reward_expectancy_bt,2022.2.4,MacIntel,60.0024001,Chrome,1440,900,,,l,0.5749,10,638,2,1,4,16,2,1,1,0,0,0,0,0,0,1,triangle,star,,,,,,,,,,,,,,,,,,,,,,,,,,,,,,,,,,,,,,,,,,,,,,,,,,,,,,
297769,2022-12-06_16h01.30.768,vts_reward_expectancy_bt,2022.2.4,MacIntel,60.0024001,Chrome,1440,900,,,a,0.3679,10,648,2,1,5,17,11,1,0,0,0,1,0,0,1,0,star,hexagon,,,,,,,,,,,,,,,,,,,,,,,,,,,,,,,,,,,,,,,,,,,,,,,,,,,,,,
297769,2022-12-06_16h01.30.768,vts_reward_expectancy_bt,2022.2.4,MacIntel,60.0024001,Chrome,1440,900,,,a,0.4149,10,658,2,1,6,18,0,1,1,0,0,0,0,1,0,0,triangle,circle,,,,,,,,,,,,,,,,,,,,,,,,,,,,,,,,,,,,,,,,,,,,,,,,,,,,,,
297769,2022-12-06_16h01.30.768,vts_reward_expectancy_bt,2022.2.4,MacIntel,60.0024001,Chrome,1440,900,,,l,0.4559,10,668,2,1,7,19,8,1,0,0,1,0,0,0,0,1,hexagon,star,,,,,,,,,,,,,,,,,,,,,,,,,,,,,,,,,,,,,,,,,,,,,,,,,,,,,,
297769,2022-12-06_16h01.30.768,vts_reward_expectancy_bt,2022.2.4,MacIntel,60.0024001,Chrome,1440,900,,,a,0.4579,10,678,2,1,8,20,6,1,0,0,1,0,1,0,0,0,hexagon,triangle,,,,,,,,,,,,,,,,,,,,,,,,,,,,,,,,,,,,,,,,,,,,,,,,,,,,,,
297769,2022-12-06_16h01.30.768,vts_reward_expectancy_bt,2022.2.4,MacIntel,60.0024001,Chrome,1440,900,,,l,0.5151,1,679,2,1,9,21,4,1,0,1,0,0,0,0,1,0,circle,hexagon,,,,,,,,,,,,,,,,,,,,,,,,,,,,,,,,,,,,,,,,,,,,,,,,,,,,,,
297769,2022-12-06_16h01.30.768,vts_reward_expectancy_bt,2022.2.4,MacIntel,60.0024001,Chrome,1440,900,,,a,0.4167,1,680,2,1,10,22,10,1,0,0,0,1,0,1,0,0,star ,circle,,,,,,,,,,,,,,,,,,,,,,,,,,,,,,,,,,,,,,,,,,,,,,,,,,,,,,
297769,2022-12-06_16h01.30.768,vts_reward_expectancy_bt,2022.2.4,MacIntel,60.0024001,Chrome,1440,900,,,l,0.8217,1,681,2,1,11,23,7,1,0,0,1,0,0,1,0,0,hexagon,circle,,,,,,,,,,,,,,,,,,,,,,,,,,,,,,,,,,,,,,,,,,,,,,,,,,,,,,
297769,2022-12-06_16h01.30.768,vts_reward_expectancy_bt,2022.2.4,MacIntel,60.0024001,Chrome,1440,900,,,a,0.3914,1,682,2,2,0,24,1,1,1,0,0,0,0,0,1,0,triangle,hexagon,,,,,,,,,,,,,,,,,,,,,,,,,,,,,,,,,,,,,,,,,,,,,,,,,,,,,,
297769,2022-12-06_16h01.30.768,vts_reward_expectancy_bt,2022.2.4,MacIntel,60.0024001,Chrome,1440,900,,,l,0.1997,1,683,2,2,1,25,0,1,1,0,0,0,0,1,0,0,triangle,circle,,,,,,,,,,,,,,,,,,,,,,,,,,,,,,,,,,,,,,,,,,,,,,,,,,,,,,
297769,2022-12-06_16h01.30.768,vts_reward_expectancy_bt,2022.2.4,MacIntel,60.0024001,Chrome,1440,900,,,a,0.005,10,693,2,2,2,26,5,1,0,1,0,0,0,0,0,1,circle,star,,,,,,,,,,,,,,,,,,,,,,,,,,,,,,,,,,,,,,,,,,,,,,,,,,,,,,
297769,2022-12-06_16h01.30.768,vts_reward_expectancy_bt,2022.2.4,MacIntel,60.0024001,Chrome,1440,900,,,a,0.0044,1,694,2,2,3,27,8,1,0,0,1,0,0,0,0,1,hexagon,star,,,,,,,,,,,,,,,,,,,,,,,,,,,,,,,,,,,,,,,,,,,,,,,,,,,,,,
297769,2022-12-06_16h01.30.768,vts_reward_expectancy_bt,2022.2.4,MacIntel,60.0024001,Chrome,1440,900,,,a,0.0979,10,704,2,2,4,28,9,1,0,0,0,1,1,0,0,0,star,triangle,,,,,,,,,,,,,,,,,,,,,,,,,,,,,,,,,,,,,,,,,,,,,,,,,,,,,,
297769,2022-12-06_16h01.30.768,vts_reward_expectancy_bt,2022.2.4,MacIntel,60.0024001,Chrome,1440,900,,,a,0.1002,1,705,2,2,5,29,4,1,0,1,0,0,0,0,1,0,circle,hexagon,,,,,,,,,,,,,,,,,,,,,,,,,,,,,,,,,,,,,,,,,,,,,,,,,,,,,,
297769,2022-12-06_16h01.30.768,vts_reward_expectancy_bt,2022.2.4,MacIntel,60.0024001,Chrome,1440,900,,,a,0.0159,10,715,2,2,6,30,7,1,0,0,1,0,0,1,0,0,hexagon,circle,,,,,,,,,,,,,,,,,,,,,,,,,,,,,,,,,,,,,,,,,,,,,,,,,,,,,,
297769,2022-12-06_16h01.30.768,vts_reward_expectancy_bt,2022.2.4,MacIntel,60.0024001,Chrome,1440,900,,,l,0.233,10,725,2,2,7,31,11,1,0,0,0,1,0,0,1,0,star,hexagon,,,,,,,,,,,,,,,,,,,,,,,,,,,,,,,,,,,,,,,,,,,,,,,,,,,,,,
297769,2022-12-06_16h01.30.768,vts_reward_expectancy_bt,2022.2.4,MacIntel,60.0024001,Chrome,1440,900,,,l,0.0554,10,735,2,2,8,32,2,1,1,0,0,0,0,0,0,1,triangle,star,,,,,,,,,,,,,,,,,,,,,,,,,,,,,,,,,,,,,,,,,,,,,,,,,,,,,,
297769,2022-12-06_16h01.30.768,vts_reward_expectancy_bt,2022.2.4,MacIntel,60.0024001,Chrome,1440,900,,,a,0.0649,1,736,2,2,9,33,3,1,0,1,0,0,1,0,0,0,circle,triangle,,,,,,,,,,,,,,,,,,,,,,,,,,,,,,,,,,,,,,,,,,,,,,,,,,,,,,
297769,2022-12-06_16h01.30.768,vts_reward_expectancy_bt,2022.2.4,MacIntel,60.0024001,Chrome,1440,900,,,a,0.0085,1,737,2,2,10,34,6,1,0,0,1,0,1,0,0,0,hexagon,triangle,,,,,,,,,,,,,,,,,,,,,,,,,,,,,,,,,,,,,,,,,,,,,,,,,,,,,,
297769,2022-12-06_16h01.30.768,vts_reward_expectancy_bt,2022.2.4,MacIntel,60.0024001,Chrome,1440,900,,,l,0.1703,1,738,2,2,11,35,10,1,0,0,0,1,0,1,0,0,star ,circle,,,,,,,,,,,,,,,,,,,,,,,,,,,,,,,,,,,,,,,,,,,,,,,,,,,,,,
297769,2022-12-06_16h01.30.768,vts_reward_expectancy_bt,2022.2.4,MacIntel,60.0024001,Chrome,1440,900,,,,,,,,,,,,,,,,,,,,,,,139,D,star,0,0,,0,0,0,0,0,1,,,,,,,,,,,,,,,,,,,,,,,,,,,,,,,,,,,,,,,,,,
297769,2022-12-06_16h01.30.768,vts_reward_expectancy_bt,2022.2.4,MacIntel,60.0024001,Chrome,1440,900,,,,,,,,,,,,,,,,,,,,,,,125,W,hexagon,1,1,d,0,1,0,1,0,1,0.8637,,,,,,,,,,,,,,,,,,,,,,,,,,,,,,,,,,,,,,,,,
297769,2022-12-06_16h01.30.768,vts_reward_expectancy_bt,2022.2.4,MacIntel,60.0024001,Chrome,1440,900,,,,,,,,,,,,,,,,,,,,,,,146,F,circle,1,0,d,0,2,0,2,0,1,0.9153,,,,,,,,,,,,,,,,,,,,,,,,,,,,,,,,,,,,,,,,,
297769,2022-12-06_16h01.30.768,vts_reward_expectancy_bt,2022.2.4,MacIntel,60.0024001,Chrome,1440,900,,,,,,,,,,,,,,,,,,,,,,,132,B,triangle,1,0,d,0,3,0,3,0,1,0.9804,,,,,,,,,,,,,,,,,,,,,,,,,,,,,,,,,,,,,,,,,
297769,2022-12-06_16h01.30.768,vts_reward_expectancy_bt,2022.2.4,MacIntel,60.0024001,Chrome,1440,900,,,,,,,,,,,,,,,,,,,,,,,174,S,star,1,0,f,0,4,0,4,0,1,0.9222,,,,,,,,,,,,,,,,,,,,,,,,,,,,,,,,,,,,,,,,,
297769,2022-12-06_16h01.30.768,vts_reward_expectancy_bt,2022.2.4,MacIntel,60.0024001,Chrome,1440,900,,,,,,,,,,,,,,,,,,,,,,,181,H,hexagon,1,0,f,0,5,0,5,0,1,2.7196,,,,,,,,,,,,,,,,,,,,,,,,,,,,,,,,,,,,,,,,,
297769,2022-12-06_16h01.30.768,vts_reward_expectancy_bt,2022.2.4,MacIntel,60.0024001,Chrome,1440,900,,,,,,,,,,,,,,,,,,,,,,,167,Y,circle,1,0,f,0,6,0,6,0,1,0.752,,,,,,,,,,,,,,,,,,,,,,,,,,,,,,,,,,,,,,,,,
297769,2022-12-06_16h01.30.768,vts_reward_expectancy_bt,2022.2.4,MacIntel,60.0024001,Chrome,1440,900,,,,,,,,,,,,,,,,,,,,,,,160,U,triangle,1,0,f,0,7,0,7,0,1,2.6297,,,,,,,,,,,,,,,,,,,,,,,,,,,,,,,,,,,,,,,,,
297769,2022-12-06_16h01.30.768,vts_reward_expectancy_bt,2022.2.4,MacIntel,60.0024001,Chrome,1440,900,,,,,,,,,,,,,,,,,,,,,,,139,D,hexagon,1,0,d,0,8,0,8,0,1,1.3304,,,,,,,,,,,,,,,,,,,,,,,,,,,,,,,,,,,,,,,,,
297769,2022-12-06_16h01.30.768,vts_reward_expectancy_bt,2022.2.4,MacIntel,60.0024001,Chrome,1440,900,,,,,,,,,,,,,,,,,,,,,,,125,W,triangle,1,0,d,0,9,0,9,0,1,0.6818,,,,,,,,,,,,,,,,,,,,,,,,,,,,,,,,,,,,,,,,,
297769,2022-12-06_16h01.30.768,vts_reward_expectancy_bt,2022.2.4,MacIntel,60.0024001,Chrome,1440,900,,,,,,,,,,,,,,,,,,,,,,,125,D,circle,1,0,,1,,,,,,,j,1.4398,0,0,0,0,1,,,,,,,,,,,,,,,,,,,,,,,,,,,,,,,,,,
297769,2022-12-06_16h01.30.768,vts_reward_expectancy_bt,2022.2.4,MacIntel,60.0024001,Chrome,1440,900,,,,,,,,,,,,,,,,,,,,,,,181,U,triangle,1,0,,1,,,,,,,k,0.9312,1,0,1,0,1,,,,,,,,,,,,,,,,,,,,,,,,,,,,,,,,,,
297769,2022-12-06_16h01.30.768,vts_reward_expectancy_bt,2022.2.4,MacIntel,60.0024001,Chrome,1440,900,,,,,,,,,,,,,,,,,,,,,,,174,W,star,1,0,,1,,,,,,,k,0.8308,2,0,2,0,1,,,,,,,,,,,,,,,,,,,,,,,,,,,,,,,,,,
297769,2022-12-06_16h01.30.768,vts_reward_expectancy_bt,2022.2.4,MacIntel,60.0024001,Chrome,1440,900,,,,,,,,,,,,,,,,,,,,,,,139,S,hexagon,1,0,,1,,,,,,,k,1.7198,3,0,3,0,1,,,,,,,,,,,,,,,,,,,,,,,,,,,,,,,,,,
297769,2022-12-06_16h01.30.768,vts_reward_expectancy_bt,2022.2.4,MacIntel,60.0024001,Chrome,1440,900,,,,,,,,,,,,,,,,,,,,,,,160,Y,circle,1,0,,1,,,,,,,k,0.6142,4,0,4,0,1,,,,,,,,,,,,,,,,,,,,,,,,,,,,,,,,,,
297769,2022-12-06_16h01.30.768,vts_reward_expectancy_bt,2022.2.4,MacIntel,60.0024001,Chrome,1440,900,,,,,,,,,,,,,,,,,,,,,,,146,B,triangle,1,0,,1,,,,,,,j,0.7003,5,0,5,0,1,,,,,,,,,,,,,,,,,,,,,,,,,,,,,,,,,,
297769,2022-12-06_16h01.30.768,vts_reward_expectancy_bt,2022.2.4,MacIntel,60.0024001,Chrome,1440,900,,,,,,,,,,,,,,,,,,,,,,,132,H,star,1,0,,1,,,,,,,j,2.0648,6,0,6,0,1,,,,,,,,,,,,,,,,,,,,,,,,,,,,,,,,,,
297769,2022-12-06_16h01.30.768,vts_reward_expectancy_bt,2022.2.4,MacIntel,60.0024001,Chrome,1440,900,,,,,,,,,,,,,,,,,,,,,,,167,F,hexagon,1,0,,1,,,,,,,j,1.5476,7,0,7,0,1,,,,,,,,,,,,,,,,,,,,,,,,,,,,,,,,,,
297769,2022-12-06_16h01.30.768,vts_reward_expectancy_bt,2022.2.4,MacIntel,60.0024001,Chrome,1440,900,,,,,,,,,,,,,,,,,,,,,,,125,D,circle,1,0,,1,,,,,,,j,0.7189,8,0,8,0,1,,,,,,,,,,,,,,,,,,,,,,,,,,,,,,,,,,
297769,2022-12-06_16h01.30.768,vts_reward_expectancy_bt,2022.2.4,MacIntel,60.0024001,Chrome,1440,900,,,,,,,,,,,,,,,,,,,,,,,181,U,triangle,1,0,,1,,,,,,,k,0.6809,9,0,9,0,1,,,,,,,,,,,,,,,,,,,,,,,,,,,,,,,,,,
297769,2022-12-06_16h01.30.768,vts_reward_expectancy_bt,2022.2.4,MacIntel,60.0024001,Chrome,1440,900,,,,,0,738,,,,,,,,,,,,,,,,,132,H,hexagon,1,0,,2,,,,,,,,,,,,,,-1,number,NA,d,1.7772,vtsPrac,0,0,0,0,1,,,,,,,,,,,,,,,,,,,,,,,
297769,2022-12-06_16h01.30.768,vts_reward_expectancy_bt,2022.2.4,MacIntel,60.0024001,Chrome,1440,900,,,,,0,738,,,,,,,,,,,,,,,,,146,Y,star,1,0,,2,,,,,,,,,,,,,,repeat,number,numRpt,d,1.0977,vtsPrac,1,0,1,0,1,,,,,,,,,,,,,,,,,,,,,,,
297769,2022-12-06_16h01.30.768,vts_reward_expectancy_bt,2022.2.4,MacIntel,60.0024001,Chrome,1440,900,,,,,0,738,,,,,,,,,,,,,,,,,139,S,hexagon,1,0,,2,,,,,,,,,,,,,,repeat,number,numRpt,d,0.7471,vtsPrac,2,0,2,0,1,,,,,,,,,,,,,,,,,,,,,,,
297769,2022-12-06_16h01.30.768,vts_reward_expectancy_bt,2022.2.4,MacIntel,60.0024001,Chrome,1440,900,,,,,0,738,,,,,,,,,,,,,,,,,174,F,star,1,0,,2,,,,,,,,,,,,,,switch,letter,lettSwt,j,1.1344,vtsPrac,3,0,3,0,1,,,,,,,,,,,,,,,,,,,,,,,
297769,2022-12-06_16h01.30.768,vts_reward_expectancy_bt,2022.2.4,MacIntel,60.0024001,Chrome,1440,900,,,,,0,738,,,,,,,,,,,,,,,,,132,H,circle,1,0,,2,,,,,,,,,,,,,,switch,number,numSwt,d,0.6391,vtsPrac,4,0,4,0,1,,,,,,,,,,,,,,,,,,,,,,,
297769,2022-12-06_16h01.30.768,vts_reward_expectancy_bt,2022.2.4,MacIntel,60.0024001,Chrome,1440,900,,,,,0,738,,,,,,,,,,,,,,,,,146,Y,triangle,1,0,,2,,,,,,,,,,,,,,switch,letter,lettSwt,k,0.8962,vtsPrac,5,0,5,0,1,,,,,,,,,,,,,,,,,,,,,,,
297769,2022-12-06_16h01.30.768,vts_reward_expectancy_bt,2022.2.4,MacIntel,60.0024001,Chrome,1440,900,,,,,0,738,,,,,,,,,,,,,,,,,139,S,star,1,0,,2,,,,,,,,,,,,,,repeat,letter,lettRpt,k,0.7482,vtsPrac,6,0,6,0,1,,,,,,,,,,,,,,,,,,,,,,,
297769,2022-12-06_16h01.30.768,vts_reward_expectancy_bt,2022.2.4,MacIntel,60.0024001,Chrome,1440,900,,,,,0,738,,,,,,,,,,,,,,,,,174,F,hexagon,1,0,,2,,,,,,,,,,,,,,repeat,letter,lettRpt,j,1.2974,vtsPrac,7,0,7,0,1,,,,,,,,,,,,,,,,,,,,,,,
297769,2022-12-06_16h01.30.768,vts_reward_expectancy_bt,2022.2.4,MacIntel,60.0024001,Chrome,1440,900,,,,,0,738,,,,,,,,,,,,,,,,,160,W,star,1,0,,2,,,,,,,,,,,,,,repeat,letter,lettRpt,k,0.6722,vtsPrac,8,0,8,0,1,,,,,,,,,,,,,,,,,,,,,,,
297769,2022-12-06_16h01.30.768,vts_reward_expectancy_bt,2022.2.4,MacIntel,60.0024001,Chrome,1440,900,,,,,0,738,,,,,,,,,,,,,,,,,167,B,triangle,1,0,,2,,,,,,,,,,,,,,switch,number,numSwt,f,1.1301,vtsPrac,9,0,9,0,1,,,,,,,,,,,,,,,,,,,,,,,
297769,2022-12-06_16h01.30.768,vts_reward_expectancy_bt,2022.2.4,MacIntel,60.0024001,Chrome,1440,900,,,,,0,738,,,,,,,,,,,,,,,,,132,U,hexagon,1,0,,2,,,,,,,,,,,,,,repeat,number,numRpt,d,0.7646,vtsPrac,10,0,10,0,1,,,,,,,,,,,,,,,,,,,,,,,
297769,2022-12-06_16h01.30.768,vts_reward_expectancy_bt,2022.2.4,MacIntel,60.0024001,Chrome,1440,900,,,,,0,738,,,,,,,,,,,,,,,,,139,Y,circle,1,0,,2,,,,,,,,,,,,,,switch,letter,lettSwt,k,0.8986,vtsPrac,11,0,11,0,1,,,,,,,,,,,,,,,,,,,,,,,
297769,2022-12-06_16h01.30.768,vts_reward_expectancy_bt,2022.2.4,MacIntel,60.0024001,Chrome,1440,900,,,,,0,738,,,,,,,,,,,,,,,,,160,S,circle,1,0,,2,,,,,,,,,,,,,,repeat,letter,lettRpt,k,0.7972,vtsPrac,12,0,12,0,1,,,,,,,,,,,,,,,,,,,,,,,
297769,2022-12-06_16h01.30.768,vts_reward_expectancy_bt,2022.2.4,MacIntel,60.0024001,Chrome,1440,900,,,,,0,738,,,,,,,,,,,,,,,,,139,B,star,1,0,,2,,,,,,,,,,,,,,repeat,letter,lettRpt,j,1.6641,vtsPrac,13,0,13,0,1,,,,,,,,,,,,,,,,,,,,,,,
297769,2022-12-06_16h01.30.768,vts_reward_expectancy_bt,2022.2.4,MacIntel,60.0024001,Chrome,1440,900,,,,,0,738,,,,,,,,,,,,,,,,,146,D,hexagon,1,0,,2,,,,,,,,,,,,,,repeat,letter,lettRpt,j,1.9635,vtsPrac,14,0,14,0,1,,,,,,,,,,,,,,,,,,,,,,,
297769,2022-12-06_16h01.30.768,vts_reward_expectancy_bt,2022.2.4,MacIntel,60.0024001,Chrome,1440,900,,,,,0,738,,,,,,,,,,,,,,,,,125,H,circle,1,0,,2,,,,,,,,,,,,,,repeat,letter,lettRpt,j,1.6513,vtsPrac,15,0,15,0,1,,,,,,,,,,,,,,,,,,,,,,,
297769,2022-12-06_16h01.30.768,vts_reward_expectancy_bt,2022.2.4,MacIntel,60.0024001,Chrome,1440,900,,,,,0,738,,,,,,,,,,,,,,,,,125,B,circle,1,0,,2,,,,,,,,,,,,,,switch,number,numSwt,d,0.7994,vtsPrac,16,0,16,0,1,,,,,,,,,,,,,,,,,,,,,,,
297769,2022-12-06_16h01.30.768,vts_reward_expectancy_bt,2022.2.4,MacIntel,60.0024001,Chrome,1440,900,,,,,0,738,,,,,,,,,,,,,,,,,139,Y,hexagon,1,0,,2,,,,,,,,,,,,,,repeat,number,numRpt,d,0.6714,vtsPrac,17,0,17,0,1,,,,,,,,,,,,,,,,,,,,,,,
297769,2022-12-06_16h01.30.768,vts_reward_expectancy_bt,2022.2.4,MacIntel,60.0024001,Chrome,1440,900,,,,,0,738,,,,,,,,,,,,,,,,,174,D,hexagon,1,0,,2,,,,,,,,,,,,,,switch,letter,lettSwt,j,1.0806,vtsPrac,18,0,18,0,1,,,,,,,,,,,,,,,,,,,,,,,
297769,2022-12-06_16h01.30.768,vts_reward_expectancy_bt,2022.2.4,MacIntel,60.0024001,Chrome,1440,900,,,,,0,738,,,,,,,,,,,,,,,,,181,F,circle,1,0,,2,,,,,,,,,,,,,,switch,number,numSwt,f,0.7382,vtsPrac,19,0,19,0,1,,,,,,,,,,,,,,,,,,,,,,,
297769,2022-12-06_16h01.30.768,vts_reward_expectancy_bt,2022.2.4,MacIntel,60.0024001,Chrome,1440,900,,,,,0,738,,,,,,,,,,,,,,,,,174,W,hexagon,1,0,,2,,,,,,,,,,,,,,repeat,number,numRpt,f,0.8842,vtsPrac,20,0,20,0,1,,,,,,,,,,,,,,,,,,,,,,,
297769,2022-12-06_16h01.30.768,vts_reward_expectancy_bt,2022.2.4,MacIntel,60.0024001,Chrome,1440,900,,,,,0,738,,,,,,,,,,,,,,,,,125,U,circle,1,0,,2,,,,,,,,,,,,,,switch,letter,lettSwt,k,0.7213,vtsPrac,21,0,21,0,1,,,,,,,,,,,,,,,,,,,,,,,
297769,2022-12-06_16h01.30.768,vts_reward_expectancy_bt,2022.2.4,MacIntel,60.0024001,Chrome,1440,900,,,,,0,738,,,,,,,,,,,,,,,,,167,F,circle,1,0,,2,,,,,,,,,,,,,,repeat,letter,lettRpt,j,1.1648,vtsPrac,22,0,22,0,1,,,,,,,,,,,,,,,,,,,,,,,
297769,2022-12-06_16h01.30.768,vts_reward_expectancy_bt,2022.2.4,MacIntel,60.0024001,Chrome,1440,900,,,,,0,738,,,,,,,,,,,,,,,,,146,S,star,1,0,,2,,,,,,,,,,,,,,repeat,letter,lettRpt,k,0.8315,vtsPrac,23,0,23,0,1,,,,,,,,,,,,,,,,,,,,,,,
297769,2022-12-06_16h01.30.768,vts_reward_expectancy_bt,2022.2.4,MacIntel,60.0024001,Chrome,1440,900,,,,,0,738,,,,,,,,,,,,,,,,,181,B,triangle,1,0,,2,,,,,,,,,,,,,,repeat,letter,lettRpt,j,0.7883,vtsPrac,24,0,24,0,1,,,,,,,,,,,,,,,,,,,,,,,
297769,2022-12-06_16h01.30.768,vts_reward_expectancy_bt,2022.2.4,MacIntel,60.0024001,Chrome,1440,900,,,,,0,738,,,,,,,,,,,,,,,,,125,W,hexagon,1,0,,2,,,,,,,,,,,,,,switch,number,numSwt,d,1.1995,vtsPrac,25,0,25,0,1,,,,,,,,,,,,,,,,,,,,,,,
297769,2022-12-06_16h01.30.768,vts_reward_expectancy_bt,2022.2.4,MacIntel,60.0024001,Chrome,1440,900,,,,,0,738,,,,,,,,,,,,,,,,,146,F,hexagon,1,0,,2,,,,,,,,,,,,,,switch,letter,lettSwt,j,2.1148,vtsPrac,26,0,26,0,1,,,,,,,,,,,,,,,,,,,,,,,
297769,2022-12-06_16h01.30.768,vts_reward_expectancy_bt,2022.2.4,MacIntel,60.0024001,Chrome,1440,900,,,,,0,738,,,,,,,,,,,,,,,,,174,H,circle,1,0,,2,,,,,,,,,,,,,,switch,number,numSwt,f,0.8141,vtsPrac,27,0,27,0,1,,,,,,,,,,,,,,,,,,,,,,,
297769,2022-12-06_16h01.30.768,vts_reward_expectancy_bt,2022.2.4,MacIntel,60.0024001,Chrome,1440,900,,,,,0,738,,,,,,,,,,,,,,,,,174,Y,circle,1,0,,2,,,,,,,,,,,,,,switch,letter,lettSwt,k,0.983,vtsPrac,28,0,28,0,1,,,,,,,,,,,,,,,,,,,,,,,
297769,2022-12-06_16h01.30.768,vts_reward_expectancy_bt,2022.2.4,MacIntel,60.0024001,Chrome,1440,900,,,,,0,738,,,,,,,,,,,,,,,,,146,F,hexagon,1,0,,2,,,,,,,,,,,,,,repeat,letter,lettRpt,j,1.9811,vtsPrac,29,0,29,0,1,,,,,,,,,,,,,,,,,,,,,,,
297769,2022-12-06_16h01.30.768,vts_reward_expectancy_bt,2022.2.4,MacIntel,60.0024001,Chrome,1440,900,,,,,0,738,,,,,,,,,,,,,,,,,167,W,star,1,0,,2,,,,,,,,,,,,,,switch,number,numSwt,f,2.1961,vtsPrac,30,0,30,0,1,,,,,,,,,,,,,,,,,,,,,,,
297769,2022-12-06_16h01.30.768,vts_reward_expectancy_bt,2022.2.4,MacIntel,60.0024001,Chrome,1440,900,,,,,0,738,,,,,,,,,,,,,,,,,181,U,hexagon,1,0,,2,,,,,,,,,,,,,,repeat,number,numRpt,f,0.748,vtsPrac,31,0,31,0,1,,,,,,,,,,,,,,,,,,,,,,,
297769,2022-12-06_16h01.30.768,vts_reward_expectancy_bt,2022.2.4,MacIntel,60.0024001,Chrome,1440,900,,,,,,,,,,,,,,,,,,,,,,,,,,,,,,,,,,,,,,,,,,,,,,,,,,,,,,,,,,,,,,,,,,,,,,,,,,,,
297769,2022-12-06_16h01.30.768,vts_reward_expectancy_bt,2022.2.4,MacIntel,60.0024001,Chrome,1440,900,,,,,,,,,,,,,,,,,,,,,,,,,,,,,,,,,,,,,,,,,,,,,,,,,,,,,,,,,,,,,,,,,,,,,,,,,,,,
297769,2022-12-06_16h01.30.768,vts_reward_expectancy_bt,2022.2.4,MacIntel,60.0024001,Chrome,1440,900,,,,,0,738,,,,,,,,,,,,,,,,,125,B,circle,1,0,,,,,,,,,,,,,,,,switch,letter,lettSwt,j,1.0035,noRew,,,,,,0,0,0,0,0,1,,,,,,,,,,,,,,,,,
297769,2022-12-06_16h01.30.768,vts_reward_expectancy_bt,2022.2.4,MacIntel,60.0024001,Chrome,1440,900,,,,,0,738,,,,,,,,,,,,,,,,,181,D,star,1,0,,,,,,,,,,,,,,,,repeat,letter,lettRpt,j,0.767,noRew,,,,,,0,1,0,1,0,1,,,,,,,,,,,,,,,,,
297769,2022-12-06_16h01.30.768,vts_reward_expectancy_bt,2022.2.4,MacIntel,60.0024001,Chrome,1440,900,,,,,0,738,,,,,,,,,,,,,,,,,167,Y,circle,1,0,,,,,,,,,,,,,,,,repeat,letter,lettRpt,k,1.1146,noRew,,,,,,0,2,0,2,0,1,,,,,,,,,,,,,,,,,
297769,2022-12-06_16h01.30.768,vts_reward_expectancy_bt,2022.2.4,MacIntel,60.0024001,Chrome,1440,900,,,,,0,738,,,,,,,,,,,,,,,,,146,S,star,1,0,,,,,,,,,,,,,,,,repeat,letter,lettRpt,k,1.1351,noRew,,,,,,0,3,0,3,0,1,,,,,,,,,,,,,,,,,
297769,2022-12-06_16h01.30.768,vts_reward_expectancy_bt,2022.2.4,MacIntel,60.0024001,Chrome,1440,900,,,,,0,738,,,,,,,,,,,,,,,,,125,B,hexagon,1,0,,,,,,,,,,,,,,,,repeat,letter,lettRpt,j,0.597,noRew,,,,,,0,4,0,4,0,1,,,,,,,,,,,,,,,,,
297769,2022-12-06_16h01.30.768,vts_reward_expectancy_bt,2022.2.4,MacIntel,60.0024001,Chrome,1440,900,,,,,0,738,,,,,,,,,,,,,,,,,181,D,star,1,0,,,,,,,,,,,,,,,,switch,number,numSwt,f,1.3477,noRew,,,,,,0,5,0,5,0,1,,,,,,,,,,,,,,,,,
297769,2022-12-06_16h01.30.768,vts_reward_expectancy_bt,2022.2.4,MacIntel,60.0024001,Chrome,1440,900,,,,,0,738,,,,,,,,,,,,,,,,,167,Y,circle,1,0,,,,,,,,,,,,,,,,switch,letter,lettSwt,k,0.7662,noRew,,,,,,0,6,0,6,0,1,,,,,,,,,,,,,,,,,
297769,2022-12-06_16h01.30.768,vts_reward_expectancy_bt,2022.2.4,MacIntel,60.0024001,Chrome,1440,900,,,,,0,738,,,,,,,,,,,,,,,,,146,S,hexagon,1,0,,,,,,,,,,,,,,,,switch,number,numSwt,d,1.3311,noRew,,,,,,0,7,0,7,0,1,,,,,,,,,,,,,,,,,
297769,2022-12-06_16h01.30.768,vts_reward_expectancy_bt,2022.2.4,MacIntel,60.0024001,Chrome,1440,900,,,,,0,738,,,,,,,,,,,,,,,,,132,F,triangle,1,0,,,,,,,,,,,,,,,,repeat,number,numRpt,d,0.7346,noRew,,,,,,0,8,0,8,0,1,,,,,,,,,,,,,,,,,
297769,2022-12-06_16h01.30.768,vts_reward_expectancy_bt,2022.2.4,MacIntel,60.0024001,Chrome,1440,900,,,,,0,738,,,,,,,,,,,,,,,,,125,D,hexagon,1,0,,,,,,,,,,,,,,,,repeat,number,numRpt,d,0.9811,noRew,,,,,,0,9,0,9,0,1,,,,,,,,,,,,,,,,,
297769,2022-12-06_16h01.30.768,vts_reward_expectancy_bt,2022.2.4,MacIntel,60.0024001,Chrome,1440,900,,,,,0,738,,,,,,,,,,,,,,,,,174,B,hexagon,1,0,,,,,,,,,,,,,,,,repeat,number,numRpt,f,1.6127,noRew,,,,,,0,10,0,10,0,1,,,,,,,,,,,,,,,,,
297769,2022-12-06_16h01.30.768,vts_reward_expectancy_bt,2022.2.4,MacIntel,60.0024001,Chrome,1440,900,,,,,0,738,,,,,,,,,,,,,,,,,146,S,circle,-1,0,,,,,,,,,,,,,,,,switch,no_choice,NA,,,noRew,,,,,,0,11,0,11,0,1,,,,,,,,,,,,,,,,,
297769,2022-12-06_16h01.30.768,vts_reward_expectancy_bt,2022.2.4,MacIntel,60.0024001,Chrome,1440,900,,,,,0,738,,,,,,,,,,,,,,,,,146,Y,hexagon,1,0,,,,,,,,,,,,,,,,switch,letter,lettSwt,k,0.6325,noRew,,,,,,0,12,0,12,0,1,,,,,,,,,,,,,,,,,
297769,2022-12-06_16h01.30.768,vts_reward_expectancy_bt,2022.2.4,MacIntel,60.0024001,Chrome,1440,900,,,,,0,738,,,,,,,,,,,,,,,,,132,D,star,1,0,,,,,,,,,,,,,,,,repeat,letter,lettRpt,j,0.7867,noRew,,,,,,0,13,0,13,0,1,,,,,,,,,,,,,,,,,
297769,2022-12-06_16h01.30.768,vts_reward_expectancy_bt,2022.2.4,MacIntel,60.0024001,Chrome,1440,900,,,,,0,738,,,,,,,,,,,,,,,,,139,W,star,1,0,,,,,,,,,,,,,,,,switch,number,numSwt,d,0.6797,noRew,,,,,,0,14,0,14,0,1,,,,,,,,,,,,,,,,,
297769,2022-12-06_16h01.30.768,vts_reward_expectancy_bt,2022.2.4,MacIntel,60.0024001,Chrome,1440,900,,,,,0,738,,,,,,,,,,,,,,,,,174,F,triangle,1,0,,,,,,,,,,,,,,,,switch,letter,lettSwt,j,1.5295,noRew,,,,,,0,15,0,15,0,1,,,,,,,,,,,,,,,,,
297769,2022-12-06_16h01.30.768,vts_reward_expectancy_bt,2022.2.4,MacIntel,60.0024001,Chrome,1440,900,,,,,0,738,,,,,,,,,,,,,,,,,146,B,hexagon,1,0,,,,,,,,,,,,,,,,repeat,letter,lettRpt,j,0.8647,noRew,,,,,,0,16,0,16,0,1,,,,,,,,,,,,,,,,,
297769,2022-12-06_16h01.30.768,vts_reward_expectancy_bt,2022.2.4,MacIntel,60.0024001,Chrome,1440,900,,,,,0,738,,,,,,,,,,,,,,,,,181,W,triangle,1,0,,,,,,,,,,,,,,,,switch,number,numSwt,f,1.4638,noRew,,,,,,0,17,0,17,0,1,,,,,,,,,,,,,,,,,
297769,2022-12-06_16h01.30.768,vts_reward_expectancy_bt,2022.2.4,MacIntel,60.0024001,Chrome,1440,900,,,,,0,738,,,,,,,,,,,,,,,,,132,H,hexagon,1,0,,,,,,,,,,,,,,,,repeat,number,numRpt,d,0.9807,noRew,,,,,,0,18,0,18,0,1,,,,,,,,,,,,,,,,,
297769,2022-12-06_16h01.30.768,vts_reward_expectancy_bt,2022.2.4,MacIntel,60.0024001,Chrome,1440,900,,,,,0,738,,,,,,,,,,,,,,,,,139,S,circle,1,0,,,,,,,,,,,,,,,,switch,letter,lettSwt,k,0.949,noRew,,,,,,0,19,0,19,0,1,,,,,,,,,,,,,,,,,
297769,2022-12-06_16h01.30.768,vts_reward_expectancy_bt,2022.2.4,MacIntel,60.0024001,Chrome,1440,900,,,,,0,738,,,,,,,,,,,,,,,,,174,H,hexagon,1,0,,,,,,,,,,,,,,,,switch,number,numSwt,f,1.4972,noRew,,,,,,0,20,0,20,0,1,,,,,,,,,,,,,,,,,
297769,2022-12-06_16h01.30.768,vts_reward_expectancy_bt,2022.2.4,MacIntel,60.0024001,Chrome,1440,900,,,,,0,738,,,,,,,,,,,,,,,,,167,W,triangle,1,0,,,,,,,,,,,,,,,,switch,letter,lettSwt,k,1.1292,noRew,,,,,,0,21,0,21,0,1,,,,,,,,,,,,,,,,,
297769,2022-12-06_16h01.30.768,vts_reward_expectancy_bt,2022.2.4,MacIntel,60.0024001,Chrome,1440,900,,,,,0,738,,,,,,,,,,,,,,,,,132,U,star,1,0,,,,,,,,,,,,,,,,switch,number,numSwt,d,0.7846,noRew,,,,,,0,22,0,22,0,1,,,,,,,,,,,,,,,,,
297769,2022-12-06_16h01.30.768,vts_reward_expectancy_bt,2022.2.4,MacIntel,60.0024001,Chrome,1440,900,,,,,0,738,,,,,,,,,,,,,,,,,125,F,hexagon,1,0,,,,,,,,,,,,,,,,repeat,number,numRpt,d,1.0325,noRew,,,,,,0,23,0,23,0,1,,,,,,,,,,,,,,,,,
297769,2022-12-06_16h01.30.768,vts_reward_expectancy_bt,2022.2.4,MacIntel,60.0024001,Chrome,1440,900,,,,,0,738,,,,,,,,,,,,,,,,,181,Y,circle,1,0,,,,,,,,,,,,,,,,repeat,number,numRpt,f,0.8719,noRew,,,,,,0,24,0,24,0,1,,,,,,,,,,,,,,,,,
297769,2022-12-06_16h01.30.768,vts_reward_expectancy_bt,2022.2.4,MacIntel,60.0024001,Chrome,1440,900,,,,,0,738,,,,,,,,,,,,,,,,,167,W,triangle,1,0,,,,,,,,,,,,,,,,switch,letter,lettSwt,k,1.0139,noRew,,,,,,0,25,0,25,0,1,,,,,,,,,,,,,,,,,
297769,2022-12-06_16h01.30.768,vts_reward_expectancy_bt,2022.2.4,MacIntel,60.0024001,Chrome,1440,900,,,,,0,738,,,,,,,,,,,,,,,,,174,B,star,1,0,,,,,,,,,,,,,,,,repeat,letter,lettRpt,j,0.7806,noRew,,,,,,0,26,0,26,0,1,,,,,,,,,,,,,,,,,
297769,2022-12-06_16h01.30.768,vts_reward_expectancy_bt,2022.2.4,MacIntel,60.0024001,Chrome,1440,900,,,,,0,738,,,,,,,,,,,,,,,,,160,F,circle,1,0,,,,,,,,,,,,,,,,switch,number,numSwt,f,1.6653,noRew,,,,,,0,27,0,27,0,1,,,,,,,,,,,,,,,,,
297769,2022-12-06_16h01.30.768,vts_reward_expectancy_bt,2022.2.4,MacIntel,60.0024001,Chrome,1440,900,,,,,0,738,,,,,,,,,,,,,,,,,167,F,triangle,1,0,,,,,,,,,,,,,,,,switch,letter,lettSwt,j,1.3997,noRew,,,,,,0,28,0,28,0,1,,,,,,,,,,,,,,,,,
297769,2022-12-06_16h01.30.768,vts_reward_expectancy_bt,2022.2.4,MacIntel,60.0024001,Chrome,1440,900,,,,,0,738,,,,,,,,,,,,,,,,,146,B,star,1,0,,,,,,,,,,,,,,,,repeat,letter,lettRpt,j,0.9156,noRew,,,,,,0,29,0,29,0,1,,,,,,,,,,,,,,,,,
297769,2022-12-06_16h01.30.768,vts_reward_expectancy_bt,2022.2.4,MacIntel,60.0024001,Chrome,1440,900,,,,,0,738,,,,,,,,,,,,,,,,,139,D,triangle,1,0,,,,,,,,,,,,,,,,repeat,letter,lettRpt,j,0.9811,noRew,,,,,,0,30,0,30,0,1,,,,,,,,,,,,,,,,,
297769,2022-12-06_16h01.30.768,vts_reward_expectancy_bt,2022.2.4,MacIntel,60.0024001,Chrome,1440,900,,,,,0,738,,,,,,,,,,,,,,,,,125,H,hexagon,1,0,,,,,,,,,,,,,,,,switch,number,numSwt,d,1.5643,noRew,,,,,,0,31,0,31,0,1,,,,,,,,,,,,,,,,,
297769,2022-12-06_16h01.30.768,vts_reward_expectancy_bt,2022.2.4,MacIntel,60.0024001,Chrome,1440,900,,,,,0,738,,,,,,,,,,,,,,,,,132,Y,star,1,0,,,,,,,,,,,,,,,,switch,letter,lettSwt,k,1.3477,noRew,,,,,,0,32,0,32,0,1,,,,,,,,,,,,,,,,,
297769,2022-12-06_16h01.30.768,vts_reward_expectancy_bt,2022.2.4,MacIntel,60.0024001,Chrome,1440,900,,,,,0,738,,,,,,,,,,,,,,,,,125,U,circle,1,0,,,,,,,,,,,,,,,,repeat,letter,lettRpt,k,0.9642,noRew,,,,,,0,33,0,33,0,1,,,,,,,,,,,,,,,,,
297769,2022-12-06_16h01.30.768,vts_reward_expectancy_bt,2022.2.4,MacIntel,60.0024001,Chrome,1440,900,,,,,0,738,,,,,,,,,,,,,,,,,174,H,star,1,0,,,,,,,,,,,,,,,,repeat,letter,lettRpt,j,0.9805,noRew,,,,,,0,34,0,34,0,1,,,,,,,,,,,,,,,,,
297769,2022-12-06_16h01.30.768,vts_reward_expectancy_bt,2022.2.4,MacIntel,60.0024001,Chrome,1440,900,,,,,0,738,,,,,,,,,,,,,,,,,139,F,triangle,1,0,,,,,,,,,,,,,,,,switch,number,numSwt,d,1.03,noRew,,,,,,0,35,0,35,0,1,,,,,,,,,,,,,,,,,
297769,2022-12-06_16h01.30.768,vts_reward_expectancy_bt,2022.2.4,MacIntel,60.0024001,Chrome,1440,900,,,,,0,738,,,,,,,,,,,,,,,,,181,U,star,1,0,,,,,,,,,,,,,,,,repeat,number,numRpt,f,0.9311,noRew,,,,,,0,36,0,36,0,1,,,,,,,,,,,,,,,,,
297769,2022-12-06_16h01.30.768,vts_reward_expectancy_bt,2022.2.4,MacIntel,60.0024001,Chrome,1440,900,,,,,0,738,,,,,,,,,,,,,,,,,125,H,triangle,1,0,,,,,,,,,,,,,,,,switch,letter,lettSwt,j,1.3468,noRew,,,,,,0,37,0,37,0,1,,,,,,,,,,,,,,,,,
297769,2022-12-06_16h01.30.768,vts_reward_expectancy_bt,2022.2.4,MacIntel,60.0024001,Chrome,1440,900,,,,,0,738,,,,,,,,,,,,,,,,,139,B,hexagon,1,0,,,,,,,,,,,,,,,,repeat,letter,lettRpt,j,1.0891,noRew,,,,,,0,38,0,38,0,1,,,,,,,,,,,,,,,,,
297769,2022-12-06_16h01.30.768,vts_reward_expectancy_bt,2022.2.4,MacIntel,60.0024001,Chrome,1440,900,,,,,0,738,,,,,,,,,,,,,,,,,167,D,circle,1,0,,,,,,,,,,,,,,,,repeat,letter,lettRpt,j,0.9326,noRew,,,,,,0,39,0,39,0,1,,,,,,,,,,,,,,,,,
297769,2022-12-06_16h01.30.768,vts_reward_expectancy_bt,2022.2.4,MacIntel,60.0024001,Chrome,1440,900,,,,,0,738,,,,,,,,,,,,,,,,,174,W,circle,1,0,,,,,,,,,,,,,,,,repeat,letter,lettRpt,k,0.9651,noRew,,,,,,0,40,0,40,0,1,,,,,,,,,,,,,,,,,
297769,2022-12-06_16h01.30.768,vts_reward_expectancy_bt,2022.2.4,MacIntel,60.0024001,Chrome,1440,900,,,,,0,738,,,,,,,,,,,,,,,,,139,Y,hexagon,1,0,,,,,,,,,,,,,,,,switch,number,numSwt,d,0.9643,noRew,,,,,,0,41,0,41,0,1,,,,,,,,,,,,,,,,,
297769,2022-12-06_16h01.30.768,vts_reward_expectancy_bt,2022.2.4,MacIntel,60.0024001,Chrome,1440,900,,,,,0,738,,,,,,,,,,,,,,,,,160,B,triangle,1,0,,,,,,,,,,,,,,,,repeat,number,numRpt,f,1.0325,noRew,,,,,,0,42,0,42,0,1,,,,,,,,,,,,,,,,,
297769,2022-12-06_16h01.30.768,vts_reward_expectancy_bt,2022.2.4,MacIntel,60.0024001,Chrome,1440,900,,,,,0,738,,,,,,,,,,,,,,,,,132,F,hexagon,1,0,,,,,,,,,,,,,,,,switch,letter,lettSwt,j,1.433,noRew,,,,,,0,43,0,43,0,1,,,,,,,,,,,,,,,,,
297769,2022-12-06_16h01.30.768,vts_reward_expectancy_bt,2022.2.4,MacIntel,60.0024001,Chrome,1440,900,,,,,0,738,,,,,,,,,,,,,,,,,132,S,hexagon,1,0,,,,,,,,,,,,,,,,switch,number,numSwt,d,0.9491,noRew,,,,,,0,44,0,44,0,1,,,,,,,,,,,,,,,,,
297769,2022-12-06_16h01.30.768,vts_reward_expectancy_bt,2022.2.4,MacIntel,60.0024001,Chrome,1440,900,,,,,0,738,,,,,,,,,,,,,,,,,146,H,circle,1,0,,,,,,,,,,,,,,,,switch,letter,lettSwt,j,0.9798,noRew,,,,,,0,45,0,45,0,1,,,,,,,,,,,,,,,,,
297769,2022-12-06_16h01.30.768,vts_reward_expectancy_bt,2022.2.4,MacIntel,60.0024001,Chrome,1440,900,,,,,0,738,,,,,,,,,,,,,,,,,160,D,hexagon,1,0,,,,,,,,,,,,,,,,switch,number,numSwt,f,1.8667,noRew,,,,,,0,46,0,46,0,1,,,,,,,,,,,,,,,,,
297769,2022-12-06_16h01.30.768,vts_reward_expectancy_bt,2022.2.4,MacIntel,60.0024001,Chrome,1440,900,,,,,0,738,,,,,,,,,,,,,,,,,167,F,star,1,0,,,,,,,,,,,,,,,,repeat,number,numRpt,f,0.6529,noRew,,,,,,0,47,0,47,0,1,,,,,,,,,,,,,,,,,
297769,2022-12-06_16h01.30.768,vts_reward_expectancy_bt,2022.2.4,MacIntel,60.0024001,Chrome,1440,900,,,,,0,738,,,,,,,,,,,,,,,,,139,B,circle,1,0,,,,,,,,,,,,,,,,repeat,number,numRpt,d,0.7808,noRew,,,,,,0,48,0,48,0,1,,,,,,,,,,,,,,,,,
297769,2022-12-06_16h01.30.768,vts_reward_expectancy_bt,2022.2.4,MacIntel,60.0024001,Chrome,1440,900,,,,,0,738,,,,,,,,,,,,,,,,,125,U,hexagon,1,0,,,,,,,,,,,,,,,,switch,letter,lettSwt,k,1.481,noRew,,,,,,0,49,0,49,0,1,,,,,,,,,,,,,,,,,
297769,2022-12-06_16h01.30.768,vts_reward_expectancy_bt,2022.2.4,MacIntel,60.0024001,Chrome,1440,900,,,,,0,738,,,,,,,,,,,,,,,,,167,F,star,1,0,,,,,,,,,,,,,,,,repeat,letter,lettRpt,j,0.9813,noRew,,,,,,0,50,0,50,0,1,,,,,,,,,,,,,,,,,
297769,2022-12-06_16h01.30.768,vts_reward_expectancy_bt,2022.2.4,MacIntel,60.0024001,Chrome,1440,900,,,,,0,738,,,,,,,,,,,,,,,,,181,W,circle,1,0,,,,,,,,,,,,,,,,switch,number,numSwt,f,1.3466,noRew,,,,,,0,51,0,51,0,1,,,,,,,,,,,,,,,,,
297769,2022-12-06_16h01.30.768,vts_reward_expectancy_bt,2022.2.4,MacIntel,60.0024001,Chrome,1440,900,,,,,0,738,,,,,,,,,,,,,,,,,125,U,star,1,0,,,,,,,,,,,,,,,,switch,letter,lettSwt,k,1.0679,noRew,,,,,,0,52,0,52,0,1,,,,,,,,,,,,,,,,,
297769,2022-12-06_16h01.30.768,vts_reward_expectancy_bt,2022.2.4,MacIntel,60.0024001,Chrome,1440,900,,,,,0,738,,,,,,,,,,,,,,,,,181,F,circle,1,0,,,,,,,,,,,,,,,,repeat,letter,lettRpt,j,0.9311,noRew,,,,,,0,53,0,53,0,1,,,,,,,,,,,,,,,,,
297769,2022-12-06_16h01.30.768,vts_reward_expectancy_bt,2022.2.4,MacIntel,60.0024001,Chrome,1440,900,,,,,0,738,,,,,,,,,,,,,,,,,160,S,circle,1,0,,,,,,,,,,,,,,,,repeat,letter,lettRpt,k,0.9132,noRew,,,,,,0,54,0,54,0,1,,,,,,,,,,,,,,,,,
297769,2022-12-06_16h01.30.768,vts_reward_expectancy_bt,2022.2.4,MacIntel,60.0024001,Chrome,1440,900,,,,,0,738,,,,,,,,,,,,,,,,,146,B,star,1,0,,,,,,,,,,,,,,,,repeat,letter,lettRpt,j,0.6166,noRew,,,,,,0,55,0,55,0,1,,,,,,,,,,,,,,,,,
297769,2022-12-06_16h01.30.768,vts_reward_expectancy_bt,2022.2.4,MacIntel,60.0024001,Chrome,1440,900,,,,,0,738,,,,,,,,,,,,,,,,,167,U,triangle,1,0,,,,,,,,,,,,,,,,switch,number,numSwt,f,1.1965,noRew,,,,,,0,56,0,56,0,1,,,,,,,,,,,,,,,,,
297769,2022-12-06_16h01.30.768,vts_reward_expectancy_bt,2022.2.4,MacIntel,60.0024001,Chrome,1440,900,,,,,0,738,,,,,,,,,,,,,,,,,181,W,circle,1,0,,,,,,,,,,,,,,,,repeat,number,numRpt,f,1.3286,noRew,,,,,,0,57,0,57,0,1,,,,,,,,,,,,,,,,,
297769,2022-12-06_16h01.30.768,vts_reward_expectancy_bt,2022.2.4,MacIntel,60.0024001,Chrome,1440,900,,,,,0,738,,,,,,,,,,,,,,,,,125,D,circle,1,0,,,,,,,,,,,,,,,,switch,letter,lettSwt,j,0.8307,noRew,,,,,,0,58,0,58,0,1,,,,,,,,,,,,,,,,,
297769,2022-12-06_16h01.30.768,vts_reward_expectancy_bt,2022.2.4,MacIntel,60.0024001,Chrome,1440,900,,,,,0,738,,,,,,,,,,,,,,,,,174,F,triangle,1,0,,,,,,,,,,,,,,,,switch,number,numSwt,f,1.4138,noRew,,,,,,0,59,0,59,0,1,,,,,,,,,,,,,,,,,
297769,2022-12-06_16h01.30.768,vts_reward_expectancy_bt,2022.2.4,MacIntel,60.0024001,Chrome,1440,900,,,,,0,738,,,,,,,,,,,,,,,,,146,B,star,1,0,,,,,,,,,,,,,,,,repeat,number,numRpt,d,1.6969,noRew,,,,,,0,60,0,60,0,1,,,,,,,,,,,,,,,,,
297769,2022-12-06_16h01.30.768,vts_reward_expectancy_bt,2022.2.4,MacIntel,60.0024001,Chrome,1440,900,,,,,0,738,,,,,,,,,,,,,,,,,160,D,circle,1,0,,,,,,,,,,,,,,,,switch,letter,lettSwt,j,1.0476,noRew,,,,,,0,61,0,61,0,1,,,,,,,,,,,,,,,,,
297769,2022-12-06_16h01.30.768,vts_reward_expectancy_bt,2022.2.4,MacIntel,60.0024001,Chrome,1440,900,,,,,0,738,,,,,,,,,,,,,,,,,125,Y,triangle,1,0,,,,,,,,,,,,,,,,repeat,letter,lettRpt,k,1.0166,noRew,,,,,,0,62,0,62,0,1,,,,,,,,,,,,,,,,,
297769,2022-12-06_16h01.30.768,vts_reward_expectancy_bt,2022.2.4,MacIntel,60.0024001,Chrome,1440,900,,,,,0,738,,,,,,,,,,,,,,,,,181,H,star,1,0,,,,,,,,,,,,,,,,repeat,letter,lettRpt,j,1.0804,noRew,,,,,,0,63,0,63,0,1,,,,,,,,,,,,,,,,,
297769,2022-12-06_16h01.30.768,vts_reward_expectancy_bt,2022.2.4,MacIntel,60.0024001,Chrome,1440,900,,,,,,,,,,,,,,,,,,,,,,,,,,,,,,,,,,,,,,,,,,,,,,,,,,,,,,,,,,,,,,,,,,,,,,,,,,,,
297769,2022-12-06_16h01.30.768,vts_reward_expectancy_bt,2022.2.4,MacIntel,60.0024001,Chrome,1440,900,,,,,0,738,,,,,,,,,,,,,,,,,160,D,star,1,0,,,,,,,,,,,,,,,,repeat,letter,lettRpt,j,1.0817,Hi,,,,,,0,,,,,,space,7.0664,high,0,0,0,0,1,,,,,,,,,
297769,2022-12-06_16h01.30.768,vts_reward_expectancy_bt,2022.2.4,MacIntel,60.0024001,Chrome,1440,900,,,,,10,748,,,,,,,,,,,,,,,,,132,W,triangle,1,0,,,,,,,,,,,,,,,,repeat,letter,lettRpt,k,0.881,Hi,,,,,,0,,,,,,,,high,1,0,1,0,1,,,,,,,,,
297769,2022-12-06_16h01.30.768,vts_reward_expectancy_bt,2022.2.4,MacIntel,60.0024001,Chrome,1440,900,,,,,1,749,,,,,,,,,,,,,,,,,139,H,circle,1,0,,,,,,,,,,,,,,,,repeat,letter,lettRpt,j,0.638,Lo,,,,,,0,,,,,,,,high,2,0,2,0,1,,,,,,,,,
297769,2022-12-06_16h01.30.768,vts_reward_expectancy_bt,2022.2.4,MacIntel,60.0024001,Chrome,1440,900,,,,,1,750,,,,,,,,,,,,,,,,,125,B,hexagon,1,0,,,,,,,,,,,,,,,,switch,number,numSwt,d,0.5967,Lo,,,,,,0,,,,,,,,high,3,0,3,0,1,,,,,,,,,
297769,2022-12-06_16h01.30.768,vts_reward_expectancy_bt,2022.2.4,MacIntel,60.0024001,Chrome,1440,900,,,,,10,760,,,,,,,,,,,,,,,,,181,S,star,1,0,,,,,,,,,,,,,,,,switch,letter,lettSwt,k,0.5052,Hi,,,,,,0,,,,,,,,high,4,0,4,0,1,,,,,,,,,
297769,2022-12-06_16h01.30.768,vts_reward_expectancy_bt,2022.2.4,MacIntel,60.0024001,Chrome,1440,900,,,,,10,770,,,,,,,,,,,,,,,,,146,Y,triangle,1,0,,,,,,,,,,,,,,,,repeat,letter,lettRpt,k,0.5809,Hi,,,,,,0,,,,,,,,high,5,0,5,0,1,,,,,,,,,
297769,2022-12-06_16h01.30.768,vts_reward_expectancy_bt,2022.2.4,MacIntel,60.0024001,Chrome,1440,900,,,,,10,780,,,,,,,,,,,,,,,,,174,F,circle,1,0,,,,,,,,,,,,,,,,switch,number,numSwt,f,0.5483,Lo,,,,,,0,,,,,,,,high,6,0,6,0,1,,,,,,,,,
297769,2022-12-06_16h01.30.768,vts_reward_expectancy_bt,2022.2.4,MacIntel,60.0024001,Chrome,1440,900,,,,,1,781,,,,,,,,,,,,,,,,,167,U,hexagon,1,0,,,,,,,,,,,,,,,,repeat,number,numRpt,f,0.5514,Lo,,,,,,0,,,,,,,,high,7,0,7,0,1,,,,,,,,,
297769,2022-12-06_16h01.30.768,vts_reward_expectancy_bt,2022.2.4,MacIntel,60.0024001,Chrome,1440,900,,,,,1,782,,,,,,,,,,,,,,,,,160,D,circle,1,0,,,,,,,,,,,,,,,,switch,letter,lettSwt,j,0.6015,Lo,,,,,,0,,,,,,,,high,8,0,8,0,1,,,,,,,,,
297769,2022-12-06_16h01.30.768,vts_reward_expectancy_bt,2022.2.4,MacIntel,60.0024001,Chrome,1440,900,,,,,10,792,,,,,,,,,,,,,,,,,132,W,triangle,1,0,,,,,,,,,,,,,,,,repeat,letter,lettRpt,k,0.4826,Hi,,,,,,0,,,,,,,,high,9,0,9,0,1,,,,,,,,,
297769,2022-12-06_16h01.30.768,vts_reward_expectancy_bt,2022.2.4,MacIntel,60.0024001,Chrome,1440,900,,,,,10,802,,,,,,,,,,,,,,,,,139,H,star,1,0,,,,,,,,,,,,,,,,repeat,letter,lettRpt,j,0.4471,Hi,,,,,,0,,,,,,,,high,10,0,10,0,1,,,,,,,,,
297769,2022-12-06_16h01.30.768,vts_reward_expectancy_bt,2022.2.4,MacIntel,60.0024001,Chrome,1440,900,,,,,1,803,,,,,,,,,,,,,,,,,125,B,hexagon,1,0,,,,,,,,,,,,,,,,repeat,letter,lettRpt,j,0.5467,Lo,,,,,,0,,,,,,,,high,11,0,11,0,1,,,,,,,,,
297769,2022-12-06_16h01.30.768,vts_reward_expectancy_bt,2022.2.4,MacIntel,60.0024001,Chrome,1440,900,,,,,1,804,,,,,,,,,,,,,,,,,181,S,triangle,1,0,,,,,,,,,,,,,,,,repeat,letter,lettRpt,k,0.4704,Hi,,,,,,0,,,,,,,,high,12,0,12,0,1,,,,,,,,,
297769,2022-12-06_16h01.30.768,vts_reward_expectancy_bt,2022.2.4,MacIntel,60.0024001,Chrome,1440,900,,,,,1,805,,,,,,,,,,,,,,,,,146,Y,circle,1,0,,,,,,,,,,,,,,,,repeat,letter,lettRpt,k,0.4794,Lo,,,,,,0,,,,,,,,high,13,0,13,0,1,,,,,,,,,
297769,2022-12-06_16h01.30.768,vts_reward_expectancy_bt,2022.2.4,MacIntel,60.0024001,Chrome,1440,900,,,,,1,806,,,,,,,,,,,,,,,,,174,F,hexagon,1,0,,,,,,,,,,,,,,,,repeat,letter,lettRpt,j,0.5129,Lo,,,,,,0,,,,,,,,high,14,0,14,0,1,,,,,,,,,
297769,2022-12-06_16h01.30.768,vts_reward_expectancy_bt,2022.2.4,MacIntel,60.0024001,Chrome,1440,900,,,,,1,807,,,,,,,,,,,,,,,,,167,U,star,1,0,,,,,,,,,,,,,,,,repeat,letter,lettRpt,k,0.4642,Hi,,,,,,0,,,,,,,,high,15,0,15,0,1,,,,,,,,,
297769,2022-12-06_16h01.30.768,vts_reward_expectancy_bt,2022.2.4,MacIntel,60.0024001,Chrome,1440,900,,,,,10,817,,,,,,,,,,,,,,,,,146,W,triangle,1,0,,,,,,,,,,,,,,,,repeat,letter,lettRpt,k,0.6345,Hi,,,,,,0,,,,,,,,high,16,0,16,0,1,,,,,,,,,
297769,2022-12-06_16h01.30.768,vts_reward_expectancy_bt,2022.2.4,MacIntel,60.0024001,Chrome,1440,900,,,,,1,818,,,,,,,,,,,,,,,,,125,U,hexagon,1,0,,,,,,,,,,,,,,,,switch,number,numSwt,d,0.5134,Lo,,,,,,0,,,,,,,,high,17,0,17,0,1,,,,,,,,,
297769,2022-12-06_16h01.30.768,vts_reward_expectancy_bt,2022.2.4,MacIntel,60.0024001,Chrome,1440,900,,,,,1,819,,,,,,,,,,,,,,,,,167,F,star,1,0,,,,,,,,,,,,,,,,switch,letter,lettSwt,j,0.5046,Hi,,,,,,0,,,,,,,,high,18,0,18,0,1,,,,,,,,,
297769,2022-12-06_16h01.30.768,vts_reward_expectancy_bt,2022.2.4,MacIntel,60.0024001,Chrome,1440,900,,,,,1,820,,,,,,,,,,,,,,,,,132,S,circle,1,0,,,,,,,,,,,,,,,,switch,number,numSwt,d,0.5188,Lo,,,,,,0,,,,,,,,high,19,0,19,0,1,,,,,,,,,
297769,2022-12-06_16h01.30.768,vts_reward_expectancy_bt,2022.2.4,MacIntel,60.0024001,Chrome,1440,900,,,,,1,821,,,,,,,,,,,,,,,,,181,Y,circle,1,0,,,,,,,,,,,,,,,,repeat,number,numRpt,f,0.5311,Lo,,,,,,0,,,,,,,,high,20,0,20,0,1,,,,,,,,,
297769,2022-12-06_16h01.30.768,vts_reward_expectancy_bt,2022.2.4,MacIntel,60.0024001,Chrome,1440,900,,,,,1,822,,,,,,,,,,,,,,,,,139,D,triangle,1,0,,,,,,,,,,,,,,,,repeat,number,numRpt,d,0.4649,Hi,,,,,,0,,,,,,,,high,21,0,21,0,1,,,,,,,,,
297769,2022-12-06_16h01.30.768,vts_reward_expectancy_bt,2022.2.4,MacIntel,60.0024001,Chrome,1440,900,,,,,10,832,,,,,,,,,,,,,,,,,160,H,star,1,0,,,,,,,,,,,,,,,,repeat,number,numRpt,f,0.5037,Hi,,,,,,0,,,,,,,,high,22,0,22,0,1,,,,,,,,,
297769,2022-12-06_16h01.30.768,vts_reward_expectancy_bt,2022.2.4,MacIntel,60.0024001,Chrome,1440,900,,,,,1,833,,,,,,,,,,,,,,,,,174,B,hexagon,1,0,,,,,,,,,,,,,,,,switch,letter,lettSwt,j,0.462,Lo,,,,,,0,,,,,,,,high,23,0,23,0,1,,,,,,,,,
297769,2022-12-06_16h01.30.768,vts_reward_expectancy_bt,2022.2.4,MacIntel,60.0024001,Chrome,1440,900,,,,,10,843,,,,,,,,,,,,,,,,,139,W,star,1,0,,,,,,,,,,,,,,,,switch,number,numSwt,d,0.7314,Hi,,,,,,0,,,,,,,,high,24,0,24,0,1,,,,,,,,,
297769,2022-12-06_16h01.30.768,vts_reward_expectancy_bt,2022.2.4,MacIntel,60.0024001,Chrome,1440,900,,,,,10,853,,,,,,,,,,,,,,,,,181,H,triangle,1,0,,,,,,,,,,,,,,,,switch,letter,lettSwt,j,0.8814,Hi,,,,,,0,,,,,,,,high,25,0,25,0,1,,,,,,,,,
297769,2022-12-06_16h01.30.768,vts_reward_expectancy_bt,2022.2.4,MacIntel,60.0024001,Chrome,1440,900,,,,,1,854,,,,,,,,,,,,,,,,,174,D,circle,1,0,,,,,,,,,,,,,,,,repeat,letter,lettRpt,j,0.5041,Lo,,,,,,0,,,,,,,,high,26,0,26,0,1,,,,,,,,,
297769,2022-12-06_16h01.30.768,vts_reward_expectancy_bt,2022.2.4,MacIntel,60.0024001,Chrome,1440,900,,,,,1,855,,,,,,,,,,,,,,,,,125,U,hexagon,1,0,,,,,,,,,,,,,,,,repeat,letter,lettRpt,k,0.5636,Lo,,,,,,0,,,,,,,,high,27,0,27,0,1,,,,,,,,,
297769,2022-12-06_16h01.30.768,vts_reward_expectancy_bt,2022.2.4,MacIntel,60.0024001,Chrome,1440,900,,,,,10,865,,,,,,,,,,,,,,,,,132,F,circle,1,0,,,,,,,,,,,,,,,,switch,number,numSwt,d,0.5811,Lo,,,,,,0,,,,,,,,high,28,0,28,0,1,,,,,,,,,
297769,2022-12-06_16h01.30.768,vts_reward_expectancy_bt,2022.2.4,MacIntel,60.0024001,Chrome,1440,900,,,,,10,875,,,,,,,,,,,,,,,,,146,Y,triangle,1,0,,,,,,,,,,,,,,,,repeat,number,numRpt,d,0.5805,Hi,,,,,,0,,,,,,,,high,29,0,29,0,1,,,,,,,,,
297769,2022-12-06_16h01.30.768,vts_reward_expectancy_bt,2022.2.4,MacIntel,60.0024001,Chrome,1440,900,,,,,1,876,,,,,,,,,,,,,,,,,160,S,hexagon,1,0,,,,,,,,,,,,,,,,repeat,number,numRpt,f,0.4622,Lo,,,,,,0,,,,,,,,high,30,0,30,0,1,,,,,,,,,
297769,2022-12-06_16h01.30.768,vts_reward_expectancy_bt,2022.2.4,MacIntel,60.0024001,Chrome,1440,900,,,,,10,886,,,,,,,,,,,,,,,,,167,B,star,1,0,,,,,,,,,,,,,,,,repeat,number,numRpt,f,0.4355,Hi,,,,,,0,,,,,,,,high,31,0,31,0,1,,,,,,,,,
297769,2022-12-06_16h01.30.768,vts_reward_expectancy_bt,2022.2.4,MacIntel,60.0024001,Chrome,1440,900,,,,,1,887,,,,,,,,,,,,,,,,,181,W,circle,1,0,,,,,,,,,,,,,,,,switch,letter,lettSwt,k,0.581,Lo,,,,,,1,,,,,,space,3.5349,high,0,0,0,0,1,,,,,,,,,
297769,2022-12-06_16h01.30.768,vts_reward_expectancy_bt,2022.2.4,MacIntel,60.0024001,Chrome,1440,900,,,,,0,887,,,,,,,,,,,,,,,,,167,H,triangle,1,0,,,,,,,,,,,,,,,,repeat,letter,lettRpt,j,0.6841,Hi,,,,,,1,,,,,,,,high,1,0,1,0,1,,,,,,,,,
297769,2022-12-06_16h01.30.768,vts_reward_expectancy_bt,2022.2.4,MacIntel,60.0024001,Chrome,1440,900,,,,,1,888,,,,,,,,,,,,,,,,,146,F,hexagon,1,0,,,,,,,,,,,,,,,,repeat,letter,lettRpt,j,0.4645,Lo,,,,,,1,,,,,,,,high,2,0,2,0,1,,,,,,,,,
297769,2022-12-06_16h01.30.768,vts_reward_expectancy_bt,2022.2.4,MacIntel,60.0024001,Chrome,1440,900,,,,,0,888,,,,,,,,,,,,,,,,,125,U,star,1,0,,,,,,,,,,,,,,,,repeat,letter,lettRpt,k,0.6474,Hi,,,,,,1,,,,,,,,high,3,0,3,0,1,,,,,,,,,
297769,2022-12-06_16h01.30.768,vts_reward_expectancy_bt,2022.2.4,MacIntel,60.0024001,Chrome,1440,900,,,,,1,889,,,,,,,,,,,,,,,,,160,B,circle,1,0,,,,,,,,,,,,,,,,repeat,letter,lettRpt,j,0.5139,Lo,,,,,,1,,,,,,,,high,4,0,4,0,1,,,,,,,,,
297769,2022-12-06_16h01.30.768,vts_reward_expectancy_bt,2022.2.4,MacIntel,60.0024001,Chrome,1440,900,,,,,0,889,,,,,,,,,,,,,,,,,132,S,triangle,1,0,,,,,,,,,,,,,,,,switch,number,numSwt,d,0.8545,Hi,,,,,,1,,,,,,,,high,5,0,5,0,1,,,,,,,,,
297769,2022-12-06_16h01.30.768,vts_reward_expectancy_bt,2022.2.4,MacIntel,60.0024001,Chrome,1440,900,,,,,1,890,,,,,,,,,,,,,,,,,174,D,hexagon,1,0,,,,,,,,,,,,,,,,repeat,number,numRpt,f,0.4971,Lo,,,,,,1,,,,,,,,high,6,0,6,0,1,,,,,,,,,
297769,2022-12-06_16h01.30.768,vts_reward_expectancy_bt,2022.2.4,MacIntel,60.0024001,Chrome,1440,900,,,,,0,890,,,,,,,,,,,,,,,,,139,Y,star,1,0,,,,,,,,,,,,,,,,repeat,number,numRpt,d,0.4824,Hi,,,,,,1,,,,,,,,high,7,0,7,0,1,,,,,,,,,
297769,2022-12-06_16h01.30.768,vts_reward_expectancy_bt,2022.2.4,MacIntel,60.0024001,Chrome,1440,900,,,,,1,891,,,,,,,,,,,,,,,,,181,W,hexagon,1,0,,,,,,,,,,,,,,,,switch,letter,lettSwt,k,0.4007,Lo,,,,,,1,,,,,,,,high,8,0,8,0,1,,,,,,,,,
297769,2022-12-06_16h01.30.768,vts_reward_expectancy_bt,2022.2.4,MacIntel,60.0024001,Chrome,1440,900,,,,,0,891,,,,,,,,,,,,,,,,,167,H,triangle,0,0,,,,,,,,,,,,,,,,repeat,letter,NA,k,0.3809,Lo,,,,,,1,,,,,,,,high,9,0,9,0,1,,,,,,,,,
297769,2022-12-06_16h01.30.768,vts_reward_expectancy_bt,2022.2.4,MacIntel,60.0024001,Chrome,1440,900,,,,,0,891,,,,,,,,,,,,,,,,,146,F,star,1,1,,,,,,,,,,,,,,,,repeat,letter,lettRpt,j,0.5635,Hi,,,,,,1,,,,,,,,high,10,0,10,0,1,,,,,,,,,
297769,2022-12-06_16h01.30.768,vts_reward_expectancy_bt,2022.2.4,MacIntel,60.0024001,Chrome,1440,900,,,,,1,892,,,,,,,,,,,,,,,,,125,U,circle,1,0,,,,,,,,,,,,,,,,repeat,letter,lettRpt,k,0.4137,Lo,,,,,,1,,,,,,,,high,11,0,11,0,1,,,,,,,,,
297769,2022-12-06_16h01.30.768,vts_reward_expectancy_bt,2022.2.4,MacIntel,60.0024001,Chrome,1440,900,,,,,10,902,,,,,,,,,,,,,,,,,160,B,star,1,0,,,,,,,,,,,,,,,,repeat,letter,lettRpt,j,0.4064,Hi,,,,,,1,,,,,,,,high,12,0,12,0,1,,,,,,,,,
297769,2022-12-06_16h01.30.768,vts_reward_expectancy_bt,2022.2.4,MacIntel,60.0024001,Chrome,1440,900,,,,,0,902,,,,,,,,,,,,,,,,,132,S,triangle,1,0,,,,,,,,,,,,,,,,repeat,letter,lettRpt,k,0.615,Hi,,,,,,1,,,,,,,,high,13,0,13,0,1,,,,,,,,,
297769,2022-12-06_16h01.30.768,vts_reward_expectancy_bt,2022.2.4,MacIntel,60.0024001,Chrome,1440,900,,,,,10,912,,,,,,,,,,,,,,,,,174,D,circle,1,0,,,,,,,,,,,,,,,,repeat,letter,lettRpt,j,0.3711,Lo,,,,,,1,,,,,,,,high,14,0,14,0,1,,,,,,,,,
297769,2022-12-06_16h01.30.768,vts_reward_expectancy_bt,2022.2.4,MacIntel,60.0024001,Chrome,1440,900,,,,,1,913,,,,,,,,,,,,,,,,,139,Y,hexagon,1,0,,,,,,,,,,,,,,,,repeat,letter,lettRpt,k,0.3802,Lo,,,,,,1,,,,,,,,high,15,0,15,0,1,,,,,,,,,
297769,2022-12-06_16h01.30.768,vts_reward_expectancy_bt,2022.2.4,MacIntel,60.0024001,Chrome,1440,900,,,,,10,923,,,,,,,,,,,,,,,,,160,Y,star,1,0,,,,,,,,,,,,,,,,repeat,letter,lettRpt,k,0.4161,Hi,,,,,,1,,,,,,,,high,16,0,16,0,1,,,,,,,,,
297769,2022-12-06_16h01.30.768,vts_reward_expectancy_bt,2022.2.4,MacIntel,60.0024001,Chrome,1440,900,,,,,0,923,,,,,,,,,,,,,,,,,146,D,hexagon,0,0,,,,,,,,,,,,,,,,repeat,letter,NA,k,0.3189,Hi,,,,,,1,,,,,,,,high,17,0,17,0,1,,,,,,,,,
297769,2022-12-06_16h01.30.768,vts_reward_expectancy_bt,2022.2.4,MacIntel,60.0024001,Chrome,1440,900,,,,,10,933,,,,,,,,,,,,,,,,,167,F,triangle,1,1,,,,,,,,,,,,,,,,repeat,letter,lettRpt,j,0.4309,Hi,,,,,,1,,,,,,,,high,18,0,18,0,1,,,,,,,,,
297769,2022-12-06_16h01.30.768,vts_reward_expectancy_bt,2022.2.4,MacIntel,60.0024001,Chrome,1440,900,,,,,0,933,,,,,,,,,,,,,,,,,174,H,circle,0,0,,,,,,,,,,,,,,,,repeat,letter,NA,k,0.5151,Hi,,,,,,1,,,,,,,,high,19,0,19,0,1,,,,,,,,,
297769,2022-12-06_16h01.30.768,vts_reward_expectancy_bt,2022.2.4,MacIntel,60.0024001,Chrome,1440,900,,,,,10,943,,,,,,,,,,,,,,,,,181,B,star,1,1,,,,,,,,,,,,,,,,repeat,letter,lettRpt,j,0.3976,Hi,,,,,,1,,,,,,,,high,20,0,20,0,1,,,,,,,,,
297769,2022-12-06_16h01.30.768,vts_reward_expectancy_bt,2022.2.4,MacIntel,60.0024001,Chrome,1440,900,,,,,1,944,,,,,,,,,,,,,,,,,132,U,hexagon,1,0,,,,,,,,,,,,,,,,repeat,letter,lettRpt,k,0.4903,Lo,,,,,,1,,,,,,,,high,21,0,21,0,1,,,,,,,,,
297769,2022-12-06_16h01.30.768,vts_reward_expectancy_bt,2022.2.4,MacIntel,60.0024001,Chrome,1440,900,,,,,1,945,,,,,,,,,,,,,,,,,139,S,circle,1,0,,,,,,,,,,,,,,,,repeat,letter,lettRpt,k,0.3965,Lo,,,,,,1,,,,,,,,high,22,0,22,0,1,,,,,,,,,
297769,2022-12-06_16h01.30.768,vts_reward_expectancy_bt,2022.2.4,MacIntel,60.0024001,Chrome,1440,900,,,,,10,955,,,,,,,,,,,,,,,,,125,W,triangle,1,0,,,,,,,,,,,,,,,,repeat,letter,lettRpt,k,0.3812,Hi,,,,,,1,,,,,,,,high,23,0,23,0,1,,,,,,,,,
297769,2022-12-06_16h01.30.768,vts_reward_expectancy_bt,2022.2.4,MacIntel,60.0024001,Chrome,1440,900,,,,,0,955,,,,,,,,,,,,,,,,,160,D,star,1,0,,,,,,,,,,,,,,,,repeat,letter,lettRpt,j,0.5479,Hi,,,,,,1,,,,,,,,high,24,0,24,0,1,,,,,,,,,
297769,2022-12-06_16h01.30.768,vts_reward_expectancy_bt,2022.2.4,MacIntel,60.0024001,Chrome,1440,900,,,,,0,955,,,,,,,,,,,,,,,,,146,U,circle,0,0,,,,,,,,,,,,,,,,repeat,letter,NA,j,0.4645,Hi,,,,,,1,,,,,,,,high,25,0,25,0,1,,,,,,,,,
297769,2022-12-06_16h01.30.768,vts_reward_expectancy_bt,2022.2.4,MacIntel,60.0024001,Chrome,1440,900,,,,,1,956,,,,,,,,,,,,,,,,,181,F,hexagon,1,1,,,,,,,,,,,,,,,,repeat,letter,lettRpt,j,0.3302,Lo,,,,,,1,,,,,,,,high,26,0,26,0,1,,,,,,,,,
297769,2022-12-06_16h01.30.768,vts_reward_expectancy_bt,2022.2.4,MacIntel,60.0024001,Chrome,1440,900,,,,,10,966,,,,,,,,,,,,,,,,,174,S,triangle,1,0,,,,,,,,,,,,,,,,repeat,letter,lettRpt,k,0.3384,Hi,,,,,,1,,,,,,,,high,27,0,27,0,1,,,,,,,,,
297769,2022-12-06_16h01.30.768,vts_reward_expectancy_bt,2022.2.4,MacIntel,60.0024001,Chrome,1440,900,,,,,1,967,,,,,,,,,,,,,,,,,125,H,circle,1,0,,,,,,,,,,,,,,,,repeat,letter,lettRpt,j,0.5565,Lo,,,,,,1,,,,,,,,high,28,0,28,0,1,,,,,,,,,
297769,2022-12-06_16h01.30.768,vts_reward_expectancy_bt,2022.2.4,MacIntel,60.0024001,Chrome,1440,900,,,,,10,977,,,,,,,,,,,,,,,,,132,B,star,1,0,,,,,,,,,,,,,,,,repeat,letter,lettRpt,j,0.4317,Hi,,,,,,1,,,,,,,,high,29,0,29,0,1,,,,,,,,,
297769,2022-12-06_16h01.30.768,vts_reward_expectancy_bt,2022.2.4,MacIntel,60.0024001,Chrome,1440,900,,,,,10,987,,,,,,,,,,,,,,,,,167,Y,triangle,1,0,,,,,,,,,,,,,,,,repeat,letter,lettRpt,k,0.449,Hi,,,,,,1,,,,,,,,high,30,0,30,0,1,,,,,,,,,
297769,2022-12-06_16h01.30.768,vts_reward_expectancy_bt,2022.2.4,MacIntel,60.0024001,Chrome,1440,900,,,,,1,988,,,,,,,,,,,,,,,,,139,W,hexagon,1,0,,,,,,,,,,,,,,,,repeat,letter,lettRpt,k,0.4297,Lo,,,,,,1,,,,,,,,high,31,0,31,0,1,,,,,,,,,
297769,2022-12-06_16h01.30.768,vts_reward_expectancy_bt,2022.2.4,MacIntel,60.0024001,Chrome,1440,900,,,,,0,988,,,,,,,,,,,,,,,,,132,F,triangle,1,0,,,,,,,,,,,,,,,,repeat,letter,lettRpt,j,1.1885,Hi,,,,,,2,,,,,,space,1.4063,high,0,0,0,0,1,,,,,,,,,
297769,2022-12-06_16h01.30.768,vts_reward_expectancy_bt,2022.2.4,MacIntel,60.0024001,Chrome,1440,900,,,,,1,989,,,,,,,,,,,,,,,,,160,H,circle,1,0,,,,,,,,,,,,,,,,repeat,letter,lettRpt,j,0.6994,Lo,,,,,,2,,,,,,,,high,1,0,1,0,1,,,,,,,,,
297769,2022-12-06_16h01.30.768,vts_reward_expectancy_bt,2022.2.4,MacIntel,60.0024001,Chrome,1440,900,,,,,0,989,,,,,,,,,,,,,,,,,167,D,star,1,0,,,,,,,,,,,,,,,,repeat,letter,lettRpt,j,0.4312,Hi,,,,,,2,,,,,,,,high,2,0,2,0,1,,,,,,,,,
297769,2022-12-06_16h01.30.768,vts_reward_expectancy_bt,2022.2.4,MacIntel,60.0024001,Chrome,1440,900,,,,,0,989,,,,,,,,,,,,,,,,,174,B,hexagon,0,0,,,,,,,,,,,,,,,,repeat,letter,NA,k,0.0004,Hi,,,,,,2,,,,,,,,high,3,0,3,0,1,,,,,,,,,
297769,2022-12-06_16h01.30.768,vts_reward_expectancy_bt,2022.2.4,MacIntel,60.0024001,Chrome,1440,900,,,,,10,999,,,,,,,,,,,,,,,,,139,Y,triangle,1,1,,,,,,,,,,,,,,,,repeat,letter,lettRpt,k,0.047,Hi,,,,,,2,,,,,,,,high,4,0,4,0,1,,,,,,,,,
297769,2022-12-06_16h01.30.768,vts_reward_expectancy_bt,2022.2.4,MacIntel,60.0024001,Chrome,1440,900,,,,,1,1000,,,,,,,,,,,,,,,,,125,U,circle,1,0,,,,,,,,,,,,,,,,repeat,letter,lettRpt,k,0.0311,Lo,,,,,,2,,,,,,,,high,5,0,5,0,1,,,,,,,,,
297769,2022-12-06_16h01.30.768,vts_reward_expectancy_bt,2022.2.4,MacIntel,60.0024001,Chrome,1440,900,,,,,0,1000,,,,,,,,,,,,,,,,,146,W,star,0,0,,,,,,,,,,,,,,,,repeat,letter,NA,j,0.3136,Lo,,,,,,2,,,,,,,,high,6,0,6,0,1,,,,,,,,,
297769,2022-12-06_16h01.30.768,vts_reward_expectancy_bt,2022.2.4,MacIntel,60.0024001,Chrome,1440,900,,,,,1,1001,,,,,,,,,,,,,,,,,181,S,hexagon,1,1,,,,,,,,,,,,,,,,repeat,letter,lettRpt,k,0.7656,Lo,,,,,,2,,,,,,,,high,7,0,7,0,1,,,,,,,,,
297769,2022-12-06_16h01.30.768,vts_reward_expectancy_bt,2022.2.4,MacIntel,60.0024001,Chrome,1440,900,,,,,0,1001,,,,,,,,,,,,,,,,,132,F,star,1,0,,,,,,,,,,,,,,,,repeat,letter,lettRpt,j,0.5496,Hi,,,,,,2,,,,,,,,high,8,0,8,0,1,,,,,,,,,
297769,2022-12-06_16h01.30.768,vts_reward_expectancy_bt,2022.2.4,MacIntel,60.0024001,Chrome,1440,900,,,,,1,1002,,,,,,,,,,,,,,,,,160,H,hexagon,1,0,,,,,,,,,,,,,,,,repeat,letter,lettRpt,j,0.55,Lo,,,,,,2,,,,,,,,high,9,0,9,0,1,,,,,,,,,
297769,2022-12-06_16h01.30.768,vts_reward_expectancy_bt,2022.2.4,MacIntel,60.0024001,Chrome,1440,900,,,,,0,1002,,,,,,,,,,,,,,,,,167,D,triangle,1,0,,,,,,,,,,,,,,,,repeat,letter,lettRpt,j,0.4136,Hi,,,,,,2,,,,,,,,high,10,0,10,0,1,,,,,,,,,
297769,2022-12-06_16h01.30.768,vts_reward_expectancy_bt,2022.2.4,MacIntel,60.0024001,Chrome,1440,900,,,,,1,1003,,,,,,,,,,,,,,,,,174,B,circle,1,0,,,,,,,,,,,,,,,,repeat,letter,lettRpt,j,0.4713,Lo,,,,,,2,,,,,,,,high,11,0,11,0,1,,,,,,,,,
297769,2022-12-06_16h01.30.768,vts_reward_expectancy_bt,2022.2.4,MacIntel,60.0024001,Chrome,1440,900,,,,,0,1003,,,,,,,,,,,,,,,,,139,Y,triangle,1,0,,,,,,,,,,,,,,,,repeat,letter,lettRpt,k,0.4411,Hi,,,,,,2,,,,,,,,high,12,0,12,0,1,,,,,,,,,
297769,2022-12-06_16h01.30.768,vts_reward_expectancy_bt,2022.2.4,MacIntel,60.0024001,Chrome,1440,900,,,,,1,1004,,,,,,,,,,,,,,,,,125,U,hexagon,1,0,,,,,,,,,,,,,,,,switch,number,numSwt,d,0.4879,Lo,,,,,,2,,,,,,,,high,13,0,13,0,1,,,,,,,,,
297769,2022-12-06_16h01.30.768,vts_reward_expectancy_bt,2022.2.4,MacIntel,60.0024001,Chrome,1440,900,,,,,0,1004,,,,,,,,,,,,,,,,,146,W,star,1,0,,,,,,,,,,,,,,,,repeat,number,numRpt,d,0.5864,Hi,,,,,,2,,,,,,,,high,14,0,14,0,1,,,,,,,,,
297769,2022-12-06_16h01.30.768,vts_reward_expectancy_bt,2022.2.4,MacIntel,60.0024001,Chrome,1440,900,,,,,0,1004,,,,,,,,,,,,,,,,,181,S,circle,0,0,,,,,,,,,,,,,,,,repeat,number,NA,d,0.4553,Hi,,,,,,2,,,,,,,,high,15,0,15,0,1,,,,,,,,,
297769,2022-12-06_16h01.30.768,vts_reward_expectancy_bt,2022.2.4,MacIntel,60.0024001,Chrome,1440,900,,,,,1,1005,,,,,,,,,,,,,,,,,167,F,circle,1,1,,,,,,,,,,,,,,,,switch,letter,lettSwt,j,0.4304,Lo,,,,,,2,,,,,,,,high,16,0,16,0,1,,,,,,,,,
297769,2022-12-06_16h01.30.768,vts_reward_expectancy_bt,2022.2.4,MacIntel,60.0024001,Chrome,1440,900,,,,,10,1015,,,,,,,,,,,,,,,,,160,Y,triangle,1,0,,,,,,,,,,,,,,,,switch,number,numSwt,f,0.4808,Hi,,,,,,2,,,,,,,,high,17,0,17,0,1,,,,,,,,,
297769,2022-12-06_16h01.30.768,vts_reward_expectancy_bt,2022.2.4,MacIntel,60.0024001,Chrome,1440,900,,,,,10,1025,,,,,,,,,,,,,,,,,174,W,star,1,0,,,,,,,,,,,,,,,,switch,letter,lettSwt,k,0.4848,Hi,,,,,,2,,,,,,,,high,18,0,18,0,1,,,,,,,,,
297769,2022-12-06_16h01.30.768,vts_reward_expectancy_bt,2022.2.4,MacIntel,60.0024001,Chrome,1440,900,,,,,1,1026,,,,,,,,,,,,,,,,,146,B,hexagon,1,0,,,,,,,,,,,,,,,,switch,number,numSwt,d,0.5698,Lo,,,,,,2,,,,,,,,high,19,0,19,0,1,,,,,,,,,
297769,2022-12-06_16h01.30.768,vts_reward_expectancy_bt,2022.2.4,MacIntel,60.0024001,Chrome,1440,900,,,,,10,1036,,,,,,,,,,,,,,,,,125,H,triangle,1,0,,,,,,,,,,,,,,,,repeat,number,numRpt,d,0.4663,Hi,,,,,,2,,,,,,,,high,20,0,20,0,1,,,,,,,,,
297769,2022-12-06_16h01.30.768,vts_reward_expectancy_bt,2022.2.4,MacIntel,60.0024001,Chrome,1440,900,,,,,0,1036,,,,,,,,,,,,,,,,,139,S,star,1,0,,,,,,,,,,,,,,,,repeat,number,numRpt,d,0.6202,Hi,,,,,,2,,,,,,,,high,21,0,21,0,1,,,,,,,,,
297769,2022-12-06_16h01.30.768,vts_reward_expectancy_bt,2022.2.4,MacIntel,60.0024001,Chrome,1440,900,,,,,1,1037,,,,,,,,,,,,,,,,,181,D,circle,1,0,,,,,,,,,,,,,,,,repeat,number,numRpt,f,0.7564,Lo,,,,,,2,,,,,,,,high,22,0,22,0,1,,,,,,,,,
297769,2022-12-06_16h01.30.768,vts_reward_expectancy_bt,2022.2.4,MacIntel,60.0024001,Chrome,1440,900,,,,,1,1038,,,,,,,,,,,,,,,,,132,U,hexagon,1,0,,,,,,,,,,,,,,,,switch,letter,lettSwt,k,0.5641,Lo,,,,,,2,,,,,,,,high,23,0,23,0,1,,,,,,,,,
297769,2022-12-06_16h01.30.768,vts_reward_expectancy_bt,2022.2.4,MacIntel,60.0024001,Chrome,1440,900,,,,,0,1038,,,,,,,,,,,,,,,,,139,U,hexagon,0,0,,,,,,,,,,,,,,,,repeat,letter,NA,j,0.4326,Lo,,,,,,2,,,,,,,,high,24,0,24,0,1,,,,,,,,,
297769,2022-12-06_16h01.30.768,vts_reward_expectancy_bt,2022.2.4,MacIntel,60.0024001,Chrome,1440,900,,,,,0,1038,,,,,,,,,,,,,,,,,181,W,star,1,1,,,,,,,,,,,,,,,,repeat,letter,lettRpt,k,0.4464,Hi,,,,,,2,,,,,,,,high,25,0,25,0,1,,,,,,,,,
297769,2022-12-06_16h01.30.768,vts_reward_expectancy_bt,2022.2.4,MacIntel,60.0024001,Chrome,1440,900,,,,,10,1048,,,,,,,,,,,,,,,,,174,D,triangle,1,0,,,,,,,,,,,,,,,,switch,number,numSwt,f,0.5216,Hi,,,,,,2,,,,,,,,high,26,0,26,0,1,,,,,,,,,
297769,2022-12-06_16h01.30.768,vts_reward_expectancy_bt,2022.2.4,MacIntel,60.0024001,Chrome,1440,900,,,,,1,1049,,,,,,,,,,,,,,,,,125,S,circle,1,0,,,,,,,,,,,,,,,,repeat,number,numRpt,d,0.6933,Lo,,,,,,2,,,,,,,,high,27,0,27,0,1,,,,,,,,,
297769,2022-12-06_16h01.30.768,vts_reward_expectancy_bt,2022.2.4,MacIntel,60.0024001,Chrome,1440,900,,,,,10,1059,,,,,,,,,,,,,,,,,167,H,circle,1,0,,,,,,,,,,,,,,,,switch,letter,lettSwt,j,0.4971,Lo,,,,,,2,,,,,,,,high,28,0,28,0,1,,,,,,,,,
297769,2022-12-06_16h01.30.768,vts_reward_expectancy_bt,2022.2.4,MacIntel,60.0024001,Chrome,1440,900,,,,,1,1060,,,,,,,,,,,,,,,,,146,F,hexagon,1,0,,,,,,,,,,,,,,,,switch,number,numSwt,d,0.5983,Lo,,,,,,2,,,,,,,,high,29,0,29,0,1,,,,,,,,,
297769,2022-12-06_16h01.30.768,vts_reward_expectancy_bt,2022.2.4,MacIntel,60.0024001,Chrome,1440,900,,,,,0,1060,,,,,,,,,,,,,,,,,132,B,triangle,1,0,,,,,,,,,,,,,,,,repeat,number,numRpt,d,0.5689,Hi,,,,,,2,,,,,,,,high,30,0,30,0,1,,,,,,,,,
297769,2022-12-06_16h01.30.768,vts_reward_expectancy_bt,2022.2.4,MacIntel,60.0024001,Chrome,1440,900,,,,,10,1070,,,,,,,,,,,,,,,,,160,Y,star,1,0,,,,,,,,,,,,,,,,repeat,number,numRpt,f,0.456,Hi,,,,,,2,,,,,,,,high,31,0,31,0,1,,,,,,,,,
297769,2022-12-06_16h01.30.768,vts_reward_expectancy_bt,2022.2.4,MacIntel,60.0024001,Chrome,1440,900,,,,,1,1071,,,,,,,,,,,,,,,,,125,Y,hexagon,1,0,,,,,,,,,,,,,,,,switch,letter,lettSwt,k,0.4319,Lo,,,,,,3,,,,,,space,0.7669,high,0,0,0,0,1,,,,,,,,,
297769,2022-12-06_16h01.30.768,vts_reward_expectancy_bt,2022.2.4,MacIntel,60.0024001,Chrome,1440,900,,,,,1,1072,,,,,,,,,,,,,,,,,132,U,circle,1,0,,,,,,,,,,,,,,,,switch,number,numSwt,d,0.4954,Lo,,,,,,3,,,,,,,,high,1,0,1,0,1,,,,,,,,,
297769,2022-12-06_16h01.30.768,vts_reward_expectancy_bt,2022.2.4,MacIntel,60.0024001,Chrome,1440,900,,,,,0,1072,,,,,,,,,,,,,,,,,181,S,star,0,0,,,,,,,,,,,,,,,,repeat,number,NA,d,0.4639,Lo,,,,,,3,,,,,,,,high,2,0,2,0,1,,,,,,,,,
297769,2022-12-06_16h01.30.768,vts_reward_expectancy_bt,2022.2.4,MacIntel,60.0024001,Chrome,1440,900,,,,,10,1082,,,,,,,,,,,,,,,,,160,D,triangle,1,1,,,,,,,,,,,,,,,,repeat,number,numRpt,f,0.5531,Hi,,,,,,3,,,,,,,,high,3,0,3,0,1,,,,,,,,,
297769,2022-12-06_16h01.30.768,vts_reward_expectancy_bt,2022.2.4,MacIntel,60.0024001,Chrome,1440,900,,,,,1,1083,,,,,,,,,,,,,,,,,146,W,hexagon,1,0,,,,,,,,,,,,,,,,switch,letter,lettSwt,k,0.5315,Lo,,,,,,3,,,,,,,,high,4,0,4,0,1,,,,,,,,,
297769,2022-12-06_16h01.30.768,vts_reward_expectancy_bt,2022.2.4,MacIntel,60.0024001,Chrome,1440,900,,,,,1,1084,,,,,,,,,,,,,,,,,139,H,circle,1,0,,,,,,,,,,,,,,,,repeat,letter,lettRpt,j,0.4472,Lo,,,,,,3,,,,,,,,high,5,0,5,0,1,,,,,,,,,
297769,2022-12-06_16h01.30.768,vts_reward_expectancy_bt,2022.2.4,MacIntel,60.0024001,Chrome,1440,900,,,,,10,1094,,,,,,,,,,,,,,,,,167,F,star,1,0,,,,,,,,,,,,,,,,switch,number,numSwt,f,0.3831,Hi,,,,,,3,,,,,,,,high,6,0,6,0,1,,,,,,,,,
297769,2022-12-06_16h01.30.768,vts_reward_expectancy_bt,2022.2.4,MacIntel,60.0024001,Chrome,1440,900,,,,,10,1104,,,,,,,,,,,,,,,,,174,B,triangle,1,0,,,,,,,,,,,,,,,,repeat,number,numRpt,f,0.4826,Hi,,,,,,3,,,,,,,,high,7,0,7,0,1,,,,,,,,,
297769,2022-12-06_16h01.30.768,vts_reward_expectancy_bt,2022.2.4,MacIntel,60.0024001,Chrome,1440,900,,,,,1,1105,,,,,,,,,,,,,,,,,125,Y,hexagon,1,0,,,,,,,,,,,,,,,,switch,letter,lettSwt,k,0.5645,Lo,,,,,,3,,,,,,,,high,8,0,8,0,1,,,,,,,,,
297769,2022-12-06_16h01.30.768,vts_reward_expectancy_bt,2022.2.4,MacIntel,60.0024001,Chrome,1440,900,,,,,1,1106,,,,,,,,,,,,,,,,,132,U,circle,1,0,,,,,,,,,,,,,,,,repeat,letter,lettRpt,k,0.5303,Lo,,,,,,3,,,,,,,,high,9,0,9,0,1,,,,,,,,,
297769,2022-12-06_16h01.30.768,vts_reward_expectancy_bt,2022.2.4,MacIntel,60.0024001,Chrome,1440,900,,,,,0,1106,,,,,,,,,,,,,,,,,181,S,triangle,1,0,,,,,,,,,,,,,,,,repeat,letter,lettRpt,k,0.5332,Hi,,,,,,3,,,,,,,,high,10,0,10,0,1,,,,,,,,,
297769,2022-12-06_16h01.30.768,vts_reward_expectancy_bt,2022.2.4,MacIntel,60.0024001,Chrome,1440,900,,,,,0,1106,,,,,,,,,,,,,,,,,160,D,star,0,0,,,,,,,,,,,,,,,,repeat,letter,NA,k,0.5289,Hi,,,,,,3,,,,,,,,high,11,0,11,0,1,,,,,,,,,
297769,2022-12-06_16h01.30.768,vts_reward_expectancy_bt,2022.2.4,MacIntel,60.0024001,Chrome,1440,900,,,,,10,1116,,,,,,,,,,,,,,,,,146,W,hexagon,1,1,,,,,,,,,,,,,,,,switch,number,numSwt,d,0.5727,Lo,,,,,,3,,,,,,,,high,12,0,12,0,1,,,,,,,,,
297769,2022-12-06_16h01.30.768,vts_reward_expectancy_bt,2022.2.4,MacIntel,60.0024001,Chrome,1440,900,,,,,0,1116,,,,,,,,,,,,,,,,,139,H,star,1,0,,,,,,,,,,,,,,,,repeat,number,numRpt,d,0.6714,Hi,,,,,,3,,,,,,,,high,13,0,13,0,1,,,,,,,,,
297769,2022-12-06_16h01.30.768,vts_reward_expectancy_bt,2022.2.4,MacIntel,60.0024001,Chrome,1440,900,,,,,1,1117,,,,,,,,,,,,,,,,,167,F,circle,1,0,,,,,,,,,,,,,,,,repeat,number,numRpt,f,0.6906,Lo,,,,,,3,,,,,,,,high,14,0,14,0,1,,,,,,,,,
297769,2022-12-06_16h01.30.768,vts_reward_expectancy_bt,2022.2.4,MacIntel,60.0024001,Chrome,1440,900,,,,,10,1127,,,,,,,,,,,,,,,,,174,B,triangle,1,0,,,,,,,,,,,,,,,,repeat,number,numRpt,f,0.515,Hi,,,,,,3,,,,,,,,high,15,0,15,0,1,,,,,,,,,
297769,2022-12-06_16h01.30.768,vts_reward_expectancy_bt,2022.2.4,MacIntel,60.0024001,Chrome,1440,900,,,,,0,1127,,,,,,,,,,,,,,,,,139,U,hexagon,0,0,,,,,,,,,,,,,,,,repeat,number,NA,f,0.2799,Hi,,,,,,3,,,,,,,,high,16,0,16,0,1,,,,,,,,,
297769,2022-12-06_16h01.30.768,vts_reward_expectancy_bt,2022.2.4,MacIntel,60.0024001,Chrome,1440,900,,,,,1,1128,,,,,,,,,,,,,,,,,174,H,star,1,1,,,,,,,,,,,,,,,,repeat,number,numRpt,f,0.4024,Hi,,,,,,3,,,,,,,,high,17,0,17,0,1,,,,,,,,,
297769,2022-12-06_16h01.30.768,vts_reward_expectancy_bt,2022.2.4,MacIntel,60.0024001,Chrome,1440,900,,,,,0,1128,,,,,,,,,,,,,,,,,167,W,triangle,1,0,,,,,,,,,,,,,,,,repeat,number,numRpt,f,0.5802,Hi,,,,,,3,,,,,,,,high,18,0,18,0,1,,,,,,,,,
297769,2022-12-06_16h01.30.768,vts_reward_expectancy_bt,2022.2.4,MacIntel,60.0024001,Chrome,1440,900,,,,,10,1138,,,,,,,,,,,,,,,,,125,D,circle,1,0,,,,,,,,,,,,,,,,switch,letter,lettSwt,j,0.6468,Lo,,,,,,3,,,,,,,,high,19,0,19,0,1,,,,,,,,,
297769,2022-12-06_16h01.30.768,vts_reward_expectancy_bt,2022.2.4,MacIntel,60.0024001,Chrome,1440,900,,,,,10,1148,,,,,,,,,,,,,,,,,181,F,circle,1,0,,,,,,,,,,,,,,,,repeat,letter,lettRpt,j,0.5484,Lo,,,,,,3,,,,,,,,high,20,0,20,0,1,,,,,,,,,
297769,2022-12-06_16h01.30.768,vts_reward_expectancy_bt,2022.2.4,MacIntel,60.0024001,Chrome,1440,900,,,,,0,1148,,,,,,,,,,,,,,,,,146,S,hexagon,0,0,,,,,,,,,,,,,,,,switch,number,NA,f,0.5465,Lo,,,,,,3,,,,,,,,high,21,0,21,0,1,,,,,,,,,
297769,2022-12-06_16h01.30.768,vts_reward_expectancy_bt,2022.2.4,MacIntel,60.0024001,Chrome,1440,900,,,,,0,1148,,,,,,,,,,,,,,,,,160,B,triangle,0,1,,,,,,,,,,,,,,,,switch,letter,NA,k,0.9476,Lo,,,,,,3,,,,,,,,high,22,0,22,0,1,,,,,,,,,
297769,2022-12-06_16h01.30.768,vts_reward_expectancy_bt,2022.2.4,MacIntel,60.0024001,Chrome,1440,900,,,,,0,1148,,,,,,,,,,,,,,,,,132,Y,star,1,1,,,,,,,,,,,,,,,,repeat,letter,lettRpt,k,0.6733,Hi,,,,,,3,,,,,,,,high,23,0,23,0,1,,,,,,,,,
297769,2022-12-06_16h01.30.768,vts_reward_expectancy_bt,2022.2.4,MacIntel,60.0024001,Chrome,1440,900,,,,,0,1148,,,,,,,,,,,,,,,,,146,U,triangle,1,0,,,,,,,,,,,,,,,,repeat,letter,lettRpt,k,0.6031,Hi,,,,,,3,,,,,,,,high,24,0,24,0,1,,,,,,,,,
297769,2022-12-06_16h01.30.768,vts_reward_expectancy_bt,2022.2.4,MacIntel,60.0024001,Chrome,1440,900,,,,,1,1149,,,,,,,,,,,,,,,,,174,B,circle,1,0,,,,,,,,,,,,,,,,repeat,letter,lettRpt,j,0.4636,Lo,,,,,,3,,,,,,,,high,25,0,25,0,1,,,,,,,,,
297769,2022-12-06_16h01.30.768,vts_reward_expectancy_bt,2022.2.4,MacIntel,60.0024001,Chrome,1440,900,,,,,0,1149,,,,,,,,,,,,,,,,,160,D,star,1,0,,,,,,,,,,,,,,,,switch,number,numSwt,f,0.4993,Hi,,,,,,3,,,,,,,,high,26,0,26,0,1,,,,,,,,,
297769,2022-12-06_16h01.30.768,vts_reward_expectancy_bt,2022.2.4,MacIntel,60.0024001,Chrome,1440,900,,,,,1,1150,,,,,,,,,,,,,,,,,181,Y,hexagon,1,0,,,,,,,,,,,,,,,,repeat,number,numRpt,f,0.4478,Lo,,,,,,3,,,,,,,,high,27,0,27,0,1,,,,,,,,,
297769,2022-12-06_16h01.30.768,vts_reward_expectancy_bt,2022.2.4,MacIntel,60.0024001,Chrome,1440,900,,,,,1,1151,,,,,,,,,,,,,,,,,132,H,hexagon,1,0,,,,,,,,,,,,,,,,repeat,number,numRpt,d,0.5341,Lo,,,,,,3,,,,,,,,high,28,0,28,0,1,,,,,,,,,
297769,2022-12-06_16h01.30.768,vts_reward_expectancy_bt,2022.2.4,MacIntel,60.0024001,Chrome,1440,900,,,,,10,1161,,,,,,,,,,,,,,,,,139,F,triangle,1,0,,,,,,,,,,,,,,,,switch,letter,lettSwt,j,0.4138,Hi,,,,,,3,,,,,,,,high,29,0,29,0,1,,,,,,,,,
297769,2022-12-06_16h01.30.768,vts_reward_expectancy_bt,2022.2.4,MacIntel,60.0024001,Chrome,1440,900,,,,,10,1171,,,,,,,,,,,,,,,,,167,W,circle,1,0,,,,,,,,,,,,,,,,repeat,letter,lettRpt,k,0.4167,Lo,,,,,,3,,,,,,,,high,30,0,30,0,1,,,,,,,,,
297769,2022-12-06_16h01.30.768,vts_reward_expectancy_bt,2022.2.4,MacIntel,60.0024001,Chrome,1440,900,,,,,10,1181,,,,,,,,,,,,,,,,,125,S,star,1,0,,,,,,,,,,,,,,,,repeat,letter,lettRpt,k,0.383,Hi,,,,,,3,,,,,,,,high,31,0,31,0,1,,,,,,,,,
297769,2022-12-06_16h01.30.768,vts_reward_expectancy_bt,2022.2.4,MacIntel,60.0024001,Chrome,1440,900,,,,,0,1181,,,,,,,,,,,,,,,,,125,B,triangle,0,0,,,,,,,,,,,,,,,,repeat,letter,NA,k,0.39,Hi,,,,,,4,,,,,,space,2.2237,high,0,0,0,0,1,,,,,,,,,
297769,2022-12-06_16h01.30.768,vts_reward_expectancy_bt,2022.2.4,MacIntel,60.0024001,Chrome,1440,900,,,,,0,1181,,,,,,,,,,,,,,,,,174,Y,star,1,1,,,,,,,,,,,,,,,,repeat,letter,lettRpt,k,0.481,Hi,,,,,,4,,,,,,,,high,1,0,1,0,1,,,,,,,,,
297769,2022-12-06_16h01.30.768,vts_reward_expectancy_bt,2022.2.4,MacIntel,60.0024001,Chrome,1440,900,,,,,0,1181,,,,,,,,,,,,,,,,,139,F,hexagon,0,0,,,,,,,,,,,,,,,,repeat,letter,NA,k,0.001,Hi,,,,,,4,,,,,,,,high,2,0,2,0,1,,,,,,,,,
297769,2022-12-06_16h01.30.768,vts_reward_expectancy_bt,2022.2.4,MacIntel,60.0024001,Chrome,1440,900,,,,,0,1181,,,,,,,,,,,,,,,,,167,H,circle,0,1,,,,,,,,,,,,,,,,repeat,letter,NA,k,0.0298,Hi,,,,,,4,,,,,,,,high,3,0,3,0,1,,,,,,,,,
297769,2022-12-06_16h01.30.768,vts_reward_expectancy_bt,2022.2.4,MacIntel,60.0024001,Chrome,1440,900,,,,,1,1182,,,,,,,,,,,,,,,,,132,W,triangle,1,1,,,,,,,,,,,,,,,,repeat,letter,lettRpt,k,0.0815,Hi,,,,,,4,,,,,,,,high,4,0,4,0,1,,,,,,,,,
297769,2022-12-06_16h01.30.768,vts_reward_expectancy_bt,2022.2.4,MacIntel,60.0024001,Chrome,1440,900,,,,,10,1192,,,,,,,,,,,,,,,,,160,U,star,1,0,,,,,,,,,,,,,,,,repeat,letter,lettRpt,k,0.0298,Hi,,,,,,4,,,,,,,,high,5,0,5,0,1,,,,,,,,,
297769,2022-12-06_16h01.30.768,vts_reward_expectancy_bt,2022.2.4,MacIntel,60.0024001,Chrome,1440,900,,,,,0,1192,,,,,,,,,,,,,,,,,181,D,hexagon,0,0,,,,,,,,,,,,,,,,repeat,letter,NA,k,0.0004,Hi,,,,,,4,,,,,,,,high,6,0,6,0,1,,,,,,,,,
297769,2022-12-06_16h01.30.768,vts_reward_expectancy_bt,2022.2.4,MacIntel,60.0024001,Chrome,1440,900,,,,,1,1193,,,,,,,,,,,,,,,,,146,S,circle,1,1,,,,,,,,,,,,,,,,repeat,letter,lettRpt,k,0.0811,Lo,,,,,,4,,,,,,,,high,7,0,7,0,1,,,,,,,,,
297769,2022-12-06_16h01.30.768,vts_reward_expectancy_bt,2022.2.4,MacIntel,60.0024001,Chrome,1440,900,,,,,0,1193,,,,,,,,,,,,,,,,,125,B,triangle,0,0,,,,,,,,,,,,,,,,repeat,letter,NA,k,0.2312,Lo,,,,,,4,,,,,,,,high,8,0,8,0,1,,,,,,,,,
297769,2022-12-06_16h01.30.768,vts_reward_expectancy_bt,2022.2.4,MacIntel,60.0024001,Chrome,1440,900,,,,,10,1203,,,,,,,,,,,,,,,,,174,Y,star,1,1,,,,,,,,,,,,,,,,repeat,letter,lettRpt,k,0.0362,Hi,,,,,,4,,,,,,,,high,9,0,9,0,1,,,,,,,,,
297769,2022-12-06_16h01.30.768,vts_reward_expectancy_bt,2022.2.4,MacIntel,60.0024001,Chrome,1440,900,,,,,0,1203,,,,,,,,,,,,,,,,,139,F,circle,0,0,,,,,,,,,,,,,,,,repeat,letter,NA,k,0.0129,Hi,,,,,,4,,,,,,,,high,10,0,10,0,1,,,,,,,,,
297769,2022-12-06_16h01.30.768,vts_reward_expectancy_bt,2022.2.4,MacIntel,60.0024001,Chrome,1440,900,,,,,0,1203,,,,,,,,,,,,,,,,,167,H,hexagon,0,1,,,,,,,,,,,,,,,,repeat,letter,NA,k,0.0832,Hi,,,,,,4,,,,,,,,high,11,0,11,0,1,,,,,,,,,
297769,2022-12-06_16h01.30.768,vts_reward_expectancy_bt,2022.2.4,MacIntel,60.0024001,Chrome,1440,900,,,,,10,1213,,,,,,,,,,,,,,,,,132,W,circle,1,1,,,,,,,,,,,,,,,,repeat,letter,lettRpt,k,0.447,Lo,,,,,,4,,,,,,,,high,12,0,12,0,1,,,,,,,,,
297769,2022-12-06_16h01.30.768,vts_reward_expectancy_bt,2022.2.4,MacIntel,60.0024001,Chrome,1440,900,,,,,1,1214,,,,,,,,,,,,,,,,,160,U,hexagon,1,0,,,,,,,,,,,,,,,,repeat,letter,lettRpt,k,0.4045,Lo,,,,,,4,,,,,,,,high,13,0,13,0,1,,,,,,,,,
297769,2022-12-06_16h01.30.768,vts_reward_expectancy_bt,2022.2.4,MacIntel,60.0024001,Chrome,1440,900,,,,,10,1224,,,,,,,,,,,,,,,,,181,D,triangle,1,0,,,,,,,,,,,,,,,,repeat,letter,lettRpt,j,0.4138,Hi,,,,,,4,,,,,,,,high,14,0,14,0,1,,,,,,,,,
297769,2022-12-06_16h01.30.768,vts_reward_expectancy_bt,2022.2.4,MacIntel,60.0024001,Chrome,1440,900,,,,,0,1224,,,,,,,,,,,,,,,,,146,S,star,0,0,,,,,,,,,,,,,,,,repeat,letter,NA,j,0.3801,Hi,,,,,,4,,,,,,,,high,15,0,15,0,1,,,,,,,,,
297769,2022-12-06_16h01.30.768,vts_reward_expectancy_bt,2022.2.4,MacIntel,60.0024001,Chrome,1440,900,,,,,10,1234,,,,,,,,,,,,,,,,,132,U,circle,1,1,,,,,,,,,,,,,,,,repeat,letter,lettRpt,k,0.4837,Lo,,,,,,4,,,,,,,,high,16,0,16,0,1,,,,,,,,,
297769,2022-12-06_16h01.30.768,vts_reward_expectancy_bt,2022.2.4,MacIntel,60.0024001,Chrome,1440,900,,,,,10,1244,,,,,,,,,,,,,,,,,160,Y,triangle,1,0,,,,,,,,,,,,,,,,repeat,letter,lettRpt,k,0.4294,Hi,,,,,,4,,,,,,,,high,17,0,17,0,1,,,,,,,,,
297769,2022-12-06_16h01.30.768,vts_reward_expectancy_bt,2022.2.4,MacIntel,60.0024001,Chrome,1440,900,,,,,10,1254,,,,,,,,,,,,,,,,,181,D,star,1,0,,,,,,,,,,,,,,,,repeat,letter,lettRpt,j,0.2638,Hi,,,,,,4,,,,,,,,high,18,0,18,0,1,,,,,,,,,
297769,2022-12-06_16h01.30.768,vts_reward_expectancy_bt,2022.2.4,MacIntel,60.0024001,Chrome,1440,900,,,,,1,1255,,,,,,,,,,,,,,,,,139,H,hexagon,1,0,,,,,,,,,,,,,,,,repeat,letter,lettRpt,j,0.0972,Lo,,,,,,4,,,,,,,,high,19,0,19,0,1,,,,,,,,,
297769,2022-12-06_16h01.30.768,vts_reward_expectancy_bt,2022.2.4,MacIntel,60.0024001,Chrome,1440,900,,,,,10,1265,,,,,,,,,,,,,,,,,167,S,hexagon,1,0,,,,,,,,,,,,,,,,repeat,letter,lettRpt,k,0.3498,Lo,,,,,,4,,,,,,,,high,20,0,20,0,1,,,,,,,,,
297769,2022-12-06_16h01.30.768,vts_reward_expectancy_bt,2022.2.4,MacIntel,60.0024001,Chrome,1440,900,,,,,1,1266,,,,,,,,,,,,,,,,,125,F,triangle,1,0,,,,,,,,,,,,,,,,repeat,letter,lettRpt,j,0.4187,Hi,,,,,,4,,,,,,,,high,21,0,21,0,1,,,,,,,,,
297769,2022-12-06_16h01.30.768,vts_reward_expectancy_bt,2022.2.4,MacIntel,60.0024001,Chrome,1440,900,,,,,0,1266,,,,,,,,,,,,,,,,,146,B,star,0,0,,,,,,,,,,,,,,,,repeat,letter,NA,k,0.2968,Hi,,,,,,4,,,,,,,,high,22,0,22,0,1,,,,,,,,,
297769,2022-12-06_16h01.30.768,vts_reward_expectancy_bt,2022.2.4,MacIntel,60.0024001,Chrome,1440,900,,,,,10,1276,,,,,,,,,,,,,,,,,174,W,circle,1,1,,,,,,,,,,,,,,,,repeat,letter,lettRpt,k,0.3556,Lo,,,,,,4,,,,,,,,high,23,0,23,0,1,,,,,,,,,
297769,2022-12-06_16h01.30.768,vts_reward_expectancy_bt,2022.2.4,MacIntel,60.0024001,Chrome,1440,900,,,,,1,1277,,,,,,,,,,,,,,,,,167,W,hexagon,1,0,,,,,,,,,,,,,,,,repeat,letter,lettRpt,k,0.4969,Lo,,,,,,4,,,,,,,,high,24,0,24,0,1,,,,,,,,,
297769,2022-12-06_16h01.30.768,vts_reward_expectancy_bt,2022.2.4,MacIntel,60.0024001,Chrome,1440,900,,,,,1,1278,,,,,,,,,,,,,,,,,146,D,circle,1,0,,,,,,,,,,,,,,,,repeat,letter,lettRpt,j,0.6886,Lo,,,,,,4,,,,,,,,high,25,0,25,0,1,,,,,,,,,
297769,2022-12-06_16h01.30.768,vts_reward_expectancy_bt,2022.2.4,MacIntel,60.0024001,Chrome,1440,900,,,,,1,1279,,,,,,,,,,,,,,,,,132,S,triangle,1,0,,,,,,,,,,,,,,,,repeat,letter,lettRpt,k,0.2497,Hi,,,,,,4,,,,,,,,high,26,0,26,0,1,,,,,,,,,
297769,2022-12-06_16h01.30.768,vts_reward_expectancy_bt,2022.2.4,MacIntel,60.0024001,Chrome,1440,900,,,,,0,1279,,,,,,,,,,,,,,,,,174,H,star,0,0,,,,,,,,,,,,,,,,repeat,letter,NA,k,0.3802,Hi,,,,,,4,,,,,,,,high,27,0,27,0,1,,,,,,,,,
297769,2022-12-06_16h01.30.768,vts_reward_expectancy_bt,2022.2.4,MacIntel,60.0024001,Chrome,1440,900,,,,,0,1279,,,,,,,,,,,,,,,,,160,F,circle,0,1,,,,,,,,,,,,,,,,repeat,letter,NA,k,0.5455,Hi,,,,,,4,,,,,,,,high,28,0,28,0,1,,,,,,,,,
297769,2022-12-06_16h01.30.768,vts_reward_expectancy_bt,2022.2.4,MacIntel,60.0024001,Chrome,1440,900,,,,,10,1289,,,,,,,,,,,,,,,,,125,Y,hexagon,1,1,,,,,,,,,,,,,,,,repeat,letter,lettRpt,k,0.4961,Lo,,,,,,4,,,,,,,,high,29,0,29,0,1,,,,,,,,,
297769,2022-12-06_16h01.30.768,vts_reward_expectancy_bt,2022.2.4,MacIntel,60.0024001,Chrome,1440,900,,,,,0,1289,,,,,,,,,,,,,,,,,181,B,star,1,0,,,,,,,,,,,,,,,,repeat,letter,lettRpt,j,0.6177,Hi,,,,,,4,,,,,,,,high,30,0,30,0,1,,,,,,,,,
297769,2022-12-06_16h01.30.768,vts_reward_expectancy_bt,2022.2.4,MacIntel,60.0024001,Chrome,1440,900,,,,,0,1289,,,,,,,,,,,,,,,,,139,U,triangle,0,0,,,,,,,,,,,,,,,,repeat,letter,NA,j,0.0558,Hi,,,,,,4,,,,,,,,high,31,0,31,0,1,,,,,,,,,
297769,2022-12-06_16h01.30.768,vts_reward_expectancy_bt,2022.2.4,MacIntel,60.0024001,Chrome,1440,900,,,,,0,1289,,,,,,,,,,,,,,,,,167,U,triangle,0,1,,,,,,,,,,,,,,,,repeat,letter,NA,j,0.0127,Hi,,,,,,5,,,,,,space,0.8237,high,0,0,0,0,1,,,,,,,,,
297769,2022-12-06_16h01.30.768,vts_reward_expectancy_bt,2022.2.4,MacIntel,60.0024001,Chrome,1440,900,,,,,1,1290,,,,,,,,,,,,,,,,,181,D,circle,1,1,,,,,,,,,,,,,,,,repeat,letter,lettRpt,j,0.0465,Lo,,,,,,5,,,,,,,,high,1,0,1,0,1,,,,,,,,,
297769,2022-12-06_16h01.30.768,vts_reward_expectancy_bt,2022.2.4,MacIntel,60.0024001,Chrome,1440,900,,,,,10,1300,,,,,,,,,,,,,,,,,125,W,star,1,0,,,,,,,,,,,,,,,,repeat,letter,lettRpt,k,0.0375,Hi,,,,,,5,,,,,,,,high,2,0,2,0,1,,,,,,,,,
297769,2022-12-06_16h01.30.768,vts_reward_expectancy_bt,2022.2.4,MacIntel,60.0024001,Chrome,1440,900,,,,,1,1301,,,,,,,,,,,,,,,,,146,S,hexagon,1,0,,,,,,,,,,,,,,,,repeat,letter,lettRpt,k,0.0463,Lo,,,,,,5,,,,,,,,high,3,0,3,0,1,,,,,,,,,
297769,2022-12-06_16h01.30.768,vts_reward_expectancy_bt,2022.2.4,MacIntel,60.0024001,Chrome,1440,900,,,,,10,1311,,,,,,,,,,,,,,,,,132,H,triangle,1,0,,,,,,,,,,,,,,,,repeat,letter,lettRpt,j,0.0054,Hi,,,,,,5,,,,,,,,high,4,0,4,0,1,,,,,,,,,
297769,2022-12-06_16h01.30.768,vts_reward_expectancy_bt,2022.2.4,MacIntel,60.0024001,Chrome,1440,900,,,,,1,1312,,,,,,,,,,,,,,,,,160,B,circle,1,0,,,,,,,,,,,,,,,,repeat,letter,lettRpt,j,0.1143,Lo,,,,,,5,,,,,,,,high,5,0,5,0,1,,,,,,,,,
297769,2022-12-06_16h01.30.768,vts_reward_expectancy_bt,2022.2.4,MacIntel,60.0024001,Chrome,1440,900,,,,,10,1322,,,,,,,,,,,,,,,,,174,F,star,1,0,,,,,,,,,,,,,,,,repeat,letter,lettRpt,j,0.0636,Hi,,,,,,5,,,,,,,,high,6,0,6,0,1,,,,,,,,,
297769,2022-12-06_16h01.30.768,vts_reward_expectancy_bt,2022.2.4,MacIntel,60.0024001,Chrome,1440,900,,,,,10,1332,,,,,,,,,,,,,,,,,139,Y,hexagon,1,0,,,,,,,,,,,,,,,,repeat,letter,lettRpt,k,0.1529,Lo,,,,,,5,,,,,,,,high,7,0,7,0,1,,,,,,,,,
297769,2022-12-06_16h01.30.768,vts_reward_expectancy_bt,2022.2.4,MacIntel,60.0024001,Chrome,1440,900,,,,,0,1332,,,,,,,,,,,,,,,,,167,U,circle,0,0,,,,,,,,,,,,,,,,repeat,letter,NA,j,0.0657,Lo,,,,,,5,,,,,,,,high,8,0,8,0,1,,,,,,,,,
297769,2022-12-06_16h01.30.768,vts_reward_expectancy_bt,2022.2.4,MacIntel,60.0024001,Chrome,1440,900,,,,,0,1332,,,,,,,,,,,,,,,,,181,D,hexagon,0,1,,,,,,,,,,,,,,,,repeat,letter,NA,k,0.1376,Lo,,,,,,5,,,,,,,,high,9,0,9,0,1,,,,,,,,,
297769,2022-12-06_16h01.30.768,vts_reward_expectancy_bt,2022.2.4,MacIntel,60.0024001,Chrome,1440,900,,,,,1,1333,,,,,,,,,,,,,,,,,125,W,triangle,1,1,,,,,,,,,,,,,,,,repeat,letter,lettRpt,k,0.0796,Hi,,,,,,5,,,,,,,,high,10,0,10,0,1,,,,,,,,,
297769,2022-12-06_16h01.30.768,vts_reward_expectancy_bt,2022.2.4,MacIntel,60.0024001,Chrome,1440,900,,,,,10,1343,,,,,,,,,,,,,,,,,146,S,star,1,0,,,,,,,,,,,,,,,,repeat,letter,lettRpt,k,0.2806,Hi,,,,,,5,,,,,,,,high,11,0,11,0,1,,,,,,,,,
297769,2022-12-06_16h01.30.768,vts_reward_expectancy_bt,2022.2.4,MacIntel,60.0024001,Chrome,1440,900,,,,,1,1344,,,,,,,,,,,,,,,,,132,H,hexagon,1,0,,,,,,,,,,,,,,,,repeat,letter,lettRpt,j,0.1289,Lo,,,,,,5,,,,,,,,high,12,0,12,0,1,,,,,,,,,
297769,2022-12-06_16h01.30.768,vts_reward_expectancy_bt,2022.2.4,MacIntel,60.0024001,Chrome,1440,900,,,,,0,1344,,,,,,,,,,,,,,,,,160,B,triangle,0,0,,,,,,,,,,,,,,,,repeat,letter,NA,k,0.0486,Lo,,,,,,5,,,,,,,,high,13,0,13,0,1,,,,,,,,,
297769,2022-12-06_16h01.30.768,vts_reward_expectancy_bt,2022.2.4,MacIntel,60.0024001,Chrome,1440,900,,,,,0,1344,,,,,,,,,,,,,,,,,174,F,star,0,1,,,,,,,,,,,,,,,,repeat,letter,NA,k,0.1874,Lo,,,,,,5,,,,,,,,high,14,0,14,0,1,,,,,,,,,
297769,2022-12-06_16h01.30.768,vts_reward_expectancy_bt,2022.2.4,MacIntel,60.0024001,Chrome,1440,900,,,,,1,1345,,,,,,,,,,,,,,,,,139,Y,circle,1,1,,,,,,,,,,,,,,,,repeat,letter,lettRpt,k,0.0199,Lo,,,,,,5,,,,,,,,high,15,0,15,0,1,,,,,,,,,
297769,2022-12-06_16h01.30.768,vts_reward_expectancy_bt,2022.2.4,MacIntel,60.0024001,Chrome,1440,900,,,,,0,1345,,,,,,,,,,,,,,,,,125,F,star,0,0,,,,,,,,,,,,,,,,repeat,letter,NA,k,0.3004,Lo,,,,,,5,,,,,,,,high,16,0,16,0,1,,,,,,,,,
297769,2022-12-06_16h01.30.768,vts_reward_expectancy_bt,2022.2.4,MacIntel,60.0024001,Chrome,1440,900,,,,,0,1345,,,,,,,,,,,,,,,,,181,H,triangle,0,1,,,,,,,,,,,,,,,,repeat,letter,NA,k,0.3052,Lo,,,,,,5,,,,,,,,high,17,0,17,0,1,,,,,,,,,
297769,2022-12-06_16h01.30.768,vts_reward_expectancy_bt,2022.2.4,MacIntel,60.0024001,Chrome,1440,900,,,,,1,1346,,,,,,,,,,,,,,,,,146,S,circle,1,1,,,,,,,,,,,,,,,,repeat,letter,lettRpt,k,0.2841,Lo,,,,,,5,,,,,,,,high,18,0,18,0,1,,,,,,,,,
297769,2022-12-06_16h01.30.768,vts_reward_expectancy_bt,2022.2.4,MacIntel,60.0024001,Chrome,1440,900,,,,,0,1346,,,,,,,,,,,,,,,,,174,U,hexagon,0,0,,,,,,,,,,,,,,,,repeat,letter,NA,j,0.3479,Lo,,,,,,5,,,,,,,,high,19,0,19,0,1,,,,,,,,,
297769,2022-12-06_16h01.30.768,vts_reward_expectancy_bt,2022.2.4,MacIntel,60.0024001,Chrome,1440,900,,,,,10,1356,,,,,,,,,,,,,,,,,167,B,hexagon,1,1,,,,,,,,,,,,,,,,repeat,letter,lettRpt,j,0.3519,Lo,,,,,,5,,,,,,,,high,20,0,20,0,1,,,,,,,,,
297769,2022-12-06_16h01.30.768,vts_reward_expectancy_bt,2022.2.4,MacIntel,60.0024001,Chrome,1440,900,,,,,0,1356,,,,,,,,,,,,,,,,,160,W,triangle,1,0,,,,,,,,,,,,,,,,repeat,letter,lettRpt,k,0.7646,Hi,,,,,,5,,,,,,,,high,21,0,21,0,1,,,,,,,,,
297769,2022-12-06_16h01.30.768,vts_reward_expectancy_bt,2022.2.4,MacIntel,60.0024001,Chrome,1440,900,,,,,1,1357,,,,,,,,,,,,,,,,,132,D,circle,1,0,,,,,,,,,,,,,,,,repeat,letter,lettRpt,j,0.6341,Lo,,,,,,5,,,,,,,,high,22,0,22,0,1,,,,,,,,,
297769,2022-12-06_16h01.30.768,vts_reward_expectancy_bt,2022.2.4,MacIntel,60.0024001,Chrome,1440,900,,,,,0,1357,,,,,,,,,,,,,,,,,139,Y,star,0,0,,,,,,,,,,,,,,,,repeat,letter,NA,j,0.0674,Lo,,,,,,5,,,,,,,,high,23,0,23,0,1,,,,,,,,,
297769,2022-12-06_16h01.30.768,vts_reward_expectancy_bt,2022.2.4,MacIntel,60.0024001,Chrome,1440,900,,,,,0,1357,,,,,,,,,,,,,,,,,174,H,circle,0,1,,,,,,,,,,,,,,,,repeat,letter,NA,k,0.0125,Lo,,,,,,5,,,,,,,,high,24,0,24,0,1,,,,,,,,,
297769,2022-12-06_16h01.30.768,vts_reward_expectancy_bt,2022.2.4,MacIntel,60.0024001,Chrome,1440,900,,,,,10,1367,,,,,,,,,,,,,,,,,125,B,star,1,1,,,,,,,,,,,,,,,,repeat,letter,lettRpt,j,0.0789,Hi,,,,,,5,,,,,,,,high,25,0,25,0,1,,,,,,,,,
297769,2022-12-06_16h01.30.768,vts_reward_expectancy_bt,2022.2.4,MacIntel,60.0024001,Chrome,1440,900,,,,,10,1377,,,,,,,,,,,,,,,,,132,U,triangle,1,0,,,,,,,,,,,,,,,,repeat,letter,lettRpt,k,0.0798,Hi,,,,,,5,,,,,,,,high,26,0,26,0,1,,,,,,,,,
297769,2022-12-06_16h01.30.768,vts_reward_expectancy_bt,2022.2.4,MacIntel,60.0024001,Chrome,1440,900,,,,,1,1378,,,,,,,,,,,,,,,,,139,S,hexagon,1,0,,,,,,,,,,,,,,,,repeat,letter,lettRpt,k,0.0236,Lo,,,,,,5,,,,,,,,high,27,0,27,0,1,,,,,,,,,
297769,2022-12-06_16h01.30.768,vts_reward_expectancy_bt,2022.2.4,MacIntel,60.0024001,Chrome,1440,900,,,,,10,1388,,,,,,,,,,,,,,,,,146,W,star,1,0,,,,,,,,,,,,,,,,repeat,letter,lettRpt,k,0.0562,Hi,,,,,,5,,,,,,,,high,28,0,28,0,1,,,,,,,,,
297769,2022-12-06_16h01.30.768,vts_reward_expectancy_bt,2022.2.4,MacIntel,60.0024001,Chrome,1440,900,,,,,0,1388,,,,,,,,,,,,,,,,,167,Y,triangle,0,0,,,,,,,,,,,,,,,,repeat,letter,NA,j,0.0862,Hi,,,,,,5,,,,,,,,high,29,0,29,0,1,,,,,,,,,
297769,2022-12-06_16h01.30.768,vts_reward_expectancy_bt,2022.2.4,MacIntel,60.0024001,Chrome,1440,900,,,,,0,1388,,,,,,,,,,,,,,,,,160,D,circle,0,1,,,,,,,,,,,,,,,,repeat,letter,NA,k,0.0473,Hi,,,,,,5,,,,,,,,high,30,0,30,0,1,,,,,,,,,
297769,2022-12-06_16h01.30.768,vts_reward_expectancy_bt,2022.2.4,MacIntel,60.0024001,Chrome,1440,900,,,,,1,1389,,,,,,,,,,,,,,,,,181,F,hexagon,1,1,,,,,,,,,,,,,,,,repeat,letter,lettRpt,j,0.3146,Lo,,,,,,5,,,,,,,,high,31,0,31,0,1,,,,,,,,,
297769,2022-12-06_16h01.30.768,vts_reward_expectancy_bt,2022.2.4,MacIntel,60.0024001,Chrome,1440,900,,,,,0,1389,,,,,,,,,,,,,,,,,174,B,circle,0,0,,,,,,,,,,,,,,,,repeat,letter,NA,k,0.0296,Lo,,,,,,6,,,,,,space,0.845,high,0,0,0,0,1,,,,,,,,,
297769,2022-12-06_16h01.30.768,vts_reward_expectancy_bt,2022.2.4,MacIntel,60.0024001,Chrome,1440,900,,,,,0,1389,,,,,,,,,,,,,,,,,146,F,star,0,1,,,,,,,,,,,,,,,,repeat,letter,NA,k,0.0356,Lo,,,,,,6,,,,,,,,high,1,0,1,0,1,,,,,,,,,
297769,2022-12-06_16h01.30.768,vts_reward_expectancy_bt,2022.2.4,MacIntel,60.0024001,Chrome,1440,900,,,,,1,1390,,,,,,,,,,,,,,,,,132,Y,hexagon,1,1,,,,,,,,,,,,,,,,repeat,letter,lettRpt,k,0.0125,Lo,,,,,,6,,,,,,,,high,2,0,2,0,1,,,,,,,,,
297769,2022-12-06_16h01.30.768,vts_reward_expectancy_bt,2022.2.4,MacIntel,60.0024001,Chrome,1440,900,,,,,0,1390,,,,,,,,,,,,,,,,,139,W,triangle,0,0,,,,,,,,,,,,,,,,repeat,letter,NA,j,0.0821,Lo,,,,,,6,,,,,,,,high,3,0,3,0,1,,,,,,,,,
297769,2022-12-06_16h01.30.768,vts_reward_expectancy_bt,2022.2.4,MacIntel,60.0024001,Chrome,1440,900,,,,,1,1391,,,,,,,,,,,,,,,,,167,D,circle,1,1,,,,,,,,,,,,,,,,repeat,letter,lettRpt,j,0.0975,Lo,,,,,,6,,,,,,,,high,4,0,4,0,1,,,,,,,,,
297769,2022-12-06_16h01.30.768,vts_reward_expectancy_bt,2022.2.4,MacIntel,60.0024001,Chrome,1440,900,,,,,0,1391,,,,,,,,,,,,,,,,,125,U,star,0,0,,,,,,,,,,,,,,,,repeat,letter,NA,j,0.0176,Lo,,,,,,6,,,,,,,,high,5,0,5,0,1,,,,,,,,,
297769,2022-12-06_16h01.30.768,vts_reward_expectancy_bt,2022.2.4,MacIntel,60.0024001,Chrome,1440,900,,,,,1,1392,,,,,,,,,,,,,,,,,160,H,hexagon,1,1,,,,,,,,,,,,,,,,repeat,letter,lettRpt,j,0.064,Lo,,,,,,6,,,,,,,,high,6,0,6,0,1,,,,,,,,,
297769,2022-12-06_16h01.30.768,vts_reward_expectancy_bt,2022.2.4,MacIntel,60.0024001,Chrome,1440,900,,,,,0,1392,,,,,,,,,,,,,,,,,181,S,triangle,0,0,,,,,,,,,,,,,,,,repeat,letter,NA,j,0.2514,Lo,,,,,,6,,,,,,,,high,7,0,7,0,1,,,,,,,,,
297769,2022-12-06_16h01.30.768,vts_reward_expectancy_bt,2022.2.4,MacIntel,60.0024001,Chrome,1440,900,,,,,0,1392,,,,,,,,,,,,,,,,,174,B,hexagon,0,1,,,,,,,,,,,,,,,,repeat,letter,NA,k,0.1306,Lo,,,,,,6,,,,,,,,high,8,0,8,0,1,,,,,,,,,
297769,2022-12-06_16h01.30.768,vts_reward_expectancy_bt,2022.2.4,MacIntel,60.0024001,Chrome,1440,900,,,,,1,1393,,,,,,,,,,,,,,,,,146,F,circle,1,1,,,,,,,,,,,,,,,,repeat,letter,lettRpt,j,0.2839,Lo,,,,,,6,,,,,,,,high,9,0,9,0,1,,,,,,,,,
297769,2022-12-06_16h01.30.768,vts_reward_expectancy_bt,2022.2.4,MacIntel,60.0024001,Chrome,1440,900,,,,,0,1393,,,,,,,,,,,,,,,,,132,Y,star,0,0,,,,,,,,,,,,,,,,repeat,letter,NA,j,0.2223,Lo,,,,,,6,,,,,,,,high,10,0,10,0,1,,,,,,,,,
297769,2022-12-06_16h01.30.768,vts_reward_expectancy_bt,2022.2.4,MacIntel,60.0024001,Chrome,1440,900,,,,,0,1393,,,,,,,,,,,,,,,,,139,W,triangle,0,1,,,,,,,,,,,,,,,,repeat,letter,NA,j,0.0819,Lo,,,,,,6,,,,,,,,high,11,0,11,0,1,,,,,,,,,
