participant,date,expName,psychopyVersion,OS,frameRate,browser,xResolution,yResolution,key_resp.keys,key_resp.rt,training_resp.keys,training_resp.rt,points_trial,points_cumul,trainBlock,training.thisRepN,training.thisTrialN,training.thisN,training.thisIndex,training.ran,LTriangleOpac,LCircleOpac,LHexagonOpac,LStarOpac,RTriangleOpac,RCircleOpac,RHexagonOpac,RStarOpac,LShape_ID,RShape_ID,curr_topStim,curr_bottStim,curr_shape,acc,E1,target_resp_prac1.keys,target_resp_prac1.rt,pracBlock,task1_prac_trials.thisRepN,task1_prac_trials.thisTrialN,task1_prac_trials.thisN,task1_prac_trials.thisIndex,task1_prac_trials.ran,target_resp_prac2.keys,target_resp_prac2.rt,task2_praac_trials.thisRepN,task2_praac_trials.thisTrialN,task2_praac_trials.thisN,task2_praac_trials.thisIndex,task2_praac_trials.ran,alt,task,condition,target_resp.keys,rewCond,vts_practice_trials.thisRepN,vts_practice_trials.thisTrialN,vts_practice_trials.thisN,vts_practice_trials.thisIndex,vts_practice_trials.ran,target_resp.rt,blockNum,trials_norew.thisRepN,trials_norew.thisTrialN,trials_norew.thisN,trials_norew.thisIndex,trials_norew.ran,key_resp_2.keys,key_resp_2.rt,rewExpectancy,trials_rew.thisRepN,trials_rew.thisTrialN,trials_rew.thisN,trials_rew.thisIndex,trials_rew.ran,Q1,Q2,Q2_text,Q3,Q4,Q5_text,Q5,xRes,yRes
297733,2022-11-28_17h17.21.870,vts_reward_expectancy_bt,2022.2.4,MacIntel,60.0024001,Chrome,1440,900,,,,,,,,,,,,,,,,,,,,,,,,,,,,,,,,,,,,,,,,,,,,,,,,,,,,,,,,,,,,,,,,,,,,,,,,,,,,
297733,2022-11-28_17h17.21.870,vts_reward_expectancy_bt,2022.2.4,MacIntel,60.0024001,Chrome,1440,900,space,10.4228,,,,,,,,,,,,,,,,,,,,,,,,,,,,,,,,,,,,,,,,,,,,,,,,,,,,,,,,,,,,,,,,,,,,,,,,,,
297733,2022-11-28_17h17.21.870,vts_reward_expectancy_bt,2022.2.4,MacIntel,60.0024001,Chrome,1440,900,,,,,,,,,,,,,,,,,,,,,,,,,,,,,,,,,,,,,,,,,,,,,,,,,,,,,,,,,,,,,,,,,,,,,,,,,,,,
297733,2022-11-28_17h17.21.870,vts_reward_expectancy_bt,2022.2.4,MacIntel,60.0024001,Chrome,1440,900,,,l,1.9037,1,1,0,0,0,0,3,1,0,1,0,0,1,0,0,0,circle,triangle,,,,,,,,,,,,,,,,,,,,,,,,,,,,,,,,,,,,,,,,,,,,,,,,,,,,,,
297733,2022-11-28_17h17.21.870,vts_reward_expectancy_bt,2022.2.4,MacIntel,60.0024001,Chrome,1440,900,,,a,1.1961,1,2,0,0,1,1,8,1,0,0,1,0,0,0,0,1,hexagon,star,,,,,,,,,,,,,,,,,,,,,,,,,,,,,,,,,,,,,,,,,,,,,,,,,,,,,,
297733,2022-11-28_17h17.21.870,vts_reward_expectancy_bt,2022.2.4,MacIntel,60.0024001,Chrome,1440,900,,,l,2.1727,10,12,0,0,2,2,2,1,1,0,0,0,0,0,0,1,triangle,star,,,,,,,,,,,,,,,,,,,,,,,,,,,,,,,,,,,,,,,,,,,,,,,,,,,,,,
297733,2022-11-28_17h17.21.870,vts_reward_expectancy_bt,2022.2.4,MacIntel,60.0024001,Chrome,1440,900,,,l,2.3674,1,13,0,0,3,3,1,1,1,0,0,0,0,0,1,0,triangle,hexagon,,,,,,,,,,,,,,,,,,,,,,,,,,,,,,,,,,,,,,,,,,,,,,,,,,,,,,
297733,2022-11-28_17h17.21.870,vts_reward_expectancy_bt,2022.2.4,MacIntel,60.0024001,Chrome,1440,900,,,l,1.922,10,23,0,0,4,4,10,1,0,0,0,1,0,1,0,0,star ,circle,,,,,,,,,,,,,,,,,,,,,,,,,,,,,,,,,,,,,,,,,,,,,,,,,,,,,,
297733,2022-11-28_17h17.21.870,vts_reward_expectancy_bt,2022.2.4,MacIntel,60.0024001,Chrome,1440,900,,,a,0.7449,1,24,0,0,5,5,6,1,0,0,1,0,1,0,0,0,hexagon,triangle,,,,,,,,,,,,,,,,,,,,,,,,,,,,,,,,,,,,,,,,,,,,,,,,,,,,,,
297733,2022-11-28_17h17.21.870,vts_reward_expectancy_bt,2022.2.4,MacIntel,60.0024001,Chrome,1440,900,,,l,1.1467,10,34,0,0,6,6,5,1,0,1,0,0,0,0,0,1,circle,star,,,,,,,,,,,,,,,,,,,,,,,,,,,,,,,,,,,,,,,,,,,,,,,,,,,,,,
297733,2022-11-28_17h17.21.870,vts_reward_expectancy_bt,2022.2.4,MacIntel,60.0024001,Chrome,1440,900,,,a,0.8263,10,44,0,0,7,7,9,1,0,0,0,1,1,0,0,0,star,triangle,,,,,,,,,,,,,,,,,,,,,,,,,,,,,,,,,,,,,,,,,,,,,,,,,,,,,,
297733,2022-11-28_17h17.21.870,vts_reward_expectancy_bt,2022.2.4,MacIntel,60.0024001,Chrome,1440,900,,,a,1.0077,10,54,0,0,8,8,11,1,0,0,0,1,0,0,1,0,star,hexagon,,,,,,,,,,,,,,,,,,,,,,,,,,,,,,,,,,,,,,,,,,,,,,,,,,,,,,
297733,2022-11-28_17h17.21.870,vts_reward_expectancy_bt,2022.2.4,MacIntel,60.0024001,Chrome,1440,900,,,a,1.5129,1,55,0,0,9,9,7,1,0,0,1,0,0,1,0,0,hexagon,circle,,,,,,,,,,,,,,,,,,,,,,,,,,,,,,,,,,,,,,,,,,,,,,,,,,,,,,
297733,2022-11-28_17h17.21.870,vts_reward_expectancy_bt,2022.2.4,MacIntel,60.0024001,Chrome,1440,900,,,l,1.228,1,56,0,0,10,10,4,1,0,1,0,0,0,0,1,0,circle,hexagon,,,,,,,,,,,,,,,,,,,,,,,,,,,,,,,,,,,,,,,,,,,,,,,,,,,,,,
297733,2022-11-28_17h17.21.870,vts_reward_expectancy_bt,2022.2.4,MacIntel,60.0024001,Chrome,1440,900,,,a,0.9116,1,57,0,0,11,11,0,1,1,0,0,0,0,1,0,0,triangle,circle,,,,,,,,,,,,,,,,,,,,,,,,,,,,,,,,,,,,,,,,,,,,,,,,,,,,,,
297733,2022-11-28_17h17.21.870,vts_reward_expectancy_bt,2022.2.4,MacIntel,60.0024001,Chrome,1440,900,,,a,0.6477,10,67,0,1,0,12,3,1,0,1,0,0,1,0,0,0,circle,triangle,,,,,,,,,,,,,,,,,,,,,,,,,,,,,,,,,,,,,,,,,,,,,,,,,,,,,,
297733,2022-11-28_17h17.21.870,vts_reward_expectancy_bt,2022.2.4,MacIntel,60.0024001,Chrome,1440,900,,,a,1.0106,10,77,0,1,1,13,4,1,0,1,0,0,0,0,1,0,circle,hexagon,,,,,,,,,,,,,,,,,,,,,,,,,,,,,,,,,,,,,,,,,,,,,,,,,,,,,,
297733,2022-11-28_17h17.21.870,vts_reward_expectancy_bt,2022.2.4,MacIntel,60.0024001,Chrome,1440,900,,,l,1.9562,1,78,0,1,2,14,6,1,0,0,1,0,1,0,0,0,hexagon,triangle,,,,,,,,,,,,,,,,,,,,,,,,,,,,,,,,,,,,,,,,,,,,,,,,,,,,,,
297733,2022-11-28_17h17.21.870,vts_reward_expectancy_bt,2022.2.4,MacIntel,60.0024001,Chrome,1440,900,,,a,1.1785,1,79,0,1,3,15,0,1,1,0,0,0,0,1,0,0,triangle,circle,,,,,,,,,,,,,,,,,,,,,,,,,,,,,,,,,,,,,,,,,,,,,,,,,,,,,,
297733,2022-11-28_17h17.21.870,vts_reward_expectancy_bt,2022.2.4,MacIntel,60.0024001,Chrome,1440,900,,,l,1.882,10,89,0,1,4,16,7,1,0,0,1,0,0,1,0,0,hexagon,circle,,,,,,,,,,,,,,,,,,,,,,,,,,,,,,,,,,,,,,,,,,,,,,,,,,,,,,
297733,2022-11-28_17h17.21.870,vts_reward_expectancy_bt,2022.2.4,MacIntel,60.0024001,Chrome,1440,900,,,a,0.909,10,99,0,1,5,17,9,1,0,0,0,1,1,0,0,0,star,triangle,,,,,,,,,,,,,,,,,,,,,,,,,,,,,,,,,,,,,,,,,,,,,,,,,,,,,,
297733,2022-11-28_17h17.21.870,vts_reward_expectancy_bt,2022.2.4,MacIntel,60.0024001,Chrome,1440,900,,,a,0.6253,1,100,0,1,6,18,11,1,0,0,0,1,0,0,1,0,star,hexagon,,,,,,,,,,,,,,,,,,,,,,,,,,,,,,,,,,,,,,,,,,,,,,,,,,,,,,
297733,2022-11-28_17h17.21.870,vts_reward_expectancy_bt,2022.2.4,MacIntel,60.0024001,Chrome,1440,900,,,l,0.6842,1,101,0,1,7,19,1,1,1,0,0,0,0,0,1,0,triangle,hexagon,,,,,,,,,,,,,,,,,,,,,,,,,,,,,,,,,,,,,,,,,,,,,,,,,,,,,,
297733,2022-11-28_17h17.21.870,vts_reward_expectancy_bt,2022.2.4,MacIntel,60.0024001,Chrome,1440,900,,,l,1.1958,1,102,0,1,8,20,5,1,0,1,0,0,0,0,0,1,circle,star,,,,,,,,,,,,,,,,,,,,,,,,,,,,,,,,,,,,,,,,,,,,,,,,,,,,,,
297733,2022-11-28_17h17.21.870,vts_reward_expectancy_bt,2022.2.4,MacIntel,60.0024001,Chrome,1440,900,,,l,0.924,10,112,0,1,9,21,8,1,0,0,1,0,0,0,0,1,hexagon,star,,,,,,,,,,,,,,,,,,,,,,,,,,,,,,,,,,,,,,,,,,,,,,,,,,,,,,
297733,2022-11-28_17h17.21.870,vts_reward_expectancy_bt,2022.2.4,MacIntel,60.0024001,Chrome,1440,900,,,l,1.2887,10,122,0,1,10,22,2,1,1,0,0,0,0,0,0,1,triangle,star,,,,,,,,,,,,,,,,,,,,,,,,,,,,,,,,,,,,,,,,,,,,,,,,,,,,,,
297733,2022-11-28_17h17.21.870,vts_reward_expectancy_bt,2022.2.4,MacIntel,60.0024001,Chrome,1440,900,,,a,1.0435,10,132,0,1,11,23,10,1,0,0,0,1,0,1,0,0,star ,circle,,,,,,,,,,,,,,,,,,,,,,,,,,,,,,,,,,,,,,,,,,,,,,,,,,,,,,
297733,2022-11-28_17h17.21.870,vts_reward_expectancy_bt,2022.2.4,MacIntel,60.0024001,Chrome,1440,900,,,a,1.5697,10,142,0,2,0,24,10,1,0,0,0,1,0,1,0,0,star ,circle,,,,,,,,,,,,,,,,,,,,,,,,,,,,,,,,,,,,,,,,,,,,,,,,,,,,,,
297733,2022-11-28_17h17.21.870,vts_reward_expectancy_bt,2022.2.4,MacIntel,60.0024001,Chrome,1440,900,,,a,0.8228,10,152,0,2,1,25,11,1,0,0,0,1,0,0,1,0,star,hexagon,,,,,,,,,,,,,,,,,,,,,,,,,,,,,,,,,,,,,,,,,,,,,,,,,,,,,,
297733,2022-11-28_17h17.21.870,vts_reward_expectancy_bt,2022.2.4,MacIntel,60.0024001,Chrome,1440,900,,,l,0.8887,10,162,0,2,2,26,8,1,0,0,1,0,0,0,0,1,hexagon,star,,,,,,,,,,,,,,,,,,,,,,,,,,,,,,,,,,,,,,,,,,,,,,,,,,,,,,
297733,2022-11-28_17h17.21.870,vts_reward_expectancy_bt,2022.2.4,MacIntel,60.0024001,Chrome,1440,900,,,a,0.9276,1,163,0,2,3,27,6,1,0,0,1,0,1,0,0,0,hexagon,triangle,,,,,,,,,,,,,,,,,,,,,,,,,,,,,,,,,,,,,,,,,,,,,,,,,,,,,,
297733,2022-11-28_17h17.21.870,vts_reward_expectancy_bt,2022.2.4,MacIntel,60.0024001,Chrome,1440,900,,,l,1.4739,10,173,0,2,4,28,5,1,0,1,0,0,0,0,0,1,circle,star,,,,,,,,,,,,,,,,,,,,,,,,,,,,,,,,,,,,,,,,,,,,,,,,,,,,,,
297733,2022-11-28_17h17.21.870,vts_reward_expectancy_bt,2022.2.4,MacIntel,60.0024001,Chrome,1440,900,,,a,3.2711,1,174,0,2,5,29,7,1,0,0,1,0,0,1,0,0,hexagon,circle,,,,,,,,,,,,,,,,,,,,,,,,,,,,,,,,,,,,,,,,,,,,,,,,,,,,,,
297733,2022-11-28_17h17.21.870,vts_reward_expectancy_bt,2022.2.4,MacIntel,60.0024001,Chrome,1440,900,,,a,1.6789,1,175,0,2,6,30,1,1,1,0,0,0,0,0,1,0,triangle,hexagon,,,,,,,,,,,,,,,,,,,,,,,,,,,,,,,,,,,,,,,,,,,,,,,,,,,,,,
297733,2022-11-28_17h17.21.870,vts_reward_expectancy_bt,2022.2.4,MacIntel,60.0024001,Chrome,1440,900,,,l,1.2956,1,176,0,2,7,31,0,1,1,0,0,0,0,1,0,0,triangle,circle,,,,,,,,,,,,,,,,,,,,,,,,,,,,,,,,,,,,,,,,,,,,,,,,,,,,,,
297733,2022-11-28_17h17.21.870,vts_reward_expectancy_bt,2022.2.4,MacIntel,60.0024001,Chrome,1440,900,,,a,1.1566,10,186,0,2,8,32,9,1,0,0,0,1,1,0,0,0,star,triangle,,,,,,,,,,,,,,,,,,,,,,,,,,,,,,,,,,,,,,,,,,,,,,,,,,,,,,
297733,2022-11-28_17h17.21.870,vts_reward_expectancy_bt,2022.2.4,MacIntel,60.0024001,Chrome,1440,900,,,l,1.445,1,187,0,2,9,33,4,1,0,1,0,0,0,0,1,0,circle,hexagon,,,,,,,,,,,,,,,,,,,,,,,,,,,,,,,,,,,,,,,,,,,,,,,,,,,,,,
297733,2022-11-28_17h17.21.870,vts_reward_expectancy_bt,2022.2.4,MacIntel,60.0024001,Chrome,1440,900,,,l,0.9309,1,188,0,2,10,34,2,1,1,0,0,0,0,0,0,1,triangle,star,,,,,,,,,,,,,,,,,,,,,,,,,,,,,,,,,,,,,,,,,,,,,,,,,,,,,,
297733,2022-11-28_17h17.21.870,vts_reward_expectancy_bt,2022.2.4,MacIntel,60.0024001,Chrome,1440,900,,,a,0.4341,1,189,0,2,11,35,3,1,0,1,0,0,1,0,0,0,circle,triangle,,,,,,,,,,,,,,,,,,,,,,,,,,,,,,,,,,,,,,,,,,,,,,,,,,,,,,
297733,2022-11-28_17h17.21.870,vts_reward_expectancy_bt,2022.2.4,MacIntel,60.0024001,Chrome,1440,900,,,l,1.7021,10,199,1,0,0,0,2,1,1,0,0,0,0,0,0,1,triangle,star,,,,,,,,,,,,,,,,,,,,,,,,,,,,,,,,,,,,,,,,,,,,,,,,,,,,,,
297733,2022-11-28_17h17.21.870,vts_reward_expectancy_bt,2022.2.4,MacIntel,60.0024001,Chrome,1440,900,,,a,1.0194,1,200,1,0,1,1,7,1,0,0,1,0,0,1,0,0,hexagon,circle,,,,,,,,,,,,,,,,,,,,,,,,,,,,,,,,,,,,,,,,,,,,,,,,,,,,,,
297733,2022-11-28_17h17.21.870,vts_reward_expectancy_bt,2022.2.4,MacIntel,60.0024001,Chrome,1440,900,,,l,1.4768,1,201,1,0,2,2,1,1,1,0,0,0,0,0,1,0,triangle,hexagon,,,,,,,,,,,,,,,,,,,,,,,,,,,,,,,,,,,,,,,,,,,,,,,,,,,,,,
297733,2022-11-28_17h17.21.870,vts_reward_expectancy_bt,2022.2.4,MacIntel,60.0024001,Chrome,1440,900,,,a,1.6407,1,202,1,0,3,3,3,1,0,1,0,0,1,0,0,0,circle,triangle,,,,,,,,,,,,,,,,,,,,,,,,,,,,,,,,,,,,,,,,,,,,,,,,,,,,,,
297733,2022-11-28_17h17.21.870,vts_reward_expectancy_bt,2022.2.4,MacIntel,60.0024001,Chrome,1440,900,,,a,0.9337,10,212,1,0,4,4,0,1,1,0,0,0,0,1,0,0,triangle,circle,,,,,,,,,,,,,,,,,,,,,,,,,,,,,,,,,,,,,,,,,,,,,,,,,,,,,,
297733,2022-11-28_17h17.21.870,vts_reward_expectancy_bt,2022.2.4,MacIntel,60.0024001,Chrome,1440,900,,,l,0.814,1,213,1,0,5,5,9,1,0,0,0,1,1,0,0,0,star,triangle,,,,,,,,,,,,,,,,,,,,,,,,,,,,,,,,,,,,,,,,,,,,,,,,,,,,,,
297733,2022-11-28_17h17.21.870,vts_reward_expectancy_bt,2022.2.4,MacIntel,60.0024001,Chrome,1440,900,,,l,0.9218,10,223,1,0,6,6,5,1,0,1,0,0,0,0,0,1,circle,star,,,,,,,,,,,,,,,,,,,,,,,,,,,,,,,,,,,,,,,,,,,,,,,,,,,,,,
297733,2022-11-28_17h17.21.870,vts_reward_expectancy_bt,2022.2.4,MacIntel,60.0024001,Chrome,1440,900,,,a,1.288,10,233,1,0,7,7,10,1,0,0,0,1,0,1,0,0,star ,circle,,,,,,,,,,,,,,,,,,,,,,,,,,,,,,,,,,,,,,,,,,,,,,,,,,,,,,
297733,2022-11-28_17h17.21.870,vts_reward_expectancy_bt,2022.2.4,MacIntel,60.0024001,Chrome,1440,900,,,a,3.285,10,243,1,0,8,8,4,1,0,1,0,0,0,0,1,0,circle,hexagon,,,,,,,,,,,,,,,,,,,,,,,,,,,,,,,,,,,,,,,,,,,,,,,,,,,,,,
297733,2022-11-28_17h17.21.870,vts_reward_expectancy_bt,2022.2.4,MacIntel,60.0024001,Chrome,1440,900,,,a,1.3581,10,253,1,0,9,9,11,1,0,0,0,1,0,0,1,0,star,hexagon,,,,,,,,,,,,,,,,,,,,,,,,,,,,,,,,,,,,,,,,,,,,,,,,,,,,,,
297733,2022-11-28_17h17.21.870,vts_reward_expectancy_bt,2022.2.4,MacIntel,60.0024001,Chrome,1440,900,,,l,0.72,1,254,1,0,10,10,6,1,0,0,1,0,1,0,0,0,hexagon,triangle,,,,,,,,,,,,,,,,,,,,,,,,,,,,,,,,,,,,,,,,,,,,,,,,,,,,,,
297733,2022-11-28_17h17.21.870,vts_reward_expectancy_bt,2022.2.4,MacIntel,60.0024001,Chrome,1440,900,,,l,0.9362,10,264,1,0,11,11,8,1,0,0,1,0,0,0,0,1,hexagon,star,,,,,,,,,,,,,,,,,,,,,,,,,,,,,,,,,,,,,,,,,,,,,,,,,,,,,,
297733,2022-11-28_17h17.21.870,vts_reward_expectancy_bt,2022.2.4,MacIntel,60.0024001,Chrome,1440,900,,,a,0.9942,1,265,1,1,0,12,6,1,0,0,1,0,1,0,0,0,hexagon,triangle,,,,,,,,,,,,,,,,,,,,,,,,,,,,,,,,,,,,,,,,,,,,,,,,,,,,,,
297733,2022-11-28_17h17.21.870,vts_reward_expectancy_bt,2022.2.4,MacIntel,60.0024001,Chrome,1440,900,,,a,1.4526,10,275,1,1,1,13,7,1,0,0,1,0,0,1,0,0,hexagon,circle,,,,,,,,,,,,,,,,,,,,,,,,,,,,,,,,,,,,,,,,,,,,,,,,,,,,,,
297733,2022-11-28_17h17.21.870,vts_reward_expectancy_bt,2022.2.4,MacIntel,60.0024001,Chrome,1440,900,,,l,0.7466,1,276,1,1,2,14,4,1,0,1,0,0,0,0,1,0,circle,hexagon,,,,,,,,,,,,,,,,,,,,,,,,,,,,,,,,,,,,,,,,,,,,,,,,,,,,,,
297733,2022-11-28_17h17.21.870,vts_reward_expectancy_bt,2022.2.4,MacIntel,60.0024001,Chrome,1440,900,,,l,2.6069,10,286,1,1,3,15,8,1,0,0,1,0,0,0,0,1,hexagon,star,,,,,,,,,,,,,,,,,,,,,,,,,,,,,,,,,,,,,,,,,,,,,,,,,,,,,,
297733,2022-11-28_17h17.21.870,vts_reward_expectancy_bt,2022.2.4,MacIntel,60.0024001,Chrome,1440,900,,,l,0.9799,10,296,1,1,4,16,2,1,1,0,0,0,0,0,0,1,triangle,star,,,,,,,,,,,,,,,,,,,,,,,,,,,,,,,,,,,,,,,,,,,,,,,,,,,,,,
297733,2022-11-28_17h17.21.870,vts_reward_expectancy_bt,2022.2.4,MacIntel,60.0024001,Chrome,1440,900,,,l,1.7948,1,297,1,1,5,17,1,1,1,0,0,0,0,0,1,0,triangle,hexagon,,,,,,,,,,,,,,,,,,,,,,,,,,,,,,,,,,,,,,,,,,,,,,,,,,,,,,
297733,2022-11-28_17h17.21.870,vts_reward_expectancy_bt,2022.2.4,MacIntel,60.0024001,Chrome,1440,900,,,a,1.4716,1,298,1,1,6,18,10,1,0,0,0,1,0,1,0,0,star ,circle,,,,,,,,,,,,,,,,,,,,,,,,,,,,,,,,,,,,,,,,,,,,,,,,,,,,,,
297733,2022-11-28_17h17.21.870,vts_reward_expectancy_bt,2022.2.4,MacIntel,60.0024001,Chrome,1440,900,,,l,1.9442,10,308,1,1,7,19,5,1,0,1,0,0,0,0,0,1,circle,star,,,,,,,,,,,,,,,,,,,,,,,,,,,,,,,,,,,,,,,,,,,,,,,,,,,,,,
297733,2022-11-28_17h17.21.870,vts_reward_expectancy_bt,2022.2.4,MacIntel,60.0024001,Chrome,1440,900,,,l,2.8399,1,309,1,1,8,20,3,1,0,1,0,0,1,0,0,0,circle,triangle,,,,,,,,,,,,,,,,,,,,,,,,,,,,,,,,,,,,,,,,,,,,,,,,,,,,,,
297733,2022-11-28_17h17.21.870,vts_reward_expectancy_bt,2022.2.4,MacIntel,60.0024001,Chrome,1440,900,,,a,3.3068,1,310,1,1,9,21,0,1,1,0,0,0,0,1,0,0,triangle,circle,,,,,,,,,,,,,,,,,,,,,,,,,,,,,,,,,,,,,,,,,,,,,,,,,,,,,,
297733,2022-11-28_17h17.21.870,vts_reward_expectancy_bt,2022.2.4,MacIntel,60.0024001,Chrome,1440,900,,,a,0.8962,10,320,1,1,10,22,11,1,0,0,0,1,0,0,1,0,star,hexagon,,,,,,,,,,,,,,,,,,,,,,,,,,,,,,,,,,,,,,,,,,,,,,,,,,,,,,
297733,2022-11-28_17h17.21.870,vts_reward_expectancy_bt,2022.2.4,MacIntel,60.0024001,Chrome,1440,900,,,a,1.3065,10,330,1,1,11,23,9,1,0,0,0,1,1,0,0,0,star,triangle,,,,,,,,,,,,,,,,,,,,,,,,,,,,,,,,,,,,,,,,,,,,,,,,,,,,,,
297733,2022-11-28_17h17.21.870,vts_reward_expectancy_bt,2022.2.4,MacIntel,60.0024001,Chrome,1440,900,,,a,1.0325,10,340,1,2,0,24,9,1,0,0,0,1,1,0,0,0,star,triangle,,,,,,,,,,,,,,,,,,,,,,,,,,,,,,,,,,,,,,,,,,,,,,,,,,,,,,
297733,2022-11-28_17h17.21.870,vts_reward_expectancy_bt,2022.2.4,MacIntel,60.0024001,Chrome,1440,900,,,l,1.0147,10,350,1,2,1,25,7,1,0,0,1,0,0,1,0,0,hexagon,circle,,,,,,,,,,,,,,,,,,,,,,,,,,,,,,,,,,,,,,,,,,,,,,,,,,,,,,
297733,2022-11-28_17h17.21.870,vts_reward_expectancy_bt,2022.2.4,MacIntel,60.0024001,Chrome,1440,900,,,a,1.0666,1,351,1,2,2,26,6,1,0,0,1,0,1,0,0,0,hexagon,triangle,,,,,,,,,,,,,,,,,,,,,,,,,,,,,,,,,,,,,,,,,,,,,,,,,,,,,,
297733,2022-11-28_17h17.21.870,vts_reward_expectancy_bt,2022.2.4,MacIntel,60.0024001,Chrome,1440,900,,,a,1.4376,10,361,1,2,3,27,3,1,0,1,0,0,1,0,0,0,circle,triangle,,,,,,,,,,,,,,,,,,,,,,,,,,,,,,,,,,,,,,,,,,,,,,,,,,,,,,
297733,2022-11-28_17h17.21.870,vts_reward_expectancy_bt,2022.2.4,MacIntel,60.0024001,Chrome,1440,900,,,l,1.8457,1,362,1,2,4,28,1,1,1,0,0,0,0,0,1,0,triangle,hexagon,,,,,,,,,,,,,,,,,,,,,,,,,,,,,,,,,,,,,,,,,,,,,,,,,,,,,,
297733,2022-11-28_17h17.21.870,vts_reward_expectancy_bt,2022.2.4,MacIntel,60.0024001,Chrome,1440,900,,,a,0.8687,10,372,1,2,5,29,11,1,0,0,0,1,0,0,1,0,star,hexagon,,,,,,,,,,,,,,,,,,,,,,,,,,,,,,,,,,,,,,,,,,,,,,,,,,,,,,
297733,2022-11-28_17h17.21.870,vts_reward_expectancy_bt,2022.2.4,MacIntel,60.0024001,Chrome,1440,900,,,l,1.2056,10,382,1,2,6,30,10,1,0,0,0,1,0,1,0,0,star ,circle,,,,,,,,,,,,,,,,,,,,,,,,,,,,,,,,,,,,,,,,,,,,,,,,,,,,,,
297733,2022-11-28_17h17.21.870,vts_reward_expectancy_bt,2022.2.4,MacIntel,60.0024001,Chrome,1440,900,,,l,1.633,10,392,1,2,7,31,2,1,1,0,0,0,0,0,0,1,triangle,star,,,,,,,,,,,,,,,,,,,,,,,,,,,,,,,,,,,,,,,,,,,,,,,,,,,,,,
297733,2022-11-28_17h17.21.870,vts_reward_expectancy_bt,2022.2.4,MacIntel,60.0024001,Chrome,1440,900,,,l,0.7476,10,402,1,2,8,32,0,1,1,0,0,0,0,1,0,0,triangle,circle,,,,,,,,,,,,,,,,,,,,,,,,,,,,,,,,,,,,,,,,,,,,,,,,,,,,,,
297733,2022-11-28_17h17.21.870,vts_reward_expectancy_bt,2022.2.4,MacIntel,60.0024001,Chrome,1440,900,,,a,0.9873,1,403,1,2,9,33,4,1,0,1,0,0,0,0,1,0,circle,hexagon,,,,,,,,,,,,,,,,,,,,,,,,,,,,,,,,,,,,,,,,,,,,,,,,,,,,,,
297733,2022-11-28_17h17.21.870,vts_reward_expectancy_bt,2022.2.4,MacIntel,60.0024001,Chrome,1440,900,,,a,1.1285,10,413,1,2,10,34,5,1,0,1,0,0,0,0,0,1,circle,star,,,,,,,,,,,,,,,,,,,,,,,,,,,,,,,,,,,,,,,,,,,,,,,,,,,,,,
297733,2022-11-28_17h17.21.870,vts_reward_expectancy_bt,2022.2.4,MacIntel,60.0024001,Chrome,1440,900,,,a,1.1914,1,414,1,2,11,35,8,1,0,0,1,0,0,0,0,1,hexagon,star,,,,,,,,,,,,,,,,,,,,,,,,,,,,,,,,,,,,,,,,,,,,,,,,,,,,,,
297733,2022-11-28_17h17.21.870,vts_reward_expectancy_bt,2022.2.4,MacIntel,60.0024001,Chrome,1440,900,,,l,2.1205,10,424,2,0,0,0,1,1,1,0,0,0,0,0,1,0,triangle,hexagon,,,,,,,,,,,,,,,,,,,,,,,,,,,,,,,,,,,,,,,,,,,,,,,,,,,,,,
297733,2022-11-28_17h17.21.870,vts_reward_expectancy_bt,2022.2.4,MacIntel,60.0024001,Chrome,1440,900,,,l,1.6466,1,425,2,0,1,1,4,1,0,1,0,0,0,0,1,0,circle,hexagon,,,,,,,,,,,,,,,,,,,,,,,,,,,,,,,,,,,,,,,,,,,,,,,,,,,,,,
297733,2022-11-28_17h17.21.870,vts_reward_expectancy_bt,2022.2.4,MacIntel,60.0024001,Chrome,1440,900,,,l,0.9061,1,426,2,0,2,2,8,1,0,0,1,0,0,0,0,1,hexagon,star,,,,,,,,,,,,,,,,,,,,,,,,,,,,,,,,,,,,,,,,,,,,,,,,,,,,,,
297733,2022-11-28_17h17.21.870,vts_reward_expectancy_bt,2022.2.4,MacIntel,60.0024001,Chrome,1440,900,,,a,0.7434,10,436,2,0,3,3,9,1,0,0,0,1,1,0,0,0,star,triangle,,,,,,,,,,,,,,,,,,,,,,,,,,,,,,,,,,,,,,,,,,,,,,,,,,,,,,
297733,2022-11-28_17h17.21.870,vts_reward_expectancy_bt,2022.2.4,MacIntel,60.0024001,Chrome,1440,900,,,l,1.3883,10,446,2,0,4,4,11,1,0,0,0,1,0,0,1,0,star,hexagon,,,,,,,,,,,,,,,,,,,,,,,,,,,,,,,,,,,,,,,,,,,,,,,,,,,,,,
297733,2022-11-28_17h17.21.870,vts_reward_expectancy_bt,2022.2.4,MacIntel,60.0024001,Chrome,1440,900,,,a,0.6962,1,447,2,0,5,5,6,1,0,0,1,0,1,0,0,0,hexagon,triangle,,,,,,,,,,,,,,,,,,,,,,,,,,,,,,,,,,,,,,,,,,,,,,,,,,,,,,
297733,2022-11-28_17h17.21.870,vts_reward_expectancy_bt,2022.2.4,MacIntel,60.0024001,Chrome,1440,900,,,l,0.6363,1,448,2,0,6,6,5,1,0,1,0,0,0,0,0,1,circle,star,,,,,,,,,,,,,,,,,,,,,,,,,,,,,,,,,,,,,,,,,,,,,,,,,,,,,,
297733,2022-11-28_17h17.21.870,vts_reward_expectancy_bt,2022.2.4,MacIntel,60.0024001,Chrome,1440,900,,,l,0.4659,1,449,2,0,7,7,3,1,0,1,0,0,1,0,0,0,circle,triangle,,,,,,,,,,,,,,,,,,,,,,,,,,,,,,,,,,,,,,,,,,,,,,,,,,,,,,
297733,2022-11-28_17h17.21.870,vts_reward_expectancy_bt,2022.2.4,MacIntel,60.0024001,Chrome,1440,900,,,l,1.5531,10,459,2,0,8,8,2,1,1,0,0,0,0,0,0,1,triangle,star,,,,,,,,,,,,,,,,,,,,,,,,,,,,,,,,,,,,,,,,,,,,,,,,,,,,,,
297733,2022-11-28_17h17.21.870,vts_reward_expectancy_bt,2022.2.4,MacIntel,60.0024001,Chrome,1440,900,,,a,0.8484,10,469,2,0,9,9,7,1,0,0,1,0,0,1,0,0,hexagon,circle,,,,,,,,,,,,,,,,,,,,,,,,,,,,,,,,,,,,,,,,,,,,,,,,,,,,,,
297733,2022-11-28_17h17.21.870,vts_reward_expectancy_bt,2022.2.4,MacIntel,60.0024001,Chrome,1440,900,,,a,0.6789,10,479,2,0,10,10,0,1,1,0,0,0,0,1,0,0,triangle,circle,,,,,,,,,,,,,,,,,,,,,,,,,,,,,,,,,,,,,,,,,,,,,,,,,,,,,,
297733,2022-11-28_17h17.21.870,vts_reward_expectancy_bt,2022.2.4,MacIntel,60.0024001,Chrome,1440,900,,,l,0.9931,10,489,2,0,11,11,10,1,0,0,0,1,0,1,0,0,star ,circle,,,,,,,,,,,,,,,,,,,,,,,,,,,,,,,,,,,,,,,,,,,,,,,,,,,,,,
297733,2022-11-28_17h17.21.870,vts_reward_expectancy_bt,2022.2.4,MacIntel,60.0024001,Chrome,1440,900,,,a,0.577,1,490,2,1,0,12,4,1,0,1,0,0,0,0,1,0,circle,hexagon,,,,,,,,,,,,,,,,,,,,,,,,,,,,,,,,,,,,,,,,,,,,,,,,,,,,,,
297733,2022-11-28_17h17.21.870,vts_reward_expectancy_bt,2022.2.4,MacIntel,60.0024001,Chrome,1440,900,,,a,1.0301,1,491,2,1,1,13,10,1,0,0,0,1,0,1,0,0,star ,circle,,,,,,,,,,,,,,,,,,,,,,,,,,,,,,,,,,,,,,,,,,,,,,,,,,,,,,
297733,2022-11-28_17h17.21.870,vts_reward_expectancy_bt,2022.2.4,MacIntel,60.0024001,Chrome,1440,900,,,a,0.7922,1,492,2,1,2,14,2,1,1,0,0,0,0,0,0,1,triangle,star,,,,,,,,,,,,,,,,,,,,,,,,,,,,,,,,,,,,,,,,,,,,,,,,,,,,,,
297733,2022-11-28_17h17.21.870,vts_reward_expectancy_bt,2022.2.4,MacIntel,60.0024001,Chrome,1440,900,,,l,0.5899,10,502,2,1,3,15,5,1,0,1,0,0,0,0,0,1,circle,star,,,,,,,,,,,,,,,,,,,,,,,,,,,,,,,,,,,,,,,,,,,,,,,,,,,,,,
297733,2022-11-28_17h17.21.870,vts_reward_expectancy_bt,2022.2.4,MacIntel,60.0024001,Chrome,1440,900,,,l,1.3891,10,512,2,1,4,16,3,1,0,1,0,0,1,0,0,0,circle,triangle,,,,,,,,,,,,,,,,,,,,,,,,,,,,,,,,,,,,,,,,,,,,,,,,,,,,,,
297733,2022-11-28_17h17.21.870,vts_reward_expectancy_bt,2022.2.4,MacIntel,60.0024001,Chrome,1440,900,,,a,0.5149,1,513,2,1,5,17,0,1,1,0,0,0,0,1,0,0,triangle,circle,,,,,,,,,,,,,,,,,,,,,,,,,,,,,,,,,,,,,,,,,,,,,,,,,,,,,,
297733,2022-11-28_17h17.21.870,vts_reward_expectancy_bt,2022.2.4,MacIntel,60.0024001,Chrome,1440,900,,,l,0.7736,1,514,2,1,6,18,6,1,0,0,1,0,1,0,0,0,hexagon,triangle,,,,,,,,,,,,,,,,,,,,,,,,,,,,,,,,,,,,,,,,,,,,,,,,,,,,,,
297733,2022-11-28_17h17.21.870,vts_reward_expectancy_bt,2022.2.4,MacIntel,60.0024001,Chrome,1440,900,,,a,0.6288,10,524,2,1,7,19,9,1,0,0,0,1,1,0,0,0,star,triangle,,,,,,,,,,,,,,,,,,,,,,,,,,,,,,,,,,,,,,,,,,,,,,,,,,,,,,
297733,2022-11-28_17h17.21.870,vts_reward_expectancy_bt,2022.2.4,MacIntel,60.0024001,Chrome,1440,900,,,l,0.574,1,525,2,1,8,20,1,1,1,0,0,0,0,0,1,0,triangle,hexagon,,,,,,,,,,,,,,,,,,,,,,,,,,,,,,,,,,,,,,,,,,,,,,,,,,,,,,
297733,2022-11-28_17h17.21.870,vts_reward_expectancy_bt,2022.2.4,MacIntel,60.0024001,Chrome,1440,900,,,a,0.5796,1,526,2,1,9,21,7,1,0,0,1,0,0,1,0,0,hexagon,circle,,,,,,,,,,,,,,,,,,,,,,,,,,,,,,,,,,,,,,,,,,,,,,,,,,,,,,
297733,2022-11-28_17h17.21.870,vts_reward_expectancy_bt,2022.2.4,MacIntel,60.0024001,Chrome,1440,900,,,l,1.808,10,536,2,1,10,22,8,1,0,0,1,0,0,0,0,1,hexagon,star,,,,,,,,,,,,,,,,,,,,,,,,,,,,,,,,,,,,,,,,,,,,,,,,,,,,,,
297733,2022-11-28_17h17.21.870,vts_reward_expectancy_bt,2022.2.4,MacIntel,60.0024001,Chrome,1440,900,,,l,0.6135,1,537,2,1,11,23,11,1,0,0,0,1,0,0,1,0,star,hexagon,,,,,,,,,,,,,,,,,,,,,,,,,,,,,,,,,,,,,,,,,,,,,,,,,,,,,,
297733,2022-11-28_17h17.21.870,vts_reward_expectancy_bt,2022.2.4,MacIntel,60.0024001,Chrome,1440,900,,,a,1.2501,10,547,2,2,0,24,0,1,1,0,0,0,0,1,0,0,triangle,circle,,,,,,,,,,,,,,,,,,,,,,,,,,,,,,,,,,,,,,,,,,,,,,,,,,,,,,
297733,2022-11-28_17h17.21.870,vts_reward_expectancy_bt,2022.2.4,MacIntel,60.0024001,Chrome,1440,900,,,a,0.6614,10,557,2,2,1,25,11,1,0,0,0,1,0,0,1,0,star,hexagon,,,,,,,,,,,,,,,,,,,,,,,,,,,,,,,,,,,,,,,,,,,,,,,,,,,,,,
297733,2022-11-28_17h17.21.870,vts_reward_expectancy_bt,2022.2.4,MacIntel,60.0024001,Chrome,1440,900,,,l,2.2657,10,567,2,2,2,26,8,1,0,0,1,0,0,0,0,1,hexagon,star,,,,,,,,,,,,,,,,,,,,,,,,,,,,,,,,,,,,,,,,,,,,,,,,,,,,,,
297733,2022-11-28_17h17.21.870,vts_reward_expectancy_bt,2022.2.4,MacIntel,60.0024001,Chrome,1440,900,,,l,1.1277,10,577,2,2,3,27,7,1,0,0,1,0,0,1,0,0,hexagon,circle,,,,,,,,,,,,,,,,,,,,,,,,,,,,,,,,,,,,,,,,,,,,,,,,,,,,,,
297733,2022-11-28_17h17.21.870,vts_reward_expectancy_bt,2022.2.4,MacIntel,60.0024001,Chrome,1440,900,,,a,0.9422,1,578,2,2,4,28,1,1,1,0,0,0,0,0,1,0,triangle,hexagon,,,,,,,,,,,,,,,,,,,,,,,,,,,,,,,,,,,,,,,,,,,,,,,,,,,,,,
297733,2022-11-28_17h17.21.870,vts_reward_expectancy_bt,2022.2.4,MacIntel,60.0024001,Chrome,1440,900,,,l,2.1505,10,588,2,2,5,29,10,1,0,0,0,1,0,1,0,0,star ,circle,,,,,,,,,,,,,,,,,,,,,,,,,,,,,,,,,,,,,,,,,,,,,,,,,,,,,,
297733,2022-11-28_17h17.21.870,vts_reward_expectancy_bt,2022.2.4,MacIntel,60.0024001,Chrome,1440,900,,,a,3.1671,1,589,2,2,6,30,6,1,0,0,1,0,1,0,0,0,hexagon,triangle,,,,,,,,,,,,,,,,,,,,,,,,,,,,,,,,,,,,,,,,,,,,,,,,,,,,,,
297733,2022-11-28_17h17.21.870,vts_reward_expectancy_bt,2022.2.4,MacIntel,60.0024001,Chrome,1440,900,,,a,0.9396,10,599,2,2,7,31,5,1,0,1,0,0,0,0,0,1,circle,star,,,,,,,,,,,,,,,,,,,,,,,,,,,,,,,,,,,,,,,,,,,,,,,,,,,,,,
297733,2022-11-28_17h17.21.870,vts_reward_expectancy_bt,2022.2.4,MacIntel,60.0024001,Chrome,1440,900,,,a,0.5996,1,600,2,2,8,32,2,1,1,0,0,0,0,0,0,1,triangle,star,,,,,,,,,,,,,,,,,,,,,,,,,,,,,,,,,,,,,,,,,,,,,,,,,,,,,,
297733,2022-11-28_17h17.21.870,vts_reward_expectancy_bt,2022.2.4,MacIntel,60.0024001,Chrome,1440,900,,,l,0.5468,10,610,2,2,9,33,9,1,0,0,0,1,1,0,0,0,star,triangle,,,,,,,,,,,,,,,,,,,,,,,,,,,,,,,,,,,,,,,,,,,,,,,,,,,,,,
297733,2022-11-28_17h17.21.870,vts_reward_expectancy_bt,2022.2.4,MacIntel,60.0024001,Chrome,1440,900,,,l,1.5138,1,611,2,2,10,34,4,1,0,1,0,0,0,0,1,0,circle,hexagon,,,,,,,,,,,,,,,,,,,,,,,,,,,,,,,,,,,,,,,,,,,,,,,,,,,,,,
297733,2022-11-28_17h17.21.870,vts_reward_expectancy_bt,2022.2.4,MacIntel,60.0024001,Chrome,1440,900,,,a,3.8442,10,621,2,2,11,35,3,1,0,1,0,0,1,0,0,0,circle,triangle,,,,,,,,,,,,,,,,,,,,,,,,,,,,,,,,,,,,,,,,,,,,,,,,,,,,,,
297733,2022-11-28_17h17.21.870,vts_reward_expectancy_bt,2022.2.4,MacIntel,60.0024001,Chrome,1440,900,,,,,,,,,,,,,,,,,,,,,,,167,B,circle,1,0,f,1.6153,0,0,0,0,0,1,,,,,,,,,,,,,,,,,,,,,,,,,,,,,,,,,,,,,,,,,
297733,2022-11-28_17h17.21.870,vts_reward_expectancy_bt,2022.2.4,MacIntel,60.0024001,Chrome,1440,900,,,,,,,,,,,,,,,,,,,,,,,174,H,triangle,1,0,f,1.0506,0,1,0,1,0,1,,,,,,,,,,,,,,,,,,,,,,,,,,,,,,,,,,,,,,,,,
297733,2022-11-28_17h17.21.870,vts_reward_expectancy_bt,2022.2.4,MacIntel,60.0024001,Chrome,1440,900,,,,,,,,,,,,,,,,,,,,,,,146,U,hexagon,1,0,d,1.8008,0,2,0,2,0,1,,,,,,,,,,,,,,,,,,,,,,,,,,,,,,,,,,,,,,,,,
297733,2022-11-28_17h17.21.870,vts_reward_expectancy_bt,2022.2.4,MacIntel,60.0024001,Chrome,1440,900,,,,,,,,,,,,,,,,,,,,,,,125,D,star,1,0,d,0.8989,0,3,0,3,0,1,,,,,,,,,,,,,,,,,,,,,,,,,,,,,,,,,,,,,,,,,
297733,2022-11-28_17h17.21.870,vts_reward_expectancy_bt,2022.2.4,MacIntel,60.0024001,Chrome,1440,900,,,,,,,,,,,,,,,,,,,,,,,139,W,circle,1,0,d,1.501,0,4,0,4,0,1,,,,,,,,,,,,,,,,,,,,,,,,,,,,,,,,,,,,,,,,,
297733,2022-11-28_17h17.21.870,vts_reward_expectancy_bt,2022.2.4,MacIntel,60.0024001,Chrome,1440,900,,,,,,,,,,,,,,,,,,,,,,,132,Y,triangle,1,0,d,2.0502,0,5,0,5,0,1,,,,,,,,,,,,,,,,,,,,,,,,,,,,,,,,,,,,,,,,,
297733,2022-11-28_17h17.21.870,vts_reward_expectancy_bt,2022.2.4,MacIntel,60.0024001,Chrome,1440,900,,,,,,,,,,,,,,,,,,,,,,,160,S,hexagon,1,0,f,1.7474,0,6,0,6,0,1,,,,,,,,,,,,,,,,,,,,,,,,,,,,,,,,,,,,,,,,,
297733,2022-11-28_17h17.21.870,vts_reward_expectancy_bt,2022.2.4,MacIntel,60.0024001,Chrome,1440,900,,,,,,,,,,,,,,,,,,,,,,,181,F,star,1,0,f,0.9704,0,7,0,7,0,1,,,,,,,,,,,,,,,,,,,,,,,,,,,,,,,,,,,,,,,,,
297733,2022-11-28_17h17.21.870,vts_reward_expectancy_bt,2022.2.4,MacIntel,60.0024001,Chrome,1440,900,,,,,,,,,,,,,,,,,,,,,,,167,B,star,1,0,f,1.868,0,8,0,8,0,1,,,,,,,,,,,,,,,,,,,,,,,,,,,,,,,,,,,,,,,,,
297733,2022-11-28_17h17.21.870,vts_reward_expectancy_bt,2022.2.4,MacIntel,60.0024001,Chrome,1440,900,,,,,,,,,,,,,,,,,,,,,,,174,H,hexagon,1,0,f,1.3264,0,9,0,9,0,1,,,,,,,,,,,,,,,,,,,,,,,,,,,,,,,,,,,,,,,,,
297733,2022-11-28_17h17.21.870,vts_reward_expectancy_bt,2022.2.4,MacIntel,60.0024001,Chrome,1440,900,,,,,,,,,,,,,,,,,,,,,,,160,D,circle,1,0,,,1,,,,,,j,1.9897,0,0,0,0,1,,,,,,,,,,,,,,,,,,,,,,,,,,,,,,,,,,
297733,2022-11-28_17h17.21.870,vts_reward_expectancy_bt,2022.2.4,MacIntel,60.0024001,Chrome,1440,900,,,,,,,,,,,,,,,,,,,,,,,174,H,hexagon,1,0,,,1,,,,,,j,0.6472,1,0,1,0,1,,,,,,,,,,,,,,,,,,,,,,,,,,,,,,,,,,
297733,2022-11-28_17h17.21.870,vts_reward_expectancy_bt,2022.2.4,MacIntel,60.0024001,Chrome,1440,900,,,,,,,,,,,,,,,,,,,,,,,132,F,star,1,0,,,1,,,,,,j,1.2473,2,0,2,0,1,,,,,,,,,,,,,,,,,,,,,,,,,,,,,,,,,,
297733,2022-11-28_17h17.21.870,vts_reward_expectancy_bt,2022.2.4,MacIntel,60.0024001,Chrome,1440,900,,,,,,,,,,,,,,,,,,,,,,,125,S,triangle,1,0,,,1,,,,,,k,1.8468,3,0,3,0,1,,,,,,,,,,,,,,,,,,,,,,,,,,,,,,,,,,
297733,2022-11-28_17h17.21.870,vts_reward_expectancy_bt,2022.2.4,MacIntel,60.0024001,Chrome,1440,900,,,,,,,,,,,,,,,,,,,,,,,181,U,circle,1,0,,,1,,,,,,k,0.6971,4,0,4,0,1,,,,,,,,,,,,,,,,,,,,,,,,,,,,,,,,,,
297733,2022-11-28_17h17.21.870,vts_reward_expectancy_bt,2022.2.4,MacIntel,60.0024001,Chrome,1440,900,,,,,,,,,,,,,,,,,,,,,,,167,B,hexagon,1,0,,,1,,,,,,j,2.9151,5,0,5,0,1,,,,,,,,,,,,,,,,,,,,,,,,,,,,,,,,,,
297733,2022-11-28_17h17.21.870,vts_reward_expectancy_bt,2022.2.4,MacIntel,60.0024001,Chrome,1440,900,,,,,,,,,,,,,,,,,,,,,,,139,W,star,1,0,,,1,,,,,,k,0.5351,6,0,6,0,1,,,,,,,,,,,,,,,,,,,,,,,,,,,,,,,,,,
297733,2022-11-28_17h17.21.870,vts_reward_expectancy_bt,2022.2.4,MacIntel,60.0024001,Chrome,1440,900,,,,,,,,,,,,,,,,,,,,,,,146,Y,triangle,1,0,,,1,,,,,,k,1.1993,7,0,7,0,1,,,,,,,,,,,,,,,,,,,,,,,,,,,,,,,,,,
297733,2022-11-28_17h17.21.870,vts_reward_expectancy_bt,2022.2.4,MacIntel,60.0024001,Chrome,1440,900,,,,,,,,,,,,,,,,,,,,,,,160,D,triangle,1,0,,,1,,,,,,j,0.7144,8,0,8,0,1,,,,,,,,,,,,,,,,,,,,,,,,,,,,,,,,,,
297733,2022-11-28_17h17.21.870,vts_reward_expectancy_bt,2022.2.4,MacIntel,60.0024001,Chrome,1440,900,,,,,,,,,,,,,,,,,,,,,,,174,H,star,1,0,,,1,,,,,,j,1.3636,9,0,9,0,1,,,,,,,,,,,,,,,,,,,,,,,,,,,,,,,,,,
297733,2022-11-28_17h17.21.870,vts_reward_expectancy_bt,2022.2.4,MacIntel,60.0024001,Chrome,1440,900,,,,,0,621,,,,,,,,,,,,,,,,,181,B,circle,-1,0,,,2,,,,,,,,,,,,,-1,no_choice,NA,,vtsPrac,0,0,0,0,1,,,,,,,,,,,,,,,,,,,,,,,,
297733,2022-11-28_17h17.21.870,vts_reward_expectancy_bt,2022.2.4,MacIntel,60.0024001,Chrome,1440,900,,,,,0,621,,,,,,,,,,,,,,,,,167,H,triangle,1,0,,,2,,,,,,,,,,,,,switch,number,numSwt,f,vtsPrac,1,0,1,0,1,0.9304,,,,,,,,,,,,,,,,,,,,,,,
297733,2022-11-28_17h17.21.870,vts_reward_expectancy_bt,2022.2.4,MacIntel,60.0024001,Chrome,1440,900,,,,,0,621,,,,,,,,,,,,,,,,,125,F,circle,1,0,,,2,,,,,,,,,,,,,switch,letter,lettSwt,j,vtsPrac,2,0,2,0,1,1.5013,,,,,,,,,,,,,,,,,,,,,,,
297733,2022-11-28_17h17.21.870,vts_reward_expectancy_bt,2022.2.4,MacIntel,60.0024001,Chrome,1440,900,,,,,0,621,,,,,,,,,,,,,,,,,139,W,triangle,1,0,,,2,,,,,,,,,,,,,repeat,letter,lettRpt,k,vtsPrac,3,0,3,0,1,1.1827,,,,,,,,,,,,,,,,,,,,,,,
297733,2022-11-28_17h17.21.870,vts_reward_expectancy_bt,2022.2.4,MacIntel,60.0024001,Chrome,1440,900,,,,,0,621,,,,,,,,,,,,,,,,,181,B,circle,1,0,,,2,,,,,,,,,,,,,switch,number,numSwt,f,vtsPrac,4,0,4,0,1,1.9833,,,,,,,,,,,,,,,,,,,,,,,
297733,2022-11-28_17h17.21.870,vts_reward_expectancy_bt,2022.2.4,MacIntel,60.0024001,Chrome,1440,900,,,,,0,621,,,,,,,,,,,,,,,,,167,H,triangle,-1,0,,,2,,,,,,,,,,,,,switch,no_choice,NA,,vtsPrac,5,0,5,0,1,,,,,,,,,,,,,,,,,,,,,,,,
297733,2022-11-28_17h17.21.870,vts_reward_expectancy_bt,2022.2.4,MacIntel,60.0024001,Chrome,1440,900,,,,,0,621,,,,,,,,,,,,,,,,,125,F,hexagon,1,0,,,2,,,,,,,,,,,,,switch,number,numSwt,d,vtsPrac,6,0,6,0,1,1.1135,,,,,,,,,,,,,,,,,,,,,,,
297733,2022-11-28_17h17.21.870,vts_reward_expectancy_bt,2022.2.4,MacIntel,60.0024001,Chrome,1440,900,,,,,0,621,,,,,,,,,,,,,,,,,139,W,star,1,0,,,2,,,,,,,,,,,,,switch,letter,lettSwt,k,vtsPrac,7,0,7,0,1,0.8019,,,,,,,,,,,,,,,,,,,,,,,
297733,2022-11-28_17h17.21.870,vts_reward_expectancy_bt,2022.2.4,MacIntel,60.0024001,Chrome,1440,900,,,,,0,621,,,,,,,,,,,,,,,,,132,W,circle,1,0,,,2,,,,,,,,,,,,,repeat,letter,lettRpt,k,vtsPrac,8,0,8,0,1,0.5846,,,,,,,,,,,,,,,,,,,,,,,
297733,2022-11-28_17h17.21.870,vts_reward_expectancy_bt,2022.2.4,MacIntel,60.0024001,Chrome,1440,900,,,,,0,621,,,,,,,,,,,,,,,,,125,H,star,1,0,,,2,,,,,,,,,,,,,switch,number,numSwt,d,vtsPrac,9,0,9,0,1,0.8822,,,,,,,,,,,,,,,,,,,,,,,
297733,2022-11-28_17h17.21.870,vts_reward_expectancy_bt,2022.2.4,MacIntel,60.0024001,Chrome,1440,900,,,,,0,621,,,,,,,,,,,,,,,,,181,F,star,1,0,,,2,,,,,,,,,,,,,repeat,number,numRpt,f,vtsPrac,10,0,10,0,1,0.7821,,,,,,,,,,,,,,,,,,,,,,,
297733,2022-11-28_17h17.21.870,vts_reward_expectancy_bt,2022.2.4,MacIntel,60.0024001,Chrome,1440,900,,,,,0,621,,,,,,,,,,,,,,,,,167,S,hexagon,1,0,,,2,,,,,,,,,,,,,repeat,number,numRpt,f,vtsPrac,11,0,11,0,1,1,,,,,,,,,,,,,,,,,,,,,,,
297733,2022-11-28_17h17.21.870,vts_reward_expectancy_bt,2022.2.4,MacIntel,60.0024001,Chrome,1440,900,,,,,0,621,,,,,,,,,,,,,,,,,181,U,triangle,1,0,,,2,,,,,,,,,,,,,switch,letter,lettSwt,k,vtsPrac,12,0,12,0,1,1.0806,,,,,,,,,,,,,,,,,,,,,,,
297733,2022-11-28_17h17.21.870,vts_reward_expectancy_bt,2022.2.4,MacIntel,60.0024001,Chrome,1440,900,,,,,0,621,,,,,,,,,,,,,,,,,167,W,hexagon,1,0,,,2,,,,,,,,,,,,,switch,number,numSwt,f,vtsPrac,13,0,13,0,1,0.749,,,,,,,,,,,,,,,,,,,,,,,
297733,2022-11-28_17h17.21.870,vts_reward_expectancy_bt,2022.2.4,MacIntel,60.0024001,Chrome,1440,900,,,,,0,621,,,,,,,,,,,,,,,,,132,S,circle,1,0,,,2,,,,,,,,,,,,,switch,letter,lettSwt,k,vtsPrac,14,0,14,0,1,1.3656,,,,,,,,,,,,,,,,,,,,,,,
297733,2022-11-28_17h17.21.870,vts_reward_expectancy_bt,2022.2.4,MacIntel,60.0024001,Chrome,1440,900,,,,,0,621,,,,,,,,,,,,,,,,,139,D,star,1,0,,,2,,,,,,,,,,,,,switch,number,numSwt,d,vtsPrac,15,0,15,0,1,1.1101,,,,,,,,,,,,,,,,,,,,,,,
297733,2022-11-28_17h17.21.870,vts_reward_expectancy_bt,2022.2.4,MacIntel,60.0024001,Chrome,1440,900,,,,,0,621,,,,,,,,,,,,,,,,,139,D,hexagon,1,0,,,2,,,,,,,,,,,,,switch,letter,lettSwt,j,vtsPrac,16,0,16,0,1,1.2861,,,,,,,,,,,,,,,,,,,,,,,
297733,2022-11-28_17h17.21.870,vts_reward_expectancy_bt,2022.2.4,MacIntel,60.0024001,Chrome,1440,900,,,,,0,621,,,,,,,,,,,,,,,,,146,B,triangle,1,0,,,2,,,,,,,,,,,,,repeat,letter,lettRpt,j,vtsPrac,17,0,17,0,1,0.8717,,,,,,,,,,,,,,,,,,,,,,,
297733,2022-11-28_17h17.21.870,vts_reward_expectancy_bt,2022.2.4,MacIntel,60.0024001,Chrome,1440,900,,,,,0,621,,,,,,,,,,,,,,,,,132,Y,star,1,0,,,2,,,,,,,,,,,,,switch,number,numSwt,d,vtsPrac,18,0,18,0,1,0.617,,,,,,,,,,,,,,,,,,,,,,,
297733,2022-11-28_17h17.21.870,vts_reward_expectancy_bt,2022.2.4,MacIntel,60.0024001,Chrome,1440,900,,,,,0,621,,,,,,,,,,,,,,,,,125,H,triangle,1,0,,,2,,,,,,,,,,,,,switch,letter,lettSwt,j,vtsPrac,19,0,19,0,1,0.9804,,,,,,,,,,,,,,,,,,,,,,,
297733,2022-11-28_17h17.21.870,vts_reward_expectancy_bt,2022.2.4,MacIntel,60.0024001,Chrome,1440,900,,,,,0,621,,,,,,,,,,,,,,,,,167,F,hexagon,1,0,,,2,,,,,,,,,,,,,switch,number,numSwt,f,vtsPrac,20,0,20,0,1,0.48,,,,,,,,,,,,,,,,,,,,,,,
297733,2022-11-28_17h17.21.870,vts_reward_expectancy_bt,2022.2.4,MacIntel,60.0024001,Chrome,1440,900,,,,,0,621,,,,,,,,,,,,,,,,,139,H,triangle,1,0,,,2,,,,,,,,,,,,,repeat,number,numRpt,d,vtsPrac,21,0,21,0,1,1.0322,,,,,,,,,,,,,,,,,,,,,,,
297733,2022-11-28_17h17.21.870,vts_reward_expectancy_bt,2022.2.4,MacIntel,60.0024001,Chrome,1440,900,,,,,0,621,,,,,,,,,,,,,,,,,132,W,circle,1,0,,,2,,,,,,,,,,,,,switch,letter,lettSwt,k,vtsPrac,22,0,22,0,1,0.5653,,,,,,,,,,,,,,,,,,,,,,,
297733,2022-11-28_17h17.21.870,vts_reward_expectancy_bt,2022.2.4,MacIntel,60.0024001,Chrome,1440,900,,,,,0,621,,,,,,,,,,,,,,,,,160,S,star,1,0,,,2,,,,,,,,,,,,,repeat,letter,lettRpt,k,vtsPrac,23,0,23,0,1,1.3315,,,,,,,,,,,,,,,,,,,,,,,
297733,2022-11-28_17h17.21.870,vts_reward_expectancy_bt,2022.2.4,MacIntel,60.0024001,Chrome,1440,900,,,,,0,621,,,,,,,,,,,,,,,,,160,W,triangle,1,0,,,2,,,,,,,,,,,,,switch,number,numSwt,f,vtsPrac,24,0,24,0,1,1.3541,,,,,,,,,,,,,,,,,,,,,,,
297733,2022-11-28_17h17.21.870,vts_reward_expectancy_bt,2022.2.4,MacIntel,60.0024001,Chrome,1440,900,,,,,0,621,,,,,,,,,,,,,,,,,181,F,circle,1,0,,,2,,,,,,,,,,,,,repeat,number,numRpt,f,vtsPrac,25,0,25,0,1,1.2654,,,,,,,,,,,,,,,,,,,,,,,
297733,2022-11-28_17h17.21.870,vts_reward_expectancy_bt,2022.2.4,MacIntel,60.0024001,Chrome,1440,900,,,,,0,621,,,,,,,,,,,,,,,,,125,D,triangle,1,0,,,2,,,,,,,,,,,,,repeat,number,numRpt,d,vtsPrac,26,0,26,0,1,0.8799,,,,,,,,,,,,,,,,,,,,,,,
297733,2022-11-28_17h17.21.870,vts_reward_expectancy_bt,2022.2.4,MacIntel,60.0024001,Chrome,1440,900,,,,,0,621,,,,,,,,,,,,,,,,,139,B,circle,1,0,,,2,,,,,,,,,,,,,switch,letter,lettSwt,j,vtsPrac,27,0,27,0,1,0.8719,,,,,,,,,,,,,,,,,,,,,,,
297733,2022-11-28_17h17.21.870,vts_reward_expectancy_bt,2022.2.4,MacIntel,60.0024001,Chrome,1440,900,,,,,0,621,,,,,,,,,,,,,,,,,181,S,circle,1,0,,,2,,,,,,,,,,,,,repeat,letter,lettRpt,k,vtsPrac,28,0,28,0,1,0.8307,,,,,,,,,,,,,,,,,,,,,,,
297733,2022-11-28_17h17.21.870,vts_reward_expectancy_bt,2022.2.4,MacIntel,60.0024001,Chrome,1440,900,,,,,0,621,,,,,,,,,,,,,,,,,125,F,triangle,1,0,,,2,,,,,,,,,,,,,switch,number,numSwt,d,vtsPrac,29,0,29,0,1,0.6804,,,,,,,,,,,,,,,,,,,,,,,
297733,2022-11-28_17h17.21.870,vts_reward_expectancy_bt,2022.2.4,MacIntel,60.0024001,Chrome,1440,900,,,,,0,621,,,,,,,,,,,,,,,,,174,B,circle,1,0,,,2,,,,,,,,,,,,,switch,letter,lettSwt,j,vtsPrac,30,0,30,0,1,0.6832,,,,,,,,,,,,,,,,,,,,,,,
297733,2022-11-28_17h17.21.870,vts_reward_expectancy_bt,2022.2.4,MacIntel,60.0024001,Chrome,1440,900,,,,,0,621,,,,,,,,,,,,,,,,,167,Y,star,1,0,,,2,,,,,,,,,,,,,switch,number,numSwt,f,vtsPrac,31,0,31,0,1,1.6842,,,,,,,,,,,,,,,,,,,,,,,
297733,2022-11-28_17h17.21.870,vts_reward_expectancy_bt,2022.2.4,MacIntel,60.0024001,Chrome,1440,900,,,,,,,,,,,,,,,,,,,,,,,,,,,,,,,,,,,,,,,,,,,,,,,,,,,,,,,,,,,,,,,,,,,,,,,,,,,,
297733,2022-11-28_17h17.21.870,vts_reward_expectancy_bt,2022.2.4,MacIntel,60.0024001,Chrome,1440,900,,,,,,,,,,,,,,,,,,,,,,,,,,,,,,,,,,,,,,,,,,,,,,,,,,,,,,,,,,,,,,,,,,,,,,,,,,,,
297733,2022-11-28_17h17.21.870,vts_reward_expectancy_bt,2022.2.4,MacIntel,60.0024001,Chrome,1440,900,,,,,0,621,,,,,,,,,,,,,,,,,132,F,circle,1,0,,,,,,,,,,,,,,,,switch,letter,lettSwt,j,noRew,,,,,,1.4159,0,0,0,0,0,1,,,,,,,,,,,,,,,,,
297733,2022-11-28_17h17.21.870,vts_reward_expectancy_bt,2022.2.4,MacIntel,60.0024001,Chrome,1440,900,,,,,0,621,,,,,,,,,,,,,,,,,125,Y,hexagon,1,0,,,,,,,,,,,,,,,,repeat,letter,lettRpt,k,noRew,,,,,,1.7627,0,1,0,1,0,1,,,,,,,,,,,,,,,,,
297733,2022-11-28_17h17.21.870,vts_reward_expectancy_bt,2022.2.4,MacIntel,60.0024001,Chrome,1440,900,,,,,0,621,,,,,,,,,,,,,,,,,139,H,circle,1,0,,,,,,,,,,,,,,,,repeat,letter,lettRpt,j,noRew,,,,,,0.7657,0,2,0,2,0,1,,,,,,,,,,,,,,,,,
297733,2022-11-28_17h17.21.870,vts_reward_expectancy_bt,2022.2.4,MacIntel,60.0024001,Chrome,1440,900,,,,,0,621,,,,,,,,,,,,,,,,,160,W,hexagon,1,0,,,,,,,,,,,,,,,,repeat,letter,lettRpt,k,noRew,,,,,,1.414,0,3,0,3,0,1,,,,,,,,,,,,,,,,,
297733,2022-11-28_17h17.21.870,vts_reward_expectancy_bt,2022.2.4,MacIntel,60.0024001,Chrome,1440,900,,,,,0,621,,,,,,,,,,,,,,,,,132,F,circle,0,0,,,,,,,,,,,,,,,,switch,number,NA,f,noRew,,,,,,2.4218,0,4,0,4,0,1,,,,,,,,,,,,,,,,,
297733,2022-11-28_17h17.21.870,vts_reward_expectancy_bt,2022.2.4,MacIntel,60.0024001,Chrome,1440,900,,,,,0,621,,,,,,,,,,,,,,,,,125,Y,triangle,1,1,,,,,,,,,,,,,,,,repeat,number,numRpt,d,noRew,,,,,,0.5344,0,5,0,5,0,1,,,,,,,,,,,,,,,,,
297733,2022-11-28_17h17.21.870,vts_reward_expectancy_bt,2022.2.4,MacIntel,60.0024001,Chrome,1440,900,,,,,0,621,,,,,,,,,,,,,,,,,139,H,star,1,0,,,,,,,,,,,,,,,,repeat,number,numRpt,d,noRew,,,,,,0.9166,0,6,0,6,0,1,,,,,,,,,,,,,,,,,
297733,2022-11-28_17h17.21.870,vts_reward_expectancy_bt,2022.2.4,MacIntel,60.0024001,Chrome,1440,900,,,,,0,621,,,,,,,,,,,,,,,,,160,W,hexagon,1,0,,,,,,,,,,,,,,,,repeat,number,numRpt,f,noRew,,,,,,1.0009,0,7,0,7,0,1,,,,,,,,,,,,,,,,,
297733,2022-11-28_17h17.21.870,vts_reward_expectancy_bt,2022.2.4,MacIntel,60.0024001,Chrome,1440,900,,,,,0,621,,,,,,,,,,,,,,,,,181,S,star,1,0,,,,,,,,,,,,,,,,repeat,number,numRpt,f,noRew,,,,,,1.0835,0,8,0,8,0,1,,,,,,,,,,,,,,,,,
297733,2022-11-28_17h17.21.870,vts_reward_expectancy_bt,2022.2.4,MacIntel,60.0024001,Chrome,1440,900,,,,,0,621,,,,,,,,,,,,,,,,,174,U,circle,1,0,,,,,,,,,,,,,,,,repeat,number,numRpt,f,noRew,,,,,,0.5161,0,9,0,9,0,1,,,,,,,,,,,,,,,,,
297733,2022-11-28_17h17.21.870,vts_reward_expectancy_bt,2022.2.4,MacIntel,60.0024001,Chrome,1440,900,,,,,0,621,,,,,,,,,,,,,,,,,139,D,circle,1,0,,,,,,,,,,,,,,,,switch,letter,lettSwt,j,noRew,,,,,,1.0676,0,10,0,10,0,1,,,,,,,,,,,,,,,,,
297733,2022-11-28_17h17.21.870,vts_reward_expectancy_bt,2022.2.4,MacIntel,60.0024001,Chrome,1440,900,,,,,0,621,,,,,,,,,,,,,,,,,167,B,triangle,1,0,,,,,,,,,,,,,,,,switch,number,numSwt,f,noRew,,,,,,0.6022,0,11,0,11,0,1,,,,,,,,,,,,,,,,,
297733,2022-11-28_17h17.21.870,vts_reward_expectancy_bt,2022.2.4,MacIntel,60.0024001,Chrome,1440,900,,,,,0,621,,,,,,,,,,,,,,,,,139,S,triangle,1,0,,,,,,,,,,,,,,,,repeat,number,numRpt,d,noRew,,,,,,0.7322,0,12,0,12,0,1,,,,,,,,,,,,,,,,,
297733,2022-11-28_17h17.21.870,vts_reward_expectancy_bt,2022.2.4,MacIntel,60.0024001,Chrome,1440,900,,,,,0,621,,,,,,,,,,,,,,,,,132,H,hexagon,1,0,,,,,,,,,,,,,,,,repeat,number,numRpt,d,noRew,,,,,,1.6797,0,13,0,13,0,1,,,,,,,,,,,,,,,,,
297733,2022-11-28_17h17.21.870,vts_reward_expectancy_bt,2022.2.4,MacIntel,60.0024001,Chrome,1440,900,,,,,0,621,,,,,,,,,,,,,,,,,146,F,star,1,0,,,,,,,,,,,,,,,,repeat,number,numRpt,d,noRew,,,,,,0.7344,0,14,0,14,0,1,,,,,,,,,,,,,,,,,
297733,2022-11-28_17h17.21.870,vts_reward_expectancy_bt,2022.2.4,MacIntel,60.0024001,Chrome,1440,900,,,,,0,621,,,,,,,,,,,,,,,,,160,W,triangle,1,0,,,,,,,,,,,,,,,,repeat,number,numRpt,f,noRew,,,,,,0.8294,0,15,0,15,0,1,,,,,,,,,,,,,,,,,
297733,2022-11-28_17h17.21.870,vts_reward_expectancy_bt,2022.2.4,MacIntel,60.0024001,Chrome,1440,900,,,,,0,621,,,,,,,,,,,,,,,,,160,W,triangle,1,0,,,,,,,,,,,,,,,,repeat,number,numRpt,f,noRew,,,,,,0.5719,0,16,0,16,0,1,,,,,,,,,,,,,,,,,
297733,2022-11-28_17h17.21.870,vts_reward_expectancy_bt,2022.2.4,MacIntel,60.0024001,Chrome,1440,900,,,,,0,621,,,,,,,,,,,,,,,,,181,S,star,1,0,,,,,,,,,,,,,,,,repeat,number,numRpt,f,noRew,,,,,,2.3955,0,17,0,17,0,1,,,,,,,,,,,,,,,,,
297733,2022-11-28_17h17.21.870,vts_reward_expectancy_bt,2022.2.4,MacIntel,60.0024001,Chrome,1440,900,,,,,0,621,,,,,,,,,,,,,,,,,139,F,triangle,1,0,,,,,,,,,,,,,,,,repeat,number,numRpt,d,noRew,,,,,,0.8823,0,18,0,18,0,1,,,,,,,,,,,,,,,,,
297733,2022-11-28_17h17.21.870,vts_reward_expectancy_bt,2022.2.4,MacIntel,60.0024001,Chrome,1440,900,,,,,0,621,,,,,,,,,,,,,,,,,146,U,star,1,0,,,,,,,,,,,,,,,,repeat,number,numRpt,d,noRew,,,,,,1.9815,0,19,0,19,0,1,,,,,,,,,,,,,,,,,
297733,2022-11-28_17h17.21.870,vts_reward_expectancy_bt,2022.2.4,MacIntel,60.0024001,Chrome,1440,900,,,,,0,621,,,,,,,,,,,,,,,,,139,Y,circle,1,0,,,,,,,,,,,,,,,,switch,letter,lettSwt,k,noRew,,,,,,0.6213,0,20,0,20,0,1,,,,,,,,,,,,,,,,,
297733,2022-11-28_17h17.21.870,vts_reward_expectancy_bt,2022.2.4,MacIntel,60.0024001,Chrome,1440,900,,,,,0,621,,,,,,,,,,,,,,,,,174,B,hexagon,1,0,,,,,,,,,,,,,,,,switch,number,numSwt,f,noRew,,,,,,0.8004,0,21,0,21,0,1,,,,,,,,,,,,,,,,,
297733,2022-11-28_17h17.21.870,vts_reward_expectancy_bt,2022.2.4,MacIntel,60.0024001,Chrome,1440,900,,,,,0,621,,,,,,,,,,,,,,,,,125,S,hexagon,1,0,,,,,,,,,,,,,,,,repeat,number,numRpt,d,noRew,,,,,,0.8354,0,22,0,22,0,1,,,,,,,,,,,,,,,,,
297733,2022-11-28_17h17.21.870,vts_reward_expectancy_bt,2022.2.4,MacIntel,60.0024001,Chrome,1440,900,,,,,0,621,,,,,,,,,,,,,,,,,132,U,star,1,0,,,,,,,,,,,,,,,,repeat,number,numRpt,d,noRew,,,,,,1.1001,0,23,0,23,0,1,,,,,,,,,,,,,,,,,
297733,2022-11-28_17h17.21.870,vts_reward_expectancy_bt,2022.2.4,MacIntel,60.0024001,Chrome,1440,900,,,,,0,621,,,,,,,,,,,,,,,,,167,B,hexagon,1,0,,,,,,,,,,,,,,,,repeat,number,numRpt,f,noRew,,,,,,1.2043,0,24,0,24,0,1,,,,,,,,,,,,,,,,,
297733,2022-11-28_17h17.21.870,vts_reward_expectancy_bt,2022.2.4,MacIntel,60.0024001,Chrome,1440,900,,,,,0,621,,,,,,,,,,,,,,,,,160,U,circle,1,0,,,,,,,,,,,,,,,,switch,letter,lettSwt,k,noRew,,,,,,0.8508,0,25,0,25,0,1,,,,,,,,,,,,,,,,,
297733,2022-11-28_17h17.21.870,vts_reward_expectancy_bt,2022.2.4,MacIntel,60.0024001,Chrome,1440,900,,,,,0,621,,,,,,,,,,,,,,,,,132,F,circle,1,0,,,,,,,,,,,,,,,,repeat,letter,lettRpt,j,noRew,,,,,,0.8995,0,26,0,26,0,1,,,,,,,,,,,,,,,,,
297733,2022-11-28_17h17.21.870,vts_reward_expectancy_bt,2022.2.4,MacIntel,60.0024001,Chrome,1440,900,,,,,0,621,,,,,,,,,,,,,,,,,174,D,triangle,1,0,,,,,,,,,,,,,,,,switch,number,numSwt,f,noRew,,,,,,1.1698,0,27,0,27,0,1,,,,,,,,,,,,,,,,,
297733,2022-11-28_17h17.21.870,vts_reward_expectancy_bt,2022.2.4,MacIntel,60.0024001,Chrome,1440,900,,,,,0,621,,,,,,,,,,,,,,,,,139,U,circle,1,0,,,,,,,,,,,,,,,,switch,letter,lettSwt,k,noRew,,,,,,0.4551,0,28,0,28,0,1,,,,,,,,,,,,,,,,,
297733,2022-11-28_17h17.21.870,vts_reward_expectancy_bt,2022.2.4,MacIntel,60.0024001,Chrome,1440,900,,,,,0,621,,,,,,,,,,,,,,,,,160,W,star,1,0,,,,,,,,,,,,,,,,switch,number,numSwt,f,noRew,,,,,,1.1805,0,29,0,29,0,1,,,,,,,,,,,,,,,,,
297733,2022-11-28_17h17.21.870,vts_reward_expectancy_bt,2022.2.4,MacIntel,60.0024001,Chrome,1440,900,,,,,0,621,,,,,,,,,,,,,,,,,174,B,star,1,0,,,,,,,,,,,,,,,,repeat,number,numRpt,f,noRew,,,,,,1.1916,0,30,0,30,0,1,,,,,,,,,,,,,,,,,
297733,2022-11-28_17h17.21.870,vts_reward_expectancy_bt,2022.2.4,MacIntel,60.0024001,Chrome,1440,900,,,,,0,621,,,,,,,,,,,,,,,,,167,H,triangle,1,0,,,,,,,,,,,,,,,,repeat,number,numRpt,f,noRew,,,,,,1.0083,0,31,0,31,0,1,,,,,,,,,,,,,,,,,
297733,2022-11-28_17h17.21.870,vts_reward_expectancy_bt,2022.2.4,MacIntel,60.0024001,Chrome,1440,900,,,,,0,621,,,,,,,,,,,,,,,,,167,Y,circle,1,0,,,,,,,,,,,,,,,,switch,letter,lettSwt,k,noRew,,,,,,0.8053,0,32,0,32,0,1,,,,,,,,,,,,,,,,,
297733,2022-11-28_17h17.21.870,vts_reward_expectancy_bt,2022.2.4,MacIntel,60.0024001,Chrome,1440,900,,,,,0,621,,,,,,,,,,,,,,,,,132,S,triangle,1,0,,,,,,,,,,,,,,,,switch,number,numSwt,d,noRew,,,,,,0.9931,0,33,0,33,0,1,,,,,,,,,,,,,,,,,
297733,2022-11-28_17h17.21.870,vts_reward_expectancy_bt,2022.2.4,MacIntel,60.0024001,Chrome,1440,900,,,,,0,621,,,,,,,,,,,,,,,,,125,D,hexagon,1,0,,,,,,,,,,,,,,,,repeat,number,numRpt,d,noRew,,,,,,1.5822,0,34,0,34,0,1,,,,,,,,,,,,,,,,,
297733,2022-11-28_17h17.21.870,vts_reward_expectancy_bt,2022.2.4,MacIntel,60.0024001,Chrome,1440,900,,,,,0,621,,,,,,,,,,,,,,,,,174,H,star,1,0,,,,,,,,,,,,,,,,repeat,number,numRpt,f,noRew,,,,,,1.0102,0,35,0,35,0,1,,,,,,,,,,,,,,,,,
297733,2022-11-28_17h17.21.870,vts_reward_expectancy_bt,2022.2.4,MacIntel,60.0024001,Chrome,1440,900,,,,,0,621,,,,,,,,,,,,,,,,,146,U,star,1,0,,,,,,,,,,,,,,,,repeat,number,numRpt,d,noRew,,,,,,1.267,0,36,0,36,0,1,,,,,,,,,,,,,,,,,
297733,2022-11-28_17h17.21.870,vts_reward_expectancy_bt,2022.2.4,MacIntel,60.0024001,Chrome,1440,900,,,,,0,621,,,,,,,,,,,,,,,,,167,F,circle,1,0,,,,,,,,,,,,,,,,switch,letter,lettSwt,j,noRew,,,,,,0.9973,0,37,0,37,0,1,,,,,,,,,,,,,,,,,
297733,2022-11-28_17h17.21.870,vts_reward_expectancy_bt,2022.2.4,MacIntel,60.0024001,Chrome,1440,900,,,,,0,621,,,,,,,,,,,,,,,,,174,S,star,1,0,,,,,,,,,,,,,,,,switch,number,numSwt,f,noRew,,,,,,0.9019,0,38,0,38,0,1,,,,,,,,,,,,,,,,,
297733,2022-11-28_17h17.21.870,vts_reward_expectancy_bt,2022.2.4,MacIntel,60.0024001,Chrome,1440,900,,,,,0,621,,,,,,,,,,,,,,,,,181,B,triangle,1,0,,,,,,,,,,,,,,,,repeat,number,numRpt,f,noRew,,,,,,0.7167,0,39,0,39,0,1,,,,,,,,,,,,,,,,,
297733,2022-11-28_17h17.21.870,vts_reward_expectancy_bt,2022.2.4,MacIntel,60.0024001,Chrome,1440,900,,,,,0,621,,,,,,,,,,,,,,,,,125,D,star,1,0,,,,,,,,,,,,,,,,repeat,number,numRpt,d,noRew,,,,,,0.8596,0,40,0,40,0,1,,,,,,,,,,,,,,,,,
297733,2022-11-28_17h17.21.870,vts_reward_expectancy_bt,2022.2.4,MacIntel,60.0024001,Chrome,1440,900,,,,,0,621,,,,,,,,,,,,,,,,,181,Y,hexagon,1,0,,,,,,,,,,,,,,,,repeat,number,numRpt,f,noRew,,,,,,0.7989,0,41,0,41,0,1,,,,,,,,,,,,,,,,,
297733,2022-11-28_17h17.21.870,vts_reward_expectancy_bt,2022.2.4,MacIntel,60.0024001,Chrome,1440,900,,,,,0,621,,,,,,,,,,,,,,,,,167,S,star,1,0,,,,,,,,,,,,,,,,repeat,number,numRpt,f,noRew,,,,,,0.8334,0,42,0,42,0,1,,,,,,,,,,,,,,,,,
297733,2022-11-28_17h17.21.870,vts_reward_expectancy_bt,2022.2.4,MacIntel,60.0024001,Chrome,1440,900,,,,,0,621,,,,,,,,,,,,,,,,,132,B,circle,1,0,,,,,,,,,,,,,,,,switch,letter,lettSwt,j,noRew,,,,,,0.9005,0,43,0,43,0,1,,,,,,,,,,,,,,,,,
297733,2022-11-28_17h17.21.870,vts_reward_expectancy_bt,2022.2.4,MacIntel,60.0024001,Chrome,1440,900,,,,,0,621,,,,,,,,,,,,,,,,,160,U,hexagon,1,0,,,,,,,,,,,,,,,,switch,number,numSwt,f,noRew,,,,,,1.2999,0,44,0,44,0,1,,,,,,,,,,,,,,,,,
297733,2022-11-28_17h17.21.870,vts_reward_expectancy_bt,2022.2.4,MacIntel,60.0024001,Chrome,1440,900,,,,,0,621,,,,,,,,,,,,,,,,,174,S,circle,1,0,,,,,,,,,,,,,,,,repeat,number,numRpt,f,noRew,,,,,,1.881,0,45,0,45,0,1,,,,,,,,,,,,,,,,,
297733,2022-11-28_17h17.21.870,vts_reward_expectancy_bt,2022.2.4,MacIntel,60.0024001,Chrome,1440,900,,,,,0,621,,,,,,,,,,,,,,,,,139,B,triangle,1,0,,,,,,,,,,,,,,,,repeat,number,numRpt,d,noRew,,,,,,0.9159,0,46,0,46,0,1,,,,,,,,,,,,,,,,,
297733,2022-11-28_17h17.21.870,vts_reward_expectancy_bt,2022.2.4,MacIntel,60.0024001,Chrome,1440,900,,,,,0,621,,,,,,,,,,,,,,,,,181,H,circle,1,0,,,,,,,,,,,,,,,,repeat,number,numRpt,f,noRew,,,,,,0.8,0,47,0,47,0,1,,,,,,,,,,,,,,,,,
297733,2022-11-28_17h17.21.870,vts_reward_expectancy_bt,2022.2.4,MacIntel,60.0024001,Chrome,1440,900,,,,,0,621,,,,,,,,,,,,,,,,,181,B,hexagon,1,0,,,,,,,,,,,,,,,,repeat,number,numRpt,f,noRew,,,,,,0.7202,0,48,0,48,0,1,,,,,,,,,,,,,,,,,
297733,2022-11-28_17h17.21.870,vts_reward_expectancy_bt,2022.2.4,MacIntel,60.0024001,Chrome,1440,900,,,,,0,621,,,,,,,,,,,,,,,,,139,S,triangle,1,0,,,,,,,,,,,,,,,,repeat,number,numRpt,d,noRew,,,,,,0.7054,0,49,0,49,0,1,,,,,,,,,,,,,,,,,
297733,2022-11-28_17h17.21.870,vts_reward_expectancy_bt,2022.2.4,MacIntel,60.0024001,Chrome,1440,900,,,,,0,621,,,,,,,,,,,,,,,,,146,D,hexagon,1,0,,,,,,,,,,,,,,,,repeat,number,numRpt,d,noRew,,,,,,0.7982,0,50,0,50,0,1,,,,,,,,,,,,,,,,,
297733,2022-11-28_17h17.21.870,vts_reward_expectancy_bt,2022.2.4,MacIntel,60.0024001,Chrome,1440,900,,,,,0,621,,,,,,,,,,,,,,,,,174,W,star,1,0,,,,,,,,,,,,,,,,repeat,number,numRpt,f,noRew,,,,,,0.9177,0,51,0,51,0,1,,,,,,,,,,,,,,,,,
297733,2022-11-28_17h17.21.870,vts_reward_expectancy_bt,2022.2.4,MacIntel,60.0024001,Chrome,1440,900,,,,,0,621,,,,,,,,,,,,,,,,,174,Y,circle,1,0,,,,,,,,,,,,,,,,switch,letter,lettSwt,k,noRew,,,,,,0.835,0,52,0,52,0,1,,,,,,,,,,,,,,,,,
297733,2022-11-28_17h17.21.870,vts_reward_expectancy_bt,2022.2.4,MacIntel,60.0024001,Chrome,1440,900,,,,,0,621,,,,,,,,,,,,,,,,,181,S,star,1,0,,,,,,,,,,,,,,,,switch,number,numSwt,f,noRew,,,,,,0.8672,0,53,0,53,0,1,,,,,,,,,,,,,,,,,
297733,2022-11-28_17h17.21.870,vts_reward_expectancy_bt,2022.2.4,MacIntel,60.0024001,Chrome,1440,900,,,,,0,621,,,,,,,,,,,,,,,,,139,U,circle,1,0,,,,,,,,,,,,,,,,switch,letter,lettSwt,k,noRew,,,,,,0.9706,0,54,0,54,0,1,,,,,,,,,,,,,,,,,
297733,2022-11-28_17h17.21.870,vts_reward_expectancy_bt,2022.2.4,MacIntel,60.0024001,Chrome,1440,900,,,,,0,621,,,,,,,,,,,,,,,,,146,H,star,1,0,,,,,,,,,,,,,,,,switch,number,numSwt,d,noRew,,,,,,0.8823,0,55,0,55,0,1,,,,,,,,,,,,,,,,,
297733,2022-11-28_17h17.21.870,vts_reward_expectancy_bt,2022.2.4,MacIntel,60.0024001,Chrome,1440,900,,,,,0,621,,,,,,,,,,,,,,,,,160,W,circle,1,0,,,,,,,,,,,,,,,,switch,letter,lettSwt,k,noRew,,,,,,0.8667,0,56,0,56,0,1,,,,,,,,,,,,,,,,,
297733,2022-11-28_17h17.21.870,vts_reward_expectancy_bt,2022.2.4,MacIntel,60.0024001,Chrome,1440,900,,,,,0,621,,,,,,,,,,,,,,,,,167,D,star,1,0,,,,,,,,,,,,,,,,switch,number,numSwt,f,noRew,,,,,,0.6812,0,57,0,57,0,1,,,,,,,,,,,,,,,,,
297733,2022-11-28_17h17.21.870,vts_reward_expectancy_bt,2022.2.4,MacIntel,60.0024001,Chrome,1440,900,,,,,0,621,,,,,,,,,,,,,,,,,125,H,hexagon,1,0,,,,,,,,,,,,,,,,repeat,number,numRpt,d,noRew,,,,,,0.6869,0,58,0,58,0,1,,,,,,,,,,,,,,,,,
297733,2022-11-28_17h17.21.870,vts_reward_expectancy_bt,2022.2.4,MacIntel,60.0024001,Chrome,1440,900,,,,,0,621,,,,,,,,,,,,,,,,,146,U,circle,1,0,,,,,,,,,,,,,,,,switch,letter,lettSwt,k,noRew,,,,,,0.7837,0,59,0,59,0,1,,,,,,,,,,,,,,,,,
297733,2022-11-28_17h17.21.870,vts_reward_expectancy_bt,2022.2.4,MacIntel,60.0024001,Chrome,1440,900,,,,,0,621,,,,,,,,,,,,,,,,,139,D,triangle,1,0,,,,,,,,,,,,,,,,switch,number,numSwt,d,noRew,,,,,,0.9018,0,60,0,60,0,1,,,,,,,,,,,,,,,,,
297733,2022-11-28_17h17.21.870,vts_reward_expectancy_bt,2022.2.4,MacIntel,60.0024001,Chrome,1440,900,,,,,0,621,,,,,,,,,,,,,,,,,167,Y,circle,1,0,,,,,,,,,,,,,,,,switch,letter,lettSwt,k,noRew,,,,,,0.6983,0,61,0,61,0,1,,,,,,,,,,,,,,,,,
297733,2022-11-28_17h17.21.870,vts_reward_expectancy_bt,2022.2.4,MacIntel,60.0024001,Chrome,1440,900,,,,,0,621,,,,,,,,,,,,,,,,,181,F,hexagon,1,0,,,,,,,,,,,,,,,,switch,number,numSwt,f,noRew,,,,,,0.8318,0,62,0,62,0,1,,,,,,,,,,,,,,,,,
297733,2022-11-28_17h17.21.870,vts_reward_expectancy_bt,2022.2.4,MacIntel,60.0024001,Chrome,1440,900,,,,,0,621,,,,,,,,,,,,,,,,,174,U,star,1,0,,,,,,,,,,,,,,,,repeat,number,numRpt,f,noRew,,,,,,0.8257,0,63,0,63,0,1,,,,,,,,,,,,,,,,,
297733,2022-11-28_17h17.21.870,vts_reward_expectancy_bt,2022.2.4,MacIntel,60.0024001,Chrome,1440,900,,,,,,,,,,,,,,,,,,,,,,,,,,,,,,,,,,,,,,,,,,,,,,,,,,,,,,,,,,,,,,,,,,,,,,,,,,,,
297733,2022-11-28_17h17.21.870,vts_reward_expectancy_bt,2022.2.4,MacIntel,60.0024001,Chrome,1440,900,,,,,0,621,,,,,,,,,,,,,,,,,125,F,hexagon,-1,0,,,,,,,,,,,,,,,,switch,no_choice,NA,,noRew,,,,,,,0,,,,,,space,9.5068,high,0,0,0,0,1,,,,,,,,,
297733,2022-11-28_17h17.21.870,vts_reward_expectancy_bt,2022.2.4,MacIntel,60.0024001,Chrome,1440,900,,,,,0,621,,,,,,,,,,,,,,,,,181,D,circle,1,0,,,,,,,,,,,,,,,,switch,letter,lettSwt,j,Hi,,,,,,0.8435,0,,,,,,,,high,1,0,1,0,1,,,,,,,,,
297733,2022-11-28_17h17.21.870,vts_reward_expectancy_bt,2022.2.4,MacIntel,60.0024001,Chrome,1440,900,,,,,1,622,,,,,,,,,,,,,,,,,174,W,triangle,1,0,,,,,,,,,,,,,,,,switch,number,numSwt,f,Lo,,,,,,0.7697,0,,,,,,,,high,2,0,2,0,1,,,,,,,,,
297733,2022-11-28_17h17.21.870,vts_reward_expectancy_bt,2022.2.4,MacIntel,60.0024001,Chrome,1440,900,,,,,0,622,,,,,,,,,,,,,,,,,132,Y,star,1,0,,,,,,,,,,,,,,,,repeat,number,numRpt,d,Hi,,,,,,0.8986,0,,,,,,,,high,3,0,3,0,1,,,,,,,,,
297733,2022-11-28_17h17.21.870,vts_reward_expectancy_bt,2022.2.4,MacIntel,60.0024001,Chrome,1440,900,,,,,1,623,,,,,,,,,,,,,,,,,160,U,hexagon,1,0,,,,,,,,,,,,,,,,repeat,number,numRpt,f,Lo,,,,,,0.6995,0,,,,,,,,high,4,0,4,0,1,,,,,,,,,
297733,2022-11-28_17h17.21.870,vts_reward_expectancy_bt,2022.2.4,MacIntel,60.0024001,Chrome,1440,900,,,,,0,623,,,,,,,,,,,,,,,,,139,B,circle,1,0,,,,,,,,,,,,,,,,switch,letter,lettSwt,j,Hi,,,,,,1.4951,0,,,,,,,,high,5,0,5,0,1,,,,,,,,,
297733,2022-11-28_17h17.21.870,vts_reward_expectancy_bt,2022.2.4,MacIntel,60.0024001,Chrome,1440,900,,,,,1,624,,,,,,,,,,,,,,,,,167,H,triangle,1,0,,,,,,,,,,,,,,,,switch,number,numSwt,f,Lo,,,,,,0.5761,0,,,,,,,,high,6,0,6,0,1,,,,,,,,,
297733,2022-11-28_17h17.21.870,vts_reward_expectancy_bt,2022.2.4,MacIntel,60.0024001,Chrome,1440,900,,,,,0,624,,,,,,,,,,,,,,,,,146,S,star,1,0,,,,,,,,,,,,,,,,repeat,number,numRpt,d,Hi,,,,,,1.7552,0,,,,,,,,high,7,0,7,0,1,,,,,,,,,
297733,2022-11-28_17h17.21.870,vts_reward_expectancy_bt,2022.2.4,MacIntel,60.0024001,Chrome,1440,900,,,,,0,624,,,,,,,,,,,,,,,,,125,F,star,1,0,,,,,,,,,,,,,,,,repeat,number,numRpt,d,Hi,,,,,,1.1504,0,,,,,,,,high,8,0,8,0,1,,,,,,,,,
297733,2022-11-28_17h17.21.870,vts_reward_expectancy_bt,2022.2.4,MacIntel,60.0024001,Chrome,1440,900,,,,,10,634,,,,,,,,,,,,,,,,,181,D,hexagon,1,0,,,,,,,,,,,,,,,,repeat,number,numRpt,f,Lo,,,,,,0.4691,0,,,,,,,,high,9,0,9,0,1,,,,,,,,,
297733,2022-11-28_17h17.21.870,vts_reward_expectancy_bt,2022.2.4,MacIntel,60.0024001,Chrome,1440,900,,,,,1,635,,,,,,,,,,,,,,,,,174,W,circle,1,0,,,,,,,,,,,,,,,,switch,letter,lettSwt,k,Hi,,,,,,0.4205,0,,,,,,,,high,10,0,10,0,1,,,,,,,,,
297733,2022-11-28_17h17.21.870,vts_reward_expectancy_bt,2022.2.4,MacIntel,60.0024001,Chrome,1440,900,,,,,1,636,,,,,,,,,,,,,,,,,132,Y,triangle,1,0,,,,,,,,,,,,,,,,switch,number,numSwt,d,Lo,,,,,,0.6441,0,,,,,,,,high,11,0,11,0,1,,,,,,,,,
297733,2022-11-28_17h17.21.870,vts_reward_expectancy_bt,2022.2.4,MacIntel,60.0024001,Chrome,1440,900,,,,,1,637,,,,,,,,,,,,,,,,,160,U,star,1,0,,,,,,,,,,,,,,,,repeat,number,numRpt,f,Hi,,,,,,0.4628,0,,,,,,,,high,12,0,12,0,1,,,,,,,,,
297733,2022-11-28_17h17.21.870,vts_reward_expectancy_bt,2022.2.4,MacIntel,60.0024001,Chrome,1440,900,,,,,0,637,,,,,,,,,,,,,,,,,139,B,circle,1,0,,,,,,,,,,,,,,,,switch,letter,lettSwt,j,Hi,,,,,,0.8328,0,,,,,,,,high,13,0,13,0,1,,,,,,,,,
297733,2022-11-28_17h17.21.870,vts_reward_expectancy_bt,2022.2.4,MacIntel,60.0024001,Chrome,1440,900,,,,,1,638,,,,,,,,,,,,,,,,,167,H,triangle,1,0,,,,,,,,,,,,,,,,switch,number,numSwt,f,Lo,,,,,,0.4215,0,,,,,,,,high,14,0,14,0,1,,,,,,,,,
297733,2022-11-28_17h17.21.870,vts_reward_expectancy_bt,2022.2.4,MacIntel,60.0024001,Chrome,1440,900,,,,,0,638,,,,,,,,,,,,,,,,,146,S,hexagon,-1,0,,,,,,,,,,,,,,,,switch,no_choice,NA,,Lo,,,,,,,0,,,,,,,,high,15,0,15,0,1,,,,,,,,,
297733,2022-11-28_17h17.21.870,vts_reward_expectancy_bt,2022.2.4,MacIntel,60.0024001,Chrome,1440,900,,,,,1,639,,,,,,,,,,,,,,,,,167,F,triangle,1,0,,,,,,,,,,,,,,,,switch,number,numSwt,f,Lo,,,,,,1.3507,0,,,,,,,,high,16,0,16,0,1,,,,,,,,,
297733,2022-11-28_17h17.21.870,vts_reward_expectancy_bt,2022.2.4,MacIntel,60.0024001,Chrome,1440,900,,,,,1,640,,,,,,,,,,,,,,,,,146,Y,hexagon,1,0,,,,,,,,,,,,,,,,repeat,number,numRpt,d,Lo,,,,,,1.4167,0,,,,,,,,high,17,0,17,0,1,,,,,,,,,
297733,2022-11-28_17h17.21.870,vts_reward_expectancy_bt,2022.2.4,MacIntel,60.0024001,Chrome,1440,900,,,,,0,640,,,,,,,,,,,,,,,,,125,D,star,1,0,,,,,,,,,,,,,,,,switch,letter,lettSwt,j,Hi,,,,,,1.2797,0,,,,,,,,high,18,0,18,0,1,,,,,,,,,
297733,2022-11-28_17h17.21.870,vts_reward_expectancy_bt,2022.2.4,MacIntel,60.0024001,Chrome,1440,900,,,,,0,640,,,,,,,,,,,,,,,,,132,S,circle,1,0,,,,,,,,,,,,,,,,repeat,letter,lettRpt,k,Hi,,,,,,1.3383,0,,,,,,,,high,19,0,19,0,1,,,,,,,,,
297733,2022-11-28_17h17.21.870,vts_reward_expectancy_bt,2022.2.4,MacIntel,60.0024001,Chrome,1440,900,,,,,0,640,,,,,,,,,,,,,,,,,160,W,star,1,0,,,,,,,,,,,,,,,,switch,number,numSwt,f,Hi,,,,,,1.4936,0,,,,,,,,high,20,0,20,0,1,,,,,,,,,
297733,2022-11-28_17h17.21.870,vts_reward_expectancy_bt,2022.2.4,MacIntel,60.0024001,Chrome,1440,900,,,,,0,640,,,,,,,,,,,,,,,,,174,B,circle,1,0,,,,,,,,,,,,,,,,switch,letter,lettSwt,j,Hi,,,,,,1.0551,0,,,,,,,,high,21,0,21,0,1,,,,,,,,,
297733,2022-11-28_17h17.21.870,vts_reward_expectancy_bt,2022.2.4,MacIntel,60.0024001,Chrome,1440,900,,,,,1,641,,,,,,,,,,,,,,,,,139,H,triangle,1,0,,,,,,,,,,,,,,,,switch,number,numSwt,d,Lo,,,,,,0.4331,0,,,,,,,,high,22,0,22,0,1,,,,,,,,,
297733,2022-11-28_17h17.21.870,vts_reward_expectancy_bt,2022.2.4,MacIntel,60.0024001,Chrome,1440,900,,,,,1,642,,,,,,,,,,,,,,,,,181,U,hexagon,1,0,,,,,,,,,,,,,,,,repeat,number,numRpt,f,Lo,,,,,,0.6322,0,,,,,,,,high,23,0,23,0,1,,,,,,,,,
297733,2022-11-28_17h17.21.870,vts_reward_expectancy_bt,2022.2.4,MacIntel,60.0024001,Chrome,1440,900,,,,,0,642,,,,,,,,,,,,,,,,,174,W,circle,-1,0,,,,,,,,,,,,,,,,switch,no_choice,NA,,Lo,,,,,,,0,,,,,,,,high,24,0,24,0,1,,,,,,,,,
297733,2022-11-28_17h17.21.870,vts_reward_expectancy_bt,2022.2.4,MacIntel,60.0024001,Chrome,1440,900,,,,,10,652,,,,,,,,,,,,,,,,,160,Y,triangle,1,0,,,,,,,,,,,,,,,,switch,number,numSwt,f,Lo,,,,,,0.852,0,,,,,,,,high,25,0,25,0,1,,,,,,,,,
297733,2022-11-28_17h17.21.870,vts_reward_expectancy_bt,2022.2.4,MacIntel,60.0024001,Chrome,1440,900,,,,,1,653,,,,,,,,,,,,,,,,,132,S,hexagon,1,0,,,,,,,,,,,,,,,,repeat,number,numRpt,d,Lo,,,,,,0.7666,0,,,,,,,,high,26,0,26,0,1,,,,,,,,,
297733,2022-11-28_17h17.21.870,vts_reward_expectancy_bt,2022.2.4,MacIntel,60.0024001,Chrome,1440,900,,,,,0,653,,,,,,,,,,,,,,,,,181,U,star,-1,0,,,,,,,,,,,,,,,,switch,no_choice,NA,,Lo,,,,,,,0,,,,,,,,high,27,0,27,0,1,,,,,,,,,
297733,2022-11-28_17h17.21.870,vts_reward_expectancy_bt,2022.2.4,MacIntel,60.0024001,Chrome,1440,900,,,,,1,654,,,,,,,,,,,,,,,,,139,F,triangle,1,0,,,,,,,,,,,,,,,,switch,number,numSwt,d,Lo,,,,,,1.4663,0,,,,,,,,high,28,0,28,0,1,,,,,,,,,
297733,2022-11-28_17h17.21.870,vts_reward_expectancy_bt,2022.2.4,MacIntel,60.0024001,Chrome,1440,900,,,,,0,654,,,,,,,,,,,,,,,,,146,H,circle,-1,0,,,,,,,,,,,,,,,,switch,no_choice,NA,,Lo,,,,,,,0,,,,,,,,high,29,0,29,0,1,,,,,,,,,
297733,2022-11-28_17h17.21.870,vts_reward_expectancy_bt,2022.2.4,MacIntel,60.0024001,Chrome,1440,900,,,,,1,655,,,,,,,,,,,,,,,,,125,B,hexagon,1,0,,,,,,,,,,,,,,,,switch,number,numSwt,d,Lo,,,,,,0.8988,0,,,,,,,,high,30,0,30,0,1,,,,,,,,,
297733,2022-11-28_17h17.21.870,vts_reward_expectancy_bt,2022.2.4,MacIntel,60.0024001,Chrome,1440,900,,,,,0,655,,,,,,,,,,,,,,,,,167,D,star,0,0,,,,,,,,,,,,,,,,switch,letter,NA,k,Lo,,,,,,1.5607,0,,,,,,,,high,31,0,31,0,1,,,,,,,,,
297733,2022-11-28_17h17.21.870,vts_reward_expectancy_bt,2022.2.4,MacIntel,60.0024001,Chrome,1440,900,,,,,0,655,,,,,,,,,,,,,,,,,132,H,triangle,0,1,,,,,,,,,,,,,,,,switch,number,NA,f,Lo,,,,,,1.5501,1,,,,,,space,52.9477,high,0,0,0,0,1,,,,,,,,,
297733,2022-11-28_17h17.21.870,vts_reward_expectancy_bt,2022.2.4,MacIntel,60.0024001,Chrome,1440,900,,,,,1,656,,,,,,,,,,,,,,,,,160,B,hexagon,1,1,,,,,,,,,,,,,,,,repeat,number,numRpt,f,Lo,,,,,,0.7838,1,,,,,,,,high,1,0,1,0,1,,,,,,,,,
297733,2022-11-28_17h17.21.870,vts_reward_expectancy_bt,2022.2.4,MacIntel,60.0024001,Chrome,1440,900,,,,,10,666,,,,,,,,,,,,,,,,,146,D,star,1,0,,,,,,,,,,,,,,,,repeat,number,numRpt,d,Hi,,,,,,0.6692,1,,,,,,,,high,2,0,2,0,1,,,,,,,,,
297733,2022-11-28_17h17.21.870,vts_reward_expectancy_bt,2022.2.4,MacIntel,60.0024001,Chrome,1440,900,,,,,1,667,,,,,,,,,,,,,,,,,139,U,circle,1,0,,,,,,,,,,,,,,,,switch,letter,lettSwt,k,Hi,,,,,,0.4477,1,,,,,,,,high,3,0,3,0,1,,,,,,,,,
297733,2022-11-28_17h17.21.870,vts_reward_expectancy_bt,2022.2.4,MacIntel,60.0024001,Chrome,1440,900,,,,,1,668,,,,,,,,,,,,,,,,,181,Y,triangle,1,0,,,,,,,,,,,,,,,,switch,number,numSwt,f,Lo,,,,,,0.6541,1,,,,,,,,high,4,0,4,0,1,,,,,,,,,
297733,2022-11-28_17h17.21.870,vts_reward_expectancy_bt,2022.2.4,MacIntel,60.0024001,Chrome,1440,900,,,,,1,669,,,,,,,,,,,,,,,,,125,F,hexagon,1,0,,,,,,,,,,,,,,,,repeat,number,numRpt,d,Lo,,,,,,2.0879,1,,,,,,,,high,5,0,5,0,1,,,,,,,,,
297733,2022-11-28_17h17.21.870,vts_reward_expectancy_bt,2022.2.4,MacIntel,60.0024001,Chrome,1440,900,,,,,0,669,,,,,,,,,,,,,,,,,174,W,star,1,0,,,,,,,,,,,,,,,,repeat,number,numRpt,f,Hi,,,,,,1.0131,1,,,,,,,,high,6,0,6,0,1,,,,,,,,,
297733,2022-11-28_17h17.21.870,vts_reward_expectancy_bt,2022.2.4,MacIntel,60.0024001,Chrome,1440,900,,,,,0,669,,,,,,,,,,,,,,,,,167,S,circle,1,0,,,,,,,,,,,,,,,,switch,letter,lettSwt,k,Hi,,,,,,1.3262,1,,,,,,,,high,7,0,7,0,1,,,,,,,,,
297733,2022-11-28_17h17.21.870,vts_reward_expectancy_bt,2022.2.4,MacIntel,60.0024001,Chrome,1440,900,,,,,0,669,,,,,,,,,,,,,,,,,132,H,star,0,0,,,,,,,,,,,,,,,,switch,number,NA,f,Hi,,,,,,0.8332,1,,,,,,,,high,8,0,8,0,1,,,,,,,,,
297733,2022-11-28_17h17.21.870,vts_reward_expectancy_bt,2022.2.4,MacIntel,60.0024001,Chrome,1440,900,,,,,10,679,,,,,,,,,,,,,,,,,160,B,triangle,1,1,,,,,,,,,,,,,,,,repeat,number,numRpt,f,Lo,,,,,,0.8624,1,,,,,,,,high,9,0,9,0,1,,,,,,,,,
297733,2022-11-28_17h17.21.870,vts_reward_expectancy_bt,2022.2.4,MacIntel,60.0024001,Chrome,1440,900,,,,,0,679,,,,,,,,,,,,,,,,,146,D,hexagon,0,0,,,,,,,,,,,,,,,,repeat,number,NA,f,Lo,,,,,,0.7658,1,,,,,,,,high,10,0,10,0,1,,,,,,,,,
297733,2022-11-28_17h17.21.870,vts_reward_expectancy_bt,2022.2.4,MacIntel,60.0024001,Chrome,1440,900,,,,,0,679,,,,,,,,,,,,,,,,,139,U,circle,1,1,,,,,,,,,,,,,,,,repeat,number,numRpt,d,Hi,,,,,,1.1508,1,,,,,,,,high,11,0,11,0,1,,,,,,,,,
297733,2022-11-28_17h17.21.870,vts_reward_expectancy_bt,2022.2.4,MacIntel,60.0024001,Chrome,1440,900,,,,,0,679,,,,,,,,,,,,,,,,,181,Y,star,1,0,,,,,,,,,,,,,,,,repeat,number,numRpt,f,Hi,,,,,,0.733,1,,,,,,,,high,12,0,12,0,1,,,,,,,,,
297733,2022-11-28_17h17.21.870,vts_reward_expectancy_bt,2022.2.4,MacIntel,60.0024001,Chrome,1440,900,,,,,10,689,,,,,,,,,,,,,,,,,125,F,circle,1,0,,,,,,,,,,,,,,,,switch,letter,lettSwt,j,Hi,,,,,,0.4487,1,,,,,,,,high,13,0,13,0,1,,,,,,,,,
297733,2022-11-28_17h17.21.870,vts_reward_expectancy_bt,2022.2.4,MacIntel,60.0024001,Chrome,1440,900,,,,,1,690,,,,,,,,,,,,,,,,,174,W,hexagon,1,0,,,,,,,,,,,,,,,,repeat,letter,lettRpt,k,Lo,,,,,,0.9205,1,,,,,,,,high,14,0,14,0,1,,,,,,,,,
297733,2022-11-28_17h17.21.870,vts_reward_expectancy_bt,2022.2.4,MacIntel,60.0024001,Chrome,1440,900,,,,,1,691,,,,,,,,,,,,,,,,,167,S,triangle,1,0,,,,,,,,,,,,,,,,repeat,letter,lettRpt,k,Lo,,,,,,1.0692,1,,,,,,,,high,15,0,15,0,1,,,,,,,,,
297733,2022-11-28_17h17.21.870,vts_reward_expectancy_bt,2022.2.4,MacIntel,60.0024001,Chrome,1440,900,,,,,1,692,,,,,,,,,,,,,,,,,167,W,hexagon,1,0,,,,,,,,,,,,,,,,switch,number,numSwt,f,Lo,,,,,,1.0345,1,,,,,,,,high,16,0,16,0,1,,,,,,,,,
297733,2022-11-28_17h17.21.870,vts_reward_expectancy_bt,2022.2.4,MacIntel,60.0024001,Chrome,1440,900,,,,,10,702,,,,,,,,,,,,,,,,,146,S,circle,1,0,,,,,,,,,,,,,,,,switch,letter,lettSwt,k,Hi,,,,,,0.7448,1,,,,,,,,high,17,0,17,0,1,,,,,,,,,
297733,2022-11-28_17h17.21.870,vts_reward_expectancy_bt,2022.2.4,MacIntel,60.0024001,Chrome,1440,900,,,,,10,712,,,,,,,,,,,,,,,,,160,D,star,1,0,,,,,,,,,,,,,,,,switch,number,numSwt,f,Hi,,,,,,0.548,1,,,,,,,,high,18,0,18,0,1,,,,,,,,,
297733,2022-11-28_17h17.21.870,vts_reward_expectancy_bt,2022.2.4,MacIntel,60.0024001,Chrome,1440,900,,,,,1,713,,,,,,,,,,,,,,,,,139,H,triangle,1,0,,,,,,,,,,,,,,,,repeat,number,numRpt,d,Lo,,,,,,0.6997,1,,,,,,,,high,19,0,19,0,1,,,,,,,,,
297733,2022-11-28_17h17.21.870,vts_reward_expectancy_bt,2022.2.4,MacIntel,60.0024001,Chrome,1440,900,,,,,0,713,,,,,,,,,,,,,,,,,174,B,star,1,0,,,,,,,,,,,,,,,,repeat,number,numRpt,f,Hi,,,,,,0.682,1,,,,,,,,high,20,0,20,0,1,,,,,,,,,
297733,2022-11-28_17h17.21.870,vts_reward_expectancy_bt,2022.2.4,MacIntel,60.0024001,Chrome,1440,900,,,,,1,714,,,,,,,,,,,,,,,,,181,Y,triangle,1,0,,,,,,,,,,,,,,,,switch,letter,lettSwt,k,Lo,,,,,,0.5295,1,,,,,,,,high,21,0,21,0,1,,,,,,,,,
297733,2022-11-28_17h17.21.870,vts_reward_expectancy_bt,2022.2.4,MacIntel,60.0024001,Chrome,1440,900,,,,,1,715,,,,,,,,,,,,,,,,,132,U,hexagon,1,0,,,,,,,,,,,,,,,,repeat,letter,lettRpt,k,Lo,,,,,,1.0901,1,,,,,,,,high,22,0,22,0,1,,,,,,,,,
297733,2022-11-28_17h17.21.870,vts_reward_expectancy_bt,2022.2.4,MacIntel,60.0024001,Chrome,1440,900,,,,,0,715,,,,,,,,,,,,,,,,,125,F,circle,1,0,,,,,,,,,,,,,,,,repeat,letter,lettRpt,j,Hi,,,,,,1.5764,1,,,,,,,,high,23,0,23,0,1,,,,,,,,,
297733,2022-11-28_17h17.21.870,vts_reward_expectancy_bt,2022.2.4,MacIntel,60.0024001,Chrome,1440,900,,,,,1,716,,,,,,,,,,,,,,,,,125,Y,triangle,1,0,,,,,,,,,,,,,,,,switch,number,numSwt,d,Lo,,,,,,0.7339,1,,,,,,,,high,24,0,24,0,1,,,,,,,,,
297733,2022-11-28_17h17.21.870,vts_reward_expectancy_bt,2022.2.4,MacIntel,60.0024001,Chrome,1440,900,,,,,0,716,,,,,,,,,,,,,,,,,181,S,star,-1,0,,,,,,,,,,,,,,,,switch,no_choice,NA,,Lo,,,,,,,1,,,,,,,,high,25,0,25,0,1,,,,,,,,,
297733,2022-11-28_17h17.21.870,vts_reward_expectancy_bt,2022.2.4,MacIntel,60.0024001,Chrome,1440,900,,,,,1,717,,,,,,,,,,,,,,,,,160,W,hexagon,1,0,,,,,,,,,,,,,,,,switch,number,numSwt,f,Lo,,,,,,1.6221,1,,,,,,,,high,26,0,26,0,1,,,,,,,,,
297733,2022-11-28_17h17.21.870,vts_reward_expectancy_bt,2022.2.4,MacIntel,60.0024001,Chrome,1440,900,,,,,0,717,,,,,,,,,,,,,,,,,146,U,circle,1,0,,,,,,,,,,,,,,,,repeat,number,numRpt,d,Hi,,,,,,1.4185,1,,,,,,,,high,27,0,27,0,1,,,,,,,,,
297733,2022-11-28_17h17.21.870,vts_reward_expectancy_bt,2022.2.4,MacIntel,60.0024001,Chrome,1440,900,,,,,1,718,,,,,,,,,,,,,,,,,167,F,hexagon,1,0,,,,,,,,,,,,,,,,switch,letter,lettSwt,j,Lo,,,,,,0.8634,1,,,,,,,,high,28,0,28,0,1,,,,,,,,,
297733,2022-11-28_17h17.21.870,vts_reward_expectancy_bt,2022.2.4,MacIntel,60.0024001,Chrome,1440,900,,,,,10,728,,,,,,,,,,,,,,,,,139,B,triangle,1,0,,,,,,,,,,,,,,,,switch,number,numSwt,d,Lo,,,,,,0.8482,1,,,,,,,,high,29,0,29,0,1,,,,,,,,,
297733,2022-11-28_17h17.21.870,vts_reward_expectancy_bt,2022.2.4,MacIntel,60.0024001,Chrome,1440,900,,,,,0,728,,,,,,,,,,,,,,,,,132,D,circle,1,0,,,,,,,,,,,,,,,,switch,letter,lettSwt,j,Hi,,,,,,1.6652,1,,,,,,,,high,30,0,30,0,1,,,,,,,,,
297733,2022-11-28_17h17.21.870,vts_reward_expectancy_bt,2022.2.4,MacIntel,60.0024001,Chrome,1440,900,,,,,0,728,,,,,,,,,,,,,,,,,174,H,star,1,0,,,,,,,,,,,,,,,,switch,number,numSwt,f,Hi,,,,,,1.5224,1,,,,,,,,high,31,0,31,0,1,,,,,,,,,
297733,2022-11-28_17h17.21.870,vts_reward_expectancy_bt,2022.2.4,MacIntel,60.0024001,Chrome,1440,900,,,,,0,728,,,,,,,,,,,,,,,,,146,H,triangle,0,0,,,,,,,,,,,,,,,,switch,letter,NA,k,Hi,,,,,,1.7001,2,,,,,,space,1.4445,high,0,0,0,0,1,,,,,,,,,
297733,2022-11-28_17h17.21.870,vts_reward_expectancy_bt,2022.2.4,MacIntel,60.0024001,Chrome,1440,900,,,,,10,738,,,,,,,,,,,,,,,,,139,B,circle,1,1,,,,,,,,,,,,,,,,repeat,letter,lettRpt,j,Hi,,,,,,0.9684,2,,,,,,,,high,1,0,1,0,1,,,,,,,,,
297733,2022-11-28_17h17.21.870,vts_reward_expectancy_bt,2022.2.4,MacIntel,60.0024001,Chrome,1440,900,,,,,10,748,,,,,,,,,,,,,,,,,174,F,star,1,0,,,,,,,,,,,,,,,,switch,number,numSwt,f,Hi,,,,,,0.7159,2,,,,,,,,high,2,0,2,0,1,,,,,,,,,
297733,2022-11-28_17h17.21.870,vts_reward_expectancy_bt,2022.2.4,MacIntel,60.0024001,Chrome,1440,900,,,,,1,749,,,,,,,,,,,,,,,,,181,W,hexagon,1,0,,,,,,,,,,,,,,,,switch,letter,lettSwt,k,Lo,,,,,,0.5629,2,,,,,,,,high,3,0,3,0,1,,,,,,,,,
297733,2022-11-28_17h17.21.870,vts_reward_expectancy_bt,2022.2.4,MacIntel,60.0024001,Chrome,1440,900,,,,,1,750,,,,,,,,,,,,,,,,,125,S,triangle,1,0,,,,,,,,,,,,,,,,switch,number,numSwt,d,Lo,,,,,,0.5325,2,,,,,,,,high,4,0,4,0,1,,,,,,,,,
297733,2022-11-28_17h17.21.870,vts_reward_expectancy_bt,2022.2.4,MacIntel,60.0024001,Chrome,1440,900,,,,,0,750,,,,,,,,,,,,,,,,,167,D,circle,1,0,,,,,,,,,,,,,,,,switch,letter,lettSwt,j,Hi,,,,,,0.6326,2,,,,,,,,high,5,0,5,0,1,,,,,,,,,
297733,2022-11-28_17h17.21.870,vts_reward_expectancy_bt,2022.2.4,MacIntel,60.0024001,Chrome,1440,900,,,,,0,750,,,,,,,,,,,,,,,,,132,U,star,1,0,,,,,,,,,,,,,,,,switch,number,numSwt,d,Hi,,,,,,1.0994,2,,,,,,,,high,6,0,6,0,1,,,,,,,,,
297733,2022-11-28_17h17.21.870,vts_reward_expectancy_bt,2022.2.4,MacIntel,60.0024001,Chrome,1440,900,,,,,1,751,,,,,,,,,,,,,,,,,160,Y,hexagon,1,0,,,,,,,,,,,,,,,,repeat,number,numRpt,f,Lo,,,,,,1.1138,2,,,,,,,,high,7,0,7,0,1,,,,,,,,,
297733,2022-11-28_17h17.21.870,vts_reward_expectancy_bt,2022.2.4,MacIntel,60.0024001,Chrome,1440,900,,,,,1,752,,,,,,,,,,,,,,,,,146,H,triangle,1,0,,,,,,,,,,,,,,,,switch,letter,lettSwt,j,Lo,,,,,,0.6143,2,,,,,,,,high,8,0,8,0,1,,,,,,,,,
297733,2022-11-28_17h17.21.870,vts_reward_expectancy_bt,2022.2.4,MacIntel,60.0024001,Chrome,1440,900,,,,,1,753,,,,,,,,,,,,,,,,,139,B,hexagon,1,0,,,,,,,,,,,,,,,,switch,number,numSwt,d,Lo,,,,,,0.8165,2,,,,,,,,high,9,0,9,0,1,,,,,,,,,
297733,2022-11-28_17h17.21.870,vts_reward_expectancy_bt,2022.2.4,MacIntel,60.0024001,Chrome,1440,900,,,,,0,753,,,,,,,,,,,,,,,,,174,F,circle,1,0,,,,,,,,,,,,,,,,switch,letter,lettSwt,j,Hi,,,,,,0.6824,2,,,,,,,,high,10,0,10,0,1,,,,,,,,,
297733,2022-11-28_17h17.21.870,vts_reward_expectancy_bt,2022.2.4,MacIntel,60.0024001,Chrome,1440,900,,,,,0,753,,,,,,,,,,,,,,,,,181,W,star,1,0,,,,,,,,,,,,,,,,switch,number,numSwt,f,Hi,,,,,,0.8771,2,,,,,,,,high,11,0,11,0,1,,,,,,,,,
297733,2022-11-28_17h17.21.870,vts_reward_expectancy_bt,2022.2.4,MacIntel,60.0024001,Chrome,1440,900,,,,,10,763,,,,,,,,,,,,,,,,,125,S,star,1,0,,,,,,,,,,,,,,,,repeat,number,numRpt,d,Hi,,,,,,0.7302,2,,,,,,,,high,12,0,12,0,1,,,,,,,,,
297733,2022-11-28_17h17.21.870,vts_reward_expectancy_bt,2022.2.4,MacIntel,60.0024001,Chrome,1440,900,,,,,1,764,,,,,,,,,,,,,,,,,167,D,hexagon,1,0,,,,,,,,,,,,,,,,switch,letter,lettSwt,j,Lo,,,,,,0.7658,2,,,,,,,,high,13,0,13,0,1,,,,,,,,,
297733,2022-11-28_17h17.21.870,vts_reward_expectancy_bt,2022.2.4,MacIntel,60.0024001,Chrome,1440,900,,,,,1,765,,,,,,,,,,,,,,,,,132,U,triangle,1,0,,,,,,,,,,,,,,,,switch,number,numSwt,d,Lo,,,,,,1.0676,2,,,,,,,,high,14,0,14,0,1,,,,,,,,,
297733,2022-11-28_17h17.21.870,vts_reward_expectancy_bt,2022.2.4,MacIntel,60.0024001,Chrome,1440,900,,,,,0,765,,,,,,,,,,,,,,,,,160,Y,circle,1,0,,,,,,,,,,,,,,,,switch,letter,lettSwt,k,Hi,,,,,,0.5464,2,,,,,,,,high,15,0,15,0,1,,,,,,,,,
297733,2022-11-28_17h17.21.870,vts_reward_expectancy_bt,2022.2.4,MacIntel,60.0024001,Chrome,1440,900,,,,,1,766,,,,,,,,,,,,,,,,,174,W,triangle,1,0,,,,,,,,,,,,,,,,repeat,letter,lettRpt,k,Lo,,,,,,0.9937,2,,,,,,,,high,16,0,16,0,1,,,,,,,,,
297733,2022-11-28_17h17.21.870,vts_reward_expectancy_bt,2022.2.4,MacIntel,60.0024001,Chrome,1440,900,,,,,10,776,,,,,,,,,,,,,,,,,181,H,star,1,0,,,,,,,,,,,,,,,,repeat,letter,lettRpt,j,Hi,,,,,,1.0381,2,,,,,,,,high,17,0,17,0,1,,,,,,,,,
297733,2022-11-28_17h17.21.870,vts_reward_expectancy_bt,2022.2.4,MacIntel,60.0024001,Chrome,1440,900,,,,,10,786,,,,,,,,,,,,,,,,,167,U,circle,1,0,,,,,,,,,,,,,,,,repeat,letter,lettRpt,k,Hi,,,,,,0.8054,2,,,,,,,,high,18,0,18,0,1,,,,,,,,,
297733,2022-11-28_17h17.21.870,vts_reward_expectancy_bt,2022.2.4,MacIntel,60.0024001,Chrome,1440,900,,,,,1,787,,,,,,,,,,,,,,,,,139,B,hexagon,1,0,,,,,,,,,,,,,,,,switch,number,numSwt,d,Lo,,,,,,0.8996,2,,,,,,,,high,19,0,19,0,1,,,,,,,,,
297733,2022-11-28_17h17.21.870,vts_reward_expectancy_bt,2022.2.4,MacIntel,60.0024001,Chrome,1440,900,,,,,0,787,,,,,,,,,,,,,,,,,125,S,star,1,0,,,,,,,,,,,,,,,,switch,letter,lettSwt,k,Hi,,,,,,0.9992,2,,,,,,,,high,20,0,20,0,1,,,,,,,,,
297733,2022-11-28_17h17.21.870,vts_reward_expectancy_bt,2022.2.4,MacIntel,60.0024001,Chrome,1440,900,,,,,0,787,,,,,,,,,,,,,,,,,146,F,circle,0,0,,,,,,,,,,,,,,,,repeat,letter,NA,k,Hi,,,,,,2.0036,2,,,,,,,,high,21,0,21,0,1,,,,,,,,,
297733,2022-11-28_17h17.21.870,vts_reward_expectancy_bt,2022.2.4,MacIntel,60.0024001,Chrome,1440,900,,,,,1,788,,,,,,,,,,,,,,,,,160,D,hexagon,1,1,,,,,,,,,,,,,,,,repeat,letter,lettRpt,j,Lo,,,,,,1.839,2,,,,,,,,high,22,0,22,0,1,,,,,,,,,
297733,2022-11-28_17h17.21.870,vts_reward_expectancy_bt,2022.2.4,MacIntel,60.0024001,Chrome,1440,900,,,,,0,788,,,,,,,,,,,,,,,,,132,Y,triangle,0,0,,,,,,,,,,,,,,,,repeat,letter,NA,j,Lo,,,,,,2.6319,2,,,,,,,,high,23,0,23,0,1,,,,,,,,,
297733,2022-11-28_17h17.21.870,vts_reward_expectancy_bt,2022.2.4,MacIntel,60.0024001,Chrome,1440,900,,,,,1,789,,,,,,,,,,,,,,,,,174,D,triangle,1,1,,,,,,,,,,,,,,,,switch,number,numSwt,f,Lo,,,,,,1.0227,2,,,,,,,,high,24,0,24,0,1,,,,,,,,,
297733,2022-11-28_17h17.21.870,vts_reward_expectancy_bt,2022.2.4,MacIntel,60.0024001,Chrome,1440,900,,,,,1,790,,,,,,,,,,,,,,,,,160,F,hexagon,1,0,,,,,,,,,,,,,,,,switch,letter,lettSwt,j,Lo,,,,,,2.7992,2,,,,,,,,high,25,0,25,0,1,,,,,,,,,
297733,2022-11-28_17h17.21.870,vts_reward_expectancy_bt,2022.2.4,MacIntel,60.0024001,Chrome,1440,900,,,,,10,800,,,,,,,,,,,,,,,,,167,W,circle,1,0,,,,,,,,,,,,,,,,repeat,letter,lettRpt,k,Hi,,,,,,0.8831,2,,,,,,,,high,26,0,26,0,1,,,,,,,,,
297733,2022-11-28_17h17.21.870,vts_reward_expectancy_bt,2022.2.4,MacIntel,60.0024001,Chrome,1440,900,,,,,0,800,,,,,,,,,,,,,,,,,146,S,star,1,0,,,,,,,,,,,,,,,,switch,number,numSwt,d,Hi,,,,,,2.5883,2,,,,,,,,high,27,0,27,0,1,,,,,,,,,
297733,2022-11-28_17h17.21.870,vts_reward_expectancy_bt,2022.2.4,MacIntel,60.0024001,Chrome,1440,900,,,,,10,810,,,,,,,,,,,,,,,,,125,H,hexagon,1,0,,,,,,,,,,,,,,,,switch,letter,lettSwt,j,Lo,,,,,,1.9049,2,,,,,,,,high,28,0,28,0,1,,,,,,,,,
297733,2022-11-28_17h17.21.870,vts_reward_expectancy_bt,2022.2.4,MacIntel,60.0024001,Chrome,1440,900,,,,,1,811,,,,,,,,,,,,,,,,,139,U,triangle,1,0,,,,,,,,,,,,,,,,switch,number,numSwt,d,Lo,,,,,,0.794,2,,,,,,,,high,29,0,29,0,1,,,,,,,,,
297733,2022-11-28_17h17.21.870,vts_reward_expectancy_bt,2022.2.4,MacIntel,60.0024001,Chrome,1440,900,,,,,0,811,,,,,,,,,,,,,,,,,132,B,star,1,0,,,,,,,,,,,,,,,,switch,letter,lettSwt,j,Hi,,,,,,1.223,2,,,,,,,,high,30,0,30,0,1,,,,,,,,,
297733,2022-11-28_17h17.21.870,vts_reward_expectancy_bt,2022.2.4,MacIntel,60.0024001,Chrome,1440,900,,,,,0,811,,,,,,,,,,,,,,,,,181,Y,circle,-1,0,,,,,,,,,,,,,,,,switch,no_choice,NA,,Hi,,,,,,,2,,,,,,,,high,31,0,31,0,1,,,,,,,,,
297733,2022-11-28_17h17.21.870,vts_reward_expectancy_bt,2022.2.4,MacIntel,60.0024001,Chrome,1440,900,,,,,0,811,,,,,,,,,,,,,,,,,167,F,circle,1,0,,,,,,,,,,,,,,,,switch,letter,lettSwt,j,Hi,,,,,,1.3932,3,,,,,,space,2.7122,high,0,0,0,0,1,,,,,,,,,
297733,2022-11-28_17h17.21.870,vts_reward_expectancy_bt,2022.2.4,MacIntel,60.0024001,Chrome,1440,900,,,,,1,812,,,,,,,,,,,,,,,,,125,W,star,1,0,,,,,,,,,,,,,,,,switch,number,numSwt,d,Hi,,,,,,0.4936,3,,,,,,,,high,1,0,1,0,1,,,,,,,,,
297733,2022-11-28_17h17.21.870,vts_reward_expectancy_bt,2022.2.4,MacIntel,60.0024001,Chrome,1440,900,,,,,1,813,,,,,,,,,,,,,,,,,174,D,hexagon,1,0,,,,,,,,,,,,,,,,switch,letter,lettSwt,j,Lo,,,,,,0.6202,3,,,,,,,,high,2,0,2,0,1,,,,,,,,,
297733,2022-11-28_17h17.21.870,vts_reward_expectancy_bt,2022.2.4,MacIntel,60.0024001,Chrome,1440,900,,,,,0,813,,,,,,,,,,,,,,,,,181,S,triangle,0,0,,,,,,,,,,,,,,,,switch,number,NA,d,Lo,,,,,,1.5149,3,,,,,,,,high,3,0,3,0,1,,,,,,,,,
297733,2022-11-28_17h17.21.870,vts_reward_expectancy_bt,2022.2.4,MacIntel,60.0024001,Chrome,1440,900,,,,,0,813,,,,,,,,,,,,,,,,,132,B,circle,0,1,,,,,,,,,,,,,,,,repeat,number,NA,f,Lo,,,,,,1.0818,3,,,,,,,,high,4,0,4,0,1,,,,,,,,,
297733,2022-11-28_17h17.21.870,vts_reward_expectancy_bt,2022.2.4,MacIntel,60.0024001,Chrome,1440,900,,,,,0,813,,,,,,,,,,,,,,,,,160,U,star,0,1,,,,,,,,,,,,,,,,switch,letter,NA,j,Lo,,,,,,1.853,3,,,,,,,,high,5,0,5,0,1,,,,,,,,,
297733,2022-11-28_17h17.21.870,vts_reward_expectancy_bt,2022.2.4,MacIntel,60.0024001,Chrome,1440,900,,,,,0,813,,,,,,,,,,,,,,,,,139,Y,hexagon,0,1,,,,,,,,,,,,,,,,switch,number,NA,f,Lo,,,,,,1.7135,3,,,,,,,,high,6,0,6,0,1,,,,,,,,,
297733,2022-11-28_17h17.21.870,vts_reward_expectancy_bt,2022.2.4,MacIntel,60.0024001,Chrome,1440,900,,,,,10,823,,,,,,,,,,,,,,,,,146,H,triangle,1,1,,,,,,,,,,,,,,,,repeat,number,numRpt,d,Lo,,,,,,1.6168,3,,,,,,,,high,7,0,7,0,1,,,,,,,,,
297733,2022-11-28_17h17.21.870,vts_reward_expectancy_bt,2022.2.4,MacIntel,60.0024001,Chrome,1440,900,,,,,0,823,,,,,,,,,,,,,,,,,167,F,star,1,0,,,,,,,,,,,,,,,,repeat,number,numRpt,f,Hi,,,,,,1.448,3,,,,,,,,high,8,0,8,0,1,,,,,,,,,
297733,2022-11-28_17h17.21.870,vts_reward_expectancy_bt,2022.2.4,MacIntel,60.0024001,Chrome,1440,900,,,,,1,824,,,,,,,,,,,,,,,,,125,W,triangle,1,0,,,,,,,,,,,,,,,,repeat,number,numRpt,d,Lo,,,,,,0.5668,3,,,,,,,,high,9,0,9,0,1,,,,,,,,,
297733,2022-11-28_17h17.21.870,vts_reward_expectancy_bt,2022.2.4,MacIntel,60.0024001,Chrome,1440,900,,,,,1,825,,,,,,,,,,,,,,,,,174,D,hexagon,1,0,,,,,,,,,,,,,,,,switch,letter,lettSwt,j,Lo,,,,,,2.4806,3,,,,,,,,high,10,0,10,0,1,,,,,,,,,
297733,2022-11-28_17h17.21.870,vts_reward_expectancy_bt,2022.2.4,MacIntel,60.0024001,Chrome,1440,900,,,,,0,825,,,,,,,,,,,,,,,,,181,S,circle,1,0,,,,,,,,,,,,,,,,repeat,letter,lettRpt,k,Hi,,,,,,1.2766,3,,,,,,,,high,11,0,11,0,1,,,,,,,,,
297733,2022-11-28_17h17.21.870,vts_reward_expectancy_bt,2022.2.4,MacIntel,60.0024001,Chrome,1440,900,,,,,0,825,,,,,,,,,,,,,,,,,132,B,triangle,0,0,,,,,,,,,,,,,,,,switch,number,NA,f,Hi,,,,,,1.1772,3,,,,,,,,high,12,0,12,0,1,,,,,,,,,
297733,2022-11-28_17h17.21.870,vts_reward_expectancy_bt,2022.2.4,MacIntel,60.0024001,Chrome,1440,900,,,,,1,826,,,,,,,,,,,,,,,,,160,U,circle,1,1,,,,,,,,,,,,,,,,switch,letter,lettSwt,k,Hi,,,,,,0.5871,3,,,,,,,,high,13,0,13,0,1,,,,,,,,,
297733,2022-11-28_17h17.21.870,vts_reward_expectancy_bt,2022.2.4,MacIntel,60.0024001,Chrome,1440,900,,,,,0,826,,,,,,,,,,,,,,,,,139,Y,star,1,0,,,,,,,,,,,,,,,,switch,number,numSwt,d,Hi,,,,,,0.8365,3,,,,,,,,high,14,0,14,0,1,,,,,,,,,
297733,2022-11-28_17h17.21.870,vts_reward_expectancy_bt,2022.2.4,MacIntel,60.0024001,Chrome,1440,900,,,,,1,827,,,,,,,,,,,,,,,,,146,H,hexagon,1,0,,,,,,,,,,,,,,,,switch,letter,lettSwt,j,Lo,,,,,,0.7737,3,,,,,,,,high,15,0,15,0,1,,,,,,,,,
297733,2022-11-28_17h17.21.870,vts_reward_expectancy_bt,2022.2.4,MacIntel,60.0024001,Chrome,1440,900,,,,,0,827,,,,,,,,,,,,,,,,,174,D,circle,1,0,,,,,,,,,,,,,,,,repeat,letter,lettRpt,j,Hi,,,,,,1.082,3,,,,,,,,high,16,0,16,0,1,,,,,,,,,
297733,2022-11-28_17h17.21.870,vts_reward_expectancy_bt,2022.2.4,MacIntel,60.0024001,Chrome,1440,900,,,,,10,837,,,,,,,,,,,,,,,,,160,Y,triangle,1,0,,,,,,,,,,,,,,,,switch,number,numSwt,f,Lo,,,,,,1.498,3,,,,,,,,high,17,0,17,0,1,,,,,,,,,
297733,2022-11-28_17h17.21.870,vts_reward_expectancy_bt,2022.2.4,MacIntel,60.0024001,Chrome,1440,900,,,,,0,837,,,,,,,,,,,,,,,,,167,S,star,1,0,,,,,,,,,,,,,,,,switch,letter,lettSwt,k,Hi,,,,,,1.7181,3,,,,,,,,high,18,0,18,0,1,,,,,,,,,
297733,2022-11-28_17h17.21.870,vts_reward_expectancy_bt,2022.2.4,MacIntel,60.0024001,Chrome,1440,900,,,,,1,838,,,,,,,,,,,,,,,,,181,B,hexagon,1,0,,,,,,,,,,,,,,,,repeat,letter,lettRpt,j,Lo,,,,,,1.3831,3,,,,,,,,high,19,0,19,0,1,,,,,,,,,
297733,2022-11-28_17h17.21.870,vts_reward_expectancy_bt,2022.2.4,MacIntel,60.0024001,Chrome,1440,900,,,,,0,838,,,,,,,,,,,,,,,,,139,H,star,1,0,,,,,,,,,,,,,,,,switch,number,numSwt,d,Hi,,,,,,1.3392,3,,,,,,,,high,20,0,20,0,1,,,,,,,,,
297733,2022-11-28_17h17.21.870,vts_reward_expectancy_bt,2022.2.4,MacIntel,60.0024001,Chrome,1440,900,,,,,1,839,,,,,,,,,,,,,,,,,132,W,hexagon,1,0,,,,,,,,,,,,,,,,repeat,number,numRpt,d,Lo,,,,,,1.0993,3,,,,,,,,high,21,0,21,0,1,,,,,,,,,
297733,2022-11-28_17h17.21.870,vts_reward_expectancy_bt,2022.2.4,MacIntel,60.0024001,Chrome,1440,900,,,,,0,839,,,,,,,,,,,,,,,,,125,U,circle,1,0,,,,,,,,,,,,,,,,switch,letter,lettSwt,k,Hi,,,,,,1.0804,3,,,,,,,,high,22,0,22,0,1,,,,,,,,,
297733,2022-11-28_17h17.21.870,vts_reward_expectancy_bt,2022.2.4,MacIntel,60.0024001,Chrome,1440,900,,,,,0,839,,,,,,,,,,,,,,,,,146,F,triangle,-1,0,,,,,,,,,,,,,,,,switch,no_choice,NA,,Hi,,,,,,,3,,,,,,,,high,23,0,23,0,1,,,,,,,,,
297733,2022-11-28_17h17.21.870,vts_reward_expectancy_bt,2022.2.4,MacIntel,60.0024001,Chrome,1440,900,,,,,0,839,,,,,,,,,,,,,,,,,132,Y,circle,1,0,,,,,,,,,,,,,,,,switch,letter,lettSwt,k,Hi,,,,,,1.6167,3,,,,,,,,high,24,0,24,0,1,,,,,,,,,
297733,2022-11-28_17h17.21.870,vts_reward_expectancy_bt,2022.2.4,MacIntel,60.0024001,Chrome,1440,900,,,,,0,839,,,,,,,,,,,,,,,,,125,H,star,1,0,,,,,,,,,,,,,,,,switch,number,numSwt,d,Hi,,,,,,2.5957,3,,,,,,,,high,25,0,25,0,1,,,,,,,,,
297733,2022-11-28_17h17.21.870,vts_reward_expectancy_bt,2022.2.4,MacIntel,60.0024001,Chrome,1440,900,,,,,0,839,,,,,,,,,,,,,,,,,146,S,triangle,-1,0,,,,,,,,,,,,,,,,switch,no_choice,NA,,Hi,,,,,,,3,,,,,,,,high,26,0,26,0,1,,,,,,,,,
297733,2022-11-28_17h17.21.870,vts_reward_expectancy_bt,2022.2.4,MacIntel,60.0024001,Chrome,1440,900,,,,,1,840,,,,,,,,,,,,,,,,,174,W,hexagon,1,0,,,,,,,,,,,,,,,,switch,number,numSwt,f,Lo,,,,,,2.8543,3,,,,,,,,high,27,0,27,0,1,,,,,,,,,
297733,2022-11-28_17h17.21.870,vts_reward_expectancy_bt,2022.2.4,MacIntel,60.0024001,Chrome,1440,900,,,,,0,840,,,,,,,,,,,,,,,,,139,U,circle,1,0,,,,,,,,,,,,,,,,switch,letter,lettSwt,k,Hi,,,,,,0.8882,3,,,,,,,,high,28,0,28,0,1,,,,,,,,,
297733,2022-11-28_17h17.21.870,vts_reward_expectancy_bt,2022.2.4,MacIntel,60.0024001,Chrome,1440,900,,,,,0,840,,,,,,,,,,,,,,,,,167,D,star,1,0,,,,,,,,,,,,,,,,repeat,letter,lettRpt,j,Hi,,,,,,0.9847,3,,,,,,,,high,29,0,29,0,1,,,,,,,,,
297733,2022-11-28_17h17.21.870,vts_reward_expectancy_bt,2022.2.4,MacIntel,60.0024001,Chrome,1440,900,,,,,10,850,,,,,,,,,,,,,,,,,181,B,triangle,1,0,,,,,,,,,,,,,,,,repeat,letter,lettRpt,j,Lo,,,,,,0.6829,3,,,,,,,,high,30,0,30,0,1,,,,,,,,,
297733,2022-11-28_17h17.21.870,vts_reward_expectancy_bt,2022.2.4,MacIntel,60.0024001,Chrome,1440,900,,,,,1,851,,,,,,,,,,,,,,,,,160,F,hexagon,1,0,,,,,,,,,,,,,,,,switch,number,numSwt,f,Lo,,,,,,1.5949,3,,,,,,,,high,31,0,31,0,1,,,,,,,,,
297733,2022-11-28_17h17.21.870,vts_reward_expectancy_bt,2022.2.4,MacIntel,60.0024001,Chrome,1440,900,,,,,0,851,,,,,,,,,,,,,,,,,146,D,star,-1,0,,,,,,,,,,,,,,,,switch,no_choice,NA,,Lo,,,,,,,4,,,,,,space,5.405,high,0,0,0,0,1,,,,,,,,,
297733,2022-11-28_17h17.21.870,vts_reward_expectancy_bt,2022.2.4,MacIntel,60.0024001,Chrome,1440,900,,,,,1,852,,,,,,,,,,,,,,,,,160,U,hexagon,1,0,,,,,,,,,,,,,,,,switch,number,numSwt,f,Lo,,,,,,0.5423,4,,,,,,,,high,1,0,1,0,1,,,,,,,,,
297733,2022-11-28_17h17.21.870,vts_reward_expectancy_bt,2022.2.4,MacIntel,60.0024001,Chrome,1440,900,,,,,10,862,,,,,,,,,,,,,,,,,139,W,circle,1,0,,,,,,,,,,,,,,,,switch,letter,lettSwt,k,Hi,,,,,,0.5458,4,,,,,,,,high,2,0,2,0,1,,,,,,,,,
297733,2022-11-28_17h17.21.870,vts_reward_expectancy_bt,2022.2.4,MacIntel,60.0024001,Chrome,1440,900,,,,,0,862,,,,,,,,,,,,,,,,,181,Y,triangle,0,0,,,,,,,,,,,,,,,,switch,number,NA,d,Hi,,,,,,0.5714,4,,,,,,,,high,3,0,3,0,1,,,,,,,,,
297733,2022-11-28_17h17.21.870,vts_reward_expectancy_bt,2022.2.4,MacIntel,60.0024001,Chrome,1440,900,,,,,10,872,,,,,,,,,,,,,,,,,167,S,star,1,1,,,,,,,,,,,,,,,,repeat,number,numRpt,f,Hi,,,,,,0.6041,4,,,,,,,,high,4,0,4,0,1,,,,,,,,,
297733,2022-11-28_17h17.21.870,vts_reward_expectancy_bt,2022.2.4,MacIntel,60.0024001,Chrome,1440,900,,,,,1,873,,,,,,,,,,,,,,,,,132,H,hexagon,1,0,,,,,,,,,,,,,,,,repeat,number,numRpt,d,Lo,,,,,,0.7986,4,,,,,,,,high,5,0,5,0,1,,,,,,,,,
297733,2022-11-28_17h17.21.870,vts_reward_expectancy_bt,2022.2.4,MacIntel,60.0024001,Chrome,1440,900,,,,,10,883,,,,,,,,,,,,,,,,,125,F,circle,1,0,,,,,,,,,,,,,,,,switch,letter,lettSwt,j,Hi,,,,,,0.6152,4,,,,,,,,high,6,0,6,0,1,,,,,,,,,
297733,2022-11-28_17h17.21.870,vts_reward_expectancy_bt,2022.2.4,MacIntel,60.0024001,Chrome,1440,900,,,,,1,884,,,,,,,,,,,,,,,,,174,B,triangle,1,0,,,,,,,,,,,,,,,,switch,number,numSwt,f,Lo,,,,,,1.0511,4,,,,,,,,high,7,0,7,0,1,,,,,,,,,
297733,2022-11-28_17h17.21.870,vts_reward_expectancy_bt,2022.2.4,MacIntel,60.0024001,Chrome,1440,900,,,,,1,885,,,,,,,,,,,,,,,,,146,D,hexagon,1,0,,,,,,,,,,,,,,,,repeat,number,numRpt,d,Lo,,,,,,1.0608,4,,,,,,,,high,8,0,8,0,1,,,,,,,,,
297733,2022-11-28_17h17.21.870,vts_reward_expectancy_bt,2022.2.4,MacIntel,60.0024001,Chrome,1440,900,,,,,10,895,,,,,,,,,,,,,,,,,160,U,star,1,0,,,,,,,,,,,,,,,,repeat,number,numRpt,f,Hi,,,,,,0.7637,4,,,,,,,,high,9,0,9,0,1,,,,,,,,,
297733,2022-11-28_17h17.21.870,vts_reward_expectancy_bt,2022.2.4,MacIntel,60.0024001,Chrome,1440,900,,,,,1,896,,,,,,,,,,,,,,,,,139,W,triangle,1,0,,,,,,,,,,,,,,,,repeat,number,numRpt,d,Lo,,,,,,0.6859,4,,,,,,,,high,10,0,10,0,1,,,,,,,,,
297733,2022-11-28_17h17.21.870,vts_reward_expectancy_bt,2022.2.4,MacIntel,60.0024001,Chrome,1440,900,,,,,0,896,,,,,,,,,,,,,,,,,181,Y,circle,1,0,,,,,,,,,,,,,,,,switch,letter,lettSwt,k,Hi,,,,,,1.2677,4,,,,,,,,high,11,0,11,0,1,,,,,,,,,
297733,2022-11-28_17h17.21.870,vts_reward_expectancy_bt,2022.2.4,MacIntel,60.0024001,Chrome,1440,900,,,,,10,906,,,,,,,,,,,,,,,,,167,S,circle,1,0,,,,,,,,,,,,,,,,switch,number,numSwt,f,Hi,,,,,,1.2842,4,,,,,,,,high,12,0,12,0,1,,,,,,,,,
297733,2022-11-28_17h17.21.870,vts_reward_expectancy_bt,2022.2.4,MacIntel,60.0024001,Chrome,1440,900,,,,,10,916,,,,,,,,,,,,,,,,,132,H,star,1,0,,,,,,,,,,,,,,,,repeat,number,numRpt,d,Hi,,,,,,0.7996,4,,,,,,,,high,13,0,13,0,1,,,,,,,,,
297733,2022-11-28_17h17.21.870,vts_reward_expectancy_bt,2022.2.4,MacIntel,60.0024001,Chrome,1440,900,,,,,1,917,,,,,,,,,,,,,,,,,125,F,hexagon,1,0,,,,,,,,,,,,,,,,repeat,number,numRpt,d,Lo,,,,,,0.7828,4,,,,,,,,high,14,0,14,0,1,,,,,,,,,
297733,2022-11-28_17h17.21.870,vts_reward_expectancy_bt,2022.2.4,MacIntel,60.0024001,Chrome,1440,900,,,,,1,918,,,,,,,,,,,,,,,,,174,B,triangle,1,0,,,,,,,,,,,,,,,,repeat,number,numRpt,f,Lo,,,,,,1.3161,4,,,,,,,,high,15,0,15,0,1,,,,,,,,,
297733,2022-11-28_17h17.21.870,vts_reward_expectancy_bt,2022.2.4,MacIntel,60.0024001,Chrome,1440,900,,,,,1,919,,,,,,,,,,,,,,,,,181,Y,triangle,1,0,,,,,,,,,,,,,,,,repeat,number,numRpt,f,Lo,,,,,,0.7697,4,,,,,,,,high,16,0,16,0,1,,,,,,,,,
297733,2022-11-28_17h17.21.870,vts_reward_expectancy_bt,2022.2.4,MacIntel,60.0024001,Chrome,1440,900,,,,,0,919,,,,,,,,,,,,,,,,,160,B,star,1,0,,,,,,,,,,,,,,,,switch,letter,lettSwt,j,Hi,,,,,,1.2299,4,,,,,,,,high,17,0,17,0,1,,,,,,,,,
297733,2022-11-28_17h17.21.870,vts_reward_expectancy_bt,2022.2.4,MacIntel,60.0024001,Chrome,1440,900,,,,,10,929,,,,,,,,,,,,,,,,,132,D,circle,1,0,,,,,,,,,,,,,,,,repeat,letter,lettRpt,j,Hi,,,,,,0.7657,4,,,,,,,,high,18,0,18,0,1,,,,,,,,,
297733,2022-11-28_17h17.21.870,vts_reward_expectancy_bt,2022.2.4,MacIntel,60.0024001,Chrome,1440,900,,,,,1,930,,,,,,,,,,,,,,,,,167,F,hexagon,1,0,,,,,,,,,,,,,,,,switch,number,numSwt,f,Lo,,,,,,1.1992,4,,,,,,,,high,19,0,19,0,1,,,,,,,,,
297733,2022-11-28_17h17.21.870,vts_reward_expectancy_bt,2022.2.4,MacIntel,60.0024001,Chrome,1440,900,,,,,0,930,,,,,,,,,,,,,,,,,139,W,star,0,0,,,,,,,,,,,,,,,,switch,letter,NA,j,Lo,,,,,,0.7165,4,,,,,,,,high,20,0,20,0,1,,,,,,,,,
297733,2022-11-28_17h17.21.870,vts_reward_expectancy_bt,2022.2.4,MacIntel,60.0024001,Chrome,1440,900,,,,,0,930,,,,,,,,,,,,,,,,,146,H,hexagon,0,1,,,,,,,,,,,,,,,,switch,number,NA,f,Lo,,,,,,0.8817,4,,,,,,,,high,21,0,21,0,1,,,,,,,,,
297733,2022-11-28_17h17.21.870,vts_reward_expectancy_bt,2022.2.4,MacIntel,60.0024001,Chrome,1440,900,,,,,10,940,,,,,,,,,,,,,,,,,125,S,triangle,1,1,,,,,,,,,,,,,,,,repeat,number,numRpt,d,Lo,,,,,,0.9654,4,,,,,,,,high,22,0,22,0,1,,,,,,,,,
297733,2022-11-28_17h17.21.870,vts_reward_expectancy_bt,2022.2.4,MacIntel,60.0024001,Chrome,1440,900,,,,,0,940,,,,,,,,,,,,,,,,,174,U,circle,1,0,,,,,,,,,,,,,,,,switch,letter,lettSwt,k,Hi,,,,,,0.9323,4,,,,,,,,high,23,0,23,0,1,,,,,,,,,
297733,2022-11-28_17h17.21.870,vts_reward_expectancy_bt,2022.2.4,MacIntel,60.0024001,Chrome,1440,900,,,,,10,950,,,,,,,,,,,,,,,,,174,D,star,1,0,,,,,,,,,,,,,,,,switch,number,numSwt,f,Hi,,,,,,0.7162,4,,,,,,,,high,24,0,24,0,1,,,,,,,,,
297733,2022-11-28_17h17.21.870,vts_reward_expectancy_bt,2022.2.4,MacIntel,60.0024001,Chrome,1440,900,,,,,0,950,,,,,,,,,,,,,,,,,139,W,triangle,-1,0,,,,,,,,,,,,,,,,switch,no_choice,NA,,Hi,,,,,,,4,,,,,,,,high,25,0,25,0,1,,,,,,,,,
297733,2022-11-28_17h17.21.870,vts_reward_expectancy_bt,2022.2.4,MacIntel,60.0024001,Chrome,1440,900,,,,,0,950,,,,,,,,,,,,,,,,,181,U,hexagon,-1,0,,,,,,,,,,,,,,,,repeat,no_choice,NA,,Hi,,,,,,,4,,,,,,,,high,26,0,26,0,1,,,,,,,,,
297733,2022-11-28_17h17.21.870,vts_reward_expectancy_bt,2022.2.4,MacIntel,60.0024001,Chrome,1440,900,,,,,0,950,,,,,,,,,,,,,,,,,132,Y,circle,0,0,,,,,,,,,,,,,,,,switch,letter,NA,j,Hi,,,,,,2.3107,4,,,,,,,,high,27,0,27,0,1,,,,,,,,,
297733,2022-11-28_17h17.21.870,vts_reward_expectancy_bt,2022.2.4,MacIntel,60.0024001,Chrome,1440,900,,,,,10,960,,,,,,,,,,,,,,,,,160,H,circle,1,1,,,,,,,,,,,,,,,,switch,number,numSwt,f,Hi,,,,,,1.1795,4,,,,,,,,high,28,0,28,0,1,,,,,,,,,
297733,2022-11-28_17h17.21.870,vts_reward_expectancy_bt,2022.2.4,MacIntel,60.0024001,Chrome,1440,900,,,,,0,960,,,,,,,,,,,,,,,,,146,S,star,1,0,,,,,,,,,,,,,,,,repeat,number,numRpt,d,Hi,,,,,,2.1042,4,,,,,,,,high,29,0,29,0,1,,,,,,,,,
297733,2022-11-28_17h17.21.870,vts_reward_expectancy_bt,2022.2.4,MacIntel,60.0024001,Chrome,1440,900,,,,,1,961,,,,,,,,,,,,,,,,,167,B,triangle,1,0,,,,,,,,,,,,,,,,repeat,number,numRpt,f,Lo,,,,,,1.4563,4,,,,,,,,high,30,0,30,0,1,,,,,,,,,
297733,2022-11-28_17h17.21.870,vts_reward_expectancy_bt,2022.2.4,MacIntel,60.0024001,Chrome,1440,900,,,,,1,962,,,,,,,,,,,,,,,,,125,F,hexagon,1,0,,,,,,,,,,,,,,,,switch,letter,lettSwt,j,Lo,,,,,,1.1816,4,,,,,,,,high,31,0,31,0,1,,,,,,,,,
297733,2022-11-28_17h17.21.870,vts_reward_expectancy_bt,2022.2.4,MacIntel,60.0024001,Chrome,1440,900,,,,,10,972,,,,,,,,,,,,,,,,,146,Y,triangle,1,0,,,,,,,,,,,,,,,,switch,number,numSwt,d,Lo,,,,,,1.562,5,,,,,,space,354.2203,high,0,0,0,0,1,,,,,,,,,
297733,2022-11-28_17h17.21.870,vts_reward_expectancy_bt,2022.2.4,MacIntel,60.0024001,Chrome,1440,900,,,,,1,973,,,,,,,,,,,,,,,,,160,D,circle,1,0,,,,,,,,,,,,,,,,switch,letter,lettSwt,j,Hi,,,,,,0.6526,5,,,,,,,,high,1,0,1,0,1,,,,,,,,,
297733,2022-11-28_17h17.21.870,vts_reward_expectancy_bt,2022.2.4,MacIntel,60.0024001,Chrome,1440,900,,,,,0,973,,,,,,,,,,,,,,,,,125,S,star,1,0,,,,,,,,,,,,,,,,repeat,letter,lettRpt,k,Hi,,,,,,1.0131,5,,,,,,,,high,2,0,2,0,1,,,,,,,,,
297733,2022-11-28_17h17.21.870,vts_reward_expectancy_bt,2022.2.4,MacIntel,60.0024001,Chrome,1440,900,,,,,10,983,,,,,,,,,,,,,,,,,132,B,hexagon,1,0,,,,,,,,,,,,,,,,switch,number,numSwt,d,Lo,,,,,,0.9163,5,,,,,,,,high,3,0,3,0,1,,,,,,,,,
297733,2022-11-28_17h17.21.870,vts_reward_expectancy_bt,2022.2.4,MacIntel,60.0024001,Chrome,1440,900,,,,,1,984,,,,,,,,,,,,,,,,,167,U,triangle,1,0,,,,,,,,,,,,,,,,repeat,number,numRpt,f,Lo,,,,,,1.4756,5,,,,,,,,high,4,0,4,0,1,,,,,,,,,
297733,2022-11-28_17h17.21.870,vts_reward_expectancy_bt,2022.2.4,MacIntel,60.0024001,Chrome,1440,900,,,,,0,984,,,,,,,,,,,,,,,,,174,F,circle,1,0,,,,,,,,,,,,,,,,repeat,number,numRpt,f,Hi,,,,,,1.066,5,,,,,,,,high,5,0,5,0,1,,,,,,,,,
297733,2022-11-28_17h17.21.870,vts_reward_expectancy_bt,2022.2.4,MacIntel,60.0024001,Chrome,1440,900,,,,,0,984,,,,,,,,,,,,,,,,,139,H,star,1,0,,,,,,,,,,,,,,,,repeat,number,numRpt,d,Hi,,,,,,0.8758,5,,,,,,,,high,6,0,6,0,1,,,,,,,,,
297733,2022-11-28_17h17.21.870,vts_reward_expectancy_bt,2022.2.4,MacIntel,60.0024001,Chrome,1440,900,,,,,1,985,,,,,,,,,,,,,,,,,181,W,hexagon,1,0,,,,,,,,,,,,,,,,repeat,number,numRpt,f,Lo,,,,,,1.0101,5,,,,,,,,high,7,0,7,0,1,,,,,,,,,
297733,2022-11-28_17h17.21.870,vts_reward_expectancy_bt,2022.2.4,MacIntel,60.0024001,Chrome,1440,900,,,,,1,986,,,,,,,,,,,,,,,,,146,Y,hexagon,1,0,,,,,,,,,,,,,,,,switch,letter,lettSwt,k,Lo,,,,,,2.1264,5,,,,,,,,high,8,0,8,0,1,,,,,,,,,
297733,2022-11-28_17h17.21.870,vts_reward_expectancy_bt,2022.2.4,MacIntel,60.0024001,Chrome,1440,900,,,,,1,987,,,,,,,,,,,,,,,,,160,D,triangle,1,0,,,,,,,,,,,,,,,,switch,number,numSwt,f,Lo,,,,,,0.932,5,,,,,,,,high,9,0,9,0,1,,,,,,,,,
297733,2022-11-28_17h17.21.870,vts_reward_expectancy_bt,2022.2.4,MacIntel,60.0024001,Chrome,1440,900,,,,,0,987,,,,,,,,,,,,,,,,,125,S,circle,0,0,,,,,,,,,,,,,,,,switch,letter,NA,j,Lo,,,,,,0.9112,5,,,,,,,,high,10,0,10,0,1,,,,,,,,,
297733,2022-11-28_17h17.21.870,vts_reward_expectancy_bt,2022.2.4,MacIntel,60.0024001,Chrome,1440,900,,,,,0,987,,,,,,,,,,,,,,,,,132,B,star,1,1,,,,,,,,,,,,,,,,repeat,letter,lettRpt,j,Hi,,,,,,1.646,5,,,,,,,,high,11,0,11,0,1,,,,,,,,,
297733,2022-11-28_17h17.21.870,vts_reward_expectancy_bt,2022.2.4,MacIntel,60.0024001,Chrome,1440,900,,,,,10,997,,,,,,,,,,,,,,,,,167,U,circle,1,0,,,,,,,,,,,,,,,,switch,number,numSwt,f,Hi,,,,,,0.7444,5,,,,,,,,high,12,0,12,0,1,,,,,,,,,
297733,2022-11-28_17h17.21.870,vts_reward_expectancy_bt,2022.2.4,MacIntel,60.0024001,Chrome,1440,900,,,,,10,1007,,,,,,,,,,,,,,,,,174,F,triangle,1,0,,,,,,,,,,,,,,,,repeat,number,numRpt,f,Lo,,,,,,0.8978,5,,,,,,,,high,13,0,13,0,1,,,,,,,,,
297733,2022-11-28_17h17.21.870,vts_reward_expectancy_bt,2022.2.4,MacIntel,60.0024001,Chrome,1440,900,,,,,0,1007,,,,,,,,,,,,,,,,,139,H,star,1,0,,,,,,,,,,,,,,,,repeat,number,numRpt,d,Hi,,,,,,0.9473,5,,,,,,,,high,14,0,14,0,1,,,,,,,,,
297733,2022-11-28_17h17.21.870,vts_reward_expectancy_bt,2022.2.4,MacIntel,60.0024001,Chrome,1440,900,,,,,1,1008,,,,,,,,,,,,,,,,,181,W,hexagon,1,0,,,,,,,,,,,,,,,,repeat,number,numRpt,f,Lo,,,,,,1.6023,5,,,,,,,,high,15,0,15,0,1,,,,,,,,,
297733,2022-11-28_17h17.21.870,vts_reward_expectancy_bt,2022.2.4,MacIntel,60.0024001,Chrome,1440,900,,,,,10,1018,,,,,,,,,,,,,,,,,160,B,triangle,1,0,,,,,,,,,,,,,,,,switch,letter,lettSwt,j,Lo,,,,,,1.835,5,,,,,,,,high,16,0,16,0,1,,,,,,,,,
297733,2022-11-28_17h17.21.870,vts_reward_expectancy_bt,2022.2.4,MacIntel,60.0024001,Chrome,1440,900,,,,,1,1019,,,,,,,,,,,,,,,,,146,D,hexagon,1,0,,,,,,,,,,,,,,,,switch,number,numSwt,d,Lo,,,,,,0.9439,5,,,,,,,,high,17,0,17,0,1,,,,,,,,,
297733,2022-11-28_17h17.21.870,vts_reward_expectancy_bt,2022.2.4,MacIntel,60.0024001,Chrome,1440,900,,,,,0,1019,,,,,,,,,,,,,,,,,174,Y,star,1,0,,,,,,,,,,,,,,,,repeat,number,numRpt,f,Hi,,,,,,0.9146,5,,,,,,,,high,18,0,18,0,1,,,,,,,,,
297733,2022-11-28_17h17.21.870,vts_reward_expectancy_bt,2022.2.4,MacIntel,60.0024001,Chrome,1440,900,,,,,0,1019,,,,,,,,,,,,,,,,,167,S,circle,1,0,,,,,,,,,,,,,,,,switch,letter,lettSwt,k,Hi,,,,,,1.9726,5,,,,,,,,high,19,0,19,0,1,,,,,,,,,
297733,2022-11-28_17h17.21.870,vts_reward_expectancy_bt,2022.2.4,MacIntel,60.0024001,Chrome,1440,900,,,,,10,1029,,,,,,,,,,,,,,,,,125,W,hexagon,1,0,,,,,,,,,,,,,,,,switch,number,numSwt,d,Lo,,,,,,0.8753,5,,,,,,,,high,20,0,20,0,1,,,,,,,,,
297733,2022-11-28_17h17.21.870,vts_reward_expectancy_bt,2022.2.4,MacIntel,60.0024001,Chrome,1440,900,,,,,0,1029,,,,,,,,,,,,,,,,,181,U,star,1,0,,,,,,,,,,,,,,,,repeat,number,numRpt,f,Hi,,,,,,1.6431,5,,,,,,,,high,21,0,21,0,1,,,,,,,,,
297733,2022-11-28_17h17.21.870,vts_reward_expectancy_bt,2022.2.4,MacIntel,60.0024001,Chrome,1440,900,,,,,1,1030,,,,,,,,,,,,,,,,,132,F,triangle,1,0,,,,,,,,,,,,,,,,repeat,number,numRpt,d,Lo,,,,,,1.2758,5,,,,,,,,high,22,0,22,0,1,,,,,,,,,
297733,2022-11-28_17h17.21.870,vts_reward_expectancy_bt,2022.2.4,MacIntel,60.0024001,Chrome,1440,900,,,,,0,1030,,,,,,,,,,,,,,,,,139,H,circle,1,0,,,,,,,,,,,,,,,,switch,letter,lettSwt,j,Hi,,,,,,1.6217,5,,,,,,,,high,23,0,23,0,1,,,,,,,,,
297733,2022-11-28_17h17.21.870,vts_reward_expectancy_bt,2022.2.4,MacIntel,60.0024001,Chrome,1440,900,,,,,0,1030,,,,,,,,,,,,,,,,,181,D,star,1,0,,,,,,,,,,,,,,,,switch,number,numSwt,f,Hi,,,,,,0.9837,5,,,,,,,,high,24,0,24,0,1,,,,,,,,,
297733,2022-11-28_17h17.21.870,vts_reward_expectancy_bt,2022.2.4,MacIntel,60.0024001,Chrome,1440,900,,,,,1,1031,,,,,,,,,,,,,,,,,125,Y,triangle,1,0,,,,,,,,,,,,,,,,repeat,number,numRpt,d,Lo,,,,,,1.2654,5,,,,,,,,high,25,0,25,0,1,,,,,,,,,
297733,2022-11-28_17h17.21.870,vts_reward_expectancy_bt,2022.2.4,MacIntel,60.0024001,Chrome,1440,900,,,,,0,1031,,,,,,,,,,,,,,,,,174,W,circle,0,0,,,,,,,,,,,,,,,,switch,letter,NA,j,Lo,,,,,,1.2629,5,,,,,,,,high,26,0,26,0,1,,,,,,,,,
297733,2022-11-28_17h17.21.870,vts_reward_expectancy_bt,2022.2.4,MacIntel,60.0024001,Chrome,1440,900,,,,,1,1032,,,,,,,,,,,,,,,,,139,H,hexagon,1,1,,,,,,,,,,,,,,,,switch,number,numSwt,d,Lo,,,,,,0.9514,5,,,,,,,,high,27,0,27,0,1,,,,,,,,,
297733,2022-11-28_17h17.21.870,vts_reward_expectancy_bt,2022.2.4,MacIntel,60.0024001,Chrome,1440,900,,,,,0,1032,,,,,,,,,,,,,,,,,167,B,star,1,0,,,,,,,,,,,,,,,,repeat,number,numRpt,f,Hi,,,,,,0.9566,5,,,,,,,,high,28,0,28,0,1,,,,,,,,,
297733,2022-11-28_17h17.21.870,vts_reward_expectancy_bt,2022.2.4,MacIntel,60.0024001,Chrome,1440,900,,,,,0,1032,,,,,,,,,,,,,,,,,160,S,circle,1,0,,,,,,,,,,,,,,,,switch,letter,lettSwt,k,Hi,,,,,,1.4117,5,,,,,,,,high,29,0,29,0,1,,,,,,,,,
297733,2022-11-28_17h17.21.870,vts_reward_expectancy_bt,2022.2.4,MacIntel,60.0024001,Chrome,1440,900,,,,,1,1033,,,,,,,,,,,,,,,,,146,F,triangle,1,0,,,,,,,,,,,,,,,,switch,number,numSwt,d,Lo,,,,,,1.3754,5,,,,,,,,high,30,0,30,0,1,,,,,,,,,
297733,2022-11-28_17h17.21.870,vts_reward_expectancy_bt,2022.2.4,MacIntel,60.0024001,Chrome,1440,900,,,,,1,1034,,,,,,,,,,,,,,,,,132,U,hexagon,1,0,,,,,,,,,,,,,,,,repeat,number,numRpt,d,Lo,,,,,,1.8594,5,,,,,,,,high,31,0,31,0,1,,,,,,,,,
297733,2022-11-28_17h17.21.870,vts_reward_expectancy_bt,2022.2.4,MacIntel,60.0024001,Chrome,1440,900,,,,,1,1035,,,,,,,,,,,,,,,,,139,U,triangle,1,0,,,,,,,,,,,,,,,,switch,letter,lettSwt,k,Lo,,,,,,1.1776,6,,,,,,space,314.5396,high,0,0,0,0,1,,,,,,,,,
297733,2022-11-28_17h17.21.870,vts_reward_expectancy_bt,2022.2.4,MacIntel,60.0024001,Chrome,1440,900,,,,,10,1045,,,,,,,,,,,,,,,,,181,W,circle,1,0,,,,,,,,,,,,,,,,repeat,letter,lettRpt,k,Hi,,,,,,0.7935,6,,,,,,,,high,1,0,1,0,1,,,,,,,,,
297733,2022-11-28_17h17.21.870,vts_reward_expectancy_bt,2022.2.4,MacIntel,60.0024001,Chrome,1440,900,,,,,1,1046,,,,,,,,,,,,,,,,,174,H,star,1,0,,,,,,,,,,,,,,,,switch,number,numSwt,f,Hi,,,,,,0.8628,6,,,,,,,,high,2,0,2,0,1,,,,,,,,,
297733,2022-11-28_17h17.21.870,vts_reward_expectancy_bt,2022.2.4,MacIntel,60.0024001,Chrome,1440,900,,,,,1,1047,,,,,,,,,,,,,,,,,160,B,hexagon,1,0,,,,,,,,,,,,,,,,switch,letter,lettSwt,j,Lo,,,,,,1.0929,6,,,,,,,,high,3,0,3,0,1,,,,,,,,,
297733,2022-11-28_17h17.21.870,vts_reward_expectancy_bt,2022.2.4,MacIntel,60.0024001,Chrome,1440,900,,,,,1,1048,,,,,,,,,,,,,,,,,125,F,triangle,1,0,,,,,,,,,,,,,,,,repeat,letter,lettRpt,j,Lo,,,,,,0.8998,6,,,,,,,,high,4,0,4,0,1,,,,,,,,,
297733,2022-11-28_17h17.21.870,vts_reward_expectancy_bt,2022.2.4,MacIntel,60.0024001,Chrome,1440,900,,,,,0,1048,,,,,,,,,,,,,,,,,167,Y,circle,1,0,,,,,,,,,,,,,,,,repeat,letter,lettRpt,k,Hi,,,,,,1.2261,6,,,,,,,,high,5,0,5,0,1,,,,,,,,,
297733,2022-11-28_17h17.21.870,vts_reward_expectancy_bt,2022.2.4,MacIntel,60.0024001,Chrome,1440,900,,,,,10,1058,,,,,,,,,,,,,,,,,146,S,star,1,0,,,,,,,,,,,,,,,,switch,number,numSwt,d,Hi,,,,,,0.8379,6,,,,,,,,high,6,0,6,0,1,,,,,,,,,
297733,2022-11-28_17h17.21.870,vts_reward_expectancy_bt,2022.2.4,MacIntel,60.0024001,Chrome,1440,900,,,,,1,1059,,,,,,,,,,,,,,,,,132,D,hexagon,1,0,,,,,,,,,,,,,,,,switch,letter,lettSwt,j,Lo,,,,,,0.8021,6,,,,,,,,high,7,0,7,0,1,,,,,,,,,
297733,2022-11-28_17h17.21.870,vts_reward_expectancy_bt,2022.2.4,MacIntel,60.0024001,Chrome,1440,900,,,,,0,1059,,,,,,,,,,,,,,,,,139,U,circle,1,0,,,,,,,,,,,,,,,,repeat,letter,lettRpt,k,Hi,,,,,,1.2845,6,,,,,,,,high,8,0,8,0,1,,,,,,,,,
297733,2022-11-28_17h17.21.870,vts_reward_expectancy_bt,2022.2.4,MacIntel,60.0024001,Chrome,1440,900,,,,,1,1060,,,,,,,,,,,,,,,,,181,W,hexagon,1,0,,,,,,,,,,,,,,,,switch,number,numSwt,f,Lo,,,,,,0.7346,6,,,,,,,,high,9,0,9,0,1,,,,,,,,,
297733,2022-11-28_17h17.21.870,vts_reward_expectancy_bt,2022.2.4,MacIntel,60.0024001,Chrome,1440,900,,,,,1,1061,,,,,,,,,,,,,,,,,174,H,star,1,0,,,,,,,,,,,,,,,,repeat,number,numRpt,f,Hi,,,,,,0.8297,6,,,,,,,,high,10,0,10,0,1,,,,,,,,,
297733,2022-11-28_17h17.21.870,vts_reward_expectancy_bt,2022.2.4,MacIntel,60.0024001,Chrome,1440,900,,,,,1,1062,,,,,,,,,,,,,,,,,160,B,triangle,1,0,,,,,,,,,,,,,,,,switch,letter,lettSwt,j,Lo,,,,,,1.043,6,,,,,,,,high,11,0,11,0,1,,,,,,,,,
297733,2022-11-28_17h17.21.870,vts_reward_expectancy_bt,2022.2.4,MacIntel,60.0024001,Chrome,1440,900,,,,,10,1072,,,,,,,,,,,,,,,,,125,F,star,1,0,,,,,,,,,,,,,,,,switch,number,numSwt,d,Hi,,,,,,0.8268,6,,,,,,,,high,12,0,12,0,1,,,,,,,,,
