participant,date,expName,psychopyVersion,OS,frameRate,browser,xResolution,yResolution,key_resp.keys,key_resp.rt,training_resp.keys,training_resp.rt,points_trial,points_cumul,trainBlock,training.thisRepN,training.thisTrialN,training.thisN,training.thisIndex,training.ran,LTriangleOpac,LCircleOpac,LHexagonOpac,LStarOpac,RTriangleOpac,RCircleOpac,RHexagonOpac,RStarOpac,LShape_ID,RShape_ID,curr_topStim,curr_bottStim,curr_shape,acc,E1,target_resp_prac1.keys,target_resp_prac1.rt,pracBlock,task1_prac_trials.thisRepN,task1_prac_trials.thisTrialN,task1_prac_trials.thisN,task1_prac_trials.thisIndex,task1_prac_trials.ran,target_resp_prac2.keys,target_resp_prac2.rt,task2_praac_trials.thisRepN,task2_praac_trials.thisTrialN,task2_praac_trials.thisN,task2_praac_trials.thisIndex,task2_praac_trials.ran,alt,task,condition,target_resp.keys,target_resp.rt,rewCond,vts_practice_trials.thisRepN,vts_practice_trials.thisTrialN,vts_practice_trials.thisN,vts_practice_trials.thisIndex,vts_practice_trials.ran,blockNum,trials_norew.thisRepN,trials_norew.thisTrialN,trials_norew.thisN,trials_norew.thisIndex,trials_norew.ran,key_resp_2.keys,key_resp_2.rt,rewExpectancy,trials_rew.thisRepN,trials_rew.thisTrialN,trials_rew.thisN,trials_rew.thisIndex,trials_rew.ran,Q1,Q2,Q2_text,Q3,Q4,Q5,Q5_text,xRes,yRes
297793,2022-12-05_24h13.34.892,vts_reward_expectancy_bt,2022.2.4,Win32,59.80503558,Chrome,1536,960,,,,,,,,,,,,,,,,,,,,,,,,,,,,,,,,,,,,,,,,,,,,,,,,,,,,,,,,,,,,,,,,,,,,,,,,,,,,
297793,2022-12-05_24h13.34.892,vts_reward_expectancy_bt,2022.2.4,Win32,59.80503558,Chrome,1536,960,space,17.7784,,,,,,,,,,,,,,,,,,,,,,,,,,,,,,,,,,,,,,,,,,,,,,,,,,,,,,,,,,,,,,,,,,,,,,,,,,
297793,2022-12-05_24h13.34.892,vts_reward_expectancy_bt,2022.2.4,Win32,59.80503558,Chrome,1536,960,,,,,,,,,,,,,,,,,,,,,,,,,,,,,,,,,,,,,,,,,,,,,,,,,,,,,,,,,,,,,,,,,,,,,,,,,,,,
297793,2022-12-05_24h13.34.892,vts_reward_expectancy_bt,2022.2.4,Win32,59.80503558,Chrome,1536,960,,,l,2.9296,10,10,0,0,0,0,8,1,0,0,1,0,0,0,0,1,hexagon,star,,,,,,,,,,,,,,,,,,,,,,,,,,,,,,,,,,,,,,,,,,,,,,,,,,,,,,
297793,2022-12-05_24h13.34.892,vts_reward_expectancy_bt,2022.2.4,Win32,59.80503558,Chrome,1536,960,,,a,1.6434,10,20,0,0,1,1,6,1,0,0,1,0,1,0,0,0,hexagon,triangle,,,,,,,,,,,,,,,,,,,,,,,,,,,,,,,,,,,,,,,,,,,,,,,,,,,,,,
297793,2022-12-05_24h13.34.892,vts_reward_expectancy_bt,2022.2.4,Win32,59.80503558,Chrome,1536,960,,,l,0.7355,10,30,0,0,2,2,5,1,0,1,0,0,0,0,0,1,circle,star,,,,,,,,,,,,,,,,,,,,,,,,,,,,,,,,,,,,,,,,,,,,,,,,,,,,,,
297793,2022-12-05_24h13.34.892,vts_reward_expectancy_bt,2022.2.4,Win32,59.80503558,Chrome,1536,960,,,a,0.9485,1,31,0,0,3,3,7,1,0,0,1,0,0,1,0,0,hexagon,circle,,,,,,,,,,,,,,,,,,,,,,,,,,,,,,,,,,,,,,,,,,,,,,,,,,,,,,
297793,2022-12-05_24h13.34.892,vts_reward_expectancy_bt,2022.2.4,Win32,59.80503558,Chrome,1536,960,,,a,1.2131,10,41,0,0,4,4,0,1,1,0,0,0,0,1,0,0,triangle,circle,,,,,,,,,,,,,,,,,,,,,,,,,,,,,,,,,,,,,,,,,,,,,,,,,,,,,,
297793,2022-12-05_24h13.34.892,vts_reward_expectancy_bt,2022.2.4,Win32,59.80503558,Chrome,1536,960,,,a,1.4792,1,42,0,0,5,5,11,1,0,0,0,1,0,0,1,0,star,hexagon,,,,,,,,,,,,,,,,,,,,,,,,,,,,,,,,,,,,,,,,,,,,,,,,,,,,,,
297793,2022-12-05_24h13.34.892,vts_reward_expectancy_bt,2022.2.4,Win32,59.80503558,Chrome,1536,960,,,l,1.1467,10,52,0,0,6,6,3,1,0,1,0,0,1,0,0,0,circle,triangle,,,,,,,,,,,,,,,,,,,,,,,,,,,,,,,,,,,,,,,,,,,,,,,,,,,,,,
297793,2022-12-05_24h13.34.892,vts_reward_expectancy_bt,2022.2.4,Win32,59.80503558,Chrome,1536,960,,,a,0.9828,10,62,0,0,7,7,10,1,0,0,0,1,0,1,0,0,star ,circle,,,,,,,,,,,,,,,,,,,,,,,,,,,,,,,,,,,,,,,,,,,,,,,,,,,,,,
297793,2022-12-05_24h13.34.892,vts_reward_expectancy_bt,2022.2.4,Win32,59.80503558,Chrome,1536,960,,,a,1.9417,10,72,0,0,8,8,9,1,0,0,0,1,1,0,0,0,star,triangle,,,,,,,,,,,,,,,,,,,,,,,,,,,,,,,,,,,,,,,,,,,,,,,,,,,,,,
297793,2022-12-05_24h13.34.892,vts_reward_expectancy_bt,2022.2.4,Win32,59.80503558,Chrome,1536,960,,,l,1.2297,1,73,0,0,9,9,1,1,1,0,0,0,0,0,1,0,triangle,hexagon,,,,,,,,,,,,,,,,,,,,,,,,,,,,,,,,,,,,,,,,,,,,,,,,,,,,,,
297793,2022-12-05_24h13.34.892,vts_reward_expectancy_bt,2022.2.4,Win32,59.80503558,Chrome,1536,960,,,l,1.8595,10,83,0,0,10,10,4,1,0,1,0,0,0,0,1,0,circle,hexagon,,,,,,,,,,,,,,,,,,,,,,,,,,,,,,,,,,,,,,,,,,,,,,,,,,,,,,
297793,2022-12-05_24h13.34.892,vts_reward_expectancy_bt,2022.2.4,Win32,59.80503558,Chrome,1536,960,,,l,0.6799,1,84,0,0,11,11,2,1,1,0,0,0,0,0,0,1,triangle,star,,,,,,,,,,,,,,,,,,,,,,,,,,,,,,,,,,,,,,,,,,,,,,,,,,,,,,
297793,2022-12-05_24h13.34.892,vts_reward_expectancy_bt,2022.2.4,Win32,59.80503558,Chrome,1536,960,,,a,0.9472,1,85,0,1,0,12,9,1,0,0,0,1,1,0,0,0,star,triangle,,,,,,,,,,,,,,,,,,,,,,,,,,,,,,,,,,,,,,,,,,,,,,,,,,,,,,
297793,2022-12-05_24h13.34.892,vts_reward_expectancy_bt,2022.2.4,Win32,59.80503558,Chrome,1536,960,,,l,1.2461,10,95,0,1,1,13,3,1,0,1,0,0,1,0,0,0,circle,triangle,,,,,,,,,,,,,,,,,,,,,,,,,,,,,,,,,,,,,,,,,,,,,,,,,,,,,,
297793,2022-12-05_24h13.34.892,vts_reward_expectancy_bt,2022.2.4,Win32,59.80503558,Chrome,1536,960,,,l,1.2433,10,105,0,1,2,14,6,1,0,0,1,0,1,0,0,0,hexagon,triangle,,,,,,,,,,,,,,,,,,,,,,,,,,,,,,,,,,,,,,,,,,,,,,,,,,,,,,
297793,2022-12-05_24h13.34.892,vts_reward_expectancy_bt,2022.2.4,Win32,59.80503558,Chrome,1536,960,,,l,0.7378,1,106,0,1,3,15,2,1,1,0,0,0,0,0,0,1,triangle,star,,,,,,,,,,,,,,,,,,,,,,,,,,,,,,,,,,,,,,,,,,,,,,,,,,,,,,
297793,2022-12-05_24h13.34.892,vts_reward_expectancy_bt,2022.2.4,Win32,59.80503558,Chrome,1536,960,,,a,1.5145,1,107,0,1,4,16,11,1,0,0,0,1,0,0,1,0,star,hexagon,,,,,,,,,,,,,,,,,,,,,,,,,,,,,,,,,,,,,,,,,,,,,,,,,,,,,,
297793,2022-12-05_24h13.34.892,vts_reward_expectancy_bt,2022.2.4,Win32,59.80503558,Chrome,1536,960,,,a,2.2396,1,108,0,1,5,17,7,1,0,0,1,0,0,1,0,0,hexagon,circle,,,,,,,,,,,,,,,,,,,,,,,,,,,,,,,,,,,,,,,,,,,,,,,,,,,,,,
297793,2022-12-05_24h13.34.892,vts_reward_expectancy_bt,2022.2.4,Win32,59.80503558,Chrome,1536,960,,,a,1.1737,10,118,0,1,6,18,8,1,0,0,1,0,0,0,0,1,hexagon,star,,,,,,,,,,,,,,,,,,,,,,,,,,,,,,,,,,,,,,,,,,,,,,,,,,,,,,
297793,2022-12-05_24h13.34.892,vts_reward_expectancy_bt,2022.2.4,Win32,59.80503558,Chrome,1536,960,,,a,0.5565,10,128,0,1,7,19,1,1,1,0,0,0,0,0,1,0,triangle,hexagon,,,,,,,,,,,,,,,,,,,,,,,,,,,,,,,,,,,,,,,,,,,,,,,,,,,,,,
297793,2022-12-05_24h13.34.892,vts_reward_expectancy_bt,2022.2.4,Win32,59.80503558,Chrome,1536,960,,,a,1.3299,10,138,0,1,8,20,4,1,0,1,0,0,0,0,1,0,circle,hexagon,,,,,,,,,,,,,,,,,,,,,,,,,,,,,,,,,,,,,,,,,,,,,,,,,,,,,,
297793,2022-12-05_24h13.34.892,vts_reward_expectancy_bt,2022.2.4,Win32,59.80503558,Chrome,1536,960,,,a,1.3445,10,148,0,1,9,21,5,1,0,1,0,0,0,0,0,1,circle,star,,,,,,,,,,,,,,,,,,,,,,,,,,,,,,,,,,,,,,,,,,,,,,,,,,,,,,
297793,2022-12-05_24h13.34.892,vts_reward_expectancy_bt,2022.2.4,Win32,59.80503558,Chrome,1536,960,,,l,1.1297,10,158,0,1,10,22,10,1,0,0,0,1,0,1,0,0,star ,circle,,,,,,,,,,,,,,,,,,,,,,,,,,,,,,,,,,,,,,,,,,,,,,,,,,,,,,
297793,2022-12-05_24h13.34.892,vts_reward_expectancy_bt,2022.2.4,Win32,59.80503558,Chrome,1536,960,,,a,0.781,10,168,0,1,11,23,0,1,1,0,0,0,0,1,0,0,triangle,circle,,,,,,,,,,,,,,,,,,,,,,,,,,,,,,,,,,,,,,,,,,,,,,,,,,,,,,
297793,2022-12-05_24h13.34.892,vts_reward_expectancy_bt,2022.2.4,Win32,59.80503558,Chrome,1536,960,,,a,0.9408,10,178,0,2,0,24,2,1,1,0,0,0,0,0,0,1,triangle,star,,,,,,,,,,,,,,,,,,,,,,,,,,,,,,,,,,,,,,,,,,,,,,,,,,,,,,
297793,2022-12-05_24h13.34.892,vts_reward_expectancy_bt,2022.2.4,Win32,59.80503558,Chrome,1536,960,,,l,0.9456,10,188,0,2,1,25,9,1,0,0,0,1,1,0,0,0,star,triangle,,,,,,,,,,,,,,,,,,,,,,,,,,,,,,,,,,,,,,,,,,,,,,,,,,,,,,
297793,2022-12-05_24h13.34.892,vts_reward_expectancy_bt,2022.2.4,Win32,59.80503558,Chrome,1536,960,,,l,1.7117,1,189,0,2,2,26,10,1,0,0,0,1,0,1,0,0,star ,circle,,,,,,,,,,,,,,,,,,,,,,,,,,,,,,,,,,,,,,,,,,,,,,,,,,,,,,
297793,2022-12-05_24h13.34.892,vts_reward_expectancy_bt,2022.2.4,Win32,59.80503558,Chrome,1536,960,,,l,0.9751,10,199,0,2,3,27,6,1,0,0,1,0,1,0,0,0,hexagon,triangle,,,,,,,,,,,,,,,,,,,,,,,,,,,,,,,,,,,,,,,,,,,,,,,,,,,,,,
297793,2022-12-05_24h13.34.892,vts_reward_expectancy_bt,2022.2.4,Win32,59.80503558,Chrome,1536,960,,,a,1.1827,10,209,0,2,4,28,7,1,0,0,1,0,0,1,0,0,hexagon,circle,,,,,,,,,,,,,,,,,,,,,,,,,,,,,,,,,,,,,,,,,,,,,,,,,,,,,,
297793,2022-12-05_24h13.34.892,vts_reward_expectancy_bt,2022.2.4,Win32,59.80503558,Chrome,1536,960,,,a,1.9914,10,219,0,2,5,29,0,1,1,0,0,0,0,1,0,0,triangle,circle,,,,,,,,,,,,,,,,,,,,,,,,,,,,,,,,,,,,,,,,,,,,,,,,,,,,,,
297793,2022-12-05_24h13.34.892,vts_reward_expectancy_bt,2022.2.4,Win32,59.80503558,Chrome,1536,960,,,a,0.6438,1,220,0,2,6,30,1,1,1,0,0,0,0,0,1,0,triangle,hexagon,,,,,,,,,,,,,,,,,,,,,,,,,,,,,,,,,,,,,,,,,,,,,,,,,,,,,,
297793,2022-12-05_24h13.34.892,vts_reward_expectancy_bt,2022.2.4,Win32,59.80503558,Chrome,1536,960,,,l,2.4422,1,221,0,2,7,31,11,1,0,0,0,1,0,0,1,0,star,hexagon,,,,,,,,,,,,,,,,,,,,,,,,,,,,,,,,,,,,,,,,,,,,,,,,,,,,,,
297793,2022-12-05_24h13.34.892,vts_reward_expectancy_bt,2022.2.4,Win32,59.80503558,Chrome,1536,960,,,a,1.1605,10,231,0,2,8,32,4,1,0,1,0,0,0,0,1,0,circle,hexagon,,,,,,,,,,,,,,,,,,,,,,,,,,,,,,,,,,,,,,,,,,,,,,,,,,,,,,
297793,2022-12-05_24h13.34.892,vts_reward_expectancy_bt,2022.2.4,Win32,59.80503558,Chrome,1536,960,,,a,1.1054,10,241,0,2,9,33,5,1,0,1,0,0,0,0,0,1,circle,star,,,,,,,,,,,,,,,,,,,,,,,,,,,,,,,,,,,,,,,,,,,,,,,,,,,,,,
297793,2022-12-05_24h13.34.892,vts_reward_expectancy_bt,2022.2.4,Win32,59.80503558,Chrome,1536,960,,,l,0.7496,10,251,0,2,10,34,3,1,0,1,0,0,1,0,0,0,circle,triangle,,,,,,,,,,,,,,,,,,,,,,,,,,,,,,,,,,,,,,,,,,,,,,,,,,,,,,
297793,2022-12-05_24h13.34.892,vts_reward_expectancy_bt,2022.2.4,Win32,59.80503558,Chrome,1536,960,,,a,1.3306,1,252,0,2,11,35,8,1,0,0,1,0,0,0,0,1,hexagon,star,,,,,,,,,,,,,,,,,,,,,,,,,,,,,,,,,,,,,,,,,,,,,,,,,,,,,,
297793,2022-12-05_24h13.34.892,vts_reward_expectancy_bt,2022.2.4,Win32,59.80503558,Chrome,1536,960,,,l,1.8296,10,262,1,0,0,0,7,1,0,0,1,0,0,1,0,0,hexagon,circle,,,,,,,,,,,,,,,,,,,,,,,,,,,,,,,,,,,,,,,,,,,,,,,,,,,,,,
297793,2022-12-05_24h13.34.892,vts_reward_expectancy_bt,2022.2.4,Win32,59.80503558,Chrome,1536,960,,,a,0.7203,10,272,1,0,1,1,4,1,0,1,0,0,0,0,1,0,circle,hexagon,,,,,,,,,,,,,,,,,,,,,,,,,,,,,,,,,,,,,,,,,,,,,,,,,,,,,,
297793,2022-12-05_24h13.34.892,vts_reward_expectancy_bt,2022.2.4,Win32,59.80503558,Chrome,1536,960,,,l,1.5814,10,282,1,0,2,2,9,1,0,0,0,1,1,0,0,0,star,triangle,,,,,,,,,,,,,,,,,,,,,,,,,,,,,,,,,,,,,,,,,,,,,,,,,,,,,,
297793,2022-12-05_24h13.34.892,vts_reward_expectancy_bt,2022.2.4,Win32,59.80503558,Chrome,1536,960,,,a,1.2145,10,292,1,0,3,3,5,1,0,1,0,0,0,0,0,1,circle,star,,,,,,,,,,,,,,,,,,,,,,,,,,,,,,,,,,,,,,,,,,,,,,,,,,,,,,
297793,2022-12-05_24h13.34.892,vts_reward_expectancy_bt,2022.2.4,Win32,59.80503558,Chrome,1536,960,,,a,1.9941,1,293,1,0,4,4,8,1,0,0,1,0,0,0,0,1,hexagon,star,,,,,,,,,,,,,,,,,,,,,,,,,,,,,,,,,,,,,,,,,,,,,,,,,,,,,,
297793,2022-12-05_24h13.34.892,vts_reward_expectancy_bt,2022.2.4,Win32,59.80503558,Chrome,1536,960,,,a,1.3123,1,294,1,0,5,5,0,1,1,0,0,0,0,1,0,0,triangle,circle,,,,,,,,,,,,,,,,,,,,,,,,,,,,,,,,,,,,,,,,,,,,,,,,,,,,,,
297793,2022-12-05_24h13.34.892,vts_reward_expectancy_bt,2022.2.4,Win32,59.80503558,Chrome,1536,960,,,a,0.9228,1,295,1,0,6,6,2,1,1,0,0,0,0,0,0,1,triangle,star,,,,,,,,,,,,,,,,,,,,,,,,,,,,,,,,,,,,,,,,,,,,,,,,,,,,,,
297793,2022-12-05_24h13.34.892,vts_reward_expectancy_bt,2022.2.4,Win32,59.80503558,Chrome,1536,960,,,l,1.4259,10,305,1,0,7,7,6,1,0,0,1,0,1,0,0,0,hexagon,triangle,,,,,,,,,,,,,,,,,,,,,,,,,,,,,,,,,,,,,,,,,,,,,,,,,,,,,,
297793,2022-12-05_24h13.34.892,vts_reward_expectancy_bt,2022.2.4,Win32,59.80503558,Chrome,1536,960,,,a,0.7992,1,306,1,0,8,8,3,1,0,1,0,0,1,0,0,0,circle,triangle,,,,,,,,,,,,,,,,,,,,,,,,,,,,,,,,,,,,,,,,,,,,,,,,,,,,,,
297793,2022-12-05_24h13.34.892,vts_reward_expectancy_bt,2022.2.4,Win32,59.80503558,Chrome,1536,960,,,l,1.7607,1,307,1,0,9,9,11,1,0,0,0,1,0,0,1,0,star,hexagon,,,,,,,,,,,,,,,,,,,,,,,,,,,,,,,,,,,,,,,,,,,,,,,,,,,,,,
297793,2022-12-05_24h13.34.892,vts_reward_expectancy_bt,2022.2.4,Win32,59.80503558,Chrome,1536,960,,,l,1.0186,1,308,1,0,10,10,10,1,0,0,0,1,0,1,0,0,star ,circle,,,,,,,,,,,,,,,,,,,,,,,,,,,,,,,,,,,,,,,,,,,,,,,,,,,,,,
297793,2022-12-05_24h13.34.892,vts_reward_expectancy_bt,2022.2.4,Win32,59.80503558,Chrome,1536,960,,,a,1.0904,1,309,1,0,11,11,1,1,1,0,0,0,0,0,1,0,triangle,hexagon,,,,,,,,,,,,,,,,,,,,,,,,,,,,,,,,,,,,,,,,,,,,,,,,,,,,,,
297793,2022-12-05_24h13.34.892,vts_reward_expectancy_bt,2022.2.4,Win32,59.80503558,Chrome,1536,960,,,a,1.2088,10,319,1,1,0,12,5,1,0,1,0,0,0,0,0,1,circle,star,,,,,,,,,,,,,,,,,,,,,,,,,,,,,,,,,,,,,,,,,,,,,,,,,,,,,,
297793,2022-12-05_24h13.34.892,vts_reward_expectancy_bt,2022.2.4,Win32,59.80503558,Chrome,1536,960,,,l,0.7182,1,320,1,1,1,13,8,1,0,0,1,0,0,0,0,1,hexagon,star,,,,,,,,,,,,,,,,,,,,,,,,,,,,,,,,,,,,,,,,,,,,,,,,,,,,,,
297793,2022-12-05_24h13.34.892,vts_reward_expectancy_bt,2022.2.4,Win32,59.80503558,Chrome,1536,960,,,l,0.697,10,330,1,1,2,14,10,1,0,0,0,1,0,1,0,0,star ,circle,,,,,,,,,,,,,,,,,,,,,,,,,,,,,,,,,,,,,,,,,,,,,,,,,,,,,,
297793,2022-12-05_24h13.34.892,vts_reward_expectancy_bt,2022.2.4,Win32,59.80503558,Chrome,1536,960,,,l,0.7545,1,331,1,1,3,15,7,1,0,0,1,0,0,1,0,0,hexagon,circle,,,,,,,,,,,,,,,,,,,,,,,,,,,,,,,,,,,,,,,,,,,,,,,,,,,,,,
297793,2022-12-05_24h13.34.892,vts_reward_expectancy_bt,2022.2.4,Win32,59.80503558,Chrome,1536,960,,,a,1.924,10,341,1,1,4,16,1,1,1,0,0,0,0,0,1,0,triangle,hexagon,,,,,,,,,,,,,,,,,,,,,,,,,,,,,,,,,,,,,,,,,,,,,,,,,,,,,,
297793,2022-12-05_24h13.34.892,vts_reward_expectancy_bt,2022.2.4,Win32,59.80503558,Chrome,1536,960,,,l,1.2964,10,351,1,1,5,17,6,1,0,0,1,0,1,0,0,0,hexagon,triangle,,,,,,,,,,,,,,,,,,,,,,,,,,,,,,,,,,,,,,,,,,,,,,,,,,,,,,
297793,2022-12-05_24h13.34.892,vts_reward_expectancy_bt,2022.2.4,Win32,59.80503558,Chrome,1536,960,,,a,1.4811,1,352,1,1,6,18,2,1,1,0,0,0,0,0,0,1,triangle,star,,,,,,,,,,,,,,,,,,,,,,,,,,,,,,,,,,,,,,,,,,,,,,,,,,,,,,
297793,2022-12-05_24h13.34.892,vts_reward_expectancy_bt,2022.2.4,Win32,59.80503558,Chrome,1536,960,,,a,2.2072,10,362,1,1,7,19,3,1,0,1,0,0,1,0,0,0,circle,triangle,,,,,,,,,,,,,,,,,,,,,,,,,,,,,,,,,,,,,,,,,,,,,,,,,,,,,,
297793,2022-12-05_24h13.34.892,vts_reward_expectancy_bt,2022.2.4,Win32,59.80503558,Chrome,1536,960,,,l,1.5284,1,363,1,1,8,20,11,1,0,0,0,1,0,0,1,0,star,hexagon,,,,,,,,,,,,,,,,,,,,,,,,,,,,,,,,,,,,,,,,,,,,,,,,,,,,,,
297793,2022-12-05_24h13.34.892,vts_reward_expectancy_bt,2022.2.4,Win32,59.80503558,Chrome,1536,960,,,a,1.1124,1,364,1,1,9,21,0,1,1,0,0,0,0,1,0,0,triangle,circle,,,,,,,,,,,,,,,,,,,,,,,,,,,,,,,,,,,,,,,,,,,,,,,,,,,,,,
297793,2022-12-05_24h13.34.892,vts_reward_expectancy_bt,2022.2.4,Win32,59.80503558,Chrome,1536,960,,,l,1.7156,1,365,1,1,10,22,4,1,0,1,0,0,0,0,1,0,circle,hexagon,,,,,,,,,,,,,,,,,,,,,,,,,,,,,,,,,,,,,,,,,,,,,,,,,,,,,,
297793,2022-12-05_24h13.34.892,vts_reward_expectancy_bt,2022.2.4,Win32,59.80503558,Chrome,1536,960,,,l,0.9881,10,375,1,1,11,23,9,1,0,0,0,1,1,0,0,0,star,triangle,,,,,,,,,,,,,,,,,,,,,,,,,,,,,,,,,,,,,,,,,,,,,,,,,,,,,,
297793,2022-12-05_24h13.34.892,vts_reward_expectancy_bt,2022.2.4,Win32,59.80503558,Chrome,1536,960,,,a,1.6935,10,385,1,2,0,24,1,1,1,0,0,0,0,0,1,0,triangle,hexagon,,,,,,,,,,,,,,,,,,,,,,,,,,,,,,,,,,,,,,,,,,,,,,,,,,,,,,
297793,2022-12-05_24h13.34.892,vts_reward_expectancy_bt,2022.2.4,Win32,59.80503558,Chrome,1536,960,,,a,1.0456,1,386,1,2,1,25,6,1,0,0,1,0,1,0,0,0,hexagon,triangle,,,,,,,,,,,,,,,,,,,,,,,,,,,,,,,,,,,,,,,,,,,,,,,,,,,,,,
297793,2022-12-05_24h13.34.892,vts_reward_expectancy_bt,2022.2.4,Win32,59.80503558,Chrome,1536,960,,,a,2.5718,10,396,1,2,2,26,4,1,0,1,0,0,0,0,1,0,circle,hexagon,,,,,,,,,,,,,,,,,,,,,,,,,,,,,,,,,,,,,,,,,,,,,,,,,,,,,,
297793,2022-12-05_24h13.34.892,vts_reward_expectancy_bt,2022.2.4,Win32,59.80503558,Chrome,1536,960,,,a,0.6708,1,397,1,2,3,27,8,1,0,0,1,0,0,0,0,1,hexagon,star,,,,,,,,,,,,,,,,,,,,,,,,,,,,,,,,,,,,,,,,,,,,,,,,,,,,,,
297793,2022-12-05_24h13.34.892,vts_reward_expectancy_bt,2022.2.4,Win32,59.80503558,Chrome,1536,960,,,a,0.7831,10,407,1,2,4,28,11,1,0,0,0,1,0,0,1,0,star,hexagon,,,,,,,,,,,,,,,,,,,,,,,,,,,,,,,,,,,,,,,,,,,,,,,,,,,,,,
297793,2022-12-05_24h13.34.892,vts_reward_expectancy_bt,2022.2.4,Win32,59.80503558,Chrome,1536,960,,,l,5.2143,10,417,1,2,5,29,9,1,0,0,0,1,1,0,0,0,star,triangle,,,,,,,,,,,,,,,,,,,,,,,,,,,,,,,,,,,,,,,,,,,,,,,,,,,,,,
297793,2022-12-05_24h13.34.892,vts_reward_expectancy_bt,2022.2.4,Win32,59.80503558,Chrome,1536,960,,,a,1.0568,10,427,1,2,6,30,3,1,0,1,0,0,1,0,0,0,circle,triangle,,,,,,,,,,,,,,,,,,,,,,,,,,,,,,,,,,,,,,,,,,,,,,,,,,,,,,
297793,2022-12-05_24h13.34.892,vts_reward_expectancy_bt,2022.2.4,Win32,59.80503558,Chrome,1536,960,,,l,0.5978,10,437,1,2,7,31,10,1,0,0,0,1,0,1,0,0,star ,circle,,,,,,,,,,,,,,,,,,,,,,,,,,,,,,,,,,,,,,,,,,,,,,,,,,,,,,
297793,2022-12-05_24h13.34.892,vts_reward_expectancy_bt,2022.2.4,Win32,59.80503558,Chrome,1536,960,,,l,0.6166,10,447,1,2,8,32,0,1,1,0,0,0,0,1,0,0,triangle,circle,,,,,,,,,,,,,,,,,,,,,,,,,,,,,,,,,,,,,,,,,,,,,,,,,,,,,,
297793,2022-12-05_24h13.34.892,vts_reward_expectancy_bt,2022.2.4,Win32,59.80503558,Chrome,1536,960,,,a,2.8899,1,448,1,2,9,33,5,1,0,1,0,0,0,0,0,1,circle,star,,,,,,,,,,,,,,,,,,,,,,,,,,,,,,,,,,,,,,,,,,,,,,,,,,,,,,
297793,2022-12-05_24h13.34.892,vts_reward_expectancy_bt,2022.2.4,Win32,59.80503558,Chrome,1536,960,,,l,0.7566,1,449,1,2,10,34,7,1,0,0,1,0,0,1,0,0,hexagon,circle,,,,,,,,,,,,,,,,,,,,,,,,,,,,,,,,,,,,,,,,,,,,,,,,,,,,,,
297793,2022-12-05_24h13.34.892,vts_reward_expectancy_bt,2022.2.4,Win32,59.80503558,Chrome,1536,960,,,a,0.6678,10,459,1,2,11,35,2,1,1,0,0,0,0,0,0,1,triangle,star,,,,,,,,,,,,,,,,,,,,,,,,,,,,,,,,,,,,,,,,,,,,,,,,,,,,,,
297793,2022-12-05_24h13.34.892,vts_reward_expectancy_bt,2022.2.4,Win32,59.80503558,Chrome,1536,960,,,a,0.7424,10,469,2,0,0,0,3,1,0,1,0,0,1,0,0,0,circle,triangle,,,,,,,,,,,,,,,,,,,,,,,,,,,,,,,,,,,,,,,,,,,,,,,,,,,,,,
297793,2022-12-05_24h13.34.892,vts_reward_expectancy_bt,2022.2.4,Win32,59.80503558,Chrome,1536,960,,,l,0.4833,10,479,2,0,1,1,10,1,0,0,0,1,0,1,0,0,star ,circle,,,,,,,,,,,,,,,,,,,,,,,,,,,,,,,,,,,,,,,,,,,,,,,,,,,,,,
297793,2022-12-05_24h13.34.892,vts_reward_expectancy_bt,2022.2.4,Win32,59.80503558,Chrome,1536,960,,,l,0.5293,10,489,2,0,2,2,0,1,1,0,0,0,0,1,0,0,triangle,circle,,,,,,,,,,,,,,,,,,,,,,,,,,,,,,,,,,,,,,,,,,,,,,,,,,,,,,
297793,2022-12-05_24h13.34.892,vts_reward_expectancy_bt,2022.2.4,Win32,59.80503558,Chrome,1536,960,,,a,0.6702,10,499,2,0,3,3,1,1,1,0,0,0,0,0,1,0,triangle,hexagon,,,,,,,,,,,,,,,,,,,,,,,,,,,,,,,,,,,,,,,,,,,,,,,,,,,,,,
297793,2022-12-05_24h13.34.892,vts_reward_expectancy_bt,2022.2.4,Win32,59.80503558,Chrome,1536,960,,,a,0.3871,1,500,2,0,4,4,8,1,0,0,1,0,0,0,0,1,hexagon,star,,,,,,,,,,,,,,,,,,,,,,,,,,,,,,,,,,,,,,,,,,,,,,,,,,,,,,
297793,2022-12-05_24h13.34.892,vts_reward_expectancy_bt,2022.2.4,Win32,59.80503558,Chrome,1536,960,,,l,1.546,10,510,2,0,5,5,7,1,0,0,1,0,0,1,0,0,hexagon,circle,,,,,,,,,,,,,,,,,,,,,,,,,,,,,,,,,,,,,,,,,,,,,,,,,,,,,,
297793,2022-12-05_24h13.34.892,vts_reward_expectancy_bt,2022.2.4,Win32,59.80503558,Chrome,1536,960,,,a,1.1097,1,511,2,0,6,6,11,1,0,0,0,1,0,0,1,0,star,hexagon,,,,,,,,,,,,,,,,,,,,,,,,,,,,,,,,,,,,,,,,,,,,,,,,,,,,,,
297793,2022-12-05_24h13.34.892,vts_reward_expectancy_bt,2022.2.4,Win32,59.80503558,Chrome,1536,960,,,a,0.5867,1,512,2,0,7,7,6,1,0,0,1,0,1,0,0,0,hexagon,triangle,,,,,,,,,,,,,,,,,,,,,,,,,,,,,,,,,,,,,,,,,,,,,,,,,,,,,,
297793,2022-12-05_24h13.34.892,vts_reward_expectancy_bt,2022.2.4,Win32,59.80503558,Chrome,1536,960,,,a,0.622,10,522,2,0,8,8,2,1,1,0,0,0,0,0,0,1,triangle,star,,,,,,,,,,,,,,,,,,,,,,,,,,,,,,,,,,,,,,,,,,,,,,,,,,,,,,
297793,2022-12-05_24h13.34.892,vts_reward_expectancy_bt,2022.2.4,Win32,59.80503558,Chrome,1536,960,,,a,0.813,10,532,2,0,9,9,5,1,0,1,0,0,0,0,0,1,circle,star,,,,,,,,,,,,,,,,,,,,,,,,,,,,,,,,,,,,,,,,,,,,,,,,,,,,,,
297793,2022-12-05_24h13.34.892,vts_reward_expectancy_bt,2022.2.4,Win32,59.80503558,Chrome,1536,960,,,l,0.6221,10,542,2,0,10,10,9,1,0,0,0,1,1,0,0,0,star,triangle,,,,,,,,,,,,,,,,,,,,,,,,,,,,,,,,,,,,,,,,,,,,,,,,,,,,,,
297793,2022-12-05_24h13.34.892,vts_reward_expectancy_bt,2022.2.4,Win32,59.80503558,Chrome,1536,960,,,a,0.67,1,543,2,0,11,11,4,1,0,1,0,0,0,0,1,0,circle,hexagon,,,,,,,,,,,,,,,,,,,,,,,,,,,,,,,,,,,,,,,,,,,,,,,,,,,,,,
297793,2022-12-05_24h13.34.892,vts_reward_expectancy_bt,2022.2.4,Win32,59.80503558,Chrome,1536,960,,,a,0.4857,1,544,2,1,0,12,8,1,0,0,1,0,0,0,0,1,hexagon,star,,,,,,,,,,,,,,,,,,,,,,,,,,,,,,,,,,,,,,,,,,,,,,,,,,,,,,
297793,2022-12-05_24h13.34.892,vts_reward_expectancy_bt,2022.2.4,Win32,59.80503558,Chrome,1536,960,,,l,0.556,1,545,2,1,1,13,7,1,0,0,1,0,0,1,0,0,hexagon,circle,,,,,,,,,,,,,,,,,,,,,,,,,,,,,,,,,,,,,,,,,,,,,,,,,,,,,,
297793,2022-12-05_24h13.34.892,vts_reward_expectancy_bt,2022.2.4,Win32,59.80503558,Chrome,1536,960,,,a,1.3691,1,546,2,1,2,14,9,1,0,0,0,1,1,0,0,0,star,triangle,,,,,,,,,,,,,,,,,,,,,,,,,,,,,,,,,,,,,,,,,,,,,,,,,,,,,,
297793,2022-12-05_24h13.34.892,vts_reward_expectancy_bt,2022.2.4,Win32,59.80503558,Chrome,1536,960,,,a,1.1675,10,556,2,1,3,15,3,1,0,1,0,0,1,0,0,0,circle,triangle,,,,,,,,,,,,,,,,,,,,,,,,,,,,,,,,,,,,,,,,,,,,,,,,,,,,,,
297793,2022-12-05_24h13.34.892,vts_reward_expectancy_bt,2022.2.4,Win32,59.80503558,Chrome,1536,960,,,l,0.418,1,557,2,1,4,16,10,1,0,0,0,1,0,1,0,0,star ,circle,,,,,,,,,,,,,,,,,,,,,,,,,,,,,,,,,,,,,,,,,,,,,,,,,,,,,,
297793,2022-12-05_24h13.34.892,vts_reward_expectancy_bt,2022.2.4,Win32,59.80503558,Chrome,1536,960,,,a,0.5327,10,567,2,1,5,17,2,1,1,0,0,0,0,0,0,1,triangle,star,,,,,,,,,,,,,,,,,,,,,,,,,,,,,,,,,,,,,,,,,,,,,,,,,,,,,,
297793,2022-12-05_24h13.34.892,vts_reward_expectancy_bt,2022.2.4,Win32,59.80503558,Chrome,1536,960,,,a,0.4464,1,568,2,1,6,18,5,1,0,1,0,0,0,0,0,1,circle,star,,,,,,,,,,,,,,,,,,,,,,,,,,,,,,,,,,,,,,,,,,,,,,,,,,,,,,
297793,2022-12-05_24h13.34.892,vts_reward_expectancy_bt,2022.2.4,Win32,59.80503558,Chrome,1536,960,,,a,0.6049,1,569,2,1,7,19,6,1,0,0,1,0,1,0,0,0,hexagon,triangle,,,,,,,,,,,,,,,,,,,,,,,,,,,,,,,,,,,,,,,,,,,,,,,,,,,,,,
297793,2022-12-05_24h13.34.892,vts_reward_expectancy_bt,2022.2.4,Win32,59.80503558,Chrome,1536,960,,,a,0.5294,1,570,2,1,8,20,4,1,0,1,0,0,0,0,1,0,circle,hexagon,,,,,,,,,,,,,,,,,,,,,,,,,,,,,,,,,,,,,,,,,,,,,,,,,,,,,,
297793,2022-12-05_24h13.34.892,vts_reward_expectancy_bt,2022.2.4,Win32,59.80503558,Chrome,1536,960,,,l,0.8672,1,571,2,1,9,21,1,1,1,0,0,0,0,0,1,0,triangle,hexagon,,,,,,,,,,,,,,,,,,,,,,,,,,,,,,,,,,,,,,,,,,,,,,,,,,,,,,
297793,2022-12-05_24h13.34.892,vts_reward_expectancy_bt,2022.2.4,Win32,59.80503558,Chrome,1536,960,,,a,0.496,10,581,2,1,10,22,0,1,1,0,0,0,0,1,0,0,triangle,circle,,,,,,,,,,,,,,,,,,,,,,,,,,,,,,,,,,,,,,,,,,,,,,,,,,,,,,
297793,2022-12-05_24h13.34.892,vts_reward_expectancy_bt,2022.2.4,Win32,59.80503558,Chrome,1536,960,,,a,0.5181,1,582,2,1,11,23,11,1,0,0,0,1,0,0,1,0,star,hexagon,,,,,,,,,,,,,,,,,,,,,,,,,,,,,,,,,,,,,,,,,,,,,,,,,,,,,,
297793,2022-12-05_24h13.34.892,vts_reward_expectancy_bt,2022.2.4,Win32,59.80503558,Chrome,1536,960,,,a,0.6376,1,583,2,2,0,24,7,1,0,0,1,0,0,1,0,0,hexagon,circle,,,,,,,,,,,,,,,,,,,,,,,,,,,,,,,,,,,,,,,,,,,,,,,,,,,,,,
297793,2022-12-05_24h13.34.892,vts_reward_expectancy_bt,2022.2.4,Win32,59.80503558,Chrome,1536,960,,,a,0.5498,10,593,2,2,1,25,2,1,1,0,0,0,0,0,0,1,triangle,star,,,,,,,,,,,,,,,,,,,,,,,,,,,,,,,,,,,,,,,,,,,,,,,,,,,,,,
297793,2022-12-05_24h13.34.892,vts_reward_expectancy_bt,2022.2.4,Win32,59.80503558,Chrome,1536,960,,,l,1.4462,10,603,2,2,2,26,9,1,0,0,0,1,1,0,0,0,star,triangle,,,,,,,,,,,,,,,,,,,,,,,,,,,,,,,,,,,,,,,,,,,,,,,,,,,,,,
297793,2022-12-05_24h13.34.892,vts_reward_expectancy_bt,2022.2.4,Win32,59.80503558,Chrome,1536,960,,,a,0.4995,10,613,2,2,3,27,4,1,0,1,0,0,0,0,1,0,circle,hexagon,,,,,,,,,,,,,,,,,,,,,,,,,,,,,,,,,,,,,,,,,,,,,,,,,,,,,,
297793,2022-12-05_24h13.34.892,vts_reward_expectancy_bt,2022.2.4,Win32,59.80503558,Chrome,1536,960,,,a,0.7319,10,623,2,2,4,28,1,1,1,0,0,0,0,0,1,0,triangle,hexagon,,,,,,,,,,,,,,,,,,,,,,,,,,,,,,,,,,,,,,,,,,,,,,,,,,,,,,
297793,2022-12-05_24h13.34.892,vts_reward_expectancy_bt,2022.2.4,Win32,59.80503558,Chrome,1536,960,,,a,1.9423,1,624,2,2,5,29,8,1,0,0,1,0,0,0,0,1,hexagon,star,,,,,,,,,,,,,,,,,,,,,,,,,,,,,,,,,,,,,,,,,,,,,,,,,,,,,,
297793,2022-12-05_24h13.34.892,vts_reward_expectancy_bt,2022.2.4,Win32,59.80503558,Chrome,1536,960,,,l,1.2762,10,634,2,2,6,30,10,1,0,0,0,1,0,1,0,0,star ,circle,,,,,,,,,,,,,,,,,,,,,,,,,,,,,,,,,,,,,,,,,,,,,,,,,,,,,,
297793,2022-12-05_24h13.34.892,vts_reward_expectancy_bt,2022.2.4,Win32,59.80503558,Chrome,1536,960,,,l,1.1982,1,635,2,2,7,31,0,1,1,0,0,0,0,1,0,0,triangle,circle,,,,,,,,,,,,,,,,,,,,,,,,,,,,,,,,,,,,,,,,,,,,,,,,,,,,,,
297793,2022-12-05_24h13.34.892,vts_reward_expectancy_bt,2022.2.4,Win32,59.80503558,Chrome,1536,960,,,a,0.4571,1,636,2,2,8,32,6,1,0,0,1,0,1,0,0,0,hexagon,triangle,,,,,,,,,,,,,,,,,,,,,,,,,,,,,,,,,,,,,,,,,,,,,,,,,,,,,,
297793,2022-12-05_24h13.34.892,vts_reward_expectancy_bt,2022.2.4,Win32,59.80503558,Chrome,1536,960,,,a,0.8654,10,646,2,2,9,33,3,1,0,1,0,0,1,0,0,0,circle,triangle,,,,,,,,,,,,,,,,,,,,,,,,,,,,,,,,,,,,,,,,,,,,,,,,,,,,,,
297793,2022-12-05_24h13.34.892,vts_reward_expectancy_bt,2022.2.4,Win32,59.80503558,Chrome,1536,960,,,a,0.6533,10,656,2,2,10,34,5,1,0,1,0,0,0,0,0,1,circle,star,,,,,,,,,,,,,,,,,,,,,,,,,,,,,,,,,,,,,,,,,,,,,,,,,,,,,,
297793,2022-12-05_24h13.34.892,vts_reward_expectancy_bt,2022.2.4,Win32,59.80503558,Chrome,1536,960,,,a,1.0813,1,657,2,2,11,35,11,1,0,0,0,1,0,0,1,0,star,hexagon,,,,,,,,,,,,,,,,,,,,,,,,,,,,,,,,,,,,,,,,,,,,,,,,,,,,,,
297793,2022-12-05_24h13.34.892,vts_reward_expectancy_bt,2022.2.4,Win32,59.80503558,Chrome,1536,960,,,,,,,,,,,,,,,,,,,,,,,181,B,triangle,1,0,f,2.5204,0,0,0,0,0,1,,,,,,,,,,,,,,,,,,,,,,,,,,,,,,,,,,,,,,,,,
297793,2022-12-05_24h13.34.892,vts_reward_expectancy_bt,2022.2.4,Win32,59.80503558,Chrome,1536,960,,,,,,,,,,,,,,,,,,,,,,,125,F,star,1,0,d,0.7937,0,1,0,1,0,1,,,,,,,,,,,,,,,,,,,,,,,,,,,,,,,,,,,,,,,,,
297793,2022-12-05_24h13.34.892,vts_reward_expectancy_bt,2022.2.4,Win32,59.80503558,Chrome,1536,960,,,,,,,,,,,,,,,,,,,,,,,146,H,circle,1,0,d,0.7162,0,2,0,2,0,1,,,,,,,,,,,,,,,,,,,,,,,,,,,,,,,,,,,,,,,,,
297793,2022-12-05_24h13.34.892,vts_reward_expectancy_bt,2022.2.4,Win32,59.80503558,Chrome,1536,960,,,,,,,,,,,,,,,,,,,,,,,160,D,hexagon,1,0,f,0.528,0,3,0,3,0,1,,,,,,,,,,,,,,,,,,,,,,,,,,,,,,,,,,,,,,,,,
297793,2022-12-05_24h13.34.892,vts_reward_expectancy_bt,2022.2.4,Win32,59.80503558,Chrome,1536,960,,,,,,,,,,,,,,,,,,,,,,,139,S,triangle,1,0,d,0.8273,0,4,0,4,0,1,,,,,,,,,,,,,,,,,,,,,,,,,,,,,,,,,,,,,,,,,
297793,2022-12-05_24h13.34.892,vts_reward_expectancy_bt,2022.2.4,Win32,59.80503558,Chrome,1536,960,,,,,,,,,,,,,,,,,,,,,,,132,U,star,1,0,d,0.5617,0,5,0,5,0,1,,,,,,,,,,,,,,,,,,,,,,,,,,,,,,,,,,,,,,,,,
297793,2022-12-05_24h13.34.892,vts_reward_expectancy_bt,2022.2.4,Win32,59.80503558,Chrome,1536,960,,,,,,,,,,,,,,,,,,,,,,,174,W,circle,1,0,f,0.6467,0,6,0,6,0,1,,,,,,,,,,,,,,,,,,,,,,,,,,,,,,,,,,,,,,,,,
297793,2022-12-05_24h13.34.892,vts_reward_expectancy_bt,2022.2.4,Win32,59.80503558,Chrome,1536,960,,,,,,,,,,,,,,,,,,,,,,,167,Y,hexagon,1,0,f,0.7188,0,7,0,7,0,1,,,,,,,,,,,,,,,,,,,,,,,,,,,,,,,,,,,,,,,,,
297793,2022-12-05_24h13.34.892,vts_reward_expectancy_bt,2022.2.4,Win32,59.80503558,Chrome,1536,960,,,,,,,,,,,,,,,,,,,,,,,181,B,circle,1,0,f,0.8612,0,8,0,8,0,1,,,,,,,,,,,,,,,,,,,,,,,,,,,,,,,,,,,,,,,,,
297793,2022-12-05_24h13.34.892,vts_reward_expectancy_bt,2022.2.4,Win32,59.80503558,Chrome,1536,960,,,,,,,,,,,,,,,,,,,,,,,125,F,triangle,1,0,d,0.878,0,9,0,9,0,1,,,,,,,,,,,,,,,,,,,,,,,,,,,,,,,,,,,,,,,,,
297793,2022-12-05_24h13.34.892,vts_reward_expectancy_bt,2022.2.4,Win32,59.80503558,Chrome,1536,960,,,,,,,,,,,,,,,,,,,,,,,132,H,hexagon,1,0,,,1,,,,,,j,0.9355,0,0,0,0,1,,,,,,,,,,,,,,,,,,,,,,,,,,,,,,,,,,
297793,2022-12-05_24h13.34.892,vts_reward_expectancy_bt,2022.2.4,Win32,59.80503558,Chrome,1536,960,,,,,,,,,,,,,,,,,,,,,,,160,Y,circle,1,0,,,1,,,,,,k,0.775,1,0,1,0,1,,,,,,,,,,,,,,,,,,,,,,,,,,,,,,,,,,
297793,2022-12-05_24h13.34.892,vts_reward_expectancy_bt,2022.2.4,Win32,59.80503558,Chrome,1536,960,,,,,,,,,,,,,,,,,,,,,,,174,U,star,1,0,,,1,,,,,,k,1.2489,2,0,2,0,1,,,,,,,,,,,,,,,,,,,,,,,,,,,,,,,,,,
297793,2022-12-05_24h13.34.892,vts_reward_expectancy_bt,2022.2.4,Win32,59.80503558,Chrome,1536,960,,,,,,,,,,,,,,,,,,,,,,,167,S,triangle,1,0,,,1,,,,,,k,1.5321,3,0,3,0,1,,,,,,,,,,,,,,,,,,,,,,,,,,,,,,,,,,
297793,2022-12-05_24h13.34.892,vts_reward_expectancy_bt,2022.2.4,Win32,59.80503558,Chrome,1536,960,,,,,,,,,,,,,,,,,,,,,,,139,B,hexagon,1,0,,,1,,,,,,j,0.6134,4,0,4,0,1,,,,,,,,,,,,,,,,,,,,,,,,,,,,,,,,,,
297793,2022-12-05_24h13.34.892,vts_reward_expectancy_bt,2022.2.4,Win32,59.80503558,Chrome,1536,960,,,,,,,,,,,,,,,,,,,,,,,125,F,circle,1,0,,,1,,,,,,j,0.679,5,0,5,0,1,,,,,,,,,,,,,,,,,,,,,,,,,,,,,,,,,,
297793,2022-12-05_24h13.34.892,vts_reward_expectancy_bt,2022.2.4,Win32,59.80503558,Chrome,1536,960,,,,,,,,,,,,,,,,,,,,,,,181,D,star,1,0,,,1,,,,,,j,0.5963,6,0,6,0,1,,,,,,,,,,,,,,,,,,,,,,,,,,,,,,,,,,
297793,2022-12-05_24h13.34.892,vts_reward_expectancy_bt,2022.2.4,Win32,59.80503558,Chrome,1536,960,,,,,,,,,,,,,,,,,,,,,,,146,W,triangle,1,0,,,1,,,,,,k,0.6289,7,0,7,0,1,,,,,,,,,,,,,,,,,,,,,,,,,,,,,,,,,,
297793,2022-12-05_24h13.34.892,vts_reward_expectancy_bt,2022.2.4,Win32,59.80503558,Chrome,1536,960,,,,,,,,,,,,,,,,,,,,,,,132,H,hexagon,1,0,,,1,,,,,,j,0.5939,8,0,8,0,1,,,,,,,,,,,,,,,,,,,,,,,,,,,,,,,,,,
297793,2022-12-05_24h13.34.892,vts_reward_expectancy_bt,2022.2.4,Win32,59.80503558,Chrome,1536,960,,,,,,,,,,,,,,,,,,,,,,,160,Y,star,1,0,,,1,,,,,,k,0.6273,9,0,9,0,1,,,,,,,,,,,,,,,,,,,,,,,,,,,,,,,,,,
297793,2022-12-05_24h13.34.892,vts_reward_expectancy_bt,2022.2.4,Win32,59.80503558,Chrome,1536,960,,,,,0,657,,,,,,,,,,,,,,,,,160,B,circle,1,0,,,2,,,,,,,,,,,,,-1,number,NA,f,1.4924,vtsPrac,0,0,0,0,1,,,,,,,,,,,,,,,,,,,,,,,
297793,2022-12-05_24h13.34.892,vts_reward_expectancy_bt,2022.2.4,Win32,59.80503558,Chrome,1536,960,,,,,0,657,,,,,,,,,,,,,,,,,146,D,star,1,0,,,2,,,,,,,,,,,,,repeat,number,numRpt,d,1.9897,vtsPrac,1,0,1,0,1,,,,,,,,,,,,,,,,,,,,,,,
297793,2022-12-05_24h13.34.892,vts_reward_expectancy_bt,2022.2.4,Win32,59.80503558,Chrome,1536,960,,,,,0,657,,,,,,,,,,,,,,,,,139,H,circle,1,0,,,2,,,,,,,,,,,,,repeat,number,numRpt,d,1.5303,vtsPrac,2,0,2,0,1,,,,,,,,,,,,,,,,,,,,,,,
297793,2022-12-05_24h13.34.892,vts_reward_expectancy_bt,2022.2.4,Win32,59.80503558,Chrome,1536,960,,,,,0,657,,,,,,,,,,,,,,,,,125,F,star,1,0,,,2,,,,,,,,,,,,,switch,letter,lettSwt,j,0.6438,vtsPrac,3,0,3,0,1,,,,,,,,,,,,,,,,,,,,,,,
297793,2022-12-05_24h13.34.892,vts_reward_expectancy_bt,2022.2.4,Win32,59.80503558,Chrome,1536,960,,,,,0,657,,,,,,,,,,,,,,,,,160,B,triangle,1,0,,,2,,,,,,,,,,,,,repeat,letter,lettRpt,j,0.727,vtsPrac,4,0,4,0,1,,,,,,,,,,,,,,,,,,,,,,,
297793,2022-12-05_24h13.34.892,vts_reward_expectancy_bt,2022.2.4,Win32,59.80503558,Chrome,1536,960,,,,,0,657,,,,,,,,,,,,,,,,,146,D,star,1,0,,,2,,,,,,,,,,,,,switch,number,numSwt,d,0.4952,vtsPrac,5,0,5,0,1,,,,,,,,,,,,,,,,,,,,,,,
297793,2022-12-05_24h13.34.892,vts_reward_expectancy_bt,2022.2.4,Win32,59.80503558,Chrome,1536,960,,,,,0,657,,,,,,,,,,,,,,,,,139,H,circle,1,0,,,2,,,,,,,,,,,,,switch,letter,lettSwt,j,0.5352,vtsPrac,6,0,6,0,1,,,,,,,,,,,,,,,,,,,,,,,
297793,2022-12-05_24h13.34.892,vts_reward_expectancy_bt,2022.2.4,Win32,59.80503558,Chrome,1536,960,,,,,0,657,,,,,,,,,,,,,,,,,125,F,star,1,0,,,2,,,,,,,,,,,,,repeat,letter,lettRpt,j,0.5617,vtsPrac,7,0,7,0,1,,,,,,,,,,,,,,,,,,,,,,,
297793,2022-12-05_24h13.34.892,vts_reward_expectancy_bt,2022.2.4,Win32,59.80503558,Chrome,1536,960,,,,,0,657,,,,,,,,,,,,,,,,,174,W,star,1,0,,,2,,,,,,,,,,,,,repeat,letter,lettRpt,k,0.6149,vtsPrac,8,0,8,0,1,,,,,,,,,,,,,,,,,,,,,,,
297793,2022-12-05_24h13.34.892,vts_reward_expectancy_bt,2022.2.4,Win32,59.80503558,Chrome,1536,960,,,,,0,657,,,,,,,,,,,,,,,,,160,D,circle,1,0,,,2,,,,,,,,,,,,,repeat,letter,lettRpt,j,0.5474,vtsPrac,9,0,9,0,1,,,,,,,,,,,,,,,,,,,,,,,
297793,2022-12-05_24h13.34.892,vts_reward_expectancy_bt,2022.2.4,Win32,59.80503558,Chrome,1536,960,,,,,0,657,,,,,,,,,,,,,,,,,132,F,star,1,0,,,2,,,,,,,,,,,,,switch,number,numSwt,d,0.5518,vtsPrac,10,0,10,0,1,,,,,,,,,,,,,,,,,,,,,,,
297793,2022-12-05_24h13.34.892,vts_reward_expectancy_bt,2022.2.4,Win32,59.80503558,Chrome,1536,960,,,,,0,657,,,,,,,,,,,,,,,,,181,H,hexagon,1,0,,,2,,,,,,,,,,,,,repeat,number,numRpt,f,0.6978,vtsPrac,11,0,11,0,1,,,,,,,,,,,,,,,,,,,,,,,
297793,2022-12-05_24h13.34.892,vts_reward_expectancy_bt,2022.2.4,Win32,59.80503558,Chrome,1536,960,,,,,0,657,,,,,,,,,,,,,,,,,174,H,triangle,1,0,,,2,,,,,,,,,,,,,switch,letter,lettSwt,j,0.4664,vtsPrac,12,0,12,0,1,,,,,,,,,,,,,,,,,,,,,,,
297793,2022-12-05_24h13.34.892,vts_reward_expectancy_bt,2022.2.4,Win32,59.80503558,Chrome,1536,960,,,,,0,657,,,,,,,,,,,,,,,,,160,Y,circle,1,0,,,2,,,,,,,,,,,,,switch,number,numSwt,f,1.1251,vtsPrac,13,0,13,0,1,,,,,,,,,,,,,,,,,,,,,,,
297793,2022-12-05_24h13.34.892,vts_reward_expectancy_bt,2022.2.4,Win32,59.80503558,Chrome,1536,960,,,,,0,657,,,,,,,,,,,,,,,,,167,B,triangle,1,0,,,2,,,,,,,,,,,,,switch,letter,lettSwt,j,0.4846,vtsPrac,14,0,14,0,1,,,,,,,,,,,,,,,,,,,,,,,
297793,2022-12-05_24h13.34.892,vts_reward_expectancy_bt,2022.2.4,Win32,59.80503558,Chrome,1536,960,,,,,0,657,,,,,,,,,,,,,,,,,181,W,hexagon,1,0,,,2,,,,,,,,,,,,,repeat,letter,lettRpt,k,0.7786,vtsPrac,15,0,15,0,1,,,,,,,,,,,,,,,,,,,,,,,
297793,2022-12-05_24h13.34.892,vts_reward_expectancy_bt,2022.2.4,Win32,59.80503558,Chrome,1536,960,,,,,0,657,,,,,,,,,,,,,,,,,167,U,triangle,1,0,,,2,,,,,,,,,,,,,switch,number,numSwt,f,1.2672,vtsPrac,16,0,16,0,1,,,,,,,,,,,,,,,,,,,,,,,
297793,2022-12-05_24h13.34.892,vts_reward_expectancy_bt,2022.2.4,Win32,59.80503558,Chrome,1536,960,,,,,0,657,,,,,,,,,,,,,,,,,160,B,star,1,0,,,2,,,,,,,,,,,,,switch,letter,lettSwt,j,0.446,vtsPrac,17,0,17,0,1,,,,,,,,,,,,,,,,,,,,,,,
297793,2022-12-05_24h13.34.892,vts_reward_expectancy_bt,2022.2.4,Win32,59.80503558,Chrome,1536,960,,,,,0,657,,,,,,,,,,,,,,,,,146,S,triangle,1,0,,,2,,,,,,,,,,,,,switch,number,numSwt,d,1.5099,vtsPrac,18,0,18,0,1,,,,,,,,,,,,,,,,,,,,,,,
297793,2022-12-05_24h13.34.892,vts_reward_expectancy_bt,2022.2.4,Win32,59.80503558,Chrome,1536,960,,,,,0,657,,,,,,,,,,,,,,,,,132,W,star,1,0,,,2,,,,,,,,,,,,,switch,letter,lettSwt,k,1.0926,vtsPrac,19,0,19,0,1,,,,,,,,,,,,,,,,,,,,,,,
297793,2022-12-05_24h13.34.892,vts_reward_expectancy_bt,2022.2.4,Win32,59.80503558,Chrome,1536,960,,,,,0,657,,,,,,,,,,,,,,,,,132,H,triangle,1,0,,,2,,,,,,,,,,,,,switch,number,numSwt,d,1.0612,vtsPrac,20,0,20,0,1,,,,,,,,,,,,,,,,,,,,,,,
297793,2022-12-05_24h13.34.892,vts_reward_expectancy_bt,2022.2.4,Win32,59.80503558,Chrome,1536,960,,,,,0,657,,,,,,,,,,,,,,,,,139,F,star,1,0,,,2,,,,,,,,,,,,,repeat,number,numRpt,d,0.5293,vtsPrac,21,0,21,0,1,,,,,,,,,,,,,,,,,,,,,,,
297793,2022-12-05_24h13.34.892,vts_reward_expectancy_bt,2022.2.4,Win32,59.80503558,Chrome,1536,960,,,,,0,657,,,,,,,,,,,,,,,,,174,D,hexagon,1,0,,,2,,,,,,,,,,,,,switch,letter,lettSwt,j,0.5341,vtsPrac,22,0,22,0,1,,,,,,,,,,,,,,,,,,,,,,,
297793,2022-12-05_24h13.34.892,vts_reward_expectancy_bt,2022.2.4,Win32,59.80503558,Chrome,1536,960,,,,,0,657,,,,,,,,,,,,,,,,,181,S,triangle,1,0,,,2,,,,,,,,,,,,,repeat,letter,lettRpt,k,1.1088,vtsPrac,23,0,23,0,1,,,,,,,,,,,,,,,,,,,,,,,
297793,2022-12-05_24h13.34.892,vts_reward_expectancy_bt,2022.2.4,Win32,59.80503558,Chrome,1536,960,,,,,0,657,,,,,,,,,,,,,,,,,174,F,hexagon,1,0,,,2,,,,,,,,,,,,,switch,number,numSwt,f,1.0959,vtsPrac,24,0,24,0,1,,,,,,,,,,,,,,,,,,,,,,,
297793,2022-12-05_24h13.34.892,vts_reward_expectancy_bt,2022.2.4,Win32,59.80503558,Chrome,1536,960,,,,,0,657,,,,,,,,,,,,,,,,,125,S,triangle,1,0,,,2,,,,,,,,,,,,,repeat,number,numRpt,d,1.1283,vtsPrac,25,0,25,0,1,,,,,,,,,,,,,,,,,,,,,,,
297793,2022-12-05_24h13.34.892,vts_reward_expectancy_bt,2022.2.4,Win32,59.80503558,Chrome,1536,960,,,,,0,657,,,,,,,,,,,,,,,,,160,W,triangle,1,0,,,2,,,,,,,,,,,,,repeat,number,numRpt,f,1.0513,vtsPrac,26,0,26,0,1,,,,,,,,,,,,,,,,,,,,,,,
297793,2022-12-05_24h13.34.892,vts_reward_expectancy_bt,2022.2.4,Win32,59.80503558,Chrome,1536,960,,,,,0,657,,,,,,,,,,,,,,,,,139,Y,circle,1,0,,,2,,,,,,,,,,,,,switch,letter,lettSwt,k,0.6113,vtsPrac,27,0,27,0,1,,,,,,,,,,,,,,,,,,,,,,,
297793,2022-12-05_24h13.34.892,vts_reward_expectancy_bt,2022.2.4,Win32,59.80503558,Chrome,1536,960,,,,,0,657,,,,,,,,,,,,,,,,,181,U,circle,1,0,,,2,,,,,,,,,,,,,switch,number,numSwt,f,0.979,vtsPrac,28,0,28,0,1,,,,,,,,,,,,,,,,,,,,,,,
297793,2022-12-05_24h13.34.892,vts_reward_expectancy_bt,2022.2.4,Win32,59.80503558,Chrome,1536,960,,,,,0,657,,,,,,,,,,,,,,,,,125,H,hexagon,1,0,,,2,,,,,,,,,,,,,switch,letter,lettSwt,j,0.5998,vtsPrac,29,0,29,0,1,,,,,,,,,,,,,,,,,,,,,,,
297793,2022-12-05_24h13.34.892,vts_reward_expectancy_bt,2022.2.4,Win32,59.80503558,Chrome,1536,960,,,,,0,657,,,,,,,,,,,,,,,,,132,Y,star,1,0,,,2,,,,,,,,,,,,,repeat,letter,lettRpt,k,0.596,vtsPrac,30,0,30,0,1,,,,,,,,,,,,,,,,,,,,,,,
297793,2022-12-05_24h13.34.892,vts_reward_expectancy_bt,2022.2.4,Win32,59.80503558,Chrome,1536,960,,,,,0,657,,,,,,,,,,,,,,,,,160,B,circle,1,0,,,2,,,,,,,,,,,,,repeat,letter,lettRpt,j,0.8604,vtsPrac,31,0,31,0,1,,,,,,,,,,,,,,,,,,,,,,,
297793,2022-12-05_24h13.34.892,vts_reward_expectancy_bt,2022.2.4,Win32,59.80503558,Chrome,1536,960,,,,,,,,,,,,,,,,,,,,,,,,,,,,,,,,,,,,,,,,,,,,,,,,,,,,,,,,,,,,,,,,,,,,,,,,,,,,
297793,2022-12-05_24h13.34.892,vts_reward_expectancy_bt,2022.2.4,Win32,59.80503558,Chrome,1536,960,,,,,,,,,,,,,,,,,,,,,,,,,,,,,,,,,,,,,,,,,,,,,,,,,,,,,,,,,,,,,,,,,,,,,,,,,,,,
297793,2022-12-05_24h13.34.892,vts_reward_expectancy_bt,2022.2.4,Win32,59.80503558,Chrome,1536,960,,,,,0,657,,,,,,,,,,,,,,,,,125,F,hexagon,1,0,,,,,,,,,,,,,,,,switch,number,numSwt,d,1.1767,noRew,,,,,,0,0,0,0,0,1,,,,,,,,,,,,,,,,,
297793,2022-12-05_24h13.34.892,vts_reward_expectancy_bt,2022.2.4,Win32,59.80503558,Chrome,1536,960,,,,,0,657,,,,,,,,,,,,,,,,,139,H,star,1,0,,,,,,,,,,,,,,,,repeat,number,numRpt,d,1.092,noRew,,,,,,0,1,0,1,0,1,,,,,,,,,,,,,,,,,
297793,2022-12-05_24h13.34.892,vts_reward_expectancy_bt,2022.2.4,Win32,59.80503558,Chrome,1536,960,,,,,0,657,,,,,,,,,,,,,,,,,146,U,hexagon,1,0,,,,,,,,,,,,,,,,switch,letter,lettSwt,k,0.566,noRew,,,,,,0,2,0,2,0,1,,,,,,,,,,,,,,,,,
297793,2022-12-05_24h13.34.892,vts_reward_expectancy_bt,2022.2.4,Win32,59.80503558,Chrome,1536,960,,,,,0,657,,,,,,,,,,,,,,,,,181,S,star,1,0,,,,,,,,,,,,,,,,switch,number,numSwt,f,0.9958,noRew,,,,,,0,3,0,3,0,1,,,,,,,,,,,,,,,,,
297793,2022-12-05_24h13.34.892,vts_reward_expectancy_bt,2022.2.4,Win32,59.80503558,Chrome,1536,960,,,,,0,657,,,,,,,,,,,,,,,,,125,F,star,1,0,,,,,,,,,,,,,,,,repeat,number,numRpt,d,1.0262,noRew,,,,,,0,4,0,4,0,1,,,,,,,,,,,,,,,,,
297793,2022-12-05_24h13.34.892,vts_reward_expectancy_bt,2022.2.4,Win32,59.80503558,Chrome,1536,960,,,,,0,657,,,,,,,,,,,,,,,,,139,H,hexagon,1,0,,,,,,,,,,,,,,,,switch,letter,lettSwt,j,0.9781,noRew,,,,,,0,5,0,5,0,1,,,,,,,,,,,,,,,,,
297793,2022-12-05_24h13.34.892,vts_reward_expectancy_bt,2022.2.4,Win32,59.80503558,Chrome,1536,960,,,,,0,657,,,,,,,,,,,,,,,,,146,U,circle,1,0,,,,,,,,,,,,,,,,switch,number,numSwt,d,1.511,noRew,,,,,,0,6,0,6,0,1,,,,,,,,,,,,,,,,,
297793,2022-12-05_24h13.34.892,vts_reward_expectancy_bt,2022.2.4,Win32,59.80503558,Chrome,1536,960,,,,,0,657,,,,,,,,,,,,,,,,,181,S,hexagon,1,0,,,,,,,,,,,,,,,,switch,letter,lettSwt,k,0.8268,noRew,,,,,,0,7,0,7,0,1,,,,,,,,,,,,,,,,,
297793,2022-12-05_24h13.34.892,vts_reward_expectancy_bt,2022.2.4,Win32,59.80503558,Chrome,1536,960,,,,,0,657,,,,,,,,,,,,,,,,,167,B,star,1,0,,,,,,,,,,,,,,,,repeat,letter,lettRpt,j,0.563,noRew,,,,,,0,8,0,8,0,1,,,,,,,,,,,,,,,,,
297793,2022-12-05_24h13.34.892,vts_reward_expectancy_bt,2022.2.4,Win32,59.80503558,Chrome,1536,960,,,,,0,657,,,,,,,,,,,,,,,,,174,S,hexagon,1,0,,,,,,,,,,,,,,,,switch,number,numSwt,f,1.1679,noRew,,,,,,0,9,0,9,0,1,,,,,,,,,,,,,,,,,
297793,2022-12-05_24h13.34.892,vts_reward_expectancy_bt,2022.2.4,Win32,59.80503558,Chrome,1536,960,,,,,0,657,,,,,,,,,,,,,,,,,132,W,circle,1,0,,,,,,,,,,,,,,,,switch,letter,lettSwt,k,0.5792,noRew,,,,,,0,10,0,10,0,1,,,,,,,,,,,,,,,,,
297793,2022-12-05_24h13.34.892,vts_reward_expectancy_bt,2022.2.4,Win32,59.80503558,Chrome,1536,960,,,,,0,657,,,,,,,,,,,,,,,,,146,H,hexagon,1,0,,,,,,,,,,,,,,,,repeat,letter,lettRpt,j,0.5945,noRew,,,,,,0,11,0,11,0,1,,,,,,,,,,,,,,,,,
297793,2022-12-05_24h13.34.892,vts_reward_expectancy_bt,2022.2.4,Win32,59.80503558,Chrome,1536,960,,,,,0,657,,,,,,,,,,,,,,,,,125,D,circle,1,0,,,,,,,,,,,,,,,,repeat,letter,lettRpt,j,1.0191,noRew,,,,,,0,12,0,12,0,1,,,,,,,,,,,,,,,,,
297793,2022-12-05_24h13.34.892,vts_reward_expectancy_bt,2022.2.4,Win32,59.80503558,Chrome,1536,960,,,,,0,657,,,,,,,,,,,,,,,,,167,U,hexagon,1,0,,,,,,,,,,,,,,,,switch,number,numSwt,f,0.8832,noRew,,,,,,0,13,0,13,0,1,,,,,,,,,,,,,,,,,
297793,2022-12-05_24h13.34.892,vts_reward_expectancy_bt,2022.2.4,Win32,59.80503558,Chrome,1536,960,,,,,0,657,,,,,,,,,,,,,,,,,181,F,circle,1,0,,,,,,,,,,,,,,,,switch,letter,lettSwt,j,1.1937,noRew,,,,,,0,14,0,14,0,1,,,,,,,,,,,,,,,,,
297793,2022-12-05_24h13.34.892,vts_reward_expectancy_bt,2022.2.4,Win32,59.80503558,Chrome,1536,960,,,,,0,657,,,,,,,,,,,,,,,,,146,S,star,1,0,,,,,,,,,,,,,,,,switch,number,numSwt,d,1.0948,noRew,,,,,,0,15,0,15,0,1,,,,,,,,,,,,,,,,,
297793,2022-12-05_24h13.34.892,vts_reward_expectancy_bt,2022.2.4,Win32,59.80503558,Chrome,1536,960,,,,,0,657,,,,,,,,,,,,,,,,,132,B,circle,1,0,,,,,,,,,,,,,,,,repeat,number,numRpt,d,0.995,noRew,,,,,,0,16,0,16,0,1,,,,,,,,,,,,,,,,,
297793,2022-12-05_24h13.34.892,vts_reward_expectancy_bt,2022.2.4,Win32,59.80503558,Chrome,1536,960,,,,,0,657,,,,,,,,,,,,,,,,,181,F,triangle,1,0,,,,,,,,,,,,,,,,switch,letter,lettSwt,j,1.567,noRew,,,,,,0,17,0,17,0,1,,,,,,,,,,,,,,,,,
297793,2022-12-05_24h13.34.892,vts_reward_expectancy_bt,2022.2.4,Win32,59.80503558,Chrome,1536,960,,,,,0,657,,,,,,,,,,,,,,,,,160,W,triangle,1,0,,,,,,,,,,,,,,,,switch,number,numSwt,f,1.4416,noRew,,,,,,0,18,0,18,0,1,,,,,,,,,,,,,,,,,
297793,2022-12-05_24h13.34.892,vts_reward_expectancy_bt,2022.2.4,Win32,59.80503558,Chrome,1536,960,,,,,0,657,,,,,,,,,,,,,,,,,125,D,circle,1,0,,,,,,,,,,,,,,,,switch,letter,lettSwt,j,0.5288,noRew,,,,,,0,19,0,19,0,1,,,,,,,,,,,,,,,,,
297793,2022-12-05_24h13.34.892,vts_reward_expectancy_bt,2022.2.4,Win32,59.80503558,Chrome,1536,960,,,,,0,657,,,,,,,,,,,,,,,,,125,Y,star,1,0,,,,,,,,,,,,,,,,repeat,letter,lettRpt,k,0.5492,noRew,,,,,,0,20,0,20,0,1,,,,,,,,,,,,,,,,,
297793,2022-12-05_24h13.34.892,vts_reward_expectancy_bt,2022.2.4,Win32,59.80503558,Chrome,1536,960,,,,,0,657,,,,,,,,,,,,,,,,,181,U,triangle,1,0,,,,,,,,,,,,,,,,repeat,letter,lettRpt,k,0.8142,noRew,,,,,,0,21,0,21,0,1,,,,,,,,,,,,,,,,,
297793,2022-12-05_24h13.34.892,vts_reward_expectancy_bt,2022.2.4,Win32,59.80503558,Chrome,1536,960,,,,,0,657,,,,,,,,,,,,,,,,,160,F,triangle,1,0,,,,,,,,,,,,,,,,switch,number,numSwt,f,1.0011,noRew,,,,,,0,22,0,22,0,1,,,,,,,,,,,,,,,,,
297793,2022-12-05_24h13.34.892,vts_reward_expectancy_bt,2022.2.4,Win32,59.80503558,Chrome,1536,960,,,,,0,657,,,,,,,,,,,,,,,,,139,S,circle,1,0,,,,,,,,,,,,,,,,repeat,number,numRpt,d,0.9782,noRew,,,,,,0,23,0,23,0,1,,,,,,,,,,,,,,,,,
297793,2022-12-05_24h13.34.892,vts_reward_expectancy_bt,2022.2.4,Win32,59.80503558,Chrome,1536,960,,,,,0,657,,,,,,,,,,,,,,,,,132,Y,hexagon,1,0,,,,,,,,,,,,,,,,switch,letter,lettSwt,k,0.5796,noRew,,,,,,0,24,0,24,0,1,,,,,,,,,,,,,,,,,
297793,2022-12-05_24h13.34.892,vts_reward_expectancy_bt,2022.2.4,Win32,59.80503558,Chrome,1536,960,,,,,0,657,,,,,,,,,,,,,,,,,174,D,triangle,1,0,,,,,,,,,,,,,,,,switch,number,numSwt,f,1.0184,noRew,,,,,,0,25,0,25,0,1,,,,,,,,,,,,,,,,,
297793,2022-12-05_24h13.34.892,vts_reward_expectancy_bt,2022.2.4,Win32,59.80503558,Chrome,1536,960,,,,,0,657,,,,,,,,,,,,,,,,,181,S,hexagon,1,0,,,,,,,,,,,,,,,,repeat,number,numRpt,f,0.7988,noRew,,,,,,0,26,0,26,0,1,,,,,,,,,,,,,,,,,
297793,2022-12-05_24h13.34.892,vts_reward_expectancy_bt,2022.2.4,Win32,59.80503558,Chrome,1536,960,,,,,0,657,,,,,,,,,,,,,,,,,167,F,star,1,0,,,,,,,,,,,,,,,,repeat,number,numRpt,f,1.0106,noRew,,,,,,0,27,0,27,0,1,,,,,,,,,,,,,,,,,
297793,2022-12-05_24h13.34.892,vts_reward_expectancy_bt,2022.2.4,Win32,59.80503558,Chrome,1536,960,,,,,0,657,,,,,,,,,,,,,,,,,139,F,triangle,1,0,,,,,,,,,,,,,,,,switch,letter,lettSwt,j,0.5788,noRew,,,,,,0,28,0,28,0,1,,,,,,,,,,,,,,,,,
297793,2022-12-05_24h13.34.892,vts_reward_expectancy_bt,2022.2.4,Win32,59.80503558,Chrome,1536,960,,,,,0,657,,,,,,,,,,,,,,,,,132,U,star,1,0,,,,,,,,,,,,,,,,repeat,letter,lettRpt,k,0.6472,noRew,,,,,,0,29,0,29,0,1,,,,,,,,,,,,,,,,,
297793,2022-12-05_24h13.34.892,vts_reward_expectancy_bt,2022.2.4,Win32,59.80503558,Chrome,1536,960,,,,,0,657,,,,,,,,,,,,,,,,,181,D,hexagon,1,0,,,,,,,,,,,,,,,,switch,number,numSwt,f,0.5952,noRew,,,,,,0,30,0,30,0,1,,,,,,,,,,,,,,,,,
297793,2022-12-05_24h13.34.892,vts_reward_expectancy_bt,2022.2.4,Win32,59.80503558,Chrome,1536,960,,,,,0,657,,,,,,,,,,,,,,,,,160,H,star,1,0,,,,,,,,,,,,,,,,switch,letter,lettSwt,j,0.5662,noRew,,,,,,0,31,0,31,0,1,,,,,,,,,,,,,,,,,
297793,2022-12-05_24h13.34.892,vts_reward_expectancy_bt,2022.2.4,Win32,59.80503558,Chrome,1536,960,,,,,0,657,,,,,,,,,,,,,,,,,167,Y,circle,1,0,,,,,,,,,,,,,,,,switch,number,numSwt,f,0.5461,noRew,,,,,,0,32,0,32,0,1,,,,,,,,,,,,,,,,,
297793,2022-12-05_24h13.34.892,vts_reward_expectancy_bt,2022.2.4,Win32,59.80503558,Chrome,1536,960,,,,,0,657,,,,,,,,,,,,,,,,,139,H,hexagon,1,0,,,,,,,,,,,,,,,,repeat,number,numRpt,d,1.0455,noRew,,,,,,0,33,0,33,0,1,,,,,,,,,,,,,,,,,
297793,2022-12-05_24h13.34.892,vts_reward_expectancy_bt,2022.2.4,Win32,59.80503558,Chrome,1536,960,,,,,0,657,,,,,,,,,,,,,,,,,160,D,triangle,1,0,,,,,,,,,,,,,,,,switch,letter,lettSwt,j,0.7448,noRew,,,,,,0,34,0,34,0,1,,,,,,,,,,,,,,,,,
297793,2022-12-05_24h13.34.892,vts_reward_expectancy_bt,2022.2.4,Win32,59.80503558,Chrome,1536,960,,,,,0,657,,,,,,,,,,,,,,,,,125,U,circle,1,0,,,,,,,,,,,,,,,,repeat,letter,lettRpt,k,1.3262,noRew,,,,,,0,35,0,35,0,1,,,,,,,,,,,,,,,,,
297793,2022-12-05_24h13.34.892,vts_reward_expectancy_bt,2022.2.4,Win32,59.80503558,Chrome,1536,960,,,,,0,657,,,,,,,,,,,,,,,,,174,U,star,1,0,,,,,,,,,,,,,,,,switch,number,numSwt,f,0.6019,noRew,,,,,,0,36,0,36,0,1,,,,,,,,,,,,,,,,,
297793,2022-12-05_24h13.34.892,vts_reward_expectancy_bt,2022.2.4,Win32,59.80503558,Chrome,1536,960,,,,,0,657,,,,,,,,,,,,,,,,,181,F,hexagon,1,0,,,,,,,,,,,,,,,,repeat,number,numRpt,f,0.7775,noRew,,,,,,0,37,0,37,0,1,,,,,,,,,,,,,,,,,
297793,2022-12-05_24h13.34.892,vts_reward_expectancy_bt,2022.2.4,Win32,59.80503558,Chrome,1536,960,,,,,0,657,,,,,,,,,,,,,,,,,139,W,circle,1,0,,,,,,,,,,,,,,,,switch,letter,lettSwt,k,0.5118,noRew,,,,,,0,38,0,38,0,1,,,,,,,,,,,,,,,,,
297793,2022-12-05_24h13.34.892,vts_reward_expectancy_bt,2022.2.4,Win32,59.80503558,Chrome,1536,960,,,,,0,657,,,,,,,,,,,,,,,,,167,H,triangle,1,0,,,,,,,,,,,,,,,,repeat,letter,lettRpt,j,0.5957,noRew,,,,,,0,39,0,39,0,1,,,,,,,,,,,,,,,,,
297793,2022-12-05_24h13.34.892,vts_reward_expectancy_bt,2022.2.4,Win32,59.80503558,Chrome,1536,960,,,,,0,657,,,,,,,,,,,,,,,,,160,S,circle,1,0,,,,,,,,,,,,,,,,switch,number,numSwt,f,0.8943,noRew,,,,,,0,40,0,40,0,1,,,,,,,,,,,,,,,,,
297793,2022-12-05_24h13.34.892,vts_reward_expectancy_bt,2022.2.4,Win32,59.80503558,Chrome,1536,960,,,,,0,657,,,,,,,,,,,,,,,,,139,F,star,1,0,,,,,,,,,,,,,,,,switch,letter,lettSwt,j,2.9537,noRew,,,,,,0,41,0,41,0,1,,,,,,,,,,,,,,,,,
297793,2022-12-05_24h13.34.892,vts_reward_expectancy_bt,2022.2.4,Win32,59.80503558,Chrome,1536,960,,,,,0,657,,,,,,,,,,,,,,,,,167,H,hexagon,1,0,,,,,,,,,,,,,,,,switch,number,numSwt,f,0.7093,noRew,,,,,,0,42,0,42,0,1,,,,,,,,,,,,,,,,,
297793,2022-12-05_24h13.34.892,vts_reward_expectancy_bt,2022.2.4,Win32,59.80503558,Chrome,1536,960,,,,,0,657,,,,,,,,,,,,,,,,,181,U,circle,1,0,,,,,,,,,,,,,,,,repeat,number,numRpt,f,0.6787,noRew,,,,,,0,43,0,43,0,1,,,,,,,,,,,,,,,,,
297793,2022-12-05_24h13.34.892,vts_reward_expectancy_bt,2022.2.4,Win32,59.80503558,Chrome,1536,960,,,,,0,657,,,,,,,,,,,,,,,,,139,F,circle,1,0,,,,,,,,,,,,,,,,repeat,number,numRpt,d,1.3418,noRew,,,,,,0,44,0,44,0,1,,,,,,,,,,,,,,,,,
297793,2022-12-05_24h13.34.892,vts_reward_expectancy_bt,2022.2.4,Win32,59.80503558,Chrome,1536,960,,,,,0,657,,,,,,,,,,,,,,,,,132,H,star,1,0,,,,,,,,,,,,,,,,switch,letter,lettSwt,j,0.58,noRew,,,,,,0,45,0,45,0,1,,,,,,,,,,,,,,,,,
297793,2022-12-05_24h13.34.892,vts_reward_expectancy_bt,2022.2.4,Win32,59.80503558,Chrome,1536,960,,,,,0,657,,,,,,,,,,,,,,,,,125,B,circle,1,0,,,,,,,,,,,,,,,,switch,number,numSwt,d,0.6135,noRew,,,,,,0,46,0,46,0,1,,,,,,,,,,,,,,,,,
297793,2022-12-05_24h13.34.892,vts_reward_expectancy_bt,2022.2.4,Win32,59.80503558,Chrome,1536,960,,,,,0,657,,,,,,,,,,,,,,,,,167,W,hexagon,1,0,,,,,,,,,,,,,,,,repeat,number,numRpt,f,1.163,noRew,,,,,,0,47,0,47,0,1,,,,,,,,,,,,,,,,,
297793,2022-12-05_24h13.34.892,vts_reward_expectancy_bt,2022.2.4,Win32,59.80503558,Chrome,1536,960,,,,,0,657,,,,,,,,,,,,,,,,,146,W,triangle,1,0,,,,,,,,,,,,,,,,switch,letter,lettSwt,k,0.6961,noRew,,,,,,0,48,0,48,0,1,,,,,,,,,,,,,,,,,
297793,2022-12-05_24h13.34.892,vts_reward_expectancy_bt,2022.2.4,Win32,59.80503558,Chrome,1536,960,,,,,0,657,,,,,,,,,,,,,,,,,132,U,hexagon,1,0,,,,,,,,,,,,,,,,repeat,letter,lettRpt,k,1.11,noRew,,,,,,0,49,0,49,0,1,,,,,,,,,,,,,,,,,
297793,2022-12-05_24h13.34.892,vts_reward_expectancy_bt,2022.2.4,Win32,59.80503558,Chrome,1536,960,,,,,0,657,,,,,,,,,,,,,,,,,125,S,triangle,1,0,,,,,,,,,,,,,,,,switch,number,numSwt,d,0.4955,noRew,,,,,,0,50,0,50,0,1,,,,,,,,,,,,,,,,,
297793,2022-12-05_24h13.34.892,vts_reward_expectancy_bt,2022.2.4,Win32,59.80503558,Chrome,1536,960,,,,,0,657,,,,,,,,,,,,,,,,,167,B,star,1,0,,,,,,,,,,,,,,,,repeat,number,numRpt,f,0.9602,noRew,,,,,,0,51,0,51,0,1,,,,,,,,,,,,,,,,,
297793,2022-12-05_24h13.34.892,vts_reward_expectancy_bt,2022.2.4,Win32,59.80503558,Chrome,1536,960,,,,,0,657,,,,,,,,,,,,,,,,,174,H,triangle,1,0,,,,,,,,,,,,,,,,repeat,number,numRpt,f,0.5453,noRew,,,,,,0,52,0,52,0,1,,,,,,,,,,,,,,,,,
297793,2022-12-05_24h13.34.892,vts_reward_expectancy_bt,2022.2.4,Win32,59.80503558,Chrome,1536,960,,,,,0,657,,,,,,,,,,,,,,,,,132,F,circle,1,0,,,,,,,,,,,,,,,,switch,letter,lettSwt,j,0.5511,noRew,,,,,,0,53,0,53,0,1,,,,,,,,,,,,,,,,,
297793,2022-12-05_24h13.34.892,vts_reward_expectancy_bt,2022.2.4,Win32,59.80503558,Chrome,1536,960,,,,,0,657,,,,,,,,,,,,,,,,,146,W,circle,1,0,,,,,,,,,,,,,,,,switch,number,numSwt,d,1.7407,noRew,,,,,,0,54,0,54,0,1,,,,,,,,,,,,,,,,,
297793,2022-12-05_24h13.34.892,vts_reward_expectancy_bt,2022.2.4,Win32,59.80503558,Chrome,1536,960,,,,,0,657,,,,,,,,,,,,,,,,,181,U,triangle,1,0,,,,,,,,,,,,,,,,repeat,number,numRpt,f,0.8785,noRew,,,,,,0,55,0,55,0,1,,,,,,,,,,,,,,,,,
297793,2022-12-05_24h13.34.892,vts_reward_expectancy_bt,2022.2.4,Win32,59.80503558,Chrome,1536,960,,,,,0,657,,,,,,,,,,,,,,,,,132,U,circle,1,0,,,,,,,,,,,,,,,,switch,letter,lettSwt,k,0.7318,noRew,,,,,,0,56,0,56,0,1,,,,,,,,,,,,,,,,,
297793,2022-12-05_24h13.34.892,vts_reward_expectancy_bt,2022.2.4,Win32,59.80503558,Chrome,1536,960,,,,,0,657,,,,,,,,,,,,,,,,,167,D,star,1,0,,,,,,,,,,,,,,,,repeat,letter,lettRpt,j,0.7947,noRew,,,,,,0,57,0,57,0,1,,,,,,,,,,,,,,,,,
297793,2022-12-05_24h13.34.892,vts_reward_expectancy_bt,2022.2.4,Win32,59.80503558,Chrome,1536,960,,,,,0,657,,,,,,,,,,,,,,,,,139,F,triangle,1,0,,,,,,,,,,,,,,,,switch,number,numSwt,d,0.5795,noRew,,,,,,0,58,0,58,0,1,,,,,,,,,,,,,,,,,
297793,2022-12-05_24h13.34.892,vts_reward_expectancy_bt,2022.2.4,Win32,59.80503558,Chrome,1536,960,,,,,0,657,,,,,,,,,,,,,,,,,174,Y,hexagon,1,0,,,,,,,,,,,,,,,,repeat,number,numRpt,f,0.563,noRew,,,,,,0,59,0,59,0,1,,,,,,,,,,,,,,,,,
297793,2022-12-05_24h13.34.892,vts_reward_expectancy_bt,2022.2.4,Win32,59.80503558,Chrome,1536,960,,,,,0,657,,,,,,,,,,,,,,,,,174,F,circle,1,0,,,,,,,,,,,,,,,,switch,letter,lettSwt,j,0.5686,noRew,,,,,,0,60,0,60,0,1,,,,,,,,,,,,,,,,,
297793,2022-12-05_24h13.34.892,vts_reward_expectancy_bt,2022.2.4,Win32,59.80503558,Chrome,1536,960,,,,,0,657,,,,,,,,,,,,,,,,,139,B,star,1,0,,,,,,,,,,,,,,,,switch,number,numSwt,d,0.5625,noRew,,,,,,0,61,0,61,0,1,,,,,,,,,,,,,,,,,
297793,2022-12-05_24h13.34.892,vts_reward_expectancy_bt,2022.2.4,Win32,59.80503558,Chrome,1536,960,,,,,0,657,,,,,,,,,,,,,,,,,167,U,hexagon,1,0,,,,,,,,,,,,,,,,switch,letter,lettSwt,k,0.9181,noRew,,,,,,0,62,0,62,0,1,,,,,,,,,,,,,,,,,
297793,2022-12-05_24h13.34.892,vts_reward_expectancy_bt,2022.2.4,Win32,59.80503558,Chrome,1536,960,,,,,0,657,,,,,,,,,,,,,,,,,125,S,circle,1,0,,,,,,,,,,,,,,,,switch,number,numSwt,d,1.2268,noRew,,,,,,0,63,0,63,0,1,,,,,,,,,,,,,,,,,
297793,2022-12-05_24h13.34.892,vts_reward_expectancy_bt,2022.2.4,Win32,59.80503558,Chrome,1536,960,,,,,,,,,,,,,,,,,,,,,,,,,,,,,,,,,,,,,,,,,,,,,,,,,,,,,,,,,,,,,,,,,,,,,,,,,,,,
297793,2022-12-05_24h13.34.892,vts_reward_expectancy_bt,2022.2.4,Win32,59.80503558,Chrome,1536,960,,,,,1,658,,,,,,,,,,,,,,,,,181,D,hexagon,1,0,,,,,,,,,,,,,,,,repeat,number,numRpt,f,0.8775,Lo,,,,,,0,,,,,,space,8.1192,high,0,0,0,0,1,,,,,,,,,
297793,2022-12-05_24h13.34.892,vts_reward_expectancy_bt,2022.2.4,Win32,59.80503558,Chrome,1536,960,,,,,0,658,,,,,,,,,,,,,,,,,167,F,triangle,1,0,,,,,,,,,,,,,,,,repeat,number,numRpt,f,1.0146,Hi,,,,,,0,,,,,,,,high,1,0,1,0,1,,,,,,,,,
297793,2022-12-05_24h13.34.892,vts_reward_expectancy_bt,2022.2.4,Win32,59.80503558,Chrome,1536,960,,,,,10,668,,,,,,,,,,,,,,,,,160,H,circle,1,0,,,,,,,,,,,,,,,,switch,letter,lettSwt,j,0.5355,Hi,,,,,,0,,,,,,,,high,2,0,2,0,1,,,,,,,,,
297793,2022-12-05_24h13.34.892,vts_reward_expectancy_bt,2022.2.4,Win32,59.80503558,Chrome,1536,960,,,,,10,678,,,,,,,,,,,,,,,,,125,Y,star,1,0,,,,,,,,,,,,,,,,repeat,letter,lettRpt,k,0.5335,Lo,,,,,,0,,,,,,,,high,3,0,3,0,1,,,,,,,,,
297793,2022-12-05_24h13.34.892,vts_reward_expectancy_bt,2022.2.4,Win32,59.80503558,Chrome,1536,960,,,,,1,679,,,,,,,,,,,,,,,,,132,W,hexagon,1,0,,,,,,,,,,,,,,,,repeat,letter,lettRpt,k,0.6639,Lo,,,,,,0,,,,,,,,high,4,0,4,0,1,,,,,,,,,
297793,2022-12-05_24h13.34.892,vts_reward_expectancy_bt,2022.2.4,Win32,59.80503558,Chrome,1536,960,,,,,1,680,,,,,,,,,,,,,,,,,174,S,triangle,1,0,,,,,,,,,,,,,,,,switch,number,numSwt,f,0.5125,Hi,,,,,,0,,,,,,,,high,5,0,5,0,1,,,,,,,,,
297793,2022-12-05_24h13.34.892,vts_reward_expectancy_bt,2022.2.4,Win32,59.80503558,Chrome,1536,960,,,,,10,690,,,,,,,,,,,,,,,,,139,B,circle,1,0,,,,,,,,,,,,,,,,repeat,number,numRpt,d,0.7312,Hi,,,,,,0,,,,,,,,high,6,0,6,0,1,,,,,,,,,
297793,2022-12-05_24h13.34.892,vts_reward_expectancy_bt,2022.2.4,Win32,59.80503558,Chrome,1536,960,,,,,10,700,,,,,,,,,,,,,,,,,146,U,star,1,0,,,,,,,,,,,,,,,,switch,letter,lettSwt,k,0.5134,Lo,,,,,,0,,,,,,,,high,7,0,7,0,1,,,,,,,,,
297793,2022-12-05_24h13.34.892,vts_reward_expectancy_bt,2022.2.4,Win32,59.80503558,Chrome,1536,960,,,,,0,700,,,,,,,,,,,,,,,,,181,D,hexagon,0,0,,,,,,,,,,,,,,,,repeat,letter,NA,k,0.6793,Lo,,,,,,0,,,,,,,,high,8,0,8,0,1,,,,,,,,,
297793,2022-12-05_24h13.34.892,vts_reward_expectancy_bt,2022.2.4,Win32,59.80503558,Chrome,1536,960,,,,,0,700,,,,,,,,,,,,,,,,,167,F,triangle,1,1,,,,,,,,,,,,,,,,switch,number,numSwt,f,1.4936,Hi,,,,,,0,,,,,,,,high,9,0,9,0,1,,,,,,,,,
297793,2022-12-05_24h13.34.892,vts_reward_expectancy_bt,2022.2.4,Win32,59.80503558,Chrome,1536,960,,,,,1,701,,,,,,,,,,,,,,,,,160,H,star,1,0,,,,,,,,,,,,,,,,switch,letter,lettSwt,j,0.6178,Lo,,,,,,0,,,,,,,,high,10,0,10,0,1,,,,,,,,,
297793,2022-12-05_24h13.34.892,vts_reward_expectancy_bt,2022.2.4,Win32,59.80503558,Chrome,1536,960,,,,,0,701,,,,,,,,,,,,,,,,,125,Y,circle,1,0,,,,,,,,,,,,,,,,switch,number,numSwt,d,0.6452,Hi,,,,,,0,,,,,,,,high,11,0,11,0,1,,,,,,,,,
297793,2022-12-05_24h13.34.892,vts_reward_expectancy_bt,2022.2.4,Win32,59.80503558,Chrome,1536,960,,,,,10,711,,,,,,,,,,,,,,,,,132,W,hexagon,1,0,,,,,,,,,,,,,,,,switch,letter,lettSwt,k,0.5035,Lo,,,,,,0,,,,,,,,high,12,0,12,0,1,,,,,,,,,
297793,2022-12-05_24h13.34.892,vts_reward_expectancy_bt,2022.2.4,Win32,59.80503558,Chrome,1536,960,,,,,10,721,,,,,,,,,,,,,,,,,174,S,star,1,0,,,,,,,,,,,,,,,,repeat,letter,lettRpt,k,0.5028,Lo,,,,,,0,,,,,,,,high,13,0,13,0,1,,,,,,,,,
297793,2022-12-05_24h13.34.892,vts_reward_expectancy_bt,2022.2.4,Win32,59.80503558,Chrome,1536,960,,,,,10,731,,,,,,,,,,,,,,,,,139,B,circle,1,0,,,,,,,,,,,,,,,,switch,number,numSwt,d,0.587,Hi,,,,,,0,,,,,,,,high,14,0,14,0,1,,,,,,,,,
297793,2022-12-05_24h13.34.892,vts_reward_expectancy_bt,2022.2.4,Win32,59.80503558,Chrome,1536,960,,,,,10,741,,,,,,,,,,,,,,,,,146,U,triangle,1,0,,,,,,,,,,,,,,,,repeat,number,numRpt,d,0.5803,Hi,,,,,,0,,,,,,,,high,15,0,15,0,1,,,,,,,,,
297793,2022-12-05_24h13.34.892,vts_reward_expectancy_bt,2022.2.4,Win32,59.80503558,Chrome,1536,960,,,,,10,751,,,,,,,,,,,,,,,,,160,B,star,1,0,,,,,,,,,,,,,,,,switch,letter,lettSwt,j,0.5125,Lo,,,,,,0,,,,,,,,high,16,0,16,0,1,,,,,,,,,
297793,2022-12-05_24h13.34.892,vts_reward_expectancy_bt,2022.2.4,Win32,59.80503558,Chrome,1536,960,,,,,1,752,,,,,,,,,,,,,,,,,181,Y,circle,1,0,,,,,,,,,,,,,,,,switch,number,numSwt,f,0.5117,Hi,,,,,,0,,,,,,,,high,17,0,17,0,1,,,,,,,,,
297793,2022-12-05_24h13.34.892,vts_reward_expectancy_bt,2022.2.4,Win32,59.80503558,Chrome,1536,960,,,,,1,753,,,,,,,,,,,,,,,,,139,F,hexagon,1,0,,,,,,,,,,,,,,,,switch,letter,lettSwt,j,0.4989,Lo,,,,,,0,,,,,,,,high,18,0,18,0,1,,,,,,,,,
297793,2022-12-05_24h13.34.892,vts_reward_expectancy_bt,2022.2.4,Win32,59.80503558,Chrome,1536,960,,,,,0,753,,,,,,,,,,,,,,,,,174,S,triangle,1,0,,,,,,,,,,,,,,,,switch,number,numSwt,f,0.7022,Hi,,,,,,0,,,,,,,,high,19,0,19,0,1,,,,,,,,,
297793,2022-12-05_24h13.34.892,vts_reward_expectancy_bt,2022.2.4,Win32,59.80503558,Chrome,1536,960,,,,,1,754,,,,,,,,,,,,,,,,,167,U,hexagon,1,0,,,,,,,,,,,,,,,,switch,letter,lettSwt,k,0.4129,Lo,,,,,,0,,,,,,,,high,20,0,20,0,1,,,,,,,,,
297793,2022-12-05_24h13.34.892,vts_reward_expectancy_bt,2022.2.4,Win32,59.80503558,Chrome,1536,960,,,,,10,764,,,,,,,,,,,,,,,,,125,W,triangle,1,0,,,,,,,,,,,,,,,,switch,number,numSwt,d,0.4468,Hi,,,,,,0,,,,,,,,high,21,0,21,0,1,,,,,,,,,
297793,2022-12-05_24h13.34.892,vts_reward_expectancy_bt,2022.2.4,Win32,59.80503558,Chrome,1536,960,,,,,1,765,,,,,,,,,,,,,,,,,132,D,star,1,0,,,,,,,,,,,,,,,,switch,letter,lettSwt,j,0.5305,Lo,,,,,,0,,,,,,,,high,22,0,22,0,1,,,,,,,,,
297793,2022-12-05_24h13.34.892,vts_reward_expectancy_bt,2022.2.4,Win32,59.80503558,Chrome,1536,960,,,,,0,765,,,,,,,,,,,,,,,,,146,H,circle,1,0,,,,,,,,,,,,,,,,switch,number,numSwt,d,0.6531,Hi,,,,,,0,,,,,,,,high,23,0,23,0,1,,,,,,,,,
297793,2022-12-05_24h13.34.892,vts_reward_expectancy_bt,2022.2.4,Win32,59.80503558,Chrome,1536,960,,,,,1,766,,,,,,,,,,,,,,,,,181,Y,hexagon,1,0,,,,,,,,,,,,,,,,switch,letter,lettSwt,k,0.4625,Lo,,,,,,0,,,,,,,,high,24,0,24,0,1,,,,,,,,,
297793,2022-12-05_24h13.34.892,vts_reward_expectancy_bt,2022.2.4,Win32,59.80503558,Chrome,1536,960,,,,,10,776,,,,,,,,,,,,,,,,,125,W,triangle,1,0,,,,,,,,,,,,,,,,switch,number,numSwt,d,0.4027,Hi,,,,,,0,,,,,,,,high,25,0,25,0,1,,,,,,,,,
297793,2022-12-05_24h13.34.892,vts_reward_expectancy_bt,2022.2.4,Win32,59.80503558,Chrome,1536,960,,,,,0,776,,,,,,,,,,,,,,,,,167,S,star,0,0,,,,,,,,,,,,,,,,repeat,number,NA,d,0.4523,Hi,,,,,,0,,,,,,,,high,26,0,26,0,1,,,,,,,,,
297793,2022-12-05_24h13.34.892,vts_reward_expectancy_bt,2022.2.4,Win32,59.80503558,Chrome,1536,960,,,,,1,777,,,,,,,,,,,,,,,,,146,U,circle,1,1,,,,,,,,,,,,,,,,repeat,number,numRpt,d,0.5798,Hi,,,,,,0,,,,,,,,high,27,0,27,0,1,,,,,,,,,
297793,2022-12-05_24h13.34.892,vts_reward_expectancy_bt,2022.2.4,Win32,59.80503558,Chrome,1536,960,,,,,1,778,,,,,,,,,,,,,,,,,139,H,star,1,0,,,,,,,,,,,,,,,,repeat,number,numRpt,d,0.4115,Lo,,,,,,0,,,,,,,,high,28,0,28,0,1,,,,,,,,,
297793,2022-12-05_24h13.34.892,vts_reward_expectancy_bt,2022.2.4,Win32,59.80503558,Chrome,1536,960,,,,,10,788,,,,,,,,,,,,,,,,,160,D,triangle,1,0,,,,,,,,,,,,,,,,repeat,number,numRpt,f,0.5027,Hi,,,,,,0,,,,,,,,high,29,0,29,0,1,,,,,,,,,
297793,2022-12-05_24h13.34.892,vts_reward_expectancy_bt,2022.2.4,Win32,59.80503558,Chrome,1536,960,,,,,10,798,,,,,,,,,,,,,,,,,174,B,circle,1,0,,,,,,,,,,,,,,,,repeat,number,numRpt,f,0.4961,Hi,,,,,,0,,,,,,,,high,30,0,30,0,1,,,,,,,,,
297793,2022-12-05_24h13.34.892,vts_reward_expectancy_bt,2022.2.4,Win32,59.80503558,Chrome,1536,960,,,,,0,798,,,,,,,,,,,,,,,,,132,F,hexagon,0,0,,,,,,,,,,,,,,,,repeat,number,NA,f,0.7614,Hi,,,,,,0,,,,,,,,high,31,0,31,0,1,,,,,,,,,
297793,2022-12-05_24h13.34.892,vts_reward_expectancy_bt,2022.2.4,Win32,59.80503558,Chrome,1536,960,,,,,10,808,,,,,,,,,,,,,,,,,181,B,circle,1,1,,,,,,,,,,,,,,,,repeat,number,numRpt,f,0.5163,Hi,,,,,,1,,,,,,space,5.4796,high,0,0,0,0,1,,,,,,,,,
297793,2022-12-05_24h13.34.892,vts_reward_expectancy_bt,2022.2.4,Win32,59.80503558,Chrome,1536,960,,,,,10,818,,,,,,,,,,,,,,,,,160,Y,hexagon,1,0,,,,,,,,,,,,,,,,switch,letter,lettSwt,k,0.4856,Lo,,,,,,1,,,,,,,,high,1,0,1,0,1,,,,,,,,,
297793,2022-12-05_24h13.34.892,vts_reward_expectancy_bt,2022.2.4,Win32,59.80503558,Chrome,1536,960,,,,,1,819,,,,,,,,,,,,,,,,,125,F,star,1,0,,,,,,,,,,,,,,,,switch,number,numSwt,d,0.4661,Lo,,,,,,1,,,,,,,,high,2,0,2,0,1,,,,,,,,,
297793,2022-12-05_24h13.34.892,vts_reward_expectancy_bt,2022.2.4,Win32,59.80503558,Chrome,1536,960,,,,,10,829,,,,,,,,,,,,,,,,,174,U,triangle,1,0,,,,,,,,,,,,,,,,repeat,number,numRpt,f,0.4497,Hi,,,,,,1,,,,,,,,high,3,0,3,0,1,,,,,,,,,
297793,2022-12-05_24h13.34.892,vts_reward_expectancy_bt,2022.2.4,Win32,59.80503558,Chrome,1536,960,,,,,1,830,,,,,,,,,,,,,,,,,167,D,circle,1,0,,,,,,,,,,,,,,,,repeat,number,numRpt,f,0.4171,Hi,,,,,,1,,,,,,,,high,4,0,4,0,1,,,,,,,,,
297793,2022-12-05_24h13.34.892,vts_reward_expectancy_bt,2022.2.4,Win32,59.80503558,Chrome,1536,960,,,,,1,831,,,,,,,,,,,,,,,,,132,W,hexagon,1,0,,,,,,,,,,,,,,,,repeat,number,numRpt,d,0.4709,Lo,,,,,,1,,,,,,,,high,5,0,5,0,1,,,,,,,,,
297793,2022-12-05_24h13.34.892,vts_reward_expectancy_bt,2022.2.4,Win32,59.80503558,Chrome,1536,960,,,,,1,832,,,,,,,,,,,,,,,,,139,H,star,1,0,,,,,,,,,,,,,,,,switch,letter,lettSwt,j,0.551,Lo,,,,,,1,,,,,,,,high,6,0,6,0,1,,,,,,,,,
297793,2022-12-05_24h13.34.892,vts_reward_expectancy_bt,2022.2.4,Win32,59.80503558,Chrome,1536,960,,,,,0,832,,,,,,,,,,,,,,,,,146,S,triangle,0,0,,,,,,,,,,,,,,,,switch,number,NA,f,0.4926,Lo,,,,,,1,,,,,,,,high,7,0,7,0,1,,,,,,,,,
297793,2022-12-05_24h13.34.892,vts_reward_expectancy_bt,2022.2.4,Win32,59.80503558,Chrome,1536,960,,,,,1,833,,,,,,,,,,,,,,,,,181,B,hexagon,1,1,,,,,,,,,,,,,,,,switch,letter,lettSwt,j,0.5034,Lo,,,,,,1,,,,,,,,high,8,0,8,0,1,,,,,,,,,
297793,2022-12-05_24h13.34.892,vts_reward_expectancy_bt,2022.2.4,Win32,59.80503558,Chrome,1536,960,,,,,0,833,,,,,,,,,,,,,,,,,160,Y,triangle,1,0,,,,,,,,,,,,,,,,switch,number,numSwt,f,0.698,Hi,,,,,,1,,,,,,,,high,9,0,9,0,1,,,,,,,,,
297793,2022-12-05_24h13.34.892,vts_reward_expectancy_bt,2022.2.4,Win32,59.80503558,Chrome,1536,960,,,,,0,833,,,,,,,,,,,,,,,,,125,F,circle,1,0,,,,,,,,,,,,,,,,repeat,number,numRpt,d,0.5353,Hi,,,,,,1,,,,,,,,high,10,0,10,0,1,,,,,,,,,
297793,2022-12-05_24h13.34.892,vts_reward_expectancy_bt,2022.2.4,Win32,59.80503558,Chrome,1536,960,,,,,1,834,,,,,,,,,,,,,,,,,174,U,star,1,0,,,,,,,,,,,,,,,,repeat,number,numRpt,f,0.4174,Lo,,,,,,1,,,,,,,,high,11,0,11,0,1,,,,,,,,,
297793,2022-12-05_24h13.34.892,vts_reward_expectancy_bt,2022.2.4,Win32,59.80503558,Chrome,1536,960,,,,,10,844,,,,,,,,,,,,,,,,,167,D,triangle,1,0,,,,,,,,,,,,,,,,switch,letter,lettSwt,j,0.4661,Hi,,,,,,1,,,,,,,,high,12,0,12,0,1,,,,,,,,,
297793,2022-12-05_24h13.34.892,vts_reward_expectancy_bt,2022.2.4,Win32,59.80503558,Chrome,1536,960,,,,,10,854,,,,,,,,,,,,,,,,,132,W,circle,1,0,,,,,,,,,,,,,,,,repeat,letter,lettRpt,k,0.4009,Hi,,,,,,1,,,,,,,,high,13,0,13,0,1,,,,,,,,,
297793,2022-12-05_24h13.34.892,vts_reward_expectancy_bt,2022.2.4,Win32,59.80503558,Chrome,1536,960,,,,,1,855,,,,,,,,,,,,,,,,,139,H,hexagon,1,0,,,,,,,,,,,,,,,,repeat,letter,lettRpt,j,0.5065,Lo,,,,,,1,,,,,,,,high,14,0,14,0,1,,,,,,,,,
297793,2022-12-05_24h13.34.892,vts_reward_expectancy_bt,2022.2.4,Win32,59.80503558,Chrome,1536,960,,,,,1,856,,,,,,,,,,,,,,,,,146,S,star,1,0,,,,,,,,,,,,,,,,repeat,letter,lettRpt,k,0.5823,Lo,,,,,,1,,,,,,,,high,15,0,15,0,1,,,,,,,,,
297793,2022-12-05_24h13.34.892,vts_reward_expectancy_bt,2022.2.4,Win32,59.80503558,Chrome,1536,960,,,,,10,866,,,,,,,,,,,,,,,,,174,D,circle,1,0,,,,,,,,,,,,,,,,repeat,letter,lettRpt,j,0.4826,Hi,,,,,,1,,,,,,,,high,16,0,16,0,1,,,,,,,,,
297793,2022-12-05_24h13.34.892,vts_reward_expectancy_bt,2022.2.4,Win32,59.80503558,Chrome,1536,960,,,,,10,876,,,,,,,,,,,,,,,,,139,Y,triangle,1,0,,,,,,,,,,,,,,,,repeat,letter,lettRpt,k,0.4855,Hi,,,,,,1,,,,,,,,high,17,0,17,0,1,,,,,,,,,
297793,2022-12-05_24h13.34.892,vts_reward_expectancy_bt,2022.2.4,Win32,59.80503558,Chrome,1536,960,,,,,1,877,,,,,,,,,,,,,,,,,132,W,hexagon,1,0,,,,,,,,,,,,,,,,repeat,letter,lettRpt,k,0.5,Lo,,,,,,1,,,,,,,,high,18,0,18,0,1,,,,,,,,,
297793,2022-12-05_24h13.34.892,vts_reward_expectancy_bt,2022.2.4,Win32,59.80503558,Chrome,1536,960,,,,,1,878,,,,,,,,,,,,,,,,,125,H,star,1,0,,,,,,,,,,,,,,,,repeat,letter,lettRpt,j,0.4499,Lo,,,,,,1,,,,,,,,high,19,0,19,0,1,,,,,,,,,
297793,2022-12-05_24h13.34.892,vts_reward_expectancy_bt,2022.2.4,Win32,59.80503558,Chrome,1536,960,,,,,1,879,,,,,,,,,,,,,,,,,167,U,hexagon,1,0,,,,,,,,,,,,,,,,repeat,letter,lettRpt,k,0.4993,Lo,,,,,,1,,,,,,,,high,20,0,20,0,1,,,,,,,,,
297793,2022-12-05_24h13.34.892,vts_reward_expectancy_bt,2022.2.4,Win32,59.80503558,Chrome,1536,960,,,,,1,880,,,,,,,,,,,,,,,,,146,F,star,1,0,,,,,,,,,,,,,,,,repeat,letter,lettRpt,j,0.4339,Lo,,,,,,1,,,,,,,,high,21,0,21,0,1,,,,,,,,,
297793,2022-12-05_24h13.34.892,vts_reward_expectancy_bt,2022.2.4,Win32,59.80503558,Chrome,1536,960,,,,,10,890,,,,,,,,,,,,,,,,,181,B,circle,1,0,,,,,,,,,,,,,,,,switch,number,numSwt,f,0.4191,Hi,,,,,,1,,,,,,,,high,22,0,22,0,1,,,,,,,,,
297793,2022-12-05_24h13.34.892,vts_reward_expectancy_bt,2022.2.4,Win32,59.80503558,Chrome,1536,960,,,,,10,900,,,,,,,,,,,,,,,,,160,S,triangle,1,0,,,,,,,,,,,,,,,,repeat,number,numRpt,f,0.5173,Hi,,,,,,1,,,,,,,,high,23,0,23,0,1,,,,,,,,,
297793,2022-12-05_24h13.34.892,vts_reward_expectancy_bt,2022.2.4,Win32,59.80503558,Chrome,1536,960,,,,,1,901,,,,,,,,,,,,,,,,,174,U,hexagon,1,0,,,,,,,,,,,,,,,,repeat,number,numRpt,f,0.4324,Lo,,,,,,1,,,,,,,,high,24,0,24,0,1,,,,,,,,,
297793,2022-12-05_24h13.34.892,vts_reward_expectancy_bt,2022.2.4,Win32,59.80503558,Chrome,1536,960,,,,,10,911,,,,,,,,,,,,,,,,,167,D,circle,1,0,,,,,,,,,,,,,,,,repeat,number,numRpt,f,0.5016,Hi,,,,,,1,,,,,,,,high,25,0,25,0,1,,,,,,,,,
297793,2022-12-05_24h13.34.892,vts_reward_expectancy_bt,2022.2.4,Win32,59.80503558,Chrome,1536,960,,,,,10,921,,,,,,,,,,,,,,,,,139,B,star,1,0,,,,,,,,,,,,,,,,repeat,number,numRpt,d,0.4991,Lo,,,,,,1,,,,,,,,high,26,0,26,0,1,,,,,,,,,
297793,2022-12-05_24h13.34.892,vts_reward_expectancy_bt,2022.2.4,Win32,59.80503558,Chrome,1536,960,,,,,10,931,,,,,,,,,,,,,,,,,181,F,triangle,1,0,,,,,,,,,,,,,,,,repeat,number,numRpt,f,0.3977,Hi,,,,,,1,,,,,,,,high,27,0,27,0,1,,,,,,,,,
297793,2022-12-05_24h13.34.892,vts_reward_expectancy_bt,2022.2.4,Win32,59.80503558,Chrome,1536,960,,,,,1,932,,,,,,,,,,,,,,,,,160,S,star,1,0,,,,,,,,,,,,,,,,repeat,number,numRpt,f,0.665,Lo,,,,,,1,,,,,,,,high,28,0,28,0,1,,,,,,,,,
297793,2022-12-05_24h13.34.892,vts_reward_expectancy_bt,2022.2.4,Win32,59.80503558,Chrome,1536,960,,,,,0,932,,,,,,,,,,,,,,,,,132,W,circle,1,0,,,,,,,,,,,,,,,,repeat,number,numRpt,d,0.5461,Hi,,,,,,1,,,,,,,,high,29,0,29,0,1,,,,,,,,,
297793,2022-12-05_24h13.34.892,vts_reward_expectancy_bt,2022.2.4,Win32,59.80503558,Chrome,1536,960,,,,,1,933,,,,,,,,,,,,,,,,,125,H,hexagon,1,0,,,,,,,,,,,,,,,,repeat,number,numRpt,d,0.5111,Lo,,,,,,1,,,,,,,,high,30,0,30,0,1,,,,,,,,,
297793,2022-12-05_24h13.34.892,vts_reward_expectancy_bt,2022.2.4,Win32,59.80503558,Chrome,1536,960,,,,,0,933,,,,,,,,,,,,,,,,,146,Y,triangle,1,0,,,,,,,,,,,,,,,,repeat,number,numRpt,d,0.5646,Hi,,,,,,1,,,,,,,,high,31,0,31,0,1,,,,,,,,,
297793,2022-12-05_24h13.34.892,vts_reward_expectancy_bt,2022.2.4,Win32,59.80503558,Chrome,1536,960,,,,,0,933,,,,,,,,,,,,,,,,,139,D,circle,1,0,,,,,,,,,,,,,,,,repeat,number,numRpt,d,0.6457,Hi,,,,,,2,,,,,,space,1.5366,high,0,0,0,0,1,,,,,,,,,
297793,2022-12-05_24h13.34.892,vts_reward_expectancy_bt,2022.2.4,Win32,59.80503558,Chrome,1536,960,,,,,0,933,,,,,,,,,,,,,,,,,146,Y,triangle,1,0,,,,,,,,,,,,,,,,repeat,number,numRpt,d,0.4819,Hi,,,,,,2,,,,,,,,high,1,0,1,0,1,,,,,,,,,
297793,2022-12-05_24h13.34.892,vts_reward_expectancy_bt,2022.2.4,Win32,59.80503558,Chrome,1536,960,,,,,1,934,,,,,,,,,,,,,,,,,160,W,star,1,0,,,,,,,,,,,,,,,,switch,letter,lettSwt,k,0.5799,Lo,,,,,,2,,,,,,,,high,2,0,2,0,1,,,,,,,,,
297793,2022-12-05_24h13.34.892,vts_reward_expectancy_bt,2022.2.4,Win32,59.80503558,Chrome,1536,960,,,,,0,934,,,,,,,,,,,,,,,,,181,S,hexagon,0,0,,,,,,,,,,,,,,,,repeat,letter,NA,j,0.4836,Lo,,,,,,2,,,,,,,,high,3,0,3,0,1,,,,,,,,,
297793,2022-12-05_24h13.34.892,vts_reward_expectancy_bt,2022.2.4,Win32,59.80503558,Chrome,1536,960,,,,,10,944,,,,,,,,,,,,,,,,,167,U,circle,1,1,,,,,,,,,,,,,,,,switch,number,numSwt,f,0.4296,Hi,,,,,,2,,,,,,,,high,4,0,4,0,1,,,,,,,,,
297793,2022-12-05_24h13.34.892,vts_reward_expectancy_bt,2022.2.4,Win32,59.80503558,Chrome,1536,960,,,,,0,944,,,,,,,,,,,,,,,,,125,B,triangle,0,0,,,,,,,,,,,,,,,,repeat,number,NA,f,0.5198,Hi,,,,,,2,,,,,,,,high,5,0,5,0,1,,,,,,,,,
297793,2022-12-05_24h13.34.892,vts_reward_expectancy_bt,2022.2.4,Win32,59.80503558,Chrome,1536,960,,,,,1,945,,,,,,,,,,,,,,,,,132,F,star,1,1,,,,,,,,,,,,,,,,repeat,number,numRpt,d,0.4023,Lo,,,,,,2,,,,,,,,high,6,0,6,0,1,,,,,,,,,
297793,2022-12-05_24h13.34.892,vts_reward_expectancy_bt,2022.2.4,Win32,59.80503558,Chrome,1536,960,,,,,10,955,,,,,,,,,,,,,,,,,174,H,hexagon,1,0,,,,,,,,,,,,,,,,repeat,number,numRpt,f,0.5352,Lo,,,,,,2,,,,,,,,high,7,0,7,0,1,,,,,,,,,
297793,2022-12-05_24h13.34.892,vts_reward_expectancy_bt,2022.2.4,Win32,59.80503558,Chrome,1536,960,,,,,10,965,,,,,,,,,,,,,,,,,139,D,star,1,0,,,,,,,,,,,,,,,,repeat,number,numRpt,d,0.3796,Lo,,,,,,2,,,,,,,,high,8,0,8,0,1,,,,,,,,,
297793,2022-12-05_24h13.34.892,vts_reward_expectancy_bt,2022.2.4,Win32,59.80503558,Chrome,1536,960,,,,,10,975,,,,,,,,,,,,,,,,,146,Y,circle,1,0,,,,,,,,,,,,,,,,repeat,number,numRpt,d,0.4299,Hi,,,,,,2,,,,,,,,high,9,0,9,0,1,,,,,,,,,
297793,2022-12-05_24h13.34.892,vts_reward_expectancy_bt,2022.2.4,Win32,59.80503558,Chrome,1536,960,,,,,0,975,,,,,,,,,,,,,,,,,160,W,triangle,1,0,,,,,,,,,,,,,,,,repeat,number,numRpt,f,0.5129,Hi,,,,,,2,,,,,,,,high,10,0,10,0,1,,,,,,,,,
297793,2022-12-05_24h13.34.892,vts_reward_expectancy_bt,2022.2.4,Win32,59.80503558,Chrome,1536,960,,,,,1,976,,,,,,,,,,,,,,,,,181,S,hexagon,1,0,,,,,,,,,,,,,,,,switch,letter,lettSwt,k,0.4806,Lo,,,,,,2,,,,,,,,high,11,0,11,0,1,,,,,,,,,
297793,2022-12-05_24h13.34.892,vts_reward_expectancy_bt,2022.2.4,Win32,59.80503558,Chrome,1536,960,,,,,1,977,,,,,,,,,,,,,,,,,167,U,hexagon,1,0,,,,,,,,,,,,,,,,repeat,letter,lettRpt,k,0.4615,Lo,,,,,,2,,,,,,,,high,12,0,12,0,1,,,,,,,,,
297793,2022-12-05_24h13.34.892,vts_reward_expectancy_bt,2022.2.4,Win32,59.80503558,Chrome,1536,960,,,,,1,978,,,,,,,,,,,,,,,,,125,B,star,1,0,,,,,,,,,,,,,,,,switch,number,numSwt,d,0.3664,Lo,,,,,,2,,,,,,,,high,13,0,13,0,1,,,,,,,,,
297793,2022-12-05_24h13.34.892,vts_reward_expectancy_bt,2022.2.4,Win32,59.80503558,Chrome,1536,960,,,,,10,988,,,,,,,,,,,,,,,,,132,F,triangle,1,0,,,,,,,,,,,,,,,,repeat,number,numRpt,d,0.3798,Hi,,,,,,2,,,,,,,,high,14,0,14,0,1,,,,,,,,,
297793,2022-12-05_24h13.34.892,vts_reward_expectancy_bt,2022.2.4,Win32,59.80503558,Chrome,1536,960,,,,,10,998,,,,,,,,,,,,,,,,,174,H,circle,1,0,,,,,,,,,,,,,,,,repeat,number,numRpt,f,0.4459,Hi,,,,,,2,,,,,,,,high,15,0,15,0,1,,,,,,,,,
297793,2022-12-05_24h13.34.892,vts_reward_expectancy_bt,2022.2.4,Win32,59.80503558,Chrome,1536,960,,,,,1,999,,,,,,,,,,,,,,,,,181,S,triangle,1,0,,,,,,,,,,,,,,,,repeat,number,numRpt,f,0.4297,Hi,,,,,,2,,,,,,,,high,16,0,16,0,1,,,,,,,,,
297793,2022-12-05_24h13.34.892,vts_reward_expectancy_bt,2022.2.4,Win32,59.80503558,Chrome,1536,960,,,,,10,1009,,,,,,,,,,,,,,,,,174,D,star,1,0,,,,,,,,,,,,,,,,switch,letter,lettSwt,j,0.4703,Lo,,,,,,2,,,,,,,,high,17,0,17,0,1,,,,,,,,,
297793,2022-12-05_24h13.34.892,vts_reward_expectancy_bt,2022.2.4,Win32,59.80503558,Chrome,1536,960,,,,,10,1019,,,,,,,,,,,,,,,,,132,F,hexagon,1,0,,,,,,,,,,,,,,,,repeat,letter,lettRpt,j,0.4805,Lo,,,,,,2,,,,,,,,high,18,0,18,0,1,,,,,,,,,
297793,2022-12-05_24h13.34.892,vts_reward_expectancy_bt,2022.2.4,Win32,59.80503558,Chrome,1536,960,,,,,10,1029,,,,,,,,,,,,,,,,,139,B,circle,1,0,,,,,,,,,,,,,,,,switch,number,numSwt,d,0.4299,Hi,,,,,,2,,,,,,,,high,19,0,19,0,1,,,,,,,,,
297793,2022-12-05_24h13.34.892,vts_reward_expectancy_bt,2022.2.4,Win32,59.80503558,Chrome,1536,960,,,,,10,1039,,,,,,,,,,,,,,,,,160,H,circle,1,0,,,,,,,,,,,,,,,,repeat,number,numRpt,f,0.4296,Hi,,,,,,2,,,,,,,,high,20,0,20,0,1,,,,,,,,,
297793,2022-12-05_24h13.34.892,vts_reward_expectancy_bt,2022.2.4,Win32,59.80503558,Chrome,1536,960,,,,,10,1049,,,,,,,,,,,,,,,,,167,U,triangle,1,0,,,,,,,,,,,,,,,,repeat,number,numRpt,f,0.4454,Hi,,,,,,2,,,,,,,,high,21,0,21,0,1,,,,,,,,,
297793,2022-12-05_24h13.34.892,vts_reward_expectancy_bt,2022.2.4,Win32,59.80503558,Chrome,1536,960,,,,,1,1050,,,,,,,,,,,,,,,,,146,Y,star,1,0,,,,,,,,,,,,,,,,switch,letter,lettSwt,k,0.3951,Lo,,,,,,2,,,,,,,,high,22,0,22,0,1,,,,,,,,,
297793,2022-12-05_24h13.34.892,vts_reward_expectancy_bt,2022.2.4,Win32,59.80503558,Chrome,1536,960,,,,,1,1051,,,,,,,,,,,,,,,,,125,W,hexagon,1,0,,,,,,,,,,,,,,,,repeat,letter,lettRpt,k,0.5826,Lo,,,,,,2,,,,,,,,high,23,0,23,0,1,,,,,,,,,
297793,2022-12-05_24h13.34.892,vts_reward_expectancy_bt,2022.2.4,Win32,59.80503558,Chrome,1536,960,,,,,0,1051,,,,,,,,,,,,,,,,,132,F,star,0,0,,,,,,,,,,,,,,,,switch,number,NA,f,0.4462,Lo,,,,,,2,,,,,,,,high,24,0,24,0,1,,,,,,,,,
297793,2022-12-05_24h13.34.892,vts_reward_expectancy_bt,2022.2.4,Win32,59.80503558,Chrome,1536,960,,,,,1,1052,,,,,,,,,,,,,,,,,181,H,triangle,1,1,,,,,,,,,,,,,,,,repeat,number,numRpt,f,0.4293,Hi,,,,,,2,,,,,,,,high,25,0,25,0,1,,,,,,,,,
297793,2022-12-05_24h13.34.892,vts_reward_expectancy_bt,2022.2.4,Win32,59.80503558,Chrome,1536,960,,,,,1,1053,,,,,,,,,,,,,,,,,167,U,hexagon,1,0,,,,,,,,,,,,,,,,switch,letter,lettSwt,k,0.4132,Lo,,,,,,2,,,,,,,,high,26,0,26,0,1,,,,,,,,,
297793,2022-12-05_24h13.34.892,vts_reward_expectancy_bt,2022.2.4,Win32,59.80503558,Chrome,1536,960,,,,,0,1053,,,,,,,,,,,,,,,,,174,D,circle,1,0,,,,,,,,,,,,,,,,switch,number,numSwt,f,0.4951,Hi,,,,,,2,,,,,,,,high,27,0,27,0,1,,,,,,,,,
297793,2022-12-05_24h13.34.892,vts_reward_expectancy_bt,2022.2.4,Win32,59.80503558,Chrome,1536,960,,,,,10,1063,,,,,,,,,,,,,,,,,139,B,circle,1,0,,,,,,,,,,,,,,,,repeat,number,numRpt,d,0.398,Hi,,,,,,2,,,,,,,,high,28,0,28,0,1,,,,,,,,,
297793,2022-12-05_24h13.34.892,vts_reward_expectancy_bt,2022.2.4,Win32,59.80503558,Chrome,1536,960,,,,,10,1073,,,,,,,,,,,,,,,,,125,W,star,1,0,,,,,,,,,,,,,,,,repeat,number,numRpt,d,0.379,Lo,,,,,,2,,,,,,,,high,29,0,29,0,1,,,,,,,,,
297793,2022-12-05_24h13.34.892,vts_reward_expectancy_bt,2022.2.4,Win32,59.80503558,Chrome,1536,960,,,,,10,1083,,,,,,,,,,,,,,,,,160,Y,hexagon,1,0,,,,,,,,,,,,,,,,switch,letter,lettSwt,k,0.3956,Lo,,,,,,2,,,,,,,,high,30,0,30,0,1,,,,,,,,,
297793,2022-12-05_24h13.34.892,vts_reward_expectancy_bt,2022.2.4,Win32,59.80503558,Chrome,1536,960,,,,,0,1083,,,,,,,,,,,,,,,,,146,S,triangle,0,0,,,,,,,,,,,,,,,,switch,number,NA,f,0.5181,Lo,,,,,,2,,,,,,,,high,31,0,31,0,1,,,,,,,,,
297793,2022-12-05_24h13.34.892,vts_reward_expectancy_bt,2022.2.4,Win32,59.80503558,Chrome,1536,960,,,,,1,1084,,,,,,,,,,,,,,,,,174,H,star,1,1,,,,,,,,,,,,,,,,repeat,number,numRpt,f,0.4787,Lo,,,,,,3,,,,,,space,0.8477,high,0,0,0,0,1,,,,,,,,,
297793,2022-12-05_24h13.34.892,vts_reward_expectancy_bt,2022.2.4,Win32,59.80503558,Chrome,1536,960,,,,,0,1084,,,,,,,,,,,,,,,,,181,S,circle,1,0,,,,,,,,,,,,,,,,repeat,number,numRpt,f,0.5114,Hi,,,,,,3,,,,,,,,high,1,0,1,0,1,,,,,,,,,
297793,2022-12-05_24h13.34.892,vts_reward_expectancy_bt,2022.2.4,Win32,59.80503558,Chrome,1536,960,,,,,10,1094,,,,,,,,,,,,,,,,,132,D,triangle,1,0,,,,,,,,,,,,,,,,repeat,number,numRpt,d,0.3789,Hi,,,,,,3,,,,,,,,high,2,0,2,0,1,,,,,,,,,
297793,2022-12-05_24h13.34.892,vts_reward_expectancy_bt,2022.2.4,Win32,59.80503558,Chrome,1536,960,,,,,10,1104,,,,,,,,,,,,,,,,,146,U,hexagon,1,0,,,,,,,,,,,,,,,,switch,letter,lettSwt,k,0.4431,Lo,,,,,,3,,,,,,,,high,3,0,3,0,1,,,,,,,,,
297793,2022-12-05_24h13.34.892,vts_reward_expectancy_bt,2022.2.4,Win32,59.80503558,Chrome,1536,960,,,,,1,1105,,,,,,,,,,,,,,,,,167,W,star,1,0,,,,,,,,,,,,,,,,switch,number,numSwt,f,0.4299,Lo,,,,,,3,,,,,,,,high,4,0,4,0,1,,,,,,,,,
297793,2022-12-05_24h13.34.892,vts_reward_expectancy_bt,2022.2.4,Win32,59.80503558,Chrome,1536,960,,,,,0,1105,,,,,,,,,,,,,,,,,160,F,circle,1,0,,,,,,,,,,,,,,,,repeat,number,numRpt,f,0.5852,Hi,,,,,,3,,,,,,,,high,5,0,5,0,1,,,,,,,,,
297793,2022-12-05_24h13.34.892,vts_reward_expectancy_bt,2022.2.4,Win32,59.80503558,Chrome,1536,960,,,,,10,1115,,,,,,,,,,,,,,,,,139,B,triangle,1,0,,,,,,,,,,,,,,,,repeat,number,numRpt,d,0.3968,Hi,,,,,,3,,,,,,,,high,6,0,6,0,1,,,,,,,,,
297793,2022-12-05_24h13.34.892,vts_reward_expectancy_bt,2022.2.4,Win32,59.80503558,Chrome,1536,960,,,,,1,1116,,,,,,,,,,,,,,,,,125,Y,hexagon,1,0,,,,,,,,,,,,,,,,switch,letter,lettSwt,k,0.4798,Lo,,,,,,3,,,,,,,,high,7,0,7,0,1,,,,,,,,,
297793,2022-12-05_24h13.34.892,vts_reward_expectancy_bt,2022.2.4,Win32,59.80503558,Chrome,1536,960,,,,,0,1116,,,,,,,,,,,,,,,,,174,H,circle,0,0,,,,,,,,,,,,,,,,repeat,letter,NA,k,0.4831,Lo,,,,,,3,,,,,,,,high,8,0,8,0,1,,,,,,,,,
297793,2022-12-05_24h13.34.892,vts_reward_expectancy_bt,2022.2.4,Win32,59.80503558,Chrome,1536,960,,,,,10,1126,,,,,,,,,,,,,,,,,181,S,star,1,1,,,,,,,,,,,,,,,,switch,number,numSwt,f,0.4306,Lo,,,,,,3,,,,,,,,high,9,0,9,0,1,,,,,,,,,
297793,2022-12-05_24h13.34.892,vts_reward_expectancy_bt,2022.2.4,Win32,59.80503558,Chrome,1536,960,,,,,10,1136,,,,,,,,,,,,,,,,,132,D,hexagon,1,0,,,,,,,,,,,,,,,,switch,letter,lettSwt,j,0.3485,Lo,,,,,,3,,,,,,,,high,10,0,10,0,1,,,,,,,,,
297793,2022-12-05_24h13.34.892,vts_reward_expectancy_bt,2022.2.4,Win32,59.80503558,Chrome,1536,960,,,,,0,1136,,,,,,,,,,,,,,,,,146,U,triangle,0,0,,,,,,,,,,,,,,,,switch,number,NA,f,0.4639,Lo,,,,,,3,,,,,,,,high,11,0,11,0,1,,,,,,,,,
297793,2022-12-05_24h13.34.892,vts_reward_expectancy_bt,2022.2.4,Win32,59.80503558,Chrome,1536,960,,,,,0,1136,,,,,,,,,,,,,,,,,167,W,circle,1,1,,,,,,,,,,,,,,,,repeat,number,numRpt,f,0.4293,Hi,,,,,,3,,,,,,,,high,12,0,12,0,1,,,,,,,,,
297793,2022-12-05_24h13.34.892,vts_reward_expectancy_bt,2022.2.4,Win32,59.80503558,Chrome,1536,960,,,,,0,1136,,,,,,,,,,,,,,,,,160,F,star,0,0,,,,,,,,,,,,,,,,repeat,number,NA,d,0.579,Hi,,,,,,3,,,,,,,,high,13,0,13,0,1,,,,,,,,,
297793,2022-12-05_24h13.34.892,vts_reward_expectancy_bt,2022.2.4,Win32,59.80503558,Chrome,1536,960,,,,,10,1146,,,,,,,,,,,,,,,,,139,B,hexagon,1,1,,,,,,,,,,,,,,,,repeat,number,numRpt,d,0.5017,Lo,,,,,,3,,,,,,,,high,14,0,14,0,1,,,,,,,,,
297793,2022-12-05_24h13.34.892,vts_reward_expectancy_bt,2022.2.4,Win32,59.80503558,Chrome,1536,960,,,,,0,1146,,,,,,,,,,,,,,,,,125,Y,triangle,1,0,,,,,,,,,,,,,,,,repeat,number,numRpt,d,0.4309,Hi,,,,,,3,,,,,,,,high,15,0,15,0,1,,,,,,,,,
297793,2022-12-05_24h13.34.892,vts_reward_expectancy_bt,2022.2.4,Win32,59.80503558,Chrome,1536,960,,,,,10,1156,,,,,,,,,,,,,,,,,160,H,triangle,1,0,,,,,,,,,,,,,,,,repeat,number,numRpt,f,0.4119,Hi,,,,,,3,,,,,,,,high,16,0,16,0,1,,,,,,,,,
297793,2022-12-05_24h13.34.892,vts_reward_expectancy_bt,2022.2.4,Win32,59.80503558,Chrome,1536,960,,,,,0,1156,,,,,,,,,,,,,,,,,125,S,star,0,0,,,,,,,,,,,,,,,,switch,letter,NA,j,0.446,Hi,,,,,,3,,,,,,,,high,17,0,17,0,1,,,,,,,,,
297793,2022-12-05_24h13.34.892,vts_reward_expectancy_bt,2022.2.4,Win32,59.80503558,Chrome,1536,960,,,,,1,1157,,,,,,,,,,,,,,,,,167,B,hexagon,1,1,,,,,,,,,,,,,,,,switch,number,numSwt,f,0.5456,Lo,,,,,,3,,,,,,,,high,18,0,18,0,1,,,,,,,,,
297793,2022-12-05_24h13.34.892,vts_reward_expectancy_bt,2022.2.4,Win32,59.80503558,Chrome,1536,960,,,,,0,1157,,,,,,,,,,,,,,,,,174,U,circle,1,0,,,,,,,,,,,,,,,,repeat,number,numRpt,f,0.4317,Hi,,,,,,3,,,,,,,,high,19,0,19,0,1,,,,,,,,,
297793,2022-12-05_24h13.34.892,vts_reward_expectancy_bt,2022.2.4,Win32,59.80503558,Chrome,1536,960,,,,,1,1158,,,,,,,,,,,,,,,,,132,D,hexagon,1,0,,,,,,,,,,,,,,,,repeat,number,numRpt,d,0.3789,Lo,,,,,,3,,,,,,,,high,20,0,20,0,1,,,,,,,,,
297793,2022-12-05_24h13.34.892,vts_reward_expectancy_bt,2022.2.4,Win32,59.80503558,Chrome,1536,960,,,,,1,1159,,,,,,,,,,,,,,,,,139,Y,triangle,1,0,,,,,,,,,,,,,,,,repeat,number,numRpt,d,0.3694,Hi,,,,,,3,,,,,,,,high,21,0,21,0,1,,,,,,,,,
297793,2022-12-05_24h13.34.892,vts_reward_expectancy_bt,2022.2.4,Win32,59.80503558,Chrome,1536,960,,,,,0,1159,,,,,,,,,,,,,,,,,181,F,star,0,0,,,,,,,,,,,,,,,,switch,letter,NA,k,0.364,Hi,,,,,,3,,,,,,,,high,22,0,22,0,1,,,,,,,,,
297793,2022-12-05_24h13.34.892,vts_reward_expectancy_bt,2022.2.4,Win32,59.80503558,Chrome,1536,960,,,,,0,1159,,,,,,,,,,,,,,,,,146,W,circle,1,1,,,,,,,,,,,,,,,,switch,number,numSwt,d,0.5132,Hi,,,,,,3,,,,,,,,high,23,0,23,0,1,,,,,,,,,
297793,2022-12-05_24h13.34.892,vts_reward_expectancy_bt,2022.2.4,Win32,59.80503558,Chrome,1536,960,,,,,1,1160,,,,,,,,,,,,,,,,,181,B,triangle,1,0,,,,,,,,,,,,,,,,repeat,number,numRpt,f,0.3966,Hi,,,,,,3,,,,,,,,high,24,0,24,0,1,,,,,,,,,
297793,2022-12-05_24h13.34.892,vts_reward_expectancy_bt,2022.2.4,Win32,59.80503558,Chrome,1536,960,,,,,0,1160,,,,,,,,,,,,,,,,,132,H,circle,0,0,,,,,,,,,,,,,,,,switch,letter,NA,k,0.3802,Hi,,,,,,3,,,,,,,,high,25,0,25,0,1,,,,,,,,,
297793,2022-12-05_24h13.34.892,vts_reward_expectancy_bt,2022.2.4,Win32,59.80503558,Chrome,1536,960,,,,,1,1161,,,,,,,,,,,,,,,,,139,U,hexagon,1,1,,,,,,,,,,,,,,,,repeat,letter,lettRpt,k,0.4126,Lo,,,,,,3,,,,,,,,high,26,0,26,0,1,,,,,,,,,
297793,2022-12-05_24h13.34.892,vts_reward_expectancy_bt,2022.2.4,Win32,59.80503558,Chrome,1536,960,,,,,1,1162,,,,,,,,,,,,,,,,,167,Y,star,1,0,,,,,,,,,,,,,,,,switch,number,numSwt,f,0.5846,Lo,,,,,,3,,,,,,,,high,27,0,27,0,1,,,,,,,,,
297793,2022-12-05_24h13.34.892,vts_reward_expectancy_bt,2022.2.4,Win32,59.80503558,Chrome,1536,960,,,,,1,1163,,,,,,,,,,,,,,,,,125,F,star,1,0,,,,,,,,,,,,,,,,switch,letter,lettSwt,j,0.5296,Lo,,,,,,3,,,,,,,,high,28,0,28,0,1,,,,,,,,,
297793,2022-12-05_24h13.34.892,vts_reward_expectancy_bt,2022.2.4,Win32,59.80503558,Chrome,1536,960,,,,,0,1163,,,,,,,,,,,,,,,,,160,D,triangle,1,0,,,,,,,,,,,,,,,,switch,number,numSwt,f,0.4297,Hi,,,,,,3,,,,,,,,high,29,0,29,0,1,,,,,,,,,
297793,2022-12-05_24h13.34.892,vts_reward_expectancy_bt,2022.2.4,Win32,59.80503558,Chrome,1536,960,,,,,0,1163,,,,,,,,,,,,,,,,,146,W,hexagon,0,0,,,,,,,,,,,,,,,,repeat,number,NA,f,0.3636,Hi,,,,,,3,,,,,,,,high,30,0,30,0,1,,,,,,,,,
297793,2022-12-05_24h13.34.892,vts_reward_expectancy_bt,2022.2.4,Win32,59.80503558,Chrome,1536,960,,,,,0,1163,,,,,,,,,,,,,,,,,174,S,circle,1,1,,,,,,,,,,,,,,,,repeat,number,numRpt,f,0.4467,Hi,,,,,,3,,,,,,,,high,31,0,31,0,1,,,,,,,,,
297793,2022-12-05_24h13.34.892,vts_reward_expectancy_bt,2022.2.4,Win32,59.80503558,Chrome,1536,960,,,,,0,1163,,,,,,,,,,,,,,,,,139,Y,triangle,1,0,,,,,,,,,,,,,,,,switch,letter,lettSwt,k,0.4834,Hi,,,,,,4,,,,,,space,591.2775,high,0,0,0,0,1,,,,,,,,,
297793,2022-12-05_24h13.34.892,vts_reward_expectancy_bt,2022.2.4,Win32,59.80503558,Chrome,1536,960,,,,,10,1173,,,,,,,,,,,,,,,,,125,D,hexagon,1,0,,,,,,,,,,,,,,,,repeat,letter,lettRpt,j,0.3622,Lo,,,,,,4,,,,,,,,high,1,0,1,0,1,,,,,,,,,
297793,2022-12-05_24h13.34.892,vts_reward_expectancy_bt,2022.2.4,Win32,59.80503558,Chrome,1536,960,,,,,1,1174,,,,,,,,,,,,,,,,,174,W,star,1,0,,,,,,,,,,,,,,,,repeat,letter,lettRpt,k,0.3634,Lo,,,,,,4,,,,,,,,high,2,0,2,0,1,,,,,,,,,
297793,2022-12-05_24h13.34.892,vts_reward_expectancy_bt,2022.2.4,Win32,59.80503558,Chrome,1536,960,,,,,0,1174,,,,,,,,,,,,,,,,,167,B,circle,1,0,,,,,,,,,,,,,,,,repeat,letter,lettRpt,j,0.4472,Hi,,,,,,4,,,,,,,,high,3,0,3,0,1,,,,,,,,,
297793,2022-12-05_24h13.34.892,vts_reward_expectancy_bt,2022.2.4,Win32,59.80503558,Chrome,1536,960,,,,,0,1174,,,,,,,,,,,,,,,,,132,S,triangle,1,0,,,,,,,,,,,,,,,,repeat,letter,lettRpt,k,0.5245,Hi,,,,,,4,,,,,,,,high,4,0,4,0,1,,,,,,,,,
297793,2022-12-05_24h13.34.892,vts_reward_expectancy_bt,2022.2.4,Win32,59.80503558,Chrome,1536,960,,,,,1,1175,,,,,,,,,,,,,,,,,160,F,hexagon,1,0,,,,,,,,,,,,,,,,switch,number,numSwt,f,0.4964,Lo,,,,,,4,,,,,,,,high,5,0,5,0,1,,,,,,,,,
297793,2022-12-05_24h13.34.892,vts_reward_expectancy_bt,2022.2.4,Win32,59.80503558,Chrome,1536,960,,,,,1,1176,,,,,,,,,,,,,,,,,181,H,star,1,0,,,,,,,,,,,,,,,,repeat,number,numRpt,f,0.3825,Lo,,,,,,4,,,,,,,,high,6,0,6,0,1,,,,,,,,,
297793,2022-12-05_24h13.34.892,vts_reward_expectancy_bt,2022.2.4,Win32,59.80503558,Chrome,1536,960,,,,,0,1176,,,,,,,,,,,,,,,,,146,U,circle,1,0,,,,,,,,,,,,,,,,repeat,number,numRpt,d,0.5494,Hi,,,,,,4,,,,,,,,high,7,0,7,0,1,,,,,,,,,
297793,2022-12-05_24h13.34.892,vts_reward_expectancy_bt,2022.2.4,Win32,59.80503558,Chrome,1536,960,,,,,0,1176,,,,,,,,,,,,,,,,,139,Y,circle,0,0,,,,,,,,,,,,,,,,repeat,number,NA,f,0.3076,Hi,,,,,,4,,,,,,,,high,8,0,8,0,1,,,,,,,,,
297793,2022-12-05_24h13.34.892,vts_reward_expectancy_bt,2022.2.4,Win32,59.80503558,Chrome,1536,960,,,,,0,1176,,,,,,,,,,,,,,,,,125,D,triangle,1,1,,,,,,,,,,,,,,,,repeat,number,numRpt,d,0.4665,Hi,,,,,,4,,,,,,,,high,9,0,9,0,1,,,,,,,,,
297793,2022-12-05_24h13.34.892,vts_reward_expectancy_bt,2022.2.4,Win32,59.80503558,Chrome,1536,960,,,,,1,1177,,,,,,,,,,,,,,,,,174,W,hexagon,1,0,,,,,,,,,,,,,,,,repeat,number,numRpt,f,0.3724,Lo,,,,,,4,,,,,,,,high,10,0,10,0,1,,,,,,,,,
297793,2022-12-05_24h13.34.892,vts_reward_expectancy_bt,2022.2.4,Win32,59.80503558,Chrome,1536,960,,,,,1,1178,,,,,,,,,,,,,,,,,167,B,star,1,0,,,,,,,,,,,,,,,,repeat,number,numRpt,f,0.5166,Lo,,,,,,4,,,,,,,,high,11,0,11,0,1,,,,,,,,,
297793,2022-12-05_24h13.34.892,vts_reward_expectancy_bt,2022.2.4,Win32,59.80503558,Chrome,1536,960,,,,,1,1179,,,,,,,,,,,,,,,,,132,S,star,1,0,,,,,,,,,,,,,,,,repeat,number,numRpt,d,0.4171,Lo,,,,,,4,,,,,,,,high,12,0,12,0,1,,,,,,,,,
297793,2022-12-05_24h13.34.892,vts_reward_expectancy_bt,2022.2.4,Win32,59.80503558,Chrome,1536,960,,,,,0,1179,,,,,,,,,,,,,,,,,160,F,triangle,0,0,,,,,,,,,,,,,,,,switch,letter,NA,k,0.4043,Lo,,,,,,4,,,,,,,,high,13,0,13,0,1,,,,,,,,,
297793,2022-12-05_24h13.34.892,vts_reward_expectancy_bt,2022.2.4,Win32,59.80503558,Chrome,1536,960,,,,,0,1179,,,,,,,,,,,,,,,,,181,H,circle,1,1,,,,,,,,,,,,,,,,repeat,letter,lettRpt,j,0.4847,Hi,,,,,,4,,,,,,,,high,14,0,14,0,1,,,,,,,,,
297793,2022-12-05_24h13.34.892,vts_reward_expectancy_bt,2022.2.4,Win32,59.80503558,Chrome,1536,960,,,,,1,1180,,,,,,,,,,,,,,,,,146,U,hexagon,1,0,,,,,,,,,,,,,,,,repeat,letter,lettRpt,k,0.4835,Lo,,,,,,4,,,,,,,,high,15,0,15,0,1,,,,,,,,,
297793,2022-12-05_24h13.34.892,vts_reward_expectancy_bt,2022.2.4,Win32,59.80503558,Chrome,1536,960,,,,,1,1181,,,,,,,,,,,,,,,,,160,B,triangle,1,0,,,,,,,,,,,,,,,,repeat,letter,lettRpt,j,0.3253,Hi,,,,,,4,,,,,,,,high,16,0,16,0,1,,,,,,,,,
297793,2022-12-05_24h13.34.892,vts_reward_expectancy_bt,2022.2.4,Win32,59.80503558,Chrome,1536,960,,,,,1,1182,,,,,,,,,,,,,,,,,167,Y,circle,1,0,,,,,,,,,,,,,,,,repeat,letter,lettRpt,k,0.401,Hi,,,,,,4,,,,,,,,high,17,0,17,0,1,,,,,,,,,
297793,2022-12-05_24h13.34.892,vts_reward_expectancy_bt,2022.2.4,Win32,59.80503558,Chrome,1536,960,,,,,1,1183,,,,,,,,,,,,,,,,,181,H,hexagon,1,0,,,,,,,,,,,,,,,,repeat,letter,lettRpt,j,0.466,Lo,,,,,,4,,,,,,,,high,18,0,18,0,1,,,,,,,,,
297793,2022-12-05_24h13.34.892,vts_reward_expectancy_bt,2022.2.4,Win32,59.80503558,Chrome,1536,960,,,,,0,1183,,,,,,,,,,,,,,,,,125,W,star,0,0,,,,,,,,,,,,,,,,repeat,letter,NA,j,0.3017,Lo,,,,,,4,,,,,,,,high,19,0,19,0,1,,,,,,,,,
297793,2022-12-05_24h13.34.892,vts_reward_expectancy_bt,2022.2.4,Win32,59.80503558,Chrome,1536,960,,,,,0,1183,,,,,,,,,,,,,,,,,146,S,triangle,0,1,,,,,,,,,,,,,,,,repeat,letter,NA,j,0.3846,Lo,,,,,,4,,,,,,,,high,20,0,20,0,1,,,,,,,,,
297793,2022-12-05_24h13.34.892,vts_reward_expectancy_bt,2022.2.4,Win32,59.80503558,Chrome,1536,960,,,,,0,1183,,,,,,,,,,,,,,,,,139,F,circle,1,1,,,,,,,,,,,,,,,,repeat,letter,lettRpt,j,0.4336,Hi,,,,,,4,,,,,,,,high,21,0,21,0,1,,,,,,,,,
297793,2022-12-05_24h13.34.892,vts_reward_expectancy_bt,2022.2.4,Win32,59.80503558,Chrome,1536,960,,,,,1,1184,,,,,,,,,,,,,,,,,132,U,star,1,0,,,,,,,,,,,,,,,,repeat,letter,lettRpt,k,0.3499,Lo,,,,,,4,,,,,,,,high,22,0,22,0,1,,,,,,,,,
297793,2022-12-05_24h13.34.892,vts_reward_expectancy_bt,2022.2.4,Win32,59.80503558,Chrome,1536,960,,,,,1,1185,,,,,,,,,,,,,,,,,174,D,hexagon,1,0,,,,,,,,,,,,,,,,repeat,letter,lettRpt,j,0.4337,Lo,,,,,,4,,,,,,,,high,23,0,23,0,1,,,,,,,,,
297793,2022-12-05_24h13.34.892,vts_reward_expectancy_bt,2022.2.4,Win32,59.80503558,Chrome,1536,960,,,,,1,1186,,,,,,,,,,,,,,,,,146,D,hexagon,1,0,,,,,,,,,,,,,,,,switch,number,numSwt,d,0.5194,Lo,,,,,,4,,,,,,,,high,24,0,24,0,1,,,,,,,,,
297793,2022-12-05_24h13.34.892,vts_reward_expectancy_bt,2022.2.4,Win32,59.80503558,Chrome,1536,960,,,,,1,1187,,,,,,,,,,,,,,,,,181,Y,circle,1,0,,,,,,,,,,,,,,,,switch,letter,lettSwt,k,0.3346,Hi,,,,,,4,,,,,,,,high,25,0,25,0,1,,,,,,,,,
297793,2022-12-05_24h13.34.892,vts_reward_expectancy_bt,2022.2.4,Win32,59.80503558,Chrome,1536,960,,,,,0,1187,,,,,,,,,,,,,,,,,139,F,triangle,1,0,,,,,,,,,,,,,,,,switch,number,numSwt,d,0.4666,Hi,,,,,,4,,,,,,,,high,26,0,26,0,1,,,,,,,,,
297793,2022-12-05_24h13.34.892,vts_reward_expectancy_bt,2022.2.4,Win32,59.80503558,Chrome,1536,960,,,,,10,1197,,,,,,,,,,,,,,,,,167,S,star,1,0,,,,,,,,,,,,,,,,repeat,number,numRpt,f,0.5326,Lo,,,,,,4,,,,,,,,high,27,0,27,0,1,,,,,,,,,
297793,2022-12-05_24h13.34.892,vts_reward_expectancy_bt,2022.2.4,Win32,59.80503558,Chrome,1536,960,,,,,0,1197,,,,,,,,,,,,,,,,,160,W,triangle,1,0,,,,,,,,,,,,,,,,repeat,number,numRpt,f,0.4245,Hi,,,,,,4,,,,,,,,high,28,0,28,0,1,,,,,,,,,
297793,2022-12-05_24h13.34.892,vts_reward_expectancy_bt,2022.2.4,Win32,59.80503558,Chrome,1536,960,,,,,0,1197,,,,,,,,,,,,,,,,,174,H,hexagon,0,0,,,,,,,,,,,,,,,,switch,letter,NA,k,0.4673,Hi,,,,,,4,,,,,,,,high,29,0,29,0,1,,,,,,,,,
297793,2022-12-05_24h13.34.892,vts_reward_expectancy_bt,2022.2.4,Win32,59.80503558,Chrome,1536,960,,,,,0,1197,,,,,,,,,,,,,,,,,125,U,circle,0,1,,,,,,,,,,,,,,,,repeat,letter,NA,j,0.3657,Hi,,,,,,4,,,,,,,,high,30,0,30,0,1,,,,,,,,,
297793,2022-12-05_24h13.34.892,vts_reward_expectancy_bt,2022.2.4,Win32,59.80503558,Chrome,1536,960,,,,,1,1198,,,,,,,,,,,,,,,,,132,B,star,1,1,,,,,,,,,,,,,,,,repeat,letter,lettRpt,j,0.3586,Lo,,,,,,4,,,,,,,,high,31,0,31,0,1,,,,,,,,,
297793,2022-12-05_24h13.34.892,vts_reward_expectancy_bt,2022.2.4,Win32,59.80503558,Chrome,1536,960,,,,,0,1198,,,,,,,,,,,,,,,,,174,F,circle,1,0,,,,,,,,,,,,,,,,switch,number,numSwt,f,0.5065,Hi,,,,,,5,,,,,,space,4.3672,high,0,0,0,0,1,,,,,,,,,
297793,2022-12-05_24h13.34.892,vts_reward_expectancy_bt,2022.2.4,Win32,59.80503558,Chrome,1536,960,,,,,10,1208,,,,,,,,,,,,,,,,,146,U,star,1,0,,,,,,,,,,,,,,,,repeat,number,numRpt,d,0.5338,Lo,,,,,,5,,,,,,,,high,1,0,1,0,1,,,,,,,,,
297793,2022-12-05_24h13.34.892,vts_reward_expectancy_bt,2022.2.4,Win32,59.80503558,Chrome,1536,960,,,,,0,1208,,,,,,,,,,,,,,,,,139,Y,triangle,1,0,,,,,,,,,,,,,,,,repeat,number,numRpt,d,0.4334,Hi,,,,,,5,,,,,,,,high,2,0,2,0,1,,,,,,,,,
297793,2022-12-05_24h13.34.892,vts_reward_expectancy_bt,2022.2.4,Win32,59.80503558,Chrome,1536,960,,,,,1,1209,,,,,,,,,,,,,,,,,181,H,hexagon,1,0,,,,,,,,,,,,,,,,repeat,number,numRpt,f,0.4674,Lo,,,,,,5,,,,,,,,high,3,0,3,0,1,,,,,,,,,
297793,2022-12-05_24h13.34.892,vts_reward_expectancy_bt,2022.2.4,Win32,59.80503558,Chrome,1536,960,,,,,10,1219,,,,,,,,,,,,,,,,,125,W,circle,1,0,,,,,,,,,,,,,,,,repeat,number,numRpt,d,0.4174,Hi,,,,,,5,,,,,,,,high,4,0,4,0,1,,,,,,,,,
297793,2022-12-05_24h13.34.892,vts_reward_expectancy_bt,2022.2.4,Win32,59.80503558,Chrome,1536,960,,,,,0,1219,,,,,,,,,,,,,,,,,167,B,star,0,0,,,,,,,,,,,,,,,,repeat,number,NA,d,0.4171,Hi,,,,,,5,,,,,,,,high,5,0,5,0,1,,,,,,,,,
297793,2022-12-05_24h13.34.892,vts_reward_expectancy_bt,2022.2.4,Win32,59.80503558,Chrome,1536,960,,,,,0,1219,,,,,,,,,,,,,,,,,160,S,triangle,1,1,,,,,,,,,,,,,,,,repeat,number,numRpt,f,0.482,Hi,,,,,,5,,,,,,,,high,6,0,6,0,1,,,,,,,,,
297793,2022-12-05_24h13.34.892,vts_reward_expectancy_bt,2022.2.4,Win32,59.80503558,Chrome,1536,960,,,,,10,1229,,,,,,,,,,,,,,,,,132,D,hexagon,1,0,,,,,,,,,,,,,,,,repeat,number,numRpt,d,0.4031,Lo,,,,,,5,,,,,,,,high,7,0,7,0,1,,,,,,,,,
297793,2022-12-05_24h13.34.892,vts_reward_expectancy_bt,2022.2.4,Win32,59.80503558,Chrome,1536,960,,,,,10,1239,,,,,,,,,,,,,,,,,174,F,hexagon,1,0,,,,,,,,,,,,,,,,repeat,number,numRpt,f,0.3341,Lo,,,,,,5,,,,,,,,high,8,0,8,0,1,,,,,,,,,
297793,2022-12-05_24h13.34.892,vts_reward_expectancy_bt,2022.2.4,Win32,59.80503558,Chrome,1536,960,,,,,0,1239,,,,,,,,,,,,,,,,,146,U,circle,0,0,,,,,,,,,,,,,,,,repeat,number,NA,f,0.4172,Lo,,,,,,5,,,,,,,,high,9,0,9,0,1,,,,,,,,,
297793,2022-12-05_24h13.34.892,vts_reward_expectancy_bt,2022.2.4,Win32,59.80503558,Chrome,1536,960,,,,,1,1240,,,,,,,,,,,,,,,,,139,Y,star,1,1,,,,,,,,,,,,,,,,repeat,number,numRpt,d,0.4057,Lo,,,,,,5,,,,,,,,high,10,0,10,0,1,,,,,,,,,
297793,2022-12-05_24h13.34.892,vts_reward_expectancy_bt,2022.2.4,Win32,59.80503558,Chrome,1536,960,,,,,10,1250,,,,,,,,,,,,,,,,,181,H,triangle,1,0,,,,,,,,,,,,,,,,repeat,number,numRpt,f,0.3994,Hi,,,,,,5,,,,,,,,high,11,0,11,0,1,,,,,,,,,
297793,2022-12-05_24h13.34.892,vts_reward_expectancy_bt,2022.2.4,Win32,59.80503558,Chrome,1536,960,,,,,0,1250,,,,,,,,,,,,,,,,,125,W,circle,1,0,,,,,,,,,,,,,,,,repeat,number,numRpt,d,0.4199,Hi,,,,,,5,,,,,,,,high,12,0,12,0,1,,,,,,,,,
297793,2022-12-05_24h13.34.892,vts_reward_expectancy_bt,2022.2.4,Win32,59.80503558,Chrome,1536,960,,,,,1,1251,,,,,,,,,,,,,,,,,167,B,star,1,0,,,,,,,,,,,,,,,,repeat,number,numRpt,f,0.3371,Lo,,,,,,5,,,,,,,,high,13,0,13,0,1,,,,,,,,,
297793,2022-12-05_24h13.34.892,vts_reward_expectancy_bt,2022.2.4,Win32,59.80503558,Chrome,1536,960,,,,,10,1261,,,,,,,,,,,,,,,,,160,S,triangle,1,0,,,,,,,,,,,,,,,,repeat,number,numRpt,f,0.3483,Hi,,,,,,5,,,,,,,,high,14,0,14,0,1,,,,,,,,,
297793,2022-12-05_24h13.34.892,vts_reward_expectancy_bt,2022.2.4,Win32,59.80503558,Chrome,1536,960,,,,,1,1262,,,,,,,,,,,,,,,,,132,D,hexagon,1,0,,,,,,,,,,,,,,,,repeat,number,numRpt,d,0.3622,Lo,,,,,,5,,,,,,,,high,15,0,15,0,1,,,,,,,,,
297793,2022-12-05_24h13.34.892,vts_reward_expectancy_bt,2022.2.4,Win32,59.80503558,Chrome,1536,960,,,,,1,1263,,,,,,,,,,,,,,,,,181,U,circle,1,0,,,,,,,,,,,,,,,,repeat,number,numRpt,f,0.3477,Hi,,,,,,5,,,,,,,,high,16,0,16,0,1,,,,,,,,,
297793,2022-12-05_24h13.34.892,vts_reward_expectancy_bt,2022.2.4,Win32,59.80503558,Chrome,1536,960,,,,,1,1264,,,,,,,,,,,,,,,,,174,D,star,1,0,,,,,,,,,,,,,,,,repeat,number,numRpt,f,0.42,Lo,,,,,,5,,,,,,,,high,17,0,17,0,1,,,,,,,,,
297793,2022-12-05_24h13.34.892,vts_reward_expectancy_bt,2022.2.4,Win32,59.80503558,Chrome,1536,960,,,,,0,1264,,,,,,,,,,,,,,,,,146,H,hexagon,0,0,,,,,,,,,,,,,,,,repeat,number,NA,f,0.5623,Lo,,,,,,5,,,,,,,,high,18,0,18,0,1,,,,,,,,,
297793,2022-12-05_24h13.34.892,vts_reward_expectancy_bt,2022.2.4,Win32,59.80503558,Chrome,1536,960,,,,,1,1265,,,,,,,,,,,,,,,,,160,W,triangle,1,1,,,,,,,,,,,,,,,,repeat,number,numRpt,f,0.4153,Hi,,,,,,5,,,,,,,,high,19,0,19,0,1,,,,,,,,,
297793,2022-12-05_24h13.34.892,vts_reward_expectancy_bt,2022.2.4,Win32,59.80503558,Chrome,1536,960,,,,,1,1266,,,,,,,,,,,,,,,,,167,S,hexagon,1,0,,,,,,,,,,,,,,,,repeat,number,numRpt,f,0.4457,Lo,,,,,,5,,,,,,,,high,20,0,20,0,1,,,,,,,,,
297793,2022-12-05_24h13.34.892,vts_reward_expectancy_bt,2022.2.4,Win32,59.80503558,Chrome,1536,960,,,,,0,1266,,,,,,,,,,,,,,,,,139,Y,star,0,0,,,,,,,,,,,,,,,,repeat,number,NA,f,0.37,Lo,,,,,,5,,,,,,,,high,21,0,21,0,1,,,,,,,,,
297793,2022-12-05_24h13.34.892,vts_reward_expectancy_bt,2022.2.4,Win32,59.80503558,Chrome,1536,960,,,,,0,1266,,,,,,,,,,,,,,,,,125,B,triangle,1,1,,,,,,,,,,,,,,,,repeat,number,numRpt,d,0.4652,Hi,,,,,,5,,,,,,,,high,22,0,22,0,1,,,,,,,,,
297793,2022-12-05_24h13.34.892,vts_reward_expectancy_bt,2022.2.4,Win32,59.80503558,Chrome,1536,960,,,,,10,1276,,,,,,,,,,,,,,,,,132,F,circle,1,0,,,,,,,,,,,,,,,,repeat,number,numRpt,d,0.4123,Hi,,,,,,5,,,,,,,,high,23,0,23,0,1,,,,,,,,,
297793,2022-12-05_24h13.34.892,vts_reward_expectancy_bt,2022.2.4,Win32,59.80503558,Chrome,1536,960,,,,,1,1277,,,,,,,,,,,,,,,,,174,U,star,1,0,,,,,,,,,,,,,,,,repeat,number,numRpt,f,0.38,Lo,,,,,,5,,,,,,,,high,24,0,24,0,1,,,,,,,,,
297793,2022-12-05_24h13.34.892,vts_reward_expectancy_bt,2022.2.4,Win32,59.80503558,Chrome,1536,960,,,,,10,1287,,,,,,,,,,,,,,,,,146,F,circle,1,0,,,,,,,,,,,,,,,,repeat,number,numRpt,d,0.3975,Hi,,,,,,5,,,,,,,,high,25,0,25,0,1,,,,,,,,,
297793,2022-12-05_24h13.34.892,vts_reward_expectancy_bt,2022.2.4,Win32,59.80503558,Chrome,1536,960,,,,,1,1288,,,,,,,,,,,,,,,,,139,H,hexagon,1,0,,,,,,,,,,,,,,,,repeat,number,numRpt,d,0.4536,Lo,,,,,,5,,,,,,,,high,26,0,26,0,1,,,,,,,,,
297793,2022-12-05_24h13.34.892,vts_reward_expectancy_bt,2022.2.4,Win32,59.80503558,Chrome,1536,960,,,,,1,1289,,,,,,,,,,,,,,,,,125,Y,triangle,1,0,,,,,,,,,,,,,,,,repeat,number,numRpt,d,0.3633,Hi,,,,,,5,,,,,,,,high,27,0,27,0,1,,,,,,,,,
297793,2022-12-05_24h13.34.892,vts_reward_expectancy_bt,2022.2.4,Win32,59.80503558,Chrome,1536,960,,,,,1,1290,,,,,,,,,,,,,,,,,132,S,hexagon,1,0,,,,,,,,,,,,,,,,repeat,number,numRpt,d,0.3693,Lo,,,,,,5,,,,,,,,high,28,0,28,0,1,,,,,,,,,
297793,2022-12-05_24h13.34.892,vts_reward_expectancy_bt,2022.2.4,Win32,59.80503558,Chrome,1536,960,,,,,0,1290,,,,,,,,,,,,,,,,,160,B,circle,1,0,,,,,,,,,,,,,,,,repeat,number,numRpt,f,0.497,Hi,,,,,,5,,,,,,,,high,29,0,29,0,1,,,,,,,,,
297793,2022-12-05_24h13.34.892,vts_reward_expectancy_bt,2022.2.4,Win32,59.80503558,Chrome,1536,960,,,,,0,1290,,,,,,,,,,,,,,,,,167,D,star,0,0,,,,,,,,,,,,,,,,repeat,number,NA,d,0.3958,Hi,,,,,,5,,,,,,,,high,30,0,30,0,1,,,,,,,,,
297793,2022-12-05_24h13.34.892,vts_reward_expectancy_bt,2022.2.4,Win32,59.80503558,Chrome,1536,960,,,,,0,1290,,,,,,,,,,,,,,,,,181,W,triangle,1,1,,,,,,,,,,,,,,,,repeat,number,numRpt,f,0.4309,Hi,,,,,,5,,,,,,,,high,31,0,31,0,1,,,,,,,,,
297793,2022-12-05_24h13.34.892,vts_reward_expectancy_bt,2022.2.4,Win32,59.80503558,Chrome,1536,960,,,,,10,1300,,,,,,,,,,,,,,,,,181,H,triangle,1,0,,,,,,,,,,,,,,,,repeat,number,numRpt,f,0.3977,Hi,,,,,,6,,,,,,space,3.2542,high,0,0,0,0,1,,,,,,,,,
297793,2022-12-05_24h13.34.892,vts_reward_expectancy_bt,2022.2.4,Win32,59.80503558,Chrome,1536,960,,,,,0,1300,,,,,,,,,,,,,,,,,132,S,circle,1,0,,,,,,,,,,,,,,,,repeat,number,numRpt,d,0.47,Hi,,,,,,6,,,,,,,,high,1,0,1,0,1,,,,,,,,,
297793,2022-12-05_24h13.34.892,vts_reward_expectancy_bt,2022.2.4,Win32,59.80503558,Chrome,1536,960,,,,,1,1301,,,,,,,,,,,,,,,,,125,D,star,1,0,,,,,,,,,,,,,,,,switch,letter,lettSwt,j,0.3979,Lo,,,,,,6,,,,,,,,high,2,0,2,0,1,,,,,,,,,
297793,2022-12-05_24h13.34.892,vts_reward_expectancy_bt,2022.2.4,Win32,59.80503558,Chrome,1536,960,,,,,1,1302,,,,,,,,,,,,,,,,,167,W,hexagon,1,0,,,,,,,,,,,,,,,,repeat,letter,lettRpt,k,0.4464,Lo,,,,,,6,,,,,,,,high,3,0,3,0,1,,,,,,,,,
297793,2022-12-05_24h13.34.892,vts_reward_expectancy_bt,2022.2.4,Win32,59.80503558,Chrome,1536,960,,,,,0,1302,,,,,,,,,,,,,,,,,146,U,triangle,0,0,,,,,,,,,,,,,,,,switch,number,NA,f,0.3709,Lo,,,,,,6,,,,,,,,high,4,0,4,0,1,,,,,,,,,
297793,2022-12-05_24h13.34.892,vts_reward_expectancy_bt,2022.2.4,Win32,59.80503558,Chrome,1536,960,,,,,0,1302,,,,,,,,,,,,,,,,,160,Y,circle,1,1,,,,,,,,,,,,,,,,repeat,number,numRpt,f,0.4961,Hi,,,,,,6,,,,,,,,high,5,0,5,0,1,,,,,,,,,
297793,2022-12-05_24h13.34.892,vts_reward_expectancy_bt,2022.2.4,Win32,59.80503558,Chrome,1536,960,,,,,1,1303,,,,,,,,,,,,,,,,,174,B,star,1,0,,,,,,,,,,,,,,,,switch,letter,lettSwt,j,0.3806,Lo,,,,,,6,,,,,,,,high,6,0,6,0,1,,,,,,,,,
297793,2022-12-05_24h13.34.892,vts_reward_expectancy_bt,2022.2.4,Win32,59.80503558,Chrome,1536,960,,,,,1,1304,,,,,,,,,,,,,,,,,139,F,hexagon,1,0,,,,,,,,,,,,,,,,switch,number,numSwt,d,0.3793,Lo,,,,,,6,,,,,,,,high,7,0,7,0,1,,,,,,,,,
297793,2022-12-05_24h13.34.892,vts_reward_expectancy_bt,2022.2.4,Win32,59.80503558,Chrome,1536,960,,,,,1,1305,,,,,,,,,,,,,,,,,181,H,star,1,0,,,,,,,,,,,,,,,,repeat,number,numRpt,f,0.4133,Lo,,,,,,6,,,,,,,,high,8,0,8,0,1,,,,,,,,,
297793,2022-12-05_24h13.34.892,vts_reward_expectancy_bt,2022.2.4,Win32,59.80503558,Chrome,1536,960,,,,,1,1306,,,,,,,,,,,,,,,,,132,S,triangle,1,0,,,,,,,,,,,,,,,,repeat,number,numRpt,d,0.3945,Hi,,,,,,6,,,,,,,,high,9,0,9,0,1,,,,,,,,,
297793,2022-12-05_24h13.34.892,vts_reward_expectancy_bt,2022.2.4,Win32,59.80503558,Chrome,1536,960,,,,,10,1316,,,,,,,,,,,,,,,,,125,D,circle,1,0,,,,,,,,,,,,,,,,switch,letter,lettSwt,j,0.5297,Hi,,,,,,6,,,,,,,,high,10,0,10,0,1,,,,,,,,,
297793,2022-12-05_24h13.34.892,vts_reward_expectancy_bt,2022.2.4,Win32,59.80503558,Chrome,1536,960,,,,,0,1316,,,,,,,,,,,,,,,,,167,W,hexagon,0,0,,,,,,,,,,,,,,,,repeat,letter,NA,j,0.5198,Hi,,,,,,6,,,,,,,,high,11,0,11,0,1,,,,,,,,,
297793,2022-12-05_24h13.34.892,vts_reward_expectancy_bt,2022.2.4,Win32,59.80503558,Chrome,1536,960,,,,,10,1326,,,,,,,,,,,,,,,,,146,U,triangle,1,1,,,,,,,,,,,,,,,,repeat,letter,lettRpt,k,0.5205,Hi,,,,,,6,,,,,,,,high,12,0,12,0,1,,,,,,,,,
297793,2022-12-05_24h13.34.892,vts_reward_expectancy_bt,2022.2.4,Win32,59.80503558,Chrome,1536,960,,,,,1,1327,,,,,,,,,,,,,,,,,160,Y,hexagon,1,0,,,,,,,,,,,,,,,,repeat,letter,lettRpt,k,0.4138,Lo,,,,,,6,,,,,,,,high,13,0,13,0,1,,,,,,,,,
297793,2022-12-05_24h13.34.892,vts_reward_expectancy_bt,2022.2.4,Win32,59.80503558,Chrome,1536,960,,,,,10,1337,,,,,,,,,,,,,,,,,174,B,circle,1,0,,,,,,,,,,,,,,,,repeat,letter,lettRpt,j,0.3796,Hi,,,,,,6,,,,,,,,high,14,0,14,0,1,,,,,,,,,
297793,2022-12-05_24h13.34.892,vts_reward_expectancy_bt,2022.2.4,Win32,59.80503558,Chrome,1536,960,,,,,1,1338,,,,,,,,,,,,,,,,,139,F,star,1,0,,,,,,,,,,,,,,,,repeat,letter,lettRpt,j,0.4496,Lo,,,,,,6,,,,,,,,high,15,0,15,0,1,,,,,,,,,
