participant,date,expName,psychopyVersion,OS,frameRate,browser,xResolution,yResolution,key_resp.keys,key_resp.rt,training_resp.keys,training_resp.rt,points_trial,points_cumul,trainBlock,training.thisRepN,training.thisTrialN,training.thisN,training.thisIndex,training.ran,LTriangleOpac,LCircleOpac,LHexagonOpac,LStarOpac,RTriangleOpac,RCircleOpac,RHexagonOpac,RStarOpac,LShape_ID,RShape_ID,curr_topStim,curr_bottStim,curr_shape,acc,E1,target_resp_prac1.keys,pracBlock,task1_prac_trials.thisRepN,task1_prac_trials.thisTrialN,task1_prac_trials.thisN,task1_prac_trials.thisIndex,task1_prac_trials.ran,target_resp_prac1.rt,target_resp_prac2.keys,target_resp_prac2.rt,task2_praac_trials.thisRepN,task2_praac_trials.thisTrialN,task2_praac_trials.thisN,task2_praac_trials.thisIndex,task2_praac_trials.ran,alt,task,condition,target_resp.keys,target_resp.rt,rewCond,vts_practice_trials.thisRepN,vts_practice_trials.thisTrialN,vts_practice_trials.thisN,vts_practice_trials.thisIndex,vts_practice_trials.ran,blockNum,trials_norew.thisRepN,trials_norew.thisTrialN,trials_norew.thisN,trials_norew.thisIndex,trials_norew.ran,key_resp_2.keys,key_resp_2.rt,rewExpectancy,trials_rew.thisRepN,trials_rew.thisTrialN,trials_rew.thisN,trials_rew.thisIndex,trials_rew.ran,Q1,Q2,Q2_text,Q3,Q4,Q5_text,Q5,xRes,yRes
297877,2022-12-05_18h41.01.196,vts_reward_expectancy_bt,2022.2.4,Win32,60.11421701,Chrome,1707,960,,,,,,,,,,,,,,,,,,,,,,,,,,,,,,,,,,,,,,,,,,,,,,,,,,,,,,,,,,,,,,,,,,,,,,,,,,,,
297877,2022-12-05_18h41.01.196,vts_reward_expectancy_bt,2022.2.4,Win32,60.11421701,Chrome,1707,960,space,17.9109,,,,,,,,,,,,,,,,,,,,,,,,,,,,,,,,,,,,,,,,,,,,,,,,,,,,,,,,,,,,,,,,,,,,,,,,,,
297877,2022-12-05_18h41.01.196,vts_reward_expectancy_bt,2022.2.4,Win32,60.11421701,Chrome,1707,960,,,,,,,,,,,,,,,,,,,,,,,,,,,,,,,,,,,,,,,,,,,,,,,,,,,,,,,,,,,,,,,,,,,,,,,,,,,,
297877,2022-12-05_18h41.01.196,vts_reward_expectancy_bt,2022.2.4,Win32,60.11421701,Chrome,1707,960,,,a,1.0719,1,1,0,0,0,0,0,1,1,0,0,0,0,1,0,0,triangle,circle,,,,,,,,,,,,,,,,,,,,,,,,,,,,,,,,,,,,,,,,,,,,,,,,,,,,,,
297877,2022-12-05_18h41.01.196,vts_reward_expectancy_bt,2022.2.4,Win32,60.11421701,Chrome,1707,960,,,a,0.5002,1,2,0,0,1,1,2,1,1,0,0,0,0,0,0,1,triangle,star,,,,,,,,,,,,,,,,,,,,,,,,,,,,,,,,,,,,,,,,,,,,,,,,,,,,,,
297877,2022-12-05_18h41.01.196,vts_reward_expectancy_bt,2022.2.4,Win32,60.11421701,Chrome,1707,960,,,a,1.7774,1,3,0,0,2,2,4,1,0,1,0,0,0,0,1,0,circle,hexagon,,,,,,,,,,,,,,,,,,,,,,,,,,,,,,,,,,,,,,,,,,,,,,,,,,,,,,
297877,2022-12-05_18h41.01.196,vts_reward_expectancy_bt,2022.2.4,Win32,60.11421701,Chrome,1707,960,,,a,1.1634,1,4,0,0,3,3,8,1,0,0,1,0,0,0,0,1,hexagon,star,,,,,,,,,,,,,,,,,,,,,,,,,,,,,,,,,,,,,,,,,,,,,,,,,,,,,,
297877,2022-12-05_18h41.01.196,vts_reward_expectancy_bt,2022.2.4,Win32,60.11421701,Chrome,1707,960,,,a,1.0427,1,5,0,0,4,4,5,1,0,1,0,0,0,0,0,1,circle,star,,,,,,,,,,,,,,,,,,,,,,,,,,,,,,,,,,,,,,,,,,,,,,,,,,,,,,
297877,2022-12-05_18h41.01.196,vts_reward_expectancy_bt,2022.2.4,Win32,60.11421701,Chrome,1707,960,,,a,1.0962,1,6,0,0,5,5,10,1,0,0,0,1,0,1,0,0,star ,circle,,,,,,,,,,,,,,,,,,,,,,,,,,,,,,,,,,,,,,,,,,,,,,,,,,,,,,
297877,2022-12-05_18h41.01.196,vts_reward_expectancy_bt,2022.2.4,Win32,60.11421701,Chrome,1707,960,,,a,1.2996,10,16,0,0,6,6,7,1,0,0,1,0,0,1,0,0,hexagon,circle,,,,,,,,,,,,,,,,,,,,,,,,,,,,,,,,,,,,,,,,,,,,,,,,,,,,,,
297877,2022-12-05_18h41.01.196,vts_reward_expectancy_bt,2022.2.4,Win32,60.11421701,Chrome,1707,960,,,l,0.5422,1,17,0,0,7,7,1,1,1,0,0,0,0,0,1,0,triangle,hexagon,,,,,,,,,,,,,,,,,,,,,,,,,,,,,,,,,,,,,,,,,,,,,,,,,,,,,,
297877,2022-12-05_18h41.01.196,vts_reward_expectancy_bt,2022.2.4,Win32,60.11421701,Chrome,1707,960,,,l,0.6287,1,18,0,0,8,8,9,1,0,0,0,1,1,0,0,0,star,triangle,,,,,,,,,,,,,,,,,,,,,,,,,,,,,,,,,,,,,,,,,,,,,,,,,,,,,,
297877,2022-12-05_18h41.01.196,vts_reward_expectancy_bt,2022.2.4,Win32,60.11421701,Chrome,1707,960,,,a,0.6539,10,28,0,0,9,9,6,1,0,0,1,0,1,0,0,0,hexagon,triangle,,,,,,,,,,,,,,,,,,,,,,,,,,,,,,,,,,,,,,,,,,,,,,,,,,,,,,
297877,2022-12-05_18h41.01.196,vts_reward_expectancy_bt,2022.2.4,Win32,60.11421701,Chrome,1707,960,,,l,1.1832,1,29,0,0,10,10,3,1,0,1,0,0,1,0,0,0,circle,triangle,,,,,,,,,,,,,,,,,,,,,,,,,,,,,,,,,,,,,,,,,,,,,,,,,,,,,,
297877,2022-12-05_18h41.01.196,vts_reward_expectancy_bt,2022.2.4,Win32,60.11421701,Chrome,1707,960,,,a,1.0092,10,39,0,0,11,11,11,1,0,0,0,1,0,0,1,0,star,hexagon,,,,,,,,,,,,,,,,,,,,,,,,,,,,,,,,,,,,,,,,,,,,,,,,,,,,,,
297877,2022-12-05_18h41.01.196,vts_reward_expectancy_bt,2022.2.4,Win32,60.11421701,Chrome,1707,960,,,a,1.4157,1,40,0,1,0,12,1,1,1,0,0,0,0,0,1,0,triangle,hexagon,,,,,,,,,,,,,,,,,,,,,,,,,,,,,,,,,,,,,,,,,,,,,,,,,,,,,,
297877,2022-12-05_18h41.01.196,vts_reward_expectancy_bt,2022.2.4,Win32,60.11421701,Chrome,1707,960,,,l,0.6676,10,50,0,1,1,13,2,1,1,0,0,0,0,0,0,1,triangle,star,,,,,,,,,,,,,,,,,,,,,,,,,,,,,,,,,,,,,,,,,,,,,,,,,,,,,,
297877,2022-12-05_18h41.01.196,vts_reward_expectancy_bt,2022.2.4,Win32,60.11421701,Chrome,1707,960,,,l,0.7756,10,60,0,1,2,14,4,1,0,1,0,0,0,0,1,0,circle,hexagon,,,,,,,,,,,,,,,,,,,,,,,,,,,,,,,,,,,,,,,,,,,,,,,,,,,,,,
297877,2022-12-05_18h41.01.196,vts_reward_expectancy_bt,2022.2.4,Win32,60.11421701,Chrome,1707,960,,,a,0.4344,10,70,0,1,3,15,5,1,0,1,0,0,0,0,0,1,circle,star,,,,,,,,,,,,,,,,,,,,,,,,,,,,,,,,,,,,,,,,,,,,,,,,,,,,,,
297877,2022-12-05_18h41.01.196,vts_reward_expectancy_bt,2022.2.4,Win32,60.11421701,Chrome,1707,960,,,l,0.6991,10,80,0,1,4,16,8,1,0,0,1,0,0,0,0,1,hexagon,star,,,,,,,,,,,,,,,,,,,,,,,,,,,,,,,,,,,,,,,,,,,,,,,,,,,,,,
297877,2022-12-05_18h41.01.196,vts_reward_expectancy_bt,2022.2.4,Win32,60.11421701,Chrome,1707,960,,,a,0.4147,1,81,0,1,5,17,3,1,0,1,0,0,1,0,0,0,circle,triangle,,,,,,,,,,,,,,,,,,,,,,,,,,,,,,,,,,,,,,,,,,,,,,,,,,,,,,
297877,2022-12-05_18h41.01.196,vts_reward_expectancy_bt,2022.2.4,Win32,60.11421701,Chrome,1707,960,,,a,1.6767,10,91,0,1,6,18,7,1,0,0,1,0,0,1,0,0,hexagon,circle,,,,,,,,,,,,,,,,,,,,,,,,,,,,,,,,,,,,,,,,,,,,,,,,,,,,,,
297877,2022-12-05_18h41.01.196,vts_reward_expectancy_bt,2022.2.4,Win32,60.11421701,Chrome,1707,960,,,l,1.1606,1,92,0,1,7,19,6,1,0,0,1,0,1,0,0,0,hexagon,triangle,,,,,,,,,,,,,,,,,,,,,,,,,,,,,,,,,,,,,,,,,,,,,,,,,,,,,,
297877,2022-12-05_18h41.01.196,vts_reward_expectancy_bt,2022.2.4,Win32,60.11421701,Chrome,1707,960,,,a,1.1342,10,102,0,1,8,20,9,1,0,0,0,1,1,0,0,0,star,triangle,,,,,,,,,,,,,,,,,,,,,,,,,,,,,,,,,,,,,,,,,,,,,,,,,,,,,,
297877,2022-12-05_18h41.01.196,vts_reward_expectancy_bt,2022.2.4,Win32,60.11421701,Chrome,1707,960,,,a,1.7582,1,103,0,1,9,21,11,1,0,0,0,1,0,0,1,0,star,hexagon,,,,,,,,,,,,,,,,,,,,,,,,,,,,,,,,,,,,,,,,,,,,,,,,,,,,,,
297877,2022-12-05_18h41.01.196,vts_reward_expectancy_bt,2022.2.4,Win32,60.11421701,Chrome,1707,960,,,a,1.608,10,113,0,1,10,22,0,1,1,0,0,0,0,1,0,0,triangle,circle,,,,,,,,,,,,,,,,,,,,,,,,,,,,,,,,,,,,,,,,,,,,,,,,,,,,,,
297877,2022-12-05_18h41.01.196,vts_reward_expectancy_bt,2022.2.4,Win32,60.11421701,Chrome,1707,960,,,l,1.0098,1,114,0,1,11,23,10,1,0,0,0,1,0,1,0,0,star ,circle,,,,,,,,,,,,,,,,,,,,,,,,,,,,,,,,,,,,,,,,,,,,,,,,,,,,,,
297877,2022-12-05_18h41.01.196,vts_reward_expectancy_bt,2022.2.4,Win32,60.11421701,Chrome,1707,960,,,l,1.068,10,124,0,2,0,24,2,1,1,0,0,0,0,0,0,1,triangle,star,,,,,,,,,,,,,,,,,,,,,,,,,,,,,,,,,,,,,,,,,,,,,,,,,,,,,,
297877,2022-12-05_18h41.01.196,vts_reward_expectancy_bt,2022.2.4,Win32,60.11421701,Chrome,1707,960,,,l,0.7253,1,125,0,2,1,25,4,1,0,1,0,0,0,0,1,0,circle,hexagon,,,,,,,,,,,,,,,,,,,,,,,,,,,,,,,,,,,,,,,,,,,,,,,,,,,,,,
297877,2022-12-05_18h41.01.196,vts_reward_expectancy_bt,2022.2.4,Win32,60.11421701,Chrome,1707,960,,,l,0.7097,1,126,0,2,2,26,0,1,1,0,0,0,0,1,0,0,triangle,circle,,,,,,,,,,,,,,,,,,,,,,,,,,,,,,,,,,,,,,,,,,,,,,,,,,,,,,
297877,2022-12-05_18h41.01.196,vts_reward_expectancy_bt,2022.2.4,Win32,60.11421701,Chrome,1707,960,,,l,1.0464,1,127,0,2,3,27,9,1,0,0,0,1,1,0,0,0,star,triangle,,,,,,,,,,,,,,,,,,,,,,,,,,,,,,,,,,,,,,,,,,,,,,,,,,,,,,
297877,2022-12-05_18h41.01.196,vts_reward_expectancy_bt,2022.2.4,Win32,60.11421701,Chrome,1707,960,,,a,1.2249,1,128,0,2,4,28,10,1,0,0,0,1,0,1,0,0,star ,circle,,,,,,,,,,,,,,,,,,,,,,,,,,,,,,,,,,,,,,,,,,,,,,,,,,,,,,
297877,2022-12-05_18h41.01.196,vts_reward_expectancy_bt,2022.2.4,Win32,60.11421701,Chrome,1707,960,,,a,1.6658,10,138,0,2,5,29,8,1,0,0,1,0,0,0,0,1,hexagon,star,,,,,,,,,,,,,,,,,,,,,,,,,,,,,,,,,,,,,,,,,,,,,,,,,,,,,,
297877,2022-12-05_18h41.01.196,vts_reward_expectancy_bt,2022.2.4,Win32,60.11421701,Chrome,1707,960,,,l,0.8503,1,139,0,2,6,30,1,1,1,0,0,0,0,0,1,0,triangle,hexagon,,,,,,,,,,,,,,,,,,,,,,,,,,,,,,,,,,,,,,,,,,,,,,,,,,,,,,
297877,2022-12-05_18h41.01.196,vts_reward_expectancy_bt,2022.2.4,Win32,60.11421701,Chrome,1707,960,,,a,0.5777,10,149,0,2,7,31,6,1,0,0,1,0,1,0,0,0,hexagon,triangle,,,,,,,,,,,,,,,,,,,,,,,,,,,,,,,,,,,,,,,,,,,,,,,,,,,,,,
297877,2022-12-05_18h41.01.196,vts_reward_expectancy_bt,2022.2.4,Win32,60.11421701,Chrome,1707,960,,,l,0.6497,1,150,0,2,8,32,5,1,0,1,0,0,0,0,0,1,circle,star,,,,,,,,,,,,,,,,,,,,,,,,,,,,,,,,,,,,,,,,,,,,,,,,,,,,,,
297877,2022-12-05_18h41.01.196,vts_reward_expectancy_bt,2022.2.4,Win32,60.11421701,Chrome,1707,960,,,a,0.6276,10,160,0,2,9,33,7,1,0,0,1,0,0,1,0,0,hexagon,circle,,,,,,,,,,,,,,,,,,,,,,,,,,,,,,,,,,,,,,,,,,,,,,,,,,,,,,
297877,2022-12-05_18h41.01.196,vts_reward_expectancy_bt,2022.2.4,Win32,60.11421701,Chrome,1707,960,,,l,0.7983,1,161,0,2,10,34,3,1,0,1,0,0,1,0,0,0,circle,triangle,,,,,,,,,,,,,,,,,,,,,,,,,,,,,,,,,,,,,,,,,,,,,,,,,,,,,,
297877,2022-12-05_18h41.01.196,vts_reward_expectancy_bt,2022.2.4,Win32,60.11421701,Chrome,1707,960,,,a,0.5656,10,171,0,2,11,35,11,1,0,0,0,1,0,0,1,0,star,hexagon,,,,,,,,,,,,,,,,,,,,,,,,,,,,,,,,,,,,,,,,,,,,,,,,,,,,,,
297877,2022-12-05_18h41.01.196,vts_reward_expectancy_bt,2022.2.4,Win32,60.11421701,Chrome,1707,960,,,a,0.6749,1,172,1,0,0,0,1,1,1,0,0,0,0,0,1,0,triangle,hexagon,,,,,,,,,,,,,,,,,,,,,,,,,,,,,,,,,,,,,,,,,,,,,,,,,,,,,,
297877,2022-12-05_18h41.01.196,vts_reward_expectancy_bt,2022.2.4,Win32,60.11421701,Chrome,1707,960,,,a,0.7846,10,182,1,0,1,1,11,1,0,0,0,1,0,0,1,0,star,hexagon,,,,,,,,,,,,,,,,,,,,,,,,,,,,,,,,,,,,,,,,,,,,,,,,,,,,,,
297877,2022-12-05_18h41.01.196,vts_reward_expectancy_bt,2022.2.4,Win32,60.11421701,Chrome,1707,960,,,l,0.7118,10,192,1,0,2,2,10,1,0,0,0,1,0,1,0,0,star ,circle,,,,,,,,,,,,,,,,,,,,,,,,,,,,,,,,,,,,,,,,,,,,,,,,,,,,,,
297877,2022-12-05_18h41.01.196,vts_reward_expectancy_bt,2022.2.4,Win32,60.11421701,Chrome,1707,960,,,a,1.0673,1,193,1,0,3,3,9,1,0,0,0,1,1,0,0,0,star,triangle,,,,,,,,,,,,,,,,,,,,,,,,,,,,,,,,,,,,,,,,,,,,,,,,,,,,,,
297877,2022-12-05_18h41.01.196,vts_reward_expectancy_bt,2022.2.4,Win32,60.11421701,Chrome,1707,960,,,l,0.7983,1,194,1,0,4,4,3,1,0,1,0,0,1,0,0,0,circle,triangle,,,,,,,,,,,,,,,,,,,,,,,,,,,,,,,,,,,,,,,,,,,,,,,,,,,,,,
297877,2022-12-05_18h41.01.196,vts_reward_expectancy_bt,2022.2.4,Win32,60.11421701,Chrome,1707,960,,,a,1.0337,1,195,1,0,5,5,8,1,0,0,1,0,0,0,0,1,hexagon,star,,,,,,,,,,,,,,,,,,,,,,,,,,,,,,,,,,,,,,,,,,,,,,,,,,,,,,
297877,2022-12-05_18h41.01.196,vts_reward_expectancy_bt,2022.2.4,Win32,60.11421701,Chrome,1707,960,,,l,0.5507,10,205,1,0,6,6,5,1,0,1,0,0,0,0,0,1,circle,star,,,,,,,,,,,,,,,,,,,,,,,,,,,,,,,,,,,,,,,,,,,,,,,,,,,,,,
297877,2022-12-05_18h41.01.196,vts_reward_expectancy_bt,2022.2.4,Win32,60.11421701,Chrome,1707,960,,,a,0.4338,10,215,1,0,7,7,6,1,0,0,1,0,1,0,0,0,hexagon,triangle,,,,,,,,,,,,,,,,,,,,,,,,,,,,,,,,,,,,,,,,,,,,,,,,,,,,,,
297877,2022-12-05_18h41.01.196,vts_reward_expectancy_bt,2022.2.4,Win32,60.11421701,Chrome,1707,960,,,a,0.8541,10,225,1,0,8,8,0,1,1,0,0,0,0,1,0,0,triangle,circle,,,,,,,,,,,,,,,,,,,,,,,,,,,,,,,,,,,,,,,,,,,,,,,,,,,,,,
297877,2022-12-05_18h41.01.196,vts_reward_expectancy_bt,2022.2.4,Win32,60.11421701,Chrome,1707,960,,,a,0.7491,10,235,1,0,9,9,7,1,0,0,1,0,0,1,0,0,hexagon,circle,,,,,,,,,,,,,,,,,,,,,,,,,,,,,,,,,,,,,,,,,,,,,,,,,,,,,,
297877,2022-12-05_18h41.01.196,vts_reward_expectancy_bt,2022.2.4,Win32,60.11421701,Chrome,1707,960,,,l,0.5673,10,245,1,0,10,10,4,1,0,1,0,0,0,0,1,0,circle,hexagon,,,,,,,,,,,,,,,,,,,,,,,,,,,,,,,,,,,,,,,,,,,,,,,,,,,,,,
297877,2022-12-05_18h41.01.196,vts_reward_expectancy_bt,2022.2.4,Win32,60.11421701,Chrome,1707,960,,,a,0.8314,1,246,1,0,11,11,2,1,1,0,0,0,0,0,0,1,triangle,star,,,,,,,,,,,,,,,,,,,,,,,,,,,,,,,,,,,,,,,,,,,,,,,,,,,,,,
297877,2022-12-05_18h41.01.196,vts_reward_expectancy_bt,2022.2.4,Win32,60.11421701,Chrome,1707,960,,,l,0.6118,10,256,1,1,0,12,4,1,0,1,0,0,0,0,1,0,circle,hexagon,,,,,,,,,,,,,,,,,,,,,,,,,,,,,,,,,,,,,,,,,,,,,,,,,,,,,,
297877,2022-12-05_18h41.01.196,vts_reward_expectancy_bt,2022.2.4,Win32,60.11421701,Chrome,1707,960,,,a,0.5347,10,266,1,1,1,13,10,1,0,0,0,1,0,1,0,0,star ,circle,,,,,,,,,,,,,,,,,,,,,,,,,,,,,,,,,,,,,,,,,,,,,,,,,,,,,,
297877,2022-12-05_18h41.01.196,vts_reward_expectancy_bt,2022.2.4,Win32,60.11421701,Chrome,1707,960,,,l,0.667,1,267,1,1,2,14,11,1,0,0,0,1,0,0,1,0,star,hexagon,,,,,,,,,,,,,,,,,,,,,,,,,,,,,,,,,,,,,,,,,,,,,,,,,,,,,,
297877,2022-12-05_18h41.01.196,vts_reward_expectancy_bt,2022.2.4,Win32,60.11421701,Chrome,1707,960,,,l,0.5422,10,277,1,1,3,15,1,1,1,0,0,0,0,0,1,0,triangle,hexagon,,,,,,,,,,,,,,,,,,,,,,,,,,,,,,,,,,,,,,,,,,,,,,,,,,,,,,
297877,2022-12-05_18h41.01.196,vts_reward_expectancy_bt,2022.2.4,Win32,60.11421701,Chrome,1707,960,,,a,0.1674,1,278,1,1,4,16,5,1,0,1,0,0,0,0,0,1,circle,star,,,,,,,,,,,,,,,,,,,,,,,,,,,,,,,,,,,,,,,,,,,,,,,,,,,,,,
297877,2022-12-05_18h41.01.196,vts_reward_expectancy_bt,2022.2.4,Win32,60.11421701,Chrome,1707,960,,,a,0.5342,1,279,1,1,5,17,3,1,0,1,0,0,1,0,0,0,circle,triangle,,,,,,,,,,,,,,,,,,,,,,,,,,,,,,,,,,,,,,,,,,,,,,,,,,,,,,
297877,2022-12-05_18h41.01.196,vts_reward_expectancy_bt,2022.2.4,Win32,60.11421701,Chrome,1707,960,,,a,0.6171,10,289,1,1,6,18,7,1,0,0,1,0,0,1,0,0,hexagon,circle,,,,,,,,,,,,,,,,,,,,,,,,,,,,,,,,,,,,,,,,,,,,,,,,,,,,,,
297877,2022-12-05_18h41.01.196,vts_reward_expectancy_bt,2022.2.4,Win32,60.11421701,Chrome,1707,960,,,l,0.4353,1,290,1,1,7,19,0,1,1,0,0,0,0,1,0,0,triangle,circle,,,,,,,,,,,,,,,,,,,,,,,,,,,,,,,,,,,,,,,,,,,,,,,,,,,,,,
297877,2022-12-05_18h41.01.196,vts_reward_expectancy_bt,2022.2.4,Win32,60.11421701,Chrome,1707,960,,,a,0.7773,10,300,1,1,8,20,9,1,0,0,0,1,1,0,0,0,star,triangle,,,,,,,,,,,,,,,,,,,,,,,,,,,,,,,,,,,,,,,,,,,,,,,,,,,,,,
297877,2022-12-05_18h41.01.196,vts_reward_expectancy_bt,2022.2.4,Win32,60.11421701,Chrome,1707,960,,,a,1.252,10,310,1,1,9,21,6,1,0,0,1,0,1,0,0,0,hexagon,triangle,,,,,,,,,,,,,,,,,,,,,,,,,,,,,,,,,,,,,,,,,,,,,,,,,,,,,,
297877,2022-12-05_18h41.01.196,vts_reward_expectancy_bt,2022.2.4,Win32,60.11421701,Chrome,1707,960,,,l,0.4504,10,320,1,1,10,22,2,1,1,0,0,0,0,0,0,1,triangle,star,,,,,,,,,,,,,,,,,,,,,,,,,,,,,,,,,,,,,,,,,,,,,,,,,,,,,,
297877,2022-12-05_18h41.01.196,vts_reward_expectancy_bt,2022.2.4,Win32,60.11421701,Chrome,1707,960,,,l,0.7493,10,330,1,1,11,23,8,1,0,0,1,0,0,0,0,1,hexagon,star,,,,,,,,,,,,,,,,,,,,,,,,,,,,,,,,,,,,,,,,,,,,,,,,,,,,,,
297877,2022-12-05_18h41.01.196,vts_reward_expectancy_bt,2022.2.4,Win32,60.11421701,Chrome,1707,960,,,l,0.5174,10,340,1,2,0,24,8,1,0,0,1,0,0,0,0,1,hexagon,star,,,,,,,,,,,,,,,,,,,,,,,,,,,,,,,,,,,,,,,,,,,,,,,,,,,,,,
297877,2022-12-05_18h41.01.196,vts_reward_expectancy_bt,2022.2.4,Win32,60.11421701,Chrome,1707,960,,,a,0.5444,1,341,1,2,1,25,1,1,1,0,0,0,0,0,1,0,triangle,hexagon,,,,,,,,,,,,,,,,,,,,,,,,,,,,,,,,,,,,,,,,,,,,,,,,,,,,,,
297877,2022-12-05_18h41.01.196,vts_reward_expectancy_bt,2022.2.4,Win32,60.11421701,Chrome,1707,960,,,a,0.5175,10,351,1,2,2,26,6,1,0,0,1,0,1,0,0,0,hexagon,triangle,,,,,,,,,,,,,,,,,,,,,,,,,,,,,,,,,,,,,,,,,,,,,,,,,,,,,,
297877,2022-12-05_18h41.01.196,vts_reward_expectancy_bt,2022.2.4,Win32,60.11421701,Chrome,1707,960,,,a,0.9166,1,352,1,2,3,27,3,1,0,1,0,0,1,0,0,0,circle,triangle,,,,,,,,,,,,,,,,,,,,,,,,,,,,,,,,,,,,,,,,,,,,,,,,,,,,,,
297877,2022-12-05_18h41.01.196,vts_reward_expectancy_bt,2022.2.4,Win32,60.11421701,Chrome,1707,960,,,a,0.6378,1,353,1,2,4,28,10,1,0,0,0,1,0,1,0,0,star ,circle,,,,,,,,,,,,,,,,,,,,,,,,,,,,,,,,,,,,,,,,,,,,,,,,,,,,,,
297877,2022-12-05_18h41.01.196,vts_reward_expectancy_bt,2022.2.4,Win32,60.11421701,Chrome,1707,960,,,l,0.6165,10,363,1,2,5,29,2,1,1,0,0,0,0,0,0,1,triangle,star,,,,,,,,,,,,,,,,,,,,,,,,,,,,,,,,,,,,,,,,,,,,,,,,,,,,,,
297877,2022-12-05_18h41.01.196,vts_reward_expectancy_bt,2022.2.4,Win32,60.11421701,Chrome,1707,960,,,a,0.9477,10,373,1,2,6,30,11,1,0,0,0,1,0,0,1,0,star,hexagon,,,,,,,,,,,,,,,,,,,,,,,,,,,,,,,,,,,,,,,,,,,,,,,,,,,,,,
297877,2022-12-05_18h41.01.196,vts_reward_expectancy_bt,2022.2.4,Win32,60.11421701,Chrome,1707,960,,,l,0.4447,10,383,1,2,7,31,5,1,0,1,0,0,0,0,0,1,circle,star,,,,,,,,,,,,,,,,,,,,,,,,,,,,,,,,,,,,,,,,,,,,,,,,,,,,,,
297877,2022-12-05_18h41.01.196,vts_reward_expectancy_bt,2022.2.4,Win32,60.11421701,Chrome,1707,960,,,l,0.4945,1,384,1,2,8,32,7,1,0,0,1,0,0,1,0,0,hexagon,circle,,,,,,,,,,,,,,,,,,,,,,,,,,,,,,,,,,,,,,,,,,,,,,,,,,,,,,
297877,2022-12-05_18h41.01.196,vts_reward_expectancy_bt,2022.2.4,Win32,60.11421701,Chrome,1707,960,,,a,0.6448,1,385,1,2,9,33,4,1,0,1,0,0,0,0,1,0,circle,hexagon,,,,,,,,,,,,,,,,,,,,,,,,,,,,,,,,,,,,,,,,,,,,,,,,,,,,,,
297877,2022-12-05_18h41.01.196,vts_reward_expectancy_bt,2022.2.4,Win32,60.11421701,Chrome,1707,960,,,a,0.4588,10,395,1,2,10,34,9,1,0,0,0,1,1,0,0,0,star,triangle,,,,,,,,,,,,,,,,,,,,,,,,,,,,,,,,,,,,,,,,,,,,,,,,,,,,,,
297877,2022-12-05_18h41.01.196,vts_reward_expectancy_bt,2022.2.4,Win32,60.11421701,Chrome,1707,960,,,a,0.7507,1,396,1,2,11,35,0,1,1,0,0,0,0,1,0,0,triangle,circle,,,,,,,,,,,,,,,,,,,,,,,,,,,,,,,,,,,,,,,,,,,,,,,,,,,,,,
297877,2022-12-05_18h41.01.196,vts_reward_expectancy_bt,2022.2.4,Win32,60.11421701,Chrome,1707,960,,,l,1.5447,1,397,2,0,0,0,8,1,0,0,1,0,0,0,0,1,hexagon,star,,,,,,,,,,,,,,,,,,,,,,,,,,,,,,,,,,,,,,,,,,,,,,,,,,,,,,
297877,2022-12-05_18h41.01.196,vts_reward_expectancy_bt,2022.2.4,Win32,60.11421701,Chrome,1707,960,,,a,0.6979,1,398,2,0,1,1,1,1,1,0,0,0,0,0,1,0,triangle,hexagon,,,,,,,,,,,,,,,,,,,,,,,,,,,,,,,,,,,,,,,,,,,,,,,,,,,,,,
297877,2022-12-05_18h41.01.196,vts_reward_expectancy_bt,2022.2.4,Win32,60.11421701,Chrome,1707,960,,,a,1.303,1,399,2,0,2,2,10,1,0,0,0,1,0,1,0,0,star ,circle,,,,,,,,,,,,,,,,,,,,,,,,,,,,,,,,,,,,,,,,,,,,,,,,,,,,,,
297877,2022-12-05_18h41.01.196,vts_reward_expectancy_bt,2022.2.4,Win32,60.11421701,Chrome,1707,960,,,l,0.4638,1,400,2,0,3,3,5,1,0,1,0,0,0,0,0,1,circle,star,,,,,,,,,,,,,,,,,,,,,,,,,,,,,,,,,,,,,,,,,,,,,,,,,,,,,,
297877,2022-12-05_18h41.01.196,vts_reward_expectancy_bt,2022.2.4,Win32,60.11421701,Chrome,1707,960,,,l,0.7946,1,401,2,0,4,4,11,1,0,0,0,1,0,0,1,0,star,hexagon,,,,,,,,,,,,,,,,,,,,,,,,,,,,,,,,,,,,,,,,,,,,,,,,,,,,,,
297877,2022-12-05_18h41.01.196,vts_reward_expectancy_bt,2022.2.4,Win32,60.11421701,Chrome,1707,960,,,a,0.5539,1,402,2,0,5,5,2,1,1,0,0,0,0,0,0,1,triangle,star,,,,,,,,,,,,,,,,,,,,,,,,,,,,,,,,,,,,,,,,,,,,,,,,,,,,,,
297877,2022-12-05_18h41.01.196,vts_reward_expectancy_bt,2022.2.4,Win32,60.11421701,Chrome,1707,960,,,a,0.7341,10,412,2,0,6,6,7,1,0,0,1,0,0,1,0,0,hexagon,circle,,,,,,,,,,,,,,,,,,,,,,,,,,,,,,,,,,,,,,,,,,,,,,,,,,,,,,
297877,2022-12-05_18h41.01.196,vts_reward_expectancy_bt,2022.2.4,Win32,60.11421701,Chrome,1707,960,,,a,0.5175,1,413,2,0,7,7,4,1,0,1,0,0,0,0,1,0,circle,hexagon,,,,,,,,,,,,,,,,,,,,,,,,,,,,,,,,,,,,,,,,,,,,,,,,,,,,,,
297877,2022-12-05_18h41.01.196,vts_reward_expectancy_bt,2022.2.4,Win32,60.11421701,Chrome,1707,960,,,a,0.5008,10,423,2,0,8,8,9,1,0,0,0,1,1,0,0,0,star,triangle,,,,,,,,,,,,,,,,,,,,,,,,,,,,,,,,,,,,,,,,,,,,,,,,,,,,,,
297877,2022-12-05_18h41.01.196,vts_reward_expectancy_bt,2022.2.4,Win32,60.11421701,Chrome,1707,960,,,a,0.718,1,424,2,0,9,9,0,1,1,0,0,0,0,1,0,0,triangle,circle,,,,,,,,,,,,,,,,,,,,,,,,,,,,,,,,,,,,,,,,,,,,,,,,,,,,,,
297877,2022-12-05_18h41.01.196,vts_reward_expectancy_bt,2022.2.4,Win32,60.11421701,Chrome,1707,960,,,a,0.5476,1,425,2,0,10,10,3,1,0,1,0,0,1,0,0,0,circle,triangle,,,,,,,,,,,,,,,,,,,,,,,,,,,,,,,,,,,,,,,,,,,,,,,,,,,,,,
297877,2022-12-05_18h41.01.196,vts_reward_expectancy_bt,2022.2.4,Win32,60.11421701,Chrome,1707,960,,,a,0.524,10,435,2,0,11,11,6,1,0,0,1,0,1,0,0,0,hexagon,triangle,,,,,,,,,,,,,,,,,,,,,,,,,,,,,,,,,,,,,,,,,,,,,,,,,,,,,,
297877,2022-12-05_18h41.01.196,vts_reward_expectancy_bt,2022.2.4,Win32,60.11421701,Chrome,1707,960,,,a,0.5171,1,436,2,1,0,12,7,1,0,0,1,0,0,1,0,0,hexagon,circle,,,,,,,,,,,,,,,,,,,,,,,,,,,,,,,,,,,,,,,,,,,,,,,,,,,,,,
297877,2022-12-05_18h41.01.196,vts_reward_expectancy_bt,2022.2.4,Win32,60.11421701,Chrome,1707,960,,,l,0.8856,1,437,2,1,1,13,0,1,1,0,0,0,0,1,0,0,triangle,circle,,,,,,,,,,,,,,,,,,,,,,,,,,,,,,,,,,,,,,,,,,,,,,,,,,,,,,
297877,2022-12-05_18h41.01.196,vts_reward_expectancy_bt,2022.2.4,Win32,60.11421701,Chrome,1707,960,,,a,0.4742,1,438,2,1,2,14,10,1,0,0,0,1,0,1,0,0,star ,circle,,,,,,,,,,,,,,,,,,,,,,,,,,,,,,,,,,,,,,,,,,,,,,,,,,,,,,
297877,2022-12-05_18h41.01.196,vts_reward_expectancy_bt,2022.2.4,Win32,60.11421701,Chrome,1707,960,,,a,0.387,1,439,2,1,3,15,4,1,0,1,0,0,0,0,1,0,circle,hexagon,,,,,,,,,,,,,,,,,,,,,,,,,,,,,,,,,,,,,,,,,,,,,,,,,,,,,,
297877,2022-12-05_18h41.01.196,vts_reward_expectancy_bt,2022.2.4,Win32,60.11421701,Chrome,1707,960,,,a,0.4341,10,449,2,1,4,16,11,1,0,0,0,1,0,0,1,0,star,hexagon,,,,,,,,,,,,,,,,,,,,,,,,,,,,,,,,,,,,,,,,,,,,,,,,,,,,,,
297877,2022-12-05_18h41.01.196,vts_reward_expectancy_bt,2022.2.4,Win32,60.11421701,Chrome,1707,960,,,l,0.7012,10,459,2,1,5,17,1,1,1,0,0,0,0,0,1,0,triangle,hexagon,,,,,,,,,,,,,,,,,,,,,,,,,,,,,,,,,,,,,,,,,,,,,,,,,,,,,,
297877,2022-12-05_18h41.01.196,vts_reward_expectancy_bt,2022.2.4,Win32,60.11421701,Chrome,1707,960,,,a,0.8447,10,469,2,1,6,18,3,1,0,1,0,0,1,0,0,0,circle,triangle,,,,,,,,,,,,,,,,,,,,,,,,,,,,,,,,,,,,,,,,,,,,,,,,,,,,,,
297877,2022-12-05_18h41.01.196,vts_reward_expectancy_bt,2022.2.4,Win32,60.11421701,Chrome,1707,960,,,a,0.4366,10,479,2,1,7,19,6,1,0,0,1,0,1,0,0,0,hexagon,triangle,,,,,,,,,,,,,,,,,,,,,,,,,,,,,,,,,,,,,,,,,,,,,,,,,,,,,,
297877,2022-12-05_18h41.01.196,vts_reward_expectancy_bt,2022.2.4,Win32,60.11421701,Chrome,1707,960,,,a,0.434,10,489,2,1,8,20,9,1,0,0,0,1,1,0,0,0,star,triangle,,,,,,,,,,,,,,,,,,,,,,,,,,,,,,,,,,,,,,,,,,,,,,,,,,,,,,
297877,2022-12-05_18h41.01.196,vts_reward_expectancy_bt,2022.2.4,Win32,60.11421701,Chrome,1707,960,,,l,0.5038,10,499,2,1,9,21,2,1,1,0,0,0,0,0,0,1,triangle,star,,,,,,,,,,,,,,,,,,,,,,,,,,,,,,,,,,,,,,,,,,,,,,,,,,,,,,
297877,2022-12-05_18h41.01.196,vts_reward_expectancy_bt,2022.2.4,Win32,60.11421701,Chrome,1707,960,,,l,0.4008,10,509,2,1,10,22,5,1,0,1,0,0,0,0,0,1,circle,star,,,,,,,,,,,,,,,,,,,,,,,,,,,,,,,,,,,,,,,,,,,,,,,,,,,,,,
297877,2022-12-05_18h41.01.196,vts_reward_expectancy_bt,2022.2.4,Win32,60.11421701,Chrome,1707,960,,,l,0.385,10,519,2,1,11,23,8,1,0,0,1,0,0,0,0,1,hexagon,star,,,,,,,,,,,,,,,,,,,,,,,,,,,,,,,,,,,,,,,,,,,,,,,,,,,,,,
297877,2022-12-05_18h41.01.196,vts_reward_expectancy_bt,2022.2.4,Win32,60.11421701,Chrome,1707,960,,,l,0.4174,10,529,2,2,0,24,2,1,1,0,0,0,0,0,0,1,triangle,star,,,,,,,,,,,,,,,,,,,,,,,,,,,,,,,,,,,,,,,,,,,,,,,,,,,,,,
297877,2022-12-05_18h41.01.196,vts_reward_expectancy_bt,2022.2.4,Win32,60.11421701,Chrome,1707,960,,,l,1.1343,1,530,2,2,1,25,6,1,0,0,1,0,1,0,0,0,hexagon,triangle,,,,,,,,,,,,,,,,,,,,,,,,,,,,,,,,,,,,,,,,,,,,,,,,,,,,,,
297877,2022-12-05_18h41.01.196,vts_reward_expectancy_bt,2022.2.4,Win32,60.11421701,Chrome,1707,960,,,a,0.6175,10,540,2,2,2,26,11,1,0,0,0,1,0,0,1,0,star,hexagon,,,,,,,,,,,,,,,,,,,,,,,,,,,,,,,,,,,,,,,,,,,,,,,,,,,,,,
297877,2022-12-05_18h41.01.196,vts_reward_expectancy_bt,2022.2.4,Win32,60.11421701,Chrome,1707,960,,,a,5.7672,1,541,2,2,3,27,3,1,0,1,0,0,1,0,0,0,circle,triangle,,,,,,,,,,,,,,,,,,,,,,,,,,,,,,,,,,,,,,,,,,,,,,,,,,,,,,
297877,2022-12-05_18h41.01.196,vts_reward_expectancy_bt,2022.2.4,Win32,60.11421701,Chrome,1707,960,,,l,0.4493,10,551,2,2,4,28,5,1,0,1,0,0,0,0,0,1,circle,star,,,,,,,,,,,,,,,,,,,,,,,,,,,,,,,,,,,,,,,,,,,,,,,,,,,,,,
297877,2022-12-05_18h41.01.196,vts_reward_expectancy_bt,2022.2.4,Win32,60.11421701,Chrome,1707,960,,,a,0.5999,1,552,2,2,5,29,0,1,1,0,0,0,0,1,0,0,triangle,circle,,,,,,,,,,,,,,,,,,,,,,,,,,,,,,,,,,,,,,,,,,,,,,,,,,,,,,
297877,2022-12-05_18h41.01.196,vts_reward_expectancy_bt,2022.2.4,Win32,60.11421701,Chrome,1707,960,,,a,0.9,1,553,2,2,6,30,1,1,1,0,0,0,0,0,1,0,triangle,hexagon,,,,,,,,,,,,,,,,,,,,,,,,,,,,,,,,,,,,,,,,,,,,,,,,,,,,,,
297877,2022-12-05_18h41.01.196,vts_reward_expectancy_bt,2022.2.4,Win32,60.11421701,Chrome,1707,960,,,a,0.5403,10,563,2,2,7,31,9,1,0,0,0,1,1,0,0,0,star,triangle,,,,,,,,,,,,,,,,,,,,,,,,,,,,,,,,,,,,,,,,,,,,,,,,,,,,,,
297877,2022-12-05_18h41.01.196,vts_reward_expectancy_bt,2022.2.4,Win32,60.11421701,Chrome,1707,960,,,l,1.1833,1,564,2,2,8,32,4,1,0,1,0,0,0,0,1,0,circle,hexagon,,,,,,,,,,,,,,,,,,,,,,,,,,,,,,,,,,,,,,,,,,,,,,,,,,,,,,
297877,2022-12-05_18h41.01.196,vts_reward_expectancy_bt,2022.2.4,Win32,60.11421701,Chrome,1707,960,,,l,1.0043,10,574,2,2,9,33,8,1,0,0,1,0,0,0,0,1,hexagon,star,,,,,,,,,,,,,,,,,,,,,,,,,,,,,,,,,,,,,,,,,,,,,,,,,,,,,,
297877,2022-12-05_18h41.01.196,vts_reward_expectancy_bt,2022.2.4,Win32,60.11421701,Chrome,1707,960,,,l,1.9193,1,575,2,2,10,34,7,1,0,0,1,0,0,1,0,0,hexagon,circle,,,,,,,,,,,,,,,,,,,,,,,,,,,,,,,,,,,,,,,,,,,,,,,,,,,,,,
297877,2022-12-05_18h41.01.196,vts_reward_expectancy_bt,2022.2.4,Win32,60.11421701,Chrome,1707,960,,,a,0.9183,1,576,2,2,11,35,10,1,0,0,0,1,0,1,0,0,star ,circle,,,,,,,,,,,,,,,,,,,,,,,,,,,,,,,,,,,,,,,,,,,,,,,,,,,,,,
297877,2022-12-05_18h41.01.196,vts_reward_expectancy_bt,2022.2.4,Win32,60.11421701,Chrome,1707,960,,,,,,,,,,,,,,,,,,,,,,,F,125,hexagon,0,0,,0,0,0,0,0,1,,,,,,,,,,,,,,,,,,,,,,,,,,,,,,,,,,,,,,,,,,
297877,2022-12-05_18h41.01.196,vts_reward_expectancy_bt,2022.2.4,Win32,60.11421701,Chrome,1707,960,,,,,,,,,,,,,,,,,,,,,,,U,174,circle,0,1,d,0,1,0,1,0,1,0.3681,,,,,,,,,,,,,,,,,,,,,,,,,,,,,,,,,,,,,,,,,
297877,2022-12-05_18h41.01.196,vts_reward_expectancy_bt,2022.2.4,Win32,60.11421701,Chrome,1707,960,,,,,,,,,,,,,,,,,,,,,,,H,181,star,1,1,d,0,2,0,2,0,1,1.2836,,,,,,,,,,,,,,,,,,,,,,,,,,,,,,,,,,,,,,,,,
297877,2022-12-05_18h41.01.196,vts_reward_expectancy_bt,2022.2.4,Win32,60.11421701,Chrome,1707,960,,,,,,,,,,,,,,,,,,,,,,,Y,167,triangle,1,0,f,0,3,0,3,0,1,1.2339,,,,,,,,,,,,,,,,,,,,,,,,,,,,,,,,,,,,,,,,,
297877,2022-12-05_18h41.01.196,vts_reward_expectancy_bt,2022.2.4,Win32,60.11421701,Chrome,1707,960,,,,,,,,,,,,,,,,,,,,,,,B,146,hexagon,1,0,d,0,4,0,4,0,1,0.9842,,,,,,,,,,,,,,,,,,,,,,,,,,,,,,,,,,,,,,,,,
297877,2022-12-05_18h41.01.196,vts_reward_expectancy_bt,2022.2.4,Win32,60.11421701,Chrome,1707,960,,,,,,,,,,,,,,,,,,,,,,,W,160,circle,1,0,f,0,5,0,5,0,1,0.6904,,,,,,,,,,,,,,,,,,,,,,,,,,,,,,,,,,,,,,,,,
297877,2022-12-05_18h41.01.196,vts_reward_expectancy_bt,2022.2.4,Win32,60.11421701,Chrome,1707,960,,,,,,,,,,,,,,,,,,,,,,,S,132,star,1,0,f,0,6,0,6,0,1,0.784,,,,,,,,,,,,,,,,,,,,,,,,,,,,,,,,,,,,,,,,,
297877,2022-12-05_18h41.01.196,vts_reward_expectancy_bt,2022.2.4,Win32,60.11421701,Chrome,1707,960,,,,,,,,,,,,,,,,,,,,,,,D,139,triangle,1,0,d,0,7,0,7,0,1,1.0834,,,,,,,,,,,,,,,,,,,,,,,,,,,,,,,,,,,,,,,,,
297877,2022-12-05_18h41.01.196,vts_reward_expectancy_bt,2022.2.4,Win32,60.11421701,Chrome,1707,960,,,,,,,,,,,,,,,,,,,,,,,F,125,hexagon,1,0,d,0,8,0,8,0,1,0.8737,,,,,,,,,,,,,,,,,,,,,,,,,,,,,,,,,,,,,,,,,
297877,2022-12-05_18h41.01.196,vts_reward_expectancy_bt,2022.2.4,Win32,60.11421701,Chrome,1707,960,,,,,,,,,,,,,,,,,,,,,,,U,174,star,1,0,f,0,9,0,9,0,1,0.9671,,,,,,,,,,,,,,,,,,,,,,,,,,,,,,,,,,,,,,,,,
297877,2022-12-05_18h41.01.196,vts_reward_expectancy_bt,2022.2.4,Win32,60.11421701,Chrome,1707,960,,,,,,,,,,,,,,,,,,,,,,,S,125,hexagon,1,0,f,1,0,0,0,0,1,0.9345,,,,,,,,,,,,,,,,,,,,,,,,,,,,,,,,,,,,,,,,,
297877,2022-12-05_18h41.01.196,vts_reward_expectancy_bt,2022.2.4,Win32,60.11421701,Chrome,1707,960,,,,,,,,,,,,,,,,,,,,,,,D,146,triangle,1,0,d,1,1,0,1,0,1,0.7844,,,,,,,,,,,,,,,,,,,,,,,,,,,,,,,,,,,,,,,,,
297877,2022-12-05_18h41.01.196,vts_reward_expectancy_bt,2022.2.4,Win32,60.11421701,Chrome,1707,960,,,,,,,,,,,,,,,,,,,,,,,F,132,circle,1,0,d,1,2,0,2,0,1,0.7503,,,,,,,,,,,,,,,,,,,,,,,,,,,,,,,,,,,,,,,,,
297877,2022-12-05_18h41.01.196,vts_reward_expectancy_bt,2022.2.4,Win32,60.11421701,Chrome,1707,960,,,,,,,,,,,,,,,,,,,,,,,U,181,star,1,0,f,1,3,0,3,0,1,0.8051,,,,,,,,,,,,,,,,,,,,,,,,,,,,,,,,,,,,,,,,,
297877,2022-12-05_18h41.01.196,vts_reward_expectancy_bt,2022.2.4,Win32,60.11421701,Chrome,1707,960,,,,,,,,,,,,,,,,,,,,,,,H,174,hexagon,1,0,d,1,4,0,4,0,1,0.7,,,,,,,,,,,,,,,,,,,,,,,,,,,,,,,,,,,,,,,,,
297877,2022-12-05_18h41.01.196,vts_reward_expectancy_bt,2022.2.4,Win32,60.11421701,Chrome,1707,960,,,,,,,,,,,,,,,,,,,,,,,B,139,triangle,1,0,d,1,5,0,5,0,1,0.6343,,,,,,,,,,,,,,,,,,,,,,,,,,,,,,,,,,,,,,,,,
297877,2022-12-05_18h41.01.196,vts_reward_expectancy_bt,2022.2.4,Win32,60.11421701,Chrome,1707,960,,,,,,,,,,,,,,,,,,,,,,,W,167,circle,1,0,f,1,6,0,6,0,1,0.7669,,,,,,,,,,,,,,,,,,,,,,,,,,,,,,,,,,,,,,,,,
297877,2022-12-05_18h41.01.196,vts_reward_expectancy_bt,2022.2.4,Win32,60.11421701,Chrome,1707,960,,,,,,,,,,,,,,,,,,,,,,,Y,160,star,1,0,f,1,7,0,7,0,1,0.6848,,,,,,,,,,,,,,,,,,,,,,,,,,,,,,,,,,,,,,,,,
297877,2022-12-05_18h41.01.196,vts_reward_expectancy_bt,2022.2.4,Win32,60.11421701,Chrome,1707,960,,,,,,,,,,,,,,,,,,,,,,,S,125,hexagon,1,0,f,1,8,0,8,0,1,1.0514,,,,,,,,,,,,,,,,,,,,,,,,,,,,,,,,,,,,,,,,,
297877,2022-12-05_18h41.01.196,vts_reward_expectancy_bt,2022.2.4,Win32,60.11421701,Chrome,1707,960,,,,,,,,,,,,,,,,,,,,,,,D,146,circle,1,0,d,1,9,0,9,0,1,0.7809,,,,,,,,,,,,,,,,,,,,,,,,,,,,,,,,,,,,,,,,,
297877,2022-12-05_18h41.01.196,vts_reward_expectancy_bt,2022.2.4,Win32,60.11421701,Chrome,1707,960,,,,,,,,,,,,,,,,,,,,,,,S,146,hexagon,1,0,,2,,,,,,,j,1.7018,0,0,0,0,1,,,,,,,,,,,,,,,,,,,,,,,,,,,,,,,,,,
297877,2022-12-05_18h41.01.196,vts_reward_expectancy_bt,2022.2.4,Win32,60.11421701,Chrome,1707,960,,,,,,,,,,,,,,,,,,,,,,,F,125,triangle,1,0,,2,,,,,,,j,0.7373,1,0,1,0,1,,,,,,,,,,,,,,,,,,,,,,,,,,,,,,,,,,
297877,2022-12-05_18h41.01.196,vts_reward_expectancy_bt,2022.2.4,Win32,60.11421701,Chrome,1707,960,,,,,,,,,,,,,,,,,,,,,,,Y,132,star,1,0,,2,,,,,,,j,0.7183,2,0,2,0,1,,,,,,,,,,,,,,,,,,,,,,,,,,,,,,,,,,
297877,2022-12-05_18h41.01.196,vts_reward_expectancy_bt,2022.2.4,Win32,60.11421701,Chrome,1707,960,,,,,,,,,,,,,,,,,,,,,,,B,181,circle,1,0,,2,,,,,,,k,0.6174,3,0,3,0,1,,,,,,,,,,,,,,,,,,,,,,,,,,,,,,,,,,
297877,2022-12-05_18h41.01.196,vts_reward_expectancy_bt,2022.2.4,Win32,60.11421701,Chrome,1707,960,,,,,,,,,,,,,,,,,,,,,,,H,167,hexagon,1,0,,2,,,,,,,k,1.0353,4,0,4,0,1,,,,,,,,,,,,,,,,,,,,,,,,,,,,,,,,,,
297877,2022-12-05_18h41.01.196,vts_reward_expectancy_bt,2022.2.4,Win32,60.11421701,Chrome,1707,960,,,,,,,,,,,,,,,,,,,,,,,W,139,triangle,0,0,,2,,,,,,,k,1.0517,5,0,5,0,1,,,,,,,,,,,,,,,,,,,,,,,,,,,,,,,,,,
297877,2022-12-05_18h41.01.196,vts_reward_expectancy_bt,2022.2.4,Win32,60.11421701,Chrome,1707,960,,,,,,,,,,,,,,,,,,,,,,,U,160,star,1,1,,2,,,,,,,k,0.5011,6,0,6,0,1,,,,,,,,,,,,,,,,,,,,,,,,,,,,,,,,,,
297877,2022-12-05_18h41.01.196,vts_reward_expectancy_bt,2022.2.4,Win32,60.11421701,Chrome,1707,960,,,,,,,,,,,,,,,,,,,,,,,D,174,circle,1,0,,2,,,,,,,k,0.6671,7,0,7,0,1,,,,,,,,,,,,,,,,,,,,,,,,,,,,,,,,,,
297877,2022-12-05_18h41.01.196,vts_reward_expectancy_bt,2022.2.4,Win32,60.11421701,Chrome,1707,960,,,,,,,,,,,,,,,,,,,,,,,S,146,triangle,1,0,,2,,,,,,,j,1.0692,8,0,8,0,1,,,,,,,,,,,,,,,,,,,,,,,,,,,,,,,,,,
297877,2022-12-05_18h41.01.196,vts_reward_expectancy_bt,2022.2.4,Win32,60.11421701,Chrome,1707,960,,,,,,,,,,,,,,,,,,,,,,,F,125,hexagon,1,0,,2,,,,,,,j,0.7507,9,0,9,0,1,,,,,,,,,,,,,,,,,,,,,,,,,,,,,,,,,,
297877,2022-12-05_18h41.01.196,vts_reward_expectancy_bt,2022.2.4,Win32,60.11421701,Chrome,1707,960,,,,,0,576,,,,,,,,,,,,,,,,,B,125,hexagon,1,0,,3,,,,,,,,,,,,,,-1,letter,NA,d,1.5891,vtsPrac,0,0,0,0,1,,,,,,,,,,,,,,,,,,,,,,,
297877,2022-12-05_18h41.01.196,vts_reward_expectancy_bt,2022.2.4,Win32,60.11421701,Chrome,1707,960,,,,,0,576,,,,,,,,,,,,,,,,,D,174,circle,1,0,,3,,,,,,,,,,,,,,switch,number,numSwt,k,0.5374,vtsPrac,1,0,1,0,1,,,,,,,,,,,,,,,,,,,,,,,
297877,2022-12-05_18h41.01.196,vts_reward_expectancy_bt,2022.2.4,Win32,60.11421701,Chrome,1707,960,,,,,0,576,,,,,,,,,,,,,,,,,U,139,hexagon,1,0,,3,,,,,,,,,,,,,,switch,letter,lettSwt,f,0.9006,vtsPrac,2,0,2,0,1,,,,,,,,,,,,,,,,,,,,,,,
297877,2022-12-05_18h41.01.196,vts_reward_expectancy_bt,2022.2.4,Win32,60.11421701,Chrome,1707,960,,,,,0,576,,,,,,,,,,,,,,,,,W,160,circle,1,0,,3,,,,,,,,,,,,,,switch,number,numSwt,k,0.7339,vtsPrac,3,0,3,0,1,,,,,,,,,,,,,,,,,,,,,,,
297877,2022-12-05_18h41.01.196,vts_reward_expectancy_bt,2022.2.4,Win32,60.11421701,Chrome,1707,960,,,,,0,576,,,,,,,,,,,,,,,,,B,125,triangle,1,0,,3,,,,,,,,,,,,,,switch,letter,lettSwt,d,0.6063,vtsPrac,4,0,4,0,1,,,,,,,,,,,,,,,,,,,,,,,
297877,2022-12-05_18h41.01.196,vts_reward_expectancy_bt,2022.2.4,Win32,60.11421701,Chrome,1707,960,,,,,0,576,,,,,,,,,,,,,,,,,D,174,star,1,0,,3,,,,,,,,,,,,,,switch,number,numSwt,k,1.0004,vtsPrac,5,0,5,0,1,,,,,,,,,,,,,,,,,,,,,,,
297877,2022-12-05_18h41.01.196,vts_reward_expectancy_bt,2022.2.4,Win32,60.11421701,Chrome,1707,960,,,,,0,576,,,,,,,,,,,,,,,,,U,139,circle,1,0,,3,,,,,,,,,,,,,,repeat,number,numRpt,j,0.7294,vtsPrac,6,0,6,0,1,,,,,,,,,,,,,,,,,,,,,,,
297877,2022-12-05_18h41.01.196,vts_reward_expectancy_bt,2022.2.4,Win32,60.11421701,Chrome,1707,960,,,,,0,576,,,,,,,,,,,,,,,,,W,160,hexagon,1,0,,3,,,,,,,,,,,,,,switch,letter,lettSwt,f,0.9175,vtsPrac,7,0,7,0,1,,,,,,,,,,,,,,,,,,,,,,,
297877,2022-12-05_18h41.01.196,vts_reward_expectancy_bt,2022.2.4,Win32,60.11421701,Chrome,1707,960,,,,,0,576,,,,,,,,,,,,,,,,,F,146,triangle,1,0,,3,,,,,,,,,,,,,,repeat,letter,lettRpt,d,0.8006,vtsPrac,8,0,8,0,1,,,,,,,,,,,,,,,,,,,,,,,
297877,2022-12-05_18h41.01.196,vts_reward_expectancy_bt,2022.2.4,Win32,60.11421701,Chrome,1707,960,,,,,0,576,,,,,,,,,,,,,,,,,D,181,star,1,0,,3,,,,,,,,,,,,,,switch,number,numSwt,k,0.6673,vtsPrac,9,0,9,0,1,,,,,,,,,,,,,,,,,,,,,,,
297877,2022-12-05_18h41.01.196,vts_reward_expectancy_bt,2022.2.4,Win32,60.11421701,Chrome,1707,960,,,,,0,576,,,,,,,,,,,,,,,,,S,139,star,1,0,,3,,,,,,,,,,,,,,switch,letter,lettSwt,f,0.7677,vtsPrac,10,0,10,0,1,,,,,,,,,,,,,,,,,,,,,,,
297877,2022-12-05_18h41.01.196,vts_reward_expectancy_bt,2022.2.4,Win32,60.11421701,Chrome,1707,960,,,,,0,576,,,,,,,,,,,,,,,,,H,132,triangle,1,0,,3,,,,,,,,,,,,,,repeat,letter,lettRpt,d,0.9337,vtsPrac,11,0,11,0,1,,,,,,,,,,,,,,,,,,,,,,,
297877,2022-12-05_18h41.01.196,vts_reward_expectancy_bt,2022.2.4,Win32,60.11421701,Chrome,1707,960,,,,,0,576,,,,,,,,,,,,,,,,,H,167,star,1,0,,3,,,,,,,,,,,,,,switch,number,numSwt,k,0.8066,vtsPrac,12,0,12,0,1,,,,,,,,,,,,,,,,,,,,,,,
297877,2022-12-05_18h41.01.196,vts_reward_expectancy_bt,2022.2.4,Win32,60.11421701,Chrome,1707,960,,,,,0,576,,,,,,,,,,,,,,,,,S,139,circle,1,0,,3,,,,,,,,,,,,,,repeat,number,numRpt,j,0.5007,vtsPrac,13,0,13,0,1,,,,,,,,,,,,,,,,,,,,,,,
297877,2022-12-05_18h41.01.196,vts_reward_expectancy_bt,2022.2.4,Win32,60.11421701,Chrome,1707,960,,,,,0,576,,,,,,,,,,,,,,,,,U,146,star,1,0,,3,,,,,,,,,,,,,,switch,letter,lettSwt,f,1.0386,vtsPrac,14,0,14,0,1,,,,,,,,,,,,,,,,,,,,,,,
297877,2022-12-05_18h41.01.196,vts_reward_expectancy_bt,2022.2.4,Win32,60.11421701,Chrome,1707,960,,,,,0,576,,,,,,,,,,,,,,,,,W,160,triangle,1,0,,3,,,,,,,,,,,,,,repeat,letter,lettRpt,f,0.6677,vtsPrac,15,0,15,0,1,,,,,,,,,,,,,,,,,,,,,,,
297877,2022-12-05_18h41.01.196,vts_reward_expectancy_bt,2022.2.4,Win32,60.11421701,Chrome,1707,960,,,,,0,576,,,,,,,,,,,,,,,,,W,160,hexagon,1,0,,3,,,,,,,,,,,,,,switch,number,numSwt,k,0.8519,vtsPrac,16,0,16,0,1,,,,,,,,,,,,,,,,,,,,,,,
297877,2022-12-05_18h41.01.196,vts_reward_expectancy_bt,2022.2.4,Win32,60.11421701,Chrome,1707,960,,,,,0,576,,,,,,,,,,,,,,,,,D,139,circle,1,0,,3,,,,,,,,,,,,,,switch,letter,lettSwt,d,0.9175,vtsPrac,17,0,17,0,1,,,,,,,,,,,,,,,,,,,,,,,
297877,2022-12-05_18h41.01.196,vts_reward_expectancy_bt,2022.2.4,Win32,60.11421701,Chrome,1707,960,,,,,0,576,,,,,,,,,,,,,,,,,S,174,circle,1,0,,3,,,,,,,,,,,,,,switch,number,numSwt,k,0.7231,vtsPrac,18,0,18,0,1,,,,,,,,,,,,,,,,,,,,,,,
297877,2022-12-05_18h41.01.196,vts_reward_expectancy_bt,2022.2.4,Win32,60.11421701,Chrome,1707,960,,,,,0,576,,,,,,,,,,,,,,,,,H,167,star,1,0,,3,,,,,,,,,,,,,,switch,letter,lettSwt,d,0.8672,vtsPrac,19,0,19,0,1,,,,,,,,,,,,,,,,,,,,,,,
297877,2022-12-05_18h41.01.196,vts_reward_expectancy_bt,2022.2.4,Win32,60.11421701,Chrome,1707,960,,,,,0,576,,,,,,,,,,,,,,,,,U,181,circle,1,0,,3,,,,,,,,,,,,,,repeat,letter,lettRpt,f,0.8006,vtsPrac,20,0,20,0,1,,,,,,,,,,,,,,,,,,,,,,,
297877,2022-12-05_18h41.01.196,vts_reward_expectancy_bt,2022.2.4,Win32,60.11421701,Chrome,1707,960,,,,,0,576,,,,,,,,,,,,,,,,,Y,174,star,1,0,,3,,,,,,,,,,,,,,switch,number,numSwt,k,1.7035,vtsPrac,21,0,21,0,1,,,,,,,,,,,,,,,,,,,,,,,
297877,2022-12-05_18h41.01.196,vts_reward_expectancy_bt,2022.2.4,Win32,60.11421701,Chrome,1707,960,,,,,0,576,,,,,,,,,,,,,,,,,W,139,star,1,0,,3,,,,,,,,,,,,,,repeat,number,numRpt,j,1.0338,vtsPrac,22,0,22,0,1,,,,,,,,,,,,,,,,,,,,,,,
297877,2022-12-05_18h41.01.196,vts_reward_expectancy_bt,2022.2.4,Win32,60.11421701,Chrome,1707,960,,,,,0,576,,,,,,,,,,,,,,,,,S,125,triangle,1,0,,3,,,,,,,,,,,,,,switch,letter,lettSwt,f,0.8343,vtsPrac,23,0,23,0,1,,,,,,,,,,,,,,,,,,,,,,,
297877,2022-12-05_18h41.01.196,vts_reward_expectancy_bt,2022.2.4,Win32,60.11421701,Chrome,1707,960,,,,,0,576,,,,,,,,,,,,,,,,,S,125,hexagon,1,0,,3,,,,,,,,,,,,,,repeat,letter,lettRpt,f,0.8673,vtsPrac,24,0,24,0,1,,,,,,,,,,,,,,,,,,,,,,,
297877,2022-12-05_18h41.01.196,vts_reward_expectancy_bt,2022.2.4,Win32,60.11421701,Chrome,1707,960,,,,,0,576,,,,,,,,,,,,,,,,,H,132,circle,1,0,,3,,,,,,,,,,,,,,switch,number,numSwt,j,0.8015,vtsPrac,25,0,25,0,1,,,,,,,,,,,,,,,,,,,,,,,
297877,2022-12-05_18h41.01.196,vts_reward_expectancy_bt,2022.2.4,Win32,60.11421701,Chrome,1707,960,,,,,0,576,,,,,,,,,,,,,,,,,B,146,hexagon,0,0,,3,,,,,,,,,,,,,,repeat,number,NA,k,0.8504,vtsPrac,26,0,26,0,1,,,,,,,,,,,,,,,,,,,,,,,
297877,2022-12-05_18h41.01.196,vts_reward_expectancy_bt,2022.2.4,Win32,60.11421701,Chrome,1707,960,,,,,0,576,,,,,,,,,,,,,,,,,F,181,circle,1,1,,3,,,,,,,,,,,,,,repeat,number,numRpt,k,0.6789,vtsPrac,27,0,27,0,1,,,,,,,,,,,,,,,,,,,,,,,
297877,2022-12-05_18h41.01.196,vts_reward_expectancy_bt,2022.2.4,Win32,60.11421701,Chrome,1707,960,,,,,0,576,,,,,,,,,,,,,,,,,H,160,triangle,1,0,,3,,,,,,,,,,,,,,repeat,number,numRpt,k,1.0218,vtsPrac,28,0,28,0,1,,,,,,,,,,,,,,,,,,,,,,,
297877,2022-12-05_18h41.01.196,vts_reward_expectancy_bt,2022.2.4,Win32,60.11421701,Chrome,1707,960,,,,,0,576,,,,,,,,,,,,,,,,,B,139,hexagon,1,0,,3,,,,,,,,,,,,,,switch,letter,lettSwt,d,0.767,vtsPrac,29,0,29,0,1,,,,,,,,,,,,,,,,,,,,,,,
297877,2022-12-05_18h41.01.196,vts_reward_expectancy_bt,2022.2.4,Win32,60.11421701,Chrome,1707,960,,,,,0,576,,,,,,,,,,,,,,,,,D,132,triangle,1,0,,3,,,,,,,,,,,,,,repeat,letter,lettRpt,d,1.2339,vtsPrac,30,0,30,0,1,,,,,,,,,,,,,,,,,,,,,,,
297877,2022-12-05_18h41.01.196,vts_reward_expectancy_bt,2022.2.4,Win32,60.11421701,Chrome,1707,960,,,,,0,576,,,,,,,,,,,,,,,,,U,146,circle,1,0,,3,,,,,,,,,,,,,,switch,number,numSwt,j,1.1174,vtsPrac,31,0,31,0,1,,,,,,,,,,,,,,,,,,,,,,,
297877,2022-12-05_18h41.01.196,vts_reward_expectancy_bt,2022.2.4,Win32,60.11421701,Chrome,1707,960,,,,,,,,,,,,,,,,,,,,,,,,,,,,,,,,,,,,,,,,,,,,,,,,,,,,,,,,,,,,,,,,,,,,,,,,,,,,
297877,2022-12-05_18h41.01.196,vts_reward_expectancy_bt,2022.2.4,Win32,60.11421701,Chrome,1707,960,,,,,,,,,,,,,,,,,,,,,,,,,,,,,,,,,,,,,,,,,,,,,,,,,,,,,,,,,,,,,,,,,,,,,,,,,,,,
297877,2022-12-05_18h41.01.196,vts_reward_expectancy_bt,2022.2.4,Win32,60.11421701,Chrome,1707,960,,,,,0,576,,,,,,,,,,,,,,,,,D,125,star,1,0,,,,,,,,,,,,,,,,switch,letter,lettSwt,d,0.6169,noRew,,,,,,0,0,0,0,0,1,,,,,,,,,,,,,,,,,
297877,2022-12-05_18h41.01.196,vts_reward_expectancy_bt,2022.2.4,Win32,60.11421701,Chrome,1707,960,,,,,0,576,,,,,,,,,,,,,,,,,W,167,hexagon,1,0,,,,,,,,,,,,,,,,switch,number,numSwt,k,0.5508,noRew,,,,,,0,1,0,1,0,1,,,,,,,,,,,,,,,,,
297877,2022-12-05_18h41.01.196,vts_reward_expectancy_bt,2022.2.4,Win32,60.11421701,Chrome,1707,960,,,,,0,576,,,,,,,,,,,,,,,,,S,160,star,1,0,,,,,,,,,,,,,,,,switch,letter,lettSwt,f,0.8506,noRew,,,,,,0,2,0,2,0,1,,,,,,,,,,,,,,,,,
297877,2022-12-05_18h41.01.196,vts_reward_expectancy_bt,2022.2.4,Win32,60.11421701,Chrome,1707,960,,,,,0,576,,,,,,,,,,,,,,,,,U,132,hexagon,1,0,,,,,,,,,,,,,,,,switch,number,numSwt,j,1.4175,noRew,,,,,,0,3,0,3,0,1,,,,,,,,,,,,,,,,,
297877,2022-12-05_18h41.01.196,vts_reward_expectancy_bt,2022.2.4,Win32,60.11421701,Chrome,1707,960,,,,,0,576,,,,,,,,,,,,,,,,,D,125,hexagon,1,0,,,,,,,,,,,,,,,,switch,letter,lettSwt,d,0.7168,noRew,,,,,,0,4,0,4,0,1,,,,,,,,,,,,,,,,,
297877,2022-12-05_18h41.01.196,vts_reward_expectancy_bt,2022.2.4,Win32,60.11421701,Chrome,1707,960,,,,,0,576,,,,,,,,,,,,,,,,,W,167,triangle,1,0,,,,,,,,,,,,,,,,switch,number,numSwt,k,0.7681,noRew,,,,,,0,5,0,5,0,1,,,,,,,,,,,,,,,,,
297877,2022-12-05_18h41.01.196,vts_reward_expectancy_bt,2022.2.4,Win32,60.11421701,Chrome,1707,960,,,,,0,576,,,,,,,,,,,,,,,,,S,160,hexagon,1,0,,,,,,,,,,,,,,,,switch,letter,lettSwt,f,0.6853,noRew,,,,,,0,6,0,6,0,1,,,,,,,,,,,,,,,,,
297877,2022-12-05_18h41.01.196,vts_reward_expectancy_bt,2022.2.4,Win32,60.11421701,Chrome,1707,960,,,,,0,576,,,,,,,,,,,,,,,,,U,132,circle,1,0,,,,,,,,,,,,,,,,repeat,letter,lettRpt,f,0.9002,noRew,,,,,,0,7,0,7,0,1,,,,,,,,,,,,,,,,,
297877,2022-12-05_18h41.01.196,vts_reward_expectancy_bt,2022.2.4,Win32,60.11421701,Chrome,1707,960,,,,,0,576,,,,,,,,,,,,,,,,,D,181,circle,1,0,,,,,,,,,,,,,,,,switch,number,numSwt,k,0.5371,noRew,,,,,,0,8,0,8,0,1,,,,,,,,,,,,,,,,,
297877,2022-12-05_18h41.01.196,vts_reward_expectancy_bt,2022.2.4,Win32,60.11421701,Chrome,1707,960,,,,,0,576,,,,,,,,,,,,,,,,,H,174,hexagon,1,0,,,,,,,,,,,,,,,,repeat,number,numRpt,k,0.584,noRew,,,,,,0,9,0,9,0,1,,,,,,,,,,,,,,,,,
297877,2022-12-05_18h41.01.196,vts_reward_expectancy_bt,2022.2.4,Win32,60.11421701,Chrome,1707,960,,,,,0,576,,,,,,,,,,,,,,,,,S,146,hexagon,1,0,,,,,,,,,,,,,,,,repeat,number,numRpt,j,0.8335,noRew,,,,,,0,10,0,10,0,1,,,,,,,,,,,,,,,,,
297877,2022-12-05_18h41.01.196,vts_reward_expectancy_bt,2022.2.4,Win32,60.11421701,Chrome,1707,960,,,,,0,576,,,,,,,,,,,,,,,,,Y,160,triangle,1,0,,,,,,,,,,,,,,,,switch,letter,lettSwt,f,0.6008,noRew,,,,,,0,11,0,11,0,1,,,,,,,,,,,,,,,,,
297877,2022-12-05_18h41.01.196,vts_reward_expectancy_bt,2022.2.4,Win32,60.11421701,Chrome,1707,960,,,,,0,576,,,,,,,,,,,,,,,,,F,160,star,1,0,,,,,,,,,,,,,,,,switch,number,numSwt,k,1.0715,noRew,,,,,,0,12,0,12,0,1,,,,,,,,,,,,,,,,,
297877,2022-12-05_18h41.01.196,vts_reward_expectancy_bt,2022.2.4,Win32,60.11421701,Chrome,1707,960,,,,,0,576,,,,,,,,,,,,,,,,,S,146,triangle,1,0,,,,,,,,,,,,,,,,switch,letter,lettSwt,f,0.7677,noRew,,,,,,0,13,0,13,0,1,,,,,,,,,,,,,,,,,
297877,2022-12-05_18h41.01.196,vts_reward_expectancy_bt,2022.2.4,Win32,60.11421701,Chrome,1707,960,,,,,0,576,,,,,,,,,,,,,,,,,W,174,star,1,0,,,,,,,,,,,,,,,,repeat,letter,lettRpt,f,0.7161,noRew,,,,,,0,14,0,14,0,1,,,,,,,,,,,,,,,,,
297877,2022-12-05_18h41.01.196,vts_reward_expectancy_bt,2022.2.4,Win32,60.11421701,Chrome,1707,960,,,,,0,576,,,,,,,,,,,,,,,,,B,125,circle,1,0,,,,,,,,,,,,,,,,switch,number,numSwt,j,0.836,noRew,,,,,,0,15,0,15,0,1,,,,,,,,,,,,,,,,,
297877,2022-12-05_18h41.01.196,vts_reward_expectancy_bt,2022.2.4,Win32,60.11421701,Chrome,1707,960,,,,,0,576,,,,,,,,,,,,,,,,,F,146,hexagon,1,0,,,,,,,,,,,,,,,,repeat,number,numRpt,j,0.6228,noRew,,,,,,0,16,0,16,0,1,,,,,,,,,,,,,,,,,
297877,2022-12-05_18h41.01.196,vts_reward_expectancy_bt,2022.2.4,Win32,60.11421701,Chrome,1707,960,,,,,0,576,,,,,,,,,,,,,,,,,H,132,circle,1,0,,,,,,,,,,,,,,,,switch,letter,lettSwt,d,0.95,noRew,,,,,,0,17,0,17,0,1,,,,,,,,,,,,,,,,,
297877,2022-12-05_18h41.01.196,vts_reward_expectancy_bt,2022.2.4,Win32,60.11421701,Chrome,1707,960,,,,,0,576,,,,,,,,,,,,,,,,,B,174,hexagon,1,0,,,,,,,,,,,,,,,,repeat,letter,lettRpt,d,0.885,noRew,,,,,,0,18,0,18,0,1,,,,,,,,,,,,,,,,,
297877,2022-12-05_18h41.01.196,vts_reward_expectancy_bt,2022.2.4,Win32,60.11421701,Chrome,1707,960,,,,,0,576,,,,,,,,,,,,,,,,,D,139,triangle,1,0,,,,,,,,,,,,,,,,switch,number,numSwt,j,0.6679,noRew,,,,,,0,19,0,19,0,1,,,,,,,,,,,,,,,,,
297877,2022-12-05_18h41.01.196,vts_reward_expectancy_bt,2022.2.4,Win32,60.11421701,Chrome,1707,960,,,,,0,576,,,,,,,,,,,,,,,,,U,167,triangle,1,0,,,,,,,,,,,,,,,,repeat,number,numRpt,k,0.8173,noRew,,,,,,0,20,0,20,0,1,,,,,,,,,,,,,,,,,
297877,2022-12-05_18h41.01.196,vts_reward_expectancy_bt,2022.2.4,Win32,60.11421701,Chrome,1707,960,,,,,0,576,,,,,,,,,,,,,,,,,B,174,circle,1,0,,,,,,,,,,,,,,,,switch,letter,lettSwt,d,0.9674,noRew,,,,,,0,21,0,21,0,1,,,,,,,,,,,,,,,,,
297877,2022-12-05_18h41.01.196,vts_reward_expectancy_bt,2022.2.4,Win32,60.11421701,Chrome,1707,960,,,,,0,576,,,,,,,,,,,,,,,,,W,125,hexagon,1,0,,,,,,,,,,,,,,,,repeat,letter,lettRpt,f,1.0881,noRew,,,,,,0,22,0,22,0,1,,,,,,,,,,,,,,,,,
297877,2022-12-05_18h41.01.196,vts_reward_expectancy_bt,2022.2.4,Win32,60.11421701,Chrome,1707,960,,,,,0,576,,,,,,,,,,,,,,,,,F,139,triangle,1,0,,,,,,,,,,,,,,,,repeat,letter,lettRpt,d,1.2345,noRew,,,,,,0,23,0,23,0,1,,,,,,,,,,,,,,,,,
297877,2022-12-05_18h41.01.196,vts_reward_expectancy_bt,2022.2.4,Win32,60.11421701,Chrome,1707,960,,,,,0,576,,,,,,,,,,,,,,,,,W,132,star,1,0,,,,,,,,,,,,,,,,switch,number,numSwt,j,1.3676,noRew,,,,,,0,24,0,24,0,1,,,,,,,,,,,,,,,,,
297877,2022-12-05_18h41.01.196,vts_reward_expectancy_bt,2022.2.4,Win32,60.11421701,Chrome,1707,960,,,,,0,576,,,,,,,,,,,,,,,,,S,160,circle,1,0,,,,,,,,,,,,,,,,repeat,number,numRpt,k,0.6846,noRew,,,,,,0,25,0,25,0,1,,,,,,,,,,,,,,,,,
297877,2022-12-05_18h41.01.196,vts_reward_expectancy_bt,2022.2.4,Win32,60.11421701,Chrome,1707,960,,,,,0,576,,,,,,,,,,,,,,,,,F,174,hexagon,1,0,,,,,,,,,,,,,,,,repeat,number,numRpt,k,0.6175,noRew,,,,,,0,26,0,26,0,1,,,,,,,,,,,,,,,,,
297877,2022-12-05_18h41.01.196,vts_reward_expectancy_bt,2022.2.4,Win32,60.11421701,Chrome,1707,960,,,,,0,576,,,,,,,,,,,,,,,,,U,146,triangle,1,0,,,,,,,,,,,,,,,,switch,letter,lettSwt,f,1.1341,noRew,,,,,,0,27,0,27,0,1,,,,,,,,,,,,,,,,,
297877,2022-12-05_18h41.01.196,vts_reward_expectancy_bt,2022.2.4,Win32,60.11421701,Chrome,1707,960,,,,,0,576,,,,,,,,,,,,,,,,,D,125,triangle,1,0,,,,,,,,,,,,,,,,switch,number,numSwt,j,0.7005,noRew,,,,,,0,28,0,28,0,1,,,,,,,,,,,,,,,,,
297877,2022-12-05_18h41.01.196,vts_reward_expectancy_bt,2022.2.4,Win32,60.11421701,Chrome,1707,960,,,,,0,576,,,,,,,,,,,,,,,,,W,167,circle,1,0,,,,,,,,,,,,,,,,switch,letter,lettSwt,f,2.501,noRew,,,,,,0,29,0,29,0,1,,,,,,,,,,,,,,,,,
297877,2022-12-05_18h41.01.196,vts_reward_expectancy_bt,2022.2.4,Win32,60.11421701,Chrome,1707,960,,,,,0,576,,,,,,,,,,,,,,,,,Y,146,circle,1,0,,,,,,,,,,,,,,,,repeat,letter,lettRpt,f,0.9168,noRew,,,,,,0,30,0,30,0,1,,,,,,,,,,,,,,,,,
297877,2022-12-05_18h41.01.196,vts_reward_expectancy_bt,2022.2.4,Win32,60.11421701,Chrome,1707,960,,,,,0,576,,,,,,,,,,,,,,,,,H,160,hexagon,1,0,,,,,,,,,,,,,,,,switch,number,numSwt,k,0.7842,noRew,,,,,,0,31,0,31,0,1,,,,,,,,,,,,,,,,,
297877,2022-12-05_18h41.01.196,vts_reward_expectancy_bt,2022.2.4,Win32,60.11421701,Chrome,1707,960,,,,,0,576,,,,,,,,,,,,,,,,,H,181,hexagon,1,0,,,,,,,,,,,,,,,,repeat,number,numRpt,k,0.8504,noRew,,,,,,0,32,0,32,0,1,,,,,,,,,,,,,,,,,
297877,2022-12-05_18h41.01.196,vts_reward_expectancy_bt,2022.2.4,Win32,60.11421701,Chrome,1707,960,,,,,0,576,,,,,,,,,,,,,,,,,W,139,triangle,1,0,,,,,,,,,,,,,,,,switch,letter,lettSwt,f,0.9338,noRew,,,,,,0,33,0,33,0,1,,,,,,,,,,,,,,,,,
297877,2022-12-05_18h41.01.196,vts_reward_expectancy_bt,2022.2.4,Win32,60.11421701,Chrome,1707,960,,,,,0,576,,,,,,,,,,,,,,,,,D,174,hexagon,1,0,,,,,,,,,,,,,,,,repeat,letter,lettRpt,d,0.7338,noRew,,,,,,0,34,0,34,0,1,,,,,,,,,,,,,,,,,
297877,2022-12-05_18h41.01.196,vts_reward_expectancy_bt,2022.2.4,Win32,60.11421701,Chrome,1707,960,,,,,0,576,,,,,,,,,,,,,,,,,Y,146,triangle,1,0,,,,,,,,,,,,,,,,switch,number,numSwt,j,1.289,noRew,,,,,,0,35,0,35,0,1,,,,,,,,,,,,,,,,,
297877,2022-12-05_18h41.01.196,vts_reward_expectancy_bt,2022.2.4,Win32,60.11421701,Chrome,1707,960,,,,,0,576,,,,,,,,,,,,,,,,,Y,139,hexagon,1,0,,,,,,,,,,,,,,,,repeat,number,numRpt,j,0.9213,noRew,,,,,,0,36,0,36,0,1,,,,,,,,,,,,,,,,,
297877,2022-12-05_18h41.01.196,vts_reward_expectancy_bt,2022.2.4,Win32,60.11421701,Chrome,1707,960,,,,,0,576,,,,,,,,,,,,,,,,,W,167,circle,1,0,,,,,,,,,,,,,,,,switch,letter,lettSwt,f,1.5505,noRew,,,,,,0,37,0,37,0,1,,,,,,,,,,,,,,,,,
297877,2022-12-05_18h41.01.196,vts_reward_expectancy_bt,2022.2.4,Win32,60.11421701,Chrome,1707,960,,,,,0,576,,,,,,,,,,,,,,,,,H,132,circle,1,0,,,,,,,,,,,,,,,,switch,number,numSwt,j,1.2173,noRew,,,,,,0,38,0,38,0,1,,,,,,,,,,,,,,,,,
297877,2022-12-05_18h41.01.196,vts_reward_expectancy_bt,2022.2.4,Win32,60.11421701,Chrome,1707,960,,,,,0,576,,,,,,,,,,,,,,,,,D,174,triangle,1,0,,,,,,,,,,,,,,,,switch,letter,lettSwt,d,0.9673,noRew,,,,,,0,39,0,39,0,1,,,,,,,,,,,,,,,,,
297877,2022-12-05_18h41.01.196,vts_reward_expectancy_bt,2022.2.4,Win32,60.11421701,Chrome,1707,960,,,,,0,576,,,,,,,,,,,,,,,,,S,160,circle,1,0,,,,,,,,,,,,,,,,switch,number,numSwt,k,0.6679,noRew,,,,,,0,40,0,40,0,1,,,,,,,,,,,,,,,,,
297877,2022-12-05_18h41.01.196,vts_reward_expectancy_bt,2022.2.4,Win32,60.11421701,Chrome,1707,960,,,,,0,576,,,,,,,,,,,,,,,,,F,139,hexagon,1,0,,,,,,,,,,,,,,,,switch,letter,lettSwt,d,0.7507,noRew,,,,,,0,41,0,41,0,1,,,,,,,,,,,,,,,,,
297877,2022-12-05_18h41.01.196,vts_reward_expectancy_bt,2022.2.4,Win32,60.11421701,Chrome,1707,960,,,,,0,576,,,,,,,,,,,,,,,,,W,132,circle,1,0,,,,,,,,,,,,,,,,switch,number,numSwt,j,0.9337,noRew,,,,,,0,42,0,42,0,1,,,,,,,,,,,,,,,,,
297877,2022-12-05_18h41.01.196,vts_reward_expectancy_bt,2022.2.4,Win32,60.11421701,Chrome,1707,960,,,,,0,576,,,,,,,,,,,,,,,,,H,125,star,1,0,,,,,,,,,,,,,,,,repeat,number,numRpt,j,0.7672,noRew,,,,,,0,43,0,43,0,1,,,,,,,,,,,,,,,,,
297877,2022-12-05_18h41.01.196,vts_reward_expectancy_bt,2022.2.4,Win32,60.11421701,Chrome,1707,960,,,,,0,576,,,,,,,,,,,,,,,,,F,132,hexagon,1,0,,,,,,,,,,,,,,,,switch,letter,lettSwt,d,0.7397,noRew,,,,,,0,44,0,44,0,1,,,,,,,,,,,,,,,,,
297877,2022-12-05_18h41.01.196,vts_reward_expectancy_bt,2022.2.4,Win32,60.11421701,Chrome,1707,960,,,,,0,576,,,,,,,,,,,,,,,,,H,125,triangle,1,0,,,,,,,,,,,,,,,,switch,number,numSwt,j,0.7669,noRew,,,,,,0,45,0,45,0,1,,,,,,,,,,,,,,,,,
297877,2022-12-05_18h41.01.196,vts_reward_expectancy_bt,2022.2.4,Win32,60.11421701,Chrome,1707,960,,,,,0,576,,,,,,,,,,,,,,,,,U,181,circle,1,0,,,,,,,,,,,,,,,,switch,letter,lettSwt,f,0.9176,noRew,,,,,,0,46,0,46,0,1,,,,,,,,,,,,,,,,,
297877,2022-12-05_18h41.01.196,vts_reward_expectancy_bt,2022.2.4,Win32,60.11421701,Chrome,1707,960,,,,,0,576,,,,,,,,,,,,,,,,,S,160,star,1,0,,,,,,,,,,,,,,,,repeat,letter,lettRpt,f,0.8009,noRew,,,,,,0,47,0,47,0,1,,,,,,,,,,,,,,,,,
297877,2022-12-05_18h41.01.196,vts_reward_expectancy_bt,2022.2.4,Win32,60.11421701,Chrome,1707,960,,,,,0,576,,,,,,,,,,,,,,,,,H,167,hexagon,1,0,,,,,,,,,,,,,,,,repeat,letter,lettRpt,d,1.318,noRew,,,,,,0,48,0,48,0,1,,,,,,,,,,,,,,,,,
297877,2022-12-05_18h41.01.196,vts_reward_expectancy_bt,2022.2.4,Win32,60.11421701,Chrome,1707,960,,,,,0,576,,,,,,,,,,,,,,,,,W,146,star,1,0,,,,,,,,,,,,,,,,repeat,letter,lettRpt,f,0.7848,noRew,,,,,,0,49,0,49,0,1,,,,,,,,,,,,,,,,,
297877,2022-12-05_18h41.01.196,vts_reward_expectancy_bt,2022.2.4,Win32,60.11421701,Chrome,1707,960,,,,,0,576,,,,,,,,,,,,,,,,,F,125,triangle,1,0,,,,,,,,,,,,,,,,switch,number,numSwt,j,0.9345,noRew,,,,,,0,50,0,50,0,1,,,,,,,,,,,,,,,,,
297877,2022-12-05_18h41.01.196,vts_reward_expectancy_bt,2022.2.4,Win32,60.11421701,Chrome,1707,960,,,,,0,576,,,,,,,,,,,,,,,,,U,174,hexagon,1,0,,,,,,,,,,,,,,,,switch,letter,lettSwt,f,1.2673,noRew,,,,,,0,51,0,51,0,1,,,,,,,,,,,,,,,,,
297877,2022-12-05_18h41.01.196,vts_reward_expectancy_bt,2022.2.4,Win32,60.11421701,Chrome,1707,960,,,,,0,576,,,,,,,,,,,,,,,,,F,132,star,1,0,,,,,,,,,,,,,,,,repeat,letter,lettRpt,d,0.7052,noRew,,,,,,0,52,0,52,0,1,,,,,,,,,,,,,,,,,
297877,2022-12-05_18h41.01.196,vts_reward_expectancy_bt,2022.2.4,Win32,60.11421701,Chrome,1707,960,,,,,0,576,,,,,,,,,,,,,,,,,Y,139,hexagon,1,0,,,,,,,,,,,,,,,,repeat,letter,lettRpt,f,0.7181,noRew,,,,,,0,53,0,53,0,1,,,,,,,,,,,,,,,,,
297877,2022-12-05_18h41.01.196,vts_reward_expectancy_bt,2022.2.4,Win32,60.11421701,Chrome,1707,960,,,,,0,576,,,,,,,,,,,,,,,,,H,125,triangle,1,0,,,,,,,,,,,,,,,,repeat,letter,lettRpt,d,1.0395,noRew,,,,,,0,54,0,54,0,1,,,,,,,,,,,,,,,,,
297877,2022-12-05_18h41.01.196,vts_reward_expectancy_bt,2022.2.4,Win32,60.11421701,Chrome,1707,960,,,,,0,576,,,,,,,,,,,,,,,,,S,160,star,1,0,,,,,,,,,,,,,,,,repeat,letter,lettRpt,f,0.6723,noRew,,,,,,0,55,0,55,0,1,,,,,,,,,,,,,,,,,
297877,2022-12-05_18h41.01.196,vts_reward_expectancy_bt,2022.2.4,Win32,60.11421701,Chrome,1707,960,,,,,0,576,,,,,,,,,,,,,,,,,W,139,triangle,1,0,,,,,,,,,,,,,,,,repeat,letter,lettRpt,f,1.5173,noRew,,,,,,0,56,0,56,0,1,,,,,,,,,,,,,,,,,
297877,2022-12-05_18h41.01.196,vts_reward_expectancy_bt,2022.2.4,Win32,60.11421701,Chrome,1707,960,,,,,0,576,,,,,,,,,,,,,,,,,U,146,hexagon,1,0,,,,,,,,,,,,,,,,switch,number,numSwt,j,0.9205,noRew,,,,,,0,57,0,57,0,1,,,,,,,,,,,,,,,,,
297877,2022-12-05_18h41.01.196,vts_reward_expectancy_bt,2022.2.4,Win32,60.11421701,Chrome,1707,960,,,,,0,576,,,,,,,,,,,,,,,,,Y,181,triangle,1,0,,,,,,,,,,,,,,,,repeat,number,numRpt,k,1.3169,noRew,,,,,,0,58,0,58,0,1,,,,,,,,,,,,,,,,,
297877,2022-12-05_18h41.01.196,vts_reward_expectancy_bt,2022.2.4,Win32,60.11421701,Chrome,1707,960,,,,,0,576,,,,,,,,,,,,,,,,,H,132,star,1,0,,,,,,,,,,,,,,,,switch,letter,lettSwt,d,1.3504,noRew,,,,,,0,59,0,59,0,1,,,,,,,,,,,,,,,,,
297877,2022-12-05_18h41.01.196,vts_reward_expectancy_bt,2022.2.4,Win32,60.11421701,Chrome,1707,960,,,,,0,576,,,,,,,,,,,,,,,,,F,160,triangle,1,0,,,,,,,,,,,,,,,,switch,number,numSwt,k,1.1172,noRew,,,,,,0,60,0,60,0,1,,,,,,,,,,,,,,,,,
297877,2022-12-05_18h41.01.196,vts_reward_expectancy_bt,2022.2.4,Win32,60.11421701,Chrome,1707,960,,,,,0,576,,,,,,,,,,,,,,,,,B,181,hexagon,1,0,,,,,,,,,,,,,,,,switch,letter,lettSwt,d,0.7341,noRew,,,,,,0,61,0,61,0,1,,,,,,,,,,,,,,,,,
297877,2022-12-05_18h41.01.196,vts_reward_expectancy_bt,2022.2.4,Win32,60.11421701,Chrome,1707,960,,,,,0,576,,,,,,,,,,,,,,,,,H,174,hexagon,1,0,,,,,,,,,,,,,,,,repeat,letter,lettRpt,d,0.7866,noRew,,,,,,0,62,0,62,0,1,,,,,,,,,,,,,,,,,
297877,2022-12-05_18h41.01.196,vts_reward_expectancy_bt,2022.2.4,Win32,60.11421701,Chrome,1707,960,,,,,0,576,,,,,,,,,,,,,,,,,U,146,star,1,0,,,,,,,,,,,,,,,,switch,number,numSwt,j,1.1515,noRew,,,,,,0,63,0,63,0,1,,,,,,,,,,,,,,,,,
297877,2022-12-05_18h41.01.196,vts_reward_expectancy_bt,2022.2.4,Win32,60.11421701,Chrome,1707,960,,,,,,,,,,,,,,,,,,,,,,,,,,,,,,,,,,,,,,,,,,,,,,,,,,,,,,,,,,,,,,,,,,,,,,,,,,,,
297877,2022-12-05_18h41.01.196,vts_reward_expectancy_bt,2022.2.4,Win32,60.11421701,Chrome,1707,960,,,,,0,576,,,,,,,,,,,,,,,,,W,160,hexagon,1,0,,,,,,,,,,,,,,,,switch,letter,lettSwt,f,1.1835,Hi,,,,,,0,,,,,,space,6.7993,high,0,0,0,0,1,,,,,,,,,
297877,2022-12-05_18h41.01.196,vts_reward_expectancy_bt,2022.2.4,Win32,60.11421701,Chrome,1707,960,,,,,1,577,,,,,,,,,,,,,,,,,B,125,circle,1,0,,,,,,,,,,,,,,,,switch,number,numSwt,j,0.5675,Lo,,,,,,0,,,,,,,,high,1,0,1,0,1,,,,,,,,,
297877,2022-12-05_18h41.01.196,vts_reward_expectancy_bt,2022.2.4,Win32,60.11421701,Chrome,1707,960,,,,,1,578,,,,,,,,,,,,,,,,,S,167,triangle,1,0,,,,,,,,,,,,,,,,repeat,number,numRpt,k,0.5674,Lo,,,,,,0,,,,,,,,high,2,0,2,0,1,,,,,,,,,
297877,2022-12-05_18h41.01.196,vts_reward_expectancy_bt,2022.2.4,Win32,60.11421701,Chrome,1707,960,,,,,10,588,,,,,,,,,,,,,,,,,U,174,star,1,0,,,,,,,,,,,,,,,,switch,letter,lettSwt,f,0.5377,Hi,,,,,,0,,,,,,,,high,3,0,3,0,1,,,,,,,,,
297877,2022-12-05_18h41.01.196,vts_reward_expectancy_bt,2022.2.4,Win32,60.11421701,Chrome,1707,960,,,,,10,598,,,,,,,,,,,,,,,,,D,181,hexagon,1,0,,,,,,,,,,,,,,,,switch,number,numSwt,k,0.6165,Hi,,,,,,0,,,,,,,,high,4,0,4,0,1,,,,,,,,,
297877,2022-12-05_18h41.01.196,vts_reward_expectancy_bt,2022.2.4,Win32,60.11421701,Chrome,1707,960,,,,,1,599,,,,,,,,,,,,,,,,,F,139,circle,1,0,,,,,,,,,,,,,,,,switch,letter,lettSwt,d,0.6508,Lo,,,,,,0,,,,,,,,high,5,0,5,0,1,,,,,,,,,
297877,2022-12-05_18h41.01.196,vts_reward_expectancy_bt,2022.2.4,Win32,60.11421701,Chrome,1707,960,,,,,1,600,,,,,,,,,,,,,,,,,Y,146,triangle,1,0,,,,,,,,,,,,,,,,switch,number,numSwt,j,0.5837,Lo,,,,,,0,,,,,,,,high,6,0,6,0,1,,,,,,,,,
297877,2022-12-05_18h41.01.196,vts_reward_expectancy_bt,2022.2.4,Win32,60.11421701,Chrome,1707,960,,,,,1,601,,,,,,,,,,,,,,,,,H,132,star,1,0,,,,,,,,,,,,,,,,switch,letter,lettSwt,d,0.5847,Hi,,,,,,0,,,,,,,,high,7,0,7,0,1,,,,,,,,,
297877,2022-12-05_18h41.01.196,vts_reward_expectancy_bt,2022.2.4,Win32,60.11421701,Chrome,1707,960,,,,,1,602,,,,,,,,,,,,,,,,,W,160,hexagon,1,0,,,,,,,,,,,,,,,,switch,number,numSwt,k,0.4394,Hi,,,,,,0,,,,,,,,high,8,0,8,0,1,,,,,,,,,
297877,2022-12-05_18h41.01.196,vts_reward_expectancy_bt,2022.2.4,Win32,60.11421701,Chrome,1707,960,,,,,1,603,,,,,,,,,,,,,,,,,B,125,circle,1,0,,,,,,,,,,,,,,,,repeat,number,numRpt,j,0.4836,Lo,,,,,,0,,,,,,,,high,9,0,9,0,1,,,,,,,,,
297877,2022-12-05_18h41.01.196,vts_reward_expectancy_bt,2022.2.4,Win32,60.11421701,Chrome,1707,960,,,,,10,613,,,,,,,,,,,,,,,,,S,167,star,1,0,,,,,,,,,,,,,,,,switch,letter,lettSwt,f,0.7167,Hi,,,,,,0,,,,,,,,high,10,0,10,0,1,,,,,,,,,
297877,2022-12-05_18h41.01.196,vts_reward_expectancy_bt,2022.2.4,Win32,60.11421701,Chrome,1707,960,,,,,1,614,,,,,,,,,,,,,,,,,U,174,triangle,1,0,,,,,,,,,,,,,,,,repeat,letter,lettRpt,f,1.1202,Lo,,,,,,0,,,,,,,,high,11,0,11,0,1,,,,,,,,,
297877,2022-12-05_18h41.01.196,vts_reward_expectancy_bt,2022.2.4,Win32,60.11421701,Chrome,1707,960,,,,,1,615,,,,,,,,,,,,,,,,,D,181,triangle,1,0,,,,,,,,,,,,,,,,switch,number,numSwt,k,0.5841,Lo,,,,,,0,,,,,,,,high,12,0,12,0,1,,,,,,,,,
297877,2022-12-05_18h41.01.196,vts_reward_expectancy_bt,2022.2.4,Win32,60.11421701,Chrome,1707,960,,,,,10,625,,,,,,,,,,,,,,,,,F,139,star,1,0,,,,,,,,,,,,,,,,switch,letter,lettSwt,d,0.6175,Hi,,,,,,0,,,,,,,,high,13,0,13,0,1,,,,,,,,,
297877,2022-12-05_18h41.01.196,vts_reward_expectancy_bt,2022.2.4,Win32,60.11421701,Chrome,1707,960,,,,,10,635,,,,,,,,,,,,,,,,,Y,146,hexagon,1,0,,,,,,,,,,,,,,,,switch,number,numSwt,j,0.6848,Hi,,,,,,0,,,,,,,,high,14,0,14,0,1,,,,,,,,,
297877,2022-12-05_18h41.01.196,vts_reward_expectancy_bt,2022.2.4,Win32,60.11421701,Chrome,1707,960,,,,,10,645,,,,,,,,,,,,,,,,,H,132,circle,1,0,,,,,,,,,,,,,,,,switch,letter,lettSwt,d,0.5998,Lo,,,,,,0,,,,,,,,high,15,0,15,0,1,,,,,,,,,
297877,2022-12-05_18h41.01.196,vts_reward_expectancy_bt,2022.2.4,Win32,60.11421701,Chrome,1707,960,,,,,0,645,,,,,,,,,,,,,,,,,Y,132,star,1,0,,,,,,,,,,,,,,,,repeat,letter,lettRpt,f,0.9373,Hi,,,,,,0,,,,,,,,high,16,0,16,0,1,,,,,,,,,
297877,2022-12-05_18h41.01.196,vts_reward_expectancy_bt,2022.2.4,Win32,60.11421701,Chrome,1707,960,,,,,1,646,,,,,,,,,,,,,,,,,S,181,triangle,1,0,,,,,,,,,,,,,,,,switch,number,numSwt,k,0.634,Lo,,,,,,0,,,,,,,,high,17,0,17,0,1,,,,,,,,,
297877,2022-12-05_18h41.01.196,vts_reward_expectancy_bt,2022.2.4,Win32,60.11421701,Chrome,1707,960,,,,,1,647,,,,,,,,,,,,,,,,,H,146,circle,1,0,,,,,,,,,,,,,,,,repeat,number,numRpt,j,0.6556,Lo,,,,,,0,,,,,,,,high,18,0,18,0,1,,,,,,,,,
297877,2022-12-05_18h41.01.196,vts_reward_expectancy_bt,2022.2.4,Win32,60.11421701,Chrome,1707,960,,,,,10,657,,,,,,,,,,,,,,,,,D,160,hexagon,1,0,,,,,,,,,,,,,,,,switch,letter,lettSwt,d,0.6174,Hi,,,,,,0,,,,,,,,high,19,0,19,0,1,,,,,,,,,
297877,2022-12-05_18h41.01.196,vts_reward_expectancy_bt,2022.2.4,Win32,60.11421701,Chrome,1707,960,,,,,10,667,,,,,,,,,,,,,,,,,U,167,circle,1,0,,,,,,,,,,,,,,,,switch,number,numSwt,k,0.5032,Lo,,,,,,0,,,,,,,,high,20,0,20,0,1,,,,,,,,,
297877,2022-12-05_18h41.01.196,vts_reward_expectancy_bt,2022.2.4,Win32,60.11421701,Chrome,1707,960,,,,,10,677,,,,,,,,,,,,,,,,,F,174,hexagon,1,0,,,,,,,,,,,,,,,,switch,letter,lettSwt,d,0.4357,Hi,,,,,,0,,,,,,,,high,21,0,21,0,1,,,,,,,,,
297877,2022-12-05_18h41.01.196,vts_reward_expectancy_bt,2022.2.4,Win32,60.11421701,Chrome,1707,960,,,,,10,687,,,,,,,,,,,,,,,,,B,125,star,1,0,,,,,,,,,,,,,,,,repeat,letter,lettRpt,d,0.6508,Hi,,,,,,0,,,,,,,,high,22,0,22,0,1,,,,,,,,,
297877,2022-12-05_18h41.01.196,vts_reward_expectancy_bt,2022.2.4,Win32,60.11421701,Chrome,1707,960,,,,,1,688,,,,,,,,,,,,,,,,,W,139,triangle,1,0,,,,,,,,,,,,,,,,switch,number,numSwt,j,0.567,Lo,,,,,,0,,,,,,,,high,23,0,23,0,1,,,,,,,,,
297877,2022-12-05_18h41.01.196,vts_reward_expectancy_bt,2022.2.4,Win32,60.11421701,Chrome,1707,960,,,,,10,698,,,,,,,,,,,,,,,,,B,174,star,1,0,,,,,,,,,,,,,,,,switch,letter,lettSwt,d,0.4543,Hi,,,,,,0,,,,,,,,high,24,0,24,0,1,,,,,,,,,
297877,2022-12-05_18h41.01.196,vts_reward_expectancy_bt,2022.2.4,Win32,60.11421701,Chrome,1707,960,,,,,10,708,,,,,,,,,,,,,,,,,U,146,circle,1,0,,,,,,,,,,,,,,,,switch,number,numSwt,j,0.603,Lo,,,,,,0,,,,,,,,high,25,0,25,0,1,,,,,,,,,
297877,2022-12-05_18h41.01.196,vts_reward_expectancy_bt,2022.2.4,Win32,60.11421701,Chrome,1707,960,,,,,10,718,,,,,,,,,,,,,,,,,W,160,triangle,1,0,,,,,,,,,,,,,,,,repeat,number,numRpt,k,0.434,Lo,,,,,,0,,,,,,,,high,26,0,26,0,1,,,,,,,,,
297877,2022-12-05_18h41.01.196,vts_reward_expectancy_bt,2022.2.4,Win32,60.11421701,Chrome,1707,960,,,,,0,718,,,,,,,,,,,,,,,,,H,181,hexagon,1,0,,,,,,,,,,,,,,,,switch,letter,lettSwt,d,0.7722,Hi,,,,,,0,,,,,,,,high,27,0,27,0,1,,,,,,,,,
297877,2022-12-05_18h41.01.196,vts_reward_expectancy_bt,2022.2.4,Win32,60.11421701,Chrome,1707,960,,,,,1,719,,,,,,,,,,,,,,,,,F,167,triangle,1,0,,,,,,,,,,,,,,,,switch,number,numSwt,k,0.6836,Lo,,,,,,0,,,,,,,,high,28,0,28,0,1,,,,,,,,,
297877,2022-12-05_18h41.01.196,vts_reward_expectancy_bt,2022.2.4,Win32,60.11421701,Chrome,1707,960,,,,,1,720,,,,,,,,,,,,,,,,,Y,139,hexagon,1,0,,,,,,,,,,,,,,,,switch,letter,lettSwt,f,0.6482,Hi,,,,,,0,,,,,,,,high,29,0,29,0,1,,,,,,,,,
297877,2022-12-05_18h41.01.196,vts_reward_expectancy_bt,2022.2.4,Win32,60.11421701,Chrome,1707,960,,,,,1,721,,,,,,,,,,,,,,,,,S,125,circle,1,0,,,,,,,,,,,,,,,,repeat,letter,lettRpt,f,1.0125,Lo,,,,,,0,,,,,,,,high,30,0,30,0,1,,,,,,,,,
297877,2022-12-05_18h41.01.196,vts_reward_expectancy_bt,2022.2.4,Win32,60.11421701,Chrome,1707,960,,,,,10,731,,,,,,,,,,,,,,,,,D,132,star,1,0,,,,,,,,,,,,,,,,repeat,letter,lettRpt,d,0.7186,Hi,,,,,,0,,,,,,,,high,31,0,31,0,1,,,,,,,,,
297877,2022-12-05_18h41.01.196,vts_reward_expectancy_bt,2022.2.4,Win32,60.11421701,Chrome,1707,960,,,,,10,741,,,,,,,,,,,,,,,,,S,181,hexagon,1,0,,,,,,,,,,,,,,,,repeat,letter,lettRpt,f,0.6195,Hi,,,,,,1,,,,,,space,2.2671,high,0,0,0,0,1,,,,,,,,,
297877,2022-12-05_18h41.01.196,vts_reward_expectancy_bt,2022.2.4,Win32,60.11421701,Chrome,1707,960,,,,,10,751,,,,,,,,,,,,,,,,,U,125,star,1,0,,,,,,,,,,,,,,,,repeat,letter,lettRpt,f,0.5508,Hi,,,,,,1,,,,,,,,high,1,0,1,0,1,,,,,,,,,
297877,2022-12-05_18h41.01.196,vts_reward_expectancy_bt,2022.2.4,Win32,60.11421701,Chrome,1707,960,,,,,1,752,,,,,,,,,,,,,,,,,B,174,triangle,1,0,,,,,,,,,,,,,,,,switch,number,numSwt,k,0.5843,Lo,,,,,,1,,,,,,,,high,2,0,2,0,1,,,,,,,,,
297877,2022-12-05_18h41.01.196,vts_reward_expectancy_bt,2022.2.4,Win32,60.11421701,Chrome,1707,960,,,,,1,753,,,,,,,,,,,,,,,,,W,146,circle,1,0,,,,,,,,,,,,,,,,repeat,number,numRpt,j,0.4896,Lo,,,,,,1,,,,,,,,high,3,0,3,0,1,,,,,,,,,
297877,2022-12-05_18h41.01.196,vts_reward_expectancy_bt,2022.2.4,Win32,60.11421701,Chrome,1707,960,,,,,0,753,,,,,,,,,,,,,,,,,F,167,hexagon,1,0,,,,,,,,,,,,,,,,switch,letter,lettSwt,d,0.7055,Hi,,,,,,1,,,,,,,,high,4,0,4,0,1,,,,,,,,,
297877,2022-12-05_18h41.01.196,vts_reward_expectancy_bt,2022.2.4,Win32,60.11421701,Chrome,1707,960,,,,,1,754,,,,,,,,,,,,,,,,,D,160,star,1,0,,,,,,,,,,,,,,,,repeat,letter,lettRpt,d,0.5168,Hi,,,,,,1,,,,,,,,high,5,0,5,0,1,,,,,,,,,
297877,2022-12-05_18h41.01.196,vts_reward_expectancy_bt,2022.2.4,Win32,60.11421701,Chrome,1707,960,,,,,1,755,,,,,,,,,,,,,,,,,H,132,triangle,1,0,,,,,,,,,,,,,,,,switch,number,numSwt,j,0.4026,Lo,,,,,,1,,,,,,,,high,6,0,6,0,1,,,,,,,,,
297877,2022-12-05_18h41.01.196,vts_reward_expectancy_bt,2022.2.4,Win32,60.11421701,Chrome,1707,960,,,,,1,756,,,,,,,,,,,,,,,,,Y,139,circle,1,0,,,,,,,,,,,,,,,,switch,letter,lettSwt,f,0.7347,Lo,,,,,,1,,,,,,,,high,7,0,7,0,1,,,,,,,,,
297877,2022-12-05_18h41.01.196,vts_reward_expectancy_bt,2022.2.4,Win32,60.11421701,Chrome,1707,960,,,,,10,766,,,,,,,,,,,,,,,,,S,181,hexagon,1,0,,,,,,,,,,,,,,,,repeat,letter,lettRpt,f,0.7339,Hi,,,,,,1,,,,,,,,high,8,0,8,0,1,,,,,,,,,
297877,2022-12-05_18h41.01.196,vts_reward_expectancy_bt,2022.2.4,Win32,60.11421701,Chrome,1707,960,,,,,1,767,,,,,,,,,,,,,,,,,U,125,triangle,1,0,,,,,,,,,,,,,,,,repeat,letter,lettRpt,f,0.6184,Lo,,,,,,1,,,,,,,,high,9,0,9,0,1,,,,,,,,,
297877,2022-12-05_18h41.01.196,vts_reward_expectancy_bt,2022.2.4,Win32,60.11421701,Chrome,1707,960,,,,,1,768,,,,,,,,,,,,,,,,,B,174,circle,1,0,,,,,,,,,,,,,,,,switch,number,numSwt,k,0.5369,Lo,,,,,,1,,,,,,,,high,10,0,10,0,1,,,,,,,,,
297877,2022-12-05_18h41.01.196,vts_reward_expectancy_bt,2022.2.4,Win32,60.11421701,Chrome,1707,960,,,,,10,778,,,,,,,,,,,,,,,,,W,146,star,1,0,,,,,,,,,,,,,,,,switch,letter,lettSwt,f,0.4961,Hi,,,,,,1,,,,,,,,high,11,0,11,0,1,,,,,,,,,
297877,2022-12-05_18h41.01.196,vts_reward_expectancy_bt,2022.2.4,Win32,60.11421701,Chrome,1707,960,,,,,10,788,,,,,,,,,,,,,,,,,F,167,hexagon,1,0,,,,,,,,,,,,,,,,repeat,letter,lettRpt,d,0.5842,Hi,,,,,,1,,,,,,,,high,12,0,12,0,1,,,,,,,,,
297877,2022-12-05_18h41.01.196,vts_reward_expectancy_bt,2022.2.4,Win32,60.11421701,Chrome,1707,960,,,,,10,798,,,,,,,,,,,,,,,,,D,160,star,1,0,,,,,,,,,,,,,,,,repeat,letter,lettRpt,d,0.6199,Hi,,,,,,1,,,,,,,,high,13,0,13,0,1,,,,,,,,,
297877,2022-12-05_18h41.01.196,vts_reward_expectancy_bt,2022.2.4,Win32,60.11421701,Chrome,1707,960,,,,,1,799,,,,,,,,,,,,,,,,,H,132,triangle,1,0,,,,,,,,,,,,,,,,switch,number,numSwt,j,0.4334,Lo,,,,,,1,,,,,,,,high,14,0,14,0,1,,,,,,,,,
297877,2022-12-05_18h41.01.196,vts_reward_expectancy_bt,2022.2.4,Win32,60.11421701,Chrome,1707,960,,,,,1,800,,,,,,,,,,,,,,,,,Y,139,circle,1,0,,,,,,,,,,,,,,,,repeat,number,numRpt,j,0.6504,Lo,,,,,,1,,,,,,,,high,15,0,15,0,1,,,,,,,,,
297877,2022-12-05_18h41.01.196,vts_reward_expectancy_bt,2022.2.4,Win32,60.11421701,Chrome,1707,960,,,,,1,801,,,,,,,,,,,,,,,,,H,181,triangle,1,0,,,,,,,,,,,,,,,,switch,letter,lettSwt,d,0.6167,Lo,,,,,,1,,,,,,,,high,16,0,16,0,1,,,,,,,,,
297877,2022-12-05_18h41.01.196,vts_reward_expectancy_bt,2022.2.4,Win32,60.11421701,Chrome,1707,960,,,,,10,811,,,,,,,,,,,,,,,,,D,146,star,1,0,,,,,,,,,,,,,,,,repeat,letter,lettRpt,d,0.7338,Hi,,,,,,1,,,,,,,,high,17,0,17,0,1,,,,,,,,,
297877,2022-12-05_18h41.01.196,vts_reward_expectancy_bt,2022.2.4,Win32,60.11421701,Chrome,1707,960,,,,,1,812,,,,,,,,,,,,,,,,,F,139,hexagon,1,0,,,,,,,,,,,,,,,,repeat,letter,lettRpt,d,0.4684,Hi,,,,,,1,,,,,,,,high,18,0,18,0,1,,,,,,,,,
297877,2022-12-05_18h41.01.196,vts_reward_expectancy_bt,2022.2.4,Win32,60.11421701,Chrome,1707,960,,,,,1,813,,,,,,,,,,,,,,,,,W,132,circle,1,0,,,,,,,,,,,,,,,,repeat,letter,lettRpt,f,0.5689,Lo,,,,,,1,,,,,,,,high,19,0,19,0,1,,,,,,,,,
297877,2022-12-05_18h41.01.196,vts_reward_expectancy_bt,2022.2.4,Win32,60.11421701,Chrome,1707,960,,,,,10,823,,,,,,,,,,,,,,,,,U,174,hexagon,1,0,,,,,,,,,,,,,,,,repeat,letter,lettRpt,f,0.5694,Hi,,,,,,1,,,,,,,,high,20,0,20,0,1,,,,,,,,,
297877,2022-12-05_18h41.01.196,vts_reward_expectancy_bt,2022.2.4,Win32,60.11421701,Chrome,1707,960,,,,,10,833,,,,,,,,,,,,,,,,,B,125,circle,1,0,,,,,,,,,,,,,,,,switch,number,numSwt,j,0.5171,Lo,,,,,,1,,,,,,,,high,21,0,21,0,1,,,,,,,,,
297877,2022-12-05_18h41.01.196,vts_reward_expectancy_bt,2022.2.4,Win32,60.11421701,Chrome,1707,960,,,,,1,834,,,,,,,,,,,,,,,,,Y,160,triangle,1,0,,,,,,,,,,,,,,,,repeat,number,numRpt,k,0.4836,Lo,,,,,,1,,,,,,,,high,22,0,22,0,1,,,,,,,,,
297877,2022-12-05_18h41.01.196,vts_reward_expectancy_bt,2022.2.4,Win32,60.11421701,Chrome,1707,960,,,,,0,834,,,,,,,,,,,,,,,,,S,167,star,1,0,,,,,,,,,,,,,,,,switch,letter,lettSwt,f,0.6009,Hi,,,,,,1,,,,,,,,high,23,0,23,0,1,,,,,,,,,
297877,2022-12-05_18h41.01.196,vts_reward_expectancy_bt,2022.2.4,Win32,60.11421701,Chrome,1707,960,,,,,10,844,,,,,,,,,,,,,,,,,F,146,hexagon,1,0,,,,,,,,,,,,,,,,repeat,letter,lettRpt,d,0.6169,Hi,,,,,,1,,,,,,,,high,24,0,24,0,1,,,,,,,,,
297877,2022-12-05_18h41.01.196,vts_reward_expectancy_bt,2022.2.4,Win32,60.11421701,Chrome,1707,960,,,,,1,845,,,,,,,,,,,,,,,,,Y,181,triangle,1,0,,,,,,,,,,,,,,,,switch,number,numSwt,k,0.7834,Lo,,,,,,1,,,,,,,,high,25,0,25,0,1,,,,,,,,,
297877,2022-12-05_18h41.01.196,vts_reward_expectancy_bt,2022.2.4,Win32,60.11421701,Chrome,1707,960,,,,,1,846,,,,,,,,,,,,,,,,,S,132,circle,1,0,,,,,,,,,,,,,,,,repeat,number,numRpt,j,0.4169,Lo,,,,,,1,,,,,,,,high,26,0,26,0,1,,,,,,,,,
297877,2022-12-05_18h41.01.196,vts_reward_expectancy_bt,2022.2.4,Win32,60.11421701,Chrome,1707,960,,,,,0,846,,,,,,,,,,,,,,,,,D,167,star,1,0,,,,,,,,,,,,,,,,switch,letter,lettSwt,d,0.6505,Hi,,,,,,1,,,,,,,,high,27,0,27,0,1,,,,,,,,,
297877,2022-12-05_18h41.01.196,vts_reward_expectancy_bt,2022.2.4,Win32,60.11421701,Chrome,1707,960,,,,,1,847,,,,,,,,,,,,,,,,,W,125,circle,1,0,,,,,,,,,,,,,,,,repeat,letter,lettRpt,f,0.4335,Lo,,,,,,1,,,,,,,,high,28,0,28,0,1,,,,,,,,,
297877,2022-12-05_18h41.01.196,vts_reward_expectancy_bt,2022.2.4,Win32,60.11421701,Chrome,1707,960,,,,,10,857,,,,,,,,,,,,,,,,,U,160,triangle,1,0,,,,,,,,,,,,,,,,repeat,letter,lettRpt,f,0.4836,Lo,,,,,,1,,,,,,,,high,29,0,29,0,1,,,,,,,,,
297877,2022-12-05_18h41.01.196,vts_reward_expectancy_bt,2022.2.4,Win32,60.11421701,Chrome,1707,960,,,,,1,858,,,,,,,,,,,,,,,,,H,174,star,1,0,,,,,,,,,,,,,,,,repeat,letter,lettRpt,d,0.4507,Hi,,,,,,1,,,,,,,,high,30,0,30,0,1,,,,,,,,,
297877,2022-12-05_18h41.01.196,vts_reward_expectancy_bt,2022.2.4,Win32,60.11421701,Chrome,1707,960,,,,,1,859,,,,,,,,,,,,,,,,,B,139,hexagon,1,0,,,,,,,,,,,,,,,,repeat,letter,lettRpt,d,0.5006,Hi,,,,,,1,,,,,,,,high,31,0,31,0,1,,,,,,,,,
297877,2022-12-05_18h41.01.196,vts_reward_expectancy_bt,2022.2.4,Win32,60.11421701,Chrome,1707,960,,,,,1,860,,,,,,,,,,,,,,,,,W,160,circle,1,0,,,,,,,,,,,,,,,,repeat,letter,lettRpt,f,0.4683,Lo,,,,,,2,,,,,,space,1.0001,high,0,0,0,0,1,,,,,,,,,
297877,2022-12-05_18h41.01.196,vts_reward_expectancy_bt,2022.2.4,Win32,60.11421701,Chrome,1707,960,,,,,1,861,,,,,,,,,,,,,,,,,D,125,triangle,1,0,,,,,,,,,,,,,,,,repeat,letter,lettRpt,d,0.517,Lo,,,,,,2,,,,,,,,high,1,0,1,0,1,,,,,,,,,
297877,2022-12-05_18h41.01.196,vts_reward_expectancy_bt,2022.2.4,Win32,60.11421701,Chrome,1707,960,,,,,10,871,,,,,,,,,,,,,,,,,S,132,star,1,0,,,,,,,,,,,,,,,,repeat,letter,lettRpt,f,0.5002,Hi,,,,,,2,,,,,,,,high,2,0,2,0,1,,,,,,,,,
297877,2022-12-05_18h41.01.196,vts_reward_expectancy_bt,2022.2.4,Win32,60.11421701,Chrome,1707,960,,,,,10,881,,,,,,,,,,,,,,,,,F,167,hexagon,1,0,,,,,,,,,,,,,,,,switch,number,numSwt,k,0.4675,Hi,,,,,,2,,,,,,,,high,3,0,3,0,1,,,,,,,,,
297877,2022-12-05_18h41.01.196,vts_reward_expectancy_bt,2022.2.4,Win32,60.11421701,Chrome,1707,960,,,,,1,882,,,,,,,,,,,,,,,,,B,139,circle,1,0,,,,,,,,,,,,,,,,repeat,number,numRpt,j,0.8342,Lo,,,,,,2,,,,,,,,high,4,0,4,0,1,,,,,,,,,
297877,2022-12-05_18h41.01.196,vts_reward_expectancy_bt,2022.2.4,Win32,60.11421701,Chrome,1707,960,,,,,10,892,,,,,,,,,,,,,,,,,U,146,triangle,1,0,,,,,,,,,,,,,,,,repeat,number,numRpt,j,0.6836,Lo,,,,,,2,,,,,,,,high,5,0,5,0,1,,,,,,,,,
297877,2022-12-05_18h41.01.196,vts_reward_expectancy_bt,2022.2.4,Win32,60.11421701,Chrome,1707,960,,,,,10,902,,,,,,,,,,,,,,,,,H,174,star,1,0,,,,,,,,,,,,,,,,switch,letter,lettSwt,d,0.5508,Hi,,,,,,2,,,,,,,,high,6,0,6,0,1,,,,,,,,,
297877,2022-12-05_18h41.01.196,vts_reward_expectancy_bt,2022.2.4,Win32,60.11421701,Chrome,1707,960,,,,,0,902,,,,,,,,,,,,,,,,,Y,181,hexagon,1,0,,,,,,,,,,,,,,,,switch,number,numSwt,k,0.5671,Hi,,,,,,2,,,,,,,,high,7,0,7,0,1,,,,,,,,,
297877,2022-12-05_18h41.01.196,vts_reward_expectancy_bt,2022.2.4,Win32,60.11421701,Chrome,1707,960,,,,,0,902,,,,,,,,,,,,,,,,,W,160,star,1,0,,,,,,,,,,,,,,,,switch,letter,lettSwt,f,0.634,Hi,,,,,,2,,,,,,,,high,8,0,8,0,1,,,,,,,,,
297877,2022-12-05_18h41.01.196,vts_reward_expectancy_bt,2022.2.4,Win32,60.11421701,Chrome,1707,960,,,,,1,903,,,,,,,,,,,,,,,,,D,125,triangle,1,0,,,,,,,,,,,,,,,,switch,number,numSwt,j,0.3836,Lo,,,,,,2,,,,,,,,high,9,0,9,0,1,,,,,,,,,
297877,2022-12-05_18h41.01.196,vts_reward_expectancy_bt,2022.2.4,Win32,60.11421701,Chrome,1707,960,,,,,10,913,,,,,,,,,,,,,,,,,S,132,hexagon,1,0,,,,,,,,,,,,,,,,switch,letter,lettSwt,f,0.4684,Hi,,,,,,2,,,,,,,,high,10,0,10,0,1,,,,,,,,,
297877,2022-12-05_18h41.01.196,vts_reward_expectancy_bt,2022.2.4,Win32,60.11421701,Chrome,1707,960,,,,,1,914,,,,,,,,,,,,,,,,,F,167,circle,1,0,,,,,,,,,,,,,,,,repeat,letter,lettRpt,d,0.4848,Lo,,,,,,2,,,,,,,,high,11,0,11,0,1,,,,,,,,,
297877,2022-12-05_18h41.01.196,vts_reward_expectancy_bt,2022.2.4,Win32,60.11421701,Chrome,1707,960,,,,,10,924,,,,,,,,,,,,,,,,,B,139,circle,1,0,,,,,,,,,,,,,,,,switch,number,numSwt,j,0.6506,Lo,,,,,,2,,,,,,,,high,12,0,12,0,1,,,,,,,,,
297877,2022-12-05_18h41.01.196,vts_reward_expectancy_bt,2022.2.4,Win32,60.11421701,Chrome,1707,960,,,,,10,934,,,,,,,,,,,,,,,,,U,146,hexagon,1,0,,,,,,,,,,,,,,,,switch,letter,lettSwt,f,0.573,Hi,,,,,,2,,,,,,,,high,13,0,13,0,1,,,,,,,,,
297877,2022-12-05_18h41.01.196,vts_reward_expectancy_bt,2022.2.4,Win32,60.11421701,Chrome,1707,960,,,,,0,934,,,,,,,,,,,,,,,,,H,174,star,1,0,,,,,,,,,,,,,,,,repeat,letter,lettRpt,d,0.5503,Hi,,,,,,2,,,,,,,,high,14,0,14,0,1,,,,,,,,,
297877,2022-12-05_18h41.01.196,vts_reward_expectancy_bt,2022.2.4,Win32,60.11421701,Chrome,1707,960,,,,,1,935,,,,,,,,,,,,,,,,,Y,181,triangle,1,0,,,,,,,,,,,,,,,,repeat,letter,lettRpt,f,0.5178,Lo,,,,,,2,,,,,,,,high,15,0,15,0,1,,,,,,,,,
297877,2022-12-05_18h41.01.196,vts_reward_expectancy_bt,2022.2.4,Win32,60.11421701,Chrome,1707,960,,,,,0,935,,,,,,,,,,,,,,,,,H,132,hexagon,1,0,,,,,,,,,,,,,,,,switch,number,numSwt,j,0.5342,Hi,,,,,,2,,,,,,,,high,16,0,16,0,1,,,,,,,,,
297877,2022-12-05_18h41.01.196,vts_reward_expectancy_bt,2022.2.4,Win32,60.11421701,Chrome,1707,960,,,,,1,936,,,,,,,,,,,,,,,,,D,181,triangle,1,0,,,,,,,,,,,,,,,,switch,letter,lettSwt,d,0.5019,Lo,,,,,,2,,,,,,,,high,17,0,17,0,1,,,,,,,,,
297877,2022-12-05_18h41.01.196,vts_reward_expectancy_bt,2022.2.4,Win32,60.11421701,Chrome,1707,960,,,,,10,946,,,,,,,,,,,,,,,,,U,160,circle,1,0,,,,,,,,,,,,,,,,switch,number,numSwt,k,0.3845,Lo,,,,,,2,,,,,,,,high,18,0,18,0,1,,,,,,,,,
297877,2022-12-05_18h41.01.196,vts_reward_expectancy_bt,2022.2.4,Win32,60.11421701,Chrome,1707,960,,,,,0,946,,,,,,,,,,,,,,,,,F,167,star,0,0,,,,,,,,,,,,,,,,switch,letter,NA,f,0.4511,Lo,,,,,,2,,,,,,,,high,19,0,19,0,1,,,,,,,,,
297877,2022-12-05_18h41.01.196,vts_reward_expectancy_bt,2022.2.4,Win32,60.11421701,Chrome,1707,960,,,,,1,947,,,,,,,,,,,,,,,,,W,174,hexagon,1,1,,,,,,,,,,,,,,,,repeat,letter,lettRpt,f,0.4841,Hi,,,,,,2,,,,,,,,high,20,0,20,0,1,,,,,,,,,
297877,2022-12-05_18h41.01.196,vts_reward_expectancy_bt,2022.2.4,Win32,60.11421701,Chrome,1707,960,,,,,1,948,,,,,,,,,,,,,,,,,B,146,circle,1,0,,,,,,,,,,,,,,,,switch,number,numSwt,j,0.6681,Lo,,,,,,2,,,,,,,,high,21,0,21,0,1,,,,,,,,,
297877,2022-12-05_18h41.01.196,vts_reward_expectancy_bt,2022.2.4,Win32,60.11421701,Chrome,1707,960,,,,,0,948,,,,,,,,,,,,,,,,,S,139,star,0,0,,,,,,,,,,,,,,,,switch,letter,NA,d,0.4344,Lo,,,,,,2,,,,,,,,high,22,0,22,0,1,,,,,,,,,
297877,2022-12-05_18h41.01.196,vts_reward_expectancy_bt,2022.2.4,Win32,60.11421701,Chrome,1707,960,,,,,1,949,,,,,,,,,,,,,,,,,Y,125,triangle,1,1,,,,,,,,,,,,,,,,repeat,letter,lettRpt,f,0.5002,Lo,,,,,,2,,,,,,,,high,23,0,23,0,1,,,,,,,,,
297877,2022-12-05_18h41.01.196,vts_reward_expectancy_bt,2022.2.4,Win32,60.11421701,Chrome,1707,960,,,,,10,959,,,,,,,,,,,,,,,,,Y,139,triangle,1,0,,,,,,,,,,,,,,,,switch,number,numSwt,j,0.5348,Lo,,,,,,2,,,,,,,,high,24,0,24,0,1,,,,,,,,,
297877,2022-12-05_18h41.01.196,vts_reward_expectancy_bt,2022.2.4,Win32,60.11421701,Chrome,1707,960,,,,,10,969,,,,,,,,,,,,,,,,,S,160,star,1,0,,,,,,,,,,,,,,,,switch,letter,lettSwt,f,0.4176,Hi,,,,,,2,,,,,,,,high,25,0,25,0,1,,,,,,,,,
297877,2022-12-05_18h41.01.196,vts_reward_expectancy_bt,2022.2.4,Win32,60.11421701,Chrome,1707,960,,,,,0,969,,,,,,,,,,,,,,,,,D,132,hexagon,1,0,,,,,,,,,,,,,,,,switch,number,numSwt,j,0.8339,Hi,,,,,,2,,,,,,,,high,26,0,26,0,1,,,,,,,,,
297877,2022-12-05_18h41.01.196,vts_reward_expectancy_bt,2022.2.4,Win32,60.11421701,Chrome,1707,960,,,,,0,969,,,,,,,,,,,,,,,,,H,146,circle,0,0,,,,,,,,,,,,,,,,repeat,number,NA,k,0.4384,Hi,,,,,,2,,,,,,,,high,27,0,27,0,1,,,,,,,,,
297877,2022-12-05_18h41.01.196,vts_reward_expectancy_bt,2022.2.4,Win32,60.11421701,Chrome,1707,960,,,,,0,969,,,,,,,,,,,,,,,,,W,174,star,1,1,,,,,,,,,,,,,,,,repeat,number,numRpt,k,0.6174,Hi,,,,,,2,,,,,,,,high,28,0,28,0,1,,,,,,,,,
297877,2022-12-05_18h41.01.196,vts_reward_expectancy_bt,2022.2.4,Win32,60.11421701,Chrome,1707,960,,,,,1,970,,,,,,,,,,,,,,,,,U,167,circle,1,0,,,,,,,,,,,,,,,,repeat,number,numRpt,k,0.4678,Lo,,,,,,2,,,,,,,,high,29,0,29,0,1,,,,,,,,,
297877,2022-12-05_18h41.01.196,vts_reward_expectancy_bt,2022.2.4,Win32,60.11421701,Chrome,1707,960,,,,,0,970,,,,,,,,,,,,,,,,,F,125,hexagon,1,0,,,,,,,,,,,,,,,,repeat,number,numRpt,j,0.5001,Hi,,,,,,2,,,,,,,,high,30,0,30,0,1,,,,,,,,,
297877,2022-12-05_18h41.01.196,vts_reward_expectancy_bt,2022.2.4,Win32,60.11421701,Chrome,1707,960,,,,,1,971,,,,,,,,,,,,,,,,,B,181,triangle,1,0,,,,,,,,,,,,,,,,switch,letter,lettSwt,d,0.5503,Lo,,,,,,2,,,,,,,,high,31,0,31,0,1,,,,,,,,,
297877,2022-12-05_18h41.01.196,vts_reward_expectancy_bt,2022.2.4,Win32,60.11421701,Chrome,1707,960,,,,,0,971,,,,,,,,,,,,,,,,,F,132,hexagon,1,0,,,,,,,,,,,,,,,,repeat,letter,lettRpt,d,0.7009,Hi,,,,,,3,,,,,,space,0.969,high,0,0,0,0,1,,,,,,,,,
297877,2022-12-05_18h41.01.196,vts_reward_expectancy_bt,2022.2.4,Win32,60.11421701,Chrome,1707,960,,,,,1,972,,,,,,,,,,,,,,,,,Y,139,circle,1,0,,,,,,,,,,,,,,,,repeat,letter,lettRpt,f,0.4169,Lo,,,,,,3,,,,,,,,high,1,0,1,0,1,,,,,,,,,
297877,2022-12-05_18h41.01.196,vts_reward_expectancy_bt,2022.2.4,Win32,60.11421701,Chrome,1707,960,,,,,1,973,,,,,,,,,,,,,,,,,B,146,triangle,1,0,,,,,,,,,,,,,,,,repeat,letter,lettRpt,d,0.489,Lo,,,,,,3,,,,,,,,high,2,0,2,0,1,,,,,,,,,
297877,2022-12-05_18h41.01.196,vts_reward_expectancy_bt,2022.2.4,Win32,60.11421701,Chrome,1707,960,,,,,0,973,,,,,,,,,,,,,,,,,W,160,star,1,0,,,,,,,,,,,,,,,,repeat,letter,lettRpt,f,0.8346,Hi,,,,,,3,,,,,,,,high,3,0,3,0,1,,,,,,,,,
297877,2022-12-05_18h41.01.196,vts_reward_expectancy_bt,2022.2.4,Win32,60.11421701,Chrome,1707,960,,,,,10,983,,,,,,,,,,,,,,,,,U,125,hexagon,1,0,,,,,,,,,,,,,,,,repeat,letter,lettRpt,f,0.2505,Hi,,,,,,3,,,,,,,,high,4,0,4,0,1,,,,,,,,,
297877,2022-12-05_18h41.01.196,vts_reward_expectancy_bt,2022.2.4,Win32,60.11421701,Chrome,1707,960,,,,,1,984,,,,,,,,,,,,,,,,,S,174,circle,1,0,,,,,,,,,,,,,,,,switch,number,numSwt,k,0.4506,Lo,,,,,,3,,,,,,,,high,5,0,5,0,1,,,,,,,,,
297877,2022-12-05_18h41.01.196,vts_reward_expectancy_bt,2022.2.4,Win32,60.11421701,Chrome,1707,960,,,,,1,985,,,,,,,,,,,,,,,,,D,181,triangle,1,0,,,,,,,,,,,,,,,,switch,letter,lettSwt,d,0.601,Lo,,,,,,3,,,,,,,,high,6,0,6,0,1,,,,,,,,,
297877,2022-12-05_18h41.01.196,vts_reward_expectancy_bt,2022.2.4,Win32,60.11421701,Chrome,1707,960,,,,,0,985,,,,,,,,,,,,,,,,,H,167,star,1,0,,,,,,,,,,,,,,,,switch,number,numSwt,k,0.6007,Hi,,,,,,3,,,,,,,,high,7,0,7,0,1,,,,,,,,,
297877,2022-12-05_18h41.01.196,vts_reward_expectancy_bt,2022.2.4,Win32,60.11421701,Chrome,1707,960,,,,,10,995,,,,,,,,,,,,,,,,,F,132,hexagon,1,0,,,,,,,,,,,,,,,,repeat,number,numRpt,j,0.5179,Hi,,,,,,3,,,,,,,,high,8,0,8,0,1,,,,,,,,,
297877,2022-12-05_18h41.01.196,vts_reward_expectancy_bt,2022.2.4,Win32,60.11421701,Chrome,1707,960,,,,,1,996,,,,,,,,,,,,,,,,,Y,139,triangle,1,0,,,,,,,,,,,,,,,,switch,letter,lettSwt,f,0.6177,Lo,,,,,,3,,,,,,,,high,9,0,9,0,1,,,,,,,,,
297877,2022-12-05_18h41.01.196,vts_reward_expectancy_bt,2022.2.4,Win32,60.11421701,Chrome,1707,960,,,,,10,1006,,,,,,,,,,,,,,,,,B,146,star,1,0,,,,,,,,,,,,,,,,repeat,letter,lettRpt,d,0.4501,Hi,,,,,,3,,,,,,,,high,10,0,10,0,1,,,,,,,,,
297877,2022-12-05_18h41.01.196,vts_reward_expectancy_bt,2022.2.4,Win32,60.11421701,Chrome,1707,960,,,,,1,1007,,,,,,,,,,,,,,,,,W,160,circle,1,0,,,,,,,,,,,,,,,,repeat,letter,lettRpt,f,0.5501,Lo,,,,,,3,,,,,,,,high,11,0,11,0,1,,,,,,,,,
297877,2022-12-05_18h41.01.196,vts_reward_expectancy_bt,2022.2.4,Win32,60.11421701,Chrome,1707,960,,,,,10,1017,,,,,,,,,,,,,,,,,U,125,star,1,0,,,,,,,,,,,,,,,,repeat,letter,lettRpt,f,0.4733,Hi,,,,,,3,,,,,,,,high,12,0,12,0,1,,,,,,,,,
297877,2022-12-05_18h41.01.196,vts_reward_expectancy_bt,2022.2.4,Win32,60.11421701,Chrome,1707,960,,,,,1,1018,,,,,,,,,,,,,,,,,S,174,triangle,1,0,,,,,,,,,,,,,,,,switch,number,numSwt,k,0.5683,Lo,,,,,,3,,,,,,,,high,13,0,13,0,1,,,,,,,,,
297877,2022-12-05_18h41.01.196,vts_reward_expectancy_bt,2022.2.4,Win32,60.11421701,Chrome,1707,960,,,,,0,1018,,,,,,,,,,,,,,,,,D,181,hexagon,1,0,,,,,,,,,,,,,,,,repeat,number,numRpt,k,0.5843,Hi,,,,,,3,,,,,,,,high,14,0,14,0,1,,,,,,,,,
297877,2022-12-05_18h41.01.196,vts_reward_expectancy_bt,2022.2.4,Win32,60.11421701,Chrome,1707,960,,,,,1,1019,,,,,,,,,,,,,,,,,H,167,circle,1,0,,,,,,,,,,,,,,,,switch,letter,lettSwt,d,0.6169,Lo,,,,,,3,,,,,,,,high,15,0,15,0,1,,,,,,,,,
297877,2022-12-05_18h41.01.196,vts_reward_expectancy_bt,2022.2.4,Win32,60.11421701,Chrome,1707,960,,,,,0,1019,,,,,,,,,,,,,,,,,D,160,hexagon,1,0,,,,,,,,,,,,,,,,repeat,letter,lettRpt,d,0.6339,Hi,,,,,,3,,,,,,,,high,16,0,16,0,1,,,,,,,,,
297877,2022-12-05_18h41.01.196,vts_reward_expectancy_bt,2022.2.4,Win32,60.11421701,Chrome,1707,960,,,,,1,1020,,,,,,,,,,,,,,,,,F,125,circle,1,0,,,,,,,,,,,,,,,,repeat,letter,lettRpt,d,0.5335,Lo,,,,,,3,,,,,,,,high,17,0,17,0,1,,,,,,,,,
297877,2022-12-05_18h41.01.196,vts_reward_expectancy_bt,2022.2.4,Win32,60.11421701,Chrome,1707,960,,,,,1,1021,,,,,,,,,,,,,,,,,U,132,triangle,1,0,,,,,,,,,,,,,,,,repeat,letter,lettRpt,f,0.4839,Lo,,,,,,3,,,,,,,,high,18,0,18,0,1,,,,,,,,,
297877,2022-12-05_18h41.01.196,vts_reward_expectancy_bt,2022.2.4,Win32,60.11421701,Chrome,1707,960,,,,,0,1021,,,,,,,,,,,,,,,,,S,139,star,1,0,,,,,,,,,,,,,,,,repeat,letter,lettRpt,f,0.5679,Hi,,,,,,3,,,,,,,,high,19,0,19,0,1,,,,,,,,,
297877,2022-12-05_18h41.01.196,vts_reward_expectancy_bt,2022.2.4,Win32,60.11421701,Chrome,1707,960,,,,,1,1022,,,,,,,,,,,,,,,,,W,181,triangle,1,0,,,,,,,,,,,,,,,,switch,number,numSwt,k,0.5008,Lo,,,,,,3,,,,,,,,high,20,0,20,0,1,,,,,,,,,
297877,2022-12-05_18h41.01.196,vts_reward_expectancy_bt,2022.2.4,Win32,60.11421701,Chrome,1707,960,,,,,0,1022,,,,,,,,,,,,,,,,,B,167,star,1,0,,,,,,,,,,,,,,,,switch,letter,lettSwt,d,0.5177,Hi,,,,,,3,,,,,,,,high,21,0,21,0,1,,,,,,,,,
297877,2022-12-05_18h41.01.196,vts_reward_expectancy_bt,2022.2.4,Win32,60.11421701,Chrome,1707,960,,,,,1,1023,,,,,,,,,,,,,,,,,Y,146,circle,1,0,,,,,,,,,,,,,,,,repeat,letter,lettRpt,f,0.6843,Lo,,,,,,3,,,,,,,,high,22,0,22,0,1,,,,,,,,,
297877,2022-12-05_18h41.01.196,vts_reward_expectancy_bt,2022.2.4,Win32,60.11421701,Chrome,1707,960,,,,,0,1023,,,,,,,,,,,,,,,,,H,174,hexagon,1,0,,,,,,,,,,,,,,,,repeat,letter,lettRpt,d,0.6558,Hi,,,,,,3,,,,,,,,high,23,0,23,0,1,,,,,,,,,
297877,2022-12-05_18h41.01.196,vts_reward_expectancy_bt,2022.2.4,Win32,60.11421701,Chrome,1707,960,,,,,1,1024,,,,,,,,,,,,,,,,,F,167,circle,1,0,,,,,,,,,,,,,,,,switch,number,numSwt,k,0.3029,Lo,,,,,,3,,,,,,,,high,24,0,24,0,1,,,,,,,,,
297877,2022-12-05_18h41.01.196,vts_reward_expectancy_bt,2022.2.4,Win32,60.11421701,Chrome,1707,960,,,,,1,1025,,,,,,,,,,,,,,,,,H,125,triangle,1,0,,,,,,,,,,,,,,,,switch,letter,lettSwt,d,0.5333,Lo,,,,,,3,,,,,,,,high,25,0,25,0,1,,,,,,,,,
297877,2022-12-05_18h41.01.196,vts_reward_expectancy_bt,2022.2.4,Win32,60.11421701,Chrome,1707,960,,,,,0,1025,,,,,,,,,,,,,,,,,Y,160,hexagon,1,0,,,,,,,,,,,,,,,,switch,number,numSwt,k,0.5294,Hi,,,,,,3,,,,,,,,high,26,0,26,0,1,,,,,,,,,
297877,2022-12-05_18h41.01.196,vts_reward_expectancy_bt,2022.2.4,Win32,60.11421701,Chrome,1707,960,,,,,10,1035,,,,,,,,,,,,,,,,,D,132,star,1,0,,,,,,,,,,,,,,,,switch,letter,lettSwt,d,0.3679,Hi,,,,,,3,,,,,,,,high,27,0,27,0,1,,,,,,,,,
297877,2022-12-05_18h41.01.196,vts_reward_expectancy_bt,2022.2.4,Win32,60.11421701,Chrome,1707,960,,,,,10,1045,,,,,,,,,,,,,,,,,W,139,star,1,0,,,,,,,,,,,,,,,,repeat,letter,lettRpt,f,0.3504,Hi,,,,,,3,,,,,,,,high,28,0,28,0,1,,,,,,,,,
297877,2022-12-05_18h41.01.196,vts_reward_expectancy_bt,2022.2.4,Win32,60.11421701,Chrome,1707,960,,,,,0,1045,,,,,,,,,,,,,,,,,U,146,triangle,0,0,,,,,,,,,,,,,,,,switch,number,NA,k,0.5006,Hi,,,,,,3,,,,,,,,high,29,0,29,0,1,,,,,,,,,
297877,2022-12-05_18h41.01.196,vts_reward_expectancy_bt,2022.2.4,Win32,60.11421701,Chrome,1707,960,,,,,1,1046,,,,,,,,,,,,,,,,,S,181,circle,1,1,,,,,,,,,,,,,,,,repeat,number,numRpt,k,0.4668,Lo,,,,,,3,,,,,,,,high,30,0,30,0,1,,,,,,,,,
297877,2022-12-05_18h41.01.196,vts_reward_expectancy_bt,2022.2.4,Win32,60.11421701,Chrome,1707,960,,,,,0,1046,,,,,,,,,,,,,,,,,B,174,hexagon,1,0,,,,,,,,,,,,,,,,repeat,number,numRpt,k,0.5509,Hi,,,,,,3,,,,,,,,high,31,0,31,0,1,,,,,,,,,
297877,2022-12-05_18h41.01.196,vts_reward_expectancy_bt,2022.2.4,Win32,60.11421701,Chrome,1707,960,,,,,10,1056,,,,,,,,,,,,,,,,,D,167,hexagon,1,0,,,,,,,,,,,,,,,,switch,letter,lettSwt,d,0.4672,Hi,,,,,,4,,,,,,space,1.0383,high,0,0,0,0,1,,,,,,,,,
297877,2022-12-05_18h41.01.196,vts_reward_expectancy_bt,2022.2.4,Win32,60.11421701,Chrome,1707,960,,,,,1,1057,,,,,,,,,,,,,,,,,H,181,circle,1,0,,,,,,,,,,,,,,,,switch,number,numSwt,k,0.3677,Lo,,,,,,4,,,,,,,,high,1,0,1,0,1,,,,,,,,,
297877,2022-12-05_18h41.01.196,vts_reward_expectancy_bt,2022.2.4,Win32,60.11421701,Chrome,1707,960,,,,,0,1057,,,,,,,,,,,,,,,,,B,139,triangle,0,0,,,,,,,,,,,,,,,,repeat,number,NA,k,0.4007,Lo,,,,,,4,,,,,,,,high,2,0,2,0,1,,,,,,,,,
297877,2022-12-05_18h41.01.196,vts_reward_expectancy_bt,2022.2.4,Win32,60.11421701,Chrome,1707,960,,,,,10,1067,,,,,,,,,,,,,,,,,U,132,star,1,1,,,,,,,,,,,,,,,,switch,letter,lettSwt,f,0.417,Hi,,,,,,4,,,,,,,,high,3,0,3,0,1,,,,,,,,,
297877,2022-12-05_18h41.01.196,vts_reward_expectancy_bt,2022.2.4,Win32,60.11421701,Chrome,1707,960,,,,,10,1077,,,,,,,,,,,,,,,,,W,160,hexagon,1,0,,,,,,,,,,,,,,,,repeat,letter,lettRpt,f,0.4012,Hi,,,,,,4,,,,,,,,high,4,0,4,0,1,,,,,,,,,
297877,2022-12-05_18h41.01.196,vts_reward_expectancy_bt,2022.2.4,Win32,60.11421701,Chrome,1707,960,,,,,1,1078,,,,,,,,,,,,,,,,,S,146,circle,1,0,,,,,,,,,,,,,,,,switch,number,numSwt,j,0.5339,Lo,,,,,,4,,,,,,,,high,5,0,5,0,1,,,,,,,,,
297877,2022-12-05_18h41.01.196,vts_reward_expectancy_bt,2022.2.4,Win32,60.11421701,Chrome,1707,960,,,,,10,1088,,,,,,,,,,,,,,,,,Y,125,triangle,1,0,,,,,,,,,,,,,,,,switch,letter,lettSwt,f,0.4169,Lo,,,,,,4,,,,,,,,high,6,0,6,0,1,,,,,,,,,
297877,2022-12-05_18h41.01.196,vts_reward_expectancy_bt,2022.2.4,Win32,60.11421701,Chrome,1707,960,,,,,0,1088,,,,,,,,,,,,,,,,,F,174,star,1,0,,,,,,,,,,,,,,,,repeat,letter,lettRpt,d,0.5662,Hi,,,,,,4,,,,,,,,high,7,0,7,0,1,,,,,,,,,
297877,2022-12-05_18h41.01.196,vts_reward_expectancy_bt,2022.2.4,Win32,60.11421701,Chrome,1707,960,,,,,1,1089,,,,,,,,,,,,,,,,,D,167,circle,1,0,,,,,,,,,,,,,,,,repeat,letter,lettRpt,d,0.5661,Lo,,,,,,4,,,,,,,,high,8,0,8,0,1,,,,,,,,,
297877,2022-12-05_18h41.01.196,vts_reward_expectancy_bt,2022.2.4,Win32,60.11421701,Chrome,1707,960,,,,,1,1090,,,,,,,,,,,,,,,,,H,181,triangle,1,0,,,,,,,,,,,,,,,,repeat,letter,lettRpt,d,0.4677,Lo,,,,,,4,,,,,,,,high,9,0,9,0,1,,,,,,,,,
297877,2022-12-05_18h41.01.196,vts_reward_expectancy_bt,2022.2.4,Win32,60.11421701,Chrome,1707,960,,,,,1,1091,,,,,,,,,,,,,,,,,B,139,star,1,0,,,,,,,,,,,,,,,,repeat,letter,lettRpt,d,0.3525,Hi,,,,,,4,,,,,,,,high,10,0,10,0,1,,,,,,,,,
297877,2022-12-05_18h41.01.196,vts_reward_expectancy_bt,2022.2.4,Win32,60.11421701,Chrome,1707,960,,,,,10,1101,,,,,,,,,,,,,,,,,U,132,hexagon,1,0,,,,,,,,,,,,,,,,switch,number,numSwt,j,0.3672,Hi,,,,,,4,,,,,,,,high,11,0,11,0,1,,,,,,,,,
297877,2022-12-05_18h41.01.196,vts_reward_expectancy_bt,2022.2.4,Win32,60.11421701,Chrome,1707,960,,,,,10,1111,,,,,,,,,,,,,,,,,W,160,hexagon,1,0,,,,,,,,,,,,,,,,repeat,number,numRpt,k,0.4839,Hi,,,,,,4,,,,,,,,high,12,0,12,0,1,,,,,,,,,
297877,2022-12-05_18h41.01.196,vts_reward_expectancy_bt,2022.2.4,Win32,60.11421701,Chrome,1707,960,,,,,0,1111,,,,,,,,,,,,,,,,,S,146,star,0,0,,,,,,,,,,,,,,,,switch,letter,NA,d,0.6894,Hi,,,,,,4,,,,,,,,high,13,0,13,0,1,,,,,,,,,
297877,2022-12-05_18h41.01.196,vts_reward_expectancy_bt,2022.2.4,Win32,60.11421701,Chrome,1707,960,,,,,1,1112,,,,,,,,,,,,,,,,,Y,125,triangle,1,1,,,,,,,,,,,,,,,,switch,number,numSwt,j,0.517,Lo,,,,,,4,,,,,,,,high,14,0,14,0,1,,,,,,,,,
297877,2022-12-05_18h41.01.196,vts_reward_expectancy_bt,2022.2.4,Win32,60.11421701,Chrome,1707,960,,,,,1,1113,,,,,,,,,,,,,,,,,F,174,circle,1,0,,,,,,,,,,,,,,,,switch,letter,lettSwt,d,0.5057,Lo,,,,,,4,,,,,,,,high,15,0,15,0,1,,,,,,,,,
297877,2022-12-05_18h41.01.196,vts_reward_expectancy_bt,2022.2.4,Win32,60.11421701,Chrome,1707,960,,,,,10,1123,,,,,,,,,,,,,,,,,U,174,hexagon,1,0,,,,,,,,,,,,,,,,repeat,letter,lettRpt,f,0.42,Hi,,,,,,4,,,,,,,,high,16,0,16,0,1,,,,,,,,,
297877,2022-12-05_18h41.01.196,vts_reward_expectancy_bt,2022.2.4,Win32,60.11421701,Chrome,1707,960,,,,,0,1123,,,,,,,,,,,,,,,,,H,139,star,1,0,,,,,,,,,,,,,,,,repeat,letter,lettRpt,d,0.5668,Hi,,,,,,4,,,,,,,,high,17,0,17,0,1,,,,,,,,,
297877,2022-12-05_18h41.01.196,vts_reward_expectancy_bt,2022.2.4,Win32,60.11421701,Chrome,1707,960,,,,,10,1133,,,,,,,,,,,,,,,,,D,132,triangle,1,0,,,,,,,,,,,,,,,,repeat,letter,lettRpt,d,0.5524,Lo,,,,,,4,,,,,,,,high,18,0,18,0,1,,,,,,,,,
297877,2022-12-05_18h41.01.196,vts_reward_expectancy_bt,2022.2.4,Win32,60.11421701,Chrome,1707,960,,,,,0,1133,,,,,,,,,,,,,,,,,B,167,circle,0,0,,,,,,,,,,,,,,,,switch,number,NA,j,0.4365,Lo,,,,,,4,,,,,,,,high,19,0,19,0,1,,,,,,,,,
297877,2022-12-05_18h41.01.196,vts_reward_expectancy_bt,2022.2.4,Win32,60.11421701,Chrome,1707,960,,,,,1,1134,,,,,,,,,,,,,,,,,W,160,triangle,1,1,,,,,,,,,,,,,,,,repeat,number,numRpt,k,0.4503,Lo,,,,,,4,,,,,,,,high,20,0,20,0,1,,,,,,,,,
297877,2022-12-05_18h41.01.196,vts_reward_expectancy_bt,2022.2.4,Win32,60.11421701,Chrome,1707,960,,,,,10,1144,,,,,,,,,,,,,,,,,F,181,star,1,0,,,,,,,,,,,,,,,,switch,letter,lettSwt,d,0.5019,Hi,,,,,,4,,,,,,,,high,21,0,21,0,1,,,,,,,,,
297877,2022-12-05_18h41.01.196,vts_reward_expectancy_bt,2022.2.4,Win32,60.11421701,Chrome,1707,960,,,,,0,1144,,,,,,,,,,,,,,,,,Y,125,hexagon,1,0,,,,,,,,,,,,,,,,repeat,letter,lettRpt,f,0.635,Hi,,,,,,4,,,,,,,,high,22,0,22,0,1,,,,,,,,,
297877,2022-12-05_18h41.01.196,vts_reward_expectancy_bt,2022.2.4,Win32,60.11421701,Chrome,1707,960,,,,,1,1145,,,,,,,,,,,,,,,,,S,146,circle,1,0,,,,,,,,,,,,,,,,repeat,letter,lettRpt,f,0.8046,Lo,,,,,,4,,,,,,,,high,23,0,23,0,1,,,,,,,,,
297877,2022-12-05_18h41.01.196,vts_reward_expectancy_bt,2022.2.4,Win32,60.11421701,Chrome,1707,960,,,,,0,1145,,,,,,,,,,,,,,,,,Y,174,star,1,0,,,,,,,,,,,,,,,,repeat,letter,lettRpt,f,0.5005,Hi,,,,,,4,,,,,,,,high,24,0,24,0,1,,,,,,,,,
297877,2022-12-05_18h41.01.196,vts_reward_expectancy_bt,2022.2.4,Win32,60.11421701,Chrome,1707,960,,,,,10,1155,,,,,,,,,,,,,,,,,H,132,circle,1,0,,,,,,,,,,,,,,,,switch,number,numSwt,j,0.817,Lo,,,,,,4,,,,,,,,high,25,0,25,0,1,,,,,,,,,
297877,2022-12-05_18h41.01.196,vts_reward_expectancy_bt,2022.2.4,Win32,60.11421701,Chrome,1707,960,,,,,10,1165,,,,,,,,,,,,,,,,,D,139,hexagon,1,0,,,,,,,,,,,,,,,,repeat,number,numRpt,j,0.4509,Hi,,,,,,4,,,,,,,,high,26,0,26,0,1,,,,,,,,,
297877,2022-12-05_18h41.01.196,vts_reward_expectancy_bt,2022.2.4,Win32,60.11421701,Chrome,1707,960,,,,,1,1166,,,,,,,,,,,,,,,,,B,167,triangle,1,0,,,,,,,,,,,,,,,,switch,letter,lettSwt,d,0.6062,Lo,,,,,,4,,,,,,,,high,27,0,27,0,1,,,,,,,,,
297877,2022-12-05_18h41.01.196,vts_reward_expectancy_bt,2022.2.4,Win32,60.11421701,Chrome,1707,960,,,,,10,1176,,,,,,,,,,,,,,,,,S,160,circle,1,0,,,,,,,,,,,,,,,,repeat,letter,lettRpt,f,0.5038,Lo,,,,,,4,,,,,,,,high,28,0,28,0,1,,,,,,,,,
297877,2022-12-05_18h41.01.196,vts_reward_expectancy_bt,2022.2.4,Win32,60.11421701,Chrome,1707,960,,,,,0,1176,,,,,,,,,,,,,,,,,W,181,hexagon,1,0,,,,,,,,,,,,,,,,switch,number,numSwt,k,0.5007,Hi,,,,,,4,,,,,,,,high,29,0,29,0,1,,,,,,,,,
297877,2022-12-05_18h41.01.196,vts_reward_expectancy_bt,2022.2.4,Win32,60.11421701,Chrome,1707,960,,,,,0,1176,,,,,,,,,,,,,,,,,F,146,star,1,0,,,,,,,,,,,,,,,,switch,letter,lettSwt,d,0.5339,Hi,,,,,,4,,,,,,,,high,30,0,30,0,1,,,,,,,,,
297877,2022-12-05_18h41.01.196,vts_reward_expectancy_bt,2022.2.4,Win32,60.11421701,Chrome,1707,960,,,,,1,1177,,,,,,,,,,,,,,,,,U,125,triangle,1,0,,,,,,,,,,,,,,,,repeat,letter,lettRpt,f,0.5339,Lo,,,,,,4,,,,,,,,high,31,0,31,0,1,,,,,,,,,
297877,2022-12-05_18h41.01.196,vts_reward_expectancy_bt,2022.2.4,Win32,60.11421701,Chrome,1707,960,,,,,10,1187,,,,,,,,,,,,,,,,,D,181,star,1,0,,,,,,,,,,,,,,,,repeat,letter,lettRpt,d,0.3995,Hi,,,,,,5,,,,,,space,0.6344,high,0,0,0,0,1,,,,,,,,,
297877,2022-12-05_18h41.01.196,vts_reward_expectancy_bt,2022.2.4,Win32,60.11421701,Chrome,1707,960,,,,,0,1187,,,,,,,,,,,,,,,,,H,167,hexagon,1,0,,,,,,,,,,,,,,,,switch,number,numSwt,k,0.534,Hi,,,,,,5,,,,,,,,high,1,0,1,0,1,,,,,,,,,
297877,2022-12-05_18h41.01.196,vts_reward_expectancy_bt,2022.2.4,Win32,60.11421701,Chrome,1707,960,,,,,1,1188,,,,,,,,,,,,,,,,,U,132,circle,1,0,,,,,,,,,,,,,,,,switch,letter,lettSwt,f,0.5209,Lo,,,,,,5,,,,,,,,high,2,0,2,0,1,,,,,,,,,
297877,2022-12-05_18h41.01.196,vts_reward_expectancy_bt,2022.2.4,Win32,60.11421701,Chrome,1707,960,,,,,1,1189,,,,,,,,,,,,,,,,,S,125,triangle,1,0,,,,,,,,,,,,,,,,repeat,letter,lettRpt,f,0.5174,Lo,,,,,,5,,,,,,,,high,3,0,3,0,1,,,,,,,,,
297877,2022-12-05_18h41.01.196,vts_reward_expectancy_bt,2022.2.4,Win32,60.11421701,Chrome,1707,960,,,,,0,1189,,,,,,,,,,,,,,,,,B,174,star,1,0,,,,,,,,,,,,,,,,switch,number,numSwt,k,0.4699,Hi,,,,,,5,,,,,,,,high,4,0,4,0,1,,,,,,,,,
297877,2022-12-05_18h41.01.196,vts_reward_expectancy_bt,2022.2.4,Win32,60.11421701,Chrome,1707,960,,,,,0,1189,,,,,,,,,,,,,,,,,W,160,hexagon,0,0,,,,,,,,,,,,,,,,repeat,number,NA,j,0.367,Hi,,,,,,5,,,,,,,,high,5,0,5,0,1,,,,,,,,,
297877,2022-12-05_18h41.01.196,vts_reward_expectancy_bt,2022.2.4,Win32,60.11421701,Chrome,1707,960,,,,,0,1189,,,,,,,,,,,,,,,,,Y,146,circle,0,1,,,,,,,,,,,,,,,,repeat,number,NA,k,0.4339,Hi,,,,,,5,,,,,,,,high,6,0,6,0,1,,,,,,,,,
297877,2022-12-05_18h41.01.196,vts_reward_expectancy_bt,2022.2.4,Win32,60.11421701,Chrome,1707,960,,,,,0,1189,,,,,,,,,,,,,,,,,F,139,triangle,0,1,,,,,,,,,,,,,,,,repeat,number,NA,k,0.4677,Hi,,,,,,5,,,,,,,,high,7,0,7,0,1,,,,,,,,,
297877,2022-12-05_18h41.01.196,vts_reward_expectancy_bt,2022.2.4,Win32,60.11421701,Chrome,1707,960,,,,,10,1199,,,,,,,,,,,,,,,,,D,181,hexagon,1,1,,,,,,,,,,,,,,,,repeat,number,numRpt,k,0.3504,Hi,,,,,,5,,,,,,,,high,8,0,8,0,1,,,,,,,,,
297877,2022-12-05_18h41.01.196,vts_reward_expectancy_bt,2022.2.4,Win32,60.11421701,Chrome,1707,960,,,,,0,1199,,,,,,,,,,,,,,,,,H,167,star,0,0,,,,,,,,,,,,,,,,switch,letter,NA,f,0.4342,Hi,,,,,,5,,,,,,,,high,9,0,9,0,1,,,,,,,,,
297877,2022-12-05_18h41.01.196,vts_reward_expectancy_bt,2022.2.4,Win32,60.11421701,Chrome,1707,960,,,,,1,1200,,,,,,,,,,,,,,,,,U,132,circle,1,1,,,,,,,,,,,,,,,,repeat,letter,lettRpt,f,0.4671,Lo,,,,,,5,,,,,,,,high,10,0,10,0,1,,,,,,,,,
297877,2022-12-05_18h41.01.196,vts_reward_expectancy_bt,2022.2.4,Win32,60.11421701,Chrome,1707,960,,,,,1,1201,,,,,,,,,,,,,,,,,S,125,triangle,1,0,,,,,,,,,,,,,,,,switch,number,numSwt,j,0.4669,Lo,,,,,,5,,,,,,,,high,11,0,11,0,1,,,,,,,,,
297877,2022-12-05_18h41.01.196,vts_reward_expectancy_bt,2022.2.4,Win32,60.11421701,Chrome,1707,960,,,,,10,1211,,,,,,,,,,,,,,,,,B,174,hexagon,1,0,,,,,,,,,,,,,,,,switch,letter,lettSwt,d,0.417,Hi,,,,,,5,,,,,,,,high,12,0,12,0,1,,,,,,,,,
297877,2022-12-05_18h41.01.196,vts_reward_expectancy_bt,2022.2.4,Win32,60.11421701,Chrome,1707,960,,,,,10,1221,,,,,,,,,,,,,,,,,W,160,circle,1,0,,,,,,,,,,,,,,,,switch,number,numSwt,k,0.4688,Lo,,,,,,5,,,,,,,,high,13,0,13,0,1,,,,,,,,,
297877,2022-12-05_18h41.01.196,vts_reward_expectancy_bt,2022.2.4,Win32,60.11421701,Chrome,1707,960,,,,,0,1221,,,,,,,,,,,,,,,,,Y,146,star,0,0,,,,,,,,,,,,,,,,switch,letter,NA,d,0.7372,Lo,,,,,,5,,,,,,,,high,14,0,14,0,1,,,,,,,,,
297877,2022-12-05_18h41.01.196,vts_reward_expectancy_bt,2022.2.4,Win32,60.11421701,Chrome,1707,960,,,,,1,1222,,,,,,,,,,,,,,,,,F,139,triangle,1,1,,,,,,,,,,,,,,,,repeat,letter,lettRpt,d,0.5525,Lo,,,,,,5,,,,,,,,high,15,0,15,0,1,,,,,,,,,
297877,2022-12-05_18h41.01.196,vts_reward_expectancy_bt,2022.2.4,Win32,60.11421701,Chrome,1707,960,,,,,1,1223,,,,,,,,,,,,,,,,,W,167,circle,1,0,,,,,,,,,,,,,,,,switch,number,numSwt,k,0.3997,Lo,,,,,,5,,,,,,,,high,16,0,16,0,1,,,,,,,,,
297877,2022-12-05_18h41.01.196,vts_reward_expectancy_bt,2022.2.4,Win32,60.11421701,Chrome,1707,960,,,,,0,1223,,,,,,,,,,,,,,,,,Y,174,hexagon,1,0,,,,,,,,,,,,,,,,switch,letter,lettSwt,f,0.6347,Hi,,,,,,5,,,,,,,,high,17,0,17,0,1,,,,,,,,,
297877,2022-12-05_18h41.01.196,vts_reward_expectancy_bt,2022.2.4,Win32,60.11421701,Chrome,1707,960,,,,,0,1223,,,,,,,,,,,,,,,,,F,181,star,1,0,,,,,,,,,,,,,,,,repeat,letter,lettRpt,d,0.5168,Hi,,,,,,5,,,,,,,,high,18,0,18,0,1,,,,,,,,,
297877,2022-12-05_18h41.01.196,vts_reward_expectancy_bt,2022.2.4,Win32,60.11421701,Chrome,1707,960,,,,,1,1224,,,,,,,,,,,,,,,,,S,139,triangle,1,0,,,,,,,,,,,,,,,,repeat,letter,lettRpt,f,0.435,Lo,,,,,,5,,,,,,,,high,19,0,19,0,1,,,,,,,,,
297877,2022-12-05_18h41.01.196,vts_reward_expectancy_bt,2022.2.4,Win32,60.11421701,Chrome,1707,960,,,,,1,1225,,,,,,,,,,,,,,,,,H,125,circle,1,0,,,,,,,,,,,,,,,,switch,number,numSwt,j,0.5204,Lo,,,,,,5,,,,,,,,high,20,0,20,0,1,,,,,,,,,
297877,2022-12-05_18h41.01.196,vts_reward_expectancy_bt,2022.2.4,Win32,60.11421701,Chrome,1707,960,,,,,1,1226,,,,,,,,,,,,,,,,,U,132,triangle,1,0,,,,,,,,,,,,,,,,switch,letter,lettSwt,f,0.6376,Lo,,,,,,5,,,,,,,,high,21,0,21,0,1,,,,,,,,,
297877,2022-12-05_18h41.01.196,vts_reward_expectancy_bt,2022.2.4,Win32,60.11421701,Chrome,1707,960,,,,,10,1236,,,,,,,,,,,,,,,,,D,160,star,1,0,,,,,,,,,,,,,,,,repeat,letter,lettRpt,d,0.4713,Hi,,,,,,5,,,,,,,,high,22,0,22,0,1,,,,,,,,,
297877,2022-12-05_18h41.01.196,vts_reward_expectancy_bt,2022.2.4,Win32,60.11421701,Chrome,1707,960,,,,,0,1236,,,,,,,,,,,,,,,,,B,146,hexagon,0,0,,,,,,,,,,,,,,,,switch,number,NA,k,0.5341,Hi,,,,,,5,,,,,,,,high,23,0,23,0,1,,,,,,,,,
297877,2022-12-05_18h41.01.196,vts_reward_expectancy_bt,2022.2.4,Win32,60.11421701,Chrome,1707,960,,,,,0,1236,,,,,,,,,,,,,,,,,U,181,star,1,1,,,,,,,,,,,,,,,,repeat,number,numRpt,k,0.5509,Hi,,,,,,5,,,,,,,,high,24,0,24,0,1,,,,,,,,,
297877,2022-12-05_18h41.01.196,vts_reward_expectancy_bt,2022.2.4,Win32,60.11421701,Chrome,1707,960,,,,,1,1237,,,,,,,,,,,,,,,,,Y,139,circle,1,0,,,,,,,,,,,,,,,,repeat,number,numRpt,j,0.6511,Lo,,,,,,5,,,,,,,,high,25,0,25,0,1,,,,,,,,,
297877,2022-12-05_18h41.01.196,vts_reward_expectancy_bt,2022.2.4,Win32,60.11421701,Chrome,1707,960,,,,,10,1247,,,,,,,,,,,,,,,,,S,125,triangle,1,0,,,,,,,,,,,,,,,,repeat,number,numRpt,j,0.5678,Lo,,,,,,5,,,,,,,,high,26,0,26,0,1,,,,,,,,,
297877,2022-12-05_18h41.01.196,vts_reward_expectancy_bt,2022.2.4,Win32,60.11421701,Chrome,1707,960,,,,,0,1247,,,,,,,,,,,,,,,,,B,167,hexagon,0,0,,,,,,,,,,,,,,,,repeat,number,NA,j,0.6499,Lo,,,,,,5,,,,,,,,high,27,0,27,0,1,,,,,,,,,
297877,2022-12-05_18h41.01.196,vts_reward_expectancy_bt,2022.2.4,Win32,60.11421701,Chrome,1707,960,,,,,1,1248,,,,,,,,,,,,,,,,,D,174,circle,1,1,,,,,,,,,,,,,,,,repeat,number,numRpt,k,0.5827,Lo,,,,,,5,,,,,,,,high,28,0,28,0,1,,,,,,,,,
297877,2022-12-05_18h41.01.196,vts_reward_expectancy_bt,2022.2.4,Win32,60.11421701,Chrome,1707,960,,,,,0,1248,,,,,,,,,,,,,,,,,W,160,hexagon,0,0,,,,,,,,,,,,,,,,switch,letter,NA,d,0.7858,Lo,,,,,,5,,,,,,,,high,29,0,29,0,1,,,,,,,,,
297877,2022-12-05_18h41.01.196,vts_reward_expectancy_bt,2022.2.4,Win32,60.11421701,Chrome,1707,960,,,,,1,1249,,,,,,,,,,,,,,,,,F,132,triangle,1,1,,,,,,,,,,,,,,,,repeat,letter,lettRpt,d,0.5553,Lo,,,,,,5,,,,,,,,high,30,0,30,0,1,,,,,,,,,
297877,2022-12-05_18h41.01.196,vts_reward_expectancy_bt,2022.2.4,Win32,60.11421701,Chrome,1707,960,,,,,0,1249,,,,,,,,,,,,,,,,,H,146,star,1,0,,,,,,,,,,,,,,,,repeat,letter,lettRpt,d,0.6014,Hi,,,,,,5,,,,,,,,high,31,0,31,0,1,,,,,,,,,
297877,2022-12-05_18h41.01.196,vts_reward_expectancy_bt,2022.2.4,Win32,60.11421701,Chrome,1707,960,,,,,10,1259,,,,,,,,,,,,,,,,,F,181,triangle,1,0,,,,,,,,,,,,,,,,switch,number,numSwt,k,0.5343,Lo,,,,,,6,,,,,,space,0.6879,high,0,0,0,0,1,,,,,,,,,
297877,2022-12-05_18h41.01.196,vts_reward_expectancy_bt,2022.2.4,Win32,60.11421701,Chrome,1707,960,,,,,10,1269,,,,,,,,,,,,,,,,,W,160,star,1,0,,,,,,,,,,,,,,,,switch,letter,lettSwt,f,0.4505,Hi,,,,,,6,,,,,,,,high,1,0,1,0,1,,,,,,,,,
297877,2022-12-05_18h41.01.196,vts_reward_expectancy_bt,2022.2.4,Win32,60.11421701,Chrome,1707,960,,,,,1,1270,,,,,,,,,,,,,,,,,B,167,circle,1,0,,,,,,,,,,,,,,,,switch,number,numSwt,k,0.4878,Lo,,,,,,6,,,,,,,,high,2,0,2,0,1,,,,,,,,,
297877,2022-12-05_18h41.01.196,vts_reward_expectancy_bt,2022.2.4,Win32,60.11421701,Chrome,1707,960,,,,,0,1270,,,,,,,,,,,,,,,,,U,125,hexagon,1,0,,,,,,,,,,,,,,,,repeat,number,numRpt,j,0.9167,Hi,,,,,,6,,,,,,,,high,3,0,3,0,1,,,,,,,,,
297877,2022-12-05_18h41.01.196,vts_reward_expectancy_bt,2022.2.4,Win32,60.11421701,Chrome,1707,960,,,,,1,1271,,,,,,,,,,,,,,,,,S,139,triangle,1,0,,,,,,,,,,,,,,,,repeat,number,numRpt,j,0.4509,Lo,,,,,,6,,,,,,,,high,4,0,4,0,1,,,,,,,,,
297877,2022-12-05_18h41.01.196,vts_reward_expectancy_bt,2022.2.4,Win32,60.11421701,Chrome,1707,960,,,,,10,1281,,,,,,,,,,,,,,,,,Y,146,star,1,0,,,,,,,,,,,,,,,,switch,letter,lettSwt,f,0.4525,Hi,,,,,,6,,,,,,,,high,5,0,5,0,1,,,,,,,,,
297877,2022-12-05_18h41.01.196,vts_reward_expectancy_bt,2022.2.4,Win32,60.11421701,Chrome,1707,960,,,,,10,1291,,,,,,,,,,,,,,,,,D,132,circle,1,0,,,,,,,,,,,,,,,,repeat,letter,lettRpt,d,0.6194,Lo,,,,,,6,,,,,,,,high,6,0,6,0,1,,,,,,,,,
