participant,date,expName,psychopyVersion,OS,frameRate,browser,xResolution,yResolution,key_resp.keys,key_resp.rt,training_resp.keys,training_resp.rt,points_trial,points_cumul,trainBlock,training.thisRepN,training.thisTrialN,training.thisN,training.thisIndex,training.ran,LTriangleOpac,LCircleOpac,LHexagonOpac,LStarOpac,RTriangleOpac,RCircleOpac,RHexagonOpac,RStarOpac,LShape_ID,RShape_ID,curr_topStim,curr_bottStim,curr_shape,acc,E1,target_resp_prac1.keys,target_resp_prac1.rt,pracBlock,task1_prac_trials.thisRepN,task1_prac_trials.thisTrialN,task1_prac_trials.thisN,task1_prac_trials.thisIndex,task1_prac_trials.ran,target_resp_prac2.keys,target_resp_prac2.rt,task2_praac_trials.thisRepN,task2_praac_trials.thisTrialN,task2_praac_trials.thisN,task2_praac_trials.thisIndex,task2_praac_trials.ran,alt,task,condition,target_resp.keys,target_resp.rt,rewCond,vts_practice_trials.thisRepN,vts_practice_trials.thisTrialN,vts_practice_trials.thisN,vts_practice_trials.thisIndex,vts_practice_trials.ran,blockNum,trials_norew.thisRepN,trials_norew.thisTrialN,trials_norew.thisN,trials_norew.thisIndex,trials_norew.ran,key_resp_2.keys,key_resp_2.rt,rewExpectancy,trials_rew.thisRepN,trials_rew.thisTrialN,trials_rew.thisN,trials_rew.thisIndex,trials_rew.ran,Q1,Q2,Q2_text,Q3,Q4,Q5_text,Q5,xRes,yRes
297832,2022-12-05_22h56.55.775,vts_reward_expectancy_bt,2022.2.4,Win32,60.98676587,Chrome,1920,1080,,,,,,,,,,,,,,,,,,,,,,,,,,,,,,,,,,,,,,,,,,,,,,,,,,,,,,,,,,,,,,,,,,,,,,,,,,,,
297832,2022-12-05_22h56.55.775,vts_reward_expectancy_bt,2022.2.4,Win32,60.98676587,Chrome,1920,1080,space,35.6101,,,,,,,,,,,,,,,,,,,,,,,,,,,,,,,,,,,,,,,,,,,,,,,,,,,,,,,,,,,,,,,,,,,,,,,,,,
297832,2022-12-05_22h56.55.775,vts_reward_expectancy_bt,2022.2.4,Win32,60.98676587,Chrome,1920,1080,,,,,,,,,,,,,,,,,,,,,,,,,,,,,,,,,,,,,,,,,,,,,,,,,,,,,,,,,,,,,,,,,,,,,,,,,,,,
297832,2022-12-05_22h56.55.775,vts_reward_expectancy_bt,2022.2.4,Win32,60.98676587,Chrome,1920,1080,,,a,0.7227,10,10,0,0,0,0,4,1,0,1,0,0,0,0,1,0,circle,hexagon,,,,,,,,,,,,,,,,,,,,,,,,,,,,,,,,,,,,,,,,,,,,,,,,,,,,,,
297832,2022-12-05_22h56.55.775,vts_reward_expectancy_bt,2022.2.4,Win32,60.98676587,Chrome,1920,1080,,,l,1.8891,1,11,0,0,1,1,8,1,0,0,1,0,0,0,0,1,hexagon,star,,,,,,,,,,,,,,,,,,,,,,,,,,,,,,,,,,,,,,,,,,,,,,,,,,,,,,
297832,2022-12-05_22h56.55.775,vts_reward_expectancy_bt,2022.2.4,Win32,60.98676587,Chrome,1920,1080,,,a,0.6049,10,21,0,0,2,2,5,1,0,1,0,0,0,0,0,1,circle,star,,,,,,,,,,,,,,,,,,,,,,,,,,,,,,,,,,,,,,,,,,,,,,,,,,,,,,
297832,2022-12-05_22h56.55.775,vts_reward_expectancy_bt,2022.2.4,Win32,60.98676587,Chrome,1920,1080,,,l,1.1422,10,31,0,0,3,3,10,1,0,0,0,1,0,1,0,0,star ,circle,,,,,,,,,,,,,,,,,,,,,,,,,,,,,,,,,,,,,,,,,,,,,,,,,,,,,,
297832,2022-12-05_22h56.55.775,vts_reward_expectancy_bt,2022.2.4,Win32,60.98676587,Chrome,1920,1080,,,a,1.0459,10,41,0,0,4,4,6,1,0,0,1,0,1,0,0,0,hexagon,triangle,,,,,,,,,,,,,,,,,,,,,,,,,,,,,,,,,,,,,,,,,,,,,,,,,,,,,,
297832,2022-12-05_22h56.55.775,vts_reward_expectancy_bt,2022.2.4,Win32,60.98676587,Chrome,1920,1080,,,a,1.3028,10,51,0,0,5,5,3,1,0,1,0,0,1,0,0,0,circle,triangle,,,,,,,,,,,,,,,,,,,,,,,,,,,,,,,,,,,,,,,,,,,,,,,,,,,,,,
297832,2022-12-05_22h56.55.775,vts_reward_expectancy_bt,2022.2.4,Win32,60.98676587,Chrome,1920,1080,,,l,2.4463,1,52,0,0,6,6,0,1,1,0,0,0,0,1,0,0,triangle,circle,,,,,,,,,,,,,,,,,,,,,,,,,,,,,,,,,,,,,,,,,,,,,,,,,,,,,,
297832,2022-12-05_22h56.55.775,vts_reward_expectancy_bt,2022.2.4,Win32,60.98676587,Chrome,1920,1080,,,l,7.0767,1,53,0,0,7,7,9,1,0,0,0,1,1,0,0,0,star,triangle,,,,,,,,,,,,,,,,,,,,,,,,,,,,,,,,,,,,,,,,,,,,,,,,,,,,,,
297832,2022-12-05_22h56.55.775,vts_reward_expectancy_bt,2022.2.4,Win32,60.98676587,Chrome,1920,1080,,,l,1.4564,10,63,0,0,8,8,1,1,1,0,0,0,0,0,1,0,triangle,hexagon,,,,,,,,,,,,,,,,,,,,,,,,,,,,,,,,,,,,,,,,,,,,,,,,,,,,,,
297832,2022-12-05_22h56.55.775,vts_reward_expectancy_bt,2022.2.4,Win32,60.98676587,Chrome,1920,1080,,,l,1.2374,1,64,0,0,9,9,7,1,0,0,1,0,0,1,0,0,hexagon,circle,,,,,,,,,,,,,,,,,,,,,,,,,,,,,,,,,,,,,,,,,,,,,,,,,,,,,,
297832,2022-12-05_22h56.55.775,vts_reward_expectancy_bt,2022.2.4,Win32,60.98676587,Chrome,1920,1080,,,l,1.2811,10,74,0,0,10,10,2,1,1,0,0,0,0,0,0,1,triangle,star,,,,,,,,,,,,,,,,,,,,,,,,,,,,,,,,,,,,,,,,,,,,,,,,,,,,,,
297832,2022-12-05_22h56.55.775,vts_reward_expectancy_bt,2022.2.4,Win32,60.98676587,Chrome,1920,1080,,,a,2.1334,10,84,0,0,11,11,11,1,0,0,0,1,0,0,1,0,star,hexagon,,,,,,,,,,,,,,,,,,,,,,,,,,,,,,,,,,,,,,,,,,,,,,,,,,,,,,
297832,2022-12-05_22h56.55.775,vts_reward_expectancy_bt,2022.2.4,Win32,60.98676587,Chrome,1920,1080,,,l,4.2518,1,85,0,1,0,12,1,1,1,0,0,0,0,0,1,0,triangle,hexagon,,,,,,,,,,,,,,,,,,,,,,,,,,,,,,,,,,,,,,,,,,,,,,,,,,,,,,
297832,2022-12-05_22h56.55.775,vts_reward_expectancy_bt,2022.2.4,Win32,60.98676587,Chrome,1920,1080,,,a,0.5378,1,86,0,1,1,13,5,1,0,1,0,0,0,0,0,1,circle,star,,,,,,,,,,,,,,,,,,,,,,,,,,,,,,,,,,,,,,,,,,,,,,,,,,,,,,
297832,2022-12-05_22h56.55.775,vts_reward_expectancy_bt,2022.2.4,Win32,60.98676587,Chrome,1920,1080,,,a,0.6322,10,96,0,1,2,14,6,1,0,0,1,0,1,0,0,0,hexagon,triangle,,,,,,,,,,,,,,,,,,,,,,,,,,,,,,,,,,,,,,,,,,,,,,,,,,,,,,
297832,2022-12-05_22h56.55.775,vts_reward_expectancy_bt,2022.2.4,Win32,60.98676587,Chrome,1920,1080,,,a,0.5368,1,97,0,1,3,15,8,1,0,0,1,0,0,0,0,1,hexagon,star,,,,,,,,,,,,,,,,,,,,,,,,,,,,,,,,,,,,,,,,,,,,,,,,,,,,,,
297832,2022-12-05_22h56.55.775,vts_reward_expectancy_bt,2022.2.4,Win32,60.98676587,Chrome,1920,1080,,,l,0.5569,10,107,0,1,4,16,11,1,0,0,0,1,0,0,1,0,star,hexagon,,,,,,,,,,,,,,,,,,,,,,,,,,,,,,,,,,,,,,,,,,,,,,,,,,,,,,
297832,2022-12-05_22h56.55.775,vts_reward_expectancy_bt,2022.2.4,Win32,60.98676587,Chrome,1920,1080,,,l,0.8074,1,108,0,1,5,17,9,1,0,0,0,1,1,0,0,0,star,triangle,,,,,,,,,,,,,,,,,,,,,,,,,,,,,,,,,,,,,,,,,,,,,,,,,,,,,,
297832,2022-12-05_22h56.55.775,vts_reward_expectancy_bt,2022.2.4,Win32,60.98676587,Chrome,1920,1080,,,l,0.549,1,109,0,1,6,18,7,1,0,0,1,0,0,1,0,0,hexagon,circle,,,,,,,,,,,,,,,,,,,,,,,,,,,,,,,,,,,,,,,,,,,,,,,,,,,,,,
297832,2022-12-05_22h56.55.775,vts_reward_expectancy_bt,2022.2.4,Win32,60.98676587,Chrome,1920,1080,,,a,0.6957,1,110,0,1,7,19,2,1,1,0,0,0,0,0,0,1,triangle,star,,,,,,,,,,,,,,,,,,,,,,,,,,,,,,,,,,,,,,,,,,,,,,,,,,,,,,
297832,2022-12-05_22h56.55.775,vts_reward_expectancy_bt,2022.2.4,Win32,60.98676587,Chrome,1920,1080,,,l,1.0347,10,120,0,1,8,20,4,1,0,1,0,0,0,0,1,0,circle,hexagon,,,,,,,,,,,,,,,,,,,,,,,,,,,,,,,,,,,,,,,,,,,,,,,,,,,,,,
297832,2022-12-05_22h56.55.775,vts_reward_expectancy_bt,2022.2.4,Win32,60.98676587,Chrome,1920,1080,,,a,1.3417,10,130,0,1,9,21,3,1,0,1,0,0,1,0,0,0,circle,triangle,,,,,,,,,,,,,,,,,,,,,,,,,,,,,,,,,,,,,,,,,,,,,,,,,,,,,,
297832,2022-12-05_22h56.55.775,vts_reward_expectancy_bt,2022.2.4,Win32,60.98676587,Chrome,1920,1080,,,l,0.9122,1,131,0,1,10,22,10,1,0,0,0,1,0,1,0,0,star ,circle,,,,,,,,,,,,,,,,,,,,,,,,,,,,,,,,,,,,,,,,,,,,,,,,,,,,,,
297832,2022-12-05_22h56.55.775,vts_reward_expectancy_bt,2022.2.4,Win32,60.98676587,Chrome,1920,1080,,,l,0.921,1,132,0,1,11,23,0,1,1,0,0,0,0,1,0,0,triangle,circle,,,,,,,,,,,,,,,,,,,,,,,,,,,,,,,,,,,,,,,,,,,,,,,,,,,,,,
297832,2022-12-05_22h56.55.775,vts_reward_expectancy_bt,2022.2.4,Win32,60.98676587,Chrome,1920,1080,,,a,0.676,1,133,0,2,0,24,10,1,0,0,0,1,0,1,0,0,star ,circle,,,,,,,,,,,,,,,,,,,,,,,,,,,,,,,,,,,,,,,,,,,,,,,,,,,,,,
297832,2022-12-05_22h56.55.775,vts_reward_expectancy_bt,2022.2.4,Win32,60.98676587,Chrome,1920,1080,,,l,0.6321,1,134,0,2,1,25,0,1,1,0,0,0,0,1,0,0,triangle,circle,,,,,,,,,,,,,,,,,,,,,,,,,,,,,,,,,,,,,,,,,,,,,,,,,,,,,,
297832,2022-12-05_22h56.55.775,vts_reward_expectancy_bt,2022.2.4,Win32,60.98676587,Chrome,1920,1080,,,a,0.4851,1,135,0,2,2,26,4,1,0,1,0,0,0,0,1,0,circle,hexagon,,,,,,,,,,,,,,,,,,,,,,,,,,,,,,,,,,,,,,,,,,,,,,,,,,,,,,
297832,2022-12-05_22h56.55.775,vts_reward_expectancy_bt,2022.2.4,Win32,60.98676587,Chrome,1920,1080,,,a,1.1228,10,145,0,2,3,27,7,1,0,0,1,0,0,1,0,0,hexagon,circle,,,,,,,,,,,,,,,,,,,,,,,,,,,,,,,,,,,,,,,,,,,,,,,,,,,,,,
297832,2022-12-05_22h56.55.775,vts_reward_expectancy_bt,2022.2.4,Win32,60.98676587,Chrome,1920,1080,,,a,1.5667,10,155,0,2,4,28,3,1,0,1,0,0,1,0,0,0,circle,triangle,,,,,,,,,,,,,,,,,,,,,,,,,,,,,,,,,,,,,,,,,,,,,,,,,,,,,,
297832,2022-12-05_22h56.55.775,vts_reward_expectancy_bt,2022.2.4,Win32,60.98676587,Chrome,1920,1080,,,l,1.6833,1,156,0,2,5,29,9,1,0,0,0,1,1,0,0,0,star,triangle,,,,,,,,,,,,,,,,,,,,,,,,,,,,,,,,,,,,,,,,,,,,,,,,,,,,,,
297832,2022-12-05_22h56.55.775,vts_reward_expectancy_bt,2022.2.4,Win32,60.98676587,Chrome,1920,1080,,,l,1.9402,10,166,0,2,6,30,5,1,0,1,0,0,0,0,0,1,circle,star,,,,,,,,,,,,,,,,,,,,,,,,,,,,,,,,,,,,,,,,,,,,,,,,,,,,,,
297832,2022-12-05_22h56.55.775,vts_reward_expectancy_bt,2022.2.4,Win32,60.98676587,Chrome,1920,1080,,,l,1.3963,1,167,0,2,7,31,1,1,1,0,0,0,0,0,1,0,triangle,hexagon,,,,,,,,,,,,,,,,,,,,,,,,,,,,,,,,,,,,,,,,,,,,,,,,,,,,,,
297832,2022-12-05_22h56.55.775,vts_reward_expectancy_bt,2022.2.4,Win32,60.98676587,Chrome,1920,1080,,,a,0.6312,10,177,0,2,8,32,2,1,1,0,0,0,0,0,0,1,triangle,star,,,,,,,,,,,,,,,,,,,,,,,,,,,,,,,,,,,,,,,,,,,,,,,,,,,,,,
297832,2022-12-05_22h56.55.775,vts_reward_expectancy_bt,2022.2.4,Win32,60.98676587,Chrome,1920,1080,,,a,3.137,10,187,0,2,9,33,6,1,0,0,1,0,1,0,0,0,hexagon,triangle,,,,,,,,,,,,,,,,,,,,,,,,,,,,,,,,,,,,,,,,,,,,,,,,,,,,,,
297832,2022-12-05_22h56.55.775,vts_reward_expectancy_bt,2022.2.4,Win32,60.98676587,Chrome,1920,1080,,,a,1.8154,10,197,0,2,10,34,8,1,0,0,1,0,0,0,0,1,hexagon,star,,,,,,,,,,,,,,,,,,,,,,,,,,,,,,,,,,,,,,,,,,,,,,,,,,,,,,
297832,2022-12-05_22h56.55.775,vts_reward_expectancy_bt,2022.2.4,Win32,60.98676587,Chrome,1920,1080,,,l,3.2416,10,207,0,2,11,35,11,1,0,0,0,1,0,0,1,0,star,hexagon,,,,,,,,,,,,,,,,,,,,,,,,,,,,,,,,,,,,,,,,,,,,,,,,,,,,,,
297832,2022-12-05_22h56.55.775,vts_reward_expectancy_bt,2022.2.4,Win32,60.98676587,Chrome,1920,1080,,,l,1.2439,10,217,1,0,0,0,10,1,0,0,0,1,0,1,0,0,star ,circle,,,,,,,,,,,,,,,,,,,,,,,,,,,,,,,,,,,,,,,,,,,,,,,,,,,,,,
297832,2022-12-05_22h56.55.775,vts_reward_expectancy_bt,2022.2.4,Win32,60.98676587,Chrome,1920,1080,,,l,0.7417,1,218,1,0,1,1,1,1,1,0,0,0,0,0,1,0,triangle,hexagon,,,,,,,,,,,,,,,,,,,,,,,,,,,,,,,,,,,,,,,,,,,,,,,,,,,,,,
297832,2022-12-05_22h56.55.775,vts_reward_expectancy_bt,2022.2.4,Win32,60.98676587,Chrome,1920,1080,,,a,0.4337,10,228,1,0,2,2,6,1,0,0,1,0,1,0,0,0,hexagon,triangle,,,,,,,,,,,,,,,,,,,,,,,,,,,,,,,,,,,,,,,,,,,,,,,,,,,,,,
297832,2022-12-05_22h56.55.775,vts_reward_expectancy_bt,2022.2.4,Win32,60.98676587,Chrome,1920,1080,,,l,0.6084,1,229,1,0,3,3,9,1,0,0,0,1,1,0,0,0,star,triangle,,,,,,,,,,,,,,,,,,,,,,,,,,,,,,,,,,,,,,,,,,,,,,,,,,,,,,
297832,2022-12-05_22h56.55.775,vts_reward_expectancy_bt,2022.2.4,Win32,60.98676587,Chrome,1920,1080,,,a,0.5335,1,230,1,0,4,4,2,1,1,0,0,0,0,0,0,1,triangle,star,,,,,,,,,,,,,,,,,,,,,,,,,,,,,,,,,,,,,,,,,,,,,,,,,,,,,,
297832,2022-12-05_22h56.55.775,vts_reward_expectancy_bt,2022.2.4,Win32,60.98676587,Chrome,1920,1080,,,l,0.5722,10,240,1,0,5,5,7,1,0,0,1,0,0,1,0,0,hexagon,circle,,,,,,,,,,,,,,,,,,,,,,,,,,,,,,,,,,,,,,,,,,,,,,,,,,,,,,
297832,2022-12-05_22h56.55.775,vts_reward_expectancy_bt,2022.2.4,Win32,60.98676587,Chrome,1920,1080,,,a,0.0951,10,250,1,0,6,6,4,1,0,1,0,0,0,0,1,0,circle,hexagon,,,,,,,,,,,,,,,,,,,,,,,,,,,,,,,,,,,,,,,,,,,,,,,,,,,,,,
297832,2022-12-05_22h56.55.775,vts_reward_expectancy_bt,2022.2.4,Win32,60.98676587,Chrome,1920,1080,,,l,0.492,1,251,1,0,7,7,0,1,1,0,0,0,0,1,0,0,triangle,circle,,,,,,,,,,,,,,,,,,,,,,,,,,,,,,,,,,,,,,,,,,,,,,,,,,,,,,
297832,2022-12-05_22h56.55.775,vts_reward_expectancy_bt,2022.2.4,Win32,60.98676587,Chrome,1920,1080,,,a,0.437,10,261,1,0,8,8,8,1,0,0,1,0,0,0,0,1,hexagon,star,,,,,,,,,,,,,,,,,,,,,,,,,,,,,,,,,,,,,,,,,,,,,,,,,,,,,,
297832,2022-12-05_22h56.55.775,vts_reward_expectancy_bt,2022.2.4,Win32,60.98676587,Chrome,1920,1080,,,a,0.721,10,271,1,0,9,9,5,1,0,1,0,0,0,0,0,1,circle,star,,,,,,,,,,,,,,,,,,,,,,,,,,,,,,,,,,,,,,,,,,,,,,,,,,,,,,
297832,2022-12-05_22h56.55.775,vts_reward_expectancy_bt,2022.2.4,Win32,60.98676587,Chrome,1920,1080,,,l,0.5895,10,281,1,0,10,10,11,1,0,0,0,1,0,0,1,0,star,hexagon,,,,,,,,,,,,,,,,,,,,,,,,,,,,,,,,,,,,,,,,,,,,,,,,,,,,,,
297832,2022-12-05_22h56.55.775,vts_reward_expectancy_bt,2022.2.4,Win32,60.98676587,Chrome,1920,1080,,,a,0.4057,1,282,1,0,11,11,3,1,0,1,0,0,1,0,0,0,circle,triangle,,,,,,,,,,,,,,,,,,,,,,,,,,,,,,,,,,,,,,,,,,,,,,,,,,,,,,
297832,2022-12-05_22h56.55.775,vts_reward_expectancy_bt,2022.2.4,Win32,60.98676587,Chrome,1920,1080,,,l,0.6753,10,292,1,1,0,12,11,1,0,0,0,1,0,0,1,0,star,hexagon,,,,,,,,,,,,,,,,,,,,,,,,,,,,,,,,,,,,,,,,,,,,,,,,,,,,,,
297832,2022-12-05_22h56.55.775,vts_reward_expectancy_bt,2022.2.4,Win32,60.98676587,Chrome,1920,1080,,,a,1.3332,1,293,1,1,1,13,3,1,0,1,0,0,1,0,0,0,circle,triangle,,,,,,,,,,,,,,,,,,,,,,,,,,,,,,,,,,,,,,,,,,,,,,,,,,,,,,
297832,2022-12-05_22h56.55.775,vts_reward_expectancy_bt,2022.2.4,Win32,60.98676587,Chrome,1920,1080,,,l,3.8659,1,294,1,1,2,14,9,1,0,0,0,1,1,0,0,0,star,triangle,,,,,,,,,,,,,,,,,,,,,,,,,,,,,,,,,,,,,,,,,,,,,,,,,,,,,,
297832,2022-12-05_22h56.55.775,vts_reward_expectancy_bt,2022.2.4,Win32,60.98676587,Chrome,1920,1080,,,a,0.5835,10,304,1,1,3,15,2,1,1,0,0,0,0,0,0,1,triangle,star,,,,,,,,,,,,,,,,,,,,,,,,,,,,,,,,,,,,,,,,,,,,,,,,,,,,,,
297832,2022-12-05_22h56.55.775,vts_reward_expectancy_bt,2022.2.4,Win32,60.98676587,Chrome,1920,1080,,,a,0.56,1,305,1,1,4,16,5,1,0,1,0,0,0,0,0,1,circle,star,,,,,,,,,,,,,,,,,,,,,,,,,,,,,,,,,,,,,,,,,,,,,,,,,,,,,,
297832,2022-12-05_22h56.55.775,vts_reward_expectancy_bt,2022.2.4,Win32,60.98676587,Chrome,1920,1080,,,l,0.8195,1,306,1,1,5,17,4,1,0,1,0,0,0,0,1,0,circle,hexagon,,,,,,,,,,,,,,,,,,,,,,,,,,,,,,,,,,,,,,,,,,,,,,,,,,,,,,
297832,2022-12-05_22h56.55.775,vts_reward_expectancy_bt,2022.2.4,Win32,60.98676587,Chrome,1920,1080,,,a,0.6264,10,316,1,1,6,18,6,1,0,0,1,0,1,0,0,0,hexagon,triangle,,,,,,,,,,,,,,,,,,,,,,,,,,,,,,,,,,,,,,,,,,,,,,,,,,,,,,
297832,2022-12-05_22h56.55.775,vts_reward_expectancy_bt,2022.2.4,Win32,60.98676587,Chrome,1920,1080,,,l,0.4702,1,317,1,1,7,19,10,1,0,0,0,1,0,1,0,0,star ,circle,,,,,,,,,,,,,,,,,,,,,,,,,,,,,,,,,,,,,,,,,,,,,,,,,,,,,,
297832,2022-12-05_22h56.55.775,vts_reward_expectancy_bt,2022.2.4,Win32,60.98676587,Chrome,1920,1080,,,l,0.8144,10,327,1,1,8,20,1,1,1,0,0,0,0,0,1,0,triangle,hexagon,,,,,,,,,,,,,,,,,,,,,,,,,,,,,,,,,,,,,,,,,,,,,,,,,,,,,,
297832,2022-12-05_22h56.55.775,vts_reward_expectancy_bt,2022.2.4,Win32,60.98676587,Chrome,1920,1080,,,l,1.4213,10,337,1,1,9,21,0,1,1,0,0,0,0,1,0,0,triangle,circle,,,,,,,,,,,,,,,,,,,,,,,,,,,,,,,,,,,,,,,,,,,,,,,,,,,,,,
297832,2022-12-05_22h56.55.775,vts_reward_expectancy_bt,2022.2.4,Win32,60.98676587,Chrome,1920,1080,,,l,1.0366,1,338,1,1,10,22,7,1,0,0,1,0,0,1,0,0,hexagon,circle,,,,,,,,,,,,,,,,,,,,,,,,,,,,,,,,,,,,,,,,,,,,,,,,,,,,,,
297832,2022-12-05_22h56.55.775,vts_reward_expectancy_bt,2022.2.4,Win32,60.98676587,Chrome,1920,1080,,,a,1.3497,1,339,1,1,11,23,8,1,0,0,1,0,0,0,0,1,hexagon,star,,,,,,,,,,,,,,,,,,,,,,,,,,,,,,,,,,,,,,,,,,,,,,,,,,,,,,
297832,2022-12-05_22h56.55.775,vts_reward_expectancy_bt,2022.2.4,Win32,60.98676587,Chrome,1920,1080,,,l,0.949,1,340,1,2,0,24,10,1,0,0,0,1,0,1,0,0,star ,circle,,,,,,,,,,,,,,,,,,,,,,,,,,,,,,,,,,,,,,,,,,,,,,,,,,,,,,
297832,2022-12-05_22h56.55.775,vts_reward_expectancy_bt,2022.2.4,Win32,60.98676587,Chrome,1920,1080,,,a,0.735,1,341,1,2,1,25,1,1,1,0,0,0,0,0,1,0,triangle,hexagon,,,,,,,,,,,,,,,,,,,,,,,,,,,,,,,,,,,,,,,,,,,,,,,,,,,,,,
297832,2022-12-05_22h56.55.775,vts_reward_expectancy_bt,2022.2.4,Win32,60.98676587,Chrome,1920,1080,,,l,0.4475,10,351,1,2,2,26,4,1,0,1,0,0,0,0,1,0,circle,hexagon,,,,,,,,,,,,,,,,,,,,,,,,,,,,,,,,,,,,,,,,,,,,,,,,,,,,,,
297832,2022-12-05_22h56.55.775,vts_reward_expectancy_bt,2022.2.4,Win32,60.98676587,Chrome,1920,1080,,,a,0.505,1,352,1,2,3,27,5,1,0,1,0,0,0,0,0,1,circle,star,,,,,,,,,,,,,,,,,,,,,,,,,,,,,,,,,,,,,,,,,,,,,,,,,,,,,,
297832,2022-12-05_22h56.55.775,vts_reward_expectancy_bt,2022.2.4,Win32,60.98676587,Chrome,1920,1080,,,l,0.5006,1,353,1,2,4,28,0,1,1,0,0,0,0,1,0,0,triangle,circle,,,,,,,,,,,,,,,,,,,,,,,,,,,,,,,,,,,,,,,,,,,,,,,,,,,,,,
297832,2022-12-05_22h56.55.775,vts_reward_expectancy_bt,2022.2.4,Win32,60.98676587,Chrome,1920,1080,,,l,0.4747,10,363,1,2,5,29,11,1,0,0,0,1,0,0,1,0,star,hexagon,,,,,,,,,,,,,,,,,,,,,,,,,,,,,,,,,,,,,,,,,,,,,,,,,,,,,,
297832,2022-12-05_22h56.55.775,vts_reward_expectancy_bt,2022.2.4,Win32,60.98676587,Chrome,1920,1080,,,l,0.7217,1,364,1,2,6,30,7,1,0,0,1,0,0,1,0,0,hexagon,circle,,,,,,,,,,,,,,,,,,,,,,,,,,,,,,,,,,,,,,,,,,,,,,,,,,,,,,
297832,2022-12-05_22h56.55.775,vts_reward_expectancy_bt,2022.2.4,Win32,60.98676587,Chrome,1920,1080,,,l,0.5674,1,365,1,2,7,31,9,1,0,0,0,1,1,0,0,0,star,triangle,,,,,,,,,,,,,,,,,,,,,,,,,,,,,,,,,,,,,,,,,,,,,,,,,,,,,,
297832,2022-12-05_22h56.55.775,vts_reward_expectancy_bt,2022.2.4,Win32,60.98676587,Chrome,1920,1080,,,a,0.5391,10,375,1,2,8,32,3,1,0,1,0,0,1,0,0,0,circle,triangle,,,,,,,,,,,,,,,,,,,,,,,,,,,,,,,,,,,,,,,,,,,,,,,,,,,,,,
297832,2022-12-05_22h56.55.775,vts_reward_expectancy_bt,2022.2.4,Win32,60.98676587,Chrome,1920,1080,,,a,0.6721,1,376,1,2,9,33,8,1,0,0,1,0,0,0,0,1,hexagon,star,,,,,,,,,,,,,,,,,,,,,,,,,,,,,,,,,,,,,,,,,,,,,,,,,,,,,,
297832,2022-12-05_22h56.55.775,vts_reward_expectancy_bt,2022.2.4,Win32,60.98676587,Chrome,1920,1080,,,a,1.1083,1,377,1,2,10,34,2,1,1,0,0,0,0,0,0,1,triangle,star,,,,,,,,,,,,,,,,,,,,,,,,,,,,,,,,,,,,,,,,,,,,,,,,,,,,,,
297832,2022-12-05_22h56.55.775,vts_reward_expectancy_bt,2022.2.4,Win32,60.98676587,Chrome,1920,1080,,,l,0.3857,1,378,1,2,11,35,6,1,0,0,1,0,1,0,0,0,hexagon,triangle,,,,,,,,,,,,,,,,,,,,,,,,,,,,,,,,,,,,,,,,,,,,,,,,,,,,,,
297832,2022-12-05_22h56.55.775,vts_reward_expectancy_bt,2022.2.4,Win32,60.98676587,Chrome,1920,1080,,,a,1.4754,1,379,2,0,0,0,10,1,0,0,0,1,0,1,0,0,star ,circle,,,,,,,,,,,,,,,,,,,,,,,,,,,,,,,,,,,,,,,,,,,,,,,,,,,,,,
297832,2022-12-05_22h56.55.775,vts_reward_expectancy_bt,2022.2.4,Win32,60.98676587,Chrome,1920,1080,,,l,0.3769,10,389,2,0,1,1,0,1,1,0,0,0,0,1,0,0,triangle,circle,,,,,,,,,,,,,,,,,,,,,,,,,,,,,,,,,,,,,,,,,,,,,,,,,,,,,,
297832,2022-12-05_22h56.55.775,vts_reward_expectancy_bt,2022.2.4,Win32,60.98676587,Chrome,1920,1080,,,a,0.4548,1,390,2,0,2,2,8,1,0,0,1,0,0,0,0,1,hexagon,star,,,,,,,,,,,,,,,,,,,,,,,,,,,,,,,,,,,,,,,,,,,,,,,,,,,,,,
297832,2022-12-05_22h56.55.775,vts_reward_expectancy_bt,2022.2.4,Win32,60.98676587,Chrome,1920,1080,,,l,0.4311,1,391,2,0,3,3,9,1,0,0,0,1,1,0,0,0,star,triangle,,,,,,,,,,,,,,,,,,,,,,,,,,,,,,,,,,,,,,,,,,,,,,,,,,,,,,
297832,2022-12-05_22h56.55.775,vts_reward_expectancy_bt,2022.2.4,Win32,60.98676587,Chrome,1920,1080,,,a,0.3817,1,392,2,0,4,4,3,1,0,1,0,0,1,0,0,0,circle,triangle,,,,,,,,,,,,,,,,,,,,,,,,,,,,,,,,,,,,,,,,,,,,,,,,,,,,,,
297832,2022-12-05_22h56.55.775,vts_reward_expectancy_bt,2022.2.4,Win32,60.98676587,Chrome,1920,1080,,,l,0.3172,10,402,2,0,5,5,2,1,1,0,0,0,0,0,0,1,triangle,star,,,,,,,,,,,,,,,,,,,,,,,,,,,,,,,,,,,,,,,,,,,,,,,,,,,,,,
297832,2022-12-05_22h56.55.775,vts_reward_expectancy_bt,2022.2.4,Win32,60.98676587,Chrome,1920,1080,,,l,0.3318,10,412,2,0,6,6,6,1,0,0,1,0,1,0,0,0,hexagon,triangle,,,,,,,,,,,,,,,,,,,,,,,,,,,,,,,,,,,,,,,,,,,,,,,,,,,,,,
297832,2022-12-05_22h56.55.775,vts_reward_expectancy_bt,2022.2.4,Win32,60.98676587,Chrome,1920,1080,,,a,0.5717,10,422,2,0,7,7,5,1,0,1,0,0,0,0,0,1,circle,star,,,,,,,,,,,,,,,,,,,,,,,,,,,,,,,,,,,,,,,,,,,,,,,,,,,,,,
297832,2022-12-05_22h56.55.775,vts_reward_expectancy_bt,2022.2.4,Win32,60.98676587,Chrome,1920,1080,,,l,0.798,1,423,2,0,8,8,7,1,0,0,1,0,0,1,0,0,hexagon,circle,,,,,,,,,,,,,,,,,,,,,,,,,,,,,,,,,,,,,,,,,,,,,,,,,,,,,,
297832,2022-12-05_22h56.55.775,vts_reward_expectancy_bt,2022.2.4,Win32,60.98676587,Chrome,1920,1080,,,l,0.7658,10,433,2,0,9,9,11,1,0,0,0,1,0,0,1,0,star,hexagon,,,,,,,,,,,,,,,,,,,,,,,,,,,,,,,,,,,,,,,,,,,,,,,,,,,,,,
297832,2022-12-05_22h56.55.775,vts_reward_expectancy_bt,2022.2.4,Win32,60.98676587,Chrome,1920,1080,,,l,2.2327,10,443,2,0,10,10,4,1,0,1,0,0,0,0,1,0,circle,hexagon,,,,,,,,,,,,,,,,,,,,,,,,,,,,,,,,,,,,,,,,,,,,,,,,,,,,,,
297832,2022-12-05_22h56.55.775,vts_reward_expectancy_bt,2022.2.4,Win32,60.98676587,Chrome,1920,1080,,,a,0.3472,1,444,2,0,11,11,1,1,1,0,0,0,0,0,1,0,triangle,hexagon,,,,,,,,,,,,,,,,,,,,,,,,,,,,,,,,,,,,,,,,,,,,,,,,,,,,,,
297832,2022-12-05_22h56.55.775,vts_reward_expectancy_bt,2022.2.4,Win32,60.98676587,Chrome,1920,1080,,,l,0.8325,1,445,2,1,0,12,2,1,1,0,0,0,0,0,0,1,triangle,star,,,,,,,,,,,,,,,,,,,,,,,,,,,,,,,,,,,,,,,,,,,,,,,,,,,,,,
297832,2022-12-05_22h56.55.775,vts_reward_expectancy_bt,2022.2.4,Win32,60.98676587,Chrome,1920,1080,,,l,0.9193,1,446,2,1,1,13,1,1,1,0,0,0,0,0,1,0,triangle,hexagon,,,,,,,,,,,,,,,,,,,,,,,,,,,,,,,,,,,,,,,,,,,,,,,,,,,,,,
297832,2022-12-05_22h56.55.775,vts_reward_expectancy_bt,2022.2.4,Win32,60.98676587,Chrome,1920,1080,,,l,4.9881,1,447,2,1,2,14,5,1,0,1,0,0,0,0,0,1,circle,star,,,,,,,,,,,,,,,,,,,,,,,,,,,,,,,,,,,,,,,,,,,,,,,,,,,,,,
297832,2022-12-05_22h56.55.775,vts_reward_expectancy_bt,2022.2.4,Win32,60.98676587,Chrome,1920,1080,,,l,1.1981,1,448,2,1,3,15,10,1,0,0,0,1,0,1,0,0,star ,circle,,,,,,,,,,,,,,,,,,,,,,,,,,,,,,,,,,,,,,,,,,,,,,,,,,,,,,
297832,2022-12-05_22h56.55.775,vts_reward_expectancy_bt,2022.2.4,Win32,60.98676587,Chrome,1920,1080,,,a,5.0174,1,449,2,1,4,16,8,1,0,0,1,0,0,0,0,1,hexagon,star,,,,,,,,,,,,,,,,,,,,,,,,,,,,,,,,,,,,,,,,,,,,,,,,,,,,,,
297832,2022-12-05_22h56.55.775,vts_reward_expectancy_bt,2022.2.4,Win32,60.98676587,Chrome,1920,1080,,,l,0.4127,10,459,2,1,5,17,9,1,0,0,0,1,1,0,0,0,star,triangle,,,,,,,,,,,,,,,,,,,,,,,,,,,,,,,,,,,,,,,,,,,,,,,,,,,,,,
297832,2022-12-05_22h56.55.775,vts_reward_expectancy_bt,2022.2.4,Win32,60.98676587,Chrome,1920,1080,,,l,0.5016,1,460,2,1,6,18,11,1,0,0,0,1,0,0,1,0,star,hexagon,,,,,,,,,,,,,,,,,,,,,,,,,,,,,,,,,,,,,,,,,,,,,,,,,,,,,,
297832,2022-12-05_22h56.55.775,vts_reward_expectancy_bt,2022.2.4,Win32,60.98676587,Chrome,1920,1080,,,a,0.4988,1,461,2,1,7,19,6,1,0,0,1,0,1,0,0,0,hexagon,triangle,,,,,,,,,,,,,,,,,,,,,,,,,,,,,,,,,,,,,,,,,,,,,,,,,,,,,,
297832,2022-12-05_22h56.55.775,vts_reward_expectancy_bt,2022.2.4,Win32,60.98676587,Chrome,1920,1080,,,l,0.57,1,462,2,1,8,20,7,1,0,0,1,0,0,1,0,0,hexagon,circle,,,,,,,,,,,,,,,,,,,,,,,,,,,,,,,,,,,,,,,,,,,,,,,,,,,,,,
297832,2022-12-05_22h56.55.775,vts_reward_expectancy_bt,2022.2.4,Win32,60.98676587,Chrome,1920,1080,,,a,0.6563,10,472,2,1,9,21,3,1,0,1,0,0,1,0,0,0,circle,triangle,,,,,,,,,,,,,,,,,,,,,,,,,,,,,,,,,,,,,,,,,,,,,,,,,,,,,,
297832,2022-12-05_22h56.55.775,vts_reward_expectancy_bt,2022.2.4,Win32,60.98676587,Chrome,1920,1080,,,l,0.4803,1,473,2,1,10,22,0,1,1,0,0,0,0,1,0,0,triangle,circle,,,,,,,,,,,,,,,,,,,,,,,,,,,,,,,,,,,,,,,,,,,,,,,,,,,,,,
297832,2022-12-05_22h56.55.775,vts_reward_expectancy_bt,2022.2.4,Win32,60.98676587,Chrome,1920,1080,,,a,0.4509,1,474,2,1,11,23,4,1,0,1,0,0,0,0,1,0,circle,hexagon,,,,,,,,,,,,,,,,,,,,,,,,,,,,,,,,,,,,,,,,,,,,,,,,,,,,,,
297832,2022-12-05_22h56.55.775,vts_reward_expectancy_bt,2022.2.4,Win32,60.98676587,Chrome,1920,1080,,,l,0.3752,1,475,2,2,0,24,10,1,0,0,0,1,0,1,0,0,star ,circle,,,,,,,,,,,,,,,,,,,,,,,,,,,,,,,,,,,,,,,,,,,,,,,,,,,,,,
297832,2022-12-05_22h56.55.775,vts_reward_expectancy_bt,2022.2.4,Win32,60.98676587,Chrome,1920,1080,,,a,0.4057,1,476,2,2,1,25,9,1,0,0,0,1,1,0,0,0,star,triangle,,,,,,,,,,,,,,,,,,,,,,,,,,,,,,,,,,,,,,,,,,,,,,,,,,,,,,
297832,2022-12-05_22h56.55.775,vts_reward_expectancy_bt,2022.2.4,Win32,60.98676587,Chrome,1920,1080,,,l,0.4152,1,477,2,2,2,26,6,1,0,0,1,0,1,0,0,0,hexagon,triangle,,,,,,,,,,,,,,,,,,,,,,,,,,,,,,,,,,,,,,,,,,,,,,,,,,,,,,
297832,2022-12-05_22h56.55.775,vts_reward_expectancy_bt,2022.2.4,Win32,60.98676587,Chrome,1920,1080,,,a,0.5907,1,478,2,2,3,27,3,1,0,1,0,0,1,0,0,0,circle,triangle,,,,,,,,,,,,,,,,,,,,,,,,,,,,,,,,,,,,,,,,,,,,,,,,,,,,,,
297832,2022-12-05_22h56.55.775,vts_reward_expectancy_bt,2022.2.4,Win32,60.98676587,Chrome,1920,1080,,,a,0.3079,1,479,2,2,4,28,5,1,0,1,0,0,0,0,0,1,circle,star,,,,,,,,,,,,,,,,,,,,,,,,,,,,,,,,,,,,,,,,,,,,,,,,,,,,,,
297832,2022-12-05_22h56.55.775,vts_reward_expectancy_bt,2022.2.4,Win32,60.98676587,Chrome,1920,1080,,,l,0.325,1,480,2,2,5,29,7,1,0,0,1,0,0,1,0,0,hexagon,circle,,,,,,,,,,,,,,,,,,,,,,,,,,,,,,,,,,,,,,,,,,,,,,,,,,,,,,
297832,2022-12-05_22h56.55.775,vts_reward_expectancy_bt,2022.2.4,Win32,60.98676587,Chrome,1920,1080,,,a,0.2819,10,490,2,2,6,30,0,1,1,0,0,0,0,1,0,0,triangle,circle,,,,,,,,,,,,,,,,,,,,,,,,,,,,,,,,,,,,,,,,,,,,,,,,,,,,,,
297832,2022-12-05_22h56.55.775,vts_reward_expectancy_bt,2022.2.4,Win32,60.98676587,Chrome,1920,1080,,,a,0.8687,10,500,2,2,7,31,1,1,1,0,0,0,0,0,1,0,triangle,hexagon,,,,,,,,,,,,,,,,,,,,,,,,,,,,,,,,,,,,,,,,,,,,,,,,,,,,,,
297832,2022-12-05_22h56.55.775,vts_reward_expectancy_bt,2022.2.4,Win32,60.98676587,Chrome,1920,1080,,,a,0.9154,10,510,2,2,8,32,4,1,0,1,0,0,0,0,1,0,circle,hexagon,,,,,,,,,,,,,,,,,,,,,,,,,,,,,,,,,,,,,,,,,,,,,,,,,,,,,,
297832,2022-12-05_22h56.55.775,vts_reward_expectancy_bt,2022.2.4,Win32,60.98676587,Chrome,1920,1080,,,l,0.7321,10,520,2,2,9,33,11,1,0,0,0,1,0,0,1,0,star,hexagon,,,,,,,,,,,,,,,,,,,,,,,,,,,,,,,,,,,,,,,,,,,,,,,,,,,,,,
297832,2022-12-05_22h56.55.775,vts_reward_expectancy_bt,2022.2.4,Win32,60.98676587,Chrome,1920,1080,,,a,0.6454,10,530,2,2,10,34,2,1,1,0,0,0,0,0,0,1,triangle,star,,,,,,,,,,,,,,,,,,,,,,,,,,,,,,,,,,,,,,,,,,,,,,,,,,,,,,
297832,2022-12-05_22h56.55.775,vts_reward_expectancy_bt,2022.2.4,Win32,60.98676587,Chrome,1920,1080,,,l,0.4746,10,540,2,2,11,35,8,1,0,0,1,0,0,0,0,1,hexagon,star,,,,,,,,,,,,,,,,,,,,,,,,,,,,,,,,,,,,,,,,,,,,,,,,,,,,,,
297832,2022-12-05_22h56.55.775,vts_reward_expectancy_bt,2022.2.4,Win32,60.98676587,Chrome,1920,1080,,,,,,,,,,,,,,,,,,,,,,,W,167,triangle,1,0,f,1.5887,0,0,0,0,0,1,,,,,,,,,,,,,,,,,,,,,,,,,,,,,,,,,,,,,,,,,
297832,2022-12-05_22h56.55.775,vts_reward_expectancy_bt,2022.2.4,Win32,60.98676587,Chrome,1920,1080,,,,,,,,,,,,,,,,,,,,,,,F,181,hexagon,1,0,d,0.943,0,1,0,1,0,1,,,,,,,,,,,,,,,,,,,,,,,,,,,,,,,,,,,,,,,,,
297832,2022-12-05_22h56.55.775,vts_reward_expectancy_bt,2022.2.4,Win32,60.98676587,Chrome,1920,1080,,,,,,,,,,,,,,,,,,,,,,,Y,125,circle,1,0,f,0.7405,0,2,0,2,0,1,,,,,,,,,,,,,,,,,,,,,,,,,,,,,,,,,,,,,,,,,
297832,2022-12-05_22h56.55.775,vts_reward_expectancy_bt,2022.2.4,Win32,60.98676587,Chrome,1920,1080,,,,,,,,,,,,,,,,,,,,,,,D,146,star,1,0,d,0.7852,0,3,0,3,0,1,,,,,,,,,,,,,,,,,,,,,,,,,,,,,,,,,,,,,,,,,
297832,2022-12-05_22h56.55.775,vts_reward_expectancy_bt,2022.2.4,Win32,60.98676587,Chrome,1920,1080,,,,,,,,,,,,,,,,,,,,,,,U,174,triangle,1,0,f,1.1826,0,4,0,4,0,1,,,,,,,,,,,,,,,,,,,,,,,,,,,,,,,,,,,,,,,,,
297832,2022-12-05_22h56.55.775,vts_reward_expectancy_bt,2022.2.4,Win32,60.98676587,Chrome,1920,1080,,,,,,,,,,,,,,,,,,,,,,,H,160,hexagon,1,0,d,0.7436,0,5,0,5,0,1,,,,,,,,,,,,,,,,,,,,,,,,,,,,,,,,,,,,,,,,,
297832,2022-12-05_22h56.55.775,vts_reward_expectancy_bt,2022.2.4,Win32,60.98676587,Chrome,1920,1080,,,,,,,,,,,,,,,,,,,,,,,S,139,circle,1,0,f,0.7892,0,6,0,6,0,1,,,,,,,,,,,,,,,,,,,,,,,,,,,,,,,,,,,,,,,,,
297832,2022-12-05_22h56.55.775,vts_reward_expectancy_bt,2022.2.4,Win32,60.98676587,Chrome,1920,1080,,,,,,,,,,,,,,,,,,,,,,,B,132,star,1,0,d,1.1684,0,7,0,7,0,1,,,,,,,,,,,,,,,,,,,,,,,,,,,,,,,,,,,,,,,,,
297832,2022-12-05_22h56.55.775,vts_reward_expectancy_bt,2022.2.4,Win32,60.98676587,Chrome,1920,1080,,,,,,,,,,,,,,,,,,,,,,,W,167,circle,1,0,f,1.2436,0,8,0,8,0,1,,,,,,,,,,,,,,,,,,,,,,,,,,,,,,,,,,,,,,,,,
297832,2022-12-05_22h56.55.775,vts_reward_expectancy_bt,2022.2.4,Win32,60.98676587,Chrome,1920,1080,,,,,,,,,,,,,,,,,,,,,,,F,181,triangle,1,0,d,0.6322,0,9,0,9,0,1,,,,,,,,,,,,,,,,,,,,,,,,,,,,,,,,,,,,,,,,,
297832,2022-12-05_22h56.55.775,vts_reward_expectancy_bt,2022.2.4,Win32,60.98676587,Chrome,1920,1080,,,,,,,,,,,,,,,,,,,,,,,D,146,star,1,0,,,1,,,,,,j,2.3692,0,0,0,0,1,,,,,,,,,,,,,,,,,,,,,,,,,,,,,,,,,,
297832,2022-12-05_22h56.55.775,vts_reward_expectancy_bt,2022.2.4,Win32,60.98676587,Chrome,1920,1080,,,,,,,,,,,,,,,,,,,,,,,F,132,hexagon,1,0,,,1,,,,,,j,0.7914,1,0,1,0,1,,,,,,,,,,,,,,,,,,,,,,,,,,,,,,,,,,
297832,2022-12-05_22h56.55.775,vts_reward_expectancy_bt,2022.2.4,Win32,60.98676587,Chrome,1920,1080,,,,,,,,,,,,,,,,,,,,,,,U,160,triangle,1,0,,,1,,,,,,k,0.5489,2,0,2,0,1,,,,,,,,,,,,,,,,,,,,,,,,,,,,,,,,,,
297832,2022-12-05_22h56.55.775,vts_reward_expectancy_bt,2022.2.4,Win32,60.98676587,Chrome,1920,1080,,,,,,,,,,,,,,,,,,,,,,,H,125,circle,1,0,,,1,,,,,,j,0.5987,3,0,3,0,1,,,,,,,,,,,,,,,,,,,,,,,,,,,,,,,,,,
297832,2022-12-05_22h56.55.775,vts_reward_expectancy_bt,2022.2.4,Win32,60.98676587,Chrome,1920,1080,,,,,,,,,,,,,,,,,,,,,,,W,174,star,1,0,,,1,,,,,,k,0.6018,4,0,4,0,1,,,,,,,,,,,,,,,,,,,,,,,,,,,,,,,,,,
297832,2022-12-05_22h56.55.775,vts_reward_expectancy_bt,2022.2.4,Win32,60.98676587,Chrome,1920,1080,,,,,,,,,,,,,,,,,,,,,,,S,139,hexagon,1,0,,,1,,,,,,j,1.2446,5,0,5,0,1,,,,,,,,,,,,,,,,,,,,,,,,,,,,,,,,,,
297832,2022-12-05_22h56.55.775,vts_reward_expectancy_bt,2022.2.4,Win32,60.98676587,Chrome,1920,1080,,,,,,,,,,,,,,,,,,,,,,,Y,167,triangle,1,0,,,1,,,,,,k,0.6655,6,0,6,0,1,,,,,,,,,,,,,,,,,,,,,,,,,,,,,,,,,,
297832,2022-12-05_22h56.55.775,vts_reward_expectancy_bt,2022.2.4,Win32,60.98676587,Chrome,1920,1080,,,,,,,,,,,,,,,,,,,,,,,B,181,circle,1,0,,,1,,,,,,k,1.1253,7,0,7,0,1,,,,,,,,,,,,,,,,,,,,,,,,,,,,,,,,,,
297832,2022-12-05_22h56.55.775,vts_reward_expectancy_bt,2022.2.4,Win32,60.98676587,Chrome,1920,1080,,,,,,,,,,,,,,,,,,,,,,,D,146,circle,1,0,,,1,,,,,,j,1.0429,8,0,8,0,1,,,,,,,,,,,,,,,,,,,,,,,,,,,,,,,,,,
297832,2022-12-05_22h56.55.775,vts_reward_expectancy_bt,2022.2.4,Win32,60.98676587,Chrome,1920,1080,,,,,,,,,,,,,,,,,,,,,,,F,132,star,1,0,,,1,,,,,,j,0.6756,9,0,9,0,1,,,,,,,,,,,,,,,,,,,,,,,,,,,,,,,,,,
297832,2022-12-05_22h56.55.775,vts_reward_expectancy_bt,2022.2.4,Win32,60.98676587,Chrome,1920,1080,,,,,0,540,,,,,,,,,,,,,,,,,F,167,star,1,0,,,2,,,,,,,,,,,,,-1,number,NA,k,1.0718,vtsPrac,0,0,0,0,1,,,,,,,,,,,,,,,,,,,,,,,
297832,2022-12-05_22h56.55.775,vts_reward_expectancy_bt,2022.2.4,Win32,60.98676587,Chrome,1920,1080,,,,,0,540,,,,,,,,,,,,,,,,,Y,132,triangle,1,0,,,2,,,,,,,,,,,,,repeat,number,numRpt,j,0.7549,vtsPrac,1,0,1,0,1,,,,,,,,,,,,,,,,,,,,,,,
297832,2022-12-05_22h56.55.775,vts_reward_expectancy_bt,2022.2.4,Win32,60.98676587,Chrome,1920,1080,,,,,0,540,,,,,,,,,,,,,,,,,W,160,star,1,0,,,2,,,,,,,,,,,,,repeat,number,numRpt,k,1.4721,vtsPrac,2,0,2,0,1,,,,,,,,,,,,,,,,,,,,,,,
297832,2022-12-05_22h56.55.775,vts_reward_expectancy_bt,2022.2.4,Win32,60.98676587,Chrome,1920,1080,,,,,0,540,,,,,,,,,,,,,,,,,D,174,triangle,1,0,,,2,,,,,,,,,,,,,repeat,number,numRpt,k,2.3841,vtsPrac,3,0,3,0,1,,,,,,,,,,,,,,,,,,,,,,,
297832,2022-12-05_22h56.55.775,vts_reward_expectancy_bt,2022.2.4,Win32,60.98676587,Chrome,1920,1080,,,,,0,540,,,,,,,,,,,,,,,,,F,167,hexagon,0,0,,,2,,,,,,,,,,,,,repeat,number,NA,j,1.0826,vtsPrac,4,0,4,0,1,,,,,,,,,,,,,,,,,,,,,,,
297832,2022-12-05_22h56.55.775,vts_reward_expectancy_bt,2022.2.4,Win32,60.98676587,Chrome,1920,1080,,,,,0,540,,,,,,,,,,,,,,,,,Y,132,star,1,1,,,2,,,,,,,,,,,,,repeat,number,numRpt,j,0.8549,vtsPrac,5,0,5,0,1,,,,,,,,,,,,,,,,,,,,,,,
297832,2022-12-05_22h56.55.775,vts_reward_expectancy_bt,2022.2.4,Win32,60.98676587,Chrome,1920,1080,,,,,0,540,,,,,,,,,,,,,,,,,W,160,circle,1,0,,,2,,,,,,,,,,,,,repeat,number,numRpt,k,1.1038,vtsPrac,6,0,6,0,1,,,,,,,,,,,,,,,,,,,,,,,
297832,2022-12-05_22h56.55.775,vts_reward_expectancy_bt,2022.2.4,Win32,60.98676587,Chrome,1920,1080,,,,,0,540,,,,,,,,,,,,,,,,,D,174,star,1,0,,,2,,,,,,,,,,,,,repeat,number,numRpt,k,0.8937,vtsPrac,7,0,7,0,1,,,,,,,,,,,,,,,,,,,,,,,
297832,2022-12-05_22h56.55.775,vts_reward_expectancy_bt,2022.2.4,Win32,60.98676587,Chrome,1920,1080,,,,,0,540,,,,,,,,,,,,,,,,,B,132,star,1,0,,,2,,,,,,,,,,,,,repeat,number,numRpt,j,0.8051,vtsPrac,8,0,8,0,1,,,,,,,,,,,,,,,,,,,,,,,
297832,2022-12-05_22h56.55.775,vts_reward_expectancy_bt,2022.2.4,Win32,60.98676587,Chrome,1920,1080,,,,,0,540,,,,,,,,,,,,,,,,,Y,139,circle,1,0,,,2,,,,,,,,,,,,,repeat,number,numRpt,j,1.316,vtsPrac,9,0,9,0,1,,,,,,,,,,,,,,,,,,,,,,,
297832,2022-12-05_22h56.55.775,vts_reward_expectancy_bt,2022.2.4,Win32,60.98676587,Chrome,1920,1080,,,,,0,540,,,,,,,,,,,,,,,,,U,146,triangle,1,0,,,2,,,,,,,,,,,,,repeat,number,numRpt,j,0.917,vtsPrac,10,0,10,0,1,,,,,,,,,,,,,,,,,,,,,,,
297832,2022-12-05_22h56.55.775,vts_reward_expectancy_bt,2022.2.4,Win32,60.98676587,Chrome,1920,1080,,,,,0,540,,,,,,,,,,,,,,,,,F,167,star,1,0,,,2,,,,,,,,,,,,,repeat,number,numRpt,k,1.0349,vtsPrac,11,0,11,0,1,,,,,,,,,,,,,,,,,,,,,,,
297832,2022-12-05_22h56.55.775,vts_reward_expectancy_bt,2022.2.4,Win32,60.98676587,Chrome,1920,1080,,,,,0,540,,,,,,,,,,,,,,,,,D,146,star,1,0,,,2,,,,,,,,,,,,,repeat,number,numRpt,j,0.7655,vtsPrac,12,0,12,0,1,,,,,,,,,,,,,,,,,,,,,,,
297832,2022-12-05_22h56.55.775,vts_reward_expectancy_bt,2022.2.4,Win32,60.98676587,Chrome,1920,1080,,,,,0,540,,,,,,,,,,,,,,,,,U,125,hexagon,1,0,,,2,,,,,,,,,,,,,repeat,number,numRpt,j,0.759,vtsPrac,13,0,13,0,1,,,,,,,,,,,,,,,,,,,,,,,
297832,2022-12-05_22h56.55.775,vts_reward_expectancy_bt,2022.2.4,Win32,60.98676587,Chrome,1920,1080,,,,,0,540,,,,,,,,,,,,,,,,,F,160,hexagon,1,0,,,2,,,,,,,,,,,,,repeat,number,numRpt,k,0.8846,vtsPrac,14,0,14,0,1,,,,,,,,,,,,,,,,,,,,,,,
297832,2022-12-05_22h56.55.775,vts_reward_expectancy_bt,2022.2.4,Win32,60.98676587,Chrome,1920,1080,,,,,0,540,,,,,,,,,,,,,,,,,Y,167,star,1,0,,,2,,,,,,,,,,,,,repeat,number,numRpt,k,0.699,vtsPrac,15,0,15,0,1,,,,,,,,,,,,,,,,,,,,,,,
297832,2022-12-05_22h56.55.775,vts_reward_expectancy_bt,2022.2.4,Win32,60.98676587,Chrome,1920,1080,,,,,0,540,,,,,,,,,,,,,,,,,H,160,hexagon,1,0,,,2,,,,,,,,,,,,,repeat,number,numRpt,k,1.1491,vtsPrac,16,0,16,0,1,,,,,,,,,,,,,,,,,,,,,,,
297832,2022-12-05_22h56.55.775,vts_reward_expectancy_bt,2022.2.4,Win32,60.98676587,Chrome,1920,1080,,,,,0,540,,,,,,,,,,,,,,,,,U,174,triangle,1,0,,,2,,,,,,,,,,,,,repeat,number,numRpt,k,0.7574,vtsPrac,17,0,17,0,1,,,,,,,,,,,,,,,,,,,,,,,
297832,2022-12-05_22h56.55.775,vts_reward_expectancy_bt,2022.2.4,Win32,60.98676587,Chrome,1920,1080,,,,,0,540,,,,,,,,,,,,,,,,,B,146,star,1,0,,,2,,,,,,,,,,,,,repeat,number,numRpt,j,1.5387,vtsPrac,18,0,18,0,1,,,,,,,,,,,,,,,,,,,,,,,
297832,2022-12-05_22h56.55.775,vts_reward_expectancy_bt,2022.2.4,Win32,60.98676587,Chrome,1920,1080,,,,,0,540,,,,,,,,,,,,,,,,,S,167,triangle,1,0,,,2,,,,,,,,,,,,,repeat,number,numRpt,k,1.3587,vtsPrac,19,0,19,0,1,,,,,,,,,,,,,,,,,,,,,,,
297832,2022-12-05_22h56.55.775,vts_reward_expectancy_bt,2022.2.4,Win32,60.98676587,Chrome,1920,1080,,,,,0,540,,,,,,,,,,,,,,,,,B,167,triangle,0,0,,,2,,,,,,,,,,,,,repeat,number,NA,j,1.0585,vtsPrac,20,0,20,0,1,,,,,,,,,,,,,,,,,,,,,,,
297832,2022-12-05_22h56.55.775,vts_reward_expectancy_bt,2022.2.4,Win32,60.98676587,Chrome,1920,1080,,,,,0,540,,,,,,,,,,,,,,,,,W,181,star,1,1,,,2,,,,,,,,,,,,,repeat,number,numRpt,k,0.8996,vtsPrac,21,0,21,0,1,,,,,,,,,,,,,,,,,,,,,,,
297832,2022-12-05_22h56.55.775,vts_reward_expectancy_bt,2022.2.4,Win32,60.98676587,Chrome,1920,1080,,,,,0,540,,,,,,,,,,,,,,,,,Y,125,triangle,1,0,,,2,,,,,,,,,,,,,repeat,number,numRpt,j,1.1777,vtsPrac,22,0,22,0,1,,,,,,,,,,,,,,,,,,,,,,,
297832,2022-12-05_22h56.55.775,vts_reward_expectancy_bt,2022.2.4,Win32,60.98676587,Chrome,1920,1080,,,,,0,540,,,,,,,,,,,,,,,,,D,132,star,1,0,,,2,,,,,,,,,,,,,repeat,number,numRpt,j,1.1409,vtsPrac,23,0,23,0,1,,,,,,,,,,,,,,,,,,,,,,,
297832,2022-12-05_22h56.55.775,vts_reward_expectancy_bt,2022.2.4,Win32,60.98676587,Chrome,1920,1080,,,,,0,540,,,,,,,,,,,,,,,,,D,139,circle,-1,0,,,2,,,,,,,,,,,,,switch,no_choice,NA,,,vtsPrac,24,0,24,0,1,,,,,,,,,,,,,,,,,,,,,,,
297832,2022-12-05_22h56.55.775,vts_reward_expectancy_bt,2022.2.4,Win32,60.98676587,Chrome,1920,1080,,,,,0,540,,,,,,,,,,,,,,,,,S,167,star,1,0,,,2,,,,,,,,,,,,,switch,number,numSwt,k,0.9513,vtsPrac,25,0,25,0,1,,,,,,,,,,,,,,,,,,,,,,,
297832,2022-12-05_22h56.55.775,vts_reward_expectancy_bt,2022.2.4,Win32,60.98676587,Chrome,1920,1080,,,,,0,540,,,,,,,,,,,,,,,,,H,174,circle,1,0,,,2,,,,,,,,,,,,,repeat,number,numRpt,k,1.256,vtsPrac,26,0,26,0,1,,,,,,,,,,,,,,,,,,,,,,,
297832,2022-12-05_22h56.55.775,vts_reward_expectancy_bt,2022.2.4,Win32,60.98676587,Chrome,1920,1080,,,,,0,540,,,,,,,,,,,,,,,,,F,160,star,1,0,,,2,,,,,,,,,,,,,repeat,number,numRpt,k,1.9357,vtsPrac,27,0,27,0,1,,,,,,,,,,,,,,,,,,,,,,,
297832,2022-12-05_22h56.55.775,vts_reward_expectancy_bt,2022.2.4,Win32,60.98676587,Chrome,1920,1080,,,,,0,540,,,,,,,,,,,,,,,,,F,174,hexagon,1,0,,,2,,,,,,,,,,,,,repeat,number,numRpt,k,1.1495,vtsPrac,28,0,28,0,1,,,,,,,,,,,,,,,,,,,,,,,
297832,2022-12-05_22h56.55.775,vts_reward_expectancy_bt,2022.2.4,Win32,60.98676587,Chrome,1920,1080,,,,,0,540,,,,,,,,,,,,,,,,,S,167,triangle,1,0,,,2,,,,,,,,,,,,,repeat,number,numRpt,k,0.7323,vtsPrac,29,0,29,0,1,,,,,,,,,,,,,,,,,,,,,,,
297832,2022-12-05_22h56.55.775,vts_reward_expectancy_bt,2022.2.4,Win32,60.98676587,Chrome,1920,1080,,,,,0,540,,,,,,,,,,,,,,,,,Y,181,star,1,0,,,2,,,,,,,,,,,,,repeat,number,numRpt,k,1.1735,vtsPrac,30,0,30,0,1,,,,,,,,,,,,,,,,,,,,,,,
297832,2022-12-05_22h56.55.775,vts_reward_expectancy_bt,2022.2.4,Win32,60.98676587,Chrome,1920,1080,,,,,0,540,,,,,,,,,,,,,,,,,B,125,circle,1,0,,,2,,,,,,,,,,,,,repeat,number,numRpt,j,1.1685,vtsPrac,31,0,31,0,1,,,,,,,,,,,,,,,,,,,,,,,
297832,2022-12-05_22h56.55.775,vts_reward_expectancy_bt,2022.2.4,Win32,60.98676587,Chrome,1920,1080,,,,,0,540,,,,,,,,,,,,,,,,,U,167,star,1,0,,,3,,,,,,,,,,,,,repeat,number,numRpt,k,1.5682,vtsPrac,0,0,0,0,1,,,,,,,,,,,,,,,,,,,,,,,
297832,2022-12-05_22h56.55.775,vts_reward_expectancy_bt,2022.2.4,Win32,60.98676587,Chrome,1920,1080,,,,,0,540,,,,,,,,,,,,,,,,,F,146,hexagon,1,0,,,3,,,,,,,,,,,,,repeat,number,numRpt,j,1.8363,vtsPrac,1,0,1,0,1,,,,,,,,,,,,,,,,,,,,,,,
297832,2022-12-05_22h56.55.775,vts_reward_expectancy_bt,2022.2.4,Win32,60.98676587,Chrome,1920,1080,,,,,0,540,,,,,,,,,,,,,,,,,B,181,star,1,0,,,3,,,,,,,,,,,,,repeat,number,numRpt,k,0.7657,vtsPrac,2,0,2,0,1,,,,,,,,,,,,,,,,,,,,,,,
297832,2022-12-05_22h56.55.775,vts_reward_expectancy_bt,2022.2.4,Win32,60.98676587,Chrome,1920,1080,,,,,0,540,,,,,,,,,,,,,,,,,H,132,hexagon,1,0,,,3,,,,,,,,,,,,,repeat,number,numRpt,j,0.9996,vtsPrac,3,0,3,0,1,,,,,,,,,,,,,,,,,,,,,,,
297832,2022-12-05_22h56.55.775,vts_reward_expectancy_bt,2022.2.4,Win32,60.98676587,Chrome,1920,1080,,,,,0,540,,,,,,,,,,,,,,,,,U,167,circle,1,0,,,3,,,,,,,,,,,,,repeat,number,numRpt,k,0.7822,vtsPrac,4,0,4,0,1,,,,,,,,,,,,,,,,,,,,,,,
297832,2022-12-05_22h56.55.775,vts_reward_expectancy_bt,2022.2.4,Win32,60.98676587,Chrome,1920,1080,,,,,0,540,,,,,,,,,,,,,,,,,F,146,triangle,1,0,,,3,,,,,,,,,,,,,repeat,number,numRpt,j,2.086,vtsPrac,5,0,5,0,1,,,,,,,,,,,,,,,,,,,,,,,
297832,2022-12-05_22h56.55.775,vts_reward_expectancy_bt,2022.2.4,Win32,60.98676587,Chrome,1920,1080,,,,,0,540,,,,,,,,,,,,,,,,,B,181,triangle,1,0,,,3,,,,,,,,,,,,,repeat,number,numRpt,k,0.7156,vtsPrac,6,0,6,0,1,,,,,,,,,,,,,,,,,,,,,,,
297832,2022-12-05_22h56.55.775,vts_reward_expectancy_bt,2022.2.4,Win32,60.98676587,Chrome,1920,1080,,,,,0,540,,,,,,,,,,,,,,,,,H,132,star,1,0,,,3,,,,,,,,,,,,,repeat,number,numRpt,j,0.6491,vtsPrac,7,0,7,0,1,,,,,,,,,,,,,,,,,,,,,,,
297832,2022-12-05_22h56.55.775,vts_reward_expectancy_bt,2022.2.4,Win32,60.98676587,Chrome,1920,1080,,,,,0,540,,,,,,,,,,,,,,,,,S,146,triangle,1,0,,,3,,,,,,,,,,,,,repeat,number,numRpt,j,0.8416,vtsPrac,8,0,8,0,1,,,,,,,,,,,,,,,,,,,,,,,
297832,2022-12-05_22h56.55.775,vts_reward_expectancy_bt,2022.2.4,Win32,60.98676587,Chrome,1920,1080,,,,,0,540,,,,,,,,,,,,,,,,,Y,139,circle,1,0,,,3,,,,,,,,,,,,,repeat,number,numRpt,j,0.6749,vtsPrac,9,0,9,0,1,,,,,,,,,,,,,,,,,,,,,,,
297832,2022-12-05_22h56.55.775,vts_reward_expectancy_bt,2022.2.4,Win32,60.98676587,Chrome,1920,1080,,,,,0,540,,,,,,,,,,,,,,,,,U,125,hexagon,1,0,,,3,,,,,,,,,,,,,repeat,number,numRpt,j,0.7231,vtsPrac,10,0,10,0,1,,,,,,,,,,,,,,,,,,,,,,,
297832,2022-12-05_22h56.55.775,vts_reward_expectancy_bt,2022.2.4,Win32,60.98676587,Chrome,1920,1080,,,,,0,540,,,,,,,,,,,,,,,,,H,132,star,1,0,,,3,,,,,,,,,,,,,repeat,number,numRpt,j,1.2015,vtsPrac,11,0,11,0,1,,,,,,,,,,,,,,,,,,,,,,,
297832,2022-12-05_22h56.55.775,vts_reward_expectancy_bt,2022.2.4,Win32,60.98676587,Chrome,1920,1080,,,,,0,540,,,,,,,,,,,,,,,,,H,181,star,1,0,,,3,,,,,,,,,,,,,repeat,number,numRpt,k,0.9865,vtsPrac,12,0,12,0,1,,,,,,,,,,,,,,,,,,,,,,,
297832,2022-12-05_22h56.55.775,vts_reward_expectancy_bt,2022.2.4,Win32,60.98676587,Chrome,1920,1080,,,,,0,540,,,,,,,,,,,,,,,,,W,132,circle,1,0,,,3,,,,,,,,,,,,,repeat,number,numRpt,j,0.6855,vtsPrac,13,0,13,0,1,,,,,,,,,,,,,,,,,,,,,,,
297832,2022-12-05_22h56.55.775,vts_reward_expectancy_bt,2022.2.4,Win32,60.98676587,Chrome,1920,1080,,,,,0,540,,,,,,,,,,,,,,,,,U,167,circle,1,0,,,3,,,,,,,,,,,,,repeat,number,numRpt,k,1.1996,vtsPrac,14,0,14,0,1,,,,,,,,,,,,,,,,,,,,,,,
297832,2022-12-05_22h56.55.775,vts_reward_expectancy_bt,2022.2.4,Win32,60.98676587,Chrome,1920,1080,,,,,0,540,,,,,,,,,,,,,,,,,D,146,hexagon,1,0,,,3,,,,,,,,,,,,,repeat,number,numRpt,j,0.8071,vtsPrac,15,0,15,0,1,,,,,,,,,,,,,,,,,,,,,,,
297832,2022-12-05_22h56.55.775,vts_reward_expectancy_bt,2022.2.4,Win32,60.98676587,Chrome,1920,1080,,,,,0,540,,,,,,,,,,,,,,,,,F,146,triangle,1,0,,,3,,,,,,,,,,,,,repeat,number,numRpt,j,0.7696,vtsPrac,16,0,16,0,1,,,,,,,,,,,,,,,,,,,,,,,
297832,2022-12-05_22h56.55.775,vts_reward_expectancy_bt,2022.2.4,Win32,60.98676587,Chrome,1920,1080,,,,,0,540,,,,,,,,,,,,,,,,,U,181,circle,1,0,,,3,,,,,,,,,,,,,repeat,number,numRpt,k,0.8159,vtsPrac,17,0,17,0,1,,,,,,,,,,,,,,,,,,,,,,,
297832,2022-12-05_22h56.55.775,vts_reward_expectancy_bt,2022.2.4,Win32,60.98676587,Chrome,1920,1080,,,,,0,540,,,,,,,,,,,,,,,,,H,139,circle,1,0,,,3,,,,,,,,,,,,,repeat,number,numRpt,j,0.8394,vtsPrac,18,0,18,0,1,,,,,,,,,,,,,,,,,,,,,,,
297832,2022-12-05_22h56.55.775,vts_reward_expectancy_bt,2022.2.4,Win32,60.98676587,Chrome,1920,1080,,,,,0,540,,,,,,,,,,,,,,,,,W,132,triangle,1,0,,,3,,,,,,,,,,,,,repeat,number,numRpt,j,1.2326,vtsPrac,19,0,19,0,1,,,,,,,,,,,,,,,,,,,,,,,
297832,2022-12-05_22h56.55.775,vts_reward_expectancy_bt,2022.2.4,Win32,60.98676587,Chrome,1920,1080,,,,,0,540,,,,,,,,,,,,,,,,,H,125,star,1,0,,,3,,,,,,,,,,,,,repeat,number,numRpt,j,0.7933,vtsPrac,20,0,20,0,1,,,,,,,,,,,,,,,,,,,,,,,
297832,2022-12-05_22h56.55.775,vts_reward_expectancy_bt,2022.2.4,Win32,60.98676587,Chrome,1920,1080,,,,,0,540,,,,,,,,,,,,,,,,,S,181,circle,1,0,,,3,,,,,,,,,,,,,repeat,number,numRpt,k,1.0765,vtsPrac,21,0,21,0,1,,,,,,,,,,,,,,,,,,,,,,,
297832,2022-12-05_22h56.55.775,vts_reward_expectancy_bt,2022.2.4,Win32,60.98676587,Chrome,1920,1080,,,,,0,540,,,,,,,,,,,,,,,,,F,174,star,1,0,,,3,,,,,,,,,,,,,repeat,number,numRpt,k,1.4925,vtsPrac,22,0,22,0,1,,,,,,,,,,,,,,,,,,,,,,,
297832,2022-12-05_22h56.55.775,vts_reward_expectancy_bt,2022.2.4,Win32,60.98676587,Chrome,1920,1080,,,,,0,540,,,,,,,,,,,,,,,,,Y,160,hexagon,1,0,,,3,,,,,,,,,,,,,repeat,number,numRpt,k,1.7785,vtsPrac,23,0,23,0,1,,,,,,,,,,,,,,,,,,,,,,,
297832,2022-12-05_22h56.55.775,vts_reward_expectancy_bt,2022.2.4,Win32,60.98676587,Chrome,1920,1080,,,,,0,540,,,,,,,,,,,,,,,,,H,167,triangle,1,0,,,3,,,,,,,,,,,,,repeat,number,numRpt,k,1.878,vtsPrac,24,0,24,0,1,,,,,,,,,,,,,,,,,,,,,,,
297832,2022-12-05_22h56.55.775,vts_reward_expectancy_bt,2022.2.4,Win32,60.98676587,Chrome,1920,1080,,,,,0,540,,,,,,,,,,,,,,,,,D,160,star,1,0,,,3,,,,,,,,,,,,,repeat,number,numRpt,k,0.9349,vtsPrac,25,0,25,0,1,,,,,,,,,,,,,,,,,,,,,,,
297832,2022-12-05_22h56.55.775,vts_reward_expectancy_bt,2022.2.4,Win32,60.98676587,Chrome,1920,1080,,,,,0,540,,,,,,,,,,,,,,,,,F,174,circle,1,0,,,3,,,,,,,,,,,,,repeat,number,numRpt,k,1.5775,vtsPrac,26,0,26,0,1,,,,,,,,,,,,,,,,,,,,,,,
297832,2022-12-05_22h56.55.775,vts_reward_expectancy_bt,2022.2.4,Win32,60.98676587,Chrome,1920,1080,,,,,0,540,,,,,,,,,,,,,,,,,U,181,hexagon,1,0,,,3,,,,,,,,,,,,,repeat,number,numRpt,k,1.493,vtsPrac,27,0,27,0,1,,,,,,,,,,,,,,,,,,,,,,,
297832,2022-12-05_22h56.55.775,vts_reward_expectancy_bt,2022.2.4,Win32,60.98676587,Chrome,1920,1080,,,,,0,540,,,,,,,,,,,,,,,,,W,146,star,1,0,,,3,,,,,,,,,,,,,repeat,number,numRpt,j,1.6852,vtsPrac,28,0,28,0,1,,,,,,,,,,,,,,,,,,,,,,,
297832,2022-12-05_22h56.55.775,vts_reward_expectancy_bt,2022.2.4,Win32,60.98676587,Chrome,1920,1080,,,,,0,540,,,,,,,,,,,,,,,,,H,174,hexagon,1,0,,,3,,,,,,,,,,,,,repeat,number,numRpt,k,1.4015,vtsPrac,29,0,29,0,1,,,,,,,,,,,,,,,,,,,,,,,
297832,2022-12-05_22h56.55.775,vts_reward_expectancy_bt,2022.2.4,Win32,60.98676587,Chrome,1920,1080,,,,,0,540,,,,,,,,,,,,,,,,,S,139,star,-1,0,,,3,,,,,,,,,,,,,switch,no_choice,NA,,,vtsPrac,30,0,30,0,1,,,,,,,,,,,,,,,,,,,,,,,
297832,2022-12-05_22h56.55.775,vts_reward_expectancy_bt,2022.2.4,Win32,60.98676587,Chrome,1920,1080,,,,,0,540,,,,,,,,,,,,,,,,,B,181,circle,1,0,,,3,,,,,,,,,,,,,switch,number,numSwt,k,1.7255,vtsPrac,31,0,31,0,1,,,,,,,,,,,,,,,,,,,,,,,
297832,2022-12-05_22h56.55.775,vts_reward_expectancy_bt,2022.2.4,Win32,60.98676587,Chrome,1920,1080,,,,,0,540,,,,,,,,,,,,,,,,,H,132,triangle,1,0,,,4,,,,,,,,,,,,,repeat,number,numRpt,j,1.0825,vtsPrac,0,0,0,0,1,,,,,,,,,,,,,,,,,,,,,,,
297832,2022-12-05_22h56.55.775,vts_reward_expectancy_bt,2022.2.4,Win32,60.98676587,Chrome,1920,1080,,,,,0,540,,,,,,,,,,,,,,,,,U,167,circle,1,0,,,4,,,,,,,,,,,,,repeat,number,numRpt,k,1.7356,vtsPrac,1,0,1,0,1,,,,,,,,,,,,,,,,,,,,,,,
297832,2022-12-05_22h56.55.775,vts_reward_expectancy_bt,2022.2.4,Win32,60.98676587,Chrome,1920,1080,,,,,0,540,,,,,,,,,,,,,,,,,W,125,triangle,1,0,,,4,,,,,,,,,,,,,repeat,number,numRpt,j,0.8324,vtsPrac,2,0,2,0,1,,,,,,,,,,,,,,,,,,,,,,,
297832,2022-12-05_22h56.55.775,vts_reward_expectancy_bt,2022.2.4,Win32,60.98676587,Chrome,1920,1080,,,,,0,540,,,,,,,,,,,,,,,,,S,160,circle,1,0,,,4,,,,,,,,,,,,,repeat,number,numRpt,k,1.6211,vtsPrac,3,0,3,0,1,,,,,,,,,,,,,,,,,,,,,,,
297832,2022-12-05_22h56.55.775,vts_reward_expectancy_bt,2022.2.4,Win32,60.98676587,Chrome,1920,1080,,,,,0,540,,,,,,,,,,,,,,,,,H,132,hexagon,1,0,,,4,,,,,,,,,,,,,repeat,number,numRpt,j,1.0545,vtsPrac,4,0,4,0,1,,,,,,,,,,,,,,,,,,,,,,,
297832,2022-12-05_22h56.55.775,vts_reward_expectancy_bt,2022.2.4,Win32,60.98676587,Chrome,1920,1080,,,,,0,540,,,,,,,,,,,,,,,,,U,167,circle,0,0,,,4,,,,,,,,,,,,,repeat,number,NA,j,0.703,vtsPrac,5,0,5,0,1,,,,,,,,,,,,,,,,,,,,,,,
297832,2022-12-05_22h56.55.775,vts_reward_expectancy_bt,2022.2.4,Win32,60.98676587,Chrome,1920,1080,,,,,0,540,,,,,,,,,,,,,,,,,W,125,triangle,1,1,,,4,,,,,,,,,,,,,repeat,number,numRpt,j,1.0217,vtsPrac,6,0,6,0,1,,,,,,,,,,,,,,,,,,,,,,,
297832,2022-12-05_22h56.55.775,vts_reward_expectancy_bt,2022.2.4,Win32,60.98676587,Chrome,1920,1080,,,,,0,540,,,,,,,,,,,,,,,,,S,160,hexagon,1,0,,,4,,,,,,,,,,,,,repeat,number,numRpt,k,0.9912,vtsPrac,7,0,7,0,1,,,,,,,,,,,,,,,,,,,,,,,
297832,2022-12-05_22h56.55.775,vts_reward_expectancy_bt,2022.2.4,Win32,60.98676587,Chrome,1920,1080,,,,,0,540,,,,,,,,,,,,,,,,,D,160,circle,1,0,,,4,,,,,,,,,,,,,repeat,number,numRpt,k,1.1222,vtsPrac,8,0,8,0,1,,,,,,,,,,,,,,,,,,,,,,,
297832,2022-12-05_22h56.55.775,vts_reward_expectancy_bt,2022.2.4,Win32,60.98676587,Chrome,1920,1080,,,,,0,540,,,,,,,,,,,,,,,,,W,167,triangle,1,0,,,4,,,,,,,,,,,,,repeat,number,numRpt,k,0.8822,vtsPrac,9,0,9,0,1,,,,,,,,,,,,,,,,,,,,,,,
297832,2022-12-05_22h56.55.775,vts_reward_expectancy_bt,2022.2.4,Win32,60.98676587,Chrome,1920,1080,,,,,0,540,,,,,,,,,,,,,,,,,F,181,circle,1,0,,,4,,,,,,,,,,,,,repeat,number,numRpt,k,0.9666,vtsPrac,10,0,10,0,1,,,,,,,,,,,,,,,,,,,,,,,
297832,2022-12-05_22h56.55.775,vts_reward_expectancy_bt,2022.2.4,Win32,60.98676587,Chrome,1920,1080,,,,,0,540,,,,,,,,,,,,,,,,,S,174,star,1,0,,,4,,,,,,,,,,,,,repeat,number,numRpt,k,2.0424,vtsPrac,11,0,11,0,1,,,,,,,,,,,,,,,,,,,,,,,
297832,2022-12-05_22h56.55.775,vts_reward_expectancy_bt,2022.2.4,Win32,60.98676587,Chrome,1920,1080,,,,,0,540,,,,,,,,,,,,,,,,,W,125,triangle,1,0,,,4,,,,,,,,,,,,,repeat,number,numRpt,j,1.0583,vtsPrac,12,0,12,0,1,,,,,,,,,,,,,,,,,,,,,,,
297832,2022-12-05_22h56.55.775,vts_reward_expectancy_bt,2022.2.4,Win32,60.98676587,Chrome,1920,1080,,,,,0,540,,,,,,,,,,,,,,,,,B,160,hexagon,1,0,,,4,,,,,,,,,,,,,repeat,number,numRpt,k,0.8679,vtsPrac,13,0,13,0,1,,,,,,,,,,,,,,,,,,,,,,,
297832,2022-12-05_22h56.55.775,vts_reward_expectancy_bt,2022.2.4,Win32,60.98676587,Chrome,1920,1080,,,,,0,540,,,,,,,,,,,,,,,,,H,132,star,1,0,,,4,,,,,,,,,,,,,repeat,number,numRpt,j,1.1158,vtsPrac,14,0,14,0,1,,,,,,,,,,,,,,,,,,,,,,,
297832,2022-12-05_22h56.55.775,vts_reward_expectancy_bt,2022.2.4,Win32,60.98676587,Chrome,1920,1080,,,,,0,540,,,,,,,,,,,,,,,,,U,139,circle,1,0,,,4,,,,,,,,,,,,,repeat,number,numRpt,j,0.9525,vtsPrac,15,0,15,0,1,,,,,,,,,,,,,,,,,,,,,,,
297832,2022-12-05_22h56.55.775,vts_reward_expectancy_bt,2022.2.4,Win32,60.98676587,Chrome,1920,1080,,,,,0,540,,,,,,,,,,,,,,,,,Y,174,hexagon,1,0,,,4,,,,,,,,,,,,,repeat,number,numRpt,k,0.7163,vtsPrac,16,0,16,0,1,,,,,,,,,,,,,,,,,,,,,,,
297832,2022-12-05_22h56.55.775,vts_reward_expectancy_bt,2022.2.4,Win32,60.98676587,Chrome,1920,1080,,,,,0,540,,,,,,,,,,,,,,,,,U,181,triangle,1,0,,,4,,,,,,,,,,,,,repeat,number,numRpt,k,0.7945,vtsPrac,17,0,17,0,1,,,,,,,,,,,,,,,,,,,,,,,
297832,2022-12-05_22h56.55.775,vts_reward_expectancy_bt,2022.2.4,Win32,60.98676587,Chrome,1920,1080,,,,,0,540,,,,,,,,,,,,,,,,,W,125,triangle,1,0,,,4,,,,,,,,,,,,,repeat,number,numRpt,j,0.7732,vtsPrac,18,0,18,0,1,,,,,,,,,,,,,,,,,,,,,,,
297832,2022-12-05_22h56.55.775,vts_reward_expectancy_bt,2022.2.4,Win32,60.98676587,Chrome,1920,1080,,,,,0,540,,,,,,,,,,,,,,,,,H,139,circle,1,0,,,4,,,,,,,,,,,,,repeat,number,numRpt,j,1.0737,vtsPrac,19,0,19,0,1,,,,,,,,,,,,,,,,,,,,,,,
297832,2022-12-05_22h56.55.775,vts_reward_expectancy_bt,2022.2.4,Win32,60.98676587,Chrome,1920,1080,,,,,0,540,,,,,,,,,,,,,,,,,W,146,triangle,1,0,,,4,,,,,,,,,,,,,repeat,number,numRpt,j,1.266,vtsPrac,20,0,20,0,1,,,,,,,,,,,,,,,,,,,,,,,
297832,2022-12-05_22h56.55.775,vts_reward_expectancy_bt,2022.2.4,Win32,60.98676587,Chrome,1920,1080,,,,,0,540,,,,,,,,,,,,,,,,,D,181,hexagon,1,0,,,4,,,,,,,,,,,,,repeat,number,numRpt,k,1.5445,vtsPrac,21,0,21,0,1,,,,,,,,,,,,,,,,,,,,,,,
297832,2022-12-05_22h56.55.775,vts_reward_expectancy_bt,2022.2.4,Win32,60.98676587,Chrome,1920,1080,,,,,0,540,,,,,,,,,,,,,,,,,U,160,hexagon,1,0,,,4,,,,,,,,,,,,,repeat,number,numRpt,k,1.6368,vtsPrac,22,0,22,0,1,,,,,,,,,,,,,,,,,,,,,,,
297832,2022-12-05_22h56.55.775,vts_reward_expectancy_bt,2022.2.4,Win32,60.98676587,Chrome,1920,1080,,,,,0,540,,,,,,,,,,,,,,,,,H,167,star,0,0,,,4,,,,,,,,,,,,,repeat,number,NA,j,1.8371,vtsPrac,23,0,23,0,1,,,,,,,,,,,,,,,,,,,,,,,
297832,2022-12-05_22h56.55.775,vts_reward_expectancy_bt,2022.2.4,Win32,60.98676587,Chrome,1920,1080,,,,,0,540,,,,,,,,,,,,,,,,,D,139,triangle,1,1,,,4,,,,,,,,,,,,,repeat,number,numRpt,j,1.0534,vtsPrac,24,0,24,0,1,,,,,,,,,,,,,,,,,,,,,,,
297832,2022-12-05_22h56.55.775,vts_reward_expectancy_bt,2022.2.4,Win32,60.98676587,Chrome,1920,1080,,,,,0,540,,,,,,,,,,,,,,,,,F,132,star,1,0,,,4,,,,,,,,,,,,,repeat,number,numRpt,j,1.6332,vtsPrac,25,0,25,0,1,,,,,,,,,,,,,,,,,,,,,,,
297832,2022-12-05_22h56.55.775,vts_reward_expectancy_bt,2022.2.4,Win32,60.98676587,Chrome,1920,1080,,,,,0,540,,,,,,,,,,,,,,,,,S,125,hexagon,1,0,,,4,,,,,,,,,,,,,repeat,number,numRpt,j,1.4496,vtsPrac,26,0,26,0,1,,,,,,,,,,,,,,,,,,,,,,,
297832,2022-12-05_22h56.55.775,vts_reward_expectancy_bt,2022.2.4,Win32,60.98676587,Chrome,1920,1080,,,,,0,540,,,,,,,,,,,,,,,,,U,181,triangle,1,0,,,4,,,,,,,,,,,,,repeat,number,numRpt,k,1.3342,vtsPrac,27,0,27,0,1,,,,,,,,,,,,,,,,,,,,,,,
297832,2022-12-05_22h56.55.775,vts_reward_expectancy_bt,2022.2.4,Win32,60.98676587,Chrome,1920,1080,,,,,0,540,,,,,,,,,,,,,,,,,B,125,hexagon,1,0,,,4,,,,,,,,,,,,,repeat,number,numRpt,j,1.5829,vtsPrac,28,0,28,0,1,,,,,,,,,,,,,,,,,,,,,,,
297832,2022-12-05_22h56.55.775,vts_reward_expectancy_bt,2022.2.4,Win32,60.98676587,Chrome,1920,1080,,,,,0,540,,,,,,,,,,,,,,,,,S,132,star,1,0,,,4,,,,,,,,,,,,,repeat,number,numRpt,j,1.0162,vtsPrac,29,0,29,0,1,,,,,,,,,,,,,,,,,,,,,,,
297832,2022-12-05_22h56.55.775,vts_reward_expectancy_bt,2022.2.4,Win32,60.98676587,Chrome,1920,1080,,,,,0,540,,,,,,,,,,,,,,,,,W,174,circle,1,0,,,4,,,,,,,,,,,,,repeat,number,numRpt,k,1.0823,vtsPrac,30,0,30,0,1,,,,,,,,,,,,,,,,,,,,,,,
297832,2022-12-05_22h56.55.775,vts_reward_expectancy_bt,2022.2.4,Win32,60.98676587,Chrome,1920,1080,,,,,0,540,,,,,,,,,,,,,,,,,U,167,star,1,0,,,4,,,,,,,,,,,,,repeat,number,numRpt,k,1.0326,vtsPrac,31,0,31,0,1,,,,,,,,,,,,,,,,,,,,,,,
297832,2022-12-05_22h56.55.775,vts_reward_expectancy_bt,2022.2.4,Win32,60.98676587,Chrome,1920,1080,,,,,,,,,,,,,,,,,,,,,,,,,,,,,,,,,,,,,,,,,,,,,,,,,,,,,,,,,,,,,,,,,,,,,,,,,,,,
297832,2022-12-05_22h56.55.775,vts_reward_expectancy_bt,2022.2.4,Win32,60.98676587,Chrome,1920,1080,,,,,,,,,,,,,,,,,,,,,,,,,,,,,,,,,,,,,,,,,,,,,,,,,,,,,,,,,,,,,,,,,,,,,,,,,,,,
297832,2022-12-05_22h56.55.775,vts_reward_expectancy_bt,2022.2.4,Win32,60.98676587,Chrome,1920,1080,,,,,0,540,,,,,,,,,,,,,,,,,U,181,triangle,1,0,,,,,,,,,,,,,,,,switch,letter,lettSwt,f,0.6344,noRew,,,,,,0,0,0,0,0,1,,,,,,,,,,,,,,,,,
297832,2022-12-05_22h56.55.775,vts_reward_expectancy_bt,2022.2.4,Win32,60.98676587,Chrome,1920,1080,,,,,0,540,,,,,,,,,,,,,,,,,W,174,hexagon,1,0,,,,,,,,,,,,,,,,repeat,letter,lettRpt,f,1.116,noRew,,,,,,0,1,0,1,0,1,,,,,,,,,,,,,,,,,
297832,2022-12-05_22h56.55.775,vts_reward_expectancy_bt,2022.2.4,Win32,60.98676587,Chrome,1920,1080,,,,,0,540,,,,,,,,,,,,,,,,,D,125,triangle,1,0,,,,,,,,,,,,,,,,repeat,letter,lettRpt,d,1.3527,noRew,,,,,,0,2,0,2,0,1,,,,,,,,,,,,,,,,,
297832,2022-12-05_22h56.55.775,vts_reward_expectancy_bt,2022.2.4,Win32,60.98676587,Chrome,1920,1080,,,,,0,540,,,,,,,,,,,,,,,,,S,139,hexagon,1,0,,,,,,,,,,,,,,,,switch,number,numSwt,j,1.5832,noRew,,,,,,0,3,0,3,0,1,,,,,,,,,,,,,,,,,
297832,2022-12-05_22h56.55.775,vts_reward_expectancy_bt,2022.2.4,Win32,60.98676587,Chrome,1920,1080,,,,,0,540,,,,,,,,,,,,,,,,,U,181,hexagon,-1,0,,,,,,,,,,,,,,,,switch,no_choice,NA,,,noRew,,,,,,0,4,0,4,0,1,,,,,,,,,,,,,,,,,
297832,2022-12-05_22h56.55.775,vts_reward_expectancy_bt,2022.2.4,Win32,60.98676587,Chrome,1920,1080,,,,,0,540,,,,,,,,,,,,,,,,,W,174,star,1,0,,,,,,,,,,,,,,,,switch,number,numSwt,k,1.0172,noRew,,,,,,0,5,0,5,0,1,,,,,,,,,,,,,,,,,
297832,2022-12-05_22h56.55.775,vts_reward_expectancy_bt,2022.2.4,Win32,60.98676587,Chrome,1920,1080,,,,,0,540,,,,,,,,,,,,,,,,,D,125,hexagon,1,0,,,,,,,,,,,,,,,,switch,letter,lettSwt,d,1.0826,noRew,,,,,,0,6,0,6,0,1,,,,,,,,,,,,,,,,,
297832,2022-12-05_22h56.55.775,vts_reward_expectancy_bt,2022.2.4,Win32,60.98676587,Chrome,1920,1080,,,,,0,540,,,,,,,,,,,,,,,,,S,139,star,1,0,,,,,,,,,,,,,,,,switch,number,numSwt,j,1.0834,noRew,,,,,,0,7,0,7,0,1,,,,,,,,,,,,,,,,,
297832,2022-12-05_22h56.55.775,vts_reward_expectancy_bt,2022.2.4,Win32,60.98676587,Chrome,1920,1080,,,,,0,540,,,,,,,,,,,,,,,,,U,167,hexagon,0,0,,,,,,,,,,,,,,,,repeat,number,NA,j,2.1359,noRew,,,,,,0,8,0,8,0,1,,,,,,,,,,,,,,,,,
297832,2022-12-05_22h56.55.775,vts_reward_expectancy_bt,2022.2.4,Win32,60.98676587,Chrome,1920,1080,,,,,0,540,,,,,,,,,,,,,,,,,S,125,circle,1,1,,,,,,,,,,,,,,,,repeat,number,numRpt,j,1.7883,noRew,,,,,,0,9,0,9,0,1,,,,,,,,,,,,,,,,,
297832,2022-12-05_22h56.55.775,vts_reward_expectancy_bt,2022.2.4,Win32,60.98676587,Chrome,1920,1080,,,,,0,540,,,,,,,,,,,,,,,,,H,139,triangle,1,0,,,,,,,,,,,,,,,,repeat,number,numRpt,j,2.19,noRew,,,,,,0,10,0,10,0,1,,,,,,,,,,,,,,,,,
297832,2022-12-05_22h56.55.775,vts_reward_expectancy_bt,2022.2.4,Win32,60.98676587,Chrome,1920,1080,,,,,0,540,,,,,,,,,,,,,,,,,F,181,hexagon,1,0,,,,,,,,,,,,,,,,switch,letter,lettSwt,d,0.992,noRew,,,,,,0,11,0,11,0,1,,,,,,,,,,,,,,,,,
297832,2022-12-05_22h56.55.775,vts_reward_expectancy_bt,2022.2.4,Win32,60.98676587,Chrome,1920,1080,,,,,0,540,,,,,,,,,,,,,,,,,B,181,circle,1,0,,,,,,,,,,,,,,,,repeat,letter,lettRpt,d,1.1714,noRew,,,,,,0,12,0,12,0,1,,,,,,,,,,,,,,,,,
297832,2022-12-05_22h56.55.775,vts_reward_expectancy_bt,2022.2.4,Win32,60.98676587,Chrome,1920,1080,,,,,0,540,,,,,,,,,,,,,,,,,F,174,hexagon,1,0,,,,,,,,,,,,,,,,repeat,letter,lettRpt,d,0.8657,noRew,,,,,,0,13,0,13,0,1,,,,,,,,,,,,,,,,,
297832,2022-12-05_22h56.55.775,vts_reward_expectancy_bt,2022.2.4,Win32,60.98676587,Chrome,1920,1080,,,,,0,540,,,,,,,,,,,,,,,,,U,139,hexagon,1,0,,,,,,,,,,,,,,,,repeat,letter,lettRpt,f,1.3188,noRew,,,,,,0,14,0,14,0,1,,,,,,,,,,,,,,,,,
297832,2022-12-05_22h56.55.775,vts_reward_expectancy_bt,2022.2.4,Win32,60.98676587,Chrome,1920,1080,,,,,0,540,,,,,,,,,,,,,,,,,D,167,triangle,1,0,,,,,,,,,,,,,,,,repeat,letter,lettRpt,d,1.5328,noRew,,,,,,0,15,0,15,0,1,,,,,,,,,,,,,,,,,
297832,2022-12-05_22h56.55.775,vts_reward_expectancy_bt,2022.2.4,Win32,60.98676587,Chrome,1920,1080,,,,,0,540,,,,,,,,,,,,,,,,,B,146,hexagon,1,0,,,,,,,,,,,,,,,,repeat,letter,lettRpt,d,1.8,noRew,,,,,,0,16,0,16,0,1,,,,,,,,,,,,,,,,,
297832,2022-12-05_22h56.55.775,vts_reward_expectancy_bt,2022.2.4,Win32,60.98676587,Chrome,1920,1080,,,,,0,540,,,,,,,,,,,,,,,,,H,167,circle,1,0,,,,,,,,,,,,,,,,repeat,letter,lettRpt,d,1.226,noRew,,,,,,0,17,0,17,0,1,,,,,,,,,,,,,,,,,
297832,2022-12-05_22h56.55.775,vts_reward_expectancy_bt,2022.2.4,Win32,60.98676587,Chrome,1920,1080,,,,,0,540,,,,,,,,,,,,,,,,,U,160,triangle,1,0,,,,,,,,,,,,,,,,switch,number,numSwt,k,1.4592,noRew,,,,,,0,18,0,18,0,1,,,,,,,,,,,,,,,,,
297832,2022-12-05_22h56.55.775,vts_reward_expectancy_bt,2022.2.4,Win32,60.98676587,Chrome,1920,1080,,,,,0,540,,,,,,,,,,,,,,,,,W,125,star,1,0,,,,,,,,,,,,,,,,repeat,number,numRpt,j,1.043,noRew,,,,,,0,19,0,19,0,1,,,,,,,,,,,,,,,,,
297832,2022-12-05_22h56.55.775,vts_reward_expectancy_bt,2022.2.4,Win32,60.98676587,Chrome,1920,1080,,,,,0,540,,,,,,,,,,,,,,,,,S,174,triangle,1,0,,,,,,,,,,,,,,,,repeat,number,numRpt,k,1.1077,noRew,,,,,,0,20,0,20,0,1,,,,,,,,,,,,,,,,,
297832,2022-12-05_22h56.55.775,vts_reward_expectancy_bt,2022.2.4,Win32,60.98676587,Chrome,1920,1080,,,,,0,540,,,,,,,,,,,,,,,,,U,132,circle,1,0,,,,,,,,,,,,,,,,repeat,number,numRpt,j,1.378,noRew,,,,,,0,21,0,21,0,1,,,,,,,,,,,,,,,,,
297832,2022-12-05_22h56.55.775,vts_reward_expectancy_bt,2022.2.4,Win32,60.98676587,Chrome,1920,1080,,,,,0,540,,,,,,,,,,,,,,,,,H,125,star,1,0,,,,,,,,,,,,,,,,repeat,number,numRpt,j,0.7734,noRew,,,,,,0,22,0,22,0,1,,,,,,,,,,,,,,,,,
297832,2022-12-05_22h56.55.775,vts_reward_expectancy_bt,2022.2.4,Win32,60.98676587,Chrome,1920,1080,,,,,0,540,,,,,,,,,,,,,,,,,Y,181,triangle,1,0,,,,,,,,,,,,,,,,switch,letter,lettSwt,f,2.0833,noRew,,,,,,0,23,0,23,0,1,,,,,,,,,,,,,,,,,
297832,2022-12-05_22h56.55.775,vts_reward_expectancy_bt,2022.2.4,Win32,60.98676587,Chrome,1920,1080,,,,,0,540,,,,,,,,,,,,,,,,,F,167,star,1,0,,,,,,,,,,,,,,,,switch,number,numSwt,k,1.255,noRew,,,,,,0,24,0,24,0,1,,,,,,,,,,,,,,,,,
297832,2022-12-05_22h56.55.775,vts_reward_expectancy_bt,2022.2.4,Win32,60.98676587,Chrome,1920,1080,,,,,0,540,,,,,,,,,,,,,,,,,S,125,triangle,1,0,,,,,,,,,,,,,,,,repeat,number,numRpt,j,1.0872,noRew,,,,,,0,25,0,25,0,1,,,,,,,,,,,,,,,,,
297832,2022-12-05_22h56.55.775,vts_reward_expectancy_bt,2022.2.4,Win32,60.98676587,Chrome,1920,1080,,,,,0,540,,,,,,,,,,,,,,,,,Y,181,circle,1,0,,,,,,,,,,,,,,,,repeat,number,numRpt,k,1.1182,noRew,,,,,,0,26,0,26,0,1,,,,,,,,,,,,,,,,,
297832,2022-12-05_22h56.55.775,vts_reward_expectancy_bt,2022.2.4,Win32,60.98676587,Chrome,1920,1080,,,,,0,540,,,,,,,,,,,,,,,,,U,146,triangle,1,0,,,,,,,,,,,,,,,,repeat,number,numRpt,j,1.6436,noRew,,,,,,0,27,0,27,0,1,,,,,,,,,,,,,,,,,
297832,2022-12-05_22h56.55.775,vts_reward_expectancy_bt,2022.2.4,Win32,60.98676587,Chrome,1920,1080,,,,,0,540,,,,,,,,,,,,,,,,,D,160,star,1,0,,,,,,,,,,,,,,,,repeat,number,numRpt,k,0.9654,noRew,,,,,,0,28,0,28,0,1,,,,,,,,,,,,,,,,,
297832,2022-12-05_22h56.55.775,vts_reward_expectancy_bt,2022.2.4,Win32,60.98676587,Chrome,1920,1080,,,,,0,540,,,,,,,,,,,,,,,,,B,139,circle,1,0,,,,,,,,,,,,,,,,repeat,number,numRpt,j,1.2875,noRew,,,,,,0,29,0,29,0,1,,,,,,,,,,,,,,,,,
297832,2022-12-05_22h56.55.775,vts_reward_expectancy_bt,2022.2.4,Win32,60.98676587,Chrome,1920,1080,,,,,0,540,,,,,,,,,,,,,,,,,H,132,hexagon,1,0,,,,,,,,,,,,,,,,switch,letter,lettSwt,d,0.8943,noRew,,,,,,0,30,0,30,0,1,,,,,,,,,,,,,,,,,
297832,2022-12-05_22h56.55.775,vts_reward_expectancy_bt,2022.2.4,Win32,60.98676587,Chrome,1920,1080,,,,,0,540,,,,,,,,,,,,,,,,,Y,174,star,1,0,,,,,,,,,,,,,,,,switch,number,numSwt,k,2.534,noRew,,,,,,0,31,0,31,0,1,,,,,,,,,,,,,,,,,
297832,2022-12-05_22h56.55.775,vts_reward_expectancy_bt,2022.2.4,Win32,60.98676587,Chrome,1920,1080,,,,,0,540,,,,,,,,,,,,,,,,,U,167,star,1,0,,,,,,,,,,,,,,,,switch,letter,lettSwt,f,1.6088,noRew,,,,,,0,32,0,32,0,1,,,,,,,,,,,,,,,,,
297832,2022-12-05_22h56.55.775,vts_reward_expectancy_bt,2022.2.4,Win32,60.98676587,Chrome,1920,1080,,,,,0,540,,,,,,,,,,,,,,,,,F,139,hexagon,1,0,,,,,,,,,,,,,,,,repeat,letter,lettRpt,d,0.9827,noRew,,,,,,0,33,0,33,0,1,,,,,,,,,,,,,,,,,
297832,2022-12-05_22h56.55.775,vts_reward_expectancy_bt,2022.2.4,Win32,60.98676587,Chrome,1920,1080,,,,,0,540,,,,,,,,,,,,,,,,,W,181,hexagon,1,0,,,,,,,,,,,,,,,,switch,number,numSwt,k,0.9825,noRew,,,,,,0,34,0,34,0,1,,,,,,,,,,,,,,,,,
297832,2022-12-05_22h56.55.775,vts_reward_expectancy_bt,2022.2.4,Win32,60.98676587,Chrome,1920,1080,,,,,0,540,,,,,,,,,,,,,,,,,Y,125,star,1,0,,,,,,,,,,,,,,,,switch,letter,lettSwt,f,1.6569,noRew,,,,,,0,35,0,35,0,1,,,,,,,,,,,,,,,,,
297832,2022-12-05_22h56.55.775,vts_reward_expectancy_bt,2022.2.4,Win32,60.98676587,Chrome,1920,1080,,,,,0,540,,,,,,,,,,,,,,,,,Y,132,triangle,0,0,,,,,,,,,,,,,,,,repeat,letter,NA,d,2.1444,noRew,,,,,,0,36,0,36,0,1,,,,,,,,,,,,,,,,,
297832,2022-12-05_22h56.55.775,vts_reward_expectancy_bt,2022.2.4,Win32,60.98676587,Chrome,1920,1080,,,,,0,540,,,,,,,,,,,,,,,,,F,181,star,1,1,,,,,,,,,,,,,,,,repeat,letter,lettRpt,d,0.9494,noRew,,,,,,0,37,0,37,0,1,,,,,,,,,,,,,,,,,
297832,2022-12-05_22h56.55.775,vts_reward_expectancy_bt,2022.2.4,Win32,60.98676587,Chrome,1920,1080,,,,,0,540,,,,,,,,,,,,,,,,,S,146,triangle,1,0,,,,,,,,,,,,,,,,switch,number,numSwt,j,1.3685,noRew,,,,,,0,38,0,38,0,1,,,,,,,,,,,,,,,,,
297832,2022-12-05_22h56.55.775,vts_reward_expectancy_bt,2022.2.4,Win32,60.98676587,Chrome,1920,1080,,,,,0,540,,,,,,,,,,,,,,,,,D,160,hexagon,1,0,,,,,,,,,,,,,,,,switch,letter,lettSwt,d,0.876,noRew,,,,,,0,39,0,39,0,1,,,,,,,,,,,,,,,,,
297832,2022-12-05_22h56.55.775,vts_reward_expectancy_bt,2022.2.4,Win32,60.98676587,Chrome,1920,1080,,,,,0,540,,,,,,,,,,,,,,,,,B,125,circle,1,0,,,,,,,,,,,,,,,,repeat,letter,lettRpt,d,0.9158,noRew,,,,,,0,40,0,40,0,1,,,,,,,,,,,,,,,,,
297832,2022-12-05_22h56.55.775,vts_reward_expectancy_bt,2022.2.4,Win32,60.98676587,Chrome,1920,1080,,,,,0,540,,,,,,,,,,,,,,,,,D,146,star,1,0,,,,,,,,,,,,,,,,repeat,letter,lettRpt,d,2.5861,noRew,,,,,,0,41,0,41,0,1,,,,,,,,,,,,,,,,,
297832,2022-12-05_22h56.55.775,vts_reward_expectancy_bt,2022.2.4,Win32,60.98676587,Chrome,1920,1080,,,,,0,540,,,,,,,,,,,,,,,,,F,132,star,1,0,,,,,,,,,,,,,,,,switch,number,numSwt,j,2.2192,noRew,,,,,,0,42,0,42,0,1,,,,,,,,,,,,,,,,,
297832,2022-12-05_22h56.55.775,vts_reward_expectancy_bt,2022.2.4,Win32,60.98676587,Chrome,1920,1080,,,,,0,540,,,,,,,,,,,,,,,,,Y,181,triangle,0,0,,,,,,,,,,,,,,,,switch,letter,NA,d,1.9953,noRew,,,,,,0,43,0,43,0,1,,,,,,,,,,,,,,,,,
297832,2022-12-05_22h56.55.775,vts_reward_expectancy_bt,2022.2.4,Win32,60.98676587,Chrome,1920,1080,,,,,0,540,,,,,,,,,,,,,,,,,U,181,star,0,1,,,,,,,,,,,,,,,,switch,number,NA,j,2.9344,noRew,,,,,,0,44,0,44,0,1,,,,,,,,,,,,,,,,,
297832,2022-12-05_22h56.55.775,vts_reward_expectancy_bt,2022.2.4,Win32,60.98676587,Chrome,1920,1080,,,,,0,540,,,,,,,,,,,,,,,,,S,132,hexagon,1,1,,,,,,,,,,,,,,,,repeat,number,numRpt,j,1.9167,noRew,,,,,,0,45,0,45,0,1,,,,,,,,,,,,,,,,,
297832,2022-12-05_22h56.55.775,vts_reward_expectancy_bt,2022.2.4,Win32,60.98676587,Chrome,1920,1080,,,,,0,540,,,,,,,,,,,,,,,,,H,125,hexagon,1,0,,,,,,,,,,,,,,,,switch,letter,lettSwt,d,1.8607,noRew,,,,,,0,46,0,46,0,1,,,,,,,,,,,,,,,,,
297832,2022-12-05_22h56.55.775,vts_reward_expectancy_bt,2022.2.4,Win32,60.98676587,Chrome,1920,1080,,,,,0,540,,,,,,,,,,,,,,,,,Y,146,circle,1,0,,,,,,,,,,,,,,,,repeat,letter,lettRpt,f,2.6005,noRew,,,,,,0,47,0,47,0,1,,,,,,,,,,,,,,,,,
297832,2022-12-05_22h56.55.775,vts_reward_expectancy_bt,2022.2.4,Win32,60.98676587,Chrome,1920,1080,,,,,0,540,,,,,,,,,,,,,,,,,S,160,hexagon,1,0,,,,,,,,,,,,,,,,switch,number,numSwt,k,1.0932,noRew,,,,,,0,48,0,48,0,1,,,,,,,,,,,,,,,,,
297832,2022-12-05_22h56.55.775,vts_reward_expectancy_bt,2022.2.4,Win32,60.98676587,Chrome,1920,1080,,,,,0,540,,,,,,,,,,,,,,,,,D,174,star,1,0,,,,,,,,,,,,,,,,repeat,number,numRpt,k,1.2199,noRew,,,,,,0,49,0,49,0,1,,,,,,,,,,,,,,,,,
297832,2022-12-05_22h56.55.775,vts_reward_expectancy_bt,2022.2.4,Win32,60.98676587,Chrome,1920,1080,,,,,0,540,,,,,,,,,,,,,,,,,W,125,star,0,0,,,,,,,,,,,,,,,,repeat,number,NA,k,1.8374,noRew,,,,,,0,50,0,50,0,1,,,,,,,,,,,,,,,,,
297832,2022-12-05_22h56.55.775,vts_reward_expectancy_bt,2022.2.4,Win32,60.98676587,Chrome,1920,1080,,,,,0,540,,,,,,,,,,,,,,,,,F,139,circle,0,1,,,,,,,,,,,,,,,,switch,letter,NA,f,1.9025,noRew,,,,,,0,51,0,51,0,1,,,,,,,,,,,,,,,,,
297832,2022-12-05_22h56.55.775,vts_reward_expectancy_bt,2022.2.4,Win32,60.98676587,Chrome,1920,1080,,,,,0,540,,,,,,,,,,,,,,,,,Y,181,circle,-1,1,,,,,,,,,,,,,,,,switch,no_choice,NA,,,noRew,,,,,,0,52,0,52,0,1,,,,,,,,,,,,,,,,,
297832,2022-12-05_22h56.55.775,vts_reward_expectancy_bt,2022.2.4,Win32,60.98676587,Chrome,1920,1080,,,,,0,540,,,,,,,,,,,,,,,,,S,125,hexagon,-1,0,,,,,,,,,,,,,,,,repeat,no_choice,NA,,,noRew,,,,,,0,53,0,53,0,1,,,,,,,,,,,,,,,,,
297832,2022-12-05_22h56.55.775,vts_reward_expectancy_bt,2022.2.4,Win32,60.98676587,Chrome,1920,1080,,,,,0,540,,,,,,,,,,,,,,,,,W,167,triangle,1,0,,,,,,,,,,,,,,,,switch,number,numSwt,k,1.9999,noRew,,,,,,0,54,0,54,0,1,,,,,,,,,,,,,,,,,
297832,2022-12-05_22h56.55.775,vts_reward_expectancy_bt,2022.2.4,Win32,60.98676587,Chrome,1920,1080,,,,,0,540,,,,,,,,,,,,,,,,,U,160,hexagon,1,0,,,,,,,,,,,,,,,,repeat,number,numRpt,k,1.2557,noRew,,,,,,0,55,0,55,0,1,,,,,,,,,,,,,,,,,
297832,2022-12-05_22h56.55.775,vts_reward_expectancy_bt,2022.2.4,Win32,60.98676587,Chrome,1920,1080,,,,,0,540,,,,,,,,,,,,,,,,,S,139,triangle,1,0,,,,,,,,,,,,,,,,repeat,number,numRpt,j,1.1197,noRew,,,,,,0,56,0,56,0,1,,,,,,,,,,,,,,,,,
297832,2022-12-05_22h56.55.775,vts_reward_expectancy_bt,2022.2.4,Win32,60.98676587,Chrome,1920,1080,,,,,0,540,,,,,,,,,,,,,,,,,U,146,circle,1,0,,,,,,,,,,,,,,,,repeat,number,numRpt,j,2.3021,noRew,,,,,,0,57,0,57,0,1,,,,,,,,,,,,,,,,,
297832,2022-12-05_22h56.55.775,vts_reward_expectancy_bt,2022.2.4,Win32,60.98676587,Chrome,1920,1080,,,,,0,540,,,,,,,,,,,,,,,,,F,160,star,1,0,,,,,,,,,,,,,,,,repeat,number,numRpt,k,1.0505,noRew,,,,,,0,58,0,58,0,1,,,,,,,,,,,,,,,,,
297832,2022-12-05_22h56.55.775,vts_reward_expectancy_bt,2022.2.4,Win32,60.98676587,Chrome,1920,1080,,,,,0,540,,,,,,,,,,,,,,,,,B,125,circle,1,0,,,,,,,,,,,,,,,,repeat,number,numRpt,j,1.035,noRew,,,,,,0,59,0,59,0,1,,,,,,,,,,,,,,,,,
297832,2022-12-05_22h56.55.775,vts_reward_expectancy_bt,2022.2.4,Win32,60.98676587,Chrome,1920,1080,,,,,0,540,,,,,,,,,,,,,,,,,S,174,hexagon,1,0,,,,,,,,,,,,,,,,repeat,number,numRpt,k,1.3073,noRew,,,,,,0,60,0,60,0,1,,,,,,,,,,,,,,,,,
297832,2022-12-05_22h56.55.775,vts_reward_expectancy_bt,2022.2.4,Win32,60.98676587,Chrome,1920,1080,,,,,0,540,,,,,,,,,,,,,,,,,F,132,star,1,0,,,,,,,,,,,,,,,,repeat,number,numRpt,j,1.0097,noRew,,,,,,0,61,0,61,0,1,,,,,,,,,,,,,,,,,
297832,2022-12-05_22h56.55.775,vts_reward_expectancy_bt,2022.2.4,Win32,60.98676587,Chrome,1920,1080,,,,,0,540,,,,,,,,,,,,,,,,,Y,167,triangle,1,0,,,,,,,,,,,,,,,,switch,letter,lettSwt,f,1.908,noRew,,,,,,0,62,0,62,0,1,,,,,,,,,,,,,,,,,
297832,2022-12-05_22h56.55.775,vts_reward_expectancy_bt,2022.2.4,Win32,60.98676587,Chrome,1920,1080,,,,,0,540,,,,,,,,,,,,,,,,,U,125,circle,1,0,,,,,,,,,,,,,,,,repeat,letter,lettRpt,f,1.0415,noRew,,,,,,0,63,0,63,0,1,,,,,,,,,,,,,,,,,
297832,2022-12-05_22h56.55.775,vts_reward_expectancy_bt,2022.2.4,Win32,60.98676587,Chrome,1920,1080,,,,,,,,,,,,,,,,,,,,,,,,,,,,,,,,,,,,,,,,,,,,,,,,,,,,,,,,,,,,,,,,,,,,,,,,,,,,
297832,2022-12-05_22h56.55.775,vts_reward_expectancy_bt,2022.2.4,Win32,60.98676587,Chrome,1920,1080,,,,,0,540,,,,,,,,,,,,,,,,,U,132,star,1,0,,,,,,,,,,,,,,,,repeat,letter,lettRpt,f,1.6111,Hi,,,,,,0,,,,,,space,11.5567,low,0,0,0,0,1,,,,,,,,,
297832,2022-12-05_22h56.55.775,vts_reward_expectancy_bt,2022.2.4,Win32,60.98676587,Chrome,1920,1080,,,,,1,541,,,,,,,,,,,,,,,,,F,181,hexagon,1,0,,,,,,,,,,,,,,,,repeat,letter,lettRpt,d,0.9825,Hi,,,,,,0,,,,,,,,low,1,0,1,0,1,,,,,,,,,
297832,2022-12-05_22h56.55.775,vts_reward_expectancy_bt,2022.2.4,Win32,60.98676587,Chrome,1920,1080,,,,,1,542,,,,,,,,,,,,,,,,,D,160,circle,1,0,,,,,,,,,,,,,,,,switch,number,numSwt,k,1.4687,Lo,,,,,,0,,,,,,,,low,2,0,2,0,1,,,,,,,,,
297832,2022-12-05_22h56.55.775,vts_reward_expectancy_bt,2022.2.4,Win32,60.98676587,Chrome,1920,1080,,,,,10,552,,,,,,,,,,,,,,,,,Y,174,triangle,1,0,,,,,,,,,,,,,,,,repeat,number,numRpt,k,0.8713,Lo,,,,,,0,,,,,,,,low,3,0,3,0,1,,,,,,,,,
297832,2022-12-05_22h56.55.775,vts_reward_expectancy_bt,2022.2.4,Win32,60.98676587,Chrome,1920,1080,,,,,0,552,,,,,,,,,,,,,,,,,B,146,star,0,0,,,,,,,,,,,,,,,,repeat,number,NA,k,1.6331,Lo,,,,,,0,,,,,,,,low,4,0,4,0,1,,,,,,,,,
297832,2022-12-05_22h56.55.775,vts_reward_expectancy_bt,2022.2.4,Win32,60.98676587,Chrome,1920,1080,,,,,0,552,,,,,,,,,,,,,,,,,W,139,hexagon,1,1,,,,,,,,,,,,,,,,switch,letter,lettSwt,f,1.6714,Hi,,,,,,0,,,,,,,,low,5,0,5,0,1,,,,,,,,,
297832,2022-12-05_22h56.55.775,vts_reward_expectancy_bt,2022.2.4,Win32,60.98676587,Chrome,1920,1080,,,,,1,553,,,,,,,,,,,,,,,,,H,167,circle,1,0,,,,,,,,,,,,,,,,switch,number,numSwt,k,1.4701,Lo,,,,,,0,,,,,,,,low,6,0,6,0,1,,,,,,,,,
297832,2022-12-05_22h56.55.775,vts_reward_expectancy_bt,2022.2.4,Win32,60.98676587,Chrome,1920,1080,,,,,1,554,,,,,,,,,,,,,,,,,S,125,triangle,1,0,,,,,,,,,,,,,,,,repeat,number,numRpt,j,1.4695,Lo,,,,,,0,,,,,,,,low,7,0,7,0,1,,,,,,,,,
297832,2022-12-05_22h56.55.775,vts_reward_expectancy_bt,2022.2.4,Win32,60.98676587,Chrome,1920,1080,,,,,0,554,,,,,,,,,,,,,,,,,U,132,hexagon,1,0,,,,,,,,,,,,,,,,repeat,number,numRpt,j,1.1497,Hi,,,,,,0,,,,,,,,low,8,0,8,0,1,,,,,,,,,
297832,2022-12-05_22h56.55.775,vts_reward_expectancy_bt,2022.2.4,Win32,60.98676587,Chrome,1920,1080,,,,,10,564,,,,,,,,,,,,,,,,,F,181,triangle,1,0,,,,,,,,,,,,,,,,switch,letter,lettSwt,d,0.9688,Lo,,,,,,0,,,,,,,,low,9,0,9,0,1,,,,,,,,,
297832,2022-12-05_22h56.55.775,vts_reward_expectancy_bt,2022.2.4,Win32,60.98676587,Chrome,1920,1080,,,,,0,564,,,,,,,,,,,,,,,,,D,160,star,1,0,,,,,,,,,,,,,,,,switch,number,numSwt,k,1.3569,Hi,,,,,,0,,,,,,,,low,10,0,10,0,1,,,,,,,,,
297832,2022-12-05_22h56.55.775,vts_reward_expectancy_bt,2022.2.4,Win32,60.98676587,Chrome,1920,1080,,,,,10,574,,,,,,,,,,,,,,,,,Y,174,circle,1,0,,,,,,,,,,,,,,,,repeat,number,numRpt,k,2.7842,Lo,,,,,,0,,,,,,,,low,11,0,11,0,1,,,,,,,,,
297832,2022-12-05_22h56.55.775,vts_reward_expectancy_bt,2022.2.4,Win32,60.98676587,Chrome,1920,1080,,,,,0,574,,,,,,,,,,,,,,,,,B,146,hexagon,1,0,,,,,,,,,,,,,,,,switch,letter,lettSwt,d,2.1861,Hi,,,,,,0,,,,,,,,low,12,0,12,0,1,,,,,,,,,
297832,2022-12-05_22h56.55.775,vts_reward_expectancy_bt,2022.2.4,Win32,60.98676587,Chrome,1920,1080,,,,,0,574,,,,,,,,,,,,,,,,,W,139,star,-1,0,,,,,,,,,,,,,,,,switch,no_choice,NA,,,Hi,,,,,,0,,,,,,,,low,13,0,13,0,1,,,,,,,,,
297832,2022-12-05_22h56.55.775,vts_reward_expectancy_bt,2022.2.4,Win32,60.98676587,Chrome,1920,1080,,,,,10,584,,,,,,,,,,,,,,,,,H,167,triangle,1,0,,,,,,,,,,,,,,,,switch,number,numSwt,k,1.9173,Lo,,,,,,0,,,,,,,,low,14,0,14,0,1,,,,,,,,,
297832,2022-12-05_22h56.55.775,vts_reward_expectancy_bt,2022.2.4,Win32,60.98676587,Chrome,1920,1080,,,,,0,584,,,,,,,,,,,,,,,,,S,125,circle,0,0,,,,,,,,,,,,,,,,switch,letter,NA,d,1.3695,Lo,,,,,,0,,,,,,,,low,15,0,15,0,1,,,,,,,,,
297832,2022-12-05_22h56.55.775,vts_reward_expectancy_bt,2022.2.4,Win32,60.98676587,Chrome,1920,1080,,,,,10,594,,,,,,,,,,,,,,,,,F,125,circle,1,1,,,,,,,,,,,,,,,,repeat,letter,lettRpt,d,2.0769,Lo,,,,,,0,,,,,,,,low,16,0,16,0,1,,,,,,,,,
297832,2022-12-05_22h56.55.775,vts_reward_expectancy_bt,2022.2.4,Win32,60.98676587,Chrome,1920,1080,,,,,0,594,,,,,,,,,,,,,,,,,W,146,hexagon,1,0,,,,,,,,,,,,,,,,switch,number,numSwt,j,1.8595,Hi,,,,,,0,,,,,,,,low,17,0,17,0,1,,,,,,,,,
297832,2022-12-05_22h56.55.775,vts_reward_expectancy_bt,2022.2.4,Win32,60.98676587,Chrome,1920,1080,,,,,1,595,,,,,,,,,,,,,,,,,H,181,star,1,0,,,,,,,,,,,,,,,,repeat,number,numRpt,k,1.0752,Hi,,,,,,0,,,,,,,,low,18,0,18,0,1,,,,,,,,,
297832,2022-12-05_22h56.55.775,vts_reward_expectancy_bt,2022.2.4,Win32,60.98676587,Chrome,1920,1080,,,,,1,596,,,,,,,,,,,,,,,,,S,160,triangle,1,0,,,,,,,,,,,,,,,,repeat,number,numRpt,k,1.2354,Lo,,,,,,0,,,,,,,,low,19,0,19,0,1,,,,,,,,,
297832,2022-12-05_22h56.55.775,vts_reward_expectancy_bt,2022.2.4,Win32,60.98676587,Chrome,1920,1080,,,,,0,596,,,,,,,,,,,,,,,,,B,139,star,1,0,,,,,,,,,,,,,,,,repeat,number,numRpt,j,1.5997,Hi,,,,,,0,,,,,,,,low,20,0,20,0,1,,,,,,,,,
297832,2022-12-05_22h56.55.775,vts_reward_expectancy_bt,2022.2.4,Win32,60.98676587,Chrome,1920,1080,,,,,1,597,,,,,,,,,,,,,,,,,Y,132,circle,1,0,,,,,,,,,,,,,,,,repeat,number,numRpt,j,1.3662,Lo,,,,,,0,,,,,,,,low,21,0,21,0,1,,,,,,,,,
297832,2022-12-05_22h56.55.775,vts_reward_expectancy_bt,2022.2.4,Win32,60.98676587,Chrome,1920,1080,,,,,1,598,,,,,,,,,,,,,,,,,D,167,triangle,1,0,,,,,,,,,,,,,,,,repeat,number,numRpt,k,1.8668,Lo,,,,,,0,,,,,,,,low,22,0,22,0,1,,,,,,,,,
297832,2022-12-05_22h56.55.775,vts_reward_expectancy_bt,2022.2.4,Win32,60.98676587,Chrome,1920,1080,,,,,0,598,,,,,,,,,,,,,,,,,U,174,hexagon,1,0,,,,,,,,,,,,,,,,repeat,number,numRpt,k,2.7753,Hi,,,,,,0,,,,,,,,low,23,0,23,0,1,,,,,,,,,
297832,2022-12-05_22h56.55.775,vts_reward_expectancy_bt,2022.2.4,Win32,60.98676587,Chrome,1920,1080,,,,,0,598,,,,,,,,,,,,,,,,,B,146,star,1,0,,,,,,,,,,,,,,,,switch,letter,lettSwt,d,1.8572,Hi,,,,,,0,,,,,,,,low,24,0,24,0,1,,,,,,,,,
297832,2022-12-05_22h56.55.775,vts_reward_expectancy_bt,2022.2.4,Win32,60.98676587,Chrome,1920,1080,,,,,0,598,,,,,,,,,,,,,,,,,F,167,circle,0,0,,,,,,,,,,,,,,,,switch,number,NA,j,1.1047,Hi,,,,,,0,,,,,,,,low,25,0,25,0,1,,,,,,,,,
297832,2022-12-05_22h56.55.775,vts_reward_expectancy_bt,2022.2.4,Win32,60.98676587,Chrome,1920,1080,,,,,0,598,,,,,,,,,,,,,,,,,U,181,hexagon,1,1,,,,,,,,,,,,,,,,switch,letter,lettSwt,f,1.1993,Hi,,,,,,0,,,,,,,,low,26,0,26,0,1,,,,,,,,,
297832,2022-12-05_22h56.55.775,vts_reward_expectancy_bt,2022.2.4,Win32,60.98676587,Chrome,1920,1080,,,,,1,599,,,,,,,,,,,,,,,,,S,160,triangle,1,0,,,,,,,,,,,,,,,,switch,number,numSwt,k,0.6987,Lo,,,,,,0,,,,,,,,low,27,0,27,0,1,,,,,,,,,
297832,2022-12-05_22h56.55.775,vts_reward_expectancy_bt,2022.2.4,Win32,60.98676587,Chrome,1920,1080,,,,,1,600,,,,,,,,,,,,,,,,,W,132,triangle,1,0,,,,,,,,,,,,,,,,switch,letter,lettSwt,f,0.7757,Lo,,,,,,0,,,,,,,,low,28,0,28,0,1,,,,,,,,,
297832,2022-12-05_22h56.55.775,vts_reward_expectancy_bt,2022.2.4,Win32,60.98676587,Chrome,1920,1080,,,,,0,600,,,,,,,,,,,,,,,,,D,139,hexagon,1,0,,,,,,,,,,,,,,,,repeat,letter,lettRpt,d,1.5877,Hi,,,,,,0,,,,,,,,low,29,0,29,0,1,,,,,,,,,
297832,2022-12-05_22h56.55.775,vts_reward_expectancy_bt,2022.2.4,Win32,60.98676587,Chrome,1920,1080,,,,,1,601,,,,,,,,,,,,,,,,,H,125,circle,1,0,,,,,,,,,,,,,,,,repeat,letter,lettRpt,d,1.5186,Lo,,,,,,0,,,,,,,,low,30,0,30,0,1,,,,,,,,,
297832,2022-12-05_22h56.55.775,vts_reward_expectancy_bt,2022.2.4,Win32,60.98676587,Chrome,1920,1080,,,,,0,601,,,,,,,,,,,,,,,,,Y,174,star,1,0,,,,,,,,,,,,,,,,switch,number,numSwt,k,1.6753,Hi,,,,,,0,,,,,,,,low,31,0,31,0,1,,,,,,,,,
297832,2022-12-05_22h56.55.775,vts_reward_expectancy_bt,2022.2.4,Win32,60.98676587,Chrome,1920,1080,,,,,0,601,,,,,,,,,,,,,,,,,B,146,star,1,0,,,,,,,,,,,,,,,,repeat,number,numRpt,j,1.5906,Hi,,,,,,1,,,,,,space,39.6676,low,0,0,0,0,1,,,,,,,,,
297832,2022-12-05_22h56.55.775,vts_reward_expectancy_bt,2022.2.4,Win32,60.98676587,Chrome,1920,1080,,,,,10,611,,,,,,,,,,,,,,,,,W,181,circle,1,0,,,,,,,,,,,,,,,,repeat,number,numRpt,k,1.3602,Lo,,,,,,1,,,,,,,,low,1,0,1,0,1,,,,,,,,,
297832,2022-12-05_22h56.55.775,vts_reward_expectancy_bt,2022.2.4,Win32,60.98676587,Chrome,1920,1080,,,,,10,621,,,,,,,,,,,,,,,,,D,160,hexagon,1,0,,,,,,,,,,,,,,,,repeat,number,numRpt,k,0.9823,Hi,,,,,,1,,,,,,,,low,2,0,2,0,1,,,,,,,,,
297832,2022-12-05_22h56.55.775,vts_reward_expectancy_bt,2022.2.4,Win32,60.98676587,Chrome,1920,1080,,,,,1,622,,,,,,,,,,,,,,,,,F,132,triangle,1,0,,,,,,,,,,,,,,,,switch,letter,lettSwt,d,0.649,Lo,,,,,,1,,,,,,,,low,3,0,3,0,1,,,,,,,,,
297832,2022-12-05_22h56.55.775,vts_reward_expectancy_bt,2022.2.4,Win32,60.98676587,Chrome,1920,1080,,,,,10,632,,,,,,,,,,,,,,,,,H,139,star,1,0,,,,,,,,,,,,,,,,switch,number,numSwt,j,0.872,Hi,,,,,,1,,,,,,,,low,4,0,4,0,1,,,,,,,,,
297832,2022-12-05_22h56.55.775,vts_reward_expectancy_bt,2022.2.4,Win32,60.98676587,Chrome,1920,1080,,,,,10,642,,,,,,,,,,,,,,,,,Y,167,circle,1,0,,,,,,,,,,,,,,,,repeat,number,numRpt,k,0.8989,Lo,,,,,,1,,,,,,,,low,5,0,5,0,1,,,,,,,,,
297832,2022-12-05_22h56.55.775,vts_reward_expectancy_bt,2022.2.4,Win32,60.98676587,Chrome,1920,1080,,,,,10,652,,,,,,,,,,,,,,,,,U,125,hexagon,1,0,,,,,,,,,,,,,,,,repeat,number,numRpt,j,0.902,Hi,,,,,,1,,,,,,,,low,6,0,6,0,1,,,,,,,,,
297832,2022-12-05_22h56.55.775,vts_reward_expectancy_bt,2022.2.4,Win32,60.98676587,Chrome,1920,1080,,,,,1,653,,,,,,,,,,,,,,,,,S,174,triangle,1,0,,,,,,,,,,,,,,,,repeat,number,numRpt,k,0.717,Lo,,,,,,1,,,,,,,,low,7,0,7,0,1,,,,,,,,,
297832,2022-12-05_22h56.55.775,vts_reward_expectancy_bt,2022.2.4,Win32,60.98676587,Chrome,1920,1080,,,,,0,653,,,,,,,,,,,,,,,,,B,146,hexagon,1,0,,,,,,,,,,,,,,,,switch,letter,lettSwt,d,1.9523,Hi,,,,,,1,,,,,,,,low,8,0,8,0,1,,,,,,,,,
297832,2022-12-05_22h56.55.775,vts_reward_expectancy_bt,2022.2.4,Win32,60.98676587,Chrome,1920,1080,,,,,10,663,,,,,,,,,,,,,,,,,W,181,circle,1,0,,,,,,,,,,,,,,,,switch,number,numSwt,k,1.3502,Lo,,,,,,1,,,,,,,,low,9,0,9,0,1,,,,,,,,,
297832,2022-12-05_22h56.55.775,vts_reward_expectancy_bt,2022.2.4,Win32,60.98676587,Chrome,1920,1080,,,,,10,673,,,,,,,,,,,,,,,,,D,160,triangle,1,0,,,,,,,,,,,,,,,,repeat,number,numRpt,k,1.5349,Lo,,,,,,1,,,,,,,,low,10,0,10,0,1,,,,,,,,,
297832,2022-12-05_22h56.55.775,vts_reward_expectancy_bt,2022.2.4,Win32,60.98676587,Chrome,1920,1080,,,,,10,683,,,,,,,,,,,,,,,,,F,132,star,1,0,,,,,,,,,,,,,,,,repeat,number,numRpt,j,0.7105,Hi,,,,,,1,,,,,,,,low,11,0,11,0,1,,,,,,,,,
297832,2022-12-05_22h56.55.775,vts_reward_expectancy_bt,2022.2.4,Win32,60.98676587,Chrome,1920,1080,,,,,1,684,,,,,,,,,,,,,,,,,H,139,circle,1,0,,,,,,,,,,,,,,,,repeat,number,numRpt,j,0.9176,Lo,,,,,,1,,,,,,,,low,12,0,12,0,1,,,,,,,,,
297832,2022-12-05_22h56.55.775,vts_reward_expectancy_bt,2022.2.4,Win32,60.98676587,Chrome,1920,1080,,,,,0,684,,,,,,,,,,,,,,,,,Y,167,star,0,0,,,,,,,,,,,,,,,,repeat,number,NA,j,0.5546,Lo,,,,,,1,,,,,,,,low,13,0,13,0,1,,,,,,,,,
297832,2022-12-05_22h56.55.775,vts_reward_expectancy_bt,2022.2.4,Win32,60.98676587,Chrome,1920,1080,,,,,1,685,,,,,,,,,,,,,,,,,U,125,triangle,1,1,,,,,,,,,,,,,,,,repeat,number,numRpt,j,1.3598,Lo,,,,,,1,,,,,,,,low,14,0,14,0,1,,,,,,,,,
297832,2022-12-05_22h56.55.775,vts_reward_expectancy_bt,2022.2.4,Win32,60.98676587,Chrome,1920,1080,,,,,10,695,,,,,,,,,,,,,,,,,S,174,hexagon,1,0,,,,,,,,,,,,,,,,repeat,number,numRpt,k,0.7236,Hi,,,,,,1,,,,,,,,low,15,0,15,0,1,,,,,,,,,
297832,2022-12-05_22h56.55.775,vts_reward_expectancy_bt,2022.2.4,Win32,60.98676587,Chrome,1920,1080,,,,,10,705,,,,,,,,,,,,,,,,,U,160,triangle,1,0,,,,,,,,,,,,,,,,repeat,number,numRpt,k,1.5855,Lo,,,,,,1,,,,,,,,low,16,0,16,0,1,,,,,,,,,
297832,2022-12-05_22h56.55.775,vts_reward_expectancy_bt,2022.2.4,Win32,60.98676587,Chrome,1920,1080,,,,,0,705,,,,,,,,,,,,,,,,,W,132,hexagon,1,0,,,,,,,,,,,,,,,,repeat,number,numRpt,j,1.692,Hi,,,,,,1,,,,,,,,low,17,0,17,0,1,,,,,,,,,
297832,2022-12-05_22h56.55.775,vts_reward_expectancy_bt,2022.2.4,Win32,60.98676587,Chrome,1920,1080,,,,,0,705,,,,,,,,,,,,,,,,,H,174,star,1,0,,,,,,,,,,,,,,,,repeat,number,numRpt,k,2.3225,Hi,,,,,,1,,,,,,,,low,18,0,18,0,1,,,,,,,,,
297832,2022-12-05_22h56.55.775,vts_reward_expectancy_bt,2022.2.4,Win32,60.98676587,Chrome,1920,1080,,,,,10,715,,,,,,,,,,,,,,,,,D,146,circle,1,0,,,,,,,,,,,,,,,,repeat,number,numRpt,j,2.0689,Lo,,,,,,1,,,,,,,,low,19,0,19,0,1,,,,,,,,,
297832,2022-12-05_22h56.55.775,vts_reward_expectancy_bt,2022.2.4,Win32,60.98676587,Chrome,1920,1080,,,,,1,716,,,,,,,,,,,,,,,,,Y,125,hexagon,1,0,,,,,,,,,,,,,,,,repeat,number,numRpt,j,0.7411,Hi,,,,,,1,,,,,,,,low,20,0,20,0,1,,,,,,,,,
297832,2022-12-05_22h56.55.775,vts_reward_expectancy_bt,2022.2.4,Win32,60.98676587,Chrome,1920,1080,,,,,10,726,,,,,,,,,,,,,,,,,S,167,circle,1,0,,,,,,,,,,,,,,,,repeat,number,numRpt,k,1.3943,Lo,,,,,,1,,,,,,,,low,21,0,21,0,1,,,,,,,,,
297832,2022-12-05_22h56.55.775,vts_reward_expectancy_bt,2022.2.4,Win32,60.98676587,Chrome,1920,1080,,,,,0,726,,,,,,,,,,,,,,,,,F,181,star,0,0,,,,,,,,,,,,,,,,repeat,number,NA,j,1.5246,Lo,,,,,,1,,,,,,,,low,22,0,22,0,1,,,,,,,,,
297832,2022-12-05_22h56.55.775,vts_reward_expectancy_bt,2022.2.4,Win32,60.98676587,Chrome,1920,1080,,,,,10,736,,,,,,,,,,,,,,,,,B,139,triangle,1,1,,,,,,,,,,,,,,,,repeat,number,numRpt,j,1.0422,Lo,,,,,,1,,,,,,,,low,23,0,23,0,1,,,,,,,,,
297832,2022-12-05_22h56.55.775,vts_reward_expectancy_bt,2022.2.4,Win32,60.98676587,Chrome,1920,1080,,,,,1,737,,,,,,,,,,,,,,,,,B,139,circle,1,0,,,,,,,,,,,,,,,,repeat,number,numRpt,j,0.9657,Lo,,,,,,1,,,,,,,,low,24,0,24,0,1,,,,,,,,,
297832,2022-12-05_22h56.55.775,vts_reward_expectancy_bt,2022.2.4,Win32,60.98676587,Chrome,1920,1080,,,,,1,738,,,,,,,,,,,,,,,,,D,167,hexagon,1,0,,,,,,,,,,,,,,,,repeat,number,numRpt,k,0.6154,Hi,,,,,,1,,,,,,,,low,25,0,25,0,1,,,,,,,,,
297832,2022-12-05_22h56.55.775,vts_reward_expectancy_bt,2022.2.4,Win32,60.98676587,Chrome,1920,1080,,,,,0,738,,,,,,,,,,,,,,,,,W,125,star,1,0,,,,,,,,,,,,,,,,repeat,number,numRpt,j,1.3206,Hi,,,,,,1,,,,,,,,low,26,0,26,0,1,,,,,,,,,
297832,2022-12-05_22h56.55.775,vts_reward_expectancy_bt,2022.2.4,Win32,60.98676587,Chrome,1920,1080,,,,,10,748,,,,,,,,,,,,,,,,,F,132,triangle,1,0,,,,,,,,,,,,,,,,repeat,number,numRpt,j,0.751,Lo,,,,,,1,,,,,,,,low,27,0,27,0,1,,,,,,,,,
297832,2022-12-05_22h56.55.775,vts_reward_expectancy_bt,2022.2.4,Win32,60.98676587,Chrome,1920,1080,,,,,0,748,,,,,,,,,,,,,,,,,Y,160,hexagon,1,0,,,,,,,,,,,,,,,,repeat,number,numRpt,k,1.4355,Hi,,,,,,1,,,,,,,,low,28,0,28,0,1,,,,,,,,,
297832,2022-12-05_22h56.55.775,vts_reward_expectancy_bt,2022.2.4,Win32,60.98676587,Chrome,1920,1080,,,,,1,749,,,,,,,,,,,,,,,,,U,181,triangle,1,0,,,,,,,,,,,,,,,,repeat,number,numRpt,k,0.8594,Lo,,,,,,1,,,,,,,,low,29,0,29,0,1,,,,,,,,,
297832,2022-12-05_22h56.55.775,vts_reward_expectancy_bt,2022.2.4,Win32,60.98676587,Chrome,1920,1080,,,,,1,750,,,,,,,,,,,,,,,,,S,174,circle,1,0,,,,,,,,,,,,,,,,repeat,number,numRpt,k,0.6914,Lo,,,,,,1,,,,,,,,low,30,0,30,0,1,,,,,,,,,
297832,2022-12-05_22h56.55.775,vts_reward_expectancy_bt,2022.2.4,Win32,60.98676587,Chrome,1920,1080,,,,,1,751,,,,,,,,,,,,,,,,,H,146,star,1,0,,,,,,,,,,,,,,,,repeat,number,numRpt,j,0.8827,Hi,,,,,,1,,,,,,,,low,31,0,31,0,1,,,,,,,,,
297832,2022-12-05_22h56.55.775,vts_reward_expectancy_bt,2022.2.4,Win32,60.98676587,Chrome,1920,1080,,,,,0,751,,,,,,,,,,,,,,,,,F,181,star,1,0,,,,,,,,,,,,,,,,repeat,number,numRpt,k,1.1996,Hi,,,,,,2,,,,,,space,58.837,low,0,0,0,0,1,,,,,,,,,
297832,2022-12-05_22h56.55.775,vts_reward_expectancy_bt,2022.2.4,Win32,60.98676587,Chrome,1920,1080,,,,,10,761,,,,,,,,,,,,,,,,,W,139,triangle,1,0,,,,,,,,,,,,,,,,repeat,number,numRpt,j,1.9584,Lo,,,,,,2,,,,,,,,low,1,0,1,0,1,,,,,,,,,
297832,2022-12-05_22h56.55.775,vts_reward_expectancy_bt,2022.2.4,Win32,60.98676587,Chrome,1920,1080,,,,,10,771,,,,,,,,,,,,,,,,,H,167,hexagon,1,0,,,,,,,,,,,,,,,,repeat,number,numRpt,k,0.7227,Hi,,,,,,2,,,,,,,,low,2,0,2,0,1,,,,,,,,,
297832,2022-12-05_22h56.55.775,vts_reward_expectancy_bt,2022.2.4,Win32,60.98676587,Chrome,1920,1080,,,,,1,772,,,,,,,,,,,,,,,,,U,160,circle,1,0,,,,,,,,,,,,,,,,repeat,number,numRpt,k,0.8159,Lo,,,,,,2,,,,,,,,low,3,0,3,0,1,,,,,,,,,
297832,2022-12-05_22h56.55.775,vts_reward_expectancy_bt,2022.2.4,Win32,60.98676587,Chrome,1920,1080,,,,,0,772,,,,,,,,,,,,,,,,,D,146,star,1,0,,,,,,,,,,,,,,,,repeat,number,numRpt,j,1.3697,Hi,,,,,,2,,,,,,,,low,4,0,4,0,1,,,,,,,,,
297832,2022-12-05_22h56.55.775,vts_reward_expectancy_bt,2022.2.4,Win32,60.98676587,Chrome,1920,1080,,,,,1,773,,,,,,,,,,,,,,,,,S,174,triangle,1,0,,,,,,,,,,,,,,,,repeat,number,numRpt,k,1.1829,Lo,,,,,,2,,,,,,,,low,5,0,5,0,1,,,,,,,,,
297832,2022-12-05_22h56.55.775,vts_reward_expectancy_bt,2022.2.4,Win32,60.98676587,Chrome,1920,1080,,,,,10,783,,,,,,,,,,,,,,,,,Y,125,hexagon,1,0,,,,,,,,,,,,,,,,repeat,number,numRpt,j,0.7437,Hi,,,,,,2,,,,,,,,low,6,0,6,0,1,,,,,,,,,
297832,2022-12-05_22h56.55.775,vts_reward_expectancy_bt,2022.2.4,Win32,60.98676587,Chrome,1920,1080,,,,,1,784,,,,,,,,,,,,,,,,,B,132,circle,1,0,,,,,,,,,,,,,,,,repeat,number,numRpt,j,1.0326,Lo,,,,,,2,,,,,,,,low,7,0,7,0,1,,,,,,,,,
297832,2022-12-05_22h56.55.775,vts_reward_expectancy_bt,2022.2.4,Win32,60.98676587,Chrome,1920,1080,,,,,10,794,,,,,,,,,,,,,,,,,F,181,star,1,0,,,,,,,,,,,,,,,,repeat,number,numRpt,k,0.6326,Hi,,,,,,2,,,,,,,,low,8,0,8,0,1,,,,,,,,,
297832,2022-12-05_22h56.55.775,vts_reward_expectancy_bt,2022.2.4,Win32,60.98676587,Chrome,1920,1080,,,,,1,795,,,,,,,,,,,,,,,,,W,139,triangle,1,0,,,,,,,,,,,,,,,,repeat,number,numRpt,j,0.7271,Lo,,,,,,2,,,,,,,,low,9,0,9,0,1,,,,,,,,,
297832,2022-12-05_22h56.55.775,vts_reward_expectancy_bt,2022.2.4,Win32,60.98676587,Chrome,1920,1080,,,,,10,805,,,,,,,,,,,,,,,,,H,167,hexagon,1,0,,,,,,,,,,,,,,,,repeat,number,numRpt,k,0.8051,Hi,,,,,,2,,,,,,,,low,10,0,10,0,1,,,,,,,,,
297832,2022-12-05_22h56.55.775,vts_reward_expectancy_bt,2022.2.4,Win32,60.98676587,Chrome,1920,1080,,,,,0,805,,,,,,,,,,,,,,,,,U,160,circle,0,0,,,,,,,,,,,,,,,,repeat,number,NA,j,0.9277,Hi,,,,,,2,,,,,,,,low,11,0,11,0,1,,,,,,,,,
297832,2022-12-05_22h56.55.775,vts_reward_expectancy_bt,2022.2.4,Win32,60.98676587,Chrome,1920,1080,,,,,1,806,,,,,,,,,,,,,,,,,D,146,star,1,1,,,,,,,,,,,,,,,,repeat,number,numRpt,j,0.885,Hi,,,,,,2,,,,,,,,low,12,0,12,0,1,,,,,,,,,
297832,2022-12-05_22h56.55.775,vts_reward_expectancy_bt,2022.2.4,Win32,60.98676587,Chrome,1920,1080,,,,,10,816,,,,,,,,,,,,,,,,,S,174,triangle,1,0,,,,,,,,,,,,,,,,repeat,number,numRpt,k,0.7328,Lo,,,,,,2,,,,,,,,low,13,0,13,0,1,,,,,,,,,
297832,2022-12-05_22h56.55.775,vts_reward_expectancy_bt,2022.2.4,Win32,60.98676587,Chrome,1920,1080,,,,,1,817,,,,,,,,,,,,,,,,,Y,125,circle,1,0,,,,,,,,,,,,,,,,repeat,number,numRpt,j,0.8097,Lo,,,,,,2,,,,,,,,low,14,0,14,0,1,,,,,,,,,
297832,2022-12-05_22h56.55.775,vts_reward_expectancy_bt,2022.2.4,Win32,60.98676587,Chrome,1920,1080,,,,,1,818,,,,,,,,,,,,,,,,,B,132,hexagon,1,0,,,,,,,,,,,,,,,,repeat,number,numRpt,j,0.7082,Hi,,,,,,2,,,,,,,,low,15,0,15,0,1,,,,,,,,,
297832,2022-12-05_22h56.55.775,vts_reward_expectancy_bt,2022.2.4,Win32,60.98676587,Chrome,1920,1080,,,,,1,819,,,,,,,,,,,,,,,,,Y,160,hexagon,1,0,,,,,,,,,,,,,,,,repeat,number,numRpt,k,0.6009,Hi,,,,,,2,,,,,,,,low,16,0,16,0,1,,,,,,,,,
297832,2022-12-05_22h56.55.775,vts_reward_expectancy_bt,2022.2.4,Win32,60.98676587,Chrome,1920,1080,,,,,10,829,,,,,,,,,,,,,,,,,W,146,triangle,1,0,,,,,,,,,,,,,,,,repeat,number,numRpt,j,0.9183,Lo,,,,,,2,,,,,,,,low,17,0,17,0,1,,,,,,,,,
297832,2022-12-05_22h56.55.775,vts_reward_expectancy_bt,2022.2.4,Win32,60.98676587,Chrome,1920,1080,,,,,1,830,,,,,,,,,,,,,,,,,B,139,circle,1,0,,,,,,,,,,,,,,,,repeat,number,numRpt,j,1.0192,Lo,,,,,,2,,,,,,,,low,18,0,18,0,1,,,,,,,,,
297832,2022-12-05_22h56.55.775,vts_reward_expectancy_bt,2022.2.4,Win32,60.98676587,Chrome,1920,1080,,,,,10,840,,,,,,,,,,,,,,,,,D,181,star,1,0,,,,,,,,,,,,,,,,repeat,number,numRpt,k,0.8154,Hi,,,,,,2,,,,,,,,low,19,0,19,0,1,,,,,,,,,
297832,2022-12-05_22h56.55.775,vts_reward_expectancy_bt,2022.2.4,Win32,60.98676587,Chrome,1920,1080,,,,,0,840,,,,,,,,,,,,,,,,,U,174,hexagon,1,0,,,,,,,,,,,,,,,,repeat,number,numRpt,k,0.9185,Hi,,,,,,2,,,,,,,,low,20,0,20,0,1,,,,,,,,,
297832,2022-12-05_22h56.55.775,vts_reward_expectancy_bt,2022.2.4,Win32,60.98676587,Chrome,1920,1080,,,,,10,850,,,,,,,,,,,,,,,,,F,132,star,1,0,,,,,,,,,,,,,,,,repeat,number,numRpt,j,0.6208,Hi,,,,,,2,,,,,,,,low,21,0,21,0,1,,,,,,,,,
297832,2022-12-05_22h56.55.775,vts_reward_expectancy_bt,2022.2.4,Win32,60.98676587,Chrome,1920,1080,,,,,10,860,,,,,,,,,,,,,,,,,H,125,triangle,1,0,,,,,,,,,,,,,,,,repeat,number,numRpt,j,0.6067,Lo,,,,,,2,,,,,,,,low,22,0,22,0,1,,,,,,,,,
297832,2022-12-05_22h56.55.775,vts_reward_expectancy_bt,2022.2.4,Win32,60.98676587,Chrome,1920,1080,,,,,1,861,,,,,,,,,,,,,,,,,S,167,circle,1,0,,,,,,,,,,,,,,,,repeat,number,numRpt,k,0.8658,Lo,,,,,,2,,,,,,,,low,23,0,23,0,1,,,,,,,,,
297832,2022-12-05_22h56.55.775,vts_reward_expectancy_bt,2022.2.4,Win32,60.98676587,Chrome,1920,1080,,,,,0,861,,,,,,,,,,,,,,,,,F,167,hexagon,1,0,,,,,,,,,,,,,,,,repeat,number,numRpt,k,1.149,Hi,,,,,,2,,,,,,,,low,24,0,24,0,1,,,,,,,,,
297832,2022-12-05_22h56.55.775,vts_reward_expectancy_bt,2022.2.4,Win32,60.98676587,Chrome,1920,1080,,,,,1,862,,,,,,,,,,,,,,,,,W,181,triangle,1,0,,,,,,,,,,,,,,,,repeat,number,numRpt,k,0.7574,Lo,,,,,,2,,,,,,,,low,25,0,25,0,1,,,,,,,,,
297832,2022-12-05_22h56.55.775,vts_reward_expectancy_bt,2022.2.4,Win32,60.98676587,Chrome,1920,1080,,,,,1,863,,,,,,,,,,,,,,,,,B,125,star,1,0,,,,,,,,,,,,,,,,repeat,number,numRpt,j,0.8343,Hi,,,,,,2,,,,,,,,low,26,0,26,0,1,,,,,,,,,
297832,2022-12-05_22h56.55.775,vts_reward_expectancy_bt,2022.2.4,Win32,60.98676587,Chrome,1920,1080,,,,,0,863,,,,,,,,,,,,,,,,,U,174,circle,0,0,,,,,,,,,,,,,,,,repeat,number,NA,j,1.323,Hi,,,,,,2,,,,,,,,low,27,0,27,0,1,,,,,,,,,
297832,2022-12-05_22h56.55.775,vts_reward_expectancy_bt,2022.2.4,Win32,60.98676587,Chrome,1920,1080,,,,,0,863,,,,,,,,,,,,,,,,,H,146,hexagon,1,1,,,,,,,,,,,,,,,,repeat,number,numRpt,j,1.1362,Hi,,,,,,2,,,,,,,,low,28,0,28,0,1,,,,,,,,,
297832,2022-12-05_22h56.55.775,vts_reward_expectancy_bt,2022.2.4,Win32,60.98676587,Chrome,1920,1080,,,,,1,864,,,,,,,,,,,,,,,,,D,132,star,1,0,,,,,,,,,,,,,,,,repeat,number,numRpt,j,0.6848,Hi,,,,,,2,,,,,,,,low,29,0,29,0,1,,,,,,,,,
297832,2022-12-05_22h56.55.775,vts_reward_expectancy_bt,2022.2.4,Win32,60.98676587,Chrome,1920,1080,,,,,10,874,,,,,,,,,,,,,,,,,S,160,triangle,1,0,,,,,,,,,,,,,,,,repeat,number,numRpt,k,0.6365,Lo,,,,,,2,,,,,,,,low,30,0,30,0,1,,,,,,,,,
297832,2022-12-05_22h56.55.775,vts_reward_expectancy_bt,2022.2.4,Win32,60.98676587,Chrome,1920,1080,,,,,10,884,,,,,,,,,,,,,,,,,Y,139,circle,1,0,,,,,,,,,,,,,,,,repeat,number,numRpt,j,2.5897,Lo,,,,,,2,,,,,,,,low,31,0,31,0,1,,,,,,,,,
297832,2022-12-05_22h56.55.775,vts_reward_expectancy_bt,2022.2.4,Win32,60.98676587,Chrome,1920,1080,,,,,1,885,,,,,,,,,,,,,,,,,S,146,triangle,1,0,,,,,,,,,,,,,,,,repeat,number,numRpt,j,0.589,Lo,,,,,,3,,,,,,space,2.384,low,0,0,0,0,1,,,,,,,,,
297832,2022-12-05_22h56.55.775,vts_reward_expectancy_bt,2022.2.4,Win32,60.98676587,Chrome,1920,1080,,,,,0,885,,,,,,,,,,,,,,,,,U,181,hexagon,0,0,,,,,,,,,,,,,,,,repeat,number,NA,j,0.0819,Lo,,,,,,3,,,,,,,,low,1,0,1,0,1,,,,,,,,,
297832,2022-12-05_22h56.55.775,vts_reward_expectancy_bt,2022.2.4,Win32,60.98676587,Chrome,1920,1080,,,,,10,895,,,,,,,,,,,,,,,,,D,125,circle,1,1,,,,,,,,,,,,,,,,repeat,number,numRpt,j,0.0571,Lo,,,,,,3,,,,,,,,low,2,0,2,0,1,,,,,,,,,
297832,2022-12-05_22h56.55.775,vts_reward_expectancy_bt,2022.2.4,Win32,60.98676587,Chrome,1920,1080,,,,,1,896,,,,,,,,,,,,,,,,,F,139,star,1,0,,,,,,,,,,,,,,,,repeat,number,numRpt,j,0.0338,Hi,,,,,,3,,,,,,,,low,3,0,3,0,1,,,,,,,,,
297832,2022-12-05_22h56.55.775,vts_reward_expectancy_bt,2022.2.4,Win32,60.98676587,Chrome,1920,1080,,,,,0,896,,,,,,,,,,,,,,,,,Y,174,triangle,0,0,,,,,,,,,,,,,,,,repeat,number,NA,j,0.1398,Hi,,,,,,3,,,,,,,,low,4,0,4,0,1,,,,,,,,,
297832,2022-12-05_22h56.55.775,vts_reward_expectancy_bt,2022.2.4,Win32,60.98676587,Chrome,1920,1080,,,,,10,906,,,,,,,,,,,,,,,,,B,167,hexagon,1,1,,,,,,,,,,,,,,,,repeat,number,numRpt,k,0.0173,Hi,,,,,,3,,,,,,,,low,5,0,5,0,1,,,,,,,,,
297832,2022-12-05_22h56.55.775,vts_reward_expectancy_bt,2022.2.4,Win32,60.98676587,Chrome,1920,1080,,,,,0,906,,,,,,,,,,,,,,,,,W,132,circle,0,0,,,,,,,,,,,,,,,,repeat,number,NA,k,0.015,Hi,,,,,,3,,,,,,,,low,6,0,6,0,1,,,,,,,,,
297832,2022-12-05_22h56.55.775,vts_reward_expectancy_bt,2022.2.4,Win32,60.98676587,Chrome,1920,1080,,,,,1,907,,,,,,,,,,,,,,,,,H,160,star,1,1,,,,,,,,,,,,,,,,repeat,number,numRpt,k,0.1188,Hi,,,,,,3,,,,,,,,low,7,0,7,0,1,,,,,,,,,
297832,2022-12-05_22h56.55.775,vts_reward_expectancy_bt,2022.2.4,Win32,60.98676587,Chrome,1920,1080,,,,,0,907,,,,,,,,,,,,,,,,,S,146,hexagon,0,0,,,,,,,,,,,,,,,,repeat,number,NA,k,0.0003,Hi,,,,,,3,,,,,,,,low,8,0,8,0,1,,,,,,,,,
297832,2022-12-05_22h56.55.775,vts_reward_expectancy_bt,2022.2.4,Win32,60.98676587,Chrome,1920,1080,,,,,10,917,,,,,,,,,,,,,,,,,U,181,star,1,1,,,,,,,,,,,,,,,,repeat,number,numRpt,k,0.0405,Hi,,,,,,3,,,,,,,,low,9,0,9,0,1,,,,,,,,,
297832,2022-12-05_22h56.55.775,vts_reward_expectancy_bt,2022.2.4,Win32,60.98676587,Chrome,1920,1080,,,,,0,917,,,,,,,,,,,,,,,,,D,125,circle,0,0,,,,,,,,,,,,,,,,repeat,number,NA,k,0.0506,Hi,,,,,,3,,,,,,,,low,10,0,10,0,1,,,,,,,,,
297832,2022-12-05_22h56.55.775,vts_reward_expectancy_bt,2022.2.4,Win32,60.98676587,Chrome,1920,1080,,,,,10,927,,,,,,,,,,,,,,,,,F,139,triangle,1,1,,,,,,,,,,,,,,,,repeat,number,numRpt,j,0.1557,Lo,,,,,,3,,,,,,,,low,11,0,11,0,1,,,,,,,,,
297832,2022-12-05_22h56.55.775,vts_reward_expectancy_bt,2022.2.4,Win32,60.98676587,Chrome,1920,1080,,,,,0,927,,,,,,,,,,,,,,,,,Y,174,circle,0,0,,,,,,,,,,,,,,,,repeat,number,NA,j,0.1315,Lo,,,,,,3,,,,,,,,low,12,0,12,0,1,,,,,,,,,
297832,2022-12-05_22h56.55.775,vts_reward_expectancy_bt,2022.2.4,Win32,60.98676587,Chrome,1920,1080,,,,,0,927,,,,,,,,,,,,,,,,,B,167,star,0,1,,,,,,,,,,,,,,,,repeat,number,NA,j,0.1508,Lo,,,,,,3,,,,,,,,low,13,0,13,0,1,,,,,,,,,
297832,2022-12-05_22h56.55.775,vts_reward_expectancy_bt,2022.2.4,Win32,60.98676587,Chrome,1920,1080,,,,,1,928,,,,,,,,,,,,,,,,,W,132,triangle,1,1,,,,,,,,,,,,,,,,repeat,number,numRpt,j,0.0922,Lo,,,,,,3,,,,,,,,low,14,0,14,0,1,,,,,,,,,
297832,2022-12-05_22h56.55.775,vts_reward_expectancy_bt,2022.2.4,Win32,60.98676587,Chrome,1920,1080,,,,,0,928,,,,,,,,,,,,,,,,,H,160,hexagon,0,0,,,,,,,,,,,,,,,,repeat,number,NA,j,0.4518,Lo,,,,,,3,,,,,,,,low,15,0,15,0,1,,,,,,,,,
297832,2022-12-05_22h56.55.775,vts_reward_expectancy_bt,2022.2.4,Win32,60.98676587,Chrome,1920,1080,,,,,10,938,,,,,,,,,,,,,,,,,U,181,hexagon,1,1,,,,,,,,,,,,,,,,repeat,number,numRpt,k,0.0004,Hi,,,,,,3,,,,,,,,low,16,0,16,0,1,,,,,,,,,
297832,2022-12-05_22h56.55.775,vts_reward_expectancy_bt,2022.2.4,Win32,60.98676587,Chrome,1920,1080,,,,,0,938,,,,,,,,,,,,,,,,,B,146,circle,0,0,,,,,,,,,,,,,,,,repeat,number,NA,k,0.3172,Hi,,,,,,3,,,,,,,,low,17,0,17,0,1,,,,,,,,,
297832,2022-12-05_22h56.55.775,vts_reward_expectancy_bt,2022.2.4,Win32,60.98676587,Chrome,1920,1080,,,,,0,938,,,,,,,,,,,,,,,,,F,139,star,0,1,,,,,,,,,,,,,,,,repeat,number,NA,k,0.3102,Hi,,,,,,3,,,,,,,,low,18,0,18,0,1,,,,,,,,,
297832,2022-12-05_22h56.55.775,vts_reward_expectancy_bt,2022.2.4,Win32,60.98676587,Chrome,1920,1080,,,,,0,938,,,,,,,,,,,,,,,,,S,125,triangle,0,1,,,,,,,,,,,,,,,,repeat,number,NA,k,0.117,Hi,,,,,,3,,,,,,,,low,19,0,19,0,1,,,,,,,,,
297832,2022-12-05_22h56.55.775,vts_reward_expectancy_bt,2022.2.4,Win32,60.98676587,Chrome,1920,1080,,,,,0,938,,,,,,,,,,,,,,,,,H,132,circle,0,1,,,,,,,,,,,,,,,,repeat,number,NA,k,0.092,Hi,,,,,,3,,,,,,,,low,20,0,20,0,1,,,,,,,,,
297832,2022-12-05_22h56.55.775,vts_reward_expectancy_bt,2022.2.4,Win32,60.98676587,Chrome,1920,1080,,,,,0,938,,,,,,,,,,,,,,,,,D,174,hexagon,0,1,,,,,,,,,,,,,,,,repeat,number,NA,j,0.0843,Hi,,,,,,3,,,,,,,,low,21,0,21,0,1,,,,,,,,,
297832,2022-12-05_22h56.55.775,vts_reward_expectancy_bt,2022.2.4,Win32,60.98676587,Chrome,1920,1080,,,,,0,938,,,,,,,,,,,,,,,,,W,160,star,0,1,,,,,,,,,,,,,,,,repeat,number,NA,j,0.0599,Hi,,,,,,3,,,,,,,,low,22,0,22,0,1,,,,,,,,,
297832,2022-12-05_22h56.55.775,vts_reward_expectancy_bt,2022.2.4,Win32,60.98676587,Chrome,1920,1080,,,,,1,939,,,,,,,,,,,,,,,,,Y,167,triangle,1,1,,,,,,,,,,,,,,,,repeat,number,numRpt,k,0.0529,Lo,,,,,,3,,,,,,,,low,23,0,23,0,1,,,,,,,,,
297832,2022-12-05_22h56.55.775,vts_reward_expectancy_bt,2022.2.4,Win32,60.98676587,Chrome,1920,1080,,,,,0,939,,,,,,,,,,,,,,,,,U,181,star,0,0,,,,,,,,,,,,,,,,repeat,number,NA,j,0.065,Lo,,,,,,3,,,,,,,,low,24,0,24,0,1,,,,,,,,,
297832,2022-12-05_22h56.55.775,vts_reward_expectancy_bt,2022.2.4,Win32,60.98676587,Chrome,1920,1080,,,,,10,949,,,,,,,,,,,,,,,,,B,125,circle,1,1,,,,,,,,,,,,,,,,repeat,number,numRpt,j,0.0552,Lo,,,,,,3,,,,,,,,low,25,0,25,0,1,,,,,,,,,
297832,2022-12-05_22h56.55.775,vts_reward_expectancy_bt,2022.2.4,Win32,60.98676587,Chrome,1920,1080,,,,,1,950,,,,,,,,,,,,,,,,,D,167,triangle,1,0,,,,,,,,,,,,,,,,repeat,number,numRpt,k,0.1602,Lo,,,,,,3,,,,,,,,low,26,0,26,0,1,,,,,,,,,
297832,2022-12-05_22h56.55.775,vts_reward_expectancy_bt,2022.2.4,Win32,60.98676587,Chrome,1920,1080,,,,,10,960,,,,,,,,,,,,,,,,,S,146,hexagon,1,0,,,,,,,,,,,,,,,,repeat,number,numRpt,j,0.1007,Hi,,,,,,3,,,,,,,,low,27,0,27,0,1,,,,,,,,,
297832,2022-12-05_22h56.55.775,vts_reward_expectancy_bt,2022.2.4,Win32,60.98676587,Chrome,1920,1080,,,,,0,960,,,,,,,,,,,,,,,,,H,139,triangle,0,0,,,,,,,,,,,,,,,,repeat,number,NA,k,0.0484,Hi,,,,,,3,,,,,,,,low,28,0,28,0,1,,,,,,,,,
297832,2022-12-05_22h56.55.775,vts_reward_expectancy_bt,2022.2.4,Win32,60.98676587,Chrome,1920,1080,,,,,0,960,,,,,,,,,,,,,,,,,Y,160,hexagon,0,1,,,,,,,,,,,,,,,,repeat,number,NA,j,0.0375,Hi,,,,,,3,,,,,,,,low,29,0,29,0,1,,,,,,,,,
297832,2022-12-05_22h56.55.775,vts_reward_expectancy_bt,2022.2.4,Win32,60.98676587,Chrome,1920,1080,,,,,10,970,,,,,,,,,,,,,,,,,W,174,circle,1,1,,,,,,,,,,,,,,,,repeat,number,numRpt,k,0.0315,Lo,,,,,,3,,,,,,,,low,30,0,30,0,1,,,,,,,,,
297832,2022-12-05_22h56.55.775,vts_reward_expectancy_bt,2022.2.4,Win32,60.98676587,Chrome,1920,1080,,,,,10,980,,,,,,,,,,,,,,,,,F,132,star,1,0,,,,,,,,,,,,,,,,switch,letter,lettSwt,d,0.0004,Hi,,,,,,3,,,,,,,,low,31,0,31,0,1,,,,,,,,,
297832,2022-12-05_22h56.55.775,vts_reward_expectancy_bt,2022.2.4,Win32,60.98676587,Chrome,1920,1080,,,,,1,981,,,,,,,,,,,,,,,,,W,174,hexagon,1,0,,,,,,,,,,,,,,,,repeat,letter,lettRpt,f,0.5845,Hi,,,,,,4,,,,,,space,2.3973,low,0,0,0,0,1,,,,,,,,,
297832,2022-12-05_22h56.55.775,vts_reward_expectancy_bt,2022.2.4,Win32,60.98676587,Chrome,1920,1080,,,,,0,981,,,,,,,,,,,,,,,,,F,146,circle,0,0,,,,,,,,,,,,,,,,repeat,letter,NA,f,0.0591,Hi,,,,,,4,,,,,,,,low,1,0,1,0,1,,,,,,,,,
297832,2022-12-05_22h56.55.775,vts_reward_expectancy_bt,2022.2.4,Win32,60.98676587,Chrome,1920,1080,,,,,1,982,,,,,,,,,,,,,,,,,U,167,star,1,1,,,,,,,,,,,,,,,,switch,number,numSwt,k,0.0685,Hi,,,,,,4,,,,,,,,low,2,0,2,0,1,,,,,,,,,
297832,2022-12-05_22h56.55.775,vts_reward_expectancy_bt,2022.2.4,Win32,60.98676587,Chrome,1920,1080,,,,,0,982,,,,,,,,,,,,,,,,,H,125,triangle,0,0,,,,,,,,,,,,,,,,switch,letter,NA,f,0.0145,Hi,,,,,,4,,,,,,,,low,3,0,3,0,1,,,,,,,,,
297832,2022-12-05_22h56.55.775,vts_reward_expectancy_bt,2022.2.4,Win32,60.98676587,Chrome,1920,1080,,,,,0,982,,,,,,,,,,,,,,,,,B,132,hexagon,0,1,,,,,,,,,,,,,,,,switch,number,NA,k,0.1197,Hi,,,,,,4,,,,,,,,low,4,0,4,0,1,,,,,,,,,
297832,2022-12-05_22h56.55.775,vts_reward_expectancy_bt,2022.2.4,Win32,60.98676587,Chrome,1920,1080,,,,,0,982,,,,,,,,,,,,,,,,,D,139,circle,0,1,,,,,,,,,,,,,,,,repeat,number,NA,k,0.1743,Hi,,,,,,4,,,,,,,,low,5,0,5,0,1,,,,,,,,,
297832,2022-12-05_22h56.55.775,vts_reward_expectancy_bt,2022.2.4,Win32,60.98676587,Chrome,1920,1080,,,,,0,982,,,,,,,,,,,,,,,,,S,181,star,0,1,,,,,,,,,,,,,,,,switch,letter,NA,d,0.1002,Hi,,,,,,4,,,,,,,,low,6,0,6,0,1,,,,,,,,,
297832,2022-12-05_22h56.55.775,vts_reward_expectancy_bt,2022.2.4,Win32,60.98676587,Chrome,1920,1080,,,,,0,982,,,,,,,,,,,,,,,,,Y,160,triangle,0,1,,,,,,,,,,,,,,,,repeat,letter,NA,d,0.3316,Hi,,,,,,4,,,,,,,,low,7,0,7,0,1,,,,,,,,,
297832,2022-12-05_22h56.55.775,vts_reward_expectancy_bt,2022.2.4,Win32,60.98676587,Chrome,1920,1080,,,,,0,982,,,,,,,,,,,,,,,,,W,174,hexagon,0,1,,,,,,,,,,,,,,,,repeat,letter,NA,d,0.007,Hi,,,,,,4,,,,,,,,low,8,0,8,0,1,,,,,,,,,
297832,2022-12-05_22h56.55.775,vts_reward_expectancy_bt,2022.2.4,Win32,60.98676587,Chrome,1920,1080,,,,,0,982,,,,,,,,,,,,,,,,,F,146,star,0,1,,,,,,,,,,,,,,,,switch,number,NA,k,0.1145,Hi,,,,,,4,,,,,,,,low,9,0,9,0,1,,,,,,,,,
297832,2022-12-05_22h56.55.775,vts_reward_expectancy_bt,2022.2.4,Win32,60.98676587,Chrome,1920,1080,,,,,1,983,,,,,,,,,,,,,,,,,U,167,triangle,1,1,,,,,,,,,,,,,,,,switch,letter,lettSwt,f,0.1696,Lo,,,,,,4,,,,,,,,low,10,0,10,0,1,,,,,,,,,
297832,2022-12-05_22h56.55.775,vts_reward_expectancy_bt,2022.2.4,Win32,60.98676587,Chrome,1920,1080,,,,,0,983,,,,,,,,,,,,,,,,,H,125,circle,0,0,,,,,,,,,,,,,,,,repeat,letter,NA,f,0.0148,Lo,,,,,,4,,,,,,,,low,11,0,11,0,1,,,,,,,,,
297832,2022-12-05_22h56.55.775,vts_reward_expectancy_bt,2022.2.4,Win32,60.98676587,Chrome,1920,1080,,,,,0,983,,,,,,,,,,,,,,,,,B,132,star,0,1,,,,,,,,,,,,,,,,switch,number,NA,k,0.1198,Lo,,,,,,4,,,,,,,,low,12,0,12,0,1,,,,,,,,,
297832,2022-12-05_22h56.55.775,vts_reward_expectancy_bt,2022.2.4,Win32,60.98676587,Chrome,1920,1080,,,,,10,993,,,,,,,,,,,,,,,,,D,139,triangle,1,1,,,,,,,,,,,,,,,,repeat,number,numRpt,j,0.2706,Lo,,,,,,4,,,,,,,,low,13,0,13,0,1,,,,,,,,,
297832,2022-12-05_22h56.55.775,vts_reward_expectancy_bt,2022.2.4,Win32,60.98676587,Chrome,1920,1080,,,,,1,994,,,,,,,,,,,,,,,,,S,181,circle,1,0,,,,,,,,,,,,,,,,switch,letter,lettSwt,f,0.0485,Lo,,,,,,4,,,,,,,,low,14,0,14,0,1,,,,,,,,,
297832,2022-12-05_22h56.55.775,vts_reward_expectancy_bt,2022.2.4,Win32,60.98676587,Chrome,1920,1080,,,,,0,994,,,,,,,,,,,,,,,,,Y,160,hexagon,0,0,,,,,,,,,,,,,,,,repeat,letter,NA,d,0.0246,Lo,,,,,,4,,,,,,,,low,15,0,15,0,1,,,,,,,,,
