participant,date,expName,psychopyVersion,OS,frameRate,browser,xResolution,yResolution,key_resp.keys,key_resp.rt,training_resp.keys,training_resp.rt,points_trial,points_cumul,trainBlock,training.thisRepN,training.thisTrialN,training.thisN,training.thisIndex,training.ran,LTriangleOpac,LCircleOpac,LHexagonOpac,LStarOpac,RTriangleOpac,RCircleOpac,RHexagonOpac,RStarOpac,LShape_ID,RShape_ID,curr_topStim,curr_bottStim,curr_shape,acc,E1,target_resp_prac1.keys,target_resp_prac1.rt,pracBlock,task1_prac_trials.thisRepN,task1_prac_trials.thisTrialN,task1_prac_trials.thisN,task1_prac_trials.thisIndex,task1_prac_trials.ran,target_resp_prac2.keys,target_resp_prac2.rt,task2_praac_trials.thisRepN,task2_praac_trials.thisTrialN,task2_praac_trials.thisN,task2_praac_trials.thisIndex,task2_praac_trials.ran,alt,task,condition,target_resp.keys,rewCond,vts_practice_trials.thisRepN,vts_practice_trials.thisTrialN,vts_practice_trials.thisN,vts_practice_trials.thisIndex,vts_practice_trials.ran,target_resp.rt,blockNum,trials_norew.thisRepN,trials_norew.thisTrialN,trials_norew.thisN,trials_norew.thisIndex,trials_norew.ran,key_resp_2.keys,key_resp_2.rt,rewExpectancy,trials_rew.thisRepN,trials_rew.thisTrialN,trials_rew.thisN,trials_rew.thisIndex,trials_rew.ran,Q1,Q2,Q2_text,Q3,Q4,Q5_text,Q5,xRes,yRes
297886,2022-12-02_11h37.18.329,vts_reward_expectancy_bt,2022.2.4,MacIntel,60.0024001,Chrome,1440,900,,,,,,,,,,,,,,,,,,,,,,,,,,,,,,,,,,,,,,,,,,,,,,,,,,,,,,,,,,,,,,,,,,,,,,,,,,,,
297886,2022-12-02_11h37.18.329,vts_reward_expectancy_bt,2022.2.4,MacIntel,60.0024001,Chrome,1440,900,space,1.7352,,,,,,,,,,,,,,,,,,,,,,,,,,,,,,,,,,,,,,,,,,,,,,,,,,,,,,,,,,,,,,,,,,,,,,,,,,
297886,2022-12-02_11h37.18.329,vts_reward_expectancy_bt,2022.2.4,MacIntel,60.0024001,Chrome,1440,900,,,,,,,,,,,,,,,,,,,,,,,,,,,,,,,,,,,,,,,,,,,,,,,,,,,,,,,,,,,,,,,,,,,,,,,,,,,,
297886,2022-12-02_11h37.18.329,vts_reward_expectancy_bt,2022.2.4,MacIntel,60.0024001,Chrome,1440,900,,,a,1.3897,0,0,0,0,0,0,10,1,0,0,0,1,0,1,0,0,star ,circle,,,,,,,,,,,,,,,,,,,,,,,,,,,,,,,,,,,,,,,,,,,,,,,,,,,,,,
297886,2022-12-02_11h37.18.329,vts_reward_expectancy_bt,2022.2.4,MacIntel,60.0024001,Chrome,1440,900,,,l,0.3007,10,10,0,0,1,1,8,1,0,0,1,0,0,0,0,1,hexagon,star,,,,,,,,,,,,,,,,,,,,,,,,,,,,,,,,,,,,,,,,,,,,,,,,,,,,,,
297886,2022-12-02_11h37.18.329,vts_reward_expectancy_bt,2022.2.4,MacIntel,60.0024001,Chrome,1440,900,,,a,0.2998,1,11,0,0,2,2,7,1,0,0,1,0,0,1,0,0,hexagon,circle,,,,,,,,,,,,,,,,,,,,,,,,,,,,,,,,,,,,,,,,,,,,,,,,,,,,,,
297886,2022-12-02_11h37.18.329,vts_reward_expectancy_bt,2022.2.4,MacIntel,60.0024001,Chrome,1440,900,,,l,0.3003,1,12,0,0,3,3,3,1,0,1,0,0,1,0,0,0,circle,triangle,,,,,,,,,,,,,,,,,,,,,,,,,,,,,,,,,,,,,,,,,,,,,,,,,,,,,,
297886,2022-12-02_11h37.18.329,vts_reward_expectancy_bt,2022.2.4,MacIntel,60.0024001,Chrome,1440,900,,,a,0.2402,1,13,0,0,4,4,0,1,1,0,0,0,0,1,0,0,triangle,circle,,,,,,,,,,,,,,,,,,,,,,,,,,,,,,,,,,,,,,,,,,,,,,,,,,,,,,
297886,2022-12-02_11h37.18.329,vts_reward_expectancy_bt,2022.2.4,MacIntel,60.0024001,Chrome,1440,900,,,l,0.4746,1,14,0,0,5,5,2,1,1,0,0,0,0,0,0,1,triangle,star,,,,,,,,,,,,,,,,,,,,,,,,,,,,,,,,,,,,,,,,,,,,,,,,,,,,,,
297886,2022-12-02_11h37.18.329,vts_reward_expectancy_bt,2022.2.4,MacIntel,60.0024001,Chrome,1440,900,,,l,0.2992,1,15,0,0,6,6,11,1,0,0,0,1,0,0,1,0,star,hexagon,,,,,,,,,,,,,,,,,,,,,,,,,,,,,,,,,,,,,,,,,,,,,,,,,,,,,,
297886,2022-12-02_11h37.18.329,vts_reward_expectancy_bt,2022.2.4,MacIntel,60.0024001,Chrome,1440,900,,,l,0.3135,1,16,0,0,7,7,1,1,1,0,0,0,0,0,1,0,triangle,hexagon,,,,,,,,,,,,,,,,,,,,,,,,,,,,,,,,,,,,,,,,,,,,,,,,,,,,,,
297886,2022-12-02_11h37.18.329,vts_reward_expectancy_bt,2022.2.4,MacIntel,60.0024001,Chrome,1440,900,,,l,0.3655,1,17,0,0,8,8,9,1,0,0,0,1,1,0,0,0,star,triangle,,,,,,,,,,,,,,,,,,,,,,,,,,,,,,,,,,,,,,,,,,,,,,,,,,,,,,
297886,2022-12-02_11h37.18.329,vts_reward_expectancy_bt,2022.2.4,MacIntel,60.0024001,Chrome,1440,900,,,a,0.1384,1,18,0,0,9,9,4,1,0,1,0,0,0,0,1,0,circle,hexagon,,,,,,,,,,,,,,,,,,,,,,,,,,,,,,,,,,,,,,,,,,,,,,,,,,,,,,
297886,2022-12-02_11h37.18.329,vts_reward_expectancy_bt,2022.2.4,MacIntel,60.0024001,Chrome,1440,900,,,a,0.283,10,28,0,0,10,10,6,1,0,0,1,0,1,0,0,0,hexagon,triangle,,,,,,,,,,,,,,,,,,,,,,,,,,,,,,,,,,,,,,,,,,,,,,,,,,,,,,
297886,2022-12-02_11h37.18.329,vts_reward_expectancy_bt,2022.2.4,MacIntel,60.0024001,Chrome,1440,900,,,l,0.2479,1,29,0,0,11,11,5,1,0,1,0,0,0,0,0,1,circle,star,,,,,,,,,,,,,,,,,,,,,,,,,,,,,,,,,,,,,,,,,,,,,,,,,,,,,,
297886,2022-12-02_11h37.18.329,vts_reward_expectancy_bt,2022.2.4,MacIntel,60.0024001,Chrome,1440,900,,,l,0.0732,10,39,0,1,0,12,7,1,0,0,1,0,0,1,0,0,hexagon,circle,,,,,,,,,,,,,,,,,,,,,,,,,,,,,,,,,,,,,,,,,,,,,,,,,,,,,,
297886,2022-12-02_11h37.18.329,vts_reward_expectancy_bt,2022.2.4,MacIntel,60.0024001,Chrome,1440,900,,,l,0.768,10,49,0,1,1,13,2,1,1,0,0,0,0,0,0,1,triangle,star,,,,,,,,,,,,,,,,,,,,,,,,,,,,,,,,,,,,,,,,,,,,,,,,,,,,,,
297886,2022-12-02_11h37.18.329,vts_reward_expectancy_bt,2022.2.4,MacIntel,60.0024001,Chrome,1440,900,,,a,0.6644,1,50,0,1,2,14,4,1,0,1,0,0,0,0,1,0,circle,hexagon,,,,,,,,,,,,,,,,,,,,,,,,,,,,,,,,,,,,,,,,,,,,,,,,,,,,,,
297886,2022-12-02_11h37.18.329,vts_reward_expectancy_bt,2022.2.4,MacIntel,60.0024001,Chrome,1440,900,,,a,0.9337,10,60,0,1,3,15,0,1,1,0,0,0,0,1,0,0,triangle,circle,,,,,,,,,,,,,,,,,,,,,,,,,,,,,,,,,,,,,,,,,,,,,,,,,,,,,,
297886,2022-12-02_11h37.18.329,vts_reward_expectancy_bt,2022.2.4,MacIntel,60.0024001,Chrome,1440,900,,,l,0.6653,10,70,0,1,4,16,1,1,1,0,0,0,0,0,1,0,triangle,hexagon,,,,,,,,,,,,,,,,,,,,,,,,,,,,,,,,,,,,,,,,,,,,,,,,,,,,,,
297886,2022-12-02_11h37.18.329,vts_reward_expectancy_bt,2022.2.4,MacIntel,60.0024001,Chrome,1440,900,,,l,0.5598,1,71,0,1,5,17,5,1,0,1,0,0,0,0,0,1,circle,star,,,,,,,,,,,,,,,,,,,,,,,,,,,,,,,,,,,,,,,,,,,,,,,,,,,,,,
297886,2022-12-02_11h37.18.329,vts_reward_expectancy_bt,2022.2.4,MacIntel,60.0024001,Chrome,1440,900,,,a,1.0325,10,81,0,1,6,18,11,1,0,0,0,1,0,0,1,0,star,hexagon,,,,,,,,,,,,,,,,,,,,,,,,,,,,,,,,,,,,,,,,,,,,,,,,,,,,,,
297886,2022-12-02_11h37.18.329,vts_reward_expectancy_bt,2022.2.4,MacIntel,60.0024001,Chrome,1440,900,,,l,0.5105,1,82,0,1,7,19,10,1,0,0,0,1,0,1,0,0,star ,circle,,,,,,,,,,,,,,,,,,,,,,,,,,,,,,,,,,,,,,,,,,,,,,,,,,,,,,
297886,2022-12-02_11h37.18.329,vts_reward_expectancy_bt,2022.2.4,MacIntel,60.0024001,Chrome,1440,900,,,a,0.6569,10,92,0,1,8,20,9,1,0,0,0,1,1,0,0,0,star,triangle,,,,,,,,,,,,,,,,,,,,,,,,,,,,,,,,,,,,,,,,,,,,,,,,,,,,,,
297886,2022-12-02_11h37.18.329,vts_reward_expectancy_bt,2022.2.4,MacIntel,60.0024001,Chrome,1440,900,,,l,0.5799,10,102,0,1,9,21,8,1,0,0,1,0,0,0,0,1,hexagon,star,,,,,,,,,,,,,,,,,,,,,,,,,,,,,,,,,,,,,,,,,,,,,,,,,,,,,,
297886,2022-12-02_11h37.18.329,vts_reward_expectancy_bt,2022.2.4,MacIntel,60.0024001,Chrome,1440,900,,,a,0.5685,1,103,0,1,10,22,6,1,0,0,1,0,1,0,0,0,hexagon,triangle,,,,,,,,,,,,,,,,,,,,,,,,,,,,,,,,,,,,,,,,,,,,,,,,,,,,,,
297886,2022-12-02_11h37.18.329,vts_reward_expectancy_bt,2022.2.4,MacIntel,60.0024001,Chrome,1440,900,,,a,0.6979,10,113,0,1,11,23,3,1,0,1,0,0,1,0,0,0,circle,triangle,,,,,,,,,,,,,,,,,,,,,,,,,,,,,,,,,,,,,,,,,,,,,,,,,,,,,,
297886,2022-12-02_11h37.18.329,vts_reward_expectancy_bt,2022.2.4,MacIntel,60.0024001,Chrome,1440,900,,,l,0.5246,10,123,0,2,0,24,6,1,0,0,1,0,1,0,0,0,hexagon,triangle,,,,,,,,,,,,,,,,,,,,,,,,,,,,,,,,,,,,,,,,,,,,,,,,,,,,,,
297886,2022-12-02_11h37.18.329,vts_reward_expectancy_bt,2022.2.4,MacIntel,60.0024001,Chrome,1440,900,,,l,0.4071,10,133,0,2,1,25,5,1,0,1,0,0,0,0,0,1,circle,star,,,,,,,,,,,,,,,,,,,,,,,,,,,,,,,,,,,,,,,,,,,,,,,,,,,,,,
297886,2022-12-02_11h37.18.329,vts_reward_expectancy_bt,2022.2.4,MacIntel,60.0024001,Chrome,1440,900,,,a,0.6326,10,143,0,2,2,26,0,1,1,0,0,0,0,1,0,0,triangle,circle,,,,,,,,,,,,,,,,,,,,,,,,,,,,,,,,,,,,,,,,,,,,,,,,,,,,,,
297886,2022-12-02_11h37.18.329,vts_reward_expectancy_bt,2022.2.4,MacIntel,60.0024001,Chrome,1440,900,,,l,0.8126,10,153,0,2,3,27,2,1,1,0,0,0,0,0,0,1,triangle,star,,,,,,,,,,,,,,,,,,,,,,,,,,,,,,,,,,,,,,,,,,,,,,,,,,,,,,
297886,2022-12-02_11h37.18.329,vts_reward_expectancy_bt,2022.2.4,MacIntel,60.0024001,Chrome,1440,900,,,a,1.2563,1,154,0,2,4,28,4,1,0,1,0,0,0,0,1,0,circle,hexagon,,,,,,,,,,,,,,,,,,,,,,,,,,,,,,,,,,,,,,,,,,,,,,,,,,,,,,
297886,2022-12-02_11h37.18.329,vts_reward_expectancy_bt,2022.2.4,MacIntel,60.0024001,Chrome,1440,900,,,a,0.5154,1,155,0,2,5,29,11,1,0,0,0,1,0,0,1,0,star,hexagon,,,,,,,,,,,,,,,,,,,,,,,,,,,,,,,,,,,,,,,,,,,,,,,,,,,,,,
297886,2022-12-02_11h37.18.329,vts_reward_expectancy_bt,2022.2.4,MacIntel,60.0024001,Chrome,1440,900,,,l,0.6695,1,156,0,2,6,30,3,1,0,1,0,0,1,0,0,0,circle,triangle,,,,,,,,,,,,,,,,,,,,,,,,,,,,,,,,,,,,,,,,,,,,,,,,,,,,,,
297886,2022-12-02_11h37.18.329,vts_reward_expectancy_bt,2022.2.4,MacIntel,60.0024001,Chrome,1440,900,,,l,0.7657,1,157,0,2,7,31,7,1,0,0,1,0,0,1,0,0,hexagon,circle,,,,,,,,,,,,,,,,,,,,,,,,,,,,,,,,,,,,,,,,,,,,,,,,,,,,,,
297886,2022-12-02_11h37.18.329,vts_reward_expectancy_bt,2022.2.4,MacIntel,60.0024001,Chrome,1440,900,,,l,0.5131,1,158,0,2,8,32,1,1,1,0,0,0,0,0,1,0,triangle,hexagon,,,,,,,,,,,,,,,,,,,,,,,,,,,,,,,,,,,,,,,,,,,,,,,,,,,,,,
297886,2022-12-02_11h37.18.329,vts_reward_expectancy_bt,2022.2.4,MacIntel,60.0024001,Chrome,1440,900,,,a,0.792,1,159,0,2,9,33,9,1,0,0,0,1,1,0,0,0,star,triangle,,,,,,,,,,,,,,,,,,,,,,,,,,,,,,,,,,,,,,,,,,,,,,,,,,,,,,
297886,2022-12-02_11h37.18.329,vts_reward_expectancy_bt,2022.2.4,MacIntel,60.0024001,Chrome,1440,900,,,a,0.6981,1,160,0,2,10,34,10,1,0,0,0,1,0,1,0,0,star ,circle,,,,,,,,,,,,,,,,,,,,,,,,,,,,,,,,,,,,,,,,,,,,,,,,,,,,,,
297886,2022-12-02_11h37.18.329,vts_reward_expectancy_bt,2022.2.4,MacIntel,60.0024001,Chrome,1440,900,,,l,0.637,1,161,0,2,11,35,8,1,0,0,1,0,0,0,0,1,hexagon,star,,,,,,,,,,,,,,,,,,,,,,,,,,,,,,,,,,,,,,,,,,,,,,,,,,,,,,
297886,2022-12-02_11h37.18.329,vts_reward_expectancy_bt,2022.2.4,MacIntel,60.0024001,Chrome,1440,900,,,l,0.7759,10,171,1,0,0,0,2,1,1,0,0,0,0,0,0,1,triangle,star,,,,,,,,,,,,,,,,,,,,,,,,,,,,,,,,,,,,,,,,,,,,,,,,,,,,,,
297886,2022-12-02_11h37.18.329,vts_reward_expectancy_bt,2022.2.4,MacIntel,60.0024001,Chrome,1440,900,,,l,0.4462,10,181,1,0,1,1,9,1,0,0,0,1,1,0,0,0,star,triangle,,,,,,,,,,,,,,,,,,,,,,,,,,,,,,,,,,,,,,,,,,,,,,,,,,,,,,
297886,2022-12-02_11h37.18.329,vts_reward_expectancy_bt,2022.2.4,MacIntel,60.0024001,Chrome,1440,900,,,l,0.3397,1,182,1,0,2,2,11,1,0,0,0,1,0,0,1,0,star,hexagon,,,,,,,,,,,,,,,,,,,,,,,,,,,,,,,,,,,,,,,,,,,,,,,,,,,,,,
297886,2022-12-02_11h37.18.329,vts_reward_expectancy_bt,2022.2.4,MacIntel,60.0024001,Chrome,1440,900,,,a,0.065,10,192,1,0,3,3,5,1,0,1,0,0,0,0,0,1,circle,star,,,,,,,,,,,,,,,,,,,,,,,,,,,,,,,,,,,,,,,,,,,,,,,,,,,,,,
297886,2022-12-02_11h37.18.329,vts_reward_expectancy_bt,2022.2.4,MacIntel,60.0024001,Chrome,1440,900,,,a,1.1111,10,202,1,0,4,4,1,1,1,0,0,0,0,0,1,0,triangle,hexagon,,,,,,,,,,,,,,,,,,,,,,,,,,,,,,,,,,,,,,,,,,,,,,,,,,,,,,
297886,2022-12-02_11h37.18.329,vts_reward_expectancy_bt,2022.2.4,MacIntel,60.0024001,Chrome,1440,900,,,a,0.0107,10,212,1,0,5,5,7,1,0,0,1,0,0,1,0,0,hexagon,circle,,,,,,,,,,,,,,,,,,,,,,,,,,,,,,,,,,,,,,,,,,,,,,,,,,,,,,
297886,2022-12-02_11h37.18.329,vts_reward_expectancy_bt,2022.2.4,MacIntel,60.0024001,Chrome,1440,900,,,a,0.8722,10,222,1,0,6,6,4,1,0,1,0,0,0,0,1,0,circle,hexagon,,,,,,,,,,,,,,,,,,,,,,,,,,,,,,,,,,,,,,,,,,,,,,,,,,,,,,
297886,2022-12-02_11h37.18.329,vts_reward_expectancy_bt,2022.2.4,MacIntel,60.0024001,Chrome,1440,900,,,a,0.0957,1,223,1,0,7,7,0,1,1,0,0,0,0,1,0,0,triangle,circle,,,,,,,,,,,,,,,,,,,,,,,,,,,,,,,,,,,,,,,,,,,,,,,,,,,,,,
297886,2022-12-02_11h37.18.329,vts_reward_expectancy_bt,2022.2.4,MacIntel,60.0024001,Chrome,1440,900,,,l,0.4171,1,224,1,0,8,8,8,1,0,0,1,0,0,0,0,1,hexagon,star,,,,,,,,,,,,,,,,,,,,,,,,,,,,,,,,,,,,,,,,,,,,,,,,,,,,,,
297886,2022-12-02_11h37.18.329,vts_reward_expectancy_bt,2022.2.4,MacIntel,60.0024001,Chrome,1440,900,,,l,0.4812,10,234,1,0,9,9,6,1,0,0,1,0,1,0,0,0,hexagon,triangle,,,,,,,,,,,,,,,,,,,,,,,,,,,,,,,,,,,,,,,,,,,,,,,,,,,,,,
297886,2022-12-02_11h37.18.329,vts_reward_expectancy_bt,2022.2.4,MacIntel,60.0024001,Chrome,1440,900,,,l,0.5312,1,235,1,0,10,10,3,1,0,1,0,0,1,0,0,0,circle,triangle,,,,,,,,,,,,,,,,,,,,,,,,,,,,,,,,,,,,,,,,,,,,,,,,,,,,,,
297886,2022-12-02_11h37.18.329,vts_reward_expectancy_bt,2022.2.4,MacIntel,60.0024001,Chrome,1440,900,,,a,0.2982,1,236,1,0,11,11,10,1,0,0,0,1,0,1,0,0,star ,circle,,,,,,,,,,,,,,,,,,,,,,,,,,,,,,,,,,,,,,,,,,,,,,,,,,,,,,
297886,2022-12-02_11h37.18.329,vts_reward_expectancy_bt,2022.2.4,MacIntel,60.0024001,Chrome,1440,900,,,a,0.676,1,237,1,1,0,12,10,1,0,0,0,1,0,1,0,0,star ,circle,,,,,,,,,,,,,,,,,,,,,,,,,,,,,,,,,,,,,,,,,,,,,,,,,,,,,,
297886,2022-12-02_11h37.18.329,vts_reward_expectancy_bt,2022.2.4,MacIntel,60.0024001,Chrome,1440,900,,,l,0.1929,10,247,1,1,1,13,6,1,0,0,1,0,1,0,0,0,hexagon,triangle,,,,,,,,,,,,,,,,,,,,,,,,,,,,,,,,,,,,,,,,,,,,,,,,,,,,,,
297886,2022-12-02_11h37.18.329,vts_reward_expectancy_bt,2022.2.4,MacIntel,60.0024001,Chrome,1440,900,,,l,0.4488,10,257,1,1,2,14,2,1,1,0,0,0,0,0,0,1,triangle,star,,,,,,,,,,,,,,,,,,,,,,,,,,,,,,,,,,,,,,,,,,,,,,,,,,,,,,
297886,2022-12-02_11h37.18.329,vts_reward_expectancy_bt,2022.2.4,MacIntel,60.0024001,Chrome,1440,900,,,a,0.348,10,267,1,1,3,15,4,1,0,1,0,0,0,0,1,0,circle,hexagon,,,,,,,,,,,,,,,,,,,,,,,,,,,,,,,,,,,,,,,,,,,,,,,,,,,,,,
297886,2022-12-02_11h37.18.329,vts_reward_expectancy_bt,2022.2.4,MacIntel,60.0024001,Chrome,1440,900,,,a,0.471,1,268,1,1,4,16,0,1,1,0,0,0,0,1,0,0,triangle,circle,,,,,,,,,,,,,,,,,,,,,,,,,,,,,,,,,,,,,,,,,,,,,,,,,,,,,,
297886,2022-12-02_11h37.18.329,vts_reward_expectancy_bt,2022.2.4,MacIntel,60.0024001,Chrome,1440,900,,,a,0.3574,1,269,1,1,5,17,11,1,0,0,0,1,0,0,1,0,star,hexagon,,,,,,,,,,,,,,,,,,,,,,,,,,,,,,,,,,,,,,,,,,,,,,,,,,,,,,
297886,2022-12-02_11h37.18.329,vts_reward_expectancy_bt,2022.2.4,MacIntel,60.0024001,Chrome,1440,900,,,a,0.2251,1,270,1,1,6,18,9,1,0,0,0,1,1,0,0,0,star,triangle,,,,,,,,,,,,,,,,,,,,,,,,,,,,,,,,,,,,,,,,,,,,,,,,,,,,,,
297886,2022-12-02_11h37.18.329,vts_reward_expectancy_bt,2022.2.4,MacIntel,60.0024001,Chrome,1440,900,,,a,0.3642,10,280,1,1,7,19,3,1,0,1,0,0,1,0,0,0,circle,triangle,,,,,,,,,,,,,,,,,,,,,,,,,,,,,,,,,,,,,,,,,,,,,,,,,,,,,,
297886,2022-12-02_11h37.18.329,vts_reward_expectancy_bt,2022.2.4,MacIntel,60.0024001,Chrome,1440,900,,,a,0.3715,1,281,1,1,8,20,7,1,0,0,1,0,0,1,0,0,hexagon,circle,,,,,,,,,,,,,,,,,,,,,,,,,,,,,,,,,,,,,,,,,,,,,,,,,,,,,,
297886,2022-12-02_11h37.18.329,vts_reward_expectancy_bt,2022.2.4,MacIntel,60.0024001,Chrome,1440,900,,,l,0.0904,1,282,1,1,9,21,8,1,0,0,1,0,0,0,0,1,hexagon,star,,,,,,,,,,,,,,,,,,,,,,,,,,,,,,,,,,,,,,,,,,,,,,,,,,,,,,
297886,2022-12-02_11h37.18.329,vts_reward_expectancy_bt,2022.2.4,MacIntel,60.0024001,Chrome,1440,900,,,l,0.3651,10,292,1,1,10,22,1,1,1,0,0,0,0,0,1,0,triangle,hexagon,,,,,,,,,,,,,,,,,,,,,,,,,,,,,,,,,,,,,,,,,,,,,,,,,,,,,,
297886,2022-12-02_11h37.18.329,vts_reward_expectancy_bt,2022.2.4,MacIntel,60.0024001,Chrome,1440,900,,,l,0.2654,10,302,1,1,11,23,5,1,0,1,0,0,0,0,0,1,circle,star,,,,,,,,,,,,,,,,,,,,,,,,,,,,,,,,,,,,,,,,,,,,,,,,,,,,,,
297886,2022-12-02_11h37.18.329,vts_reward_expectancy_bt,2022.2.4,MacIntel,60.0024001,Chrome,1440,900,,,l,0.1921,10,312,1,2,0,24,5,1,0,1,0,0,0,0,0,1,circle,star,,,,,,,,,,,,,,,,,,,,,,,,,,,,,,,,,,,,,,,,,,,,,,,,,,,,,,
297886,2022-12-02_11h37.18.329,vts_reward_expectancy_bt,2022.2.4,MacIntel,60.0024001,Chrome,1440,900,,,l,0.1346,1,313,1,2,1,25,7,1,0,0,1,0,0,1,0,0,hexagon,circle,,,,,,,,,,,,,,,,,,,,,,,,,,,,,,,,,,,,,,,,,,,,,,,,,,,,,,
297886,2022-12-02_11h37.18.329,vts_reward_expectancy_bt,2022.2.4,MacIntel,60.0024001,Chrome,1440,900,,,l,0.4497,10,323,1,2,2,26,0,1,1,0,0,0,0,1,0,0,triangle,circle,,,,,,,,,,,,,,,,,,,,,,,,,,,,,,,,,,,,,,,,,,,,,,,,,,,,,,
297886,2022-12-02_11h37.18.329,vts_reward_expectancy_bt,2022.2.4,MacIntel,60.0024001,Chrome,1440,900,,,l,0.0327,1,324,1,2,3,27,3,1,0,1,0,0,1,0,0,0,circle,triangle,,,,,,,,,,,,,,,,,,,,,,,,,,,,,,,,,,,,,,,,,,,,,,,,,,,,,,
297886,2022-12-02_11h37.18.329,vts_reward_expectancy_bt,2022.2.4,MacIntel,60.0024001,Chrome,1440,900,,,l,0.4275,10,334,1,2,4,28,8,1,0,0,1,0,0,0,0,1,hexagon,star,,,,,,,,,,,,,,,,,,,,,,,,,,,,,,,,,,,,,,,,,,,,,,,,,,,,,,
297886,2022-12-02_11h37.18.329,vts_reward_expectancy_bt,2022.2.4,MacIntel,60.0024001,Chrome,1440,900,,,l,0.5235,10,344,1,2,5,29,6,1,0,0,1,0,1,0,0,0,hexagon,triangle,,,,,,,,,,,,,,,,,,,,,,,,,,,,,,,,,,,,,,,,,,,,,,,,,,,,,,
297886,2022-12-02_11h37.18.329,vts_reward_expectancy_bt,2022.2.4,MacIntel,60.0024001,Chrome,1440,900,,,a,0.7517,10,354,1,2,6,30,10,1,0,0,0,1,0,1,0,0,star ,circle,,,,,,,,,,,,,,,,,,,,,,,,,,,,,,,,,,,,,,,,,,,,,,,,,,,,,,
297886,2022-12-02_11h37.18.329,vts_reward_expectancy_bt,2022.2.4,MacIntel,60.0024001,Chrome,1440,900,,,a,0.3819,10,364,1,2,7,31,11,1,0,0,0,1,0,0,1,0,star,hexagon,,,,,,,,,,,,,,,,,,,,,,,,,,,,,,,,,,,,,,,,,,,,,,,,,,,,,,
297886,2022-12-02_11h37.18.329,vts_reward_expectancy_bt,2022.2.4,MacIntel,60.0024001,Chrome,1440,900,,,l,0.3227,10,374,1,2,8,32,4,1,0,1,0,0,0,0,1,0,circle,hexagon,,,,,,,,,,,,,,,,,,,,,,,,,,,,,,,,,,,,,,,,,,,,,,,,,,,,,,
297886,2022-12-02_11h37.18.329,vts_reward_expectancy_bt,2022.2.4,MacIntel,60.0024001,Chrome,1440,900,,,l,0.3709,1,375,1,2,9,33,2,1,1,0,0,0,0,0,0,1,triangle,star,,,,,,,,,,,,,,,,,,,,,,,,,,,,,,,,,,,,,,,,,,,,,,,,,,,,,,
297886,2022-12-02_11h37.18.329,vts_reward_expectancy_bt,2022.2.4,MacIntel,60.0024001,Chrome,1440,900,,,l,0.1655,1,376,1,2,10,34,9,1,0,0,0,1,1,0,0,0,star,triangle,,,,,,,,,,,,,,,,,,,,,,,,,,,,,,,,,,,,,,,,,,,,,,,,,,,,,,
297886,2022-12-02_11h37.18.329,vts_reward_expectancy_bt,2022.2.4,MacIntel,60.0024001,Chrome,1440,900,,,l,0.2664,1,377,1,2,11,35,1,1,1,0,0,0,0,0,1,0,triangle,hexagon,,,,,,,,,,,,,,,,,,,,,,,,,,,,,,,,,,,,,,,,,,,,,,,,,,,,,,
297886,2022-12-02_11h37.18.329,vts_reward_expectancy_bt,2022.2.4,MacIntel,60.0024001,Chrome,1440,900,,,l,0.9178,1,378,2,0,0,0,5,1,0,1,0,0,0,0,0,1,circle,star,,,,,,,,,,,,,,,,,,,,,,,,,,,,,,,,,,,,,,,,,,,,,,,,,,,,,,
297886,2022-12-02_11h37.18.329,vts_reward_expectancy_bt,2022.2.4,MacIntel,60.0024001,Chrome,1440,900,,,l,0.3919,10,388,2,0,1,1,6,1,0,0,1,0,1,0,0,0,hexagon,triangle,,,,,,,,,,,,,,,,,,,,,,,,,,,,,,,,,,,,,,,,,,,,,,,,,,,,,,
297886,2022-12-02_11h37.18.329,vts_reward_expectancy_bt,2022.2.4,MacIntel,60.0024001,Chrome,1440,900,,,l,0.0003,10,398,2,0,2,2,3,1,0,1,0,0,1,0,0,0,circle,triangle,,,,,,,,,,,,,,,,,,,,,,,,,,,,,,,,,,,,,,,,,,,,,,,,,,,,,,
297886,2022-12-02_11h37.18.329,vts_reward_expectancy_bt,2022.2.4,MacIntel,60.0024001,Chrome,1440,900,,,l,0.3079,1,399,2,0,3,3,11,1,0,0,0,1,0,0,1,0,star,hexagon,,,,,,,,,,,,,,,,,,,,,,,,,,,,,,,,,,,,,,,,,,,,,,,,,,,,,,
297886,2022-12-02_11h37.18.329,vts_reward_expectancy_bt,2022.2.4,MacIntel,60.0024001,Chrome,1440,900,,,a,0.5796,1,400,2,0,4,4,10,1,0,0,0,1,0,1,0,0,star ,circle,,,,,,,,,,,,,,,,,,,,,,,,,,,,,,,,,,,,,,,,,,,,,,,,,,,,,,
297886,2022-12-02_11h37.18.329,vts_reward_expectancy_bt,2022.2.4,MacIntel,60.0024001,Chrome,1440,900,,,a,0.5163,1,401,2,0,5,5,4,1,0,1,0,0,0,0,1,0,circle,hexagon,,,,,,,,,,,,,,,,,,,,,,,,,,,,,,,,,,,,,,,,,,,,,,,,,,,,,,
297886,2022-12-02_11h37.18.329,vts_reward_expectancy_bt,2022.2.4,MacIntel,60.0024001,Chrome,1440,900,,,a,0.3319,1,402,2,0,6,6,7,1,0,0,1,0,0,1,0,0,hexagon,circle,,,,,,,,,,,,,,,,,,,,,,,,,,,,,,,,,,,,,,,,,,,,,,,,,,,,,,
297886,2022-12-02_11h37.18.329,vts_reward_expectancy_bt,2022.2.4,MacIntel,60.0024001,Chrome,1440,900,,,l,0.2504,1,403,2,0,7,7,2,1,1,0,0,0,0,0,0,1,triangle,star,,,,,,,,,,,,,,,,,,,,,,,,,,,,,,,,,,,,,,,,,,,,,,,,,,,,,,
297886,2022-12-02_11h37.18.329,vts_reward_expectancy_bt,2022.2.4,MacIntel,60.0024001,Chrome,1440,900,,,a,0.9336,10,413,2,0,8,8,9,1,0,0,0,1,1,0,0,0,star,triangle,,,,,,,,,,,,,,,,,,,,,,,,,,,,,,,,,,,,,,,,,,,,,,,,,,,,,,
297886,2022-12-02_11h37.18.329,vts_reward_expectancy_bt,2022.2.4,MacIntel,60.0024001,Chrome,1440,900,,,l,0.6139,1,414,2,0,9,9,8,1,0,0,1,0,0,0,0,1,hexagon,star,,,,,,,,,,,,,,,,,,,,,,,,,,,,,,,,,,,,,,,,,,,,,,,,,,,,,,
297886,2022-12-02_11h37.18.329,vts_reward_expectancy_bt,2022.2.4,MacIntel,60.0024001,Chrome,1440,900,,,a,0.6141,1,415,2,0,10,10,0,1,1,0,0,0,0,1,0,0,triangle,circle,,,,,,,,,,,,,,,,,,,,,,,,,,,,,,,,,,,,,,,,,,,,,,,,,,,,,,
297886,2022-12-02_11h37.18.329,vts_reward_expectancy_bt,2022.2.4,MacIntel,60.0024001,Chrome,1440,900,,,a,0.6478,10,425,2,0,11,11,1,1,1,0,0,0,0,0,1,0,triangle,hexagon,,,,,,,,,,,,,,,,,,,,,,,,,,,,,,,,,,,,,,,,,,,,,,,,,,,,,,
297886,2022-12-02_11h37.18.329,vts_reward_expectancy_bt,2022.2.4,MacIntel,60.0024001,Chrome,1440,900,,,l,0.9908,10,435,2,1,0,12,8,1,0,0,1,0,0,0,0,1,hexagon,star,,,,,,,,,,,,,,,,,,,,,,,,,,,,,,,,,,,,,,,,,,,,,,,,,,,,,,
297886,2022-12-02_11h37.18.329,vts_reward_expectancy_bt,2022.2.4,MacIntel,60.0024001,Chrome,1440,900,,,a,0.7951,10,445,2,1,1,13,3,1,0,1,0,0,1,0,0,0,circle,triangle,,,,,,,,,,,,,,,,,,,,,,,,,,,,,,,,,,,,,,,,,,,,,,,,,,,,,,
297886,2022-12-02_11h37.18.329,vts_reward_expectancy_bt,2022.2.4,MacIntel,60.0024001,Chrome,1440,900,,,a,1.4173,10,455,2,1,2,14,2,1,1,0,0,0,0,0,0,1,triangle,star,,,,,,,,,,,,,,,,,,,,,,,,,,,,,,,,,,,,,,,,,,,,,,,,,,,,,,
297886,2022-12-02_11h37.18.329,vts_reward_expectancy_bt,2022.2.4,MacIntel,60.0024001,Chrome,1440,900,,,a,0.963,10,465,2,1,3,15,11,1,0,0,0,1,0,0,1,0,star,hexagon,,,,,,,,,,,,,,,,,,,,,,,,,,,,,,,,,,,,,,,,,,,,,,,,,,,,,,
297886,2022-12-02_11h37.18.329,vts_reward_expectancy_bt,2022.2.4,MacIntel,60.0024001,Chrome,1440,900,,,l,0.7001,1,466,2,1,4,16,9,1,0,0,0,1,1,0,0,0,star,triangle,,,,,,,,,,,,,,,,,,,,,,,,,,,,,,,,,,,,,,,,,,,,,,,,,,,,,,
297886,2022-12-02_11h37.18.329,vts_reward_expectancy_bt,2022.2.4,MacIntel,60.0024001,Chrome,1440,900,,,l,3.1305,10,476,2,1,5,17,1,1,1,0,0,0,0,0,1,0,triangle,hexagon,,,,,,,,,,,,,,,,,,,,,,,,,,,,,,,,,,,,,,,,,,,,,,,,,,,,,,
297886,2022-12-02_11h37.18.329,vts_reward_expectancy_bt,2022.2.4,MacIntel,60.0024001,Chrome,1440,900,,,l,1.4276,1,477,2,1,6,18,10,1,0,0,0,1,0,1,0,0,star ,circle,,,,,,,,,,,,,,,,,,,,,,,,,,,,,,,,,,,,,,,,,,,,,,,,,,,,,,
297886,2022-12-02_11h37.18.329,vts_reward_expectancy_bt,2022.2.4,MacIntel,60.0024001,Chrome,1440,900,,,l,0.8608,1,478,2,1,7,19,6,1,0,0,1,0,1,0,0,0,hexagon,triangle,,,,,,,,,,,,,,,,,,,,,,,,,,,,,,,,,,,,,,,,,,,,,,,,,,,,,,
297886,2022-12-02_11h37.18.329,vts_reward_expectancy_bt,2022.2.4,MacIntel,60.0024001,Chrome,1440,900,,,a,0.9149,10,488,2,1,8,20,5,1,0,1,0,0,0,0,0,1,circle,star,,,,,,,,,,,,,,,,,,,,,,,,,,,,,,,,,,,,,,,,,,,,,,,,,,,,,,
297886,2022-12-02_11h37.18.329,vts_reward_expectancy_bt,2022.2.4,MacIntel,60.0024001,Chrome,1440,900,,,a,0.7053,10,498,2,1,9,21,4,1,0,1,0,0,0,0,1,0,circle,hexagon,,,,,,,,,,,,,,,,,,,,,,,,,,,,,,,,,,,,,,,,,,,,,,,,,,,,,,
297886,2022-12-02_11h37.18.329,vts_reward_expectancy_bt,2022.2.4,MacIntel,60.0024001,Chrome,1440,900,,,a,0.6834,1,499,2,1,10,22,7,1,0,0,1,0,0,1,0,0,hexagon,circle,,,,,,,,,,,,,,,,,,,,,,,,,,,,,,,,,,,,,,,,,,,,,,,,,,,,,,
297886,2022-12-02_11h37.18.329,vts_reward_expectancy_bt,2022.2.4,MacIntel,60.0024001,Chrome,1440,900,,,l,0.5646,10,509,2,1,11,23,0,1,1,0,0,0,0,1,0,0,triangle,circle,,,,,,,,,,,,,,,,,,,,,,,,,,,,,,,,,,,,,,,,,,,,,,,,,,,,,,
297886,2022-12-02_11h37.18.329,vts_reward_expectancy_bt,2022.2.4,MacIntel,60.0024001,Chrome,1440,900,,,a,0.8267,10,519,2,2,0,24,5,1,0,1,0,0,0,0,0,1,circle,star,,,,,,,,,,,,,,,,,,,,,,,,,,,,,,,,,,,,,,,,,,,,,,,,,,,,,,
297886,2022-12-02_11h37.18.329,vts_reward_expectancy_bt,2022.2.4,MacIntel,60.0024001,Chrome,1440,900,,,l,0.5734,10,529,2,2,1,25,3,1,0,1,0,0,1,0,0,0,circle,triangle,,,,,,,,,,,,,,,,,,,,,,,,,,,,,,,,,,,,,,,,,,,,,,,,,,,,,,
297886,2022-12-02_11h37.18.329,vts_reward_expectancy_bt,2022.2.4,MacIntel,60.0024001,Chrome,1440,900,,,a,0.8213,1,530,2,2,2,26,11,1,0,0,0,1,0,0,1,0,star,hexagon,,,,,,,,,,,,,,,,,,,,,,,,,,,,,,,,,,,,,,,,,,,,,,,,,,,,,,
297886,2022-12-02_11h37.18.329,vts_reward_expectancy_bt,2022.2.4,MacIntel,60.0024001,Chrome,1440,900,,,a,0.8796,1,531,2,2,3,27,6,1,0,0,1,0,1,0,0,0,hexagon,triangle,,,,,,,,,,,,,,,,,,,,,,,,,,,,,,,,,,,,,,,,,,,,,,,,,,,,,,
297886,2022-12-02_11h37.18.329,vts_reward_expectancy_bt,2022.2.4,MacIntel,60.0024001,Chrome,1440,900,,,l,0.4399,10,541,2,2,4,28,1,1,1,0,0,0,0,0,1,0,triangle,hexagon,,,,,,,,,,,,,,,,,,,,,,,,,,,,,,,,,,,,,,,,,,,,,,,,,,,,,,
297886,2022-12-02_11h37.18.329,vts_reward_expectancy_bt,2022.2.4,MacIntel,60.0024001,Chrome,1440,900,,,a,0.6493,1,542,2,2,5,29,7,1,0,0,1,0,0,1,0,0,hexagon,circle,,,,,,,,,,,,,,,,,,,,,,,,,,,,,,,,,,,,,,,,,,,,,,,,,,,,,,
297886,2022-12-02_11h37.18.329,vts_reward_expectancy_bt,2022.2.4,MacIntel,60.0024001,Chrome,1440,900,,,a,0.4534,1,543,2,2,6,30,2,1,1,0,0,0,0,0,0,1,triangle,star,,,,,,,,,,,,,,,,,,,,,,,,,,,,,,,,,,,,,,,,,,,,,,,,,,,,,,
297886,2022-12-02_11h37.18.329,vts_reward_expectancy_bt,2022.2.4,MacIntel,60.0024001,Chrome,1440,900,,,l,0.3148,1,544,2,2,7,31,0,1,1,0,0,0,0,1,0,0,triangle,circle,,,,,,,,,,,,,,,,,,,,,,,,,,,,,,,,,,,,,,,,,,,,,,,,,,,,,,
297886,2022-12-02_11h37.18.329,vts_reward_expectancy_bt,2022.2.4,MacIntel,60.0024001,Chrome,1440,900,,,l,0.2898,1,545,2,2,8,32,10,1,0,0,0,1,0,1,0,0,star ,circle,,,,,,,,,,,,,,,,,,,,,,,,,,,,,,,,,,,,,,,,,,,,,,,,,,,,,,
297886,2022-12-02_11h37.18.329,vts_reward_expectancy_bt,2022.2.4,MacIntel,60.0024001,Chrome,1440,900,,,a,0.3111,1,546,2,2,9,33,8,1,0,0,1,0,0,0,0,1,hexagon,star,,,,,,,,,,,,,,,,,,,,,,,,,,,,,,,,,,,,,,,,,,,,,,,,,,,,,,
297886,2022-12-02_11h37.18.329,vts_reward_expectancy_bt,2022.2.4,MacIntel,60.0024001,Chrome,1440,900,,,l,0.2766,10,556,2,2,10,34,9,1,0,0,0,1,1,0,0,0,star,triangle,,,,,,,,,,,,,,,,,,,,,,,,,,,,,,,,,,,,,,,,,,,,,,,,,,,,,,
297886,2022-12-02_11h37.18.329,vts_reward_expectancy_bt,2022.2.4,MacIntel,60.0024001,Chrome,1440,900,,,a,0.6879,10,566,2,2,11,35,4,1,0,1,0,0,0,0,1,0,circle,hexagon,,,,,,,,,,,,,,,,,,,,,,,,,,,,,,,,,,,,,,,,,,,,,,,,,,,,,,
297886,2022-12-02_11h37.18.329,vts_reward_expectancy_bt,2022.2.4,MacIntel,60.0024001,Chrome,1440,900,,,,,,,,,,,,,,,,,,,,,,,181,S,star,1,0,f,1.3499,0,0,0,0,0,1,,,,,,,,,,,,,,,,,,,,,,,,,,,,,,,,,,,,,,,,,
297886,2022-12-02_11h37.18.329,vts_reward_expectancy_bt,2022.2.4,MacIntel,60.0024001,Chrome,1440,900,,,,,,,,,,,,,,,,,,,,,,,146,D,circle,1,0,d,1.6396,0,1,0,1,0,1,,,,,,,,,,,,,,,,,,,,,,,,,,,,,,,,,,,,,,,,,
297886,2022-12-02_11h37.18.329,vts_reward_expectancy_bt,2022.2.4,MacIntel,60.0024001,Chrome,1440,900,,,,,,,,,,,,,,,,,,,,,,,125,W,hexagon,1,0,d,0.9246,0,2,0,2,0,1,,,,,,,,,,,,,,,,,,,,,,,,,,,,,,,,,,,,,,,,,
297886,2022-12-02_11h37.18.329,vts_reward_expectancy_bt,2022.2.4,MacIntel,60.0024001,Chrome,1440,900,,,,,,,,,,,,,,,,,,,,,,,174,Y,triangle,1,0,f,0.745,0,3,0,3,0,1,,,,,,,,,,,,,,,,,,,,,,,,,,,,,,,,,,,,,,,,,
297886,2022-12-02_11h37.18.329,vts_reward_expectancy_bt,2022.2.4,MacIntel,60.0024001,Chrome,1440,900,,,,,,,,,,,,,,,,,,,,,,,160,H,star,1,0,f,0.9456,0,4,0,4,0,1,,,,,,,,,,,,,,,,,,,,,,,,,,,,,,,,,,,,,,,,,
297886,2022-12-02_11h37.18.329,vts_reward_expectancy_bt,2022.2.4,MacIntel,60.0024001,Chrome,1440,900,,,,,,,,,,,,,,,,,,,,,,,167,F,circle,1,0,f,0.7243,0,5,0,5,0,1,,,,,,,,,,,,,,,,,,,,,,,,,,,,,,,,,,,,,,,,,
297886,2022-12-02_11h37.18.329,vts_reward_expectancy_bt,2022.2.4,MacIntel,60.0024001,Chrome,1440,900,,,,,,,,,,,,,,,,,,,,,,,139,B,hexagon,1,0,d,0.6029,0,6,0,6,0,1,,,,,,,,,,,,,,,,,,,,,,,,,,,,,,,,,,,,,,,,,
297886,2022-12-02_11h37.18.329,vts_reward_expectancy_bt,2022.2.4,MacIntel,60.0024001,Chrome,1440,900,,,,,,,,,,,,,,,,,,,,,,,132,U,triangle,1,0,d,0.7918,0,7,0,7,0,1,,,,,,,,,,,,,,,,,,,,,,,,,,,,,,,,,,,,,,,,,
297886,2022-12-02_11h37.18.329,vts_reward_expectancy_bt,2022.2.4,MacIntel,60.0024001,Chrome,1440,900,,,,,,,,,,,,,,,,,,,,,,,181,S,triangle,1,0,f,1.0191,0,8,0,8,0,1,,,,,,,,,,,,,,,,,,,,,,,,,,,,,,,,,,,,,,,,,
297886,2022-12-02_11h37.18.329,vts_reward_expectancy_bt,2022.2.4,MacIntel,60.0024001,Chrome,1440,900,,,,,,,,,,,,,,,,,,,,,,,146,D,hexagon,1,0,d,0.6854,0,9,0,9,0,1,,,,,,,,,,,,,,,,,,,,,,,,,,,,,,,,,,,,,,,,,
297886,2022-12-02_11h37.18.329,vts_reward_expectancy_bt,2022.2.4,MacIntel,60.0024001,Chrome,1440,900,,,,,,,,,,,,,,,,,,,,,,,181,F,star,1,0,,,1,,,,,,j,1.1943,0,0,0,0,1,,,,,,,,,,,,,,,,,,,,,,,,,,,,,,,,,,
297886,2022-12-02_11h37.18.329,vts_reward_expectancy_bt,2022.2.4,MacIntel,60.0024001,Chrome,1440,900,,,,,,,,,,,,,,,,,,,,,,,125,D,circle,1,0,,,1,,,,,,j,1.0084,1,0,1,0,1,,,,,,,,,,,,,,,,,,,,,,,,,,,,,,,,,,
297886,2022-12-02_11h37.18.329,vts_reward_expectancy_bt,2022.2.4,MacIntel,60.0024001,Chrome,1440,900,,,,,,,,,,,,,,,,,,,,,,,132,H,triangle,1,0,,,1,,,,,,j,1.2732,2,0,2,0,1,,,,,,,,,,,,,,,,,,,,,,,,,,,,,,,,,,
297886,2022-12-02_11h37.18.329,vts_reward_expectancy_bt,2022.2.4,MacIntel,60.0024001,Chrome,1440,900,,,,,,,,,,,,,,,,,,,,,,,174,S,hexagon,1,0,,,1,,,,,,k,0.6378,3,0,3,0,1,,,,,,,,,,,,,,,,,,,,,,,,,,,,,,,,,,
297886,2022-12-02_11h37.18.329,vts_reward_expectancy_bt,2022.2.4,MacIntel,60.0024001,Chrome,1440,900,,,,,,,,,,,,,,,,,,,,,,,160,U,star,1,0,,,1,,,,,,k,0.6868,4,0,4,0,1,,,,,,,,,,,,,,,,,,,,,,,,,,,,,,,,,,
297886,2022-12-02_11h37.18.329,vts_reward_expectancy_bt,2022.2.4,MacIntel,60.0024001,Chrome,1440,900,,,,,,,,,,,,,,,,,,,,,,,139,Y,circle,1,0,,,1,,,,,,k,0.8033,5,0,5,0,1,,,,,,,,,,,,,,,,,,,,,,,,,,,,,,,,,,
297886,2022-12-02_11h37.18.329,vts_reward_expectancy_bt,2022.2.4,MacIntel,60.0024001,Chrome,1440,900,,,,,,,,,,,,,,,,,,,,,,,146,B,triangle,1,0,,,1,,,,,,j,0.7281,6,0,6,0,1,,,,,,,,,,,,,,,,,,,,,,,,,,,,,,,,,,
297886,2022-12-02_11h37.18.329,vts_reward_expectancy_bt,2022.2.4,MacIntel,60.0024001,Chrome,1440,900,,,,,,,,,,,,,,,,,,,,,,,167,W,hexagon,1,0,,,1,,,,,,k,0.7927,7,0,7,0,1,,,,,,,,,,,,,,,,,,,,,,,,,,,,,,,,,,
297886,2022-12-02_11h37.18.329,vts_reward_expectancy_bt,2022.2.4,MacIntel,60.0024001,Chrome,1440,900,,,,,,,,,,,,,,,,,,,,,,,181,F,star,1,0,,,1,,,,,,j,0.781,8,0,8,0,1,,,,,,,,,,,,,,,,,,,,,,,,,,,,,,,,,,
297886,2022-12-02_11h37.18.329,vts_reward_expectancy_bt,2022.2.4,MacIntel,60.0024001,Chrome,1440,900,,,,,,,,,,,,,,,,,,,,,,,125,D,hexagon,1,0,,,1,,,,,,j,0.7698,9,0,9,0,1,,,,,,,,,,,,,,,,,,,,,,,,,,,,,,,,,,
297886,2022-12-02_11h37.18.329,vts_reward_expectancy_bt,2022.2.4,MacIntel,60.0024001,Chrome,1440,900,,,,,0,566,,,,,,,,,,,,,,,,,139,F,triangle,-1,0,,,2,,,,,,,,,,,,,-1,no_choice,NA,,vtsPrac,0,0,0,0,1,,,,,,,,,,,,,,,,,,,,,,,,
297886,2022-12-02_11h37.18.329,vts_reward_expectancy_bt,2022.2.4,MacIntel,60.0024001,Chrome,1440,900,,,,,0,566,,,,,,,,,,,,,,,,,125,W,circle,-1,0,,,2,,,,,,,,,,,,,repeat,no_choice,NA,,vtsPrac,1,0,1,0,1,,,,,,,,,,,,,,,,,,,,,,,,
297886,2022-12-02_11h37.18.329,vts_reward_expectancy_bt,2022.2.4,MacIntel,60.0024001,Chrome,1440,900,,,,,0,566,,,,,,,,,,,,,,,,,174,U,triangle,1,0,,,2,,,,,,,,,,,,,switch,number,numSwt,f,vtsPrac,2,0,2,0,1,1.0089,,,,,,,,,,,,,,,,,,,,,,,
297886,2022-12-02_11h37.18.329,vts_reward_expectancy_bt,2022.2.4,MacIntel,60.0024001,Chrome,1440,900,,,,,0,566,,,,,,,,,,,,,,,,,160,H,circle,1,0,,,2,,,,,,,,,,,,,repeat,number,numRpt,f,vtsPrac,3,0,3,0,1,1.9607,,,,,,,,,,,,,,,,,,,,,,,
297886,2022-12-02_11h37.18.329,vts_reward_expectancy_bt,2022.2.4,MacIntel,60.0024001,Chrome,1440,900,,,,,0,566,,,,,,,,,,,,,,,,,139,F,hexagon,1,0,,,2,,,,,,,,,,,,,switch,letter,lettSwt,j,vtsPrac,4,0,4,0,1,0.9521,,,,,,,,,,,,,,,,,,,,,,,
297886,2022-12-02_11h37.18.329,vts_reward_expectancy_bt,2022.2.4,MacIntel,60.0024001,Chrome,1440,900,,,,,0,566,,,,,,,,,,,,,,,,,125,W,triangle,1,0,,,2,,,,,,,,,,,,,switch,number,numSwt,d,vtsPrac,5,0,5,0,1,0.7189,,,,,,,,,,,,,,,,,,,,,,,
297886,2022-12-02_11h37.18.329,vts_reward_expectancy_bt,2022.2.4,MacIntel,60.0024001,Chrome,1440,900,,,,,0,566,,,,,,,,,,,,,,,,,174,U,circle,1,0,,,2,,,,,,,,,,,,,switch,letter,lettSwt,k,vtsPrac,6,0,6,0,1,0.7106,,,,,,,,,,,,,,,,,,,,,,,
297886,2022-12-02_11h37.18.329,vts_reward_expectancy_bt,2022.2.4,MacIntel,60.0024001,Chrome,1440,900,,,,,0,566,,,,,,,,,,,,,,,,,160,H,triangle,1,0,,,2,,,,,,,,,,,,,repeat,letter,lettRpt,j,vtsPrac,7,0,7,0,1,0.8352,,,,,,,,,,,,,,,,,,,,,,,
297886,2022-12-02_11h37.18.329,vts_reward_expectancy_bt,2022.2.4,MacIntel,60.0024001,Chrome,1440,900,,,,,0,566,,,,,,,,,,,,,,,,,174,U,triangle,1,0,,,2,,,,,,,,,,,,,repeat,letter,lettRpt,k,vtsPrac,8,0,8,0,1,0.9445,,,,,,,,,,,,,,,,,,,,,,,
297886,2022-12-02_11h37.18.329,vts_reward_expectancy_bt,2022.2.4,MacIntel,60.0024001,Chrome,1440,900,,,,,0,566,,,,,,,,,,,,,,,,,125,D,star,1,0,,,2,,,,,,,,,,,,,switch,number,numSwt,d,vtsPrac,9,0,9,0,1,0.5428,,,,,,,,,,,,,,,,,,,,,,,
297886,2022-12-02_11h37.18.329,vts_reward_expectancy_bt,2022.2.4,MacIntel,60.0024001,Chrome,1440,900,,,,,0,566,,,,,,,,,,,,,,,,,146,W,hexagon,1,0,,,2,,,,,,,,,,,,,switch,letter,lettSwt,k,vtsPrac,10,0,10,0,1,0.6588,,,,,,,,,,,,,,,,,,,,,,,
297886,2022-12-02_11h37.18.329,vts_reward_expectancy_bt,2022.2.4,MacIntel,60.0024001,Chrome,1440,900,,,,,0,566,,,,,,,,,,,,,,,,,160,Y,triangle,1,0,,,2,,,,,,,,,,,,,repeat,letter,lettRpt,k,vtsPrac,11,0,11,0,1,0.5533,,,,,,,,,,,,,,,,,,,,,,,
297886,2022-12-02_11h37.18.329,vts_reward_expectancy_bt,2022.2.4,MacIntel,60.0024001,Chrome,1440,900,,,,,0,566,,,,,,,,,,,,,,,,,125,H,triangle,1,0,,,2,,,,,,,,,,,,,switch,number,numSwt,d,vtsPrac,12,0,12,0,1,0.8883,,,,,,,,,,,,,,,,,,,,,,,
297886,2022-12-02_11h37.18.329,vts_reward_expectancy_bt,2022.2.4,MacIntel,60.0024001,Chrome,1440,900,,,,,0,566,,,,,,,,,,,,,,,,,167,S,circle,1,0,,,2,,,,,,,,,,,,,repeat,number,numRpt,f,vtsPrac,13,0,13,0,1,0.6282,,,,,,,,,,,,,,,,,,,,,,,
297886,2022-12-02_11h37.18.329,vts_reward_expectancy_bt,2022.2.4,MacIntel,60.0024001,Chrome,1440,900,,,,,0,566,,,,,,,,,,,,,,,,,160,W,triangle,1,0,,,2,,,,,,,,,,,,,repeat,number,numRpt,f,vtsPrac,14,0,14,0,1,0.6895,,,,,,,,,,,,,,,,,,,,,,,
297886,2022-12-02_11h37.18.329,vts_reward_expectancy_bt,2022.2.4,MacIntel,60.0024001,Chrome,1440,900,,,,,0,566,,,,,,,,,,,,,,,,,132,B,star,1,0,,,2,,,,,,,,,,,,,switch,letter,lettSwt,j,vtsPrac,15,0,15,0,1,0.7716,,,,,,,,,,,,,,,,,,,,,,,
297886,2022-12-02_11h37.18.329,vts_reward_expectancy_bt,2022.2.4,MacIntel,60.0024001,Chrome,1440,900,,,,,0,566,,,,,,,,,,,,,,,,,132,Y,hexagon,1,0,,,2,,,,,,,,,,,,,repeat,letter,lettRpt,k,vtsPrac,16,0,16,0,1,0.6914,,,,,,,,,,,,,,,,,,,,,,,
297886,2022-12-02_11h37.18.329,vts_reward_expectancy_bt,2022.2.4,MacIntel,60.0024001,Chrome,1440,900,,,,,0,566,,,,,,,,,,,,,,,,,125,S,circle,1,0,,,2,,,,,,,,,,,,,switch,number,numSwt,d,vtsPrac,17,0,17,0,1,0.7547,,,,,,,,,,,,,,,,,,,,,,,
297886,2022-12-02_11h37.18.329,vts_reward_expectancy_bt,2022.2.4,MacIntel,60.0024001,Chrome,1440,900,,,,,0,566,,,,,,,,,,,,,,,,,139,U,star,1,0,,,2,,,,,,,,,,,,,switch,letter,lettSwt,k,vtsPrac,18,0,18,0,1,0.707,,,,,,,,,,,,,,,,,,,,,,,
297886,2022-12-02_11h37.18.329,vts_reward_expectancy_bt,2022.2.4,MacIntel,60.0024001,Chrome,1440,900,,,,,0,566,,,,,,,,,,,,,,,,,146,D,triangle,1,0,,,2,,,,,,,,,,,,,repeat,letter,lettRpt,j,vtsPrac,19,0,19,0,1,0.8567,,,,,,,,,,,,,,,,,,,,,,,
297886,2022-12-02_11h37.18.329,vts_reward_expectancy_bt,2022.2.4,MacIntel,60.0024001,Chrome,1440,900,,,,,0,566,,,,,,,,,,,,,,,,,167,B,star,1,0,,,2,,,,,,,,,,,,,repeat,letter,lettRpt,j,vtsPrac,20,0,20,0,1,0.6383,,,,,,,,,,,,,,,,,,,,,,,
297886,2022-12-02_11h37.18.329,vts_reward_expectancy_bt,2022.2.4,MacIntel,60.0024001,Chrome,1440,900,,,,,0,566,,,,,,,,,,,,,,,,,125,S,hexagon,1,0,,,2,,,,,,,,,,,,,switch,number,numSwt,d,vtsPrac,21,0,21,0,1,0.744,,,,,,,,,,,,,,,,,,,,,,,
297886,2022-12-02_11h37.18.329,vts_reward_expectancy_bt,2022.2.4,MacIntel,60.0024001,Chrome,1440,900,,,,,0,566,,,,,,,,,,,,,,,,,139,D,star,1,0,,,2,,,,,,,,,,,,,repeat,number,numRpt,d,vtsPrac,22,0,22,0,1,0.7073,,,,,,,,,,,,,,,,,,,,,,,
297886,2022-12-02_11h37.18.329,vts_reward_expectancy_bt,2022.2.4,MacIntel,60.0024001,Chrome,1440,900,,,,,0,566,,,,,,,,,,,,,,,,,174,U,triangle,1,0,,,2,,,,,,,,,,,,,switch,letter,lettSwt,k,vtsPrac,23,0,23,0,1,1.3404,,,,,,,,,,,,,,,,,,,,,,,
297886,2022-12-02_11h37.18.329,vts_reward_expectancy_bt,2022.2.4,MacIntel,60.0024001,Chrome,1440,900,,,,,0,566,,,,,,,,,,,,,,,,,181,D,star,1,0,,,2,,,,,,,,,,,,,switch,number,numSwt,f,vtsPrac,24,0,24,0,1,0.6751,,,,,,,,,,,,,,,,,,,,,,,
297886,2022-12-02_11h37.18.329,vts_reward_expectancy_bt,2022.2.4,MacIntel,60.0024001,Chrome,1440,900,,,,,0,566,,,,,,,,,,,,,,,,,125,H,triangle,0,0,,,2,,,,,,,,,,,,,switch,letter,NA,k,vtsPrac,25,0,25,0,1,0.5968,,,,,,,,,,,,,,,,,,,,,,,
297886,2022-12-02_11h37.18.329,vts_reward_expectancy_bt,2022.2.4,MacIntel,60.0024001,Chrome,1440,900,,,,,0,566,,,,,,,,,,,,,,,,,160,U,circle,1,1,,,2,,,,,,,,,,,,,repeat,letter,lettRpt,k,vtsPrac,26,0,26,0,1,0.9077,,,,,,,,,,,,,,,,,,,,,,,
297886,2022-12-02_11h37.18.329,vts_reward_expectancy_bt,2022.2.4,MacIntel,60.0024001,Chrome,1440,900,,,,,0,566,,,,,,,,,,,,,,,,,146,W,star,1,0,,,2,,,,,,,,,,,,,switch,number,numSwt,d,vtsPrac,27,0,27,0,1,1.3884,,,,,,,,,,,,,,,,,,,,,,,
297886,2022-12-02_11h37.18.329,vts_reward_expectancy_bt,2022.2.4,MacIntel,60.0024001,Chrome,1440,900,,,,,0,566,,,,,,,,,,,,,,,,,125,S,circle,1,0,,,2,,,,,,,,,,,,,repeat,number,numRpt,d,vtsPrac,28,0,28,0,1,0.6562,,,,,,,,,,,,,,,,,,,,,,,
297886,2022-12-02_11h37.18.329,vts_reward_expectancy_bt,2022.2.4,MacIntel,60.0024001,Chrome,1440,900,,,,,0,566,,,,,,,,,,,,,,,,,160,D,triangle,1,0,,,2,,,,,,,,,,,,,repeat,number,numRpt,f,vtsPrac,29,0,29,0,1,0.7042,,,,,,,,,,,,,,,,,,,,,,,
297886,2022-12-02_11h37.18.329,vts_reward_expectancy_bt,2022.2.4,MacIntel,60.0024001,Chrome,1440,900,,,,,0,566,,,,,,,,,,,,,,,,,139,U,hexagon,1,0,,,2,,,,,,,,,,,,,switch,letter,lettSwt,k,vtsPrac,30,0,30,0,1,0.6715,,,,,,,,,,,,,,,,,,,,,,,
297886,2022-12-02_11h37.18.329,vts_reward_expectancy_bt,2022.2.4,MacIntel,60.0024001,Chrome,1440,900,,,,,0,566,,,,,,,,,,,,,,,,,181,H,star,1,0,,,2,,,,,,,,,,,,,repeat,letter,lettRpt,j,vtsPrac,31,0,31,0,1,0.7859,,,,,,,,,,,,,,,,,,,,,,,
297886,2022-12-02_11h37.18.329,vts_reward_expectancy_bt,2022.2.4,MacIntel,60.0024001,Chrome,1440,900,,,,,,,,,,,,,,,,,,,,,,,,,,,,,,,,,,,,,,,,,,,,,,,,,,,,,,,,,,,,,,,,,,,,,,,,,,,,
297886,2022-12-02_11h37.18.329,vts_reward_expectancy_bt,2022.2.4,MacIntel,60.0024001,Chrome,1440,900,,,,,,,,,,,,,,,,,,,,,,,,,,,,,,,,,,,,,,,,,,,,,,,,,,,,,,,,,,,,,,,,,,,,,,,,,,,,
297886,2022-12-02_11h37.18.329,vts_reward_expectancy_bt,2022.2.4,MacIntel,60.0024001,Chrome,1440,900,,,,,0,566,,,,,,,,,,,,,,,,,146,Y,hexagon,1,0,,,,,,,,,,,,,,,,repeat,letter,lettRpt,k,noRew,,,,,,0.7039,0,0,0,0,0,1,,,,,,,,,,,,,,,,,
297886,2022-12-02_11h37.18.329,vts_reward_expectancy_bt,2022.2.4,MacIntel,60.0024001,Chrome,1440,900,,,,,0,566,,,,,,,,,,,,,,,,,139,W,triangle,1,0,,,,,,,,,,,,,,,,switch,number,numSwt,d,noRew,,,,,,0.9035,0,1,0,1,0,1,,,,,,,,,,,,,,,,,
297886,2022-12-02_11h37.18.329,vts_reward_expectancy_bt,2022.2.4,MacIntel,60.0024001,Chrome,1440,900,,,,,0,566,,,,,,,,,,,,,,,,,181,H,hexagon,1,0,,,,,,,,,,,,,,,,repeat,number,numRpt,f,noRew,,,,,,0.8231,0,2,0,2,0,1,,,,,,,,,,,,,,,,,
297886,2022-12-02_11h37.18.329,vts_reward_expectancy_bt,2022.2.4,MacIntel,60.0024001,Chrome,1440,900,,,,,0,566,,,,,,,,,,,,,,,,,167,S,triangle,1,0,,,,,,,,,,,,,,,,switch,letter,lettSwt,k,noRew,,,,,,0.8688,0,3,0,3,0,1,,,,,,,,,,,,,,,,,
297886,2022-12-02_11h37.18.329,vts_reward_expectancy_bt,2022.2.4,MacIntel,60.0024001,Chrome,1440,900,,,,,0,566,,,,,,,,,,,,,,,,,146,Y,star,1,0,,,,,,,,,,,,,,,,switch,number,numSwt,d,noRew,,,,,,1.0093,0,4,0,4,0,1,,,,,,,,,,,,,,,,,
297886,2022-12-02_11h37.18.329,vts_reward_expectancy_bt,2022.2.4,MacIntel,60.0024001,Chrome,1440,900,,,,,0,566,,,,,,,,,,,,,,,,,139,W,hexagon,1,0,,,,,,,,,,,,,,,,switch,letter,lettSwt,k,noRew,,,,,,0.8072,0,5,0,5,0,1,,,,,,,,,,,,,,,,,
297886,2022-12-02_11h37.18.329,vts_reward_expectancy_bt,2022.2.4,MacIntel,60.0024001,Chrome,1440,900,,,,,0,566,,,,,,,,,,,,,,,,,181,H,triangle,1,0,,,,,,,,,,,,,,,,repeat,letter,lettRpt,j,noRew,,,,,,0.7452,0,6,0,6,0,1,,,,,,,,,,,,,,,,,
297886,2022-12-02_11h37.18.329,vts_reward_expectancy_bt,2022.2.4,MacIntel,60.0024001,Chrome,1440,900,,,,,0,566,,,,,,,,,,,,,,,,,167,S,circle,1,0,,,,,,,,,,,,,,,,switch,number,numSwt,f,noRew,,,,,,0.7732,0,7,0,7,0,1,,,,,,,,,,,,,,,,,
297886,2022-12-02_11h37.18.329,vts_reward_expectancy_bt,2022.2.4,MacIntel,60.0024001,Chrome,1440,900,,,,,0,566,,,,,,,,,,,,,,,,,174,U,circle,1,0,,,,,,,,,,,,,,,,repeat,number,numRpt,f,noRew,,,,,,1.6756,0,8,0,8,0,1,,,,,,,,,,,,,,,,,
297886,2022-12-02_11h37.18.329,vts_reward_expectancy_bt,2022.2.4,MacIntel,60.0024001,Chrome,1440,900,,,,,0,566,,,,,,,,,,,,,,,,,132,W,hexagon,1,0,,,,,,,,,,,,,,,,repeat,number,numRpt,d,noRew,,,,,,1.1044,0,9,0,9,0,1,,,,,,,,,,,,,,,,,
297886,2022-12-02_11h37.18.329,vts_reward_expectancy_bt,2022.2.4,MacIntel,60.0024001,Chrome,1440,900,,,,,0,566,,,,,,,,,,,,,,,,,181,B,triangle,1,0,,,,,,,,,,,,,,,,switch,letter,lettSwt,j,noRew,,,,,,0.855,0,10,0,10,0,1,,,,,,,,,,,,,,,,,
297886,2022-12-02_11h37.18.329,vts_reward_expectancy_bt,2022.2.4,MacIntel,60.0024001,Chrome,1440,900,,,,,0,566,,,,,,,,,,,,,,,,,139,D,star,1,0,,,,,,,,,,,,,,,,repeat,letter,lettRpt,j,noRew,,,,,,0.7549,0,11,0,11,0,1,,,,,,,,,,,,,,,,,
297886,2022-12-02_11h37.18.329,vts_reward_expectancy_bt,2022.2.4,MacIntel,60.0024001,Chrome,1440,900,,,,,0,566,,,,,,,,,,,,,,,,,125,B,triangle,1,0,,,,,,,,,,,,,,,,switch,number,numSwt,d,noRew,,,,,,1.1565,0,12,0,12,0,1,,,,,,,,,,,,,,,,,
297886,2022-12-02_11h37.18.329,vts_reward_expectancy_bt,2022.2.4,MacIntel,60.0024001,Chrome,1440,900,,,,,0,566,,,,,,,,,,,,,,,,,181,S,hexagon,1,0,,,,,,,,,,,,,,,,switch,letter,lettSwt,k,noRew,,,,,,1.2469,0,13,0,13,0,1,,,,,,,,,,,,,,,,,
297886,2022-12-02_11h37.18.329,vts_reward_expectancy_bt,2022.2.4,MacIntel,60.0024001,Chrome,1440,900,,,,,0,566,,,,,,,,,,,,,,,,,174,D,circle,1,0,,,,,,,,,,,,,,,,switch,number,numSwt,f,noRew,,,,,,1.0541,0,14,0,14,0,1,,,,,,,,,,,,,,,,,
297886,2022-12-02_11h37.18.329,vts_reward_expectancy_bt,2022.2.4,MacIntel,60.0024001,Chrome,1440,900,,,,,0,566,,,,,,,,,,,,,,,,,160,H,star,1,0,,,,,,,,,,,,,,,,repeat,number,numRpt,f,noRew,,,,,,2.0583,0,15,0,15,0,1,,,,,,,,,,,,,,,,,
297886,2022-12-02_11h37.18.329,vts_reward_expectancy_bt,2022.2.4,MacIntel,60.0024001,Chrome,1440,900,,,,,0,566,,,,,,,,,,,,,,,,,132,D,hexagon,1,0,,,,,,,,,,,,,,,,repeat,number,numRpt,d,noRew,,,,,,1.2766,0,16,0,16,0,1,,,,,,,,,,,,,,,,,
297886,2022-12-02_11h37.18.329,vts_reward_expectancy_bt,2022.2.4,MacIntel,60.0024001,Chrome,1440,900,,,,,0,566,,,,,,,,,,,,,,,,,167,U,circle,1,0,,,,,,,,,,,,,,,,repeat,number,numRpt,f,noRew,,,,,,0.9057,0,17,0,17,0,1,,,,,,,,,,,,,,,,,
297886,2022-12-02_11h37.18.329,vts_reward_expectancy_bt,2022.2.4,MacIntel,60.0024001,Chrome,1440,900,,,,,0,566,,,,,,,,,,,,,,,,,146,B,hexagon,1,0,,,,,,,,,,,,,,,,repeat,number,numRpt,d,noRew,,,,,,1.3068,0,18,0,18,0,1,,,,,,,,,,,,,,,,,
297886,2022-12-02_11h37.18.329,vts_reward_expectancy_bt,2022.2.4,MacIntel,60.0024001,Chrome,1440,900,,,,,0,566,,,,,,,,,,,,,,,,,125,W,circle,1,0,,,,,,,,,,,,,,,,switch,letter,lettSwt,k,noRew,,,,,,0.6716,0,19,0,19,0,1,,,,,,,,,,,,,,,,,
297886,2022-12-02_11h37.18.329,vts_reward_expectancy_bt,2022.2.4,MacIntel,60.0024001,Chrome,1440,900,,,,,0,566,,,,,,,,,,,,,,,,,125,F,triangle,1,0,,,,,,,,,,,,,,,,repeat,letter,lettRpt,j,noRew,,,,,,0.8983,0,20,0,20,0,1,,,,,,,,,,,,,,,,,
297886,2022-12-02_11h37.18.329,vts_reward_expectancy_bt,2022.2.4,MacIntel,60.0024001,Chrome,1440,900,,,,,0,566,,,,,,,,,,,,,,,,,132,S,hexagon,1,0,,,,,,,,,,,,,,,,switch,number,numSwt,d,noRew,,,,,,0.7857,0,21,0,21,0,1,,,,,,,,,,,,,,,,,
297886,2022-12-02_11h37.18.329,vts_reward_expectancy_bt,2022.2.4,MacIntel,60.0024001,Chrome,1440,900,,,,,0,566,,,,,,,,,,,,,,,,,160,H,hexagon,1,0,,,,,,,,,,,,,,,,switch,letter,lettSwt,j,noRew,,,,,,0.9514,0,22,0,22,0,1,,,,,,,,,,,,,,,,,
297886,2022-12-02_11h37.18.329,vts_reward_expectancy_bt,2022.2.4,MacIntel,60.0024001,Chrome,1440,900,,,,,0,566,,,,,,,,,,,,,,,,,146,W,star,1,0,,,,,,,,,,,,,,,,repeat,letter,lettRpt,k,noRew,,,,,,0.7881,0,23,0,23,0,1,,,,,,,,,,,,,,,,,
297886,2022-12-02_11h37.18.329,vts_reward_expectancy_bt,2022.2.4,MacIntel,60.0024001,Chrome,1440,900,,,,,0,566,,,,,,,,,,,,,,,,,125,U,circle,1,0,,,,,,,,,,,,,,,,repeat,letter,lettRpt,k,noRew,,,,,,0.7579,0,24,0,24,0,1,,,,,,,,,,,,,,,,,
297886,2022-12-02_11h37.18.329,vts_reward_expectancy_bt,2022.2.4,MacIntel,60.0024001,Chrome,1440,900,,,,,0,566,,,,,,,,,,,,,,,,,167,W,triangle,1,0,,,,,,,,,,,,,,,,repeat,letter,lettRpt,k,noRew,,,,,,1.0859,0,25,0,25,0,1,,,,,,,,,,,,,,,,,
297886,2022-12-02_11h37.18.329,vts_reward_expectancy_bt,2022.2.4,MacIntel,60.0024001,Chrome,1440,900,,,,,0,566,,,,,,,,,,,,,,,,,139,F,star,1,0,,,,,,,,,,,,,,,,switch,number,numSwt,d,noRew,,,,,,1.0589,0,26,0,26,0,1,,,,,,,,,,,,,,,,,
297886,2022-12-02_11h37.18.329,vts_reward_expectancy_bt,2022.2.4,MacIntel,60.0024001,Chrome,1440,900,,,,,0,566,,,,,,,,,,,,,,,,,174,H,hexagon,1,0,,,,,,,,,,,,,,,,switch,letter,lettSwt,j,noRew,,,,,,0.7184,0,27,0,27,0,1,,,,,,,,,,,,,,,,,
297886,2022-12-02_11h37.18.329,vts_reward_expectancy_bt,2022.2.4,MacIntel,60.0024001,Chrome,1440,900,,,,,0,566,,,,,,,,,,,,,,,,,167,S,star,1,0,,,,,,,,,,,,,,,,repeat,letter,lettRpt,k,noRew,,,,,,0.8695,0,28,0,28,0,1,,,,,,,,,,,,,,,,,
297886,2022-12-02_11h37.18.329,vts_reward_expectancy_bt,2022.2.4,MacIntel,60.0024001,Chrome,1440,900,,,,,0,566,,,,,,,,,,,,,,,,,146,Y,hexagon,1,0,,,,,,,,,,,,,,,,repeat,letter,lettRpt,k,noRew,,,,,,1.1952,0,29,0,29,0,1,,,,,,,,,,,,,,,,,
297886,2022-12-02_11h37.18.329,vts_reward_expectancy_bt,2022.2.4,MacIntel,60.0024001,Chrome,1440,900,,,,,0,566,,,,,,,,,,,,,,,,,139,D,hexagon,1,0,,,,,,,,,,,,,,,,repeat,letter,lettRpt,j,noRew,,,,,,0.56,0,30,0,30,0,1,,,,,,,,,,,,,,,,,
297886,2022-12-02_11h37.18.329,vts_reward_expectancy_bt,2022.2.4,MacIntel,60.0024001,Chrome,1440,900,,,,,0,566,,,,,,,,,,,,,,,,,132,B,star,1,0,,,,,,,,,,,,,,,,repeat,letter,lettRpt,j,noRew,,,,,,0.6403,0,31,0,31,0,1,,,,,,,,,,,,,,,,,
297886,2022-12-02_11h37.18.329,vts_reward_expectancy_bt,2022.2.4,MacIntel,60.0024001,Chrome,1440,900,,,,,0,566,,,,,,,,,,,,,,,,,125,H,hexagon,1,0,,,,,,,,,,,,,,,,switch,number,numSwt,d,noRew,,,,,,0.8866,0,32,0,32,0,1,,,,,,,,,,,,,,,,,
297886,2022-12-02_11h37.18.329,vts_reward_expectancy_bt,2022.2.4,MacIntel,60.0024001,Chrome,1440,900,,,,,0,566,,,,,,,,,,,,,,,,,181,B,triangle,1,0,,,,,,,,,,,,,,,,switch,letter,lettSwt,j,noRew,,,,,,0.5548,0,33,0,33,0,1,,,,,,,,,,,,,,,,,
297886,2022-12-02_11h37.18.329,vts_reward_expectancy_bt,2022.2.4,MacIntel,60.0024001,Chrome,1440,900,,,,,0,566,,,,,,,,,,,,,,,,,167,S,star,1,0,,,,,,,,,,,,,,,,switch,number,numSwt,f,noRew,,,,,,1.0509,0,34,0,34,0,1,,,,,,,,,,,,,,,,,
297886,2022-12-02_11h37.18.329,vts_reward_expectancy_bt,2022.2.4,MacIntel,60.0024001,Chrome,1440,900,,,,,0,566,,,,,,,,,,,,,,,,,160,F,circle,1,0,,,,,,,,,,,,,,,,switch,letter,lettSwt,j,noRew,,,,,,0.7536,0,35,0,35,0,1,,,,,,,,,,,,,,,,,
297886,2022-12-02_11h37.18.329,vts_reward_expectancy_bt,2022.2.4,MacIntel,60.0024001,Chrome,1440,900,,,,,0,566,,,,,,,,,,,,,,,,,146,H,circle,1,0,,,,,,,,,,,,,,,,repeat,letter,lettRpt,j,noRew,,,,,,0.972,0,36,0,36,0,1,,,,,,,,,,,,,,,,,
297886,2022-12-02_11h37.18.329,vts_reward_expectancy_bt,2022.2.4,MacIntel,60.0024001,Chrome,1440,900,,,,,0,566,,,,,,,,,,,,,,,,,125,D,hexagon,1,0,,,,,,,,,,,,,,,,switch,number,numSwt,d,noRew,,,,,,1.025,0,37,0,37,0,1,,,,,,,,,,,,,,,,,
297886,2022-12-02_11h37.18.329,vts_reward_expectancy_bt,2022.2.4,MacIntel,60.0024001,Chrome,1440,900,,,,,0,566,,,,,,,,,,,,,,,,,139,S,triangle,1,0,,,,,,,,,,,,,,,,switch,letter,lettSwt,k,noRew,,,,,,0.6857,0,38,0,38,0,1,,,,,,,,,,,,,,,,,
297886,2022-12-02_11h37.18.329,vts_reward_expectancy_bt,2022.2.4,MacIntel,60.0024001,Chrome,1440,900,,,,,0,566,,,,,,,,,,,,,,,,,167,F,star,1,0,,,,,,,,,,,,,,,,repeat,letter,lettRpt,j,noRew,,,,,,1.4456,0,39,0,39,0,1,,,,,,,,,,,,,,,,,
297886,2022-12-02_11h37.18.329,vts_reward_expectancy_bt,2022.2.4,MacIntel,60.0024001,Chrome,1440,900,,,,,0,566,,,,,,,,,,,,,,,,,139,B,triangle,1,0,,,,,,,,,,,,,,,,repeat,letter,lettRpt,j,noRew,,,,,,1.0752,0,40,0,40,0,1,,,,,,,,,,,,,,,,,
297886,2022-12-02_11h37.18.329,vts_reward_expectancy_bt,2022.2.4,MacIntel,60.0024001,Chrome,1440,900,,,,,0,566,,,,,,,,,,,,,,,,,160,S,star,1,0,,,,,,,,,,,,,,,,switch,number,numSwt,f,noRew,,,,,,0.7407,0,41,0,41,0,1,,,,,,,,,,,,,,,,,
297886,2022-12-02_11h37.18.329,vts_reward_expectancy_bt,2022.2.4,MacIntel,60.0024001,Chrome,1440,900,,,,,0,566,,,,,,,,,,,,,,,,,125,F,triangle,1,0,,,,,,,,,,,,,,,,repeat,number,numRpt,d,noRew,,,,,,0.7054,0,42,0,42,0,1,,,,,,,,,,,,,,,,,
297886,2022-12-02_11h37.18.329,vts_reward_expectancy_bt,2022.2.4,MacIntel,60.0024001,Chrome,1440,900,,,,,0,566,,,,,,,,,,,,,,,,,181,U,star,1,0,,,,,,,,,,,,,,,,switch,letter,lettSwt,k,noRew,,,,,,0.6283,0,43,0,43,0,1,,,,,,,,,,,,,,,,,
297886,2022-12-02_11h37.18.329,vts_reward_expectancy_bt,2022.2.4,MacIntel,60.0024001,Chrome,1440,900,,,,,0,566,,,,,,,,,,,,,,,,,174,S,circle,1,0,,,,,,,,,,,,,,,,switch,number,numSwt,f,noRew,,,,,,0.7204,0,44,0,44,0,1,,,,,,,,,,,,,,,,,
297886,2022-12-02_11h37.18.329,vts_reward_expectancy_bt,2022.2.4,MacIntel,60.0024001,Chrome,1440,900,,,,,0,566,,,,,,,,,,,,,,,,,146,Y,star,1,0,,,,,,,,,,,,,,,,switch,letter,lettSwt,k,noRew,,,,,,0.8893,0,45,0,45,0,1,,,,,,,,,,,,,,,,,
297886,2022-12-02_11h37.18.329,vts_reward_expectancy_bt,2022.2.4,MacIntel,60.0024001,Chrome,1440,900,,,,,0,566,,,,,,,,,,,,,,,,,181,H,triangle,1,0,,,,,,,,,,,,,,,,switch,number,numSwt,f,noRew,,,,,,0.7882,0,46,0,46,0,1,,,,,,,,,,,,,,,,,
297886,2022-12-02_11h37.18.329,vts_reward_expectancy_bt,2022.2.4,MacIntel,60.0024001,Chrome,1440,900,,,,,0,566,,,,,,,,,,,,,,,,,139,W,circle,1,0,,,,,,,,,,,,,,,,switch,letter,lettSwt,k,noRew,,,,,,0.8703,0,47,0,47,0,1,,,,,,,,,,,,,,,,,
297886,2022-12-02_11h37.18.329,vts_reward_expectancy_bt,2022.2.4,MacIntel,60.0024001,Chrome,1440,900,,,,,0,566,,,,,,,,,,,,,,,,,174,W,triangle,1,0,,,,,,,,,,,,,,,,switch,number,numSwt,f,noRew,,,,,,0.9885,0,48,0,48,0,1,,,,,,,,,,,,,,,,,
297886,2022-12-02_11h37.18.329,vts_reward_expectancy_bt,2022.2.4,MacIntel,60.0024001,Chrome,1440,900,,,,,0,566,,,,,,,,,,,,,,,,,125,S,star,1,0,,,,,,,,,,,,,,,,repeat,number,numRpt,d,noRew,,,,,,0.9733,0,49,0,49,0,1,,,,,,,,,,,,,,,,,
297886,2022-12-02_11h37.18.329,vts_reward_expectancy_bt,2022.2.4,MacIntel,60.0024001,Chrome,1440,900,,,,,0,566,,,,,,,,,,,,,,,,,132,B,hexagon,1,0,,,,,,,,,,,,,,,,switch,letter,lettSwt,j,noRew,,,,,,0.6855,0,50,0,50,0,1,,,,,,,,,,,,,,,,,
297886,2022-12-02_11h37.18.329,vts_reward_expectancy_bt,2022.2.4,MacIntel,60.0024001,Chrome,1440,900,,,,,0,566,,,,,,,,,,,,,,,,,139,F,circle,1,0,,,,,,,,,,,,,,,,repeat,letter,lettRpt,j,noRew,,,,,,1.6902,0,51,0,51,0,1,,,,,,,,,,,,,,,,,
297886,2022-12-02_11h37.18.329,vts_reward_expectancy_bt,2022.2.4,MacIntel,60.0024001,Chrome,1440,900,,,,,0,566,,,,,,,,,,,,,,,,,125,W,hexagon,1,0,,,,,,,,,,,,,,,,switch,number,numSwt,d,noRew,,,,,,0.7413,0,52,0,52,0,1,,,,,,,,,,,,,,,,,
297886,2022-12-02_11h37.18.329,vts_reward_expectancy_bt,2022.2.4,MacIntel,60.0024001,Chrome,1440,900,,,,,0,566,,,,,,,,,,,,,,,,,146,F,star,1,0,,,,,,,,,,,,,,,,repeat,number,numRpt,d,noRew,,,,,,0.7705,0,53,0,53,0,1,,,,,,,,,,,,,,,,,
297886,2022-12-02_11h37.18.329,vts_reward_expectancy_bt,2022.2.4,MacIntel,60.0024001,Chrome,1440,900,,,,,0,566,,,,,,,,,,,,,,,,,167,D,hexagon,1,0,,,,,,,,,,,,,,,,switch,letter,lettSwt,j,noRew,,,,,,0.719,0,54,0,54,0,1,,,,,,,,,,,,,,,,,
297886,2022-12-02_11h37.18.329,vts_reward_expectancy_bt,2022.2.4,MacIntel,60.0024001,Chrome,1440,900,,,,,0,566,,,,,,,,,,,,,,,,,174,Y,triangle,1,0,,,,,,,,,,,,,,,,repeat,letter,lettRpt,k,noRew,,,,,,0.9545,0,55,0,55,0,1,,,,,,,,,,,,,,,,,
297886,2022-12-02_11h37.18.329,vts_reward_expectancy_bt,2022.2.4,MacIntel,60.0024001,Chrome,1440,900,,,,,0,566,,,,,,,,,,,,,,,,,167,D,star,1,0,,,,,,,,,,,,,,,,repeat,letter,lettRpt,j,noRew,,,,,,0.815,0,56,0,56,0,1,,,,,,,,,,,,,,,,,
297886,2022-12-02_11h37.18.329,vts_reward_expectancy_bt,2022.2.4,MacIntel,60.0024001,Chrome,1440,900,,,,,0,566,,,,,,,,,,,,,,,,,146,F,triangle,1,0,,,,,,,,,,,,,,,,switch,number,numSwt,d,noRew,,,,,,1.9986,0,57,0,57,0,1,,,,,,,,,,,,,,,,,
297886,2022-12-02_11h37.18.329,vts_reward_expectancy_bt,2022.2.4,MacIntel,60.0024001,Chrome,1440,900,,,,,0,566,,,,,,,,,,,,,,,,,174,H,circle,1,0,,,,,,,,,,,,,,,,repeat,number,numRpt,f,noRew,,,,,,0.8178,0,58,0,58,0,1,,,,,,,,,,,,,,,,,
297886,2022-12-02_11h37.18.329,vts_reward_expectancy_bt,2022.2.4,MacIntel,60.0024001,Chrome,1440,900,,,,,0,566,,,,,,,,,,,,,,,,,139,Y,hexagon,1,0,,,,,,,,,,,,,,,,repeat,number,numRpt,d,noRew,,,,,,1.1217,0,59,0,59,0,1,,,,,,,,,,,,,,,,,
297886,2022-12-02_11h37.18.329,vts_reward_expectancy_bt,2022.2.4,MacIntel,60.0024001,Chrome,1440,900,,,,,0,566,,,,,,,,,,,,,,,,,181,Y,hexagon,1,0,,,,,,,,,,,,,,,,repeat,number,numRpt,f,noRew,,,,,,1.3733,0,60,0,60,0,1,,,,,,,,,,,,,,,,,
297886,2022-12-02_11h37.18.329,vts_reward_expectancy_bt,2022.2.4,MacIntel,60.0024001,Chrome,1440,900,,,,,0,566,,,,,,,,,,,,,,,,,146,U,triangle,1,0,,,,,,,,,,,,,,,,switch,letter,lettSwt,k,noRew,,,,,,0.8316,0,61,0,61,0,1,,,,,,,,,,,,,,,,,
297886,2022-12-02_11h37.18.329,vts_reward_expectancy_bt,2022.2.4,MacIntel,60.0024001,Chrome,1440,900,,,,,0,566,,,,,,,,,,,,,,,,,139,B,circle,1,0,,,,,,,,,,,,,,,,repeat,letter,lettRpt,j,noRew,,,,,,0.9757,0,62,0,62,0,1,,,,,,,,,,,,,,,,,
297886,2022-12-02_11h37.18.329,vts_reward_expectancy_bt,2022.2.4,MacIntel,60.0024001,Chrome,1440,900,,,,,0,566,,,,,,,,,,,,,,,,,160,D,star,1,0,,,,,,,,,,,,,,,,repeat,letter,lettRpt,j,noRew,,,,,,1.6028,0,63,0,63,0,1,,,,,,,,,,,,,,,,,
297886,2022-12-02_11h37.18.329,vts_reward_expectancy_bt,2022.2.4,MacIntel,60.0024001,Chrome,1440,900,,,,,,,,,,,,,,,,,,,,,,,,,,,,,,,,,,,,,,,,,,,,,,,,,,,,,,,,,,,,,,,,,,,,,,,,,,,,
297886,2022-12-02_11h37.18.329,vts_reward_expectancy_bt,2022.2.4,MacIntel,60.0024001,Chrome,1440,900,,,,,1,567,,,,,,,,,,,,,,,,,132,H,star,1,0,,,,,,,,,,,,,,,,repeat,letter,lettRpt,j,Lo,,,,,,1.8737,0,,,,,,space,6.4848,low,0,0,0,0,1,,,,,,,,,
297886,2022-12-02_11h37.18.329,vts_reward_expectancy_bt,2022.2.4,MacIntel,60.0024001,Chrome,1440,900,,,,,0,567,,,,,,,,,,,,,,,,,160,Y,triangle,1,0,,,,,,,,,,,,,,,,repeat,letter,lettRpt,k,Hi,,,,,,0.8872,0,,,,,,,,low,1,0,1,0,1,,,,,,,,,
297886,2022-12-02_11h37.18.329,vts_reward_expectancy_bt,2022.2.4,MacIntel,60.0024001,Chrome,1440,900,,,,,10,577,,,,,,,,,,,,,,,,,181,F,circle,1,0,,,,,,,,,,,,,,,,repeat,letter,lettRpt,j,Hi,,,,,,0.7711,0,,,,,,,,low,2,0,2,0,1,,,,,,,,,
297886,2022-12-02_11h37.18.329,vts_reward_expectancy_bt,2022.2.4,MacIntel,60.0024001,Chrome,1440,900,,,,,10,587,,,,,,,,,,,,,,,,,167,U,hexagon,1,0,,,,,,,,,,,,,,,,switch,number,numSwt,f,Lo,,,,,,0.6687,0,,,,,,,,low,3,0,3,0,1,,,,,,,,,
297886,2022-12-02_11h37.18.329,vts_reward_expectancy_bt,2022.2.4,MacIntel,60.0024001,Chrome,1440,900,,,,,1,588,,,,,,,,,,,,,,,,,174,W,star,1,0,,,,,,,,,,,,,,,,repeat,number,numRpt,f,Lo,,,,,,0.7047,0,,,,,,,,low,4,0,4,0,1,,,,,,,,,
297886,2022-12-02_11h37.18.329,vts_reward_expectancy_bt,2022.2.4,MacIntel,60.0024001,Chrome,1440,900,,,,,0,588,,,,,,,,,,,,,,,,,146,D,triangle,0,0,,,,,,,,,,,,,,,,repeat,number,NA,f,Lo,,,,,,0.4743,0,,,,,,,,low,5,0,5,0,1,,,,,,,,,
297886,2022-12-02_11h37.18.329,vts_reward_expectancy_bt,2022.2.4,MacIntel,60.0024001,Chrome,1440,900,,,,,10,598,,,,,,,,,,,,,,,,,125,S,circle,1,1,,,,,,,,,,,,,,,,repeat,number,numRpt,d,Hi,,,,,,0.857,0,,,,,,,,low,6,0,6,0,1,,,,,,,,,
297886,2022-12-02_11h37.18.329,vts_reward_expectancy_bt,2022.2.4,MacIntel,60.0024001,Chrome,1440,900,,,,,10,608,,,,,,,,,,,,,,,,,139,B,hexagon,1,0,,,,,,,,,,,,,,,,switch,letter,lettSwt,j,Lo,,,,,,0.7415,0,,,,,,,,low,7,0,7,0,1,,,,,,,,,
297886,2022-12-02_11h37.18.329,vts_reward_expectancy_bt,2022.2.4,MacIntel,60.0024001,Chrome,1440,900,,,,,1,609,,,,,,,,,,,,,,,,,132,H,triangle,1,0,,,,,,,,,,,,,,,,repeat,letter,lettRpt,j,Hi,,,,,,0.2285,0,,,,,,,,low,8,0,8,0,1,,,,,,,,,
297886,2022-12-02_11h37.18.329,vts_reward_expectancy_bt,2022.2.4,MacIntel,60.0024001,Chrome,1440,900,,,,,1,610,,,,,,,,,,,,,,,,,160,Y,hexagon,1,0,,,,,,,,,,,,,,,,repeat,letter,lettRpt,k,Lo,,,,,,0.6212,0,,,,,,,,low,9,0,9,0,1,,,,,,,,,
297886,2022-12-02_11h37.18.329,vts_reward_expectancy_bt,2022.2.4,MacIntel,60.0024001,Chrome,1440,900,,,,,1,611,,,,,,,,,,,,,,,,,181,F,star,1,0,,,,,,,,,,,,,,,,switch,number,numSwt,f,Lo,,,,,,0.7906,0,,,,,,,,low,10,0,10,0,1,,,,,,,,,
297886,2022-12-02_11h37.18.329,vts_reward_expectancy_bt,2022.2.4,MacIntel,60.0024001,Chrome,1440,900,,,,,1,612,,,,,,,,,,,,,,,,,167,U,circle,1,0,,,,,,,,,,,,,,,,switch,letter,lettSwt,k,Hi,,,,,,0.5702,0,,,,,,,,low,11,0,11,0,1,,,,,,,,,
297886,2022-12-02_11h37.18.329,vts_reward_expectancy_bt,2022.2.4,MacIntel,60.0024001,Chrome,1440,900,,,,,1,613,,,,,,,,,,,,,,,,,174,W,hexagon,1,0,,,,,,,,,,,,,,,,switch,number,numSwt,f,Lo,,,,,,0.535,0,,,,,,,,low,12,0,12,0,1,,,,,,,,,
297886,2022-12-02_11h37.18.329,vts_reward_expectancy_bt,2022.2.4,MacIntel,60.0024001,Chrome,1440,900,,,,,10,623,,,,,,,,,,,,,,,,,146,D,circle,1,0,,,,,,,,,,,,,,,,repeat,number,numRpt,d,Hi,,,,,,0.7602,0,,,,,,,,low,13,0,13,0,1,,,,,,,,,
297886,2022-12-02_11h37.18.329,vts_reward_expectancy_bt,2022.2.4,MacIntel,60.0024001,Chrome,1440,900,,,,,1,624,,,,,,,,,,,,,,,,,125,S,star,1,0,,,,,,,,,,,,,,,,repeat,number,numRpt,d,Lo,,,,,,0.8905,0,,,,,,,,low,14,0,14,0,1,,,,,,,,,
297886,2022-12-02_11h37.18.329,vts_reward_expectancy_bt,2022.2.4,MacIntel,60.0024001,Chrome,1440,900,,,,,1,625,,,,,,,,,,,,,,,,,139,B,triangle,1,0,,,,,,,,,,,,,,,,switch,letter,lettSwt,j,Hi,,,,,,0.2863,0,,,,,,,,low,15,0,15,0,1,,,,,,,,,
297886,2022-12-02_11h37.18.329,vts_reward_expectancy_bt,2022.2.4,MacIntel,60.0024001,Chrome,1440,900,,,,,1,626,,,,,,,,,,,,,,,,,181,W,star,1,0,,,,,,,,,,,,,,,,repeat,letter,lettRpt,k,Lo,,,,,,0.4042,0,,,,,,,,low,16,0,16,0,1,,,,,,,,,
297886,2022-12-02_11h37.18.329,vts_reward_expectancy_bt,2022.2.4,MacIntel,60.0024001,Chrome,1440,900,,,,,10,636,,,,,,,,,,,,,,,,,146,Y,circle,1,0,,,,,,,,,,,,,,,,switch,number,numSwt,d,Hi,,,,,,0.5741,0,,,,,,,,low,17,0,17,0,1,,,,,,,,,
297886,2022-12-02_11h37.18.329,vts_reward_expectancy_bt,2022.2.4,MacIntel,60.0024001,Chrome,1440,900,,,,,10,646,,,,,,,,,,,,,,,,,139,F,triangle,1,0,,,,,,,,,,,,,,,,switch,letter,lettSwt,j,Hi,,,,,,0.3063,0,,,,,,,,low,18,0,18,0,1,,,,,,,,,
297886,2022-12-02_11h37.18.329,vts_reward_expectancy_bt,2022.2.4,MacIntel,60.0024001,Chrome,1440,900,,,,,10,656,,,,,,,,,,,,,,,,,132,U,hexagon,1,0,,,,,,,,,,,,,,,,switch,number,numSwt,d,Lo,,,,,,0.4023,0,,,,,,,,low,19,0,19,0,1,,,,,,,,,
297886,2022-12-02_11h37.18.329,vts_reward_expectancy_bt,2022.2.4,MacIntel,60.0024001,Chrome,1440,900,,,,,1,657,,,,,,,,,,,,,,,,,160,D,triangle,1,0,,,,,,,,,,,,,,,,switch,letter,lettSwt,j,Hi,,,,,,0.2535,0,,,,,,,,low,20,0,20,0,1,,,,,,,,,
297886,2022-12-02_11h37.18.329,vts_reward_expectancy_bt,2022.2.4,MacIntel,60.0024001,Chrome,1440,900,,,,,1,658,,,,,,,,,,,,,,,,,174,S,circle,1,0,,,,,,,,,,,,,,,,repeat,letter,lettRpt,k,Hi,,,,,,0.7578,0,,,,,,,,low,21,0,21,0,1,,,,,,,,,
297886,2022-12-02_11h37.18.329,vts_reward_expectancy_bt,2022.2.4,MacIntel,60.0024001,Chrome,1440,900,,,,,10,668,,,,,,,,,,,,,,,,,167,H,hexagon,1,0,,,,,,,,,,,,,,,,repeat,letter,lettRpt,j,Lo,,,,,,0.4856,0,,,,,,,,low,22,0,22,0,1,,,,,,,,,
297886,2022-12-02_11h37.18.329,vts_reward_expectancy_bt,2022.2.4,MacIntel,60.0024001,Chrome,1440,900,,,,,10,678,,,,,,,,,,,,,,,,,125,B,star,1,0,,,,,,,,,,,,,,,,repeat,letter,lettRpt,j,Lo,,,,,,0.8044,0,,,,,,,,low,23,0,23,0,1,,,,,,,,,
297886,2022-12-02_11h37.18.329,vts_reward_expectancy_bt,2022.2.4,MacIntel,60.0024001,Chrome,1440,900,,,,,10,688,,,,,,,,,,,,,,,,,160,S,star,1,0,,,,,,,,,,,,,,,,repeat,letter,lettRpt,k,Lo,,,,,,1.2358,0,,,,,,,,low,24,0,24,0,1,,,,,,,,,
297886,2022-12-02_11h37.18.329,vts_reward_expectancy_bt,2022.2.4,MacIntel,60.0024001,Chrome,1440,900,,,,,1,689,,,,,,,,,,,,,,,,,125,W,hexagon,1,0,,,,,,,,,,,,,,,,switch,number,numSwt,d,Lo,,,,,,0.3897,0,,,,,,,,low,25,0,25,0,1,,,,,,,,,
297886,2022-12-02_11h37.18.329,vts_reward_expectancy_bt,2022.2.4,MacIntel,60.0024001,Chrome,1440,900,,,,,1,690,,,,,,,,,,,,,,,,,174,B,triangle,1,0,,,,,,,,,,,,,,,,switch,letter,lettSwt,j,Hi,,,,,,0.2573,0,,,,,,,,low,26,0,26,0,1,,,,,,,,,
297886,2022-12-02_11h37.18.329,vts_reward_expectancy_bt,2022.2.4,MacIntel,60.0024001,Chrome,1440,900,,,,,0,690,,,,,,,,,,,,,,,,,146,Y,circle,1,0,,,,,,,,,,,,,,,,switch,number,numSwt,d,Hi,,,,,,1.1359,0,,,,,,,,low,27,0,27,0,1,,,,,,,,,
297886,2022-12-02_11h37.18.329,vts_reward_expectancy_bt,2022.2.4,MacIntel,60.0024001,Chrome,1440,900,,,,,10,700,,,,,,,,,,,,,,,,,139,F,triangle,1,0,,,,,,,,,,,,,,,,switch,letter,lettSwt,j,Hi,,,,,,0.2558,0,,,,,,,,low,28,0,28,0,1,,,,,,,,,
297886,2022-12-02_11h37.18.329,vts_reward_expectancy_bt,2022.2.4,MacIntel,60.0024001,Chrome,1440,900,,,,,1,701,,,,,,,,,,,,,,,,,181,D,hexagon,1,0,,,,,,,,,,,,,,,,switch,number,numSwt,f,Lo,,,,,,1.3365,0,,,,,,,,low,29,0,29,0,1,,,,,,,,,
297886,2022-12-02_11h37.18.329,vts_reward_expectancy_bt,2022.2.4,MacIntel,60.0024001,Chrome,1440,900,,,,,0,701,,,,,,,,,,,,,,,,,167,U,star,0,0,,,,,,,,,,,,,,,,switch,letter,NA,j,Lo,,,,,,0.3542,0,,,,,,,,low,30,0,30,0,1,,,,,,,,,
297886,2022-12-02_11h37.18.329,vts_reward_expectancy_bt,2022.2.4,MacIntel,60.0024001,Chrome,1440,900,,,,,0,701,,,,,,,,,,,,,,,,,132,H,circle,1,1,,,,,,,,,,,,,,,,switch,number,numSwt,d,Hi,,,,,,0.858,0,,,,,,,,low,31,0,31,0,1,,,,,,,,,
297886,2022-12-02_11h37.18.329,vts_reward_expectancy_bt,2022.2.4,MacIntel,60.0024001,Chrome,1440,900,,,,,10,711,,,,,,,,,,,,,,,,,146,Y,star,1,0,,,,,,,,,,,,,,,,switch,letter,lettSwt,k,Lo,,,,,,0.4228,1,,,,,,space,2.4271,low,0,0,0,0,1,,,,,,,,,
297886,2022-12-02_11h37.18.329,vts_reward_expectancy_bt,2022.2.4,MacIntel,60.0024001,Chrome,1440,900,,,,,0,711,,,,,,,,,,,,,,,,,160,W,triangle,0,0,,,,,,,,,,,,,,,,repeat,letter,NA,j,Lo,,,,,,0.0894,1,,,,,,,,low,1,0,1,0,1,,,,,,,,,
297886,2022-12-02_11h37.18.329,vts_reward_expectancy_bt,2022.2.4,MacIntel,60.0024001,Chrome,1440,900,,,,,0,711,,,,,,,,,,,,,,,,,181,B,circle,1,1,,,,,,,,,,,,,,,,switch,number,numSwt,f,Hi,,,,,,0.6758,1,,,,,,,,low,2,0,2,0,1,,,,,,,,,
297886,2022-12-02_11h37.18.329,vts_reward_expectancy_bt,2022.2.4,MacIntel,60.0024001,Chrome,1440,900,,,,,1,712,,,,,,,,,,,,,,,,,132,S,hexagon,1,0,,,,,,,,,,,,,,,,repeat,number,numRpt,d,Lo,,,,,,0.7026,1,,,,,,,,low,3,0,3,0,1,,,,,,,,,
297886,2022-12-02_11h37.18.329,vts_reward_expectancy_bt,2022.2.4,MacIntel,60.0024001,Chrome,1440,900,,,,,0,712,,,,,,,,,,,,,,,,,125,H,star,0,0,,,,,,,,,,,,,,,,switch,letter,NA,k,Lo,,,,,,0.2617,1,,,,,,,,low,4,0,4,0,1,,,,,,,,,
297886,2022-12-02_11h37.18.329,vts_reward_expectancy_bt,2022.2.4,MacIntel,60.0024001,Chrome,1440,900,,,,,1,713,,,,,,,,,,,,,,,,,167,U,triangle,1,1,,,,,,,,,,,,,,,,repeat,letter,lettRpt,k,Hi,,,,,,0.2621,1,,,,,,,,low,5,0,5,0,1,,,,,,,,,
297886,2022-12-02_11h37.18.329,vts_reward_expectancy_bt,2022.2.4,MacIntel,60.0024001,Chrome,1440,900,,,,,0,713,,,,,,,,,,,,,,,,,139,F,circle,1,0,,,,,,,,,,,,,,,,switch,number,numSwt,d,Hi,,,,,,0.9558,1,,,,,,,,low,6,0,6,0,1,,,,,,,,,
297886,2022-12-02_11h37.18.329,vts_reward_expectancy_bt,2022.2.4,MacIntel,60.0024001,Chrome,1440,900,,,,,10,723,,,,,,,,,,,,,,,,,174,D,hexagon,1,0,,,,,,,,,,,,,,,,repeat,number,numRpt,f,Lo,,,,,,0.5062,1,,,,,,,,low,7,0,7,0,1,,,,,,,,,
297886,2022-12-02_11h37.18.329,vts_reward_expectancy_bt,2022.2.4,MacIntel,60.0024001,Chrome,1440,900,,,,,0,723,,,,,,,,,,,,,,,,,146,Y,triangle,0,0,,,,,,,,,,,,,,,,switch,letter,NA,j,Lo,,,,,,0.0562,1,,,,,,,,low,8,0,8,0,1,,,,,,,,,
297886,2022-12-02_11h37.18.329,vts_reward_expectancy_bt,2022.2.4,MacIntel,60.0024001,Chrome,1440,900,,,,,10,733,,,,,,,,,,,,,,,,,160,W,star,1,1,,,,,,,,,,,,,,,,switch,number,numSwt,f,Lo,,,,,,0.8273,1,,,,,,,,low,9,0,9,0,1,,,,,,,,,
297886,2022-12-02_11h37.18.329,vts_reward_expectancy_bt,2022.2.4,MacIntel,60.0024001,Chrome,1440,900,,,,,1,734,,,,,,,,,,,,,,,,,181,B,circle,1,0,,,,,,,,,,,,,,,,repeat,number,numRpt,f,Hi,,,,,,0.5687,1,,,,,,,,low,10,0,10,0,1,,,,,,,,,
297886,2022-12-02_11h37.18.329,vts_reward_expectancy_bt,2022.2.4,MacIntel,60.0024001,Chrome,1440,900,,,,,10,744,,,,,,,,,,,,,,,,,132,S,hexagon,1,0,,,,,,,,,,,,,,,,switch,letter,lettSwt,k,Lo,,,,,,0.0515,1,,,,,,,,low,11,0,11,0,1,,,,,,,,,
297886,2022-12-02_11h37.18.329,vts_reward_expectancy_bt,2022.2.4,MacIntel,60.0024001,Chrome,1440,900,,,,,0,744,,,,,,,,,,,,,,,,,125,H,circle,0,0,,,,,,,,,,,,,,,,repeat,letter,NA,k,Lo,,,,,,0.2892,1,,,,,,,,low,12,0,12,0,1,,,,,,,,,
297886,2022-12-02_11h37.18.329,vts_reward_expectancy_bt,2022.2.4,MacIntel,60.0024001,Chrome,1440,900,,,,,0,744,,,,,,,,,,,,,,,,,167,U,star,0,1,,,,,,,,,,,,,,,,repeat,letter,NA,j,Lo,,,,,,0.6216,1,,,,,,,,low,13,0,13,0,1,,,,,,,,,
297886,2022-12-02_11h37.18.329,vts_reward_expectancy_bt,2022.2.4,MacIntel,60.0024001,Chrome,1440,900,,,,,0,744,,,,,,,,,,,,,,,,,139,F,triangle,0,1,,,,,,,,,,,,,,,,repeat,letter,NA,k,Lo,,,,,,0.6384,1,,,,,,,,low,14,0,14,0,1,,,,,,,,,
297886,2022-12-02_11h37.18.329,vts_reward_expectancy_bt,2022.2.4,MacIntel,60.0024001,Chrome,1440,900,,,,,1,745,,,,,,,,,,,,,,,,,174,D,hexagon,1,1,,,,,,,,,,,,,,,,switch,number,numSwt,f,Lo,,,,,,0.8936,1,,,,,,,,low,15,0,15,0,1,,,,,,,,,
297886,2022-12-02_11h37.18.329,vts_reward_expectancy_bt,2022.2.4,MacIntel,60.0024001,Chrome,1440,900,,,,,0,745,,,,,,,,,,,,,,,,,174,W,triangle,1,0,,,,,,,,,,,,,,,,repeat,number,numRpt,f,Hi,,,,,,0.7913,1,,,,,,,,low,16,0,16,0,1,,,,,,,,,
297886,2022-12-02_11h37.18.329,vts_reward_expectancy_bt,2022.2.4,MacIntel,60.0024001,Chrome,1440,900,,,,,1,746,,,,,,,,,,,,,,,,,125,S,star,1,0,,,,,,,,,,,,,,,,repeat,number,numRpt,d,Lo,,,,,,0.5702,1,,,,,,,,low,17,0,17,0,1,,,,,,,,,
297886,2022-12-02_11h37.18.329,vts_reward_expectancy_bt,2022.2.4,MacIntel,60.0024001,Chrome,1440,900,,,,,0,746,,,,,,,,,,,,,,,,,139,B,circle,1,0,,,,,,,,,,,,,,,,switch,letter,lettSwt,j,Hi,,,,,,0.6731,1,,,,,,,,low,18,0,18,0,1,,,,,,,,,
297886,2022-12-02_11h37.18.329,vts_reward_expectancy_bt,2022.2.4,MacIntel,60.0024001,Chrome,1440,900,,,,,10,756,,,,,,,,,,,,,,,,,181,Y,hexagon,1,0,,,,,,,,,,,,,,,,repeat,letter,lettRpt,k,Lo,,,,,,0.6352,1,,,,,,,,low,19,0,19,0,1,,,,,,,,,
297886,2022-12-02_11h37.18.329,vts_reward_expectancy_bt,2022.2.4,MacIntel,60.0024001,Chrome,1440,900,,,,,1,757,,,,,,,,,,,,,,,,,160,F,star,1,0,,,,,,,,,,,,,,,,repeat,letter,lettRpt,j,Lo,,,,,,0.7057,1,,,,,,,,low,20,0,20,0,1,,,,,,,,,
297886,2022-12-02_11h37.18.329,vts_reward_expectancy_bt,2022.2.4,MacIntel,60.0024001,Chrome,1440,900,,,,,0,757,,,,,,,,,,,,,,,,,132,H,triangle,1,0,,,,,,,,,,,,,,,,switch,number,numSwt,d,Hi,,,,,,0.5772,1,,,,,,,,low,21,0,21,0,1,,,,,,,,,
297886,2022-12-02_11h37.18.329,vts_reward_expectancy_bt,2022.2.4,MacIntel,60.0024001,Chrome,1440,900,,,,,1,758,,,,,,,,,,,,,,,,,167,U,hexagon,1,0,,,,,,,,,,,,,,,,repeat,number,numRpt,f,Lo,,,,,,0.5607,1,,,,,,,,low,22,0,22,0,1,,,,,,,,,
297886,2022-12-02_11h37.18.329,vts_reward_expectancy_bt,2022.2.4,MacIntel,60.0024001,Chrome,1440,900,,,,,1,759,,,,,,,,,,,,,,,,,146,D,circle,1,0,,,,,,,,,,,,,,,,repeat,number,numRpt,d,Hi,,,,,,0.6248,1,,,,,,,,low,23,0,23,0,1,,,,,,,,,
297886,2022-12-02_11h37.18.329,vts_reward_expectancy_bt,2022.2.4,MacIntel,60.0024001,Chrome,1440,900,,,,,0,759,,,,,,,,,,,,,,,,,132,B,triangle,1,0,,,,,,,,,,,,,,,,switch,letter,lettSwt,j,Hi,,,,,,0.5221,1,,,,,,,,low,24,0,24,0,1,,,,,,,,,
297886,2022-12-02_11h37.18.329,vts_reward_expectancy_bt,2022.2.4,MacIntel,60.0024001,Chrome,1440,900,,,,,10,769,,,,,,,,,,,,,,,,,139,W,star,1,0,,,,,,,,,,,,,,,,switch,number,numSwt,d,Lo,,,,,,0.7591,1,,,,,,,,low,25,0,25,0,1,,,,,,,,,
297886,2022-12-02_11h37.18.329,vts_reward_expectancy_bt,2022.2.4,MacIntel,60.0024001,Chrome,1440,900,,,,,1,770,,,,,,,,,,,,,,,,,174,U,hexagon,1,0,,,,,,,,,,,,,,,,switch,letter,lettSwt,k,Lo,,,,,,0.7752,1,,,,,,,,low,26,0,26,0,1,,,,,,,,,
297886,2022-12-02_11h37.18.329,vts_reward_expectancy_bt,2022.2.4,MacIntel,60.0024001,Chrome,1440,900,,,,,10,780,,,,,,,,,,,,,,,,,125,D,circle,1,0,,,,,,,,,,,,,,,,switch,number,numSwt,d,Hi,,,,,,0.523,1,,,,,,,,low,27,0,27,0,1,,,,,,,,,
297886,2022-12-02_11h37.18.329,vts_reward_expectancy_bt,2022.2.4,MacIntel,60.0024001,Chrome,1440,900,,,,,1,781,,,,,,,,,,,,,,,,,167,H,triangle,1,0,,,,,,,,,,,,,,,,repeat,number,numRpt,f,Hi,,,,,,0.491,1,,,,,,,,low,28,0,28,0,1,,,,,,,,,
297886,2022-12-02_11h37.18.329,vts_reward_expectancy_bt,2022.2.4,MacIntel,60.0024001,Chrome,1440,900,,,,,0,781,,,,,,,,,,,,,,,,,160,Y,hexagon,0,0,,,,,,,,,,,,,,,,switch,letter,NA,j,Hi,,,,,,0.4864,1,,,,,,,,low,29,0,29,0,1,,,,,,,,,
297886,2022-12-02_11h37.18.329,vts_reward_expectancy_bt,2022.2.4,MacIntel,60.0024001,Chrome,1440,900,,,,,0,781,,,,,,,,,,,,,,,,,181,F,circle,1,1,,,,,,,,,,,,,,,,switch,number,numSwt,f,Hi,,,,,,0.7879,1,,,,,,,,low,30,0,30,0,1,,,,,,,,,
297886,2022-12-02_11h37.18.329,vts_reward_expectancy_bt,2022.2.4,MacIntel,60.0024001,Chrome,1440,900,,,,,1,782,,,,,,,,,,,,,,,,,146,S,star,1,0,,,,,,,,,,,,,,,,switch,letter,lettSwt,k,Lo,,,,,,0.8036,1,,,,,,,,low,31,0,31,0,1,,,,,,,,,
297886,2022-12-02_11h37.18.329,vts_reward_expectancy_bt,2022.2.4,MacIntel,60.0024001,Chrome,1440,900,,,,,0,782,,,,,,,,,,,,,,,,,146,H,star,0,0,,,,,,,,,,,,,,,,repeat,letter,NA,k,Lo,,,,,,0.7364,2,,,,,,space,1.4381,low,0,0,0,0,1,,,,,,,,,
297886,2022-12-02_11h37.18.329,vts_reward_expectancy_bt,2022.2.4,MacIntel,60.0024001,Chrome,1440,900,,,,,10,792,,,,,,,,,,,,,,,,,125,S,hexagon,1,1,,,,,,,,,,,,,,,,repeat,letter,lettRpt,k,Lo,,,,,,1.3791,2,,,,,,,,low,1,0,1,0,1,,,,,,,,,
297886,2022-12-02_11h37.18.329,vts_reward_expectancy_bt,2022.2.4,MacIntel,60.0024001,Chrome,1440,900,,,,,0,792,,,,,,,,,,,,,,,,,132,W,triangle,1,0,,,,,,,,,,,,,,,,repeat,letter,lettRpt,k,Hi,,,,,,1.2255,2,,,,,,,,low,2,0,2,0,1,,,,,,,,,
297886,2022-12-02_11h37.18.329,vts_reward_expectancy_bt,2022.2.4,MacIntel,60.0024001,Chrome,1440,900,,,,,0,792,,,,,,,,,,,,,,,,,160,U,circle,1,0,,,,,,,,,,,,,,,,repeat,letter,lettRpt,k,Hi,,,,,,0.9992,2,,,,,,,,low,3,0,3,0,1,,,,,,,,,
297886,2022-12-02_11h37.18.329,vts_reward_expectancy_bt,2022.2.4,MacIntel,60.0024001,Chrome,1440,900,,,,,10,802,,,,,,,,,,,,,,,,,174,F,star,1,0,,,,,,,,,,,,,,,,switch,number,numSwt,f,Lo,,,,,,0.6568,2,,,,,,,,low,4,0,4,0,1,,,,,,,,,
297886,2022-12-02_11h37.18.329,vts_reward_expectancy_bt,2022.2.4,MacIntel,60.0024001,Chrome,1440,900,,,,,10,812,,,,,,,,,,,,,,,,,181,Y,hexagon,1,0,,,,,,,,,,,,,,,,repeat,number,numRpt,f,Lo,,,,,,0.7882,2,,,,,,,,low,5,0,5,0,1,,,,,,,,,
297886,2022-12-02_11h37.18.329,vts_reward_expectancy_bt,2022.2.4,MacIntel,60.0024001,Chrome,1440,900,,,,,0,812,,,,,,,,,,,,,,,,,139,D,triangle,0,0,,,,,,,,,,,,,,,,repeat,number,NA,f,Lo,,,,,,0.545,2,,,,,,,,low,6,0,6,0,1,,,,,,,,,
297886,2022-12-02_11h37.18.329,vts_reward_expectancy_bt,2022.2.4,MacIntel,60.0024001,Chrome,1440,900,,,,,0,812,,,,,,,,,,,,,,,,,167,B,circle,1,1,,,,,,,,,,,,,,,,repeat,number,numRpt,f,Hi,,,,,,1.2757,2,,,,,,,,low,7,0,7,0,1,,,,,,,,,
297886,2022-12-02_11h37.18.329,vts_reward_expectancy_bt,2022.2.4,MacIntel,60.0024001,Chrome,1440,900,,,,,0,812,,,,,,,,,,,,,,,,,146,H,triangle,1,0,,,,,,,,,,,,,,,,repeat,number,numRpt,d,Hi,,,,,,0.8591,2,,,,,,,,low,8,0,8,0,1,,,,,,,,,
297886,2022-12-02_11h37.18.329,vts_reward_expectancy_bt,2022.2.4,MacIntel,60.0024001,Chrome,1440,900,,,,,0,812,,,,,,,,,,,,,,,,,125,S,circle,1,0,,,,,,,,,,,,,,,,repeat,number,numRpt,d,Hi,,,,,,0.6123,2,,,,,,,,low,9,0,9,0,1,,,,,,,,,
297886,2022-12-02_11h37.18.329,vts_reward_expectancy_bt,2022.2.4,MacIntel,60.0024001,Chrome,1440,900,,,,,10,822,,,,,,,,,,,,,,,,,132,W,star,1,0,,,,,,,,,,,,,,,,repeat,number,numRpt,d,Lo,,,,,,0.5731,2,,,,,,,,low,10,0,10,0,1,,,,,,,,,
297886,2022-12-02_11h37.18.329,vts_reward_expectancy_bt,2022.2.4,MacIntel,60.0024001,Chrome,1440,900,,,,,10,832,,,,,,,,,,,,,,,,,160,U,hexagon,1,0,,,,,,,,,,,,,,,,switch,letter,lettSwt,k,Lo,,,,,,0.6604,2,,,,,,,,low,11,0,11,0,1,,,,,,,,,
297886,2022-12-02_11h37.18.329,vts_reward_expectancy_bt,2022.2.4,MacIntel,60.0024001,Chrome,1440,900,,,,,0,832,,,,,,,,,,,,,,,,,174,F,circle,1,0,,,,,,,,,,,,,,,,switch,number,numSwt,f,Hi,,,,,,0.7742,2,,,,,,,,low,12,0,12,0,1,,,,,,,,,
297886,2022-12-02_11h37.18.329,vts_reward_expectancy_bt,2022.2.4,MacIntel,60.0024001,Chrome,1440,900,,,,,1,833,,,,,,,,,,,,,,,,,181,Y,triangle,1,0,,,,,,,,,,,,,,,,switch,letter,lettSwt,k,Hi,,,,,,0.2892,2,,,,,,,,low,13,0,13,0,1,,,,,,,,,
297886,2022-12-02_11h37.18.329,vts_reward_expectancy_bt,2022.2.4,MacIntel,60.0024001,Chrome,1440,900,,,,,1,834,,,,,,,,,,,,,,,,,139,D,star,1,0,,,,,,,,,,,,,,,,repeat,letter,lettRpt,j,Lo,,,,,,0.5929,2,,,,,,,,low,14,0,14,0,1,,,,,,,,,
297886,2022-12-02_11h37.18.329,vts_reward_expectancy_bt,2022.2.4,MacIntel,60.0024001,Chrome,1440,900,,,,,10,844,,,,,,,,,,,,,,,,,167,B,hexagon,1,0,,,,,,,,,,,,,,,,switch,number,numSwt,f,Lo,,,,,,0.7882,2,,,,,,,,low,15,0,15,0,1,,,,,,,,,
297886,2022-12-02_11h37.18.329,vts_reward_expectancy_bt,2022.2.4,MacIntel,60.0024001,Chrome,1440,900,,,,,10,854,,,,,,,,,,,,,,,,,174,F,hexagon,1,0,,,,,,,,,,,,,,,,repeat,number,numRpt,f,Lo,,,,,,0.5421,2,,,,,,,,low,16,0,16,0,1,,,,,,,,,
297886,2022-12-02_11h37.18.329,vts_reward_expectancy_bt,2022.2.4,MacIntel,60.0024001,Chrome,1440,900,,,,,0,854,,,,,,,,,,,,,,,,,125,S,triangle,0,0,,,,,,,,,,,,,,,,repeat,number,NA,f,Lo,,,,,,0.2886,2,,,,,,,,low,17,0,17,0,1,,,,,,,,,
297886,2022-12-02_11h37.18.329,vts_reward_expectancy_bt,2022.2.4,MacIntel,60.0024001,Chrome,1440,900,,,,,0,854,,,,,,,,,,,,,,,,,139,B,star,0,1,,,,,,,,,,,,,,,,switch,letter,NA,k,Lo,,,,,,0.5729,2,,,,,,,,low,18,0,18,0,1,,,,,,,,,
297886,2022-12-02_11h37.18.329,vts_reward_expectancy_bt,2022.2.4,MacIntel,60.0024001,Chrome,1440,900,,,,,0,854,,,,,,,,,,,,,,,,,146,Y,circle,1,1,,,,,,,,,,,,,,,,repeat,letter,lettRpt,k,Hi,,,,,,0.8221,2,,,,,,,,low,19,0,19,0,1,,,,,,,,,
297886,2022-12-02_11h37.18.329,vts_reward_expectancy_bt,2022.2.4,MacIntel,60.0024001,Chrome,1440,900,,,,,1,855,,,,,,,,,,,,,,,,,181,H,star,1,0,,,,,,,,,,,,,,,,repeat,letter,lettRpt,j,Lo,,,,,,0.6492,2,,,,,,,,low,20,0,20,0,1,,,,,,,,,
297886,2022-12-02_11h37.18.329,vts_reward_expectancy_bt,2022.2.4,MacIntel,60.0024001,Chrome,1440,900,,,,,0,855,,,,,,,,,,,,,,,,,160,D,circle,1,0,,,,,,,,,,,,,,,,repeat,letter,lettRpt,j,Hi,,,,,,0.8094,2,,,,,,,,low,21,0,21,0,1,,,,,,,,,
297886,2022-12-02_11h37.18.329,vts_reward_expectancy_bt,2022.2.4,MacIntel,60.0024001,Chrome,1440,900,,,,,1,856,,,,,,,,,,,,,,,,,167,W,hexagon,1,0,,,,,,,,,,,,,,,,switch,number,numSwt,f,Lo,,,,,,0.5377,2,,,,,,,,low,22,0,22,0,1,,,,,,,,,
297886,2022-12-02_11h37.18.329,vts_reward_expectancy_bt,2022.2.4,MacIntel,60.0024001,Chrome,1440,900,,,,,1,857,,,,,,,,,,,,,,,,,132,U,triangle,1,0,,,,,,,,,,,,,,,,repeat,number,numRpt,d,Hi,,,,,,0.5023,2,,,,,,,,low,23,0,23,0,1,,,,,,,,,
297886,2022-12-02_11h37.18.329,vts_reward_expectancy_bt,2022.2.4,MacIntel,60.0024001,Chrome,1440,900,,,,,1,858,,,,,,,,,,,,,,,,,139,S,triangle,1,0,,,,,,,,,,,,,,,,repeat,number,numRpt,d,Hi,,,,,,0.2591,2,,,,,,,,low,24,0,24,0,1,,,,,,,,,
297886,2022-12-02_11h37.18.329,vts_reward_expectancy_bt,2022.2.4,MacIntel,60.0024001,Chrome,1440,900,,,,,0,858,,,,,,,,,,,,,,,,,125,W,star,0,0,,,,,,,,,,,,,,,,switch,letter,NA,j,Hi,,,,,,0.3402,2,,,,,,,,low,25,0,25,0,1,,,,,,,,,
297886,2022-12-02_11h37.18.329,vts_reward_expectancy_bt,2022.2.4,MacIntel,60.0024001,Chrome,1440,900,,,,,1,859,,,,,,,,,,,,,,,,,174,F,hexagon,1,1,,,,,,,,,,,,,,,,repeat,letter,lettRpt,j,Lo,,,,,,0.6713,2,,,,,,,,low,26,0,26,0,1,,,,,,,,,
297886,2022-12-02_11h37.18.329,vts_reward_expectancy_bt,2022.2.4,MacIntel,60.0024001,Chrome,1440,900,,,,,10,869,,,,,,,,,,,,,,,,,167,H,circle,1,0,,,,,,,,,,,,,,,,switch,number,numSwt,f,Hi,,,,,,0.6894,2,,,,,,,,low,27,0,27,0,1,,,,,,,,,
297886,2022-12-02_11h37.18.329,vts_reward_expectancy_bt,2022.2.4,MacIntel,60.0024001,Chrome,1440,900,,,,,1,870,,,,,,,,,,,,,,,,,181,Y,hexagon,1,0,,,,,,,,,,,,,,,,repeat,number,numRpt,f,Lo,,,,,,0.7893,2,,,,,,,,low,28,0,28,0,1,,,,,,,,,
297886,2022-12-02_11h37.18.329,vts_reward_expectancy_bt,2022.2.4,MacIntel,60.0024001,Chrome,1440,900,,,,,0,870,,,,,,,,,,,,,,,,,132,U,circle,1,0,,,,,,,,,,,,,,,,repeat,number,numRpt,d,Hi,,,,,,0.6158,2,,,,,,,,low,29,0,29,0,1,,,,,,,,,
297886,2022-12-02_11h37.18.329,vts_reward_expectancy_bt,2022.2.4,MacIntel,60.0024001,Chrome,1440,900,,,,,10,880,,,,,,,,,,,,,,,,,146,B,triangle,1,0,,,,,,,,,,,,,,,,switch,letter,lettSwt,j,Hi,,,,,,0.0551,2,,,,,,,,low,30,0,30,0,1,,,,,,,,,
297886,2022-12-02_11h37.18.329,vts_reward_expectancy_bt,2022.2.4,MacIntel,60.0024001,Chrome,1440,900,,,,,1,881,,,,,,,,,,,,,,,,,160,D,star,1,0,,,,,,,,,,,,,,,,repeat,letter,lettRpt,j,Lo,,,,,,1.1198,2,,,,,,,,low,31,0,31,0,1,,,,,,,,,
297886,2022-12-02_11h37.18.329,vts_reward_expectancy_bt,2022.2.4,MacIntel,60.0024001,Chrome,1440,900,,,,,10,891,,,,,,,,,,,,,,,,,146,U,star,1,0,,,,,,,,,,,,,,,,switch,number,numSwt,d,Lo,,,,,,0.0724,3,,,,,,space,1.708,low,0,0,0,0,1,,,,,,,,,
297886,2022-12-02_11h37.18.329,vts_reward_expectancy_bt,2022.2.4,MacIntel,60.0024001,Chrome,1440,900,,,,,1,892,,,,,,,,,,,,,,,,,167,F,hexagon,1,0,,,,,,,,,,,,,,,,switch,letter,lettSwt,j,Lo,,,,,,0.755,3,,,,,,,,low,1,0,1,0,1,,,,,,,,,
297886,2022-12-02_11h37.18.329,vts_reward_expectancy_bt,2022.2.4,MacIntel,60.0024001,Chrome,1440,900,,,,,1,893,,,,,,,,,,,,,,,,,174,W,circle,1,0,,,,,,,,,,,,,,,,switch,number,numSwt,f,Hi,,,,,,0.5895,3,,,,,,,,low,2,0,2,0,1,,,,,,,,,
297886,2022-12-02_11h37.18.329,vts_reward_expectancy_bt,2022.2.4,MacIntel,60.0024001,Chrome,1440,900,,,,,10,903,,,,,,,,,,,,,,,,,139,B,triangle,1,0,,,,,,,,,,,,,,,,switch,letter,lettSwt,j,Hi,,,,,,0.0696,3,,,,,,,,low,3,0,3,0,1,,,,,,,,,
297886,2022-12-02_11h37.18.329,vts_reward_expectancy_bt,2022.2.4,MacIntel,60.0024001,Chrome,1440,900,,,,,1,904,,,,,,,,,,,,,,,,,125,S,star,1,0,,,,,,,,,,,,,,,,switch,number,numSwt,d,Lo,,,,,,0.3787,3,,,,,,,,low,4,0,4,0,1,,,,,,,,,
297886,2022-12-02_11h37.18.329,vts_reward_expectancy_bt,2022.2.4,MacIntel,60.0024001,Chrome,1440,900,,,,,1,905,,,,,,,,,,,,,,,,,181,D,hexagon,1,0,,,,,,,,,,,,,,,,switch,letter,lettSwt,j,Lo,,,,,,0.5269,3,,,,,,,,low,5,0,5,0,1,,,,,,,,,
297886,2022-12-02_11h37.18.329,vts_reward_expectancy_bt,2022.2.4,MacIntel,60.0024001,Chrome,1440,900,,,,,10,915,,,,,,,,,,,,,,,,,132,Y,circle,1,0,,,,,,,,,,,,,,,,repeat,letter,lettRpt,k,Hi,,,,,,0.0454,3,,,,,,,,low,6,0,6,0,1,,,,,,,,,
297886,2022-12-02_11h37.18.329,vts_reward_expectancy_bt,2022.2.4,MacIntel,60.0024001,Chrome,1440,900,,,,,1,916,,,,,,,,,,,,,,,,,160,H,triangle,1,0,,,,,,,,,,,,,,,,repeat,letter,lettRpt,j,Hi,,,,,,0.1174,3,,,,,,,,low,7,0,7,0,1,,,,,,,,,
297886,2022-12-02_11h37.18.329,vts_reward_expectancy_bt,2022.2.4,MacIntel,60.0024001,Chrome,1440,900,,,,,10,926,,,,,,,,,,,,,,,,,146,U,circle,1,0,,,,,,,,,,,,,,,,repeat,letter,lettRpt,k,Hi,,,,,,0.6185,3,,,,,,,,low,8,0,8,0,1,,,,,,,,,
297886,2022-12-02_11h37.18.329,vts_reward_expectancy_bt,2022.2.4,MacIntel,60.0024001,Chrome,1440,900,,,,,1,927,,,,,,,,,,,,,,,,,167,F,hexagon,1,0,,,,,,,,,,,,,,,,switch,number,numSwt,f,Lo,,,,,,0.4708,3,,,,,,,,low,9,0,9,0,1,,,,,,,,,
297886,2022-12-02_11h37.18.329,vts_reward_expectancy_bt,2022.2.4,MacIntel,60.0024001,Chrome,1440,900,,,,,0,927,,,,,,,,,,,,,,,,,174,W,triangle,0,0,,,,,,,,,,,,,,,,switch,letter,NA,j,Lo,,,,,,0.0888,3,,,,,,,,low,10,0,10,0,1,,,,,,,,,
297886,2022-12-02_11h37.18.329,vts_reward_expectancy_bt,2022.2.4,MacIntel,60.0024001,Chrome,1440,900,,,,,0,927,,,,,,,,,,,,,,,,,139,B,star,0,1,,,,,,,,,,,,,,,,switch,number,NA,f,Lo,,,,,,0.0007,3,,,,,,,,low,11,0,11,0,1,,,,,,,,,
297886,2022-12-02_11h37.18.329,vts_reward_expectancy_bt,2022.2.4,MacIntel,60.0024001,Chrome,1440,900,,,,,1,928,,,,,,,,,,,,,,,,,125,S,star,1,1,,,,,,,,,,,,,,,,repeat,number,numRpt,d,Lo,,,,,,0.3215,3,,,,,,,,low,12,0,12,0,1,,,,,,,,,
297886,2022-12-02_11h37.18.329,vts_reward_expectancy_bt,2022.2.4,MacIntel,60.0024001,Chrome,1440,900,,,,,0,928,,,,,,,,,,,,,,,,,181,D,circle,0,0,,,,,,,,,,,,,,,,switch,letter,NA,k,Lo,,,,,,0.5202,3,,,,,,,,low,13,0,13,0,1,,,,,,,,,
297886,2022-12-02_11h37.18.329,vts_reward_expectancy_bt,2022.2.4,MacIntel,60.0024001,Chrome,1440,900,,,,,0,928,,,,,,,,,,,,,,,,,132,Y,triangle,0,1,,,,,,,,,,,,,,,,repeat,letter,NA,j,Lo,,,,,,0.2701,3,,,,,,,,low,14,0,14,0,1,,,,,,,,,
297886,2022-12-02_11h37.18.329,vts_reward_expectancy_bt,2022.2.4,MacIntel,60.0024001,Chrome,1440,900,,,,,1,929,,,,,,,,,,,,,,,,,160,H,hexagon,1,1,,,,,,,,,,,,,,,,switch,number,numSwt,f,Lo,,,,,,0.6919,3,,,,,,,,low,15,0,15,0,1,,,,,,,,,
297886,2022-12-02_11h37.18.329,vts_reward_expectancy_bt,2022.2.4,MacIntel,60.0024001,Chrome,1440,900,,,,,0,929,,,,,,,,,,,,,,,,,160,U,triangle,1,0,,,,,,,,,,,,,,,,switch,letter,lettSwt,k,Hi,,,,,,0.7582,3,,,,,,,,low,16,0,16,0,1,,,,,,,,,
297886,2022-12-02_11h37.18.329,vts_reward_expectancy_bt,2022.2.4,MacIntel,60.0024001,Chrome,1440,900,,,,,1,930,,,,,,,,,,,,,,,,,139,B,star,1,0,,,,,,,,,,,,,,,,switch,number,numSwt,d,Lo,,,,,,0.4708,3,,,,,,,,low,17,0,17,0,1,,,,,,,,,
297886,2022-12-02_11h37.18.329,vts_reward_expectancy_bt,2022.2.4,MacIntel,60.0024001,Chrome,1440,900,,,,,1,931,,,,,,,,,,,,,,,,,167,W,hexagon,1,0,,,,,,,,,,,,,,,,repeat,number,numRpt,f,Lo,,,,,,0.4383,3,,,,,,,,low,18,0,18,0,1,,,,,,,,,
297886,2022-12-02_11h37.18.329,vts_reward_expectancy_bt,2022.2.4,MacIntel,60.0024001,Chrome,1440,900,,,,,0,931,,,,,,,,,,,,,,,,,181,D,circle,1,0,,,,,,,,,,,,,,,,switch,letter,lettSwt,j,Hi,,,,,,0.6227,3,,,,,,,,low,19,0,19,0,1,,,,,,,,,
297886,2022-12-02_11h37.18.329,vts_reward_expectancy_bt,2022.2.4,MacIntel,60.0024001,Chrome,1440,900,,,,,0,931,,,,,,,,,,,,,,,,,132,F,star,0,0,,,,,,,,,,,,,,,,switch,number,NA,f,Hi,,,,,,1.0577,3,,,,,,,,low,20,0,20,0,1,,,,,,,,,
297886,2022-12-02_11h37.18.329,vts_reward_expectancy_bt,2022.2.4,MacIntel,60.0024001,Chrome,1440,900,,,,,0,931,,,,,,,,,,,,,,,,,146,Y,triangle,0,1,,,,,,,,,,,,,,,,switch,letter,NA,j,Hi,,,,,,0.2892,3,,,,,,,,low,21,0,21,0,1,,,,,,,,,
297886,2022-12-02_11h37.18.329,vts_reward_expectancy_bt,2022.2.4,MacIntel,60.0024001,Chrome,1440,900,,,,,1,932,,,,,,,,,,,,,,,,,174,S,hexagon,1,1,,,,,,,,,,,,,,,,switch,number,numSwt,f,Lo,,,,,,0.7776,3,,,,,,,,low,22,0,22,0,1,,,,,,,,,
297886,2022-12-02_11h37.18.329,vts_reward_expectancy_bt,2022.2.4,MacIntel,60.0024001,Chrome,1440,900,,,,,0,932,,,,,,,,,,,,,,,,,125,H,circle,0,0,,,,,,,,,,,,,,,,switch,letter,NA,k,Lo,,,,,,0.4599,3,,,,,,,,low,23,0,23,0,1,,,,,,,,,
297886,2022-12-02_11h37.18.329,vts_reward_expectancy_bt,2022.2.4,MacIntel,60.0024001,Chrome,1440,900,,,,,0,932,,,,,,,,,,,,,,,,,174,F,triangle,0,1,,,,,,,,,,,,,,,,repeat,letter,NA,k,Lo,,,,,,0.6042,3,,,,,,,,low,24,0,24,0,1,,,,,,,,,
297886,2022-12-02_11h37.18.329,vts_reward_expectancy_bt,2022.2.4,MacIntel,60.0024001,Chrome,1440,900,,,,,0,932,,,,,,,,,,,,,,,,,139,U,circle,1,1,,,,,,,,,,,,,,,,switch,number,numSwt,d,Hi,,,,,,0.974,3,,,,,,,,low,25,0,25,0,1,,,,,,,,,
297886,2022-12-02_11h37.18.329,vts_reward_expectancy_bt,2022.2.4,MacIntel,60.0024001,Chrome,1440,900,,,,,1,933,,,,,,,,,,,,,,,,,181,W,star,1,0,,,,,,,,,,,,,,,,switch,letter,lettSwt,k,Lo,,,,,,1.1238,3,,,,,,,,low,26,0,26,0,1,,,,,,,,,
297886,2022-12-02_11h37.18.329,vts_reward_expectancy_bt,2022.2.4,MacIntel,60.0024001,Chrome,1440,900,,,,,1,934,,,,,,,,,,,,,,,,,132,Y,hexagon,1,0,,,,,,,,,,,,,,,,repeat,letter,lettRpt,k,Lo,,,,,,0.5559,3,,,,,,,,low,27,0,27,0,1,,,,,,,,,
297886,2022-12-02_11h37.18.329,vts_reward_expectancy_bt,2022.2.4,MacIntel,60.0024001,Chrome,1440,900,,,,,0,934,,,,,,,,,,,,,,,,,160,S,triangle,0,0,,,,,,,,,,,,,,,,switch,number,NA,d,Lo,,,,,,0.2724,3,,,,,,,,low,28,0,28,0,1,,,,,,,,,
297886,2022-12-02_11h37.18.329,vts_reward_expectancy_bt,2022.2.4,MacIntel,60.0024001,Chrome,1440,900,,,,,0,934,,,,,,,,,,,,,,,,,125,D,star,0,1,,,,,,,,,,,,,,,,switch,letter,NA,k,Lo,,,,,,0.2519,3,,,,,,,,low,29,0,29,0,1,,,,,,,,,
297886,2022-12-02_11h37.18.329,vts_reward_expectancy_bt,2022.2.4,MacIntel,60.0024001,Chrome,1440,900,,,,,1,935,,,,,,,,,,,,,,,,,146,H,circle,1,1,,,,,,,,,,,,,,,,repeat,letter,lettRpt,j,Hi,,,,,,0.5443,3,,,,,,,,low,30,0,30,0,1,,,,,,,,,
297886,2022-12-02_11h37.18.329,vts_reward_expectancy_bt,2022.2.4,MacIntel,60.0024001,Chrome,1440,900,,,,,10,945,,,,,,,,,,,,,,,,,167,B,hexagon,1,0,,,,,,,,,,,,,,,,repeat,letter,lettRpt,j,Lo,,,,,,0.6191,3,,,,,,,,low,31,0,31,0,1,,,,,,,,,
297886,2022-12-02_11h37.18.329,vts_reward_expectancy_bt,2022.2.4,MacIntel,60.0024001,Chrome,1440,900,,,,,0,945,,,,,,,,,,,,,,,,,167,F,circle,1,0,,,,,,,,,,,,,,,,repeat,letter,lettRpt,j,Hi,,,,,,0.6116,4,,,,,,space,1.6751,low,0,0,0,0,1,,,,,,,,,
297886,2022-12-02_11h37.18.329,vts_reward_expectancy_bt,2022.2.4,MacIntel,60.0024001,Chrome,1440,900,,,,,0,945,,,,,,,,,,,,,,,,,146,H,triangle,1,0,,,,,,,,,,,,,,,,repeat,letter,lettRpt,j,Hi,,,,,,0.4876,4,,,,,,,,low,1,0,1,0,1,,,,,,,,,
297886,2022-12-02_11h37.18.329,vts_reward_expectancy_bt,2022.2.4,MacIntel,60.0024001,Chrome,1440,900,,,,,10,955,,,,,,,,,,,,,,,,,132,B,hexagon,1,0,,,,,,,,,,,,,,,,repeat,letter,lettRpt,j,Lo,,,,,,0.3468,4,,,,,,,,low,2,0,2,0,1,,,,,,,,,
297886,2022-12-02_11h37.18.329,vts_reward_expectancy_bt,2022.2.4,MacIntel,60.0024001,Chrome,1440,900,,,,,1,956,,,,,,,,,,,,,,,,,160,S,star,1,0,,,,,,,,,,,,,,,,switch,number,numSwt,f,Lo,,,,,,0.4981,4,,,,,,,,low,3,0,3,0,1,,,,,,,,,
297886,2022-12-02_11h37.18.329,vts_reward_expectancy_bt,2022.2.4,MacIntel,60.0024001,Chrome,1440,900,,,,,0,956,,,,,,,,,,,,,,,,,174,U,circle,0,0,,,,,,,,,,,,,,,,switch,letter,NA,j,Lo,,,,,,0.286,4,,,,,,,,low,4,0,4,0,1,,,,,,,,,
297886,2022-12-02_11h37.18.329,vts_reward_expectancy_bt,2022.2.4,MacIntel,60.0024001,Chrome,1440,900,,,,,10,966,,,,,,,,,,,,,,,,,139,D,triangle,1,1,,,,,,,,,,,,,,,,repeat,letter,lettRpt,j,Hi,,,,,,0.0772,4,,,,,,,,low,5,0,5,0,1,,,,,,,,,
297886,2022-12-02_11h37.18.329,vts_reward_expectancy_bt,2022.2.4,MacIntel,60.0024001,Chrome,1440,900,,,,,10,976,,,,,,,,,,,,,,,,,125,Y,hexagon,1,0,,,,,,,,,,,,,,,,switch,number,numSwt,d,Lo,,,,,,1.4554,4,,,,,,,,low,6,0,6,0,1,,,,,,,,,
297886,2022-12-02_11h37.18.329,vts_reward_expectancy_bt,2022.2.4,MacIntel,60.0024001,Chrome,1440,900,,,,,1,977,,,,,,,,,,,,,,,,,181,W,star,1,0,,,,,,,,,,,,,,,,switch,letter,lettSwt,k,Lo,,,,,,0.6556,4,,,,,,,,low,7,0,7,0,1,,,,,,,,,
297886,2022-12-02_11h37.18.329,vts_reward_expectancy_bt,2022.2.4,MacIntel,60.0024001,Chrome,1440,900,,,,,0,977,,,,,,,,,,,,,,,,,167,F,hexagon,0,0,,,,,,,,,,,,,,,,repeat,letter,NA,k,Lo,,,,,,0.6546,4,,,,,,,,low,8,0,8,0,1,,,,,,,,,
297886,2022-12-02_11h37.18.329,vts_reward_expectancy_bt,2022.2.4,MacIntel,60.0024001,Chrome,1440,900,,,,,1,978,,,,,,,,,,,,,,,,,146,H,star,1,1,,,,,,,,,,,,,,,,repeat,letter,lettRpt,j,Lo,,,,,,0.4857,4,,,,,,,,low,9,0,9,0,1,,,,,,,,,
297886,2022-12-02_11h37.18.329,vts_reward_expectancy_bt,2022.2.4,MacIntel,60.0024001,Chrome,1440,900,,,,,10,988,,,,,,,,,,,,,,,,,132,B,circle,1,0,,,,,,,,,,,,,,,,repeat,letter,lettRpt,j,Hi,,,,,,0.3798,4,,,,,,,,low,10,0,10,0,1,,,,,,,,,
297886,2022-12-02_11h37.18.329,vts_reward_expectancy_bt,2022.2.4,MacIntel,60.0024001,Chrome,1440,900,,,,,0,988,,,,,,,,,,,,,,,,,160,S,triangle,1,0,,,,,,,,,,,,,,,,switch,number,numSwt,f,Hi,,,,,,0.7575,4,,,,,,,,low,11,0,11,0,1,,,,,,,,,
297886,2022-12-02_11h37.18.329,vts_reward_expectancy_bt,2022.2.4,MacIntel,60.0024001,Chrome,1440,900,,,,,1,989,,,,,,,,,,,,,,,,,174,U,hexagon,1,0,,,,,,,,,,,,,,,,repeat,number,numRpt,f,Lo,,,,,,0.6237,4,,,,,,,,low,12,0,12,0,1,,,,,,,,,
297886,2022-12-02_11h37.18.329,vts_reward_expectancy_bt,2022.2.4,MacIntel,60.0024001,Chrome,1440,900,,,,,1,990,,,,,,,,,,,,,,,,,139,D,star,1,0,,,,,,,,,,,,,,,,repeat,number,numRpt,d,Lo,,,,,,0.4925,4,,,,,,,,low,13,0,13,0,1,,,,,,,,,
297886,2022-12-02_11h37.18.329,vts_reward_expectancy_bt,2022.2.4,MacIntel,60.0024001,Chrome,1440,900,,,,,0,990,,,,,,,,,,,,,,,,,125,Y,triangle,0,0,,,,,,,,,,,,,,,,switch,letter,NA,j,Lo,,,,,,0.4557,4,,,,,,,,low,14,0,14,0,1,,,,,,,,,
297886,2022-12-02_11h37.18.329,vts_reward_expectancy_bt,2022.2.4,MacIntel,60.0024001,Chrome,1440,900,,,,,0,990,,,,,,,,,,,,,,,,,181,W,circle,0,1,,,,,,,,,,,,,,,,repeat,letter,NA,j,Lo,,,,,,0.4375,4,,,,,,,,low,15,0,15,0,1,,,,,,,,,
297886,2022-12-02_11h37.18.329,vts_reward_expectancy_bt,2022.2.4,MacIntel,60.0024001,Chrome,1440,900,,,,,0,990,,,,,,,,,,,,,,,,,174,H,triangle,1,1,,,,,,,,,,,,,,,,repeat,letter,lettRpt,j,Hi,,,,,,0.7589,4,,,,,,,,low,16,0,16,0,1,,,,,,,,,
297886,2022-12-02_11h37.18.329,vts_reward_expectancy_bt,2022.2.4,MacIntel,60.0024001,Chrome,1440,900,,,,,0,990,,,,,,,,,,,,,,,,,139,U,circle,1,0,,,,,,,,,,,,,,,,switch,number,numSwt,d,Hi,,,,,,0.6148,4,,,,,,,,low,17,0,17,0,1,,,,,,,,,
297886,2022-12-02_11h37.18.329,vts_reward_expectancy_bt,2022.2.4,MacIntel,60.0024001,Chrome,1440,900,,,,,1,991,,,,,,,,,,,,,,,,,167,S,hexagon,1,0,,,,,,,,,,,,,,,,repeat,number,numRpt,f,Lo,,,,,,0.5073,4,,,,,,,,low,18,0,18,0,1,,,,,,,,,
297886,2022-12-02_11h37.18.329,vts_reward_expectancy_bt,2022.2.4,MacIntel,60.0024001,Chrome,1440,900,,,,,1,992,,,,,,,,,,,,,,,,,146,F,star,1,0,,,,,,,,,,,,,,,,repeat,number,numRpt,d,Lo,,,,,,0.5407,4,,,,,,,,low,19,0,19,0,1,,,,,,,,,
297886,2022-12-02_11h37.18.329,vts_reward_expectancy_bt,2022.2.4,MacIntel,60.0024001,Chrome,1440,900,,,,,0,992,,,,,,,,,,,,,,,,,160,W,circle,0,0,,,,,,,,,,,,,,,,repeat,number,NA,d,Lo,,,,,,0.0944,4,,,,,,,,low,20,0,20,0,1,,,,,,,,,
297886,2022-12-02_11h37.18.329,vts_reward_expectancy_bt,2022.2.4,MacIntel,60.0024001,Chrome,1440,900,,,,,10,1002,,,,,,,,,,,,,,,,,181,D,star,1,1,,,,,,,,,,,,,,,,switch,letter,lettSwt,j,Lo,,,,,,0.5382,4,,,,,,,,low,21,0,21,0,1,,,,,,,,,
297886,2022-12-02_11h37.18.329,vts_reward_expectancy_bt,2022.2.4,MacIntel,60.0024001,Chrome,1440,900,,,,,0,1002,,,,,,,,,,,,,,,,,125,B,triangle,1,0,,,,,,,,,,,,,,,,repeat,letter,lettRpt,j,Hi,,,,,,0.5117,4,,,,,,,,low,22,0,22,0,1,,,,,,,,,
297886,2022-12-02_11h37.18.329,vts_reward_expectancy_bt,2022.2.4,MacIntel,60.0024001,Chrome,1440,900,,,,,1,1003,,,,,,,,,,,,,,,,,132,Y,hexagon,1,0,,,,,,,,,,,,,,,,switch,number,numSwt,d,Lo,,,,,,0.5567,4,,,,,,,,low,23,0,23,0,1,,,,,,,,,
297886,2022-12-02_11h37.18.329,vts_reward_expectancy_bt,2022.2.4,MacIntel,60.0024001,Chrome,1440,900,,,,,1,1004,,,,,,,,,,,,,,,,,132,D,hexagon,1,0,,,,,,,,,,,,,,,,repeat,number,numRpt,d,Lo,,,,,,0.6451,4,,,,,,,,low,24,0,24,0,1,,,,,,,,,
297886,2022-12-02_11h37.18.329,vts_reward_expectancy_bt,2022.2.4,MacIntel,60.0024001,Chrome,1440,900,,,,,1,1005,,,,,,,,,,,,,,,,,160,Y,star,1,0,,,,,,,,,,,,,,,,switch,letter,lettSwt,k,Lo,,,,,,0.4985,4,,,,,,,,low,25,0,25,0,1,,,,,,,,,
297886,2022-12-02_11h37.18.329,vts_reward_expectancy_bt,2022.2.4,MacIntel,60.0024001,Chrome,1440,900,,,,,0,1005,,,,,,,,,,,,,,,,,174,U,triangle,0,0,,,,,,,,,,,,,,,,repeat,letter,NA,j,Lo,,,,,,0.3701,4,,,,,,,,low,26,0,26,0,1,,,,,,,,,
297886,2022-12-02_11h37.18.329,vts_reward_expectancy_bt,2022.2.4,MacIntel,60.0024001,Chrome,1440,900,,,,,0,1005,,,,,,,,,,,,,,,,,167,F,circle,1,1,,,,,,,,,,,,,,,,repeat,letter,lettRpt,j,Hi,,,,,,0.9654,4,,,,,,,,low,27,0,27,0,1,,,,,,,,,
297886,2022-12-02_11h37.18.329,vts_reward_expectancy_bt,2022.2.4,MacIntel,60.0024001,Chrome,1440,900,,,,,1,1006,,,,,,,,,,,,,,,,,146,B,hexagon,1,0,,,,,,,,,,,,,,,,repeat,letter,lettRpt,j,Lo,,,,,,0.696,4,,,,,,,,low,28,0,28,0,1,,,,,,,,,
297886,2022-12-02_11h37.18.329,vts_reward_expectancy_bt,2022.2.4,MacIntel,60.0024001,Chrome,1440,900,,,,,0,1006,,,,,,,,,,,,,,,,,139,H,triangle,1,0,,,,,,,,,,,,,,,,repeat,letter,lettRpt,j,Hi,,,,,,0.4054,4,,,,,,,,low,29,0,29,0,1,,,,,,,,,
297886,2022-12-02_11h37.18.329,vts_reward_expectancy_bt,2022.2.4,MacIntel,60.0024001,Chrome,1440,900,,,,,1,1007,,,,,,,,,,,,,,,,,125,W,star,1,0,,,,,,,,,,,,,,,,switch,number,numSwt,d,Lo,,,,,,0.6712,4,,,,,,,,low,30,0,30,0,1,,,,,,,,,
297886,2022-12-02_11h37.18.329,vts_reward_expectancy_bt,2022.2.4,MacIntel,60.0024001,Chrome,1440,900,,,,,0,1007,,,,,,,,,,,,,,,,,181,S,circle,1,0,,,,,,,,,,,,,,,,switch,letter,lettSwt,k,Hi,,,,,,0.6195,4,,,,,,,,low,31,0,31,0,1,,,,,,,,,
297886,2022-12-02_11h37.18.329,vts_reward_expectancy_bt,2022.2.4,MacIntel,60.0024001,Chrome,1440,900,,,,,10,1017,,,,,,,,,,,,,,,,,181,D,triangle,1,0,,,,,,,,,,,,,,,,repeat,letter,lettRpt,j,Hi,,,,,,0.3214,5,,,,,,space,153.8786,low,0,0,0,0,1,,,,,,,,,
297886,2022-12-02_11h37.18.329,vts_reward_expectancy_bt,2022.2.4,MacIntel,60.0024001,Chrome,1440,900,,,,,10,1027,,,,,,,,,,,,,,,,,167,Y,hexagon,1,0,,,,,,,,,,,,,,,,switch,number,numSwt,f,Lo,,,,,,0.4426,5,,,,,,,,low,1,0,1,0,1,,,,,,,,,
297886,2022-12-02_11h37.18.329,vts_reward_expectancy_bt,2022.2.4,MacIntel,60.0024001,Chrome,1440,900,,,,,0,1027,,,,,,,,,,,,,,,,,174,F,star,0,0,,,,,,,,,,,,,,,,repeat,number,NA,d,Lo,,,,,,0.4434,5,,,,,,,,low,2,0,2,0,1,,,,,,,,,
297886,2022-12-02_11h37.18.329,vts_reward_expectancy_bt,2022.2.4,MacIntel,60.0024001,Chrome,1440,900,,,,,0,1027,,,,,,,,,,,,,,,,,125,U,circle,1,1,,,,,,,,,,,,,,,,switch,letter,lettSwt,k,Hi,,,,,,0.5917,5,,,,,,,,low,3,0,3,0,1,,,,,,,,,
297886,2022-12-02_11h37.18.329,vts_reward_expectancy_bt,2022.2.4,MacIntel,60.0024001,Chrome,1440,900,,,,,0,1027,,,,,,,,,,,,,,,,,146,S,triangle,0,0,,,,,,,,,,,,,,,,repeat,letter,NA,j,Hi,,,,,,0.3893,5,,,,,,,,low,4,0,4,0,1,,,,,,,,,
297886,2022-12-02_11h37.18.329,vts_reward_expectancy_bt,2022.2.4,MacIntel,60.0024001,Chrome,1440,900,,,,,10,1037,,,,,,,,,,,,,,,,,132,B,hexagon,1,1,,,,,,,,,,,,,,,,repeat,letter,lettRpt,j,Lo,,,,,,0.4914,5,,,,,,,,low,5,0,5,0,1,,,,,,,,,
297886,2022-12-02_11h37.18.329,vts_reward_expectancy_bt,2022.2.4,MacIntel,60.0024001,Chrome,1440,900,,,,,0,1037,,,,,,,,,,,,,,,,,139,H,star,0,0,,,,,,,,,,,,,,,,switch,number,NA,f,Lo,,,,,,0.5262,5,,,,,,,,low,6,0,6,0,1,,,,,,,,,
297886,2022-12-02_11h37.18.329,vts_reward_expectancy_bt,2022.2.4,MacIntel,60.0024001,Chrome,1440,900,,,,,10,1047,,,,,,,,,,,,,,,,,160,W,circle,1,1,,,,,,,,,,,,,,,,switch,letter,lettSwt,k,Hi,,,,,,0.4922,5,,,,,,,,low,7,0,7,0,1,,,,,,,,,
297886,2022-12-02_11h37.18.329,vts_reward_expectancy_bt,2022.2.4,MacIntel,60.0024001,Chrome,1440,900,,,,,1,1048,,,,,,,,,,,,,,,,,181,D,star,1,0,,,,,,,,,,,,,,,,switch,number,numSwt,f,Lo,,,,,,1.2868,5,,,,,,,,low,8,0,8,0,1,,,,,,,,,
297886,2022-12-02_11h37.18.329,vts_reward_expectancy_bt,2022.2.4,MacIntel,60.0024001,Chrome,1440,900,,,,,0,1048,,,,,,,,,,,,,,,,,167,Y,triangle,1,0,,,,,,,,,,,,,,,,switch,letter,lettSwt,k,Hi,,,,,,0.5716,5,,,,,,,,low,9,0,9,0,1,,,,,,,,,
297886,2022-12-02_11h37.18.329,vts_reward_expectancy_bt,2022.2.4,MacIntel,60.0024001,Chrome,1440,900,,,,,0,1048,,,,,,,,,,,,,,,,,174,F,circle,1,0,,,,,,,,,,,,,,,,repeat,letter,lettRpt,j,Hi,,,,,,0.6095,5,,,,,,,,low,10,0,10,0,1,,,,,,,,,
297886,2022-12-02_11h37.18.329,vts_reward_expectancy_bt,2022.2.4,MacIntel,60.0024001,Chrome,1440,900,,,,,1,1049,,,,,,,,,,,,,,,,,125,U,hexagon,1,0,,,,,,,,,,,,,,,,switch,number,numSwt,d,Lo,,,,,,0.5407,5,,,,,,,,low,11,0,11,0,1,,,,,,,,,
297886,2022-12-02_11h37.18.329,vts_reward_expectancy_bt,2022.2.4,MacIntel,60.0024001,Chrome,1440,900,,,,,0,1049,,,,,,,,,,,,,,,,,146,S,circle,1,0,,,,,,,,,,,,,,,,repeat,number,numRpt,d,Hi,,,,,,0.7708,5,,,,,,,,low,12,0,12,0,1,,,,,,,,,
297886,2022-12-02_11h37.18.329,vts_reward_expectancy_bt,2022.2.4,MacIntel,60.0024001,Chrome,1440,900,,,,,0,1049,,,,,,,,,,,,,,,,,132,B,star,0,0,,,,,,,,,,,,,,,,repeat,number,NA,f,Hi,,,,,,0.2764,5,,,,,,,,low,13,0,13,0,1,,,,,,,,,
297886,2022-12-02_11h37.18.329,vts_reward_expectancy_bt,2022.2.4,MacIntel,60.0024001,Chrome,1440,900,,,,,1,1050,,,,,,,,,,,,,,,,,139,H,hexagon,1,1,,,,,,,,,,,,,,,,switch,letter,lettSwt,j,Lo,,,,,,0.5576,5,,,,,,,,low,14,0,14,0,1,,,,,,,,,
297886,2022-12-02_11h37.18.329,vts_reward_expectancy_bt,2022.2.4,MacIntel,60.0024001,Chrome,1440,900,,,,,0,1050,,,,,,,,,,,,,,,,,160,W,triangle,1,0,,,,,,,,,,,,,,,,repeat,letter,lettRpt,k,Hi,,,,,,0.5528,5,,,,,,,,low,15,0,15,0,1,,,,,,,,,
297886,2022-12-02_11h37.18.329,vts_reward_expectancy_bt,2022.2.4,MacIntel,60.0024001,Chrome,1440,900,,,,,0,1050,,,,,,,,,,,,,,,,,181,H,hexagon,0,0,,,,,,,,,,,,,,,,repeat,letter,NA,k,Hi,,,,,,0.9879,5,,,,,,,,low,16,0,16,0,1,,,,,,,,,
297886,2022-12-02_11h37.18.329,vts_reward_expectancy_bt,2022.2.4,MacIntel,60.0024001,Chrome,1440,900,,,,,0,1050,,,,,,,,,,,,,,,,,174,Y,circle,1,1,,,,,,,,,,,,,,,,repeat,letter,lettRpt,k,Hi,,,,,,0.653,5,,,,,,,,low,17,0,17,0,1,,,,,,,,,
297886,2022-12-02_11h37.18.329,vts_reward_expectancy_bt,2022.2.4,MacIntel,60.0024001,Chrome,1440,900,,,,,1,1051,,,,,,,,,,,,,,,,,146,W,star,1,0,,,,,,,,,,,,,,,,switch,number,numSwt,d,Lo,,,,,,0.5052,5,,,,,,,,low,18,0,18,0,1,,,,,,,,,
297886,2022-12-02_11h37.18.329,vts_reward_expectancy_bt,2022.2.4,MacIntel,60.0024001,Chrome,1440,900,,,,,0,1051,,,,,,,,,,,,,,,,,125,D,triangle,1,0,,,,,,,,,,,,,,,,switch,letter,lettSwt,j,Hi,,,,,,0.7711,5,,,,,,,,low,19,0,19,0,1,,,,,,,,,
297886,2022-12-02_11h37.18.329,vts_reward_expectancy_bt,2022.2.4,MacIntel,60.0024001,Chrome,1440,900,,,,,1,1052,,,,,,,,,,,,,,,,,139,B,star,1,0,,,,,,,,,,,,,,,,switch,number,numSwt,d,Lo,,,,,,0.6203,5,,,,,,,,low,20,0,20,0,1,,,,,,,,,
297886,2022-12-02_11h37.18.329,vts_reward_expectancy_bt,2022.2.4,MacIntel,60.0024001,Chrome,1440,900,,,,,0,1052,,,,,,,,,,,,,,,,,132,S,circle,1,0,,,,,,,,,,,,,,,,repeat,number,numRpt,d,Hi,,,,,,0.5532,5,,,,,,,,low,21,0,21,0,1,,,,,,,,,
297886,2022-12-02_11h37.18.329,vts_reward_expectancy_bt,2022.2.4,MacIntel,60.0024001,Chrome,1440,900,,,,,10,1062,,,,,,,,,,,,,,,,,167,U,hexagon,1,0,,,,,,,,,,,,,,,,repeat,number,numRpt,f,Lo,,,,,,0.6519,5,,,,,,,,low,22,0,22,0,1,,,,,,,,,
297886,2022-12-02_11h37.18.329,vts_reward_expectancy_bt,2022.2.4,MacIntel,60.0024001,Chrome,1440,900,,,,,1,1063,,,,,,,,,,,,,,,,,160,F,triangle,1,0,,,,,,,,,,,,,,,,switch,letter,lettSwt,j,Hi,,,,,,0.3865,5,,,,,,,,low,23,0,23,0,1,,,,,,,,,
297886,2022-12-02_11h37.18.329,vts_reward_expectancy_bt,2022.2.4,MacIntel,60.0024001,Chrome,1440,900,,,,,1,1064,,,,,,,,,,,,,,,,,174,S,hexagon,1,0,,,,,,,,,,,,,,,,repeat,letter,lettRpt,k,Lo,,,,,,0.6029,5,,,,,,,,low,24,0,24,0,1,,,,,,,,,
297886,2022-12-02_11h37.18.329,vts_reward_expectancy_bt,2022.2.4,MacIntel,60.0024001,Chrome,1440,900,,,,,0,1064,,,,,,,,,,,,,,,,,146,H,triangle,1,0,,,,,,,,,,,,,,,,repeat,letter,lettRpt,j,Hi,,,,,,0.4751,5,,,,,,,,low,25,0,25,0,1,,,,,,,,,
297886,2022-12-02_11h37.18.329,vts_reward_expectancy_bt,2022.2.4,MacIntel,60.0024001,Chrome,1440,900,,,,,1,1065,,,,,,,,,,,,,,,,,132,B,circle,1,0,,,,,,,,,,,,,,,,switch,number,numSwt,d,Hi,,,,,,0.573,5,,,,,,,,low,26,0,26,0,1,,,,,,,,,
297886,2022-12-02_11h37.18.329,vts_reward_expectancy_bt,2022.2.4,MacIntel,60.0024001,Chrome,1440,900,,,,,1,1066,,,,,,,,,,,,,,,,,139,F,star,1,0,,,,,,,,,,,,,,,,repeat,number,numRpt,d,Lo,,,,,,0.5995,5,,,,,,,,low,27,0,27,0,1,,,,,,,,,
297886,2022-12-02_11h37.18.329,vts_reward_expectancy_bt,2022.2.4,MacIntel,60.0024001,Chrome,1440,900,,,,,0,1066,,,,,,,,,,,,,,,,,181,Y,triangle,0,0,,,,,,,,,,,,,,,,switch,letter,NA,j,Lo,,,,,,0.729,5,,,,,,,,low,28,0,28,0,1,,,,,,,,,
297886,2022-12-02_11h37.18.329,vts_reward_expectancy_bt,2022.2.4,MacIntel,60.0024001,Chrome,1440,900,,,,,0,1066,,,,,,,,,,,,,,,,,167,U,circle,1,1,,,,,,,,,,,,,,,,repeat,letter,lettRpt,k,Hi,,,,,,0.489,5,,,,,,,,low,29,0,29,0,1,,,,,,,,,
297886,2022-12-02_11h37.18.329,vts_reward_expectancy_bt,2022.2.4,MacIntel,60.0024001,Chrome,1440,900,,,,,10,1076,,,,,,,,,,,,,,,,,125,D,hexagon,1,0,,,,,,,,,,,,,,,,repeat,letter,lettRpt,j,Lo,,,,,,0.5029,5,,,,,,,,low,30,0,30,0,1,,,,,,,,,
297886,2022-12-02_11h37.18.329,vts_reward_expectancy_bt,2022.2.4,MacIntel,60.0024001,Chrome,1440,900,,,,,1,1077,,,,,,,,,,,,,,,,,160,W,star,1,0,,,,,,,,,,,,,,,,repeat,letter,lettRpt,k,Lo,,,,,,0.5255,5,,,,,,,,low,31,0,31,0,1,,,,,,,,,
297886,2022-12-02_11h37.18.329,vts_reward_expectancy_bt,2022.2.4,MacIntel,60.0024001,Chrome,1440,900,,,,,1,1078,,,,,,,,,,,,,,,,,125,Y,hexagon,1,0,,,,,,,,,,,,,,,,switch,number,numSwt,d,Lo,,,,,,0.5549,6,,,,,,space,1.1336,low,0,0,0,0,1,,,,,,,,,
297886,2022-12-02_11h37.18.329,vts_reward_expectancy_bt,2022.2.4,MacIntel,60.0024001,Chrome,1440,900,,,,,0,1078,,,,,,,,,,,,,,,,,181,S,circle,0,0,,,,,,,,,,,,,,,,switch,letter,NA,j,Lo,,,,,,0.2412,6,,,,,,,,low,1,0,1,0,1,,,,,,,,,
297886,2022-12-02_11h37.18.329,vts_reward_expectancy_bt,2022.2.4,MacIntel,60.0024001,Chrome,1440,900,,,,,0,1078,,,,,,,,,,,,,,,,,146,H,triangle,1,1,,,,,,,,,,,,,,,,repeat,letter,lettRpt,j,Hi,,,,,,0.5877,6,,,,,,,,low,2,0,2,0,1,,,,,,,,,
297886,2022-12-02_11h37.18.329,vts_reward_expectancy_bt,2022.2.4,MacIntel,60.0024001,Chrome,1440,900,,,,,10,1088,,,,,,,,,,,,,,,,,174,B,star,1,0,,,,,,,,,,,,,,,,switch,number,numSwt,f,Lo,,,,,,0.4612,6,,,,,,,,low,3,0,3,0,1,,,,,,,,,
297886,2022-12-02_11h37.18.329,vts_reward_expectancy_bt,2022.2.4,MacIntel,60.0024001,Chrome,1440,900,,,,,1,1089,,,,,,,,,,,,,,,,,139,F,hexagon,1,0,,,,,,,,,,,,,,,,switch,letter,lettSwt,j,Lo,,,,,,0.6049,6,,,,,,,,low,4,0,4,0,1,,,,,,,,,
297886,2022-12-02_11h37.18.329,vts_reward_expectancy_bt,2022.2.4,MacIntel,60.0024001,Chrome,1440,900,,,,,1,1090,,,,,,,,,,,,,,,,,167,D,circle,1,0,,,,,,,,,,,,,,,,switch,number,numSwt,f,Hi,,,,,,0.4715,6,,,,,,,,low,5,0,5,0,1,,,,,,,,,
297886,2022-12-02_11h37.18.329,vts_reward_expectancy_bt,2022.2.4,MacIntel,60.0024001,Chrome,1440,900,,,,,10,1100,,,,,,,,,,,,,,,,,160,W,triangle,1,0,,,,,,,,,,,,,,,,switch,letter,lettSwt,k,Hi,,,,,,0.4363,6,,,,,,,,low,6,0,6,0,1,,,,,,,,,
297886,2022-12-02_11h37.18.329,vts_reward_expectancy_bt,2022.2.4,MacIntel,60.0024001,Chrome,1440,900,,,,,1,1101,,,,,,,,,,,,,,,,,132,U,star,1,0,,,,,,,,,,,,,,,,switch,number,numSwt,d,Lo,,,,,,0.4877,6,,,,,,,,low,7,0,7,0,1,,,,,,,,,
297886,2022-12-02_11h37.18.329,vts_reward_expectancy_bt,2022.2.4,MacIntel,60.0024001,Chrome,1440,900,,,,,1,1102,,,,,,,,,,,,,,,,,125,Y,hexagon,1,0,,,,,,,,,,,,,,,,repeat,number,numRpt,d,Lo,,,,,,0.4904,6,,,,,,,,low,8,0,8,0,1,,,,,,,,,
297886,2022-12-02_11h37.18.329,vts_reward_expectancy_bt,2022.2.4,MacIntel,60.0024001,Chrome,1440,900,,,,,0,1102,,,,,,,,,,,,,,,,,181,S,star,0,0,,,,,,,,,,,,,,,,switch,letter,NA,j,Lo,,,,,,0.6403,6,,,,,,,,low,9,0,9,0,1,,,,,,,,,
297886,2022-12-02_11h37.18.329,vts_reward_expectancy_bt,2022.2.4,MacIntel,60.0024001,Chrome,1440,900,,,,,0,1102,,,,,,,,,,,,,,,,,146,H,triangle,0,1,,,,,,,,,,,,,,,,repeat,letter,NA,k,Lo,,,,,,0.4358,6,,,,,,,,low,10,0,10,0,1,,,,,,,,,
297886,2022-12-02_11h37.18.329,vts_reward_expectancy_bt,2022.2.4,MacIntel,60.0024001,Chrome,1440,900,,,,,0,1102,,,,,,,,,,,,,,,,,174,B,circle,1,1,,,,,,,,,,,,,,,,repeat,letter,lettRpt,j,Hi,,,,,,0.6217,6,,,,,,,,low,11,0,11,0,1,,,,,,,,,
297886,2022-12-02_11h37.18.329,vts_reward_expectancy_bt,2022.2.4,MacIntel,60.0024001,Chrome,1440,900,,,,,1,1103,,,,,,,,,,,,,,,,,139,F,star,1,0,,,,,,,,,,,,,,,,repeat,letter,lettRpt,j,Lo,,,,,,0.6382,6,,,,,,,,low,12,0,12,0,1,,,,,,,,,
297886,2022-12-02_11h37.18.329,vts_reward_expectancy_bt,2022.2.4,MacIntel,60.0024001,Chrome,1440,900,,,,,1,1104,,,,,,,,,,,,,,,,,167,D,circle,1,0,,,,,,,,,,,,,,,,switch,number,numSwt,f,Hi,,,,,,0.4646,6,,,,,,,,low,13,0,13,0,1,,,,,,,,,
