participant,date,expName,psychopyVersion,OS,frameRate,browser,xResolution,yResolution,key_resp.keys,key_resp.rt,training_resp.keys,training_resp.rt,points_trial,points_cumul,trainBlock,training.thisRepN,training.thisTrialN,training.thisN,training.thisIndex,training.ran,LTriangleOpac,LCircleOpac,LHexagonOpac,LStarOpac,RTriangleOpac,RCircleOpac,RHexagonOpac,RStarOpac,LShape_ID,RShape_ID,curr_topStim,curr_bottStim,curr_shape,acc,E1,target_resp_prac1.keys,target_resp_prac1.rt,pracBlock,task1_prac_trials.thisRepN,task1_prac_trials.thisTrialN,task1_prac_trials.thisN,task1_prac_trials.thisIndex,task1_prac_trials.ran,target_resp_prac2.keys,target_resp_prac2.rt,task2_praac_trials.thisRepN,task2_praac_trials.thisTrialN,task2_praac_trials.thisN,task2_praac_trials.thisIndex,task2_praac_trials.ran,alt,task,condition,target_resp.keys,target_resp.rt,rewCond,vts_practice_trials.thisRepN,vts_practice_trials.thisTrialN,vts_practice_trials.thisN,vts_practice_trials.thisIndex,vts_practice_trials.ran,blockNum,trials_norew.thisRepN,trials_norew.thisTrialN,trials_norew.thisN,trials_norew.thisIndex,trials_norew.ran,key_resp_2.keys,key_resp_2.rt,rewExpectancy,trials_rew.thisRepN,trials_rew.thisTrialN,trials_rew.thisN,trials_rew.thisIndex,trials_rew.ran,Q1,Q2,Q2_text,Q3,Q4,Q5,Q5_text,xRes,yRes
297943,2022-11-14_16h39.54.780,vts_reward_expectancy_bt,2022.2.4,MacIntel,60.0024001,Chrome,1440,900,,,,,,,,,,,,,,,,,,,,,,,,,,,,,,,,,,,,,,,,,,,,,,,,,,,,,,,,,,,,,,,,,,,,,,,,,,,,
297943,2022-11-14_16h39.54.780,vts_reward_expectancy_bt,2022.2.4,MacIntel,60.0024001,Chrome,1440,900,space,17.3649,,,,,,,,,,,,,,,,,,,,,,,,,,,,,,,,,,,,,,,,,,,,,,,,,,,,,,,,,,,,,,,,,,,,,,,,,,
297943,2022-11-14_16h39.54.780,vts_reward_expectancy_bt,2022.2.4,MacIntel,60.0024001,Chrome,1440,900,,,,,,,,,,,,,,,,,,,,,,,,,,,,,,,,,,,,,,,,,,,,,,,,,,,,,,,,,,,,,,,,,,,,,,,,,,,,
297943,2022-11-14_16h39.54.780,vts_reward_expectancy_bt,2022.2.4,MacIntel,60.0024001,Chrome,1440,900,,,a,1.2924,1,1,0,0,0,0,1,1,1,0,0,0,0,0,1,0,triangle,hexagon,,,,,,,,,,,,,,,,,,,,,,,,,,,,,,,,,,,,,,,,,,,,,,,,,,,,,,
297943,2022-11-14_16h39.54.780,vts_reward_expectancy_bt,2022.2.4,MacIntel,60.0024001,Chrome,1440,900,,,l,1.1969,1,2,0,0,1,1,7,1,0,0,1,0,0,1,0,0,hexagon,circle,,,,,,,,,,,,,,,,,,,,,,,,,,,,,,,,,,,,,,,,,,,,,,,,,,,,,,
297943,2022-11-14_16h39.54.780,vts_reward_expectancy_bt,2022.2.4,MacIntel,60.0024001,Chrome,1440,900,,,a,0.8668,10,12,0,0,2,2,11,1,0,0,0,1,0,0,1,0,star,hexagon,,,,,,,,,,,,,,,,,,,,,,,,,,,,,,,,,,,,,,,,,,,,,,,,,,,,,,
297943,2022-11-14_16h39.54.780,vts_reward_expectancy_bt,2022.2.4,MacIntel,60.0024001,Chrome,1440,900,,,l,1.5836,10,22,0,0,3,3,9,1,0,0,0,1,1,0,0,0,star,triangle,,,,,,,,,,,,,,,,,,,,,,,,,,,,,,,,,,,,,,,,,,,,,,,,,,,,,,
297943,2022-11-14_16h39.54.780,vts_reward_expectancy_bt,2022.2.4,MacIntel,60.0024001,Chrome,1440,900,,,a,1.3184,1,23,0,0,4,4,8,1,0,0,1,0,0,0,0,1,hexagon,star,,,,,,,,,,,,,,,,,,,,,,,,,,,,,,,,,,,,,,,,,,,,,,,,,,,,,,
297943,2022-11-14_16h39.54.780,vts_reward_expectancy_bt,2022.2.4,MacIntel,60.0024001,Chrome,1440,900,,,l,1.4367,10,33,0,0,5,5,6,1,0,0,1,0,1,0,0,0,hexagon,triangle,,,,,,,,,,,,,,,,,,,,,,,,,,,,,,,,,,,,,,,,,,,,,,,,,,,,,,
297943,2022-11-14_16h39.54.780,vts_reward_expectancy_bt,2022.2.4,MacIntel,60.0024001,Chrome,1440,900,,,l,1.1206,10,43,0,0,6,6,3,1,0,1,0,0,1,0,0,0,circle,triangle,,,,,,,,,,,,,,,,,,,,,,,,,,,,,,,,,,,,,,,,,,,,,,,,,,,,,,
297943,2022-11-14_16h39.54.780,vts_reward_expectancy_bt,2022.2.4,MacIntel,60.0024001,Chrome,1440,900,,,l,1.4531,1,44,0,0,7,7,2,1,1,0,0,0,0,0,0,1,triangle,star,,,,,,,,,,,,,,,,,,,,,,,,,,,,,,,,,,,,,,,,,,,,,,,,,,,,,,
297943,2022-11-14_16h39.54.780,vts_reward_expectancy_bt,2022.2.4,MacIntel,60.0024001,Chrome,1440,900,,,l,2.5757,1,45,0,0,8,8,10,1,0,0,0,1,0,1,0,0,star ,circle,,,,,,,,,,,,,,,,,,,,,,,,,,,,,,,,,,,,,,,,,,,,,,,,,,,,,,
297943,2022-11-14_16h39.54.780,vts_reward_expectancy_bt,2022.2.4,MacIntel,60.0024001,Chrome,1440,900,,,l,1.3848,1,46,0,0,9,9,4,1,0,1,0,0,0,0,1,0,circle,hexagon,,,,,,,,,,,,,,,,,,,,,,,,,,,,,,,,,,,,,,,,,,,,,,,,,,,,,,
297943,2022-11-14_16h39.54.780,vts_reward_expectancy_bt,2022.2.4,MacIntel,60.0024001,Chrome,1440,900,,,a,0.6513,10,56,0,0,10,10,0,1,1,0,0,0,0,1,0,0,triangle,circle,,,,,,,,,,,,,,,,,,,,,,,,,,,,,,,,,,,,,,,,,,,,,,,,,,,,,,
297943,2022-11-14_16h39.54.780,vts_reward_expectancy_bt,2022.2.4,MacIntel,60.0024001,Chrome,1440,900,,,l,1.7616,10,66,0,0,11,11,5,1,0,1,0,0,0,0,0,1,circle,star,,,,,,,,,,,,,,,,,,,,,,,,,,,,,,,,,,,,,,,,,,,,,,,,,,,,,,
297943,2022-11-14_16h39.54.780,vts_reward_expectancy_bt,2022.2.4,MacIntel,60.0024001,Chrome,1440,900,,,l,1.1476,10,76,0,1,0,12,3,1,0,1,0,0,1,0,0,0,circle,triangle,,,,,,,,,,,,,,,,,,,,,,,,,,,,,,,,,,,,,,,,,,,,,,,,,,,,,,
297943,2022-11-14_16h39.54.780,vts_reward_expectancy_bt,2022.2.4,MacIntel,60.0024001,Chrome,1440,900,,,l,1.5523,10,86,0,1,1,13,9,1,0,0,0,1,1,0,0,0,star,triangle,,,,,,,,,,,,,,,,,,,,,,,,,,,,,,,,,,,,,,,,,,,,,,,,,,,,,,
297943,2022-11-14_16h39.54.780,vts_reward_expectancy_bt,2022.2.4,MacIntel,60.0024001,Chrome,1440,900,,,a,1.7524,1,87,0,1,2,14,7,1,0,0,1,0,0,1,0,0,hexagon,circle,,,,,,,,,,,,,,,,,,,,,,,,,,,,,,,,,,,,,,,,,,,,,,,,,,,,,,
297943,2022-11-14_16h39.54.780,vts_reward_expectancy_bt,2022.2.4,MacIntel,60.0024001,Chrome,1440,900,,,a,1.0355,10,97,0,1,3,15,11,1,0,0,0,1,0,0,1,0,star,hexagon,,,,,,,,,,,,,,,,,,,,,,,,,,,,,,,,,,,,,,,,,,,,,,,,,,,,,,
297943,2022-11-14_16h39.54.780,vts_reward_expectancy_bt,2022.2.4,MacIntel,60.0024001,Chrome,1440,900,,,l,0.8018,10,107,0,1,4,16,6,1,0,0,1,0,1,0,0,0,hexagon,triangle,,,,,,,,,,,,,,,,,,,,,,,,,,,,,,,,,,,,,,,,,,,,,,,,,,,,,,
297943,2022-11-14_16h39.54.780,vts_reward_expectancy_bt,2022.2.4,MacIntel,60.0024001,Chrome,1440,900,,,l,1.3359,10,117,0,1,5,17,8,1,0,0,1,0,0,0,0,1,hexagon,star,,,,,,,,,,,,,,,,,,,,,,,,,,,,,,,,,,,,,,,,,,,,,,,,,,,,,,
297943,2022-11-14_16h39.54.780,vts_reward_expectancy_bt,2022.2.4,MacIntel,60.0024001,Chrome,1440,900,,,l,1.3685,10,127,0,1,6,18,5,1,0,1,0,0,0,0,0,1,circle,star,,,,,,,,,,,,,,,,,,,,,,,,,,,,,,,,,,,,,,,,,,,,,,,,,,,,,,
297943,2022-11-14_16h39.54.780,vts_reward_expectancy_bt,2022.2.4,MacIntel,60.0024001,Chrome,1440,900,,,a,2.0373,1,128,0,1,7,19,1,1,1,0,0,0,0,0,1,0,triangle,hexagon,,,,,,,,,,,,,,,,,,,,,,,,,,,,,,,,,,,,,,,,,,,,,,,,,,,,,,
297943,2022-11-14_16h39.54.780,vts_reward_expectancy_bt,2022.2.4,MacIntel,60.0024001,Chrome,1440,900,,,l,1.0941,1,129,0,1,8,20,4,1,0,1,0,0,0,0,1,0,circle,hexagon,,,,,,,,,,,,,,,,,,,,,,,,,,,,,,,,,,,,,,,,,,,,,,,,,,,,,,
297943,2022-11-14_16h39.54.780,vts_reward_expectancy_bt,2022.2.4,MacIntel,60.0024001,Chrome,1440,900,,,a,1.8188,10,139,0,1,9,21,2,1,1,0,0,0,0,0,0,1,triangle,star,,,,,,,,,,,,,,,,,,,,,,,,,,,,,,,,,,,,,,,,,,,,,,,,,,,,,,
297943,2022-11-14_16h39.54.780,vts_reward_expectancy_bt,2022.2.4,MacIntel,60.0024001,Chrome,1440,900,,,a,1.2341,10,149,0,1,10,22,10,1,0,0,0,1,0,1,0,0,star ,circle,,,,,,,,,,,,,,,,,,,,,,,,,,,,,,,,,,,,,,,,,,,,,,,,,,,,,,
297943,2022-11-14_16h39.54.780,vts_reward_expectancy_bt,2022.2.4,MacIntel,60.0024001,Chrome,1440,900,,,l,1.0844,1,150,0,1,11,23,0,1,1,0,0,0,0,1,0,0,triangle,circle,,,,,,,,,,,,,,,,,,,,,,,,,,,,,,,,,,,,,,,,,,,,,,,,,,,,,,
297943,2022-11-14_16h39.54.780,vts_reward_expectancy_bt,2022.2.4,MacIntel,60.0024001,Chrome,1440,900,,,l,1.8353,1,151,0,2,0,24,0,1,1,0,0,0,0,1,0,0,triangle,circle,,,,,,,,,,,,,,,,,,,,,,,,,,,,,,,,,,,,,,,,,,,,,,,,,,,,,,
297943,2022-11-14_16h39.54.780,vts_reward_expectancy_bt,2022.2.4,MacIntel,60.0024001,Chrome,1440,900,,,a,0.8857,1,152,0,2,1,25,9,1,0,0,0,1,1,0,0,0,star,triangle,,,,,,,,,,,,,,,,,,,,,,,,,,,,,,,,,,,,,,,,,,,,,,,,,,,,,,
297943,2022-11-14_16h39.54.780,vts_reward_expectancy_bt,2022.2.4,MacIntel,60.0024001,Chrome,1440,900,,,a,1.2695,1,153,0,2,2,26,3,1,0,1,0,0,1,0,0,0,circle,triangle,,,,,,,,,,,,,,,,,,,,,,,,,,,,,,,,,,,,,,,,,,,,,,,,,,,,,,
297943,2022-11-14_16h39.54.780,vts_reward_expectancy_bt,2022.2.4,MacIntel,60.0024001,Chrome,1440,900,,,a,1.4853,1,154,0,2,3,27,10,1,0,0,0,1,0,1,0,0,star ,circle,,,,,,,,,,,,,,,,,,,,,,,,,,,,,,,,,,,,,,,,,,,,,,,,,,,,,,
297943,2022-11-14_16h39.54.780,vts_reward_expectancy_bt,2022.2.4,MacIntel,60.0024001,Chrome,1440,900,,,l,0.8996,1,155,0,2,4,28,4,1,0,1,0,0,0,0,1,0,circle,hexagon,,,,,,,,,,,,,,,,,,,,,,,,,,,,,,,,,,,,,,,,,,,,,,,,,,,,,,
297943,2022-11-14_16h39.54.780,vts_reward_expectancy_bt,2022.2.4,MacIntel,60.0024001,Chrome,1440,900,,,a,1.2455,10,165,0,2,5,29,2,1,1,0,0,0,0,0,0,1,triangle,star,,,,,,,,,,,,,,,,,,,,,,,,,,,,,,,,,,,,,,,,,,,,,,,,,,,,,,
297943,2022-11-14_16h39.54.780,vts_reward_expectancy_bt,2022.2.4,MacIntel,60.0024001,Chrome,1440,900,,,l,1.101,1,166,0,2,6,30,11,1,0,0,0,1,0,0,1,0,star,hexagon,,,,,,,,,,,,,,,,,,,,,,,,,,,,,,,,,,,,,,,,,,,,,,,,,,,,,,
297943,2022-11-14_16h39.54.780,vts_reward_expectancy_bt,2022.2.4,MacIntel,60.0024001,Chrome,1440,900,,,l,0.9873,1,167,0,2,7,31,1,1,1,0,0,0,0,0,1,0,triangle,hexagon,,,,,,,,,,,,,,,,,,,,,,,,,,,,,,,,,,,,,,,,,,,,,,,,,,,,,,
297943,2022-11-14_16h39.54.780,vts_reward_expectancy_bt,2022.2.4,MacIntel,60.0024001,Chrome,1440,900,,,l,1.0849,1,168,0,2,8,32,7,1,0,0,1,0,0,1,0,0,hexagon,circle,,,,,,,,,,,,,,,,,,,,,,,,,,,,,,,,,,,,,,,,,,,,,,,,,,,,,,
297943,2022-11-14_16h39.54.780,vts_reward_expectancy_bt,2022.2.4,MacIntel,60.0024001,Chrome,1440,900,,,l,1.5003,10,178,0,2,9,33,5,1,0,1,0,0,0,0,0,1,circle,star,,,,,,,,,,,,,,,,,,,,,,,,,,,,,,,,,,,,,,,,,,,,,,,,,,,,,,
297943,2022-11-14_16h39.54.780,vts_reward_expectancy_bt,2022.2.4,MacIntel,60.0024001,Chrome,1440,900,,,l,0.9028,10,188,0,2,10,34,6,1,0,0,1,0,1,0,0,0,hexagon,triangle,,,,,,,,,,,,,,,,,,,,,,,,,,,,,,,,,,,,,,,,,,,,,,,,,,,,,,
297943,2022-11-14_16h39.54.780,vts_reward_expectancy_bt,2022.2.4,MacIntel,60.0024001,Chrome,1440,900,,,l,1.3167,1,189,0,2,11,35,8,1,0,0,1,0,0,0,0,1,hexagon,star,,,,,,,,,,,,,,,,,,,,,,,,,,,,,,,,,,,,,,,,,,,,,,,,,,,,,,
297943,2022-11-14_16h39.54.780,vts_reward_expectancy_bt,2022.2.4,MacIntel,60.0024001,Chrome,1440,900,,,a,1.29,10,199,1,0,0,0,4,1,0,1,0,0,0,0,1,0,circle,hexagon,,,,,,,,,,,,,,,,,,,,,,,,,,,,,,,,,,,,,,,,,,,,,,,,,,,,,,
297943,2022-11-14_16h39.54.780,vts_reward_expectancy_bt,2022.2.4,MacIntel,60.0024001,Chrome,1440,900,,,l,0.6998,10,209,1,0,1,1,3,1,0,1,0,0,1,0,0,0,circle,triangle,,,,,,,,,,,,,,,,,,,,,,,,,,,,,,,,,,,,,,,,,,,,,,,,,,,,,,
297943,2022-11-14_16h39.54.780,vts_reward_expectancy_bt,2022.2.4,MacIntel,60.0024001,Chrome,1440,900,,,a,1.0697,1,210,1,0,2,2,2,1,1,0,0,0,0,0,0,1,triangle,star,,,,,,,,,,,,,,,,,,,,,,,,,,,,,,,,,,,,,,,,,,,,,,,,,,,,,,
297943,2022-11-14_16h39.54.780,vts_reward_expectancy_bt,2022.2.4,MacIntel,60.0024001,Chrome,1440,900,,,a,1.45,1,211,1,0,3,3,5,1,0,1,0,0,0,0,0,1,circle,star,,,,,,,,,,,,,,,,,,,,,,,,,,,,,,,,,,,,,,,,,,,,,,,,,,,,,,
297943,2022-11-14_16h39.54.780,vts_reward_expectancy_bt,2022.2.4,MacIntel,60.0024001,Chrome,1440,900,,,l,0.8337,1,212,1,0,4,4,9,1,0,0,0,1,1,0,0,0,star,triangle,,,,,,,,,,,,,,,,,,,,,,,,,,,,,,,,,,,,,,,,,,,,,,,,,,,,,,
297943,2022-11-14_16h39.54.780,vts_reward_expectancy_bt,2022.2.4,MacIntel,60.0024001,Chrome,1440,900,,,l,0.8005,10,222,1,0,5,5,8,1,0,0,1,0,0,0,0,1,hexagon,star,,,,,,,,,,,,,,,,,,,,,,,,,,,,,,,,,,,,,,,,,,,,,,,,,,,,,,
297943,2022-11-14_16h39.54.780,vts_reward_expectancy_bt,2022.2.4,MacIntel,60.0024001,Chrome,1440,900,,,l,1.967,1,223,1,0,6,6,11,1,0,0,0,1,0,0,1,0,star,hexagon,,,,,,,,,,,,,,,,,,,,,,,,,,,,,,,,,,,,,,,,,,,,,,,,,,,,,,
297943,2022-11-14_16h39.54.780,vts_reward_expectancy_bt,2022.2.4,MacIntel,60.0024001,Chrome,1440,900,,,l,0.8921,1,224,1,0,7,7,7,1,0,0,1,0,0,1,0,0,hexagon,circle,,,,,,,,,,,,,,,,,,,,,,,,,,,,,,,,,,,,,,,,,,,,,,,,,,,,,,
297943,2022-11-14_16h39.54.780,vts_reward_expectancy_bt,2022.2.4,MacIntel,60.0024001,Chrome,1440,900,,,a,0.6971,10,234,1,0,8,8,1,1,1,0,0,0,0,0,1,0,triangle,hexagon,,,,,,,,,,,,,,,,,,,,,,,,,,,,,,,,,,,,,,,,,,,,,,,,,,,,,,
297943,2022-11-14_16h39.54.780,vts_reward_expectancy_bt,2022.2.4,MacIntel,60.0024001,Chrome,1440,900,,,l,0.5548,1,235,1,0,9,9,6,1,0,0,1,0,1,0,0,0,hexagon,triangle,,,,,,,,,,,,,,,,,,,,,,,,,,,,,,,,,,,,,,,,,,,,,,,,,,,,,,
297943,2022-11-14_16h39.54.780,vts_reward_expectancy_bt,2022.2.4,MacIntel,60.0024001,Chrome,1440,900,,,a,1.036,10,245,1,0,10,10,0,1,1,0,0,0,0,1,0,0,triangle,circle,,,,,,,,,,,,,,,,,,,,,,,,,,,,,,,,,,,,,,,,,,,,,,,,,,,,,,
297943,2022-11-14_16h39.54.780,vts_reward_expectancy_bt,2022.2.4,MacIntel,60.0024001,Chrome,1440,900,,,a,1.0828,10,255,1,0,11,11,10,1,0,0,0,1,0,1,0,0,star ,circle,,,,,,,,,,,,,,,,,,,,,,,,,,,,,,,,,,,,,,,,,,,,,,,,,,,,,,
297943,2022-11-14_16h39.54.780,vts_reward_expectancy_bt,2022.2.4,MacIntel,60.0024001,Chrome,1440,900,,,a,0.8852,10,265,1,1,0,12,11,1,0,0,0,1,0,0,1,0,star,hexagon,,,,,,,,,,,,,,,,,,,,,,,,,,,,,,,,,,,,,,,,,,,,,,,,,,,,,,
297943,2022-11-14_16h39.54.780,vts_reward_expectancy_bt,2022.2.4,MacIntel,60.0024001,Chrome,1440,900,,,l,1.0489,10,275,1,1,1,13,6,1,0,0,1,0,1,0,0,0,hexagon,triangle,,,,,,,,,,,,,,,,,,,,,,,,,,,,,,,,,,,,,,,,,,,,,,,,,,,,,,
297943,2022-11-14_16h39.54.780,vts_reward_expectancy_bt,2022.2.4,MacIntel,60.0024001,Chrome,1440,900,,,l,1.0704,10,285,1,1,2,14,8,1,0,0,1,0,0,0,0,1,hexagon,star,,,,,,,,,,,,,,,,,,,,,,,,,,,,,,,,,,,,,,,,,,,,,,,,,,,,,,
297943,2022-11-14_16h39.54.780,vts_reward_expectancy_bt,2022.2.4,MacIntel,60.0024001,Chrome,1440,900,,,l,1.1337,1,286,1,1,3,15,3,1,0,1,0,0,1,0,0,0,circle,triangle,,,,,,,,,,,,,,,,,,,,,,,,,,,,,,,,,,,,,,,,,,,,,,,,,,,,,,
297943,2022-11-14_16h39.54.780,vts_reward_expectancy_bt,2022.2.4,MacIntel,60.0024001,Chrome,1440,900,,,a,1.0839,1,287,1,1,4,16,10,1,0,0,0,1,0,1,0,0,star ,circle,,,,,,,,,,,,,,,,,,,,,,,,,,,,,,,,,,,,,,,,,,,,,,,,,,,,,,
297943,2022-11-14_16h39.54.780,vts_reward_expectancy_bt,2022.2.4,MacIntel,60.0024001,Chrome,1440,900,,,a,1.1331,10,297,1,1,5,17,0,1,1,0,0,0,0,1,0,0,triangle,circle,,,,,,,,,,,,,,,,,,,,,,,,,,,,,,,,,,,,,,,,,,,,,,,,,,,,,,
297943,2022-11-14_16h39.54.780,vts_reward_expectancy_bt,2022.2.4,MacIntel,60.0024001,Chrome,1440,900,,,a,1.4639,1,298,1,1,6,18,5,1,0,1,0,0,0,0,0,1,circle,star,,,,,,,,,,,,,,,,,,,,,,,,,,,,,,,,,,,,,,,,,,,,,,,,,,,,,,
297943,2022-11-14_16h39.54.780,vts_reward_expectancy_bt,2022.2.4,MacIntel,60.0024001,Chrome,1440,900,,,l,1.1781,10,308,1,1,7,19,9,1,0,0,0,1,1,0,0,0,star,triangle,,,,,,,,,,,,,,,,,,,,,,,,,,,,,,,,,,,,,,,,,,,,,,,,,,,,,,
297943,2022-11-14_16h39.54.780,vts_reward_expectancy_bt,2022.2.4,MacIntel,60.0024001,Chrome,1440,900,,,a,1.0199,10,318,1,1,8,20,2,1,1,0,0,0,0,0,0,1,triangle,star,,,,,,,,,,,,,,,,,,,,,,,,,,,,,,,,,,,,,,,,,,,,,,,,,,,,,,
297943,2022-11-14_16h39.54.780,vts_reward_expectancy_bt,2022.2.4,MacIntel,60.0024001,Chrome,1440,900,,,a,1.1056,1,319,1,1,9,21,7,1,0,0,1,0,0,1,0,0,hexagon,circle,,,,,,,,,,,,,,,,,,,,,,,,,,,,,,,,,,,,,,,,,,,,,,,,,,,,,,
297943,2022-11-14_16h39.54.780,vts_reward_expectancy_bt,2022.2.4,MacIntel,60.0024001,Chrome,1440,900,,,a,0.8524,10,329,1,1,10,22,1,1,1,0,0,0,0,0,1,0,triangle,hexagon,,,,,,,,,,,,,,,,,,,,,,,,,,,,,,,,,,,,,,,,,,,,,,,,,,,,,,
297943,2022-11-14_16h39.54.780,vts_reward_expectancy_bt,2022.2.4,MacIntel,60.0024001,Chrome,1440,900,,,l,0.9512,1,330,1,1,11,23,4,1,0,1,0,0,0,0,1,0,circle,hexagon,,,,,,,,,,,,,,,,,,,,,,,,,,,,,,,,,,,,,,,,,,,,,,,,,,,,,,
297943,2022-11-14_16h39.54.780,vts_reward_expectancy_bt,2022.2.4,MacIntel,60.0024001,Chrome,1440,900,,,a,0.9185,1,331,1,2,0,24,4,1,0,1,0,0,0,0,1,0,circle,hexagon,,,,,,,,,,,,,,,,,,,,,,,,,,,,,,,,,,,,,,,,,,,,,,,,,,,,,,
297943,2022-11-14_16h39.54.780,vts_reward_expectancy_bt,2022.2.4,MacIntel,60.0024001,Chrome,1440,900,,,l,0.7071,1,332,1,2,1,25,8,1,0,0,1,0,0,0,0,1,hexagon,star,,,,,,,,,,,,,,,,,,,,,,,,,,,,,,,,,,,,,,,,,,,,,,,,,,,,,,
297943,2022-11-14_16h39.54.780,vts_reward_expectancy_bt,2022.2.4,MacIntel,60.0024001,Chrome,1440,900,,,a,1.5823,1,333,1,2,2,26,7,1,0,0,1,0,0,1,0,0,hexagon,circle,,,,,,,,,,,,,,,,,,,,,,,,,,,,,,,,,,,,,,,,,,,,,,,,,,,,,,
297943,2022-11-14_16h39.54.780,vts_reward_expectancy_bt,2022.2.4,MacIntel,60.0024001,Chrome,1440,900,,,l,0.828,1,334,1,2,3,27,2,1,1,0,0,0,0,0,0,1,triangle,star,,,,,,,,,,,,,,,,,,,,,,,,,,,,,,,,,,,,,,,,,,,,,,,,,,,,,,
297943,2022-11-14_16h39.54.780,vts_reward_expectancy_bt,2022.2.4,MacIntel,60.0024001,Chrome,1440,900,,,a,0.8928,10,344,1,2,4,28,1,1,1,0,0,0,0,0,1,0,triangle,hexagon,,,,,,,,,,,,,,,,,,,,,,,,,,,,,,,,,,,,,,,,,,,,,,,,,,,,,,
297943,2022-11-14_16h39.54.780,vts_reward_expectancy_bt,2022.2.4,MacIntel,60.0024001,Chrome,1440,900,,,l,0.7492,10,354,1,2,5,29,6,1,0,0,1,0,1,0,0,0,hexagon,triangle,,,,,,,,,,,,,,,,,,,,,,,,,,,,,,,,,,,,,,,,,,,,,,,,,,,,,,
297943,2022-11-14_16h39.54.780,vts_reward_expectancy_bt,2022.2.4,MacIntel,60.0024001,Chrome,1440,900,,,a,1.0367,10,364,1,2,6,30,11,1,0,0,0,1,0,0,1,0,star,hexagon,,,,,,,,,,,,,,,,,,,,,,,,,,,,,,,,,,,,,,,,,,,,,,,,,,,,,,
297943,2022-11-14_16h39.54.780,vts_reward_expectancy_bt,2022.2.4,MacIntel,60.0024001,Chrome,1440,900,,,a,1.018,10,374,1,2,7,31,0,1,1,0,0,0,0,1,0,0,triangle,circle,,,,,,,,,,,,,,,,,,,,,,,,,,,,,,,,,,,,,,,,,,,,,,,,,,,,,,
297943,2022-11-14_16h39.54.780,vts_reward_expectancy_bt,2022.2.4,MacIntel,60.0024001,Chrome,1440,900,,,l,1.0278,10,384,1,2,8,32,9,1,0,0,0,1,1,0,0,0,star,triangle,,,,,,,,,,,,,,,,,,,,,,,,,,,,,,,,,,,,,,,,,,,,,,,,,,,,,,
297943,2022-11-14_16h39.54.780,vts_reward_expectancy_bt,2022.2.4,MacIntel,60.0024001,Chrome,1440,900,,,l,0.5344,10,394,1,2,9,33,10,1,0,0,0,1,0,1,0,0,star ,circle,,,,,,,,,,,,,,,,,,,,,,,,,,,,,,,,,,,,,,,,,,,,,,,,,,,,,,
297943,2022-11-14_16h39.54.780,vts_reward_expectancy_bt,2022.2.4,MacIntel,60.0024001,Chrome,1440,900,,,a,1.0636,1,395,1,2,10,34,3,1,0,1,0,0,1,0,0,0,circle,triangle,,,,,,,,,,,,,,,,,,,,,,,,,,,,,,,,,,,,,,,,,,,,,,,,,,,,,,
297943,2022-11-14_16h39.54.780,vts_reward_expectancy_bt,2022.2.4,MacIntel,60.0024001,Chrome,1440,900,,,a,0.9501,1,396,1,2,11,35,5,1,0,1,0,0,0,0,0,1,circle,star,,,,,,,,,,,,,,,,,,,,,,,,,,,,,,,,,,,,,,,,,,,,,,,,,,,,,,
297943,2022-11-14_16h39.54.780,vts_reward_expectancy_bt,2022.2.4,MacIntel,60.0024001,Chrome,1440,900,,,a,1.8254,1,397,2,0,0,0,3,1,0,1,0,0,1,0,0,0,circle,triangle,,,,,,,,,,,,,,,,,,,,,,,,,,,,,,,,,,,,,,,,,,,,,,,,,,,,,,
297943,2022-11-14_16h39.54.780,vts_reward_expectancy_bt,2022.2.4,MacIntel,60.0024001,Chrome,1440,900,,,a,0.9183,10,407,2,0,1,1,2,1,1,0,0,0,0,0,0,1,triangle,star,,,,,,,,,,,,,,,,,,,,,,,,,,,,,,,,,,,,,,,,,,,,,,,,,,,,,,
297943,2022-11-14_16h39.54.780,vts_reward_expectancy_bt,2022.2.4,MacIntel,60.0024001,Chrome,1440,900,,,l,0.9039,10,417,2,0,2,2,6,1,0,0,1,0,1,0,0,0,hexagon,triangle,,,,,,,,,,,,,,,,,,,,,,,,,,,,,,,,,,,,,,,,,,,,,,,,,,,,,,
297943,2022-11-14_16h39.54.780,vts_reward_expectancy_bt,2022.2.4,MacIntel,60.0024001,Chrome,1440,900,,,l,1.1244,10,427,2,0,3,3,8,1,0,0,1,0,0,0,0,1,hexagon,star,,,,,,,,,,,,,,,,,,,,,,,,,,,,,,,,,,,,,,,,,,,,,,,,,,,,,,
297943,2022-11-14_16h39.54.780,vts_reward_expectancy_bt,2022.2.4,MacIntel,60.0024001,Chrome,1440,900,,,a,1.3006,10,437,2,0,4,4,0,1,1,0,0,0,0,1,0,0,triangle,circle,,,,,,,,,,,,,,,,,,,,,,,,,,,,,,,,,,,,,,,,,,,,,,,,,,,,,,
297943,2022-11-14_16h39.54.780,vts_reward_expectancy_bt,2022.2.4,MacIntel,60.0024001,Chrome,1440,900,,,l,0.7346,1,438,2,0,5,5,1,1,1,0,0,0,0,0,1,0,triangle,hexagon,,,,,,,,,,,,,,,,,,,,,,,,,,,,,,,,,,,,,,,,,,,,,,,,,,,,,,
297943,2022-11-14_16h39.54.780,vts_reward_expectancy_bt,2022.2.4,MacIntel,60.0024001,Chrome,1440,900,,,l,1.0353,10,448,2,0,6,6,9,1,0,0,0,1,1,0,0,0,star,triangle,,,,,,,,,,,,,,,,,,,,,,,,,,,,,,,,,,,,,,,,,,,,,,,,,,,,,,
297943,2022-11-14_16h39.54.780,vts_reward_expectancy_bt,2022.2.4,MacIntel,60.0024001,Chrome,1440,900,,,a,1.3994,1,449,2,0,7,7,11,1,0,0,0,1,0,0,1,0,star,hexagon,,,,,,,,,,,,,,,,,,,,,,,,,,,,,,,,,,,,,,,,,,,,,,,,,,,,,,
297943,2022-11-14_16h39.54.780,vts_reward_expectancy_bt,2022.2.4,MacIntel,60.0024001,Chrome,1440,900,,,a,1.402,1,450,2,0,8,8,5,1,0,1,0,0,0,0,0,1,circle,star,,,,,,,,,,,,,,,,,,,,,,,,,,,,,,,,,,,,,,,,,,,,,,,,,,,,,,
297943,2022-11-14_16h39.54.780,vts_reward_expectancy_bt,2022.2.4,MacIntel,60.0024001,Chrome,1440,900,,,l,0.8336,1,451,2,0,9,9,7,1,0,0,1,0,0,1,0,0,hexagon,circle,,,,,,,,,,,,,,,,,,,,,,,,,,,,,,,,,,,,,,,,,,,,,,,,,,,,,,
297943,2022-11-14_16h39.54.780,vts_reward_expectancy_bt,2022.2.4,MacIntel,60.0024001,Chrome,1440,900,,,a,0.9831,1,452,2,0,10,10,4,1,0,1,0,0,0,0,1,0,circle,hexagon,,,,,,,,,,,,,,,,,,,,,,,,,,,,,,,,,,,,,,,,,,,,,,,,,,,,,,
297943,2022-11-14_16h39.54.780,vts_reward_expectancy_bt,2022.2.4,MacIntel,60.0024001,Chrome,1440,900,,,a,0.9689,1,453,2,0,11,11,10,1,0,0,0,1,0,1,0,0,star ,circle,,,,,,,,,,,,,,,,,,,,,,,,,,,,,,,,,,,,,,,,,,,,,,,,,,,,,,
297943,2022-11-14_16h39.54.780,vts_reward_expectancy_bt,2022.2.4,MacIntel,60.0024001,Chrome,1440,900,,,l,0.7794,10,463,2,1,0,12,6,1,0,0,1,0,1,0,0,0,hexagon,triangle,,,,,,,,,,,,,,,,,,,,,,,,,,,,,,,,,,,,,,,,,,,,,,,,,,,,,,
297943,2022-11-14_16h39.54.780,vts_reward_expectancy_bt,2022.2.4,MacIntel,60.0024001,Chrome,1440,900,,,l,1.036,1,464,2,1,1,13,11,1,0,0,0,1,0,0,1,0,star,hexagon,,,,,,,,,,,,,,,,,,,,,,,,,,,,,,,,,,,,,,,,,,,,,,,,,,,,,,
297943,2022-11-14_16h39.54.780,vts_reward_expectancy_bt,2022.2.4,MacIntel,60.0024001,Chrome,1440,900,,,l,1.9181,1,465,2,1,2,14,10,1,0,0,0,1,0,1,0,0,star ,circle,,,,,,,,,,,,,,,,,,,,,,,,,,,,,,,,,,,,,,,,,,,,,,,,,,,,,,
297943,2022-11-14_16h39.54.780,vts_reward_expectancy_bt,2022.2.4,MacIntel,60.0024001,Chrome,1440,900,,,a,0.5858,1,466,2,1,3,15,0,1,1,0,0,0,0,1,0,0,triangle,circle,,,,,,,,,,,,,,,,,,,,,,,,,,,,,,,,,,,,,,,,,,,,,,,,,,,,,,
297943,2022-11-14_16h39.54.780,vts_reward_expectancy_bt,2022.2.4,MacIntel,60.0024001,Chrome,1440,900,,,a,1.2672,10,476,2,1,4,16,2,1,1,0,0,0,0,0,0,1,triangle,star,,,,,,,,,,,,,,,,,,,,,,,,,,,,,,,,,,,,,,,,,,,,,,,,,,,,,,
297943,2022-11-14_16h39.54.780,vts_reward_expectancy_bt,2022.2.4,MacIntel,60.0024001,Chrome,1440,900,,,l,1.3657,1,477,2,1,5,17,4,1,0,1,0,0,0,0,1,0,circle,hexagon,,,,,,,,,,,,,,,,,,,,,,,,,,,,,,,,,,,,,,,,,,,,,,,,,,,,,,
297943,2022-11-14_16h39.54.780,vts_reward_expectancy_bt,2022.2.4,MacIntel,60.0024001,Chrome,1440,900,,,a,0.717,10,487,2,1,6,18,1,1,1,0,0,0,0,0,1,0,triangle,hexagon,,,,,,,,,,,,,,,,,,,,,,,,,,,,,,,,,,,,,,,,,,,,,,,,,,,,,,
297943,2022-11-14_16h39.54.780,vts_reward_expectancy_bt,2022.2.4,MacIntel,60.0024001,Chrome,1440,900,,,l,0.6944,10,497,2,1,7,19,5,1,0,1,0,0,0,0,0,1,circle,star,,,,,,,,,,,,,,,,,,,,,,,,,,,,,,,,,,,,,,,,,,,,,,,,,,,,,,
297943,2022-11-14_16h39.54.780,vts_reward_expectancy_bt,2022.2.4,MacIntel,60.0024001,Chrome,1440,900,,,l,0.6567,10,507,2,1,8,20,8,1,0,0,1,0,0,0,0,1,hexagon,star,,,,,,,,,,,,,,,,,,,,,,,,,,,,,,,,,,,,,,,,,,,,,,,,,,,,,,
297943,2022-11-14_16h39.54.780,vts_reward_expectancy_bt,2022.2.4,MacIntel,60.0024001,Chrome,1440,900,,,l,1.0385,10,517,2,1,9,21,9,1,0,0,0,1,1,0,0,0,star,triangle,,,,,,,,,,,,,,,,,,,,,,,,,,,,,,,,,,,,,,,,,,,,,,,,,,,,,,
297943,2022-11-14_16h39.54.780,vts_reward_expectancy_bt,2022.2.4,MacIntel,60.0024001,Chrome,1440,900,,,l,0.9013,10,527,2,1,10,22,7,1,0,0,1,0,0,1,0,0,hexagon,circle,,,,,,,,,,,,,,,,,,,,,,,,,,,,,,,,,,,,,,,,,,,,,,,,,,,,,,
297943,2022-11-14_16h39.54.780,vts_reward_expectancy_bt,2022.2.4,MacIntel,60.0024001,Chrome,1440,900,,,l,0.6657,10,537,2,1,11,23,3,1,0,1,0,0,1,0,0,0,circle,triangle,,,,,,,,,,,,,,,,,,,,,,,,,,,,,,,,,,,,,,,,,,,,,,,,,,,,,,
297943,2022-11-14_16h39.54.780,vts_reward_expectancy_bt,2022.2.4,MacIntel,60.0024001,Chrome,1440,900,,,l,0.7513,10,547,2,2,0,24,9,1,0,0,0,1,1,0,0,0,star,triangle,,,,,,,,,,,,,,,,,,,,,,,,,,,,,,,,,,,,,,,,,,,,,,,,,,,,,,
297943,2022-11-14_16h39.54.780,vts_reward_expectancy_bt,2022.2.4,MacIntel,60.0024001,Chrome,1440,900,,,l,0.4651,1,548,2,2,1,25,10,1,0,0,0,1,0,1,0,0,star ,circle,,,,,,,,,,,,,,,,,,,,,,,,,,,,,,,,,,,,,,,,,,,,,,,,,,,,,,
297943,2022-11-14_16h39.54.780,vts_reward_expectancy_bt,2022.2.4,MacIntel,60.0024001,Chrome,1440,900,,,a,0.3369,1,549,2,2,2,26,5,1,0,1,0,0,0,0,0,1,circle,star,,,,,,,,,,,,,,,,,,,,,,,,,,,,,,,,,,,,,,,,,,,,,,,,,,,,,,
297943,2022-11-14_16h39.54.780,vts_reward_expectancy_bt,2022.2.4,MacIntel,60.0024001,Chrome,1440,900,,,a,0.3281,10,559,2,2,3,27,8,1,0,0,1,0,0,0,0,1,hexagon,star,,,,,,,,,,,,,,,,,,,,,,,,,,,,,,,,,,,,,,,,,,,,,,,,,,,,,,
297943,2022-11-14_16h39.54.780,vts_reward_expectancy_bt,2022.2.4,MacIntel,60.0024001,Chrome,1440,900,,,l,0.8233,1,560,2,2,4,28,7,1,0,0,1,0,0,1,0,0,hexagon,circle,,,,,,,,,,,,,,,,,,,,,,,,,,,,,,,,,,,,,,,,,,,,,,,,,,,,,,
297943,2022-11-14_16h39.54.780,vts_reward_expectancy_bt,2022.2.4,MacIntel,60.0024001,Chrome,1440,900,,,a,0.2872,10,570,2,2,5,29,2,1,1,0,0,0,0,0,0,1,triangle,star,,,,,,,,,,,,,,,,,,,,,,,,,,,,,,,,,,,,,,,,,,,,,,,,,,,,,,
297943,2022-11-14_16h39.54.780,vts_reward_expectancy_bt,2022.2.4,MacIntel,60.0024001,Chrome,1440,900,,,a,0.4229,1,571,2,2,6,30,4,1,0,1,0,0,0,0,1,0,circle,hexagon,,,,,,,,,,,,,,,,,,,,,,,,,,,,,,,,,,,,,,,,,,,,,,,,,,,,,,
297943,2022-11-14_16h39.54.780,vts_reward_expectancy_bt,2022.2.4,MacIntel,60.0024001,Chrome,1440,900,,,a,0.4153,10,581,2,2,7,31,11,1,0,0,0,1,0,0,1,0,star,hexagon,,,,,,,,,,,,,,,,,,,,,,,,,,,,,,,,,,,,,,,,,,,,,,,,,,,,,,
297943,2022-11-14_16h39.54.780,vts_reward_expectancy_bt,2022.2.4,MacIntel,60.0024001,Chrome,1440,900,,,a,0.3351,1,582,2,2,8,32,6,1,0,0,1,0,1,0,0,0,hexagon,triangle,,,,,,,,,,,,,,,,,,,,,,,,,,,,,,,,,,,,,,,,,,,,,,,,,,,,,,
297943,2022-11-14_16h39.54.780,vts_reward_expectancy_bt,2022.2.4,MacIntel,60.0024001,Chrome,1440,900,,,l,0.3144,1,583,2,2,9,33,0,1,1,0,0,0,0,1,0,0,triangle,circle,,,,,,,,,,,,,,,,,,,,,,,,,,,,,,,,,,,,,,,,,,,,,,,,,,,,,,
297943,2022-11-14_16h39.54.780,vts_reward_expectancy_bt,2022.2.4,MacIntel,60.0024001,Chrome,1440,900,,,l,0.3147,10,593,2,2,10,34,3,1,0,1,0,0,1,0,0,0,circle,triangle,,,,,,,,,,,,,,,,,,,,,,,,,,,,,,,,,,,,,,,,,,,,,,,,,,,,,,
297943,2022-11-14_16h39.54.780,vts_reward_expectancy_bt,2022.2.4,MacIntel,60.0024001,Chrome,1440,900,,,a,0.3409,10,603,2,2,11,35,1,1,1,0,0,0,0,0,1,0,triangle,hexagon,,,,,,,,,,,,,,,,,,,,,,,,,,,,,,,,,,,,,,,,,,,,,,,,,,,,,,
297943,2022-11-14_16h39.54.780,vts_reward_expectancy_bt,2022.2.4,MacIntel,60.0024001,Chrome,1440,900,,,,,,,,,,,,,,,,,,,,,,,160,S,triangle,1,0,f,1.761,0,0,0,0,0,1,,,,,,,,,,,,,,,,,,,,,,,,,,,,,,,,,,,,,,,,,
297943,2022-11-14_16h39.54.780,vts_reward_expectancy_bt,2022.2.4,MacIntel,60.0024001,Chrome,1440,900,,,,,,,,,,,,,,,,,,,,,,,167,W,hexagon,1,0,f,0.784,0,1,0,1,0,1,,,,,,,,,,,,,,,,,,,,,,,,,,,,,,,,,,,,,,,,,
297943,2022-11-14_16h39.54.780,vts_reward_expectancy_bt,2022.2.4,MacIntel,60.0024001,Chrome,1440,900,,,,,,,,,,,,,,,,,,,,,,,181,D,star,1,0,f,0.7517,0,2,0,2,0,1,,,,,,,,,,,,,,,,,,,,,,,,,,,,,,,,,,,,,,,,,
297943,2022-11-14_16h39.54.780,vts_reward_expectancy_bt,2022.2.4,MacIntel,60.0024001,Chrome,1440,900,,,,,,,,,,,,,,,,,,,,,,,139,H,circle,0,0,f,0.515,0,3,0,3,0,1,,,,,,,,,,,,,,,,,,,,,,,,,,,,,,,,,,,,,,,,,
297943,2022-11-14_16h39.54.780,vts_reward_expectancy_bt,2022.2.4,MacIntel,60.0024001,Chrome,1440,900,,,,,,,,,,,,,,,,,,,,,,,132,U,triangle,1,1,d,0.4821,0,4,0,4,0,1,,,,,,,,,,,,,,,,,,,,,,,,,,,,,,,,,,,,,,,,,
297943,2022-11-14_16h39.54.780,vts_reward_expectancy_bt,2022.2.4,MacIntel,60.0024001,Chrome,1440,900,,,,,,,,,,,,,,,,,,,,,,,146,F,hexagon,1,0,d,0.6605,0,5,0,5,0,1,,,,,,,,,,,,,,,,,,,,,,,,,,,,,,,,,,,,,,,,,
297943,2022-11-14_16h39.54.780,vts_reward_expectancy_bt,2022.2.4,MacIntel,60.0024001,Chrome,1440,900,,,,,,,,,,,,,,,,,,,,,,,174,B,star,1,0,f,0.5519,0,6,0,6,0,1,,,,,,,,,,,,,,,,,,,,,,,,,,,,,,,,,,,,,,,,,
297943,2022-11-14_16h39.54.780,vts_reward_expectancy_bt,2022.2.4,MacIntel,60.0024001,Chrome,1440,900,,,,,,,,,,,,,,,,,,,,,,,125,Y,circle,1,0,d,0.6785,0,7,0,7,0,1,,,,,,,,,,,,,,,,,,,,,,,,,,,,,,,,,,,,,,,,,
297943,2022-11-14_16h39.54.780,vts_reward_expectancy_bt,2022.2.4,MacIntel,60.0024001,Chrome,1440,900,,,,,,,,,,,,,,,,,,,,,,,160,S,star,1,0,f,0.5996,0,8,0,8,0,1,,,,,,,,,,,,,,,,,,,,,,,,,,,,,,,,,,,,,,,,,
297943,2022-11-14_16h39.54.780,vts_reward_expectancy_bt,2022.2.4,MacIntel,60.0024001,Chrome,1440,900,,,,,,,,,,,,,,,,,,,,,,,167,W,hexagon,1,0,f,0.6607,0,9,0,9,0,1,,,,,,,,,,,,,,,,,,,,,,,,,,,,,,,,,,,,,,,,,
297943,2022-11-14_16h39.54.780,vts_reward_expectancy_bt,2022.2.4,MacIntel,60.0024001,Chrome,1440,900,,,,,,,,,,,,,,,,,,,,,,,160,H,triangle,1,0,,,1,,,,,,j,0.8164,0,0,0,0,1,,,,,,,,,,,,,,,,,,,,,,,,,,,,,,,,,,
297943,2022-11-14_16h39.54.780,vts_reward_expectancy_bt,2022.2.4,MacIntel,60.0024001,Chrome,1440,900,,,,,,,,,,,,,,,,,,,,,,,125,W,hexagon,1,0,,,1,,,,,,k,0.6325,1,0,1,0,1,,,,,,,,,,,,,,,,,,,,,,,,,,,,,,,,,,
297943,2022-11-14_16h39.54.780,vts_reward_expectancy_bt,2022.2.4,MacIntel,60.0024001,Chrome,1440,900,,,,,,,,,,,,,,,,,,,,,,,139,U,star,1,0,,,1,,,,,,k,0.6492,2,0,2,0,1,,,,,,,,,,,,,,,,,,,,,,,,,,,,,,,,,,
297943,2022-11-14_16h39.54.780,vts_reward_expectancy_bt,2022.2.4,MacIntel,60.0024001,Chrome,1440,900,,,,,,,,,,,,,,,,,,,,,,,174,Y,circle,1,0,,,1,,,,,,k,0.5166,3,0,3,0,1,,,,,,,,,,,,,,,,,,,,,,,,,,,,,,,,,,
297943,2022-11-14_16h39.54.780,vts_reward_expectancy_bt,2022.2.4,MacIntel,60.0024001,Chrome,1440,900,,,,,,,,,,,,,,,,,,,,,,,146,F,triangle,1,0,,,1,,,,,,j,0.6147,4,0,4,0,1,,,,,,,,,,,,,,,,,,,,,,,,,,,,,,,,,,
297943,2022-11-14_16h39.54.780,vts_reward_expectancy_bt,2022.2.4,MacIntel,60.0024001,Chrome,1440,900,,,,,,,,,,,,,,,,,,,,,,,167,B,hexagon,1,0,,,1,,,,,,j,0.4676,5,0,5,0,1,,,,,,,,,,,,,,,,,,,,,,,,,,,,,,,,,,
297943,2022-11-14_16h39.54.780,vts_reward_expectancy_bt,2022.2.4,MacIntel,60.0024001,Chrome,1440,900,,,,,,,,,,,,,,,,,,,,,,,181,D,star,1,0,,,1,,,,,,j,0.6009,6,0,6,0,1,,,,,,,,,,,,,,,,,,,,,,,,,,,,,,,,,,
297943,2022-11-14_16h39.54.780,vts_reward_expectancy_bt,2022.2.4,MacIntel,60.0024001,Chrome,1440,900,,,,,,,,,,,,,,,,,,,,,,,132,S,circle,1,0,,,1,,,,,,k,0.6322,7,0,7,0,1,,,,,,,,,,,,,,,,,,,,,,,,,,,,,,,,,,
297943,2022-11-14_16h39.54.780,vts_reward_expectancy_bt,2022.2.4,MacIntel,60.0024001,Chrome,1440,900,,,,,,,,,,,,,,,,,,,,,,,160,H,hexagon,1,0,,,1,,,,,,j,0.6332,8,0,8,0,1,,,,,,,,,,,,,,,,,,,,,,,,,,,,,,,,,,
297943,2022-11-14_16h39.54.780,vts_reward_expectancy_bt,2022.2.4,MacIntel,60.0024001,Chrome,1440,900,,,,,,,,,,,,,,,,,,,,,,,125,W,triangle,1,0,,,1,,,,,,k,0.4988,9,0,9,0,1,,,,,,,,,,,,,,,,,,,,,,,,,,,,,,,,,,
297943,2022-11-14_16h39.54.780,vts_reward_expectancy_bt,2022.2.4,MacIntel,60.0024001,Chrome,1440,900,,,,,0,603,,,,,,,,,,,,,,,,,132,Y,circle,1,0,,,2,,,,,,,,,,,,,-1,number,NA,d,1.4467,vtsPrac,0,0,0,0,1,,,,,,,,,,,,,,,,,,,,,,,
297943,2022-11-14_16h39.54.780,vts_reward_expectancy_bt,2022.2.4,MacIntel,60.0024001,Chrome,1440,900,,,,,0,603,,,,,,,,,,,,,,,,,174,B,hexagon,1,0,,,2,,,,,,,,,,,,,repeat,number,numRpt,f,0.6331,vtsPrac,1,0,1,0,1,,,,,,,,,,,,,,,,,,,,,,,
297943,2022-11-14_16h39.54.780,vts_reward_expectancy_bt,2022.2.4,MacIntel,60.0024001,Chrome,1440,900,,,,,0,603,,,,,,,,,,,,,,,,,125,F,circle,1,0,,,2,,,,,,,,,,,,,switch,letter,lettSwt,j,0.585,vtsPrac,2,0,2,0,1,,,,,,,,,,,,,,,,,,,,,,,
297943,2022-11-14_16h39.54.780,vts_reward_expectancy_bt,2022.2.4,MacIntel,60.0024001,Chrome,1440,900,,,,,0,603,,,,,,,,,,,,,,,,,167,H,hexagon,1,0,,,2,,,,,,,,,,,,,switch,number,numSwt,f,0.5376,vtsPrac,3,0,3,0,1,,,,,,,,,,,,,,,,,,,,,,,
297943,2022-11-14_16h39.54.780,vts_reward_expectancy_bt,2022.2.4,MacIntel,60.0024001,Chrome,1440,900,,,,,0,603,,,,,,,,,,,,,,,,,132,Y,hexagon,1,0,,,2,,,,,,,,,,,,,switch,letter,lettSwt,k,0.5674,vtsPrac,4,0,4,0,1,,,,,,,,,,,,,,,,,,,,,,,
297943,2022-11-14_16h39.54.780,vts_reward_expectancy_bt,2022.2.4,MacIntel,60.0024001,Chrome,1440,900,,,,,0,603,,,,,,,,,,,,,,,,,174,B,circle,1,0,,,2,,,,,,,,,,,,,switch,number,numSwt,f,0.6351,vtsPrac,5,0,5,0,1,,,,,,,,,,,,,,,,,,,,,,,
297943,2022-11-14_16h39.54.780,vts_reward_expectancy_bt,2022.2.4,MacIntel,60.0024001,Chrome,1440,900,,,,,0,603,,,,,,,,,,,,,,,,,125,F,circle,1,0,,,2,,,,,,,,,,,,,repeat,number,numRpt,d,0.9425,vtsPrac,6,0,6,0,1,,,,,,,,,,,,,,,,,,,,,,,
297943,2022-11-14_16h39.54.780,vts_reward_expectancy_bt,2022.2.4,MacIntel,60.0024001,Chrome,1440,900,,,,,0,603,,,,,,,,,,,,,,,,,167,H,hexagon,1,0,,,2,,,,,,,,,,,,,switch,letter,lettSwt,j,1.4846,vtsPrac,7,0,7,0,1,,,,,,,,,,,,,,,,,,,,,,,
297943,2022-11-14_16h39.54.780,vts_reward_expectancy_bt,2022.2.4,MacIntel,60.0024001,Chrome,1440,900,,,,,0,603,,,,,,,,,,,,,,,,,174,H,star,1,0,,,2,,,,,,,,,,,,,switch,number,numSwt,f,1.537,vtsPrac,8,0,8,0,1,,,,,,,,,,,,,,,,,,,,,,,
297943,2022-11-14_16h39.54.780,vts_reward_expectancy_bt,2022.2.4,MacIntel,60.0024001,Chrome,1440,900,,,,,0,603,,,,,,,,,,,,,,,,,132,W,triangle,1,0,,,2,,,,,,,,,,,,,switch,letter,lettSwt,k,0.4641,vtsPrac,9,0,9,0,1,,,,,,,,,,,,,,,,,,,,,,,
297943,2022-11-14_16h39.54.780,vts_reward_expectancy_bt,2022.2.4,MacIntel,60.0024001,Chrome,1440,900,,,,,0,603,,,,,,,,,,,,,,,,,160,S,triangle,1,0,,,2,,,,,,,,,,,,,switch,number,numSwt,f,1.167,vtsPrac,10,0,10,0,1,,,,,,,,,,,,,,,,,,,,,,,
297943,2022-11-14_16h39.54.780,vts_reward_expectancy_bt,2022.2.4,MacIntel,60.0024001,Chrome,1440,900,,,,,0,603,,,,,,,,,,,,,,,,,181,U,circle,1,0,,,2,,,,,,,,,,,,,switch,letter,lettSwt,k,0.5005,vtsPrac,11,0,11,0,1,,,,,,,,,,,,,,,,,,,,,,,
297943,2022-11-14_16h39.54.780,vts_reward_expectancy_bt,2022.2.4,MacIntel,60.0024001,Chrome,1440,900,,,,,0,603,,,,,,,,,,,,,,,,,139,S,hexagon,1,0,,,2,,,,,,,,,,,,,repeat,letter,lettRpt,k,0.6987,vtsPrac,12,0,12,0,1,,,,,,,,,,,,,,,,,,,,,,,
297943,2022-11-14_16h39.54.780,vts_reward_expectancy_bt,2022.2.4,MacIntel,60.0024001,Chrome,1440,900,,,,,0,603,,,,,,,,,,,,,,,,,181,D,star,1,0,,,2,,,,,,,,,,,,,repeat,letter,lettRpt,j,0.6292,vtsPrac,13,0,13,0,1,,,,,,,,,,,,,,,,,,,,,,,
297943,2022-11-14_16h39.54.780,vts_reward_expectancy_bt,2022.2.4,MacIntel,60.0024001,Chrome,1440,900,,,,,0,603,,,,,,,,,,,,,,,,,174,F,circle,1,0,,,2,,,,,,,,,,,,,switch,number,numSwt,f,0.6332,vtsPrac,14,0,14,0,1,,,,,,,,,,,,,,,,,,,,,,,
297943,2022-11-14_16h39.54.780,vts_reward_expectancy_bt,2022.2.4,MacIntel,60.0024001,Chrome,1440,900,,,,,0,603,,,,,,,,,,,,,,,,,160,Y,hexagon,1,0,,,2,,,,,,,,,,,,,switch,letter,lettSwt,k,0.4666,vtsPrac,15,0,15,0,1,,,,,,,,,,,,,,,,,,,,,,,
297943,2022-11-14_16h39.54.780,vts_reward_expectancy_bt,2022.2.4,MacIntel,60.0024001,Chrome,1440,900,,,,,0,603,,,,,,,,,,,,,,,,,139,F,hexagon,1,0,,,2,,,,,,,,,,,,,repeat,letter,lettRpt,j,0.6978,vtsPrac,16,0,16,0,1,,,,,,,,,,,,,,,,,,,,,,,
297943,2022-11-14_16h39.54.780,vts_reward_expectancy_bt,2022.2.4,MacIntel,60.0024001,Chrome,1440,900,,,,,0,603,,,,,,,,,,,,,,,,,125,H,circle,1,0,,,2,,,,,,,,,,,,,switch,number,numSwt,d,0.6322,vtsPrac,17,0,17,0,1,,,,,,,,,,,,,,,,,,,,,,,
297943,2022-11-14_16h39.54.780,vts_reward_expectancy_bt,2022.2.4,MacIntel,60.0024001,Chrome,1440,900,,,,,0,603,,,,,,,,,,,,,,,,,132,U,hexagon,1,0,,,2,,,,,,,,,,,,,repeat,number,numRpt,d,1.0849,vtsPrac,18,0,18,0,1,,,,,,,,,,,,,,,,,,,,,,,
297943,2022-11-14_16h39.54.780,vts_reward_expectancy_bt,2022.2.4,MacIntel,60.0024001,Chrome,1440,900,,,,,0,603,,,,,,,,,,,,,,,,,146,D,triangle,1,0,,,2,,,,,,,,,,,,,switch,letter,lettSwt,j,0.6502,vtsPrac,19,0,19,0,1,,,,,,,,,,,,,,,,,,,,,,,
297943,2022-11-14_16h39.54.780,vts_reward_expectancy_bt,2022.2.4,MacIntel,60.0024001,Chrome,1440,900,,,,,0,603,,,,,,,,,,,,,,,,,132,F,triangle,1,0,,,2,,,,,,,,,,,,,switch,number,numSwt,d,0.5179,vtsPrac,20,0,20,0,1,,,,,,,,,,,,,,,,,,,,,,,
297943,2022-11-14_16h39.54.780,vts_reward_expectancy_bt,2022.2.4,MacIntel,60.0024001,Chrome,1440,900,,,,,0,603,,,,,,,,,,,,,,,,,167,U,hexagon,1,0,,,2,,,,,,,,,,,,,switch,letter,lettSwt,k,0.5669,vtsPrac,21,0,21,0,1,,,,,,,,,,,,,,,,,,,,,,,
297943,2022-11-14_16h39.54.780,vts_reward_expectancy_bt,2022.2.4,MacIntel,60.0024001,Chrome,1440,900,,,,,0,603,,,,,,,,,,,,,,,,,160,B,hexagon,1,0,,,2,,,,,,,,,,,,,repeat,letter,lettRpt,j,0.4767,vtsPrac,22,0,22,0,1,,,,,,,,,,,,,,,,,,,,,,,
297943,2022-11-14_16h39.54.780,vts_reward_expectancy_bt,2022.2.4,MacIntel,60.0024001,Chrome,1440,900,,,,,0,603,,,,,,,,,,,,,,,,,125,D,circle,1,0,,,2,,,,,,,,,,,,,repeat,letter,lettRpt,j,0.5524,vtsPrac,23,0,23,0,1,,,,,,,,,,,,,,,,,,,,,,,
297943,2022-11-14_16h39.54.780,vts_reward_expectancy_bt,2022.2.4,MacIntel,60.0024001,Chrome,1440,900,,,,,0,603,,,,,,,,,,,,,,,,,132,D,triangle,1,0,,,2,,,,,,,,,,,,,switch,number,numSwt,d,2.2166,vtsPrac,24,0,24,0,1,,,,,,,,,,,,,,,,,,,,,,,
297943,2022-11-14_16h39.54.780,vts_reward_expectancy_bt,2022.2.4,MacIntel,60.0024001,Chrome,1440,900,,,,,0,603,,,,,,,,,,,,,,,,,160,H,circle,1,0,,,2,,,,,,,,,,,,,repeat,number,numRpt,f,1.4675,vtsPrac,25,0,25,0,1,,,,,,,,,,,,,,,,,,,,,,,
297943,2022-11-14_16h39.54.780,vts_reward_expectancy_bt,2022.2.4,MacIntel,60.0024001,Chrome,1440,900,,,,,0,603,,,,,,,,,,,,,,,,,125,B,hexagon,1,0,,,2,,,,,,,,,,,,,switch,letter,lettSwt,j,0.5673,vtsPrac,26,0,26,0,1,,,,,,,,,,,,,,,,,,,,,,,
297943,2022-11-14_16h39.54.780,vts_reward_expectancy_bt,2022.2.4,MacIntel,60.0024001,Chrome,1440,900,,,,,0,603,,,,,,,,,,,,,,,,,146,F,star,1,0,,,2,,,,,,,,,,,,,repeat,letter,lettRpt,j,0.9192,vtsPrac,27,0,27,0,1,,,,,,,,,,,,,,,,,,,,,,,
297943,2022-11-14_16h39.54.780,vts_reward_expectancy_bt,2022.2.4,MacIntel,60.0024001,Chrome,1440,900,,,,,0,603,,,,,,,,,,,,,,,,,174,B,circle,1,0,,,2,,,,,,,,,,,,,switch,number,numSwt,f,2.1681,vtsPrac,28,0,28,0,1,,,,,,,,,,,,,,,,,,,,,,,
297943,2022-11-14_16h39.54.780,vts_reward_expectancy_bt,2022.2.4,MacIntel,60.0024001,Chrome,1440,900,,,,,0,603,,,,,,,,,,,,,,,,,139,H,triangle,1,0,,,2,,,,,,,,,,,,,switch,letter,lettSwt,j,0.65,vtsPrac,29,0,29,0,1,,,,,,,,,,,,,,,,,,,,,,,
297943,2022-11-14_16h39.54.780,vts_reward_expectancy_bt,2022.2.4,MacIntel,60.0024001,Chrome,1440,900,,,,,0,603,,,,,,,,,,,,,,,,,167,F,circle,1,0,,,2,,,,,,,,,,,,,repeat,letter,lettRpt,j,1.0024,vtsPrac,30,0,30,0,1,,,,,,,,,,,,,,,,,,,,,,,
297943,2022-11-14_16h39.54.780,vts_reward_expectancy_bt,2022.2.4,MacIntel,60.0024001,Chrome,1440,900,,,,,0,603,,,,,,,,,,,,,,,,,181,U,triangle,1,0,,,2,,,,,,,,,,,,,switch,number,numSwt,f,0.8197,vtsPrac,31,0,31,0,1,,,,,,,,,,,,,,,,,,,,,,,
297943,2022-11-14_16h39.54.780,vts_reward_expectancy_bt,2022.2.4,MacIntel,60.0024001,Chrome,1440,900,,,,,,,,,,,,,,,,,,,,,,,,,,,,,,,,,,,,,,,,,,,,,,,,,,,,,,,,,,,,,,,,,,,,,,,,,,,,
297943,2022-11-14_16h39.54.780,vts_reward_expectancy_bt,2022.2.4,MacIntel,60.0024001,Chrome,1440,900,,,,,,,,,,,,,,,,,,,,,,,,,,,,,,,,,,,,,,,,,,,,,,,,,,,,,,,,,,,,,,,,,,,,,,,,,,,,
297943,2022-11-14_16h39.54.780,vts_reward_expectancy_bt,2022.2.4,MacIntel,60.0024001,Chrome,1440,900,,,,,0,603,,,,,,,,,,,,,,,,,132,B,triangle,1,0,,,,,,,,,,,,,,,,repeat,number,numRpt,d,2.2044,noRew,,,,,,0,0,0,0,0,1,,,,,,,,,,,,,,,,,
297943,2022-11-14_16h39.54.780,vts_reward_expectancy_bt,2022.2.4,MacIntel,60.0024001,Chrome,1440,900,,,,,0,603,,,,,,,,,,,,,,,,,174,D,star,1,0,,,,,,,,,,,,,,,,repeat,number,numRpt,f,0.7024,noRew,,,,,,0,1,0,1,0,1,,,,,,,,,,,,,,,,,
297943,2022-11-14_16h39.54.780,vts_reward_expectancy_bt,2022.2.4,MacIntel,60.0024001,Chrome,1440,900,,,,,0,603,,,,,,,,,,,,,,,,,139,W,triangle,1,0,,,,,,,,,,,,,,,,switch,letter,lettSwt,k,0.4741,noRew,,,,,,0,2,0,2,0,1,,,,,,,,,,,,,,,,,
297943,2022-11-14_16h39.54.780,vts_reward_expectancy_bt,2022.2.4,MacIntel,60.0024001,Chrome,1440,900,,,,,0,603,,,,,,,,,,,,,,,,,181,F,star,1,0,,,,,,,,,,,,,,,,repeat,letter,lettRpt,j,0.5855,noRew,,,,,,0,3,0,3,0,1,,,,,,,,,,,,,,,,,
297943,2022-11-14_16h39.54.780,vts_reward_expectancy_bt,2022.2.4,MacIntel,60.0024001,Chrome,1440,900,,,,,0,603,,,,,,,,,,,,,,,,,132,B,circle,1,0,,,,,,,,,,,,,,,,repeat,letter,lettRpt,j,0.7176,noRew,,,,,,0,4,0,4,0,1,,,,,,,,,,,,,,,,,
297943,2022-11-14_16h39.54.780,vts_reward_expectancy_bt,2022.2.4,MacIntel,60.0024001,Chrome,1440,900,,,,,0,603,,,,,,,,,,,,,,,,,174,D,triangle,1,0,,,,,,,,,,,,,,,,switch,number,numSwt,f,0.9319,noRew,,,,,,0,5,0,5,0,1,,,,,,,,,,,,,,,,,
297943,2022-11-14_16h39.54.780,vts_reward_expectancy_bt,2022.2.4,MacIntel,60.0024001,Chrome,1440,900,,,,,0,603,,,,,,,,,,,,,,,,,139,W,triangle,1,0,,,,,,,,,,,,,,,,switch,letter,lettSwt,k,0.9998,noRew,,,,,,0,6,0,6,0,1,,,,,,,,,,,,,,,,,
297943,2022-11-14_16h39.54.780,vts_reward_expectancy_bt,2022.2.4,MacIntel,60.0024001,Chrome,1440,900,,,,,0,603,,,,,,,,,,,,,,,,,181,F,star,1,0,,,,,,,,,,,,,,,,switch,number,numSwt,f,1.1552,noRew,,,,,,0,7,0,7,0,1,,,,,,,,,,,,,,,,,
297943,2022-11-14_16h39.54.780,vts_reward_expectancy_bt,2022.2.4,MacIntel,60.0024001,Chrome,1440,900,,,,,0,603,,,,,,,,,,,,,,,,,160,W,hexagon,1,0,,,,,,,,,,,,,,,,switch,letter,lettSwt,k,1.5872,noRew,,,,,,0,8,0,8,0,1,,,,,,,,,,,,,,,,,
297943,2022-11-14_16h39.54.780,vts_reward_expectancy_bt,2022.2.4,MacIntel,60.0024001,Chrome,1440,900,,,,,0,603,,,,,,,,,,,,,,,,,167,H,triangle,1,0,,,,,,,,,,,,,,,,switch,number,numSwt,f,1.0357,noRew,,,,,,0,9,0,9,0,1,,,,,,,,,,,,,,,,,
297943,2022-11-14_16h39.54.780,vts_reward_expectancy_bt,2022.2.4,MacIntel,60.0024001,Chrome,1440,900,,,,,0,603,,,,,,,,,,,,,,,,,139,F,circle,1,0,,,,,,,,,,,,,,,,repeat,number,numRpt,d,0.8046,noRew,,,,,,0,10,0,10,0,1,,,,,,,,,,,,,,,,,
297943,2022-11-14_16h39.54.780,vts_reward_expectancy_bt,2022.2.4,MacIntel,60.0024001,Chrome,1440,900,,,,,0,603,,,,,,,,,,,,,,,,,181,S,hexagon,1,0,,,,,,,,,,,,,,,,switch,letter,lettSwt,k,1.0384,noRew,,,,,,0,11,0,11,0,1,,,,,,,,,,,,,,,,,
297943,2022-11-14_16h39.54.780,vts_reward_expectancy_bt,2022.2.4,MacIntel,60.0024001,Chrome,1440,900,,,,,0,603,,,,,,,,,,,,,,,,,139,W,hexagon,1,0,,,,,,,,,,,,,,,,repeat,letter,lettRpt,k,0.5096,noRew,,,,,,0,12,0,12,0,1,,,,,,,,,,,,,,,,,
297943,2022-11-14_16h39.54.780,vts_reward_expectancy_bt,2022.2.4,MacIntel,60.0024001,Chrome,1440,900,,,,,0,603,,,,,,,,,,,,,,,,,174,B,star,1,0,,,,,,,,,,,,,,,,switch,number,numSwt,f,1.0498,noRew,,,,,,0,13,0,13,0,1,,,,,,,,,,,,,,,,,
297943,2022-11-14_16h39.54.780,vts_reward_expectancy_bt,2022.2.4,MacIntel,60.0024001,Chrome,1440,900,,,,,0,603,,,,,,,,,,,,,,,,,132,H,star,1,0,,,,,,,,,,,,,,,,repeat,number,numRpt,d,0.8382,noRew,,,,,,0,14,0,14,0,1,,,,,,,,,,,,,,,,,
297943,2022-11-14_16h39.54.780,vts_reward_expectancy_bt,2022.2.4,MacIntel,60.0024001,Chrome,1440,900,,,,,0,603,,,,,,,,,,,,,,,,,146,F,circle,1,0,,,,,,,,,,,,,,,,repeat,number,numRpt,d,1.1638,noRew,,,,,,0,15,0,15,0,1,,,,,,,,,,,,,,,,,
297943,2022-11-14_16h39.54.780,vts_reward_expectancy_bt,2022.2.4,MacIntel,60.0024001,Chrome,1440,900,,,,,0,603,,,,,,,,,,,,,,,,,139,Y,hexagon,1,0,,,,,,,,,,,,,,,,repeat,number,numRpt,d,1.3056,noRew,,,,,,0,16,0,16,0,1,,,,,,,,,,,,,,,,,
297943,2022-11-14_16h39.54.780,vts_reward_expectancy_bt,2022.2.4,MacIntel,60.0024001,Chrome,1440,900,,,,,0,603,,,,,,,,,,,,,,,,,167,F,circle,1,0,,,,,,,,,,,,,,,,switch,letter,lettSwt,j,0.7971,noRew,,,,,,0,17,0,17,0,1,,,,,,,,,,,,,,,,,
297943,2022-11-14_16h39.54.780,vts_reward_expectancy_bt,2022.2.4,MacIntel,60.0024001,Chrome,1440,900,,,,,0,603,,,,,,,,,,,,,,,,,125,W,circle,1,0,,,,,,,,,,,,,,,,repeat,letter,lettRpt,k,1.7114,noRew,,,,,,0,18,0,18,0,1,,,,,,,,,,,,,,,,,
297943,2022-11-14_16h39.54.780,vts_reward_expectancy_bt,2022.2.4,MacIntel,60.0024001,Chrome,1440,900,,,,,0,603,,,,,,,,,,,,,,,,,146,S,hexagon,1,0,,,,,,,,,,,,,,,,repeat,letter,lettRpt,k,1.5721,noRew,,,,,,0,19,0,19,0,1,,,,,,,,,,,,,,,,,
297943,2022-11-14_16h39.54.780,vts_reward_expectancy_bt,2022.2.4,MacIntel,60.0024001,Chrome,1440,900,,,,,0,603,,,,,,,,,,,,,,,,,146,U,star,1,0,,,,,,,,,,,,,,,,switch,number,numSwt,d,1.5377,noRew,,,,,,0,20,0,20,0,1,,,,,,,,,,,,,,,,,
297943,2022-11-14_16h39.54.780,vts_reward_expectancy_bt,2022.2.4,MacIntel,60.0024001,Chrome,1440,900,,,,,0,603,,,,,,,,,,,,,,,,,167,H,triangle,1,0,,,,,,,,,,,,,,,,repeat,number,numRpt,f,1.2491,noRew,,,,,,0,21,0,21,0,1,,,,,,,,,,,,,,,,,
297943,2022-11-14_16h39.54.780,vts_reward_expectancy_bt,2022.2.4,MacIntel,60.0024001,Chrome,1440,900,,,,,0,603,,,,,,,,,,,,,,,,,160,S,hexagon,1,0,,,,,,,,,,,,,,,,switch,letter,lettSwt,k,1.1482,noRew,,,,,,0,22,0,22,0,1,,,,,,,,,,,,,,,,,
297943,2022-11-14_16h39.54.780,vts_reward_expectancy_bt,2022.2.4,MacIntel,60.0024001,Chrome,1440,900,,,,,0,603,,,,,,,,,,,,,,,,,181,F,triangle,1,0,,,,,,,,,,,,,,,,repeat,letter,lettRpt,j,1.2168,noRew,,,,,,0,23,0,23,0,1,,,,,,,,,,,,,,,,,
297943,2022-11-14_16h39.54.780,vts_reward_expectancy_bt,2022.2.4,MacIntel,60.0024001,Chrome,1440,900,,,,,0,603,,,,,,,,,,,,,,,,,146,B,hexagon,1,0,,,,,,,,,,,,,,,,switch,number,numSwt,d,2.0721,noRew,,,,,,0,24,0,24,0,1,,,,,,,,,,,,,,,,,
297943,2022-11-14_16h39.54.780,vts_reward_expectancy_bt,2022.2.4,MacIntel,60.0024001,Chrome,1440,900,,,,,0,603,,,,,,,,,,,,,,,,,181,W,circle,1,0,,,,,,,,,,,,,,,,switch,letter,lettSwt,k,0.7804,noRew,,,,,,0,25,0,25,0,1,,,,,,,,,,,,,,,,,
297943,2022-11-14_16h39.54.780,vts_reward_expectancy_bt,2022.2.4,MacIntel,60.0024001,Chrome,1440,900,,,,,0,603,,,,,,,,,,,,,,,,,174,D,circle,-1,0,,,,,,,,,,,,,,,,switch,no_choice,NA,,,noRew,,,,,,0,26,0,26,0,1,,,,,,,,,,,,,,,,,
297943,2022-11-14_16h39.54.780,vts_reward_expectancy_bt,2022.2.4,MacIntel,60.0024001,Chrome,1440,900,,,,,0,603,,,,,,,,,,,,,,,,,132,H,triangle,1,0,,,,,,,,,,,,,,,,switch,letter,lettSwt,j,2.3575,noRew,,,,,,0,27,0,27,0,1,,,,,,,,,,,,,,,,,
297943,2022-11-14_16h39.54.780,vts_reward_expectancy_bt,2022.2.4,MacIntel,60.0024001,Chrome,1440,900,,,,,0,603,,,,,,,,,,,,,,,,,167,Y,circle,1,0,,,,,,,,,,,,,,,,repeat,letter,lettRpt,k,0.811,noRew,,,,,,0,28,0,28,0,1,,,,,,,,,,,,,,,,,
297943,2022-11-14_16h39.54.780,vts_reward_expectancy_bt,2022.2.4,MacIntel,60.0024001,Chrome,1440,900,,,,,0,603,,,,,,,,,,,,,,,,,174,U,hexagon,1,0,,,,,,,,,,,,,,,,switch,number,numSwt,f,2.1789,noRew,,,,,,0,29,0,29,0,1,,,,,,,,,,,,,,,,,
297943,2022-11-14_16h39.54.780,vts_reward_expectancy_bt,2022.2.4,MacIntel,60.0024001,Chrome,1440,900,,,,,0,603,,,,,,,,,,,,,,,,,125,S,star,1,0,,,,,,,,,,,,,,,,switch,letter,lettSwt,k,1.7105,noRew,,,,,,0,30,0,30,0,1,,,,,,,,,,,,,,,,,
297943,2022-11-14_16h39.54.780,vts_reward_expectancy_bt,2022.2.4,MacIntel,60.0024001,Chrome,1440,900,,,,,0,603,,,,,,,,,,,,,,,,,139,D,hexagon,1,0,,,,,,,,,,,,,,,,switch,number,numSwt,d,0.8168,noRew,,,,,,0,31,0,31,0,1,,,,,,,,,,,,,,,,,
297943,2022-11-14_16h39.54.780,vts_reward_expectancy_bt,2022.2.4,MacIntel,60.0024001,Chrome,1440,900,,,,,0,603,,,,,,,,,,,,,,,,,174,F,hexagon,1,0,,,,,,,,,,,,,,,,switch,letter,lettSwt,j,0.9326,noRew,,,,,,0,32,0,32,0,1,,,,,,,,,,,,,,,,,
297943,2022-11-14_16h39.54.780,vts_reward_expectancy_bt,2022.2.4,MacIntel,60.0024001,Chrome,1440,900,,,,,0,603,,,,,,,,,,,,,,,,,139,U,triangle,1,0,,,,,,,,,,,,,,,,switch,number,numSwt,d,1.1193,noRew,,,,,,0,33,0,33,0,1,,,,,,,,,,,,,,,,,
297943,2022-11-14_16h39.54.780,vts_reward_expectancy_bt,2022.2.4,MacIntel,60.0024001,Chrome,1440,900,,,,,0,603,,,,,,,,,,,,,,,,,167,W,star,1,0,,,,,,,,,,,,,,,,repeat,number,numRpt,f,0.4692,noRew,,,,,,0,34,0,34,0,1,,,,,,,,,,,,,,,,,
297943,2022-11-14_16h39.54.780,vts_reward_expectancy_bt,2022.2.4,MacIntel,60.0024001,Chrome,1440,900,,,,,0,603,,,,,,,,,,,,,,,,,132,S,circle,1,0,,,,,,,,,,,,,,,,switch,letter,lettSwt,k,0.6077,noRew,,,,,,0,35,0,35,0,1,,,,,,,,,,,,,,,,,
297943,2022-11-14_16h39.54.780,vts_reward_expectancy_bt,2022.2.4,MacIntel,60.0024001,Chrome,1440,900,,,,,0,603,,,,,,,,,,,,,,,,,139,W,triangle,1,0,,,,,,,,,,,,,,,,repeat,letter,lettRpt,k,0.5527,noRew,,,,,,0,36,0,36,0,1,,,,,,,,,,,,,,,,,
297943,2022-11-14_16h39.54.780,vts_reward_expectancy_bt,2022.2.4,MacIntel,60.0024001,Chrome,1440,900,,,,,0,603,,,,,,,,,,,,,,,,,125,S,star,1,0,,,,,,,,,,,,,,,,repeat,letter,lettRpt,k,0.5233,noRew,,,,,,0,37,0,37,0,1,,,,,,,,,,,,,,,,,
297943,2022-11-14_16h39.54.780,vts_reward_expectancy_bt,2022.2.4,MacIntel,60.0024001,Chrome,1440,900,,,,,0,603,,,,,,,,,,,,,,,,,181,U,triangle,1,0,,,,,,,,,,,,,,,,switch,number,numSwt,f,1.1346,noRew,,,,,,0,38,0,38,0,1,,,,,,,,,,,,,,,,,
297943,2022-11-14_16h39.54.780,vts_reward_expectancy_bt,2022.2.4,MacIntel,60.0024001,Chrome,1440,900,,,,,0,603,,,,,,,,,,,,,,,,,160,D,circle,1,0,,,,,,,,,,,,,,,,repeat,number,numRpt,f,1.123,noRew,,,,,,0,39,0,39,0,1,,,,,,,,,,,,,,,,,
297943,2022-11-14_16h39.54.780,vts_reward_expectancy_bt,2022.2.4,MacIntel,60.0024001,Chrome,1440,900,,,,,0,603,,,,,,,,,,,,,,,,,146,S,star,1,0,,,,,,,,,,,,,,,,repeat,number,numRpt,d,0.8792,noRew,,,,,,0,40,0,40,0,1,,,,,,,,,,,,,,,,,
297943,2022-11-14_16h39.54.780,vts_reward_expectancy_bt,2022.2.4,MacIntel,60.0024001,Chrome,1440,900,,,,,0,603,,,,,,,,,,,,,,,,,139,W,hexagon,1,0,,,,,,,,,,,,,,,,repeat,number,numRpt,d,0.7863,noRew,,,,,,0,41,0,41,0,1,,,,,,,,,,,,,,,,,
297943,2022-11-14_16h39.54.780,vts_reward_expectancy_bt,2022.2.4,MacIntel,60.0024001,Chrome,1440,900,,,,,0,603,,,,,,,,,,,,,,,,,132,B,circle,1,0,,,,,,,,,,,,,,,,switch,letter,lettSwt,j,1.7503,noRew,,,,,,0,42,0,42,0,1,,,,,,,,,,,,,,,,,
297943,2022-11-14_16h39.54.780,vts_reward_expectancy_bt,2022.2.4,MacIntel,60.0024001,Chrome,1440,900,,,,,0,603,,,,,,,,,,,,,,,,,125,D,hexagon,1,0,,,,,,,,,,,,,,,,repeat,letter,lettRpt,j,0.6024,noRew,,,,,,0,43,0,43,0,1,,,,,,,,,,,,,,,,,
297943,2022-11-14_16h39.54.780,vts_reward_expectancy_bt,2022.2.4,MacIntel,60.0024001,Chrome,1440,900,,,,,0,603,,,,,,,,,,,,,,,,,125,W,star,1,0,,,,,,,,,,,,,,,,repeat,letter,lettRpt,k,0.7851,noRew,,,,,,0,44,0,44,0,1,,,,,,,,,,,,,,,,,
297943,2022-11-14_16h39.54.780,vts_reward_expectancy_bt,2022.2.4,MacIntel,60.0024001,Chrome,1440,900,,,,,0,603,,,,,,,,,,,,,,,,,160,B,hexagon,1,0,,,,,,,,,,,,,,,,switch,number,numSwt,f,1.284,noRew,,,,,,0,45,0,45,0,1,,,,,,,,,,,,,,,,,
297943,2022-11-14_16h39.54.780,vts_reward_expectancy_bt,2022.2.4,MacIntel,60.0024001,Chrome,1440,900,,,,,0,603,,,,,,,,,,,,,,,,,181,D,circle,1,0,,,,,,,,,,,,,,,,repeat,number,numRpt,f,0.4873,noRew,,,,,,0,46,0,46,0,1,,,,,,,,,,,,,,,,,
297943,2022-11-14_16h39.54.780,vts_reward_expectancy_bt,2022.2.4,MacIntel,60.0024001,Chrome,1440,900,,,,,0,603,,,,,,,,,,,,,,,,,132,H,hexagon,1,0,,,,,,,,,,,,,,,,repeat,number,numRpt,d,0.5073,noRew,,,,,,0,47,0,47,0,1,,,,,,,,,,,,,,,,,
297943,2022-11-14_16h39.54.780,vts_reward_expectancy_bt,2022.2.4,MacIntel,60.0024001,Chrome,1440,900,,,,,0,603,,,,,,,,,,,,,,,,,132,Y,hexagon,1,0,,,,,,,,,,,,,,,,repeat,number,numRpt,d,0.5003,noRew,,,,,,0,48,0,48,0,1,,,,,,,,,,,,,,,,,
297943,2022-11-14_16h39.54.780,vts_reward_expectancy_bt,2022.2.4,MacIntel,60.0024001,Chrome,1440,900,,,,,0,603,,,,,,,,,,,,,,,,,160,D,circle,1,0,,,,,,,,,,,,,,,,switch,letter,lettSwt,j,0.7205,noRew,,,,,,0,49,0,49,0,1,,,,,,,,,,,,,,,,,
297943,2022-11-14_16h39.54.780,vts_reward_expectancy_bt,2022.2.4,MacIntel,60.0024001,Chrome,1440,900,,,,,0,603,,,,,,,,,,,,,,,,,167,H,circle,1,0,,,,,,,,,,,,,,,,switch,number,numSwt,f,1.1609,noRew,,,,,,0,50,0,50,0,1,,,,,,,,,,,,,,,,,
297943,2022-11-14_16h39.54.780,vts_reward_expectancy_bt,2022.2.4,MacIntel,60.0024001,Chrome,1440,900,,,,,0,603,,,,,,,,,,,,,,,,,174,S,star,1,0,,,,,,,,,,,,,,,,switch,letter,lettSwt,k,0.5384,noRew,,,,,,0,51,0,51,0,1,,,,,,,,,,,,,,,,,
297943,2022-11-14_16h39.54.780,vts_reward_expectancy_bt,2022.2.4,MacIntel,60.0024001,Chrome,1440,900,,,,,0,603,,,,,,,,,,,,,,,,,132,H,triangle,1,0,,,,,,,,,,,,,,,,repeat,letter,lettRpt,j,0.6676,noRew,,,,,,0,52,0,52,0,1,,,,,,,,,,,,,,,,,
297943,2022-11-14_16h39.54.780,vts_reward_expectancy_bt,2022.2.4,MacIntel,60.0024001,Chrome,1440,900,,,,,0,603,,,,,,,,,,,,,,,,,167,D,star,1,0,,,,,,,,,,,,,,,,switch,number,numSwt,f,1.0849,noRew,,,,,,0,53,0,53,0,1,,,,,,,,,,,,,,,,,
297943,2022-11-14_16h39.54.780,vts_reward_expectancy_bt,2022.2.4,MacIntel,60.0024001,Chrome,1440,900,,,,,0,603,,,,,,,,,,,,,,,,,125,Y,star,1,0,,,,,,,,,,,,,,,,switch,letter,lettSwt,k,0.6001,noRew,,,,,,0,54,0,54,0,1,,,,,,,,,,,,,,,,,
297943,2022-11-14_16h39.54.780,vts_reward_expectancy_bt,2022.2.4,MacIntel,60.0024001,Chrome,1440,900,,,,,0,603,,,,,,,,,,,,,,,,,181,F,triangle,1,0,,,,,,,,,,,,,,,,switch,number,numSwt,f,0.752,noRew,,,,,,0,55,0,55,0,1,,,,,,,,,,,,,,,,,
297943,2022-11-14_16h39.54.780,vts_reward_expectancy_bt,2022.2.4,MacIntel,60.0024001,Chrome,1440,900,,,,,0,603,,,,,,,,,,,,,,,,,132,F,hexagon,1,0,,,,,,,,,,,,,,,,switch,letter,lettSwt,j,0.571,noRew,,,,,,0,56,0,56,0,1,,,,,,,,,,,,,,,,,
297943,2022-11-14_16h39.54.780,vts_reward_expectancy_bt,2022.2.4,MacIntel,60.0024001,Chrome,1440,900,,,,,0,603,,,,,,,,,,,,,,,,,181,D,star,1,0,,,,,,,,,,,,,,,,repeat,letter,lettRpt,j,1.1169,noRew,,,,,,0,57,0,57,0,1,,,,,,,,,,,,,,,,,
297943,2022-11-14_16h39.54.780,vts_reward_expectancy_bt,2022.2.4,MacIntel,60.0024001,Chrome,1440,900,,,,,0,603,,,,,,,,,,,,,,,,,139,S,star,1,0,,,,,,,,,,,,,,,,switch,number,numSwt,d,1.0504,noRew,,,,,,0,58,0,58,0,1,,,,,,,,,,,,,,,,,
297943,2022-11-14_16h39.54.780,vts_reward_expectancy_bt,2022.2.4,MacIntel,60.0024001,Chrome,1440,900,,,,,0,603,,,,,,,,,,,,,,,,,167,B,circle,1,0,,,,,,,,,,,,,,,,repeat,number,numRpt,f,1.3675,noRew,,,,,,0,59,0,59,0,1,,,,,,,,,,,,,,,,,
297943,2022-11-14_16h39.54.780,vts_reward_expectancy_bt,2022.2.4,MacIntel,60.0024001,Chrome,1440,900,,,,,0,603,,,,,,,,,,,,,,,,,160,U,star,1,0,,,,,,,,,,,,,,,,repeat,number,numRpt,f,1.0977,noRew,,,,,,0,60,0,60,0,1,,,,,,,,,,,,,,,,,
297943,2022-11-14_16h39.54.780,vts_reward_expectancy_bt,2022.2.4,MacIntel,60.0024001,Chrome,1440,900,,,,,0,603,,,,,,,,,,,,,,,,,174,D,circle,1,0,,,,,,,,,,,,,,,,repeat,number,numRpt,f,0.8935,noRew,,,,,,0,61,0,61,0,1,,,,,,,,,,,,,,,,,
297943,2022-11-14_16h39.54.780,vts_reward_expectancy_bt,2022.2.4,MacIntel,60.0024001,Chrome,1440,900,,,,,0,603,,,,,,,,,,,,,,,,,139,W,star,1,0,,,,,,,,,,,,,,,,repeat,number,numRpt,d,0.87,noRew,,,,,,0,62,0,62,0,1,,,,,,,,,,,,,,,,,
297943,2022-11-14_16h39.54.780,vts_reward_expectancy_bt,2022.2.4,MacIntel,60.0024001,Chrome,1440,900,,,,,0,603,,,,,,,,,,,,,,,,,146,Y,hexagon,1,0,,,,,,,,,,,,,,,,switch,letter,lettSwt,k,0.5341,noRew,,,,,,0,63,0,63,0,1,,,,,,,,,,,,,,,,,
297943,2022-11-14_16h39.54.780,vts_reward_expectancy_bt,2022.2.4,MacIntel,60.0024001,Chrome,1440,900,,,,,,,,,,,,,,,,,,,,,,,,,,,,,,,,,,,,,,,,,,,,,,,,,,,,,,,,,,,,,,,,,,,,,,,,,,,,
297943,2022-11-14_16h39.54.780,vts_reward_expectancy_bt,2022.2.4,MacIntel,60.0024001,Chrome,1440,900,,,,,1,604,,,,,,,,,,,,,,,,,125,B,circle,1,0,,,,,,,,,,,,,,,,repeat,letter,lettRpt,j,2.9354,Lo,,,,,,0,,,,,,space,13.8154,high,0,0,0,0,1,,,,,,,,,
297943,2022-11-14_16h39.54.780,vts_reward_expectancy_bt,2022.2.4,MacIntel,60.0024001,Chrome,1440,900,,,,,0,604,,,,,,,,,,,,,,,,,139,W,star,0,0,,,,,,,,,,,,,,,,switch,number,NA,f,1.7113,Lo,,,,,,0,,,,,,,,high,1,0,1,0,1,,,,,,,,,
297943,2022-11-14_16h39.54.780,vts_reward_expectancy_bt,2022.2.4,MacIntel,60.0024001,Chrome,1440,900,,,,,0,604,,,,,,,,,,,,,,,,,174,D,triangle,0,1,,,,,,,,,,,,,,,,switch,letter,NA,k,1.8817,Lo,,,,,,0,,,,,,,,high,2,0,2,0,1,,,,,,,,,
297943,2022-11-14_16h39.54.780,vts_reward_expectancy_bt,2022.2.4,MacIntel,60.0024001,Chrome,1440,900,,,,,1,605,,,,,,,,,,,,,,,,,132,Y,hexagon,1,1,,,,,,,,,,,,,,,,switch,number,numSwt,d,0.9016,Lo,,,,,,0,,,,,,,,high,3,0,3,0,1,,,,,,,,,
297943,2022-11-14_16h39.54.780,vts_reward_expectancy_bt,2022.2.4,MacIntel,60.0024001,Chrome,1440,900,,,,,1,606,,,,,,,,,,,,,,,,,181,S,circle,1,0,,,,,,,,,,,,,,,,repeat,number,numRpt,f,0.5166,Lo,,,,,,0,,,,,,,,high,4,0,4,0,1,,,,,,,,,
297943,2022-11-14_16h39.54.780,vts_reward_expectancy_bt,2022.2.4,MacIntel,60.0024001,Chrome,1440,900,,,,,0,606,,,,,,,,,,,,,,,,,160,U,star,1,0,,,,,,,,,,,,,,,,switch,letter,lettSwt,k,0.8379,Hi,,,,,,0,,,,,,,,high,5,0,5,0,1,,,,,,,,,
297943,2022-11-14_16h39.54.780,vts_reward_expectancy_bt,2022.2.4,MacIntel,60.0024001,Chrome,1440,900,,,,,10,616,,,,,,,,,,,,,,,,,167,F,triangle,1,0,,,,,,,,,,,,,,,,repeat,letter,lettRpt,j,0.5456,Hi,,,,,,0,,,,,,,,high,6,0,6,0,1,,,,,,,,,
297943,2022-11-14_16h39.54.780,vts_reward_expectancy_bt,2022.2.4,MacIntel,60.0024001,Chrome,1440,900,,,,,1,617,,,,,,,,,,,,,,,,,146,H,hexagon,1,0,,,,,,,,,,,,,,,,repeat,letter,lettRpt,j,0.5692,Lo,,,,,,0,,,,,,,,high,7,0,7,0,1,,,,,,,,,
297943,2022-11-14_16h39.54.780,vts_reward_expectancy_bt,2022.2.4,MacIntel,60.0024001,Chrome,1440,900,,,,,1,618,,,,,,,,,,,,,,,,,125,B,star,1,0,,,,,,,,,,,,,,,,switch,number,numSwt,d,0.7017,Hi,,,,,,0,,,,,,,,high,8,0,8,0,1,,,,,,,,,
297943,2022-11-14_16h39.54.780,vts_reward_expectancy_bt,2022.2.4,MacIntel,60.0024001,Chrome,1440,900,,,,,10,628,,,,,,,,,,,,,,,,,139,W,circle,1,0,,,,,,,,,,,,,,,,repeat,number,numRpt,d,0.6117,Lo,,,,,,0,,,,,,,,high,9,0,9,0,1,,,,,,,,,
297943,2022-11-14_16h39.54.780,vts_reward_expectancy_bt,2022.2.4,MacIntel,60.0024001,Chrome,1440,900,,,,,0,628,,,,,,,,,,,,,,,,,174,D,hexagon,0,0,,,,,,,,,,,,,,,,repeat,number,NA,d,0.4167,Lo,,,,,,0,,,,,,,,high,10,0,10,0,1,,,,,,,,,
297943,2022-11-14_16h39.54.780,vts_reward_expectancy_bt,2022.2.4,MacIntel,60.0024001,Chrome,1440,900,,,,,10,638,,,,,,,,,,,,,,,,,132,Y,triangle,1,1,,,,,,,,,,,,,,,,switch,letter,lettSwt,k,0.4838,Hi,,,,,,0,,,,,,,,high,11,0,11,0,1,,,,,,,,,
297943,2022-11-14_16h39.54.780,vts_reward_expectancy_bt,2022.2.4,MacIntel,60.0024001,Chrome,1440,900,,,,,0,638,,,,,,,,,,,,,,,,,181,S,triangle,1,0,,,,,,,,,,,,,,,,repeat,letter,lettRpt,k,1.0024,Hi,,,,,,0,,,,,,,,high,12,0,12,0,1,,,,,,,,,
297943,2022-11-14_16h39.54.780,vts_reward_expectancy_bt,2022.2.4,MacIntel,60.0024001,Chrome,1440,900,,,,,10,648,,,,,,,,,,,,,,,,,160,U,circle,1,0,,,,,,,,,,,,,,,,switch,number,numSwt,f,0.9186,Lo,,,,,,0,,,,,,,,high,13,0,13,0,1,,,,,,,,,
297943,2022-11-14_16h39.54.780,vts_reward_expectancy_bt,2022.2.4,MacIntel,60.0024001,Chrome,1440,900,,,,,1,649,,,,,,,,,,,,,,,,,167,F,hexagon,1,0,,,,,,,,,,,,,,,,repeat,number,numRpt,f,0.5345,Lo,,,,,,0,,,,,,,,high,14,0,14,0,1,,,,,,,,,
297943,2022-11-14_16h39.54.780,vts_reward_expectancy_bt,2022.2.4,MacIntel,60.0024001,Chrome,1440,900,,,,,10,659,,,,,,,,,,,,,,,,,146,H,star,1,0,,,,,,,,,,,,,,,,switch,letter,lettSwt,j,0.4672,Hi,,,,,,0,,,,,,,,high,15,0,15,0,1,,,,,,,,,
297943,2022-11-14_16h39.54.780,vts_reward_expectancy_bt,2022.2.4,MacIntel,60.0024001,Chrome,1440,900,,,,,1,660,,,,,,,,,,,,,,,,,160,B,circle,1,0,,,,,,,,,,,,,,,,repeat,letter,lettRpt,j,0.5023,Lo,,,,,,0,,,,,,,,high,16,0,16,0,1,,,,,,,,,
297943,2022-11-14_16h39.54.780,vts_reward_expectancy_bt,2022.2.4,MacIntel,60.0024001,Chrome,1440,900,,,,,10,670,,,,,,,,,,,,,,,,,181,U,hexagon,1,0,,,,,,,,,,,,,,,,repeat,letter,lettRpt,k,0.4669,Lo,,,,,,0,,,,,,,,high,17,0,17,0,1,,,,,,,,,
297943,2022-11-14_16h39.54.780,vts_reward_expectancy_bt,2022.2.4,MacIntel,60.0024001,Chrome,1440,900,,,,,10,680,,,,,,,,,,,,,,,,,167,S,triangle,1,0,,,,,,,,,,,,,,,,repeat,letter,lettRpt,k,0.5526,Hi,,,,,,0,,,,,,,,high,18,0,18,0,1,,,,,,,,,
297943,2022-11-14_16h39.54.780,vts_reward_expectancy_bt,2022.2.4,MacIntel,60.0024001,Chrome,1440,900,,,,,10,690,,,,,,,,,,,,,,,,,174,Y,star,1,0,,,,,,,,,,,,,,,,repeat,letter,lettRpt,k,0.5152,Hi,,,,,,0,,,,,,,,high,19,0,19,0,1,,,,,,,,,
297943,2022-11-14_16h39.54.780,vts_reward_expectancy_bt,2022.2.4,MacIntel,60.0024001,Chrome,1440,900,,,,,1,691,,,,,,,,,,,,,,,,,125,D,hexagon,1,0,,,,,,,,,,,,,,,,repeat,letter,lettRpt,j,0.5799,Lo,,,,,,0,,,,,,,,high,20,0,20,0,1,,,,,,,,,
297943,2022-11-14_16h39.54.780,vts_reward_expectancy_bt,2022.2.4,MacIntel,60.0024001,Chrome,1440,900,,,,,1,692,,,,,,,,,,,,,,,,,139,H,circle,1,0,,,,,,,,,,,,,,,,switch,number,numSwt,d,0.7567,Lo,,,,,,0,,,,,,,,high,21,0,21,0,1,,,,,,,,,
297943,2022-11-14_16h39.54.780,vts_reward_expectancy_bt,2022.2.4,MacIntel,60.0024001,Chrome,1440,900,,,,,10,702,,,,,,,,,,,,,,,,,146,W,star,1,0,,,,,,,,,,,,,,,,repeat,number,numRpt,d,0.7833,Hi,,,,,,0,,,,,,,,high,22,0,22,0,1,,,,,,,,,
297943,2022-11-14_16h39.54.780,vts_reward_expectancy_bt,2022.2.4,MacIntel,60.0024001,Chrome,1440,900,,,,,10,712,,,,,,,,,,,,,,,,,132,F,triangle,1,0,,,,,,,,,,,,,,,,repeat,number,numRpt,d,0.517,Hi,,,,,,0,,,,,,,,high,23,0,23,0,1,,,,,,,,,
297943,2022-11-14_16h39.54.780,vts_reward_expectancy_bt,2022.2.4,MacIntel,60.0024001,Chrome,1440,900,,,,,0,712,,,,,,,,,,,,,,,,,167,Y,star,1,0,,,,,,,,,,,,,,,,switch,letter,lettSwt,k,0.6462,Hi,,,,,,0,,,,,,,,high,24,0,24,0,1,,,,,,,,,
297943,2022-11-14_16h39.54.780,vts_reward_expectancy_bt,2022.2.4,MacIntel,60.0024001,Chrome,1440,900,,,,,10,722,,,,,,,,,,,,,,,,,146,U,hexagon,1,0,,,,,,,,,,,,,,,,repeat,letter,lettRpt,k,0.5267,Lo,,,,,,0,,,,,,,,high,25,0,25,0,1,,,,,,,,,
297943,2022-11-14_16h39.54.780,vts_reward_expectancy_bt,2022.2.4,MacIntel,60.0024001,Chrome,1440,900,,,,,10,732,,,,,,,,,,,,,,,,,132,F,triangle,1,0,,,,,,,,,,,,,,,,switch,number,numSwt,d,0.3841,Hi,,,,,,0,,,,,,,,high,26,0,26,0,1,,,,,,,,,
297943,2022-11-14_16h39.54.780,vts_reward_expectancy_bt,2022.2.4,MacIntel,60.0024001,Chrome,1440,900,,,,,1,733,,,,,,,,,,,,,,,,,160,B,circle,1,0,,,,,,,,,,,,,,,,repeat,number,numRpt,f,0.7114,Lo,,,,,,0,,,,,,,,high,27,0,27,0,1,,,,,,,,,
297943,2022-11-14_16h39.54.780,vts_reward_expectancy_bt,2022.2.4,MacIntel,60.0024001,Chrome,1440,900,,,,,10,743,,,,,,,,,,,,,,,,,174,H,triangle,1,0,,,,,,,,,,,,,,,,repeat,number,numRpt,f,0.7482,Hi,,,,,,0,,,,,,,,high,28,0,28,0,1,,,,,,,,,
297943,2022-11-14_16h39.54.780,vts_reward_expectancy_bt,2022.2.4,MacIntel,60.0024001,Chrome,1440,900,,,,,1,744,,,,,,,,,,,,,,,,,125,D,circle,1,0,,,,,,,,,,,,,,,,switch,letter,lettSwt,j,0.6647,Lo,,,,,,0,,,,,,,,high,29,0,29,0,1,,,,,,,,,
297943,2022-11-14_16h39.54.780,vts_reward_expectancy_bt,2022.2.4,MacIntel,60.0024001,Chrome,1440,900,,,,,10,754,,,,,,,,,,,,,,,,,139,S,star,1,0,,,,,,,,,,,,,,,,repeat,letter,lettRpt,k,0.5439,Hi,,,,,,0,,,,,,,,high,30,0,30,0,1,,,,,,,,,
297943,2022-11-14_16h39.54.780,vts_reward_expectancy_bt,2022.2.4,MacIntel,60.0024001,Chrome,1440,900,,,,,1,755,,,,,,,,,,,,,,,,,181,W,hexagon,1,0,,,,,,,,,,,,,,,,switch,number,numSwt,f,0.4225,Lo,,,,,,0,,,,,,,,high,31,0,31,0,1,,,,,,,,,
297943,2022-11-14_16h39.54.780,vts_reward_expectancy_bt,2022.2.4,MacIntel,60.0024001,Chrome,1440,900,,,,,0,755,,,,,,,,,,,,,,,,,181,F,star,1,0,,,,,,,,,,,,,,,,repeat,number,numRpt,f,0.5831,Hi,,,,,,1,,,,,,space,2.4853,high,0,0,0,0,1,,,,,,,,,
297943,2022-11-14_16h39.54.780,vts_reward_expectancy_bt,2022.2.4,MacIntel,60.0024001,Chrome,1440,900,,,,,1,756,,,,,,,,,,,,,,,,,125,S,circle,1,0,,,,,,,,,,,,,,,,switch,letter,lettSwt,k,0.5382,Lo,,,,,,1,,,,,,,,high,1,0,1,0,1,,,,,,,,,
297943,2022-11-14_16h39.54.780,vts_reward_expectancy_bt,2022.2.4,MacIntel,60.0024001,Chrome,1440,900,,,,,0,756,,,,,,,,,,,,,,,,,146,D,triangle,1,0,,,,,,,,,,,,,,,,switch,number,numSwt,d,0.6373,Hi,,,,,,1,,,,,,,,high,2,0,2,0,1,,,,,,,,,
297943,2022-11-14_16h39.54.780,vts_reward_expectancy_bt,2022.2.4,MacIntel,60.0024001,Chrome,1440,900,,,,,1,757,,,,,,,,,,,,,,,,,139,W,hexagon,1,0,,,,,,,,,,,,,,,,repeat,number,numRpt,d,0.5348,Lo,,,,,,1,,,,,,,,high,3,0,3,0,1,,,,,,,,,
297943,2022-11-14_16h39.54.780,vts_reward_expectancy_bt,2022.2.4,MacIntel,60.0024001,Chrome,1440,900,,,,,1,758,,,,,,,,,,,,,,,,,167,Y,star,1,0,,,,,,,,,,,,,,,,switch,letter,lettSwt,k,0.4147,Hi,,,,,,1,,,,,,,,high,4,0,4,0,1,,,,,,,,,
297943,2022-11-14_16h39.54.780,vts_reward_expectancy_bt,2022.2.4,MacIntel,60.0024001,Chrome,1440,900,,,,,10,768,,,,,,,,,,,,,,,,,132,U,circle,1,0,,,,,,,,,,,,,,,,repeat,letter,lettRpt,k,0.5682,Lo,,,,,,1,,,,,,,,high,5,0,5,0,1,,,,,,,,,
297943,2022-11-14_16h39.54.780,vts_reward_expectancy_bt,2022.2.4,MacIntel,60.0024001,Chrome,1440,900,,,,,10,778,,,,,,,,,,,,,,,,,174,H,triangle,1,0,,,,,,,,,,,,,,,,switch,number,numSwt,f,0.4523,Hi,,,,,,1,,,,,,,,high,6,0,6,0,1,,,,,,,,,
297943,2022-11-14_16h39.54.780,vts_reward_expectancy_bt,2022.2.4,MacIntel,60.0024001,Chrome,1440,900,,,,,0,778,,,,,,,,,,,,,,,,,160,B,hexagon,0,0,,,,,,,,,,,,,,,,switch,letter,NA,k,0.6002,Hi,,,,,,1,,,,,,,,high,7,0,7,0,1,,,,,,,,,
297943,2022-11-14_16h39.54.780,vts_reward_expectancy_bt,2022.2.4,MacIntel,60.0024001,Chrome,1440,900,,,,,0,778,,,,,,,,,,,,,,,,,181,F,triangle,1,1,,,,,,,,,,,,,,,,switch,number,numSwt,f,0.8,Hi,,,,,,1,,,,,,,,high,8,0,8,0,1,,,,,,,,,
297943,2022-11-14_16h39.54.780,vts_reward_expectancy_bt,2022.2.4,MacIntel,60.0024001,Chrome,1440,900,,,,,0,778,,,,,,,,,,,,,,,,,125,S,star,1,0,,,,,,,,,,,,,,,,switch,letter,lettSwt,k,0.6349,Hi,,,,,,1,,,,,,,,high,9,0,9,0,1,,,,,,,,,
297943,2022-11-14_16h39.54.780,vts_reward_expectancy_bt,2022.2.4,MacIntel,60.0024001,Chrome,1440,900,,,,,0,778,,,,,,,,,,,,,,,,,146,D,hexagon,0,0,,,,,,,,,,,,,,,,switch,number,NA,f,0.5197,Hi,,,,,,1,,,,,,,,high,10,0,10,0,1,,,,,,,,,
297943,2022-11-14_16h39.54.780,vts_reward_expectancy_bt,2022.2.4,MacIntel,60.0024001,Chrome,1440,900,,,,,1,779,,,,,,,,,,,,,,,,,139,W,circle,1,1,,,,,,,,,,,,,,,,repeat,number,numRpt,d,0.5708,Lo,,,,,,1,,,,,,,,high,11,0,11,0,1,,,,,,,,,
297943,2022-11-14_16h39.54.780,vts_reward_expectancy_bt,2022.2.4,MacIntel,60.0024001,Chrome,1440,900,,,,,1,780,,,,,,,,,,,,,,,,,167,Y,hexagon,1,0,,,,,,,,,,,,,,,,repeat,number,numRpt,f,0.4981,Lo,,,,,,1,,,,,,,,high,12,0,12,0,1,,,,,,,,,
297943,2022-11-14_16h39.54.780,vts_reward_expectancy_bt,2022.2.4,MacIntel,60.0024001,Chrome,1440,900,,,,,1,781,,,,,,,,,,,,,,,,,132,U,triangle,1,0,,,,,,,,,,,,,,,,switch,letter,lettSwt,k,0.3863,Hi,,,,,,1,,,,,,,,high,13,0,13,0,1,,,,,,,,,
297943,2022-11-14_16h39.54.780,vts_reward_expectancy_bt,2022.2.4,MacIntel,60.0024001,Chrome,1440,900,,,,,0,781,,,,,,,,,,,,,,,,,174,H,star,1,0,,,,,,,,,,,,,,,,repeat,letter,lettRpt,j,0.5331,Hi,,,,,,1,,,,,,,,high,14,0,14,0,1,,,,,,,,,
297943,2022-11-14_16h39.54.780,vts_reward_expectancy_bt,2022.2.4,MacIntel,60.0024001,Chrome,1440,900,,,,,1,782,,,,,,,,,,,,,,,,,160,B,circle,1,0,,,,,,,,,,,,,,,,repeat,letter,lettRpt,j,0.4021,Lo,,,,,,1,,,,,,,,high,15,0,15,0,1,,,,,,,,,
297943,2022-11-14_16h39.54.780,vts_reward_expectancy_bt,2022.2.4,MacIntel,60.0024001,Chrome,1440,900,,,,,10,792,,,,,,,,,,,,,,,,,132,F,hexagon,1,0,,,,,,,,,,,,,,,,repeat,letter,lettRpt,j,0.42,Lo,,,,,,1,,,,,,,,high,16,0,16,0,1,,,,,,,,,
297943,2022-11-14_16h39.54.780,vts_reward_expectancy_bt,2022.2.4,MacIntel,60.0024001,Chrome,1440,900,,,,,10,802,,,,,,,,,,,,,,,,,167,U,star,1,0,,,,,,,,,,,,,,,,repeat,letter,lettRpt,k,0.487,Hi,,,,,,1,,,,,,,,high,17,0,17,0,1,,,,,,,,,
297943,2022-11-14_16h39.54.780,vts_reward_expectancy_bt,2022.2.4,MacIntel,60.0024001,Chrome,1440,900,,,,,1,803,,,,,,,,,,,,,,,,,125,W,circle,1,0,,,,,,,,,,,,,,,,switch,number,numSwt,d,0.5191,Lo,,,,,,1,,,,,,,,high,18,0,18,0,1,,,,,,,,,
297943,2022-11-14_16h39.54.780,vts_reward_expectancy_bt,2022.2.4,MacIntel,60.0024001,Chrome,1440,900,,,,,0,803,,,,,,,,,,,,,,,,,139,H,triangle,1,0,,,,,,,,,,,,,,,,repeat,number,numRpt,d,0.585,Hi,,,,,,1,,,,,,,,high,19,0,19,0,1,,,,,,,,,
297943,2022-11-14_16h39.54.780,vts_reward_expectancy_bt,2022.2.4,MacIntel,60.0024001,Chrome,1440,900,,,,,0,803,,,,,,,,,,,,,,,,,174,Y,star,1,0,,,,,,,,,,,,,,,,repeat,number,numRpt,f,0.5543,Hi,,,,,,1,,,,,,,,high,20,0,20,0,1,,,,,,,,,
297943,2022-11-14_16h39.54.780,vts_reward_expectancy_bt,2022.2.4,MacIntel,60.0024001,Chrome,1440,900,,,,,1,804,,,,,,,,,,,,,,,,,146,B,triangle,1,0,,,,,,,,,,,,,,,,repeat,number,numRpt,d,0.4191,Hi,,,,,,1,,,,,,,,high,21,0,21,0,1,,,,,,,,,
297943,2022-11-14_16h39.54.780,vts_reward_expectancy_bt,2022.2.4,MacIntel,60.0024001,Chrome,1440,900,,,,,1,805,,,,,,,,,,,,,,,,,160,S,hexagon,1,0,,,,,,,,,,,,,,,,switch,letter,lettSwt,k,0.4189,Lo,,,,,,1,,,,,,,,high,22,0,22,0,1,,,,,,,,,
297943,2022-11-14_16h39.54.780,vts_reward_expectancy_bt,2022.2.4,MacIntel,60.0024001,Chrome,1440,900,,,,,1,806,,,,,,,,,,,,,,,,,181,D,circle,1,0,,,,,,,,,,,,,,,,repeat,letter,lettRpt,j,0.4857,Lo,,,,,,1,,,,,,,,high,23,0,23,0,1,,,,,,,,,
297943,2022-11-14_16h39.54.780,vts_reward_expectancy_bt,2022.2.4,MacIntel,60.0024001,Chrome,1440,900,,,,,10,816,,,,,,,,,,,,,,,,,146,U,circle,1,0,,,,,,,,,,,,,,,,switch,number,numSwt,d,0.4014,Lo,,,,,,1,,,,,,,,high,24,0,24,0,1,,,,,,,,,
297943,2022-11-14_16h39.54.780,vts_reward_expectancy_bt,2022.2.4,MacIntel,60.0024001,Chrome,1440,900,,,,,1,817,,,,,,,,,,,,,,,,,160,W,hexagon,1,0,,,,,,,,,,,,,,,,repeat,number,numRpt,f,0.5528,Lo,,,,,,1,,,,,,,,high,25,0,25,0,1,,,,,,,,,
297943,2022-11-14_16h39.54.780,vts_reward_expectancy_bt,2022.2.4,MacIntel,60.0024001,Chrome,1440,900,,,,,0,817,,,,,,,,,,,,,,,,,181,S,star,1,0,,,,,,,,,,,,,,,,switch,letter,lettSwt,k,0.5683,Hi,,,,,,1,,,,,,,,high,26,0,26,0,1,,,,,,,,,
297943,2022-11-14_16h39.54.780,vts_reward_expectancy_bt,2022.2.4,MacIntel,60.0024001,Chrome,1440,900,,,,,10,827,,,,,,,,,,,,,,,,,139,B,triangle,1,0,,,,,,,,,,,,,,,,repeat,letter,lettRpt,j,0.4711,Hi,,,,,,1,,,,,,,,high,27,0,27,0,1,,,,,,,,,
297943,2022-11-14_16h39.54.780,vts_reward_expectancy_bt,2022.2.4,MacIntel,60.0024001,Chrome,1440,900,,,,,0,827,,,,,,,,,,,,,,,,,125,H,star,1,0,,,,,,,,,,,,,,,,repeat,letter,lettRpt,j,0.552,Hi,,,,,,1,,,,,,,,high,28,0,28,0,1,,,,,,,,,
297943,2022-11-14_16h39.54.780,vts_reward_expectancy_bt,2022.2.4,MacIntel,60.0024001,Chrome,1440,900,,,,,1,828,,,,,,,,,,,,,,,,,132,Y,circle,1,0,,,,,,,,,,,,,,,,switch,number,numSwt,d,0.4481,Lo,,,,,,1,,,,,,,,high,29,0,29,0,1,,,,,,,,,
297943,2022-11-14_16h39.54.780,vts_reward_expectancy_bt,2022.2.4,MacIntel,60.0024001,Chrome,1440,900,,,,,1,829,,,,,,,,,,,,,,,,,167,D,triangle,1,0,,,,,,,,,,,,,,,,repeat,number,numRpt,f,0.5173,Hi,,,,,,1,,,,,,,,high,30,0,30,0,1,,,,,,,,,
297943,2022-11-14_16h39.54.780,vts_reward_expectancy_bt,2022.2.4,MacIntel,60.0024001,Chrome,1440,900,,,,,1,830,,,,,,,,,,,,,,,,,174,F,hexagon,1,0,,,,,,,,,,,,,,,,switch,letter,lettSwt,j,0.5002,Lo,,,,,,1,,,,,,,,high,31,0,31,0,1,,,,,,,,,
297943,2022-11-14_16h39.54.780,vts_reward_expectancy_bt,2022.2.4,MacIntel,60.0024001,Chrome,1440,900,,,,,1,831,,,,,,,,,,,,,,,,,132,S,hexagon,1,0,,,,,,,,,,,,,,,,switch,number,numSwt,d,0.4351,Lo,,,,,,2,,,,,,space,0.5694,high,0,0,0,0,1,,,,,,,,,
297943,2022-11-14_16h39.54.780,vts_reward_expectancy_bt,2022.2.4,MacIntel,60.0024001,Chrome,1440,900,,,,,10,841,,,,,,,,,,,,,,,,,174,B,star,1,0,,,,,,,,,,,,,,,,repeat,number,numRpt,f,0.3516,Hi,,,,,,2,,,,,,,,high,1,0,1,0,1,,,,,,,,,
297943,2022-11-14_16h39.54.780,vts_reward_expectancy_bt,2022.2.4,MacIntel,60.0024001,Chrome,1440,900,,,,,1,842,,,,,,,,,,,,,,,,,146,U,circle,1,0,,,,,,,,,,,,,,,,switch,letter,lettSwt,k,0.4361,Lo,,,,,,2,,,,,,,,high,2,0,2,0,1,,,,,,,,,
297943,2022-11-14_16h39.54.780,vts_reward_expectancy_bt,2022.2.4,MacIntel,60.0024001,Chrome,1440,900,,,,,0,842,,,,,,,,,,,,,,,,,139,F,triangle,0,0,,,,,,,,,,,,,,,,repeat,letter,NA,k,0.366,Lo,,,,,,2,,,,,,,,high,3,0,3,0,1,,,,,,,,,
297943,2022-11-14_16h39.54.780,vts_reward_expectancy_bt,2022.2.4,MacIntel,60.0024001,Chrome,1440,900,,,,,1,843,,,,,,,,,,,,,,,,,181,W,hexagon,1,1,,,,,,,,,,,,,,,,repeat,letter,lettRpt,k,0.4525,Lo,,,,,,2,,,,,,,,high,4,0,4,0,1,,,,,,,,,
297943,2022-11-14_16h39.54.780,vts_reward_expectancy_bt,2022.2.4,MacIntel,60.0024001,Chrome,1440,900,,,,,0,843,,,,,,,,,,,,,,,,,167,D,star,1,0,,,,,,,,,,,,,,,,repeat,letter,lettRpt,j,0.6182,Hi,,,,,,2,,,,,,,,high,5,0,5,0,1,,,,,,,,,
297943,2022-11-14_16h39.54.780,vts_reward_expectancy_bt,2022.2.4,MacIntel,60.0024001,Chrome,1440,900,,,,,1,844,,,,,,,,,,,,,,,,,125,Y,circle,1,0,,,,,,,,,,,,,,,,switch,number,numSwt,d,0.7304,Lo,,,,,,2,,,,,,,,high,6,0,6,0,1,,,,,,,,,
297943,2022-11-14_16h39.54.780,vts_reward_expectancy_bt,2022.2.4,MacIntel,60.0024001,Chrome,1440,900,,,,,0,844,,,,,,,,,,,,,,,,,160,H,triangle,1,0,,,,,,,,,,,,,,,,repeat,number,numRpt,f,0.5473,Hi,,,,,,2,,,,,,,,high,7,0,7,0,1,,,,,,,,,
297943,2022-11-14_16h39.54.780,vts_reward_expectancy_bt,2022.2.4,MacIntel,60.0024001,Chrome,1440,900,,,,,0,844,,,,,,,,,,,,,,,,,132,S,triangle,1,0,,,,,,,,,,,,,,,,repeat,number,numRpt,d,0.5692,Hi,,,,,,2,,,,,,,,high,8,0,8,0,1,,,,,,,,,
297943,2022-11-14_16h39.54.780,vts_reward_expectancy_bt,2022.2.4,MacIntel,60.0024001,Chrome,1440,900,,,,,0,844,,,,,,,,,,,,,,,,,174,B,star,1,0,,,,,,,,,,,,,,,,switch,letter,lettSwt,j,0.5469,Hi,,,,,,2,,,,,,,,high,9,0,9,0,1,,,,,,,,,
297943,2022-11-14_16h39.54.780,vts_reward_expectancy_bt,2022.2.4,MacIntel,60.0024001,Chrome,1440,900,,,,,1,845,,,,,,,,,,,,,,,,,146,U,hexagon,1,0,,,,,,,,,,,,,,,,switch,number,numSwt,d,0.7044,Lo,,,,,,2,,,,,,,,high,10,0,10,0,1,,,,,,,,,
297943,2022-11-14_16h39.54.780,vts_reward_expectancy_bt,2022.2.4,MacIntel,60.0024001,Chrome,1440,900,,,,,10,855,,,,,,,,,,,,,,,,,139,F,circle,1,0,,,,,,,,,,,,,,,,repeat,number,numRpt,d,0.4836,Lo,,,,,,2,,,,,,,,high,11,0,11,0,1,,,,,,,,,
297943,2022-11-14_16h39.54.780,vts_reward_expectancy_bt,2022.2.4,MacIntel,60.0024001,Chrome,1440,900,,,,,1,856,,,,,,,,,,,,,,,,,181,W,circle,1,0,,,,,,,,,,,,,,,,switch,letter,lettSwt,k,0.5342,Lo,,,,,,2,,,,,,,,high,12,0,12,0,1,,,,,,,,,
297943,2022-11-14_16h39.54.780,vts_reward_expectancy_bt,2022.2.4,MacIntel,60.0024001,Chrome,1440,900,,,,,10,866,,,,,,,,,,,,,,,,,167,D,triangle,1,0,,,,,,,,,,,,,,,,repeat,letter,lettRpt,j,0.4693,Hi,,,,,,2,,,,,,,,high,13,0,13,0,1,,,,,,,,,
297943,2022-11-14_16h39.54.780,vts_reward_expectancy_bt,2022.2.4,MacIntel,60.0024001,Chrome,1440,900,,,,,1,867,,,,,,,,,,,,,,,,,125,Y,hexagon,1,0,,,,,,,,,,,,,,,,switch,number,numSwt,d,0.4506,Lo,,,,,,2,,,,,,,,high,14,0,14,0,1,,,,,,,,,
297943,2022-11-14_16h39.54.780,vts_reward_expectancy_bt,2022.2.4,MacIntel,60.0024001,Chrome,1440,900,,,,,0,867,,,,,,,,,,,,,,,,,160,H,star,1,0,,,,,,,,,,,,,,,,repeat,number,numRpt,f,0.6015,Hi,,,,,,2,,,,,,,,high,15,0,15,0,1,,,,,,,,,
297943,2022-11-14_16h39.54.780,vts_reward_expectancy_bt,2022.2.4,MacIntel,60.0024001,Chrome,1440,900,,,,,0,867,,,,,,,,,,,,,,,,,181,B,triangle,1,0,,,,,,,,,,,,,,,,switch,letter,lettSwt,j,0.5859,Hi,,,,,,2,,,,,,,,high,16,0,16,0,1,,,,,,,,,
297943,2022-11-14_16h39.54.780,vts_reward_expectancy_bt,2022.2.4,MacIntel,60.0024001,Chrome,1440,900,,,,,1,868,,,,,,,,,,,,,,,,,132,Y,hexagon,1,0,,,,,,,,,,,,,,,,repeat,letter,lettRpt,k,0.5869,Lo,,,,,,2,,,,,,,,high,17,0,17,0,1,,,,,,,,,
297943,2022-11-14_16h39.54.780,vts_reward_expectancy_bt,2022.2.4,MacIntel,60.0024001,Chrome,1440,900,,,,,1,869,,,,,,,,,,,,,,,,,167,F,circle,1,0,,,,,,,,,,,,,,,,switch,number,numSwt,f,0.6359,Lo,,,,,,2,,,,,,,,high,18,0,18,0,1,,,,,,,,,
297943,2022-11-14_16h39.54.780,vts_reward_expectancy_bt,2022.2.4,MacIntel,60.0024001,Chrome,1440,900,,,,,0,869,,,,,,,,,,,,,,,,,139,H,star,1,0,,,,,,,,,,,,,,,,repeat,number,numRpt,d,0.6354,Hi,,,,,,2,,,,,,,,high,19,0,19,0,1,,,,,,,,,
297943,2022-11-14_16h39.54.780,vts_reward_expectancy_bt,2022.2.4,MacIntel,60.0024001,Chrome,1440,900,,,,,1,870,,,,,,,,,,,,,,,,,160,W,hexagon,1,0,,,,,,,,,,,,,,,,switch,letter,lettSwt,k,0.5799,Lo,,,,,,2,,,,,,,,high,20,0,20,0,1,,,,,,,,,
297943,2022-11-14_16h39.54.780,vts_reward_expectancy_bt,2022.2.4,MacIntel,60.0024001,Chrome,1440,900,,,,,0,870,,,,,,,,,,,,,,,,,125,S,star,0,0,,,,,,,,,,,,,,,,switch,number,NA,f,0.5349,Lo,,,,,,2,,,,,,,,high,21,0,21,0,1,,,,,,,,,
297943,2022-11-14_16h39.54.780,vts_reward_expectancy_bt,2022.2.4,MacIntel,60.0024001,Chrome,1440,900,,,,,0,870,,,,,,,,,,,,,,,,,174,U,triangle,1,1,,,,,,,,,,,,,,,,repeat,number,numRpt,f,0.6195,Hi,,,,,,2,,,,,,,,high,22,0,22,0,1,,,,,,,,,
297943,2022-11-14_16h39.54.780,vts_reward_expectancy_bt,2022.2.4,MacIntel,60.0024001,Chrome,1440,900,,,,,10,880,,,,,,,,,,,,,,,,,146,D,circle,1,0,,,,,,,,,,,,,,,,repeat,number,numRpt,d,0.5852,Lo,,,,,,2,,,,,,,,high,23,0,23,0,1,,,,,,,,,
297943,2022-11-14_16h39.54.780,vts_reward_expectancy_bt,2022.2.4,MacIntel,60.0024001,Chrome,1440,900,,,,,1,881,,,,,,,,,,,,,,,,,132,B,star,1,0,,,,,,,,,,,,,,,,repeat,number,numRpt,d,0.3751,Hi,,,,,,2,,,,,,,,high,24,0,24,0,1,,,,,,,,,
297943,2022-11-14_16h39.54.780,vts_reward_expectancy_bt,2022.2.4,MacIntel,60.0024001,Chrome,1440,900,,,,,1,882,,,,,,,,,,,,,,,,,125,Y,hexagon,1,0,,,,,,,,,,,,,,,,switch,letter,lettSwt,k,0.6504,Lo,,,,,,2,,,,,,,,high,25,0,25,0,1,,,,,,,,,
297943,2022-11-14_16h39.54.780,vts_reward_expectancy_bt,2022.2.4,MacIntel,60.0024001,Chrome,1440,900,,,,,1,883,,,,,,,,,,,,,,,,,181,H,circle,1,0,,,,,,,,,,,,,,,,repeat,letter,lettRpt,j,0.4028,Lo,,,,,,2,,,,,,,,high,26,0,26,0,1,,,,,,,,,
297943,2022-11-14_16h39.54.780,vts_reward_expectancy_bt,2022.2.4,MacIntel,60.0024001,Chrome,1440,900,,,,,0,883,,,,,,,,,,,,,,,,,160,F,triangle,1,0,,,,,,,,,,,,,,,,switch,number,numSwt,f,0.6017,Hi,,,,,,2,,,,,,,,high,27,0,27,0,1,,,,,,,,,
297943,2022-11-14_16h39.54.780,vts_reward_expectancy_bt,2022.2.4,MacIntel,60.0024001,Chrome,1440,900,,,,,0,883,,,,,,,,,,,,,,,,,167,D,star,0,0,,,,,,,,,,,,,,,,repeat,number,NA,d,1.0689,Hi,,,,,,2,,,,,,,,high,28,0,28,0,1,,,,,,,,,
297943,2022-11-14_16h39.54.780,vts_reward_expectancy_bt,2022.2.4,MacIntel,60.0024001,Chrome,1440,900,,,,,0,883,,,,,,,,,,,,,,,,,174,U,triangle,0,1,,,,,,,,,,,,,,,,repeat,number,NA,d,0.8487,Hi,,,,,,2,,,,,,,,high,29,0,29,0,1,,,,,,,,,
297943,2022-11-14_16h39.54.780,vts_reward_expectancy_bt,2022.2.4,MacIntel,60.0024001,Chrome,1440,900,,,,,1,884,,,,,,,,,,,,,,,,,139,S,circle,1,1,,,,,,,,,,,,,,,,repeat,number,numRpt,d,0.6886,Lo,,,,,,2,,,,,,,,high,30,0,30,0,1,,,,,,,,,
297943,2022-11-14_16h39.54.780,vts_reward_expectancy_bt,2022.2.4,MacIntel,60.0024001,Chrome,1440,900,,,,,1,885,,,,,,,,,,,,,,,,,146,W,hexagon,1,0,,,,,,,,,,,,,,,,repeat,number,numRpt,d,0.5187,Lo,,,,,,2,,,,,,,,high,31,0,31,0,1,,,,,,,,,
297943,2022-11-14_16h39.54.780,vts_reward_expectancy_bt,2022.2.4,MacIntel,60.0024001,Chrome,1440,900,,,,,10,895,,,,,,,,,,,,,,,,,160,B,triangle,1,0,,,,,,,,,,,,,,,,repeat,number,numRpt,f,0.5188,Hi,,,,,,3,,,,,,space,0.4853,high,0,0,0,0,1,,,,,,,,,
297943,2022-11-14_16h39.54.780,vts_reward_expectancy_bt,2022.2.4,MacIntel,60.0024001,Chrome,1440,900,,,,,1,896,,,,,,,,,,,,,,,,,181,F,circle,1,0,,,,,,,,,,,,,,,,repeat,number,numRpt,f,0.5307,Lo,,,,,,3,,,,,,,,high,1,0,1,0,1,,,,,,,,,
297943,2022-11-14_16h39.54.780,vts_reward_expectancy_bt,2022.2.4,MacIntel,60.0024001,Chrome,1440,900,,,,,0,896,,,,,,,,,,,,,,,,,174,U,star,1,0,,,,,,,,,,,,,,,,switch,letter,lettSwt,k,0.5541,Hi,,,,,,3,,,,,,,,high,2,0,2,0,1,,,,,,,,,
297943,2022-11-14_16h39.54.780,vts_reward_expectancy_bt,2022.2.4,MacIntel,60.0024001,Chrome,1440,900,,,,,1,897,,,,,,,,,,,,,,,,,167,W,hexagon,1,0,,,,,,,,,,,,,,,,switch,number,numSwt,f,0.4686,Lo,,,,,,3,,,,,,,,high,3,0,3,0,1,,,,,,,,,
297943,2022-11-14_16h39.54.780,vts_reward_expectancy_bt,2022.2.4,MacIntel,60.0024001,Chrome,1440,900,,,,,0,897,,,,,,,,,,,,,,,,,125,S,triangle,0,0,,,,,,,,,,,,,,,,switch,letter,NA,j,0.3708,Lo,,,,,,3,,,,,,,,high,4,0,4,0,1,,,,,,,,,
297943,2022-11-14_16h39.54.780,vts_reward_expectancy_bt,2022.2.4,MacIntel,60.0024001,Chrome,1440,900,,,,,0,897,,,,,,,,,,,,,,,,,146,Y,circle,0,1,,,,,,,,,,,,,,,,switch,number,NA,f,0.5183,Lo,,,,,,3,,,,,,,,high,5,0,5,0,1,,,,,,,,,
297943,2022-11-14_16h39.54.780,vts_reward_expectancy_bt,2022.2.4,MacIntel,60.0024001,Chrome,1440,900,,,,,0,897,,,,,,,,,,,,,,,,,132,D,star,1,1,,,,,,,,,,,,,,,,repeat,number,numRpt,d,0.5511,Hi,,,,,,3,,,,,,,,high,6,0,6,0,1,,,,,,,,,
297943,2022-11-14_16h39.54.780,vts_reward_expectancy_bt,2022.2.4,MacIntel,60.0024001,Chrome,1440,900,,,,,1,898,,,,,,,,,,,,,,,,,139,H,hexagon,1,0,,,,,,,,,,,,,,,,repeat,number,numRpt,d,0.4518,Lo,,,,,,3,,,,,,,,high,7,0,7,0,1,,,,,,,,,
297943,2022-11-14_16h39.54.780,vts_reward_expectancy_bt,2022.2.4,MacIntel,60.0024001,Chrome,1440,900,,,,,0,898,,,,,,,,,,,,,,,,,160,B,star,1,0,,,,,,,,,,,,,,,,repeat,number,numRpt,f,0.5355,Hi,,,,,,3,,,,,,,,high,8,0,8,0,1,,,,,,,,,
297943,2022-11-14_16h39.54.780,vts_reward_expectancy_bt,2022.2.4,MacIntel,60.0024001,Chrome,1440,900,,,,,10,908,,,,,,,,,,,,,,,,,181,F,triangle,1,0,,,,,,,,,,,,,,,,repeat,number,numRpt,f,0.4189,Hi,,,,,,3,,,,,,,,high,9,0,9,0,1,,,,,,,,,
297943,2022-11-14_16h39.54.780,vts_reward_expectancy_bt,2022.2.4,MacIntel,60.0024001,Chrome,1440,900,,,,,1,909,,,,,,,,,,,,,,,,,174,U,circle,1,0,,,,,,,,,,,,,,,,repeat,number,numRpt,f,0.7359,Lo,,,,,,3,,,,,,,,high,10,0,10,0,1,,,,,,,,,
297943,2022-11-14_16h39.54.780,vts_reward_expectancy_bt,2022.2.4,MacIntel,60.0024001,Chrome,1440,900,,,,,1,910,,,,,,,,,,,,,,,,,167,W,hexagon,1,0,,,,,,,,,,,,,,,,switch,letter,lettSwt,k,0.4481,Lo,,,,,,3,,,,,,,,high,11,0,11,0,1,,,,,,,,,
297943,2022-11-14_16h39.54.780,vts_reward_expectancy_bt,2022.2.4,MacIntel,60.0024001,Chrome,1440,900,,,,,10,920,,,,,,,,,,,,,,,,,125,S,hexagon,1,0,,,,,,,,,,,,,,,,repeat,letter,lettRpt,k,0.4683,Lo,,,,,,3,,,,,,,,high,12,0,12,0,1,,,,,,,,,
297943,2022-11-14_16h39.54.780,vts_reward_expectancy_bt,2022.2.4,MacIntel,60.0024001,Chrome,1440,900,,,,,10,930,,,,,,,,,,,,,,,,,146,Y,circle,1,0,,,,,,,,,,,,,,,,switch,number,numSwt,d,0.6006,Lo,,,,,,3,,,,,,,,high,13,0,13,0,1,,,,,,,,,
297943,2022-11-14_16h39.54.780,vts_reward_expectancy_bt,2022.2.4,MacIntel,60.0024001,Chrome,1440,900,,,,,0,930,,,,,,,,,,,,,,,,,132,D,triangle,0,0,,,,,,,,,,,,,,,,switch,letter,NA,k,0.453,Lo,,,,,,3,,,,,,,,high,14,0,14,0,1,,,,,,,,,
297943,2022-11-14_16h39.54.780,vts_reward_expectancy_bt,2022.2.4,MacIntel,60.0024001,Chrome,1440,900,,,,,0,930,,,,,,,,,,,,,,,,,139,H,star,1,1,,,,,,,,,,,,,,,,switch,number,numSwt,d,0.9665,Hi,,,,,,3,,,,,,,,high,15,0,15,0,1,,,,,,,,,
297943,2022-11-14_16h39.54.780,vts_reward_expectancy_bt,2022.2.4,MacIntel,60.0024001,Chrome,1440,900,,,,,0,930,,,,,,,,,,,,,,,,,181,S,triangle,1,0,,,,,,,,,,,,,,,,switch,letter,lettSwt,k,0.7323,Hi,,,,,,3,,,,,,,,high,16,0,16,0,1,,,,,,,,,
297943,2022-11-14_16h39.54.780,vts_reward_expectancy_bt,2022.2.4,MacIntel,60.0024001,Chrome,1440,900,,,,,0,930,,,,,,,,,,,,,,,,,125,U,star,0,0,,,,,,,,,,,,,,,,repeat,letter,NA,j,0.4658,Hi,,,,,,3,,,,,,,,high,17,0,17,0,1,,,,,,,,,
297943,2022-11-14_16h39.54.780,vts_reward_expectancy_bt,2022.2.4,MacIntel,60.0024001,Chrome,1440,900,,,,,1,931,,,,,,,,,,,,,,,,,174,W,hexagon,1,1,,,,,,,,,,,,,,,,repeat,letter,lettRpt,k,0.5326,Lo,,,,,,3,,,,,,,,high,18,0,18,0,1,,,,,,,,,
297943,2022-11-14_16h39.54.780,vts_reward_expectancy_bt,2022.2.4,MacIntel,60.0024001,Chrome,1440,900,,,,,1,932,,,,,,,,,,,,,,,,,139,H,circle,1,0,,,,,,,,,,,,,,,,switch,number,numSwt,d,0.6653,Lo,,,,,,3,,,,,,,,high,19,0,19,0,1,,,,,,,,,
297943,2022-11-14_16h39.54.780,vts_reward_expectancy_bt,2022.2.4,MacIntel,60.0024001,Chrome,1440,900,,,,,1,933,,,,,,,,,,,,,,,,,146,B,hexagon,1,0,,,,,,,,,,,,,,,,repeat,number,numRpt,d,0.5712,Lo,,,,,,3,,,,,,,,high,20,0,20,0,1,,,,,,,,,
297943,2022-11-14_16h39.54.780,vts_reward_expectancy_bt,2022.2.4,MacIntel,60.0024001,Chrome,1440,900,,,,,1,934,,,,,,,,,,,,,,,,,167,Y,star,1,0,,,,,,,,,,,,,,,,switch,letter,lettSwt,k,0.4692,Hi,,,,,,3,,,,,,,,high,21,0,21,0,1,,,,,,,,,
297943,2022-11-14_16h39.54.780,vts_reward_expectancy_bt,2022.2.4,MacIntel,60.0024001,Chrome,1440,900,,,,,0,934,,,,,,,,,,,,,,,,,132,D,triangle,1,0,,,,,,,,,,,,,,,,repeat,letter,lettRpt,j,0.5484,Hi,,,,,,3,,,,,,,,high,22,0,22,0,1,,,,,,,,,
297943,2022-11-14_16h39.54.780,vts_reward_expectancy_bt,2022.2.4,MacIntel,60.0024001,Chrome,1440,900,,,,,1,935,,,,,,,,,,,,,,,,,160,F,circle,1,0,,,,,,,,,,,,,,,,repeat,letter,lettRpt,j,0.5137,Lo,,,,,,3,,,,,,,,high,23,0,23,0,1,,,,,,,,,
297943,2022-11-14_16h39.54.780,vts_reward_expectancy_bt,2022.2.4,MacIntel,60.0024001,Chrome,1440,900,,,,,0,935,,,,,,,,,,,,,,,,,146,Y,star,1,0,,,,,,,,,,,,,,,,repeat,letter,lettRpt,k,0.516,Hi,,,,,,3,,,,,,,,high,24,0,24,0,1,,,,,,,,,
297943,2022-11-14_16h39.54.780,vts_reward_expectancy_bt,2022.2.4,MacIntel,60.0024001,Chrome,1440,900,,,,,10,945,,,,,,,,,,,,,,,,,132,W,circle,1,0,,,,,,,,,,,,,,,,switch,number,numSwt,d,0.3689,Lo,,,,,,3,,,,,,,,high,25,0,25,0,1,,,,,,,,,
297943,2022-11-14_16h39.54.780,vts_reward_expectancy_bt,2022.2.4,MacIntel,60.0024001,Chrome,1440,900,,,,,1,946,,,,,,,,,,,,,,,,,139,B,hexagon,1,0,,,,,,,,,,,,,,,,repeat,number,numRpt,d,0.4643,Lo,,,,,,3,,,,,,,,high,26,0,26,0,1,,,,,,,,,
297943,2022-11-14_16h39.54.780,vts_reward_expectancy_bt,2022.2.4,MacIntel,60.0024001,Chrome,1440,900,,,,,0,946,,,,,,,,,,,,,,,,,181,D,triangle,1,0,,,,,,,,,,,,,,,,switch,letter,lettSwt,j,0.6018,Hi,,,,,,3,,,,,,,,high,27,0,27,0,1,,,,,,,,,
297943,2022-11-14_16h39.54.780,vts_reward_expectancy_bt,2022.2.4,MacIntel,60.0024001,Chrome,1440,900,,,,,1,947,,,,,,,,,,,,,,,,,167,F,circle,1,0,,,,,,,,,,,,,,,,repeat,letter,lettRpt,j,0.4298,Lo,,,,,,3,,,,,,,,high,28,0,28,0,1,,,,,,,,,
297943,2022-11-14_16h39.54.780,vts_reward_expectancy_bt,2022.2.4,MacIntel,60.0024001,Chrome,1440,900,,,,,0,947,,,,,,,,,,,,,,,,,160,H,triangle,1,0,,,,,,,,,,,,,,,,repeat,letter,lettRpt,j,0.5256,Hi,,,,,,3,,,,,,,,high,29,0,29,0,1,,,,,,,,,
297943,2022-11-14_16h39.54.780,vts_reward_expectancy_bt,2022.2.4,MacIntel,60.0024001,Chrome,1440,900,,,,,0,947,,,,,,,,,,,,,,,,,174,U,star,1,0,,,,,,,,,,,,,,,,switch,number,numSwt,f,0.7186,Hi,,,,,,3,,,,,,,,high,30,0,30,0,1,,,,,,,,,
297943,2022-11-14_16h39.54.780,vts_reward_expectancy_bt,2022.2.4,MacIntel,60.0024001,Chrome,1440,900,,,,,1,948,,,,,,,,,,,,,,,,,125,S,hexagon,1,0,,,,,,,,,,,,,,,,switch,letter,lettSwt,k,0.499,Lo,,,,,,3,,,,,,,,high,31,0,31,0,1,,,,,,,,,
297943,2022-11-14_16h39.54.780,vts_reward_expectancy_bt,2022.2.4,MacIntel,60.0024001,Chrome,1440,900,,,,,1,949,,,,,,,,,,,,,,,,,167,F,circle,1,0,,,,,,,,,,,,,,,,switch,number,numSwt,f,0.4487,Lo,,,,,,4,,,,,,space,0.2448,high,0,0,0,0,1,,,,,,,,,
297943,2022-11-14_16h39.54.780,vts_reward_expectancy_bt,2022.2.4,MacIntel,60.0024001,Chrome,1440,900,,,,,1,950,,,,,,,,,,,,,,,,,146,H,hexagon,1,0,,,,,,,,,,,,,,,,switch,letter,lettSwt,j,0.4346,Lo,,,,,,4,,,,,,,,high,1,0,1,0,1,,,,,,,,,
297943,2022-11-14_16h39.54.780,vts_reward_expectancy_bt,2022.2.4,MacIntel,60.0024001,Chrome,1440,900,,,,,10,960,,,,,,,,,,,,,,,,,139,B,triangle,1,0,,,,,,,,,,,,,,,,repeat,letter,lettRpt,j,0.4353,Hi,,,,,,4,,,,,,,,high,2,0,2,0,1,,,,,,,,,
297943,2022-11-14_16h39.54.780,vts_reward_expectancy_bt,2022.2.4,MacIntel,60.0024001,Chrome,1440,900,,,,,10,970,,,,,,,,,,,,,,,,,181,D,star,1,0,,,,,,,,,,,,,,,,switch,number,numSwt,f,0.4862,Hi,,,,,,4,,,,,,,,high,3,0,3,0,1,,,,,,,,,
297943,2022-11-14_16h39.54.780,vts_reward_expectancy_bt,2022.2.4,MacIntel,60.0024001,Chrome,1440,900,,,,,1,971,,,,,,,,,,,,,,,,,174,S,circle,1,0,,,,,,,,,,,,,,,,switch,letter,lettSwt,k,0.3856,Lo,,,,,,4,,,,,,,,high,4,0,4,0,1,,,,,,,,,
297943,2022-11-14_16h39.54.780,vts_reward_expectancy_bt,2022.2.4,MacIntel,60.0024001,Chrome,1440,900,,,,,1,972,,,,,,,,,,,,,,,,,160,Y,hexagon,1,0,,,,,,,,,,,,,,,,repeat,letter,lettRpt,k,0.3812,Lo,,,,,,4,,,,,,,,high,5,0,5,0,1,,,,,,,,,
297943,2022-11-14_16h39.54.780,vts_reward_expectancy_bt,2022.2.4,MacIntel,60.0024001,Chrome,1440,900,,,,,1,973,,,,,,,,,,,,,,,,,125,W,triangle,1,0,,,,,,,,,,,,,,,,repeat,letter,lettRpt,k,0.399,Hi,,,,,,4,,,,,,,,high,6,0,6,0,1,,,,,,,,,
297943,2022-11-14_16h39.54.780,vts_reward_expectancy_bt,2022.2.4,MacIntel,60.0024001,Chrome,1440,900,,,,,10,983,,,,,,,,,,,,,,,,,132,U,star,1,0,,,,,,,,,,,,,,,,switch,number,numSwt,d,0.5476,Hi,,,,,,4,,,,,,,,high,7,0,7,0,1,,,,,,,,,
297943,2022-11-14_16h39.54.780,vts_reward_expectancy_bt,2022.2.4,MacIntel,60.0024001,Chrome,1440,900,,,,,10,993,,,,,,,,,,,,,,,,,167,F,circle,1,0,,,,,,,,,,,,,,,,switch,letter,lettSwt,j,0.3718,Lo,,,,,,4,,,,,,,,high,8,0,8,0,1,,,,,,,,,
297943,2022-11-14_16h39.54.780,vts_reward_expectancy_bt,2022.2.4,MacIntel,60.0024001,Chrome,1440,900,,,,,0,993,,,,,,,,,,,,,,,,,146,H,triangle,1,0,,,,,,,,,,,,,,,,switch,number,numSwt,d,0.5713,Hi,,,,,,4,,,,,,,,high,9,0,9,0,1,,,,,,,,,
297943,2022-11-14_16h39.54.780,vts_reward_expectancy_bt,2022.2.4,MacIntel,60.0024001,Chrome,1440,900,,,,,1,994,,,,,,,,,,,,,,,,,139,B,hexagon,1,0,,,,,,,,,,,,,,,,repeat,number,numRpt,d,0.5511,Lo,,,,,,4,,,,,,,,high,10,0,10,0,1,,,,,,,,,
297943,2022-11-14_16h39.54.780,vts_reward_expectancy_bt,2022.2.4,MacIntel,60.0024001,Chrome,1440,900,,,,,0,994,,,,,,,,,,,,,,,,,181,D,star,1,0,,,,,,,,,,,,,,,,switch,letter,lettSwt,j,0.5019,Hi,,,,,,4,,,,,,,,high,11,0,11,0,1,,,,,,,,,
297943,2022-11-14_16h39.54.780,vts_reward_expectancy_bt,2022.2.4,MacIntel,60.0024001,Chrome,1440,900,,,,,10,1004,,,,,,,,,,,,,,,,,174,S,triangle,1,0,,,,,,,,,,,,,,,,switch,number,numSwt,f,0.4678,Hi,,,,,,4,,,,,,,,high,12,0,12,0,1,,,,,,,,,
297943,2022-11-14_16h39.54.780,vts_reward_expectancy_bt,2022.2.4,MacIntel,60.0024001,Chrome,1440,900,,,,,1,1005,,,,,,,,,,,,,,,,,160,Y,hexagon,1,0,,,,,,,,,,,,,,,,switch,letter,lettSwt,k,0.4675,Lo,,,,,,4,,,,,,,,high,13,0,13,0,1,,,,,,,,,
297943,2022-11-14_16h39.54.780,vts_reward_expectancy_bt,2022.2.4,MacIntel,60.0024001,Chrome,1440,900,,,,,1,1006,,,,,,,,,,,,,,,,,125,W,circle,1,0,,,,,,,,,,,,,,,,switch,number,numSwt,d,0.7524,Lo,,,,,,4,,,,,,,,high,14,0,14,0,1,,,,,,,,,
297943,2022-11-14_16h39.54.780,vts_reward_expectancy_bt,2022.2.4,MacIntel,60.0024001,Chrome,1440,900,,,,,0,1006,,,,,,,,,,,,,,,,,132,U,star,1,0,,,,,,,,,,,,,,,,repeat,number,numRpt,d,1.052,Hi,,,,,,4,,,,,,,,high,15,0,15,0,1,,,,,,,,,
297943,2022-11-14_16h39.54.780,vts_reward_expectancy_bt,2022.2.4,MacIntel,60.0024001,Chrome,1440,900,,,,,1,1007,,,,,,,,,,,,,,,,,167,B,circle,1,0,,,,,,,,,,,,,,,,switch,letter,lettSwt,j,0.6192,Lo,,,,,,4,,,,,,,,high,16,0,16,0,1,,,,,,,,,
297943,2022-11-14_16h39.54.780,vts_reward_expectancy_bt,2022.2.4,MacIntel,60.0024001,Chrome,1440,900,,,,,10,1017,,,,,,,,,,,,,,,,,125,D,star,1,0,,,,,,,,,,,,,,,,switch,number,numSwt,d,0.5009,Hi,,,,,,4,,,,,,,,high,17,0,17,0,1,,,,,,,,,
297943,2022-11-14_16h39.54.780,vts_reward_expectancy_bt,2022.2.4,MacIntel,60.0024001,Chrome,1440,900,,,,,10,1027,,,,,,,,,,,,,,,,,181,Y,triangle,1,0,,,,,,,,,,,,,,,,repeat,number,numRpt,f,0.3845,Hi,,,,,,4,,,,,,,,high,18,0,18,0,1,,,,,,,,,
297943,2022-11-14_16h39.54.780,vts_reward_expectancy_bt,2022.2.4,MacIntel,60.0024001,Chrome,1440,900,,,,,1,1028,,,,,,,,,,,,,,,,,139,H,hexagon,1,0,,,,,,,,,,,,,,,,repeat,number,numRpt,d,0.485,Lo,,,,,,4,,,,,,,,high,19,0,19,0,1,,,,,,,,,
297943,2022-11-14_16h39.54.780,vts_reward_expectancy_bt,2022.2.4,MacIntel,60.0024001,Chrome,1440,900,,,,,10,1038,,,,,,,,,,,,,,,,,146,U,hexagon,1,0,,,,,,,,,,,,,,,,switch,letter,lettSwt,k,0.6513,Lo,,,,,,4,,,,,,,,high,20,0,20,0,1,,,,,,,,,
297943,2022-11-14_16h39.54.780,vts_reward_expectancy_bt,2022.2.4,MacIntel,60.0024001,Chrome,1440,900,,,,,0,1038,,,,,,,,,,,,,,,,,160,F,star,1,0,,,,,,,,,,,,,,,,switch,number,numSwt,f,0.8689,Hi,,,,,,4,,,,,,,,high,21,0,21,0,1,,,,,,,,,
297943,2022-11-14_16h39.54.780,vts_reward_expectancy_bt,2022.2.4,MacIntel,60.0024001,Chrome,1440,900,,,,,1,1039,,,,,,,,,,,,,,,,,132,S,circle,1,0,,,,,,,,,,,,,,,,repeat,number,numRpt,d,0.4187,Lo,,,,,,4,,,,,,,,high,22,0,22,0,1,,,,,,,,,
297943,2022-11-14_16h39.54.780,vts_reward_expectancy_bt,2022.2.4,MacIntel,60.0024001,Chrome,1440,900,,,,,0,1039,,,,,,,,,,,,,,,,,174,W,triangle,1,0,,,,,,,,,,,,,,,,repeat,number,numRpt,f,0.7524,Hi,,,,,,4,,,,,,,,high,23,0,23,0,1,,,,,,,,,
297943,2022-11-14_16h39.54.780,vts_reward_expectancy_bt,2022.2.4,MacIntel,60.0024001,Chrome,1440,900,,,,,1,1040,,,,,,,,,,,,,,,,,160,D,circle,1,0,,,,,,,,,,,,,,,,repeat,number,numRpt,f,0.6694,Lo,,,,,,4,,,,,,,,high,24,0,24,0,1,,,,,,,,,
297943,2022-11-14_16h39.54.780,vts_reward_expectancy_bt,2022.2.4,MacIntel,60.0024001,Chrome,1440,900,,,,,1,1041,,,,,,,,,,,,,,,,,125,Y,triangle,1,0,,,,,,,,,,,,,,,,switch,letter,lettSwt,k,0.4532,Hi,,,,,,4,,,,,,,,high,25,0,25,0,1,,,,,,,,,
297943,2022-11-14_16h39.54.780,vts_reward_expectancy_bt,2022.2.4,MacIntel,60.0024001,Chrome,1440,900,,,,,10,1051,,,,,,,,,,,,,,,,,139,F,star,1,0,,,,,,,,,,,,,,,,repeat,letter,lettRpt,j,0.4033,Hi,,,,,,4,,,,,,,,high,26,0,26,0,1,,,,,,,,,
297943,2022-11-14_16h39.54.780,vts_reward_expectancy_bt,2022.2.4,MacIntel,60.0024001,Chrome,1440,900,,,,,1,1052,,,,,,,,,,,,,,,,,181,W,hexagon,1,0,,,,,,,,,,,,,,,,repeat,letter,lettRpt,k,0.5851,Lo,,,,,,4,,,,,,,,high,27,0,27,0,1,,,,,,,,,
297943,2022-11-14_16h39.54.780,vts_reward_expectancy_bt,2022.2.4,MacIntel,60.0024001,Chrome,1440,900,,,,,1,1053,,,,,,,,,,,,,,,,,132,U,hexagon,1,0,,,,,,,,,,,,,,,,switch,number,numSwt,d,0.553,Lo,,,,,,4,,,,,,,,high,28,0,28,0,1,,,,,,,,,
297943,2022-11-14_16h39.54.780,vts_reward_expectancy_bt,2022.2.4,MacIntel,60.0024001,Chrome,1440,900,,,,,1,1054,,,,,,,,,,,,,,,,,174,S,circle,1,0,,,,,,,,,,,,,,,,repeat,number,numRpt,f,0.5186,Lo,,,,,,4,,,,,,,,high,29,0,29,0,1,,,,,,,,,
297943,2022-11-14_16h39.54.780,vts_reward_expectancy_bt,2022.2.4,MacIntel,60.0024001,Chrome,1440,900,,,,,10,1064,,,,,,,,,,,,,,,,,167,B,star,1,0,,,,,,,,,,,,,,,,switch,letter,lettSwt,j,0.4863,Hi,,,,,,4,,,,,,,,high,30,0,30,0,1,,,,,,,,,
297943,2022-11-14_16h39.54.780,vts_reward_expectancy_bt,2022.2.4,MacIntel,60.0024001,Chrome,1440,900,,,,,10,1074,,,,,,,,,,,,,,,,,146,H,triangle,1,0,,,,,,,,,,,,,,,,repeat,letter,lettRpt,j,0.4857,Hi,,,,,,4,,,,,,,,high,31,0,31,0,1,,,,,,,,,
297943,2022-11-14_16h39.54.780,vts_reward_expectancy_bt,2022.2.4,MacIntel,60.0024001,Chrome,1440,900,,,,,0,1074,,,,,,,,,,,,,,,,,160,S,triangle,1,0,,,,,,,,,,,,,,,,switch,number,numSwt,f,0.6369,Hi,,,,,,5,,,,,,space,0.601,high,0,0,0,0,1,,,,,,,,,
297943,2022-11-14_16h39.54.780,vts_reward_expectancy_bt,2022.2.4,MacIntel,60.0024001,Chrome,1440,900,,,,,1,1075,,,,,,,,,,,,,,,,,167,U,hexagon,1,0,,,,,,,,,,,,,,,,repeat,number,numRpt,f,0.3884,Lo,,,,,,5,,,,,,,,high,1,0,1,0,1,,,,,,,,,
297943,2022-11-14_16h39.54.780,vts_reward_expectancy_bt,2022.2.4,MacIntel,60.0024001,Chrome,1440,900,,,,,1,1076,,,,,,,,,,,,,,,,,146,F,circle,1,0,,,,,,,,,,,,,,,,switch,letter,lettSwt,j,0.4526,Lo,,,,,,5,,,,,,,,high,2,0,2,0,1,,,,,,,,,
297943,2022-11-14_16h39.54.780,vts_reward_expectancy_bt,2022.2.4,MacIntel,60.0024001,Chrome,1440,900,,,,,0,1076,,,,,,,,,,,,,,,,,125,D,star,0,0,,,,,,,,,,,,,,,,repeat,letter,NA,k,0.3366,Lo,,,,,,5,,,,,,,,high,3,0,3,0,1,,,,,,,,,
297943,2022-11-14_16h39.54.780,vts_reward_expectancy_bt,2022.2.4,MacIntel,60.0024001,Chrome,1440,900,,,,,0,1076,,,,,,,,,,,,,,,,,132,W,triangle,1,1,,,,,,,,,,,,,,,,repeat,letter,lettRpt,k,0.492,Hi,,,,,,5,,,,,,,,high,4,0,4,0,1,,,,,,,,,
297943,2022-11-14_16h39.54.780,vts_reward_expectancy_bt,2022.2.4,MacIntel,60.0024001,Chrome,1440,900,,,,,1,1077,,,,,,,,,,,,,,,,,174,H,hexagon,1,0,,,,,,,,,,,,,,,,switch,number,numSwt,f,0.4721,Lo,,,,,,5,,,,,,,,high,5,0,5,0,1,,,,,,,,,
297943,2022-11-14_16h39.54.780,vts_reward_expectancy_bt,2022.2.4,MacIntel,60.0024001,Chrome,1440,900,,,,,10,1087,,,,,,,,,,,,,,,,,181,B,circle,1,0,,,,,,,,,,,,,,,,repeat,number,numRpt,f,0.3887,Lo,,,,,,5,,,,,,,,high,6,0,6,0,1,,,,,,,,,
297943,2022-11-14_16h39.54.780,vts_reward_expectancy_bt,2022.2.4,MacIntel,60.0024001,Chrome,1440,900,,,,,0,1087,,,,,,,,,,,,,,,,,139,Y,star,1,0,,,,,,,,,,,,,,,,repeat,number,numRpt,d,0.5027,Hi,,,,,,5,,,,,,,,high,7,0,7,0,1,,,,,,,,,
297943,2022-11-14_16h39.54.780,vts_reward_expectancy_bt,2022.2.4,MacIntel,60.0024001,Chrome,1440,900,,,,,1,1088,,,,,,,,,,,,,,,,,160,S,circle,1,0,,,,,,,,,,,,,,,,switch,letter,lettSwt,k,0.4819,Lo,,,,,,5,,,,,,,,high,8,0,8,0,1,,,,,,,,,
297943,2022-11-14_16h39.54.780,vts_reward_expectancy_bt,2022.2.4,MacIntel,60.0024001,Chrome,1440,900,,,,,0,1088,,,,,,,,,,,,,,,,,167,U,triangle,0,0,,,,,,,,,,,,,,,,repeat,letter,NA,j,0.3829,Lo,,,,,,5,,,,,,,,high,9,0,9,0,1,,,,,,,,,
297943,2022-11-14_16h39.54.780,vts_reward_expectancy_bt,2022.2.4,MacIntel,60.0024001,Chrome,1440,900,,,,,0,1088,,,,,,,,,,,,,,,,,146,F,star,1,1,,,,,,,,,,,,,,,,repeat,letter,lettRpt,j,0.5193,Hi,,,,,,5,,,,,,,,high,10,0,10,0,1,,,,,,,,,
297943,2022-11-14_16h39.54.780,vts_reward_expectancy_bt,2022.2.4,MacIntel,60.0024001,Chrome,1440,900,,,,,1,1089,,,,,,,,,,,,,,,,,125,D,hexagon,1,0,,,,,,,,,,,,,,,,switch,number,numSwt,d,0.4882,Lo,,,,,,5,,,,,,,,high,11,0,11,0,1,,,,,,,,,
297943,2022-11-14_16h39.54.780,vts_reward_expectancy_bt,2022.2.4,MacIntel,60.0024001,Chrome,1440,900,,,,,10,1099,,,,,,,,,,,,,,,,,132,W,circle,1,0,,,,,,,,,,,,,,,,repeat,number,numRpt,d,0.5688,Lo,,,,,,5,,,,,,,,high,12,0,12,0,1,,,,,,,,,
297943,2022-11-14_16h39.54.780,vts_reward_expectancy_bt,2022.2.4,MacIntel,60.0024001,Chrome,1440,900,,,,,0,1099,,,,,,,,,,,,,,,,,174,H,star,0,0,,,,,,,,,,,,,,,,repeat,number,NA,d,0.6201,Lo,,,,,,5,,,,,,,,high,13,0,13,0,1,,,,,,,,,
297943,2022-11-14_16h39.54.780,vts_reward_expectancy_bt,2022.2.4,MacIntel,60.0024001,Chrome,1440,900,,,,,1,1100,,,,,,,,,,,,,,,,,181,B,hexagon,1,1,,,,,,,,,,,,,,,,repeat,number,numRpt,f,0.7031,Lo,,,,,,5,,,,,,,,high,14,0,14,0,1,,,,,,,,,
297943,2022-11-14_16h39.54.780,vts_reward_expectancy_bt,2022.2.4,MacIntel,60.0024001,Chrome,1440,900,,,,,0,1100,,,,,,,,,,,,,,,,,139,Y,triangle,1,0,,,,,,,,,,,,,,,,switch,letter,lettSwt,k,0.452,Hi,,,,,,5,,,,,,,,high,15,0,15,0,1,,,,,,,,,
297943,2022-11-14_16h39.54.780,vts_reward_expectancy_bt,2022.2.4,MacIntel,60.0024001,Chrome,1440,900,,,,,1,1101,,,,,,,,,,,,,,,,,139,Y,hexagon,1,0,,,,,,,,,,,,,,,,repeat,letter,lettRpt,k,0.5171,Lo,,,,,,5,,,,,,,,high,16,0,16,0,1,,,,,,,,,
297943,2022-11-14_16h39.54.780,vts_reward_expectancy_bt,2022.2.4,MacIntel,60.0024001,Chrome,1440,900,,,,,0,1101,,,,,,,,,,,,,,,,,181,W,star,1,0,,,,,,,,,,,,,,,,repeat,letter,lettRpt,k,0.4358,Hi,,,,,,5,,,,,,,,high,17,0,17,0,1,,,,,,,,,
297943,2022-11-14_16h39.54.780,vts_reward_expectancy_bt,2022.2.4,MacIntel,60.0024001,Chrome,1440,900,,,,,0,1101,,,,,,,,,,,,,,,,,174,H,triangle,1,0,,,,,,,,,,,,,,,,repeat,letter,lettRpt,j,0.5983,Hi,,,,,,5,,,,,,,,high,18,0,18,0,1,,,,,,,,,
297943,2022-11-14_16h39.54.780,vts_reward_expectancy_bt,2022.2.4,MacIntel,60.0024001,Chrome,1440,900,,,,,1,1102,,,,,,,,,,,,,,,,,146,F,circle,1,0,,,,,,,,,,,,,,,,switch,number,numSwt,d,0.7179,Lo,,,,,,5,,,,,,,,high,19,0,19,0,1,,,,,,,,,
297943,2022-11-14_16h39.54.780,vts_reward_expectancy_bt,2022.2.4,MacIntel,60.0024001,Chrome,1440,900,,,,,10,1112,,,,,,,,,,,,,,,,,167,D,star,1,0,,,,,,,,,,,,,,,,switch,letter,lettSwt,j,0.4177,Hi,,,,,,5,,,,,,,,high,20,0,20,0,1,,,,,,,,,
297943,2022-11-14_16h39.54.780,vts_reward_expectancy_bt,2022.2.4,MacIntel,60.0024001,Chrome,1440,900,,,,,1,1113,,,,,,,,,,,,,,,,,160,U,circle,1,0,,,,,,,,,,,,,,,,repeat,letter,lettRpt,k,0.5537,Lo,,,,,,5,,,,,,,,high,21,0,21,0,1,,,,,,,,,
297943,2022-11-14_16h39.54.780,vts_reward_expectancy_bt,2022.2.4,MacIntel,60.0024001,Chrome,1440,900,,,,,1,1114,,,,,,,,,,,,,,,,,125,B,hexagon,1,0,,,,,,,,,,,,,,,,switch,number,numSwt,d,0.4857,Lo,,,,,,5,,,,,,,,high,22,0,22,0,1,,,,,,,,,
297943,2022-11-14_16h39.54.780,vts_reward_expectancy_bt,2022.2.4,MacIntel,60.0024001,Chrome,1440,900,,,,,0,1114,,,,,,,,,,,,,,,,,132,S,triangle,1,0,,,,,,,,,,,,,,,,switch,letter,lettSwt,k,0.4649,Hi,,,,,,5,,,,,,,,high,23,0,23,0,1,,,,,,,,,
297943,2022-11-14_16h39.54.780,vts_reward_expectancy_bt,2022.2.4,MacIntel,60.0024001,Chrome,1440,900,,,,,1,1115,,,,,,,,,,,,,,,,,160,S,hexagon,1,0,,,,,,,,,,,,,,,,repeat,letter,lettRpt,k,0.5157,Lo,,,,,,5,,,,,,,,high,24,0,24,0,1,,,,,,,,,
297943,2022-11-14_16h39.54.780,vts_reward_expectancy_bt,2022.2.4,MacIntel,60.0024001,Chrome,1440,900,,,,,0,1115,,,,,,,,,,,,,,,,,125,F,star,1,0,,,,,,,,,,,,,,,,switch,number,numSwt,d,0.7029,Hi,,,,,,5,,,,,,,,high,25,0,25,0,1,,,,,,,,,
297943,2022-11-14_16h39.54.780,vts_reward_expectancy_bt,2022.2.4,MacIntel,60.0024001,Chrome,1440,900,,,,,10,1125,,,,,,,,,,,,,,,,,132,W,triangle,1,0,,,,,,,,,,,,,,,,repeat,number,numRpt,d,0.4875,Hi,,,,,,5,,,,,,,,high,26,0,26,0,1,,,,,,,,,
297943,2022-11-14_16h39.54.780,vts_reward_expectancy_bt,2022.2.4,MacIntel,60.0024001,Chrome,1440,900,,,,,10,1135,,,,,,,,,,,,,,,,,167,D,circle,1,0,,,,,,,,,,,,,,,,repeat,number,numRpt,f,0.4526,Lo,,,,,,5,,,,,,,,high,27,0,27,0,1,,,,,,,,,
297943,2022-11-14_16h39.54.780,vts_reward_expectancy_bt,2022.2.4,MacIntel,60.0024001,Chrome,1440,900,,,,,0,1135,,,,,,,,,,,,,,,,,139,H,star,1,0,,,,,,,,,,,,,,,,switch,letter,lettSwt,j,0.5201,Hi,,,,,,5,,,,,,,,high,28,0,28,0,1,,,,,,,,,
297943,2022-11-14_16h39.54.780,vts_reward_expectancy_bt,2022.2.4,MacIntel,60.0024001,Chrome,1440,900,,,,,1,1136,,,,,,,,,,,,,,,,,146,B,hexagon,1,0,,,,,,,,,,,,,,,,repeat,letter,lettRpt,j,0.568,Lo,,,,,,5,,,,,,,,high,29,0,29,0,1,,,,,,,,,
297943,2022-11-14_16h39.54.780,vts_reward_expectancy_bt,2022.2.4,MacIntel,60.0024001,Chrome,1440,900,,,,,1,1137,,,,,,,,,,,,,,,,,181,U,circle,1,0,,,,,,,,,,,,,,,,repeat,letter,lettRpt,k,0.4836,Lo,,,,,,5,,,,,,,,high,30,0,30,0,1,,,,,,,,,
297943,2022-11-14_16h39.54.780,vts_reward_expectancy_bt,2022.2.4,MacIntel,60.0024001,Chrome,1440,900,,,,,0,1137,,,,,,,,,,,,,,,,,174,Y,triangle,0,0,,,,,,,,,,,,,,,,switch,number,NA,d,0.5687,Lo,,,,,,5,,,,,,,,high,31,0,31,0,1,,,,,,,,,
297943,2022-11-14_16h39.54.780,vts_reward_expectancy_bt,2022.2.4,MacIntel,60.0024001,Chrome,1440,900,,,,,0,1137,,,,,,,,,,,,,,,,,125,S,star,1,1,,,,,,,,,,,,,,,,repeat,number,numRpt,d,0.6361,Hi,,,,,,6,,,,,,space,0.3681,high,0,0,0,0,1,,,,,,,,,
297943,2022-11-14_16h39.54.780,vts_reward_expectancy_bt,2022.2.4,MacIntel,60.0024001,Chrome,1440,900,,,,,1,1138,,,,,,,,,,,,,,,,,160,D,hexagon,1,0,,,,,,,,,,,,,,,,repeat,number,numRpt,f,0.7046,Lo,,,,,,6,,,,,,,,high,1,0,1,0,1,,,,,,,,,
297943,2022-11-14_16h39.54.780,vts_reward_expectancy_bt,2022.2.4,MacIntel,60.0024001,Chrome,1440,900,,,,,1,1139,,,,,,,,,,,,,,,,,174,B,circle,1,0,,,,,,,,,,,,,,,,switch,letter,lettSwt,j,0.4696,Lo,,,,,,6,,,,,,,,high,2,0,2,0,1,,,,,,,,,
297943,2022-11-14_16h39.54.780,vts_reward_expectancy_bt,2022.2.4,MacIntel,60.0024001,Chrome,1440,900,,,,,10,1149,,,,,,,,,,,,,,,,,181,U,triangle,1,0,,,,,,,,,,,,,,,,repeat,letter,lettRpt,k,0.5025,Hi,,,,,,6,,,,,,,,high,3,0,3,0,1,,,,,,,,,
297943,2022-11-14_16h39.54.780,vts_reward_expectancy_bt,2022.2.4,MacIntel,60.0024001,Chrome,1440,900,,,,,0,1149,,,,,,,,,,,,,,,,,132,Y,star,1,0,,,,,,,,,,,,,,,,repeat,letter,lettRpt,k,0.5204,Hi,,,,,,6,,,,,,,,high,4,0,4,0,1,,,,,,,,,
297943,2022-11-14_16h39.54.780,vts_reward_expectancy_bt,2022.2.4,MacIntel,60.0024001,Chrome,1440,900,,,,,1,1150,,,,,,,,,,,,,,,,,139,F,hexagon,1,0,,,,,,,,,,,,,,,,repeat,letter,lettRpt,j,0.5687,Lo,,,,,,6,,,,,,,,high,5,0,5,0,1,,,,,,,,,
297943,2022-11-14_16h39.54.780,vts_reward_expectancy_bt,2022.2.4,MacIntel,60.0024001,Chrome,1440,900,,,,,1,1151,,,,,,,,,,,,,,,,,167,W,circle,1,0,,,,,,,,,,,,,,,,switch,number,numSwt,f,0.4526,Lo,,,,,,6,,,,,,,,high,6,0,6,0,1,,,,,,,,,
297943,2022-11-14_16h39.54.780,vts_reward_expectancy_bt,2022.2.4,MacIntel,60.0024001,Chrome,1440,900,,,,,0,1151,,,,,,,,,,,,,,,,,146,H,triangle,1,0,,,,,,,,,,,,,,,,repeat,number,numRpt,d,0.4688,Hi,,,,,,6,,,,,,,,high,7,0,7,0,1,,,,,,,,,
297943,2022-11-14_16h39.54.780,vts_reward_expectancy_bt,2022.2.4,MacIntel,60.0024001,Chrome,1440,900,,,,,10,1161,,,,,,,,,,,,,,,,,125,S,hexagon,1,0,,,,,,,,,,,,,,,,repeat,number,numRpt,d,0.4855,Lo,,,,,,6,,,,,,,,high,8,0,8,0,1,,,,,,,,,
297943,2022-11-14_16h39.54.780,vts_reward_expectancy_bt,2022.2.4,MacIntel,60.0024001,Chrome,1440,900,,,,,1,1162,,,,,,,,,,,,,,,,,160,D,circle,1,0,,,,,,,,,,,,,,,,repeat,number,numRpt,f,0.5365,Lo,,,,,,6,,,,,,,,high,9,0,9,0,1,,,,,,,,,
297943,2022-11-14_16h39.54.780,vts_reward_expectancy_bt,2022.2.4,MacIntel,60.0024001,Chrome,1440,900,,,,,0,1162,,,,,,,,,,,,,,,,,174,B,star,1,0,,,,,,,,,,,,,,,,switch,letter,lettSwt,j,0.4862,Hi,,,,,,6,,,,,,,,high,10,0,10,0,1,,,,,,,,,
297943,2022-11-14_16h39.54.780,vts_reward_expectancy_bt,2022.2.4,MacIntel,60.0024001,Chrome,1440,900,,,,,0,1162,,,,,,,,,,,,,,,,,181,U,triangle,1,0,,,,,,,,,,,,,,,,repeat,letter,lettRpt,k,0.5379,Hi,,,,,,6,,,,,,,,high,11,0,11,0,1,,,,,,,,,
