participant,date,expName,psychopyVersion,OS,frameRate,browser,xResolution,yResolution,key_resp.keys,key_resp.rt,training_resp.keys,training_resp.rt,points_trial,points_cumul,trainBlock,training.thisRepN,training.thisTrialN,training.thisN,training.thisIndex,training.ran,LTriangleOpac,LCircleOpac,LHexagonOpac,LStarOpac,RTriangleOpac,RCircleOpac,RHexagonOpac,RStarOpac,LShape_ID,RShape_ID,curr_topStim,curr_bottStim,curr_shape,acc,E1,target_resp_prac1.keys,pracBlock,task1_prac_trials.thisRepN,task1_prac_trials.thisTrialN,task1_prac_trials.thisN,task1_prac_trials.thisIndex,task1_prac_trials.ran,target_resp_prac1.rt,target_resp_prac2.keys,target_resp_prac2.rt,task2_praac_trials.thisRepN,task2_praac_trials.thisTrialN,task2_praac_trials.thisN,task2_praac_trials.thisIndex,task2_praac_trials.ran,alt,task,condition,target_resp.keys,target_resp.rt,rewCond,vts_practice_trials.thisRepN,vts_practice_trials.thisTrialN,vts_practice_trials.thisN,vts_practice_trials.thisIndex,vts_practice_trials.ran,blockNum,trials_norew.thisRepN,trials_norew.thisTrialN,trials_norew.thisN,trials_norew.thisIndex,trials_norew.ran,key_resp_2.keys,key_resp_2.rt,rewExpectancy,trials_rew.thisRepN,trials_rew.thisTrialN,trials_rew.thisN,trials_rew.thisIndex,trials_rew.ran,Q1,Q2,Q2_text,Q3,Q4,Q5_text,Q5,xRes,yRes
297931,2022-11-27_18h36.29.956,vts_reward_expectancy_bt,2022.2.4,MacIntel,60.0024001,Chrome,1440,900,,,,,,,,,,,,,,,,,,,,,,,,,,,,,,,,,,,,,,,,,,,,,,,,,,,,,,,,,,,,,,,,,,,,,,,,,,,,
297931,2022-11-27_18h36.29.956,vts_reward_expectancy_bt,2022.2.4,MacIntel,60.0024001,Chrome,1440,900,space,21.3048,,,,,,,,,,,,,,,,,,,,,,,,,,,,,,,,,,,,,,,,,,,,,,,,,,,,,,,,,,,,,,,,,,,,,,,,,,
297931,2022-11-27_18h36.29.956,vts_reward_expectancy_bt,2022.2.4,MacIntel,60.0024001,Chrome,1440,900,,,,,,,,,,,,,,,,,,,,,,,,,,,,,,,,,,,,,,,,,,,,,,,,,,,,,,,,,,,,,,,,,,,,,,,,,,,,
297931,2022-11-27_18h36.29.956,vts_reward_expectancy_bt,2022.2.4,MacIntel,60.0024001,Chrome,1440,900,,,a,1.6765,1,1,0,0,0,0,9,1,0,0,0,1,1,0,0,0,star,triangle,,,,,,,,,,,,,,,,,,,,,,,,,,,,,,,,,,,,,,,,,,,,,,,,,,,,,,
297931,2022-11-27_18h36.29.956,vts_reward_expectancy_bt,2022.2.4,MacIntel,60.0024001,Chrome,1440,900,,,a,2.6318,10,11,0,0,1,1,0,1,1,0,0,0,0,1,0,0,triangle,circle,,,,,,,,,,,,,,,,,,,,,,,,,,,,,,,,,,,,,,,,,,,,,,,,,,,,,,
297931,2022-11-27_18h36.29.956,vts_reward_expectancy_bt,2022.2.4,MacIntel,60.0024001,Chrome,1440,900,,,l,1.1007,10,21,0,0,2,2,6,1,0,0,1,0,1,0,0,0,hexagon,triangle,,,,,,,,,,,,,,,,,,,,,,,,,,,,,,,,,,,,,,,,,,,,,,,,,,,,,,
297931,2022-11-27_18h36.29.956,vts_reward_expectancy_bt,2022.2.4,MacIntel,60.0024001,Chrome,1440,900,,,l,1.3821,1,22,0,0,3,3,10,1,0,0,0,1,0,1,0,0,star ,circle,,,,,,,,,,,,,,,,,,,,,,,,,,,,,,,,,,,,,,,,,,,,,,,,,,,,,,
297931,2022-11-27_18h36.29.956,vts_reward_expectancy_bt,2022.2.4,MacIntel,60.0024001,Chrome,1440,900,,,a,1.7686,10,32,0,0,4,4,7,1,0,0,1,0,0,1,0,0,hexagon,circle,,,,,,,,,,,,,,,,,,,,,,,,,,,,,,,,,,,,,,,,,,,,,,,,,,,,,,
297931,2022-11-27_18h36.29.956,vts_reward_expectancy_bt,2022.2.4,MacIntel,60.0024001,Chrome,1440,900,,,l,3.718,10,42,0,0,5,5,4,1,0,1,0,0,0,0,1,0,circle,hexagon,,,,,,,,,,,,,,,,,,,,,,,,,,,,,,,,,,,,,,,,,,,,,,,,,,,,,,
297931,2022-11-27_18h36.29.956,vts_reward_expectancy_bt,2022.2.4,MacIntel,60.0024001,Chrome,1440,900,,,a,0.8817,10,52,0,0,6,6,1,1,1,0,0,0,0,0,1,0,triangle,hexagon,,,,,,,,,,,,,,,,,,,,,,,,,,,,,,,,,,,,,,,,,,,,,,,,,,,,,,
297931,2022-11-27_18h36.29.956,vts_reward_expectancy_bt,2022.2.4,MacIntel,60.0024001,Chrome,1440,900,,,l,1.4011,10,62,0,0,7,7,11,1,0,0,0,1,0,0,1,0,star,hexagon,,,,,,,,,,,,,,,,,,,,,,,,,,,,,,,,,,,,,,,,,,,,,,,,,,,,,,
297931,2022-11-27_18h36.29.956,vts_reward_expectancy_bt,2022.2.4,MacIntel,60.0024001,Chrome,1440,900,,,a,0.937,10,72,0,0,8,8,2,1,1,0,0,0,0,0,0,1,triangle,star,,,,,,,,,,,,,,,,,,,,,,,,,,,,,,,,,,,,,,,,,,,,,,,,,,,,,,
297931,2022-11-27_18h36.29.956,vts_reward_expectancy_bt,2022.2.4,MacIntel,60.0024001,Chrome,1440,900,,,l,0.8963,10,82,0,0,9,9,3,1,0,1,0,0,1,0,0,0,circle,triangle,,,,,,,,,,,,,,,,,,,,,,,,,,,,,,,,,,,,,,,,,,,,,,,,,,,,,,
297931,2022-11-27_18h36.29.956,vts_reward_expectancy_bt,2022.2.4,MacIntel,60.0024001,Chrome,1440,900,,,l,2.6539,1,83,0,0,10,10,5,1,0,1,0,0,0,0,0,1,circle,star,,,,,,,,,,,,,,,,,,,,,,,,,,,,,,,,,,,,,,,,,,,,,,,,,,,,,,
297931,2022-11-27_18h36.29.956,vts_reward_expectancy_bt,2022.2.4,MacIntel,60.0024001,Chrome,1440,900,,,a,1.1917,1,84,0,0,11,11,8,1,0,0,1,0,0,0,0,1,hexagon,star,,,,,,,,,,,,,,,,,,,,,,,,,,,,,,,,,,,,,,,,,,,,,,,,,,,,,,
297931,2022-11-27_18h36.29.956,vts_reward_expectancy_bt,2022.2.4,MacIntel,60.0024001,Chrome,1440,900,,,a,1.5735,10,94,0,1,0,12,7,1,0,0,1,0,0,1,0,0,hexagon,circle,,,,,,,,,,,,,,,,,,,,,,,,,,,,,,,,,,,,,,,,,,,,,,,,,,,,,,
297931,2022-11-27_18h36.29.956,vts_reward_expectancy_bt,2022.2.4,MacIntel,60.0024001,Chrome,1440,900,,,a,0.8452,10,104,0,1,1,13,1,1,1,0,0,0,0,0,1,0,triangle,hexagon,,,,,,,,,,,,,,,,,,,,,,,,,,,,,,,,,,,,,,,,,,,,,,,,,,,,,,
297931,2022-11-27_18h36.29.956,vts_reward_expectancy_bt,2022.2.4,MacIntel,60.0024001,Chrome,1440,900,,,a,2.5712,10,114,0,1,2,14,10,1,0,0,0,1,0,1,0,0,star ,circle,,,,,,,,,,,,,,,,,,,,,,,,,,,,,,,,,,,,,,,,,,,,,,,,,,,,,,
297931,2022-11-27_18h36.29.956,vts_reward_expectancy_bt,2022.2.4,MacIntel,60.0024001,Chrome,1440,900,,,l,1.3897,10,124,0,1,3,15,11,1,0,0,0,1,0,0,1,0,star,hexagon,,,,,,,,,,,,,,,,,,,,,,,,,,,,,,,,,,,,,,,,,,,,,,,,,,,,,,
297931,2022-11-27_18h36.29.956,vts_reward_expectancy_bt,2022.2.4,MacIntel,60.0024001,Chrome,1440,900,,,l,0.9605,10,134,0,1,4,16,6,1,0,0,1,0,1,0,0,0,hexagon,triangle,,,,,,,,,,,,,,,,,,,,,,,,,,,,,,,,,,,,,,,,,,,,,,,,,,,,,,
297931,2022-11-27_18h36.29.956,vts_reward_expectancy_bt,2022.2.4,MacIntel,60.0024001,Chrome,1440,900,,,l,1.2438,10,144,0,1,5,17,4,1,0,1,0,0,0,0,1,0,circle,hexagon,,,,,,,,,,,,,,,,,,,,,,,,,,,,,,,,,,,,,,,,,,,,,,,,,,,,,,
297931,2022-11-27_18h36.29.956,vts_reward_expectancy_bt,2022.2.4,MacIntel,60.0024001,Chrome,1440,900,,,a,5.0735,1,145,0,1,6,18,5,1,0,1,0,0,0,0,0,1,circle,star,,,,,,,,,,,,,,,,,,,,,,,,,,,,,,,,,,,,,,,,,,,,,,,,,,,,,,
297931,2022-11-27_18h36.29.956,vts_reward_expectancy_bt,2022.2.4,MacIntel,60.0024001,Chrome,1440,900,,,a,1.0518,10,155,0,1,7,19,2,1,1,0,0,0,0,0,0,1,triangle,star,,,,,,,,,,,,,,,,,,,,,,,,,,,,,,,,,,,,,,,,,,,,,,,,,,,,,,
297931,2022-11-27_18h36.29.956,vts_reward_expectancy_bt,2022.2.4,MacIntel,60.0024001,Chrome,1440,900,,,l,0.8141,1,156,0,1,8,20,3,1,0,1,0,0,1,0,0,0,circle,triangle,,,,,,,,,,,,,,,,,,,,,,,,,,,,,,,,,,,,,,,,,,,,,,,,,,,,,,
297931,2022-11-27_18h36.29.956,vts_reward_expectancy_bt,2022.2.4,MacIntel,60.0024001,Chrome,1440,900,,,l,0.756,1,157,0,1,9,21,9,1,0,0,0,1,1,0,0,0,star,triangle,,,,,,,,,,,,,,,,,,,,,,,,,,,,,,,,,,,,,,,,,,,,,,,,,,,,,,
297931,2022-11-27_18h36.29.956,vts_reward_expectancy_bt,2022.2.4,MacIntel,60.0024001,Chrome,1440,900,,,a,0.6161,10,167,0,1,10,22,0,1,1,0,0,0,0,1,0,0,triangle,circle,,,,,,,,,,,,,,,,,,,,,,,,,,,,,,,,,,,,,,,,,,,,,,,,,,,,,,
297931,2022-11-27_18h36.29.956,vts_reward_expectancy_bt,2022.2.4,MacIntel,60.0024001,Chrome,1440,900,,,a,1.4512,10,177,0,1,11,23,8,1,0,0,1,0,0,0,0,1,hexagon,star,,,,,,,,,,,,,,,,,,,,,,,,,,,,,,,,,,,,,,,,,,,,,,,,,,,,,,
297931,2022-11-27_18h36.29.956,vts_reward_expectancy_bt,2022.2.4,MacIntel,60.0024001,Chrome,1440,900,,,l,1.0245,10,187,0,2,0,24,11,1,0,0,0,1,0,0,1,0,star,hexagon,,,,,,,,,,,,,,,,,,,,,,,,,,,,,,,,,,,,,,,,,,,,,,,,,,,,,,
297931,2022-11-27_18h36.29.956,vts_reward_expectancy_bt,2022.2.4,MacIntel,60.0024001,Chrome,1440,900,,,l,1.0692,10,197,0,2,1,25,6,1,0,0,1,0,1,0,0,0,hexagon,triangle,,,,,,,,,,,,,,,,,,,,,,,,,,,,,,,,,,,,,,,,,,,,,,,,,,,,,,
297931,2022-11-27_18h36.29.956,vts_reward_expectancy_bt,2022.2.4,MacIntel,60.0024001,Chrome,1440,900,,,l,1.661,10,207,0,2,2,26,5,1,0,1,0,0,0,0,0,1,circle,star,,,,,,,,,,,,,,,,,,,,,,,,,,,,,,,,,,,,,,,,,,,,,,,,,,,,,,
297931,2022-11-27_18h36.29.956,vts_reward_expectancy_bt,2022.2.4,MacIntel,60.0024001,Chrome,1440,900,,,a,0.7485,10,217,0,2,3,27,1,1,1,0,0,0,0,0,1,0,triangle,hexagon,,,,,,,,,,,,,,,,,,,,,,,,,,,,,,,,,,,,,,,,,,,,,,,,,,,,,,
297931,2022-11-27_18h36.29.956,vts_reward_expectancy_bt,2022.2.4,MacIntel,60.0024001,Chrome,1440,900,,,l,1.9203,10,227,0,2,4,28,4,1,0,1,0,0,0,0,1,0,circle,hexagon,,,,,,,,,,,,,,,,,,,,,,,,,,,,,,,,,,,,,,,,,,,,,,,,,,,,,,
297931,2022-11-27_18h36.29.956,vts_reward_expectancy_bt,2022.2.4,MacIntel,60.0024001,Chrome,1440,900,,,a,1.679,10,237,0,2,5,29,10,1,0,0,0,1,0,1,0,0,star ,circle,,,,,,,,,,,,,,,,,,,,,,,,,,,,,,,,,,,,,,,,,,,,,,,,,,,,,,
297931,2022-11-27_18h36.29.956,vts_reward_expectancy_bt,2022.2.4,MacIntel,60.0024001,Chrome,1440,900,,,a,1.1414,10,247,0,2,6,30,8,1,0,0,1,0,0,0,0,1,hexagon,star,,,,,,,,,,,,,,,,,,,,,,,,,,,,,,,,,,,,,,,,,,,,,,,,,,,,,,
297931,2022-11-27_18h36.29.956,vts_reward_expectancy_bt,2022.2.4,MacIntel,60.0024001,Chrome,1440,900,,,l,1.1674,10,257,0,2,7,31,9,1,0,0,0,1,1,0,0,0,star,triangle,,,,,,,,,,,,,,,,,,,,,,,,,,,,,,,,,,,,,,,,,,,,,,,,,,,,,,
297931,2022-11-27_18h36.29.956,vts_reward_expectancy_bt,2022.2.4,MacIntel,60.0024001,Chrome,1440,900,,,a,1.4418,1,258,0,2,8,32,7,1,0,0,1,0,0,1,0,0,hexagon,circle,,,,,,,,,,,,,,,,,,,,,,,,,,,,,,,,,,,,,,,,,,,,,,,,,,,,,,
297931,2022-11-27_18h36.29.956,vts_reward_expectancy_bt,2022.2.4,MacIntel,60.0024001,Chrome,1440,900,,,a,1.1559,10,268,0,2,9,33,2,1,1,0,0,0,0,0,0,1,triangle,star,,,,,,,,,,,,,,,,,,,,,,,,,,,,,,,,,,,,,,,,,,,,,,,,,,,,,,
297931,2022-11-27_18h36.29.956,vts_reward_expectancy_bt,2022.2.4,MacIntel,60.0024001,Chrome,1440,900,,,l,1.7422,10,278,0,2,10,34,3,1,0,1,0,0,1,0,0,0,circle,triangle,,,,,,,,,,,,,,,,,,,,,,,,,,,,,,,,,,,,,,,,,,,,,,,,,,,,,,
297931,2022-11-27_18h36.29.956,vts_reward_expectancy_bt,2022.2.4,MacIntel,60.0024001,Chrome,1440,900,,,a,1.1982,10,288,0,2,11,35,0,1,1,0,0,0,0,1,0,0,triangle,circle,,,,,,,,,,,,,,,,,,,,,,,,,,,,,,,,,,,,,,,,,,,,,,,,,,,,,,
297931,2022-11-27_18h36.29.956,vts_reward_expectancy_bt,2022.2.4,MacIntel,60.0024001,Chrome,1440,900,,,l,1.1359,10,298,1,0,0,0,9,1,0,0,0,1,1,0,0,0,star,triangle,,,,,,,,,,,,,,,,,,,,,,,,,,,,,,,,,,,,,,,,,,,,,,,,,,,,,,
297931,2022-11-27_18h36.29.956,vts_reward_expectancy_bt,2022.2.4,MacIntel,60.0024001,Chrome,1440,900,,,a,0.6893,10,308,1,0,1,1,2,1,1,0,0,0,0,0,0,1,triangle,star,,,,,,,,,,,,,,,,,,,,,,,,,,,,,,,,,,,,,,,,,,,,,,,,,,,,,,
297931,2022-11-27_18h36.29.956,vts_reward_expectancy_bt,2022.2.4,MacIntel,60.0024001,Chrome,1440,900,,,a,0.6558,1,309,1,0,2,2,1,1,1,0,0,0,0,0,1,0,triangle,hexagon,,,,,,,,,,,,,,,,,,,,,,,,,,,,,,,,,,,,,,,,,,,,,,,,,,,,,,
297931,2022-11-27_18h36.29.956,vts_reward_expectancy_bt,2022.2.4,MacIntel,60.0024001,Chrome,1440,900,,,a,0.7061,10,319,1,0,3,3,8,1,0,0,1,0,0,0,0,1,hexagon,star,,,,,,,,,,,,,,,,,,,,,,,,,,,,,,,,,,,,,,,,,,,,,,,,,,,,,,
297931,2022-11-27_18h36.29.956,vts_reward_expectancy_bt,2022.2.4,MacIntel,60.0024001,Chrome,1440,900,,,l,1.3207,1,320,1,0,4,4,11,1,0,0,0,1,0,0,1,0,star,hexagon,,,,,,,,,,,,,,,,,,,,,,,,,,,,,,,,,,,,,,,,,,,,,,,,,,,,,,
297931,2022-11-27_18h36.29.956,vts_reward_expectancy_bt,2022.2.4,MacIntel,60.0024001,Chrome,1440,900,,,a,1.8061,1,321,1,0,5,5,10,1,0,0,0,1,0,1,0,0,star ,circle,,,,,,,,,,,,,,,,,,,,,,,,,,,,,,,,,,,,,,,,,,,,,,,,,,,,,,
297931,2022-11-27_18h36.29.956,vts_reward_expectancy_bt,2022.2.4,MacIntel,60.0024001,Chrome,1440,900,,,l,2.7129,10,331,1,0,6,6,6,1,0,0,1,0,1,0,0,0,hexagon,triangle,,,,,,,,,,,,,,,,,,,,,,,,,,,,,,,,,,,,,,,,,,,,,,,,,,,,,,
297931,2022-11-27_18h36.29.956,vts_reward_expectancy_bt,2022.2.4,MacIntel,60.0024001,Chrome,1440,900,,,l,0.666,10,341,1,0,7,7,3,1,0,1,0,0,1,0,0,0,circle,triangle,,,,,,,,,,,,,,,,,,,,,,,,,,,,,,,,,,,,,,,,,,,,,,,,,,,,,,
297931,2022-11-27_18h36.29.956,vts_reward_expectancy_bt,2022.2.4,MacIntel,60.0024001,Chrome,1440,900,,,a,0.643,10,351,1,0,8,8,0,1,1,0,0,0,0,1,0,0,triangle,circle,,,,,,,,,,,,,,,,,,,,,,,,,,,,,,,,,,,,,,,,,,,,,,,,,,,,,,
297931,2022-11-27_18h36.29.956,vts_reward_expectancy_bt,2022.2.4,MacIntel,60.0024001,Chrome,1440,900,,,l,1.1815,1,352,1,0,9,9,5,1,0,1,0,0,0,0,0,1,circle,star,,,,,,,,,,,,,,,,,,,,,,,,,,,,,,,,,,,,,,,,,,,,,,,,,,,,,,
297931,2022-11-27_18h36.29.956,vts_reward_expectancy_bt,2022.2.4,MacIntel,60.0024001,Chrome,1440,900,,,a,0.9319,10,362,1,0,10,10,7,1,0,0,1,0,0,1,0,0,hexagon,circle,,,,,,,,,,,,,,,,,,,,,,,,,,,,,,,,,,,,,,,,,,,,,,,,,,,,,,
297931,2022-11-27_18h36.29.956,vts_reward_expectancy_bt,2022.2.4,MacIntel,60.0024001,Chrome,1440,900,,,l,0.9328,10,372,1,0,11,11,4,1,0,1,0,0,0,0,1,0,circle,hexagon,,,,,,,,,,,,,,,,,,,,,,,,,,,,,,,,,,,,,,,,,,,,,,,,,,,,,,
297931,2022-11-27_18h36.29.956,vts_reward_expectancy_bt,2022.2.4,MacIntel,60.0024001,Chrome,1440,900,,,l,0.9419,10,382,1,1,0,12,11,1,0,0,0,1,0,0,1,0,star,hexagon,,,,,,,,,,,,,,,,,,,,,,,,,,,,,,,,,,,,,,,,,,,,,,,,,,,,,,
297931,2022-11-27_18h36.29.956,vts_reward_expectancy_bt,2022.2.4,MacIntel,60.0024001,Chrome,1440,900,,,l,0.8929,10,392,1,1,1,13,9,1,0,0,0,1,1,0,0,0,star,triangle,,,,,,,,,,,,,,,,,,,,,,,,,,,,,,,,,,,,,,,,,,,,,,,,,,,,,,
297931,2022-11-27_18h36.29.956,vts_reward_expectancy_bt,2022.2.4,MacIntel,60.0024001,Chrome,1440,900,,,a,0.8843,10,402,1,1,2,14,1,1,1,0,0,0,0,0,1,0,triangle,hexagon,,,,,,,,,,,,,,,,,,,,,,,,,,,,,,,,,,,,,,,,,,,,,,,,,,,,,,
297931,2022-11-27_18h36.29.956,vts_reward_expectancy_bt,2022.2.4,MacIntel,60.0024001,Chrome,1440,900,,,a,1.663,10,412,1,1,3,15,8,1,0,0,1,0,0,0,0,1,hexagon,star,,,,,,,,,,,,,,,,,,,,,,,,,,,,,,,,,,,,,,,,,,,,,,,,,,,,,,
297931,2022-11-27_18h36.29.956,vts_reward_expectancy_bt,2022.2.4,MacIntel,60.0024001,Chrome,1440,900,,,l,1.2563,1,413,1,1,4,16,4,1,0,1,0,0,0,0,1,0,circle,hexagon,,,,,,,,,,,,,,,,,,,,,,,,,,,,,,,,,,,,,,,,,,,,,,,,,,,,,,
297931,2022-11-27_18h36.29.956,vts_reward_expectancy_bt,2022.2.4,MacIntel,60.0024001,Chrome,1440,900,,,l,0.9435,1,414,1,1,5,17,3,1,0,1,0,0,1,0,0,0,circle,triangle,,,,,,,,,,,,,,,,,,,,,,,,,,,,,,,,,,,,,,,,,,,,,,,,,,,,,,
297931,2022-11-27_18h36.29.956,vts_reward_expectancy_bt,2022.2.4,MacIntel,60.0024001,Chrome,1440,900,,,l,1.189,1,415,1,1,6,18,0,1,1,0,0,0,0,1,0,0,triangle,circle,,,,,,,,,,,,,,,,,,,,,,,,,,,,,,,,,,,,,,,,,,,,,,,,,,,,,,
297931,2022-11-27_18h36.29.956,vts_reward_expectancy_bt,2022.2.4,MacIntel,60.0024001,Chrome,1440,900,,,l,0.9556,10,425,1,1,7,19,6,1,0,0,1,0,1,0,0,0,hexagon,triangle,,,,,,,,,,,,,,,,,,,,,,,,,,,,,,,,,,,,,,,,,,,,,,,,,,,,,,
297931,2022-11-27_18h36.29.956,vts_reward_expectancy_bt,2022.2.4,MacIntel,60.0024001,Chrome,1440,900,,,l,1.306,1,426,1,1,8,20,10,1,0,0,0,1,0,1,0,0,star ,circle,,,,,,,,,,,,,,,,,,,,,,,,,,,,,,,,,,,,,,,,,,,,,,,,,,,,,,
297931,2022-11-27_18h36.29.956,vts_reward_expectancy_bt,2022.2.4,MacIntel,60.0024001,Chrome,1440,900,,,a,1.1984,10,436,1,1,9,21,2,1,1,0,0,0,0,0,0,1,triangle,star,,,,,,,,,,,,,,,,,,,,,,,,,,,,,,,,,,,,,,,,,,,,,,,,,,,,,,
297931,2022-11-27_18h36.29.956,vts_reward_expectancy_bt,2022.2.4,MacIntel,60.0024001,Chrome,1440,900,,,a,1.5157,10,446,1,1,10,22,7,1,0,0,1,0,0,1,0,0,hexagon,circle,,,,,,,,,,,,,,,,,,,,,,,,,,,,,,,,,,,,,,,,,,,,,,,,,,,,,,
297931,2022-11-27_18h36.29.956,vts_reward_expectancy_bt,2022.2.4,MacIntel,60.0024001,Chrome,1440,900,,,a,1.1416,1,447,1,1,11,23,5,1,0,1,0,0,0,0,0,1,circle,star,,,,,,,,,,,,,,,,,,,,,,,,,,,,,,,,,,,,,,,,,,,,,,,,,,,,,,
297931,2022-11-27_18h36.29.956,vts_reward_expectancy_bt,2022.2.4,MacIntel,60.0024001,Chrome,1440,900,,,a,0.9632,10,457,1,2,0,24,2,1,1,0,0,0,0,0,0,1,triangle,star,,,,,,,,,,,,,,,,,,,,,,,,,,,,,,,,,,,,,,,,,,,,,,,,,,,,,,
297931,2022-11-27_18h36.29.956,vts_reward_expectancy_bt,2022.2.4,MacIntel,60.0024001,Chrome,1440,900,,,a,1.5057,10,467,1,2,1,25,1,1,1,0,0,0,0,0,1,0,triangle,hexagon,,,,,,,,,,,,,,,,,,,,,,,,,,,,,,,,,,,,,,,,,,,,,,,,,,,,,,
297931,2022-11-27_18h36.29.956,vts_reward_expectancy_bt,2022.2.4,MacIntel,60.0024001,Chrome,1440,900,,,a,5.4316,1,468,1,2,2,26,7,1,0,0,1,0,0,1,0,0,hexagon,circle,,,,,,,,,,,,,,,,,,,,,,,,,,,,,,,,,,,,,,,,,,,,,,,,,,,,,,
297931,2022-11-27_18h36.29.956,vts_reward_expectancy_bt,2022.2.4,MacIntel,60.0024001,Chrome,1440,900,,,a,1.0395,1,469,1,2,3,27,5,1,0,1,0,0,0,0,0,1,circle,star,,,,,,,,,,,,,,,,,,,,,,,,,,,,,,,,,,,,,,,,,,,,,,,,,,,,,,
297931,2022-11-27_18h36.29.956,vts_reward_expectancy_bt,2022.2.4,MacIntel,60.0024001,Chrome,1440,900,,,l,1.1778,10,479,1,2,4,28,9,1,0,0,0,1,1,0,0,0,star,triangle,,,,,,,,,,,,,,,,,,,,,,,,,,,,,,,,,,,,,,,,,,,,,,,,,,,,,,
297931,2022-11-27_18h36.29.956,vts_reward_expectancy_bt,2022.2.4,MacIntel,60.0024001,Chrome,1440,900,,,a,1.0075,10,489,1,2,5,29,0,1,1,0,0,0,0,1,0,0,triangle,circle,,,,,,,,,,,,,,,,,,,,,,,,,,,,,,,,,,,,,,,,,,,,,,,,,,,,,,
297931,2022-11-27_18h36.29.956,vts_reward_expectancy_bt,2022.2.4,MacIntel,60.0024001,Chrome,1440,900,,,l,0.726,1,490,1,2,6,30,10,1,0,0,0,1,0,1,0,0,star ,circle,,,,,,,,,,,,,,,,,,,,,,,,,,,,,,,,,,,,,,,,,,,,,,,,,,,,,,
297931,2022-11-27_18h36.29.956,vts_reward_expectancy_bt,2022.2.4,MacIntel,60.0024001,Chrome,1440,900,,,l,1.3061,10,500,1,2,7,31,11,1,0,0,0,1,0,0,1,0,star,hexagon,,,,,,,,,,,,,,,,,,,,,,,,,,,,,,,,,,,,,,,,,,,,,,,,,,,,,,
297931,2022-11-27_18h36.29.956,vts_reward_expectancy_bt,2022.2.4,MacIntel,60.0024001,Chrome,1440,900,,,l,1.4017,1,501,1,2,8,32,3,1,0,1,0,0,1,0,0,0,circle,triangle,,,,,,,,,,,,,,,,,,,,,,,,,,,,,,,,,,,,,,,,,,,,,,,,,,,,,,
297931,2022-11-27_18h36.29.956,vts_reward_expectancy_bt,2022.2.4,MacIntel,60.0024001,Chrome,1440,900,,,a,1.0641,10,511,1,2,9,33,6,1,0,0,1,0,1,0,0,0,hexagon,triangle,,,,,,,,,,,,,,,,,,,,,,,,,,,,,,,,,,,,,,,,,,,,,,,,,,,,,,
297931,2022-11-27_18h36.29.956,vts_reward_expectancy_bt,2022.2.4,MacIntel,60.0024001,Chrome,1440,900,,,l,1.0853,10,521,1,2,10,34,4,1,0,1,0,0,0,0,1,0,circle,hexagon,,,,,,,,,,,,,,,,,,,,,,,,,,,,,,,,,,,,,,,,,,,,,,,,,,,,,,
297931,2022-11-27_18h36.29.956,vts_reward_expectancy_bt,2022.2.4,MacIntel,60.0024001,Chrome,1440,900,,,a,1.4603,10,531,1,2,11,35,8,1,0,0,1,0,0,0,0,1,hexagon,star,,,,,,,,,,,,,,,,,,,,,,,,,,,,,,,,,,,,,,,,,,,,,,,,,,,,,,
297931,2022-11-27_18h36.29.956,vts_reward_expectancy_bt,2022.2.4,MacIntel,60.0024001,Chrome,1440,900,,,l,3.0567,1,532,2,0,0,0,5,1,0,1,0,0,0,0,0,1,circle,star,,,,,,,,,,,,,,,,,,,,,,,,,,,,,,,,,,,,,,,,,,,,,,,,,,,,,,
297931,2022-11-27_18h36.29.956,vts_reward_expectancy_bt,2022.2.4,MacIntel,60.0024001,Chrome,1440,900,,,l,0.9065,10,542,2,0,1,1,11,1,0,0,0,1,0,0,1,0,star,hexagon,,,,,,,,,,,,,,,,,,,,,,,,,,,,,,,,,,,,,,,,,,,,,,,,,,,,,,
297931,2022-11-27_18h36.29.956,vts_reward_expectancy_bt,2022.2.4,MacIntel,60.0024001,Chrome,1440,900,,,l,1.2721,10,552,2,0,2,2,6,1,0,0,1,0,1,0,0,0,hexagon,triangle,,,,,,,,,,,,,,,,,,,,,,,,,,,,,,,,,,,,,,,,,,,,,,,,,,,,,,
297931,2022-11-27_18h36.29.956,vts_reward_expectancy_bt,2022.2.4,MacIntel,60.0024001,Chrome,1440,900,,,a,2.1503,1,553,2,0,3,3,0,1,1,0,0,0,0,1,0,0,triangle,circle,,,,,,,,,,,,,,,,,,,,,,,,,,,,,,,,,,,,,,,,,,,,,,,,,,,,,,
297931,2022-11-27_18h36.29.956,vts_reward_expectancy_bt,2022.2.4,MacIntel,60.0024001,Chrome,1440,900,,,l,1.0344,1,554,2,0,4,4,4,1,0,1,0,0,0,0,1,0,circle,hexagon,,,,,,,,,,,,,,,,,,,,,,,,,,,,,,,,,,,,,,,,,,,,,,,,,,,,,,
297931,2022-11-27_18h36.29.956,vts_reward_expectancy_bt,2022.2.4,MacIntel,60.0024001,Chrome,1440,900,,,a,0.7573,10,564,2,0,5,5,1,1,1,0,0,0,0,0,1,0,triangle,hexagon,,,,,,,,,,,,,,,,,,,,,,,,,,,,,,,,,,,,,,,,,,,,,,,,,,,,,,
297931,2022-11-27_18h36.29.956,vts_reward_expectancy_bt,2022.2.4,MacIntel,60.0024001,Chrome,1440,900,,,l,3.8289,10,574,2,0,6,6,10,1,0,0,0,1,0,1,0,0,star ,circle,,,,,,,,,,,,,,,,,,,,,,,,,,,,,,,,,,,,,,,,,,,,,,,,,,,,,,
297931,2022-11-27_18h36.29.956,vts_reward_expectancy_bt,2022.2.4,MacIntel,60.0024001,Chrome,1440,900,,,a,1.2087,10,584,2,0,7,7,2,1,1,0,0,0,0,0,0,1,triangle,star,,,,,,,,,,,,,,,,,,,,,,,,,,,,,,,,,,,,,,,,,,,,,,,,,,,,,,
297931,2022-11-27_18h36.29.956,vts_reward_expectancy_bt,2022.2.4,MacIntel,60.0024001,Chrome,1440,900,,,l,1.2416,10,594,2,0,8,8,3,1,0,1,0,0,1,0,0,0,circle,triangle,,,,,,,,,,,,,,,,,,,,,,,,,,,,,,,,,,,,,,,,,,,,,,,,,,,,,,
297931,2022-11-27_18h36.29.956,vts_reward_expectancy_bt,2022.2.4,MacIntel,60.0024001,Chrome,1440,900,,,l,4.6768,1,595,2,0,9,9,9,1,0,0,0,1,1,0,0,0,star,triangle,,,,,,,,,,,,,,,,,,,,,,,,,,,,,,,,,,,,,,,,,,,,,,,,,,,,,,
297931,2022-11-27_18h36.29.956,vts_reward_expectancy_bt,2022.2.4,MacIntel,60.0024001,Chrome,1440,900,,,a,0.8234,10,605,2,0,10,10,7,1,0,0,1,0,0,1,0,0,hexagon,circle,,,,,,,,,,,,,,,,,,,,,,,,,,,,,,,,,,,,,,,,,,,,,,,,,,,,,,
297931,2022-11-27_18h36.29.956,vts_reward_expectancy_bt,2022.2.4,MacIntel,60.0024001,Chrome,1440,900,,,a,2.1289,10,615,2,0,11,11,8,1,0,0,1,0,0,0,0,1,hexagon,star,,,,,,,,,,,,,,,,,,,,,,,,,,,,,,,,,,,,,,,,,,,,,,,,,,,,,,
297931,2022-11-27_18h36.29.956,vts_reward_expectancy_bt,2022.2.4,MacIntel,60.0024001,Chrome,1440,900,,,a,1.0912,10,625,2,1,0,12,2,1,1,0,0,0,0,0,0,1,triangle,star,,,,,,,,,,,,,,,,,,,,,,,,,,,,,,,,,,,,,,,,,,,,,,,,,,,,,,
297931,2022-11-27_18h36.29.956,vts_reward_expectancy_bt,2022.2.4,MacIntel,60.0024001,Chrome,1440,900,,,a,1.6079,10,635,2,1,1,13,10,1,0,0,0,1,0,1,0,0,star ,circle,,,,,,,,,,,,,,,,,,,,,,,,,,,,,,,,,,,,,,,,,,,,,,,,,,,,,,
297931,2022-11-27_18h36.29.956,vts_reward_expectancy_bt,2022.2.4,MacIntel,60.0024001,Chrome,1440,900,,,a,1.6379,1,636,2,1,2,14,5,1,0,1,0,0,0,0,0,1,circle,star,,,,,,,,,,,,,,,,,,,,,,,,,,,,,,,,,,,,,,,,,,,,,,,,,,,,,,
297931,2022-11-27_18h36.29.956,vts_reward_expectancy_bt,2022.2.4,MacIntel,60.0024001,Chrome,1440,900,,,l,1.0663,10,646,2,1,3,15,3,1,0,1,0,0,1,0,0,0,circle,triangle,,,,,,,,,,,,,,,,,,,,,,,,,,,,,,,,,,,,,,,,,,,,,,,,,,,,,,
297931,2022-11-27_18h36.29.956,vts_reward_expectancy_bt,2022.2.4,MacIntel,60.0024001,Chrome,1440,900,,,a,1.196,10,656,2,1,4,16,8,1,0,0,1,0,0,0,0,1,hexagon,star,,,,,,,,,,,,,,,,,,,,,,,,,,,,,,,,,,,,,,,,,,,,,,,,,,,,,,
297931,2022-11-27_18h36.29.956,vts_reward_expectancy_bt,2022.2.4,MacIntel,60.0024001,Chrome,1440,900,,,l,0.9603,10,666,2,1,5,17,4,1,0,1,0,0,0,0,1,0,circle,hexagon,,,,,,,,,,,,,,,,,,,,,,,,,,,,,,,,,,,,,,,,,,,,,,,,,,,,,,
297931,2022-11-27_18h36.29.956,vts_reward_expectancy_bt,2022.2.4,MacIntel,60.0024001,Chrome,1440,900,,,l,0.8691,1,667,2,1,6,18,9,1,0,0,0,1,1,0,0,0,star,triangle,,,,,,,,,,,,,,,,,,,,,,,,,,,,,,,,,,,,,,,,,,,,,,,,,,,,,,
297931,2022-11-27_18h36.29.956,vts_reward_expectancy_bt,2022.2.4,MacIntel,60.0024001,Chrome,1440,900,,,a,0.8338,10,677,2,1,7,19,7,1,0,0,1,0,0,1,0,0,hexagon,circle,,,,,,,,,,,,,,,,,,,,,,,,,,,,,,,,,,,,,,,,,,,,,,,,,,,,,,
297931,2022-11-27_18h36.29.956,vts_reward_expectancy_bt,2022.2.4,MacIntel,60.0024001,Chrome,1440,900,,,l,0.8408,10,687,2,1,8,20,11,1,0,0,0,1,0,0,1,0,star,hexagon,,,,,,,,,,,,,,,,,,,,,,,,,,,,,,,,,,,,,,,,,,,,,,,,,,,,,,
297931,2022-11-27_18h36.29.956,vts_reward_expectancy_bt,2022.2.4,MacIntel,60.0024001,Chrome,1440,900,,,a,0.758,1,688,2,1,9,21,1,1,1,0,0,0,0,0,1,0,triangle,hexagon,,,,,,,,,,,,,,,,,,,,,,,,,,,,,,,,,,,,,,,,,,,,,,,,,,,,,,
297931,2022-11-27_18h36.29.956,vts_reward_expectancy_bt,2022.2.4,MacIntel,60.0024001,Chrome,1440,900,,,l,0.5939,1,689,2,1,10,22,6,1,0,0,1,0,1,0,0,0,hexagon,triangle,,,,,,,,,,,,,,,,,,,,,,,,,,,,,,,,,,,,,,,,,,,,,,,,,,,,,,
297931,2022-11-27_18h36.29.956,vts_reward_expectancy_bt,2022.2.4,MacIntel,60.0024001,Chrome,1440,900,,,a,0.5809,10,699,2,1,11,23,0,1,1,0,0,0,0,1,0,0,triangle,circle,,,,,,,,,,,,,,,,,,,,,,,,,,,,,,,,,,,,,,,,,,,,,,,,,,,,,,
297931,2022-11-27_18h36.29.956,vts_reward_expectancy_bt,2022.2.4,MacIntel,60.0024001,Chrome,1440,900,,,a,0.676,10,709,2,2,0,24,2,1,1,0,0,0,0,0,0,1,triangle,star,,,,,,,,,,,,,,,,,,,,,,,,,,,,,,,,,,,,,,,,,,,,,,,,,,,,,,
297931,2022-11-27_18h36.29.956,vts_reward_expectancy_bt,2022.2.4,MacIntel,60.0024001,Chrome,1440,900,,,a,0.7805,1,710,2,2,1,25,5,1,0,1,0,0,0,0,0,1,circle,star,,,,,,,,,,,,,,,,,,,,,,,,,,,,,,,,,,,,,,,,,,,,,,,,,,,,,,
297931,2022-11-27_18h36.29.956,vts_reward_expectancy_bt,2022.2.4,MacIntel,60.0024001,Chrome,1440,900,,,l,0.751,10,720,2,2,2,26,6,1,0,0,1,0,1,0,0,0,hexagon,triangle,,,,,,,,,,,,,,,,,,,,,,,,,,,,,,,,,,,,,,,,,,,,,,,,,,,,,,
297931,2022-11-27_18h36.29.956,vts_reward_expectancy_bt,2022.2.4,MacIntel,60.0024001,Chrome,1440,900,,,l,0.7261,10,730,2,2,3,27,9,1,0,0,0,1,1,0,0,0,star,triangle,,,,,,,,,,,,,,,,,,,,,,,,,,,,,,,,,,,,,,,,,,,,,,,,,,,,,,
297931,2022-11-27_18h36.29.956,vts_reward_expectancy_bt,2022.2.4,MacIntel,60.0024001,Chrome,1440,900,,,l,0.8948,10,740,2,2,4,28,4,1,0,1,0,0,0,0,1,0,circle,hexagon,,,,,,,,,,,,,,,,,,,,,,,,,,,,,,,,,,,,,,,,,,,,,,,,,,,,,,
297931,2022-11-27_18h36.29.956,vts_reward_expectancy_bt,2022.2.4,MacIntel,60.0024001,Chrome,1440,900,,,a,1.2442,10,750,2,2,5,29,1,1,1,0,0,0,0,0,1,0,triangle,hexagon,,,,,,,,,,,,,,,,,,,,,,,,,,,,,,,,,,,,,,,,,,,,,,,,,,,,,,
297931,2022-11-27_18h36.29.956,vts_reward_expectancy_bt,2022.2.4,MacIntel,60.0024001,Chrome,1440,900,,,l,0.7503,10,760,2,2,6,30,11,1,0,0,0,1,0,0,1,0,star,hexagon,,,,,,,,,,,,,,,,,,,,,,,,,,,,,,,,,,,,,,,,,,,,,,,,,,,,,,
297931,2022-11-27_18h36.29.956,vts_reward_expectancy_bt,2022.2.4,MacIntel,60.0024001,Chrome,1440,900,,,a,0.707,10,770,2,2,7,31,8,1,0,0,1,0,0,0,0,1,hexagon,star,,,,,,,,,,,,,,,,,,,,,,,,,,,,,,,,,,,,,,,,,,,,,,,,,,,,,,
297931,2022-11-27_18h36.29.956,vts_reward_expectancy_bt,2022.2.4,MacIntel,60.0024001,Chrome,1440,900,,,l,0.6446,1,771,2,2,8,32,10,1,0,0,0,1,0,1,0,0,star ,circle,,,,,,,,,,,,,,,,,,,,,,,,,,,,,,,,,,,,,,,,,,,,,,,,,,,,,,
297931,2022-11-27_18h36.29.956,vts_reward_expectancy_bt,2022.2.4,MacIntel,60.0024001,Chrome,1440,900,,,a,0.6594,10,781,2,2,9,33,7,1,0,0,1,0,0,1,0,0,hexagon,circle,,,,,,,,,,,,,,,,,,,,,,,,,,,,,,,,,,,,,,,,,,,,,,,,,,,,,,
297931,2022-11-27_18h36.29.956,vts_reward_expectancy_bt,2022.2.4,MacIntel,60.0024001,Chrome,1440,900,,,a,0.6955,1,782,2,2,10,34,0,1,1,0,0,0,0,1,0,0,triangle,circle,,,,,,,,,,,,,,,,,,,,,,,,,,,,,,,,,,,,,,,,,,,,,,,,,,,,,,
297931,2022-11-27_18h36.29.956,vts_reward_expectancy_bt,2022.2.4,MacIntel,60.0024001,Chrome,1440,900,,,l,0.6407,10,792,2,2,11,35,3,1,0,1,0,0,1,0,0,0,circle,triangle,,,,,,,,,,,,,,,,,,,,,,,,,,,,,,,,,,,,,,,,,,,,,,,,,,,,,,
297931,2022-11-27_18h36.29.956,vts_reward_expectancy_bt,2022.2.4,MacIntel,60.0024001,Chrome,1440,900,,,,,,,,,,,,,,,,,,,,,,,139,F,star,0,0,,0,0,0,0,0,1,,,,,,,,,,,,,,,,,,,,,,,,,,,,,,,,,,,,,,,,,,
297931,2022-11-27_18h36.29.956,vts_reward_expectancy_bt,2022.2.4,MacIntel,60.0024001,Chrome,1440,900,,,,,,,,,,,,,,,,,,,,,,,146,B,circle,1,1,d,0,1,0,1,0,1,0.9764,,,,,,,,,,,,,,,,,,,,,,,,,,,,,,,,,,,,,,,,,
297931,2022-11-27_18h36.29.956,vts_reward_expectancy_bt,2022.2.4,MacIntel,60.0024001,Chrome,1440,900,,,,,,,,,,,,,,,,,,,,,,,132,S,hexagon,1,0,d,0,2,0,2,0,1,0.6538,,,,,,,,,,,,,,,,,,,,,,,,,,,,,,,,,,,,,,,,,
297931,2022-11-27_18h36.29.956,vts_reward_expectancy_bt,2022.2.4,MacIntel,60.0024001,Chrome,1440,900,,,,,,,,,,,,,,,,,,,,,,,174,U,triangle,1,0,f,0,3,0,3,0,1,0.5227,,,,,,,,,,,,,,,,,,,,,,,,,,,,,,,,,,,,,,,,,
297931,2022-11-27_18h36.29.956,vts_reward_expectancy_bt,2022.2.4,MacIntel,60.0024001,Chrome,1440,900,,,,,,,,,,,,,,,,,,,,,,,125,Y,star,1,0,d,0,4,0,4,0,1,0.7415,,,,,,,,,,,,,,,,,,,,,,,,,,,,,,,,,,,,,,,,,
297931,2022-11-27_18h36.29.956,vts_reward_expectancy_bt,2022.2.4,MacIntel,60.0024001,Chrome,1440,900,,,,,,,,,,,,,,,,,,,,,,,167,D,circle,1,0,f,0,5,0,5,0,1,0.8437,,,,,,,,,,,,,,,,,,,,,,,,,,,,,,,,,,,,,,,,,
297931,2022-11-27_18h36.29.956,vts_reward_expectancy_bt,2022.2.4,MacIntel,60.0024001,Chrome,1440,900,,,,,,,,,,,,,,,,,,,,,,,181,H,hexagon,1,0,f,0,6,0,6,0,1,1.2788,,,,,,,,,,,,,,,,,,,,,,,,,,,,,,,,,,,,,,,,,
297931,2022-11-27_18h36.29.956,vts_reward_expectancy_bt,2022.2.4,MacIntel,60.0024001,Chrome,1440,900,,,,,,,,,,,,,,,,,,,,,,,160,W,triangle,1,0,f,0,7,0,7,0,1,1.0941,,,,,,,,,,,,,,,,,,,,,,,,,,,,,,,,,,,,,,,,,
297931,2022-11-27_18h36.29.956,vts_reward_expectancy_bt,2022.2.4,MacIntel,60.0024001,Chrome,1440,900,,,,,,,,,,,,,,,,,,,,,,,139,F,triangle,1,0,d,0,8,0,8,0,1,1.0746,,,,,,,,,,,,,,,,,,,,,,,,,,,,,,,,,,,,,,,,,
297931,2022-11-27_18h36.29.956,vts_reward_expectancy_bt,2022.2.4,MacIntel,60.0024001,Chrome,1440,900,,,,,,,,,,,,,,,,,,,,,,,146,B,star,1,0,d,0,9,0,9,0,1,0.9968,,,,,,,,,,,,,,,,,,,,,,,,,,,,,,,,,,,,,,,,,
297931,2022-11-27_18h36.29.956,vts_reward_expectancy_bt,2022.2.4,MacIntel,60.0024001,Chrome,1440,900,,,,,,,,,,,,,,,,,,,,,,,160,Y,triangle,1,0,,1,,,,,,,k,1.0475,0,0,0,0,1,,,,,,,,,,,,,,,,,,,,,,,,,,,,,,,,,,
297931,2022-11-27_18h36.29.956,vts_reward_expectancy_bt,2022.2.4,MacIntel,60.0024001,Chrome,1440,900,,,,,,,,,,,,,,,,,,,,,,,125,D,star,1,0,,1,,,,,,,j,0.9742,1,0,1,0,1,,,,,,,,,,,,,,,,,,,,,,,,,,,,,,,,,,
297931,2022-11-27_18h36.29.956,vts_reward_expectancy_bt,2022.2.4,MacIntel,60.0024001,Chrome,1440,900,,,,,,,,,,,,,,,,,,,,,,,167,S,hexagon,1,0,,1,,,,,,,k,1.0404,2,0,2,0,1,,,,,,,,,,,,,,,,,,,,,,,,,,,,,,,,,,
297931,2022-11-27_18h36.29.956,vts_reward_expectancy_bt,2022.2.4,MacIntel,60.0024001,Chrome,1440,900,,,,,,,,,,,,,,,,,,,,,,,139,F,circle,1,0,,1,,,,,,,j,0.7775,3,0,3,0,1,,,,,,,,,,,,,,,,,,,,,,,,,,,,,,,,,,
297931,2022-11-27_18h36.29.956,vts_reward_expectancy_bt,2022.2.4,MacIntel,60.0024001,Chrome,1440,900,,,,,,,,,,,,,,,,,,,,,,,132,H,triangle,1,0,,1,,,,,,,j,1.3099,4,0,4,0,1,,,,,,,,,,,,,,,,,,,,,,,,,,,,,,,,,,
297931,2022-11-27_18h36.29.956,vts_reward_expectancy_bt,2022.2.4,MacIntel,60.0024001,Chrome,1440,900,,,,,,,,,,,,,,,,,,,,,,,181,B,star,1,0,,1,,,,,,,j,0.8424,5,0,5,0,1,,,,,,,,,,,,,,,,,,,,,,,,,,,,,,,,,,
297931,2022-11-27_18h36.29.956,vts_reward_expectancy_bt,2022.2.4,MacIntel,60.0024001,Chrome,1440,900,,,,,,,,,,,,,,,,,,,,,,,146,W,hexagon,1,0,,1,,,,,,,k,0.9239,6,0,6,0,1,,,,,,,,,,,,,,,,,,,,,,,,,,,,,,,,,,
297931,2022-11-27_18h36.29.956,vts_reward_expectancy_bt,2022.2.4,MacIntel,60.0024001,Chrome,1440,900,,,,,,,,,,,,,,,,,,,,,,,174,U,circle,1,0,,1,,,,,,,k,0.9652,7,0,7,0,1,,,,,,,,,,,,,,,,,,,,,,,,,,,,,,,,,,
297931,2022-11-27_18h36.29.956,vts_reward_expectancy_bt,2022.2.4,MacIntel,60.0024001,Chrome,1440,900,,,,,,,,,,,,,,,,,,,,,,,160,Y,circle,1,0,,1,,,,,,,k,0.6498,8,0,8,0,1,,,,,,,,,,,,,,,,,,,,,,,,,,,,,,,,,,
297931,2022-11-27_18h36.29.956,vts_reward_expectancy_bt,2022.2.4,MacIntel,60.0024001,Chrome,1440,900,,,,,,,,,,,,,,,,,,,,,,,125,D,star,1,0,,1,,,,,,,j,0.9741,9,0,9,0,1,,,,,,,,,,,,,,,,,,,,,,,,,,,,,,,,,,
297931,2022-11-27_18h36.29.956,vts_reward_expectancy_bt,2022.2.4,MacIntel,60.0024001,Chrome,1440,900,,,,,0,792,,,,,,,,,,,,,,,,,167,U,triangle,1,0,,2,,,,,,,,,,,,,,-1,number,NA,f,1.7389,vtsPrac,0,0,0,0,1,,,,,,,,,,,,,,,,,,,,,,,
297931,2022-11-27_18h36.29.956,vts_reward_expectancy_bt,2022.2.4,MacIntel,60.0024001,Chrome,1440,900,,,,,0,792,,,,,,,,,,,,,,,,,125,S,star,1,0,,2,,,,,,,,,,,,,,repeat,number,numRpt,d,0.8609,vtsPrac,1,0,1,0,1,,,,,,,,,,,,,,,,,,,,,,,
297931,2022-11-27_18h36.29.956,vts_reward_expectancy_bt,2022.2.4,MacIntel,60.0024001,Chrome,1440,900,,,,,0,792,,,,,,,,,,,,,,,,,181,W,triangle,1,0,,2,,,,,,,,,,,,,,switch,letter,lettSwt,k,0.774,vtsPrac,2,0,2,0,1,,,,,,,,,,,,,,,,,,,,,,,
297931,2022-11-27_18h36.29.956,vts_reward_expectancy_bt,2022.2.4,MacIntel,60.0024001,Chrome,1440,900,,,,,0,792,,,,,,,,,,,,,,,,,174,B,star,1,0,,2,,,,,,,,,,,,,,switch,number,numSwt,f,2.2587,vtsPrac,3,0,3,0,1,,,,,,,,,,,,,,,,,,,,,,,
297931,2022-11-27_18h36.29.956,vts_reward_expectancy_bt,2022.2.4,MacIntel,60.0024001,Chrome,1440,900,,,,,0,792,,,,,,,,,,,,,,,,,167,U,star,1,0,,2,,,,,,,,,,,,,,switch,letter,lettSwt,k,0.8389,vtsPrac,4,0,4,0,1,,,,,,,,,,,,,,,,,,,,,,,
297931,2022-11-27_18h36.29.956,vts_reward_expectancy_bt,2022.2.4,MacIntel,60.0024001,Chrome,1440,900,,,,,0,792,,,,,,,,,,,,,,,,,125,S,triangle,1,0,,2,,,,,,,,,,,,,,repeat,letter,lettRpt,k,0.798,vtsPrac,5,0,5,0,1,,,,,,,,,,,,,,,,,,,,,,,
297931,2022-11-27_18h36.29.956,vts_reward_expectancy_bt,2022.2.4,MacIntel,60.0024001,Chrome,1440,900,,,,,0,792,,,,,,,,,,,,,,,,,181,W,triangle,1,0,,2,,,,,,,,,,,,,,repeat,letter,lettRpt,k,0.8138,vtsPrac,6,0,6,0,1,,,,,,,,,,,,,,,,,,,,,,,
297931,2022-11-27_18h36.29.956,vts_reward_expectancy_bt,2022.2.4,MacIntel,60.0024001,Chrome,1440,900,,,,,0,792,,,,,,,,,,,,,,,,,174,B,star,1,0,,2,,,,,,,,,,,,,,switch,number,numSwt,f,1.0107,vtsPrac,7,0,7,0,1,,,,,,,,,,,,,,,,,,,,,,,
297931,2022-11-27_18h36.29.956,vts_reward_expectancy_bt,2022.2.4,MacIntel,60.0024001,Chrome,1440,900,,,,,0,792,,,,,,,,,,,,,,,,,132,W,circle,1,0,,2,,,,,,,,,,,,,,repeat,number,numRpt,d,1.4646,vtsPrac,8,0,8,0,1,,,,,,,,,,,,,,,,,,,,,,,
297931,2022-11-27_18h36.29.956,vts_reward_expectancy_bt,2022.2.4,MacIntel,60.0024001,Chrome,1440,900,,,,,0,792,,,,,,,,,,,,,,,,,160,H,star,1,0,,2,,,,,,,,,,,,,,switch,letter,lettSwt,j,1.8482,vtsPrac,9,0,9,0,1,,,,,,,,,,,,,,,,,,,,,,,
297931,2022-11-27_18h36.29.956,vts_reward_expectancy_bt,2022.2.4,MacIntel,60.0024001,Chrome,1440,900,,,,,0,792,,,,,,,,,,,,,,,,,174,U,star,1,0,,2,,,,,,,,,,,,,,repeat,letter,lettRpt,k,1.128,vtsPrac,10,0,10,0,1,,,,,,,,,,,,,,,,,,,,,,,
297931,2022-11-27_18h36.29.956,vts_reward_expectancy_bt,2022.2.4,MacIntel,60.0024001,Chrome,1440,900,,,,,0,792,,,,,,,,,,,,,,,,,167,Y,circle,1,0,,2,,,,,,,,,,,,,,repeat,letter,lettRpt,k,0.9106,vtsPrac,11,0,11,0,1,,,,,,,,,,,,,,,,,,,,,,,
297931,2022-11-27_18h36.29.956,vts_reward_expectancy_bt,2022.2.4,MacIntel,60.0024001,Chrome,1440,900,,,,,0,792,,,,,,,,,,,,,,,,,174,F,hexagon,1,0,,2,,,,,,,,,,,,,,repeat,letter,lettRpt,j,1.7121,vtsPrac,12,0,12,0,1,,,,,,,,,,,,,,,,,,,,,,,
297931,2022-11-27_18h36.29.956,vts_reward_expectancy_bt,2022.2.4,MacIntel,60.0024001,Chrome,1440,900,,,,,0,792,,,,,,,,,,,,,,,,,181,D,circle,1,0,,2,,,,,,,,,,,,,,repeat,letter,lettRpt,j,0.8121,vtsPrac,13,0,13,0,1,,,,,,,,,,,,,,,,,,,,,,,
297931,2022-11-27_18h36.29.956,vts_reward_expectancy_bt,2022.2.4,MacIntel,60.0024001,Chrome,1440,900,,,,,0,792,,,,,,,,,,,,,,,,,139,U,hexagon,1,0,,2,,,,,,,,,,,,,,switch,number,numSwt,d,0.7247,vtsPrac,14,0,14,0,1,,,,,,,,,,,,,,,,,,,,,,,
297931,2022-11-27_18h36.29.956,vts_reward_expectancy_bt,2022.2.4,MacIntel,60.0024001,Chrome,1440,900,,,,,0,792,,,,,,,,,,,,,,,,,146,W,star,1,0,,2,,,,,,,,,,,,,,repeat,number,numRpt,d,0.9732,vtsPrac,15,0,15,0,1,,,,,,,,,,,,,,,,,,,,,,,
297931,2022-11-27_18h36.29.956,vts_reward_expectancy_bt,2022.2.4,MacIntel,60.0024001,Chrome,1440,900,,,,,0,792,,,,,,,,,,,,,,,,,160,U,star,1,0,,2,,,,,,,,,,,,,,switch,letter,lettSwt,k,1.6818,vtsPrac,16,0,16,0,1,,,,,,,,,,,,,,,,,,,,,,,
297931,2022-11-27_18h36.29.956,vts_reward_expectancy_bt,2022.2.4,MacIntel,60.0024001,Chrome,1440,900,,,,,0,792,,,,,,,,,,,,,,,,,125,H,circle,1,0,,2,,,,,,,,,,,,,,repeat,letter,lettRpt,j,1.4943,vtsPrac,17,0,17,0,1,,,,,,,,,,,,,,,,,,,,,,,
297931,2022-11-27_18h36.29.956,vts_reward_expectancy_bt,2022.2.4,MacIntel,60.0024001,Chrome,1440,900,,,,,0,792,,,,,,,,,,,,,,,,,146,W,circle,1,0,,2,,,,,,,,,,,,,,switch,number,numSwt,d,1.19,vtsPrac,18,0,18,0,1,,,,,,,,,,,,,,,,,,,,,,,
297931,2022-11-27_18h36.29.956,vts_reward_expectancy_bt,2022.2.4,MacIntel,60.0024001,Chrome,1440,900,,,,,0,792,,,,,,,,,,,,,,,,,139,F,triangle,1,0,,2,,,,,,,,,,,,,,repeat,number,numRpt,d,0.9995,vtsPrac,19,0,19,0,1,,,,,,,,,,,,,,,,,,,,,,,
297931,2022-11-27_18h36.29.956,vts_reward_expectancy_bt,2022.2.4,MacIntel,60.0024001,Chrome,1440,900,,,,,0,792,,,,,,,,,,,,,,,,,132,D,circle,-1,0,,2,,,,,,,,,,,,,,switch,no_choice,NA,,,vtsPrac,20,0,20,0,1,,,,,,,,,,,,,,,,,,,,,,,
297931,2022-11-27_18h36.29.956,vts_reward_expectancy_bt,2022.2.4,MacIntel,60.0024001,Chrome,1440,900,,,,,0,792,,,,,,,,,,,,,,,,,181,U,hexagon,1,0,,2,,,,,,,,,,,,,,switch,letter,lettSwt,k,0.6656,vtsPrac,21,0,21,0,1,,,,,,,,,,,,,,,,,,,,,,,
297931,2022-11-27_18h36.29.956,vts_reward_expectancy_bt,2022.2.4,MacIntel,60.0024001,Chrome,1440,900,,,,,0,792,,,,,,,,,,,,,,,,,146,F,star,1,0,,2,,,,,,,,,,,,,,repeat,letter,lettRpt,j,0.7612,vtsPrac,22,0,22,0,1,,,,,,,,,,,,,,,,,,,,,,,
297931,2022-11-27_18h36.29.956,vts_reward_expectancy_bt,2022.2.4,MacIntel,60.0024001,Chrome,1440,900,,,,,0,792,,,,,,,,,,,,,,,,,125,B,triangle,1,0,,2,,,,,,,,,,,,,,switch,number,numSwt,d,0.6309,vtsPrac,23,0,23,0,1,,,,,,,,,,,,,,,,,,,,,,,
297931,2022-11-27_18h36.29.956,vts_reward_expectancy_bt,2022.2.4,MacIntel,60.0024001,Chrome,1440,900,,,,,0,792,,,,,,,,,,,,,,,,,174,W,circle,1,0,,2,,,,,,,,,,,,,,switch,letter,lettSwt,k,0.6138,vtsPrac,24,0,24,0,1,,,,,,,,,,,,,,,,,,,,,,,
297931,2022-11-27_18h36.29.956,vts_reward_expectancy_bt,2022.2.4,MacIntel,60.0024001,Chrome,1440,900,,,,,0,792,,,,,,,,,,,,,,,,,132,F,triangle,1,0,,2,,,,,,,,,,,,,,switch,number,numSwt,d,0.6567,vtsPrac,25,0,25,0,1,,,,,,,,,,,,,,,,,,,,,,,
297931,2022-11-27_18h36.29.956,vts_reward_expectancy_bt,2022.2.4,MacIntel,60.0024001,Chrome,1440,900,,,,,0,792,,,,,,,,,,,,,,,,,125,Y,triangle,1,0,,2,,,,,,,,,,,,,,repeat,number,numRpt,d,0.5465,vtsPrac,26,0,26,0,1,,,,,,,,,,,,,,,,,,,,,,,
297931,2022-11-27_18h36.29.956,vts_reward_expectancy_bt,2022.2.4,MacIntel,60.0024001,Chrome,1440,900,,,,,0,792,,,,,,,,,,,,,,,,,167,U,hexagon,1,0,,2,,,,,,,,,,,,,,repeat,number,numRpt,f,0.7332,vtsPrac,27,0,27,0,1,,,,,,,,,,,,,,,,,,,,,,,
297931,2022-11-27_18h36.29.956,vts_reward_expectancy_bt,2022.2.4,MacIntel,60.0024001,Chrome,1440,900,,,,,0,792,,,,,,,,,,,,,,,,,125,S,star,1,0,,2,,,,,,,,,,,,,,repeat,number,numRpt,d,0.5488,vtsPrac,28,0,28,0,1,,,,,,,,,,,,,,,,,,,,,,,
297931,2022-11-27_18h36.29.956,vts_reward_expectancy_bt,2022.2.4,MacIntel,60.0024001,Chrome,1440,900,,,,,0,792,,,,,,,,,,,,,,,,,174,W,circle,1,0,,2,,,,,,,,,,,,,,repeat,number,numRpt,f,0.5914,vtsPrac,29,0,29,0,1,,,,,,,,,,,,,,,,,,,,,,,
297931,2022-11-27_18h36.29.956,vts_reward_expectancy_bt,2022.2.4,MacIntel,60.0024001,Chrome,1440,900,,,,,0,792,,,,,,,,,,,,,,,,,132,U,circle,1,0,,2,,,,,,,,,,,,,,switch,letter,lettSwt,k,0.6459,vtsPrac,30,0,30,0,1,,,,,,,,,,,,,,,,,,,,,,,
297931,2022-11-27_18h36.29.956,vts_reward_expectancy_bt,2022.2.4,MacIntel,60.0024001,Chrome,1440,900,,,,,0,792,,,,,,,,,,,,,,,,,160,F,triangle,1,0,,2,,,,,,,,,,,,,,repeat,letter,lettRpt,j,0.5865,vtsPrac,31,0,31,0,1,,,,,,,,,,,,,,,,,,,,,,,
297931,2022-11-27_18h36.29.956,vts_reward_expectancy_bt,2022.2.4,MacIntel,60.0024001,Chrome,1440,900,,,,,,,,,,,,,,,,,,,,,,,,,,,,,,,,,,,,,,,,,,,,,,,,,,,,,,,,,,,,,,,,,,,,,,,,,,,,
297931,2022-11-27_18h36.29.956,vts_reward_expectancy_bt,2022.2.4,MacIntel,60.0024001,Chrome,1440,900,,,,,,,,,,,,,,,,,,,,,,,,,,,,,,,,,,,,,,,,,,,,,,,,,,,,,,,,,,,,,,,,,,,,,,,,,,,,
297931,2022-11-27_18h36.29.956,vts_reward_expectancy_bt,2022.2.4,MacIntel,60.0024001,Chrome,1440,900,,,,,0,792,,,,,,,,,,,,,,,,,167,W,triangle,1,0,,,,,,,,,,,,,,,,switch,number,numSwt,f,0.7498,noRew,,,,,,0,0,0,0,0,1,,,,,,,,,,,,,,,,,
297931,2022-11-27_18h36.29.956,vts_reward_expectancy_bt,2022.2.4,MacIntel,60.0024001,Chrome,1440,900,,,,,0,792,,,,,,,,,,,,,,,,,160,S,circle,1,0,,,,,,,,,,,,,,,,repeat,number,numRpt,f,0.7661,noRew,,,,,,0,1,0,1,0,1,,,,,,,,,,,,,,,,,
297931,2022-11-27_18h36.29.956,vts_reward_expectancy_bt,2022.2.4,MacIntel,60.0024001,Chrome,1440,900,,,,,0,792,,,,,,,,,,,,,,,,,174,F,triangle,1,0,,,,,,,,,,,,,,,,switch,letter,lettSwt,j,0.5853,noRew,,,,,,0,2,0,2,0,1,,,,,,,,,,,,,,,,,
297931,2022-11-27_18h36.29.956,vts_reward_expectancy_bt,2022.2.4,MacIntel,60.0024001,Chrome,1440,900,,,,,0,792,,,,,,,,,,,,,,,,,132,D,circle,1,0,,,,,,,,,,,,,,,,switch,number,numSwt,d,0.6249,noRew,,,,,,0,3,0,3,0,1,,,,,,,,,,,,,,,,,
297931,2022-11-27_18h36.29.956,vts_reward_expectancy_bt,2022.2.4,MacIntel,60.0024001,Chrome,1440,900,,,,,0,792,,,,,,,,,,,,,,,,,167,W,star,1,0,,,,,,,,,,,,,,,,switch,letter,lettSwt,k,0.776,noRew,,,,,,0,4,0,4,0,1,,,,,,,,,,,,,,,,,
297931,2022-11-27_18h36.29.956,vts_reward_expectancy_bt,2022.2.4,MacIntel,60.0024001,Chrome,1440,900,,,,,0,792,,,,,,,,,,,,,,,,,160,S,circle,1,0,,,,,,,,,,,,,,,,repeat,letter,lettRpt,k,0.6594,noRew,,,,,,0,5,0,5,0,1,,,,,,,,,,,,,,,,,
297931,2022-11-27_18h36.29.956,vts_reward_expectancy_bt,2022.2.4,MacIntel,60.0024001,Chrome,1440,900,,,,,0,792,,,,,,,,,,,,,,,,,174,F,circle,1,0,,,,,,,,,,,,,,,,repeat,letter,lettRpt,j,0.7148,noRew,,,,,,0,6,0,6,0,1,,,,,,,,,,,,,,,,,
297931,2022-11-27_18h36.29.956,vts_reward_expectancy_bt,2022.2.4,MacIntel,60.0024001,Chrome,1440,900,,,,,0,792,,,,,,,,,,,,,,,,,132,D,triangle,0,0,,,,,,,,,,,,,,,,repeat,letter,NA,k,0.5469,noRew,,,,,,0,7,0,7,0,1,,,,,,,,,,,,,,,,,
297931,2022-11-27_18h36.29.956,vts_reward_expectancy_bt,2022.2.4,MacIntel,60.0024001,Chrome,1440,900,,,,,0,792,,,,,,,,,,,,,,,,,132,B,circle,1,1,,,,,,,,,,,,,,,,repeat,letter,lettRpt,j,0.7336,noRew,,,,,,0,8,0,8,0,1,,,,,,,,,,,,,,,,,
297931,2022-11-27_18h36.29.956,vts_reward_expectancy_bt,2022.2.4,MacIntel,60.0024001,Chrome,1440,900,,,,,0,792,,,,,,,,,,,,,,,,,146,F,triangle,1,0,,,,,,,,,,,,,,,,switch,number,numSwt,d,0.8783,noRew,,,,,,0,9,0,9,0,1,,,,,,,,,,,,,,,,,
297931,2022-11-27_18h36.29.956,vts_reward_expectancy_bt,2022.2.4,MacIntel,60.0024001,Chrome,1440,900,,,,,0,792,,,,,,,,,,,,,,,,,167,S,triangle,1,0,,,,,,,,,,,,,,,,repeat,number,numRpt,f,0.6566,noRew,,,,,,0,10,0,10,0,1,,,,,,,,,,,,,,,,,
297931,2022-11-27_18h36.29.956,vts_reward_expectancy_bt,2022.2.4,MacIntel,60.0024001,Chrome,1440,900,,,,,0,792,,,,,,,,,,,,,,,,,125,D,hexagon,1,0,,,,,,,,,,,,,,,,repeat,number,numRpt,d,0.6441,noRew,,,,,,0,11,0,11,0,1,,,,,,,,,,,,,,,,,
297931,2022-11-27_18h36.29.956,vts_reward_expectancy_bt,2022.2.4,MacIntel,60.0024001,Chrome,1440,900,,,,,0,792,,,,,,,,,,,,,,,,,160,W,triangle,1,0,,,,,,,,,,,,,,,,repeat,number,numRpt,f,0.741,noRew,,,,,,0,12,0,12,0,1,,,,,,,,,,,,,,,,,
297931,2022-11-27_18h36.29.956,vts_reward_expectancy_bt,2022.2.4,MacIntel,60.0024001,Chrome,1440,900,,,,,0,792,,,,,,,,,,,,,,,,,132,D,hexagon,1,0,,,,,,,,,,,,,,,,repeat,number,numRpt,d,0.944,noRew,,,,,,0,13,0,13,0,1,,,,,,,,,,,,,,,,,
297931,2022-11-27_18h36.29.956,vts_reward_expectancy_bt,2022.2.4,MacIntel,60.0024001,Chrome,1440,900,,,,,0,792,,,,,,,,,,,,,,,,,181,H,circle,1,0,,,,,,,,,,,,,,,,switch,letter,lettSwt,j,1.0327,noRew,,,,,,0,14,0,14,0,1,,,,,,,,,,,,,,,,,
297931,2022-11-27_18h36.29.956,vts_reward_expectancy_bt,2022.2.4,MacIntel,60.0024001,Chrome,1440,900,,,,,0,792,,,,,,,,,,,,,,,,,139,B,triangle,1,0,,,,,,,,,,,,,,,,switch,number,numSwt,d,0.8486,noRew,,,,,,0,15,0,15,0,1,,,,,,,,,,,,,,,,,
297931,2022-11-27_18h36.29.956,vts_reward_expectancy_bt,2022.2.4,MacIntel,60.0024001,Chrome,1440,900,,,,,0,792,,,,,,,,,,,,,,,,,139,S,hexagon,1,0,,,,,,,,,,,,,,,,repeat,number,numRpt,d,0.7669,noRew,,,,,,0,16,0,16,0,1,,,,,,,,,,,,,,,,,
297931,2022-11-27_18h36.29.956,vts_reward_expectancy_bt,2022.2.4,MacIntel,60.0024001,Chrome,1440,900,,,,,0,792,,,,,,,,,,,,,,,,,132,W,circle,1,0,,,,,,,,,,,,,,,,switch,letter,lettSwt,k,0.9834,noRew,,,,,,0,17,0,17,0,1,,,,,,,,,,,,,,,,,
297931,2022-11-27_18h36.29.956,vts_reward_expectancy_bt,2022.2.4,MacIntel,60.0024001,Chrome,1440,900,,,,,0,792,,,,,,,,,,,,,,,,,125,H,hexagon,1,0,,,,,,,,,,,,,,,,repeat,letter,lettRpt,j,0.7906,noRew,,,,,,0,18,0,18,0,1,,,,,,,,,,,,,,,,,
297931,2022-11-27_18h36.29.956,vts_reward_expectancy_bt,2022.2.4,MacIntel,60.0024001,Chrome,1440,900,,,,,0,792,,,,,,,,,,,,,,,,,167,Y,circle,1,0,,,,,,,,,,,,,,,,switch,number,numSwt,f,0.7589,noRew,,,,,,0,19,0,19,0,1,,,,,,,,,,,,,,,,,
297931,2022-11-27_18h36.29.956,vts_reward_expectancy_bt,2022.2.4,MacIntel,60.0024001,Chrome,1440,900,,,,,0,792,,,,,,,,,,,,,,,,,125,H,circle,1,0,,,,,,,,,,,,,,,,repeat,number,numRpt,d,0.6438,noRew,,,,,,0,20,0,20,0,1,,,,,,,,,,,,,,,,,
297931,2022-11-27_18h36.29.956,vts_reward_expectancy_bt,2022.2.4,MacIntel,60.0024001,Chrome,1440,900,,,,,0,792,,,,,,,,,,,,,,,,,181,U,hexagon,1,0,,,,,,,,,,,,,,,,repeat,number,numRpt,f,1.3136,noRew,,,,,,0,21,0,21,0,1,,,,,,,,,,,,,,,,,
297931,2022-11-27_18h36.29.956,vts_reward_expectancy_bt,2022.2.4,MacIntel,60.0024001,Chrome,1440,900,,,,,0,792,,,,,,,,,,,,,,,,,167,D,hexagon,1,0,,,,,,,,,,,,,,,,switch,letter,lettSwt,j,0.763,noRew,,,,,,0,22,0,22,0,1,,,,,,,,,,,,,,,,,
297931,2022-11-27_18h36.29.956,vts_reward_expectancy_bt,2022.2.4,MacIntel,60.0024001,Chrome,1440,900,,,,,0,792,,,,,,,,,,,,,,,,,132,S,star,1,0,,,,,,,,,,,,,,,,repeat,letter,lettRpt,k,1.0487,noRew,,,,,,0,23,0,23,0,1,,,,,,,,,,,,,,,,,
297931,2022-11-27_18h36.29.956,vts_reward_expectancy_bt,2022.2.4,MacIntel,60.0024001,Chrome,1440,900,,,,,0,792,,,,,,,,,,,,,,,,,167,W,circle,1,0,,,,,,,,,,,,,,,,repeat,letter,lettRpt,k,0.8793,noRew,,,,,,0,24,0,24,0,1,,,,,,,,,,,,,,,,,
297931,2022-11-27_18h36.29.956,vts_reward_expectancy_bt,2022.2.4,MacIntel,60.0024001,Chrome,1440,900,,,,,0,792,,,,,,,,,,,,,,,,,181,F,triangle,1,0,,,,,,,,,,,,,,,,repeat,letter,lettRpt,j,0.6841,noRew,,,,,,0,25,0,25,0,1,,,,,,,,,,,,,,,,,
297931,2022-11-27_18h36.29.956,vts_reward_expectancy_bt,2022.2.4,MacIntel,60.0024001,Chrome,1440,900,,,,,0,792,,,,,,,,,,,,,,,,,160,B,hexagon,1,0,,,,,,,,,,,,,,,,repeat,letter,lettRpt,j,0.8485,noRew,,,,,,0,26,0,26,0,1,,,,,,,,,,,,,,,,,
297931,2022-11-27_18h36.29.956,vts_reward_expectancy_bt,2022.2.4,MacIntel,60.0024001,Chrome,1440,900,,,,,0,792,,,,,,,,,,,,,,,,,132,D,circle,1,0,,,,,,,,,,,,,,,,switch,number,numSwt,d,1.0105,noRew,,,,,,0,27,0,27,0,1,,,,,,,,,,,,,,,,,
297931,2022-11-27_18h36.29.956,vts_reward_expectancy_bt,2022.2.4,MacIntel,60.0024001,Chrome,1440,900,,,,,0,792,,,,,,,,,,,,,,,,,132,U,hexagon,1,0,,,,,,,,,,,,,,,,repeat,number,numRpt,d,0.993,noRew,,,,,,0,28,0,28,0,1,,,,,,,,,,,,,,,,,
297931,2022-11-27_18h36.29.956,vts_reward_expectancy_bt,2022.2.4,MacIntel,60.0024001,Chrome,1440,900,,,,,0,792,,,,,,,,,,,,,,,,,174,Y,star,1,0,,,,,,,,,,,,,,,,repeat,number,numRpt,f,1.0426,noRew,,,,,,0,29,0,29,0,1,,,,,,,,,,,,,,,,,
297931,2022-11-27_18h36.29.956,vts_reward_expectancy_bt,2022.2.4,MacIntel,60.0024001,Chrome,1440,900,,,,,0,792,,,,,,,,,,,,,,,,,181,S,star,1,0,,,,,,,,,,,,,,,,switch,letter,lettSwt,k,0.5925,noRew,,,,,,0,30,0,30,0,1,,,,,,,,,,,,,,,,,
297931,2022-11-27_18h36.29.956,vts_reward_expectancy_bt,2022.2.4,MacIntel,60.0024001,Chrome,1440,900,,,,,0,792,,,,,,,,,,,,,,,,,167,B,circle,1,0,,,,,,,,,,,,,,,,repeat,letter,lettRpt,j,0.781,noRew,,,,,,0,31,0,31,0,1,,,,,,,,,,,,,,,,,
297931,2022-11-27_18h36.29.956,vts_reward_expectancy_bt,2022.2.4,MacIntel,60.0024001,Chrome,1440,900,,,,,0,792,,,,,,,,,,,,,,,,,146,B,triangle,1,0,,,,,,,,,,,,,,,,switch,number,numSwt,d,0.6664,noRew,,,,,,0,32,0,32,0,1,,,,,,,,,,,,,,,,,
297931,2022-11-27_18h36.29.956,vts_reward_expectancy_bt,2022.2.4,MacIntel,60.0024001,Chrome,1440,900,,,,,0,792,,,,,,,,,,,,,,,,,125,H,circle,1,0,,,,,,,,,,,,,,,,repeat,number,numRpt,d,0.6774,noRew,,,,,,0,33,0,33,0,1,,,,,,,,,,,,,,,,,
297931,2022-11-27_18h36.29.956,vts_reward_expectancy_bt,2022.2.4,MacIntel,60.0024001,Chrome,1440,900,,,,,0,792,,,,,,,,,,,,,,,,,132,F,star,1,0,,,,,,,,,,,,,,,,switch,letter,lettSwt,j,0.7295,noRew,,,,,,0,34,0,34,0,1,,,,,,,,,,,,,,,,,
297931,2022-11-27_18h36.29.956,vts_reward_expectancy_bt,2022.2.4,MacIntel,60.0024001,Chrome,1440,900,,,,,0,792,,,,,,,,,,,,,,,,,174,U,triangle,1,0,,,,,,,,,,,,,,,,switch,number,numSwt,f,0.6652,noRew,,,,,,0,35,0,35,0,1,,,,,,,,,,,,,,,,,
297931,2022-11-27_18h36.29.956,vts_reward_expectancy_bt,2022.2.4,MacIntel,60.0024001,Chrome,1440,900,,,,,0,792,,,,,,,,,,,,,,,,,139,S,circle,1,0,,,,,,,,,,,,,,,,repeat,number,numRpt,d,1.1322,noRew,,,,,,0,36,0,36,0,1,,,,,,,,,,,,,,,,,
297931,2022-11-27_18h36.29.956,vts_reward_expectancy_bt,2022.2.4,MacIntel,60.0024001,Chrome,1440,900,,,,,0,792,,,,,,,,,,,,,,,,,181,W,star,1,0,,,,,,,,,,,,,,,,switch,letter,lettSwt,k,0.7456,noRew,,,,,,0,37,0,37,0,1,,,,,,,,,,,,,,,,,
297931,2022-11-27_18h36.29.956,vts_reward_expectancy_bt,2022.2.4,MacIntel,60.0024001,Chrome,1440,900,,,,,0,792,,,,,,,,,,,,,,,,,160,H,hexagon,1,0,,,,,,,,,,,,,,,,switch,number,numSwt,f,0.7328,noRew,,,,,,0,38,0,38,0,1,,,,,,,,,,,,,,,,,
297931,2022-11-27_18h36.29.956,vts_reward_expectancy_bt,2022.2.4,MacIntel,60.0024001,Chrome,1440,900,,,,,0,792,,,,,,,,,,,,,,,,,146,D,triangle,1,0,,,,,,,,,,,,,,,,repeat,number,numRpt,d,0.7641,noRew,,,,,,0,39,0,39,0,1,,,,,,,,,,,,,,,,,
297931,2022-11-27_18h36.29.956,vts_reward_expectancy_bt,2022.2.4,MacIntel,60.0024001,Chrome,1440,900,,,,,0,792,,,,,,,,,,,,,,,,,146,U,circle,1,0,,,,,,,,,,,,,,,,switch,letter,lettSwt,k,0.9043,noRew,,,,,,0,40,0,40,0,1,,,,,,,,,,,,,,,,,
297931,2022-11-27_18h36.29.956,vts_reward_expectancy_bt,2022.2.4,MacIntel,60.0024001,Chrome,1440,900,,,,,0,792,,,,,,,,,,,,,,,,,125,F,hexagon,1,0,,,,,,,,,,,,,,,,repeat,letter,lettRpt,j,0.6527,noRew,,,,,,0,41,0,41,0,1,,,,,,,,,,,,,,,,,
297931,2022-11-27_18h36.29.956,vts_reward_expectancy_bt,2022.2.4,MacIntel,60.0024001,Chrome,1440,900,,,,,0,792,,,,,,,,,,,,,,,,,174,B,triangle,1,0,,,,,,,,,,,,,,,,repeat,letter,lettRpt,j,0.7583,noRew,,,,,,0,42,0,42,0,1,,,,,,,,,,,,,,,,,
297931,2022-11-27_18h36.29.956,vts_reward_expectancy_bt,2022.2.4,MacIntel,60.0024001,Chrome,1440,900,,,,,0,792,,,,,,,,,,,,,,,,,181,S,hexagon,1,0,,,,,,,,,,,,,,,,repeat,letter,lettRpt,k,0.6622,noRew,,,,,,0,43,0,43,0,1,,,,,,,,,,,,,,,,,
297931,2022-11-27_18h36.29.956,vts_reward_expectancy_bt,2022.2.4,MacIntel,60.0024001,Chrome,1440,900,,,,,0,792,,,,,,,,,,,,,,,,,125,B,hexagon,1,0,,,,,,,,,,,,,,,,repeat,letter,lettRpt,j,0.5934,noRew,,,,,,0,44,0,44,0,1,,,,,,,,,,,,,,,,,
297931,2022-11-27_18h36.29.956,vts_reward_expectancy_bt,2022.2.4,MacIntel,60.0024001,Chrome,1440,900,,,,,0,792,,,,,,,,,,,,,,,,,167,U,star,1,0,,,,,,,,,,,,,,,,switch,number,numSwt,f,0.6419,noRew,,,,,,0,45,0,45,0,1,,,,,,,,,,,,,,,,,
297931,2022-11-27_18h36.29.956,vts_reward_expectancy_bt,2022.2.4,MacIntel,60.0024001,Chrome,1440,900,,,,,0,792,,,,,,,,,,,,,,,,,146,Y,circle,1,0,,,,,,,,,,,,,,,,repeat,number,numRpt,d,1.1987,noRew,,,,,,0,46,0,46,0,1,,,,,,,,,,,,,,,,,
297931,2022-11-27_18h36.29.956,vts_reward_expectancy_bt,2022.2.4,MacIntel,60.0024001,Chrome,1440,900,,,,,0,792,,,,,,,,,,,,,,,,,139,D,triangle,1,0,,,,,,,,,,,,,,,,switch,letter,lettSwt,j,0.6836,noRew,,,,,,0,47,0,47,0,1,,,,,,,,,,,,,,,,,
297931,2022-11-27_18h36.29.956,vts_reward_expectancy_bt,2022.2.4,MacIntel,60.0024001,Chrome,1440,900,,,,,0,792,,,,,,,,,,,,,,,,,167,Y,circle,1,0,,,,,,,,,,,,,,,,repeat,letter,lettRpt,k,0.6941,noRew,,,,,,0,48,0,48,0,1,,,,,,,,,,,,,,,,,
297931,2022-11-27_18h36.29.956,vts_reward_expectancy_bt,2022.2.4,MacIntel,60.0024001,Chrome,1440,900,,,,,0,792,,,,,,,,,,,,,,,,,174,W,triangle,1,0,,,,,,,,,,,,,,,,switch,number,numSwt,f,0.7933,noRew,,,,,,0,49,0,49,0,1,,,,,,,,,,,,,,,,,
297931,2022-11-27_18h36.29.956,vts_reward_expectancy_bt,2022.2.4,MacIntel,60.0024001,Chrome,1440,900,,,,,0,792,,,,,,,,,,,,,,,,,132,U,star,1,0,,,,,,,,,,,,,,,,repeat,number,numRpt,d,0.7267,noRew,,,,,,0,50,0,50,0,1,,,,,,,,,,,,,,,,,
297931,2022-11-27_18h36.29.956,vts_reward_expectancy_bt,2022.2.4,MacIntel,60.0024001,Chrome,1440,900,,,,,0,792,,,,,,,,,,,,,,,,,139,S,circle,1,0,,,,,,,,,,,,,,,,repeat,number,numRpt,d,0.6815,noRew,,,,,,0,51,0,51,0,1,,,,,,,,,,,,,,,,,
297931,2022-11-27_18h36.29.956,vts_reward_expectancy_bt,2022.2.4,MacIntel,60.0024001,Chrome,1440,900,,,,,0,792,,,,,,,,,,,,,,,,,139,H,circle,1,0,,,,,,,,,,,,,,,,repeat,number,numRpt,d,0.6003,noRew,,,,,,0,52,0,52,0,1,,,,,,,,,,,,,,,,,
297931,2022-11-27_18h36.29.956,vts_reward_expectancy_bt,2022.2.4,MacIntel,60.0024001,Chrome,1440,900,,,,,0,792,,,,,,,,,,,,,,,,,167,U,triangle,1,0,,,,,,,,,,,,,,,,switch,letter,lettSwt,k,0.8331,noRew,,,,,,0,53,0,53,0,1,,,,,,,,,,,,,,,,,
297931,2022-11-27_18h36.29.956,vts_reward_expectancy_bt,2022.2.4,MacIntel,60.0024001,Chrome,1440,900,,,,,0,792,,,,,,,,,,,,,,,,,174,F,circle,0,0,,,,,,,,,,,,,,,,repeat,letter,NA,k,0.6793,noRew,,,,,,0,54,0,54,0,1,,,,,,,,,,,,,,,,,
297931,2022-11-27_18h36.29.956,vts_reward_expectancy_bt,2022.2.4,MacIntel,60.0024001,Chrome,1440,900,,,,,0,792,,,,,,,,,,,,,,,,,160,B,hexagon,1,1,,,,,,,,,,,,,,,,repeat,letter,lettRpt,j,0.7762,noRew,,,,,,0,55,0,55,0,1,,,,,,,,,,,,,,,,,
297931,2022-11-27_18h36.29.956,vts_reward_expectancy_bt,2022.2.4,MacIntel,60.0024001,Chrome,1440,900,,,,,0,792,,,,,,,,,,,,,,,,,146,Y,star,1,0,,,,,,,,,,,,,,,,switch,number,numSwt,d,1.2469,noRew,,,,,,0,56,0,56,0,1,,,,,,,,,,,,,,,,,
297931,2022-11-27_18h36.29.956,vts_reward_expectancy_bt,2022.2.4,MacIntel,60.0024001,Chrome,1440,900,,,,,0,792,,,,,,,,,,,,,,,,,132,U,hexagon,1,0,,,,,,,,,,,,,,,,repeat,number,numRpt,d,0.6753,noRew,,,,,,0,57,0,57,0,1,,,,,,,,,,,,,,,,,
297931,2022-11-27_18h36.29.956,vts_reward_expectancy_bt,2022.2.4,MacIntel,60.0024001,Chrome,1440,900,,,,,0,792,,,,,,,,,,,,,,,,,125,H,circle,1,0,,,,,,,,,,,,,,,,repeat,number,numRpt,d,0.5617,noRew,,,,,,0,58,0,58,0,1,,,,,,,,,,,,,,,,,
297931,2022-11-27_18h36.29.956,vts_reward_expectancy_bt,2022.2.4,MacIntel,60.0024001,Chrome,1440,900,,,,,0,792,,,,,,,,,,,,,,,,,160,B,star,1,0,,,,,,,,,,,,,,,,repeat,number,numRpt,f,0.7326,noRew,,,,,,0,59,0,59,0,1,,,,,,,,,,,,,,,,,
297931,2022-11-27_18h36.29.956,vts_reward_expectancy_bt,2022.2.4,MacIntel,60.0024001,Chrome,1440,900,,,,,0,792,,,,,,,,,,,,,,,,,139,D,triangle,1,0,,,,,,,,,,,,,,,,repeat,number,numRpt,d,1.0426,noRew,,,,,,0,60,0,60,0,1,,,,,,,,,,,,,,,,,
297931,2022-11-27_18h36.29.956,vts_reward_expectancy_bt,2022.2.4,MacIntel,60.0024001,Chrome,1440,900,,,,,0,792,,,,,,,,,,,,,,,,,181,B,circle,1,0,,,,,,,,,,,,,,,,repeat,number,numRpt,f,0.6682,noRew,,,,,,0,61,0,61,0,1,,,,,,,,,,,,,,,,,
297931,2022-11-27_18h36.29.956,vts_reward_expectancy_bt,2022.2.4,MacIntel,60.0024001,Chrome,1440,900,,,,,0,792,,,,,,,,,,,,,,,,,146,H,hexagon,1,0,,,,,,,,,,,,,,,,switch,letter,lettSwt,j,1.0994,noRew,,,,,,0,62,0,62,0,1,,,,,,,,,,,,,,,,,
297931,2022-11-27_18h36.29.956,vts_reward_expectancy_bt,2022.2.4,MacIntel,60.0024001,Chrome,1440,900,,,,,0,792,,,,,,,,,,,,,,,,,167,W,circle,1,0,,,,,,,,,,,,,,,,repeat,letter,lettRpt,k,0.5812,noRew,,,,,,0,63,0,63,0,1,,,,,,,,,,,,,,,,,
297931,2022-11-27_18h36.29.956,vts_reward_expectancy_bt,2022.2.4,MacIntel,60.0024001,Chrome,1440,900,,,,,,,,,,,,,,,,,,,,,,,,,,,,,,,,,,,,,,,,,,,,,,,,,,,,,,,,,,,,,,,,,,,,,,,,,,,,
297931,2022-11-27_18h36.29.956,vts_reward_expectancy_bt,2022.2.4,MacIntel,60.0024001,Chrome,1440,900,,,,,0,792,,,,,,,,,,,,,,,,,174,D,hexagon,1,0,,,,,,,,,,,,,,,,switch,number,numSwt,f,0.9941,Hi,,,,,,0,,,,,,space,4.2336,high,0,0,0,0,1,,,,,,,,,
297931,2022-11-27_18h36.29.956,vts_reward_expectancy_bt,2022.2.4,MacIntel,60.0024001,Chrome,1440,900,,,,,1,793,,,,,,,,,,,,,,,,,132,Y,star,1,0,,,,,,,,,,,,,,,,switch,letter,lettSwt,k,0.7421,Lo,,,,,,0,,,,,,,,high,1,0,1,0,1,,,,,,,,,
297931,2022-11-27_18h36.29.956,vts_reward_expectancy_bt,2022.2.4,MacIntel,60.0024001,Chrome,1440,900,,,,,10,803,,,,,,,,,,,,,,,,,181,U,circle,1,0,,,,,,,,,,,,,,,,switch,number,numSwt,f,0.5868,Lo,,,,,,0,,,,,,,,high,2,0,2,0,1,,,,,,,,,
297931,2022-11-27_18h36.29.956,vts_reward_expectancy_bt,2022.2.4,MacIntel,60.0024001,Chrome,1440,900,,,,,0,803,,,,,,,,,,,,,,,,,146,H,triangle,1,0,,,,,,,,,,,,,,,,repeat,number,numRpt,d,0.8644,Hi,,,,,,0,,,,,,,,high,3,0,3,0,1,,,,,,,,,
297931,2022-11-27_18h36.29.956,vts_reward_expectancy_bt,2022.2.4,MacIntel,60.0024001,Chrome,1440,900,,,,,1,804,,,,,,,,,,,,,,,,,139,S,hexagon,1,0,,,,,,,,,,,,,,,,repeat,number,numRpt,d,0.5829,Hi,,,,,,0,,,,,,,,high,4,0,4,0,1,,,,,,,,,
297931,2022-11-27_18h36.29.956,vts_reward_expectancy_bt,2022.2.4,MacIntel,60.0024001,Chrome,1440,900,,,,,1,805,,,,,,,,,,,,,,,,,160,F,star,1,0,,,,,,,,,,,,,,,,switch,letter,lettSwt,j,0.6133,Lo,,,,,,0,,,,,,,,high,5,0,5,0,1,,,,,,,,,
297931,2022-11-27_18h36.29.956,vts_reward_expectancy_bt,2022.2.4,MacIntel,60.0024001,Chrome,1440,900,,,,,0,805,,,,,,,,,,,,,,,,,167,W,circle,0,0,,,,,,,,,,,,,,,,switch,number,NA,d,0.8946,Lo,,,,,,0,,,,,,,,high,6,0,6,0,1,,,,,,,,,
297931,2022-11-27_18h36.29.956,vts_reward_expectancy_bt,2022.2.4,MacIntel,60.0024001,Chrome,1440,900,,,,,0,805,,,,,,,,,,,,,,,,,125,B,triangle,1,1,,,,,,,,,,,,,,,,repeat,number,numRpt,d,0.6904,Hi,,,,,,0,,,,,,,,high,7,0,7,0,1,,,,,,,,,
297931,2022-11-27_18h36.29.956,vts_reward_expectancy_bt,2022.2.4,MacIntel,60.0024001,Chrome,1440,900,,,,,0,805,,,,,,,,,,,,,,,,,174,D,hexagon,1,0,,,,,,,,,,,,,,,,switch,letter,lettSwt,j,0.7667,Hi,,,,,,0,,,,,,,,high,8,0,8,0,1,,,,,,,,,
297931,2022-11-27_18h36.29.956,vts_reward_expectancy_bt,2022.2.4,MacIntel,60.0024001,Chrome,1440,900,,,,,1,806,,,,,,,,,,,,,,,,,132,Y,circle,1,0,,,,,,,,,,,,,,,,repeat,letter,lettRpt,k,0.5382,Lo,,,,,,0,,,,,,,,high,9,0,9,0,1,,,,,,,,,
297931,2022-11-27_18h36.29.956,vts_reward_expectancy_bt,2022.2.4,MacIntel,60.0024001,Chrome,1440,900,,,,,10,816,,,,,,,,,,,,,,,,,181,U,triangle,1,0,,,,,,,,,,,,,,,,repeat,letter,lettRpt,k,0.4888,Hi,,,,,,0,,,,,,,,high,10,0,10,0,1,,,,,,,,,
297931,2022-11-27_18h36.29.956,vts_reward_expectancy_bt,2022.2.4,MacIntel,60.0024001,Chrome,1440,900,,,,,1,817,,,,,,,,,,,,,,,,,146,H,star,1,0,,,,,,,,,,,,,,,,repeat,letter,lettRpt,j,0.5488,Lo,,,,,,0,,,,,,,,high,11,0,11,0,1,,,,,,,,,
297931,2022-11-27_18h36.29.956,vts_reward_expectancy_bt,2022.2.4,MacIntel,60.0024001,Chrome,1440,900,,,,,1,818,,,,,,,,,,,,,,,,,139,S,circle,1,0,,,,,,,,,,,,,,,,switch,number,numSwt,d,0.5438,Lo,,,,,,0,,,,,,,,high,12,0,12,0,1,,,,,,,,,
297931,2022-11-27_18h36.29.956,vts_reward_expectancy_bt,2022.2.4,MacIntel,60.0024001,Chrome,1440,900,,,,,10,828,,,,,,,,,,,,,,,,,160,F,hexagon,1,0,,,,,,,,,,,,,,,,repeat,number,numRpt,f,0.6323,Hi,,,,,,0,,,,,,,,high,13,0,13,0,1,,,,,,,,,
297931,2022-11-27_18h36.29.956,vts_reward_expectancy_bt,2022.2.4,MacIntel,60.0024001,Chrome,1440,900,,,,,1,829,,,,,,,,,,,,,,,,,167,W,star,1,0,,,,,,,,,,,,,,,,switch,letter,lettSwt,k,0.5263,Lo,,,,,,0,,,,,,,,high,14,0,14,0,1,,,,,,,,,
297931,2022-11-27_18h36.29.956,vts_reward_expectancy_bt,2022.2.4,MacIntel,60.0024001,Chrome,1440,900,,,,,10,839,,,,,,,,,,,,,,,,,125,B,triangle,1,0,,,,,,,,,,,,,,,,switch,number,numSwt,d,0.5413,Hi,,,,,,0,,,,,,,,high,15,0,15,0,1,,,,,,,,,
297931,2022-11-27_18h36.29.956,vts_reward_expectancy_bt,2022.2.4,MacIntel,60.0024001,Chrome,1440,900,,,,,0,839,,,,,,,,,,,,,,,,,132,D,circle,0,0,,,,,,,,,,,,,,,,switch,letter,NA,k,0.5075,Hi,,,,,,0,,,,,,,,high,16,0,16,0,1,,,,,,,,,
297931,2022-11-27_18h36.29.956,vts_reward_expectancy_bt,2022.2.4,MacIntel,60.0024001,Chrome,1440,900,,,,,1,840,,,,,,,,,,,,,,,,,139,F,star,1,1,,,,,,,,,,,,,,,,switch,number,numSwt,d,0.6082,Lo,,,,,,0,,,,,,,,high,17,0,17,0,1,,,,,,,,,
297931,2022-11-27_18h36.29.956,vts_reward_expectancy_bt,2022.2.4,MacIntel,60.0024001,Chrome,1440,900,,,,,10,850,,,,,,,,,,,,,,,,,125,Y,hexagon,1,0,,,,,,,,,,,,,,,,switch,letter,lettSwt,k,0.6486,Hi,,,,,,0,,,,,,,,high,18,0,18,0,1,,,,,,,,,
297931,2022-11-27_18h36.29.956,vts_reward_expectancy_bt,2022.2.4,MacIntel,60.0024001,Chrome,1440,900,,,,,1,851,,,,,,,,,,,,,,,,,181,U,triangle,1,0,,,,,,,,,,,,,,,,repeat,letter,lettRpt,k,0.5487,Hi,,,,,,0,,,,,,,,high,19,0,19,0,1,,,,,,,,,
297931,2022-11-27_18h36.29.956,vts_reward_expectancy_bt,2022.2.4,MacIntel,60.0024001,Chrome,1440,900,,,,,0,851,,,,,,,,,,,,,,,,,167,B,triangle,0,0,,,,,,,,,,,,,,,,switch,number,NA,d,0.6413,Hi,,,,,,0,,,,,,,,high,20,0,20,0,1,,,,,,,,,
297931,2022-11-27_18h36.29.956,vts_reward_expectancy_bt,2022.2.4,MacIntel,60.0024001,Chrome,1440,900,,,,,1,852,,,,,,,,,,,,,,,,,174,S,star,1,1,,,,,,,,,,,,,,,,repeat,number,numRpt,f,0.5715,Lo,,,,,,0,,,,,,,,high,21,0,21,0,1,,,,,,,,,
297931,2022-11-27_18h36.29.956,vts_reward_expectancy_bt,2022.2.4,MacIntel,60.0024001,Chrome,1440,900,,,,,1,853,,,,,,,,,,,,,,,,,146,W,circle,1,0,,,,,,,,,,,,,,,,repeat,number,numRpt,d,0.5913,Lo,,,,,,0,,,,,,,,high,22,0,22,0,1,,,,,,,,,
297931,2022-11-27_18h36.29.956,vts_reward_expectancy_bt,2022.2.4,MacIntel,60.0024001,Chrome,1440,900,,,,,0,853,,,,,,,,,,,,,,,,,160,H,hexagon,0,0,,,,,,,,,,,,,,,,switch,letter,NA,k,0.7304,Lo,,,,,,0,,,,,,,,high,23,0,23,0,1,,,,,,,,,
297931,2022-11-27_18h36.29.956,vts_reward_expectancy_bt,2022.2.4,MacIntel,60.0024001,Chrome,1440,900,,,,,1,854,,,,,,,,,,,,,,,,,132,S,star,1,1,,,,,,,,,,,,,,,,switch,number,numSwt,d,1.2408,Lo,,,,,,0,,,,,,,,high,24,0,24,0,1,,,,,,,,,
297931,2022-11-27_18h36.29.956,vts_reward_expectancy_bt,2022.2.4,MacIntel,60.0024001,Chrome,1440,900,,,,,0,854,,,,,,,,,,,,,,,,,160,B,hexagon,1,0,,,,,,,,,,,,,,,,switch,letter,lettSwt,j,0.7638,Hi,,,,,,0,,,,,,,,high,25,0,25,0,1,,,,,,,,,
297931,2022-11-27_18h36.29.956,vts_reward_expectancy_bt,2022.2.4,MacIntel,60.0024001,Chrome,1440,900,,,,,1,855,,,,,,,,,,,,,,,,,174,W,circle,1,0,,,,,,,,,,,,,,,,switch,number,numSwt,f,0.5801,Lo,,,,,,0,,,,,,,,high,26,0,26,0,1,,,,,,,,,
297931,2022-11-27_18h36.29.956,vts_reward_expectancy_bt,2022.2.4,MacIntel,60.0024001,Chrome,1440,900,,,,,0,855,,,,,,,,,,,,,,,,,125,F,triangle,0,0,,,,,,,,,,,,,,,,switch,letter,NA,k,0.4975,Lo,,,,,,0,,,,,,,,high,27,0,27,0,1,,,,,,,,,
297931,2022-11-27_18h36.29.956,vts_reward_expectancy_bt,2022.2.4,MacIntel,60.0024001,Chrome,1440,900,,,,,1,856,,,,,,,,,,,,,,,,,181,Y,star,1,1,,,,,,,,,,,,,,,,switch,number,numSwt,f,1.7869,Lo,,,,,,0,,,,,,,,high,28,0,28,0,1,,,,,,,,,
297931,2022-11-27_18h36.29.956,vts_reward_expectancy_bt,2022.2.4,MacIntel,60.0024001,Chrome,1440,900,,,,,1,857,,,,,,,,,,,,,,,,,167,D,circle,1,0,,,,,,,,,,,,,,,,repeat,number,numRpt,f,0.8804,Lo,,,,,,0,,,,,,,,high,29,0,29,0,1,,,,,,,,,
297931,2022-11-27_18h36.29.956,vts_reward_expectancy_bt,2022.2.4,MacIntel,60.0024001,Chrome,1440,900,,,,,10,867,,,,,,,,,,,,,,,,,139,H,triangle,1,0,,,,,,,,,,,,,,,,repeat,number,numRpt,d,0.631,Hi,,,,,,0,,,,,,,,high,30,0,30,0,1,,,,,,,,,
297931,2022-11-27_18h36.29.956,vts_reward_expectancy_bt,2022.2.4,MacIntel,60.0024001,Chrome,1440,900,,,,,0,867,,,,,,,,,,,,,,,,,146,U,hexagon,1,0,,,,,,,,,,,,,,,,repeat,number,numRpt,d,0.7814,Hi,,,,,,0,,,,,,,,high,31,0,31,0,1,,,,,,,,,
297931,2022-11-27_18h36.29.956,vts_reward_expectancy_bt,2022.2.4,MacIntel,60.0024001,Chrome,1440,900,,,,,0,867,,,,,,,,,,,,,,,,,160,B,circle,0,0,,,,,,,,,,,,,,,,repeat,number,NA,d,0.9449,Hi,,,,,,1,,,,,,space,1.8474,high,0,0,0,0,1,,,,,,,,,
297931,2022-11-27_18h36.29.956,vts_reward_expectancy_bt,2022.2.4,MacIntel,60.0024001,Chrome,1440,900,,,,,1,868,,,,,,,,,,,,,,,,,174,S,star,1,1,,,,,,,,,,,,,,,,repeat,number,numRpt,f,0.5822,Lo,,,,,,1,,,,,,,,high,1,0,1,0,1,,,,,,,,,
297931,2022-11-27_18h36.29.956,vts_reward_expectancy_bt,2022.2.4,MacIntel,60.0024001,Chrome,1440,900,,,,,0,868,,,,,,,,,,,,,,,,,167,H,triangle,1,0,,,,,,,,,,,,,,,,switch,letter,lettSwt,j,0.8015,Hi,,,,,,1,,,,,,,,high,2,0,2,0,1,,,,,,,,,
297931,2022-11-27_18h36.29.956,vts_reward_expectancy_bt,2022.2.4,MacIntel,60.0024001,Chrome,1440,900,,,,,1,869,,,,,,,,,,,,,,,,,146,Y,hexagon,1,0,,,,,,,,,,,,,,,,switch,number,numSwt,d,0.5337,Hi,,,,,,1,,,,,,,,high,3,0,3,0,1,,,,,,,,,
297931,2022-11-27_18h36.29.956,vts_reward_expectancy_bt,2022.2.4,MacIntel,60.0024001,Chrome,1440,900,,,,,1,870,,,,,,,,,,,,,,,,,125,U,circle,1,0,,,,,,,,,,,,,,,,repeat,number,numRpt,d,0.5966,Lo,,,,,,1,,,,,,,,high,4,0,4,0,1,,,,,,,,,
297931,2022-11-27_18h36.29.956,vts_reward_expectancy_bt,2022.2.4,MacIntel,60.0024001,Chrome,1440,900,,,,,1,871,,,,,,,,,,,,,,,,,181,W,star,1,0,,,,,,,,,,,,,,,,repeat,number,numRpt,f,0.5314,Lo,,,,,,1,,,,,,,,high,5,0,5,0,1,,,,,,,,,
297931,2022-11-27_18h36.29.956,vts_reward_expectancy_bt,2022.2.4,MacIntel,60.0024001,Chrome,1440,900,,,,,10,881,,,,,,,,,,,,,,,,,132,F,triangle,1,0,,,,,,,,,,,,,,,,switch,letter,lettSwt,j,0.4937,Hi,,,,,,1,,,,,,,,high,6,0,6,0,1,,,,,,,,,
297931,2022-11-27_18h36.29.956,vts_reward_expectancy_bt,2022.2.4,MacIntel,60.0024001,Chrome,1440,900,,,,,0,881,,,,,,,,,,,,,,,,,139,D,hexagon,0,0,,,,,,,,,,,,,,,,repeat,letter,NA,k,0.4953,Hi,,,,,,1,,,,,,,,high,7,0,7,0,1,,,,,,,,,
297931,2022-11-27_18h36.29.956,vts_reward_expectancy_bt,2022.2.4,MacIntel,60.0024001,Chrome,1440,900,,,,,0,881,,,,,,,,,,,,,,,,,160,B,hexagon,0,1,,,,,,,,,,,,,,,,repeat,letter,NA,k,0.7614,Hi,,,,,,1,,,,,,,,high,8,0,8,0,1,,,,,,,,,
297931,2022-11-27_18h36.29.956,vts_reward_expectancy_bt,2022.2.4,MacIntel,60.0024001,Chrome,1440,900,,,,,1,882,,,,,,,,,,,,,,,,,174,S,circle,1,1,,,,,,,,,,,,,,,,repeat,letter,lettRpt,k,0.5614,Lo,,,,,,1,,,,,,,,high,9,0,9,0,1,,,,,,,,,
297931,2022-11-27_18h36.29.956,vts_reward_expectancy_bt,2022.2.4,MacIntel,60.0024001,Chrome,1440,900,,,,,1,883,,,,,,,,,,,,,,,,,167,H,star,1,0,,,,,,,,,,,,,,,,switch,number,numSwt,f,0.7008,Lo,,,,,,1,,,,,,,,high,10,0,10,0,1,,,,,,,,,
297931,2022-11-27_18h36.29.956,vts_reward_expectancy_bt,2022.2.4,MacIntel,60.0024001,Chrome,1440,900,,,,,10,893,,,,,,,,,,,,,,,,,146,Y,triangle,1,0,,,,,,,,,,,,,,,,repeat,number,numRpt,d,0.6001,Hi,,,,,,1,,,,,,,,high,11,0,11,0,1,,,,,,,,,
297931,2022-11-27_18h36.29.956,vts_reward_expectancy_bt,2022.2.4,MacIntel,60.0024001,Chrome,1440,900,,,,,10,903,,,,,,,,,,,,,,,,,125,U,star,1,0,,,,,,,,,,,,,,,,repeat,number,numRpt,d,0.5452,Lo,,,,,,1,,,,,,,,high,12,0,12,0,1,,,,,,,,,
297931,2022-11-27_18h36.29.956,vts_reward_expectancy_bt,2022.2.4,MacIntel,60.0024001,Chrome,1440,900,,,,,10,913,,,,,,,,,,,,,,,,,181,W,hexagon,1,0,,,,,,,,,,,,,,,,repeat,number,numRpt,f,0.4969,Hi,,,,,,1,,,,,,,,high,13,0,13,0,1,,,,,,,,,
297931,2022-11-27_18h36.29.956,vts_reward_expectancy_bt,2022.2.4,MacIntel,60.0024001,Chrome,1440,900,,,,,10,923,,,,,,,,,,,,,,,,,132,F,circle,1,0,,,,,,,,,,,,,,,,repeat,number,numRpt,d,0.5668,Lo,,,,,,1,,,,,,,,high,14,0,14,0,1,,,,,,,,,
297931,2022-11-27_18h36.29.956,vts_reward_expectancy_bt,2022.2.4,MacIntel,60.0024001,Chrome,1440,900,,,,,10,933,,,,,,,,,,,,,,,,,139,D,triangle,1,0,,,,,,,,,,,,,,,,repeat,number,numRpt,d,0.582,Hi,,,,,,1,,,,,,,,high,15,0,15,0,1,,,,,,,,,
297931,2022-11-27_18h36.29.956,vts_reward_expectancy_bt,2022.2.4,MacIntel,60.0024001,Chrome,1440,900,,,,,10,943,,,,,,,,,,,,,,,,,139,S,triangle,1,0,,,,,,,,,,,,,,,,repeat,number,numRpt,d,0.4673,Hi,,,,,,1,,,,,,,,high,16,0,16,0,1,,,,,,,,,
297931,2022-11-27_18h36.29.956,vts_reward_expectancy_bt,2022.2.4,MacIntel,60.0024001,Chrome,1440,900,,,,,1,944,,,,,,,,,,,,,,,,,174,U,circle,1,0,,,,,,,,,,,,,,,,repeat,number,numRpt,f,0.5609,Lo,,,,,,1,,,,,,,,high,17,0,17,0,1,,,,,,,,,
297931,2022-11-27_18h36.29.956,vts_reward_expectancy_bt,2022.2.4,MacIntel,60.0024001,Chrome,1440,900,,,,,0,944,,,,,,,,,,,,,,,,,132,Y,hexagon,0,0,,,,,,,,,,,,,,,,switch,letter,NA,j,0.5421,Lo,,,,,,1,,,,,,,,high,18,0,18,0,1,,,,,,,,,
297931,2022-11-27_18h36.29.956,vts_reward_expectancy_bt,2022.2.4,MacIntel,60.0024001,Chrome,1440,900,,,,,1,945,,,,,,,,,,,,,,,,,160,F,star,1,1,,,,,,,,,,,,,,,,repeat,letter,lettRpt,j,0.6282,Lo,,,,,,1,,,,,,,,high,19,0,19,0,1,,,,,,,,,
297931,2022-11-27_18h36.29.956,vts_reward_expectancy_bt,2022.2.4,MacIntel,60.0024001,Chrome,1440,900,,,,,1,946,,,,,,,,,,,,,,,,,167,W,circle,1,0,,,,,,,,,,,,,,,,repeat,letter,lettRpt,k,1.0166,Lo,,,,,,1,,,,,,,,high,20,0,20,0,1,,,,,,,,,
297931,2022-11-27_18h36.29.956,vts_reward_expectancy_bt,2022.2.4,MacIntel,60.0024001,Chrome,1440,900,,,,,10,956,,,,,,,,,,,,,,,,,181,B,triangle,1,0,,,,,,,,,,,,,,,,repeat,letter,lettRpt,j,0.4566,Hi,,,,,,1,,,,,,,,high,21,0,21,0,1,,,,,,,,,
297931,2022-11-27_18h36.29.956,vts_reward_expectancy_bt,2022.2.4,MacIntel,60.0024001,Chrome,1440,900,,,,,0,956,,,,,,,,,,,,,,,,,125,D,hexagon,1,0,,,,,,,,,,,,,,,,repeat,letter,lettRpt,j,0.5725,Hi,,,,,,1,,,,,,,,high,22,0,22,0,1,,,,,,,,,
297931,2022-11-27_18h36.29.956,vts_reward_expectancy_bt,2022.2.4,MacIntel,60.0024001,Chrome,1440,900,,,,,0,956,,,,,,,,,,,,,,,,,146,H,star,0,0,,,,,,,,,,,,,,,,repeat,letter,NA,k,0.6441,Hi,,,,,,1,,,,,,,,high,23,0,23,0,1,,,,,,,,,
297931,2022-11-27_18h36.29.956,vts_reward_expectancy_bt,2022.2.4,MacIntel,60.0024001,Chrome,1440,900,,,,,1,957,,,,,,,,,,,,,,,,,139,F,star,1,1,,,,,,,,,,,,,,,,repeat,letter,lettRpt,j,0.5406,Lo,,,,,,1,,,,,,,,high,24,0,24,0,1,,,,,,,,,
297931,2022-11-27_18h36.29.956,vts_reward_expectancy_bt,2022.2.4,MacIntel,60.0024001,Chrome,1440,900,,,,,1,958,,,,,,,,,,,,,,,,,125,S,circle,1,0,,,,,,,,,,,,,,,,repeat,letter,lettRpt,k,0.5286,Lo,,,,,,1,,,,,,,,high,25,0,25,0,1,,,,,,,,,
297931,2022-11-27_18h36.29.956,vts_reward_expectancy_bt,2022.2.4,MacIntel,60.0024001,Chrome,1440,900,,,,,0,958,,,,,,,,,,,,,,,,,146,B,hexagon,1,0,,,,,,,,,,,,,,,,repeat,letter,lettRpt,j,0.6491,Hi,,,,,,1,,,,,,,,high,26,0,26,0,1,,,,,,,,,
297931,2022-11-27_18h36.29.956,vts_reward_expectancy_bt,2022.2.4,MacIntel,60.0024001,Chrome,1440,900,,,,,0,958,,,,,,,,,,,,,,,,,167,W,triangle,1,0,,,,,,,,,,,,,,,,repeat,letter,lettRpt,k,0.5631,Hi,,,,,,1,,,,,,,,high,27,0,27,0,1,,,,,,,,,
297931,2022-11-27_18h36.29.956,vts_reward_expectancy_bt,2022.2.4,MacIntel,60.0024001,Chrome,1440,900,,,,,1,959,,,,,,,,,,,,,,,,,181,U,star,1,0,,,,,,,,,,,,,,,,repeat,letter,lettRpt,k,0.6497,Lo,,,,,,1,,,,,,,,high,28,0,28,0,1,,,,,,,,,
297931,2022-11-27_18h36.29.956,vts_reward_expectancy_bt,2022.2.4,MacIntel,60.0024001,Chrome,1440,900,,,,,0,959,,,,,,,,,,,,,,,,,160,H,triangle,1,0,,,,,,,,,,,,,,,,repeat,letter,lettRpt,j,0.6474,Hi,,,,,,1,,,,,,,,high,29,0,29,0,1,,,,,,,,,
297931,2022-11-27_18h36.29.956,vts_reward_expectancy_bt,2022.2.4,MacIntel,60.0024001,Chrome,1440,900,,,,,0,959,,,,,,,,,,,,,,,,,174,Y,hexagon,1,0,,,,,,,,,,,,,,,,repeat,letter,lettRpt,k,0.6189,Hi,,,,,,1,,,,,,,,high,30,0,30,0,1,,,,,,,,,
297931,2022-11-27_18h36.29.956,vts_reward_expectancy_bt,2022.2.4,MacIntel,60.0024001,Chrome,1440,900,,,,,1,960,,,,,,,,,,,,,,,,,132,D,circle,1,0,,,,,,,,,,,,,,,,switch,number,numSwt,d,0.5447,Lo,,,,,,1,,,,,,,,high,31,0,31,0,1,,,,,,,,,
297931,2022-11-27_18h36.29.956,vts_reward_expectancy_bt,2022.2.4,MacIntel,60.0024001,Chrome,1440,900,,,,,10,970,,,,,,,,,,,,,,,,,132,B,star,1,0,,,,,,,,,,,,,,,,repeat,number,numRpt,d,0.5811,Lo,,,,,,2,,,,,,space,1.1315,high,0,0,0,0,1,,,,,,,,,
297931,2022-11-27_18h36.29.956,vts_reward_expectancy_bt,2022.2.4,MacIntel,60.0024001,Chrome,1440,900,,,,,1,971,,,,,,,,,,,,,,,,,174,W,hexagon,1,0,,,,,,,,,,,,,,,,repeat,number,numRpt,f,0.5255,Hi,,,,,,2,,,,,,,,high,1,0,1,0,1,,,,,,,,,
297931,2022-11-27_18h36.29.956,vts_reward_expectancy_bt,2022.2.4,MacIntel,60.0024001,Chrome,1440,900,,,,,10,981,,,,,,,,,,,,,,,,,125,D,circle,1,0,,,,,,,,,,,,,,,,repeat,number,numRpt,d,0.5282,Lo,,,,,,2,,,,,,,,high,2,0,2,0,1,,,,,,,,,
297931,2022-11-27_18h36.29.956,vts_reward_expectancy_bt,2022.2.4,MacIntel,60.0024001,Chrome,1440,900,,,,,10,991,,,,,,,,,,,,,,,,,167,S,triangle,1,0,,,,,,,,,,,,,,,,repeat,number,numRpt,f,0.4969,Hi,,,,,,2,,,,,,,,high,3,0,3,0,1,,,,,,,,,
297931,2022-11-27_18h36.29.956,vts_reward_expectancy_bt,2022.2.4,MacIntel,60.0024001,Chrome,1440,900,,,,,0,991,,,,,,,,,,,,,,,,,181,H,star,0,0,,,,,,,,,,,,,,,,repeat,number,NA,d,0.479,Hi,,,,,,2,,,,,,,,high,4,0,4,0,1,,,,,,,,,
297931,2022-11-27_18h36.29.956,vts_reward_expectancy_bt,2022.2.4,MacIntel,60.0024001,Chrome,1440,900,,,,,0,991,,,,,,,,,,,,,,,,,160,Y,hexagon,1,1,,,,,,,,,,,,,,,,repeat,number,numRpt,f,0.5971,Hi,,,,,,2,,,,,,,,high,5,0,5,0,1,,,,,,,,,
297931,2022-11-27_18h36.29.956,vts_reward_expectancy_bt,2022.2.4,MacIntel,60.0024001,Chrome,1440,900,,,,,1,992,,,,,,,,,,,,,,,,,146,U,circle,1,0,,,,,,,,,,,,,,,,repeat,number,numRpt,d,0.7463,Lo,,,,,,2,,,,,,,,high,6,0,6,0,1,,,,,,,,,
297931,2022-11-27_18h36.29.956,vts_reward_expectancy_bt,2022.2.4,MacIntel,60.0024001,Chrome,1440,900,,,,,10,1002,,,,,,,,,,,,,,,,,139,F,triangle,1,0,,,,,,,,,,,,,,,,switch,letter,lettSwt,j,0.5219,Hi,,,,,,2,,,,,,,,high,7,0,7,0,1,,,,,,,,,
297931,2022-11-27_18h36.29.956,vts_reward_expectancy_bt,2022.2.4,MacIntel,60.0024001,Chrome,1440,900,,,,,0,1002,,,,,,,,,,,,,,,,,132,B,triangle,0,0,,,,,,,,,,,,,,,,repeat,letter,NA,k,0.5425,Hi,,,,,,2,,,,,,,,high,8,0,8,0,1,,,,,,,,,
297931,2022-11-27_18h36.29.956,vts_reward_expectancy_bt,2022.2.4,MacIntel,60.0024001,Chrome,1440,900,,,,,0,1002,,,,,,,,,,,,,,,,,174,W,hexagon,1,1,,,,,,,,,,,,,,,,repeat,letter,lettRpt,k,0.6973,Hi,,,,,,2,,,,,,,,high,9,0,9,0,1,,,,,,,,,
297931,2022-11-27_18h36.29.956,vts_reward_expectancy_bt,2022.2.4,MacIntel,60.0024001,Chrome,1440,900,,,,,1,1003,,,,,,,,,,,,,,,,,125,D,circle,1,0,,,,,,,,,,,,,,,,switch,number,numSwt,d,0.5929,Lo,,,,,,2,,,,,,,,high,10,0,10,0,1,,,,,,,,,
297931,2022-11-27_18h36.29.956,vts_reward_expectancy_bt,2022.2.4,MacIntel,60.0024001,Chrome,1440,900,,,,,10,1013,,,,,,,,,,,,,,,,,167,S,star,1,0,,,,,,,,,,,,,,,,switch,letter,lettSwt,k,0.6778,Lo,,,,,,2,,,,,,,,high,11,0,11,0,1,,,,,,,,,
297931,2022-11-27_18h36.29.956,vts_reward_expectancy_bt,2022.2.4,MacIntel,60.0024001,Chrome,1440,900,,,,,1,1014,,,,,,,,,,,,,,,,,181,H,circle,1,0,,,,,,,,,,,,,,,,repeat,letter,lettRpt,j,0.508,Lo,,,,,,2,,,,,,,,high,12,0,12,0,1,,,,,,,,,
297931,2022-11-27_18h36.29.956,vts_reward_expectancy_bt,2022.2.4,MacIntel,60.0024001,Chrome,1440,900,,,,,0,1014,,,,,,,,,,,,,,,,,160,Y,hexagon,1,0,,,,,,,,,,,,,,,,switch,number,numSwt,f,0.5638,Hi,,,,,,2,,,,,,,,high,13,0,13,0,1,,,,,,,,,
297931,2022-11-27_18h36.29.956,vts_reward_expectancy_bt,2022.2.4,MacIntel,60.0024001,Chrome,1440,900,,,,,1,1015,,,,,,,,,,,,,,,,,146,U,star,1,0,,,,,,,,,,,,,,,,switch,letter,lettSwt,k,0.6634,Lo,,,,,,2,,,,,,,,high,14,0,14,0,1,,,,,,,,,
297931,2022-11-27_18h36.29.956,vts_reward_expectancy_bt,2022.2.4,MacIntel,60.0024001,Chrome,1440,900,,,,,0,1015,,,,,,,,,,,,,,,,,139,F,triangle,1,0,,,,,,,,,,,,,,,,switch,number,numSwt,d,0.563,Hi,,,,,,2,,,,,,,,high,15,0,15,0,1,,,,,,,,,
297931,2022-11-27_18h36.29.956,vts_reward_expectancy_bt,2022.2.4,MacIntel,60.0024001,Chrome,1440,900,,,,,10,1025,,,,,,,,,,,,,,,,,174,D,star,1,0,,,,,,,,,,,,,,,,repeat,number,numRpt,f,0.6313,Lo,,,,,,2,,,,,,,,high,16,0,16,0,1,,,,,,,,,
297931,2022-11-27_18h36.29.956,vts_reward_expectancy_bt,2022.2.4,MacIntel,60.0024001,Chrome,1440,900,,,,,10,1035,,,,,,,,,,,,,,,,,160,H,hexagon,1,0,,,,,,,,,,,,,,,,switch,letter,lettSwt,j,0.6093,Hi,,,,,,2,,,,,,,,high,17,0,17,0,1,,,,,,,,,
297931,2022-11-27_18h36.29.956,vts_reward_expectancy_bt,2022.2.4,MacIntel,60.0024001,Chrome,1440,900,,,,,0,1035,,,,,,,,,,,,,,,,,125,U,triangle,1,0,,,,,,,,,,,,,,,,repeat,letter,lettRpt,k,0.6809,Hi,,,,,,2,,,,,,,,high,18,0,18,0,1,,,,,,,,,
297931,2022-11-27_18h36.29.956,vts_reward_expectancy_bt,2022.2.4,MacIntel,60.0024001,Chrome,1440,900,,,,,1,1036,,,,,,,,,,,,,,,,,132,F,circle,1,0,,,,,,,,,,,,,,,,switch,number,numSwt,d,0.7074,Lo,,,,,,2,,,,,,,,high,19,0,19,0,1,,,,,,,,,
297931,2022-11-27_18h36.29.956,vts_reward_expectancy_bt,2022.2.4,MacIntel,60.0024001,Chrome,1440,900,,,,,10,1046,,,,,,,,,,,,,,,,,139,Y,hexagon,1,0,,,,,,,,,,,,,,,,switch,letter,lettSwt,k,0.6492,Hi,,,,,,2,,,,,,,,high,20,0,20,0,1,,,,,,,,,
297931,2022-11-27_18h36.29.956,vts_reward_expectancy_bt,2022.2.4,MacIntel,60.0024001,Chrome,1440,900,,,,,10,1056,,,,,,,,,,,,,,,,,146,W,star,1,0,,,,,,,,,,,,,,,,switch,number,numSwt,d,0.6258,Lo,,,,,,2,,,,,,,,high,21,0,21,0,1,,,,,,,,,
297931,2022-11-27_18h36.29.956,vts_reward_expectancy_bt,2022.2.4,MacIntel,60.0024001,Chrome,1440,900,,,,,1,1057,,,,,,,,,,,,,,,,,181,S,circle,1,0,,,,,,,,,,,,,,,,repeat,number,numRpt,f,0.666,Lo,,,,,,2,,,,,,,,high,22,0,22,0,1,,,,,,,,,
297931,2022-11-27_18h36.29.956,vts_reward_expectancy_bt,2022.2.4,MacIntel,60.0024001,Chrome,1440,900,,,,,1,1058,,,,,,,,,,,,,,,,,167,B,triangle,1,0,,,,,,,,,,,,,,,,switch,letter,lettSwt,j,0.7404,Hi,,,,,,2,,,,,,,,high,23,0,23,0,1,,,,,,,,,
297931,2022-11-27_18h36.29.956,vts_reward_expectancy_bt,2022.2.4,MacIntel,60.0024001,Chrome,1440,900,,,,,10,1068,,,,,,,,,,,,,,,,,146,W,triangle,1,0,,,,,,,,,,,,,,,,repeat,letter,lettRpt,k,0.509,Hi,,,,,,2,,,,,,,,high,24,0,24,0,1,,,,,,,,,
297931,2022-11-27_18h36.29.956,vts_reward_expectancy_bt,2022.2.4,MacIntel,60.0024001,Chrome,1440,900,,,,,1,1069,,,,,,,,,,,,,,,,,181,U,circle,1,0,,,,,,,,,,,,,,,,switch,number,numSwt,f,0.6074,Lo,,,,,,2,,,,,,,,high,25,0,25,0,1,,,,,,,,,
297931,2022-11-27_18h36.29.956,vts_reward_expectancy_bt,2022.2.4,MacIntel,60.0024001,Chrome,1440,900,,,,,1,1070,,,,,,,,,,,,,,,,,174,F,star,1,0,,,,,,,,,,,,,,,,repeat,number,numRpt,f,0.7491,Lo,,,,,,2,,,,,,,,high,26,0,26,0,1,,,,,,,,,
297931,2022-11-27_18h36.29.956,vts_reward_expectancy_bt,2022.2.4,MacIntel,60.0024001,Chrome,1440,900,,,,,0,1070,,,,,,,,,,,,,,,,,139,B,hexagon,1,0,,,,,,,,,,,,,,,,repeat,number,numRpt,d,0.6945,Hi,,,,,,2,,,,,,,,high,27,0,27,0,1,,,,,,,,,
297931,2022-11-27_18h36.29.956,vts_reward_expectancy_bt,2022.2.4,MacIntel,60.0024001,Chrome,1440,900,,,,,10,1080,,,,,,,,,,,,,,,,,160,H,star,1,0,,,,,,,,,,,,,,,,switch,letter,lettSwt,j,0.5575,Lo,,,,,,2,,,,,,,,high,28,0,28,0,1,,,,,,,,,
297931,2022-11-27_18h36.29.956,vts_reward_expectancy_bt,2022.2.4,MacIntel,60.0024001,Chrome,1440,900,,,,,0,1080,,,,,,,,,,,,,,,,,167,S,hexagon,1,0,,,,,,,,,,,,,,,,switch,number,numSwt,f,0.5774,Hi,,,,,,2,,,,,,,,high,29,0,29,0,1,,,,,,,,,
297931,2022-11-27_18h36.29.956,vts_reward_expectancy_bt,2022.2.4,MacIntel,60.0024001,Chrome,1440,900,,,,,1,1081,,,,,,,,,,,,,,,,,132,D,triangle,1,0,,,,,,,,,,,,,,,,switch,letter,lettSwt,j,0.5789,Hi,,,,,,2,,,,,,,,high,30,0,30,0,1,,,,,,,,,
297931,2022-11-27_18h36.29.956,vts_reward_expectancy_bt,2022.2.4,MacIntel,60.0024001,Chrome,1440,900,,,,,1,1082,,,,,,,,,,,,,,,,,125,Y,circle,1,0,,,,,,,,,,,,,,,,switch,number,numSwt,d,1.0802,Lo,,,,,,2,,,,,,,,high,31,0,31,0,1,,,,,,,,,
297931,2022-11-27_18h36.29.956,vts_reward_expectancy_bt,2022.2.4,MacIntel,60.0024001,Chrome,1440,900,,,,,1,1083,,,,,,,,,,,,,,,,,174,Y,star,1,0,,,,,,,,,,,,,,,,repeat,number,numRpt,f,0.5786,Lo,,,,,,3,,,,,,space,1.2014,high,0,0,0,0,1,,,,,,,,,
297931,2022-11-27_18h36.29.956,vts_reward_expectancy_bt,2022.2.4,MacIntel,60.0024001,Chrome,1440,900,,,,,1,1084,,,,,,,,,,,,,,,,,146,U,circle,1,0,,,,,,,,,,,,,,,,repeat,number,numRpt,d,1.0592,Lo,,,,,,3,,,,,,,,high,1,0,1,0,1,,,,,,,,,
297931,2022-11-27_18h36.29.956,vts_reward_expectancy_bt,2022.2.4,MacIntel,60.0024001,Chrome,1440,900,,,,,10,1094,,,,,,,,,,,,,,,,,181,B,hexagon,1,0,,,,,,,,,,,,,,,,repeat,number,numRpt,f,0.517,Hi,,,,,,3,,,,,,,,high,2,0,2,0,1,,,,,,,,,
297931,2022-11-27_18h36.29.956,vts_reward_expectancy_bt,2022.2.4,MacIntel,60.0024001,Chrome,1440,900,,,,,0,1094,,,,,,,,,,,,,,,,,132,H,triangle,1,0,,,,,,,,,,,,,,,,switch,letter,lettSwt,j,0.6302,Hi,,,,,,3,,,,,,,,high,3,0,3,0,1,,,,,,,,,
297931,2022-11-27_18h36.29.956,vts_reward_expectancy_bt,2022.2.4,MacIntel,60.0024001,Chrome,1440,900,,,,,1,1095,,,,,,,,,,,,,,,,,160,S,star,1,0,,,,,,,,,,,,,,,,repeat,letter,lettRpt,k,0.4619,Lo,,,,,,3,,,,,,,,high,4,0,4,0,1,,,,,,,,,
297931,2022-11-27_18h36.29.956,vts_reward_expectancy_bt,2022.2.4,MacIntel,60.0024001,Chrome,1440,900,,,,,1,1096,,,,,,,,,,,,,,,,,167,D,circle,1,0,,,,,,,,,,,,,,,,repeat,letter,lettRpt,j,0.5582,Lo,,,,,,3,,,,,,,,high,5,0,5,0,1,,,,,,,,,
297931,2022-11-27_18h36.29.956,vts_reward_expectancy_bt,2022.2.4,MacIntel,60.0024001,Chrome,1440,900,,,,,0,1096,,,,,,,,,,,,,,,,,139,F,hexagon,1,0,,,,,,,,,,,,,,,,switch,number,numSwt,d,0.6631,Hi,,,,,,3,,,,,,,,high,6,0,6,0,1,,,,,,,,,
297931,2022-11-27_18h36.29.956,vts_reward_expectancy_bt,2022.2.4,MacIntel,60.0024001,Chrome,1440,900,,,,,0,1096,,,,,,,,,,,,,,,,,125,W,triangle,1,0,,,,,,,,,,,,,,,,repeat,number,numRpt,d,0.7275,Hi,,,,,,3,,,,,,,,high,7,0,7,0,1,,,,,,,,,
297931,2022-11-27_18h36.29.956,vts_reward_expectancy_bt,2022.2.4,MacIntel,60.0024001,Chrome,1440,900,,,,,1,1097,,,,,,,,,,,,,,,,,174,Y,star,1,0,,,,,,,,,,,,,,,,switch,letter,lettSwt,k,0.5355,Lo,,,,,,3,,,,,,,,high,8,0,8,0,1,,,,,,,,,
297931,2022-11-27_18h36.29.956,vts_reward_expectancy_bt,2022.2.4,MacIntel,60.0024001,Chrome,1440,900,,,,,0,1097,,,,,,,,,,,,,,,,,146,U,circle,0,0,,,,,,,,,,,,,,,,repeat,letter,NA,j,0.5145,Lo,,,,,,3,,,,,,,,high,9,0,9,0,1,,,,,,,,,
297931,2022-11-27_18h36.29.956,vts_reward_expectancy_bt,2022.2.4,MacIntel,60.0024001,Chrome,1440,900,,,,,0,1097,,,,,,,,,,,,,,,,,181,B,hexagon,0,1,,,,,,,,,,,,,,,,repeat,letter,NA,k,0.4933,Lo,,,,,,3,,,,,,,,high,10,0,10,0,1,,,,,,,,,
297931,2022-11-27_18h36.29.956,vts_reward_expectancy_bt,2022.2.4,MacIntel,60.0024001,Chrome,1440,900,,,,,0,1097,,,,,,,,,,,,,,,,,132,H,triangle,1,1,,,,,,,,,,,,,,,,repeat,letter,lettRpt,j,0.7779,Hi,,,,,,3,,,,,,,,high,11,0,11,0,1,,,,,,,,,
297931,2022-11-27_18h36.29.956,vts_reward_expectancy_bt,2022.2.4,MacIntel,60.0024001,Chrome,1440,900,,,,,1,1098,,,,,,,,,,,,,,,,,160,S,star,1,0,,,,,,,,,,,,,,,,switch,number,numSwt,f,0.6655,Lo,,,,,,3,,,,,,,,high,12,0,12,0,1,,,,,,,,,
297931,2022-11-27_18h36.29.956,vts_reward_expectancy_bt,2022.2.4,MacIntel,60.0024001,Chrome,1440,900,,,,,0,1098,,,,,,,,,,,,,,,,,167,D,triangle,1,0,,,,,,,,,,,,,,,,repeat,number,numRpt,f,0.7966,Hi,,,,,,3,,,,,,,,high,13,0,13,0,1,,,,,,,,,
297931,2022-11-27_18h36.29.956,vts_reward_expectancy_bt,2022.2.4,MacIntel,60.0024001,Chrome,1440,900,,,,,10,1108,,,,,,,,,,,,,,,,,139,F,circle,1,0,,,,,,,,,,,,,,,,repeat,number,numRpt,d,0.5322,Lo,,,,,,3,,,,,,,,high,14,0,14,0,1,,,,,,,,,
297931,2022-11-27_18h36.29.956,vts_reward_expectancy_bt,2022.2.4,MacIntel,60.0024001,Chrome,1440,900,,,,,10,1118,,,,,,,,,,,,,,,,,125,W,hexagon,1,0,,,,,,,,,,,,,,,,repeat,number,numRpt,d,0.5614,Hi,,,,,,3,,,,,,,,high,15,0,15,0,1,,,,,,,,,
297931,2022-11-27_18h36.29.956,vts_reward_expectancy_bt,2022.2.4,MacIntel,60.0024001,Chrome,1440,900,,,,,0,1118,,,,,,,,,,,,,,,,,174,W,hexagon,1,0,,,,,,,,,,,,,,,,repeat,number,numRpt,f,0.6005,Hi,,,,,,3,,,,,,,,high,16,0,16,0,1,,,,,,,,,
297931,2022-11-27_18h36.29.956,vts_reward_expectancy_bt,2022.2.4,MacIntel,60.0024001,Chrome,1440,900,,,,,1,1119,,,,,,,,,,,,,,,,,167,D,circle,1,0,,,,,,,,,,,,,,,,repeat,number,numRpt,f,0.7752,Lo,,,,,,3,,,,,,,,high,17,0,17,0,1,,,,,,,,,
297931,2022-11-27_18h36.29.956,vts_reward_expectancy_bt,2022.2.4,MacIntel,60.0024001,Chrome,1440,900,,,,,1,1120,,,,,,,,,,,,,,,,,181,B,star,1,0,,,,,,,,,,,,,,,,switch,letter,lettSwt,j,0.7597,Lo,,,,,,3,,,,,,,,high,18,0,18,0,1,,,,,,,,,
297931,2022-11-27_18h36.29.956,vts_reward_expectancy_bt,2022.2.4,MacIntel,60.0024001,Chrome,1440,900,,,,,10,1130,,,,,,,,,,,,,,,,,160,S,triangle,1,0,,,,,,,,,,,,,,,,repeat,letter,lettRpt,k,0.5082,Hi,,,,,,3,,,,,,,,high,19,0,19,0,1,,,,,,,,,
297931,2022-11-27_18h36.29.956,vts_reward_expectancy_bt,2022.2.4,MacIntel,60.0024001,Chrome,1440,900,,,,,0,1130,,,,,,,,,,,,,,,,,125,U,hexagon,1,0,,,,,,,,,,,,,,,,repeat,letter,lettRpt,k,0.7667,Hi,,,,,,3,,,,,,,,high,20,0,20,0,1,,,,,,,,,
297931,2022-11-27_18h36.29.956,vts_reward_expectancy_bt,2022.2.4,MacIntel,60.0024001,Chrome,1440,900,,,,,1,1131,,,,,,,,,,,,,,,,,139,F,star,1,0,,,,,,,,,,,,,,,,repeat,letter,lettRpt,j,0.7471,Lo,,,,,,3,,,,,,,,high,21,0,21,0,1,,,,,,,,,
297931,2022-11-27_18h36.29.956,vts_reward_expectancy_bt,2022.2.4,MacIntel,60.0024001,Chrome,1440,900,,,,,0,1131,,,,,,,,,,,,,,,,,146,H,triangle,1,0,,,,,,,,,,,,,,,,repeat,letter,lettRpt,j,1.1614,Hi,,,,,,3,,,,,,,,high,22,0,22,0,1,,,,,,,,,
297931,2022-11-27_18h36.29.956,vts_reward_expectancy_bt,2022.2.4,MacIntel,60.0024001,Chrome,1440,900,,,,,1,1132,,,,,,,,,,,,,,,,,132,Y,circle,1,0,,,,,,,,,,,,,,,,switch,number,numSwt,d,1.2616,Lo,,,,,,3,,,,,,,,high,23,0,23,0,1,,,,,,,,,
297931,2022-11-27_18h36.29.956,vts_reward_expectancy_bt,2022.2.4,MacIntel,60.0024001,Chrome,1440,900,,,,,10,1142,,,,,,,,,,,,,,,,,146,U,hexagon,1,0,,,,,,,,,,,,,,,,switch,letter,lettSwt,k,0.5844,Hi,,,,,,3,,,,,,,,high,24,0,24,0,1,,,,,,,,,
297931,2022-11-27_18h36.29.956,vts_reward_expectancy_bt,2022.2.4,MacIntel,60.0024001,Chrome,1440,900,,,,,0,1142,,,,,,,,,,,,,,,,,160,B,triangle,1,0,,,,,,,,,,,,,,,,repeat,letter,lettRpt,j,0.8617,Hi,,,,,,3,,,,,,,,high,25,0,25,0,1,,,,,,,,,
297931,2022-11-27_18h36.29.956,vts_reward_expectancy_bt,2022.2.4,MacIntel,60.0024001,Chrome,1440,900,,,,,1,1143,,,,,,,,,,,,,,,,,167,Y,star,1,0,,,,,,,,,,,,,,,,repeat,letter,lettRpt,k,0.7473,Lo,,,,,,3,,,,,,,,high,26,0,26,0,1,,,,,,,,,
297931,2022-11-27_18h36.29.956,vts_reward_expectancy_bt,2022.2.4,MacIntel,60.0024001,Chrome,1440,900,,,,,1,1144,,,,,,,,,,,,,,,,,125,W,circle,1,0,,,,,,,,,,,,,,,,repeat,letter,lettRpt,k,0.5821,Lo,,,,,,3,,,,,,,,high,27,0,27,0,1,,,,,,,,,
297931,2022-11-27_18h36.29.956,vts_reward_expectancy_bt,2022.2.4,MacIntel,60.0024001,Chrome,1440,900,,,,,1,1145,,,,,,,,,,,,,,,,,139,D,circle,1,0,,,,,,,,,,,,,,,,repeat,letter,lettRpt,j,0.5247,Lo,,,,,,3,,,,,,,,high,28,0,28,0,1,,,,,,,,,
297931,2022-11-27_18h36.29.956,vts_reward_expectancy_bt,2022.2.4,MacIntel,60.0024001,Chrome,1440,900,,,,,0,1145,,,,,,,,,,,,,,,,,181,S,hexagon,1,0,,,,,,,,,,,,,,,,repeat,letter,lettRpt,k,0.6639,Hi,,,,,,3,,,,,,,,high,29,0,29,0,1,,,,,,,,,
297931,2022-11-27_18h36.29.956,vts_reward_expectancy_bt,2022.2.4,MacIntel,60.0024001,Chrome,1440,900,,,,,0,1145,,,,,,,,,,,,,,,,,174,H,triangle,1,0,,,,,,,,,,,,,,,,repeat,letter,lettRpt,j,0.5273,Hi,,,,,,3,,,,,,,,high,30,0,30,0,1,,,,,,,,,
297931,2022-11-27_18h36.29.956,vts_reward_expectancy_bt,2022.2.4,MacIntel,60.0024001,Chrome,1440,900,,,,,1,1146,,,,,,,,,,,,,,,,,132,F,star,1,0,,,,,,,,,,,,,,,,switch,number,numSwt,d,0.4868,Lo,,,,,,3,,,,,,,,high,31,0,31,0,1,,,,,,,,,
297931,2022-11-27_18h36.29.956,vts_reward_expectancy_bt,2022.2.4,MacIntel,60.0024001,Chrome,1440,900,,,,,10,1156,,,,,,,,,,,,,,,,,139,H,hexagon,1,0,,,,,,,,,,,,,,,,repeat,number,numRpt,d,0.5295,Hi,,,,,,4,,,,,,space,1.4854,high,0,0,0,0,1,,,,,,,,,
297931,2022-11-27_18h36.29.956,vts_reward_expectancy_bt,2022.2.4,MacIntel,60.0024001,Chrome,1440,900,,,,,1,1157,,,,,,,,,,,,,,,,,160,F,circle,1,0,,,,,,,,,,,,,,,,switch,letter,lettSwt,j,0.6666,Lo,,,,,,4,,,,,,,,high,1,0,1,0,1,,,,,,,,,
297931,2022-11-27_18h36.29.956,vts_reward_expectancy_bt,2022.2.4,MacIntel,60.0024001,Chrome,1440,900,,,,,1,1158,,,,,,,,,,,,,,,,,146,S,triangle,1,0,,,,,,,,,,,,,,,,repeat,letter,lettRpt,k,0.4521,Hi,,,,,,4,,,,,,,,high,2,0,2,0,1,,,,,,,,,
297931,2022-11-27_18h36.29.956,vts_reward_expectancy_bt,2022.2.4,MacIntel,60.0024001,Chrome,1440,900,,,,,1,1159,,,,,,,,,,,,,,,,,125,D,star,1,0,,,,,,,,,,,,,,,,switch,number,numSwt,d,0.499,Lo,,,,,,4,,,,,,,,high,3,0,3,0,1,,,,,,,,,
297931,2022-11-27_18h36.29.956,vts_reward_expectancy_bt,2022.2.4,MacIntel,60.0024001,Chrome,1440,900,,,,,10,1169,,,,,,,,,,,,,,,,,174,B,hexagon,1,0,,,,,,,,,,,,,,,,repeat,number,numRpt,f,0.4987,Hi,,,,,,4,,,,,,,,high,4,0,4,0,1,,,,,,,,,
297931,2022-11-27_18h36.29.956,vts_reward_expectancy_bt,2022.2.4,MacIntel,60.0024001,Chrome,1440,900,,,,,0,1169,,,,,,,,,,,,,,,,,167,W,circle,0,0,,,,,,,,,,,,,,,,switch,letter,NA,j,0.5255,Hi,,,,,,4,,,,,,,,high,5,0,5,0,1,,,,,,,,,
297931,2022-11-27_18h36.29.956,vts_reward_expectancy_bt,2022.2.4,MacIntel,60.0024001,Chrome,1440,900,,,,,0,1169,,,,,,,,,,,,,,,,,181,Y,triangle,1,1,,,,,,,,,,,,,,,,repeat,letter,lettRpt,k,0.5648,Hi,,,,,,4,,,,,,,,high,6,0,6,0,1,,,,,,,,,
297931,2022-11-27_18h36.29.956,vts_reward_expectancy_bt,2022.2.4,MacIntel,60.0024001,Chrome,1440,900,,,,,1,1170,,,,,,,,,,,,,,,,,132,U,star,1,0,,,,,,,,,,,,,,,,switch,number,numSwt,d,0.7467,Lo,,,,,,4,,,,,,,,high,7,0,7,0,1,,,,,,,,,
297931,2022-11-27_18h36.29.956,vts_reward_expectancy_bt,2022.2.4,MacIntel,60.0024001,Chrome,1440,900,,,,,10,1180,,,,,,,,,,,,,,,,,139,H,triangle,1,0,,,,,,,,,,,,,,,,switch,letter,lettSwt,j,0.5175,Hi,,,,,,4,,,,,,,,high,8,0,8,0,1,,,,,,,,,
297931,2022-11-27_18h36.29.956,vts_reward_expectancy_bt,2022.2.4,MacIntel,60.0024001,Chrome,1440,900,,,,,0,1180,,,,,,,,,,,,,,,,,160,F,circle,0,0,,,,,,,,,,,,,,,,repeat,letter,NA,k,0.4475,Hi,,,,,,4,,,,,,,,high,9,0,9,0,1,,,,,,,,,
297931,2022-11-27_18h36.29.956,vts_reward_expectancy_bt,2022.2.4,MacIntel,60.0024001,Chrome,1440,900,,,,,10,1190,,,,,,,,,,,,,,,,,146,S,star,1,1,,,,,,,,,,,,,,,,switch,number,numSwt,d,0.8348,Lo,,,,,,4,,,,,,,,high,10,0,10,0,1,,,,,,,,,
297931,2022-11-27_18h36.29.956,vts_reward_expectancy_bt,2022.2.4,MacIntel,60.0024001,Chrome,1440,900,,,,,0,1190,,,,,,,,,,,,,,,,,125,D,hexagon,1,0,,,,,,,,,,,,,,,,switch,letter,lettSwt,j,0.6178,Hi,,,,,,4,,,,,,,,high,11,0,11,0,1,,,,,,,,,
297931,2022-11-27_18h36.29.956,vts_reward_expectancy_bt,2022.2.4,MacIntel,60.0024001,Chrome,1440,900,,,,,0,1190,,,,,,,,,,,,,,,,,174,B,triangle,1,0,,,,,,,,,,,,,,,,switch,number,numSwt,f,0.6958,Hi,,,,,,4,,,,,,,,high,12,0,12,0,1,,,,,,,,,
297931,2022-11-27_18h36.29.956,vts_reward_expectancy_bt,2022.2.4,MacIntel,60.0024001,Chrome,1440,900,,,,,0,1190,,,,,,,,,,,,,,,,,167,W,hexagon,0,0,,,,,,,,,,,,,,,,repeat,number,NA,d,0.4666,Hi,,,,,,4,,,,,,,,high,13,0,13,0,1,,,,,,,,,
297931,2022-11-27_18h36.29.956,vts_reward_expectancy_bt,2022.2.4,MacIntel,60.0024001,Chrome,1440,900,,,,,1,1191,,,,,,,,,,,,,,,,,181,Y,star,1,1,,,,,,,,,,,,,,,,repeat,number,numRpt,f,0.5195,Lo,,,,,,4,,,,,,,,high,14,0,14,0,1,,,,,,,,,
297931,2022-11-27_18h36.29.956,vts_reward_expectancy_bt,2022.2.4,MacIntel,60.0024001,Chrome,1440,900,,,,,10,1201,,,,,,,,,,,,,,,,,132,U,circle,1,0,,,,,,,,,,,,,,,,repeat,number,numRpt,d,0.6228,Lo,,,,,,4,,,,,,,,high,15,0,15,0,1,,,,,,,,,
297931,2022-11-27_18h36.29.956,vts_reward_expectancy_bt,2022.2.4,MacIntel,60.0024001,Chrome,1440,900,,,,,0,1201,,,,,,,,,,,,,,,,,181,S,triangle,1,0,,,,,,,,,,,,,,,,repeat,number,numRpt,f,0.6287,Hi,,,,,,4,,,,,,,,high,16,0,16,0,1,,,,,,,,,
297931,2022-11-27_18h36.29.956,vts_reward_expectancy_bt,2022.2.4,MacIntel,60.0024001,Chrome,1440,900,,,,,0,1201,,,,,,,,,,,,,,,,,125,U,hexagon,1,0,,,,,,,,,,,,,,,,switch,letter,lettSwt,k,0.6136,Hi,,,,,,4,,,,,,,,high,17,0,17,0,1,,,,,,,,,
297931,2022-11-27_18h36.29.956,vts_reward_expectancy_bt,2022.2.4,MacIntel,60.0024001,Chrome,1440,900,,,,,1,1202,,,,,,,,,,,,,,,,,139,B,circle,1,0,,,,,,,,,,,,,,,,switch,number,numSwt,d,0.9583,Lo,,,,,,4,,,,,,,,high,18,0,18,0,1,,,,,,,,,
297931,2022-11-27_18h36.29.956,vts_reward_expectancy_bt,2022.2.4,MacIntel,60.0024001,Chrome,1440,900,,,,,1,1203,,,,,,,,,,,,,,,,,167,D,star,1,0,,,,,,,,,,,,,,,,switch,letter,lettSwt,j,0.5124,Lo,,,,,,4,,,,,,,,high,19,0,19,0,1,,,,,,,,,
297931,2022-11-27_18h36.29.956,vts_reward_expectancy_bt,2022.2.4,MacIntel,60.0024001,Chrome,1440,900,,,,,1,1204,,,,,,,,,,,,,,,,,160,F,star,1,0,,,,,,,,,,,,,,,,switch,number,numSwt,f,0.7482,Lo,,,,,,4,,,,,,,,high,20,0,20,0,1,,,,,,,,,
297931,2022-11-27_18h36.29.956,vts_reward_expectancy_bt,2022.2.4,MacIntel,60.0024001,Chrome,1440,900,,,,,0,1204,,,,,,,,,,,,,,,,,174,H,triangle,1,0,,,,,,,,,,,,,,,,repeat,number,numRpt,f,0.6304,Hi,,,,,,4,,,,,,,,high,21,0,21,0,1,,,,,,,,,
297931,2022-11-27_18h36.29.956,vts_reward_expectancy_bt,2022.2.4,MacIntel,60.0024001,Chrome,1440,900,,,,,1,1205,,,,,,,,,,,,,,,,,132,Y,circle,1,0,,,,,,,,,,,,,,,,repeat,number,numRpt,d,0.5491,Lo,,,,,,4,,,,,,,,high,22,0,22,0,1,,,,,,,,,
297931,2022-11-27_18h36.29.956,vts_reward_expectancy_bt,2022.2.4,MacIntel,60.0024001,Chrome,1440,900,,,,,0,1205,,,,,,,,,,,,,,,,,146,W,hexagon,1,0,,,,,,,,,,,,,,,,repeat,number,numRpt,d,0.6442,Hi,,,,,,4,,,,,,,,high,23,0,23,0,1,,,,,,,,,
297931,2022-11-27_18h36.29.956,vts_reward_expectancy_bt,2022.2.4,MacIntel,60.0024001,Chrome,1440,900,,,,,1,1206,,,,,,,,,,,,,,,,,160,F,star,1,0,,,,,,,,,,,,,,,,repeat,number,numRpt,f,0.6129,Lo,,,,,,4,,,,,,,,high,24,0,24,0,1,,,,,,,,,
297931,2022-11-27_18h36.29.956,vts_reward_expectancy_bt,2022.2.4,MacIntel,60.0024001,Chrome,1440,900,,,,,10,1216,,,,,,,,,,,,,,,,,146,U,hexagon,1,0,,,,,,,,,,,,,,,,switch,letter,lettSwt,k,0.5584,Hi,,,,,,4,,,,,,,,high,25,0,25,0,1,,,,,,,,,
297931,2022-11-27_18h36.29.956,vts_reward_expectancy_bt,2022.2.4,MacIntel,60.0024001,Chrome,1440,900,,,,,1,1217,,,,,,,,,,,,,,,,,167,D,circle,1,0,,,,,,,,,,,,,,,,repeat,letter,lettRpt,j,0.6501,Lo,,,,,,4,,,,,,,,high,26,0,26,0,1,,,,,,,,,
297931,2022-11-27_18h36.29.956,vts_reward_expectancy_bt,2022.2.4,MacIntel,60.0024001,Chrome,1440,900,,,,,0,1217,,,,,,,,,,,,,,,,,181,H,triangle,1,0,,,,,,,,,,,,,,,,repeat,letter,lettRpt,j,0.5625,Hi,,,,,,4,,,,,,,,high,27,0,27,0,1,,,,,,,,,
297931,2022-11-27_18h36.29.956,vts_reward_expectancy_bt,2022.2.4,MacIntel,60.0024001,Chrome,1440,900,,,,,1,1218,,,,,,,,,,,,,,,,,132,W,circle,1,0,,,,,,,,,,,,,,,,repeat,letter,lettRpt,k,0.4642,Lo,,,,,,4,,,,,,,,high,28,0,28,0,1,,,,,,,,,
297931,2022-11-27_18h36.29.956,vts_reward_expectancy_bt,2022.2.4,MacIntel,60.0024001,Chrome,1440,900,,,,,0,1218,,,,,,,,,,,,,,,,,139,Y,hexagon,1,0,,,,,,,,,,,,,,,,repeat,letter,lettRpt,k,0.5921,Hi,,,,,,4,,,,,,,,high,29,0,29,0,1,,,,,,,,,
297931,2022-11-27_18h36.29.956,vts_reward_expectancy_bt,2022.2.4,MacIntel,60.0024001,Chrome,1440,900,,,,,1,1219,,,,,,,,,,,,,,,,,174,S,star,1,0,,,,,,,,,,,,,,,,repeat,letter,lettRpt,k,0.4749,Lo,,,,,,4,,,,,,,,high,30,0,30,0,1,,,,,,,,,
297931,2022-11-27_18h36.29.956,vts_reward_expectancy_bt,2022.2.4,MacIntel,60.0024001,Chrome,1440,900,,,,,10,1229,,,,,,,,,,,,,,,,,125,B,triangle,1,0,,,,,,,,,,,,,,,,repeat,letter,lettRpt,j,0.4818,Hi,,,,,,4,,,,,,,,high,31,0,31,0,1,,,,,,,,,
297931,2022-11-27_18h36.29.956,vts_reward_expectancy_bt,2022.2.4,MacIntel,60.0024001,Chrome,1440,900,,,,,10,1239,,,,,,,,,,,,,,,,,146,F,hexagon,1,0,,,,,,,,,,,,,,,,switch,number,numSwt,d,0.6679,Hi,,,,,,5,,,,,,space,0.9502,high,0,0,0,0,1,,,,,,,,,
297931,2022-11-27_18h36.29.956,vts_reward_expectancy_bt,2022.2.4,MacIntel,60.0024001,Chrome,1440,900,,,,,0,1239,,,,,,,,,,,,,,,,,139,H,triangle,0,0,,,,,,,,,,,,,,,,switch,letter,NA,k,0.4998,Hi,,,,,,5,,,,,,,,high,1,0,1,0,1,,,,,,,,,
297931,2022-11-27_18h36.29.956,vts_reward_expectancy_bt,2022.2.4,MacIntel,60.0024001,Chrome,1440,900,,,,,1,1240,,,,,,,,,,,,,,,,,125,W,star,1,1,,,,,,,,,,,,,,,,switch,number,numSwt,d,0.5633,Lo,,,,,,5,,,,,,,,high,2,0,2,0,1,,,,,,,,,
297931,2022-11-27_18h36.29.956,vts_reward_expectancy_bt,2022.2.4,MacIntel,60.0024001,Chrome,1440,900,,,,,1,1241,,,,,,,,,,,,,,,,,181,D,circle,1,0,,,,,,,,,,,,,,,,repeat,number,numRpt,f,0.4672,Lo,,,,,,5,,,,,,,,high,3,0,3,0,1,,,,,,,,,
297931,2022-11-27_18h36.29.956,vts_reward_expectancy_bt,2022.2.4,MacIntel,60.0024001,Chrome,1440,900,,,,,0,1241,,,,,,,,,,,,,,,,,160,B,hexagon,0,0,,,,,,,,,,,,,,,,repeat,number,NA,d,0.6649,Lo,,,,,,5,,,,,,,,high,4,0,4,0,1,,,,,,,,,
297931,2022-11-27_18h36.29.956,vts_reward_expectancy_bt,2022.2.4,MacIntel,60.0024001,Chrome,1440,900,,,,,10,1251,,,,,,,,,,,,,,,,,167,Y,triangle,1,1,,,,,,,,,,,,,,,,repeat,number,numRpt,f,0.4812,Hi,,,,,,5,,,,,,,,high,5,0,5,0,1,,,,,,,,,
297931,2022-11-27_18h36.29.956,vts_reward_expectancy_bt,2022.2.4,MacIntel,60.0024001,Chrome,1440,900,,,,,1,1252,,,,,,,,,,,,,,,,,132,S,star,1,0,,,,,,,,,,,,,,,,repeat,number,numRpt,d,0.7119,Lo,,,,,,5,,,,,,,,high,6,0,6,0,1,,,,,,,,,
297931,2022-11-27_18h36.29.956,vts_reward_expectancy_bt,2022.2.4,MacIntel,60.0024001,Chrome,1440,900,,,,,1,1253,,,,,,,,,,,,,,,,,174,U,circle,1,0,,,,,,,,,,,,,,,,repeat,number,numRpt,f,0.5327,Lo,,,,,,5,,,,,,,,high,7,0,7,0,1,,,,,,,,,
297931,2022-11-27_18h36.29.956,vts_reward_expectancy_bt,2022.2.4,MacIntel,60.0024001,Chrome,1440,900,,,,,10,1263,,,,,,,,,,,,,,,,,146,F,circle,1,0,,,,,,,,,,,,,,,,switch,letter,lettSwt,j,0.5479,Lo,,,,,,5,,,,,,,,high,8,0,8,0,1,,,,,,,,,
297931,2022-11-27_18h36.29.956,vts_reward_expectancy_bt,2022.2.4,MacIntel,60.0024001,Chrome,1440,900,,,,,0,1263,,,,,,,,,,,,,,,,,139,H,hexagon,0,0,,,,,,,,,,,,,,,,repeat,letter,NA,k,0.5044,Lo,,,,,,5,,,,,,,,high,9,0,9,0,1,,,,,,,,,
297931,2022-11-27_18h36.29.956,vts_reward_expectancy_bt,2022.2.4,MacIntel,60.0024001,Chrome,1440,900,,,,,0,1263,,,,,,,,,,,,,,,,,125,W,triangle,0,1,,,,,,,,,,,,,,,,repeat,letter,NA,j,0.5145,Lo,,,,,,5,,,,,,,,high,10,0,10,0,1,,,,,,,,,
297931,2022-11-27_18h36.29.956,vts_reward_expectancy_bt,2022.2.4,MacIntel,60.0024001,Chrome,1440,900,,,,,0,1263,,,,,,,,,,,,,,,,,181,D,star,0,1,,,,,,,,,,,,,,,,repeat,letter,NA,k,0.6494,Lo,,,,,,5,,,,,,,,high,11,0,11,0,1,,,,,,,,,
297931,2022-11-27_18h36.29.956,vts_reward_expectancy_bt,2022.2.4,MacIntel,60.0024001,Chrome,1440,900,,,,,1,1264,,,,,,,,,,,,,,,,,160,B,star,1,1,,,,,,,,,,,,,,,,repeat,letter,lettRpt,j,0.5347,Lo,,,,,,5,,,,,,,,high,12,0,12,0,1,,,,,,,,,
297931,2022-11-27_18h36.29.956,vts_reward_expectancy_bt,2022.2.4,MacIntel,60.0024001,Chrome,1440,900,,,,,1,1265,,,,,,,,,,,,,,,,,167,Y,circle,1,0,,,,,,,,,,,,,,,,repeat,letter,lettRpt,k,0.5016,Lo,,,,,,5,,,,,,,,high,13,0,13,0,1,,,,,,,,,
297931,2022-11-27_18h36.29.956,vts_reward_expectancy_bt,2022.2.4,MacIntel,60.0024001,Chrome,1440,900,,,,,0,1265,,,,,,,,,,,,,,,,,132,S,hexagon,1,0,,,,,,,,,,,,,,,,repeat,letter,lettRpt,k,0.5792,Hi,,,,,,5,,,,,,,,high,14,0,14,0,1,,,,,,,,,
297931,2022-11-27_18h36.29.956,vts_reward_expectancy_bt,2022.2.4,MacIntel,60.0024001,Chrome,1440,900,,,,,0,1265,,,,,,,,,,,,,,,,,174,U,triangle,1,0,,,,,,,,,,,,,,,,repeat,letter,lettRpt,k,0.5454,Hi,,,,,,5,,,,,,,,high,15,0,15,0,1,,,,,,,,,
297931,2022-11-27_18h36.29.956,vts_reward_expectancy_bt,2022.2.4,MacIntel,60.0024001,Chrome,1440,900,,,,,0,1265,,,,,,,,,,,,,,,,,146,W,triangle,1,0,,,,,,,,,,,,,,,,repeat,letter,lettRpt,k,0.8129,Hi,,,,,,5,,,,,,,,high,16,0,16,0,1,,,,,,,,,
297931,2022-11-27_18h36.29.956,vts_reward_expectancy_bt,2022.2.4,MacIntel,60.0024001,Chrome,1440,900,,,,,1,1266,,,,,,,,,,,,,,,,,139,B,star,1,0,,,,,,,,,,,,,,,,switch,number,numSwt,d,0.9986,Lo,,,,,,5,,,,,,,,high,17,0,17,0,1,,,,,,,,,
297931,2022-11-27_18h36.29.956,vts_reward_expectancy_bt,2022.2.4,MacIntel,60.0024001,Chrome,1440,900,,,,,10,1276,,,,,,,,,,,,,,,,,181,S,circle,1,0,,,,,,,,,,,,,,,,repeat,number,numRpt,f,0.9941,Lo,,,,,,5,,,,,,,,high,18,0,18,0,1,,,,,,,,,
297931,2022-11-27_18h36.29.956,vts_reward_expectancy_bt,2022.2.4,MacIntel,60.0024001,Chrome,1440,900,,,,,0,1276,,,,,,,,,,,,,,,,,160,D,hexagon,0,0,,,,,,,,,,,,,,,,repeat,number,NA,d,0.528,Lo,,,,,,5,,,,,,,,high,19,0,19,0,1,,,,,,,,,
297931,2022-11-27_18h36.29.956,vts_reward_expectancy_bt,2022.2.4,MacIntel,60.0024001,Chrome,1440,900,,,,,0,1276,,,,,,,,,,,,,,,,,167,Y,hexagon,1,1,,,,,,,,,,,,,,,,repeat,number,numRpt,f,0.6284,Hi,,,,,,5,,,,,,,,high,20,0,20,0,1,,,,,,,,,
297931,2022-11-27_18h36.29.956,vts_reward_expectancy_bt,2022.2.4,MacIntel,60.0024001,Chrome,1440,900,,,,,10,1286,,,,,,,,,,,,,,,,,174,H,circle,1,0,,,,,,,,,,,,,,,,repeat,number,numRpt,f,0.6025,Lo,,,,,,5,,,,,,,,high,21,0,21,0,1,,,,,,,,,
297931,2022-11-27_18h36.29.956,vts_reward_expectancy_bt,2022.2.4,MacIntel,60.0024001,Chrome,1440,900,,,,,1,1287,,,,,,,,,,,,,,,,,132,U,star,1,0,,,,,,,,,,,,,,,,repeat,number,numRpt,d,0.661,Lo,,,,,,5,,,,,,,,high,22,0,22,0,1,,,,,,,,,
297931,2022-11-27_18h36.29.956,vts_reward_expectancy_bt,2022.2.4,MacIntel,60.0024001,Chrome,1440,900,,,,,10,1297,,,,,,,,,,,,,,,,,125,F,triangle,1,0,,,,,,,,,,,,,,,,repeat,number,numRpt,d,0.5156,Hi,,,,,,5,,,,,,,,high,23,0,23,0,1,,,,,,,,,
297931,2022-11-27_18h36.29.956,vts_reward_expectancy_bt,2022.2.4,MacIntel,60.0024001,Chrome,1440,900,,,,,10,1307,,,,,,,,,,,,,,,,,125,W,circle,1,0,,,,,,,,,,,,,,,,repeat,number,numRpt,d,0.4812,Lo,,,,,,5,,,,,,,,high,24,0,24,0,1,,,,,,,,,
297931,2022-11-27_18h36.29.956,vts_reward_expectancy_bt,2022.2.4,MacIntel,60.0024001,Chrome,1440,900,,,,,1,1308,,,,,,,,,,,,,,,,,160,H,hexagon,1,0,,,,,,,,,,,,,,,,repeat,number,numRpt,f,0.5156,Hi,,,,,,5,,,,,,,,high,25,0,25,0,1,,,,,,,,,
297931,2022-11-27_18h36.29.956,vts_reward_expectancy_bt,2022.2.4,MacIntel,60.0024001,Chrome,1440,900,,,,,1,1309,,,,,,,,,,,,,,,,,146,U,star,1,0,,,,,,,,,,,,,,,,repeat,number,numRpt,d,0.5936,Lo,,,,,,5,,,,,,,,high,26,0,26,0,1,,,,,,,,,
297931,2022-11-27_18h36.29.956,vts_reward_expectancy_bt,2022.2.4,MacIntel,60.0024001,Chrome,1440,900,,,,,10,1319,,,,,,,,,,,,,,,,,167,Y,triangle,1,0,,,,,,,,,,,,,,,,repeat,number,numRpt,f,0.4516,Hi,,,,,,5,,,,,,,,high,27,0,27,0,1,,,,,,,,,
297931,2022-11-27_18h36.29.956,vts_reward_expectancy_bt,2022.2.4,MacIntel,60.0024001,Chrome,1440,900,,,,,1,1320,,,,,,,,,,,,,,,,,181,D,star,1,0,,,,,,,,,,,,,,,,switch,letter,lettSwt,j,0.6156,Lo,,,,,,5,,,,,,,,high,28,0,28,0,1,,,,,,,,,
297931,2022-11-27_18h36.29.956,vts_reward_expectancy_bt,2022.2.4,MacIntel,60.0024001,Chrome,1440,900,,,,,0,1320,,,,,,,,,,,,,,,,,132,F,hexagon,0,0,,,,,,,,,,,,,,,,repeat,letter,NA,k,0.5083,Lo,,,,,,5,,,,,,,,high,29,0,29,0,1,,,,,,,,,
297931,2022-11-27_18h36.29.956,vts_reward_expectancy_bt,2022.2.4,MacIntel,60.0024001,Chrome,1440,900,,,,,10,1330,,,,,,,,,,,,,,,,,174,S,circle,1,1,,,,,,,,,,,,,,,,repeat,letter,lettRpt,k,0.5994,Lo,,,,,,5,,,,,,,,high,30,0,30,0,1,,,,,,,,,
297931,2022-11-27_18h36.29.956,vts_reward_expectancy_bt,2022.2.4,MacIntel,60.0024001,Chrome,1440,900,,,,,0,1330,,,,,,,,,,,,,,,,,139,B,triangle,1,0,,,,,,,,,,,,,,,,repeat,letter,lettRpt,j,0.5822,Hi,,,,,,5,,,,,,,,high,31,0,31,0,1,,,,,,,,,
297931,2022-11-27_18h36.29.956,vts_reward_expectancy_bt,2022.2.4,MacIntel,60.0024001,Chrome,1440,900,,,,,10,1340,,,,,,,,,,,,,,,,,174,S,circle,1,0,,,,,,,,,,,,,,,,switch,number,numSwt,f,1.1992,Lo,,,,,,6,,,,,,space,0.8482,high,0,0,0,0,1,,,,,,,,,
297931,2022-11-27_18h36.29.956,vts_reward_expectancy_bt,2022.2.4,MacIntel,60.0024001,Chrome,1440,900,,,,,1,1341,,,,,,,,,,,,,,,,,139,D,star,1,0,,,,,,,,,,,,,,,,repeat,number,numRpt,d,0.5156,Lo,,,,,,6,,,,,,,,high,1,0,1,0,1,,,,,,,,,
297931,2022-11-27_18h36.29.956,vts_reward_expectancy_bt,2022.2.4,MacIntel,60.0024001,Chrome,1440,900,,,,,0,1341,,,,,,,,,,,,,,,,,160,F,triangle,1,0,,,,,,,,,,,,,,,,repeat,number,numRpt,f,0.5159,Hi,,,,,,6,,,,,,,,high,2,0,2,0,1,,,,,,,,,
297931,2022-11-27_18h36.29.956,vts_reward_expectancy_bt,2022.2.4,MacIntel,60.0024001,Chrome,1440,900,,,,,0,1341,,,,,,,,,,,,,,,,,132,B,hexagon,1,0,,,,,,,,,,,,,,,,switch,letter,lettSwt,j,0.5932,Hi,,,,,,6,,,,,,,,high,3,0,3,0,1,,,,,,,,,
297931,2022-11-27_18h36.29.956,vts_reward_expectancy_bt,2022.2.4,MacIntel,60.0024001,Chrome,1440,900,,,,,1,1342,,,,,,,,,,,,,,,,,167,Y,circle,1,0,,,,,,,,,,,,,,,,repeat,letter,lettRpt,k,0.5438,Lo,,,,,,6,,,,,,,,high,4,0,4,0,1,,,,,,,,,
297931,2022-11-27_18h36.29.956,vts_reward_expectancy_bt,2022.2.4,MacIntel,60.0024001,Chrome,1440,900,,,,,1,1343,,,,,,,,,,,,,,,,,146,U,star,1,0,,,,,,,,,,,,,,,,repeat,letter,lettRpt,k,0.5831,Lo,,,,,,6,,,,,,,,high,5,0,5,0,1,,,,,,,,,
297931,2022-11-27_18h36.29.956,vts_reward_expectancy_bt,2022.2.4,MacIntel,60.0024001,Chrome,1440,900,,,,,1,1344,,,,,,,,,,,,,,,,,125,W,triangle,1,0,,,,,,,,,,,,,,,,repeat,letter,lettRpt,k,0.5157,Hi,,,,,,6,,,,,,,,high,6,0,6,0,1,,,,,,,,,
297931,2022-11-27_18h36.29.956,vts_reward_expectancy_bt,2022.2.4,MacIntel,60.0024001,Chrome,1440,900,,,,,10,1354,,,,,,,,,,,,,,,,,181,H,hexagon,1,0,,,,,,,,,,,,,,,,switch,number,numSwt,f,0.599,Hi,,,,,,6,,,,,,,,high,7,0,7,0,1,,,,,,,,,
297931,2022-11-27_18h36.29.956,vts_reward_expectancy_bt,2022.2.4,MacIntel,60.0024001,Chrome,1440,900,,,,,0,1354,,,,,,,,,,,,,,,,,174,S,hexagon,1,0,,,,,,,,,,,,,,,,switch,letter,lettSwt,k,0.7509,Hi,,,,,,6,,,,,,,,high,8,0,8,0,1,,,,,,,,,
297931,2022-11-27_18h36.29.956,vts_reward_expectancy_bt,2022.2.4,MacIntel,60.0024001,Chrome,1440,900,,,,,0,1354,,,,,,,,,,,,,,,,,139,D,triangle,0,0,,,,,,,,,,,,,,,,repeat,letter,NA,k,0.4649,Hi,,,,,,6,,,,,,,,high,9,0,9,0,1,,,,,,,,,
297931,2022-11-27_18h36.29.956,vts_reward_expectancy_bt,2022.2.4,MacIntel,60.0024001,Chrome,1440,900,,,,,0,1354,,,,,,,,,,,,,,,,,160,F,circle,0,1,,,,,,,,,,,,,,,,repeat,letter,NA,k,0.654,Hi,,,,,,6,,,,,,,,high,10,0,10,0,1,,,,,,,,,
297931,2022-11-27_18h36.29.956,vts_reward_expectancy_bt,2022.2.4,MacIntel,60.0024001,Chrome,1440,900,,,,,1,1355,,,,,,,,,,,,,,,,,132,B,star,1,1,,,,,,,,,,,,,,,,switch,number,numSwt,d,0.7109,Lo,,,,,,6,,,,,,,,high,11,0,11,0,1,,,,,,,,,
