participant,date,expName,psychopyVersion,OS,frameRate,browser,xResolution,yResolution,key_resp.keys,key_resp.rt,training_resp.keys,training_resp.rt,points_trial,points_cumul,trainBlock,training.thisRepN,training.thisTrialN,training.thisN,training.thisIndex,training.ran,LTriangleOpac,LCircleOpac,LHexagonOpac,LStarOpac,RTriangleOpac,RCircleOpac,RHexagonOpac,RStarOpac,LShape_ID,RShape_ID,curr_topStim,curr_bottStim,curr_shape,acc,E1,target_resp_prac1.keys,target_resp_prac1.rt,pracBlock,task1_prac_trials.thisRepN,task1_prac_trials.thisTrialN,task1_prac_trials.thisN,task1_prac_trials.thisIndex,task1_prac_trials.ran,target_resp_prac2.keys,target_resp_prac2.rt,task2_praac_trials.thisRepN,task2_praac_trials.thisTrialN,task2_praac_trials.thisN,task2_praac_trials.thisIndex,task2_praac_trials.ran,alt,task,condition,target_resp.keys,rewCond,vts_practice_trials.thisRepN,vts_practice_trials.thisTrialN,vts_practice_trials.thisN,vts_practice_trials.thisIndex,vts_practice_trials.ran,target_resp.rt,blockNum,trials_norew.thisRepN,trials_norew.thisTrialN,trials_norew.thisN,trials_norew.thisIndex,trials_norew.ran,key_resp_2.keys,key_resp_2.rt,rewExpectancy,trials_rew.thisRepN,trials_rew.thisTrialN,trials_rew.thisN,trials_rew.thisIndex,trials_rew.ran,Q1,Q2,Q2_text,Q3,Q4,Q5_text,Q5,xRes,yRes
297940,2022-12-03_20h23.07.845,vts_reward_expectancy_bt,2022.2.4,MacIntel,59.93407252,Chrome,1920,1080,,,,,,,,,,,,,,,,,,,,,,,,,,,,,,,,,,,,,,,,,,,,,,,,,,,,,,,,,,,,,,,,,,,,,,,,,,,,
297940,2022-12-03_20h23.07.845,vts_reward_expectancy_bt,2022.2.4,MacIntel,59.93407252,Chrome,1920,1080,space,1.0232,,,,,,,,,,,,,,,,,,,,,,,,,,,,,,,,,,,,,,,,,,,,,,,,,,,,,,,,,,,,,,,,,,,,,,,,,,
297940,2022-12-03_20h23.07.845,vts_reward_expectancy_bt,2022.2.4,MacIntel,59.93407252,Chrome,1920,1080,,,,,,,,,,,,,,,,,,,,,,,,,,,,,,,,,,,,,,,,,,,,,,,,,,,,,,,,,,,,,,,,,,,,,,,,,,,,
297940,2022-12-03_20h23.07.845,vts_reward_expectancy_bt,2022.2.4,MacIntel,59.93407252,Chrome,1920,1080,,,l,3.4979,1,1,0,0,0,0,8,1,0,0,1,0,0,0,0,1,hexagon,star,,,,,,,,,,,,,,,,,,,,,,,,,,,,,,,,,,,,,,,,,,,,,,,,,,,,,,
297940,2022-12-03_20h23.07.845,vts_reward_expectancy_bt,2022.2.4,MacIntel,59.93407252,Chrome,1920,1080,,,l,1.8509,1,2,0,0,1,1,1,1,1,0,0,0,0,0,1,0,triangle,hexagon,,,,,,,,,,,,,,,,,,,,,,,,,,,,,,,,,,,,,,,,,,,,,,,,,,,,,,
297940,2022-12-03_20h23.07.845,vts_reward_expectancy_bt,2022.2.4,MacIntel,59.93407252,Chrome,1920,1080,,,a,1.6202,1,3,0,0,2,2,10,1,0,0,0,1,0,1,0,0,star ,circle,,,,,,,,,,,,,,,,,,,,,,,,,,,,,,,,,,,,,,,,,,,,,,,,,,,,,,
297940,2022-12-03_20h23.07.845,vts_reward_expectancy_bt,2022.2.4,MacIntel,59.93407252,Chrome,1920,1080,,,l,0.8257,10,13,0,0,3,3,2,1,1,0,0,0,0,0,0,1,triangle,star,,,,,,,,,,,,,,,,,,,,,,,,,,,,,,,,,,,,,,,,,,,,,,,,,,,,,,
297940,2022-12-03_20h23.07.845,vts_reward_expectancy_bt,2022.2.4,MacIntel,59.93407252,Chrome,1920,1080,,,a,1.1663,1,14,0,0,4,4,7,1,0,0,1,0,0,1,0,0,hexagon,circle,,,,,,,,,,,,,,,,,,,,,,,,,,,,,,,,,,,,,,,,,,,,,,,,,,,,,,
297940,2022-12-03_20h23.07.845,vts_reward_expectancy_bt,2022.2.4,MacIntel,59.93407252,Chrome,1920,1080,,,a,1.054,10,24,0,0,5,5,3,1,0,1,0,0,1,0,0,0,circle,triangle,,,,,,,,,,,,,,,,,,,,,,,,,,,,,,,,,,,,,,,,,,,,,,,,,,,,,,
297940,2022-12-03_20h23.07.845,vts_reward_expectancy_bt,2022.2.4,MacIntel,59.93407252,Chrome,1920,1080,,,a,1.0343,10,34,0,0,6,6,9,1,0,0,0,1,1,0,0,0,star,triangle,,,,,,,,,,,,,,,,,,,,,,,,,,,,,,,,,,,,,,,,,,,,,,,,,,,,,,
297940,2022-12-03_20h23.07.845,vts_reward_expectancy_bt,2022.2.4,MacIntel,59.93407252,Chrome,1920,1080,,,a,1.7532,1,35,0,0,7,7,5,1,0,1,0,0,0,0,0,1,circle,star,,,,,,,,,,,,,,,,,,,,,,,,,,,,,,,,,,,,,,,,,,,,,,,,,,,,,,
297940,2022-12-03_20h23.07.845,vts_reward_expectancy_bt,2022.2.4,MacIntel,59.93407252,Chrome,1920,1080,,,a,1.0266,1,36,0,0,8,8,11,1,0,0,0,1,0,0,1,0,star,hexagon,,,,,,,,,,,,,,,,,,,,,,,,,,,,,,,,,,,,,,,,,,,,,,,,,,,,,,
297940,2022-12-03_20h23.07.845,vts_reward_expectancy_bt,2022.2.4,MacIntel,59.93407252,Chrome,1920,1080,,,l,0.8872,10,46,0,0,9,9,0,1,1,0,0,0,0,1,0,0,triangle,circle,,,,,,,,,,,,,,,,,,,,,,,,,,,,,,,,,,,,,,,,,,,,,,,,,,,,,,
297940,2022-12-03_20h23.07.845,vts_reward_expectancy_bt,2022.2.4,MacIntel,59.93407252,Chrome,1920,1080,,,a,1.3411,1,47,0,0,10,10,6,1,0,0,1,0,1,0,0,0,hexagon,triangle,,,,,,,,,,,,,,,,,,,,,,,,,,,,,,,,,,,,,,,,,,,,,,,,,,,,,,
297940,2022-12-03_20h23.07.845,vts_reward_expectancy_bt,2022.2.4,MacIntel,59.93407252,Chrome,1920,1080,,,a,1.5663,1,48,0,0,11,11,4,1,0,1,0,0,0,0,1,0,circle,hexagon,,,,,,,,,,,,,,,,,,,,,,,,,,,,,,,,,,,,,,,,,,,,,,,,,,,,,,
297940,2022-12-03_20h23.07.845,vts_reward_expectancy_bt,2022.2.4,MacIntel,59.93407252,Chrome,1920,1080,,,a,1.6234,1,49,0,1,0,12,10,1,0,0,0,1,0,1,0,0,star ,circle,,,,,,,,,,,,,,,,,,,,,,,,,,,,,,,,,,,,,,,,,,,,,,,,,,,,,,
297940,2022-12-03_20h23.07.845,vts_reward_expectancy_bt,2022.2.4,MacIntel,59.93407252,Chrome,1920,1080,,,a,1.4085,1,50,0,1,1,13,9,1,0,0,0,1,1,0,0,0,star,triangle,,,,,,,,,,,,,,,,,,,,,,,,,,,,,,,,,,,,,,,,,,,,,,,,,,,,,,
297940,2022-12-03_20h23.07.845,vts_reward_expectancy_bt,2022.2.4,MacIntel,59.93407252,Chrome,1920,1080,,,a,1.6744,1,51,0,1,2,14,8,1,0,0,1,0,0,0,0,1,hexagon,star,,,,,,,,,,,,,,,,,,,,,,,,,,,,,,,,,,,,,,,,,,,,,,,,,,,,,,
297940,2022-12-03_20h23.07.845,vts_reward_expectancy_bt,2022.2.4,MacIntel,59.93407252,Chrome,1920,1080,,,l,2.1704,1,52,0,1,3,15,6,1,0,0,1,0,1,0,0,0,hexagon,triangle,,,,,,,,,,,,,,,,,,,,,,,,,,,,,,,,,,,,,,,,,,,,,,,,,,,,,,
297940,2022-12-03_20h23.07.845,vts_reward_expectancy_bt,2022.2.4,MacIntel,59.93407252,Chrome,1920,1080,,,l,1.7038,1,53,0,1,4,16,3,1,0,1,0,0,1,0,0,0,circle,triangle,,,,,,,,,,,,,,,,,,,,,,,,,,,,,,,,,,,,,,,,,,,,,,,,,,,,,,
297940,2022-12-03_20h23.07.845,vts_reward_expectancy_bt,2022.2.4,MacIntel,59.93407252,Chrome,1920,1080,,,a,0.6188,10,63,0,1,5,17,11,1,0,0,0,1,0,0,1,0,star,hexagon,,,,,,,,,,,,,,,,,,,,,,,,,,,,,,,,,,,,,,,,,,,,,,,,,,,,,,
297940,2022-12-03_20h23.07.845,vts_reward_expectancy_bt,2022.2.4,MacIntel,59.93407252,Chrome,1920,1080,,,a,0.8858,10,73,0,1,6,18,5,1,0,1,0,0,0,0,0,1,circle,star,,,,,,,,,,,,,,,,,,,,,,,,,,,,,,,,,,,,,,,,,,,,,,,,,,,,,,
297940,2022-12-03_20h23.07.845,vts_reward_expectancy_bt,2022.2.4,MacIntel,59.93407252,Chrome,1920,1080,,,a,1.0184,10,83,0,1,7,19,2,1,1,0,0,0,0,0,0,1,triangle,star,,,,,,,,,,,,,,,,,,,,,,,,,,,,,,,,,,,,,,,,,,,,,,,,,,,,,,
297940,2022-12-03_20h23.07.845,vts_reward_expectancy_bt,2022.2.4,MacIntel,59.93407252,Chrome,1920,1080,,,a,1.3425,1,84,0,1,8,20,7,1,0,0,1,0,0,1,0,0,hexagon,circle,,,,,,,,,,,,,,,,,,,,,,,,,,,,,,,,,,,,,,,,,,,,,,,,,,,,,,
297940,2022-12-03_20h23.07.845,vts_reward_expectancy_bt,2022.2.4,MacIntel,59.93407252,Chrome,1920,1080,,,a,1.872,10,94,0,1,9,21,1,1,1,0,0,0,0,0,1,0,triangle,hexagon,,,,,,,,,,,,,,,,,,,,,,,,,,,,,,,,,,,,,,,,,,,,,,,,,,,,,,
297940,2022-12-03_20h23.07.845,vts_reward_expectancy_bt,2022.2.4,MacIntel,59.93407252,Chrome,1920,1080,,,a,1.1418,10,104,0,1,10,22,4,1,0,1,0,0,0,0,1,0,circle,hexagon,,,,,,,,,,,,,,,,,,,,,,,,,,,,,,,,,,,,,,,,,,,,,,,,,,,,,,
297940,2022-12-03_20h23.07.845,vts_reward_expectancy_bt,2022.2.4,MacIntel,59.93407252,Chrome,1920,1080,,,l,1.6718,10,114,0,1,11,23,0,1,1,0,0,0,0,1,0,0,triangle,circle,,,,,,,,,,,,,,,,,,,,,,,,,,,,,,,,,,,,,,,,,,,,,,,,,,,,,,
297940,2022-12-03_20h23.07.845,vts_reward_expectancy_bt,2022.2.4,MacIntel,59.93407252,Chrome,1920,1080,,,l,2.1971,1,115,0,2,0,24,0,1,1,0,0,0,0,1,0,0,triangle,circle,,,,,,,,,,,,,,,,,,,,,,,,,,,,,,,,,,,,,,,,,,,,,,,,,,,,,,
297940,2022-12-03_20h23.07.845,vts_reward_expectancy_bt,2022.2.4,MacIntel,59.93407252,Chrome,1920,1080,,,a,0.4877,10,125,0,2,1,25,4,1,0,1,0,0,0,0,1,0,circle,hexagon,,,,,,,,,,,,,,,,,,,,,,,,,,,,,,,,,,,,,,,,,,,,,,,,,,,,,,
297940,2022-12-03_20h23.07.845,vts_reward_expectancy_bt,2022.2.4,MacIntel,59.93407252,Chrome,1920,1080,,,l,2.4041,1,126,0,2,2,26,9,1,0,0,0,1,1,0,0,0,star,triangle,,,,,,,,,,,,,,,,,,,,,,,,,,,,,,,,,,,,,,,,,,,,,,,,,,,,,,
297940,2022-12-03_20h23.07.845,vts_reward_expectancy_bt,2022.2.4,MacIntel,59.93407252,Chrome,1920,1080,,,l,1.3295,1,127,0,2,3,27,8,1,0,0,1,0,0,0,0,1,hexagon,star,,,,,,,,,,,,,,,,,,,,,,,,,,,,,,,,,,,,,,,,,,,,,,,,,,,,,,
297940,2022-12-03_20h23.07.845,vts_reward_expectancy_bt,2022.2.4,MacIntel,59.93407252,Chrome,1920,1080,,,a,1.0872,1,128,0,2,4,28,3,1,0,1,0,0,1,0,0,0,circle,triangle,,,,,,,,,,,,,,,,,,,,,,,,,,,,,,,,,,,,,,,,,,,,,,,,,,,,,,
297940,2022-12-03_20h23.07.845,vts_reward_expectancy_bt,2022.2.4,MacIntel,59.93407252,Chrome,1920,1080,,,l,1.3392,1,129,0,2,5,29,7,1,0,0,1,0,0,1,0,0,hexagon,circle,,,,,,,,,,,,,,,,,,,,,,,,,,,,,,,,,,,,,,,,,,,,,,,,,,,,,,
297940,2022-12-03_20h23.07.845,vts_reward_expectancy_bt,2022.2.4,MacIntel,59.93407252,Chrome,1920,1080,,,a,0.6331,1,130,0,2,6,30,10,1,0,0,0,1,0,1,0,0,star ,circle,,,,,,,,,,,,,,,,,,,,,,,,,,,,,,,,,,,,,,,,,,,,,,,,,,,,,,
297940,2022-12-03_20h23.07.845,vts_reward_expectancy_bt,2022.2.4,MacIntel,59.93407252,Chrome,1920,1080,,,l,0.8418,1,131,0,2,7,31,11,1,0,0,0,1,0,0,1,0,star,hexagon,,,,,,,,,,,,,,,,,,,,,,,,,,,,,,,,,,,,,,,,,,,,,,,,,,,,,,
297940,2022-12-03_20h23.07.845,vts_reward_expectancy_bt,2022.2.4,MacIntel,59.93407252,Chrome,1920,1080,,,a,1.2858,1,132,0,2,8,32,6,1,0,0,1,0,1,0,0,0,hexagon,triangle,,,,,,,,,,,,,,,,,,,,,,,,,,,,,,,,,,,,,,,,,,,,,,,,,,,,,,
297940,2022-12-03_20h23.07.845,vts_reward_expectancy_bt,2022.2.4,MacIntel,59.93407252,Chrome,1920,1080,,,l,0.4424,10,142,0,2,9,33,1,1,1,0,0,0,0,0,1,0,triangle,hexagon,,,,,,,,,,,,,,,,,,,,,,,,,,,,,,,,,,,,,,,,,,,,,,,,,,,,,,
297940,2022-12-03_20h23.07.845,vts_reward_expectancy_bt,2022.2.4,MacIntel,59.93407252,Chrome,1920,1080,,,a,1.2843,1,143,0,2,10,34,5,1,0,1,0,0,0,0,0,1,circle,star,,,,,,,,,,,,,,,,,,,,,,,,,,,,,,,,,,,,,,,,,,,,,,,,,,,,,,
297940,2022-12-03_20h23.07.845,vts_reward_expectancy_bt,2022.2.4,MacIntel,59.93407252,Chrome,1920,1080,,,l,0.4741,10,153,0,2,11,35,2,1,1,0,0,0,0,0,0,1,triangle,star,,,,,,,,,,,,,,,,,,,,,,,,,,,,,,,,,,,,,,,,,,,,,,,,,,,,,,
297940,2022-12-03_20h23.07.845,vts_reward_expectancy_bt,2022.2.4,MacIntel,59.93407252,Chrome,1920,1080,,,l,2.2951,10,163,1,0,0,0,9,1,0,0,0,1,1,0,0,0,star,triangle,,,,,,,,,,,,,,,,,,,,,,,,,,,,,,,,,,,,,,,,,,,,,,,,,,,,,,
297940,2022-12-03_20h23.07.845,vts_reward_expectancy_bt,2022.2.4,MacIntel,59.93407252,Chrome,1920,1080,,,a,1.2078,10,173,1,0,1,1,10,1,0,0,0,1,0,1,0,0,star ,circle,,,,,,,,,,,,,,,,,,,,,,,,,,,,,,,,,,,,,,,,,,,,,,,,,,,,,,
297940,2022-12-03_20h23.07.845,vts_reward_expectancy_bt,2022.2.4,MacIntel,59.93407252,Chrome,1920,1080,,,l,2.5863,1,174,1,0,2,2,2,1,1,0,0,0,0,0,0,1,triangle,star,,,,,,,,,,,,,,,,,,,,,,,,,,,,,,,,,,,,,,,,,,,,,,,,,,,,,,
297940,2022-12-03_20h23.07.845,vts_reward_expectancy_bt,2022.2.4,MacIntel,59.93407252,Chrome,1920,1080,,,a,0.3882,10,184,1,0,3,3,5,1,0,1,0,0,0,0,0,1,circle,star,,,,,,,,,,,,,,,,,,,,,,,,,,,,,,,,,,,,,,,,,,,,,,,,,,,,,,
297940,2022-12-03_20h23.07.845,vts_reward_expectancy_bt,2022.2.4,MacIntel,59.93407252,Chrome,1920,1080,,,l,0.4404,1,185,1,0,4,4,7,1,0,0,1,0,0,1,0,0,hexagon,circle,,,,,,,,,,,,,,,,,,,,,,,,,,,,,,,,,,,,,,,,,,,,,,,,,,,,,,
297940,2022-12-03_20h23.07.845,vts_reward_expectancy_bt,2022.2.4,MacIntel,59.93407252,Chrome,1920,1080,,,a,0.3994,1,186,1,0,5,5,6,1,0,0,1,0,1,0,0,0,hexagon,triangle,,,,,,,,,,,,,,,,,,,,,,,,,,,,,,,,,,,,,,,,,,,,,,,,,,,,,,
297940,2022-12-03_20h23.07.845,vts_reward_expectancy_bt,2022.2.4,MacIntel,59.93407252,Chrome,1920,1080,,,a,0.4843,10,196,1,0,6,6,3,1,0,1,0,0,1,0,0,0,circle,triangle,,,,,,,,,,,,,,,,,,,,,,,,,,,,,,,,,,,,,,,,,,,,,,,,,,,,,,
297940,2022-12-03_20h23.07.845,vts_reward_expectancy_bt,2022.2.4,MacIntel,59.93407252,Chrome,1920,1080,,,l,0.4162,1,197,1,0,7,7,11,1,0,0,0,1,0,0,1,0,star,hexagon,,,,,,,,,,,,,,,,,,,,,,,,,,,,,,,,,,,,,,,,,,,,,,,,,,,,,,
297940,2022-12-03_20h23.07.845,vts_reward_expectancy_bt,2022.2.4,MacIntel,59.93407252,Chrome,1920,1080,,,l,0.645,1,198,1,0,8,8,0,1,1,0,0,0,0,1,0,0,triangle,circle,,,,,,,,,,,,,,,,,,,,,,,,,,,,,,,,,,,,,,,,,,,,,,,,,,,,,,
297940,2022-12-03_20h23.07.845,vts_reward_expectancy_bt,2022.2.4,MacIntel,59.93407252,Chrome,1920,1080,,,a,0.3675,10,208,1,0,9,9,4,1,0,1,0,0,0,0,1,0,circle,hexagon,,,,,,,,,,,,,,,,,,,,,,,,,,,,,,,,,,,,,,,,,,,,,,,,,,,,,,
297940,2022-12-03_20h23.07.845,vts_reward_expectancy_bt,2022.2.4,MacIntel,59.93407252,Chrome,1920,1080,,,l,0.6401,1,209,1,0,10,10,8,1,0,0,1,0,0,0,0,1,hexagon,star,,,,,,,,,,,,,,,,,,,,,,,,,,,,,,,,,,,,,,,,,,,,,,,,,,,,,,
297940,2022-12-03_20h23.07.845,vts_reward_expectancy_bt,2022.2.4,MacIntel,59.93407252,Chrome,1920,1080,,,a,0.4351,10,219,1,0,11,11,1,1,1,0,0,0,0,0,1,0,triangle,hexagon,,,,,,,,,,,,,,,,,,,,,,,,,,,,,,,,,,,,,,,,,,,,,,,,,,,,,,
297940,2022-12-03_20h23.07.845,vts_reward_expectancy_bt,2022.2.4,MacIntel,59.93407252,Chrome,1920,1080,,,l,0.4074,1,220,1,1,0,12,10,1,0,0,0,1,0,1,0,0,star ,circle,,,,,,,,,,,,,,,,,,,,,,,,,,,,,,,,,,,,,,,,,,,,,,,,,,,,,,
297940,2022-12-03_20h23.07.845,vts_reward_expectancy_bt,2022.2.4,MacIntel,59.93407252,Chrome,1920,1080,,,l,22.5629,10,230,1,1,1,13,9,1,0,0,0,1,1,0,0,0,star,triangle,,,,,,,,,,,,,,,,,,,,,,,,,,,,,,,,,,,,,,,,,,,,,,,,,,,,,,
297940,2022-12-03_20h23.07.845,vts_reward_expectancy_bt,2022.2.4,MacIntel,59.93407252,Chrome,1920,1080,,,a,0.5907,10,240,1,1,2,14,8,1,0,0,1,0,0,0,0,1,hexagon,star,,,,,,,,,,,,,,,,,,,,,,,,,,,,,,,,,,,,,,,,,,,,,,,,,,,,,,
297940,2022-12-03_20h23.07.845,vts_reward_expectancy_bt,2022.2.4,MacIntel,59.93407252,Chrome,1920,1080,,,l,1.2871,1,241,1,1,3,15,6,1,0,0,1,0,1,0,0,0,hexagon,triangle,,,,,,,,,,,,,,,,,,,,,,,,,,,,,,,,,,,,,,,,,,,,,,,,,,,,,,
297940,2022-12-03_20h23.07.845,vts_reward_expectancy_bt,2022.2.4,MacIntel,59.93407252,Chrome,1920,1080,,,a,0.333,1,242,1,1,4,16,5,1,0,1,0,0,0,0,0,1,circle,star,,,,,,,,,,,,,,,,,,,,,,,,,,,,,,,,,,,,,,,,,,,,,,,,,,,,,,
297940,2022-12-03_20h23.07.845,vts_reward_expectancy_bt,2022.2.4,MacIntel,59.93407252,Chrome,1920,1080,,,l,0.3933,10,252,1,1,5,17,0,1,1,0,0,0,0,1,0,0,triangle,circle,,,,,,,,,,,,,,,,,,,,,,,,,,,,,,,,,,,,,,,,,,,,,,,,,,,,,,
297940,2022-12-03_20h23.07.845,vts_reward_expectancy_bt,2022.2.4,MacIntel,59.93407252,Chrome,1920,1080,,,a,0.418,10,262,1,1,6,18,3,1,0,1,0,0,1,0,0,0,circle,triangle,,,,,,,,,,,,,,,,,,,,,,,,,,,,,,,,,,,,,,,,,,,,,,,,,,,,,,
297940,2022-12-03_20h23.07.845,vts_reward_expectancy_bt,2022.2.4,MacIntel,59.93407252,Chrome,1920,1080,,,l,0.4858,10,272,1,1,7,19,2,1,1,0,0,0,0,0,0,1,triangle,star,,,,,,,,,,,,,,,,,,,,,,,,,,,,,,,,,,,,,,,,,,,,,,,,,,,,,,
297940,2022-12-03_20h23.07.845,vts_reward_expectancy_bt,2022.2.4,MacIntel,59.93407252,Chrome,1920,1080,,,l,0.5013,1,273,1,1,8,20,1,1,1,0,0,0,0,0,1,0,triangle,hexagon,,,,,,,,,,,,,,,,,,,,,,,,,,,,,,,,,,,,,,,,,,,,,,,,,,,,,,
297940,2022-12-03_20h23.07.845,vts_reward_expectancy_bt,2022.2.4,MacIntel,59.93407252,Chrome,1920,1080,,,a,1.4772,1,274,1,1,9,21,4,1,0,1,0,0,0,0,1,0,circle,hexagon,,,,,,,,,,,,,,,,,,,,,,,,,,,,,,,,,,,,,,,,,,,,,,,,,,,,,,
297940,2022-12-03_20h23.07.845,vts_reward_expectancy_bt,2022.2.4,MacIntel,59.93407252,Chrome,1920,1080,,,l,0.2881,1,275,1,1,10,22,11,1,0,0,0,1,0,0,1,0,star,hexagon,,,,,,,,,,,,,,,,,,,,,,,,,,,,,,,,,,,,,,,,,,,,,,,,,,,,,,
297940,2022-12-03_20h23.07.845,vts_reward_expectancy_bt,2022.2.4,MacIntel,59.93407252,Chrome,1920,1080,,,l,0.4162,10,285,1,1,11,23,7,1,0,0,1,0,0,1,0,0,hexagon,circle,,,,,,,,,,,,,,,,,,,,,,,,,,,,,,,,,,,,,,,,,,,,,,,,,,,,,,
297940,2022-12-03_20h23.07.845,vts_reward_expectancy_bt,2022.2.4,MacIntel,59.93407252,Chrome,1920,1080,,,a,0.3735,1,286,1,2,0,24,5,1,0,1,0,0,0,0,0,1,circle,star,,,,,,,,,,,,,,,,,,,,,,,,,,,,,,,,,,,,,,,,,,,,,,,,,,,,,,
297940,2022-12-03_20h23.07.845,vts_reward_expectancy_bt,2022.2.4,MacIntel,59.93407252,Chrome,1920,1080,,,l,0.6005,1,287,1,2,1,25,6,1,0,0,1,0,1,0,0,0,hexagon,triangle,,,,,,,,,,,,,,,,,,,,,,,,,,,,,,,,,,,,,,,,,,,,,,,,,,,,,,
297940,2022-12-03_20h23.07.845,vts_reward_expectancy_bt,2022.2.4,MacIntel,59.93407252,Chrome,1920,1080,,,a,0.3006,10,297,1,2,2,26,9,1,0,0,0,1,1,0,0,0,star,triangle,,,,,,,,,,,,,,,,,,,,,,,,,,,,,,,,,,,,,,,,,,,,,,,,,,,,,,
297940,2022-12-03_20h23.07.845,vts_reward_expectancy_bt,2022.2.4,MacIntel,59.93407252,Chrome,1920,1080,,,l,0.5509,10,307,1,2,3,27,7,1,0,0,1,0,0,1,0,0,hexagon,circle,,,,,,,,,,,,,,,,,,,,,,,,,,,,,,,,,,,,,,,,,,,,,,,,,,,,,,
297940,2022-12-03_20h23.07.845,vts_reward_expectancy_bt,2022.2.4,MacIntel,59.93407252,Chrome,1920,1080,,,l,0.5593,1,308,1,2,4,28,10,1,0,0,0,1,0,1,0,0,star ,circle,,,,,,,,,,,,,,,,,,,,,,,,,,,,,,,,,,,,,,,,,,,,,,,,,,,,,,
297940,2022-12-03_20h23.07.845,vts_reward_expectancy_bt,2022.2.4,MacIntel,59.93407252,Chrome,1920,1080,,,l,2.7529,1,309,1,2,5,29,8,1,0,0,1,0,0,0,0,1,hexagon,star,,,,,,,,,,,,,,,,,,,,,,,,,,,,,,,,,,,,,,,,,,,,,,,,,,,,,,
297940,2022-12-03_20h23.07.845,vts_reward_expectancy_bt,2022.2.4,MacIntel,59.93407252,Chrome,1920,1080,,,a,0.2393,10,319,1,2,6,30,3,1,0,1,0,0,1,0,0,0,circle,triangle,,,,,,,,,,,,,,,,,,,,,,,,,,,,,,,,,,,,,,,,,,,,,,,,,,,,,,
297940,2022-12-03_20h23.07.845,vts_reward_expectancy_bt,2022.2.4,MacIntel,59.93407252,Chrome,1920,1080,,,l,0.6519,1,320,1,2,7,31,2,1,1,0,0,0,0,0,0,1,triangle,star,,,,,,,,,,,,,,,,,,,,,,,,,,,,,,,,,,,,,,,,,,,,,,,,,,,,,,
297940,2022-12-03_20h23.07.845,vts_reward_expectancy_bt,2022.2.4,MacIntel,59.93407252,Chrome,1920,1080,,,l,0.4723,10,330,1,2,8,32,0,1,1,0,0,0,0,1,0,0,triangle,circle,,,,,,,,,,,,,,,,,,,,,,,,,,,,,,,,,,,,,,,,,,,,,,,,,,,,,,
297940,2022-12-03_20h23.07.845,vts_reward_expectancy_bt,2022.2.4,MacIntel,59.93407252,Chrome,1920,1080,,,a,0.7169,10,340,1,2,9,33,1,1,1,0,0,0,0,0,1,0,triangle,hexagon,,,,,,,,,,,,,,,,,,,,,,,,,,,,,,,,,,,,,,,,,,,,,,,,,,,,,,
297940,2022-12-03_20h23.07.845,vts_reward_expectancy_bt,2022.2.4,MacIntel,59.93407252,Chrome,1920,1080,,,l,0.4064,10,350,1,2,10,34,11,1,0,0,0,1,0,0,1,0,star,hexagon,,,,,,,,,,,,,,,,,,,,,,,,,,,,,,,,,,,,,,,,,,,,,,,,,,,,,,
297940,2022-12-03_20h23.07.845,vts_reward_expectancy_bt,2022.2.4,MacIntel,59.93407252,Chrome,1920,1080,,,a,0.4232,10,360,1,2,11,35,4,1,0,1,0,0,0,0,1,0,circle,hexagon,,,,,,,,,,,,,,,,,,,,,,,,,,,,,,,,,,,,,,,,,,,,,,,,,,,,,,
297940,2022-12-03_20h23.07.845,vts_reward_expectancy_bt,2022.2.4,MacIntel,59.93407252,Chrome,1920,1080,,,l,0.714,10,370,2,0,0,0,8,1,0,0,1,0,0,0,0,1,hexagon,star,,,,,,,,,,,,,,,,,,,,,,,,,,,,,,,,,,,,,,,,,,,,,,,,,,,,,,
297940,2022-12-03_20h23.07.845,vts_reward_expectancy_bt,2022.2.4,MacIntel,59.93407252,Chrome,1920,1080,,,a,0.5691,10,380,2,0,1,1,2,1,1,0,0,0,0,0,0,1,triangle,star,,,,,,,,,,,,,,,,,,,,,,,,,,,,,,,,,,,,,,,,,,,,,,,,,,,,,,
297940,2022-12-03_20h23.07.845,vts_reward_expectancy_bt,2022.2.4,MacIntel,59.93407252,Chrome,1920,1080,,,l,0.4839,1,381,2,0,2,2,6,1,0,0,1,0,1,0,0,0,hexagon,triangle,,,,,,,,,,,,,,,,,,,,,,,,,,,,,,,,,,,,,,,,,,,,,,,,,,,,,,
297940,2022-12-03_20h23.07.845,vts_reward_expectancy_bt,2022.2.4,MacIntel,59.93407252,Chrome,1920,1080,,,a,0.5749,1,382,2,0,3,3,9,1,0,0,0,1,1,0,0,0,star,triangle,,,,,,,,,,,,,,,,,,,,,,,,,,,,,,,,,,,,,,,,,,,,,,,,,,,,,,
297940,2022-12-03_20h23.07.845,vts_reward_expectancy_bt,2022.2.4,MacIntel,59.93407252,Chrome,1920,1080,,,l,0.6352,10,392,2,0,4,4,7,1,0,0,1,0,0,1,0,0,hexagon,circle,,,,,,,,,,,,,,,,,,,,,,,,,,,,,,,,,,,,,,,,,,,,,,,,,,,,,,
297940,2022-12-03_20h23.07.845,vts_reward_expectancy_bt,2022.2.4,MacIntel,59.93407252,Chrome,1920,1080,,,a,1.4861,10,402,2,0,5,5,10,1,0,0,0,1,0,1,0,0,star ,circle,,,,,,,,,,,,,,,,,,,,,,,,,,,,,,,,,,,,,,,,,,,,,,,,,,,,,,
297940,2022-12-03_20h23.07.845,vts_reward_expectancy_bt,2022.2.4,MacIntel,59.93407252,Chrome,1920,1080,,,l,1.0744,10,412,2,0,6,6,5,1,0,1,0,0,0,0,0,1,circle,star,,,,,,,,,,,,,,,,,,,,,,,,,,,,,,,,,,,,,,,,,,,,,,,,,,,,,,
297940,2022-12-03_20h23.07.845,vts_reward_expectancy_bt,2022.2.4,MacIntel,59.93407252,Chrome,1920,1080,,,a,0.8398,10,422,2,0,7,7,1,1,1,0,0,0,0,0,1,0,triangle,hexagon,,,,,,,,,,,,,,,,,,,,,,,,,,,,,,,,,,,,,,,,,,,,,,,,,,,,,,
297940,2022-12-03_20h23.07.845,vts_reward_expectancy_bt,2022.2.4,MacIntel,59.93407252,Chrome,1920,1080,,,l,0.6522,10,432,2,0,8,8,11,1,0,0,0,1,0,0,1,0,star,hexagon,,,,,,,,,,,,,,,,,,,,,,,,,,,,,,,,,,,,,,,,,,,,,,,,,,,,,,
297940,2022-12-03_20h23.07.845,vts_reward_expectancy_bt,2022.2.4,MacIntel,59.93407252,Chrome,1920,1080,,,a,0.5852,1,433,2,0,9,9,0,1,1,0,0,0,0,1,0,0,triangle,circle,,,,,,,,,,,,,,,,,,,,,,,,,,,,,,,,,,,,,,,,,,,,,,,,,,,,,,
297940,2022-12-03_20h23.07.845,vts_reward_expectancy_bt,2022.2.4,MacIntel,59.93407252,Chrome,1920,1080,,,l,0.306,1,434,2,0,10,10,3,1,0,1,0,0,1,0,0,0,circle,triangle,,,,,,,,,,,,,,,,,,,,,,,,,,,,,,,,,,,,,,,,,,,,,,,,,,,,,,
297940,2022-12-03_20h23.07.845,vts_reward_expectancy_bt,2022.2.4,MacIntel,59.93407252,Chrome,1920,1080,,,a,0.3848,10,444,2,0,11,11,4,1,0,1,0,0,0,0,1,0,circle,hexagon,,,,,,,,,,,,,,,,,,,,,,,,,,,,,,,,,,,,,,,,,,,,,,,,,,,,,,
297940,2022-12-03_20h23.07.845,vts_reward_expectancy_bt,2022.2.4,MacIntel,59.93407252,Chrome,1920,1080,,,l,0.7174,1,445,2,1,0,12,2,1,1,0,0,0,0,0,0,1,triangle,star,,,,,,,,,,,,,,,,,,,,,,,,,,,,,,,,,,,,,,,,,,,,,,,,,,,,,,
297940,2022-12-03_20h23.07.845,vts_reward_expectancy_bt,2022.2.4,MacIntel,59.93407252,Chrome,1920,1080,,,l,0.4518,1,446,2,1,1,13,9,1,0,0,0,1,1,0,0,0,star,triangle,,,,,,,,,,,,,,,,,,,,,,,,,,,,,,,,,,,,,,,,,,,,,,,,,,,,,,
297940,2022-12-03_20h23.07.845,vts_reward_expectancy_bt,2022.2.4,MacIntel,59.93407252,Chrome,1920,1080,,,l,0.5587,10,456,2,1,2,14,11,1,0,0,0,1,0,0,1,0,star,hexagon,,,,,,,,,,,,,,,,,,,,,,,,,,,,,,,,,,,,,,,,,,,,,,,,,,,,,,
297940,2022-12-03_20h23.07.845,vts_reward_expectancy_bt,2022.2.4,MacIntel,59.93407252,Chrome,1920,1080,,,a,0.3328,1,457,2,1,3,15,6,1,0,0,1,0,1,0,0,0,hexagon,triangle,,,,,,,,,,,,,,,,,,,,,,,,,,,,,,,,,,,,,,,,,,,,,,,,,,,,,,
297940,2022-12-03_20h23.07.845,vts_reward_expectancy_bt,2022.2.4,MacIntel,59.93407252,Chrome,1920,1080,,,a,0.4041,10,467,2,1,4,16,3,1,0,1,0,0,1,0,0,0,circle,triangle,,,,,,,,,,,,,,,,,,,,,,,,,,,,,,,,,,,,,,,,,,,,,,,,,,,,,,
297940,2022-12-03_20h23.07.845,vts_reward_expectancy_bt,2022.2.4,MacIntel,59.93407252,Chrome,1920,1080,,,a,0.505,10,477,2,1,5,17,4,1,0,1,0,0,0,0,1,0,circle,hexagon,,,,,,,,,,,,,,,,,,,,,,,,,,,,,,,,,,,,,,,,,,,,,,,,,,,,,,
297940,2022-12-03_20h23.07.845,vts_reward_expectancy_bt,2022.2.4,MacIntel,59.93407252,Chrome,1920,1080,,,l,0.5121,10,487,2,1,6,18,1,1,1,0,0,0,0,0,1,0,triangle,hexagon,,,,,,,,,,,,,,,,,,,,,,,,,,,,,,,,,,,,,,,,,,,,,,,,,,,,,,
297940,2022-12-03_20h23.07.845,vts_reward_expectancy_bt,2022.2.4,MacIntel,59.93407252,Chrome,1920,1080,,,l,0.4671,1,488,2,1,7,19,0,1,1,0,0,0,0,1,0,0,triangle,circle,,,,,,,,,,,,,,,,,,,,,,,,,,,,,,,,,,,,,,,,,,,,,,,,,,,,,,
297940,2022-12-03_20h23.07.845,vts_reward_expectancy_bt,2022.2.4,MacIntel,59.93407252,Chrome,1920,1080,,,a,0.3523,10,498,2,1,8,20,5,1,0,1,0,0,0,0,0,1,circle,star,,,,,,,,,,,,,,,,,,,,,,,,,,,,,,,,,,,,,,,,,,,,,,,,,,,,,,
297940,2022-12-03_20h23.07.845,vts_reward_expectancy_bt,2022.2.4,MacIntel,59.93407252,Chrome,1920,1080,,,a,0.5385,10,508,2,1,9,21,8,1,0,0,1,0,0,0,0,1,hexagon,star,,,,,,,,,,,,,,,,,,,,,,,,,,,,,,,,,,,,,,,,,,,,,,,,,,,,,,
297940,2022-12-03_20h23.07.845,vts_reward_expectancy_bt,2022.2.4,MacIntel,59.93407252,Chrome,1920,1080,,,l,0.4223,1,509,2,1,10,22,7,1,0,0,1,0,0,1,0,0,hexagon,circle,,,,,,,,,,,,,,,,,,,,,,,,,,,,,,,,,,,,,,,,,,,,,,,,,,,,,,
297940,2022-12-03_20h23.07.845,vts_reward_expectancy_bt,2022.2.4,MacIntel,59.93407252,Chrome,1920,1080,,,l,0.4044,10,519,2,1,11,23,10,1,0,0,0,1,0,1,0,0,star ,circle,,,,,,,,,,,,,,,,,,,,,,,,,,,,,,,,,,,,,,,,,,,,,,,,,,,,,,
297940,2022-12-03_20h23.07.845,vts_reward_expectancy_bt,2022.2.4,MacIntel,59.93407252,Chrome,1920,1080,,,a,0.3823,1,520,2,2,0,24,3,1,0,1,0,0,1,0,0,0,circle,triangle,,,,,,,,,,,,,,,,,,,,,,,,,,,,,,,,,,,,,,,,,,,,,,,,,,,,,,
297940,2022-12-03_20h23.07.845,vts_reward_expectancy_bt,2022.2.4,MacIntel,59.93407252,Chrome,1920,1080,,,a,0.4553,1,521,2,2,1,25,6,1,0,0,1,0,1,0,0,0,hexagon,triangle,,,,,,,,,,,,,,,,,,,,,,,,,,,,,,,,,,,,,,,,,,,,,,,,,,,,,,
297940,2022-12-03_20h23.07.845,vts_reward_expectancy_bt,2022.2.4,MacIntel,59.93407252,Chrome,1920,1080,,,l,0.6353,1,522,2,2,2,26,8,1,0,0,1,0,0,0,0,1,hexagon,star,,,,,,,,,,,,,,,,,,,,,,,,,,,,,,,,,,,,,,,,,,,,,,,,,,,,,,
297940,2022-12-03_20h23.07.845,vts_reward_expectancy_bt,2022.2.4,MacIntel,59.93407252,Chrome,1920,1080,,,a,0.3474,10,532,2,2,3,27,11,1,0,0,0,1,0,0,1,0,star,hexagon,,,,,,,,,,,,,,,,,,,,,,,,,,,,,,,,,,,,,,,,,,,,,,,,,,,,,,
297940,2022-12-03_20h23.07.845,vts_reward_expectancy_bt,2022.2.4,MacIntel,59.93407252,Chrome,1920,1080,,,l,0.4518,1,533,2,2,4,28,7,1,0,0,1,0,0,1,0,0,hexagon,circle,,,,,,,,,,,,,,,,,,,,,,,,,,,,,,,,,,,,,,,,,,,,,,,,,,,,,,
297940,2022-12-03_20h23.07.845,vts_reward_expectancy_bt,2022.2.4,MacIntel,59.93407252,Chrome,1920,1080,,,l,0.6698,1,534,2,2,5,29,0,1,1,0,0,0,0,1,0,0,triangle,circle,,,,,,,,,,,,,,,,,,,,,,,,,,,,,,,,,,,,,,,,,,,,,,,,,,,,,,
297940,2022-12-03_20h23.07.845,vts_reward_expectancy_bt,2022.2.4,MacIntel,59.93407252,Chrome,1920,1080,,,a,0.1747,1,535,2,2,6,30,2,1,1,0,0,0,0,0,0,1,triangle,star,,,,,,,,,,,,,,,,,,,,,,,,,,,,,,,,,,,,,,,,,,,,,,,,,,,,,,
297940,2022-12-03_20h23.07.845,vts_reward_expectancy_bt,2022.2.4,MacIntel,59.93407252,Chrome,1920,1080,,,l,0.2828,10,545,2,2,7,31,5,1,0,1,0,0,0,0,0,1,circle,star,,,,,,,,,,,,,,,,,,,,,,,,,,,,,,,,,,,,,,,,,,,,,,,,,,,,,,
297940,2022-12-03_20h23.07.845,vts_reward_expectancy_bt,2022.2.4,MacIntel,59.93407252,Chrome,1920,1080,,,l,0.8336,10,555,2,2,8,32,4,1,0,1,0,0,0,0,1,0,circle,hexagon,,,,,,,,,,,,,,,,,,,,,,,,,,,,,,,,,,,,,,,,,,,,,,,,,,,,,,
297940,2022-12-03_20h23.07.845,vts_reward_expectancy_bt,2022.2.4,MacIntel,59.93407252,Chrome,1920,1080,,,l,0.4184,1,556,2,2,9,33,1,1,1,0,0,0,0,0,1,0,triangle,hexagon,,,,,,,,,,,,,,,,,,,,,,,,,,,,,,,,,,,,,,,,,,,,,,,,,,,,,,
297940,2022-12-03_20h23.07.845,vts_reward_expectancy_bt,2022.2.4,MacIntel,59.93407252,Chrome,1920,1080,,,a,0.2859,1,557,2,2,10,34,9,1,0,0,0,1,1,0,0,0,star,triangle,,,,,,,,,,,,,,,,,,,,,,,,,,,,,,,,,,,,,,,,,,,,,,,,,,,,,,
297940,2022-12-03_20h23.07.845,vts_reward_expectancy_bt,2022.2.4,MacIntel,59.93407252,Chrome,1920,1080,,,l,0.492,1,558,2,2,11,35,10,1,0,0,0,1,0,1,0,0,star ,circle,,,,,,,,,,,,,,,,,,,,,,,,,,,,,,,,,,,,,,,,,,,,,,,,,,,,,,
297940,2022-12-03_20h23.07.845,vts_reward_expectancy_bt,2022.2.4,MacIntel,59.93407252,Chrome,1920,1080,,,,,,,,,,,,,,,,,,,,,,,B,139,triangle,1,0,d,0.1924,0,0,0,0,0,1,,,,,,,,,,,,,,,,,,,,,,,,,,,,,,,,,,,,,,,,,
297940,2022-12-03_20h23.07.845,vts_reward_expectancy_bt,2022.2.4,MacIntel,59.93407252,Chrome,1920,1080,,,,,,,,,,,,,,,,,,,,,,,F,125,hexagon,1,0,d,0.5822,0,1,0,1,0,1,,,,,,,,,,,,,,,,,,,,,,,,,,,,,,,,,,,,,,,,,
297940,2022-12-03_20h23.07.845,vts_reward_expectancy_bt,2022.2.4,MacIntel,59.93407252,Chrome,1920,1080,,,,,,,,,,,,,,,,,,,,,,,H,160,star,1,0,d,0.5831,0,2,0,2,0,1,,,,,,,,,,,,,,,,,,,,,,,,,,,,,,,,,,,,,,,,,
297940,2022-12-03_20h23.07.845,vts_reward_expectancy_bt,2022.2.4,MacIntel,59.93407252,Chrome,1920,1080,,,,,,,,,,,,,,,,,,,,,,,S,167,circle,0,0,d,0.5504,0,3,0,3,0,1,,,,,,,,,,,,,,,,,,,,,,,,,,,,,,,,,,,,,,,,,
297940,2022-12-03_20h23.07.845,vts_reward_expectancy_bt,2022.2.4,MacIntel,59.93407252,Chrome,1920,1080,,,,,,,,,,,,,,,,,,,,,,,Y,146,triangle,0,1,d,0.5987,0,4,0,4,0,1,,,,,,,,,,,,,,,,,,,,,,,,,,,,,,,,,,,,,,,,,
297940,2022-12-03_20h23.07.845,vts_reward_expectancy_bt,2022.2.4,MacIntel,59.93407252,Chrome,1920,1080,,,,,,,,,,,,,,,,,,,,,,,D,181,hexagon,0,1,f,0.6853,0,5,0,5,0,1,,,,,,,,,,,,,,,,,,,,,,,,,,,,,,,,,,,,,,,,,
297940,2022-12-03_20h23.07.845,vts_reward_expectancy_bt,2022.2.4,MacIntel,59.93407252,Chrome,1920,1080,,,,,,,,,,,,,,,,,,,,,,,W,132,star,0,1,d,0.5504,0,6,0,6,0,1,,,,,,,,,,,,,,,,,,,,,,,,,,,,,,,,,,,,,,,,,
297940,2022-12-03_20h23.07.845,vts_reward_expectancy_bt,2022.2.4,MacIntel,59.93407252,Chrome,1920,1080,,,,,,,,,,,,,,,,,,,,,,,U,174,circle,1,1,f,0.3152,0,7,0,7,0,1,,,,,,,,,,,,,,,,,,,,,,,,,,,,,,,,,,,,,,,,,
297940,2022-12-03_20h23.07.845,vts_reward_expectancy_bt,2022.2.4,MacIntel,59.93407252,Chrome,1920,1080,,,,,,,,,,,,,,,,,,,,,,,B,139,hexagon,1,0,d,1.9849,0,8,0,8,0,1,,,,,,,,,,,,,,,,,,,,,,,,,,,,,,,,,,,,,,,,,
297940,2022-12-03_20h23.07.845,vts_reward_expectancy_bt,2022.2.4,MacIntel,59.93407252,Chrome,1920,1080,,,,,,,,,,,,,,,,,,,,,,,F,125,circle,0,0,f,0.7176,0,9,0,9,0,1,,,,,,,,,,,,,,,,,,,,,,,,,,,,,,,,,,,,,,,,,
297940,2022-12-03_20h23.07.845,vts_reward_expectancy_bt,2022.2.4,MacIntel,59.93407252,Chrome,1920,1080,,,,,,,,,,,,,,,,,,,,,,,Y,181,star,1,1,f,0.7014,1,0,0,0,0,1,,,,,,,,,,,,,,,,,,,,,,,,,,,,,,,,,,,,,,,,,
297940,2022-12-03_20h23.07.845,vts_reward_expectancy_bt,2022.2.4,MacIntel,59.93407252,Chrome,1920,1080,,,,,,,,,,,,,,,,,,,,,,,D,125,hexagon,1,0,d,0.4353,1,1,0,1,0,1,,,,,,,,,,,,,,,,,,,,,,,,,,,,,,,,,,,,,,,,,
297940,2022-12-03_20h23.07.845,vts_reward_expectancy_bt,2022.2.4,MacIntel,59.93407252,Chrome,1920,1080,,,,,,,,,,,,,,,,,,,,,,,W,160,triangle,1,0,f,0.768,1,2,0,2,0,1,,,,,,,,,,,,,,,,,,,,,,,,,,,,,,,,,,,,,,,,,
297940,2022-12-03_20h23.07.845,vts_reward_expectancy_bt,2022.2.4,MacIntel,59.93407252,Chrome,1920,1080,,,,,,,,,,,,,,,,,,,,,,,B,146,circle,1,0,d,0.6007,1,3,0,3,0,1,,,,,,,,,,,,,,,,,,,,,,,,,,,,,,,,,,,,,,,,,
297940,2022-12-03_20h23.07.845,vts_reward_expectancy_bt,2022.2.4,MacIntel,59.93407252,Chrome,1920,1080,,,,,,,,,,,,,,,,,,,,,,,F,174,star,1,0,d,1.0182,1,4,0,4,0,1,,,,,,,,,,,,,,,,,,,,,,,,,,,,,,,,,,,,,,,,,
297940,2022-12-03_20h23.07.845,vts_reward_expectancy_bt,2022.2.4,MacIntel,59.93407252,Chrome,1920,1080,,,,,,,,,,,,,,,,,,,,,,,S,132,hexagon,1,0,f,0.8683,1,5,0,5,0,1,,,,,,,,,,,,,,,,,,,,,,,,,,,,,,,,,,,,,,,,,
297940,2022-12-03_20h23.07.845,vts_reward_expectancy_bt,2022.2.4,MacIntel,59.93407252,Chrome,1920,1080,,,,,,,,,,,,,,,,,,,,,,,U,139,triangle,1,0,f,0.6332,1,6,0,6,0,1,,,,,,,,,,,,,,,,,,,,,,,,,,,,,,,,,,,,,,,,,
297940,2022-12-03_20h23.07.845,vts_reward_expectancy_bt,2022.2.4,MacIntel,59.93407252,Chrome,1920,1080,,,,,,,,,,,,,,,,,,,,,,,H,167,circle,1,0,d,0.9153,1,7,0,7,0,1,,,,,,,,,,,,,,,,,,,,,,,,,,,,,,,,,,,,,,,,,
297940,2022-12-03_20h23.07.845,vts_reward_expectancy_bt,2022.2.4,MacIntel,59.93407252,Chrome,1920,1080,,,,,,,,,,,,,,,,,,,,,,,Y,181,circle,1,0,f,0.5327,1,8,0,8,0,1,,,,,,,,,,,,,,,,,,,,,,,,,,,,,,,,,,,,,,,,,
297940,2022-12-03_20h23.07.845,vts_reward_expectancy_bt,2022.2.4,MacIntel,59.93407252,Chrome,1920,1080,,,,,,,,,,,,,,,,,,,,,,,D,125,hexagon,1,0,d,0.5663,1,9,0,9,0,1,,,,,,,,,,,,,,,,,,,,,,,,,,,,,,,,,,,,,,,,,
297940,2022-12-03_20h23.07.845,vts_reward_expectancy_bt,2022.2.4,MacIntel,59.93407252,Chrome,1920,1080,,,,,,,,,,,,,,,,,,,,,,,S,132,star,0,0,,,2,,,,,,k,0.6389,0,0,0,0,1,,,,,,,,,,,,,,,,,,,,,,,,,,,,,,,,,,
297940,2022-12-03_20h23.07.845,vts_reward_expectancy_bt,2022.2.4,MacIntel,59.93407252,Chrome,1920,1080,,,,,,,,,,,,,,,,,,,,,,,D,139,triangle,1,1,,,2,,,,,,j,0.6825,1,0,1,0,1,,,,,,,,,,,,,,,,,,,,,,,,,,,,,,,,,,
297940,2022-12-03_20h23.07.845,vts_reward_expectancy_bt,2022.2.4,MacIntel,59.93407252,Chrome,1920,1080,,,,,,,,,,,,,,,,,,,,,,,W,167,hexagon,1,0,,,2,,,,,,k,1.1506,2,0,2,0,1,,,,,,,,,,,,,,,,,,,,,,,,,,,,,,,,,,
297940,2022-12-03_20h23.07.845,vts_reward_expectancy_bt,2022.2.4,MacIntel,59.93407252,Chrome,1920,1080,,,,,,,,,,,,,,,,,,,,,,,Y,125,circle,1,0,,,2,,,,,,j,0.5498,3,0,3,0,1,,,,,,,,,,,,,,,,,,,,,,,,,,,,,,,,,,
297940,2022-12-03_20h23.07.845,vts_reward_expectancy_bt,2022.2.4,MacIntel,59.93407252,Chrome,1920,1080,,,,,,,,,,,,,,,,,,,,,,,F,174,star,1,0,,,2,,,,,,k,0.7821,4,0,4,0,1,,,,,,,,,,,,,,,,,,,,,,,,,,,,,,,,,,
297940,2022-12-03_20h23.07.845,vts_reward_expectancy_bt,2022.2.4,MacIntel,59.93407252,Chrome,1920,1080,,,,,,,,,,,,,,,,,,,,,,,H,160,triangle,1,0,,,2,,,,,,k,0.8886,5,0,5,0,1,,,,,,,,,,,,,,,,,,,,,,,,,,,,,,,,,,
297940,2022-12-03_20h23.07.845,vts_reward_expectancy_bt,2022.2.4,MacIntel,59.93407252,Chrome,1920,1080,,,,,,,,,,,,,,,,,,,,,,,B,181,hexagon,1,0,,,2,,,,,,k,0.6335,6,0,6,0,1,,,,,,,,,,,,,,,,,,,,,,,,,,,,,,,,,,
297940,2022-12-03_20h23.07.845,vts_reward_expectancy_bt,2022.2.4,MacIntel,59.93407252,Chrome,1920,1080,,,,,,,,,,,,,,,,,,,,,,,U,146,circle,1,0,,,2,,,,,,j,0.6662,7,0,7,0,1,,,,,,,,,,,,,,,,,,,,,,,,,,,,,,,,,,
297940,2022-12-03_20h23.07.845,vts_reward_expectancy_bt,2022.2.4,MacIntel,59.93407252,Chrome,1920,1080,,,,,,,,,,,,,,,,,,,,,,,S,132,hexagon,1,0,,,2,,,,,,j,0.5666,8,0,8,0,1,,,,,,,,,,,,,,,,,,,,,,,,,,,,,,,,,,
297940,2022-12-03_20h23.07.845,vts_reward_expectancy_bt,2022.2.4,MacIntel,59.93407252,Chrome,1920,1080,,,,,,,,,,,,,,,,,,,,,,,D,139,circle,1,0,,,2,,,,,,j,0.6188,9,0,9,0,1,,,,,,,,,,,,,,,,,,,,,,,,,,,,,,,,,,
297940,2022-12-03_20h23.07.845,vts_reward_expectancy_bt,2022.2.4,MacIntel,59.93407252,Chrome,1920,1080,,,,,0,558,,,,,,,,,,,,,,,,,W,125,hexagon,-1,0,,,3,,,,,,,,,,,,,-1,no_choice,NA,,vtsPrac,0,0,0,0,1,,,,,,,,,,,,,,,,,,,,,,,,
297940,2022-12-03_20h23.07.845,vts_reward_expectancy_bt,2022.2.4,MacIntel,59.93407252,Chrome,1920,1080,,,,,0,558,,,,,,,,,,,,,,,,,B,139,circle,1,0,,,3,,,,,,,,,,,,,switch,letter,lettSwt,d,vtsPrac,1,0,1,0,1,0.7823,,,,,,,,,,,,,,,,,,,,,,,
297940,2022-12-03_20h23.07.845,vts_reward_expectancy_bt,2022.2.4,MacIntel,59.93407252,Chrome,1920,1080,,,,,0,558,,,,,,,,,,,,,,,,,U,181,hexagon,1,0,,,3,,,,,,,,,,,,,switch,number,numSwt,k,vtsPrac,2,0,2,0,1,0.8193,,,,,,,,,,,,,,,,,,,,,,,
297940,2022-12-03_20h23.07.845,vts_reward_expectancy_bt,2022.2.4,MacIntel,59.93407252,Chrome,1920,1080,,,,,0,558,,,,,,,,,,,,,,,,,F,146,circle,0,0,,,3,,,,,,,,,,,,,repeat,number,NA,k,vtsPrac,3,0,3,0,1,0.8043,,,,,,,,,,,,,,,,,,,,,,,
297940,2022-12-03_20h23.07.845,vts_reward_expectancy_bt,2022.2.4,MacIntel,59.93407252,Chrome,1920,1080,,,,,0,558,,,,,,,,,,,,,,,,,W,125,circle,0,1,,,3,,,,,,,,,,,,,repeat,number,NA,k,vtsPrac,4,0,4,0,1,0.5991,,,,,,,,,,,,,,,,,,,,,,,
297940,2022-12-03_20h23.07.845,vts_reward_expectancy_bt,2022.2.4,MacIntel,59.93407252,Chrome,1920,1080,,,,,0,558,,,,,,,,,,,,,,,,,B,139,triangle,1,1,,,3,,,,,,,,,,,,,switch,letter,lettSwt,d,vtsPrac,5,0,5,0,1,0.7831,,,,,,,,,,,,,,,,,,,,,,,
297940,2022-12-03_20h23.07.845,vts_reward_expectancy_bt,2022.2.4,MacIntel,59.93407252,Chrome,1920,1080,,,,,0,558,,,,,,,,,,,,,,,,,U,181,hexagon,1,0,,,3,,,,,,,,,,,,,repeat,letter,lettRpt,f,vtsPrac,6,0,6,0,1,0.6468,,,,,,,,,,,,,,,,,,,,,,,
297940,2022-12-03_20h23.07.845,vts_reward_expectancy_bt,2022.2.4,MacIntel,59.93407252,Chrome,1920,1080,,,,,0,558,,,,,,,,,,,,,,,,,F,146,triangle,1,0,,,3,,,,,,,,,,,,,repeat,letter,lettRpt,d,vtsPrac,7,0,7,0,1,1.1507,,,,,,,,,,,,,,,,,,,,,,,
297940,2022-12-03_20h23.07.845,vts_reward_expectancy_bt,2022.2.4,MacIntel,59.93407252,Chrome,1920,1080,,,,,0,558,,,,,,,,,,,,,,,,,Y,167,star,1,0,,,3,,,,,,,,,,,,,repeat,letter,lettRpt,f,vtsPrac,8,0,8,0,1,0.7987,,,,,,,,,,,,,,,,,,,,,,,
297940,2022-12-03_20h23.07.845,vts_reward_expectancy_bt,2022.2.4,MacIntel,59.93407252,Chrome,1920,1080,,,,,0,558,,,,,,,,,,,,,,,,,U,132,hexagon,1,0,,,3,,,,,,,,,,,,,repeat,letter,lettRpt,f,vtsPrac,9,0,9,0,1,1.7059,,,,,,,,,,,,,,,,,,,,,,,
297940,2022-12-03_20h23.07.845,vts_reward_expectancy_bt,2022.2.4,MacIntel,59.93407252,Chrome,1920,1080,,,,,0,558,,,,,,,,,,,,,,,,,B,181,triangle,1,0,,,3,,,,,,,,,,,,,repeat,letter,lettRpt,d,vtsPrac,10,0,10,0,1,2.751,,,,,,,,,,,,,,,,,,,,,,,
297940,2022-12-03_20h23.07.845,vts_reward_expectancy_bt,2022.2.4,MacIntel,59.93407252,Chrome,1920,1080,,,,,0,558,,,,,,,,,,,,,,,,,S,146,star,1,0,,,3,,,,,,,,,,,,,repeat,letter,lettRpt,f,vtsPrac,11,0,11,0,1,0.9365,,,,,,,,,,,,,,,,,,,,,,,
297940,2022-12-03_20h23.07.845,vts_reward_expectancy_bt,2022.2.4,MacIntel,59.93407252,Chrome,1920,1080,,,,,0,558,,,,,,,,,,,,,,,,,W,139,triangle,1,0,,,3,,,,,,,,,,,,,repeat,letter,lettRpt,f,vtsPrac,12,0,12,0,1,1.5833,,,,,,,,,,,,,,,,,,,,,,,
297940,2022-12-03_20h23.07.845,vts_reward_expectancy_bt,2022.2.4,MacIntel,59.93407252,Chrome,1920,1080,,,,,0,558,,,,,,,,,,,,,,,,,D,181,hexagon,1,0,,,3,,,,,,,,,,,,,repeat,letter,lettRpt,d,vtsPrac,13,0,13,0,1,0.7032,,,,,,,,,,,,,,,,,,,,,,,
297940,2022-12-03_20h23.07.845,vts_reward_expectancy_bt,2022.2.4,MacIntel,59.93407252,Chrome,1920,1080,,,,,0,558,,,,,,,,,,,,,,,,,F,132,triangle,-1,0,,,3,,,,,,,,,,,,,switch,no_choice,NA,,vtsPrac,14,0,14,0,1,,,,,,,,,,,,,,,,,,,,,,,,
297940,2022-12-03_20h23.07.845,vts_reward_expectancy_bt,2022.2.4,MacIntel,59.93407252,Chrome,1920,1080,,,,,0,558,,,,,,,,,,,,,,,,,S,174,circle,1,0,,,3,,,,,,,,,,,,,switch,letter,lettSwt,f,vtsPrac,15,0,15,0,1,0.7487,,,,,,,,,,,,,,,,,,,,,,,
297940,2022-12-03_20h23.07.845,vts_reward_expectancy_bt,2022.2.4,MacIntel,59.93407252,Chrome,1920,1080,,,,,0,558,,,,,,,,,,,,,,,,,Y,139,triangle,1,0,,,3,,,,,,,,,,,,,repeat,letter,lettRpt,f,vtsPrac,16,0,16,0,1,0.1689,,,,,,,,,,,,,,,,,,,,,,,
297940,2022-12-03_20h23.07.845,vts_reward_expectancy_bt,2022.2.4,MacIntel,59.93407252,Chrome,1920,1080,,,,,0,558,,,,,,,,,,,,,,,,,S,146,circle,0,0,,,3,,,,,,,,,,,,,repeat,letter,NA,d,vtsPrac,17,0,17,0,1,0.7507,,,,,,,,,,,,,,,,,,,,,,,
297940,2022-12-03_20h23.07.845,vts_reward_expectancy_bt,2022.2.4,MacIntel,59.93407252,Chrome,1920,1080,,,,,0,558,,,,,,,,,,,,,,,,,D,181,hexagon,1,1,,,3,,,,,,,,,,,,,repeat,letter,lettRpt,d,vtsPrac,18,0,18,0,1,0.8015,,,,,,,,,,,,,,,,,,,,,,,
297940,2022-12-03_20h23.07.845,vts_reward_expectancy_bt,2022.2.4,MacIntel,59.93407252,Chrome,1920,1080,,,,,0,558,,,,,,,,,,,,,,,,,F,125,circle,1,0,,,3,,,,,,,,,,,,,repeat,letter,lettRpt,d,vtsPrac,19,0,19,0,1,2.3558,,,,,,,,,,,,,,,,,,,,,,,
297940,2022-12-03_20h23.07.845,vts_reward_expectancy_bt,2022.2.4,MacIntel,59.93407252,Chrome,1920,1080,,,,,0,558,,,,,,,,,,,,,,,,,Y,160,circle,1,0,,,3,,,,,,,,,,,,,repeat,letter,lettRpt,f,vtsPrac,20,0,20,0,1,0.866,,,,,,,,,,,,,,,,,,,,,,,
297940,2022-12-03_20h23.07.845,vts_reward_expectancy_bt,2022.2.4,MacIntel,59.93407252,Chrome,1920,1080,,,,,0,558,,,,,,,,,,,,,,,,,W,139,triangle,1,0,,,3,,,,,,,,,,,,,repeat,letter,lettRpt,f,vtsPrac,21,0,21,0,1,0.6853,,,,,,,,,,,,,,,,,,,,,,,
297940,2022-12-03_20h23.07.845,vts_reward_expectancy_bt,2022.2.4,MacIntel,59.93407252,Chrome,1920,1080,,,,,0,558,,,,,,,,,,,,,,,,,H,125,hexagon,1,0,,,3,,,,,,,,,,,,,repeat,letter,lettRpt,d,vtsPrac,22,0,22,0,1,0.9663,,,,,,,,,,,,,,,,,,,,,,,
297940,2022-12-03_20h23.07.845,vts_reward_expectancy_bt,2022.2.4,MacIntel,59.93407252,Chrome,1920,1080,,,,,0,558,,,,,,,,,,,,,,,,,S,146,circle,0,0,,,3,,,,,,,,,,,,,repeat,letter,NA,d,vtsPrac,23,0,23,0,1,1.0998,,,,,,,,,,,,,,,,,,,,,,,
297940,2022-12-03_20h23.07.845,vts_reward_expectancy_bt,2022.2.4,MacIntel,59.93407252,Chrome,1920,1080,,,,,0,558,,,,,,,,,,,,,,,,,U,125,circle,1,1,,,3,,,,,,,,,,,,,repeat,letter,lettRpt,f,vtsPrac,24,0,24,0,1,0.6047,,,,,,,,,,,,,,,,,,,,,,,
297940,2022-12-03_20h23.07.845,vts_reward_expectancy_bt,2022.2.4,MacIntel,59.93407252,Chrome,1920,1080,,,,,0,558,,,,,,,,,,,,,,,,,F,167,star,1,0,,,3,,,,,,,,,,,,,repeat,letter,lettRpt,d,vtsPrac,25,0,25,0,1,0.8168,,,,,,,,,,,,,,,,,,,,,,,
297940,2022-12-03_20h23.07.845,vts_reward_expectancy_bt,2022.2.4,MacIntel,59.93407252,Chrome,1920,1080,,,,,0,558,,,,,,,,,,,,,,,,,Y,132,circle,1,0,,,3,,,,,,,,,,,,,repeat,letter,lettRpt,f,vtsPrac,26,0,26,0,1,0.6503,,,,,,,,,,,,,,,,,,,,,,,
297940,2022-12-03_20h23.07.845,vts_reward_expectancy_bt,2022.2.4,MacIntel,59.93407252,Chrome,1920,1080,,,,,0,558,,,,,,,,,,,,,,,,,D,146,star,1,0,,,3,,,,,,,,,,,,,repeat,letter,lettRpt,d,vtsPrac,27,0,27,0,1,0.6828,,,,,,,,,,,,,,,,,,,,,,,
297940,2022-12-03_20h23.07.845,vts_reward_expectancy_bt,2022.2.4,MacIntel,59.93407252,Chrome,1920,1080,,,,,0,558,,,,,,,,,,,,,,,,,S,132,star,0,0,,,3,,,,,,,,,,,,,repeat,letter,NA,d,vtsPrac,28,0,28,0,1,0.9665,,,,,,,,,,,,,,,,,,,,,,,
297940,2022-12-03_20h23.07.845,vts_reward_expectancy_bt,2022.2.4,MacIntel,59.93407252,Chrome,1920,1080,,,,,0,558,,,,,,,,,,,,,,,,,B,167,circle,1,1,,,3,,,,,,,,,,,,,repeat,letter,lettRpt,d,vtsPrac,29,0,29,0,1,0.8503,,,,,,,,,,,,,,,,,,,,,,,
297940,2022-12-03_20h23.07.845,vts_reward_expectancy_bt,2022.2.4,MacIntel,59.93407252,Chrome,1920,1080,,,,,0,558,,,,,,,,,,,,,,,,,D,174,triangle,1,0,,,3,,,,,,,,,,,,,repeat,letter,lettRpt,d,vtsPrac,30,0,30,0,1,0.8666,,,,,,,,,,,,,,,,,,,,,,,
297940,2022-12-03_20h23.07.845,vts_reward_expectancy_bt,2022.2.4,MacIntel,59.93407252,Chrome,1920,1080,,,,,0,558,,,,,,,,,,,,,,,,,U,146,circle,1,0,,,3,,,,,,,,,,,,,repeat,letter,lettRpt,f,vtsPrac,31,0,31,0,1,1.2335,,,,,,,,,,,,,,,,,,,,,,,
297940,2022-12-03_20h23.07.845,vts_reward_expectancy_bt,2022.2.4,MacIntel,59.93407252,Chrome,1920,1080,,,,,0,558,,,,,,,,,,,,,,,,,W,146,star,1,0,,,4,,,,,,,,,,,,,repeat,letter,lettRpt,f,vtsPrac,0,0,0,0,1,1.8868,,,,,,,,,,,,,,,,,,,,,,,
297940,2022-12-03_20h23.07.845,vts_reward_expectancy_bt,2022.2.4,MacIntel,59.93407252,Chrome,1920,1080,,,,,0,558,,,,,,,,,,,,,,,,,H,132,triangle,-1,0,,,4,,,,,,,,,,,,,switch,no_choice,NA,,vtsPrac,1,0,1,0,1,,,,,,,,,,,,,,,,,,,,,,,,
297940,2022-12-03_20h23.07.845,vts_reward_expectancy_bt,2022.2.4,MacIntel,59.93407252,Chrome,1920,1080,,,,,0,558,,,,,,,,,,,,,,,,,U,160,star,-1,0,,,4,,,,,,,,,,,,,repeat,no_choice,NA,,vtsPrac,2,0,2,0,1,,,,,,,,,,,,,,,,,,,,,,,,
297940,2022-12-03_20h23.07.845,vts_reward_expectancy_bt,2022.2.4,MacIntel,59.93407252,Chrome,1920,1080,,,,,0,558,,,,,,,,,,,,,,,,,Y,181,triangle,-1,0,,,4,,,,,,,,,,,,,repeat,no_choice,NA,,vtsPrac,3,0,3,0,1,,,,,,,,,,,,,,,,,,,,,,,,
297940,2022-12-03_20h23.07.845,vts_reward_expectancy_bt,2022.2.4,MacIntel,59.93407252,Chrome,1920,1080,,,,,0,558,,,,,,,,,,,,,,,,,W,146,triangle,-1,0,,,4,,,,,,,,,,,,,repeat,no_choice,NA,,vtsPrac,4,0,4,0,1,,,,,,,,,,,,,,,,,,,,,,,,
297940,2022-12-03_20h23.07.845,vts_reward_expectancy_bt,2022.2.4,MacIntel,59.93407252,Chrome,1920,1080,,,,,0,558,,,,,,,,,,,,,,,,,H,132,hexagon,-1,0,,,4,,,,,,,,,,,,,repeat,no_choice,NA,,vtsPrac,5,0,5,0,1,,,,,,,,,,,,,,,,,,,,,,,,
297940,2022-12-03_20h23.07.845,vts_reward_expectancy_bt,2022.2.4,MacIntel,59.93407252,Chrome,1920,1080,,,,,0,558,,,,,,,,,,,,,,,,,U,160,triangle,-1,0,,,4,,,,,,,,,,,,,repeat,no_choice,NA,,vtsPrac,6,0,6,0,1,,,,,,,,,,,,,,,,,,,,,,,,
297940,2022-12-03_20h23.07.845,vts_reward_expectancy_bt,2022.2.4,MacIntel,59.93407252,Chrome,1920,1080,,,,,0,558,,,,,,,,,,,,,,,,,Y,181,hexagon,-1,0,,,4,,,,,,,,,,,,,repeat,no_choice,NA,,vtsPrac,7,0,7,0,1,,,,,,,,,,,,,,,,,,,,,,,,
297940,2022-12-03_20h23.07.845,vts_reward_expectancy_bt,2022.2.4,MacIntel,59.93407252,Chrome,1920,1080,,,,,0,558,,,,,,,,,,,,,,,,,W,132,triangle,-1,0,,,4,,,,,,,,,,,,,repeat,no_choice,NA,,vtsPrac,8,0,8,0,1,,,,,,,,,,,,,,,,,,,,,,,,
297940,2022-12-03_20h23.07.845,vts_reward_expectancy_bt,2022.2.4,MacIntel,59.93407252,Chrome,1920,1080,,,,,0,558,,,,,,,,,,,,,,,,,U,174,circle,-1,0,,,4,,,,,,,,,,,,,repeat,no_choice,NA,,vtsPrac,9,0,9,0,1,,,,,,,,,,,,,,,,,,,,,,,,
297940,2022-12-03_20h23.07.845,vts_reward_expectancy_bt,2022.2.4,MacIntel,59.93407252,Chrome,1920,1080,,,,,0,558,,,,,,,,,,,,,,,,,B,146,star,-1,0,,,4,,,,,,,,,,,,,repeat,no_choice,NA,,vtsPrac,10,0,10,0,1,,,,,,,,,,,,,,,,,,,,,,,,
297940,2022-12-03_20h23.07.845,vts_reward_expectancy_bt,2022.2.4,MacIntel,59.93407252,Chrome,1920,1080,,,,,0,558,,,,,,,,,,,,,,,,,Y,125,circle,-1,0,,,4,,,,,,,,,,,,,repeat,no_choice,NA,,vtsPrac,11,0,11,0,1,,,,,,,,,,,,,,,,,,,,,,,,
297940,2022-12-03_20h23.07.845,vts_reward_expectancy_bt,2022.2.4,MacIntel,59.93407252,Chrome,1920,1080,,,,,0,558,,,,,,,,,,,,,,,,,W,160,circle,-1,0,,,4,,,,,,,,,,,,,repeat,no_choice,NA,,vtsPrac,12,0,12,0,1,,,,,,,,,,,,,,,,,,,,,,,,
297940,2022-12-03_20h23.07.845,vts_reward_expectancy_bt,2022.2.4,MacIntel,59.93407252,Chrome,1920,1080,,,,,0,558,,,,,,,,,,,,,,,,,B,132,hexagon,-1,0,,,4,,,,,,,,,,,,,repeat,no_choice,NA,,vtsPrac,13,0,13,0,1,,,,,,,,,,,,,,,,,,,,,,,,
297940,2022-12-03_20h23.07.845,vts_reward_expectancy_bt,2022.2.4,MacIntel,59.93407252,Chrome,1920,1080,,,,,0,558,,,,,,,,,,,,,,,,,F,167,triangle,-1,0,,,4,,,,,,,,,,,,,repeat,no_choice,NA,,vtsPrac,14,0,14,0,1,,,,,,,,,,,,,,,,,,,,,,,,
297940,2022-12-03_20h23.07.845,vts_reward_expectancy_bt,2022.2.4,MacIntel,59.93407252,Chrome,1920,1080,,,,,0,558,,,,,,,,,,,,,,,,,Y,146,hexagon,-1,0,,,4,,,,,,,,,,,,,repeat,no_choice,NA,,vtsPrac,15,0,15,0,1,,,,,,,,,,,,,,,,,,,,,,,,
297940,2022-12-03_20h23.07.845,vts_reward_expectancy_bt,2022.2.4,MacIntel,59.93407252,Chrome,1920,1080,,,,,0,558,,,,,,,,,,,,,,,,,H,146,hexagon,-1,0,,,4,,,,,,,,,,,,,repeat,no_choice,NA,,vtsPrac,16,0,16,0,1,,,,,,,,,,,,,,,,,,,,,,,,
297940,2022-12-03_20h23.07.845,vts_reward_expectancy_bt,2022.2.4,MacIntel,59.93407252,Chrome,1920,1080,,,,,0,558,,,,,,,,,,,,,,,,,F,160,triangle,-1,0,,,4,,,,,,,,,,,,,repeat,no_choice,NA,,vtsPrac,17,0,17,0,1,,,,,,,,,,,,,,,,,,,,,,,,
297940,2022-12-03_20h23.07.845,vts_reward_expectancy_bt,2022.2.4,MacIntel,59.93407252,Chrome,1920,1080,,,,,0,558,,,,,,,,,,,,,,,,,W,139,circle,-1,0,,,4,,,,,,,,,,,,,repeat,no_choice,NA,,vtsPrac,18,0,18,0,1,,,,,,,,,,,,,,,,,,,,,,,,
297940,2022-12-03_20h23.07.845,vts_reward_expectancy_bt,2022.2.4,MacIntel,59.93407252,Chrome,1920,1080,,,,,0,558,,,,,,,,,,,,,,,,,D,181,hexagon,-1,0,,,4,,,,,,,,,,,,,repeat,no_choice,NA,,vtsPrac,19,0,19,0,1,,,,,,,,,,,,,,,,,,,,,,,,
297940,2022-12-03_20h23.07.845,vts_reward_expectancy_bt,2022.2.4,MacIntel,59.93407252,Chrome,1920,1080,,,,,0,558,,,,,,,,,,,,,,,,,H,181,hexagon,1,0,,,4,,,,,,,,,,,,,switch,letter,lettSwt,d,vtsPrac,20,0,20,0,1,2.9389,,,,,,,,,,,,,,,,,,,,,,,
297940,2022-12-03_20h23.07.845,vts_reward_expectancy_bt,2022.2.4,MacIntel,59.93407252,Chrome,1920,1080,,,,,0,558,,,,,,,,,,,,,,,,,Y,125,star,0,0,,,4,,,,,,,,,,,,,repeat,letter,NA,d,vtsPrac,21,0,21,0,1,0.2828,,,,,,,,,,,,,,,,,,,,,,,
297940,2022-12-03_20h23.07.845,vts_reward_expectancy_bt,2022.2.4,MacIntel,59.93407252,Chrome,1920,1080,,,,,0,558,,,,,,,,,,,,,,,,,B,132,triangle,1,1,,,4,,,,,,,,,,,,,repeat,letter,lettRpt,d,vtsPrac,22,0,22,0,1,0.4829,,,,,,,,,,,,,,,,,,,,,,,
297940,2022-12-03_20h23.07.845,vts_reward_expectancy_bt,2022.2.4,MacIntel,59.93407252,Chrome,1920,1080,,,,,0,558,,,,,,,,,,,,,,,,,U,160,circle,-1,0,,,4,,,,,,,,,,,,,switch,no_choice,NA,,vtsPrac,23,0,23,0,1,,,,,,,,,,,,,,,,,,,,,,,,
297940,2022-12-03_20h23.07.845,vts_reward_expectancy_bt,2022.2.4,MacIntel,59.93407252,Chrome,1920,1080,,,,,0,558,,,,,,,,,,,,,,,,,Y,132,triangle,-1,0,,,4,,,,,,,,,,,,,repeat,no_choice,NA,,vtsPrac,24,0,24,0,1,,,,,,,,,,,,,,,,,,,,,,,,
297940,2022-12-03_20h23.07.845,vts_reward_expectancy_bt,2022.2.4,MacIntel,59.93407252,Chrome,1920,1080,,,,,0,558,,,,,,,,,,,,,,,,,H,167,hexagon,-1,0,,,4,,,,,,,,,,,,,repeat,no_choice,NA,,vtsPrac,25,0,25,0,1,,,,,,,,,,,,,,,,,,,,,,,,
297940,2022-12-03_20h23.07.845,vts_reward_expectancy_bt,2022.2.4,MacIntel,59.93407252,Chrome,1920,1080,,,,,0,558,,,,,,,,,,,,,,,,,U,139,star,-1,0,,,4,,,,,,,,,,,,,repeat,no_choice,NA,,vtsPrac,26,0,26,0,1,,,,,,,,,,,,,,,,,,,,,,,,
297940,2022-12-03_20h23.07.845,vts_reward_expectancy_bt,2022.2.4,MacIntel,59.93407252,Chrome,1920,1080,,,,,0,558,,,,,,,,,,,,,,,,,B,181,hexagon,-1,0,,,4,,,,,,,,,,,,,repeat,no_choice,NA,,vtsPrac,27,0,27,0,1,,,,,,,,,,,,,,,,,,,,,,,,
297940,2022-12-03_20h23.07.845,vts_reward_expectancy_bt,2022.2.4,MacIntel,59.93407252,Chrome,1920,1080,,,,,0,558,,,,,,,,,,,,,,,,,S,132,triangle,-1,0,,,4,,,,,,,,,,,,,repeat,no_choice,NA,,vtsPrac,28,0,28,0,1,,,,,,,,,,,,,,,,,,,,,,,,
297940,2022-12-03_20h23.07.845,vts_reward_expectancy_bt,2022.2.4,MacIntel,59.93407252,Chrome,1920,1080,,,,,0,558,,,,,,,,,,,,,,,,,H,146,star,-1,0,,,4,,,,,,,,,,,,,repeat,no_choice,NA,,vtsPrac,29,0,29,0,1,,,,,,,,,,,,,,,,,,,,,,,,
297940,2022-12-03_20h23.07.845,vts_reward_expectancy_bt,2022.2.4,MacIntel,59.93407252,Chrome,1920,1080,,,,,0,558,,,,,,,,,,,,,,,,,W,167,triangle,-1,0,,,4,,,,,,,,,,,,,repeat,no_choice,NA,,vtsPrac,30,0,30,0,1,,,,,,,,,,,,,,,,,,,,,,,,
297940,2022-12-03_20h23.07.845,vts_reward_expectancy_bt,2022.2.4,MacIntel,59.93407252,Chrome,1920,1080,,,,,0,558,,,,,,,,,,,,,,,,,Y,125,star,-1,0,,,4,,,,,,,,,,,,,repeat,no_choice,NA,,vtsPrac,31,0,31,0,1,,,,,,,,,,,,,,,,,,,,,,,,
297940,2022-12-03_20h23.07.845,vts_reward_expectancy_bt,2022.2.4,MacIntel,59.93407252,Chrome,1920,1080,,,,,0,558,,,,,,,,,,,,,,,,,B,174,triangle,1,0,,,5,,,,,,,,,,,,,switch,letter,lettSwt,d,vtsPrac,0,0,0,0,1,0.9877,,,,,,,,,,,,,,,,,,,,,,,
297940,2022-12-03_20h23.07.845,vts_reward_expectancy_bt,2022.2.4,MacIntel,59.93407252,Chrome,1920,1080,,,,,0,558,,,,,,,,,,,,,,,,,U,146,star,-1,0,,,5,,,,,,,,,,,,,switch,no_choice,NA,,vtsPrac,1,0,1,0,1,,,,,,,,,,,,,,,,,,,,,,,,
297940,2022-12-03_20h23.07.845,vts_reward_expectancy_bt,2022.2.4,MacIntel,59.93407252,Chrome,1920,1080,,,,,0,558,,,,,,,,,,,,,,,,,D,132,triangle,-1,0,,,5,,,,,,,,,,,,,repeat,no_choice,NA,,vtsPrac,2,0,2,0,1,,,,,,,,,,,,,,,,,,,,,,,,
297940,2022-12-03_20h23.07.845,vts_reward_expectancy_bt,2022.2.4,MacIntel,59.93407252,Chrome,1920,1080,,,,,0,558,,,,,,,,,,,,,,,,,F,181,star,-1,0,,,5,,,,,,,,,,,,,repeat,no_choice,NA,,vtsPrac,3,0,3,0,1,,,,,,,,,,,,,,,,,,,,,,,,
297940,2022-12-03_20h23.07.845,vts_reward_expectancy_bt,2022.2.4,MacIntel,59.93407252,Chrome,1920,1080,,,,,0,558,,,,,,,,,,,,,,,,,B,174,hexagon,-1,0,,,5,,,,,,,,,,,,,repeat,no_choice,NA,,vtsPrac,4,0,4,0,1,,,,,,,,,,,,,,,,,,,,,,,,
297940,2022-12-03_20h23.07.845,vts_reward_expectancy_bt,2022.2.4,MacIntel,59.93407252,Chrome,1920,1080,,,,,0,558,,,,,,,,,,,,,,,,,U,146,circle,-1,0,,,5,,,,,,,,,,,,,repeat,no_choice,NA,,vtsPrac,5,0,5,0,1,,,,,,,,,,,,,,,,,,,,,,,,
297940,2022-12-03_20h23.07.845,vts_reward_expectancy_bt,2022.2.4,MacIntel,59.93407252,Chrome,1920,1080,,,,,0,558,,,,,,,,,,,,,,,,,D,132,star,-1,0,,,5,,,,,,,,,,,,,repeat,no_choice,NA,,vtsPrac,6,0,6,0,1,,,,,,,,,,,,,,,,,,,,,,,,
297940,2022-12-03_20h23.07.845,vts_reward_expectancy_bt,2022.2.4,MacIntel,59.93407252,Chrome,1920,1080,,,,,0,558,,,,,,,,,,,,,,,,,F,181,hexagon,-1,0,,,5,,,,,,,,,,,,,repeat,no_choice,NA,,vtsPrac,7,0,7,0,1,,,,,,,,,,,,,,,,,,,,,,,,
297940,2022-12-03_20h23.07.845,vts_reward_expectancy_bt,2022.2.4,MacIntel,59.93407252,Chrome,1920,1080,,,,,0,558,,,,,,,,,,,,,,,,,S,167,triangle,-1,0,,,5,,,,,,,,,,,,,repeat,no_choice,NA,,vtsPrac,8,0,8,0,1,,,,,,,,,,,,,,,,,,,,,,,,
297940,2022-12-03_20h23.07.845,vts_reward_expectancy_bt,2022.2.4,MacIntel,59.93407252,Chrome,1920,1080,,,,,0,558,,,,,,,,,,,,,,,,,F,160,star,-1,0,,,5,,,,,,,,,,,,,repeat,no_choice,NA,,vtsPrac,9,0,9,0,1,,,,,,,,,,,,,,,,,,,,,,,,
297940,2022-12-03_20h23.07.845,vts_reward_expectancy_bt,2022.2.4,MacIntel,59.93407252,Chrome,1920,1080,,,,,0,558,,,,,,,,,,,,,,,,,Y,146,circle,-1,0,,,5,,,,,,,,,,,,,repeat,no_choice,NA,,vtsPrac,10,0,10,0,1,,,,,,,,,,,,,,,,,,,,,,,,
297940,2022-12-03_20h23.07.845,vts_reward_expectancy_bt,2022.2.4,MacIntel,59.93407252,Chrome,1920,1080,,,,,0,558,,,,,,,,,,,,,,,,,D,174,triangle,-1,0,,,5,,,,,,,,,,,,,repeat,no_choice,NA,,vtsPrac,11,0,11,0,1,,,,,,,,,,,,,,,,,,,,,,,,
297940,2022-12-03_20h23.07.845,vts_reward_expectancy_bt,2022.2.4,MacIntel,59.93407252,Chrome,1920,1080,,,,,0,558,,,,,,,,,,,,,,,,,U,146,hexagon,-1,0,,,5,,,,,,,,,,,,,repeat,no_choice,NA,,vtsPrac,12,0,12,0,1,,,,,,,,,,,,,,,,,,,,,,,,
297940,2022-12-03_20h23.07.845,vts_reward_expectancy_bt,2022.2.4,MacIntel,59.93407252,Chrome,1920,1080,,,,,0,558,,,,,,,,,,,,,,,,,B,125,circle,-1,0,,,5,,,,,,,,,,,,,repeat,no_choice,NA,,vtsPrac,13,0,13,0,1,,,,,,,,,,,,,,,,,,,,,,,,
297940,2022-12-03_20h23.07.845,vts_reward_expectancy_bt,2022.2.4,MacIntel,59.93407252,Chrome,1920,1080,,,,,0,558,,,,,,,,,,,,,,,,,S,160,hexagon,-1,0,,,5,,,,,,,,,,,,,repeat,no_choice,NA,,vtsPrac,14,0,14,0,1,,,,,,,,,,,,,,,,,,,,,,,,
297940,2022-12-03_20h23.07.845,vts_reward_expectancy_bt,2022.2.4,MacIntel,59.93407252,Chrome,1920,1080,,,,,0,558,,,,,,,,,,,,,,,,,D,181,circle,-1,0,,,5,,,,,,,,,,,,,repeat,no_choice,NA,,vtsPrac,15,0,15,0,1,,,,,,,,,,,,,,,,,,,,,,,,
297940,2022-12-03_20h23.07.845,vts_reward_expectancy_bt,2022.2.4,MacIntel,59.93407252,Chrome,1920,1080,,,,,0,558,,,,,,,,,,,,,,,,,B,125,triangle,-1,0,,,5,,,,,,,,,,,,,repeat,no_choice,NA,,vtsPrac,16,0,16,0,1,,,,,,,,,,,,,,,,,,,,,,,,
297940,2022-12-03_20h23.07.845,vts_reward_expectancy_bt,2022.2.4,MacIntel,59.93407252,Chrome,1920,1080,,,,,0,558,,,,,,,,,,,,,,,,,U,160,circle,-1,0,,,5,,,,,,,,,,,,,repeat,no_choice,NA,,vtsPrac,17,0,17,0,1,,,,,,,,,,,,,,,,,,,,,,,,
297940,2022-12-03_20h23.07.845,vts_reward_expectancy_bt,2022.2.4,MacIntel,59.93407252,Chrome,1920,1080,,,,,0,558,,,,,,,,,,,,,,,,,Y,167,triangle,-1,0,,,5,,,,,,,,,,,,,repeat,no_choice,NA,,vtsPrac,18,0,18,0,1,,,,,,,,,,,,,,,,,,,,,,,,
297940,2022-12-03_20h23.07.845,vts_reward_expectancy_bt,2022.2.4,MacIntel,59.93407252,Chrome,1920,1080,,,,,0,558,,,,,,,,,,,,,,,,,D,139,star,-1,0,,,5,,,,,,,,,,,,,repeat,no_choice,NA,,vtsPrac,19,0,19,0,1,,,,,,,,,,,,,,,,,,,,,,,,
297940,2022-12-03_20h23.07.845,vts_reward_expectancy_bt,2022.2.4,MacIntel,59.93407252,Chrome,1920,1080,,,,,0,558,,,,,,,,,,,,,,,,,S,139,hexagon,-1,0,,,5,,,,,,,,,,,,,repeat,no_choice,NA,,vtsPrac,20,0,20,0,1,,,,,,,,,,,,,,,,,,,,,,,,
297940,2022-12-03_20h23.07.845,vts_reward_expectancy_bt,2022.2.4,MacIntel,59.93407252,Chrome,1920,1080,,,,,0,558,,,,,,,,,,,,,,,,,U,132,triangle,-1,0,,,5,,,,,,,,,,,,,repeat,no_choice,NA,,vtsPrac,21,0,21,0,1,,,,,,,,,,,,,,,,,,,,,,,,
297940,2022-12-03_20h23.07.845,vts_reward_expectancy_bt,2022.2.4,MacIntel,59.93407252,Chrome,1920,1080,,,,,0,558,,,,,,,,,,,,,,,,,D,181,triangle,-1,0,,,5,,,,,,,,,,,,,repeat,no_choice,NA,,vtsPrac,22,0,22,0,1,,,,,,,,,,,,,,,,,,,,,,,,
297940,2022-12-03_20h23.07.845,vts_reward_expectancy_bt,2022.2.4,MacIntel,59.93407252,Chrome,1920,1080,,,,,0,558,,,,,,,,,,,,,,,,,F,167,circle,-1,0,,,5,,,,,,,,,,,,,repeat,no_choice,NA,,vtsPrac,23,0,23,0,1,,,,,,,,,,,,,,,,,,,,,,,,
297940,2022-12-03_20h23.07.845,vts_reward_expectancy_bt,2022.2.4,MacIntel,59.93407252,Chrome,1920,1080,,,,,0,558,,,,,,,,,,,,,,,,,Y,125,circle,-1,0,,,5,,,,,,,,,,,,,repeat,no_choice,NA,,vtsPrac,24,0,24,0,1,,,,,,,,,,,,,,,,,,,,,,,,
297940,2022-12-03_20h23.07.845,vts_reward_expectancy_bt,2022.2.4,MacIntel,59.93407252,Chrome,1920,1080,,,,,0,558,,,,,,,,,,,,,,,,,U,160,hexagon,-1,0,,,5,,,,,,,,,,,,,repeat,no_choice,NA,,vtsPrac,25,0,25,0,1,,,,,,,,,,,,,,,,,,,,,,,,
297940,2022-12-03_20h23.07.845,vts_reward_expectancy_bt,2022.2.4,MacIntel,59.93407252,Chrome,1920,1080,,,,,0,558,,,,,,,,,,,,,,,,,F,167,circle,-1,0,,,5,,,,,,,,,,,,,repeat,no_choice,NA,,vtsPrac,26,0,26,0,1,,,,,,,,,,,,,,,,,,,,,,,,
297940,2022-12-03_20h23.07.845,vts_reward_expectancy_bt,2022.2.4,MacIntel,59.93407252,Chrome,1920,1080,,,,,0,558,,,,,,,,,,,,,,,,,D,174,hexagon,-1,0,,,5,,,,,,,,,,,,,repeat,no_choice,NA,,vtsPrac,27,0,27,0,1,,,,,,,,,,,,,,,,,,,,,,,,
297940,2022-12-03_20h23.07.845,vts_reward_expectancy_bt,2022.2.4,MacIntel,59.93407252,Chrome,1920,1080,,,,,0,558,,,,,,,,,,,,,,,,,W,139,circle,-1,0,,,5,,,,,,,,,,,,,repeat,no_choice,NA,,vtsPrac,28,0,28,0,1,,,,,,,,,,,,,,,,,,,,,,,,
297940,2022-12-03_20h23.07.845,vts_reward_expectancy_bt,2022.2.4,MacIntel,59.93407252,Chrome,1920,1080,,,,,0,558,,,,,,,,,,,,,,,,,U,146,star,-1,0,,,5,,,,,,,,,,,,,repeat,no_choice,NA,,vtsPrac,29,0,29,0,1,,,,,,,,,,,,,,,,,,,,,,,,
297940,2022-12-03_20h23.07.845,vts_reward_expectancy_bt,2022.2.4,MacIntel,59.93407252,Chrome,1920,1080,,,,,0,558,,,,,,,,,,,,,,,,,B,125,star,-1,0,,,5,,,,,,,,,,,,,repeat,no_choice,NA,,vtsPrac,30,0,30,0,1,,,,,,,,,,,,,,,,,,,,,,,,
297940,2022-12-03_20h23.07.845,vts_reward_expectancy_bt,2022.2.4,MacIntel,59.93407252,Chrome,1920,1080,,,,,0,558,,,,,,,,,,,,,,,,,F,167,triangle,-1,0,,,5,,,,,,,,,,,,,repeat,no_choice,NA,,vtsPrac,31,0,31,0,1,,,,,,,,,,,,,,,,,,,,,,,,
297940,2022-12-03_20h23.07.845,vts_reward_expectancy_bt,2022.2.4,MacIntel,59.93407252,Chrome,1920,1080,,,,,,,,,,,,,,,,,,,,,,,,,,,,,,,,,,,,,,,,,,,,,,,,,,,,,,,,,,,,,,,,,,,,,,,,,,,,
297940,2022-12-03_20h23.07.845,vts_reward_expectancy_bt,2022.2.4,MacIntel,59.93407252,Chrome,1920,1080,,,,,,,,,,,,,,,,,,,,,,,,,,,,,,,,,,,,,,,,,,,,,,,,,,,,,,,,,,,,,,,,,,,,,,,,,,,,
297940,2022-12-03_20h23.07.845,vts_reward_expectancy_bt,2022.2.4,MacIntel,59.93407252,Chrome,1920,1080,,,,,0,558,,,,,,,,,,,,,,,,,S,125,hexagon,1,0,,,,,,,,,,,,,,,,switch,letter,lettSwt,f,noRew,,,,,,1.0238,0,0,0,0,0,1,,,,,,,,,,,,,,,,,
297940,2022-12-03_20h23.07.845,vts_reward_expectancy_bt,2022.2.4,MacIntel,59.93407252,Chrome,1920,1080,,,,,0,558,,,,,,,,,,,,,,,,,H,132,star,1,0,,,,,,,,,,,,,,,,repeat,letter,lettRpt,d,noRew,,,,,,0.7494,0,1,0,1,0,1,,,,,,,,,,,,,,,,,
297940,2022-12-03_20h23.07.845,vts_reward_expectancy_bt,2022.2.4,MacIntel,59.93407252,Chrome,1920,1080,,,,,0,558,,,,,,,,,,,,,,,,,F,139,hexagon,1,0,,,,,,,,,,,,,,,,repeat,letter,lettRpt,d,noRew,,,,,,0.6475,0,2,0,2,0,1,,,,,,,,,,,,,,,,,
297940,2022-12-03_20h23.07.845,vts_reward_expectancy_bt,2022.2.4,MacIntel,59.93407252,Chrome,1920,1080,,,,,0,558,,,,,,,,,,,,,,,,,B,174,star,1,0,,,,,,,,,,,,,,,,repeat,letter,lettRpt,d,noRew,,,,,,0.52,0,3,0,3,0,1,,,,,,,,,,,,,,,,,
297940,2022-12-03_20h23.07.845,vts_reward_expectancy_bt,2022.2.4,MacIntel,59.93407252,Chrome,1920,1080,,,,,0,558,,,,,,,,,,,,,,,,,S,125,hexagon,0,0,,,,,,,,,,,,,,,,repeat,letter,NA,d,noRew,,,,,,0.7849,0,4,0,4,0,1,,,,,,,,,,,,,,,,,
297940,2022-12-03_20h23.07.845,vts_reward_expectancy_bt,2022.2.4,MacIntel,59.93407252,Chrome,1920,1080,,,,,0,558,,,,,,,,,,,,,,,,,H,132,circle,1,1,,,,,,,,,,,,,,,,repeat,letter,lettRpt,d,noRew,,,,,,0.6502,0,5,0,5,0,1,,,,,,,,,,,,,,,,,
297940,2022-12-03_20h23.07.845,vts_reward_expectancy_bt,2022.2.4,MacIntel,59.93407252,Chrome,1920,1080,,,,,0,558,,,,,,,,,,,,,,,,,F,139,triangle,1,0,,,,,,,,,,,,,,,,repeat,letter,lettRpt,d,noRew,,,,,,0.5158,0,6,0,6,0,1,,,,,,,,,,,,,,,,,
297940,2022-12-03_20h23.07.845,vts_reward_expectancy_bt,2022.2.4,MacIntel,59.93407252,Chrome,1920,1080,,,,,0,558,,,,,,,,,,,,,,,,,B,174,star,1,0,,,,,,,,,,,,,,,,repeat,letter,lettRpt,d,noRew,,,,,,0.6336,0,7,0,7,0,1,,,,,,,,,,,,,,,,,
297940,2022-12-03_20h23.07.845,vts_reward_expectancy_bt,2022.2.4,MacIntel,59.93407252,Chrome,1920,1080,,,,,0,558,,,,,,,,,,,,,,,,,H,139,circle,1,0,,,,,,,,,,,,,,,,repeat,letter,lettRpt,d,noRew,,,,,,0.5495,0,8,0,8,0,1,,,,,,,,,,,,,,,,,
297940,2022-12-03_20h23.07.845,vts_reward_expectancy_bt,2022.2.4,MacIntel,59.93407252,Chrome,1920,1080,,,,,0,558,,,,,,,,,,,,,,,,,B,167,star,1,0,,,,,,,,,,,,,,,,repeat,letter,lettRpt,d,noRew,,,,,,0.5491,0,9,0,9,0,1,,,,,,,,,,,,,,,,,
297940,2022-12-03_20h23.07.845,vts_reward_expectancy_bt,2022.2.4,MacIntel,59.93407252,Chrome,1920,1080,,,,,0,558,,,,,,,,,,,,,,,,,Y,132,circle,1,0,,,,,,,,,,,,,,,,repeat,letter,lettRpt,f,noRew,,,,,,0.7136,0,10,0,10,0,1,,,,,,,,,,,,,,,,,
297940,2022-12-03_20h23.07.845,vts_reward_expectancy_bt,2022.2.4,MacIntel,59.93407252,Chrome,1920,1080,,,,,0,558,,,,,,,,,,,,,,,,,S,181,hexagon,1,0,,,,,,,,,,,,,,,,repeat,letter,lettRpt,f,noRew,,,,,,0.649,0,11,0,11,0,1,,,,,,,,,,,,,,,,,
297940,2022-12-03_20h23.07.845,vts_reward_expectancy_bt,2022.2.4,MacIntel,59.93407252,Chrome,1920,1080,,,,,0,558,,,,,,,,,,,,,,,,,W,132,hexagon,1,0,,,,,,,,,,,,,,,,repeat,letter,lettRpt,f,noRew,,,,,,0.6482,0,12,0,12,0,1,,,,,,,,,,,,,,,,,
297940,2022-12-03_20h23.07.845,vts_reward_expectancy_bt,2022.2.4,MacIntel,59.93407252,Chrome,1920,1080,,,,,0,558,,,,,,,,,,,,,,,,,U,174,triangle,1,0,,,,,,,,,,,,,,,,repeat,letter,lettRpt,f,noRew,,,,,,0.6828,0,13,0,13,0,1,,,,,,,,,,,,,,,,,
297940,2022-12-03_20h23.07.845,vts_reward_expectancy_bt,2022.2.4,MacIntel,59.93407252,Chrome,1920,1080,,,,,0,558,,,,,,,,,,,,,,,,,S,167,triangle,1,0,,,,,,,,,,,,,,,,repeat,letter,lettRpt,f,noRew,,,,,,0.8499,0,14,0,14,0,1,,,,,,,,,,,,,,,,,
297940,2022-12-03_20h23.07.845,vts_reward_expectancy_bt,2022.2.4,MacIntel,59.93407252,Chrome,1920,1080,,,,,0,558,,,,,,,,,,,,,,,,,Y,160,hexagon,1,0,,,,,,,,,,,,,,,,repeat,letter,lettRpt,f,noRew,,,,,,0.7515,0,15,0,15,0,1,,,,,,,,,,,,,,,,,
297940,2022-12-03_20h23.07.845,vts_reward_expectancy_bt,2022.2.4,MacIntel,59.93407252,Chrome,1920,1080,,,,,0,558,,,,,,,,,,,,,,,,,F,160,circle,1,0,,,,,,,,,,,,,,,,repeat,letter,lettRpt,d,noRew,,,,,,0.8006,0,16,0,16,0,1,,,,,,,,,,,,,,,,,
297940,2022-12-03_20h23.07.845,vts_reward_expectancy_bt,2022.2.4,MacIntel,59.93407252,Chrome,1920,1080,,,,,0,558,,,,,,,,,,,,,,,,,H,167,hexagon,1,0,,,,,,,,,,,,,,,,repeat,letter,lettRpt,d,noRew,,,,,,0.6542,0,17,0,17,0,1,,,,,,,,,,,,,,,,,
297940,2022-12-03_20h23.07.845,vts_reward_expectancy_bt,2022.2.4,MacIntel,59.93407252,Chrome,1920,1080,,,,,0,558,,,,,,,,,,,,,,,,,D,146,triangle,1,0,,,,,,,,,,,,,,,,repeat,letter,lettRpt,d,noRew,,,,,,0.5661,0,18,0,18,0,1,,,,,,,,,,,,,,,,,
297940,2022-12-03_20h23.07.845,vts_reward_expectancy_bt,2022.2.4,MacIntel,59.93407252,Chrome,1920,1080,,,,,0,558,,,,,,,,,,,,,,,,,S,132,hexagon,1,0,,,,,,,,,,,,,,,,repeat,letter,lettRpt,f,noRew,,,,,,0.706,0,19,0,19,0,1,,,,,,,,,,,,,,,,,
297940,2022-12-03_20h23.07.845,vts_reward_expectancy_bt,2022.2.4,MacIntel,59.93407252,Chrome,1920,1080,,,,,0,558,,,,,,,,,,,,,,,,,Y,160,triangle,1,0,,,,,,,,,,,,,,,,repeat,letter,lettRpt,f,noRew,,,,,,0.684,0,20,0,20,0,1,,,,,,,,,,,,,,,,,
297940,2022-12-03_20h23.07.845,vts_reward_expectancy_bt,2022.2.4,MacIntel,59.93407252,Chrome,1920,1080,,,,,0,558,,,,,,,,,,,,,,,,,H,146,hexagon,1,0,,,,,,,,,,,,,,,,repeat,letter,lettRpt,d,noRew,,,,,,0.7341,0,21,0,21,0,1,,,,,,,,,,,,,,,,,
297940,2022-12-03_20h23.07.845,vts_reward_expectancy_bt,2022.2.4,MacIntel,59.93407252,Chrome,1920,1080,,,,,0,558,,,,,,,,,,,,,,,,,U,181,star,1,0,,,,,,,,,,,,,,,,repeat,letter,lettRpt,f,noRew,,,,,,0.9336,0,22,0,22,0,1,,,,,,,,,,,,,,,,,
297940,2022-12-03_20h23.07.845,vts_reward_expectancy_bt,2022.2.4,MacIntel,59.93407252,Chrome,1920,1080,,,,,0,558,,,,,,,,,,,,,,,,,B,125,circle,1,0,,,,,,,,,,,,,,,,repeat,letter,lettRpt,d,noRew,,,,,,0.6327,0,23,0,23,0,1,,,,,,,,,,,,,,,,,
297940,2022-12-03_20h23.07.845,vts_reward_expectancy_bt,2022.2.4,MacIntel,59.93407252,Chrome,1920,1080,,,,,0,558,,,,,,,,,,,,,,,,,B,139,star,1,0,,,,,,,,,,,,,,,,repeat,letter,lettRpt,d,noRew,,,,,,0.6183,0,24,0,24,0,1,,,,,,,,,,,,,,,,,
297940,2022-12-03_20h23.07.845,vts_reward_expectancy_bt,2022.2.4,MacIntel,59.93407252,Chrome,1920,1080,,,,,0,558,,,,,,,,,,,,,,,,,D,167,triangle,1,0,,,,,,,,,,,,,,,,repeat,letter,lettRpt,d,noRew,,,,,,2.3683,0,25,0,25,0,1,,,,,,,,,,,,,,,,,
297940,2022-12-03_20h23.07.845,vts_reward_expectancy_bt,2022.2.4,MacIntel,59.93407252,Chrome,1920,1080,,,,,0,558,,,,,,,,,,,,,,,,,F,146,star,1,0,,,,,,,,,,,,,,,,repeat,letter,lettRpt,d,noRew,,,,,,0.9488,0,26,0,26,0,1,,,,,,,,,,,,,,,,,
297940,2022-12-03_20h23.07.845,vts_reward_expectancy_bt,2022.2.4,MacIntel,59.93407252,Chrome,1920,1080,,,,,0,558,,,,,,,,,,,,,,,,,U,132,triangle,1,0,,,,,,,,,,,,,,,,repeat,letter,lettRpt,f,noRew,,,,,,0.6689,0,27,0,27,0,1,,,,,,,,,,,,,,,,,
297940,2022-12-03_20h23.07.845,vts_reward_expectancy_bt,2022.2.4,MacIntel,59.93407252,Chrome,1920,1080,,,,,0,558,,,,,,,,,,,,,,,,,W,125,triangle,1,0,,,,,,,,,,,,,,,,repeat,letter,lettRpt,f,noRew,,,,,,0.6191,0,28,0,28,0,1,,,,,,,,,,,,,,,,,
297940,2022-12-03_20h23.07.845,vts_reward_expectancy_bt,2022.2.4,MacIntel,59.93407252,Chrome,1920,1080,,,,,0,558,,,,,,,,,,,,,,,,,F,174,hexagon,0,0,,,,,,,,,,,,,,,,repeat,letter,NA,f,noRew,,,,,,0.6832,0,29,0,29,0,1,,,,,,,,,,,,,,,,,
297940,2022-12-03_20h23.07.845,vts_reward_expectancy_bt,2022.2.4,MacIntel,59.93407252,Chrome,1920,1080,,,,,0,558,,,,,,,,,,,,,,,,,U,132,star,1,1,,,,,,,,,,,,,,,,repeat,letter,lettRpt,f,noRew,,,,,,0.6708,0,30,0,30,0,1,,,,,,,,,,,,,,,,,
297940,2022-12-03_20h23.07.845,vts_reward_expectancy_bt,2022.2.4,MacIntel,59.93407252,Chrome,1920,1080,,,,,0,558,,,,,,,,,,,,,,,,,H,167,triangle,1,0,,,,,,,,,,,,,,,,repeat,letter,lettRpt,d,noRew,,,,,,0.6171,0,31,0,31,0,1,,,,,,,,,,,,,,,,,
297940,2022-12-03_20h23.07.845,vts_reward_expectancy_bt,2022.2.4,MacIntel,59.93407252,Chrome,1920,1080,,,,,0,558,,,,,,,,,,,,,,,,,W,181,hexagon,1,0,,,,,,,,,,,,,,,,repeat,letter,lettRpt,f,noRew,,,,,,0.6007,0,32,0,32,0,1,,,,,,,,,,,,,,,,,
297940,2022-12-03_20h23.07.845,vts_reward_expectancy_bt,2022.2.4,MacIntel,59.93407252,Chrome,1920,1080,,,,,0,558,,,,,,,,,,,,,,,,,U,167,triangle,1,0,,,,,,,,,,,,,,,,repeat,letter,lettRpt,f,noRew,,,,,,0.6295,0,33,0,33,0,1,,,,,,,,,,,,,,,,,
297940,2022-12-03_20h23.07.845,vts_reward_expectancy_bt,2022.2.4,MacIntel,59.93407252,Chrome,1920,1080,,,,,0,558,,,,,,,,,,,,,,,,,S,160,triangle,0,0,,,,,,,,,,,,,,,,repeat,letter,NA,d,noRew,,,,,,0.8849,0,34,0,34,0,1,,,,,,,,,,,,,,,,,
297940,2022-12-03_20h23.07.845,vts_reward_expectancy_bt,2022.2.4,MacIntel,59.93407252,Chrome,1920,1080,,,,,0,558,,,,,,,,,,,,,,,,,B,146,star,1,1,,,,,,,,,,,,,,,,repeat,letter,lettRpt,d,noRew,,,,,,0.5222,0,35,0,35,0,1,,,,,,,,,,,,,,,,,
297940,2022-12-03_20h23.07.845,vts_reward_expectancy_bt,2022.2.4,MacIntel,59.93407252,Chrome,1920,1080,,,,,0,558,,,,,,,,,,,,,,,,,F,132,star,1,0,,,,,,,,,,,,,,,,repeat,letter,lettRpt,d,noRew,,,,,,0.7996,0,36,0,36,0,1,,,,,,,,,,,,,,,,,
297940,2022-12-03_20h23.07.845,vts_reward_expectancy_bt,2022.2.4,MacIntel,59.93407252,Chrome,1920,1080,,,,,0,558,,,,,,,,,,,,,,,,,U,146,hexagon,1,0,,,,,,,,,,,,,,,,repeat,letter,lettRpt,f,noRew,,,,,,1.2175,0,37,0,37,0,1,,,,,,,,,,,,,,,,,
297940,2022-12-03_20h23.07.845,vts_reward_expectancy_bt,2022.2.4,MacIntel,59.93407252,Chrome,1920,1080,,,,,0,558,,,,,,,,,,,,,,,,,Y,160,circle,-1,0,,,,,,,,,,,,,,,,switch,no_choice,NA,,noRew,,,,,,,0,38,0,38,0,1,,,,,,,,,,,,,,,,,
297940,2022-12-03_20h23.07.845,vts_reward_expectancy_bt,2022.2.4,MacIntel,59.93407252,Chrome,1920,1080,,,,,0,558,,,,,,,,,,,,,,,,,B,174,star,1,0,,,,,,,,,,,,,,,,switch,letter,lettSwt,d,noRew,,,,,,0.8681,0,39,0,39,0,1,,,,,,,,,,,,,,,,,
297940,2022-12-03_20h23.07.845,vts_reward_expectancy_bt,2022.2.4,MacIntel,59.93407252,Chrome,1920,1080,,,,,0,558,,,,,,,,,,,,,,,,,U,167,hexagon,1,0,,,,,,,,,,,,,,,,repeat,letter,lettRpt,f,noRew,,,,,,0.897,0,40,0,40,0,1,,,,,,,,,,,,,,,,,
297940,2022-12-03_20h23.07.845,vts_reward_expectancy_bt,2022.2.4,MacIntel,59.93407252,Chrome,1920,1080,,,,,0,558,,,,,,,,,,,,,,,,,B,125,circle,1,0,,,,,,,,,,,,,,,,repeat,letter,lettRpt,d,noRew,,,,,,1.066,0,41,0,41,0,1,,,,,,,,,,,,,,,,,
297940,2022-12-03_20h23.07.845,vts_reward_expectancy_bt,2022.2.4,MacIntel,59.93407252,Chrome,1920,1080,,,,,0,558,,,,,,,,,,,,,,,,,F,146,star,0,0,,,,,,,,,,,,,,,,repeat,letter,NA,f,noRew,,,,,,0.5488,0,42,0,42,0,1,,,,,,,,,,,,,,,,,
297940,2022-12-03_20h23.07.845,vts_reward_expectancy_bt,2022.2.4,MacIntel,59.93407252,Chrome,1920,1080,,,,,0,558,,,,,,,,,,,,,,,,,H,132,hexagon,1,1,,,,,,,,,,,,,,,,repeat,letter,lettRpt,d,noRew,,,,,,1.4172,0,43,0,43,0,1,,,,,,,,,,,,,,,,,
297940,2022-12-03_20h23.07.845,vts_reward_expectancy_bt,2022.2.4,MacIntel,59.93407252,Chrome,1920,1080,,,,,0,558,,,,,,,,,,,,,,,,,B,181,triangle,1,0,,,,,,,,,,,,,,,,repeat,letter,lettRpt,d,noRew,,,,,,0.5327,0,44,0,44,0,1,,,,,,,,,,,,,,,,,
297940,2022-12-03_20h23.07.845,vts_reward_expectancy_bt,2022.2.4,MacIntel,59.93407252,Chrome,1920,1080,,,,,0,558,,,,,,,,,,,,,,,,,Y,160,circle,1,0,,,,,,,,,,,,,,,,repeat,letter,lettRpt,f,noRew,,,,,,0.7212,0,45,0,45,0,1,,,,,,,,,,,,,,,,,
297940,2022-12-03_20h23.07.845,vts_reward_expectancy_bt,2022.2.4,MacIntel,59.93407252,Chrome,1920,1080,,,,,0,558,,,,,,,,,,,,,,,,,H,146,star,1,0,,,,,,,,,,,,,,,,repeat,letter,lettRpt,d,noRew,,,,,,0.5507,0,46,0,46,0,1,,,,,,,,,,,,,,,,,
297940,2022-12-03_20h23.07.845,vts_reward_expectancy_bt,2022.2.4,MacIntel,59.93407252,Chrome,1920,1080,,,,,0,558,,,,,,,,,,,,,,,,,D,132,triangle,1,0,,,,,,,,,,,,,,,,repeat,letter,lettRpt,d,noRew,,,,,,0.8344,0,47,0,47,0,1,,,,,,,,,,,,,,,,,
297940,2022-12-03_20h23.07.845,vts_reward_expectancy_bt,2022.2.4,MacIntel,59.93407252,Chrome,1920,1080,,,,,0,558,,,,,,,,,,,,,,,,,D,146,triangle,1,0,,,,,,,,,,,,,,,,repeat,letter,lettRpt,d,noRew,,,,,,0.7335,0,48,0,48,0,1,,,,,,,,,,,,,,,,,
297940,2022-12-03_20h23.07.845,vts_reward_expectancy_bt,2022.2.4,MacIntel,59.93407252,Chrome,1920,1080,,,,,0,558,,,,,,,,,,,,,,,,,U,167,hexagon,0,0,,,,,,,,,,,,,,,,repeat,letter,NA,d,noRew,,,,,,0.5998,0,49,0,49,0,1,,,,,,,,,,,,,,,,,
297940,2022-12-03_20h23.07.845,vts_reward_expectancy_bt,2022.2.4,MacIntel,59.93407252,Chrome,1920,1080,,,,,0,558,,,,,,,,,,,,,,,,,F,160,triangle,1,1,,,,,,,,,,,,,,,,repeat,letter,lettRpt,d,noRew,,,,,,1.1833,0,50,0,50,0,1,,,,,,,,,,,,,,,,,
297940,2022-12-03_20h23.07.845,vts_reward_expectancy_bt,2022.2.4,MacIntel,59.93407252,Chrome,1920,1080,,,,,0,558,,,,,,,,,,,,,,,,,S,132,star,0,0,,,,,,,,,,,,,,,,repeat,letter,NA,d,noRew,,,,,,0.6054,0,51,0,51,0,1,,,,,,,,,,,,,,,,,
297940,2022-12-03_20h23.07.845,vts_reward_expectancy_bt,2022.2.4,MacIntel,59.93407252,Chrome,1920,1080,,,,,0,558,,,,,,,,,,,,,,,,,H,167,circle,1,1,,,,,,,,,,,,,,,,repeat,letter,lettRpt,d,noRew,,,,,,0.5486,0,52,0,52,0,1,,,,,,,,,,,,,,,,,
297940,2022-12-03_20h23.07.845,vts_reward_expectancy_bt,2022.2.4,MacIntel,59.93407252,Chrome,1920,1080,,,,,0,558,,,,,,,,,,,,,,,,,U,181,hexagon,1,0,,,,,,,,,,,,,,,,repeat,letter,lettRpt,f,noRew,,,,,,0.6512,0,53,0,53,0,1,,,,,,,,,,,,,,,,,
297940,2022-12-03_20h23.07.845,vts_reward_expectancy_bt,2022.2.4,MacIntel,59.93407252,Chrome,1920,1080,,,,,0,558,,,,,,,,,,,,,,,,,W,160,star,1,0,,,,,,,,,,,,,,,,repeat,letter,lettRpt,f,noRew,,,,,,2.2993,0,54,0,54,0,1,,,,,,,,,,,,,,,,,
297940,2022-12-03_20h23.07.845,vts_reward_expectancy_bt,2022.2.4,MacIntel,59.93407252,Chrome,1920,1080,,,,,0,558,,,,,,,,,,,,,,,,,S,146,circle,0,0,,,,,,,,,,,,,,,,repeat,letter,NA,d,noRew,,,,,,0.7358,0,55,0,55,0,1,,,,,,,,,,,,,,,,,
297940,2022-12-03_20h23.07.845,vts_reward_expectancy_bt,2022.2.4,MacIntel,59.93407252,Chrome,1920,1080,,,,,0,558,,,,,,,,,,,,,,,,,H,174,star,1,1,,,,,,,,,,,,,,,,repeat,letter,lettRpt,d,noRew,,,,,,1.4049,0,56,0,56,0,1,,,,,,,,,,,,,,,,,
297940,2022-12-03_20h23.07.845,vts_reward_expectancy_bt,2022.2.4,MacIntel,59.93407252,Chrome,1920,1080,,,,,0,558,,,,,,,,,,,,,,,,,F,181,hexagon,0,0,,,,,,,,,,,,,,,,repeat,letter,NA,f,noRew,,,,,,1.4551,0,57,0,57,0,1,,,,,,,,,,,,,,,,,
297940,2022-12-03_20h23.07.845,vts_reward_expectancy_bt,2022.2.4,MacIntel,59.93407252,Chrome,1920,1080,,,,,0,558,,,,,,,,,,,,,,,,,B,139,circle,1,1,,,,,,,,,,,,,,,,repeat,letter,lettRpt,d,noRew,,,,,,0.6059,0,58,0,58,0,1,,,,,,,,,,,,,,,,,
297940,2022-12-03_20h23.07.845,vts_reward_expectancy_bt,2022.2.4,MacIntel,59.93407252,Chrome,1920,1080,,,,,0,558,,,,,,,,,,,,,,,,,D,146,triangle,1,0,,,,,,,,,,,,,,,,repeat,letter,lettRpt,d,noRew,,,,,,0.6663,0,59,0,59,0,1,,,,,,,,,,,,,,,,,
297940,2022-12-03_20h23.07.845,vts_reward_expectancy_bt,2022.2.4,MacIntel,59.93407252,Chrome,1920,1080,,,,,0,558,,,,,,,,,,,,,,,,,D,125,triangle,1,0,,,,,,,,,,,,,,,,repeat,letter,lettRpt,d,noRew,,,,,,0.688,0,60,0,60,0,1,,,,,,,,,,,,,,,,,
297940,2022-12-03_20h23.07.845,vts_reward_expectancy_bt,2022.2.4,MacIntel,59.93407252,Chrome,1920,1080,,,,,0,558,,,,,,,,,,,,,,,,,F,167,star,1,0,,,,,,,,,,,,,,,,repeat,letter,lettRpt,d,noRew,,,,,,0.9976,0,61,0,61,0,1,,,,,,,,,,,,,,,,,
297940,2022-12-03_20h23.07.845,vts_reward_expectancy_bt,2022.2.4,MacIntel,59.93407252,Chrome,1920,1080,,,,,0,558,,,,,,,,,,,,,,,,,B,146,star,-1,0,,,,,,,,,,,,,,,,switch,no_choice,NA,,noRew,,,,,,,0,62,0,62,0,1,,,,,,,,,,,,,,,,,
297940,2022-12-03_20h23.07.845,vts_reward_expectancy_bt,2022.2.4,MacIntel,59.93407252,Chrome,1920,1080,,,,,0,558,,,,,,,,,,,,,,,,,S,139,triangle,1,0,,,,,,,,,,,,,,,,switch,letter,lettSwt,f,noRew,,,,,,0.6839,0,63,0,63,0,1,,,,,,,,,,,,,,,,,
297940,2022-12-03_20h23.07.845,vts_reward_expectancy_bt,2022.2.4,MacIntel,59.93407252,Chrome,1920,1080,,,,,,,,,,,,,,,,,,,,,,,,,,,,,,,,,,,,,,,,,,,,,,,,,,,,,,,,,,,,,,,,,,,,,,,,,,,,
297940,2022-12-03_20h23.07.845,vts_reward_expectancy_bt,2022.2.4,MacIntel,59.93407252,Chrome,1920,1080,,,,,0,558,,,,,,,,,,,,,,,,,B,167,circle,1,0,,,,,,,,,,,,,,,,repeat,letter,lettRpt,d,Hi,,,,,,1.1838,0,,,,,,space,11.8675,low,0,0,0,0,1,,,,,,,,,
297940,2022-12-03_20h23.07.845,vts_reward_expectancy_bt,2022.2.4,MacIntel,59.93407252,Chrome,1920,1080,,,,,0,558,,,,,,,,,,,,,,,,,U,146,triangle,0,0,,,,,,,,,,,,,,,,repeat,letter,NA,d,Hi,,,,,,0.3046,0,,,,,,,,low,1,0,1,0,1,,,,,,,,,
297940,2022-12-03_20h23.07.845,vts_reward_expectancy_bt,2022.2.4,MacIntel,59.93407252,Chrome,1920,1080,,,,,1,559,,,,,,,,,,,,,,,,,S,139,hexagon,1,1,,,,,,,,,,,,,,,,repeat,letter,lettRpt,f,Lo,,,,,,0.7664,0,,,,,,,,low,2,0,2,0,1,,,,,,,,,
297940,2022-12-03_20h23.07.845,vts_reward_expectancy_bt,2022.2.4,MacIntel,59.93407252,Chrome,1920,1080,,,,,0,559,,,,,,,,,,,,,,,,,H,132,star,1,0,,,,,,,,,,,,,,,,repeat,letter,lettRpt,d,Hi,,,,,,1.0021,0,,,,,,,,low,3,0,3,0,1,,,,,,,,,
297940,2022-12-03_20h23.07.845,vts_reward_expectancy_bt,2022.2.4,MacIntel,59.93407252,Chrome,1920,1080,,,,,10,569,,,,,,,,,,,,,,,,,D,125,circle,1,0,,,,,,,,,,,,,,,,repeat,letter,lettRpt,d,Hi,,,,,,0.4519,0,,,,,,,,low,4,0,4,0,1,,,,,,,,,
297940,2022-12-03_20h23.07.845,vts_reward_expectancy_bt,2022.2.4,MacIntel,59.93407252,Chrome,1920,1080,,,,,1,570,,,,,,,,,,,,,,,,,W,181,triangle,1,0,,,,,,,,,,,,,,,,repeat,letter,lettRpt,f,Lo,,,,,,0.5822,0,,,,,,,,low,5,0,5,0,1,,,,,,,,,
297940,2022-12-03_20h23.07.845,vts_reward_expectancy_bt,2022.2.4,MacIntel,59.93407252,Chrome,1920,1080,,,,,1,571,,,,,,,,,,,,,,,,,Y,160,hexagon,1,0,,,,,,,,,,,,,,,,repeat,letter,lettRpt,f,Lo,,,,,,0.9832,0,,,,,,,,low,6,0,6,0,1,,,,,,,,,
297940,2022-12-03_20h23.07.845,vts_reward_expectancy_bt,2022.2.4,MacIntel,59.93407252,Chrome,1920,1080,,,,,0,571,,,,,,,,,,,,,,,,,F,174,star,1,0,,,,,,,,,,,,,,,,repeat,letter,lettRpt,d,Hi,,,,,,1.2034,0,,,,,,,,low,7,0,7,0,1,,,,,,,,,
297940,2022-12-03_20h23.07.845,vts_reward_expectancy_bt,2022.2.4,MacIntel,59.93407252,Chrome,1920,1080,,,,,0,571,,,,,,,,,,,,,,,,,B,167,star,1,0,,,,,,,,,,,,,,,,repeat,letter,lettRpt,d,Hi,,,,,,0.9495,0,,,,,,,,low,8,0,8,0,1,,,,,,,,,
297940,2022-12-03_20h23.07.845,vts_reward_expectancy_bt,2022.2.4,MacIntel,59.93407252,Chrome,1920,1080,,,,,10,581,,,,,,,,,,,,,,,,,U,146,triangle,1,0,,,,,,,,,,,,,,,,repeat,letter,lettRpt,f,Lo,,,,,,0.598,0,,,,,,,,low,9,0,9,0,1,,,,,,,,,
297940,2022-12-03_20h23.07.845,vts_reward_expectancy_bt,2022.2.4,MacIntel,59.93407252,Chrome,1920,1080,,,,,0,581,,,,,,,,,,,,,,,,,S,139,hexagon,0,0,,,,,,,,,,,,,,,,repeat,letter,NA,d,Lo,,,,,,0.8995,0,,,,,,,,low,10,0,10,0,1,,,,,,,,,
297940,2022-12-03_20h23.07.845,vts_reward_expectancy_bt,2022.2.4,MacIntel,59.93407252,Chrome,1920,1080,,,,,0,581,,,,,,,,,,,,,,,,,H,132,circle,0,1,,,,,,,,,,,,,,,,repeat,letter,NA,f,Lo,,,,,,0.8835,0,,,,,,,,low,11,0,11,0,1,,,,,,,,,
297940,2022-12-03_20h23.07.845,vts_reward_expectancy_bt,2022.2.4,MacIntel,59.93407252,Chrome,1920,1080,,,,,10,591,,,,,,,,,,,,,,,,,D,125,star,1,1,,,,,,,,,,,,,,,,repeat,letter,lettRpt,d,Hi,,,,,,0.5667,0,,,,,,,,low,12,0,12,0,1,,,,,,,,,
297940,2022-12-03_20h23.07.845,vts_reward_expectancy_bt,2022.2.4,MacIntel,59.93407252,Chrome,1920,1080,,,,,10,601,,,,,,,,,,,,,,,,,W,181,triangle,1,0,,,,,,,,,,,,,,,,repeat,letter,lettRpt,f,Lo,,,,,,0.5376,0,,,,,,,,low,13,0,13,0,1,,,,,,,,,
297940,2022-12-03_20h23.07.845,vts_reward_expectancy_bt,2022.2.4,MacIntel,59.93407252,Chrome,1920,1080,,,,,1,602,,,,,,,,,,,,,,,,,Y,160,hexagon,1,0,,,,,,,,,,,,,,,,repeat,letter,lettRpt,f,Lo,,,,,,0.6162,0,,,,,,,,low,14,0,14,0,1,,,,,,,,,
297940,2022-12-03_20h23.07.845,vts_reward_expectancy_bt,2022.2.4,MacIntel,59.93407252,Chrome,1920,1080,,,,,10,612,,,,,,,,,,,,,,,,,F,174,circle,1,0,,,,,,,,,,,,,,,,repeat,letter,lettRpt,d,Hi,,,,,,0.5976,0,,,,,,,,low,15,0,15,0,1,,,,,,,,,
297940,2022-12-03_20h23.07.845,vts_reward_expectancy_bt,2022.2.4,MacIntel,59.93407252,Chrome,1920,1080,,,,,10,622,,,,,,,,,,,,,,,,,D,146,circle,1,0,,,,,,,,,,,,,,,,repeat,letter,lettRpt,d,Hi,,,,,,0.6153,0,,,,,,,,low,16,0,16,0,1,,,,,,,,,
297940,2022-12-03_20h23.07.845,vts_reward_expectancy_bt,2022.2.4,MacIntel,59.93407252,Chrome,1920,1080,,,,,10,632,,,,,,,,,,,,,,,,,H,160,triangle,1,0,,,,,,,,,,,,,,,,repeat,letter,lettRpt,d,Lo,,,,,,0.6491,0,,,,,,,,low,17,0,17,0,1,,,,,,,,,
297940,2022-12-03_20h23.07.845,vts_reward_expectancy_bt,2022.2.4,MacIntel,59.93407252,Chrome,1920,1080,,,,,1,633,,,,,,,,,,,,,,,,,Y,181,hexagon,1,0,,,,,,,,,,,,,,,,repeat,letter,lettRpt,f,Lo,,,,,,0.5661,0,,,,,,,,low,18,0,18,0,1,,,,,,,,,
297940,2022-12-03_20h23.07.845,vts_reward_expectancy_bt,2022.2.4,MacIntel,59.93407252,Chrome,1920,1080,,,,,10,643,,,,,,,,,,,,,,,,,B,125,star,1,0,,,,,,,,,,,,,,,,repeat,letter,lettRpt,d,Hi,,,,,,0.5522,0,,,,,,,,low,19,0,19,0,1,,,,,,,,,
297940,2022-12-03_20h23.07.845,vts_reward_expectancy_bt,2022.2.4,MacIntel,59.93407252,Chrome,1920,1080,,,,,10,653,,,,,,,,,,,,,,,,,S,174,star,1,0,,,,,,,,,,,,,,,,repeat,letter,lettRpt,f,Hi,,,,,,0.6154,0,,,,,,,,low,20,0,20,0,1,,,,,,,,,
297940,2022-12-03_20h23.07.845,vts_reward_expectancy_bt,2022.2.4,MacIntel,59.93407252,Chrome,1920,1080,,,,,0,653,,,,,,,,,,,,,,,,,U,132,circle,1,0,,,,,,,,,,,,,,,,repeat,letter,lettRpt,f,Hi,,,,,,0.716,0,,,,,,,,low,21,0,21,0,1,,,,,,,,,
297940,2022-12-03_20h23.07.845,vts_reward_expectancy_bt,2022.2.4,MacIntel,59.93407252,Chrome,1920,1080,,,,,1,654,,,,,,,,,,,,,,,,,W,167,triangle,1,0,,,,,,,,,,,,,,,,repeat,letter,lettRpt,f,Lo,,,,,,0.5551,0,,,,,,,,low,22,0,22,0,1,,,,,,,,,
297940,2022-12-03_20h23.07.845,vts_reward_expectancy_bt,2022.2.4,MacIntel,59.93407252,Chrome,1920,1080,,,,,1,655,,,,,,,,,,,,,,,,,F,139,hexagon,1,0,,,,,,,,,,,,,,,,repeat,letter,lettRpt,d,Lo,,,,,,0.7656,0,,,,,,,,low,23,0,23,0,1,,,,,,,,,
297940,2022-12-03_20h23.07.845,vts_reward_expectancy_bt,2022.2.4,MacIntel,59.93407252,Chrome,1920,1080,,,,,1,656,,,,,,,,,,,,,,,,,Y,146,hexagon,1,0,,,,,,,,,,,,,,,,repeat,letter,lettRpt,f,Lo,,,,,,0.6331,0,,,,,,,,low,24,0,24,0,1,,,,,,,,,
297940,2022-12-03_20h23.07.845,vts_reward_expectancy_bt,2022.2.4,MacIntel,59.93407252,Chrome,1920,1080,,,,,1,657,,,,,,,,,,,,,,,,,B,132,triangle,1,0,,,,,,,,,,,,,,,,repeat,letter,lettRpt,d,Lo,,,,,,0.5006,0,,,,,,,,low,25,0,25,0,1,,,,,,,,,
297940,2022-12-03_20h23.07.845,vts_reward_expectancy_bt,2022.2.4,MacIntel,59.93407252,Chrome,1920,1080,,,,,0,657,,,,,,,,,,,,,,,,,W,167,circle,1,0,,,,,,,,,,,,,,,,repeat,letter,lettRpt,f,Hi,,,,,,0.7997,0,,,,,,,,low,26,0,26,0,1,,,,,,,,,
297940,2022-12-03_20h23.07.845,vts_reward_expectancy_bt,2022.2.4,MacIntel,59.93407252,Chrome,1920,1080,,,,,10,667,,,,,,,,,,,,,,,,,H,174,star,1,0,,,,,,,,,,,,,,,,repeat,letter,lettRpt,d,Hi,,,,,,0.616,0,,,,,,,,low,27,0,27,0,1,,,,,,,,,
297940,2022-12-03_20h23.07.845,vts_reward_expectancy_bt,2022.2.4,MacIntel,59.93407252,Chrome,1920,1080,,,,,1,668,,,,,,,,,,,,,,,,,S,125,hexagon,1,0,,,,,,,,,,,,,,,,repeat,letter,lettRpt,f,Lo,,,,,,0.5658,0,,,,,,,,low,28,0,28,0,1,,,,,,,,,
297940,2022-12-03_20h23.07.845,vts_reward_expectancy_bt,2022.2.4,MacIntel,59.93407252,Chrome,1920,1080,,,,,1,669,,,,,,,,,,,,,,,,,F,181,circle,1,0,,,,,,,,,,,,,,,,repeat,letter,lettRpt,d,Hi,,,,,,0.6173,0,,,,,,,,low,29,0,29,0,1,,,,,,,,,
297940,2022-12-03_20h23.07.845,vts_reward_expectancy_bt,2022.2.4,MacIntel,59.93407252,Chrome,1920,1080,,,,,10,679,,,,,,,,,,,,,,,,,U,139,star,1,0,,,,,,,,,,,,,,,,repeat,letter,lettRpt,f,Hi,,,,,,0.6172,0,,,,,,,,low,30,0,30,0,1,,,,,,,,,
297940,2022-12-03_20h23.07.845,vts_reward_expectancy_bt,2022.2.4,MacIntel,59.93407252,Chrome,1920,1080,,,,,10,689,,,,,,,,,,,,,,,,,D,160,triangle,1,0,,,,,,,,,,,,,,,,repeat,letter,lettRpt,d,Lo,,,,,,0.599,0,,,,,,,,low,31,0,31,0,1,,,,,,,,,
297940,2022-12-03_20h23.07.845,vts_reward_expectancy_bt,2022.2.4,MacIntel,59.93407252,Chrome,1920,1080,,,,,10,699,,,,,,,,,,,,,,,,,B,139,triangle,1,0,,,,,,,,,,,,,,,,repeat,letter,lettRpt,d,Lo,,,,,,0.9311,1,,,,,,space,29.2235,low,0,0,0,0,1,,,,,,,,,
297940,2022-12-03_20h23.07.845,vts_reward_expectancy_bt,2022.2.4,MacIntel,59.93407252,Chrome,1920,1080,,,,,1,700,,,,,,,,,,,,,,,,,F,125,hexagon,1,0,,,,,,,,,,,,,,,,repeat,letter,lettRpt,d,Lo,,,,,,0.7658,1,,,,,,,,low,1,0,1,0,1,,,,,,,,,
297940,2022-12-03_20h23.07.845,vts_reward_expectancy_bt,2022.2.4,MacIntel,59.93407252,Chrome,1920,1080,,,,,10,710,,,,,,,,,,,,,,,,,D,181,star,1,0,,,,,,,,,,,,,,,,repeat,letter,lettRpt,d,Hi,,,,,,0.5871,1,,,,,,,,low,2,0,2,0,1,,,,,,,,,
297940,2022-12-03_20h23.07.845,vts_reward_expectancy_bt,2022.2.4,MacIntel,59.93407252,Chrome,1920,1080,,,,,10,720,,,,,,,,,,,,,,,,,U,174,circle,1,0,,,,,,,,,,,,,,,,repeat,letter,lettRpt,f,Hi,,,,,,0.5666,1,,,,,,,,low,3,0,3,0,1,,,,,,,,,
297940,2022-12-03_20h23.07.845,vts_reward_expectancy_bt,2022.2.4,MacIntel,59.93407252,Chrome,1920,1080,,,,,10,730,,,,,,,,,,,,,,,,,Y,167,triangle,1,0,,,,,,,,,,,,,,,,repeat,letter,lettRpt,f,Lo,,,,,,0.6662,1,,,,,,,,low,4,0,4,0,1,,,,,,,,,
297940,2022-12-03_20h23.07.845,vts_reward_expectancy_bt,2022.2.4,MacIntel,59.93407252,Chrome,1920,1080,,,,,10,740,,,,,,,,,,,,,,,,,H,146,hexagon,1,0,,,,,,,,,,,,,,,,repeat,letter,lettRpt,d,Lo,,,,,,0.5489,1,,,,,,,,low,5,0,5,0,1,,,,,,,,,
297940,2022-12-03_20h23.07.845,vts_reward_expectancy_bt,2022.2.4,MacIntel,59.93407252,Chrome,1920,1080,,,,,1,741,,,,,,,,,,,,,,,,,S,132,star,1,0,,,,,,,,,,,,,,,,repeat,letter,lettRpt,f,Hi,,,,,,0.5326,1,,,,,,,,low,6,0,6,0,1,,,,,,,,,
297940,2022-12-03_20h23.07.845,vts_reward_expectancy_bt,2022.2.4,MacIntel,59.93407252,Chrome,1920,1080,,,,,0,741,,,,,,,,,,,,,,,,,W,160,circle,1,0,,,,,,,,,,,,,,,,repeat,letter,lettRpt,f,Hi,,,,,,0.6651,1,,,,,,,,low,7,0,7,0,1,,,,,,,,,
297940,2022-12-03_20h23.07.845,vts_reward_expectancy_bt,2022.2.4,MacIntel,59.93407252,Chrome,1920,1080,,,,,1,742,,,,,,,,,,,,,,,,,B,139,triangle,1,0,,,,,,,,,,,,,,,,repeat,letter,lettRpt,d,Lo,,,,,,0.8643,1,,,,,,,,low,8,0,8,0,1,,,,,,,,,
297940,2022-12-03_20h23.07.845,vts_reward_expectancy_bt,2022.2.4,MacIntel,59.93407252,Chrome,1920,1080,,,,,1,743,,,,,,,,,,,,,,,,,F,125,hexagon,1,0,,,,,,,,,,,,,,,,repeat,letter,lettRpt,d,Lo,,,,,,0.6666,1,,,,,,,,low,9,0,9,0,1,,,,,,,,,
297940,2022-12-03_20h23.07.845,vts_reward_expectancy_bt,2022.2.4,MacIntel,59.93407252,Chrome,1920,1080,,,,,1,744,,,,,,,,,,,,,,,,,D,181,star,1,0,,,,,,,,,,,,,,,,repeat,letter,lettRpt,d,Hi,,,,,,0.5363,1,,,,,,,,low,10,0,10,0,1,,,,,,,,,
297940,2022-12-03_20h23.07.845,vts_reward_expectancy_bt,2022.2.4,MacIntel,59.93407252,Chrome,1920,1080,,,,,0,744,,,,,,,,,,,,,,,,,U,174,circle,0,0,,,,,,,,,,,,,,,,repeat,letter,NA,d,Hi,,,,,,0.4224,1,,,,,,,,low,11,0,11,0,1,,,,,,,,,
297940,2022-12-03_20h23.07.845,vts_reward_expectancy_bt,2022.2.4,MacIntel,59.93407252,Chrome,1920,1080,,,,,1,745,,,,,,,,,,,,,,,,,Y,167,circle,1,1,,,,,,,,,,,,,,,,repeat,letter,lettRpt,f,Hi,,,,,,0.5654,1,,,,,,,,low,12,0,12,0,1,,,,,,,,,
297940,2022-12-03_20h23.07.845,vts_reward_expectancy_bt,2022.2.4,MacIntel,59.93407252,Chrome,1920,1080,,,,,1,746,,,,,,,,,,,,,,,,,H,146,triangle,1,0,,,,,,,,,,,,,,,,repeat,letter,lettRpt,d,Lo,,,,,,0.533,1,,,,,,,,low,13,0,13,0,1,,,,,,,,,
297940,2022-12-03_20h23.07.845,vts_reward_expectancy_bt,2022.2.4,MacIntel,59.93407252,Chrome,1920,1080,,,,,10,756,,,,,,,,,,,,,,,,,S,132,hexagon,1,0,,,,,,,,,,,,,,,,repeat,letter,lettRpt,f,Lo,,,,,,0.7825,1,,,,,,,,low,14,0,14,0,1,,,,,,,,,
297940,2022-12-03_20h23.07.845,vts_reward_expectancy_bt,2022.2.4,MacIntel,59.93407252,Chrome,1920,1080,,,,,0,756,,,,,,,,,,,,,,,,,W,160,star,1,0,,,,,,,,,,,,,,,,repeat,letter,lettRpt,f,Hi,,,,,,0.6503,1,,,,,,,,low,15,0,15,0,1,,,,,,,,,
297940,2022-12-03_20h23.07.845,vts_reward_expectancy_bt,2022.2.4,MacIntel,59.93407252,Chrome,1920,1080,,,,,1,757,,,,,,,,,,,,,,,,,W,181,circle,1,0,,,,,,,,,,,,,,,,repeat,letter,lettRpt,f,Hi,,,,,,0.5659,1,,,,,,,,low,16,0,16,0,1,,,,,,,,,
297940,2022-12-03_20h23.07.845,vts_reward_expectancy_bt,2022.2.4,MacIntel,59.93407252,Chrome,1920,1080,,,,,10,767,,,,,,,,,,,,,,,,,Y,125,triangle,1,0,,,,,,,,,,,,,,,,repeat,letter,lettRpt,f,Lo,,,,,,0.6055,1,,,,,,,,low,17,0,17,0,1,,,,,,,,,
297940,2022-12-03_20h23.07.845,vts_reward_expectancy_bt,2022.2.4,MacIntel,59.93407252,Chrome,1920,1080,,,,,0,767,,,,,,,,,,,,,,,,,B,139,star,0,0,,,,,,,,,,,,,,,,switch,number,NA,k,Lo,,,,,,0.135,1,,,,,,,,low,18,0,18,0,1,,,,,,,,,
297940,2022-12-03_20h23.07.845,vts_reward_expectancy_bt,2022.2.4,MacIntel,59.93407252,Chrome,1920,1080,,,,,1,768,,,,,,,,,,,,,,,,,D,132,hexagon,1,1,,,,,,,,,,,,,,,,switch,letter,lettSwt,d,Lo,,,,,,0.5899,1,,,,,,,,low,19,0,19,0,1,,,,,,,,,
297940,2022-12-03_20h23.07.845,vts_reward_expectancy_bt,2022.2.4,MacIntel,59.93407252,Chrome,1920,1080,,,,,0,768,,,,,,,,,,,,,,,,,U,174,star,1,0,,,,,,,,,,,,,,,,repeat,letter,lettRpt,f,Hi,,,,,,0.8709,1,,,,,,,,low,20,0,20,0,1,,,,,,,,,
297940,2022-12-03_20h23.07.845,vts_reward_expectancy_bt,2022.2.4,MacIntel,59.93407252,Chrome,1920,1080,,,,,1,769,,,,,,,,,,,,,,,,,S,146,hexagon,1,0,,,,,,,,,,,,,,,,repeat,letter,lettRpt,f,Lo,,,,,,0.5042,1,,,,,,,,low,21,0,21,0,1,,,,,,,,,
297940,2022-12-03_20h23.07.845,vts_reward_expectancy_bt,2022.2.4,MacIntel,59.93407252,Chrome,1920,1080,,,,,0,769,,,,,,,,,,,,,,,,,H,160,circle,1,0,,,,,,,,,,,,,,,,repeat,letter,lettRpt,d,Hi,,,,,,0.6057,1,,,,,,,,low,22,0,22,0,1,,,,,,,,,
297940,2022-12-03_20h23.07.845,vts_reward_expectancy_bt,2022.2.4,MacIntel,59.93407252,Chrome,1920,1080,,,,,1,770,,,,,,,,,,,,,,,,,F,167,triangle,1,0,,,,,,,,,,,,,,,,repeat,letter,lettRpt,d,Lo,,,,,,0.5041,1,,,,,,,,low,23,0,23,0,1,,,,,,,,,
297940,2022-12-03_20h23.07.845,vts_reward_expectancy_bt,2022.2.4,MacIntel,59.93407252,Chrome,1920,1080,,,,,1,771,,,,,,,,,,,,,,,,,D,139,hexagon,1,0,,,,,,,,,,,,,,,,repeat,letter,lettRpt,d,Lo,,,,,,0.5655,1,,,,,,,,low,24,0,24,0,1,,,,,,,,,
297940,2022-12-03_20h23.07.845,vts_reward_expectancy_bt,2022.2.4,MacIntel,59.93407252,Chrome,1920,1080,,,,,10,781,,,,,,,,,,,,,,,,,B,146,triangle,1,0,,,,,,,,,,,,,,,,repeat,letter,lettRpt,d,Lo,,,,,,0.5863,1,,,,,,,,low,25,0,25,0,1,,,,,,,,,
297940,2022-12-03_20h23.07.845,vts_reward_expectancy_bt,2022.2.4,MacIntel,59.93407252,Chrome,1920,1080,,,,,0,781,,,,,,,,,,,,,,,,,F,125,star,1,0,,,,,,,,,,,,,,,,repeat,letter,lettRpt,d,Hi,,,,,,0.6009,1,,,,,,,,low,26,0,26,0,1,,,,,,,,,
297940,2022-12-03_20h23.07.845,vts_reward_expectancy_bt,2022.2.4,MacIntel,59.93407252,Chrome,1920,1080,,,,,0,781,,,,,,,,,,,,,,,,,Y,181,circle,1,0,,,,,,,,,,,,,,,,repeat,letter,lettRpt,f,Hi,,,,,,0.6657,1,,,,,,,,low,27,0,27,0,1,,,,,,,,,
297940,2022-12-03_20h23.07.845,vts_reward_expectancy_bt,2022.2.4,MacIntel,59.93407252,Chrome,1920,1080,,,,,10,791,,,,,,,,,,,,,,,,,S,167,triangle,1,0,,,,,,,,,,,,,,,,repeat,letter,lettRpt,f,Lo,,,,,,0.5322,1,,,,,,,,low,28,0,28,0,1,,,,,,,,,
297940,2022-12-03_20h23.07.845,vts_reward_expectancy_bt,2022.2.4,MacIntel,59.93407252,Chrome,1920,1080,,,,,10,801,,,,,,,,,,,,,,,,,W,174,star,1,0,,,,,,,,,,,,,,,,repeat,letter,lettRpt,f,Hi,,,,,,0.5003,1,,,,,,,,low,29,0,29,0,1,,,,,,,,,
297940,2022-12-03_20h23.07.845,vts_reward_expectancy_bt,2022.2.4,MacIntel,59.93407252,Chrome,1920,1080,,,,,10,811,,,,,,,,,,,,,,,,,H,132,circle,1,0,,,,,,,,,,,,,,,,repeat,letter,lettRpt,d,Hi,,,,,,0.5006,1,,,,,,,,low,30,0,30,0,1,,,,,,,,,
297940,2022-12-03_20h23.07.845,vts_reward_expectancy_bt,2022.2.4,MacIntel,59.93407252,Chrome,1920,1080,,,,,10,821,,,,,,,,,,,,,,,,,U,160,hexagon,1,0,,,,,,,,,,,,,,,,repeat,letter,lettRpt,f,Lo,,,,,,0.5529,1,,,,,,,,low,31,0,31,0,1,,,,,,,,,
297940,2022-12-03_20h23.07.845,vts_reward_expectancy_bt,2022.2.4,MacIntel,59.93407252,Chrome,1920,1080,,,,,1,822,,,,,,,,,,,,,,,,,D,167,hexagon,1,0,,,,,,,,,,,,,,,,repeat,letter,lettRpt,d,Lo,,,,,,0.4877,2,,,,,,space,82.6481,low,0,0,0,0,1,,,,,,,,,
297940,2022-12-03_20h23.07.845,vts_reward_expectancy_bt,2022.2.4,MacIntel,59.93407252,Chrome,1920,1080,,,,,10,832,,,,,,,,,,,,,,,,,S,139,star,1,0,,,,,,,,,,,,,,,,repeat,letter,lettRpt,f,Hi,,,,,,0.4822,2,,,,,,,,low,1,0,1,0,1,,,,,,,,,
297940,2022-12-03_20h23.07.845,vts_reward_expectancy_bt,2022.2.4,MacIntel,59.93407252,Chrome,1920,1080,,,,,1,833,,,,,,,,,,,,,,,,,Y,160,triangle,1,0,,,,,,,,,,,,,,,,repeat,letter,lettRpt,f,Lo,,,,,,0.4989,2,,,,,,,,low,2,0,2,0,1,,,,,,,,,
297940,2022-12-03_20h23.07.845,vts_reward_expectancy_bt,2022.2.4,MacIntel,59.93407252,Chrome,1920,1080,,,,,10,843,,,,,,,,,,,,,,,,,B,125,circle,1,0,,,,,,,,,,,,,,,,repeat,letter,lettRpt,d,Hi,,,,,,0.5482,2,,,,,,,,low,3,0,3,0,1,,,,,,,,,
297940,2022-12-03_20h23.07.845,vts_reward_expectancy_bt,2022.2.4,MacIntel,59.93407252,Chrome,1920,1080,,,,,10,853,,,,,,,,,,,,,,,,,H,174,hexagon,1,0,,,,,,,,,,,,,,,,repeat,letter,lettRpt,d,Lo,,,,,,0.7033,2,,,,,,,,low,4,0,4,0,1,,,,,,,,,
297940,2022-12-03_20h23.07.845,vts_reward_expectancy_bt,2022.2.4,MacIntel,59.93407252,Chrome,1920,1080,,,,,0,853,,,,,,,,,,,,,,,,,U,181,star,1,0,,,,,,,,,,,,,,,,repeat,letter,lettRpt,f,Hi,,,,,,0.5993,2,,,,,,,,low,5,0,5,0,1,,,,,,,,,
297940,2022-12-03_20h23.07.845,vts_reward_expectancy_bt,2022.2.4,MacIntel,59.93407252,Chrome,1920,1080,,,,,1,854,,,,,,,,,,,,,,,,,W,146,triangle,1,0,,,,,,,,,,,,,,,,repeat,letter,lettRpt,f,Lo,,,,,,0.5163,2,,,,,,,,low,6,0,6,0,1,,,,,,,,,
297940,2022-12-03_20h23.07.845,vts_reward_expectancy_bt,2022.2.4,MacIntel,59.93407252,Chrome,1920,1080,,,,,1,855,,,,,,,,,,,,,,,,,F,132,circle,1,0,,,,,,,,,,,,,,,,repeat,letter,lettRpt,d,Hi,,,,,,0.5343,2,,,,,,,,low,7,0,7,0,1,,,,,,,,,
297940,2022-12-03_20h23.07.845,vts_reward_expectancy_bt,2022.2.4,MacIntel,59.93407252,Chrome,1920,1080,,,,,1,856,,,,,,,,,,,,,,,,,D,167,triangle,1,0,,,,,,,,,,,,,,,,repeat,letter,lettRpt,d,Lo,,,,,,0.6172,2,,,,,,,,low,8,0,8,0,1,,,,,,,,,
297940,2022-12-03_20h23.07.845,vts_reward_expectancy_bt,2022.2.4,MacIntel,59.93407252,Chrome,1920,1080,,,,,10,866,,,,,,,,,,,,,,,,,S,139,hexagon,1,0,,,,,,,,,,,,,,,,repeat,letter,lettRpt,f,Lo,,,,,,0.5501,2,,,,,,,,low,9,0,9,0,1,,,,,,,,,
297940,2022-12-03_20h23.07.845,vts_reward_expectancy_bt,2022.2.4,MacIntel,59.93407252,Chrome,1920,1080,,,,,1,867,,,,,,,,,,,,,,,,,Y,160,circle,1,0,,,,,,,,,,,,,,,,repeat,letter,lettRpt,f,Hi,,,,,,0.4983,2,,,,,,,,low,10,0,10,0,1,,,,,,,,,
297940,2022-12-03_20h23.07.845,vts_reward_expectancy_bt,2022.2.4,MacIntel,59.93407252,Chrome,1920,1080,,,,,10,877,,,,,,,,,,,,,,,,,B,125,star,1,0,,,,,,,,,,,,,,,,repeat,letter,lettRpt,d,Hi,,,,,,0.4983,2,,,,,,,,low,11,0,11,0,1,,,,,,,,,
297940,2022-12-03_20h23.07.845,vts_reward_expectancy_bt,2022.2.4,MacIntel,59.93407252,Chrome,1920,1080,,,,,0,877,,,,,,,,,,,,,,,,,H,174,star,1,0,,,,,,,,,,,,,,,,repeat,letter,lettRpt,d,Hi,,,,,,0.5841,2,,,,,,,,low,12,0,12,0,1,,,,,,,,,
297940,2022-12-03_20h23.07.845,vts_reward_expectancy_bt,2022.2.4,MacIntel,59.93407252,Chrome,1920,1080,,,,,10,887,,,,,,,,,,,,,,,,,U,181,circle,1,0,,,,,,,,,,,,,,,,repeat,letter,lettRpt,f,Hi,,,,,,0.5203,2,,,,,,,,low,13,0,13,0,1,,,,,,,,,
297940,2022-12-03_20h23.07.845,vts_reward_expectancy_bt,2022.2.4,MacIntel,59.93407252,Chrome,1920,1080,,,,,1,888,,,,,,,,,,,,,,,,,W,146,hexagon,1,0,,,,,,,,,,,,,,,,repeat,letter,lettRpt,f,Lo,,,,,,0.5662,2,,,,,,,,low,14,0,14,0,1,,,,,,,,,
297940,2022-12-03_20h23.07.845,vts_reward_expectancy_bt,2022.2.4,MacIntel,59.93407252,Chrome,1920,1080,,,,,1,889,,,,,,,,,,,,,,,,,F,132,triangle,1,0,,,,,,,,,,,,,,,,repeat,letter,lettRpt,d,Lo,,,,,,0.616,2,,,,,,,,low,15,0,15,0,1,,,,,,,,,
297940,2022-12-03_20h23.07.845,vts_reward_expectancy_bt,2022.2.4,MacIntel,59.93407252,Chrome,1920,1080,,,,,1,890,,,,,,,,,,,,,,,,,Y,146,hexagon,1,0,,,,,,,,,,,,,,,,repeat,letter,lettRpt,f,Lo,,,,,,0.5167,2,,,,,,,,low,16,0,16,0,1,,,,,,,,,
297940,2022-12-03_20h23.07.845,vts_reward_expectancy_bt,2022.2.4,MacIntel,59.93407252,Chrome,1920,1080,,,,,0,890,,,,,,,,,,,,,,,,,H,160,circle,1,0,,,,,,,,,,,,,,,,repeat,letter,lettRpt,d,Hi,,,,,,0.5671,2,,,,,,,,low,17,0,17,0,1,,,,,,,,,
297940,2022-12-03_20h23.07.845,vts_reward_expectancy_bt,2022.2.4,MacIntel,59.93407252,Chrome,1920,1080,,,,,1,891,,,,,,,,,,,,,,,,,S,174,triangle,1,0,,,,,,,,,,,,,,,,repeat,letter,lettRpt,f,Lo,,,,,,0.5314,2,,,,,,,,low,18,0,18,0,1,,,,,,,,,
297940,2022-12-03_20h23.07.845,vts_reward_expectancy_bt,2022.2.4,MacIntel,59.93407252,Chrome,1920,1080,,,,,0,891,,,,,,,,,,,,,,,,,D,181,star,0,0,,,,,,,,,,,,,,,,repeat,letter,NA,f,Lo,,,,,,0.5495,2,,,,,,,,low,19,0,19,0,1,,,,,,,,,
297940,2022-12-03_20h23.07.845,vts_reward_expectancy_bt,2022.2.4,MacIntel,59.93407252,Chrome,1920,1080,,,,,0,891,,,,,,,,,,,,,,,,,U,167,triangle,0,1,,,,,,,,,,,,,,,,repeat,letter,NA,d,Lo,,,,,,0.7327,2,,,,,,,,low,20,0,20,0,1,,,,,,,,,
297940,2022-12-03_20h23.07.845,vts_reward_expectancy_bt,2022.2.4,MacIntel,59.93407252,Chrome,1920,1080,,,,,0,891,,,,,,,,,,,,,,,,,F,132,circle,1,1,,,,,,,,,,,,,,,,repeat,letter,lettRpt,d,Hi,,,,,,0.6656,2,,,,,,,,low,21,0,21,0,1,,,,,,,,,
297940,2022-12-03_20h23.07.845,vts_reward_expectancy_bt,2022.2.4,MacIntel,59.93407252,Chrome,1920,1080,,,,,1,892,,,,,,,,,,,,,,,,,B,125,star,1,0,,,,,,,,,,,,,,,,repeat,letter,lettRpt,d,Hi,,,,,,0.5145,2,,,,,,,,low,22,0,22,0,1,,,,,,,,,
297940,2022-12-03_20h23.07.845,vts_reward_expectancy_bt,2022.2.4,MacIntel,59.93407252,Chrome,1920,1080,,,,,1,893,,,,,,,,,,,,,,,,,W,139,hexagon,1,0,,,,,,,,,,,,,,,,repeat,letter,lettRpt,f,Lo,,,,,,0.5331,2,,,,,,,,low,23,0,23,0,1,,,,,,,,,
297940,2022-12-03_20h23.07.845,vts_reward_expectancy_bt,2022.2.4,MacIntel,59.93407252,Chrome,1920,1080,,,,,1,894,,,,,,,,,,,,,,,,,D,125,hexagon,1,0,,,,,,,,,,,,,,,,repeat,letter,lettRpt,d,Lo,,,,,,0.4992,2,,,,,,,,low,24,0,24,0,1,,,,,,,,,
297940,2022-12-03_20h23.07.845,vts_reward_expectancy_bt,2022.2.4,MacIntel,59.93407252,Chrome,1920,1080,,,,,1,895,,,,,,,,,,,,,,,,,U,174,star,1,0,,,,,,,,,,,,,,,,repeat,letter,lettRpt,f,Hi,,,,,,0.483,2,,,,,,,,low,25,0,25,0,1,,,,,,,,,
297940,2022-12-03_20h23.07.845,vts_reward_expectancy_bt,2022.2.4,MacIntel,59.93407252,Chrome,1920,1080,,,,,0,895,,,,,,,,,,,,,,,,,S,139,triangle,0,0,,,,,,,,,,,,,,,,repeat,letter,NA,d,Hi,,,,,,0.4666,2,,,,,,,,low,26,0,26,0,1,,,,,,,,,
297940,2022-12-03_20h23.07.845,vts_reward_expectancy_bt,2022.2.4,MacIntel,59.93407252,Chrome,1920,1080,,,,,10,905,,,,,,,,,,,,,,,,,F,146,circle,1,1,,,,,,,,,,,,,,,,repeat,letter,lettRpt,d,Hi,,,,,,0.5218,2,,,,,,,,low,27,0,27,0,1,,,,,,,,,
297940,2022-12-03_20h23.07.845,vts_reward_expectancy_bt,2022.2.4,MacIntel,59.93407252,Chrome,1920,1080,,,,,10,915,,,,,,,,,,,,,,,,,W,132,circle,1,0,,,,,,,,,,,,,,,,repeat,letter,lettRpt,f,Hi,,,,,,0.4871,2,,,,,,,,low,28,0,28,0,1,,,,,,,,,
297940,2022-12-03_20h23.07.845,vts_reward_expectancy_bt,2022.2.4,MacIntel,59.93407252,Chrome,1920,1080,,,,,1,916,,,,,,,,,,,,,,,,,Y,181,hexagon,1,0,,,,,,,,,,,,,,,,repeat,letter,lettRpt,f,Lo,,,,,,0.5162,2,,,,,,,,low,29,0,29,0,1,,,,,,,,,
297940,2022-12-03_20h23.07.845,vts_reward_expectancy_bt,2022.2.4,MacIntel,59.93407252,Chrome,1920,1080,,,,,1,917,,,,,,,,,,,,,,,,,H,160,star,1,0,,,,,,,,,,,,,,,,repeat,letter,lettRpt,d,Hi,,,,,,0.484,2,,,,,,,,low,30,0,30,0,1,,,,,,,,,
297940,2022-12-03_20h23.07.845,vts_reward_expectancy_bt,2022.2.4,MacIntel,59.93407252,Chrome,1920,1080,,,,,1,918,,,,,,,,,,,,,,,,,B,167,triangle,1,0,,,,,,,,,,,,,,,,repeat,letter,lettRpt,d,Lo,,,,,,0.55,2,,,,,,,,low,31,0,31,0,1,,,,,,,,,
297940,2022-12-03_20h23.07.845,vts_reward_expectancy_bt,2022.2.4,MacIntel,59.93407252,Chrome,1920,1080,,,,,1,919,,,,,,,,,,,,,,,,,H,139,triangle,1,0,,,,,,,,,,,,,,,,repeat,letter,lettRpt,d,Lo,,,,,,0.7307,3,,,,,,space,4.3285,low,0,0,0,0,1,,,,,,,,,
297940,2022-12-03_20h23.07.845,vts_reward_expectancy_bt,2022.2.4,MacIntel,59.93407252,Chrome,1920,1080,,,,,1,920,,,,,,,,,,,,,,,,,Y,125,hexagon,1,0,,,,,,,,,,,,,,,,repeat,letter,lettRpt,f,Lo,,,,,,0.6686,3,,,,,,,,low,1,0,1,0,1,,,,,,,,,
297940,2022-12-03_20h23.07.845,vts_reward_expectancy_bt,2022.2.4,MacIntel,59.93407252,Chrome,1920,1080,,,,,10,930,,,,,,,,,,,,,,,,,D,132,circle,1,0,,,,,,,,,,,,,,,,repeat,letter,lettRpt,d,Hi,,,,,,0.4836,3,,,,,,,,low,2,0,2,0,1,,,,,,,,,
297940,2022-12-03_20h23.07.845,vts_reward_expectancy_bt,2022.2.4,MacIntel,59.93407252,Chrome,1920,1080,,,,,0,930,,,,,,,,,,,,,,,,,W,167,star,1,0,,,,,,,,,,,,,,,,repeat,letter,lettRpt,f,Hi,,,,,,0.5318,3,,,,,,,,low,3,0,3,0,1,,,,,,,,,
297940,2022-12-03_20h23.07.845,vts_reward_expectancy_bt,2022.2.4,MacIntel,59.93407252,Chrome,1920,1080,,,,,1,931,,,,,,,,,,,,,,,,,B,174,triangle,1,0,,,,,,,,,,,,,,,,repeat,letter,lettRpt,d,Lo,,,,,,0.4811,3,,,,,,,,low,4,0,4,0,1,,,,,,,,,
297940,2022-12-03_20h23.07.845,vts_reward_expectancy_bt,2022.2.4,MacIntel,59.93407252,Chrome,1920,1080,,,,,1,932,,,,,,,,,,,,,,,,,U,181,hexagon,1,0,,,,,,,,,,,,,,,,repeat,letter,lettRpt,f,Lo,,,,,,0.5675,3,,,,,,,,low,5,0,5,0,1,,,,,,,,,
297940,2022-12-03_20h23.07.845,vts_reward_expectancy_bt,2022.2.4,MacIntel,59.93407252,Chrome,1920,1080,,,,,0,932,,,,,,,,,,,,,,,,,F,146,circle,1,0,,,,,,,,,,,,,,,,repeat,letter,lettRpt,d,Hi,,,,,,0.583,3,,,,,,,,low,6,0,6,0,1,,,,,,,,,
297940,2022-12-03_20h23.07.845,vts_reward_expectancy_bt,2022.2.4,MacIntel,59.93407252,Chrome,1920,1080,,,,,0,932,,,,,,,,,,,,,,,,,S,160,star,0,0,,,,,,,,,,,,,,,,repeat,letter,NA,d,Hi,,,,,,0.7174,3,,,,,,,,low,7,0,7,0,1,,,,,,,,,
297940,2022-12-03_20h23.07.845,vts_reward_expectancy_bt,2022.2.4,MacIntel,59.93407252,Chrome,1920,1080,,,,,0,932,,,,,,,,,,,,,,,,,H,139,star,1,1,,,,,,,,,,,,,,,,repeat,letter,lettRpt,d,Hi,,,,,,0.8516,3,,,,,,,,low,8,0,8,0,1,,,,,,,,,
297940,2022-12-03_20h23.07.845,vts_reward_expectancy_bt,2022.2.4,MacIntel,59.93407252,Chrome,1920,1080,,,,,1,933,,,,,,,,,,,,,,,,,Y,125,triangle,1,0,,,,,,,,,,,,,,,,repeat,letter,lettRpt,f,Lo,,,,,,1.1161,3,,,,,,,,low,9,0,9,0,1,,,,,,,,,
297940,2022-12-03_20h23.07.845,vts_reward_expectancy_bt,2022.2.4,MacIntel,59.93407252,Chrome,1920,1080,,,,,0,933,,,,,,,,,,,,,,,,,D,132,circle,1,0,,,,,,,,,,,,,,,,repeat,letter,lettRpt,d,Hi,,,,,,0.6005,3,,,,,,,,low,10,0,10,0,1,,,,,,,,,
297940,2022-12-03_20h23.07.845,vts_reward_expectancy_bt,2022.2.4,MacIntel,59.93407252,Chrome,1920,1080,,,,,10,943,,,,,,,,,,,,,,,,,W,167,hexagon,1,0,,,,,,,,,,,,,,,,repeat,letter,lettRpt,f,Lo,,,,,,0.5534,3,,,,,,,,low,11,0,11,0,1,,,,,,,,,
297940,2022-12-03_20h23.07.845,vts_reward_expectancy_bt,2022.2.4,MacIntel,59.93407252,Chrome,1920,1080,,,,,10,953,,,,,,,,,,,,,,,,,B,174,star,1,0,,,,,,,,,,,,,,,,repeat,letter,lettRpt,d,Hi,,,,,,0.5147,3,,,,,,,,low,12,0,12,0,1,,,,,,,,,
297940,2022-12-03_20h23.07.845,vts_reward_expectancy_bt,2022.2.4,MacIntel,59.93407252,Chrome,1920,1080,,,,,1,954,,,,,,,,,,,,,,,,,U,181,triangle,1,0,,,,,,,,,,,,,,,,repeat,letter,lettRpt,f,Lo,,,,,,0.5325,3,,,,,,,,low,13,0,13,0,1,,,,,,,,,
297940,2022-12-03_20h23.07.845,vts_reward_expectancy_bt,2022.2.4,MacIntel,59.93407252,Chrome,1920,1080,,,,,1,955,,,,,,,,,,,,,,,,,F,146,hexagon,1,0,,,,,,,,,,,,,,,,repeat,letter,lettRpt,d,Lo,,,,,,0.5207,3,,,,,,,,low,14,0,14,0,1,,,,,,,,,
297940,2022-12-03_20h23.07.845,vts_reward_expectancy_bt,2022.2.4,MacIntel,59.93407252,Chrome,1920,1080,,,,,0,955,,,,,,,,,,,,,,,,,S,160,circle,1,0,,,,,,,,,,,,,,,,repeat,letter,lettRpt,f,Hi,,,,,,0.6474,3,,,,,,,,low,15,0,15,0,1,,,,,,,,,
297940,2022-12-03_20h23.07.845,vts_reward_expectancy_bt,2022.2.4,MacIntel,59.93407252,Chrome,1920,1080,,,,,1,956,,,,,,,,,,,,,,,,,W,181,hexagon,1,0,,,,,,,,,,,,,,,,repeat,letter,lettRpt,f,Lo,,,,,,0.5834,3,,,,,,,,low,16,0,16,0,1,,,,,,,,,
297940,2022-12-03_20h23.07.845,vts_reward_expectancy_bt,2022.2.4,MacIntel,59.93407252,Chrome,1920,1080,,,,,0,956,,,,,,,,,,,,,,,,,Y,167,star,1,0,,,,,,,,,,,,,,,,repeat,letter,lettRpt,f,Hi,,,,,,0.721,3,,,,,,,,low,17,0,17,0,1,,,,,,,,,
297940,2022-12-03_20h23.07.845,vts_reward_expectancy_bt,2022.2.4,MacIntel,59.93407252,Chrome,1920,1080,,,,,1,957,,,,,,,,,,,,,,,,,S,146,triangle,1,0,,,,,,,,,,,,,,,,repeat,letter,lettRpt,f,Lo,,,,,,0.5335,3,,,,,,,,low,18,0,18,0,1,,,,,,,,,
297940,2022-12-03_20h23.07.845,vts_reward_expectancy_bt,2022.2.4,MacIntel,59.93407252,Chrome,1920,1080,,,,,0,957,,,,,,,,,,,,,,,,,B,174,circle,1,0,,,,,,,,,,,,,,,,repeat,letter,lettRpt,d,Hi,,,,,,0.6197,3,,,,,,,,low,19,0,19,0,1,,,,,,,,,
297940,2022-12-03_20h23.07.845,vts_reward_expectancy_bt,2022.2.4,MacIntel,59.93407252,Chrome,1920,1080,,,,,0,957,,,,,,,,,,,,,,,,,U,125,circle,1,0,,,,,,,,,,,,,,,,repeat,letter,lettRpt,f,Hi,,,,,,0.5496,3,,,,,,,,low,20,0,20,0,1,,,,,,,,,
297940,2022-12-03_20h23.07.845,vts_reward_expectancy_bt,2022.2.4,MacIntel,59.93407252,Chrome,1920,1080,,,,,1,958,,,,,,,,,,,,,,,,,D,139,hexagon,1,0,,,,,,,,,,,,,,,,repeat,letter,lettRpt,d,Lo,,,,,,0.6179,3,,,,,,,,low,21,0,21,0,1,,,,,,,,,
297940,2022-12-03_20h23.07.845,vts_reward_expectancy_bt,2022.2.4,MacIntel,59.93407252,Chrome,1920,1080,,,,,0,958,,,,,,,,,,,,,,,,,H,132,triangle,0,0,,,,,,,,,,,,,,,,repeat,letter,NA,f,Lo,,,,,,0.6032,3,,,,,,,,low,22,0,22,0,1,,,,,,,,,
297940,2022-12-03_20h23.07.845,vts_reward_expectancy_bt,2022.2.4,MacIntel,59.93407252,Chrome,1920,1080,,,,,0,958,,,,,,,,,,,,,,,,,F,160,star,1,1,,,,,,,,,,,,,,,,repeat,letter,lettRpt,d,Hi,,,,,,0.6001,3,,,,,,,,low,23,0,23,0,1,,,,,,,,,
297940,2022-12-03_20h23.07.845,vts_reward_expectancy_bt,2022.2.4,MacIntel,59.93407252,Chrome,1920,1080,,,,,0,958,,,,,,,,,,,,,,,,,W,125,star,1,0,,,,,,,,,,,,,,,,repeat,letter,lettRpt,f,Hi,,,,,,0.5521,3,,,,,,,,low,24,0,24,0,1,,,,,,,,,
297940,2022-12-03_20h23.07.845,vts_reward_expectancy_bt,2022.2.4,MacIntel,59.93407252,Chrome,1920,1080,,,,,10,968,,,,,,,,,,,,,,,,,B,181,circle,1,0,,,,,,,,,,,,,,,,repeat,letter,lettRpt,d,Hi,,,,,,0.4824,3,,,,,,,,low,25,0,25,0,1,,,,,,,,,
297940,2022-12-03_20h23.07.845,vts_reward_expectancy_bt,2022.2.4,MacIntel,59.93407252,Chrome,1920,1080,,,,,10,978,,,,,,,,,,,,,,,,,S,167,hexagon,1,0,,,,,,,,,,,,,,,,repeat,letter,lettRpt,f,Lo,,,,,,0.667,3,,,,,,,,low,26,0,26,0,1,,,,,,,,,
297940,2022-12-03_20h23.07.845,vts_reward_expectancy_bt,2022.2.4,MacIntel,59.93407252,Chrome,1920,1080,,,,,1,979,,,,,,,,,,,,,,,,,H,174,triangle,1,0,,,,,,,,,,,,,,,,repeat,letter,lettRpt,d,Lo,,,,,,0.6997,3,,,,,,,,low,27,0,27,0,1,,,,,,,,,
297940,2022-12-03_20h23.07.845,vts_reward_expectancy_bt,2022.2.4,MacIntel,59.93407252,Chrome,1920,1080,,,,,1,980,,,,,,,,,,,,,,,,,Y,139,circle,1,0,,,,,,,,,,,,,,,,repeat,letter,lettRpt,f,Hi,,,,,,0.5052,3,,,,,,,,low,28,0,28,0,1,,,,,,,,,
297940,2022-12-03_20h23.07.845,vts_reward_expectancy_bt,2022.2.4,MacIntel,59.93407252,Chrome,1920,1080,,,,,10,990,,,,,,,,,,,,,,,,,D,160,triangle,1,0,,,,,,,,,,,,,,,,repeat,letter,lettRpt,d,Lo,,,,,,0.5325,3,,,,,,,,low,29,0,29,0,1,,,,,,,,,
297940,2022-12-03_20h23.07.845,vts_reward_expectancy_bt,2022.2.4,MacIntel,59.93407252,Chrome,1920,1080,,,,,0,990,,,,,,,,,,,,,,,,,F,146,star,1,0,,,,,,,,,,,,,,,,repeat,letter,lettRpt,d,Hi,,,,,,0.7646,3,,,,,,,,low,30,0,30,0,1,,,,,,,,,
297940,2022-12-03_20h23.07.845,vts_reward_expectancy_bt,2022.2.4,MacIntel,59.93407252,Chrome,1920,1080,,,,,10,1000,,,,,,,,,,,,,,,,,U,132,hexagon,1,0,,,,,,,,,,,,,,,,repeat,letter,lettRpt,f,Lo,,,,,,0.5322,3,,,,,,,,low,31,0,31,0,1,,,,,,,,,
297940,2022-12-03_20h23.07.845,vts_reward_expectancy_bt,2022.2.4,MacIntel,59.93407252,Chrome,1920,1080,,,,,0,1000,,,,,,,,,,,,,,,,,W,139,star,1,0,,,,,,,,,,,,,,,,repeat,letter,lettRpt,f,Hi,,,,,,0.8497,4,,,,,,space,1.475,low,0,0,0,0,1,,,,,,,,,
297940,2022-12-03_20h23.07.845,vts_reward_expectancy_bt,2022.2.4,MacIntel,59.93407252,Chrome,1920,1080,,,,,1,1001,,,,,,,,,,,,,,,,,U,181,triangle,1,0,,,,,,,,,,,,,,,,repeat,letter,lettRpt,f,Lo,,,,,,0.4525,4,,,,,,,,low,1,0,1,0,1,,,,,,,,,
