participant,date,expName,psychopyVersion,OS,frameRate,browser,xResolution,yResolution,key_resp.keys,key_resp.rt,training_resp.keys,training_resp.rt,points_trial,points_cumul,trainBlock,training.thisRepN,training.thisTrialN,training.thisN,training.thisIndex,training.ran,LTriangleOpac,LCircleOpac,LHexagonOpac,LStarOpac,RTriangleOpac,RCircleOpac,RHexagonOpac,RStarOpac,LShape_ID,RShape_ID,curr_topStim,curr_bottStim,curr_shape,acc,E1,target_resp_prac1.keys,pracBlock,task1_prac_trials.thisRepN,task1_prac_trials.thisTrialN,task1_prac_trials.thisN,task1_prac_trials.thisIndex,task1_prac_trials.ran,target_resp_prac1.rt,target_resp_prac2.keys,target_resp_prac2.rt,task2_praac_trials.thisRepN,task2_praac_trials.thisTrialN,task2_praac_trials.thisN,task2_praac_trials.thisIndex,task2_praac_trials.ran,alt,task,condition,target_resp.keys,target_resp.rt,rewCond,vts_practice_trials.thisRepN,vts_practice_trials.thisTrialN,vts_practice_trials.thisN,vts_practice_trials.thisIndex,vts_practice_trials.ran,blockNum,trials_norew.thisRepN,trials_norew.thisTrialN,trials_norew.thisN,trials_norew.thisIndex,trials_norew.ran,key_resp_2.keys,key_resp_2.rt,rewExpectancy,trials_rew.thisRepN,trials_rew.thisTrialN,trials_rew.thisN,trials_rew.thisIndex,trials_rew.ran,Q1,Q2,Q2_text,Q3,Q4,Q5,Q5_text,xRes,yRes
298024,2022-11-25_19h52.13.144,vts_reward_expectancy_bt,2022.2.4,MacIntel,59.84082341,Chrome,1440,900,,,,,,,,,,,,,,,,,,,,,,,,,,,,,,,,,,,,,,,,,,,,,,,,,,,,,,,,,,,,,,,,,,,,,,,,,,,,
298024,2022-11-25_19h52.13.144,vts_reward_expectancy_bt,2022.2.4,MacIntel,59.84082341,Chrome,1440,900,space,12.2176,,,,,,,,,,,,,,,,,,,,,,,,,,,,,,,,,,,,,,,,,,,,,,,,,,,,,,,,,,,,,,,,,,,,,,,,,,
298024,2022-11-25_19h52.13.144,vts_reward_expectancy_bt,2022.2.4,MacIntel,59.84082341,Chrome,1440,900,,,,,,,,,,,,,,,,,,,,,,,,,,,,,,,,,,,,,,,,,,,,,,,,,,,,,,,,,,,,,,,,,,,,,,,,,,,,
298024,2022-11-25_19h52.13.144,vts_reward_expectancy_bt,2022.2.4,MacIntel,59.84082341,Chrome,1440,900,,,a,1.4443,1,1,0,0,0,0,1,1,1,0,0,0,0,0,1,0,triangle,hexagon,,,,,,,,,,,,,,,,,,,,,,,,,,,,,,,,,,,,,,,,,,,,,,,,,,,,,,
298024,2022-11-25_19h52.13.144,vts_reward_expectancy_bt,2022.2.4,MacIntel,59.84082341,Chrome,1440,900,,,a,1.752,10,11,0,0,1,1,7,1,0,0,1,0,0,1,0,0,hexagon,circle,,,,,,,,,,,,,,,,,,,,,,,,,,,,,,,,,,,,,,,,,,,,,,,,,,,,,,
298024,2022-11-25_19h52.13.144,vts_reward_expectancy_bt,2022.2.4,MacIntel,59.84082341,Chrome,1440,900,,,a,1.4284,10,21,0,0,2,2,4,1,0,1,0,0,0,0,1,0,circle,hexagon,,,,,,,,,,,,,,,,,,,,,,,,,,,,,,,,,,,,,,,,,,,,,,,,,,,,,,
298024,2022-11-25_19h52.13.144,vts_reward_expectancy_bt,2022.2.4,MacIntel,59.84082341,Chrome,1440,900,,,l,1.3703,1,22,0,0,3,3,2,1,1,0,0,0,0,0,0,1,triangle,star,,,,,,,,,,,,,,,,,,,,,,,,,,,,,,,,,,,,,,,,,,,,,,,,,,,,,,
298024,2022-11-25_19h52.13.144,vts_reward_expectancy_bt,2022.2.4,MacIntel,59.84082341,Chrome,1440,900,,,l,1.0521,10,32,0,0,4,4,11,1,0,0,0,1,0,0,1,0,star,hexagon,,,,,,,,,,,,,,,,,,,,,,,,,,,,,,,,,,,,,,,,,,,,,,,,,,,,,,
298024,2022-11-25_19h52.13.144,vts_reward_expectancy_bt,2022.2.4,MacIntel,59.84082341,Chrome,1440,900,,,a,0.8223,1,33,0,0,5,5,6,1,0,0,1,0,1,0,0,0,hexagon,triangle,,,,,,,,,,,,,,,,,,,,,,,,,,,,,,,,,,,,,,,,,,,,,,,,,,,,,,
298024,2022-11-25_19h52.13.144,vts_reward_expectancy_bt,2022.2.4,MacIntel,59.84082341,Chrome,1440,900,,,l,0.6101,10,43,0,0,6,6,10,1,0,0,0,1,0,1,0,0,star ,circle,,,,,,,,,,,,,,,,,,,,,,,,,,,,,,,,,,,,,,,,,,,,,,,,,,,,,,
298024,2022-11-25_19h52.13.144,vts_reward_expectancy_bt,2022.2.4,MacIntel,59.84082341,Chrome,1440,900,,,a,0.5515,1,44,0,0,7,7,3,1,0,1,0,0,1,0,0,0,circle,triangle,,,,,,,,,,,,,,,,,,,,,,,,,,,,,,,,,,,,,,,,,,,,,,,,,,,,,,
298024,2022-11-25_19h52.13.144,vts_reward_expectancy_bt,2022.2.4,MacIntel,59.84082341,Chrome,1440,900,,,l,7.7937,10,54,0,0,8,8,9,1,0,0,0,1,1,0,0,0,star,triangle,,,,,,,,,,,,,,,,,,,,,,,,,,,,,,,,,,,,,,,,,,,,,,,,,,,,,,
298024,2022-11-25_19h52.13.144,vts_reward_expectancy_bt,2022.2.4,MacIntel,59.84082341,Chrome,1440,900,,,l,0.8179,10,64,0,0,9,9,0,1,1,0,0,0,0,1,0,0,triangle,circle,,,,,,,,,,,,,,,,,,,,,,,,,,,,,,,,,,,,,,,,,,,,,,,,,,,,,,
298024,2022-11-25_19h52.13.144,vts_reward_expectancy_bt,2022.2.4,MacIntel,59.84082341,Chrome,1440,900,,,l,0.7158,1,65,0,0,10,10,5,1,0,1,0,0,0,0,0,1,circle,star,,,,,,,,,,,,,,,,,,,,,,,,,,,,,,,,,,,,,,,,,,,,,,,,,,,,,,
298024,2022-11-25_19h52.13.144,vts_reward_expectancy_bt,2022.2.4,MacIntel,59.84082341,Chrome,1440,900,,,a,1.7771,10,75,0,0,11,11,8,1,0,0,1,0,0,0,0,1,hexagon,star,,,,,,,,,,,,,,,,,,,,,,,,,,,,,,,,,,,,,,,,,,,,,,,,,,,,,,
298024,2022-11-25_19h52.13.144,vts_reward_expectancy_bt,2022.2.4,MacIntel,59.84082341,Chrome,1440,900,,,l,0.444,1,76,0,1,0,12,10,1,0,0,0,1,0,1,0,0,star ,circle,,,,,,,,,,,,,,,,,,,,,,,,,,,,,,,,,,,,,,,,,,,,,,,,,,,,,,
298024,2022-11-25_19h52.13.144,vts_reward_expectancy_bt,2022.2.4,MacIntel,59.84082341,Chrome,1440,900,,,l,0.4834,10,86,0,1,1,13,1,1,1,0,0,0,0,0,1,0,triangle,hexagon,,,,,,,,,,,,,,,,,,,,,,,,,,,,,,,,,,,,,,,,,,,,,,,,,,,,,,
298024,2022-11-25_19h52.13.144,vts_reward_expectancy_bt,2022.2.4,MacIntel,59.84082341,Chrome,1440,900,,,a,0.6577,1,87,0,1,2,14,7,1,0,0,1,0,0,1,0,0,hexagon,circle,,,,,,,,,,,,,,,,,,,,,,,,,,,,,,,,,,,,,,,,,,,,,,,,,,,,,,
298024,2022-11-25_19h52.13.144,vts_reward_expectancy_bt,2022.2.4,MacIntel,59.84082341,Chrome,1440,900,,,a,0.4812,10,97,0,1,3,15,5,1,0,1,0,0,0,0,0,1,circle,star,,,,,,,,,,,,,,,,,,,,,,,,,,,,,,,,,,,,,,,,,,,,,,,,,,,,,,
298024,2022-11-25_19h52.13.144,vts_reward_expectancy_bt,2022.2.4,MacIntel,59.84082341,Chrome,1440,900,,,a,1.0341,10,107,0,1,4,16,4,1,0,1,0,0,0,0,1,0,circle,hexagon,,,,,,,,,,,,,,,,,,,,,,,,,,,,,,,,,,,,,,,,,,,,,,,,,,,,,,
298024,2022-11-25_19h52.13.144,vts_reward_expectancy_bt,2022.2.4,MacIntel,59.84082341,Chrome,1440,900,,,a,1.2103,1,108,0,1,5,17,3,1,0,1,0,0,1,0,0,0,circle,triangle,,,,,,,,,,,,,,,,,,,,,,,,,,,,,,,,,,,,,,,,,,,,,,,,,,,,,,
298024,2022-11-25_19h52.13.144,vts_reward_expectancy_bt,2022.2.4,MacIntel,59.84082341,Chrome,1440,900,,,l,0.641,1,109,0,1,6,18,9,1,0,0,0,1,1,0,0,0,star,triangle,,,,,,,,,,,,,,,,,,,,,,,,,,,,,,,,,,,,,,,,,,,,,,,,,,,,,,
298024,2022-11-25_19h52.13.144,vts_reward_expectancy_bt,2022.2.4,MacIntel,59.84082341,Chrome,1440,900,,,a,0.3477,1,110,0,1,7,19,2,1,1,0,0,0,0,0,0,1,triangle,star,,,,,,,,,,,,,,,,,,,,,,,,,,,,,,,,,,,,,,,,,,,,,,,,,,,,,,
298024,2022-11-25_19h52.13.144,vts_reward_expectancy_bt,2022.2.4,MacIntel,59.84082341,Chrome,1440,900,,,a,0.3489,1,111,0,1,8,20,0,1,1,0,0,0,0,1,0,0,triangle,circle,,,,,,,,,,,,,,,,,,,,,,,,,,,,,,,,,,,,,,,,,,,,,,,,,,,,,,
298024,2022-11-25_19h52.13.144,vts_reward_expectancy_bt,2022.2.4,MacIntel,59.84082341,Chrome,1440,900,,,a,0.2672,1,112,0,1,9,21,11,1,0,0,0,1,0,0,1,0,star,hexagon,,,,,,,,,,,,,,,,,,,,,,,,,,,,,,,,,,,,,,,,,,,,,,,,,,,,,,
298024,2022-11-25_19h52.13.144,vts_reward_expectancy_bt,2022.2.4,MacIntel,59.84082341,Chrome,1440,900,,,l,0.2677,1,113,0,1,10,22,8,1,0,0,1,0,0,0,0,1,hexagon,star,,,,,,,,,,,,,,,,,,,,,,,,,,,,,,,,,,,,,,,,,,,,,,,,,,,,,,
298024,2022-11-25_19h52.13.144,vts_reward_expectancy_bt,2022.2.4,MacIntel,59.84082341,Chrome,1440,900,,,a,0.4884,10,123,0,1,11,23,6,1,0,0,1,0,1,0,0,0,hexagon,triangle,,,,,,,,,,,,,,,,,,,,,,,,,,,,,,,,,,,,,,,,,,,,,,,,,,,,,,
298024,2022-11-25_19h52.13.144,vts_reward_expectancy_bt,2022.2.4,MacIntel,59.84082341,Chrome,1440,900,,,a,2.2985,1,124,0,2,0,24,3,1,0,1,0,0,1,0,0,0,circle,triangle,,,,,,,,,,,,,,,,,,,,,,,,,,,,,,,,,,,,,,,,,,,,,,,,,,,,,,
298024,2022-11-25_19h52.13.144,vts_reward_expectancy_bt,2022.2.4,MacIntel,59.84082341,Chrome,1440,900,,,l,0.8999,1,125,0,2,1,25,7,1,0,0,1,0,0,1,0,0,hexagon,circle,,,,,,,,,,,,,,,,,,,,,,,,,,,,,,,,,,,,,,,,,,,,,,,,,,,,,,
298024,2022-11-25_19h52.13.144,vts_reward_expectancy_bt,2022.2.4,MacIntel,59.84082341,Chrome,1440,900,,,l,1.1947,1,126,0,2,2,26,2,1,1,0,0,0,0,0,0,1,triangle,star,,,,,,,,,,,,,,,,,,,,,,,,,,,,,,,,,,,,,,,,,,,,,,,,,,,,,,
298024,2022-11-25_19h52.13.144,vts_reward_expectancy_bt,2022.2.4,MacIntel,59.84082341,Chrome,1440,900,,,a,0.438,1,127,0,2,3,27,4,1,0,1,0,0,0,0,1,0,circle,hexagon,,,,,,,,,,,,,,,,,,,,,,,,,,,,,,,,,,,,,,,,,,,,,,,,,,,,,,
298024,2022-11-25_19h52.13.144,vts_reward_expectancy_bt,2022.2.4,MacIntel,59.84082341,Chrome,1440,900,,,l,0.0543,10,137,0,2,4,28,9,1,0,0,0,1,1,0,0,0,star,triangle,,,,,,,,,,,,,,,,,,,,,,,,,,,,,,,,,,,,,,,,,,,,,,,,,,,,,,
298024,2022-11-25_19h52.13.144,vts_reward_expectancy_bt,2022.2.4,MacIntel,59.84082341,Chrome,1440,900,,,l,0.2178,10,147,0,2,5,29,11,1,0,0,0,1,0,0,1,0,star,hexagon,,,,,,,,,,,,,,,,,,,,,,,,,,,,,,,,,,,,,,,,,,,,,,,,,,,,,,
298024,2022-11-25_19h52.13.144,vts_reward_expectancy_bt,2022.2.4,MacIntel,59.84082341,Chrome,1440,900,,,l,0.3333,1,148,0,2,6,30,8,1,0,0,1,0,0,0,0,1,hexagon,star,,,,,,,,,,,,,,,,,,,,,,,,,,,,,,,,,,,,,,,,,,,,,,,,,,,,,,
298024,2022-11-25_19h52.13.144,vts_reward_expectancy_bt,2022.2.4,MacIntel,59.84082341,Chrome,1440,900,,,l,0.3192,1,149,0,2,7,31,5,1,0,1,0,0,0,0,0,1,circle,star,,,,,,,,,,,,,,,,,,,,,,,,,,,,,,,,,,,,,,,,,,,,,,,,,,,,,,
298024,2022-11-25_19h52.13.144,vts_reward_expectancy_bt,2022.2.4,MacIntel,59.84082341,Chrome,1440,900,,,l,0.3338,10,159,0,2,8,32,10,1,0,0,0,1,0,1,0,0,star ,circle,,,,,,,,,,,,,,,,,,,,,,,,,,,,,,,,,,,,,,,,,,,,,,,,,,,,,,
298024,2022-11-25_19h52.13.144,vts_reward_expectancy_bt,2022.2.4,MacIntel,59.84082341,Chrome,1440,900,,,l,0.6688,10,169,0,2,9,33,1,1,1,0,0,0,0,0,1,0,triangle,hexagon,,,,,,,,,,,,,,,,,,,,,,,,,,,,,,,,,,,,,,,,,,,,,,,,,,,,,,
298024,2022-11-25_19h52.13.144,vts_reward_expectancy_bt,2022.2.4,MacIntel,59.84082341,Chrome,1440,900,,,l,0.7041,1,170,0,2,10,34,6,1,0,0,1,0,1,0,0,0,hexagon,triangle,,,,,,,,,,,,,,,,,,,,,,,,,,,,,,,,,,,,,,,,,,,,,,,,,,,,,,
298024,2022-11-25_19h52.13.144,vts_reward_expectancy_bt,2022.2.4,MacIntel,59.84082341,Chrome,1440,900,,,l,1.9407,1,171,0,2,11,35,0,1,1,0,0,0,0,1,0,0,triangle,circle,,,,,,,,,,,,,,,,,,,,,,,,,,,,,,,,,,,,,,,,,,,,,,,,,,,,,,
298024,2022-11-25_19h52.13.144,vts_reward_expectancy_bt,2022.2.4,MacIntel,59.84082341,Chrome,1440,900,,,l,0.6409,10,181,1,0,0,0,11,1,0,0,0,1,0,0,1,0,star,hexagon,,,,,,,,,,,,,,,,,,,,,,,,,,,,,,,,,,,,,,,,,,,,,,,,,,,,,,
298024,2022-11-25_19h52.13.144,vts_reward_expectancy_bt,2022.2.4,MacIntel,59.84082341,Chrome,1440,900,,,a,0.5997,1,182,1,0,1,1,4,1,0,1,0,0,0,0,1,0,circle,hexagon,,,,,,,,,,,,,,,,,,,,,,,,,,,,,,,,,,,,,,,,,,,,,,,,,,,,,,
298024,2022-11-25_19h52.13.144,vts_reward_expectancy_bt,2022.2.4,MacIntel,59.84082341,Chrome,1440,900,,,l,0.6425,10,192,1,0,2,2,7,1,0,0,1,0,0,1,0,0,hexagon,circle,,,,,,,,,,,,,,,,,,,,,,,,,,,,,,,,,,,,,,,,,,,,,,,,,,,,,,
298024,2022-11-25_19h52.13.144,vts_reward_expectancy_bt,2022.2.4,MacIntel,59.84082341,Chrome,1440,900,,,a,0.6517,10,202,1,0,3,3,5,1,0,1,0,0,0,0,0,1,circle,star,,,,,,,,,,,,,,,,,,,,,,,,,,,,,,,,,,,,,,,,,,,,,,,,,,,,,,
298024,2022-11-25_19h52.13.144,vts_reward_expectancy_bt,2022.2.4,MacIntel,59.84082341,Chrome,1440,900,,,a,0.9081,10,212,1,0,4,4,0,1,1,0,0,0,0,1,0,0,triangle,circle,,,,,,,,,,,,,,,,,,,,,,,,,,,,,,,,,,,,,,,,,,,,,,,,,,,,,,
298024,2022-11-25_19h52.13.144,vts_reward_expectancy_bt,2022.2.4,MacIntel,59.84082341,Chrome,1440,900,,,l,0.6194,10,222,1,0,5,5,8,1,0,0,1,0,0,0,0,1,hexagon,star,,,,,,,,,,,,,,,,,,,,,,,,,,,,,,,,,,,,,,,,,,,,,,,,,,,,,,
298024,2022-11-25_19h52.13.144,vts_reward_expectancy_bt,2022.2.4,MacIntel,59.84082341,Chrome,1440,900,,,l,0.778,1,223,1,0,6,6,3,1,0,1,0,0,1,0,0,0,circle,triangle,,,,,,,,,,,,,,,,,,,,,,,,,,,,,,,,,,,,,,,,,,,,,,,,,,,,,,
298024,2022-11-25_19h52.13.144,vts_reward_expectancy_bt,2022.2.4,MacIntel,59.84082341,Chrome,1440,900,,,l,0.6178,1,224,1,0,7,7,2,1,1,0,0,0,0,0,0,1,triangle,star,,,,,,,,,,,,,,,,,,,,,,,,,,,,,,,,,,,,,,,,,,,,,,,,,,,,,,
298024,2022-11-25_19h52.13.144,vts_reward_expectancy_bt,2022.2.4,MacIntel,59.84082341,Chrome,1440,900,,,l,0.9112,1,225,1,0,8,8,6,1,0,0,1,0,1,0,0,0,hexagon,triangle,,,,,,,,,,,,,,,,,,,,,,,,,,,,,,,,,,,,,,,,,,,,,,,,,,,,,,
298024,2022-11-25_19h52.13.144,vts_reward_expectancy_bt,2022.2.4,MacIntel,59.84082341,Chrome,1440,900,,,l,0.4736,10,235,1,0,9,9,10,1,0,0,0,1,0,1,0,0,star ,circle,,,,,,,,,,,,,,,,,,,,,,,,,,,,,,,,,,,,,,,,,,,,,,,,,,,,,,
298024,2022-11-25_19h52.13.144,vts_reward_expectancy_bt,2022.2.4,MacIntel,59.84082341,Chrome,1440,900,,,a,1.8559,10,245,1,0,10,10,1,1,1,0,0,0,0,0,1,0,triangle,hexagon,,,,,,,,,,,,,,,,,,,,,,,,,,,,,,,,,,,,,,,,,,,,,,,,,,,,,,
298024,2022-11-25_19h52.13.144,vts_reward_expectancy_bt,2022.2.4,MacIntel,59.84082341,Chrome,1440,900,,,l,0.444,10,255,1,0,11,11,9,1,0,0,0,1,1,0,0,0,star,triangle,,,,,,,,,,,,,,,,,,,,,,,,,,,,,,,,,,,,,,,,,,,,,,,,,,,,,,
298024,2022-11-25_19h52.13.144,vts_reward_expectancy_bt,2022.2.4,MacIntel,59.84082341,Chrome,1440,900,,,l,0.5198,10,265,1,1,0,12,1,1,1,0,0,0,0,0,1,0,triangle,hexagon,,,,,,,,,,,,,,,,,,,,,,,,,,,,,,,,,,,,,,,,,,,,,,,,,,,,,,
298024,2022-11-25_19h52.13.144,vts_reward_expectancy_bt,2022.2.4,MacIntel,59.84082341,Chrome,1440,900,,,a,1.3919,1,266,1,1,1,13,9,1,0,0,0,1,1,0,0,0,star,triangle,,,,,,,,,,,,,,,,,,,,,,,,,,,,,,,,,,,,,,,,,,,,,,,,,,,,,,
298024,2022-11-25_19h52.13.144,vts_reward_expectancy_bt,2022.2.4,MacIntel,59.84082341,Chrome,1440,900,,,l,0.4304,10,276,1,1,2,14,7,1,0,0,1,0,0,1,0,0,hexagon,circle,,,,,,,,,,,,,,,,,,,,,,,,,,,,,,,,,,,,,,,,,,,,,,,,,,,,,,
298024,2022-11-25_19h52.13.144,vts_reward_expectancy_bt,2022.2.4,MacIntel,59.84082341,Chrome,1440,900,,,l,0.4945,10,286,1,1,3,15,6,1,0,0,1,0,1,0,0,0,hexagon,triangle,,,,,,,,,,,,,,,,,,,,,,,,,,,,,,,,,,,,,,,,,,,,,,,,,,,,,,
298024,2022-11-25_19h52.13.144,vts_reward_expectancy_bt,2022.2.4,MacIntel,59.84082341,Chrome,1440,900,,,l,0.8825,1,287,1,1,4,16,8,1,0,0,1,0,0,0,0,1,hexagon,star,,,,,,,,,,,,,,,,,,,,,,,,,,,,,,,,,,,,,,,,,,,,,,,,,,,,,,
298024,2022-11-25_19h52.13.144,vts_reward_expectancy_bt,2022.2.4,MacIntel,59.84082341,Chrome,1440,900,,,l,0.4056,1,288,1,1,5,17,2,1,1,0,0,0,0,0,0,1,triangle,star,,,,,,,,,,,,,,,,,,,,,,,,,,,,,,,,,,,,,,,,,,,,,,,,,,,,,,
298024,2022-11-25_19h52.13.144,vts_reward_expectancy_bt,2022.2.4,MacIntel,59.84082341,Chrome,1440,900,,,a,0.2991,1,289,1,1,6,18,3,1,0,1,0,0,1,0,0,0,circle,triangle,,,,,,,,,,,,,,,,,,,,,,,,,,,,,,,,,,,,,,,,,,,,,,,,,,,,,,
298024,2022-11-25_19h52.13.144,vts_reward_expectancy_bt,2022.2.4,MacIntel,59.84082341,Chrome,1440,900,,,l,0.3004,1,290,1,1,7,19,5,1,0,1,0,0,0,0,0,1,circle,star,,,,,,,,,,,,,,,,,,,,,,,,,,,,,,,,,,,,,,,,,,,,,,,,,,,,,,
298024,2022-11-25_19h52.13.144,vts_reward_expectancy_bt,2022.2.4,MacIntel,59.84082341,Chrome,1440,900,,,l,0.465,10,300,1,1,8,20,0,1,1,0,0,0,0,1,0,0,triangle,circle,,,,,,,,,,,,,,,,,,,,,,,,,,,,,,,,,,,,,,,,,,,,,,,,,,,,,,
298024,2022-11-25_19h52.13.144,vts_reward_expectancy_bt,2022.2.4,MacIntel,59.84082341,Chrome,1440,900,,,a,0.8593,10,310,1,1,9,21,10,1,0,0,0,1,0,1,0,0,star ,circle,,,,,,,,,,,,,,,,,,,,,,,,,,,,,,,,,,,,,,,,,,,,,,,,,,,,,,
298024,2022-11-25_19h52.13.144,vts_reward_expectancy_bt,2022.2.4,MacIntel,59.84082341,Chrome,1440,900,,,l,0.9053,10,320,1,1,10,22,11,1,0,0,0,1,0,0,1,0,star,hexagon,,,,,,,,,,,,,,,,,,,,,,,,,,,,,,,,,,,,,,,,,,,,,,,,,,,,,,
298024,2022-11-25_19h52.13.144,vts_reward_expectancy_bt,2022.2.4,MacIntel,59.84082341,Chrome,1440,900,,,a,0.8688,10,330,1,1,11,23,4,1,0,1,0,0,0,0,1,0,circle,hexagon,,,,,,,,,,,,,,,,,,,,,,,,,,,,,,,,,,,,,,,,,,,,,,,,,,,,,,
298024,2022-11-25_19h52.13.144,vts_reward_expectancy_bt,2022.2.4,MacIntel,59.84082341,Chrome,1440,900,,,l,0.5181,1,331,1,2,0,24,1,1,1,0,0,0,0,0,1,0,triangle,hexagon,,,,,,,,,,,,,,,,,,,,,,,,,,,,,,,,,,,,,,,,,,,,,,,,,,,,,,
298024,2022-11-25_19h52.13.144,vts_reward_expectancy_bt,2022.2.4,MacIntel,59.84082341,Chrome,1440,900,,,l,0.4845,1,332,1,2,1,25,9,1,0,0,0,1,1,0,0,0,star,triangle,,,,,,,,,,,,,,,,,,,,,,,,,,,,,,,,,,,,,,,,,,,,,,,,,,,,,,
298024,2022-11-25_19h52.13.144,vts_reward_expectancy_bt,2022.2.4,MacIntel,59.84082341,Chrome,1440,900,,,l,0.4675,1,333,1,2,2,26,10,1,0,0,0,1,0,1,0,0,star ,circle,,,,,,,,,,,,,,,,,,,,,,,,,,,,,,,,,,,,,,,,,,,,,,,,,,,,,,
298024,2022-11-25_19h52.13.144,vts_reward_expectancy_bt,2022.2.4,MacIntel,59.84082341,Chrome,1440,900,,,l,0.6355,10,343,1,2,3,27,8,1,0,0,1,0,0,0,0,1,hexagon,star,,,,,,,,,,,,,,,,,,,,,,,,,,,,,,,,,,,,,,,,,,,,,,,,,,,,,,
298024,2022-11-25_19h52.13.144,vts_reward_expectancy_bt,2022.2.4,MacIntel,59.84082341,Chrome,1440,900,,,a,0.3993,1,344,1,2,4,28,5,1,0,1,0,0,0,0,0,1,circle,star,,,,,,,,,,,,,,,,,,,,,,,,,,,,,,,,,,,,,,,,,,,,,,,,,,,,,,
298024,2022-11-25_19h52.13.144,vts_reward_expectancy_bt,2022.2.4,MacIntel,59.84082341,Chrome,1440,900,,,a,0.5188,10,354,1,2,5,29,4,1,0,1,0,0,0,0,1,0,circle,hexagon,,,,,,,,,,,,,,,,,,,,,,,,,,,,,,,,,,,,,,,,,,,,,,,,,,,,,,
298024,2022-11-25_19h52.13.144,vts_reward_expectancy_bt,2022.2.4,MacIntel,59.84082341,Chrome,1440,900,,,a,0.7207,10,364,1,2,6,30,3,1,0,1,0,0,1,0,0,0,circle,triangle,,,,,,,,,,,,,,,,,,,,,,,,,,,,,,,,,,,,,,,,,,,,,,,,,,,,,,
298024,2022-11-25_19h52.13.144,vts_reward_expectancy_bt,2022.2.4,MacIntel,59.84082341,Chrome,1440,900,,,l,0.5194,10,374,1,2,7,31,7,1,0,0,1,0,0,1,0,0,hexagon,circle,,,,,,,,,,,,,,,,,,,,,,,,,,,,,,,,,,,,,,,,,,,,,,,,,,,,,,
298024,2022-11-25_19h52.13.144,vts_reward_expectancy_bt,2022.2.4,MacIntel,59.84082341,Chrome,1440,900,,,a,1.2366,10,384,1,2,8,32,11,1,0,0,0,1,0,0,1,0,star,hexagon,,,,,,,,,,,,,,,,,,,,,,,,,,,,,,,,,,,,,,,,,,,,,,,,,,,,,,
298024,2022-11-25_19h52.13.144,vts_reward_expectancy_bt,2022.2.4,MacIntel,59.84082341,Chrome,1440,900,,,l,1.2767,1,385,1,2,9,33,6,1,0,0,1,0,1,0,0,0,hexagon,triangle,,,,,,,,,,,,,,,,,,,,,,,,,,,,,,,,,,,,,,,,,,,,,,,,,,,,,,
298024,2022-11-25_19h52.13.144,vts_reward_expectancy_bt,2022.2.4,MacIntel,59.84082341,Chrome,1440,900,,,l,0.5164,1,386,1,2,10,34,2,1,1,0,0,0,0,0,0,1,triangle,star,,,,,,,,,,,,,,,,,,,,,,,,,,,,,,,,,,,,,,,,,,,,,,,,,,,,,,
298024,2022-11-25_19h52.13.144,vts_reward_expectancy_bt,2022.2.4,MacIntel,59.84082341,Chrome,1440,900,,,l,0.5683,1,387,1,2,11,35,0,1,1,0,0,0,0,1,0,0,triangle,circle,,,,,,,,,,,,,,,,,,,,,,,,,,,,,,,,,,,,,,,,,,,,,,,,,,,,,,
298024,2022-11-25_19h52.13.144,vts_reward_expectancy_bt,2022.2.4,MacIntel,59.84082341,Chrome,1440,900,,,a,0.6174,10,397,2,0,0,0,8,1,0,0,1,0,0,0,0,1,hexagon,star,,,,,,,,,,,,,,,,,,,,,,,,,,,,,,,,,,,,,,,,,,,,,,,,,,,,,,
298024,2022-11-25_19h52.13.144,vts_reward_expectancy_bt,2022.2.4,MacIntel,59.84082341,Chrome,1440,900,,,l,0.5075,1,398,2,0,1,1,7,1,0,0,1,0,0,1,0,0,hexagon,circle,,,,,,,,,,,,,,,,,,,,,,,,,,,,,,,,,,,,,,,,,,,,,,,,,,,,,,
298024,2022-11-25_19h52.13.144,vts_reward_expectancy_bt,2022.2.4,MacIntel,59.84082341,Chrome,1440,900,,,a,0.3992,1,399,2,0,2,2,2,1,1,0,0,0,0,0,0,1,triangle,star,,,,,,,,,,,,,,,,,,,,,,,,,,,,,,,,,,,,,,,,,,,,,,,,,,,,,,
298024,2022-11-25_19h52.13.144,vts_reward_expectancy_bt,2022.2.4,MacIntel,59.84082341,Chrome,1440,900,,,l,0.484,10,409,2,0,3,3,11,1,0,0,0,1,0,0,1,0,star,hexagon,,,,,,,,,,,,,,,,,,,,,,,,,,,,,,,,,,,,,,,,,,,,,,,,,,,,,,
298024,2022-11-25_19h52.13.144,vts_reward_expectancy_bt,2022.2.4,MacIntel,59.84082341,Chrome,1440,900,,,l,0.44,10,419,2,0,4,4,0,1,1,0,0,0,0,1,0,0,triangle,circle,,,,,,,,,,,,,,,,,,,,,,,,,,,,,,,,,,,,,,,,,,,,,,,,,,,,,,
298024,2022-11-25_19h52.13.144,vts_reward_expectancy_bt,2022.2.4,MacIntel,59.84082341,Chrome,1440,900,,,a,0.4516,10,429,2,0,5,5,3,1,0,1,0,0,1,0,0,0,circle,triangle,,,,,,,,,,,,,,,,,,,,,,,,,,,,,,,,,,,,,,,,,,,,,,,,,,,,,,
298024,2022-11-25_19h52.13.144,vts_reward_expectancy_bt,2022.2.4,MacIntel,59.84082341,Chrome,1440,900,,,l,0.3529,10,439,2,0,6,6,10,1,0,0,0,1,0,1,0,0,star ,circle,,,,,,,,,,,,,,,,,,,,,,,,,,,,,,,,,,,,,,,,,,,,,,,,,,,,,,
298024,2022-11-25_19h52.13.144,vts_reward_expectancy_bt,2022.2.4,MacIntel,59.84082341,Chrome,1440,900,,,l,0.5867,1,440,2,0,7,7,9,1,0,0,0,1,1,0,0,0,star,triangle,,,,,,,,,,,,,,,,,,,,,,,,,,,,,,,,,,,,,,,,,,,,,,,,,,,,,,
298024,2022-11-25_19h52.13.144,vts_reward_expectancy_bt,2022.2.4,MacIntel,59.84082341,Chrome,1440,900,,,l,0.352,10,450,2,0,8,8,6,1,0,0,1,0,1,0,0,0,hexagon,triangle,,,,,,,,,,,,,,,,,,,,,,,,,,,,,,,,,,,,,,,,,,,,,,,,,,,,,,
298024,2022-11-25_19h52.13.144,vts_reward_expectancy_bt,2022.2.4,MacIntel,59.84082341,Chrome,1440,900,,,l,0.3505,10,460,2,0,9,9,1,1,1,0,0,0,0,0,1,0,triangle,hexagon,,,,,,,,,,,,,,,,,,,,,,,,,,,,,,,,,,,,,,,,,,,,,,,,,,,,,,
298024,2022-11-25_19h52.13.144,vts_reward_expectancy_bt,2022.2.4,MacIntel,59.84082341,Chrome,1440,900,,,a,0.4689,1,461,2,0,10,10,4,1,0,1,0,0,0,0,1,0,circle,hexagon,,,,,,,,,,,,,,,,,,,,,,,,,,,,,,,,,,,,,,,,,,,,,,,,,,,,,,
298024,2022-11-25_19h52.13.144,vts_reward_expectancy_bt,2022.2.4,MacIntel,59.84082341,Chrome,1440,900,,,l,0.2689,10,471,2,0,11,11,5,1,0,1,0,0,0,0,0,1,circle,star,,,,,,,,,,,,,,,,,,,,,,,,,,,,,,,,,,,,,,,,,,,,,,,,,,,,,,
298024,2022-11-25_19h52.13.144,vts_reward_expectancy_bt,2022.2.4,MacIntel,59.84082341,Chrome,1440,900,,,l,0.2844,1,472,2,1,0,12,3,1,0,1,0,0,1,0,0,0,circle,triangle,,,,,,,,,,,,,,,,,,,,,,,,,,,,,,,,,,,,,,,,,,,,,,,,,,,,,,
298024,2022-11-25_19h52.13.144,vts_reward_expectancy_bt,2022.2.4,MacIntel,59.84082341,Chrome,1440,900,,,l,0.2864,10,482,2,1,1,13,2,1,1,0,0,0,0,0,0,1,triangle,star,,,,,,,,,,,,,,,,,,,,,,,,,,,,,,,,,,,,,,,,,,,,,,,,,,,,,,
298024,2022-11-25_19h52.13.144,vts_reward_expectancy_bt,2022.2.4,MacIntel,59.84082341,Chrome,1440,900,,,a,0.433,10,492,2,1,2,14,4,1,0,1,0,0,0,0,1,0,circle,hexagon,,,,,,,,,,,,,,,,,,,,,,,,,,,,,,,,,,,,,,,,,,,,,,,,,,,,,,
298024,2022-11-25_19h52.13.144,vts_reward_expectancy_bt,2022.2.4,MacIntel,59.84082341,Chrome,1440,900,,,l,0.3631,10,502,2,1,3,15,10,1,0,0,0,1,0,1,0,0,star ,circle,,,,,,,,,,,,,,,,,,,,,,,,,,,,,,,,,,,,,,,,,,,,,,,,,,,,,,
298024,2022-11-25_19h52.13.144,vts_reward_expectancy_bt,2022.2.4,MacIntel,59.84082341,Chrome,1440,900,,,a,0.671,1,503,2,1,4,16,9,1,0,0,0,1,1,0,0,0,star,triangle,,,,,,,,,,,,,,,,,,,,,,,,,,,,,,,,,,,,,,,,,,,,,,,,,,,,,,
298024,2022-11-25_19h52.13.144,vts_reward_expectancy_bt,2022.2.4,MacIntel,59.84082341,Chrome,1440,900,,,l,0.4521,1,504,2,1,5,17,7,1,0,0,1,0,0,1,0,0,hexagon,circle,,,,,,,,,,,,,,,,,,,,,,,,,,,,,,,,,,,,,,,,,,,,,,,,,,,,,,
298024,2022-11-25_19h52.13.144,vts_reward_expectancy_bt,2022.2.4,MacIntel,59.84082341,Chrome,1440,900,,,a,0.4211,1,505,2,1,6,18,8,1,0,0,1,0,0,0,0,1,hexagon,star,,,,,,,,,,,,,,,,,,,,,,,,,,,,,,,,,,,,,,,,,,,,,,,,,,,,,,
298024,2022-11-25_19h52.13.144,vts_reward_expectancy_bt,2022.2.4,MacIntel,59.84082341,Chrome,1440,900,,,a,0.4338,1,506,2,1,7,19,6,1,0,0,1,0,1,0,0,0,hexagon,triangle,,,,,,,,,,,,,,,,,,,,,,,,,,,,,,,,,,,,,,,,,,,,,,,,,,,,,,
298024,2022-11-25_19h52.13.144,vts_reward_expectancy_bt,2022.2.4,MacIntel,59.84082341,Chrome,1440,900,,,l,0.4337,10,516,2,1,8,20,11,1,0,0,0,1,0,0,1,0,star,hexagon,,,,,,,,,,,,,,,,,,,,,,,,,,,,,,,,,,,,,,,,,,,,,,,,,,,,,,
298024,2022-11-25_19h52.13.144,vts_reward_expectancy_bt,2022.2.4,MacIntel,59.84082341,Chrome,1440,900,,,l,0.6903,10,526,2,1,9,21,1,1,1,0,0,0,0,0,1,0,triangle,hexagon,,,,,,,,,,,,,,,,,,,,,,,,,,,,,,,,,,,,,,,,,,,,,,,,,,,,,,
298024,2022-11-25_19h52.13.144,vts_reward_expectancy_bt,2022.2.4,MacIntel,59.84082341,Chrome,1440,900,,,l,0.4723,10,536,2,1,10,22,0,1,1,0,0,0,0,1,0,0,triangle,circle,,,,,,,,,,,,,,,,,,,,,,,,,,,,,,,,,,,,,,,,,,,,,,,,,,,,,,
298024,2022-11-25_19h52.13.144,vts_reward_expectancy_bt,2022.2.4,MacIntel,59.84082341,Chrome,1440,900,,,a,0.3963,10,546,2,1,11,23,5,1,0,1,0,0,0,0,0,1,circle,star,,,,,,,,,,,,,,,,,,,,,,,,,,,,,,,,,,,,,,,,,,,,,,,,,,,,,,
298024,2022-11-25_19h52.13.144,vts_reward_expectancy_bt,2022.2.4,MacIntel,59.84082341,Chrome,1440,900,,,l,0.3652,10,556,2,2,0,24,10,1,0,0,0,1,0,1,0,0,star ,circle,,,,,,,,,,,,,,,,,,,,,,,,,,,,,,,,,,,,,,,,,,,,,,,,,,,,,,
298024,2022-11-25_19h52.13.144,vts_reward_expectancy_bt,2022.2.4,MacIntel,59.84082341,Chrome,1440,900,,,a,0.3183,10,566,2,2,1,25,5,1,0,1,0,0,0,0,0,1,circle,star,,,,,,,,,,,,,,,,,,,,,,,,,,,,,,,,,,,,,,,,,,,,,,,,,,,,,,
298024,2022-11-25_19h52.13.144,vts_reward_expectancy_bt,2022.2.4,MacIntel,59.84082341,Chrome,1440,900,,,a,0.4686,10,576,2,2,2,26,6,1,0,0,1,0,1,0,0,0,hexagon,triangle,,,,,,,,,,,,,,,,,,,,,,,,,,,,,,,,,,,,,,,,,,,,,,,,,,,,,,
298024,2022-11-25_19h52.13.144,vts_reward_expectancy_bt,2022.2.4,MacIntel,59.84082341,Chrome,1440,900,,,l,0.4552,1,577,2,2,3,27,9,1,0,0,0,1,1,0,0,0,star,triangle,,,,,,,,,,,,,,,,,,,,,,,,,,,,,,,,,,,,,,,,,,,,,,,,,,,,,,
298024,2022-11-25_19h52.13.144,vts_reward_expectancy_bt,2022.2.4,MacIntel,59.84082341,Chrome,1440,900,,,a,0.3261,10,587,2,2,4,28,1,1,1,0,0,0,0,0,1,0,triangle,hexagon,,,,,,,,,,,,,,,,,,,,,,,,,,,,,,,,,,,,,,,,,,,,,,,,,,,,,,
298024,2022-11-25_19h52.13.144,vts_reward_expectancy_bt,2022.2.4,MacIntel,59.84082341,Chrome,1440,900,,,a,0.3162,10,597,2,2,5,29,0,1,1,0,0,0,0,1,0,0,triangle,circle,,,,,,,,,,,,,,,,,,,,,,,,,,,,,,,,,,,,,,,,,,,,,,,,,,,,,,
298024,2022-11-25_19h52.13.144,vts_reward_expectancy_bt,2022.2.4,MacIntel,59.84082341,Chrome,1440,900,,,a,0.4349,10,607,2,2,6,30,3,1,0,1,0,0,1,0,0,0,circle,triangle,,,,,,,,,,,,,,,,,,,,,,,,,,,,,,,,,,,,,,,,,,,,,,,,,,,,,,
298024,2022-11-25_19h52.13.144,vts_reward_expectancy_bt,2022.2.4,MacIntel,59.84082341,Chrome,1440,900,,,l,0.4556,10,617,2,2,7,31,7,1,0,0,1,0,0,1,0,0,hexagon,circle,,,,,,,,,,,,,,,,,,,,,,,,,,,,,,,,,,,,,,,,,,,,,,,,,,,,,,
298024,2022-11-25_19h52.13.144,vts_reward_expectancy_bt,2022.2.4,MacIntel,59.84082341,Chrome,1440,900,,,a,0.2826,1,618,2,2,8,32,2,1,1,0,0,0,0,0,0,1,triangle,star,,,,,,,,,,,,,,,,,,,,,,,,,,,,,,,,,,,,,,,,,,,,,,,,,,,,,,
298024,2022-11-25_19h52.13.144,vts_reward_expectancy_bt,2022.2.4,MacIntel,59.84082341,Chrome,1440,900,,,l,0.366,10,628,2,2,9,33,4,1,0,1,0,0,0,0,1,0,circle,hexagon,,,,,,,,,,,,,,,,,,,,,,,,,,,,,,,,,,,,,,,,,,,,,,,,,,,,,,
298024,2022-11-25_19h52.13.144,vts_reward_expectancy_bt,2022.2.4,MacIntel,59.84082341,Chrome,1440,900,,,l,0.4836,10,638,2,2,10,34,11,1,0,0,0,1,0,0,1,0,star,hexagon,,,,,,,,,,,,,,,,,,,,,,,,,,,,,,,,,,,,,,,,,,,,,,,,,,,,,,
298024,2022-11-25_19h52.13.144,vts_reward_expectancy_bt,2022.2.4,MacIntel,59.84082341,Chrome,1440,900,,,a,0.4869,10,648,2,2,11,35,8,1,0,0,1,0,0,0,0,1,hexagon,star,,,,,,,,,,,,,,,,,,,,,,,,,,,,,,,,,,,,,,,,,,,,,,,,,,,,,,
298024,2022-11-25_19h52.13.144,vts_reward_expectancy_bt,2022.2.4,MacIntel,59.84082341,Chrome,1440,900,,,,,,,,,,,,,,,,,,,,,,,U,139,star,0,0,,0,0,0,0,0,1,,,,,,,,,,,,,,,,,,,,,,,,,,,,,,,,,,,,,,,,,,
298024,2022-11-25_19h52.13.144,vts_reward_expectancy_bt,2022.2.4,MacIntel,59.84082341,Chrome,1440,900,,,,,,,,,,,,,,,,,,,,,,,S,132,circle,1,1,f,0,1,0,1,0,1,1.3982,,,,,,,,,,,,,,,,,,,,,,,,,,,,,,,,,,,,,,,,,
298024,2022-11-25_19h52.13.144,vts_reward_expectancy_bt,2022.2.4,MacIntel,59.84082341,Chrome,1440,900,,,,,,,,,,,,,,,,,,,,,,,F,160,hexagon,1,0,d,0,2,0,2,0,1,0.9488,,,,,,,,,,,,,,,,,,,,,,,,,,,,,,,,,,,,,,,,,
298024,2022-11-25_19h52.13.144,vts_reward_expectancy_bt,2022.2.4,MacIntel,59.84082341,Chrome,1440,900,,,,,,,,,,,,,,,,,,,,,,,Y,146,triangle,1,0,f,0,3,0,3,0,1,0.6639,,,,,,,,,,,,,,,,,,,,,,,,,,,,,,,,,,,,,,,,,
298024,2022-11-25_19h52.13.144,vts_reward_expectancy_bt,2022.2.4,MacIntel,59.84082341,Chrome,1440,900,,,,,,,,,,,,,,,,,,,,,,,H,181,star,1,0,d,0,4,0,4,0,1,0.633,,,,,,,,,,,,,,,,,,,,,,,,,,,,,,,,,,,,,,,,,
298024,2022-11-25_19h52.13.144,vts_reward_expectancy_bt,2022.2.4,MacIntel,59.84082341,Chrome,1440,900,,,,,,,,,,,,,,,,,,,,,,,D,167,circle,1,0,d,0,5,0,5,0,1,0.6249,,,,,,,,,,,,,,,,,,,,,,,,,,,,,,,,,,,,,,,,,
298024,2022-11-25_19h52.13.144,vts_reward_expectancy_bt,2022.2.4,MacIntel,59.84082341,Chrome,1440,900,,,,,,,,,,,,,,,,,,,,,,,W,125,hexagon,1,0,f,0,6,0,6,0,1,0.5995,,,,,,,,,,,,,,,,,,,,,,,,,,,,,,,,,,,,,,,,,
298024,2022-11-25_19h52.13.144,vts_reward_expectancy_bt,2022.2.4,MacIntel,59.84082341,Chrome,1440,900,,,,,,,,,,,,,,,,,,,,,,,B,174,triangle,1,0,d,0,7,0,7,0,1,0.613,,,,,,,,,,,,,,,,,,,,,,,,,,,,,,,,,,,,,,,,,
298024,2022-11-25_19h52.13.144,vts_reward_expectancy_bt,2022.2.4,MacIntel,59.84082341,Chrome,1440,900,,,,,,,,,,,,,,,,,,,,,,,U,139,star,1,0,f,0,8,0,8,0,1,0.5999,,,,,,,,,,,,,,,,,,,,,,,,,,,,,,,,,,,,,,,,,
298024,2022-11-25_19h52.13.144,vts_reward_expectancy_bt,2022.2.4,MacIntel,59.84082341,Chrome,1440,900,,,,,,,,,,,,,,,,,,,,,,,S,132,triangle,1,0,f,0,9,0,9,0,1,0.5641,,,,,,,,,,,,,,,,,,,,,,,,,,,,,,,,,,,,,,,,,
298024,2022-11-25_19h52.13.144,vts_reward_expectancy_bt,2022.2.4,MacIntel,59.84082341,Chrome,1440,900,,,,,,,,,,,,,,,,,,,,,,,H,167,hexagon,1,0,,1,,,,,,,k,0.6646,0,0,0,0,1,,,,,,,,,,,,,,,,,,,,,,,,,,,,,,,,,,
298024,2022-11-25_19h52.13.144,vts_reward_expectancy_bt,2022.2.4,MacIntel,59.84082341,Chrome,1440,900,,,,,,,,,,,,,,,,,,,,,,,Y,132,circle,1,0,,1,,,,,,,j,0.8297,1,0,1,0,1,,,,,,,,,,,,,,,,,,,,,,,,,,,,,,,,,,
298024,2022-11-25_19h52.13.144,vts_reward_expectancy_bt,2022.2.4,MacIntel,59.84082341,Chrome,1440,900,,,,,,,,,,,,,,,,,,,,,,,B,139,triangle,1,0,,1,,,,,,,j,0.6341,2,0,2,0,1,,,,,,,,,,,,,,,,,,,,,,,,,,,,,,,,,,
298024,2022-11-25_19h52.13.144,vts_reward_expectancy_bt,2022.2.4,MacIntel,59.84082341,Chrome,1440,900,,,,,,,,,,,,,,,,,,,,,,,U,181,star,1,0,,1,,,,,,,k,0.8373,3,0,3,0,1,,,,,,,,,,,,,,,,,,,,,,,,,,,,,,,,,,
298024,2022-11-25_19h52.13.144,vts_reward_expectancy_bt,2022.2.4,MacIntel,59.84082341,Chrome,1440,900,,,,,,,,,,,,,,,,,,,,,,,S,174,hexagon,1,0,,1,,,,,,,k,0.6452,4,0,4,0,1,,,,,,,,,,,,,,,,,,,,,,,,,,,,,,,,,,
298024,2022-11-25_19h52.13.144,vts_reward_expectancy_bt,2022.2.4,MacIntel,59.84082341,Chrome,1440,900,,,,,,,,,,,,,,,,,,,,,,,F,125,circle,1,0,,1,,,,,,,j,0.5894,5,0,5,0,1,,,,,,,,,,,,,,,,,,,,,,,,,,,,,,,,,,
298024,2022-11-25_19h52.13.144,vts_reward_expectancy_bt,2022.2.4,MacIntel,59.84082341,Chrome,1440,900,,,,,,,,,,,,,,,,,,,,,,,W,160,triangle,1,0,,1,,,,,,,k,0.6521,6,0,6,0,1,,,,,,,,,,,,,,,,,,,,,,,,,,,,,,,,,,
298024,2022-11-25_19h52.13.144,vts_reward_expectancy_bt,2022.2.4,MacIntel,59.84082341,Chrome,1440,900,,,,,,,,,,,,,,,,,,,,,,,D,146,star,1,0,,1,,,,,,,j,1.1487,7,0,7,0,1,,,,,,,,,,,,,,,,,,,,,,,,,,,,,,,,,,
298024,2022-11-25_19h52.13.144,vts_reward_expectancy_bt,2022.2.4,MacIntel,59.84082341,Chrome,1440,900,,,,,,,,,,,,,,,,,,,,,,,H,167,triangle,1,0,,1,,,,,,,k,0.6506,8,0,8,0,1,,,,,,,,,,,,,,,,,,,,,,,,,,,,,,,,,,
298024,2022-11-25_19h52.13.144,vts_reward_expectancy_bt,2022.2.4,MacIntel,59.84082341,Chrome,1440,900,,,,,,,,,,,,,,,,,,,,,,,Y,132,circle,1,0,,1,,,,,,,j,0.9871,9,0,9,0,1,,,,,,,,,,,,,,,,,,,,,,,,,,,,,,,,,,
298024,2022-11-25_19h52.13.144,vts_reward_expectancy_bt,2022.2.4,MacIntel,59.84082341,Chrome,1440,900,,,,,0,648,,,,,,,,,,,,,,,,,F,125,triangle,1,0,,2,,,,,,,,,,,,,,-1,number,NA,j,1.1389,vtsPrac,0,0,0,0,1,,,,,,,,,,,,,,,,,,,,,,,
298024,2022-11-25_19h52.13.144,vts_reward_expectancy_bt,2022.2.4,MacIntel,59.84082341,Chrome,1440,900,,,,,0,648,,,,,,,,,,,,,,,,,U,139,circle,1,0,,2,,,,,,,,,,,,,,repeat,number,numRpt,j,0.899,vtsPrac,1,0,1,0,1,,,,,,,,,,,,,,,,,,,,,,,
298024,2022-11-25_19h52.13.144,vts_reward_expectancy_bt,2022.2.4,MacIntel,59.84082341,Chrome,1440,900,,,,,0,648,,,,,,,,,,,,,,,,,D,146,triangle,1,0,,2,,,,,,,,,,,,,,repeat,number,numRpt,j,0.7992,vtsPrac,2,0,2,0,1,,,,,,,,,,,,,,,,,,,,,,,
298024,2022-11-25_19h52.13.144,vts_reward_expectancy_bt,2022.2.4,MacIntel,59.84082341,Chrome,1440,900,,,,,0,648,,,,,,,,,,,,,,,,,W,167,circle,1,0,,2,,,,,,,,,,,,,,switch,letter,lettSwt,f,0.6149,vtsPrac,3,0,3,0,1,,,,,,,,,,,,,,,,,,,,,,,
298024,2022-11-25_19h52.13.144,vts_reward_expectancy_bt,2022.2.4,MacIntel,59.84082341,Chrome,1440,900,,,,,0,648,,,,,,,,,,,,,,,,,F,125,hexagon,1,0,,2,,,,,,,,,,,,,,repeat,letter,lettRpt,d,0.7972,vtsPrac,4,0,4,0,1,,,,,,,,,,,,,,,,,,,,,,,
298024,2022-11-25_19h52.13.144,vts_reward_expectancy_bt,2022.2.4,MacIntel,59.84082341,Chrome,1440,900,,,,,0,648,,,,,,,,,,,,,,,,,U,139,star,1,0,,2,,,,,,,,,,,,,,repeat,letter,lettRpt,f,1.4504,vtsPrac,5,0,5,0,1,,,,,,,,,,,,,,,,,,,,,,,
298024,2022-11-25_19h52.13.144,vts_reward_expectancy_bt,2022.2.4,MacIntel,59.84082341,Chrome,1440,900,,,,,0,648,,,,,,,,,,,,,,,,,D,146,triangle,1,0,,2,,,,,,,,,,,,,,switch,number,numSwt,j,0.8827,vtsPrac,6,0,6,0,1,,,,,,,,,,,,,,,,,,,,,,,
298024,2022-11-25_19h52.13.144,vts_reward_expectancy_bt,2022.2.4,MacIntel,59.84082341,Chrome,1440,900,,,,,0,648,,,,,,,,,,,,,,,,,W,167,star,1,0,,2,,,,,,,,,,,,,,switch,letter,lettSwt,f,0.7816,vtsPrac,7,0,7,0,1,,,,,,,,,,,,,,,,,,,,,,,
298024,2022-11-25_19h52.13.144,vts_reward_expectancy_bt,2022.2.4,MacIntel,59.84082341,Chrome,1440,900,,,,,0,648,,,,,,,,,,,,,,,,,H,146,triangle,1,0,,2,,,,,,,,,,,,,,repeat,letter,lettRpt,d,1.5337,vtsPrac,8,0,8,0,1,,,,,,,,,,,,,,,,,,,,,,,
298024,2022-11-25_19h52.13.144,vts_reward_expectancy_bt,2022.2.4,MacIntel,59.84082341,Chrome,1440,900,,,,,0,648,,,,,,,,,,,,,,,,,U,160,circle,1,0,,2,,,,,,,,,,,,,,switch,number,numSwt,k,0.5959,vtsPrac,9,0,9,0,1,,,,,,,,,,,,,,,,,,,,,,,
298024,2022-11-25_19h52.13.144,vts_reward_expectancy_bt,2022.2.4,MacIntel,59.84082341,Chrome,1440,900,,,,,0,648,,,,,,,,,,,,,,,,,D,174,hexagon,1,0,,2,,,,,,,,,,,,,,repeat,number,numRpt,k,0.6321,vtsPrac,10,0,10,0,1,,,,,,,,,,,,,,,,,,,,,,,
298024,2022-11-25_19h52.13.144,vts_reward_expectancy_bt,2022.2.4,MacIntel,59.84082341,Chrome,1440,900,,,,,0,648,,,,,,,,,,,,,,,,,W,132,circle,1,0,,2,,,,,,,,,,,,,,switch,letter,lettSwt,f,0.5636,vtsPrac,11,0,11,0,1,,,,,,,,,,,,,,,,,,,,,,,
298024,2022-11-25_19h52.13.144,vts_reward_expectancy_bt,2022.2.4,MacIntel,59.84082341,Chrome,1440,900,,,,,0,648,,,,,,,,,,,,,,,,,D,167,circle,1,0,,2,,,,,,,,,,,,,,switch,number,numSwt,k,0.8051,vtsPrac,12,0,12,0,1,,,,,,,,,,,,,,,,,,,,,,,
298024,2022-11-25_19h52.13.144,vts_reward_expectancy_bt,2022.2.4,MacIntel,59.84082341,Chrome,1440,900,,,,,0,648,,,,,,,,,,,,,,,,,Y,174,star,1,0,,2,,,,,,,,,,,,,,switch,letter,lettSwt,f,1.0333,vtsPrac,13,0,13,0,1,,,,,,,,,,,,,,,,,,,,,,,
298024,2022-11-25_19h52.13.144,vts_reward_expectancy_bt,2022.2.4,MacIntel,59.84082341,Chrome,1440,900,,,,,0,648,,,,,,,,,,,,,,,,,H,146,hexagon,1,0,,2,,,,,,,,,,,,,,switch,number,numSwt,j,0.9333,vtsPrac,14,0,14,0,1,,,,,,,,,,,,,,,,,,,,,,,
298024,2022-11-25_19h52.13.144,vts_reward_expectancy_bt,2022.2.4,MacIntel,59.84082341,Chrome,1440,900,,,,,0,648,,,,,,,,,,,,,,,,,B,139,triangle,1,0,,2,,,,,,,,,,,,,,switch,letter,lettSwt,d,1.432,vtsPrac,15,0,15,0,1,,,,,,,,,,,,,,,,,,,,,,,
298024,2022-11-25_19h52.13.144,vts_reward_expectancy_bt,2022.2.4,MacIntel,59.84082341,Chrome,1440,900,,,,,0,648,,,,,,,,,,,,,,,,,U,167,hexagon,1,0,,2,,,,,,,,,,,,,,repeat,letter,lettRpt,f,1.2215,vtsPrac,16,0,16,0,1,,,,,,,,,,,,,,,,,,,,,,,
298024,2022-11-25_19h52.13.144,vts_reward_expectancy_bt,2022.2.4,MacIntel,59.84082341,Chrome,1440,900,,,,,0,648,,,,,,,,,,,,,,,,,F,146,triangle,1,0,,2,,,,,,,,,,,,,,switch,number,numSwt,j,0.6804,vtsPrac,17,0,17,0,1,,,,,,,,,,,,,,,,,,,,,,,
298024,2022-11-25_19h52.13.144,vts_reward_expectancy_bt,2022.2.4,MacIntel,59.84082341,Chrome,1440,900,,,,,0,648,,,,,,,,,,,,,,,,,B,125,star,1,0,,2,,,,,,,,,,,,,,repeat,number,numRpt,j,2.154,vtsPrac,18,0,18,0,1,,,,,,,,,,,,,,,,,,,,,,,
298024,2022-11-25_19h52.13.144,vts_reward_expectancy_bt,2022.2.4,MacIntel,59.84082341,Chrome,1440,900,,,,,0,648,,,,,,,,,,,,,,,,,S,139,circle,1,0,,2,,,,,,,,,,,,,,switch,letter,lettSwt,f,0.9636,vtsPrac,19,0,19,0,1,,,,,,,,,,,,,,,,,,,,,,,
298024,2022-11-25_19h52.13.144,vts_reward_expectancy_bt,2022.2.4,MacIntel,59.84082341,Chrome,1440,900,,,,,0,648,,,,,,,,,,,,,,,,,Y,125,circle,1,0,,2,,,,,,,,,,,,,,repeat,letter,lettRpt,f,0.8316,vtsPrac,20,0,20,0,1,,,,,,,,,,,,,,,,,,,,,,,
298024,2022-11-25_19h52.13.144,vts_reward_expectancy_bt,2022.2.4,MacIntel,59.84082341,Chrome,1440,900,,,,,0,648,,,,,,,,,,,,,,,,,D,181,star,1,0,,2,,,,,,,,,,,,,,switch,number,numSwt,k,0.7171,vtsPrac,21,0,21,0,1,,,,,,,,,,,,,,,,,,,,,,,
298024,2022-11-25_19h52.13.144,vts_reward_expectancy_bt,2022.2.4,MacIntel,59.84082341,Chrome,1440,900,,,,,0,648,,,,,,,,,,,,,,,,,B,167,triangle,0,0,,2,,,,,,,,,,,,,,switch,letter,NA,f,1.6839,vtsPrac,22,0,22,0,1,,,,,,,,,,,,,,,,,,,,,,,
298024,2022-11-25_19h52.13.144,vts_reward_expectancy_bt,2022.2.4,MacIntel,59.84082341,Chrome,1440,900,,,,,0,648,,,,,,,,,,,,,,,,,U,139,circle,1,1,,2,,,,,,,,,,,,,,repeat,letter,lettRpt,f,0.9474,vtsPrac,23,0,23,0,1,,,,,,,,,,,,,,,,,,,,,,,
298024,2022-11-25_19h52.13.144,vts_reward_expectancy_bt,2022.2.4,MacIntel,59.84082341,Chrome,1440,900,,,,,0,648,,,,,,,,,,,,,,,,,B,160,star,1,0,,2,,,,,,,,,,,,,,repeat,letter,lettRpt,d,1.5344,vtsPrac,24,0,24,0,1,,,,,,,,,,,,,,,,,,,,,,,
298024,2022-11-25_19h52.13.144,vts_reward_expectancy_bt,2022.2.4,MacIntel,59.84082341,Chrome,1440,900,,,,,0,648,,,,,,,,,,,,,,,,,S,132,circle,1,0,,2,,,,,,,,,,,,,,repeat,letter,lettRpt,f,1.1634,vtsPrac,25,0,25,0,1,,,,,,,,,,,,,,,,,,,,,,,
298024,2022-11-25_19h52.13.144,vts_reward_expectancy_bt,2022.2.4,MacIntel,59.84082341,Chrome,1440,900,,,,,0,648,,,,,,,,,,,,,,,,,U,174,circle,1,0,,2,,,,,,,,,,,,,,switch,number,numSwt,k,1.1975,vtsPrac,26,0,26,0,1,,,,,,,,,,,,,,,,,,,,,,,
298024,2022-11-25_19h52.13.144,vts_reward_expectancy_bt,2022.2.4,MacIntel,59.84082341,Chrome,1440,900,,,,,0,648,,,,,,,,,,,,,,,,,H,146,triangle,1,0,,2,,,,,,,,,,,,,,switch,letter,lettSwt,d,1.0338,vtsPrac,27,0,27,0,1,,,,,,,,,,,,,,,,,,,,,,,
298024,2022-11-25_19h52.13.144,vts_reward_expectancy_bt,2022.2.4,MacIntel,59.84082341,Chrome,1440,900,,,,,0,648,,,,,,,,,,,,,,,,,H,174,star,1,0,,2,,,,,,,,,,,,,,repeat,letter,lettRpt,d,1.9557,vtsPrac,28,0,28,0,1,,,,,,,,,,,,,,,,,,,,,,,
298024,2022-11-25_19h52.13.144,vts_reward_expectancy_bt,2022.2.4,MacIntel,59.84082341,Chrome,1440,900,,,,,0,648,,,,,,,,,,,,,,,,,Y,125,circle,1,0,,2,,,,,,,,,,,,,,switch,number,numSwt,j,0.568,vtsPrac,29,0,29,0,1,,,,,,,,,,,,,,,,,,,,,,,
298024,2022-11-25_19h52.13.144,vts_reward_expectancy_bt,2022.2.4,MacIntel,59.84082341,Chrome,1440,900,,,,,0,648,,,,,,,,,,,,,,,,,F,139,circle,1,0,,2,,,,,,,,,,,,,,repeat,number,numRpt,j,0.8,vtsPrac,30,0,30,0,1,,,,,,,,,,,,,,,,,,,,,,,
298024,2022-11-25_19h52.13.144,vts_reward_expectancy_bt,2022.2.4,MacIntel,59.84082341,Chrome,1440,900,,,,,0,648,,,,,,,,,,,,,,,,,D,146,hexagon,1,0,,2,,,,,,,,,,,,,,repeat,number,numRpt,j,0.7359,vtsPrac,31,0,31,0,1,,,,,,,,,,,,,,,,,,,,,,,
298024,2022-11-25_19h52.13.144,vts_reward_expectancy_bt,2022.2.4,MacIntel,59.84082341,Chrome,1440,900,,,,,,,,,,,,,,,,,,,,,,,,,,,,,,,,,,,,,,,,,,,,,,,,,,,,,,,,,,,,,,,,,,,,,,,,,,,,
298024,2022-11-25_19h52.13.144,vts_reward_expectancy_bt,2022.2.4,MacIntel,59.84082341,Chrome,1440,900,,,,,,,,,,,,,,,,,,,,,,,,,,,,,,,,,,,,,,,,,,,,,,,,,,,,,,,,,,,,,,,,,,,,,,,,,,,,
298024,2022-11-25_19h52.13.144,vts_reward_expectancy_bt,2022.2.4,MacIntel,59.84082341,Chrome,1440,900,,,,,0,648,,,,,,,,,,,,,,,,,S,174,circle,1,0,,,,,,,,,,,,,,,,repeat,number,numRpt,k,1.6694,noRew,,,,,,0,0,0,0,0,1,,,,,,,,,,,,,,,,,
298024,2022-11-25_19h52.13.144,vts_reward_expectancy_bt,2022.2.4,MacIntel,59.84082341,Chrome,1440,900,,,,,0,648,,,,,,,,,,,,,,,,,U,160,star,1,0,,,,,,,,,,,,,,,,switch,letter,lettSwt,f,2.5376,noRew,,,,,,0,1,0,1,0,1,,,,,,,,,,,,,,,,,
298024,2022-11-25_19h52.13.144,vts_reward_expectancy_bt,2022.2.4,MacIntel,59.84082341,Chrome,1440,900,,,,,0,648,,,,,,,,,,,,,,,,,D,139,circle,1,0,,,,,,,,,,,,,,,,switch,number,numSwt,j,1.1022,noRew,,,,,,0,2,0,2,0,1,,,,,,,,,,,,,,,,,
298024,2022-11-25_19h52.13.144,vts_reward_expectancy_bt,2022.2.4,MacIntel,59.84082341,Chrome,1440,900,,,,,0,648,,,,,,,,,,,,,,,,,W,132,star,1,0,,,,,,,,,,,,,,,,repeat,number,numRpt,j,0.8337,noRew,,,,,,0,3,0,3,0,1,,,,,,,,,,,,,,,,,
298024,2022-11-25_19h52.13.144,vts_reward_expectancy_bt,2022.2.4,MacIntel,59.84082341,Chrome,1440,900,,,,,0,648,,,,,,,,,,,,,,,,,S,174,hexagon,1,0,,,,,,,,,,,,,,,,repeat,number,numRpt,k,2.0032,noRew,,,,,,0,4,0,4,0,1,,,,,,,,,,,,,,,,,
298024,2022-11-25_19h52.13.144,vts_reward_expectancy_bt,2022.2.4,MacIntel,59.84082341,Chrome,1440,900,,,,,0,648,,,,,,,,,,,,,,,,,U,160,triangle,1,0,,,,,,,,,,,,,,,,repeat,number,numRpt,k,1.332,noRew,,,,,,0,5,0,5,0,1,,,,,,,,,,,,,,,,,
298024,2022-11-25_19h52.13.144,vts_reward_expectancy_bt,2022.2.4,MacIntel,59.84082341,Chrome,1440,900,,,,,0,648,,,,,,,,,,,,,,,,,D,139,hexagon,1,0,,,,,,,,,,,,,,,,switch,letter,lettSwt,d,1.2652,noRew,,,,,,0,6,0,6,0,1,,,,,,,,,,,,,,,,,
298024,2022-11-25_19h52.13.144,vts_reward_expectancy_bt,2022.2.4,MacIntel,59.84082341,Chrome,1440,900,,,,,0,648,,,,,,,,,,,,,,,,,W,132,star,1,0,,,,,,,,,,,,,,,,switch,number,numSwt,j,0.9497,noRew,,,,,,0,7,0,7,0,1,,,,,,,,,,,,,,,,,
298024,2022-11-25_19h52.13.144,vts_reward_expectancy_bt,2022.2.4,MacIntel,59.84082341,Chrome,1440,900,,,,,0,648,,,,,,,,,,,,,,,,,B,160,star,1,0,,,,,,,,,,,,,,,,repeat,number,numRpt,k,1.4335,noRew,,,,,,0,8,0,8,0,1,,,,,,,,,,,,,,,,,
298024,2022-11-25_19h52.13.144,vts_reward_expectancy_bt,2022.2.4,MacIntel,59.84082341,Chrome,1440,900,,,,,0,648,,,,,,,,,,,,,,,,,W,125,circle,1,0,,,,,,,,,,,,,,,,switch,letter,lettSwt,f,0.7637,noRew,,,,,,0,9,0,9,0,1,,,,,,,,,,,,,,,,,
298024,2022-11-25_19h52.13.144,vts_reward_expectancy_bt,2022.2.4,MacIntel,59.84082341,Chrome,1440,900,,,,,0,648,,,,,,,,,,,,,,,,,D,167,star,1,0,,,,,,,,,,,,,,,,repeat,letter,lettRpt,d,0.7359,noRew,,,,,,0,10,0,10,0,1,,,,,,,,,,,,,,,,,
298024,2022-11-25_19h52.13.144,vts_reward_expectancy_bt,2022.2.4,MacIntel,59.84082341,Chrome,1440,900,,,,,0,648,,,,,,,,,,,,,,,,,F,146,hexagon,1,0,,,,,,,,,,,,,,,,switch,number,numSwt,j,1.6684,noRew,,,,,,0,11,0,11,0,1,,,,,,,,,,,,,,,,,
298024,2022-11-25_19h52.13.144,vts_reward_expectancy_bt,2022.2.4,MacIntel,59.84082341,Chrome,1440,900,,,,,0,648,,,,,,,,,,,,,,,,,Y,125,star,1,0,,,,,,,,,,,,,,,,repeat,number,numRpt,j,0.9225,noRew,,,,,,0,12,0,12,0,1,,,,,,,,,,,,,,,,,
298024,2022-11-25_19h52.13.144,vts_reward_expectancy_bt,2022.2.4,MacIntel,59.84082341,Chrome,1440,900,,,,,0,648,,,,,,,,,,,,,,,,,B,174,circle,1,0,,,,,,,,,,,,,,,,repeat,number,numRpt,k,0.6514,noRew,,,,,,0,13,0,13,0,1,,,,,,,,,,,,,,,,,
298024,2022-11-25_19h52.13.144,vts_reward_expectancy_bt,2022.2.4,MacIntel,59.84082341,Chrome,1440,900,,,,,0,648,,,,,,,,,,,,,,,,,D,139,hexagon,1,0,,,,,,,,,,,,,,,,repeat,number,numRpt,j,1.3381,noRew,,,,,,0,14,0,14,0,1,,,,,,,,,,,,,,,,,
298024,2022-11-25_19h52.13.144,vts_reward_expectancy_bt,2022.2.4,MacIntel,59.84082341,Chrome,1440,900,,,,,0,648,,,,,,,,,,,,,,,,,H,146,triangle,1,0,,,,,,,,,,,,,,,,repeat,number,numRpt,j,0.8874,noRew,,,,,,0,15,0,15,0,1,,,,,,,,,,,,,,,,,
298024,2022-11-25_19h52.13.144,vts_reward_expectancy_bt,2022.2.4,MacIntel,59.84082341,Chrome,1440,900,,,,,0,648,,,,,,,,,,,,,,,,,U,174,hexagon,1,0,,,,,,,,,,,,,,,,repeat,number,numRpt,k,0.6013,noRew,,,,,,0,16,0,16,0,1,,,,,,,,,,,,,,,,,
298024,2022-11-25_19h52.13.144,vts_reward_expectancy_bt,2022.2.4,MacIntel,59.84082341,Chrome,1440,900,,,,,0,648,,,,,,,,,,,,,,,,,F,125,triangle,1,0,,,,,,,,,,,,,,,,repeat,number,numRpt,j,0.67,noRew,,,,,,0,17,0,17,0,1,,,,,,,,,,,,,,,,,
298024,2022-11-25_19h52.13.144,vts_reward_expectancy_bt,2022.2.4,MacIntel,59.84082341,Chrome,1440,900,,,,,0,648,,,,,,,,,,,,,,,,,H,181,star,1,0,,,,,,,,,,,,,,,,repeat,number,numRpt,k,0.9178,noRew,,,,,,0,18,0,18,0,1,,,,,,,,,,,,,,,,,
298024,2022-11-25_19h52.13.144,vts_reward_expectancy_bt,2022.2.4,MacIntel,59.84082341,Chrome,1440,900,,,,,0,648,,,,,,,,,,,,,,,,,D,160,triangle,1,0,,,,,,,,,,,,,,,,repeat,number,numRpt,k,1.4001,noRew,,,,,,0,19,0,19,0,1,,,,,,,,,,,,,,,,,
298024,2022-11-25_19h52.13.144,vts_reward_expectancy_bt,2022.2.4,MacIntel,59.84082341,Chrome,1440,900,,,,,0,648,,,,,,,,,,,,,,,,,W,125,triangle,1,0,,,,,,,,,,,,,,,,repeat,number,numRpt,j,0.6293,noRew,,,,,,0,20,0,20,0,1,,,,,,,,,,,,,,,,,
298024,2022-11-25_19h52.13.144,vts_reward_expectancy_bt,2022.2.4,MacIntel,59.84082341,Chrome,1440,900,,,,,0,648,,,,,,,,,,,,,,,,,S,146,hexagon,1,0,,,,,,,,,,,,,,,,repeat,number,numRpt,j,1.3374,noRew,,,,,,0,21,0,21,0,1,,,,,,,,,,,,,,,,,
298024,2022-11-25_19h52.13.144,vts_reward_expectancy_bt,2022.2.4,MacIntel,59.84082341,Chrome,1440,900,,,,,0,648,,,,,,,,,,,,,,,,,B,167,hexagon,1,0,,,,,,,,,,,,,,,,repeat,number,numRpt,k,1.4185,noRew,,,,,,0,22,0,22,0,1,,,,,,,,,,,,,,,,,
298024,2022-11-25_19h52.13.144,vts_reward_expectancy_bt,2022.2.4,MacIntel,59.84082341,Chrome,1440,900,,,,,0,648,,,,,,,,,,,,,,,,,D,174,circle,1,0,,,,,,,,,,,,,,,,repeat,number,numRpt,k,0.9654,noRew,,,,,,0,23,0,23,0,1,,,,,,,,,,,,,,,,,
298024,2022-11-25_19h52.13.144,vts_reward_expectancy_bt,2022.2.4,MacIntel,59.84082341,Chrome,1440,900,,,,,0,648,,,,,,,,,,,,,,,,,B,174,triangle,1,0,,,,,,,,,,,,,,,,repeat,number,numRpt,k,2.7571,noRew,,,,,,0,24,0,24,0,1,,,,,,,,,,,,,,,,,
298024,2022-11-25_19h52.13.144,vts_reward_expectancy_bt,2022.2.4,MacIntel,59.84082341,Chrome,1440,900,,,,,0,648,,,,,,,,,,,,,,,,,D,167,star,1,0,,,,,,,,,,,,,,,,switch,letter,lettSwt,d,1.0508,noRew,,,,,,0,25,0,25,0,1,,,,,,,,,,,,,,,,,
298024,2022-11-25_19h52.13.144,vts_reward_expectancy_bt,2022.2.4,MacIntel,59.84082341,Chrome,1440,900,,,,,0,648,,,,,,,,,,,,,,,,,W,139,star,1,0,,,,,,,,,,,,,,,,repeat,letter,lettRpt,f,0.7333,noRew,,,,,,0,26,0,26,0,1,,,,,,,,,,,,,,,,,
298024,2022-11-25_19h52.13.144,vts_reward_expectancy_bt,2022.2.4,MacIntel,59.84082341,Chrome,1440,900,,,,,0,648,,,,,,,,,,,,,,,,,U,181,triangle,1,0,,,,,,,,,,,,,,,,switch,number,numSwt,k,0.4999,noRew,,,,,,0,27,0,27,0,1,,,,,,,,,,,,,,,,,
298024,2022-11-25_19h52.13.144,vts_reward_expectancy_bt,2022.2.4,MacIntel,59.84082341,Chrome,1440,900,,,,,0,648,,,,,,,,,,,,,,,,,H,181,circle,1,0,,,,,,,,,,,,,,,,repeat,number,numRpt,k,0.6009,noRew,,,,,,0,28,0,28,0,1,,,,,,,,,,,,,,,,,
298024,2022-11-25_19h52.13.144,vts_reward_expectancy_bt,2022.2.4,MacIntel,59.84082341,Chrome,1440,900,,,,,0,648,,,,,,,,,,,,,,,,,B,160,star,1,0,,,,,,,,,,,,,,,,repeat,number,numRpt,k,0.671,noRew,,,,,,0,29,0,29,0,1,,,,,,,,,,,,,,,,,
298024,2022-11-25_19h52.13.144,vts_reward_expectancy_bt,2022.2.4,MacIntel,59.84082341,Chrome,1440,900,,,,,0,648,,,,,,,,,,,,,,,,,Y,174,circle,1,0,,,,,,,,,,,,,,,,repeat,number,numRpt,k,0.6663,noRew,,,,,,0,30,0,30,0,1,,,,,,,,,,,,,,,,,
298024,2022-11-25_19h52.13.144,vts_reward_expectancy_bt,2022.2.4,MacIntel,59.84082341,Chrome,1440,900,,,,,0,648,,,,,,,,,,,,,,,,,F,125,star,1,0,,,,,,,,,,,,,,,,repeat,number,numRpt,j,0.7623,noRew,,,,,,0,31,0,31,0,1,,,,,,,,,,,,,,,,,
298024,2022-11-25_19h52.13.144,vts_reward_expectancy_bt,2022.2.4,MacIntel,59.84082341,Chrome,1440,900,,,,,0,648,,,,,,,,,,,,,,,,,F,167,hexagon,1,0,,,,,,,,,,,,,,,,repeat,number,numRpt,k,0.7182,noRew,,,,,,0,32,0,32,0,1,,,,,,,,,,,,,,,,,
298024,2022-11-25_19h52.13.144,vts_reward_expectancy_bt,2022.2.4,MacIntel,59.84082341,Chrome,1440,900,,,,,0,648,,,,,,,,,,,,,,,,,D,174,star,1,0,,,,,,,,,,,,,,,,repeat,number,numRpt,k,0.5297,noRew,,,,,,0,33,0,33,0,1,,,,,,,,,,,,,,,,,
298024,2022-11-25_19h52.13.144,vts_reward_expectancy_bt,2022.2.4,MacIntel,59.84082341,Chrome,1440,900,,,,,0,648,,,,,,,,,,,,,,,,,Y,160,triangle,1,0,,,,,,,,,,,,,,,,repeat,number,numRpt,k,0.7479,noRew,,,,,,0,34,0,34,0,1,,,,,,,,,,,,,,,,,
298024,2022-11-25_19h52.13.144,vts_reward_expectancy_bt,2022.2.4,MacIntel,59.84082341,Chrome,1440,900,,,,,0,648,,,,,,,,,,,,,,,,,H,146,star,1,0,,,,,,,,,,,,,,,,repeat,number,numRpt,j,0.7537,noRew,,,,,,0,35,0,35,0,1,,,,,,,,,,,,,,,,,
298024,2022-11-25_19h52.13.144,vts_reward_expectancy_bt,2022.2.4,MacIntel,59.84082341,Chrome,1440,900,,,,,0,648,,,,,,,,,,,,,,,,,D,160,triangle,1,0,,,,,,,,,,,,,,,,repeat,number,numRpt,k,0.5797,noRew,,,,,,0,36,0,36,0,1,,,,,,,,,,,,,,,,,
298024,2022-11-25_19h52.13.144,vts_reward_expectancy_bt,2022.2.4,MacIntel,59.84082341,Chrome,1440,900,,,,,0,648,,,,,,,,,,,,,,,,,F,125,hexagon,1,0,,,,,,,,,,,,,,,,switch,letter,lettSwt,d,0.9821,noRew,,,,,,0,37,0,37,0,1,,,,,,,,,,,,,,,,,
298024,2022-11-25_19h52.13.144,vts_reward_expectancy_bt,2022.2.4,MacIntel,59.84082341,Chrome,1440,900,,,,,0,648,,,,,,,,,,,,,,,,,U,181,triangle,1,0,,,,,,,,,,,,,,,,switch,number,numSwt,k,1.315,noRew,,,,,,0,38,0,38,0,1,,,,,,,,,,,,,,,,,
298024,2022-11-25_19h52.13.144,vts_reward_expectancy_bt,2022.2.4,MacIntel,59.84082341,Chrome,1440,900,,,,,0,648,,,,,,,,,,,,,,,,,W,132,circle,1,0,,,,,,,,,,,,,,,,switch,letter,lettSwt,f,0.8887,noRew,,,,,,0,39,0,39,0,1,,,,,,,,,,,,,,,,,
298024,2022-11-25_19h52.13.144,vts_reward_expectancy_bt,2022.2.4,MacIntel,59.84082341,Chrome,1440,900,,,,,0,648,,,,,,,,,,,,,,,,,F,125,circle,1,0,,,,,,,,,,,,,,,,switch,number,numSwt,j,1.7555,noRew,,,,,,0,40,0,40,0,1,,,,,,,,,,,,,,,,,
298024,2022-11-25_19h52.13.144,vts_reward_expectancy_bt,2022.2.4,MacIntel,59.84082341,Chrome,1440,900,,,,,0,648,,,,,,,,,,,,,,,,,D,174,hexagon,1,0,,,,,,,,,,,,,,,,repeat,number,numRpt,k,2.3861,noRew,,,,,,0,41,0,41,0,1,,,,,,,,,,,,,,,,,
298024,2022-11-25_19h52.13.144,vts_reward_expectancy_bt,2022.2.4,MacIntel,59.84082341,Chrome,1440,900,,,,,0,648,,,,,,,,,,,,,,,,,S,132,star,1,0,,,,,,,,,,,,,,,,switch,letter,lettSwt,f,1.1713,noRew,,,,,,0,42,0,42,0,1,,,,,,,,,,,,,,,,,
298024,2022-11-25_19h52.13.144,vts_reward_expectancy_bt,2022.2.4,MacIntel,59.84082341,Chrome,1440,900,,,,,0,648,,,,,,,,,,,,,,,,,B,160,triangle,1,0,,,,,,,,,,,,,,,,switch,number,numSwt,k,0.9887,noRew,,,,,,0,43,0,43,0,1,,,,,,,,,,,,,,,,,
298024,2022-11-25_19h52.13.144,vts_reward_expectancy_bt,2022.2.4,MacIntel,59.84082341,Chrome,1440,900,,,,,0,648,,,,,,,,,,,,,,,,,Y,160,hexagon,1,0,,,,,,,,,,,,,,,,repeat,number,numRpt,k,1.7366,noRew,,,,,,0,44,0,44,0,1,,,,,,,,,,,,,,,,,
298024,2022-11-25_19h52.13.144,vts_reward_expectancy_bt,2022.2.4,MacIntel,59.84082341,Chrome,1440,900,,,,,0,648,,,,,,,,,,,,,,,,,D,174,triangle,1,0,,,,,,,,,,,,,,,,repeat,number,numRpt,k,0.6158,noRew,,,,,,0,45,0,45,0,1,,,,,,,,,,,,,,,,,
298024,2022-11-25_19h52.13.144,vts_reward_expectancy_bt,2022.2.4,MacIntel,59.84082341,Chrome,1440,900,,,,,0,648,,,,,,,,,,,,,,,,,B,181,circle,1,0,,,,,,,,,,,,,,,,switch,letter,lettSwt,d,0.8305,noRew,,,,,,0,46,0,46,0,1,,,,,,,,,,,,,,,,,
298024,2022-11-25_19h52.13.144,vts_reward_expectancy_bt,2022.2.4,MacIntel,59.84082341,Chrome,1440,900,,,,,0,648,,,,,,,,,,,,,,,,,F,146,triangle,1,0,,,,,,,,,,,,,,,,repeat,letter,lettRpt,d,0.9654,noRew,,,,,,0,47,0,47,0,1,,,,,,,,,,,,,,,,,
298024,2022-11-25_19h52.13.144,vts_reward_expectancy_bt,2022.2.4,MacIntel,59.84082341,Chrome,1440,900,,,,,0,648,,,,,,,,,,,,,,,,,S,181,star,1,0,,,,,,,,,,,,,,,,repeat,letter,lettRpt,f,0.8001,noRew,,,,,,0,48,0,48,0,1,,,,,,,,,,,,,,,,,
298024,2022-11-25_19h52.13.144,vts_reward_expectancy_bt,2022.2.4,MacIntel,59.84082341,Chrome,1440,900,,,,,0,648,,,,,,,,,,,,,,,,,F,125,triangle,1,0,,,,,,,,,,,,,,,,repeat,letter,lettRpt,d,0.8809,noRew,,,,,,0,49,0,49,0,1,,,,,,,,,,,,,,,,,
298024,2022-11-25_19h52.13.144,vts_reward_expectancy_bt,2022.2.4,MacIntel,59.84082341,Chrome,1440,900,,,,,0,648,,,,,,,,,,,,,,,,,W,139,circle,1,0,,,,,,,,,,,,,,,,switch,number,numSwt,j,0.8308,noRew,,,,,,0,50,0,50,0,1,,,,,,,,,,,,,,,,,
298024,2022-11-25_19h52.13.144,vts_reward_expectancy_bt,2022.2.4,MacIntel,59.84082341,Chrome,1440,900,,,,,0,648,,,,,,,,,,,,,,,,,D,160,triangle,1,0,,,,,,,,,,,,,,,,repeat,number,numRpt,k,0.634,noRew,,,,,,0,51,0,51,0,1,,,,,,,,,,,,,,,,,
298024,2022-11-25_19h52.13.144,vts_reward_expectancy_bt,2022.2.4,MacIntel,59.84082341,Chrome,1440,900,,,,,0,648,,,,,,,,,,,,,,,,,D,181,triangle,1,0,,,,,,,,,,,,,,,,switch,letter,lettSwt,d,1.0406,noRew,,,,,,0,52,0,52,0,1,,,,,,,,,,,,,,,,,
298024,2022-11-25_19h52.13.144,vts_reward_expectancy_bt,2022.2.4,MacIntel,59.84082341,Chrome,1440,900,,,,,0,648,,,,,,,,,,,,,,,,,F,167,star,1,0,,,,,,,,,,,,,,,,switch,number,numSwt,k,1.2847,noRew,,,,,,0,53,0,53,0,1,,,,,,,,,,,,,,,,,
298024,2022-11-25_19h52.13.144,vts_reward_expectancy_bt,2022.2.4,MacIntel,59.84082341,Chrome,1440,900,,,,,0,648,,,,,,,,,,,,,,,,,S,139,circle,1,0,,,,,,,,,,,,,,,,repeat,number,numRpt,j,0.7644,noRew,,,,,,0,54,0,54,0,1,,,,,,,,,,,,,,,,,
298024,2022-11-25_19h52.13.144,vts_reward_expectancy_bt,2022.2.4,MacIntel,59.84082341,Chrome,1440,900,,,,,0,648,,,,,,,,,,,,,,,,,U,146,triangle,0,0,,,,,,,,,,,,,,,,switch,letter,NA,d,0.8664,noRew,,,,,,0,55,0,55,0,1,,,,,,,,,,,,,,,,,
298024,2022-11-25_19h52.13.144,vts_reward_expectancy_bt,2022.2.4,MacIntel,59.84082341,Chrome,1440,900,,,,,0,648,,,,,,,,,,,,,,,,,F,174,circle,1,1,,,,,,,,,,,,,,,,repeat,letter,lettRpt,d,1.8577,noRew,,,,,,0,56,0,56,0,1,,,,,,,,,,,,,,,,,
298024,2022-11-25_19h52.13.144,vts_reward_expectancy_bt,2022.2.4,MacIntel,59.84082341,Chrome,1440,900,,,,,0,648,,,,,,,,,,,,,,,,,U,132,hexagon,1,0,,,,,,,,,,,,,,,,switch,number,numSwt,j,0.781,noRew,,,,,,0,57,0,57,0,1,,,,,,,,,,,,,,,,,
298024,2022-11-25_19h52.13.144,vts_reward_expectancy_bt,2022.2.4,MacIntel,59.84082341,Chrome,1440,900,,,,,0,648,,,,,,,,,,,,,,,,,Y,146,star,1,0,,,,,,,,,,,,,,,,repeat,number,numRpt,j,1.0338,noRew,,,,,,0,58,0,58,0,1,,,,,,,,,,,,,,,,,
298024,2022-11-25_19h52.13.144,vts_reward_expectancy_bt,2022.2.4,MacIntel,59.84082341,Chrome,1440,900,,,,,0,648,,,,,,,,,,,,,,,,,H,139,triangle,1,0,,,,,,,,,,,,,,,,switch,letter,lettSwt,d,1.3841,noRew,,,,,,0,59,0,59,0,1,,,,,,,,,,,,,,,,,
298024,2022-11-25_19h52.13.144,vts_reward_expectancy_bt,2022.2.4,MacIntel,59.84082341,Chrome,1440,900,,,,,0,648,,,,,,,,,,,,,,,,,S,146,hexagon,1,0,,,,,,,,,,,,,,,,repeat,letter,lettRpt,f,1.617,noRew,,,,,,0,60,0,60,0,1,,,,,,,,,,,,,,,,,
298024,2022-11-25_19h52.13.144,vts_reward_expectancy_bt,2022.2.4,MacIntel,59.84082341,Chrome,1440,900,,,,,0,648,,,,,,,,,,,,,,,,,B,167,triangle,-1,0,,,,,,,,,,,,,,,,switch,no_choice,NA,,,noRew,,,,,,0,61,0,61,0,1,,,,,,,,,,,,,,,,,
298024,2022-11-25_19h52.13.144,vts_reward_expectancy_bt,2022.2.4,MacIntel,59.84082341,Chrome,1440,900,,,,,0,648,,,,,,,,,,,,,,,,,Y,174,triangle,1,0,,,,,,,,,,,,,,,,switch,number,numSwt,k,0.7169,noRew,,,,,,0,62,0,62,0,1,,,,,,,,,,,,,,,,,
298024,2022-11-25_19h52.13.144,vts_reward_expectancy_bt,2022.2.4,MacIntel,59.84082341,Chrome,1440,900,,,,,0,648,,,,,,,,,,,,,,,,,H,132,circle,1,0,,,,,,,,,,,,,,,,repeat,number,numRpt,j,1.0001,noRew,,,,,,0,63,0,63,0,1,,,,,,,,,,,,,,,,,
298024,2022-11-25_19h52.13.144,vts_reward_expectancy_bt,2022.2.4,MacIntel,59.84082341,Chrome,1440,900,,,,,,,,,,,,,,,,,,,,,,,,,,,,,,,,,,,,,,,,,,,,,,,,,,,,,,,,,,,,,,,,,,,,,,,,,,,,
298024,2022-11-25_19h52.13.144,vts_reward_expectancy_bt,2022.2.4,MacIntel,59.84082341,Chrome,1440,900,,,,,1,649,,,,,,,,,,,,,,,,,U,181,star,1,0,,,,,,,,,,,,,,,,repeat,number,numRpt,k,2.89,Lo,,,,,,0,,,,,,space,6.9765,low,0,0,0,0,1,,,,,,,,,
298024,2022-11-25_19h52.13.144,vts_reward_expectancy_bt,2022.2.4,MacIntel,59.84082341,Chrome,1440,900,,,,,1,650,,,,,,,,,,,,,,,,,D,167,triangle,1,0,,,,,,,,,,,,,,,,repeat,number,numRpt,k,1.552,Lo,,,,,,0,,,,,,,,low,1,0,1,0,1,,,,,,,,,
298024,2022-11-25_19h52.13.144,vts_reward_expectancy_bt,2022.2.4,MacIntel,59.84082341,Chrome,1440,900,,,,,0,650,,,,,,,,,,,,,,,,,Y,125,circle,1,0,,,,,,,,,,,,,,,,repeat,number,numRpt,j,0.8711,Hi,,,,,,0,,,,,,,,low,2,0,2,0,1,,,,,,,,,
298024,2022-11-25_19h52.13.144,vts_reward_expectancy_bt,2022.2.4,MacIntel,59.84082341,Chrome,1440,900,,,,,10,660,,,,,,,,,,,,,,,,,F,160,hexagon,1,0,,,,,,,,,,,,,,,,switch,letter,lettSwt,d,0.9666,Hi,,,,,,0,,,,,,,,low,3,0,3,0,1,,,,,,,,,
298024,2022-11-25_19h52.13.144,vts_reward_expectancy_bt,2022.2.4,MacIntel,59.84082341,Chrome,1440,900,,,,,10,670,,,,,,,,,,,,,,,,,B,146,star,1,0,,,,,,,,,,,,,,,,repeat,letter,lettRpt,d,1.608,Lo,,,,,,0,,,,,,,,low,4,0,4,0,1,,,,,,,,,
298024,2022-11-25_19h52.13.144,vts_reward_expectancy_bt,2022.2.4,MacIntel,59.84082341,Chrome,1440,900,,,,,1,671,,,,,,,,,,,,,,,,,H,174,triangle,1,0,,,,,,,,,,,,,,,,switch,number,numSwt,k,0.867,Lo,,,,,,0,,,,,,,,low,5,0,5,0,1,,,,,,,,,
298024,2022-11-25_19h52.13.144,vts_reward_expectancy_bt,2022.2.4,MacIntel,59.84082341,Chrome,1440,900,,,,,0,671,,,,,,,,,,,,,,,,,S,139,circle,1,0,,,,,,,,,,,,,,,,repeat,number,numRpt,j,0.7828,Hi,,,,,,0,,,,,,,,low,6,0,6,0,1,,,,,,,,,
298024,2022-11-25_19h52.13.144,vts_reward_expectancy_bt,2022.2.4,MacIntel,59.84082341,Chrome,1440,900,,,,,0,671,,,,,,,,,,,,,,,,,W,132,hexagon,1,0,,,,,,,,,,,,,,,,repeat,number,numRpt,j,1.6942,Hi,,,,,,0,,,,,,,,low,7,0,7,0,1,,,,,,,,,
298024,2022-11-25_19h52.13.144,vts_reward_expectancy_bt,2022.2.4,MacIntel,59.84082341,Chrome,1440,900,,,,,1,672,,,,,,,,,,,,,,,,,U,181,circle,1,0,,,,,,,,,,,,,,,,switch,letter,lettSwt,f,0.8666,Hi,,,,,,0,,,,,,,,low,8,0,8,0,1,,,,,,,,,
298024,2022-11-25_19h52.13.144,vts_reward_expectancy_bt,2022.2.4,MacIntel,59.84082341,Chrome,1440,900,,,,,1,673,,,,,,,,,,,,,,,,,D,167,triangle,1,0,,,,,,,,,,,,,,,,repeat,letter,lettRpt,d,1.0864,Lo,,,,,,0,,,,,,,,low,9,0,9,0,1,,,,,,,,,
298024,2022-11-25_19h52.13.144,vts_reward_expectancy_bt,2022.2.4,MacIntel,59.84082341,Chrome,1440,900,,,,,10,683,,,,,,,,,,,,,,,,,Y,125,star,1,0,,,,,,,,,,,,,,,,repeat,letter,lettRpt,f,0.7341,Lo,,,,,,0,,,,,,,,low,10,0,10,0,1,,,,,,,,,
298024,2022-11-25_19h52.13.144,vts_reward_expectancy_bt,2022.2.4,MacIntel,59.84082341,Chrome,1440,900,,,,,10,693,,,,,,,,,,,,,,,,,F,160,hexagon,1,0,,,,,,,,,,,,,,,,repeat,letter,lettRpt,d,0.7806,Hi,,,,,,0,,,,,,,,low,11,0,11,0,1,,,,,,,,,
298024,2022-11-25_19h52.13.144,vts_reward_expectancy_bt,2022.2.4,MacIntel,59.84082341,Chrome,1440,900,,,,,10,703,,,,,,,,,,,,,,,,,B,146,star,1,0,,,,,,,,,,,,,,,,repeat,letter,lettRpt,d,0.5981,Lo,,,,,,0,,,,,,,,low,12,0,12,0,1,,,,,,,,,
298024,2022-11-25_19h52.13.144,vts_reward_expectancy_bt,2022.2.4,MacIntel,59.84082341,Chrome,1440,900,,,,,0,703,,,,,,,,,,,,,,,,,H,174,circle,1,0,,,,,,,,,,,,,,,,switch,number,numSwt,k,2.4601,Hi,,,,,,0,,,,,,,,low,13,0,13,0,1,,,,,,,,,
298024,2022-11-25_19h52.13.144,vts_reward_expectancy_bt,2022.2.4,MacIntel,59.84082341,Chrome,1440,900,,,,,0,703,,,,,,,,,,,,,,,,,S,139,hexagon,1,0,,,,,,,,,,,,,,,,repeat,number,numRpt,j,0.8007,Hi,,,,,,0,,,,,,,,low,14,0,14,0,1,,,,,,,,,
298024,2022-11-25_19h52.13.144,vts_reward_expectancy_bt,2022.2.4,MacIntel,59.84082341,Chrome,1440,900,,,,,1,704,,,,,,,,,,,,,,,,,W,132,triangle,1,0,,,,,,,,,,,,,,,,repeat,number,numRpt,j,0.9702,Lo,,,,,,0,,,,,,,,low,15,0,15,0,1,,,,,,,,,
298024,2022-11-25_19h52.13.144,vts_reward_expectancy_bt,2022.2.4,MacIntel,59.84082341,Chrome,1440,900,,,,,10,714,,,,,,,,,,,,,,,,,S,132,star,1,0,,,,,,,,,,,,,,,,repeat,number,numRpt,j,0.6523,Lo,,,,,,0,,,,,,,,low,16,0,16,0,1,,,,,,,,,
298024,2022-11-25_19h52.13.144,vts_reward_expectancy_bt,2022.2.4,MacIntel,59.84082341,Chrome,1440,900,,,,,10,724,,,,,,,,,,,,,,,,,B,174,triangle,1,0,,,,,,,,,,,,,,,,switch,letter,lettSwt,d,0.7522,Lo,,,,,,0,,,,,,,,low,17,0,17,0,1,,,,,,,,,
298024,2022-11-25_19h52.13.144,vts_reward_expectancy_bt,2022.2.4,MacIntel,59.84082341,Chrome,1440,900,,,,,10,734,,,,,,,,,,,,,,,,,W,167,circle,1,0,,,,,,,,,,,,,,,,repeat,letter,lettRpt,f,0.6016,Hi,,,,,,0,,,,,,,,low,18,0,18,0,1,,,,,,,,,
298024,2022-11-25_19h52.13.144,vts_reward_expectancy_bt,2022.2.4,MacIntel,59.84082341,Chrome,1440,900,,,,,0,734,,,,,,,,,,,,,,,,,U,181,hexagon,1,0,,,,,,,,,,,,,,,,switch,number,numSwt,k,1.0189,Hi,,,,,,0,,,,,,,,low,19,0,19,0,1,,,,,,,,,
298024,2022-11-25_19h52.13.144,vts_reward_expectancy_bt,2022.2.4,MacIntel,59.84082341,Chrome,1440,900,,,,,10,744,,,,,,,,,,,,,,,,,D,160,triangle,1,0,,,,,,,,,,,,,,,,repeat,number,numRpt,k,0.8851,Lo,,,,,,0,,,,,,,,low,20,0,20,0,1,,,,,,,,,
298024,2022-11-25_19h52.13.144,vts_reward_expectancy_bt,2022.2.4,MacIntel,59.84082341,Chrome,1440,900,,,,,0,744,,,,,,,,,,,,,,,,,H,146,hexagon,1,0,,,,,,,,,,,,,,,,switch,letter,lettSwt,d,1.5359,Hi,,,,,,0,,,,,,,,low,21,0,21,0,1,,,,,,,,,
298024,2022-11-25_19h52.13.144,vts_reward_expectancy_bt,2022.2.4,MacIntel,59.84082341,Chrome,1440,900,,,,,1,745,,,,,,,,,,,,,,,,,Y,125,circle,1,0,,,,,,,,,,,,,,,,repeat,letter,lettRpt,f,0.5651,Hi,,,,,,0,,,,,,,,low,22,0,22,0,1,,,,,,,,,
298024,2022-11-25_19h52.13.144,vts_reward_expectancy_bt,2022.2.4,MacIntel,59.84082341,Chrome,1440,900,,,,,10,755,,,,,,,,,,,,,,,,,F,139,star,1,0,,,,,,,,,,,,,,,,repeat,letter,lettRpt,d,1.834,Lo,,,,,,0,,,,,,,,low,23,0,23,0,1,,,,,,,,,
298024,2022-11-25_19h52.13.144,vts_reward_expectancy_bt,2022.2.4,MacIntel,59.84082341,Chrome,1440,900,,,,,0,755,,,,,,,,,,,,,,,,,S,167,circle,1,0,,,,,,,,,,,,,,,,repeat,letter,lettRpt,f,0.8372,Hi,,,,,,0,,,,,,,,low,24,0,24,0,1,,,,,,,,,
298024,2022-11-25_19h52.13.144,vts_reward_expectancy_bt,2022.2.4,MacIntel,59.84082341,Chrome,1440,900,,,,,0,755,,,,,,,,,,,,,,,,,W,125,hexagon,1,0,,,,,,,,,,,,,,,,switch,number,numSwt,j,0.9163,Hi,,,,,,0,,,,,,,,low,25,0,25,0,1,,,,,,,,,
298024,2022-11-25_19h52.13.144,vts_reward_expectancy_bt,2022.2.4,MacIntel,59.84082341,Chrome,1440,900,,,,,1,756,,,,,,,,,,,,,,,,,H,146,triangle,1,0,,,,,,,,,,,,,,,,repeat,number,numRpt,j,0.587,Lo,,,,,,0,,,,,,,,low,26,0,26,0,1,,,,,,,,,
298024,2022-11-25_19h52.13.144,vts_reward_expectancy_bt,2022.2.4,MacIntel,59.84082341,Chrome,1440,900,,,,,1,757,,,,,,,,,,,,,,,,,U,139,star,1,0,,,,,,,,,,,,,,,,repeat,number,numRpt,j,0.7652,Lo,,,,,,0,,,,,,,,low,27,0,27,0,1,,,,,,,,,
298024,2022-11-25_19h52.13.144,vts_reward_expectancy_bt,2022.2.4,MacIntel,59.84082341,Chrome,1440,900,,,,,0,757,,,,,,,,,,,,,,,,,Y,160,circle,1,0,,,,,,,,,,,,,,,,repeat,number,numRpt,k,0.8849,Hi,,,,,,0,,,,,,,,low,28,0,28,0,1,,,,,,,,,
298024,2022-11-25_19h52.13.144,vts_reward_expectancy_bt,2022.2.4,MacIntel,59.84082341,Chrome,1440,900,,,,,10,767,,,,,,,,,,,,,,,,,D,132,hexagon,1,0,,,,,,,,,,,,,,,,switch,letter,lettSwt,d,0.5871,Hi,,,,,,0,,,,,,,,low,29,0,29,0,1,,,,,,,,,
298024,2022-11-25_19h52.13.144,vts_reward_expectancy_bt,2022.2.4,MacIntel,59.84082341,Chrome,1440,900,,,,,10,777,,,,,,,,,,,,,,,,,F,181,star,1,0,,,,,,,,,,,,,,,,repeat,letter,lettRpt,d,0.7326,Lo,,,,,,0,,,,,,,,low,30,0,30,0,1,,,,,,,,,
298024,2022-11-25_19h52.13.144,vts_reward_expectancy_bt,2022.2.4,MacIntel,59.84082341,Chrome,1440,900,,,,,1,778,,,,,,,,,,,,,,,,,B,174,triangle,1,0,,,,,,,,,,,,,,,,switch,number,numSwt,k,0.6664,Lo,,,,,,0,,,,,,,,low,31,0,31,0,1,,,,,,,,,
298024,2022-11-25_19h52.13.144,vts_reward_expectancy_bt,2022.2.4,MacIntel,59.84082341,Chrome,1440,900,,,,,1,779,,,,,,,,,,,,,,,,,Y,167,star,1,0,,,,,,,,,,,,,,,,repeat,number,numRpt,k,2.0895,Lo,,,,,,1,,,,,,space,6.8075,low,0,0,0,0,1,,,,,,,,,
298024,2022-11-25_19h52.13.144,vts_reward_expectancy_bt,2022.2.4,MacIntel,59.84082341,Chrome,1440,900,,,,,1,780,,,,,,,,,,,,,,,,,H,181,triangle,1,0,,,,,,,,,,,,,,,,switch,letter,lettSwt,d,0.8828,Lo,,,,,,1,,,,,,,,low,1,0,1,0,1,,,,,,,,,
298024,2022-11-25_19h52.13.144,vts_reward_expectancy_bt,2022.2.4,MacIntel,59.84082341,Chrome,1440,900,,,,,0,780,,,,,,,,,,,,,,,,,B,132,hexagon,1,0,,,,,,,,,,,,,,,,repeat,letter,lettRpt,d,0.7503,Hi,,,,,,1,,,,,,,,low,2,0,2,0,1,,,,,,,,,
298024,2022-11-25_19h52.13.144,vts_reward_expectancy_bt,2022.2.4,MacIntel,59.84082341,Chrome,1440,900,,,,,10,790,,,,,,,,,,,,,,,,,U,174,circle,1,0,,,,,,,,,,,,,,,,switch,number,numSwt,k,0.7481,Hi,,,,,,1,,,,,,,,low,3,0,3,0,1,,,,,,,,,
298024,2022-11-25_19h52.13.144,vts_reward_expectancy_bt,2022.2.4,MacIntel,59.84082341,Chrome,1440,900,,,,,0,790,,,,,,,,,,,,,,,,,W,146,star,0,0,,,,,,,,,,,,,,,,repeat,number,NA,k,0.6157,Hi,,,,,,1,,,,,,,,low,4,0,4,0,1,,,,,,,,,
298024,2022-11-25_19h52.13.144,vts_reward_expectancy_bt,2022.2.4,MacIntel,59.84082341,Chrome,1440,900,,,,,10,800,,,,,,,,,,,,,,,,,S,125,triangle,1,1,,,,,,,,,,,,,,,,repeat,number,numRpt,j,1.1654,Lo,,,,,,1,,,,,,,,low,5,0,5,0,1,,,,,,,,,
298024,2022-11-25_19h52.13.144,vts_reward_expectancy_bt,2022.2.4,MacIntel,59.84082341,Chrome,1440,900,,,,,0,800,,,,,,,,,,,,,,,,,D,160,hexagon,1,0,,,,,,,,,,,,,,,,switch,letter,lettSwt,d,0.8992,Hi,,,,,,1,,,,,,,,low,6,0,6,0,1,,,,,,,,,
298024,2022-11-25_19h52.13.144,vts_reward_expectancy_bt,2022.2.4,MacIntel,59.84082341,Chrome,1440,900,,,,,0,800,,,,,,,,,,,,,,,,,F,139,circle,1,0,,,,,,,,,,,,,,,,repeat,letter,lettRpt,d,1.2174,Hi,,,,,,1,,,,,,,,low,7,0,7,0,1,,,,,,,,,
298024,2022-11-25_19h52.13.144,vts_reward_expectancy_bt,2022.2.4,MacIntel,59.84082341,Chrome,1440,900,,,,,0,800,,,,,,,,,,,,,,,,,Y,167,circle,1,0,,,,,,,,,,,,,,,,repeat,letter,lettRpt,f,1.2679,Hi,,,,,,1,,,,,,,,low,8,0,8,0,1,,,,,,,,,
298024,2022-11-25_19h52.13.144,vts_reward_expectancy_bt,2022.2.4,MacIntel,59.84082341,Chrome,1440,900,,,,,10,810,,,,,,,,,,,,,,,,,H,181,star,1,0,,,,,,,,,,,,,,,,repeat,letter,lettRpt,d,0.7648,Lo,,,,,,1,,,,,,,,low,9,0,9,0,1,,,,,,,,,
298024,2022-11-25_19h52.13.144,vts_reward_expectancy_bt,2022.2.4,MacIntel,59.84082341,Chrome,1440,900,,,,,10,820,,,,,,,,,,,,,,,,,B,132,hexagon,1,0,,,,,,,,,,,,,,,,switch,number,numSwt,j,0.8206,Hi,,,,,,1,,,,,,,,low,10,0,10,0,1,,,,,,,,,
298024,2022-11-25_19h52.13.144,vts_reward_expectancy_bt,2022.2.4,MacIntel,59.84082341,Chrome,1440,900,,,,,0,820,,,,,,,,,,,,,,,,,U,174,triangle,0,0,,,,,,,,,,,,,,,,switch,letter,NA,d,0.8192,Hi,,,,,,1,,,,,,,,low,11,0,11,0,1,,,,,,,,,
298024,2022-11-25_19h52.13.144,vts_reward_expectancy_bt,2022.2.4,MacIntel,59.84082341,Chrome,1440,900,,,,,0,820,,,,,,,,,,,,,,,,,W,146,circle,1,1,,,,,,,,,,,,,,,,repeat,letter,lettRpt,f,1.2712,Hi,,,,,,1,,,,,,,,low,12,0,12,0,1,,,,,,,,,
298024,2022-11-25_19h52.13.144,vts_reward_expectancy_bt,2022.2.4,MacIntel,59.84082341,Chrome,1440,900,,,,,10,830,,,,,,,,,,,,,,,,,S,125,hexagon,1,0,,,,,,,,,,,,,,,,switch,number,numSwt,j,0.7553,Hi,,,,,,1,,,,,,,,low,13,0,13,0,1,,,,,,,,,
298024,2022-11-25_19h52.13.144,vts_reward_expectancy_bt,2022.2.4,MacIntel,59.84082341,Chrome,1440,900,,,,,0,830,,,,,,,,,,,,,,,,,D,160,star,-1,0,,,,,,,,,,,,,,,,switch,no_choice,NA,,,Hi,,,,,,1,,,,,,,,low,14,0,14,0,1,,,,,,,,,
298024,2022-11-25_19h52.13.144,vts_reward_expectancy_bt,2022.2.4,MacIntel,59.84082341,Chrome,1440,900,,,,,1,831,,,,,,,,,,,,,,,,,F,139,triangle,1,0,,,,,,,,,,,,,,,,switch,letter,lettSwt,d,1.0336,Lo,,,,,,1,,,,,,,,low,15,0,15,0,1,,,,,,,,,
298024,2022-11-25_19h52.13.144,vts_reward_expectancy_bt,2022.2.4,MacIntel,59.84082341,Chrome,1440,900,,,,,10,841,,,,,,,,,,,,,,,,,D,174,triangle,1,0,,,,,,,,,,,,,,,,repeat,letter,lettRpt,d,1.2199,Lo,,,,,,1,,,,,,,,low,16,0,16,0,1,,,,,,,,,
298024,2022-11-25_19h52.13.144,vts_reward_expectancy_bt,2022.2.4,MacIntel,59.84082341,Chrome,1440,900,,,,,1,842,,,,,,,,,,,,,,,,,F,181,star,1,0,,,,,,,,,,,,,,,,switch,number,numSwt,k,0.8148,Lo,,,,,,1,,,,,,,,low,17,0,17,0,1,,,,,,,,,
298024,2022-11-25_19h52.13.144,vts_reward_expectancy_bt,2022.2.4,MacIntel,59.84082341,Chrome,1440,900,,,,,10,852,,,,,,,,,,,,,,,,,H,132,circle,1,0,,,,,,,,,,,,,,,,repeat,number,numRpt,j,0.6686,Hi,,,,,,1,,,,,,,,low,18,0,18,0,1,,,,,,,,,
298024,2022-11-25_19h52.13.144,vts_reward_expectancy_bt,2022.2.4,MacIntel,59.84082341,Chrome,1440,900,,,,,1,853,,,,,,,,,,,,,,,,,S,125,hexagon,1,0,,,,,,,,,,,,,,,,repeat,number,numRpt,j,0.5472,Hi,,,,,,1,,,,,,,,low,19,0,19,0,1,,,,,,,,,
298024,2022-11-25_19h52.13.144,vts_reward_expectancy_bt,2022.2.4,MacIntel,59.84082341,Chrome,1440,900,,,,,10,863,,,,,,,,,,,,,,,,,U,167,triangle,1,0,,,,,,,,,,,,,,,,repeat,number,numRpt,k,0.7726,Lo,,,,,,1,,,,,,,,low,20,0,20,0,1,,,,,,,,,
298024,2022-11-25_19h52.13.144,vts_reward_expectancy_bt,2022.2.4,MacIntel,59.84082341,Chrome,1440,900,,,,,1,864,,,,,,,,,,,,,,,,,B,146,hexagon,1,0,,,,,,,,,,,,,,,,switch,letter,lettSwt,d,0.683,Hi,,,,,,1,,,,,,,,low,21,0,21,0,1,,,,,,,,,
298024,2022-11-25_19h52.13.144,vts_reward_expectancy_bt,2022.2.4,MacIntel,59.84082341,Chrome,1440,900,,,,,0,864,,,,,,,,,,,,,,,,,Y,160,circle,1,0,,,,,,,,,,,,,,,,switch,number,numSwt,k,1.3491,Hi,,,,,,1,,,,,,,,low,22,0,22,0,1,,,,,,,,,
298024,2022-11-25_19h52.13.144,vts_reward_expectancy_bt,2022.2.4,MacIntel,59.84082341,Chrome,1440,900,,,,,10,874,,,,,,,,,,,,,,,,,W,139,star,1,0,,,,,,,,,,,,,,,,repeat,number,numRpt,j,1.1372,Lo,,,,,,1,,,,,,,,low,23,0,23,0,1,,,,,,,,,
298024,2022-11-25_19h52.13.144,vts_reward_expectancy_bt,2022.2.4,MacIntel,59.84082341,Chrome,1440,900,,,,,10,884,,,,,,,,,,,,,,,,,D,125,triangle,1,0,,,,,,,,,,,,,,,,switch,letter,lettSwt,d,0.7972,Lo,,,,,,1,,,,,,,,low,24,0,24,0,1,,,,,,,,,
298024,2022-11-25_19h52.13.144,vts_reward_expectancy_bt,2022.2.4,MacIntel,59.84082341,Chrome,1440,900,,,,,1,885,,,,,,,,,,,,,,,,,S,181,star,1,0,,,,,,,,,,,,,,,,switch,number,numSwt,k,1.5838,Lo,,,,,,1,,,,,,,,low,25,0,25,0,1,,,,,,,,,
298024,2022-11-25_19h52.13.144,vts_reward_expectancy_bt,2022.2.4,MacIntel,59.84082341,Chrome,1440,900,,,,,0,885,,,,,,,,,,,,,,,,,W,132,hexagon,1,0,,,,,,,,,,,,,,,,switch,letter,lettSwt,f,0.9021,Hi,,,,,,1,,,,,,,,low,26,0,26,0,1,,,,,,,,,
298024,2022-11-25_19h52.13.144,vts_reward_expectancy_bt,2022.2.4,MacIntel,59.84082341,Chrome,1440,900,,,,,1,886,,,,,,,,,,,,,,,,,U,139,circle,1,0,,,,,,,,,,,,,,,,switch,number,numSwt,j,0.781,Hi,,,,,,1,,,,,,,,low,27,0,27,0,1,,,,,,,,,
298024,2022-11-25_19h52.13.144,vts_reward_expectancy_bt,2022.2.4,MacIntel,59.84082341,Chrome,1440,900,,,,,1,887,,,,,,,,,,,,,,,,,H,174,star,1,0,,,,,,,,,,,,,,,,repeat,number,numRpt,k,0.6308,Lo,,,,,,1,,,,,,,,low,28,0,28,0,1,,,,,,,,,
298024,2022-11-25_19h52.13.144,vts_reward_expectancy_bt,2022.2.4,MacIntel,59.84082341,Chrome,1440,900,,,,,0,887,,,,,,,,,,,,,,,,,F,146,hexagon,1,0,,,,,,,,,,,,,,,,repeat,number,numRpt,j,2.3514,Hi,,,,,,1,,,,,,,,low,29,0,29,0,1,,,,,,,,,
298024,2022-11-25_19h52.13.144,vts_reward_expectancy_bt,2022.2.4,MacIntel,59.84082341,Chrome,1440,900,,,,,0,887,,,,,,,,,,,,,,,,,Y,160,circle,1,0,,,,,,,,,,,,,,,,switch,letter,lettSwt,f,0.8493,Hi,,,,,,1,,,,,,,,low,30,0,30,0,1,,,,,,,,,
298024,2022-11-25_19h52.13.144,vts_reward_expectancy_bt,2022.2.4,MacIntel,59.84082341,Chrome,1440,900,,,,,0,887,,,,,,,,,,,,,,,,,B,167,triangle,0,0,,,,,,,,,,,,,,,,switch,number,NA,j,1.4327,Hi,,,,,,1,,,,,,,,low,31,0,31,0,1,,,,,,,,,
298024,2022-11-25_19h52.13.144,vts_reward_expectancy_bt,2022.2.4,MacIntel,59.84082341,Chrome,1440,900,,,,,0,887,,,,,,,,,,,,,,,,,U,160,star,-1,1,,,,,,,,,,,,,,,,switch,no_choice,NA,,,Hi,,,,,,2,,,,,,space,6.5519,low,0,0,0,0,1,,,,,,,,,
298024,2022-11-25_19h52.13.144,vts_reward_expectancy_bt,2022.2.4,MacIntel,59.84082341,Chrome,1440,900,,,,,0,887,,,,,,,,,,,,,,,,,W,132,hexagon,1,0,,,,,,,,,,,,,,,,switch,letter,lettSwt,f,1.5842,Hi,,,,,,2,,,,,,,,low,1,0,1,0,1,,,,,,,,,
298024,2022-11-25_19h52.13.144,vts_reward_expectancy_bt,2022.2.4,MacIntel,59.84082341,Chrome,1440,900,,,,,1,888,,,,,,,,,,,,,,,,,B,146,triangle,1,0,,,,,,,,,,,,,,,,switch,number,numSwt,j,1.2209,Lo,,,,,,2,,,,,,,,low,2,0,2,0,1,,,,,,,,,
298024,2022-11-25_19h52.13.144,vts_reward_expectancy_bt,2022.2.4,MacIntel,59.84082341,Chrome,1440,900,,,,,0,888,,,,,,,,,,,,,,,,,H,181,circle,1,0,,,,,,,,,,,,,,,,repeat,number,numRpt,k,0.7642,Hi,,,,,,2,,,,,,,,low,3,0,3,0,1,,,,,,,,,
298024,2022-11-25_19h52.13.144,vts_reward_expectancy_bt,2022.2.4,MacIntel,59.84082341,Chrome,1440,900,,,,,1,889,,,,,,,,,,,,,,,,,S,139,star,1,0,,,,,,,,,,,,,,,,repeat,number,numRpt,j,0.6975,Lo,,,,,,2,,,,,,,,low,4,0,4,0,1,,,,,,,,,
298024,2022-11-25_19h52.13.144,vts_reward_expectancy_bt,2022.2.4,MacIntel,59.84082341,Chrome,1440,900,,,,,0,889,,,,,,,,,,,,,,,,,D,125,hexagon,1,0,,,,,,,,,,,,,,,,repeat,number,numRpt,j,0.7793,Hi,,,,,,2,,,,,,,,low,5,0,5,0,1,,,,,,,,,
298024,2022-11-25_19h52.13.144,vts_reward_expectancy_bt,2022.2.4,MacIntel,59.84082341,Chrome,1440,900,,,,,10,899,,,,,,,,,,,,,,,,,F,167,triangle,1,0,,,,,,,,,,,,,,,,repeat,number,numRpt,k,0.7664,Lo,,,,,,2,,,,,,,,low,6,0,6,0,1,,,,,,,,,
298024,2022-11-25_19h52.13.144,vts_reward_expectancy_bt,2022.2.4,MacIntel,59.84082341,Chrome,1440,900,,,,,1,900,,,,,,,,,,,,,,,,,Y,174,circle,1,0,,,,,,,,,,,,,,,,repeat,number,numRpt,k,0.6503,Hi,,,,,,2,,,,,,,,low,7,0,7,0,1,,,,,,,,,
298024,2022-11-25_19h52.13.144,vts_reward_expectancy_bt,2022.2.4,MacIntel,59.84082341,Chrome,1440,900,,,,,1,901,,,,,,,,,,,,,,,,,U,160,triangle,1,0,,,,,,,,,,,,,,,,repeat,number,numRpt,k,1.0303,Lo,,,,,,2,,,,,,,,low,8,0,8,0,1,,,,,,,,,
298024,2022-11-25_19h52.13.144,vts_reward_expectancy_bt,2022.2.4,MacIntel,59.84082341,Chrome,1440,900,,,,,10,911,,,,,,,,,,,,,,,,,W,132,star,1,0,,,,,,,,,,,,,,,,switch,letter,lettSwt,f,0.9167,Lo,,,,,,2,,,,,,,,low,9,0,9,0,1,,,,,,,,,
298024,2022-11-25_19h52.13.144,vts_reward_expectancy_bt,2022.2.4,MacIntel,59.84082341,Chrome,1440,900,,,,,1,912,,,,,,,,,,,,,,,,,B,146,hexagon,1,0,,,,,,,,,,,,,,,,repeat,letter,lettRpt,d,0.7807,Hi,,,,,,2,,,,,,,,low,10,0,10,0,1,,,,,,,,,
298024,2022-11-25_19h52.13.144,vts_reward_expectancy_bt,2022.2.4,MacIntel,59.84082341,Chrome,1440,900,,,,,0,912,,,,,,,,,,,,,,,,,H,181,circle,1,0,,,,,,,,,,,,,,,,switch,number,numSwt,k,0.8198,Hi,,,,,,2,,,,,,,,low,11,0,11,0,1,,,,,,,,,
298024,2022-11-25_19h52.13.144,vts_reward_expectancy_bt,2022.2.4,MacIntel,59.84082341,Chrome,1440,900,,,,,10,922,,,,,,,,,,,,,,,,,S,139,triangle,1,0,,,,,,,,,,,,,,,,repeat,number,numRpt,j,0.7844,Lo,,,,,,2,,,,,,,,low,12,0,12,0,1,,,,,,,,,
298024,2022-11-25_19h52.13.144,vts_reward_expectancy_bt,2022.2.4,MacIntel,59.84082341,Chrome,1440,900,,,,,0,922,,,,,,,,,,,,,,,,,D,125,hexagon,1,0,,,,,,,,,,,,,,,,repeat,number,numRpt,j,0.7806,Hi,,,,,,2,,,,,,,,low,13,0,13,0,1,,,,,,,,,
298024,2022-11-25_19h52.13.144,vts_reward_expectancy_bt,2022.2.4,MacIntel,59.84082341,Chrome,1440,900,,,,,0,922,,,,,,,,,,,,,,,,,F,167,circle,1,0,,,,,,,,,,,,,,,,repeat,number,numRpt,k,0.8981,Hi,,,,,,2,,,,,,,,low,14,0,14,0,1,,,,,,,,,
298024,2022-11-25_19h52.13.144,vts_reward_expectancy_bt,2022.2.4,MacIntel,59.84082341,Chrome,1440,900,,,,,1,923,,,,,,,,,,,,,,,,,Y,174,star,1,0,,,,,,,,,,,,,,,,repeat,number,numRpt,k,1.165,Lo,,,,,,2,,,,,,,,low,15,0,15,0,1,,,,,,,,,
298024,2022-11-25_19h52.13.144,vts_reward_expectancy_bt,2022.2.4,MacIntel,59.84082341,Chrome,1440,900,,,,,0,923,,,,,,,,,,,,,,,,,H,167,hexagon,1,0,,,,,,,,,,,,,,,,repeat,number,numRpt,k,0.7508,Hi,,,,,,2,,,,,,,,low,16,0,16,0,1,,,,,,,,,
298024,2022-11-25_19h52.13.144,vts_reward_expectancy_bt,2022.2.4,MacIntel,59.84082341,Chrome,1440,900,,,,,1,924,,,,,,,,,,,,,,,,,U,132,triangle,1,0,,,,,,,,,,,,,,,,repeat,number,numRpt,j,0.7305,Lo,,,,,,2,,,,,,,,low,17,0,17,0,1,,,,,,,,,
298024,2022-11-25_19h52.13.144,vts_reward_expectancy_bt,2022.2.4,MacIntel,59.84082341,Chrome,1440,900,,,,,10,934,,,,,,,,,,,,,,,,,D,174,star,1,0,,,,,,,,,,,,,,,,repeat,number,numRpt,k,0.5978,Lo,,,,,,2,,,,,,,,low,18,0,18,0,1,,,,,,,,,
298024,2022-11-25_19h52.13.144,vts_reward_expectancy_bt,2022.2.4,MacIntel,59.84082341,Chrome,1440,900,,,,,0,934,,,,,,,,,,,,,,,,,Y,139,circle,1,0,,,,,,,,,,,,,,,,switch,letter,lettSwt,f,0.8666,Hi,,,,,,2,,,,,,,,low,19,0,19,0,1,,,,,,,,,
298024,2022-11-25_19h52.13.144,vts_reward_expectancy_bt,2022.2.4,MacIntel,59.84082341,Chrome,1440,900,,,,,10,944,,,,,,,,,,,,,,,,,W,125,hexagon,1,0,,,,,,,,,,,,,,,,repeat,letter,lettRpt,f,0.5518,Hi,,,,,,2,,,,,,,,low,20,0,20,0,1,,,,,,,,,
298024,2022-11-25_19h52.13.144,vts_reward_expectancy_bt,2022.2.4,MacIntel,59.84082341,Chrome,1440,900,,,,,1,945,,,,,,,,,,,,,,,,,B,181,triangle,1,0,,,,,,,,,,,,,,,,repeat,letter,lettRpt,d,0.5849,Lo,,,,,,2,,,,,,,,low,21,0,21,0,1,,,,,,,,,
298024,2022-11-25_19h52.13.144,vts_reward_expectancy_bt,2022.2.4,MacIntel,59.84082341,Chrome,1440,900,,,,,0,945,,,,,,,,,,,,,,,,,F,146,circle,0,0,,,,,,,,,,,,,,,,repeat,letter,NA,f,0.5802,Lo,,,,,,2,,,,,,,,low,22,0,22,0,1,,,,,,,,,
298024,2022-11-25_19h52.13.144,vts_reward_expectancy_bt,2022.2.4,MacIntel,59.84082341,Chrome,1440,900,,,,,1,946,,,,,,,,,,,,,,,,,S,160,star,1,1,,,,,,,,,,,,,,,,switch,number,numSwt,k,0.6354,Lo,,,,,,2,,,,,,,,low,23,0,23,0,1,,,,,,,,,
298024,2022-11-25_19h52.13.144,vts_reward_expectancy_bt,2022.2.4,MacIntel,59.84082341,Chrome,1440,900,,,,,10,956,,,,,,,,,,,,,,,,,B,132,hexagon,1,0,,,,,,,,,,,,,,,,repeat,number,numRpt,j,0.6663,Hi,,,,,,2,,,,,,,,low,24,0,24,0,1,,,,,,,,,
298024,2022-11-25_19h52.13.144,vts_reward_expectancy_bt,2022.2.4,MacIntel,59.84082341,Chrome,1440,900,,,,,0,956,,,,,,,,,,,,,,,,,S,181,circle,1,0,,,,,,,,,,,,,,,,repeat,number,numRpt,k,1.2534,Hi,,,,,,2,,,,,,,,low,25,0,25,0,1,,,,,,,,,
298024,2022-11-25_19h52.13.144,vts_reward_expectancy_bt,2022.2.4,MacIntel,59.84082341,Chrome,1440,900,,,,,10,966,,,,,,,,,,,,,,,,,D,167,triangle,1,0,,,,,,,,,,,,,,,,repeat,number,numRpt,k,1.1301,Lo,,,,,,2,,,,,,,,low,26,0,26,0,1,,,,,,,,,
298024,2022-11-25_19h52.13.144,vts_reward_expectancy_bt,2022.2.4,MacIntel,59.84082341,Chrome,1440,900,,,,,1,967,,,,,,,,,,,,,,,,,H,160,star,1,0,,,,,,,,,,,,,,,,repeat,number,numRpt,k,0.8813,Lo,,,,,,2,,,,,,,,low,27,0,27,0,1,,,,,,,,,
298024,2022-11-25_19h52.13.144,vts_reward_expectancy_bt,2022.2.4,MacIntel,59.84082341,Chrome,1440,900,,,,,10,977,,,,,,,,,,,,,,,,,U,174,hexagon,1,0,,,,,,,,,,,,,,,,repeat,number,numRpt,k,0.6986,Hi,,,,,,2,,,,,,,,low,28,0,28,0,1,,,,,,,,,
298024,2022-11-25_19h52.13.144,vts_reward_expectancy_bt,2022.2.4,MacIntel,59.84082341,Chrome,1440,900,,,,,1,978,,,,,,,,,,,,,,,,,F,139,star,1,0,,,,,,,,,,,,,,,,repeat,number,numRpt,j,1.4829,Lo,,,,,,2,,,,,,,,low,29,0,29,0,1,,,,,,,,,
298024,2022-11-25_19h52.13.144,vts_reward_expectancy_bt,2022.2.4,MacIntel,59.84082341,Chrome,1440,900,,,,,1,979,,,,,,,,,,,,,,,,,W,146,triangle,1,0,,,,,,,,,,,,,,,,repeat,number,numRpt,j,0.7523,Lo,,,,,,2,,,,,,,,low,30,0,30,0,1,,,,,,,,,
298024,2022-11-25_19h52.13.144,vts_reward_expectancy_bt,2022.2.4,MacIntel,59.84082341,Chrome,1440,900,,,,,0,979,,,,,,,,,,,,,,,,,Y,125,circle,1,0,,,,,,,,,,,,,,,,repeat,number,numRpt,j,0.9209,Hi,,,,,,2,,,,,,,,low,31,0,31,0,1,,,,,,,,,
298024,2022-11-25_19h52.13.144,vts_reward_expectancy_bt,2022.2.4,MacIntel,59.84082341,Chrome,1440,900,,,,,10,989,,,,,,,,,,,,,,,,,D,125,circle,1,0,,,,,,,,,,,,,,,,repeat,number,numRpt,j,0.5855,Hi,,,,,,3,,,,,,space,1.5727,low,0,0,0,0,1,,,,,,,,,
298024,2022-11-25_19h52.13.144,vts_reward_expectancy_bt,2022.2.4,MacIntel,59.84082341,Chrome,1440,900,,,,,1,990,,,,,,,,,,,,,,,,,Y,160,triangle,1,0,,,,,,,,,,,,,,,,switch,letter,lettSwt,f,0.6344,Lo,,,,,,3,,,,,,,,low,1,0,1,0,1,,,,,,,,,
298024,2022-11-25_19h52.13.144,vts_reward_expectancy_bt,2022.2.4,MacIntel,59.84082341,Chrome,1440,900,,,,,0,990,,,,,,,,,,,,,,,,,H,139,hexagon,1,0,,,,,,,,,,,,,,,,repeat,letter,lettRpt,d,0.8803,Hi,,,,,,3,,,,,,,,low,2,0,2,0,1,,,,,,,,,
298024,2022-11-25_19h52.13.144,vts_reward_expectancy_bt,2022.2.4,MacIntel,59.84082341,Chrome,1440,900,,,,,10,1000,,,,,,,,,,,,,,,,,F,146,star,1,0,,,,,,,,,,,,,,,,switch,number,numSwt,j,0.7363,Lo,,,,,,3,,,,,,,,low,3,0,3,0,1,,,,,,,,,
298024,2022-11-25_19h52.13.144,vts_reward_expectancy_bt,2022.2.4,MacIntel,59.84082341,Chrome,1440,900,,,,,10,1010,,,,,,,,,,,,,,,,,B,181,circle,1,0,,,,,,,,,,,,,,,,repeat,number,numRpt,k,0.7435,Hi,,,,,,3,,,,,,,,low,4,0,4,0,1,,,,,,,,,
298024,2022-11-25_19h52.13.144,vts_reward_expectancy_bt,2022.2.4,MacIntel,59.84082341,Chrome,1440,900,,,,,1,1011,,,,,,,,,,,,,,,,,U,174,triangle,1,0,,,,,,,,,,,,,,,,switch,letter,lettSwt,f,0.8714,Lo,,,,,,3,,,,,,,,low,5,0,5,0,1,,,,,,,,,
298024,2022-11-25_19h52.13.144,vts_reward_expectancy_bt,2022.2.4,MacIntel,59.84082341,Chrome,1440,900,,,,,0,1011,,,,,,,,,,,,,,,,,S,132,hexagon,1,0,,,,,,,,,,,,,,,,repeat,letter,lettRpt,f,0.7612,Hi,,,,,,3,,,,,,,,low,6,0,6,0,1,,,,,,,,,
298024,2022-11-25_19h52.13.144,vts_reward_expectancy_bt,2022.2.4,MacIntel,59.84082341,Chrome,1440,900,,,,,1,1012,,,,,,,,,,,,,,,,,W,167,star,1,0,,,,,,,,,,,,,,,,repeat,letter,lettRpt,f,1.2185,Lo,,,,,,3,,,,,,,,low,7,0,7,0,1,,,,,,,,,
298024,2022-11-25_19h52.13.144,vts_reward_expectancy_bt,2022.2.4,MacIntel,59.84082341,Chrome,1440,900,,,,,1,1013,,,,,,,,,,,,,,,,,D,125,hexagon,1,0,,,,,,,,,,,,,,,,switch,number,numSwt,j,0.5801,Hi,,,,,,3,,,,,,,,low,8,0,8,0,1,,,,,,,,,
298024,2022-11-25_19h52.13.144,vts_reward_expectancy_bt,2022.2.4,MacIntel,59.84082341,Chrome,1440,900,,,,,1,1014,,,,,,,,,,,,,,,,,Y,160,star,1,0,,,,,,,,,,,,,,,,repeat,number,numRpt,k,1.4329,Lo,,,,,,3,,,,,,,,low,9,0,9,0,1,,,,,,,,,
298024,2022-11-25_19h52.13.144,vts_reward_expectancy_bt,2022.2.4,MacIntel,59.84082341,Chrome,1440,900,,,,,0,1014,,,,,,,,,,,,,,,,,H,139,circle,1,0,,,,,,,,,,,,,,,,repeat,number,numRpt,j,1.9192,Hi,,,,,,3,,,,,,,,low,10,0,10,0,1,,,,,,,,,
298024,2022-11-25_19h52.13.144,vts_reward_expectancy_bt,2022.2.4,MacIntel,59.84082341,Chrome,1440,900,,,,,1,1015,,,,,,,,,,,,,,,,,F,146,triangle,1,0,,,,,,,,,,,,,,,,repeat,number,numRpt,j,0.6856,Lo,,,,,,3,,,,,,,,low,11,0,11,0,1,,,,,,,,,
298024,2022-11-25_19h52.13.144,vts_reward_expectancy_bt,2022.2.4,MacIntel,59.84082341,Chrome,1440,900,,,,,1,1016,,,,,,,,,,,,,,,,,B,181,star,1,0,,,,,,,,,,,,,,,,repeat,number,numRpt,k,0.7844,Lo,,,,,,3,,,,,,,,low,12,0,12,0,1,,,,,,,,,
298024,2022-11-25_19h52.13.144,vts_reward_expectancy_bt,2022.2.4,MacIntel,59.84082341,Chrome,1440,900,,,,,0,1016,,,,,,,,,,,,,,,,,U,174,triangle,-1,0,,,,,,,,,,,,,,,,switch,no_choice,NA,,,Lo,,,,,,3,,,,,,,,low,13,0,13,0,1,,,,,,,,,
298024,2022-11-25_19h52.13.144,vts_reward_expectancy_bt,2022.2.4,MacIntel,59.84082341,Chrome,1440,900,,,,,10,1026,,,,,,,,,,,,,,,,,S,132,hexagon,1,0,,,,,,,,,,,,,,,,switch,number,numSwt,j,0.6184,Hi,,,,,,3,,,,,,,,low,14,0,14,0,1,,,,,,,,,
298024,2022-11-25_19h52.13.144,vts_reward_expectancy_bt,2022.2.4,MacIntel,59.84082341,Chrome,1440,900,,,,,1,1027,,,,,,,,,,,,,,,,,W,167,circle,1,0,,,,,,,,,,,,,,,,repeat,number,numRpt,k,0.7382,Hi,,,,,,3,,,,,,,,low,15,0,15,0,1,,,,,,,,,
298024,2022-11-25_19h52.13.144,vts_reward_expectancy_bt,2022.2.4,MacIntel,59.84082341,Chrome,1440,900,,,,,1,1028,,,,,,,,,,,,,,,,,F,181,star,1,0,,,,,,,,,,,,,,,,repeat,number,numRpt,k,0.6011,Lo,,,,,,3,,,,,,,,low,16,0,16,0,1,,,,,,,,,
298024,2022-11-25_19h52.13.144,vts_reward_expectancy_bt,2022.2.4,MacIntel,59.84082341,Chrome,1440,900,,,,,10,1038,,,,,,,,,,,,,,,,,B,174,triangle,1,0,,,,,,,,,,,,,,,,switch,letter,lettSwt,d,0.7997,Lo,,,,,,3,,,,,,,,low,17,0,17,0,1,,,,,,,,,
298024,2022-11-25_19h52.13.144,vts_reward_expectancy_bt,2022.2.4,MacIntel,59.84082341,Chrome,1440,900,,,,,1,1039,,,,,,,,,,,,,,,,,Y,167,circle,1,0,,,,,,,,,,,,,,,,switch,number,numSwt,k,0.5819,Hi,,,,,,3,,,,,,,,low,18,0,18,0,1,,,,,,,,,
298024,2022-11-25_19h52.13.144,vts_reward_expectancy_bt,2022.2.4,MacIntel,59.84082341,Chrome,1440,900,,,,,0,1039,,,,,,,,,,,,,,,,,W,160,hexagon,1,0,,,,,,,,,,,,,,,,repeat,number,numRpt,k,1.2816,Hi,,,,,,3,,,,,,,,low,19,0,19,0,1,,,,,,,,,
298024,2022-11-25_19h52.13.144,vts_reward_expectancy_bt,2022.2.4,MacIntel,59.84082341,Chrome,1440,900,,,,,1,1040,,,,,,,,,,,,,,,,,D,132,triangle,1,0,,,,,,,,,,,,,,,,switch,letter,lettSwt,d,0.685,Lo,,,,,,3,,,,,,,,low,20,0,20,0,1,,,,,,,,,
298024,2022-11-25_19h52.13.144,vts_reward_expectancy_bt,2022.2.4,MacIntel,59.84082341,Chrome,1440,900,,,,,1,1041,,,,,,,,,,,,,,,,,S,139,hexagon,1,0,,,,,,,,,,,,,,,,switch,number,numSwt,j,0.6835,Hi,,,,,,3,,,,,,,,low,21,0,21,0,1,,,,,,,,,
298024,2022-11-25_19h52.13.144,vts_reward_expectancy_bt,2022.2.4,MacIntel,59.84082341,Chrome,1440,900,,,,,1,1042,,,,,,,,,,,,,,,,,H,125,star,1,0,,,,,,,,,,,,,,,,repeat,number,numRpt,j,0.6528,Lo,,,,,,3,,,,,,,,low,22,0,22,0,1,,,,,,,,,
298024,2022-11-25_19h52.13.144,vts_reward_expectancy_bt,2022.2.4,MacIntel,59.84082341,Chrome,1440,900,,,,,1,1043,,,,,,,,,,,,,,,,,U,146,circle,1,0,,,,,,,,,,,,,,,,repeat,number,numRpt,j,0.722,Hi,,,,,,3,,,,,,,,low,23,0,23,0,1,,,,,,,,,
298024,2022-11-25_19h52.13.144,vts_reward_expectancy_bt,2022.2.4,MacIntel,59.84082341,Chrome,1440,900,,,,,1,1044,,,,,,,,,,,,,,,,,H,160,star,1,0,,,,,,,,,,,,,,,,repeat,number,numRpt,k,0.7003,Lo,,,,,,3,,,,,,,,low,24,0,24,0,1,,,,,,,,,
298024,2022-11-25_19h52.13.144,vts_reward_expectancy_bt,2022.2.4,MacIntel,59.84082341,Chrome,1440,900,,,,,0,1044,,,,,,,,,,,,,,,,,D,139,circle,1,0,,,,,,,,,,,,,,,,switch,letter,lettSwt,d,1.4149,Hi,,,,,,3,,,,,,,,low,25,0,25,0,1,,,,,,,,,
298024,2022-11-25_19h52.13.144,vts_reward_expectancy_bt,2022.2.4,MacIntel,59.84082341,Chrome,1440,900,,,,,10,1054,,,,,,,,,,,,,,,,,U,167,hexagon,1,0,,,,,,,,,,,,,,,,switch,number,numSwt,k,0.6336,Hi,,,,,,3,,,,,,,,low,26,0,26,0,1,,,,,,,,,
298024,2022-11-25_19h52.13.144,vts_reward_expectancy_bt,2022.2.4,MacIntel,59.84082341,Chrome,1440,900,,,,,1,1055,,,,,,,,,,,,,,,,,B,174,triangle,1,0,,,,,,,,,,,,,,,,repeat,number,numRpt,k,1.9397,Lo,,,,,,3,,,,,,,,low,27,0,27,0,1,,,,,,,,,
298024,2022-11-25_19h52.13.144,vts_reward_expectancy_bt,2022.2.4,MacIntel,59.84082341,Chrome,1440,900,,,,,1,1056,,,,,,,,,,,,,,,,,F,181,star,1,0,,,,,,,,,,,,,,,,repeat,number,numRpt,k,0.8158,Lo,,,,,,3,,,,,,,,low,28,0,28,0,1,,,,,,,,,
298024,2022-11-25_19h52.13.144,vts_reward_expectancy_bt,2022.2.4,MacIntel,59.84082341,Chrome,1440,900,,,,,0,1056,,,,,,,,,,,,,,,,,S,125,hexagon,1,0,,,,,,,,,,,,,,,,repeat,number,numRpt,j,0.7683,Hi,,,,,,3,,,,,,,,low,29,0,29,0,1,,,,,,,,,
298024,2022-11-25_19h52.13.144,vts_reward_expectancy_bt,2022.2.4,MacIntel,59.84082341,Chrome,1440,900,,,,,10,1066,,,,,,,,,,,,,,,,,W,146,triangle,1,0,,,,,,,,,,,,,,,,repeat,number,numRpt,j,0.8009,Lo,,,,,,3,,,,,,,,low,30,0,30,0,1,,,,,,,,,
298024,2022-11-25_19h52.13.144,vts_reward_expectancy_bt,2022.2.4,MacIntel,59.84082341,Chrome,1440,900,,,,,1,1067,,,,,,,,,,,,,,,,,Y,132,circle,1,0,,,,,,,,,,,,,,,,repeat,number,numRpt,j,0.6699,Hi,,,,,,3,,,,,,,,low,31,0,31,0,1,,,,,,,,,
298024,2022-11-25_19h52.13.144,vts_reward_expectancy_bt,2022.2.4,MacIntel,59.84082341,Chrome,1440,900,,,,,1,1068,,,,,,,,,,,,,,,,,H,160,triangle,1,0,,,,,,,,,,,,,,,,repeat,number,numRpt,k,0.8986,Lo,,,,,,4,,,,,,space,3.4909,low,0,0,0,0,1,,,,,,,,,
298024,2022-11-25_19h52.13.144,vts_reward_expectancy_bt,2022.2.4,MacIntel,59.84082341,Chrome,1440,900,,,,,1,1069,,,,,,,,,,,,,,,,,U,146,star,1,0,,,,,,,,,,,,,,,,repeat,number,numRpt,j,0.8643,Lo,,,,,,4,,,,,,,,low,1,0,1,0,1,,,,,,,,,
298024,2022-11-25_19h52.13.144,vts_reward_expectancy_bt,2022.2.4,MacIntel,59.84082341,Chrome,1440,900,,,,,0,1069,,,,,,,,,,,,,,,,,B,139,circle,1,0,,,,,,,,,,,,,,,,repeat,number,numRpt,j,0.7478,Hi,,,,,,4,,,,,,,,low,2,0,2,0,1,,,,,,,,,
298024,2022-11-25_19h52.13.144,vts_reward_expectancy_bt,2022.2.4,MacIntel,59.84082341,Chrome,1440,900,,,,,1,1070,,,,,,,,,,,,,,,,,D,132,hexagon,1,0,,,,,,,,,,,,,,,,switch,letter,lettSwt,d,0.6984,Hi,,,,,,4,,,,,,,,low,3,0,3,0,1,,,,,,,,,
298024,2022-11-25_19h52.13.144,vts_reward_expectancy_bt,2022.2.4,MacIntel,59.84082341,Chrome,1440,900,,,,,1,1071,,,,,,,,,,,,,,,,,Y,125,triangle,1,0,,,,,,,,,,,,,,,,repeat,letter,lettRpt,f,0.6369,Lo,,,,,,4,,,,,,,,low,4,0,4,0,1,,,,,,,,,
298024,2022-11-25_19h52.13.144,vts_reward_expectancy_bt,2022.2.4,MacIntel,59.84082341,Chrome,1440,900,,,,,10,1081,,,,,,,,,,,,,,,,,F,181,star,1,0,,,,,,,,,,,,,,,,repeat,letter,lettRpt,d,0.7683,Lo,,,,,,4,,,,,,,,low,5,0,5,0,1,,,,,,,,,
298024,2022-11-25_19h52.13.144,vts_reward_expectancy_bt,2022.2.4,MacIntel,59.84082341,Chrome,1440,900,,,,,0,1081,,,,,,,,,,,,,,,,,W,167,circle,1,0,,,,,,,,,,,,,,,,switch,number,numSwt,k,0.7158,Hi,,,,,,4,,,,,,,,low,6,0,6,0,1,,,,,,,,,
298024,2022-11-25_19h52.13.144,vts_reward_expectancy_bt,2022.2.4,MacIntel,59.84082341,Chrome,1440,900,,,,,10,1091,,,,,,,,,,,,,,,,,S,174,hexagon,1,0,,,,,,,,,,,,,,,,repeat,number,numRpt,k,0.5342,Hi,,,,,,4,,,,,,,,low,7,0,7,0,1,,,,,,,,,
298024,2022-11-25_19h52.13.144,vts_reward_expectancy_bt,2022.2.4,MacIntel,59.84082341,Chrome,1440,900,,,,,1,1092,,,,,,,,,,,,,,,,,H,160,star,1,0,,,,,,,,,,,,,,,,repeat,number,numRpt,k,0.6306,Lo,,,,,,4,,,,,,,,low,8,0,8,0,1,,,,,,,,,
298024,2022-11-25_19h52.13.144,vts_reward_expectancy_bt,2022.2.4,MacIntel,59.84082341,Chrome,1440,900,,,,,1,1093,,,,,,,,,,,,,,,,,U,146,triangle,1,0,,,,,,,,,,,,,,,,repeat,number,numRpt,j,0.8802,Lo,,,,,,4,,,,,,,,low,9,0,9,0,1,,,,,,,,,
298024,2022-11-25_19h52.13.144,vts_reward_expectancy_bt,2022.2.4,MacIntel,59.84082341,Chrome,1440,900,,,,,10,1103,,,,,,,,,,,,,,,,,B,139,hexagon,1,0,,,,,,,,,,,,,,,,repeat,number,numRpt,j,0.6319,Hi,,,,,,4,,,,,,,,low,10,0,10,0,1,,,,,,,,,
298024,2022-11-25_19h52.13.144,vts_reward_expectancy_bt,2022.2.4,MacIntel,59.84082341,Chrome,1440,900,,,,,0,1103,,,,,,,,,,,,,,,,,D,132,circle,1,0,,,,,,,,,,,,,,,,repeat,number,numRpt,j,1.1826,Hi,,,,,,4,,,,,,,,low,11,0,11,0,1,,,,,,,,,
298024,2022-11-25_19h52.13.144,vts_reward_expectancy_bt,2022.2.4,MacIntel,59.84082341,Chrome,1440,900,,,,,1,1104,,,,,,,,,,,,,,,,,Y,125,star,1,0,,,,,,,,,,,,,,,,repeat,number,numRpt,j,0.7505,Lo,,,,,,4,,,,,,,,low,12,0,12,0,1,,,,,,,,,
298024,2022-11-25_19h52.13.144,vts_reward_expectancy_bt,2022.2.4,MacIntel,59.84082341,Chrome,1440,900,,,,,1,1105,,,,,,,,,,,,,,,,,F,181,triangle,1,0,,,,,,,,,,,,,,,,repeat,number,numRpt,k,0.5803,Lo,,,,,,4,,,,,,,,low,13,0,13,0,1,,,,,,,,,
298024,2022-11-25_19h52.13.144,vts_reward_expectancy_bt,2022.2.4,MacIntel,59.84082341,Chrome,1440,900,,,,,10,1115,,,,,,,,,,,,,,,,,W,167,hexagon,1,0,,,,,,,,,,,,,,,,repeat,number,numRpt,k,0.6315,Hi,,,,,,4,,,,,,,,low,14,0,14,0,1,,,,,,,,,
298024,2022-11-25_19h52.13.144,vts_reward_expectancy_bt,2022.2.4,MacIntel,59.84082341,Chrome,1440,900,,,,,1,1116,,,,,,,,,,,,,,,,,S,174,circle,1,0,,,,,,,,,,,,,,,,repeat,number,numRpt,k,0.6817,Hi,,,,,,4,,,,,,,,low,15,0,15,0,1,,,,,,,,,
298024,2022-11-25_19h52.13.144,vts_reward_expectancy_bt,2022.2.4,MacIntel,59.84082341,Chrome,1440,900,,,,,10,1126,,,,,,,,,,,,,,,,,H,181,hexagon,1,0,,,,,,,,,,,,,,,,repeat,number,numRpt,k,0.5706,Hi,,,,,,4,,,,,,,,low,16,0,16,0,1,,,,,,,,,
298024,2022-11-25_19h52.13.144,vts_reward_expectancy_bt,2022.2.4,MacIntel,59.84082341,Chrome,1440,900,,,,,1,1127,,,,,,,,,,,,,,,,,S,160,star,1,0,,,,,,,,,,,,,,,,repeat,number,numRpt,k,0.6482,Lo,,,,,,4,,,,,,,,low,17,0,17,0,1,,,,,,,,,
298024,2022-11-25_19h52.13.144,vts_reward_expectancy_bt,2022.2.4,MacIntel,59.84082341,Chrome,1440,900,,,,,10,1137,,,,,,,,,,,,,,,,,U,125,circle,1,0,,,,,,,,,,,,,,,,repeat,number,numRpt,j,0.684,Hi,,,,,,4,,,,,,,,low,18,0,18,0,1,,,,,,,,,
298024,2022-11-25_19h52.13.144,vts_reward_expectancy_bt,2022.2.4,MacIntel,59.84082341,Chrome,1440,900,,,,,1,1138,,,,,,,,,,,,,,,,,D,132,triangle,1,0,,,,,,,,,,,,,,,,switch,letter,lettSwt,d,0.7315,Lo,,,,,,4,,,,,,,,low,19,0,19,0,1,,,,,,,,,
298024,2022-11-25_19h52.13.144,vts_reward_expectancy_bt,2022.2.4,MacIntel,59.84082341,Chrome,1440,900,,,,,0,1138,,,,,,,,,,,,,,,,,Y,146,hexagon,1,0,,,,,,,,,,,,,,,,switch,number,numSwt,j,0.6147,Hi,,,,,,4,,,,,,,,low,20,0,20,0,1,,,,,,,,,
298024,2022-11-25_19h52.13.144,vts_reward_expectancy_bt,2022.2.4,MacIntel,59.84082341,Chrome,1440,900,,,,,1,1139,,,,,,,,,,,,,,,,,W,139,triangle,1,0,,,,,,,,,,,,,,,,repeat,number,numRpt,j,1.3685,Lo,,,,,,4,,,,,,,,low,21,0,21,0,1,,,,,,,,,
298024,2022-11-25_19h52.13.144,vts_reward_expectancy_bt,2022.2.4,MacIntel,59.84082341,Chrome,1440,900,,,,,0,1139,,,,,,,,,,,,,,,,,B,167,circle,0,0,,,,,,,,,,,,,,,,repeat,number,NA,j,0.615,Lo,,,,,,4,,,,,,,,low,22,0,22,0,1,,,,,,,,,
298024,2022-11-25_19h52.13.144,vts_reward_expectancy_bt,2022.2.4,MacIntel,59.84082341,Chrome,1440,900,,,,,10,1149,,,,,,,,,,,,,,,,,F,174,star,1,1,,,,,,,,,,,,,,,,repeat,number,numRpt,k,0.9149,Lo,,,,,,4,,,,,,,,low,23,0,23,0,1,,,,,,,,,
298024,2022-11-25_19h52.13.144,vts_reward_expectancy_bt,2022.2.4,MacIntel,59.84082341,Chrome,1440,900,,,,,1,1150,,,,,,,,,,,,,,,,,Y,132,triangle,1,0,,,,,,,,,,,,,,,,repeat,number,numRpt,j,0.8146,Lo,,,,,,4,,,,,,,,low,24,0,24,0,1,,,,,,,,,
298024,2022-11-25_19h52.13.144,vts_reward_expectancy_bt,2022.2.4,MacIntel,59.84082341,Chrome,1440,900,,,,,1,1151,,,,,,,,,,,,,,,,,F,167,star,1,0,,,,,,,,,,,,,,,,repeat,number,numRpt,k,0.8142,Lo,,,,,,4,,,,,,,,low,25,0,25,0,1,,,,,,,,,
298024,2022-11-25_19h52.13.144,vts_reward_expectancy_bt,2022.2.4,MacIntel,59.84082341,Chrome,1440,900,,,,,0,1151,,,,,,,,,,,,,,,,,H,174,circle,1,0,,,,,,,,,,,,,,,,repeat,number,numRpt,k,0.7491,Hi,,,,,,4,,,,,,,,low,26,0,26,0,1,,,,,,,,,
298024,2022-11-25_19h52.13.144,vts_reward_expectancy_bt,2022.2.4,MacIntel,59.84082341,Chrome,1440,900,,,,,0,1151,,,,,,,,,,,,,,,,,U,146,hexagon,1,0,,,,,,,,,,,,,,,,repeat,number,numRpt,j,0.7819,Hi,,,,,,4,,,,,,,,low,27,0,27,0,1,,,,,,,,,
298024,2022-11-25_19h52.13.144,vts_reward_expectancy_bt,2022.2.4,MacIntel,59.84082341,Chrome,1440,900,,,,,0,1151,,,,,,,,,,,,,,,,,W,139,circle,1,0,,,,,,,,,,,,,,,,repeat,number,numRpt,j,0.9497,Hi,,,,,,4,,,,,,,,low,28,0,28,0,1,,,,,,,,,
298024,2022-11-25_19h52.13.144,vts_reward_expectancy_bt,2022.2.4,MacIntel,59.84082341,Chrome,1440,900,,,,,1,1152,,,,,,,,,,,,,,,,,D,160,star,1,0,,,,,,,,,,,,,,,,repeat,number,numRpt,k,1.0355,Lo,,,,,,4,,,,,,,,low,29,0,29,0,1,,,,,,,,,
298024,2022-11-25_19h52.13.144,vts_reward_expectancy_bt,2022.2.4,MacIntel,59.84082341,Chrome,1440,900,,,,,10,1162,,,,,,,,,,,,,,,,,S,125,hexagon,1,0,,,,,,,,,,,,,,,,repeat,number,numRpt,j,0.6179,Hi,,,,,,4,,,,,,,,low,30,0,30,0,1,,,,,,,,,
298024,2022-11-25_19h52.13.144,vts_reward_expectancy_bt,2022.2.4,MacIntel,59.84082341,Chrome,1440,900,,,,,1,1163,,,,,,,,,,,,,,,,,B,181,triangle,1,0,,,,,,,,,,,,,,,,repeat,number,numRpt,k,1.0172,Lo,,,,,,4,,,,,,,,low,31,0,31,0,1,,,,,,,,,
298024,2022-11-25_19h52.13.144,vts_reward_expectancy_bt,2022.2.4,MacIntel,59.84082341,Chrome,1440,900,,,,,10,1173,,,,,,,,,,,,,,,,,U,174,triangle,1,0,,,,,,,,,,,,,,,,repeat,number,numRpt,k,0.7482,Lo,,,,,,5,,,,,,space,1.1628,low,0,0,0,0,1,,,,,,,,,
298024,2022-11-25_19h52.13.144,vts_reward_expectancy_bt,2022.2.4,MacIntel,59.84082341,Chrome,1440,900,,,,,10,1183,,,,,,,,,,,,,,,,,F,146,star,1,0,,,,,,,,,,,,,,,,repeat,number,numRpt,j,1.0997,Lo,,,,,,5,,,,,,,,low,1,0,1,0,1,,,,,,,,,
298024,2022-11-25_19h52.13.144,vts_reward_expectancy_bt,2022.2.4,MacIntel,59.84082341,Chrome,1440,900,,,,,0,1183,,,,,,,,,,,,,,,,,W,181,circle,1,0,,,,,,,,,,,,,,,,switch,letter,lettSwt,f,1.0471,Hi,,,,,,5,,,,,,,,low,2,0,2,0,1,,,,,,,,,
298024,2022-11-25_19h52.13.144,vts_reward_expectancy_bt,2022.2.4,MacIntel,59.84082341,Chrome,1440,900,,,,,1,1184,,,,,,,,,,,,,,,,,D,139,hexagon,1,0,,,,,,,,,,,,,,,,switch,number,numSwt,j,0.7145,Hi,,,,,,5,,,,,,,,low,3,0,3,0,1,,,,,,,,,
298024,2022-11-25_19h52.13.144,vts_reward_expectancy_bt,2022.2.4,MacIntel,59.84082341,Chrome,1440,900,,,,,10,1194,,,,,,,,,,,,,,,,,S,167,triangle,1,0,,,,,,,,,,,,,,,,switch,letter,lettSwt,f,0.7136,Lo,,,,,,5,,,,,,,,low,4,0,4,0,1,,,,,,,,,
298024,2022-11-25_19h52.13.144,vts_reward_expectancy_bt,2022.2.4,MacIntel,59.84082341,Chrome,1440,900,,,,,10,1204,,,,,,,,,,,,,,,,,Y,125,star,1,0,,,,,,,,,,,,,,,,switch,number,numSwt,j,0.5827,Lo,,,,,,5,,,,,,,,low,5,0,5,0,1,,,,,,,,,
298024,2022-11-25_19h52.13.144,vts_reward_expectancy_bt,2022.2.4,MacIntel,59.84082341,Chrome,1440,900,,,,,10,1214,,,,,,,,,,,,,,,,,B,132,circle,1,0,,,,,,,,,,,,,,,,switch,letter,lettSwt,d,0.6493,Hi,,,,,,5,,,,,,,,low,6,0,6,0,1,,,,,,,,,
298024,2022-11-25_19h52.13.144,vts_reward_expectancy_bt,2022.2.4,MacIntel,59.84082341,Chrome,1440,900,,,,,0,1214,,,,,,,,,,,,,,,,,H,160,hexagon,1,0,,,,,,,,,,,,,,,,switch,number,numSwt,k,0.7494,Hi,,,,,,5,,,,,,,,low,7,0,7,0,1,,,,,,,,,
298024,2022-11-25_19h52.13.144,vts_reward_expectancy_bt,2022.2.4,MacIntel,59.84082341,Chrome,1440,900,,,,,1,1215,,,,,,,,,,,,,,,,,U,174,hexagon,1,0,,,,,,,,,,,,,,,,repeat,number,numRpt,k,0.6148,Hi,,,,,,5,,,,,,,,low,8,0,8,0,1,,,,,,,,,
298024,2022-11-25_19h52.13.144,vts_reward_expectancy_bt,2022.2.4,MacIntel,59.84082341,Chrome,1440,900,,,,,1,1216,,,,,,,,,,,,,,,,,F,146,triangle,1,0,,,,,,,,,,,,,,,,switch,letter,lettSwt,d,0.9227,Lo,,,,,,5,,,,,,,,low,9,0,9,0,1,,,,,,,,,
298024,2022-11-25_19h52.13.144,vts_reward_expectancy_bt,2022.2.4,MacIntel,59.84082341,Chrome,1440,900,,,,,1,1217,,,,,,,,,,,,,,,,,W,181,star,1,0,,,,,,,,,,,,,,,,switch,number,numSwt,k,0.664,Lo,,,,,,5,,,,,,,,low,10,0,10,0,1,,,,,,,,,
298024,2022-11-25_19h52.13.144,vts_reward_expectancy_bt,2022.2.4,MacIntel,59.84082341,Chrome,1440,900,,,,,0,1217,,,,,,,,,,,,,,,,,D,139,circle,1,0,,,,,,,,,,,,,,,,repeat,number,numRpt,j,0.7712,Hi,,,,,,5,,,,,,,,low,11,0,11,0,1,,,,,,,,,
298024,2022-11-25_19h52.13.144,vts_reward_expectancy_bt,2022.2.4,MacIntel,59.84082341,Chrome,1440,900,,,,,0,1217,,,,,,,,,,,,,,,,,S,167,hexagon,1,0,,,,,,,,,,,,,,,,repeat,number,numRpt,k,0.9677,Hi,,,,,,5,,,,,,,,low,12,0,12,0,1,,,,,,,,,
298024,2022-11-25_19h52.13.144,vts_reward_expectancy_bt,2022.2.4,MacIntel,59.84082341,Chrome,1440,900,,,,,1,1218,,,,,,,,,,,,,,,,,Y,125,triangle,1,0,,,,,,,,,,,,,,,,repeat,number,numRpt,j,0.7158,Lo,,,,,,5,,,,,,,,low,13,0,13,0,1,,,,,,,,,
298024,2022-11-25_19h52.13.144,vts_reward_expectancy_bt,2022.2.4,MacIntel,59.84082341,Chrome,1440,900,,,,,0,1218,,,,,,,,,,,,,,,,,B,132,circle,1,0,,,,,,,,,,,,,,,,repeat,number,numRpt,j,1.5388,Hi,,,,,,5,,,,,,,,low,14,0,14,0,1,,,,,,,,,
298024,2022-11-25_19h52.13.144,vts_reward_expectancy_bt,2022.2.4,MacIntel,59.84082341,Chrome,1440,900,,,,,1,1219,,,,,,,,,,,,,,,,,H,160,star,1,0,,,,,,,,,,,,,,,,repeat,number,numRpt,k,0.6655,Lo,,,,,,5,,,,,,,,low,15,0,15,0,1,,,,,,,,,
298024,2022-11-25_19h52.13.144,vts_reward_expectancy_bt,2022.2.4,MacIntel,59.84082341,Chrome,1440,900,,,,,10,1229,,,,,,,,,,,,,,,,,U,174,circle,1,0,,,,,,,,,,,,,,,,repeat,number,numRpt,k,0.4999,Hi,,,,,,5,,,,,,,,low,16,0,16,0,1,,,,,,,,,
298024,2022-11-25_19h52.13.144,vts_reward_expectancy_bt,2022.2.4,MacIntel,59.84082341,Chrome,1440,900,,,,,10,1239,,,,,,,,,,,,,,,,,H,167,star,1,0,,,,,,,,,,,,,,,,switch,letter,lettSwt,d,0.8718,Lo,,,,,,5,,,,,,,,low,17,0,17,0,1,,,,,,,,,
298024,2022-11-25_19h52.13.144,vts_reward_expectancy_bt,2022.2.4,MacIntel,59.84082341,Chrome,1440,900,,,,,10,1249,,,,,,,,,,,,,,,,,S,125,hexagon,1,0,,,,,,,,,,,,,,,,switch,number,numSwt,j,0.6506,Hi,,,,,,5,,,,,,,,low,18,0,18,0,1,,,,,,,,,
298024,2022-11-25_19h52.13.144,vts_reward_expectancy_bt,2022.2.4,MacIntel,59.84082341,Chrome,1440,900,,,,,1,1250,,,,,,,,,,,,,,,,,B,146,triangle,1,0,,,,,,,,,,,,,,,,switch,letter,lettSwt,d,0.6674,Lo,,,,,,5,,,,,,,,low,19,0,19,0,1,,,,,,,,,
298024,2022-11-25_19h52.13.144,vts_reward_expectancy_bt,2022.2.4,MacIntel,59.84082341,Chrome,1440,900,,,,,0,1250,,,,,,,,,,,,,,,,,Y,139,hexagon,1,0,,,,,,,,,,,,,,,,switch,number,numSwt,j,0.8807,Hi,,,,,,5,,,,,,,,low,20,0,20,0,1,,,,,,,,,
298024,2022-11-25_19h52.13.144,vts_reward_expectancy_bt,2022.2.4,MacIntel,59.84082341,Chrome,1440,900,,,,,1,1251,,,,,,,,,,,,,,,,,F,132,circle,1,0,,,,,,,,,,,,,,,,repeat,number,numRpt,j,0.6155,Hi,,,,,,5,,,,,,,,low,21,0,21,0,1,,,,,,,,,
298024,2022-11-25_19h52.13.144,vts_reward_expectancy_bt,2022.2.4,MacIntel,59.84082341,Chrome,1440,900,,,,,10,1261,,,,,,,,,,,,,,,,,D,160,star,1,0,,,,,,,,,,,,,,,,repeat,number,numRpt,k,0.4656,Lo,,,,,,5,,,,,,,,low,22,0,22,0,1,,,,,,,,,
298024,2022-11-25_19h52.13.144,vts_reward_expectancy_bt,2022.2.4,MacIntel,59.84082341,Chrome,1440,900,,,,,1,1262,,,,,,,,,,,,,,,,,W,181,triangle,1,0,,,,,,,,,,,,,,,,repeat,number,numRpt,k,0.6309,Lo,,,,,,5,,,,,,,,low,23,0,23,0,1,,,,,,,,,
298024,2022-11-25_19h52.13.144,vts_reward_expectancy_bt,2022.2.4,MacIntel,59.84082341,Chrome,1440,900,,,,,1,1263,,,,,,,,,,,,,,,,,S,132,star,1,0,,,,,,,,,,,,,,,,repeat,number,numRpt,j,0.5806,Lo,,,,,,5,,,,,,,,low,24,0,24,0,1,,,,,,,,,
298024,2022-11-25_19h52.13.144,vts_reward_expectancy_bt,2022.2.4,MacIntel,59.84082341,Chrome,1440,900,,,,,0,1263,,,,,,,,,,,,,,,,,H,167,hexagon,1,0,,,,,,,,,,,,,,,,repeat,number,numRpt,k,0.817,Hi,,,,,,5,,,,,,,,low,25,0,25,0,1,,,,,,,,,
298024,2022-11-25_19h52.13.144,vts_reward_expectancy_bt,2022.2.4,MacIntel,59.84082341,Chrome,1440,900,,,,,0,1263,,,,,,,,,,,,,,,,,W,139,triangle,0,0,,,,,,,,,,,,,,,,repeat,number,NA,k,0.8328,Hi,,,,,,5,,,,,,,,low,26,0,26,0,1,,,,,,,,,
298024,2022-11-25_19h52.13.144,vts_reward_expectancy_bt,2022.2.4,MacIntel,59.84082341,Chrome,1440,900,,,,,1,1264,,,,,,,,,,,,,,,,,Y,160,circle,1,1,,,,,,,,,,,,,,,,repeat,number,numRpt,k,0.4505,Hi,,,,,,5,,,,,,,,low,27,0,27,0,1,,,,,,,,,
298024,2022-11-25_19h52.13.144,vts_reward_expectancy_bt,2022.2.4,MacIntel,59.84082341,Chrome,1440,900,,,,,0,1264,,,,,,,,,,,,,,,,,F,174,circle,1,0,,,,,,,,,,,,,,,,repeat,number,numRpt,k,0.7834,Hi,,,,,,5,,,,,,,,low,28,0,28,0,1,,,,,,,,,
298024,2022-11-25_19h52.13.144,vts_reward_expectancy_bt,2022.2.4,MacIntel,59.84082341,Chrome,1440,900,,,,,1,1265,,,,,,,,,,,,,,,,,D,146,hexagon,1,0,,,,,,,,,,,,,,,,repeat,number,numRpt,j,0.5346,Hi,,,,,,5,,,,,,,,low,29,0,29,0,1,,,,,,,,,
298024,2022-11-25_19h52.13.144,vts_reward_expectancy_bt,2022.2.4,MacIntel,59.84082341,Chrome,1440,900,,,,,1,1266,,,,,,,,,,,,,,,,,U,125,triangle,1,0,,,,,,,,,,,,,,,,repeat,number,numRpt,j,0.581,Lo,,,,,,5,,,,,,,,low,30,0,30,0,1,,,,,,,,,
298024,2022-11-25_19h52.13.144,vts_reward_expectancy_bt,2022.2.4,MacIntel,59.84082341,Chrome,1440,900,,,,,10,1276,,,,,,,,,,,,,,,,,B,181,star,1,0,,,,,,,,,,,,,,,,switch,letter,lettSwt,d,2.3046,Lo,,,,,,5,,,,,,,,low,31,0,31,0,1,,,,,,,,,
298024,2022-11-25_19h52.13.144,vts_reward_expectancy_bt,2022.2.4,MacIntel,59.84082341,Chrome,1440,900,,,,,10,1286,,,,,,,,,,,,,,,,,B,125,triangle,1,0,,,,,,,,,,,,,,,,repeat,letter,lettRpt,d,1.4522,Lo,,,,,,6,,,,,,space,3.1404,low,0,0,0,0,1,,,,,,,,,
298024,2022-11-25_19h52.13.144,vts_reward_expectancy_bt,2022.2.4,MacIntel,59.84082341,Chrome,1440,900,,,,,1,1287,,,,,,,,,,,,,,,,,W,146,star,1,0,,,,,,,,,,,,,,,,switch,number,numSwt,j,1.9722,Lo,,,,,,6,,,,,,,,low,1,0,1,0,1,,,,,,,,,
298024,2022-11-25_19h52.13.144,vts_reward_expectancy_bt,2022.2.4,MacIntel,59.84082341,Chrome,1440,900,,,,,0,1287,,,,,,,,,,,,,,,,,Y,160,hexagon,1,0,,,,,,,,,,,,,,,,switch,letter,lettSwt,f,0.7146,Hi,,,,,,6,,,,,,,,low,2,0,2,0,1,,,,,,,,,
298024,2022-11-25_19h52.13.144,vts_reward_expectancy_bt,2022.2.4,MacIntel,59.84082341,Chrome,1440,900,,,,,0,1287,,,,,,,,,,,,,,,,,S,174,circle,0,0,,,,,,,,,,,,,,,,repeat,letter,NA,d,0.6138,Hi,,,,,,6,,,,,,,,low,3,0,3,0,1,,,,,,,,,
298024,2022-11-25_19h52.13.144,vts_reward_expectancy_bt,2022.2.4,MacIntel,59.84082341,Chrome,1440,900,,,,,1,1288,,,,,,,,,,,,,,,,,D,139,triangle,1,1,,,,,,,,,,,,,,,,repeat,letter,lettRpt,d,0.5641,Lo,,,,,,6,,,,,,,,low,4,0,4,0,1,,,,,,,,,
298024,2022-11-25_19h52.13.144,vts_reward_expectancy_bt,2022.2.4,MacIntel,59.84082341,Chrome,1440,900,,,,,1,1289,,,,,,,,,,,,,,,,,U,181,star,1,0,,,,,,,,,,,,,,,,repeat,letter,lettRpt,f,0.9472,Lo,,,,,,6,,,,,,,,low,5,0,5,0,1,,,,,,,,,
298024,2022-11-25_19h52.13.144,vts_reward_expectancy_bt,2022.2.4,MacIntel,59.84082341,Chrome,1440,900,,,,,10,1299,,,,,,,,,,,,,,,,,H,167,hexagon,1,0,,,,,,,,,,,,,,,,repeat,letter,lettRpt,d,0.7811,Hi,,,,,,6,,,,,,,,low,6,0,6,0,1,,,,,,,,,
298024,2022-11-25_19h52.13.144,vts_reward_expectancy_bt,2022.2.4,MacIntel,59.84082341,Chrome,1440,900,,,,,10,1309,,,,,,,,,,,,,,,,,F,132,circle,1,0,,,,,,,,,,,,,,,,repeat,letter,lettRpt,d,0.783,Hi,,,,,,6,,,,,,,,low,7,0,7,0,1,,,,,,,,,
298024,2022-11-25_19h52.13.144,vts_reward_expectancy_bt,2022.2.4,MacIntel,59.84082341,Chrome,1440,900,,,,,1,1310,,,,,,,,,,,,,,,,,B,125,star,1,0,,,,,,,,,,,,,,,,repeat,letter,lettRpt,d,0.8353,Lo,,,,,,6,,,,,,,,low,8,0,8,0,1,,,,,,,,,
298024,2022-11-25_19h52.13.144,vts_reward_expectancy_bt,2022.2.4,MacIntel,59.84082341,Chrome,1440,900,,,,,10,1320,,,,,,,,,,,,,,,,,W,146,triangle,1,0,,,,,,,,,,,,,,,,repeat,letter,lettRpt,f,1.0313,Lo,,,,,,6,,,,,,,,low,9,0,9,0,1,,,,,,,,,
298024,2022-11-25_19h52.13.144,vts_reward_expectancy_bt,2022.2.4,MacIntel,59.84082341,Chrome,1440,900,,,,,1,1321,,,,,,,,,,,,,,,,,Y,160,hexagon,1,0,,,,,,,,,,,,,,,,repeat,letter,lettRpt,f,1.6337,Hi,,,,,,6,,,,,,,,low,10,0,10,0,1,,,,,,,,,
