participant,date,expName,psychopyVersion,OS,frameRate,browser,xResolution,yResolution,key_resp.keys,key_resp.rt,training_resp.keys,training_resp.rt,points_trial,points_cumul,trainBlock,training.thisRepN,training.thisTrialN,training.thisN,training.thisIndex,training.ran,LTriangleOpac,LCircleOpac,LHexagonOpac,LStarOpac,RTriangleOpac,RCircleOpac,RHexagonOpac,RStarOpac,LShape_ID,RShape_ID,curr_topStim,curr_bottStim,curr_shape,acc,E1,target_resp_prac1.keys,target_resp_prac1.rt,pracBlock,task1_prac_trials.thisRepN,task1_prac_trials.thisTrialN,task1_prac_trials.thisN,task1_prac_trials.thisIndex,task1_prac_trials.ran,target_resp_prac2.keys,target_resp_prac2.rt,task2_praac_trials.thisRepN,task2_praac_trials.thisTrialN,task2_praac_trials.thisN,task2_praac_trials.thisIndex,task2_praac_trials.ran,alt,task,condition,target_resp.keys,target_resp.rt,rewCond,vts_practice_trials.thisRepN,vts_practice_trials.thisTrialN,vts_practice_trials.thisN,vts_practice_trials.thisIndex,vts_practice_trials.ran,blockNum,trials_norew.thisRepN,trials_norew.thisTrialN,trials_norew.thisN,trials_norew.thisIndex,trials_norew.ran,key_resp_2.keys,key_resp_2.rt,rewExpectancy,trials_rew.thisRepN,trials_rew.thisTrialN,trials_rew.thisN,trials_rew.thisIndex,trials_rew.ran,Q1,Q2,Q2_text,Q3,Q4,Q5,Q5_text,xRes,yRes
298045,2022-12-07_14h24.06.592,vts_reward_expectancy_bt,2022.2.4,Win32,60.27364234,Chrome,1536,864,,,,,,,,,,,,,,,,,,,,,,,,,,,,,,,,,,,,,,,,,,,,,,,,,,,,,,,,,,,,,,,,,,,,,,,,,,,,
298045,2022-12-07_14h24.06.592,vts_reward_expectancy_bt,2022.2.4,Win32,60.27364234,Chrome,1536,864,space,5.7148,,,,,,,,,,,,,,,,,,,,,,,,,,,,,,,,,,,,,,,,,,,,,,,,,,,,,,,,,,,,,,,,,,,,,,,,,,
298045,2022-12-07_14h24.06.592,vts_reward_expectancy_bt,2022.2.4,Win32,60.27364234,Chrome,1536,864,,,,,,,,,,,,,,,,,,,,,,,,,,,,,,,,,,,,,,,,,,,,,,,,,,,,,,,,,,,,,,,,,,,,,,,,,,,,
298045,2022-12-07_14h24.06.592,vts_reward_expectancy_bt,2022.2.4,Win32,60.27364234,Chrome,1536,864,,,l,1.5142,10,10,0,0,0,0,8,1,0,0,1,0,0,0,0,1,hexagon,star,,,,,,,,,,,,,,,,,,,,,,,,,,,,,,,,,,,,,,,,,,,,,,,,,,,,,,
298045,2022-12-07_14h24.06.592,vts_reward_expectancy_bt,2022.2.4,Win32,60.27364234,Chrome,1536,864,,,a,1.1332,1,11,0,0,1,1,6,1,0,0,1,0,1,0,0,0,hexagon,triangle,,,,,,,,,,,,,,,,,,,,,,,,,,,,,,,,,,,,,,,,,,,,,,,,,,,,,,
298045,2022-12-07_14h24.06.592,vts_reward_expectancy_bt,2022.2.4,Win32,60.27364234,Chrome,1536,864,,,l,1.3412,10,21,0,0,2,2,1,1,1,0,0,0,0,0,1,0,triangle,hexagon,,,,,,,,,,,,,,,,,,,,,,,,,,,,,,,,,,,,,,,,,,,,,,,,,,,,,,
298045,2022-12-07_14h24.06.592,vts_reward_expectancy_bt,2022.2.4,Win32,60.27364234,Chrome,1536,864,,,l,1.1585,10,31,0,0,3,3,3,1,0,1,0,0,1,0,0,0,circle,triangle,,,,,,,,,,,,,,,,,,,,,,,,,,,,,,,,,,,,,,,,,,,,,,,,,,,,,,
298045,2022-12-07_14h24.06.592,vts_reward_expectancy_bt,2022.2.4,Win32,60.27364234,Chrome,1536,864,,,l,0.9338,1,32,0,0,4,4,4,1,0,1,0,0,0,0,1,0,circle,hexagon,,,,,,,,,,,,,,,,,,,,,,,,,,,,,,,,,,,,,,,,,,,,,,,,,,,,,,
298045,2022-12-07_14h24.06.592,vts_reward_expectancy_bt,2022.2.4,Win32,60.27364234,Chrome,1536,864,,,l,0.7318,10,42,0,0,5,5,2,1,1,0,0,0,0,0,0,1,triangle,star,,,,,,,,,,,,,,,,,,,,,,,,,,,,,,,,,,,,,,,,,,,,,,,,,,,,,,
298045,2022-12-07_14h24.06.592,vts_reward_expectancy_bt,2022.2.4,Win32,60.27364234,Chrome,1536,864,,,a,0.6795,1,43,0,0,6,6,7,1,0,0,1,0,0,1,0,0,hexagon,circle,,,,,,,,,,,,,,,,,,,,,,,,,,,,,,,,,,,,,,,,,,,,,,,,,,,,,,
298045,2022-12-07_14h24.06.592,vts_reward_expectancy_bt,2022.2.4,Win32,60.27364234,Chrome,1536,864,,,l,0.8453,10,53,0,0,7,7,5,1,0,1,0,0,0,0,0,1,circle,star,,,,,,,,,,,,,,,,,,,,,,,,,,,,,,,,,,,,,,,,,,,,,,,,,,,,,,
298045,2022-12-07_14h24.06.592,vts_reward_expectancy_bt,2022.2.4,Win32,60.27364234,Chrome,1536,864,,,a,0.5349,10,63,0,0,8,8,10,1,0,0,0,1,0,1,0,0,star ,circle,,,,,,,,,,,,,,,,,,,,,,,,,,,,,,,,,,,,,,,,,,,,,,,,,,,,,,
298045,2022-12-07_14h24.06.592,vts_reward_expectancy_bt,2022.2.4,Win32,60.27364234,Chrome,1536,864,,,a,0.9917,10,73,0,0,9,9,11,1,0,0,0,1,0,0,1,0,star,hexagon,,,,,,,,,,,,,,,,,,,,,,,,,,,,,,,,,,,,,,,,,,,,,,,,,,,,,,
298045,2022-12-07_14h24.06.592,vts_reward_expectancy_bt,2022.2.4,Win32,60.27364234,Chrome,1536,864,,,a,1.0972,10,83,0,0,10,10,9,1,0,0,0,1,1,0,0,0,star,triangle,,,,,,,,,,,,,,,,,,,,,,,,,,,,,,,,,,,,,,,,,,,,,,,,,,,,,,
298045,2022-12-07_14h24.06.592,vts_reward_expectancy_bt,2022.2.4,Win32,60.27364234,Chrome,1536,864,,,l,0.9838,10,93,0,0,11,11,0,1,1,0,0,0,0,1,0,0,triangle,circle,,,,,,,,,,,,,,,,,,,,,,,,,,,,,,,,,,,,,,,,,,,,,,,,,,,,,,
298045,2022-12-07_14h24.06.592,vts_reward_expectancy_bt,2022.2.4,Win32,60.27364234,Chrome,1536,864,,,a,1.2164,1,94,0,1,0,12,8,1,0,0,1,0,0,0,0,1,hexagon,star,,,,,,,,,,,,,,,,,,,,,,,,,,,,,,,,,,,,,,,,,,,,,,,,,,,,,,
298045,2022-12-07_14h24.06.592,vts_reward_expectancy_bt,2022.2.4,Win32,60.27364234,Chrome,1536,864,,,a,0.6667,1,95,0,1,1,13,10,1,0,0,0,1,0,1,0,0,star ,circle,,,,,,,,,,,,,,,,,,,,,,,,,,,,,,,,,,,,,,,,,,,,,,,,,,,,,,
298045,2022-12-07_14h24.06.592,vts_reward_expectancy_bt,2022.2.4,Win32,60.27364234,Chrome,1536,864,,,a,0.7517,1,96,0,1,2,14,6,1,0,0,1,0,1,0,0,0,hexagon,triangle,,,,,,,,,,,,,,,,,,,,,,,,,,,,,,,,,,,,,,,,,,,,,,,,,,,,,,
298045,2022-12-07_14h24.06.592,vts_reward_expectancy_bt,2022.2.4,Win32,60.27364234,Chrome,1536,864,,,a,0.8006,1,97,0,1,3,15,0,1,1,0,0,0,0,1,0,0,triangle,circle,,,,,,,,,,,,,,,,,,,,,,,,,,,,,,,,,,,,,,,,,,,,,,,,,,,,,,
298045,2022-12-07_14h24.06.592,vts_reward_expectancy_bt,2022.2.4,Win32,60.27364234,Chrome,1536,864,,,a,0.8672,10,107,0,1,4,16,9,1,0,0,0,1,1,0,0,0,star,triangle,,,,,,,,,,,,,,,,,,,,,,,,,,,,,,,,,,,,,,,,,,,,,,,,,,,,,,
298045,2022-12-07_14h24.06.592,vts_reward_expectancy_bt,2022.2.4,Win32,60.27364234,Chrome,1536,864,,,l,0.8091,1,108,0,1,5,17,4,1,0,1,0,0,0,0,1,0,circle,hexagon,,,,,,,,,,,,,,,,,,,,,,,,,,,,,,,,,,,,,,,,,,,,,,,,,,,,,,
298045,2022-12-07_14h24.06.592,vts_reward_expectancy_bt,2022.2.4,Win32,60.27364234,Chrome,1536,864,,,a,0.6066,1,109,0,1,6,18,3,1,0,1,0,0,1,0,0,0,circle,triangle,,,,,,,,,,,,,,,,,,,,,,,,,,,,,,,,,,,,,,,,,,,,,,,,,,,,,,
298045,2022-12-07_14h24.06.592,vts_reward_expectancy_bt,2022.2.4,Win32,60.27364234,Chrome,1536,864,,,l,0.8954,1,110,0,1,7,19,2,1,1,0,0,0,0,0,0,1,triangle,star,,,,,,,,,,,,,,,,,,,,,,,,,,,,,,,,,,,,,,,,,,,,,,,,,,,,,,
298045,2022-12-07_14h24.06.592,vts_reward_expectancy_bt,2022.2.4,Win32,60.27364234,Chrome,1536,864,,,l,0.9364,1,111,0,1,8,20,1,1,1,0,0,0,0,0,1,0,triangle,hexagon,,,,,,,,,,,,,,,,,,,,,,,,,,,,,,,,,,,,,,,,,,,,,,,,,,,,,,
298045,2022-12-07_14h24.06.592,vts_reward_expectancy_bt,2022.2.4,Win32,60.27364234,Chrome,1536,864,,,a,0.7606,1,112,0,1,9,21,7,1,0,0,1,0,0,1,0,0,hexagon,circle,,,,,,,,,,,,,,,,,,,,,,,,,,,,,,,,,,,,,,,,,,,,,,,,,,,,,,
298045,2022-12-07_14h24.06.592,vts_reward_expectancy_bt,2022.2.4,Win32,60.27364234,Chrome,1536,864,,,a,1.0397,10,122,0,1,10,22,5,1,0,1,0,0,0,0,0,1,circle,star,,,,,,,,,,,,,,,,,,,,,,,,,,,,,,,,,,,,,,,,,,,,,,,,,,,,,,
298045,2022-12-07_14h24.06.592,vts_reward_expectancy_bt,2022.2.4,Win32,60.27364234,Chrome,1536,864,,,l,1.0393,1,123,0,1,11,23,11,1,0,0,0,1,0,0,1,0,star,hexagon,,,,,,,,,,,,,,,,,,,,,,,,,,,,,,,,,,,,,,,,,,,,,,,,,,,,,,
298045,2022-12-07_14h24.06.592,vts_reward_expectancy_bt,2022.2.4,Win32,60.27364234,Chrome,1536,864,,,a,0.649,1,124,0,2,0,24,10,1,0,0,0,1,0,1,0,0,star ,circle,,,,,,,,,,,,,,,,,,,,,,,,,,,,,,,,,,,,,,,,,,,,,,,,,,,,,,
298045,2022-12-07_14h24.06.592,vts_reward_expectancy_bt,2022.2.4,Win32,60.27364234,Chrome,1536,864,,,l,0.6834,1,125,0,2,1,25,2,1,1,0,0,0,0,0,0,1,triangle,star,,,,,,,,,,,,,,,,,,,,,,,,,,,,,,,,,,,,,,,,,,,,,,,,,,,,,,
298045,2022-12-07_14h24.06.592,vts_reward_expectancy_bt,2022.2.4,Win32,60.27364234,Chrome,1536,864,,,l,0.9369,10,135,0,2,2,26,8,1,0,0,1,0,0,0,0,1,hexagon,star,,,,,,,,,,,,,,,,,,,,,,,,,,,,,,,,,,,,,,,,,,,,,,,,,,,,,,
298045,2022-12-07_14h24.06.592,vts_reward_expectancy_bt,2022.2.4,Win32,60.27364234,Chrome,1536,864,,,l,0.6516,1,136,0,2,3,27,4,1,0,1,0,0,0,0,1,0,circle,hexagon,,,,,,,,,,,,,,,,,,,,,,,,,,,,,,,,,,,,,,,,,,,,,,,,,,,,,,
298045,2022-12-07_14h24.06.592,vts_reward_expectancy_bt,2022.2.4,Win32,60.27364234,Chrome,1536,864,,,l,0.9639,1,137,0,2,4,28,11,1,0,0,0,1,0,0,1,0,star,hexagon,,,,,,,,,,,,,,,,,,,,,,,,,,,,,,,,,,,,,,,,,,,,,,,,,,,,,,
298045,2022-12-07_14h24.06.592,vts_reward_expectancy_bt,2022.2.4,Win32,60.27364234,Chrome,1536,864,,,l,0.7059,10,147,0,2,5,29,0,1,1,0,0,0,0,1,0,0,triangle,circle,,,,,,,,,,,,,,,,,,,,,,,,,,,,,,,,,,,,,,,,,,,,,,,,,,,,,,
298045,2022-12-07_14h24.06.592,vts_reward_expectancy_bt,2022.2.4,Win32,60.27364234,Chrome,1536,864,,,l,1.0683,10,157,0,2,6,30,5,1,0,1,0,0,0,0,0,1,circle,star,,,,,,,,,,,,,,,,,,,,,,,,,,,,,,,,,,,,,,,,,,,,,,,,,,,,,,
298045,2022-12-07_14h24.06.592,vts_reward_expectancy_bt,2022.2.4,Win32,60.27364234,Chrome,1536,864,,,l,0.6636,1,158,0,2,7,31,1,1,1,0,0,0,0,0,1,0,triangle,hexagon,,,,,,,,,,,,,,,,,,,,,,,,,,,,,,,,,,,,,,,,,,,,,,,,,,,,,,
298045,2022-12-07_14h24.06.592,vts_reward_expectancy_bt,2022.2.4,Win32,60.27364234,Chrome,1536,864,,,a,0.7093,10,168,0,2,8,32,9,1,0,0,0,1,1,0,0,0,star,triangle,,,,,,,,,,,,,,,,,,,,,,,,,,,,,,,,,,,,,,,,,,,,,,,,,,,,,,
298045,2022-12-07_14h24.06.592,vts_reward_expectancy_bt,2022.2.4,Win32,60.27364234,Chrome,1536,864,,,a,0.6816,10,178,0,2,9,33,6,1,0,0,1,0,1,0,0,0,hexagon,triangle,,,,,,,,,,,,,,,,,,,,,,,,,,,,,,,,,,,,,,,,,,,,,,,,,,,,,,
298045,2022-12-07_14h24.06.592,vts_reward_expectancy_bt,2022.2.4,Win32,60.27364234,Chrome,1536,864,,,a,0.8528,1,179,0,2,10,34,3,1,0,1,0,0,1,0,0,0,circle,triangle,,,,,,,,,,,,,,,,,,,,,,,,,,,,,,,,,,,,,,,,,,,,,,,,,,,,,,
298045,2022-12-07_14h24.06.592,vts_reward_expectancy_bt,2022.2.4,Win32,60.27364234,Chrome,1536,864,,,a,0.9179,1,180,0,2,11,35,7,1,0,0,1,0,0,1,0,0,hexagon,circle,,,,,,,,,,,,,,,,,,,,,,,,,,,,,,,,,,,,,,,,,,,,,,,,,,,,,,
298045,2022-12-07_14h24.06.592,vts_reward_expectancy_bt,2022.2.4,Win32,60.27364234,Chrome,1536,864,,,l,1.2223,10,190,1,0,0,0,8,1,0,0,1,0,0,0,0,1,hexagon,star,,,,,,,,,,,,,,,,,,,,,,,,,,,,,,,,,,,,,,,,,,,,,,,,,,,,,,
298045,2022-12-07_14h24.06.592,vts_reward_expectancy_bt,2022.2.4,Win32,60.27364234,Chrome,1536,864,,,a,0.5503,10,200,1,0,1,1,11,1,0,0,0,1,0,0,1,0,star,hexagon,,,,,,,,,,,,,,,,,,,,,,,,,,,,,,,,,,,,,,,,,,,,,,,,,,,,,,
298045,2022-12-07_14h24.06.592,vts_reward_expectancy_bt,2022.2.4,Win32,60.27364234,Chrome,1536,864,,,a,0.6326,10,210,1,0,2,2,9,1,0,0,0,1,1,0,0,0,star,triangle,,,,,,,,,,,,,,,,,,,,,,,,,,,,,,,,,,,,,,,,,,,,,,,,,,,,,,
298045,2022-12-07_14h24.06.592,vts_reward_expectancy_bt,2022.2.4,Win32,60.27364234,Chrome,1536,864,,,a,0.83,1,211,1,0,3,3,6,1,0,0,1,0,1,0,0,0,hexagon,triangle,,,,,,,,,,,,,,,,,,,,,,,,,,,,,,,,,,,,,,,,,,,,,,,,,,,,,,
298045,2022-12-07_14h24.06.592,vts_reward_expectancy_bt,2022.2.4,Win32,60.27364234,Chrome,1536,864,,,a,0.5714,1,212,1,0,4,4,7,1,0,0,1,0,0,1,0,0,hexagon,circle,,,,,,,,,,,,,,,,,,,,,,,,,,,,,,,,,,,,,,,,,,,,,,,,,,,,,,
298045,2022-12-07_14h24.06.592,vts_reward_expectancy_bt,2022.2.4,Win32,60.27364234,Chrome,1536,864,,,l,0.7344,1,213,1,0,5,5,2,1,1,0,0,0,0,0,0,1,triangle,star,,,,,,,,,,,,,,,,,,,,,,,,,,,,,,,,,,,,,,,,,,,,,,,,,,,,,,
298045,2022-12-07_14h24.06.592,vts_reward_expectancy_bt,2022.2.4,Win32,60.27364234,Chrome,1536,864,,,l,0.6976,1,214,1,0,6,6,1,1,1,0,0,0,0,0,1,0,triangle,hexagon,,,,,,,,,,,,,,,,,,,,,,,,,,,,,,,,,,,,,,,,,,,,,,,,,,,,,,
298045,2022-12-07_14h24.06.592,vts_reward_expectancy_bt,2022.2.4,Win32,60.27364234,Chrome,1536,864,,,a,1.435,1,215,1,0,7,7,3,1,0,1,0,0,1,0,0,0,circle,triangle,,,,,,,,,,,,,,,,,,,,,,,,,,,,,,,,,,,,,,,,,,,,,,,,,,,,,,
298045,2022-12-07_14h24.06.592,vts_reward_expectancy_bt,2022.2.4,Win32,60.27364234,Chrome,1536,864,,,a,0.5717,10,225,1,0,8,8,0,1,1,0,0,0,0,1,0,0,triangle,circle,,,,,,,,,,,,,,,,,,,,,,,,,,,,,,,,,,,,,,,,,,,,,,,,,,,,,,
298045,2022-12-07_14h24.06.592,vts_reward_expectancy_bt,2022.2.4,Win32,60.27364234,Chrome,1536,864,,,l,0.6564,10,235,1,0,9,9,5,1,0,1,0,0,0,0,0,1,circle,star,,,,,,,,,,,,,,,,,,,,,,,,,,,,,,,,,,,,,,,,,,,,,,,,,,,,,,
298045,2022-12-07_14h24.06.592,vts_reward_expectancy_bt,2022.2.4,Win32,60.27364234,Chrome,1536,864,,,l,0.7567,10,245,1,0,10,10,4,1,0,1,0,0,0,0,1,0,circle,hexagon,,,,,,,,,,,,,,,,,,,,,,,,,,,,,,,,,,,,,,,,,,,,,,,,,,,,,,
298045,2022-12-07_14h24.06.592,vts_reward_expectancy_bt,2022.2.4,Win32,60.27364234,Chrome,1536,864,,,l,1.1411,1,246,1,0,11,11,10,1,0,0,0,1,0,1,0,0,star ,circle,,,,,,,,,,,,,,,,,,,,,,,,,,,,,,,,,,,,,,,,,,,,,,,,,,,,,,
298045,2022-12-07_14h24.06.592,vts_reward_expectancy_bt,2022.2.4,Win32,60.27364234,Chrome,1536,864,,,a,0.6331,1,247,1,1,0,12,7,1,0,0,1,0,0,1,0,0,hexagon,circle,,,,,,,,,,,,,,,,,,,,,,,,,,,,,,,,,,,,,,,,,,,,,,,,,,,,,,
298045,2022-12-07_14h24.06.592,vts_reward_expectancy_bt,2022.2.4,Win32,60.27364234,Chrome,1536,864,,,a,1.3343,1,248,1,1,1,13,3,1,0,1,0,0,1,0,0,0,circle,triangle,,,,,,,,,,,,,,,,,,,,,,,,,,,,,,,,,,,,,,,,,,,,,,,,,,,,,,
298045,2022-12-07_14h24.06.592,vts_reward_expectancy_bt,2022.2.4,Win32,60.27364234,Chrome,1536,864,,,l,0.6606,1,249,1,1,2,14,2,1,1,0,0,0,0,0,0,1,triangle,star,,,,,,,,,,,,,,,,,,,,,,,,,,,,,,,,,,,,,,,,,,,,,,,,,,,,,,
298045,2022-12-07_14h24.06.592,vts_reward_expectancy_bt,2022.2.4,Win32,60.27364234,Chrome,1536,864,,,l,1.5204,1,250,1,1,3,15,0,1,1,0,0,0,0,1,0,0,triangle,circle,,,,,,,,,,,,,,,,,,,,,,,,,,,,,,,,,,,,,,,,,,,,,,,,,,,,,,
298045,2022-12-07_14h24.06.592,vts_reward_expectancy_bt,2022.2.4,Win32,60.27364234,Chrome,1536,864,,,a,0.997,1,251,1,1,4,16,8,1,0,0,1,0,0,0,0,1,hexagon,star,,,,,,,,,,,,,,,,,,,,,,,,,,,,,,,,,,,,,,,,,,,,,,,,,,,,,,
298045,2022-12-07_14h24.06.592,vts_reward_expectancy_bt,2022.2.4,Win32,60.27364234,Chrome,1536,864,,,a,0.5677,10,261,1,1,5,17,11,1,0,0,0,1,0,0,1,0,star,hexagon,,,,,,,,,,,,,,,,,,,,,,,,,,,,,,,,,,,,,,,,,,,,,,,,,,,,,,
298045,2022-12-07_14h24.06.592,vts_reward_expectancy_bt,2022.2.4,Win32,60.27364234,Chrome,1536,864,,,a,0.6184,10,271,1,1,6,18,9,1,0,0,0,1,1,0,0,0,star,triangle,,,,,,,,,,,,,,,,,,,,,,,,,,,,,,,,,,,,,,,,,,,,,,,,,,,,,,
298045,2022-12-07_14h24.06.592,vts_reward_expectancy_bt,2022.2.4,Win32,60.27364234,Chrome,1536,864,,,l,0.5846,1,272,1,1,7,19,1,1,1,0,0,0,0,0,1,0,triangle,hexagon,,,,,,,,,,,,,,,,,,,,,,,,,,,,,,,,,,,,,,,,,,,,,,,,,,,,,,
298045,2022-12-07_14h24.06.592,vts_reward_expectancy_bt,2022.2.4,Win32,60.27364234,Chrome,1536,864,,,l,1.0162,1,273,1,1,8,20,4,1,0,1,0,0,0,0,1,0,circle,hexagon,,,,,,,,,,,,,,,,,,,,,,,,,,,,,,,,,,,,,,,,,,,,,,,,,,,,,,
298045,2022-12-07_14h24.06.592,vts_reward_expectancy_bt,2022.2.4,Win32,60.27364234,Chrome,1536,864,,,a,0.5969,10,283,1,1,9,21,6,1,0,0,1,0,1,0,0,0,hexagon,triangle,,,,,,,,,,,,,,,,,,,,,,,,,,,,,,,,,,,,,,,,,,,,,,,,,,,,,,
298045,2022-12-07_14h24.06.592,vts_reward_expectancy_bt,2022.2.4,Win32,60.27364234,Chrome,1536,864,,,a,0.433,1,284,1,1,10,22,5,1,0,1,0,0,0,0,0,1,circle,star,,,,,,,,,,,,,,,,,,,,,,,,,,,,,,,,,,,,,,,,,,,,,,,,,,,,,,
298045,2022-12-07_14h24.06.592,vts_reward_expectancy_bt,2022.2.4,Win32,60.27364234,Chrome,1536,864,,,l,1.2552,1,285,1,1,11,23,10,1,0,0,0,1,0,1,0,0,star ,circle,,,,,,,,,,,,,,,,,,,,,,,,,,,,,,,,,,,,,,,,,,,,,,,,,,,,,,
298045,2022-12-07_14h24.06.592,vts_reward_expectancy_bt,2022.2.4,Win32,60.27364234,Chrome,1536,864,,,l,0.3161,10,295,1,2,0,24,8,1,0,0,1,0,0,0,0,1,hexagon,star,,,,,,,,,,,,,,,,,,,,,,,,,,,,,,,,,,,,,,,,,,,,,,,,,,,,,,
298045,2022-12-07_14h24.06.592,vts_reward_expectancy_bt,2022.2.4,Win32,60.27364234,Chrome,1536,864,,,a,0.3691,1,296,1,2,1,25,6,1,0,0,1,0,1,0,0,0,hexagon,triangle,,,,,,,,,,,,,,,,,,,,,,,,,,,,,,,,,,,,,,,,,,,,,,,,,,,,,,
298045,2022-12-07_14h24.06.592,vts_reward_expectancy_bt,2022.2.4,Win32,60.27364234,Chrome,1536,864,,,l,0.6851,10,306,1,2,2,26,2,1,1,0,0,0,0,0,0,1,triangle,star,,,,,,,,,,,,,,,,,,,,,,,,,,,,,,,,,,,,,,,,,,,,,,,,,,,,,,
298045,2022-12-07_14h24.06.592,vts_reward_expectancy_bt,2022.2.4,Win32,60.27364234,Chrome,1536,864,,,l,0.5176,1,307,1,2,3,27,11,1,0,0,0,1,0,0,1,0,star,hexagon,,,,,,,,,,,,,,,,,,,,,,,,,,,,,,,,,,,,,,,,,,,,,,,,,,,,,,
298045,2022-12-07_14h24.06.592,vts_reward_expectancy_bt,2022.2.4,Win32,60.27364234,Chrome,1536,864,,,l,0.8039,1,308,1,2,4,28,0,1,1,0,0,0,0,1,0,0,triangle,circle,,,,,,,,,,,,,,,,,,,,,,,,,,,,,,,,,,,,,,,,,,,,,,,,,,,,,,
298045,2022-12-07_14h24.06.592,vts_reward_expectancy_bt,2022.2.4,Win32,60.27364234,Chrome,1536,864,,,a,0.5735,1,309,1,2,5,29,10,1,0,0,0,1,0,1,0,0,star ,circle,,,,,,,,,,,,,,,,,,,,,,,,,,,,,,,,,,,,,,,,,,,,,,,,,,,,,,
298045,2022-12-07_14h24.06.592,vts_reward_expectancy_bt,2022.2.4,Win32,60.27364234,Chrome,1536,864,,,a,0.8675,10,319,1,2,6,30,3,1,0,1,0,0,1,0,0,0,circle,triangle,,,,,,,,,,,,,,,,,,,,,,,,,,,,,,,,,,,,,,,,,,,,,,,,,,,,,,
298045,2022-12-07_14h24.06.592,vts_reward_expectancy_bt,2022.2.4,Win32,60.27364234,Chrome,1536,864,,,l,0.6412,10,329,1,2,7,31,1,1,1,0,0,0,0,0,1,0,triangle,hexagon,,,,,,,,,,,,,,,,,,,,,,,,,,,,,,,,,,,,,,,,,,,,,,,,,,,,,,
298045,2022-12-07_14h24.06.592,vts_reward_expectancy_bt,2022.2.4,Win32,60.27364234,Chrome,1536,864,,,a,0.7267,10,339,1,2,8,32,9,1,0,0,0,1,1,0,0,0,star,triangle,,,,,,,,,,,,,,,,,,,,,,,,,,,,,,,,,,,,,,,,,,,,,,,,,,,,,,
298045,2022-12-07_14h24.06.592,vts_reward_expectancy_bt,2022.2.4,Win32,60.27364234,Chrome,1536,864,,,l,1.0424,1,340,1,2,9,33,4,1,0,1,0,0,0,0,1,0,circle,hexagon,,,,,,,,,,,,,,,,,,,,,,,,,,,,,,,,,,,,,,,,,,,,,,,,,,,,,,
298045,2022-12-07_14h24.06.592,vts_reward_expectancy_bt,2022.2.4,Win32,60.27364234,Chrome,1536,864,,,a,1.0006,10,350,1,2,10,34,5,1,0,1,0,0,0,0,0,1,circle,star,,,,,,,,,,,,,,,,,,,,,,,,,,,,,,,,,,,,,,,,,,,,,,,,,,,,,,
298045,2022-12-07_14h24.06.592,vts_reward_expectancy_bt,2022.2.4,Win32,60.27364234,Chrome,1536,864,,,l,0.8295,1,351,1,2,11,35,7,1,0,0,1,0,0,1,0,0,hexagon,circle,,,,,,,,,,,,,,,,,,,,,,,,,,,,,,,,,,,,,,,,,,,,,,,,,,,,,,
298045,2022-12-07_14h24.06.592,vts_reward_expectancy_bt,2022.2.4,Win32,60.27364234,Chrome,1536,864,,,a,1.4075,1,352,2,0,0,0,6,1,0,0,1,0,1,0,0,0,hexagon,triangle,,,,,,,,,,,,,,,,,,,,,,,,,,,,,,,,,,,,,,,,,,,,,,,,,,,,,,
298045,2022-12-07_14h24.06.592,vts_reward_expectancy_bt,2022.2.4,Win32,60.27364234,Chrome,1536,864,,,a,0.6148,10,362,2,0,1,1,3,1,0,1,0,0,1,0,0,0,circle,triangle,,,,,,,,,,,,,,,,,,,,,,,,,,,,,,,,,,,,,,,,,,,,,,,,,,,,,,
298045,2022-12-07_14h24.06.592,vts_reward_expectancy_bt,2022.2.4,Win32,60.27364234,Chrome,1536,864,,,l,0.4796,1,363,2,0,2,2,7,1,0,0,1,0,0,1,0,0,hexagon,circle,,,,,,,,,,,,,,,,,,,,,,,,,,,,,,,,,,,,,,,,,,,,,,,,,,,,,,
298045,2022-12-07_14h24.06.592,vts_reward_expectancy_bt,2022.2.4,Win32,60.27364234,Chrome,1536,864,,,l,0.5502,10,373,2,0,3,3,8,1,0,0,1,0,0,0,0,1,hexagon,star,,,,,,,,,,,,,,,,,,,,,,,,,,,,,,,,,,,,,,,,,,,,,,,,,,,,,,
298045,2022-12-07_14h24.06.592,vts_reward_expectancy_bt,2022.2.4,Win32,60.27364234,Chrome,1536,864,,,l,0.5859,1,374,2,0,4,4,1,1,1,0,0,0,0,0,1,0,triangle,hexagon,,,,,,,,,,,,,,,,,,,,,,,,,,,,,,,,,,,,,,,,,,,,,,,,,,,,,,
298045,2022-12-07_14h24.06.592,vts_reward_expectancy_bt,2022.2.4,Win32,60.27364234,Chrome,1536,864,,,l,0.5353,10,384,2,0,5,5,10,1,0,0,0,1,0,1,0,0,star ,circle,,,,,,,,,,,,,,,,,,,,,,,,,,,,,,,,,,,,,,,,,,,,,,,,,,,,,,
298045,2022-12-07_14h24.06.592,vts_reward_expectancy_bt,2022.2.4,Win32,60.27364234,Chrome,1536,864,,,a,0.4958,1,385,2,0,6,6,5,1,0,1,0,0,0,0,0,1,circle,star,,,,,,,,,,,,,,,,,,,,,,,,,,,,,,,,,,,,,,,,,,,,,,,,,,,,,,
298045,2022-12-07_14h24.06.592,vts_reward_expectancy_bt,2022.2.4,Win32,60.27364234,Chrome,1536,864,,,l,0.5075,10,395,2,0,7,7,0,1,1,0,0,0,0,1,0,0,triangle,circle,,,,,,,,,,,,,,,,,,,,,,,,,,,,,,,,,,,,,,,,,,,,,,,,,,,,,,
298045,2022-12-07_14h24.06.592,vts_reward_expectancy_bt,2022.2.4,Win32,60.27364234,Chrome,1536,864,,,a,0.8234,1,396,2,0,8,8,4,1,0,1,0,0,0,0,1,0,circle,hexagon,,,,,,,,,,,,,,,,,,,,,,,,,,,,,,,,,,,,,,,,,,,,,,,,,,,,,,
298045,2022-12-07_14h24.06.592,vts_reward_expectancy_bt,2022.2.4,Win32,60.27364234,Chrome,1536,864,,,l,0.5204,10,406,2,0,9,9,2,1,1,0,0,0,0,0,0,1,triangle,star,,,,,,,,,,,,,,,,,,,,,,,,,,,,,,,,,,,,,,,,,,,,,,,,,,,,,,
298045,2022-12-07_14h24.06.592,vts_reward_expectancy_bt,2022.2.4,Win32,60.27364234,Chrome,1536,864,,,a,0.8369,10,416,2,0,10,10,11,1,0,0,0,1,0,0,1,0,star,hexagon,,,,,,,,,,,,,,,,,,,,,,,,,,,,,,,,,,,,,,,,,,,,,,,,,,,,,,
298045,2022-12-07_14h24.06.592,vts_reward_expectancy_bt,2022.2.4,Win32,60.27364234,Chrome,1536,864,,,a,0.485,10,426,2,0,11,11,9,1,0,0,0,1,1,0,0,0,star,triangle,,,,,,,,,,,,,,,,,,,,,,,,,,,,,,,,,,,,,,,,,,,,,,,,,,,,,,
298045,2022-12-07_14h24.06.592,vts_reward_expectancy_bt,2022.2.4,Win32,60.27364234,Chrome,1536,864,,,l,0.8472,10,436,2,1,0,12,3,1,0,1,0,0,1,0,0,0,circle,triangle,,,,,,,,,,,,,,,,,,,,,,,,,,,,,,,,,,,,,,,,,,,,,,,,,,,,,,
298045,2022-12-07_14h24.06.592,vts_reward_expectancy_bt,2022.2.4,Win32,60.27364234,Chrome,1536,864,,,l,0.7564,10,446,2,1,1,13,0,1,1,0,0,0,0,1,0,0,triangle,circle,,,,,,,,,,,,,,,,,,,,,,,,,,,,,,,,,,,,,,,,,,,,,,,,,,,,,,
298045,2022-12-07_14h24.06.592,vts_reward_expectancy_bt,2022.2.4,Win32,60.27364234,Chrome,1536,864,,,a,0.518,1,447,2,1,2,14,9,1,0,0,0,1,1,0,0,0,star,triangle,,,,,,,,,,,,,,,,,,,,,,,,,,,,,,,,,,,,,,,,,,,,,,,,,,,,,,
298045,2022-12-07_14h24.06.592,vts_reward_expectancy_bt,2022.2.4,Win32,60.27364234,Chrome,1536,864,,,l,0.6462,1,448,2,1,3,15,5,1,0,1,0,0,0,0,0,1,circle,star,,,,,,,,,,,,,,,,,,,,,,,,,,,,,,,,,,,,,,,,,,,,,,,,,,,,,,
298045,2022-12-07_14h24.06.592,vts_reward_expectancy_bt,2022.2.4,Win32,60.27364234,Chrome,1536,864,,,l,1.2502,1,449,2,1,4,16,11,1,0,0,0,1,0,0,1,0,star,hexagon,,,,,,,,,,,,,,,,,,,,,,,,,,,,,,,,,,,,,,,,,,,,,,,,,,,,,,
298045,2022-12-07_14h24.06.592,vts_reward_expectancy_bt,2022.2.4,Win32,60.27364234,Chrome,1536,864,,,a,0.7983,1,450,2,1,5,17,10,1,0,0,0,1,0,1,0,0,star ,circle,,,,,,,,,,,,,,,,,,,,,,,,,,,,,,,,,,,,,,,,,,,,,,,,,,,,,,
298045,2022-12-07_14h24.06.592,vts_reward_expectancy_bt,2022.2.4,Win32,60.27364234,Chrome,1536,864,,,l,0.6678,10,460,2,1,6,18,2,1,1,0,0,0,0,0,0,1,triangle,star,,,,,,,,,,,,,,,,,,,,,,,,,,,,,,,,,,,,,,,,,,,,,,,,,,,,,,
298045,2022-12-07_14h24.06.592,vts_reward_expectancy_bt,2022.2.4,Win32,60.27364234,Chrome,1536,864,,,a,0.7409,1,461,2,1,7,19,6,1,0,0,1,0,1,0,0,0,hexagon,triangle,,,,,,,,,,,,,,,,,,,,,,,,,,,,,,,,,,,,,,,,,,,,,,,,,,,,,,
298045,2022-12-07_14h24.06.592,vts_reward_expectancy_bt,2022.2.4,Win32,60.27364234,Chrome,1536,864,,,a,0.5832,1,462,2,1,8,20,7,1,0,0,1,0,0,1,0,0,hexagon,circle,,,,,,,,,,,,,,,,,,,,,,,,,,,,,,,,,,,,,,,,,,,,,,,,,,,,,,
298045,2022-12-07_14h24.06.592,vts_reward_expectancy_bt,2022.2.4,Win32,60.27364234,Chrome,1536,864,,,a,0.7501,1,463,2,1,9,21,8,1,0,0,1,0,0,0,0,1,hexagon,star,,,,,,,,,,,,,,,,,,,,,,,,,,,,,,,,,,,,,,,,,,,,,,,,,,,,,,
298045,2022-12-07_14h24.06.592,vts_reward_expectancy_bt,2022.2.4,Win32,60.27364234,Chrome,1536,864,,,l,0.6174,1,464,2,1,10,22,1,1,1,0,0,0,0,0,1,0,triangle,hexagon,,,,,,,,,,,,,,,,,,,,,,,,,,,,,,,,,,,,,,,,,,,,,,,,,,,,,,
298045,2022-12-07_14h24.06.592,vts_reward_expectancy_bt,2022.2.4,Win32,60.27364234,Chrome,1536,864,,,l,0.9297,10,474,2,1,11,23,4,1,0,1,0,0,0,0,1,0,circle,hexagon,,,,,,,,,,,,,,,,,,,,,,,,,,,,,,,,,,,,,,,,,,,,,,,,,,,,,,
298045,2022-12-07_14h24.06.592,vts_reward_expectancy_bt,2022.2.4,Win32,60.27364234,Chrome,1536,864,,,l,0.6021,10,484,2,2,0,24,2,1,1,0,0,0,0,0,0,1,triangle,star,,,,,,,,,,,,,,,,,,,,,,,,,,,,,,,,,,,,,,,,,,,,,,,,,,,,,,
298045,2022-12-07_14h24.06.592,vts_reward_expectancy_bt,2022.2.4,Win32,60.27364234,Chrome,1536,864,,,l,0.7339,1,485,2,2,1,25,4,1,0,1,0,0,0,0,1,0,circle,hexagon,,,,,,,,,,,,,,,,,,,,,,,,,,,,,,,,,,,,,,,,,,,,,,,,,,,,,,
298045,2022-12-07_14h24.06.592,vts_reward_expectancy_bt,2022.2.4,Win32,60.27364234,Chrome,1536,864,,,l,0.6967,1,486,2,2,2,26,11,1,0,0,0,1,0,0,1,0,star,hexagon,,,,,,,,,,,,,,,,,,,,,,,,,,,,,,,,,,,,,,,,,,,,,,,,,,,,,,
298045,2022-12-07_14h24.06.592,vts_reward_expectancy_bt,2022.2.4,Win32,60.27364234,Chrome,1536,864,,,a,0.6385,1,487,2,2,3,27,9,1,0,0,0,1,1,0,0,0,star,triangle,,,,,,,,,,,,,,,,,,,,,,,,,,,,,,,,,,,,,,,,,,,,,,,,,,,,,,
298045,2022-12-07_14h24.06.592,vts_reward_expectancy_bt,2022.2.4,Win32,60.27364234,Chrome,1536,864,,,a,0.7528,1,488,2,2,4,28,6,1,0,0,1,0,1,0,0,0,hexagon,triangle,,,,,,,,,,,,,,,,,,,,,,,,,,,,,,,,,,,,,,,,,,,,,,,,,,,,,,
298045,2022-12-07_14h24.06.592,vts_reward_expectancy_bt,2022.2.4,Win32,60.27364234,Chrome,1536,864,,,l,0.7671,1,489,2,2,5,29,10,1,0,0,0,1,0,1,0,0,star ,circle,,,,,,,,,,,,,,,,,,,,,,,,,,,,,,,,,,,,,,,,,,,,,,,,,,,,,,
298045,2022-12-07_14h24.06.592,vts_reward_expectancy_bt,2022.2.4,Win32,60.27364234,Chrome,1536,864,,,l,0.6539,1,490,2,2,6,30,1,1,1,0,0,0,0,0,1,0,triangle,hexagon,,,,,,,,,,,,,,,,,,,,,,,,,,,,,,,,,,,,,,,,,,,,,,,,,,,,,,
298045,2022-12-07_14h24.06.592,vts_reward_expectancy_bt,2022.2.4,Win32,60.27364234,Chrome,1536,864,,,a,0.9135,1,491,2,2,7,31,5,1,0,1,0,0,0,0,0,1,circle,star,,,,,,,,,,,,,,,,,,,,,,,,,,,,,,,,,,,,,,,,,,,,,,,,,,,,,,
298045,2022-12-07_14h24.06.592,vts_reward_expectancy_bt,2022.2.4,Win32,60.27364234,Chrome,1536,864,,,l,1.5996,1,492,2,2,8,32,0,1,1,0,0,0,0,1,0,0,triangle,circle,,,,,,,,,,,,,,,,,,,,,,,,,,,,,,,,,,,,,,,,,,,,,,,,,,,,,,
298045,2022-12-07_14h24.06.592,vts_reward_expectancy_bt,2022.2.4,Win32,60.27364234,Chrome,1536,864,,,a,0.9714,1,493,2,2,9,33,7,1,0,0,1,0,0,1,0,0,hexagon,circle,,,,,,,,,,,,,,,,,,,,,,,,,,,,,,,,,,,,,,,,,,,,,,,,,,,,,,
298045,2022-12-07_14h24.06.592,vts_reward_expectancy_bt,2022.2.4,Win32,60.27364234,Chrome,1536,864,,,l,0.6845,10,503,2,2,10,34,8,1,0,0,1,0,0,0,0,1,hexagon,star,,,,,,,,,,,,,,,,,,,,,,,,,,,,,,,,,,,,,,,,,,,,,,,,,,,,,,
298045,2022-12-07_14h24.06.592,vts_reward_expectancy_bt,2022.2.4,Win32,60.27364234,Chrome,1536,864,,,a,1.156,10,513,2,2,11,35,3,1,0,1,0,0,1,0,0,0,circle,triangle,,,,,,,,,,,,,,,,,,,,,,,,,,,,,,,,,,,,,,,,,,,,,,,,,,,,,,
298045,2022-12-07_14h24.06.592,vts_reward_expectancy_bt,2022.2.4,Win32,60.27364234,Chrome,1536,864,,,,,,,,,,,,,,,,,,,,,,,H,174,star,1,0,d,2.0659,0,0,0,0,0,1,,,,,,,,,,,,,,,,,,,,,,,,,,,,,,,,,,,,,,,,,
298045,2022-12-07_14h24.06.592,vts_reward_expectancy_bt,2022.2.4,Win32,60.27364234,Chrome,1536,864,,,,,,,,,,,,,,,,,,,,,,,U,132,circle,1,0,f,0.8376,0,1,0,1,0,1,,,,,,,,,,,,,,,,,,,,,,,,,,,,,,,,,,,,,,,,,
298045,2022-12-07_14h24.06.592,vts_reward_expectancy_bt,2022.2.4,Win32,60.27364234,Chrome,1536,864,,,,,,,,,,,,,,,,,,,,,,,D,181,triangle,1,0,d,0.7196,0,2,0,2,0,1,,,,,,,,,,,,,,,,,,,,,,,,,,,,,,,,,,,,,,,,,
298045,2022-12-07_14h24.06.592,vts_reward_expectancy_bt,2022.2.4,Win32,60.27364234,Chrome,1536,864,,,,,,,,,,,,,,,,,,,,,,,W,160,hexagon,1,0,f,0.869,0,3,0,3,0,1,,,,,,,,,,,,,,,,,,,,,,,,,,,,,,,,,,,,,,,,,
298045,2022-12-07_14h24.06.592,vts_reward_expectancy_bt,2022.2.4,Win32,60.27364234,Chrome,1536,864,,,,,,,,,,,,,,,,,,,,,,,B,146,star,1,0,d,0.8023,0,4,0,4,0,1,,,,,,,,,,,,,,,,,,,,,,,,,,,,,,,,,,,,,,,,,
298045,2022-12-07_14h24.06.592,vts_reward_expectancy_bt,2022.2.4,Win32,60.27364234,Chrome,1536,864,,,,,,,,,,,,,,,,,,,,,,,S,167,circle,1,0,f,0.8196,0,5,0,5,0,1,,,,,,,,,,,,,,,,,,,,,,,,,,,,,,,,,,,,,,,,,
298045,2022-12-07_14h24.06.592,vts_reward_expectancy_bt,2022.2.4,Win32,60.27364234,Chrome,1536,864,,,,,,,,,,,,,,,,,,,,,,,Y,125,triangle,1,0,f,0.6746,0,6,0,6,0,1,,,,,,,,,,,,,,,,,,,,,,,,,,,,,,,,,,,,,,,,,
298045,2022-12-07_14h24.06.592,vts_reward_expectancy_bt,2022.2.4,Win32,60.27364234,Chrome,1536,864,,,,,,,,,,,,,,,,,,,,,,,F,139,hexagon,1,0,d,0.5851,0,7,0,7,0,1,,,,,,,,,,,,,,,,,,,,,,,,,,,,,,,,,,,,,,,,,
298045,2022-12-07_14h24.06.592,vts_reward_expectancy_bt,2022.2.4,Win32,60.27364234,Chrome,1536,864,,,,,,,,,,,,,,,,,,,,,,,H,174,triangle,1,0,d,0.7019,0,8,0,8,0,1,,,,,,,,,,,,,,,,,,,,,,,,,,,,,,,,,,,,,,,,,
298045,2022-12-07_14h24.06.592,vts_reward_expectancy_bt,2022.2.4,Win32,60.27364234,Chrome,1536,864,,,,,,,,,,,,,,,,,,,,,,,U,132,star,1,0,f,0.6345,0,9,0,9,0,1,,,,,,,,,,,,,,,,,,,,,,,,,,,,,,,,,,,,,,,,,
298045,2022-12-07_14h24.06.592,vts_reward_expectancy_bt,2022.2.4,Win32,60.27364234,Chrome,1536,864,,,,,,,,,,,,,,,,,,,,,,,B,125,hexagon,1,0,,,1,,,,,,j,1.0694,0,0,0,0,1,,,,,,,,,,,,,,,,,,,,,,,,,,,,,,,,,,
298045,2022-12-07_14h24.06.592,vts_reward_expectancy_bt,2022.2.4,Win32,60.27364234,Chrome,1536,864,,,,,,,,,,,,,,,,,,,,,,,Y,146,triangle,1,0,,,1,,,,,,j,0.7915,1,0,1,0,1,,,,,,,,,,,,,,,,,,,,,,,,,,,,,,,,,,
298045,2022-12-07_14h24.06.592,vts_reward_expectancy_bt,2022.2.4,Win32,60.27364234,Chrome,1536,864,,,,,,,,,,,,,,,,,,,,,,,D,160,star,1,0,,,1,,,,,,k,0.7195,2,0,2,0,1,,,,,,,,,,,,,,,,,,,,,,,,,,,,,,,,,,
298045,2022-12-07_14h24.06.592,vts_reward_expectancy_bt,2022.2.4,Win32,60.27364234,Chrome,1536,864,,,,,,,,,,,,,,,,,,,,,,,S,181,circle,1,0,,,1,,,,,,k,0.7905,3,0,3,0,1,,,,,,,,,,,,,,,,,,,,,,,,,,,,,,,,,,
298045,2022-12-07_14h24.06.592,vts_reward_expectancy_bt,2022.2.4,Win32,60.27364234,Chrome,1536,864,,,,,,,,,,,,,,,,,,,,,,,W,174,hexagon,1,0,,,1,,,,,,k,0.5874,4,0,4,0,1,,,,,,,,,,,,,,,,,,,,,,,,,,,,,,,,,,
298045,2022-12-07_14h24.06.592,vts_reward_expectancy_bt,2022.2.4,Win32,60.27364234,Chrome,1536,864,,,,,,,,,,,,,,,,,,,,,,,F,167,triangle,1,0,,,1,,,,,,k,0.5582,5,0,5,0,1,,,,,,,,,,,,,,,,,,,,,,,,,,,,,,,,,,
298045,2022-12-07_14h24.06.592,vts_reward_expectancy_bt,2022.2.4,Win32,60.27364234,Chrome,1536,864,,,,,,,,,,,,,,,,,,,,,,,H,132,star,1,0,,,1,,,,,,j,0.9367,6,0,6,0,1,,,,,,,,,,,,,,,,,,,,,,,,,,,,,,,,,,
298045,2022-12-07_14h24.06.592,vts_reward_expectancy_bt,2022.2.4,Win32,60.27364234,Chrome,1536,864,,,,,,,,,,,,,,,,,,,,,,,U,139,circle,1,0,,,1,,,,,,j,0.5927,7,0,7,0,1,,,,,,,,,,,,,,,,,,,,,,,,,,,,,,,,,,
298045,2022-12-07_14h24.06.592,vts_reward_expectancy_bt,2022.2.4,Win32,60.27364234,Chrome,1536,864,,,,,,,,,,,,,,,,,,,,,,,B,125,triangle,1,0,,,1,,,,,,j,0.7036,8,0,8,0,1,,,,,,,,,,,,,,,,,,,,,,,,,,,,,,,,,,
298045,2022-12-07_14h24.06.592,vts_reward_expectancy_bt,2022.2.4,Win32,60.27364234,Chrome,1536,864,,,,,,,,,,,,,,,,,,,,,,,Y,146,circle,1,0,,,1,,,,,,j,0.5502,9,0,9,0,1,,,,,,,,,,,,,,,,,,,,,,,,,,,,,,,,,,
298045,2022-12-07_14h24.06.592,vts_reward_expectancy_bt,2022.2.4,Win32,60.27364234,Chrome,1536,864,,,,,0,513,,,,,,,,,,,,,,,,,F,167,star,1,0,,,2,,,,,,,,,,,,,-1,letter,NA,d,1.6554,vtsPrac,0,0,0,0,1,,,,,,,,,,,,,,,,,,,,,,,
298045,2022-12-07_14h24.06.592,vts_reward_expectancy_bt,2022.2.4,Win32,60.27364234,Chrome,1536,864,,,,,0,513,,,,,,,,,,,,,,,,,B,132,circle,1,0,,,2,,,,,,,,,,,,,repeat,letter,lettRpt,d,0.7866,vtsPrac,1,0,1,0,1,,,,,,,,,,,,,,,,,,,,,,,
298045,2022-12-07_14h24.06.592,vts_reward_expectancy_bt,2022.2.4,Win32,60.27364234,Chrome,1536,864,,,,,0,513,,,,,,,,,,,,,,,,,Y,139,star,1,0,,,2,,,,,,,,,,,,,switch,number,numSwt,j,0.8178,vtsPrac,2,0,2,0,1,,,,,,,,,,,,,,,,,,,,,,,
298045,2022-12-07_14h24.06.592,vts_reward_expectancy_bt,2022.2.4,Win32,60.27364234,Chrome,1536,864,,,,,0,513,,,,,,,,,,,,,,,,,S,160,circle,1,0,,,2,,,,,,,,,,,,,repeat,number,numRpt,k,1.0414,vtsPrac,3,0,3,0,1,,,,,,,,,,,,,,,,,,,,,,,
298045,2022-12-07_14h24.06.592,vts_reward_expectancy_bt,2022.2.4,Win32,60.27364234,Chrome,1536,864,,,,,0,513,,,,,,,,,,,,,,,,,F,167,hexagon,1,0,,,2,,,,,,,,,,,,,switch,letter,lettSwt,d,0.767,vtsPrac,4,0,4,0,1,,,,,,,,,,,,,,,,,,,,,,,
298045,2022-12-07_14h24.06.592,vts_reward_expectancy_bt,2022.2.4,Win32,60.27364234,Chrome,1536,864,,,,,0,513,,,,,,,,,,,,,,,,,B,132,circle,1,0,,,2,,,,,,,,,,,,,repeat,letter,lettRpt,d,0.7695,vtsPrac,5,0,5,0,1,,,,,,,,,,,,,,,,,,,,,,,
298045,2022-12-07_14h24.06.592,vts_reward_expectancy_bt,2022.2.4,Win32,60.27364234,Chrome,1536,864,,,,,0,513,,,,,,,,,,,,,,,,,Y,139,star,1,0,,,2,,,,,,,,,,,,,repeat,letter,lettRpt,f,1.3234,vtsPrac,6,0,6,0,1,,,,,,,,,,,,,,,,,,,,,,,
298045,2022-12-07_14h24.06.592,vts_reward_expectancy_bt,2022.2.4,Win32,60.27364234,Chrome,1536,864,,,,,0,513,,,,,,,,,,,,,,,,,S,160,triangle,1,0,,,2,,,,,,,,,,,,,repeat,letter,lettRpt,f,0.6231,vtsPrac,7,0,7,0,1,,,,,,,,,,,,,,,,,,,,,,,
298045,2022-12-07_14h24.06.592,vts_reward_expectancy_bt,2022.2.4,Win32,60.27364234,Chrome,1536,864,,,,,0,513,,,,,,,,,,,,,,,,,H,132,triangle,1,0,,,2,,,,,,,,,,,,,switch,number,numSwt,j,0.827,vtsPrac,8,0,8,0,1,,,,,,,,,,,,,,,,,,,,,,,
298045,2022-12-07_14h24.06.592,vts_reward_expectancy_bt,2022.2.4,Win32,60.27364234,Chrome,1536,864,,,,,0,513,,,,,,,,,,,,,,,,,D,174,hexagon,1,0,,,2,,,,,,,,,,,,,repeat,number,numRpt,k,0.536,vtsPrac,9,0,9,0,1,,,,,,,,,,,,,,,,,,,,,,,
298045,2022-12-07_14h24.06.592,vts_reward_expectancy_bt,2022.2.4,Win32,60.27364234,Chrome,1536,864,,,,,0,513,,,,,,,,,,,,,,,,,W,139,hexagon,1,0,,,2,,,,,,,,,,,,,switch,letter,lettSwt,f,1.04,vtsPrac,10,0,10,0,1,,,,,,,,,,,,,,,,,,,,,,,
298045,2022-12-07_14h24.06.592,vts_reward_expectancy_bt,2022.2.4,Win32,60.27364234,Chrome,1536,864,,,,,0,513,,,,,,,,,,,,,,,,,U,146,triangle,1,0,,,2,,,,,,,,,,,,,switch,number,numSwt,j,0.5735,vtsPrac,11,0,11,0,1,,,,,,,,,,,,,,,,,,,,,,,
298045,2022-12-07_14h24.06.592,vts_reward_expectancy_bt,2022.2.4,Win32,60.27364234,Chrome,1536,864,,,,,0,513,,,,,,,,,,,,,,,,,B,181,star,1,0,,,2,,,,,,,,,,,,,switch,letter,lettSwt,d,1.6185,vtsPrac,12,0,12,0,1,,,,,,,,,,,,,,,,,,,,,,,
298045,2022-12-07_14h24.06.592,vts_reward_expectancy_bt,2022.2.4,Win32,60.27364234,Chrome,1536,864,,,,,0,513,,,,,,,,,,,,,,,,,D,167,triangle,1,0,,,2,,,,,,,,,,,,,repeat,letter,lettRpt,d,1.12,vtsPrac,13,0,13,0,1,,,,,,,,,,,,,,,,,,,,,,,
298045,2022-12-07_14h24.06.592,vts_reward_expectancy_bt,2022.2.4,Win32,60.27364234,Chrome,1536,864,,,,,0,513,,,,,,,,,,,,,,,,,U,132,star,1,0,,,2,,,,,,,,,,,,,switch,number,numSwt,j,0.9863,vtsPrac,14,0,14,0,1,,,,,,,,,,,,,,,,,,,,,,,
298045,2022-12-07_14h24.06.592,vts_reward_expectancy_bt,2022.2.4,Win32,60.27364234,Chrome,1536,864,,,,,0,513,,,,,,,,,,,,,,,,,S,146,triangle,1,0,,,2,,,,,,,,,,,,,repeat,number,numRpt,j,1.733,vtsPrac,15,0,15,0,1,,,,,,,,,,,,,,,,,,,,,,,
298045,2022-12-07_14h24.06.592,vts_reward_expectancy_bt,2022.2.4,Win32,60.27364234,Chrome,1536,864,,,,,0,513,,,,,,,,,,,,,,,,,D,125,circle,1,0,,,2,,,,,,,,,,,,,repeat,number,numRpt,j,1.2514,vtsPrac,16,0,16,0,1,,,,,,,,,,,,,,,,,,,,,,,
298045,2022-12-07_14h24.06.592,vts_reward_expectancy_bt,2022.2.4,Win32,60.27364234,Chrome,1536,864,,,,,0,513,,,,,,,,,,,,,,,,,H,167,star,1,0,,,2,,,,,,,,,,,,,switch,letter,lettSwt,d,1.6241,vtsPrac,17,0,17,0,1,,,,,,,,,,,,,,,,,,,,,,,
298045,2022-12-07_14h24.06.592,vts_reward_expectancy_bt,2022.2.4,Win32,60.27364234,Chrome,1536,864,,,,,0,513,,,,,,,,,,,,,,,,,U,139,circle,1,0,,,2,,,,,,,,,,,,,repeat,letter,lettRpt,f,1.7873,vtsPrac,18,0,18,0,1,,,,,,,,,,,,,,,,,,,,,,,
298045,2022-12-07_14h24.06.592,vts_reward_expectancy_bt,2022.2.4,Win32,60.27364234,Chrome,1536,864,,,,,0,513,,,,,,,,,,,,,,,,,W,181,triangle,1,0,,,2,,,,,,,,,,,,,repeat,letter,lettRpt,f,0.9673,vtsPrac,19,0,19,0,1,,,,,,,,,,,,,,,,,,,,,,,
298045,2022-12-07_14h24.06.592,vts_reward_expectancy_bt,2022.2.4,Win32,60.27364234,Chrome,1536,864,,,,,0,513,,,,,,,,,,,,,,,,,F,160,circle,1,0,,,2,,,,,,,,,,,,,switch,number,numSwt,k,0.7051,vtsPrac,20,0,20,0,1,,,,,,,,,,,,,,,,,,,,,,,
298045,2022-12-07_14h24.06.592,vts_reward_expectancy_bt,2022.2.4,Win32,60.27364234,Chrome,1536,864,,,,,0,513,,,,,,,,,,,,,,,,,H,125,hexagon,1,0,,,2,,,,,,,,,,,,,repeat,number,numRpt,j,1.0388,vtsPrac,21,0,21,0,1,,,,,,,,,,,,,,,,,,,,,,,
298045,2022-12-07_14h24.06.592,vts_reward_expectancy_bt,2022.2.4,Win32,60.27364234,Chrome,1536,864,,,,,0,513,,,,,,,,,,,,,,,,,U,146,hexagon,1,0,,,2,,,,,,,,,,,,,repeat,number,numRpt,j,1.6194,vtsPrac,22,0,22,0,1,,,,,,,,,,,,,,,,,,,,,,,
298045,2022-12-07_14h24.06.592,vts_reward_expectancy_bt,2022.2.4,Win32,60.27364234,Chrome,1536,864,,,,,0,513,,,,,,,,,,,,,,,,,S,174,star,1,0,,,2,,,,,,,,,,,,,switch,letter,lettSwt,f,1.2655,vtsPrac,23,0,23,0,1,,,,,,,,,,,,,,,,,,,,,,,
298045,2022-12-07_14h24.06.592,vts_reward_expectancy_bt,2022.2.4,Win32,60.27364234,Chrome,1536,864,,,,,0,513,,,,,,,,,,,,,,,,,W,125,circle,1,0,,,2,,,,,,,,,,,,,switch,number,numSwt,j,1.7539,vtsPrac,24,0,24,0,1,,,,,,,,,,,,,,,,,,,,,,,
298045,2022-12-07_14h24.06.592,vts_reward_expectancy_bt,2022.2.4,Win32,60.27364234,Chrome,1536,864,,,,,0,513,,,,,,,,,,,,,,,,,F,167,star,1,0,,,2,,,,,,,,,,,,,switch,letter,lettSwt,d,0.9013,vtsPrac,25,0,25,0,1,,,,,,,,,,,,,,,,,,,,,,,
298045,2022-12-07_14h24.06.592,vts_reward_expectancy_bt,2022.2.4,Win32,60.27364234,Chrome,1536,864,,,,,0,513,,,,,,,,,,,,,,,,,B,139,star,1,0,,,2,,,,,,,,,,,,,repeat,letter,lettRpt,d,0.8629,vtsPrac,26,0,26,0,1,,,,,,,,,,,,,,,,,,,,,,,
298045,2022-12-07_14h24.06.592,vts_reward_expectancy_bt,2022.2.4,Win32,60.27364234,Chrome,1536,864,,,,,0,513,,,,,,,,,,,,,,,,,D,146,circle,1,0,,,2,,,,,,,,,,,,,repeat,letter,lettRpt,d,0.7543,vtsPrac,27,0,27,0,1,,,,,,,,,,,,,,,,,,,,,,,
298045,2022-12-07_14h24.06.592,vts_reward_expectancy_bt,2022.2.4,Win32,60.27364234,Chrome,1536,864,,,,,0,513,,,,,,,,,,,,,,,,,B,132,circle,1,0,,,2,,,,,,,,,,,,,switch,number,numSwt,j,1.1506,vtsPrac,28,0,28,0,1,,,,,,,,,,,,,,,,,,,,,,,
298045,2022-12-07_14h24.06.592,vts_reward_expectancy_bt,2022.2.4,Win32,60.27364234,Chrome,1536,864,,,,,0,513,,,,,,,,,,,,,,,,,Y,160,hexagon,1,0,,,2,,,,,,,,,,,,,switch,letter,lettSwt,f,1.4229,vtsPrac,29,0,29,0,1,,,,,,,,,,,,,,,,,,,,,,,
298045,2022-12-07_14h24.06.592,vts_reward_expectancy_bt,2022.2.4,Win32,60.27364234,Chrome,1536,864,,,,,0,513,,,,,,,,,,,,,,,,,H,181,circle,1,0,,,2,,,,,,,,,,,,,switch,number,numSwt,k,1.4504,vtsPrac,30,0,30,0,1,,,,,,,,,,,,,,,,,,,,,,,
298045,2022-12-07_14h24.06.592,vts_reward_expectancy_bt,2022.2.4,Win32,60.27364234,Chrome,1536,864,,,,,0,513,,,,,,,,,,,,,,,,,F,139,star,1,0,,,2,,,,,,,,,,,,,repeat,number,numRpt,j,1.2697,vtsPrac,31,0,31,0,1,,,,,,,,,,,,,,,,,,,,,,,
298045,2022-12-07_14h24.06.592,vts_reward_expectancy_bt,2022.2.4,Win32,60.27364234,Chrome,1536,864,,,,,,,,,,,,,,,,,,,,,,,,,,,,,,,,,,,,,,,,,,,,,,,,,,,,,,,,,,,,,,,,,,,,,,,,,,,,
298045,2022-12-07_14h24.06.592,vts_reward_expectancy_bt,2022.2.4,Win32,60.27364234,Chrome,1536,864,,,,,,,,,,,,,,,,,,,,,,,,,,,,,,,,,,,,,,,,,,,,,,,,,,,,,,,,,,,,,,,,,,,,,,,,,,,,
298045,2022-12-07_14h24.06.592,vts_reward_expectancy_bt,2022.2.4,Win32,60.27364234,Chrome,1536,864,,,,,0,513,,,,,,,,,,,,,,,,,U,125,triangle,1,0,,,,,,,,,,,,,,,,switch,letter,lettSwt,f,0.8835,noRew,,,,,,0,0,0,0,0,1,,,,,,,,,,,,,,,,,
298045,2022-12-07_14h24.06.592,vts_reward_expectancy_bt,2022.2.4,Win32,60.27364234,Chrome,1536,864,,,,,0,513,,,,,,,,,,,,,,,,,S,139,circle,1,0,,,,,,,,,,,,,,,,switch,number,numSwt,j,0.7579,noRew,,,,,,0,1,0,1,0,1,,,,,,,,,,,,,,,,,
298045,2022-12-07_14h24.06.592,vts_reward_expectancy_bt,2022.2.4,Win32,60.27364234,Chrome,1536,864,,,,,0,513,,,,,,,,,,,,,,,,,B,146,triangle,1,0,,,,,,,,,,,,,,,,switch,letter,lettSwt,d,0.554,noRew,,,,,,0,2,0,2,0,1,,,,,,,,,,,,,,,,,
298045,2022-12-07_14h24.06.592,vts_reward_expectancy_bt,2022.2.4,Win32,60.27364234,Chrome,1536,864,,,,,0,513,,,,,,,,,,,,,,,,,Y,132,circle,1,0,,,,,,,,,,,,,,,,switch,number,numSwt,j,0.6383,noRew,,,,,,0,3,0,3,0,1,,,,,,,,,,,,,,,,,
298045,2022-12-07_14h24.06.592,vts_reward_expectancy_bt,2022.2.4,Win32,60.27364234,Chrome,1536,864,,,,,0,513,,,,,,,,,,,,,,,,,U,125,triangle,1,0,,,,,,,,,,,,,,,,repeat,number,numRpt,j,1.2579,noRew,,,,,,0,4,0,4,0,1,,,,,,,,,,,,,,,,,
298045,2022-12-07_14h24.06.592,vts_reward_expectancy_bt,2022.2.4,Win32,60.27364234,Chrome,1536,864,,,,,0,513,,,,,,,,,,,,,,,,,S,139,star,1,0,,,,,,,,,,,,,,,,switch,letter,lettSwt,f,0.6433,noRew,,,,,,0,5,0,5,0,1,,,,,,,,,,,,,,,,,
298045,2022-12-07_14h24.06.592,vts_reward_expectancy_bt,2022.2.4,Win32,60.27364234,Chrome,1536,864,,,,,0,513,,,,,,,,,,,,,,,,,B,146,star,1,0,,,,,,,,,,,,,,,,switch,number,numSwt,j,0.8505,noRew,,,,,,0,6,0,6,0,1,,,,,,,,,,,,,,,,,
298045,2022-12-07_14h24.06.592,vts_reward_expectancy_bt,2022.2.4,Win32,60.27364234,Chrome,1536,864,,,,,0,513,,,,,,,,,,,,,,,,,Y,132,hexagon,1,0,,,,,,,,,,,,,,,,switch,letter,lettSwt,f,1.0383,noRew,,,,,,0,7,0,7,0,1,,,,,,,,,,,,,,,,,
298045,2022-12-07_14h24.06.592,vts_reward_expectancy_bt,2022.2.4,Win32,60.27364234,Chrome,1536,864,,,,,0,513,,,,,,,,,,,,,,,,,S,181,circle,1,0,,,,,,,,,,,,,,,,switch,number,numSwt,k,0.9926,noRew,,,,,,0,8,0,8,0,1,,,,,,,,,,,,,,,,,
298045,2022-12-07_14h24.06.592,vts_reward_expectancy_bt,2022.2.4,Win32,60.27364234,Chrome,1536,864,,,,,0,513,,,,,,,,,,,,,,,,,W,160,hexagon,1,0,,,,,,,,,,,,,,,,repeat,number,numRpt,k,1.7737,noRew,,,,,,0,9,0,9,0,1,,,,,,,,,,,,,,,,,
298045,2022-12-07_14h24.06.592,vts_reward_expectancy_bt,2022.2.4,Win32,60.27364234,Chrome,1536,864,,,,,0,513,,,,,,,,,,,,,,,,,F,125,hexagon,1,0,,,,,,,,,,,,,,,,switch,letter,lettSwt,d,0.7185,noRew,,,,,,0,10,0,10,0,1,,,,,,,,,,,,,,,,,
298045,2022-12-07_14h24.06.592,vts_reward_expectancy_bt,2022.2.4,Win32,60.27364234,Chrome,1536,864,,,,,0,513,,,,,,,,,,,,,,,,,B,132,triangle,1,0,,,,,,,,,,,,,,,,switch,number,numSwt,j,1.1401,noRew,,,,,,0,11,0,11,0,1,,,,,,,,,,,,,,,,,
298045,2022-12-07_14h24.06.592,vts_reward_expectancy_bt,2022.2.4,Win32,60.27364234,Chrome,1536,864,,,,,0,513,,,,,,,,,,,,,,,,,B,132,hexagon,1,0,,,,,,,,,,,,,,,,switch,letter,lettSwt,d,1.1177,noRew,,,,,,0,12,0,12,0,1,,,,,,,,,,,,,,,,,
298045,2022-12-07_14h24.06.592,vts_reward_expectancy_bt,2022.2.4,Win32,60.27364234,Chrome,1536,864,,,,,0,513,,,,,,,,,,,,,,,,,F,125,triangle,1,0,,,,,,,,,,,,,,,,switch,number,numSwt,j,0.8082,noRew,,,,,,0,13,0,13,0,1,,,,,,,,,,,,,,,,,
298045,2022-12-07_14h24.06.592,vts_reward_expectancy_bt,2022.2.4,Win32,60.27364234,Chrome,1536,864,,,,,0,513,,,,,,,,,,,,,,,,,H,146,star,1,0,,,,,,,,,,,,,,,,repeat,number,numRpt,j,0.8572,noRew,,,,,,0,14,0,14,0,1,,,,,,,,,,,,,,,,,
298045,2022-12-07_14h24.06.592,vts_reward_expectancy_bt,2022.2.4,Win32,60.27364234,Chrome,1536,864,,,,,0,513,,,,,,,,,,,,,,,,,Y,181,hexagon,1,0,,,,,,,,,,,,,,,,switch,letter,lettSwt,f,1.0352,noRew,,,,,,0,15,0,15,0,1,,,,,,,,,,,,,,,,,
298045,2022-12-07_14h24.06.592,vts_reward_expectancy_bt,2022.2.4,Win32,60.27364234,Chrome,1536,864,,,,,0,513,,,,,,,,,,,,,,,,,Y,132,star,1,0,,,,,,,,,,,,,,,,switch,number,numSwt,j,2.3004,noRew,,,,,,0,16,0,16,0,1,,,,,,,,,,,,,,,,,
298045,2022-12-07_14h24.06.592,vts_reward_expectancy_bt,2022.2.4,Win32,60.27364234,Chrome,1536,864,,,,,0,513,,,,,,,,,,,,,,,,,U,160,circle,1,0,,,,,,,,,,,,,,,,switch,letter,lettSwt,f,0.5085,noRew,,,,,,0,17,0,17,0,1,,,,,,,,,,,,,,,,,
298045,2022-12-07_14h24.06.592,vts_reward_expectancy_bt,2022.2.4,Win32,60.27364234,Chrome,1536,864,,,,,0,513,,,,,,,,,,,,,,,,,B,139,triangle,1,0,,,,,,,,,,,,,,,,repeat,letter,lettRpt,d,0.9264,noRew,,,,,,0,18,0,18,0,1,,,,,,,,,,,,,,,,,
298045,2022-12-07_14h24.06.592,vts_reward_expectancy_bt,2022.2.4,Win32,60.27364234,Chrome,1536,864,,,,,0,513,,,,,,,,,,,,,,,,,D,125,hexagon,1,0,,,,,,,,,,,,,,,,switch,number,numSwt,j,1.5835,noRew,,,,,,0,19,0,19,0,1,,,,,,,,,,,,,,,,,
298045,2022-12-07_14h24.06.592,vts_reward_expectancy_bt,2022.2.4,Win32,60.27364234,Chrome,1536,864,,,,,0,513,,,,,,,,,,,,,,,,,H,132,triangle,1,0,,,,,,,,,,,,,,,,switch,letter,lettSwt,d,0.7511,noRew,,,,,,0,20,0,20,0,1,,,,,,,,,,,,,,,,,
298045,2022-12-07_14h24.06.592,vts_reward_expectancy_bt,2022.2.4,Win32,60.27364234,Chrome,1536,864,,,,,0,513,,,,,,,,,,,,,,,,,U,146,hexagon,0,0,,,,,,,,,,,,,,,,switch,number,NA,k,1.4345,noRew,,,,,,0,21,0,21,0,1,,,,,,,,,,,,,,,,,
298045,2022-12-07_14h24.06.592,vts_reward_expectancy_bt,2022.2.4,Win32,60.27364234,Chrome,1536,864,,,,,0,513,,,,,,,,,,,,,,,,,W,125,hexagon,1,1,,,,,,,,,,,,,,,,switch,letter,lettSwt,f,0.9189,noRew,,,,,,0,22,0,22,0,1,,,,,,,,,,,,,,,,,
298045,2022-12-07_14h24.06.592,vts_reward_expectancy_bt,2022.2.4,Win32,60.27364234,Chrome,1536,864,,,,,0,513,,,,,,,,,,,,,,,,,D,181,triangle,1,0,,,,,,,,,,,,,,,,switch,number,numSwt,k,1.6837,noRew,,,,,,0,23,0,23,0,1,,,,,,,,,,,,,,,,,
298045,2022-12-07_14h24.06.592,vts_reward_expectancy_bt,2022.2.4,Win32,60.27364234,Chrome,1536,864,,,,,0,513,,,,,,,,,,,,,,,,,H,132,star,1,0,,,,,,,,,,,,,,,,repeat,number,numRpt,j,2.0216,noRew,,,,,,0,24,0,24,0,1,,,,,,,,,,,,,,,,,
298045,2022-12-07_14h24.06.592,vts_reward_expectancy_bt,2022.2.4,Win32,60.27364234,Chrome,1536,864,,,,,0,513,,,,,,,,,,,,,,,,,S,160,hexagon,1,0,,,,,,,,,,,,,,,,switch,letter,lettSwt,f,1.0852,noRew,,,,,,0,25,0,25,0,1,,,,,,,,,,,,,,,,,
298045,2022-12-07_14h24.06.592,vts_reward_expectancy_bt,2022.2.4,Win32,60.27364234,Chrome,1536,864,,,,,0,513,,,,,,,,,,,,,,,,,W,146,triangle,1,0,,,,,,,,,,,,,,,,switch,number,numSwt,j,2.0998,noRew,,,,,,0,26,0,26,0,1,,,,,,,,,,,,,,,,,
298045,2022-12-07_14h24.06.592,vts_reward_expectancy_bt,2022.2.4,Win32,60.27364234,Chrome,1536,864,,,,,0,513,,,,,,,,,,,,,,,,,D,181,hexagon,1,0,,,,,,,,,,,,,,,,switch,letter,lettSwt,d,0.769,noRew,,,,,,0,27,0,27,0,1,,,,,,,,,,,,,,,,,
298045,2022-12-07_14h24.06.592,vts_reward_expectancy_bt,2022.2.4,Win32,60.27364234,Chrome,1536,864,,,,,0,513,,,,,,,,,,,,,,,,,Y,160,triangle,1,0,,,,,,,,,,,,,,,,switch,number,numSwt,k,2.0432,noRew,,,,,,0,28,0,28,0,1,,,,,,,,,,,,,,,,,
298045,2022-12-07_14h24.06.592,vts_reward_expectancy_bt,2022.2.4,Win32,60.27364234,Chrome,1536,864,,,,,0,513,,,,,,,,,,,,,,,,,U,132,circle,1,0,,,,,,,,,,,,,,,,repeat,number,numRpt,j,1.8028,noRew,,,,,,0,29,0,29,0,1,,,,,,,,,,,,,,,,,
298045,2022-12-07_14h24.06.592,vts_reward_expectancy_bt,2022.2.4,Win32,60.27364234,Chrome,1536,864,,,,,0,513,,,,,,,,,,,,,,,,,W,174,hexagon,1,0,,,,,,,,,,,,,,,,switch,letter,lettSwt,f,1.5141,noRew,,,,,,0,30,0,30,0,1,,,,,,,,,,,,,,,,,
298045,2022-12-07_14h24.06.592,vts_reward_expectancy_bt,2022.2.4,Win32,60.27364234,Chrome,1536,864,,,,,0,513,,,,,,,,,,,,,,,,,D,125,star,1,0,,,,,,,,,,,,,,,,switch,number,numSwt,j,1.0333,noRew,,,,,,0,31,0,31,0,1,,,,,,,,,,,,,,,,,
298045,2022-12-07_14h24.06.592,vts_reward_expectancy_bt,2022.2.4,Win32,60.27364234,Chrome,1536,864,,,,,0,513,,,,,,,,,,,,,,,,,S,181,star,1,0,,,,,,,,,,,,,,,,repeat,number,numRpt,k,1.5666,noRew,,,,,,0,32,0,32,0,1,,,,,,,,,,,,,,,,,
298045,2022-12-07_14h24.06.592,vts_reward_expectancy_bt,2022.2.4,Win32,60.27364234,Chrome,1536,864,,,,,0,513,,,,,,,,,,,,,,,,,B,174,circle,1,0,,,,,,,,,,,,,,,,switch,letter,lettSwt,d,0.5322,noRew,,,,,,0,33,0,33,0,1,,,,,,,,,,,,,,,,,
298045,2022-12-07_14h24.06.592,vts_reward_expectancy_bt,2022.2.4,Win32,60.27364234,Chrome,1536,864,,,,,0,513,,,,,,,,,,,,,,,,,Y,125,circle,1,0,,,,,,,,,,,,,,,,repeat,letter,lettRpt,f,1.6105,noRew,,,,,,0,34,0,34,0,1,,,,,,,,,,,,,,,,,
298045,2022-12-07_14h24.06.592,vts_reward_expectancy_bt,2022.2.4,Win32,60.27364234,Chrome,1536,864,,,,,0,513,,,,,,,,,,,,,,,,,F,139,star,1,0,,,,,,,,,,,,,,,,repeat,letter,lettRpt,d,0.8151,noRew,,,,,,0,35,0,35,0,1,,,,,,,,,,,,,,,,,
298045,2022-12-07_14h24.06.592,vts_reward_expectancy_bt,2022.2.4,Win32,60.27364234,Chrome,1536,864,,,,,0,513,,,,,,,,,,,,,,,,,U,167,triangle,1,0,,,,,,,,,,,,,,,,repeat,letter,lettRpt,f,0.83,noRew,,,,,,0,36,0,36,0,1,,,,,,,,,,,,,,,,,
298045,2022-12-07_14h24.06.592,vts_reward_expectancy_bt,2022.2.4,Win32,60.27364234,Chrome,1536,864,,,,,0,513,,,,,,,,,,,,,,,,,W,181,star,1,0,,,,,,,,,,,,,,,,switch,number,numSwt,k,0.511,noRew,,,,,,0,37,0,37,0,1,,,,,,,,,,,,,,,,,
298045,2022-12-07_14h24.06.592,vts_reward_expectancy_bt,2022.2.4,Win32,60.27364234,Chrome,1536,864,,,,,0,513,,,,,,,,,,,,,,,,,S,174,circle,1,0,,,,,,,,,,,,,,,,repeat,number,numRpt,k,1.6036,noRew,,,,,,0,38,0,38,0,1,,,,,,,,,,,,,,,,,
298045,2022-12-07_14h24.06.592,vts_reward_expectancy_bt,2022.2.4,Win32,60.27364234,Chrome,1536,864,,,,,0,513,,,,,,,,,,,,,,,,,D,146,star,1,0,,,,,,,,,,,,,,,,switch,letter,lettSwt,d,1.1381,noRew,,,,,,0,39,0,39,0,1,,,,,,,,,,,,,,,,,
298045,2022-12-07_14h24.06.592,vts_reward_expectancy_bt,2022.2.4,Win32,60.27364234,Chrome,1536,864,,,,,0,513,,,,,,,,,,,,,,,,,U,160,circle,1,0,,,,,,,,,,,,,,,,switch,number,numSwt,k,0.9056,noRew,,,,,,0,40,0,40,0,1,,,,,,,,,,,,,,,,,
298045,2022-12-07_14h24.06.592,vts_reward_expectancy_bt,2022.2.4,Win32,60.27364234,Chrome,1536,864,,,,,0,513,,,,,,,,,,,,,,,,,Y,125,triangle,1,0,,,,,,,,,,,,,,,,switch,letter,lettSwt,f,1.0837,noRew,,,,,,0,41,0,41,0,1,,,,,,,,,,,,,,,,,
298045,2022-12-07_14h24.06.592,vts_reward_expectancy_bt,2022.2.4,Win32,60.27364234,Chrome,1536,864,,,,,0,513,,,,,,,,,,,,,,,,,D,132,star,1,0,,,,,,,,,,,,,,,,repeat,letter,lettRpt,d,0.8096,noRew,,,,,,0,42,0,42,0,1,,,,,,,,,,,,,,,,,
298045,2022-12-07_14h24.06.592,vts_reward_expectancy_bt,2022.2.4,Win32,60.27364234,Chrome,1536,864,,,,,0,513,,,,,,,,,,,,,,,,,W,146,circle,1,0,,,,,,,,,,,,,,,,repeat,letter,lettRpt,f,1.2171,noRew,,,,,,0,43,0,43,0,1,,,,,,,,,,,,,,,,,
298045,2022-12-07_14h24.06.592,vts_reward_expectancy_bt,2022.2.4,Win32,60.27364234,Chrome,1536,864,,,,,0,513,,,,,,,,,,,,,,,,,U,146,star,1,0,,,,,,,,,,,,,,,,switch,number,numSwt,j,1.3353,noRew,,,,,,0,44,0,44,0,1,,,,,,,,,,,,,,,,,
298045,2022-12-07_14h24.06.592,vts_reward_expectancy_bt,2022.2.4,Win32,60.27364234,Chrome,1536,864,,,,,0,513,,,,,,,,,,,,,,,,,B,181,circle,1,0,,,,,,,,,,,,,,,,switch,letter,lettSwt,d,1.1359,noRew,,,,,,0,45,0,45,0,1,,,,,,,,,,,,,,,,,
298045,2022-12-07_14h24.06.592,vts_reward_expectancy_bt,2022.2.4,Win32,60.27364234,Chrome,1536,864,,,,,0,513,,,,,,,,,,,,,,,,,W,160,circle,1,0,,,,,,,,,,,,,,,,switch,number,numSwt,k,1.3551,noRew,,,,,,0,46,0,46,0,1,,,,,,,,,,,,,,,,,
298045,2022-12-07_14h24.06.592,vts_reward_expectancy_bt,2022.2.4,Win32,60.27364234,Chrome,1536,864,,,,,0,513,,,,,,,,,,,,,,,,,S,139,star,1,0,,,,,,,,,,,,,,,,repeat,number,numRpt,j,1.5525,noRew,,,,,,0,47,0,47,0,1,,,,,,,,,,,,,,,,,
298045,2022-12-07_14h24.06.592,vts_reward_expectancy_bt,2022.2.4,Win32,60.27364234,Chrome,1536,864,,,,,0,513,,,,,,,,,,,,,,,,,H,132,hexagon,1,0,,,,,,,,,,,,,,,,switch,letter,lettSwt,d,0.8597,noRew,,,,,,0,48,0,48,0,1,,,,,,,,,,,,,,,,,
298045,2022-12-07_14h24.06.592,vts_reward_expectancy_bt,2022.2.4,Win32,60.27364234,Chrome,1536,864,,,,,0,513,,,,,,,,,,,,,,,,,F,181,circle,1,0,,,,,,,,,,,,,,,,repeat,letter,lettRpt,d,2.5335,noRew,,,,,,0,49,0,49,0,1,,,,,,,,,,,,,,,,,
298045,2022-12-07_14h24.06.592,vts_reward_expectancy_bt,2022.2.4,Win32,60.27364234,Chrome,1536,864,,,,,0,513,,,,,,,,,,,,,,,,,Y,167,hexagon,1,0,,,,,,,,,,,,,,,,repeat,letter,lettRpt,f,1.2345,noRew,,,,,,0,50,0,50,0,1,,,,,,,,,,,,,,,,,
298045,2022-12-07_14h24.06.592,vts_reward_expectancy_bt,2022.2.4,Win32,60.27364234,Chrome,1536,864,,,,,0,513,,,,,,,,,,,,,,,,,D,174,triangle,1,0,,,,,,,,,,,,,,,,switch,number,numSwt,k,1.0854,noRew,,,,,,0,51,0,51,0,1,,,,,,,,,,,,,,,,,
298045,2022-12-07_14h24.06.592,vts_reward_expectancy_bt,2022.2.4,Win32,60.27364234,Chrome,1536,864,,,,,0,513,,,,,,,,,,,,,,,,,F,125,hexagon,1,0,,,,,,,,,,,,,,,,repeat,number,numRpt,j,1.0837,noRew,,,,,,0,52,0,52,0,1,,,,,,,,,,,,,,,,,
298045,2022-12-07_14h24.06.592,vts_reward_expectancy_bt,2022.2.4,Win32,60.27364234,Chrome,1536,864,,,,,0,513,,,,,,,,,,,,,,,,,U,181,triangle,1,0,,,,,,,,,,,,,,,,switch,letter,lettSwt,f,1.4257,noRew,,,,,,0,53,0,53,0,1,,,,,,,,,,,,,,,,,
298045,2022-12-07_14h24.06.592,vts_reward_expectancy_bt,2022.2.4,Win32,60.27364234,Chrome,1536,864,,,,,0,513,,,,,,,,,,,,,,,,,D,146,triangle,-1,0,,,,,,,,,,,,,,,,switch,no_choice,NA,,,noRew,,,,,,0,54,0,54,0,1,,,,,,,,,,,,,,,,,
298045,2022-12-07_14h24.06.592,vts_reward_expectancy_bt,2022.2.4,Win32,60.27364234,Chrome,1536,864,,,,,0,513,,,,,,,,,,,,,,,,,S,174,hexagon,1,0,,,,,,,,,,,,,,,,switch,letter,lettSwt,f,0.9008,noRew,,,,,,0,55,0,55,0,1,,,,,,,,,,,,,,,,,
298045,2022-12-07_14h24.06.592,vts_reward_expectancy_bt,2022.2.4,Win32,60.27364234,Chrome,1536,864,,,,,0,513,,,,,,,,,,,,,,,,,W,160,hexagon,1,0,,,,,,,,,,,,,,,,switch,number,numSwt,k,0.7746,noRew,,,,,,0,56,0,56,0,1,,,,,,,,,,,,,,,,,
298045,2022-12-07_14h24.06.592,vts_reward_expectancy_bt,2022.2.4,Win32,60.27364234,Chrome,1536,864,,,,,0,513,,,,,,,,,,,,,,,,,B,181,star,1,0,,,,,,,,,,,,,,,,repeat,number,numRpt,k,0.9677,noRew,,,,,,0,57,0,57,0,1,,,,,,,,,,,,,,,,,
298045,2022-12-07_14h24.06.592,vts_reward_expectancy_bt,2022.2.4,Win32,60.27364234,Chrome,1536,864,,,,,0,513,,,,,,,,,,,,,,,,,H,174,circle,1,0,,,,,,,,,,,,,,,,switch,letter,lettSwt,d,1.02,noRew,,,,,,0,58,0,58,0,1,,,,,,,,,,,,,,,,,
298045,2022-12-07_14h24.06.592,vts_reward_expectancy_bt,2022.2.4,Win32,60.27364234,Chrome,1536,864,,,,,0,513,,,,,,,,,,,,,,,,,S,146,triangle,1,0,,,,,,,,,,,,,,,,repeat,letter,lettRpt,f,1.2841,noRew,,,,,,0,59,0,59,0,1,,,,,,,,,,,,,,,,,
298045,2022-12-07_14h24.06.592,vts_reward_expectancy_bt,2022.2.4,Win32,60.27364234,Chrome,1536,864,,,,,0,513,,,,,,,,,,,,,,,,,D,160,triangle,1,0,,,,,,,,,,,,,,,,switch,number,numSwt,k,0.8372,noRew,,,,,,0,60,0,60,0,1,,,,,,,,,,,,,,,,,
298045,2022-12-07_14h24.06.592,vts_reward_expectancy_bt,2022.2.4,Win32,60.27364234,Chrome,1536,864,,,,,0,513,,,,,,,,,,,,,,,,,S,139,star,0,0,,,,,,,,,,,,,,,,repeat,number,NA,k,1.1685,noRew,,,,,,0,61,0,61,0,1,,,,,,,,,,,,,,,,,
298045,2022-12-07_14h24.06.592,vts_reward_expectancy_bt,2022.2.4,Win32,60.27364234,Chrome,1536,864,,,,,0,513,,,,,,,,,,,,,,,,,Y,132,hexagon,1,1,,,,,,,,,,,,,,,,switch,letter,lettSwt,f,1.0883,noRew,,,,,,0,62,0,62,0,1,,,,,,,,,,,,,,,,,
298045,2022-12-07_14h24.06.592,vts_reward_expectancy_bt,2022.2.4,Win32,60.27364234,Chrome,1536,864,,,,,0,513,,,,,,,,,,,,,,,,,U,174,circle,1,0,,,,,,,,,,,,,,,,repeat,letter,lettRpt,f,0.9585,noRew,,,,,,0,63,0,63,0,1,,,,,,,,,,,,,,,,,
298045,2022-12-07_14h24.06.592,vts_reward_expectancy_bt,2022.2.4,Win32,60.27364234,Chrome,1536,864,,,,,,,,,,,,,,,,,,,,,,,,,,,,,,,,,,,,,,,,,,,,,,,,,,,,,,,,,,,,,,,,,,,,,,,,,,,,
298045,2022-12-07_14h24.06.592,vts_reward_expectancy_bt,2022.2.4,Win32,60.27364234,Chrome,1536,864,,,,,0,513,,,,,,,,,,,,,,,,,H,181,triangle,1,0,,,,,,,,,,,,,,,,repeat,letter,lettRpt,d,1.4189,Hi,,,,,,0,,,,,,space,16.7291,high,0,0,0,0,1,,,,,,,,,
298045,2022-12-07_14h24.06.592,vts_reward_expectancy_bt,2022.2.4,Win32,60.27364234,Chrome,1536,864,,,,,10,523,,,,,,,,,,,,,,,,,F,174,star,1,0,,,,,,,,,,,,,,,,repeat,letter,lettRpt,d,0.6019,Hi,,,,,,0,,,,,,,,high,1,0,1,0,1,,,,,,,,,
298045,2022-12-07_14h24.06.592,vts_reward_expectancy_bt,2022.2.4,Win32,60.27364234,Chrome,1536,864,,,,,1,524,,,,,,,,,,,,,,,,,D,160,circle,1,0,,,,,,,,,,,,,,,,switch,number,numSwt,k,0.9871,Lo,,,,,,0,,,,,,,,high,2,0,2,0,1,,,,,,,,,
298045,2022-12-07_14h24.06.592,vts_reward_expectancy_bt,2022.2.4,Win32,60.27364234,Chrome,1536,864,,,,,1,525,,,,,,,,,,,,,,,,,B,167,hexagon,1,0,,,,,,,,,,,,,,,,switch,letter,lettSwt,d,0.742,Lo,,,,,,0,,,,,,,,high,3,0,3,0,1,,,,,,,,,
298045,2022-12-07_14h24.06.592,vts_reward_expectancy_bt,2022.2.4,Win32,60.27364234,Chrome,1536,864,,,,,0,525,,,,,,,,,,,,,,,,,Y,125,triangle,1,0,,,,,,,,,,,,,,,,switch,number,numSwt,j,0.9425,Hi,,,,,,0,,,,,,,,high,4,0,4,0,1,,,,,,,,,
298045,2022-12-07_14h24.06.592,vts_reward_expectancy_bt,2022.2.4,Win32,60.27364234,Chrome,1536,864,,,,,1,526,,,,,,,,,,,,,,,,,U,132,star,1,0,,,,,,,,,,,,,,,,switch,letter,lettSwt,f,0.7025,Hi,,,,,,0,,,,,,,,high,5,0,5,0,1,,,,,,,,,
298045,2022-12-07_14h24.06.592,vts_reward_expectancy_bt,2022.2.4,Win32,60.27364234,Chrome,1536,864,,,,,1,527,,,,,,,,,,,,,,,,,S,146,circle,1,0,,,,,,,,,,,,,,,,switch,number,numSwt,j,0.7503,Lo,,,,,,0,,,,,,,,high,6,0,6,0,1,,,,,,,,,
298045,2022-12-07_14h24.06.592,vts_reward_expectancy_bt,2022.2.4,Win32,60.27364234,Chrome,1536,864,,,,,0,527,,,,,,,,,,,,,,,,,W,139,hexagon,0,0,,,,,,,,,,,,,,,,switch,letter,NA,d,0.8348,Lo,,,,,,0,,,,,,,,high,7,0,7,0,1,,,,,,,,,
298045,2022-12-07_14h24.06.592,vts_reward_expectancy_bt,2022.2.4,Win32,60.27364234,Chrome,1536,864,,,,,1,528,,,,,,,,,,,,,,,,,H,181,triangle,1,1,,,,,,,,,,,,,,,,repeat,letter,lettRpt,d,0.8173,Hi,,,,,,0,,,,,,,,high,8,0,8,0,1,,,,,,,,,
298045,2022-12-07_14h24.06.592,vts_reward_expectancy_bt,2022.2.4,Win32,60.27364234,Chrome,1536,864,,,,,0,528,,,,,,,,,,,,,,,,,F,174,star,1,0,,,,,,,,,,,,,,,,switch,number,numSwt,k,0.9067,Hi,,,,,,0,,,,,,,,high,9,0,9,0,1,,,,,,,,,
298045,2022-12-07_14h24.06.592,vts_reward_expectancy_bt,2022.2.4,Win32,60.27364234,Chrome,1536,864,,,,,1,529,,,,,,,,,,,,,,,,,D,160,circle,1,0,,,,,,,,,,,,,,,,repeat,number,numRpt,k,0.7176,Lo,,,,,,0,,,,,,,,high,10,0,10,0,1,,,,,,,,,
298045,2022-12-07_14h24.06.592,vts_reward_expectancy_bt,2022.2.4,Win32,60.27364234,Chrome,1536,864,,,,,10,539,,,,,,,,,,,,,,,,,B,167,hexagon,1,0,,,,,,,,,,,,,,,,switch,letter,lettSwt,d,0.5911,Lo,,,,,,0,,,,,,,,high,11,0,11,0,1,,,,,,,,,
298045,2022-12-07_14h24.06.592,vts_reward_expectancy_bt,2022.2.4,Win32,60.27364234,Chrome,1536,864,,,,,10,549,,,,,,,,,,,,,,,,,Y,125,star,1,0,,,,,,,,,,,,,,,,repeat,letter,lettRpt,f,0.7005,Hi,,,,,,0,,,,,,,,high,12,0,12,0,1,,,,,,,,,
298045,2022-12-07_14h24.06.592,vts_reward_expectancy_bt,2022.2.4,Win32,60.27364234,Chrome,1536,864,,,,,0,549,,,,,,,,,,,,,,,,,U,132,hexagon,0,0,,,,,,,,,,,,,,,,repeat,letter,NA,d,1.1003,Hi,,,,,,0,,,,,,,,high,13,0,13,0,1,,,,,,,,,
298045,2022-12-07_14h24.06.592,vts_reward_expectancy_bt,2022.2.4,Win32,60.27364234,Chrome,1536,864,,,,,10,559,,,,,,,,,,,,,,,,,S,146,triangle,1,1,,,,,,,,,,,,,,,,repeat,letter,lettRpt,f,0.7901,Hi,,,,,,0,,,,,,,,high,14,0,14,0,1,,,,,,,,,
298045,2022-12-07_14h24.06.592,vts_reward_expectancy_bt,2022.2.4,Win32,60.27364234,Chrome,1536,864,,,,,10,569,,,,,,,,,,,,,,,,,W,139,circle,1,0,,,,,,,,,,,,,,,,switch,number,numSwt,j,0.6849,Lo,,,,,,0,,,,,,,,high,15,0,15,0,1,,,,,,,,,
298045,2022-12-07_14h24.06.592,vts_reward_expectancy_bt,2022.2.4,Win32,60.27364234,Chrome,1536,864,,,,,10,579,,,,,,,,,,,,,,,,,W,167,star,1,0,,,,,,,,,,,,,,,,repeat,number,numRpt,k,1.017,Hi,,,,,,0,,,,,,,,high,16,0,16,0,1,,,,,,,,,
298045,2022-12-07_14h24.06.592,vts_reward_expectancy_bt,2022.2.4,Win32,60.27364234,Chrome,1536,864,,,,,10,589,,,,,,,,,,,,,,,,,F,139,triangle,1,0,,,,,,,,,,,,,,,,repeat,number,numRpt,j,0.7674,Hi,,,,,,0,,,,,,,,high,17,0,17,0,1,,,,,,,,,
298045,2022-12-07_14h24.06.592,vts_reward_expectancy_bt,2022.2.4,Win32,60.27364234,Chrome,1536,864,,,,,10,599,,,,,,,,,,,,,,,,,Y,160,hexagon,1,0,,,,,,,,,,,,,,,,switch,letter,lettSwt,f,0.5411,Lo,,,,,,0,,,,,,,,high,18,0,18,0,1,,,,,,,,,
298045,2022-12-07_14h24.06.592,vts_reward_expectancy_bt,2022.2.4,Win32,60.27364234,Chrome,1536,864,,,,,1,600,,,,,,,,,,,,,,,,,D,181,circle,1,0,,,,,,,,,,,,,,,,repeat,letter,lettRpt,d,1.1387,Lo,,,,,,0,,,,,,,,high,19,0,19,0,1,,,,,,,,,
298045,2022-12-07_14h24.06.592,vts_reward_expectancy_bt,2022.2.4,Win32,60.27364234,Chrome,1536,864,,,,,10,610,,,,,,,,,,,,,,,,,S,146,triangle,1,0,,,,,,,,,,,,,,,,switch,number,numSwt,j,0.7234,Hi,,,,,,0,,,,,,,,high,20,0,20,0,1,,,,,,,,,
298045,2022-12-07_14h24.06.592,vts_reward_expectancy_bt,2022.2.4,Win32,60.27364234,Chrome,1536,864,,,,,10,620,,,,,,,,,,,,,,,,,U,132,circle,1,0,,,,,,,,,,,,,,,,switch,letter,lettSwt,f,0.7099,Lo,,,,,,0,,,,,,,,high,21,0,21,0,1,,,,,,,,,
298045,2022-12-07_14h24.06.592,vts_reward_expectancy_bt,2022.2.4,Win32,60.27364234,Chrome,1536,864,,,,,0,620,,,,,,,,,,,,,,,,,H,174,star,1,0,,,,,,,,,,,,,,,,switch,number,numSwt,k,0.8936,Hi,,,,,,0,,,,,,,,high,22,0,22,0,1,,,,,,,,,
298045,2022-12-07_14h24.06.592,vts_reward_expectancy_bt,2022.2.4,Win32,60.27364234,Chrome,1536,864,,,,,1,621,,,,,,,,,,,,,,,,,B,125,hexagon,1,0,,,,,,,,,,,,,,,,repeat,number,numRpt,j,0.8195,Lo,,,,,,0,,,,,,,,high,23,0,23,0,1,,,,,,,,,
298045,2022-12-07_14h24.06.592,vts_reward_expectancy_bt,2022.2.4,Win32,60.27364234,Chrome,1536,864,,,,,10,631,,,,,,,,,,,,,,,,,W,167,star,1,0,,,,,,,,,,,,,,,,switch,letter,lettSwt,f,0.6507,Hi,,,,,,0,,,,,,,,high,24,0,24,0,1,,,,,,,,,
298045,2022-12-07_14h24.06.592,vts_reward_expectancy_bt,2022.2.4,Win32,60.27364234,Chrome,1536,864,,,,,1,632,,,,,,,,,,,,,,,,,Y,181,hexagon,1,0,,,,,,,,,,,,,,,,switch,number,numSwt,k,0.6357,Lo,,,,,,0,,,,,,,,high,25,0,25,0,1,,,,,,,,,
298045,2022-12-07_14h24.06.592,vts_reward_expectancy_bt,2022.2.4,Win32,60.27364234,Chrome,1536,864,,,,,10,642,,,,,,,,,,,,,,,,,D,174,triangle,1,0,,,,,,,,,,,,,,,,switch,letter,lettSwt,d,0.7201,Hi,,,,,,0,,,,,,,,high,26,0,26,0,1,,,,,,,,,
298045,2022-12-07_14h24.06.592,vts_reward_expectancy_bt,2022.2.4,Win32,60.27364234,Chrome,1536,864,,,,,1,643,,,,,,,,,,,,,,,,,H,139,circle,1,0,,,,,,,,,,,,,,,,switch,number,numSwt,j,0.6344,Lo,,,,,,0,,,,,,,,high,27,0,27,0,1,,,,,,,,,
298045,2022-12-07_14h24.06.592,vts_reward_expectancy_bt,2022.2.4,Win32,60.27364234,Chrome,1536,864,,,,,1,644,,,,,,,,,,,,,,,,,B,125,hexagon,1,0,,,,,,,,,,,,,,,,switch,letter,lettSwt,d,0.6516,Lo,,,,,,0,,,,,,,,high,28,0,28,0,1,,,,,,,,,
298045,2022-12-07_14h24.06.592,vts_reward_expectancy_bt,2022.2.4,Win32,60.27364234,Chrome,1536,864,,,,,0,644,,,,,,,,,,,,,,,,,U,146,circle,0,0,,,,,,,,,,,,,,,,switch,number,NA,k,1.2518,Lo,,,,,,0,,,,,,,,high,29,0,29,0,1,,,,,,,,,
298045,2022-12-07_14h24.06.592,vts_reward_expectancy_bt,2022.2.4,Win32,60.27364234,Chrome,1536,864,,,,,10,654,,,,,,,,,,,,,,,,,F,160,star,1,1,,,,,,,,,,,,,,,,repeat,number,numRpt,k,0.8337,Hi,,,,,,0,,,,,,,,high,30,0,30,0,1,,,,,,,,,
298045,2022-12-07_14h24.06.592,vts_reward_expectancy_bt,2022.2.4,Win32,60.27364234,Chrome,1536,864,,,,,0,654,,,,,,,,,,,,,,,,,S,132,triangle,1,0,,,,,,,,,,,,,,,,switch,letter,lettSwt,f,0.9502,Hi,,,,,,0,,,,,,,,high,31,0,31,0,1,,,,,,,,,
298045,2022-12-07_14h24.06.592,vts_reward_expectancy_bt,2022.2.4,Win32,60.27364234,Chrome,1536,864,,,,,10,664,,,,,,,,,,,,,,,,,B,174,star,1,0,,,,,,,,,,,,,,,,repeat,letter,lettRpt,d,0.6669,Hi,,,,,,1,,,,,,space,5.2518,high,0,0,0,0,1,,,,,,,,,
298045,2022-12-07_14h24.06.592,vts_reward_expectancy_bt,2022.2.4,Win32,60.27364234,Chrome,1536,864,,,,,0,664,,,,,,,,,,,,,,,,,F,181,triangle,1,0,,,,,,,,,,,,,,,,repeat,letter,lettRpt,d,0.9832,Hi,,,,,,1,,,,,,,,high,1,0,1,0,1,,,,,,,,,
298045,2022-12-07_14h24.06.592,vts_reward_expectancy_bt,2022.2.4,Win32,60.27364234,Chrome,1536,864,,,,,1,665,,,,,,,,,,,,,,,,,S,167,hexagon,1,0,,,,,,,,,,,,,,,,switch,number,numSwt,k,0.5002,Lo,,,,,,1,,,,,,,,high,2,0,2,0,1,,,,,,,,,
298045,2022-12-07_14h24.06.592,vts_reward_expectancy_bt,2022.2.4,Win32,60.27364234,Chrome,1536,864,,,,,1,666,,,,,,,,,,,,,,,,,W,125,circle,1,0,,,,,,,,,,,,,,,,switch,letter,lettSwt,f,0.5336,Lo,,,,,,1,,,,,,,,high,3,0,3,0,1,,,,,,,,,
298045,2022-12-07_14h24.06.592,vts_reward_expectancy_bt,2022.2.4,Win32,60.27364234,Chrome,1536,864,,,,,0,666,,,,,,,,,,,,,,,,,D,160,star,1,0,,,,,,,,,,,,,,,,switch,number,numSwt,k,0.801,Hi,,,,,,1,,,,,,,,high,4,0,4,0,1,,,,,,,,,
298045,2022-12-07_14h24.06.592,vts_reward_expectancy_bt,2022.2.4,Win32,60.27364234,Chrome,1536,864,,,,,10,676,,,,,,,,,,,,,,,,,H,146,triangle,1,0,,,,,,,,,,,,,,,,repeat,number,numRpt,j,0.5703,Hi,,,,,,1,,,,,,,,high,5,0,5,0,1,,,,,,,,,
298045,2022-12-07_14h24.06.592,vts_reward_expectancy_bt,2022.2.4,Win32,60.27364234,Chrome,1536,864,,,,,1,677,,,,,,,,,,,,,,,,,U,132,hexagon,1,0,,,,,,,,,,,,,,,,repeat,number,numRpt,j,0.4845,Lo,,,,,,1,,,,,,,,high,6,0,6,0,1,,,,,,,,,
298045,2022-12-07_14h24.06.592,vts_reward_expectancy_bt,2022.2.4,Win32,60.27364234,Chrome,1536,864,,,,,1,678,,,,,,,,,,,,,,,,,Y,139,circle,1,0,,,,,,,,,,,,,,,,switch,letter,lettSwt,f,0.5037,Lo,,,,,,1,,,,,,,,high,7,0,7,0,1,,,,,,,,,
298045,2022-12-07_14h24.06.592,vts_reward_expectancy_bt,2022.2.4,Win32,60.27364234,Chrome,1536,864,,,,,1,679,,,,,,,,,,,,,,,,,B,174,triangle,1,0,,,,,,,,,,,,,,,,repeat,letter,lettRpt,d,0.5521,Hi,,,,,,1,,,,,,,,high,8,0,8,0,1,,,,,,,,,
298045,2022-12-07_14h24.06.592,vts_reward_expectancy_bt,2022.2.4,Win32,60.27364234,Chrome,1536,864,,,,,10,689,,,,,,,,,,,,,,,,,F,181,star,1,0,,,,,,,,,,,,,,,,repeat,letter,lettRpt,d,0.7011,Hi,,,,,,1,,,,,,,,high,9,0,9,0,1,,,,,,,,,
298045,2022-12-07_14h24.06.592,vts_reward_expectancy_bt,2022.2.4,Win32,60.27364234,Chrome,1536,864,,,,,1,690,,,,,,,,,,,,,,,,,S,167,hexagon,1,0,,,,,,,,,,,,,,,,switch,number,numSwt,k,0.435,Lo,,,,,,1,,,,,,,,high,10,0,10,0,1,,,,,,,,,
298045,2022-12-07_14h24.06.592,vts_reward_expectancy_bt,2022.2.4,Win32,60.27364234,Chrome,1536,864,,,,,1,691,,,,,,,,,,,,,,,,,W,125,circle,1,0,,,,,,,,,,,,,,,,switch,letter,lettSwt,f,0.635,Lo,,,,,,1,,,,,,,,high,11,0,11,0,1,,,,,,,,,
298045,2022-12-07_14h24.06.592,vts_reward_expectancy_bt,2022.2.4,Win32,60.27364234,Chrome,1536,864,,,,,10,701,,,,,,,,,,,,,,,,,D,160,triangle,1,0,,,,,,,,,,,,,,,,switch,number,numSwt,k,0.5505,Hi,,,,,,1,,,,,,,,high,12,0,12,0,1,,,,,,,,,
298045,2022-12-07_14h24.06.592,vts_reward_expectancy_bt,2022.2.4,Win32,60.27364234,Chrome,1536,864,,,,,0,701,,,,,,,,,,,,,,,,,H,146,star,1,0,,,,,,,,,,,,,,,,switch,letter,lettSwt,d,0.6846,Hi,,,,,,1,,,,,,,,high,13,0,13,0,1,,,,,,,,,
298045,2022-12-07_14h24.06.592,vts_reward_expectancy_bt,2022.2.4,Win32,60.27364234,Chrome,1536,864,,,,,1,702,,,,,,,,,,,,,,,,,U,132,hexagon,1,0,,,,,,,,,,,,,,,,repeat,letter,lettRpt,f,0.8847,Lo,,,,,,1,,,,,,,,high,14,0,14,0,1,,,,,,,,,
298045,2022-12-07_14h24.06.592,vts_reward_expectancy_bt,2022.2.4,Win32,60.27364234,Chrome,1536,864,,,,,10,712,,,,,,,,,,,,,,,,,Y,139,circle,1,0,,,,,,,,,,,,,,,,switch,number,numSwt,j,0.5937,Lo,,,,,,1,,,,,,,,high,15,0,15,0,1,,,,,,,,,
298045,2022-12-07_14h24.06.592,vts_reward_expectancy_bt,2022.2.4,Win32,60.27364234,Chrome,1536,864,,,,,0,712,,,,,,,,,,,,,,,,,S,139,hexagon,0,0,,,,,,,,,,,,,,,,switch,letter,NA,d,0.7675,Lo,,,,,,1,,,,,,,,high,16,0,16,0,1,,,,,,,,,
298045,2022-12-07_14h24.06.592,vts_reward_expectancy_bt,2022.2.4,Win32,60.27364234,Chrome,1536,864,,,,,0,712,,,,,,,,,,,,,,,,,H,174,star,1,1,,,,,,,,,,,,,,,,switch,number,numSwt,k,0.7842,Hi,,,,,,1,,,,,,,,high,17,0,17,0,1,,,,,,,,,
298045,2022-12-07_14h24.06.592,vts_reward_expectancy_bt,2022.2.4,Win32,60.27364234,Chrome,1536,864,,,,,1,713,,,,,,,,,,,,,,,,,D,132,circle,1,0,,,,,,,,,,,,,,,,switch,letter,lettSwt,d,0.6517,Lo,,,,,,1,,,,,,,,high,18,0,18,0,1,,,,,,,,,
298045,2022-12-07_14h24.06.592,vts_reward_expectancy_bt,2022.2.4,Win32,60.27364234,Chrome,1536,864,,,,,1,714,,,,,,,,,,,,,,,,,B,160,triangle,1,0,,,,,,,,,,,,,,,,switch,number,numSwt,k,0.6928,Hi,,,,,,1,,,,,,,,high,19,0,19,0,1,,,,,,,,,
298045,2022-12-07_14h24.06.592,vts_reward_expectancy_bt,2022.2.4,Win32,60.27364234,Chrome,1536,864,,,,,1,715,,,,,,,,,,,,,,,,,W,146,triangle,1,0,,,,,,,,,,,,,,,,switch,letter,lettSwt,f,0.5502,Hi,,,,,,1,,,,,,,,high,20,0,20,0,1,,,,,,,,,
298045,2022-12-07_14h24.06.592,vts_reward_expectancy_bt,2022.2.4,Win32,60.27364234,Chrome,1536,864,,,,,1,716,,,,,,,,,,,,,,,,,F,181,circle,1,0,,,,,,,,,,,,,,,,repeat,letter,lettRpt,d,0.7518,Lo,,,,,,1,,,,,,,,high,21,0,21,0,1,,,,,,,,,
298045,2022-12-07_14h24.06.592,vts_reward_expectancy_bt,2022.2.4,Win32,60.27364234,Chrome,1536,864,,,,,1,717,,,,,,,,,,,,,,,,,U,125,hexagon,1,0,,,,,,,,,,,,,,,,switch,number,numSwt,j,0.6245,Lo,,,,,,1,,,,,,,,high,22,0,22,0,1,,,,,,,,,
298045,2022-12-07_14h24.06.592,vts_reward_expectancy_bt,2022.2.4,Win32,60.27364234,Chrome,1536,864,,,,,10,727,,,,,,,,,,,,,,,,,Y,167,star,1,0,,,,,,,,,,,,,,,,switch,letter,lettSwt,f,0.6335,Hi,,,,,,1,,,,,,,,high,23,0,23,0,1,,,,,,,,,
298045,2022-12-07_14h24.06.592,vts_reward_expectancy_bt,2022.2.4,Win32,60.27364234,Chrome,1536,864,,,,,10,737,,,,,,,,,,,,,,,,,U,174,star,1,0,,,,,,,,,,,,,,,,repeat,letter,lettRpt,f,0.7352,Hi,,,,,,1,,,,,,,,high,24,0,24,0,1,,,,,,,,,
298045,2022-12-07_14h24.06.592,vts_reward_expectancy_bt,2022.2.4,Win32,60.27364234,Chrome,1536,864,,,,,0,737,,,,,,,,,,,,,,,,,F,160,triangle,1,0,,,,,,,,,,,,,,,,switch,number,numSwt,k,0.7362,Hi,,,,,,1,,,,,,,,high,25,0,25,0,1,,,,,,,,,
298045,2022-12-07_14h24.06.592,vts_reward_expectancy_bt,2022.2.4,Win32,60.27364234,Chrome,1536,864,,,,,1,738,,,,,,,,,,,,,,,,,B,125,hexagon,1,0,,,,,,,,,,,,,,,,switch,letter,lettSwt,d,0.5674,Lo,,,,,,1,,,,,,,,high,26,0,26,0,1,,,,,,,,,
298045,2022-12-07_14h24.06.592,vts_reward_expectancy_bt,2022.2.4,Win32,60.27364234,Chrome,1536,864,,,,,1,739,,,,,,,,,,,,,,,,,W,181,circle,1,0,,,,,,,,,,,,,,,,repeat,letter,lettRpt,f,0.6179,Lo,,,,,,1,,,,,,,,high,27,0,27,0,1,,,,,,,,,
298045,2022-12-07_14h24.06.592,vts_reward_expectancy_bt,2022.2.4,Win32,60.27364234,Chrome,1536,864,,,,,1,740,,,,,,,,,,,,,,,,,Y,146,hexagon,1,0,,,,,,,,,,,,,,,,repeat,letter,lettRpt,f,0.6029,Lo,,,,,,1,,,,,,,,high,28,0,28,0,1,,,,,,,,,
298045,2022-12-07_14h24.06.592,vts_reward_expectancy_bt,2022.2.4,Win32,60.27364234,Chrome,1536,864,,,,,10,750,,,,,,,,,,,,,,,,,D,167,triangle,1,0,,,,,,,,,,,,,,,,switch,number,numSwt,k,0.6891,Hi,,,,,,1,,,,,,,,high,29,0,29,0,1,,,,,,,,,
298045,2022-12-07_14h24.06.592,vts_reward_expectancy_bt,2022.2.4,Win32,60.27364234,Chrome,1536,864,,,,,1,751,,,,,,,,,,,,,,,,,S,139,circle,1,0,,,,,,,,,,,,,,,,switch,letter,lettSwt,f,0.6004,Lo,,,,,,1,,,,,,,,high,30,0,30,0,1,,,,,,,,,
298045,2022-12-07_14h24.06.592,vts_reward_expectancy_bt,2022.2.4,Win32,60.27364234,Chrome,1536,864,,,,,10,761,,,,,,,,,,,,,,,,,H,132,star,1,0,,,,,,,,,,,,,,,,switch,number,numSwt,j,0.6038,Hi,,,,,,1,,,,,,,,high,31,0,31,0,1,,,,,,,,,
298045,2022-12-07_14h24.06.592,vts_reward_expectancy_bt,2022.2.4,Win32,60.27364234,Chrome,1536,864,,,,,10,771,,,,,,,,,,,,,,,,,F,181,hexagon,1,0,,,,,,,,,,,,,,,,switch,letter,lettSwt,d,0.6678,Lo,,,,,,2,,,,,,space,1.073,high,0,0,0,0,1,,,,,,,,,
298045,2022-12-07_14h24.06.592,vts_reward_expectancy_bt,2022.2.4,Win32,60.27364234,Chrome,1536,864,,,,,0,771,,,,,,,,,,,,,,,,,S,132,star,1,0,,,,,,,,,,,,,,,,switch,number,numSwt,j,0.7381,Hi,,,,,,2,,,,,,,,high,1,0,1,0,1,,,,,,,,,
298045,2022-12-07_14h24.06.592,vts_reward_expectancy_bt,2022.2.4,Win32,60.27364234,Chrome,1536,864,,,,,1,772,,,,,,,,,,,,,,,,,W,146,circle,1,0,,,,,,,,,,,,,,,,switch,letter,lettSwt,f,0.6198,Lo,,,,,,2,,,,,,,,high,2,0,2,0,1,,,,,,,,,
298045,2022-12-07_14h24.06.592,vts_reward_expectancy_bt,2022.2.4,Win32,60.27364234,Chrome,1536,864,,,,,10,782,,,,,,,,,,,,,,,,,Y,139,triangle,1,0,,,,,,,,,,,,,,,,switch,number,numSwt,j,0.3844,Hi,,,,,,2,,,,,,,,high,3,0,3,0,1,,,,,,,,,
298045,2022-12-07_14h24.06.592,vts_reward_expectancy_bt,2022.2.4,Win32,60.27364234,Chrome,1536,864,,,,,1,783,,,,,,,,,,,,,,,,,H,160,hexagon,1,0,,,,,,,,,,,,,,,,repeat,number,numRpt,k,0.3894,Lo,,,,,,2,,,,,,,,high,4,0,4,0,1,,,,,,,,,
298045,2022-12-07_14h24.06.592,vts_reward_expectancy_bt,2022.2.4,Win32,60.27364234,Chrome,1536,864,,,,,10,793,,,,,,,,,,,,,,,,,B,167,star,1,0,,,,,,,,,,,,,,,,switch,letter,lettSwt,d,0.4684,Hi,,,,,,2,,,,,,,,high,5,0,5,0,1,,,,,,,,,
298045,2022-12-07_14h24.06.592,vts_reward_expectancy_bt,2022.2.4,Win32,60.27364234,Chrome,1536,864,,,,,1,794,,,,,,,,,,,,,,,,,U,125,circle,1,0,,,,,,,,,,,,,,,,repeat,letter,lettRpt,f,0.442,Lo,,,,,,2,,,,,,,,high,6,0,6,0,1,,,,,,,,,
298045,2022-12-07_14h24.06.592,vts_reward_expectancy_bt,2022.2.4,Win32,60.27364234,Chrome,1536,864,,,,,0,794,,,,,,,,,,,,,,,,,D,174,triangle,1,0,,,,,,,,,,,,,,,,switch,number,numSwt,k,0.7716,Hi,,,,,,2,,,,,,,,high,7,0,7,0,1,,,,,,,,,
298045,2022-12-07_14h24.06.592,vts_reward_expectancy_bt,2022.2.4,Win32,60.27364234,Chrome,1536,864,,,,,10,804,,,,,,,,,,,,,,,,,F,181,star,1,0,,,,,,,,,,,,,,,,repeat,number,numRpt,k,0.4332,Hi,,,,,,2,,,,,,,,high,8,0,8,0,1,,,,,,,,,
298045,2022-12-07_14h24.06.592,vts_reward_expectancy_bt,2022.2.4,Win32,60.27364234,Chrome,1536,864,,,,,10,814,,,,,,,,,,,,,,,,,S,132,circle,1,0,,,,,,,,,,,,,,,,switch,letter,lettSwt,f,0.6052,Lo,,,,,,2,,,,,,,,high,9,0,9,0,1,,,,,,,,,
298045,2022-12-07_14h24.06.592,vts_reward_expectancy_bt,2022.2.4,Win32,60.27364234,Chrome,1536,864,,,,,10,824,,,,,,,,,,,,,,,,,W,146,hexagon,1,0,,,,,,,,,,,,,,,,repeat,letter,lettRpt,f,0.5348,Lo,,,,,,2,,,,,,,,high,10,0,10,0,1,,,,,,,,,
298045,2022-12-07_14h24.06.592,vts_reward_expectancy_bt,2022.2.4,Win32,60.27364234,Chrome,1536,864,,,,,0,824,,,,,,,,,,,,,,,,,Y,139,triangle,1,0,,,,,,,,,,,,,,,,switch,number,numSwt,j,0.6333,Hi,,,,,,2,,,,,,,,high,11,0,11,0,1,,,,,,,,,
298045,2022-12-07_14h24.06.592,vts_reward_expectancy_bt,2022.2.4,Win32,60.27364234,Chrome,1536,864,,,,,0,824,,,,,,,,,,,,,,,,,H,160,hexagon,0,0,,,,,,,,,,,,,,,,repeat,number,NA,j,0.5507,Hi,,,,,,2,,,,,,,,high,12,0,12,0,1,,,,,,,,,
298045,2022-12-07_14h24.06.592,vts_reward_expectancy_bt,2022.2.4,Win32,60.27364234,Chrome,1536,864,,,,,1,825,,,,,,,,,,,,,,,,,B,167,circle,1,1,,,,,,,,,,,,,,,,repeat,number,numRpt,k,0.7037,Lo,,,,,,2,,,,,,,,high,13,0,13,0,1,,,,,,,,,
298045,2022-12-07_14h24.06.592,vts_reward_expectancy_bt,2022.2.4,Win32,60.27364234,Chrome,1536,864,,,,,1,826,,,,,,,,,,,,,,,,,U,125,triangle,1,0,,,,,,,,,,,,,,,,repeat,number,numRpt,j,0.5577,Hi,,,,,,2,,,,,,,,high,14,0,14,0,1,,,,,,,,,
298045,2022-12-07_14h24.06.592,vts_reward_expectancy_bt,2022.2.4,Win32,60.27364234,Chrome,1536,864,,,,,0,826,,,,,,,,,,,,,,,,,D,174,star,1,0,,,,,,,,,,,,,,,,switch,letter,lettSwt,d,0.6552,Hi,,,,,,2,,,,,,,,high,15,0,15,0,1,,,,,,,,,
298045,2022-12-07_14h24.06.592,vts_reward_expectancy_bt,2022.2.4,Win32,60.27364234,Chrome,1536,864,,,,,10,836,,,,,,,,,,,,,,,,,S,167,triangle,1,0,,,,,,,,,,,,,,,,repeat,letter,lettRpt,f,0.6347,Hi,,,,,,2,,,,,,,,high,16,0,16,0,1,,,,,,,,,
298045,2022-12-07_14h24.06.592,vts_reward_expectancy_bt,2022.2.4,Win32,60.27364234,Chrome,1536,864,,,,,1,837,,,,,,,,,,,,,,,,,Y,181,hexagon,1,0,,,,,,,,,,,,,,,,repeat,letter,lettRpt,f,0.4908,Lo,,,,,,2,,,,,,,,high,17,0,17,0,1,,,,,,,,,
298045,2022-12-07_14h24.06.592,vts_reward_expectancy_bt,2022.2.4,Win32,60.27364234,Chrome,1536,864,,,,,1,838,,,,,,,,,,,,,,,,,B,139,circle,1,0,,,,,,,,,,,,,,,,switch,number,numSwt,j,0.4093,Lo,,,,,,2,,,,,,,,high,18,0,18,0,1,,,,,,,,,
298045,2022-12-07_14h24.06.592,vts_reward_expectancy_bt,2022.2.4,Win32,60.27364234,Chrome,1536,864,,,,,0,838,,,,,,,,,,,,,,,,,F,132,star,1,0,,,,,,,,,,,,,,,,repeat,number,numRpt,j,0.6098,Hi,,,,,,2,,,,,,,,high,19,0,19,0,1,,,,,,,,,
298045,2022-12-07_14h24.06.592,vts_reward_expectancy_bt,2022.2.4,Win32,60.27364234,Chrome,1536,864,,,,,0,838,,,,,,,,,,,,,,,,,W,174,triangle,0,0,,,,,,,,,,,,,,,,repeat,number,NA,j,0.5508,Hi,,,,,,2,,,,,,,,high,20,0,20,0,1,,,,,,,,,
298045,2022-12-07_14h24.06.592,vts_reward_expectancy_bt,2022.2.4,Win32,60.27364234,Chrome,1536,864,,,,,0,838,,,,,,,,,,,,,,,,,D,160,star,1,1,,,,,,,,,,,,,,,,repeat,number,numRpt,k,0.604,Hi,,,,,,2,,,,,,,,high,21,0,21,0,1,,,,,,,,,
298045,2022-12-07_14h24.06.592,vts_reward_expectancy_bt,2022.2.4,Win32,60.27364234,Chrome,1536,864,,,,,10,848,,,,,,,,,,,,,,,,,H,146,hexagon,1,0,,,,,,,,,,,,,,,,repeat,number,numRpt,j,0.6858,Lo,,,,,,2,,,,,,,,high,22,0,22,0,1,,,,,,,,,
298045,2022-12-07_14h24.06.592,vts_reward_expectancy_bt,2022.2.4,Win32,60.27364234,Chrome,1536,864,,,,,1,849,,,,,,,,,,,,,,,,,U,125,circle,1,0,,,,,,,,,,,,,,,,switch,letter,lettSwt,f,0.4705,Lo,,,,,,2,,,,,,,,high,23,0,23,0,1,,,,,,,,,
298045,2022-12-07_14h24.06.592,vts_reward_expectancy_bt,2022.2.4,Win32,60.27364234,Chrome,1536,864,,,,,1,850,,,,,,,,,,,,,,,,,D,174,star,1,0,,,,,,,,,,,,,,,,switch,number,numSwt,k,0.5085,Hi,,,,,,2,,,,,,,,high,24,0,24,0,1,,,,,,,,,
298045,2022-12-07_14h24.06.592,vts_reward_expectancy_bt,2022.2.4,Win32,60.27364234,Chrome,1536,864,,,,,1,851,,,,,,,,,,,,,,,,,S,125,circle,1,0,,,,,,,,,,,,,,,,switch,letter,lettSwt,f,0.5197,Lo,,,,,,2,,,,,,,,high,25,0,25,0,1,,,,,,,,,
298045,2022-12-07_14h24.06.592,vts_reward_expectancy_bt,2022.2.4,Win32,60.27364234,Chrome,1536,864,,,,,10,861,,,,,,,,,,,,,,,,,F,167,triangle,1,0,,,,,,,,,,,,,,,,repeat,letter,lettRpt,d,0.5836,Hi,,,,,,2,,,,,,,,high,26,0,26,0,1,,,,,,,,,
298045,2022-12-07_14h24.06.592,vts_reward_expectancy_bt,2022.2.4,Win32,60.27364234,Chrome,1536,864,,,,,1,862,,,,,,,,,,,,,,,,,W,139,hexagon,1,0,,,,,,,,,,,,,,,,switch,number,numSwt,j,0.6179,Lo,,,,,,2,,,,,,,,high,27,0,27,0,1,,,,,,,,,
298045,2022-12-07_14h24.06.592,vts_reward_expectancy_bt,2022.2.4,Win32,60.27364234,Chrome,1536,864,,,,,1,863,,,,,,,,,,,,,,,,,B,132,hexagon,1,0,,,,,,,,,,,,,,,,repeat,number,numRpt,j,0.6061,Lo,,,,,,2,,,,,,,,high,28,0,28,0,1,,,,,,,,,
298045,2022-12-07_14h24.06.592,vts_reward_expectancy_bt,2022.2.4,Win32,60.27364234,Chrome,1536,864,,,,,1,864,,,,,,,,,,,,,,,,,U,160,circle,1,0,,,,,,,,,,,,,,,,switch,letter,lettSwt,f,0.4704,Lo,,,,,,2,,,,,,,,high,29,0,29,0,1,,,,,,,,,
298045,2022-12-07_14h24.06.592,vts_reward_expectancy_bt,2022.2.4,Win32,60.27364234,Chrome,1536,864,,,,,0,864,,,,,,,,,,,,,,,,,Y,146,triangle,1,0,,,,,,,,,,,,,,,,switch,number,numSwt,j,0.6504,Hi,,,,,,2,,,,,,,,high,30,0,30,0,1,,,,,,,,,
298045,2022-12-07_14h24.06.592,vts_reward_expectancy_bt,2022.2.4,Win32,60.27364234,Chrome,1536,864,,,,,0,864,,,,,,,,,,,,,,,,,H,181,star,0,0,,,,,,,,,,,,,,,,repeat,number,NA,j,1.4003,Hi,,,,,,2,,,,,,,,high,31,0,31,0,1,,,,,,,,,
298045,2022-12-07_14h24.06.592,vts_reward_expectancy_bt,2022.2.4,Win32,60.27364234,Chrome,1536,864,,,,,1,865,,,,,,,,,,,,,,,,,B,139,star,1,1,,,,,,,,,,,,,,,,switch,letter,lettSwt,d,0.4672,Hi,,,,,,3,,,,,,space,4.783,high,0,0,0,0,1,,,,,,,,,
298045,2022-12-07_14h24.06.592,vts_reward_expectancy_bt,2022.2.4,Win32,60.27364234,Chrome,1536,864,,,,,1,866,,,,,,,,,,,,,,,,,Y,125,hexagon,1,0,,,,,,,,,,,,,,,,repeat,letter,lettRpt,f,0.5869,Lo,,,,,,3,,,,,,,,high,1,0,1,0,1,,,,,,,,,
298045,2022-12-07_14h24.06.592,vts_reward_expectancy_bt,2022.2.4,Win32,60.27364234,Chrome,1536,864,,,,,10,876,,,,,,,,,,,,,,,,,W,167,circle,1,0,,,,,,,,,,,,,,,,repeat,letter,lettRpt,f,0.484,Lo,,,,,,3,,,,,,,,high,2,0,2,0,1,,,,,,,,,
298045,2022-12-07_14h24.06.592,vts_reward_expectancy_bt,2022.2.4,Win32,60.27364234,Chrome,1536,864,,,,,0,876,,,,,,,,,,,,,,,,,D,146,triangle,1,0,,,,,,,,,,,,,,,,switch,number,numSwt,j,0.7188,Hi,,,,,,3,,,,,,,,high,3,0,3,0,1,,,,,,,,,
298045,2022-12-07_14h24.06.592,vts_reward_expectancy_bt,2022.2.4,Win32,60.27364234,Chrome,1536,864,,,,,1,877,,,,,,,,,,,,,,,,,S,181,star,1,0,,,,,,,,,,,,,,,,repeat,number,numRpt,k,0.4866,Hi,,,,,,3,,,,,,,,high,4,0,4,0,1,,,,,,,,,
298045,2022-12-07_14h24.06.592,vts_reward_expectancy_bt,2022.2.4,Win32,60.27364234,Chrome,1536,864,,,,,1,878,,,,,,,,,,,,,,,,,U,174,hexagon,1,0,,,,,,,,,,,,,,,,repeat,number,numRpt,k,0.5517,Lo,,,,,,3,,,,,,,,high,5,0,5,0,1,,,,,,,,,
298045,2022-12-07_14h24.06.592,vts_reward_expectancy_bt,2022.2.4,Win32,60.27364234,Chrome,1536,864,,,,,0,878,,,,,,,,,,,,,,,,,F,160,circle,0,0,,,,,,,,,,,,,,,,switch,letter,NA,f,0.5698,Lo,,,,,,3,,,,,,,,high,6,0,6,0,1,,,,,,,,,
298045,2022-12-07_14h24.06.592,vts_reward_expectancy_bt,2022.2.4,Win32,60.27364234,Chrome,1536,864,,,,,0,878,,,,,,,,,,,,,,,,,H,132,triangle,1,1,,,,,,,,,,,,,,,,repeat,letter,lettRpt,d,0.6384,Hi,,,,,,3,,,,,,,,high,7,0,7,0,1,,,,,,,,,
298045,2022-12-07_14h24.06.592,vts_reward_expectancy_bt,2022.2.4,Win32,60.27364234,Chrome,1536,864,,,,,1,879,,,,,,,,,,,,,,,,,B,139,circle,1,0,,,,,,,,,,,,,,,,repeat,letter,lettRpt,d,0.4346,Lo,,,,,,3,,,,,,,,high,8,0,8,0,1,,,,,,,,,
298045,2022-12-07_14h24.06.592,vts_reward_expectancy_bt,2022.2.4,Win32,60.27364234,Chrome,1536,864,,,,,10,889,,,,,,,,,,,,,,,,,Y,125,hexagon,1,0,,,,,,,,,,,,,,,,switch,number,numSwt,j,0.5011,Lo,,,,,,3,,,,,,,,high,9,0,9,0,1,,,,,,,,,
298045,2022-12-07_14h24.06.592,vts_reward_expectancy_bt,2022.2.4,Win32,60.27364234,Chrome,1536,864,,,,,10,899,,,,,,,,,,,,,,,,,W,167,star,1,0,,,,,,,,,,,,,,,,repeat,number,numRpt,k,0.4723,Hi,,,,,,3,,,,,,,,high,10,0,10,0,1,,,,,,,,,
298045,2022-12-07_14h24.06.592,vts_reward_expectancy_bt,2022.2.4,Win32,60.27364234,Chrome,1536,864,,,,,10,909,,,,,,,,,,,,,,,,,D,146,triangle,1,0,,,,,,,,,,,,,,,,switch,letter,lettSwt,d,0.4768,Hi,,,,,,3,,,,,,,,high,11,0,11,0,1,,,,,,,,,
298045,2022-12-07_14h24.06.592,vts_reward_expectancy_bt,2022.2.4,Win32,60.27364234,Chrome,1536,864,,,,,0,909,,,,,,,,,,,,,,,,,S,181,triangle,0,0,,,,,,,,,,,,,,,,repeat,letter,NA,d,0.5172,Hi,,,,,,3,,,,,,,,high,12,0,12,0,1,,,,,,,,,
298045,2022-12-07_14h24.06.592,vts_reward_expectancy_bt,2022.2.4,Win32,60.27364234,Chrome,1536,864,,,,,1,910,,,,,,,,,,,,,,,,,U,174,circle,1,1,,,,,,,,,,,,,,,,repeat,letter,lettRpt,f,0.642,Lo,,,,,,3,,,,,,,,high,13,0,13,0,1,,,,,,,,,
298045,2022-12-07_14h24.06.592,vts_reward_expectancy_bt,2022.2.4,Win32,60.27364234,Chrome,1536,864,,,,,0,910,,,,,,,,,,,,,,,,,F,160,star,1,0,,,,,,,,,,,,,,,,repeat,letter,lettRpt,d,0.559,Hi,,,,,,3,,,,,,,,high,14,0,14,0,1,,,,,,,,,
298045,2022-12-07_14h24.06.592,vts_reward_expectancy_bt,2022.2.4,Win32,60.27364234,Chrome,1536,864,,,,,1,911,,,,,,,,,,,,,,,,,H,132,hexagon,1,0,,,,,,,,,,,,,,,,switch,number,numSwt,j,0.6343,Lo,,,,,,3,,,,,,,,high,15,0,15,0,1,,,,,,,,,
298045,2022-12-07_14h24.06.592,vts_reward_expectancy_bt,2022.2.4,Win32,60.27364234,Chrome,1536,864,,,,,1,912,,,,,,,,,,,,,,,,,W,174,hexagon,1,0,,,,,,,,,,,,,,,,repeat,number,numRpt,k,0.6347,Lo,,,,,,3,,,,,,,,high,16,0,16,0,1,,,,,,,,,
298045,2022-12-07_14h24.06.592,vts_reward_expectancy_bt,2022.2.4,Win32,60.27364234,Chrome,1536,864,,,,,0,912,,,,,,,,,,,,,,,,,U,160,triangle,1,0,,,,,,,,,,,,,,,,switch,letter,lettSwt,f,0.634,Hi,,,,,,3,,,,,,,,high,17,0,17,0,1,,,,,,,,,
298045,2022-12-07_14h24.06.592,vts_reward_expectancy_bt,2022.2.4,Win32,60.27364234,Chrome,1536,864,,,,,0,912,,,,,,,,,,,,,,,,,B,125,star,1,0,,,,,,,,,,,,,,,,repeat,letter,lettRpt,d,0.5195,Hi,,,,,,3,,,,,,,,high,18,0,18,0,1,,,,,,,,,
298045,2022-12-07_14h24.06.592,vts_reward_expectancy_bt,2022.2.4,Win32,60.27364234,Chrome,1536,864,,,,,1,913,,,,,,,,,,,,,,,,,S,167,circle,1,0,,,,,,,,,,,,,,,,repeat,letter,lettRpt,f,0.7003,Lo,,,,,,3,,,,,,,,high,19,0,19,0,1,,,,,,,,,
298045,2022-12-07_14h24.06.592,vts_reward_expectancy_bt,2022.2.4,Win32,60.27364234,Chrome,1536,864,,,,,1,914,,,,,,,,,,,,,,,,,F,132,circle,1,0,,,,,,,,,,,,,,,,switch,number,numSwt,j,0.5029,Lo,,,,,,3,,,,,,,,high,20,0,20,0,1,,,,,,,,,
298045,2022-12-07_14h24.06.592,vts_reward_expectancy_bt,2022.2.4,Win32,60.27364234,Chrome,1536,864,,,,,0,914,,,,,,,,,,,,,,,,,D,146,triangle,0,0,,,,,,,,,,,,,,,,repeat,number,NA,k,0.5582,Lo,,,,,,3,,,,,,,,high,21,0,21,0,1,,,,,,,,,
298045,2022-12-07_14h24.06.592,vts_reward_expectancy_bt,2022.2.4,Win32,60.27364234,Chrome,1536,864,,,,,10,924,,,,,,,,,,,,,,,,,Y,139,star,1,1,,,,,,,,,,,,,,,,switch,letter,lettSwt,f,0.4728,Hi,,,,,,3,,,,,,,,high,22,0,22,0,1,,,,,,,,,
298045,2022-12-07_14h24.06.592,vts_reward_expectancy_bt,2022.2.4,Win32,60.27364234,Chrome,1536,864,,,,,1,925,,,,,,,,,,,,,,,,,H,181,hexagon,1,0,,,,,,,,,,,,,,,,repeat,letter,lettRpt,d,0.5178,Lo,,,,,,3,,,,,,,,high,23,0,23,0,1,,,,,,,,,
298045,2022-12-07_14h24.06.592,vts_reward_expectancy_bt,2022.2.4,Win32,60.27364234,Chrome,1536,864,,,,,1,926,,,,,,,,,,,,,,,,,U,125,circle,1,0,,,,,,,,,,,,,,,,switch,number,numSwt,j,0.4898,Lo,,,,,,3,,,,,,,,high,24,0,24,0,1,,,,,,,,,
298045,2022-12-07_14h24.06.592,vts_reward_expectancy_bt,2022.2.4,Win32,60.27364234,Chrome,1536,864,,,,,10,936,,,,,,,,,,,,,,,,,F,160,star,1,0,,,,,,,,,,,,,,,,switch,letter,lettSwt,d,0.4695,Hi,,,,,,3,,,,,,,,high,25,0,25,0,1,,,,,,,,,
298045,2022-12-07_14h24.06.592,vts_reward_expectancy_bt,2022.2.4,Win32,60.27364234,Chrome,1536,864,,,,,10,946,,,,,,,,,,,,,,,,,H,181,triangle,1,0,,,,,,,,,,,,,,,,switch,number,numSwt,k,0.5012,Hi,,,,,,3,,,,,,,,high,26,0,26,0,1,,,,,,,,,
298045,2022-12-07_14h24.06.592,vts_reward_expectancy_bt,2022.2.4,Win32,60.27364234,Chrome,1536,864,,,,,10,956,,,,,,,,,,,,,,,,,Y,167,hexagon,1,0,,,,,,,,,,,,,,,,switch,letter,lettSwt,f,0.5346,Lo,,,,,,3,,,,,,,,high,27,0,27,0,1,,,,,,,,,
298045,2022-12-07_14h24.06.592,vts_reward_expectancy_bt,2022.2.4,Win32,60.27364234,Chrome,1536,864,,,,,10,966,,,,,,,,,,,,,,,,,S,132,triangle,1,0,,,,,,,,,,,,,,,,switch,number,numSwt,j,0.4004,Hi,,,,,,3,,,,,,,,high,28,0,28,0,1,,,,,,,,,
298045,2022-12-07_14h24.06.592,vts_reward_expectancy_bt,2022.2.4,Win32,60.27364234,Chrome,1536,864,,,,,10,976,,,,,,,,,,,,,,,,,D,146,hexagon,1,0,,,,,,,,,,,,,,,,switch,letter,lettSwt,d,0.5698,Lo,,,,,,3,,,,,,,,high,29,0,29,0,1,,,,,,,,,
298045,2022-12-07_14h24.06.592,vts_reward_expectancy_bt,2022.2.4,Win32,60.27364234,Chrome,1536,864,,,,,10,986,,,,,,,,,,,,,,,,,W,139,star,1,0,,,,,,,,,,,,,,,,repeat,letter,lettRpt,f,0.4866,Hi,,,,,,3,,,,,,,,high,30,0,30,0,1,,,,,,,,,
298045,2022-12-07_14h24.06.592,vts_reward_expectancy_bt,2022.2.4,Win32,60.27364234,Chrome,1536,864,,,,,1,987,,,,,,,,,,,,,,,,,B,174,circle,1,0,,,,,,,,,,,,,,,,switch,number,numSwt,k,0.9186,Lo,,,,,,3,,,,,,,,high,31,0,31,0,1,,,,,,,,,
298045,2022-12-07_14h24.06.592,vts_reward_expectancy_bt,2022.2.4,Win32,60.27364234,Chrome,1536,864,,,,,0,987,,,,,,,,,,,,,,,,,S,146,star,1,0,,,,,,,,,,,,,,,,switch,letter,lettSwt,f,0.7104,Hi,,,,,,4,,,,,,space,0.4341,high,0,0,0,0,1,,,,,,,,,
298045,2022-12-07_14h24.06.592,vts_reward_expectancy_bt,2022.2.4,Win32,60.27364234,Chrome,1536,864,,,,,1,988,,,,,,,,,,,,,,,,,B,125,circle,1,0,,,,,,,,,,,,,,,,switch,number,numSwt,j,0.4248,Lo,,,,,,4,,,,,,,,high,1,0,1,0,1,,,,,,,,,
298045,2022-12-07_14h24.06.592,vts_reward_expectancy_bt,2022.2.4,Win32,60.27364234,Chrome,1536,864,,,,,0,988,,,,,,,,,,,,,,,,,F,160,triangle,1,0,,,,,,,,,,,,,,,,switch,letter,lettSwt,d,0.5373,Hi,,,,,,4,,,,,,,,high,2,0,2,0,1,,,,,,,,,
298045,2022-12-07_14h24.06.592,vts_reward_expectancy_bt,2022.2.4,Win32,60.27364234,Chrome,1536,864,,,,,0,988,,,,,,,,,,,,,,,,,U,167,hexagon,0,0,,,,,,,,,,,,,,,,switch,number,NA,j,0.5516,Hi,,,,,,4,,,,,,,,high,3,0,3,0,1,,,,,,,,,
298045,2022-12-07_14h24.06.592,vts_reward_expectancy_bt,2022.2.4,Win32,60.27364234,Chrome,1536,864,,,,,10,998,,,,,,,,,,,,,,,,,Y,174,star,1,1,,,,,,,,,,,,,,,,switch,letter,lettSwt,f,0.4677,Hi,,,,,,4,,,,,,,,high,4,0,4,0,1,,,,,,,,,
298045,2022-12-07_14h24.06.592,vts_reward_expectancy_bt,2022.2.4,Win32,60.27364234,Chrome,1536,864,,,,,1,999,,,,,,,,,,,,,,,,,W,181,circle,1,0,,,,,,,,,,,,,,,,repeat,letter,lettRpt,f,0.5265,Lo,,,,,,4,,,,,,,,high,5,0,5,0,1,,,,,,,,,
298045,2022-12-07_14h24.06.592,vts_reward_expectancy_bt,2022.2.4,Win32,60.27364234,Chrome,1536,864,,,,,10,1009,,,,,,,,,,,,,,,,,D,139,triangle,1,0,,,,,,,,,,,,,,,,repeat,letter,lettRpt,d,0.488,Hi,,,,,,4,,,,,,,,high,6,0,6,0,1,,,,,,,,,
298045,2022-12-07_14h24.06.592,vts_reward_expectancy_bt,2022.2.4,Win32,60.27364234,Chrome,1536,864,,,,,10,1019,,,,,,,,,,,,,,,,,H,132,hexagon,1,0,,,,,,,,,,,,,,,,switch,number,numSwt,j,0.4841,Lo,,,,,,4,,,,,,,,high,7,0,7,0,1,,,,,,,,,
298045,2022-12-07_14h24.06.592,vts_reward_expectancy_bt,2022.2.4,Win32,60.27364234,Chrome,1536,864,,,,,0,1019,,,,,,,,,,,,,,,,,S,146,triangle,1,0,,,,,,,,,,,,,,,,switch,letter,lettSwt,f,0.5348,Hi,,,,,,4,,,,,,,,high,8,0,8,0,1,,,,,,,,,
298045,2022-12-07_14h24.06.592,vts_reward_expectancy_bt,2022.2.4,Win32,60.27364234,Chrome,1536,864,,,,,0,1019,,,,,,,,,,,,,,,,,B,125,star,1,0,,,,,,,,,,,,,,,,repeat,letter,lettRpt,d,0.5588,Hi,,,,,,4,,,,,,,,high,9,0,9,0,1,,,,,,,,,
298045,2022-12-07_14h24.06.592,vts_reward_expectancy_bt,2022.2.4,Win32,60.27364234,Chrome,1536,864,,,,,1,1020,,,,,,,,,,,,,,,,,F,160,circle,1,0,,,,,,,,,,,,,,,,repeat,letter,lettRpt,d,0.5181,Lo,,,,,,4,,,,,,,,high,10,0,10,0,1,,,,,,,,,
298045,2022-12-07_14h24.06.592,vts_reward_expectancy_bt,2022.2.4,Win32,60.27364234,Chrome,1536,864,,,,,1,1021,,,,,,,,,,,,,,,,,U,167,hexagon,1,0,,,,,,,,,,,,,,,,switch,number,numSwt,k,0.5848,Lo,,,,,,4,,,,,,,,high,11,0,11,0,1,,,,,,,,,
298045,2022-12-07_14h24.06.592,vts_reward_expectancy_bt,2022.2.4,Win32,60.27364234,Chrome,1536,864,,,,,1,1022,,,,,,,,,,,,,,,,,Y,174,circle,1,0,,,,,,,,,,,,,,,,repeat,number,numRpt,k,0.4717,Lo,,,,,,4,,,,,,,,high,12,0,12,0,1,,,,,,,,,
298045,2022-12-07_14h24.06.592,vts_reward_expectancy_bt,2022.2.4,Win32,60.27364234,Chrome,1536,864,,,,,0,1022,,,,,,,,,,,,,,,,,W,181,triangle,1,0,,,,,,,,,,,,,,,,repeat,number,numRpt,k,0.5839,Hi,,,,,,4,,,,,,,,high,13,0,13,0,1,,,,,,,,,
298045,2022-12-07_14h24.06.592,vts_reward_expectancy_bt,2022.2.4,Win32,60.27364234,Chrome,1536,864,,,,,1,1023,,,,,,,,,,,,,,,,,D,139,hexagon,1,0,,,,,,,,,,,,,,,,switch,letter,lettSwt,d,0.4534,Lo,,,,,,4,,,,,,,,high,14,0,14,0,1,,,,,,,,,
298045,2022-12-07_14h24.06.592,vts_reward_expectancy_bt,2022.2.4,Win32,60.27364234,Chrome,1536,864,,,,,10,1033,,,,,,,,,,,,,,,,,H,132,star,1,0,,,,,,,,,,,,,,,,repeat,letter,lettRpt,d,0.4176,Hi,,,,,,4,,,,,,,,high,15,0,15,0,1,,,,,,,,,
298045,2022-12-07_14h24.06.592,vts_reward_expectancy_bt,2022.2.4,Win32,60.27364234,Chrome,1536,864,,,,,0,1033,,,,,,,,,,,,,,,,,H,132,triangle,0,0,,,,,,,,,,,,,,,,switch,number,NA,k,0.6009,Hi,,,,,,4,,,,,,,,high,16,0,16,0,1,,,,,,,,,
298045,2022-12-07_14h24.06.592,vts_reward_expectancy_bt,2022.2.4,Win32,60.27364234,Chrome,1536,864,,,,,1,1034,,,,,,,,,,,,,,,,,W,146,circle,1,1,,,,,,,,,,,,,,,,repeat,number,numRpt,j,0.5424,Lo,,,,,,4,,,,,,,,high,17,0,17,0,1,,,,,,,,,
298045,2022-12-07_14h24.06.592,vts_reward_expectancy_bt,2022.2.4,Win32,60.27364234,Chrome,1536,864,,,,,0,1034,,,,,,,,,,,,,,,,,Y,139,star,1,0,,,,,,,,,,,,,,,,switch,letter,lettSwt,f,0.551,Hi,,,,,,4,,,,,,,,high,18,0,18,0,1,,,,,,,,,
298045,2022-12-07_14h24.06.592,vts_reward_expectancy_bt,2022.2.4,Win32,60.27364234,Chrome,1536,864,,,,,1,1035,,,,,,,,,,,,,,,,,U,125,hexagon,1,0,,,,,,,,,,,,,,,,switch,number,numSwt,j,0.4669,Lo,,,,,,4,,,,,,,,high,19,0,19,0,1,,,,,,,,,
298045,2022-12-07_14h24.06.592,vts_reward_expectancy_bt,2022.2.4,Win32,60.27364234,Chrome,1536,864,,,,,0,1035,,,,,,,,,,,,,,,,,F,181,circle,0,0,,,,,,,,,,,,,,,,repeat,number,NA,j,0.5004,Lo,,,,,,4,,,,,,,,high,20,0,20,0,1,,,,,,,,,
298045,2022-12-07_14h24.06.592,vts_reward_expectancy_bt,2022.2.4,Win32,60.27364234,Chrome,1536,864,,,,,0,1035,,,,,,,,,,,,,,,,,D,174,star,0,1,,,,,,,,,,,,,,,,repeat,number,NA,j,0.4849,Lo,,,,,,4,,,,,,,,high,21,0,21,0,1,,,,,,,,,
298045,2022-12-07_14h24.06.592,vts_reward_expectancy_bt,2022.2.4,Win32,60.27364234,Chrome,1536,864,,,,,1,1036,,,,,,,,,,,,,,,,,S,167,hexagon,1,1,,,,,,,,,,,,,,,,repeat,number,numRpt,k,0.5668,Lo,,,,,,4,,,,,,,,high,22,0,22,0,1,,,,,,,,,
298045,2022-12-07_14h24.06.592,vts_reward_expectancy_bt,2022.2.4,Win32,60.27364234,Chrome,1536,864,,,,,0,1036,,,,,,,,,,,,,,,,,B,160,triangle,1,0,,,,,,,,,,,,,,,,switch,letter,lettSwt,d,0.4744,Hi,,,,,,4,,,,,,,,high,23,0,23,0,1,,,,,,,,,
298045,2022-12-07_14h24.06.592,vts_reward_expectancy_bt,2022.2.4,Win32,60.27364234,Chrome,1536,864,,,,,1,1037,,,,,,,,,,,,,,,,,W,181,triangle,1,0,,,,,,,,,,,,,,,,repeat,letter,lettRpt,f,0.4705,Hi,,,,,,4,,,,,,,,high,24,0,24,0,1,,,,,,,,,
298045,2022-12-07_14h24.06.592,vts_reward_expectancy_bt,2022.2.4,Win32,60.27364234,Chrome,1536,864,,,,,1,1038,,,,,,,,,,,,,,,,,H,174,hexagon,1,0,,,,,,,,,,,,,,,,repeat,letter,lettRpt,d,0.5104,Lo,,,,,,4,,,,,,,,high,25,0,25,0,1,,,,,,,,,
298045,2022-12-07_14h24.06.592,vts_reward_expectancy_bt,2022.2.4,Win32,60.27364234,Chrome,1536,864,,,,,1,1039,,,,,,,,,,,,,,,,,B,139,star,1,0,,,,,,,,,,,,,,,,switch,number,numSwt,j,0.4338,Hi,,,,,,4,,,,,,,,high,26,0,26,0,1,,,,,,,,,
298045,2022-12-07_14h24.06.592,vts_reward_expectancy_bt,2022.2.4,Win32,60.27364234,Chrome,1536,864,,,,,1,1040,,,,,,,,,,,,,,,,,F,160,circle,1,0,,,,,,,,,,,,,,,,switch,letter,lettSwt,d,0.5178,Lo,,,,,,4,,,,,,,,high,27,0,27,0,1,,,,,,,,,
298045,2022-12-07_14h24.06.592,vts_reward_expectancy_bt,2022.2.4,Win32,60.27364234,Chrome,1536,864,,,,,0,1040,,,,,,,,,,,,,,,,,Y,167,triangle,1,0,,,,,,,,,,,,,,,,repeat,letter,lettRpt,f,0.6177,Hi,,,,,,4,,,,,,,,high,28,0,28,0,1,,,,,,,,,
298045,2022-12-07_14h24.06.592,vts_reward_expectancy_bt,2022.2.4,Win32,60.27364234,Chrome,1536,864,,,,,1,1041,,,,,,,,,,,,,,,,,S,125,circle,1,0,,,,,,,,,,,,,,,,repeat,letter,lettRpt,f,0.5255,Lo,,,,,,4,,,,,,,,high,29,0,29,0,1,,,,,,,,,
298045,2022-12-07_14h24.06.592,vts_reward_expectancy_bt,2022.2.4,Win32,60.27364234,Chrome,1536,864,,,,,10,1051,,,,,,,,,,,,,,,,,U,146,star,1,0,,,,,,,,,,,,,,,,switch,number,numSwt,j,0.4671,Hi,,,,,,4,,,,,,,,high,30,0,30,0,1,,,,,,,,,
298045,2022-12-07_14h24.06.592,vts_reward_expectancy_bt,2022.2.4,Win32,60.27364234,Chrome,1536,864,,,,,1,1052,,,,,,,,,,,,,,,,,D,132,hexagon,1,0,,,,,,,,,,,,,,,,repeat,number,numRpt,j,0.6504,Lo,,,,,,4,,,,,,,,high,31,0,31,0,1,,,,,,,,,
298045,2022-12-07_14h24.06.592,vts_reward_expectancy_bt,2022.2.4,Win32,60.27364234,Chrome,1536,864,,,,,1,1053,,,,,,,,,,,,,,,,,W,139,circle,1,0,,,,,,,,,,,,,,,,switch,letter,lettSwt,f,0.5844,Lo,,,,,,5,,,,,,space,1.1182,high,0,0,0,0,1,,,,,,,,,
298045,2022-12-07_14h24.06.592,vts_reward_expectancy_bt,2022.2.4,Win32,60.27364234,Chrome,1536,864,,,,,1,1054,,,,,,,,,,,,,,,,,H,132,hexagon,1,0,,,,,,,,,,,,,,,,switch,number,numSwt,j,0.4009,Lo,,,,,,5,,,,,,,,high,1,0,1,0,1,,,,,,,,,
298045,2022-12-07_14h24.06.592,vts_reward_expectancy_bt,2022.2.4,Win32,60.27364234,Chrome,1536,864,,,,,0,1054,,,,,,,,,,,,,,,,,S,160,triangle,1,0,,,,,,,,,,,,,,,,switch,letter,lettSwt,f,0.6861,Hi,,,,,,5,,,,,,,,high,2,0,2,0,1,,,,,,,,,
298045,2022-12-07_14h24.06.592,vts_reward_expectancy_bt,2022.2.4,Win32,60.27364234,Chrome,1536,864,,,,,10,1064,,,,,,,,,,,,,,,,,F,167,star,1,0,,,,,,,,,,,,,,,,switch,number,numSwt,k,0.3236,Hi,,,,,,5,,,,,,,,high,3,0,3,0,1,,,,,,,,,
298045,2022-12-07_14h24.06.592,vts_reward_expectancy_bt,2022.2.4,Win32,60.27364234,Chrome,1536,864,,,,,0,1064,,,,,,,,,,,,,,,,,U,125,circle,0,0,,,,,,,,,,,,,,,,switch,letter,NA,d,0.3218,Hi,,,,,,5,,,,,,,,high,4,0,4,0,1,,,,,,,,,
298045,2022-12-07_14h24.06.592,vts_reward_expectancy_bt,2022.2.4,Win32,60.27364234,Chrome,1536,864,,,,,1,1065,,,,,,,,,,,,,,,,,Y,174,hexagon,1,1,,,,,,,,,,,,,,,,repeat,letter,lettRpt,f,0.4387,Lo,,,,,,5,,,,,,,,high,5,0,5,0,1,,,,,,,,,
298045,2022-12-07_14h24.06.592,vts_reward_expectancy_bt,2022.2.4,Win32,60.27364234,Chrome,1536,864,,,,,10,1075,,,,,,,,,,,,,,,,,B,146,triangle,1,0,,,,,,,,,,,,,,,,switch,number,numSwt,j,0.3845,Hi,,,,,,5,,,,,,,,high,6,0,6,0,1,,,,,,,,,
298045,2022-12-07_14h24.06.592,vts_reward_expectancy_bt,2022.2.4,Win32,60.27364234,Chrome,1536,864,,,,,0,1075,,,,,,,,,,,,,,,,,D,181,star,1,0,,,,,,,,,,,,,,,,switch,letter,lettSwt,d,0.5209,Hi,,,,,,5,,,,,,,,high,7,0,7,0,1,,,,,,,,,
298045,2022-12-07_14h24.06.592,vts_reward_expectancy_bt,2022.2.4,Win32,60.27364234,Chrome,1536,864,,,,,0,1075,,,,,,,,,,,,,,,,,W,139,star,1,0,,,,,,,,,,,,,,,,switch,number,numSwt,j,0.586,Hi,,,,,,5,,,,,,,,high,8,0,8,0,1,,,,,,,,,
298045,2022-12-07_14h24.06.592,vts_reward_expectancy_bt,2022.2.4,Win32,60.27364234,Chrome,1536,864,,,,,10,1085,,,,,,,,,,,,,,,,,H,132,triangle,1,0,,,,,,,,,,,,,,,,repeat,number,numRpt,j,0.384,Hi,,,,,,5,,,,,,,,high,9,0,9,0,1,,,,,,,,,
298045,2022-12-07_14h24.06.592,vts_reward_expectancy_bt,2022.2.4,Win32,60.27364234,Chrome,1536,864,,,,,0,1085,,,,,,,,,,,,,,,,,S,160,circle,0,0,,,,,,,,,,,,,,,,switch,letter,NA,d,0.4185,Hi,,,,,,5,,,,,,,,high,10,0,10,0,1,,,,,,,,,
298045,2022-12-07_14h24.06.592,vts_reward_expectancy_bt,2022.2.4,Win32,60.27364234,Chrome,1536,864,,,,,1,1086,,,,,,,,,,,,,,,,,F,167,hexagon,1,1,,,,,,,,,,,,,,,,switch,number,numSwt,k,0.3355,Lo,,,,,,5,,,,,,,,high,11,0,11,0,1,,,,,,,,,
298045,2022-12-07_14h24.06.592,vts_reward_expectancy_bt,2022.2.4,Win32,60.27364234,Chrome,1536,864,,,,,1,1087,,,,,,,,,,,,,,,,,U,125,hexagon,1,0,,,,,,,,,,,,,,,,switch,letter,lettSwt,f,0.5202,Lo,,,,,,5,,,,,,,,high,12,0,12,0,1,,,,,,,,,
298045,2022-12-07_14h24.06.592,vts_reward_expectancy_bt,2022.2.4,Win32,60.27364234,Chrome,1536,864,,,,,10,1097,,,,,,,,,,,,,,,,,Y,174,star,1,0,,,,,,,,,,,,,,,,repeat,letter,lettRpt,f,0.4333,Hi,,,,,,5,,,,,,,,high,13,0,13,0,1,,,,,,,,,
298045,2022-12-07_14h24.06.592,vts_reward_expectancy_bt,2022.2.4,Win32,60.27364234,Chrome,1536,864,,,,,10,1107,,,,,,,,,,,,,,,,,B,146,triangle,1,0,,,,,,,,,,,,,,,,switch,number,numSwt,j,0.3599,Hi,,,,,,5,,,,,,,,high,14,0,14,0,1,,,,,,,,,
298045,2022-12-07_14h24.06.592,vts_reward_expectancy_bt,2022.2.4,Win32,60.27364234,Chrome,1536,864,,,,,1,1108,,,,,,,,,,,,,,,,,D,181,circle,1,0,,,,,,,,,,,,,,,,repeat,number,numRpt,k,0.4008,Lo,,,,,,5,,,,,,,,high,15,0,15,0,1,,,,,,,,,
298045,2022-12-07_14h24.06.592,vts_reward_expectancy_bt,2022.2.4,Win32,60.27364234,Chrome,1536,864,,,,,10,1118,,,,,,,,,,,,,,,,,F,125,triangle,1,0,,,,,,,,,,,,,,,,repeat,number,numRpt,j,0.4498,Hi,,,,,,5,,,,,,,,high,16,0,16,0,1,,,,,,,,,
298045,2022-12-07_14h24.06.592,vts_reward_expectancy_bt,2022.2.4,Win32,60.27364234,Chrome,1536,864,,,,,10,1128,,,,,,,,,,,,,,,,,B,132,star,1,0,,,,,,,,,,,,,,,,switch,letter,lettSwt,d,0.4694,Hi,,,,,,5,,,,,,,,high,17,0,17,0,1,,,,,,,,,
298045,2022-12-07_14h24.06.592,vts_reward_expectancy_bt,2022.2.4,Win32,60.27364234,Chrome,1536,864,,,,,10,1138,,,,,,,,,,,,,,,,,H,139,hexagon,1,0,,,,,,,,,,,,,,,,switch,number,numSwt,j,0.4922,Lo,,,,,,5,,,,,,,,high,18,0,18,0,1,,,,,,,,,
298045,2022-12-07_14h24.06.592,vts_reward_expectancy_bt,2022.2.4,Win32,60.27364234,Chrome,1536,864,,,,,10,1148,,,,,,,,,,,,,,,,,U,181,circle,1,0,,,,,,,,,,,,,,,,switch,letter,lettSwt,f,0.5337,Lo,,,,,,5,,,,,,,,high,19,0,19,0,1,,,,,,,,,
298045,2022-12-07_14h24.06.592,vts_reward_expectancy_bt,2022.2.4,Win32,60.27364234,Chrome,1536,864,,,,,0,1148,,,,,,,,,,,,,,,,,S,160,star,1,0,,,,,,,,,,,,,,,,switch,number,numSwt,k,0.5024,Hi,,,,,,5,,,,,,,,high,20,0,20,0,1,,,,,,,,,
298045,2022-12-07_14h24.06.592,vts_reward_expectancy_bt,2022.2.4,Win32,60.27364234,Chrome,1536,864,,,,,0,1148,,,,,,,,,,,,,,,,,Y,167,triangle,0,0,,,,,,,,,,,,,,,,repeat,number,NA,j,0.5711,Hi,,,,,,5,,,,,,,,high,21,0,21,0,1,,,,,,,,,
298045,2022-12-07_14h24.06.592,vts_reward_expectancy_bt,2022.2.4,Win32,60.27364234,Chrome,1536,864,,,,,1,1149,,,,,,,,,,,,,,,,,D,146,hexagon,1,1,,,,,,,,,,,,,,,,switch,letter,lettSwt,d,0.4345,Lo,,,,,,5,,,,,,,,high,22,0,22,0,1,,,,,,,,,
298045,2022-12-07_14h24.06.592,vts_reward_expectancy_bt,2022.2.4,Win32,60.27364234,Chrome,1536,864,,,,,10,1159,,,,,,,,,,,,,,,,,W,174,circle,1,0,,,,,,,,,,,,,,,,repeat,letter,lettRpt,f,0.5556,Lo,,,,,,5,,,,,,,,high,23,0,23,0,1,,,,,,,,,
298045,2022-12-07_14h24.06.592,vts_reward_expectancy_bt,2022.2.4,Win32,60.27364234,Chrome,1536,864,,,,,0,1159,,,,,,,,,,,,,,,,,U,160,triangle,1,0,,,,,,,,,,,,,,,,switch,number,numSwt,k,0.5847,Hi,,,,,,5,,,,,,,,high,24,0,24,0,1,,,,,,,,,
298045,2022-12-07_14h24.06.592,vts_reward_expectancy_bt,2022.2.4,Win32,60.27364234,Chrome,1536,864,,,,,1,1160,,,,,,,,,,,,,,,,,Y,181,circle,1,0,,,,,,,,,,,,,,,,switch,letter,lettSwt,f,0.601,Lo,,,,,,5,,,,,,,,high,25,0,25,0,1,,,,,,,,,
298045,2022-12-07_14h24.06.592,vts_reward_expectancy_bt,2022.2.4,Win32,60.27364234,Chrome,1536,864,,,,,1,1161,,,,,,,,,,,,,,,,,W,167,hexagon,1,0,,,,,,,,,,,,,,,,repeat,letter,lettRpt,f,0.4198,Lo,,,,,,5,,,,,,,,high,26,0,26,0,1,,,,,,,,,
298045,2022-12-07_14h24.06.592,vts_reward_expectancy_bt,2022.2.4,Win32,60.27364234,Chrome,1536,864,,,,,0,1161,,,,,,,,,,,,,,,,,H,125,star,1,0,,,,,,,,,,,,,,,,repeat,letter,lettRpt,d,0.5843,Hi,,,,,,5,,,,,,,,high,27,0,27,0,1,,,,,,,,,
298045,2022-12-07_14h24.06.592,vts_reward_expectancy_bt,2022.2.4,Win32,60.27364234,Chrome,1536,864,,,,,0,1161,,,,,,,,,,,,,,,,,F,174,hexagon,0,0,,,,,,,,,,,,,,,,repeat,letter,NA,f,0.4671,Hi,,,,,,5,,,,,,,,high,28,0,28,0,1,,,,,,,,,
298045,2022-12-07_14h24.06.592,vts_reward_expectancy_bt,2022.2.4,Win32,60.27364234,Chrome,1536,864,,,,,0,1161,,,,,,,,,,,,,,,,,D,139,triangle,0,1,,,,,,,,,,,,,,,,repeat,letter,NA,f,0.3342,Hi,,,,,,5,,,,,,,,high,29,0,29,0,1,,,,,,,,,
298045,2022-12-07_14h24.06.592,vts_reward_expectancy_bt,2022.2.4,Win32,60.27364234,Chrome,1536,864,,,,,1,1162,,,,,,,,,,,,,,,,,B,146,circle,1,1,,,,,,,,,,,,,,,,switch,number,numSwt,j,0.4677,Lo,,,,,,5,,,,,,,,high,30,0,30,0,1,,,,,,,,,
298045,2022-12-07_14h24.06.592,vts_reward_expectancy_bt,2022.2.4,Win32,60.27364234,Chrome,1536,864,,,,,10,1172,,,,,,,,,,,,,,,,,S,132,star,1,0,,,,,,,,,,,,,,,,repeat,number,numRpt,j,0.4736,Hi,,,,,,5,,,,,,,,high,31,0,31,0,1,,,,,,,,,
298045,2022-12-07_14h24.06.592,vts_reward_expectancy_bt,2022.2.4,Win32,60.27364234,Chrome,1536,864,,,,,10,1182,,,,,,,,,,,,,,,,,Y,125,triangle,1,0,,,,,,,,,,,,,,,,switch,letter,lettSwt,f,0.4678,Hi,,,,,,6,,,,,,space,1.6573,high,0,0,0,0,1,,,,,,,,,
298045,2022-12-07_14h24.06.592,vts_reward_expectancy_bt,2022.2.4,Win32,60.27364234,Chrome,1536,864,,,,,0,1182,,,,,,,,,,,,,,,,,W,174,star,1,0,,,,,,,,,,,,,,,,repeat,letter,lettRpt,f,0.7655,Hi,,,,,,6,,,,,,,,high,1,0,1,0,1,,,,,,,,,
298045,2022-12-07_14h24.06.592,vts_reward_expectancy_bt,2022.2.4,Win32,60.27364234,Chrome,1536,864,,,,,1,1183,,,,,,,,,,,,,,,,,B,181,hexagon,1,0,,,,,,,,,,,,,,,,repeat,letter,lettRpt,d,0.3981,Lo,,,,,,6,,,,,,,,high,2,0,2,0,1,,,,,,,,,
298045,2022-12-07_14h24.06.592,vts_reward_expectancy_bt,2022.2.4,Win32,60.27364234,Chrome,1536,864,,,,,1,1184,,,,,,,,,,,,,,,,,U,160,circle,1,0,,,,,,,,,,,,,,,,switch,number,numSwt,k,0.4973,Lo,,,,,,6,,,,,,,,high,3,0,3,0,1,,,,,,,,,
298045,2022-12-07_14h24.06.592,vts_reward_expectancy_bt,2022.2.4,Win32,60.27364234,Chrome,1536,864,,,,,0,1184,,,,,,,,,,,,,,,,,F,167,triangle,1,0,,,,,,,,,,,,,,,,repeat,number,numRpt,k,0.5144,Hi,,,,,,6,,,,,,,,high,4,0,4,0,1,,,,,,,,,
298045,2022-12-07_14h24.06.592,vts_reward_expectancy_bt,2022.2.4,Win32,60.27364234,Chrome,1536,864,,,,,0,1184,,,,,,,,,,,,,,,,,H,146,star,1,0,,,,,,,,,,,,,,,,repeat,number,numRpt,j,0.4137,Hi,,,,,,6,,,,,,,,high,5,0,5,0,1,,,,,,,,,
298045,2022-12-07_14h24.06.592,vts_reward_expectancy_bt,2022.2.4,Win32,60.27364234,Chrome,1536,864,,,,,1,1185,,,,,,,,,,,,,,,,,D,139,hexagon,1,0,,,,,,,,,,,,,,,,repeat,number,numRpt,j,0.4307,Lo,,,,,,6,,,,,,,,high,6,0,6,0,1,,,,,,,,,
298045,2022-12-07_14h24.06.592,vts_reward_expectancy_bt,2022.2.4,Win32,60.27364234,Chrome,1536,864,,,,,0,1185,,,,,,,,,,,,,,,,,S,132,circle,0,0,,,,,,,,,,,,,,,,switch,letter,NA,d,0.3631,Lo,,,,,,6,,,,,,,,high,7,0,7,0,1,,,,,,,,,
298045,2022-12-07_14h24.06.592,vts_reward_expectancy_bt,2022.2.4,Win32,60.27364234,Chrome,1536,864,,,,,0,1185,,,,,,,,,,,,,,,,,Y,125,star,0,1,,,,,,,,,,,,,,,,repeat,letter,NA,d,0.3485,Lo,,,,,,6,,,,,,,,high,8,0,8,0,1,,,,,,,,,
298045,2022-12-07_14h24.06.592,vts_reward_expectancy_bt,2022.2.4,Win32,60.27364234,Chrome,1536,864,,,,,1,1186,,,,,,,,,,,,,,,,,W,174,circle,1,1,,,,,,,,,,,,,,,,repeat,letter,lettRpt,f,0.4693,Lo,,,,,,6,,,,,,,,high,9,0,9,0,1,,,,,,,,,
298045,2022-12-07_14h24.06.592,vts_reward_expectancy_bt,2022.2.4,Win32,60.27364234,Chrome,1536,864,,,,,10,1196,,,,,,,,,,,,,,,,,B,181,hexagon,1,0,,,,,,,,,,,,,,,,repeat,letter,lettRpt,d,0.5298,Lo,,,,,,6,,,,,,,,high,10,0,10,0,1,,,,,,,,,
298045,2022-12-07_14h24.06.592,vts_reward_expectancy_bt,2022.2.4,Win32,60.27364234,Chrome,1536,864,,,,,0,1196,,,,,,,,,,,,,,,,,U,160,triangle,1,0,,,,,,,,,,,,,,,,switch,number,numSwt,k,0.4309,Hi,,,,,,6,,,,,,,,high,11,0,11,0,1,,,,,,,,,
298045,2022-12-07_14h24.06.592,vts_reward_expectancy_bt,2022.2.4,Win32,60.27364234,Chrome,1536,864,,,,,1,1197,,,,,,,,,,,,,,,,,F,167,circle,1,0,,,,,,,,,,,,,,,,repeat,number,numRpt,k,0.4284,Lo,,,,,,6,,,,,,,,high,12,0,12,0,1,,,,,,,,,
298045,2022-12-07_14h24.06.592,vts_reward_expectancy_bt,2022.2.4,Win32,60.27364234,Chrome,1536,864,,,,,0,1197,,,,,,,,,,,,,,,,,H,146,triangle,1,0,,,,,,,,,,,,,,,,repeat,number,numRpt,j,0.4023,Hi,,,,,,6,,,,,,,,high,13,0,13,0,1,,,,,,,,,
298045,2022-12-07_14h24.06.592,vts_reward_expectancy_bt,2022.2.4,Win32,60.27364234,Chrome,1536,864,,,,,0,1197,,,,,,,,,,,,,,,,,D,139,star,1,0,,,,,,,,,,,,,,,,repeat,number,numRpt,j,0.4639,Hi,,,,,,6,,,,,,,,high,14,0,14,0,1,,,,,,,,,
298045,2022-12-07_14h24.06.592,vts_reward_expectancy_bt,2022.2.4,Win32,60.27364234,Chrome,1536,864,,,,,1,1198,,,,,,,,,,,,,,,,,S,132,hexagon,1,0,,,,,,,,,,,,,,,,repeat,number,numRpt,j,0.4708,Lo,,,,,,6,,,,,,,,high,15,0,15,0,1,,,,,,,,,
