participant,date,expName,psychopyVersion,OS,frameRate,browser,xResolution,yResolution,key_resp.keys,key_resp.rt,training_resp.keys,training_resp.rt,points_trial,points_cumul,trainBlock,training.thisRepN,training.thisTrialN,training.thisN,training.thisIndex,training.ran,LTriangleOpac,LCircleOpac,LHexagonOpac,LStarOpac,RTriangleOpac,RCircleOpac,RHexagonOpac,RStarOpac,LShape_ID,RShape_ID,curr_topStim,curr_bottStim,curr_shape,acc,E1,target_resp_prac1.keys,target_resp_prac1.rt,pracBlock,task1_prac_trials.thisRepN,task1_prac_trials.thisTrialN,task1_prac_trials.thisN,task1_prac_trials.thisIndex,task1_prac_trials.ran,target_resp_prac2.keys,target_resp_prac2.rt,task2_praac_trials.thisRepN,task2_praac_trials.thisTrialN,task2_praac_trials.thisN,task2_praac_trials.thisIndex,task2_praac_trials.ran,alt,task,condition,target_resp.keys,target_resp.rt,rewCond,vts_practice_trials.thisRepN,vts_practice_trials.thisTrialN,vts_practice_trials.thisN,vts_practice_trials.thisIndex,vts_practice_trials.ran,blockNum,trials_norew.thisRepN,trials_norew.thisTrialN,trials_norew.thisN,trials_norew.thisIndex,trials_norew.ran,key_resp_2.keys,key_resp_2.rt,rewExpectancy,trials_rew.thisRepN,trials_rew.thisTrialN,trials_rew.thisN,trials_rew.thisIndex,trials_rew.ran,Q1,Q2,Q2_text,Q3,Q4,Q5,Q5_text,xRes,yRes
298000,2022-11-25_02h18.34.500,vts_reward_expectancy_bt,2022.2.4,MacIntel,142.8571429,Safari,1470,956,,,,,,,,,,,,,,,,,,,,,,,,,,,,,,,,,,,,,,,,,,,,,,,,,,,,,,,,,,,,,,,,,,,,,,,,,,,,
298000,2022-11-25_02h18.34.500,vts_reward_expectancy_bt,2022.2.4,MacIntel,142.8571429,Safari,1470,956,space,56.588,,,,,,,,,,,,,,,,,,,,,,,,,,,,,,,,,,,,,,,,,,,,,,,,,,,,,,,,,,,,,,,,,,,,,,,,,,
298000,2022-11-25_02h18.34.500,vts_reward_expectancy_bt,2022.2.4,MacIntel,142.8571429,Safari,1470,956,,,,,,,,,,,,,,,,,,,,,,,,,,,,,,,,,,,,,,,,,,,,,,,,,,,,,,,,,,,,,,,,,,,,,,,,,,,,
298000,2022-11-25_02h18.34.500,vts_reward_expectancy_bt,2022.2.4,MacIntel,142.8571429,Safari,1470,956,,,a,0.724,10,10,0,0,0,0,8,1,0,0,1,0,0,0,0,1,hexagon,star,,,,,,,,,,,,,,,,,,,,,,,,,,,,,,,,,,,,,,,,,,,,,,,,,,,,,,
298000,2022-11-25_02h18.34.500,vts_reward_expectancy_bt,2022.2.4,MacIntel,142.8571429,Safari,1470,956,,,l,0.713,1,11,0,0,1,1,2,1,1,0,0,0,0,0,0,1,triangle,star,,,,,,,,,,,,,,,,,,,,,,,,,,,,,,,,,,,,,,,,,,,,,,,,,,,,,,
298000,2022-11-25_02h18.34.500,vts_reward_expectancy_bt,2022.2.4,MacIntel,142.8571429,Safari,1470,956,,,l,0.655,10,21,0,0,2,2,5,1,0,1,0,0,0,0,0,1,circle,star,,,,,,,,,,,,,,,,,,,,,,,,,,,,,,,,,,,,,,,,,,,,,,,,,,,,,,
298000,2022-11-25_02h18.34.500,vts_reward_expectancy_bt,2022.2.4,MacIntel,142.8571429,Safari,1470,956,,,a,0.678,10,31,0,0,3,3,7,1,0,0,1,0,0,1,0,0,hexagon,circle,,,,,,,,,,,,,,,,,,,,,,,,,,,,,,,,,,,,,,,,,,,,,,,,,,,,,,
298000,2022-11-25_02h18.34.500,vts_reward_expectancy_bt,2022.2.4,MacIntel,142.8571429,Safari,1470,956,,,l,0.531,1,32,0,0,4,4,0,1,1,0,0,0,0,1,0,0,triangle,circle,,,,,,,,,,,,,,,,,,,,,,,,,,,,,,,,,,,,,,,,,,,,,,,,,,,,,,
298000,2022-11-25_02h18.34.500,vts_reward_expectancy_bt,2022.2.4,MacIntel,142.8571429,Safari,1470,956,,,a,0.599,10,42,0,0,5,5,11,1,0,0,0,1,0,0,1,0,star,hexagon,,,,,,,,,,,,,,,,,,,,,,,,,,,,,,,,,,,,,,,,,,,,,,,,,,,,,,
298000,2022-11-25_02h18.34.500,vts_reward_expectancy_bt,2022.2.4,MacIntel,142.8571429,Safari,1470,956,,,l,0.515,10,52,0,0,6,6,4,1,0,1,0,0,0,0,1,0,circle,hexagon,,,,,,,,,,,,,,,,,,,,,,,,,,,,,,,,,,,,,,,,,,,,,,,,,,,,,,
298000,2022-11-25_02h18.34.500,vts_reward_expectancy_bt,2022.2.4,MacIntel,142.8571429,Safari,1470,956,,,a,0.602,1,53,0,0,7,7,6,1,0,0,1,0,1,0,0,0,hexagon,triangle,,,,,,,,,,,,,,,,,,,,,,,,,,,,,,,,,,,,,,,,,,,,,,,,,,,,,,
298000,2022-11-25_02h18.34.500,vts_reward_expectancy_bt,2022.2.4,MacIntel,142.8571429,Safari,1470,956,,,a,0.918,1,54,0,0,8,8,10,1,0,0,0,1,0,1,0,0,star ,circle,,,,,,,,,,,,,,,,,,,,,,,,,,,,,,,,,,,,,,,,,,,,,,,,,,,,,,
298000,2022-11-25_02h18.34.500,vts_reward_expectancy_bt,2022.2.4,MacIntel,142.8571429,Safari,1470,956,,,a,2.366,10,64,0,0,9,9,9,1,0,0,0,1,1,0,0,0,star,triangle,,,,,,,,,,,,,,,,,,,,,,,,,,,,,,,,,,,,,,,,,,,,,,,,,,,,,,
298000,2022-11-25_02h18.34.500,vts_reward_expectancy_bt,2022.2.4,MacIntel,142.8571429,Safari,1470,956,,,a,1.174,1,65,0,0,10,10,1,1,1,0,0,0,0,0,1,0,triangle,hexagon,,,,,,,,,,,,,,,,,,,,,,,,,,,,,,,,,,,,,,,,,,,,,,,,,,,,,,
298000,2022-11-25_02h18.34.500,vts_reward_expectancy_bt,2022.2.4,MacIntel,142.8571429,Safari,1470,956,,,a,1.919,10,75,0,0,11,11,3,1,0,1,0,0,1,0,0,0,circle,triangle,,,,,,,,,,,,,,,,,,,,,,,,,,,,,,,,,,,,,,,,,,,,,,,,,,,,,,
298000,2022-11-25_02h18.34.500,vts_reward_expectancy_bt,2022.2.4,MacIntel,142.8571429,Safari,1470,956,,,l,1.097,1,76,0,1,0,12,11,1,0,0,0,1,0,0,1,0,star,hexagon,,,,,,,,,,,,,,,,,,,,,,,,,,,,,,,,,,,,,,,,,,,,,,,,,,,,,,
298000,2022-11-25_02h18.34.500,vts_reward_expectancy_bt,2022.2.4,MacIntel,142.8571429,Safari,1470,956,,,a,1.134,10,86,0,1,1,13,9,1,0,0,0,1,1,0,0,0,star,triangle,,,,,,,,,,,,,,,,,,,,,,,,,,,,,,,,,,,,,,,,,,,,,,,,,,,,,,
298000,2022-11-25_02h18.34.500,vts_reward_expectancy_bt,2022.2.4,MacIntel,142.8571429,Safari,1470,956,,,l,1.037,10,96,0,1,2,14,8,1,0,0,1,0,0,0,0,1,hexagon,star,,,,,,,,,,,,,,,,,,,,,,,,,,,,,,,,,,,,,,,,,,,,,,,,,,,,,,
298000,2022-11-25_02h18.34.500,vts_reward_expectancy_bt,2022.2.4,MacIntel,142.8571429,Safari,1470,956,,,l,1.381,10,106,0,1,3,15,5,1,0,1,0,0,0,0,0,1,circle,star,,,,,,,,,,,,,,,,,,,,,,,,,,,,,,,,,,,,,,,,,,,,,,,,,,,,,,
298000,2022-11-25_02h18.34.500,vts_reward_expectancy_bt,2022.2.4,MacIntel,142.8571429,Safari,1470,956,,,a,0.713,1,107,0,1,4,16,6,1,0,0,1,0,1,0,0,0,hexagon,triangle,,,,,,,,,,,,,,,,,,,,,,,,,,,,,,,,,,,,,,,,,,,,,,,,,,,,,,
298000,2022-11-25_02h18.34.500,vts_reward_expectancy_bt,2022.2.4,MacIntel,142.8571429,Safari,1470,956,,,l,0.652,1,108,0,1,5,17,2,1,1,0,0,0,0,0,0,1,triangle,star,,,,,,,,,,,,,,,,,,,,,,,,,,,,,,,,,,,,,,,,,,,,,,,,,,,,,,
298000,2022-11-25_02h18.34.500,vts_reward_expectancy_bt,2022.2.4,MacIntel,142.8571429,Safari,1470,956,,,l,0.423,1,109,0,1,6,18,0,1,1,0,0,0,0,1,0,0,triangle,circle,,,,,,,,,,,,,,,,,,,,,,,,,,,,,,,,,,,,,,,,,,,,,,,,,,,,,,
298000,2022-11-25_02h18.34.500,vts_reward_expectancy_bt,2022.2.4,MacIntel,142.8571429,Safari,1470,956,,,a,0.307,1,110,0,1,7,19,10,1,0,0,0,1,0,1,0,0,star ,circle,,,,,,,,,,,,,,,,,,,,,,,,,,,,,,,,,,,,,,,,,,,,,,,,,,,,,,
298000,2022-11-25_02h18.34.500,vts_reward_expectancy_bt,2022.2.4,MacIntel,142.8571429,Safari,1470,956,,,a,1.038,1,111,0,1,8,20,7,1,0,0,1,0,0,1,0,0,hexagon,circle,,,,,,,,,,,,,,,,,,,,,,,,,,,,,,,,,,,,,,,,,,,,,,,,,,,,,,
298000,2022-11-25_02h18.34.500,vts_reward_expectancy_bt,2022.2.4,MacIntel,142.8571429,Safari,1470,956,,,l,1.136,1,112,0,1,9,21,3,1,0,1,0,0,1,0,0,0,circle,triangle,,,,,,,,,,,,,,,,,,,,,,,,,,,,,,,,,,,,,,,,,,,,,,,,,,,,,,
298000,2022-11-25_02h18.34.500,vts_reward_expectancy_bt,2022.2.4,MacIntel,142.8571429,Safari,1470,956,,,a,1.349,1,113,0,1,10,22,1,1,1,0,0,0,0,0,1,0,triangle,hexagon,,,,,,,,,,,,,,,,,,,,,,,,,,,,,,,,,,,,,,,,,,,,,,,,,,,,,,
298000,2022-11-25_02h18.34.500,vts_reward_expectancy_bt,2022.2.4,MacIntel,142.8571429,Safari,1470,956,,,l,0.454,1,114,0,1,11,23,4,1,0,1,0,0,0,0,1,0,circle,hexagon,,,,,,,,,,,,,,,,,,,,,,,,,,,,,,,,,,,,,,,,,,,,,,,,,,,,,,
298000,2022-11-25_02h18.34.500,vts_reward_expectancy_bt,2022.2.4,MacIntel,142.8571429,Safari,1470,956,,,a,0.795,1,115,0,2,0,24,10,1,0,0,0,1,0,1,0,0,star ,circle,,,,,,,,,,,,,,,,,,,,,,,,,,,,,,,,,,,,,,,,,,,,,,,,,,,,,,
298000,2022-11-25_02h18.34.500,vts_reward_expectancy_bt,2022.2.4,MacIntel,142.8571429,Safari,1470,956,,,l,0.399,10,125,0,2,1,25,0,1,1,0,0,0,0,1,0,0,triangle,circle,,,,,,,,,,,,,,,,,,,,,,,,,,,,,,,,,,,,,,,,,,,,,,,,,,,,,,
298000,2022-11-25_02h18.34.500,vts_reward_expectancy_bt,2022.2.4,MacIntel,142.8571429,Safari,1470,956,,,l,0.61,10,135,0,2,2,26,4,1,0,1,0,0,0,0,1,0,circle,hexagon,,,,,,,,,,,,,,,,,,,,,,,,,,,,,,,,,,,,,,,,,,,,,,,,,,,,,,
298000,2022-11-25_02h18.34.500,vts_reward_expectancy_bt,2022.2.4,MacIntel,142.8571429,Safari,1470,956,,,a,1.214,10,145,0,2,3,27,11,1,0,0,0,1,0,0,1,0,star,hexagon,,,,,,,,,,,,,,,,,,,,,,,,,,,,,,,,,,,,,,,,,,,,,,,,,,,,,,
298000,2022-11-25_02h18.34.500,vts_reward_expectancy_bt,2022.2.4,MacIntel,142.8571429,Safari,1470,956,,,a,0.632,1,146,0,2,4,28,7,1,0,0,1,0,0,1,0,0,hexagon,circle,,,,,,,,,,,,,,,,,,,,,,,,,,,,,,,,,,,,,,,,,,,,,,,,,,,,,,
298000,2022-11-25_02h18.34.500,vts_reward_expectancy_bt,2022.2.4,MacIntel,142.8571429,Safari,1470,956,,,a,0.998,10,156,0,2,5,29,3,1,0,1,0,0,1,0,0,0,circle,triangle,,,,,,,,,,,,,,,,,,,,,,,,,,,,,,,,,,,,,,,,,,,,,,,,,,,,,,
298000,2022-11-25_02h18.34.500,vts_reward_expectancy_bt,2022.2.4,MacIntel,142.8571429,Safari,1470,956,,,l,1.705,1,157,0,2,6,30,1,1,1,0,0,0,0,0,1,0,triangle,hexagon,,,,,,,,,,,,,,,,,,,,,,,,,,,,,,,,,,,,,,,,,,,,,,,,,,,,,,
298000,2022-11-25_02h18.34.500,vts_reward_expectancy_bt,2022.2.4,MacIntel,142.8571429,Safari,1470,956,,,a,0.806,1,158,0,2,7,31,9,1,0,0,0,1,1,0,0,0,star,triangle,,,,,,,,,,,,,,,,,,,,,,,,,,,,,,,,,,,,,,,,,,,,,,,,,,,,,,
298000,2022-11-25_02h18.34.500,vts_reward_expectancy_bt,2022.2.4,MacIntel,142.8571429,Safari,1470,956,,,l,0.382,10,168,0,2,8,32,2,1,1,0,0,0,0,0,0,1,triangle,star,,,,,,,,,,,,,,,,,,,,,,,,,,,,,,,,,,,,,,,,,,,,,,,,,,,,,,
298000,2022-11-25_02h18.34.500,vts_reward_expectancy_bt,2022.2.4,MacIntel,142.8571429,Safari,1470,956,,,a,0.467,10,178,0,2,9,33,8,1,0,0,1,0,0,0,0,1,hexagon,star,,,,,,,,,,,,,,,,,,,,,,,,,,,,,,,,,,,,,,,,,,,,,,,,,,,,,,
298000,2022-11-25_02h18.34.500,vts_reward_expectancy_bt,2022.2.4,MacIntel,142.8571429,Safari,1470,956,,,a,0.319,1,179,0,2,10,34,5,1,0,1,0,0,0,0,0,1,circle,star,,,,,,,,,,,,,,,,,,,,,,,,,,,,,,,,,,,,,,,,,,,,,,,,,,,,,,
298000,2022-11-25_02h18.34.500,vts_reward_expectancy_bt,2022.2.4,MacIntel,142.8571429,Safari,1470,956,,,a,0.301,1,180,0,2,11,35,6,1,0,0,1,0,1,0,0,0,hexagon,triangle,,,,,,,,,,,,,,,,,,,,,,,,,,,,,,,,,,,,,,,,,,,,,,,,,,,,,,
298000,2022-11-25_02h18.34.500,vts_reward_expectancy_bt,2022.2.4,MacIntel,142.8571429,Safari,1470,956,,,a,0.716,10,190,1,0,0,0,3,1,0,1,0,0,1,0,0,0,circle,triangle,,,,,,,,,,,,,,,,,,,,,,,,,,,,,,,,,,,,,,,,,,,,,,,,,,,,,,
298000,2022-11-25_02h18.34.500,vts_reward_expectancy_bt,2022.2.4,MacIntel,142.8571429,Safari,1470,956,,,l,1.279,1,191,1,0,1,1,2,1,1,0,0,0,0,0,0,1,triangle,star,,,,,,,,,,,,,,,,,,,,,,,,,,,,,,,,,,,,,,,,,,,,,,,,,,,,,,
298000,2022-11-25_02h18.34.500,vts_reward_expectancy_bt,2022.2.4,MacIntel,142.8571429,Safari,1470,956,,,a,0.399,1,192,1,0,2,2,5,1,0,1,0,0,0,0,0,1,circle,star,,,,,,,,,,,,,,,,,,,,,,,,,,,,,,,,,,,,,,,,,,,,,,,,,,,,,,
298000,2022-11-25_02h18.34.500,vts_reward_expectancy_bt,2022.2.4,MacIntel,142.8571429,Safari,1470,956,,,l,0.268,10,202,1,0,3,3,10,1,0,0,0,1,0,1,0,0,star ,circle,,,,,,,,,,,,,,,,,,,,,,,,,,,,,,,,,,,,,,,,,,,,,,,,,,,,,,
298000,2022-11-25_02h18.34.500,vts_reward_expectancy_bt,2022.2.4,MacIntel,142.8571429,Safari,1470,956,,,a,0.497,1,203,1,0,4,4,9,1,0,0,0,1,1,0,0,0,star,triangle,,,,,,,,,,,,,,,,,,,,,,,,,,,,,,,,,,,,,,,,,,,,,,,,,,,,,,
298000,2022-11-25_02h18.34.500,vts_reward_expectancy_bt,2022.2.4,MacIntel,142.8571429,Safari,1470,956,,,l,0.333,10,213,1,0,5,5,8,1,0,0,1,0,0,0,0,1,hexagon,star,,,,,,,,,,,,,,,,,,,,,,,,,,,,,,,,,,,,,,,,,,,,,,,,,,,,,,
298000,2022-11-25_02h18.34.500,vts_reward_expectancy_bt,2022.2.4,MacIntel,142.8571429,Safari,1470,956,,,l,0.628,10,223,1,0,6,6,0,1,1,0,0,0,0,1,0,0,triangle,circle,,,,,,,,,,,,,,,,,,,,,,,,,,,,,,,,,,,,,,,,,,,,,,,,,,,,,,
298000,2022-11-25_02h18.34.500,vts_reward_expectancy_bt,2022.2.4,MacIntel,142.8571429,Safari,1470,956,,,l,0.35,1,224,1,0,7,7,4,1,0,1,0,0,0,0,1,0,circle,hexagon,,,,,,,,,,,,,,,,,,,,,,,,,,,,,,,,,,,,,,,,,,,,,,,,,,,,,,
298000,2022-11-25_02h18.34.500,vts_reward_expectancy_bt,2022.2.4,MacIntel,142.8571429,Safari,1470,956,,,a,0.314,1,225,1,0,8,8,11,1,0,0,0,1,0,0,1,0,star,hexagon,,,,,,,,,,,,,,,,,,,,,,,,,,,,,,,,,,,,,,,,,,,,,,,,,,,,,,
298000,2022-11-25_02h18.34.500,vts_reward_expectancy_bt,2022.2.4,MacIntel,142.8571429,Safari,1470,956,,,l,0.299,10,235,1,0,9,9,6,1,0,0,1,0,1,0,0,0,hexagon,triangle,,,,,,,,,,,,,,,,,,,,,,,,,,,,,,,,,,,,,,,,,,,,,,,,,,,,,,
298000,2022-11-25_02h18.34.500,vts_reward_expectancy_bt,2022.2.4,MacIntel,142.8571429,Safari,1470,956,,,l,0.51,10,245,1,0,10,10,7,1,0,0,1,0,0,1,0,0,hexagon,circle,,,,,,,,,,,,,,,,,,,,,,,,,,,,,,,,,,,,,,,,,,,,,,,,,,,,,,
298000,2022-11-25_02h18.34.500,vts_reward_expectancy_bt,2022.2.4,MacIntel,142.8571429,Safari,1470,956,,,a,0.333,1,246,1,0,11,11,1,1,1,0,0,0,0,0,1,0,triangle,hexagon,,,,,,,,,,,,,,,,,,,,,,,,,,,,,,,,,,,,,,,,,,,,,,,,,,,,,,
298000,2022-11-25_02h18.34.500,vts_reward_expectancy_bt,2022.2.4,MacIntel,142.8571429,Safari,1470,956,,,l,0.32,1,247,1,1,0,12,3,1,0,1,0,0,1,0,0,0,circle,triangle,,,,,,,,,,,,,,,,,,,,,,,,,,,,,,,,,,,,,,,,,,,,,,,,,,,,,,
298000,2022-11-25_02h18.34.500,vts_reward_expectancy_bt,2022.2.4,MacIntel,142.8571429,Safari,1470,956,,,l,0.29,1,248,1,1,1,13,8,1,0,0,1,0,0,0,0,1,hexagon,star,,,,,,,,,,,,,,,,,,,,,,,,,,,,,,,,,,,,,,,,,,,,,,,,,,,,,,
298000,2022-11-25_02h18.34.500,vts_reward_expectancy_bt,2022.2.4,MacIntel,142.8571429,Safari,1470,956,,,a,0.118,10,258,1,1,2,14,2,1,1,0,0,0,0,0,0,1,triangle,star,,,,,,,,,,,,,,,,,,,,,,,,,,,,,,,,,,,,,,,,,,,,,,,,,,,,,,
298000,2022-11-25_02h18.34.500,vts_reward_expectancy_bt,2022.2.4,MacIntel,142.8571429,Safari,1470,956,,,l,0.411,10,268,1,1,3,15,0,1,1,0,0,0,0,1,0,0,triangle,circle,,,,,,,,,,,,,,,,,,,,,,,,,,,,,,,,,,,,,,,,,,,,,,,,,,,,,,
298000,2022-11-25_02h18.34.500,vts_reward_expectancy_bt,2022.2.4,MacIntel,142.8571429,Safari,1470,956,,,l,0.458,10,278,1,1,4,16,5,1,0,1,0,0,0,0,0,1,circle,star,,,,,,,,,,,,,,,,,,,,,,,,,,,,,,,,,,,,,,,,,,,,,,,,,,,,,,
298000,2022-11-25_02h18.34.500,vts_reward_expectancy_bt,2022.2.4,MacIntel,142.8571429,Safari,1470,956,,,l,0.583,10,288,1,1,5,17,4,1,0,1,0,0,0,0,1,0,circle,hexagon,,,,,,,,,,,,,,,,,,,,,,,,,,,,,,,,,,,,,,,,,,,,,,,,,,,,,,
298000,2022-11-25_02h18.34.500,vts_reward_expectancy_bt,2022.2.4,MacIntel,142.8571429,Safari,1470,956,,,l,0.565,1,289,1,1,6,18,11,1,0,0,0,1,0,0,1,0,star,hexagon,,,,,,,,,,,,,,,,,,,,,,,,,,,,,,,,,,,,,,,,,,,,,,,,,,,,,,
298000,2022-11-25_02h18.34.500,vts_reward_expectancy_bt,2022.2.4,MacIntel,142.8571429,Safari,1470,956,,,a,0.65,10,299,1,1,7,19,7,1,0,0,1,0,0,1,0,0,hexagon,circle,,,,,,,,,,,,,,,,,,,,,,,,,,,,,,,,,,,,,,,,,,,,,,,,,,,,,,
298000,2022-11-25_02h18.34.500,vts_reward_expectancy_bt,2022.2.4,MacIntel,142.8571429,Safari,1470,956,,,a,0.441,10,309,1,1,8,20,10,1,0,0,0,1,0,1,0,0,star ,circle,,,,,,,,,,,,,,,,,,,,,,,,,,,,,,,,,,,,,,,,,,,,,,,,,,,,,,
298000,2022-11-25_02h18.34.500,vts_reward_expectancy_bt,2022.2.4,MacIntel,142.8571429,Safari,1470,956,,,l,0.632,10,319,1,1,9,21,1,1,1,0,0,0,0,0,1,0,triangle,hexagon,,,,,,,,,,,,,,,,,,,,,,,,,,,,,,,,,,,,,,,,,,,,,,,,,,,,,,
298000,2022-11-25_02h18.34.500,vts_reward_expectancy_bt,2022.2.4,MacIntel,142.8571429,Safari,1470,956,,,a,0.707,1,320,1,1,10,22,9,1,0,0,0,1,1,0,0,0,star,triangle,,,,,,,,,,,,,,,,,,,,,,,,,,,,,,,,,,,,,,,,,,,,,,,,,,,,,,
298000,2022-11-25_02h18.34.500,vts_reward_expectancy_bt,2022.2.4,MacIntel,142.8571429,Safari,1470,956,,,l,0.331,1,321,1,1,11,23,6,1,0,0,1,0,1,0,0,0,hexagon,triangle,,,,,,,,,,,,,,,,,,,,,,,,,,,,,,,,,,,,,,,,,,,,,,,,,,,,,,
298000,2022-11-25_02h18.34.500,vts_reward_expectancy_bt,2022.2.4,MacIntel,142.8571429,Safari,1470,956,,,l,0.343,1,322,1,2,0,24,1,1,1,0,0,0,0,0,1,0,triangle,hexagon,,,,,,,,,,,,,,,,,,,,,,,,,,,,,,,,,,,,,,,,,,,,,,,,,,,,,,
298000,2022-11-25_02h18.34.500,vts_reward_expectancy_bt,2022.2.4,MacIntel,142.8571429,Safari,1470,956,,,a,0.304,1,323,1,2,1,25,3,1,0,1,0,0,1,0,0,0,circle,triangle,,,,,,,,,,,,,,,,,,,,,,,,,,,,,,,,,,,,,,,,,,,,,,,,,,,,,,
298000,2022-11-25_02h18.34.500,vts_reward_expectancy_bt,2022.2.4,MacIntel,142.8571429,Safari,1470,956,,,l,0.269,1,324,1,2,2,26,6,1,0,0,1,0,1,0,0,0,hexagon,triangle,,,,,,,,,,,,,,,,,,,,,,,,,,,,,,,,,,,,,,,,,,,,,,,,,,,,,,
298000,2022-11-25_02h18.34.500,vts_reward_expectancy_bt,2022.2.4,MacIntel,142.8571429,Safari,1470,956,,,l,0.297,10,334,1,2,3,27,10,1,0,0,0,1,0,1,0,0,star ,circle,,,,,,,,,,,,,,,,,,,,,,,,,,,,,,,,,,,,,,,,,,,,,,,,,,,,,,
298000,2022-11-25_02h18.34.500,vts_reward_expectancy_bt,2022.2.4,MacIntel,142.8571429,Safari,1470,956,,,l,0.531,10,344,1,2,4,28,8,1,0,0,1,0,0,0,0,1,hexagon,star,,,,,,,,,,,,,,,,,,,,,,,,,,,,,,,,,,,,,,,,,,,,,,,,,,,,,,
298000,2022-11-25_02h18.34.500,vts_reward_expectancy_bt,2022.2.4,MacIntel,142.8571429,Safari,1470,956,,,l,1.188,10,354,1,2,5,29,0,1,1,0,0,0,0,1,0,0,triangle,circle,,,,,,,,,,,,,,,,,,,,,,,,,,,,,,,,,,,,,,,,,,,,,,,,,,,,,,
298000,2022-11-25_02h18.34.500,vts_reward_expectancy_bt,2022.2.4,MacIntel,142.8571429,Safari,1470,956,,,l,0.634,10,364,1,2,6,30,5,1,0,1,0,0,0,0,0,1,circle,star,,,,,,,,,,,,,,,,,,,,,,,,,,,,,,,,,,,,,,,,,,,,,,,,,,,,,,
298000,2022-11-25_02h18.34.500,vts_reward_expectancy_bt,2022.2.4,MacIntel,142.8571429,Safari,1470,956,,,a,0.718,10,374,1,2,7,31,11,1,0,0,0,1,0,0,1,0,star,hexagon,,,,,,,,,,,,,,,,,,,,,,,,,,,,,,,,,,,,,,,,,,,,,,,,,,,,,,
298000,2022-11-25_02h18.34.500,vts_reward_expectancy_bt,2022.2.4,MacIntel,142.8571429,Safari,1470,956,,,l,0.812,10,384,1,2,8,32,9,1,0,0,0,1,1,0,0,0,star,triangle,,,,,,,,,,,,,,,,,,,,,,,,,,,,,,,,,,,,,,,,,,,,,,,,,,,,,,
298000,2022-11-25_02h18.34.500,vts_reward_expectancy_bt,2022.2.4,MacIntel,142.8571429,Safari,1470,956,,,l,0.499,1,385,1,2,9,33,4,1,0,1,0,0,0,0,1,0,circle,hexagon,,,,,,,,,,,,,,,,,,,,,,,,,,,,,,,,,,,,,,,,,,,,,,,,,,,,,,
298000,2022-11-25_02h18.34.500,vts_reward_expectancy_bt,2022.2.4,MacIntel,142.8571429,Safari,1470,956,,,l,0.486,1,386,1,2,10,34,2,1,1,0,0,0,0,0,0,1,triangle,star,,,,,,,,,,,,,,,,,,,,,,,,,,,,,,,,,,,,,,,,,,,,,,,,,,,,,,
298000,2022-11-25_02h18.34.500,vts_reward_expectancy_bt,2022.2.4,MacIntel,142.8571429,Safari,1470,956,,,a,0.124,1,387,1,2,11,35,7,1,0,0,1,0,0,1,0,0,hexagon,circle,,,,,,,,,,,,,,,,,,,,,,,,,,,,,,,,,,,,,,,,,,,,,,,,,,,,,,
298000,2022-11-25_02h18.34.500,vts_reward_expectancy_bt,2022.2.4,MacIntel,142.8571429,Safari,1470,956,,,a,1.022,1,388,2,0,0,0,1,1,1,0,0,0,0,0,1,0,triangle,hexagon,,,,,,,,,,,,,,,,,,,,,,,,,,,,,,,,,,,,,,,,,,,,,,,,,,,,,,
298000,2022-11-25_02h18.34.500,vts_reward_expectancy_bt,2022.2.4,MacIntel,142.8571429,Safari,1470,956,,,l,0.489,10,398,2,0,1,1,11,1,0,0,0,1,0,0,1,0,star,hexagon,,,,,,,,,,,,,,,,,,,,,,,,,,,,,,,,,,,,,,,,,,,,,,,,,,,,,,
298000,2022-11-25_02h18.34.500,vts_reward_expectancy_bt,2022.2.4,MacIntel,142.8571429,Safari,1470,956,,,l,0.337,10,408,2,0,2,2,9,1,0,0,0,1,1,0,0,0,star,triangle,,,,,,,,,,,,,,,,,,,,,,,,,,,,,,,,,,,,,,,,,,,,,,,,,,,,,,
298000,2022-11-25_02h18.34.500,vts_reward_expectancy_bt,2022.2.4,MacIntel,142.8571429,Safari,1470,956,,,l,0.452,10,418,2,0,3,3,2,1,1,0,0,0,0,0,0,1,triangle,star,,,,,,,,,,,,,,,,,,,,,,,,,,,,,,,,,,,,,,,,,,,,,,,,,,,,,,
298000,2022-11-25_02h18.34.500,vts_reward_expectancy_bt,2022.2.4,MacIntel,142.8571429,Safari,1470,956,,,a,0.601,10,428,2,0,4,4,7,1,0,0,1,0,0,1,0,0,hexagon,circle,,,,,,,,,,,,,,,,,,,,,,,,,,,,,,,,,,,,,,,,,,,,,,,,,,,,,,
298000,2022-11-25_02h18.34.500,vts_reward_expectancy_bt,2022.2.4,MacIntel,142.8571429,Safari,1470,956,,,l,0.333,1,429,2,0,5,5,3,1,0,1,0,0,1,0,0,0,circle,triangle,,,,,,,,,,,,,,,,,,,,,,,,,,,,,,,,,,,,,,,,,,,,,,,,,,,,,,
298000,2022-11-25_02h18.34.500,vts_reward_expectancy_bt,2022.2.4,MacIntel,142.8571429,Safari,1470,956,,,a,0.634,1,430,2,0,6,6,10,1,0,0,0,1,0,1,0,0,star ,circle,,,,,,,,,,,,,,,,,,,,,,,,,,,,,,,,,,,,,,,,,,,,,,,,,,,,,,
298000,2022-11-25_02h18.34.500,vts_reward_expectancy_bt,2022.2.4,MacIntel,142.8571429,Safari,1470,956,,,l,0.451,1,431,2,0,7,7,4,1,0,1,0,0,0,0,1,0,circle,hexagon,,,,,,,,,,,,,,,,,,,,,,,,,,,,,,,,,,,,,,,,,,,,,,,,,,,,,,
298000,2022-11-25_02h18.34.500,vts_reward_expectancy_bt,2022.2.4,MacIntel,142.8571429,Safari,1470,956,,,l,0.772,10,441,2,0,8,8,5,1,0,1,0,0,0,0,0,1,circle,star,,,,,,,,,,,,,,,,,,,,,,,,,,,,,,,,,,,,,,,,,,,,,,,,,,,,,,
298000,2022-11-25_02h18.34.500,vts_reward_expectancy_bt,2022.2.4,MacIntel,142.8571429,Safari,1470,956,,,l,0.351,1,442,2,0,9,9,8,1,0,0,1,0,0,0,0,1,hexagon,star,,,,,,,,,,,,,,,,,,,,,,,,,,,,,,,,,,,,,,,,,,,,,,,,,,,,,,
298000,2022-11-25_02h18.34.500,vts_reward_expectancy_bt,2022.2.4,MacIntel,142.8571429,Safari,1470,956,,,a,0.537,10,452,2,0,10,10,6,1,0,0,1,0,1,0,0,0,hexagon,triangle,,,,,,,,,,,,,,,,,,,,,,,,,,,,,,,,,,,,,,,,,,,,,,,,,,,,,,
298000,2022-11-25_02h18.34.500,vts_reward_expectancy_bt,2022.2.4,MacIntel,142.8571429,Safari,1470,956,,,l,0.475,1,453,2,0,11,11,0,1,1,0,0,0,0,1,0,0,triangle,circle,,,,,,,,,,,,,,,,,,,,,,,,,,,,,,,,,,,,,,,,,,,,,,,,,,,,,,
298000,2022-11-25_02h18.34.500,vts_reward_expectancy_bt,2022.2.4,MacIntel,142.8571429,Safari,1470,956,,,l,0.648,10,463,2,1,0,12,5,1,0,1,0,0,0,0,0,1,circle,star,,,,,,,,,,,,,,,,,,,,,,,,,,,,,,,,,,,,,,,,,,,,,,,,,,,,,,
298000,2022-11-25_02h18.34.500,vts_reward_expectancy_bt,2022.2.4,MacIntel,142.8571429,Safari,1470,956,,,a,0.567,10,473,2,1,1,13,11,1,0,0,0,1,0,0,1,0,star,hexagon,,,,,,,,,,,,,,,,,,,,,,,,,,,,,,,,,,,,,,,,,,,,,,,,,,,,,,
298000,2022-11-25_02h18.34.500,vts_reward_expectancy_bt,2022.2.4,MacIntel,142.8571429,Safari,1470,956,,,l,1.047,1,474,2,1,2,14,10,1,0,0,0,1,0,1,0,0,star ,circle,,,,,,,,,,,,,,,,,,,,,,,,,,,,,,,,,,,,,,,,,,,,,,,,,,,,,,
298000,2022-11-25_02h18.34.500,vts_reward_expectancy_bt,2022.2.4,MacIntel,142.8571429,Safari,1470,956,,,l,0.496,10,484,2,1,3,15,1,1,1,0,0,0,0,0,1,0,triangle,hexagon,,,,,,,,,,,,,,,,,,,,,,,,,,,,,,,,,,,,,,,,,,,,,,,,,,,,,,
298000,2022-11-25_02h18.34.500,vts_reward_expectancy_bt,2022.2.4,MacIntel,142.8571429,Safari,1470,956,,,a,0.523,10,494,2,1,4,16,9,1,0,0,0,1,1,0,0,0,star,triangle,,,,,,,,,,,,,,,,,,,,,,,,,,,,,,,,,,,,,,,,,,,,,,,,,,,,,,
298000,2022-11-25_02h18.34.500,vts_reward_expectancy_bt,2022.2.4,MacIntel,142.8571429,Safari,1470,956,,,l,0.54,1,495,2,1,5,17,4,1,0,1,0,0,0,0,1,0,circle,hexagon,,,,,,,,,,,,,,,,,,,,,,,,,,,,,,,,,,,,,,,,,,,,,,,,,,,,,,
298000,2022-11-25_02h18.34.500,vts_reward_expectancy_bt,2022.2.4,MacIntel,142.8571429,Safari,1470,956,,,a,0.932,1,496,2,1,6,18,0,1,1,0,0,0,0,1,0,0,triangle,circle,,,,,,,,,,,,,,,,,,,,,,,,,,,,,,,,,,,,,,,,,,,,,,,,,,,,,,
298000,2022-11-25_02h18.34.500,vts_reward_expectancy_bt,2022.2.4,MacIntel,142.8571429,Safari,1470,956,,,l,0.769,1,497,2,1,7,19,3,1,0,1,0,0,1,0,0,0,circle,triangle,,,,,,,,,,,,,,,,,,,,,,,,,,,,,,,,,,,,,,,,,,,,,,,,,,,,,,
298000,2022-11-25_02h18.34.500,vts_reward_expectancy_bt,2022.2.4,MacIntel,142.8571429,Safari,1470,956,,,a,1.485,1,498,2,1,8,20,6,1,0,0,1,0,1,0,0,0,hexagon,triangle,,,,,,,,,,,,,,,,,,,,,,,,,,,,,,,,,,,,,,,,,,,,,,,,,,,,,,
298000,2022-11-25_02h18.34.500,vts_reward_expectancy_bt,2022.2.4,MacIntel,142.8571429,Safari,1470,956,,,l,0.298,1,499,2,1,9,21,2,1,1,0,0,0,0,0,0,1,triangle,star,,,,,,,,,,,,,,,,,,,,,,,,,,,,,,,,,,,,,,,,,,,,,,,,,,,,,,
298000,2022-11-25_02h18.34.500,vts_reward_expectancy_bt,2022.2.4,MacIntel,142.8571429,Safari,1470,956,,,l,0.907,10,509,2,1,10,22,8,1,0,0,1,0,0,0,0,1,hexagon,star,,,,,,,,,,,,,,,,,,,,,,,,,,,,,,,,,,,,,,,,,,,,,,,,,,,,,,
298000,2022-11-25_02h18.34.500,vts_reward_expectancy_bt,2022.2.4,MacIntel,142.8571429,Safari,1470,956,,,a,0.481,1,510,2,1,11,23,7,1,0,0,1,0,0,1,0,0,hexagon,circle,,,,,,,,,,,,,,,,,,,,,,,,,,,,,,,,,,,,,,,,,,,,,,,,,,,,,,
298000,2022-11-25_02h18.34.500,vts_reward_expectancy_bt,2022.2.4,MacIntel,142.8571429,Safari,1470,956,,,l,0.274,10,520,2,2,0,24,10,1,0,0,0,1,0,1,0,0,star ,circle,,,,,,,,,,,,,,,,,,,,,,,,,,,,,,,,,,,,,,,,,,,,,,,,,,,,,,
298000,2022-11-25_02h18.34.500,vts_reward_expectancy_bt,2022.2.4,MacIntel,142.8571429,Safari,1470,956,,,l,0.35,1,521,2,2,1,25,7,1,0,0,1,0,0,1,0,0,hexagon,circle,,,,,,,,,,,,,,,,,,,,,,,,,,,,,,,,,,,,,,,,,,,,,,,,,,,,,,
298000,2022-11-25_02h18.34.500,vts_reward_expectancy_bt,2022.2.4,MacIntel,142.8571429,Safari,1470,956,,,a,0.733,1,522,2,2,2,26,9,1,0,0,0,1,1,0,0,0,star,triangle,,,,,,,,,,,,,,,,,,,,,,,,,,,,,,,,,,,,,,,,,,,,,,,,,,,,,,
298000,2022-11-25_02h18.34.500,vts_reward_expectancy_bt,2022.2.4,MacIntel,142.8571429,Safari,1470,956,,,l,0.3,1,523,2,2,3,27,6,1,0,0,1,0,1,0,0,0,hexagon,triangle,,,,,,,,,,,,,,,,,,,,,,,,,,,,,,,,,,,,,,,,,,,,,,,,,,,,,,
298000,2022-11-25_02h18.34.500,vts_reward_expectancy_bt,2022.2.4,MacIntel,142.8571429,Safari,1470,956,,,l,0.347,10,533,2,2,4,28,0,1,1,0,0,0,0,1,0,0,triangle,circle,,,,,,,,,,,,,,,,,,,,,,,,,,,,,,,,,,,,,,,,,,,,,,,,,,,,,,
298000,2022-11-25_02h18.34.500,vts_reward_expectancy_bt,2022.2.4,MacIntel,142.8571429,Safari,1470,956,,,l,0.605,1,534,2,2,5,29,2,1,1,0,0,0,0,0,0,1,triangle,star,,,,,,,,,,,,,,,,,,,,,,,,,,,,,,,,,,,,,,,,,,,,,,,,,,,,,,
298000,2022-11-25_02h18.34.500,vts_reward_expectancy_bt,2022.2.4,MacIntel,142.8571429,Safari,1470,956,,,l,0.884,10,544,2,2,6,30,8,1,0,0,1,0,0,0,0,1,hexagon,star,,,,,,,,,,,,,,,,,,,,,,,,,,,,,,,,,,,,,,,,,,,,,,,,,,,,,,
298000,2022-11-25_02h18.34.500,vts_reward_expectancy_bt,2022.2.4,MacIntel,142.8571429,Safari,1470,956,,,a,1.201,10,554,2,2,7,31,3,1,0,1,0,0,1,0,0,0,circle,triangle,,,,,,,,,,,,,,,,,,,,,,,,,,,,,,,,,,,,,,,,,,,,,,,,,,,,,,
298000,2022-11-25_02h18.34.500,vts_reward_expectancy_bt,2022.2.4,MacIntel,142.8571429,Safari,1470,956,,,l,0.751,10,564,2,2,8,32,5,1,0,1,0,0,0,0,0,1,circle,star,,,,,,,,,,,,,,,,,,,,,,,,,,,,,,,,,,,,,,,,,,,,,,,,,,,,,,
298000,2022-11-25_02h18.34.500,vts_reward_expectancy_bt,2022.2.4,MacIntel,142.8571429,Safari,1470,956,,,a,0.805,1,565,2,2,9,33,11,1,0,0,0,1,0,0,1,0,star,hexagon,,,,,,,,,,,,,,,,,,,,,,,,,,,,,,,,,,,,,,,,,,,,,,,,,,,,,,
298000,2022-11-25_02h18.34.500,vts_reward_expectancy_bt,2022.2.4,MacIntel,142.8571429,Safari,1470,956,,,l,0.573,10,575,2,2,10,34,1,1,1,0,0,0,0,0,1,0,triangle,hexagon,,,,,,,,,,,,,,,,,,,,,,,,,,,,,,,,,,,,,,,,,,,,,,,,,,,,,,
298000,2022-11-25_02h18.34.500,vts_reward_expectancy_bt,2022.2.4,MacIntel,142.8571429,Safari,1470,956,,,l,0.616,10,585,2,2,11,35,4,1,0,1,0,0,0,0,1,0,circle,hexagon,,,,,,,,,,,,,,,,,,,,,,,,,,,,,,,,,,,,,,,,,,,,,,,,,,,,,,
298000,2022-11-25_02h18.34.500,vts_reward_expectancy_bt,2022.2.4,MacIntel,142.8571429,Safari,1470,956,,,,,,,,,,,,,,,,,,,,,,,H,174,triangle,1,0,d,0.714,0,0,0,0,0,1,,,,,,,,,,,,,,,,,,,,,,,,,,,,,,,,,,,,,,,,,
298000,2022-11-25_02h18.34.500,vts_reward_expectancy_bt,2022.2.4,MacIntel,142.8571429,Safari,1470,956,,,,,,,,,,,,,,,,,,,,,,,W,125,circle,1,0,f,0.623,0,1,0,1,0,1,,,,,,,,,,,,,,,,,,,,,,,,,,,,,,,,,,,,,,,,,
298000,2022-11-25_02h18.34.500,vts_reward_expectancy_bt,2022.2.4,MacIntel,142.8571429,Safari,1470,956,,,,,,,,,,,,,,,,,,,,,,,Y,167,star,1,0,f,0.653,0,2,0,2,0,1,,,,,,,,,,,,,,,,,,,,,,,,,,,,,,,,,,,,,,,,,
298000,2022-11-25_02h18.34.500,vts_reward_expectancy_bt,2022.2.4,MacIntel,142.8571429,Safari,1470,956,,,,,,,,,,,,,,,,,,,,,,,B,139,hexagon,1,0,d,0.455,0,3,0,3,0,1,,,,,,,,,,,,,,,,,,,,,,,,,,,,,,,,,,,,,,,,,
298000,2022-11-25_02h18.34.500,vts_reward_expectancy_bt,2022.2.4,MacIntel,142.8571429,Safari,1470,956,,,,,,,,,,,,,,,,,,,,,,,S,181,triangle,1,0,f,0.938,0,4,0,4,0,1,,,,,,,,,,,,,,,,,,,,,,,,,,,,,,,,,,,,,,,,,
298000,2022-11-25_02h18.34.500,vts_reward_expectancy_bt,2022.2.4,MacIntel,142.8571429,Safari,1470,956,,,,,,,,,,,,,,,,,,,,,,,F,132,circle,0,0,f,0.735,0,5,0,5,0,1,,,,,,,,,,,,,,,,,,,,,,,,,,,,,,,,,,,,,,,,,
298000,2022-11-25_02h18.34.500,vts_reward_expectancy_bt,2022.2.4,MacIntel,142.8571429,Safari,1470,956,,,,,,,,,,,,,,,,,,,,,,,U,160,star,1,1,f,0.866,0,6,0,6,0,1,,,,,,,,,,,,,,,,,,,,,,,,,,,,,,,,,,,,,,,,,
298000,2022-11-25_02h18.34.500,vts_reward_expectancy_bt,2022.2.4,MacIntel,142.8571429,Safari,1470,956,,,,,,,,,,,,,,,,,,,,,,,D,146,hexagon,1,0,d,0.58,0,7,0,7,0,1,,,,,,,,,,,,,,,,,,,,,,,,,,,,,,,,,,,,,,,,,
298000,2022-11-25_02h18.34.500,vts_reward_expectancy_bt,2022.2.4,MacIntel,142.8571429,Safari,1470,956,,,,,,,,,,,,,,,,,,,,,,,H,174,triangle,1,0,d,0.409,0,8,0,8,0,1,,,,,,,,,,,,,,,,,,,,,,,,,,,,,,,,,,,,,,,,,
298000,2022-11-25_02h18.34.500,vts_reward_expectancy_bt,2022.2.4,MacIntel,142.8571429,Safari,1470,956,,,,,,,,,,,,,,,,,,,,,,,W,125,hexagon,1,0,f,0.597,0,9,0,9,0,1,,,,,,,,,,,,,,,,,,,,,,,,,,,,,,,,,,,,,,,,,
298000,2022-11-25_02h18.34.500,vts_reward_expectancy_bt,2022.2.4,MacIntel,142.8571429,Safari,1470,956,,,,,,,,,,,,,,,,,,,,,,,S,125,hexagon,1,0,,,1,,,,,,j,0.527,0,0,0,0,1,,,,,,,,,,,,,,,,,,,,,,,,,,,,,,,,,,
298000,2022-11-25_02h18.34.500,vts_reward_expectancy_bt,2022.2.4,MacIntel,142.8571429,Safari,1470,956,,,,,,,,,,,,,,,,,,,,,,,B,160,triangle,1,0,,,1,,,,,,k,0.446,1,0,1,0,1,,,,,,,,,,,,,,,,,,,,,,,,,,,,,,,,,,
298000,2022-11-25_02h18.34.500,vts_reward_expectancy_bt,2022.2.4,MacIntel,142.8571429,Safari,1470,956,,,,,,,,,,,,,,,,,,,,,,,W,174,circle,1,0,,,1,,,,,,k,1.159,2,0,2,0,1,,,,,,,,,,,,,,,,,,,,,,,,,,,,,,,,,,
298000,2022-11-25_02h18.34.500,vts_reward_expectancy_bt,2022.2.4,MacIntel,142.8571429,Safari,1470,956,,,,,,,,,,,,,,,,,,,,,,,D,132,star,1,0,,,1,,,,,,j,0.532,3,0,3,0,1,,,,,,,,,,,,,,,,,,,,,,,,,,,,,,,,,,
298000,2022-11-25_02h18.34.500,vts_reward_expectancy_bt,2022.2.4,MacIntel,142.8571429,Safari,1470,956,,,,,,,,,,,,,,,,,,,,,,,Y,181,hexagon,1,0,,,1,,,,,,k,0.757,4,0,4,0,1,,,,,,,,,,,,,,,,,,,,,,,,,,,,,,,,,,
298000,2022-11-25_02h18.34.500,vts_reward_expectancy_bt,2022.2.4,MacIntel,142.8571429,Safari,1470,956,,,,,,,,,,,,,,,,,,,,,,,F,146,triangle,1,0,,,1,,,,,,j,0.712,5,0,5,0,1,,,,,,,,,,,,,,,,,,,,,,,,,,,,,,,,,,
298000,2022-11-25_02h18.34.500,vts_reward_expectancy_bt,2022.2.4,MacIntel,142.8571429,Safari,1470,956,,,,,,,,,,,,,,,,,,,,,,,U,167,circle,1,0,,,1,,,,,,k,1.055,6,0,6,0,1,,,,,,,,,,,,,,,,,,,,,,,,,,,,,,,,,,
298000,2022-11-25_02h18.34.500,vts_reward_expectancy_bt,2022.2.4,MacIntel,142.8571429,Safari,1470,956,,,,,,,,,,,,,,,,,,,,,,,H,139,star,1,0,,,1,,,,,,j,0.688,7,0,7,0,1,,,,,,,,,,,,,,,,,,,,,,,,,,,,,,,,,,
298000,2022-11-25_02h18.34.500,vts_reward_expectancy_bt,2022.2.4,MacIntel,142.8571429,Safari,1470,956,,,,,,,,,,,,,,,,,,,,,,,S,125,star,1,0,,,1,,,,,,j,0.661,8,0,8,0,1,,,,,,,,,,,,,,,,,,,,,,,,,,,,,,,,,,
298000,2022-11-25_02h18.34.500,vts_reward_expectancy_bt,2022.2.4,MacIntel,142.8571429,Safari,1470,956,,,,,,,,,,,,,,,,,,,,,,,B,160,triangle,1,0,,,1,,,,,,k,1.04,9,0,9,0,1,,,,,,,,,,,,,,,,,,,,,,,,,,,,,,,,,,
298000,2022-11-25_02h18.34.500,vts_reward_expectancy_bt,2022.2.4,MacIntel,142.8571429,Safari,1470,956,,,,,0,585,,,,,,,,,,,,,,,,,Y,139,circle,1,0,,,2,,,,,,,,,,,,,-1,letter,NA,f,0.742,vtsPrac,0,0,0,0,1,,,,,,,,,,,,,,,,,,,,,,,
298000,2022-11-25_02h18.34.500,vts_reward_expectancy_bt,2022.2.4,MacIntel,142.8571429,Safari,1470,956,,,,,0,585,,,,,,,,,,,,,,,,,H,160,triangle,1,0,,,2,,,,,,,,,,,,,repeat,letter,lettRpt,d,0.654,vtsPrac,1,0,1,0,1,,,,,,,,,,,,,,,,,,,,,,,
298000,2022-11-25_02h18.34.500,vts_reward_expectancy_bt,2022.2.4,MacIntel,142.8571429,Safari,1470,956,,,,,0,585,,,,,,,,,,,,,,,,,D,174,circle,1,0,,,2,,,,,,,,,,,,,repeat,letter,lettRpt,d,0.627,vtsPrac,2,0,2,0,1,,,,,,,,,,,,,,,,,,,,,,,
298000,2022-11-25_02h18.34.500,vts_reward_expectancy_bt,2022.2.4,MacIntel,142.8571429,Safari,1470,956,,,,,0,585,,,,,,,,,,,,,,,,,S,181,triangle,1,0,,,2,,,,,,,,,,,,,switch,number,numSwt,k,0.563,vtsPrac,3,0,3,0,1,,,,,,,,,,,,,,,,,,,,,,,
298000,2022-11-25_02h18.34.500,vts_reward_expectancy_bt,2022.2.4,MacIntel,142.8571429,Safari,1470,956,,,,,0,585,,,,,,,,,,,,,,,,,Y,139,star,1,0,,,2,,,,,,,,,,,,,switch,letter,lettSwt,f,0.509,vtsPrac,4,0,4,0,1,,,,,,,,,,,,,,,,,,,,,,,
298000,2022-11-25_02h18.34.500,vts_reward_expectancy_bt,2022.2.4,MacIntel,142.8571429,Safari,1470,956,,,,,0,585,,,,,,,,,,,,,,,,,H,160,circle,1,0,,,2,,,,,,,,,,,,,switch,number,numSwt,k,0.526,vtsPrac,5,0,5,0,1,,,,,,,,,,,,,,,,,,,,,,,
298000,2022-11-25_02h18.34.500,vts_reward_expectancy_bt,2022.2.4,MacIntel,142.8571429,Safari,1470,956,,,,,0,585,,,,,,,,,,,,,,,,,D,174,star,0,0,,,2,,,,,,,,,,,,,repeat,number,NA,j,0.659,vtsPrac,6,0,6,0,1,,,,,,,,,,,,,,,,,,,,,,,
298000,2022-11-25_02h18.34.500,vts_reward_expectancy_bt,2022.2.4,MacIntel,142.8571429,Safari,1470,956,,,,,0,585,,,,,,,,,,,,,,,,,S,181,triangle,1,1,,,2,,,,,,,,,,,,,repeat,number,numRpt,k,0.544,vtsPrac,7,0,7,0,1,,,,,,,,,,,,,,,,,,,,,,,
298000,2022-11-25_02h18.34.500,vts_reward_expectancy_bt,2022.2.4,MacIntel,142.8571429,Safari,1470,956,,,,,0,585,,,,,,,,,,,,,,,,,B,167,circle,1,0,,,2,,,,,,,,,,,,,repeat,number,numRpt,k,0.99,vtsPrac,8,0,8,0,1,,,,,,,,,,,,,,,,,,,,,,,
298000,2022-11-25_02h18.34.500,vts_reward_expectancy_bt,2022.2.4,MacIntel,142.8571429,Safari,1470,956,,,,,0,585,,,,,,,,,,,,,,,,,S,125,hexagon,1,0,,,2,,,,,,,,,,,,,repeat,number,numRpt,j,0.781,vtsPrac,9,0,9,0,1,,,,,,,,,,,,,,,,,,,,,,,
298000,2022-11-25_02h18.34.500,vts_reward_expectancy_bt,2022.2.4,MacIntel,142.8571429,Safari,1470,956,,,,,0,585,,,,,,,,,,,,,,,,,W,181,hexagon,1,0,,,2,,,,,,,,,,,,,switch,letter,lettSwt,f,0.669,vtsPrac,10,0,10,0,1,,,,,,,,,,,,,,,,,,,,,,,
298000,2022-11-25_02h18.34.500,vts_reward_expectancy_bt,2022.2.4,MacIntel,142.8571429,Safari,1470,956,,,,,0,585,,,,,,,,,,,,,,,,,Y,160,triangle,0,0,,,2,,,,,,,,,,,,,switch,number,NA,j,1.013,vtsPrac,11,0,11,0,1,,,,,,,,,,,,,,,,,,,,,,,
298000,2022-11-25_02h18.34.500,vts_reward_expectancy_bt,2022.2.4,MacIntel,142.8571429,Safari,1470,956,,,,,0,585,,,,,,,,,,,,,,,,,D,174,circle,1,1,,,2,,,,,,,,,,,,,repeat,number,numRpt,k,0.678,vtsPrac,12,0,12,0,1,,,,,,,,,,,,,,,,,,,,,,,
298000,2022-11-25_02h18.34.500,vts_reward_expectancy_bt,2022.2.4,MacIntel,142.8571429,Safari,1470,956,,,,,0,585,,,,,,,,,,,,,,,,,Y,146,star,1,0,,,2,,,,,,,,,,,,,switch,letter,lettSwt,f,0.961,vtsPrac,13,0,13,0,1,,,,,,,,,,,,,,,,,,,,,,,
298000,2022-11-25_02h18.34.500,vts_reward_expectancy_bt,2022.2.4,MacIntel,142.8571429,Safari,1470,956,,,,,0,585,,,,,,,,,,,,,,,,,F,132,triangle,1,0,,,2,,,,,,,,,,,,,switch,number,numSwt,j,0.559,vtsPrac,14,0,14,0,1,,,,,,,,,,,,,,,,,,,,,,,
298000,2022-11-25_02h18.34.500,vts_reward_expectancy_bt,2022.2.4,MacIntel,142.8571429,Safari,1470,956,,,,,0,585,,,,,,,,,,,,,,,,,S,139,circle,1,0,,,2,,,,,,,,,,,,,repeat,number,numRpt,j,0.812,vtsPrac,15,0,15,0,1,,,,,,,,,,,,,,,,,,,,,,,
298000,2022-11-25_02h18.34.500,vts_reward_expectancy_bt,2022.2.4,MacIntel,142.8571429,Safari,1470,956,,,,,0,585,,,,,,,,,,,,,,,,,U,181,hexagon,1,0,,,2,,,,,,,,,,,,,switch,letter,lettSwt,f,0.99,vtsPrac,16,0,16,0,1,,,,,,,,,,,,,,,,,,,,,,,
298000,2022-11-25_02h18.34.500,vts_reward_expectancy_bt,2022.2.4,MacIntel,142.8571429,Safari,1470,956,,,,,0,585,,,,,,,,,,,,,,,,,H,160,star,1,0,,,2,,,,,,,,,,,,,switch,number,numSwt,k,0.764,vtsPrac,17,0,17,0,1,,,,,,,,,,,,,,,,,,,,,,,
298000,2022-11-25_02h18.34.500,vts_reward_expectancy_bt,2022.2.4,MacIntel,142.8571429,Safari,1470,956,,,,,0,585,,,,,,,,,,,,,,,,,D,132,triangle,1,0,,,2,,,,,,,,,,,,,repeat,number,numRpt,j,0.642,vtsPrac,18,0,18,0,1,,,,,,,,,,,,,,,,,,,,,,,
298000,2022-11-25_02h18.34.500,vts_reward_expectancy_bt,2022.2.4,MacIntel,142.8571429,Safari,1470,956,,,,,0,585,,,,,,,,,,,,,,,,,B,167,star,1,0,,,2,,,,,,,,,,,,,switch,letter,lettSwt,d,0.64,vtsPrac,19,0,19,0,1,,,,,,,,,,,,,,,,,,,,,,,
298000,2022-11-25_02h18.34.500,vts_reward_expectancy_bt,2022.2.4,MacIntel,142.8571429,Safari,1470,956,,,,,0,585,,,,,,,,,,,,,,,,,F,167,circle,1,0,,,2,,,,,,,,,,,,,switch,number,numSwt,k,0.747,vtsPrac,20,0,20,0,1,,,,,,,,,,,,,,,,,,,,,,,
298000,2022-11-25_02h18.34.500,vts_reward_expectancy_bt,2022.2.4,MacIntel,142.8571429,Safari,1470,956,,,,,0,585,,,,,,,,,,,,,,,,,U,132,star,0,0,,,2,,,,,,,,,,,,,switch,letter,NA,d,0.841,vtsPrac,21,0,21,0,1,,,,,,,,,,,,,,,,,,,,,,,
298000,2022-11-25_02h18.34.500,vts_reward_expectancy_bt,2022.2.4,MacIntel,142.8571429,Safari,1470,956,,,,,0,585,,,,,,,,,,,,,,,,,W,146,star,1,1,,,2,,,,,,,,,,,,,repeat,letter,lettRpt,f,0.771,vtsPrac,22,0,22,0,1,,,,,,,,,,,,,,,,,,,,,,,
298000,2022-11-25_02h18.34.500,vts_reward_expectancy_bt,2022.2.4,MacIntel,142.8571429,Safari,1470,956,,,,,0,585,,,,,,,,,,,,,,,,,H,181,hexagon,1,0,,,2,,,,,,,,,,,,,switch,number,numSwt,k,0.579,vtsPrac,23,0,23,0,1,,,,,,,,,,,,,,,,,,,,,,,
298000,2022-11-25_02h18.34.500,vts_reward_expectancy_bt,2022.2.4,MacIntel,142.8571429,Safari,1470,956,,,,,0,585,,,,,,,,,,,,,,,,,S,160,star,0,0,,,2,,,,,,,,,,,,,switch,letter,NA,d,1.241,vtsPrac,24,0,24,0,1,,,,,,,,,,,,,,,,,,,,,,,
298000,2022-11-25_02h18.34.500,vts_reward_expectancy_bt,2022.2.4,MacIntel,142.8571429,Safari,1470,956,,,,,0,585,,,,,,,,,,,,,,,,,H,125,triangle,1,1,,,2,,,,,,,,,,,,,repeat,letter,lettRpt,d,0.67,vtsPrac,25,0,25,0,1,,,,,,,,,,,,,,,,,,,,,,,
298000,2022-11-25_02h18.34.500,vts_reward_expectancy_bt,2022.2.4,MacIntel,142.8571429,Safari,1470,956,,,,,0,585,,,,,,,,,,,,,,,,,D,174,triangle,1,0,,,2,,,,,,,,,,,,,switch,number,numSwt,k,0.977,vtsPrac,26,0,26,0,1,,,,,,,,,,,,,,,,,,,,,,,
298000,2022-11-25_02h18.34.500,vts_reward_expectancy_bt,2022.2.4,MacIntel,142.8571429,Safari,1470,956,,,,,0,585,,,,,,,,,,,,,,,,,U,132,circle,1,0,,,2,,,,,,,,,,,,,repeat,number,numRpt,j,0.756,vtsPrac,27,0,27,0,1,,,,,,,,,,,,,,,,,,,,,,,
298000,2022-11-25_02h18.34.500,vts_reward_expectancy_bt,2022.2.4,MacIntel,142.8571429,Safari,1470,956,,,,,0,585,,,,,,,,,,,,,,,,,S,139,triangle,1,0,,,2,,,,,,,,,,,,,repeat,number,numRpt,j,0.481,vtsPrac,28,0,28,0,1,,,,,,,,,,,,,,,,,,,,,,,
298000,2022-11-25_02h18.34.500,vts_reward_expectancy_bt,2022.2.4,MacIntel,142.8571429,Safari,1470,956,,,,,0,585,,,,,,,,,,,,,,,,,U,160,star,0,0,,,2,,,,,,,,,,,,,switch,letter,NA,d,0.411,vtsPrac,29,0,29,0,1,,,,,,,,,,,,,,,,,,,,,,,
298000,2022-11-25_02h18.34.500,vts_reward_expectancy_bt,2022.2.4,MacIntel,142.8571429,Safari,1470,956,,,,,0,585,,,,,,,,,,,,,,,,,D,146,star,1,1,,,2,,,,,,,,,,,,,repeat,letter,lettRpt,d,0.559,vtsPrac,30,0,30,0,1,,,,,,,,,,,,,,,,,,,,,,,
298000,2022-11-25_02h18.34.500,vts_reward_expectancy_bt,2022.2.4,MacIntel,142.8571429,Safari,1470,956,,,,,0,585,,,,,,,,,,,,,,,,,H,132,hexagon,1,0,,,2,,,,,,,,,,,,,switch,number,numSwt,j,0.489,vtsPrac,31,0,31,0,1,,,,,,,,,,,,,,,,,,,,,,,
298000,2022-11-25_02h18.34.500,vts_reward_expectancy_bt,2022.2.4,MacIntel,142.8571429,Safari,1470,956,,,,,,,,,,,,,,,,,,,,,,,,,,,,,,,,,,,,,,,,,,,,,,,,,,,,,,,,,,,,,,,,,,,,,,,,,,,,
298000,2022-11-25_02h18.34.500,vts_reward_expectancy_bt,2022.2.4,MacIntel,142.8571429,Safari,1470,956,,,,,,,,,,,,,,,,,,,,,,,,,,,,,,,,,,,,,,,,,,,,,,,,,,,,,,,,,,,,,,,,,,,,,,,,,,,,
298000,2022-11-25_02h18.34.500,vts_reward_expectancy_bt,2022.2.4,MacIntel,142.8571429,Safari,1470,956,,,,,0,585,,,,,,,,,,,,,,,,,D,160,circle,1,0,,,,,,,,,,,,,,,,switch,letter,lettSwt,d,0.841,noRew,,,,,,0,0,0,0,0,1,,,,,,,,,,,,,,,,,
298000,2022-11-25_02h18.34.500,vts_reward_expectancy_bt,2022.2.4,MacIntel,142.8571429,Safari,1470,956,,,,,0,585,,,,,,,,,,,,,,,,,F,174,triangle,1,0,,,,,,,,,,,,,,,,switch,number,numSwt,k,0.639,noRew,,,,,,0,1,0,1,0,1,,,,,,,,,,,,,,,,,
298000,2022-11-25_02h18.34.500,vts_reward_expectancy_bt,2022.2.4,MacIntel,142.8571429,Safari,1470,956,,,,,0,585,,,,,,,,,,,,,,,,,Y,132,circle,1,0,,,,,,,,,,,,,,,,repeat,number,numRpt,j,0.559,noRew,,,,,,0,2,0,2,0,1,,,,,,,,,,,,,,,,,
298000,2022-11-25_02h18.34.500,vts_reward_expectancy_bt,2022.2.4,MacIntel,142.8571429,Safari,1470,956,,,,,0,585,,,,,,,,,,,,,,,,,W,181,triangle,1,0,,,,,,,,,,,,,,,,switch,letter,lettSwt,f,0.984,noRew,,,,,,0,3,0,3,0,1,,,,,,,,,,,,,,,,,
298000,2022-11-25_02h18.34.500,vts_reward_expectancy_bt,2022.2.4,MacIntel,142.8571429,Safari,1470,956,,,,,0,585,,,,,,,,,,,,,,,,,D,160,star,1,0,,,,,,,,,,,,,,,,switch,number,numSwt,k,1.123,noRew,,,,,,0,4,0,4,0,1,,,,,,,,,,,,,,,,,
298000,2022-11-25_02h18.34.500,vts_reward_expectancy_bt,2022.2.4,MacIntel,142.8571429,Safari,1470,956,,,,,0,585,,,,,,,,,,,,,,,,,F,174,circle,1,0,,,,,,,,,,,,,,,,repeat,number,numRpt,k,0.574,noRew,,,,,,0,5,0,5,0,1,,,,,,,,,,,,,,,,,
298000,2022-11-25_02h18.34.500,vts_reward_expectancy_bt,2022.2.4,MacIntel,142.8571429,Safari,1470,956,,,,,0,585,,,,,,,,,,,,,,,,,Y,132,circle,1,0,,,,,,,,,,,,,,,,switch,letter,lettSwt,f,0.913,noRew,,,,,,0,6,0,6,0,1,,,,,,,,,,,,,,,,,
298000,2022-11-25_02h18.34.500,vts_reward_expectancy_bt,2022.2.4,MacIntel,142.8571429,Safari,1470,956,,,,,0,585,,,,,,,,,,,,,,,,,W,181,hexagon,1,0,,,,,,,,,,,,,,,,switch,number,numSwt,k,0.792,noRew,,,,,,0,7,0,7,0,1,,,,,,,,,,,,,,,,,
298000,2022-11-25_02h18.34.500,vts_reward_expectancy_bt,2022.2.4,MacIntel,142.8571429,Safari,1470,956,,,,,0,585,,,,,,,,,,,,,,,,,D,146,triangle,0,0,,,,,,,,,,,,,,,,repeat,number,NA,k,0.774,noRew,,,,,,0,8,0,8,0,1,,,,,,,,,,,,,,,,,
298000,2022-11-25_02h18.34.500,vts_reward_expectancy_bt,2022.2.4,MacIntel,142.8571429,Safari,1470,956,,,,,0,585,,,,,,,,,,,,,,,,,Y,139,hexagon,1,1,,,,,,,,,,,,,,,,repeat,number,numRpt,j,0.524,noRew,,,,,,0,9,0,9,0,1,,,,,,,,,,,,,,,,,
298000,2022-11-25_02h18.34.500,vts_reward_expectancy_bt,2022.2.4,MacIntel,142.8571429,Safari,1470,956,,,,,0,585,,,,,,,,,,,,,,,,,F,132,hexagon,1,0,,,,,,,,,,,,,,,,repeat,number,numRpt,j,0.734,noRew,,,,,,0,10,0,10,0,1,,,,,,,,,,,,,,,,,
298000,2022-11-25_02h18.34.500,vts_reward_expectancy_bt,2022.2.4,MacIntel,142.8571429,Safari,1470,956,,,,,0,585,,,,,,,,,,,,,,,,,W,167,star,1,0,,,,,,,,,,,,,,,,switch,letter,lettSwt,f,0.681,noRew,,,,,,0,11,0,11,0,1,,,,,,,,,,,,,,,,,
298000,2022-11-25_02h18.34.500,vts_reward_expectancy_bt,2022.2.4,MacIntel,142.8571429,Safari,1470,956,,,,,0,585,,,,,,,,,,,,,,,,,D,181,circle,1,0,,,,,,,,,,,,,,,,switch,number,numSwt,k,0.858,noRew,,,,,,0,12,0,12,0,1,,,,,,,,,,,,,,,,,
298000,2022-11-25_02h18.34.500,vts_reward_expectancy_bt,2022.2.4,MacIntel,142.8571429,Safari,1470,956,,,,,0,585,,,,,,,,,,,,,,,,,H,167,triangle,1,0,,,,,,,,,,,,,,,,switch,letter,lettSwt,d,0.732,noRew,,,,,,0,13,0,13,0,1,,,,,,,,,,,,,,,,,
298000,2022-11-25_02h18.34.500,vts_reward_expectancy_bt,2022.2.4,MacIntel,142.8571429,Safari,1470,956,,,,,0,585,,,,,,,,,,,,,,,,,S,139,circle,1,0,,,,,,,,,,,,,,,,repeat,letter,lettRpt,f,0.609,noRew,,,,,,0,14,0,14,0,1,,,,,,,,,,,,,,,,,
298000,2022-11-25_02h18.34.500,vts_reward_expectancy_bt,2022.2.4,MacIntel,142.8571429,Safari,1470,956,,,,,0,585,,,,,,,,,,,,,,,,,U,160,hexagon,1,0,,,,,,,,,,,,,,,,switch,number,numSwt,k,0.492,noRew,,,,,,0,15,0,15,0,1,,,,,,,,,,,,,,,,,
298000,2022-11-25_02h18.34.500,vts_reward_expectancy_bt,2022.2.4,MacIntel,142.8571429,Safari,1470,956,,,,,0,585,,,,,,,,,,,,,,,,,U,181,hexagon,1,0,,,,,,,,,,,,,,,,repeat,number,numRpt,k,0.695,noRew,,,,,,0,16,0,16,0,1,,,,,,,,,,,,,,,,,
298000,2022-11-25_02h18.34.500,vts_reward_expectancy_bt,2022.2.4,MacIntel,142.8571429,Safari,1470,956,,,,,0,585,,,,,,,,,,,,,,,,,W,125,circle,0,0,,,,,,,,,,,,,,,,switch,letter,NA,d,1.698,noRew,,,,,,0,17,0,17,0,1,,,,,,,,,,,,,,,,,
298000,2022-11-25_02h18.34.500,vts_reward_expectancy_bt,2022.2.4,MacIntel,142.8571429,Safari,1470,956,,,,,0,585,,,,,,,,,,,,,,,,,B,167,hexagon,1,1,,,,,,,,,,,,,,,,repeat,letter,lettRpt,d,0.784,noRew,,,,,,0,18,0,18,0,1,,,,,,,,,,,,,,,,,
298000,2022-11-25_02h18.34.500,vts_reward_expectancy_bt,2022.2.4,MacIntel,142.8571429,Safari,1470,956,,,,,0,585,,,,,,,,,,,,,,,,,Y,139,triangle,1,0,,,,,,,,,,,,,,,,switch,number,numSwt,j,0.561,noRew,,,,,,0,19,0,19,0,1,,,,,,,,,,,,,,,,,
298000,2022-11-25_02h18.34.500,vts_reward_expectancy_bt,2022.2.4,MacIntel,142.8571429,Safari,1470,956,,,,,0,585,,,,,,,,,,,,,,,,,U,174,hexagon,1,0,,,,,,,,,,,,,,,,switch,letter,lettSwt,f,0.728,noRew,,,,,,0,20,0,20,0,1,,,,,,,,,,,,,,,,,
298000,2022-11-25_02h18.34.500,vts_reward_expectancy_bt,2022.2.4,MacIntel,142.8571429,Safari,1470,956,,,,,0,585,,,,,,,,,,,,,,,,,S,146,circle,1,0,,,,,,,,,,,,,,,,repeat,letter,lettRpt,f,0.616,noRew,,,,,,0,21,0,21,0,1,,,,,,,,,,,,,,,,,
298000,2022-11-25_02h18.34.500,vts_reward_expectancy_bt,2022.2.4,MacIntel,142.8571429,Safari,1470,956,,,,,0,585,,,,,,,,,,,,,,,,,F,160,circle,1,0,,,,,,,,,,,,,,,,switch,number,numSwt,k,0.54,noRew,,,,,,0,22,0,22,0,1,,,,,,,,,,,,,,,,,
298000,2022-11-25_02h18.34.500,vts_reward_expectancy_bt,2022.2.4,MacIntel,142.8571429,Safari,1470,956,,,,,0,585,,,,,,,,,,,,,,,,,D,139,hexagon,1,0,,,,,,,,,,,,,,,,repeat,number,numRpt,j,0.492,noRew,,,,,,0,23,0,23,0,1,,,,,,,,,,,,,,,,,
298000,2022-11-25_02h18.34.500,vts_reward_expectancy_bt,2022.2.4,MacIntel,142.8571429,Safari,1470,956,,,,,0,585,,,,,,,,,,,,,,,,,F,174,circle,1,0,,,,,,,,,,,,,,,,switch,letter,lettSwt,d,0.765,noRew,,,,,,0,24,0,24,0,1,,,,,,,,,,,,,,,,,
298000,2022-11-25_02h18.34.500,vts_reward_expectancy_bt,2022.2.4,MacIntel,142.8571429,Safari,1470,956,,,,,0,585,,,,,,,,,,,,,,,,,B,181,hexagon,1,0,,,,,,,,,,,,,,,,switch,number,numSwt,k,1.052,noRew,,,,,,0,25,0,25,0,1,,,,,,,,,,,,,,,,,
298000,2022-11-25_02h18.34.500,vts_reward_expectancy_bt,2022.2.4,MacIntel,142.8571429,Safari,1470,956,,,,,0,585,,,,,,,,,,,,,,,,,Y,160,circle,1,0,,,,,,,,,,,,,,,,switch,letter,lettSwt,f,0.622,noRew,,,,,,0,26,0,26,0,1,,,,,,,,,,,,,,,,,
298000,2022-11-25_02h18.34.500,vts_reward_expectancy_bt,2022.2.4,MacIntel,142.8571429,Safari,1470,956,,,,,0,585,,,,,,,,,,,,,,,,,W,139,triangle,1,0,,,,,,,,,,,,,,,,repeat,letter,lettRpt,f,0.525,noRew,,,,,,0,27,0,27,0,1,,,,,,,,,,,,,,,,,
298000,2022-11-25_02h18.34.500,vts_reward_expectancy_bt,2022.2.4,MacIntel,142.8571429,Safari,1470,956,,,,,0,585,,,,,,,,,,,,,,,,,D,139,hexagon,1,0,,,,,,,,,,,,,,,,switch,number,numSwt,j,0.53,noRew,,,,,,0,28,0,28,0,1,,,,,,,,,,,,,,,,,
298000,2022-11-25_02h18.34.500,vts_reward_expectancy_bt,2022.2.4,MacIntel,142.8571429,Safari,1470,956,,,,,0,585,,,,,,,,,,,,,,,,,F,174,circle,1,0,,,,,,,,,,,,,,,,repeat,number,numRpt,k,0.688,noRew,,,,,,0,29,0,29,0,1,,,,,,,,,,,,,,,,,
298000,2022-11-25_02h18.34.500,vts_reward_expectancy_bt,2022.2.4,MacIntel,142.8571429,Safari,1470,956,,,,,0,585,,,,,,,,,,,,,,,,,W,167,circle,1,0,,,,,,,,,,,,,,,,switch,letter,lettSwt,f,0.681,noRew,,,,,,0,30,0,30,0,1,,,,,,,,,,,,,,,,,
298000,2022-11-25_02h18.34.500,vts_reward_expectancy_bt,2022.2.4,MacIntel,142.8571429,Safari,1470,956,,,,,0,585,,,,,,,,,,,,,,,,,U,132,star,1,0,,,,,,,,,,,,,,,,switch,number,numSwt,j,0.445,noRew,,,,,,0,31,0,31,0,1,,,,,,,,,,,,,,,,,
298000,2022-11-25_02h18.34.500,vts_reward_expectancy_bt,2022.2.4,MacIntel,142.8571429,Safari,1470,956,,,,,0,585,,,,,,,,,,,,,,,,,B,125,triangle,1,0,,,,,,,,,,,,,,,,repeat,number,numRpt,j,0.479,noRew,,,,,,0,32,0,32,0,1,,,,,,,,,,,,,,,,,
298000,2022-11-25_02h18.34.500,vts_reward_expectancy_bt,2022.2.4,MacIntel,142.8571429,Safari,1470,956,,,,,0,585,,,,,,,,,,,,,,,,,D,181,star,1,0,,,,,,,,,,,,,,,,repeat,number,numRpt,k,0.442,noRew,,,,,,0,33,0,33,0,1,,,,,,,,,,,,,,,,,
298000,2022-11-25_02h18.34.500,vts_reward_expectancy_bt,2022.2.4,MacIntel,142.8571429,Safari,1470,956,,,,,0,585,,,,,,,,,,,,,,,,,S,132,circle,1,0,,,,,,,,,,,,,,,,switch,letter,lettSwt,f,0.834,noRew,,,,,,0,34,0,34,0,1,,,,,,,,,,,,,,,,,
298000,2022-11-25_02h18.34.500,vts_reward_expectancy_bt,2022.2.4,MacIntel,142.8571429,Safari,1470,956,,,,,0,585,,,,,,,,,,,,,,,,,U,146,star,1,0,,,,,,,,,,,,,,,,repeat,letter,lettRpt,f,0.715,noRew,,,,,,0,35,0,35,0,1,,,,,,,,,,,,,,,,,
298000,2022-11-25_02h18.34.500,vts_reward_expectancy_bt,2022.2.4,MacIntel,142.8571429,Safari,1470,956,,,,,0,585,,,,,,,,,,,,,,,,,D,167,star,1,0,,,,,,,,,,,,,,,,switch,number,numSwt,k,0.545,noRew,,,,,,0,36,0,36,0,1,,,,,,,,,,,,,,,,,
298000,2022-11-25_02h18.34.500,vts_reward_expectancy_bt,2022.2.4,MacIntel,142.8571429,Safari,1470,956,,,,,0,585,,,,,,,,,,,,,,,,,S,146,hexagon,1,0,,,,,,,,,,,,,,,,repeat,number,numRpt,j,0.727,noRew,,,,,,0,37,0,37,0,1,,,,,,,,,,,,,,,,,
298000,2022-11-25_02h18.34.500,vts_reward_expectancy_bt,2022.2.4,MacIntel,142.8571429,Safari,1470,956,,,,,0,585,,,,,,,,,,,,,,,,,U,160,star,1,0,,,,,,,,,,,,,,,,repeat,number,numRpt,k,0.969,noRew,,,,,,0,38,0,38,0,1,,,,,,,,,,,,,,,,,
298000,2022-11-25_02h18.34.500,vts_reward_expectancy_bt,2022.2.4,MacIntel,142.8571429,Safari,1470,956,,,,,0,585,,,,,,,,,,,,,,,,,W,125,triangle,1,0,,,,,,,,,,,,,,,,repeat,number,numRpt,j,0.641,noRew,,,,,,0,39,0,39,0,1,,,,,,,,,,,,,,,,,
298000,2022-11-25_02h18.34.500,vts_reward_expectancy_bt,2022.2.4,MacIntel,142.8571429,Safari,1470,956,,,,,0,585,,,,,,,,,,,,,,,,,S,139,star,1,0,,,,,,,,,,,,,,,,repeat,number,numRpt,j,0.584,noRew,,,,,,0,40,0,40,0,1,,,,,,,,,,,,,,,,,
298000,2022-11-25_02h18.34.500,vts_reward_expectancy_bt,2022.2.4,MacIntel,142.8571429,Safari,1470,956,,,,,0,585,,,,,,,,,,,,,,,,,F,132,circle,1,0,,,,,,,,,,,,,,,,repeat,number,numRpt,j,0.625,noRew,,,,,,0,41,0,41,0,1,,,,,,,,,,,,,,,,,
298000,2022-11-25_02h18.34.500,vts_reward_expectancy_bt,2022.2.4,MacIntel,142.8571429,Safari,1470,956,,,,,0,585,,,,,,,,,,,,,,,,,B,160,star,1,0,,,,,,,,,,,,,,,,repeat,number,numRpt,k,0.735,noRew,,,,,,0,42,0,42,0,1,,,,,,,,,,,,,,,,,
298000,2022-11-25_02h18.34.500,vts_reward_expectancy_bt,2022.2.4,MacIntel,142.8571429,Safari,1470,956,,,,,0,585,,,,,,,,,,,,,,,,,H,181,hexagon,1,0,,,,,,,,,,,,,,,,repeat,number,numRpt,k,0.762,noRew,,,,,,0,43,0,43,0,1,,,,,,,,,,,,,,,,,
298000,2022-11-25_02h18.34.500,vts_reward_expectancy_bt,2022.2.4,MacIntel,142.8571429,Safari,1470,956,,,,,0,585,,,,,,,,,,,,,,,,,U,125,star,1,0,,,,,,,,,,,,,,,,repeat,number,numRpt,j,0.669,noRew,,,,,,0,44,0,44,0,1,,,,,,,,,,,,,,,,,
298000,2022-11-25_02h18.34.500,vts_reward_expectancy_bt,2022.2.4,MacIntel,142.8571429,Safari,1470,956,,,,,0,585,,,,,,,,,,,,,,,,,S,139,triangle,1,0,,,,,,,,,,,,,,,,repeat,number,numRpt,j,1.012,noRew,,,,,,0,45,0,45,0,1,,,,,,,,,,,,,,,,,
298000,2022-11-25_02h18.34.500,vts_reward_expectancy_bt,2022.2.4,MacIntel,142.8571429,Safari,1470,956,,,,,0,585,,,,,,,,,,,,,,,,,B,181,hexagon,1,0,,,,,,,,,,,,,,,,repeat,number,numRpt,k,0.695,noRew,,,,,,0,46,0,46,0,1,,,,,,,,,,,,,,,,,
298000,2022-11-25_02h18.34.500,vts_reward_expectancy_bt,2022.2.4,MacIntel,142.8571429,Safari,1470,956,,,,,0,585,,,,,,,,,,,,,,,,,Y,132,triangle,1,0,,,,,,,,,,,,,,,,repeat,number,numRpt,j,0.672,noRew,,,,,,0,47,0,47,0,1,,,,,,,,,,,,,,,,,
298000,2022-11-25_02h18.34.500,vts_reward_expectancy_bt,2022.2.4,MacIntel,142.8571429,Safari,1470,956,,,,,0,585,,,,,,,,,,,,,,,,,H,132,star,1,0,,,,,,,,,,,,,,,,repeat,number,numRpt,j,0.813,noRew,,,,,,0,48,0,48,0,1,,,,,,,,,,,,,,,,,
298000,2022-11-25_02h18.34.500,vts_reward_expectancy_bt,2022.2.4,MacIntel,142.8571429,Safari,1470,956,,,,,0,585,,,,,,,,,,,,,,,,,S,139,circle,1,0,,,,,,,,,,,,,,,,repeat,number,numRpt,j,0.758,noRew,,,,,,0,49,0,49,0,1,,,,,,,,,,,,,,,,,
298000,2022-11-25_02h18.34.500,vts_reward_expectancy_bt,2022.2.4,MacIntel,142.8571429,Safari,1470,956,,,,,0,585,,,,,,,,,,,,,,,,,W,181,star,1,0,,,,,,,,,,,,,,,,switch,letter,lettSwt,f,1.344,noRew,,,,,,0,50,0,50,0,1,,,,,,,,,,,,,,,,,
298000,2022-11-25_02h18.34.500,vts_reward_expectancy_bt,2022.2.4,MacIntel,142.8571429,Safari,1470,956,,,,,0,585,,,,,,,,,,,,,,,,,B,125,triangle,1,0,,,,,,,,,,,,,,,,switch,number,numSwt,j,1.983,noRew,,,,,,0,51,0,51,0,1,,,,,,,,,,,,,,,,,
298000,2022-11-25_02h18.34.500,vts_reward_expectancy_bt,2022.2.4,MacIntel,142.8571429,Safari,1470,956,,,,,0,585,,,,,,,,,,,,,,,,,U,132,star,0,0,,,,,,,,,,,,,,,,repeat,number,NA,k,0.962,noRew,,,,,,0,52,0,52,0,1,,,,,,,,,,,,,,,,,
298000,2022-11-25_02h18.34.500,vts_reward_expectancy_bt,2022.2.4,MacIntel,142.8571429,Safari,1470,956,,,,,0,585,,,,,,,,,,,,,,,,,D,181,triangle,0,1,,,,,,,,,,,,,,,,repeat,number,NA,j,0.994,noRew,,,,,,0,53,0,53,0,1,,,,,,,,,,,,,,,,,
298000,2022-11-25_02h18.34.500,vts_reward_expectancy_bt,2022.2.4,MacIntel,142.8571429,Safari,1470,956,,,,,0,585,,,,,,,,,,,,,,,,,Y,139,star,1,1,,,,,,,,,,,,,,,,repeat,number,numRpt,j,0.641,noRew,,,,,,0,54,0,54,0,1,,,,,,,,,,,,,,,,,
298000,2022-11-25_02h18.34.500,vts_reward_expectancy_bt,2022.2.4,MacIntel,142.8571429,Safari,1470,956,,,,,0,585,,,,,,,,,,,,,,,,,H,146,triangle,1,0,,,,,,,,,,,,,,,,switch,letter,lettSwt,d,0.808,noRew,,,,,,0,55,0,55,0,1,,,,,,,,,,,,,,,,,
298000,2022-11-25_02h18.34.500,vts_reward_expectancy_bt,2022.2.4,MacIntel,142.8571429,Safari,1470,956,,,,,0,585,,,,,,,,,,,,,,,,,S,139,hexagon,1,0,,,,,,,,,,,,,,,,repeat,letter,lettRpt,f,0.811,noRew,,,,,,0,56,0,56,0,1,,,,,,,,,,,,,,,,,
298000,2022-11-25_02h18.34.500,vts_reward_expectancy_bt,2022.2.4,MacIntel,142.8571429,Safari,1470,956,,,,,0,585,,,,,,,,,,,,,,,,,B,146,circle,1,0,,,,,,,,,,,,,,,,repeat,letter,lettRpt,d,0.766,noRew,,,,,,0,57,0,57,0,1,,,,,,,,,,,,,,,,,
298000,2022-11-25_02h18.34.500,vts_reward_expectancy_bt,2022.2.4,MacIntel,142.8571429,Safari,1470,956,,,,,0,585,,,,,,,,,,,,,,,,,Y,167,triangle,1,0,,,,,,,,,,,,,,,,switch,number,numSwt,k,0.814,noRew,,,,,,0,58,0,58,0,1,,,,,,,,,,,,,,,,,
298000,2022-11-25_02h18.34.500,vts_reward_expectancy_bt,2022.2.4,MacIntel,142.8571429,Safari,1470,956,,,,,0,585,,,,,,,,,,,,,,,,,H,174,circle,1,0,,,,,,,,,,,,,,,,repeat,number,numRpt,k,0.693,noRew,,,,,,0,59,0,59,0,1,,,,,,,,,,,,,,,,,
298000,2022-11-25_02h18.34.500,vts_reward_expectancy_bt,2022.2.4,MacIntel,142.8571429,Safari,1470,956,,,,,0,585,,,,,,,,,,,,,,,,,Y,125,hexagon,1,0,,,,,,,,,,,,,,,,switch,letter,lettSwt,f,0.586,noRew,,,,,,0,60,0,60,0,1,,,,,,,,,,,,,,,,,
298000,2022-11-25_02h18.34.500,vts_reward_expectancy_bt,2022.2.4,MacIntel,142.8571429,Safari,1470,956,,,,,0,585,,,,,,,,,,,,,,,,,F,174,circle,1,0,,,,,,,,,,,,,,,,switch,number,numSwt,k,0.814,noRew,,,,,,0,61,0,61,0,1,,,,,,,,,,,,,,,,,
298000,2022-11-25_02h18.34.500,vts_reward_expectancy_bt,2022.2.4,MacIntel,142.8571429,Safari,1470,956,,,,,0,585,,,,,,,,,,,,,,,,,W,146,triangle,1,0,,,,,,,,,,,,,,,,repeat,number,numRpt,j,1.458,noRew,,,,,,0,62,0,62,0,1,,,,,,,,,,,,,,,,,
298000,2022-11-25_02h18.34.500,vts_reward_expectancy_bt,2022.2.4,MacIntel,142.8571429,Safari,1470,956,,,,,0,585,,,,,,,,,,,,,,,,,D,167,circle,1,0,,,,,,,,,,,,,,,,repeat,number,numRpt,k,0.552,noRew,,,,,,0,63,0,63,0,1,,,,,,,,,,,,,,,,,
298000,2022-11-25_02h18.34.500,vts_reward_expectancy_bt,2022.2.4,MacIntel,142.8571429,Safari,1470,956,,,,,,,,,,,,,,,,,,,,,,,,,,,,,,,,,,,,,,,,,,,,,,,,,,,,,,,,,,,,,,,,,,,,,,,,,,,,
298000,2022-11-25_02h18.34.500,vts_reward_expectancy_bt,2022.2.4,MacIntel,142.8571429,Safari,1470,956,,,,,10,595,,,,,,,,,,,,,,,,,F,146,triangle,1,0,,,,,,,,,,,,,,,,switch,letter,lettSwt,d,0.558,Lo,,,,,,0,,,,,,space,4.1,low,0,0,0,0,1,,,,,,,,,
298000,2022-11-25_02h18.34.500,vts_reward_expectancy_bt,2022.2.4,MacIntel,142.8571429,Safari,1470,956,,,,,10,605,,,,,,,,,,,,,,,,,U,174,star,1,0,,,,,,,,,,,,,,,,switch,number,numSwt,k,0.527,Hi,,,,,,0,,,,,,,,low,1,0,1,0,1,,,,,,,,,
298000,2022-11-25_02h18.34.500,vts_reward_expectancy_bt,2022.2.4,MacIntel,142.8571429,Safari,1470,956,,,,,1,606,,,,,,,,,,,,,,,,,D,181,hexagon,1,0,,,,,,,,,,,,,,,,switch,letter,lettSwt,d,1.063,Lo,,,,,,0,,,,,,,,low,2,0,2,0,1,,,,,,,,,
298000,2022-11-25_02h18.34.500,vts_reward_expectancy_bt,2022.2.4,MacIntel,142.8571429,Safari,1470,956,,,,,10,616,,,,,,,,,,,,,,,,,Y,125,circle,1,0,,,,,,,,,,,,,,,,switch,number,numSwt,j,0.476,Hi,,,,,,0,,,,,,,,low,3,0,3,0,1,,,,,,,,,
298000,2022-11-25_02h18.34.500,vts_reward_expectancy_bt,2022.2.4,MacIntel,142.8571429,Safari,1470,956,,,,,10,626,,,,,,,,,,,,,,,,,S,132,triangle,1,0,,,,,,,,,,,,,,,,switch,letter,lettSwt,f,0.514,Lo,,,,,,0,,,,,,,,low,4,0,4,0,1,,,,,,,,,
298000,2022-11-25_02h18.34.500,vts_reward_expectancy_bt,2022.2.4,MacIntel,142.8571429,Safari,1470,956,,,,,10,636,,,,,,,,,,,,,,,,,B,139,star,1,0,,,,,,,,,,,,,,,,switch,number,numSwt,j,0.549,Hi,,,,,,0,,,,,,,,low,5,0,5,0,1,,,,,,,,,
298000,2022-11-25_02h18.34.500,vts_reward_expectancy_bt,2022.2.4,MacIntel,142.8571429,Safari,1470,956,,,,,1,637,,,,,,,,,,,,,,,,,W,167,hexagon,1,0,,,,,,,,,,,,,,,,switch,letter,lettSwt,f,0.817,Lo,,,,,,0,,,,,,,,low,6,0,6,0,1,,,,,,,,,
298000,2022-11-25_02h18.34.500,vts_reward_expectancy_bt,2022.2.4,MacIntel,142.8571429,Safari,1470,956,,,,,1,638,,,,,,,,,,,,,,,,,H,160,circle,1,0,,,,,,,,,,,,,,,,repeat,letter,lettRpt,d,0.561,Hi,,,,,,0,,,,,,,,low,7,0,7,0,1,,,,,,,,,
298000,2022-11-25_02h18.34.500,vts_reward_expectancy_bt,2022.2.4,MacIntel,142.8571429,Safari,1470,956,,,,,0,638,,,,,,,,,,,,,,,,,F,146,circle,1,0,,,,,,,,,,,,,,,,switch,number,numSwt,j,0.963,Hi,,,,,,0,,,,,,,,low,8,0,8,0,1,,,,,,,,,
298000,2022-11-25_02h18.34.500,vts_reward_expectancy_bt,2022.2.4,MacIntel,142.8571429,Safari,1470,956,,,,,1,639,,,,,,,,,,,,,,,,,U,174,hexagon,1,0,,,,,,,,,,,,,,,,repeat,number,numRpt,k,0.497,Lo,,,,,,0,,,,,,,,low,9,0,9,0,1,,,,,,,,,
298000,2022-11-25_02h18.34.500,vts_reward_expectancy_bt,2022.2.4,MacIntel,142.8571429,Safari,1470,956,,,,,1,640,,,,,,,,,,,,,,,,,D,181,star,1,0,,,,,,,,,,,,,,,,switch,letter,lettSwt,d,0.567,Hi,,,,,,0,,,,,,,,low,10,0,10,0,1,,,,,,,,,
298000,2022-11-25_02h18.34.500,vts_reward_expectancy_bt,2022.2.4,MacIntel,142.8571429,Safari,1470,956,,,,,10,650,,,,,,,,,,,,,,,,,Y,125,triangle,1,0,,,,,,,,,,,,,,,,switch,number,numSwt,j,0.589,Lo,,,,,,0,,,,,,,,low,11,0,11,0,1,,,,,,,,,
298000,2022-11-25_02h18.34.500,vts_reward_expectancy_bt,2022.2.4,MacIntel,142.8571429,Safari,1470,956,,,,,10,660,,,,,,,,,,,,,,,,,S,132,star,1,0,,,,,,,,,,,,,,,,repeat,number,numRpt,j,0.523,Hi,,,,,,0,,,,,,,,low,12,0,12,0,1,,,,,,,,,
298000,2022-11-25_02h18.34.500,vts_reward_expectancy_bt,2022.2.4,MacIntel,142.8571429,Safari,1470,956,,,,,1,661,,,,,,,,,,,,,,,,,B,139,hexagon,1,0,,,,,,,,,,,,,,,,switch,letter,lettSwt,d,0.443,Lo,,,,,,0,,,,,,,,low,13,0,13,0,1,,,,,,,,,
298000,2022-11-25_02h18.34.500,vts_reward_expectancy_bt,2022.2.4,MacIntel,142.8571429,Safari,1470,956,,,,,1,662,,,,,,,,,,,,,,,,,W,167,triangle,1,0,,,,,,,,,,,,,,,,switch,number,numSwt,k,0.491,Lo,,,,,,0,,,,,,,,low,14,0,14,0,1,,,,,,,,,
298000,2022-11-25_02h18.34.500,vts_reward_expectancy_bt,2022.2.4,MacIntel,142.8571429,Safari,1470,956,,,,,10,672,,,,,,,,,,,,,,,,,H,160,circle,1,0,,,,,,,,,,,,,,,,switch,letter,lettSwt,d,0.599,Hi,,,,,,0,,,,,,,,low,15,0,15,0,1,,,,,,,,,
298000,2022-11-25_02h18.34.500,vts_reward_expectancy_bt,2022.2.4,MacIntel,142.8571429,Safari,1470,956,,,,,1,673,,,,,,,,,,,,,,,,,S,167,circle,1,0,,,,,,,,,,,,,,,,repeat,letter,lettRpt,f,0.562,Hi,,,,,,0,,,,,,,,low,16,0,16,0,1,,,,,,,,,
298000,2022-11-25_02h18.34.500,vts_reward_expectancy_bt,2022.2.4,MacIntel,142.8571429,Safari,1470,956,,,,,0,673,,,,,,,,,,,,,,,,,B,160,star,1,0,,,,,,,,,,,,,,,,switch,number,numSwt,k,0.724,Hi,,,,,,0,,,,,,,,low,17,0,17,0,1,,,,,,,,,
298000,2022-11-25_02h18.34.500,vts_reward_expectancy_bt,2022.2.4,MacIntel,142.8571429,Safari,1470,956,,,,,1,674,,,,,,,,,,,,,,,,,W,125,triangle,1,0,,,,,,,,,,,,,,,,repeat,number,numRpt,j,0.5,Lo,,,,,,0,,,,,,,,low,18,0,18,0,1,,,,,,,,,
298000,2022-11-25_02h18.34.500,vts_reward_expectancy_bt,2022.2.4,MacIntel,142.8571429,Safari,1470,956,,,,,0,674,,,,,,,,,,,,,,,,,D,146,hexagon,0,0,,,,,,,,,,,,,,,,repeat,number,NA,k,0.36,Lo,,,,,,0,,,,,,,,low,19,0,19,0,1,,,,,,,,,
298000,2022-11-25_02h18.34.500,vts_reward_expectancy_bt,2022.2.4,MacIntel,142.8571429,Safari,1470,956,,,,,1,675,,,,,,,,,,,,,,,,,U,132,circle,1,1,,,,,,,,,,,,,,,,repeat,number,numRpt,j,0.445,Hi,,,,,,0,,,,,,,,low,20,0,20,0,1,,,,,,,,,
298000,2022-11-25_02h18.34.500,vts_reward_expectancy_bt,2022.2.4,MacIntel,142.8571429,Safari,1470,956,,,,,0,675,,,,,,,,,,,,,,,,,F,139,triangle,0,0,,,,,,,,,,,,,,,,switch,letter,NA,f,0.689,Hi,,,,,,0,,,,,,,,low,21,0,21,0,1,,,,,,,,,
298000,2022-11-25_02h18.34.500,vts_reward_expectancy_bt,2022.2.4,MacIntel,142.8571429,Safari,1470,956,,,,,10,685,,,,,,,,,,,,,,,,,H,181,hexagon,1,1,,,,,,,,,,,,,,,,switch,number,numSwt,k,0.592,Lo,,,,,,0,,,,,,,,low,22,0,22,0,1,,,,,,,,,
298000,2022-11-25_02h18.34.500,vts_reward_expectancy_bt,2022.2.4,MacIntel,142.8571429,Safari,1470,956,,,,,1,686,,,,,,,,,,,,,,,,,Y,174,star,1,0,,,,,,,,,,,,,,,,repeat,number,numRpt,k,0.531,Hi,,,,,,0,,,,,,,,low,23,0,23,0,1,,,,,,,,,
298000,2022-11-25_02h18.34.500,vts_reward_expectancy_bt,2022.2.4,MacIntel,142.8571429,Safari,1470,956,,,,,10,696,,,,,,,,,,,,,,,,,Y,146,circle,1,0,,,,,,,,,,,,,,,,repeat,number,numRpt,j,0.584,Hi,,,,,,0,,,,,,,,low,24,0,24,0,1,,,,,,,,,
298000,2022-11-25_02h18.34.500,vts_reward_expectancy_bt,2022.2.4,MacIntel,142.8571429,Safari,1470,956,,,,,0,696,,,,,,,,,,,,,,,,,W,174,hexagon,0,0,,,,,,,,,,,,,,,,repeat,number,NA,j,0.568,Hi,,,,,,0,,,,,,,,low,25,0,25,0,1,,,,,,,,,
298000,2022-11-25_02h18.34.500,vts_reward_expectancy_bt,2022.2.4,MacIntel,142.8571429,Safari,1470,956,,,,,0,696,,,,,,,,,,,,,,,,,D,167,star,1,1,,,,,,,,,,,,,,,,switch,letter,lettSwt,d,0.91,Hi,,,,,,0,,,,,,,,low,26,0,26,0,1,,,,,,,,,
298000,2022-11-25_02h18.34.500,vts_reward_expectancy_bt,2022.2.4,MacIntel,142.8571429,Safari,1470,956,,,,,10,706,,,,,,,,,,,,,,,,,B,181,triangle,1,0,,,,,,,,,,,,,,,,repeat,letter,lettRpt,d,0.445,Lo,,,,,,0,,,,,,,,low,27,0,27,0,1,,,,,,,,,
298000,2022-11-25_02h18.34.500,vts_reward_expectancy_bt,2022.2.4,MacIntel,142.8571429,Safari,1470,956,,,,,0,706,,,,,,,,,,,,,,,,,S,160,star,1,0,,,,,,,,,,,,,,,,repeat,letter,lettRpt,f,0.664,Hi,,,,,,0,,,,,,,,low,28,0,28,0,1,,,,,,,,,
298000,2022-11-25_02h18.34.500,vts_reward_expectancy_bt,2022.2.4,MacIntel,142.8571429,Safari,1470,956,,,,,10,716,,,,,,,,,,,,,,,,,H,125,hexagon,1,0,,,,,,,,,,,,,,,,switch,number,numSwt,j,0.495,Lo,,,,,,0,,,,,,,,low,29,0,29,0,1,,,,,,,,,
298000,2022-11-25_02h18.34.500,vts_reward_expectancy_bt,2022.2.4,MacIntel,142.8571429,Safari,1470,956,,,,,1,717,,,,,,,,,,,,,,,,,F,139,triangle,1,0,,,,,,,,,,,,,,,,repeat,number,numRpt,j,0.715,Lo,,,,,,0,,,,,,,,low,30,0,30,0,1,,,,,,,,,
298000,2022-11-25_02h18.34.500,vts_reward_expectancy_bt,2022.2.4,MacIntel,142.8571429,Safari,1470,956,,,,,10,727,,,,,,,,,,,,,,,,,U,132,circle,1,0,,,,,,,,,,,,,,,,switch,letter,lettSwt,f,0.545,Hi,,,,,,0,,,,,,,,low,31,0,31,0,1,,,,,,,,,
298000,2022-11-25_02h18.34.500,vts_reward_expectancy_bt,2022.2.4,MacIntel,142.8571429,Safari,1470,956,,,,,0,727,,,,,,,,,,,,,,,,,U,174,circle,1,0,,,,,,,,,,,,,,,,repeat,letter,lettRpt,f,0.867,Hi,,,,,,1,,,,,,space,14.374,low,0,0,0,0,1,,,,,,,,,
298000,2022-11-25_02h18.34.500,vts_reward_expectancy_bt,2022.2.4,MacIntel,142.8571429,Safari,1470,956,,,,,1,728,,,,,,,,,,,,,,,,,Y,181,hexagon,1,0,,,,,,,,,,,,,,,,switch,number,numSwt,k,0.524,Lo,,,,,,1,,,,,,,,low,1,0,1,0,1,,,,,,,,,
298000,2022-11-25_02h18.34.500,vts_reward_expectancy_bt,2022.2.4,MacIntel,142.8571429,Safari,1470,956,,,,,10,738,,,,,,,,,,,,,,,,,H,160,star,1,0,,,,,,,,,,,,,,,,switch,letter,lettSwt,d,0.508,Hi,,,,,,1,,,,,,,,low,2,0,2,0,1,,,,,,,,,
298000,2022-11-25_02h18.34.500,vts_reward_expectancy_bt,2022.2.4,MacIntel,142.8571429,Safari,1470,956,,,,,10,748,,,,,,,,,,,,,,,,,F,125,triangle,1,0,,,,,,,,,,,,,,,,switch,number,numSwt,j,0.617,Lo,,,,,,1,,,,,,,,low,3,0,3,0,1,,,,,,,,,
298000,2022-11-25_02h18.34.500,vts_reward_expectancy_bt,2022.2.4,MacIntel,142.8571429,Safari,1470,956,,,,,0,748,,,,,,,,,,,,,,,,,W,146,circle,1,0,,,,,,,,,,,,,,,,repeat,number,numRpt,j,0.526,Hi,,,,,,1,,,,,,,,low,4,0,4,0,1,,,,,,,,,
298000,2022-11-25_02h18.34.500,vts_reward_expectancy_bt,2022.2.4,MacIntel,142.8571429,Safari,1470,956,,,,,1,749,,,,,,,,,,,,,,,,,B,167,hexagon,1,0,,,,,,,,,,,,,,,,switch,letter,lettSwt,d,0.507,Lo,,,,,,1,,,,,,,,low,5,0,5,0,1,,,,,,,,,
298000,2022-11-25_02h18.34.500,vts_reward_expectancy_bt,2022.2.4,MacIntel,142.8571429,Safari,1470,956,,,,,1,750,,,,,,,,,,,,,,,,,S,139,star,1,0,,,,,,,,,,,,,,,,repeat,letter,lettRpt,f,0.444,Hi,,,,,,1,,,,,,,,low,6,0,6,0,1,,,,,,,,,
298000,2022-11-25_02h18.34.500,vts_reward_expectancy_bt,2022.2.4,MacIntel,142.8571429,Safari,1470,956,,,,,0,750,,,,,,,,,,,,,,,,,D,132,triangle,0,0,,,,,,,,,,,,,,,,repeat,letter,NA,f,0.625,Hi,,,,,,1,,,,,,,,low,7,0,7,0,1,,,,,,,,,
298000,2022-11-25_02h18.34.500,vts_reward_expectancy_bt,2022.2.4,MacIntel,142.8571429,Safari,1470,956,,,,,0,750,,,,,,,,,,,,,,,,,U,174,star,1,1,,,,,,,,,,,,,,,,repeat,letter,lettRpt,f,0.625,Hi,,,,,,1,,,,,,,,low,8,0,8,0,1,,,,,,,,,
298000,2022-11-25_02h18.34.500,vts_reward_expectancy_bt,2022.2.4,MacIntel,142.8571429,Safari,1470,956,,,,,1,751,,,,,,,,,,,,,,,,,Y,181,triangle,1,0,,,,,,,,,,,,,,,,switch,number,numSwt,k,0.477,Lo,,,,,,1,,,,,,,,low,9,0,9,0,1,,,,,,,,,
298000,2022-11-25_02h18.34.500,vts_reward_expectancy_bt,2022.2.4,MacIntel,142.8571429,Safari,1470,956,,,,,0,751,,,,,,,,,,,,,,,,,H,160,hexagon,0,0,,,,,,,,,,,,,,,,repeat,number,NA,j,0.499,Lo,,,,,,1,,,,,,,,low,10,0,10,0,1,,,,,,,,,
298000,2022-11-25_02h18.34.500,vts_reward_expectancy_bt,2022.2.4,MacIntel,142.8571429,Safari,1470,956,,,,,0,751,,,,,,,,,,,,,,,,,F,125,circle,1,1,,,,,,,,,,,,,,,,repeat,number,numRpt,j,0.513,Hi,,,,,,1,,,,,,,,low,11,0,11,0,1,,,,,,,,,
298000,2022-11-25_02h18.34.500,vts_reward_expectancy_bt,2022.2.4,MacIntel,142.8571429,Safari,1470,956,,,,,0,751,,,,,,,,,,,,,,,,,W,146,star,1,0,,,,,,,,,,,,,,,,repeat,number,numRpt,j,0.826,Hi,,,,,,1,,,,,,,,low,12,0,12,0,1,,,,,,,,,
298000,2022-11-25_02h18.34.500,vts_reward_expectancy_bt,2022.2.4,MacIntel,142.8571429,Safari,1470,956,,,,,0,751,,,,,,,,,,,,,,,,,B,167,circle,1,0,,,,,,,,,,,,,,,,repeat,number,numRpt,k,0.516,Hi,,,,,,1,,,,,,,,low,13,0,13,0,1,,,,,,,,,
298000,2022-11-25_02h18.34.500,vts_reward_expectancy_bt,2022.2.4,MacIntel,142.8571429,Safari,1470,956,,,,,1,752,,,,,,,,,,,,,,,,,S,139,triangle,1,0,,,,,,,,,,,,,,,,switch,letter,lettSwt,f,0.612,Lo,,,,,,1,,,,,,,,low,14,0,14,0,1,,,,,,,,,
298000,2022-11-25_02h18.34.500,vts_reward_expectancy_bt,2022.2.4,MacIntel,142.8571429,Safari,1470,956,,,,,10,762,,,,,,,,,,,,,,,,,D,132,hexagon,1,0,,,,,,,,,,,,,,,,repeat,letter,lettRpt,d,0.661,Lo,,,,,,1,,,,,,,,low,15,0,15,0,1,,,,,,,,,
298000,2022-11-25_02h18.34.500,vts_reward_expectancy_bt,2022.2.4,MacIntel,142.8571429,Safari,1470,956,,,,,10,772,,,,,,,,,,,,,,,,,Y,167,triangle,1,0,,,,,,,,,,,,,,,,switch,number,numSwt,k,0.765,Lo,,,,,,1,,,,,,,,low,16,0,16,0,1,,,,,,,,,
298000,2022-11-25_02h18.34.500,vts_reward_expectancy_bt,2022.2.4,MacIntel,142.8571429,Safari,1470,956,,,,,10,782,,,,,,,,,,,,,,,,,H,125,star,1,0,,,,,,,,,,,,,,,,repeat,number,numRpt,j,0.403,Hi,,,,,,1,,,,,,,,low,17,0,17,0,1,,,,,,,,,
298000,2022-11-25_02h18.34.500,vts_reward_expectancy_bt,2022.2.4,MacIntel,142.8571429,Safari,1470,956,,,,,1,783,,,,,,,,,,,,,,,,,D,139,hexagon,1,0,,,,,,,,,,,,,,,,switch,letter,lettSwt,d,0.425,Lo,,,,,,1,,,,,,,,low,18,0,18,0,1,,,,,,,,,
298000,2022-11-25_02h18.34.500,vts_reward_expectancy_bt,2022.2.4,MacIntel,142.8571429,Safari,1470,956,,,,,1,784,,,,,,,,,,,,,,,,,S,174,circle,1,0,,,,,,,,,,,,,,,,repeat,letter,lettRpt,f,0.531,Hi,,,,,,1,,,,,,,,low,19,0,19,0,1,,,,,,,,,
298000,2022-11-25_02h18.34.500,vts_reward_expectancy_bt,2022.2.4,MacIntel,142.8571429,Safari,1470,956,,,,,10,794,,,,,,,,,,,,,,,,,B,132,circle,1,0,,,,,,,,,,,,,,,,switch,number,numSwt,j,0.459,Hi,,,,,,1,,,,,,,,low,20,0,20,0,1,,,,,,,,,
298000,2022-11-25_02h18.34.500,vts_reward_expectancy_bt,2022.2.4,MacIntel,142.8571429,Safari,1470,956,,,,,1,795,,,,,,,,,,,,,,,,,U,181,hexagon,1,0,,,,,,,,,,,,,,,,switch,letter,lettSwt,f,0.361,Lo,,,,,,1,,,,,,,,low,21,0,21,0,1,,,,,,,,,
298000,2022-11-25_02h18.34.500,vts_reward_expectancy_bt,2022.2.4,MacIntel,142.8571429,Safari,1470,956,,,,,10,805,,,,,,,,,,,,,,,,,F,160,star,1,0,,,,,,,,,,,,,,,,switch,number,numSwt,k,0.43,Hi,,,,,,1,,,,,,,,low,22,0,22,0,1,,,,,,,,,
298000,2022-11-25_02h18.34.500,vts_reward_expectancy_bt,2022.2.4,MacIntel,142.8571429,Safari,1470,956,,,,,1,806,,,,,,,,,,,,,,,,,W,146,triangle,1,0,,,,,,,,,,,,,,,,repeat,number,numRpt,j,0.491,Lo,,,,,,1,,,,,,,,low,23,0,23,0,1,,,,,,,,,
298000,2022-11-25_02h18.34.500,vts_reward_expectancy_bt,2022.2.4,MacIntel,142.8571429,Safari,1470,956,,,,,10,816,,,,,,,,,,,,,,,,,S,125,star,1,0,,,,,,,,,,,,,,,,repeat,number,numRpt,j,0.496,Hi,,,,,,1,,,,,,,,low,24,0,24,0,1,,,,,,,,,
298000,2022-11-25_02h18.34.500,vts_reward_expectancy_bt,2022.2.4,MacIntel,142.8571429,Safari,1470,956,,,,,10,826,,,,,,,,,,,,,,,,,H,146,hexagon,1,0,,,,,,,,,,,,,,,,repeat,number,numRpt,j,0.524,Lo,,,,,,1,,,,,,,,low,25,0,25,0,1,,,,,,,,,
298000,2022-11-25_02h18.34.500,vts_reward_expectancy_bt,2022.2.4,MacIntel,142.8571429,Safari,1470,956,,,,,1,827,,,,,,,,,,,,,,,,,W,174,triangle,1,0,,,,,,,,,,,,,,,,switch,letter,lettSwt,f,0.481,Lo,,,,,,1,,,,,,,,low,26,0,26,0,1,,,,,,,,,
298000,2022-11-25_02h18.34.500,vts_reward_expectancy_bt,2022.2.4,MacIntel,142.8571429,Safari,1470,956,,,,,10,837,,,,,,,,,,,,,,,,,U,139,circle,1,0,,,,,,,,,,,,,,,,repeat,letter,lettRpt,f,0.547,Hi,,,,,,1,,,,,,,,low,27,0,27,0,1,,,,,,,,,
298000,2022-11-25_02h18.34.500,vts_reward_expectancy_bt,2022.2.4,MacIntel,142.8571429,Safari,1470,956,,,,,10,847,,,,,,,,,,,,,,,,,Y,132,circle,1,0,,,,,,,,,,,,,,,,switch,number,numSwt,j,0.486,Hi,,,,,,1,,,,,,,,low,28,0,28,0,1,,,,,,,,,
298000,2022-11-25_02h18.34.500,vts_reward_expectancy_bt,2022.2.4,MacIntel,142.8571429,Safari,1470,956,,,,,1,848,,,,,,,,,,,,,,,,,D,181,star,1,0,,,,,,,,,,,,,,,,switch,letter,lettSwt,d,0.444,Hi,,,,,,1,,,,,,,,low,29,0,29,0,1,,,,,,,,,
298000,2022-11-25_02h18.34.500,vts_reward_expectancy_bt,2022.2.4,MacIntel,142.8571429,Safari,1470,956,,,,,0,848,,,,,,,,,,,,,,,,,F,167,hexagon,0,0,,,,,,,,,,,,,,,,switch,number,NA,j,0.459,Hi,,,,,,1,,,,,,,,low,30,0,30,0,1,,,,,,,,,
298000,2022-11-25_02h18.34.500,vts_reward_expectancy_bt,2022.2.4,MacIntel,142.8571429,Safari,1470,956,,,,,1,849,,,,,,,,,,,,,,,,,B,160,triangle,1,1,,,,,,,,,,,,,,,,repeat,number,numRpt,k,0.546,Lo,,,,,,1,,,,,,,,low,31,0,31,0,1,,,,,,,,,
298000,2022-11-25_02h18.34.500,vts_reward_expectancy_bt,2022.2.4,MacIntel,142.8571429,Safari,1470,956,,,,,10,859,,,,,,,,,,,,,,,,,F,160,hexagon,1,0,,,,,,,,,,,,,,,,repeat,number,numRpt,k,0.618,Lo,,,,,,2,,,,,,space,3.155,low,0,0,0,0,1,,,,,,,,,
298000,2022-11-25_02h18.34.500,vts_reward_expectancy_bt,2022.2.4,MacIntel,142.8571429,Safari,1470,956,,,,,10,869,,,,,,,,,,,,,,,,,B,139,triangle,1,0,,,,,,,,,,,,,,,,repeat,number,numRpt,j,0.393,Lo,,,,,,2,,,,,,,,low,1,0,1,0,1,,,,,,,,,
298000,2022-11-25_02h18.34.500,vts_reward_expectancy_bt,2022.2.4,MacIntel,142.8571429,Safari,1470,956,,,,,0,869,,,,,,,,,,,,,,,,,D,167,circle,1,0,,,,,,,,,,,,,,,,switch,letter,lettSwt,d,0.593,Hi,,,,,,2,,,,,,,,low,2,0,2,0,1,,,,,,,,,
298000,2022-11-25_02h18.34.500,vts_reward_expectancy_bt,2022.2.4,MacIntel,142.8571429,Safari,1470,956,,,,,10,879,,,,,,,,,,,,,,,,,Y,174,star,1,0,,,,,,,,,,,,,,,,switch,number,numSwt,k,0.46,Hi,,,,,,2,,,,,,,,low,3,0,3,0,1,,,,,,,,,
298000,2022-11-25_02h18.34.500,vts_reward_expectancy_bt,2022.2.4,MacIntel,142.8571429,Safari,1470,956,,,,,10,889,,,,,,,,,,,,,,,,,H,181,hexagon,1,0,,,,,,,,,,,,,,,,switch,letter,lettSwt,d,0.478,Lo,,,,,,2,,,,,,,,low,4,0,4,0,1,,,,,,,,,
298000,2022-11-25_02h18.34.500,vts_reward_expectancy_bt,2022.2.4,MacIntel,142.8571429,Safari,1470,956,,,,,1,890,,,,,,,,,,,,,,,,,U,125,triangle,1,0,,,,,,,,,,,,,,,,switch,number,numSwt,j,0.578,Lo,,,,,,2,,,,,,,,low,5,0,5,0,1,,,,,,,,,
298000,2022-11-25_02h18.34.500,vts_reward_expectancy_bt,2022.2.4,MacIntel,142.8571429,Safari,1470,956,,,,,0,890,,,,,,,,,,,,,,,,,S,132,circle,1,0,,,,,,,,,,,,,,,,switch,letter,lettSwt,f,0.662,Hi,,,,,,2,,,,,,,,low,6,0,6,0,1,,,,,,,,,
298000,2022-11-25_02h18.34.500,vts_reward_expectancy_bt,2022.2.4,MacIntel,142.8571429,Safari,1470,956,,,,,0,890,,,,,,,,,,,,,,,,,W,146,star,1,0,,,,,,,,,,,,,,,,switch,number,numSwt,j,0.53,Hi,,,,,,2,,,,,,,,low,7,0,7,0,1,,,,,,,,,
298000,2022-11-25_02h18.34.500,vts_reward_expectancy_bt,2022.2.4,MacIntel,142.8571429,Safari,1470,956,,,,,0,890,,,,,,,,,,,,,,,,,F,160,circle,1,0,,,,,,,,,,,,,,,,switch,letter,lettSwt,d,0.647,Hi,,,,,,2,,,,,,,,low,8,0,8,0,1,,,,,,,,,
298000,2022-11-25_02h18.34.500,vts_reward_expectancy_bt,2022.2.4,MacIntel,142.8571429,Safari,1470,956,,,,,1,891,,,,,,,,,,,,,,,,,B,139,triangle,1,0,,,,,,,,,,,,,,,,switch,number,numSwt,j,0.432,Lo,,,,,,2,,,,,,,,low,9,0,9,0,1,,,,,,,,,
298000,2022-11-25_02h18.34.500,vts_reward_expectancy_bt,2022.2.4,MacIntel,142.8571429,Safari,1470,956,,,,,0,891,,,,,,,,,,,,,,,,,D,167,hexagon,0,0,,,,,,,,,,,,,,,,repeat,number,NA,j,0.382,Lo,,,,,,2,,,,,,,,low,10,0,10,0,1,,,,,,,,,
298000,2022-11-25_02h18.34.500,vts_reward_expectancy_bt,2022.2.4,MacIntel,142.8571429,Safari,1470,956,,,,,0,891,,,,,,,,,,,,,,,,,Y,174,star,1,1,,,,,,,,,,,,,,,,repeat,number,numRpt,k,0.543,Hi,,,,,,2,,,,,,,,low,11,0,11,0,1,,,,,,,,,
298000,2022-11-25_02h18.34.500,vts_reward_expectancy_bt,2022.2.4,MacIntel,142.8571429,Safari,1470,956,,,,,10,901,,,,,,,,,,,,,,,,,H,181,circle,1,0,,,,,,,,,,,,,,,,switch,letter,lettSwt,d,0.442,Hi,,,,,,2,,,,,,,,low,12,0,12,0,1,,,,,,,,,
298000,2022-11-25_02h18.34.500,vts_reward_expectancy_bt,2022.2.4,MacIntel,142.8571429,Safari,1470,956,,,,,1,902,,,,,,,,,,,,,,,,,U,125,star,1,0,,,,,,,,,,,,,,,,repeat,letter,lettRpt,f,0.413,Hi,,,,,,2,,,,,,,,low,13,0,13,0,1,,,,,,,,,
298000,2022-11-25_02h18.34.500,vts_reward_expectancy_bt,2022.2.4,MacIntel,142.8571429,Safari,1470,956,,,,,1,903,,,,,,,,,,,,,,,,,S,132,hexagon,1,0,,,,,,,,,,,,,,,,switch,number,numSwt,j,0.651,Lo,,,,,,2,,,,,,,,low,14,0,14,0,1,,,,,,,,,
298000,2022-11-25_02h18.34.500,vts_reward_expectancy_bt,2022.2.4,MacIntel,142.8571429,Safari,1470,956,,,,,1,904,,,,,,,,,,,,,,,,,W,146,triangle,1,0,,,,,,,,,,,,,,,,repeat,number,numRpt,j,0.532,Lo,,,,,,2,,,,,,,,low,15,0,15,0,1,,,,,,,,,
298000,2022-11-25_02h18.34.500,vts_reward_expectancy_bt,2022.2.4,MacIntel,142.8571429,Safari,1470,956,,,,,1,905,,,,,,,,,,,,,,,,,B,146,triangle,1,0,,,,,,,,,,,,,,,,repeat,number,numRpt,j,0.543,Lo,,,,,,2,,,,,,,,low,16,0,16,0,1,,,,,,,,,
298000,2022-11-25_02h18.34.500,vts_reward_expectancy_bt,2022.2.4,MacIntel,142.8571429,Safari,1470,956,,,,,10,915,,,,,,,,,,,,,,,,,D,132,circle,1,0,,,,,,,,,,,,,,,,repeat,number,numRpt,j,0.461,Hi,,,,,,2,,,,,,,,low,17,0,17,0,1,,,,,,,,,
298000,2022-11-25_02h18.34.500,vts_reward_expectancy_bt,2022.2.4,MacIntel,142.8571429,Safari,1470,956,,,,,1,916,,,,,,,,,,,,,,,,,F,160,hexagon,1,0,,,,,,,,,,,,,,,,repeat,number,numRpt,k,0.527,Lo,,,,,,2,,,,,,,,low,18,0,18,0,1,,,,,,,,,
298000,2022-11-25_02h18.34.500,vts_reward_expectancy_bt,2022.2.4,MacIntel,142.8571429,Safari,1470,956,,,,,0,916,,,,,,,,,,,,,,,,,W,125,star,1,0,,,,,,,,,,,,,,,,repeat,number,numRpt,j,0.527,Hi,,,,,,2,,,,,,,,low,19,0,19,0,1,,,,,,,,,
298000,2022-11-25_02h18.34.500,vts_reward_expectancy_bt,2022.2.4,MacIntel,142.8571429,Safari,1470,956,,,,,0,916,,,,,,,,,,,,,,,,,U,181,circle,1,0,,,,,,,,,,,,,,,,repeat,number,numRpt,k,0.617,Hi,,,,,,2,,,,,,,,low,20,0,20,0,1,,,,,,,,,
298000,2022-11-25_02h18.34.500,vts_reward_expectancy_bt,2022.2.4,MacIntel,142.8571429,Safari,1470,956,,,,,1,917,,,,,,,,,,,,,,,,,H,174,triangle,1,0,,,,,,,,,,,,,,,,repeat,number,numRpt,k,0.607,Lo,,,,,,2,,,,,,,,low,21,0,21,0,1,,,,,,,,,
298000,2022-11-25_02h18.34.500,vts_reward_expectancy_bt,2022.2.4,MacIntel,142.8571429,Safari,1470,956,,,,,0,917,,,,,,,,,,,,,,,,,Y,139,hexagon,0,0,,,,,,,,,,,,,,,,switch,letter,NA,d,0.393,Lo,,,,,,2,,,,,,,,low,22,0,22,0,1,,,,,,,,,
298000,2022-11-25_02h18.34.500,vts_reward_expectancy_bt,2022.2.4,MacIntel,142.8571429,Safari,1470,956,,,,,0,917,,,,,,,,,,,,,,,,,S,167,star,1,1,,,,,,,,,,,,,,,,repeat,letter,lettRpt,f,0.589,Hi,,,,,,2,,,,,,,,low,23,0,23,0,1,,,,,,,,,
298000,2022-11-25_02h18.34.500,vts_reward_expectancy_bt,2022.2.4,MacIntel,142.8571429,Safari,1470,956,,,,,1,918,,,,,,,,,,,,,,,,,H,181,hexagon,1,0,,,,,,,,,,,,,,,,repeat,letter,lettRpt,d,0.576,Lo,,,,,,2,,,,,,,,low,24,0,24,0,1,,,,,,,,,
298000,2022-11-25_02h18.34.500,vts_reward_expectancy_bt,2022.2.4,MacIntel,142.8571429,Safari,1470,956,,,,,1,919,,,,,,,,,,,,,,,,,S,160,star,1,0,,,,,,,,,,,,,,,,switch,number,numSwt,k,0.444,Hi,,,,,,2,,,,,,,,low,25,0,25,0,1,,,,,,,,,
298000,2022-11-25_02h18.34.500,vts_reward_expectancy_bt,2022.2.4,MacIntel,142.8571429,Safari,1470,956,,,,,0,919,,,,,,,,,,,,,,,,,W,174,circle,1,0,,,,,,,,,,,,,,,,repeat,number,numRpt,k,0.609,Hi,,,,,,2,,,,,,,,low,26,0,26,0,1,,,,,,,,,
298000,2022-11-25_02h18.34.500,vts_reward_expectancy_bt,2022.2.4,MacIntel,142.8571429,Safari,1470,956,,,,,10,929,,,,,,,,,,,,,,,,,F,146,triangle,1,0,,,,,,,,,,,,,,,,switch,letter,lettSwt,d,0.591,Lo,,,,,,2,,,,,,,,low,27,0,27,0,1,,,,,,,,,
298000,2022-11-25_02h18.34.500,vts_reward_expectancy_bt,2022.2.4,MacIntel,142.8571429,Safari,1470,956,,,,,10,939,,,,,,,,,,,,,,,,,D,132,circle,1,0,,,,,,,,,,,,,,,,switch,number,numSwt,j,0.393,Hi,,,,,,2,,,,,,,,low,28,0,28,0,1,,,,,,,,,
298000,2022-11-25_02h18.34.500,vts_reward_expectancy_bt,2022.2.4,MacIntel,142.8571429,Safari,1470,956,,,,,0,939,,,,,,,,,,,,,,,,,Y,139,star,1,0,,,,,,,,,,,,,,,,switch,letter,lettSwt,f,0.595,Hi,,,,,,2,,,,,,,,low,29,0,29,0,1,,,,,,,,,
298000,2022-11-25_02h18.34.500,vts_reward_expectancy_bt,2022.2.4,MacIntel,142.8571429,Safari,1470,956,,,,,0,939,,,,,,,,,,,,,,,,,U,125,triangle,0,0,,,,,,,,,,,,,,,,repeat,letter,NA,d,0.561,Hi,,,,,,2,,,,,,,,low,30,0,30,0,1,,,,,,,,,
298000,2022-11-25_02h18.34.500,vts_reward_expectancy_bt,2022.2.4,MacIntel,142.8571429,Safari,1470,956,,,,,1,940,,,,,,,,,,,,,,,,,B,167,hexagon,1,1,,,,,,,,,,,,,,,,switch,number,numSwt,k,0.717,Lo,,,,,,2,,,,,,,,low,31,0,31,0,1,,,,,,,,,
298000,2022-11-25_02h18.34.500,vts_reward_expectancy_bt,2022.2.4,MacIntel,142.8571429,Safari,1470,956,,,,,0,940,,,,,,,,,,,,,,,,,Y,181,circle,1,0,,,,,,,,,,,,,,,,repeat,number,numRpt,k,0.608,Hi,,,,,,3,,,,,,space,1.064,low,0,0,0,0,1,,,,,,,,,
298000,2022-11-25_02h18.34.500,vts_reward_expectancy_bt,2022.2.4,MacIntel,142.8571429,Safari,1470,956,,,,,10,950,,,,,,,,,,,,,,,,,U,160,triangle,1,0,,,,,,,,,,,,,,,,switch,letter,lettSwt,f,0.831,Lo,,,,,,3,,,,,,,,low,1,0,1,0,1,,,,,,,,,
298000,2022-11-25_02h18.34.500,vts_reward_expectancy_bt,2022.2.4,MacIntel,142.8571429,Safari,1470,956,,,,,10,960,,,,,,,,,,,,,,,,,F,174,hexagon,1,0,,,,,,,,,,,,,,,,switch,number,numSwt,k,0.644,Lo,,,,,,3,,,,,,,,low,2,0,2,0,1,,,,,,,,,
298000,2022-11-25_02h18.34.500,vts_reward_expectancy_bt,2022.2.4,MacIntel,142.8571429,Safari,1470,956,,,,,0,960,,,,,,,,,,,,,,,,,H,125,star,1,0,,,,,,,,,,,,,,,,repeat,number,numRpt,j,0.611,Hi,,,,,,3,,,,,,,,low,3,0,3,0,1,,,,,,,,,
298000,2022-11-25_02h18.34.500,vts_reward_expectancy_bt,2022.2.4,MacIntel,142.8571429,Safari,1470,956,,,,,0,960,,,,,,,,,,,,,,,,,W,132,circle,1,0,,,,,,,,,,,,,,,,repeat,number,numRpt,j,0.661,Hi,,,,,,3,,,,,,,,low,4,0,4,0,1,,,,,,,,,
298000,2022-11-25_02h18.34.500,vts_reward_expectancy_bt,2022.2.4,MacIntel,142.8571429,Safari,1470,956,,,,,1,961,,,,,,,,,,,,,,,,,D,146,triangle,1,0,,,,,,,,,,,,,,,,switch,letter,lettSwt,d,0.566,Lo,,,,,,3,,,,,,,,low,5,0,5,0,1,,,,,,,,,
298000,2022-11-25_02h18.34.500,vts_reward_expectancy_bt,2022.2.4,MacIntel,142.8571429,Safari,1470,956,,,,,10,971,,,,,,,,,,,,,,,,,S,167,hexagon,1,0,,,,,,,,,,,,,,,,repeat,letter,lettRpt,f,0.594,Lo,,,,,,3,,,,,,,,low,6,0,6,0,1,,,,,,,,,
298000,2022-11-25_02h18.34.500,vts_reward_expectancy_bt,2022.2.4,MacIntel,142.8571429,Safari,1470,956,,,,,0,971,,,,,,,,,,,,,,,,,B,139,star,1,0,,,,,,,,,,,,,,,,switch,number,numSwt,j,0.627,Hi,,,,,,3,,,,,,,,low,7,0,7,0,1,,,,,,,,,
298000,2022-11-25_02h18.34.500,vts_reward_expectancy_bt,2022.2.4,MacIntel,142.8571429,Safari,1470,956,,,,,0,971,,,,,,,,,,,,,,,,,Y,181,star,1,0,,,,,,,,,,,,,,,,repeat,number,numRpt,k,0.578,Hi,,,,,,3,,,,,,,,low,8,0,8,0,1,,,,,,,,,
298000,2022-11-25_02h18.34.500,vts_reward_expectancy_bt,2022.2.4,MacIntel,142.8571429,Safari,1470,956,,,,,0,971,,,,,,,,,,,,,,,,,U,160,hexagon,0,0,,,,,,,,,,,,,,,,repeat,number,NA,j,0.598,Hi,,,,,,3,,,,,,,,low,9,0,9,0,1,,,,,,,,,
298000,2022-11-25_02h18.34.500,vts_reward_expectancy_bt,2022.2.4,MacIntel,142.8571429,Safari,1470,956,,,,,10,981,,,,,,,,,,,,,,,,,F,174,circle,1,1,,,,,,,,,,,,,,,,repeat,number,numRpt,k,0.475,Hi,,,,,,3,,,,,,,,low,10,0,10,0,1,,,,,,,,,
298000,2022-11-25_02h18.34.500,vts_reward_expectancy_bt,2022.2.4,MacIntel,142.8571429,Safari,1470,956,,,,,10,991,,,,,,,,,,,,,,,,,H,125,triangle,1,0,,,,,,,,,,,,,,,,repeat,number,numRpt,j,0.527,Lo,,,,,,3,,,,,,,,low,11,0,11,0,1,,,,,,,,,
298000,2022-11-25_02h18.34.500,vts_reward_expectancy_bt,2022.2.4,MacIntel,142.8571429,Safari,1470,956,,,,,1,992,,,,,,,,,,,,,,,,,W,132,triangle,1,0,,,,,,,,,,,,,,,,repeat,number,numRpt,j,0.395,Lo,,,,,,3,,,,,,,,low,12,0,12,0,1,,,,,,,,,
298000,2022-11-25_02h18.34.500,vts_reward_expectancy_bt,2022.2.4,MacIntel,142.8571429,Safari,1470,956,,,,,10,1002,,,,,,,,,,,,,,,,,D,146,star,1,0,,,,,,,,,,,,,,,,switch,letter,lettSwt,d,0.545,Hi,,,,,,3,,,,,,,,low,13,0,13,0,1,,,,,,,,,
298000,2022-11-25_02h18.34.500,vts_reward_expectancy_bt,2022.2.4,MacIntel,142.8571429,Safari,1470,956,,,,,0,1002,,,,,,,,,,,,,,,,,S,167,circle,1,0,,,,,,,,,,,,,,,,switch,number,numSwt,k,0.511,Hi,,,,,,3,,,,,,,,low,14,0,14,0,1,,,,,,,,,
298000,2022-11-25_02h18.34.500,vts_reward_expectancy_bt,2022.2.4,MacIntel,142.8571429,Safari,1470,956,,,,,1,1003,,,,,,,,,,,,,,,,,B,139,hexagon,1,0,,,,,,,,,,,,,,,,switch,letter,lettSwt,d,0.594,Lo,,,,,,3,,,,,,,,low,15,0,15,0,1,,,,,,,,,
298000,2022-11-25_02h18.34.500,vts_reward_expectancy_bt,2022.2.4,MacIntel,142.8571429,Safari,1470,956,,,,,0,1003,,,,,,,,,,,,,,,,,W,132,circle,1,0,,,,,,,,,,,,,,,,switch,number,numSwt,j,0.526,Hi,,,,,,3,,,,,,,,low,16,0,16,0,1,,,,,,,,,
298000,2022-11-25_02h18.34.500,vts_reward_expectancy_bt,2022.2.4,MacIntel,142.8571429,Safari,1470,956,,,,,1,1004,,,,,,,,,,,,,,,,,Y,146,triangle,1,0,,,,,,,,,,,,,,,,switch,letter,lettSwt,f,0.595,Lo,,,,,,3,,,,,,,,low,17,0,17,0,1,,,,,,,,,
298000,2022-11-25_02h18.34.500,vts_reward_expectancy_bt,2022.2.4,MacIntel,142.8571429,Safari,1470,956,,,,,0,1004,,,,,,,,,,,,,,,,,B,167,star,1,0,,,,,,,,,,,,,,,,repeat,letter,lettRpt,d,0.55,Hi,,,,,,3,,,,,,,,low,18,0,18,0,1,,,,,,,,,
298000,2022-11-25_02h18.34.500,vts_reward_expectancy_bt,2022.2.4,MacIntel,142.8571429,Safari,1470,956,,,,,1,1005,,,,,,,,,,,,,,,,,H,181,hexagon,1,0,,,,,,,,,,,,,,,,switch,number,numSwt,k,0.632,Lo,,,,,,3,,,,,,,,low,19,0,19,0,1,,,,,,,,,
298000,2022-11-25_02h18.34.500,vts_reward_expectancy_bt,2022.2.4,MacIntel,142.8571429,Safari,1470,956,,,,,10,1015,,,,,,,,,,,,,,,,,S,125,hexagon,1,0,,,,,,,,,,,,,,,,repeat,number,numRpt,j,1.044,Lo,,,,,,3,,,,,,,,low,20,0,20,0,1,,,,,,,,,
298000,2022-11-25_02h18.34.500,vts_reward_expectancy_bt,2022.2.4,MacIntel,142.8571429,Safari,1470,956,,,,,1,1016,,,,,,,,,,,,,,,,,F,139,triangle,1,0,,,,,,,,,,,,,,,,repeat,number,numRpt,j,0.63,Lo,,,,,,3,,,,,,,,low,21,0,21,0,1,,,,,,,,,
298000,2022-11-25_02h18.34.500,vts_reward_expectancy_bt,2022.2.4,MacIntel,142.8571429,Safari,1470,956,,,,,0,1016,,,,,,,,,,,,,,,,,U,174,star,1,0,,,,,,,,,,,,,,,,repeat,number,numRpt,k,1.093,Hi,,,,,,3,,,,,,,,low,22,0,22,0,1,,,,,,,,,
298000,2022-11-25_02h18.34.500,vts_reward_expectancy_bt,2022.2.4,MacIntel,142.8571429,Safari,1470,956,,,,,1,1017,,,,,,,,,,,,,,,,,D,160,circle,1,0,,,,,,,,,,,,,,,,repeat,number,numRpt,k,0.494,Hi,,,,,,3,,,,,,,,low,23,0,23,0,1,,,,,,,,,
298000,2022-11-25_02h18.34.500,vts_reward_expectancy_bt,2022.2.4,MacIntel,142.8571429,Safari,1470,956,,,,,1,1018,,,,,,,,,,,,,,,,,F,146,triangle,1,0,,,,,,,,,,,,,,,,switch,letter,lettSwt,d,0.415,Lo,,,,,,3,,,,,,,,low,24,0,24,0,1,,,,,,,,,
298000,2022-11-25_02h18.34.500,vts_reward_expectancy_bt,2022.2.4,MacIntel,142.8571429,Safari,1470,956,,,,,0,1018,,,,,,,,,,,,,,,,,D,181,circle,1,0,,,,,,,,,,,,,,,,switch,number,numSwt,k,0.457,Hi,,,,,,3,,,,,,,,low,25,0,25,0,1,,,,,,,,,
298000,2022-11-25_02h18.34.500,vts_reward_expectancy_bt,2022.2.4,MacIntel,142.8571429,Safari,1470,956,,,,,1,1019,,,,,,,,,,,,,,,,,U,139,star,1,0,,,,,,,,,,,,,,,,repeat,number,numRpt,j,0.512,Hi,,,,,,3,,,,,,,,low,26,0,26,0,1,,,,,,,,,
298000,2022-11-25_02h18.34.500,vts_reward_expectancy_bt,2022.2.4,MacIntel,142.8571429,Safari,1470,956,,,,,1,1020,,,,,,,,,,,,,,,,,H,174,hexagon,1,0,,,,,,,,,,,,,,,,repeat,number,numRpt,k,0.56,Lo,,,,,,3,,,,,,,,low,27,0,27,0,1,,,,,,,,,
298000,2022-11-25_02h18.34.500,vts_reward_expectancy_bt,2022.2.4,MacIntel,142.8571429,Safari,1470,956,,,,,1,1021,,,,,,,,,,,,,,,,,Y,160,hexagon,1,0,,,,,,,,,,,,,,,,switch,letter,lettSwt,f,0.593,Lo,,,,,,3,,,,,,,,low,28,0,28,0,1,,,,,,,,,
298000,2022-11-25_02h18.34.500,vts_reward_expectancy_bt,2022.2.4,MacIntel,142.8571429,Safari,1470,956,,,,,0,1021,,,,,,,,,,,,,,,,,S,167,circle,1,0,,,,,,,,,,,,,,,,switch,number,numSwt,k,0.843,Hi,,,,,,3,,,,,,,,low,29,0,29,0,1,,,,,,,,,
298000,2022-11-25_02h18.34.500,vts_reward_expectancy_bt,2022.2.4,MacIntel,142.8571429,Safari,1470,956,,,,,1,1022,,,,,,,,,,,,,,,,,B,125,triangle,1,0,,,,,,,,,,,,,,,,switch,letter,lettSwt,d,0.427,Lo,,,,,,3,,,,,,,,low,30,0,30,0,1,,,,,,,,,
298000,2022-11-25_02h18.34.500,vts_reward_expectancy_bt,2022.2.4,MacIntel,142.8571429,Safari,1470,956,,,,,0,1022,,,,,,,,,,,,,,,,,W,132,star,1,0,,,,,,,,,,,,,,,,switch,number,numSwt,j,1.062,Hi,,,,,,3,,,,,,,,low,31,0,31,0,1,,,,,,,,,
298000,2022-11-25_02h18.34.500,vts_reward_expectancy_bt,2022.2.4,MacIntel,142.8571429,Safari,1470,956,,,,,1,1023,,,,,,,,,,,,,,,,,H,160,star,1,0,,,,,,,,,,,,,,,,repeat,number,numRpt,k,0.526,Hi,,,,,,4,,,,,,space,4.175,low,0,0,0,0,1,,,,,,,,,
298000,2022-11-25_02h18.34.500,vts_reward_expectancy_bt,2022.2.4,MacIntel,142.8571429,Safari,1470,956,,,,,10,1033,,,,,,,,,,,,,,,,,W,139,hexagon,1,0,,,,,,,,,,,,,,,,repeat,number,numRpt,j,0.409,Lo,,,,,,4,,,,,,,,low,1,0,1,0,1,,,,,,,,,
298000,2022-11-25_02h18.34.500,vts_reward_expectancy_bt,2022.2.4,MacIntel,142.8571429,Safari,1470,956,,,,,10,1043,,,,,,,,,,,,,,,,,B,146,triangle,1,0,,,,,,,,,,,,,,,,switch,letter,lettSwt,d,0.511,Lo,,,,,,4,,,,,,,,low,2,0,2,0,1,,,,,,,,,
298000,2022-11-25_02h18.34.500,vts_reward_expectancy_bt,2022.2.4,MacIntel,142.8571429,Safari,1470,956,,,,,0,1043,,,,,,,,,,,,,,,,,D,167,circle,0,0,,,,,,,,,,,,,,,,switch,number,NA,j,0.666,Lo,,,,,,4,,,,,,,,low,3,0,3,0,1,,,,,,,,,
298000,2022-11-25_02h18.34.500,vts_reward_expectancy_bt,2022.2.4,MacIntel,142.8571429,Safari,1470,956,,,,,1,1044,,,,,,,,,,,,,,,,,F,125,star,1,1,,,,,,,,,,,,,,,,repeat,number,numRpt,j,0.51,Hi,,,,,,4,,,,,,,,low,4,0,4,0,1,,,,,,,,,
298000,2022-11-25_02h18.34.500,vts_reward_expectancy_bt,2022.2.4,MacIntel,142.8571429,Safari,1470,956,,,,,10,1054,,,,,,,,,,,,,,,,,Y,181,hexagon,1,0,,,,,,,,,,,,,,,,switch,letter,lettSwt,f,0.618,Lo,,,,,,4,,,,,,,,low,5,0,5,0,1,,,,,,,,,
298000,2022-11-25_02h18.34.500,vts_reward_expectancy_bt,2022.2.4,MacIntel,142.8571429,Safari,1470,956,,,,,1,1055,,,,,,,,,,,,,,,,,U,174,triangle,1,0,,,,,,,,,,,,,,,,switch,number,numSwt,k,0.544,Lo,,,,,,4,,,,,,,,low,6,0,6,0,1,,,,,,,,,
298000,2022-11-25_02h18.34.500,vts_reward_expectancy_bt,2022.2.4,MacIntel,142.8571429,Safari,1470,956,,,,,0,1055,,,,,,,,,,,,,,,,,S,132,circle,1,0,,,,,,,,,,,,,,,,switch,letter,lettSwt,f,0.732,Hi,,,,,,4,,,,,,,,low,7,0,7,0,1,,,,,,,,,
298000,2022-11-25_02h18.34.500,vts_reward_expectancy_bt,2022.2.4,MacIntel,142.8571429,Safari,1470,956,,,,,10,1065,,,,,,,,,,,,,,,,,H,160,triangle,1,0,,,,,,,,,,,,,,,,switch,number,numSwt,k,0.41,Lo,,,,,,4,,,,,,,,low,8,0,8,0,1,,,,,,,,,
298000,2022-11-25_02h18.34.500,vts_reward_expectancy_bt,2022.2.4,MacIntel,142.8571429,Safari,1470,956,,,,,10,1075,,,,,,,,,,,,,,,,,W,139,circle,1,0,,,,,,,,,,,,,,,,switch,letter,lettSwt,f,0.544,Hi,,,,,,4,,,,,,,,low,9,0,9,0,1,,,,,,,,,
298000,2022-11-25_02h18.34.500,vts_reward_expectancy_bt,2022.2.4,MacIntel,142.8571429,Safari,1470,956,,,,,10,1085,,,,,,,,,,,,,,,,,B,146,star,1,0,,,,,,,,,,,,,,,,repeat,letter,lettRpt,d,0.479,Hi,,,,,,4,,,,,,,,low,10,0,10,0,1,,,,,,,,,
298000,2022-11-25_02h18.34.500,vts_reward_expectancy_bt,2022.2.4,MacIntel,142.8571429,Safari,1470,956,,,,,1,1086,,,,,,,,,,,,,,,,,D,167,hexagon,1,0,,,,,,,,,,,,,,,,switch,number,numSwt,k,0.527,Lo,,,,,,4,,,,,,,,low,11,0,11,0,1,,,,,,,,,
298000,2022-11-25_02h18.34.500,vts_reward_expectancy_bt,2022.2.4,MacIntel,142.8571429,Safari,1470,956,,,,,0,1086,,,,,,,,,,,,,,,,,F,125,circle,0,0,,,,,,,,,,,,,,,,switch,letter,NA,f,0.61,Lo,,,,,,4,,,,,,,,low,12,0,12,0,1,,,,,,,,,
298000,2022-11-25_02h18.34.500,vts_reward_expectancy_bt,2022.2.4,MacIntel,142.8571429,Safari,1470,956,,,,,10,1096,,,,,,,,,,,,,,,,,Y,181,hexagon,1,1,,,,,,,,,,,,,,,,switch,number,numSwt,k,0.513,Lo,,,,,,4,,,,,,,,low,13,0,13,0,1,,,,,,,,,
298000,2022-11-25_02h18.34.500,vts_reward_expectancy_bt,2022.2.4,MacIntel,142.8571429,Safari,1470,956,,,,,0,1096,,,,,,,,,,,,,,,,,U,174,star,1,0,,,,,,,,,,,,,,,,switch,letter,lettSwt,f,0.627,Hi,,,,,,4,,,,,,,,low,14,0,14,0,1,,,,,,,,,
298000,2022-11-25_02h18.34.500,vts_reward_expectancy_bt,2022.2.4,MacIntel,142.8571429,Safari,1470,956,,,,,1,1097,,,,,,,,,,,,,,,,,S,132,triangle,1,0,,,,,,,,,,,,,,,,repeat,letter,lettRpt,f,0.627,Lo,,,,,,4,,,,,,,,low,15,0,15,0,1,,,,,,,,,
298000,2022-11-25_02h18.34.500,vts_reward_expectancy_bt,2022.2.4,MacIntel,142.8571429,Safari,1470,956,,,,,10,1107,,,,,,,,,,,,,,,,,F,167,star,1,0,,,,,,,,,,,,,,,,repeat,letter,lettRpt,d,0.445,Hi,,,,,,4,,,,,,,,low,16,0,16,0,1,,,,,,,,,
298000,2022-11-25_02h18.34.500,vts_reward_expectancy_bt,2022.2.4,MacIntel,142.8571429,Safari,1470,956,,,,,1,1108,,,,,,,,,,,,,,,,,U,125,hexagon,1,0,,,,,,,,,,,,,,,,switch,number,numSwt,j,0.484,Lo,,,,,,4,,,,,,,,low,17,0,17,0,1,,,,,,,,,
298000,2022-11-25_02h18.34.500,vts_reward_expectancy_bt,2022.2.4,MacIntel,142.8571429,Safari,1470,956,,,,,1,1109,,,,,,,,,,,,,,,,,D,181,triangle,1,0,,,,,,,,,,,,,,,,switch,letter,lettSwt,d,0.843,Lo,,,,,,4,,,,,,,,low,18,0,18,0,1,,,,,,,,,
298000,2022-11-25_02h18.34.500,vts_reward_expectancy_bt,2022.2.4,MacIntel,142.8571429,Safari,1470,956,,,,,1,1110,,,,,,,,,,,,,,,,,Y,139,circle,1,0,,,,,,,,,,,,,,,,switch,number,numSwt,j,0.484,Hi,,,,,,4,,,,,,,,low,19,0,19,0,1,,,,,,,,,
298000,2022-11-25_02h18.34.500,vts_reward_expectancy_bt,2022.2.4,MacIntel,142.8571429,Safari,1470,956,,,,,10,1120,,,,,,,,,,,,,,,,,S,160,circle,1,0,,,,,,,,,,,,,,,,switch,letter,lettSwt,f,0.543,Hi,,,,,,4,,,,,,,,low,20,0,20,0,1,,,,,,,,,
298000,2022-11-25_02h18.34.500,vts_reward_expectancy_bt,2022.2.4,MacIntel,142.8571429,Safari,1470,956,,,,,1,1121,,,,,,,,,,,,,,,,,B,146,triangle,1,0,,,,,,,,,,,,,,,,switch,number,numSwt,j,0.561,Lo,,,,,,4,,,,,,,,low,21,0,21,0,1,,,,,,,,,
298000,2022-11-25_02h18.34.500,vts_reward_expectancy_bt,2022.2.4,MacIntel,142.8571429,Safari,1470,956,,,,,1,1122,,,,,,,,,,,,,,,,,H,132,star,1,0,,,,,,,,,,,,,,,,switch,letter,lettSwt,d,0.446,Hi,,,,,,4,,,,,,,,low,22,0,22,0,1,,,,,,,,,
298000,2022-11-25_02h18.34.500,vts_reward_expectancy_bt,2022.2.4,MacIntel,142.8571429,Safari,1470,956,,,,,10,1132,,,,,,,,,,,,,,,,,W,174,hexagon,1,0,,,,,,,,,,,,,,,,repeat,letter,lettRpt,f,0.464,Lo,,,,,,4,,,,,,,,low,23,0,23,0,1,,,,,,,,,
298000,2022-11-25_02h18.34.500,vts_reward_expectancy_bt,2022.2.4,MacIntel,142.8571429,Safari,1470,956,,,,,1,1133,,,,,,,,,,,,,,,,,W,174,hexagon,1,0,,,,,,,,,,,,,,,,repeat,letter,lettRpt,f,0.548,Lo,,,,,,4,,,,,,,,low,24,0,24,0,1,,,,,,,,,
298000,2022-11-25_02h18.34.500,vts_reward_expectancy_bt,2022.2.4,MacIntel,142.8571429,Safari,1470,956,,,,,1,1134,,,,,,,,,,,,,,,,,S,160,triangle,1,0,,,,,,,,,,,,,,,,repeat,letter,lettRpt,f,0.561,Lo,,,,,,4,,,,,,,,low,25,0,25,0,1,,,,,,,,,
298000,2022-11-25_02h18.34.500,vts_reward_expectancy_bt,2022.2.4,MacIntel,142.8571429,Safari,1470,956,,,,,0,1134,,,,,,,,,,,,,,,,,Y,167,star,1,0,,,,,,,,,,,,,,,,repeat,letter,lettRpt,f,0.644,Hi,,,,,,4,,,,,,,,low,26,0,26,0,1,,,,,,,,,
298000,2022-11-25_02h18.34.500,vts_reward_expectancy_bt,2022.2.4,MacIntel,142.8571429,Safari,1470,956,,,,,1,1135,,,,,,,,,,,,,,,,,D,146,circle,1,0,,,,,,,,,,,,,,,,repeat,letter,lettRpt,d,0.56,Hi,,,,,,4,,,,,,,,low,27,0,27,0,1,,,,,,,,,
298000,2022-11-25_02h18.34.500,vts_reward_expectancy_bt,2022.2.4,MacIntel,142.8571429,Safari,1470,956,,,,,10,1145,,,,,,,,,,,,,,,,,H,132,hexagon,1,0,,,,,,,,,,,,,,,,switch,number,numSwt,j,0.563,Lo,,,,,,4,,,,,,,,low,28,0,28,0,1,,,,,,,,,
298000,2022-11-25_02h18.34.500,vts_reward_expectancy_bt,2022.2.4,MacIntel,142.8571429,Safari,1470,956,,,,,0,1145,,,,,,,,,,,,,,,,,B,139,circle,1,0,,,,,,,,,,,,,,,,repeat,number,numRpt,j,0.727,Hi,,,,,,4,,,,,,,,low,29,0,29,0,1,,,,,,,,,
298000,2022-11-25_02h18.34.500,vts_reward_expectancy_bt,2022.2.4,MacIntel,142.8571429,Safari,1470,956,,,,,0,1145,,,,,,,,,,,,,,,,,U,181,star,0,0,,,,,,,,,,,,,,,,switch,letter,NA,d,0.66,Hi,,,,,,4,,,,,,,,low,30,0,30,0,1,,,,,,,,,
298000,2022-11-25_02h18.34.500,vts_reward_expectancy_bt,2022.2.4,MacIntel,142.8571429,Safari,1470,956,,,,,1,1146,,,,,,,,,,,,,,,,,F,125,triangle,1,1,,,,,,,,,,,,,,,,repeat,letter,lettRpt,d,0.681,Lo,,,,,,4,,,,,,,,low,31,0,31,0,1,,,,,,,,,
298000,2022-11-25_02h18.34.500,vts_reward_expectancy_bt,2022.2.4,MacIntel,142.8571429,Safari,1470,956,,,,,0,1146,,,,,,,,,,,,,,,,,U,160,star,1,0,,,,,,,,,,,,,,,,repeat,letter,lettRpt,f,0.527,Hi,,,,,,5,,,,,,space,1.147,low,0,0,0,0,1,,,,,,,,,
298000,2022-11-25_02h18.34.500,vts_reward_expectancy_bt,2022.2.4,MacIntel,142.8571429,Safari,1470,956,,,,,1,1147,,,,,,,,,,,,,,,,,B,181,circle,1,0,,,,,,,,,,,,,,,,switch,number,numSwt,k,0.448,Hi,,,,,,5,,,,,,,,low,1,0,1,0,1,,,,,,,,,
298000,2022-11-25_02h18.34.500,vts_reward_expectancy_bt,2022.2.4,MacIntel,142.8571429,Safari,1470,956,,,,,10,1157,,,,,,,,,,,,,,,,,F,146,triangle,1,0,,,,,,,,,,,,,,,,repeat,number,numRpt,j,0.575,Lo,,,,,,5,,,,,,,,low,2,0,2,0,1,,,,,,,,,
298000,2022-11-25_02h18.34.500,vts_reward_expectancy_bt,2022.2.4,MacIntel,142.8571429,Safari,1470,956,,,,,0,1157,,,,,,,,,,,,,,,,,S,174,hexagon,0,0,,,,,,,,,,,,,,,,switch,letter,NA,d,0.394,Lo,,,,,,5,,,,,,,,low,3,0,3,0,1,,,,,,,,,
298000,2022-11-25_02h18.34.500,vts_reward_expectancy_bt,2022.2.4,MacIntel,142.8571429,Safari,1470,956,,,,,10,1167,,,,,,,,,,,,,,,,,W,167,star,1,1,,,,,,,,,,,,,,,,repeat,letter,lettRpt,f,0.447,Hi,,,,,,5,,,,,,,,low,4,0,4,0,1,,,,,,,,,
298000,2022-11-25_02h18.34.500,vts_reward_expectancy_bt,2022.2.4,MacIntel,142.8571429,Safari,1470,956,,,,,0,1167,,,,,,,,,,,,,,,,,D,139,circle,1,0,,,,,,,,,,,,,,,,switch,number,numSwt,j,0.55,Hi,,,,,,5,,,,,,,,low,5,0,5,0,1,,,,,,,,,
298000,2022-11-25_02h18.34.500,vts_reward_expectancy_bt,2022.2.4,MacIntel,142.8571429,Safari,1470,956,,,,,1,1168,,,,,,,,,,,,,,,,,Y,132,triangle,1,0,,,,,,,,,,,,,,,,repeat,number,numRpt,j,0.427,Lo,,,,,,5,,,,,,,,low,6,0,6,0,1,,,,,,,,,
298000,2022-11-25_02h18.34.500,vts_reward_expectancy_bt,2022.2.4,MacIntel,142.8571429,Safari,1470,956,,,,,1,1169,,,,,,,,,,,,,,,,,H,125,hexagon,1,0,,,,,,,,,,,,,,,,switch,letter,lettSwt,d,0.478,Lo,,,,,,5,,,,,,,,low,7,0,7,0,1,,,,,,,,,
298000,2022-11-25_02h18.34.500,vts_reward_expectancy_bt,2022.2.4,MacIntel,142.8571429,Safari,1470,956,,,,,1,1170,,,,,,,,,,,,,,,,,U,160,hexagon,1,0,,,,,,,,,,,,,,,,switch,number,numSwt,k,0.567,Lo,,,,,,5,,,,,,,,low,8,0,8,0,1,,,,,,,,,
298000,2022-11-25_02h18.34.500,vts_reward_expectancy_bt,2022.2.4,MacIntel,142.8571429,Safari,1470,956,,,,,10,1180,,,,,,,,,,,,,,,,,B,181,triangle,1,0,,,,,,,,,,,,,,,,switch,letter,lettSwt,d,0.594,Lo,,,,,,5,,,,,,,,low,9,0,9,0,1,,,,,,,,,
298000,2022-11-25_02h18.34.500,vts_reward_expectancy_bt,2022.2.4,MacIntel,142.8571429,Safari,1470,956,,,,,0,1180,,,,,,,,,,,,,,,,,F,146,circle,1,0,,,,,,,,,,,,,,,,switch,number,numSwt,j,0.544,Hi,,,,,,5,,,,,,,,low,10,0,10,0,1,,,,,,,,,
298000,2022-11-25_02h18.34.500,vts_reward_expectancy_bt,2022.2.4,MacIntel,142.8571429,Safari,1470,956,,,,,0,1180,,,,,,,,,,,,,,,,,S,174,star,1,0,,,,,,,,,,,,,,,,switch,letter,lettSwt,f,0.778,Hi,,,,,,5,,,,,,,,low,11,0,11,0,1,,,,,,,,,
298000,2022-11-25_02h18.34.500,vts_reward_expectancy_bt,2022.2.4,MacIntel,142.8571429,Safari,1470,956,,,,,1,1181,,,,,,,,,,,,,,,,,W,167,star,1,0,,,,,,,,,,,,,,,,repeat,letter,lettRpt,f,0.427,Hi,,,,,,5,,,,,,,,low,12,0,12,0,1,,,,,,,,,
298000,2022-11-25_02h18.34.500,vts_reward_expectancy_bt,2022.2.4,MacIntel,142.8571429,Safari,1470,956,,,,,1,1182,,,,,,,,,,,,,,,,,D,139,hexagon,1,0,,,,,,,,,,,,,,,,switch,number,numSwt,j,0.478,Lo,,,,,,5,,,,,,,,low,13,0,13,0,1,,,,,,,,,
298000,2022-11-25_02h18.34.500,vts_reward_expectancy_bt,2022.2.4,MacIntel,142.8571429,Safari,1470,956,,,,,1,1183,,,,,,,,,,,,,,,,,Y,132,triangle,1,0,,,,,,,,,,,,,,,,repeat,number,numRpt,j,0.592,Lo,,,,,,5,,,,,,,,low,14,0,14,0,1,,,,,,,,,
298000,2022-11-25_02h18.34.500,vts_reward_expectancy_bt,2022.2.4,MacIntel,142.8571429,Safari,1470,956,,,,,0,1183,,,,,,,,,,,,,,,,,H,125,circle,1,0,,,,,,,,,,,,,,,,repeat,number,numRpt,j,0.526,Hi,,,,,,5,,,,,,,,low,15,0,15,0,1,,,,,,,,,
298000,2022-11-25_02h18.34.500,vts_reward_expectancy_bt,2022.2.4,MacIntel,142.8571429,Safari,1470,956,,,,,10,1193,,,,,,,,,,,,,,,,,Y,160,star,1,0,,,,,,,,,,,,,,,,switch,letter,lettSwt,f,0.531,Hi,,,,,,5,,,,,,,,low,16,0,16,0,1,,,,,,,,,
298000,2022-11-25_02h18.34.500,vts_reward_expectancy_bt,2022.2.4,MacIntel,142.8571429,Safari,1470,956,,,,,10,1203,,,,,,,,,,,,,,,,,S,174,triangle,1,0,,,,,,,,,,,,,,,,switch,number,numSwt,k,0.416,Lo,,,,,,5,,,,,,,,low,17,0,17,0,1,,,,,,,,,
298000,2022-11-25_02h18.34.500,vts_reward_expectancy_bt,2022.2.4,MacIntel,142.8571429,Safari,1470,956,,,,,0,1203,,,,,,,,,,,,,,,,,H,125,circle,1,0,,,,,,,,,,,,,,,,repeat,number,numRpt,j,0.528,Hi,,,,,,5,,,,,,,,low,18,0,18,0,1,,,,,,,,,
298000,2022-11-25_02h18.34.500,vts_reward_expectancy_bt,2022.2.4,MacIntel,142.8571429,Safari,1470,956,,,,,1,1204,,,,,,,,,,,,,,,,,B,139,hexagon,1,0,,,,,,,,,,,,,,,,switch,letter,lettSwt,d,0.546,Lo,,,,,,5,,,,,,,,low,19,0,19,0,1,,,,,,,,,
298000,2022-11-25_02h18.34.500,vts_reward_expectancy_bt,2022.2.4,MacIntel,142.8571429,Safari,1470,956,,,,,1,1205,,,,,,,,,,,,,,,,,U,146,triangle,1,0,,,,,,,,,,,,,,,,repeat,letter,lettRpt,f,0.595,Lo,,,,,,5,,,,,,,,low,20,0,20,0,1,,,,,,,,,
298000,2022-11-25_02h18.34.500,vts_reward_expectancy_bt,2022.2.4,MacIntel,142.8571429,Safari,1470,956,,,,,10,1215,,,,,,,,,,,,,,,,,F,132,star,1,0,,,,,,,,,,,,,,,,switch,number,numSwt,j,0.476,Hi,,,,,,5,,,,,,,,low,21,0,21,0,1,,,,,,,,,
298000,2022-11-25_02h18.34.500,vts_reward_expectancy_bt,2022.2.4,MacIntel,142.8571429,Safari,1470,956,,,,,10,1225,,,,,,,,,,,,,,,,,D,167,circle,1,0,,,,,,,,,,,,,,,,repeat,number,numRpt,k,0.459,Hi,,,,,,5,,,,,,,,low,22,0,22,0,1,,,,,,,,,
298000,2022-11-25_02h18.34.500,vts_reward_expectancy_bt,2022.2.4,MacIntel,142.8571429,Safari,1470,956,,,,,10,1235,,,,,,,,,,,,,,,,,W,181,hexagon,1,0,,,,,,,,,,,,,,,,switch,letter,lettSwt,f,0.685,Lo,,,,,,5,,,,,,,,low,23,0,23,0,1,,,,,,,,,
298000,2022-11-25_02h18.34.500,vts_reward_expectancy_bt,2022.2.4,MacIntel,142.8571429,Safari,1470,956,,,,,10,1245,,,,,,,,,,,,,,,,,W,174,triangle,1,0,,,,,,,,,,,,,,,,switch,number,numSwt,k,0.736,Lo,,,,,,5,,,,,,,,low,24,0,24,0,1,,,,,,,,,
298000,2022-11-25_02h18.34.500,vts_reward_expectancy_bt,2022.2.4,MacIntel,142.8571429,Safari,1470,956,,,,,0,1245,,,,,,,,,,,,,,,,,D,139,star,1,0,,,,,,,,,,,,,,,,switch,letter,lettSwt,d,0.545,Hi,,,,,,5,,,,,,,,low,25,0,25,0,1,,,,,,,,,
298000,2022-11-25_02h18.34.500,vts_reward_expectancy_bt,2022.2.4,MacIntel,142.8571429,Safari,1470,956,,,,,1,1246,,,,,,,,,,,,,,,,,U,167,hexagon,1,0,,,,,,,,,,,,,,,,repeat,letter,lettRpt,f,0.528,Lo,,,,,,5,,,,,,,,low,26,0,26,0,1,,,,,,,,,
298000,2022-11-25_02h18.34.500,vts_reward_expectancy_bt,2022.2.4,MacIntel,142.8571429,Safari,1470,956,,,,,0,1246,,,,,,,,,,,,,,,,,F,146,circle,1,0,,,,,,,,,,,,,,,,switch,number,numSwt,j,0.725,Hi,,,,,,5,,,,,,,,low,27,0,27,0,1,,,,,,,,,
298000,2022-11-25_02h18.34.500,vts_reward_expectancy_bt,2022.2.4,MacIntel,142.8571429,Safari,1470,956,,,,,1,1247,,,,,,,,,,,,,,,,,Y,160,star,1,0,,,,,,,,,,,,,,,,repeat,number,numRpt,k,0.417,Hi,,,,,,5,,,,,,,,low,28,0,28,0,1,,,,,,,,,
298000,2022-11-25_02h18.34.500,vts_reward_expectancy_bt,2022.2.4,MacIntel,142.8571429,Safari,1470,956,,,,,1,1248,,,,,,,,,,,,,,,,,H,132,triangle,1,0,,,,,,,,,,,,,,,,repeat,number,numRpt,j,0.394,Lo,,,,,,5,,,,,,,,low,29,0,29,0,1,,,,,,,,,
298000,2022-11-25_02h18.34.500,vts_reward_expectancy_bt,2022.2.4,MacIntel,142.8571429,Safari,1470,956,,,,,1,1249,,,,,,,,,,,,,,,,,S,181,hexagon,1,0,,,,,,,,,,,,,,,,switch,letter,lettSwt,f,0.579,Lo,,,,,,5,,,,,,,,low,30,0,30,0,1,,,,,,,,,
298000,2022-11-25_02h18.34.500,vts_reward_expectancy_bt,2022.2.4,MacIntel,142.8571429,Safari,1470,956,,,,,10,1259,,,,,,,,,,,,,,,,,B,125,circle,1,0,,,,,,,,,,,,,,,,switch,number,numSwt,j,0.434,Hi,,,,,,5,,,,,,,,low,31,0,31,0,1,,,,,,,,,
298000,2022-11-25_02h18.34.500,vts_reward_expectancy_bt,2022.2.4,MacIntel,142.8571429,Safari,1470,956,,,,,0,1259,,,,,,,,,,,,,,,,,B,139,circle,1,0,,,,,,,,,,,,,,,,repeat,number,numRpt,j,0.565,Hi,,,,,,6,,,,,,space,1.13,low,0,0,0,0,1,,,,,,,,,
298000,2022-11-25_02h18.34.500,vts_reward_expectancy_bt,2022.2.4,MacIntel,142.8571429,Safari,1470,956,,,,,1,1260,,,,,,,,,,,,,,,,,U,160,star,1,0,,,,,,,,,,,,,,,,switch,letter,lettSwt,f,0.508,Hi,,,,,,6,,,,,,,,low,1,0,1,0,1,,,,,,,,,
298000,2022-11-25_02h18.34.500,vts_reward_expectancy_bt,2022.2.4,MacIntel,142.8571429,Safari,1470,956,,,,,10,1270,,,,,,,,,,,,,,,,,W,146,triangle,1,0,,,,,,,,,,,,,,,,switch,number,numSwt,j,0.565,Lo,,,,,,6,,,,,,,,low,2,0,2,0,1,,,,,,,,,
298000,2022-11-25_02h18.34.500,vts_reward_expectancy_bt,2022.2.4,MacIntel,142.8571429,Safari,1470,956,,,,,10,1280,,,,,,,,,,,,,,,,,F,181,hexagon,1,0,,,,,,,,,,,,,,,,repeat,number,numRpt,k,0.581,Lo,,,,,,6,,,,,,,,low,3,0,3,0,1,,,,,,,,,
298000,2022-11-25_02h18.34.500,vts_reward_expectancy_bt,2022.2.4,MacIntel,142.8571429,Safari,1470,956,,,,,0,1280,,,,,,,,,,,,,,,,,Y,167,circle,0,0,,,,,,,,,,,,,,,,repeat,number,NA,j,0.782,Lo,,,,,,6,,,,,,,,low,4,0,4,0,1,,,,,,,,,
298000,2022-11-25_02h18.34.500,vts_reward_expectancy_bt,2022.2.4,MacIntel,142.8571429,Safari,1470,956,,,,,0,1280,,,,,,,,,,,,,,,,,H,132,star,1,1,,,,,,,,,,,,,,,,switch,letter,lettSwt,d,0.828,Hi,,,,,,6,,,,,,,,low,5,0,5,0,1,,,,,,,,,
298000,2022-11-25_02h18.34.500,vts_reward_expectancy_bt,2022.2.4,MacIntel,142.8571429,Safari,1470,956,,,,,1,1281,,,,,,,,,,,,,,,,,S,174,triangle,1,0,,,,,,,,,,,,,,,,repeat,letter,lettRpt,f,0.526,Lo,,,,,,6,,,,,,,,low,6,0,6,0,1,,,,,,,,,
298000,2022-11-25_02h18.34.500,vts_reward_expectancy_bt,2022.2.4,MacIntel,142.8571429,Safari,1470,956,,,,,1,1282,,,,,,,,,,,,,,,,,D,125,hexagon,1,0,,,,,,,,,,,,,,,,switch,number,numSwt,j,0.41,Lo,,,,,,6,,,,,,,,low,7,0,7,0,1,,,,,,,,,
298000,2022-11-25_02h18.34.500,vts_reward_expectancy_bt,2022.2.4,MacIntel,142.8571429,Safari,1470,956,,,,,10,1292,,,,,,,,,,,,,,,,,B,139,star,1,0,,,,,,,,,,,,,,,,switch,letter,lettSwt,d,0.428,Hi,,,,,,6,,,,,,,,low,8,0,8,0,1,,,,,,,,,
298000,2022-11-25_02h18.34.500,vts_reward_expectancy_bt,2022.2.4,MacIntel,142.8571429,Safari,1470,956,,,,,1,1293,,,,,,,,,,,,,,,,,U,160,hexagon,1,0,,,,,,,,,,,,,,,,repeat,letter,lettRpt,f,0.526,Lo,,,,,,6,,,,,,,,low,9,0,9,0,1,,,,,,,,,
298000,2022-11-25_02h18.34.500,vts_reward_expectancy_bt,2022.2.4,MacIntel,142.8571429,Safari,1470,956,,,,,0,1293,,,,,,,,,,,,,,,,,W,146,circle,1,0,,,,,,,,,,,,,,,,switch,number,numSwt,j,0.66,Hi,,,,,,6,,,,,,,,low,10,0,10,0,1,,,,,,,,,
298000,2022-11-25_02h18.34.500,vts_reward_expectancy_bt,2022.2.4,MacIntel,142.8571429,Safari,1470,956,,,,,0,1293,,,,,,,,,,,,,,,,,F,181,triangle,0,0,,,,,,,,,,,,,,,,switch,letter,NA,f,0.526,Hi,,,,,,6,,,,,,,,low,11,0,11,0,1,,,,,,,,,
298000,2022-11-25_02h18.34.500,vts_reward_expectancy_bt,2022.2.4,MacIntel,142.8571429,Safari,1470,956,,,,,0,1293,,,,,,,,,,,,,,,,,Y,167,star,1,1,,,,,,,,,,,,,,,,switch,number,numSwt,k,0.512,Hi,,,,,,6,,,,,,,,low,12,0,12,0,1,,,,,,,,,
