participant,date,expName,psychopyVersion,OS,frameRate,browser,xResolution,yResolution,key_resp.keys,key_resp.rt,training_resp.keys,training_resp.rt,points_trial,points_cumul,trainBlock,training.thisRepN,training.thisTrialN,training.thisN,training.thisIndex,training.ran,LTriangleOpac,LCircleOpac,LHexagonOpac,LStarOpac,RTriangleOpac,RCircleOpac,RHexagonOpac,RStarOpac,LShape_ID,RShape_ID,curr_topStim,curr_bottStim,curr_shape,acc,E1,target_resp_prac1.keys,target_resp_prac1.rt,pracBlock,task1_prac_trials.thisRepN,task1_prac_trials.thisTrialN,task1_prac_trials.thisN,task1_prac_trials.thisIndex,task1_prac_trials.ran,target_resp_prac2.keys,target_resp_prac2.rt,task2_praac_trials.thisRepN,task2_praac_trials.thisTrialN,task2_praac_trials.thisN,task2_praac_trials.thisIndex,task2_praac_trials.ran,alt,task,condition,target_resp.keys,rewCond,vts_practice_trials.thisRepN,vts_practice_trials.thisTrialN,vts_practice_trials.thisN,vts_practice_trials.thisIndex,vts_practice_trials.ran,target_resp.rt,blockNum,trials_norew.thisRepN,trials_norew.thisTrialN,trials_norew.thisN,trials_norew.thisIndex,trials_norew.ran,key_resp_2.keys,key_resp_2.rt,rewExpectancy,trials_rew.thisRepN,trials_rew.thisTrialN,trials_rew.thisN,trials_rew.thisIndex,trials_rew.ran,Q1,Q2,Q2_text,Q3,Q4,Q5_text,Q5,xRes,yRes
298069,2022-12-04_17h21.35.054,vts_reward_expectancy_bt,2022.2.4,Win32,120.3659124,Chrome,1920,1080,,,,,,,,,,,,,,,,,,,,,,,,,,,,,,,,,,,,,,,,,,,,,,,,,,,,,,,,,,,,,,,,,,,,,,,,,,,,
298069,2022-12-04_17h21.35.054,vts_reward_expectancy_bt,2022.2.4,Win32,120.3659124,Chrome,1920,1080,space,32.4128,,,,,,,,,,,,,,,,,,,,,,,,,,,,,,,,,,,,,,,,,,,,,,,,,,,,,,,,,,,,,,,,,,,,,,,,,,
298069,2022-12-04_17h21.35.054,vts_reward_expectancy_bt,2022.2.4,Win32,120.3659124,Chrome,1920,1080,,,,,,,,,,,,,,,,,,,,,,,,,,,,,,,,,,,,,,,,,,,,,,,,,,,,,,,,,,,,,,,,,,,,,,,,,,,,
298069,2022-12-04_17h21.35.054,vts_reward_expectancy_bt,2022.2.4,Win32,120.3659124,Chrome,1920,1080,,,l,3.4816,10,10,0,0,0,0,5,1,0,1,0,0,0,0,0,1,circle,star,,,,,,,,,,,,,,,,,,,,,,,,,,,,,,,,,,,,,,,,,,,,,,,,,,,,,,
298069,2022-12-04_17h21.35.054,vts_reward_expectancy_bt,2022.2.4,Win32,120.3659124,Chrome,1920,1080,,,l,1.4573,1,11,0,0,1,1,4,1,0,1,0,0,0,0,1,0,circle,hexagon,,,,,,,,,,,,,,,,,,,,,,,,,,,,,,,,,,,,,,,,,,,,,,,,,,,,,,
298069,2022-12-04_17h21.35.054,vts_reward_expectancy_bt,2022.2.4,Win32,120.3659124,Chrome,1920,1080,,,l,1.5454,1,12,0,0,2,2,6,1,0,0,1,0,1,0,0,0,hexagon,triangle,,,,,,,,,,,,,,,,,,,,,,,,,,,,,,,,,,,,,,,,,,,,,,,,,,,,,,
298069,2022-12-04_17h21.35.054,vts_reward_expectancy_bt,2022.2.4,Win32,120.3659124,Chrome,1920,1080,,,l,0.8624,10,22,0,0,3,3,2,1,1,0,0,0,0,0,0,1,triangle,star,,,,,,,,,,,,,,,,,,,,,,,,,,,,,,,,,,,,,,,,,,,,,,,,,,,,,,
298069,2022-12-04_17h21.35.054,vts_reward_expectancy_bt,2022.2.4,Win32,120.3659124,Chrome,1920,1080,,,a,1.5001,10,32,0,0,4,4,9,1,0,0,0,1,1,0,0,0,star,triangle,,,,,,,,,,,,,,,,,,,,,,,,,,,,,,,,,,,,,,,,,,,,,,,,,,,,,,
298069,2022-12-04_17h21.35.054,vts_reward_expectancy_bt,2022.2.4,Win32,120.3659124,Chrome,1920,1080,,,a,0.7111,10,42,0,0,5,5,10,1,0,0,0,1,0,1,0,0,star ,circle,,,,,,,,,,,,,,,,,,,,,,,,,,,,,,,,,,,,,,,,,,,,,,,,,,,,,,
298069,2022-12-04_17h21.35.054,vts_reward_expectancy_bt,2022.2.4,Win32,120.3659124,Chrome,1920,1080,,,l,4.0204,10,52,0,0,6,6,3,1,0,1,0,0,1,0,0,0,circle,triangle,,,,,,,,,,,,,,,,,,,,,,,,,,,,,,,,,,,,,,,,,,,,,,,,,,,,,,
298069,2022-12-04_17h21.35.054,vts_reward_expectancy_bt,2022.2.4,Win32,120.3659124,Chrome,1920,1080,,,l,0.8687,10,62,0,0,7,7,8,1,0,0,1,0,0,0,0,1,hexagon,star,,,,,,,,,,,,,,,,,,,,,,,,,,,,,,,,,,,,,,,,,,,,,,,,,,,,,,
298069,2022-12-04_17h21.35.054,vts_reward_expectancy_bt,2022.2.4,Win32,120.3659124,Chrome,1920,1080,,,l,1.8129,10,72,0,0,8,8,0,1,1,0,0,0,0,1,0,0,triangle,circle,,,,,,,,,,,,,,,,,,,,,,,,,,,,,,,,,,,,,,,,,,,,,,,,,,,,,,
298069,2022-12-04_17h21.35.054,vts_reward_expectancy_bt,2022.2.4,Win32,120.3659124,Chrome,1920,1080,,,a,0.5435,10,82,0,0,9,9,11,1,0,0,0,1,0,0,1,0,star,hexagon,,,,,,,,,,,,,,,,,,,,,,,,,,,,,,,,,,,,,,,,,,,,,,,,,,,,,,
298069,2022-12-04_17h21.35.054,vts_reward_expectancy_bt,2022.2.4,Win32,120.3659124,Chrome,1920,1080,,,l,0.5542,10,92,0,0,10,10,7,1,0,0,1,0,0,1,0,0,hexagon,circle,,,,,,,,,,,,,,,,,,,,,,,,,,,,,,,,,,,,,,,,,,,,,,,,,,,,,,
298069,2022-12-04_17h21.35.054,vts_reward_expectancy_bt,2022.2.4,Win32,120.3659124,Chrome,1920,1080,,,a,1.0118,10,102,0,0,11,11,1,1,1,0,0,0,0,0,1,0,triangle,hexagon,,,,,,,,,,,,,,,,,,,,,,,,,,,,,,,,,,,,,,,,,,,,,,,,,,,,,,
298069,2022-12-04_17h21.35.054,vts_reward_expectancy_bt,2022.2.4,Win32,120.3659124,Chrome,1920,1080,,,l,0.5551,10,112,0,1,0,12,5,1,0,1,0,0,0,0,0,1,circle,star,,,,,,,,,,,,,,,,,,,,,,,,,,,,,,,,,,,,,,,,,,,,,,,,,,,,,,
298069,2022-12-04_17h21.35.054,vts_reward_expectancy_bt,2022.2.4,Win32,120.3659124,Chrome,1920,1080,,,a,1.0251,10,122,0,1,1,13,4,1,0,1,0,0,0,0,1,0,circle,hexagon,,,,,,,,,,,,,,,,,,,,,,,,,,,,,,,,,,,,,,,,,,,,,,,,,,,,,,
298069,2022-12-04_17h21.35.054,vts_reward_expectancy_bt,2022.2.4,Win32,120.3659124,Chrome,1920,1080,,,l,1.109,10,132,0,1,2,14,0,1,1,0,0,0,0,1,0,0,triangle,circle,,,,,,,,,,,,,,,,,,,,,,,,,,,,,,,,,,,,,,,,,,,,,,,,,,,,,,
298069,2022-12-04_17h21.35.054,vts_reward_expectancy_bt,2022.2.4,Win32,120.3659124,Chrome,1920,1080,,,a,2.0912,10,142,0,1,3,15,10,1,0,0,0,1,0,1,0,0,star ,circle,,,,,,,,,,,,,,,,,,,,,,,,,,,,,,,,,,,,,,,,,,,,,,,,,,,,,,
298069,2022-12-04_17h21.35.054,vts_reward_expectancy_bt,2022.2.4,Win32,120.3659124,Chrome,1920,1080,,,a,0.6675,10,152,0,1,4,16,11,1,0,0,0,1,0,0,1,0,star,hexagon,,,,,,,,,,,,,,,,,,,,,,,,,,,,,,,,,,,,,,,,,,,,,,,,,,,,,,
298069,2022-12-04_17h21.35.054,vts_reward_expectancy_bt,2022.2.4,Win32,120.3659124,Chrome,1920,1080,,,a,0.4683,10,162,0,1,5,17,9,1,0,0,0,1,1,0,0,0,star,triangle,,,,,,,,,,,,,,,,,,,,,,,,,,,,,,,,,,,,,,,,,,,,,,,,,,,,,,
298069,2022-12-04_17h21.35.054,vts_reward_expectancy_bt,2022.2.4,Win32,120.3659124,Chrome,1920,1080,,,l,0.4445,1,163,0,1,6,18,2,1,1,0,0,0,0,0,0,1,triangle,star,,,,,,,,,,,,,,,,,,,,,,,,,,,,,,,,,,,,,,,,,,,,,,,,,,,,,,
298069,2022-12-04_17h21.35.054,vts_reward_expectancy_bt,2022.2.4,Win32,120.3659124,Chrome,1920,1080,,,a,1.0936,1,164,0,1,7,19,1,1,1,0,0,0,0,0,1,0,triangle,hexagon,,,,,,,,,,,,,,,,,,,,,,,,,,,,,,,,,,,,,,,,,,,,,,,,,,,,,,
298069,2022-12-04_17h21.35.054,vts_reward_expectancy_bt,2022.2.4,Win32,120.3659124,Chrome,1920,1080,,,l,0.5234,1,165,0,1,8,20,3,1,0,1,0,0,1,0,0,0,circle,triangle,,,,,,,,,,,,,,,,,,,,,,,,,,,,,,,,,,,,,,,,,,,,,,,,,,,,,,
298069,2022-12-04_17h21.35.054,vts_reward_expectancy_bt,2022.2.4,Win32,120.3659124,Chrome,1920,1080,,,l,0.5839,10,175,0,1,9,21,7,1,0,0,1,0,0,1,0,0,hexagon,circle,,,,,,,,,,,,,,,,,,,,,,,,,,,,,,,,,,,,,,,,,,,,,,,,,,,,,,
298069,2022-12-04_17h21.35.054,vts_reward_expectancy_bt,2022.2.4,Win32,120.3659124,Chrome,1920,1080,,,l,0.7509,10,185,0,1,10,22,8,1,0,0,1,0,0,0,0,1,hexagon,star,,,,,,,,,,,,,,,,,,,,,,,,,,,,,,,,,,,,,,,,,,,,,,,,,,,,,,
298069,2022-12-04_17h21.35.054,vts_reward_expectancy_bt,2022.2.4,Win32,120.3659124,Chrome,1920,1080,,,l,2.2,1,186,0,1,11,23,6,1,0,0,1,0,1,0,0,0,hexagon,triangle,,,,,,,,,,,,,,,,,,,,,,,,,,,,,,,,,,,,,,,,,,,,,,,,,,,,,,
298069,2022-12-04_17h21.35.054,vts_reward_expectancy_bt,2022.2.4,Win32,120.3659124,Chrome,1920,1080,,,l,0.7295,10,196,0,2,0,24,2,1,1,0,0,0,0,0,0,1,triangle,star,,,,,,,,,,,,,,,,,,,,,,,,,,,,,,,,,,,,,,,,,,,,,,,,,,,,,,
298069,2022-12-04_17h21.35.054,vts_reward_expectancy_bt,2022.2.4,Win32,120.3659124,Chrome,1920,1080,,,l,0.7157,1,197,0,2,1,25,0,1,1,0,0,0,0,1,0,0,triangle,circle,,,,,,,,,,,,,,,,,,,,,,,,,,,,,,,,,,,,,,,,,,,,,,,,,,,,,,
298069,2022-12-04_17h21.35.054,vts_reward_expectancy_bt,2022.2.4,Win32,120.3659124,Chrome,1920,1080,,,l,2.0854,10,207,0,2,2,26,1,1,1,0,0,0,0,0,1,0,triangle,hexagon,,,,,,,,,,,,,,,,,,,,,,,,,,,,,,,,,,,,,,,,,,,,,,,,,,,,,,
298069,2022-12-04_17h21.35.054,vts_reward_expectancy_bt,2022.2.4,Win32,120.3659124,Chrome,1920,1080,,,a,1.7049,1,208,0,2,3,27,6,1,0,0,1,0,1,0,0,0,hexagon,triangle,,,,,,,,,,,,,,,,,,,,,,,,,,,,,,,,,,,,,,,,,,,,,,,,,,,,,,
298069,2022-12-04_17h21.35.054,vts_reward_expectancy_bt,2022.2.4,Win32,120.3659124,Chrome,1920,1080,,,a,0.6172,10,218,0,2,4,28,11,1,0,0,0,1,0,0,1,0,star,hexagon,,,,,,,,,,,,,,,,,,,,,,,,,,,,,,,,,,,,,,,,,,,,,,,,,,,,,,
298069,2022-12-04_17h21.35.054,vts_reward_expectancy_bt,2022.2.4,Win32,120.3659124,Chrome,1920,1080,,,a,0.6595,10,228,0,2,5,29,10,1,0,0,0,1,0,1,0,0,star ,circle,,,,,,,,,,,,,,,,,,,,,,,,,,,,,,,,,,,,,,,,,,,,,,,,,,,,,,
298069,2022-12-04_17h21.35.054,vts_reward_expectancy_bt,2022.2.4,Win32,120.3659124,Chrome,1920,1080,,,a,0.9916,10,238,0,2,6,30,3,1,0,1,0,0,1,0,0,0,circle,triangle,,,,,,,,,,,,,,,,,,,,,,,,,,,,,,,,,,,,,,,,,,,,,,,,,,,,,,
298069,2022-12-04_17h21.35.054,vts_reward_expectancy_bt,2022.2.4,Win32,120.3659124,Chrome,1920,1080,,,a,0.7833,10,248,0,2,7,31,4,1,0,1,0,0,0,0,1,0,circle,hexagon,,,,,,,,,,,,,,,,,,,,,,,,,,,,,,,,,,,,,,,,,,,,,,,,,,,,,,
298069,2022-12-04_17h21.35.054,vts_reward_expectancy_bt,2022.2.4,Win32,120.3659124,Chrome,1920,1080,,,l,0.8879,10,258,0,2,8,32,5,1,0,1,0,0,0,0,0,1,circle,star,,,,,,,,,,,,,,,,,,,,,,,,,,,,,,,,,,,,,,,,,,,,,,,,,,,,,,
298069,2022-12-04_17h21.35.054,vts_reward_expectancy_bt,2022.2.4,Win32,120.3659124,Chrome,1920,1080,,,l,0.6221,10,268,0,2,9,33,7,1,0,0,1,0,0,1,0,0,hexagon,circle,,,,,,,,,,,,,,,,,,,,,,,,,,,,,,,,,,,,,,,,,,,,,,,,,,,,,,
298069,2022-12-04_17h21.35.054,vts_reward_expectancy_bt,2022.2.4,Win32,120.3659124,Chrome,1920,1080,,,l,0.8841,10,278,0,2,10,34,8,1,0,0,1,0,0,0,0,1,hexagon,star,,,,,,,,,,,,,,,,,,,,,,,,,,,,,,,,,,,,,,,,,,,,,,,,,,,,,,
298069,2022-12-04_17h21.35.054,vts_reward_expectancy_bt,2022.2.4,Win32,120.3659124,Chrome,1920,1080,,,a,0.5382,10,288,0,2,11,35,9,1,0,0,0,1,1,0,0,0,star,triangle,,,,,,,,,,,,,,,,,,,,,,,,,,,,,,,,,,,,,,,,,,,,,,,,,,,,,,
298069,2022-12-04_17h21.35.054,vts_reward_expectancy_bt,2022.2.4,Win32,120.3659124,Chrome,1920,1080,,,a,1.0481,10,298,1,0,0,0,9,1,0,0,0,1,1,0,0,0,star,triangle,,,,,,,,,,,,,,,,,,,,,,,,,,,,,,,,,,,,,,,,,,,,,,,,,,,,,,
298069,2022-12-04_17h21.35.054,vts_reward_expectancy_bt,2022.2.4,Win32,120.3659124,Chrome,1920,1080,,,a,0.8941,10,308,1,0,1,1,10,1,0,0,0,1,0,1,0,0,star ,circle,,,,,,,,,,,,,,,,,,,,,,,,,,,,,,,,,,,,,,,,,,,,,,,,,,,,,,
298069,2022-12-04_17h21.35.054,vts_reward_expectancy_bt,2022.2.4,Win32,120.3659124,Chrome,1920,1080,,,l,0.7922,1,309,1,0,2,2,6,1,0,0,1,0,1,0,0,0,hexagon,triangle,,,,,,,,,,,,,,,,,,,,,,,,,,,,,,,,,,,,,,,,,,,,,,,,,,,,,,
298069,2022-12-04_17h21.35.054,vts_reward_expectancy_bt,2022.2.4,Win32,120.3659124,Chrome,1920,1080,,,l,0.6581,10,319,1,0,3,3,8,1,0,0,1,0,0,0,0,1,hexagon,star,,,,,,,,,,,,,,,,,,,,,,,,,,,,,,,,,,,,,,,,,,,,,,,,,,,,,,
298069,2022-12-04_17h21.35.054,vts_reward_expectancy_bt,2022.2.4,Win32,120.3659124,Chrome,1920,1080,,,l,0.9749,10,329,1,0,4,4,7,1,0,0,1,0,0,1,0,0,hexagon,circle,,,,,,,,,,,,,,,,,,,,,,,,,,,,,,,,,,,,,,,,,,,,,,,,,,,,,,
298069,2022-12-04_17h21.35.054,vts_reward_expectancy_bt,2022.2.4,Win32,120.3659124,Chrome,1920,1080,,,a,0.5757,10,339,1,0,5,5,3,1,0,1,0,0,1,0,0,0,circle,triangle,,,,,,,,,,,,,,,,,,,,,,,,,,,,,,,,,,,,,,,,,,,,,,,,,,,,,,
298069,2022-12-04_17h21.35.054,vts_reward_expectancy_bt,2022.2.4,Win32,120.3659124,Chrome,1920,1080,,,a,0.737,10,349,1,0,6,6,4,1,0,1,0,0,0,0,1,0,circle,hexagon,,,,,,,,,,,,,,,,,,,,,,,,,,,,,,,,,,,,,,,,,,,,,,,,,,,,,,
298069,2022-12-04_17h21.35.054,vts_reward_expectancy_bt,2022.2.4,Win32,120.3659124,Chrome,1920,1080,,,l,1.2287,10,359,1,0,7,7,0,1,1,0,0,0,0,1,0,0,triangle,circle,,,,,,,,,,,,,,,,,,,,,,,,,,,,,,,,,,,,,,,,,,,,,,,,,,,,,,
298069,2022-12-04_17h21.35.054,vts_reward_expectancy_bt,2022.2.4,Win32,120.3659124,Chrome,1920,1080,,,a,1.0283,1,360,1,0,8,8,11,1,0,0,0,1,0,0,1,0,star,hexagon,,,,,,,,,,,,,,,,,,,,,,,,,,,,,,,,,,,,,,,,,,,,,,,,,,,,,,
298069,2022-12-04_17h21.35.054,vts_reward_expectancy_bt,2022.2.4,Win32,120.3659124,Chrome,1920,1080,,,l,0.6135,10,370,1,0,9,9,2,1,1,0,0,0,0,0,0,1,triangle,star,,,,,,,,,,,,,,,,,,,,,,,,,,,,,,,,,,,,,,,,,,,,,,,,,,,,,,
298069,2022-12-04_17h21.35.054,vts_reward_expectancy_bt,2022.2.4,Win32,120.3659124,Chrome,1920,1080,,,a,1.2298,1,371,1,0,10,10,1,1,1,0,0,0,0,0,1,0,triangle,hexagon,,,,,,,,,,,,,,,,,,,,,,,,,,,,,,,,,,,,,,,,,,,,,,,,,,,,,,
298069,2022-12-04_17h21.35.054,vts_reward_expectancy_bt,2022.2.4,Win32,120.3659124,Chrome,1920,1080,,,l,0.5593,10,381,1,0,11,11,5,1,0,1,0,0,0,0,0,1,circle,star,,,,,,,,,,,,,,,,,,,,,,,,,,,,,,,,,,,,,,,,,,,,,,,,,,,,,,
298069,2022-12-04_17h21.35.054,vts_reward_expectancy_bt,2022.2.4,Win32,120.3659124,Chrome,1920,1080,,,l,0.6081,10,391,1,1,0,12,5,1,0,1,0,0,0,0,0,1,circle,star,,,,,,,,,,,,,,,,,,,,,,,,,,,,,,,,,,,,,,,,,,,,,,,,,,,,,,
298069,2022-12-04_17h21.35.054,vts_reward_expectancy_bt,2022.2.4,Win32,120.3659124,Chrome,1920,1080,,,a,0.9421,10,401,1,1,1,13,4,1,0,1,0,0,0,0,1,0,circle,hexagon,,,,,,,,,,,,,,,,,,,,,,,,,,,,,,,,,,,,,,,,,,,,,,,,,,,,,,
298069,2022-12-04_17h21.35.054,vts_reward_expectancy_bt,2022.2.4,Win32,120.3659124,Chrome,1920,1080,,,l,1.2001,10,411,1,1,2,14,7,1,0,0,1,0,0,1,0,0,hexagon,circle,,,,,,,,,,,,,,,,,,,,,,,,,,,,,,,,,,,,,,,,,,,,,,,,,,,,,,
298069,2022-12-04_17h21.35.054,vts_reward_expectancy_bt,2022.2.4,Win32,120.3659124,Chrome,1920,1080,,,a,0.5161,1,412,1,1,3,15,3,1,0,1,0,0,1,0,0,0,circle,triangle,,,,,,,,,,,,,,,,,,,,,,,,,,,,,,,,,,,,,,,,,,,,,,,,,,,,,,
298069,2022-12-04_17h21.35.054,vts_reward_expectancy_bt,2022.2.4,Win32,120.3659124,Chrome,1920,1080,,,a,1.7101,1,413,1,1,4,16,6,1,0,0,1,0,1,0,0,0,hexagon,triangle,,,,,,,,,,,,,,,,,,,,,,,,,,,,,,,,,,,,,,,,,,,,,,,,,,,,,,
298069,2022-12-04_17h21.35.054,vts_reward_expectancy_bt,2022.2.4,Win32,120.3659124,Chrome,1920,1080,,,a,0.4955,10,423,1,1,5,17,9,1,0,0,0,1,1,0,0,0,star,triangle,,,,,,,,,,,,,,,,,,,,,,,,,,,,,,,,,,,,,,,,,,,,,,,,,,,,,,
298069,2022-12-04_17h21.35.054,vts_reward_expectancy_bt,2022.2.4,Win32,120.3659124,Chrome,1920,1080,,,a,1.3416,10,433,1,1,6,18,1,1,1,0,0,0,0,0,1,0,triangle,hexagon,,,,,,,,,,,,,,,,,,,,,,,,,,,,,,,,,,,,,,,,,,,,,,,,,,,,,,
298069,2022-12-04_17h21.35.054,vts_reward_expectancy_bt,2022.2.4,Win32,120.3659124,Chrome,1920,1080,,,l,0.7583,10,443,1,1,7,19,2,1,1,0,0,0,0,0,0,1,triangle,star,,,,,,,,,,,,,,,,,,,,,,,,,,,,,,,,,,,,,,,,,,,,,,,,,,,,,,
298069,2022-12-04_17h21.35.054,vts_reward_expectancy_bt,2022.2.4,Win32,120.3659124,Chrome,1920,1080,,,l,0.486,1,444,1,1,8,20,8,1,0,0,1,0,0,0,0,1,hexagon,star,,,,,,,,,,,,,,,,,,,,,,,,,,,,,,,,,,,,,,,,,,,,,,,,,,,,,,
298069,2022-12-04_17h21.35.054,vts_reward_expectancy_bt,2022.2.4,Win32,120.3659124,Chrome,1920,1080,,,l,1.4712,1,445,1,1,9,21,10,1,0,0,0,1,0,1,0,0,star ,circle,,,,,,,,,,,,,,,,,,,,,,,,,,,,,,,,,,,,,,,,,,,,,,,,,,,,,,
298069,2022-12-04_17h21.35.054,vts_reward_expectancy_bt,2022.2.4,Win32,120.3659124,Chrome,1920,1080,,,a,0.896,10,455,1,1,10,22,11,1,0,0,0,1,0,0,1,0,star,hexagon,,,,,,,,,,,,,,,,,,,,,,,,,,,,,,,,,,,,,,,,,,,,,,,,,,,,,,
298069,2022-12-04_17h21.35.054,vts_reward_expectancy_bt,2022.2.4,Win32,120.3659124,Chrome,1920,1080,,,l,0.7416,10,465,1,1,11,23,0,1,1,0,0,0,0,1,0,0,triangle,circle,,,,,,,,,,,,,,,,,,,,,,,,,,,,,,,,,,,,,,,,,,,,,,,,,,,,,,
298069,2022-12-04_17h21.35.054,vts_reward_expectancy_bt,2022.2.4,Win32,120.3659124,Chrome,1920,1080,,,l,0.483,10,475,1,2,0,24,8,1,0,0,1,0,0,0,0,1,hexagon,star,,,,,,,,,,,,,,,,,,,,,,,,,,,,,,,,,,,,,,,,,,,,,,,,,,,,,,
298069,2022-12-04_17h21.35.054,vts_reward_expectancy_bt,2022.2.4,Win32,120.3659124,Chrome,1920,1080,,,a,0.8691,1,476,1,2,1,25,7,1,0,0,1,0,0,1,0,0,hexagon,circle,,,,,,,,,,,,,,,,,,,,,,,,,,,,,,,,,,,,,,,,,,,,,,,,,,,,,,
298069,2022-12-04_17h21.35.054,vts_reward_expectancy_bt,2022.2.4,Win32,120.3659124,Chrome,1920,1080,,,l,0.539,10,486,1,2,2,26,5,1,0,1,0,0,0,0,0,1,circle,star,,,,,,,,,,,,,,,,,,,,,,,,,,,,,,,,,,,,,,,,,,,,,,,,,,,,,,
298069,2022-12-04_17h21.35.054,vts_reward_expectancy_bt,2022.2.4,Win32,120.3659124,Chrome,1920,1080,,,l,0.534,10,496,1,2,3,27,2,1,1,0,0,0,0,0,0,1,triangle,star,,,,,,,,,,,,,,,,,,,,,,,,,,,,,,,,,,,,,,,,,,,,,,,,,,,,,,
298069,2022-12-04_17h21.35.054,vts_reward_expectancy_bt,2022.2.4,Win32,120.3659124,Chrome,1920,1080,,,a,0.8844,10,506,1,2,4,28,10,1,0,0,0,1,0,1,0,0,star ,circle,,,,,,,,,,,,,,,,,,,,,,,,,,,,,,,,,,,,,,,,,,,,,,,,,,,,,,
298069,2022-12-04_17h21.35.054,vts_reward_expectancy_bt,2022.2.4,Win32,120.3659124,Chrome,1920,1080,,,a,0.7513,10,516,1,2,5,29,3,1,0,1,0,0,1,0,0,0,circle,triangle,,,,,,,,,,,,,,,,,,,,,,,,,,,,,,,,,,,,,,,,,,,,,,,,,,,,,,
298069,2022-12-04_17h21.35.054,vts_reward_expectancy_bt,2022.2.4,Win32,120.3659124,Chrome,1920,1080,,,a,2.1754,1,517,1,2,6,30,6,1,0,0,1,0,1,0,0,0,hexagon,triangle,,,,,,,,,,,,,,,,,,,,,,,,,,,,,,,,,,,,,,,,,,,,,,,,,,,,,,
298069,2022-12-04_17h21.35.054,vts_reward_expectancy_bt,2022.2.4,Win32,120.3659124,Chrome,1920,1080,,,a,0.9582,10,527,1,2,7,31,4,1,0,1,0,0,0,0,1,0,circle,hexagon,,,,,,,,,,,,,,,,,,,,,,,,,,,,,,,,,,,,,,,,,,,,,,,,,,,,,,
298069,2022-12-04_17h21.35.054,vts_reward_expectancy_bt,2022.2.4,Win32,120.3659124,Chrome,1920,1080,,,l,0.7014,10,537,1,2,8,32,0,1,1,0,0,0,0,1,0,0,triangle,circle,,,,,,,,,,,,,,,,,,,,,,,,,,,,,,,,,,,,,,,,,,,,,,,,,,,,,,
298069,2022-12-04_17h21.35.054,vts_reward_expectancy_bt,2022.2.4,Win32,120.3659124,Chrome,1920,1080,,,a,2.3036,1,538,1,2,9,33,1,1,1,0,0,0,0,0,1,0,triangle,hexagon,,,,,,,,,,,,,,,,,,,,,,,,,,,,,,,,,,,,,,,,,,,,,,,,,,,,,,
298069,2022-12-04_17h21.35.054,vts_reward_expectancy_bt,2022.2.4,Win32,120.3659124,Chrome,1920,1080,,,a,0.6669,10,548,1,2,10,34,9,1,0,0,0,1,1,0,0,0,star,triangle,,,,,,,,,,,,,,,,,,,,,,,,,,,,,,,,,,,,,,,,,,,,,,,,,,,,,,
298069,2022-12-04_17h21.35.054,vts_reward_expectancy_bt,2022.2.4,Win32,120.3659124,Chrome,1920,1080,,,a,0.7802,10,558,1,2,11,35,11,1,0,0,0,1,0,0,1,0,star,hexagon,,,,,,,,,,,,,,,,,,,,,,,,,,,,,,,,,,,,,,,,,,,,,,,,,,,,,,
298069,2022-12-04_17h21.35.054,vts_reward_expectancy_bt,2022.2.4,Win32,120.3659124,Chrome,1920,1080,,,a,0.9373,10,568,2,0,0,0,10,1,0,0,0,1,0,1,0,0,star ,circle,,,,,,,,,,,,,,,,,,,,,,,,,,,,,,,,,,,,,,,,,,,,,,,,,,,,,,
298069,2022-12-04_17h21.35.054,vts_reward_expectancy_bt,2022.2.4,Win32,120.3659124,Chrome,1920,1080,,,a,0.7306,10,578,2,0,1,1,11,1,0,0,0,1,0,0,1,0,star,hexagon,,,,,,,,,,,,,,,,,,,,,,,,,,,,,,,,,,,,,,,,,,,,,,,,,,,,,,
298069,2022-12-04_17h21.35.054,vts_reward_expectancy_bt,2022.2.4,Win32,120.3659124,Chrome,1920,1080,,,a,0.8864,10,588,2,0,2,2,4,1,0,1,0,0,0,0,1,0,circle,hexagon,,,,,,,,,,,,,,,,,,,,,,,,,,,,,,,,,,,,,,,,,,,,,,,,,,,,,,
298069,2022-12-04_17h21.35.054,vts_reward_expectancy_bt,2022.2.4,Win32,120.3659124,Chrome,1920,1080,,,a,0.6272,10,598,2,0,3,3,9,1,0,0,0,1,1,0,0,0,star,triangle,,,,,,,,,,,,,,,,,,,,,,,,,,,,,,,,,,,,,,,,,,,,,,,,,,,,,,
298069,2022-12-04_17h21.35.054,vts_reward_expectancy_bt,2022.2.4,Win32,120.3659124,Chrome,1920,1080,,,l,0.5635,10,608,2,0,4,4,0,1,1,0,0,0,0,1,0,0,triangle,circle,,,,,,,,,,,,,,,,,,,,,,,,,,,,,,,,,,,,,,,,,,,,,,,,,,,,,,
298069,2022-12-04_17h21.35.054,vts_reward_expectancy_bt,2022.2.4,Win32,120.3659124,Chrome,1920,1080,,,l,0.7715,10,618,2,0,5,5,5,1,0,1,0,0,0,0,0,1,circle,star,,,,,,,,,,,,,,,,,,,,,,,,,,,,,,,,,,,,,,,,,,,,,,,,,,,,,,
298069,2022-12-04_17h21.35.054,vts_reward_expectancy_bt,2022.2.4,Win32,120.3659124,Chrome,1920,1080,,,l,1.559,1,619,2,0,6,6,1,1,1,0,0,0,0,0,1,0,triangle,hexagon,,,,,,,,,,,,,,,,,,,,,,,,,,,,,,,,,,,,,,,,,,,,,,,,,,,,,,
298069,2022-12-04_17h21.35.054,vts_reward_expectancy_bt,2022.2.4,Win32,120.3659124,Chrome,1920,1080,,,l,0.5331,10,629,2,0,7,7,2,1,1,0,0,0,0,0,0,1,triangle,star,,,,,,,,,,,,,,,,,,,,,,,,,,,,,,,,,,,,,,,,,,,,,,,,,,,,,,
298069,2022-12-04_17h21.35.054,vts_reward_expectancy_bt,2022.2.4,Win32,120.3659124,Chrome,1920,1080,,,l,2.6195,1,630,2,0,8,8,6,1,0,0,1,0,1,0,0,0,hexagon,triangle,,,,,,,,,,,,,,,,,,,,,,,,,,,,,,,,,,,,,,,,,,,,,,,,,,,,,,
298069,2022-12-04_17h21.35.054,vts_reward_expectancy_bt,2022.2.4,Win32,120.3659124,Chrome,1920,1080,,,l,0.5163,1,631,2,0,9,9,8,1,0,0,1,0,0,0,0,1,hexagon,star,,,,,,,,,,,,,,,,,,,,,,,,,,,,,,,,,,,,,,,,,,,,,,,,,,,,,,
298069,2022-12-04_17h21.35.054,vts_reward_expectancy_bt,2022.2.4,Win32,120.3659124,Chrome,1920,1080,,,l,0.8765,10,641,2,0,10,10,7,1,0,0,1,0,0,1,0,0,hexagon,circle,,,,,,,,,,,,,,,,,,,,,,,,,,,,,,,,,,,,,,,,,,,,,,,,,,,,,,
298069,2022-12-04_17h21.35.054,vts_reward_expectancy_bt,2022.2.4,Win32,120.3659124,Chrome,1920,1080,,,a,0.5025,10,651,2,0,11,11,3,1,0,1,0,0,1,0,0,0,circle,triangle,,,,,,,,,,,,,,,,,,,,,,,,,,,,,,,,,,,,,,,,,,,,,,,,,,,,,,
298069,2022-12-04_17h21.35.054,vts_reward_expectancy_bt,2022.2.4,Win32,120.3659124,Chrome,1920,1080,,,a,0.5521,10,661,2,1,0,12,3,1,0,1,0,0,1,0,0,0,circle,triangle,,,,,,,,,,,,,,,,,,,,,,,,,,,,,,,,,,,,,,,,,,,,,,,,,,,,,,
298069,2022-12-04_17h21.35.054,vts_reward_expectancy_bt,2022.2.4,Win32,120.3659124,Chrome,1920,1080,,,l,0.5338,10,671,2,1,1,13,2,1,1,0,0,0,0,0,0,1,triangle,star,,,,,,,,,,,,,,,,,,,,,,,,,,,,,,,,,,,,,,,,,,,,,,,,,,,,,,
298069,2022-12-04_17h21.35.054,vts_reward_expectancy_bt,2022.2.4,Win32,120.3659124,Chrome,1920,1080,,,l,0.6107,10,681,2,1,2,14,8,1,0,0,1,0,0,0,0,1,hexagon,star,,,,,,,,,,,,,,,,,,,,,,,,,,,,,,,,,,,,,,,,,,,,,,,,,,,,,,
298069,2022-12-04_17h21.35.054,vts_reward_expectancy_bt,2022.2.4,Win32,120.3659124,Chrome,1920,1080,,,l,0.5633,1,682,2,1,3,15,5,1,0,1,0,0,0,0,0,1,circle,star,,,,,,,,,,,,,,,,,,,,,,,,,,,,,,,,,,,,,,,,,,,,,,,,,,,,,,
298069,2022-12-04_17h21.35.054,vts_reward_expectancy_bt,2022.2.4,Win32,120.3659124,Chrome,1920,1080,,,l,0.7666,10,692,2,1,4,16,10,1,0,0,0,1,0,1,0,0,star ,circle,,,,,,,,,,,,,,,,,,,,,,,,,,,,,,,,,,,,,,,,,,,,,,,,,,,,,,
298069,2022-12-04_17h21.35.054,vts_reward_expectancy_bt,2022.2.4,Win32,120.3659124,Chrome,1920,1080,,,a,1.7522,1,693,2,1,5,17,11,1,0,0,0,1,0,0,1,0,star,hexagon,,,,,,,,,,,,,,,,,,,,,,,,,,,,,,,,,,,,,,,,,,,,,,,,,,,,,,
298069,2022-12-04_17h21.35.054,vts_reward_expectancy_bt,2022.2.4,Win32,120.3659124,Chrome,1920,1080,,,a,0.7414,10,703,2,1,6,18,4,1,0,1,0,0,0,0,1,0,circle,hexagon,,,,,,,,,,,,,,,,,,,,,,,,,,,,,,,,,,,,,,,,,,,,,,,,,,,,,,
298069,2022-12-04_17h21.35.054,vts_reward_expectancy_bt,2022.2.4,Win32,120.3659124,Chrome,1920,1080,,,l,0.5125,10,713,2,1,7,19,0,1,1,0,0,0,0,1,0,0,triangle,circle,,,,,,,,,,,,,,,,,,,,,,,,,,,,,,,,,,,,,,,,,,,,,,,,,,,,,,
298069,2022-12-04_17h21.35.054,vts_reward_expectancy_bt,2022.2.4,Win32,120.3659124,Chrome,1920,1080,,,l,2.2051,10,723,2,1,8,20,1,1,1,0,0,0,0,0,1,0,triangle,hexagon,,,,,,,,,,,,,,,,,,,,,,,,,,,,,,,,,,,,,,,,,,,,,,,,,,,,,,
298069,2022-12-04_17h21.35.054,vts_reward_expectancy_bt,2022.2.4,Win32,120.3659124,Chrome,1920,1080,,,l,0.8002,1,724,2,1,9,21,7,1,0,0,1,0,0,1,0,0,hexagon,circle,,,,,,,,,,,,,,,,,,,,,,,,,,,,,,,,,,,,,,,,,,,,,,,,,,,,,,
298069,2022-12-04_17h21.35.054,vts_reward_expectancy_bt,2022.2.4,Win32,120.3659124,Chrome,1920,1080,,,a,1.0002,1,725,2,1,10,22,6,1,0,0,1,0,1,0,0,0,hexagon,triangle,,,,,,,,,,,,,,,,,,,,,,,,,,,,,,,,,,,,,,,,,,,,,,,,,,,,,,
298069,2022-12-04_17h21.35.054,vts_reward_expectancy_bt,2022.2.4,Win32,120.3659124,Chrome,1920,1080,,,a,0.5496,1,726,2,1,11,23,9,1,0,0,0,1,1,0,0,0,star,triangle,,,,,,,,,,,,,,,,,,,,,,,,,,,,,,,,,,,,,,,,,,,,,,,,,,,,,,
298069,2022-12-04_17h21.35.054,vts_reward_expectancy_bt,2022.2.4,Win32,120.3659124,Chrome,1920,1080,,,l,0.5832,10,736,2,2,0,24,7,1,0,0,1,0,0,1,0,0,hexagon,circle,,,,,,,,,,,,,,,,,,,,,,,,,,,,,,,,,,,,,,,,,,,,,,,,,,,,,,
298069,2022-12-04_17h21.35.054,vts_reward_expectancy_bt,2022.2.4,Win32,120.3659124,Chrome,1920,1080,,,l,0.5804,10,746,2,2,1,25,2,1,1,0,0,0,0,0,0,1,triangle,star,,,,,,,,,,,,,,,,,,,,,,,,,,,,,,,,,,,,,,,,,,,,,,,,,,,,,,
298069,2022-12-04_17h21.35.054,vts_reward_expectancy_bt,2022.2.4,Win32,120.3659124,Chrome,1920,1080,,,a,0.858,1,747,2,2,2,26,4,1,0,1,0,0,0,0,1,0,circle,hexagon,,,,,,,,,,,,,,,,,,,,,,,,,,,,,,,,,,,,,,,,,,,,,,,,,,,,,,
298069,2022-12-04_17h21.35.054,vts_reward_expectancy_bt,2022.2.4,Win32,120.3659124,Chrome,1920,1080,,,a,0.6939,10,757,2,2,3,27,11,1,0,0,0,1,0,0,1,0,star,hexagon,,,,,,,,,,,,,,,,,,,,,,,,,,,,,,,,,,,,,,,,,,,,,,,,,,,,,,
298069,2022-12-04_17h21.35.054,vts_reward_expectancy_bt,2022.2.4,Win32,120.3659124,Chrome,1920,1080,,,a,0.5834,1,758,2,2,4,28,9,1,0,0,0,1,1,0,0,0,star,triangle,,,,,,,,,,,,,,,,,,,,,,,,,,,,,,,,,,,,,,,,,,,,,,,,,,,,,,
298069,2022-12-04_17h21.35.054,vts_reward_expectancy_bt,2022.2.4,Win32,120.3659124,Chrome,1920,1080,,,l,0.526,10,768,2,2,5,29,5,1,0,1,0,0,0,0,0,1,circle,star,,,,,,,,,,,,,,,,,,,,,,,,,,,,,,,,,,,,,,,,,,,,,,,,,,,,,,
298069,2022-12-04_17h21.35.054,vts_reward_expectancy_bt,2022.2.4,Win32,120.3659124,Chrome,1920,1080,,,a,0.7087,10,778,2,2,6,30,10,1,0,0,0,1,0,1,0,0,star ,circle,,,,,,,,,,,,,,,,,,,,,,,,,,,,,,,,,,,,,,,,,,,,,,,,,,,,,,
298069,2022-12-04_17h21.35.054,vts_reward_expectancy_bt,2022.2.4,Win32,120.3659124,Chrome,1920,1080,,,a,0.617,10,788,2,2,7,31,3,1,0,1,0,0,1,0,0,0,circle,triangle,,,,,,,,,,,,,,,,,,,,,,,,,,,,,,,,,,,,,,,,,,,,,,,,,,,,,,
298069,2022-12-04_17h21.35.054,vts_reward_expectancy_bt,2022.2.4,Win32,120.3659124,Chrome,1920,1080,,,a,0.6532,1,789,2,2,8,32,8,1,0,0,1,0,0,0,0,1,hexagon,star,,,,,,,,,,,,,,,,,,,,,,,,,,,,,,,,,,,,,,,,,,,,,,,,,,,,,,
298069,2022-12-04_17h21.35.054,vts_reward_expectancy_bt,2022.2.4,Win32,120.3659124,Chrome,1920,1080,,,a,1.9035,1,790,2,2,9,33,6,1,0,0,1,0,1,0,0,0,hexagon,triangle,,,,,,,,,,,,,,,,,,,,,,,,,,,,,,,,,,,,,,,,,,,,,,,,,,,,,,
298069,2022-12-04_17h21.35.054,vts_reward_expectancy_bt,2022.2.4,Win32,120.3659124,Chrome,1920,1080,,,l,0.5616,10,800,2,2,10,34,0,1,1,0,0,0,0,1,0,0,triangle,circle,,,,,,,,,,,,,,,,,,,,,,,,,,,,,,,,,,,,,,,,,,,,,,,,,,,,,,
298069,2022-12-04_17h21.35.054,vts_reward_expectancy_bt,2022.2.4,Win32,120.3659124,Chrome,1920,1080,,,l,2.3003,1,801,2,2,11,35,1,1,1,0,0,0,0,0,1,0,triangle,hexagon,,,,,,,,,,,,,,,,,,,,,,,,,,,,,,,,,,,,,,,,,,,,,,,,,,,,,,
298069,2022-12-04_17h21.35.054,vts_reward_expectancy_bt,2022.2.4,Win32,120.3659124,Chrome,1920,1080,,,,,,,,,,,,,,,,,,,,,,,F,181,triangle,1,0,d,2.6182,0,0,0,0,0,1,,,,,,,,,,,,,,,,,,,,,,,,,,,,,,,,,,,,,,,,,
298069,2022-12-04_17h21.35.054,vts_reward_expectancy_bt,2022.2.4,Win32,120.3659124,Chrome,1920,1080,,,,,,,,,,,,,,,,,,,,,,,U,167,circle,1,0,f,0.8269,0,1,0,1,0,1,,,,,,,,,,,,,,,,,,,,,,,,,,,,,,,,,,,,,,,,,
298069,2022-12-04_17h21.35.054,vts_reward_expectancy_bt,2022.2.4,Win32,120.3659124,Chrome,1920,1080,,,,,,,,,,,,,,,,,,,,,,,S,160,hexagon,1,0,f,1.3627,0,2,0,2,0,1,,,,,,,,,,,,,,,,,,,,,,,,,,,,,,,,,,,,,,,,,
298069,2022-12-04_17h21.35.054,vts_reward_expectancy_bt,2022.2.4,Win32,120.3659124,Chrome,1920,1080,,,,,,,,,,,,,,,,,,,,,,,B,174,star,1,0,d,0.6675,0,3,0,3,0,1,,,,,,,,,,,,,,,,,,,,,,,,,,,,,,,,,,,,,,,,,
298069,2022-12-04_17h21.35.054,vts_reward_expectancy_bt,2022.2.4,Win32,120.3659124,Chrome,1920,1080,,,,,,,,,,,,,,,,,,,,,,,D,146,triangle,1,0,d,0.7133,0,4,0,4,0,1,,,,,,,,,,,,,,,,,,,,,,,,,,,,,,,,,,,,,,,,,
298069,2022-12-04_17h21.35.054,vts_reward_expectancy_bt,2022.2.4,Win32,120.3659124,Chrome,1920,1080,,,,,,,,,,,,,,,,,,,,,,,Y,132,circle,1,0,f,0.7087,0,5,0,5,0,1,,,,,,,,,,,,,,,,,,,,,,,,,,,,,,,,,,,,,,,,,
298069,2022-12-04_17h21.35.054,vts_reward_expectancy_bt,2022.2.4,Win32,120.3659124,Chrome,1920,1080,,,,,,,,,,,,,,,,,,,,,,,H,139,hexagon,1,0,d,0.7999,0,6,0,6,0,1,,,,,,,,,,,,,,,,,,,,,,,,,,,,,,,,,,,,,,,,,
298069,2022-12-04_17h21.35.054,vts_reward_expectancy_bt,2022.2.4,Win32,120.3659124,Chrome,1920,1080,,,,,,,,,,,,,,,,,,,,,,,W,125,star,1,0,f,0.7281,0,7,0,7,0,1,,,,,,,,,,,,,,,,,,,,,,,,,,,,,,,,,,,,,,,,,
298069,2022-12-04_17h21.35.054,vts_reward_expectancy_bt,2022.2.4,Win32,120.3659124,Chrome,1920,1080,,,,,,,,,,,,,,,,,,,,,,,F,181,triangle,1,0,d,0.9415,0,8,0,8,0,1,,,,,,,,,,,,,,,,,,,,,,,,,,,,,,,,,,,,,,,,,
298069,2022-12-04_17h21.35.054,vts_reward_expectancy_bt,2022.2.4,Win32,120.3659124,Chrome,1920,1080,,,,,,,,,,,,,,,,,,,,,,,U,167,circle,1,0,f,0.6333,0,9,0,9,0,1,,,,,,,,,,,,,,,,,,,,,,,,,,,,,,,,,,,,,,,,,
298069,2022-12-04_17h21.35.054,vts_reward_expectancy_bt,2022.2.4,Win32,120.3659124,Chrome,1920,1080,,,,,,,,,,,,,,,,,,,,,,,H,139,star,1,0,,,1,,,,,,j,1.1565,0,0,0,0,1,,,,,,,,,,,,,,,,,,,,,,,,,,,,,,,,,,
298069,2022-12-04_17h21.35.054,vts_reward_expectancy_bt,2022.2.4,Win32,120.3659124,Chrome,1920,1080,,,,,,,,,,,,,,,,,,,,,,,S,167,triangle,1,0,,,1,,,,,,k,0.4006,1,0,1,0,1,,,,,,,,,,,,,,,,,,,,,,,,,,,,,,,,,,
298069,2022-12-04_17h21.35.054,vts_reward_expectancy_bt,2022.2.4,Win32,120.3659124,Chrome,1920,1080,,,,,,,,,,,,,,,,,,,,,,,F,132,circle,1,0,,,1,,,,,,j,0.723,2,0,2,0,1,,,,,,,,,,,,,,,,,,,,,,,,,,,,,,,,,,
298069,2022-12-04_17h21.35.054,vts_reward_expectancy_bt,2022.2.4,Win32,120.3659124,Chrome,1920,1080,,,,,,,,,,,,,,,,,,,,,,,U,160,hexagon,1,0,,,1,,,,,,k,0.7701,3,0,3,0,1,,,,,,,,,,,,,,,,,,,,,,,,,,,,,,,,,,
298069,2022-12-04_17h21.35.054,vts_reward_expectancy_bt,2022.2.4,Win32,120.3659124,Chrome,1920,1080,,,,,,,,,,,,,,,,,,,,,,,Y,174,star,1,0,,,1,,,,,,k,0.6707,4,0,4,0,1,,,,,,,,,,,,,,,,,,,,,,,,,,,,,,,,,,
298069,2022-12-04_17h21.35.054,vts_reward_expectancy_bt,2022.2.4,Win32,120.3659124,Chrome,1920,1080,,,,,,,,,,,,,,,,,,,,,,,W,181,triangle,1,0,,,1,,,,,,k,0.6022,5,0,5,0,1,,,,,,,,,,,,,,,,,,,,,,,,,,,,,,,,,,
298069,2022-12-04_17h21.35.054,vts_reward_expectancy_bt,2022.2.4,Win32,120.3659124,Chrome,1920,1080,,,,,,,,,,,,,,,,,,,,,,,D,125,circle,1,0,,,1,,,,,,j,0.6897,6,0,6,0,1,,,,,,,,,,,,,,,,,,,,,,,,,,,,,,,,,,
298069,2022-12-04_17h21.35.054,vts_reward_expectancy_bt,2022.2.4,Win32,120.3659124,Chrome,1920,1080,,,,,,,,,,,,,,,,,,,,,,,B,146,hexagon,1,0,,,1,,,,,,j,0.7475,7,0,7,0,1,,,,,,,,,,,,,,,,,,,,,,,,,,,,,,,,,,
298069,2022-12-04_17h21.35.054,vts_reward_expectancy_bt,2022.2.4,Win32,120.3659124,Chrome,1920,1080,,,,,,,,,,,,,,,,,,,,,,,H,139,circle,1,0,,,1,,,,,,j,0.6262,8,0,8,0,1,,,,,,,,,,,,,,,,,,,,,,,,,,,,,,,,,,
298069,2022-12-04_17h21.35.054,vts_reward_expectancy_bt,2022.2.4,Win32,120.3659124,Chrome,1920,1080,,,,,,,,,,,,,,,,,,,,,,,S,167,star,1,0,,,1,,,,,,k,0.6511,9,0,9,0,1,,,,,,,,,,,,,,,,,,,,,,,,,,,,,,,,,,
298069,2022-12-04_17h21.35.054,vts_reward_expectancy_bt,2022.2.4,Win32,120.3659124,Chrome,1920,1080,,,,,0,801,,,,,,,,,,,,,,,,,B,167,hexagon,-1,0,,,2,,,,,,,,,,,,,-1,no_choice,NA,,vtsPrac,0,0,0,0,1,,,,,,,,,,,,,,,,,,,,,,,,
298069,2022-12-04_17h21.35.054,vts_reward_expectancy_bt,2022.2.4,Win32,120.3659124,Chrome,1920,1080,,,,,0,801,,,,,,,,,,,,,,,,,D,181,triangle,1,0,,,2,,,,,,,,,,,,,switch,letter,lettSwt,d,vtsPrac,1,0,1,0,1,1.1756,,,,,,,,,,,,,,,,,,,,,,,
298069,2022-12-04_17h21.35.054,vts_reward_expectancy_bt,2022.2.4,Win32,120.3659124,Chrome,1920,1080,,,,,0,801,,,,,,,,,,,,,,,,,U,139,hexagon,1,0,,,2,,,,,,,,,,,,,repeat,letter,lettRpt,f,vtsPrac,2,0,2,0,1,1.3088,,,,,,,,,,,,,,,,,,,,,,,
298069,2022-12-04_17h21.35.054,vts_reward_expectancy_bt,2022.2.4,Win32,120.3659124,Chrome,1920,1080,,,,,0,801,,,,,,,,,,,,,,,,,Y,146,triangle,0,0,,,2,,,,,,,,,,,,,switch,number,NA,k,vtsPrac,3,0,3,0,1,0.7079,,,,,,,,,,,,,,,,,,,,,,,
298069,2022-12-04_17h21.35.054,vts_reward_expectancy_bt,2022.2.4,Win32,120.3659124,Chrome,1920,1080,,,,,0,801,,,,,,,,,,,,,,,,,B,167,triangle,1,1,,,2,,,,,,,,,,,,,switch,letter,lettSwt,d,vtsPrac,4,0,4,0,1,0.7932,,,,,,,,,,,,,,,,,,,,,,,
298069,2022-12-04_17h21.35.054,vts_reward_expectancy_bt,2022.2.4,Win32,120.3659124,Chrome,1920,1080,,,,,0,801,,,,,,,,,,,,,,,,,D,181,star,1,0,,,2,,,,,,,,,,,,,repeat,letter,lettRpt,d,vtsPrac,5,0,5,0,1,0.8019,,,,,,,,,,,,,,,,,,,,,,,
298069,2022-12-04_17h21.35.054,vts_reward_expectancy_bt,2022.2.4,Win32,120.3659124,Chrome,1920,1080,,,,,0,801,,,,,,,,,,,,,,,,,U,139,circle,0,0,,,2,,,,,,,,,,,,,repeat,letter,NA,d,vtsPrac,6,0,6,0,1,0.5678,,,,,,,,,,,,,,,,,,,,,,,
298069,2022-12-04_17h21.35.054,vts_reward_expectancy_bt,2022.2.4,Win32,120.3659124,Chrome,1920,1080,,,,,0,801,,,,,,,,,,,,,,,,,Y,146,hexagon,1,1,,,2,,,,,,,,,,,,,repeat,letter,lettRpt,f,vtsPrac,7,0,7,0,1,0.7251,,,,,,,,,,,,,,,,,,,,,,,
298069,2022-12-04_17h21.35.054,vts_reward_expectancy_bt,2022.2.4,Win32,120.3659124,Chrome,1920,1080,,,,,0,801,,,,,,,,,,,,,,,,,U,174,triangle,1,0,,,2,,,,,,,,,,,,,repeat,letter,lettRpt,f,vtsPrac,8,0,8,0,1,0.7027,,,,,,,,,,,,,,,,,,,,,,,
298069,2022-12-04_17h21.35.054,vts_reward_expectancy_bt,2022.2.4,Win32,120.3659124,Chrome,1920,1080,,,,,0,801,,,,,,,,,,,,,,,,,H,139,circle,1,0,,,2,,,,,,,,,,,,,repeat,letter,lettRpt,d,vtsPrac,9,0,9,0,1,0.53,,,,,,,,,,,,,,,,,,,,,,,
298069,2022-12-04_17h21.35.054,vts_reward_expectancy_bt,2022.2.4,Win32,120.3659124,Chrome,1920,1080,,,,,0,801,,,,,,,,,,,,,,,,,B,132,hexagon,1,0,,,2,,,,,,,,,,,,,repeat,letter,lettRpt,d,vtsPrac,10,0,10,0,1,0.4417,,,,,,,,,,,,,,,,,,,,,,,
298069,2022-12-04_17h21.35.054,vts_reward_expectancy_bt,2022.2.4,Win32,120.3659124,Chrome,1920,1080,,,,,0,801,,,,,,,,,,,,,,,,,S,146,star,0,0,,,2,,,,,,,,,,,,,repeat,letter,NA,d,vtsPrac,11,0,11,0,1,0.5745,,,,,,,,,,,,,,,,,,,,,,,
298069,2022-12-04_17h21.35.054,vts_reward_expectancy_bt,2022.2.4,Win32,120.3659124,Chrome,1920,1080,,,,,0,801,,,,,,,,,,,,,,,,,U,174,triangle,1,1,,,2,,,,,,,,,,,,,repeat,letter,lettRpt,f,vtsPrac,12,0,12,0,1,0.6078,,,,,,,,,,,,,,,,,,,,,,,
298069,2022-12-04_17h21.35.054,vts_reward_expectancy_bt,2022.2.4,Win32,120.3659124,Chrome,1920,1080,,,,,0,801,,,,,,,,,,,,,,,,,W,146,circle,1,0,,,2,,,,,,,,,,,,,repeat,letter,lettRpt,f,vtsPrac,13,0,13,0,1,0.6414,,,,,,,,,,,,,,,,,,,,,,,
298069,2022-12-04_17h21.35.054,vts_reward_expectancy_bt,2022.2.4,Win32,120.3659124,Chrome,1920,1080,,,,,0,801,,,,,,,,,,,,,,,,,B,181,triangle,1,0,,,2,,,,,,,,,,,,,repeat,letter,lettRpt,d,vtsPrac,14,0,14,0,1,0.6331,,,,,,,,,,,,,,,,,,,,,,,
298069,2022-12-04_17h21.35.054,vts_reward_expectancy_bt,2022.2.4,Win32,120.3659124,Chrome,1920,1080,,,,,0,801,,,,,,,,,,,,,,,,,H,139,star,0,0,,,2,,,,,,,,,,,,,repeat,letter,NA,f,vtsPrac,15,0,15,0,1,0.4667,,,,,,,,,,,,,,,,,,,,,,,
298069,2022-12-04_17h21.35.054,vts_reward_expectancy_bt,2022.2.4,Win32,120.3659124,Chrome,1920,1080,,,,,0,801,,,,,,,,,,,,,,,,,W,174,star,1,1,,,2,,,,,,,,,,,,,repeat,letter,lettRpt,f,vtsPrac,16,0,16,0,1,0.5447,,,,,,,,,,,,,,,,,,,,,,,
298069,2022-12-04_17h21.35.054,vts_reward_expectancy_bt,2022.2.4,Win32,120.3659124,Chrome,1920,1080,,,,,0,801,,,,,,,,,,,,,,,,,D,139,hexagon,1,0,,,2,,,,,,,,,,,,,repeat,letter,lettRpt,d,vtsPrac,17,0,17,0,1,0.5185,,,,,,,,,,,,,,,,,,,,,,,
298069,2022-12-04_17h21.35.054,vts_reward_expectancy_bt,2022.2.4,Win32,120.3659124,Chrome,1920,1080,,,,,0,801,,,,,,,,,,,,,,,,,F,167,star,1,0,,,2,,,,,,,,,,,,,repeat,letter,lettRpt,d,vtsPrac,18,0,18,0,1,0.5268,,,,,,,,,,,,,,,,,,,,,,,
298069,2022-12-04_17h21.35.054,vts_reward_expectancy_bt,2022.2.4,Win32,120.3659124,Chrome,1920,1080,,,,,0,801,,,,,,,,,,,,,,,,,S,160,hexagon,1,0,,,2,,,,,,,,,,,,,repeat,letter,lettRpt,f,vtsPrac,19,0,19,0,1,0.5019,,,,,,,,,,,,,,,,,,,,,,,
298069,2022-12-04_17h21.35.054,vts_reward_expectancy_bt,2022.2.4,Win32,120.3659124,Chrome,1920,1080,,,,,0,801,,,,,,,,,,,,,,,,,U,125,triangle,1,0,,,2,,,,,,,,,,,,,repeat,letter,lettRpt,f,vtsPrac,20,0,20,0,1,0.6246,,,,,,,,,,,,,,,,,,,,,,,
298069,2022-12-04_17h21.35.054,vts_reward_expectancy_bt,2022.2.4,Win32,120.3659124,Chrome,1920,1080,,,,,0,801,,,,,,,,,,,,,,,,,S,139,circle,1,0,,,2,,,,,,,,,,,,,repeat,letter,lettRpt,f,vtsPrac,21,0,21,0,1,0.5099,,,,,,,,,,,,,,,,,,,,,,,
298069,2022-12-04_17h21.35.054,vts_reward_expectancy_bt,2022.2.4,Win32,120.3659124,Chrome,1920,1080,,,,,0,801,,,,,,,,,,,,,,,,,B,167,circle,1,0,,,2,,,,,,,,,,,,,repeat,letter,lettRpt,d,vtsPrac,22,0,22,0,1,0.4429,,,,,,,,,,,,,,,,,,,,,,,
298069,2022-12-04_17h21.35.054,vts_reward_expectancy_bt,2022.2.4,Win32,120.3659124,Chrome,1920,1080,,,,,0,801,,,,,,,,,,,,,,,,,H,146,hexagon,0,0,,,2,,,,,,,,,,,,,repeat,letter,NA,f,vtsPrac,23,0,23,0,1,0.6334,,,,,,,,,,,,,,,,,,,,,,,
298069,2022-12-04_17h21.35.054,vts_reward_expectancy_bt,2022.2.4,Win32,120.3659124,Chrome,1920,1080,,,,,0,801,,,,,,,,,,,,,,,,,H,146,hexagon,1,1,,,2,,,,,,,,,,,,,repeat,letter,lettRpt,d,vtsPrac,24,0,24,0,1,0.6388,,,,,,,,,,,,,,,,,,,,,,,
298069,2022-12-04_17h21.35.054,vts_reward_expectancy_bt,2022.2.4,Win32,120.3659124,Chrome,1920,1080,,,,,0,801,,,,,,,,,,,,,,,,,D,125,star,1,0,,,2,,,,,,,,,,,,,repeat,letter,lettRpt,d,vtsPrac,25,0,25,0,1,0.5747,,,,,,,,,,,,,,,,,,,,,,,
298069,2022-12-04_17h21.35.054,vts_reward_expectancy_bt,2022.2.4,Win32,120.3659124,Chrome,1920,1080,,,,,0,801,,,,,,,,,,,,,,,,,Y,167,star,1,0,,,2,,,,,,,,,,,,,repeat,letter,lettRpt,f,vtsPrac,26,0,26,0,1,0.45,,,,,,,,,,,,,,,,,,,,,,,
298069,2022-12-04_17h21.35.054,vts_reward_expectancy_bt,2022.2.4,Win32,120.3659124,Chrome,1920,1080,,,,,0,801,,,,,,,,,,,,,,,,,W,174,triangle,1,0,,,2,,,,,,,,,,,,,repeat,letter,lettRpt,f,vtsPrac,27,0,27,0,1,0.4951,,,,,,,,,,,,,,,,,,,,,,,
298069,2022-12-04_17h21.35.054,vts_reward_expectancy_bt,2022.2.4,Win32,120.3659124,Chrome,1920,1080,,,,,0,801,,,,,,,,,,,,,,,,,Y,167,hexagon,1,0,,,2,,,,,,,,,,,,,repeat,letter,lettRpt,f,vtsPrac,28,0,28,0,1,0.4722,,,,,,,,,,,,,,,,,,,,,,,
298069,2022-12-04_17h21.35.054,vts_reward_expectancy_bt,2022.2.4,Win32,120.3659124,Chrome,1920,1080,,,,,0,801,,,,,,,,,,,,,,,,,B,125,circle,1,0,,,2,,,,,,,,,,,,,repeat,letter,lettRpt,d,vtsPrac,29,0,29,0,1,0.3862,,,,,,,,,,,,,,,,,,,,,,,
298069,2022-12-04_17h21.35.054,vts_reward_expectancy_bt,2022.2.4,Win32,120.3659124,Chrome,1920,1080,,,,,0,801,,,,,,,,,,,,,,,,,F,174,hexagon,1,0,,,2,,,,,,,,,,,,,repeat,letter,lettRpt,d,vtsPrac,30,0,30,0,1,0.7164,,,,,,,,,,,,,,,,,,,,,,,
298069,2022-12-04_17h21.35.054,vts_reward_expectancy_bt,2022.2.4,Win32,120.3659124,Chrome,1920,1080,,,,,0,801,,,,,,,,,,,,,,,,,H,132,triangle,1,0,,,2,,,,,,,,,,,,,repeat,letter,lettRpt,d,vtsPrac,31,0,31,0,1,0.5082,,,,,,,,,,,,,,,,,,,,,,,
298069,2022-12-04_17h21.35.054,vts_reward_expectancy_bt,2022.2.4,Win32,120.3659124,Chrome,1920,1080,,,,,0,801,,,,,,,,,,,,,,,,,D,181,circle,1,0,,,3,,,,,,,,,,,,,repeat,letter,lettRpt,d,vtsPrac,0,0,0,0,1,0.3914,,,,,,,,,,,,,,,,,,,,,,,
298069,2022-12-04_17h21.35.054,vts_reward_expectancy_bt,2022.2.4,Win32,120.3659124,Chrome,1920,1080,,,,,0,801,,,,,,,,,,,,,,,,,B,174,star,1,0,,,3,,,,,,,,,,,,,repeat,letter,lettRpt,d,vtsPrac,1,0,1,0,1,0.5412,,,,,,,,,,,,,,,,,,,,,,,
298069,2022-12-04_17h21.35.054,vts_reward_expectancy_bt,2022.2.4,Win32,120.3659124,Chrome,1920,1080,,,,,0,801,,,,,,,,,,,,,,,,,U,139,circle,1,0,,,3,,,,,,,,,,,,,repeat,letter,lettRpt,f,vtsPrac,2,0,2,0,1,0.5914,,,,,,,,,,,,,,,,,,,,,,,
298069,2022-12-04_17h21.35.054,vts_reward_expectancy_bt,2022.2.4,Win32,120.3659124,Chrome,1920,1080,,,,,0,801,,,,,,,,,,,,,,,,,H,160,star,1,0,,,3,,,,,,,,,,,,,switch,number,numSwt,k,vtsPrac,3,0,3,0,1,0.4419,,,,,,,,,,,,,,,,,,,,,,,
298069,2022-12-04_17h21.35.054,vts_reward_expectancy_bt,2022.2.4,Win32,120.3659124,Chrome,1920,1080,,,,,0,801,,,,,,,,,,,,,,,,,D,181,triangle,1,0,,,3,,,,,,,,,,,,,switch,letter,lettSwt,d,vtsPrac,4,0,4,0,1,0.7292,,,,,,,,,,,,,,,,,,,,,,,
298069,2022-12-04_17h21.35.054,vts_reward_expectancy_bt,2022.2.4,Win32,120.3659124,Chrome,1920,1080,,,,,0,801,,,,,,,,,,,,,,,,,B,174,hexagon,1,0,,,3,,,,,,,,,,,,,switch,number,numSwt,k,vtsPrac,5,0,5,0,1,0.4954,,,,,,,,,,,,,,,,,,,,,,,
298069,2022-12-04_17h21.35.054,vts_reward_expectancy_bt,2022.2.4,Win32,120.3659124,Chrome,1920,1080,,,,,0,801,,,,,,,,,,,,,,,,,U,139,hexagon,1,0,,,3,,,,,,,,,,,,,repeat,number,numRpt,j,vtsPrac,6,0,6,0,1,0.425,,,,,,,,,,,,,,,,,,,,,,,
298069,2022-12-04_17h21.35.054,vts_reward_expectancy_bt,2022.2.4,Win32,120.3659124,Chrome,1920,1080,,,,,0,801,,,,,,,,,,,,,,,,,H,160,circle,1,0,,,3,,,,,,,,,,,,,switch,letter,lettSwt,d,vtsPrac,7,0,7,0,1,0.8665,,,,,,,,,,,,,,,,,,,,,,,
298069,2022-12-04_17h21.35.054,vts_reward_expectancy_bt,2022.2.4,Win32,120.3659124,Chrome,1920,1080,,,,,0,801,,,,,,,,,,,,,,,,,B,181,circle,1,0,,,3,,,,,,,,,,,,,switch,number,numSwt,k,vtsPrac,8,0,8,0,1,0.5384,,,,,,,,,,,,,,,,,,,,,,,
298069,2022-12-04_17h21.35.054,vts_reward_expectancy_bt,2022.2.4,Win32,120.3659124,Chrome,1920,1080,,,,,0,801,,,,,,,,,,,,,,,,,W,139,triangle,1,0,,,3,,,,,,,,,,,,,repeat,number,numRpt,j,vtsPrac,9,0,9,0,1,0.627,,,,,,,,,,,,,,,,,,,,,,,
298069,2022-12-04_17h21.35.054,vts_reward_expectancy_bt,2022.2.4,Win32,120.3659124,Chrome,1920,1080,,,,,0,801,,,,,,,,,,,,,,,,,S,146,triangle,1,0,,,3,,,,,,,,,,,,,switch,letter,lettSwt,f,vtsPrac,10,0,10,0,1,0.5428,,,,,,,,,,,,,,,,,,,,,,,
298069,2022-12-04_17h21.35.054,vts_reward_expectancy_bt,2022.2.4,Win32,120.3659124,Chrome,1920,1080,,,,,0,801,,,,,,,,,,,,,,,,,H,160,hexagon,1,0,,,3,,,,,,,,,,,,,repeat,letter,lettRpt,d,vtsPrac,11,0,11,0,1,0.5249,,,,,,,,,,,,,,,,,,,,,,,
298069,2022-12-04_17h21.35.054,vts_reward_expectancy_bt,2022.2.4,Win32,120.3659124,Chrome,1920,1080,,,,,0,801,,,,,,,,,,,,,,,,,U,174,star,1,0,,,3,,,,,,,,,,,,,switch,number,numSwt,k,vtsPrac,12,0,12,0,1,0.5552,,,,,,,,,,,,,,,,,,,,,,,
298069,2022-12-04_17h21.35.054,vts_reward_expectancy_bt,2022.2.4,Win32,120.3659124,Chrome,1920,1080,,,,,0,801,,,,,,,,,,,,,,,,,W,160,hexagon,1,0,,,3,,,,,,,,,,,,,switch,letter,lettSwt,f,vtsPrac,13,0,13,0,1,0.628,,,,,,,,,,,,,,,,,,,,,,,
298069,2022-12-04_17h21.35.054,vts_reward_expectancy_bt,2022.2.4,Win32,120.3659124,Chrome,1920,1080,,,,,0,801,,,,,,,,,,,,,,,,,D,146,triangle,1,0,,,3,,,,,,,,,,,,,switch,number,numSwt,j,vtsPrac,14,0,14,0,1,1.0606,,,,,,,,,,,,,,,,,,,,,,,
298069,2022-12-04_17h21.35.054,vts_reward_expectancy_bt,2022.2.4,Win32,120.3659124,Chrome,1920,1080,,,,,0,801,,,,,,,,,,,,,,,,,B,132,star,1,0,,,3,,,,,,,,,,,,,repeat,number,numRpt,j,vtsPrac,15,0,15,0,1,0.4847,,,,,,,,,,,,,,,,,,,,,,,
298069,2022-12-04_17h21.35.054,vts_reward_expectancy_bt,2022.2.4,Win32,120.3659124,Chrome,1920,1080,,,,,0,801,,,,,,,,,,,,,,,,,D,132,hexagon,1,0,,,3,,,,,,,,,,,,,repeat,number,numRpt,j,vtsPrac,16,0,16,0,1,0.6782,,,,,,,,,,,,,,,,,,,,,,,
298069,2022-12-04_17h21.35.054,vts_reward_expectancy_bt,2022.2.4,Win32,120.3659124,Chrome,1920,1080,,,,,0,801,,,,,,,,,,,,,,,,,B,139,circle,1,0,,,3,,,,,,,,,,,,,repeat,number,numRpt,j,vtsPrac,17,0,17,0,1,0.675,,,,,,,,,,,,,,,,,,,,,,,
298069,2022-12-04_17h21.35.054,vts_reward_expectancy_bt,2022.2.4,Win32,120.3659124,Chrome,1920,1080,,,,,0,801,,,,,,,,,,,,,,,,,F,167,triangle,1,0,,,3,,,,,,,,,,,,,switch,letter,lettSwt,d,vtsPrac,18,0,18,0,1,0.9587,,,,,,,,,,,,,,,,,,,,,,,
298069,2022-12-04_17h21.35.054,vts_reward_expectancy_bt,2022.2.4,Win32,120.3659124,Chrome,1920,1080,,,,,0,801,,,,,,,,,,,,,,,,,S,146,hexagon,1,0,,,3,,,,,,,,,,,,,repeat,letter,lettRpt,f,vtsPrac,19,0,19,0,1,0.5208,,,,,,,,,,,,,,,,,,,,,,,
298069,2022-12-04_17h21.35.054,vts_reward_expectancy_bt,2022.2.4,Win32,120.3659124,Chrome,1920,1080,,,,,0,801,,,,,,,,,,,,,,,,,Y,174,triangle,1,0,,,3,,,,,,,,,,,,,switch,number,numSwt,k,vtsPrac,20,0,20,0,1,0.6002,,,,,,,,,,,,,,,,,,,,,,,
298069,2022-12-04_17h21.35.054,vts_reward_expectancy_bt,2022.2.4,Win32,120.3659124,Chrome,1920,1080,,,,,0,801,,,,,,,,,,,,,,,,,H,139,hexagon,1,0,,,3,,,,,,,,,,,,,repeat,number,numRpt,j,vtsPrac,21,0,21,0,1,0.9749,,,,,,,,,,,,,,,,,,,,,,,
298069,2022-12-04_17h21.35.054,vts_reward_expectancy_bt,2022.2.4,Win32,120.3659124,Chrome,1920,1080,,,,,0,801,,,,,,,,,,,,,,,,,F,160,hexagon,1,0,,,3,,,,,,,,,,,,,switch,letter,lettSwt,d,vtsPrac,22,0,22,0,1,0.7115,,,,,,,,,,,,,,,,,,,,,,,
298069,2022-12-04_17h21.35.054,vts_reward_expectancy_bt,2022.2.4,Win32,120.3659124,Chrome,1920,1080,,,,,0,801,,,,,,,,,,,,,,,,,B,132,triangle,1,0,,,3,,,,,,,,,,,,,switch,number,numSwt,j,vtsPrac,23,0,23,0,1,0.6263,,,,,,,,,,,,,,,,,,,,,,,
298069,2022-12-04_17h21.35.054,vts_reward_expectancy_bt,2022.2.4,Win32,120.3659124,Chrome,1920,1080,,,,,0,801,,,,,,,,,,,,,,,,,D,174,triangle,1,0,,,3,,,,,,,,,,,,,switch,letter,lettSwt,d,vtsPrac,24,0,24,0,1,0.9009,,,,,,,,,,,,,,,,,,,,,,,
298069,2022-12-04_17h21.35.054,vts_reward_expectancy_bt,2022.2.4,Win32,120.3659124,Chrome,1920,1080,,,,,0,801,,,,,,,,,,,,,,,,,F,160,circle,1,0,,,3,,,,,,,,,,,,,repeat,letter,lettRpt,d,vtsPrac,25,0,25,0,1,1.1954,,,,,,,,,,,,,,,,,,,,,,,
298069,2022-12-04_17h21.35.054,vts_reward_expectancy_bt,2022.2.4,Win32,120.3659124,Chrome,1920,1080,,,,,0,801,,,,,,,,,,,,,,,,,S,125,hexagon,1,0,,,3,,,,,,,,,,,,,repeat,letter,lettRpt,f,vtsPrac,26,0,26,0,1,0.8973,,,,,,,,,,,,,,,,,,,,,,,
298069,2022-12-04_17h21.35.054,vts_reward_expectancy_bt,2022.2.4,Win32,120.3659124,Chrome,1920,1080,,,,,0,801,,,,,,,,,,,,,,,,,W,167,circle,1,0,,,3,,,,,,,,,,,,,repeat,letter,lettRpt,f,vtsPrac,27,0,27,0,1,0.758,,,,,,,,,,,,,,,,,,,,,,,
298069,2022-12-04_17h21.35.054,vts_reward_expectancy_bt,2022.2.4,Win32,120.3659124,Chrome,1920,1080,,,,,0,801,,,,,,,,,,,,,,,,,S,167,star,1,0,,,3,,,,,,,,,,,,,switch,number,numSwt,k,vtsPrac,28,0,28,0,1,0.5249,,,,,,,,,,,,,,,,,,,,,,,
298069,2022-12-04_17h21.35.054,vts_reward_expectancy_bt,2022.2.4,Win32,120.3659124,Chrome,1920,1080,,,,,0,801,,,,,,,,,,,,,,,,,W,160,triangle,1,0,,,3,,,,,,,,,,,,,switch,letter,lettSwt,f,vtsPrac,29,0,29,0,1,1.1163,,,,,,,,,,,,,,,,,,,,,,,
298069,2022-12-04_17h21.35.054,vts_reward_expectancy_bt,2022.2.4,Win32,120.3659124,Chrome,1920,1080,,,,,0,801,,,,,,,,,,,,,,,,,U,125,star,1,0,,,3,,,,,,,,,,,,,repeat,letter,lettRpt,f,vtsPrac,30,0,30,0,1,0.8329,,,,,,,,,,,,,,,,,,,,,,,
298069,2022-12-04_17h21.35.054,vts_reward_expectancy_bt,2022.2.4,Win32,120.3659124,Chrome,1920,1080,,,,,0,801,,,,,,,,,,,,,,,,,Y,174,triangle,1,0,,,3,,,,,,,,,,,,,switch,number,numSwt,k,vtsPrac,31,0,31,0,1,0.7844,,,,,,,,,,,,,,,,,,,,,,,
298069,2022-12-04_17h21.35.054,vts_reward_expectancy_bt,2022.2.4,Win32,120.3659124,Chrome,1920,1080,,,,,,,,,,,,,,,,,,,,,,,,,,,,,,,,,,,,,,,,,,,,,,,,,,,,,,,,,,,,,,,,,,,,,,,,,,,,
298069,2022-12-04_17h21.35.054,vts_reward_expectancy_bt,2022.2.4,Win32,120.3659124,Chrome,1920,1080,,,,,,,,,,,,,,,,,,,,,,,,,,,,,,,,,,,,,,,,,,,,,,,,,,,,,,,,,,,,,,,,,,,,,,,,,,,,
298069,2022-12-04_17h21.35.054,vts_reward_expectancy_bt,2022.2.4,Win32,120.3659124,Chrome,1920,1080,,,,,0,801,,,,,,,,,,,,,,,,,Y,146,circle,0,0,,,,,,,,,,,,,,,,switch,letter,NA,d,noRew,,,,,,1.395,0,0,0,0,0,1,,,,,,,,,,,,,,,,,
298069,2022-12-04_17h21.35.054,vts_reward_expectancy_bt,2022.2.4,Win32,120.3659124,Chrome,1920,1080,,,,,0,801,,,,,,,,,,,,,,,,,B,174,hexagon,1,1,,,,,,,,,,,,,,,,repeat,letter,lettRpt,d,noRew,,,,,,0.7414,0,1,0,1,0,1,,,,,,,,,,,,,,,,,
298069,2022-12-04_17h21.35.054,vts_reward_expectancy_bt,2022.2.4,Win32,120.3659124,Chrome,1920,1080,,,,,0,801,,,,,,,,,,,,,,,,,U,139,circle,1,0,,,,,,,,,,,,,,,,repeat,letter,lettRpt,f,noRew,,,,,,0.6256,0,2,0,2,0,1,,,,,,,,,,,,,,,,,
298069,2022-12-04_17h21.35.054,vts_reward_expectancy_bt,2022.2.4,Win32,120.3659124,Chrome,1920,1080,,,,,0,801,,,,,,,,,,,,,,,,,H,181,hexagon,1,0,,,,,,,,,,,,,,,,switch,number,numSwt,k,noRew,,,,,,0.626,0,3,0,3,0,1,,,,,,,,,,,,,,,,,
298069,2022-12-04_17h21.35.054,vts_reward_expectancy_bt,2022.2.4,Win32,120.3659124,Chrome,1920,1080,,,,,0,801,,,,,,,,,,,,,,,,,Y,146,star,1,0,,,,,,,,,,,,,,,,switch,letter,lettSwt,f,noRew,,,,,,0.5082,0,4,0,4,0,1,,,,,,,,,,,,,,,,,
298069,2022-12-04_17h21.35.054,vts_reward_expectancy_bt,2022.2.4,Win32,120.3659124,Chrome,1920,1080,,,,,0,801,,,,,,,,,,,,,,,,,B,174,hexagon,1,0,,,,,,,,,,,,,,,,switch,number,numSwt,k,noRew,,,,,,0.467,0,5,0,5,0,1,,,,,,,,,,,,,,,,,
298069,2022-12-04_17h21.35.054,vts_reward_expectancy_bt,2022.2.4,Win32,120.3659124,Chrome,1920,1080,,,,,0,801,,,,,,,,,,,,,,,,,U,139,hexagon,0,0,,,,,,,,,,,,,,,,repeat,number,NA,k,noRew,,,,,,0.6666,0,6,0,6,0,1,,,,,,,,,,,,,,,,,
298069,2022-12-04_17h21.35.054,vts_reward_expectancy_bt,2022.2.4,Win32,120.3659124,Chrome,1920,1080,,,,,0,801,,,,,,,,,,,,,,,,,H,181,triangle,1,1,,,,,,,,,,,,,,,,repeat,number,numRpt,k,noRew,,,,,,1.0618,0,7,0,7,0,1,,,,,,,,,,,,,,,,,
298069,2022-12-04_17h21.35.054,vts_reward_expectancy_bt,2022.2.4,Win32,120.3659124,Chrome,1920,1080,,,,,0,801,,,,,,,,,,,,,,,,,H,132,circle,1,0,,,,,,,,,,,,,,,,switch,letter,lettSwt,d,noRew,,,,,,0.9831,0,8,0,8,0,1,,,,,,,,,,,,,,,,,
298069,2022-12-04_17h21.35.054,vts_reward_expectancy_bt,2022.2.4,Win32,120.3659124,Chrome,1920,1080,,,,,0,801,,,,,,,,,,,,,,,,,U,160,hexagon,1,0,,,,,,,,,,,,,,,,switch,number,numSwt,k,noRew,,,,,,0.8463,0,9,0,9,0,1,,,,,,,,,,,,,,,,,
298069,2022-12-04_17h21.35.054,vts_reward_expectancy_bt,2022.2.4,Win32,120.3659124,Chrome,1920,1080,,,,,0,801,,,,,,,,,,,,,,,,,W,174,star,1,0,,,,,,,,,,,,,,,,repeat,number,numRpt,k,noRew,,,,,,0.4768,0,10,0,10,0,1,,,,,,,,,,,,,,,,,
298069,2022-12-04_17h21.35.054,vts_reward_expectancy_bt,2022.2.4,Win32,120.3659124,Chrome,1920,1080,,,,,0,801,,,,,,,,,,,,,,,,,D,125,hexagon,1,0,,,,,,,,,,,,,,,,switch,letter,lettSwt,d,noRew,,,,,,0.6101,0,11,0,11,0,1,,,,,,,,,,,,,,,,,
298069,2022-12-04_17h21.35.054,vts_reward_expectancy_bt,2022.2.4,Win32,120.3659124,Chrome,1920,1080,,,,,0,801,,,,,,,,,,,,,,,,,Y,174,hexagon,1,0,,,,,,,,,,,,,,,,repeat,letter,lettRpt,f,noRew,,,,,,1.0549,0,12,0,12,0,1,,,,,,,,,,,,,,,,,
298069,2022-12-04_17h21.35.054,vts_reward_expectancy_bt,2022.2.4,Win32,120.3659124,Chrome,1920,1080,,,,,0,801,,,,,,,,,,,,,,,,,F,167,triangle,1,0,,,,,,,,,,,,,,,,repeat,letter,lettRpt,d,noRew,,,,,,0.8528,0,13,0,13,0,1,,,,,,,,,,,,,,,,,
298069,2022-12-04_17h21.35.054,vts_reward_expectancy_bt,2022.2.4,Win32,120.3659124,Chrome,1920,1080,,,,,0,801,,,,,,,,,,,,,,,,,U,125,circle,1,0,,,,,,,,,,,,,,,,switch,number,numSwt,j,noRew,,,,,,0.4594,0,14,0,14,0,1,,,,,,,,,,,,,,,,,
298069,2022-12-04_17h21.35.054,vts_reward_expectancy_bt,2022.2.4,Win32,120.3659124,Chrome,1920,1080,,,,,0,801,,,,,,,,,,,,,,,,,H,160,star,1,0,,,,,,,,,,,,,,,,repeat,number,numRpt,k,noRew,,,,,,0.8619,0,15,0,15,0,1,,,,,,,,,,,,,,,,,
298069,2022-12-04_17h21.35.054,vts_reward_expectancy_bt,2022.2.4,Win32,120.3659124,Chrome,1920,1080,,,,,0,801,,,,,,,,,,,,,,,,,B,146,star,1,0,,,,,,,,,,,,,,,,switch,letter,lettSwt,d,noRew,,,,,,0.5202,0,16,0,16,0,1,,,,,,,,,,,,,,,,,
298069,2022-12-04_17h21.35.054,vts_reward_expectancy_bt,2022.2.4,Win32,120.3659124,Chrome,1920,1080,,,,,0,801,,,,,,,,,,,,,,,,,H,160,circle,1,0,,,,,,,,,,,,,,,,repeat,letter,lettRpt,d,noRew,,,,,,0.6833,0,17,0,17,0,1,,,,,,,,,,,,,,,,,
298069,2022-12-04_17h21.35.054,vts_reward_expectancy_bt,2022.2.4,Win32,120.3659124,Chrome,1920,1080,,,,,0,801,,,,,,,,,,,,,,,,,D,181,hexagon,1,0,,,,,,,,,,,,,,,,repeat,letter,lettRpt,d,noRew,,,,,,0.5195,0,18,0,18,0,1,,,,,,,,,,,,,,,,,
298069,2022-12-04_17h21.35.054,vts_reward_expectancy_bt,2022.2.4,Win32,120.3659124,Chrome,1920,1080,,,,,0,801,,,,,,,,,,,,,,,,,F,174,triangle,1,0,,,,,,,,,,,,,,,,switch,number,numSwt,k,noRew,,,,,,0.5999,0,19,0,19,0,1,,,,,,,,,,,,,,,,,
298069,2022-12-04_17h21.35.054,vts_reward_expectancy_bt,2022.2.4,Win32,120.3659124,Chrome,1920,1080,,,,,0,801,,,,,,,,,,,,,,,,,W,125,star,1,0,,,,,,,,,,,,,,,,repeat,number,numRpt,j,noRew,,,,,,0.7582,0,20,0,20,0,1,,,,,,,,,,,,,,,,,
298069,2022-12-04_17h21.35.054,vts_reward_expectancy_bt,2022.2.4,Win32,120.3659124,Chrome,1920,1080,,,,,0,801,,,,,,,,,,,,,,,,,F,146,hexagon,1,0,,,,,,,,,,,,,,,,switch,letter,lettSwt,d,noRew,,,,,,0.7416,0,21,0,21,0,1,,,,,,,,,,,,,,,,,
298069,2022-12-04_17h21.35.054,vts_reward_expectancy_bt,2022.2.4,Win32,120.3659124,Chrome,1920,1080,,,,,0,801,,,,,,,,,,,,,,,,,D,181,circle,1,0,,,,,,,,,,,,,,,,switch,number,numSwt,k,noRew,,,,,,0.8746,0,22,0,22,0,1,,,,,,,,,,,,,,,,,
298069,2022-12-04_17h21.35.054,vts_reward_expectancy_bt,2022.2.4,Win32,120.3659124,Chrome,1920,1080,,,,,0,801,,,,,,,,,,,,,,,,,Y,167,star,1,0,,,,,,,,,,,,,,,,switch,letter,lettSwt,f,noRew,,,,,,1.1504,0,23,0,23,0,1,,,,,,,,,,,,,,,,,
298069,2022-12-04_17h21.35.054,vts_reward_expectancy_bt,2022.2.4,Win32,120.3659124,Chrome,1920,1080,,,,,0,801,,,,,,,,,,,,,,,,,D,167,circle,1,0,,,,,,,,,,,,,,,,repeat,letter,lettRpt,d,noRew,,,,,,0.6291,0,24,0,24,0,1,,,,,,,,,,,,,,,,,
298069,2022-12-04_17h21.35.054,vts_reward_expectancy_bt,2022.2.4,Win32,120.3659124,Chrome,1920,1080,,,,,0,801,,,,,,,,,,,,,,,,,H,125,star,1,0,,,,,,,,,,,,,,,,repeat,letter,lettRpt,d,noRew,,,,,,0.5198,0,25,0,25,0,1,,,,,,,,,,,,,,,,,
298069,2022-12-04_17h21.35.054,vts_reward_expectancy_bt,2022.2.4,Win32,120.3659124,Chrome,1920,1080,,,,,0,801,,,,,,,,,,,,,,,,,F,139,hexagon,1,0,,,,,,,,,,,,,,,,switch,number,numSwt,j,noRew,,,,,,0.4085,0,26,0,26,0,1,,,,,,,,,,,,,,,,,
298069,2022-12-04_17h21.35.054,vts_reward_expectancy_bt,2022.2.4,Win32,120.3659124,Chrome,1920,1080,,,,,0,801,,,,,,,,,,,,,,,,,S,181,star,1,0,,,,,,,,,,,,,,,,repeat,number,numRpt,k,noRew,,,,,,0.669,0,27,0,27,0,1,,,,,,,,,,,,,,,,,
298069,2022-12-04_17h21.35.054,vts_reward_expectancy_bt,2022.2.4,Win32,120.3659124,Chrome,1920,1080,,,,,0,801,,,,,,,,,,,,,,,,,B,167,star,1,0,,,,,,,,,,,,,,,,switch,letter,lettSwt,d,noRew,,,,,,0.4599,0,28,0,28,0,1,,,,,,,,,,,,,,,,,
298069,2022-12-04_17h21.35.054,vts_reward_expectancy_bt,2022.2.4,Win32,120.3659124,Chrome,1920,1080,,,,,0,801,,,,,,,,,,,,,,,,,Y,181,triangle,1,0,,,,,,,,,,,,,,,,switch,number,numSwt,k,noRew,,,,,,0.5588,0,29,0,29,0,1,,,,,,,,,,,,,,,,,
298069,2022-12-04_17h21.35.054,vts_reward_expectancy_bt,2022.2.4,Win32,120.3659124,Chrome,1920,1080,,,,,0,801,,,,,,,,,,,,,,,,,D,125,circle,1,0,,,,,,,,,,,,,,,,repeat,number,numRpt,j,noRew,,,,,,0.4556,0,30,0,30,0,1,,,,,,,,,,,,,,,,,
298069,2022-12-04_17h21.35.054,vts_reward_expectancy_bt,2022.2.4,Win32,120.3659124,Chrome,1920,1080,,,,,0,801,,,,,,,,,,,,,,,,,U,174,hexagon,1,0,,,,,,,,,,,,,,,,repeat,number,numRpt,k,noRew,,,,,,0.6192,0,31,0,31,0,1,,,,,,,,,,,,,,,,,
298069,2022-12-04_17h21.35.054,vts_reward_expectancy_bt,2022.2.4,Win32,120.3659124,Chrome,1920,1080,,,,,0,801,,,,,,,,,,,,,,,,,B,167,circle,1,0,,,,,,,,,,,,,,,,switch,letter,lettSwt,d,noRew,,,,,,0.5539,0,32,0,32,0,1,,,,,,,,,,,,,,,,,
298069,2022-12-04_17h21.35.054,vts_reward_expectancy_bt,2022.2.4,Win32,120.3659124,Chrome,1920,1080,,,,,0,801,,,,,,,,,,,,,,,,,H,125,triangle,1,0,,,,,,,,,,,,,,,,repeat,letter,lettRpt,d,noRew,,,,,,0.783,0,33,0,33,0,1,,,,,,,,,,,,,,,,,
298069,2022-12-04_17h21.35.054,vts_reward_expectancy_bt,2022.2.4,Win32,120.3659124,Chrome,1920,1080,,,,,0,801,,,,,,,,,,,,,,,,,F,181,hexagon,1,0,,,,,,,,,,,,,,,,switch,number,numSwt,k,noRew,,,,,,0.5773,0,34,0,34,0,1,,,,,,,,,,,,,,,,,
298069,2022-12-04_17h21.35.054,vts_reward_expectancy_bt,2022.2.4,Win32,120.3659124,Chrome,1920,1080,,,,,0,801,,,,,,,,,,,,,,,,,U,139,triangle,1,0,,,,,,,,,,,,,,,,repeat,number,numRpt,j,noRew,,,,,,0.4615,0,35,0,35,0,1,,,,,,,,,,,,,,,,,
298069,2022-12-04_17h21.35.054,vts_reward_expectancy_bt,2022.2.4,Win32,120.3659124,Chrome,1920,1080,,,,,0,801,,,,,,,,,,,,,,,,,W,139,star,1,0,,,,,,,,,,,,,,,,switch,letter,lettSwt,f,noRew,,,,,,1.2495,0,36,0,36,0,1,,,,,,,,,,,,,,,,,
298069,2022-12-04_17h21.35.054,vts_reward_expectancy_bt,2022.2.4,Win32,120.3659124,Chrome,1920,1080,,,,,0,801,,,,,,,,,,,,,,,,,U,132,hexagon,1,0,,,,,,,,,,,,,,,,switch,number,numSwt,j,noRew,,,,,,0.7251,0,37,0,37,0,1,,,,,,,,,,,,,,,,,
298069,2022-12-04_17h21.35.054,vts_reward_expectancy_bt,2022.2.4,Win32,120.3659124,Chrome,1920,1080,,,,,0,801,,,,,,,,,,,,,,,,,B,181,hexagon,1,0,,,,,,,,,,,,,,,,repeat,number,numRpt,k,noRew,,,,,,0.8422,0,38,0,38,0,1,,,,,,,,,,,,,,,,,
298069,2022-12-04_17h21.35.054,vts_reward_expectancy_bt,2022.2.4,Win32,120.3659124,Chrome,1920,1080,,,,,0,801,,,,,,,,,,,,,,,,,H,125,circle,1,0,,,,,,,,,,,,,,,,switch,letter,lettSwt,d,noRew,,,,,,0.735,0,39,0,39,0,1,,,,,,,,,,,,,,,,,
298069,2022-12-04_17h21.35.054,vts_reward_expectancy_bt,2022.2.4,Win32,120.3659124,Chrome,1920,1080,,,,,0,801,,,,,,,,,,,,,,,,,B,167,circle,1,0,,,,,,,,,,,,,,,,repeat,letter,lettRpt,d,noRew,,,,,,0.8383,0,40,0,40,0,1,,,,,,,,,,,,,,,,,
298069,2022-12-04_17h21.35.054,vts_reward_expectancy_bt,2022.2.4,Win32,120.3659124,Chrome,1920,1080,,,,,0,801,,,,,,,,,,,,,,,,,D,146,triangle,1,0,,,,,,,,,,,,,,,,repeat,letter,lettRpt,d,noRew,,,,,,0.5506,0,41,0,41,0,1,,,,,,,,,,,,,,,,,
298069,2022-12-04_17h21.35.054,vts_reward_expectancy_bt,2022.2.4,Win32,120.3659124,Chrome,1920,1080,,,,,0,801,,,,,,,,,,,,,,,,,U,174,circle,1,0,,,,,,,,,,,,,,,,switch,number,numSwt,k,noRew,,,,,,0.8665,0,42,0,42,0,1,,,,,,,,,,,,,,,,,
298069,2022-12-04_17h21.35.054,vts_reward_expectancy_bt,2022.2.4,Win32,120.3659124,Chrome,1920,1080,,,,,0,801,,,,,,,,,,,,,,,,,F,139,triangle,1,0,,,,,,,,,,,,,,,,switch,letter,lettSwt,d,noRew,,,,,,0.9764,0,43,0,43,0,1,,,,,,,,,,,,,,,,,
298069,2022-12-04_17h21.35.054,vts_reward_expectancy_bt,2022.2.4,Win32,120.3659124,Chrome,1920,1080,,,,,0,801,,,,,,,,,,,,,,,,,U,167,circle,1,0,,,,,,,,,,,,,,,,switch,number,numSwt,k,noRew,,,,,,0.6334,0,44,0,44,0,1,,,,,,,,,,,,,,,,,
298069,2022-12-04_17h21.35.054,vts_reward_expectancy_bt,2022.2.4,Win32,120.3659124,Chrome,1920,1080,,,,,0,801,,,,,,,,,,,,,,,,,F,132,triangle,1,0,,,,,,,,,,,,,,,,repeat,number,numRpt,j,noRew,,,,,,0.741,0,45,0,45,0,1,,,,,,,,,,,,,,,,,
298069,2022-12-04_17h21.35.054,vts_reward_expectancy_bt,2022.2.4,Win32,120.3659124,Chrome,1920,1080,,,,,0,801,,,,,,,,,,,,,,,,,W,125,star,1,0,,,,,,,,,,,,,,,,repeat,number,numRpt,j,noRew,,,,,,0.7758,0,46,0,46,0,1,,,,,,,,,,,,,,,,,
298069,2022-12-04_17h21.35.054,vts_reward_expectancy_bt,2022.2.4,Win32,120.3659124,Chrome,1920,1080,,,,,0,801,,,,,,,,,,,,,,,,,H,146,circle,1,0,,,,,,,,,,,,,,,,switch,letter,lettSwt,d,noRew,,,,,,0.7415,0,47,0,47,0,1,,,,,,,,,,,,,,,,,
298069,2022-12-04_17h21.35.054,vts_reward_expectancy_bt,2022.2.4,Win32,120.3659124,Chrome,1920,1080,,,,,0,801,,,,,,,,,,,,,,,,,H,139,star,1,0,,,,,,,,,,,,,,,,repeat,letter,lettRpt,d,noRew,,,,,,0.7085,0,48,0,48,0,1,,,,,,,,,,,,,,,,,
298069,2022-12-04_17h21.35.054,vts_reward_expectancy_bt,2022.2.4,Win32,120.3659124,Chrome,1920,1080,,,,,0,801,,,,,,,,,,,,,,,,,B,181,hexagon,1,0,,,,,,,,,,,,,,,,switch,number,numSwt,k,noRew,,,,,,0.6035,0,49,0,49,0,1,,,,,,,,,,,,,,,,,
298069,2022-12-04_17h21.35.054,vts_reward_expectancy_bt,2022.2.4,Win32,120.3659124,Chrome,1920,1080,,,,,0,801,,,,,,,,,,,,,,,,,F,146,hexagon,1,0,,,,,,,,,,,,,,,,repeat,number,numRpt,j,noRew,,,,,,0.8,0,50,0,50,0,1,,,,,,,,,,,,,,,,,
298069,2022-12-04_17h21.35.054,vts_reward_expectancy_bt,2022.2.4,Win32,120.3659124,Chrome,1920,1080,,,,,0,801,,,,,,,,,,,,,,,,,S,160,star,1,0,,,,,,,,,,,,,,,,switch,letter,lettSwt,f,noRew,,,,,,0.7294,0,51,0,51,0,1,,,,,,,,,,,,,,,,,
298069,2022-12-04_17h21.35.054,vts_reward_expectancy_bt,2022.2.4,Win32,120.3659124,Chrome,1920,1080,,,,,0,801,,,,,,,,,,,,,,,,,S,181,circle,1,0,,,,,,,,,,,,,,,,switch,number,numSwt,k,noRew,,,,,,0.6543,0,52,0,52,0,1,,,,,,,,,,,,,,,,,
298069,2022-12-04_17h21.35.054,vts_reward_expectancy_bt,2022.2.4,Win32,120.3659124,Chrome,1920,1080,,,,,0,801,,,,,,,,,,,,,,,,,W,146,triangle,1,0,,,,,,,,,,,,,,,,repeat,number,numRpt,j,noRew,,,,,,0.86,0,53,0,53,0,1,,,,,,,,,,,,,,,,,
298069,2022-12-04_17h21.35.054,vts_reward_expectancy_bt,2022.2.4,Win32,120.3659124,Chrome,1920,1080,,,,,0,801,,,,,,,,,,,,,,,,,D,174,triangle,1,0,,,,,,,,,,,,,,,,repeat,number,numRpt,k,noRew,,,,,,0.6356,0,54,0,54,0,1,,,,,,,,,,,,,,,,,
298069,2022-12-04_17h21.35.054,vts_reward_expectancy_bt,2022.2.4,Win32,120.3659124,Chrome,1920,1080,,,,,0,801,,,,,,,,,,,,,,,,,Y,132,star,1,0,,,,,,,,,,,,,,,,switch,letter,lettSwt,f,noRew,,,,,,1.2432,0,55,0,55,0,1,,,,,,,,,,,,,,,,,
298069,2022-12-04_17h21.35.054,vts_reward_expectancy_bt,2022.2.4,Win32,120.3659124,Chrome,1920,1080,,,,,0,801,,,,,,,,,,,,,,,,,U,132,circle,1,0,,,,,,,,,,,,,,,,switch,number,numSwt,j,noRew,,,,,,0.9583,0,56,0,56,0,1,,,,,,,,,,,,,,,,,
298069,2022-12-04_17h21.35.054,vts_reward_expectancy_bt,2022.2.4,Win32,120.3659124,Chrome,1920,1080,,,,,0,801,,,,,,,,,,,,,,,,,W,174,triangle,1,0,,,,,,,,,,,,,,,,switch,letter,lettSwt,f,noRew,,,,,,0.6385,0,57,0,57,0,1,,,,,,,,,,,,,,,,,
298069,2022-12-04_17h21.35.054,vts_reward_expectancy_bt,2022.2.4,Win32,120.3659124,Chrome,1920,1080,,,,,0,801,,,,,,,,,,,,,,,,,B,181,star,1,0,,,,,,,,,,,,,,,,repeat,letter,lettRpt,d,noRew,,,,,,0.6122,0,58,0,58,0,1,,,,,,,,,,,,,,,,,
298069,2022-12-04_17h21.35.054,vts_reward_expectancy_bt,2022.2.4,Win32,120.3659124,Chrome,1920,1080,,,,,0,801,,,,,,,,,,,,,,,,,F,139,circle,1,0,,,,,,,,,,,,,,,,repeat,letter,lettRpt,d,noRew,,,,,,0.9102,0,59,0,59,0,1,,,,,,,,,,,,,,,,,
298069,2022-12-04_17h21.35.054,vts_reward_expectancy_bt,2022.2.4,Win32,120.3659124,Chrome,1920,1080,,,,,0,801,,,,,,,,,,,,,,,,,H,160,star,1,0,,,,,,,,,,,,,,,,repeat,letter,lettRpt,d,noRew,,,,,,0.6695,0,60,0,60,0,1,,,,,,,,,,,,,,,,,
298069,2022-12-04_17h21.35.054,vts_reward_expectancy_bt,2022.2.4,Win32,120.3659124,Chrome,1920,1080,,,,,0,801,,,,,,,,,,,,,,,,,S,167,triangle,1,0,,,,,,,,,,,,,,,,switch,number,numSwt,k,noRew,,,,,,0.8119,0,61,0,61,0,1,,,,,,,,,,,,,,,,,
298069,2022-12-04_17h21.35.054,vts_reward_expectancy_bt,2022.2.4,Win32,120.3659124,Chrome,1920,1080,,,,,0,801,,,,,,,,,,,,,,,,,U,146,circle,1,0,,,,,,,,,,,,,,,,repeat,number,numRpt,j,noRew,,,,,,0.7043,0,62,0,62,0,1,,,,,,,,,,,,,,,,,
298069,2022-12-04_17h21.35.054,vts_reward_expectancy_bt,2022.2.4,Win32,120.3659124,Chrome,1920,1080,,,,,0,801,,,,,,,,,,,,,,,,,F,181,star,1,0,,,,,,,,,,,,,,,,switch,letter,lettSwt,d,noRew,,,,,,0.8367,0,63,0,63,0,1,,,,,,,,,,,,,,,,,
298069,2022-12-04_17h21.35.054,vts_reward_expectancy_bt,2022.2.4,Win32,120.3659124,Chrome,1920,1080,,,,,,,,,,,,,,,,,,,,,,,,,,,,,,,,,,,,,,,,,,,,,,,,,,,,,,,,,,,,,,,,,,,,,,,,,,,,
298069,2022-12-04_17h21.35.054,vts_reward_expectancy_bt,2022.2.4,Win32,120.3659124,Chrome,1920,1080,,,,,1,802,,,,,,,,,,,,,,,,,Y,181,triangle,1,0,,,,,,,,,,,,,,,,repeat,letter,lettRpt,f,Lo,,,,,,1.6249,0,,,,,,space,9.2193,high,0,0,0,0,1,,,,,,,,,
298069,2022-12-04_17h21.35.054,vts_reward_expectancy_bt,2022.2.4,Win32,120.3659124,Chrome,1920,1080,,,,,0,802,,,,,,,,,,,,,,,,,S,160,star,1,0,,,,,,,,,,,,,,,,switch,number,numSwt,k,Hi,,,,,,0.7415,0,,,,,,,,high,1,0,1,0,1,,,,,,,,,
298069,2022-12-04_17h21.35.054,vts_reward_expectancy_bt,2022.2.4,Win32,120.3659124,Chrome,1920,1080,,,,,1,803,,,,,,,,,,,,,,,,,B,125,hexagon,1,0,,,,,,,,,,,,,,,,repeat,number,numRpt,j,Lo,,,,,,0.4334,0,,,,,,,,high,2,0,2,0,1,,,,,,,,,
298069,2022-12-04_17h21.35.054,vts_reward_expectancy_bt,2022.2.4,Win32,120.3659124,Chrome,1920,1080,,,,,10,813,,,,,,,,,,,,,,,,,F,146,circle,1,0,,,,,,,,,,,,,,,,switch,letter,lettSwt,d,Hi,,,,,,0.5432,0,,,,,,,,high,3,0,3,0,1,,,,,,,,,
298069,2022-12-04_17h21.35.054,vts_reward_expectancy_bt,2022.2.4,Win32,120.3659124,Chrome,1920,1080,,,,,1,814,,,,,,,,,,,,,,,,,D,139,triangle,1,0,,,,,,,,,,,,,,,,switch,number,numSwt,j,Lo,,,,,,0.4371,0,,,,,,,,high,4,0,4,0,1,,,,,,,,,
298069,2022-12-04_17h21.35.054,vts_reward_expectancy_bt,2022.2.4,Win32,120.3659124,Chrome,1920,1080,,,,,10,824,,,,,,,,,,,,,,,,,H,132,star,1,0,,,,,,,,,,,,,,,,repeat,number,numRpt,j,Hi,,,,,,0.4414,0,,,,,,,,high,5,0,5,0,1,,,,,,,,,
298069,2022-12-04_17h21.35.054,vts_reward_expectancy_bt,2022.2.4,Win32,120.3659124,Chrome,1920,1080,,,,,10,834,,,,,,,,,,,,,,,,,U,174,hexagon,1,0,,,,,,,,,,,,,,,,switch,letter,lettSwt,f,Lo,,,,,,0.5667,0,,,,,,,,high,6,0,6,0,1,,,,,,,,,
298069,2022-12-04_17h21.35.054,vts_reward_expectancy_bt,2022.2.4,Win32,120.3659124,Chrome,1920,1080,,,,,10,844,,,,,,,,,,,,,,,,,W,167,circle,1,0,,,,,,,,,,,,,,,,switch,number,numSwt,k,Hi,,,,,,0.3331,0,,,,,,,,high,7,0,7,0,1,,,,,,,,,
298069,2022-12-04_17h21.35.054,vts_reward_expectancy_bt,2022.2.4,Win32,120.3659124,Chrome,1920,1080,,,,,1,845,,,,,,,,,,,,,,,,,Y,181,hexagon,1,0,,,,,,,,,,,,,,,,switch,letter,lettSwt,f,Lo,,,,,,0.5497,0,,,,,,,,high,8,0,8,0,1,,,,,,,,,
298069,2022-12-04_17h21.35.054,vts_reward_expectancy_bt,2022.2.4,Win32,120.3659124,Chrome,1920,1080,,,,,10,855,,,,,,,,,,,,,,,,,S,160,circle,1,0,,,,,,,,,,,,,,,,switch,number,numSwt,k,Hi,,,,,,0.4775,0,,,,,,,,high,9,0,9,0,1,,,,,,,,,
298069,2022-12-04_17h21.35.054,vts_reward_expectancy_bt,2022.2.4,Win32,120.3659124,Chrome,1920,1080,,,,,10,865,,,,,,,,,,,,,,,,,B,125,star,1,0,,,,,,,,,,,,,,,,repeat,number,numRpt,j,Hi,,,,,,0.3607,0,,,,,,,,high,10,0,10,0,1,,,,,,,,,
298069,2022-12-04_17h21.35.054,vts_reward_expectancy_bt,2022.2.4,Win32,120.3659124,Chrome,1920,1080,,,,,1,866,,,,,,,,,,,,,,,,,F,146,triangle,1,0,,,,,,,,,,,,,,,,switch,letter,lettSwt,d,Lo,,,,,,0.6724,0,,,,,,,,high,11,0,11,0,1,,,,,,,,,
298069,2022-12-04_17h21.35.054,vts_reward_expectancy_bt,2022.2.4,Win32,120.3659124,Chrome,1920,1080,,,,,10,876,,,,,,,,,,,,,,,,,D,139,circle,1,0,,,,,,,,,,,,,,,,repeat,letter,lettRpt,d,Hi,,,,,,0.4918,0,,,,,,,,high,12,0,12,0,1,,,,,,,,,
298069,2022-12-04_17h21.35.054,vts_reward_expectancy_bt,2022.2.4,Win32,120.3659124,Chrome,1920,1080,,,,,1,877,,,,,,,,,,,,,,,,,H,132,triangle,1,0,,,,,,,,,,,,,,,,switch,number,numSwt,j,Lo,,,,,,0.5595,0,,,,,,,,high,13,0,13,0,1,,,,,,,,,
298069,2022-12-04_17h21.35.054,vts_reward_expectancy_bt,2022.2.4,Win32,120.3659124,Chrome,1920,1080,,,,,1,878,,,,,,,,,,,,,,,,,U,174,hexagon,1,0,,,,,,,,,,,,,,,,repeat,number,numRpt,k,Lo,,,,,,0.47,0,,,,,,,,high,14,0,14,0,1,,,,,,,,,
298069,2022-12-04_17h21.35.054,vts_reward_expectancy_bt,2022.2.4,Win32,120.3659124,Chrome,1920,1080,,,,,10,888,,,,,,,,,,,,,,,,,W,167,star,1,0,,,,,,,,,,,,,,,,repeat,number,numRpt,k,Hi,,,,,,0.4298,0,,,,,,,,high,15,0,15,0,1,,,,,,,,,
298069,2022-12-04_17h21.35.054,vts_reward_expectancy_bt,2022.2.4,Win32,120.3659124,Chrome,1920,1080,,,,,1,889,,,,,,,,,,,,,,,,,B,174,hexagon,1,0,,,,,,,,,,,,,,,,switch,letter,lettSwt,d,Lo,,,,,,0.6948,0,,,,,,,,high,16,0,16,0,1,,,,,,,,,
298069,2022-12-04_17h21.35.054,vts_reward_expectancy_bt,2022.2.4,Win32,120.3659124,Chrome,1920,1080,,,,,1,890,,,,,,,,,,,,,,,,,D,125,star,1,0,,,,,,,,,,,,,,,,switch,number,numSwt,j,Hi,,,,,,0.4755,0,,,,,,,,high,17,0,17,0,1,,,,,,,,,
298069,2022-12-04_17h21.35.054,vts_reward_expectancy_bt,2022.2.4,Win32,120.3659124,Chrome,1920,1080,,,,,10,900,,,,,,,,,,,,,,,,,F,167,triangle,1,0,,,,,,,,,,,,,,,,repeat,number,numRpt,k,Lo,,,,,,0.4277,0,,,,,,,,high,18,0,18,0,1,,,,,,,,,
298069,2022-12-04_17h21.35.054,vts_reward_expectancy_bt,2022.2.4,Win32,120.3659124,Chrome,1920,1080,,,,,10,910,,,,,,,,,,,,,,,,,H,146,circle,1,0,,,,,,,,,,,,,,,,switch,letter,lettSwt,d,Hi,,,,,,0.5458,0,,,,,,,,high,19,0,19,0,1,,,,,,,,,
298069,2022-12-04_17h21.35.054,vts_reward_expectancy_bt,2022.2.4,Win32,120.3659124,Chrome,1920,1080,,,,,0,910,,,,,,,,,,,,,,,,,Y,181,circle,1,0,,,,,,,,,,,,,,,,repeat,letter,lettRpt,f,Hi,,,,,,0.683,0,,,,,,,,high,20,0,20,0,1,,,,,,,,,
298069,2022-12-04_17h21.35.054,vts_reward_expectancy_bt,2022.2.4,Win32,120.3659124,Chrome,1920,1080,,,,,0,910,,,,,,,,,,,,,,,,,W,139,star,0,0,,,,,,,,,,,,,,,,repeat,letter,NA,d,Hi,,,,,,0.8174,0,,,,,,,,high,21,0,21,0,1,,,,,,,,,
298069,2022-12-04_17h21.35.054,vts_reward_expectancy_bt,2022.2.4,Win32,120.3659124,Chrome,1920,1080,,,,,1,911,,,,,,,,,,,,,,,,,U,132,hexagon,1,1,,,,,,,,,,,,,,,,repeat,letter,lettRpt,f,Lo,,,,,,0.7787,0,,,,,,,,high,22,0,22,0,1,,,,,,,,,
298069,2022-12-04_17h21.35.054,vts_reward_expectancy_bt,2022.2.4,Win32,120.3659124,Chrome,1920,1080,,,,,10,921,,,,,,,,,,,,,,,,,S,160,triangle,1,0,,,,,,,,,,,,,,,,switch,number,numSwt,k,Lo,,,,,,0.8332,0,,,,,,,,high,23,0,23,0,1,,,,,,,,,
298069,2022-12-04_17h21.35.054,vts_reward_expectancy_bt,2022.2.4,Win32,120.3659124,Chrome,1920,1080,,,,,10,931,,,,,,,,,,,,,,,,,B,174,hexagon,1,0,,,,,,,,,,,,,,,,repeat,number,numRpt,k,Lo,,,,,,0.3617,0,,,,,,,,high,24,0,24,0,1,,,,,,,,,
298069,2022-12-04_17h21.35.054,vts_reward_expectancy_bt,2022.2.4,Win32,120.3659124,Chrome,1920,1080,,,,,10,941,,,,,,,,,,,,,,,,,S,167,circle,1,0,,,,,,,,,,,,,,,,repeat,number,numRpt,k,Hi,,,,,,0.4589,0,,,,,,,,high,25,0,25,0,1,,,,,,,,,
298069,2022-12-04_17h21.35.054,vts_reward_expectancy_bt,2022.2.4,Win32,120.3659124,Chrome,1920,1080,,,,,1,942,,,,,,,,,,,,,,,,,F,160,triangle,1,0,,,,,,,,,,,,,,,,repeat,number,numRpt,k,Lo,,,,,,0.3666,0,,,,,,,,high,26,0,26,0,1,,,,,,,,,
298069,2022-12-04_17h21.35.054,vts_reward_expectancy_bt,2022.2.4,Win32,120.3659124,Chrome,1920,1080,,,,,1,943,,,,,,,,,,,,,,,,,W,139,star,1,0,,,,,,,,,,,,,,,,repeat,number,numRpt,j,Hi,,,,,,0.3516,0,,,,,,,,high,27,0,27,0,1,,,,,,,,,
298069,2022-12-04_17h21.35.054,vts_reward_expectancy_bt,2022.2.4,Win32,120.3659124,Chrome,1920,1080,,,,,1,944,,,,,,,,,,,,,,,,,U,132,hexagon,1,0,,,,,,,,,,,,,,,,repeat,number,numRpt,j,Lo,,,,,,0.4832,0,,,,,,,,high,28,0,28,0,1,,,,,,,,,
298069,2022-12-04_17h21.35.054,vts_reward_expectancy_bt,2022.2.4,Win32,120.3659124,Chrome,1920,1080,,,,,1,945,,,,,,,,,,,,,,,,,Y,146,triangle,1,0,,,,,,,,,,,,,,,,repeat,number,numRpt,j,Lo,,,,,,0.4835,0,,,,,,,,high,29,0,29,0,1,,,,,,,,,
298069,2022-12-04_17h21.35.054,vts_reward_expectancy_bt,2022.2.4,Win32,120.3659124,Chrome,1920,1080,,,,,10,955,,,,,,,,,,,,,,,,,H,181,star,1,0,,,,,,,,,,,,,,,,repeat,number,numRpt,k,Hi,,,,,,0.4076,0,,,,,,,,high,30,0,30,0,1,,,,,,,,,
298069,2022-12-04_17h21.35.054,vts_reward_expectancy_bt,2022.2.4,Win32,120.3659124,Chrome,1920,1080,,,,,1,956,,,,,,,,,,,,,,,,,D,125,circle,1,0,,,,,,,,,,,,,,,,repeat,number,numRpt,j,Hi,,,,,,0.3342,0,,,,,,,,high,31,0,31,0,1,,,,,,,,,
298069,2022-12-04_17h21.35.054,vts_reward_expectancy_bt,2022.2.4,Win32,120.3659124,Chrome,1920,1080,,,,,1,957,,,,,,,,,,,,,,,,,F,174,hexagon,1,0,,,,,,,,,,,,,,,,switch,letter,lettSwt,d,Lo,,,,,,0.843,1,,,,,,space,547.1731,high,0,0,0,0,1,,,,,,,,,
298069,2022-12-04_17h21.35.054,vts_reward_expectancy_bt,2022.2.4,Win32,120.3659124,Chrome,1920,1080,,,,,1,958,,,,,,,,,,,,,,,,,S,146,triangle,1,0,,,,,,,,,,,,,,,,switch,number,numSwt,j,Lo,,,,,,0.51,1,,,,,,,,high,1,0,1,0,1,,,,,,,,,
298069,2022-12-04_17h21.35.054,vts_reward_expectancy_bt,2022.2.4,Win32,120.3659124,Chrome,1920,1080,,,,,0,958,,,,,,,,,,,,,,,,,D,139,circle,1,0,,,,,,,,,,,,,,,,repeat,number,numRpt,j,Hi,,,,,,0.5666,1,,,,,,,,high,2,0,2,0,1,,,,,,,,,
298069,2022-12-04_17h21.35.054,vts_reward_expectancy_bt,2022.2.4,Win32,120.3659124,Chrome,1920,1080,,,,,0,958,,,,,,,,,,,,,,,,,U,125,star,1,0,,,,,,,,,,,,,,,,repeat,number,numRpt,j,Hi,,,,,,0.4351,1,,,,,,,,high,3,0,3,0,1,,,,,,,,,
298069,2022-12-04_17h21.35.054,vts_reward_expectancy_bt,2022.2.4,Win32,120.3659124,Chrome,1920,1080,,,,,1,959,,,,,,,,,,,,,,,,,H,167,hexagon,1,0,,,,,,,,,,,,,,,,repeat,number,numRpt,k,Lo,,,,,,0.4162,1,,,,,,,,high,4,0,4,0,1,,,,,,,,,
298069,2022-12-04_17h21.35.054,vts_reward_expectancy_bt,2022.2.4,Win32,120.3659124,Chrome,1920,1080,,,,,1,960,,,,,,,,,,,,,,,,,B,160,triangle,1,0,,,,,,,,,,,,,,,,repeat,number,numRpt,k,Lo,,,,,,0.3672,1,,,,,,,,high,5,0,5,0,1,,,,,,,,,
298069,2022-12-04_17h21.35.054,vts_reward_expectancy_bt,2022.2.4,Win32,120.3659124,Chrome,1920,1080,,,,,10,970,,,,,,,,,,,,,,,,,Y,181,circle,1,0,,,,,,,,,,,,,,,,repeat,number,numRpt,k,Hi,,,,,,0.3676,1,,,,,,,,high,6,0,6,0,1,,,,,,,,,
298069,2022-12-04_17h21.35.054,vts_reward_expectancy_bt,2022.2.4,Win32,120.3659124,Chrome,1920,1080,,,,,10,980,,,,,,,,,,,,,,,,,W,132,star,1,0,,,,,,,,,,,,,,,,repeat,number,numRpt,j,Hi,,,,,,0.2784,1,,,,,,,,high,7,0,7,0,1,,,,,,,,,
298069,2022-12-04_17h21.35.054,vts_reward_expectancy_bt,2022.2.4,Win32,120.3659124,Chrome,1920,1080,,,,,1,981,,,,,,,,,,,,,,,,,F,174,hexagon,1,0,,,,,,,,,,,,,,,,repeat,number,numRpt,k,Lo,,,,,,0.3334,1,,,,,,,,high,8,0,8,0,1,,,,,,,,,
298069,2022-12-04_17h21.35.054,vts_reward_expectancy_bt,2022.2.4,Win32,120.3659124,Chrome,1920,1080,,,,,0,981,,,,,,,,,,,,,,,,,S,146,circle,0,0,,,,,,,,,,,,,,,,repeat,number,NA,k,Lo,,,,,,0.333,1,,,,,,,,high,9,0,9,0,1,,,,,,,,,
298069,2022-12-04_17h21.35.054,vts_reward_expectancy_bt,2022.2.4,Win32,120.3659124,Chrome,1920,1080,,,,,1,982,,,,,,,,,,,,,,,,,D,139,triangle,1,1,,,,,,,,,,,,,,,,repeat,number,numRpt,j,Lo,,,,,,0.3247,1,,,,,,,,high,10,0,10,0,1,,,,,,,,,
298069,2022-12-04_17h21.35.054,vts_reward_expectancy_bt,2022.2.4,Win32,120.3659124,Chrome,1920,1080,,,,,10,992,,,,,,,,,,,,,,,,,U,125,star,1,0,,,,,,,,,,,,,,,,repeat,number,numRpt,j,Hi,,,,,,0.3677,1,,,,,,,,high,11,0,11,0,1,,,,,,,,,
298069,2022-12-04_17h21.35.054,vts_reward_expectancy_bt,2022.2.4,Win32,120.3659124,Chrome,1920,1080,,,,,0,992,,,,,,,,,,,,,,,,,H,167,star,1,0,,,,,,,,,,,,,,,,repeat,number,numRpt,k,Hi,,,,,,0.4619,1,,,,,,,,high,12,0,12,0,1,,,,,,,,,
298069,2022-12-04_17h21.35.054,vts_reward_expectancy_bt,2022.2.4,Win32,120.3659124,Chrome,1920,1080,,,,,0,992,,,,,,,,,,,,,,,,,B,160,circle,1,0,,,,,,,,,,,,,,,,repeat,number,numRpt,k,Hi,,,,,,0.4264,1,,,,,,,,high,13,0,13,0,1,,,,,,,,,
298069,2022-12-04_17h21.35.054,vts_reward_expectancy_bt,2022.2.4,Win32,120.3659124,Chrome,1920,1080,,,,,0,992,,,,,,,,,,,,,,,,,Y,181,triangle,0,0,,,,,,,,,,,,,,,,repeat,number,NA,j,Hi,,,,,,0.4451,1,,,,,,,,high,14,0,14,0,1,,,,,,,,,
298069,2022-12-04_17h21.35.054,vts_reward_expectancy_bt,2022.2.4,Win32,120.3659124,Chrome,1920,1080,,,,,0,992,,,,,,,,,,,,,,,,,W,132,hexagon,0,1,,,,,,,,,,,,,,,,repeat,number,NA,k,Hi,,,,,,0.4247,1,,,,,,,,high,15,0,15,0,1,,,,,,,,,
298069,2022-12-04_17h21.35.054,vts_reward_expectancy_bt,2022.2.4,Win32,120.3659124,Chrome,1920,1080,,,,,1,993,,,,,,,,,,,,,,,,,F,125,circle,1,1,,,,,,,,,,,,,,,,repeat,number,numRpt,j,Hi,,,,,,0.3551,1,,,,,,,,high,16,0,16,0,1,,,,,,,,,
298069,2022-12-04_17h21.35.054,vts_reward_expectancy_bt,2022.2.4,Win32,120.3659124,Chrome,1920,1080,,,,,1,994,,,,,,,,,,,,,,,,,D,146,hexagon,1,0,,,,,,,,,,,,,,,,repeat,number,numRpt,j,Lo,,,,,,0.3757,1,,,,,,,,high,17,0,17,0,1,,,,,,,,,
298069,2022-12-04_17h21.35.054,vts_reward_expectancy_bt,2022.2.4,Win32,120.3659124,Chrome,1920,1080,,,,,0,994,,,,,,,,,,,,,,,,,H,174,triangle,0,0,,,,,,,,,,,,,,,,repeat,number,NA,j,Lo,,,,,,0.2835,1,,,,,,,,high,18,0,18,0,1,,,,,,,,,
298069,2022-12-04_17h21.35.054,vts_reward_expectancy_bt,2022.2.4,Win32,120.3659124,Chrome,1920,1080,,,,,0,994,,,,,,,,,,,,,,,,,W,160,star,1,1,,,,,,,,,,,,,,,,repeat,number,numRpt,k,Hi,,,,,,0.4165,1,,,,,,,,high,19,0,19,0,1,,,,,,,,,
298069,2022-12-04_17h21.35.054,vts_reward_expectancy_bt,2022.2.4,Win32,120.3659124,Chrome,1920,1080,,,,,10,1004,,,,,,,,,,,,,,,,,B,132,circle,1,0,,,,,,,,,,,,,,,,repeat,number,numRpt,j,Hi,,,,,,0.3751,1,,,,,,,,high,20,0,20,0,1,,,,,,,,,
298069,2022-12-04_17h21.35.054,vts_reward_expectancy_bt,2022.2.4,Win32,120.3659124,Chrome,1920,1080,,,,,10,1014,,,,,,,,,,,,,,,,,Y,167,triangle,1,0,,,,,,,,,,,,,,,,repeat,number,numRpt,k,Lo,,,,,,0.2008,1,,,,,,,,high,21,0,21,0,1,,,,,,,,,
298069,2022-12-04_17h21.35.054,vts_reward_expectancy_bt,2022.2.4,Win32,120.3659124,Chrome,1920,1080,,,,,0,1014,,,,,,,,,,,,,,,,,U,181,hexagon,0,0,,,,,,,,,,,,,,,,repeat,number,NA,j,Lo,,,,,,0.2722,1,,,,,,,,high,22,0,22,0,1,,,,,,,,,
298069,2022-12-04_17h21.35.054,vts_reward_expectancy_bt,2022.2.4,Win32,120.3659124,Chrome,1920,1080,,,,,0,1014,,,,,,,,,,,,,,,,,S,139,star,0,1,,,,,,,,,,,,,,,,repeat,number,NA,k,Lo,,,,,,0.0459,1,,,,,,,,high,23,0,23,0,1,,,,,,,,,
298069,2022-12-04_17h21.35.054,vts_reward_expectancy_bt,2022.2.4,Win32,120.3659124,Chrome,1920,1080,,,,,0,1014,,,,,,,,,,,,,,,,,D,125,circle,0,1,,,,,,,,,,,,,,,,repeat,number,NA,k,Lo,,,,,,0.1748,1,,,,,,,,high,24,0,24,0,1,,,,,,,,,
298069,2022-12-04_17h21.35.054,vts_reward_expectancy_bt,2022.2.4,Win32,120.3659124,Chrome,1920,1080,,,,,1,1015,,,,,,,,,,,,,,,,,Y,181,triangle,1,1,,,,,,,,,,,,,,,,repeat,number,numRpt,k,Lo,,,,,,0.1283,1,,,,,,,,high,25,0,25,0,1,,,,,,,,,
298069,2022-12-04_17h21.35.054,vts_reward_expectancy_bt,2022.2.4,Win32,120.3659124,Chrome,1920,1080,,,,,0,1015,,,,,,,,,,,,,,,,,F,146,star,0,0,,,,,,,,,,,,,,,,repeat,number,NA,k,Lo,,,,,,0.0364,1,,,,,,,,high,26,0,26,0,1,,,,,,,,,
298069,2022-12-04_17h21.35.054,vts_reward_expectancy_bt,2022.2.4,Win32,120.3659124,Chrome,1920,1080,,,,,0,1015,,,,,,,,,,,,,,,,,U,160,hexagon,0,1,,,,,,,,,,,,,,,,repeat,number,NA,j,Lo,,,,,,0.5249,1,,,,,,,,high,27,0,27,0,1,,,,,,,,,
298069,2022-12-04_17h21.35.054,vts_reward_expectancy_bt,2022.2.4,Win32,120.3659124,Chrome,1920,1080,,,,,0,1015,,,,,,,,,,,,,,,,,B,167,circle,0,1,,,,,,,,,,,,,,,,repeat,number,NA,j,Lo,,,,,,0.3081,1,,,,,,,,high,28,0,28,0,1,,,,,,,,,
298069,2022-12-04_17h21.35.054,vts_reward_expectancy_bt,2022.2.4,Win32,120.3659124,Chrome,1920,1080,,,,,0,1015,,,,,,,,,,,,,,,,,W,174,star,1,1,,,,,,,,,,,,,,,,repeat,number,numRpt,k,Hi,,,,,,0.4777,1,,,,,,,,high,29,0,29,0,1,,,,,,,,,
298069,2022-12-04_17h21.35.054,vts_reward_expectancy_bt,2022.2.4,Win32,120.3659124,Chrome,1920,1080,,,,,1,1016,,,,,,,,,,,,,,,,,H,132,hexagon,1,0,,,,,,,,,,,,,,,,repeat,number,numRpt,j,Lo,,,,,,0.4111,1,,,,,,,,high,30,0,30,0,1,,,,,,,,,
298069,2022-12-04_17h21.35.054,vts_reward_expectancy_bt,2022.2.4,Win32,120.3659124,Chrome,1920,1080,,,,,0,1016,,,,,,,,,,,,,,,,,S,139,triangle,0,0,,,,,,,,,,,,,,,,repeat,number,NA,k,Lo,,,,,,0.2831,1,,,,,,,,high,31,0,31,0,1,,,,,,,,,
298069,2022-12-04_17h21.35.054,vts_reward_expectancy_bt,2022.2.4,Win32,120.3659124,Chrome,1920,1080,,,,,10,1026,,,,,,,,,,,,,,,,,D,132,circle,1,1,,,,,,,,,,,,,,,,switch,letter,lettSwt,d,Hi,,,,,,0.4441,2,,,,,,space,1.326,high,0,0,0,0,1,,,,,,,,,
298069,2022-12-04_17h21.35.054,vts_reward_expectancy_bt,2022.2.4,Win32,120.3659124,Chrome,1920,1080,,,,,10,1036,,,,,,,,,,,,,,,,,Y,125,star,1,0,,,,,,,,,,,,,,,,repeat,letter,lettRpt,f,Hi,,,,,,0.3454,2,,,,,,,,high,1,0,1,0,1,,,,,,,,,
298069,2022-12-04_17h21.35.054,vts_reward_expectancy_bt,2022.2.4,Win32,120.3659124,Chrome,1920,1080,,,,,1,1037,,,,,,,,,,,,,,,,,B,146,hexagon,1,0,,,,,,,,,,,,,,,,repeat,letter,lettRpt,d,Lo,,,,,,0.3082,2,,,,,,,,high,2,0,2,0,1,,,,,,,,,
298069,2022-12-04_17h21.35.054,vts_reward_expectancy_bt,2022.2.4,Win32,120.3659124,Chrome,1920,1080,,,,,0,1037,,,,,,,,,,,,,,,,,H,139,triangle,0,0,,,,,,,,,,,,,,,,repeat,letter,NA,f,Lo,,,,,,0.3523,2,,,,,,,,high,3,0,3,0,1,,,,,,,,,
298069,2022-12-04_17h21.35.054,vts_reward_expectancy_bt,2022.2.4,Win32,120.3659124,Chrome,1920,1080,,,,,10,1047,,,,,,,,,,,,,,,,,S,174,circle,1,1,,,,,,,,,,,,,,,,repeat,letter,lettRpt,f,Hi,,,,,,0.4468,2,,,,,,,,high,4,0,4,0,1,,,,,,,,,
298069,2022-12-04_17h21.35.054,vts_reward_expectancy_bt,2022.2.4,Win32,120.3659124,Chrome,1920,1080,,,,,0,1047,,,,,,,,,,,,,,,,,W,181,star,0,0,,,,,,,,,,,,,,,,repeat,letter,NA,d,Hi,,,,,,0.3914,2,,,,,,,,high,5,0,5,0,1,,,,,,,,,
298069,2022-12-04_17h21.35.054,vts_reward_expectancy_bt,2022.2.4,Win32,120.3659124,Chrome,1920,1080,,,,,0,1047,,,,,,,,,,,,,,,,,F,160,hexagon,0,1,,,,,,,,,,,,,,,,repeat,letter,NA,f,Hi,,,,,,0.3498,2,,,,,,,,high,6,0,6,0,1,,,,,,,,,
298069,2022-12-04_17h21.35.054,vts_reward_expectancy_bt,2022.2.4,Win32,120.3659124,Chrome,1920,1080,,,,,1,1048,,,,,,,,,,,,,,,,,U,167,triangle,1,1,,,,,,,,,,,,,,,,repeat,letter,lettRpt,f,Lo,,,,,,0.4372,2,,,,,,,,high,7,0,7,0,1,,,,,,,,,
298069,2022-12-04_17h21.35.054,vts_reward_expectancy_bt,2022.2.4,Win32,120.3659124,Chrome,1920,1080,,,,,0,1048,,,,,,,,,,,,,,,,,D,132,hexagon,0,0,,,,,,,,,,,,,,,,repeat,letter,NA,f,Lo,,,,,,0.3687,2,,,,,,,,high,8,0,8,0,1,,,,,,,,,
298069,2022-12-04_17h21.35.054,vts_reward_expectancy_bt,2022.2.4,Win32,120.3659124,Chrome,1920,1080,,,,,10,1058,,,,,,,,,,,,,,,,,Y,125,circle,1,1,,,,,,,,,,,,,,,,repeat,letter,lettRpt,f,Hi,,,,,,0.4294,2,,,,,,,,high,9,0,9,0,1,,,,,,,,,
298069,2022-12-04_17h21.35.054,vts_reward_expectancy_bt,2022.2.4,Win32,120.3659124,Chrome,1920,1080,,,,,1,1059,,,,,,,,,,,,,,,,,B,146,triangle,1,0,,,,,,,,,,,,,,,,repeat,letter,lettRpt,d,Lo,,,,,,0.2715,2,,,,,,,,high,10,0,10,0,1,,,,,,,,,
298069,2022-12-04_17h21.35.054,vts_reward_expectancy_bt,2022.2.4,Win32,120.3659124,Chrome,1920,1080,,,,,0,1059,,,,,,,,,,,,,,,,,H,139,star,0,0,,,,,,,,,,,,,,,,repeat,letter,NA,f,Lo,,,,,,0.1949,2,,,,,,,,high,11,0,11,0,1,,,,,,,,,
298069,2022-12-04_17h21.35.054,vts_reward_expectancy_bt,2022.2.4,Win32,120.3659124,Chrome,1920,1080,,,,,0,1059,,,,,,,,,,,,,,,,,S,174,star,0,1,,,,,,,,,,,,,,,,repeat,letter,NA,d,Lo,,,,,,0.1492,2,,,,,,,,high,12,0,12,0,1,,,,,,,,,
298069,2022-12-04_17h21.35.054,vts_reward_expectancy_bt,2022.2.4,Win32,120.3659124,Chrome,1920,1080,,,,,0,1059,,,,,,,,,,,,,,,,,W,181,hexagon,0,1,,,,,,,,,,,,,,,,repeat,letter,NA,d,Lo,,,,,,0.3917,2,,,,,,,,high,13,0,13,0,1,,,,,,,,,
298069,2022-12-04_17h21.35.054,vts_reward_expectancy_bt,2022.2.4,Win32,120.3659124,Chrome,1920,1080,,,,,1,1060,,,,,,,,,,,,,,,,,F,160,triangle,1,1,,,,,,,,,,,,,,,,repeat,letter,lettRpt,d,Lo,,,,,,0.3582,2,,,,,,,,high,14,0,14,0,1,,,,,,,,,
298069,2022-12-04_17h21.35.054,vts_reward_expectancy_bt,2022.2.4,Win32,120.3659124,Chrome,1920,1080,,,,,10,1070,,,,,,,,,,,,,,,,,U,167,circle,1,0,,,,,,,,,,,,,,,,repeat,letter,lettRpt,f,Hi,,,,,,0.3164,2,,,,,,,,high,15,0,15,0,1,,,,,,,,,
298069,2022-12-04_17h21.35.054,vts_reward_expectancy_bt,2022.2.4,Win32,120.3659124,Chrome,1920,1080,,,,,0,1070,,,,,,,,,,,,,,,,,S,139,star,0,0,,,,,,,,,,,,,,,,repeat,letter,NA,d,Hi,,,,,,0.3181,2,,,,,,,,high,16,0,16,0,1,,,,,,,,,
298069,2022-12-04_17h21.35.054,vts_reward_expectancy_bt,2022.2.4,Win32,120.3659124,Chrome,1920,1080,,,,,0,1070,,,,,,,,,,,,,,,,,Y,174,circle,0,1,,,,,,,,,,,,,,,,repeat,letter,NA,d,Hi,,,,,,0.3443,2,,,,,,,,high,17,0,17,0,1,,,,,,,,,
298069,2022-12-04_17h21.35.054,vts_reward_expectancy_bt,2022.2.4,Win32,120.3659124,Chrome,1920,1080,,,,,1,1071,,,,,,,,,,,,,,,,,B,181,hexagon,1,1,,,,,,,,,,,,,,,,repeat,letter,lettRpt,d,Lo,,,,,,0.3686,2,,,,,,,,high,18,0,18,0,1,,,,,,,,,
298069,2022-12-04_17h21.35.054,vts_reward_expectancy_bt,2022.2.4,Win32,120.3659124,Chrome,1920,1080,,,,,1,1072,,,,,,,,,,,,,,,,,W,146,triangle,1,0,,,,,,,,,,,,,,,,repeat,letter,lettRpt,f,Lo,,,,,,0.3362,2,,,,,,,,high,19,0,19,0,1,,,,,,,,,
298069,2022-12-04_17h21.35.054,vts_reward_expectancy_bt,2022.2.4,Win32,120.3659124,Chrome,1920,1080,,,,,0,1072,,,,,,,,,,,,,,,,,U,132,circle,0,0,,,,,,,,,,,,,,,,repeat,letter,NA,d,Lo,,,,,,0.4299,2,,,,,,,,high,20,0,20,0,1,,,,,,,,,
298069,2022-12-04_17h21.35.054,vts_reward_expectancy_bt,2022.2.4,Win32,120.3659124,Chrome,1920,1080,,,,,0,1072,,,,,,,,,,,,,,,,,H,125,hexagon,0,1,,,,,,,,,,,,,,,,repeat,letter,NA,f,Lo,,,,,,0.35,2,,,,,,,,high,21,0,21,0,1,,,,,,,,,
298069,2022-12-04_17h21.35.054,vts_reward_expectancy_bt,2022.2.4,Win32,120.3659124,Chrome,1920,1080,,,,,0,1072,,,,,,,,,,,,,,,,,D,160,triangle,0,1,,,,,,,,,,,,,,,,repeat,letter,NA,f,Lo,,,,,,0.4121,2,,,,,,,,high,22,0,22,0,1,,,,,,,,,
298069,2022-12-04_17h21.35.054,vts_reward_expectancy_bt,2022.2.4,Win32,120.3659124,Chrome,1920,1080,,,,,0,1072,,,,,,,,,,,,,,,,,F,167,star,0,1,,,,,,,,,,,,,,,,repeat,letter,NA,f,Lo,,,,,,0.333,2,,,,,,,,high,23,0,23,0,1,,,,,,,,,
298069,2022-12-04_17h21.35.054,vts_reward_expectancy_bt,2022.2.4,Win32,120.3659124,Chrome,1920,1080,,,,,10,1082,,,,,,,,,,,,,,,,,S,181,triangle,1,1,,,,,,,,,,,,,,,,repeat,letter,lettRpt,f,Lo,,,,,,0.0625,2,,,,,,,,high,24,0,24,0,1,,,,,,,,,
298069,2022-12-04_17h21.35.054,vts_reward_expectancy_bt,2022.2.4,Win32,120.3659124,Chrome,1920,1080,,,,,0,1082,,,,,,,,,,,,,,,,,B,174,circle,0,0,,,,,,,,,,,,,,,,repeat,letter,NA,f,Lo,,,,,,0.0003,2,,,,,,,,high,25,0,25,0,1,,,,,,,,,
298069,2022-12-04_17h21.35.054,vts_reward_expectancy_bt,2022.2.4,Win32,120.3659124,Chrome,1920,1080,,,,,0,1082,,,,,,,,,,,,,,,,,D,139,star,0,1,,,,,,,,,,,,,,,,repeat,letter,NA,f,Lo,,,,,,0.4603,2,,,,,,,,high,26,0,26,0,1,,,,,,,,,
298069,2022-12-04_17h21.35.054,vts_reward_expectancy_bt,2022.2.4,Win32,120.3659124,Chrome,1920,1080,,,,,1,1083,,,,,,,,,,,,,,,,,Y,125,hexagon,1,1,,,,,,,,,,,,,,,,switch,number,numSwt,j,Lo,,,,,,0.3357,2,,,,,,,,high,27,0,27,0,1,,,,,,,,,
298069,2022-12-04_17h21.35.054,vts_reward_expectancy_bt,2022.2.4,Win32,120.3659124,Chrome,1920,1080,,,,,1,1084,,,,,,,,,,,,,,,,,U,160,hexagon,1,0,,,,,,,,,,,,,,,,repeat,number,numRpt,k,Lo,,,,,,0.3117,2,,,,,,,,high,28,0,28,0,1,,,,,,,,,
298069,2022-12-04_17h21.35.054,vts_reward_expectancy_bt,2022.2.4,Win32,120.3659124,Chrome,1920,1080,,,,,1,1085,,,,,,,,,,,,,,,,,W,146,triangle,1,0,,,,,,,,,,,,,,,,repeat,number,numRpt,j,Lo,,,,,,0.4579,2,,,,,,,,high,29,0,29,0,1,,,,,,,,,
298069,2022-12-04_17h21.35.054,vts_reward_expectancy_bt,2022.2.4,Win32,120.3659124,Chrome,1920,1080,,,,,0,1085,,,,,,,,,,,,,,,,,F,132,star,1,0,,,,,,,,,,,,,,,,repeat,number,numRpt,j,Hi,,,,,,0.4642,2,,,,,,,,high,30,0,30,0,1,,,,,,,,,
298069,2022-12-04_17h21.35.054,vts_reward_expectancy_bt,2022.2.4,Win32,120.3659124,Chrome,1920,1080,,,,,0,1085,,,,,,,,,,,,,,,,,H,167,circle,1,0,,,,,,,,,,,,,,,,repeat,number,numRpt,k,Hi,,,,,,0.508,2,,,,,,,,high,31,0,31,0,1,,,,,,,,,
298069,2022-12-04_17h21.35.054,vts_reward_expectancy_bt,2022.2.4,Win32,120.3659124,Chrome,1920,1080,,,,,10,1095,,,,,,,,,,,,,,,,,S,167,star,1,0,,,,,,,,,,,,,,,,repeat,number,numRpt,k,Hi,,,,,,0.438,3,,,,,,space,0.5125,high,0,0,0,0,1,,,,,,,,,
298069,2022-12-04_17h21.35.054,vts_reward_expectancy_bt,2022.2.4,Win32,120.3659124,Chrome,1920,1080,,,,,10,1105,,,,,,,,,,,,,,,,,W,174,triangle,1,0,,,,,,,,,,,,,,,,repeat,number,numRpt,k,Lo,,,,,,0.3916,3,,,,,,,,high,1,0,1,0,1,,,,,,,,,
298069,2022-12-04_17h21.35.054,vts_reward_expectancy_bt,2022.2.4,Win32,120.3659124,Chrome,1920,1080,,,,,0,1105,,,,,,,,,,,,,,,,,B,125,circle,1,0,,,,,,,,,,,,,,,,repeat,number,numRpt,j,Hi,,,,,,0.5363,3,,,,,,,,high,2,0,2,0,1,,,,,,,,,
298069,2022-12-04_17h21.35.054,vts_reward_expectancy_bt,2022.2.4,Win32,120.3659124,Chrome,1920,1080,,,,,1,1106,,,,,,,,,,,,,,,,,H,181,hexagon,1,0,,,,,,,,,,,,,,,,repeat,number,numRpt,k,Lo,,,,,,0.4714,3,,,,,,,,high,3,0,3,0,1,,,,,,,,,
298069,2022-12-04_17h21.35.054,vts_reward_expectancy_bt,2022.2.4,Win32,120.3659124,Chrome,1920,1080,,,,,0,1106,,,,,,,,,,,,,,,,,D,160,star,1,0,,,,,,,,,,,,,,,,repeat,number,numRpt,k,Hi,,,,,,0.4666,3,,,,,,,,high,4,0,4,0,1,,,,,,,,,
298069,2022-12-04_17h21.35.054,vts_reward_expectancy_bt,2022.2.4,Win32,120.3659124,Chrome,1920,1080,,,,,1,1107,,,,,,,,,,,,,,,,,Y,132,triangle,1,0,,,,,,,,,,,,,,,,repeat,number,numRpt,j,Lo,,,,,,0.5909,3,,,,,,,,high,5,0,5,0,1,,,,,,,,,
298069,2022-12-04_17h21.35.054,vts_reward_expectancy_bt,2022.2.4,Win32,120.3659124,Chrome,1920,1080,,,,,0,1107,,,,,,,,,,,,,,,,,F,146,circle,1,0,,,,,,,,,,,,,,,,repeat,number,numRpt,j,Hi,,,,,,0.4915,3,,,,,,,,high,6,0,6,0,1,,,,,,,,,
298069,2022-12-04_17h21.35.054,vts_reward_expectancy_bt,2022.2.4,Win32,120.3659124,Chrome,1920,1080,,,,,1,1108,,,,,,,,,,,,,,,,,U,139,hexagon,1,0,,,,,,,,,,,,,,,,repeat,number,numRpt,j,Lo,,,,,,0.5261,3,,,,,,,,high,7,0,7,0,1,,,,,,,,,
298069,2022-12-04_17h21.35.054,vts_reward_expectancy_bt,2022.2.4,Win32,120.3659124,Chrome,1920,1080,,,,,1,1109,,,,,,,,,,,,,,,,,S,167,triangle,1,0,,,,,,,,,,,,,,,,repeat,number,numRpt,k,Lo,,,,,,0.4249,3,,,,,,,,high,8,0,8,0,1,,,,,,,,,
298069,2022-12-04_17h21.35.054,vts_reward_expectancy_bt,2022.2.4,Win32,120.3659124,Chrome,1920,1080,,,,,1,1110,,,,,,,,,,,,,,,,,W,174,hexagon,1,0,,,,,,,,,,,,,,,,repeat,number,numRpt,k,Lo,,,,,,0.433,3,,,,,,,,high,9,0,9,0,1,,,,,,,,,
298069,2022-12-04_17h21.35.054,vts_reward_expectancy_bt,2022.2.4,Win32,120.3659124,Chrome,1920,1080,,,,,0,1110,,,,,,,,,,,,,,,,,B,125,circle,1,0,,,,,,,,,,,,,,,,repeat,number,numRpt,j,Hi,,,,,,0.5174,3,,,,,,,,high,10,0,10,0,1,,,,,,,,,
298069,2022-12-04_17h21.35.054,vts_reward_expectancy_bt,2022.2.4,Win32,120.3659124,Chrome,1920,1080,,,,,10,1120,,,,,,,,,,,,,,,,,H,181,star,1,0,,,,,,,,,,,,,,,,repeat,number,numRpt,k,Hi,,,,,,0.4441,3,,,,,,,,high,11,0,11,0,1,,,,,,,,,
298069,2022-12-04_17h21.35.054,vts_reward_expectancy_bt,2022.2.4,Win32,120.3659124,Chrome,1920,1080,,,,,0,1120,,,,,,,,,,,,,,,,,D,160,star,1,0,,,,,,,,,,,,,,,,repeat,number,numRpt,k,Hi,,,,,,0.4679,3,,,,,,,,high,12,0,12,0,1,,,,,,,,,
298069,2022-12-04_17h21.35.054,vts_reward_expectancy_bt,2022.2.4,Win32,120.3659124,Chrome,1920,1080,,,,,10,1130,,,,,,,,,,,,,,,,,Y,132,triangle,1,0,,,,,,,,,,,,,,,,repeat,number,numRpt,j,Lo,,,,,,0.4998,3,,,,,,,,high,13,0,13,0,1,,,,,,,,,
298069,2022-12-04_17h21.35.054,vts_reward_expectancy_bt,2022.2.4,Win32,120.3659124,Chrome,1920,1080,,,,,0,1130,,,,,,,,,,,,,,,,,F,146,circle,1,0,,,,,,,,,,,,,,,,repeat,number,numRpt,j,Hi,,,,,,0.6667,3,,,,,,,,high,14,0,14,0,1,,,,,,,,,
298069,2022-12-04_17h21.35.054,vts_reward_expectancy_bt,2022.2.4,Win32,120.3659124,Chrome,1920,1080,,,,,1,1131,,,,,,,,,,,,,,,,,U,139,hexagon,1,0,,,,,,,,,,,,,,,,repeat,number,numRpt,j,Lo,,,,,,0.4857,3,,,,,,,,high,15,0,15,0,1,,,,,,,,,
298069,2022-12-04_17h21.35.054,vts_reward_expectancy_bt,2022.2.4,Win32,120.3659124,Chrome,1920,1080,,,,,10,1141,,,,,,,,,,,,,,,,,U,125,circle,1,0,,,,,,,,,,,,,,,,repeat,number,numRpt,j,Hi,,,,,,0.3252,3,,,,,,,,high,16,0,16,0,1,,,,,,,,,
298069,2022-12-04_17h21.35.054,vts_reward_expectancy_bt,2022.2.4,Win32,120.3659124,Chrome,1920,1080,,,,,10,1151,,,,,,,,,,,,,,,,,D,146,star,1,0,,,,,,,,,,,,,,,,repeat,number,numRpt,j,Hi,,,,,,0.3876,3,,,,,,,,high,17,0,17,0,1,,,,,,,,,
298069,2022-12-04_17h21.35.054,vts_reward_expectancy_bt,2022.2.4,Win32,120.3659124,Chrome,1920,1080,,,,,0,1151,,,,,,,,,,,,,,,,,Y,160,hexagon,0,0,,,,,,,,,,,,,,,,repeat,number,NA,j,Hi,,,,,,0.4494,3,,,,,,,,high,18,0,18,0,1,,,,,,,,,
298069,2022-12-04_17h21.35.054,vts_reward_expectancy_bt,2022.2.4,Win32,120.3659124,Chrome,1920,1080,,,,,1,1152,,,,,,,,,,,,,,,,,W,181,triangle,1,1,,,,,,,,,,,,,,,,repeat,number,numRpt,k,Lo,,,,,,0.3426,3,,,,,,,,high,19,0,19,0,1,,,,,,,,,
298069,2022-12-04_17h21.35.054,vts_reward_expectancy_bt,2022.2.4,Win32,120.3659124,Chrome,1920,1080,,,,,0,1152,,,,,,,,,,,,,,,,,B,139,triangle,0,0,,,,,,,,,,,,,,,,repeat,number,NA,k,Lo,,,,,,0.3882,3,,,,,,,,high,20,0,20,0,1,,,,,,,,,
298069,2022-12-04_17h21.35.054,vts_reward_expectancy_bt,2022.2.4,Win32,120.3659124,Chrome,1920,1080,,,,,1,1153,,,,,,,,,,,,,,,,,F,174,star,1,1,,,,,,,,,,,,,,,,repeat,number,numRpt,k,Hi,,,,,,0.3205,3,,,,,,,,high,21,0,21,0,1,,,,,,,,,
298069,2022-12-04_17h21.35.054,vts_reward_expectancy_bt,2022.2.4,Win32,120.3659124,Chrome,1920,1080,,,,,0,1153,,,,,,,,,,,,,,,,,S,167,circle,1,0,,,,,,,,,,,,,,,,repeat,number,numRpt,k,Hi,,,,,,0.4775,3,,,,,,,,high,22,0,22,0,1,,,,,,,,,
298069,2022-12-04_17h21.35.054,vts_reward_expectancy_bt,2022.2.4,Win32,120.3659124,Chrome,1920,1080,,,,,1,1154,,,,,,,,,,,,,,,,,H,132,hexagon,1,0,,,,,,,,,,,,,,,,repeat,number,numRpt,j,Lo,,,,,,0.4004,3,,,,,,,,high,23,0,23,0,1,,,,,,,,,
298069,2022-12-04_17h21.35.054,vts_reward_expectancy_bt,2022.2.4,Win32,120.3659124,Chrome,1920,1080,,,,,10,1164,,,,,,,,,,,,,,,,,W,174,star,1,0,,,,,,,,,,,,,,,,repeat,number,numRpt,k,Hi,,,,,,0.3856,3,,,,,,,,high,24,0,24,0,1,,,,,,,,,
298069,2022-12-04_17h21.35.054,vts_reward_expectancy_bt,2022.2.4,Win32,120.3659124,Chrome,1920,1080,,,,,1,1165,,,,,,,,,,,,,,,,,B,132,circle,1,0,,,,,,,,,,,,,,,,repeat,number,numRpt,j,Hi,,,,,,0.4525,3,,,,,,,,high,25,0,25,0,1,,,,,,,,,
298069,2022-12-04_17h21.35.054,vts_reward_expectancy_bt,2022.2.4,Win32,120.3659124,Chrome,1920,1080,,,,,1,1166,,,,,,,,,,,,,,,,,S,139,hexagon,1,0,,,,,,,,,,,,,,,,repeat,number,numRpt,j,Lo,,,,,,0.4908,3,,,,,,,,high,26,0,26,0,1,,,,,,,,,
298069,2022-12-04_17h21.35.054,vts_reward_expectancy_bt,2022.2.4,Win32,120.3659124,Chrome,1920,1080,,,,,1,1167,,,,,,,,,,,,,,,,,F,167,triangle,1,0,,,,,,,,,,,,,,,,repeat,number,numRpt,k,Lo,,,,,,0.5505,3,,,,,,,,high,27,0,27,0,1,,,,,,,,,
298069,2022-12-04_17h21.35.054,vts_reward_expectancy_bt,2022.2.4,Win32,120.3659124,Chrome,1920,1080,,,,,1,1168,,,,,,,,,,,,,,,,,Y,181,triangle,1,0,,,,,,,,,,,,,,,,repeat,number,numRpt,k,Lo,,,,,,0.4705,3,,,,,,,,high,28,0,28,0,1,,,,,,,,,
298069,2022-12-04_17h21.35.054,vts_reward_expectancy_bt,2022.2.4,Win32,120.3659124,Chrome,1920,1080,,,,,10,1178,,,,,,,,,,,,,,,,,D,125,star,1,0,,,,,,,,,,,,,,,,repeat,number,numRpt,j,Hi,,,,,,0.4077,3,,,,,,,,high,29,0,29,0,1,,,,,,,,,
298069,2022-12-04_17h21.35.054,vts_reward_expectancy_bt,2022.2.4,Win32,120.3659124,Chrome,1920,1080,,,,,0,1178,,,,,,,,,,,,,,,,,U,160,circle,1,0,,,,,,,,,,,,,,,,repeat,number,numRpt,k,Hi,,,,,,0.5,3,,,,,,,,high,30,0,30,0,1,,,,,,,,,
298069,2022-12-04_17h21.35.054,vts_reward_expectancy_bt,2022.2.4,Win32,120.3659124,Chrome,1920,1080,,,,,1,1179,,,,,,,,,,,,,,,,,H,146,hexagon,1,0,,,,,,,,,,,,,,,,repeat,number,numRpt,j,Lo,,,,,,0.4242,3,,,,,,,,high,31,0,31,0,1,,,,,,,,,
298069,2022-12-04_17h21.35.054,vts_reward_expectancy_bt,2022.2.4,Win32,120.3659124,Chrome,1920,1080,,,,,0,1179,,,,,,,,,,,,,,,,,Y,132,star,1,0,,,,,,,,,,,,,,,,repeat,number,numRpt,j,Hi,,,,,,0.4581,4,,,,,,space,0.4885,high,0,0,0,0,1,,,,,,,,,
298069,2022-12-04_17h21.35.054,vts_reward_expectancy_bt,2022.2.4,Win32,120.3659124,Chrome,1920,1080,,,,,0,1179,,,,,,,,,,,,,,,,,F,167,circle,0,0,,,,,,,,,,,,,,,,repeat,number,NA,j,Hi,,,,,,0.0859,4,,,,,,,,high,1,0,1,0,1,,,,,,,,,
298069,2022-12-04_17h21.35.054,vts_reward_expectancy_bt,2022.2.4,Win32,120.3659124,Chrome,1920,1080,,,,,0,1179,,,,,,,,,,,,,,,,,H,139,hexagon,0,1,,,,,,,,,,,,,,,,repeat,number,NA,k,Hi,,,,,,0.0876,4,,,,,,,,high,2,0,2,0,1,,,,,,,,,
298069,2022-12-04_17h21.35.054,vts_reward_expectancy_bt,2022.2.4,Win32,120.3659124,Chrome,1920,1080,,,,,10,1189,,,,,,,,,,,,,,,,,S,160,triangle,1,1,,,,,,,,,,,,,,,,repeat,number,numRpt,k,Lo,,,,,,0.401,4,,,,,,,,high,3,0,3,0,1,,,,,,,,,
298069,2022-12-04_17h21.35.054,vts_reward_expectancy_bt,2022.2.4,Win32,120.3659124,Chrome,1920,1080,,,,,0,1189,,,,,,,,,,,,,,,,,U,146,star,0,0,,,,,,,,,,,,,,,,repeat,number,NA,k,Lo,,,,,,0.1862,4,,,,,,,,high,4,0,4,0,1,,,,,,,,,
298069,2022-12-04_17h21.35.054,vts_reward_expectancy_bt,2022.2.4,Win32,120.3659124,Chrome,1920,1080,,,,,0,1189,,,,,,,,,,,,,,,,,B,181,circle,0,1,,,,,,,,,,,,,,,,repeat,number,NA,j,Lo,,,,,,0.0664,4,,,,,,,,high,5,0,5,0,1,,,,,,,,,
298069,2022-12-04_17h21.35.054,vts_reward_expectancy_bt,2022.2.4,Win32,120.3659124,Chrome,1920,1080,,,,,1,1190,,,,,,,,,,,,,,,,,D,125,hexagon,1,1,,,,,,,,,,,,,,,,repeat,number,numRpt,j,Lo,,,,,,0.5777,4,,,,,,,,high,6,0,6,0,1,,,,,,,,,
298069,2022-12-04_17h21.35.054,vts_reward_expectancy_bt,2022.2.4,Win32,120.3659124,Chrome,1920,1080,,,,,10,1200,,,,,,,,,,,,,,,,,W,174,triangle,1,0,,,,,,,,,,,,,,,,repeat,number,numRpt,k,Lo,,,,,,0.1746,4,,,,,,,,high,7,0,7,0,1,,,,,,,,,
298069,2022-12-04_17h21.35.054,vts_reward_expectancy_bt,2022.2.4,Win32,120.3659124,Chrome,1920,1080,,,,,0,1200,,,,,,,,,,,,,,,,,Y,132,star,0,0,,,,,,,,,,,,,,,,repeat,number,NA,k,Lo,,,,,,0.0004,4,,,,,,,,high,8,0,8,0,1,,,,,,,,,
298069,2022-12-04_17h21.35.054,vts_reward_expectancy_bt,2022.2.4,Win32,120.3659124,Chrome,1920,1080,,,,,0,1200,,,,,,,,,,,,,,,,,F,167,circle,0,1,,,,,,,,,,,,,,,,repeat,number,NA,j,Lo,,,,,,0.0697,4,,,,,,,,high,9,0,9,0,1,,,,,,,,,
298069,2022-12-04_17h21.35.054,vts_reward_expectancy_bt,2022.2.4,Win32,120.3659124,Chrome,1920,1080,,,,,0,1200,,,,,,,,,,,,,,,,,H,139,hexagon,0,1,,,,,,,,,,,,,,,,repeat,number,NA,k,Lo,,,,,,0.1373,4,,,,,,,,high,10,0,10,0,1,,,,,,,,,
298069,2022-12-04_17h21.35.054,vts_reward_expectancy_bt,2022.2.4,Win32,120.3659124,Chrome,1920,1080,,,,,1,1201,,,,,,,,,,,,,,,,,S,160,triangle,1,1,,,,,,,,,,,,,,,,repeat,number,numRpt,k,Lo,,,,,,0.163,4,,,,,,,,high,11,0,11,0,1,,,,,,,,,
298069,2022-12-04_17h21.35.054,vts_reward_expectancy_bt,2022.2.4,Win32,120.3659124,Chrome,1920,1080,,,,,0,1201,,,,,,,,,,,,,,,,,U,146,triangle,0,0,,,,,,,,,,,,,,,,repeat,number,NA,k,Lo,,,,,,0.008,4,,,,,,,,high,12,0,12,0,1,,,,,,,,,
298069,2022-12-04_17h21.35.054,vts_reward_expectancy_bt,2022.2.4,Win32,120.3659124,Chrome,1920,1080,,,,,0,1201,,,,,,,,,,,,,,,,,B,181,star,0,1,,,,,,,,,,,,,,,,repeat,number,NA,j,Lo,,,,,,0.2008,4,,,,,,,,high,13,0,13,0,1,,,,,,,,,
298069,2022-12-04_17h21.35.054,vts_reward_expectancy_bt,2022.2.4,Win32,120.3659124,Chrome,1920,1080,,,,,10,1211,,,,,,,,,,,,,,,,,D,125,hexagon,1,1,,,,,,,,,,,,,,,,repeat,number,numRpt,j,Lo,,,,,,0.2414,4,,,,,,,,high,14,0,14,0,1,,,,,,,,,
298069,2022-12-04_17h21.35.054,vts_reward_expectancy_bt,2022.2.4,Win32,120.3659124,Chrome,1920,1080,,,,,0,1211,,,,,,,,,,,,,,,,,W,174,circle,1,0,,,,,,,,,,,,,,,,repeat,number,numRpt,k,Hi,,,,,,0.4831,4,,,,,,,,high,15,0,15,0,1,,,,,,,,,
298069,2022-12-04_17h21.35.054,vts_reward_expectancy_bt,2022.2.4,Win32,120.3659124,Chrome,1920,1080,,,,,1,1212,,,,,,,,,,,,,,,,,U,132,triangle,1,0,,,,,,,,,,,,,,,,repeat,number,numRpt,j,Lo,,,,,,0.4673,4,,,,,,,,high,16,0,16,0,1,,,,,,,,,
298069,2022-12-04_17h21.35.054,vts_reward_expectancy_bt,2022.2.4,Win32,120.3659124,Chrome,1920,1080,,,,,0,1212,,,,,,,,,,,,,,,,,F,181,circle,1,0,,,,,,,,,,,,,,,,repeat,number,numRpt,k,Hi,,,,,,1.1914,4,,,,,,,,high,17,0,17,0,1,,,,,,,,,
298069,2022-12-04_17h21.35.054,vts_reward_expectancy_bt,2022.2.4,Win32,120.3659124,Chrome,1920,1080,,,,,0,1212,,,,,,,,,,,,,,,,,S,160,star,1,0,,,,,,,,,,,,,,,,repeat,number,numRpt,k,Hi,,,,,,0.468,4,,,,,,,,high,18,0,18,0,1,,,,,,,,,
298069,2022-12-04_17h21.35.054,vts_reward_expectancy_bt,2022.2.4,Win32,120.3659124,Chrome,1920,1080,,,,,1,1213,,,,,,,,,,,,,,,,,B,139,hexagon,1,0,,,,,,,,,,,,,,,,repeat,number,numRpt,j,Lo,,,,,,0.4456,4,,,,,,,,high,19,0,19,0,1,,,,,,,,,
298069,2022-12-04_17h21.35.054,vts_reward_expectancy_bt,2022.2.4,Win32,120.3659124,Chrome,1920,1080,,,,,0,1213,,,,,,,,,,,,,,,,,Y,146,star,1,0,,,,,,,,,,,,,,,,repeat,number,numRpt,j,Hi,,,,,,0.4498,4,,,,,,,,high,20,0,20,0,1,,,,,,,,,
298069,2022-12-04_17h21.35.054,vts_reward_expectancy_bt,2022.2.4,Win32,120.3659124,Chrome,1920,1080,,,,,1,1214,,,,,,,,,,,,,,,,,H,125,circle,1,0,,,,,,,,,,,,,,,,repeat,number,numRpt,j,Hi,,,,,,0.4048,4,,,,,,,,high,21,0,21,0,1,,,,,,,,,
298069,2022-12-04_17h21.35.054,vts_reward_expectancy_bt,2022.2.4,Win32,120.3659124,Chrome,1920,1080,,,,,10,1224,,,,,,,,,,,,,,,,,W,174,hexagon,1,0,,,,,,,,,,,,,,,,repeat,number,numRpt,k,Lo,,,,,,0.3913,4,,,,,,,,high,22,0,22,0,1,,,,,,,,,
298069,2022-12-04_17h21.35.054,vts_reward_expectancy_bt,2022.2.4,Win32,120.3659124,Chrome,1920,1080,,,,,1,1225,,,,,,,,,,,,,,,,,D,167,triangle,1,0,,,,,,,,,,,,,,,,repeat,number,numRpt,k,Lo,,,,,,0.3667,4,,,,,,,,high,23,0,23,0,1,,,,,,,,,
298069,2022-12-04_17h21.35.054,vts_reward_expectancy_bt,2022.2.4,Win32,120.3659124,Chrome,1920,1080,,,,,1,1226,,,,,,,,,,,,,,,,,U,146,triangle,1,0,,,,,,,,,,,,,,,,repeat,number,numRpt,j,Lo,,,,,,0.5697,4,,,,,,,,high,24,0,24,0,1,,,,,,,,,
298069,2022-12-04_17h21.35.054,vts_reward_expectancy_bt,2022.2.4,Win32,120.3659124,Chrome,1920,1080,,,,,10,1236,,,,,,,,,,,,,,,,,H,174,star,1,0,,,,,,,,,,,,,,,,repeat,number,numRpt,k,Hi,,,,,,0.2433,4,,,,,,,,high,25,0,25,0,1,,,,,,,,,
298069,2022-12-04_17h21.35.054,vts_reward_expectancy_bt,2022.2.4,Win32,120.3659124,Chrome,1920,1080,,,,,10,1246,,,,,,,,,,,,,,,,,S,167,circle,1,0,,,,,,,,,,,,,,,,repeat,number,numRpt,k,Hi,,,,,,0.3445,4,,,,,,,,high,26,0,26,0,1,,,,,,,,,
298069,2022-12-04_17h21.35.054,vts_reward_expectancy_bt,2022.2.4,Win32,120.3659124,Chrome,1920,1080,,,,,0,1246,,,,,,,,,,,,,,,,,W,139,hexagon,0,0,,,,,,,,,,,,,,,,repeat,number,NA,k,Hi,,,,,,0.509,4,,,,,,,,high,27,0,27,0,1,,,,,,,,,
298069,2022-12-04_17h21.35.054,vts_reward_expectancy_bt,2022.2.4,Win32,120.3659124,Chrome,1920,1080,,,,,1,1247,,,,,,,,,,,,,,,,,F,181,triangle,1,1,,,,,,,,,,,,,,,,repeat,number,numRpt,k,Lo,,,,,,0.3207,4,,,,,,,,high,28,0,28,0,1,,,,,,,,,
298069,2022-12-04_17h21.35.054,vts_reward_expectancy_bt,2022.2.4,Win32,120.3659124,Chrome,1920,1080,,,,,0,1247,,,,,,,,,,,,,,,,,Y,125,circle,0,0,,,,,,,,,,,,,,,,repeat,number,NA,k,Lo,,,,,,0.342,4,,,,,,,,high,29,0,29,0,1,,,,,,,,,
298069,2022-12-04_17h21.35.054,vts_reward_expectancy_bt,2022.2.4,Win32,120.3659124,Chrome,1920,1080,,,,,10,1257,,,,,,,,,,,,,,,,,D,132,star,1,1,,,,,,,,,,,,,,,,repeat,number,numRpt,j,Hi,,,,,,0.3827,4,,,,,,,,high,30,0,30,0,1,,,,,,,,,
298069,2022-12-04_17h21.35.054,vts_reward_expectancy_bt,2022.2.4,Win32,120.3659124,Chrome,1920,1080,,,,,1,1258,,,,,,,,,,,,,,,,,B,160,hexagon,1,0,,,,,,,,,,,,,,,,repeat,number,numRpt,k,Lo,,,,,,0.3747,4,,,,,,,,high,31,0,31,0,1,,,,,,,,,
298069,2022-12-04_17h21.35.054,vts_reward_expectancy_bt,2022.2.4,Win32,120.3659124,Chrome,1920,1080,,,,,0,1258,,,,,,,,,,,,,,,,,W,160,star,1,0,,,,,,,,,,,,,,,,repeat,number,numRpt,k,Hi,,,,,,0.443,5,,,,,,space,0.4331,high,0,0,0,0,1,,,,,,,,,
298069,2022-12-04_17h21.35.054,vts_reward_expectancy_bt,2022.2.4,Win32,120.3659124,Chrome,1920,1080,,,,,0,1258,,,,,,,,,,,,,,,,,D,132,hexagon,0,0,,,,,,,,,,,,,,,,repeat,number,NA,k,Hi,,,,,,0.7173,5,,,,,,,,high,1,0,1,0,1,,,,,,,,,
298069,2022-12-04_17h21.35.054,vts_reward_expectancy_bt,2022.2.4,Win32,120.3659124,Chrome,1920,1080,,,,,10,1268,,,,,,,,,,,,,,,,,U,174,circle,1,1,,,,,,,,,,,,,,,,repeat,number,numRpt,k,Hi,,,,,,0.3583,5,,,,,,,,high,2,0,2,0,1,,,,,,,,,
298069,2022-12-04_17h21.35.054,vts_reward_expectancy_bt,2022.2.4,Win32,120.3659124,Chrome,1920,1080,,,,,1,1269,,,,,,,,,,,,,,,,,S,125,triangle,1,0,,,,,,,,,,,,,,,,repeat,number,numRpt,j,Lo,,,,,,0.4793,5,,,,,,,,high,3,0,3,0,1,,,,,,,,,
298069,2022-12-04_17h21.35.054,vts_reward_expectancy_bt,2022.2.4,Win32,120.3659124,Chrome,1920,1080,,,,,10,1279,,,,,,,,,,,,,,,,,F,181,star,1,0,,,,,,,,,,,,,,,,repeat,number,numRpt,k,Hi,,,,,,0.2929,5,,,,,,,,high,4,0,4,0,1,,,,,,,,,
298069,2022-12-04_17h21.35.054,vts_reward_expectancy_bt,2022.2.4,Win32,120.3659124,Chrome,1920,1080,,,,,1,1280,,,,,,,,,,,,,,,,,Y,146,hexagon,1,0,,,,,,,,,,,,,,,,repeat,number,numRpt,j,Lo,,,,,,0.4379,5,,,,,,,,high,5,0,5,0,1,,,,,,,,,
298069,2022-12-04_17h21.35.054,vts_reward_expectancy_bt,2022.2.4,Win32,120.3659124,Chrome,1920,1080,,,,,0,1280,,,,,,,,,,,,,,,,,B,167,circle,1,0,,,,,,,,,,,,,,,,repeat,number,numRpt,k,Hi,,,,,,0.5103,5,,,,,,,,high,6,0,6,0,1,,,,,,,,,
298069,2022-12-04_17h21.35.054,vts_reward_expectancy_bt,2022.2.4,Win32,120.3659124,Chrome,1920,1080,,,,,1,1281,,,,,,,,,,,,,,,,,H,139,triangle,1,0,,,,,,,,,,,,,,,,repeat,number,numRpt,j,Lo,,,,,,0.4371,5,,,,,,,,high,7,0,7,0,1,,,,,,,,,
298069,2022-12-04_17h21.35.054,vts_reward_expectancy_bt,2022.2.4,Win32,120.3659124,Chrome,1920,1080,,,,,10,1291,,,,,,,,,,,,,,,,,W,160,triangle,1,0,,,,,,,,,,,,,,,,repeat,number,numRpt,k,Lo,,,,,,0.4508,5,,,,,,,,high,8,0,8,0,1,,,,,,,,,
298069,2022-12-04_17h21.35.054,vts_reward_expectancy_bt,2022.2.4,Win32,120.3659124,Chrome,1920,1080,,,,,10,1301,,,,,,,,,,,,,,,,,D,132,star,1,0,,,,,,,,,,,,,,,,repeat,number,numRpt,j,Hi,,,,,,0.3101,5,,,,,,,,high,9,0,9,0,1,,,,,,,,,
298069,2022-12-04_17h21.35.054,vts_reward_expectancy_bt,2022.2.4,Win32,120.3659124,Chrome,1920,1080,,,,,1,1302,,,,,,,,,,,,,,,,,U,174,hexagon,1,0,,,,,,,,,,,,,,,,repeat,number,numRpt,k,Lo,,,,,,0.3583,5,,,,,,,,high,10,0,10,0,1,,,,,,,,,
298069,2022-12-04_17h21.35.054,vts_reward_expectancy_bt,2022.2.4,Win32,120.3659124,Chrome,1920,1080,,,,,1,1303,,,,,,,,,,,,,,,,,S,125,circle,1,0,,,,,,,,,,,,,,,,repeat,number,numRpt,j,Hi,,,,,,0.3332,5,,,,,,,,high,11,0,11,0,1,,,,,,,,,
298069,2022-12-04_17h21.35.054,vts_reward_expectancy_bt,2022.2.4,Win32,120.3659124,Chrome,1920,1080,,,,,0,1303,,,,,,,,,,,,,,,,,F,181,circle,1,0,,,,,,,,,,,,,,,,repeat,number,numRpt,k,Hi,,,,,,0.45,5,,,,,,,,high,12,0,12,0,1,,,,,,,,,
298069,2022-12-04_17h21.35.054,vts_reward_expectancy_bt,2022.2.4,Win32,120.3659124,Chrome,1920,1080,,,,,0,1303,,,,,,,,,,,,,,,,,Y,146,star,1,0,,,,,,,,,,,,,,,,repeat,number,numRpt,j,Hi,,,,,,0.3831,5,,,,,,,,high,13,0,13,0,1,,,,,,,,,
