participant,date,expName,psychopyVersion,OS,frameRate,browser,xResolution,yResolution,key_resp.keys,key_resp.rt,training_resp.keys,training_resp.rt,points_trial,points_cumul,trainBlock,training.thisRepN,training.thisTrialN,training.thisN,training.thisIndex,training.ran,LTriangleOpac,LCircleOpac,LHexagonOpac,LStarOpac,RTriangleOpac,RCircleOpac,RHexagonOpac,RStarOpac,LShape_ID,RShape_ID,curr_topStim,curr_bottStim,curr_shape,acc,E1,target_resp_prac1.keys,pracBlock,task1_prac_trials.thisRepN,task1_prac_trials.thisTrialN,task1_prac_trials.thisN,task1_prac_trials.thisIndex,task1_prac_trials.ran,target_resp_prac1.rt,target_resp_prac2.keys,target_resp_prac2.rt,task2_praac_trials.thisRepN,task2_praac_trials.thisTrialN,task2_praac_trials.thisN,task2_praac_trials.thisIndex,task2_praac_trials.ran,alt,task,condition,target_resp.keys,target_resp.rt,rewCond,vts_practice_trials.thisRepN,vts_practice_trials.thisTrialN,vts_practice_trials.thisN,vts_practice_trials.thisIndex,vts_practice_trials.ran,blockNum,trials_norew.thisRepN,trials_norew.thisTrialN,trials_norew.thisN,trials_norew.thisIndex,trials_norew.ran,key_resp_2.keys,key_resp_2.rt,rewExpectancy,trials_rew.thisRepN,trials_rew.thisTrialN,trials_rew.thisN,trials_rew.thisIndex,trials_rew.ran,Q1,Q2,Q2_text,Q3,Q4,Q5_text,Q5,xRes,yRes
298057,2022-11-28_22h24.41.792,vts_reward_expectancy_bt,2022.2.4,MacIntel,60.0024001,Chrome,1440,900,,,,,,,,,,,,,,,,,,,,,,,,,,,,,,,,,,,,,,,,,,,,,,,,,,,,,,,,,,,,,,,,,,,,,,,,,,,,
298057,2022-11-28_22h24.41.792,vts_reward_expectancy_bt,2022.2.4,MacIntel,60.0024001,Chrome,1440,900,space,3.8385,,,,,,,,,,,,,,,,,,,,,,,,,,,,,,,,,,,,,,,,,,,,,,,,,,,,,,,,,,,,,,,,,,,,,,,,,,
298057,2022-11-28_22h24.41.792,vts_reward_expectancy_bt,2022.2.4,MacIntel,60.0024001,Chrome,1440,900,,,,,,,,,,,,,,,,,,,,,,,,,,,,,,,,,,,,,,,,,,,,,,,,,,,,,,,,,,,,,,,,,,,,,,,,,,,,
298057,2022-11-28_22h24.41.792,vts_reward_expectancy_bt,2022.2.4,MacIntel,60.0024001,Chrome,1440,900,,,a,2.0457,10,10,0,0,0,0,9,1,0,0,0,1,1,0,0,0,star,triangle,,,,,,,,,,,,,,,,,,,,,,,,,,,,,,,,,,,,,,,,,,,,,,,,,,,,,,
298057,2022-11-28_22h24.41.792,vts_reward_expectancy_bt,2022.2.4,MacIntel,60.0024001,Chrome,1440,900,,,a,0.7881,10,20,0,0,1,1,10,1,0,0,0,1,0,1,0,0,star ,circle,,,,,,,,,,,,,,,,,,,,,,,,,,,,,,,,,,,,,,,,,,,,,,,,,,,,,,
298057,2022-11-28_22h24.41.792,vts_reward_expectancy_bt,2022.2.4,MacIntel,60.0024001,Chrome,1440,900,,,l,1.2002,1,21,0,0,2,2,3,1,0,1,0,0,1,0,0,0,circle,triangle,,,,,,,,,,,,,,,,,,,,,,,,,,,,,,,,,,,,,,,,,,,,,,,,,,,,,,
298057,2022-11-28_22h24.41.792,vts_reward_expectancy_bt,2022.2.4,MacIntel,60.0024001,Chrome,1440,900,,,a,0.5454,10,31,0,0,3,3,11,1,0,0,0,1,0,0,1,0,star,hexagon,,,,,,,,,,,,,,,,,,,,,,,,,,,,,,,,,,,,,,,,,,,,,,,,,,,,,,
298057,2022-11-28_22h24.41.792,vts_reward_expectancy_bt,2022.2.4,MacIntel,60.0024001,Chrome,1440,900,,,a,0.9888,10,41,0,0,4,4,7,1,0,0,1,0,0,1,0,0,hexagon,circle,,,,,,,,,,,,,,,,,,,,,,,,,,,,,,,,,,,,,,,,,,,,,,,,,,,,,,
298057,2022-11-28_22h24.41.792,vts_reward_expectancy_bt,2022.2.4,MacIntel,60.0024001,Chrome,1440,900,,,l,0.7494,10,51,0,0,5,5,4,1,0,1,0,0,0,0,1,0,circle,hexagon,,,,,,,,,,,,,,,,,,,,,,,,,,,,,,,,,,,,,,,,,,,,,,,,,,,,,,
298057,2022-11-28_22h24.41.792,vts_reward_expectancy_bt,2022.2.4,MacIntel,60.0024001,Chrome,1440,900,,,a,0.5896,10,61,0,0,6,6,6,1,0,0,1,0,1,0,0,0,hexagon,triangle,,,,,,,,,,,,,,,,,,,,,,,,,,,,,,,,,,,,,,,,,,,,,,,,,,,,,,
298057,2022-11-28_22h24.41.792,vts_reward_expectancy_bt,2022.2.4,MacIntel,60.0024001,Chrome,1440,900,,,l,0.4907,10,71,0,0,7,7,2,1,1,0,0,0,0,0,0,1,triangle,star,,,,,,,,,,,,,,,,,,,,,,,,,,,,,,,,,,,,,,,,,,,,,,,,,,,,,,
298057,2022-11-28_22h24.41.792,vts_reward_expectancy_bt,2022.2.4,MacIntel,60.0024001,Chrome,1440,900,,,l,0.4466,10,81,0,0,8,8,5,1,0,1,0,0,0,0,0,1,circle,star,,,,,,,,,,,,,,,,,,,,,,,,,,,,,,,,,,,,,,,,,,,,,,,,,,,,,,
298057,2022-11-28_22h24.41.792,vts_reward_expectancy_bt,2022.2.4,MacIntel,60.0024001,Chrome,1440,900,,,a,0.4579,1,82,0,0,9,9,1,1,1,0,0,0,0,0,1,0,triangle,hexagon,,,,,,,,,,,,,,,,,,,,,,,,,,,,,,,,,,,,,,,,,,,,,,,,,,,,,,
298057,2022-11-28_22h24.41.792,vts_reward_expectancy_bt,2022.2.4,MacIntel,60.0024001,Chrome,1440,900,,,a,0.6138,1,83,0,0,10,10,0,1,1,0,0,0,0,1,0,0,triangle,circle,,,,,,,,,,,,,,,,,,,,,,,,,,,,,,,,,,,,,,,,,,,,,,,,,,,,,,
298057,2022-11-28_22h24.41.792,vts_reward_expectancy_bt,2022.2.4,MacIntel,60.0024001,Chrome,1440,900,,,l,0.4879,10,93,0,0,11,11,8,1,0,0,1,0,0,0,0,1,hexagon,star,,,,,,,,,,,,,,,,,,,,,,,,,,,,,,,,,,,,,,,,,,,,,,,,,,,,,,
298057,2022-11-28_22h24.41.792,vts_reward_expectancy_bt,2022.2.4,MacIntel,60.0024001,Chrome,1440,900,,,a,0.6245,10,103,0,1,0,12,6,1,0,0,1,0,1,0,0,0,hexagon,triangle,,,,,,,,,,,,,,,,,,,,,,,,,,,,,,,,,,,,,,,,,,,,,,,,,,,,,,
298057,2022-11-28_22h24.41.792,vts_reward_expectancy_bt,2022.2.4,MacIntel,60.0024001,Chrome,1440,900,,,a,0.4673,10,113,0,1,1,13,10,1,0,0,0,1,0,1,0,0,star ,circle,,,,,,,,,,,,,,,,,,,,,,,,,,,,,,,,,,,,,,,,,,,,,,,,,,,,,,
298057,2022-11-28_22h24.41.792,vts_reward_expectancy_bt,2022.2.4,MacIntel,60.0024001,Chrome,1440,900,,,a,0.4514,10,123,0,1,2,14,9,1,0,0,0,1,1,0,0,0,star,triangle,,,,,,,,,,,,,,,,,,,,,,,,,,,,,,,,,,,,,,,,,,,,,,,,,,,,,,
298057,2022-11-28_22h24.41.792,vts_reward_expectancy_bt,2022.2.4,MacIntel,60.0024001,Chrome,1440,900,,,l,0.7206,10,133,0,1,3,15,3,1,0,1,0,0,1,0,0,0,circle,triangle,,,,,,,,,,,,,,,,,,,,,,,,,,,,,,,,,,,,,,,,,,,,,,,,,,,,,,
298057,2022-11-28_22h24.41.792,vts_reward_expectancy_bt,2022.2.4,MacIntel,60.0024001,Chrome,1440,900,,,l,0.5215,10,143,0,1,4,16,2,1,1,0,0,0,0,0,0,1,triangle,star,,,,,,,,,,,,,,,,,,,,,,,,,,,,,,,,,,,,,,,,,,,,,,,,,,,,,,
298057,2022-11-28_22h24.41.792,vts_reward_expectancy_bt,2022.2.4,MacIntel,60.0024001,Chrome,1440,900,,,a,0.5427,10,153,0,1,5,17,7,1,0,0,1,0,0,1,0,0,hexagon,circle,,,,,,,,,,,,,,,,,,,,,,,,,,,,,,,,,,,,,,,,,,,,,,,,,,,,,,
298057,2022-11-28_22h24.41.792,vts_reward_expectancy_bt,2022.2.4,MacIntel,60.0024001,Chrome,1440,900,,,a,0.4822,10,163,0,1,6,18,11,1,0,0,0,1,0,0,1,0,star,hexagon,,,,,,,,,,,,,,,,,,,,,,,,,,,,,,,,,,,,,,,,,,,,,,,,,,,,,,
298057,2022-11-28_22h24.41.792,vts_reward_expectancy_bt,2022.2.4,MacIntel,60.0024001,Chrome,1440,900,,,l,0.6323,1,164,0,1,7,19,5,1,0,1,0,0,0,0,0,1,circle,star,,,,,,,,,,,,,,,,,,,,,,,,,,,,,,,,,,,,,,,,,,,,,,,,,,,,,,
298057,2022-11-28_22h24.41.792,vts_reward_expectancy_bt,2022.2.4,MacIntel,60.0024001,Chrome,1440,900,,,l,0.8356,1,165,0,1,8,20,1,1,1,0,0,0,0,0,1,0,triangle,hexagon,,,,,,,,,,,,,,,,,,,,,,,,,,,,,,,,,,,,,,,,,,,,,,,,,,,,,,
298057,2022-11-28_22h24.41.792,vts_reward_expectancy_bt,2022.2.4,MacIntel,60.0024001,Chrome,1440,900,,,l,1.1309,10,175,0,1,9,21,0,1,1,0,0,0,0,1,0,0,triangle,circle,,,,,,,,,,,,,,,,,,,,,,,,,,,,,,,,,,,,,,,,,,,,,,,,,,,,,,
298057,2022-11-28_22h24.41.792,vts_reward_expectancy_bt,2022.2.4,MacIntel,60.0024001,Chrome,1440,900,,,a,1.1009,10,185,0,1,10,22,8,1,0,0,1,0,0,0,0,1,hexagon,star,,,,,,,,,,,,,,,,,,,,,,,,,,,,,,,,,,,,,,,,,,,,,,,,,,,,,,
298057,2022-11-28_22h24.41.792,vts_reward_expectancy_bt,2022.2.4,MacIntel,60.0024001,Chrome,1440,900,,,a,1.124,1,186,0,1,11,23,4,1,0,1,0,0,0,0,1,0,circle,hexagon,,,,,,,,,,,,,,,,,,,,,,,,,,,,,,,,,,,,,,,,,,,,,,,,,,,,,,
298057,2022-11-28_22h24.41.792,vts_reward_expectancy_bt,2022.2.4,MacIntel,60.0024001,Chrome,1440,900,,,l,0.8538,1,187,0,2,0,24,6,1,0,0,1,0,1,0,0,0,hexagon,triangle,,,,,,,,,,,,,,,,,,,,,,,,,,,,,,,,,,,,,,,,,,,,,,,,,,,,,,
298057,2022-11-28_22h24.41.792,vts_reward_expectancy_bt,2022.2.4,MacIntel,60.0024001,Chrome,1440,900,,,l,1.7563,10,197,0,2,1,25,8,1,0,0,1,0,0,0,0,1,hexagon,star,,,,,,,,,,,,,,,,,,,,,,,,,,,,,,,,,,,,,,,,,,,,,,,,,,,,,,
298057,2022-11-28_22h24.41.792,vts_reward_expectancy_bt,2022.2.4,MacIntel,60.0024001,Chrome,1440,900,,,l,1.0013,1,198,0,2,2,26,0,1,1,0,0,0,0,1,0,0,triangle,circle,,,,,,,,,,,,,,,,,,,,,,,,,,,,,,,,,,,,,,,,,,,,,,,,,,,,,,
298057,2022-11-28_22h24.41.792,vts_reward_expectancy_bt,2022.2.4,MacIntel,60.0024001,Chrome,1440,900,,,a,0.9215,1,199,0,2,3,27,10,1,0,0,0,1,0,1,0,0,star ,circle,,,,,,,,,,,,,,,,,,,,,,,,,,,,,,,,,,,,,,,,,,,,,,,,,,,,,,
298057,2022-11-28_22h24.41.792,vts_reward_expectancy_bt,2022.2.4,MacIntel,60.0024001,Chrome,1440,900,,,l,2.2079,10,209,0,2,4,28,11,1,0,0,0,1,0,0,1,0,star,hexagon,,,,,,,,,,,,,,,,,,,,,,,,,,,,,,,,,,,,,,,,,,,,,,,,,,,,,,
298057,2022-11-28_22h24.41.792,vts_reward_expectancy_bt,2022.2.4,MacIntel,60.0024001,Chrome,1440,900,,,a,0.8355,1,210,0,2,5,29,4,1,0,1,0,0,0,0,1,0,circle,hexagon,,,,,,,,,,,,,,,,,,,,,,,,,,,,,,,,,,,,,,,,,,,,,,,,,,,,,,
298057,2022-11-28_22h24.41.792,vts_reward_expectancy_bt,2022.2.4,MacIntel,60.0024001,Chrome,1440,900,,,l,1.0609,10,220,0,2,6,30,5,1,0,1,0,0,0,0,0,1,circle,star,,,,,,,,,,,,,,,,,,,,,,,,,,,,,,,,,,,,,,,,,,,,,,,,,,,,,,
298057,2022-11-28_22h24.41.792,vts_reward_expectancy_bt,2022.2.4,MacIntel,60.0024001,Chrome,1440,900,,,l,0.6406,10,230,0,2,7,31,2,1,1,0,0,0,0,0,0,1,triangle,star,,,,,,,,,,,,,,,,,,,,,,,,,,,,,,,,,,,,,,,,,,,,,,,,,,,,,,
298057,2022-11-28_22h24.41.792,vts_reward_expectancy_bt,2022.2.4,MacIntel,60.0024001,Chrome,1440,900,,,a,0.7731,10,240,0,2,8,32,7,1,0,0,1,0,0,1,0,0,hexagon,circle,,,,,,,,,,,,,,,,,,,,,,,,,,,,,,,,,,,,,,,,,,,,,,,,,,,,,,
298057,2022-11-28_22h24.41.792,vts_reward_expectancy_bt,2022.2.4,MacIntel,60.0024001,Chrome,1440,900,,,l,1.0027,1,241,0,2,9,33,3,1,0,1,0,0,1,0,0,0,circle,triangle,,,,,,,,,,,,,,,,,,,,,,,,,,,,,,,,,,,,,,,,,,,,,,,,,,,,,,
298057,2022-11-28_22h24.41.792,vts_reward_expectancy_bt,2022.2.4,MacIntel,60.0024001,Chrome,1440,900,,,l,1.6356,1,242,0,2,10,34,9,1,0,0,0,1,1,0,0,0,star,triangle,,,,,,,,,,,,,,,,,,,,,,,,,,,,,,,,,,,,,,,,,,,,,,,,,,,,,,
298057,2022-11-28_22h24.41.792,vts_reward_expectancy_bt,2022.2.4,MacIntel,60.0024001,Chrome,1440,900,,,l,1.4936,10,252,0,2,11,35,1,1,1,0,0,0,0,0,1,0,triangle,hexagon,,,,,,,,,,,,,,,,,,,,,,,,,,,,,,,,,,,,,,,,,,,,,,,,,,,,,,
298057,2022-11-28_22h24.41.792,vts_reward_expectancy_bt,2022.2.4,MacIntel,60.0024001,Chrome,1440,900,,,a,1.1154,10,262,1,0,0,0,6,1,0,0,1,0,1,0,0,0,hexagon,triangle,,,,,,,,,,,,,,,,,,,,,,,,,,,,,,,,,,,,,,,,,,,,,,,,,,,,,,
298057,2022-11-28_22h24.41.792,vts_reward_expectancy_bt,2022.2.4,MacIntel,60.0024001,Chrome,1440,900,,,a,0.5333,10,272,1,0,1,1,9,1,0,0,0,1,1,0,0,0,star,triangle,,,,,,,,,,,,,,,,,,,,,,,,,,,,,,,,,,,,,,,,,,,,,,,,,,,,,,
298057,2022-11-28_22h24.41.792,vts_reward_expectancy_bt,2022.2.4,MacIntel,60.0024001,Chrome,1440,900,,,l,0.6767,10,282,1,0,2,2,1,1,1,0,0,0,0,0,1,0,triangle,hexagon,,,,,,,,,,,,,,,,,,,,,,,,,,,,,,,,,,,,,,,,,,,,,,,,,,,,,,
298057,2022-11-28_22h24.41.792,vts_reward_expectancy_bt,2022.2.4,MacIntel,60.0024001,Chrome,1440,900,,,l,0.952,1,283,1,0,3,3,3,1,0,1,0,0,1,0,0,0,circle,triangle,,,,,,,,,,,,,,,,,,,,,,,,,,,,,,,,,,,,,,,,,,,,,,,,,,,,,,
298057,2022-11-28_22h24.41.792,vts_reward_expectancy_bt,2022.2.4,MacIntel,60.0024001,Chrome,1440,900,,,a,0.6167,10,293,1,0,4,4,11,1,0,0,0,1,0,0,1,0,star,hexagon,,,,,,,,,,,,,,,,,,,,,,,,,,,,,,,,,,,,,,,,,,,,,,,,,,,,,,
298057,2022-11-28_22h24.41.792,vts_reward_expectancy_bt,2022.2.4,MacIntel,60.0024001,Chrome,1440,900,,,l,0.5326,10,303,1,0,5,5,8,1,0,0,1,0,0,0,0,1,hexagon,star,,,,,,,,,,,,,,,,,,,,,,,,,,,,,,,,,,,,,,,,,,,,,,,,,,,,,,
298057,2022-11-28_22h24.41.792,vts_reward_expectancy_bt,2022.2.4,MacIntel,60.0024001,Chrome,1440,900,,,l,0.5837,10,313,1,0,6,6,2,1,1,0,0,0,0,0,0,1,triangle,star,,,,,,,,,,,,,,,,,,,,,,,,,,,,,,,,,,,,,,,,,,,,,,,,,,,,,,
298057,2022-11-28_22h24.41.792,vts_reward_expectancy_bt,2022.2.4,MacIntel,60.0024001,Chrome,1440,900,,,a,0.5565,10,323,1,0,7,7,7,1,0,0,1,0,0,1,0,0,hexagon,circle,,,,,,,,,,,,,,,,,,,,,,,,,,,,,,,,,,,,,,,,,,,,,,,,,,,,,,
298057,2022-11-28_22h24.41.792,vts_reward_expectancy_bt,2022.2.4,MacIntel,60.0024001,Chrome,1440,900,,,a,1.3029,10,333,1,0,8,8,0,1,1,0,0,0,0,1,0,0,triangle,circle,,,,,,,,,,,,,,,,,,,,,,,,,,,,,,,,,,,,,,,,,,,,,,,,,,,,,,
298057,2022-11-28_22h24.41.792,vts_reward_expectancy_bt,2022.2.4,MacIntel,60.0024001,Chrome,1440,900,,,a,0.6015,10,343,1,0,9,9,10,1,0,0,0,1,0,1,0,0,star ,circle,,,,,,,,,,,,,,,,,,,,,,,,,,,,,,,,,,,,,,,,,,,,,,,,,,,,,,
298057,2022-11-28_22h24.41.792,vts_reward_expectancy_bt,2022.2.4,MacIntel,60.0024001,Chrome,1440,900,,,l,0.7481,1,344,1,0,10,10,4,1,0,1,0,0,0,0,1,0,circle,hexagon,,,,,,,,,,,,,,,,,,,,,,,,,,,,,,,,,,,,,,,,,,,,,,,,,,,,,,
298057,2022-11-28_22h24.41.792,vts_reward_expectancy_bt,2022.2.4,MacIntel,60.0024001,Chrome,1440,900,,,l,3.6371,10,354,1,0,11,11,5,1,0,1,0,0,0,0,0,1,circle,star,,,,,,,,,,,,,,,,,,,,,,,,,,,,,,,,,,,,,,,,,,,,,,,,,,,,,,
298057,2022-11-28_22h24.41.792,vts_reward_expectancy_bt,2022.2.4,MacIntel,60.0024001,Chrome,1440,900,,,a,0.5095,10,364,1,1,0,12,11,1,0,0,0,1,0,0,1,0,star,hexagon,,,,,,,,,,,,,,,,,,,,,,,,,,,,,,,,,,,,,,,,,,,,,,,,,,,,,,
298057,2022-11-28_22h24.41.792,vts_reward_expectancy_bt,2022.2.4,MacIntel,60.0024001,Chrome,1440,900,,,a,0.4508,10,374,1,1,1,13,10,1,0,0,0,1,0,1,0,0,star ,circle,,,,,,,,,,,,,,,,,,,,,,,,,,,,,,,,,,,,,,,,,,,,,,,,,,,,,,
298057,2022-11-28_22h24.41.792,vts_reward_expectancy_bt,2022.2.4,MacIntel,60.0024001,Chrome,1440,900,,,l,0.5563,10,384,1,1,2,14,2,1,1,0,0,0,0,0,0,1,triangle,star,,,,,,,,,,,,,,,,,,,,,,,,,,,,,,,,,,,,,,,,,,,,,,,,,,,,,,
298057,2022-11-28_22h24.41.792,vts_reward_expectancy_bt,2022.2.4,MacIntel,60.0024001,Chrome,1440,900,,,l,0.9067,1,385,1,1,3,15,4,1,0,1,0,0,0,0,1,0,circle,hexagon,,,,,,,,,,,,,,,,,,,,,,,,,,,,,,,,,,,,,,,,,,,,,,,,,,,,,,
298057,2022-11-28_22h24.41.792,vts_reward_expectancy_bt,2022.2.4,MacIntel,60.0024001,Chrome,1440,900,,,a,0.5939,10,395,1,1,4,16,9,1,0,0,0,1,1,0,0,0,star,triangle,,,,,,,,,,,,,,,,,,,,,,,,,,,,,,,,,,,,,,,,,,,,,,,,,,,,,,
298057,2022-11-28_22h24.41.792,vts_reward_expectancy_bt,2022.2.4,MacIntel,60.0024001,Chrome,1440,900,,,a,0.8197,10,405,1,1,5,17,6,1,0,0,1,0,1,0,0,0,hexagon,triangle,,,,,,,,,,,,,,,,,,,,,,,,,,,,,,,,,,,,,,,,,,,,,,,,,,,,,,
298057,2022-11-28_22h24.41.792,vts_reward_expectancy_bt,2022.2.4,MacIntel,60.0024001,Chrome,1440,900,,,l,0.658,10,415,1,1,6,18,5,1,0,1,0,0,0,0,0,1,circle,star,,,,,,,,,,,,,,,,,,,,,,,,,,,,,,,,,,,,,,,,,,,,,,,,,,,,,,
298057,2022-11-28_22h24.41.792,vts_reward_expectancy_bt,2022.2.4,MacIntel,60.0024001,Chrome,1440,900,,,a,1.1227,1,416,1,1,7,19,0,1,1,0,0,0,0,1,0,0,triangle,circle,,,,,,,,,,,,,,,,,,,,,,,,,,,,,,,,,,,,,,,,,,,,,,,,,,,,,,
298057,2022-11-28_22h24.41.792,vts_reward_expectancy_bt,2022.2.4,MacIntel,60.0024001,Chrome,1440,900,,,l,1.5552,1,417,1,1,8,20,3,1,0,1,0,0,1,0,0,0,circle,triangle,,,,,,,,,,,,,,,,,,,,,,,,,,,,,,,,,,,,,,,,,,,,,,,,,,,,,,
298057,2022-11-28_22h24.41.792,vts_reward_expectancy_bt,2022.2.4,MacIntel,60.0024001,Chrome,1440,900,,,l,0.5601,1,418,1,1,9,21,8,1,0,0,1,0,0,0,0,1,hexagon,star,,,,,,,,,,,,,,,,,,,,,,,,,,,,,,,,,,,,,,,,,,,,,,,,,,,,,,
298057,2022-11-28_22h24.41.792,vts_reward_expectancy_bt,2022.2.4,MacIntel,60.0024001,Chrome,1440,900,,,a,0.9543,1,419,1,1,10,22,1,1,1,0,0,0,0,0,1,0,triangle,hexagon,,,,,,,,,,,,,,,,,,,,,,,,,,,,,,,,,,,,,,,,,,,,,,,,,,,,,,
298057,2022-11-28_22h24.41.792,vts_reward_expectancy_bt,2022.2.4,MacIntel,60.0024001,Chrome,1440,900,,,l,1.2597,1,420,1,1,11,23,7,1,0,0,1,0,0,1,0,0,hexagon,circle,,,,,,,,,,,,,,,,,,,,,,,,,,,,,,,,,,,,,,,,,,,,,,,,,,,,,,
298057,2022-11-28_22h24.41.792,vts_reward_expectancy_bt,2022.2.4,MacIntel,60.0024001,Chrome,1440,900,,,l,1.1178,10,430,1,2,0,24,5,1,0,1,0,0,0,0,0,1,circle,star,,,,,,,,,,,,,,,,,,,,,,,,,,,,,,,,,,,,,,,,,,,,,,,,,,,,,,
298057,2022-11-28_22h24.41.792,vts_reward_expectancy_bt,2022.2.4,MacIntel,60.0024001,Chrome,1440,900,,,a,0.6055,1,431,1,2,1,25,7,1,0,0,1,0,0,1,0,0,hexagon,circle,,,,,,,,,,,,,,,,,,,,,,,,,,,,,,,,,,,,,,,,,,,,,,,,,,,,,,
298057,2022-11-28_22h24.41.792,vts_reward_expectancy_bt,2022.2.4,MacIntel,60.0024001,Chrome,1440,900,,,a,1.0209,10,441,1,2,2,26,0,1,1,0,0,0,0,1,0,0,triangle,circle,,,,,,,,,,,,,,,,,,,,,,,,,,,,,,,,,,,,,,,,,,,,,,,,,,,,,,
298057,2022-11-28_22h24.41.792,vts_reward_expectancy_bt,2022.2.4,MacIntel,60.0024001,Chrome,1440,900,,,a,0.611,10,451,1,2,3,27,10,1,0,0,0,1,0,1,0,0,star ,circle,,,,,,,,,,,,,,,,,,,,,,,,,,,,,,,,,,,,,,,,,,,,,,,,,,,,,,
298057,2022-11-28_22h24.41.792,vts_reward_expectancy_bt,2022.2.4,MacIntel,60.0024001,Chrome,1440,900,,,l,0.7836,1,452,1,2,4,28,4,1,0,1,0,0,0,0,1,0,circle,hexagon,,,,,,,,,,,,,,,,,,,,,,,,,,,,,,,,,,,,,,,,,,,,,,,,,,,,,,
298057,2022-11-28_22h24.41.792,vts_reward_expectancy_bt,2022.2.4,MacIntel,60.0024001,Chrome,1440,900,,,a,0.7689,10,462,1,2,5,29,11,1,0,0,0,1,0,0,1,0,star,hexagon,,,,,,,,,,,,,,,,,,,,,,,,,,,,,,,,,,,,,,,,,,,,,,,,,,,,,,
298057,2022-11-28_22h24.41.792,vts_reward_expectancy_bt,2022.2.4,MacIntel,60.0024001,Chrome,1440,900,,,l,1.0166,1,463,1,2,6,30,3,1,0,1,0,0,1,0,0,0,circle,triangle,,,,,,,,,,,,,,,,,,,,,,,,,,,,,,,,,,,,,,,,,,,,,,,,,,,,,,
298057,2022-11-28_22h24.41.792,vts_reward_expectancy_bt,2022.2.4,MacIntel,60.0024001,Chrome,1440,900,,,l,0.5178,10,473,1,2,7,31,8,1,0,0,1,0,0,0,0,1,hexagon,star,,,,,,,,,,,,,,,,,,,,,,,,,,,,,,,,,,,,,,,,,,,,,,,,,,,,,,
298057,2022-11-28_22h24.41.792,vts_reward_expectancy_bt,2022.2.4,MacIntel,60.0024001,Chrome,1440,900,,,a,0.809,10,483,1,2,8,32,6,1,0,0,1,0,1,0,0,0,hexagon,triangle,,,,,,,,,,,,,,,,,,,,,,,,,,,,,,,,,,,,,,,,,,,,,,,,,,,,,,
298057,2022-11-28_22h24.41.792,vts_reward_expectancy_bt,2022.2.4,MacIntel,60.0024001,Chrome,1440,900,,,l,0.5156,10,493,1,2,9,33,2,1,1,0,0,0,0,0,0,1,triangle,star,,,,,,,,,,,,,,,,,,,,,,,,,,,,,,,,,,,,,,,,,,,,,,,,,,,,,,
298057,2022-11-28_22h24.41.792,vts_reward_expectancy_bt,2022.2.4,MacIntel,60.0024001,Chrome,1440,900,,,a,0.4591,10,503,1,2,10,34,9,1,0,0,0,1,1,0,0,0,star,triangle,,,,,,,,,,,,,,,,,,,,,,,,,,,,,,,,,,,,,,,,,,,,,,,,,,,,,,
298057,2022-11-28_22h24.41.792,vts_reward_expectancy_bt,2022.2.4,MacIntel,60.0024001,Chrome,1440,900,,,l,0.7193,10,513,1,2,11,35,1,1,1,0,0,0,0,0,1,0,triangle,hexagon,,,,,,,,,,,,,,,,,,,,,,,,,,,,,,,,,,,,,,,,,,,,,,,,,,,,,,
298057,2022-11-28_22h24.41.792,vts_reward_expectancy_bt,2022.2.4,MacIntel,60.0024001,Chrome,1440,900,,,l,0.7862,1,514,2,0,0,0,4,1,0,1,0,0,0,0,1,0,circle,hexagon,,,,,,,,,,,,,,,,,,,,,,,,,,,,,,,,,,,,,,,,,,,,,,,,,,,,,,
298057,2022-11-28_22h24.41.792,vts_reward_expectancy_bt,2022.2.4,MacIntel,60.0024001,Chrome,1440,900,,,l,1.5015,10,524,2,0,1,1,1,1,1,0,0,0,0,0,1,0,triangle,hexagon,,,,,,,,,,,,,,,,,,,,,,,,,,,,,,,,,,,,,,,,,,,,,,,,,,,,,,
298057,2022-11-28_22h24.41.792,vts_reward_expectancy_bt,2022.2.4,MacIntel,60.0024001,Chrome,1440,900,,,l,1.6238,1,525,2,0,2,2,6,1,0,0,1,0,1,0,0,0,hexagon,triangle,,,,,,,,,,,,,,,,,,,,,,,,,,,,,,,,,,,,,,,,,,,,,,,,,,,,,,
298057,2022-11-28_22h24.41.792,vts_reward_expectancy_bt,2022.2.4,MacIntel,60.0024001,Chrome,1440,900,,,l,0.6334,10,535,2,0,3,3,2,1,1,0,0,0,0,0,0,1,triangle,star,,,,,,,,,,,,,,,,,,,,,,,,,,,,,,,,,,,,,,,,,,,,,,,,,,,,,,
298057,2022-11-28_22h24.41.792,vts_reward_expectancy_bt,2022.2.4,MacIntel,60.0024001,Chrome,1440,900,,,l,0.8022,1,536,2,0,4,4,3,1,0,1,0,0,1,0,0,0,circle,triangle,,,,,,,,,,,,,,,,,,,,,,,,,,,,,,,,,,,,,,,,,,,,,,,,,,,,,,
298057,2022-11-28_22h24.41.792,vts_reward_expectancy_bt,2022.2.4,MacIntel,60.0024001,Chrome,1440,900,,,l,0.71,1,537,2,0,5,5,5,1,0,1,0,0,0,0,0,1,circle,star,,,,,,,,,,,,,,,,,,,,,,,,,,,,,,,,,,,,,,,,,,,,,,,,,,,,,,
298057,2022-11-28_22h24.41.792,vts_reward_expectancy_bt,2022.2.4,MacIntel,60.0024001,Chrome,1440,900,,,a,0.7422,10,547,2,0,6,6,9,1,0,0,0,1,1,0,0,0,star,triangle,,,,,,,,,,,,,,,,,,,,,,,,,,,,,,,,,,,,,,,,,,,,,,,,,,,,,,
298057,2022-11-28_22h24.41.792,vts_reward_expectancy_bt,2022.2.4,MacIntel,60.0024001,Chrome,1440,900,,,l,0.6414,1,548,2,0,7,7,11,1,0,0,0,1,0,0,1,0,star,hexagon,,,,,,,,,,,,,,,,,,,,,,,,,,,,,,,,,,,,,,,,,,,,,,,,,,,,,,
298057,2022-11-28_22h24.41.792,vts_reward_expectancy_bt,2022.2.4,MacIntel,60.0024001,Chrome,1440,900,,,l,1.2066,1,549,2,0,8,8,0,1,1,0,0,0,0,1,0,0,triangle,circle,,,,,,,,,,,,,,,,,,,,,,,,,,,,,,,,,,,,,,,,,,,,,,,,,,,,,,
298057,2022-11-28_22h24.41.792,vts_reward_expectancy_bt,2022.2.4,MacIntel,60.0024001,Chrome,1440,900,,,a,0.5027,1,550,2,0,9,9,10,1,0,0,0,1,0,1,0,0,star ,circle,,,,,,,,,,,,,,,,,,,,,,,,,,,,,,,,,,,,,,,,,,,,,,,,,,,,,,
298057,2022-11-28_22h24.41.792,vts_reward_expectancy_bt,2022.2.4,MacIntel,60.0024001,Chrome,1440,900,,,l,0.657,1,551,2,0,10,10,7,1,0,0,1,0,0,1,0,0,hexagon,circle,,,,,,,,,,,,,,,,,,,,,,,,,,,,,,,,,,,,,,,,,,,,,,,,,,,,,,
298057,2022-11-28_22h24.41.792,vts_reward_expectancy_bt,2022.2.4,MacIntel,60.0024001,Chrome,1440,900,,,l,0.4252,1,552,2,0,11,11,8,1,0,0,1,0,0,0,0,1,hexagon,star,,,,,,,,,,,,,,,,,,,,,,,,,,,,,,,,,,,,,,,,,,,,,,,,,,,,,,
298057,2022-11-28_22h24.41.792,vts_reward_expectancy_bt,2022.2.4,MacIntel,60.0024001,Chrome,1440,900,,,l,0.5618,10,562,2,1,0,12,2,1,1,0,0,0,0,0,0,1,triangle,star,,,,,,,,,,,,,,,,,,,,,,,,,,,,,,,,,,,,,,,,,,,,,,,,,,,,,,
298057,2022-11-28_22h24.41.792,vts_reward_expectancy_bt,2022.2.4,MacIntel,60.0024001,Chrome,1440,900,,,a,0.5488,10,572,2,1,1,13,10,1,0,0,0,1,0,1,0,0,star ,circle,,,,,,,,,,,,,,,,,,,,,,,,,,,,,,,,,,,,,,,,,,,,,,,,,,,,,,
298057,2022-11-28_22h24.41.792,vts_reward_expectancy_bt,2022.2.4,MacIntel,60.0024001,Chrome,1440,900,,,a,1.0414,1,573,2,1,2,14,0,1,1,0,0,0,0,1,0,0,triangle,circle,,,,,,,,,,,,,,,,,,,,,,,,,,,,,,,,,,,,,,,,,,,,,,,,,,,,,,
298057,2022-11-28_22h24.41.792,vts_reward_expectancy_bt,2022.2.4,MacIntel,60.0024001,Chrome,1440,900,,,l,1.5267,10,583,2,1,3,15,8,1,0,0,1,0,0,0,0,1,hexagon,star,,,,,,,,,,,,,,,,,,,,,,,,,,,,,,,,,,,,,,,,,,,,,,,,,,,,,,
298057,2022-11-28_22h24.41.792,vts_reward_expectancy_bt,2022.2.4,MacIntel,60.0024001,Chrome,1440,900,,,a,0.6126,1,584,2,1,4,16,5,1,0,1,0,0,0,0,0,1,circle,star,,,,,,,,,,,,,,,,,,,,,,,,,,,,,,,,,,,,,,,,,,,,,,,,,,,,,,
298057,2022-11-28_22h24.41.792,vts_reward_expectancy_bt,2022.2.4,MacIntel,60.0024001,Chrome,1440,900,,,a,0.8085,10,594,2,1,5,17,6,1,0,0,1,0,1,0,0,0,hexagon,triangle,,,,,,,,,,,,,,,,,,,,,,,,,,,,,,,,,,,,,,,,,,,,,,,,,,,,,,
298057,2022-11-28_22h24.41.792,vts_reward_expectancy_bt,2022.2.4,MacIntel,60.0024001,Chrome,1440,900,,,a,1.0848,10,604,2,1,6,18,9,1,0,0,0,1,1,0,0,0,star,triangle,,,,,,,,,,,,,,,,,,,,,,,,,,,,,,,,,,,,,,,,,,,,,,,,,,,,,,
298057,2022-11-28_22h24.41.792,vts_reward_expectancy_bt,2022.2.4,MacIntel,60.0024001,Chrome,1440,900,,,l,0.6524,10,614,2,1,7,19,4,1,0,1,0,0,0,0,1,0,circle,hexagon,,,,,,,,,,,,,,,,,,,,,,,,,,,,,,,,,,,,,,,,,,,,,,,,,,,,,,
298057,2022-11-28_22h24.41.792,vts_reward_expectancy_bt,2022.2.4,MacIntel,60.0024001,Chrome,1440,900,,,a,0.5494,10,624,2,1,8,20,11,1,0,0,0,1,0,0,1,0,star,hexagon,,,,,,,,,,,,,,,,,,,,,,,,,,,,,,,,,,,,,,,,,,,,,,,,,,,,,,
298057,2022-11-28_22h24.41.792,vts_reward_expectancy_bt,2022.2.4,MacIntel,60.0024001,Chrome,1440,900,,,l,0.8171,10,634,2,1,9,21,3,1,0,1,0,0,1,0,0,0,circle,triangle,,,,,,,,,,,,,,,,,,,,,,,,,,,,,,,,,,,,,,,,,,,,,,,,,,,,,,
298057,2022-11-28_22h24.41.792,vts_reward_expectancy_bt,2022.2.4,MacIntel,60.0024001,Chrome,1440,900,,,a,0.5518,10,644,2,1,10,22,7,1,0,0,1,0,0,1,0,0,hexagon,circle,,,,,,,,,,,,,,,,,,,,,,,,,,,,,,,,,,,,,,,,,,,,,,,,,,,,,,
298057,2022-11-28_22h24.41.792,vts_reward_expectancy_bt,2022.2.4,MacIntel,60.0024001,Chrome,1440,900,,,l,0.4995,10,654,2,1,11,23,1,1,1,0,0,0,0,0,1,0,triangle,hexagon,,,,,,,,,,,,,,,,,,,,,,,,,,,,,,,,,,,,,,,,,,,,,,,,,,,,,,
298057,2022-11-28_22h24.41.792,vts_reward_expectancy_bt,2022.2.4,MacIntel,60.0024001,Chrome,1440,900,,,a,0.839,1,655,2,2,0,24,0,1,1,0,0,0,0,1,0,0,triangle,circle,,,,,,,,,,,,,,,,,,,,,,,,,,,,,,,,,,,,,,,,,,,,,,,,,,,,,,
298057,2022-11-28_22h24.41.792,vts_reward_expectancy_bt,2022.2.4,MacIntel,60.0024001,Chrome,1440,900,,,a,0.7871,10,665,2,2,1,25,11,1,0,0,0,1,0,0,1,0,star,hexagon,,,,,,,,,,,,,,,,,,,,,,,,,,,,,,,,,,,,,,,,,,,,,,,,,,,,,,
298057,2022-11-28_22h24.41.792,vts_reward_expectancy_bt,2022.2.4,MacIntel,60.0024001,Chrome,1440,900,,,a,0.5165,10,675,2,2,2,26,10,1,0,0,0,1,0,1,0,0,star ,circle,,,,,,,,,,,,,,,,,,,,,,,,,,,,,,,,,,,,,,,,,,,,,,,,,,,,,,
298057,2022-11-28_22h24.41.792,vts_reward_expectancy_bt,2022.2.4,MacIntel,60.0024001,Chrome,1440,900,,,a,1.0155,1,676,2,2,3,27,5,1,0,1,0,0,0,0,0,1,circle,star,,,,,,,,,,,,,,,,,,,,,,,,,,,,,,,,,,,,,,,,,,,,,,,,,,,,,,
298057,2022-11-28_22h24.41.792,vts_reward_expectancy_bt,2022.2.4,MacIntel,60.0024001,Chrome,1440,900,,,l,0.5575,1,677,2,2,4,28,2,1,1,0,0,0,0,0,0,1,triangle,star,,,,,,,,,,,,,,,,,,,,,,,,,,,,,,,,,,,,,,,,,,,,,,,,,,,,,,
298057,2022-11-28_22h24.41.792,vts_reward_expectancy_bt,2022.2.4,MacIntel,60.0024001,Chrome,1440,900,,,a,0.6361,10,687,2,2,5,29,7,1,0,0,1,0,0,1,0,0,hexagon,circle,,,,,,,,,,,,,,,,,,,,,,,,,,,,,,,,,,,,,,,,,,,,,,,,,,,,,,
298057,2022-11-28_22h24.41.792,vts_reward_expectancy_bt,2022.2.4,MacIntel,60.0024001,Chrome,1440,900,,,l,1.2863,10,697,2,2,6,30,4,1,0,1,0,0,0,0,1,0,circle,hexagon,,,,,,,,,,,,,,,,,,,,,,,,,,,,,,,,,,,,,,,,,,,,,,,,,,,,,,
298057,2022-11-28_22h24.41.792,vts_reward_expectancy_bt,2022.2.4,MacIntel,60.0024001,Chrome,1440,900,,,a,0.5669,1,698,2,2,7,31,3,1,0,1,0,0,1,0,0,0,circle,triangle,,,,,,,,,,,,,,,,,,,,,,,,,,,,,,,,,,,,,,,,,,,,,,,,,,,,,,
298057,2022-11-28_22h24.41.792,vts_reward_expectancy_bt,2022.2.4,MacIntel,60.0024001,Chrome,1440,900,,,l,0.535,10,708,2,2,8,32,8,1,0,0,1,0,0,0,0,1,hexagon,star,,,,,,,,,,,,,,,,,,,,,,,,,,,,,,,,,,,,,,,,,,,,,,,,,,,,,,
298057,2022-11-28_22h24.41.792,vts_reward_expectancy_bt,2022.2.4,MacIntel,60.0024001,Chrome,1440,900,,,a,1.0834,10,718,2,2,9,33,6,1,0,0,1,0,1,0,0,0,hexagon,triangle,,,,,,,,,,,,,,,,,,,,,,,,,,,,,,,,,,,,,,,,,,,,,,,,,,,,,,
298057,2022-11-28_22h24.41.792,vts_reward_expectancy_bt,2022.2.4,MacIntel,60.0024001,Chrome,1440,900,,,a,0.9163,10,728,2,2,10,34,1,1,1,0,0,0,0,0,1,0,triangle,hexagon,,,,,,,,,,,,,,,,,,,,,,,,,,,,,,,,,,,,,,,,,,,,,,,,,,,,,,
298057,2022-11-28_22h24.41.792,vts_reward_expectancy_bt,2022.2.4,MacIntel,60.0024001,Chrome,1440,900,,,l,0.9695,10,738,2,2,11,35,9,1,0,0,0,1,1,0,0,0,star,triangle,,,,,,,,,,,,,,,,,,,,,,,,,,,,,,,,,,,,,,,,,,,,,,,,,,,,,,
298057,2022-11-28_22h24.41.792,vts_reward_expectancy_bt,2022.2.4,MacIntel,60.0024001,Chrome,1440,900,,,,,,,,,,,,,,,,,,,,,,,132,S,circle,0,0,,0,0,0,0,0,1,,,,,,,,,,,,,,,,,,,,,,,,,,,,,,,,,,,,,,,,,,
298057,2022-11-28_22h24.41.792,vts_reward_expectancy_bt,2022.2.4,MacIntel,60.0024001,Chrome,1440,900,,,,,,,,,,,,,,,,,,,,,,,174,B,triangle,1,1,f,0,1,0,1,0,1,1.1043,,,,,,,,,,,,,,,,,,,,,,,,,,,,,,,,,,,,,,,,,
298057,2022-11-28_22h24.41.792,vts_reward_expectancy_bt,2022.2.4,MacIntel,60.0024001,Chrome,1440,900,,,,,,,,,,,,,,,,,,,,,,,167,F,star,1,0,f,0,2,0,2,0,1,0.803,,,,,,,,,,,,,,,,,,,,,,,,,,,,,,,,,,,,,,,,,
298057,2022-11-28_22h24.41.792,vts_reward_expectancy_bt,2022.2.4,MacIntel,60.0024001,Chrome,1440,900,,,,,,,,,,,,,,,,,,,,,,,139,W,hexagon,1,0,d,0,3,0,3,0,1,0.5697,,,,,,,,,,,,,,,,,,,,,,,,,,,,,,,,,,,,,,,,,
298057,2022-11-28_22h24.41.792,vts_reward_expectancy_bt,2022.2.4,MacIntel,60.0024001,Chrome,1440,900,,,,,,,,,,,,,,,,,,,,,,,181,H,circle,1,0,f,0,4,0,4,0,1,0.7094,,,,,,,,,,,,,,,,,,,,,,,,,,,,,,,,,,,,,,,,,
298057,2022-11-28_22h24.41.792,vts_reward_expectancy_bt,2022.2.4,MacIntel,60.0024001,Chrome,1440,900,,,,,,,,,,,,,,,,,,,,,,,125,Y,triangle,1,0,d,0,5,0,5,0,1,0.7269,,,,,,,,,,,,,,,,,,,,,,,,,,,,,,,,,,,,,,,,,
298057,2022-11-28_22h24.41.792,vts_reward_expectancy_bt,2022.2.4,MacIntel,60.0024001,Chrome,1440,900,,,,,,,,,,,,,,,,,,,,,,,160,U,star,1,0,f,0,6,0,6,0,1,0.8974,,,,,,,,,,,,,,,,,,,,,,,,,,,,,,,,,,,,,,,,,
298057,2022-11-28_22h24.41.792,vts_reward_expectancy_bt,2022.2.4,MacIntel,60.0024001,Chrome,1440,900,,,,,,,,,,,,,,,,,,,,,,,146,D,hexagon,1,0,d,0,7,0,7,0,1,0.8835,,,,,,,,,,,,,,,,,,,,,,,,,,,,,,,,,,,,,,,,,
298057,2022-11-28_22h24.41.792,vts_reward_expectancy_bt,2022.2.4,MacIntel,60.0024001,Chrome,1440,900,,,,,,,,,,,,,,,,,,,,,,,132,S,triangle,0,0,f,0,8,0,8,0,1,0.7592,,,,,,,,,,,,,,,,,,,,,,,,,,,,,,,,,,,,,,,,,
298057,2022-11-28_22h24.41.792,vts_reward_expectancy_bt,2022.2.4,MacIntel,60.0024001,Chrome,1440,900,,,,,,,,,,,,,,,,,,,,,,,174,B,hexagon,1,1,f,0,9,0,9,0,1,1.0745,,,,,,,,,,,,,,,,,,,,,,,,,,,,,,,,,,,,,,,,,
298057,2022-11-28_22h24.41.792,vts_reward_expectancy_bt,2022.2.4,MacIntel,60.0024001,Chrome,1440,900,,,,,,,,,,,,,,,,,,,,,,,139,F,triangle,1,0,d,1,0,0,0,0,1,0.8281,,,,,,,,,,,,,,,,,,,,,,,,,,,,,,,,,,,,,,,,,
298057,2022-11-28_22h24.41.792,vts_reward_expectancy_bt,2022.2.4,MacIntel,60.0024001,Chrome,1440,900,,,,,,,,,,,,,,,,,,,,,,,174,Y,hexagon,1,0,f,1,1,0,1,0,1,0.4702,,,,,,,,,,,,,,,,,,,,,,,,,,,,,,,,,,,,,,,,,
298057,2022-11-28_22h24.41.792,vts_reward_expectancy_bt,2022.2.4,MacIntel,60.0024001,Chrome,1440,900,,,,,,,,,,,,,,,,,,,,,,,132,B,circle,1,0,d,1,2,0,2,0,1,0.6593,,,,,,,,,,,,,,,,,,,,,,,,,,,,,,,,,,,,,,,,,
298057,2022-11-28_22h24.41.792,vts_reward_expectancy_bt,2022.2.4,MacIntel,60.0024001,Chrome,1440,900,,,,,,,,,,,,,,,,,,,,,,,181,W,star,1,0,f,1,3,0,3,0,1,0.8127,,,,,,,,,,,,,,,,,,,,,,,,,,,,,,,,,,,,,,,,,
298057,2022-11-28_22h24.41.792,vts_reward_expectancy_bt,2022.2.4,MacIntel,60.0024001,Chrome,1440,900,,,,,,,,,,,,,,,,,,,,,,,125,U,triangle,1,0,d,1,4,0,4,0,1,0.5474,,,,,,,,,,,,,,,,,,,,,,,,,,,,,,,,,,,,,,,,,
298057,2022-11-28_22h24.41.792,vts_reward_expectancy_bt,2022.2.4,MacIntel,60.0024001,Chrome,1440,900,,,,,,,,,,,,,,,,,,,,,,,167,S,hexagon,1,0,f,1,5,0,5,0,1,1.0846,,,,,,,,,,,,,,,,,,,,,,,,,,,,,,,,,,,,,,,,,
298057,2022-11-28_22h24.41.792,vts_reward_expectancy_bt,2022.2.4,MacIntel,60.0024001,Chrome,1440,900,,,,,,,,,,,,,,,,,,,,,,,146,D,circle,1,0,d,1,6,0,6,0,1,1.6182,,,,,,,,,,,,,,,,,,,,,,,,,,,,,,,,,,,,,,,,,
298057,2022-11-28_22h24.41.792,vts_reward_expectancy_bt,2022.2.4,MacIntel,60.0024001,Chrome,1440,900,,,,,,,,,,,,,,,,,,,,,,,160,H,star,1,0,f,1,7,0,7,0,1,0.9202,,,,,,,,,,,,,,,,,,,,,,,,,,,,,,,,,,,,,,,,,
298057,2022-11-28_22h24.41.792,vts_reward_expectancy_bt,2022.2.4,MacIntel,60.0024001,Chrome,1440,900,,,,,,,,,,,,,,,,,,,,,,,139,F,triangle,1,0,d,1,8,0,8,0,1,1.2431,,,,,,,,,,,,,,,,,,,,,,,,,,,,,,,,,,,,,,,,,
298057,2022-11-28_22h24.41.792,vts_reward_expectancy_bt,2022.2.4,MacIntel,60.0024001,Chrome,1440,900,,,,,,,,,,,,,,,,,,,,,,,174,Y,hexagon,1,0,f,1,9,0,9,0,1,1.061,,,,,,,,,,,,,,,,,,,,,,,,,,,,,,,,,,,,,,,,,
298057,2022-11-28_22h24.41.792,vts_reward_expectancy_bt,2022.2.4,MacIntel,60.0024001,Chrome,1440,900,,,,,,,,,,,,,,,,,,,,,,,160,S,circle,1,0,,2,,,,,,,k,1.1295,0,0,0,0,1,,,,,,,,,,,,,,,,,,,,,,,,,,,,,,,,,,
298057,2022-11-28_22h24.41.792,vts_reward_expectancy_bt,2022.2.4,MacIntel,60.0024001,Chrome,1440,900,,,,,,,,,,,,,,,,,,,,,,,174,Y,triangle,1,0,,2,,,,,,,k,0.5868,1,0,1,0,1,,,,,,,,,,,,,,,,,,,,,,,,,,,,,,,,,,
298057,2022-11-28_22h24.41.792,vts_reward_expectancy_bt,2022.2.4,MacIntel,60.0024001,Chrome,1440,900,,,,,,,,,,,,,,,,,,,,,,,139,W,star,1,0,,2,,,,,,,k,0.6462,2,0,2,0,1,,,,,,,,,,,,,,,,,,,,,,,,,,,,,,,,,,
298057,2022-11-28_22h24.41.792,vts_reward_expectancy_bt,2022.2.4,MacIntel,60.0024001,Chrome,1440,900,,,,,,,,,,,,,,,,,,,,,,,181,B,hexagon,1,0,,2,,,,,,,j,0.6111,3,0,3,0,1,,,,,,,,,,,,,,,,,,,,,,,,,,,,,,,,,,
298057,2022-11-28_22h24.41.792,vts_reward_expectancy_bt,2022.2.4,MacIntel,60.0024001,Chrome,1440,900,,,,,,,,,,,,,,,,,,,,,,,146,U,circle,1,0,,2,,,,,,,k,0.755,4,0,4,0,1,,,,,,,,,,,,,,,,,,,,,,,,,,,,,,,,,,
298057,2022-11-28_22h24.41.792,vts_reward_expectancy_bt,2022.2.4,MacIntel,60.0024001,Chrome,1440,900,,,,,,,,,,,,,,,,,,,,,,,125,D,triangle,1,0,,2,,,,,,,j,0.6632,5,0,5,0,1,,,,,,,,,,,,,,,,,,,,,,,,,,,,,,,,,,
298057,2022-11-28_22h24.41.792,vts_reward_expectancy_bt,2022.2.4,MacIntel,60.0024001,Chrome,1440,900,,,,,,,,,,,,,,,,,,,,,,,132,F,star,1,0,,2,,,,,,,j,0.7367,6,0,6,0,1,,,,,,,,,,,,,,,,,,,,,,,,,,,,,,,,,,
298057,2022-11-28_22h24.41.792,vts_reward_expectancy_bt,2022.2.4,MacIntel,60.0024001,Chrome,1440,900,,,,,,,,,,,,,,,,,,,,,,,167,H,hexagon,1,0,,2,,,,,,,j,0.9132,7,0,7,0,1,,,,,,,,,,,,,,,,,,,,,,,,,,,,,,,,,,
298057,2022-11-28_22h24.41.792,vts_reward_expectancy_bt,2022.2.4,MacIntel,60.0024001,Chrome,1440,900,,,,,,,,,,,,,,,,,,,,,,,160,S,triangle,1,0,,2,,,,,,,k,0.6154,8,0,8,0,1,,,,,,,,,,,,,,,,,,,,,,,,,,,,,,,,,,
298057,2022-11-28_22h24.41.792,vts_reward_expectancy_bt,2022.2.4,MacIntel,60.0024001,Chrome,1440,900,,,,,,,,,,,,,,,,,,,,,,,174,Y,hexagon,1,0,,2,,,,,,,k,0.6263,9,0,9,0,1,,,,,,,,,,,,,,,,,,,,,,,,,,,,,,,,,,
298057,2022-11-28_22h24.41.792,vts_reward_expectancy_bt,2022.2.4,MacIntel,60.0024001,Chrome,1440,900,,,,,0,738,,,,,,,,,,,,,,,,,174,F,circle,1,0,,3,,,,,,,,,,,,,,-1,number,NA,f,2.8949,vtsPrac,0,0,0,0,1,,,,,,,,,,,,,,,,,,,,,,,
298057,2022-11-28_22h24.41.792,vts_reward_expectancy_bt,2022.2.4,MacIntel,60.0024001,Chrome,1440,900,,,,,0,738,,,,,,,,,,,,,,,,,139,H,star,1,0,,3,,,,,,,,,,,,,,repeat,number,numRpt,d,1.6341,vtsPrac,1,0,1,0,1,,,,,,,,,,,,,,,,,,,,,,,
298057,2022-11-28_22h24.41.792,vts_reward_expectancy_bt,2022.2.4,MacIntel,60.0024001,Chrome,1440,900,,,,,0,738,,,,,,,,,,,,,,,,,160,U,circle,1,0,,3,,,,,,,,,,,,,,switch,letter,lettSwt,k,0.872,vtsPrac,2,0,2,0,1,,,,,,,,,,,,,,,,,,,,,,,
298057,2022-11-28_22h24.41.792,vts_reward_expectancy_bt,2022.2.4,MacIntel,60.0024001,Chrome,1440,900,,,,,0,738,,,,,,,,,,,,,,,,,132,Y,star,1,0,,3,,,,,,,,,,,,,,repeat,letter,lettRpt,k,0.7626,vtsPrac,3,0,3,0,1,,,,,,,,,,,,,,,,,,,,,,,
298057,2022-11-28_22h24.41.792,vts_reward_expectancy_bt,2022.2.4,MacIntel,60.0024001,Chrome,1440,900,,,,,0,738,,,,,,,,,,,,,,,,,174,F,hexagon,0,0,,3,,,,,,,,,,,,,,repeat,letter,NA,k,0.653,vtsPrac,4,0,4,0,1,,,,,,,,,,,,,,,,,,,,,,,
298057,2022-11-28_22h24.41.792,vts_reward_expectancy_bt,2022.2.4,MacIntel,60.0024001,Chrome,1440,900,,,,,0,738,,,,,,,,,,,,,,,,,139,H,circle,1,1,,3,,,,,,,,,,,,,,repeat,letter,lettRpt,j,1.1475,vtsPrac,5,0,5,0,1,,,,,,,,,,,,,,,,,,,,,,,
298057,2022-11-28_22h24.41.792,vts_reward_expectancy_bt,2022.2.4,MacIntel,60.0024001,Chrome,1440,900,,,,,0,738,,,,,,,,,,,,,,,,,160,U,circle,1,0,,3,,,,,,,,,,,,,,switch,number,numSwt,f,0.861,vtsPrac,6,0,6,0,1,,,,,,,,,,,,,,,,,,,,,,,
298057,2022-11-28_22h24.41.792,vts_reward_expectancy_bt,2022.2.4,MacIntel,60.0024001,Chrome,1440,900,,,,,0,738,,,,,,,,,,,,,,,,,132,Y,triangle,1,0,,3,,,,,,,,,,,,,,repeat,number,numRpt,d,0.739,vtsPrac,7,0,7,0,1,,,,,,,,,,,,,,,,,,,,,,,
298057,2022-11-28_22h24.41.792,vts_reward_expectancy_bt,2022.2.4,MacIntel,60.0024001,Chrome,1440,900,,,,,0,738,,,,,,,,,,,,,,,,,167,H,hexagon,1,0,,3,,,,,,,,,,,,,,repeat,number,numRpt,f,0.7044,vtsPrac,8,0,8,0,1,,,,,,,,,,,,,,,,,,,,,,,
298057,2022-11-28_22h24.41.792,vts_reward_expectancy_bt,2022.2.4,MacIntel,60.0024001,Chrome,1440,900,,,,,0,738,,,,,,,,,,,,,,,,,181,W,circle,1,0,,3,,,,,,,,,,,,,,repeat,number,numRpt,f,0.8976,vtsPrac,9,0,9,0,1,,,,,,,,,,,,,,,,,,,,,,,
298057,2022-11-28_22h24.41.792,vts_reward_expectancy_bt,2022.2.4,MacIntel,60.0024001,Chrome,1440,900,,,,,0,738,,,,,,,,,,,,,,,,,132,F,star,1,0,,3,,,,,,,,,,,,,,repeat,number,numRpt,d,1.0794,vtsPrac,10,0,10,0,1,,,,,,,,,,,,,,,,,,,,,,,
298057,2022-11-28_22h24.41.792,vts_reward_expectancy_bt,2022.2.4,MacIntel,60.0024001,Chrome,1440,900,,,,,0,738,,,,,,,,,,,,,,,,,160,S,circle,1,0,,3,,,,,,,,,,,,,,repeat,number,numRpt,f,1.16,vtsPrac,11,0,11,0,1,,,,,,,,,,,,,,,,,,,,,,,
298057,2022-11-28_22h24.41.792,vts_reward_expectancy_bt,2022.2.4,MacIntel,60.0024001,Chrome,1440,900,,,,,0,738,,,,,,,,,,,,,,,,,139,H,triangle,1,0,,3,,,,,,,,,,,,,,repeat,number,numRpt,d,0.8774,vtsPrac,12,0,12,0,1,,,,,,,,,,,,,,,,,,,,,,,
298057,2022-11-28_22h24.41.792,vts_reward_expectancy_bt,2022.2.4,MacIntel,60.0024001,Chrome,1440,900,,,,,0,738,,,,,,,,,,,,,,,,,181,B,star,1,0,,3,,,,,,,,,,,,,,repeat,number,numRpt,f,2.0542,vtsPrac,13,0,13,0,1,,,,,,,,,,,,,,,,,,,,,,,
298057,2022-11-28_22h24.41.792,vts_reward_expectancy_bt,2022.2.4,MacIntel,60.0024001,Chrome,1440,900,,,,,0,738,,,,,,,,,,,,,,,,,160,W,circle,1,0,,3,,,,,,,,,,,,,,repeat,number,numRpt,f,0.9532,vtsPrac,14,0,14,0,1,,,,,,,,,,,,,,,,,,,,,,,
298057,2022-11-28_22h24.41.792,vts_reward_expectancy_bt,2022.2.4,MacIntel,60.0024001,Chrome,1440,900,,,,,0,738,,,,,,,,,,,,,,,,,174,S,hexagon,1,0,,3,,,,,,,,,,,,,,repeat,number,numRpt,f,0.7034,vtsPrac,15,0,15,0,1,,,,,,,,,,,,,,,,,,,,,,,
298057,2022-11-28_22h24.41.792,vts_reward_expectancy_bt,2022.2.4,MacIntel,60.0024001,Chrome,1440,900,,,,,0,738,,,,,,,,,,,,,,,,,125,S,triangle,1,0,,3,,,,,,,,,,,,,,repeat,number,numRpt,d,0.7599,vtsPrac,16,0,16,0,1,,,,,,,,,,,,,,,,,,,,,,,
298057,2022-11-28_22h24.41.792,vts_reward_expectancy_bt,2022.2.4,MacIntel,60.0024001,Chrome,1440,900,,,,,0,738,,,,,,,,,,,,,,,,,146,U,star,1,0,,3,,,,,,,,,,,,,,repeat,number,numRpt,d,1.0522,vtsPrac,17,0,17,0,1,,,,,,,,,,,,,,,,,,,,,,,
298057,2022-11-28_22h24.41.792,vts_reward_expectancy_bt,2022.2.4,MacIntel,60.0024001,Chrome,1440,900,,,,,0,738,,,,,,,,,,,,,,,,,139,D,hexagon,1,0,,3,,,,,,,,,,,,,,repeat,number,numRpt,d,0.6933,vtsPrac,18,0,18,0,1,,,,,,,,,,,,,,,,,,,,,,,
298057,2022-11-28_22h24.41.792,vts_reward_expectancy_bt,2022.2.4,MacIntel,60.0024001,Chrome,1440,900,,,,,0,738,,,,,,,,,,,,,,,,,132,B,star,1,0,,3,,,,,,,,,,,,,,repeat,number,numRpt,d,0.6837,vtsPrac,19,0,19,0,1,,,,,,,,,,,,,,,,,,,,,,,
298057,2022-11-28_22h24.41.792,vts_reward_expectancy_bt,2022.2.4,MacIntel,60.0024001,Chrome,1440,900,,,,,0,738,,,,,,,,,,,,,,,,,167,U,circle,1,0,,3,,,,,,,,,,,,,,repeat,number,numRpt,f,0.5486,vtsPrac,20,0,20,0,1,,,,,,,,,,,,,,,,,,,,,,,
298057,2022-11-28_22h24.41.792,vts_reward_expectancy_bt,2022.2.4,MacIntel,60.0024001,Chrome,1440,900,,,,,0,738,,,,,,,,,,,,,,,,,181,W,hexagon,1,0,,3,,,,,,,,,,,,,,repeat,number,numRpt,f,0.745,vtsPrac,21,0,21,0,1,,,,,,,,,,,,,,,,,,,,,,,
298057,2022-11-28_22h24.41.792,vts_reward_expectancy_bt,2022.2.4,MacIntel,60.0024001,Chrome,1440,900,,,,,0,738,,,,,,,,,,,,,,,,,146,D,hexagon,1,0,,3,,,,,,,,,,,,,,switch,letter,lettSwt,j,0.6287,vtsPrac,22,0,22,0,1,,,,,,,,,,,,,,,,,,,,,,,
298057,2022-11-28_22h24.41.792,vts_reward_expectancy_bt,2022.2.4,MacIntel,60.0024001,Chrome,1440,900,,,,,0,738,,,,,,,,,,,,,,,,,160,B,circle,1,0,,3,,,,,,,,,,,,,,repeat,letter,lettRpt,j,0.8298,vtsPrac,23,0,23,0,1,,,,,,,,,,,,,,,,,,,,,,,
298057,2022-11-28_22h24.41.792,vts_reward_expectancy_bt,2022.2.4,MacIntel,60.0024001,Chrome,1440,900,,,,,0,738,,,,,,,,,,,,,,,,,174,S,circle,1,0,,3,,,,,,,,,,,,,,repeat,letter,lettRpt,k,0.7186,vtsPrac,24,0,24,0,1,,,,,,,,,,,,,,,,,,,,,,,
298057,2022-11-28_22h24.41.792,vts_reward_expectancy_bt,2022.2.4,MacIntel,60.0024001,Chrome,1440,900,,,,,0,738,,,,,,,,,,,,,,,,,146,B,triangle,1,0,,3,,,,,,,,,,,,,,repeat,letter,lettRpt,j,1.0851,vtsPrac,25,0,25,0,1,,,,,,,,,,,,,,,,,,,,,,,
298057,2022-11-28_22h24.41.792,vts_reward_expectancy_bt,2022.2.4,MacIntel,60.0024001,Chrome,1440,900,,,,,0,738,,,,,,,,,,,,,,,,,125,U,circle,1,0,,3,,,,,,,,,,,,,,repeat,letter,lettRpt,k,0.9105,vtsPrac,26,0,26,0,1,,,,,,,,,,,,,,,,,,,,,,,
298057,2022-11-28_22h24.41.792,vts_reward_expectancy_bt,2022.2.4,MacIntel,60.0024001,Chrome,1440,900,,,,,0,738,,,,,,,,,,,,,,,,,132,W,triangle,1,0,,3,,,,,,,,,,,,,,repeat,letter,lettRpt,k,1.4957,vtsPrac,27,0,27,0,1,,,,,,,,,,,,,,,,,,,,,,,
298057,2022-11-28_22h24.41.792,vts_reward_expectancy_bt,2022.2.4,MacIntel,60.0024001,Chrome,1440,900,,,,,0,738,,,,,,,,,,,,,,,,,132,H,circle,1,0,,3,,,,,,,,,,,,,,switch,number,numSwt,d,1.266,vtsPrac,28,0,28,0,1,,,,,,,,,,,,,,,,,,,,,,,
298057,2022-11-28_22h24.41.792,vts_reward_expectancy_bt,2022.2.4,MacIntel,60.0024001,Chrome,1440,900,,,,,0,738,,,,,,,,,,,,,,,,,146,S,hexagon,1,0,,3,,,,,,,,,,,,,,repeat,number,numRpt,d,1.3228,vtsPrac,29,0,29,0,1,,,,,,,,,,,,,,,,,,,,,,,
298057,2022-11-28_22h24.41.792,vts_reward_expectancy_bt,2022.2.4,MacIntel,60.0024001,Chrome,1440,900,,,,,0,738,,,,,,,,,,,,,,,,,139,B,star,1,0,,3,,,,,,,,,,,,,,switch,letter,lettSwt,j,1.0972,vtsPrac,30,0,30,0,1,,,,,,,,,,,,,,,,,,,,,,,
298057,2022-11-28_22h24.41.792,vts_reward_expectancy_bt,2022.2.4,MacIntel,60.0024001,Chrome,1440,900,,,,,0,738,,,,,,,,,,,,,,,,,160,Y,circle,1,0,,3,,,,,,,,,,,,,,repeat,letter,lettRpt,k,1.1846,vtsPrac,31,0,31,0,1,,,,,,,,,,,,,,,,,,,,,,,
298057,2022-11-28_22h24.41.792,vts_reward_expectancy_bt,2022.2.4,MacIntel,60.0024001,Chrome,1440,900,,,,,0,738,,,,,,,,,,,,,,,,,174,F,circle,0,0,,4,,,,,,,,,,,,,,repeat,letter,NA,k,1.036,vtsPrac,0,0,0,0,1,,,,,,,,,,,,,,,,,,,,,,,
298057,2022-11-28_22h24.41.792,vts_reward_expectancy_bt,2022.2.4,MacIntel,60.0024001,Chrome,1440,900,,,,,0,738,,,,,,,,,,,,,,,,,125,U,triangle,1,1,,4,,,,,,,,,,,,,,repeat,letter,lettRpt,k,0.864,vtsPrac,1,0,1,0,1,,,,,,,,,,,,,,,,,,,,,,,
298057,2022-11-28_22h24.41.792,vts_reward_expectancy_bt,2022.2.4,MacIntel,60.0024001,Chrome,1440,900,,,,,0,738,,,,,,,,,,,,,,,,,167,Y,circle,1,0,,4,,,,,,,,,,,,,,switch,number,numSwt,f,1.0315,vtsPrac,2,0,2,0,1,,,,,,,,,,,,,,,,,,,,,,,
298057,2022-11-28_22h24.41.792,vts_reward_expectancy_bt,2022.2.4,MacIntel,60.0024001,Chrome,1440,900,,,,,0,738,,,,,,,,,,,,,,,,,132,S,triangle,1,0,,4,,,,,,,,,,,,,,switch,letter,lettSwt,k,0.8485,vtsPrac,3,0,3,0,1,,,,,,,,,,,,,,,,,,,,,,,
298057,2022-11-28_22h24.41.792,vts_reward_expectancy_bt,2022.2.4,MacIntel,60.0024001,Chrome,1440,900,,,,,0,738,,,,,,,,,,,,,,,,,174,F,star,1,0,,4,,,,,,,,,,,,,,repeat,letter,lettRpt,j,0.8006,vtsPrac,4,0,4,0,1,,,,,,,,,,,,,,,,,,,,,,,
298057,2022-11-28_22h24.41.792,vts_reward_expectancy_bt,2022.2.4,MacIntel,60.0024001,Chrome,1440,900,,,,,0,738,,,,,,,,,,,,,,,,,125,U,hexagon,1,0,,4,,,,,,,,,,,,,,switch,number,numSwt,d,0.6477,vtsPrac,5,0,5,0,1,,,,,,,,,,,,,,,,,,,,,,,
298057,2022-11-28_22h24.41.792,vts_reward_expectancy_bt,2022.2.4,MacIntel,60.0024001,Chrome,1440,900,,,,,0,738,,,,,,,,,,,,,,,,,167,Y,triangle,1,0,,4,,,,,,,,,,,,,,repeat,number,numRpt,f,1.536,vtsPrac,6,0,6,0,1,,,,,,,,,,,,,,,,,,,,,,,
298057,2022-11-28_22h24.41.792,vts_reward_expectancy_bt,2022.2.4,MacIntel,60.0024001,Chrome,1440,900,,,,,0,738,,,,,,,,,,,,,,,,,132,S,circle,1,0,,4,,,,,,,,,,,,,,repeat,number,numRpt,d,0.7798,vtsPrac,7,0,7,0,1,,,,,,,,,,,,,,,,,,,,,,,
298057,2022-11-28_22h24.41.792,vts_reward_expectancy_bt,2022.2.4,MacIntel,60.0024001,Chrome,1440,900,,,,,0,738,,,,,,,,,,,,,,,,,139,Y,hexagon,1,0,,4,,,,,,,,,,,,,,repeat,number,numRpt,d,0.8932,vtsPrac,8,0,8,0,1,,,,,,,,,,,,,,,,,,,,,,,
298057,2022-11-28_22h24.41.792,vts_reward_expectancy_bt,2022.2.4,MacIntel,60.0024001,Chrome,1440,900,,,,,0,738,,,,,,,,,,,,,,,,,146,B,circle,1,0,,4,,,,,,,,,,,,,,repeat,number,numRpt,d,0.6201,vtsPrac,9,0,9,0,1,,,,,,,,,,,,,,,,,,,,,,,
298057,2022-11-28_22h24.41.792,vts_reward_expectancy_bt,2022.2.4,MacIntel,60.0024001,Chrome,1440,900,,,,,0,738,,,,,,,,,,,,,,,,,132,W,circle,1,0,,4,,,,,,,,,,,,,,repeat,number,numRpt,d,0.9117,vtsPrac,10,0,10,0,1,,,,,,,,,,,,,,,,,,,,,,,
298057,2022-11-28_22h24.41.792,vts_reward_expectancy_bt,2022.2.4,MacIntel,60.0024001,Chrome,1440,900,,,,,0,738,,,,,,,,,,,,,,,,,174,S,triangle,1,0,,4,,,,,,,,,,,,,,repeat,number,numRpt,f,1.1963,vtsPrac,11,0,11,0,1,,,,,,,,,,,,,,,,,,,,,,,
298057,2022-11-28_22h24.41.792,vts_reward_expectancy_bt,2022.2.4,MacIntel,60.0024001,Chrome,1440,900,,,,,0,738,,,,,,,,,,,,,,,,,125,D,hexagon,1,0,,4,,,,,,,,,,,,,,switch,letter,lettSwt,j,1.9451,vtsPrac,12,0,12,0,1,,,,,,,,,,,,,,,,,,,,,,,
298057,2022-11-28_22h24.41.792,vts_reward_expectancy_bt,2022.2.4,MacIntel,60.0024001,Chrome,1440,900,,,,,0,738,,,,,,,,,,,,,,,,,174,H,circle,1,0,,4,,,,,,,,,,,,,,repeat,letter,lettRpt,j,0.9287,vtsPrac,13,0,13,0,1,,,,,,,,,,,,,,,,,,,,,,,
298057,2022-11-28_22h24.41.792,vts_reward_expectancy_bt,2022.2.4,MacIntel,60.0024001,Chrome,1440,900,,,,,0,738,,,,,,,,,,,,,,,,,167,B,hexagon,1,0,,4,,,,,,,,,,,,,,repeat,letter,lettRpt,j,2.5284,vtsPrac,14,0,14,0,1,,,,,,,,,,,,,,,,,,,,,,,
298057,2022-11-28_22h24.41.792,vts_reward_expectancy_bt,2022.2.4,MacIntel,60.0024001,Chrome,1440,900,,,,,0,738,,,,,,,,,,,,,,,,,181,F,star,1,0,,4,,,,,,,,,,,,,,repeat,letter,lettRpt,j,1.166,vtsPrac,15,0,15,0,1,,,,,,,,,,,,,,,,,,,,,,,
298057,2022-11-28_22h24.41.792,vts_reward_expectancy_bt,2022.2.4,MacIntel,60.0024001,Chrome,1440,900,,,,,0,738,,,,,,,,,,,,,,,,,181,B,hexagon,1,0,,4,,,,,,,,,,,,,,switch,number,numSwt,f,1.0574,vtsPrac,16,0,16,0,1,,,,,,,,,,,,,,,,,,,,,,,
298057,2022-11-28_22h24.41.792,vts_reward_expectancy_bt,2022.2.4,MacIntel,60.0024001,Chrome,1440,900,,,,,0,738,,,,,,,,,,,,,,,,,167,F,star,1,0,,4,,,,,,,,,,,,,,switch,letter,lettSwt,j,1.7619,vtsPrac,17,0,17,0,1,,,,,,,,,,,,,,,,,,,,,,,
298057,2022-11-28_22h24.41.792,vts_reward_expectancy_bt,2022.2.4,MacIntel,60.0024001,Chrome,1440,900,,,,,0,738,,,,,,,,,,,,,,,,,174,U,star,1,0,,4,,,,,,,,,,,,,,repeat,letter,lettRpt,k,2.8924,vtsPrac,18,0,18,0,1,,,,,,,,,,,,,,,,,,,,,,,
298057,2022-11-28_22h24.41.792,vts_reward_expectancy_bt,2022.2.4,MacIntel,60.0024001,Chrome,1440,900,,,,,0,738,,,,,,,,,,,,,,,,,160,Y,triangle,1,0,,4,,,,,,,,,,,,,,switch,number,numSwt,f,1.0837,vtsPrac,19,0,19,0,1,,,,,,,,,,,,,,,,,,,,,,,
298057,2022-11-28_22h24.41.792,vts_reward_expectancy_bt,2022.2.4,MacIntel,60.0024001,Chrome,1440,900,,,,,0,738,,,,,,,,,,,,,,,,,181,F,circle,1,0,,4,,,,,,,,,,,,,,repeat,number,numRpt,f,1.5311,vtsPrac,20,0,20,0,1,,,,,,,,,,,,,,,,,,,,,,,
298057,2022-11-28_22h24.41.792,vts_reward_expectancy_bt,2022.2.4,MacIntel,60.0024001,Chrome,1440,900,,,,,0,738,,,,,,,,,,,,,,,,,167,U,hexagon,1,0,,4,,,,,,,,,,,,,,switch,letter,lettSwt,k,0.9779,vtsPrac,21,0,21,0,1,,,,,,,,,,,,,,,,,,,,,,,
298057,2022-11-28_22h24.41.792,vts_reward_expectancy_bt,2022.2.4,MacIntel,60.0024001,Chrome,1440,900,,,,,0,738,,,,,,,,,,,,,,,,,160,W,hexagon,1,0,,4,,,,,,,,,,,,,,repeat,letter,lettRpt,k,1.1856,vtsPrac,22,0,22,0,1,,,,,,,,,,,,,,,,,,,,,,,
298057,2022-11-28_22h24.41.792,vts_reward_expectancy_bt,2022.2.4,MacIntel,60.0024001,Chrome,1440,900,,,,,0,738,,,,,,,,,,,,,,,,,146,H,circle,1,0,,4,,,,,,,,,,,,,,switch,number,numSwt,d,1.0509,vtsPrac,23,0,23,0,1,,,,,,,,,,,,,,,,,,,,,,,
298057,2022-11-28_22h24.41.792,vts_reward_expectancy_bt,2022.2.4,MacIntel,60.0024001,Chrome,1440,900,,,,,0,738,,,,,,,,,,,,,,,,,139,B,hexagon,1,0,,4,,,,,,,,,,,,,,repeat,number,numRpt,d,1.1692,vtsPrac,24,0,24,0,1,,,,,,,,,,,,,,,,,,,,,,,
298057,2022-11-28_22h24.41.792,vts_reward_expectancy_bt,2022.2.4,MacIntel,60.0024001,Chrome,1440,900,,,,,0,738,,,,,,,,,,,,,,,,,181,U,triangle,1,0,,4,,,,,,,,,,,,,,repeat,number,numRpt,f,1.8496,vtsPrac,25,0,25,0,1,,,,,,,,,,,,,,,,,,,,,,,
298057,2022-11-28_22h24.41.792,vts_reward_expectancy_bt,2022.2.4,MacIntel,60.0024001,Chrome,1440,900,,,,,0,738,,,,,,,,,,,,,,,,,146,S,hexagon,1,0,,4,,,,,,,,,,,,,,switch,letter,lettSwt,k,2.6174,vtsPrac,26,0,26,0,1,,,,,,,,,,,,,,,,,,,,,,,
298057,2022-11-28_22h24.41.792,vts_reward_expectancy_bt,2022.2.4,MacIntel,60.0024001,Chrome,1440,900,,,,,0,738,,,,,,,,,,,,,,,,,125,Y,star,1,0,,4,,,,,,,,,,,,,,repeat,letter,lettRpt,k,1.91,vtsPrac,27,0,27,0,1,,,,,,,,,,,,,,,,,,,,,,,
298057,2022-11-28_22h24.41.792,vts_reward_expectancy_bt,2022.2.4,MacIntel,60.0024001,Chrome,1440,900,,,,,0,738,,,,,,,,,,,,,,,,,174,U,hexagon,1,0,,4,,,,,,,,,,,,,,switch,number,numSwt,f,1.5679,vtsPrac,28,0,28,0,1,,,,,,,,,,,,,,,,,,,,,,,
298057,2022-11-28_22h24.41.792,vts_reward_expectancy_bt,2022.2.4,MacIntel,60.0024001,Chrome,1440,900,,,,,0,738,,,,,,,,,,,,,,,,,139,D,triangle,1,0,,4,,,,,,,,,,,,,,repeat,number,numRpt,d,2.266,vtsPrac,29,0,29,0,1,,,,,,,,,,,,,,,,,,,,,,,
298057,2022-11-28_22h24.41.792,vts_reward_expectancy_bt,2022.2.4,MacIntel,60.0024001,Chrome,1440,900,,,,,0,738,,,,,,,,,,,,,,,,,160,Y,triangle,1,0,,4,,,,,,,,,,,,,,switch,letter,lettSwt,k,0.6866,vtsPrac,30,0,30,0,1,,,,,,,,,,,,,,,,,,,,,,,
298057,2022-11-28_22h24.41.792,vts_reward_expectancy_bt,2022.2.4,MacIntel,60.0024001,Chrome,1440,900,,,,,0,738,,,,,,,,,,,,,,,,,167,S,circle,1,0,,4,,,,,,,,,,,,,,switch,number,numSwt,f,0.9934,vtsPrac,31,0,31,0,1,,,,,,,,,,,,,,,,,,,,,,,
298057,2022-11-28_22h24.41.792,vts_reward_expectancy_bt,2022.2.4,MacIntel,60.0024001,Chrome,1440,900,,,,,,,,,,,,,,,,,,,,,,,,,,,,,,,,,,,,,,,,,,,,,,,,,,,,,,,,,,,,,,,,,,,,,,,,,,,,
298057,2022-11-28_22h24.41.792,vts_reward_expectancy_bt,2022.2.4,MacIntel,60.0024001,Chrome,1440,900,,,,,,,,,,,,,,,,,,,,,,,,,,,,,,,,,,,,,,,,,,,,,,,,,,,,,,,,,,,,,,,,,,,,,,,,,,,,
298057,2022-11-28_22h24.41.792,vts_reward_expectancy_bt,2022.2.4,MacIntel,60.0024001,Chrome,1440,900,,,,,0,738,,,,,,,,,,,,,,,,,160,D,circle,1,0,,,,,,,,,,,,,,,,switch,letter,lettSwt,j,1.5114,noRew,,,,,,0,0,0,0,0,1,,,,,,,,,,,,,,,,,
298057,2022-11-28_22h24.41.792,vts_reward_expectancy_bt,2022.2.4,MacIntel,60.0024001,Chrome,1440,900,,,,,0,738,,,,,,,,,,,,,,,,,139,H,triangle,1,0,,,,,,,,,,,,,,,,switch,number,numSwt,d,0.8409,noRew,,,,,,0,1,0,1,0,1,,,,,,,,,,,,,,,,,
298057,2022-11-28_22h24.41.792,vts_reward_expectancy_bt,2022.2.4,MacIntel,60.0024001,Chrome,1440,900,,,,,0,738,,,,,,,,,,,,,,,,,146,S,circle,1,0,,,,,,,,,,,,,,,,switch,letter,lettSwt,k,0.8149,noRew,,,,,,0,2,0,2,0,1,,,,,,,,,,,,,,,,,
298057,2022-11-28_22h24.41.792,vts_reward_expectancy_bt,2022.2.4,MacIntel,60.0024001,Chrome,1440,900,,,,,0,738,,,,,,,,,,,,,,,,,132,Y,triangle,1,0,,,,,,,,,,,,,,,,switch,number,numSwt,d,0.5163,noRew,,,,,,0,3,0,3,0,1,,,,,,,,,,,,,,,,,
298057,2022-11-28_22h24.41.792,vts_reward_expectancy_bt,2022.2.4,MacIntel,60.0024001,Chrome,1440,900,,,,,0,738,,,,,,,,,,,,,,,,,160,D,circle,1,0,,,,,,,,,,,,,,,,switch,letter,lettSwt,j,0.8594,noRew,,,,,,0,4,0,4,0,1,,,,,,,,,,,,,,,,,
298057,2022-11-28_22h24.41.792,vts_reward_expectancy_bt,2022.2.4,MacIntel,60.0024001,Chrome,1440,900,,,,,0,738,,,,,,,,,,,,,,,,,139,H,triangle,1,0,,,,,,,,,,,,,,,,switch,number,numSwt,d,0.4937,noRew,,,,,,0,5,0,5,0,1,,,,,,,,,,,,,,,,,
298057,2022-11-28_22h24.41.792,vts_reward_expectancy_bt,2022.2.4,MacIntel,60.0024001,Chrome,1440,900,,,,,0,738,,,,,,,,,,,,,,,,,146,S,hexagon,1,0,,,,,,,,,,,,,,,,switch,letter,lettSwt,k,0.7187,noRew,,,,,,0,6,0,6,0,1,,,,,,,,,,,,,,,,,
298057,2022-11-28_22h24.41.792,vts_reward_expectancy_bt,2022.2.4,MacIntel,60.0024001,Chrome,1440,900,,,,,0,738,,,,,,,,,,,,,,,,,132,Y,star,1,0,,,,,,,,,,,,,,,,switch,number,numSwt,d,0.8878,noRew,,,,,,0,7,0,7,0,1,,,,,,,,,,,,,,,,,
298057,2022-11-28_22h24.41.792,vts_reward_expectancy_bt,2022.2.4,MacIntel,60.0024001,Chrome,1440,900,,,,,0,738,,,,,,,,,,,,,,,,,181,W,hexagon,1,0,,,,,,,,,,,,,,,,switch,letter,lettSwt,k,1.7842,noRew,,,,,,0,8,0,8,0,1,,,,,,,,,,,,,,,,,
298057,2022-11-28_22h24.41.792,vts_reward_expectancy_bt,2022.2.4,MacIntel,60.0024001,Chrome,1440,900,,,,,0,738,,,,,,,,,,,,,,,,,167,B,triangle,1,0,,,,,,,,,,,,,,,,switch,number,numSwt,f,2.2012,noRew,,,,,,0,9,0,9,0,1,,,,,,,,,,,,,,,,,
298057,2022-11-28_22h24.41.792,vts_reward_expectancy_bt,2022.2.4,MacIntel,60.0024001,Chrome,1440,900,,,,,0,738,,,,,,,,,,,,,,,,,160,F,star,1,0,,,,,,,,,,,,,,,,switch,letter,lettSwt,j,0.6997,noRew,,,,,,0,10,0,10,0,1,,,,,,,,,,,,,,,,,
298057,2022-11-28_22h24.41.792,vts_reward_expectancy_bt,2022.2.4,MacIntel,60.0024001,Chrome,1440,900,,,,,0,738,,,,,,,,,,,,,,,,,132,H,triangle,1,0,,,,,,,,,,,,,,,,switch,number,numSwt,d,1.0091,noRew,,,,,,0,11,0,11,0,1,,,,,,,,,,,,,,,,,
298057,2022-11-28_22h24.41.792,vts_reward_expectancy_bt,2022.2.4,MacIntel,60.0024001,Chrome,1440,900,,,,,0,738,,,,,,,,,,,,,,,,,181,B,star,1,0,,,,,,,,,,,,,,,,switch,letter,lettSwt,j,0.8177,noRew,,,,,,0,12,0,12,0,1,,,,,,,,,,,,,,,,,
298057,2022-11-28_22h24.41.792,vts_reward_expectancy_bt,2022.2.4,MacIntel,60.0024001,Chrome,1440,900,,,,,0,738,,,,,,,,,,,,,,,,,167,F,hexagon,1,0,,,,,,,,,,,,,,,,switch,number,numSwt,f,0.9901,noRew,,,,,,0,13,0,13,0,1,,,,,,,,,,,,,,,,,
298057,2022-11-28_22h24.41.792,vts_reward_expectancy_bt,2022.2.4,MacIntel,60.0024001,Chrome,1440,900,,,,,0,738,,,,,,,,,,,,,,,,,160,W,triangle,1,0,,,,,,,,,,,,,,,,switch,letter,lettSwt,k,1.3103,noRew,,,,,,0,14,0,14,0,1,,,,,,,,,,,,,,,,,
298057,2022-11-28_22h24.41.792,vts_reward_expectancy_bt,2022.2.4,MacIntel,60.0024001,Chrome,1440,900,,,,,0,738,,,,,,,,,,,,,,,,,146,U,hexagon,1,0,,,,,,,,,,,,,,,,switch,number,numSwt,d,2.0939,noRew,,,,,,0,15,0,15,0,1,,,,,,,,,,,,,,,,,
298057,2022-11-28_22h24.41.792,vts_reward_expectancy_bt,2022.2.4,MacIntel,60.0024001,Chrome,1440,900,,,,,0,738,,,,,,,,,,,,,,,,,132,H,triangle,1,0,,,,,,,,,,,,,,,,switch,letter,lettSwt,j,0.8842,noRew,,,,,,0,16,0,16,0,1,,,,,,,,,,,,,,,,,
298057,2022-11-28_22h24.41.792,vts_reward_expectancy_bt,2022.2.4,MacIntel,60.0024001,Chrome,1440,900,,,,,0,738,,,,,,,,,,,,,,,,,139,D,circle,1,0,,,,,,,,,,,,,,,,switch,number,numSwt,d,1.5932,noRew,,,,,,0,17,0,17,0,1,,,,,,,,,,,,,,,,,
298057,2022-11-28_22h24.41.792,vts_reward_expectancy_bt,2022.2.4,MacIntel,60.0024001,Chrome,1440,900,,,,,0,738,,,,,,,,,,,,,,,,,146,Y,triangle,1,0,,,,,,,,,,,,,,,,switch,letter,lettSwt,k,1.784,noRew,,,,,,0,18,0,18,0,1,,,,,,,,,,,,,,,,,
298057,2022-11-28_22h24.41.792,vts_reward_expectancy_bt,2022.2.4,MacIntel,60.0024001,Chrome,1440,900,,,,,0,738,,,,,,,,,,,,,,,,,160,S,hexagon,1,0,,,,,,,,,,,,,,,,switch,number,numSwt,f,1.8907,noRew,,,,,,0,19,0,19,0,1,,,,,,,,,,,,,,,,,
298057,2022-11-28_22h24.41.792,vts_reward_expectancy_bt,2022.2.4,MacIntel,60.0024001,Chrome,1440,900,,,,,0,738,,,,,,,,,,,,,,,,,132,D,hexagon,1,0,,,,,,,,,,,,,,,,switch,letter,lettSwt,j,1.3675,noRew,,,,,,0,20,0,20,0,1,,,,,,,,,,,,,,,,,
298057,2022-11-28_22h24.41.792,vts_reward_expectancy_bt,2022.2.4,MacIntel,60.0024001,Chrome,1440,900,,,,,0,738,,,,,,,,,,,,,,,,,139,B,triangle,1,0,,,,,,,,,,,,,,,,switch,number,numSwt,d,1.8761,noRew,,,,,,0,21,0,21,0,1,,,,,,,,,,,,,,,,,
298057,2022-11-28_22h24.41.792,vts_reward_expectancy_bt,2022.2.4,MacIntel,60.0024001,Chrome,1440,900,,,,,0,738,,,,,,,,,,,,,,,,,181,H,triangle,1,0,,,,,,,,,,,,,,,,switch,letter,lettSwt,j,2.1081,noRew,,,,,,0,22,0,22,0,1,,,,,,,,,,,,,,,,,
298057,2022-11-28_22h24.41.792,vts_reward_expectancy_bt,2022.2.4,MacIntel,60.0024001,Chrome,1440,900,,,,,0,738,,,,,,,,,,,,,,,,,125,Y,star,1,0,,,,,,,,,,,,,,,,switch,number,numSwt,d,1.8987,noRew,,,,,,0,23,0,23,0,1,,,,,,,,,,,,,,,,,
298057,2022-11-28_22h24.41.792,vts_reward_expectancy_bt,2022.2.4,MacIntel,60.0024001,Chrome,1440,900,,,,,0,738,,,,,,,,,,,,,,,,,132,U,hexagon,1,0,,,,,,,,,,,,,,,,switch,letter,lettSwt,k,1.0925,noRew,,,,,,0,24,0,24,0,1,,,,,,,,,,,,,,,,,
298057,2022-11-28_22h24.41.792,vts_reward_expectancy_bt,2022.2.4,MacIntel,60.0024001,Chrome,1440,900,,,,,0,738,,,,,,,,,,,,,,,,,125,W,triangle,1,0,,,,,,,,,,,,,,,,switch,number,numSwt,d,1.5588,noRew,,,,,,0,25,0,25,0,1,,,,,,,,,,,,,,,,,
298057,2022-11-28_22h24.41.792,vts_reward_expectancy_bt,2022.2.4,MacIntel,60.0024001,Chrome,1440,900,,,,,0,738,,,,,,,,,,,,,,,,,160,Y,star,1,0,,,,,,,,,,,,,,,,switch,letter,lettSwt,k,1.2852,noRew,,,,,,0,26,0,26,0,1,,,,,,,,,,,,,,,,,
298057,2022-11-28_22h24.41.792,vts_reward_expectancy_bt,2022.2.4,MacIntel,60.0024001,Chrome,1440,900,,,,,0,738,,,,,,,,,,,,,,,,,146,B,hexagon,1,0,,,,,,,,,,,,,,,,switch,number,numSwt,d,1.1351,noRew,,,,,,0,27,0,27,0,1,,,,,,,,,,,,,,,,,
298057,2022-11-28_22h24.41.792,vts_reward_expectancy_bt,2022.2.4,MacIntel,60.0024001,Chrome,1440,900,,,,,0,738,,,,,,,,,,,,,,,,,146,W,circle,1,0,,,,,,,,,,,,,,,,switch,letter,lettSwt,k,1.2637,noRew,,,,,,0,28,0,28,0,1,,,,,,,,,,,,,,,,,
298057,2022-11-28_22h24.41.792,vts_reward_expectancy_bt,2022.2.4,MacIntel,60.0024001,Chrome,1440,900,,,,,0,738,,,,,,,,,,,,,,,,,160,S,star,1,0,,,,,,,,,,,,,,,,switch,number,numSwt,f,0.8841,noRew,,,,,,0,29,0,29,0,1,,,,,,,,,,,,,,,,,
298057,2022-11-28_22h24.41.792,vts_reward_expectancy_bt,2022.2.4,MacIntel,60.0024001,Chrome,1440,900,,,,,0,738,,,,,,,,,,,,,,,,,181,D,circle,1,0,,,,,,,,,,,,,,,,switch,letter,lettSwt,j,1.0761,noRew,,,,,,0,30,0,30,0,1,,,,,,,,,,,,,,,,,
298057,2022-11-28_22h24.41.792,vts_reward_expectancy_bt,2022.2.4,MacIntel,60.0024001,Chrome,1440,900,,,,,0,738,,,,,,,,,,,,,,,,,167,Y,triangle,1,0,,,,,,,,,,,,,,,,switch,number,numSwt,f,1.3666,noRew,,,,,,0,31,0,31,0,1,,,,,,,,,,,,,,,,,
298057,2022-11-28_22h24.41.792,vts_reward_expectancy_bt,2022.2.4,MacIntel,60.0024001,Chrome,1440,900,,,,,0,738,,,,,,,,,,,,,,,,,146,D,circle,0,0,,,,,,,,,,,,,,,,switch,letter,NA,k,1.0595,noRew,,,,,,0,32,0,32,0,1,,,,,,,,,,,,,,,,,
298057,2022-11-28_22h24.41.792,vts_reward_expectancy_bt,2022.2.4,MacIntel,60.0024001,Chrome,1440,900,,,,,0,738,,,,,,,,,,,,,,,,,132,Y,hexagon,1,1,,,,,,,,,,,,,,,,switch,number,numSwt,d,2.5323,noRew,,,,,,0,33,0,33,0,1,,,,,,,,,,,,,,,,,
298057,2022-11-28_22h24.41.792,vts_reward_expectancy_bt,2022.2.4,MacIntel,60.0024001,Chrome,1440,900,,,,,0,738,,,,,,,,,,,,,,,,,160,B,circle,1,0,,,,,,,,,,,,,,,,switch,letter,lettSwt,j,1.2673,noRew,,,,,,0,34,0,34,0,1,,,,,,,,,,,,,,,,,
298057,2022-11-28_22h24.41.792,vts_reward_expectancy_bt,2022.2.4,MacIntel,60.0024001,Chrome,1440,900,,,,,0,738,,,,,,,,,,,,,,,,,167,U,hexagon,1,0,,,,,,,,,,,,,,,,switch,number,numSwt,f,2.3684,noRew,,,,,,0,35,0,35,0,1,,,,,,,,,,,,,,,,,
298057,2022-11-28_22h24.41.792,vts_reward_expectancy_bt,2022.2.4,MacIntel,60.0024001,Chrome,1440,900,,,,,0,738,,,,,,,,,,,,,,,,,139,Y,triangle,1,0,,,,,,,,,,,,,,,,switch,letter,lettSwt,k,1.8687,noRew,,,,,,0,36,0,36,0,1,,,,,,,,,,,,,,,,,
298057,2022-11-28_22h24.41.792,vts_reward_expectancy_bt,2022.2.4,MacIntel,60.0024001,Chrome,1440,900,,,,,0,738,,,,,,,,,,,,,,,,,160,H,circle,1,0,,,,,,,,,,,,,,,,switch,number,numSwt,f,2.6199,noRew,,,,,,0,37,0,37,0,1,,,,,,,,,,,,,,,,,
298057,2022-11-28_22h24.41.792,vts_reward_expectancy_bt,2022.2.4,MacIntel,60.0024001,Chrome,1440,900,,,,,0,738,,,,,,,,,,,,,,,,,132,U,star,1,0,,,,,,,,,,,,,,,,switch,letter,lettSwt,k,1.0845,noRew,,,,,,0,38,0,38,0,1,,,,,,,,,,,,,,,,,
298057,2022-11-28_22h24.41.792,vts_reward_expectancy_bt,2022.2.4,MacIntel,60.0024001,Chrome,1440,900,,,,,0,738,,,,,,,,,,,,,,,,,181,S,hexagon,1,0,,,,,,,,,,,,,,,,switch,number,numSwt,f,2.2057,noRew,,,,,,0,39,0,39,0,1,,,,,,,,,,,,,,,,,
298057,2022-11-28_22h24.41.792,vts_reward_expectancy_bt,2022.2.4,MacIntel,60.0024001,Chrome,1440,900,,,,,0,738,,,,,,,,,,,,,,,,,146,W,star,1,0,,,,,,,,,,,,,,,,switch,letter,lettSwt,k,1.6852,noRew,,,,,,0,40,0,40,0,1,,,,,,,,,,,,,,,,,
298057,2022-11-28_22h24.41.792,vts_reward_expectancy_bt,2022.2.4,MacIntel,60.0024001,Chrome,1440,900,,,,,0,738,,,,,,,,,,,,,,,,,139,U,triangle,1,0,,,,,,,,,,,,,,,,switch,number,numSwt,d,2.4995,noRew,,,,,,0,41,0,41,0,1,,,,,,,,,,,,,,,,,
298057,2022-11-28_22h24.41.792,vts_reward_expectancy_bt,2022.2.4,MacIntel,60.0024001,Chrome,1440,900,,,,,0,738,,,,,,,,,,,,,,,,,125,Y,star,1,0,,,,,,,,,,,,,,,,switch,letter,lettSwt,k,1.6925,noRew,,,,,,0,42,0,42,0,1,,,,,,,,,,,,,,,,,
298057,2022-11-28_22h24.41.792,vts_reward_expectancy_bt,2022.2.4,MacIntel,60.0024001,Chrome,1440,900,,,,,0,738,,,,,,,,,,,,,,,,,174,D,circle,1,0,,,,,,,,,,,,,,,,switch,number,numSwt,f,1.7177,noRew,,,,,,0,43,0,43,0,1,,,,,,,,,,,,,,,,,
298057,2022-11-28_22h24.41.792,vts_reward_expectancy_bt,2022.2.4,MacIntel,60.0024001,Chrome,1440,900,,,,,0,738,,,,,,,,,,,,,,,,,160,Y,hexagon,1,0,,,,,,,,,,,,,,,,switch,letter,lettSwt,k,1.1023,noRew,,,,,,0,44,0,44,0,1,,,,,,,,,,,,,,,,,
298057,2022-11-28_22h24.41.792,vts_reward_expectancy_bt,2022.2.4,MacIntel,60.0024001,Chrome,1440,900,,,,,0,738,,,,,,,,,,,,,,,,,181,W,circle,1,0,,,,,,,,,,,,,,,,switch,number,numSwt,f,0.9257,noRew,,,,,,0,45,0,45,0,1,,,,,,,,,,,,,,,,,
298057,2022-11-28_22h24.41.792,vts_reward_expectancy_bt,2022.2.4,MacIntel,60.0024001,Chrome,1440,900,,,,,0,738,,,,,,,,,,,,,,,,,139,B,star,1,0,,,,,,,,,,,,,,,,switch,letter,lettSwt,j,1.1172,noRew,,,,,,0,46,0,46,0,1,,,,,,,,,,,,,,,,,
298057,2022-11-28_22h24.41.792,vts_reward_expectancy_bt,2022.2.4,MacIntel,60.0024001,Chrome,1440,900,,,,,0,738,,,,,,,,,,,,,,,,,132,F,hexagon,1,0,,,,,,,,,,,,,,,,switch,number,numSwt,d,0.6439,noRew,,,,,,0,47,0,47,0,1,,,,,,,,,,,,,,,,,
298057,2022-11-28_22h24.41.792,vts_reward_expectancy_bt,2022.2.4,MacIntel,60.0024001,Chrome,1440,900,,,,,0,738,,,,,,,,,,,,,,,,,139,W,star,1,0,,,,,,,,,,,,,,,,switch,letter,lettSwt,k,1.2173,noRew,,,,,,0,48,0,48,0,1,,,,,,,,,,,,,,,,,
298057,2022-11-28_22h24.41.792,vts_reward_expectancy_bt,2022.2.4,MacIntel,60.0024001,Chrome,1440,900,,,,,0,738,,,,,,,,,,,,,,,,,181,B,hexagon,1,0,,,,,,,,,,,,,,,,switch,number,numSwt,f,2.8657,noRew,,,,,,0,49,0,49,0,1,,,,,,,,,,,,,,,,,
298057,2022-11-28_22h24.41.792,vts_reward_expectancy_bt,2022.2.4,MacIntel,60.0024001,Chrome,1440,900,,,,,0,738,,,,,,,,,,,,,,,,,160,U,circle,1,0,,,,,,,,,,,,,,,,switch,letter,lettSwt,k,0.925,noRew,,,,,,0,50,0,50,0,1,,,,,,,,,,,,,,,,,
298057,2022-11-28_22h24.41.792,vts_reward_expectancy_bt,2022.2.4,MacIntel,60.0024001,Chrome,1440,900,,,,,0,738,,,,,,,,,,,,,,,,,167,Y,star,1,0,,,,,,,,,,,,,,,,switch,number,numSwt,f,1.3277,noRew,,,,,,0,51,0,51,0,1,,,,,,,,,,,,,,,,,
298057,2022-11-28_22h24.41.792,vts_reward_expectancy_bt,2022.2.4,MacIntel,60.0024001,Chrome,1440,900,,,,,0,738,,,,,,,,,,,,,,,,,139,U,star,1,0,,,,,,,,,,,,,,,,switch,letter,lettSwt,k,0.9938,noRew,,,,,,0,52,0,52,0,1,,,,,,,,,,,,,,,,,
298057,2022-11-28_22h24.41.792,vts_reward_expectancy_bt,2022.2.4,MacIntel,60.0024001,Chrome,1440,900,,,,,0,738,,,,,,,,,,,,,,,,,174,Y,circle,1,0,,,,,,,,,,,,,,,,switch,number,numSwt,f,0.5678,noRew,,,,,,0,53,0,53,0,1,,,,,,,,,,,,,,,,,
298057,2022-11-28_22h24.41.792,vts_reward_expectancy_bt,2022.2.4,MacIntel,60.0024001,Chrome,1440,900,,,,,0,738,,,,,,,,,,,,,,,,,132,B,star,0,0,,,,,,,,,,,,,,,,switch,letter,NA,k,0.9596,noRew,,,,,,0,54,0,54,0,1,,,,,,,,,,,,,,,,,
298057,2022-11-28_22h24.41.792,vts_reward_expectancy_bt,2022.2.4,MacIntel,60.0024001,Chrome,1440,900,,,,,0,738,,,,,,,,,,,,,,,,,167,S,triangle,1,1,,,,,,,,,,,,,,,,switch,number,numSwt,f,1.8597,noRew,,,,,,0,55,0,55,0,1,,,,,,,,,,,,,,,,,
298057,2022-11-28_22h24.41.792,vts_reward_expectancy_bt,2022.2.4,MacIntel,60.0024001,Chrome,1440,900,,,,,0,738,,,,,,,,,,,,,,,,,146,S,circle,1,0,,,,,,,,,,,,,,,,repeat,number,numRpt,d,2.8744,noRew,,,,,,0,56,0,56,0,1,,,,,,,,,,,,,,,,,
298057,2022-11-28_22h24.41.792,vts_reward_expectancy_bt,2022.2.4,MacIntel,60.0024001,Chrome,1440,900,,,,,0,738,,,,,,,,,,,,,,,,,132,W,triangle,1,0,,,,,,,,,,,,,,,,switch,letter,lettSwt,k,1.1112,noRew,,,,,,0,57,0,57,0,1,,,,,,,,,,,,,,,,,
298057,2022-11-28_22h24.41.792,vts_reward_expectancy_bt,2022.2.4,MacIntel,60.0024001,Chrome,1440,900,,,,,0,738,,,,,,,,,,,,,,,,,181,F,hexagon,1,0,,,,,,,,,,,,,,,,repeat,letter,lettRpt,j,2.0528,noRew,,,,,,0,58,0,58,0,1,,,,,,,,,,,,,,,,,
298057,2022-11-28_22h24.41.792,vts_reward_expectancy_bt,2022.2.4,MacIntel,60.0024001,Chrome,1440,900,,,,,0,738,,,,,,,,,,,,,,,,,139,D,triangle,1,0,,,,,,,,,,,,,,,,switch,number,numSwt,d,1.7508,noRew,,,,,,0,59,0,59,0,1,,,,,,,,,,,,,,,,,
298057,2022-11-28_22h24.41.792,vts_reward_expectancy_bt,2022.2.4,MacIntel,60.0024001,Chrome,1440,900,,,,,0,738,,,,,,,,,,,,,,,,,160,B,triangle,1,0,,,,,,,,,,,,,,,,repeat,number,numRpt,f,1.8543,noRew,,,,,,0,60,0,60,0,1,,,,,,,,,,,,,,,,,
298057,2022-11-28_22h24.41.792,vts_reward_expectancy_bt,2022.2.4,MacIntel,60.0024001,Chrome,1440,900,,,,,0,738,,,,,,,,,,,,,,,,,139,F,circle,-1,0,,,,,,,,,,,,,,,,switch,no_choice,NA,,,noRew,,,,,,0,61,0,61,0,1,,,,,,,,,,,,,,,,,
298057,2022-11-28_22h24.41.792,vts_reward_expectancy_bt,2022.2.4,MacIntel,60.0024001,Chrome,1440,900,,,,,0,738,,,,,,,,,,,,,,,,,132,W,circle,1,0,,,,,,,,,,,,,,,,switch,number,numSwt,d,0.8398,noRew,,,,,,0,62,0,62,0,1,,,,,,,,,,,,,,,,,
298057,2022-11-28_22h24.41.792,vts_reward_expectancy_bt,2022.2.4,MacIntel,60.0024001,Chrome,1440,900,,,,,0,738,,,,,,,,,,,,,,,,,146,S,triangle,1,0,,,,,,,,,,,,,,,,switch,letter,lettSwt,k,1.9425,noRew,,,,,,0,63,0,63,0,1,,,,,,,,,,,,,,,,,
298057,2022-11-28_22h24.41.792,vts_reward_expectancy_bt,2022.2.4,MacIntel,60.0024001,Chrome,1440,900,,,,,,,,,,,,,,,,,,,,,,,,,,,,,,,,,,,,,,,,,,,,,,,,,,,,,,,,,,,,,,,,,,,,,,,,,,,,
298057,2022-11-28_22h24.41.792,vts_reward_expectancy_bt,2022.2.4,MacIntel,60.0024001,Chrome,1440,900,,,,,1,739,,,,,,,,,,,,,,,,,181,S,triangle,1,0,,,,,,,,,,,,,,,,switch,number,numSwt,f,2.0658,Lo,,,,,,0,,,,,,space,8.3662,high,0,0,0,0,1,,,,,,,,,
298057,2022-11-28_22h24.41.792,vts_reward_expectancy_bt,2022.2.4,MacIntel,60.0024001,Chrome,1440,900,,,,,0,739,,,,,,,,,,,,,,,,,174,H,star,1,0,,,,,,,,,,,,,,,,switch,letter,lettSwt,j,1.7319,Hi,,,,,,0,,,,,,,,high,1,0,1,0,1,,,,,,,,,
298057,2022-11-28_22h24.41.792,vts_reward_expectancy_bt,2022.2.4,MacIntel,60.0024001,Chrome,1440,900,,,,,1,740,,,,,,,,,,,,,,,,,132,U,circle,1,0,,,,,,,,,,,,,,,,switch,number,numSwt,d,0.8858,Lo,,,,,,0,,,,,,,,high,2,0,2,0,1,,,,,,,,,
298057,2022-11-28_22h24.41.792,vts_reward_expectancy_bt,2022.2.4,MacIntel,60.0024001,Chrome,1440,900,,,,,10,750,,,,,,,,,,,,,,,,,167,Y,hexagon,1,0,,,,,,,,,,,,,,,,repeat,number,numRpt,f,0.5661,Hi,,,,,,0,,,,,,,,high,3,0,3,0,1,,,,,,,,,
298057,2022-11-28_22h24.41.792,vts_reward_expectancy_bt,2022.2.4,MacIntel,60.0024001,Chrome,1440,900,,,,,1,751,,,,,,,,,,,,,,,,,146,D,triangle,1,0,,,,,,,,,,,,,,,,repeat,number,numRpt,d,0.8925,Lo,,,,,,0,,,,,,,,high,4,0,4,0,1,,,,,,,,,
298057,2022-11-28_22h24.41.792,vts_reward_expectancy_bt,2022.2.4,MacIntel,60.0024001,Chrome,1440,900,,,,,10,761,,,,,,,,,,,,,,,,,125,F,star,1,0,,,,,,,,,,,,,,,,repeat,number,numRpt,d,0.6374,Hi,,,,,,0,,,,,,,,high,5,0,5,0,1,,,,,,,,,
298057,2022-11-28_22h24.41.792,vts_reward_expectancy_bt,2022.2.4,MacIntel,60.0024001,Chrome,1440,900,,,,,1,762,,,,,,,,,,,,,,,,,139,W,circle,1,0,,,,,,,,,,,,,,,,repeat,number,numRpt,d,0.9142,Lo,,,,,,0,,,,,,,,high,6,0,6,0,1,,,,,,,,,
298057,2022-11-28_22h24.41.792,vts_reward_expectancy_bt,2022.2.4,MacIntel,60.0024001,Chrome,1440,900,,,,,10,772,,,,,,,,,,,,,,,,,160,B,hexagon,1,0,,,,,,,,,,,,,,,,repeat,number,numRpt,f,0.4899,Hi,,,,,,0,,,,,,,,high,7,0,7,0,1,,,,,,,,,
298057,2022-11-28_22h24.41.792,vts_reward_expectancy_bt,2022.2.4,MacIntel,60.0024001,Chrome,1440,900,,,,,0,772,,,,,,,,,,,,,,,,,181,S,circle,0,0,,,,,,,,,,,,,,,,repeat,number,NA,d,0.6028,Hi,,,,,,0,,,,,,,,high,8,0,8,0,1,,,,,,,,,
298057,2022-11-28_22h24.41.792,vts_reward_expectancy_bt,2022.2.4,MacIntel,60.0024001,Chrome,1440,900,,,,,1,773,,,,,,,,,,,,,,,,,174,H,hexagon,1,1,,,,,,,,,,,,,,,,repeat,number,numRpt,f,0.7509,Hi,,,,,,0,,,,,,,,high,9,0,9,0,1,,,,,,,,,
298057,2022-11-28_22h24.41.792,vts_reward_expectancy_bt,2022.2.4,MacIntel,60.0024001,Chrome,1440,900,,,,,1,774,,,,,,,,,,,,,,,,,132,U,triangle,1,0,,,,,,,,,,,,,,,,repeat,number,numRpt,d,0.5101,Lo,,,,,,0,,,,,,,,high,10,0,10,0,1,,,,,,,,,
298057,2022-11-28_22h24.41.792,vts_reward_expectancy_bt,2022.2.4,MacIntel,60.0024001,Chrome,1440,900,,,,,10,784,,,,,,,,,,,,,,,,,167,Y,star,1,0,,,,,,,,,,,,,,,,repeat,number,numRpt,f,0.6027,Hi,,,,,,0,,,,,,,,high,11,0,11,0,1,,,,,,,,,
298057,2022-11-28_22h24.41.792,vts_reward_expectancy_bt,2022.2.4,MacIntel,60.0024001,Chrome,1440,900,,,,,0,784,,,,,,,,,,,,,,,,,146,D,triangle,0,0,,,,,,,,,,,,,,,,repeat,number,NA,f,0.661,Hi,,,,,,0,,,,,,,,high,12,0,12,0,1,,,,,,,,,
298057,2022-11-28_22h24.41.792,vts_reward_expectancy_bt,2022.2.4,MacIntel,60.0024001,Chrome,1440,900,,,,,1,785,,,,,,,,,,,,,,,,,125,F,circle,1,1,,,,,,,,,,,,,,,,repeat,number,numRpt,d,0.6432,Lo,,,,,,0,,,,,,,,high,13,0,13,0,1,,,,,,,,,
298057,2022-11-28_22h24.41.792,vts_reward_expectancy_bt,2022.2.4,MacIntel,60.0024001,Chrome,1440,900,,,,,1,786,,,,,,,,,,,,,,,,,139,W,hexagon,1,0,,,,,,,,,,,,,,,,repeat,number,numRpt,d,0.8526,Hi,,,,,,0,,,,,,,,high,14,0,14,0,1,,,,,,,,,
298057,2022-11-28_22h24.41.792,vts_reward_expectancy_bt,2022.2.4,MacIntel,60.0024001,Chrome,1440,900,,,,,10,796,,,,,,,,,,,,,,,,,160,B,star,1,0,,,,,,,,,,,,,,,,repeat,number,numRpt,f,0.5891,Hi,,,,,,0,,,,,,,,high,15,0,15,0,1,,,,,,,,,
298057,2022-11-28_22h24.41.792,vts_reward_expectancy_bt,2022.2.4,MacIntel,60.0024001,Chrome,1440,900,,,,,1,797,,,,,,,,,,,,,,,,,181,F,triangle,1,0,,,,,,,,,,,,,,,,repeat,number,numRpt,f,0.7021,Lo,,,,,,0,,,,,,,,high,16,0,16,0,1,,,,,,,,,
298057,2022-11-28_22h24.41.792,vts_reward_expectancy_bt,2022.2.4,MacIntel,60.0024001,Chrome,1440,900,,,,,10,807,,,,,,,,,,,,,,,,,132,S,star,1,0,,,,,,,,,,,,,,,,repeat,number,numRpt,d,0.7279,Hi,,,,,,0,,,,,,,,high,17,0,17,0,1,,,,,,,,,
298057,2022-11-28_22h24.41.792,vts_reward_expectancy_bt,2022.2.4,MacIntel,60.0024001,Chrome,1440,900,,,,,10,817,,,,,,,,,,,,,,,,,174,H,hexagon,1,0,,,,,,,,,,,,,,,,repeat,number,numRpt,f,0.8783,Hi,,,,,,0,,,,,,,,high,18,0,18,0,1,,,,,,,,,
298057,2022-11-28_22h24.41.792,vts_reward_expectancy_bt,2022.2.4,MacIntel,60.0024001,Chrome,1440,900,,,,,1,818,,,,,,,,,,,,,,,,,167,D,circle,1,0,,,,,,,,,,,,,,,,repeat,number,numRpt,f,0.7635,Lo,,,,,,0,,,,,,,,high,19,0,19,0,1,,,,,,,,,
298057,2022-11-28_22h24.41.792,vts_reward_expectancy_bt,2022.2.4,MacIntel,60.0024001,Chrome,1440,900,,,,,10,828,,,,,,,,,,,,,,,,,160,U,circle,1,0,,,,,,,,,,,,,,,,repeat,number,numRpt,f,0.6774,Lo,,,,,,0,,,,,,,,high,20,0,20,0,1,,,,,,,,,
298057,2022-11-28_22h24.41.792,vts_reward_expectancy_bt,2022.2.4,MacIntel,60.0024001,Chrome,1440,900,,,,,10,838,,,,,,,,,,,,,,,,,146,W,star,1,0,,,,,,,,,,,,,,,,repeat,number,numRpt,d,0.9777,Hi,,,,,,0,,,,,,,,high,21,0,21,0,1,,,,,,,,,
298057,2022-11-28_22h24.41.792,vts_reward_expectancy_bt,2022.2.4,MacIntel,60.0024001,Chrome,1440,900,,,,,10,848,,,,,,,,,,,,,,,,,125,B,hexagon,1,0,,,,,,,,,,,,,,,,repeat,number,numRpt,d,0.8638,Hi,,,,,,0,,,,,,,,high,22,0,22,0,1,,,,,,,,,
298057,2022-11-28_22h24.41.792,vts_reward_expectancy_bt,2022.2.4,MacIntel,60.0024001,Chrome,1440,900,,,,,10,858,,,,,,,,,,,,,,,,,139,Y,triangle,1,0,,,,,,,,,,,,,,,,repeat,number,numRpt,d,0.6886,Lo,,,,,,0,,,,,,,,high,23,0,23,0,1,,,,,,,,,
298057,2022-11-28_22h24.41.792,vts_reward_expectancy_bt,2022.2.4,MacIntel,60.0024001,Chrome,1440,900,,,,,10,868,,,,,,,,,,,,,,,,,146,Y,star,1,0,,,,,,,,,,,,,,,,repeat,number,numRpt,d,0.9075,Hi,,,,,,0,,,,,,,,high,24,0,24,0,1,,,,,,,,,
298057,2022-11-28_22h24.41.792,vts_reward_expectancy_bt,2022.2.4,MacIntel,60.0024001,Chrome,1440,900,,,,,1,869,,,,,,,,,,,,,,,,,174,S,circle,1,0,,,,,,,,,,,,,,,,repeat,number,numRpt,f,0.9847,Lo,,,,,,0,,,,,,,,high,25,0,25,0,1,,,,,,,,,
298057,2022-11-28_22h24.41.792,vts_reward_expectancy_bt,2022.2.4,MacIntel,60.0024001,Chrome,1440,900,,,,,10,879,,,,,,,,,,,,,,,,,160,B,hexagon,1,0,,,,,,,,,,,,,,,,repeat,number,numRpt,f,1.2041,Hi,,,,,,0,,,,,,,,high,26,0,26,0,1,,,,,,,,,
298057,2022-11-28_22h24.41.792,vts_reward_expectancy_bt,2022.2.4,MacIntel,60.0024001,Chrome,1440,900,,,,,1,880,,,,,,,,,,,,,,,,,139,H,triangle,1,0,,,,,,,,,,,,,,,,repeat,number,numRpt,d,0.8783,Lo,,,,,,0,,,,,,,,high,27,0,27,0,1,,,,,,,,,
298057,2022-11-28_22h24.41.792,vts_reward_expectancy_bt,2022.2.4,MacIntel,60.0024001,Chrome,1440,900,,,,,10,890,,,,,,,,,,,,,,,,,181,F,star,1,0,,,,,,,,,,,,,,,,repeat,number,numRpt,f,0.6121,Hi,,,,,,0,,,,,,,,high,28,0,28,0,1,,,,,,,,,
298057,2022-11-28_22h24.41.792,vts_reward_expectancy_bt,2022.2.4,MacIntel,60.0024001,Chrome,1440,900,,,,,1,891,,,,,,,,,,,,,,,,,132,W,circle,1,0,,,,,,,,,,,,,,,,repeat,number,numRpt,d,0.6279,Lo,,,,,,0,,,,,,,,high,29,0,29,0,1,,,,,,,,,
298057,2022-11-28_22h24.41.792,vts_reward_expectancy_bt,2022.2.4,MacIntel,60.0024001,Chrome,1440,900,,,,,10,901,,,,,,,,,,,,,,,,,125,U,hexagon,1,0,,,,,,,,,,,,,,,,repeat,number,numRpt,d,0.8221,Hi,,,,,,0,,,,,,,,high,30,0,30,0,1,,,,,,,,,
298057,2022-11-28_22h24.41.792,vts_reward_expectancy_bt,2022.2.4,MacIntel,60.0024001,Chrome,1440,900,,,,,10,911,,,,,,,,,,,,,,,,,167,D,triangle,1,0,,,,,,,,,,,,,,,,repeat,number,numRpt,f,0.884,Lo,,,,,,0,,,,,,,,high,31,0,31,0,1,,,,,,,,,
298057,2022-11-28_22h24.41.792,vts_reward_expectancy_bt,2022.2.4,MacIntel,60.0024001,Chrome,1440,900,,,,,0,911,,,,,,,,,,,,,,,,,132,F,star,1,0,,,,,,,,,,,,,,,,repeat,number,numRpt,d,1.1285,Hi,,,,,,1,,,,,,space,7.3265,high,0,0,0,0,1,,,,,,,,,
298057,2022-11-28_22h24.41.792,vts_reward_expectancy_bt,2022.2.4,MacIntel,60.0024001,Chrome,1440,900,,,,,1,912,,,,,,,,,,,,,,,,,181,Y,triangle,1,0,,,,,,,,,,,,,,,,repeat,number,numRpt,f,0.6952,Lo,,,,,,1,,,,,,,,high,1,0,1,0,1,,,,,,,,,
298057,2022-11-28_22h24.41.792,vts_reward_expectancy_bt,2022.2.4,MacIntel,60.0024001,Chrome,1440,900,,,,,0,912,,,,,,,,,,,,,,,,,146,H,hexagon,1,0,,,,,,,,,,,,,,,,repeat,number,numRpt,d,0.8793,Hi,,,,,,1,,,,,,,,high,2,0,2,0,1,,,,,,,,,
298057,2022-11-28_22h24.41.792,vts_reward_expectancy_bt,2022.2.4,MacIntel,60.0024001,Chrome,1440,900,,,,,1,913,,,,,,,,,,,,,,,,,160,U,circle,1,0,,,,,,,,,,,,,,,,repeat,number,numRpt,f,0.7275,Lo,,,,,,1,,,,,,,,high,3,0,3,0,1,,,,,,,,,
298057,2022-11-28_22h24.41.792,vts_reward_expectancy_bt,2022.2.4,MacIntel,60.0024001,Chrome,1440,900,,,,,1,914,,,,,,,,,,,,,,,,,125,D,star,1,0,,,,,,,,,,,,,,,,repeat,number,numRpt,d,0.6128,Hi,,,,,,1,,,,,,,,high,4,0,4,0,1,,,,,,,,,
298057,2022-11-28_22h24.41.792,vts_reward_expectancy_bt,2022.2.4,MacIntel,60.0024001,Chrome,1440,900,,,,,1,915,,,,,,,,,,,,,,,,,174,W,triangle,1,0,,,,,,,,,,,,,,,,repeat,number,numRpt,f,0.4363,Lo,,,,,,1,,,,,,,,high,5,0,5,0,1,,,,,,,,,
298057,2022-11-28_22h24.41.792,vts_reward_expectancy_bt,2022.2.4,MacIntel,60.0024001,Chrome,1440,900,,,,,0,915,,,,,,,,,,,,,,,,,167,S,hexagon,1,0,,,,,,,,,,,,,,,,repeat,number,numRpt,f,0.7625,Hi,,,,,,1,,,,,,,,high,6,0,6,0,1,,,,,,,,,
298057,2022-11-28_22h24.41.792,vts_reward_expectancy_bt,2022.2.4,MacIntel,60.0024001,Chrome,1440,900,,,,,1,916,,,,,,,,,,,,,,,,,139,B,circle,1,0,,,,,,,,,,,,,,,,repeat,number,numRpt,d,0.6962,Lo,,,,,,1,,,,,,,,high,7,0,7,0,1,,,,,,,,,
298057,2022-11-28_22h24.41.792,vts_reward_expectancy_bt,2022.2.4,MacIntel,60.0024001,Chrome,1440,900,,,,,10,926,,,,,,,,,,,,,,,,,132,F,triangle,1,0,,,,,,,,,,,,,,,,repeat,number,numRpt,d,0.6311,Lo,,,,,,1,,,,,,,,high,8,0,8,0,1,,,,,,,,,
298057,2022-11-28_22h24.41.792,vts_reward_expectancy_bt,2022.2.4,MacIntel,60.0024001,Chrome,1440,900,,,,,1,927,,,,,,,,,,,,,,,,,181,Y,star,1,0,,,,,,,,,,,,,,,,repeat,number,numRpt,f,0.4327,Hi,,,,,,1,,,,,,,,high,9,0,9,0,1,,,,,,,,,
298057,2022-11-28_22h24.41.792,vts_reward_expectancy_bt,2022.2.4,MacIntel,60.0024001,Chrome,1440,900,,,,,10,937,,,,,,,,,,,,,,,,,146,H,hexagon,1,0,,,,,,,,,,,,,,,,repeat,number,numRpt,d,0.6196,Hi,,,,,,1,,,,,,,,high,10,0,10,0,1,,,,,,,,,
298057,2022-11-28_22h24.41.792,vts_reward_expectancy_bt,2022.2.4,MacIntel,60.0024001,Chrome,1440,900,,,,,1,938,,,,,,,,,,,,,,,,,160,U,circle,1,0,,,,,,,,,,,,,,,,repeat,number,numRpt,f,0.5773,Lo,,,,,,1,,,,,,,,high,11,0,11,0,1,,,,,,,,,
298057,2022-11-28_22h24.41.792,vts_reward_expectancy_bt,2022.2.4,MacIntel,60.0024001,Chrome,1440,900,,,,,1,939,,,,,,,,,,,,,,,,,125,D,circle,1,0,,,,,,,,,,,,,,,,repeat,number,numRpt,d,0.6434,Lo,,,,,,1,,,,,,,,high,12,0,12,0,1,,,,,,,,,
298057,2022-11-28_22h24.41.792,vts_reward_expectancy_bt,2022.2.4,MacIntel,60.0024001,Chrome,1440,900,,,,,0,939,,,,,,,,,,,,,,,,,174,W,star,1,0,,,,,,,,,,,,,,,,repeat,number,numRpt,f,0.7057,Hi,,,,,,1,,,,,,,,high,13,0,13,0,1,,,,,,,,,
298057,2022-11-28_22h24.41.792,vts_reward_expectancy_bt,2022.2.4,MacIntel,60.0024001,Chrome,1440,900,,,,,1,940,,,,,,,,,,,,,,,,,167,S,triangle,1,0,,,,,,,,,,,,,,,,repeat,number,numRpt,f,0.688,Lo,,,,,,1,,,,,,,,high,14,0,14,0,1,,,,,,,,,
298057,2022-11-28_22h24.41.792,vts_reward_expectancy_bt,2022.2.4,MacIntel,60.0024001,Chrome,1440,900,,,,,10,950,,,,,,,,,,,,,,,,,139,B,hexagon,1,0,,,,,,,,,,,,,,,,repeat,number,numRpt,d,0.4734,Hi,,,,,,1,,,,,,,,high,15,0,15,0,1,,,,,,,,,
298057,2022-11-28_22h24.41.792,vts_reward_expectancy_bt,2022.2.4,MacIntel,60.0024001,Chrome,1440,900,,,,,1,951,,,,,,,,,,,,,,,,,146,Y,circle,1,0,,,,,,,,,,,,,,,,repeat,number,numRpt,d,0.7458,Lo,,,,,,1,,,,,,,,high,16,0,16,0,1,,,,,,,,,
298057,2022-11-28_22h24.41.792,vts_reward_expectancy_bt,2022.2.4,MacIntel,60.0024001,Chrome,1440,900,,,,,10,961,,,,,,,,,,,,,,,,,139,S,triangle,1,0,,,,,,,,,,,,,,,,repeat,number,numRpt,d,0.7479,Lo,,,,,,1,,,,,,,,high,17,0,17,0,1,,,,,,,,,
298057,2022-11-28_22h24.41.792,vts_reward_expectancy_bt,2022.2.4,MacIntel,60.0024001,Chrome,1440,900,,,,,1,962,,,,,,,,,,,,,,,,,160,D,star,1,0,,,,,,,,,,,,,,,,repeat,number,numRpt,f,0.496,Hi,,,,,,1,,,,,,,,high,18,0,18,0,1,,,,,,,,,
298057,2022-11-28_22h24.41.792,vts_reward_expectancy_bt,2022.2.4,MacIntel,60.0024001,Chrome,1440,900,,,,,0,962,,,,,,,,,,,,,,,,,181,W,hexagon,1,0,,,,,,,,,,,,,,,,repeat,number,numRpt,f,0.7613,Hi,,,,,,1,,,,,,,,high,19,0,19,0,1,,,,,,,,,
298057,2022-11-28_22h24.41.792,vts_reward_expectancy_bt,2022.2.4,MacIntel,60.0024001,Chrome,1440,900,,,,,0,962,,,,,,,,,,,,,,,,,132,F,hexagon,1,0,,,,,,,,,,,,,,,,repeat,number,numRpt,d,1.1456,Hi,,,,,,1,,,,,,,,high,20,0,20,0,1,,,,,,,,,
298057,2022-11-28_22h24.41.792,vts_reward_expectancy_bt,2022.2.4,MacIntel,60.0024001,Chrome,1440,900,,,,,1,963,,,,,,,,,,,,,,,,,174,B,triangle,1,0,,,,,,,,,,,,,,,,repeat,number,numRpt,f,0.6337,Lo,,,,,,1,,,,,,,,high,21,0,21,0,1,,,,,,,,,
298057,2022-11-28_22h24.41.792,vts_reward_expectancy_bt,2022.2.4,MacIntel,60.0024001,Chrome,1440,900,,,,,1,964,,,,,,,,,,,,,,,,,167,H,circle,1,0,,,,,,,,,,,,,,,,repeat,number,numRpt,f,0.8838,Lo,,,,,,1,,,,,,,,high,22,0,22,0,1,,,,,,,,,
298057,2022-11-28_22h24.41.792,vts_reward_expectancy_bt,2022.2.4,MacIntel,60.0024001,Chrome,1440,900,,,,,1,965,,,,,,,,,,,,,,,,,125,U,star,1,0,,,,,,,,,,,,,,,,repeat,number,numRpt,d,0.6609,Hi,,,,,,1,,,,,,,,high,23,0,23,0,1,,,,,,,,,
298057,2022-11-28_22h24.41.792,vts_reward_expectancy_bt,2022.2.4,MacIntel,60.0024001,Chrome,1440,900,,,,,0,965,,,,,,,,,,,,,,,,,146,B,hexagon,1,0,,,,,,,,,,,,,,,,repeat,number,numRpt,d,0.9186,Hi,,,,,,1,,,,,,,,high,24,0,24,0,1,,,,,,,,,
298057,2022-11-28_22h24.41.792,vts_reward_expectancy_bt,2022.2.4,MacIntel,60.0024001,Chrome,1440,900,,,,,0,965,,,,,,,,,,,,,,,,,132,F,star,1,0,,,,,,,,,,,,,,,,repeat,number,numRpt,d,0.7913,Hi,,,,,,1,,,,,,,,high,25,0,25,0,1,,,,,,,,,
298057,2022-11-28_22h24.41.792,vts_reward_expectancy_bt,2022.2.4,MacIntel,60.0024001,Chrome,1440,900,,,,,10,975,,,,,,,,,,,,,,,,,160,S,circle,1,0,,,,,,,,,,,,,,,,repeat,number,numRpt,f,0.5923,Lo,,,,,,1,,,,,,,,high,26,0,26,0,1,,,,,,,,,
298057,2022-11-28_22h24.41.792,vts_reward_expectancy_bt,2022.2.4,MacIntel,60.0024001,Chrome,1440,900,,,,,1,976,,,,,,,,,,,,,,,,,167,W,triangle,1,0,,,,,,,,,,,,,,,,repeat,number,numRpt,f,0.5958,Lo,,,,,,1,,,,,,,,high,27,0,27,0,1,,,,,,,,,
298057,2022-11-28_22h24.41.792,vts_reward_expectancy_bt,2022.2.4,MacIntel,60.0024001,Chrome,1440,900,,,,,1,977,,,,,,,,,,,,,,,,,174,D,circle,1,0,,,,,,,,,,,,,,,,repeat,number,numRpt,f,0.6464,Lo,,,,,,1,,,,,,,,high,28,0,28,0,1,,,,,,,,,
298057,2022-11-28_22h24.41.792,vts_reward_expectancy_bt,2022.2.4,MacIntel,60.0024001,Chrome,1440,900,,,,,1,978,,,,,,,,,,,,,,,,,125,Y,triangle,1,0,,,,,,,,,,,,,,,,repeat,number,numRpt,d,0.7361,Lo,,,,,,1,,,,,,,,high,29,0,29,0,1,,,,,,,,,
298057,2022-11-28_22h24.41.792,vts_reward_expectancy_bt,2022.2.4,MacIntel,60.0024001,Chrome,1440,900,,,,,1,979,,,,,,,,,,,,,,,,,139,H,star,1,0,,,,,,,,,,,,,,,,repeat,number,numRpt,d,0.6454,Hi,,,,,,1,,,,,,,,high,30,0,30,0,1,,,,,,,,,
298057,2022-11-28_22h24.41.792,vts_reward_expectancy_bt,2022.2.4,MacIntel,60.0024001,Chrome,1440,900,,,,,0,979,,,,,,,,,,,,,,,,,181,U,hexagon,1,0,,,,,,,,,,,,,,,,repeat,number,numRpt,f,0.995,Hi,,,,,,1,,,,,,,,high,31,0,31,0,1,,,,,,,,,
298057,2022-11-28_22h24.41.792,vts_reward_expectancy_bt,2022.2.4,MacIntel,60.0024001,Chrome,1440,900,,,,,10,989,,,,,,,,,,,,,,,,,132,W,hexagon,1,0,,,,,,,,,,,,,,,,switch,letter,lettSwt,k,0.5359,Hi,,,,,,2,,,,,,space,5.9521,high,0,0,0,0,1,,,,,,,,,
298057,2022-11-28_22h24.41.792,vts_reward_expectancy_bt,2022.2.4,MacIntel,60.0024001,Chrome,1440,900,,,,,1,990,,,,,,,,,,,,,,,,,125,Y,circle,1,0,,,,,,,,,,,,,,,,repeat,letter,lettRpt,k,0.587,Lo,,,,,,2,,,,,,,,high,1,0,1,0,1,,,,,,,,,
298057,2022-11-28_22h24.41.792,vts_reward_expectancy_bt,2022.2.4,MacIntel,60.0024001,Chrome,1440,900,,,,,1,991,,,,,,,,,,,,,,,,,139,H,triangle,1,0,,,,,,,,,,,,,,,,repeat,letter,lettRpt,j,0.7516,Lo,,,,,,2,,,,,,,,high,2,0,2,0,1,,,,,,,,,
298057,2022-11-28_22h24.41.792,vts_reward_expectancy_bt,2022.2.4,MacIntel,60.0024001,Chrome,1440,900,,,,,10,1001,,,,,,,,,,,,,,,,,174,S,star,1,0,,,,,,,,,,,,,,,,repeat,letter,lettRpt,k,0.6428,Hi,,,,,,2,,,,,,,,high,3,0,3,0,1,,,,,,,,,
298057,2022-11-28_22h24.41.792,vts_reward_expectancy_bt,2022.2.4,MacIntel,60.0024001,Chrome,1440,900,,,,,10,1011,,,,,,,,,,,,,,,,,181,U,hexagon,1,0,,,,,,,,,,,,,,,,repeat,letter,lettRpt,k,1.2177,Hi,,,,,,2,,,,,,,,high,4,0,4,0,1,,,,,,,,,
298057,2022-11-28_22h24.41.792,vts_reward_expectancy_bt,2022.2.4,MacIntel,60.0024001,Chrome,1440,900,,,,,1,1012,,,,,,,,,,,,,,,,,167,F,circle,1,0,,,,,,,,,,,,,,,,repeat,letter,lettRpt,j,0.9514,Lo,,,,,,2,,,,,,,,high,5,0,5,0,1,,,,,,,,,
298057,2022-11-28_22h24.41.792,vts_reward_expectancy_bt,2022.2.4,MacIntel,60.0024001,Chrome,1440,900,,,,,1,1013,,,,,,,,,,,,,,,,,146,D,triangle,1,0,,,,,,,,,,,,,,,,repeat,letter,lettRpt,j,1.4325,Lo,,,,,,2,,,,,,,,high,6,0,6,0,1,,,,,,,,,
298057,2022-11-28_22h24.41.792,vts_reward_expectancy_bt,2022.2.4,MacIntel,60.0024001,Chrome,1440,900,,,,,10,1023,,,,,,,,,,,,,,,,,160,B,star,1,0,,,,,,,,,,,,,,,,repeat,letter,lettRpt,j,0.8115,Hi,,,,,,2,,,,,,,,high,7,0,7,0,1,,,,,,,,,
298057,2022-11-28_22h24.41.792,vts_reward_expectancy_bt,2022.2.4,MacIntel,60.0024001,Chrome,1440,900,,,,,10,1033,,,,,,,,,,,,,,,,,132,W,star,1,0,,,,,,,,,,,,,,,,repeat,letter,lettRpt,k,0.7991,Hi,,,,,,2,,,,,,,,high,8,0,8,0,1,,,,,,,,,
298057,2022-11-28_22h24.41.792,vts_reward_expectancy_bt,2022.2.4,MacIntel,60.0024001,Chrome,1440,900,,,,,1,1034,,,,,,,,,,,,,,,,,125,Y,circle,1,0,,,,,,,,,,,,,,,,repeat,letter,lettRpt,k,1.2914,Lo,,,,,,2,,,,,,,,high,9,0,9,0,1,,,,,,,,,
298057,2022-11-28_22h24.41.792,vts_reward_expectancy_bt,2022.2.4,MacIntel,60.0024001,Chrome,1440,900,,,,,10,1044,,,,,,,,,,,,,,,,,139,H,hexagon,1,0,,,,,,,,,,,,,,,,repeat,letter,lettRpt,j,0.8767,Hi,,,,,,2,,,,,,,,high,10,0,10,0,1,,,,,,,,,
298057,2022-11-28_22h24.41.792,vts_reward_expectancy_bt,2022.2.4,MacIntel,60.0024001,Chrome,1440,900,,,,,1,1045,,,,,,,,,,,,,,,,,174,S,triangle,1,0,,,,,,,,,,,,,,,,repeat,letter,lettRpt,k,1.2496,Lo,,,,,,2,,,,,,,,high,11,0,11,0,1,,,,,,,,,
298057,2022-11-28_22h24.41.792,vts_reward_expectancy_bt,2022.2.4,MacIntel,60.0024001,Chrome,1440,900,,,,,1,1046,,,,,,,,,,,,,,,,,181,U,triangle,1,0,,,,,,,,,,,,,,,,repeat,letter,lettRpt,k,0.6655,Lo,,,,,,2,,,,,,,,high,12,0,12,0,1,,,,,,,,,
298057,2022-11-28_22h24.41.792,vts_reward_expectancy_bt,2022.2.4,MacIntel,60.0024001,Chrome,1440,900,,,,,10,1056,,,,,,,,,,,,,,,,,167,F,hexagon,1,0,,,,,,,,,,,,,,,,repeat,letter,lettRpt,j,0.8374,Hi,,,,,,2,,,,,,,,high,13,0,13,0,1,,,,,,,,,
298057,2022-11-28_22h24.41.792,vts_reward_expectancy_bt,2022.2.4,MacIntel,60.0024001,Chrome,1440,900,,,,,10,1066,,,,,,,,,,,,,,,,,146,D,star,1,0,,,,,,,,,,,,,,,,repeat,letter,lettRpt,j,0.7762,Hi,,,,,,2,,,,,,,,high,14,0,14,0,1,,,,,,,,,
298057,2022-11-28_22h24.41.792,vts_reward_expectancy_bt,2022.2.4,MacIntel,60.0024001,Chrome,1440,900,,,,,1,1067,,,,,,,,,,,,,,,,,160,B,circle,1,0,,,,,,,,,,,,,,,,repeat,letter,lettRpt,j,0.6518,Lo,,,,,,2,,,,,,,,high,15,0,15,0,1,,,,,,,,,
298057,2022-11-28_22h24.41.792,vts_reward_expectancy_bt,2022.2.4,MacIntel,60.0024001,Chrome,1440,900,,,,,1,1068,,,,,,,,,,,,,,,,,167,D,hexagon,1,0,,,,,,,,,,,,,,,,repeat,letter,lettRpt,j,0.9522,Hi,,,,,,2,,,,,,,,high,16,0,16,0,1,,,,,,,,,
298057,2022-11-28_22h24.41.792,vts_reward_expectancy_bt,2022.2.4,MacIntel,60.0024001,Chrome,1440,900,,,,,1,1069,,,,,,,,,,,,,,,,,146,U,circle,1,0,,,,,,,,,,,,,,,,repeat,letter,lettRpt,k,0.7246,Lo,,,,,,2,,,,,,,,high,17,0,17,0,1,,,,,,,,,
298057,2022-11-28_22h24.41.792,vts_reward_expectancy_bt,2022.2.4,MacIntel,60.0024001,Chrome,1440,900,,,,,0,1069,,,,,,,,,,,,,,,,,139,W,star,0,0,,,,,,,,,,,,,,,,repeat,letter,NA,j,0.6265,Lo,,,,,,2,,,,,,,,high,18,0,18,0,1,,,,,,,,,
298057,2022-11-28_22h24.41.792,vts_reward_expectancy_bt,2022.2.4,MacIntel,60.0024001,Chrome,1440,900,,,,,1,1070,,,,,,,,,,,,,,,,,181,B,triangle,1,1,,,,,,,,,,,,,,,,repeat,letter,lettRpt,j,0.7671,Lo,,,,,,2,,,,,,,,high,19,0,19,0,1,,,,,,,,,
298057,2022-11-28_22h24.41.792,vts_reward_expectancy_bt,2022.2.4,MacIntel,60.0024001,Chrome,1440,900,,,,,10,1080,,,,,,,,,,,,,,,,,174,F,star,1,0,,,,,,,,,,,,,,,,repeat,letter,lettRpt,j,0.7578,Hi,,,,,,2,,,,,,,,high,20,0,20,0,1,,,,,,,,,
298057,2022-11-28_22h24.41.792,vts_reward_expectancy_bt,2022.2.4,MacIntel,60.0024001,Chrome,1440,900,,,,,10,1090,,,,,,,,,,,,,,,,,125,Y,circle,1,0,,,,,,,,,,,,,,,,repeat,letter,lettRpt,k,0.6362,Lo,,,,,,2,,,,,,,,high,21,0,21,0,1,,,,,,,,,
298057,2022-11-28_22h24.41.792,vts_reward_expectancy_bt,2022.2.4,MacIntel,60.0024001,Chrome,1440,900,,,,,10,1100,,,,,,,,,,,,,,,,,160,H,hexagon,1,0,,,,,,,,,,,,,,,,repeat,letter,lettRpt,j,0.7248,Hi,,,,,,2,,,,,,,,high,22,0,22,0,1,,,,,,,,,
298057,2022-11-28_22h24.41.792,vts_reward_expectancy_bt,2022.2.4,MacIntel,60.0024001,Chrome,1440,900,,,,,1,1101,,,,,,,,,,,,,,,,,132,S,triangle,1,0,,,,,,,,,,,,,,,,repeat,letter,lettRpt,k,0.6779,Lo,,,,,,2,,,,,,,,high,23,0,23,0,1,,,,,,,,,
298057,2022-11-28_22h24.41.792,vts_reward_expectancy_bt,2022.2.4,MacIntel,60.0024001,Chrome,1440,900,,,,,1,1102,,,,,,,,,,,,,,,,,139,D,triangle,1,0,,,,,,,,,,,,,,,,repeat,letter,lettRpt,j,1.2084,Lo,,,,,,2,,,,,,,,high,24,0,24,0,1,,,,,,,,,
298057,2022-11-28_22h24.41.792,vts_reward_expectancy_bt,2022.2.4,MacIntel,60.0024001,Chrome,1440,900,,,,,1,1103,,,,,,,,,,,,,,,,,181,F,hexagon,1,0,,,,,,,,,,,,,,,,repeat,letter,lettRpt,j,0.9487,Hi,,,,,,2,,,,,,,,high,25,0,25,0,1,,,,,,,,,
298057,2022-11-28_22h24.41.792,vts_reward_expectancy_bt,2022.2.4,MacIntel,60.0024001,Chrome,1440,900,,,,,1,1104,,,,,,,,,,,,,,,,,146,B,circle,1,0,,,,,,,,,,,,,,,,repeat,letter,lettRpt,j,0.7825,Lo,,,,,,2,,,,,,,,high,26,0,26,0,1,,,,,,,,,
298057,2022-11-28_22h24.41.792,vts_reward_expectancy_bt,2022.2.4,MacIntel,60.0024001,Chrome,1440,900,,,,,10,1114,,,,,,,,,,,,,,,,,174,Y,star,1,0,,,,,,,,,,,,,,,,repeat,letter,lettRpt,k,2.9423,Hi,,,,,,2,,,,,,,,high,27,0,27,0,1,,,,,,,,,
298057,2022-11-28_22h24.41.792,vts_reward_expectancy_bt,2022.2.4,MacIntel,60.0024001,Chrome,1440,900,,,,,10,1124,,,,,,,,,,,,,,,,,160,S,hexagon,1,0,,,,,,,,,,,,,,,,repeat,letter,lettRpt,k,0.6768,Hi,,,,,,2,,,,,,,,high,28,0,28,0,1,,,,,,,,,
298057,2022-11-28_22h24.41.792,vts_reward_expectancy_bt,2022.2.4,MacIntel,60.0024001,Chrome,1440,900,,,,,1,1125,,,,,,,,,,,,,,,,,167,H,circle,1,0,,,,,,,,,,,,,,,,repeat,letter,lettRpt,j,0.8612,Lo,,,,,,2,,,,,,,,high,29,0,29,0,1,,,,,,,,,
298057,2022-11-28_22h24.41.792,vts_reward_expectancy_bt,2022.2.4,MacIntel,60.0024001,Chrome,1440,900,,,,,1,1126,,,,,,,,,,,,,,,,,125,W,triangle,1,0,,,,,,,,,,,,,,,,repeat,letter,lettRpt,k,0.9522,Lo,,,,,,2,,,,,,,,high,30,0,30,0,1,,,,,,,,,
298057,2022-11-28_22h24.41.792,vts_reward_expectancy_bt,2022.2.4,MacIntel,60.0024001,Chrome,1440,900,,,,,10,1136,,,,,,,,,,,,,,,,,132,U,star,1,0,,,,,,,,,,,,,,,,repeat,letter,lettRpt,k,0.8996,Hi,,,,,,2,,,,,,,,high,31,0,31,0,1,,,,,,,,,
298057,2022-11-28_22h24.41.792,vts_reward_expectancy_bt,2022.2.4,MacIntel,60.0024001,Chrome,1440,900,,,,,10,1146,,,,,,,,,,,,,,,,,174,S,circle,1,0,,,,,,,,,,,,,,,,repeat,letter,lettRpt,k,0.7103,Lo,,,,,,3,,,,,,space,1.1527,high,0,0,0,0,1,,,,,,,,,
298057,2022-11-28_22h24.41.792,vts_reward_expectancy_bt,2022.2.4,MacIntel,60.0024001,Chrome,1440,900,,,,,1,1147,,,,,,,,,,,,,,,,,167,B,star,1,0,,,,,,,,,,,,,,,,repeat,letter,lettRpt,j,0.6936,Hi,,,,,,3,,,,,,,,high,1,0,1,0,1,,,,,,,,,
298057,2022-11-28_22h24.41.792,vts_reward_expectancy_bt,2022.2.4,MacIntel,60.0024001,Chrome,1440,900,,,,,0,1147,,,,,,,,,,,,,,,,,132,W,hexagon,1,0,,,,,,,,,,,,,,,,repeat,letter,lettRpt,k,1.1105,Hi,,,,,,3,,,,,,,,high,2,0,2,0,1,,,,,,,,,
298057,2022-11-28_22h24.41.792,vts_reward_expectancy_bt,2022.2.4,MacIntel,60.0024001,Chrome,1440,900,,,,,1,1148,,,,,,,,,,,,,,,,,125,Y,triangle,1,0,,,,,,,,,,,,,,,,repeat,letter,lettRpt,k,0.6826,Lo,,,,,,3,,,,,,,,high,3,0,3,0,1,,,,,,,,,
298057,2022-11-28_22h24.41.792,vts_reward_expectancy_bt,2022.2.4,MacIntel,60.0024001,Chrome,1440,900,,,,,1,1149,,,,,,,,,,,,,,,,,139,F,circle,1,0,,,,,,,,,,,,,,,,repeat,letter,lettRpt,j,0.9341,Lo,,,,,,3,,,,,,,,high,4,0,4,0,1,,,,,,,,,
298057,2022-11-28_22h24.41.792,vts_reward_expectancy_bt,2022.2.4,MacIntel,60.0024001,Chrome,1440,900,,,,,1,1150,,,,,,,,,,,,,,,,,146,U,star,1,0,,,,,,,,,,,,,,,,repeat,letter,lettRpt,k,0.6941,Hi,,,,,,3,,,,,,,,high,5,0,5,0,1,,,,,,,,,
298057,2022-11-28_22h24.41.792,vts_reward_expectancy_bt,2022.2.4,MacIntel,60.0024001,Chrome,1440,900,,,,,0,1150,,,,,,,,,,,,,,,,,160,H,hexagon,-1,0,,,,,,,,,,,,,,,,switch,no_choice,NA,,,Hi,,,,,,3,,,,,,,,high,6,0,6,0,1,,,,,,,,,
298057,2022-11-28_22h24.41.792,vts_reward_expectancy_bt,2022.2.4,MacIntel,60.0024001,Chrome,1440,900,,,,,1,1151,,,,,,,,,,,,,,,,,181,D,triangle,1,0,,,,,,,,,,,,,,,,switch,letter,lettSwt,j,0.9635,Lo,,,,,,3,,,,,,,,high,7,0,7,0,1,,,,,,,,,
298057,2022-11-28_22h24.41.792,vts_reward_expectancy_bt,2022.2.4,MacIntel,60.0024001,Chrome,1440,900,,,,,0,1151,,,,,,,,,,,,,,,,,174,S,hexagon,-1,0,,,,,,,,,,,,,,,,switch,no_choice,NA,,,Lo,,,,,,3,,,,,,,,high,8,0,8,0,1,,,,,,,,,
298057,2022-11-28_22h24.41.792,vts_reward_expectancy_bt,2022.2.4,MacIntel,60.0024001,Chrome,1440,900,,,,,1,1152,,,,,,,,,,,,,,,,,167,B,circle,1,0,,,,,,,,,,,,,,,,switch,letter,lettSwt,j,0.8982,Lo,,,,,,3,,,,,,,,high,9,0,9,0,1,,,,,,,,,
298057,2022-11-28_22h24.41.792,vts_reward_expectancy_bt,2022.2.4,MacIntel,60.0024001,Chrome,1440,900,,,,,1,1153,,,,,,,,,,,,,,,,,132,W,triangle,1,0,,,,,,,,,,,,,,,,repeat,letter,lettRpt,k,0.8957,Lo,,,,,,3,,,,,,,,high,10,0,10,0,1,,,,,,,,,
298057,2022-11-28_22h24.41.792,vts_reward_expectancy_bt,2022.2.4,MacIntel,60.0024001,Chrome,1440,900,,,,,0,1153,,,,,,,,,,,,,,,,,125,Y,star,1,0,,,,,,,,,,,,,,,,repeat,letter,lettRpt,k,1.38,Hi,,,,,,3,,,,,,,,high,11,0,11,0,1,,,,,,,,,
298057,2022-11-28_22h24.41.792,vts_reward_expectancy_bt,2022.2.4,MacIntel,60.0024001,Chrome,1440,900,,,,,1,1154,,,,,,,,,,,,,,,,,139,F,triangle,1,0,,,,,,,,,,,,,,,,repeat,letter,lettRpt,j,0.8698,Lo,,,,,,3,,,,,,,,high,12,0,12,0,1,,,,,,,,,
298057,2022-11-28_22h24.41.792,vts_reward_expectancy_bt,2022.2.4,MacIntel,60.0024001,Chrome,1440,900,,,,,1,1155,,,,,,,,,,,,,,,,,146,U,circle,1,0,,,,,,,,,,,,,,,,repeat,letter,lettRpt,k,1.6791,Lo,,,,,,3,,,,,,,,high,13,0,13,0,1,,,,,,,,,
298057,2022-11-28_22h24.41.792,vts_reward_expectancy_bt,2022.2.4,MacIntel,60.0024001,Chrome,1440,900,,,,,0,1155,,,,,,,,,,,,,,,,,160,H,star,1,0,,,,,,,,,,,,,,,,repeat,letter,lettRpt,j,0.8561,Hi,,,,,,3,,,,,,,,high,14,0,14,0,1,,,,,,,,,
298057,2022-11-28_22h24.41.792,vts_reward_expectancy_bt,2022.2.4,MacIntel,60.0024001,Chrome,1440,900,,,,,0,1155,,,,,,,,,,,,,,,,,181,D,hexagon,1,0,,,,,,,,,,,,,,,,repeat,letter,lettRpt,j,1.2629,Hi,,,,,,3,,,,,,,,high,15,0,15,0,1,,,,,,,,,
298057,2022-11-28_22h24.41.792,vts_reward_expectancy_bt,2022.2.4,MacIntel,60.0024001,Chrome,1440,900,,,,,10,1165,,,,,,,,,,,,,,,,,132,S,star,1,0,,,,,,,,,,,,,,,,repeat,letter,lettRpt,k,0.4899,Hi,,,,,,3,,,,,,,,high,16,0,16,0,1,,,,,,,,,
298057,2022-11-28_22h24.41.792,vts_reward_expectancy_bt,2022.2.4,MacIntel,60.0024001,Chrome,1440,900,,,,,1,1166,,,,,,,,,,,,,,,,,160,W,hexagon,1,0,,,,,,,,,,,,,,,,repeat,letter,lettRpt,k,0.5474,Hi,,,,,,3,,,,,,,,high,17,0,17,0,1,,,,,,,,,
298057,2022-11-28_22h24.41.792,vts_reward_expectancy_bt,2022.2.4,MacIntel,60.0024001,Chrome,1440,900,,,,,1,1167,,,,,,,,,,,,,,,,,181,Y,triangle,1,0,,,,,,,,,,,,,,,,repeat,letter,lettRpt,k,2.0715,Lo,,,,,,3,,,,,,,,high,18,0,18,0,1,,,,,,,,,
298057,2022-11-28_22h24.41.792,vts_reward_expectancy_bt,2022.2.4,MacIntel,60.0024001,Chrome,1440,900,,,,,10,1177,,,,,,,,,,,,,,,,,167,H,circle,1,0,,,,,,,,,,,,,,,,repeat,letter,lettRpt,j,0.7621,Lo,,,,,,3,,,,,,,,high,19,0,19,0,1,,,,,,,,,
298057,2022-11-28_22h24.41.792,vts_reward_expectancy_bt,2022.2.4,MacIntel,60.0024001,Chrome,1440,900,,,,,1,1178,,,,,,,,,,,,,,,,,139,B,circle,1,0,,,,,,,,,,,,,,,,repeat,letter,lettRpt,j,0.8456,Lo,,,,,,3,,,,,,,,high,20,0,20,0,1,,,,,,,,,
298057,2022-11-28_22h24.41.792,vts_reward_expectancy_bt,2022.2.4,MacIntel,60.0024001,Chrome,1440,900,,,,,10,1188,,,,,,,,,,,,,,,,,125,U,hexagon,1,0,,,,,,,,,,,,,,,,repeat,letter,lettRpt,k,0.7118,Hi,,,,,,3,,,,,,,,high,21,0,21,0,1,,,,,,,,,
298057,2022-11-28_22h24.41.792,vts_reward_expectancy_bt,2022.2.4,MacIntel,60.0024001,Chrome,1440,900,,,,,0,1188,,,,,,,,,,,,,,,,,146,D,triangle,-1,0,,,,,,,,,,,,,,,,switch,no_choice,NA,,,Hi,,,,,,3,,,,,,,,high,22,0,22,0,1,,,,,,,,,
298057,2022-11-28_22h24.41.792,vts_reward_expectancy_bt,2022.2.4,MacIntel,60.0024001,Chrome,1440,900,,,,,0,1188,,,,,,,,,,,,,,,,,174,F,star,1,0,,,,,,,,,,,,,,,,switch,letter,lettSwt,j,0.9901,Hi,,,,,,3,,,,,,,,high,23,0,23,0,1,,,,,,,,,
298057,2022-11-28_22h24.41.792,vts_reward_expectancy_bt,2022.2.4,MacIntel,60.0024001,Chrome,1440,900,,,,,0,1188,,,,,,,,,,,,,,,,,181,U,hexagon,1,0,,,,,,,,,,,,,,,,repeat,letter,lettRpt,k,0.9863,Hi,,,,,,3,,,,,,,,high,24,0,24,0,1,,,,,,,,,
298057,2022-11-28_22h24.41.792,vts_reward_expectancy_bt,2022.2.4,MacIntel,60.0024001,Chrome,1440,900,,,,,10,1198,,,,,,,,,,,,,,,,,160,W,star,1,0,,,,,,,,,,,,,,,,repeat,letter,lettRpt,k,0.6956,Hi,,,,,,3,,,,,,,,high,25,0,25,0,1,,,,,,,,,
298057,2022-11-28_22h24.41.792,vts_reward_expectancy_bt,2022.2.4,MacIntel,60.0024001,Chrome,1440,900,,,,,1,1199,,,,,,,,,,,,,,,,,139,H,triangle,1,0,,,,,,,,,,,,,,,,repeat,letter,lettRpt,j,0.6129,Lo,,,,,,3,,,,,,,,high,26,0,26,0,1,,,,,,,,,
298057,2022-11-28_22h24.41.792,vts_reward_expectancy_bt,2022.2.4,MacIntel,60.0024001,Chrome,1440,900,,,,,1,1200,,,,,,,,,,,,,,,,,146,S,circle,1,0,,,,,,,,,,,,,,,,repeat,letter,lettRpt,k,1.3062,Lo,,,,,,3,,,,,,,,high,27,0,27,0,1,,,,,,,,,
298057,2022-11-28_22h24.41.792,vts_reward_expectancy_bt,2022.2.4,MacIntel,60.0024001,Chrome,1440,900,,,,,1,1201,,,,,,,,,,,,,,,,,174,F,circle,1,0,,,,,,,,,,,,,,,,repeat,letter,lettRpt,j,0.7223,Lo,,,,,,3,,,,,,,,high,28,0,28,0,1,,,,,,,,,
298057,2022-11-28_22h24.41.792,vts_reward_expectancy_bt,2022.2.4,MacIntel,60.0024001,Chrome,1440,900,,,,,0,1201,,,,,,,,,,,,,,,,,125,D,hexagon,1,0,,,,,,,,,,,,,,,,repeat,letter,lettRpt,j,1.013,Hi,,,,,,3,,,,,,,,high,29,0,29,0,1,,,,,,,,,
298057,2022-11-28_22h24.41.792,vts_reward_expectancy_bt,2022.2.4,MacIntel,60.0024001,Chrome,1440,900,,,,,1,1202,,,,,,,,,,,,,,,,,167,Y,triangle,1,0,,,,,,,,,,,,,,,,repeat,letter,lettRpt,k,0.7728,Lo,,,,,,3,,,,,,,,high,30,0,30,0,1,,,,,,,,,
298057,2022-11-28_22h24.41.792,vts_reward_expectancy_bt,2022.2.4,MacIntel,60.0024001,Chrome,1440,900,,,,,10,1212,,,,,,,,,,,,,,,,,132,B,star,1,0,,,,,,,,,,,,,,,,repeat,letter,lettRpt,j,0.7544,Hi,,,,,,3,,,,,,,,high,31,0,31,0,1,,,,,,,,,
298057,2022-11-28_22h24.41.792,vts_reward_expectancy_bt,2022.2.4,MacIntel,60.0024001,Chrome,1440,900,,,,,1,1213,,,,,,,,,,,,,,,,,146,S,triangle,1,0,,,,,,,,,,,,,,,,switch,number,numSwt,d,0.6891,Lo,,,,,,4,,,,,,space,0.6689,high,0,0,0,0,1,,,,,,,,,
298057,2022-11-28_22h24.41.792,vts_reward_expectancy_bt,2022.2.4,MacIntel,60.0024001,Chrome,1440,900,,,,,10,1223,,,,,,,,,,,,,,,,,174,F,star,1,0,,,,,,,,,,,,,,,,repeat,number,numRpt,f,1.246,Hi,,,,,,4,,,,,,,,high,1,0,1,0,1,,,,,,,,,
298057,2022-11-28_22h24.41.792,vts_reward_expectancy_bt,2022.2.4,MacIntel,60.0024001,Chrome,1440,900,,,,,1,1224,,,,,,,,,,,,,,,,,139,W,circle,1,0,,,,,,,,,,,,,,,,repeat,number,numRpt,d,1.1228,Lo,,,,,,4,,,,,,,,high,2,0,2,0,1,,,,,,,,,
298057,2022-11-28_22h24.41.792,vts_reward_expectancy_bt,2022.2.4,MacIntel,60.0024001,Chrome,1440,900,,,,,10,1234,,,,,,,,,,,,,,,,,132,U,hexagon,1,0,,,,,,,,,,,,,,,,repeat,number,numRpt,d,0.6545,Hi,,,,,,4,,,,,,,,high,3,0,3,0,1,,,,,,,,,
298057,2022-11-28_22h24.41.792,vts_reward_expectancy_bt,2022.2.4,MacIntel,60.0024001,Chrome,1440,900,,,,,1,1235,,,,,,,,,,,,,,,,,125,D,triangle,1,0,,,,,,,,,,,,,,,,repeat,number,numRpt,d,0.529,Lo,,,,,,4,,,,,,,,high,4,0,4,0,1,,,,,,,,,
298057,2022-11-28_22h24.41.792,vts_reward_expectancy_bt,2022.2.4,MacIntel,60.0024001,Chrome,1440,900,,,,,0,1235,,,,,,,,,,,,,,,,,160,B,star,0,0,,,,,,,,,,,,,,,,repeat,number,NA,d,0.5866,Lo,,,,,,4,,,,,,,,high,5,0,5,0,1,,,,,,,,,
298057,2022-11-28_22h24.41.792,vts_reward_expectancy_bt,2022.2.4,MacIntel,60.0024001,Chrome,1440,900,,,,,1,1236,,,,,,,,,,,,,,,,,167,Y,circle,1,1,,,,,,,,,,,,,,,,repeat,number,numRpt,f,0.8888,Lo,,,,,,4,,,,,,,,high,6,0,6,0,1,,,,,,,,,
298057,2022-11-28_22h24.41.792,vts_reward_expectancy_bt,2022.2.4,MacIntel,60.0024001,Chrome,1440,900,,,,,1,1237,,,,,,,,,,,,,,,,,181,H,hexagon,1,0,,,,,,,,,,,,,,,,repeat,number,numRpt,f,0.7218,Hi,,,,,,4,,,,,,,,high,7,0,7,0,1,,,,,,,,,
298057,2022-11-28_22h24.41.792,vts_reward_expectancy_bt,2022.2.4,MacIntel,60.0024001,Chrome,1440,900,,,,,10,1247,,,,,,,,,,,,,,,,,146,S,triangle,1,0,,,,,,,,,,,,,,,,repeat,number,numRpt,d,0.7373,Lo,,,,,,4,,,,,,,,high,8,0,8,0,1,,,,,,,,,
298057,2022-11-28_22h24.41.792,vts_reward_expectancy_bt,2022.2.4,MacIntel,60.0024001,Chrome,1440,900,,,,,1,1248,,,,,,,,,,,,,,,,,174,F,circle,1,0,,,,,,,,,,,,,,,,repeat,number,numRpt,f,0.4844,Lo,,,,,,4,,,,,,,,high,9,0,9,0,1,,,,,,,,,
298057,2022-11-28_22h24.41.792,vts_reward_expectancy_bt,2022.2.4,MacIntel,60.0024001,Chrome,1440,900,,,,,10,1258,,,,,,,,,,,,,,,,,139,W,star,1,0,,,,,,,,,,,,,,,,repeat,number,numRpt,d,0.5693,Hi,,,,,,4,,,,,,,,high,10,0,10,0,1,,,,,,,,,
298057,2022-11-28_22h24.41.792,vts_reward_expectancy_bt,2022.2.4,MacIntel,60.0024001,Chrome,1440,900,,,,,10,1268,,,,,,,,,,,,,,,,,132,U,hexagon,1,0,,,,,,,,,,,,,,,,repeat,number,numRpt,d,0.5751,Hi,,,,,,4,,,,,,,,high,11,0,11,0,1,,,,,,,,,
298057,2022-11-28_22h24.41.792,vts_reward_expectancy_bt,2022.2.4,MacIntel,60.0024001,Chrome,1440,900,,,,,10,1278,,,,,,,,,,,,,,,,,125,D,hexagon,1,0,,,,,,,,,,,,,,,,repeat,number,numRpt,d,0.6388,Hi,,,,,,4,,,,,,,,high,12,0,12,0,1,,,,,,,,,
298057,2022-11-28_22h24.41.792,vts_reward_expectancy_bt,2022.2.4,MacIntel,60.0024001,Chrome,1440,900,,,,,0,1278,,,,,,,,,,,,,,,,,160,B,circle,0,0,,,,,,,,,,,,,,,,repeat,number,NA,d,0.52,Hi,,,,,,4,,,,,,,,high,13,0,13,0,1,,,,,,,,,
298057,2022-11-28_22h24.41.792,vts_reward_expectancy_bt,2022.2.4,MacIntel,60.0024001,Chrome,1440,900,,,,,1,1279,,,,,,,,,,,,,,,,,167,Y,triangle,1,1,,,,,,,,,,,,,,,,repeat,number,numRpt,f,0.7383,Lo,,,,,,4,,,,,,,,high,14,0,14,0,1,,,,,,,,,
298057,2022-11-28_22h24.41.792,vts_reward_expectancy_bt,2022.2.4,MacIntel,60.0024001,Chrome,1440,900,,,,,10,1289,,,,,,,,,,,,,,,,,181,H,star,1,0,,,,,,,,,,,,,,,,repeat,number,numRpt,f,0.7121,Hi,,,,,,4,,,,,,,,high,15,0,15,0,1,,,,,,,,,
298057,2022-11-28_22h24.41.792,vts_reward_expectancy_bt,2022.2.4,MacIntel,60.0024001,Chrome,1440,900,,,,,10,1299,,,,,,,,,,,,,,,,,132,S,hexagon,1,0,,,,,,,,,,,,,,,,repeat,number,numRpt,d,0.6582,Hi,,,,,,4,,,,,,,,high,16,0,16,0,1,,,,,,,,,
298057,2022-11-28_22h24.41.792,vts_reward_expectancy_bt,2022.2.4,MacIntel,60.0024001,Chrome,1440,900,,,,,10,1309,,,,,,,,,,,,,,,,,146,F,star,1,0,,,,,,,,,,,,,,,,repeat,number,numRpt,d,1.1954,Hi,,,,,,4,,,,,,,,high,17,0,17,0,1,,,,,,,,,
298057,2022-11-28_22h24.41.792,vts_reward_expectancy_bt,2022.2.4,MacIntel,60.0024001,Chrome,1440,900,,,,,1,1310,,,,,,,,,,,,,,,,,181,B,triangle,1,0,,,,,,,,,,,,,,,,repeat,number,numRpt,f,0.5542,Lo,,,,,,4,,,,,,,,high,18,0,18,0,1,,,,,,,,,
298057,2022-11-28_22h24.41.792,vts_reward_expectancy_bt,2022.2.4,MacIntel,60.0024001,Chrome,1440,900,,,,,1,1311,,,,,,,,,,,,,,,,,174,W,circle,1,0,,,,,,,,,,,,,,,,repeat,number,numRpt,f,0.7059,Lo,,,,,,4,,,,,,,,high,19,0,19,0,1,,,,,,,,,
298057,2022-11-28_22h24.41.792,vts_reward_expectancy_bt,2022.2.4,MacIntel,60.0024001,Chrome,1440,900,,,,,1,1312,,,,,,,,,,,,,,,,,139,U,hexagon,1,0,,,,,,,,,,,,,,,,repeat,number,numRpt,d,0.6244,Hi,,,,,,4,,,,,,,,high,20,0,20,0,1,,,,,,,,,
298057,2022-11-28_22h24.41.792,vts_reward_expectancy_bt,2022.2.4,MacIntel,60.0024001,Chrome,1440,900,,,,,1,1313,,,,,,,,,,,,,,,,,167,Y,star,1,0,,,,,,,,,,,,,,,,repeat,number,numRpt,f,0.5891,Hi,,,,,,4,,,,,,,,high,21,0,21,0,1,,,,,,,,,
298057,2022-11-28_22h24.41.792,vts_reward_expectancy_bt,2022.2.4,MacIntel,60.0024001,Chrome,1440,900,,,,,1,1314,,,,,,,,,,,,,,,,,160,H,circle,1,0,,,,,,,,,,,,,,,,repeat,number,numRpt,f,0.5386,Lo,,,,,,4,,,,,,,,high,22,0,22,0,1,,,,,,,,,
298057,2022-11-28_22h24.41.792,vts_reward_expectancy_bt,2022.2.4,MacIntel,60.0024001,Chrome,1440,900,,,,,10,1324,,,,,,,,,,,,,,,,,125,D,triangle,1,0,,,,,,,,,,,,,,,,repeat,number,numRpt,d,0.6632,Lo,,,,,,4,,,,,,,,high,23,0,23,0,1,,,,,,,,,
298057,2022-11-28_22h24.41.792,vts_reward_expectancy_bt,2022.2.4,MacIntel,60.0024001,Chrome,1440,900,,,,,10,1334,,,,,,,,,,,,,,,,,174,W,star,1,0,,,,,,,,,,,,,,,,repeat,number,numRpt,f,0.8236,Hi,,,,,,4,,,,,,,,high,24,0,24,0,1,,,,,,,,,
298057,2022-11-28_22h24.41.792,vts_reward_expectancy_bt,2022.2.4,MacIntel,60.0024001,Chrome,1440,900,,,,,1,1335,,,,,,,,,,,,,,,,,125,B,hexagon,1,0,,,,,,,,,,,,,,,,repeat,number,numRpt,d,0.6132,Hi,,,,,,4,,,,,,,,high,25,0,25,0,1,,,,,,,,,
298057,2022-11-28_22h24.41.792,vts_reward_expectancy_bt,2022.2.4,MacIntel,60.0024001,Chrome,1440,900,,,,,1,1336,,,,,,,,,,,,,,,,,167,F,triangle,1,0,,,,,,,,,,,,,,,,repeat,number,numRpt,f,0.5612,Lo,,,,,,4,,,,,,,,high,26,0,26,0,1,,,,,,,,,
298057,2022-11-28_22h24.41.792,vts_reward_expectancy_bt,2022.2.4,MacIntel,60.0024001,Chrome,1440,900,,,,,1,1337,,,,,,,,,,,,,,,,,146,D,circle,1,0,,,,,,,,,,,,,,,,repeat,number,numRpt,d,0.6241,Lo,,,,,,4,,,,,,,,high,27,0,27,0,1,,,,,,,,,
298057,2022-11-28_22h24.41.792,vts_reward_expectancy_bt,2022.2.4,MacIntel,60.0024001,Chrome,1440,900,,,,,10,1347,,,,,,,,,,,,,,,,,132,H,star,1,0,,,,,,,,,,,,,,,,repeat,number,numRpt,d,0.6399,Hi,,,,,,4,,,,,,,,high,28,0,28,0,1,,,,,,,,,
298057,2022-11-28_22h24.41.792,vts_reward_expectancy_bt,2022.2.4,MacIntel,60.0024001,Chrome,1440,900,,,,,10,1357,,,,,,,,,,,,,,,,,160,Y,hexagon,1,0,,,,,,,,,,,,,,,,repeat,number,numRpt,f,0.647,Hi,,,,,,4,,,,,,,,high,29,0,29,0,1,,,,,,,,,
298057,2022-11-28_22h24.41.792,vts_reward_expectancy_bt,2022.2.4,MacIntel,60.0024001,Chrome,1440,900,,,,,1,1358,,,,,,,,,,,,,,,,,139,U,triangle,1,0,,,,,,,,,,,,,,,,repeat,number,numRpt,d,0.6568,Lo,,,,,,4,,,,,,,,high,30,0,30,0,1,,,,,,,,,
298057,2022-11-28_22h24.41.792,vts_reward_expectancy_bt,2022.2.4,MacIntel,60.0024001,Chrome,1440,900,,,,,10,1368,,,,,,,,,,,,,,,,,181,S,circle,1,0,,,,,,,,,,,,,,,,repeat,number,numRpt,f,0.8212,Lo,,,,,,4,,,,,,,,high,31,0,31,0,1,,,,,,,,,
298057,2022-11-28_22h24.41.792,vts_reward_expectancy_bt,2022.2.4,MacIntel,60.0024001,Chrome,1440,900,,,,,10,1378,,,,,,,,,,,,,,,,,160,B,hexagon,1,0,,,,,,,,,,,,,,,,switch,letter,lettSwt,j,0.8191,Hi,,,,,,5,,,,,,space,11.8437,high,0,0,0,0,1,,,,,,,,,
298057,2022-11-28_22h24.41.792,vts_reward_expectancy_bt,2022.2.4,MacIntel,60.0024001,Chrome,1440,900,,,,,10,1388,,,,,,,,,,,,,,,,,146,Y,star,1,0,,,,,,,,,,,,,,,,repeat,letter,lettRpt,k,0.6532,Hi,,,,,,5,,,,,,,,high,1,0,1,0,1,,,,,,,,,
298057,2022-11-28_22h24.41.792,vts_reward_expectancy_bt,2022.2.4,MacIntel,60.0024001,Chrome,1440,900,,,,,1,1389,,,,,,,,,,,,,,,,,125,H,triangle,1,0,,,,,,,,,,,,,,,,repeat,letter,lettRpt,j,0.905,Lo,,,,,,5,,,,,,,,high,2,0,2,0,1,,,,,,,,,
