participant,date,expName,psychopyVersion,OS,frameRate,browser,xResolution,yResolution,key_resp.keys,key_resp.rt,training_resp.keys,training_resp.rt,points_trial,points_cumul,trainBlock,training.thisRepN,training.thisTrialN,training.thisN,training.thisIndex,training.ran,LTriangleOpac,LCircleOpac,LHexagonOpac,LStarOpac,RTriangleOpac,RCircleOpac,RHexagonOpac,RStarOpac,LShape_ID,RShape_ID,curr_topStim,curr_bottStim,curr_shape,acc,E1,target_resp_prac1.keys,target_resp_prac1.rt,pracBlock,task1_prac_trials.thisRepN,task1_prac_trials.thisTrialN,task1_prac_trials.thisN,task1_prac_trials.thisIndex,task1_prac_trials.ran,target_resp_prac2.keys,target_resp_prac2.rt,task2_praac_trials.thisRepN,task2_praac_trials.thisTrialN,task2_praac_trials.thisN,task2_praac_trials.thisIndex,task2_praac_trials.ran,alt,task,condition,target_resp.keys,target_resp.rt,rewCond,vts_practice_trials.thisRepN,vts_practice_trials.thisTrialN,vts_practice_trials.thisN,vts_practice_trials.thisIndex,vts_practice_trials.ran,blockNum,trials_norew.thisRepN,trials_norew.thisTrialN,trials_norew.thisN,trials_norew.thisIndex,trials_norew.ran,key_resp_2.keys,key_resp_2.rt,rewExpectancy,trials_rew.thisRepN,trials_rew.thisTrialN,trials_rew.thisN,trials_rew.thisIndex,trials_rew.ran,Q1,Q2,Q2_text,Q3,Q4,Q5_text,Q5,xRes,yRes
298081,2022-11-29_09h40.53.875,vts_reward_expectancy_bt,2022.2.4,Win32,59.97001499,Chrome,1211,808,,,,,,,,,,,,,,,,,,,,,,,,,,,,,,,,,,,,,,,,,,,,,,,,,,,,,,,,,,,,,,,,,,,,,,,,,,,,
298081,2022-11-29_09h40.53.875,vts_reward_expectancy_bt,2022.2.4,Win32,59.97001499,Chrome,1211,808,space,23.3498,,,,,,,,,,,,,,,,,,,,,,,,,,,,,,,,,,,,,,,,,,,,,,,,,,,,,,,,,,,,,,,,,,,,,,,,,,
298081,2022-11-29_09h40.53.875,vts_reward_expectancy_bt,2022.2.4,Win32,59.97001499,Chrome,1211,808,,,,,,,,,,,,,,,,,,,,,,,,,,,,,,,,,,,,,,,,,,,,,,,,,,,,,,,,,,,,,,,,,,,,,,,,,,,,
298081,2022-11-29_09h40.53.875,vts_reward_expectancy_bt,2022.2.4,Win32,59.97001499,Chrome,1211,808,,,l,4.4187,1,1,0,0,0,0,7,1,0,0,1,0,0,1,0,0,hexagon,circle,,,,,,,,,,,,,,,,,,,,,,,,,,,,,,,,,,,,,,,,,,,,,,,,,,,,,,
298081,2022-11-29_09h40.53.875,vts_reward_expectancy_bt,2022.2.4,Win32,59.97001499,Chrome,1211,808,,,l,2.9363,10,11,0,0,1,1,3,1,0,1,0,0,1,0,0,0,circle,triangle,,,,,,,,,,,,,,,,,,,,,,,,,,,,,,,,,,,,,,,,,,,,,,,,,,,,,,
298081,2022-11-29_09h40.53.875,vts_reward_expectancy_bt,2022.2.4,Win32,59.97001499,Chrome,1211,808,,,l,11.0037,1,12,0,0,2,2,10,1,0,0,0,1,0,1,0,0,star ,circle,,,,,,,,,,,,,,,,,,,,,,,,,,,,,,,,,,,,,,,,,,,,,,,,,,,,,,
298081,2022-11-29_09h40.53.875,vts_reward_expectancy_bt,2022.2.4,Win32,59.97001499,Chrome,1211,808,,,l,1.081,1,13,0,0,3,3,8,1,0,0,1,0,0,0,0,1,hexagon,star,,,,,,,,,,,,,,,,,,,,,,,,,,,,,,,,,,,,,,,,,,,,,,,,,,,,,,
298081,2022-11-29_09h40.53.875,vts_reward_expectancy_bt,2022.2.4,Win32,59.97001499,Chrome,1211,808,,,l,3.8824,10,23,0,0,4,4,9,1,0,0,0,1,1,0,0,0,star,triangle,,,,,,,,,,,,,,,,,,,,,,,,,,,,,,,,,,,,,,,,,,,,,,,,,,,,,,
298081,2022-11-29_09h40.53.875,vts_reward_expectancy_bt,2022.2.4,Win32,59.97001499,Chrome,1211,808,,,l,2.1355,10,33,0,0,5,5,6,1,0,0,1,0,1,0,0,0,hexagon,triangle,,,,,,,,,,,,,,,,,,,,,,,,,,,,,,,,,,,,,,,,,,,,,,,,,,,,,,
298081,2022-11-29_09h40.53.875,vts_reward_expectancy_bt,2022.2.4,Win32,59.97001499,Chrome,1211,808,,,l,0.6561,1,34,0,0,6,6,2,1,1,0,0,0,0,0,0,1,triangle,star,,,,,,,,,,,,,,,,,,,,,,,,,,,,,,,,,,,,,,,,,,,,,,,,,,,,,,
298081,2022-11-29_09h40.53.875,vts_reward_expectancy_bt,2022.2.4,Win32,59.97001499,Chrome,1211,808,,,l,1.9694,10,44,0,0,7,7,11,1,0,0,0,1,0,0,1,0,star,hexagon,,,,,,,,,,,,,,,,,,,,,,,,,,,,,,,,,,,,,,,,,,,,,,,,,,,,,,
298081,2022-11-29_09h40.53.875,vts_reward_expectancy_bt,2022.2.4,Win32,59.97001499,Chrome,1211,808,,,l,1.0675,1,45,0,0,8,8,4,1,0,1,0,0,0,0,1,0,circle,hexagon,,,,,,,,,,,,,,,,,,,,,,,,,,,,,,,,,,,,,,,,,,,,,,,,,,,,,,
298081,2022-11-29_09h40.53.875,vts_reward_expectancy_bt,2022.2.4,Win32,59.97001499,Chrome,1211,808,,,l,0.6146,10,55,0,0,9,9,1,1,1,0,0,0,0,0,1,0,triangle,hexagon,,,,,,,,,,,,,,,,,,,,,,,,,,,,,,,,,,,,,,,,,,,,,,,,,,,,,,
298081,2022-11-29_09h40.53.875,vts_reward_expectancy_bt,2022.2.4,Win32,59.97001499,Chrome,1211,808,,,l,0.55,1,56,0,0,10,10,5,1,0,1,0,0,0,0,0,1,circle,star,,,,,,,,,,,,,,,,,,,,,,,,,,,,,,,,,,,,,,,,,,,,,,,,,,,,,,
298081,2022-11-29_09h40.53.875,vts_reward_expectancy_bt,2022.2.4,Win32,59.97001499,Chrome,1211,808,,,l,0.5289,1,57,0,0,11,11,0,1,1,0,0,0,0,1,0,0,triangle,circle,,,,,,,,,,,,,,,,,,,,,,,,,,,,,,,,,,,,,,,,,,,,,,,,,,,,,,
298081,2022-11-29_09h40.53.875,vts_reward_expectancy_bt,2022.2.4,Win32,59.97001499,Chrome,1211,808,,,l,0.2607,1,58,0,1,0,12,0,1,1,0,0,0,0,1,0,0,triangle,circle,,,,,,,,,,,,,,,,,,,,,,,,,,,,,,,,,,,,,,,,,,,,,,,,,,,,,,
298081,2022-11-29_09h40.53.875,vts_reward_expectancy_bt,2022.2.4,Win32,59.97001499,Chrome,1211,808,,,l,4.2146,10,68,0,1,1,13,6,1,0,0,1,0,1,0,0,0,hexagon,triangle,,,,,,,,,,,,,,,,,,,,,,,,,,,,,,,,,,,,,,,,,,,,,,,,,,,,,,
298081,2022-11-29_09h40.53.875,vts_reward_expectancy_bt,2022.2.4,Win32,59.97001499,Chrome,1211,808,,,l,0.5347,1,69,0,1,2,14,11,1,0,0,0,1,0,0,1,0,star,hexagon,,,,,,,,,,,,,,,,,,,,,,,,,,,,,,,,,,,,,,,,,,,,,,,,,,,,,,
298081,2022-11-29_09h40.53.875,vts_reward_expectancy_bt,2022.2.4,Win32,59.97001499,Chrome,1211,808,,,l,0.3012,1,70,0,1,3,15,10,1,0,0,0,1,0,1,0,0,star ,circle,,,,,,,,,,,,,,,,,,,,,,,,,,,,,,,,,,,,,,,,,,,,,,,,,,,,,,
298081,2022-11-29_09h40.53.875,vts_reward_expectancy_bt,2022.2.4,Win32,59.97001499,Chrome,1211,808,,,l,0.2741,10,80,0,1,4,16,1,1,1,0,0,0,0,0,1,0,triangle,hexagon,,,,,,,,,,,,,,,,,,,,,,,,,,,,,,,,,,,,,,,,,,,,,,,,,,,,,,
298081,2022-11-29_09h40.53.875,vts_reward_expectancy_bt,2022.2.4,Win32,59.97001499,Chrome,1211,808,,,l,0.1854,1,81,0,1,5,17,2,1,1,0,0,0,0,0,0,1,triangle,star,,,,,,,,,,,,,,,,,,,,,,,,,,,,,,,,,,,,,,,,,,,,,,,,,,,,,,
298081,2022-11-29_09h40.53.875,vts_reward_expectancy_bt,2022.2.4,Win32,59.97001499,Chrome,1211,808,,,l,0.2335,10,91,0,1,6,18,3,1,0,1,0,0,1,0,0,0,circle,triangle,,,,,,,,,,,,,,,,,,,,,,,,,,,,,,,,,,,,,,,,,,,,,,,,,,,,,,
298081,2022-11-29_09h40.53.875,vts_reward_expectancy_bt,2022.2.4,Win32,59.97001499,Chrome,1211,808,,,l,0.169,10,101,0,1,7,19,4,1,0,1,0,0,0,0,1,0,circle,hexagon,,,,,,,,,,,,,,,,,,,,,,,,,,,,,,,,,,,,,,,,,,,,,,,,,,,,,,
298081,2022-11-29_09h40.53.875,vts_reward_expectancy_bt,2022.2.4,Win32,59.97001499,Chrome,1211,808,,,l,0.2674,10,111,0,1,8,20,5,1,0,1,0,0,0,0,0,1,circle,star,,,,,,,,,,,,,,,,,,,,,,,,,,,,,,,,,,,,,,,,,,,,,,,,,,,,,,
298081,2022-11-29_09h40.53.875,vts_reward_expectancy_bt,2022.2.4,Win32,59.97001499,Chrome,1211,808,,,l,0.2671,1,112,0,1,9,21,7,1,0,0,1,0,0,1,0,0,hexagon,circle,,,,,,,,,,,,,,,,,,,,,,,,,,,,,,,,,,,,,,,,,,,,,,,,,,,,,,
298081,2022-11-29_09h40.53.875,vts_reward_expectancy_bt,2022.2.4,Win32,59.97001499,Chrome,1211,808,,,l,0.2699,1,113,0,1,10,22,8,1,0,0,1,0,0,0,0,1,hexagon,star,,,,,,,,,,,,,,,,,,,,,,,,,,,,,,,,,,,,,,,,,,,,,,,,,,,,,,
298081,2022-11-29_09h40.53.875,vts_reward_expectancy_bt,2022.2.4,Win32,59.97001499,Chrome,1211,808,,,l,0.2499,1,114,0,1,11,23,9,1,0,0,0,1,1,0,0,0,star,triangle,,,,,,,,,,,,,,,,,,,,,,,,,,,,,,,,,,,,,,,,,,,,,,,,,,,,,,
298081,2022-11-29_09h40.53.875,vts_reward_expectancy_bt,2022.2.4,Win32,59.97001499,Chrome,1211,808,,,l,0.2063,10,124,0,2,0,24,1,1,1,0,0,0,0,0,1,0,triangle,hexagon,,,,,,,,,,,,,,,,,,,,,,,,,,,,,,,,,,,,,,,,,,,,,,,,,,,,,,
298081,2022-11-29_09h40.53.875,vts_reward_expectancy_bt,2022.2.4,Win32,59.97001499,Chrome,1211,808,,,l,0.2863,1,125,0,2,1,25,0,1,1,0,0,0,0,1,0,0,triangle,circle,,,,,,,,,,,,,,,,,,,,,,,,,,,,,,,,,,,,,,,,,,,,,,,,,,,,,,
298081,2022-11-29_09h40.53.875,vts_reward_expectancy_bt,2022.2.4,Win32,59.97001499,Chrome,1211,808,,,l,0.2544,1,126,0,2,2,26,5,1,0,1,0,0,0,0,0,1,circle,star,,,,,,,,,,,,,,,,,,,,,,,,,,,,,,,,,,,,,,,,,,,,,,,,,,,,,,
298081,2022-11-29_09h40.53.875,vts_reward_expectancy_bt,2022.2.4,Win32,59.97001499,Chrome,1211,808,,,l,0.2672,10,136,0,2,3,27,10,1,0,0,0,1,0,1,0,0,star ,circle,,,,,,,,,,,,,,,,,,,,,,,,,,,,,,,,,,,,,,,,,,,,,,,,,,,,,,
298081,2022-11-29_09h40.53.875,vts_reward_expectancy_bt,2022.2.4,Win32,59.97001499,Chrome,1211,808,,,l,0.2007,10,146,0,2,4,28,6,1,0,0,1,0,1,0,0,0,hexagon,triangle,,,,,,,,,,,,,,,,,,,,,,,,,,,,,,,,,,,,,,,,,,,,,,,,,,,,,,
298081,2022-11-29_09h40.53.875,vts_reward_expectancy_bt,2022.2.4,Win32,59.97001499,Chrome,1211,808,,,l,0.2672,10,156,0,2,5,29,9,1,0,0,0,1,1,0,0,0,star,triangle,,,,,,,,,,,,,,,,,,,,,,,,,,,,,,,,,,,,,,,,,,,,,,,,,,,,,,
298081,2022-11-29_09h40.53.875,vts_reward_expectancy_bt,2022.2.4,Win32,59.97001499,Chrome,1211,808,,,l,1.1682,10,166,0,2,6,30,7,1,0,0,1,0,0,1,0,0,hexagon,circle,,,,,,,,,,,,,,,,,,,,,,,,,,,,,,,,,,,,,,,,,,,,,,,,,,,,,,
298081,2022-11-29_09h40.53.875,vts_reward_expectancy_bt,2022.2.4,Win32,59.97001499,Chrome,1211,808,,,l,0.2351,10,176,0,2,7,31,11,1,0,0,0,1,0,0,1,0,star,hexagon,,,,,,,,,,,,,,,,,,,,,,,,,,,,,,,,,,,,,,,,,,,,,,,,,,,,,,
298081,2022-11-29_09h40.53.875,vts_reward_expectancy_bt,2022.2.4,Win32,59.97001499,Chrome,1211,808,,,l,0.2175,1,177,0,2,8,32,2,1,1,0,0,0,0,0,0,1,triangle,star,,,,,,,,,,,,,,,,,,,,,,,,,,,,,,,,,,,,,,,,,,,,,,,,,,,,,,
298081,2022-11-29_09h40.53.875,vts_reward_expectancy_bt,2022.2.4,Win32,59.97001499,Chrome,1211,808,,,l,0.6369,10,187,0,2,9,33,8,1,0,0,1,0,0,0,0,1,hexagon,star,,,,,,,,,,,,,,,,,,,,,,,,,,,,,,,,,,,,,,,,,,,,,,,,,,,,,,
298081,2022-11-29_09h40.53.875,vts_reward_expectancy_bt,2022.2.4,Win32,59.97001499,Chrome,1211,808,,,l,0.2653,10,197,0,2,10,34,3,1,0,1,0,0,1,0,0,0,circle,triangle,,,,,,,,,,,,,,,,,,,,,,,,,,,,,,,,,,,,,,,,,,,,,,,,,,,,,,
298081,2022-11-29_09h40.53.875,vts_reward_expectancy_bt,2022.2.4,Win32,59.97001499,Chrome,1211,808,,,l,0.1525,10,207,0,2,11,35,4,1,0,1,0,0,0,0,1,0,circle,hexagon,,,,,,,,,,,,,,,,,,,,,,,,,,,,,,,,,,,,,,,,,,,,,,,,,,,,,,
298081,2022-11-29_09h40.53.875,vts_reward_expectancy_bt,2022.2.4,Win32,59.97001499,Chrome,1211,808,,,a,0.876,10,217,1,0,0,0,6,1,0,0,1,0,1,0,0,0,hexagon,triangle,,,,,,,,,,,,,,,,,,,,,,,,,,,,,,,,,,,,,,,,,,,,,,,,,,,,,,
298081,2022-11-29_09h40.53.875,vts_reward_expectancy_bt,2022.2.4,Win32,59.97001499,Chrome,1211,808,,,l,0.7184,1,218,1,0,1,1,8,1,0,0,1,0,0,0,0,1,hexagon,star,,,,,,,,,,,,,,,,,,,,,,,,,,,,,,,,,,,,,,,,,,,,,,,,,,,,,,
298081,2022-11-29_09h40.53.875,vts_reward_expectancy_bt,2022.2.4,Win32,59.97001499,Chrome,1211,808,,,a,1.0014,10,228,1,0,2,2,0,1,1,0,0,0,0,1,0,0,triangle,circle,,,,,,,,,,,,,,,,,,,,,,,,,,,,,,,,,,,,,,,,,,,,,,,,,,,,,,
298081,2022-11-29_09h40.53.875,vts_reward_expectancy_bt,2022.2.4,Win32,59.97001499,Chrome,1211,808,,,a,0.75,10,238,1,0,3,3,3,1,0,1,0,0,1,0,0,0,circle,triangle,,,,,,,,,,,,,,,,,,,,,,,,,,,,,,,,,,,,,,,,,,,,,,,,,,,,,,
298081,2022-11-29_09h40.53.875,vts_reward_expectancy_bt,2022.2.4,Win32,59.97001499,Chrome,1211,808,,,l,1.0509,10,248,1,0,4,4,4,1,0,1,0,0,0,0,1,0,circle,hexagon,,,,,,,,,,,,,,,,,,,,,,,,,,,,,,,,,,,,,,,,,,,,,,,,,,,,,,
298081,2022-11-29_09h40.53.875,vts_reward_expectancy_bt,2022.2.4,Win32,59.97001499,Chrome,1211,808,,,l,0.947,1,249,1,0,5,5,10,1,0,0,0,1,0,1,0,0,star ,circle,,,,,,,,,,,,,,,,,,,,,,,,,,,,,,,,,,,,,,,,,,,,,,,,,,,,,,
298081,2022-11-29_09h40.53.875,vts_reward_expectancy_bt,2022.2.4,Win32,59.97001499,Chrome,1211,808,,,a,0.6888,1,250,1,0,6,6,11,1,0,0,0,1,0,0,1,0,star,hexagon,,,,,,,,,,,,,,,,,,,,,,,,,,,,,,,,,,,,,,,,,,,,,,,,,,,,,,
298081,2022-11-29_09h40.53.875,vts_reward_expectancy_bt,2022.2.4,Win32,59.97001499,Chrome,1211,808,,,a,1.552,1,251,1,0,7,7,7,1,0,0,1,0,0,1,0,0,hexagon,circle,,,,,,,,,,,,,,,,,,,,,,,,,,,,,,,,,,,,,,,,,,,,,,,,,,,,,,
298081,2022-11-29_09h40.53.875,vts_reward_expectancy_bt,2022.2.4,Win32,59.97001499,Chrome,1211,808,,,l,0.9694,1,252,1,0,8,8,5,1,0,1,0,0,0,0,0,1,circle,star,,,,,,,,,,,,,,,,,,,,,,,,,,,,,,,,,,,,,,,,,,,,,,,,,,,,,,
298081,2022-11-29_09h40.53.875,vts_reward_expectancy_bt,2022.2.4,Win32,59.97001499,Chrome,1211,808,,,l,2.5364,10,262,1,0,9,9,1,1,1,0,0,0,0,0,1,0,triangle,hexagon,,,,,,,,,,,,,,,,,,,,,,,,,,,,,,,,,,,,,,,,,,,,,,,,,,,,,,
298081,2022-11-29_09h40.53.875,vts_reward_expectancy_bt,2022.2.4,Win32,59.97001499,Chrome,1211,808,,,a,1.7521,10,272,1,0,10,10,2,1,1,0,0,0,0,0,0,1,triangle,star,,,,,,,,,,,,,,,,,,,,,,,,,,,,,,,,,,,,,,,,,,,,,,,,,,,,,,
298081,2022-11-29_09h40.53.875,vts_reward_expectancy_bt,2022.2.4,Win32,59.97001499,Chrome,1211,808,,,a,1.1075,1,273,1,0,11,11,9,1,0,0,0,1,1,0,0,0,star,triangle,,,,,,,,,,,,,,,,,,,,,,,,,,,,,,,,,,,,,,,,,,,,,,,,,,,,,,
298081,2022-11-29_09h40.53.875,vts_reward_expectancy_bt,2022.2.4,Win32,59.97001499,Chrome,1211,808,,,l,3.0184,10,283,1,1,0,12,4,1,0,1,0,0,0,0,1,0,circle,hexagon,,,,,,,,,,,,,,,,,,,,,,,,,,,,,,,,,,,,,,,,,,,,,,,,,,,,,,
298081,2022-11-29_09h40.53.875,vts_reward_expectancy_bt,2022.2.4,Win32,59.97001499,Chrome,1211,808,,,l,1.8853,10,293,1,1,1,13,1,1,1,0,0,0,0,0,1,0,triangle,hexagon,,,,,,,,,,,,,,,,,,,,,,,,,,,,,,,,,,,,,,,,,,,,,,,,,,,,,,
298081,2022-11-29_09h40.53.875,vts_reward_expectancy_bt,2022.2.4,Win32,59.97001499,Chrome,1211,808,,,a,0.9522,10,303,1,1,2,14,10,1,0,0,0,1,0,1,0,0,star ,circle,,,,,,,,,,,,,,,,,,,,,,,,,,,,,,,,,,,,,,,,,,,,,,,,,,,,,,
298081,2022-11-29_09h40.53.875,vts_reward_expectancy_bt,2022.2.4,Win32,59.97001499,Chrome,1211,808,,,a,1.1083,10,313,1,1,3,15,2,1,1,0,0,0,0,0,0,1,triangle,star,,,,,,,,,,,,,,,,,,,,,,,,,,,,,,,,,,,,,,,,,,,,,,,,,,,,,,
298081,2022-11-29_09h40.53.875,vts_reward_expectancy_bt,2022.2.4,Win32,59.97001499,Chrome,1211,808,,,a,3.0687,10,323,1,1,4,16,0,1,1,0,0,0,0,1,0,0,triangle,circle,,,,,,,,,,,,,,,,,,,,,,,,,,,,,,,,,,,,,,,,,,,,,,,,,,,,,,
298081,2022-11-29_09h40.53.875,vts_reward_expectancy_bt,2022.2.4,Win32,59.97001499,Chrome,1211,808,,,l,1.7687,10,333,1,1,5,17,8,1,0,0,1,0,0,0,0,1,hexagon,star,,,,,,,,,,,,,,,,,,,,,,,,,,,,,,,,,,,,,,,,,,,,,,,,,,,,,,
298081,2022-11-29_09h40.53.875,vts_reward_expectancy_bt,2022.2.4,Win32,59.97001499,Chrome,1211,808,,,l,1.5187,10,343,1,1,6,18,3,1,0,1,0,0,1,0,0,0,circle,triangle,,,,,,,,,,,,,,,,,,,,,,,,,,,,,,,,,,,,,,,,,,,,,,,,,,,,,,
298081,2022-11-29_09h40.53.875,vts_reward_expectancy_bt,2022.2.4,Win32,59.97001499,Chrome,1211,808,,,l,3.3602,10,353,1,1,7,19,6,1,0,0,1,0,1,0,0,0,hexagon,triangle,,,,,,,,,,,,,,,,,,,,,,,,,,,,,,,,,,,,,,,,,,,,,,,,,,,,,,
298081,2022-11-29_09h40.53.875,vts_reward_expectancy_bt,2022.2.4,Win32,59.97001499,Chrome,1211,808,,,a,1.635,10,363,1,1,8,20,11,1,0,0,0,1,0,0,1,0,star,hexagon,,,,,,,,,,,,,,,,,,,,,,,,,,,,,,,,,,,,,,,,,,,,,,,,,,,,,,
298081,2022-11-29_09h40.53.875,vts_reward_expectancy_bt,2022.2.4,Win32,59.97001499,Chrome,1211,808,,,a,2.5013,10,373,1,1,9,21,5,1,0,1,0,0,0,0,0,1,circle,star,,,,,,,,,,,,,,,,,,,,,,,,,,,,,,,,,,,,,,,,,,,,,,,,,,,,,,
298081,2022-11-29_09h40.53.875,vts_reward_expectancy_bt,2022.2.4,Win32,59.97001499,Chrome,1211,808,,,a,1.842,10,383,1,1,10,22,7,1,0,0,1,0,0,1,0,0,hexagon,circle,,,,,,,,,,,,,,,,,,,,,,,,,,,,,,,,,,,,,,,,,,,,,,,,,,,,,,
298081,2022-11-29_09h40.53.875,vts_reward_expectancy_bt,2022.2.4,Win32,59.97001499,Chrome,1211,808,,,a,2.2521,1,384,1,1,11,23,9,1,0,0,0,1,1,0,0,0,star,triangle,,,,,,,,,,,,,,,,,,,,,,,,,,,,,,,,,,,,,,,,,,,,,,,,,,,,,,
298081,2022-11-29_09h40.53.875,vts_reward_expectancy_bt,2022.2.4,Win32,59.97001499,Chrome,1211,808,,,l,2.4254,10,394,1,2,0,24,6,1,0,0,1,0,1,0,0,0,hexagon,triangle,,,,,,,,,,,,,,,,,,,,,,,,,,,,,,,,,,,,,,,,,,,,,,,,,,,,,,
298081,2022-11-29_09h40.53.875,vts_reward_expectancy_bt,2022.2.4,Win32,59.97001499,Chrome,1211,808,,,a,2.0687,10,404,1,2,1,25,8,1,0,0,1,0,0,0,0,1,hexagon,star,,,,,,,,,,,,,,,,,,,,,,,,,,,,,,,,,,,,,,,,,,,,,,,,,,,,,,
298081,2022-11-29_09h40.53.875,vts_reward_expectancy_bt,2022.2.4,Win32,59.97001499,Chrome,1211,808,,,a,2.493,1,405,1,2,2,26,1,1,1,0,0,0,0,0,1,0,triangle,hexagon,,,,,,,,,,,,,,,,,,,,,,,,,,,,,,,,,,,,,,,,,,,,,,,,,,,,,,
298081,2022-11-29_09h40.53.875,vts_reward_expectancy_bt,2022.2.4,Win32,59.97001499,Chrome,1211,808,,,l,0.7493,10,415,1,2,3,27,0,1,1,0,0,0,0,1,0,0,triangle,circle,,,,,,,,,,,,,,,,,,,,,,,,,,,,,,,,,,,,,,,,,,,,,,,,,,,,,,
298081,2022-11-29_09h40.53.875,vts_reward_expectancy_bt,2022.2.4,Win32,59.97001499,Chrome,1211,808,,,l,1.1349,1,416,1,2,4,28,5,1,0,1,0,0,0,0,0,1,circle,star,,,,,,,,,,,,,,,,,,,,,,,,,,,,,,,,,,,,,,,,,,,,,,,,,,,,,,
298081,2022-11-29_09h40.53.875,vts_reward_expectancy_bt,2022.2.4,Win32,59.97001499,Chrome,1211,808,,,a,0.6686,1,417,1,2,5,29,4,1,0,1,0,0,0,0,1,0,circle,hexagon,,,,,,,,,,,,,,,,,,,,,,,,,,,,,,,,,,,,,,,,,,,,,,,,,,,,,,
298081,2022-11-29_09h40.53.875,vts_reward_expectancy_bt,2022.2.4,Win32,59.97001499,Chrome,1211,808,,,l,0.3353,10,427,1,2,6,30,11,1,0,0,0,1,0,0,1,0,star,hexagon,,,,,,,,,,,,,,,,,,,,,,,,,,,,,,,,,,,,,,,,,,,,,,,,,,,,,,
298081,2022-11-29_09h40.53.875,vts_reward_expectancy_bt,2022.2.4,Win32,59.97001499,Chrome,1211,808,,,a,1.5381,10,437,1,2,7,31,2,1,1,0,0,0,0,0,0,1,triangle,star,,,,,,,,,,,,,,,,,,,,,,,,,,,,,,,,,,,,,,,,,,,,,,,,,,,,,,
298081,2022-11-29_09h40.53.875,vts_reward_expectancy_bt,2022.2.4,Win32,59.97001499,Chrome,1211,808,,,l,1.6852,10,447,1,2,8,32,3,1,0,1,0,0,1,0,0,0,circle,triangle,,,,,,,,,,,,,,,,,,,,,,,,,,,,,,,,,,,,,,,,,,,,,,,,,,,,,,
298081,2022-11-29_09h40.53.875,vts_reward_expectancy_bt,2022.2.4,Win32,59.97001499,Chrome,1211,808,,,l,1.4682,1,448,1,2,9,33,10,1,0,0,0,1,0,1,0,0,star ,circle,,,,,,,,,,,,,,,,,,,,,,,,,,,,,,,,,,,,,,,,,,,,,,,,,,,,,,
298081,2022-11-29_09h40.53.875,vts_reward_expectancy_bt,2022.2.4,Win32,59.97001499,Chrome,1211,808,,,a,1.1521,10,458,1,2,10,34,7,1,0,0,1,0,0,1,0,0,hexagon,circle,,,,,,,,,,,,,,,,,,,,,,,,,,,,,,,,,,,,,,,,,,,,,,,,,,,,,,
298081,2022-11-29_09h40.53.875,vts_reward_expectancy_bt,2022.2.4,Win32,59.97001499,Chrome,1211,808,,,a,1.1585,1,459,1,2,11,35,9,1,0,0,0,1,1,0,0,0,star,triangle,,,,,,,,,,,,,,,,,,,,,,,,,,,,,,,,,,,,,,,,,,,,,,,,,,,,,,
298081,2022-11-29_09h40.53.875,vts_reward_expectancy_bt,2022.2.4,Win32,59.97001499,Chrome,1211,808,,,a,1.4684,10,469,2,0,0,0,7,1,0,0,1,0,0,1,0,0,hexagon,circle,,,,,,,,,,,,,,,,,,,,,,,,,,,,,,,,,,,,,,,,,,,,,,,,,,,,,,
298081,2022-11-29_09h40.53.875,vts_reward_expectancy_bt,2022.2.4,Win32,59.97001499,Chrome,1211,808,,,a,0.9688,10,479,2,0,1,1,8,1,0,0,1,0,0,0,0,1,hexagon,star,,,,,,,,,,,,,,,,,,,,,,,,,,,,,,,,,,,,,,,,,,,,,,,,,,,,,,
298081,2022-11-29_09h40.53.875,vts_reward_expectancy_bt,2022.2.4,Win32,59.97001499,Chrome,1211,808,,,l,2.6687,10,489,2,0,2,2,4,1,0,1,0,0,0,0,1,0,circle,hexagon,,,,,,,,,,,,,,,,,,,,,,,,,,,,,,,,,,,,,,,,,,,,,,,,,,,,,,
298081,2022-11-29_09h40.53.875,vts_reward_expectancy_bt,2022.2.4,Win32,59.97001499,Chrome,1211,808,,,a,1.6861,10,499,2,0,3,3,1,1,1,0,0,0,0,0,1,0,triangle,hexagon,,,,,,,,,,,,,,,,,,,,,,,,,,,,,,,,,,,,,,,,,,,,,,,,,,,,,,
298081,2022-11-29_09h40.53.875,vts_reward_expectancy_bt,2022.2.4,Win32,59.97001499,Chrome,1211,808,,,l,4.5368,10,509,2,0,4,4,3,1,0,1,0,0,1,0,0,0,circle,triangle,,,,,,,,,,,,,,,,,,,,,,,,,,,,,,,,,,,,,,,,,,,,,,,,,,,,,,
298081,2022-11-29_09h40.53.875,vts_reward_expectancy_bt,2022.2.4,Win32,59.97001499,Chrome,1211,808,,,a,1.0841,10,519,2,0,5,5,0,1,1,0,0,0,0,1,0,0,triangle,circle,,,,,,,,,,,,,,,,,,,,,,,,,,,,,,,,,,,,,,,,,,,,,,,,,,,,,,
298081,2022-11-29_09h40.53.875,vts_reward_expectancy_bt,2022.2.4,Win32,59.97001499,Chrome,1211,808,,,a,1.2024,10,529,2,0,6,6,10,1,0,0,0,1,0,1,0,0,star ,circle,,,,,,,,,,,,,,,,,,,,,,,,,,,,,,,,,,,,,,,,,,,,,,,,,,,,,,
298081,2022-11-29_09h40.53.875,vts_reward_expectancy_bt,2022.2.4,Win32,59.97001499,Chrome,1211,808,,,l,1.5392,10,539,2,0,7,7,6,1,0,0,1,0,1,0,0,0,hexagon,triangle,,,,,,,,,,,,,,,,,,,,,,,,,,,,,,,,,,,,,,,,,,,,,,,,,,,,,,
298081,2022-11-29_09h40.53.875,vts_reward_expectancy_bt,2022.2.4,Win32,59.97001499,Chrome,1211,808,,,a,4.0702,1,540,2,0,8,8,11,1,0,0,0,1,0,0,1,0,star,hexagon,,,,,,,,,,,,,,,,,,,,,,,,,,,,,,,,,,,,,,,,,,,,,,,,,,,,,,
298081,2022-11-29_09h40.53.875,vts_reward_expectancy_bt,2022.2.4,Win32,59.97001499,Chrome,1211,808,,,l,0.9528,10,550,2,0,9,9,2,1,1,0,0,0,0,0,0,1,triangle,star,,,,,,,,,,,,,,,,,,,,,,,,,,,,,,,,,,,,,,,,,,,,,,,,,,,,,,
298081,2022-11-29_09h40.53.875,vts_reward_expectancy_bt,2022.2.4,Win32,59.97001499,Chrome,1211,808,,,l,3.6868,10,560,2,0,10,10,9,1,0,0,0,1,1,0,0,0,star,triangle,,,,,,,,,,,,,,,,,,,,,,,,,,,,,,,,,,,,,,,,,,,,,,,,,,,,,,
298081,2022-11-29_09h40.53.875,vts_reward_expectancy_bt,2022.2.4,Win32,59.97001499,Chrome,1211,808,,,a,1.6504,1,561,2,0,11,11,5,1,0,1,0,0,0,0,0,1,circle,star,,,,,,,,,,,,,,,,,,,,,,,,,,,,,,,,,,,,,,,,,,,,,,,,,,,,,,
298081,2022-11-29_09h40.53.875,vts_reward_expectancy_bt,2022.2.4,Win32,59.97001499,Chrome,1211,808,,,l,3.5202,10,571,2,1,0,12,1,1,1,0,0,0,0,0,1,0,triangle,hexagon,,,,,,,,,,,,,,,,,,,,,,,,,,,,,,,,,,,,,,,,,,,,,,,,,,,,,,
298081,2022-11-29_09h40.53.875,vts_reward_expectancy_bt,2022.2.4,Win32,59.97001499,Chrome,1211,808,,,l,1.2175,1,572,2,1,1,13,2,1,1,0,0,0,0,0,0,1,triangle,star,,,,,,,,,,,,,,,,,,,,,,,,,,,,,,,,,,,,,,,,,,,,,,,,,,,,,,
298081,2022-11-29_09h40.53.875,vts_reward_expectancy_bt,2022.2.4,Win32,59.97001499,Chrome,1211,808,,,a,0.5669,1,573,2,1,2,14,10,1,0,0,0,1,0,1,0,0,star ,circle,,,,,,,,,,,,,,,,,,,,,,,,,,,,,,,,,,,,,,,,,,,,,,,,,,,,,,
298081,2022-11-29_09h40.53.875,vts_reward_expectancy_bt,2022.2.4,Win32,59.97001499,Chrome,1211,808,,,l,0.2368,10,583,2,1,3,15,9,1,0,0,0,1,1,0,0,0,star,triangle,,,,,,,,,,,,,,,,,,,,,,,,,,,,,,,,,,,,,,,,,,,,,,,,,,,,,,
298081,2022-11-29_09h40.53.875,vts_reward_expectancy_bt,2022.2.4,Win32,59.97001499,Chrome,1211,808,,,l,0.3007,10,593,2,1,4,16,6,1,0,0,1,0,1,0,0,0,hexagon,triangle,,,,,,,,,,,,,,,,,,,,,,,,,,,,,,,,,,,,,,,,,,,,,,,,,,,,,,
298081,2022-11-29_09h40.53.875,vts_reward_expectancy_bt,2022.2.4,Win32,59.97001499,Chrome,1211,808,,,l,0.9255,10,603,2,1,5,17,8,1,0,0,1,0,0,0,0,1,hexagon,star,,,,,,,,,,,,,,,,,,,,,,,,,,,,,,,,,,,,,,,,,,,,,,,,,,,,,,
298081,2022-11-29_09h40.53.875,vts_reward_expectancy_bt,2022.2.4,Win32,59.97001499,Chrome,1211,808,,,a,0.7674,1,604,2,1,6,18,4,1,0,1,0,0,0,0,1,0,circle,hexagon,,,,,,,,,,,,,,,,,,,,,,,,,,,,,,,,,,,,,,,,,,,,,,,,,,,,,,
298081,2022-11-29_09h40.53.875,vts_reward_expectancy_bt,2022.2.4,Win32,59.97001499,Chrome,1211,808,,,l,0.3179,1,605,2,1,7,19,7,1,0,0,1,0,0,1,0,0,hexagon,circle,,,,,,,,,,,,,,,,,,,,,,,,,,,,,,,,,,,,,,,,,,,,,,,,,,,,,,
298081,2022-11-29_09h40.53.875,vts_reward_expectancy_bt,2022.2.4,Win32,59.97001499,Chrome,1211,808,,,a,0.3508,1,606,2,1,8,20,0,1,1,0,0,0,0,1,0,0,triangle,circle,,,,,,,,,,,,,,,,,,,,,,,,,,,,,,,,,,,,,,,,,,,,,,,,,,,,,,
298081,2022-11-29_09h40.53.875,vts_reward_expectancy_bt,2022.2.4,Win32,59.97001499,Chrome,1211,808,,,a,1.2554,1,607,2,1,9,21,11,1,0,0,0,1,0,0,1,0,star,hexagon,,,,,,,,,,,,,,,,,,,,,,,,,,,,,,,,,,,,,,,,,,,,,,,,,,,,,,
298081,2022-11-29_09h40.53.875,vts_reward_expectancy_bt,2022.2.4,Win32,59.97001499,Chrome,1211,808,,,l,0.5501,1,608,2,1,10,22,5,1,0,1,0,0,0,0,0,1,circle,star,,,,,,,,,,,,,,,,,,,,,,,,,,,,,,,,,,,,,,,,,,,,,,,,,,,,,,
298081,2022-11-29_09h40.53.875,vts_reward_expectancy_bt,2022.2.4,Win32,59.97001499,Chrome,1211,808,,,a,0.433,1,609,2,1,11,23,3,1,0,1,0,0,1,0,0,0,circle,triangle,,,,,,,,,,,,,,,,,,,,,,,,,,,,,,,,,,,,,,,,,,,,,,,,,,,,,,
298081,2022-11-29_09h40.53.875,vts_reward_expectancy_bt,2022.2.4,Win32,59.97001499,Chrome,1211,808,,,l,0.2004,10,619,2,2,0,24,11,1,0,0,0,1,0,0,1,0,star,hexagon,,,,,,,,,,,,,,,,,,,,,,,,,,,,,,,,,,,,,,,,,,,,,,,,,,,,,,
298081,2022-11-29_09h40.53.875,vts_reward_expectancy_bt,2022.2.4,Win32,59.97001499,Chrome,1211,808,,,l,0.2511,1,620,2,2,1,25,0,1,1,0,0,0,0,1,0,0,triangle,circle,,,,,,,,,,,,,,,,,,,,,,,,,,,,,,,,,,,,,,,,,,,,,,,,,,,,,,
298081,2022-11-29_09h40.53.875,vts_reward_expectancy_bt,2022.2.4,Win32,59.97001499,Chrome,1211,808,,,a,0.2676,1,621,2,2,2,26,4,1,0,1,0,0,0,0,1,0,circle,hexagon,,,,,,,,,,,,,,,,,,,,,,,,,,,,,,,,,,,,,,,,,,,,,,,,,,,,,,
298081,2022-11-29_09h40.53.875,vts_reward_expectancy_bt,2022.2.4,Win32,59.97001499,Chrome,1211,808,,,l,0.2719,10,631,2,2,3,27,1,1,1,0,0,0,0,0,1,0,triangle,hexagon,,,,,,,,,,,,,,,,,,,,,,,,,,,,,,,,,,,,,,,,,,,,,,,,,,,,,,
298081,2022-11-29_09h40.53.875,vts_reward_expectancy_bt,2022.2.4,Win32,59.97001499,Chrome,1211,808,,,l,0.2838,1,632,2,2,4,28,10,1,0,0,0,1,0,1,0,0,star ,circle,,,,,,,,,,,,,,,,,,,,,,,,,,,,,,,,,,,,,,,,,,,,,,,,,,,,,,
298081,2022-11-29_09h40.53.875,vts_reward_expectancy_bt,2022.2.4,Win32,59.97001499,Chrome,1211,808,,,a,0.2502,10,642,2,2,5,29,8,1,0,0,1,0,0,0,0,1,hexagon,star,,,,,,,,,,,,,,,,,,,,,,,,,,,,,,,,,,,,,,,,,,,,,,,,,,,,,,
298081,2022-11-29_09h40.53.875,vts_reward_expectancy_bt,2022.2.4,Win32,59.97001499,Chrome,1211,808,,,a,0.2845,10,652,2,2,6,30,2,1,1,0,0,0,0,0,0,1,triangle,star,,,,,,,,,,,,,,,,,,,,,,,,,,,,,,,,,,,,,,,,,,,,,,,,,,,,,,
298081,2022-11-29_09h40.53.875,vts_reward_expectancy_bt,2022.2.4,Win32,59.97001499,Chrome,1211,808,,,a,0.2839,1,653,2,2,7,31,3,1,0,1,0,0,1,0,0,0,circle,triangle,,,,,,,,,,,,,,,,,,,,,,,,,,,,,,,,,,,,,,,,,,,,,,,,,,,,,,
298081,2022-11-29_09h40.53.875,vts_reward_expectancy_bt,2022.2.4,Win32,59.97001499,Chrome,1211,808,,,l,0.3346,10,663,2,2,8,32,7,1,0,0,1,0,0,1,0,0,hexagon,circle,,,,,,,,,,,,,,,,,,,,,,,,,,,,,,,,,,,,,,,,,,,,,,,,,,,,,,
298081,2022-11-29_09h40.53.875,vts_reward_expectancy_bt,2022.2.4,Win32,59.97001499,Chrome,1211,808,,,l,0.3349,10,673,2,2,9,33,6,1,0,0,1,0,1,0,0,0,hexagon,triangle,,,,,,,,,,,,,,,,,,,,,,,,,,,,,,,,,,,,,,,,,,,,,,,,,,,,,,
298081,2022-11-29_09h40.53.875,vts_reward_expectancy_bt,2022.2.4,Win32,59.97001499,Chrome,1211,808,,,l,0.2678,10,683,2,2,10,34,9,1,0,0,0,1,1,0,0,0,star,triangle,,,,,,,,,,,,,,,,,,,,,,,,,,,,,,,,,,,,,,,,,,,,,,,,,,,,,,
298081,2022-11-29_09h40.53.875,vts_reward_expectancy_bt,2022.2.4,Win32,59.97001499,Chrome,1211,808,,,l,0.2557,1,684,2,2,11,35,5,1,0,1,0,0,0,0,0,1,circle,star,,,,,,,,,,,,,,,,,,,,,,,,,,,,,,,,,,,,,,,,,,,,,,,,,,,,,,
298081,2022-11-29_09h40.53.875,vts_reward_expectancy_bt,2022.2.4,Win32,59.97001499,Chrome,1211,808,,,,,,,,,,,,,,,,,,,,,,,U,139,circle,1,0,f,2.1525,0,0,0,0,0,1,,,,,,,,,,,,,,,,,,,,,,,,,,,,,,,,,,,,,,,,,
298081,2022-11-29_09h40.53.875,vts_reward_expectancy_bt,2022.2.4,Win32,59.97001499,Chrome,1211,808,,,,,,,,,,,,,,,,,,,,,,,H,146,star,1,0,d,2.0351,0,1,0,1,0,1,,,,,,,,,,,,,,,,,,,,,,,,,,,,,,,,,,,,,,,,,
298081,2022-11-29_09h40.53.875,vts_reward_expectancy_bt,2022.2.4,Win32,59.97001499,Chrome,1211,808,,,,,,,,,,,,,,,,,,,,,,,F,174,hexagon,1,0,d,0.7017,0,2,0,2,0,1,,,,,,,,,,,,,,,,,,,,,,,,,,,,,,,,,,,,,,,,,
298081,2022-11-29_09h40.53.875,vts_reward_expectancy_bt,2022.2.4,Win32,59.97001499,Chrome,1211,808,,,,,,,,,,,,,,,,,,,,,,,B,181,triangle,1,0,d,0.6227,0,3,0,3,0,1,,,,,,,,,,,,,,,,,,,,,,,,,,,,,,,,,,,,,,,,,
298081,2022-11-29_09h40.53.875,vts_reward_expectancy_bt,2022.2.4,Win32,59.97001499,Chrome,1211,808,,,,,,,,,,,,,,,,,,,,,,,D,167,circle,1,0,d,0.5337,0,4,0,4,0,1,,,,,,,,,,,,,,,,,,,,,,,,,,,,,,,,,,,,,,,,,
298081,2022-11-29_09h40.53.875,vts_reward_expectancy_bt,2022.2.4,Win32,59.97001499,Chrome,1211,808,,,,,,,,,,,,,,,,,,,,,,,W,160,star,1,0,f,0.6351,0,5,0,5,0,1,,,,,,,,,,,,,,,,,,,,,,,,,,,,,,,,,,,,,,,,,
298081,2022-11-29_09h40.53.875,vts_reward_expectancy_bt,2022.2.4,Win32,59.97001499,Chrome,1211,808,,,,,,,,,,,,,,,,,,,,,,,Y,125,hexagon,1,0,f,0.5337,0,6,0,6,0,1,,,,,,,,,,,,,,,,,,,,,,,,,,,,,,,,,,,,,,,,,
298081,2022-11-29_09h40.53.875,vts_reward_expectancy_bt,2022.2.4,Win32,59.97001499,Chrome,1211,808,,,,,,,,,,,,,,,,,,,,,,,S,132,triangle,1,0,f,0.4835,0,7,0,7,0,1,,,,,,,,,,,,,,,,,,,,,,,,,,,,,,,,,,,,,,,,,
298081,2022-11-29_09h40.53.875,vts_reward_expectancy_bt,2022.2.4,Win32,59.97001499,Chrome,1211,808,,,,,,,,,,,,,,,,,,,,,,,U,139,triangle,1,0,f,0.5201,0,8,0,8,0,1,,,,,,,,,,,,,,,,,,,,,,,,,,,,,,,,,,,,,,,,,
298081,2022-11-29_09h40.53.875,vts_reward_expectancy_bt,2022.2.4,Win32,59.97001499,Chrome,1211,808,,,,,,,,,,,,,,,,,,,,,,,H,146,star,1,0,d,0.6009,0,9,0,9,0,1,,,,,,,,,,,,,,,,,,,,,,,,,,,,,,,,,,,,,,,,,
298081,2022-11-29_09h40.53.875,vts_reward_expectancy_bt,2022.2.4,Win32,59.97001499,Chrome,1211,808,,,,,,,,,,,,,,,,,,,,,,,D,174,hexagon,1,0,,,1,,,,,,k,0.9696,0,0,0,0,1,,,,,,,,,,,,,,,,,,,,,,,,,,,,,,,,,,
298081,2022-11-29_09h40.53.875,vts_reward_expectancy_bt,2022.2.4,Win32,59.97001499,Chrome,1211,808,,,,,,,,,,,,,,,,,,,,,,,W,132,triangle,1,0,,,1,,,,,,j,0.5508,1,0,1,0,1,,,,,,,,,,,,,,,,,,,,,,,,,,,,,,,,,,
298081,2022-11-29_09h40.53.875,vts_reward_expectancy_bt,2022.2.4,Win32,59.97001499,Chrome,1211,808,,,,,,,,,,,,,,,,,,,,,,,H,139,star,1,0,,,1,,,,,,j,0.601,2,0,2,0,1,,,,,,,,,,,,,,,,,,,,,,,,,,,,,,,,,,
298081,2022-11-29_09h40.53.875,vts_reward_expectancy_bt,2022.2.4,Win32,59.97001499,Chrome,1211,808,,,,,,,,,,,,,,,,,,,,,,,Y,181,circle,1,0,,,1,,,,,,k,0.7504,3,0,3,0,1,,,,,,,,,,,,,,,,,,,,,,,,,,,,,,,,,,
298081,2022-11-29_09h40.53.875,vts_reward_expectancy_bt,2022.2.4,Win32,59.97001499,Chrome,1211,808,,,,,,,,,,,,,,,,,,,,,,,F,167,hexagon,1,0,,,1,,,,,,k,0.737,4,0,4,0,1,,,,,,,,,,,,,,,,,,,,,,,,,,,,,,,,,,
298081,2022-11-29_09h40.53.875,vts_reward_expectancy_bt,2022.2.4,Win32,59.97001499,Chrome,1211,808,,,,,,,,,,,,,,,,,,,,,,,S,146,triangle,1,0,,,1,,,,,,j,1.4381,5,0,5,0,1,,,,,,,,,,,,,,,,,,,,,,,,,,,,,,,,,,
298081,2022-11-29_09h40.53.875,vts_reward_expectancy_bt,2022.2.4,Win32,59.97001499,Chrome,1211,808,,,,,,,,,,,,,,,,,,,,,,,B,160,star,1,0,,,1,,,,,,k,0.7176,6,0,6,0,1,,,,,,,,,,,,,,,,,,,,,,,,,,,,,,,,,,
298081,2022-11-29_09h40.53.875,vts_reward_expectancy_bt,2022.2.4,Win32,59.97001499,Chrome,1211,808,,,,,,,,,,,,,,,,,,,,,,,U,125,circle,1,0,,,1,,,,,,j,0.5351,7,0,7,0,1,,,,,,,,,,,,,,,,,,,,,,,,,,,,,,,,,,
298081,2022-11-29_09h40.53.875,vts_reward_expectancy_bt,2022.2.4,Win32,59.97001499,Chrome,1211,808,,,,,,,,,,,,,,,,,,,,,,,D,174,circle,1,0,,,1,,,,,,k,0.3856,8,0,8,0,1,,,,,,,,,,,,,,,,,,,,,,,,,,,,,,,,,,
298081,2022-11-29_09h40.53.875,vts_reward_expectancy_bt,2022.2.4,Win32,59.97001499,Chrome,1211,808,,,,,,,,,,,,,,,,,,,,,,,W,132,triangle,1,0,,,1,,,,,,j,0.7344,9,0,9,0,1,,,,,,,,,,,,,,,,,,,,,,,,,,,,,,,,,,
298081,2022-11-29_09h40.53.875,vts_reward_expectancy_bt,2022.2.4,Win32,59.97001499,Chrome,1211,808,,,,,0,684,,,,,,,,,,,,,,,,,H,181,circle,1,0,,,2,,,,,,,,,,,,,-1,letter,NA,d,1.0725,vtsPrac,0,0,0,0,1,,,,,,,,,,,,,,,,,,,,,,,
298081,2022-11-29_09h40.53.875,vts_reward_expectancy_bt,2022.2.4,Win32,59.97001499,Chrome,1211,808,,,,,0,684,,,,,,,,,,,,,,,,,Y,167,star,-1,0,,,2,,,,,,,,,,,,,switch,no_choice,NA,,,vtsPrac,1,0,1,0,1,,,,,,,,,,,,,,,,,,,,,,,
298081,2022-11-29_09h40.53.875,vts_reward_expectancy_bt,2022.2.4,Win32,59.97001499,Chrome,1211,808,,,,,0,684,,,,,,,,,,,,,,,,,U,125,circle,1,0,,,2,,,,,,,,,,,,,switch,number,numSwt,j,0.7351,vtsPrac,2,0,2,0,1,,,,,,,,,,,,,,,,,,,,,,,
298081,2022-11-29_09h40.53.875,vts_reward_expectancy_bt,2022.2.4,Win32,59.97001499,Chrome,1211,808,,,,,0,684,,,,,,,,,,,,,,,,,B,174,star,1,0,,,2,,,,,,,,,,,,,switch,letter,lettSwt,d,0.7676,vtsPrac,3,0,3,0,1,,,,,,,,,,,,,,,,,,,,,,,
298081,2022-11-29_09h40.53.875,vts_reward_expectancy_bt,2022.2.4,Win32,59.97001499,Chrome,1211,808,,,,,0,684,,,,,,,,,,,,,,,,,H,181,star,1,0,,,2,,,,,,,,,,,,,repeat,letter,lettRpt,d,0.7008,vtsPrac,4,0,4,0,1,,,,,,,,,,,,,,,,,,,,,,,
298081,2022-11-29_09h40.53.875,vts_reward_expectancy_bt,2022.2.4,Win32,59.97001499,Chrome,1211,808,,,,,0,684,,,,,,,,,,,,,,,,,Y,167,triangle,1,0,,,2,,,,,,,,,,,,,repeat,letter,lettRpt,f,0.5841,vtsPrac,5,0,5,0,1,,,,,,,,,,,,,,,,,,,,,,,
298081,2022-11-29_09h40.53.875,vts_reward_expectancy_bt,2022.2.4,Win32,59.97001499,Chrome,1211,808,,,,,0,684,,,,,,,,,,,,,,,,,U,125,triangle,1,0,,,2,,,,,,,,,,,,,switch,number,numSwt,j,0.6044,vtsPrac,6,0,6,0,1,,,,,,,,,,,,,,,,,,,,,,,
298081,2022-11-29_09h40.53.875,vts_reward_expectancy_bt,2022.2.4,Win32,59.97001499,Chrome,1211,808,,,,,0,684,,,,,,,,,,,,,,,,,B,174,hexagon,1,0,,,2,,,,,,,,,,,,,repeat,number,numRpt,k,0.5335,vtsPrac,7,0,7,0,1,,,,,,,,,,,,,,,,,,,,,,,
298081,2022-11-29_09h40.53.875,vts_reward_expectancy_bt,2022.2.4,Win32,59.97001499,Chrome,1211,808,,,,,0,684,,,,,,,,,,,,,,,,,Y,181,hexagon,1,0,,,2,,,,,,,,,,,,,switch,letter,lettSwt,f,0.7677,vtsPrac,8,0,8,0,1,,,,,,,,,,,,,,,,,,,,,,,
298081,2022-11-29_09h40.53.875,vts_reward_expectancy_bt,2022.2.4,Win32,59.97001499,Chrome,1211,808,,,,,0,684,,,,,,,,,,,,,,,,,F,132,star,1,0,,,2,,,,,,,,,,,,,repeat,letter,lettRpt,d,0.7541,vtsPrac,9,0,9,0,1,,,,,,,,,,,,,,,,,,,,,,,
298081,2022-11-29_09h40.53.875,vts_reward_expectancy_bt,2022.2.4,Win32,59.97001499,Chrome,1211,808,,,,,0,684,,,,,,,,,,,,,,,,,U,160,circle,1,0,,,2,,,,,,,,,,,,,switch,number,numSwt,k,0.7187,vtsPrac,10,0,10,0,1,,,,,,,,,,,,,,,,,,,,,,,
298081,2022-11-29_09h40.53.875,vts_reward_expectancy_bt,2022.2.4,Win32,59.97001499,Chrome,1211,808,,,,,0,684,,,,,,,,,,,,,,,,,W,146,hexagon,0,0,,,2,,,,,,,,,,,,,repeat,number,NA,k,0.4341,vtsPrac,11,0,11,0,1,,,,,,,,,,,,,,,,,,,,,,,
298081,2022-11-29_09h40.53.875,vts_reward_expectancy_bt,2022.2.4,Win32,59.97001499,Chrome,1211,808,,,,,0,684,,,,,,,,,,,,,,,,,F,139,triangle,1,1,,,2,,,,,,,,,,,,,repeat,number,numRpt,j,0.7505,vtsPrac,12,0,12,0,1,,,,,,,,,,,,,,,,,,,,,,,
298081,2022-11-29_09h40.53.875,vts_reward_expectancy_bt,2022.2.4,Win32,59.97001499,Chrome,1211,808,,,,,0,684,,,,,,,,,,,,,,,,,Y,181,circle,1,0,,,2,,,,,,,,,,,,,repeat,number,numRpt,k,0.851,vtsPrac,13,0,13,0,1,,,,,,,,,,,,,,,,,,,,,,,
298081,2022-11-29_09h40.53.875,vts_reward_expectancy_bt,2022.2.4,Win32,59.97001499,Chrome,1211,808,,,,,0,684,,,,,,,,,,,,,,,,,S,146,circle,1,0,,,2,,,,,,,,,,,,,repeat,number,numRpt,j,0.9335,vtsPrac,14,0,14,0,1,,,,,,,,,,,,,,,,,,,,,,,
298081,2022-11-29_09h40.53.875,vts_reward_expectancy_bt,2022.2.4,Win32,59.97001499,Chrome,1211,808,,,,,0,684,,,,,,,,,,,,,,,,,U,160,star,1,0,,,2,,,,,,,,,,,,,switch,letter,lettSwt,f,0.7172,vtsPrac,15,0,15,0,1,,,,,,,,,,,,,,,,,,,,,,,
298081,2022-11-29_09h40.53.875,vts_reward_expectancy_bt,2022.2.4,Win32,59.97001499,Chrome,1211,808,,,,,0,684,,,,,,,,,,,,,,,,,W,167,circle,1,0,,,2,,,,,,,,,,,,,switch,number,numSwt,k,0.9411,vtsPrac,16,0,16,0,1,,,,,,,,,,,,,,,,,,,,,,,
298081,2022-11-29_09h40.53.875,vts_reward_expectancy_bt,2022.2.4,Win32,59.97001499,Chrome,1211,808,,,,,0,684,,,,,,,,,,,,,,,,,H,132,triangle,1,0,,,2,,,,,,,,,,,,,repeat,number,numRpt,j,1.0012,vtsPrac,17,0,17,0,1,,,,,,,,,,,,,,,,,,,,,,,
298081,2022-11-29_09h40.53.875,vts_reward_expectancy_bt,2022.2.4,Win32,59.97001499,Chrome,1211,808,,,,,0,684,,,,,,,,,,,,,,,,,D,174,star,1,0,,,2,,,,,,,,,,,,,switch,letter,lettSwt,d,0.9191,vtsPrac,18,0,18,0,1,,,,,,,,,,,,,,,,,,,,,,,
298081,2022-11-29_09h40.53.875,vts_reward_expectancy_bt,2022.2.4,Win32,59.97001499,Chrome,1211,808,,,,,0,684,,,,,,,,,,,,,,,,,U,181,triangle,1,0,,,2,,,,,,,,,,,,,switch,number,numSwt,k,0.7861,vtsPrac,19,0,19,0,1,,,,,,,,,,,,,,,,,,,,,,,
298081,2022-11-29_09h40.53.875,vts_reward_expectancy_bt,2022.2.4,Win32,59.97001499,Chrome,1211,808,,,,,0,684,,,,,,,,,,,,,,,,,D,132,circle,1,0,,,2,,,,,,,,,,,,,repeat,number,numRpt,j,0.735,vtsPrac,20,0,20,0,1,,,,,,,,,,,,,,,,,,,,,,,
298081,2022-11-29_09h40.53.875,vts_reward_expectancy_bt,2022.2.4,Win32,59.97001499,Chrome,1211,808,,,,,0,684,,,,,,,,,,,,,,,,,H,139,star,1,0,,,2,,,,,,,,,,,,,switch,letter,lettSwt,d,0.7185,vtsPrac,21,0,21,0,1,,,,,,,,,,,,,,,,,,,,,,,
298081,2022-11-29_09h40.53.875,vts_reward_expectancy_bt,2022.2.4,Win32,59.97001499,Chrome,1211,808,,,,,0,684,,,,,,,,,,,,,,,,,F,181,hexagon,1,0,,,2,,,,,,,,,,,,,repeat,letter,lettRpt,d,0.8064,vtsPrac,22,0,22,0,1,,,,,,,,,,,,,,,,,,,,,,,
298081,2022-11-29_09h40.53.875,vts_reward_expectancy_bt,2022.2.4,Win32,59.97001499,Chrome,1211,808,,,,,0,684,,,,,,,,,,,,,,,,,B,146,triangle,1,0,,,2,,,,,,,,,,,,,repeat,letter,lettRpt,d,0.8185,vtsPrac,23,0,23,0,1,,,,,,,,,,,,,,,,,,,,,,,
298081,2022-11-29_09h40.53.875,vts_reward_expectancy_bt,2022.2.4,Win32,59.97001499,Chrome,1211,808,,,,,0,684,,,,,,,,,,,,,,,,,H,125,hexagon,1,0,,,2,,,,,,,,,,,,,switch,number,numSwt,j,1.5524,vtsPrac,24,0,24,0,1,,,,,,,,,,,,,,,,,,,,,,,
298081,2022-11-29_09h40.53.875,vts_reward_expectancy_bt,2022.2.4,Win32,59.97001499,Chrome,1211,808,,,,,0,684,,,,,,,,,,,,,,,,,W,146,circle,1,0,,,2,,,,,,,,,,,,,switch,letter,lettSwt,f,1.5685,vtsPrac,25,0,25,0,1,,,,,,,,,,,,,,,,,,,,,,,
298081,2022-11-29_09h40.53.875,vts_reward_expectancy_bt,2022.2.4,Win32,59.97001499,Chrome,1211,808,,,,,0,684,,,,,,,,,,,,,,,,,Y,139,triangle,1,0,,,2,,,,,,,,,,,,,switch,number,numSwt,j,0.668,vtsPrac,26,0,26,0,1,,,,,,,,,,,,,,,,,,,,,,,
298081,2022-11-29_09h40.53.875,vts_reward_expectancy_bt,2022.2.4,Win32,59.97001499,Chrome,1211,808,,,,,0,684,,,,,,,,,,,,,,,,,U,181,hexagon,1,0,,,2,,,,,,,,,,,,,switch,letter,lettSwt,f,0.7353,vtsPrac,27,0,27,0,1,,,,,,,,,,,,,,,,,,,,,,,
298081,2022-11-29_09h40.53.875,vts_reward_expectancy_bt,2022.2.4,Win32,59.97001499,Chrome,1211,808,,,,,0,684,,,,,,,,,,,,,,,,,Y,146,hexagon,1,0,,,2,,,,,,,,,,,,,repeat,letter,lettRpt,f,0.6011,vtsPrac,28,0,28,0,1,,,,,,,,,,,,,,,,,,,,,,,
298081,2022-11-29_09h40.53.875,vts_reward_expectancy_bt,2022.2.4,Win32,59.97001499,Chrome,1211,808,,,,,0,684,,,,,,,,,,,,,,,,,S,125,star,1,0,,,2,,,,,,,,,,,,,repeat,letter,lettRpt,f,0.7016,vtsPrac,29,0,29,0,1,,,,,,,,,,,,,,,,,,,,,,,
298081,2022-11-29_09h40.53.875,vts_reward_expectancy_bt,2022.2.4,Win32,59.97001499,Chrome,1211,808,,,,,0,684,,,,,,,,,,,,,,,,,W,132,star,1,0,,,2,,,,,,,,,,,,,repeat,letter,lettRpt,f,0.4999,vtsPrac,30,0,30,0,1,,,,,,,,,,,,,,,,,,,,,,,
298081,2022-11-29_09h40.53.875,vts_reward_expectancy_bt,2022.2.4,Win32,59.97001499,Chrome,1211,808,,,,,0,684,,,,,,,,,,,,,,,,,H,181,triangle,0,0,,,2,,,,,,,,,,,,,repeat,letter,NA,f,0.6226,vtsPrac,31,0,31,0,1,,,,,,,,,,,,,,,,,,,,,,,
298081,2022-11-29_09h40.53.875,vts_reward_expectancy_bt,2022.2.4,Win32,59.97001499,Chrome,1211,808,,,,,,,,,,,,,,,,,,,,,,,,,,,,,,,,,,,,,,,,,,,,,,,,,,,,,,,,,,,,,,,,,,,,,,,,,,,,
298081,2022-11-29_09h40.53.875,vts_reward_expectancy_bt,2022.2.4,Win32,59.97001499,Chrome,1211,808,,,,,,,,,,,,,,,,,,,,,,,,,,,,,,,,,,,,,,,,,,,,,,,,,,,,,,,,,,,,,,,,,,,,,,,,,,,,
298081,2022-11-29_09h40.53.875,vts_reward_expectancy_bt,2022.2.4,Win32,59.97001499,Chrome,1211,808,,,,,0,684,,,,,,,,,,,,,,,,,F,174,star,1,1,,,,,,,,,,,,,,,,repeat,letter,lettRpt,d,0.5822,noRew,,,,,,0,0,0,0,0,1,,,,,,,,,,,,,,,,,
298081,2022-11-29_09h40.53.875,vts_reward_expectancy_bt,2022.2.4,Win32,59.97001499,Chrome,1211,808,,,,,0,684,,,,,,,,,,,,,,,,,U,125,circle,0,0,,,,,,,,,,,,,,,,switch,number,NA,k,0.4672,noRew,,,,,,0,1,0,1,0,1,,,,,,,,,,,,,,,,,
298081,2022-11-29_09h40.53.875,vts_reward_expectancy_bt,2022.2.4,Win32,59.97001499,Chrome,1211,808,,,,,0,684,,,,,,,,,,,,,,,,,W,146,star,0,1,,,,,,,,,,,,,,,,switch,letter,NA,d,0.6841,noRew,,,,,,0,2,0,2,0,1,,,,,,,,,,,,,,,,,
298081,2022-11-29_09h40.53.875,vts_reward_expectancy_bt,2022.2.4,Win32,59.97001499,Chrome,1211,808,,,,,0,684,,,,,,,,,,,,,,,,,D,160,circle,1,1,,,,,,,,,,,,,,,,repeat,letter,lettRpt,d,0.6013,noRew,,,,,,0,3,0,3,0,1,,,,,,,,,,,,,,,,,
298081,2022-11-29_09h40.53.875,vts_reward_expectancy_bt,2022.2.4,Win32,59.97001499,Chrome,1211,808,,,,,0,684,,,,,,,,,,,,,,,,,F,174,star,1,0,,,,,,,,,,,,,,,,switch,number,numSwt,k,0.6677,noRew,,,,,,0,4,0,4,0,1,,,,,,,,,,,,,,,,,
298081,2022-11-29_09h40.53.875,vts_reward_expectancy_bt,2022.2.4,Win32,59.97001499,Chrome,1211,808,,,,,0,684,,,,,,,,,,,,,,,,,U,125,triangle,1,0,,,,,,,,,,,,,,,,switch,letter,lettSwt,f,0.6541,noRew,,,,,,0,5,0,5,0,1,,,,,,,,,,,,,,,,,
298081,2022-11-29_09h40.53.875,vts_reward_expectancy_bt,2022.2.4,Win32,59.97001499,Chrome,1211,808,,,,,0,684,,,,,,,,,,,,,,,,,W,146,star,1,0,,,,,,,,,,,,,,,,switch,number,numSwt,j,0.8176,noRew,,,,,,0,6,0,6,0,1,,,,,,,,,,,,,,,,,
298081,2022-11-29_09h40.53.875,vts_reward_expectancy_bt,2022.2.4,Win32,59.97001499,Chrome,1211,808,,,,,0,684,,,,,,,,,,,,,,,,,D,160,hexagon,1,0,,,,,,,,,,,,,,,,repeat,number,numRpt,k,0.9548,noRew,,,,,,0,7,0,7,0,1,,,,,,,,,,,,,,,,,
298081,2022-11-29_09h40.53.875,vts_reward_expectancy_bt,2022.2.4,Win32,59.97001499,Chrome,1211,808,,,,,0,684,,,,,,,,,,,,,,,,,U,125,hexagon,1,0,,,,,,,,,,,,,,,,switch,letter,lettSwt,f,0.5508,noRew,,,,,,0,8,0,8,0,1,,,,,,,,,,,,,,,,,
298081,2022-11-29_09h40.53.875,vts_reward_expectancy_bt,2022.2.4,Win32,59.97001499,Chrome,1211,808,,,,,0,684,,,,,,,,,,,,,,,,,H,160,triangle,1,0,,,,,,,,,,,,,,,,repeat,letter,lettRpt,d,0.5712,noRew,,,,,,0,9,0,9,0,1,,,,,,,,,,,,,,,,,
298081,2022-11-29_09h40.53.875,vts_reward_expectancy_bt,2022.2.4,Win32,59.97001499,Chrome,1211,808,,,,,0,684,,,,,,,,,,,,,,,,,D,174,triangle,1,0,,,,,,,,,,,,,,,,switch,number,numSwt,k,0.8512,noRew,,,,,,0,10,0,10,0,1,,,,,,,,,,,,,,,,,
298081,2022-11-29_09h40.53.875,vts_reward_expectancy_bt,2022.2.4,Win32,59.97001499,Chrome,1211,808,,,,,0,684,,,,,,,,,,,,,,,,,S,139,hexagon,1,0,,,,,,,,,,,,,,,,repeat,number,numRpt,j,1.1017,noRew,,,,,,0,11,0,11,0,1,,,,,,,,,,,,,,,,,
298081,2022-11-29_09h40.53.875,vts_reward_expectancy_bt,2022.2.4,Win32,59.97001499,Chrome,1211,808,,,,,0,684,,,,,,,,,,,,,,,,,Y,181,star,1,0,,,,,,,,,,,,,,,,switch,letter,lettSwt,f,0.5844,noRew,,,,,,0,12,0,12,0,1,,,,,,,,,,,,,,,,,
298081,2022-11-29_09h40.53.875,vts_reward_expectancy_bt,2022.2.4,Win32,59.97001499,Chrome,1211,808,,,,,0,684,,,,,,,,,,,,,,,,,D,132,circle,1,0,,,,,,,,,,,,,,,,repeat,letter,lettRpt,d,0.6351,noRew,,,,,,0,13,0,13,0,1,,,,,,,,,,,,,,,,,
298081,2022-11-29_09h40.53.875,vts_reward_expectancy_bt,2022.2.4,Win32,59.97001499,Chrome,1211,808,,,,,0,684,,,,,,,,,,,,,,,,,B,139,circle,1,0,,,,,,,,,,,,,,,,switch,number,numSwt,j,0.7022,noRew,,,,,,0,14,0,14,0,1,,,,,,,,,,,,,,,,,
298081,2022-11-29_09h40.53.875,vts_reward_expectancy_bt,2022.2.4,Win32,59.97001499,Chrome,1211,808,,,,,0,684,,,,,,,,,,,,,,,,,F,174,star,1,0,,,,,,,,,,,,,,,,switch,letter,lettSwt,d,0.4999,noRew,,,,,,0,15,0,15,0,1,,,,,,,,,,,,,,,,,
298081,2022-11-29_09h40.53.875,vts_reward_expectancy_bt,2022.2.4,Win32,59.97001499,Chrome,1211,808,,,,,0,684,,,,,,,,,,,,,,,,,H,125,hexagon,1,0,,,,,,,,,,,,,,,,switch,number,numSwt,j,0.7505,noRew,,,,,,0,16,0,16,0,1,,,,,,,,,,,,,,,,,
298081,2022-11-29_09h40.53.875,vts_reward_expectancy_bt,2022.2.4,Win32,59.97001499,Chrome,1211,808,,,,,0,684,,,,,,,,,,,,,,,,,U,139,triangle,1,0,,,,,,,,,,,,,,,,switch,letter,lettSwt,f,0.8506,noRew,,,,,,0,17,0,17,0,1,,,,,,,,,,,,,,,,,
298081,2022-11-29_09h40.53.875,vts_reward_expectancy_bt,2022.2.4,Win32,59.97001499,Chrome,1211,808,,,,,0,684,,,,,,,,,,,,,,,,,B,181,star,1,0,,,,,,,,,,,,,,,,switch,number,numSwt,k,0.7386,noRew,,,,,,0,18,0,18,0,1,,,,,,,,,,,,,,,,,
298081,2022-11-29_09h40.53.875,vts_reward_expectancy_bt,2022.2.4,Win32,59.97001499,Chrome,1211,808,,,,,0,684,,,,,,,,,,,,,,,,,F,160,triangle,1,0,,,,,,,,,,,,,,,,switch,letter,lettSwt,d,0.751,noRew,,,,,,0,19,0,19,0,1,,,,,,,,,,,,,,,,,
298081,2022-11-29_09h40.53.875,vts_reward_expectancy_bt,2022.2.4,Win32,59.97001499,Chrome,1211,808,,,,,0,684,,,,,,,,,,,,,,,,,Y,160,triangle,1,0,,,,,,,,,,,,,,,,repeat,letter,lettRpt,f,0.9025,noRew,,,,,,0,20,0,20,0,1,,,,,,,,,,,,,,,,,
298081,2022-11-29_09h40.53.875,vts_reward_expectancy_bt,2022.2.4,Win32,59.97001499,Chrome,1211,808,,,,,0,684,,,,,,,,,,,,,,,,,W,146,hexagon,1,0,,,,,,,,,,,,,,,,repeat,letter,lettRpt,f,0.8351,noRew,,,,,,0,21,0,21,0,1,,,,,,,,,,,,,,,,,
298081,2022-11-29_09h40.53.875,vts_reward_expectancy_bt,2022.2.4,Win32,59.97001499,Chrome,1211,808,,,,,0,684,,,,,,,,,,,,,,,,,S,174,hexagon,1,0,,,,,,,,,,,,,,,,repeat,letter,lettRpt,f,1.1021,noRew,,,,,,0,22,0,22,0,1,,,,,,,,,,,,,,,,,
298081,2022-11-29_09h40.53.875,vts_reward_expectancy_bt,2022.2.4,Win32,59.97001499,Chrome,1211,808,,,,,0,684,,,,,,,,,,,,,,,,,H,125,circle,1,0,,,,,,,,,,,,,,,,switch,number,numSwt,j,0.5175,noRew,,,,,,0,23,0,23,0,1,,,,,,,,,,,,,,,,,
298081,2022-11-29_09h40.53.875,vts_reward_expectancy_bt,2022.2.4,Win32,59.97001499,Chrome,1211,808,,,,,0,684,,,,,,,,,,,,,,,,,B,132,triangle,1,0,,,,,,,,,,,,,,,,repeat,number,numRpt,j,0.6176,noRew,,,,,,0,24,0,24,0,1,,,,,,,,,,,,,,,,,
298081,2022-11-29_09h40.53.875,vts_reward_expectancy_bt,2022.2.4,Win32,59.97001499,Chrome,1211,808,,,,,0,684,,,,,,,,,,,,,,,,,S,167,circle,0,0,,,,,,,,,,,,,,,,repeat,number,NA,j,0.422,noRew,,,,,,0,25,0,25,0,1,,,,,,,,,,,,,,,,,
298081,2022-11-29_09h40.53.875,vts_reward_expectancy_bt,2022.2.4,Win32,59.97001499,Chrome,1211,808,,,,,0,684,,,,,,,,,,,,,,,,,F,146,triangle,1,1,,,,,,,,,,,,,,,,repeat,number,numRpt,j,0.99,noRew,,,,,,0,26,0,26,0,1,,,,,,,,,,,,,,,,,
298081,2022-11-29_09h40.53.875,vts_reward_expectancy_bt,2022.2.4,Win32,59.97001499,Chrome,1211,808,,,,,0,684,,,,,,,,,,,,,,,,,W,181,star,1,0,,,,,,,,,,,,,,,,repeat,number,numRpt,k,1.2181,noRew,,,,,,0,27,0,27,0,1,,,,,,,,,,,,,,,,,
298081,2022-11-29_09h40.53.875,vts_reward_expectancy_bt,2022.2.4,Win32,59.97001499,Chrome,1211,808,,,,,0,684,,,,,,,,,,,,,,,,,F,181,hexagon,1,0,,,,,,,,,,,,,,,,repeat,number,numRpt,k,0.6845,noRew,,,,,,0,28,0,28,0,1,,,,,,,,,,,,,,,,,
298081,2022-11-29_09h40.53.875,vts_reward_expectancy_bt,2022.2.4,Win32,59.97001499,Chrome,1211,808,,,,,0,684,,,,,,,,,,,,,,,,,Y,125,star,1,0,,,,,,,,,,,,,,,,repeat,number,numRpt,j,0.785,noRew,,,,,,0,29,0,29,0,1,,,,,,,,,,,,,,,,,
298081,2022-11-29_09h40.53.875,vts_reward_expectancy_bt,2022.2.4,Win32,59.97001499,Chrome,1211,808,,,,,0,684,,,,,,,,,,,,,,,,,S,174,hexagon,1,0,,,,,,,,,,,,,,,,repeat,number,numRpt,k,0.6003,noRew,,,,,,0,30,0,30,0,1,,,,,,,,,,,,,,,,,
298081,2022-11-29_09h40.53.875,vts_reward_expectancy_bt,2022.2.4,Win32,59.97001499,Chrome,1211,808,,,,,0,684,,,,,,,,,,,,,,,,,H,160,star,0,0,,,,,,,,,,,,,,,,repeat,number,NA,j,0.9516,noRew,,,,,,0,31,0,31,0,1,,,,,,,,,,,,,,,,,
298081,2022-11-29_09h40.53.875,vts_reward_expectancy_bt,2022.2.4,Win32,59.97001499,Chrome,1211,808,,,,,0,684,,,,,,,,,,,,,,,,,D,181,star,1,1,,,,,,,,,,,,,,,,switch,letter,lettSwt,d,0.3859,noRew,,,,,,0,32,0,32,0,1,,,,,,,,,,,,,,,,,
298081,2022-11-29_09h40.53.875,vts_reward_expectancy_bt,2022.2.4,Win32,59.97001499,Chrome,1211,808,,,,,0,684,,,,,,,,,,,,,,,,,B,132,hexagon,1,0,,,,,,,,,,,,,,,,repeat,letter,lettRpt,d,0.6357,noRew,,,,,,0,33,0,33,0,1,,,,,,,,,,,,,,,,,
298081,2022-11-29_09h40.53.875,vts_reward_expectancy_bt,2022.2.4,Win32,59.97001499,Chrome,1211,808,,,,,0,684,,,,,,,,,,,,,,,,,F,174,hexagon,1,0,,,,,,,,,,,,,,,,repeat,letter,lettRpt,d,0.653,noRew,,,,,,0,34,0,34,0,1,,,,,,,,,,,,,,,,,
298081,2022-11-29_09h40.53.875,vts_reward_expectancy_bt,2022.2.4,Win32,59.97001499,Chrome,1211,808,,,,,0,684,,,,,,,,,,,,,,,,,W,125,star,1,0,,,,,,,,,,,,,,,,repeat,letter,lettRpt,f,0.7679,noRew,,,,,,0,35,0,35,0,1,,,,,,,,,,,,,,,,,
298081,2022-11-29_09h40.53.875,vts_reward_expectancy_bt,2022.2.4,Win32,59.97001499,Chrome,1211,808,,,,,0,684,,,,,,,,,,,,,,,,,F,125,hexagon,1,0,,,,,,,,,,,,,,,,repeat,letter,lettRpt,d,0.6179,noRew,,,,,,0,36,0,36,0,1,,,,,,,,,,,,,,,,,
298081,2022-11-29_09h40.53.875,vts_reward_expectancy_bt,2022.2.4,Win32,59.97001499,Chrome,1211,808,,,,,0,684,,,,,,,,,,,,,,,,,W,139,star,1,0,,,,,,,,,,,,,,,,repeat,letter,lettRpt,f,0.6679,noRew,,,,,,0,37,0,37,0,1,,,,,,,,,,,,,,,,,
298081,2022-11-29_09h40.53.875,vts_reward_expectancy_bt,2022.2.4,Win32,59.97001499,Chrome,1211,808,,,,,0,684,,,,,,,,,,,,,,,,,H,167,triangle,1,0,,,,,,,,,,,,,,,,repeat,letter,lettRpt,d,0.853,noRew,,,,,,0,38,0,38,0,1,,,,,,,,,,,,,,,,,
298081,2022-11-29_09h40.53.875,vts_reward_expectancy_bt,2022.2.4,Win32,59.97001499,Chrome,1211,808,,,,,0,684,,,,,,,,,,,,,,,,,U,146,hexagon,1,0,,,,,,,,,,,,,,,,repeat,letter,lettRpt,f,0.6518,noRew,,,,,,0,39,0,39,0,1,,,,,,,,,,,,,,,,,
298081,2022-11-29_09h40.53.875,vts_reward_expectancy_bt,2022.2.4,Win32,59.97001499,Chrome,1211,808,,,,,0,684,,,,,,,,,,,,,,,,,Y,125,circle,1,0,,,,,,,,,,,,,,,,repeat,letter,lettRpt,f,0.6165,noRew,,,,,,0,40,0,40,0,1,,,,,,,,,,,,,,,,,
298081,2022-11-29_09h40.53.875,vts_reward_expectancy_bt,2022.2.4,Win32,59.97001499,Chrome,1211,808,,,,,0,684,,,,,,,,,,,,,,,,,B,181,hexagon,1,0,,,,,,,,,,,,,,,,switch,number,numSwt,k,0.5849,noRew,,,,,,0,41,0,41,0,1,,,,,,,,,,,,,,,,,
298081,2022-11-29_09h40.53.875,vts_reward_expectancy_bt,2022.2.4,Win32,59.97001499,Chrome,1211,808,,,,,0,684,,,,,,,,,,,,,,,,,W,167,triangle,1,0,,,,,,,,,,,,,,,,repeat,number,numRpt,k,0.6845,noRew,,,,,,0,42,0,42,0,1,,,,,,,,,,,,,,,,,
298081,2022-11-29_09h40.53.875,vts_reward_expectancy_bt,2022.2.4,Win32,59.97001499,Chrome,1211,808,,,,,0,684,,,,,,,,,,,,,,,,,F,146,circle,1,0,,,,,,,,,,,,,,,,repeat,number,numRpt,j,0.7679,noRew,,,,,,0,43,0,43,0,1,,,,,,,,,,,,,,,,,
298081,2022-11-29_09h40.53.875,vts_reward_expectancy_bt,2022.2.4,Win32,59.97001499,Chrome,1211,808,,,,,0,684,,,,,,,,,,,,,,,,,H,132,triangle,1,0,,,,,,,,,,,,,,,,repeat,number,numRpt,j,0.7044,noRew,,,,,,0,44,0,44,0,1,,,,,,,,,,,,,,,,,
298081,2022-11-29_09h40.53.875,vts_reward_expectancy_bt,2022.2.4,Win32,59.97001499,Chrome,1211,808,,,,,0,684,,,,,,,,,,,,,,,,,B,181,circle,1,0,,,,,,,,,,,,,,,,repeat,number,numRpt,k,0.4691,noRew,,,,,,0,45,0,45,0,1,,,,,,,,,,,,,,,,,
298081,2022-11-29_09h40.53.875,vts_reward_expectancy_bt,2022.2.4,Win32,59.97001499,Chrome,1211,808,,,,,0,684,,,,,,,,,,,,,,,,,W,125,hexagon,1,0,,,,,,,,,,,,,,,,switch,letter,lettSwt,f,0.5506,noRew,,,,,,0,46,0,46,0,1,,,,,,,,,,,,,,,,,
298081,2022-11-29_09h40.53.875,vts_reward_expectancy_bt,2022.2.4,Win32,59.97001499,Chrome,1211,808,,,,,0,684,,,,,,,,,,,,,,,,,D,160,triangle,1,0,,,,,,,,,,,,,,,,switch,number,numSwt,k,0.8679,noRew,,,,,,0,47,0,47,0,1,,,,,,,,,,,,,,,,,
298081,2022-11-29_09h40.53.875,vts_reward_expectancy_bt,2022.2.4,Win32,59.97001499,Chrome,1211,808,,,,,0,684,,,,,,,,,,,,,,,,,Y,167,triangle,1,0,,,,,,,,,,,,,,,,repeat,number,numRpt,k,1.4176,noRew,,,,,,0,48,0,48,0,1,,,,,,,,,,,,,,,,,
298081,2022-11-29_09h40.53.875,vts_reward_expectancy_bt,2022.2.4,Win32,59.97001499,Chrome,1211,808,,,,,0,684,,,,,,,,,,,,,,,,,U,139,circle,1,0,,,,,,,,,,,,,,,,repeat,number,numRpt,j,0.5845,noRew,,,,,,0,49,0,49,0,1,,,,,,,,,,,,,,,,,
298081,2022-11-29_09h40.53.875,vts_reward_expectancy_bt,2022.2.4,Win32,59.97001499,Chrome,1211,808,,,,,0,684,,,,,,,,,,,,,,,,,S,174,star,1,0,,,,,,,,,,,,,,,,switch,letter,lettSwt,f,0.5507,noRew,,,,,,0,50,0,50,0,1,,,,,,,,,,,,,,,,,
298081,2022-11-29_09h40.53.875,vts_reward_expectancy_bt,2022.2.4,Win32,59.97001499,Chrome,1211,808,,,,,0,684,,,,,,,,,,,,,,,,,W,132,triangle,1,0,,,,,,,,,,,,,,,,repeat,letter,lettRpt,f,0.5694,noRew,,,,,,0,51,0,51,0,1,,,,,,,,,,,,,,,,,
298081,2022-11-29_09h40.53.875,vts_reward_expectancy_bt,2022.2.4,Win32,59.97001499,Chrome,1211,808,,,,,0,684,,,,,,,,,,,,,,,,,U,125,hexagon,1,0,,,,,,,,,,,,,,,,repeat,letter,lettRpt,f,0.7837,noRew,,,,,,0,52,0,52,0,1,,,,,,,,,,,,,,,,,
298081,2022-11-29_09h40.53.875,vts_reward_expectancy_bt,2022.2.4,Win32,59.97001499,Chrome,1211,808,,,,,0,684,,,,,,,,,,,,,,,,,W,174,triangle,1,0,,,,,,,,,,,,,,,,switch,number,numSwt,k,0.6052,noRew,,,,,,0,53,0,53,0,1,,,,,,,,,,,,,,,,,
298081,2022-11-29_09h40.53.875,vts_reward_expectancy_bt,2022.2.4,Win32,59.97001499,Chrome,1211,808,,,,,0,684,,,,,,,,,,,,,,,,,Y,132,circle,1,0,,,,,,,,,,,,,,,,repeat,number,numRpt,j,0.6388,noRew,,,,,,0,54,0,54,0,1,,,,,,,,,,,,,,,,,
298081,2022-11-29_09h40.53.875,vts_reward_expectancy_bt,2022.2.4,Win32,59.97001499,Chrome,1211,808,,,,,0,684,,,,,,,,,,,,,,,,,S,167,hexagon,1,0,,,,,,,,,,,,,,,,switch,letter,lettSwt,f,0.8012,noRew,,,,,,0,55,0,55,0,1,,,,,,,,,,,,,,,,,
298081,2022-11-29_09h40.53.875,vts_reward_expectancy_bt,2022.2.4,Win32,59.97001499,Chrome,1211,808,,,,,0,684,,,,,,,,,,,,,,,,,D,146,hexagon,1,0,,,,,,,,,,,,,,,,repeat,letter,lettRpt,d,0.5843,noRew,,,,,,0,56,0,56,0,1,,,,,,,,,,,,,,,,,
298081,2022-11-29_09h40.53.875,vts_reward_expectancy_bt,2022.2.4,Win32,59.97001499,Chrome,1211,808,,,,,0,684,,,,,,,,,,,,,,,,,Y,125,triangle,1,0,,,,,,,,,,,,,,,,repeat,letter,lettRpt,f,0.7519,noRew,,,,,,0,57,0,57,0,1,,,,,,,,,,,,,,,,,
298081,2022-11-29_09h40.53.875,vts_reward_expectancy_bt,2022.2.4,Win32,59.97001499,Chrome,1211,808,,,,,0,684,,,,,,,,,,,,,,,,,S,174,star,1,0,,,,,,,,,,,,,,,,repeat,letter,lettRpt,f,0.8526,noRew,,,,,,0,58,0,58,0,1,,,,,,,,,,,,,,,,,
298081,2022-11-29_09h40.53.875,vts_reward_expectancy_bt,2022.2.4,Win32,59.97001499,Chrome,1211,808,,,,,0,684,,,,,,,,,,,,,,,,,H,181,hexagon,0,0,,,,,,,,,,,,,,,,repeat,letter,NA,f,0.9378,noRew,,,,,,0,59,0,59,0,1,,,,,,,,,,,,,,,,,
298081,2022-11-29_09h40.53.875,vts_reward_expectancy_bt,2022.2.4,Win32,59.97001499,Chrome,1211,808,,,,,0,684,,,,,,,,,,,,,,,,,U,139,triangle,1,1,,,,,,,,,,,,,,,,repeat,letter,lettRpt,f,0.968,noRew,,,,,,0,60,0,60,0,1,,,,,,,,,,,,,,,,,
298081,2022-11-29_09h40.53.875,vts_reward_expectancy_bt,2022.2.4,Win32,59.97001499,Chrome,1211,808,,,,,0,684,,,,,,,,,,,,,,,,,B,174,hexagon,1,0,,,,,,,,,,,,,,,,switch,number,numSwt,k,0.6043,noRew,,,,,,0,61,0,61,0,1,,,,,,,,,,,,,,,,,
298081,2022-11-29_09h40.53.875,vts_reward_expectancy_bt,2022.2.4,Win32,59.97001499,Chrome,1211,808,,,,,0,684,,,,,,,,,,,,,,,,,W,125,hexagon,1,0,,,,,,,,,,,,,,,,repeat,number,numRpt,j,0.6011,noRew,,,,,,0,62,0,62,0,1,,,,,,,,,,,,,,,,,
298081,2022-11-29_09h40.53.875,vts_reward_expectancy_bt,2022.2.4,Win32,59.97001499,Chrome,1211,808,,,,,0,684,,,,,,,,,,,,,,,,,F,181,triangle,1,0,,,,,,,,,,,,,,,,switch,letter,lettSwt,d,0.755,noRew,,,,,,0,63,0,63,0,1,,,,,,,,,,,,,,,,,
298081,2022-11-29_09h40.53.875,vts_reward_expectancy_bt,2022.2.4,Win32,59.97001499,Chrome,1211,808,,,,,,,,,,,,,,,,,,,,,,,,,,,,,,,,,,,,,,,,,,,,,,,,,,,,,,,,,,,,,,,,,,,,,,,,,,,,
298081,2022-11-29_09h40.53.875,vts_reward_expectancy_bt,2022.2.4,Win32,59.97001499,Chrome,1211,808,,,,,0,684,,,,,,,,,,,,,,,,,D,174,triangle,1,0,,,,,,,,,,,,,,,,repeat,letter,lettRpt,d,1.0502,Hi,,,,,,0,,,,,,space,7.3141,high,0,0,0,0,1,,,,,,,,,
298081,2022-11-29_09h40.53.875,vts_reward_expectancy_bt,2022.2.4,Win32,59.97001499,Chrome,1211,808,,,,,0,684,,,,,,,,,,,,,,,,,H,160,hexagon,0,0,,,,,,,,,,,,,,,,repeat,letter,NA,f,0.4239,Hi,,,,,,0,,,,,,,,high,1,0,1,0,1,,,,,,,,,
298081,2022-11-29_09h40.53.875,vts_reward_expectancy_bt,2022.2.4,Win32,59.97001499,Chrome,1211,808,,,,,10,694,,,,,,,,,,,,,,,,,F,167,star,1,1,,,,,,,,,,,,,,,,repeat,letter,lettRpt,d,0.6362,Lo,,,,,,0,,,,,,,,high,2,0,2,0,1,,,,,,,,,
298081,2022-11-29_09h40.53.875,vts_reward_expectancy_bt,2022.2.4,Win32,59.97001499,Chrome,1211,808,,,,,1,695,,,,,,,,,,,,,,,,,B,181,circle,1,0,,,,,,,,,,,,,,,,repeat,letter,lettRpt,d,0.5183,Lo,,,,,,0,,,,,,,,high,3,0,3,0,1,,,,,,,,,
298081,2022-11-29_09h40.53.875,vts_reward_expectancy_bt,2022.2.4,Win32,59.97001499,Chrome,1211,808,,,,,0,695,,,,,,,,,,,,,,,,,W,125,triangle,1,0,,,,,,,,,,,,,,,,repeat,letter,lettRpt,f,0.8178,Hi,,,,,,0,,,,,,,,high,4,0,4,0,1,,,,,,,,,
298081,2022-11-29_09h40.53.875,vts_reward_expectancy_bt,2022.2.4,Win32,59.97001499,Chrome,1211,808,,,,,0,695,,,,,,,,,,,,,,,,,U,146,hexagon,0,0,,,,,,,,,,,,,,,,repeat,letter,NA,d,0.9686,Hi,,,,,,0,,,,,,,,high,5,0,5,0,1,,,,,,,,,
298081,2022-11-29_09h40.53.875,vts_reward_expectancy_bt,2022.2.4,Win32,59.97001499,Chrome,1211,808,,,,,10,705,,,,,,,,,,,,,,,,,Y,132,star,1,1,,,,,,,,,,,,,,,,switch,number,numSwt,j,0.471,Lo,,,,,,0,,,,,,,,high,6,0,6,0,1,,,,,,,,,
298081,2022-11-29_09h40.53.875,vts_reward_expectancy_bt,2022.2.4,Win32,59.97001499,Chrome,1211,808,,,,,10,715,,,,,,,,,,,,,,,,,S,139,circle,1,0,,,,,,,,,,,,,,,,repeat,number,numRpt,j,0.3378,Lo,,,,,,0,,,,,,,,high,7,0,7,0,1,,,,,,,,,
298081,2022-11-29_09h40.53.875,vts_reward_expectancy_bt,2022.2.4,Win32,59.97001499,Chrome,1211,808,,,,,0,715,,,,,,,,,,,,,,,,,D,174,triangle,1,0,,,,,,,,,,,,,,,,switch,letter,lettSwt,d,0.5519,Hi,,,,,,0,,,,,,,,high,8,0,8,0,1,,,,,,,,,
298081,2022-11-29_09h40.53.875,vts_reward_expectancy_bt,2022.2.4,Win32,59.97001499,Chrome,1211,808,,,,,0,715,,,,,,,,,,,,,,,,,H,160,hexagon,0,0,,,,,,,,,,,,,,,,switch,number,NA,j,0.801,Hi,,,,,,0,,,,,,,,high,9,0,9,0,1,,,,,,,,,
298081,2022-11-29_09h40.53.875,vts_reward_expectancy_bt,2022.2.4,Win32,59.97001499,Chrome,1211,808,,,,,1,716,,,,,,,,,,,,,,,,,F,167,star,1,1,,,,,,,,,,,,,,,,repeat,number,numRpt,k,0.5844,Lo,,,,,,0,,,,,,,,high,10,0,10,0,1,,,,,,,,,
298081,2022-11-29_09h40.53.875,vts_reward_expectancy_bt,2022.2.4,Win32,59.97001499,Chrome,1211,808,,,,,1,717,,,,,,,,,,,,,,,,,B,181,circle,1,0,,,,,,,,,,,,,,,,repeat,number,numRpt,k,0.4516,Lo,,,,,,0,,,,,,,,high,11,0,11,0,1,,,,,,,,,
298081,2022-11-29_09h40.53.875,vts_reward_expectancy_bt,2022.2.4,Win32,59.97001499,Chrome,1211,808,,,,,1,718,,,,,,,,,,,,,,,,,W,125,star,1,0,,,,,,,,,,,,,,,,switch,letter,lettSwt,f,0.4999,Lo,,,,,,0,,,,,,,,high,12,0,12,0,1,,,,,,,,,
298081,2022-11-29_09h40.53.875,vts_reward_expectancy_bt,2022.2.4,Win32,59.97001499,Chrome,1211,808,,,,,0,718,,,,,,,,,,,,,,,,,U,146,circle,0,0,,,,,,,,,,,,,,,,repeat,letter,NA,d,0.3668,Lo,,,,,,0,,,,,,,,high,13,0,13,0,1,,,,,,,,,
298081,2022-11-29_09h40.53.875,vts_reward_expectancy_bt,2022.2.4,Win32,59.97001499,Chrome,1211,808,,,,,10,728,,,,,,,,,,,,,,,,,Y,132,triangle,1,1,,,,,,,,,,,,,,,,repeat,letter,lettRpt,f,0.4517,Hi,,,,,,0,,,,,,,,high,14,0,14,0,1,,,,,,,,,
298081,2022-11-29_09h40.53.875,vts_reward_expectancy_bt,2022.2.4,Win32,59.97001499,Chrome,1211,808,,,,,10,738,,,,,,,,,,,,,,,,,S,139,hexagon,1,0,,,,,,,,,,,,,,,,switch,number,numSwt,j,0.4172,Hi,,,,,,0,,,,,,,,high,15,0,15,0,1,,,,,,,,,
298081,2022-11-29_09h40.53.875,vts_reward_expectancy_bt,2022.2.4,Win32,59.97001499,Chrome,1211,808,,,,,10,748,,,,,,,,,,,,,,,,,S,146,hexagon,1,0,,,,,,,,,,,,,,,,repeat,number,numRpt,j,0.4176,Hi,,,,,,0,,,,,,,,high,16,0,16,0,1,,,,,,,,,
298081,2022-11-29_09h40.53.875,vts_reward_expectancy_bt,2022.2.4,Win32,59.97001499,Chrome,1211,808,,,,,1,749,,,,,,,,,,,,,,,,,Y,160,triangle,1,0,,,,,,,,,,,,,,,,switch,letter,lettSwt,f,0.4512,Hi,,,,,,0,,,,,,,,high,17,0,17,0,1,,,,,,,,,
298081,2022-11-29_09h40.53.875,vts_reward_expectancy_bt,2022.2.4,Win32,59.97001499,Chrome,1211,808,,,,,10,759,,,,,,,,,,,,,,,,,B,125,star,1,0,,,,,,,,,,,,,,,,repeat,letter,lettRpt,d,0.6174,Lo,,,,,,0,,,,,,,,high,18,0,18,0,1,,,,,,,,,
298081,2022-11-29_09h40.53.875,vts_reward_expectancy_bt,2022.2.4,Win32,59.97001499,Chrome,1211,808,,,,,1,760,,,,,,,,,,,,,,,,,W,181,circle,1,0,,,,,,,,,,,,,,,,repeat,letter,lettRpt,f,0.467,Lo,,,,,,0,,,,,,,,high,19,0,19,0,1,,,,,,,,,
298081,2022-11-29_09h40.53.875,vts_reward_expectancy_bt,2022.2.4,Win32,59.97001499,Chrome,1211,808,,,,,10,770,,,,,,,,,,,,,,,,,H,167,circle,1,0,,,,,,,,,,,,,,,,repeat,letter,lettRpt,d,0.5365,Lo,,,,,,0,,,,,,,,high,20,0,20,0,1,,,,,,,,,
298081,2022-11-29_09h40.53.875,vts_reward_expectancy_bt,2022.2.4,Win32,59.97001499,Chrome,1211,808,,,,,1,771,,,,,,,,,,,,,,,,,U,139,hexagon,1,0,,,,,,,,,,,,,,,,repeat,letter,lettRpt,f,0.3508,Hi,,,,,,0,,,,,,,,high,21,0,21,0,1,,,,,,,,,
298081,2022-11-29_09h40.53.875,vts_reward_expectancy_bt,2022.2.4,Win32,59.97001499,Chrome,1211,808,,,,,1,772,,,,,,,,,,,,,,,,,D,174,star,1,0,,,,,,,,,,,,,,,,repeat,letter,lettRpt,d,0.4012,Lo,,,,,,0,,,,,,,,high,22,0,22,0,1,,,,,,,,,
298081,2022-11-29_09h40.53.875,vts_reward_expectancy_bt,2022.2.4,Win32,59.97001499,Chrome,1211,808,,,,,10,782,,,,,,,,,,,,,,,,,F,132,triangle,1,0,,,,,,,,,,,,,,,,switch,number,numSwt,j,0.4341,Hi,,,,,,0,,,,,,,,high,23,0,23,0,1,,,,,,,,,
298081,2022-11-29_09h40.53.875,vts_reward_expectancy_bt,2022.2.4,Win32,59.97001499,Chrome,1211,808,,,,,10,792,,,,,,,,,,,,,,,,,Y,132,hexagon,1,0,,,,,,,,,,,,,,,,repeat,number,numRpt,j,0.4847,Hi,,,,,,0,,,,,,,,high,24,0,24,0,1,,,,,,,,,
298081,2022-11-29_09h40.53.875,vts_reward_expectancy_bt,2022.2.4,Win32,59.97001499,Chrome,1211,808,,,,,1,793,,,,,,,,,,,,,,,,,F,174,circle,1,0,,,,,,,,,,,,,,,,repeat,number,numRpt,k,0.6169,Lo,,,,,,0,,,,,,,,high,25,0,25,0,1,,,,,,,,,
298081,2022-11-29_09h40.53.875,vts_reward_expectancy_bt,2022.2.4,Win32,59.97001499,Chrome,1211,808,,,,,10,803,,,,,,,,,,,,,,,,,D,146,triangle,1,0,,,,,,,,,,,,,,,,repeat,number,numRpt,j,0.4837,Hi,,,,,,0,,,,,,,,high,26,0,26,0,1,,,,,,,,,
298081,2022-11-29_09h40.53.875,vts_reward_expectancy_bt,2022.2.4,Win32,59.97001499,Chrome,1211,808,,,,,1,804,,,,,,,,,,,,,,,,,U,125,star,1,0,,,,,,,,,,,,,,,,switch,letter,lettSwt,f,0.5179,Lo,,,,,,0,,,,,,,,high,27,0,27,0,1,,,,,,,,,
298081,2022-11-29_09h40.53.875,vts_reward_expectancy_bt,2022.2.4,Win32,59.97001499,Chrome,1211,808,,,,,1,805,,,,,,,,,,,,,,,,,W,181,hexagon,1,0,,,,,,,,,,,,,,,,switch,number,numSwt,k,0.5827,Hi,,,,,,0,,,,,,,,high,28,0,28,0,1,,,,,,,,,
298081,2022-11-29_09h40.53.875,vts_reward_expectancy_bt,2022.2.4,Win32,59.97001499,Chrome,1211,808,,,,,0,805,,,,,,,,,,,,,,,,,S,160,triangle,0,0,,,,,,,,,,,,,,,,repeat,number,NA,j,1.1514,Hi,,,,,,0,,,,,,,,high,29,0,29,0,1,,,,,,,,,
298081,2022-11-29_09h40.53.875,vts_reward_expectancy_bt,2022.2.4,Win32,59.97001499,Chrome,1211,808,,,,,1,806,,,,,,,,,,,,,,,,,B,167,circle,1,1,,,,,,,,,,,,,,,,switch,letter,lettSwt,d,0.5346,Lo,,,,,,0,,,,,,,,high,30,0,30,0,1,,,,,,,,,
298081,2022-11-29_09h40.53.875,vts_reward_expectancy_bt,2022.2.4,Win32,59.97001499,Chrome,1211,808,,,,,1,807,,,,,,,,,,,,,,,,,H,139,star,1,0,,,,,,,,,,,,,,,,repeat,letter,lettRpt,d,0.7336,Lo,,,,,,0,,,,,,,,high,31,0,31,0,1,,,,,,,,,
298081,2022-11-29_09h40.53.875,vts_reward_expectancy_bt,2022.2.4,Win32,59.97001499,Chrome,1211,808,,,,,0,807,,,,,,,,,,,,,,,,,U,167,hexagon,1,0,,,,,,,,,,,,,,,,repeat,letter,lettRpt,f,0.7828,Hi,,,,,,1,,,,,,space,1.0004,high,0,0,0,0,1,,,,,,,,,
298081,2022-11-29_09h40.53.875,vts_reward_expectancy_bt,2022.2.4,Win32,59.97001499,Chrome,1211,808,,,,,1,808,,,,,,,,,,,,,,,,,F,160,circle,1,0,,,,,,,,,,,,,,,,repeat,letter,lettRpt,d,0.37,Lo,,,,,,1,,,,,,,,high,1,0,1,0,1,,,,,,,,,
298081,2022-11-29_09h40.53.875,vts_reward_expectancy_bt,2022.2.4,Win32,59.97001499,Chrome,1211,808,,,,,1,809,,,,,,,,,,,,,,,,,W,139,star,1,0,,,,,,,,,,,,,,,,switch,number,numSwt,j,0.3658,Lo,,,,,,1,,,,,,,,high,2,0,2,0,1,,,,,,,,,
298081,2022-11-29_09h40.53.875,vts_reward_expectancy_bt,2022.2.4,Win32,59.97001499,Chrome,1211,808,,,,,0,809,,,,,,,,,,,,,,,,,D,132,triangle,1,0,,,,,,,,,,,,,,,,switch,letter,lettSwt,d,0.5669,Hi,,,,,,1,,,,,,,,high,3,0,3,0,1,,,,,,,,,
298081,2022-11-29_09h40.53.875,vts_reward_expectancy_bt,2022.2.4,Win32,59.97001499,Chrome,1211,808,,,,,10,819,,,,,,,,,,,,,,,,,B,174,hexagon,1,0,,,,,,,,,,,,,,,,repeat,letter,lettRpt,d,0.4488,Hi,,,,,,1,,,,,,,,high,4,0,4,0,1,,,,,,,,,
298081,2022-11-29_09h40.53.875,vts_reward_expectancy_bt,2022.2.4,Win32,59.97001499,Chrome,1211,808,,,,,0,819,,,,,,,,,,,,,,,,,S,125,circle,0,0,,,,,,,,,,,,,,,,repeat,letter,NA,d,0.2843,Hi,,,,,,1,,,,,,,,high,5,0,5,0,1,,,,,,,,,
298081,2022-11-29_09h40.53.875,vts_reward_expectancy_bt,2022.2.4,Win32,59.97001499,Chrome,1211,808,,,,,1,820,,,,,,,,,,,,,,,,,H,181,star,1,1,,,,,,,,,,,,,,,,repeat,letter,lettRpt,d,0.3673,Lo,,,,,,1,,,,,,,,high,6,0,6,0,1,,,,,,,,,
298081,2022-11-29_09h40.53.875,vts_reward_expectancy_bt,2022.2.4,Win32,59.97001499,Chrome,1211,808,,,,,0,820,,,,,,,,,,,,,,,,,Y,146,triangle,1,0,,,,,,,,,,,,,,,,switch,number,numSwt,j,0.502,Hi,,,,,,1,,,,,,,,high,7,0,7,0,1,,,,,,,,,
298081,2022-11-29_09h40.53.875,vts_reward_expectancy_bt,2022.2.4,Win32,59.97001499,Chrome,1211,808,,,,,10,830,,,,,,,,,,,,,,,,,U,167,hexagon,1,0,,,,,,,,,,,,,,,,repeat,number,numRpt,k,0.4169,Hi,,,,,,1,,,,,,,,high,8,0,8,0,1,,,,,,,,,
298081,2022-11-29_09h40.53.875,vts_reward_expectancy_bt,2022.2.4,Win32,59.97001499,Chrome,1211,808,,,,,10,840,,,,,,,,,,,,,,,,,F,160,triangle,1,0,,,,,,,,,,,,,,,,repeat,number,numRpt,k,0.4354,Hi,,,,,,1,,,,,,,,high,9,0,9,0,1,,,,,,,,,
298081,2022-11-29_09h40.53.875,vts_reward_expectancy_bt,2022.2.4,Win32,59.97001499,Chrome,1211,808,,,,,1,841,,,,,,,,,,,,,,,,,W,139,star,1,0,,,,,,,,,,,,,,,,repeat,number,numRpt,j,0.3024,Lo,,,,,,1,,,,,,,,high,10,0,10,0,1,,,,,,,,,
298081,2022-11-29_09h40.53.875,vts_reward_expectancy_bt,2022.2.4,Win32,59.97001499,Chrome,1211,808,,,,,10,851,,,,,,,,,,,,,,,,,D,132,circle,1,0,,,,,,,,,,,,,,,,switch,letter,lettSwt,d,0.3836,Lo,,,,,,1,,,,,,,,high,11,0,11,0,1,,,,,,,,,
298081,2022-11-29_09h40.53.875,vts_reward_expectancy_bt,2022.2.4,Win32,59.97001499,Chrome,1211,808,,,,,1,852,,,,,,,,,,,,,,,,,B,174,star,1,0,,,,,,,,,,,,,,,,switch,number,numSwt,k,0.5188,Lo,,,,,,1,,,,,,,,high,12,0,12,0,1,,,,,,,,,
298081,2022-11-29_09h40.53.875,vts_reward_expectancy_bt,2022.2.4,Win32,59.97001499,Chrome,1211,808,,,,,10,862,,,,,,,,,,,,,,,,,S,125,hexagon,1,0,,,,,,,,,,,,,,,,repeat,number,numRpt,j,0.3345,Hi,,,,,,1,,,,,,,,high,13,0,13,0,1,,,,,,,,,
298081,2022-11-29_09h40.53.875,vts_reward_expectancy_bt,2022.2.4,Win32,59.97001499,Chrome,1211,808,,,,,10,872,,,,,,,,,,,,,,,,,H,181,triangle,1,0,,,,,,,,,,,,,,,,repeat,number,numRpt,k,0.2827,Hi,,,,,,1,,,,,,,,high,14,0,14,0,1,,,,,,,,,
298081,2022-11-29_09h40.53.875,vts_reward_expectancy_bt,2022.2.4,Win32,59.97001499,Chrome,1211,808,,,,,0,872,,,,,,,,,,,,,,,,,Y,146,circle,0,0,,,,,,,,,,,,,,,,switch,letter,NA,d,0.4676,Hi,,,,,,1,,,,,,,,high,15,0,15,0,1,,,,,,,,,
298081,2022-11-29_09h40.53.875,vts_reward_expectancy_bt,2022.2.4,Win32,59.97001499,Chrome,1211,808,,,,,10,882,,,,,,,,,,,,,,,,,B,174,triangle,1,1,,,,,,,,,,,,,,,,repeat,letter,lettRpt,d,0.4345,Hi,,,,,,1,,,,,,,,high,16,0,16,0,1,,,,,,,,,
298081,2022-11-29_09h40.53.875,vts_reward_expectancy_bt,2022.2.4,Win32,59.97001499,Chrome,1211,808,,,,,0,882,,,,,,,,,,,,,,,,,F,181,hexagon,1,0,,,,,,,,,,,,,,,,repeat,letter,lettRpt,d,0.5336,Hi,,,,,,1,,,,,,,,high,17,0,17,0,1,,,,,,,,,
298081,2022-11-29_09h40.53.875,vts_reward_expectancy_bt,2022.2.4,Win32,59.97001499,Chrome,1211,808,,,,,0,882,,,,,,,,,,,,,,,,,U,167,circle,0,0,,,,,,,,,,,,,,,,repeat,letter,NA,d,0.5837,Hi,,,,,,1,,,,,,,,high,18,0,18,0,1,,,,,,,,,
298081,2022-11-29_09h40.53.875,vts_reward_expectancy_bt,2022.2.4,Win32,59.97001499,Chrome,1211,808,,,,,0,882,,,,,,,,,,,,,,,,,S,160,star,0,1,,,,,,,,,,,,,,,,repeat,letter,NA,d,0.3347,Hi,,,,,,1,,,,,,,,high,19,0,19,0,1,,,,,,,,,
298081,2022-11-29_09h40.53.875,vts_reward_expectancy_bt,2022.2.4,Win32,59.97001499,Chrome,1211,808,,,,,10,892,,,,,,,,,,,,,,,,,Y,125,triangle,1,1,,,,,,,,,,,,,,,,repeat,letter,lettRpt,f,0.4504,Hi,,,,,,1,,,,,,,,high,20,0,20,0,1,,,,,,,,,
298081,2022-11-29_09h40.53.875,vts_reward_expectancy_bt,2022.2.4,Win32,59.97001499,Chrome,1211,808,,,,,0,892,,,,,,,,,,,,,,,,,H,139,hexagon,1,0,,,,,,,,,,,,,,,,switch,number,numSwt,j,0.4689,Hi,,,,,,1,,,,,,,,high,21,0,21,0,1,,,,,,,,,
298081,2022-11-29_09h40.53.875,vts_reward_expectancy_bt,2022.2.4,Win32,59.97001499,Chrome,1211,808,,,,,1,893,,,,,,,,,,,,,,,,,W,146,star,1,0,,,,,,,,,,,,,,,,repeat,number,numRpt,j,0.6031,Lo,,,,,,1,,,,,,,,high,22,0,22,0,1,,,,,,,,,
298081,2022-11-29_09h40.53.875,vts_reward_expectancy_bt,2022.2.4,Win32,59.97001499,Chrome,1211,808,,,,,1,894,,,,,,,,,,,,,,,,,D,132,circle,1,0,,,,,,,,,,,,,,,,repeat,number,numRpt,j,0.3847,Lo,,,,,,1,,,,,,,,high,23,0,23,0,1,,,,,,,,,
298081,2022-11-29_09h40.53.875,vts_reward_expectancy_bt,2022.2.4,Win32,59.97001499,Chrome,1211,808,,,,,0,894,,,,,,,,,,,,,,,,,Y,174,hexagon,0,0,,,,,,,,,,,,,,,,repeat,number,NA,j,0.2832,Lo,,,,,,1,,,,,,,,high,24,0,24,0,1,,,,,,,,,
298081,2022-11-29_09h40.53.875,vts_reward_expectancy_bt,2022.2.4,Win32,59.97001499,Chrome,1211,808,,,,,0,894,,,,,,,,,,,,,,,,,H,160,triangle,0,1,,,,,,,,,,,,,,,,repeat,number,NA,j,0.4015,Lo,,,,,,1,,,,,,,,high,25,0,25,0,1,,,,,,,,,
298081,2022-11-29_09h40.53.875,vts_reward_expectancy_bt,2022.2.4,Win32,59.97001499,Chrome,1211,808,,,,,10,904,,,,,,,,,,,,,,,,,U,125,star,1,1,,,,,,,,,,,,,,,,repeat,number,numRpt,j,0.4828,Lo,,,,,,1,,,,,,,,high,26,0,26,0,1,,,,,,,,,
298081,2022-11-29_09h40.53.875,vts_reward_expectancy_bt,2022.2.4,Win32,59.97001499,Chrome,1211,808,,,,,1,905,,,,,,,,,,,,,,,,,W,146,circle,1,0,,,,,,,,,,,,,,,,switch,letter,lettSwt,f,0.5013,Lo,,,,,,1,,,,,,,,high,27,0,27,0,1,,,,,,,,,
298081,2022-11-29_09h40.53.875,vts_reward_expectancy_bt,2022.2.4,Win32,59.97001499,Chrome,1211,808,,,,,1,906,,,,,,,,,,,,,,,,,D,181,circle,1,0,,,,,,,,,,,,,,,,repeat,letter,lettRpt,d,0.3332,Lo,,,,,,1,,,,,,,,high,28,0,28,0,1,,,,,,,,,
298081,2022-11-29_09h40.53.875,vts_reward_expectancy_bt,2022.2.4,Win32,59.97001499,Chrome,1211,808,,,,,0,906,,,,,,,,,,,,,,,,,S,139,triangle,0,0,,,,,,,,,,,,,,,,repeat,letter,NA,d,0.3839,Lo,,,,,,1,,,,,,,,high,29,0,29,0,1,,,,,,,,,
298081,2022-11-29_09h40.53.875,vts_reward_expectancy_bt,2022.2.4,Win32,59.97001499,Chrome,1211,808,,,,,0,906,,,,,,,,,,,,,,,,,F,132,hexagon,1,1,,,,,,,,,,,,,,,,switch,number,numSwt,j,0.6697,Hi,,,,,,1,,,,,,,,high,30,0,30,0,1,,,,,,,,,
298081,2022-11-29_09h40.53.875,vts_reward_expectancy_bt,2022.2.4,Win32,59.97001499,Chrome,1211,808,,,,,1,907,,,,,,,,,,,,,,,,,B,167,star,1,0,,,,,,,,,,,,,,,,repeat,number,numRpt,k,0.534,Lo,,,,,,1,,,,,,,,high,31,0,31,0,1,,,,,,,,,
298081,2022-11-29_09h40.53.875,vts_reward_expectancy_bt,2022.2.4,Win32,59.97001499,Chrome,1211,808,,,,,0,907,,,,,,,,,,,,,,,,,B,160,triangle,1,0,,,,,,,,,,,,,,,,switch,letter,lettSwt,d,0.6346,Hi,,,,,,2,,,,,,space,0.1504,high,0,0,0,0,1,,,,,,,,,
298081,2022-11-29_09h40.53.875,vts_reward_expectancy_bt,2022.2.4,Win32,59.97001499,Chrome,1211,808,,,,,0,907,,,,,,,,,,,,,,,,,D,174,hexagon,1,0,,,,,,,,,,,,,,,,repeat,letter,lettRpt,d,0.4156,Hi,,,,,,2,,,,,,,,high,1,0,1,0,1,,,,,,,,,
298081,2022-11-29_09h40.53.875,vts_reward_expectancy_bt,2022.2.4,Win32,59.97001499,Chrome,1211,808,,,,,1,908,,,,,,,,,,,,,,,,,U,167,star,1,0,,,,,,,,,,,,,,,,repeat,letter,lettRpt,f,0.4832,Lo,,,,,,2,,,,,,,,high,2,0,2,0,1,,,,,,,,,
298081,2022-11-29_09h40.53.875,vts_reward_expectancy_bt,2022.2.4,Win32,59.97001499,Chrome,1211,808,,,,,1,909,,,,,,,,,,,,,,,,,Y,139,circle,1,0,,,,,,,,,,,,,,,,repeat,letter,lettRpt,f,0.5674,Lo,,,,,,2,,,,,,,,high,3,0,3,0,1,,,,,,,,,
298081,2022-11-29_09h40.53.875,vts_reward_expectancy_bt,2022.2.4,Win32,59.97001499,Chrome,1211,808,,,,,10,919,,,,,,,,,,,,,,,,,F,132,triangle,1,0,,,,,,,,,,,,,,,,switch,number,numSwt,j,0.3511,Hi,,,,,,2,,,,,,,,high,4,0,4,0,1,,,,,,,,,
298081,2022-11-29_09h40.53.875,vts_reward_expectancy_bt,2022.2.4,Win32,59.97001499,Chrome,1211,808,,,,,0,919,,,,,,,,,,,,,,,,,W,146,hexagon,0,0,,,,,,,,,,,,,,,,repeat,number,NA,k,0.3337,Hi,,,,,,2,,,,,,,,high,5,0,5,0,1,,,,,,,,,
298081,2022-11-29_09h40.53.875,vts_reward_expectancy_bt,2022.2.4,Win32,59.97001499,Chrome,1211,808,,,,,0,919,,,,,,,,,,,,,,,,,H,181,star,0,1,,,,,,,,,,,,,,,,repeat,number,NA,j,0.3166,Hi,,,,,,2,,,,,,,,high,6,0,6,0,1,,,,,,,,,
298081,2022-11-29_09h40.53.875,vts_reward_expectancy_bt,2022.2.4,Win32,59.97001499,Chrome,1211,808,,,,,1,920,,,,,,,,,,,,,,,,,S,125,circle,1,1,,,,,,,,,,,,,,,,repeat,number,numRpt,j,0.5342,Lo,,,,,,2,,,,,,,,high,7,0,7,0,1,,,,,,,,,
298081,2022-11-29_09h40.53.875,vts_reward_expectancy_bt,2022.2.4,Win32,59.97001499,Chrome,1211,808,,,,,10,930,,,,,,,,,,,,,,,,,B,160,triangle,1,0,,,,,,,,,,,,,,,,switch,letter,lettSwt,d,0.4502,Hi,,,,,,2,,,,,,,,high,8,0,8,0,1,,,,,,,,,
298081,2022-11-29_09h40.53.875,vts_reward_expectancy_bt,2022.2.4,Win32,59.97001499,Chrome,1211,808,,,,,10,940,,,,,,,,,,,,,,,,,D,174,circle,1,0,,,,,,,,,,,,,,,,switch,number,numSwt,k,0.4669,Lo,,,,,,2,,,,,,,,high,9,0,9,0,1,,,,,,,,,
298081,2022-11-29_09h40.53.875,vts_reward_expectancy_bt,2022.2.4,Win32,59.97001499,Chrome,1211,808,,,,,0,940,,,,,,,,,,,,,,,,,U,167,hexagon,0,0,,,,,,,,,,,,,,,,repeat,number,NA,j,0.8831,Lo,,,,,,2,,,,,,,,high,10,0,10,0,1,,,,,,,,,
298081,2022-11-29_09h40.53.875,vts_reward_expectancy_bt,2022.2.4,Win32,59.97001499,Chrome,1211,808,,,,,1,941,,,,,,,,,,,,,,,,,Y,139,star,1,1,,,,,,,,,,,,,,,,switch,letter,lettSwt,f,0.4181,Lo,,,,,,2,,,,,,,,high,11,0,11,0,1,,,,,,,,,
298081,2022-11-29_09h40.53.875,vts_reward_expectancy_bt,2022.2.4,Win32,59.97001499,Chrome,1211,808,,,,,0,941,,,,,,,,,,,,,,,,,F,132,hexagon,1,0,,,,,,,,,,,,,,,,switch,number,numSwt,j,0.4993,Hi,,,,,,2,,,,,,,,high,12,0,12,0,1,,,,,,,,,
298081,2022-11-29_09h40.53.875,vts_reward_expectancy_bt,2022.2.4,Win32,59.97001499,Chrome,1211,808,,,,,0,941,,,,,,,,,,,,,,,,,W,146,triangle,1,0,,,,,,,,,,,,,,,,repeat,number,numRpt,j,0.7499,Hi,,,,,,2,,,,,,,,high,13,0,13,0,1,,,,,,,,,
298081,2022-11-29_09h40.53.875,vts_reward_expectancy_bt,2022.2.4,Win32,59.97001499,Chrome,1211,808,,,,,10,951,,,,,,,,,,,,,,,,,H,181,star,1,0,,,,,,,,,,,,,,,,repeat,number,numRpt,k,0.6337,Lo,,,,,,2,,,,,,,,high,14,0,14,0,1,,,,,,,,,
298081,2022-11-29_09h40.53.875,vts_reward_expectancy_bt,2022.2.4,Win32,59.97001499,Chrome,1211,808,,,,,1,952,,,,,,,,,,,,,,,,,S,125,circle,1,0,,,,,,,,,,,,,,,,repeat,number,numRpt,j,0.6173,Lo,,,,,,2,,,,,,,,high,15,0,15,0,1,,,,,,,,,
298081,2022-11-29_09h40.53.875,vts_reward_expectancy_bt,2022.2.4,Win32,59.97001499,Chrome,1211,808,,,,,1,953,,,,,,,,,,,,,,,,,Y,160,star,1,0,,,,,,,,,,,,,,,,repeat,number,numRpt,k,0.5842,Lo,,,,,,2,,,,,,,,high,16,0,16,0,1,,,,,,,,,
298081,2022-11-29_09h40.53.875,vts_reward_expectancy_bt,2022.2.4,Win32,59.97001499,Chrome,1211,808,,,,,0,953,,,,,,,,,,,,,,,,,U,181,hexagon,1,0,,,,,,,,,,,,,,,,repeat,number,numRpt,k,0.5002,Hi,,,,,,2,,,,,,,,high,17,0,17,0,1,,,,,,,,,
298081,2022-11-29_09h40.53.875,vts_reward_expectancy_bt,2022.2.4,Win32,59.97001499,Chrome,1211,808,,,,,1,954,,,,,,,,,,,,,,,,,F,167,circle,1,0,,,,,,,,,,,,,,,,switch,letter,lettSwt,d,0.5011,Lo,,,,,,2,,,,,,,,high,18,0,18,0,1,,,,,,,,,
298081,2022-11-29_09h40.53.875,vts_reward_expectancy_bt,2022.2.4,Win32,59.97001499,Chrome,1211,808,,,,,0,954,,,,,,,,,,,,,,,,,H,174,triangle,0,0,,,,,,,,,,,,,,,,repeat,letter,NA,f,0.5659,Lo,,,,,,2,,,,,,,,high,19,0,19,0,1,,,,,,,,,
298081,2022-11-29_09h40.53.875,vts_reward_expectancy_bt,2022.2.4,Win32,59.97001499,Chrome,1211,808,,,,,1,955,,,,,,,,,,,,,,,,,S,132,circle,1,1,,,,,,,,,,,,,,,,switch,number,numSwt,j,0.6341,Lo,,,,,,2,,,,,,,,high,20,0,20,0,1,,,,,,,,,
298081,2022-11-29_09h40.53.875,vts_reward_expectancy_bt,2022.2.4,Win32,59.97001499,Chrome,1211,808,,,,,0,955,,,,,,,,,,,,,,,,,W,146,hexagon,0,0,,,,,,,,,,,,,,,,switch,letter,NA,d,0.601,Lo,,,,,,2,,,,,,,,high,21,0,21,0,1,,,,,,,,,
298081,2022-11-29_09h40.53.875,vts_reward_expectancy_bt,2022.2.4,Win32,59.97001499,Chrome,1211,808,,,,,0,955,,,,,,,,,,,,,,,,,B,125,triangle,1,1,,,,,,,,,,,,,,,,switch,number,numSwt,j,0.6186,Hi,,,,,,2,,,,,,,,high,22,0,22,0,1,,,,,,,,,
298081,2022-11-29_09h40.53.875,vts_reward_expectancy_bt,2022.2.4,Win32,59.97001499,Chrome,1211,808,,,,,1,956,,,,,,,,,,,,,,,,,D,139,star,1,0,,,,,,,,,,,,,,,,repeat,number,numRpt,j,0.5151,Lo,,,,,,2,,,,,,,,high,23,0,23,0,1,,,,,,,,,
298081,2022-11-29_09h40.53.875,vts_reward_expectancy_bt,2022.2.4,Win32,59.97001499,Chrome,1211,808,,,,,1,957,,,,,,,,,,,,,,,,,H,174,circle,1,0,,,,,,,,,,,,,,,,repeat,number,numRpt,k,0.4861,Lo,,,,,,2,,,,,,,,high,24,0,24,0,1,,,,,,,,,
298081,2022-11-29_09h40.53.875,vts_reward_expectancy_bt,2022.2.4,Win32,59.97001499,Chrome,1211,808,,,,,0,957,,,,,,,,,,,,,,,,,Y,132,triangle,1,0,,,,,,,,,,,,,,,,repeat,number,numRpt,j,0.7174,Hi,,,,,,2,,,,,,,,high,25,0,25,0,1,,,,,,,,,
298081,2022-11-29_09h40.53.875,vts_reward_expectancy_bt,2022.2.4,Win32,59.97001499,Chrome,1211,808,,,,,1,958,,,,,,,,,,,,,,,,,F,146,star,1,0,,,,,,,,,,,,,,,,repeat,number,numRpt,j,0.6676,Lo,,,,,,2,,,,,,,,high,26,0,26,0,1,,,,,,,,,
298081,2022-11-29_09h40.53.875,vts_reward_expectancy_bt,2022.2.4,Win32,59.97001499,Chrome,1211,808,,,,,0,958,,,,,,,,,,,,,,,,,B,181,hexagon,1,0,,,,,,,,,,,,,,,,repeat,number,numRpt,k,0.4491,Hi,,,,,,2,,,,,,,,high,27,0,27,0,1,,,,,,,,,
298081,2022-11-29_09h40.53.875,vts_reward_expectancy_bt,2022.2.4,Win32,59.97001499,Chrome,1211,808,,,,,0,958,,,,,,,,,,,,,,,,,U,167,star,0,0,,,,,,,,,,,,,,,,repeat,number,NA,j,0.5826,Hi,,,,,,2,,,,,,,,high,28,0,28,0,1,,,,,,,,,
298081,2022-11-29_09h40.53.875,vts_reward_expectancy_bt,2022.2.4,Win32,59.97001499,Chrome,1211,808,,,,,10,968,,,,,,,,,,,,,,,,,S,125,circle,1,1,,,,,,,,,,,,,,,,repeat,number,numRpt,j,0.534,Lo,,,,,,2,,,,,,,,high,29,0,29,0,1,,,,,,,,,
298081,2022-11-29_09h40.53.875,vts_reward_expectancy_bt,2022.2.4,Win32,59.97001499,Chrome,1211,808,,,,,0,968,,,,,,,,,,,,,,,,,W,139,triangle,1,0,,,,,,,,,,,,,,,,repeat,number,numRpt,j,0.5847,Hi,,,,,,2,,,,,,,,high,30,0,30,0,1,,,,,,,,,
298081,2022-11-29_09h40.53.875,vts_reward_expectancy_bt,2022.2.4,Win32,59.97001499,Chrome,1211,808,,,,,0,968,,,,,,,,,,,,,,,,,D,160,hexagon,1,0,,,,,,,,,,,,,,,,repeat,number,numRpt,k,0.601,Hi,,,,,,2,,,,,,,,high,31,0,31,0,1,,,,,,,,,
298081,2022-11-29_09h40.53.875,vts_reward_expectancy_bt,2022.2.4,Win32,59.97001499,Chrome,1211,808,,,,,1,969,,,,,,,,,,,,,,,,,D,139,star,1,0,,,,,,,,,,,,,,,,switch,letter,lettSwt,d,0.3069,Lo,,,,,,3,,,,,,space,1.4566,high,0,0,0,0,1,,,,,,,,,
298081,2022-11-29_09h40.53.875,vts_reward_expectancy_bt,2022.2.4,Win32,59.97001499,Chrome,1211,808,,,,,0,969,,,,,,,,,,,,,,,,,H,174,triangle,1,0,,,,,,,,,,,,,,,,repeat,letter,lettRpt,d,0.4978,Hi,,,,,,3,,,,,,,,high,1,0,1,0,1,,,,,,,,,
298081,2022-11-29_09h40.53.875,vts_reward_expectancy_bt,2022.2.4,Win32,59.97001499,Chrome,1211,808,,,,,1,970,,,,,,,,,,,,,,,,,W,167,circle,1,0,,,,,,,,,,,,,,,,switch,number,numSwt,k,0.4855,Lo,,,,,,3,,,,,,,,high,2,0,2,0,1,,,,,,,,,
298081,2022-11-29_09h40.53.875,vts_reward_expectancy_bt,2022.2.4,Win32,59.97001499,Chrome,1211,808,,,,,0,970,,,,,,,,,,,,,,,,,F,160,hexagon,0,0,,,,,,,,,,,,,,,,repeat,number,NA,j,0.3515,Lo,,,,,,3,,,,,,,,high,3,0,3,0,1,,,,,,,,,
298081,2022-11-29_09h40.53.875,vts_reward_expectancy_bt,2022.2.4,Win32,59.97001499,Chrome,1211,808,,,,,10,980,,,,,,,,,,,,,,,,,U,146,star,1,1,,,,,,,,,,,,,,,,repeat,number,numRpt,j,0.4189,Lo,,,,,,3,,,,,,,,high,4,0,4,0,1,,,,,,,,,
298081,2022-11-29_09h40.53.875,vts_reward_expectancy_bt,2022.2.4,Win32,59.97001499,Chrome,1211,808,,,,,10,990,,,,,,,,,,,,,,,,,Y,132,triangle,1,0,,,,,,,,,,,,,,,,repeat,number,numRpt,j,0.3676,Hi,,,,,,3,,,,,,,,high,5,0,5,0,1,,,,,,,,,
298081,2022-11-29_09h40.53.875,vts_reward_expectancy_bt,2022.2.4,Win32,59.97001499,Chrome,1211,808,,,,,1,991,,,,,,,,,,,,,,,,,B,181,circle,1,0,,,,,,,,,,,,,,,,repeat,number,numRpt,k,0.2358,Lo,,,,,,3,,,,,,,,high,6,0,6,0,1,,,,,,,,,
298081,2022-11-29_09h40.53.875,vts_reward_expectancy_bt,2022.2.4,Win32,59.97001499,Chrome,1211,808,,,,,10,1001,,,,,,,,,,,,,,,,,S,125,hexagon,1,0,,,,,,,,,,,,,,,,repeat,number,numRpt,j,0.3504,Hi,,,,,,3,,,,,,,,high,7,0,7,0,1,,,,,,,,,
298081,2022-11-29_09h40.53.875,vts_reward_expectancy_bt,2022.2.4,Win32,59.97001499,Chrome,1211,808,,,,,1,1002,,,,,,,,,,,,,,,,,D,139,star,1,0,,,,,,,,,,,,,,,,repeat,number,numRpt,j,0.4505,Lo,,,,,,3,,,,,,,,high,8,0,8,0,1,,,,,,,,,
298081,2022-11-29_09h40.53.875,vts_reward_expectancy_bt,2022.2.4,Win32,59.97001499,Chrome,1211,808,,,,,0,1002,,,,,,,,,,,,,,,,,H,174,triangle,0,0,,,,,,,,,,,,,,,,switch,letter,NA,f,0.3205,Lo,,,,,,3,,,,,,,,high,9,0,9,0,1,,,,,,,,,
298081,2022-11-29_09h40.53.875,vts_reward_expectancy_bt,2022.2.4,Win32,59.97001499,Chrome,1211,808,,,,,10,1012,,,,,,,,,,,,,,,,,W,167,hexagon,1,1,,,,,,,,,,,,,,,,repeat,letter,lettRpt,f,0.4178,Hi,,,,,,3,,,,,,,,high,10,0,10,0,1,,,,,,,,,
298081,2022-11-29_09h40.53.875,vts_reward_expectancy_bt,2022.2.4,Win32,59.97001499,Chrome,1211,808,,,,,1,1013,,,,,,,,,,,,,,,,,F,160,circle,1,0,,,,,,,,,,,,,,,,repeat,letter,lettRpt,d,0.5685,Lo,,,,,,3,,,,,,,,high,11,0,11,0,1,,,,,,,,,
298081,2022-11-29_09h40.53.875,vts_reward_expectancy_bt,2022.2.4,Win32,59.97001499,Chrome,1211,808,,,,,1,1014,,,,,,,,,,,,,,,,,U,146,circle,1,0,,,,,,,,,,,,,,,,switch,number,numSwt,j,0.7838,Lo,,,,,,3,,,,,,,,high,12,0,12,0,1,,,,,,,,,
298081,2022-11-29_09h40.53.875,vts_reward_expectancy_bt,2022.2.4,Win32,59.97001499,Chrome,1211,808,,,,,10,1024,,,,,,,,,,,,,,,,,Y,132,hexagon,1,0,,,,,,,,,,,,,,,,repeat,number,numRpt,j,0.4545,Hi,,,,,,3,,,,,,,,high,13,0,13,0,1,,,,,,,,,
298081,2022-11-29_09h40.53.875,vts_reward_expectancy_bt,2022.2.4,Win32,59.97001499,Chrome,1211,808,,,,,0,1024,,,,,,,,,,,,,,,,,B,181,star,0,0,,,,,,,,,,,,,,,,repeat,number,NA,j,0.4682,Hi,,,,,,3,,,,,,,,high,14,0,14,0,1,,,,,,,,,
298081,2022-11-29_09h40.53.875,vts_reward_expectancy_bt,2022.2.4,Win32,59.97001499,Chrome,1211,808,,,,,0,1024,,,,,,,,,,,,,,,,,S,125,triangle,0,1,,,,,,,,,,,,,,,,switch,letter,NA,d,0.4684,Hi,,,,,,3,,,,,,,,high,15,0,15,0,1,,,,,,,,,
298081,2022-11-29_09h40.53.875,vts_reward_expectancy_bt,2022.2.4,Win32,59.97001499,Chrome,1211,808,,,,,1,1025,,,,,,,,,,,,,,,,,D,174,star,1,1,,,,,,,,,,,,,,,,repeat,letter,lettRpt,d,0.5496,Lo,,,,,,3,,,,,,,,high,16,0,16,0,1,,,,,,,,,
298081,2022-11-29_09h40.53.875,vts_reward_expectancy_bt,2022.2.4,Win32,59.97001499,Chrome,1211,808,,,,,10,1035,,,,,,,,,,,,,,,,,B,132,triangle,1,0,,,,,,,,,,,,,,,,repeat,letter,lettRpt,d,0.4337,Hi,,,,,,3,,,,,,,,high,17,0,17,0,1,,,,,,,,,
298081,2022-11-29_09h40.53.875,vts_reward_expectancy_bt,2022.2.4,Win32,59.97001499,Chrome,1211,808,,,,,10,1045,,,,,,,,,,,,,,,,,F,167,circle,1,0,,,,,,,,,,,,,,,,repeat,letter,lettRpt,d,0.5013,Lo,,,,,,3,,,,,,,,high,18,0,18,0,1,,,,,,,,,
298081,2022-11-29_09h40.53.875,vts_reward_expectancy_bt,2022.2.4,Win32,59.97001499,Chrome,1211,808,,,,,0,1045,,,,,,,,,,,,,,,,,S,160,hexagon,1,0,,,,,,,,,,,,,,,,repeat,letter,lettRpt,f,0.534,Hi,,,,,,3,,,,,,,,high,19,0,19,0,1,,,,,,,,,
298081,2022-11-29_09h40.53.875,vts_reward_expectancy_bt,2022.2.4,Win32,59.97001499,Chrome,1211,808,,,,,10,1055,,,,,,,,,,,,,,,,,Y,139,circle,1,0,,,,,,,,,,,,,,,,repeat,letter,lettRpt,f,0.5344,Lo,,,,,,3,,,,,,,,high,20,0,20,0,1,,,,,,,,,
298081,2022-11-29_09h40.53.875,vts_reward_expectancy_bt,2022.2.4,Win32,59.97001499,Chrome,1211,808,,,,,10,1065,,,,,,,,,,,,,,,,,U,125,hexagon,1,0,,,,,,,,,,,,,,,,repeat,letter,lettRpt,f,0.4415,Hi,,,,,,3,,,,,,,,high,21,0,21,0,1,,,,,,,,,
298081,2022-11-29_09h40.53.875,vts_reward_expectancy_bt,2022.2.4,Win32,59.97001499,Chrome,1211,808,,,,,0,1065,,,,,,,,,,,,,,,,,H,146,star,0,0,,,,,,,,,,,,,,,,switch,number,NA,k,0.3009,Hi,,,,,,3,,,,,,,,high,22,0,22,0,1,,,,,,,,,
298081,2022-11-29_09h40.53.875,vts_reward_expectancy_bt,2022.2.4,Win32,59.97001499,Chrome,1211,808,,,,,10,1075,,,,,,,,,,,,,,,,,W,181,triangle,1,1,,,,,,,,,,,,,,,,repeat,number,numRpt,k,0.5,Hi,,,,,,3,,,,,,,,high,23,0,23,0,1,,,,,,,,,
298081,2022-11-29_09h40.53.875,vts_reward_expectancy_bt,2022.2.4,Win32,59.97001499,Chrome,1211,808,,,,,1,1076,,,,,,,,,,,,,,,,,D,174,triangle,1,0,,,,,,,,,,,,,,,,switch,letter,lettSwt,d,0.3665,Hi,,,,,,3,,,,,,,,high,24,0,24,0,1,,,,,,,,,
298081,2022-11-29_09h40.53.875,vts_reward_expectancy_bt,2022.2.4,Win32,59.97001499,Chrome,1211,808,,,,,10,1086,,,,,,,,,,,,,,,,,H,132,hexagon,1,0,,,,,,,,,,,,,,,,repeat,letter,lettRpt,d,0.4511,Hi,,,,,,3,,,,,,,,high,25,0,25,0,1,,,,,,,,,
298081,2022-11-29_09h40.53.875,vts_reward_expectancy_bt,2022.2.4,Win32,59.97001499,Chrome,1211,808,,,,,1,1087,,,,,,,,,,,,,,,,,B,125,star,1,0,,,,,,,,,,,,,,,,repeat,letter,lettRpt,d,0.467,Lo,,,,,,3,,,,,,,,high,26,0,26,0,1,,,,,,,,,
298081,2022-11-29_09h40.53.875,vts_reward_expectancy_bt,2022.2.4,Win32,59.97001499,Chrome,1211,808,,,,,1,1088,,,,,,,,,,,,,,,,,W,160,circle,1,0,,,,,,,,,,,,,,,,repeat,letter,lettRpt,f,0.5174,Lo,,,,,,3,,,,,,,,high,27,0,27,0,1,,,,,,,,,
298081,2022-11-29_09h40.53.875,vts_reward_expectancy_bt,2022.2.4,Win32,59.97001499,Chrome,1211,808,,,,,10,1098,,,,,,,,,,,,,,,,,U,146,star,1,0,,,,,,,,,,,,,,,,repeat,letter,lettRpt,f,0.5829,Lo,,,,,,3,,,,,,,,high,28,0,28,0,1,,,,,,,,,
298081,2022-11-29_09h40.53.875,vts_reward_expectancy_bt,2022.2.4,Win32,59.97001499,Chrome,1211,808,,,,,1,1099,,,,,,,,,,,,,,,,,Y,181,circle,1,0,,,,,,,,,,,,,,,,repeat,letter,lettRpt,f,0.5009,Lo,,,,,,3,,,,,,,,high,29,0,29,0,1,,,,,,,,,
298081,2022-11-29_09h40.53.875,vts_reward_expectancy_bt,2022.2.4,Win32,59.97001499,Chrome,1211,808,,,,,0,1099,,,,,,,,,,,,,,,,,F,167,triangle,1,0,,,,,,,,,,,,,,,,repeat,letter,lettRpt,d,0.634,Hi,,,,,,3,,,,,,,,high,30,0,30,0,1,,,,,,,,,
298081,2022-11-29_09h40.53.875,vts_reward_expectancy_bt,2022.2.4,Win32,59.97001499,Chrome,1211,808,,,,,0,1099,,,,,,,,,,,,,,,,,S,139,hexagon,1,0,,,,,,,,,,,,,,,,repeat,letter,lettRpt,f,0.4841,Hi,,,,,,3,,,,,,,,high,31,0,31,0,1,,,,,,,,,
298081,2022-11-29_09h40.53.875,vts_reward_expectancy_bt,2022.2.4,Win32,59.97001499,Chrome,1211,808,,,,,1,1100,,,,,,,,,,,,,,,,,S,181,star,1,0,,,,,,,,,,,,,,,,repeat,letter,lettRpt,f,0.7505,Lo,,,,,,4,,,,,,space,0.9832,high,0,0,0,0,1,,,,,,,,,
298081,2022-11-29_09h40.53.875,vts_reward_expectancy_bt,2022.2.4,Win32,59.97001499,Chrome,1211,808,,,,,10,1110,,,,,,,,,,,,,,,,,H,146,triangle,1,0,,,,,,,,,,,,,,,,repeat,letter,lettRpt,d,0.3188,Hi,,,,,,4,,,,,,,,high,1,0,1,0,1,,,,,,,,,
298081,2022-11-29_09h40.53.875,vts_reward_expectancy_bt,2022.2.4,Win32,59.97001499,Chrome,1211,808,,,,,0,1110,,,,,,,,,,,,,,,,,F,160,circle,0,0,,,,,,,,,,,,,,,,repeat,letter,NA,f,0.3494,Hi,,,,,,4,,,,,,,,high,2,0,2,0,1,,,,,,,,,
298081,2022-11-29_09h40.53.875,vts_reward_expectancy_bt,2022.2.4,Win32,59.97001499,Chrome,1211,808,,,,,0,1110,,,,,,,,,,,,,,,,,U,167,hexagon,1,1,,,,,,,,,,,,,,,,repeat,letter,lettRpt,f,0.4834,Hi,,,,,,4,,,,,,,,high,3,0,3,0,1,,,,,,,,,
298081,2022-11-29_09h40.53.875,vts_reward_expectancy_bt,2022.2.4,Win32,59.97001499,Chrome,1211,808,,,,,1,1111,,,,,,,,,,,,,,,,,Y,139,star,1,0,,,,,,,,,,,,,,,,repeat,letter,lettRpt,f,0.4335,Lo,,,,,,4,,,,,,,,high,4,0,4,0,1,,,,,,,,,
298081,2022-11-29_09h40.53.875,vts_reward_expectancy_bt,2022.2.4,Win32,59.97001499,Chrome,1211,808,,,,,0,1111,,,,,,,,,,,,,,,,,D,174,triangle,1,0,,,,,,,,,,,,,,,,repeat,letter,lettRpt,d,0.567,Hi,,,,,,4,,,,,,,,high,5,0,5,0,1,,,,,,,,,
298081,2022-11-29_09h40.53.875,vts_reward_expectancy_bt,2022.2.4,Win32,59.97001499,Chrome,1211,808,,,,,1,1112,,,,,,,,,,,,,,,,,B,132,circle,1,0,,,,,,,,,,,,,,,,repeat,letter,lettRpt,d,0.551,Lo,,,,,,4,,,,,,,,high,6,0,6,0,1,,,,,,,,,
298081,2022-11-29_09h40.53.875,vts_reward_expectancy_bt,2022.2.4,Win32,59.97001499,Chrome,1211,808,,,,,0,1112,,,,,,,,,,,,,,,,,W,125,hexagon,1,0,,,,,,,,,,,,,,,,switch,number,numSwt,j,0.5022,Hi,,,,,,4,,,,,,,,high,7,0,7,0,1,,,,,,,,,
298081,2022-11-29_09h40.53.875,vts_reward_expectancy_bt,2022.2.4,Win32,59.97001499,Chrome,1211,808,,,,,0,1112,,,,,,,,,,,,,,,,,S,181,hexagon,1,0,,,,,,,,,,,,,,,,repeat,number,numRpt,k,0.3837,Hi,,,,,,4,,,,,,,,high,8,0,8,0,1,,,,,,,,,
298081,2022-11-29_09h40.53.875,vts_reward_expectancy_bt,2022.2.4,Win32,59.97001499,Chrome,1211,808,,,,,1,1113,,,,,,,,,,,,,,,,,H,146,star,1,0,,,,,,,,,,,,,,,,repeat,number,numRpt,j,0.3492,Lo,,,,,,4,,,,,,,,high,9,0,9,0,1,,,,,,,,,
298081,2022-11-29_09h40.53.875,vts_reward_expectancy_bt,2022.2.4,Win32,59.97001499,Chrome,1211,808,,,,,0,1113,,,,,,,,,,,,,,,,,F,160,circle,0,0,,,,,,,,,,,,,,,,repeat,number,NA,j,0.4332,Lo,,,,,,4,,,,,,,,high,10,0,10,0,1,,,,,,,,,
298081,2022-11-29_09h40.53.875,vts_reward_expectancy_bt,2022.2.4,Win32,59.97001499,Chrome,1211,808,,,,,0,1113,,,,,,,,,,,,,,,,,U,167,triangle,1,1,,,,,,,,,,,,,,,,repeat,number,numRpt,k,0.5168,Hi,,,,,,4,,,,,,,,high,11,0,11,0,1,,,,,,,,,
298081,2022-11-29_09h40.53.875,vts_reward_expectancy_bt,2022.2.4,Win32,59.97001499,Chrome,1211,808,,,,,1,1114,,,,,,,,,,,,,,,,,Y,139,circle,1,0,,,,,,,,,,,,,,,,switch,letter,lettSwt,f,0.4489,Lo,,,,,,4,,,,,,,,high,12,0,12,0,1,,,,,,,,,
298081,2022-11-29_09h40.53.875,vts_reward_expectancy_bt,2022.2.4,Win32,59.97001499,Chrome,1211,808,,,,,0,1114,,,,,,,,,,,,,,,,,D,174,star,0,0,,,,,,,,,,,,,,,,switch,number,NA,j,0.4003,Lo,,,,,,4,,,,,,,,high,13,0,13,0,1,,,,,,,,,
298081,2022-11-29_09h40.53.875,vts_reward_expectancy_bt,2022.2.4,Win32,59.97001499,Chrome,1211,808,,,,,0,1114,,,,,,,,,,,,,,,,,B,132,hexagon,1,1,,,,,,,,,,,,,,,,repeat,number,numRpt,j,0.5661,Hi,,,,,,4,,,,,,,,high,14,0,14,0,1,,,,,,,,,
298081,2022-11-29_09h40.53.875,vts_reward_expectancy_bt,2022.2.4,Win32,59.97001499,Chrome,1211,808,,,,,0,1114,,,,,,,,,,,,,,,,,W,125,triangle,0,0,,,,,,,,,,,,,,,,switch,letter,NA,d,0.6163,Hi,,,,,,4,,,,,,,,high,15,0,15,0,1,,,,,,,,,
298081,2022-11-29_09h40.53.875,vts_reward_expectancy_bt,2022.2.4,Win32,59.97001499,Chrome,1211,808,,,,,10,1124,,,,,,,,,,,,,,,,,Y,174,star,1,1,,,,,,,,,,,,,,,,switch,number,numSwt,k,0.5995,Lo,,,,,,4,,,,,,,,high,16,0,16,0,1,,,,,,,,,
298081,2022-11-29_09h40.53.875,vts_reward_expectancy_bt,2022.2.4,Win32,59.97001499,Chrome,1211,808,,,,,0,1124,,,,,,,,,,,,,,,,,B,132,triangle,1,0,,,,,,,,,,,,,,,,repeat,number,numRpt,j,0.6171,Hi,,,,,,4,,,,,,,,high,17,0,17,0,1,,,,,,,,,
298081,2022-11-29_09h40.53.875,vts_reward_expectancy_bt,2022.2.4,Win32,59.97001499,Chrome,1211,808,,,,,0,1124,,,,,,,,,,,,,,,,,U,139,hexagon,1,0,,,,,,,,,,,,,,,,repeat,number,numRpt,j,0.4171,Hi,,,,,,4,,,,,,,,high,18,0,18,0,1,,,,,,,,,
298081,2022-11-29_09h40.53.875,vts_reward_expectancy_bt,2022.2.4,Win32,59.97001499,Chrome,1211,808,,,,,0,1124,,,,,,,,,,,,,,,,,S,160,circle,0,0,,,,,,,,,,,,,,,,repeat,number,NA,j,0.401,Hi,,,,,,4,,,,,,,,high,19,0,19,0,1,,,,,,,,,
298081,2022-11-29_09h40.53.875,vts_reward_expectancy_bt,2022.2.4,Win32,59.97001499,Chrome,1211,808,,,,,10,1134,,,,,,,,,,,,,,,,,F,167,circle,1,1,,,,,,,,,,,,,,,,repeat,number,numRpt,k,0.4833,Lo,,,,,,4,,,,,,,,high,20,0,20,0,1,,,,,,,,,
298081,2022-11-29_09h40.53.875,vts_reward_expectancy_bt,2022.2.4,Win32,59.97001499,Chrome,1211,808,,,,,0,1134,,,,,,,,,,,,,,,,,H,146,hexagon,1,0,,,,,,,,,,,,,,,,repeat,number,numRpt,j,0.4009,Hi,,,,,,4,,,,,,,,high,21,0,21,0,1,,,,,,,,,
298081,2022-11-29_09h40.53.875,vts_reward_expectancy_bt,2022.2.4,Win32,59.97001499,Chrome,1211,808,,,,,10,1144,,,,,,,,,,,,,,,,,D,181,star,1,0,,,,,,,,,,,,,,,,repeat,number,numRpt,k,0.483,Lo,,,,,,4,,,,,,,,high,22,0,22,0,1,,,,,,,,,
298081,2022-11-29_09h40.53.875,vts_reward_expectancy_bt,2022.2.4,Win32,59.97001499,Chrome,1211,808,,,,,0,1144,,,,,,,,,,,,,,,,,W,125,triangle,1,0,,,,,,,,,,,,,,,,repeat,number,numRpt,j,0.5192,Hi,,,,,,4,,,,,,,,high,23,0,23,0,1,,,,,,,,,
298081,2022-11-29_09h40.53.875,vts_reward_expectancy_bt,2022.2.4,Win32,59.97001499,Chrome,1211,808,,,,,0,1144,,,,,,,,,,,,,,,,,H,160,star,0,0,,,,,,,,,,,,,,,,repeat,number,NA,j,0.6027,Hi,,,,,,4,,,,,,,,high,24,0,24,0,1,,,,,,,,,
298081,2022-11-29_09h40.53.875,vts_reward_expectancy_bt,2022.2.4,Win32,59.97001499,Chrome,1211,808,,,,,0,1144,,,,,,,,,,,,,,,,,Y,181,hexagon,1,1,,,,,,,,,,,,,,,,repeat,number,numRpt,k,0.5337,Hi,,,,,,4,,,,,,,,high,25,0,25,0,1,,,,,,,,,
298081,2022-11-29_09h40.53.875,vts_reward_expectancy_bt,2022.2.4,Win32,59.97001499,Chrome,1211,808,,,,,0,1144,,,,,,,,,,,,,,,,,D,174,triangle,1,0,,,,,,,,,,,,,,,,repeat,number,numRpt,k,0.6197,Hi,,,,,,4,,,,,,,,high,26,0,26,0,1,,,,,,,,,
298081,2022-11-29_09h40.53.875,vts_reward_expectancy_bt,2022.2.4,Win32,59.97001499,Chrome,1211,808,,,,,1,1145,,,,,,,,,,,,,,,,,S,146,circle,1,0,,,,,,,,,,,,,,,,repeat,number,numRpt,j,0.5167,Lo,,,,,,4,,,,,,,,high,27,0,27,0,1,,,,,,,,,
298081,2022-11-29_09h40.53.875,vts_reward_expectancy_bt,2022.2.4,Win32,59.97001499,Chrome,1211,808,,,,,0,1145,,,,,,,,,,,,,,,,,B,125,triangle,1,0,,,,,,,,,,,,,,,,repeat,number,numRpt,j,0.7171,Hi,,,,,,4,,,,,,,,high,28,0,28,0,1,,,,,,,,,
298081,2022-11-29_09h40.53.875,vts_reward_expectancy_bt,2022.2.4,Win32,59.97001499,Chrome,1211,808,,,,,1,1146,,,,,,,,,,,,,,,,,F,132,star,1,0,,,,,,,,,,,,,,,,repeat,number,numRpt,j,0.5693,Lo,,,,,,4,,,,,,,,high,29,0,29,0,1,,,,,,,,,
298081,2022-11-29_09h40.53.875,vts_reward_expectancy_bt,2022.2.4,Win32,59.97001499,Chrome,1211,808,,,,,0,1146,,,,,,,,,,,,,,,,,W,139,hexagon,1,0,,,,,,,,,,,,,,,,repeat,number,numRpt,j,0.5827,Hi,,,,,,4,,,,,,,,high,30,0,30,0,1,,,,,,,,,
298081,2022-11-29_09h40.53.875,vts_reward_expectancy_bt,2022.2.4,Win32,59.97001499,Chrome,1211,808,,,,,10,1156,,,,,,,,,,,,,,,,,U,167,circle,1,0,,,,,,,,,,,,,,,,repeat,number,numRpt,k,0.5996,Lo,,,,,,4,,,,,,,,high,31,0,31,0,1,,,,,,,,,
298081,2022-11-29_09h40.53.875,vts_reward_expectancy_bt,2022.2.4,Win32,59.97001499,Chrome,1211,808,,,,,0,1156,,,,,,,,,,,,,,,,,W,181,hexagon,0,0,,,,,,,,,,,,,,,,switch,letter,NA,d,0.5004,Lo,,,,,,5,,,,,,space,26.1515,high,0,0,0,0,1,,,,,,,,,
298081,2022-11-29_09h40.53.875,vts_reward_expectancy_bt,2022.2.4,Win32,59.97001499,Chrome,1211,808,,,,,1,1157,,,,,,,,,,,,,,,,,B,125,star,1,1,,,,,,,,,,,,,,,,switch,number,numSwt,j,0.6504,Lo,,,,,,5,,,,,,,,high,1,0,1,0,1,,,,,,,,,
298081,2022-11-29_09h40.53.875,vts_reward_expectancy_bt,2022.2.4,Win32,59.97001499,Chrome,1211,808,,,,,1,1158,,,,,,,,,,,,,,,,,H,139,circle,1,0,,,,,,,,,,,,,,,,switch,letter,lettSwt,d,0.6505,Lo,,,,,,5,,,,,,,,high,2,0,2,0,1,,,,,,,,,
298081,2022-11-29_09h40.53.875,vts_reward_expectancy_bt,2022.2.4,Win32,59.97001499,Chrome,1211,808,,,,,0,1158,,,,,,,,,,,,,,,,,Y,160,triangle,1,0,,,,,,,,,,,,,,,,switch,number,numSwt,k,0.551,Hi,,,,,,5,,,,,,,,high,3,0,3,0,1,,,,,,,,,
298081,2022-11-29_09h40.53.875,vts_reward_expectancy_bt,2022.2.4,Win32,59.97001499,Chrome,1211,808,,,,,0,1158,,,,,,,,,,,,,,,,,D,132,hexagon,1,0,,,,,,,,,,,,,,,,switch,letter,lettSwt,d,0.8004,Hi,,,,,,5,,,,,,,,high,4,0,4,0,1,,,,,,,,,
298081,2022-11-29_09h40.53.875,vts_reward_expectancy_bt,2022.2.4,Win32,59.97001499,Chrome,1211,808,,,,,1,1159,,,,,,,,,,,,,,,,,U,174,star,1,0,,,,,,,,,,,,,,,,repeat,letter,lettRpt,f,0.5504,Lo,,,,,,5,,,,,,,,high,5,0,5,0,1,,,,,,,,,
298081,2022-11-29_09h40.53.875,vts_reward_expectancy_bt,2022.2.4,Win32,59.97001499,Chrome,1211,808,,,,,1,1160,,,,,,,,,,,,,,,,,S,167,circle,1,0,,,,,,,,,,,,,,,,repeat,letter,lettRpt,f,0.6181,Lo,,,,,,5,,,,,,,,high,6,0,6,0,1,,,,,,,,,
298081,2022-11-29_09h40.53.875,vts_reward_expectancy_bt,2022.2.4,Win32,59.97001499,Chrome,1211,808,,,,,0,1160,,,,,,,,,,,,,,,,,F,146,triangle,1,0,,,,,,,,,,,,,,,,repeat,letter,lettRpt,d,0.4846,Hi,,,,,,5,,,,,,,,high,7,0,7,0,1,,,,,,,,,
298081,2022-11-29_09h40.53.875,vts_reward_expectancy_bt,2022.2.4,Win32,59.97001499,Chrome,1211,808,,,,,1,1161,,,,,,,,,,,,,,,,,W,181,star,1,0,,,,,,,,,,,,,,,,repeat,letter,lettRpt,f,0.5017,Lo,,,,,,5,,,,,,,,high,8,0,8,0,1,,,,,,,,,
298081,2022-11-29_09h40.53.875,vts_reward_expectancy_bt,2022.2.4,Win32,59.97001499,Chrome,1211,808,,,,,1,1162,,,,,,,,,,,,,,,,,B,125,hexagon,1,0,,,,,,,,,,,,,,,,switch,number,numSwt,j,0.434,Hi,,,,,,5,,,,,,,,high,9,0,9,0,1,,,,,,,,,
298081,2022-11-29_09h40.53.875,vts_reward_expectancy_bt,2022.2.4,Win32,59.97001499,Chrome,1211,808,,,,,1,1163,,,,,,,,,,,,,,,,,H,139,circle,1,0,,,,,,,,,,,,,,,,switch,letter,lettSwt,d,0.735,Lo,,,,,,5,,,,,,,,high,10,0,10,0,1,,,,,,,,,
298081,2022-11-29_09h40.53.875,vts_reward_expectancy_bt,2022.2.4,Win32,59.97001499,Chrome,1211,808,,,,,0,1163,,,,,,,,,,,,,,,,,Y,160,triangle,1,0,,,,,,,,,,,,,,,,repeat,letter,lettRpt,f,0.6005,Hi,,,,,,5,,,,,,,,high,11,0,11,0,1,,,,,,,,,
298081,2022-11-29_09h40.53.875,vts_reward_expectancy_bt,2022.2.4,Win32,59.97001499,Chrome,1211,808,,,,,0,1163,,,,,,,,,,,,,,,,,D,132,hexagon,1,0,,,,,,,,,,,,,,,,repeat,letter,lettRpt,d,0.6668,Hi,,,,,,5,,,,,,,,high,12,0,12,0,1,,,,,,,,,
298081,2022-11-29_09h40.53.875,vts_reward_expectancy_bt,2022.2.4,Win32,59.97001499,Chrome,1211,808,,,,,1,1164,,,,,,,,,,,,,,,,,U,174,circle,1,0,,,,,,,,,,,,,,,,repeat,letter,lettRpt,f,0.5499,Lo,,,,,,5,,,,,,,,high,13,0,13,0,1,,,,,,,,,
298081,2022-11-29_09h40.53.875,vts_reward_expectancy_bt,2022.2.4,Win32,59.97001499,Chrome,1211,808,,,,,10,1174,,,,,,,,,,,,,,,,,S,167,star,1,0,,,,,,,,,,,,,,,,switch,number,numSwt,k,0.5181,Lo,,,,,,5,,,,,,,,high,14,0,14,0,1,,,,,,,,,
298081,2022-11-29_09h40.53.875,vts_reward_expectancy_bt,2022.2.4,Win32,59.97001499,Chrome,1211,808,,,,,1,1175,,,,,,,,,,,,,,,,,F,146,triangle,1,0,,,,,,,,,,,,,,,,repeat,number,numRpt,j,0.4675,Hi,,,,,,5,,,,,,,,high,15,0,15,0,1,,,,,,,,,
298081,2022-11-29_09h40.53.875,vts_reward_expectancy_bt,2022.2.4,Win32,59.97001499,Chrome,1211,808,,,,,1,1176,,,,,,,,,,,,,,,,,S,174,triangle,1,0,,,,,,,,,,,,,,,,repeat,number,numRpt,k,0.3856,Hi,,,,,,5,,,,,,,,high,16,0,16,0,1,,,,,,,,,
298081,2022-11-29_09h40.53.875,vts_reward_expectancy_bt,2022.2.4,Win32,59.97001499,Chrome,1211,808,,,,,1,1177,,,,,,,,,,,,,,,,,H,146,circle,1,0,,,,,,,,,,,,,,,,repeat,number,numRpt,j,0.4524,Lo,,,,,,5,,,,,,,,high,17,0,17,0,1,,,,,,,,,
298081,2022-11-29_09h40.53.875,vts_reward_expectancy_bt,2022.2.4,Win32,59.97001499,Chrome,1211,808,,,,,1,1178,,,,,,,,,,,,,,,,,W,160,star,1,0,,,,,,,,,,,,,,,,repeat,number,numRpt,k,0.6351,Lo,,,,,,5,,,,,,,,high,18,0,18,0,1,,,,,,,,,
298081,2022-11-29_09h40.53.875,vts_reward_expectancy_bt,2022.2.4,Win32,59.97001499,Chrome,1211,808,,,,,10,1188,,,,,,,,,,,,,,,,,D,181,hexagon,1,0,,,,,,,,,,,,,,,,switch,letter,lettSwt,d,0.2995,Hi,,,,,,5,,,,,,,,high,19,0,19,0,1,,,,,,,,,
298081,2022-11-29_09h40.53.875,vts_reward_expectancy_bt,2022.2.4,Win32,59.97001499,Chrome,1211,808,,,,,1,1189,,,,,,,,,,,,,,,,,B,139,star,1,0,,,,,,,,,,,,,,,,repeat,letter,lettRpt,d,0.4179,Lo,,,,,,5,,,,,,,,high,20,0,20,0,1,,,,,,,,,
298081,2022-11-29_09h40.53.875,vts_reward_expectancy_bt,2022.2.4,Win32,59.97001499,Chrome,1211,808,,,,,0,1189,,,,,,,,,,,,,,,,,F,125,circle,0,0,,,,,,,,,,,,,,,,repeat,letter,NA,f,0.3816,Lo,,,,,,5,,,,,,,,high,21,0,21,0,1,,,,,,,,,
298081,2022-11-29_09h40.53.875,vts_reward_expectancy_bt,2022.2.4,Win32,59.97001499,Chrome,1211,808,,,,,10,1199,,,,,,,,,,,,,,,,,U,132,triangle,1,1,,,,,,,,,,,,,,,,switch,number,numSwt,j,0.4334,Hi,,,,,,5,,,,,,,,high,22,0,22,0,1,,,,,,,,,
298081,2022-11-29_09h40.53.875,vts_reward_expectancy_bt,2022.2.4,Win32,59.97001499,Chrome,1211,808,,,,,1,1200,,,,,,,,,,,,,,,,,Y,167,hexagon,1,0,,,,,,,,,,,,,,,,repeat,number,numRpt,k,0.4672,Hi,,,,,,5,,,,,,,,high,23,0,23,0,1,,,,,,,,,
298081,2022-11-29_09h40.53.875,vts_reward_expectancy_bt,2022.2.4,Win32,59.97001499,Chrome,1211,808,,,,,1,1201,,,,,,,,,,,,,,,,,F,132,star,1,0,,,,,,,,,,,,,,,,repeat,number,numRpt,j,0.6183,Lo,,,,,,5,,,,,,,,high,24,0,24,0,1,,,,,,,,,
298081,2022-11-29_09h40.53.875,vts_reward_expectancy_bt,2022.2.4,Win32,59.97001499,Chrome,1211,808,,,,,1,1202,,,,,,,,,,,,,,,,,U,174,circle,1,0,,,,,,,,,,,,,,,,repeat,number,numRpt,k,0.5511,Lo,,,,,,5,,,,,,,,high,25,0,25,0,1,,,,,,,,,
298081,2022-11-29_09h40.53.875,vts_reward_expectancy_bt,2022.2.4,Win32,59.97001499,Chrome,1211,808,,,,,0,1202,,,,,,,,,,,,,,,,,S,125,triangle,1,0,,,,,,,,,,,,,,,,repeat,number,numRpt,j,0.5854,Hi,,,,,,5,,,,,,,,high,26,0,26,0,1,,,,,,,,,
298081,2022-11-29_09h40.53.875,vts_reward_expectancy_bt,2022.2.4,Win32,59.97001499,Chrome,1211,808,,,,,0,1202,,,,,,,,,,,,,,,,,Y,139,hexagon,1,0,,,,,,,,,,,,,,,,repeat,number,numRpt,j,0.7347,Hi,,,,,,5,,,,,,,,high,27,0,27,0,1,,,,,,,,,
298081,2022-11-29_09h40.53.875,vts_reward_expectancy_bt,2022.2.4,Win32,59.97001499,Chrome,1211,808,,,,,1,1203,,,,,,,,,,,,,,,,,W,167,circle,1,0,,,,,,,,,,,,,,,,repeat,number,numRpt,k,0.719,Lo,,,,,,5,,,,,,,,high,28,0,28,0,1,,,,,,,,,
298081,2022-11-29_09h40.53.875,vts_reward_expectancy_bt,2022.2.4,Win32,59.97001499,Chrome,1211,808,,,,,1,1204,,,,,,,,,,,,,,,,,H,181,star,1,0,,,,,,,,,,,,,,,,repeat,number,numRpt,k,0.5171,Lo,,,,,,5,,,,,,,,high,29,0,29,0,1,,,,,,,,,
298081,2022-11-29_09h40.53.875,vts_reward_expectancy_bt,2022.2.4,Win32,59.97001499,Chrome,1211,808,,,,,0,1204,,,,,,,,,,,,,,,,,B,146,hexagon,1,0,,,,,,,,,,,,,,,,repeat,number,numRpt,j,0.584,Hi,,,,,,5,,,,,,,,high,30,0,30,0,1,,,,,,,,,
298081,2022-11-29_09h40.53.875,vts_reward_expectancy_bt,2022.2.4,Win32,59.97001499,Chrome,1211,808,,,,,0,1204,,,,,,,,,,,,,,,,,D,160,triangle,1,0,,,,,,,,,,,,,,,,repeat,number,numRpt,k,0.5338,Hi,,,,,,5,,,,,,,,high,31,0,31,0,1,,,,,,,,,
298081,2022-11-29_09h40.53.875,vts_reward_expectancy_bt,2022.2.4,Win32,59.97001499,Chrome,1211,808,,,,,1,1205,,,,,,,,,,,,,,,,,H,160,star,1,0,,,,,,,,,,,,,,,,switch,letter,lettSwt,d,0.4846,Lo,,,,,,6,,,,,,space,0.3677,high,0,0,0,0,1,,,,,,,,,
298081,2022-11-29_09h40.53.875,vts_reward_expectancy_bt,2022.2.4,Win32,59.97001499,Chrome,1211,808,,,,,1,1206,,,,,,,,,,,,,,,,,F,146,circle,1,0,,,,,,,,,,,,,,,,repeat,letter,lettRpt,d,0.4015,Lo,,,,,,6,,,,,,,,high,1,0,1,0,1,,,,,,,,,
298081,2022-11-29_09h40.53.875,vts_reward_expectancy_bt,2022.2.4,Win32,59.97001499,Chrome,1211,808,,,,,10,1216,,,,,,,,,,,,,,,,,D,174,hexagon,1,0,,,,,,,,,,,,,,,,repeat,letter,lettRpt,d,0.4342,Hi,,,,,,6,,,,,,,,high,2,0,2,0,1,,,,,,,,,
298081,2022-11-29_09h40.53.875,vts_reward_expectancy_bt,2022.2.4,Win32,59.97001499,Chrome,1211,808,,,,,0,1216,,,,,,,,,,,,,,,,,S,139,triangle,1,0,,,,,,,,,,,,,,,,switch,number,numSwt,j,0.4855,Hi,,,,,,6,,,,,,,,high,3,0,3,0,1,,,,,,,,,
298081,2022-11-29_09h40.53.875,vts_reward_expectancy_bt,2022.2.4,Win32,59.97001499,Chrome,1211,808,,,,,1,1217,,,,,,,,,,,,,,,,,U,181,star,1,0,,,,,,,,,,,,,,,,repeat,number,numRpt,k,0.5174,Lo,,,,,,6,,,,,,,,high,4,0,4,0,1,,,,,,,,,
298081,2022-11-29_09h40.53.875,vts_reward_expectancy_bt,2022.2.4,Win32,59.97001499,Chrome,1211,808,,,,,1,1218,,,,,,,,,,,,,,,,,W,125,circle,1,0,,,,,,,,,,,,,,,,repeat,number,numRpt,j,0.3678,Lo,,,,,,6,,,,,,,,high,5,0,5,0,1,,,,,,,,,
298081,2022-11-29_09h40.53.875,vts_reward_expectancy_bt,2022.2.4,Win32,59.97001499,Chrome,1211,808,,,,,10,1228,,,,,,,,,,,,,,,,,Y,132,hexagon,1,0,,,,,,,,,,,,,,,,repeat,number,numRpt,j,0.4337,Hi,,,,,,6,,,,,,,,high,6,0,6,0,1,,,,,,,,,
298081,2022-11-29_09h40.53.875,vts_reward_expectancy_bt,2022.2.4,Win32,59.97001499,Chrome,1211,808,,,,,10,1238,,,,,,,,,,,,,,,,,B,167,triangle,1,0,,,,,,,,,,,,,,,,switch,letter,lettSwt,d,0.5643,Hi,,,,,,6,,,,,,,,high,7,0,7,0,1,,,,,,,,,
298081,2022-11-29_09h40.53.875,vts_reward_expectancy_bt,2022.2.4,Win32,59.97001499,Chrome,1211,808,,,,,10,1248,,,,,,,,,,,,,,,,,H,160,hexagon,1,0,,,,,,,,,,,,,,,,repeat,letter,lettRpt,d,0.4707,Hi,,,,,,6,,,,,,,,high,8,0,8,0,1,,,,,,,,,
298081,2022-11-29_09h40.53.875,vts_reward_expectancy_bt,2022.2.4,Win32,59.97001499,Chrome,1211,808,,,,,1,1249,,,,,,,,,,,,,,,,,F,146,star,1,0,,,,,,,,,,,,,,,,switch,number,numSwt,j,0.3668,Lo,,,,,,6,,,,,,,,high,9,0,9,0,1,,,,,,,,,
298081,2022-11-29_09h40.53.875,vts_reward_expectancy_bt,2022.2.4,Win32,59.97001499,Chrome,1211,808,,,,,1,1250,,,,,,,,,,,,,,,,,D,174,circle,1,0,,,,,,,,,,,,,,,,switch,letter,lettSwt,d,0.4674,Lo,,,,,,6,,,,,,,,high,10,0,10,0,1,,,,,,,,,
298081,2022-11-29_09h40.53.875,vts_reward_expectancy_bt,2022.2.4,Win32,59.97001499,Chrome,1211,808,,,,,1,1251,,,,,,,,,,,,,,,,,S,139,triangle,1,0,,,,,,,,,,,,,,,,repeat,letter,lettRpt,f,0.2673,Hi,,,,,,6,,,,,,,,high,11,0,11,0,1,,,,,,,,,
298081,2022-11-29_09h40.53.875,vts_reward_expectancy_bt,2022.2.4,Win32,59.97001499,Chrome,1211,808,,,,,0,1251,,,,,,,,,,,,,,,,,U,181,triangle,0,0,,,,,,,,,,,,,,,,repeat,letter,NA,d,0.4005,Hi,,,,,,6,,,,,,,,high,12,0,12,0,1,,,,,,,,,
298081,2022-11-29_09h40.53.875,vts_reward_expectancy_bt,2022.2.4,Win32,59.97001499,Chrome,1211,808,,,,,1,1252,,,,,,,,,,,,,,,,,W,125,circle,1,1,,,,,,,,,,,,,,,,repeat,letter,lettRpt,f,0.7005,Lo,,,,,,6,,,,,,,,high,13,0,13,0,1,,,,,,,,,
298081,2022-11-29_09h40.53.875,vts_reward_expectancy_bt,2022.2.4,Win32,59.97001499,Chrome,1211,808,,,,,1,1253,,,,,,,,,,,,,,,,,Y,132,star,1,0,,,,,,,,,,,,,,,,repeat,letter,lettRpt,f,0.5504,Lo,,,,,,6,,,,,,,,high,14,0,14,0,1,,,,,,,,,
298081,2022-11-29_09h40.53.875,vts_reward_expectancy_bt,2022.2.4,Win32,59.97001499,Chrome,1211,808,,,,,10,1263,,,,,,,,,,,,,,,,,B,167,hexagon,1,0,,,,,,,,,,,,,,,,repeat,letter,lettRpt,d,0.4521,Hi,,,,,,6,,,,,,,,high,15,0,15,0,1,,,,,,,,,
