participant,date,expName,psychopyVersion,OS,frameRate,browser,xResolution,yResolution,key_resp.keys,key_resp.rt,training_resp.keys,training_resp.rt,points_trial,points_cumul,trainBlock,training.thisRepN,training.thisTrialN,training.thisN,training.thisIndex,training.ran,LTriangleOpac,LCircleOpac,LHexagonOpac,LStarOpac,RTriangleOpac,RCircleOpac,RHexagonOpac,RStarOpac,LShape_ID,RShape_ID,curr_topStim,curr_bottStim,curr_shape,acc,E1,target_resp_prac1.keys,target_resp_prac1.rt,pracBlock,task1_prac_trials.thisRepN,task1_prac_trials.thisTrialN,task1_prac_trials.thisN,task1_prac_trials.thisIndex,task1_prac_trials.ran,target_resp_prac2.keys,target_resp_prac2.rt,task2_praac_trials.thisRepN,task2_praac_trials.thisTrialN,task2_praac_trials.thisN,task2_praac_trials.thisIndex,task2_praac_trials.ran,alt,task,condition,target_resp.keys,target_resp.rt,rewCond,vts_practice_trials.thisRepN,vts_practice_trials.thisTrialN,vts_practice_trials.thisN,vts_practice_trials.thisIndex,vts_practice_trials.ran,blockNum,trials_norew.thisRepN,trials_norew.thisTrialN,trials_norew.thisN,trials_norew.thisIndex,trials_norew.ran,key_resp_2.keys,key_resp_2.rt,rewExpectancy,trials_rew.thisRepN,trials_rew.thisTrialN,trials_rew.thisN,trials_rew.thisIndex,trials_rew.ran,Q1,Q2,Q2_text,Q3,Q4,Q5,Q5_text,xRes,yRes
298099,2022-12-05_21h30.52.575,vts_reward_expectancy_bt,2022.2.4,Win32,60.0132029,Chrome,1536,864,,,,,,,,,,,,,,,,,,,,,,,,,,,,,,,,,,,,,,,,,,,,,,,,,,,,,,,,,,,,,,,,,,,,,,,,,,,,
298099,2022-12-05_21h30.52.575,vts_reward_expectancy_bt,2022.2.4,Win32,60.0132029,Chrome,1536,864,space,13.6569,,,,,,,,,,,,,,,,,,,,,,,,,,,,,,,,,,,,,,,,,,,,,,,,,,,,,,,,,,,,,,,,,,,,,,,,,,
298099,2022-12-05_21h30.52.575,vts_reward_expectancy_bt,2022.2.4,Win32,60.0132029,Chrome,1536,864,,,,,,,,,,,,,,,,,,,,,,,,,,,,,,,,,,,,,,,,,,,,,,,,,,,,,,,,,,,,,,,,,,,,,,,,,,,,
298099,2022-12-05_21h30.52.575,vts_reward_expectancy_bt,2022.2.4,Win32,60.0132029,Chrome,1536,864,,,a,3.8875,1,1,0,0,0,0,0,1,1,0,0,0,0,1,0,0,triangle,circle,,,,,,,,,,,,,,,,,,,,,,,,,,,,,,,,,,,,,,,,,,,,,,,,,,,,,,
298099,2022-12-05_21h30.52.575,vts_reward_expectancy_bt,2022.2.4,Win32,60.0132029,Chrome,1536,864,,,a,1.8878,10,11,0,0,1,1,9,1,0,0,0,1,1,0,0,0,star,triangle,,,,,,,,,,,,,,,,,,,,,,,,,,,,,,,,,,,,,,,,,,,,,,,,,,,,,,
298099,2022-12-05_21h30.52.575,vts_reward_expectancy_bt,2022.2.4,Win32,60.0132029,Chrome,1536,864,,,a,1.129,10,21,0,0,2,2,10,1,0,0,0,1,0,1,0,0,star ,circle,,,,,,,,,,,,,,,,,,,,,,,,,,,,,,,,,,,,,,,,,,,,,,,,,,,,,,
298099,2022-12-05_21h30.52.575,vts_reward_expectancy_bt,2022.2.4,Win32,60.0132029,Chrome,1536,864,,,a,1.8802,10,31,0,0,3,3,7,1,0,0,1,0,0,1,0,0,hexagon,circle,,,,,,,,,,,,,,,,,,,,,,,,,,,,,,,,,,,,,,,,,,,,,,,,,,,,,,
298099,2022-12-05_21h30.52.575,vts_reward_expectancy_bt,2022.2.4,Win32,60.0132029,Chrome,1536,864,,,l,0.856,10,41,0,0,4,4,4,1,0,1,0,0,0,0,1,0,circle,hexagon,,,,,,,,,,,,,,,,,,,,,,,,,,,,,,,,,,,,,,,,,,,,,,,,,,,,,,
298099,2022-12-05_21h30.52.575,vts_reward_expectancy_bt,2022.2.4,Win32,60.0132029,Chrome,1536,864,,,a,2.2097,10,51,0,0,5,5,6,1,0,0,1,0,1,0,0,0,hexagon,triangle,,,,,,,,,,,,,,,,,,,,,,,,,,,,,,,,,,,,,,,,,,,,,,,,,,,,,,
298099,2022-12-05_21h30.52.575,vts_reward_expectancy_bt,2022.2.4,Win32,60.0132029,Chrome,1536,864,,,l,1.2762,1,52,0,0,6,6,1,1,1,0,0,0,0,0,1,0,triangle,hexagon,,,,,,,,,,,,,,,,,,,,,,,,,,,,,,,,,,,,,,,,,,,,,,,,,,,,,,
298099,2022-12-05_21h30.52.575,vts_reward_expectancy_bt,2022.2.4,Win32,60.0132029,Chrome,1536,864,,,l,0.6991,10,62,0,0,7,7,2,1,1,0,0,0,0,0,0,1,triangle,star,,,,,,,,,,,,,,,,,,,,,,,,,,,,,,,,,,,,,,,,,,,,,,,,,,,,,,
298099,2022-12-05_21h30.52.575,vts_reward_expectancy_bt,2022.2.4,Win32,60.0132029,Chrome,1536,864,,,l,0.8138,10,72,0,0,8,8,5,1,0,1,0,0,0,0,0,1,circle,star,,,,,,,,,,,,,,,,,,,,,,,,,,,,,,,,,,,,,,,,,,,,,,,,,,,,,,
298099,2022-12-05_21h30.52.575,vts_reward_expectancy_bt,2022.2.4,Win32,60.0132029,Chrome,1536,864,,,l,0.5338,10,82,0,0,9,9,8,1,0,0,1,0,0,0,0,1,hexagon,star,,,,,,,,,,,,,,,,,,,,,,,,,,,,,,,,,,,,,,,,,,,,,,,,,,,,,,
298099,2022-12-05_21h30.52.575,vts_reward_expectancy_bt,2022.2.4,Win32,60.0132029,Chrome,1536,864,,,l,1.2547,1,83,0,0,10,10,3,1,0,1,0,0,1,0,0,0,circle,triangle,,,,,,,,,,,,,,,,,,,,,,,,,,,,,,,,,,,,,,,,,,,,,,,,,,,,,,
298099,2022-12-05_21h30.52.575,vts_reward_expectancy_bt,2022.2.4,Win32,60.0132029,Chrome,1536,864,,,a,0.7252,10,93,0,0,11,11,11,1,0,0,0,1,0,0,1,0,star,hexagon,,,,,,,,,,,,,,,,,,,,,,,,,,,,,,,,,,,,,,,,,,,,,,,,,,,,,,
298099,2022-12-05_21h30.52.575,vts_reward_expectancy_bt,2022.2.4,Win32,60.0132029,Chrome,1536,864,,,a,1.3073,10,103,0,1,0,12,7,1,0,0,1,0,0,1,0,0,hexagon,circle,,,,,,,,,,,,,,,,,,,,,,,,,,,,,,,,,,,,,,,,,,,,,,,,,,,,,,
298099,2022-12-05_21h30.52.575,vts_reward_expectancy_bt,2022.2.4,Win32,60.0132029,Chrome,1536,864,,,l,0.5651,10,113,0,1,1,13,8,1,0,0,1,0,0,0,0,1,hexagon,star,,,,,,,,,,,,,,,,,,,,,,,,,,,,,,,,,,,,,,,,,,,,,,,,,,,,,,
298099,2022-12-05_21h30.52.575,vts_reward_expectancy_bt,2022.2.4,Win32,60.0132029,Chrome,1536,864,,,a,0.4713,10,123,0,1,2,14,10,1,0,0,0,1,0,1,0,0,star ,circle,,,,,,,,,,,,,,,,,,,,,,,,,,,,,,,,,,,,,,,,,,,,,,,,,,,,,,
298099,2022-12-05_21h30.52.575,vts_reward_expectancy_bt,2022.2.4,Win32,60.0132029,Chrome,1536,864,,,l,1.1691,10,133,0,1,3,15,1,1,1,0,0,0,0,0,1,0,triangle,hexagon,,,,,,,,,,,,,,,,,,,,,,,,,,,,,,,,,,,,,,,,,,,,,,,,,,,,,,
298099,2022-12-05_21h30.52.575,vts_reward_expectancy_bt,2022.2.4,Win32,60.0132029,Chrome,1536,864,,,l,1.488,1,134,0,1,4,16,0,1,1,0,0,0,0,1,0,0,triangle,circle,,,,,,,,,,,,,,,,,,,,,,,,,,,,,,,,,,,,,,,,,,,,,,,,,,,,,,
298099,2022-12-05_21h30.52.575,vts_reward_expectancy_bt,2022.2.4,Win32,60.0132029,Chrome,1536,864,,,a,1.0609,1,135,0,1,5,17,6,1,0,0,1,0,1,0,0,0,hexagon,triangle,,,,,,,,,,,,,,,,,,,,,,,,,,,,,,,,,,,,,,,,,,,,,,,,,,,,,,
298099,2022-12-05_21h30.52.575,vts_reward_expectancy_bt,2022.2.4,Win32,60.0132029,Chrome,1536,864,,,l,1.1375,10,145,0,1,6,18,3,1,0,1,0,0,1,0,0,0,circle,triangle,,,,,,,,,,,,,,,,,,,,,,,,,,,,,,,,,,,,,,,,,,,,,,,,,,,,,,
298099,2022-12-05_21h30.52.575,vts_reward_expectancy_bt,2022.2.4,Win32,60.0132029,Chrome,1536,864,,,l,0.884,10,155,0,1,7,19,4,1,0,1,0,0,0,0,1,0,circle,hexagon,,,,,,,,,,,,,,,,,,,,,,,,,,,,,,,,,,,,,,,,,,,,,,,,,,,,,,
298099,2022-12-05_21h30.52.575,vts_reward_expectancy_bt,2022.2.4,Win32,60.0132029,Chrome,1536,864,,,l,0.5539,10,165,0,1,8,20,5,1,0,1,0,0,0,0,0,1,circle,star,,,,,,,,,,,,,,,,,,,,,,,,,,,,,,,,,,,,,,,,,,,,,,,,,,,,,,
298099,2022-12-05_21h30.52.575,vts_reward_expectancy_bt,2022.2.4,Win32,60.0132029,Chrome,1536,864,,,l,0.4695,10,175,0,1,9,21,2,1,1,0,0,0,0,0,0,1,triangle,star,,,,,,,,,,,,,,,,,,,,,,,,,,,,,,,,,,,,,,,,,,,,,,,,,,,,,,
298099,2022-12-05_21h30.52.575,vts_reward_expectancy_bt,2022.2.4,Win32,60.0132029,Chrome,1536,864,,,a,0.4613,10,185,0,1,10,22,9,1,0,0,0,1,1,0,0,0,star,triangle,,,,,,,,,,,,,,,,,,,,,,,,,,,,,,,,,,,,,,,,,,,,,,,,,,,,,,
298099,2022-12-05_21h30.52.575,vts_reward_expectancy_bt,2022.2.4,Win32,60.0132029,Chrome,1536,864,,,a,0.4386,10,195,0,1,11,23,11,1,0,0,0,1,0,0,1,0,star,hexagon,,,,,,,,,,,,,,,,,,,,,,,,,,,,,,,,,,,,,,,,,,,,,,,,,,,,,,
298099,2022-12-05_21h30.52.575,vts_reward_expectancy_bt,2022.2.4,Win32,60.0132029,Chrome,1536,864,,,l,0.3731,10,205,0,2,0,24,5,1,0,1,0,0,0,0,0,1,circle,star,,,,,,,,,,,,,,,,,,,,,,,,,,,,,,,,,,,,,,,,,,,,,,,,,,,,,,
298099,2022-12-05_21h30.52.575,vts_reward_expectancy_bt,2022.2.4,Win32,60.0132029,Chrome,1536,864,,,a,0.3758,10,215,0,2,1,25,9,1,0,0,0,1,1,0,0,0,star,triangle,,,,,,,,,,,,,,,,,,,,,,,,,,,,,,,,,,,,,,,,,,,,,,,,,,,,,,
298099,2022-12-05_21h30.52.575,vts_reward_expectancy_bt,2022.2.4,Win32,60.0132029,Chrome,1536,864,,,a,0.4377,10,225,0,2,2,26,11,1,0,0,0,1,0,0,1,0,star,hexagon,,,,,,,,,,,,,,,,,,,,,,,,,,,,,,,,,,,,,,,,,,,,,,,,,,,,,,
298099,2022-12-05_21h30.52.575,vts_reward_expectancy_bt,2022.2.4,Win32,60.0132029,Chrome,1536,864,,,a,1.0281,10,235,0,2,3,27,6,1,0,0,1,0,1,0,0,0,hexagon,triangle,,,,,,,,,,,,,,,,,,,,,,,,,,,,,,,,,,,,,,,,,,,,,,,,,,,,,,
298099,2022-12-05_21h30.52.575,vts_reward_expectancy_bt,2022.2.4,Win32,60.0132029,Chrome,1536,864,,,l,0.9077,10,245,0,2,4,28,4,1,0,1,0,0,0,0,1,0,circle,hexagon,,,,,,,,,,,,,,,,,,,,,,,,,,,,,,,,,,,,,,,,,,,,,,,,,,,,,,
298099,2022-12-05_21h30.52.575,vts_reward_expectancy_bt,2022.2.4,Win32,60.0132029,Chrome,1536,864,,,a,0.8214,1,246,0,2,5,29,0,1,1,0,0,0,0,1,0,0,triangle,circle,,,,,,,,,,,,,,,,,,,,,,,,,,,,,,,,,,,,,,,,,,,,,,,,,,,,,,
298099,2022-12-05_21h30.52.575,vts_reward_expectancy_bt,2022.2.4,Win32,60.0132029,Chrome,1536,864,,,l,0.8788,1,247,0,2,6,30,1,1,1,0,0,0,0,0,1,0,triangle,hexagon,,,,,,,,,,,,,,,,,,,,,,,,,,,,,,,,,,,,,,,,,,,,,,,,,,,,,,
298099,2022-12-05_21h30.52.575,vts_reward_expectancy_bt,2022.2.4,Win32,60.0132029,Chrome,1536,864,,,a,0.4844,1,248,0,2,7,31,10,1,0,0,0,1,0,1,0,0,star ,circle,,,,,,,,,,,,,,,,,,,,,,,,,,,,,,,,,,,,,,,,,,,,,,,,,,,,,,
298099,2022-12-05_21h30.52.575,vts_reward_expectancy_bt,2022.2.4,Win32,60.0132029,Chrome,1536,864,,,l,0.4608,10,258,0,2,8,32,8,1,0,0,1,0,0,0,0,1,hexagon,star,,,,,,,,,,,,,,,,,,,,,,,,,,,,,,,,,,,,,,,,,,,,,,,,,,,,,,
298099,2022-12-05_21h30.52.575,vts_reward_expectancy_bt,2022.2.4,Win32,60.0132029,Chrome,1536,864,,,l,1.4712,10,268,0,2,9,33,3,1,0,1,0,0,1,0,0,0,circle,triangle,,,,,,,,,,,,,,,,,,,,,,,,,,,,,,,,,,,,,,,,,,,,,,,,,,,,,,
298099,2022-12-05_21h30.52.575,vts_reward_expectancy_bt,2022.2.4,Win32,60.0132029,Chrome,1536,864,,,l,0.5427,10,278,0,2,10,34,2,1,1,0,0,0,0,0,0,1,triangle,star,,,,,,,,,,,,,,,,,,,,,,,,,,,,,,,,,,,,,,,,,,,,,,,,,,,,,,
298099,2022-12-05_21h30.52.575,vts_reward_expectancy_bt,2022.2.4,Win32,60.0132029,Chrome,1536,864,,,a,0.707,10,288,0,2,11,35,7,1,0,0,1,0,0,1,0,0,hexagon,circle,,,,,,,,,,,,,,,,,,,,,,,,,,,,,,,,,,,,,,,,,,,,,,,,,,,,,,
298099,2022-12-05_21h30.52.575,vts_reward_expectancy_bt,2022.2.4,Win32,60.0132029,Chrome,1536,864,,,l,0.9192,10,298,1,0,0,0,8,1,0,0,1,0,0,0,0,1,hexagon,star,,,,,,,,,,,,,,,,,,,,,,,,,,,,,,,,,,,,,,,,,,,,,,,,,,,,,,
298099,2022-12-05_21h30.52.575,vts_reward_expectancy_bt,2022.2.4,Win32,60.0132029,Chrome,1536,864,,,a,0.5188,10,308,1,0,1,1,7,1,0,0,1,0,0,1,0,0,hexagon,circle,,,,,,,,,,,,,,,,,,,,,,,,,,,,,,,,,,,,,,,,,,,,,,,,,,,,,,
298099,2022-12-05_21h30.52.575,vts_reward_expectancy_bt,2022.2.4,Win32,60.0132029,Chrome,1536,864,,,l,0.4806,1,309,1,0,2,2,3,1,0,1,0,0,1,0,0,0,circle,triangle,,,,,,,,,,,,,,,,,,,,,,,,,,,,,,,,,,,,,,,,,,,,,,,,,,,,,,
298099,2022-12-05_21h30.52.575,vts_reward_expectancy_bt,2022.2.4,Win32,60.0132029,Chrome,1536,864,,,a,0.3609,10,319,1,0,3,3,11,1,0,0,0,1,0,0,1,0,star,hexagon,,,,,,,,,,,,,,,,,,,,,,,,,,,,,,,,,,,,,,,,,,,,,,,,,,,,,,
298099,2022-12-05_21h30.52.575,vts_reward_expectancy_bt,2022.2.4,Win32,60.0132029,Chrome,1536,864,,,l,0.9017,10,329,1,0,4,4,1,1,1,0,0,0,0,0,1,0,triangle,hexagon,,,,,,,,,,,,,,,,,,,,,,,,,,,,,,,,,,,,,,,,,,,,,,,,,,,,,,
298099,2022-12-05_21h30.52.575,vts_reward_expectancy_bt,2022.2.4,Win32,60.0132029,Chrome,1536,864,,,a,0.3855,1,330,1,0,5,5,9,1,0,0,0,1,1,0,0,0,star,triangle,,,,,,,,,,,,,,,,,,,,,,,,,,,,,,,,,,,,,,,,,,,,,,,,,,,,,,
298099,2022-12-05_21h30.52.575,vts_reward_expectancy_bt,2022.2.4,Win32,60.0132029,Chrome,1536,864,,,l,0.4705,10,340,1,0,6,6,5,1,0,1,0,0,0,0,0,1,circle,star,,,,,,,,,,,,,,,,,,,,,,,,,,,,,,,,,,,,,,,,,,,,,,,,,,,,,,
298099,2022-12-05_21h30.52.575,vts_reward_expectancy_bt,2022.2.4,Win32,60.0132029,Chrome,1536,864,,,a,0.4502,1,341,1,0,7,7,0,1,1,0,0,0,0,1,0,0,triangle,circle,,,,,,,,,,,,,,,,,,,,,,,,,,,,,,,,,,,,,,,,,,,,,,,,,,,,,,
298099,2022-12-05_21h30.52.575,vts_reward_expectancy_bt,2022.2.4,Win32,60.0132029,Chrome,1536,864,,,l,0.4521,10,351,1,0,8,8,2,1,1,0,0,0,0,0,0,1,triangle,star,,,,,,,,,,,,,,,,,,,,,,,,,,,,,,,,,,,,,,,,,,,,,,,,,,,,,,
298099,2022-12-05_21h30.52.575,vts_reward_expectancy_bt,2022.2.4,Win32,60.0132029,Chrome,1536,864,,,a,0.32,10,361,1,0,9,9,10,1,0,0,0,1,0,1,0,0,star ,circle,,,,,,,,,,,,,,,,,,,,,,,,,,,,,,,,,,,,,,,,,,,,,,,,,,,,,,
298099,2022-12-05_21h30.52.575,vts_reward_expectancy_bt,2022.2.4,Win32,60.0132029,Chrome,1536,864,,,a,0.7205,10,371,1,0,10,10,6,1,0,0,1,0,1,0,0,0,hexagon,triangle,,,,,,,,,,,,,,,,,,,,,,,,,,,,,,,,,,,,,,,,,,,,,,,,,,,,,,
298099,2022-12-05_21h30.52.575,vts_reward_expectancy_bt,2022.2.4,Win32,60.0132029,Chrome,1536,864,,,l,0.7408,1,372,1,0,11,11,4,1,0,1,0,0,0,0,1,0,circle,hexagon,,,,,,,,,,,,,,,,,,,,,,,,,,,,,,,,,,,,,,,,,,,,,,,,,,,,,,
298099,2022-12-05_21h30.52.575,vts_reward_expectancy_bt,2022.2.4,Win32,60.0132029,Chrome,1536,864,,,a,0.417,10,382,1,1,0,12,7,1,0,0,1,0,0,1,0,0,hexagon,circle,,,,,,,,,,,,,,,,,,,,,,,,,,,,,,,,,,,,,,,,,,,,,,,,,,,,,,
298099,2022-12-05_21h30.52.575,vts_reward_expectancy_bt,2022.2.4,Win32,60.0132029,Chrome,1536,864,,,a,0.3976,10,392,1,1,1,13,10,1,0,0,0,1,0,1,0,0,star ,circle,,,,,,,,,,,,,,,,,,,,,,,,,,,,,,,,,,,,,,,,,,,,,,,,,,,,,,
298099,2022-12-05_21h30.52.575,vts_reward_expectancy_bt,2022.2.4,Win32,60.0132029,Chrome,1536,864,,,a,0.3534,10,402,1,1,2,14,9,1,0,0,0,1,1,0,0,0,star,triangle,,,,,,,,,,,,,,,,,,,,,,,,,,,,,,,,,,,,,,,,,,,,,,,,,,,,,,
298099,2022-12-05_21h30.52.575,vts_reward_expectancy_bt,2022.2.4,Win32,60.0132029,Chrome,1536,864,,,l,0.5931,10,412,1,1,3,15,1,1,1,0,0,0,0,0,1,0,triangle,hexagon,,,,,,,,,,,,,,,,,,,,,,,,,,,,,,,,,,,,,,,,,,,,,,,,,,,,,,
298099,2022-12-05_21h30.52.575,vts_reward_expectancy_bt,2022.2.4,Win32,60.0132029,Chrome,1536,864,,,l,0.3844,10,422,1,1,4,16,2,1,1,0,0,0,0,0,0,1,triangle,star,,,,,,,,,,,,,,,,,,,,,,,,,,,,,,,,,,,,,,,,,,,,,,,,,,,,,,
298099,2022-12-05_21h30.52.575,vts_reward_expectancy_bt,2022.2.4,Win32,60.0132029,Chrome,1536,864,,,l,0.389,10,432,1,1,5,17,5,1,0,1,0,0,0,0,0,1,circle,star,,,,,,,,,,,,,,,,,,,,,,,,,,,,,,,,,,,,,,,,,,,,,,,,,,,,,,
298099,2022-12-05_21h30.52.575,vts_reward_expectancy_bt,2022.2.4,Win32,60.0132029,Chrome,1536,864,,,a,0.3382,1,433,1,1,6,18,0,1,1,0,0,0,0,1,0,0,triangle,circle,,,,,,,,,,,,,,,,,,,,,,,,,,,,,,,,,,,,,,,,,,,,,,,,,,,,,,
298099,2022-12-05_21h30.52.575,vts_reward_expectancy_bt,2022.2.4,Win32,60.0132029,Chrome,1536,864,,,a,0.4108,10,443,1,1,7,19,11,1,0,0,0,1,0,0,1,0,star,hexagon,,,,,,,,,,,,,,,,,,,,,,,,,,,,,,,,,,,,,,,,,,,,,,,,,,,,,,
298099,2022-12-05_21h30.52.575,vts_reward_expectancy_bt,2022.2.4,Win32,60.0132029,Chrome,1536,864,,,a,0.8152,10,453,1,1,8,20,6,1,0,0,1,0,1,0,0,0,hexagon,triangle,,,,,,,,,,,,,,,,,,,,,,,,,,,,,,,,,,,,,,,,,,,,,,,,,,,,,,
298099,2022-12-05_21h30.52.575,vts_reward_expectancy_bt,2022.2.4,Win32,60.0132029,Chrome,1536,864,,,l,0.3754,1,454,1,1,9,21,3,1,0,1,0,0,1,0,0,0,circle,triangle,,,,,,,,,,,,,,,,,,,,,,,,,,,,,,,,,,,,,,,,,,,,,,,,,,,,,,
298099,2022-12-05_21h30.52.575,vts_reward_expectancy_bt,2022.2.4,Win32,60.0132029,Chrome,1536,864,,,a,0.4024,1,455,1,1,10,22,4,1,0,1,0,0,0,0,1,0,circle,hexagon,,,,,,,,,,,,,,,,,,,,,,,,,,,,,,,,,,,,,,,,,,,,,,,,,,,,,,
298099,2022-12-05_21h30.52.575,vts_reward_expectancy_bt,2022.2.4,Win32,60.0132029,Chrome,1536,864,,,l,0.4037,10,465,1,1,11,23,8,1,0,0,1,0,0,0,0,1,hexagon,star,,,,,,,,,,,,,,,,,,,,,,,,,,,,,,,,,,,,,,,,,,,,,,,,,,,,,,
298099,2022-12-05_21h30.52.575,vts_reward_expectancy_bt,2022.2.4,Win32,60.0132029,Chrome,1536,864,,,a,0.4134,1,466,1,2,0,24,1,1,1,0,0,0,0,0,1,0,triangle,hexagon,,,,,,,,,,,,,,,,,,,,,,,,,,,,,,,,,,,,,,,,,,,,,,,,,,,,,,
298099,2022-12-05_21h30.52.575,vts_reward_expectancy_bt,2022.2.4,Win32,60.0132029,Chrome,1536,864,,,a,0.4498,10,476,1,2,1,25,9,1,0,0,0,1,1,0,0,0,star,triangle,,,,,,,,,,,,,,,,,,,,,,,,,,,,,,,,,,,,,,,,,,,,,,,,,,,,,,
298099,2022-12-05_21h30.52.575,vts_reward_expectancy_bt,2022.2.4,Win32,60.0132029,Chrome,1536,864,,,l,0.4627,10,486,1,2,2,26,2,1,1,0,0,0,0,0,0,1,triangle,star,,,,,,,,,,,,,,,,,,,,,,,,,,,,,,,,,,,,,,,,,,,,,,,,,,,,,,
298099,2022-12-05_21h30.52.575,vts_reward_expectancy_bt,2022.2.4,Win32,60.0132029,Chrome,1536,864,,,l,0.517,1,487,1,2,3,27,8,1,0,0,1,0,0,0,0,1,hexagon,star,,,,,,,,,,,,,,,,,,,,,,,,,,,,,,,,,,,,,,,,,,,,,,,,,,,,,,
298099,2022-12-05_21h30.52.575,vts_reward_expectancy_bt,2022.2.4,Win32,60.0132029,Chrome,1536,864,,,a,0.8594,1,488,1,2,4,28,6,1,0,0,1,0,1,0,0,0,hexagon,triangle,,,,,,,,,,,,,,,,,,,,,,,,,,,,,,,,,,,,,,,,,,,,,,,,,,,,,,
298099,2022-12-05_21h30.52.575,vts_reward_expectancy_bt,2022.2.4,Win32,60.0132029,Chrome,1536,864,,,a,1.0789,10,498,1,2,5,29,4,1,0,1,0,0,0,0,1,0,circle,hexagon,,,,,,,,,,,,,,,,,,,,,,,,,,,,,,,,,,,,,,,,,,,,,,,,,,,,,,
298099,2022-12-05_21h30.52.575,vts_reward_expectancy_bt,2022.2.4,Win32,60.0132029,Chrome,1536,864,,,l,0.4106,1,499,1,2,6,30,5,1,0,1,0,0,0,0,0,1,circle,star,,,,,,,,,,,,,,,,,,,,,,,,,,,,,,,,,,,,,,,,,,,,,,,,,,,,,,
298099,2022-12-05_21h30.52.575,vts_reward_expectancy_bt,2022.2.4,Win32,60.0132029,Chrome,1536,864,,,l,0.4435,1,500,1,2,7,31,10,1,0,0,0,1,0,1,0,0,star ,circle,,,,,,,,,,,,,,,,,,,,,,,,,,,,,,,,,,,,,,,,,,,,,,,,,,,,,,
298099,2022-12-05_21h30.52.575,vts_reward_expectancy_bt,2022.2.4,Win32,60.0132029,Chrome,1536,864,,,a,0.3554,1,501,1,2,8,32,11,1,0,0,0,1,0,0,1,0,star,hexagon,,,,,,,,,,,,,,,,,,,,,,,,,,,,,,,,,,,,,,,,,,,,,,,,,,,,,,
298099,2022-12-05_21h30.52.575,vts_reward_expectancy_bt,2022.2.4,Win32,60.0132029,Chrome,1536,864,,,l,0.7692,1,502,1,2,9,33,3,1,0,1,0,0,1,0,0,0,circle,triangle,,,,,,,,,,,,,,,,,,,,,,,,,,,,,,,,,,,,,,,,,,,,,,,,,,,,,,
298099,2022-12-05_21h30.52.575,vts_reward_expectancy_bt,2022.2.4,Win32,60.0132029,Chrome,1536,864,,,l,0.6748,1,503,1,2,10,34,0,1,1,0,0,0,0,1,0,0,triangle,circle,,,,,,,,,,,,,,,,,,,,,,,,,,,,,,,,,,,,,,,,,,,,,,,,,,,,,,
298099,2022-12-05_21h30.52.575,vts_reward_expectancy_bt,2022.2.4,Win32,60.0132029,Chrome,1536,864,,,l,0.6825,1,504,1,2,11,35,7,1,0,0,1,0,0,1,0,0,hexagon,circle,,,,,,,,,,,,,,,,,,,,,,,,,,,,,,,,,,,,,,,,,,,,,,,,,,,,,,
298099,2022-12-05_21h30.52.575,vts_reward_expectancy_bt,2022.2.4,Win32,60.0132029,Chrome,1536,864,,,a,2.0406,10,514,2,0,0,0,11,1,0,0,0,1,0,0,1,0,star,hexagon,,,,,,,,,,,,,,,,,,,,,,,,,,,,,,,,,,,,,,,,,,,,,,,,,,,,,,
298099,2022-12-05_21h30.52.575,vts_reward_expectancy_bt,2022.2.4,Win32,60.0132029,Chrome,1536,864,,,l,0.9457,10,524,2,0,1,1,4,1,0,1,0,0,0,0,1,0,circle,hexagon,,,,,,,,,,,,,,,,,,,,,,,,,,,,,,,,,,,,,,,,,,,,,,,,,,,,,,
298099,2022-12-05_21h30.52.575,vts_reward_expectancy_bt,2022.2.4,Win32,60.0132029,Chrome,1536,864,,,l,0.9063,10,534,2,0,2,2,1,1,1,0,0,0,0,0,1,0,triangle,hexagon,,,,,,,,,,,,,,,,,,,,,,,,,,,,,,,,,,,,,,,,,,,,,,,,,,,,,,
298099,2022-12-05_21h30.52.575,vts_reward_expectancy_bt,2022.2.4,Win32,60.0132029,Chrome,1536,864,,,a,0.504,10,544,2,0,3,3,7,1,0,0,1,0,0,1,0,0,hexagon,circle,,,,,,,,,,,,,,,,,,,,,,,,,,,,,,,,,,,,,,,,,,,,,,,,,,,,,,
298099,2022-12-05_21h30.52.575,vts_reward_expectancy_bt,2022.2.4,Win32,60.0132029,Chrome,1536,864,,,a,1.2101,1,545,2,0,4,4,3,1,0,1,0,0,1,0,0,0,circle,triangle,,,,,,,,,,,,,,,,,,,,,,,,,,,,,,,,,,,,,,,,,,,,,,,,,,,,,,
298099,2022-12-05_21h30.52.575,vts_reward_expectancy_bt,2022.2.4,Win32,60.0132029,Chrome,1536,864,,,l,0.505,1,546,2,0,5,5,9,1,0,0,0,1,1,0,0,0,star,triangle,,,,,,,,,,,,,,,,,,,,,,,,,,,,,,,,,,,,,,,,,,,,,,,,,,,,,,
298099,2022-12-05_21h30.52.575,vts_reward_expectancy_bt,2022.2.4,Win32,60.0132029,Chrome,1536,864,,,l,0.4615,1,547,2,0,6,6,8,1,0,0,1,0,0,0,0,1,hexagon,star,,,,,,,,,,,,,,,,,,,,,,,,,,,,,,,,,,,,,,,,,,,,,,,,,,,,,,
298099,2022-12-05_21h30.52.575,vts_reward_expectancy_bt,2022.2.4,Win32,60.0132029,Chrome,1536,864,,,a,0.4508,1,548,2,0,7,7,10,1,0,0,0,1,0,1,0,0,star ,circle,,,,,,,,,,,,,,,,,,,,,,,,,,,,,,,,,,,,,,,,,,,,,,,,,,,,,,
298099,2022-12-05_21h30.52.575,vts_reward_expectancy_bt,2022.2.4,Win32,60.0132029,Chrome,1536,864,,,a,0.5377,1,549,2,0,8,8,0,1,1,0,0,0,0,1,0,0,triangle,circle,,,,,,,,,,,,,,,,,,,,,,,,,,,,,,,,,,,,,,,,,,,,,,,,,,,,,,
298099,2022-12-05_21h30.52.575,vts_reward_expectancy_bt,2022.2.4,Win32,60.0132029,Chrome,1536,864,,,l,0.3831,10,559,2,0,9,9,5,1,0,1,0,0,0,0,0,1,circle,star,,,,,,,,,,,,,,,,,,,,,,,,,,,,,,,,,,,,,,,,,,,,,,,,,,,,,,
298099,2022-12-05_21h30.52.575,vts_reward_expectancy_bt,2022.2.4,Win32,60.0132029,Chrome,1536,864,,,l,0.4135,10,569,2,0,10,10,2,1,1,0,0,0,0,0,0,1,triangle,star,,,,,,,,,,,,,,,,,,,,,,,,,,,,,,,,,,,,,,,,,,,,,,,,,,,,,,
298099,2022-12-05_21h30.52.575,vts_reward_expectancy_bt,2022.2.4,Win32,60.0132029,Chrome,1536,864,,,a,0.3911,10,579,2,0,11,11,6,1,0,0,1,0,1,0,0,0,hexagon,triangle,,,,,,,,,,,,,,,,,,,,,,,,,,,,,,,,,,,,,,,,,,,,,,,,,,,,,,
298099,2022-12-05_21h30.52.575,vts_reward_expectancy_bt,2022.2.4,Win32,60.0132029,Chrome,1536,864,,,a,0.1412,10,589,2,1,0,12,10,1,0,0,0,1,0,1,0,0,star ,circle,,,,,,,,,,,,,,,,,,,,,,,,,,,,,,,,,,,,,,,,,,,,,,,,,,,,,,
298099,2022-12-05_21h30.52.575,vts_reward_expectancy_bt,2022.2.4,Win32,60.0132029,Chrome,1536,864,,,a,0.5858,10,599,2,1,1,13,0,1,1,0,0,0,0,1,0,0,triangle,circle,,,,,,,,,,,,,,,,,,,,,,,,,,,,,,,,,,,,,,,,,,,,,,,,,,,,,,
298099,2022-12-05_21h30.52.575,vts_reward_expectancy_bt,2022.2.4,Win32,60.0132029,Chrome,1536,864,,,a,0.4209,10,609,2,1,2,14,6,1,0,0,1,0,1,0,0,0,hexagon,triangle,,,,,,,,,,,,,,,,,,,,,,,,,,,,,,,,,,,,,,,,,,,,,,,,,,,,,,
298099,2022-12-05_21h30.52.575,vts_reward_expectancy_bt,2022.2.4,Win32,60.0132029,Chrome,1536,864,,,l,1.212,10,619,2,1,3,15,4,1,0,1,0,0,0,0,1,0,circle,hexagon,,,,,,,,,,,,,,,,,,,,,,,,,,,,,,,,,,,,,,,,,,,,,,,,,,,,,,
298099,2022-12-05_21h30.52.575,vts_reward_expectancy_bt,2022.2.4,Win32,60.0132029,Chrome,1536,864,,,a,0.4749,10,629,2,1,4,16,7,1,0,0,1,0,0,1,0,0,hexagon,circle,,,,,,,,,,,,,,,,,,,,,,,,,,,,,,,,,,,,,,,,,,,,,,,,,,,,,,
298099,2022-12-05_21h30.52.575,vts_reward_expectancy_bt,2022.2.4,Win32,60.0132029,Chrome,1536,864,,,a,1.4356,10,639,2,1,5,17,9,1,0,0,0,1,1,0,0,0,star,triangle,,,,,,,,,,,,,,,,,,,,,,,,,,,,,,,,,,,,,,,,,,,,,,,,,,,,,,
298099,2022-12-05_21h30.52.575,vts_reward_expectancy_bt,2022.2.4,Win32,60.0132029,Chrome,1536,864,,,l,0.4677,10,649,2,1,6,18,5,1,0,1,0,0,0,0,0,1,circle,star,,,,,,,,,,,,,,,,,,,,,,,,,,,,,,,,,,,,,,,,,,,,,,,,,,,,,,
298099,2022-12-05_21h30.52.575,vts_reward_expectancy_bt,2022.2.4,Win32,60.0132029,Chrome,1536,864,,,a,0.4546,1,650,2,1,7,19,1,1,1,0,0,0,0,0,1,0,triangle,hexagon,,,,,,,,,,,,,,,,,,,,,,,,,,,,,,,,,,,,,,,,,,,,,,,,,,,,,,
298099,2022-12-05_21h30.52.575,vts_reward_expectancy_bt,2022.2.4,Win32,60.0132029,Chrome,1536,864,,,l,0.4347,10,660,2,1,8,20,8,1,0,0,1,0,0,0,0,1,hexagon,star,,,,,,,,,,,,,,,,,,,,,,,,,,,,,,,,,,,,,,,,,,,,,,,,,,,,,,
298099,2022-12-05_21h30.52.575,vts_reward_expectancy_bt,2022.2.4,Win32,60.0132029,Chrome,1536,864,,,l,0.4604,10,670,2,1,9,21,2,1,1,0,0,0,0,0,0,1,triangle,star,,,,,,,,,,,,,,,,,,,,,,,,,,,,,,,,,,,,,,,,,,,,,,,,,,,,,,
298099,2022-12-05_21h30.52.575,vts_reward_expectancy_bt,2022.2.4,Win32,60.0132029,Chrome,1536,864,,,l,0.4459,1,671,2,1,10,22,3,1,0,1,0,0,1,0,0,0,circle,triangle,,,,,,,,,,,,,,,,,,,,,,,,,,,,,,,,,,,,,,,,,,,,,,,,,,,,,,
298099,2022-12-05_21h30.52.575,vts_reward_expectancy_bt,2022.2.4,Win32,60.0132029,Chrome,1536,864,,,a,0.3547,10,681,2,1,11,23,11,1,0,0,0,1,0,0,1,0,star,hexagon,,,,,,,,,,,,,,,,,,,,,,,,,,,,,,,,,,,,,,,,,,,,,,,,,,,,,,
298099,2022-12-05_21h30.52.575,vts_reward_expectancy_bt,2022.2.4,Win32,60.0132029,Chrome,1536,864,,,l,0.3987,1,682,2,2,0,24,3,1,0,1,0,0,1,0,0,0,circle,triangle,,,,,,,,,,,,,,,,,,,,,,,,,,,,,,,,,,,,,,,,,,,,,,,,,,,,,,
298099,2022-12-05_21h30.52.575,vts_reward_expectancy_bt,2022.2.4,Win32,60.0132029,Chrome,1536,864,,,a,0.5907,10,692,2,2,1,25,7,1,0,0,1,0,0,1,0,0,hexagon,circle,,,,,,,,,,,,,,,,,,,,,,,,,,,,,,,,,,,,,,,,,,,,,,,,,,,,,,
298099,2022-12-05_21h30.52.575,vts_reward_expectancy_bt,2022.2.4,Win32,60.0132029,Chrome,1536,864,,,a,0.4502,10,702,2,2,2,26,6,1,0,0,1,0,1,0,0,0,hexagon,triangle,,,,,,,,,,,,,,,,,,,,,,,,,,,,,,,,,,,,,,,,,,,,,,,,,,,,,,
298099,2022-12-05_21h30.52.575,vts_reward_expectancy_bt,2022.2.4,Win32,60.0132029,Chrome,1536,864,,,a,0.4784,10,712,2,2,3,27,9,1,0,0,0,1,1,0,0,0,star,triangle,,,,,,,,,,,,,,,,,,,,,,,,,,,,,,,,,,,,,,,,,,,,,,,,,,,,,,
298099,2022-12-05_21h30.52.575,vts_reward_expectancy_bt,2022.2.4,Win32,60.0132029,Chrome,1536,864,,,l,0.7325,1,713,2,2,4,28,1,1,1,0,0,0,0,0,1,0,triangle,hexagon,,,,,,,,,,,,,,,,,,,,,,,,,,,,,,,,,,,,,,,,,,,,,,,,,,,,,,
298099,2022-12-05_21h30.52.575,vts_reward_expectancy_bt,2022.2.4,Win32,60.0132029,Chrome,1536,864,,,l,0.4898,1,714,2,2,5,29,4,1,0,1,0,0,0,0,1,0,circle,hexagon,,,,,,,,,,,,,,,,,,,,,,,,,,,,,,,,,,,,,,,,,,,,,,,,,,,,,,
298099,2022-12-05_21h30.52.575,vts_reward_expectancy_bt,2022.2.4,Win32,60.0132029,Chrome,1536,864,,,l,0.3897,10,724,2,2,6,30,5,1,0,1,0,0,0,0,0,1,circle,star,,,,,,,,,,,,,,,,,,,,,,,,,,,,,,,,,,,,,,,,,,,,,,,,,,,,,,
298099,2022-12-05_21h30.52.575,vts_reward_expectancy_bt,2022.2.4,Win32,60.0132029,Chrome,1536,864,,,a,0.9703,10,734,2,2,7,31,10,1,0,0,0,1,0,1,0,0,star ,circle,,,,,,,,,,,,,,,,,,,,,,,,,,,,,,,,,,,,,,,,,,,,,,,,,,,,,,
298099,2022-12-05_21h30.52.575,vts_reward_expectancy_bt,2022.2.4,Win32,60.0132029,Chrome,1536,864,,,a,1.2024,10,744,2,2,8,32,0,1,1,0,0,0,0,1,0,0,triangle,circle,,,,,,,,,,,,,,,,,,,,,,,,,,,,,,,,,,,,,,,,,,,,,,,,,,,,,,
298099,2022-12-05_21h30.52.575,vts_reward_expectancy_bt,2022.2.4,Win32,60.0132029,Chrome,1536,864,,,l,0.4333,10,754,2,2,9,33,2,1,1,0,0,0,0,0,0,1,triangle,star,,,,,,,,,,,,,,,,,,,,,,,,,,,,,,,,,,,,,,,,,,,,,,,,,,,,,,
298099,2022-12-05_21h30.52.575,vts_reward_expectancy_bt,2022.2.4,Win32,60.0132029,Chrome,1536,864,,,a,0.3491,10,764,2,2,10,34,11,1,0,0,0,1,0,0,1,0,star,hexagon,,,,,,,,,,,,,,,,,,,,,,,,,,,,,,,,,,,,,,,,,,,,,,,,,,,,,,
298099,2022-12-05_21h30.52.575,vts_reward_expectancy_bt,2022.2.4,Win32,60.0132029,Chrome,1536,864,,,l,0.3627,10,774,2,2,11,35,8,1,0,0,1,0,0,0,0,1,hexagon,star,,,,,,,,,,,,,,,,,,,,,,,,,,,,,,,,,,,,,,,,,,,,,,,,,,,,,,
298099,2022-12-05_21h30.52.575,vts_reward_expectancy_bt,2022.2.4,Win32,60.0132029,Chrome,1536,864,,,,,,,,,,,,,,,,,,,,,,,181,U,hexagon,1,0,f,1.0996,0,0,0,0,0,1,,,,,,,,,,,,,,,,,,,,,,,,,,,,,,,,,,,,,,,,,
298099,2022-12-05_21h30.52.575,vts_reward_expectancy_bt,2022.2.4,Win32,60.0132029,Chrome,1536,864,,,,,,,,,,,,,,,,,,,,,,,139,H,triangle,1,0,d,0.7271,0,1,0,1,0,1,,,,,,,,,,,,,,,,,,,,,,,,,,,,,,,,,,,,,,,,,
298099,2022-12-05_21h30.52.575,vts_reward_expectancy_bt,2022.2.4,Win32,60.0132029,Chrome,1536,864,,,,,,,,,,,,,,,,,,,,,,,174,Y,circle,1,0,f,0.4744,0,2,0,2,0,1,,,,,,,,,,,,,,,,,,,,,,,,,,,,,,,,,,,,,,,,,
298099,2022-12-05_21h30.52.575,vts_reward_expectancy_bt,2022.2.4,Win32,60.0132029,Chrome,1536,864,,,,,,,,,,,,,,,,,,,,,,,125,S,star,1,0,d,0.5419,0,3,0,3,0,1,,,,,,,,,,,,,,,,,,,,,,,,,,,,,,,,,,,,,,,,,
298099,2022-12-05_21h30.52.575,vts_reward_expectancy_bt,2022.2.4,Win32,60.0132029,Chrome,1536,864,,,,,,,,,,,,,,,,,,,,,,,132,W,hexagon,1,0,d,0.549,0,4,0,4,0,1,,,,,,,,,,,,,,,,,,,,,,,,,,,,,,,,,,,,,,,,,
298099,2022-12-05_21h30.52.575,vts_reward_expectancy_bt,2022.2.4,Win32,60.0132029,Chrome,1536,864,,,,,,,,,,,,,,,,,,,,,,,160,D,triangle,1,0,f,0.8098,0,5,0,5,0,1,,,,,,,,,,,,,,,,,,,,,,,,,,,,,,,,,,,,,,,,,
298099,2022-12-05_21h30.52.575,vts_reward_expectancy_bt,2022.2.4,Win32,60.0132029,Chrome,1536,864,,,,,,,,,,,,,,,,,,,,,,,167,F,circle,1,0,f,0.7371,0,6,0,6,0,1,,,,,,,,,,,,,,,,,,,,,,,,,,,,,,,,,,,,,,,,,
298099,2022-12-05_21h30.52.575,vts_reward_expectancy_bt,2022.2.4,Win32,60.0132029,Chrome,1536,864,,,,,,,,,,,,,,,,,,,,,,,146,B,star,0,0,f,0.64,0,7,0,7,0,1,,,,,,,,,,,,,,,,,,,,,,,,,,,,,,,,,,,,,,,,,
298099,2022-12-05_21h30.52.575,vts_reward_expectancy_bt,2022.2.4,Win32,60.0132029,Chrome,1536,864,,,,,,,,,,,,,,,,,,,,,,,181,U,triangle,1,1,f,0.9072,0,8,0,8,0,1,,,,,,,,,,,,,,,,,,,,,,,,,,,,,,,,,,,,,,,,,
298099,2022-12-05_21h30.52.575,vts_reward_expectancy_bt,2022.2.4,Win32,60.0132029,Chrome,1536,864,,,,,,,,,,,,,,,,,,,,,,,139,H,star,1,0,d,0.5345,0,9,0,9,0,1,,,,,,,,,,,,,,,,,,,,,,,,,,,,,,,,,,,,,,,,,
298099,2022-12-05_21h30.52.575,vts_reward_expectancy_bt,2022.2.4,Win32,60.0132029,Chrome,1536,864,,,,,,,,,,,,,,,,,,,,,,,139,S,star,1,0,,,1,,,,,,k,2.6814,0,0,0,0,1,,,,,,,,,,,,,,,,,,,,,,,,,,,,,,,,,,
298099,2022-12-05_21h30.52.575,vts_reward_expectancy_bt,2022.2.4,Win32,60.0132029,Chrome,1536,864,,,,,,,,,,,,,,,,,,,,,,,125,W,hexagon,1,0,,,1,,,,,,k,0.7679,1,0,1,0,1,,,,,,,,,,,,,,,,,,,,,,,,,,,,,,,,,,
298099,2022-12-05_21h30.52.575,vts_reward_expectancy_bt,2022.2.4,Win32,60.0132029,Chrome,1536,864,,,,,,,,,,,,,,,,,,,,,,,160,B,triangle,1,0,,,1,,,,,,j,1.65,2,0,2,0,1,,,,,,,,,,,,,,,,,,,,,,,,,,,,,,,,,,
298099,2022-12-05_21h30.52.575,vts_reward_expectancy_bt,2022.2.4,Win32,60.0132029,Chrome,1536,864,,,,,,,,,,,,,,,,,,,,,,,174,D,circle,1,0,,,1,,,,,,j,1.1422,3,0,3,0,1,,,,,,,,,,,,,,,,,,,,,,,,,,,,,,,,,,
298099,2022-12-05_21h30.52.575,vts_reward_expectancy_bt,2022.2.4,Win32,60.0132029,Chrome,1536,864,,,,,,,,,,,,,,,,,,,,,,,167,F,star,1,0,,,1,,,,,,j,0.6395,4,0,4,0,1,,,,,,,,,,,,,,,,,,,,,,,,,,,,,,,,,,
298099,2022-12-05_21h30.52.575,vts_reward_expectancy_bt,2022.2.4,Win32,60.0132029,Chrome,1536,864,,,,,,,,,,,,,,,,,,,,,,,181,H,hexagon,1,0,,,1,,,,,,j,0.8766,5,0,5,0,1,,,,,,,,,,,,,,,,,,,,,,,,,,,,,,,,,,
298099,2022-12-05_21h30.52.575,vts_reward_expectancy_bt,2022.2.4,Win32,60.0132029,Chrome,1536,864,,,,,,,,,,,,,,,,,,,,,,,146,U,triangle,1,0,,,1,,,,,,k,0.6707,6,0,6,0,1,,,,,,,,,,,,,,,,,,,,,,,,,,,,,,,,,,
298099,2022-12-05_21h30.52.575,vts_reward_expectancy_bt,2022.2.4,Win32,60.0132029,Chrome,1536,864,,,,,,,,,,,,,,,,,,,,,,,132,Y,circle,1,0,,,1,,,,,,k,0.6017,7,0,7,0,1,,,,,,,,,,,,,,,,,,,,,,,,,,,,,,,,,,
298099,2022-12-05_21h30.52.575,vts_reward_expectancy_bt,2022.2.4,Win32,60.0132029,Chrome,1536,864,,,,,,,,,,,,,,,,,,,,,,,139,S,star,1,0,,,1,,,,,,k,1.3542,8,0,8,0,1,,,,,,,,,,,,,,,,,,,,,,,,,,,,,,,,,,
298099,2022-12-05_21h30.52.575,vts_reward_expectancy_bt,2022.2.4,Win32,60.0132029,Chrome,1536,864,,,,,,,,,,,,,,,,,,,,,,,125,W,triangle,1,0,,,1,,,,,,k,1.2036,9,0,9,0,1,,,,,,,,,,,,,,,,,,,,,,,,,,,,,,,,,,
298099,2022-12-05_21h30.52.575,vts_reward_expectancy_bt,2022.2.4,Win32,60.0132029,Chrome,1536,864,,,,,0,774,,,,,,,,,,,,,,,,,125,F,triangle,1,0,,,2,,,,,,,,,,,,,-1,number,NA,d,1.1505,vtsPrac,0,0,0,0,1,,,,,,,,,,,,,,,,,,,,,,,
298099,2022-12-05_21h30.52.575,vts_reward_expectancy_bt,2022.2.4,Win32,60.0132029,Chrome,1536,864,,,,,0,774,,,,,,,,,,,,,,,,,160,B,hexagon,1,0,,,2,,,,,,,,,,,,,repeat,number,numRpt,f,1.0387,vtsPrac,1,0,1,0,1,,,,,,,,,,,,,,,,,,,,,,,
298099,2022-12-05_21h30.52.575,vts_reward_expectancy_bt,2022.2.4,Win32,60.0132029,Chrome,1536,864,,,,,0,774,,,,,,,,,,,,,,,,,181,D,triangle,1,0,,,2,,,,,,,,,,,,,switch,letter,lettSwt,j,1.4741,vtsPrac,2,0,2,0,1,,,,,,,,,,,,,,,,,,,,,,,
298099,2022-12-05_21h30.52.575,vts_reward_expectancy_bt,2022.2.4,Win32,60.0132029,Chrome,1536,864,,,,,0,774,,,,,,,,,,,,,,,,,174,H,hexagon,1,0,,,2,,,,,,,,,,,,,switch,number,numSwt,f,1.034,vtsPrac,3,0,3,0,1,,,,,,,,,,,,,,,,,,,,,,,
298099,2022-12-05_21h30.52.575,vts_reward_expectancy_bt,2022.2.4,Win32,60.0132029,Chrome,1536,864,,,,,0,774,,,,,,,,,,,,,,,,,125,F,hexagon,1,0,,,2,,,,,,,,,,,,,switch,letter,lettSwt,j,0.9714,vtsPrac,4,0,4,0,1,,,,,,,,,,,,,,,,,,,,,,,
298099,2022-12-05_21h30.52.575,vts_reward_expectancy_bt,2022.2.4,Win32,60.0132029,Chrome,1536,864,,,,,0,774,,,,,,,,,,,,,,,,,160,B,circle,1,0,,,2,,,,,,,,,,,,,repeat,letter,lettRpt,j,0.8539,vtsPrac,5,0,5,0,1,,,,,,,,,,,,,,,,,,,,,,,
298099,2022-12-05_21h30.52.575,vts_reward_expectancy_bt,2022.2.4,Win32,60.0132029,Chrome,1536,864,,,,,0,774,,,,,,,,,,,,,,,,,181,D,star,1,0,,,2,,,,,,,,,,,,,switch,number,numSwt,f,0.6998,vtsPrac,6,0,6,0,1,,,,,,,,,,,,,,,,,,,,,,,
298099,2022-12-05_21h30.52.575,vts_reward_expectancy_bt,2022.2.4,Win32,60.0132029,Chrome,1536,864,,,,,0,774,,,,,,,,,,,,,,,,,174,H,triangle,1,0,,,2,,,,,,,,,,,,,switch,letter,lettSwt,j,0.9897,vtsPrac,7,0,7,0,1,,,,,,,,,,,,,,,,,,,,,,,
298099,2022-12-05_21h30.52.575,vts_reward_expectancy_bt,2022.2.4,Win32,60.0132029,Chrome,1536,864,,,,,0,774,,,,,,,,,,,,,,,,,174,Y,triangle,1,0,,,2,,,,,,,,,,,,,switch,number,numSwt,f,0.8363,vtsPrac,8,0,8,0,1,,,,,,,,,,,,,,,,,,,,,,,
298099,2022-12-05_21h30.52.575,vts_reward_expectancy_bt,2022.2.4,Win32,60.0132029,Chrome,1536,864,,,,,0,774,,,,,,,,,,,,,,,,,132,H,star,1,0,,,2,,,,,,,,,,,,,switch,letter,lettSwt,j,0.926,vtsPrac,9,0,9,0,1,,,,,,,,,,,,,,,,,,,,,,,
298099,2022-12-05_21h30.52.575,vts_reward_expectancy_bt,2022.2.4,Win32,60.0132029,Chrome,1536,864,,,,,0,774,,,,,,,,,,,,,,,,,181,F,hexagon,1,0,,,2,,,,,,,,,,,,,repeat,letter,lettRpt,j,1.1944,vtsPrac,10,0,10,0,1,,,,,,,,,,,,,,,,,,,,,,,
298099,2022-12-05_21h30.52.575,vts_reward_expectancy_bt,2022.2.4,Win32,60.0132029,Chrome,1536,864,,,,,0,774,,,,,,,,,,,,,,,,,139,B,circle,1,0,,,2,,,,,,,,,,,,,switch,number,numSwt,d,0.8605,vtsPrac,11,0,11,0,1,,,,,,,,,,,,,,,,,,,,,,,
298099,2022-12-05_21h30.52.575,vts_reward_expectancy_bt,2022.2.4,Win32,60.0132029,Chrome,1536,864,,,,,0,774,,,,,,,,,,,,,,,,,132,U,circle,1,0,,,2,,,,,,,,,,,,,switch,letter,lettSwt,k,1.3388,vtsPrac,12,0,12,0,1,,,,,,,,,,,,,,,,,,,,,,,
298099,2022-12-05_21h30.52.575,vts_reward_expectancy_bt,2022.2.4,Win32,60.0132029,Chrome,1536,864,,,,,0,774,,,,,,,,,,,,,,,,,181,D,star,1,0,,,2,,,,,,,,,,,,,switch,number,numSwt,f,0.883,vtsPrac,13,0,13,0,1,,,,,,,,,,,,,,,,,,,,,,,
298099,2022-12-05_21h30.52.575,vts_reward_expectancy_bt,2022.2.4,Win32,60.0132029,Chrome,1536,864,,,,,0,774,,,,,,,,,,,,,,,,,174,W,star,1,0,,,2,,,,,,,,,,,,,switch,letter,lettSwt,k,0.9698,vtsPrac,14,0,14,0,1,,,,,,,,,,,,,,,,,,,,,,,
298099,2022-12-05_21h30.52.575,vts_reward_expectancy_bt,2022.2.4,Win32,60.0132029,Chrome,1536,864,,,,,0,774,,,,,,,,,,,,,,,,,160,S,circle,1,0,,,2,,,,,,,,,,,,,switch,number,numSwt,f,0.8705,vtsPrac,15,0,15,0,1,,,,,,,,,,,,,,,,,,,,,,,
298099,2022-12-05_21h30.52.575,vts_reward_expectancy_bt,2022.2.4,Win32,60.0132029,Chrome,1536,864,,,,,0,774,,,,,,,,,,,,,,,,,125,S,triangle,1,0,,,2,,,,,,,,,,,,,repeat,number,numRpt,d,0.8415,vtsPrac,16,0,16,0,1,,,,,,,,,,,,,,,,,,,,,,,
298099,2022-12-05_21h30.52.575,vts_reward_expectancy_bt,2022.2.4,Win32,60.0132029,Chrome,1536,864,,,,,0,774,,,,,,,,,,,,,,,,,174,H,hexagon,1,0,,,2,,,,,,,,,,,,,switch,letter,lettSwt,j,1.0952,vtsPrac,17,0,17,0,1,,,,,,,,,,,,,,,,,,,,,,,
298099,2022-12-05_21h30.52.575,vts_reward_expectancy_bt,2022.2.4,Win32,60.0132029,Chrome,1536,864,,,,,0,774,,,,,,,,,,,,,,,,,132,W,circle,1,0,,,2,,,,,,,,,,,,,repeat,letter,lettRpt,k,0.7345,vtsPrac,18,0,18,0,1,,,,,,,,,,,,,,,,,,,,,,,
298099,2022-12-05_21h30.52.575,vts_reward_expectancy_bt,2022.2.4,Win32,60.0132029,Chrome,1536,864,,,,,0,774,,,,,,,,,,,,,,,,,167,U,hexagon,1,0,,,2,,,,,,,,,,,,,switch,number,numSwt,f,1.1535,vtsPrac,19,0,19,0,1,,,,,,,,,,,,,,,,,,,,,,,
298099,2022-12-05_21h30.52.575,vts_reward_expectancy_bt,2022.2.4,Win32,60.0132029,Chrome,1536,864,,,,,0,774,,,,,,,,,,,,,,,,,146,D,star,1,0,,,2,,,,,,,,,,,,,repeat,number,numRpt,d,1.2337,vtsPrac,20,0,20,0,1,,,,,,,,,,,,,,,,,,,,,,,
298099,2022-12-05_21h30.52.575,vts_reward_expectancy_bt,2022.2.4,Win32,60.0132029,Chrome,1536,864,,,,,0,774,,,,,,,,,,,,,,,,,125,H,circle,1,0,,,2,,,,,,,,,,,,,switch,letter,lettSwt,j,1.2228,vtsPrac,21,0,21,0,1,,,,,,,,,,,,,,,,,,,,,,,
298099,2022-12-05_21h30.52.575,vts_reward_expectancy_bt,2022.2.4,Win32,60.0132029,Chrome,1536,864,,,,,0,774,,,,,,,,,,,,,,,,,139,B,hexagon,1,0,,,2,,,,,,,,,,,,,repeat,letter,lettRpt,j,0.9234,vtsPrac,22,0,22,0,1,,,,,,,,,,,,,,,,,,,,,,,
298099,2022-12-05_21h30.52.575,vts_reward_expectancy_bt,2022.2.4,Win32,60.0132029,Chrome,1536,864,,,,,0,774,,,,,,,,,,,,,,,,,167,F,star,1,0,,,2,,,,,,,,,,,,,repeat,letter,lettRpt,j,1.1514,vtsPrac,23,0,23,0,1,,,,,,,,,,,,,,,,,,,,,,,
298099,2022-12-05_21h30.52.575,vts_reward_expectancy_bt,2022.2.4,Win32,60.0132029,Chrome,1536,864,,,,,0,774,,,,,,,,,,,,,,,,,139,B,circle,1,0,,,2,,,,,,,,,,,,,switch,number,numSwt,d,1.0735,vtsPrac,24,0,24,0,1,,,,,,,,,,,,,,,,,,,,,,,
298099,2022-12-05_21h30.52.575,vts_reward_expectancy_bt,2022.2.4,Win32,60.0132029,Chrome,1536,864,,,,,0,774,,,,,,,,,,,,,,,,,132,H,hexagon,1,0,,,2,,,,,,,,,,,,,repeat,number,numRpt,d,0.7006,vtsPrac,25,0,25,0,1,,,,,,,,,,,,,,,,,,,,,,,
298099,2022-12-05_21h30.52.575,vts_reward_expectancy_bt,2022.2.4,Win32,60.0132029,Chrome,1536,864,,,,,0,774,,,,,,,,,,,,,,,,,125,W,hexagon,1,0,,,2,,,,,,,,,,,,,switch,letter,lettSwt,k,0.735,vtsPrac,26,0,26,0,1,,,,,,,,,,,,,,,,,,,,,,,
298099,2022-12-05_21h30.52.575,vts_reward_expectancy_bt,2022.2.4,Win32,60.0132029,Chrome,1536,864,,,,,0,774,,,,,,,,,,,,,,,,,181,F,circle,1,0,,,2,,,,,,,,,,,,,repeat,letter,lettRpt,j,0.97,vtsPrac,27,0,27,0,1,,,,,,,,,,,,,,,,,,,,,,,
298099,2022-12-05_21h30.52.575,vts_reward_expectancy_bt,2022.2.4,Win32,60.0132029,Chrome,1536,864,,,,,0,774,,,,,,,,,,,,,,,,,174,S,triangle,-1,0,,,2,,,,,,,,,,,,,switch,no_choice,NA,,,vtsPrac,28,0,28,0,1,,,,,,,,,,,,,,,,,,,,,,,
298099,2022-12-05_21h30.52.575,vts_reward_expectancy_bt,2022.2.4,Win32,60.0132029,Chrome,1536,864,,,,,0,774,,,,,,,,,,,,,,,,,160,U,hexagon,1,0,,,2,,,,,,,,,,,,,switch,letter,lettSwt,k,1.7239,vtsPrac,29,0,29,0,1,,,,,,,,,,,,,,,,,,,,,,,
298099,2022-12-05_21h30.52.575,vts_reward_expectancy_bt,2022.2.4,Win32,60.0132029,Chrome,1536,864,,,,,0,774,,,,,,,,,,,,,,,,,146,Y,star,1,0,,,2,,,,,,,,,,,,,switch,number,numSwt,d,1.0898,vtsPrac,30,0,30,0,1,,,,,,,,,,,,,,,,,,,,,,,
298099,2022-12-05_21h30.52.575,vts_reward_expectancy_bt,2022.2.4,Win32,60.0132029,Chrome,1536,864,,,,,0,774,,,,,,,,,,,,,,,,,139,B,hexagon,1,0,,,2,,,,,,,,,,,,,repeat,number,numRpt,d,1.3545,vtsPrac,31,0,31,0,1,,,,,,,,,,,,,,,,,,,,,,,
298099,2022-12-05_21h30.52.575,vts_reward_expectancy_bt,2022.2.4,Win32,60.0132029,Chrome,1536,864,,,,,,,,,,,,,,,,,,,,,,,,,,,,,,,,,,,,,,,,,,,,,,,,,,,,,,,,,,,,,,,,,,,,,,,,,,,,
298099,2022-12-05_21h30.52.575,vts_reward_expectancy_bt,2022.2.4,Win32,60.0132029,Chrome,1536,864,,,,,,,,,,,,,,,,,,,,,,,,,,,,,,,,,,,,,,,,,,,,,,,,,,,,,,,,,,,,,,,,,,,,,,,,,,,,
298099,2022-12-05_21h30.52.575,vts_reward_expectancy_bt,2022.2.4,Win32,60.0132029,Chrome,1536,864,,,,,0,774,,,,,,,,,,,,,,,,,160,U,hexagon,1,0,,,,,,,,,,,,,,,,repeat,number,numRpt,f,2.2552,noRew,,,,,,0,0,0,0,0,1,,,,,,,,,,,,,,,,,
298099,2022-12-05_21h30.52.575,vts_reward_expectancy_bt,2022.2.4,Win32,60.0132029,Chrome,1536,864,,,,,0,774,,,,,,,,,,,,,,,,,167,Y,circle,1,0,,,,,,,,,,,,,,,,repeat,number,numRpt,f,0.6347,noRew,,,,,,0,1,0,1,0,1,,,,,,,,,,,,,,,,,
298099,2022-12-05_21h30.52.575,vts_reward_expectancy_bt,2022.2.4,Win32,60.0132029,Chrome,1536,864,,,,,0,774,,,,,,,,,,,,,,,,,181,W,hexagon,1,0,,,,,,,,,,,,,,,,switch,letter,lettSwt,k,1.0081,noRew,,,,,,0,2,0,2,0,1,,,,,,,,,,,,,,,,,
298099,2022-12-05_21h30.52.575,vts_reward_expectancy_bt,2022.2.4,Win32,60.0132029,Chrome,1536,864,,,,,0,774,,,,,,,,,,,,,,,,,139,D,circle,1,0,,,,,,,,,,,,,,,,repeat,letter,lettRpt,j,2.6245,noRew,,,,,,0,3,0,3,0,1,,,,,,,,,,,,,,,,,
298099,2022-12-05_21h30.52.575,vts_reward_expectancy_bt,2022.2.4,Win32,60.0132029,Chrome,1536,864,,,,,0,774,,,,,,,,,,,,,,,,,160,U,hexagon,1,0,,,,,,,,,,,,,,,,repeat,letter,lettRpt,k,1.369,noRew,,,,,,0,4,0,4,0,1,,,,,,,,,,,,,,,,,
298099,2022-12-05_21h30.52.575,vts_reward_expectancy_bt,2022.2.4,Win32,60.0132029,Chrome,1536,864,,,,,0,774,,,,,,,,,,,,,,,,,167,Y,circle,1,0,,,,,,,,,,,,,,,,repeat,letter,lettRpt,k,1.0903,noRew,,,,,,0,5,0,5,0,1,,,,,,,,,,,,,,,,,
298099,2022-12-05_21h30.52.575,vts_reward_expectancy_bt,2022.2.4,Win32,60.0132029,Chrome,1536,864,,,,,0,774,,,,,,,,,,,,,,,,,181,W,triangle,1,0,,,,,,,,,,,,,,,,switch,number,numSwt,f,0.8446,noRew,,,,,,0,6,0,6,0,1,,,,,,,,,,,,,,,,,
298099,2022-12-05_21h30.52.575,vts_reward_expectancy_bt,2022.2.4,Win32,60.0132029,Chrome,1536,864,,,,,0,774,,,,,,,,,,,,,,,,,139,D,circle,1,0,,,,,,,,,,,,,,,,switch,letter,lettSwt,j,0.7838,noRew,,,,,,0,7,0,7,0,1,,,,,,,,,,,,,,,,,
298099,2022-12-05_21h30.52.575,vts_reward_expectancy_bt,2022.2.4,Win32,60.0132029,Chrome,1536,864,,,,,0,774,,,,,,,,,,,,,,,,,132,U,hexagon,1,0,,,,,,,,,,,,,,,,switch,number,numSwt,d,0.9788,noRew,,,,,,0,8,0,8,0,1,,,,,,,,,,,,,,,,,
298099,2022-12-05_21h30.52.575,vts_reward_expectancy_bt,2022.2.4,Win32,60.0132029,Chrome,1536,864,,,,,0,774,,,,,,,,,,,,,,,,,125,H,star,1,0,,,,,,,,,,,,,,,,repeat,number,numRpt,d,0.9887,noRew,,,,,,0,9,0,9,0,1,,,,,,,,,,,,,,,,,
298099,2022-12-05_21h30.52.575,vts_reward_expectancy_bt,2022.2.4,Win32,60.0132029,Chrome,1536,864,,,,,0,774,,,,,,,,,,,,,,,,,160,D,star,1,0,,,,,,,,,,,,,,,,repeat,number,numRpt,f,0.7388,noRew,,,,,,0,10,0,10,0,1,,,,,,,,,,,,,,,,,
298099,2022-12-05_21h30.52.575,vts_reward_expectancy_bt,2022.2.4,Win32,60.0132029,Chrome,1536,864,,,,,0,774,,,,,,,,,,,,,,,,,139,S,hexagon,1,0,,,,,,,,,,,,,,,,switch,letter,lettSwt,k,2.4266,noRew,,,,,,0,11,0,11,0,1,,,,,,,,,,,,,,,,,
298099,2022-12-05_21h30.52.575,vts_reward_expectancy_bt,2022.2.4,Win32,60.0132029,Chrome,1536,864,,,,,0,774,,,,,,,,,,,,,,,,,174,D,hexagon,1,0,,,,,,,,,,,,,,,,switch,number,numSwt,f,1.4907,noRew,,,,,,0,12,0,12,0,1,,,,,,,,,,,,,,,,,
298099,2022-12-05_21h30.52.575,vts_reward_expectancy_bt,2022.2.4,Win32,60.0132029,Chrome,1536,864,,,,,0,774,,,,,,,,,,,,,,,,,160,B,circle,1,0,,,,,,,,,,,,,,,,repeat,number,numRpt,f,1.0716,noRew,,,,,,0,13,0,13,0,1,,,,,,,,,,,,,,,,,
298099,2022-12-05_21h30.52.575,vts_reward_expectancy_bt,2022.2.4,Win32,60.0132029,Chrome,1536,864,,,,,0,774,,,,,,,,,,,,,,,,,146,W,hexagon,1,0,,,,,,,,,,,,,,,,repeat,number,numRpt,d,1.1376,noRew,,,,,,0,14,0,14,0,1,,,,,,,,,,,,,,,,,
298099,2022-12-05_21h30.52.575,vts_reward_expectancy_bt,2022.2.4,Win32,60.0132029,Chrome,1536,864,,,,,0,774,,,,,,,,,,,,,,,,,125,F,star,1,0,,,,,,,,,,,,,,,,switch,letter,lettSwt,j,2.3021,noRew,,,,,,0,15,0,15,0,1,,,,,,,,,,,,,,,,,
298099,2022-12-05_21h30.52.575,vts_reward_expectancy_bt,2022.2.4,Win32,60.0132029,Chrome,1536,864,,,,,0,774,,,,,,,,,,,,,,,,,146,B,star,1,0,,,,,,,,,,,,,,,,repeat,letter,lettRpt,j,1.4187,noRew,,,,,,0,16,0,16,0,1,,,,,,,,,,,,,,,,,
298099,2022-12-05_21h30.52.575,vts_reward_expectancy_bt,2022.2.4,Win32,60.0132029,Chrome,1536,864,,,,,0,774,,,,,,,,,,,,,,,,,132,H,circle,1,0,,,,,,,,,,,,,,,,repeat,letter,lettRpt,j,0.6882,noRew,,,,,,0,17,0,17,0,1,,,,,,,,,,,,,,,,,
298099,2022-12-05_21h30.52.575,vts_reward_expectancy_bt,2022.2.4,Win32,60.0132029,Chrome,1536,864,,,,,0,774,,,,,,,,,,,,,,,,,160,F,star,-1,0,,,,,,,,,,,,,,,,switch,no_choice,NA,,,noRew,,,,,,0,18,0,18,0,1,,,,,,,,,,,,,,,,,
298099,2022-12-05_21h30.52.575,vts_reward_expectancy_bt,2022.2.4,Win32,60.0132029,Chrome,1536,864,,,,,0,774,,,,,,,,,,,,,,,,,125,S,circle,1,0,,,,,,,,,,,,,,,,switch,number,numSwt,d,0.9059,noRew,,,,,,0,19,0,19,0,1,,,,,,,,,,,,,,,,,
298099,2022-12-05_21h30.52.575,vts_reward_expectancy_bt,2022.2.4,Win32,60.0132029,Chrome,1536,864,,,,,0,774,,,,,,,,,,,,,,,,,139,D,star,1,0,,,,,,,,,,,,,,,,repeat,number,numRpt,d,0.9471,noRew,,,,,,0,20,0,20,0,1,,,,,,,,,,,,,,,,,
298099,2022-12-05_21h30.52.575,vts_reward_expectancy_bt,2022.2.4,Win32,60.0132029,Chrome,1536,864,,,,,0,774,,,,,,,,,,,,,,,,,125,U,hexagon,1,0,,,,,,,,,,,,,,,,switch,letter,lettSwt,k,0.7969,noRew,,,,,,0,21,0,21,0,1,,,,,,,,,,,,,,,,,
298099,2022-12-05_21h30.52.575,vts_reward_expectancy_bt,2022.2.4,Win32,60.0132029,Chrome,1536,864,,,,,0,774,,,,,,,,,,,,,,,,,160,B,hexagon,0,0,,,,,,,,,,,,,,,,repeat,letter,NA,k,0.6384,noRew,,,,,,0,22,0,22,0,1,,,,,,,,,,,,,,,,,
298099,2022-12-05_21h30.52.575,vts_reward_expectancy_bt,2022.2.4,Win32,60.0132029,Chrome,1536,864,,,,,0,774,,,,,,,,,,,,,,,,,181,H,star,1,1,,,,,,,,,,,,,,,,repeat,letter,lettRpt,j,0.9294,noRew,,,,,,0,23,0,23,0,1,,,,,,,,,,,,,,,,,
298099,2022-12-05_21h30.52.575,vts_reward_expectancy_bt,2022.2.4,Win32,60.0132029,Chrome,1536,864,,,,,0,774,,,,,,,,,,,,,,,,,132,F,star,1,0,,,,,,,,,,,,,,,,switch,number,numSwt,d,0.9919,noRew,,,,,,0,24,0,24,0,1,,,,,,,,,,,,,,,,,
298099,2022-12-05_21h30.52.575,vts_reward_expectancy_bt,2022.2.4,Win32,60.0132029,Chrome,1536,864,,,,,0,774,,,,,,,,,,,,,,,,,146,S,circle,1,0,,,,,,,,,,,,,,,,repeat,number,numRpt,d,0.7879,noRew,,,,,,0,25,0,25,0,1,,,,,,,,,,,,,,,,,
298099,2022-12-05_21h30.52.575,vts_reward_expectancy_bt,2022.2.4,Win32,60.0132029,Chrome,1536,864,,,,,0,774,,,,,,,,,,,,,,,,,174,D,hexagon,1,0,,,,,,,,,,,,,,,,switch,letter,lettSwt,j,1.0711,noRew,,,,,,0,26,0,26,0,1,,,,,,,,,,,,,,,,,
298099,2022-12-05_21h30.52.575,vts_reward_expectancy_bt,2022.2.4,Win32,60.0132029,Chrome,1536,864,,,,,0,774,,,,,,,,,,,,,,,,,160,B,triangle,0,0,,,,,,,,,,,,,,,,switch,number,NA,d,0.8527,noRew,,,,,,0,27,0,27,0,1,,,,,,,,,,,,,,,,,
298099,2022-12-05_21h30.52.575,vts_reward_expectancy_bt,2022.2.4,Win32,60.0132029,Chrome,1536,864,,,,,0,774,,,,,,,,,,,,,,,,,181,H,star,1,1,,,,,,,,,,,,,,,,switch,letter,lettSwt,j,0.9544,noRew,,,,,,0,28,0,28,0,1,,,,,,,,,,,,,,,,,
298099,2022-12-05_21h30.52.575,vts_reward_expectancy_bt,2022.2.4,Win32,60.0132029,Chrome,1536,864,,,,,0,774,,,,,,,,,,,,,,,,,132,Y,hexagon,1,0,,,,,,,,,,,,,,,,repeat,letter,lettRpt,k,0.9594,noRew,,,,,,0,29,0,29,0,1,,,,,,,,,,,,,,,,,
298099,2022-12-05_21h30.52.575,vts_reward_expectancy_bt,2022.2.4,Win32,60.0132029,Chrome,1536,864,,,,,0,774,,,,,,,,,,,,,,,,,174,F,circle,1,0,,,,,,,,,,,,,,,,repeat,letter,lettRpt,j,1.3665,noRew,,,,,,0,30,0,30,0,1,,,,,,,,,,,,,,,,,
298099,2022-12-05_21h30.52.575,vts_reward_expectancy_bt,2022.2.4,Win32,60.0132029,Chrome,1536,864,,,,,0,774,,,,,,,,,,,,,,,,,146,S,star,1,0,,,,,,,,,,,,,,,,switch,number,numSwt,d,1.498,noRew,,,,,,0,31,0,31,0,1,,,,,,,,,,,,,,,,,
298099,2022-12-05_21h30.52.575,vts_reward_expectancy_bt,2022.2.4,Win32,60.0132029,Chrome,1536,864,,,,,0,774,,,,,,,,,,,,,,,,,132,B,circle,1,0,,,,,,,,,,,,,,,,repeat,number,numRpt,d,0.7029,noRew,,,,,,0,32,0,32,0,1,,,,,,,,,,,,,,,,,
298099,2022-12-05_21h30.52.575,vts_reward_expectancy_bt,2022.2.4,Win32,60.0132029,Chrome,1536,864,,,,,0,774,,,,,,,,,,,,,,,,,146,Y,star,1,0,,,,,,,,,,,,,,,,switch,letter,lettSwt,k,1.0812,noRew,,,,,,0,33,0,33,0,1,,,,,,,,,,,,,,,,,
298099,2022-12-05_21h30.52.575,vts_reward_expectancy_bt,2022.2.4,Win32,60.0132029,Chrome,1536,864,,,,,0,774,,,,,,,,,,,,,,,,,139,D,hexagon,1,0,,,,,,,,,,,,,,,,switch,number,numSwt,d,0.559,noRew,,,,,,0,34,0,34,0,1,,,,,,,,,,,,,,,,,
298099,2022-12-05_21h30.52.575,vts_reward_expectancy_bt,2022.2.4,Win32,60.0132029,Chrome,1536,864,,,,,0,774,,,,,,,,,,,,,,,,,125,W,star,1,0,,,,,,,,,,,,,,,,repeat,number,numRpt,d,0.6964,noRew,,,,,,0,35,0,35,0,1,,,,,,,,,,,,,,,,,
298099,2022-12-05_21h30.52.575,vts_reward_expectancy_bt,2022.2.4,Win32,60.0132029,Chrome,1536,864,,,,,0,774,,,,,,,,,,,,,,,,,139,H,circle,1,0,,,,,,,,,,,,,,,,repeat,number,numRpt,d,0.5389,noRew,,,,,,0,36,0,36,0,1,,,,,,,,,,,,,,,,,
298099,2022-12-05_21h30.52.575,vts_reward_expectancy_bt,2022.2.4,Win32,60.0132029,Chrome,1536,864,,,,,0,774,,,,,,,,,,,,,,,,,174,S,triangle,1,0,,,,,,,,,,,,,,,,repeat,number,numRpt,f,0.8701,noRew,,,,,,0,37,0,37,0,1,,,,,,,,,,,,,,,,,
298099,2022-12-05_21h30.52.575,vts_reward_expectancy_bt,2022.2.4,Win32,60.0132029,Chrome,1536,864,,,,,0,774,,,,,,,,,,,,,,,,,160,D,hexagon,0,0,,,,,,,,,,,,,,,,switch,letter,NA,k,1.1472,noRew,,,,,,0,38,0,38,0,1,,,,,,,,,,,,,,,,,
298099,2022-12-05_21h30.52.575,vts_reward_expectancy_bt,2022.2.4,Win32,60.0132029,Chrome,1536,864,,,,,0,774,,,,,,,,,,,,,,,,,167,Y,triangle,1,1,,,,,,,,,,,,,,,,repeat,letter,lettRpt,k,0.726,noRew,,,,,,0,39,0,39,0,1,,,,,,,,,,,,,,,,,
298099,2022-12-05_21h30.52.575,vts_reward_expectancy_bt,2022.2.4,Win32,60.0132029,Chrome,1536,864,,,,,0,774,,,,,,,,,,,,,,,,,174,F,hexagon,1,0,,,,,,,,,,,,,,,,repeat,letter,lettRpt,j,0.9427,noRew,,,,,,0,40,0,40,0,1,,,,,,,,,,,,,,,,,
298099,2022-12-05_21h30.52.575,vts_reward_expectancy_bt,2022.2.4,Win32,60.0132029,Chrome,1536,864,,,,,0,774,,,,,,,,,,,,,,,,,181,U,star,1,0,,,,,,,,,,,,,,,,repeat,letter,lettRpt,k,0.8878,noRew,,,,,,0,41,0,41,0,1,,,,,,,,,,,,,,,,,
298099,2022-12-05_21h30.52.575,vts_reward_expectancy_bt,2022.2.4,Win32,60.0132029,Chrome,1536,864,,,,,0,774,,,,,,,,,,,,,,,,,132,B,triangle,1,0,,,,,,,,,,,,,,,,repeat,letter,lettRpt,j,1.1431,noRew,,,,,,0,42,0,42,0,1,,,,,,,,,,,,,,,,,
298099,2022-12-05_21h30.52.575,vts_reward_expectancy_bt,2022.2.4,Win32,60.0132029,Chrome,1536,864,,,,,0,774,,,,,,,,,,,,,,,,,160,H,star,1,0,,,,,,,,,,,,,,,,repeat,letter,lettRpt,j,1.0792,noRew,,,,,,0,43,0,43,0,1,,,,,,,,,,,,,,,,,
298099,2022-12-05_21h30.52.575,vts_reward_expectancy_bt,2022.2.4,Win32,60.0132029,Chrome,1536,864,,,,,0,774,,,,,,,,,,,,,,,,,139,B,star,1,0,,,,,,,,,,,,,,,,switch,number,numSwt,d,0.6535,noRew,,,,,,0,44,0,44,0,1,,,,,,,,,,,,,,,,,
298099,2022-12-05_21h30.52.575,vts_reward_expectancy_bt,2022.2.4,Win32,60.0132029,Chrome,1536,864,,,,,0,774,,,,,,,,,,,,,,,,,125,D,hexagon,1,0,,,,,,,,,,,,,,,,repeat,number,numRpt,d,0.5904,noRew,,,,,,0,45,0,45,0,1,,,,,,,,,,,,,,,,,
298099,2022-12-05_21h30.52.575,vts_reward_expectancy_bt,2022.2.4,Win32,60.0132029,Chrome,1536,864,,,,,0,774,,,,,,,,,,,,,,,,,146,S,star,1,0,,,,,,,,,,,,,,,,switch,letter,lettSwt,k,1.2559,noRew,,,,,,0,46,0,46,0,1,,,,,,,,,,,,,,,,,
298099,2022-12-05_21h30.52.575,vts_reward_expectancy_bt,2022.2.4,Win32,60.0132029,Chrome,1536,864,,,,,0,774,,,,,,,,,,,,,,,,,174,H,circle,1,0,,,,,,,,,,,,,,,,repeat,letter,lettRpt,j,0.8041,noRew,,,,,,0,47,0,47,0,1,,,,,,,,,,,,,,,,,
298099,2022-12-05_21h30.52.575,vts_reward_expectancy_bt,2022.2.4,Win32,60.0132029,Chrome,1536,864,,,,,0,774,,,,,,,,,,,,,,,,,139,Y,triangle,1,0,,,,,,,,,,,,,,,,switch,number,numSwt,d,1.5021,noRew,,,,,,0,48,0,48,0,1,,,,,,,,,,,,,,,,,
298099,2022-12-05_21h30.52.575,vts_reward_expectancy_bt,2022.2.4,Win32,60.0132029,Chrome,1536,864,,,,,0,774,,,,,,,,,,,,,,,,,167,B,hexagon,1,0,,,,,,,,,,,,,,,,switch,letter,lettSwt,j,1.7922,noRew,,,,,,0,49,0,49,0,1,,,,,,,,,,,,,,,,,
298099,2022-12-05_21h30.52.575,vts_reward_expectancy_bt,2022.2.4,Win32,60.0132029,Chrome,1536,864,,,,,0,774,,,,,,,,,,,,,,,,,125,H,hexagon,1,0,,,,,,,,,,,,,,,,repeat,letter,lettRpt,j,0.8607,noRew,,,,,,0,50,0,50,0,1,,,,,,,,,,,,,,,,,
298099,2022-12-05_21h30.52.575,vts_reward_expectancy_bt,2022.2.4,Win32,60.0132029,Chrome,1536,864,,,,,0,774,,,,,,,,,,,,,,,,,146,D,star,1,0,,,,,,,,,,,,,,,,repeat,letter,lettRpt,j,1.1954,noRew,,,,,,0,51,0,51,0,1,,,,,,,,,,,,,,,,,
298099,2022-12-05_21h30.52.575,vts_reward_expectancy_bt,2022.2.4,Win32,60.0132029,Chrome,1536,864,,,,,0,774,,,,,,,,,,,,,,,,,139,H,circle,1,0,,,,,,,,,,,,,,,,switch,number,numSwt,d,1.1729,noRew,,,,,,0,52,0,52,0,1,,,,,,,,,,,,,,,,,
298099,2022-12-05_21h30.52.575,vts_reward_expectancy_bt,2022.2.4,Win32,60.0132029,Chrome,1536,864,,,,,0,774,,,,,,,,,,,,,,,,,174,Y,star,1,0,,,,,,,,,,,,,,,,repeat,number,numRpt,f,1.1259,noRew,,,,,,0,53,0,53,0,1,,,,,,,,,,,,,,,,,
298099,2022-12-05_21h30.52.575,vts_reward_expectancy_bt,2022.2.4,Win32,60.0132029,Chrome,1536,864,,,,,0,774,,,,,,,,,,,,,,,,,132,F,triangle,1,0,,,,,,,,,,,,,,,,switch,letter,lettSwt,j,1.359,noRew,,,,,,0,54,0,54,0,1,,,,,,,,,,,,,,,,,
298099,2022-12-05_21h30.52.575,vts_reward_expectancy_bt,2022.2.4,Win32,60.0132029,Chrome,1536,864,,,,,0,774,,,,,,,,,,,,,,,,,167,W,star,1,0,,,,,,,,,,,,,,,,repeat,letter,lettRpt,k,0.8102,noRew,,,,,,0,55,0,55,0,1,,,,,,,,,,,,,,,,,
298099,2022-12-05_21h30.52.575,vts_reward_expectancy_bt,2022.2.4,Win32,60.0132029,Chrome,1536,864,,,,,0,774,,,,,,,,,,,,,,,,,146,W,hexagon,1,0,,,,,,,,,,,,,,,,repeat,letter,lettRpt,k,0.6761,noRew,,,,,,0,56,0,56,0,1,,,,,,,,,,,,,,,,,
298099,2022-12-05_21h30.52.575,vts_reward_expectancy_bt,2022.2.4,Win32,60.0132029,Chrome,1536,864,,,,,0,774,,,,,,,,,,,,,,,,,139,B,triangle,1,0,,,,,,,,,,,,,,,,repeat,letter,lettRpt,j,0.8584,noRew,,,,,,0,57,0,57,0,1,,,,,,,,,,,,,,,,,
298099,2022-12-05_21h30.52.575,vts_reward_expectancy_bt,2022.2.4,Win32,60.0132029,Chrome,1536,864,,,,,0,774,,,,,,,,,,,,,,,,,132,U,star,1,0,,,,,,,,,,,,,,,,switch,number,numSwt,d,1.251,noRew,,,,,,0,58,0,58,0,1,,,,,,,,,,,,,,,,,
298099,2022-12-05_21h30.52.575,vts_reward_expectancy_bt,2022.2.4,Win32,60.0132029,Chrome,1536,864,,,,,0,774,,,,,,,,,,,,,,,,,160,F,triangle,1,0,,,,,,,,,,,,,,,,repeat,number,numRpt,f,1.2785,noRew,,,,,,0,59,0,59,0,1,,,,,,,,,,,,,,,,,
298099,2022-12-05_21h30.52.575,vts_reward_expectancy_bt,2022.2.4,Win32,60.0132029,Chrome,1536,864,,,,,0,774,,,,,,,,,,,,,,,,,125,S,hexagon,1,0,,,,,,,,,,,,,,,,repeat,number,numRpt,d,1.3328,noRew,,,,,,0,60,0,60,0,1,,,,,,,,,,,,,,,,,
298099,2022-12-05_21h30.52.575,vts_reward_expectancy_bt,2022.2.4,Win32,60.0132029,Chrome,1536,864,,,,,0,774,,,,,,,,,,,,,,,,,174,B,circle,1,0,,,,,,,,,,,,,,,,repeat,number,numRpt,f,1.296,noRew,,,,,,0,61,0,61,0,1,,,,,,,,,,,,,,,,,
298099,2022-12-05_21h30.52.575,vts_reward_expectancy_bt,2022.2.4,Win32,60.0132029,Chrome,1536,864,,,,,0,774,,,,,,,,,,,,,,,,,181,U,hexagon,1,0,,,,,,,,,,,,,,,,switch,letter,lettSwt,k,1.2199,noRew,,,,,,0,62,0,62,0,1,,,,,,,,,,,,,,,,,
298099,2022-12-05_21h30.52.575,vts_reward_expectancy_bt,2022.2.4,Win32,60.0132029,Chrome,1536,864,,,,,0,774,,,,,,,,,,,,,,,,,167,Y,star,1,0,,,,,,,,,,,,,,,,repeat,letter,lettRpt,k,1.0285,noRew,,,,,,0,63,0,63,0,1,,,,,,,,,,,,,,,,,
298099,2022-12-05_21h30.52.575,vts_reward_expectancy_bt,2022.2.4,Win32,60.0132029,Chrome,1536,864,,,,,,,,,,,,,,,,,,,,,,,,,,,,,,,,,,,,,,,,,,,,,,,,,,,,,,,,,,,,,,,,,,,,,,,,,,,,
298099,2022-12-05_21h30.52.575,vts_reward_expectancy_bt,2022.2.4,Win32,60.0132029,Chrome,1536,864,,,,,10,784,,,,,,,,,,,,,,,,,181,W,hexagon,1,0,,,,,,,,,,,,,,,,repeat,letter,lettRpt,k,0.8372,Hi,,,,,,0,,,,,,space,5.4901,high,0,0,0,0,1,,,,,,,,,
298099,2022-12-05_21h30.52.575,vts_reward_expectancy_bt,2022.2.4,Win32,60.0132029,Chrome,1536,864,,,,,0,784,,,,,,,,,,,,,,,,,139,S,star,1,0,,,,,,,,,,,,,,,,repeat,letter,lettRpt,k,0.9587,Hi,,,,,,0,,,,,,,,high,1,0,1,0,1,,,,,,,,,
298099,2022-12-05_21h30.52.575,vts_reward_expectancy_bt,2022.2.4,Win32,60.0132029,Chrome,1536,864,,,,,1,785,,,,,,,,,,,,,,,,,160,U,triangle,1,0,,,,,,,,,,,,,,,,switch,number,numSwt,f,0.8446,Lo,,,,,,0,,,,,,,,high,2,0,2,0,1,,,,,,,,,
298099,2022-12-05_21h30.52.575,vts_reward_expectancy_bt,2022.2.4,Win32,60.0132029,Chrome,1536,864,,,,,10,795,,,,,,,,,,,,,,,,,125,F,circle,1,0,,,,,,,,,,,,,,,,repeat,number,numRpt,d,0.6402,Lo,,,,,,0,,,,,,,,high,3,0,3,0,1,,,,,,,,,
298099,2022-12-05_21h30.52.575,vts_reward_expectancy_bt,2022.2.4,Win32,60.0132029,Chrome,1536,864,,,,,0,795,,,,,,,,,,,,,,,,,167,H,hexagon,0,0,,,,,,,,,,,,,,,,switch,letter,NA,k,0.5632,Lo,,,,,,0,,,,,,,,high,4,0,4,0,1,,,,,,,,,
298099,2022-12-05_21h30.52.575,vts_reward_expectancy_bt,2022.2.4,Win32,60.0132029,Chrome,1536,864,,,,,10,805,,,,,,,,,,,,,,,,,132,Y,star,1,1,,,,,,,,,,,,,,,,switch,number,numSwt,d,0.7448,Hi,,,,,,0,,,,,,,,high,5,0,5,0,1,,,,,,,,,
298099,2022-12-05_21h30.52.575,vts_reward_expectancy_bt,2022.2.4,Win32,60.0132029,Chrome,1536,864,,,,,1,806,,,,,,,,,,,,,,,,,146,B,triangle,1,0,,,,,,,,,,,,,,,,switch,letter,lettSwt,j,0.8825,Lo,,,,,,0,,,,,,,,high,6,0,6,0,1,,,,,,,,,
298099,2022-12-05_21h30.52.575,vts_reward_expectancy_bt,2022.2.4,Win32,60.0132029,Chrome,1536,864,,,,,10,816,,,,,,,,,,,,,,,,,174,D,circle,1,0,,,,,,,,,,,,,,,,switch,number,numSwt,f,0.9423,Lo,,,,,,0,,,,,,,,high,7,0,7,0,1,,,,,,,,,
298099,2022-12-05_21h30.52.575,vts_reward_expectancy_bt,2022.2.4,Win32,60.0132029,Chrome,1536,864,,,,,10,826,,,,,,,,,,,,,,,,,181,W,star,1,0,,,,,,,,,,,,,,,,switch,letter,lettSwt,k,0.7691,Hi,,,,,,0,,,,,,,,high,8,0,8,0,1,,,,,,,,,
298099,2022-12-05_21h30.52.575,vts_reward_expectancy_bt,2022.2.4,Win32,60.0132029,Chrome,1536,864,,,,,1,827,,,,,,,,,,,,,,,,,139,S,hexagon,1,0,,,,,,,,,,,,,,,,repeat,letter,lettRpt,k,0.811,Hi,,,,,,0,,,,,,,,high,9,0,9,0,1,,,,,,,,,
298099,2022-12-05_21h30.52.575,vts_reward_expectancy_bt,2022.2.4,Win32,60.0132029,Chrome,1536,864,,,,,1,828,,,,,,,,,,,,,,,,,160,U,circle,1,0,,,,,,,,,,,,,,,,repeat,letter,lettRpt,k,0.6079,Lo,,,,,,0,,,,,,,,high,10,0,10,0,1,,,,,,,,,
298099,2022-12-05_21h30.52.575,vts_reward_expectancy_bt,2022.2.4,Win32,60.0132029,Chrome,1536,864,,,,,1,829,,,,,,,,,,,,,,,,,125,F,triangle,1,0,,,,,,,,,,,,,,,,switch,number,numSwt,d,1.087,Lo,,,,,,0,,,,,,,,high,11,0,11,0,1,,,,,,,,,
298099,2022-12-05_21h30.52.575,vts_reward_expectancy_bt,2022.2.4,Win32,60.0132029,Chrome,1536,864,,,,,1,830,,,,,,,,,,,,,,,,,167,H,triangle,1,0,,,,,,,,,,,,,,,,repeat,number,numRpt,f,0.5844,Lo,,,,,,0,,,,,,,,high,12,0,12,0,1,,,,,,,,,
298099,2022-12-05_21h30.52.575,vts_reward_expectancy_bt,2022.2.4,Win32,60.0132029,Chrome,1536,864,,,,,1,831,,,,,,,,,,,,,,,,,132,Y,hexagon,1,0,,,,,,,,,,,,,,,,repeat,number,numRpt,d,0.674,Hi,,,,,,0,,,,,,,,high,13,0,13,0,1,,,,,,,,,
298099,2022-12-05_21h30.52.575,vts_reward_expectancy_bt,2022.2.4,Win32,60.0132029,Chrome,1536,864,,,,,1,832,,,,,,,,,,,,,,,,,146,B,circle,1,0,,,,,,,,,,,,,,,,switch,letter,lettSwt,j,0.6601,Lo,,,,,,0,,,,,,,,high,14,0,14,0,1,,,,,,,,,
298099,2022-12-05_21h30.52.575,vts_reward_expectancy_bt,2022.2.4,Win32,60.0132029,Chrome,1536,864,,,,,10,842,,,,,,,,,,,,,,,,,174,D,star,1,0,,,,,,,,,,,,,,,,repeat,letter,lettRpt,j,0.6977,Hi,,,,,,0,,,,,,,,high,15,0,15,0,1,,,,,,,,,
298099,2022-12-05_21h30.52.575,vts_reward_expectancy_bt,2022.2.4,Win32,60.0132029,Chrome,1536,864,,,,,10,852,,,,,,,,,,,,,,,,,139,F,hexagon,1,0,,,,,,,,,,,,,,,,repeat,letter,lettRpt,j,0.7017,Hi,,,,,,0,,,,,,,,high,16,0,16,0,1,,,,,,,,,
298099,2022-12-05_21h30.52.575,vts_reward_expectancy_bt,2022.2.4,Win32,60.0132029,Chrome,1536,864,,,,,10,862,,,,,,,,,,,,,,,,,167,W,star,1,0,,,,,,,,,,,,,,,,repeat,letter,lettRpt,k,0.7341,Hi,,,,,,0,,,,,,,,high,17,0,17,0,1,,,,,,,,,
298099,2022-12-05_21h30.52.575,vts_reward_expectancy_bt,2022.2.4,Win32,60.0132029,Chrome,1536,864,,,,,10,872,,,,,,,,,,,,,,,,,174,Y,triangle,1,0,,,,,,,,,,,,,,,,repeat,letter,lettRpt,k,0.6083,Lo,,,,,,0,,,,,,,,high,18,0,18,0,1,,,,,,,,,
298099,2022-12-05_21h30.52.575,vts_reward_expectancy_bt,2022.2.4,Win32,60.0132029,Chrome,1536,864,,,,,10,882,,,,,,,,,,,,,,,,,132,D,circle,1,0,,,,,,,,,,,,,,,,switch,number,numSwt,d,0.4438,Lo,,,,,,0,,,,,,,,high,19,0,19,0,1,,,,,,,,,
298099,2022-12-05_21h30.52.575,vts_reward_expectancy_bt,2022.2.4,Win32,60.0132029,Chrome,1536,864,,,,,10,892,,,,,,,,,,,,,,,,,160,B,hexagon,1,0,,,,,,,,,,,,,,,,repeat,number,numRpt,f,0.5621,Hi,,,,,,0,,,,,,,,high,20,0,20,0,1,,,,,,,,,
298099,2022-12-05_21h30.52.575,vts_reward_expectancy_bt,2022.2.4,Win32,60.0132029,Chrome,1536,864,,,,,10,902,,,,,,,,,,,,,,,,,181,S,triangle,1,0,,,,,,,,,,,,,,,,repeat,number,numRpt,f,0.4512,Lo,,,,,,0,,,,,,,,high,21,0,21,0,1,,,,,,,,,
298099,2022-12-05_21h30.52.575,vts_reward_expectancy_bt,2022.2.4,Win32,60.0132029,Chrome,1536,864,,,,,10,912,,,,,,,,,,,,,,,,,125,H,star,1,0,,,,,,,,,,,,,,,,switch,letter,lettSwt,j,0.6652,Hi,,,,,,0,,,,,,,,high,22,0,22,0,1,,,,,,,,,
298099,2022-12-05_21h30.52.575,vts_reward_expectancy_bt,2022.2.4,Win32,60.0132029,Chrome,1536,864,,,,,10,922,,,,,,,,,,,,,,,,,146,U,circle,1,0,,,,,,,,,,,,,,,,switch,number,numSwt,d,1.105,Lo,,,,,,0,,,,,,,,high,23,0,23,0,1,,,,,,,,,
298099,2022-12-05_21h30.52.575,vts_reward_expectancy_bt,2022.2.4,Win32,60.0132029,Chrome,1536,864,,,,,10,932,,,,,,,,,,,,,,,,,139,F,circle,1,0,,,,,,,,,,,,,,,,repeat,number,numRpt,d,0.6558,Lo,,,,,,0,,,,,,,,high,24,0,24,0,1,,,,,,,,,
298099,2022-12-05_21h30.52.575,vts_reward_expectancy_bt,2022.2.4,Win32,60.0132029,Chrome,1536,864,,,,,10,942,,,,,,,,,,,,,,,,,160,W,hexagon,1,0,,,,,,,,,,,,,,,,switch,letter,lettSwt,k,0.8514,Hi,,,,,,0,,,,,,,,high,25,0,25,0,1,,,,,,,,,
298099,2022-12-05_21h30.52.575,vts_reward_expectancy_bt,2022.2.4,Win32,60.0132029,Chrome,1536,864,,,,,10,952,,,,,,,,,,,,,,,,,167,Y,star,1,0,,,,,,,,,,,,,,,,repeat,letter,lettRpt,k,0.4724,Hi,,,,,,0,,,,,,,,high,26,0,26,0,1,,,,,,,,,
298099,2022-12-05_21h30.52.575,vts_reward_expectancy_bt,2022.2.4,Win32,60.0132029,Chrome,1536,864,,,,,10,962,,,,,,,,,,,,,,,,,146,H,triangle,1,0,,,,,,,,,,,,,,,,repeat,letter,lettRpt,j,0.6639,Lo,,,,,,0,,,,,,,,high,27,0,27,0,1,,,,,,,,,
298099,2022-12-05_21h30.52.575,vts_reward_expectancy_bt,2022.2.4,Win32,60.0132029,Chrome,1536,864,,,,,1,963,,,,,,,,,,,,,,,,,181,U,star,1,0,,,,,,,,,,,,,,,,repeat,letter,lettRpt,k,0.5485,Hi,,,,,,0,,,,,,,,high,28,0,28,0,1,,,,,,,,,
298099,2022-12-05_21h30.52.575,vts_reward_expectancy_bt,2022.2.4,Win32,60.0132029,Chrome,1536,864,,,,,1,964,,,,,,,,,,,,,,,,,125,B,circle,1,0,,,,,,,,,,,,,,,,switch,number,numSwt,d,1.4068,Lo,,,,,,0,,,,,,,,high,29,0,29,0,1,,,,,,,,,
298099,2022-12-05_21h30.52.575,vts_reward_expectancy_bt,2022.2.4,Win32,60.0132029,Chrome,1536,864,,,,,1,965,,,,,,,,,,,,,,,,,174,S,triangle,1,0,,,,,,,,,,,,,,,,repeat,number,numRpt,f,0.5863,Lo,,,,,,0,,,,,,,,high,30,0,30,0,1,,,,,,,,,
298099,2022-12-05_21h30.52.575,vts_reward_expectancy_bt,2022.2.4,Win32,60.0132029,Chrome,1536,864,,,,,10,975,,,,,,,,,,,,,,,,,132,D,hexagon,1,0,,,,,,,,,,,,,,,,switch,letter,lettSwt,j,0.7193,Hi,,,,,,0,,,,,,,,high,31,0,31,0,1,,,,,,,,,
298099,2022-12-05_21h30.52.575,vts_reward_expectancy_bt,2022.2.4,Win32,60.0132029,Chrome,1536,864,,,,,10,985,,,,,,,,,,,,,,,,,167,S,circle,1,0,,,,,,,,,,,,,,,,repeat,letter,lettRpt,k,0.7535,Lo,,,,,,1,,,,,,space,8.1377,high,0,0,0,0,1,,,,,,,,,
298099,2022-12-05_21h30.52.575,vts_reward_expectancy_bt,2022.2.4,Win32,60.0132029,Chrome,1536,864,,,,,10,995,,,,,,,,,,,,,,,,,132,U,star,1,0,,,,,,,,,,,,,,,,switch,number,numSwt,d,0.5026,Hi,,,,,,1,,,,,,,,high,1,0,1,0,1,,,,,,,,,
298099,2022-12-05_21h30.52.575,vts_reward_expectancy_bt,2022.2.4,Win32,60.0132029,Chrome,1536,864,,,,,1,996,,,,,,,,,,,,,,,,,160,Y,triangle,1,0,,,,,,,,,,,,,,,,repeat,number,numRpt,f,0.8277,Lo,,,,,,1,,,,,,,,high,2,0,2,0,1,,,,,,,,,
298099,2022-12-05_21h30.52.575,vts_reward_expectancy_bt,2022.2.4,Win32,60.0132029,Chrome,1536,864,,,,,10,1006,,,,,,,,,,,,,,,,,125,F,hexagon,1,0,,,,,,,,,,,,,,,,repeat,number,numRpt,d,0.5728,Hi,,,,,,1,,,,,,,,high,3,0,3,0,1,,,,,,,,,
298099,2022-12-05_21h30.52.575,vts_reward_expectancy_bt,2022.2.4,Win32,60.0132029,Chrome,1536,864,,,,,10,1016,,,,,,,,,,,,,,,,,181,W,circle,1,0,,,,,,,,,,,,,,,,switch,letter,lettSwt,k,0.6103,Lo,,,,,,1,,,,,,,,high,4,0,4,0,1,,,,,,,,,
298099,2022-12-05_21h30.52.575,vts_reward_expectancy_bt,2022.2.4,Win32,60.0132029,Chrome,1536,864,,,,,10,1026,,,,,,,,,,,,,,,,,139,D,star,1,0,,,,,,,,,,,,,,,,switch,number,numSwt,d,0.511,Hi,,,,,,1,,,,,,,,high,5,0,5,0,1,,,,,,,,,
298099,2022-12-05_21h30.52.575,vts_reward_expectancy_bt,2022.2.4,Win32,60.0132029,Chrome,1536,864,,,,,10,1036,,,,,,,,,,,,,,,,,146,H,triangle,1,0,,,,,,,,,,,,,,,,switch,letter,lettSwt,j,0.558,Lo,,,,,,1,,,,,,,,high,6,0,6,0,1,,,,,,,,,
298099,2022-12-05_21h30.52.575,vts_reward_expectancy_bt,2022.2.4,Win32,60.0132029,Chrome,1536,864,,,,,10,1046,,,,,,,,,,,,,,,,,174,B,hexagon,1,0,,,,,,,,,,,,,,,,repeat,letter,lettRpt,j,0.5365,Hi,,,,,,1,,,,,,,,high,7,0,7,0,1,,,,,,,,,
298099,2022-12-05_21h30.52.575,vts_reward_expectancy_bt,2022.2.4,Win32,60.0132029,Chrome,1536,864,,,,,0,1046,,,,,,,,,,,,,,,,,167,S,hexagon,0,0,,,,,,,,,,,,,,,,switch,number,NA,d,0.9493,Hi,,,,,,1,,,,,,,,high,8,0,8,0,1,,,,,,,,,
298099,2022-12-05_21h30.52.575,vts_reward_expectancy_bt,2022.2.4,Win32,60.0132029,Chrome,1536,864,,,,,1,1047,,,,,,,,,,,,,,,,,132,U,circle,1,1,,,,,,,,,,,,,,,,repeat,number,numRpt,d,0.7679,Lo,,,,,,1,,,,,,,,high,9,0,9,0,1,,,,,,,,,
298099,2022-12-05_21h30.52.575,vts_reward_expectancy_bt,2022.2.4,Win32,60.0132029,Chrome,1536,864,,,,,10,1057,,,,,,,,,,,,,,,,,160,Y,star,1,0,,,,,,,,,,,,,,,,repeat,number,numRpt,f,0.5557,Hi,,,,,,1,,,,,,,,high,10,0,10,0,1,,,,,,,,,
298099,2022-12-05_21h30.52.575,vts_reward_expectancy_bt,2022.2.4,Win32,60.0132029,Chrome,1536,864,,,,,1,1058,,,,,,,,,,,,,,,,,125,F,triangle,1,0,,,,,,,,,,,,,,,,switch,letter,lettSwt,j,0.7326,Lo,,,,,,1,,,,,,,,high,11,0,11,0,1,,,,,,,,,
298099,2022-12-05_21h30.52.575,vts_reward_expectancy_bt,2022.2.4,Win32,60.0132029,Chrome,1536,864,,,,,0,1058,,,,,,,,,,,,,,,,,181,W,hexagon,1,0,,,,,,,,,,,,,,,,repeat,letter,lettRpt,k,0.7912,Hi,,,,,,1,,,,,,,,high,12,0,12,0,1,,,,,,,,,
298099,2022-12-05_21h30.52.575,vts_reward_expectancy_bt,2022.2.4,Win32,60.0132029,Chrome,1536,864,,,,,10,1068,,,,,,,,,,,,,,,,,139,D,triangle,1,0,,,,,,,,,,,,,,,,repeat,letter,lettRpt,j,0.6762,Lo,,,,,,1,,,,,,,,high,13,0,13,0,1,,,,,,,,,
298099,2022-12-05_21h30.52.575,vts_reward_expectancy_bt,2022.2.4,Win32,60.0132029,Chrome,1536,864,,,,,0,1068,,,,,,,,,,,,,,,,,146,H,star,1,0,,,,,,,,,,,,,,,,repeat,letter,lettRpt,j,1.0592,Hi,,,,,,1,,,,,,,,high,14,0,14,0,1,,,,,,,,,
298099,2022-12-05_21h30.52.575,vts_reward_expectancy_bt,2022.2.4,Win32,60.0132029,Chrome,1536,864,,,,,1,1069,,,,,,,,,,,,,,,,,174,B,circle,1,0,,,,,,,,,,,,,,,,repeat,letter,lettRpt,j,0.8262,Lo,,,,,,1,,,,,,,,high,15,0,15,0,1,,,,,,,,,
298099,2022-12-05_21h30.52.575,vts_reward_expectancy_bt,2022.2.4,Win32,60.0132029,Chrome,1536,864,,,,,0,1069,,,,,,,,,,,,,,,,,167,B,hexagon,1,0,,,,,,,,,,,,,,,,switch,number,numSwt,f,1.7175,Hi,,,,,,1,,,,,,,,high,16,0,16,0,1,,,,,,,,,
298099,2022-12-05_21h30.52.575,vts_reward_expectancy_bt,2022.2.4,Win32,60.0132029,Chrome,1536,864,,,,,1,1070,,,,,,,,,,,,,,,,,160,S,triangle,1,0,,,,,,,,,,,,,,,,repeat,number,numRpt,f,0.6577,Lo,,,,,,1,,,,,,,,high,17,0,17,0,1,,,,,,,,,
298099,2022-12-05_21h30.52.575,vts_reward_expectancy_bt,2022.2.4,Win32,60.0132029,Chrome,1536,864,,,,,0,1070,,,,,,,,,,,,,,,,,146,W,star,1,0,,,,,,,,,,,,,,,,repeat,number,numRpt,d,0.6109,Hi,,,,,,1,,,,,,,,high,18,0,18,0,1,,,,,,,,,
298099,2022-12-05_21h30.52.575,vts_reward_expectancy_bt,2022.2.4,Win32,60.0132029,Chrome,1536,864,,,,,10,1080,,,,,,,,,,,,,,,,,125,U,circle,1,0,,,,,,,,,,,,,,,,repeat,number,numRpt,d,0.5447,Lo,,,,,,1,,,,,,,,high,19,0,19,0,1,,,,,,,,,
298099,2022-12-05_21h30.52.575,vts_reward_expectancy_bt,2022.2.4,Win32,60.0132029,Chrome,1536,864,,,,,0,1080,,,,,,,,,,,,,,,,,132,Y,hexagon,1,0,,,,,,,,,,,,,,,,repeat,number,numRpt,d,0.721,Hi,,,,,,1,,,,,,,,high,20,0,20,0,1,,,,,,,,,
298099,2022-12-05_21h30.52.575,vts_reward_expectancy_bt,2022.2.4,Win32,60.0132029,Chrome,1536,864,,,,,10,1090,,,,,,,,,,,,,,,,,139,D,circle,1,0,,,,,,,,,,,,,,,,switch,letter,lettSwt,j,0.5377,Lo,,,,,,1,,,,,,,,high,21,0,21,0,1,,,,,,,,,
298099,2022-12-05_21h30.52.575,vts_reward_expectancy_bt,2022.2.4,Win32,60.0132029,Chrome,1536,864,,,,,10,1100,,,,,,,,,,,,,,,,,174,F,star,1,0,,,,,,,,,,,,,,,,repeat,letter,lettRpt,j,0.6112,Hi,,,,,,1,,,,,,,,high,22,0,22,0,1,,,,,,,,,
298099,2022-12-05_21h30.52.575,vts_reward_expectancy_bt,2022.2.4,Win32,60.0132029,Chrome,1536,864,,,,,1,1101,,,,,,,,,,,,,,,,,181,H,triangle,1,0,,,,,,,,,,,,,,,,repeat,letter,lettRpt,j,0.5577,Lo,,,,,,1,,,,,,,,high,23,0,23,0,1,,,,,,,,,
298099,2022-12-05_21h30.52.575,vts_reward_expectancy_bt,2022.2.4,Win32,60.0132029,Chrome,1536,864,,,,,10,1111,,,,,,,,,,,,,,,,,146,W,star,1,0,,,,,,,,,,,,,,,,switch,number,numSwt,d,0.6665,Hi,,,,,,1,,,,,,,,high,24,0,24,0,1,,,,,,,,,
298099,2022-12-05_21h30.52.575,vts_reward_expectancy_bt,2022.2.4,Win32,60.0132029,Chrome,1536,864,,,,,10,1121,,,,,,,,,,,,,,,,,181,B,hexagon,1,0,,,,,,,,,,,,,,,,switch,letter,lettSwt,j,0.5611,Hi,,,,,,1,,,,,,,,high,25,0,25,0,1,,,,,,,,,
298099,2022-12-05_21h30.52.575,vts_reward_expectancy_bt,2022.2.4,Win32,60.0132029,Chrome,1536,864,,,,,1,1122,,,,,,,,,,,,,,,,,167,U,triangle,1,0,,,,,,,,,,,,,,,,repeat,letter,lettRpt,k,1.0375,Lo,,,,,,1,,,,,,,,high,26,0,26,0,1,,,,,,,,,
298099,2022-12-05_21h30.52.575,vts_reward_expectancy_bt,2022.2.4,Win32,60.0132029,Chrome,1536,864,,,,,0,1122,,,,,,,,,,,,,,,,,174,F,circle,0,0,,,,,,,,,,,,,,,,repeat,letter,NA,k,0.8179,Lo,,,,,,1,,,,,,,,high,27,0,27,0,1,,,,,,,,,
298099,2022-12-05_21h30.52.575,vts_reward_expectancy_bt,2022.2.4,Win32,60.0132029,Chrome,1536,864,,,,,0,1122,,,,,,,,,,,,,,,,,160,S,star,1,1,,,,,,,,,,,,,,,,repeat,letter,lettRpt,k,0.9524,Hi,,,,,,1,,,,,,,,high,28,0,28,0,1,,,,,,,,,
298099,2022-12-05_21h30.52.575,vts_reward_expectancy_bt,2022.2.4,Win32,60.0132029,Chrome,1536,864,,,,,10,1132,,,,,,,,,,,,,,,,,132,H,triangle,1,0,,,,,,,,,,,,,,,,repeat,letter,lettRpt,j,0.9192,Lo,,,,,,1,,,,,,,,high,29,0,29,0,1,,,,,,,,,
298099,2022-12-05_21h30.52.575,vts_reward_expectancy_bt,2022.2.4,Win32,60.0132029,Chrome,1536,864,,,,,0,1132,,,,,,,,,,,,,,,,,125,Y,hexagon,1,0,,,,,,,,,,,,,,,,repeat,letter,lettRpt,k,0.6853,Hi,,,,,,1,,,,,,,,high,30,0,30,0,1,,,,,,,,,
298099,2022-12-05_21h30.52.575,vts_reward_expectancy_bt,2022.2.4,Win32,60.0132029,Chrome,1536,864,,,,,10,1142,,,,,,,,,,,,,,,,,139,D,circle,1,0,,,,,,,,,,,,,,,,repeat,letter,lettRpt,j,1.0615,Lo,,,,,,1,,,,,,,,high,31,0,31,0,1,,,,,,,,,
298099,2022-12-05_21h30.52.575,vts_reward_expectancy_bt,2022.2.4,Win32,60.0132029,Chrome,1536,864,,,,,0,1142,,,,,,,,,,,,,,,,,146,B,hexagon,1,0,,,,,,,,,,,,,,,,switch,number,numSwt,d,0.7673,Hi,,,,,,2,,,,,,space,1.2126,high,0,0,0,0,1,,,,,,,,,
298099,2022-12-05_21h30.52.575,vts_reward_expectancy_bt,2022.2.4,Win32,60.0132029,Chrome,1536,864,,,,,1,1143,,,,,,,,,,,,,,,,,139,U,triangle,1,0,,,,,,,,,,,,,,,,switch,letter,lettSwt,k,0.838,Lo,,,,,,2,,,,,,,,high,1,0,1,0,1,,,,,,,,,
298099,2022-12-05_21h30.52.575,vts_reward_expectancy_bt,2022.2.4,Win32,60.0132029,Chrome,1536,864,,,,,0,1143,,,,,,,,,,,,,,,,,125,S,star,0,0,,,,,,,,,,,,,,,,repeat,letter,NA,j,0.4327,Lo,,,,,,2,,,,,,,,high,2,0,2,0,1,,,,,,,,,
298099,2022-12-05_21h30.52.575,vts_reward_expectancy_bt,2022.2.4,Win32,60.0132029,Chrome,1536,864,,,,,1,1144,,,,,,,,,,,,,,,,,132,W,circle,1,1,,,,,,,,,,,,,,,,switch,number,numSwt,d,0.4858,Lo,,,,,,2,,,,,,,,high,3,0,3,0,1,,,,,,,,,
298099,2022-12-05_21h30.52.575,vts_reward_expectancy_bt,2022.2.4,Win32,60.0132029,Chrome,1536,864,,,,,0,1144,,,,,,,,,,,,,,,,,160,F,hexagon,1,0,,,,,,,,,,,,,,,,switch,letter,lettSwt,j,0.9273,Hi,,,,,,2,,,,,,,,high,4,0,4,0,1,,,,,,,,,
298099,2022-12-05_21h30.52.575,vts_reward_expectancy_bt,2022.2.4,Win32,60.0132029,Chrome,1536,864,,,,,10,1154,,,,,,,,,,,,,,,,,174,D,triangle,1,0,,,,,,,,,,,,,,,,repeat,letter,lettRpt,j,0.9681,Lo,,,,,,2,,,,,,,,high,5,0,5,0,1,,,,,,,,,
298099,2022-12-05_21h30.52.575,vts_reward_expectancy_bt,2022.2.4,Win32,60.0132029,Chrome,1536,864,,,,,10,1164,,,,,,,,,,,,,,,,,181,H,star,1,0,,,,,,,,,,,,,,,,switch,number,numSwt,f,0.4906,Hi,,,,,,2,,,,,,,,high,6,0,6,0,1,,,,,,,,,
298099,2022-12-05_21h30.52.575,vts_reward_expectancy_bt,2022.2.4,Win32,60.0132029,Chrome,1536,864,,,,,1,1165,,,,,,,,,,,,,,,,,167,Y,circle,1,0,,,,,,,,,,,,,,,,switch,letter,lettSwt,k,0.6297,Lo,,,,,,2,,,,,,,,high,7,0,7,0,1,,,,,,,,,
298099,2022-12-05_21h30.52.575,vts_reward_expectancy_bt,2022.2.4,Win32,60.0132029,Chrome,1536,864,,,,,1,1166,,,,,,,,,,,,,,,,,146,B,triangle,1,0,,,,,,,,,,,,,,,,repeat,letter,lettRpt,j,0.4553,Lo,,,,,,2,,,,,,,,high,8,0,8,0,1,,,,,,,,,
298099,2022-12-05_21h30.52.575,vts_reward_expectancy_bt,2022.2.4,Win32,60.0132029,Chrome,1536,864,,,,,1,1167,,,,,,,,,,,,,,,,,139,U,circle,1,0,,,,,,,,,,,,,,,,switch,number,numSwt,d,0.4599,Lo,,,,,,2,,,,,,,,high,9,0,9,0,1,,,,,,,,,
298099,2022-12-05_21h30.52.575,vts_reward_expectancy_bt,2022.2.4,Win32,60.0132029,Chrome,1536,864,,,,,10,1177,,,,,,,,,,,,,,,,,125,S,star,1,0,,,,,,,,,,,,,,,,repeat,number,numRpt,d,0.5009,Hi,,,,,,2,,,,,,,,high,10,0,10,0,1,,,,,,,,,
298099,2022-12-05_21h30.52.575,vts_reward_expectancy_bt,2022.2.4,Win32,60.0132029,Chrome,1536,864,,,,,10,1187,,,,,,,,,,,,,,,,,132,W,hexagon,1,0,,,,,,,,,,,,,,,,repeat,number,numRpt,d,0.5545,Hi,,,,,,2,,,,,,,,high,11,0,11,0,1,,,,,,,,,
298099,2022-12-05_21h30.52.575,vts_reward_expectancy_bt,2022.2.4,Win32,60.0132029,Chrome,1536,864,,,,,1,1188,,,,,,,,,,,,,,,,,160,F,triangle,1,0,,,,,,,,,,,,,,,,switch,letter,lettSwt,j,0.7201,Lo,,,,,,2,,,,,,,,high,12,0,12,0,1,,,,,,,,,
298099,2022-12-05_21h30.52.575,vts_reward_expectancy_bt,2022.2.4,Win32,60.0132029,Chrome,1536,864,,,,,10,1198,,,,,,,,,,,,,,,,,174,D,hexagon,1,0,,,,,,,,,,,,,,,,repeat,letter,lettRpt,j,0.5273,Hi,,,,,,2,,,,,,,,high,13,0,13,0,1,,,,,,,,,
298099,2022-12-05_21h30.52.575,vts_reward_expectancy_bt,2022.2.4,Win32,60.0132029,Chrome,1536,864,,,,,1,1199,,,,,,,,,,,,,,,,,181,H,circle,1,0,,,,,,,,,,,,,,,,repeat,letter,lettRpt,j,0.6099,Lo,,,,,,2,,,,,,,,high,14,0,14,0,1,,,,,,,,,
298099,2022-12-05_21h30.52.575,vts_reward_expectancy_bt,2022.2.4,Win32,60.0132029,Chrome,1536,864,,,,,10,1209,,,,,,,,,,,,,,,,,167,Y,star,1,0,,,,,,,,,,,,,,,,repeat,letter,lettRpt,k,0.4326,Hi,,,,,,2,,,,,,,,high,15,0,15,0,1,,,,,,,,,
298099,2022-12-05_21h30.52.575,vts_reward_expectancy_bt,2022.2.4,Win32,60.0132029,Chrome,1536,864,,,,,0,1209,,,,,,,,,,,,,,,,,146,D,hexagon,1,0,,,,,,,,,,,,,,,,switch,number,numSwt,d,0.8049,Hi,,,,,,2,,,,,,,,high,16,0,16,0,1,,,,,,,,,
298099,2022-12-05_21h30.52.575,vts_reward_expectancy_bt,2022.2.4,Win32,60.0132029,Chrome,1536,864,,,,,0,1209,,,,,,,,,,,,,,,,,174,Y,star,1,0,,,,,,,,,,,,,,,,repeat,number,numRpt,f,0.6005,Hi,,,,,,2,,,,,,,,high,17,0,17,0,1,,,,,,,,,
298099,2022-12-05_21h30.52.575,vts_reward_expectancy_bt,2022.2.4,Win32,60.0132029,Chrome,1536,864,,,,,1,1210,,,,,,,,,,,,,,,,,132,U,circle,1,0,,,,,,,,,,,,,,,,repeat,number,numRpt,d,0.7988,Lo,,,,,,2,,,,,,,,high,18,0,18,0,1,,,,,,,,,
298099,2022-12-05_21h30.52.575,vts_reward_expectancy_bt,2022.2.4,Win32,60.0132029,Chrome,1536,864,,,,,0,1210,,,,,,,,,,,,,,,,,167,W,triangle,0,0,,,,,,,,,,,,,,,,repeat,number,NA,d,1.1368,Lo,,,,,,2,,,,,,,,high,19,0,19,0,1,,,,,,,,,
298099,2022-12-05_21h30.52.575,vts_reward_expectancy_bt,2022.2.4,Win32,60.0132029,Chrome,1536,864,,,,,1,1211,,,,,,,,,,,,,,,,,125,B,triangle,1,1,,,,,,,,,,,,,,,,repeat,number,numRpt,d,0.8092,Lo,,,,,,2,,,,,,,,high,20,0,20,0,1,,,,,,,,,
298099,2022-12-05_21h30.52.575,vts_reward_expectancy_bt,2022.2.4,Win32,60.0132029,Chrome,1536,864,,,,,0,1211,,,,,,,,,,,,,,,,,139,S,hexagon,1,0,,,,,,,,,,,,,,,,switch,letter,lettSwt,k,0.8348,Hi,,,,,,2,,,,,,,,high,21,0,21,0,1,,,,,,,,,
298099,2022-12-05_21h30.52.575,vts_reward_expectancy_bt,2022.2.4,Win32,60.0132029,Chrome,1536,864,,,,,1,1212,,,,,,,,,,,,,,,,,160,F,circle,1,0,,,,,,,,,,,,,,,,repeat,letter,lettRpt,j,0.7007,Lo,,,,,,2,,,,,,,,high,22,0,22,0,1,,,,,,,,,
298099,2022-12-05_21h30.52.575,vts_reward_expectancy_bt,2022.2.4,Win32,60.0132029,Chrome,1536,864,,,,,0,1212,,,,,,,,,,,,,,,,,181,H,star,1,0,,,,,,,,,,,,,,,,repeat,letter,lettRpt,j,0.7712,Hi,,,,,,2,,,,,,,,high,23,0,23,0,1,,,,,,,,,
298099,2022-12-05_21h30.52.575,vts_reward_expectancy_bt,2022.2.4,Win32,60.0132029,Chrome,1536,864,,,,,1,1213,,,,,,,,,,,,,,,,,139,Y,circle,1,0,,,,,,,,,,,,,,,,repeat,letter,lettRpt,k,0.6744,Lo,,,,,,2,,,,,,,,high,24,0,24,0,1,,,,,,,,,
298099,2022-12-05_21h30.52.575,vts_reward_expectancy_bt,2022.2.4,Win32,60.0132029,Chrome,1536,864,,,,,1,1214,,,,,,,,,,,,,,,,,160,F,hexagon,1,0,,,,,,,,,,,,,,,,switch,number,numSwt,f,0.4483,Hi,,,,,,2,,,,,,,,high,25,0,25,0,1,,,,,,,,,
298099,2022-12-05_21h30.52.575,vts_reward_expectancy_bt,2022.2.4,Win32,60.0132029,Chrome,1536,864,,,,,1,1215,,,,,,,,,,,,,,,,,146,S,triangle,1,0,,,,,,,,,,,,,,,,repeat,number,numRpt,d,0.5336,Lo,,,,,,2,,,,,,,,high,26,0,26,0,1,,,,,,,,,
298099,2022-12-05_21h30.52.575,vts_reward_expectancy_bt,2022.2.4,Win32,60.0132029,Chrome,1536,864,,,,,10,1225,,,,,,,,,,,,,,,,,132,D,star,1,0,,,,,,,,,,,,,,,,repeat,number,numRpt,d,0.4248,Hi,,,,,,2,,,,,,,,high,27,0,27,0,1,,,,,,,,,
298099,2022-12-05_21h30.52.575,vts_reward_expectancy_bt,2022.2.4,Win32,60.0132029,Chrome,1536,864,,,,,10,1235,,,,,,,,,,,,,,,,,181,B,hexagon,1,0,,,,,,,,,,,,,,,,repeat,number,numRpt,f,0.5018,Hi,,,,,,2,,,,,,,,high,28,0,28,0,1,,,,,,,,,
298099,2022-12-05_21h30.52.575,vts_reward_expectancy_bt,2022.2.4,Win32,60.0132029,Chrome,1536,864,,,,,1,1236,,,,,,,,,,,,,,,,,174,W,circle,1,0,,,,,,,,,,,,,,,,repeat,number,numRpt,f,0.4214,Lo,,,,,,2,,,,,,,,high,29,0,29,0,1,,,,,,,,,
298099,2022-12-05_21h30.52.575,vts_reward_expectancy_bt,2022.2.4,Win32,60.0132029,Chrome,1536,864,,,,,0,1236,,,,,,,,,,,,,,,,,167,U,star,1,0,,,,,,,,,,,,,,,,repeat,number,numRpt,f,0.709,Hi,,,,,,2,,,,,,,,high,30,0,30,0,1,,,,,,,,,
298099,2022-12-05_21h30.52.575,vts_reward_expectancy_bt,2022.2.4,Win32,60.0132029,Chrome,1536,864,,,,,1,1237,,,,,,,,,,,,,,,,,125,H,triangle,1,0,,,,,,,,,,,,,,,,repeat,number,numRpt,d,0.5004,Lo,,,,,,2,,,,,,,,high,31,0,31,0,1,,,,,,,,,
298099,2022-12-05_21h30.52.575,vts_reward_expectancy_bt,2022.2.4,Win32,60.0132029,Chrome,1536,864,,,,,1,1238,,,,,,,,,,,,,,,,,167,F,circle,1,0,,,,,,,,,,,,,,,,switch,letter,lettSwt,j,0.5047,Lo,,,,,,3,,,,,,space,1.0247,high,0,0,0,0,1,,,,,,,,,
298099,2022-12-05_21h30.52.575,vts_reward_expectancy_bt,2022.2.4,Win32,60.0132029,Chrome,1536,864,,,,,0,1238,,,,,,,,,,,,,,,,,181,W,hexagon,1,0,,,,,,,,,,,,,,,,repeat,letter,lettRpt,k,0.5747,Hi,,,,,,3,,,,,,,,high,1,0,1,0,1,,,,,,,,,
298099,2022-12-05_21h30.52.575,vts_reward_expectancy_bt,2022.2.4,Win32,60.0132029,Chrome,1536,864,,,,,10,1248,,,,,,,,,,,,,,,,,174,H,triangle,1,0,,,,,,,,,,,,,,,,switch,number,numSwt,f,0.5524,Lo,,,,,,3,,,,,,,,high,2,0,2,0,1,,,,,,,,,
298099,2022-12-05_21h30.52.575,vts_reward_expectancy_bt,2022.2.4,Win32,60.0132029,Chrome,1536,864,,,,,10,1258,,,,,,,,,,,,,,,,,160,S,star,1,0,,,,,,,,,,,,,,,,switch,letter,lettSwt,k,0.4899,Hi,,,,,,3,,,,,,,,high,3,0,3,0,1,,,,,,,,,
298099,2022-12-05_21h30.52.575,vts_reward_expectancy_bt,2022.2.4,Win32,60.0132029,Chrome,1536,864,,,,,10,1268,,,,,,,,,,,,,,,,,146,D,circle,1,0,,,,,,,,,,,,,,,,switch,number,numSwt,d,0.804,Lo,,,,,,3,,,,,,,,high,4,0,4,0,1,,,,,,,,,
298099,2022-12-05_21h30.52.575,vts_reward_expectancy_bt,2022.2.4,Win32,60.0132029,Chrome,1536,864,,,,,0,1268,,,,,,,,,,,,,,,,,132,U,hexagon,1,0,,,,,,,,,,,,,,,,repeat,number,numRpt,d,0.531,Hi,,,,,,3,,,,,,,,high,5,0,5,0,1,,,,,,,,,
298099,2022-12-05_21h30.52.575,vts_reward_expectancy_bt,2022.2.4,Win32,60.0132029,Chrome,1536,864,,,,,1,1269,,,,,,,,,,,,,,,,,125,Y,triangle,1,0,,,,,,,,,,,,,,,,repeat,number,numRpt,d,0.5025,Lo,,,,,,3,,,,,,,,high,6,0,6,0,1,,,,,,,,,
298099,2022-12-05_21h30.52.575,vts_reward_expectancy_bt,2022.2.4,Win32,60.0132029,Chrome,1536,864,,,,,10,1279,,,,,,,,,,,,,,,,,139,B,star,1,0,,,,,,,,,,,,,,,,repeat,number,numRpt,d,0.46,Hi,,,,,,3,,,,,,,,high,7,0,7,0,1,,,,,,,,,
298099,2022-12-05_21h30.52.575,vts_reward_expectancy_bt,2022.2.4,Win32,60.0132029,Chrome,1536,864,,,,,0,1279,,,,,,,,,,,,,,,,,167,F,star,1,0,,,,,,,,,,,,,,,,repeat,number,numRpt,f,0.7543,Hi,,,,,,3,,,,,,,,high,8,0,8,0,1,,,,,,,,,
298099,2022-12-05_21h30.52.575,vts_reward_expectancy_bt,2022.2.4,Win32,60.0132029,Chrome,1536,864,,,,,1,1280,,,,,,,,,,,,,,,,,181,W,hexagon,1,0,,,,,,,,,,,,,,,,switch,letter,lettSwt,k,0.6018,Hi,,,,,,3,,,,,,,,high,9,0,9,0,1,,,,,,,,,
298099,2022-12-05_21h30.52.575,vts_reward_expectancy_bt,2022.2.4,Win32,60.0132029,Chrome,1536,864,,,,,1,1281,,,,,,,,,,,,,,,,,174,H,triangle,1,0,,,,,,,,,,,,,,,,repeat,letter,lettRpt,j,0.7385,Lo,,,,,,3,,,,,,,,high,10,0,10,0,1,,,,,,,,,
298099,2022-12-05_21h30.52.575,vts_reward_expectancy_bt,2022.2.4,Win32,60.0132029,Chrome,1536,864,,,,,10,1291,,,,,,,,,,,,,,,,,160,S,circle,1,0,,,,,,,,,,,,,,,,switch,number,numSwt,f,0.8348,Lo,,,,,,3,,,,,,,,high,11,0,11,0,1,,,,,,,,,
298099,2022-12-05_21h30.52.575,vts_reward_expectancy_bt,2022.2.4,Win32,60.0132029,Chrome,1536,864,,,,,1,1292,,,,,,,,,,,,,,,,,146,D,star,1,0,,,,,,,,,,,,,,,,switch,letter,lettSwt,j,0.5709,Hi,,,,,,3,,,,,,,,high,12,0,12,0,1,,,,,,,,,
298099,2022-12-05_21h30.52.575,vts_reward_expectancy_bt,2022.2.4,Win32,60.0132029,Chrome,1536,864,,,,,10,1302,,,,,,,,,,,,,,,,,132,U,hexagon,1,0,,,,,,,,,,,,,,,,repeat,letter,lettRpt,k,0.5338,Hi,,,,,,3,,,,,,,,high,13,0,13,0,1,,,,,,,,,
298099,2022-12-05_21h30.52.575,vts_reward_expectancy_bt,2022.2.4,Win32,60.0132029,Chrome,1536,864,,,,,1,1303,,,,,,,,,,,,,,,,,125,Y,circle,1,0,,,,,,,,,,,,,,,,switch,number,numSwt,d,0.5382,Lo,,,,,,3,,,,,,,,high,14,0,14,0,1,,,,,,,,,
298099,2022-12-05_21h30.52.575,vts_reward_expectancy_bt,2022.2.4,Win32,60.0132029,Chrome,1536,864,,,,,1,1304,,,,,,,,,,,,,,,,,139,B,triangle,1,0,,,,,,,,,,,,,,,,repeat,number,numRpt,d,0.5354,Lo,,,,,,3,,,,,,,,high,15,0,15,0,1,,,,,,,,,
298099,2022-12-05_21h30.52.575,vts_reward_expectancy_bt,2022.2.4,Win32,60.0132029,Chrome,1536,864,,,,,1,1305,,,,,,,,,,,,,,,,,174,B,triangle,1,0,,,,,,,,,,,,,,,,repeat,number,numRpt,f,0.7929,Lo,,,,,,3,,,,,,,,high,16,0,16,0,1,,,,,,,,,
298099,2022-12-05_21h30.52.575,vts_reward_expectancy_bt,2022.2.4,Win32,60.0132029,Chrome,1536,864,,,,,0,1305,,,,,,,,,,,,,,,,,160,D,star,1,0,,,,,,,,,,,,,,,,repeat,number,numRpt,f,0.6473,Hi,,,,,,3,,,,,,,,high,17,0,17,0,1,,,,,,,,,
298099,2022-12-05_21h30.52.575,vts_reward_expectancy_bt,2022.2.4,Win32,60.0132029,Chrome,1536,864,,,,,1,1306,,,,,,,,,,,,,,,,,125,U,circle,1,0,,,,,,,,,,,,,,,,repeat,number,numRpt,d,0.9135,Lo,,,,,,3,,,,,,,,high,18,0,18,0,1,,,,,,,,,
298099,2022-12-05_21h30.52.575,vts_reward_expectancy_bt,2022.2.4,Win32,60.0132029,Chrome,1536,864,,,,,0,1306,,,,,,,,,,,,,,,,,139,S,hexagon,1,0,,,,,,,,,,,,,,,,switch,letter,lettSwt,k,0.9265,Hi,,,,,,3,,,,,,,,high,19,0,19,0,1,,,,,,,,,
298099,2022-12-05_21h30.52.575,vts_reward_expectancy_bt,2022.2.4,Win32,60.0132029,Chrome,1536,864,,,,,0,1306,,,,,,,,,,,,,,,,,132,H,star,0,0,,,,,,,,,,,,,,,,repeat,letter,NA,k,0.818,Hi,,,,,,3,,,,,,,,high,20,0,20,0,1,,,,,,,,,
298099,2022-12-05_21h30.52.575,vts_reward_expectancy_bt,2022.2.4,Win32,60.0132029,Chrome,1536,864,,,,,0,1306,,,,,,,,,,,,,,,,,167,W,hexagon,1,1,,,,,,,,,,,,,,,,repeat,letter,lettRpt,k,0.8249,Hi,,,,,,3,,,,,,,,high,21,0,21,0,1,,,,,,,,,
298099,2022-12-05_21h30.52.575,vts_reward_expectancy_bt,2022.2.4,Win32,60.0132029,Chrome,1536,864,,,,,1,1307,,,,,,,,,,,,,,,,,146,F,triangle,1,0,,,,,,,,,,,,,,,,repeat,letter,lettRpt,j,0.6127,Lo,,,,,,3,,,,,,,,high,22,0,22,0,1,,,,,,,,,
298099,2022-12-05_21h30.52.575,vts_reward_expectancy_bt,2022.2.4,Win32,60.0132029,Chrome,1536,864,,,,,10,1317,,,,,,,,,,,,,,,,,181,Y,circle,1,0,,,,,,,,,,,,,,,,switch,number,numSwt,f,0.8556,Lo,,,,,,3,,,,,,,,high,23,0,23,0,1,,,,,,,,,
298099,2022-12-05_21h30.52.575,vts_reward_expectancy_bt,2022.2.4,Win32,60.0132029,Chrome,1536,864,,,,,1,1318,,,,,,,,,,,,,,,,,174,W,triangle,1,0,,,,,,,,,,,,,,,,repeat,number,numRpt,f,0.5312,Lo,,,,,,3,,,,,,,,high,24,0,24,0,1,,,,,,,,,
298099,2022-12-05_21h30.52.575,vts_reward_expectancy_bt,2022.2.4,Win32,60.0132029,Chrome,1536,864,,,,,10,1328,,,,,,,,,,,,,,,,,132,B,hexagon,1,0,,,,,,,,,,,,,,,,repeat,number,numRpt,d,0.4264,Hi,,,,,,3,,,,,,,,high,25,0,25,0,1,,,,,,,,,
298099,2022-12-05_21h30.52.575,vts_reward_expectancy_bt,2022.2.4,Win32,60.0132029,Chrome,1536,864,,,,,1,1329,,,,,,,,,,,,,,,,,125,H,circle,1,0,,,,,,,,,,,,,,,,repeat,number,numRpt,d,0.5429,Lo,,,,,,3,,,,,,,,high,26,0,26,0,1,,,,,,,,,
298099,2022-12-05_21h30.52.575,vts_reward_expectancy_bt,2022.2.4,Win32,60.0132029,Chrome,1536,864,,,,,0,1329,,,,,,,,,,,,,,,,,181,D,star,0,0,,,,,,,,,,,,,,,,switch,letter,NA,k,0.5132,Lo,,,,,,3,,,,,,,,high,27,0,27,0,1,,,,,,,,,
298099,2022-12-05_21h30.52.575,vts_reward_expectancy_bt,2022.2.4,Win32,60.0132029,Chrome,1536,864,,,,,0,1329,,,,,,,,,,,,,,,,,146,U,star,1,1,,,,,,,,,,,,,,,,repeat,letter,lettRpt,k,0.5843,Hi,,,,,,3,,,,,,,,high,28,0,28,0,1,,,,,,,,,
298099,2022-12-05_21h30.52.575,vts_reward_expectancy_bt,2022.2.4,Win32,60.0132029,Chrome,1536,864,,,,,1,1330,,,,,,,,,,,,,,,,,167,S,triangle,1,0,,,,,,,,,,,,,,,,repeat,letter,lettRpt,k,0.5882,Lo,,,,,,3,,,,,,,,high,29,0,29,0,1,,,,,,,,,
298099,2022-12-05_21h30.52.575,vts_reward_expectancy_bt,2022.2.4,Win32,60.0132029,Chrome,1536,864,,,,,0,1330,,,,,,,,,,,,,,,,,139,F,hexagon,1,0,,,,,,,,,,,,,,,,repeat,letter,lettRpt,j,0.5833,Hi,,,,,,3,,,,,,,,high,30,0,30,0,1,,,,,,,,,
298099,2022-12-05_21h30.52.575,vts_reward_expectancy_bt,2022.2.4,Win32,60.0132029,Chrome,1536,864,,,,,1,1331,,,,,,,,,,,,,,,,,160,Y,circle,1,0,,,,,,,,,,,,,,,,repeat,letter,lettRpt,k,0.5772,Lo,,,,,,3,,,,,,,,high,31,0,31,0,1,,,,,,,,,
298099,2022-12-05_21h30.52.575,vts_reward_expectancy_bt,2022.2.4,Win32,60.0132029,Chrome,1536,864,,,,,1,1332,,,,,,,,,,,,,,,,,181,Y,circle,1,0,,,,,,,,,,,,,,,,repeat,letter,lettRpt,k,0.5976,Lo,,,,,,4,,,,,,space,0.4531,high,0,0,0,0,1,,,,,,,,,
298099,2022-12-05_21h30.52.575,vts_reward_expectancy_bt,2022.2.4,Win32,60.0132029,Chrome,1536,864,,,,,10,1342,,,,,,,,,,,,,,,,,167,H,triangle,1,0,,,,,,,,,,,,,,,,repeat,letter,lettRpt,j,0.6033,Lo,,,,,,4,,,,,,,,high,1,0,1,0,1,,,,,,,,,
298099,2022-12-05_21h30.52.575,vts_reward_expectancy_bt,2022.2.4,Win32,60.0132029,Chrome,1536,864,,,,,10,1352,,,,,,,,,,,,,,,,,139,U,hexagon,1,0,,,,,,,,,,,,,,,,switch,number,numSwt,d,0.61,Hi,,,,,,4,,,,,,,,high,2,0,2,0,1,,,,,,,,,
298099,2022-12-05_21h30.52.575,vts_reward_expectancy_bt,2022.2.4,Win32,60.0132029,Chrome,1536,864,,,,,10,1362,,,,,,,,,,,,,,,,,174,B,star,1,0,,,,,,,,,,,,,,,,repeat,number,numRpt,f,0.4162,Hi,,,,,,4,,,,,,,,high,3,0,3,0,1,,,,,,,,,
298099,2022-12-05_21h30.52.575,vts_reward_expectancy_bt,2022.2.4,Win32,60.0132029,Chrome,1536,864,,,,,1,1363,,,,,,,,,,,,,,,,,146,F,circle,1,0,,,,,,,,,,,,,,,,repeat,number,numRpt,d,0.4762,Lo,,,,,,4,,,,,,,,high,4,0,4,0,1,,,,,,,,,
298099,2022-12-05_21h30.52.575,vts_reward_expectancy_bt,2022.2.4,Win32,60.0132029,Chrome,1536,864,,,,,1,1364,,,,,,,,,,,,,,,,,160,D,triangle,1,0,,,,,,,,,,,,,,,,switch,letter,lettSwt,j,0.6404,Lo,,,,,,4,,,,,,,,high,5,0,5,0,1,,,,,,,,,
298099,2022-12-05_21h30.52.575,vts_reward_expectancy_bt,2022.2.4,Win32,60.0132029,Chrome,1536,864,,,,,1,1365,,,,,,,,,,,,,,,,,125,S,hexagon,1,0,,,,,,,,,,,,,,,,switch,number,numSwt,d,0.5119,Hi,,,,,,4,,,,,,,,high,6,0,6,0,1,,,,,,,,,
298099,2022-12-05_21h30.52.575,vts_reward_expectancy_bt,2022.2.4,Win32,60.0132029,Chrome,1536,864,,,,,0,1365,,,,,,,,,,,,,,,,,132,W,star,0,0,,,,,,,,,,,,,,,,switch,letter,NA,j,0.4402,Hi,,,,,,4,,,,,,,,high,7,0,7,0,1,,,,,,,,,
298099,2022-12-05_21h30.52.575,vts_reward_expectancy_bt,2022.2.4,Win32,60.0132029,Chrome,1536,864,,,,,0,1365,,,,,,,,,,,,,,,,,181,Y,star,1,1,,,,,,,,,,,,,,,,repeat,letter,lettRpt,k,0.6538,Hi,,,,,,4,,,,,,,,high,8,0,8,0,1,,,,,,,,,
298099,2022-12-05_21h30.52.575,vts_reward_expectancy_bt,2022.2.4,Win32,60.0132029,Chrome,1536,864,,,,,0,1365,,,,,,,,,,,,,,,,,167,H,hexagon,1,0,,,,,,,,,,,,,,,,repeat,letter,lettRpt,j,0.6271,Hi,,,,,,4,,,,,,,,high,9,0,9,0,1,,,,,,,,,
298099,2022-12-05_21h30.52.575,vts_reward_expectancy_bt,2022.2.4,Win32,60.0132029,Chrome,1536,864,,,,,1,1366,,,,,,,,,,,,,,,,,139,U,circle,1,0,,,,,,,,,,,,,,,,switch,number,numSwt,d,0.5199,Lo,,,,,,4,,,,,,,,high,10,0,10,0,1,,,,,,,,,
298099,2022-12-05_21h30.52.575,vts_reward_expectancy_bt,2022.2.4,Win32,60.0132029,Chrome,1536,864,,,,,1,1367,,,,,,,,,,,,,,,,,174,B,triangle,1,0,,,,,,,,,,,,,,,,repeat,number,numRpt,f,0.5059,Lo,,,,,,4,,,,,,,,high,11,0,11,0,1,,,,,,,,,
298099,2022-12-05_21h30.52.575,vts_reward_expectancy_bt,2022.2.4,Win32,60.0132029,Chrome,1536,864,,,,,1,1368,,,,,,,,,,,,,,,,,146,F,circle,1,0,,,,,,,,,,,,,,,,repeat,number,numRpt,d,0.5605,Lo,,,,,,4,,,,,,,,high,12,0,12,0,1,,,,,,,,,
298099,2022-12-05_21h30.52.575,vts_reward_expectancy_bt,2022.2.4,Win32,60.0132029,Chrome,1536,864,,,,,0,1368,,,,,,,,,,,,,,,,,160,D,star,1,0,,,,,,,,,,,,,,,,repeat,number,numRpt,f,0.898,Hi,,,,,,4,,,,,,,,high,13,0,13,0,1,,,,,,,,,
298099,2022-12-05_21h30.52.575,vts_reward_expectancy_bt,2022.2.4,Win32,60.0132029,Chrome,1536,864,,,,,10,1378,,,,,,,,,,,,,,,,,125,S,hexagon,1,0,,,,,,,,,,,,,,,,repeat,number,numRpt,d,0.4531,Hi,,,,,,4,,,,,,,,high,14,0,14,0,1,,,,,,,,,
298099,2022-12-05_21h30.52.575,vts_reward_expectancy_bt,2022.2.4,Win32,60.0132029,Chrome,1536,864,,,,,10,1388,,,,,,,,,,,,,,,,,132,W,triangle,1,0,,,,,,,,,,,,,,,,switch,letter,lettSwt,k,0.4033,Lo,,,,,,4,,,,,,,,high,15,0,15,0,1,,,,,,,,,
298099,2022-12-05_21h30.52.575,vts_reward_expectancy_bt,2022.2.4,Win32,60.0132029,Chrome,1536,864,,,,,0,1388,,,,,,,,,,,,,,,,,146,S,hexagon,0,0,,,,,,,,,,,,,,,,repeat,letter,NA,j,0.3708,Lo,,,,,,4,,,,,,,,high,16,0,16,0,1,,,,,,,,,
298099,2022-12-05_21h30.52.575,vts_reward_expectancy_bt,2022.2.4,Win32,60.0132029,Chrome,1536,864,,,,,1,1389,,,,,,,,,,,,,,,,,160,Y,triangle,1,1,,,,,,,,,,,,,,,,repeat,letter,lettRpt,k,0.5293,Lo,,,,,,4,,,,,,,,high,17,0,17,0,1,,,,,,,,,
298099,2022-12-05_21h30.52.575,vts_reward_expectancy_bt,2022.2.4,Win32,60.0132029,Chrome,1536,864,,,,,1,1390,,,,,,,,,,,,,,,,,132,D,circle,1,0,,,,,,,,,,,,,,,,repeat,letter,lettRpt,j,0.5029,Lo,,,,,,4,,,,,,,,high,18,0,18,0,1,,,,,,,,,
298099,2022-12-05_21h30.52.575,vts_reward_expectancy_bt,2022.2.4,Win32,60.0132029,Chrome,1536,864,,,,,10,1400,,,,,,,,,,,,,,,,,167,U,star,1,0,,,,,,,,,,,,,,,,repeat,letter,lettRpt,k,0.5707,Hi,,,,,,4,,,,,,,,high,19,0,19,0,1,,,,,,,,,
298099,2022-12-05_21h30.52.575,vts_reward_expectancy_bt,2022.2.4,Win32,60.0132029,Chrome,1536,864,,,,,10,1410,,,,,,,,,,,,,,,,,181,H,triangle,1,0,,,,,,,,,,,,,,,,switch,number,numSwt,f,0.428,Lo,,,,,,4,,,,,,,,high,20,0,20,0,1,,,,,,,,,
298099,2022-12-05_21h30.52.575,vts_reward_expectancy_bt,2022.2.4,Win32,60.0132029,Chrome,1536,864,,,,,1,1411,,,,,,,,,,,,,,,,,125,F,circle,1,0,,,,,,,,,,,,,,,,repeat,number,numRpt,d,0.4983,Lo,,,,,,4,,,,,,,,high,21,0,21,0,1,,,,,,,,,
298099,2022-12-05_21h30.52.575,vts_reward_expectancy_bt,2022.2.4,Win32,60.0132029,Chrome,1536,864,,,,,10,1421,,,,,,,,,,,,,,,,,139,B,hexagon,1,0,,,,,,,,,,,,,,,,repeat,number,numRpt,d,0.524,Hi,,,,,,4,,,,,,,,high,22,0,22,0,1,,,,,,,,,
298099,2022-12-05_21h30.52.575,vts_reward_expectancy_bt,2022.2.4,Win32,60.0132029,Chrome,1536,864,,,,,0,1421,,,,,,,,,,,,,,,,,174,W,star,1,0,,,,,,,,,,,,,,,,repeat,number,numRpt,f,0.6046,Hi,,,,,,4,,,,,,,,high,23,0,23,0,1,,,,,,,,,
298099,2022-12-05_21h30.52.575,vts_reward_expectancy_bt,2022.2.4,Win32,60.0132029,Chrome,1536,864,,,,,0,1421,,,,,,,,,,,,,,,,,181,H,triangle,0,0,,,,,,,,,,,,,,,,switch,letter,NA,k,0.517,Hi,,,,,,4,,,,,,,,high,24,0,24,0,1,,,,,,,,,
298099,2022-12-05_21h30.52.575,vts_reward_expectancy_bt,2022.2.4,Win32,60.0132029,Chrome,1536,864,,,,,1,1422,,,,,,,,,,,,,,,,,132,W,circle,1,1,,,,,,,,,,,,,,,,repeat,letter,lettRpt,k,0.6238,Lo,,,,,,4,,,,,,,,high,25,0,25,0,1,,,,,,,,,
298099,2022-12-05_21h30.52.575,vts_reward_expectancy_bt,2022.2.4,Win32,60.0132029,Chrome,1536,864,,,,,1,1423,,,,,,,,,,,,,,,,,146,D,hexagon,1,0,,,,,,,,,,,,,,,,repeat,letter,lettRpt,j,0.5505,Hi,,,,,,4,,,,,,,,high,26,0,26,0,1,,,,,,,,,
298099,2022-12-05_21h30.52.575,vts_reward_expectancy_bt,2022.2.4,Win32,60.0132029,Chrome,1536,864,,,,,0,1423,,,,,,,,,,,,,,,,,160,F,star,0,0,,,,,,,,,,,,,,,,repeat,letter,NA,k,0.7715,Hi,,,,,,4,,,,,,,,high,27,0,27,0,1,,,,,,,,,
298099,2022-12-05_21h30.52.575,vts_reward_expectancy_bt,2022.2.4,Win32,60.0132029,Chrome,1536,864,,,,,1,1424,,,,,,,,,,,,,,,,,174,S,triangle,1,1,,,,,,,,,,,,,,,,repeat,letter,lettRpt,k,0.7914,Lo,,,,,,4,,,,,,,,high,28,0,28,0,1,,,,,,,,,
298099,2022-12-05_21h30.52.575,vts_reward_expectancy_bt,2022.2.4,Win32,60.0132029,Chrome,1536,864,,,,,10,1434,,,,,,,,,,,,,,,,,125,Y,hexagon,1,0,,,,,,,,,,,,,,,,switch,number,numSwt,d,0.4209,Hi,,,,,,4,,,,,,,,high,29,0,29,0,1,,,,,,,,,
298099,2022-12-05_21h30.52.575,vts_reward_expectancy_bt,2022.2.4,Win32,60.0132029,Chrome,1536,864,,,,,1,1435,,,,,,,,,,,,,,,,,139,B,circle,1,0,,,,,,,,,,,,,,,,repeat,number,numRpt,d,0.4975,Lo,,,,,,4,,,,,,,,high,30,0,30,0,1,,,,,,,,,
298099,2022-12-05_21h30.52.575,vts_reward_expectancy_bt,2022.2.4,Win32,60.0132029,Chrome,1536,864,,,,,0,1435,,,,,,,,,,,,,,,,,167,U,star,1,0,,,,,,,,,,,,,,,,repeat,number,numRpt,f,0.6949,Hi,,,,,,4,,,,,,,,high,31,0,31,0,1,,,,,,,,,
298099,2022-12-05_21h30.52.575,vts_reward_expectancy_bt,2022.2.4,Win32,60.0132029,Chrome,1536,864,,,,,10,1445,,,,,,,,,,,,,,,,,125,F,triangle,1,0,,,,,,,,,,,,,,,,repeat,number,numRpt,d,0.7013,Lo,,,,,,5,,,,,,space,0.7357,high,0,0,0,0,1,,,,,,,,,
298099,2022-12-05_21h30.52.575,vts_reward_expectancy_bt,2022.2.4,Win32,60.0132029,Chrome,1536,864,,,,,10,1455,,,,,,,,,,,,,,,,,139,U,hexagon,1,0,,,,,,,,,,,,,,,,switch,letter,lettSwt,k,0.4617,Hi,,,,,,5,,,,,,,,high,1,0,1,0,1,,,,,,,,,
298099,2022-12-05_21h30.52.575,vts_reward_expectancy_bt,2022.2.4,Win32,60.0132029,Chrome,1536,864,,,,,10,1465,,,,,,,,,,,,,,,,,132,B,star,1,0,,,,,,,,,,,,,,,,repeat,letter,lettRpt,j,0.554,Hi,,,,,,5,,,,,,,,high,2,0,2,0,1,,,,,,,,,
298099,2022-12-05_21h30.52.575,vts_reward_expectancy_bt,2022.2.4,Win32,60.0132029,Chrome,1536,864,,,,,1,1466,,,,,,,,,,,,,,,,,146,Y,circle,1,0,,,,,,,,,,,,,,,,switch,number,numSwt,d,0.6245,Lo,,,,,,5,,,,,,,,high,3,0,3,0,1,,,,,,,,,
298099,2022-12-05_21h30.52.575,vts_reward_expectancy_bt,2022.2.4,Win32,60.0132029,Chrome,1536,864,,,,,1,1467,,,,,,,,,,,,,,,,,160,H,triangle,1,0,,,,,,,,,,,,,,,,repeat,number,numRpt,f,0.4406,Lo,,,,,,5,,,,,,,,high,4,0,4,0,1,,,,,,,,,
298099,2022-12-05_21h30.52.575,vts_reward_expectancy_bt,2022.2.4,Win32,60.0132029,Chrome,1536,864,,,,,0,1467,,,,,,,,,,,,,,,,,174,S,hexagon,1,0,,,,,,,,,,,,,,,,switch,letter,lettSwt,k,0.6503,Hi,,,,,,5,,,,,,,,high,5,0,5,0,1,,,,,,,,,
298099,2022-12-05_21h30.52.575,vts_reward_expectancy_bt,2022.2.4,Win32,60.0132029,Chrome,1536,864,,,,,10,1477,,,,,,,,,,,,,,,,,181,D,star,1,0,,,,,,,,,,,,,,,,switch,number,numSwt,f,0.3603,Hi,,,,,,5,,,,,,,,high,6,0,6,0,1,,,,,,,,,
298099,2022-12-05_21h30.52.575,vts_reward_expectancy_bt,2022.2.4,Win32,60.0132029,Chrome,1536,864,,,,,10,1487,,,,,,,,,,,,,,,,,167,W,circle,1,0,,,,,,,,,,,,,,,,switch,letter,lettSwt,k,0.4002,Lo,,,,,,5,,,,,,,,high,7,0,7,0,1,,,,,,,,,
298099,2022-12-05_21h30.52.575,vts_reward_expectancy_bt,2022.2.4,Win32,60.0132029,Chrome,1536,864,,,,,10,1497,,,,,,,,,,,,,,,,,125,F,hexagon,1,0,,,,,,,,,,,,,,,,repeat,letter,lettRpt,j,0.5282,Hi,,,,,,5,,,,,,,,high,8,0,8,0,1,,,,,,,,,
298099,2022-12-05_21h30.52.575,vts_reward_expectancy_bt,2022.2.4,Win32,60.0132029,Chrome,1536,864,,,,,0,1497,,,,,,,,,,,,,,,,,139,U,star,1,0,,,,,,,,,,,,,,,,switch,number,numSwt,d,0.4654,Hi,,,,,,5,,,,,,,,high,9,0,9,0,1,,,,,,,,,
298099,2022-12-05_21h30.52.575,vts_reward_expectancy_bt,2022.2.4,Win32,60.0132029,Chrome,1536,864,,,,,10,1507,,,,,,,,,,,,,,,,,132,B,triangle,1,0,,,,,,,,,,,,,,,,repeat,number,numRpt,d,0.4673,Lo,,,,,,5,,,,,,,,high,10,0,10,0,1,,,,,,,,,
298099,2022-12-05_21h30.52.575,vts_reward_expectancy_bt,2022.2.4,Win32,60.0132029,Chrome,1536,864,,,,,1,1508,,,,,,,,,,,,,,,,,146,Y,circle,1,0,,,,,,,,,,,,,,,,repeat,number,numRpt,d,0.4701,Lo,,,,,,5,,,,,,,,high,11,0,11,0,1,,,,,,,,,
298099,2022-12-05_21h30.52.575,vts_reward_expectancy_bt,2022.2.4,Win32,60.0132029,Chrome,1536,864,,,,,0,1508,,,,,,,,,,,,,,,,,160,H,star,1,0,,,,,,,,,,,,,,,,switch,letter,lettSwt,j,0.9026,Hi,,,,,,5,,,,,,,,high,12,0,12,0,1,,,,,,,,,
298099,2022-12-05_21h30.52.575,vts_reward_expectancy_bt,2022.2.4,Win32,60.0132029,Chrome,1536,864,,,,,1,1509,,,,,,,,,,,,,,,,,174,S,circle,1,0,,,,,,,,,,,,,,,,repeat,letter,lettRpt,k,0.7468,Lo,,,,,,5,,,,,,,,high,13,0,13,0,1,,,,,,,,,
298099,2022-12-05_21h30.52.575,vts_reward_expectancy_bt,2022.2.4,Win32,60.0132029,Chrome,1536,864,,,,,1,1510,,,,,,,,,,,,,,,,,181,D,triangle,1,0,,,,,,,,,,,,,,,,repeat,letter,lettRpt,j,0.631,Lo,,,,,,5,,,,,,,,high,14,0,14,0,1,,,,,,,,,
298099,2022-12-05_21h30.52.575,vts_reward_expectancy_bt,2022.2.4,Win32,60.0132029,Chrome,1536,864,,,,,10,1520,,,,,,,,,,,,,,,,,167,W,hexagon,1,0,,,,,,,,,,,,,,,,switch,number,numSwt,f,0.4405,Hi,,,,,,5,,,,,,,,high,15,0,15,0,1,,,,,,,,,
298099,2022-12-05_21h30.52.575,vts_reward_expectancy_bt,2022.2.4,Win32,60.0132029,Chrome,1536,864,,,,,10,1530,,,,,,,,,,,,,,,,,174,F,triangle,1,0,,,,,,,,,,,,,,,,repeat,number,numRpt,f,0.5447,Lo,,,,,,5,,,,,,,,high,16,0,16,0,1,,,,,,,,,
298099,2022-12-05_21h30.52.575,vts_reward_expectancy_bt,2022.2.4,Win32,60.0132029,Chrome,1536,864,,,,,1,1531,,,,,,,,,,,,,,,,,146,U,circle,1,0,,,,,,,,,,,,,,,,repeat,number,numRpt,d,0.5923,Lo,,,,,,5,,,,,,,,high,17,0,17,0,1,,,,,,,,,
298099,2022-12-05_21h30.52.575,vts_reward_expectancy_bt,2022.2.4,Win32,60.0132029,Chrome,1536,864,,,,,10,1541,,,,,,,,,,,,,,,,,125,B,star,1,0,,,,,,,,,,,,,,,,switch,letter,lettSwt,j,0.5212,Hi,,,,,,5,,,,,,,,high,18,0,18,0,1,,,,,,,,,
298099,2022-12-05_21h30.52.575,vts_reward_expectancy_bt,2022.2.4,Win32,60.0132029,Chrome,1536,864,,,,,0,1541,,,,,,,,,,,,,,,,,139,D,hexagon,1,0,,,,,,,,,,,,,,,,switch,number,numSwt,d,0.5162,Hi,,,,,,5,,,,,,,,high,19,0,19,0,1,,,,,,,,,
298099,2022-12-05_21h30.52.575,vts_reward_expectancy_bt,2022.2.4,Win32,60.0132029,Chrome,1536,864,,,,,1,1542,,,,,,,,,,,,,,,,,160,S,circle,1,0,,,,,,,,,,,,,,,,switch,letter,lettSwt,k,0.6094,Lo,,,,,,5,,,,,,,,high,20,0,20,0,1,,,,,,,,,
298099,2022-12-05_21h30.52.575,vts_reward_expectancy_bt,2022.2.4,Win32,60.0132029,Chrome,1536,864,,,,,1,1543,,,,,,,,,,,,,,,,,132,H,triangle,1,0,,,,,,,,,,,,,,,,switch,number,numSwt,d,0.3987,Lo,,,,,,5,,,,,,,,high,21,0,21,0,1,,,,,,,,,
298099,2022-12-05_21h30.52.575,vts_reward_expectancy_bt,2022.2.4,Win32,60.0132029,Chrome,1536,864,,,,,10,1553,,,,,,,,,,,,,,,,,167,W,hexagon,1,0,,,,,,,,,,,,,,,,repeat,number,numRpt,f,0.487,Hi,,,,,,5,,,,,,,,high,22,0,22,0,1,,,,,,,,,
298099,2022-12-05_21h30.52.575,vts_reward_expectancy_bt,2022.2.4,Win32,60.0132029,Chrome,1536,864,,,,,10,1563,,,,,,,,,,,,,,,,,181,Y,star,1,0,,,,,,,,,,,,,,,,repeat,number,numRpt,f,0.42,Hi,,,,,,5,,,,,,,,high,23,0,23,0,1,,,,,,,,,
298099,2022-12-05_21h30.52.575,vts_reward_expectancy_bt,2022.2.4,Win32,60.0132029,Chrome,1536,864,,,,,10,1573,,,,,,,,,,,,,,,,,125,D,hexagon,1,0,,,,,,,,,,,,,,,,repeat,number,numRpt,d,0.3992,Hi,,,,,,5,,,,,,,,high,24,0,24,0,1,,,,,,,,,
298099,2022-12-05_21h30.52.575,vts_reward_expectancy_bt,2022.2.4,Win32,60.0132029,Chrome,1536,864,,,,,10,1583,,,,,,,,,,,,,,,,,174,Y,star,1,0,,,,,,,,,,,,,,,,repeat,number,numRpt,f,0.426,Hi,,,,,,5,,,,,,,,high,25,0,25,0,1,,,,,,,,,
298099,2022-12-05_21h30.52.575,vts_reward_expectancy_bt,2022.2.4,Win32,60.0132029,Chrome,1536,864,,,,,1,1584,,,,,,,,,,,,,,,,,132,U,circle,1,0,,,,,,,,,,,,,,,,switch,letter,lettSwt,k,0.625,Lo,,,,,,5,,,,,,,,high,26,0,26,0,1,,,,,,,,,
298099,2022-12-05_21h30.52.575,vts_reward_expectancy_bt,2022.2.4,Win32,60.0132029,Chrome,1536,864,,,,,10,1594,,,,,,,,,,,,,,,,,181,F,triangle,1,0,,,,,,,,,,,,,,,,repeat,letter,lettRpt,j,0.6963,Lo,,,,,,5,,,,,,,,high,27,0,27,0,1,,,,,,,,,
298099,2022-12-05_21h30.52.575,vts_reward_expectancy_bt,2022.2.4,Win32,60.0132029,Chrome,1536,864,,,,,1,1595,,,,,,,,,,,,,,,,,146,S,circle,1,0,,,,,,,,,,,,,,,,repeat,letter,lettRpt,k,0.451,Lo,,,,,,5,,,,,,,,high,28,0,28,0,1,,,,,,,,,
298099,2022-12-05_21h30.52.575,vts_reward_expectancy_bt,2022.2.4,Win32,60.0132029,Chrome,1536,864,,,,,10,1605,,,,,,,,,,,,,,,,,167,H,hexagon,1,0,,,,,,,,,,,,,,,,repeat,letter,lettRpt,j,0.4208,Hi,,,,,,5,,,,,,,,high,29,0,29,0,1,,,,,,,,,
298099,2022-12-05_21h30.52.575,vts_reward_expectancy_bt,2022.2.4,Win32,60.0132029,Chrome,1536,864,,,,,1,1606,,,,,,,,,,,,,,,,,139,B,triangle,1,0,,,,,,,,,,,,,,,,repeat,letter,lettRpt,j,0.5218,Lo,,,,,,5,,,,,,,,high,30,0,30,0,1,,,,,,,,,
298099,2022-12-05_21h30.52.575,vts_reward_expectancy_bt,2022.2.4,Win32,60.0132029,Chrome,1536,864,,,,,0,1606,,,,,,,,,,,,,,,,,160,W,star,1,0,,,,,,,,,,,,,,,,switch,number,numSwt,f,0.4612,Hi,,,,,,5,,,,,,,,high,31,0,31,0,1,,,,,,,,,
298099,2022-12-05_21h30.52.575,vts_reward_expectancy_bt,2022.2.4,Win32,60.0132029,Chrome,1536,864,,,,,1,1607,,,,,,,,,,,,,,,,,146,H,triangle,1,0,,,,,,,,,,,,,,,,switch,letter,lettSwt,j,0.7552,Lo,,,,,,6,,,,,,space,1.1244,high,0,0,0,0,1,,,,,,,,,
298099,2022-12-05_21h30.52.575,vts_reward_expectancy_bt,2022.2.4,Win32,60.0132029,Chrome,1536,864,,,,,0,1607,,,,,,,,,,,,,,,,,174,B,hexagon,1,0,,,,,,,,,,,,,,,,switch,number,numSwt,f,0.5295,Hi,,,,,,6,,,,,,,,high,1,0,1,0,1,,,,,,,,,
298099,2022-12-05_21h30.52.575,vts_reward_expectancy_bt,2022.2.4,Win32,60.0132029,Chrome,1536,864,,,,,0,1607,,,,,,,,,,,,,,,,,132,S,star,1,0,,,,,,,,,,,,,,,,switch,letter,lettSwt,k,0.5203,Hi,,,,,,6,,,,,,,,high,2,0,2,0,1,,,,,,,,,
298099,2022-12-05_21h30.52.575,vts_reward_expectancy_bt,2022.2.4,Win32,60.0132029,Chrome,1536,864,,,,,1,1608,,,,,,,,,,,,,,,,,125,F,circle,1,0,,,,,,,,,,,,,,,,repeat,letter,lettRpt,j,0.9786,Lo,,,,,,6,,,,,,,,high,3,0,3,0,1,,,,,,,,,
298099,2022-12-05_21h30.52.575,vts_reward_expectancy_bt,2022.2.4,Win32,60.0132029,Chrome,1536,864,,,,,1,1609,,,,,,,,,,,,,,,,,167,U,triangle,1,0,,,,,,,,,,,,,,,,switch,number,numSwt,f,0.5005,Lo,,,,,,6,,,,,,,,high,4,0,4,0,1,,,,,,,,,
298099,2022-12-05_21h30.52.575,vts_reward_expectancy_bt,2022.2.4,Win32,60.0132029,Chrome,1536,864,,,,,0,1609,,,,,,,,,,,,,,,,,160,D,hexagon,1,0,,,,,,,,,,,,,,,,repeat,number,numRpt,f,0.5166,Hi,,,,,,6,,,,,,,,high,5,0,5,0,1,,,,,,,,,
298099,2022-12-05_21h30.52.575,vts_reward_expectancy_bt,2022.2.4,Win32,60.0132029,Chrome,1536,864,,,,,0,1609,,,,,,,,,,,,,,,,,181,Y,star,1,0,,,,,,,,,,,,,,,,repeat,number,numRpt,f,0.5303,Hi,,,,,,6,,,,,,,,high,6,0,6,0,1,,,,,,,,,
298099,2022-12-05_21h30.52.575,vts_reward_expectancy_bt,2022.2.4,Win32,60.0132029,Chrome,1536,864,,,,,1,1610,,,,,,,,,,,,,,,,,139,W,circle,1,0,,,,,,,,,,,,,,,,repeat,number,numRpt,d,0.553,Lo,,,,,,6,,,,,,,,high,7,0,7,0,1,,,,,,,,,
298099,2022-12-05_21h30.52.575,vts_reward_expectancy_bt,2022.2.4,Win32,60.0132029,Chrome,1536,864,,,,,1,1611,,,,,,,,,,,,,,,,,146,H,circle,1,0,,,,,,,,,,,,,,,,switch,letter,lettSwt,j,0.4865,Lo,,,,,,6,,,,,,,,high,8,0,8,0,1,,,,,,,,,
298099,2022-12-05_21h30.52.575,vts_reward_expectancy_bt,2022.2.4,Win32,60.0132029,Chrome,1536,864,,,,,1,1612,,,,,,,,,,,,,,,,,174,B,star,1,0,,,,,,,,,,,,,,,,switch,number,numSwt,f,0.3952,Hi,,,,,,6,,,,,,,,high,9,0,9,0,1,,,,,,,,,
298099,2022-12-05_21h30.52.575,vts_reward_expectancy_bt,2022.2.4,Win32,60.0132029,Chrome,1536,864,,,,,0,1612,,,,,,,,,,,,,,,,,132,S,hexagon,0,0,,,,,,,,,,,,,,,,switch,letter,NA,j,0.3646,Hi,,,,,,6,,,,,,,,high,10,0,10,0,1,,,,,,,,,
298099,2022-12-05_21h30.52.575,vts_reward_expectancy_bt,2022.2.4,Win32,60.0132029,Chrome,1536,864,,,,,10,1622,,,,,,,,,,,,,,,,,125,F,triangle,1,1,,,,,,,,,,,,,,,,repeat,letter,lettRpt,j,0.4334,Lo,,,,,,6,,,,,,,,high,11,0,11,0,1,,,,,,,,,
298099,2022-12-05_21h30.52.575,vts_reward_expectancy_bt,2022.2.4,Win32,60.0132029,Chrome,1536,864,,,,,1,1623,,,,,,,,,,,,,,,,,167,U,triangle,1,0,,,,,,,,,,,,,,,,repeat,letter,lettRpt,k,0.5546,Lo,,,,,,6,,,,,,,,high,12,0,12,0,1,,,,,,,,,
298099,2022-12-05_21h30.52.575,vts_reward_expectancy_bt,2022.2.4,Win32,60.0132029,Chrome,1536,864,,,,,1,1624,,,,,,,,,,,,,,,,,160,D,circle,1,0,,,,,,,,,,,,,,,,switch,number,numSwt,f,0.3954,Lo,,,,,,6,,,,,,,,high,13,0,13,0,1,,,,,,,,,
298099,2022-12-05_21h30.52.575,vts_reward_expectancy_bt,2022.2.4,Win32,60.0132029,Chrome,1536,864,,,,,1,1625,,,,,,,,,,,,,,,,,181,Y,star,1,0,,,,,,,,,,,,,,,,repeat,number,numRpt,f,0.407,Hi,,,,,,6,,,,,,,,high,14,0,14,0,1,,,,,,,,,
298099,2022-12-05_21h30.52.575,vts_reward_expectancy_bt,2022.2.4,Win32,60.0132029,Chrome,1536,864,,,,,10,1635,,,,,,,,,,,,,,,,,139,W,hexagon,1,0,,,,,,,,,,,,,,,,repeat,number,numRpt,d,0.3512,Hi,,,,,,6,,,,,,,,high,15,0,15,0,1,,,,,,,,,
298099,2022-12-05_21h30.52.575,vts_reward_expectancy_bt,2022.2.4,Win32,60.0132029,Chrome,1536,864,,,,,1,1636,,,,,,,,,,,,,,,,,132,D,triangle,1,0,,,,,,,,,,,,,,,,switch,letter,lettSwt,j,0.4334,Lo,,,,,,6,,,,,,,,high,16,0,16,0,1,,,,,,,,,
