participant,date,expName,psychopyVersion,OS,frameRate,browser,xResolution,yResolution,key_resp.keys,key_resp.rt,training_resp.keys,training_resp.rt,points_trial,points_cumul,trainBlock,training.thisRepN,training.thisTrialN,training.thisN,training.thisIndex,training.ran,LTriangleOpac,LCircleOpac,LHexagonOpac,LStarOpac,RTriangleOpac,RCircleOpac,RHexagonOpac,RStarOpac,LShape_ID,RShape_ID,curr_topStim,curr_bottStim,curr_shape,acc,E1,target_resp_prac1.keys,target_resp_prac1.rt,pracBlock,task1_prac_trials.thisRepN,task1_prac_trials.thisTrialN,task1_prac_trials.thisN,task1_prac_trials.thisIndex,task1_prac_trials.ran,target_resp_prac2.keys,target_resp_prac2.rt,task2_praac_trials.thisRepN,task2_praac_trials.thisTrialN,task2_praac_trials.thisN,task2_praac_trials.thisIndex,task2_praac_trials.ran,alt,task,condition,target_resp.keys,target_resp.rt,rewCond,vts_practice_trials.thisRepN,vts_practice_trials.thisTrialN,vts_practice_trials.thisN,vts_practice_trials.thisIndex,vts_practice_trials.ran,blockNum,trials_norew.thisRepN,trials_norew.thisTrialN,trials_norew.thisN,trials_norew.thisIndex,trials_norew.ran,key_resp_2.keys,key_resp_2.rt,rewExpectancy,trials_rew.thisRepN,trials_rew.thisTrialN,trials_rew.thisN,trials_rew.thisIndex,trials_rew.ran,Q1,Q2,Q2_text,Q3,Q4,Q5_text,Q5,xRes,yRes
298072,2022-11-14_15h41.27.927,vts_reward_expectancy_bt,2022.2.4,Win32,165.0709805,Chrome,1920,1080,,,,,,,,,,,,,,,,,,,,,,,,,,,,,,,,,,,,,,,,,,,,,,,,,,,,,,,,,,,,,,,,,,,,,,,,,,,,
298072,2022-11-14_15h41.27.927,vts_reward_expectancy_bt,2022.2.4,Win32,165.0709805,Chrome,1920,1080,space,54.2373,,,,,,,,,,,,,,,,,,,,,,,,,,,,,,,,,,,,,,,,,,,,,,,,,,,,,,,,,,,,,,,,,,,,,,,,,,
298072,2022-11-14_15h41.27.927,vts_reward_expectancy_bt,2022.2.4,Win32,165.0709805,Chrome,1920,1080,,,,,,,,,,,,,,,,,,,,,,,,,,,,,,,,,,,,,,,,,,,,,,,,,,,,,,,,,,,,,,,,,,,,,,,,,,,,
298072,2022-11-14_15h41.27.927,vts_reward_expectancy_bt,2022.2.4,Win32,165.0709805,Chrome,1920,1080,,,a,2.33,1,1,0,0,0,0,7,1,0,0,1,0,0,1,0,0,hexagon,circle,,,,,,,,,,,,,,,,,,,,,,,,,,,,,,,,,,,,,,,,,,,,,,,,,,,,,,
298072,2022-11-14_15h41.27.927,vts_reward_expectancy_bt,2022.2.4,Win32,165.0709805,Chrome,1920,1080,,,l,2.4254,1,2,0,0,1,1,2,1,1,0,0,0,0,0,0,1,triangle,star,,,,,,,,,,,,,,,,,,,,,,,,,,,,,,,,,,,,,,,,,,,,,,,,,,,,,,
298072,2022-11-14_15h41.27.927,vts_reward_expectancy_bt,2022.2.4,Win32,165.0709805,Chrome,1920,1080,,,l,2.9472,1,3,0,0,2,2,10,1,0,0,0,1,0,1,0,0,star ,circle,,,,,,,,,,,,,,,,,,,,,,,,,,,,,,,,,,,,,,,,,,,,,,,,,,,,,,
298072,2022-11-14_15h41.27.927,vts_reward_expectancy_bt,2022.2.4,Win32,165.0709805,Chrome,1920,1080,,,l,1.8433,10,13,0,0,3,3,3,1,0,1,0,0,1,0,0,0,circle,triangle,,,,,,,,,,,,,,,,,,,,,,,,,,,,,,,,,,,,,,,,,,,,,,,,,,,,,,
298072,2022-11-14_15h41.27.927,vts_reward_expectancy_bt,2022.2.4,Win32,165.0709805,Chrome,1920,1080,,,a,2.0117,1,14,0,0,4,4,0,1,1,0,0,0,0,1,0,0,triangle,circle,,,,,,,,,,,,,,,,,,,,,,,,,,,,,,,,,,,,,,,,,,,,,,,,,,,,,,
298072,2022-11-14_15h41.27.927,vts_reward_expectancy_bt,2022.2.4,Win32,165.0709805,Chrome,1920,1080,,,a,3.7196,10,24,0,0,5,5,1,1,1,0,0,0,0,0,1,0,triangle,hexagon,,,,,,,,,,,,,,,,,,,,,,,,,,,,,,,,,,,,,,,,,,,,,,,,,,,,,,
298072,2022-11-14_15h41.27.927,vts_reward_expectancy_bt,2022.2.4,Win32,165.0709805,Chrome,1920,1080,,,a,5.5943,1,25,0,0,6,6,4,1,0,1,0,0,0,0,1,0,circle,hexagon,,,,,,,,,,,,,,,,,,,,,,,,,,,,,,,,,,,,,,,,,,,,,,,,,,,,,,
298072,2022-11-14_15h41.27.927,vts_reward_expectancy_bt,2022.2.4,Win32,165.0709805,Chrome,1920,1080,,,a,3.7831,10,35,0,0,7,7,5,1,0,1,0,0,0,0,0,1,circle,star,,,,,,,,,,,,,,,,,,,,,,,,,,,,,,,,,,,,,,,,,,,,,,,,,,,,,,
298072,2022-11-14_15h41.27.927,vts_reward_expectancy_bt,2022.2.4,Win32,165.0709805,Chrome,1920,1080,,,a,1.8146,10,45,0,0,8,8,8,1,0,0,1,0,0,0,0,1,hexagon,star,,,,,,,,,,,,,,,,,,,,,,,,,,,,,,,,,,,,,,,,,,,,,,,,,,,,,,
298072,2022-11-14_15h41.27.927,vts_reward_expectancy_bt,2022.2.4,Win32,165.0709805,Chrome,1920,1080,,,a,1.4862,10,55,0,0,9,9,6,1,0,0,1,0,1,0,0,0,hexagon,triangle,,,,,,,,,,,,,,,,,,,,,,,,,,,,,,,,,,,,,,,,,,,,,,,,,,,,,,
298072,2022-11-14_15h41.27.927,vts_reward_expectancy_bt,2022.2.4,Win32,165.0709805,Chrome,1920,1080,,,l,0.9546,1,56,0,0,10,10,11,1,0,0,0,1,0,0,1,0,star,hexagon,,,,,,,,,,,,,,,,,,,,,,,,,,,,,,,,,,,,,,,,,,,,,,,,,,,,,,
298072,2022-11-14_15h41.27.927,vts_reward_expectancy_bt,2022.2.4,Win32,165.0709805,Chrome,1920,1080,,,a,1.8682,10,66,0,0,11,11,9,1,0,0,0,1,1,0,0,0,star,triangle,,,,,,,,,,,,,,,,,,,,,,,,,,,,,,,,,,,,,,,,,,,,,,,,,,,,,,
298072,2022-11-14_15h41.27.927,vts_reward_expectancy_bt,2022.2.4,Win32,165.0709805,Chrome,1920,1080,,,a,1.2545,1,67,0,1,0,12,7,1,0,0,1,0,0,1,0,0,hexagon,circle,,,,,,,,,,,,,,,,,,,,,,,,,,,,,,,,,,,,,,,,,,,,,,,,,,,,,,
298072,2022-11-14_15h41.27.927,vts_reward_expectancy_bt,2022.2.4,Win32,165.0709805,Chrome,1920,1080,,,a,1.1227,10,77,0,1,1,13,9,1,0,0,0,1,1,0,0,0,star,triangle,,,,,,,,,,,,,,,,,,,,,,,,,,,,,,,,,,,,,,,,,,,,,,,,,,,,,,
298072,2022-11-14_15h41.27.927,vts_reward_expectancy_bt,2022.2.4,Win32,165.0709805,Chrome,1920,1080,,,a,1.6813,10,87,0,1,2,14,10,1,0,0,0,1,0,1,0,0,star ,circle,,,,,,,,,,,,,,,,,,,,,,,,,,,,,,,,,,,,,,,,,,,,,,,,,,,,,,
298072,2022-11-14_15h41.27.927,vts_reward_expectancy_bt,2022.2.4,Win32,165.0709805,Chrome,1920,1080,,,l,0.574,1,88,0,1,3,15,8,1,0,0,1,0,0,0,0,1,hexagon,star,,,,,,,,,,,,,,,,,,,,,,,,,,,,,,,,,,,,,,,,,,,,,,,,,,,,,,
298072,2022-11-14_15h41.27.927,vts_reward_expectancy_bt,2022.2.4,Win32,165.0709805,Chrome,1920,1080,,,a,2.2601,10,98,0,1,4,16,3,1,0,1,0,0,1,0,0,0,circle,triangle,,,,,,,,,,,,,,,,,,,,,,,,,,,,,,,,,,,,,,,,,,,,,,,,,,,,,,
298072,2022-11-14_15h41.27.927,vts_reward_expectancy_bt,2022.2.4,Win32,165.0709805,Chrome,1920,1080,,,l,1.3616,10,108,0,1,5,17,5,1,0,1,0,0,0,0,0,1,circle,star,,,,,,,,,,,,,,,,,,,,,,,,,,,,,,,,,,,,,,,,,,,,,,,,,,,,,,
298072,2022-11-14_15h41.27.927,vts_reward_expectancy_bt,2022.2.4,Win32,165.0709805,Chrome,1920,1080,,,a,2.0016,10,118,0,1,6,18,6,1,0,0,1,0,1,0,0,0,hexagon,triangle,,,,,,,,,,,,,,,,,,,,,,,,,,,,,,,,,,,,,,,,,,,,,,,,,,,,,,
298072,2022-11-14_15h41.27.927,vts_reward_expectancy_bt,2022.2.4,Win32,165.0709805,Chrome,1920,1080,,,l,2.8877,1,119,0,1,7,19,2,1,1,0,0,0,0,0,0,1,triangle,star,,,,,,,,,,,,,,,,,,,,,,,,,,,,,,,,,,,,,,,,,,,,,,,,,,,,,,
298072,2022-11-14_15h41.27.927,vts_reward_expectancy_bt,2022.2.4,Win32,165.0709805,Chrome,1920,1080,,,l,1.2365,1,120,0,1,8,20,0,1,1,0,0,0,0,1,0,0,triangle,circle,,,,,,,,,,,,,,,,,,,,,,,,,,,,,,,,,,,,,,,,,,,,,,,,,,,,,,
298072,2022-11-14_15h41.27.927,vts_reward_expectancy_bt,2022.2.4,Win32,165.0709805,Chrome,1920,1080,,,a,1.48,1,121,0,1,9,21,11,1,0,0,0,1,0,0,1,0,star,hexagon,,,,,,,,,,,,,,,,,,,,,,,,,,,,,,,,,,,,,,,,,,,,,,,,,,,,,,
298072,2022-11-14_15h41.27.927,vts_reward_expectancy_bt,2022.2.4,Win32,165.0709805,Chrome,1920,1080,,,a,2.236,10,131,0,1,10,22,4,1,0,1,0,0,0,0,1,0,circle,hexagon,,,,,,,,,,,,,,,,,,,,,,,,,,,,,,,,,,,,,,,,,,,,,,,,,,,,,,
298072,2022-11-14_15h41.27.927,vts_reward_expectancy_bt,2022.2.4,Win32,165.0709805,Chrome,1920,1080,,,a,2.2671,1,132,0,1,11,23,1,1,1,0,0,0,0,0,1,0,triangle,hexagon,,,,,,,,,,,,,,,,,,,,,,,,,,,,,,,,,,,,,,,,,,,,,,,,,,,,,,
298072,2022-11-14_15h41.27.927,vts_reward_expectancy_bt,2022.2.4,Win32,165.0709805,Chrome,1920,1080,,,l,1.5214,1,133,0,2,0,24,5,1,0,1,0,0,0,0,0,1,circle,star,,,,,,,,,,,,,,,,,,,,,,,,,,,,,,,,,,,,,,,,,,,,,,,,,,,,,,
298072,2022-11-14_15h41.27.927,vts_reward_expectancy_bt,2022.2.4,Win32,165.0709805,Chrome,1920,1080,,,l,2.5641,10,143,0,2,1,25,7,1,0,0,1,0,0,1,0,0,hexagon,circle,,,,,,,,,,,,,,,,,,,,,,,,,,,,,,,,,,,,,,,,,,,,,,,,,,,,,,
298072,2022-11-14_15h41.27.927,vts_reward_expectancy_bt,2022.2.4,Win32,165.0709805,Chrome,1920,1080,,,l,1.3239,10,153,0,2,2,26,8,1,0,0,1,0,0,0,0,1,hexagon,star,,,,,,,,,,,,,,,,,,,,,,,,,,,,,,,,,,,,,,,,,,,,,,,,,,,,,,
298072,2022-11-14_15h41.27.927,vts_reward_expectancy_bt,2022.2.4,Win32,165.0709805,Chrome,1920,1080,,,a,2.0489,10,163,0,2,3,27,3,1,0,1,0,0,1,0,0,0,circle,triangle,,,,,,,,,,,,,,,,,,,,,,,,,,,,,,,,,,,,,,,,,,,,,,,,,,,,,,
298072,2022-11-14_15h41.27.927,vts_reward_expectancy_bt,2022.2.4,Win32,165.0709805,Chrome,1920,1080,,,a,3.1164,10,173,0,2,4,28,6,1,0,0,1,0,1,0,0,0,hexagon,triangle,,,,,,,,,,,,,,,,,,,,,,,,,,,,,,,,,,,,,,,,,,,,,,,,,,,,,,
298072,2022-11-14_15h41.27.927,vts_reward_expectancy_bt,2022.2.4,Win32,165.0709805,Chrome,1920,1080,,,a,1.585,10,183,0,2,5,29,2,1,1,0,0,0,0,0,0,1,triangle,star,,,,,,,,,,,,,,,,,,,,,,,,,,,,,,,,,,,,,,,,,,,,,,,,,,,,,,
298072,2022-11-14_15h41.27.927,vts_reward_expectancy_bt,2022.2.4,Win32,165.0709805,Chrome,1920,1080,,,a,2.8247,1,184,0,2,6,30,4,1,0,1,0,0,0,0,1,0,circle,hexagon,,,,,,,,,,,,,,,,,,,,,,,,,,,,,,,,,,,,,,,,,,,,,,,,,,,,,,
298072,2022-11-14_15h41.27.927,vts_reward_expectancy_bt,2022.2.4,Win32,165.0709805,Chrome,1920,1080,,,a,2.5132,1,185,0,2,7,31,1,1,1,0,0,0,0,0,1,0,triangle,hexagon,,,,,,,,,,,,,,,,,,,,,,,,,,,,,,,,,,,,,,,,,,,,,,,,,,,,,,
298072,2022-11-14_15h41.27.927,vts_reward_expectancy_bt,2022.2.4,Win32,165.0709805,Chrome,1920,1080,,,a,1.1782,1,186,0,2,8,32,11,1,0,0,0,1,0,0,1,0,star,hexagon,,,,,,,,,,,,,,,,,,,,,,,,,,,,,,,,,,,,,,,,,,,,,,,,,,,,,,
298072,2022-11-14_15h41.27.927,vts_reward_expectancy_bt,2022.2.4,Win32,165.0709805,Chrome,1920,1080,,,a,3.1997,1,187,0,2,9,33,0,1,1,0,0,0,0,1,0,0,triangle,circle,,,,,,,,,,,,,,,,,,,,,,,,,,,,,,,,,,,,,,,,,,,,,,,,,,,,,,
298072,2022-11-14_15h41.27.927,vts_reward_expectancy_bt,2022.2.4,Win32,165.0709805,Chrome,1920,1080,,,l,1.328,1,188,0,2,10,34,9,1,0,0,0,1,1,0,0,0,star,triangle,,,,,,,,,,,,,,,,,,,,,,,,,,,,,,,,,,,,,,,,,,,,,,,,,,,,,,
298072,2022-11-14_15h41.27.927,vts_reward_expectancy_bt,2022.2.4,Win32,165.0709805,Chrome,1920,1080,,,l,1.0623,10,198,0,2,11,35,10,1,0,0,0,1,0,1,0,0,star ,circle,,,,,,,,,,,,,,,,,,,,,,,,,,,,,,,,,,,,,,,,,,,,,,,,,,,,,,
298072,2022-11-14_15h41.27.927,vts_reward_expectancy_bt,2022.2.4,Win32,165.0709805,Chrome,1920,1080,,,a,3.1327,1,199,1,0,0,0,9,1,0,0,0,1,1,0,0,0,star,triangle,,,,,,,,,,,,,,,,,,,,,,,,,,,,,,,,,,,,,,,,,,,,,,,,,,,,,,
298072,2022-11-14_15h41.27.927,vts_reward_expectancy_bt,2022.2.4,Win32,165.0709805,Chrome,1920,1080,,,l,2.6244,1,200,1,0,1,1,8,1,0,0,1,0,0,0,0,1,hexagon,star,,,,,,,,,,,,,,,,,,,,,,,,,,,,,,,,,,,,,,,,,,,,,,,,,,,,,,
298072,2022-11-14_15h41.27.927,vts_reward_expectancy_bt,2022.2.4,Win32,165.0709805,Chrome,1920,1080,,,l,2.6239,10,210,1,0,2,2,0,1,1,0,0,0,0,1,0,0,triangle,circle,,,,,,,,,,,,,,,,,,,,,,,,,,,,,,,,,,,,,,,,,,,,,,,,,,,,,,
298072,2022-11-14_15h41.27.927,vts_reward_expectancy_bt,2022.2.4,Win32,165.0709805,Chrome,1920,1080,,,l,4.3761,10,220,1,0,3,3,3,1,0,1,0,0,1,0,0,0,circle,triangle,,,,,,,,,,,,,,,,,,,,,,,,,,,,,,,,,,,,,,,,,,,,,,,,,,,,,,
298072,2022-11-14_15h41.27.927,vts_reward_expectancy_bt,2022.2.4,Win32,165.0709805,Chrome,1920,1080,,,l,4.0604,1,221,1,0,4,4,7,1,0,0,1,0,0,1,0,0,hexagon,circle,,,,,,,,,,,,,,,,,,,,,,,,,,,,,,,,,,,,,,,,,,,,,,,,,,,,,,
298072,2022-11-14_15h41.27.927,vts_reward_expectancy_bt,2022.2.4,Win32,165.0709805,Chrome,1920,1080,,,l,4.7574,10,231,1,0,5,5,1,1,1,0,0,0,0,0,1,0,triangle,hexagon,,,,,,,,,,,,,,,,,,,,,,,,,,,,,,,,,,,,,,,,,,,,,,,,,,,,,,
298072,2022-11-14_15h41.27.927,vts_reward_expectancy_bt,2022.2.4,Win32,165.0709805,Chrome,1920,1080,,,l,3.9897,1,232,1,0,6,6,5,1,0,1,0,0,0,0,0,1,circle,star,,,,,,,,,,,,,,,,,,,,,,,,,,,,,,,,,,,,,,,,,,,,,,,,,,,,,,
298072,2022-11-14_15h41.27.927,vts_reward_expectancy_bt,2022.2.4,Win32,165.0709805,Chrome,1920,1080,,,a,3.83,10,242,1,0,7,7,2,1,1,0,0,0,0,0,0,1,triangle,star,,,,,,,,,,,,,,,,,,,,,,,,,,,,,,,,,,,,,,,,,,,,,,,,,,,,,,
298072,2022-11-14_15h41.27.927,vts_reward_expectancy_bt,2022.2.4,Win32,165.0709805,Chrome,1920,1080,,,l,1.9696,1,243,1,0,8,8,11,1,0,0,0,1,0,0,1,0,star,hexagon,,,,,,,,,,,,,,,,,,,,,,,,,,,,,,,,,,,,,,,,,,,,,,,,,,,,,,
298072,2022-11-14_15h41.27.927,vts_reward_expectancy_bt,2022.2.4,Win32,165.0709805,Chrome,1920,1080,,,a,4.9394,1,244,1,0,9,9,6,1,0,0,1,0,1,0,0,0,hexagon,triangle,,,,,,,,,,,,,,,,,,,,,,,,,,,,,,,,,,,,,,,,,,,,,,,,,,,,,,
298072,2022-11-14_15h41.27.927,vts_reward_expectancy_bt,2022.2.4,Win32,165.0709805,Chrome,1920,1080,,,l,4.3088,10,254,1,0,10,10,10,1,0,0,0,1,0,1,0,0,star ,circle,,,,,,,,,,,,,,,,,,,,,,,,,,,,,,,,,,,,,,,,,,,,,,,,,,,,,,
298072,2022-11-14_15h41.27.927,vts_reward_expectancy_bt,2022.2.4,Win32,165.0709805,Chrome,1920,1080,,,l,6.0875,10,264,1,0,11,11,4,1,0,1,0,0,0,0,1,0,circle,hexagon,,,,,,,,,,,,,,,,,,,,,,,,,,,,,,,,,,,,,,,,,,,,,,,,,,,,,,
298072,2022-11-14_15h41.27.927,vts_reward_expectancy_bt,2022.2.4,Win32,165.0709805,Chrome,1920,1080,,,a,4.5218,10,274,1,1,0,12,3,1,0,1,0,0,1,0,0,0,circle,triangle,,,,,,,,,,,,,,,,,,,,,,,,,,,,,,,,,,,,,,,,,,,,,,,,,,,,,,
298072,2022-11-14_15h41.27.927,vts_reward_expectancy_bt,2022.2.4,Win32,165.0709805,Chrome,1920,1080,,,a,5.294,1,275,1,1,1,13,7,1,0,0,1,0,0,1,0,0,hexagon,circle,,,,,,,,,,,,,,,,,,,,,,,,,,,,,,,,,,,,,,,,,,,,,,,,,,,,,,
298072,2022-11-14_15h41.27.927,vts_reward_expectancy_bt,2022.2.4,Win32,165.0709805,Chrome,1920,1080,,,l,2.588,10,285,1,1,2,14,8,1,0,0,1,0,0,0,0,1,hexagon,star,,,,,,,,,,,,,,,,,,,,,,,,,,,,,,,,,,,,,,,,,,,,,,,,,,,,,,
298072,2022-11-14_15h41.27.927,vts_reward_expectancy_bt,2022.2.4,Win32,165.0709805,Chrome,1920,1080,,,l,2.7819,10,295,1,1,3,15,10,1,0,0,0,1,0,1,0,0,star ,circle,,,,,,,,,,,,,,,,,,,,,,,,,,,,,,,,,,,,,,,,,,,,,,,,,,,,,,
298072,2022-11-14_15h41.27.927,vts_reward_expectancy_bt,2022.2.4,Win32,165.0709805,Chrome,1920,1080,,,l,5.4846,10,305,1,1,4,16,4,1,0,1,0,0,0,0,1,0,circle,hexagon,,,,,,,,,,,,,,,,,,,,,,,,,,,,,,,,,,,,,,,,,,,,,,,,,,,,,,
298072,2022-11-14_15h41.27.927,vts_reward_expectancy_bt,2022.2.4,Win32,165.0709805,Chrome,1920,1080,,,l,8.1481,1,306,1,1,5,17,0,1,1,0,0,0,0,1,0,0,triangle,circle,,,,,,,,,,,,,,,,,,,,,,,,,,,,,,,,,,,,,,,,,,,,,,,,,,,,,,
298072,2022-11-14_15h41.27.927,vts_reward_expectancy_bt,2022.2.4,Win32,165.0709805,Chrome,1920,1080,,,a,2.7836,10,316,1,1,6,18,6,1,0,0,1,0,1,0,0,0,hexagon,triangle,,,,,,,,,,,,,,,,,,,,,,,,,,,,,,,,,,,,,,,,,,,,,,,,,,,,,,
298072,2022-11-14_15h41.27.927,vts_reward_expectancy_bt,2022.2.4,Win32,165.0709805,Chrome,1920,1080,,,l,0.7027,1,317,1,1,7,19,2,1,1,0,0,0,0,0,0,1,triangle,star,,,,,,,,,,,,,,,,,,,,,,,,,,,,,,,,,,,,,,,,,,,,,,,,,,,,,,
298072,2022-11-14_15h41.27.927,vts_reward_expectancy_bt,2022.2.4,Win32,165.0709805,Chrome,1920,1080,,,a,0.5694,1,318,1,1,8,20,9,1,0,0,0,1,1,0,0,0,star,triangle,,,,,,,,,,,,,,,,,,,,,,,,,,,,,,,,,,,,,,,,,,,,,,,,,,,,,,
298072,2022-11-14_15h41.27.927,vts_reward_expectancy_bt,2022.2.4,Win32,165.0709805,Chrome,1920,1080,,,a,0.7391,10,328,1,1,9,21,1,1,1,0,0,0,0,0,1,0,triangle,hexagon,,,,,,,,,,,,,,,,,,,,,,,,,,,,,,,,,,,,,,,,,,,,,,,,,,,,,,
298072,2022-11-14_15h41.27.927,vts_reward_expectancy_bt,2022.2.4,Win32,165.0709805,Chrome,1920,1080,,,a,0.5101,1,329,1,1,10,22,11,1,0,0,0,1,0,0,1,0,star,hexagon,,,,,,,,,,,,,,,,,,,,,,,,,,,,,,,,,,,,,,,,,,,,,,,,,,,,,,
298072,2022-11-14_15h41.27.927,vts_reward_expectancy_bt,2022.2.4,Win32,165.0709805,Chrome,1920,1080,,,a,3.9882,10,339,1,1,11,23,5,1,0,1,0,0,0,0,0,1,circle,star,,,,,,,,,,,,,,,,,,,,,,,,,,,,,,,,,,,,,,,,,,,,,,,,,,,,,,
298072,2022-11-14_15h41.27.927,vts_reward_expectancy_bt,2022.2.4,Win32,165.0709805,Chrome,1920,1080,,,a,2.3701,10,349,1,2,0,24,6,1,0,0,1,0,1,0,0,0,hexagon,triangle,,,,,,,,,,,,,,,,,,,,,,,,,,,,,,,,,,,,,,,,,,,,,,,,,,,,,,
298072,2022-11-14_15h41.27.927,vts_reward_expectancy_bt,2022.2.4,Win32,165.0709805,Chrome,1920,1080,,,a,3.8921,1,350,1,2,1,25,11,1,0,0,0,1,0,0,1,0,star,hexagon,,,,,,,,,,,,,,,,,,,,,,,,,,,,,,,,,,,,,,,,,,,,,,,,,,,,,,
298072,2022-11-14_15h41.27.927,vts_reward_expectancy_bt,2022.2.4,Win32,165.0709805,Chrome,1920,1080,,,l,4.6444,10,360,1,2,2,26,10,1,0,0,0,1,0,1,0,0,star ,circle,,,,,,,,,,,,,,,,,,,,,,,,,,,,,,,,,,,,,,,,,,,,,,,,,,,,,,
298072,2022-11-14_15h41.27.927,vts_reward_expectancy_bt,2022.2.4,Win32,165.0709805,Chrome,1920,1080,,,l,4.2664,1,361,1,2,3,27,1,1,1,0,0,0,0,0,1,0,triangle,hexagon,,,,,,,,,,,,,,,,,,,,,,,,,,,,,,,,,,,,,,,,,,,,,,,,,,,,,,
298072,2022-11-14_15h41.27.927,vts_reward_expectancy_bt,2022.2.4,Win32,165.0709805,Chrome,1920,1080,,,l,6.8024,1,362,1,2,4,28,0,1,1,0,0,0,0,1,0,0,triangle,circle,,,,,,,,,,,,,,,,,,,,,,,,,,,,,,,,,,,,,,,,,,,,,,,,,,,,,,
298072,2022-11-14_15h41.27.927,vts_reward_expectancy_bt,2022.2.4,Win32,165.0709805,Chrome,1920,1080,,,a,4.9461,1,363,1,2,5,29,3,1,0,1,0,0,1,0,0,0,circle,triangle,,,,,,,,,,,,,,,,,,,,,,,,,,,,,,,,,,,,,,,,,,,,,,,,,,,,,,
298072,2022-11-14_15h41.27.927,vts_reward_expectancy_bt,2022.2.4,Win32,165.0709805,Chrome,1920,1080,,,a,1.8777,1,364,1,2,6,30,9,1,0,0,0,1,1,0,0,0,star,triangle,,,,,,,,,,,,,,,,,,,,,,,,,,,,,,,,,,,,,,,,,,,,,,,,,,,,,,
298072,2022-11-14_15h41.27.927,vts_reward_expectancy_bt,2022.2.4,Win32,165.0709805,Chrome,1920,1080,,,a,1.042,1,365,1,2,7,31,2,1,1,0,0,0,0,0,0,1,triangle,star,,,,,,,,,,,,,,,,,,,,,,,,,,,,,,,,,,,,,,,,,,,,,,,,,,,,,,
298072,2022-11-14_15h41.27.927,vts_reward_expectancy_bt,2022.2.4,Win32,165.0709805,Chrome,1920,1080,,,l,0.7817,1,366,1,2,8,32,7,1,0,0,1,0,0,1,0,0,hexagon,circle,,,,,,,,,,,,,,,,,,,,,,,,,,,,,,,,,,,,,,,,,,,,,,,,,,,,,,
298072,2022-11-14_15h41.27.927,vts_reward_expectancy_bt,2022.2.4,Win32,165.0709805,Chrome,1920,1080,,,a,0.2058,10,376,1,2,9,33,4,1,0,1,0,0,0,0,1,0,circle,hexagon,,,,,,,,,,,,,,,,,,,,,,,,,,,,,,,,,,,,,,,,,,,,,,,,,,,,,,
298072,2022-11-14_15h41.27.927,vts_reward_expectancy_bt,2022.2.4,Win32,165.0709805,Chrome,1920,1080,,,l,0.2118,1,377,1,2,10,34,5,1,0,1,0,0,0,0,0,1,circle,star,,,,,,,,,,,,,,,,,,,,,,,,,,,,,,,,,,,,,,,,,,,,,,,,,,,,,,
298072,2022-11-14_15h41.27.927,vts_reward_expectancy_bt,2022.2.4,Win32,165.0709805,Chrome,1920,1080,,,l,0.1934,1,378,1,2,11,35,8,1,0,0,1,0,0,0,0,1,hexagon,star,,,,,,,,,,,,,,,,,,,,,,,,,,,,,,,,,,,,,,,,,,,,,,,,,,,,,,
298072,2022-11-14_15h41.27.927,vts_reward_expectancy_bt,2022.2.4,Win32,165.0709805,Chrome,1920,1080,,,a,0.8976,10,388,2,0,0,0,1,1,1,0,0,0,0,0,1,0,triangle,hexagon,,,,,,,,,,,,,,,,,,,,,,,,,,,,,,,,,,,,,,,,,,,,,,,,,,,,,,
298072,2022-11-14_15h41.27.927,vts_reward_expectancy_bt,2022.2.4,Win32,165.0709805,Chrome,1920,1080,,,l,0.2067,1,389,2,0,1,1,9,1,0,0,0,1,1,0,0,0,star,triangle,,,,,,,,,,,,,,,,,,,,,,,,,,,,,,,,,,,,,,,,,,,,,,,,,,,,,,
298072,2022-11-14_15h41.27.927,vts_reward_expectancy_bt,2022.2.4,Win32,165.0709805,Chrome,1920,1080,,,l,0.0846,10,399,2,0,2,2,7,1,0,0,1,0,0,1,0,0,hexagon,circle,,,,,,,,,,,,,,,,,,,,,,,,,,,,,,,,,,,,,,,,,,,,,,,,,,,,,,
298072,2022-11-14_15h41.27.927,vts_reward_expectancy_bt,2022.2.4,Win32,165.0709805,Chrome,1920,1080,,,l,0.1828,1,400,2,0,3,3,8,1,0,0,1,0,0,0,0,1,hexagon,star,,,,,,,,,,,,,,,,,,,,,,,,,,,,,,,,,,,,,,,,,,,,,,,,,,,,,,
298072,2022-11-14_15h41.27.927,vts_reward_expectancy_bt,2022.2.4,Win32,165.0709805,Chrome,1920,1080,,,l,0.224,1,401,2,0,4,4,6,1,0,0,1,0,1,0,0,0,hexagon,triangle,,,,,,,,,,,,,,,,,,,,,,,,,,,,,,,,,,,,,,,,,,,,,,,,,,,,,,
298072,2022-11-14_15h41.27.927,vts_reward_expectancy_bt,2022.2.4,Win32,165.0709805,Chrome,1920,1080,,,a,0.4433,1,402,2,0,5,5,10,1,0,0,0,1,0,1,0,0,star ,circle,,,,,,,,,,,,,,,,,,,,,,,,,,,,,,,,,,,,,,,,,,,,,,,,,,,,,,
298072,2022-11-14_15h41.27.927,vts_reward_expectancy_bt,2022.2.4,Win32,165.0709805,Chrome,1920,1080,,,a,1.3106,1,403,2,0,6,6,4,1,0,1,0,0,0,0,1,0,circle,hexagon,,,,,,,,,,,,,,,,,,,,,,,,,,,,,,,,,,,,,,,,,,,,,,,,,,,,,,
298072,2022-11-14_15h41.27.927,vts_reward_expectancy_bt,2022.2.4,Win32,165.0709805,Chrome,1920,1080,,,a,1.0359,10,413,2,0,7,7,0,1,1,0,0,0,0,1,0,0,triangle,circle,,,,,,,,,,,,,,,,,,,,,,,,,,,,,,,,,,,,,,,,,,,,,,,,,,,,,,
298072,2022-11-14_15h41.27.927,vts_reward_expectancy_bt,2022.2.4,Win32,165.0709805,Chrome,1920,1080,,,l,1.6749,10,423,2,0,8,8,3,1,0,1,0,0,1,0,0,0,circle,triangle,,,,,,,,,,,,,,,,,,,,,,,,,,,,,,,,,,,,,,,,,,,,,,,,,,,,,,
298072,2022-11-14_15h41.27.927,vts_reward_expectancy_bt,2022.2.4,Win32,165.0709805,Chrome,1920,1080,,,l,1.9514,10,433,2,0,9,9,11,1,0,0,0,1,0,0,1,0,star,hexagon,,,,,,,,,,,,,,,,,,,,,,,,,,,,,,,,,,,,,,,,,,,,,,,,,,,,,,
298072,2022-11-14_15h41.27.927,vts_reward_expectancy_bt,2022.2.4,Win32,165.0709805,Chrome,1920,1080,,,l,1.3171,1,434,2,0,10,10,5,1,0,1,0,0,0,0,0,1,circle,star,,,,,,,,,,,,,,,,,,,,,,,,,,,,,,,,,,,,,,,,,,,,,,,,,,,,,,
298072,2022-11-14_15h41.27.927,vts_reward_expectancy_bt,2022.2.4,Win32,165.0709805,Chrome,1920,1080,,,l,1.1086,1,435,2,0,11,11,2,1,1,0,0,0,0,0,0,1,triangle,star,,,,,,,,,,,,,,,,,,,,,,,,,,,,,,,,,,,,,,,,,,,,,,,,,,,,,,
298072,2022-11-14_15h41.27.927,vts_reward_expectancy_bt,2022.2.4,Win32,165.0709805,Chrome,1920,1080,,,l,0.7525,10,445,2,1,0,12,9,1,0,0,0,1,1,0,0,0,star,triangle,,,,,,,,,,,,,,,,,,,,,,,,,,,,,,,,,,,,,,,,,,,,,,,,,,,,,,
298072,2022-11-14_15h41.27.927,vts_reward_expectancy_bt,2022.2.4,Win32,165.0709805,Chrome,1920,1080,,,l,1.0028,10,455,2,1,1,13,10,1,0,0,0,1,0,1,0,0,star ,circle,,,,,,,,,,,,,,,,,,,,,,,,,,,,,,,,,,,,,,,,,,,,,,,,,,,,,,
298072,2022-11-14_15h41.27.927,vts_reward_expectancy_bt,2022.2.4,Win32,165.0709805,Chrome,1920,1080,,,l,1.8239,1,456,2,1,2,14,3,1,0,1,0,0,1,0,0,0,circle,triangle,,,,,,,,,,,,,,,,,,,,,,,,,,,,,,,,,,,,,,,,,,,,,,,,,,,,,,
298072,2022-11-14_15h41.27.927,vts_reward_expectancy_bt,2022.2.4,Win32,165.0709805,Chrome,1920,1080,,,a,1.2605,1,457,2,1,3,15,6,1,0,0,1,0,1,0,0,0,hexagon,triangle,,,,,,,,,,,,,,,,,,,,,,,,,,,,,,,,,,,,,,,,,,,,,,,,,,,,,,
298072,2022-11-14_15h41.27.927,vts_reward_expectancy_bt,2022.2.4,Win32,165.0709805,Chrome,1920,1080,,,a,1.0145,10,467,2,1,4,16,1,1,1,0,0,0,0,0,1,0,triangle,hexagon,,,,,,,,,,,,,,,,,,,,,,,,,,,,,,,,,,,,,,,,,,,,,,,,,,,,,,
298072,2022-11-14_15h41.27.927,vts_reward_expectancy_bt,2022.2.4,Win32,165.0709805,Chrome,1920,1080,,,l,3.6332,10,477,2,1,5,17,11,1,0,0,0,1,0,0,1,0,star,hexagon,,,,,,,,,,,,,,,,,,,,,,,,,,,,,,,,,,,,,,,,,,,,,,,,,,,,,,
298072,2022-11-14_15h41.27.927,vts_reward_expectancy_bt,2022.2.4,Win32,165.0709805,Chrome,1920,1080,,,a,2.1457,1,478,2,1,6,18,2,1,1,0,0,0,0,0,0,1,triangle,star,,,,,,,,,,,,,,,,,,,,,,,,,,,,,,,,,,,,,,,,,,,,,,,,,,,,,,
298072,2022-11-14_15h41.27.927,vts_reward_expectancy_bt,2022.2.4,Win32,165.0709805,Chrome,1920,1080,,,l,0.9572,1,479,2,1,7,19,0,1,1,0,0,0,0,1,0,0,triangle,circle,,,,,,,,,,,,,,,,,,,,,,,,,,,,,,,,,,,,,,,,,,,,,,,,,,,,,,
298072,2022-11-14_15h41.27.927,vts_reward_expectancy_bt,2022.2.4,Win32,165.0709805,Chrome,1920,1080,,,a,0.3457,10,489,2,1,8,20,5,1,0,1,0,0,0,0,0,1,circle,star,,,,,,,,,,,,,,,,,,,,,,,,,,,,,,,,,,,,,,,,,,,,,,,,,,,,,,
298072,2022-11-14_15h41.27.927,vts_reward_expectancy_bt,2022.2.4,Win32,165.0709805,Chrome,1920,1080,,,l,0.2608,10,499,2,1,9,21,7,1,0,0,1,0,0,1,0,0,hexagon,circle,,,,,,,,,,,,,,,,,,,,,,,,,,,,,,,,,,,,,,,,,,,,,,,,,,,,,,
298072,2022-11-14_15h41.27.927,vts_reward_expectancy_bt,2022.2.4,Win32,165.0709805,Chrome,1920,1080,,,a,0.2784,1,500,2,1,10,22,4,1,0,1,0,0,0,0,1,0,circle,hexagon,,,,,,,,,,,,,,,,,,,,,,,,,,,,,,,,,,,,,,,,,,,,,,,,,,,,,,
298072,2022-11-14_15h41.27.927,vts_reward_expectancy_bt,2022.2.4,Win32,165.0709805,Chrome,1920,1080,,,a,1.3779,1,501,2,1,11,23,8,1,0,0,1,0,0,0,0,1,hexagon,star,,,,,,,,,,,,,,,,,,,,,,,,,,,,,,,,,,,,,,,,,,,,,,,,,,,,,,
298072,2022-11-14_15h41.27.927,vts_reward_expectancy_bt,2022.2.4,Win32,165.0709805,Chrome,1920,1080,,,l,1.8481,10,511,2,2,0,24,2,1,1,0,0,0,0,0,0,1,triangle,star,,,,,,,,,,,,,,,,,,,,,,,,,,,,,,,,,,,,,,,,,,,,,,,,,,,,,,
298072,2022-11-14_15h41.27.927,vts_reward_expectancy_bt,2022.2.4,Win32,165.0709805,Chrome,1920,1080,,,l,1.4431,10,521,2,2,1,25,0,1,1,0,0,0,0,1,0,0,triangle,circle,,,,,,,,,,,,,,,,,,,,,,,,,,,,,,,,,,,,,,,,,,,,,,,,,,,,,,
298072,2022-11-14_15h41.27.927,vts_reward_expectancy_bt,2022.2.4,Win32,165.0709805,Chrome,1920,1080,,,l,1.2239,1,522,2,2,2,26,6,1,0,0,1,0,1,0,0,0,hexagon,triangle,,,,,,,,,,,,,,,,,,,,,,,,,,,,,,,,,,,,,,,,,,,,,,,,,,,,,,
298072,2022-11-14_15h41.27.927,vts_reward_expectancy_bt,2022.2.4,Win32,165.0709805,Chrome,1920,1080,,,a,0.5209,10,532,2,2,3,27,3,1,0,1,0,0,1,0,0,0,circle,triangle,,,,,,,,,,,,,,,,,,,,,,,,,,,,,,,,,,,,,,,,,,,,,,,,,,,,,,
298072,2022-11-14_15h41.27.927,vts_reward_expectancy_bt,2022.2.4,Win32,165.0709805,Chrome,1920,1080,,,a,2.1511,10,542,2,2,4,28,5,1,0,1,0,0,0,0,0,1,circle,star,,,,,,,,,,,,,,,,,,,,,,,,,,,,,,,,,,,,,,,,,,,,,,,,,,,,,,
298072,2022-11-14_15h41.27.927,vts_reward_expectancy_bt,2022.2.4,Win32,165.0709805,Chrome,1920,1080,,,a,1.0991,1,543,2,2,5,29,1,1,1,0,0,0,0,0,1,0,triangle,hexagon,,,,,,,,,,,,,,,,,,,,,,,,,,,,,,,,,,,,,,,,,,,,,,,,,,,,,,
298072,2022-11-14_15h41.27.927,vts_reward_expectancy_bt,2022.2.4,Win32,165.0709805,Chrome,1920,1080,,,a,1.6921,10,553,2,2,6,30,8,1,0,0,1,0,0,0,0,1,hexagon,star,,,,,,,,,,,,,,,,,,,,,,,,,,,,,,,,,,,,,,,,,,,,,,,,,,,,,,
298072,2022-11-14_15h41.27.927,vts_reward_expectancy_bt,2022.2.4,Win32,165.0709805,Chrome,1920,1080,,,a,1.4544,1,554,2,2,7,31,9,1,0,0,0,1,1,0,0,0,star,triangle,,,,,,,,,,,,,,,,,,,,,,,,,,,,,,,,,,,,,,,,,,,,,,,,,,,,,,
298072,2022-11-14_15h41.27.927,vts_reward_expectancy_bt,2022.2.4,Win32,165.0709805,Chrome,1920,1080,,,l,1.1632,1,555,2,2,8,32,11,1,0,0,0,1,0,0,1,0,star,hexagon,,,,,,,,,,,,,,,,,,,,,,,,,,,,,,,,,,,,,,,,,,,,,,,,,,,,,,
298072,2022-11-14_15h41.27.927,vts_reward_expectancy_bt,2022.2.4,Win32,165.0709805,Chrome,1920,1080,,,l,1.0965,10,565,2,2,9,33,10,1,0,0,0,1,0,1,0,0,star ,circle,,,,,,,,,,,,,,,,,,,,,,,,,,,,,,,,,,,,,,,,,,,,,,,,,,,,,,
298072,2022-11-14_15h41.27.927,vts_reward_expectancy_bt,2022.2.4,Win32,165.0709805,Chrome,1920,1080,,,a,1.3463,10,575,2,2,10,34,4,1,0,1,0,0,0,0,1,0,circle,hexagon,,,,,,,,,,,,,,,,,,,,,,,,,,,,,,,,,,,,,,,,,,,,,,,,,,,,,,
298072,2022-11-14_15h41.27.927,vts_reward_expectancy_bt,2022.2.4,Win32,165.0709805,Chrome,1920,1080,,,l,2.3148,10,585,2,2,11,35,7,1,0,0,1,0,0,1,0,0,hexagon,circle,,,,,,,,,,,,,,,,,,,,,,,,,,,,,,,,,,,,,,,,,,,,,,,,,,,,,,
298072,2022-11-14_15h41.27.927,vts_reward_expectancy_bt,2022.2.4,Win32,165.0709805,Chrome,1920,1080,,,,,,,,,,,,,,,,,,,,,,,F,160,hexagon,1,0,d,2.6062,0,0,0,0,0,1,,,,,,,,,,,,,,,,,,,,,,,,,,,,,,,,,,,,,,,,,
298072,2022-11-14_15h41.27.927,vts_reward_expectancy_bt,2022.2.4,Win32,165.0709805,Chrome,1920,1080,,,,,,,,,,,,,,,,,,,,,,,Y,146,circle,1,0,f,0.5336,0,1,0,1,0,1,,,,,,,,,,,,,,,,,,,,,,,,,,,,,,,,,,,,,,,,,
298072,2022-11-14_15h41.27.927,vts_reward_expectancy_bt,2022.2.4,Win32,165.0709805,Chrome,1920,1080,,,,,,,,,,,,,,,,,,,,,,,B,167,star,1,0,d,0.5522,0,2,0,2,0,1,,,,,,,,,,,,,,,,,,,,,,,,,,,,,,,,,,,,,,,,,
298072,2022-11-14_15h41.27.927,vts_reward_expectancy_bt,2022.2.4,Win32,165.0709805,Chrome,1920,1080,,,,,,,,,,,,,,,,,,,,,,,W,139,triangle,1,0,f,0.5085,0,3,0,3,0,1,,,,,,,,,,,,,,,,,,,,,,,,,,,,,,,,,,,,,,,,,
298072,2022-11-14_15h41.27.927,vts_reward_expectancy_bt,2022.2.4,Win32,165.0709805,Chrome,1920,1080,,,,,,,,,,,,,,,,,,,,,,,H,132,hexagon,1,0,d,1.062,0,4,0,4,0,1,,,,,,,,,,,,,,,,,,,,,,,,,,,,,,,,,,,,,,,,,
298072,2022-11-14_15h41.27.927,vts_reward_expectancy_bt,2022.2.4,Win32,165.0709805,Chrome,1920,1080,,,,,,,,,,,,,,,,,,,,,,,S,174,circle,1,0,f,0.5298,0,5,0,5,0,1,,,,,,,,,,,,,,,,,,,,,,,,,,,,,,,,,,,,,,,,,
298072,2022-11-14_15h41.27.927,vts_reward_expectancy_bt,2022.2.4,Win32,165.0709805,Chrome,1920,1080,,,,,,,,,,,,,,,,,,,,,,,U,181,star,1,0,f,0.6174,0,6,0,6,0,1,,,,,,,,,,,,,,,,,,,,,,,,,,,,,,,,,,,,,,,,,
298072,2022-11-14_15h41.27.927,vts_reward_expectancy_bt,2022.2.4,Win32,165.0709805,Chrome,1920,1080,,,,,,,,,,,,,,,,,,,,,,,D,125,triangle,1,0,d,0.4238,0,7,0,7,0,1,,,,,,,,,,,,,,,,,,,,,,,,,,,,,,,,,,,,,,,,,
298072,2022-11-14_15h41.27.927,vts_reward_expectancy_bt,2022.2.4,Win32,165.0709805,Chrome,1920,1080,,,,,,,,,,,,,,,,,,,,,,,F,160,triangle,1,0,d,1.1207,0,8,0,8,0,1,,,,,,,,,,,,,,,,,,,,,,,,,,,,,,,,,,,,,,,,,
298072,2022-11-14_15h41.27.927,vts_reward_expectancy_bt,2022.2.4,Win32,165.0709805,Chrome,1920,1080,,,,,,,,,,,,,,,,,,,,,,,Y,146,hexagon,1,0,f,0.6786,0,9,0,9,0,1,,,,,,,,,,,,,,,,,,,,,,,,,,,,,,,,,,,,,,,,,
298072,2022-11-14_15h41.27.927,vts_reward_expectancy_bt,2022.2.4,Win32,165.0709805,Chrome,1920,1080,,,,,,,,,,,,,,,,,,,,,,,S,181,triangle,1,0,,,1,,,,,,k,0.5389,0,0,0,0,1,,,,,,,,,,,,,,,,,,,,,,,,,,,,,,,,,,
298072,2022-11-14_15h41.27.927,vts_reward_expectancy_bt,2022.2.4,Win32,165.0709805,Chrome,1920,1080,,,,,,,,,,,,,,,,,,,,,,,U,146,circle,1,0,,,1,,,,,,j,0.4207,1,0,1,0,1,,,,,,,,,,,,,,,,,,,,,,,,,,,,,,,,,,
298072,2022-11-14_15h41.27.927,vts_reward_expectancy_bt,2022.2.4,Win32,165.0709805,Chrome,1920,1080,,,,,,,,,,,,,,,,,,,,,,,B,174,hexagon,1,0,,,1,,,,,,k,0.362,2,0,2,0,1,,,,,,,,,,,,,,,,,,,,,,,,,,,,,,,,,,
298072,2022-11-14_15h41.27.927,vts_reward_expectancy_bt,2022.2.4,Win32,165.0709805,Chrome,1920,1080,,,,,,,,,,,,,,,,,,,,,,,D,132,star,1,0,,,1,,,,,,j,0.4159,3,0,3,0,1,,,,,,,,,,,,,,,,,,,,,,,,,,,,,,,,,,
298072,2022-11-14_15h41.27.927,vts_reward_expectancy_bt,2022.2.4,Win32,165.0709805,Chrome,1920,1080,,,,,,,,,,,,,,,,,,,,,,,H,139,triangle,1,0,,,1,,,,,,j,0.5892,4,0,4,0,1,,,,,,,,,,,,,,,,,,,,,,,,,,,,,,,,,,
298072,2022-11-14_15h41.27.927,vts_reward_expectancy_bt,2022.2.4,Win32,165.0709805,Chrome,1920,1080,,,,,,,,,,,,,,,,,,,,,,,F,125,circle,1,0,,,1,,,,,,j,0.7599,5,0,5,0,1,,,,,,,,,,,,,,,,,,,,,,,,,,,,,,,,,,
298072,2022-11-14_15h41.27.927,vts_reward_expectancy_bt,2022.2.4,Win32,165.0709805,Chrome,1920,1080,,,,,,,,,,,,,,,,,,,,,,,Y,160,hexagon,1,0,,,1,,,,,,k,0.3882,6,0,6,0,1,,,,,,,,,,,,,,,,,,,,,,,,,,,,,,,,,,
298072,2022-11-14_15h41.27.927,vts_reward_expectancy_bt,2022.2.4,Win32,165.0709805,Chrome,1920,1080,,,,,,,,,,,,,,,,,,,,,,,W,167,star,1,0,,,1,,,,,,k,1.0537,7,0,7,0,1,,,,,,,,,,,,,,,,,,,,,,,,,,,,,,,,,,
298072,2022-11-14_15h41.27.927,vts_reward_expectancy_bt,2022.2.4,Win32,165.0709805,Chrome,1920,1080,,,,,,,,,,,,,,,,,,,,,,,S,181,hexagon,1,0,,,1,,,,,,k,0.7508,8,0,8,0,1,,,,,,,,,,,,,,,,,,,,,,,,,,,,,,,,,,
298072,2022-11-14_15h41.27.927,vts_reward_expectancy_bt,2022.2.4,Win32,165.0709805,Chrome,1920,1080,,,,,,,,,,,,,,,,,,,,,,,U,146,star,1,0,,,1,,,,,,j,1.0111,9,0,9,0,1,,,,,,,,,,,,,,,,,,,,,,,,,,,,,,,,,,
298072,2022-11-14_15h41.27.927,vts_reward_expectancy_bt,2022.2.4,Win32,165.0709805,Chrome,1920,1080,,,,,0,585,,,,,,,,,,,,,,,,,W,139,triangle,1,0,,,2,,,,,,,,,,,,,-1,letter,NA,f,2.9479,vtsPrac,0,0,0,0,1,,,,,,,,,,,,,,,,,,,,,,,
298072,2022-11-14_15h41.27.927,vts_reward_expectancy_bt,2022.2.4,Win32,165.0709805,Chrome,1920,1080,,,,,0,585,,,,,,,,,,,,,,,,,F,181,hexagon,1,0,,,2,,,,,,,,,,,,,repeat,letter,lettRpt,d,0.6248,vtsPrac,1,0,1,0,1,,,,,,,,,,,,,,,,,,,,,,,
298072,2022-11-14_15h41.27.927,vts_reward_expectancy_bt,2022.2.4,Win32,165.0709805,Chrome,1920,1080,,,,,0,585,,,,,,,,,,,,,,,,,U,174,triangle,1,0,,,2,,,,,,,,,,,,,switch,number,numSwt,k,0.5741,vtsPrac,2,0,2,0,1,,,,,,,,,,,,,,,,,,,,,,,
298072,2022-11-14_15h41.27.927,vts_reward_expectancy_bt,2022.2.4,Win32,165.0709805,Chrome,1920,1080,,,,,0,585,,,,,,,,,,,,,,,,,H,146,hexagon,1,0,,,2,,,,,,,,,,,,,switch,letter,lettSwt,d,0.4815,vtsPrac,3,0,3,0,1,,,,,,,,,,,,,,,,,,,,,,,
298072,2022-11-14_15h41.27.927,vts_reward_expectancy_bt,2022.2.4,Win32,165.0709805,Chrome,1920,1080,,,,,0,585,,,,,,,,,,,,,,,,,W,139,star,1,0,,,2,,,,,,,,,,,,,switch,number,numSwt,j,0.6648,vtsPrac,4,0,4,0,1,,,,,,,,,,,,,,,,,,,,,,,
298072,2022-11-14_15h41.27.927,vts_reward_expectancy_bt,2022.2.4,Win32,165.0709805,Chrome,1920,1080,,,,,0,585,,,,,,,,,,,,,,,,,F,181,hexagon,1,0,,,2,,,,,,,,,,,,,repeat,number,numRpt,k,0.3866,vtsPrac,5,0,5,0,1,,,,,,,,,,,,,,,,,,,,,,,
298072,2022-11-14_15h41.27.927,vts_reward_expectancy_bt,2022.2.4,Win32,165.0709805,Chrome,1920,1080,,,,,0,585,,,,,,,,,,,,,,,,,U,174,circle,1,0,,,2,,,,,,,,,,,,,repeat,number,numRpt,k,0.5084,vtsPrac,6,0,6,0,1,,,,,,,,,,,,,,,,,,,,,,,
298072,2022-11-14_15h41.27.927,vts_reward_expectancy_bt,2022.2.4,Win32,165.0709805,Chrome,1920,1080,,,,,0,585,,,,,,,,,,,,,,,,,H,146,triangle,1,0,,,2,,,,,,,,,,,,,switch,letter,lettSwt,d,0.7158,vtsPrac,7,0,7,0,1,,,,,,,,,,,,,,,,,,,,,,,
298072,2022-11-14_15h41.27.927,vts_reward_expectancy_bt,2022.2.4,Win32,165.0709805,Chrome,1920,1080,,,,,0,585,,,,,,,,,,,,,,,,,W,181,triangle,1,0,,,2,,,,,,,,,,,,,switch,number,numSwt,k,0.4016,vtsPrac,8,0,8,0,1,,,,,,,,,,,,,,,,,,,,,,,
298072,2022-11-14_15h41.27.927,vts_reward_expectancy_bt,2022.2.4,Win32,165.0709805,Chrome,1920,1080,,,,,0,585,,,,,,,,,,,,,,,,,U,132,star,1,0,,,2,,,,,,,,,,,,,switch,letter,lettSwt,f,0.5546,vtsPrac,9,0,9,0,1,,,,,,,,,,,,,,,,,,,,,,,
298072,2022-11-14_15h41.27.927,vts_reward_expectancy_bt,2022.2.4,Win32,165.0709805,Chrome,1920,1080,,,,,0,585,,,,,,,,,,,,,,,,,D,139,circle,1,0,,,2,,,,,,,,,,,,,repeat,letter,lettRpt,d,0.466,vtsPrac,10,0,10,0,1,,,,,,,,,,,,,,,,,,,,,,,
298072,2022-11-14_15h41.27.927,vts_reward_expectancy_bt,2022.2.4,Win32,165.0709805,Chrome,1920,1080,,,,,0,585,,,,,,,,,,,,,,,,,Y,125,star,1,0,,,2,,,,,,,,,,,,,switch,number,numSwt,j,0.4593,vtsPrac,11,0,11,0,1,,,,,,,,,,,,,,,,,,,,,,,
298072,2022-11-14_15h41.27.927,vts_reward_expectancy_bt,2022.2.4,Win32,165.0709805,Chrome,1920,1080,,,,,0,585,,,,,,,,,,,,,,,,,H,167,hexagon,1,0,,,2,,,,,,,,,,,,,switch,letter,lettSwt,d,0.5084,vtsPrac,12,0,12,0,1,,,,,,,,,,,,,,,,,,,,,,,
298072,2022-11-14_15h41.27.927,vts_reward_expectancy_bt,2022.2.4,Win32,165.0709805,Chrome,1920,1080,,,,,0,585,,,,,,,,,,,,,,,,,S,160,star,1,0,,,2,,,,,,,,,,,,,repeat,letter,lettRpt,f,0.5265,vtsPrac,13,0,13,0,1,,,,,,,,,,,,,,,,,,,,,,,
298072,2022-11-14_15h41.27.927,vts_reward_expectancy_bt,2022.2.4,Win32,165.0709805,Chrome,1920,1080,,,,,0,585,,,,,,,,,,,,,,,,,B,132,triangle,1,0,,,2,,,,,,,,,,,,,switch,number,numSwt,j,0.575,vtsPrac,14,0,14,0,1,,,,,,,,,,,,,,,,,,,,,,,
298072,2022-11-14_15h41.27.927,vts_reward_expectancy_bt,2022.2.4,Win32,165.0709805,Chrome,1920,1080,,,,,0,585,,,,,,,,,,,,,,,,,D,139,circle,1,0,,,2,,,,,,,,,,,,,switch,letter,lettSwt,d,0.6213,vtsPrac,15,0,15,0,1,,,,,,,,,,,,,,,,,,,,,,,
298072,2022-11-14_15h41.27.927,vts_reward_expectancy_bt,2022.2.4,Win32,165.0709805,Chrome,1920,1080,,,,,0,585,,,,,,,,,,,,,,,,,Y,125,star,1,0,,,2,,,,,,,,,,,,,switch,number,numSwt,j,0.3932,vtsPrac,16,0,16,0,1,,,,,,,,,,,,,,,,,,,,,,,
298072,2022-11-14_15h41.27.927,vts_reward_expectancy_bt,2022.2.4,Win32,165.0709805,Chrome,1920,1080,,,,,0,585,,,,,,,,,,,,,,,,,F,146,hexagon,1,0,,,2,,,,,,,,,,,,,repeat,number,numRpt,j,0.4458,vtsPrac,17,0,17,0,1,,,,,,,,,,,,,,,,,,,,,,,
298072,2022-11-14_15h41.27.927,vts_reward_expectancy_bt,2022.2.4,Win32,165.0709805,Chrome,1920,1080,,,,,0,585,,,,,,,,,,,,,,,,,H,167,star,1,0,,,2,,,,,,,,,,,,,repeat,number,numRpt,k,0.5264,vtsPrac,18,0,18,0,1,,,,,,,,,,,,,,,,,,,,,,,
298072,2022-11-14_15h41.27.927,vts_reward_expectancy_bt,2022.2.4,Win32,165.0709805,Chrome,1920,1080,,,,,0,585,,,,,,,,,,,,,,,,,S,139,circle,1,0,,,2,,,,,,,,,,,,,switch,letter,lettSwt,f,0.6151,vtsPrac,19,0,19,0,1,,,,,,,,,,,,,,,,,,,,,,,
298072,2022-11-14_15h41.27.927,vts_reward_expectancy_bt,2022.2.4,Win32,165.0709805,Chrome,1920,1080,,,,,0,585,,,,,,,,,,,,,,,,,S,146,hexagon,1,0,,,2,,,,,,,,,,,,,repeat,letter,lettRpt,f,0.5533,vtsPrac,20,0,20,0,1,,,,,,,,,,,,,,,,,,,,,,,
298072,2022-11-14_15h41.27.927,vts_reward_expectancy_bt,2022.2.4,Win32,165.0709805,Chrome,1920,1080,,,,,0,585,,,,,,,,,,,,,,,,,F,174,triangle,1,0,,,2,,,,,,,,,,,,,switch,number,numSwt,k,0.6152,vtsPrac,21,0,21,0,1,,,,,,,,,,,,,,,,,,,,,,,
298072,2022-11-14_15h41.27.927,vts_reward_expectancy_bt,2022.2.4,Win32,165.0709805,Chrome,1920,1080,,,,,0,585,,,,,,,,,,,,,,,,,U,139,circle,1,0,,,2,,,,,,,,,,,,,switch,letter,lettSwt,f,0.4942,vtsPrac,22,0,22,0,1,,,,,,,,,,,,,,,,,,,,,,,
298072,2022-11-14_15h41.27.927,vts_reward_expectancy_bt,2022.2.4,Win32,165.0709805,Chrome,1920,1080,,,,,0,585,,,,,,,,,,,,,,,,,D,160,triangle,1,0,,,2,,,,,,,,,,,,,repeat,letter,lettRpt,d,0.5692,vtsPrac,23,0,23,0,1,,,,,,,,,,,,,,,,,,,,,,,
298072,2022-11-14_15h41.27.927,vts_reward_expectancy_bt,2022.2.4,Win32,165.0709805,Chrome,1920,1080,,,,,0,585,,,,,,,,,,,,,,,,,H,125,hexagon,1,0,,,2,,,,,,,,,,,,,switch,number,numSwt,j,0.5816,vtsPrac,24,0,24,0,1,,,,,,,,,,,,,,,,,,,,,,,
298072,2022-11-14_15h41.27.927,vts_reward_expectancy_bt,2022.2.4,Win32,165.0709805,Chrome,1920,1080,,,,,0,585,,,,,,,,,,,,,,,,,Y,132,star,1,0,,,2,,,,,,,,,,,,,repeat,number,numRpt,j,0.5548,vtsPrac,25,0,25,0,1,,,,,,,,,,,,,,,,,,,,,,,
298072,2022-11-14_15h41.27.927,vts_reward_expectancy_bt,2022.2.4,Win32,165.0709805,Chrome,1920,1080,,,,,0,585,,,,,,,,,,,,,,,,,S,181,star,1,0,,,2,,,,,,,,,,,,,switch,letter,lettSwt,f,0.9282,vtsPrac,26,0,26,0,1,,,,,,,,,,,,,,,,,,,,,,,
298072,2022-11-14_15h41.27.927,vts_reward_expectancy_bt,2022.2.4,Win32,165.0709805,Chrome,1920,1080,,,,,0,585,,,,,,,,,,,,,,,,,B,146,hexagon,1,0,,,2,,,,,,,,,,,,,repeat,letter,lettRpt,d,0.7157,vtsPrac,27,0,27,0,1,,,,,,,,,,,,,,,,,,,,,,,
298072,2022-11-14_15h41.27.927,vts_reward_expectancy_bt,2022.2.4,Win32,165.0709805,Chrome,1920,1080,,,,,0,585,,,,,,,,,,,,,,,,,D,125,star,1,0,,,2,,,,,,,,,,,,,repeat,letter,lettRpt,d,0.5447,vtsPrac,28,0,28,0,1,,,,,,,,,,,,,,,,,,,,,,,
298072,2022-11-14_15h41.27.927,vts_reward_expectancy_bt,2022.2.4,Win32,165.0709805,Chrome,1920,1080,,,,,0,585,,,,,,,,,,,,,,,,,U,146,circle,1,0,,,2,,,,,,,,,,,,,switch,number,numSwt,j,1.3706,vtsPrac,29,0,29,0,1,,,,,,,,,,,,,,,,,,,,,,,
298072,2022-11-14_15h41.27.927,vts_reward_expectancy_bt,2022.2.4,Win32,165.0709805,Chrome,1920,1080,,,,,0,585,,,,,,,,,,,,,,,,,B,181,triangle,1,0,,,2,,,,,,,,,,,,,switch,letter,lettSwt,d,0.6735,vtsPrac,30,0,30,0,1,,,,,,,,,,,,,,,,,,,,,,,
298072,2022-11-14_15h41.27.927,vts_reward_expectancy_bt,2022.2.4,Win32,165.0709805,Chrome,1920,1080,,,,,0,585,,,,,,,,,,,,,,,,,S,139,circle,1,0,,,2,,,,,,,,,,,,,switch,number,numSwt,j,0.6687,vtsPrac,31,0,31,0,1,,,,,,,,,,,,,,,,,,,,,,,
298072,2022-11-14_15h41.27.927,vts_reward_expectancy_bt,2022.2.4,Win32,165.0709805,Chrome,1920,1080,,,,,,,,,,,,,,,,,,,,,,,,,,,,,,,,,,,,,,,,,,,,,,,,,,,,,,,,,,,,,,,,,,,,,,,,,,,,
298072,2022-11-14_15h41.27.927,vts_reward_expectancy_bt,2022.2.4,Win32,165.0709805,Chrome,1920,1080,,,,,,,,,,,,,,,,,,,,,,,,,,,,,,,,,,,,,,,,,,,,,,,,,,,,,,,,,,,,,,,,,,,,,,,,,,,,
298072,2022-11-14_15h41.27.927,vts_reward_expectancy_bt,2022.2.4,Win32,165.0709805,Chrome,1920,1080,,,,,0,585,,,,,,,,,,,,,,,,,U,132,circle,0,0,,,,,,,,,,,,,,,,switch,letter,NA,d,2.1803,noRew,,,,,,0,0,0,0,0,1,,,,,,,,,,,,,,,,,
298072,2022-11-14_15h41.27.927,vts_reward_expectancy_bt,2022.2.4,Win32,165.0709805,Chrome,1920,1080,,,,,0,585,,,,,,,,,,,,,,,,,D,125,hexagon,1,1,,,,,,,,,,,,,,,,repeat,letter,lettRpt,d,0.7167,noRew,,,,,,0,1,0,1,0,1,,,,,,,,,,,,,,,,,
298072,2022-11-14_15h41.27.927,vts_reward_expectancy_bt,2022.2.4,Win32,165.0709805,Chrome,1920,1080,,,,,0,585,,,,,,,,,,,,,,,,,F,160,circle,1,0,,,,,,,,,,,,,,,,switch,number,numSwt,k,1.8194,noRew,,,,,,0,2,0,2,0,1,,,,,,,,,,,,,,,,,
298072,2022-11-14_15h41.27.927,vts_reward_expectancy_bt,2022.2.4,Win32,165.0709805,Chrome,1920,1080,,,,,0,585,,,,,,,,,,,,,,,,,W,174,hexagon,1,0,,,,,,,,,,,,,,,,repeat,number,numRpt,k,0.5026,noRew,,,,,,0,3,0,3,0,1,,,,,,,,,,,,,,,,,
298072,2022-11-14_15h41.27.927,vts_reward_expectancy_bt,2022.2.4,Win32,165.0709805,Chrome,1920,1080,,,,,0,585,,,,,,,,,,,,,,,,,U,132,triangle,1,0,,,,,,,,,,,,,,,,repeat,number,numRpt,j,0.5397,noRew,,,,,,0,4,0,4,0,1,,,,,,,,,,,,,,,,,
298072,2022-11-14_15h41.27.927,vts_reward_expectancy_bt,2022.2.4,Win32,165.0709805,Chrome,1920,1080,,,,,0,585,,,,,,,,,,,,,,,,,D,125,circle,1,0,,,,,,,,,,,,,,,,switch,letter,lettSwt,d,0.6787,noRew,,,,,,0,5,0,5,0,1,,,,,,,,,,,,,,,,,
298072,2022-11-14_15h41.27.927,vts_reward_expectancy_bt,2022.2.4,Win32,165.0709805,Chrome,1920,1080,,,,,0,585,,,,,,,,,,,,,,,,,F,160,hexagon,1,0,,,,,,,,,,,,,,,,switch,number,numSwt,k,0.4846,noRew,,,,,,0,6,0,6,0,1,,,,,,,,,,,,,,,,,
298072,2022-11-14_15h41.27.927,vts_reward_expectancy_bt,2022.2.4,Win32,165.0709805,Chrome,1920,1080,,,,,0,585,,,,,,,,,,,,,,,,,W,174,star,1,0,,,,,,,,,,,,,,,,switch,letter,lettSwt,f,0.5085,noRew,,,,,,0,7,0,7,0,1,,,,,,,,,,,,,,,,,
298072,2022-11-14_15h41.27.927,vts_reward_expectancy_bt,2022.2.4,Win32,165.0709805,Chrome,1920,1080,,,,,0,585,,,,,,,,,,,,,,,,,S,160,triangle,1,0,,,,,,,,,,,,,,,,repeat,letter,lettRpt,f,0.5316,noRew,,,,,,0,8,0,8,0,1,,,,,,,,,,,,,,,,,
298072,2022-11-14_15h41.27.927,vts_reward_expectancy_bt,2022.2.4,Win32,165.0709805,Chrome,1920,1080,,,,,0,585,,,,,,,,,,,,,,,,,F,139,hexagon,1,0,,,,,,,,,,,,,,,,switch,number,numSwt,j,0.5999,noRew,,,,,,0,9,0,9,0,1,,,,,,,,,,,,,,,,,
298072,2022-11-14_15h41.27.927,vts_reward_expectancy_bt,2022.2.4,Win32,165.0709805,Chrome,1920,1080,,,,,0,585,,,,,,,,,,,,,,,,,D,125,hexagon,1,0,,,,,,,,,,,,,,,,repeat,number,numRpt,j,0.4413,noRew,,,,,,0,10,0,10,0,1,,,,,,,,,,,,,,,,,
298072,2022-11-14_15h41.27.927,vts_reward_expectancy_bt,2022.2.4,Win32,165.0709805,Chrome,1920,1080,,,,,0,585,,,,,,,,,,,,,,,,,U,174,star,1,0,,,,,,,,,,,,,,,,switch,letter,lettSwt,f,0.5882,noRew,,,,,,0,11,0,11,0,1,,,,,,,,,,,,,,,,,
298072,2022-11-14_15h41.27.927,vts_reward_expectancy_bt,2022.2.4,Win32,165.0709805,Chrome,1920,1080,,,,,0,585,,,,,,,,,,,,,,,,,B,167,circle,1,0,,,,,,,,,,,,,,,,switch,number,numSwt,k,0.533,noRew,,,,,,0,12,0,12,0,1,,,,,,,,,,,,,,,,,
298072,2022-11-14_15h41.27.927,vts_reward_expectancy_bt,2022.2.4,Win32,165.0709805,Chrome,1920,1080,,,,,0,585,,,,,,,,,,,,,,,,,Y,174,star,1,0,,,,,,,,,,,,,,,,repeat,number,numRpt,k,1.06,noRew,,,,,,0,13,0,13,0,1,,,,,,,,,,,,,,,,,
298072,2022-11-14_15h41.27.927,vts_reward_expectancy_bt,2022.2.4,Win32,165.0709805,Chrome,1920,1080,,,,,0,585,,,,,,,,,,,,,,,,,F,132,circle,1,0,,,,,,,,,,,,,,,,switch,letter,lettSwt,d,0.8514,noRew,,,,,,0,14,0,14,0,1,,,,,,,,,,,,,,,,,
298072,2022-11-14_15h41.27.927,vts_reward_expectancy_bt,2022.2.4,Win32,165.0709805,Chrome,1920,1080,,,,,0,585,,,,,,,,,,,,,,,,,H,160,hexagon,1,0,,,,,,,,,,,,,,,,switch,number,numSwt,k,0.4968,noRew,,,,,,0,15,0,15,0,1,,,,,,,,,,,,,,,,,
298072,2022-11-14_15h41.27.927,vts_reward_expectancy_bt,2022.2.4,Win32,165.0709805,Chrome,1920,1080,,,,,0,585,,,,,,,,,,,,,,,,,S,174,star,1,0,,,,,,,,,,,,,,,,switch,letter,lettSwt,f,0.6084,noRew,,,,,,0,16,0,16,0,1,,,,,,,,,,,,,,,,,
298072,2022-11-14_15h41.27.927,vts_reward_expectancy_bt,2022.2.4,Win32,165.0709805,Chrome,1920,1080,,,,,0,585,,,,,,,,,,,,,,,,,B,139,circle,1,0,,,,,,,,,,,,,,,,repeat,letter,lettRpt,d,0.5533,noRew,,,,,,0,17,0,17,0,1,,,,,,,,,,,,,,,,,
298072,2022-11-14_15h41.27.927,vts_reward_expectancy_bt,2022.2.4,Win32,165.0709805,Chrome,1920,1080,,,,,0,585,,,,,,,,,,,,,,,,,F,160,star,1,0,,,,,,,,,,,,,,,,switch,number,numSwt,k,0.8419,noRew,,,,,,0,18,0,18,0,1,,,,,,,,,,,,,,,,,
298072,2022-11-14_15h41.27.927,vts_reward_expectancy_bt,2022.2.4,Win32,165.0709805,Chrome,1920,1080,,,,,0,585,,,,,,,,,,,,,,,,,Y,181,triangle,1,0,,,,,,,,,,,,,,,,switch,letter,lettSwt,f,0.6127,noRew,,,,,,0,19,0,19,0,1,,,,,,,,,,,,,,,,,
298072,2022-11-14_15h41.27.927,vts_reward_expectancy_bt,2022.2.4,Win32,165.0709805,Chrome,1920,1080,,,,,0,585,,,,,,,,,,,,,,,,,B,139,star,1,0,,,,,,,,,,,,,,,,switch,number,numSwt,j,0.4965,noRew,,,,,,0,20,0,20,0,1,,,,,,,,,,,,,,,,,
298072,2022-11-14_15h41.27.927,vts_reward_expectancy_bt,2022.2.4,Win32,165.0709805,Chrome,1920,1080,,,,,0,585,,,,,,,,,,,,,,,,,H,125,circle,0,0,,,,,,,,,,,,,,,,repeat,number,NA,k,0.6139,noRew,,,,,,0,21,0,21,0,1,,,,,,,,,,,,,,,,,
298072,2022-11-14_15h41.27.927,vts_reward_expectancy_bt,2022.2.4,Win32,165.0709805,Chrome,1920,1080,,,,,0,585,,,,,,,,,,,,,,,,,U,174,circle,1,1,,,,,,,,,,,,,,,,switch,letter,lettSwt,f,0.5354,noRew,,,,,,0,22,0,22,0,1,,,,,,,,,,,,,,,,,
298072,2022-11-14_15h41.27.927,vts_reward_expectancy_bt,2022.2.4,Win32,165.0709805,Chrome,1920,1080,,,,,0,585,,,,,,,,,,,,,,,,,D,160,hexagon,1,0,,,,,,,,,,,,,,,,switch,number,numSwt,k,0.5878,noRew,,,,,,0,23,0,23,0,1,,,,,,,,,,,,,,,,,
298072,2022-11-14_15h41.27.927,vts_reward_expectancy_bt,2022.2.4,Win32,165.0709805,Chrome,1920,1080,,,,,0,585,,,,,,,,,,,,,,,,,F,181,star,1,0,,,,,,,,,,,,,,,,repeat,number,numRpt,k,0.4664,noRew,,,,,,0,24,0,24,0,1,,,,,,,,,,,,,,,,,
298072,2022-11-14_15h41.27.927,vts_reward_expectancy_bt,2022.2.4,Win32,165.0709805,Chrome,1920,1080,,,,,0,585,,,,,,,,,,,,,,,,,S,167,circle,1,0,,,,,,,,,,,,,,,,repeat,number,numRpt,k,0.5837,noRew,,,,,,0,25,0,25,0,1,,,,,,,,,,,,,,,,,
298072,2022-11-14_15h41.27.927,vts_reward_expectancy_bt,2022.2.4,Win32,165.0709805,Chrome,1920,1080,,,,,0,585,,,,,,,,,,,,,,,,,W,139,triangle,1,0,,,,,,,,,,,,,,,,switch,letter,lettSwt,f,1.4034,noRew,,,,,,0,26,0,26,0,1,,,,,,,,,,,,,,,,,
298072,2022-11-14_15h41.27.927,vts_reward_expectancy_bt,2022.2.4,Win32,165.0709805,Chrome,1920,1080,,,,,0,585,,,,,,,,,,,,,,,,,H,146,hexagon,1,0,,,,,,,,,,,,,,,,repeat,letter,lettRpt,d,1.0547,noRew,,,,,,0,27,0,27,0,1,,,,,,,,,,,,,,,,,
298072,2022-11-14_15h41.27.927,vts_reward_expectancy_bt,2022.2.4,Win32,165.0709805,Chrome,1920,1080,,,,,0,585,,,,,,,,,,,,,,,,,D,160,circle,1,0,,,,,,,,,,,,,,,,switch,number,numSwt,k,0.7117,noRew,,,,,,0,28,0,28,0,1,,,,,,,,,,,,,,,,,
298072,2022-11-14_15h41.27.927,vts_reward_expectancy_bt,2022.2.4,Win32,165.0709805,Chrome,1920,1080,,,,,0,585,,,,,,,,,,,,,,,,,U,146,hexagon,1,0,,,,,,,,,,,,,,,,switch,letter,lettSwt,f,0.7536,noRew,,,,,,0,29,0,29,0,1,,,,,,,,,,,,,,,,,
298072,2022-11-14_15h41.27.927,vts_reward_expectancy_bt,2022.2.4,Win32,165.0709805,Chrome,1920,1080,,,,,0,585,,,,,,,,,,,,,,,,,B,174,triangle,1,0,,,,,,,,,,,,,,,,switch,number,numSwt,k,1.1121,noRew,,,,,,0,30,0,30,0,1,,,,,,,,,,,,,,,,,
298072,2022-11-14_15h41.27.927,vts_reward_expectancy_bt,2022.2.4,Win32,165.0709805,Chrome,1920,1080,,,,,0,585,,,,,,,,,,,,,,,,,F,139,hexagon,1,0,,,,,,,,,,,,,,,,repeat,number,numRpt,j,0.9454,noRew,,,,,,0,31,0,31,0,1,,,,,,,,,,,,,,,,,
298072,2022-11-14_15h41.27.927,vts_reward_expectancy_bt,2022.2.4,Win32,165.0709805,Chrome,1920,1080,,,,,0,585,,,,,,,,,,,,,,,,,U,125,hexagon,1,0,,,,,,,,,,,,,,,,switch,letter,lettSwt,f,0.8999,noRew,,,,,,0,32,0,32,0,1,,,,,,,,,,,,,,,,,
298072,2022-11-14_15h41.27.927,vts_reward_expectancy_bt,2022.2.4,Win32,165.0709805,Chrome,1920,1080,,,,,0,585,,,,,,,,,,,,,,,,,F,167,star,1,0,,,,,,,,,,,,,,,,switch,number,numSwt,k,0.5696,noRew,,,,,,0,33,0,33,0,1,,,,,,,,,,,,,,,,,
298072,2022-11-14_15h41.27.927,vts_reward_expectancy_bt,2022.2.4,Win32,165.0709805,Chrome,1920,1080,,,,,0,585,,,,,,,,,,,,,,,,,D,132,star,1,0,,,,,,,,,,,,,,,,switch,letter,lettSwt,d,0.63,noRew,,,,,,0,34,0,34,0,1,,,,,,,,,,,,,,,,,
298072,2022-11-14_15h41.27.927,vts_reward_expectancy_bt,2022.2.4,Win32,165.0709805,Chrome,1920,1080,,,,,0,585,,,,,,,,,,,,,,,,,S,181,triangle,1,0,,,,,,,,,,,,,,,,repeat,letter,lettRpt,f,1.2392,noRew,,,,,,0,35,0,35,0,1,,,,,,,,,,,,,,,,,
298072,2022-11-14_15h41.27.927,vts_reward_expectancy_bt,2022.2.4,Win32,165.0709805,Chrome,1920,1080,,,,,0,585,,,,,,,,,,,,,,,,,H,167,circle,1,0,,,,,,,,,,,,,,,,repeat,letter,lettRpt,d,0.8252,noRew,,,,,,0,36,0,36,0,1,,,,,,,,,,,,,,,,,
298072,2022-11-14_15h41.27.927,vts_reward_expectancy_bt,2022.2.4,Win32,165.0709805,Chrome,1920,1080,,,,,0,585,,,,,,,,,,,,,,,,,B,174,hexagon,1,0,,,,,,,,,,,,,,,,switch,number,numSwt,k,0.4009,noRew,,,,,,0,37,0,37,0,1,,,,,,,,,,,,,,,,,
298072,2022-11-14_15h41.27.927,vts_reward_expectancy_bt,2022.2.4,Win32,165.0709805,Chrome,1920,1080,,,,,0,585,,,,,,,,,,,,,,,,,Y,125,star,1,0,,,,,,,,,,,,,,,,switch,letter,lettSwt,f,0.4497,noRew,,,,,,0,38,0,38,0,1,,,,,,,,,,,,,,,,,
298072,2022-11-14_15h41.27.927,vts_reward_expectancy_bt,2022.2.4,Win32,165.0709805,Chrome,1920,1080,,,,,0,585,,,,,,,,,,,,,,,,,U,139,triangle,1,0,,,,,,,,,,,,,,,,switch,number,numSwt,j,0.8877,noRew,,,,,,0,39,0,39,0,1,,,,,,,,,,,,,,,,,
298072,2022-11-14_15h41.27.927,vts_reward_expectancy_bt,2022.2.4,Win32,165.0709805,Chrome,1920,1080,,,,,0,585,,,,,,,,,,,,,,,,,D,139,circle,1,0,,,,,,,,,,,,,,,,repeat,number,numRpt,j,0.4936,noRew,,,,,,0,40,0,40,0,1,,,,,,,,,,,,,,,,,
298072,2022-11-14_15h41.27.927,vts_reward_expectancy_bt,2022.2.4,Win32,165.0709805,Chrome,1920,1080,,,,,0,585,,,,,,,,,,,,,,,,,F,174,triangle,1,0,,,,,,,,,,,,,,,,switch,letter,lettSwt,d,0.5332,noRew,,,,,,0,41,0,41,0,1,,,,,,,,,,,,,,,,,
298072,2022-11-14_15h41.27.927,vts_reward_expectancy_bt,2022.2.4,Win32,165.0709805,Chrome,1920,1080,,,,,0,585,,,,,,,,,,,,,,,,,W,146,triangle,1,0,,,,,,,,,,,,,,,,switch,number,numSwt,j,0.6602,noRew,,,,,,0,42,0,42,0,1,,,,,,,,,,,,,,,,,
298072,2022-11-14_15h41.27.927,vts_reward_expectancy_bt,2022.2.4,Win32,165.0709805,Chrome,1920,1080,,,,,0,585,,,,,,,,,,,,,,,,,U,181,star,1,0,,,,,,,,,,,,,,,,switch,letter,lettSwt,f,0.7026,noRew,,,,,,0,43,0,43,0,1,,,,,,,,,,,,,,,,,
298072,2022-11-14_15h41.27.927,vts_reward_expectancy_bt,2022.2.4,Win32,165.0709805,Chrome,1920,1080,,,,,0,585,,,,,,,,,,,,,,,,,Y,160,hexagon,1,0,,,,,,,,,,,,,,,,repeat,letter,lettRpt,f,0.6848,noRew,,,,,,0,44,0,44,0,1,,,,,,,,,,,,,,,,,
298072,2022-11-14_15h41.27.927,vts_reward_expectancy_bt,2022.2.4,Win32,165.0709805,Chrome,1920,1080,,,,,0,585,,,,,,,,,,,,,,,,,F,125,star,1,0,,,,,,,,,,,,,,,,switch,number,numSwt,j,0.5884,noRew,,,,,,0,45,0,45,0,1,,,,,,,,,,,,,,,,,
298072,2022-11-14_15h41.27.927,vts_reward_expectancy_bt,2022.2.4,Win32,165.0709805,Chrome,1920,1080,,,,,0,585,,,,,,,,,,,,,,,,,S,146,circle,1,0,,,,,,,,,,,,,,,,repeat,number,numRpt,j,0.5533,noRew,,,,,,0,46,0,46,0,1,,,,,,,,,,,,,,,,,
298072,2022-11-14_15h41.27.927,vts_reward_expectancy_bt,2022.2.4,Win32,165.0709805,Chrome,1920,1080,,,,,0,585,,,,,,,,,,,,,,,,,D,181,triangle,1,0,,,,,,,,,,,,,,,,repeat,number,numRpt,k,0.6574,noRew,,,,,,0,47,0,47,0,1,,,,,,,,,,,,,,,,,
298072,2022-11-14_15h41.27.927,vts_reward_expectancy_bt,2022.2.4,Win32,165.0709805,Chrome,1920,1080,,,,,0,585,,,,,,,,,,,,,,,,,U,132,triangle,1,0,,,,,,,,,,,,,,,,switch,letter,lettSwt,f,0.5473,noRew,,,,,,0,48,0,48,0,1,,,,,,,,,,,,,,,,,
298072,2022-11-14_15h41.27.927,vts_reward_expectancy_bt,2022.2.4,Win32,165.0709805,Chrome,1920,1080,,,,,0,585,,,,,,,,,,,,,,,,,H,181,star,1,0,,,,,,,,,,,,,,,,switch,number,numSwt,k,0.4697,noRew,,,,,,0,49,0,49,0,1,,,,,,,,,,,,,,,,,
298072,2022-11-14_15h41.27.927,vts_reward_expectancy_bt,2022.2.4,Win32,165.0709805,Chrome,1920,1080,,,,,0,585,,,,,,,,,,,,,,,,,W,139,triangle,1,0,,,,,,,,,,,,,,,,switch,letter,lettSwt,f,0.5907,noRew,,,,,,0,50,0,50,0,1,,,,,,,,,,,,,,,,,
298072,2022-11-14_15h41.27.927,vts_reward_expectancy_bt,2022.2.4,Win32,165.0709805,Chrome,1920,1080,,,,,0,585,,,,,,,,,,,,,,,,,Y,146,star,1,0,,,,,,,,,,,,,,,,switch,number,numSwt,j,0.6083,noRew,,,,,,0,51,0,51,0,1,,,,,,,,,,,,,,,,,
298072,2022-11-14_15h41.27.927,vts_reward_expectancy_bt,2022.2.4,Win32,165.0709805,Chrome,1920,1080,,,,,0,585,,,,,,,,,,,,,,,,,B,132,circle,1,0,,,,,,,,,,,,,,,,switch,letter,lettSwt,d,0.5454,noRew,,,,,,0,52,0,52,0,1,,,,,,,,,,,,,,,,,
298072,2022-11-14_15h41.27.927,vts_reward_expectancy_bt,2022.2.4,Win32,165.0709805,Chrome,1920,1080,,,,,0,585,,,,,,,,,,,,,,,,,U,146,triangle,1,0,,,,,,,,,,,,,,,,repeat,letter,lettRpt,f,0.5336,noRew,,,,,,0,53,0,53,0,1,,,,,,,,,,,,,,,,,
298072,2022-11-14_15h41.27.927,vts_reward_expectancy_bt,2022.2.4,Win32,165.0709805,Chrome,1920,1080,,,,,0,585,,,,,,,,,,,,,,,,,D,167,triangle,1,0,,,,,,,,,,,,,,,,switch,number,numSwt,k,0.6802,noRew,,,,,,0,54,0,54,0,1,,,,,,,,,,,,,,,,,
298072,2022-11-14_15h41.27.927,vts_reward_expectancy_bt,2022.2.4,Win32,165.0709805,Chrome,1920,1080,,,,,0,585,,,,,,,,,,,,,,,,,Y,139,circle,1,0,,,,,,,,,,,,,,,,switch,letter,lettSwt,f,0.5026,noRew,,,,,,0,55,0,55,0,1,,,,,,,,,,,,,,,,,
298072,2022-11-14_15h41.27.927,vts_reward_expectancy_bt,2022.2.4,Win32,165.0709805,Chrome,1920,1080,,,,,0,585,,,,,,,,,,,,,,,,,B,181,star,1,0,,,,,,,,,,,,,,,,switch,number,numSwt,k,0.6298,noRew,,,,,,0,56,0,56,0,1,,,,,,,,,,,,,,,,,
298072,2022-11-14_15h41.27.927,vts_reward_expectancy_bt,2022.2.4,Win32,165.0709805,Chrome,1920,1080,,,,,0,585,,,,,,,,,,,,,,,,,Y,146,triangle,1,0,,,,,,,,,,,,,,,,repeat,number,numRpt,j,0.9095,noRew,,,,,,0,57,0,57,0,1,,,,,,,,,,,,,,,,,
298072,2022-11-14_15h41.27.927,vts_reward_expectancy_bt,2022.2.4,Win32,165.0709805,Chrome,1920,1080,,,,,0,585,,,,,,,,,,,,,,,,,W,160,circle,1,0,,,,,,,,,,,,,,,,repeat,number,numRpt,k,0.6177,noRew,,,,,,0,58,0,58,0,1,,,,,,,,,,,,,,,,,
298072,2022-11-14_15h41.27.927,vts_reward_expectancy_bt,2022.2.4,Win32,165.0709805,Chrome,1920,1080,,,,,0,585,,,,,,,,,,,,,,,,,F,174,hexagon,1,0,,,,,,,,,,,,,,,,repeat,number,numRpt,k,1.0199,noRew,,,,,,0,59,0,59,0,1,,,,,,,,,,,,,,,,,
298072,2022-11-14_15h41.27.927,vts_reward_expectancy_bt,2022.2.4,Win32,165.0709805,Chrome,1920,1080,,,,,0,585,,,,,,,,,,,,,,,,,B,132,triangle,1,0,,,,,,,,,,,,,,,,repeat,number,numRpt,j,1.1026,noRew,,,,,,0,60,0,60,0,1,,,,,,,,,,,,,,,,,
298072,2022-11-14_15h41.27.927,vts_reward_expectancy_bt,2022.2.4,Win32,165.0709805,Chrome,1920,1080,,,,,0,585,,,,,,,,,,,,,,,,,U,146,circle,0,0,,,,,,,,,,,,,,,,repeat,number,NA,k,1.6682,noRew,,,,,,0,61,0,61,0,1,,,,,,,,,,,,,,,,,
298072,2022-11-14_15h41.27.927,vts_reward_expectancy_bt,2022.2.4,Win32,165.0709805,Chrome,1920,1080,,,,,0,585,,,,,,,,,,,,,,,,,D,181,circle,1,1,,,,,,,,,,,,,,,,switch,letter,lettSwt,d,1.0689,noRew,,,,,,0,62,0,62,0,1,,,,,,,,,,,,,,,,,
298072,2022-11-14_15h41.27.927,vts_reward_expectancy_bt,2022.2.4,Win32,165.0709805,Chrome,1920,1080,,,,,0,585,,,,,,,,,,,,,,,,,H,125,triangle,0,0,,,,,,,,,,,,,,,,repeat,letter,NA,f,0.5828,noRew,,,,,,0,63,0,63,0,1,,,,,,,,,,,,,,,,,
298072,2022-11-14_15h41.27.927,vts_reward_expectancy_bt,2022.2.4,Win32,165.0709805,Chrome,1920,1080,,,,,,,,,,,,,,,,,,,,,,,,,,,,,,,,,,,,,,,,,,,,,,,,,,,,,,,,,,,,,,,,,,,,,,,,,,,,
298072,2022-11-14_15h41.27.927,vts_reward_expectancy_bt,2022.2.4,Win32,165.0709805,Chrome,1920,1080,,,,,0,585,,,,,,,,,,,,,,,,,W,167,hexagon,1,1,,,,,,,,,,,,,,,,repeat,letter,lettRpt,f,0.9087,Hi,,,,,,0,,,,,,space,12.9634,low,0,0,0,0,1,,,,,,,,,
298072,2022-11-14_15h41.27.927,vts_reward_expectancy_bt,2022.2.4,Win32,165.0709805,Chrome,1920,1080,,,,,0,585,,,,,,,,,,,,,,,,,U,146,star,0,0,,,,,,,,,,,,,,,,switch,number,NA,k,0.4821,Hi,,,,,,0,,,,,,,,low,1,0,1,0,1,,,,,,,,,
298072,2022-11-14_15h41.27.927,vts_reward_expectancy_bt,2022.2.4,Win32,165.0709805,Chrome,1920,1080,,,,,0,585,,,,,,,,,,,,,,,,,D,139,circle,1,1,,,,,,,,,,,,,,,,repeat,number,numRpt,j,0.5699,Hi,,,,,,0,,,,,,,,low,2,0,2,0,1,,,,,,,,,
298072,2022-11-14_15h41.27.927,vts_reward_expectancy_bt,2022.2.4,Win32,165.0709805,Chrome,1920,1080,,,,,1,586,,,,,,,,,,,,,,,,,S,125,triangle,1,0,,,,,,,,,,,,,,,,switch,letter,lettSwt,f,0.739,Lo,,,,,,0,,,,,,,,low,3,0,3,0,1,,,,,,,,,
298072,2022-11-14_15h41.27.927,vts_reward_expectancy_bt,2022.2.4,Win32,165.0709805,Chrome,1920,1080,,,,,10,596,,,,,,,,,,,,,,,,,H,181,hexagon,1,0,,,,,,,,,,,,,,,,repeat,letter,lettRpt,d,0.5875,Hi,,,,,,0,,,,,,,,low,4,0,4,0,1,,,,,,,,,
298072,2022-11-14_15h41.27.927,vts_reward_expectancy_bt,2022.2.4,Win32,165.0709805,Chrome,1920,1080,,,,,10,606,,,,,,,,,,,,,,,,,B,174,star,1,0,,,,,,,,,,,,,,,,switch,number,numSwt,k,0.3935,Lo,,,,,,0,,,,,,,,low,5,0,5,0,1,,,,,,,,,
298072,2022-11-14_15h41.27.927,vts_reward_expectancy_bt,2022.2.4,Win32,165.0709805,Chrome,1920,1080,,,,,10,616,,,,,,,,,,,,,,,,,F,132,circle,1,0,,,,,,,,,,,,,,,,switch,letter,lettSwt,d,0.4782,Hi,,,,,,0,,,,,,,,low,6,0,6,0,1,,,,,,,,,
298072,2022-11-14_15h41.27.927,vts_reward_expectancy_bt,2022.2.4,Win32,165.0709805,Chrome,1920,1080,,,,,10,626,,,,,,,,,,,,,,,,,Y,160,triangle,1,0,,,,,,,,,,,,,,,,switch,number,numSwt,k,0.3771,Lo,,,,,,0,,,,,,,,low,7,0,7,0,1,,,,,,,,,
298072,2022-11-14_15h41.27.927,vts_reward_expectancy_bt,2022.2.4,Win32,165.0709805,Chrome,1920,1080,,,,,1,627,,,,,,,,,,,,,,,,,W,167,star,1,0,,,,,,,,,,,,,,,,switch,letter,lettSwt,f,0.4543,Lo,,,,,,0,,,,,,,,low,8,0,8,0,1,,,,,,,,,
298072,2022-11-14_15h41.27.927,vts_reward_expectancy_bt,2022.2.4,Win32,165.0709805,Chrome,1920,1080,,,,,0,627,,,,,,,,,,,,,,,,,U,146,hexagon,0,0,,,,,,,,,,,,,,,,switch,number,NA,k,0.2541,Lo,,,,,,0,,,,,,,,low,9,0,9,0,1,,,,,,,,,
298072,2022-11-14_15h41.27.927,vts_reward_expectancy_bt,2022.2.4,Win32,165.0709805,Chrome,1920,1080,,,,,10,637,,,,,,,,,,,,,,,,,D,139,circle,1,1,,,,,,,,,,,,,,,,repeat,number,numRpt,j,0.3695,Hi,,,,,,0,,,,,,,,low,10,0,10,0,1,,,,,,,,,
298072,2022-11-14_15h41.27.927,vts_reward_expectancy_bt,2022.2.4,Win32,165.0709805,Chrome,1920,1080,,,,,1,638,,,,,,,,,,,,,,,,,S,125,triangle,1,0,,,,,,,,,,,,,,,,switch,letter,lettSwt,f,0.4915,Lo,,,,,,0,,,,,,,,low,11,0,11,0,1,,,,,,,,,
298072,2022-11-14_15h41.27.927,vts_reward_expectancy_bt,2022.2.4,Win32,165.0709805,Chrome,1920,1080,,,,,1,639,,,,,,,,,,,,,,,,,H,181,star,1,0,,,,,,,,,,,,,,,,switch,number,numSwt,k,0.4486,Lo,,,,,,0,,,,,,,,low,12,0,12,0,1,,,,,,,,,
298072,2022-11-14_15h41.27.927,vts_reward_expectancy_bt,2022.2.4,Win32,165.0709805,Chrome,1920,1080,,,,,1,640,,,,,,,,,,,,,,,,,B,174,triangle,1,0,,,,,,,,,,,,,,,,switch,letter,lettSwt,d,0.3756,Lo,,,,,,0,,,,,,,,low,13,0,13,0,1,,,,,,,,,
298072,2022-11-14_15h41.27.927,vts_reward_expectancy_bt,2022.2.4,Win32,165.0709805,Chrome,1920,1080,,,,,1,641,,,,,,,,,,,,,,,,,F,132,circle,1,0,,,,,,,,,,,,,,,,repeat,letter,lettRpt,d,0.527,Hi,,,,,,0,,,,,,,,low,14,0,14,0,1,,,,,,,,,
298072,2022-11-14_15h41.27.927,vts_reward_expectancy_bt,2022.2.4,Win32,165.0709805,Chrome,1920,1080,,,,,10,651,,,,,,,,,,,,,,,,,Y,160,hexagon,1,0,,,,,,,,,,,,,,,,switch,number,numSwt,k,0.2854,Hi,,,,,,0,,,,,,,,low,15,0,15,0,1,,,,,,,,,
298072,2022-11-14_15h41.27.927,vts_reward_expectancy_bt,2022.2.4,Win32,165.0709805,Chrome,1920,1080,,,,,1,652,,,,,,,,,,,,,,,,,H,181,star,1,0,,,,,,,,,,,,,,,,switch,letter,lettSwt,d,0.4601,Lo,,,,,,0,,,,,,,,low,16,0,16,0,1,,,,,,,,,
298072,2022-11-14_15h41.27.927,vts_reward_expectancy_bt,2022.2.4,Win32,165.0709805,Chrome,1920,1080,,,,,1,653,,,,,,,,,,,,,,,,,D,160,circle,1,0,,,,,,,,,,,,,,,,switch,number,numSwt,k,0.397,Hi,,,,,,0,,,,,,,,low,17,0,17,0,1,,,,,,,,,
298072,2022-11-14_15h41.27.927,vts_reward_expectancy_bt,2022.2.4,Win32,165.0709805,Chrome,1920,1080,,,,,10,663,,,,,,,,,,,,,,,,,Y,139,hexagon,1,0,,,,,,,,,,,,,,,,switch,letter,lettSwt,f,0.3821,Hi,,,,,,0,,,,,,,,low,18,0,18,0,1,,,,,,,,,
298072,2022-11-14_15h41.27.927,vts_reward_expectancy_bt,2022.2.4,Win32,165.0709805,Chrome,1920,1080,,,,,1,664,,,,,,,,,,,,,,,,,W,125,triangle,1,0,,,,,,,,,,,,,,,,repeat,letter,lettRpt,f,0.402,Lo,,,,,,0,,,,,,,,low,19,0,19,0,1,,,,,,,,,
298072,2022-11-14_15h41.27.927,vts_reward_expectancy_bt,2022.2.4,Win32,165.0709805,Chrome,1920,1080,,,,,10,674,,,,,,,,,,,,,,,,,U,146,circle,1,0,,,,,,,,,,,,,,,,switch,number,numSwt,j,0.3634,Hi,,,,,,0,,,,,,,,low,20,0,20,0,1,,,,,,,,,
298072,2022-11-14_15h41.27.927,vts_reward_expectancy_bt,2022.2.4,Win32,165.0709805,Chrome,1920,1080,,,,,0,674,,,,,,,,,,,,,,,,,F,132,hexagon,0,0,,,,,,,,,,,,,,,,switch,letter,NA,f,0.345,Hi,,,,,,0,,,,,,,,low,21,0,21,0,1,,,,,,,,,
298072,2022-11-14_15h41.27.927,vts_reward_expectancy_bt,2022.2.4,Win32,165.0709805,Chrome,1920,1080,,,,,1,675,,,,,,,,,,,,,,,,,B,174,triangle,1,1,,,,,,,,,,,,,,,,switch,number,numSwt,k,0.3935,Lo,,,,,,0,,,,,,,,low,22,0,22,0,1,,,,,,,,,
298072,2022-11-14_15h41.27.927,vts_reward_expectancy_bt,2022.2.4,Win32,165.0709805,Chrome,1920,1080,,,,,1,676,,,,,,,,,,,,,,,,,S,167,star,1,0,,,,,,,,,,,,,,,,switch,letter,lettSwt,f,0.7754,Lo,,,,,,0,,,,,,,,low,23,0,23,0,1,,,,,,,,,
298072,2022-11-14_15h41.27.927,vts_reward_expectancy_bt,2022.2.4,Win32,165.0709805,Chrome,1920,1080,,,,,1,677,,,,,,,,,,,,,,,,,D,125,hexagon,1,0,,,,,,,,,,,,,,,,switch,number,numSwt,j,0.4609,Hi,,,,,,0,,,,,,,,low,24,0,24,0,1,,,,,,,,,
298072,2022-11-14_15h41.27.927,vts_reward_expectancy_bt,2022.2.4,Win32,165.0709805,Chrome,1920,1080,,,,,10,687,,,,,,,,,,,,,,,,,B,139,circle,1,0,,,,,,,,,,,,,,,,switch,letter,lettSwt,d,0.382,Hi,,,,,,0,,,,,,,,low,25,0,25,0,1,,,,,,,,,
298072,2022-11-14_15h41.27.927,vts_reward_expectancy_bt,2022.2.4,Win32,165.0709805,Chrome,1920,1080,,,,,1,688,,,,,,,,,,,,,,,,,S,174,triangle,1,0,,,,,,,,,,,,,,,,switch,number,numSwt,k,0.4418,Lo,,,,,,0,,,,,,,,low,26,0,26,0,1,,,,,,,,,
298072,2022-11-14_15h41.27.927,vts_reward_expectancy_bt,2022.2.4,Win32,165.0709805,Chrome,1920,1080,,,,,0,688,,,,,,,,,,,,,,,,,F,181,star,0,0,,,,,,,,,,,,,,,,repeat,number,NA,j,0.3528,Lo,,,,,,0,,,,,,,,low,27,0,27,0,1,,,,,,,,,
298072,2022-11-14_15h41.27.927,vts_reward_expectancy_bt,2022.2.4,Win32,165.0709805,Chrome,1920,1080,,,,,1,689,,,,,,,,,,,,,,,,,W,132,hexagon,1,1,,,,,,,,,,,,,,,,repeat,number,numRpt,j,0.4866,Hi,,,,,,0,,,,,,,,low,28,0,28,0,1,,,,,,,,,
298072,2022-11-14_15h41.27.927,vts_reward_expectancy_bt,2022.2.4,Win32,165.0709805,Chrome,1920,1080,,,,,1,690,,,,,,,,,,,,,,,,,H,160,triangle,1,0,,,,,,,,,,,,,,,,switch,letter,lettSwt,d,0.4541,Lo,,,,,,0,,,,,,,,low,29,0,29,0,1,,,,,,,,,
298072,2022-11-14_15h41.27.927,vts_reward_expectancy_bt,2022.2.4,Win32,165.0709805,Chrome,1920,1080,,,,,1,691,,,,,,,,,,,,,,,,,U,167,star,1,0,,,,,,,,,,,,,,,,switch,number,numSwt,k,0.4003,Lo,,,,,,0,,,,,,,,low,30,0,30,0,1,,,,,,,,,
298072,2022-11-14_15h41.27.927,vts_reward_expectancy_bt,2022.2.4,Win32,165.0709805,Chrome,1920,1080,,,,,10,701,,,,,,,,,,,,,,,,,Y,146,circle,1,0,,,,,,,,,,,,,,,,switch,letter,lettSwt,f,0.4486,Hi,,,,,,0,,,,,,,,low,31,0,31,0,1,,,,,,,,,
298072,2022-11-14_15h41.27.927,vts_reward_expectancy_bt,2022.2.4,Win32,165.0709805,Chrome,1920,1080,,,,,0,701,,,,,,,,,,,,,,,,,H,132,hexagon,1,0,,,,,,,,,,,,,,,,repeat,letter,lettRpt,d,0.7833,Hi,,,,,,1,,,,,,space,1.4598,low,0,0,0,0,1,,,,,,,,,
298072,2022-11-14_15h41.27.927,vts_reward_expectancy_bt,2022.2.4,Win32,165.0709805,Chrome,1920,1080,,,,,1,702,,,,,,,,,,,,,,,,,B,146,star,1,0,,,,,,,,,,,,,,,,switch,number,numSwt,j,0.4002,Lo,,,,,,1,,,,,,,,low,1,0,1,0,1,,,,,,,,,
298072,2022-11-14_15h41.27.927,vts_reward_expectancy_bt,2022.2.4,Win32,165.0709805,Chrome,1920,1080,,,,,10,712,,,,,,,,,,,,,,,,,S,167,circle,1,0,,,,,,,,,,,,,,,,repeat,number,numRpt,k,0.3154,Hi,,,,,,1,,,,,,,,low,2,0,2,0,1,,,,,,,,,
298072,2022-11-14_15h41.27.927,vts_reward_expectancy_bt,2022.2.4,Win32,165.0709805,Chrome,1920,1080,,,,,10,722,,,,,,,,,,,,,,,,,W,125,triangle,1,0,,,,,,,,,,,,,,,,switch,letter,lettSwt,f,0.4483,Lo,,,,,,1,,,,,,,,low,3,0,3,0,1,,,,,,,,,
298072,2022-11-14_15h41.27.927,vts_reward_expectancy_bt,2022.2.4,Win32,165.0709805,Chrome,1920,1080,,,,,0,722,,,,,,,,,,,,,,,,,U,174,hexagon,0,0,,,,,,,,,,,,,,,,repeat,letter,NA,d,0.3304,Lo,,,,,,1,,,,,,,,low,4,0,4,0,1,,,,,,,,,
298072,2022-11-14_15h41.27.927,vts_reward_expectancy_bt,2022.2.4,Win32,165.0709805,Chrome,1920,1080,,,,,10,732,,,,,,,,,,,,,,,,,D,160,star,1,1,,,,,,,,,,,,,,,,switch,number,numSwt,k,0.3659,Lo,,,,,,1,,,,,,,,low,5,0,5,0,1,,,,,,,,,
298072,2022-11-14_15h41.27.927,vts_reward_expectancy_bt,2022.2.4,Win32,165.0709805,Chrome,1920,1080,,,,,10,742,,,,,,,,,,,,,,,,,F,139,circle,1,0,,,,,,,,,,,,,,,,repeat,number,numRpt,j,0.3572,Hi,,,,,,1,,,,,,,,low,6,0,6,0,1,,,,,,,,,
298072,2022-11-14_15h41.27.927,vts_reward_expectancy_bt,2022.2.4,Win32,165.0709805,Chrome,1920,1080,,,,,1,743,,,,,,,,,,,,,,,,,Y,181,triangle,1,0,,,,,,,,,,,,,,,,switch,letter,lettSwt,f,0.3214,Lo,,,,,,1,,,,,,,,low,7,0,7,0,1,,,,,,,,,
298072,2022-11-14_15h41.27.927,vts_reward_expectancy_bt,2022.2.4,Win32,165.0709805,Chrome,1920,1080,,,,,10,753,,,,,,,,,,,,,,,,,H,132,star,1,0,,,,,,,,,,,,,,,,repeat,letter,lettRpt,d,0.3084,Lo,,,,,,1,,,,,,,,low,8,0,8,0,1,,,,,,,,,
298072,2022-11-14_15h41.27.927,vts_reward_expectancy_bt,2022.2.4,Win32,165.0709805,Chrome,1920,1080,,,,,0,753,,,,,,,,,,,,,,,,,B,146,hexagon,1,0,,,,,,,,,,,,,,,,switch,number,numSwt,j,0.5173,Hi,,,,,,1,,,,,,,,low,9,0,9,0,1,,,,,,,,,
298072,2022-11-14_15h41.27.927,vts_reward_expectancy_bt,2022.2.4,Win32,165.0709805,Chrome,1920,1080,,,,,1,754,,,,,,,,,,,,,,,,,S,167,triangle,1,0,,,,,,,,,,,,,,,,repeat,number,numRpt,k,0.5219,Lo,,,,,,1,,,,,,,,low,10,0,10,0,1,,,,,,,,,
298072,2022-11-14_15h41.27.927,vts_reward_expectancy_bt,2022.2.4,Win32,165.0709805,Chrome,1920,1080,,,,,10,764,,,,,,,,,,,,,,,,,W,125,circle,1,0,,,,,,,,,,,,,,,,switch,letter,lettSwt,f,0.4426,Hi,,,,,,1,,,,,,,,low,11,0,11,0,1,,,,,,,,,
298072,2022-11-14_15h41.27.927,vts_reward_expectancy_bt,2022.2.4,Win32,165.0709805,Chrome,1920,1080,,,,,1,765,,,,,,,,,,,,,,,,,U,174,star,1,0,,,,,,,,,,,,,,,,switch,number,numSwt,k,0.4074,Lo,,,,,,1,,,,,,,,low,12,0,12,0,1,,,,,,,,,
298072,2022-11-14_15h41.27.927,vts_reward_expectancy_bt,2022.2.4,Win32,165.0709805,Chrome,1920,1080,,,,,0,765,,,,,,,,,,,,,,,,,D,160,hexagon,1,0,,,,,,,,,,,,,,,,repeat,number,numRpt,k,0.4631,Hi,,,,,,1,,,,,,,,low,13,0,13,0,1,,,,,,,,,
298072,2022-11-14_15h41.27.927,vts_reward_expectancy_bt,2022.2.4,Win32,165.0709805,Chrome,1920,1080,,,,,1,766,,,,,,,,,,,,,,,,,F,139,triangle,1,0,,,,,,,,,,,,,,,,switch,letter,lettSwt,d,0.4784,Lo,,,,,,1,,,,,,,,low,14,0,14,0,1,,,,,,,,,
298072,2022-11-14_15h41.27.927,vts_reward_expectancy_bt,2022.2.4,Win32,165.0709805,Chrome,1920,1080,,,,,0,766,,,,,,,,,,,,,,,,,Y,181,circle,1,0,,,,,,,,,,,,,,,,switch,number,numSwt,k,0.4181,Hi,,,,,,1,,,,,,,,low,15,0,15,0,1,,,,,,,,,
298072,2022-11-14_15h41.27.927,vts_reward_expectancy_bt,2022.2.4,Win32,165.0709805,Chrome,1920,1080,,,,,1,767,,,,,,,,,,,,,,,,,U,181,star,1,0,,,,,,,,,,,,,,,,repeat,number,numRpt,k,0.366,Lo,,,,,,1,,,,,,,,low,16,0,16,0,1,,,,,,,,,
298072,2022-11-14_15h41.27.927,vts_reward_expectancy_bt,2022.2.4,Win32,165.0709805,Chrome,1920,1080,,,,,0,767,,,,,,,,,,,,,,,,,S,167,hexagon,0,0,,,,,,,,,,,,,,,,switch,letter,NA,d,0.5242,Lo,,,,,,1,,,,,,,,low,17,0,17,0,1,,,,,,,,,
298072,2022-11-14_15h41.27.927,vts_reward_expectancy_bt,2022.2.4,Win32,165.0709805,Chrome,1920,1080,,,,,0,767,,,,,,,,,,,,,,,,,D,174,circle,0,1,,,,,,,,,,,,,,,,repeat,letter,NA,f,0.3598,Lo,,,,,,1,,,,,,,,low,18,0,18,0,1,,,,,,,,,
298072,2022-11-14_15h41.27.927,vts_reward_expectancy_bt,2022.2.4,Win32,165.0709805,Chrome,1920,1080,,,,,1,768,,,,,,,,,,,,,,,,,Y,160,triangle,1,1,,,,,,,,,,,,,,,,switch,number,numSwt,k,0.363,Lo,,,,,,1,,,,,,,,low,19,0,19,0,1,,,,,,,,,
298072,2022-11-14_15h41.27.927,vts_reward_expectancy_bt,2022.2.4,Win32,165.0709805,Chrome,1920,1080,,,,,0,768,,,,,,,,,,,,,,,,,H,132,hexagon,1,0,,,,,,,,,,,,,,,,repeat,number,numRpt,j,0.4846,Hi,,,,,,1,,,,,,,,low,20,0,20,0,1,,,,,,,,,
298072,2022-11-14_15h41.27.927,vts_reward_expectancy_bt,2022.2.4,Win32,165.0709805,Chrome,1920,1080,,,,,1,769,,,,,,,,,,,,,,,,,B,139,star,1,0,,,,,,,,,,,,,,,,switch,letter,lettSwt,d,0.5109,Lo,,,,,,1,,,,,,,,low,21,0,21,0,1,,,,,,,,,
298072,2022-11-14_15h41.27.927,vts_reward_expectancy_bt,2022.2.4,Win32,165.0709805,Chrome,1920,1080,,,,,0,769,,,,,,,,,,,,,,,,,W,125,circle,1,0,,,,,,,,,,,,,,,,switch,number,numSwt,j,0.5474,Hi,,,,,,1,,,,,,,,low,22,0,22,0,1,,,,,,,,,
298072,2022-11-14_15h41.27.927,vts_reward_expectancy_bt,2022.2.4,Win32,165.0709805,Chrome,1920,1080,,,,,1,770,,,,,,,,,,,,,,,,,F,146,triangle,1,0,,,,,,,,,,,,,,,,switch,letter,lettSwt,d,0.4905,Lo,,,,,,1,,,,,,,,low,23,0,23,0,1,,,,,,,,,
298072,2022-11-14_15h41.27.927,vts_reward_expectancy_bt,2022.2.4,Win32,165.0709805,Chrome,1920,1080,,,,,1,771,,,,,,,,,,,,,,,,,W,132,triangle,1,0,,,,,,,,,,,,,,,,switch,number,numSwt,j,0.5728,Lo,,,,,,1,,,,,,,,low,24,0,24,0,1,,,,,,,,,
298072,2022-11-14_15h41.27.927,vts_reward_expectancy_bt,2022.2.4,Win32,165.0709805,Chrome,1920,1080,,,,,1,772,,,,,,,,,,,,,,,,,S,125,circle,1,0,,,,,,,,,,,,,,,,repeat,number,numRpt,j,0.3939,Hi,,,,,,1,,,,,,,,low,25,0,25,0,1,,,,,,,,,
298072,2022-11-14_15h41.27.927,vts_reward_expectancy_bt,2022.2.4,Win32,165.0709805,Chrome,1920,1080,,,,,10,782,,,,,,,,,,,,,,,,,Y,146,hexagon,1,0,,,,,,,,,,,,,,,,repeat,number,numRpt,j,0.4242,Hi,,,,,,1,,,,,,,,low,26,0,26,0,1,,,,,,,,,
298072,2022-11-14_15h41.27.927,vts_reward_expectancy_bt,2022.2.4,Win32,165.0709805,Chrome,1920,1080,,,,,10,792,,,,,,,,,,,,,,,,,F,174,star,1,0,,,,,,,,,,,,,,,,switch,letter,lettSwt,d,0.3268,Lo,,,,,,1,,,,,,,,low,27,0,27,0,1,,,,,,,,,
298072,2022-11-14_15h41.27.927,vts_reward_expectancy_bt,2022.2.4,Win32,165.0709805,Chrome,1920,1080,,,,,1,793,,,,,,,,,,,,,,,,,U,139,circle,1,0,,,,,,,,,,,,,,,,switch,number,numSwt,j,0.3407,Hi,,,,,,1,,,,,,,,low,28,0,28,0,1,,,,,,,,,
298072,2022-11-14_15h41.27.927,vts_reward_expectancy_bt,2022.2.4,Win32,165.0709805,Chrome,1920,1080,,,,,1,794,,,,,,,,,,,,,,,,,B,160,star,1,0,,,,,,,,,,,,,,,,switch,letter,lettSwt,d,0.3272,Lo,,,,,,1,,,,,,,,low,29,0,29,0,1,,,,,,,,,
298072,2022-11-14_15h41.27.927,vts_reward_expectancy_bt,2022.2.4,Win32,165.0709805,Chrome,1920,1080,,,,,0,794,,,,,,,,,,,,,,,,,D,181,hexagon,1,0,,,,,,,,,,,,,,,,switch,number,numSwt,k,0.6966,Hi,,,,,,1,,,,,,,,low,30,0,30,0,1,,,,,,,,,
298072,2022-11-14_15h41.27.927,vts_reward_expectancy_bt,2022.2.4,Win32,165.0709805,Chrome,1920,1080,,,,,1,795,,,,,,,,,,,,,,,,,H,167,triangle,1,0,,,,,,,,,,,,,,,,repeat,number,numRpt,k,0.3903,Lo,,,,,,1,,,,,,,,low,31,0,31,0,1,,,,,,,,,
298072,2022-11-14_15h41.27.927,vts_reward_expectancy_bt,2022.2.4,Win32,165.0709805,Chrome,1920,1080,,,,,0,795,,,,,,,,,,,,,,,,,B,160,hexagon,1,0,,,,,,,,,,,,,,,,repeat,number,numRpt,k,0.4634,Hi,,,,,,2,,,,,,space,1.0984,low,0,0,0,0,1,,,,,,,,,
298072,2022-11-14_15h41.27.927,vts_reward_expectancy_bt,2022.2.4,Win32,165.0709805,Chrome,1920,1080,,,,,1,796,,,,,,,,,,,,,,,,,W,167,star,1,0,,,,,,,,,,,,,,,,switch,letter,lettSwt,f,0.4147,Lo,,,,,,2,,,,,,,,low,1,0,1,0,1,,,,,,,,,
298072,2022-11-14_15h41.27.927,vts_reward_expectancy_bt,2022.2.4,Win32,165.0709805,Chrome,1920,1080,,,,,10,806,,,,,,,,,,,,,,,,,S,146,triangle,1,0,,,,,,,,,,,,,,,,repeat,letter,lettRpt,f,0.6192,Lo,,,,,,2,,,,,,,,low,2,0,2,0,1,,,,,,,,,
298072,2022-11-14_15h41.27.927,vts_reward_expectancy_bt,2022.2.4,Win32,165.0709805,Chrome,1920,1080,,,,,10,816,,,,,,,,,,,,,,,,,D,139,circle,1,0,,,,,,,,,,,,,,,,switch,number,numSwt,j,0.3536,Hi,,,,,,2,,,,,,,,low,3,0,3,0,1,,,,,,,,,
298072,2022-11-14_15h41.27.927,vts_reward_expectancy_bt,2022.2.4,Win32,165.0709805,Chrome,1920,1080,,,,,0,816,,,,,,,,,,,,,,,,,U,125,hexagon,1,0,,,,,,,,,,,,,,,,repeat,number,numRpt,j,0.3943,Hi,,,,,,2,,,,,,,,low,4,0,4,0,1,,,,,,,,,
298072,2022-11-14_15h41.27.927,vts_reward_expectancy_bt,2022.2.4,Win32,165.0709805,Chrome,1920,1080,,,,,10,826,,,,,,,,,,,,,,,,,F,132,star,1,0,,,,,,,,,,,,,,,,switch,letter,lettSwt,d,0.4514,Lo,,,,,,2,,,,,,,,low,5,0,5,0,1,,,,,,,,,
298072,2022-11-14_15h41.27.927,vts_reward_expectancy_bt,2022.2.4,Win32,165.0709805,Chrome,1920,1080,,,,,1,827,,,,,,,,,,,,,,,,,Y,174,triangle,1,0,,,,,,,,,,,,,,,,switch,number,numSwt,k,0.3935,Lo,,,,,,2,,,,,,,,low,6,0,6,0,1,,,,,,,,,
298072,2022-11-14_15h41.27.927,vts_reward_expectancy_bt,2022.2.4,Win32,165.0709805,Chrome,1920,1080,,,,,10,837,,,,,,,,,,,,,,,,,H,181,circle,1,0,,,,,,,,,,,,,,,,switch,letter,lettSwt,d,0.347,Hi,,,,,,2,,,,,,,,low,7,0,7,0,1,,,,,,,,,
298072,2022-11-14_15h41.27.927,vts_reward_expectancy_bt,2022.2.4,Win32,165.0709805,Chrome,1920,1080,,,,,10,847,,,,,,,,,,,,,,,,,B,160,hexagon,1,0,,,,,,,,,,,,,,,,switch,number,numSwt,k,0.3393,Hi,,,,,,2,,,,,,,,low,8,0,8,0,1,,,,,,,,,
298072,2022-11-14_15h41.27.927,vts_reward_expectancy_bt,2022.2.4,Win32,165.0709805,Chrome,1920,1080,,,,,10,857,,,,,,,,,,,,,,,,,W,167,star,1,0,,,,,,,,,,,,,,,,switch,letter,lettSwt,f,0.4663,Lo,,,,,,2,,,,,,,,low,9,0,9,0,1,,,,,,,,,
298072,2022-11-14_15h41.27.927,vts_reward_expectancy_bt,2022.2.4,Win32,165.0709805,Chrome,1920,1080,,,,,10,867,,,,,,,,,,,,,,,,,S,146,triangle,1,0,,,,,,,,,,,,,,,,switch,number,numSwt,j,0.3269,Lo,,,,,,2,,,,,,,,low,10,0,10,0,1,,,,,,,,,
298072,2022-11-14_15h41.27.927,vts_reward_expectancy_bt,2022.2.4,Win32,165.0709805,Chrome,1920,1080,,,,,0,867,,,,,,,,,,,,,,,,,D,139,circle,0,0,,,,,,,,,,,,,,,,switch,letter,NA,f,0.3841,Lo,,,,,,2,,,,,,,,low,11,0,11,0,1,,,,,,,,,
298072,2022-11-14_15h41.27.927,vts_reward_expectancy_bt,2022.2.4,Win32,165.0709805,Chrome,1920,1080,,,,,1,868,,,,,,,,,,,,,,,,,U,125,hexagon,1,1,,,,,,,,,,,,,,,,switch,number,numSwt,j,0.3271,Hi,,,,,,2,,,,,,,,low,12,0,12,0,1,,,,,,,,,
298072,2022-11-14_15h41.27.927,vts_reward_expectancy_bt,2022.2.4,Win32,165.0709805,Chrome,1920,1080,,,,,10,878,,,,,,,,,,,,,,,,,F,132,star,1,0,,,,,,,,,,,,,,,,repeat,number,numRpt,j,0.3208,Lo,,,,,,2,,,,,,,,low,13,0,13,0,1,,,,,,,,,
298072,2022-11-14_15h41.27.927,vts_reward_expectancy_bt,2022.2.4,Win32,165.0709805,Chrome,1920,1080,,,,,10,888,,,,,,,,,,,,,,,,,Y,174,triangle,1,0,,,,,,,,,,,,,,,,switch,letter,lettSwt,f,0.3894,Lo,,,,,,2,,,,,,,,low,14,0,14,0,1,,,,,,,,,
298072,2022-11-14_15h41.27.927,vts_reward_expectancy_bt,2022.2.4,Win32,165.0709805,Chrome,1920,1080,,,,,1,889,,,,,,,,,,,,,,,,,H,181,circle,1,0,,,,,,,,,,,,,,,,switch,number,numSwt,k,0.282,Hi,,,,,,2,,,,,,,,low,15,0,15,0,1,,,,,,,,,
298072,2022-11-14_15h41.27.927,vts_reward_expectancy_bt,2022.2.4,Win32,165.0709805,Chrome,1920,1080,,,,,0,889,,,,,,,,,,,,,,,,,H,167,circle,1,0,,,,,,,,,,,,,,,,repeat,number,numRpt,k,0.3841,Hi,,,,,,2,,,,,,,,low,16,0,16,0,1,,,,,,,,,
298072,2022-11-14_15h41.27.927,vts_reward_expectancy_bt,2022.2.4,Win32,165.0709805,Chrome,1920,1080,,,,,10,899,,,,,,,,,,,,,,,,,D,160,triangle,1,0,,,,,,,,,,,,,,,,switch,letter,lettSwt,d,0.3592,Lo,,,,,,2,,,,,,,,low,17,0,17,0,1,,,,,,,,,
298072,2022-11-14_15h41.27.927,vts_reward_expectancy_bt,2022.2.4,Win32,165.0709805,Chrome,1920,1080,,,,,1,900,,,,,,,,,,,,,,,,,U,181,star,1,0,,,,,,,,,,,,,,,,switch,number,numSwt,k,0.3942,Lo,,,,,,2,,,,,,,,low,18,0,18,0,1,,,,,,,,,
298072,2022-11-14_15h41.27.927,vts_reward_expectancy_bt,2022.2.4,Win32,165.0709805,Chrome,1920,1080,,,,,0,900,,,,,,,,,,,,,,,,,S,174,hexagon,1,0,,,,,,,,,,,,,,,,repeat,number,numRpt,k,0.3831,Hi,,,,,,2,,,,,,,,low,19,0,19,0,1,,,,,,,,,
298072,2022-11-14_15h41.27.927,vts_reward_expectancy_bt,2022.2.4,Win32,165.0709805,Chrome,1920,1080,,,,,1,901,,,,,,,,,,,,,,,,,B,132,triangle,1,0,,,,,,,,,,,,,,,,repeat,number,numRpt,j,0.3418,Lo,,,,,,2,,,,,,,,low,20,0,20,0,1,,,,,,,,,
298072,2022-11-14_15h41.27.927,vts_reward_expectancy_bt,2022.2.4,Win32,165.0709805,Chrome,1920,1080,,,,,1,902,,,,,,,,,,,,,,,,,W,139,circle,1,0,,,,,,,,,,,,,,,,switch,letter,lettSwt,f,0.3266,Hi,,,,,,2,,,,,,,,low,21,0,21,0,1,,,,,,,,,
298072,2022-11-14_15h41.27.927,vts_reward_expectancy_bt,2022.2.4,Win32,165.0709805,Chrome,1920,1080,,,,,1,903,,,,,,,,,,,,,,,,,Y,146,star,1,0,,,,,,,,,,,,,,,,repeat,letter,lettRpt,f,0.4316,Lo,,,,,,2,,,,,,,,low,22,0,22,0,1,,,,,,,,,
298072,2022-11-14_15h41.27.927,vts_reward_expectancy_bt,2022.2.4,Win32,165.0709805,Chrome,1920,1080,,,,,10,913,,,,,,,,,,,,,,,,,F,125,hexagon,1,0,,,,,,,,,,,,,,,,switch,number,numSwt,j,0.305,Hi,,,,,,2,,,,,,,,low,23,0,23,0,1,,,,,,,,,
298072,2022-11-14_15h41.27.927,vts_reward_expectancy_bt,2022.2.4,Win32,165.0709805,Chrome,1920,1080,,,,,0,913,,,,,,,,,,,,,,,,,F,174,circle,0,0,,,,,,,,,,,,,,,,switch,letter,NA,f,0.281,Hi,,,,,,2,,,,,,,,low,24,0,24,0,1,,,,,,,,,
298072,2022-11-14_15h41.27.927,vts_reward_expectancy_bt,2022.2.4,Win32,165.0709805,Chrome,1920,1080,,,,,10,923,,,,,,,,,,,,,,,,,U,146,star,1,1,,,,,,,,,,,,,,,,repeat,letter,lettRpt,f,0.4,Lo,,,,,,2,,,,,,,,low,25,0,25,0,1,,,,,,,,,
298072,2022-11-14_15h41.27.927,vts_reward_expectancy_bt,2022.2.4,Win32,165.0709805,Chrome,1920,1080,,,,,10,933,,,,,,,,,,,,,,,,,B,181,triangle,1,0,,,,,,,,,,,,,,,,switch,number,numSwt,k,0.5328,Lo,,,,,,2,,,,,,,,low,26,0,26,0,1,,,,,,,,,
298072,2022-11-14_15h41.27.927,vts_reward_expectancy_bt,2022.2.4,Win32,165.0709805,Chrome,1920,1080,,,,,1,934,,,,,,,,,,,,,,,,,D,160,hexagon,1,0,,,,,,,,,,,,,,,,repeat,number,numRpt,k,0.3753,Hi,,,,,,2,,,,,,,,low,27,0,27,0,1,,,,,,,,,
298072,2022-11-14_15h41.27.927,vts_reward_expectancy_bt,2022.2.4,Win32,165.0709805,Chrome,1920,1080,,,,,1,935,,,,,,,,,,,,,,,,,H,139,triangle,1,0,,,,,,,,,,,,,,,,switch,letter,lettSwt,d,0.5642,Lo,,,,,,2,,,,,,,,low,28,0,28,0,1,,,,,,,,,
298072,2022-11-14_15h41.27.927,vts_reward_expectancy_bt,2022.2.4,Win32,165.0709805,Chrome,1920,1080,,,,,0,935,,,,,,,,,,,,,,,,,S,125,hexagon,1,0,,,,,,,,,,,,,,,,switch,number,numSwt,j,0.4122,Hi,,,,,,2,,,,,,,,low,29,0,29,0,1,,,,,,,,,
298072,2022-11-14_15h41.27.927,vts_reward_expectancy_bt,2022.2.4,Win32,165.0709805,Chrome,1920,1080,,,,,1,936,,,,,,,,,,,,,,,,,W,132,star,1,0,,,,,,,,,,,,,,,,repeat,number,numRpt,j,0.3332,Lo,,,,,,2,,,,,,,,low,30,0,30,0,1,,,,,,,,,
298072,2022-11-14_15h41.27.927,vts_reward_expectancy_bt,2022.2.4,Win32,165.0709805,Chrome,1920,1080,,,,,0,936,,,,,,,,,,,,,,,,,Y,167,circle,1,0,,,,,,,,,,,,,,,,switch,letter,lettSwt,f,0.4486,Hi,,,,,,2,,,,,,,,low,31,0,31,0,1,,,,,,,,,
298072,2022-11-14_15h41.27.927,vts_reward_expectancy_bt,2022.2.4,Win32,165.0709805,Chrome,1920,1080,,,,,1,937,,,,,,,,,,,,,,,,,F,132,hexagon,1,0,,,,,,,,,,,,,,,,switch,number,numSwt,j,0.3033,Hi,,,,,,3,,,,,,space,1.4327,low,0,0,0,0,1,,,,,,,,,
298072,2022-11-14_15h41.27.927,vts_reward_expectancy_bt,2022.2.4,Win32,165.0709805,Chrome,1920,1080,,,,,1,938,,,,,,,,,,,,,,,,,S,181,triangle,1,0,,,,,,,,,,,,,,,,switch,letter,lettSwt,f,0.4296,Lo,,,,,,3,,,,,,,,low,1,0,1,0,1,,,,,,,,,
298072,2022-11-14_15h41.27.927,vts_reward_expectancy_bt,2022.2.4,Win32,165.0709805,Chrome,1920,1080,,,,,1,939,,,,,,,,,,,,,,,,,U,167,star,1,0,,,,,,,,,,,,,,,,repeat,letter,lettRpt,f,0.2913,Lo,,,,,,3,,,,,,,,low,2,0,2,0,1,,,,,,,,,
298072,2022-11-14_15h41.27.927,vts_reward_expectancy_bt,2022.2.4,Win32,165.0709805,Chrome,1920,1080,,,,,0,939,,,,,,,,,,,,,,,,,W,139,circle,1,0,,,,,,,,,,,,,,,,switch,number,numSwt,j,0.3996,Hi,,,,,,3,,,,,,,,low,3,0,3,0,1,,,,,,,,,
298072,2022-11-14_15h41.27.927,vts_reward_expectancy_bt,2022.2.4,Win32,165.0709805,Chrome,1920,1080,,,,,0,939,,,,,,,,,,,,,,,,,D,146,hexagon,0,0,,,,,,,,,,,,,,,,switch,letter,NA,f,0.4439,Hi,,,,,,3,,,,,,,,low,4,0,4,0,1,,,,,,,,,
298072,2022-11-14_15h41.27.927,vts_reward_expectancy_bt,2022.2.4,Win32,165.0709805,Chrome,1920,1080,,,,,0,939,,,,,,,,,,,,,,,,,B,174,triangle,0,1,,,,,,,,,,,,,,,,switch,number,NA,j,0.3243,Hi,,,,,,3,,,,,,,,low,5,0,5,0,1,,,,,,,,,
298072,2022-11-14_15h41.27.927,vts_reward_expectancy_bt,2022.2.4,Win32,165.0709805,Chrome,1920,1080,,,,,10,949,,,,,,,,,,,,,,,,,Y,125,star,1,1,,,,,,,,,,,,,,,,repeat,number,numRpt,j,0.3238,Lo,,,,,,3,,,,,,,,low,6,0,6,0,1,,,,,,,,,
298072,2022-11-14_15h41.27.927,vts_reward_expectancy_bt,2022.2.4,Win32,165.0709805,Chrome,1920,1080,,,,,0,949,,,,,,,,,,,,,,,,,H,160,circle,0,0,,,,,,,,,,,,,,,,switch,letter,NA,f,0.4321,Lo,,,,,,3,,,,,,,,low,7,0,7,0,1,,,,,,,,,
298072,2022-11-14_15h41.27.927,vts_reward_expectancy_bt,2022.2.4,Win32,165.0709805,Chrome,1920,1080,,,,,0,949,,,,,,,,,,,,,,,,,F,132,circle,1,1,,,,,,,,,,,,,,,,repeat,letter,lettRpt,d,0.5651,Hi,,,,,,3,,,,,,,,low,8,0,8,0,1,,,,,,,,,
298072,2022-11-14_15h41.27.927,vts_reward_expectancy_bt,2022.2.4,Win32,165.0709805,Chrome,1920,1080,,,,,0,949,,,,,,,,,,,,,,,,,S,181,star,0,0,,,,,,,,,,,,,,,,switch,number,NA,j,0.3346,Hi,,,,,,3,,,,,,,,low,9,0,9,0,1,,,,,,,,,
298072,2022-11-14_15h41.27.927,vts_reward_expectancy_bt,2022.2.4,Win32,165.0709805,Chrome,1920,1080,,,,,1,950,,,,,,,,,,,,,,,,,U,167,triangle,1,1,,,,,,,,,,,,,,,,repeat,number,numRpt,k,0.3388,Lo,,,,,,3,,,,,,,,low,10,0,10,0,1,,,,,,,,,
298072,2022-11-14_15h41.27.927,vts_reward_expectancy_bt,2022.2.4,Win32,165.0709805,Chrome,1920,1080,,,,,0,950,,,,,,,,,,,,,,,,,W,139,hexagon,0,0,,,,,,,,,,,,,,,,repeat,number,NA,k,0.4118,Lo,,,,,,3,,,,,,,,low,11,0,11,0,1,,,,,,,,,
298072,2022-11-14_15h41.27.927,vts_reward_expectancy_bt,2022.2.4,Win32,165.0709805,Chrome,1920,1080,,,,,0,950,,,,,,,,,,,,,,,,,D,146,circle,0,1,,,,,,,,,,,,,,,,switch,letter,NA,f,0.3302,Lo,,,,,,3,,,,,,,,low,12,0,12,0,1,,,,,,,,,
298072,2022-11-14_15h41.27.927,vts_reward_expectancy_bt,2022.2.4,Win32,165.0709805,Chrome,1920,1080,,,,,10,960,,,,,,,,,,,,,,,,,B,174,hexagon,1,1,,,,,,,,,,,,,,,,repeat,letter,lettRpt,d,0.3754,Hi,,,,,,3,,,,,,,,low,13,0,13,0,1,,,,,,,,,
298072,2022-11-14_15h41.27.927,vts_reward_expectancy_bt,2022.2.4,Win32,165.0709805,Chrome,1920,1080,,,,,10,970,,,,,,,,,,,,,,,,,Y,125,triangle,1,0,,,,,,,,,,,,,,,,switch,number,numSwt,j,0.3812,Lo,,,,,,3,,,,,,,,low,14,0,14,0,1,,,,,,,,,
298072,2022-11-14_15h41.27.927,vts_reward_expectancy_bt,2022.2.4,Win32,165.0709805,Chrome,1920,1080,,,,,0,970,,,,,,,,,,,,,,,,,H,160,star,0,0,,,,,,,,,,,,,,,,repeat,number,NA,j,0.3411,Lo,,,,,,3,,,,,,,,low,15,0,15,0,1,,,,,,,,,
298072,2022-11-14_15h41.27.927,vts_reward_expectancy_bt,2022.2.4,Win32,165.0709805,Chrome,1920,1080,,,,,0,970,,,,,,,,,,,,,,,,,H,139,circle,1,1,,,,,,,,,,,,,,,,repeat,number,numRpt,j,0.4303,Hi,,,,,,3,,,,,,,,low,16,0,16,0,1,,,,,,,,,
298072,2022-11-14_15h41.27.927,vts_reward_expectancy_bt,2022.2.4,Win32,165.0709805,Chrome,1920,1080,,,,,10,980,,,,,,,,,,,,,,,,,D,167,star,1,0,,,,,,,,,,,,,,,,switch,letter,lettSwt,d,0.4486,Lo,,,,,,3,,,,,,,,low,17,0,17,0,1,,,,,,,,,
298072,2022-11-14_15h41.27.927,vts_reward_expectancy_bt,2022.2.4,Win32,165.0709805,Chrome,1920,1080,,,,,0,980,,,,,,,,,,,,,,,,,F,146,hexagon,0,0,,,,,,,,,,,,,,,,switch,number,NA,k,0.4297,Lo,,,,,,3,,,,,,,,low,18,0,18,0,1,,,,,,,,,
298072,2022-11-14_15h41.27.927,vts_reward_expectancy_bt,2022.2.4,Win32,165.0709805,Chrome,1920,1080,,,,,1,981,,,,,,,,,,,,,,,,,B,160,triangle,1,1,,,,,,,,,,,,,,,,switch,letter,lettSwt,d,0.4554,Lo,,,,,,3,,,,,,,,low,19,0,19,0,1,,,,,,,,,
298072,2022-11-14_15h41.27.927,vts_reward_expectancy_bt,2022.2.4,Win32,165.0709805,Chrome,1920,1080,,,,,0,981,,,,,,,,,,,,,,,,,S,132,triangle,0,0,,,,,,,,,,,,,,,,repeat,letter,NA,d,0.359,Lo,,,,,,3,,,,,,,,low,20,0,20,0,1,,,,,,,,,
298072,2022-11-14_15h41.27.927,vts_reward_expectancy_bt,2022.2.4,Win32,165.0709805,Chrome,1920,1080,,,,,10,991,,,,,,,,,,,,,,,,,W,125,star,1,1,,,,,,,,,,,,,,,,switch,number,numSwt,j,0.542,Lo,,,,,,3,,,,,,,,low,21,0,21,0,1,,,,,,,,,
298072,2022-11-14_15h41.27.927,vts_reward_expectancy_bt,2022.2.4,Win32,165.0709805,Chrome,1920,1080,,,,,0,991,,,,,,,,,,,,,,,,,U,181,circle,1,0,,,,,,,,,,,,,,,,repeat,number,numRpt,k,0.3694,Hi,,,,,,3,,,,,,,,low,22,0,22,0,1,,,,,,,,,
298072,2022-11-14_15h41.27.927,vts_reward_expectancy_bt,2022.2.4,Win32,165.0709805,Chrome,1920,1080,,,,,1,992,,,,,,,,,,,,,,,,,Y,174,hexagon,1,0,,,,,,,,,,,,,,,,switch,letter,lettSwt,f,0.3633,Hi,,,,,,3,,,,,,,,low,23,0,23,0,1,,,,,,,,,
298072,2022-11-14_15h41.27.927,vts_reward_expectancy_bt,2022.2.4,Win32,165.0709805,Chrome,1920,1080,,,,,0,992,,,,,,,,,,,,,,,,,H,167,circle,0,0,,,,,,,,,,,,,,,,repeat,letter,NA,f,0.3872,Hi,,,,,,3,,,,,,,,low,24,0,24,0,1,,,,,,,,,
298072,2022-11-14_15h41.27.927,vts_reward_expectancy_bt,2022.2.4,Win32,165.0709805,Chrome,1920,1080,,,,,0,992,,,,,,,,,,,,,,,,,S,174,hexagon,1,1,,,,,,,,,,,,,,,,switch,number,numSwt,k,0.3771,Hi,,,,,,3,,,,,,,,low,25,0,25,0,1,,,,,,,,,
298072,2022-11-14_15h41.27.927,vts_reward_expectancy_bt,2022.2.4,Win32,165.0709805,Chrome,1920,1080,,,,,1,993,,,,,,,,,,,,,,,,,D,146,triangle,1,0,,,,,,,,,,,,,,,,switch,letter,lettSwt,d,0.4784,Lo,,,,,,3,,,,,,,,low,26,0,26,0,1,,,,,,,,,
298072,2022-11-14_15h41.27.927,vts_reward_expectancy_bt,2022.2.4,Win32,165.0709805,Chrome,1920,1080,,,,,1,994,,,,,,,,,,,,,,,,,B,139,star,1,0,,,,,,,,,,,,,,,,repeat,letter,lettRpt,d,0.3269,Lo,,,,,,3,,,,,,,,low,27,0,27,0,1,,,,,,,,,
298072,2022-11-14_15h41.27.927,vts_reward_expectancy_bt,2022.2.4,Win32,165.0709805,Chrome,1920,1080,,,,,10,1004,,,,,,,,,,,,,,,,,F,125,star,1,0,,,,,,,,,,,,,,,,repeat,letter,lettRpt,d,0.3582,Lo,,,,,,3,,,,,,,,low,28,0,28,0,1,,,,,,,,,
298072,2022-11-14_15h41.27.927,vts_reward_expectancy_bt,2022.2.4,Win32,165.0709805,Chrome,1920,1080,,,,,10,1014,,,,,,,,,,,,,,,,,U,132,circle,1,0,,,,,,,,,,,,,,,,repeat,letter,lettRpt,f,0.3661,Hi,,,,,,3,,,,,,,,low,29,0,29,0,1,,,,,,,,,
298072,2022-11-14_15h41.27.927,vts_reward_expectancy_bt,2022.2.4,Win32,165.0709805,Chrome,1920,1080,,,,,1,1015,,,,,,,,,,,,,,,,,Y,181,triangle,1,0,,,,,,,,,,,,,,,,repeat,letter,lettRpt,f,0.4981,Lo,,,,,,3,,,,,,,,low,30,0,30,0,1,,,,,,,,,
298072,2022-11-14_15h41.27.927,vts_reward_expectancy_bt,2022.2.4,Win32,165.0709805,Chrome,1920,1080,,,,,0,1015,,,,,,,,,,,,,,,,,W,160,hexagon,1,0,,,,,,,,,,,,,,,,switch,number,numSwt,k,0.4316,Hi,,,,,,3,,,,,,,,low,31,0,31,0,1,,,,,,,,,
298072,2022-11-14_15h41.27.927,vts_reward_expectancy_bt,2022.2.4,Win32,165.0709805,Chrome,1920,1080,,,,,10,1025,,,,,,,,,,,,,,,,,W,160,triangle,1,0,,,,,,,,,,,,,,,,switch,letter,lettSwt,f,0.4923,Lo,,,,,,4,,,,,,space,0.9635,low,0,0,0,0,1,,,,,,,,,
298072,2022-11-14_15h41.27.927,vts_reward_expectancy_bt,2022.2.4,Win32,165.0709805,Chrome,1920,1080,,,,,0,1025,,,,,,,,,,,,,,,,,H,132,circle,1,0,,,,,,,,,,,,,,,,repeat,letter,lettRpt,d,0.3695,Hi,,,,,,4,,,,,,,,low,1,0,1,0,1,,,,,,,,,
298072,2022-11-14_15h41.27.927,vts_reward_expectancy_bt,2022.2.4,Win32,165.0709805,Chrome,1920,1080,,,,,0,1025,,,,,,,,,,,,,,,,,F,181,star,0,0,,,,,,,,,,,,,,,,switch,number,NA,j,0.3337,Hi,,,,,,4,,,,,,,,low,2,0,2,0,1,,,,,,,,,
298072,2022-11-14_15h41.27.927,vts_reward_expectancy_bt,2022.2.4,Win32,165.0709805,Chrome,1920,1080,,,,,0,1025,,,,,,,,,,,,,,,,,Y,174,hexagon,1,1,,,,,,,,,,,,,,,,switch,letter,lettSwt,f,0.47,Hi,,,,,,4,,,,,,,,low,3,0,3,0,1,,,,,,,,,
298072,2022-11-14_15h41.27.927,vts_reward_expectancy_bt,2022.2.4,Win32,165.0709805,Chrome,1920,1080,,,,,10,1035,,,,,,,,,,,,,,,,,B,146,triangle,1,0,,,,,,,,,,,,,,,,switch,number,numSwt,j,0.3656,Lo,,,,,,4,,,,,,,,low,4,0,4,0,1,,,,,,,,,
298072,2022-11-14_15h41.27.927,vts_reward_expectancy_bt,2022.2.4,Win32,165.0709805,Chrome,1920,1080,,,,,10,1045,,,,,,,,,,,,,,,,,U,167,circle,1,0,,,,,,,,,,,,,,,,repeat,number,numRpt,k,0.3221,Hi,,,,,,4,,,,,,,,low,5,0,5,0,1,,,,,,,,,
298072,2022-11-14_15h41.27.927,vts_reward_expectancy_bt,2022.2.4,Win32,165.0709805,Chrome,1920,1080,,,,,1,1046,,,,,,,,,,,,,,,,,S,125,star,1,0,,,,,,,,,,,,,,,,repeat,number,numRpt,j,0.3726,Lo,,,,,,4,,,,,,,,low,6,0,6,0,1,,,,,,,,,
298072,2022-11-14_15h41.27.927,vts_reward_expectancy_bt,2022.2.4,Win32,165.0709805,Chrome,1920,1080,,,,,10,1056,,,,,,,,,,,,,,,,,D,139,hexagon,1,0,,,,,,,,,,,,,,,,switch,letter,lettSwt,d,0.4177,Hi,,,,,,4,,,,,,,,low,7,0,7,0,1,,,,,,,,,
298072,2022-11-14_15h41.27.927,vts_reward_expectancy_bt,2022.2.4,Win32,165.0709805,Chrome,1920,1080,,,,,0,1056,,,,,,,,,,,,,,,,,W,160,circle,0,0,,,,,,,,,,,,,,,,repeat,letter,NA,d,0.3329,Hi,,,,,,4,,,,,,,,low,8,0,8,0,1,,,,,,,,,
298072,2022-11-14_15h41.27.927,vts_reward_expectancy_bt,2022.2.4,Win32,165.0709805,Chrome,1920,1080,,,,,10,1066,,,,,,,,,,,,,,,,,H,132,triangle,1,1,,,,,,,,,,,,,,,,switch,number,numSwt,j,0.4868,Lo,,,,,,4,,,,,,,,low,9,0,9,0,1,,,,,,,,,
298072,2022-11-14_15h41.27.927,vts_reward_expectancy_bt,2022.2.4,Win32,165.0709805,Chrome,1920,1080,,,,,10,1076,,,,,,,,,,,,,,,,,F,181,star,1,0,,,,,,,,,,,,,,,,repeat,number,numRpt,k,0.3937,Lo,,,,,,4,,,,,,,,low,10,0,10,0,1,,,,,,,,,
298072,2022-11-14_15h41.27.927,vts_reward_expectancy_bt,2022.2.4,Win32,165.0709805,Chrome,1920,1080,,,,,0,1076,,,,,,,,,,,,,,,,,Y,174,hexagon,1,0,,,,,,,,,,,,,,,,repeat,number,numRpt,k,0.4855,Hi,,,,,,4,,,,,,,,low,11,0,11,0,1,,,,,,,,,
298072,2022-11-14_15h41.27.927,vts_reward_expectancy_bt,2022.2.4,Win32,165.0709805,Chrome,1920,1080,,,,,1,1077,,,,,,,,,,,,,,,,,B,146,star,1,0,,,,,,,,,,,,,,,,switch,letter,lettSwt,d,0.3466,Lo,,,,,,4,,,,,,,,low,12,0,12,0,1,,,,,,,,,
298072,2022-11-14_15h41.27.927,vts_reward_expectancy_bt,2022.2.4,Win32,165.0709805,Chrome,1920,1080,,,,,0,1077,,,,,,,,,,,,,,,,,U,167,circle,0,0,,,,,,,,,,,,,,,,repeat,letter,NA,d,0.3346,Lo,,,,,,4,,,,,,,,low,13,0,13,0,1,,,,,,,,,
298072,2022-11-14_15h41.27.927,vts_reward_expectancy_bt,2022.2.4,Win32,165.0709805,Chrome,1920,1080,,,,,1,1078,,,,,,,,,,,,,,,,,S,125,triangle,1,1,,,,,,,,,,,,,,,,switch,number,numSwt,j,0.5087,Lo,,,,,,4,,,,,,,,low,14,0,14,0,1,,,,,,,,,
298072,2022-11-14_15h41.27.927,vts_reward_expectancy_bt,2022.2.4,Win32,165.0709805,Chrome,1920,1080,,,,,0,1078,,,,,,,,,,,,,,,,,D,139,hexagon,1,0,,,,,,,,,,,,,,,,repeat,number,numRpt,j,0.4601,Hi,,,,,,4,,,,,,,,low,15,0,15,0,1,,,,,,,,,
298072,2022-11-14_15h41.27.927,vts_reward_expectancy_bt,2022.2.4,Win32,165.0709805,Chrome,1920,1080,,,,,0,1078,,,,,,,,,,,,,,,,,Y,132,circle,1,0,,,,,,,,,,,,,,,,switch,letter,lettSwt,f,0.4858,Hi,,,,,,4,,,,,,,,low,16,0,16,0,1,,,,,,,,,
298072,2022-11-14_15h41.27.927,vts_reward_expectancy_bt,2022.2.4,Win32,165.0709805,Chrome,1920,1080,,,,,0,1078,,,,,,,,,,,,,,,,,H,167,hexagon,1,0,,,,,,,,,,,,,,,,switch,number,numSwt,k,0.5449,Hi,,,,,,4,,,,,,,,low,17,0,17,0,1,,,,,,,,,
298072,2022-11-14_15h41.27.927,vts_reward_expectancy_bt,2022.2.4,Win32,165.0709805,Chrome,1920,1080,,,,,0,1078,,,,,,,,,,,,,,,,,S,125,star,0,0,,,,,,,,,,,,,,,,switch,letter,NA,d,0.3027,Hi,,,,,,4,,,,,,,,low,18,0,18,0,1,,,,,,,,,
298072,2022-11-14_15h41.27.927,vts_reward_expectancy_bt,2022.2.4,Win32,165.0709805,Chrome,1920,1080,,,,,0,1078,,,,,,,,,,,,,,,,,W,139,triangle,0,1,,,,,,,,,,,,,,,,switch,number,NA,k,0.3957,Hi,,,,,,4,,,,,,,,low,19,0,19,0,1,,,,,,,,,
298072,2022-11-14_15h41.27.927,vts_reward_expectancy_bt,2022.2.4,Win32,165.0709805,Chrome,1920,1080,,,,,1,1079,,,,,,,,,,,,,,,,,B,146,star,1,1,,,,,,,,,,,,,,,,switch,letter,lettSwt,d,0.3759,Lo,,,,,,4,,,,,,,,low,20,0,20,0,1,,,,,,,,,
298072,2022-11-14_15h41.27.927,vts_reward_expectancy_bt,2022.2.4,Win32,165.0709805,Chrome,1920,1080,,,,,0,1079,,,,,,,,,,,,,,,,,U,174,triangle,0,0,,,,,,,,,,,,,,,,repeat,letter,NA,d,0.3392,Lo,,,,,,4,,,,,,,,low,21,0,21,0,1,,,,,,,,,
298072,2022-11-14_15h41.27.927,vts_reward_expectancy_bt,2022.2.4,Win32,165.0709805,Chrome,1920,1080,,,,,0,1079,,,,,,,,,,,,,,,,,F,160,circle,1,1,,,,,,,,,,,,,,,,switch,number,numSwt,k,0.6033,Hi,,,,,,4,,,,,,,,low,22,0,22,0,1,,,,,,,,,
298072,2022-11-14_15h41.27.927,vts_reward_expectancy_bt,2022.2.4,Win32,165.0709805,Chrome,1920,1080,,,,,1,1080,,,,,,,,,,,,,,,,,D,181,hexagon,1,0,,,,,,,,,,,,,,,,switch,letter,lettSwt,d,0.3936,Hi,,,,,,4,,,,,,,,low,23,0,23,0,1,,,,,,,,,
298072,2022-11-14_15h41.27.927,vts_reward_expectancy_bt,2022.2.4,Win32,165.0709805,Chrome,1920,1080,,,,,1,1081,,,,,,,,,,,,,,,,,U,160,circle,1,0,,,,,,,,,,,,,,,,repeat,letter,lettRpt,f,0.3517,Hi,,,,,,4,,,,,,,,low,24,0,24,0,1,,,,,,,,,
298072,2022-11-14_15h41.27.927,vts_reward_expectancy_bt,2022.2.4,Win32,165.0709805,Chrome,1920,1080,,,,,0,1081,,,,,,,,,,,,,,,,,W,167,hexagon,1,0,,,,,,,,,,,,,,,,repeat,letter,lettRpt,f,0.493,Hi,,,,,,4,,,,,,,,low,25,0,25,0,1,,,,,,,,,
298072,2022-11-14_15h41.27.927,vts_reward_expectancy_bt,2022.2.4,Win32,165.0709805,Chrome,1920,1080,,,,,10,1091,,,,,,,,,,,,,,,,,Y,174,triangle,1,0,,,,,,,,,,,,,,,,switch,number,numSwt,k,0.339,Lo,,,,,,4,,,,,,,,low,26,0,26,0,1,,,,,,,,,
298072,2022-11-14_15h41.27.927,vts_reward_expectancy_bt,2022.2.4,Win32,165.0709805,Chrome,1920,1080,,,,,10,1101,,,,,,,,,,,,,,,,,D,181,star,1,0,,,,,,,,,,,,,,,,repeat,number,numRpt,k,0.3952,Lo,,,,,,4,,,,,,,,low,27,0,27,0,1,,,,,,,,,
298072,2022-11-14_15h41.27.927,vts_reward_expectancy_bt,2022.2.4,Win32,165.0709805,Chrome,1920,1080,,,,,0,1101,,,,,,,,,,,,,,,,,B,146,circle,1,0,,,,,,,,,,,,,,,,repeat,number,numRpt,j,0.5279,Hi,,,,,,4,,,,,,,,low,28,0,28,0,1,,,,,,,,,
298072,2022-11-14_15h41.27.927,vts_reward_expectancy_bt,2022.2.4,Win32,165.0709805,Chrome,1920,1080,,,,,0,1101,,,,,,,,,,,,,,,,,H,139,star,0,0,,,,,,,,,,,,,,,,switch,letter,NA,f,0.5328,Hi,,,,,,4,,,,,,,,low,29,0,29,0,1,,,,,,,,,
298072,2022-11-14_15h41.27.927,vts_reward_expectancy_bt,2022.2.4,Win32,165.0709805,Chrome,1920,1080,,,,,1,1102,,,,,,,,,,,,,,,,,F,125,triangle,1,1,,,,,,,,,,,,,,,,switch,number,numSwt,j,0.4367,Lo,,,,,,4,,,,,,,,low,30,0,30,0,1,,,,,,,,,
298072,2022-11-14_15h41.27.927,vts_reward_expectancy_bt,2022.2.4,Win32,165.0709805,Chrome,1920,1080,,,,,0,1102,,,,,,,,,,,,,,,,,S,132,hexagon,1,0,,,,,,,,,,,,,,,,repeat,number,numRpt,j,0.3404,Hi,,,,,,4,,,,,,,,low,31,0,31,0,1,,,,,,,,,
298072,2022-11-14_15h41.27.927,vts_reward_expectancy_bt,2022.2.4,Win32,165.0709805,Chrome,1920,1080,,,,,0,1102,,,,,,,,,,,,,,,,,D,139,circle,1,0,,,,,,,,,,,,,,,,switch,letter,lettSwt,d,0.4429,Hi,,,,,,5,,,,,,space,0.7456,low,0,0,0,0,1,,,,,,,,,
298072,2022-11-14_15h41.27.927,vts_reward_expectancy_bt,2022.2.4,Win32,165.0709805,Chrome,1920,1080,,,,,1,1103,,,,,,,,,,,,,,,,,B,181,hexagon,1,0,,,,,,,,,,,,,,,,switch,number,numSwt,k,0.4176,Hi,,,,,,5,,,,,,,,low,1,0,1,0,1,,,,,,,,,
298072,2022-11-14_15h41.27.927,vts_reward_expectancy_bt,2022.2.4,Win32,165.0709805,Chrome,1920,1080,,,,,1,1104,,,,,,,,,,,,,,,,,F,132,triangle,1,0,,,,,,,,,,,,,,,,repeat,number,numRpt,j,0.3227,Lo,,,,,,5,,,,,,,,low,2,0,2,0,1,,,,,,,,,
298072,2022-11-14_15h41.27.927,vts_reward_expectancy_bt,2022.2.4,Win32,165.0709805,Chrome,1920,1080,,,,,10,1114,,,,,,,,,,,,,,,,,S,125,star,1,0,,,,,,,,,,,,,,,,repeat,number,numRpt,j,0.3455,Lo,,,,,,5,,,,,,,,low,3,0,3,0,1,,,,,,,,,
298072,2022-11-14_15h41.27.927,vts_reward_expectancy_bt,2022.2.4,Win32,165.0709805,Chrome,1920,1080,,,,,0,1114,,,,,,,,,,,,,,,,,Y,167,circle,1,0,,,,,,,,,,,,,,,,repeat,number,numRpt,k,0.6802,Hi,,,,,,5,,,,,,,,low,4,0,4,0,1,,,,,,,,,
298072,2022-11-14_15h41.27.927,vts_reward_expectancy_bt,2022.2.4,Win32,165.0709805,Chrome,1920,1080,,,,,0,1114,,,,,,,,,,,,,,,,,H,160,hexagon,1,0,,,,,,,,,,,,,,,,switch,letter,lettSwt,d,0.4614,Hi,,,,,,5,,,,,,,,low,5,0,5,0,1,,,,,,,,,
298072,2022-11-14_15h41.27.927,vts_reward_expectancy_bt,2022.2.4,Win32,165.0709805,Chrome,1920,1080,,,,,10,1124,,,,,,,,,,,,,,,,,U,146,triangle,1,0,,,,,,,,,,,,,,,,switch,number,numSwt,j,0.3268,Lo,,,,,,5,,,,,,,,low,6,0,6,0,1,,,,,,,,,
298072,2022-11-14_15h41.27.927,vts_reward_expectancy_bt,2022.2.4,Win32,165.0709805,Chrome,1920,1080,,,,,10,1134,,,,,,,,,,,,,,,,,W,174,star,1,0,,,,,,,,,,,,,,,,repeat,number,numRpt,k,0.3578,Lo,,,,,,5,,,,,,,,low,7,0,7,0,1,,,,,,,,,
298072,2022-11-14_15h41.27.927,vts_reward_expectancy_bt,2022.2.4,Win32,165.0709805,Chrome,1920,1080,,,,,1,1135,,,,,,,,,,,,,,,,,D,139,triangle,1,0,,,,,,,,,,,,,,,,repeat,number,numRpt,j,0.3341,Lo,,,,,,5,,,,,,,,low,8,0,8,0,1,,,,,,,,,
298072,2022-11-14_15h41.27.927,vts_reward_expectancy_bt,2022.2.4,Win32,165.0709805,Chrome,1920,1080,,,,,0,1135,,,,,,,,,,,,,,,,,B,181,star,0,0,,,,,,,,,,,,,,,,repeat,number,NA,j,0.3027,Lo,,,,,,5,,,,,,,,low,9,0,9,0,1,,,,,,,,,
298072,2022-11-14_15h41.27.927,vts_reward_expectancy_bt,2022.2.4,Win32,165.0709805,Chrome,1920,1080,,,,,0,1135,,,,,,,,,,,,,,,,,F,132,hexagon,1,1,,,,,,,,,,,,,,,,switch,letter,lettSwt,d,0.4543,Hi,,,,,,5,,,,,,,,low,10,0,10,0,1,,,,,,,,,
298072,2022-11-14_15h41.27.927,vts_reward_expectancy_bt,2022.2.4,Win32,165.0709805,Chrome,1920,1080,,,,,0,1135,,,,,,,,,,,,,,,,,S,125,circle,1,0,,,,,,,,,,,,,,,,repeat,letter,lettRpt,f,0.4078,Hi,,,,,,5,,,,,,,,low,11,0,11,0,1,,,,,,,,,
298072,2022-11-14_15h41.27.927,vts_reward_expectancy_bt,2022.2.4,Win32,165.0709805,Chrome,1920,1080,,,,,0,1135,,,,,,,,,,,,,,,,,Y,167,triangle,0,0,,,,,,,,,,,,,,,,switch,number,NA,j,0.3594,Hi,,,,,,5,,,,,,,,low,12,0,12,0,1,,,,,,,,,
298072,2022-11-14_15h41.27.927,vts_reward_expectancy_bt,2022.2.4,Win32,165.0709805,Chrome,1920,1080,,,,,10,1145,,,,,,,,,,,,,,,,,H,160,star,1,1,,,,,,,,,,,,,,,,repeat,number,numRpt,k,0.3645,Lo,,,,,,5,,,,,,,,low,13,0,13,0,1,,,,,,,,,
298072,2022-11-14_15h41.27.927,vts_reward_expectancy_bt,2022.2.4,Win32,165.0709805,Chrome,1920,1080,,,,,0,1145,,,,,,,,,,,,,,,,,U,146,hexagon,0,0,,,,,,,,,,,,,,,,repeat,number,NA,k,0.3273,Lo,,,,,,5,,,,,,,,low,14,0,14,0,1,,,,,,,,,
298072,2022-11-14_15h41.27.927,vts_reward_expectancy_bt,2022.2.4,Win32,165.0709805,Chrome,1920,1080,,,,,0,1145,,,,,,,,,,,,,,,,,W,174,circle,1,1,,,,,,,,,,,,,,,,switch,letter,lettSwt,f,0.4203,Hi,,,,,,5,,,,,,,,low,15,0,15,0,1,,,,,,,,,
298072,2022-11-14_15h41.27.927,vts_reward_expectancy_bt,2022.2.4,Win32,165.0709805,Chrome,1920,1080,,,,,0,1145,,,,,,,,,,,,,,,,,W,146,hexagon,1,0,,,,,,,,,,,,,,,,switch,number,numSwt,j,0.5153,Hi,,,,,,5,,,,,,,,low,16,0,16,0,1,,,,,,,,,
298072,2022-11-14_15h41.27.927,vts_reward_expectancy_bt,2022.2.4,Win32,165.0709805,Chrome,1920,1080,,,,,0,1145,,,,,,,,,,,,,,,,,B,181,circle,1,0,,,,,,,,,,,,,,,,switch,letter,lettSwt,d,0.4337,Hi,,,,,,5,,,,,,,,low,17,0,17,0,1,,,,,,,,,
298072,2022-11-14_15h41.27.927,vts_reward_expectancy_bt,2022.2.4,Win32,165.0709805,Chrome,1920,1080,,,,,1,1146,,,,,,,,,,,,,,,,,D,160,star,1,0,,,,,,,,,,,,,,,,switch,number,numSwt,k,0.4209,Lo,,,,,,5,,,,,,,,low,18,0,18,0,1,,,,,,,,,
298072,2022-11-14_15h41.27.927,vts_reward_expectancy_bt,2022.2.4,Win32,165.0709805,Chrome,1920,1080,,,,,10,1156,,,,,,,,,,,,,,,,,S,139,triangle,1,0,,,,,,,,,,,,,,,,repeat,number,numRpt,j,0.3417,Lo,,,,,,5,,,,,,,,low,19,0,19,0,1,,,,,,,,,
298072,2022-11-14_15h41.27.927,vts_reward_expectancy_bt,2022.2.4,Win32,165.0709805,Chrome,1920,1080,,,,,1,1157,,,,,,,,,,,,,,,,,F,174,circle,1,0,,,,,,,,,,,,,,,,repeat,number,numRpt,k,0.2906,Hi,,,,,,5,,,,,,,,low,20,0,20,0,1,,,,,,,,,
298072,2022-11-14_15h41.27.927,vts_reward_expectancy_bt,2022.2.4,Win32,165.0709805,Chrome,1920,1080,,,,,10,1167,,,,,,,,,,,,,,,,,H,167,hexagon,1,0,,,,,,,,,,,,,,,,repeat,number,numRpt,k,0.2977,Hi,,,,,,5,,,,,,,,low,21,0,21,0,1,,,,,,,,,
298072,2022-11-14_15h41.27.927,vts_reward_expectancy_bt,2022.2.4,Win32,165.0709805,Chrome,1920,1080,,,,,10,1177,,,,,,,,,,,,,,,,,U,125,triangle,1,0,,,,,,,,,,,,,,,,switch,letter,lettSwt,f,0.3276,Lo,,,,,,5,,,,,,,,low,22,0,22,0,1,,,,,,,,,
298072,2022-11-14_15h41.27.927,vts_reward_expectancy_bt,2022.2.4,Win32,165.0709805,Chrome,1920,1080,,,,,10,1187,,,,,,,,,,,,,,,,,Y,132,star,1,0,,,,,,,,,,,,,,,,repeat,letter,lettRpt,f,0.3333,Lo,,,,,,5,,,,,,,,low,23,0,23,0,1,,,,,,,,,
298072,2022-11-14_15h41.27.927,vts_reward_expectancy_bt,2022.2.4,Win32,165.0709805,Chrome,1920,1080,,,,,0,1187,,,,,,,,,,,,,,,,,F,132,circle,0,0,,,,,,,,,,,,,,,,repeat,letter,NA,f,0.3425,Lo,,,,,,5,,,,,,,,low,24,0,24,0,1,,,,,,,,,
298072,2022-11-14_15h41.27.927,vts_reward_expectancy_bt,2022.2.4,Win32,165.0709805,Chrome,1920,1080,,,,,1,1188,,,,,,,,,,,,,,,,,D,181,star,1,1,,,,,,,,,,,,,,,,switch,number,numSwt,k,0.3586,Lo,,,,,,5,,,,,,,,low,25,0,25,0,1,,,,,,,,,
298072,2022-11-14_15h41.27.927,vts_reward_expectancy_bt,2022.2.4,Win32,165.0709805,Chrome,1920,1080,,,,,0,1188,,,,,,,,,,,,,,,,,H,139,hexagon,1,0,,,,,,,,,,,,,,,,repeat,number,numRpt,j,0.4068,Hi,,,,,,5,,,,,,,,low,26,0,26,0,1,,,,,,,,,
298072,2022-11-14_15h41.27.927,vts_reward_expectancy_bt,2022.2.4,Win32,165.0709805,Chrome,1920,1080,,,,,0,1188,,,,,,,,,,,,,,,,,W,125,triangle,0,0,,,,,,,,,,,,,,,,switch,letter,NA,d,0.3633,Hi,,,,,,5,,,,,,,,low,27,0,27,0,1,,,,,,,,,
298072,2022-11-14_15h41.27.927,vts_reward_expectancy_bt,2022.2.4,Win32,165.0709805,Chrome,1920,1080,,,,,0,1188,,,,,,,,,,,,,,,,,B,167,triangle,0,1,,,,,,,,,,,,,,,,switch,number,NA,j,0.364,Hi,,,,,,5,,,,,,,,low,28,0,28,0,1,,,,,,,,,
298072,2022-11-14_15h41.27.927,vts_reward_expectancy_bt,2022.2.4,Win32,165.0709805,Chrome,1920,1080,,,,,1,1189,,,,,,,,,,,,,,,,,Y,174,star,1,1,,,,,,,,,,,,,,,,switch,letter,lettSwt,f,0.5207,Lo,,,,,,5,,,,,,,,low,29,0,29,0,1,,,,,,,,,
298072,2022-11-14_15h41.27.927,vts_reward_expectancy_bt,2022.2.4,Win32,165.0709805,Chrome,1920,1080,,,,,0,1189,,,,,,,,,,,,,,,,,S,146,circle,1,0,,,,,,,,,,,,,,,,repeat,letter,lettRpt,f,0.4986,Hi,,,,,,5,,,,,,,,low,30,0,30,0,1,,,,,,,,,
298072,2022-11-14_15h41.27.927,vts_reward_expectancy_bt,2022.2.4,Win32,165.0709805,Chrome,1920,1080,,,,,0,1189,,,,,,,,,,,,,,,,,U,160,hexagon,1,0,,,,,,,,,,,,,,,,switch,number,numSwt,k,0.6872,Hi,,,,,,5,,,,,,,,low,31,0,31,0,1,,,,,,,,,
298072,2022-11-14_15h41.27.927,vts_reward_expectancy_bt,2022.2.4,Win32,165.0709805,Chrome,1920,1080,,,,,0,1189,,,,,,,,,,,,,,,,,F,174,circle,1,0,,,,,,,,,,,,,,,,switch,letter,lettSwt,d,0.5285,Hi,,,,,,6,,,,,,space,0.4727,low,0,0,0,0,1,,,,,,,,,
298072,2022-11-14_15h41.27.927,vts_reward_expectancy_bt,2022.2.4,Win32,165.0709805,Chrome,1920,1080,,,,,10,1199,,,,,,,,,,,,,,,,,U,132,star,1,0,,,,,,,,,,,,,,,,switch,number,numSwt,j,0.3719,Lo,,,,,,6,,,,,,,,low,1,0,1,0,1,,,,,,,,,
298072,2022-11-14_15h41.27.927,vts_reward_expectancy_bt,2022.2.4,Win32,165.0709805,Chrome,1920,1080,,,,,0,1199,,,,,,,,,,,,,,,,,D,160,hexagon,0,0,,,,,,,,,,,,,,,,repeat,number,NA,j,0.4262,Lo,,,,,,6,,,,,,,,low,2,0,2,0,1,,,,,,,,,
298072,2022-11-14_15h41.27.927,vts_reward_expectancy_bt,2022.2.4,Win32,165.0709805,Chrome,1920,1080,,,,,0,1199,,,,,,,,,,,,,,,,,S,167,triangle,0,1,,,,,,,,,,,,,,,,switch,letter,NA,d,0.5636,Lo,,,,,,6,,,,,,,,low,3,0,3,0,1,,,,,,,,,
298072,2022-11-14_15h41.27.927,vts_reward_expectancy_bt,2022.2.4,Win32,165.0709805,Chrome,1920,1080,,,,,1,1200,,,,,,,,,,,,,,,,,Y,139,circle,1,1,,,,,,,,,,,,,,,,switch,number,numSwt,j,0.3149,Hi,,,,,,6,,,,,,,,low,4,0,4,0,1,,,,,,,,,
298072,2022-11-14_15h41.27.927,vts_reward_expectancy_bt,2022.2.4,Win32,165.0709805,Chrome,1920,1080,,,,,1,1201,,,,,,,,,,,,,,,,,W,181,star,1,0,,,,,,,,,,,,,,,,repeat,number,numRpt,k,0.3783,Lo,,,,,,6,,,,,,,,low,5,0,5,0,1,,,,,,,,,
298072,2022-11-14_15h41.27.927,vts_reward_expectancy_bt,2022.2.4,Win32,165.0709805,Chrome,1920,1080,,,,,0,1201,,,,,,,,,,,,,,,,,B,125,hexagon,0,0,,,,,,,,,,,,,,,,repeat,number,NA,k,0.3244,Lo,,,,,,6,,,,,,,,low,6,0,6,0,1,,,,,,,,,
298072,2022-11-14_15h41.27.927,vts_reward_expectancy_bt,2022.2.4,Win32,165.0709805,Chrome,1920,1080,,,,,0,1201,,,,,,,,,,,,,,,,,H,146,triangle,0,1,,,,,,,,,,,,,,,,switch,letter,NA,f,0.394,Lo,,,,,,6,,,,,,,,low,7,0,7,0,1,,,,,,,,,
298072,2022-11-14_15h41.27.927,vts_reward_expectancy_bt,2022.2.4,Win32,165.0709805,Chrome,1920,1080,,,,,10,1211,,,,,,,,,,,,,,,,,F,174,circle,1,1,,,,,,,,,,,,,,,,switch,number,numSwt,k,0.3819,Hi,,,,,,6,,,,,,,,low,8,0,8,0,1,,,,,,,,,
298072,2022-11-14_15h41.27.927,vts_reward_expectancy_bt,2022.2.4,Win32,165.0709805,Chrome,1920,1080,,,,,0,1211,,,,,,,,,,,,,,,,,U,132,star,0,0,,,,,,,,,,,,,,,,repeat,number,NA,k,0.4307,Hi,,,,,,6,,,,,,,,low,9,0,9,0,1,,,,,,,,,
298072,2022-11-14_15h41.27.927,vts_reward_expectancy_bt,2022.2.4,Win32,165.0709805,Chrome,1920,1080,,,,,1,1212,,,,,,,,,,,,,,,,,D,160,triangle,1,1,,,,,,,,,,,,,,,,switch,letter,lettSwt,d,0.4916,Lo,,,,,,6,,,,,,,,low,10,0,10,0,1,,,,,,,,,
298072,2022-11-14_15h41.27.927,vts_reward_expectancy_bt,2022.2.4,Win32,165.0709805,Chrome,1920,1080,,,,,10,1222,,,,,,,,,,,,,,,,,S,167,hexagon,1,0,,,,,,,,,,,,,,,,repeat,letter,lettRpt,f,0.345,Hi,,,,,,6,,,,,,,,low,11,0,11,0,1,,,,,,,,,
298072,2022-11-14_15h41.27.927,vts_reward_expectancy_bt,2022.2.4,Win32,165.0709805,Chrome,1920,1080,,,,,1,1223,,,,,,,,,,,,,,,,,Y,139,circle,1,0,,,,,,,,,,,,,,,,repeat,letter,lettRpt,f,0.339,Hi,,,,,,6,,,,,,,,low,12,0,12,0,1,,,,,,,,,
298072,2022-11-14_15h41.27.927,vts_reward_expectancy_bt,2022.2.4,Win32,165.0709805,Chrome,1920,1080,,,,,0,1223,,,,,,,,,,,,,,,,,W,181,star,0,0,,,,,,,,,,,,,,,,repeat,letter,NA,d,0.4006,Hi,,,,,,6,,,,,,,,low,13,0,13,0,1,,,,,,,,,
298072,2022-11-14_15h41.27.927,vts_reward_expectancy_bt,2022.2.4,Win32,165.0709805,Chrome,1920,1080,,,,,1,1224,,,,,,,,,,,,,,,,,B,125,hexagon,1,1,,,,,,,,,,,,,,,,switch,number,numSwt,j,0.3363,Hi,,,,,,6,,,,,,,,low,14,0,14,0,1,,,,,,,,,
