participant,date,expName,psychopyVersion,OS,frameRate,browser,xResolution,yResolution,key_resp.keys,key_resp.rt,training_resp.keys,training_resp.rt,points_trial,points_cumul,trainBlock,training.thisRepN,training.thisTrialN,training.thisN,training.thisIndex,training.ran,LTriangleOpac,LCircleOpac,LHexagonOpac,LStarOpac,RTriangleOpac,RCircleOpac,RHexagonOpac,RStarOpac,LShape_ID,RShape_ID,curr_topStim,curr_bottStim,curr_shape,acc,E1,target_resp_prac1.keys,pracBlock,task1_prac_trials.thisRepN,task1_prac_trials.thisTrialN,task1_prac_trials.thisN,task1_prac_trials.thisIndex,task1_prac_trials.ran,target_resp_prac1.rt,target_resp_prac2.keys,target_resp_prac2.rt,task2_praac_trials.thisRepN,task2_praac_trials.thisTrialN,task2_praac_trials.thisN,task2_praac_trials.thisIndex,task2_praac_trials.ran,alt,task,condition,target_resp.keys,target_resp.rt,rewCond,vts_practice_trials.thisRepN,vts_practice_trials.thisTrialN,vts_practice_trials.thisN,vts_practice_trials.thisIndex,vts_practice_trials.ran,blockNum,trials_norew.thisRepN,trials_norew.thisTrialN,trials_norew.thisN,trials_norew.thisIndex,trials_norew.ran,key_resp_2.keys,key_resp_2.rt,rewExpectancy,trials_rew.thisRepN,trials_rew.thisTrialN,trials_rew.thisN,trials_rew.thisIndex,trials_rew.ran,Q1,Q2,Q2_text,Q3,Q4,Q5_text,Q5,xRes,yRes
298009,2022-11-29_18h57.57.403,vts_reward_expectancy_bt,2022.2.4,MacIntel,59.99880002,Chrome,1440,900,,,,,,,,,,,,,,,,,,,,,,,,,,,,,,,,,,,,,,,,,,,,,,,,,,,,,,,,,,,,,,,,,,,,,,,,,,,,
298009,2022-11-29_18h57.57.403,vts_reward_expectancy_bt,2022.2.4,MacIntel,59.99880002,Chrome,1440,900,space,88.3727,,,,,,,,,,,,,,,,,,,,,,,,,,,,,,,,,,,,,,,,,,,,,,,,,,,,,,,,,,,,,,,,,,,,,,,,,,
298009,2022-11-29_18h57.57.403,vts_reward_expectancy_bt,2022.2.4,MacIntel,59.99880002,Chrome,1440,900,,,,,,,,,,,,,,,,,,,,,,,,,,,,,,,,,,,,,,,,,,,,,,,,,,,,,,,,,,,,,,,,,,,,,,,,,,,,
298009,2022-11-29_18h57.57.403,vts_reward_expectancy_bt,2022.2.4,MacIntel,59.99880002,Chrome,1440,900,,,a,4.9404,1,1,0,0,0,0,9,1,0,0,0,1,1,0,0,0,star,triangle,,,,,,,,,,,,,,,,,,,,,,,,,,,,,,,,,,,,,,,,,,,,,,,,,,,,,,
298009,2022-11-29_18h57.57.403,vts_reward_expectancy_bt,2022.2.4,MacIntel,59.99880002,Chrome,1440,900,,,a,1.8357,1,2,0,0,1,1,4,1,0,1,0,0,0,0,1,0,circle,hexagon,,,,,,,,,,,,,,,,,,,,,,,,,,,,,,,,,,,,,,,,,,,,,,,,,,,,,,
298009,2022-11-29_18h57.57.403,vts_reward_expectancy_bt,2022.2.4,MacIntel,59.99880002,Chrome,1440,900,,,a,1.6911,10,12,0,0,2,2,11,1,0,0,0,1,0,0,1,0,star,hexagon,,,,,,,,,,,,,,,,,,,,,,,,,,,,,,,,,,,,,,,,,,,,,,,,,,,,,,
298009,2022-11-29_18h57.57.403,vts_reward_expectancy_bt,2022.2.4,MacIntel,59.99880002,Chrome,1440,900,,,l,2.5915,10,22,0,0,3,3,8,1,0,0,1,0,0,0,0,1,hexagon,star,,,,,,,,,,,,,,,,,,,,,,,,,,,,,,,,,,,,,,,,,,,,,,,,,,,,,,
298009,2022-11-29_18h57.57.403,vts_reward_expectancy_bt,2022.2.4,MacIntel,59.99880002,Chrome,1440,900,,,a,1.1761,10,32,0,0,4,4,2,1,1,0,0,0,0,0,0,1,triangle,star,,,,,,,,,,,,,,,,,,,,,,,,,,,,,,,,,,,,,,,,,,,,,,,,,,,,,,
298009,2022-11-29_18h57.57.403,vts_reward_expectancy_bt,2022.2.4,MacIntel,59.99880002,Chrome,1440,900,,,l,2.2502,1,33,0,0,5,5,0,1,1,0,0,0,0,1,0,0,triangle,circle,,,,,,,,,,,,,,,,,,,,,,,,,,,,,,,,,,,,,,,,,,,,,,,,,,,,,,
298009,2022-11-29_18h57.57.403,vts_reward_expectancy_bt,2022.2.4,MacIntel,59.99880002,Chrome,1440,900,,,l,0.7025,10,43,0,0,6,6,6,1,0,0,1,0,1,0,0,0,hexagon,triangle,,,,,,,,,,,,,,,,,,,,,,,,,,,,,,,,,,,,,,,,,,,,,,,,,,,,,,
298009,2022-11-29_18h57.57.403,vts_reward_expectancy_bt,2022.2.4,MacIntel,59.99880002,Chrome,1440,900,,,a,1.7396,10,53,0,0,7,7,5,1,0,1,0,0,0,0,0,1,circle,star,,,,,,,,,,,,,,,,,,,,,,,,,,,,,,,,,,,,,,,,,,,,,,,,,,,,,,
298009,2022-11-29_18h57.57.403,vts_reward_expectancy_bt,2022.2.4,MacIntel,59.99880002,Chrome,1440,900,,,a,0.7766,10,63,0,0,8,8,3,1,0,1,0,0,1,0,0,0,circle,triangle,,,,,,,,,,,,,,,,,,,,,,,,,,,,,,,,,,,,,,,,,,,,,,,,,,,,,,
298009,2022-11-29_18h57.57.403,vts_reward_expectancy_bt,2022.2.4,MacIntel,59.99880002,Chrome,1440,900,,,l,2.0347,10,73,0,0,9,9,1,1,1,0,0,0,0,0,1,0,triangle,hexagon,,,,,,,,,,,,,,,,,,,,,,,,,,,,,,,,,,,,,,,,,,,,,,,,,,,,,,
298009,2022-11-29_18h57.57.403,vts_reward_expectancy_bt,2022.2.4,MacIntel,59.99880002,Chrome,1440,900,,,l,0.6231,1,74,0,0,10,10,7,1,0,0,1,0,0,1,0,0,hexagon,circle,,,,,,,,,,,,,,,,,,,,,,,,,,,,,,,,,,,,,,,,,,,,,,,,,,,,,,
298009,2022-11-29_18h57.57.403,vts_reward_expectancy_bt,2022.2.4,MacIntel,59.99880002,Chrome,1440,900,,,l,0.286,1,75,0,0,11,11,10,1,0,0,0,1,0,1,0,0,star ,circle,,,,,,,,,,,,,,,,,,,,,,,,,,,,,,,,,,,,,,,,,,,,,,,,,,,,,,
298009,2022-11-29_18h57.57.403,vts_reward_expectancy_bt,2022.2.4,MacIntel,59.99880002,Chrome,1440,900,,,l,0.3822,10,85,0,1,0,12,6,1,0,0,1,0,1,0,0,0,hexagon,triangle,,,,,,,,,,,,,,,,,,,,,,,,,,,,,,,,,,,,,,,,,,,,,,,,,,,,,,
298009,2022-11-29_18h57.57.403,vts_reward_expectancy_bt,2022.2.4,MacIntel,59.99880002,Chrome,1440,900,,,a,0.5985,10,95,0,1,1,13,8,1,0,0,1,0,0,0,0,1,hexagon,star,,,,,,,,,,,,,,,,,,,,,,,,,,,,,,,,,,,,,,,,,,,,,,,,,,,,,,
298009,2022-11-29_18h57.57.403,vts_reward_expectancy_bt,2022.2.4,MacIntel,59.99880002,Chrome,1440,900,,,l,0.5986,1,96,0,1,2,14,4,1,0,1,0,0,0,0,1,0,circle,hexagon,,,,,,,,,,,,,,,,,,,,,,,,,,,,,,,,,,,,,,,,,,,,,,,,,,,,,,
298009,2022-11-29_18h57.57.403,vts_reward_expectancy_bt,2022.2.4,MacIntel,59.99880002,Chrome,1440,900,,,a,0.0359,10,106,0,1,3,15,7,1,0,0,1,0,0,1,0,0,hexagon,circle,,,,,,,,,,,,,,,,,,,,,,,,,,,,,,,,,,,,,,,,,,,,,,,,,,,,,,
298009,2022-11-29_18h57.57.403,vts_reward_expectancy_bt,2022.2.4,MacIntel,59.99880002,Chrome,1440,900,,,l,0.6332,1,107,0,1,4,16,10,1,0,0,0,1,0,1,0,0,star ,circle,,,,,,,,,,,,,,,,,,,,,,,,,,,,,,,,,,,,,,,,,,,,,,,,,,,,,,
298009,2022-11-29_18h57.57.403,vts_reward_expectancy_bt,2022.2.4,MacIntel,59.99880002,Chrome,1440,900,,,a,0.6545,1,108,0,1,5,17,9,1,0,0,0,1,1,0,0,0,star,triangle,,,,,,,,,,,,,,,,,,,,,,,,,,,,,,,,,,,,,,,,,,,,,,,,,,,,,,
298009,2022-11-29_18h57.57.403,vts_reward_expectancy_bt,2022.2.4,MacIntel,59.99880002,Chrome,1440,900,,,a,0.3881,10,118,0,1,6,18,1,1,1,0,0,0,0,0,1,0,triangle,hexagon,,,,,,,,,,,,,,,,,,,,,,,,,,,,,,,,,,,,,,,,,,,,,,,,,,,,,,
298009,2022-11-29_18h57.57.403,vts_reward_expectancy_bt,2022.2.4,MacIntel,59.99880002,Chrome,1440,900,,,l,0.4391,1,119,0,1,7,19,2,1,1,0,0,0,0,0,0,1,triangle,star,,,,,,,,,,,,,,,,,,,,,,,,,,,,,,,,,,,,,,,,,,,,,,,,,,,,,,
298009,2022-11-29_18h57.57.403,vts_reward_expectancy_bt,2022.2.4,MacIntel,59.99880002,Chrome,1440,900,,,l,0.3858,1,120,0,1,8,20,11,1,0,0,0,1,0,0,1,0,star,hexagon,,,,,,,,,,,,,,,,,,,,,,,,,,,,,,,,,,,,,,,,,,,,,,,,,,,,,,
298009,2022-11-29_18h57.57.403,vts_reward_expectancy_bt,2022.2.4,MacIntel,59.99880002,Chrome,1440,900,,,a,1.1176,1,121,0,1,9,21,3,1,0,1,0,0,1,0,0,0,circle,triangle,,,,,,,,,,,,,,,,,,,,,,,,,,,,,,,,,,,,,,,,,,,,,,,,,,,,,,
298009,2022-11-29_18h57.57.403,vts_reward_expectancy_bt,2022.2.4,MacIntel,59.99880002,Chrome,1440,900,,,l,0.5375,1,122,0,1,10,22,5,1,0,1,0,0,0,0,0,1,circle,star,,,,,,,,,,,,,,,,,,,,,,,,,,,,,,,,,,,,,,,,,,,,,,,,,,,,,,
298009,2022-11-29_18h57.57.403,vts_reward_expectancy_bt,2022.2.4,MacIntel,59.99880002,Chrome,1440,900,,,l,0.2665,1,123,0,1,11,23,0,1,1,0,0,0,0,1,0,0,triangle,circle,,,,,,,,,,,,,,,,,,,,,,,,,,,,,,,,,,,,,,,,,,,,,,,,,,,,,,
298009,2022-11-29_18h57.57.403,vts_reward_expectancy_bt,2022.2.4,MacIntel,59.99880002,Chrome,1440,900,,,l,0.4154,1,124,0,2,0,24,5,1,0,1,0,0,0,0,0,1,circle,star,,,,,,,,,,,,,,,,,,,,,,,,,,,,,,,,,,,,,,,,,,,,,,,,,,,,,,
298009,2022-11-29_18h57.57.403,vts_reward_expectancy_bt,2022.2.4,MacIntel,59.99880002,Chrome,1440,900,,,l,0.5901,1,125,0,2,1,25,7,1,0,0,1,0,0,1,0,0,hexagon,circle,,,,,,,,,,,,,,,,,,,,,,,,,,,,,,,,,,,,,,,,,,,,,,,,,,,,,,
298009,2022-11-29_18h57.57.403,vts_reward_expectancy_bt,2022.2.4,MacIntel,59.99880002,Chrome,1440,900,,,a,0.2024,1,126,0,2,2,26,9,1,0,0,0,1,1,0,0,0,star,triangle,,,,,,,,,,,,,,,,,,,,,,,,,,,,,,,,,,,,,,,,,,,,,,,,,,,,,,
298009,2022-11-29_18h57.57.403,vts_reward_expectancy_bt,2022.2.4,MacIntel,59.99880002,Chrome,1440,900,,,a,0.1853,10,136,0,2,3,27,2,1,1,0,0,0,0,0,0,1,triangle,star,,,,,,,,,,,,,,,,,,,,,,,,,,,,,,,,,,,,,,,,,,,,,,,,,,,,,,
298009,2022-11-29_18h57.57.403,vts_reward_expectancy_bt,2022.2.4,MacIntel,59.99880002,Chrome,1440,900,,,a,1.4541,10,146,0,2,4,28,3,1,0,1,0,0,1,0,0,0,circle,triangle,,,,,,,,,,,,,,,,,,,,,,,,,,,,,,,,,,,,,,,,,,,,,,,,,,,,,,
298009,2022-11-29_18h57.57.403,vts_reward_expectancy_bt,2022.2.4,MacIntel,59.99880002,Chrome,1440,900,,,l,1.0922,1,147,0,2,5,29,0,1,1,0,0,0,0,1,0,0,triangle,circle,,,,,,,,,,,,,,,,,,,,,,,,,,,,,,,,,,,,,,,,,,,,,,,,,,,,,,
298009,2022-11-29_18h57.57.403,vts_reward_expectancy_bt,2022.2.4,MacIntel,59.99880002,Chrome,1440,900,,,l,0.5708,1,148,0,2,6,30,6,1,0,0,1,0,1,0,0,0,hexagon,triangle,,,,,,,,,,,,,,,,,,,,,,,,,,,,,,,,,,,,,,,,,,,,,,,,,,,,,,
298009,2022-11-29_18h57.57.403,vts_reward_expectancy_bt,2022.2.4,MacIntel,59.99880002,Chrome,1440,900,,,a,1.2321,10,158,0,2,7,31,8,1,0,0,1,0,0,0,0,1,hexagon,star,,,,,,,,,,,,,,,,,,,,,,,,,,,,,,,,,,,,,,,,,,,,,,,,,,,,,,
298009,2022-11-29_18h57.57.403,vts_reward_expectancy_bt,2022.2.4,MacIntel,59.99880002,Chrome,1440,900,,,a,0.6397,1,159,0,2,8,32,11,1,0,0,0,1,0,0,1,0,star,hexagon,,,,,,,,,,,,,,,,,,,,,,,,,,,,,,,,,,,,,,,,,,,,,,,,,,,,,,
298009,2022-11-29_18h57.57.403,vts_reward_expectancy_bt,2022.2.4,MacIntel,59.99880002,Chrome,1440,900,,,l,0.0836,10,169,0,2,9,33,1,1,1,0,0,0,0,0,1,0,triangle,hexagon,,,,,,,,,,,,,,,,,,,,,,,,,,,,,,,,,,,,,,,,,,,,,,,,,,,,,,
298009,2022-11-29_18h57.57.403,vts_reward_expectancy_bt,2022.2.4,MacIntel,59.99880002,Chrome,1440,900,,,l,0.0393,10,179,0,2,10,34,4,1,0,1,0,0,0,0,1,0,circle,hexagon,,,,,,,,,,,,,,,,,,,,,,,,,,,,,,,,,,,,,,,,,,,,,,,,,,,,,,
298009,2022-11-29_18h57.57.403,vts_reward_expectancy_bt,2022.2.4,MacIntel,59.99880002,Chrome,1440,900,,,a,0.0826,10,189,0,2,11,35,10,1,0,0,0,1,0,1,0,0,star ,circle,,,,,,,,,,,,,,,,,,,,,,,,,,,,,,,,,,,,,,,,,,,,,,,,,,,,,,
298009,2022-11-29_18h57.57.403,vts_reward_expectancy_bt,2022.2.4,MacIntel,59.99880002,Chrome,1440,900,,,a,1.1793,10,199,1,0,0,0,0,1,1,0,0,0,0,1,0,0,triangle,circle,,,,,,,,,,,,,,,,,,,,,,,,,,,,,,,,,,,,,,,,,,,,,,,,,,,,,,
298009,2022-11-29_18h57.57.403,vts_reward_expectancy_bt,2022.2.4,MacIntel,59.99880002,Chrome,1440,900,,,a,0.0105,10,209,1,0,1,1,8,1,0,0,1,0,0,0,0,1,hexagon,star,,,,,,,,,,,,,,,,,,,,,,,,,,,,,,,,,,,,,,,,,,,,,,,,,,,,,,
298009,2022-11-29_18h57.57.403,vts_reward_expectancy_bt,2022.2.4,MacIntel,59.99880002,Chrome,1440,900,,,a,0.0005,1,210,1,0,2,2,4,1,0,1,0,0,0,0,1,0,circle,hexagon,,,,,,,,,,,,,,,,,,,,,,,,,,,,,,,,,,,,,,,,,,,,,,,,,,,,,,
298009,2022-11-29_18h57.57.403,vts_reward_expectancy_bt,2022.2.4,MacIntel,59.99880002,Chrome,1440,900,,,a,0.0827,1,211,1,0,3,3,10,1,0,0,0,1,0,1,0,0,star ,circle,,,,,,,,,,,,,,,,,,,,,,,,,,,,,,,,,,,,,,,,,,,,,,,,,,,,,,
298009,2022-11-29_18h57.57.403,vts_reward_expectancy_bt,2022.2.4,MacIntel,59.99880002,Chrome,1440,900,,,a,0.0656,1,212,1,0,4,4,5,1,0,1,0,0,0,0,0,1,circle,star,,,,,,,,,,,,,,,,,,,,,,,,,,,,,,,,,,,,,,,,,,,,,,,,,,,,,,
298009,2022-11-29_18h57.57.403,vts_reward_expectancy_bt,2022.2.4,MacIntel,59.99880002,Chrome,1440,900,,,l,0.0014,10,222,1,0,5,5,6,1,0,0,1,0,1,0,0,0,hexagon,triangle,,,,,,,,,,,,,,,,,,,,,,,,,,,,,,,,,,,,,,,,,,,,,,,,,,,,,,
298009,2022-11-29_18h57.57.403,vts_reward_expectancy_bt,2022.2.4,MacIntel,59.99880002,Chrome,1440,900,,,a,0.054,10,232,1,0,6,6,7,1,0,0,1,0,0,1,0,0,hexagon,circle,,,,,,,,,,,,,,,,,,,,,,,,,,,,,,,,,,,,,,,,,,,,,,,,,,,,,,
298009,2022-11-29_18h57.57.403,vts_reward_expectancy_bt,2022.2.4,MacIntel,59.99880002,Chrome,1440,900,,,a,0.0497,1,233,1,0,7,7,9,1,0,0,0,1,1,0,0,0,star,triangle,,,,,,,,,,,,,,,,,,,,,,,,,,,,,,,,,,,,,,,,,,,,,,,,,,,,,,
298009,2022-11-29_18h57.57.403,vts_reward_expectancy_bt,2022.2.4,MacIntel,59.99880002,Chrome,1440,900,,,l,0.0326,10,243,1,0,8,8,1,1,1,0,0,0,0,0,1,0,triangle,hexagon,,,,,,,,,,,,,,,,,,,,,,,,,,,,,,,,,,,,,,,,,,,,,,,,,,,,,,
298009,2022-11-29_18h57.57.403,vts_reward_expectancy_bt,2022.2.4,MacIntel,59.99880002,Chrome,1440,900,,,a,0.1233,10,253,1,0,9,9,2,1,1,0,0,0,0,0,0,1,triangle,star,,,,,,,,,,,,,,,,,,,,,,,,,,,,,,,,,,,,,,,,,,,,,,,,,,,,,,
298009,2022-11-29_18h57.57.403,vts_reward_expectancy_bt,2022.2.4,MacIntel,59.99880002,Chrome,1440,900,,,a,0.0318,1,254,1,0,10,10,3,1,0,1,0,0,1,0,0,0,circle,triangle,,,,,,,,,,,,,,,,,,,,,,,,,,,,,,,,,,,,,,,,,,,,,,,,,,,,,,
298009,2022-11-29_18h57.57.403,vts_reward_expectancy_bt,2022.2.4,MacIntel,59.99880002,Chrome,1440,900,,,a,0.134,1,255,1,0,11,11,11,1,0,0,0,1,0,0,1,0,star,hexagon,,,,,,,,,,,,,,,,,,,,,,,,,,,,,,,,,,,,,,,,,,,,,,,,,,,,,,
298009,2022-11-29_18h57.57.403,vts_reward_expectancy_bt,2022.2.4,MacIntel,59.99880002,Chrome,1440,900,,,a,0.0169,1,256,1,1,0,12,11,1,0,0,0,1,0,0,1,0,star,hexagon,,,,,,,,,,,,,,,,,,,,,,,,,,,,,,,,,,,,,,,,,,,,,,,,,,,,,,
298009,2022-11-29_18h57.57.403,vts_reward_expectancy_bt,2022.2.4,MacIntel,59.99880002,Chrome,1440,900,,,a,0.1316,1,257,1,1,1,13,5,1,0,1,0,0,0,0,0,1,circle,star,,,,,,,,,,,,,,,,,,,,,,,,,,,,,,,,,,,,,,,,,,,,,,,,,,,,,,
298009,2022-11-29_18h57.57.403,vts_reward_expectancy_bt,2022.2.4,MacIntel,59.99880002,Chrome,1440,900,,,l,0.051,10,267,1,1,2,14,3,1,0,1,0,0,1,0,0,0,circle,triangle,,,,,,,,,,,,,,,,,,,,,,,,,,,,,,,,,,,,,,,,,,,,,,,,,,,,,,
298009,2022-11-29_18h57.57.403,vts_reward_expectancy_bt,2022.2.4,MacIntel,59.99880002,Chrome,1440,900,,,a,0.066,10,277,1,1,3,15,6,1,0,0,1,0,1,0,0,0,hexagon,triangle,,,,,,,,,,,,,,,,,,,,,,,,,,,,,,,,,,,,,,,,,,,,,,,,,,,,,,
298009,2022-11-29_18h57.57.403,vts_reward_expectancy_bt,2022.2.4,MacIntel,59.99880002,Chrome,1440,900,,,l,0.0004,10,287,1,1,4,16,9,1,0,0,0,1,1,0,0,0,star,triangle,,,,,,,,,,,,,,,,,,,,,,,,,,,,,,,,,,,,,,,,,,,,,,,,,,,,,,
298009,2022-11-29_18h57.57.403,vts_reward_expectancy_bt,2022.2.4,MacIntel,59.99880002,Chrome,1440,900,,,l,0.083,1,288,1,1,5,17,8,1,0,0,1,0,0,0,0,1,hexagon,star,,,,,,,,,,,,,,,,,,,,,,,,,,,,,,,,,,,,,,,,,,,,,,,,,,,,,,
298009,2022-11-29_18h57.57.403,vts_reward_expectancy_bt,2022.2.4,MacIntel,59.99880002,Chrome,1440,900,,,a,0.0494,10,298,1,1,6,18,0,1,1,0,0,0,0,1,0,0,triangle,circle,,,,,,,,,,,,,,,,,,,,,,,,,,,,,,,,,,,,,,,,,,,,,,,,,,,,,,
298009,2022-11-29_18h57.57.403,vts_reward_expectancy_bt,2022.2.4,MacIntel,59.99880002,Chrome,1440,900,,,a,0.0155,10,308,1,1,7,19,7,1,0,0,1,0,0,1,0,0,hexagon,circle,,,,,,,,,,,,,,,,,,,,,,,,,,,,,,,,,,,,,,,,,,,,,,,,,,,,,,
298009,2022-11-29_18h57.57.403,vts_reward_expectancy_bt,2022.2.4,MacIntel,59.99880002,Chrome,1440,900,,,l,0.0325,1,309,1,1,8,20,10,1,0,0,0,1,0,1,0,0,star ,circle,,,,,,,,,,,,,,,,,,,,,,,,,,,,,,,,,,,,,,,,,,,,,,,,,,,,,,
298009,2022-11-29_18h57.57.403,vts_reward_expectancy_bt,2022.2.4,MacIntel,59.99880002,Chrome,1440,900,,,l,0.0655,10,319,1,1,9,21,1,1,1,0,0,0,0,0,1,0,triangle,hexagon,,,,,,,,,,,,,,,,,,,,,,,,,,,,,,,,,,,,,,,,,,,,,,,,,,,,,,
298009,2022-11-29_18h57.57.403,vts_reward_expectancy_bt,2022.2.4,MacIntel,59.99880002,Chrome,1440,900,,,a,0.0006,10,329,1,1,10,22,2,1,1,0,0,0,0,0,0,1,triangle,star,,,,,,,,,,,,,,,,,,,,,,,,,,,,,,,,,,,,,,,,,,,,,,,,,,,,,,
298009,2022-11-29_18h57.57.403,vts_reward_expectancy_bt,2022.2.4,MacIntel,59.99880002,Chrome,1440,900,,,a,0.0683,10,339,1,1,11,23,4,1,0,1,0,0,0,0,1,0,circle,hexagon,,,,,,,,,,,,,,,,,,,,,,,,,,,,,,,,,,,,,,,,,,,,,,,,,,,,,,
298009,2022-11-29_18h57.57.403,vts_reward_expectancy_bt,2022.2.4,MacIntel,59.99880002,Chrome,1440,900,,,a,0.0005,1,340,1,2,0,24,9,1,0,0,0,1,1,0,0,0,star,triangle,,,,,,,,,,,,,,,,,,,,,,,,,,,,,,,,,,,,,,,,,,,,,,,,,,,,,,
298009,2022-11-29_18h57.57.403,vts_reward_expectancy_bt,2022.2.4,MacIntel,59.99880002,Chrome,1440,900,,,l,0.0147,1,341,1,2,1,25,5,1,0,1,0,0,0,0,0,1,circle,star,,,,,,,,,,,,,,,,,,,,,,,,,,,,,,,,,,,,,,,,,,,,,,,,,,,,,,
298009,2022-11-29_18h57.57.403,vts_reward_expectancy_bt,2022.2.4,MacIntel,59.99880002,Chrome,1440,900,,,a,0.137,10,351,1,2,2,26,0,1,1,0,0,0,0,1,0,0,triangle,circle,,,,,,,,,,,,,,,,,,,,,,,,,,,,,,,,,,,,,,,,,,,,,,,,,,,,,,
298009,2022-11-29_18h57.57.403,vts_reward_expectancy_bt,2022.2.4,MacIntel,59.99880002,Chrome,1440,900,,,l,0.5831,1,352,1,2,3,27,10,1,0,0,0,1,0,1,0,0,star ,circle,,,,,,,,,,,,,,,,,,,,,,,,,,,,,,,,,,,,,,,,,,,,,,,,,,,,,,
298009,2022-11-29_18h57.57.403,vts_reward_expectancy_bt,2022.2.4,MacIntel,59.99880002,Chrome,1440,900,,,a,0.1081,10,362,1,2,4,28,6,1,0,0,1,0,1,0,0,0,hexagon,triangle,,,,,,,,,,,,,,,,,,,,,,,,,,,,,,,,,,,,,,,,,,,,,,,,,,,,,,
298009,2022-11-29_18h57.57.403,vts_reward_expectancy_bt,2022.2.4,MacIntel,59.99880002,Chrome,1440,900,,,l,0.0004,10,372,1,2,5,29,4,1,0,1,0,0,0,0,1,0,circle,hexagon,,,,,,,,,,,,,,,,,,,,,,,,,,,,,,,,,,,,,,,,,,,,,,,,,,,,,,
298009,2022-11-29_18h57.57.403,vts_reward_expectancy_bt,2022.2.4,MacIntel,59.99880002,Chrome,1440,900,,,a,0.066,10,382,1,2,6,30,11,1,0,0,0,1,0,0,1,0,star,hexagon,,,,,,,,,,,,,,,,,,,,,,,,,,,,,,,,,,,,,,,,,,,,,,,,,,,,,,
298009,2022-11-29_18h57.57.403,vts_reward_expectancy_bt,2022.2.4,MacIntel,59.99880002,Chrome,1440,900,,,l,0.0516,1,383,1,2,7,31,1,1,1,0,0,0,0,0,1,0,triangle,hexagon,,,,,,,,,,,,,,,,,,,,,,,,,,,,,,,,,,,,,,,,,,,,,,,,,,,,,,
298009,2022-11-29_18h57.57.403,vts_reward_expectancy_bt,2022.2.4,MacIntel,59.99880002,Chrome,1440,900,,,l,0.0731,10,393,1,2,8,32,3,1,0,1,0,0,1,0,0,0,circle,triangle,,,,,,,,,,,,,,,,,,,,,,,,,,,,,,,,,,,,,,,,,,,,,,,,,,,,,,
298009,2022-11-29_18h57.57.403,vts_reward_expectancy_bt,2022.2.4,MacIntel,59.99880002,Chrome,1440,900,,,a,0.0199,10,403,1,2,9,33,7,1,0,0,1,0,0,1,0,0,hexagon,circle,,,,,,,,,,,,,,,,,,,,,,,,,,,,,,,,,,,,,,,,,,,,,,,,,,,,,,
298009,2022-11-29_18h57.57.403,vts_reward_expectancy_bt,2022.2.4,MacIntel,59.99880002,Chrome,1440,900,,,l,0.0664,1,404,1,2,10,34,8,1,0,0,1,0,0,0,0,1,hexagon,star,,,,,,,,,,,,,,,,,,,,,,,,,,,,,,,,,,,,,,,,,,,,,,,,,,,,,,
298009,2022-11-29_18h57.57.403,vts_reward_expectancy_bt,2022.2.4,MacIntel,59.99880002,Chrome,1440,900,,,l,0.0659,10,414,1,2,11,35,2,1,1,0,0,0,0,0,0,1,triangle,star,,,,,,,,,,,,,,,,,,,,,,,,,,,,,,,,,,,,,,,,,,,,,,,,,,,,,,
298009,2022-11-29_18h57.57.403,vts_reward_expectancy_bt,2022.2.4,MacIntel,59.99880002,Chrome,1440,900,,,a,0.645,1,415,2,0,0,0,4,1,0,1,0,0,0,0,1,0,circle,hexagon,,,,,,,,,,,,,,,,,,,,,,,,,,,,,,,,,,,,,,,,,,,,,,,,,,,,,,
298009,2022-11-29_18h57.57.403,vts_reward_expectancy_bt,2022.2.4,MacIntel,59.99880002,Chrome,1440,900,,,a,0.1013,10,425,2,0,1,1,8,1,0,0,1,0,0,0,0,1,hexagon,star,,,,,,,,,,,,,,,,,,,,,,,,,,,,,,,,,,,,,,,,,,,,,,,,,,,,,,
298009,2022-11-29_18h57.57.403,vts_reward_expectancy_bt,2022.2.4,MacIntel,59.99880002,Chrome,1440,900,,,a,0.0488,10,435,2,0,2,2,1,1,1,0,0,0,0,0,1,0,triangle,hexagon,,,,,,,,,,,,,,,,,,,,,,,,,,,,,,,,,,,,,,,,,,,,,,,,,,,,,,
298009,2022-11-29_18h57.57.403,vts_reward_expectancy_bt,2022.2.4,MacIntel,59.99880002,Chrome,1440,900,,,a,0.0004,10,445,2,0,3,3,2,1,1,0,0,0,0,0,0,1,triangle,star,,,,,,,,,,,,,,,,,,,,,,,,,,,,,,,,,,,,,,,,,,,,,,,,,,,,,,
298009,2022-11-29_18h57.57.403,vts_reward_expectancy_bt,2022.2.4,MacIntel,59.99880002,Chrome,1440,900,,,l,0.0003,1,446,2,0,4,4,5,1,0,1,0,0,0,0,0,1,circle,star,,,,,,,,,,,,,,,,,,,,,,,,,,,,,,,,,,,,,,,,,,,,,,,,,,,,,,
298009,2022-11-29_18h57.57.403,vts_reward_expectancy_bt,2022.2.4,MacIntel,59.99880002,Chrome,1440,900,,,a,0.0195,1,447,2,0,5,5,3,1,0,1,0,0,1,0,0,0,circle,triangle,,,,,,,,,,,,,,,,,,,,,,,,,,,,,,,,,,,,,,,,,,,,,,,,,,,,,,
298009,2022-11-29_18h57.57.403,vts_reward_expectancy_bt,2022.2.4,MacIntel,59.99880002,Chrome,1440,900,,,a,0.0148,1,448,2,0,6,6,10,1,0,0,0,1,0,1,0,0,star ,circle,,,,,,,,,,,,,,,,,,,,,,,,,,,,,,,,,,,,,,,,,,,,,,,,,,,,,,
298009,2022-11-29_18h57.57.403,vts_reward_expectancy_bt,2022.2.4,MacIntel,59.99880002,Chrome,1440,900,,,l,0.0034,10,458,2,0,7,7,9,1,0,0,0,1,1,0,0,0,star,triangle,,,,,,,,,,,,,,,,,,,,,,,,,,,,,,,,,,,,,,,,,,,,,,,,,,,,,,
298009,2022-11-29_18h57.57.403,vts_reward_expectancy_bt,2022.2.4,MacIntel,59.99880002,Chrome,1440,900,,,a,0.0039,1,459,2,0,8,8,11,1,0,0,0,1,0,0,1,0,star,hexagon,,,,,,,,,,,,,,,,,,,,,,,,,,,,,,,,,,,,,,,,,,,,,,,,,,,,,,
298009,2022-11-29_18h57.57.403,vts_reward_expectancy_bt,2022.2.4,MacIntel,59.99880002,Chrome,1440,900,,,a,0.0156,10,469,2,0,9,9,7,1,0,0,1,0,0,1,0,0,hexagon,circle,,,,,,,,,,,,,,,,,,,,,,,,,,,,,,,,,,,,,,,,,,,,,,,,,,,,,,
298009,2022-11-29_18h57.57.403,vts_reward_expectancy_bt,2022.2.4,MacIntel,59.99880002,Chrome,1440,900,,,l,0.1168,1,470,2,0,10,10,6,1,0,0,1,0,1,0,0,0,hexagon,triangle,,,,,,,,,,,,,,,,,,,,,,,,,,,,,,,,,,,,,,,,,,,,,,,,,,,,,,
298009,2022-11-29_18h57.57.403,vts_reward_expectancy_bt,2022.2.4,MacIntel,59.99880002,Chrome,1440,900,,,l,0.0313,10,480,2,0,11,11,0,1,1,0,0,0,0,1,0,0,triangle,circle,,,,,,,,,,,,,,,,,,,,,,,,,,,,,,,,,,,,,,,,,,,,,,,,,,,,,,
298009,2022-11-29_18h57.57.403,vts_reward_expectancy_bt,2022.2.4,MacIntel,59.99880002,Chrome,1440,900,,,l,0.0653,1,481,2,1,0,12,9,1,0,0,0,1,1,0,0,0,star,triangle,,,,,,,,,,,,,,,,,,,,,,,,,,,,,,,,,,,,,,,,,,,,,,,,,,,,,,
298009,2022-11-29_18h57.57.403,vts_reward_expectancy_bt,2022.2.4,MacIntel,59.99880002,Chrome,1440,900,,,a,0.0004,10,491,2,1,1,13,1,1,1,0,0,0,0,0,1,0,triangle,hexagon,,,,,,,,,,,,,,,,,,,,,,,,,,,,,,,,,,,,,,,,,,,,,,,,,,,,,,
298009,2022-11-29_18h57.57.403,vts_reward_expectancy_bt,2022.2.4,MacIntel,59.99880002,Chrome,1440,900,,,a,16.04,1,492,2,1,2,14,2,1,1,0,0,0,0,0,0,1,triangle,star,,,,,,,,,,,,,,,,,,,,,,,,,,,,,,,,,,,,,,,,,,,,,,,,,,,,,,
298009,2022-11-29_18h57.57.403,vts_reward_expectancy_bt,2022.2.4,MacIntel,59.99880002,Chrome,1440,900,,,l,0.0522,10,502,2,1,3,15,3,1,0,1,0,0,1,0,0,0,circle,triangle,,,,,,,,,,,,,,,,,,,,,,,,,,,,,,,,,,,,,,,,,,,,,,,,,,,,,,
298009,2022-11-29_18h57.57.403,vts_reward_expectancy_bt,2022.2.4,MacIntel,59.99880002,Chrome,1440,900,,,a,0.032,1,503,2,1,4,16,6,1,0,0,1,0,1,0,0,0,hexagon,triangle,,,,,,,,,,,,,,,,,,,,,,,,,,,,,,,,,,,,,,,,,,,,,,,,,,,,,,
298009,2022-11-29_18h57.57.403,vts_reward_expectancy_bt,2022.2.4,MacIntel,59.99880002,Chrome,1440,900,,,a,0.0012,1,504,2,1,5,17,11,1,0,0,0,1,0,0,1,0,star,hexagon,,,,,,,,,,,,,,,,,,,,,,,,,,,,,,,,,,,,,,,,,,,,,,,,,,,,,,
298009,2022-11-29_18h57.57.403,vts_reward_expectancy_bt,2022.2.4,MacIntel,59.99880002,Chrome,1440,900,,,l,0.0152,10,514,2,1,6,18,7,1,0,0,1,0,0,1,0,0,hexagon,circle,,,,,,,,,,,,,,,,,,,,,,,,,,,,,,,,,,,,,,,,,,,,,,,,,,,,,,
298009,2022-11-29_18h57.57.403,vts_reward_expectancy_bt,2022.2.4,MacIntel,59.99880002,Chrome,1440,900,,,a,0.0716,10,524,2,1,7,19,0,1,1,0,0,0,0,1,0,0,triangle,circle,,,,,,,,,,,,,,,,,,,,,,,,,,,,,,,,,,,,,,,,,,,,,,,,,,,,,,
298009,2022-11-29_18h57.57.403,vts_reward_expectancy_bt,2022.2.4,MacIntel,59.99880002,Chrome,1440,900,,,a,0.1325,10,534,2,1,8,20,4,1,0,1,0,0,0,0,1,0,circle,hexagon,,,,,,,,,,,,,,,,,,,,,,,,,,,,,,,,,,,,,,,,,,,,,,,,,,,,,,
298009,2022-11-29_18h57.57.403,vts_reward_expectancy_bt,2022.2.4,MacIntel,59.99880002,Chrome,1440,900,,,l,0.0346,1,535,2,1,9,21,5,1,0,1,0,0,0,0,0,1,circle,star,,,,,,,,,,,,,,,,,,,,,,,,,,,,,,,,,,,,,,,,,,,,,,,,,,,,,,
298009,2022-11-29_18h57.57.403,vts_reward_expectancy_bt,2022.2.4,MacIntel,59.99880002,Chrome,1440,900,,,l,0.0652,1,536,2,1,10,22,10,1,0,0,0,1,0,1,0,0,star ,circle,,,,,,,,,,,,,,,,,,,,,,,,,,,,,,,,,,,,,,,,,,,,,,,,,,,,,,
298009,2022-11-29_18h57.57.403,vts_reward_expectancy_bt,2022.2.4,MacIntel,59.99880002,Chrome,1440,900,,,a,0.0656,10,546,2,1,11,23,8,1,0,0,1,0,0,0,0,1,hexagon,star,,,,,,,,,,,,,,,,,,,,,,,,,,,,,,,,,,,,,,,,,,,,,,,,,,,,,,
298009,2022-11-29_18h57.57.403,vts_reward_expectancy_bt,2022.2.4,MacIntel,59.99880002,Chrome,1440,900,,,a,0.0005,1,547,2,2,0,24,3,1,0,1,0,0,1,0,0,0,circle,triangle,,,,,,,,,,,,,,,,,,,,,,,,,,,,,,,,,,,,,,,,,,,,,,,,,,,,,,
298009,2022-11-29_18h57.57.403,vts_reward_expectancy_bt,2022.2.4,MacIntel,59.99880002,Chrome,1440,900,,,a,0.0003,1,548,2,2,1,25,4,1,0,1,0,0,0,0,1,0,circle,hexagon,,,,,,,,,,,,,,,,,,,,,,,,,,,,,,,,,,,,,,,,,,,,,,,,,,,,,,
298009,2022-11-29_18h57.57.403,vts_reward_expectancy_bt,2022.2.4,MacIntel,59.99880002,Chrome,1440,900,,,a,0.0991,1,549,2,2,2,26,11,1,0,0,0,1,0,0,1,0,star,hexagon,,,,,,,,,,,,,,,,,,,,,,,,,,,,,,,,,,,,,,,,,,,,,,,,,,,,,,
298009,2022-11-29_18h57.57.403,vts_reward_expectancy_bt,2022.2.4,MacIntel,59.99880002,Chrome,1440,900,,,l,0.9506,1,550,2,2,3,27,10,1,0,0,0,1,0,1,0,0,star ,circle,,,,,,,,,,,,,,,,,,,,,,,,,,,,,,,,,,,,,,,,,,,,,,,,,,,,,,
298009,2022-11-29_18h57.57.403,vts_reward_expectancy_bt,2022.2.4,MacIntel,59.99880002,Chrome,1440,900,,,l,0.0033,10,560,2,2,4,28,7,1,0,0,1,0,0,1,0,0,hexagon,circle,,,,,,,,,,,,,,,,,,,,,,,,,,,,,,,,,,,,,,,,,,,,,,,,,,,,,,
298009,2022-11-29_18h57.57.403,vts_reward_expectancy_bt,2022.2.4,MacIntel,59.99880002,Chrome,1440,900,,,l,0.0904,1,561,2,2,5,29,5,1,0,1,0,0,0,0,0,1,circle,star,,,,,,,,,,,,,,,,,,,,,,,,,,,,,,,,,,,,,,,,,,,,,,,,,,,,,,
298009,2022-11-29_18h57.57.403,vts_reward_expectancy_bt,2022.2.4,MacIntel,59.99880002,Chrome,1440,900,,,l,0.0565,1,562,2,2,6,30,2,1,1,0,0,0,0,0,0,1,triangle,star,,,,,,,,,,,,,,,,,,,,,,,,,,,,,,,,,,,,,,,,,,,,,,,,,,,,,,
298009,2022-11-29_18h57.57.403,vts_reward_expectancy_bt,2022.2.4,MacIntel,59.99880002,Chrome,1440,900,,,l,0.0004,1,563,2,2,7,31,0,1,1,0,0,0,0,1,0,0,triangle,circle,,,,,,,,,,,,,,,,,,,,,,,,,,,,,,,,,,,,,,,,,,,,,,,,,,,,,,
298009,2022-11-29_18h57.57.403,vts_reward_expectancy_bt,2022.2.4,MacIntel,59.99880002,Chrome,1440,900,,,a,0.9878,1,564,2,2,8,32,6,1,0,0,1,0,1,0,0,0,hexagon,triangle,,,,,,,,,,,,,,,,,,,,,,,,,,,,,,,,,,,,,,,,,,,,,,,,,,,,,,
298009,2022-11-29_18h57.57.403,vts_reward_expectancy_bt,2022.2.4,MacIntel,59.99880002,Chrome,1440,900,,,l,0.0899,1,565,2,2,9,33,8,1,0,0,1,0,0,0,0,1,hexagon,star,,,,,,,,,,,,,,,,,,,,,,,,,,,,,,,,,,,,,,,,,,,,,,,,,,,,,,
298009,2022-11-29_18h57.57.403,vts_reward_expectancy_bt,2022.2.4,MacIntel,59.99880002,Chrome,1440,900,,,l,0.0159,1,566,2,2,10,34,1,1,1,0,0,0,0,0,1,0,triangle,hexagon,,,,,,,,,,,,,,,,,,,,,,,,,,,,,,,,,,,,,,,,,,,,,,,,,,,,,,
298009,2022-11-29_18h57.57.403,vts_reward_expectancy_bt,2022.2.4,MacIntel,59.99880002,Chrome,1440,900,,,l,0.0156,10,576,2,2,11,35,9,1,0,0,0,1,1,0,0,0,star,triangle,,,,,,,,,,,,,,,,,,,,,,,,,,,,,,,,,,,,,,,,,,,,,,,,,,,,,,
298009,2022-11-29_18h57.57.403,vts_reward_expectancy_bt,2022.2.4,MacIntel,59.99880002,Chrome,1440,900,,,,,,,,,,,,,,,,,,,,,,,S,167,triangle,0,0,,0,0,0,0,0,1,,,,,,,,,,,,,,,,,,,,,,,,,,,,,,,,,,,,,,,,,,
298009,2022-11-29_18h57.57.403,vts_reward_expectancy_bt,2022.2.4,MacIntel,59.99880002,Chrome,1440,900,,,,,,,,,,,,,,,,,,,,,,,F,139,circle,0,1,f,0,1,0,1,0,1,0.3131,,,,,,,,,,,,,,,,,,,,,,,,,,,,,,,,,,,,,,,,,
298009,2022-11-29_18h57.57.403,vts_reward_expectancy_bt,2022.2.4,MacIntel,59.99880002,Chrome,1440,900,,,,,,,,,,,,,,,,,,,,,,,H,181,star,0,1,f,0,2,0,2,0,1,0.0205,,,,,,,,,,,,,,,,,,,,,,,,,,,,,,,,,,,,,,,,,
298009,2022-11-29_18h57.57.403,vts_reward_expectancy_bt,2022.2.4,MacIntel,59.99880002,Chrome,1440,900,,,,,,,,,,,,,,,,,,,,,,,U,132,hexagon,1,1,f,0,3,0,3,0,1,0.0659,,,,,,,,,,,,,,,,,,,,,,,,,,,,,,,,,,,,,,,,,
298009,2022-11-29_18h57.57.403,vts_reward_expectancy_bt,2022.2.4,MacIntel,59.99880002,Chrome,1440,900,,,,,,,,,,,,,,,,,,,,,,,D,125,triangle,0,0,f,0,4,0,4,0,1,0.0368,,,,,,,,,,,,,,,,,,,,,,,,,,,,,,,,,,,,,,,,,
298009,2022-11-29_18h57.57.403,vts_reward_expectancy_bt,2022.2.4,MacIntel,59.99880002,Chrome,1440,900,,,,,,,,,,,,,,,,,,,,,,,W,146,circle,1,1,f,0,5,0,5,0,1,0.0808,,,,,,,,,,,,,,,,,,,,,,,,,,,,,,,,,,,,,,,,,
298009,2022-11-29_18h57.57.403,vts_reward_expectancy_bt,2022.2.4,MacIntel,59.99880002,Chrome,1440,900,,,,,,,,,,,,,,,,,,,,,,,Y,174,star,0,0,d,0,6,0,6,0,1,0.0484,,,,,,,,,,,,,,,,,,,,,,,,,,,,,,,,,,,,,,,,,
298009,2022-11-29_18h57.57.403,vts_reward_expectancy_bt,2022.2.4,MacIntel,59.99880002,Chrome,1440,900,,,,,,,,,,,,,,,,,,,,,,,B,160,hexagon,0,1,f,0,7,0,7,0,1,0.0143,,,,,,,,,,,,,,,,,,,,,,,,,,,,,,,,,,,,,,,,,
298009,2022-11-29_18h57.57.403,vts_reward_expectancy_bt,2022.2.4,MacIntel,59.99880002,Chrome,1440,900,,,,,,,,,,,,,,,,,,,,,,,S,167,triangle,0,1,d,0,8,0,8,0,1,1.0953,,,,,,,,,,,,,,,,,,,,,,,,,,,,,,,,,,,,,,,,,
298009,2022-11-29_18h57.57.403,vts_reward_expectancy_bt,2022.2.4,MacIntel,59.99880002,Chrome,1440,900,,,,,,,,,,,,,,,,,,,,,,,F,139,star,1,1,d,0,9,0,9,0,1,0.9138,,,,,,,,,,,,,,,,,,,,,,,,,,,,,,,,,,,,,,,,,
298009,2022-11-29_18h57.57.403,vts_reward_expectancy_bt,2022.2.4,MacIntel,59.99880002,Chrome,1440,900,,,,,,,,,,,,,,,,,,,,,,,S,160,circle,1,0,f,1,0,0,0,0,1,0.8515,,,,,,,,,,,,,,,,,,,,,,,,,,,,,,,,,,,,,,,,,
298009,2022-11-29_18h57.57.403,vts_reward_expectancy_bt,2022.2.4,MacIntel,59.99880002,Chrome,1440,900,,,,,,,,,,,,,,,,,,,,,,,Y,125,triangle,1,0,f,1,1,0,1,0,1,0.6315,,,,,,,,,,,,,,,,,,,,,,,,,,,,,,,,,,,,,,,,,
298009,2022-11-29_18h57.57.403,vts_reward_expectancy_bt,2022.2.4,MacIntel,59.99880002,Chrome,1440,900,,,,,,,,,,,,,,,,,,,,,,,H,174,hexagon,0,0,f,1,2,0,2,0,1,0.6851,,,,,,,,,,,,,,,,,,,,,,,,,,,,,,,,,,,,,,,,,
298009,2022-11-29_18h57.57.403,vts_reward_expectancy_bt,2022.2.4,MacIntel,59.99880002,Chrome,1440,900,,,,,,,,,,,,,,,,,,,,,,,U,146,star,0,1,d,1,3,0,3,0,1,1.5213,,,,,,,,,,,,,,,,,,,,,,,,,,,,,,,,,,,,,,,,,
298009,2022-11-29_18h57.57.403,vts_reward_expectancy_bt,2022.2.4,MacIntel,59.99880002,Chrome,1440,900,,,,,,,,,,,,,,,,,,,,,,,F,167,circle,1,1,d,1,4,0,4,0,1,0.6634,,,,,,,,,,,,,,,,,,,,,,,,,,,,,,,,,,,,,,,,,
298009,2022-11-29_18h57.57.403,vts_reward_expectancy_bt,2022.2.4,MacIntel,59.99880002,Chrome,1440,900,,,,,,,,,,,,,,,,,,,,,,,B,181,triangle,1,0,d,1,5,0,5,0,1,0.5173,,,,,,,,,,,,,,,,,,,,,,,,,,,,,,,,,,,,,,,,,
298009,2022-11-29_18h57.57.403,vts_reward_expectancy_bt,2022.2.4,MacIntel,59.99880002,Chrome,1440,900,,,,,,,,,,,,,,,,,,,,,,,W,132,hexagon,0,0,d,1,6,0,6,0,1,1.0986,,,,,,,,,,,,,,,,,,,,,,,,,,,,,,,,,,,,,,,,,
298009,2022-11-29_18h57.57.403,vts_reward_expectancy_bt,2022.2.4,MacIntel,59.99880002,Chrome,1440,900,,,,,,,,,,,,,,,,,,,,,,,D,139,star,1,1,d,1,7,0,7,0,1,0.6478,,,,,,,,,,,,,,,,,,,,,,,,,,,,,,,,,,,,,,,,,
298009,2022-11-29_18h57.57.403,vts_reward_expectancy_bt,2022.2.4,MacIntel,59.99880002,Chrome,1440,900,,,,,,,,,,,,,,,,,,,,,,,S,160,triangle,1,0,f,1,8,0,8,0,1,0.7977,,,,,,,,,,,,,,,,,,,,,,,,,,,,,,,,,,,,,,,,,
298009,2022-11-29_18h57.57.403,vts_reward_expectancy_bt,2022.2.4,MacIntel,59.99880002,Chrome,1440,900,,,,,,,,,,,,,,,,,,,,,,,Y,125,circle,1,0,f,1,9,0,9,0,1,0.6476,,,,,,,,,,,,,,,,,,,,,,,,,,,,,,,,,,,,,,,,,
298009,2022-11-29_18h57.57.403,vts_reward_expectancy_bt,2022.2.4,MacIntel,59.99880002,Chrome,1440,900,,,,,,,,,,,,,,,,,,,,,,,D,132,star,1,0,d,2,0,0,0,0,1,0.6147,,,,,,,,,,,,,,,,,,,,,,,,,,,,,,,,,,,,,,,,,
298009,2022-11-29_18h57.57.403,vts_reward_expectancy_bt,2022.2.4,MacIntel,59.99880002,Chrome,1440,900,,,,,,,,,,,,,,,,,,,,,,,H,139,triangle,1,0,d,2,1,0,1,0,1,1.0141,,,,,,,,,,,,,,,,,,,,,,,,,,,,,,,,,,,,,,,,,
298009,2022-11-29_18h57.57.403,vts_reward_expectancy_bt,2022.2.4,MacIntel,59.99880002,Chrome,1440,900,,,,,,,,,,,,,,,,,,,,,,,F,167,hexagon,1,0,d,2,2,0,2,0,1,0.5998,,,,,,,,,,,,,,,,,,,,,,,,,,,,,,,,,,,,,,,,,
298009,2022-11-29_18h57.57.403,vts_reward_expectancy_bt,2022.2.4,MacIntel,59.99880002,Chrome,1440,900,,,,,,,,,,,,,,,,,,,,,,,W,181,circle,1,0,f,2,3,0,3,0,1,1.0985,,,,,,,,,,,,,,,,,,,,,,,,,,,,,,,,,,,,,,,,,
298009,2022-11-29_18h57.57.403,vts_reward_expectancy_bt,2022.2.4,MacIntel,59.99880002,Chrome,1440,900,,,,,,,,,,,,,,,,,,,,,,,B,146,star,1,0,d,2,4,0,4,0,1,0.6638,,,,,,,,,,,,,,,,,,,,,,,,,,,,,,,,,,,,,,,,,
298009,2022-11-29_18h57.57.403,vts_reward_expectancy_bt,2022.2.4,MacIntel,59.99880002,Chrome,1440,900,,,,,,,,,,,,,,,,,,,,,,,S,174,triangle,1,0,f,2,5,0,5,0,1,0.7473,,,,,,,,,,,,,,,,,,,,,,,,,,,,,,,,,,,,,,,,,
298009,2022-11-29_18h57.57.403,vts_reward_expectancy_bt,2022.2.4,MacIntel,59.99880002,Chrome,1440,900,,,,,,,,,,,,,,,,,,,,,,,U,125,hexagon,1,0,f,2,6,0,6,0,1,1.6344,,,,,,,,,,,,,,,,,,,,,,,,,,,,,,,,,,,,,,,,,
298009,2022-11-29_18h57.57.403,vts_reward_expectancy_bt,2022.2.4,MacIntel,59.99880002,Chrome,1440,900,,,,,,,,,,,,,,,,,,,,,,,Y,160,circle,1,0,f,2,7,0,7,0,1,0.7384,,,,,,,,,,,,,,,,,,,,,,,,,,,,,,,,,,,,,,,,,
298009,2022-11-29_18h57.57.403,vts_reward_expectancy_bt,2022.2.4,MacIntel,59.99880002,Chrome,1440,900,,,,,,,,,,,,,,,,,,,,,,,D,132,hexagon,1,0,d,2,8,0,8,0,1,0.6141,,,,,,,,,,,,,,,,,,,,,,,,,,,,,,,,,,,,,,,,,
298009,2022-11-29_18h57.57.403,vts_reward_expectancy_bt,2022.2.4,MacIntel,59.99880002,Chrome,1440,900,,,,,,,,,,,,,,,,,,,,,,,H,139,triangle,0,0,f,2,9,0,9,0,1,1.0647,,,,,,,,,,,,,,,,,,,,,,,,,,,,,,,,,,,,,,,,,
298009,2022-11-29_18h57.57.403,vts_reward_expectancy_bt,2022.2.4,MacIntel,59.99880002,Chrome,1440,900,,,,,,,,,,,,,,,,,,,,,,,W,160,triangle,1,1,,3,,,,,,,k,1.205,0,0,0,0,1,,,,,,,,,,,,,,,,,,,,,,,,,,,,,,,,,,
298009,2022-11-29_18h57.57.403,vts_reward_expectancy_bt,2022.2.4,MacIntel,59.99880002,Chrome,1440,900,,,,,,,,,,,,,,,,,,,,,,,F,174,hexagon,1,0,,3,,,,,,,k,0.7808,1,0,1,0,1,,,,,,,,,,,,,,,,,,,,,,,,,,,,,,,,,,
298009,2022-11-29_18h57.57.403,vts_reward_expectancy_bt,2022.2.4,MacIntel,59.99880002,Chrome,1440,900,,,,,,,,,,,,,,,,,,,,,,,U,132,star,1,0,,3,,,,,,,j,0.5309,2,0,2,0,1,,,,,,,,,,,,,,,,,,,,,,,,,,,,,,,,,,
298009,2022-11-29_18h57.57.403,vts_reward_expectancy_bt,2022.2.4,MacIntel,59.99880002,Chrome,1440,900,,,,,,,,,,,,,,,,,,,,,,,D,167,circle,1,0,,3,,,,,,,k,0.4811,3,0,3,0,1,,,,,,,,,,,,,,,,,,,,,,,,,,,,,,,,,,
298009,2022-11-29_18h57.57.403,vts_reward_expectancy_bt,2022.2.4,MacIntel,59.99880002,Chrome,1440,900,,,,,,,,,,,,,,,,,,,,,,,B,181,triangle,1,0,,3,,,,,,,k,0.5334,4,0,4,0,1,,,,,,,,,,,,,,,,,,,,,,,,,,,,,,,,,,
298009,2022-11-29_18h57.57.403,vts_reward_expectancy_bt,2022.2.4,MacIntel,59.99880002,Chrome,1440,900,,,,,,,,,,,,,,,,,,,,,,,S,146,hexagon,1,0,,3,,,,,,,j,0.7488,5,0,5,0,1,,,,,,,,,,,,,,,,,,,,,,,,,,,,,,,,,,
298009,2022-11-29_18h57.57.403,vts_reward_expectancy_bt,2022.2.4,MacIntel,59.99880002,Chrome,1440,900,,,,,,,,,,,,,,,,,,,,,,,Y,125,star,1,0,,3,,,,,,,j,0.6365,6,0,6,0,1,,,,,,,,,,,,,,,,,,,,,,,,,,,,,,,,,,
298009,2022-11-29_18h57.57.403,vts_reward_expectancy_bt,2022.2.4,MacIntel,59.99880002,Chrome,1440,900,,,,,,,,,,,,,,,,,,,,,,,H,139,circle,1,0,,3,,,,,,,j,1.0344,7,0,7,0,1,,,,,,,,,,,,,,,,,,,,,,,,,,,,,,,,,,
298009,2022-11-29_18h57.57.403,vts_reward_expectancy_bt,2022.2.4,MacIntel,59.99880002,Chrome,1440,900,,,,,,,,,,,,,,,,,,,,,,,W,160,star,1,0,,3,,,,,,,k,0.6477,8,0,8,0,1,,,,,,,,,,,,,,,,,,,,,,,,,,,,,,,,,,
298009,2022-11-29_18h57.57.403,vts_reward_expectancy_bt,2022.2.4,MacIntel,59.99880002,Chrome,1440,900,,,,,,,,,,,,,,,,,,,,,,,F,174,circle,1,0,,3,,,,,,,k,0.714,9,0,9,0,1,,,,,,,,,,,,,,,,,,,,,,,,,,,,,,,,,,
298009,2022-11-29_18h57.57.403,vts_reward_expectancy_bt,2022.2.4,MacIntel,59.99880002,Chrome,1440,900,,,,,0,576,,,,,,,,,,,,,,,,,D,160,hexagon,1,0,,4,,,,,,,,,,,,,,-1,letter,NA,d,1.3527,vtsPrac,0,0,0,0,1,,,,,,,,,,,,,,,,,,,,,,,
298009,2022-11-29_18h57.57.403,vts_reward_expectancy_bt,2022.2.4,MacIntel,59.99880002,Chrome,1440,900,,,,,0,576,,,,,,,,,,,,,,,,,F,167,circle,1,0,,4,,,,,,,,,,,,,,switch,number,numSwt,k,1.0145,vtsPrac,1,0,1,0,1,,,,,,,,,,,,,,,,,,,,,,,
298009,2022-11-29_18h57.57.403,vts_reward_expectancy_bt,2022.2.4,MacIntel,59.99880002,Chrome,1440,900,,,,,0,576,,,,,,,,,,,,,,,,,W,181,hexagon,1,0,,4,,,,,,,,,,,,,,switch,letter,lettSwt,f,0.6143,vtsPrac,2,0,2,0,1,,,,,,,,,,,,,,,,,,,,,,,
298009,2022-11-29_18h57.57.403,vts_reward_expectancy_bt,2022.2.4,MacIntel,59.99880002,Chrome,1440,900,,,,,0,576,,,,,,,,,,,,,,,,,U,132,circle,1,0,,4,,,,,,,,,,,,,,switch,number,numSwt,j,0.6032,vtsPrac,3,0,3,0,1,,,,,,,,,,,,,,,,,,,,,,,
298009,2022-11-29_18h57.57.403,vts_reward_expectancy_bt,2022.2.4,MacIntel,59.99880002,Chrome,1440,900,,,,,0,576,,,,,,,,,,,,,,,,,D,160,star,1,0,,4,,,,,,,,,,,,,,switch,letter,lettSwt,d,0.8168,vtsPrac,4,0,4,0,1,,,,,,,,,,,,,,,,,,,,,,,
298009,2022-11-29_18h57.57.403,vts_reward_expectancy_bt,2022.2.4,MacIntel,59.99880002,Chrome,1440,900,,,,,0,576,,,,,,,,,,,,,,,,,F,167,circle,1,0,,4,,,,,,,,,,,,,,switch,number,numSwt,k,0.7145,vtsPrac,5,0,5,0,1,,,,,,,,,,,,,,,,,,,,,,,
298009,2022-11-29_18h57.57.403,vts_reward_expectancy_bt,2022.2.4,MacIntel,59.99880002,Chrome,1440,900,,,,,0,576,,,,,,,,,,,,,,,,,W,181,triangle,1,0,,4,,,,,,,,,,,,,,switch,letter,lettSwt,f,0.865,vtsPrac,6,0,6,0,1,,,,,,,,,,,,,,,,,,,,,,,
298009,2022-11-29_18h57.57.403,vts_reward_expectancy_bt,2022.2.4,MacIntel,59.99880002,Chrome,1440,900,,,,,0,576,,,,,,,,,,,,,,,,,U,132,circle,1,0,,4,,,,,,,,,,,,,,switch,number,numSwt,j,1.1037,vtsPrac,7,0,7,0,1,,,,,,,,,,,,,,,,,,,,,,,
298009,2022-11-29_18h57.57.403,vts_reward_expectancy_bt,2022.2.4,MacIntel,59.99880002,Chrome,1440,900,,,,,0,576,,,,,,,,,,,,,,,,,Y,160,star,1,0,,4,,,,,,,,,,,,,,switch,letter,lettSwt,f,1.55,vtsPrac,8,0,8,0,1,,,,,,,,,,,,,,,,,,,,,,,
298009,2022-11-29_18h57.57.403,vts_reward_expectancy_bt,2022.2.4,MacIntel,59.99880002,Chrome,1440,900,,,,,0,576,,,,,,,,,,,,,,,,,B,167,hexagon,1,0,,4,,,,,,,,,,,,,,switch,number,numSwt,k,0.8311,vtsPrac,9,0,9,0,1,,,,,,,,,,,,,,,,,,,,,,,
298009,2022-11-29_18h57.57.403,vts_reward_expectancy_bt,2022.2.4,MacIntel,59.99880002,Chrome,1440,900,,,,,0,576,,,,,,,,,,,,,,,,,H,139,hexagon,1,0,,4,,,,,,,,,,,,,,switch,letter,lettSwt,d,0.935,vtsPrac,10,0,10,0,1,,,,,,,,,,,,,,,,,,,,,,,
298009,2022-11-29_18h57.57.403,vts_reward_expectancy_bt,2022.2.4,MacIntel,59.99880002,Chrome,1440,900,,,,,0,576,,,,,,,,,,,,,,,,,F,125,star,1,0,,4,,,,,,,,,,,,,,repeat,letter,lettRpt,d,0.8805,vtsPrac,11,0,11,0,1,,,,,,,,,,,,,,,,,,,,,,,
298009,2022-11-29_18h57.57.403,vts_reward_expectancy_bt,2022.2.4,MacIntel,59.99880002,Chrome,1440,900,,,,,0,576,,,,,,,,,,,,,,,,,S,174,circle,1,0,,4,,,,,,,,,,,,,,switch,number,numSwt,k,1.0827,vtsPrac,12,0,12,0,1,,,,,,,,,,,,,,,,,,,,,,,
298009,2022-11-29_18h57.57.403,vts_reward_expectancy_bt,2022.2.4,MacIntel,59.99880002,Chrome,1440,900,,,,,0,576,,,,,,,,,,,,,,,,,D,181,hexagon,1,0,,4,,,,,,,,,,,,,,repeat,number,numRpt,k,0.6632,vtsPrac,13,0,13,0,1,,,,,,,,,,,,,,,,,,,,,,,
298009,2022-11-29_18h57.57.403,vts_reward_expectancy_bt,2022.2.4,MacIntel,59.99880002,Chrome,1440,900,,,,,0,576,,,,,,,,,,,,,,,,,U,125,star,1,0,,4,,,,,,,,,,,,,,switch,letter,lettSwt,f,1.0304,vtsPrac,14,0,14,0,1,,,,,,,,,,,,,,,,,,,,,,,
298009,2022-11-29_18h57.57.403,vts_reward_expectancy_bt,2022.2.4,MacIntel,59.99880002,Chrome,1440,900,,,,,0,576,,,,,,,,,,,,,,,,,H,132,circle,1,0,,4,,,,,,,,,,,,,,switch,number,numSwt,j,0.772,vtsPrac,15,0,15,0,1,,,,,,,,,,,,,,,,,,,,,,,
298009,2022-11-29_18h57.57.403,vts_reward_expectancy_bt,2022.2.4,MacIntel,59.99880002,Chrome,1440,900,,,,,0,576,,,,,,,,,,,,,,,,,F,132,triangle,1,0,,4,,,,,,,,,,,,,,switch,letter,lettSwt,d,0.7329,vtsPrac,16,0,16,0,1,,,,,,,,,,,,,,,,,,,,,,,
298009,2022-11-29_18h57.57.403,vts_reward_expectancy_bt,2022.2.4,MacIntel,59.99880002,Chrome,1440,900,,,,,0,576,,,,,,,,,,,,,,,,,B,146,hexagon,1,0,,4,,,,,,,,,,,,,,switch,number,numSwt,j,0.9148,vtsPrac,17,0,17,0,1,,,,,,,,,,,,,,,,,,,,,,,
298009,2022-11-29_18h57.57.403,vts_reward_expectancy_bt,2022.2.4,MacIntel,59.99880002,Chrome,1440,900,,,,,0,576,,,,,,,,,,,,,,,,,H,125,circle,1,0,,4,,,,,,,,,,,,,,switch,letter,lettSwt,d,0.9822,vtsPrac,18,0,18,0,1,,,,,,,,,,,,,,,,,,,,,,,
298009,2022-11-29_18h57.57.403,vts_reward_expectancy_bt,2022.2.4,MacIntel,59.99880002,Chrome,1440,900,,,,,0,576,,,,,,,,,,,,,,,,,S,181,star,1,0,,4,,,,,,,,,,,,,,switch,number,numSwt,k,1.288,vtsPrac,19,0,19,0,1,,,,,,,,,,,,,,,,,,,,,,,
298009,2022-11-29_18h57.57.403,vts_reward_expectancy_bt,2022.2.4,MacIntel,59.99880002,Chrome,1440,900,,,,,0,576,,,,,,,,,,,,,,,,,Y,181,circle,1,0,,4,,,,,,,,,,,,,,switch,letter,lettSwt,f,0.817,vtsPrac,20,0,20,0,1,,,,,,,,,,,,,,,,,,,,,,,
298009,2022-11-29_18h57.57.403,vts_reward_expectancy_bt,2022.2.4,MacIntel,59.99880002,Chrome,1440,900,,,,,0,576,,,,,,,,,,,,,,,,,H,125,hexagon,1,0,,4,,,,,,,,,,,,,,switch,number,numSwt,j,0.6146,vtsPrac,21,0,21,0,1,,,,,,,,,,,,,,,,,,,,,,,
298009,2022-11-29_18h57.57.403,vts_reward_expectancy_bt,2022.2.4,MacIntel,59.99880002,Chrome,1440,900,,,,,0,576,,,,,,,,,,,,,,,,,W,139,circle,1,0,,4,,,,,,,,,,,,,,switch,letter,lettSwt,f,1.4218,vtsPrac,22,0,22,0,1,,,,,,,,,,,,,,,,,,,,,,,
298009,2022-11-29_18h57.57.403,vts_reward_expectancy_bt,2022.2.4,MacIntel,59.99880002,Chrome,1440,900,,,,,0,576,,,,,,,,,,,,,,,,,B,146,triangle,1,0,,4,,,,,,,,,,,,,,switch,number,numSwt,j,0.9147,vtsPrac,23,0,23,0,1,,,,,,,,,,,,,,,,,,,,,,,
298009,2022-11-29_18h57.57.403,vts_reward_expectancy_bt,2022.2.4,MacIntel,59.99880002,Chrome,1440,900,,,,,0,576,,,,,,,,,,,,,,,,,Y,181,hexagon,1,0,,4,,,,,,,,,,,,,,switch,letter,lettSwt,f,1.6483,vtsPrac,24,0,24,0,1,,,,,,,,,,,,,,,,,,,,,,,
298009,2022-11-29_18h57.57.403,vts_reward_expectancy_bt,2022.2.4,MacIntel,59.99880002,Chrome,1440,900,,,,,0,576,,,,,,,,,,,,,,,,,W,132,triangle,1,0,,4,,,,,,,,,,,,,,switch,number,numSwt,j,1.0798,vtsPrac,25,0,25,0,1,,,,,,,,,,,,,,,,,,,,,,,
298009,2022-11-29_18h57.57.403,vts_reward_expectancy_bt,2022.2.4,MacIntel,59.99880002,Chrome,1440,900,,,,,0,576,,,,,,,,,,,,,,,,,B,174,triangle,1,0,,4,,,,,,,,,,,,,,switch,letter,lettSwt,d,0.8144,vtsPrac,26,0,26,0,1,,,,,,,,,,,,,,,,,,,,,,,
298009,2022-11-29_18h57.57.403,vts_reward_expectancy_bt,2022.2.4,MacIntel,59.99880002,Chrome,1440,900,,,,,0,576,,,,,,,,,,,,,,,,,U,139,hexagon,1,0,,4,,,,,,,,,,,,,,switch,number,numSwt,j,0.621,vtsPrac,27,0,27,0,1,,,,,,,,,,,,,,,,,,,,,,,
298009,2022-11-29_18h57.57.403,vts_reward_expectancy_bt,2022.2.4,MacIntel,59.99880002,Chrome,1440,900,,,,,0,576,,,,,,,,,,,,,,,,,Y,146,star,1,0,,4,,,,,,,,,,,,,,switch,letter,lettSwt,f,1.1149,vtsPrac,28,0,28,0,1,,,,,,,,,,,,,,,,,,,,,,,
298009,2022-11-29_18h57.57.403,vts_reward_expectancy_bt,2022.2.4,MacIntel,59.99880002,Chrome,1440,900,,,,,0,576,,,,,,,,,,,,,,,,,F,125,triangle,1,0,,4,,,,,,,,,,,,,,switch,number,numSwt,j,0.8313,vtsPrac,29,0,29,0,1,,,,,,,,,,,,,,,,,,,,,,,
298009,2022-11-29_18h57.57.403,vts_reward_expectancy_bt,2022.2.4,MacIntel,59.99880002,Chrome,1440,900,,,,,0,576,,,,,,,,,,,,,,,,,U,181,hexagon,1,0,,4,,,,,,,,,,,,,,switch,letter,lettSwt,f,0.6976,vtsPrac,30,0,30,0,1,,,,,,,,,,,,,,,,,,,,,,,
298009,2022-11-29_18h57.57.403,vts_reward_expectancy_bt,2022.2.4,MacIntel,59.99880002,Chrome,1440,900,,,,,0,576,,,,,,,,,,,,,,,,,H,167,circle,1,0,,4,,,,,,,,,,,,,,switch,number,numSwt,k,0.9665,vtsPrac,31,0,31,0,1,,,,,,,,,,,,,,,,,,,,,,,
298009,2022-11-29_18h57.57.403,vts_reward_expectancy_bt,2022.2.4,MacIntel,59.99880002,Chrome,1440,900,,,,,0,576,,,,,,,,,,,,,,,,,D,174,triangle,1,0,,5,,,,,,,,,,,,,,switch,letter,lettSwt,d,0.8645,vtsPrac,0,0,0,0,1,,,,,,,,,,,,,,,,,,,,,,,
298009,2022-11-29_18h57.57.403,vts_reward_expectancy_bt,2022.2.4,MacIntel,59.99880002,Chrome,1440,900,,,,,0,576,,,,,,,,,,,,,,,,,S,146,star,1,0,,5,,,,,,,,,,,,,,switch,number,numSwt,j,0.7158,vtsPrac,1,0,1,0,1,,,,,,,,,,,,,,,,,,,,,,,
298009,2022-11-29_18h57.57.403,vts_reward_expectancy_bt,2022.2.4,MacIntel,59.99880002,Chrome,1440,900,,,,,0,576,,,,,,,,,,,,,,,,,H,139,triangle,1,0,,5,,,,,,,,,,,,,,switch,letter,lettSwt,d,0.8644,vtsPrac,2,0,2,0,1,,,,,,,,,,,,,,,,,,,,,,,
298009,2022-11-29_18h57.57.403,vts_reward_expectancy_bt,2022.2.4,MacIntel,59.99880002,Chrome,1440,900,,,,,0,576,,,,,,,,,,,,,,,,,Y,125,star,1,0,,5,,,,,,,,,,,,,,switch,number,numSwt,j,0.6829,vtsPrac,3,0,3,0,1,,,,,,,,,,,,,,,,,,,,,,,
298009,2022-11-29_18h57.57.403,vts_reward_expectancy_bt,2022.2.4,MacIntel,59.99880002,Chrome,1440,900,,,,,0,576,,,,,,,,,,,,,,,,,D,174,star,1,0,,5,,,,,,,,,,,,,,switch,letter,lettSwt,d,1.6142,vtsPrac,4,0,4,0,1,,,,,,,,,,,,,,,,,,,,,,,
298009,2022-11-29_18h57.57.403,vts_reward_expectancy_bt,2022.2.4,MacIntel,59.99880002,Chrome,1440,900,,,,,0,576,,,,,,,,,,,,,,,,,S,146,hexagon,1,0,,5,,,,,,,,,,,,,,switch,number,numSwt,j,1.3139,vtsPrac,5,0,5,0,1,,,,,,,,,,,,,,,,,,,,,,,
298009,2022-11-29_18h57.57.403,vts_reward_expectancy_bt,2022.2.4,MacIntel,59.99880002,Chrome,1440,900,,,,,0,576,,,,,,,,,,,,,,,,,H,139,triangle,1,0,,5,,,,,,,,,,,,,,switch,letter,lettSwt,d,0.8145,vtsPrac,6,0,6,0,1,,,,,,,,,,,,,,,,,,,,,,,
298009,2022-11-29_18h57.57.403,vts_reward_expectancy_bt,2022.2.4,MacIntel,59.99880002,Chrome,1440,900,,,,,0,576,,,,,,,,,,,,,,,,,Y,125,circle,1,0,,5,,,,,,,,,,,,,,switch,number,numSwt,j,1.0466,vtsPrac,7,0,7,0,1,,,,,,,,,,,,,,,,,,,,,,,
298009,2022-11-29_18h57.57.403,vts_reward_expectancy_bt,2022.2.4,MacIntel,59.99880002,Chrome,1440,900,,,,,0,576,,,,,,,,,,,,,,,,,S,139,star,1,0,,5,,,,,,,,,,,,,,switch,letter,lettSwt,f,1.1195,vtsPrac,8,0,8,0,1,,,,,,,,,,,,,,,,,,,,,,,
298009,2022-11-29_18h57.57.403,vts_reward_expectancy_bt,2022.2.4,MacIntel,59.99880002,Chrome,1440,900,,,,,0,576,,,,,,,,,,,,,,,,,Y,132,hexagon,1,0,,5,,,,,,,,,,,,,,switch,number,numSwt,j,0.5331,vtsPrac,9,0,9,0,1,,,,,,,,,,,,,,,,,,,,,,,
298009,2022-11-29_18h57.57.403,vts_reward_expectancy_bt,2022.2.4,MacIntel,59.99880002,Chrome,1440,900,,,,,0,576,,,,,,,,,,,,,,,,,F,125,triangle,1,0,,5,,,,,,,,,,,,,,switch,letter,lettSwt,d,0.766,vtsPrac,10,0,10,0,1,,,,,,,,,,,,,,,,,,,,,,,
298009,2022-11-29_18h57.57.403,vts_reward_expectancy_bt,2022.2.4,MacIntel,59.99880002,Chrome,1440,900,,,,,0,576,,,,,,,,,,,,,,,,,U,181,circle,1,0,,5,,,,,,,,,,,,,,switch,number,numSwt,k,0.7155,vtsPrac,11,0,11,0,1,,,,,,,,,,,,,,,,,,,,,,,
298009,2022-11-29_18h57.57.403,vts_reward_expectancy_bt,2022.2.4,MacIntel,59.99880002,Chrome,1440,900,,,,,0,576,,,,,,,,,,,,,,,,,U,167,star,1,0,,5,,,,,,,,,,,,,,switch,letter,lettSwt,f,1.6163,vtsPrac,12,0,12,0,1,,,,,,,,,,,,,,,,,,,,,,,
298009,2022-11-29_18h57.57.403,vts_reward_expectancy_bt,2022.2.4,MacIntel,59.99880002,Chrome,1440,900,,,,,0,576,,,,,,,,,,,,,,,,,Y,132,hexagon,1,0,,5,,,,,,,,,,,,,,switch,number,numSwt,j,0.6138,vtsPrac,13,0,13,0,1,,,,,,,,,,,,,,,,,,,,,,,
298009,2022-11-29_18h57.57.403,vts_reward_expectancy_bt,2022.2.4,MacIntel,59.99880002,Chrome,1440,900,,,,,0,576,,,,,,,,,,,,,,,,,F,125,triangle,1,0,,5,,,,,,,,,,,,,,switch,letter,lettSwt,d,0.8305,vtsPrac,14,0,14,0,1,,,,,,,,,,,,,,,,,,,,,,,
298009,2022-11-29_18h57.57.403,vts_reward_expectancy_bt,2022.2.4,MacIntel,59.99880002,Chrome,1440,900,,,,,0,576,,,,,,,,,,,,,,,,,S,181,circle,1,0,,5,,,,,,,,,,,,,,switch,number,numSwt,k,1.1474,vtsPrac,15,0,15,0,1,,,,,,,,,,,,,,,,,,,,,,,
298009,2022-11-29_18h57.57.403,vts_reward_expectancy_bt,2022.2.4,MacIntel,59.99880002,Chrome,1440,900,,,,,0,576,,,,,,,,,,,,,,,,,S,125,circle,1,0,,5,,,,,,,,,,,,,,switch,letter,lettSwt,f,0.7992,vtsPrac,16,0,16,0,1,,,,,,,,,,,,,,,,,,,,,,,
298009,2022-11-29_18h57.57.403,vts_reward_expectancy_bt,2022.2.4,MacIntel,59.99880002,Chrome,1440,900,,,,,0,576,,,,,,,,,,,,,,,,,Y,181,hexagon,1,0,,5,,,,,,,,,,,,,,switch,number,numSwt,k,0.6484,vtsPrac,17,0,17,0,1,,,,,,,,,,,,,,,,,,,,,,,
298009,2022-11-29_18h57.57.403,vts_reward_expectancy_bt,2022.2.4,MacIntel,59.99880002,Chrome,1440,900,,,,,0,576,,,,,,,,,,,,,,,,,W,139,star,1,0,,5,,,,,,,,,,,,,,switch,letter,lettSwt,f,0.8128,vtsPrac,18,0,18,0,1,,,,,,,,,,,,,,,,,,,,,,,
298009,2022-11-29_18h57.57.403,vts_reward_expectancy_bt,2022.2.4,MacIntel,59.99880002,Chrome,1440,900,,,,,0,576,,,,,,,,,,,,,,,,,H,146,hexagon,1,0,,5,,,,,,,,,,,,,,switch,number,numSwt,j,1.2641,vtsPrac,19,0,19,0,1,,,,,,,,,,,,,,,,,,,,,,,
298009,2022-11-29_18h57.57.403,vts_reward_expectancy_bt,2022.2.4,MacIntel,59.99880002,Chrome,1440,900,,,,,0,576,,,,,,,,,,,,,,,,,W,174,star,1,0,,5,,,,,,,,,,,,,,switch,letter,lettSwt,f,0.9964,vtsPrac,20,0,20,0,1,,,,,,,,,,,,,,,,,,,,,,,
298009,2022-11-29_18h57.57.403,vts_reward_expectancy_bt,2022.2.4,MacIntel,59.99880002,Chrome,1440,900,,,,,0,576,,,,,,,,,,,,,,,,,Y,167,circle,1,0,,5,,,,,,,,,,,,,,switch,number,numSwt,k,0.7827,vtsPrac,21,0,21,0,1,,,,,,,,,,,,,,,,,,,,,,,
298009,2022-11-29_18h57.57.403,vts_reward_expectancy_bt,2022.2.4,MacIntel,59.99880002,Chrome,1440,900,,,,,0,576,,,,,,,,,,,,,,,,,H,132,hexagon,1,0,,5,,,,,,,,,,,,,,switch,letter,lettSwt,d,1.0015,vtsPrac,22,0,22,0,1,,,,,,,,,,,,,,,,,,,,,,,
298009,2022-11-29_18h57.57.403,vts_reward_expectancy_bt,2022.2.4,MacIntel,59.99880002,Chrome,1440,900,,,,,0,576,,,,,,,,,,,,,,,,,S,139,triangle,1,0,,5,,,,,,,,,,,,,,switch,number,numSwt,j,0.8985,vtsPrac,23,0,23,0,1,,,,,,,,,,,,,,,,,,,,,,,
298009,2022-11-29_18h57.57.403,vts_reward_expectancy_bt,2022.2.4,MacIntel,59.99880002,Chrome,1440,900,,,,,0,576,,,,,,,,,,,,,,,,,D,181,circle,1,0,,5,,,,,,,,,,,,,,switch,letter,lettSwt,d,0.6047,vtsPrac,24,0,24,0,1,,,,,,,,,,,,,,,,,,,,,,,
298009,2022-11-29_18h57.57.403,vts_reward_expectancy_bt,2022.2.4,MacIntel,59.99880002,Chrome,1440,900,,,,,0,576,,,,,,,,,,,,,,,,,H,146,triangle,1,0,,5,,,,,,,,,,,,,,switch,number,numSwt,j,0.6147,vtsPrac,25,0,25,0,1,,,,,,,,,,,,,,,,,,,,,,,
298009,2022-11-29_18h57.57.403,vts_reward_expectancy_bt,2022.2.4,MacIntel,59.99880002,Chrome,1440,900,,,,,0,576,,,,,,,,,,,,,,,,,Y,132,triangle,1,0,,5,,,,,,,,,,,,,,switch,letter,lettSwt,f,0.7637,vtsPrac,26,0,26,0,1,,,,,,,,,,,,,,,,,,,,,,,
298009,2022-11-29_18h57.57.403,vts_reward_expectancy_bt,2022.2.4,MacIntel,59.99880002,Chrome,1440,900,,,,,0,576,,,,,,,,,,,,,,,,,S,167,star,1,0,,5,,,,,,,,,,,,,,switch,number,numSwt,k,0.7308,vtsPrac,27,0,27,0,1,,,,,,,,,,,,,,,,,,,,,,,
298009,2022-11-29_18h57.57.403,vts_reward_expectancy_bt,2022.2.4,MacIntel,59.99880002,Chrome,1440,900,,,,,0,576,,,,,,,,,,,,,,,,,S,139,hexagon,1,0,,5,,,,,,,,,,,,,,switch,letter,lettSwt,f,0.6818,vtsPrac,28,0,28,0,1,,,,,,,,,,,,,,,,,,,,,,,
298009,2022-11-29_18h57.57.403,vts_reward_expectancy_bt,2022.2.4,MacIntel,59.99880002,Chrome,1440,900,,,,,0,576,,,,,,,,,,,,,,,,,Y,146,star,1,0,,5,,,,,,,,,,,,,,switch,number,numSwt,j,0.717,vtsPrac,29,0,29,0,1,,,,,,,,,,,,,,,,,,,,,,,
298009,2022-11-29_18h57.57.403,vts_reward_expectancy_bt,2022.2.4,MacIntel,59.99880002,Chrome,1440,900,,,,,0,576,,,,,,,,,,,,,,,,,W,174,hexagon,1,0,,5,,,,,,,,,,,,,,switch,letter,lettSwt,f,1.1189,vtsPrac,30,0,30,0,1,,,,,,,,,,,,,,,,,,,,,,,
298009,2022-11-29_18h57.57.403,vts_reward_expectancy_bt,2022.2.4,MacIntel,59.99880002,Chrome,1440,900,,,,,0,576,,,,,,,,,,,,,,,,,D,181,circle,1,0,,5,,,,,,,,,,,,,,switch,number,numSwt,k,0.6469,vtsPrac,31,0,31,0,1,,,,,,,,,,,,,,,,,,,,,,,
298009,2022-11-29_18h57.57.403,vts_reward_expectancy_bt,2022.2.4,MacIntel,59.99880002,Chrome,1440,900,,,,,0,576,,,,,,,,,,,,,,,,,Y,160,circle,1,0,,6,,,,,,,,,,,,,,repeat,number,numRpt,k,1.1138,vtsPrac,0,0,0,0,1,,,,,,,,,,,,,,,,,,,,,,,
298009,2022-11-29_18h57.57.403,vts_reward_expectancy_bt,2022.2.4,MacIntel,59.99880002,Chrome,1440,900,,,,,0,576,,,,,,,,,,,,,,,,,F,125,hexagon,1,0,,6,,,,,,,,,,,,,,repeat,number,numRpt,j,0.7311,vtsPrac,1,0,1,0,1,,,,,,,,,,,,,,,,,,,,,,,
298009,2022-11-29_18h57.57.403,vts_reward_expectancy_bt,2022.2.4,MacIntel,59.99880002,Chrome,1440,900,,,,,0,576,,,,,,,,,,,,,,,,,H,167,circle,1,0,,6,,,,,,,,,,,,,,repeat,number,numRpt,k,0.9147,vtsPrac,2,0,2,0,1,,,,,,,,,,,,,,,,,,,,,,,
298009,2022-11-29_18h57.57.403,vts_reward_expectancy_bt,2022.2.4,MacIntel,59.99880002,Chrome,1440,900,,,,,0,576,,,,,,,,,,,,,,,,,U,174,hexagon,1,0,,6,,,,,,,,,,,,,,switch,letter,lettSwt,f,0.8134,vtsPrac,3,0,3,0,1,,,,,,,,,,,,,,,,,,,,,,,
298009,2022-11-29_18h57.57.403,vts_reward_expectancy_bt,2022.2.4,MacIntel,59.99880002,Chrome,1440,900,,,,,0,576,,,,,,,,,,,,,,,,,Y,160,triangle,1,0,,6,,,,,,,,,,,,,,switch,number,numSwt,k,0.7472,vtsPrac,4,0,4,0,1,,,,,,,,,,,,,,,,,,,,,,,
298009,2022-11-29_18h57.57.403,vts_reward_expectancy_bt,2022.2.4,MacIntel,59.99880002,Chrome,1440,900,,,,,0,576,,,,,,,,,,,,,,,,,F,125,hexagon,1,0,,6,,,,,,,,,,,,,,switch,letter,lettSwt,d,0.6554,vtsPrac,5,0,5,0,1,,,,,,,,,,,,,,,,,,,,,,,
298009,2022-11-29_18h57.57.403,vts_reward_expectancy_bt,2022.2.4,MacIntel,59.99880002,Chrome,1440,900,,,,,0,576,,,,,,,,,,,,,,,,,H,167,hexagon,1,0,,6,,,,,,,,,,,,,,repeat,letter,lettRpt,d,0.8477,vtsPrac,6,0,6,0,1,,,,,,,,,,,,,,,,,,,,,,,
298009,2022-11-29_18h57.57.403,vts_reward_expectancy_bt,2022.2.4,MacIntel,59.99880002,Chrome,1440,900,,,,,0,576,,,,,,,,,,,,,,,,,U,174,circle,1,0,,6,,,,,,,,,,,,,,switch,number,numSwt,k,1.6719,vtsPrac,7,0,7,0,1,,,,,,,,,,,,,,,,,,,,,,,
298009,2022-11-29_18h57.57.403,vts_reward_expectancy_bt,2022.2.4,MacIntel,59.99880002,Chrome,1440,900,,,,,0,576,,,,,,,,,,,,,,,,,H,125,circle,-1,0,,6,,,,,,,,,,,,,,switch,no_choice,NA,,,vtsPrac,8,0,8,0,1,,,,,,,,,,,,,,,,,,,,,,,
298009,2022-11-29_18h57.57.403,vts_reward_expectancy_bt,2022.2.4,MacIntel,59.99880002,Chrome,1440,900,,,,,0,576,,,,,,,,,,,,,,,,,S,181,hexagon,1,0,,6,,,,,,,,,,,,,,switch,letter,lettSwt,f,0.5545,vtsPrac,9,0,9,0,1,,,,,,,,,,,,,,,,,,,,,,,
298009,2022-11-29_18h57.57.403,vts_reward_expectancy_bt,2022.2.4,MacIntel,59.99880002,Chrome,1440,900,,,,,0,576,,,,,,,,,,,,,,,,,W,167,hexagon,1,0,,6,,,,,,,,,,,,,,switch,number,numSwt,k,0.8989,vtsPrac,10,0,10,0,1,,,,,,,,,,,,,,,,,,,,,,,
298009,2022-11-29_18h57.57.403,vts_reward_expectancy_bt,2022.2.4,MacIntel,59.99880002,Chrome,1440,900,,,,,0,576,,,,,,,,,,,,,,,,,Y,132,circle,1,0,,6,,,,,,,,,,,,,,repeat,number,numRpt,j,0.7313,vtsPrac,11,0,11,0,1,,,,,,,,,,,,,,,,,,,,,,,
298009,2022-11-29_18h57.57.403,vts_reward_expectancy_bt,2022.2.4,MacIntel,59.99880002,Chrome,1440,900,,,,,0,576,,,,,,,,,,,,,,,,,D,167,triangle,1,0,,6,,,,,,,,,,,,,,switch,letter,lettSwt,d,0.9976,vtsPrac,12,0,12,0,1,,,,,,,,,,,,,,,,,,,,,,,
298009,2022-11-29_18h57.57.403,vts_reward_expectancy_bt,2022.2.4,MacIntel,59.99880002,Chrome,1440,900,,,,,0,576,,,,,,,,,,,,,,,,,Y,174,hexagon,1,0,,6,,,,,,,,,,,,,,repeat,letter,lettRpt,f,0.9305,vtsPrac,13,0,13,0,1,,,,,,,,,,,,,,,,,,,,,,,
298009,2022-11-29_18h57.57.403,vts_reward_expectancy_bt,2022.2.4,MacIntel,59.99880002,Chrome,1440,900,,,,,0,576,,,,,,,,,,,,,,,,,W,125,triangle,1,0,,6,,,,,,,,,,,,,,switch,number,numSwt,j,0.7473,vtsPrac,14,0,14,0,1,,,,,,,,,,,,,,,,,,,,,,,
298009,2022-11-29_18h57.57.403,vts_reward_expectancy_bt,2022.2.4,MacIntel,59.99880002,Chrome,1440,900,,,,,0,576,,,,,,,,,,,,,,,,,F,132,hexagon,1,0,,6,,,,,,,,,,,,,,repeat,number,numRpt,j,0.8972,vtsPrac,15,0,15,0,1,,,,,,,,,,,,,,,,,,,,,,,
298009,2022-11-29_18h57.57.403,vts_reward_expectancy_bt,2022.2.4,MacIntel,59.99880002,Chrome,1440,900,,,,,0,576,,,,,,,,,,,,,,,,,H,181,triangle,1,0,,6,,,,,,,,,,,,,,switch,letter,lettSwt,d,1.4544,vtsPrac,16,0,16,0,1,,,,,,,,,,,,,,,,,,,,,,,
298009,2022-11-29_18h57.57.403,vts_reward_expectancy_bt,2022.2.4,MacIntel,59.99880002,Chrome,1440,900,,,,,0,576,,,,,,,,,,,,,,,,,W,125,star,1,0,,6,,,,,,,,,,,,,,repeat,letter,lettRpt,f,1.3369,vtsPrac,17,0,17,0,1,,,,,,,,,,,,,,,,,,,,,,,
298009,2022-11-29_18h57.57.403,vts_reward_expectancy_bt,2022.2.4,MacIntel,59.99880002,Chrome,1440,900,,,,,0,576,,,,,,,,,,,,,,,,,B,167,circle,1,0,,6,,,,,,,,,,,,,,switch,number,numSwt,k,0.7647,vtsPrac,18,0,18,0,1,,,,,,,,,,,,,,,,,,,,,,,
298009,2022-11-29_18h57.57.403,vts_reward_expectancy_bt,2022.2.4,MacIntel,59.99880002,Chrome,1440,900,,,,,0,576,,,,,,,,,,,,,,,,,F,160,hexagon,1,0,,6,,,,,,,,,,,,,,switch,letter,lettSwt,d,0.937,vtsPrac,19,0,19,0,1,,,,,,,,,,,,,,,,,,,,,,,
298009,2022-11-29_18h57.57.403,vts_reward_expectancy_bt,2022.2.4,MacIntel,59.99880002,Chrome,1440,900,,,,,0,576,,,,,,,,,,,,,,,,,D,181,hexagon,1,0,,6,,,,,,,,,,,,,,repeat,letter,lettRpt,d,0.8149,vtsPrac,20,0,20,0,1,,,,,,,,,,,,,,,,,,,,,,,
298009,2022-11-29_18h57.57.403,vts_reward_expectancy_bt,2022.2.4,MacIntel,59.99880002,Chrome,1440,900,,,,,0,576,,,,,,,,,,,,,,,,,B,146,triangle,1,0,,6,,,,,,,,,,,,,,switch,number,numSwt,j,0.564,vtsPrac,21,0,21,0,1,,,,,,,,,,,,,,,,,,,,,,,
298009,2022-11-29_18h57.57.403,vts_reward_expectancy_bt,2022.2.4,MacIntel,59.99880002,Chrome,1440,900,,,,,0,576,,,,,,,,,,,,,,,,,Y,125,circle,1,0,,6,,,,,,,,,,,,,,switch,letter,lettSwt,f,1.0812,vtsPrac,22,0,22,0,1,,,,,,,,,,,,,,,,,,,,,,,
298009,2022-11-29_18h57.57.403,vts_reward_expectancy_bt,2022.2.4,MacIntel,59.99880002,Chrome,1440,900,,,,,0,576,,,,,,,,,,,,,,,,,S,167,triangle,1,0,,6,,,,,,,,,,,,,,repeat,letter,lettRpt,f,0.5891,vtsPrac,23,0,23,0,1,,,,,,,,,,,,,,,,,,,,,,,
298009,2022-11-29_18h57.57.403,vts_reward_expectancy_bt,2022.2.4,MacIntel,59.99880002,Chrome,1440,900,,,,,0,576,,,,,,,,,,,,,,,,,B,146,hexagon,1,0,,6,,,,,,,,,,,,,,switch,number,numSwt,j,1.0163,vtsPrac,24,0,24,0,1,,,,,,,,,,,,,,,,,,,,,,,
298009,2022-11-29_18h57.57.403,vts_reward_expectancy_bt,2022.2.4,MacIntel,59.99880002,Chrome,1440,900,,,,,0,576,,,,,,,,,,,,,,,,,H,160,triangle,1,0,,6,,,,,,,,,,,,,,repeat,number,numRpt,k,0.9485,vtsPrac,25,0,25,0,1,,,,,,,,,,,,,,,,,,,,,,,
298009,2022-11-29_18h57.57.403,vts_reward_expectancy_bt,2022.2.4,MacIntel,59.99880002,Chrome,1440,900,,,,,0,576,,,,,,,,,,,,,,,,,S,167,hexagon,1,0,,6,,,,,,,,,,,,,,repeat,number,numRpt,k,0.6318,vtsPrac,26,0,26,0,1,,,,,,,,,,,,,,,,,,,,,,,
298009,2022-11-29_18h57.57.403,vts_reward_expectancy_bt,2022.2.4,MacIntel,59.99880002,Chrome,1440,900,,,,,0,576,,,,,,,,,,,,,,,,,U,132,star,1,0,,6,,,,,,,,,,,,,,repeat,number,numRpt,j,0.7311,vtsPrac,27,0,27,0,1,,,,,,,,,,,,,,,,,,,,,,,
298009,2022-11-29_18h57.57.403,vts_reward_expectancy_bt,2022.2.4,MacIntel,59.99880002,Chrome,1440,900,,,,,0,576,,,,,,,,,,,,,,,,,D,146,star,1,0,,6,,,,,,,,,,,,,,switch,letter,lettSwt,d,0.7983,vtsPrac,28,0,28,0,1,,,,,,,,,,,,,,,,,,,,,,,
298009,2022-11-29_18h57.57.403,vts_reward_expectancy_bt,2022.2.4,MacIntel,59.99880002,Chrome,1440,900,,,,,0,576,,,,,,,,,,,,,,,,,Y,139,hexagon,1,0,,6,,,,,,,,,,,,,,repeat,letter,lettRpt,f,0.681,vtsPrac,29,0,29,0,1,,,,,,,,,,,,,,,,,,,,,,,
298009,2022-11-29_18h57.57.403,vts_reward_expectancy_bt,2022.2.4,MacIntel,59.99880002,Chrome,1440,900,,,,,0,576,,,,,,,,,,,,,,,,,W,125,hexagon,1,0,,6,,,,,,,,,,,,,,repeat,letter,lettRpt,f,1.2813,vtsPrac,30,0,30,0,1,,,,,,,,,,,,,,,,,,,,,,,
298009,2022-11-29_18h57.57.403,vts_reward_expectancy_bt,2022.2.4,MacIntel,59.99880002,Chrome,1440,900,,,,,0,576,,,,,,,,,,,,,,,,,F,160,triangle,1,0,,6,,,,,,,,,,,,,,switch,number,numSwt,k,1.698,vtsPrac,31,0,31,0,1,,,,,,,,,,,,,,,,,,,,,,,
298009,2022-11-29_18h57.57.403,vts_reward_expectancy_bt,2022.2.4,MacIntel,59.99880002,Chrome,1440,900,,,,,,,,,,,,,,,,,,,,,,,,,,,,,,,,,,,,,,,,,,,,,,,,,,,,,,,,,,,,,,,,,,,,,,,,,,,,
298009,2022-11-29_18h57.57.403,vts_reward_expectancy_bt,2022.2.4,MacIntel,59.99880002,Chrome,1440,900,,,,,,,,,,,,,,,,,,,,,,,,,,,,,,,,,,,,,,,,,,,,,,,,,,,,,,,,,,,,,,,,,,,,,,,,,,,,
298009,2022-11-29_18h57.57.403,vts_reward_expectancy_bt,2022.2.4,MacIntel,59.99880002,Chrome,1440,900,,,,,0,576,,,,,,,,,,,,,,,,,B,125,hexagon,1,0,,,,,,,,,,,,,,,,switch,letter,lettSwt,d,0.7156,noRew,,,,,,0,0,0,0,0,1,,,,,,,,,,,,,,,,,
298009,2022-11-29_18h57.57.403,vts_reward_expectancy_bt,2022.2.4,MacIntel,59.99880002,Chrome,1440,900,,,,,0,576,,,,,,,,,,,,,,,,,W,139,star,1,0,,,,,,,,,,,,,,,,switch,number,numSwt,j,1.6212,noRew,,,,,,0,1,0,1,0,1,,,,,,,,,,,,,,,,,
298009,2022-11-29_18h57.57.403,vts_reward_expectancy_bt,2022.2.4,MacIntel,59.99880002,Chrome,1440,900,,,,,0,576,,,,,,,,,,,,,,,,,F,167,hexagon,1,0,,,,,,,,,,,,,,,,switch,letter,lettSwt,d,1.498,noRew,,,,,,0,2,0,2,0,1,,,,,,,,,,,,,,,,,
298009,2022-11-29_18h57.57.403,vts_reward_expectancy_bt,2022.2.4,MacIntel,59.99880002,Chrome,1440,900,,,,,0,576,,,,,,,,,,,,,,,,,H,181,star,1,0,,,,,,,,,,,,,,,,repeat,letter,lettRpt,d,1.4321,noRew,,,,,,0,3,0,3,0,1,,,,,,,,,,,,,,,,,
298009,2022-11-29_18h57.57.403,vts_reward_expectancy_bt,2022.2.4,MacIntel,59.99880002,Chrome,1440,900,,,,,0,576,,,,,,,,,,,,,,,,,B,125,star,1,0,,,,,,,,,,,,,,,,switch,number,numSwt,j,0.698,noRew,,,,,,0,4,0,4,0,1,,,,,,,,,,,,,,,,,
298009,2022-11-29_18h57.57.403,vts_reward_expectancy_bt,2022.2.4,MacIntel,59.99880002,Chrome,1440,900,,,,,0,576,,,,,,,,,,,,,,,,,W,139,triangle,1,0,,,,,,,,,,,,,,,,repeat,number,numRpt,j,0.9139,noRew,,,,,,0,5,0,5,0,1,,,,,,,,,,,,,,,,,
298009,2022-11-29_18h57.57.403,vts_reward_expectancy_bt,2022.2.4,MacIntel,59.99880002,Chrome,1440,900,,,,,0,576,,,,,,,,,,,,,,,,,F,167,hexagon,1,0,,,,,,,,,,,,,,,,switch,letter,lettSwt,d,1.1713,noRew,,,,,,0,6,0,6,0,1,,,,,,,,,,,,,,,,,
298009,2022-11-29_18h57.57.403,vts_reward_expectancy_bt,2022.2.4,MacIntel,59.99880002,Chrome,1440,900,,,,,0,576,,,,,,,,,,,,,,,,,H,181,triangle,1,0,,,,,,,,,,,,,,,,switch,number,numSwt,k,0.614,noRew,,,,,,0,7,0,7,0,1,,,,,,,,,,,,,,,,,
298009,2022-11-29_18h57.57.403,vts_reward_expectancy_bt,2022.2.4,MacIntel,59.99880002,Chrome,1440,900,,,,,0,576,,,,,,,,,,,,,,,,,S,132,circle,1,0,,,,,,,,,,,,,,,,repeat,number,numRpt,j,0.6483,noRew,,,,,,0,8,0,8,0,1,,,,,,,,,,,,,,,,,
298009,2022-11-29_18h57.57.403,vts_reward_expectancy_bt,2022.2.4,MacIntel,59.99880002,Chrome,1440,900,,,,,0,576,,,,,,,,,,,,,,,,,H,125,star,1,0,,,,,,,,,,,,,,,,switch,letter,lettSwt,d,1.5314,noRew,,,,,,0,9,0,9,0,1,,,,,,,,,,,,,,,,,
298009,2022-11-29_18h57.57.403,vts_reward_expectancy_bt,2022.2.4,MacIntel,59.99880002,Chrome,1440,900,,,,,0,576,,,,,,,,,,,,,,,,,F,167,hexagon,1,0,,,,,,,,,,,,,,,,repeat,letter,lettRpt,d,0.6314,noRew,,,,,,0,10,0,10,0,1,,,,,,,,,,,,,,,,,
298009,2022-11-29_18h57.57.403,vts_reward_expectancy_bt,2022.2.4,MacIntel,59.99880002,Chrome,1440,900,,,,,0,576,,,,,,,,,,,,,,,,,U,146,star,1,0,,,,,,,,,,,,,,,,repeat,letter,lettRpt,f,1.3643,noRew,,,,,,0,11,0,11,0,1,,,,,,,,,,,,,,,,,
298009,2022-11-29_18h57.57.403,vts_reward_expectancy_bt,2022.2.4,MacIntel,59.99880002,Chrome,1440,900,,,,,0,576,,,,,,,,,,,,,,,,,D,167,star,1,0,,,,,,,,,,,,,,,,switch,number,numSwt,k,0.635,noRew,,,,,,0,12,0,12,0,1,,,,,,,,,,,,,,,,,
298009,2022-11-29_18h57.57.403,vts_reward_expectancy_bt,2022.2.4,MacIntel,59.99880002,Chrome,1440,900,,,,,0,576,,,,,,,,,,,,,,,,,Y,146,hexagon,1,0,,,,,,,,,,,,,,,,repeat,number,numRpt,j,0.8515,noRew,,,,,,0,13,0,13,0,1,,,,,,,,,,,,,,,,,
298009,2022-11-29_18h57.57.403,vts_reward_expectancy_bt,2022.2.4,MacIntel,59.99880002,Chrome,1440,900,,,,,0,576,,,,,,,,,,,,,,,,,B,160,triangle,1,0,,,,,,,,,,,,,,,,switch,letter,lettSwt,d,1.2307,noRew,,,,,,0,14,0,14,0,1,,,,,,,,,,,,,,,,,
298009,2022-11-29_18h57.57.403,vts_reward_expectancy_bt,2022.2.4,MacIntel,59.99880002,Chrome,1440,900,,,,,0,576,,,,,,,,,,,,,,,,,S,125,hexagon,1,0,,,,,,,,,,,,,,,,repeat,letter,lettRpt,f,0.7136,noRew,,,,,,0,15,0,15,0,1,,,,,,,,,,,,,,,,,
298009,2022-11-29_18h57.57.403,vts_reward_expectancy_bt,2022.2.4,MacIntel,59.99880002,Chrome,1440,900,,,,,0,576,,,,,,,,,,,,,,,,,F,174,star,1,0,,,,,,,,,,,,,,,,switch,number,numSwt,k,0.9548,noRew,,,,,,0,16,0,16,0,1,,,,,,,,,,,,,,,,,
298009,2022-11-29_18h57.57.403,vts_reward_expectancy_bt,2022.2.4,MacIntel,59.99880002,Chrome,1440,900,,,,,0,576,,,,,,,,,,,,,,,,,S,139,circle,1,0,,,,,,,,,,,,,,,,switch,letter,lettSwt,f,0.8477,noRew,,,,,,0,17,0,17,0,1,,,,,,,,,,,,,,,,,
298009,2022-11-29_18h57.57.403,vts_reward_expectancy_bt,2022.2.4,MacIntel,59.99880002,Chrome,1440,900,,,,,0,576,,,,,,,,,,,,,,,,,B,132,star,1,0,,,,,,,,,,,,,,,,switch,number,numSwt,j,0.6323,noRew,,,,,,0,18,0,18,0,1,,,,,,,,,,,,,,,,,
298009,2022-11-29_18h57.57.403,vts_reward_expectancy_bt,2022.2.4,MacIntel,59.99880002,Chrome,1440,900,,,,,0,576,,,,,,,,,,,,,,,,,W,167,triangle,1,0,,,,,,,,,,,,,,,,repeat,number,numRpt,k,0.8165,noRew,,,,,,0,19,0,19,0,1,,,,,,,,,,,,,,,,,
298009,2022-11-29_18h57.57.403,vts_reward_expectancy_bt,2022.2.4,MacIntel,59.99880002,Chrome,1440,900,,,,,0,576,,,,,,,,,,,,,,,,,D,125,triangle,1,0,,,,,,,,,,,,,,,,switch,letter,lettSwt,d,0.6684,noRew,,,,,,0,20,0,20,0,1,,,,,,,,,,,,,,,,,
298009,2022-11-29_18h57.57.403,vts_reward_expectancy_bt,2022.2.4,MacIntel,59.99880002,Chrome,1440,900,,,,,0,576,,,,,,,,,,,,,,,,,B,139,hexagon,1,0,,,,,,,,,,,,,,,,repeat,letter,lettRpt,d,0.7807,noRew,,,,,,0,21,0,21,0,1,,,,,,,,,,,,,,,,,
298009,2022-11-29_18h57.57.403,vts_reward_expectancy_bt,2022.2.4,MacIntel,59.99880002,Chrome,1440,900,,,,,0,576,,,,,,,,,,,,,,,,,W,174,star,1,0,,,,,,,,,,,,,,,,switch,number,numSwt,k,0.9525,noRew,,,,,,0,22,0,22,0,1,,,,,,,,,,,,,,,,,
298009,2022-11-29_18h57.57.403,vts_reward_expectancy_bt,2022.2.4,MacIntel,59.99880002,Chrome,1440,900,,,,,0,576,,,,,,,,,,,,,,,,,H,160,hexagon,1,0,,,,,,,,,,,,,,,,repeat,number,numRpt,k,0.6452,noRew,,,,,,0,23,0,23,0,1,,,,,,,,,,,,,,,,,
298009,2022-11-29_18h57.57.403,vts_reward_expectancy_bt,2022.2.4,MacIntel,59.99880002,Chrome,1440,900,,,,,0,576,,,,,,,,,,,,,,,,,U,181,hexagon,1,0,,,,,,,,,,,,,,,,switch,letter,lettSwt,f,1.4809,noRew,,,,,,0,24,0,24,0,1,,,,,,,,,,,,,,,,,
298009,2022-11-29_18h57.57.403,vts_reward_expectancy_bt,2022.2.4,MacIntel,59.99880002,Chrome,1440,900,,,,,0,576,,,,,,,,,,,,,,,,,Y,139,star,1,0,,,,,,,,,,,,,,,,switch,number,numSwt,j,0.947,noRew,,,,,,0,25,0,25,0,1,,,,,,,,,,,,,,,,,
298009,2022-11-29_18h57.57.403,vts_reward_expectancy_bt,2022.2.4,MacIntel,59.99880002,Chrome,1440,900,,,,,0,576,,,,,,,,,,,,,,,,,W,160,circle,1,0,,,,,,,,,,,,,,,,repeat,number,numRpt,k,0.7652,noRew,,,,,,0,26,0,26,0,1,,,,,,,,,,,,,,,,,
298009,2022-11-29_18h57.57.403,vts_reward_expectancy_bt,2022.2.4,MacIntel,59.99880002,Chrome,1440,900,,,,,0,576,,,,,,,,,,,,,,,,,F,132,hexagon,1,0,,,,,,,,,,,,,,,,switch,letter,lettSwt,d,0.9688,noRew,,,,,,0,27,0,27,0,1,,,,,,,,,,,,,,,,,
298009,2022-11-29_18h57.57.403,vts_reward_expectancy_bt,2022.2.4,MacIntel,59.99880002,Chrome,1440,900,,,,,0,576,,,,,,,,,,,,,,,,,D,125,star,1,0,,,,,,,,,,,,,,,,repeat,letter,lettRpt,d,1.0474,noRew,,,,,,0,28,0,28,0,1,,,,,,,,,,,,,,,,,
298009,2022-11-29_18h57.57.403,vts_reward_expectancy_bt,2022.2.4,MacIntel,59.99880002,Chrome,1440,900,,,,,0,576,,,,,,,,,,,,,,,,,B,167,triangle,1,0,,,,,,,,,,,,,,,,repeat,letter,lettRpt,d,2.1815,noRew,,,,,,0,29,0,29,0,1,,,,,,,,,,,,,,,,,
298009,2022-11-29_18h57.57.403,vts_reward_expectancy_bt,2022.2.4,MacIntel,59.99880002,Chrome,1440,900,,,,,0,576,,,,,,,,,,,,,,,,,Y,132,circle,1,0,,,,,,,,,,,,,,,,repeat,letter,lettRpt,f,0.6956,noRew,,,,,,0,30,0,30,0,1,,,,,,,,,,,,,,,,,
298009,2022-11-29_18h57.57.403,vts_reward_expectancy_bt,2022.2.4,MacIntel,59.99880002,Chrome,1440,900,,,,,0,576,,,,,,,,,,,,,,,,,F,146,star,1,0,,,,,,,,,,,,,,,,switch,number,numSwt,j,1.9141,noRew,,,,,,0,31,0,31,0,1,,,,,,,,,,,,,,,,,
298009,2022-11-29_18h57.57.403,vts_reward_expectancy_bt,2022.2.4,MacIntel,59.99880002,Chrome,1440,900,,,,,0,576,,,,,,,,,,,,,,,,,U,146,hexagon,1,0,,,,,,,,,,,,,,,,switch,letter,lettSwt,f,0.7005,noRew,,,,,,0,32,0,32,0,1,,,,,,,,,,,,,,,,,
298009,2022-11-29_18h57.57.403,vts_reward_expectancy_bt,2022.2.4,MacIntel,59.99880002,Chrome,1440,900,,,,,0,576,,,,,,,,,,,,,,,,,F,181,triangle,1,0,,,,,,,,,,,,,,,,switch,number,numSwt,k,0.5007,noRew,,,,,,0,33,0,33,0,1,,,,,,,,,,,,,,,,,
298009,2022-11-29_18h57.57.403,vts_reward_expectancy_bt,2022.2.4,MacIntel,59.99880002,Chrome,1440,900,,,,,0,576,,,,,,,,,,,,,,,,,D,125,triangle,1,0,,,,,,,,,,,,,,,,repeat,number,numRpt,j,0.7142,noRew,,,,,,0,34,0,34,0,1,,,,,,,,,,,,,,,,,
298009,2022-11-29_18h57.57.403,vts_reward_expectancy_bt,2022.2.4,MacIntel,59.99880002,Chrome,1440,900,,,,,0,576,,,,,,,,,,,,,,,,,Y,167,circle,1,0,,,,,,,,,,,,,,,,repeat,number,numRpt,k,0.7312,noRew,,,,,,0,35,0,35,0,1,,,,,,,,,,,,,,,,,
298009,2022-11-29_18h57.57.403,vts_reward_expectancy_bt,2022.2.4,MacIntel,59.99880002,Chrome,1440,900,,,,,0,576,,,,,,,,,,,,,,,,,H,146,hexagon,1,0,,,,,,,,,,,,,,,,repeat,number,numRpt,j,0.6479,noRew,,,,,,0,36,0,36,0,1,,,,,,,,,,,,,,,,,
298009,2022-11-29_18h57.57.403,vts_reward_expectancy_bt,2022.2.4,MacIntel,59.99880002,Chrome,1440,900,,,,,0,576,,,,,,,,,,,,,,,,,S,125,triangle,1,0,,,,,,,,,,,,,,,,switch,letter,lettSwt,f,0.9811,noRew,,,,,,0,37,0,37,0,1,,,,,,,,,,,,,,,,,
298009,2022-11-29_18h57.57.403,vts_reward_expectancy_bt,2022.2.4,MacIntel,59.99880002,Chrome,1440,900,,,,,0,576,,,,,,,,,,,,,,,,,D,132,star,1,0,,,,,,,,,,,,,,,,repeat,letter,lettRpt,d,0.6145,noRew,,,,,,0,38,0,38,0,1,,,,,,,,,,,,,,,,,
298009,2022-11-29_18h57.57.403,vts_reward_expectancy_bt,2022.2.4,MacIntel,59.99880002,Chrome,1440,900,,,,,0,576,,,,,,,,,,,,,,,,,W,181,triangle,1,0,,,,,,,,,,,,,,,,switch,number,numSwt,k,0.7633,noRew,,,,,,0,39,0,39,0,1,,,,,,,,,,,,,,,,,
298009,2022-11-29_18h57.57.403,vts_reward_expectancy_bt,2022.2.4,MacIntel,59.99880002,Chrome,1440,900,,,,,0,576,,,,,,,,,,,,,,,,,Y,167,star,1,0,,,,,,,,,,,,,,,,switch,letter,lettSwt,f,0.7973,noRew,,,,,,0,40,0,40,0,1,,,,,,,,,,,,,,,,,
298009,2022-11-29_18h57.57.403,vts_reward_expectancy_bt,2022.2.4,MacIntel,59.99880002,Chrome,1440,900,,,,,0,576,,,,,,,,,,,,,,,,,U,132,hexagon,1,0,,,,,,,,,,,,,,,,repeat,letter,lettRpt,f,0.7718,noRew,,,,,,0,41,0,41,0,1,,,,,,,,,,,,,,,,,
298009,2022-11-29_18h57.57.403,vts_reward_expectancy_bt,2022.2.4,MacIntel,59.99880002,Chrome,1440,900,,,,,0,576,,,,,,,,,,,,,,,,,H,174,star,1,0,,,,,,,,,,,,,,,,repeat,letter,lettRpt,d,1.2187,noRew,,,,,,0,42,0,42,0,1,,,,,,,,,,,,,,,,,
298009,2022-11-29_18h57.57.403,vts_reward_expectancy_bt,2022.2.4,MacIntel,59.99880002,Chrome,1440,900,,,,,0,576,,,,,,,,,,,,,,,,,F,181,triangle,1,0,,,,,,,,,,,,,,,,switch,number,numSwt,k,1.3478,noRew,,,,,,0,43,0,43,0,1,,,,,,,,,,,,,,,,,
298009,2022-11-29_18h57.57.403,vts_reward_expectancy_bt,2022.2.4,MacIntel,59.99880002,Chrome,1440,900,,,,,0,576,,,,,,,,,,,,,,,,,U,139,circle,1,0,,,,,,,,,,,,,,,,repeat,number,numRpt,j,0.7482,noRew,,,,,,0,44,0,44,0,1,,,,,,,,,,,,,,,,,
298009,2022-11-29_18h57.57.403,vts_reward_expectancy_bt,2022.2.4,MacIntel,59.99880002,Chrome,1440,900,,,,,0,576,,,,,,,,,,,,,,,,,D,181,star,1,0,,,,,,,,,,,,,,,,switch,letter,lettSwt,d,1.5808,noRew,,,,,,0,45,0,45,0,1,,,,,,,,,,,,,,,,,
298009,2022-11-29_18h57.57.403,vts_reward_expectancy_bt,2022.2.4,MacIntel,59.99880002,Chrome,1440,900,,,,,0,576,,,,,,,,,,,,,,,,,Y,132,star,1,0,,,,,,,,,,,,,,,,switch,number,numSwt,j,0.6823,noRew,,,,,,0,46,0,46,0,1,,,,,,,,,,,,,,,,,
298009,2022-11-29_18h57.57.403,vts_reward_expectancy_bt,2022.2.4,MacIntel,59.99880002,Chrome,1440,900,,,,,0,576,,,,,,,,,,,,,,,,,W,146,hexagon,1,0,,,,,,,,,,,,,,,,switch,letter,lettSwt,f,1.1569,noRew,,,,,,0,47,0,47,0,1,,,,,,,,,,,,,,,,,
298009,2022-11-29_18h57.57.403,vts_reward_expectancy_bt,2022.2.4,MacIntel,59.99880002,Chrome,1440,900,,,,,0,576,,,,,,,,,,,,,,,,,F,167,circle,1,0,,,,,,,,,,,,,,,,repeat,letter,lettRpt,d,1.065,noRew,,,,,,0,48,0,48,0,1,,,,,,,,,,,,,,,,,
298009,2022-11-29_18h57.57.403,vts_reward_expectancy_bt,2022.2.4,MacIntel,59.99880002,Chrome,1440,900,,,,,0,576,,,,,,,,,,,,,,,,,W,125,star,1,0,,,,,,,,,,,,,,,,switch,number,numSwt,j,0.7313,noRew,,,,,,0,49,0,49,0,1,,,,,,,,,,,,,,,,,
298009,2022-11-29_18h57.57.403,vts_reward_expectancy_bt,2022.2.4,MacIntel,59.99880002,Chrome,1440,900,,,,,0,576,,,,,,,,,,,,,,,,,B,139,circle,1,0,,,,,,,,,,,,,,,,repeat,number,numRpt,j,1.0811,noRew,,,,,,0,50,0,50,0,1,,,,,,,,,,,,,,,,,
298009,2022-11-29_18h57.57.403,vts_reward_expectancy_bt,2022.2.4,MacIntel,59.99880002,Chrome,1440,900,,,,,0,576,,,,,,,,,,,,,,,,,D,146,triangle,1,0,,,,,,,,,,,,,,,,repeat,number,numRpt,j,0.572,noRew,,,,,,0,51,0,51,0,1,,,,,,,,,,,,,,,,,
298009,2022-11-29_18h57.57.403,vts_reward_expectancy_bt,2022.2.4,MacIntel,59.99880002,Chrome,1440,900,,,,,0,576,,,,,,,,,,,,,,,,,S,139,triangle,1,0,,,,,,,,,,,,,,,,switch,letter,lettSwt,f,1.4312,noRew,,,,,,0,52,0,52,0,1,,,,,,,,,,,,,,,,,
298009,2022-11-29_18h57.57.403,vts_reward_expectancy_bt,2022.2.4,MacIntel,59.99880002,Chrome,1440,900,,,,,0,576,,,,,,,,,,,,,,,,,B,167,circle,1,0,,,,,,,,,,,,,,,,switch,number,numSwt,k,1.2976,noRew,,,,,,0,53,0,53,0,1,,,,,,,,,,,,,,,,,
298009,2022-11-29_18h57.57.403,vts_reward_expectancy_bt,2022.2.4,MacIntel,59.99880002,Chrome,1440,900,,,,,0,576,,,,,,,,,,,,,,,,,D,174,star,1,0,,,,,,,,,,,,,,,,switch,letter,lettSwt,d,0.7306,noRew,,,,,,0,54,0,54,0,1,,,,,,,,,,,,,,,,,
298009,2022-11-29_18h57.57.403,vts_reward_expectancy_bt,2022.2.4,MacIntel,59.99880002,Chrome,1440,900,,,,,0,576,,,,,,,,,,,,,,,,,U,146,triangle,1,0,,,,,,,,,,,,,,,,repeat,letter,lettRpt,f,0.8149,noRew,,,,,,0,55,0,55,0,1,,,,,,,,,,,,,,,,,
298009,2022-11-29_18h57.57.403,vts_reward_expectancy_bt,2022.2.4,MacIntel,59.99880002,Chrome,1440,900,,,,,0,576,,,,,,,,,,,,,,,,,F,181,circle,1,0,,,,,,,,,,,,,,,,repeat,letter,lettRpt,d,0.8523,noRew,,,,,,0,56,0,56,0,1,,,,,,,,,,,,,,,,,
298009,2022-11-29_18h57.57.403,vts_reward_expectancy_bt,2022.2.4,MacIntel,59.99880002,Chrome,1440,900,,,,,0,576,,,,,,,,,,,,,,,,,Y,139,star,1,0,,,,,,,,,,,,,,,,switch,number,numSwt,j,0.6634,noRew,,,,,,0,57,0,57,0,1,,,,,,,,,,,,,,,,,
298009,2022-11-29_18h57.57.403,vts_reward_expectancy_bt,2022.2.4,MacIntel,59.99880002,Chrome,1440,900,,,,,0,576,,,,,,,,,,,,,,,,,H,160,circle,1,0,,,,,,,,,,,,,,,,repeat,number,numRpt,k,0.752,noRew,,,,,,0,58,0,58,0,1,,,,,,,,,,,,,,,,,
298009,2022-11-29_18h57.57.403,vts_reward_expectancy_bt,2022.2.4,MacIntel,59.99880002,Chrome,1440,900,,,,,0,576,,,,,,,,,,,,,,,,,W,174,hexagon,1,0,,,,,,,,,,,,,,,,switch,letter,lettSwt,f,0.6981,noRew,,,,,,0,59,0,59,0,1,,,,,,,,,,,,,,,,,
298009,2022-11-29_18h57.57.403,vts_reward_expectancy_bt,2022.2.4,MacIntel,59.99880002,Chrome,1440,900,,,,,0,576,,,,,,,,,,,,,,,,,U,132,star,1,0,,,,,,,,,,,,,,,,repeat,letter,lettRpt,f,0.7811,noRew,,,,,,0,60,0,60,0,1,,,,,,,,,,,,,,,,,
298009,2022-11-29_18h57.57.403,vts_reward_expectancy_bt,2022.2.4,MacIntel,59.99880002,Chrome,1440,900,,,,,0,576,,,,,,,,,,,,,,,,,D,181,circle,1,0,,,,,,,,,,,,,,,,switch,number,numSwt,k,0.6336,noRew,,,,,,0,61,0,61,0,1,,,,,,,,,,,,,,,,,
298009,2022-11-29_18h57.57.403,vts_reward_expectancy_bt,2022.2.4,MacIntel,59.99880002,Chrome,1440,900,,,,,0,576,,,,,,,,,,,,,,,,,F,160,triangle,1,0,,,,,,,,,,,,,,,,repeat,number,numRpt,k,1.0646,noRew,,,,,,0,62,0,62,0,1,,,,,,,,,,,,,,,,,
298009,2022-11-29_18h57.57.403,vts_reward_expectancy_bt,2022.2.4,MacIntel,59.99880002,Chrome,1440,900,,,,,0,576,,,,,,,,,,,,,,,,,B,174,circle,1,0,,,,,,,,,,,,,,,,repeat,number,numRpt,k,1.0311,noRew,,,,,,0,63,0,63,0,1,,,,,,,,,,,,,,,,,
298009,2022-11-29_18h57.57.403,vts_reward_expectancy_bt,2022.2.4,MacIntel,59.99880002,Chrome,1440,900,,,,,,,,,,,,,,,,,,,,,,,,,,,,,,,,,,,,,,,,,,,,,,,,,,,,,,,,,,,,,,,,,,,,,,,,,,,,
298009,2022-11-29_18h57.57.403,vts_reward_expectancy_bt,2022.2.4,MacIntel,59.99880002,Chrome,1440,900,,,,,0,576,,,,,,,,,,,,,,,,,H,160,star,0,0,,,,,,,,,,,,,,,,switch,letter,NA,f,1.5533,noRew,,,,,,0,,,,,,space,6.7663,high,0,0,0,0,1,,,,,,,,,
298009,2022-11-29_18h57.57.403,vts_reward_expectancy_bt,2022.2.4,MacIntel,59.99880002,Chrome,1440,900,,,,,10,586,,,,,,,,,,,,,,,,,B,139,hexagon,1,1,,,,,,,,,,,,,,,,repeat,letter,lettRpt,d,0.6961,Hi,,,,,,0,,,,,,,,high,1,0,1,0,1,,,,,,,,,
298009,2022-11-29_18h57.57.403,vts_reward_expectancy_bt,2022.2.4,MacIntel,59.99880002,Chrome,1440,900,,,,,0,586,,,,,,,,,,,,,,,,,D,125,circle,0,0,,,,,,,,,,,,,,,,switch,number,NA,k,1.4831,Hi,,,,,,0,,,,,,,,high,2,0,2,0,1,,,,,,,,,
298009,2022-11-29_18h57.57.403,vts_reward_expectancy_bt,2022.2.4,MacIntel,59.99880002,Chrome,1440,900,,,,,0,586,,,,,,,,,,,,,,,,,Y,167,triangle,1,1,,,,,,,,,,,,,,,,repeat,number,numRpt,k,1.0821,Hi,,,,,,0,,,,,,,,high,3,0,3,0,1,,,,,,,,,
298009,2022-11-29_18h57.57.403,vts_reward_expectancy_bt,2022.2.4,MacIntel,59.99880002,Chrome,1440,900,,,,,1,587,,,,,,,,,,,,,,,,,S,181,star,1,0,,,,,,,,,,,,,,,,switch,letter,lettSwt,f,0.7373,Lo,,,,,,0,,,,,,,,high,4,0,4,0,1,,,,,,,,,
298009,2022-11-29_18h57.57.403,vts_reward_expectancy_bt,2022.2.4,MacIntel,59.99880002,Chrome,1440,900,,,,,0,587,,,,,,,,,,,,,,,,,W,132,hexagon,1,0,,,,,,,,,,,,,,,,repeat,letter,lettRpt,f,0.8136,Hi,,,,,,0,,,,,,,,high,5,0,5,0,1,,,,,,,,,
298009,2022-11-29_18h57.57.403,vts_reward_expectancy_bt,2022.2.4,MacIntel,59.99880002,Chrome,1440,900,,,,,1,588,,,,,,,,,,,,,,,,,F,146,circle,1,0,,,,,,,,,,,,,,,,switch,number,numSwt,j,0.6649,Lo,,,,,,0,,,,,,,,high,6,0,6,0,1,,,,,,,,,
298009,2022-11-29_18h57.57.403,vts_reward_expectancy_bt,2022.2.4,MacIntel,59.99880002,Chrome,1440,900,,,,,10,598,,,,,,,,,,,,,,,,,U,174,triangle,1,0,,,,,,,,,,,,,,,,switch,letter,lettSwt,f,0.5157,Hi,,,,,,0,,,,,,,,high,7,0,7,0,1,,,,,,,,,
298009,2022-11-29_18h57.57.403,vts_reward_expectancy_bt,2022.2.4,MacIntel,59.99880002,Chrome,1440,900,,,,,0,598,,,,,,,,,,,,,,,,,H,160,circle,0,0,,,,,,,,,,,,,,,,repeat,letter,NA,f,0.5195,Hi,,,,,,0,,,,,,,,high,8,0,8,0,1,,,,,,,,,
298009,2022-11-29_18h57.57.403,vts_reward_expectancy_bt,2022.2.4,MacIntel,59.99880002,Chrome,1440,900,,,,,1,599,,,,,,,,,,,,,,,,,B,139,star,1,1,,,,,,,,,,,,,,,,switch,number,numSwt,j,0.5472,Lo,,,,,,0,,,,,,,,high,9,0,9,0,1,,,,,,,,,
298009,2022-11-29_18h57.57.403,vts_reward_expectancy_bt,2022.2.4,MacIntel,59.99880002,Chrome,1440,900,,,,,0,599,,,,,,,,,,,,,,,,,D,125,triangle,0,0,,,,,,,,,,,,,,,,switch,letter,NA,f,0.5468,Lo,,,,,,0,,,,,,,,high,10,0,10,0,1,,,,,,,,,
298009,2022-11-29_18h57.57.403,vts_reward_expectancy_bt,2022.2.4,MacIntel,59.99880002,Chrome,1440,900,,,,,10,609,,,,,,,,,,,,,,,,,Y,167,hexagon,1,1,,,,,,,,,,,,,,,,repeat,letter,lettRpt,f,0.6636,Hi,,,,,,0,,,,,,,,high,11,0,11,0,1,,,,,,,,,
298009,2022-11-29_18h57.57.403,vts_reward_expectancy_bt,2022.2.4,MacIntel,59.99880002,Chrome,1440,900,,,,,10,619,,,,,,,,,,,,,,,,,S,181,triangle,1,0,,,,,,,,,,,,,,,,repeat,letter,lettRpt,f,0.6808,Hi,,,,,,0,,,,,,,,high,12,0,12,0,1,,,,,,,,,
298009,2022-11-29_18h57.57.403,vts_reward_expectancy_bt,2022.2.4,MacIntel,59.99880002,Chrome,1440,900,,,,,1,620,,,,,,,,,,,,,,,,,W,132,star,1,0,,,,,,,,,,,,,,,,repeat,letter,lettRpt,f,0.564,Lo,,,,,,0,,,,,,,,high,13,0,13,0,1,,,,,,,,,
298009,2022-11-29_18h57.57.403,vts_reward_expectancy_bt,2022.2.4,MacIntel,59.99880002,Chrome,1440,900,,,,,10,630,,,,,,,,,,,,,,,,,F,146,hexagon,1,0,,,,,,,,,,,,,,,,repeat,letter,lettRpt,d,0.5979,Hi,,,,,,0,,,,,,,,high,14,0,14,0,1,,,,,,,,,
298009,2022-11-29_18h57.57.403,vts_reward_expectancy_bt,2022.2.4,MacIntel,59.99880002,Chrome,1440,900,,,,,1,631,,,,,,,,,,,,,,,,,U,174,circle,1,0,,,,,,,,,,,,,,,,repeat,letter,lettRpt,f,0.4869,Lo,,,,,,0,,,,,,,,high,15,0,15,0,1,,,,,,,,,
298009,2022-11-29_18h57.57.403,vts_reward_expectancy_bt,2022.2.4,MacIntel,59.99880002,Chrome,1440,900,,,,,1,632,,,,,,,,,,,,,,,,,B,160,triangle,1,0,,,,,,,,,,,,,,,,repeat,letter,lettRpt,d,0.6158,Hi,,,,,,0,,,,,,,,high,16,0,16,0,1,,,,,,,,,
298009,2022-11-29_18h57.57.403,vts_reward_expectancy_bt,2022.2.4,MacIntel,59.99880002,Chrome,1440,900,,,,,1,633,,,,,,,,,,,,,,,,,Y,167,circle,1,0,,,,,,,,,,,,,,,,repeat,letter,lettRpt,f,0.6803,Lo,,,,,,0,,,,,,,,high,17,0,17,0,1,,,,,,,,,
298009,2022-11-29_18h57.57.403,vts_reward_expectancy_bt,2022.2.4,MacIntel,59.99880002,Chrome,1440,900,,,,,0,633,,,,,,,,,,,,,,,,,U,132,hexagon,1,0,,,,,,,,,,,,,,,,switch,number,numSwt,j,0.6813,Hi,,,,,,0,,,,,,,,high,18,0,18,0,1,,,,,,,,,
298009,2022-11-29_18h57.57.403,vts_reward_expectancy_bt,2022.2.4,MacIntel,59.99880002,Chrome,1440,900,,,,,1,634,,,,,,,,,,,,,,,,,W,125,star,1,0,,,,,,,,,,,,,,,,switch,letter,lettSwt,f,0.4673,Lo,,,,,,0,,,,,,,,high,19,0,19,0,1,,,,,,,,,
298009,2022-11-29_18h57.57.403,vts_reward_expectancy_bt,2022.2.4,MacIntel,59.99880002,Chrome,1440,900,,,,,1,635,,,,,,,,,,,,,,,,,H,174,triangle,1,0,,,,,,,,,,,,,,,,switch,number,numSwt,k,0.5976,Hi,,,,,,0,,,,,,,,high,20,0,20,0,1,,,,,,,,,
298009,2022-11-29_18h57.57.403,vts_reward_expectancy_bt,2022.2.4,MacIntel,59.99880002,Chrome,1440,900,,,,,0,635,,,,,,,,,,,,,,,,,D,181,circle,0,0,,,,,,,,,,,,,,,,switch,letter,NA,f,0.6807,Hi,,,,,,0,,,,,,,,high,21,0,21,0,1,,,,,,,,,
298009,2022-11-29_18h57.57.403,vts_reward_expectancy_bt,2022.2.4,MacIntel,59.99880002,Chrome,1440,900,,,,,1,636,,,,,,,,,,,,,,,,,F,139,star,1,1,,,,,,,,,,,,,,,,switch,number,numSwt,j,0.7148,Lo,,,,,,0,,,,,,,,high,22,0,22,0,1,,,,,,,,,
298009,2022-11-29_18h57.57.403,vts_reward_expectancy_bt,2022.2.4,MacIntel,59.99880002,Chrome,1440,900,,,,,0,636,,,,,,,,,,,,,,,,,S,146,hexagon,0,0,,,,,,,,,,,,,,,,repeat,number,NA,k,0.6016,Lo,,,,,,0,,,,,,,,high,23,0,23,0,1,,,,,,,,,
298009,2022-11-29_18h57.57.403,vts_reward_expectancy_bt,2022.2.4,MacIntel,59.99880002,Chrome,1440,900,,,,,0,636,,,,,,,,,,,,,,,,,H,181,triangle,0,1,,,,,,,,,,,,,,,,switch,letter,NA,f,0.7484,Lo,,,,,,0,,,,,,,,high,24,0,24,0,1,,,,,,,,,
298009,2022-11-29_18h57.57.403,vts_reward_expectancy_bt,2022.2.4,MacIntel,59.99880002,Chrome,1440,900,,,,,10,646,,,,,,,,,,,,,,,,,Y,132,hexagon,1,1,,,,,,,,,,,,,,,,repeat,letter,lettRpt,f,0.6143,Hi,,,,,,0,,,,,,,,high,25,0,25,0,1,,,,,,,,,
298009,2022-11-29_18h57.57.403,vts_reward_expectancy_bt,2022.2.4,MacIntel,59.99880002,Chrome,1440,900,,,,,1,647,,,,,,,,,,,,,,,,,D,160,circle,1,0,,,,,,,,,,,,,,,,switch,number,numSwt,k,0.548,Lo,,,,,,0,,,,,,,,high,26,0,26,0,1,,,,,,,,,
298009,2022-11-29_18h57.57.403,vts_reward_expectancy_bt,2022.2.4,MacIntel,59.99880002,Chrome,1440,900,,,,,1,648,,,,,,,,,,,,,,,,,B,125,star,1,0,,,,,,,,,,,,,,,,switch,letter,lettSwt,d,0.5979,Lo,,,,,,0,,,,,,,,high,27,0,27,0,1,,,,,,,,,
298009,2022-11-29_18h57.57.403,vts_reward_expectancy_bt,2022.2.4,MacIntel,59.99880002,Chrome,1440,900,,,,,10,658,,,,,,,,,,,,,,,,,S,139,hexagon,1,0,,,,,,,,,,,,,,,,repeat,letter,lettRpt,f,0.696,Hi,,,,,,0,,,,,,,,high,28,0,28,0,1,,,,,,,,,
298009,2022-11-29_18h57.57.403,vts_reward_expectancy_bt,2022.2.4,MacIntel,59.99880002,Chrome,1440,900,,,,,1,659,,,,,,,,,,,,,,,,,F,146,star,1,0,,,,,,,,,,,,,,,,repeat,letter,lettRpt,d,0.5966,Lo,,,,,,0,,,,,,,,high,29,0,29,0,1,,,,,,,,,
298009,2022-11-29_18h57.57.403,vts_reward_expectancy_bt,2022.2.4,MacIntel,59.99880002,Chrome,1440,900,,,,,1,660,,,,,,,,,,,,,,,,,W,167,circle,1,0,,,,,,,,,,,,,,,,repeat,letter,lettRpt,f,0.5467,Lo,,,,,,0,,,,,,,,high,30,0,30,0,1,,,,,,,,,
298009,2022-11-29_18h57.57.403,vts_reward_expectancy_bt,2022.2.4,MacIntel,59.99880002,Chrome,1440,900,,,,,10,670,,,,,,,,,,,,,,,,,U,174,triangle,1,0,,,,,,,,,,,,,,,,repeat,letter,lettRpt,f,0.6213,Hi,,,,,,0,,,,,,,,high,31,0,31,0,1,,,,,,,,,
298009,2022-11-29_18h57.57.403,vts_reward_expectancy_bt,2022.2.4,MacIntel,59.99880002,Chrome,1440,900,,,,,10,680,,,,,,,,,,,,,,,,,U,125,triangle,1,0,,,,,,,,,,,,,,,,repeat,letter,lettRpt,f,0.416,Hi,,,,,,1,,,,,,space,2.1256,high,0,0,0,0,1,,,,,,,,,
298009,2022-11-29_18h57.57.403,vts_reward_expectancy_bt,2022.2.4,MacIntel,59.99880002,Chrome,1440,900,,,,,1,681,,,,,,,,,,,,,,,,,D,160,star,1,0,,,,,,,,,,,,,,,,repeat,letter,lettRpt,d,0.6033,Lo,,,,,,1,,,,,,,,high,1,0,1,0,1,,,,,,,,,
298009,2022-11-29_18h57.57.403,vts_reward_expectancy_bt,2022.2.4,MacIntel,59.99880002,Chrome,1440,900,,,,,1,682,,,,,,,,,,,,,,,,,Y,174,circle,1,0,,,,,,,,,,,,,,,,repeat,letter,lettRpt,f,0.4964,Lo,,,,,,1,,,,,,,,high,2,0,2,0,1,,,,,,,,,
298009,2022-11-29_18h57.57.403,vts_reward_expectancy_bt,2022.2.4,MacIntel,59.99880002,Chrome,1440,900,,,,,10,692,,,,,,,,,,,,,,,,,B,181,hexagon,1,0,,,,,,,,,,,,,,,,repeat,letter,lettRpt,d,0.5141,Hi,,,,,,1,,,,,,,,high,3,0,3,0,1,,,,,,,,,
298009,2022-11-29_18h57.57.403,vts_reward_expectancy_bt,2022.2.4,MacIntel,59.99880002,Chrome,1440,900,,,,,0,692,,,,,,,,,,,,,,,,,H,139,triangle,0,0,,,,,,,,,,,,,,,,repeat,letter,NA,f,0.4472,Hi,,,,,,1,,,,,,,,high,4,0,4,0,1,,,,,,,,,
298009,2022-11-29_18h57.57.403,vts_reward_expectancy_bt,2022.2.4,MacIntel,59.99880002,Chrome,1440,900,,,,,1,693,,,,,,,,,,,,,,,,,S,167,star,1,1,,,,,,,,,,,,,,,,switch,number,numSwt,k,0.4814,Lo,,,,,,1,,,,,,,,high,5,0,5,0,1,,,,,,,,,
298009,2022-11-29_18h57.57.403,vts_reward_expectancy_bt,2022.2.4,MacIntel,59.99880002,Chrome,1440,900,,,,,1,694,,,,,,,,,,,,,,,,,W,146,circle,1,0,,,,,,,,,,,,,,,,repeat,number,numRpt,j,0.605,Lo,,,,,,1,,,,,,,,high,6,0,6,0,1,,,,,,,,,
298009,2022-11-29_18h57.57.403,vts_reward_expectancy_bt,2022.2.4,MacIntel,59.99880002,Chrome,1440,900,,,,,1,695,,,,,,,,,,,,,,,,,F,132,hexagon,1,0,,,,,,,,,,,,,,,,repeat,number,numRpt,j,0.5962,Hi,,,,,,1,,,,,,,,high,7,0,7,0,1,,,,,,,,,
298009,2022-11-29_18h57.57.403,vts_reward_expectancy_bt,2022.2.4,MacIntel,59.99880002,Chrome,1440,900,,,,,0,695,,,,,,,,,,,,,,,,,U,125,triangle,1,0,,,,,,,,,,,,,,,,switch,letter,lettSwt,f,0.5374,Hi,,,,,,1,,,,,,,,high,8,0,8,0,1,,,,,,,,,
298009,2022-11-29_18h57.57.403,vts_reward_expectancy_bt,2022.2.4,MacIntel,59.99880002,Chrome,1440,900,,,,,1,696,,,,,,,,,,,,,,,,,D,160,circle,1,0,,,,,,,,,,,,,,,,repeat,letter,lettRpt,d,0.5642,Lo,,,,,,1,,,,,,,,high,9,0,9,0,1,,,,,,,,,
298009,2022-11-29_18h57.57.403,vts_reward_expectancy_bt,2022.2.4,MacIntel,59.99880002,Chrome,1440,900,,,,,1,697,,,,,,,,,,,,,,,,,Y,174,hexagon,1,0,,,,,,,,,,,,,,,,repeat,letter,lettRpt,f,0.5156,Hi,,,,,,1,,,,,,,,high,10,0,10,0,1,,,,,,,,,
298009,2022-11-29_18h57.57.403,vts_reward_expectancy_bt,2022.2.4,MacIntel,59.99880002,Chrome,1440,900,,,,,1,698,,,,,,,,,,,,,,,,,B,181,star,1,0,,,,,,,,,,,,,,,,repeat,letter,lettRpt,d,0.5696,Lo,,,,,,1,,,,,,,,high,11,0,11,0,1,,,,,,,,,
298009,2022-11-29_18h57.57.403,vts_reward_expectancy_bt,2022.2.4,MacIntel,59.99880002,Chrome,1440,900,,,,,1,699,,,,,,,,,,,,,,,,,H,139,circle,1,0,,,,,,,,,,,,,,,,repeat,letter,lettRpt,d,0.8143,Lo,,,,,,1,,,,,,,,high,12,0,12,0,1,,,,,,,,,
298009,2022-11-29_18h57.57.403,vts_reward_expectancy_bt,2022.2.4,MacIntel,59.99880002,Chrome,1440,900,,,,,1,700,,,,,,,,,,,,,,,,,S,167,triangle,1,0,,,,,,,,,,,,,,,,switch,number,numSwt,k,0.5297,Hi,,,,,,1,,,,,,,,high,13,0,13,0,1,,,,,,,,,
298009,2022-11-29_18h57.57.403,vts_reward_expectancy_bt,2022.2.4,MacIntel,59.99880002,Chrome,1440,900,,,,,10,710,,,,,,,,,,,,,,,,,W,146,star,1,0,,,,,,,,,,,,,,,,switch,letter,lettSwt,f,0.4981,Lo,,,,,,1,,,,,,,,high,14,0,14,0,1,,,,,,,,,
298009,2022-11-29_18h57.57.403,vts_reward_expectancy_bt,2022.2.4,MacIntel,59.99880002,Chrome,1440,900,,,,,10,720,,,,,,,,,,,,,,,,,F,132,hexagon,1,0,,,,,,,,,,,,,,,,switch,number,numSwt,j,0.5644,Hi,,,,,,1,,,,,,,,high,15,0,15,0,1,,,,,,,,,
298009,2022-11-29_18h57.57.403,vts_reward_expectancy_bt,2022.2.4,MacIntel,59.99880002,Chrome,1440,900,,,,,0,720,,,,,,,,,,,,,,,,,F,139,triangle,1,0,,,,,,,,,,,,,,,,switch,letter,lettSwt,d,0.5215,Hi,,,,,,1,,,,,,,,high,16,0,16,0,1,,,,,,,,,
298009,2022-11-29_18h57.57.403,vts_reward_expectancy_bt,2022.2.4,MacIntel,59.99880002,Chrome,1440,900,,,,,1,721,,,,,,,,,,,,,,,,,U,174,star,1,0,,,,,,,,,,,,,,,,switch,number,numSwt,k,0.5312,Lo,,,,,,1,,,,,,,,high,17,0,17,0,1,,,,,,,,,
298009,2022-11-29_18h57.57.403,vts_reward_expectancy_bt,2022.2.4,MacIntel,59.99880002,Chrome,1440,900,,,,,1,722,,,,,,,,,,,,,,,,,B,132,circle,1,0,,,,,,,,,,,,,,,,switch,letter,lettSwt,d,0.4979,Lo,,,,,,1,,,,,,,,high,18,0,18,0,1,,,,,,,,,
298009,2022-11-29_18h57.57.403,vts_reward_expectancy_bt,2022.2.4,MacIntel,59.99880002,Chrome,1440,900,,,,,10,732,,,,,,,,,,,,,,,,,D,181,hexagon,1,0,,,,,,,,,,,,,,,,repeat,letter,lettRpt,d,0.5465,Hi,,,,,,1,,,,,,,,high,19,0,19,0,1,,,,,,,,,
298009,2022-11-29_18h57.57.403,vts_reward_expectancy_bt,2022.2.4,MacIntel,59.99880002,Chrome,1440,900,,,,,0,732,,,,,,,,,,,,,,,,,S,146,hexagon,0,0,,,,,,,,,,,,,,,,switch,number,NA,k,0.3828,Hi,,,,,,1,,,,,,,,high,20,0,20,0,1,,,,,,,,,
298009,2022-11-29_18h57.57.403,vts_reward_expectancy_bt,2022.2.4,MacIntel,59.99880002,Chrome,1440,900,,,,,0,732,,,,,,,,,,,,,,,,,H,160,triangle,0,1,,,,,,,,,,,,,,,,switch,letter,NA,f,0.5648,Hi,,,,,,1,,,,,,,,high,21,0,21,0,1,,,,,,,,,
298009,2022-11-29_18h57.57.403,vts_reward_expectancy_bt,2022.2.4,MacIntel,59.99880002,Chrome,1440,900,,,,,1,733,,,,,,,,,,,,,,,,,Y,125,star,1,1,,,,,,,,,,,,,,,,switch,number,numSwt,j,0.5972,Lo,,,,,,1,,,,,,,,high,22,0,22,0,1,,,,,,,,,
298009,2022-11-29_18h57.57.403,vts_reward_expectancy_bt,2022.2.4,MacIntel,59.99880002,Chrome,1440,900,,,,,1,734,,,,,,,,,,,,,,,,,W,167,circle,1,0,,,,,,,,,,,,,,,,switch,letter,lettSwt,f,0.5473,Lo,,,,,,1,,,,,,,,high,23,0,23,0,1,,,,,,,,,
298009,2022-11-29_18h57.57.403,vts_reward_expectancy_bt,2022.2.4,MacIntel,59.99880002,Chrome,1440,900,,,,,0,734,,,,,,,,,,,,,,,,,H,125,hexagon,0,0,,,,,,,,,,,,,,,,repeat,letter,NA,f,0.7483,Lo,,,,,,1,,,,,,,,high,24,0,24,0,1,,,,,,,,,
298009,2022-11-29_18h57.57.403,vts_reward_expectancy_bt,2022.2.4,MacIntel,59.99880002,Chrome,1440,900,,,,,0,734,,,,,,,,,,,,,,,,,F,160,star,0,1,,,,,,,,,,,,,,,,repeat,letter,NA,f,0.5472,Lo,,,,,,1,,,,,,,,high,25,0,25,0,1,,,,,,,,,
298009,2022-11-29_18h57.57.403,vts_reward_expectancy_bt,2022.2.4,MacIntel,59.99880002,Chrome,1440,900,,,,,0,734,,,,,,,,,,,,,,,,,Y,174,triangle,1,1,,,,,,,,,,,,,,,,repeat,letter,lettRpt,f,0.6491,Hi,,,,,,1,,,,,,,,high,26,0,26,0,1,,,,,,,,,
298009,2022-11-29_18h57.57.403,vts_reward_expectancy_bt,2022.2.4,MacIntel,59.99880002,Chrome,1440,900,,,,,10,744,,,,,,,,,,,,,,,,,W,146,circle,1,0,,,,,,,,,,,,,,,,repeat,letter,lettRpt,f,0.7478,Lo,,,,,,1,,,,,,,,high,27,0,27,0,1,,,,,,,,,
298009,2022-11-29_18h57.57.403,vts_reward_expectancy_bt,2022.2.4,MacIntel,59.99880002,Chrome,1440,900,,,,,1,745,,,,,,,,,,,,,,,,,U,139,circle,1,0,,,,,,,,,,,,,,,,repeat,letter,lettRpt,f,0.5476,Lo,,,,,,1,,,,,,,,high,28,0,28,0,1,,,,,,,,,
298009,2022-11-29_18h57.57.403,vts_reward_expectancy_bt,2022.2.4,MacIntel,59.99880002,Chrome,1440,900,,,,,10,755,,,,,,,,,,,,,,,,,B,132,hexagon,1,0,,,,,,,,,,,,,,,,repeat,letter,lettRpt,d,0.4825,Hi,,,,,,1,,,,,,,,high,29,0,29,0,1,,,,,,,,,
298009,2022-11-29_18h57.57.403,vts_reward_expectancy_bt,2022.2.4,MacIntel,59.99880002,Chrome,1440,900,,,,,0,755,,,,,,,,,,,,,,,,,S,181,triangle,1,0,,,,,,,,,,,,,,,,repeat,letter,lettRpt,f,0.6645,Hi,,,,,,1,,,,,,,,high,30,0,30,0,1,,,,,,,,,
298009,2022-11-29_18h57.57.403,vts_reward_expectancy_bt,2022.2.4,MacIntel,59.99880002,Chrome,1440,900,,,,,1,756,,,,,,,,,,,,,,,,,D,167,star,1,0,,,,,,,,,,,,,,,,repeat,letter,lettRpt,d,0.5313,Lo,,,,,,1,,,,,,,,high,31,0,31,0,1,,,,,,,,,
298009,2022-11-29_18h57.57.403,vts_reward_expectancy_bt,2022.2.4,MacIntel,59.99880002,Chrome,1440,900,,,,,0,756,,,,,,,,,,,,,,,,,W,174,triangle,1,0,,,,,,,,,,,,,,,,repeat,letter,lettRpt,f,0.6824,Hi,,,,,,2,,,,,,space,4.3593,high,0,0,0,0,1,,,,,,,,,
298009,2022-11-29_18h57.57.403,vts_reward_expectancy_bt,2022.2.4,MacIntel,59.99880002,Chrome,1440,900,,,,,10,766,,,,,,,,,,,,,,,,,D,132,star,1,0,,,,,,,,,,,,,,,,repeat,letter,lettRpt,d,0.5195,Lo,,,,,,2,,,,,,,,high,1,0,1,0,1,,,,,,,,,
298009,2022-11-29_18h57.57.403,vts_reward_expectancy_bt,2022.2.4,MacIntel,59.99880002,Chrome,1440,900,,,,,0,766,,,,,,,,,,,,,,,,,Y,181,hexagon,1,0,,,,,,,,,,,,,,,,repeat,letter,lettRpt,f,0.6148,Hi,,,,,,2,,,,,,,,high,2,0,2,0,1,,,,,,,,,
298009,2022-11-29_18h57.57.403,vts_reward_expectancy_bt,2022.2.4,MacIntel,59.99880002,Chrome,1440,900,,,,,1,767,,,,,,,,,,,,,,,,,B,146,circle,1,0,,,,,,,,,,,,,,,,repeat,letter,lettRpt,d,0.5471,Lo,,,,,,2,,,,,,,,high,3,0,3,0,1,,,,,,,,,
298009,2022-11-29_18h57.57.403,vts_reward_expectancy_bt,2022.2.4,MacIntel,59.99880002,Chrome,1440,900,,,,,0,767,,,,,,,,,,,,,,,,,F,160,triangle,0,0,,,,,,,,,,,,,,,,repeat,letter,NA,f,0.7731,Lo,,,,,,2,,,,,,,,high,4,0,4,0,1,,,,,,,,,
298009,2022-11-29_18h57.57.403,vts_reward_expectancy_bt,2022.2.4,MacIntel,59.99880002,Chrome,1440,900,,,,,1,768,,,,,,,,,,,,,,,,,U,125,star,1,1,,,,,,,,,,,,,,,,repeat,letter,lettRpt,f,0.4816,Lo,,,,,,2,,,,,,,,high,5,0,5,0,1,,,,,,,,,
298009,2022-11-29_18h57.57.403,vts_reward_expectancy_bt,2022.2.4,MacIntel,59.99880002,Chrome,1440,900,,,,,0,768,,,,,,,,,,,,,,,,,S,139,hexagon,0,0,,,,,,,,,,,,,,,,repeat,letter,NA,d,0.4479,Lo,,,,,,2,,,,,,,,high,6,0,6,0,1,,,,,,,,,
298009,2022-11-29_18h57.57.403,vts_reward_expectancy_bt,2022.2.4,MacIntel,59.99880002,Chrome,1440,900,,,,,0,768,,,,,,,,,,,,,,,,,H,167,circle,0,1,,,,,,,,,,,,,,,,repeat,letter,NA,f,0.5826,Lo,,,,,,2,,,,,,,,high,7,0,7,0,1,,,,,,,,,
298009,2022-11-29_18h57.57.403,vts_reward_expectancy_bt,2022.2.4,MacIntel,59.99880002,Chrome,1440,900,,,,,1,769,,,,,,,,,,,,,,,,,W,174,circle,1,1,,,,,,,,,,,,,,,,repeat,letter,lettRpt,f,0.5218,Lo,,,,,,2,,,,,,,,high,8,0,8,0,1,,,,,,,,,
298009,2022-11-29_18h57.57.403,vts_reward_expectancy_bt,2022.2.4,MacIntel,59.99880002,Chrome,1440,900,,,,,10,779,,,,,,,,,,,,,,,,,D,132,star,1,0,,,,,,,,,,,,,,,,repeat,letter,lettRpt,d,0.5472,Lo,,,,,,2,,,,,,,,high,9,0,9,0,1,,,,,,,,,
298009,2022-11-29_18h57.57.403,vts_reward_expectancy_bt,2022.2.4,MacIntel,59.99880002,Chrome,1440,900,,,,,0,779,,,,,,,,,,,,,,,,,Y,181,triangle,1,0,,,,,,,,,,,,,,,,repeat,letter,lettRpt,f,0.6479,Hi,,,,,,2,,,,,,,,high,10,0,10,0,1,,,,,,,,,
298009,2022-11-29_18h57.57.403,vts_reward_expectancy_bt,2022.2.4,MacIntel,59.99880002,Chrome,1440,900,,,,,10,789,,,,,,,,,,,,,,,,,B,146,hexagon,1,0,,,,,,,,,,,,,,,,repeat,letter,lettRpt,d,0.5205,Hi,,,,,,2,,,,,,,,high,11,0,11,0,1,,,,,,,,,
298009,2022-11-29_18h57.57.403,vts_reward_expectancy_bt,2022.2.4,MacIntel,59.99880002,Chrome,1440,900,,,,,0,789,,,,,,,,,,,,,,,,,F,160,star,0,0,,,,,,,,,,,,,,,,repeat,letter,NA,f,0.4977,Hi,,,,,,2,,,,,,,,high,12,0,12,0,1,,,,,,,,,
298009,2022-11-29_18h57.57.403,vts_reward_expectancy_bt,2022.2.4,MacIntel,59.99880002,Chrome,1440,900,,,,,1,790,,,,,,,,,,,,,,,,,U,125,circle,1,1,,,,,,,,,,,,,,,,repeat,letter,lettRpt,f,0.564,Lo,,,,,,2,,,,,,,,high,13,0,13,0,1,,,,,,,,,
298009,2022-11-29_18h57.57.403,vts_reward_expectancy_bt,2022.2.4,MacIntel,59.99880002,Chrome,1440,900,,,,,10,800,,,,,,,,,,,,,,,,,S,139,hexagon,1,0,,,,,,,,,,,,,,,,repeat,letter,lettRpt,f,0.5186,Hi,,,,,,2,,,,,,,,high,14,0,14,0,1,,,,,,,,,
298009,2022-11-29_18h57.57.403,vts_reward_expectancy_bt,2022.2.4,MacIntel,59.99880002,Chrome,1440,900,,,,,0,800,,,,,,,,,,,,,,,,,H,167,triangle,1,0,,,,,,,,,,,,,,,,repeat,letter,lettRpt,d,0.6484,Hi,,,,,,2,,,,,,,,high,15,0,15,0,1,,,,,,,,,
298009,2022-11-29_18h57.57.403,vts_reward_expectancy_bt,2022.2.4,MacIntel,59.99880002,Chrome,1440,900,,,,,1,801,,,,,,,,,,,,,,,,,D,146,circle,1,0,,,,,,,,,,,,,,,,repeat,letter,lettRpt,d,0.5147,Lo,,,,,,2,,,,,,,,high,16,0,16,0,1,,,,,,,,,
298009,2022-11-29_18h57.57.403,vts_reward_expectancy_bt,2022.2.4,MacIntel,59.99880002,Chrome,1440,900,,,,,0,801,,,,,,,,,,,,,,,,,Y,167,triangle,1,0,,,,,,,,,,,,,,,,repeat,letter,lettRpt,f,0.5479,Hi,,,,,,2,,,,,,,,high,17,0,17,0,1,,,,,,,,,
298009,2022-11-29_18h57.57.403,vts_reward_expectancy_bt,2022.2.4,MacIntel,59.99880002,Chrome,1440,900,,,,,1,802,,,,,,,,,,,,,,,,,W,139,star,1,0,,,,,,,,,,,,,,,,repeat,letter,lettRpt,f,0.5975,Lo,,,,,,2,,,,,,,,high,18,0,18,0,1,,,,,,,,,
298009,2022-11-29_18h57.57.403,vts_reward_expectancy_bt,2022.2.4,MacIntel,59.99880002,Chrome,1440,900,,,,,0,802,,,,,,,,,,,,,,,,,F,174,hexagon,1,0,,,,,,,,,,,,,,,,switch,number,numSwt,k,1.2481,Hi,,,,,,2,,,,,,,,high,19,0,19,0,1,,,,,,,,,
298009,2022-11-29_18h57.57.403,vts_reward_expectancy_bt,2022.2.4,MacIntel,59.99880002,Chrome,1440,900,,,,,1,803,,,,,,,,,,,,,,,,,S,181,star,1,0,,,,,,,,,,,,,,,,repeat,number,numRpt,k,0.5309,Lo,,,,,,2,,,,,,,,high,20,0,20,0,1,,,,,,,,,
298009,2022-11-29_18h57.57.403,vts_reward_expectancy_bt,2022.2.4,MacIntel,59.99880002,Chrome,1440,900,,,,,1,804,,,,,,,,,,,,,,,,,U,160,circle,1,0,,,,,,,,,,,,,,,,switch,letter,lettSwt,f,0.498,Lo,,,,,,2,,,,,,,,high,21,0,21,0,1,,,,,,,,,
298009,2022-11-29_18h57.57.403,vts_reward_expectancy_bt,2022.2.4,MacIntel,59.99880002,Chrome,1440,900,,,,,0,804,,,,,,,,,,,,,,,,,H,132,triangle,1,0,,,,,,,,,,,,,,,,repeat,letter,lettRpt,d,0.8981,Hi,,,,,,2,,,,,,,,high,22,0,22,0,1,,,,,,,,,
298009,2022-11-29_18h57.57.403,vts_reward_expectancy_bt,2022.2.4,MacIntel,59.99880002,Chrome,1440,900,,,,,0,804,,,,,,,,,,,,,,,,,B,125,hexagon,1,0,,,,,,,,,,,,,,,,repeat,letter,lettRpt,d,0.8636,Hi,,,,,,2,,,,,,,,high,23,0,23,0,1,,,,,,,,,
298009,2022-11-29_18h57.57.403,vts_reward_expectancy_bt,2022.2.4,MacIntel,59.99880002,Chrome,1440,900,,,,,0,804,,,,,,,,,,,,,,,,,B,167,triangle,1,0,,,,,,,,,,,,,,,,repeat,letter,lettRpt,d,0.5711,Hi,,,,,,2,,,,,,,,high,24,0,24,0,1,,,,,,,,,
298009,2022-11-29_18h57.57.403,vts_reward_expectancy_bt,2022.2.4,MacIntel,59.99880002,Chrome,1440,900,,,,,1,805,,,,,,,,,,,,,,,,,U,132,circle,1,0,,,,,,,,,,,,,,,,repeat,letter,lettRpt,f,1.0329,Lo,,,,,,2,,,,,,,,high,25,0,25,0,1,,,,,,,,,
298009,2022-11-29_18h57.57.403,vts_reward_expectancy_bt,2022.2.4,MacIntel,59.99880002,Chrome,1440,900,,,,,1,806,,,,,,,,,,,,,,,,,D,146,star,1,0,,,,,,,,,,,,,,,,repeat,letter,lettRpt,d,0.7197,Lo,,,,,,2,,,,,,,,high,26,0,26,0,1,,,,,,,,,
298009,2022-11-29_18h57.57.403,vts_reward_expectancy_bt,2022.2.4,MacIntel,59.99880002,Chrome,1440,900,,,,,0,806,,,,,,,,,,,,,,,,,H,125,hexagon,0,0,,,,,,,,,,,,,,,,repeat,letter,NA,f,0.7529,Lo,,,,,,2,,,,,,,,high,27,0,27,0,1,,,,,,,,,
298009,2022-11-29_18h57.57.403,vts_reward_expectancy_bt,2022.2.4,MacIntel,59.99880002,Chrome,1440,900,,,,,10,816,,,,,,,,,,,,,,,,,W,139,triangle,1,1,,,,,,,,,,,,,,,,repeat,letter,lettRpt,f,0.4976,Hi,,,,,,2,,,,,,,,high,28,0,28,0,1,,,,,,,,,
298009,2022-11-29_18h57.57.403,vts_reward_expectancy_bt,2022.2.4,MacIntel,59.99880002,Chrome,1440,900,,,,,10,826,,,,,,,,,,,,,,,,,S,174,circle,1,0,,,,,,,,,,,,,,,,repeat,letter,lettRpt,f,0.5016,Lo,,,,,,2,,,,,,,,high,29,0,29,0,1,,,,,,,,,
298009,2022-11-29_18h57.57.403,vts_reward_expectancy_bt,2022.2.4,MacIntel,59.99880002,Chrome,1440,900,,,,,1,827,,,,,,,,,,,,,,,,,Y,160,star,1,0,,,,,,,,,,,,,,,,repeat,letter,lettRpt,f,0.4642,Lo,,,,,,2,,,,,,,,high,30,0,30,0,1,,,,,,,,,
298009,2022-11-29_18h57.57.403,vts_reward_expectancy_bt,2022.2.4,MacIntel,59.99880002,Chrome,1440,900,,,,,0,827,,,,,,,,,,,,,,,,,F,181,hexagon,0,0,,,,,,,,,,,,,,,,repeat,letter,NA,f,0.4817,Lo,,,,,,2,,,,,,,,high,31,0,31,0,1,,,,,,,,,
298009,2022-11-29_18h57.57.403,vts_reward_expectancy_bt,2022.2.4,MacIntel,59.99880002,Chrome,1440,900,,,,,10,837,,,,,,,,,,,,,,,,,D,181,triangle,1,1,,,,,,,,,,,,,,,,switch,number,numSwt,k,0.4673,Hi,,,,,,3,,,,,,space,1.3248,high,0,0,0,0,1,,,,,,,,,
298009,2022-11-29_18h57.57.403,vts_reward_expectancy_bt,2022.2.4,MacIntel,59.99880002,Chrome,1440,900,,,,,10,847,,,,,,,,,,,,,,,,,H,167,circle,1,0,,,,,,,,,,,,,,,,repeat,number,numRpt,k,0.4636,Lo,,,,,,3,,,,,,,,high,1,0,1,0,1,,,,,,,,,
298009,2022-11-29_18h57.57.403,vts_reward_expectancy_bt,2022.2.4,MacIntel,59.99880002,Chrome,1440,900,,,,,1,848,,,,,,,,,,,,,,,,,S,174,hexagon,1,0,,,,,,,,,,,,,,,,repeat,number,numRpt,k,0.4819,Hi,,,,,,3,,,,,,,,high,2,0,2,0,1,,,,,,,,,
298009,2022-11-29_18h57.57.403,vts_reward_expectancy_bt,2022.2.4,MacIntel,59.99880002,Chrome,1440,900,,,,,0,848,,,,,,,,,,,,,,,,,U,125,star,-1,0,,,,,,,,,,,,,,,,switch,no_choice,NA,,,Hi,,,,,,3,,,,,,,,high,3,0,3,0,1,,,,,,,,,
298009,2022-11-29_18h57.57.403,vts_reward_expectancy_bt,2022.2.4,MacIntel,59.99880002,Chrome,1440,900,,,,,0,848,,,,,,,,,,,,,,,,,W,139,triangle,0,0,,,,,,,,,,,,,,,,switch,number,NA,k,1.3659,Hi,,,,,,3,,,,,,,,high,4,0,4,0,1,,,,,,,,,
298009,2022-11-29_18h57.57.403,vts_reward_expectancy_bt,2022.2.4,MacIntel,59.99880002,Chrome,1440,900,,,,,1,849,,,,,,,,,,,,,,,,,Y,132,circle,1,1,,,,,,,,,,,,,,,,repeat,number,numRpt,j,0.5139,Lo,,,,,,3,,,,,,,,high,5,0,5,0,1,,,,,,,,,
298009,2022-11-29_18h57.57.403,vts_reward_expectancy_bt,2022.2.4,MacIntel,59.99880002,Chrome,1440,900,,,,,10,859,,,,,,,,,,,,,,,,,F,160,hexagon,1,0,,,,,,,,,,,,,,,,repeat,number,numRpt,k,0.5137,Hi,,,,,,3,,,,,,,,high,6,0,6,0,1,,,,,,,,,
298009,2022-11-29_18h57.57.403,vts_reward_expectancy_bt,2022.2.4,MacIntel,59.99880002,Chrome,1440,900,,,,,10,869,,,,,,,,,,,,,,,,,B,146,star,1,0,,,,,,,,,,,,,,,,switch,letter,lettSwt,d,0.6054,Lo,,,,,,3,,,,,,,,high,7,0,7,0,1,,,,,,,,,
298009,2022-11-29_18h57.57.403,vts_reward_expectancy_bt,2022.2.4,MacIntel,59.99880002,Chrome,1440,900,,,,,1,870,,,,,,,,,,,,,,,,,D,181,star,1,0,,,,,,,,,,,,,,,,repeat,letter,lettRpt,d,0.6176,Lo,,,,,,3,,,,,,,,high,8,0,8,0,1,,,,,,,,,
298009,2022-11-29_18h57.57.403,vts_reward_expectancy_bt,2022.2.4,MacIntel,59.99880002,Chrome,1440,900,,,,,0,870,,,,,,,,,,,,,,,,,H,167,hexagon,0,0,,,,,,,,,,,,,,,,repeat,letter,NA,f,0.6214,Lo,,,,,,3,,,,,,,,high,9,0,9,0,1,,,,,,,,,
298009,2022-11-29_18h57.57.403,vts_reward_expectancy_bt,2022.2.4,MacIntel,59.99880002,Chrome,1440,900,,,,,1,871,,,,,,,,,,,,,,,,,S,174,triangle,1,1,,,,,,,,,,,,,,,,switch,number,numSwt,k,0.4641,Hi,,,,,,3,,,,,,,,high,10,0,10,0,1,,,,,,,,,
298009,2022-11-29_18h57.57.403,vts_reward_expectancy_bt,2022.2.4,MacIntel,59.99880002,Chrome,1440,900,,,,,1,872,,,,,,,,,,,,,,,,,U,125,circle,1,0,,,,,,,,,,,,,,,,repeat,number,numRpt,j,0.3804,Lo,,,,,,3,,,,,,,,high,11,0,11,0,1,,,,,,,,,
298009,2022-11-29_18h57.57.403,vts_reward_expectancy_bt,2022.2.4,MacIntel,59.99880002,Chrome,1440,900,,,,,1,873,,,,,,,,,,,,,,,,,W,139,star,1,0,,,,,,,,,,,,,,,,switch,letter,lettSwt,f,0.6315,Lo,,,,,,3,,,,,,,,high,12,0,12,0,1,,,,,,,,,
298009,2022-11-29_18h57.57.403,vts_reward_expectancy_bt,2022.2.4,MacIntel,59.99880002,Chrome,1440,900,,,,,10,883,,,,,,,,,,,,,,,,,Y,132,hexagon,1,0,,,,,,,,,,,,,,,,switch,number,numSwt,j,0.5844,Hi,,,,,,3,,,,,,,,high,13,0,13,0,1,,,,,,,,,
298009,2022-11-29_18h57.57.403,vts_reward_expectancy_bt,2022.2.4,MacIntel,59.99880002,Chrome,1440,900,,,,,0,883,,,,,,,,,,,,,,,,,F,160,triangle,1,0,,,,,,,,,,,,,,,,switch,letter,lettSwt,d,0.5814,Hi,,,,,,3,,,,,,,,high,14,0,14,0,1,,,,,,,,,
298009,2022-11-29_18h57.57.403,vts_reward_expectancy_bt,2022.2.4,MacIntel,59.99880002,Chrome,1440,900,,,,,1,884,,,,,,,,,,,,,,,,,B,146,circle,1,0,,,,,,,,,,,,,,,,switch,number,numSwt,j,0.6478,Lo,,,,,,3,,,,,,,,high,15,0,15,0,1,,,,,,,,,
298009,2022-11-29_18h57.57.403,vts_reward_expectancy_bt,2022.2.4,MacIntel,59.99880002,Chrome,1440,900,,,,,0,884,,,,,,,,,,,,,,,,,H,160,hexagon,1,0,,,,,,,,,,,,,,,,repeat,number,numRpt,k,0.5318,Hi,,,,,,3,,,,,,,,high,16,0,16,0,1,,,,,,,,,
298009,2022-11-29_18h57.57.403,vts_reward_expectancy_bt,2022.2.4,MacIntel,59.99880002,Chrome,1440,900,,,,,1,885,,,,,,,,,,,,,,,,,U,181,star,1,0,,,,,,,,,,,,,,,,switch,letter,lettSwt,f,0.7635,Lo,,,,,,3,,,,,,,,high,17,0,17,0,1,,,,,,,,,
298009,2022-11-29_18h57.57.403,vts_reward_expectancy_bt,2022.2.4,MacIntel,59.99880002,Chrome,1440,900,,,,,0,885,,,,,,,,,,,,,,,,,B,139,circle,0,0,,,,,,,,,,,,,,,,switch,number,NA,k,0.497,Lo,,,,,,3,,,,,,,,high,18,0,18,0,1,,,,,,,,,
298009,2022-11-29_18h57.57.403,vts_reward_expectancy_bt,2022.2.4,MacIntel,59.99880002,Chrome,1440,900,,,,,0,885,,,,,,,,,,,,,,,,,S,125,triangle,1,1,,,,,,,,,,,,,,,,repeat,number,numRpt,j,0.5978,Hi,,,,,,3,,,,,,,,high,19,0,19,0,1,,,,,,,,,
298009,2022-11-29_18h57.57.403,vts_reward_expectancy_bt,2022.2.4,MacIntel,59.99880002,Chrome,1440,900,,,,,0,885,,,,,,,,,,,,,,,,,Y,132,hexagon,0,0,,,,,,,,,,,,,,,,repeat,number,NA,k,0.0295,Hi,,,,,,3,,,,,,,,high,20,0,20,0,1,,,,,,,,,
298009,2022-11-29_18h57.57.403,vts_reward_expectancy_bt,2022.2.4,MacIntel,59.99880002,Chrome,1440,900,,,,,1,886,,,,,,,,,,,,,,,,,W,174,star,1,1,,,,,,,,,,,,,,,,switch,letter,lettSwt,f,0.0207,Lo,,,,,,3,,,,,,,,high,21,0,21,0,1,,,,,,,,,
298009,2022-11-29_18h57.57.403,vts_reward_expectancy_bt,2022.2.4,MacIntel,59.99880002,Chrome,1440,900,,,,,0,886,,,,,,,,,,,,,,,,,D,167,triangle,0,0,,,,,,,,,,,,,,,,repeat,letter,NA,f,0.4674,Lo,,,,,,3,,,,,,,,high,22,0,22,0,1,,,,,,,,,
298009,2022-11-29_18h57.57.403,vts_reward_expectancy_bt,2022.2.4,MacIntel,59.99880002,Chrome,1440,900,,,,,1,887,,,,,,,,,,,,,,,,,F,146,circle,1,1,,,,,,,,,,,,,,,,switch,number,numSwt,j,0.7562,Lo,,,,,,3,,,,,,,,high,23,0,23,0,1,,,,,,,,,
298009,2022-11-29_18h57.57.403,vts_reward_expectancy_bt,2022.2.4,MacIntel,59.99880002,Chrome,1440,900,,,,,1,888,,,,,,,,,,,,,,,,,U,167,triangle,1,0,,,,,,,,,,,,,,,,switch,letter,lettSwt,f,0.4843,Hi,,,,,,3,,,,,,,,high,24,0,24,0,1,,,,,,,,,
