participant,date,expName,psychopyVersion,OS,frameRate,browser,xResolution,yResolution,key_resp.keys,key_resp.rt,training_resp.keys,training_resp.rt,points_trial,points_cumul,trainBlock,training.thisRepN,training.thisTrialN,training.thisN,training.thisIndex,training.ran,LTriangleOpac,LCircleOpac,LHexagonOpac,LStarOpac,RTriangleOpac,RCircleOpac,RHexagonOpac,RStarOpac,LShape_ID,RShape_ID,curr_topStim,curr_bottStim,curr_shape,acc,E1,target_resp_prac1.keys,target_resp_prac1.rt,pracBlock,task1_prac_trials.thisRepN,task1_prac_trials.thisTrialN,task1_prac_trials.thisN,task1_prac_trials.thisIndex,task1_prac_trials.ran,target_resp_prac2.keys,target_resp_prac2.rt,task2_praac_trials.thisRepN,task2_praac_trials.thisTrialN,task2_praac_trials.thisN,task2_praac_trials.thisIndex,task2_praac_trials.ran,alt,task,condition,target_resp.keys,target_resp.rt,rewCond,vts_practice_trials.thisRepN,vts_practice_trials.thisTrialN,vts_practice_trials.thisN,vts_practice_trials.thisIndex,vts_practice_trials.ran,blockNum,trials_norew.thisRepN,trials_norew.thisTrialN,trials_norew.thisN,trials_norew.thisIndex,trials_norew.ran,key_resp_2.keys,key_resp_2.rt,rewExpectancy,trials_rew.thisRepN,trials_rew.thisTrialN,trials_rew.thisN,trials_rew.thisIndex,trials_rew.ran,Q1,Q2,Q2_text,Q3,Q4,Q5_text,xRes,yRes
298126,2022-12-04_17h52.51.798,vts_reward_expectancy_bt,2022.2.4,Win32,143.9263097,Chrome,1080,1920,,,,,,,,,,,,,,,,,,,,,,,,,,,,,,,,,,,,,,,,,,,,,,,,,,,,,,,,,,,,,,,,,,,,,,,,,,,
298126,2022-12-04_17h52.51.798,vts_reward_expectancy_bt,2022.2.4,Win32,143.9263097,Chrome,1080,1920,space,4.6139,,,,,,,,,,,,,,,,,,,,,,,,,,,,,,,,,,,,,,,,,,,,,,,,,,,,,,,,,,,,,,,,,,,,,,,,,
298126,2022-12-04_17h52.51.798,vts_reward_expectancy_bt,2022.2.4,Win32,143.9263097,Chrome,1080,1920,,,,,,,,,,,,,,,,,,,,,,,,,,,,,,,,,,,,,,,,,,,,,,,,,,,,,,,,,,,,,,,,,,,,,,,,,,,
298126,2022-12-04_17h52.51.798,vts_reward_expectancy_bt,2022.2.4,Win32,143.9263097,Chrome,1080,1920,,,l,6.3739,10,10,0,0,0,0,1,1,1,0,0,0,0,0,1,0,triangle,hexagon,,,,,,,,,,,,,,,,,,,,,,,,,,,,,,,,,,,,,,,,,,,,,,,,,,,,,
298126,2022-12-04_17h52.51.798,vts_reward_expectancy_bt,2022.2.4,Win32,143.9263097,Chrome,1080,1920,,,l,1.867,10,20,0,0,1,1,4,1,0,1,0,0,0,0,1,0,circle,hexagon,,,,,,,,,,,,,,,,,,,,,,,,,,,,,,,,,,,,,,,,,,,,,,,,,,,,,
298126,2022-12-04_17h52.51.798,vts_reward_expectancy_bt,2022.2.4,Win32,143.9263097,Chrome,1080,1920,,,l,2.2874,1,21,0,0,2,2,3,1,0,1,0,0,1,0,0,0,circle,triangle,,,,,,,,,,,,,,,,,,,,,,,,,,,,,,,,,,,,,,,,,,,,,,,,,,,,,
298126,2022-12-04_17h52.51.798,vts_reward_expectancy_bt,2022.2.4,Win32,143.9263097,Chrome,1080,1920,,,a,1.6715,1,22,0,0,3,3,7,1,0,0,1,0,0,1,0,0,hexagon,circle,,,,,,,,,,,,,,,,,,,,,,,,,,,,,,,,,,,,,,,,,,,,,,,,,,,,,
298126,2022-12-04_17h52.51.798,vts_reward_expectancy_bt,2022.2.4,Win32,143.9263097,Chrome,1080,1920,,,a,1.5232,1,23,0,0,4,4,9,1,0,0,0,1,1,0,0,0,star,triangle,,,,,,,,,,,,,,,,,,,,,,,,,,,,,,,,,,,,,,,,,,,,,,,,,,,,,
298126,2022-12-04_17h52.51.798,vts_reward_expectancy_bt,2022.2.4,Win32,143.9263097,Chrome,1080,1920,,,a,1.8239,10,33,0,0,5,5,8,1,0,0,1,0,0,0,0,1,hexagon,star,,,,,,,,,,,,,,,,,,,,,,,,,,,,,,,,,,,,,,,,,,,,,,,,,,,,,
298126,2022-12-04_17h52.51.798,vts_reward_expectancy_bt,2022.2.4,Win32,143.9263097,Chrome,1080,1920,,,l,2.0801,1,34,0,0,6,6,10,1,0,0,0,1,0,1,0,0,star ,circle,,,,,,,,,,,,,,,,,,,,,,,,,,,,,,,,,,,,,,,,,,,,,,,,,,,,,
298126,2022-12-04_17h52.51.798,vts_reward_expectancy_bt,2022.2.4,Win32,143.9263097,Chrome,1080,1920,,,l,1.2342,10,44,0,0,7,7,2,1,1,0,0,0,0,0,0,1,triangle,star,,,,,,,,,,,,,,,,,,,,,,,,,,,,,,,,,,,,,,,,,,,,,,,,,,,,,
298126,2022-12-04_17h52.51.798,vts_reward_expectancy_bt,2022.2.4,Win32,143.9263097,Chrome,1080,1920,,,a,1.4949,1,45,0,0,8,8,0,1,1,0,0,0,0,1,0,0,triangle,circle,,,,,,,,,,,,,,,,,,,,,,,,,,,,,,,,,,,,,,,,,,,,,,,,,,,,,
298126,2022-12-04_17h52.51.798,vts_reward_expectancy_bt,2022.2.4,Win32,143.9263097,Chrome,1080,1920,,,l,1.6828,1,46,0,0,9,9,5,1,0,1,0,0,0,0,0,1,circle,star,,,,,,,,,,,,,,,,,,,,,,,,,,,,,,,,,,,,,,,,,,,,,,,,,,,,,
298126,2022-12-04_17h52.51.798,vts_reward_expectancy_bt,2022.2.4,Win32,143.9263097,Chrome,1080,1920,,,a,1.1434,1,47,0,0,10,10,6,1,0,0,1,0,1,0,0,0,hexagon,triangle,,,,,,,,,,,,,,,,,,,,,,,,,,,,,,,,,,,,,,,,,,,,,,,,,,,,,
298126,2022-12-04_17h52.51.798,vts_reward_expectancy_bt,2022.2.4,Win32,143.9263097,Chrome,1080,1920,,,l,0.7882,1,48,0,0,11,11,11,1,0,0,0,1,0,0,1,0,star,hexagon,,,,,,,,,,,,,,,,,,,,,,,,,,,,,,,,,,,,,,,,,,,,,,,,,,,,,
298126,2022-12-04_17h52.51.798,vts_reward_expectancy_bt,2022.2.4,Win32,143.9263097,Chrome,1080,1920,,,l,0.6834,1,49,0,1,0,12,1,1,1,0,0,0,0,0,1,0,triangle,hexagon,,,,,,,,,,,,,,,,,,,,,,,,,,,,,,,,,,,,,,,,,,,,,,,,,,,,,
298126,2022-12-04_17h52.51.798,vts_reward_expectancy_bt,2022.2.4,Win32,143.9263097,Chrome,1080,1920,,,l,0.8482,1,50,0,1,1,13,8,1,0,0,1,0,0,0,0,1,hexagon,star,,,,,,,,,,,,,,,,,,,,,,,,,,,,,,,,,,,,,,,,,,,,,,,,,,,,,
298126,2022-12-04_17h52.51.798,vts_reward_expectancy_bt,2022.2.4,Win32,143.9263097,Chrome,1080,1920,,,l,0.711,1,51,0,1,2,14,4,1,0,1,0,0,0,0,1,0,circle,hexagon,,,,,,,,,,,,,,,,,,,,,,,,,,,,,,,,,,,,,,,,,,,,,,,,,,,,,
298126,2022-12-04_17h52.51.798,vts_reward_expectancy_bt,2022.2.4,Win32,143.9263097,Chrome,1080,1920,,,l,1.528,10,61,0,1,3,15,0,1,1,0,0,0,0,1,0,0,triangle,circle,,,,,,,,,,,,,,,,,,,,,,,,,,,,,,,,,,,,,,,,,,,,,,,,,,,,,
298126,2022-12-04_17h52.51.798,vts_reward_expectancy_bt,2022.2.4,Win32,143.9263097,Chrome,1080,1920,,,a,1.9351,10,71,0,1,4,16,10,1,0,0,0,1,0,1,0,0,star ,circle,,,,,,,,,,,,,,,,,,,,,,,,,,,,,,,,,,,,,,,,,,,,,,,,,,,,,
298126,2022-12-04_17h52.51.798,vts_reward_expectancy_bt,2022.2.4,Win32,143.9263097,Chrome,1080,1920,,,a,1.4292,1,72,0,1,5,17,7,1,0,0,1,0,0,1,0,0,hexagon,circle,,,,,,,,,,,,,,,,,,,,,,,,,,,,,,,,,,,,,,,,,,,,,,,,,,,,,
298126,2022-12-04_17h52.51.798,vts_reward_expectancy_bt,2022.2.4,Win32,143.9263097,Chrome,1080,1920,,,a,1.2176,10,82,0,1,6,18,11,1,0,0,0,1,0,0,1,0,star,hexagon,,,,,,,,,,,,,,,,,,,,,,,,,,,,,,,,,,,,,,,,,,,,,,,,,,,,,
298126,2022-12-04_17h52.51.798,vts_reward_expectancy_bt,2022.2.4,Win32,143.9263097,Chrome,1080,1920,,,l,1.1514,1,83,0,1,7,19,9,1,0,0,0,1,1,0,0,0,star,triangle,,,,,,,,,,,,,,,,,,,,,,,,,,,,,,,,,,,,,,,,,,,,,,,,,,,,,
298126,2022-12-04_17h52.51.798,vts_reward_expectancy_bt,2022.2.4,Win32,143.9263097,Chrome,1080,1920,,,l,0.7016,1,84,0,1,8,20,2,1,1,0,0,0,0,0,0,1,triangle,star,,,,,,,,,,,,,,,,,,,,,,,,,,,,,,,,,,,,,,,,,,,,,,,,,,,,,
298126,2022-12-04_17h52.51.798,vts_reward_expectancy_bt,2022.2.4,Win32,143.9263097,Chrome,1080,1920,,,a,1.055,1,85,0,1,9,21,6,1,0,0,1,0,1,0,0,0,hexagon,triangle,,,,,,,,,,,,,,,,,,,,,,,,,,,,,,,,,,,,,,,,,,,,,,,,,,,,,
298126,2022-12-04_17h52.51.798,vts_reward_expectancy_bt,2022.2.4,Win32,143.9263097,Chrome,1080,1920,,,l,0.5933,10,95,0,1,10,22,5,1,0,1,0,0,0,0,0,1,circle,star,,,,,,,,,,,,,,,,,,,,,,,,,,,,,,,,,,,,,,,,,,,,,,,,,,,,,
298126,2022-12-04_17h52.51.798,vts_reward_expectancy_bt,2022.2.4,Win32,143.9263097,Chrome,1080,1920,,,l,0.6824,1,96,0,1,11,23,3,1,0,1,0,0,1,0,0,0,circle,triangle,,,,,,,,,,,,,,,,,,,,,,,,,,,,,,,,,,,,,,,,,,,,,,,,,,,,,
298126,2022-12-04_17h52.51.798,vts_reward_expectancy_bt,2022.2.4,Win32,143.9263097,Chrome,1080,1920,,,l,0.5844,10,106,0,2,0,24,4,1,0,1,0,0,0,0,1,0,circle,hexagon,,,,,,,,,,,,,,,,,,,,,,,,,,,,,,,,,,,,,,,,,,,,,,,,,,,,,
298126,2022-12-04_17h52.51.798,vts_reward_expectancy_bt,2022.2.4,Win32,143.9263097,Chrome,1080,1920,,,l,0.975,1,107,0,2,1,25,5,1,0,1,0,0,0,0,0,1,circle,star,,,,,,,,,,,,,,,,,,,,,,,,,,,,,,,,,,,,,,,,,,,,,,,,,,,,,
298126,2022-12-04_17h52.51.798,vts_reward_expectancy_bt,2022.2.4,Win32,143.9263097,Chrome,1080,1920,,,a,1.4465,10,117,0,2,2,26,0,1,1,0,0,0,0,1,0,0,triangle,circle,,,,,,,,,,,,,,,,,,,,,,,,,,,,,,,,,,,,,,,,,,,,,,,,,,,,,
298126,2022-12-04_17h52.51.798,vts_reward_expectancy_bt,2022.2.4,Win32,143.9263097,Chrome,1080,1920,,,a,1.3735,1,118,0,2,3,27,7,1,0,0,1,0,0,1,0,0,hexagon,circle,,,,,,,,,,,,,,,,,,,,,,,,,,,,,,,,,,,,,,,,,,,,,,,,,,,,,
298126,2022-12-04_17h52.51.798,vts_reward_expectancy_bt,2022.2.4,Win32,143.9263097,Chrome,1080,1920,,,l,1.221,1,119,0,2,4,28,8,1,0,0,1,0,0,0,0,1,hexagon,star,,,,,,,,,,,,,,,,,,,,,,,,,,,,,,,,,,,,,,,,,,,,,,,,,,,,,
298126,2022-12-04_17h52.51.798,vts_reward_expectancy_bt,2022.2.4,Win32,143.9263097,Chrome,1080,1920,,,a,1.056,1,120,0,2,5,29,10,1,0,0,0,1,0,1,0,0,star ,circle,,,,,,,,,,,,,,,,,,,,,,,,,,,,,,,,,,,,,,,,,,,,,,,,,,,,,
298126,2022-12-04_17h52.51.798,vts_reward_expectancy_bt,2022.2.4,Win32,143.9263097,Chrome,1080,1920,,,a,1.1571,1,121,0,2,6,30,6,1,0,0,1,0,1,0,0,0,hexagon,triangle,,,,,,,,,,,,,,,,,,,,,,,,,,,,,,,,,,,,,,,,,,,,,,,,,,,,,
298126,2022-12-04_17h52.51.798,vts_reward_expectancy_bt,2022.2.4,Win32,143.9263097,Chrome,1080,1920,,,l,0.4896,1,122,0,2,7,31,1,1,1,0,0,0,0,0,1,0,triangle,hexagon,,,,,,,,,,,,,,,,,,,,,,,,,,,,,,,,,,,,,,,,,,,,,,,,,,,,,
298126,2022-12-04_17h52.51.798,vts_reward_expectancy_bt,2022.2.4,Win32,143.9263097,Chrome,1080,1920,,,l,0.5907,1,123,0,2,8,32,2,1,1,0,0,0,0,0,0,1,triangle,star,,,,,,,,,,,,,,,,,,,,,,,,,,,,,,,,,,,,,,,,,,,,,,,,,,,,,
298126,2022-12-04_17h52.51.798,vts_reward_expectancy_bt,2022.2.4,Win32,143.9263097,Chrome,1080,1920,,,a,0.9931,10,133,0,2,9,33,11,1,0,0,0,1,0,0,1,0,star,hexagon,,,,,,,,,,,,,,,,,,,,,,,,,,,,,,,,,,,,,,,,,,,,,,,,,,,,,
298126,2022-12-04_17h52.51.798,vts_reward_expectancy_bt,2022.2.4,Win32,143.9263097,Chrome,1080,1920,,,a,1.0351,10,143,0,2,10,34,9,1,0,0,0,1,1,0,0,0,star,triangle,,,,,,,,,,,,,,,,,,,,,,,,,,,,,,,,,,,,,,,,,,,,,,,,,,,,,
298126,2022-12-04_17h52.51.798,vts_reward_expectancy_bt,2022.2.4,Win32,143.9263097,Chrome,1080,1920,,,a,1.4658,10,153,0,2,11,35,3,1,0,1,0,0,1,0,0,0,circle,triangle,,,,,,,,,,,,,,,,,,,,,,,,,,,,,,,,,,,,,,,,,,,,,,,,,,,,,
298126,2022-12-04_17h52.51.798,vts_reward_expectancy_bt,2022.2.4,Win32,143.9263097,Chrome,1080,1920,,,a,1.4739,10,163,1,0,0,0,11,1,0,0,0,1,0,0,1,0,star,hexagon,,,,,,,,,,,,,,,,,,,,,,,,,,,,,,,,,,,,,,,,,,,,,,,,,,,,,
298126,2022-12-04_17h52.51.798,vts_reward_expectancy_bt,2022.2.4,Win32,143.9263097,Chrome,1080,1920,,,a,1.1895,1,164,1,0,1,1,6,1,0,0,1,0,1,0,0,0,hexagon,triangle,,,,,,,,,,,,,,,,,,,,,,,,,,,,,,,,,,,,,,,,,,,,,,,,,,,,,
298126,2022-12-04_17h52.51.798,vts_reward_expectancy_bt,2022.2.4,Win32,143.9263097,Chrome,1080,1920,,,l,0.6012,1,165,1,0,2,2,0,1,1,0,0,0,0,1,0,0,triangle,circle,,,,,,,,,,,,,,,,,,,,,,,,,,,,,,,,,,,,,,,,,,,,,,,,,,,,,
298126,2022-12-04_17h52.51.798,vts_reward_expectancy_bt,2022.2.4,Win32,143.9263097,Chrome,1080,1920,,,l,0.6818,10,175,1,0,3,3,8,1,0,0,1,0,0,0,0,1,hexagon,star,,,,,,,,,,,,,,,,,,,,,,,,,,,,,,,,,,,,,,,,,,,,,,,,,,,,,
298126,2022-12-04_17h52.51.798,vts_reward_expectancy_bt,2022.2.4,Win32,143.9263097,Chrome,1080,1920,,,l,0.5596,10,185,1,0,4,4,4,1,0,1,0,0,0,0,1,0,circle,hexagon,,,,,,,,,,,,,,,,,,,,,,,,,,,,,,,,,,,,,,,,,,,,,,,,,,,,,
298126,2022-12-04_17h52.51.798,vts_reward_expectancy_bt,2022.2.4,Win32,143.9263097,Chrome,1080,1920,,,l,0.5693,10,195,1,0,5,5,3,1,0,1,0,0,1,0,0,0,circle,triangle,,,,,,,,,,,,,,,,,,,,,,,,,,,,,,,,,,,,,,,,,,,,,,,,,,,,,
298126,2022-12-04_17h52.51.798,vts_reward_expectancy_bt,2022.2.4,Win32,143.9263097,Chrome,1080,1920,,,l,0.564,10,205,1,0,6,6,2,1,1,0,0,0,0,0,0,1,triangle,star,,,,,,,,,,,,,,,,,,,,,,,,,,,,,,,,,,,,,,,,,,,,,,,,,,,,,
298126,2022-12-04_17h52.51.798,vts_reward_expectancy_bt,2022.2.4,Win32,143.9263097,Chrome,1080,1920,,,l,0.8132,10,215,1,0,7,7,1,1,1,0,0,0,0,0,1,0,triangle,hexagon,,,,,,,,,,,,,,,,,,,,,,,,,,,,,,,,,,,,,,,,,,,,,,,,,,,,,
298126,2022-12-04_17h52.51.798,vts_reward_expectancy_bt,2022.2.4,Win32,143.9263097,Chrome,1080,1920,,,a,1.3201,10,225,1,0,8,8,9,1,0,0,0,1,1,0,0,0,star,triangle,,,,,,,,,,,,,,,,,,,,,,,,,,,,,,,,,,,,,,,,,,,,,,,,,,,,,
298126,2022-12-04_17h52.51.798,vts_reward_expectancy_bt,2022.2.4,Win32,143.9263097,Chrome,1080,1920,,,a,1.2393,10,235,1,0,9,9,7,1,0,0,1,0,0,1,0,0,hexagon,circle,,,,,,,,,,,,,,,,,,,,,,,,,,,,,,,,,,,,,,,,,,,,,,,,,,,,,
298126,2022-12-04_17h52.51.798,vts_reward_expectancy_bt,2022.2.4,Win32,143.9263097,Chrome,1080,1920,,,l,0.8023,10,245,1,0,10,10,10,1,0,0,0,1,0,1,0,0,star ,circle,,,,,,,,,,,,,,,,,,,,,,,,,,,,,,,,,,,,,,,,,,,,,,,,,,,,,
298126,2022-12-04_17h52.51.798,vts_reward_expectancy_bt,2022.2.4,Win32,143.9263097,Chrome,1080,1920,,,l,0.943,1,246,1,0,11,11,5,1,0,1,0,0,0,0,0,1,circle,star,,,,,,,,,,,,,,,,,,,,,,,,,,,,,,,,,,,,,,,,,,,,,,,,,,,,,
298126,2022-12-04_17h52.51.798,vts_reward_expectancy_bt,2022.2.4,Win32,143.9263097,Chrome,1080,1920,,,a,1.5462,10,256,1,1,0,12,3,1,0,1,0,0,1,0,0,0,circle,triangle,,,,,,,,,,,,,,,,,,,,,,,,,,,,,,,,,,,,,,,,,,,,,,,,,,,,,
298126,2022-12-04_17h52.51.798,vts_reward_expectancy_bt,2022.2.4,Win32,143.9263097,Chrome,1080,1920,,,a,1.2728,1,257,1,1,1,13,7,1,0,0,1,0,0,1,0,0,hexagon,circle,,,,,,,,,,,,,,,,,,,,,,,,,,,,,,,,,,,,,,,,,,,,,,,,,,,,,
298126,2022-12-04_17h52.51.798,vts_reward_expectancy_bt,2022.2.4,Win32,143.9263097,Chrome,1080,1920,,,l,0.5814,1,258,1,1,2,14,4,1,0,1,0,0,0,0,1,0,circle,hexagon,,,,,,,,,,,,,,,,,,,,,,,,,,,,,,,,,,,,,,,,,,,,,,,,,,,,,
298126,2022-12-04_17h52.51.798,vts_reward_expectancy_bt,2022.2.4,Win32,143.9263097,Chrome,1080,1920,,,l,0.802,1,259,1,1,3,15,11,1,0,0,0,1,0,0,1,0,star,hexagon,,,,,,,,,,,,,,,,,,,,,,,,,,,,,,,,,,,,,,,,,,,,,,,,,,,,,
298126,2022-12-04_17h52.51.798,vts_reward_expectancy_bt,2022.2.4,Win32,143.9263097,Chrome,1080,1920,,,a,1.3095,10,269,1,1,4,16,0,1,1,0,0,0,0,1,0,0,triangle,circle,,,,,,,,,,,,,,,,,,,,,,,,,,,,,,,,,,,,,,,,,,,,,,,,,,,,,
298126,2022-12-04_17h52.51.798,vts_reward_expectancy_bt,2022.2.4,Win32,143.9263097,Chrome,1080,1920,,,l,1.6847,10,279,1,1,5,17,5,1,0,1,0,0,0,0,0,1,circle,star,,,,,,,,,,,,,,,,,,,,,,,,,,,,,,,,,,,,,,,,,,,,,,,,,,,,,
298126,2022-12-04_17h52.51.798,vts_reward_expectancy_bt,2022.2.4,Win32,143.9263097,Chrome,1080,1920,,,a,1.4022,10,289,1,1,6,18,10,1,0,0,0,1,0,1,0,0,star ,circle,,,,,,,,,,,,,,,,,,,,,,,,,,,,,,,,,,,,,,,,,,,,,,,,,,,,,
298126,2022-12-04_17h52.51.798,vts_reward_expectancy_bt,2022.2.4,Win32,143.9263097,Chrome,1080,1920,,,l,0.61,10,299,1,1,7,19,2,1,1,0,0,0,0,0,0,1,triangle,star,,,,,,,,,,,,,,,,,,,,,,,,,,,,,,,,,,,,,,,,,,,,,,,,,,,,,
298126,2022-12-04_17h52.51.798,vts_reward_expectancy_bt,2022.2.4,Win32,143.9263097,Chrome,1080,1920,,,l,0.721,10,309,1,1,8,20,1,1,1,0,0,0,0,0,1,0,triangle,hexagon,,,,,,,,,,,,,,,,,,,,,,,,,,,,,,,,,,,,,,,,,,,,,,,,,,,,,
298126,2022-12-04_17h52.51.798,vts_reward_expectancy_bt,2022.2.4,Win32,143.9263097,Chrome,1080,1920,,,a,1.2157,1,310,1,1,9,21,9,1,0,0,0,1,1,0,0,0,star,triangle,,,,,,,,,,,,,,,,,,,,,,,,,,,,,,,,,,,,,,,,,,,,,,,,,,,,,
298126,2022-12-04_17h52.51.798,vts_reward_expectancy_bt,2022.2.4,Win32,143.9263097,Chrome,1080,1920,,,l,0.6536,10,320,1,1,10,22,8,1,0,0,1,0,0,0,0,1,hexagon,star,,,,,,,,,,,,,,,,,,,,,,,,,,,,,,,,,,,,,,,,,,,,,,,,,,,,,
298126,2022-12-04_17h52.51.798,vts_reward_expectancy_bt,2022.2.4,Win32,143.9263097,Chrome,1080,1920,,,a,1.1974,1,321,1,1,11,23,6,1,0,0,1,0,1,0,0,0,hexagon,triangle,,,,,,,,,,,,,,,,,,,,,,,,,,,,,,,,,,,,,,,,,,,,,,,,,,,,,
298126,2022-12-04_17h52.51.798,vts_reward_expectancy_bt,2022.2.4,Win32,143.9263097,Chrome,1080,1920,,,l,0.5767,1,322,1,2,0,24,8,1,0,0,1,0,0,0,0,1,hexagon,star,,,,,,,,,,,,,,,,,,,,,,,,,,,,,,,,,,,,,,,,,,,,,,,,,,,,,
298126,2022-12-04_17h52.51.798,vts_reward_expectancy_bt,2022.2.4,Win32,143.9263097,Chrome,1080,1920,,,l,0.8323,10,332,1,2,1,25,10,1,0,0,0,1,0,1,0,0,star ,circle,,,,,,,,,,,,,,,,,,,,,,,,,,,,,,,,,,,,,,,,,,,,,,,,,,,,,
298126,2022-12-04_17h52.51.798,vts_reward_expectancy_bt,2022.2.4,Win32,143.9263097,Chrome,1080,1920,,,a,1.2507,10,342,1,2,2,26,3,1,0,1,0,0,1,0,0,0,circle,triangle,,,,,,,,,,,,,,,,,,,,,,,,,,,,,,,,,,,,,,,,,,,,,,,,,,,,,
298126,2022-12-04_17h52.51.798,vts_reward_expectancy_bt,2022.2.4,Win32,143.9263097,Chrome,1080,1920,,,l,0.6503,1,343,1,2,3,27,5,1,0,1,0,0,0,0,0,1,circle,star,,,,,,,,,,,,,,,,,,,,,,,,,,,,,,,,,,,,,,,,,,,,,,,,,,,,,
298126,2022-12-04_17h52.51.798,vts_reward_expectancy_bt,2022.2.4,Win32,143.9263097,Chrome,1080,1920,,,a,1.3201,1,344,1,2,4,28,6,1,0,0,1,0,1,0,0,0,hexagon,triangle,,,,,,,,,,,,,,,,,,,,,,,,,,,,,,,,,,,,,,,,,,,,,,,,,,,,,
298126,2022-12-04_17h52.51.798,vts_reward_expectancy_bt,2022.2.4,Win32,143.9263097,Chrome,1080,1920,,,l,0.5934,10,354,1,2,5,29,1,1,1,0,0,0,0,0,1,0,triangle,hexagon,,,,,,,,,,,,,,,,,,,,,,,,,,,,,,,,,,,,,,,,,,,,,,,,,,,,,
298126,2022-12-04_17h52.51.798,vts_reward_expectancy_bt,2022.2.4,Win32,143.9263097,Chrome,1080,1920,,,l,0.6265,1,355,1,2,6,30,2,1,1,0,0,0,0,0,0,1,triangle,star,,,,,,,,,,,,,,,,,,,,,,,,,,,,,,,,,,,,,,,,,,,,,,,,,,,,,
298126,2022-12-04_17h52.51.798,vts_reward_expectancy_bt,2022.2.4,Win32,143.9263097,Chrome,1080,1920,,,a,1.3796,1,356,1,2,7,31,9,1,0,0,0,1,1,0,0,0,star,triangle,,,,,,,,,,,,,,,,,,,,,,,,,,,,,,,,,,,,,,,,,,,,,,,,,,,,,
298126,2022-12-04_17h52.51.798,vts_reward_expectancy_bt,2022.2.4,Win32,143.9263097,Chrome,1080,1920,,,l,0.9374,10,366,1,2,8,32,4,1,0,1,0,0,0,0,1,0,circle,hexagon,,,,,,,,,,,,,,,,,,,,,,,,,,,,,,,,,,,,,,,,,,,,,,,,,,,,,
298126,2022-12-04_17h52.51.798,vts_reward_expectancy_bt,2022.2.4,Win32,143.9263097,Chrome,1080,1920,,,l,1.7818,1,367,1,2,9,33,7,1,0,0,1,0,0,1,0,0,hexagon,circle,,,,,,,,,,,,,,,,,,,,,,,,,,,,,,,,,,,,,,,,,,,,,,,,,,,,,
298126,2022-12-04_17h52.51.798,vts_reward_expectancy_bt,2022.2.4,Win32,143.9263097,Chrome,1080,1920,,,a,1.9754,10,377,1,2,10,34,11,1,0,0,0,1,0,0,1,0,star,hexagon,,,,,,,,,,,,,,,,,,,,,,,,,,,,,,,,,,,,,,,,,,,,,,,,,,,,,
298126,2022-12-04_17h52.51.798,vts_reward_expectancy_bt,2022.2.4,Win32,143.9263097,Chrome,1080,1920,,,l,0.9927,10,387,1,2,11,35,0,1,1,0,0,0,0,1,0,0,triangle,circle,,,,,,,,,,,,,,,,,,,,,,,,,,,,,,,,,,,,,,,,,,,,,,,,,,,,,
298126,2022-12-04_17h52.51.798,vts_reward_expectancy_bt,2022.2.4,Win32,143.9263097,Chrome,1080,1920,,,a,1.4626,1,388,2,0,0,0,7,1,0,0,1,0,0,1,0,0,hexagon,circle,,,,,,,,,,,,,,,,,,,,,,,,,,,,,,,,,,,,,,,,,,,,,,,,,,,,,
298126,2022-12-04_17h52.51.798,vts_reward_expectancy_bt,2022.2.4,Win32,143.9263097,Chrome,1080,1920,,,l,0.7448,10,398,2,0,1,1,3,1,0,1,0,0,1,0,0,0,circle,triangle,,,,,,,,,,,,,,,,,,,,,,,,,,,,,,,,,,,,,,,,,,,,,,,,,,,,,
298126,2022-12-04_17h52.51.798,vts_reward_expectancy_bt,2022.2.4,Win32,143.9263097,Chrome,1080,1920,,,l,0.5895,1,399,2,0,2,2,5,1,0,1,0,0,0,0,0,1,circle,star,,,,,,,,,,,,,,,,,,,,,,,,,,,,,,,,,,,,,,,,,,,,,,,,,,,,,
298126,2022-12-04_17h52.51.798,vts_reward_expectancy_bt,2022.2.4,Win32,143.9263097,Chrome,1080,1920,,,a,1.7183,1,400,2,0,3,3,0,1,1,0,0,0,0,1,0,0,triangle,circle,,,,,,,,,,,,,,,,,,,,,,,,,,,,,,,,,,,,,,,,,,,,,,,,,,,,,
298126,2022-12-04_17h52.51.798,vts_reward_expectancy_bt,2022.2.4,Win32,143.9263097,Chrome,1080,1920,,,l,0.6569,10,410,2,0,4,4,8,1,0,0,1,0,0,0,0,1,hexagon,star,,,,,,,,,,,,,,,,,,,,,,,,,,,,,,,,,,,,,,,,,,,,,,,,,,,,,
298126,2022-12-04_17h52.51.798,vts_reward_expectancy_bt,2022.2.4,Win32,143.9263097,Chrome,1080,1920,,,l,1.0882,10,420,2,0,5,5,2,1,1,0,0,0,0,0,0,1,triangle,star,,,,,,,,,,,,,,,,,,,,,,,,,,,,,,,,,,,,,,,,,,,,,,,,,,,,,
298126,2022-12-04_17h52.51.798,vts_reward_expectancy_bt,2022.2.4,Win32,143.9263097,Chrome,1080,1920,,,l,1.9504,10,430,2,0,6,6,11,1,0,0,0,1,0,0,1,0,star,hexagon,,,,,,,,,,,,,,,,,,,,,,,,,,,,,,,,,,,,,,,,,,,,,,,,,,,,,
298126,2022-12-04_17h52.51.798,vts_reward_expectancy_bt,2022.2.4,Win32,143.9263097,Chrome,1080,1920,,,a,1.3728,1,431,2,0,7,7,9,1,0,0,0,1,1,0,0,0,star,triangle,,,,,,,,,,,,,,,,,,,,,,,,,,,,,,,,,,,,,,,,,,,,,,,,,,,,,
298126,2022-12-04_17h52.51.798,vts_reward_expectancy_bt,2022.2.4,Win32,143.9263097,Chrome,1080,1920,,,l,0.8137,10,441,2,0,8,8,4,1,0,1,0,0,0,0,1,0,circle,hexagon,,,,,,,,,,,,,,,,,,,,,,,,,,,,,,,,,,,,,,,,,,,,,,,,,,,,,
298126,2022-12-04_17h52.51.798,vts_reward_expectancy_bt,2022.2.4,Win32,143.9263097,Chrome,1080,1920,,,a,1.2291,10,451,2,0,9,9,10,1,0,0,0,1,0,1,0,0,star ,circle,,,,,,,,,,,,,,,,,,,,,,,,,,,,,,,,,,,,,,,,,,,,,,,,,,,,,
298126,2022-12-04_17h52.51.798,vts_reward_expectancy_bt,2022.2.4,Win32,143.9263097,Chrome,1080,1920,,,a,2.7277,1,452,2,0,10,10,6,1,0,0,1,0,1,0,0,0,hexagon,triangle,,,,,,,,,,,,,,,,,,,,,,,,,,,,,,,,,,,,,,,,,,,,,,,,,,,,,
298126,2022-12-04_17h52.51.798,vts_reward_expectancy_bt,2022.2.4,Win32,143.9263097,Chrome,1080,1920,,,l,0.812,10,462,2,0,11,11,1,1,1,0,0,0,0,0,1,0,triangle,hexagon,,,,,,,,,,,,,,,,,,,,,,,,,,,,,,,,,,,,,,,,,,,,,,,,,,,,,
298126,2022-12-04_17h52.51.798,vts_reward_expectancy_bt,2022.2.4,Win32,143.9263097,Chrome,1080,1920,,,a,1.2941,1,463,2,1,0,12,7,1,0,0,1,0,0,1,0,0,hexagon,circle,,,,,,,,,,,,,,,,,,,,,,,,,,,,,,,,,,,,,,,,,,,,,,,,,,,,,
298126,2022-12-04_17h52.51.798,vts_reward_expectancy_bt,2022.2.4,Win32,143.9263097,Chrome,1080,1920,,,l,0.606,1,464,2,1,1,13,4,1,0,1,0,0,0,0,1,0,circle,hexagon,,,,,,,,,,,,,,,,,,,,,,,,,,,,,,,,,,,,,,,,,,,,,,,,,,,,,
298126,2022-12-04_17h52.51.798,vts_reward_expectancy_bt,2022.2.4,Win32,143.9263097,Chrome,1080,1920,,,a,1.1644,1,465,2,1,2,14,10,1,0,0,0,1,0,1,0,0,star ,circle,,,,,,,,,,,,,,,,,,,,,,,,,,,,,,,,,,,,,,,,,,,,,,,,,,,,,
298126,2022-12-04_17h52.51.798,vts_reward_expectancy_bt,2022.2.4,Win32,143.9263097,Chrome,1080,1920,,,a,1.2319,1,466,2,1,3,15,6,1,0,0,1,0,1,0,0,0,hexagon,triangle,,,,,,,,,,,,,,,,,,,,,,,,,,,,,,,,,,,,,,,,,,,,,,,,,,,,,
298126,2022-12-04_17h52.51.798,vts_reward_expectancy_bt,2022.2.4,Win32,143.9263097,Chrome,1080,1920,,,l,0.8028,10,476,2,1,4,16,5,1,0,1,0,0,0,0,0,1,circle,star,,,,,,,,,,,,,,,,,,,,,,,,,,,,,,,,,,,,,,,,,,,,,,,,,,,,,
298126,2022-12-04_17h52.51.798,vts_reward_expectancy_bt,2022.2.4,Win32,143.9263097,Chrome,1080,1920,,,l,0.64,10,486,2,1,5,17,2,1,1,0,0,0,0,0,0,1,triangle,star,,,,,,,,,,,,,,,,,,,,,,,,,,,,,,,,,,,,,,,,,,,,,,,,,,,,,
298126,2022-12-04_17h52.51.798,vts_reward_expectancy_bt,2022.2.4,Win32,143.9263097,Chrome,1080,1920,,,a,1.084,10,496,2,1,6,18,9,1,0,0,0,1,1,0,0,0,star,triangle,,,,,,,,,,,,,,,,,,,,,,,,,,,,,,,,,,,,,,,,,,,,,,,,,,,,,
298126,2022-12-04_17h52.51.798,vts_reward_expectancy_bt,2022.2.4,Win32,143.9263097,Chrome,1080,1920,,,l,0.7215,10,506,2,1,7,19,0,1,1,0,0,0,0,1,0,0,triangle,circle,,,,,,,,,,,,,,,,,,,,,,,,,,,,,,,,,,,,,,,,,,,,,,,,,,,,,
298126,2022-12-04_17h52.51.798,vts_reward_expectancy_bt,2022.2.4,Win32,143.9263097,Chrome,1080,1920,,,l,1.1134,10,516,2,1,8,20,1,1,1,0,0,0,0,0,1,0,triangle,hexagon,,,,,,,,,,,,,,,,,,,,,,,,,,,,,,,,,,,,,,,,,,,,,,,,,,,,,
298126,2022-12-04_17h52.51.798,vts_reward_expectancy_bt,2022.2.4,Win32,143.9263097,Chrome,1080,1920,,,l,0.779,1,517,2,1,9,21,3,1,0,1,0,0,1,0,0,0,circle,triangle,,,,,,,,,,,,,,,,,,,,,,,,,,,,,,,,,,,,,,,,,,,,,,,,,,,,,
298126,2022-12-04_17h52.51.798,vts_reward_expectancy_bt,2022.2.4,Win32,143.9263097,Chrome,1080,1920,,,l,1.4476,10,527,2,1,10,22,8,1,0,0,1,0,0,0,0,1,hexagon,star,,,,,,,,,,,,,,,,,,,,,,,,,,,,,,,,,,,,,,,,,,,,,,,,,,,,,
298126,2022-12-04_17h52.51.798,vts_reward_expectancy_bt,2022.2.4,Win32,143.9263097,Chrome,1080,1920,,,a,1.7449,10,537,2,1,11,23,11,1,0,0,0,1,0,0,1,0,star,hexagon,,,,,,,,,,,,,,,,,,,,,,,,,,,,,,,,,,,,,,,,,,,,,,,,,,,,,
298126,2022-12-04_17h52.51.798,vts_reward_expectancy_bt,2022.2.4,Win32,143.9263097,Chrome,1080,1920,,,l,0.9537,10,547,2,2,0,24,2,1,1,0,0,0,0,0,0,1,triangle,star,,,,,,,,,,,,,,,,,,,,,,,,,,,,,,,,,,,,,,,,,,,,,,,,,,,,,
298126,2022-12-04_17h52.51.798,vts_reward_expectancy_bt,2022.2.4,Win32,143.9263097,Chrome,1080,1920,,,a,1.2394,1,548,2,2,1,25,6,1,0,0,1,0,1,0,0,0,hexagon,triangle,,,,,,,,,,,,,,,,,,,,,,,,,,,,,,,,,,,,,,,,,,,,,,,,,,,,,
298126,2022-12-04_17h52.51.798,vts_reward_expectancy_bt,2022.2.4,Win32,143.9263097,Chrome,1080,1920,,,l,1.3105,10,558,2,2,2,26,11,1,0,0,0,1,0,0,1,0,star,hexagon,,,,,,,,,,,,,,,,,,,,,,,,,,,,,,,,,,,,,,,,,,,,,,,,,,,,,
298126,2022-12-04_17h52.51.798,vts_reward_expectancy_bt,2022.2.4,Win32,143.9263097,Chrome,1080,1920,,,l,1.0444,1,559,2,2,3,27,1,1,1,0,0,0,0,0,1,0,triangle,hexagon,,,,,,,,,,,,,,,,,,,,,,,,,,,,,,,,,,,,,,,,,,,,,,,,,,,,,
298126,2022-12-04_17h52.51.798,vts_reward_expectancy_bt,2022.2.4,Win32,143.9263097,Chrome,1080,1920,,,a,1.3505,1,560,2,2,4,28,10,1,0,0,0,1,0,1,0,0,star ,circle,,,,,,,,,,,,,,,,,,,,,,,,,,,,,,,,,,,,,,,,,,,,,,,,,,,,,
298126,2022-12-04_17h52.51.798,vts_reward_expectancy_bt,2022.2.4,Win32,143.9263097,Chrome,1080,1920,,,l,0.6272,1,561,2,2,5,29,4,1,0,1,0,0,0,0,1,0,circle,hexagon,,,,,,,,,,,,,,,,,,,,,,,,,,,,,,,,,,,,,,,,,,,,,,,,,,,,,
298126,2022-12-04_17h52.51.798,vts_reward_expectancy_bt,2022.2.4,Win32,143.9263097,Chrome,1080,1920,,,a,1.1289,10,571,2,2,6,30,9,1,0,0,0,1,1,0,0,0,star,triangle,,,,,,,,,,,,,,,,,,,,,,,,,,,,,,,,,,,,,,,,,,,,,,,,,,,,,
298126,2022-12-04_17h52.51.798,vts_reward_expectancy_bt,2022.2.4,Win32,143.9263097,Chrome,1080,1920,,,l,0.6776,10,581,2,2,7,31,8,1,0,0,1,0,0,0,0,1,hexagon,star,,,,,,,,,,,,,,,,,,,,,,,,,,,,,,,,,,,,,,,,,,,,,,,,,,,,,
298126,2022-12-04_17h52.51.798,vts_reward_expectancy_bt,2022.2.4,Win32,143.9263097,Chrome,1080,1920,,,a,1.3234,1,582,2,2,8,32,7,1,0,0,1,0,0,1,0,0,hexagon,circle,,,,,,,,,,,,,,,,,,,,,,,,,,,,,,,,,,,,,,,,,,,,,,,,,,,,,
298126,2022-12-04_17h52.51.798,vts_reward_expectancy_bt,2022.2.4,Win32,143.9263097,Chrome,1080,1920,,,l,0.5776,10,592,2,2,9,33,5,1,0,1,0,0,0,0,0,1,circle,star,,,,,,,,,,,,,,,,,,,,,,,,,,,,,,,,,,,,,,,,,,,,,,,,,,,,,
298126,2022-12-04_17h52.51.798,vts_reward_expectancy_bt,2022.2.4,Win32,143.9263097,Chrome,1080,1920,,,l,0.5734,1,593,2,2,10,34,3,1,0,1,0,0,1,0,0,0,circle,triangle,,,,,,,,,,,,,,,,,,,,,,,,,,,,,,,,,,,,,,,,,,,,,,,,,,,,,
298126,2022-12-04_17h52.51.798,vts_reward_expectancy_bt,2022.2.4,Win32,143.9263097,Chrome,1080,1920,,,l,1.2657,1,594,2,2,11,35,0,1,1,0,0,0,0,1,0,0,triangle,circle,,,,,,,,,,,,,,,,,,,,,,,,,,,,,,,,,,,,,,,,,,,,,,,,,,,,,
298126,2022-12-04_17h52.51.798,vts_reward_expectancy_bt,2022.2.4,Win32,143.9263097,Chrome,1080,1920,,,,,,,,,,,,,,,,,,,,,,,B,132,circle,1,0,d,1.6562,0,0,0,0,0,1,,,,,,,,,,,,,,,,,,,,,,,,,,,,,,,,,,,,,,,,
298126,2022-12-04_17h52.51.798,vts_reward_expectancy_bt,2022.2.4,Win32,143.9263097,Chrome,1080,1920,,,,,,,,,,,,,,,,,,,,,,,Y,139,hexagon,1,0,f,0.8889,0,1,0,1,0,1,,,,,,,,,,,,,,,,,,,,,,,,,,,,,,,,,,,,,,,,
298126,2022-12-04_17h52.51.798,vts_reward_expectancy_bt,2022.2.4,Win32,143.9263097,Chrome,1080,1920,,,,,,,,,,,,,,,,,,,,,,,U,174,triangle,1,0,f,0.8062,0,2,0,2,0,1,,,,,,,,,,,,,,,,,,,,,,,,,,,,,,,,,,,,,,,,
298126,2022-12-04_17h52.51.798,vts_reward_expectancy_bt,2022.2.4,Win32,143.9263097,Chrome,1080,1920,,,,,,,,,,,,,,,,,,,,,,,F,146,star,1,0,d,0.9196,0,3,0,3,0,1,,,,,,,,,,,,,,,,,,,,,,,,,,,,,,,,,,,,,,,,
298126,2022-12-04_17h52.51.798,vts_reward_expectancy_bt,2022.2.4,Win32,143.9263097,Chrome,1080,1920,,,,,,,,,,,,,,,,,,,,,,,S,125,circle,1,0,f,1.1683,0,4,0,4,0,1,,,,,,,,,,,,,,,,,,,,,,,,,,,,,,,,,,,,,,,,
298126,2022-12-04_17h52.51.798,vts_reward_expectancy_bt,2022.2.4,Win32,143.9263097,Chrome,1080,1920,,,,,,,,,,,,,,,,,,,,,,,W,160,hexagon,1,0,f,0.651,0,5,0,5,0,1,,,,,,,,,,,,,,,,,,,,,,,,,,,,,,,,,,,,,,,,
298126,2022-12-04_17h52.51.798,vts_reward_expectancy_bt,2022.2.4,Win32,143.9263097,Chrome,1080,1920,,,,,,,,,,,,,,,,,,,,,,,D,181,triangle,1,0,d,0.6606,0,6,0,6,0,1,,,,,,,,,,,,,,,,,,,,,,,,,,,,,,,,,,,,,,,,
298126,2022-12-04_17h52.51.798,vts_reward_expectancy_bt,2022.2.4,Win32,143.9263097,Chrome,1080,1920,,,,,,,,,,,,,,,,,,,,,,,H,167,star,1,0,d,1.5842,0,7,0,7,0,1,,,,,,,,,,,,,,,,,,,,,,,,,,,,,,,,,,,,,,,,
298126,2022-12-04_17h52.51.798,vts_reward_expectancy_bt,2022.2.4,Win32,143.9263097,Chrome,1080,1920,,,,,,,,,,,,,,,,,,,,,,,B,132,triangle,1,0,d,0.6876,0,8,0,8,0,1,,,,,,,,,,,,,,,,,,,,,,,,,,,,,,,,,,,,,,,,
298126,2022-12-04_17h52.51.798,vts_reward_expectancy_bt,2022.2.4,Win32,143.9263097,Chrome,1080,1920,,,,,,,,,,,,,,,,,,,,,,,Y,139,circle,1,0,f,0.7235,0,9,0,9,0,1,,,,,,,,,,,,,,,,,,,,,,,,,,,,,,,,,,,,,,,,
298126,2022-12-04_17h52.51.798,vts_reward_expectancy_bt,2022.2.4,Win32,143.9263097,Chrome,1080,1920,,,,,,,,,,,,,,,,,,,,,,,H,132,circle,1,0,,,1,,,,,,j,2.3725,0,0,0,0,1,,,,,,,,,,,,,,,,,,,,,,,,,,,,,,,,,
298126,2022-12-04_17h52.51.798,vts_reward_expectancy_bt,2022.2.4,Win32,143.9263097,Chrome,1080,1920,,,,,,,,,,,,,,,,,,,,,,,W,181,triangle,1,0,,,1,,,,,,k,0.9338,1,0,1,0,1,,,,,,,,,,,,,,,,,,,,,,,,,,,,,,,,,
298126,2022-12-04_17h52.51.798,vts_reward_expectancy_bt,2022.2.4,Win32,143.9263097,Chrome,1080,1920,,,,,,,,,,,,,,,,,,,,,,,B,160,star,1,0,,,1,,,,,,k,1.3463,2,0,2,0,1,,,,,,,,,,,,,,,,,,,,,,,,,,,,,,,,,
298126,2022-12-04_17h52.51.798,vts_reward_expectancy_bt,2022.2.4,Win32,143.9263097,Chrome,1080,1920,,,,,,,,,,,,,,,,,,,,,,,U,174,hexagon,1,0,,,1,,,,,,k,0.8886,3,0,3,0,1,,,,,,,,,,,,,,,,,,,,,,,,,,,,,,,,,
298126,2022-12-04_17h52.51.798,vts_reward_expectancy_bt,2022.2.4,Win32,143.9263097,Chrome,1080,1920,,,,,,,,,,,,,,,,,,,,,,,S,167,circle,1,0,,,1,,,,,,k,0.8829,4,0,4,0,1,,,,,,,,,,,,,,,,,,,,,,,,,,,,,,,,,
298126,2022-12-04_17h52.51.798,vts_reward_expectancy_bt,2022.2.4,Win32,143.9263097,Chrome,1080,1920,,,,,,,,,,,,,,,,,,,,,,,F,139,triangle,1,0,,,1,,,,,,j,0.9021,5,0,5,0,1,,,,,,,,,,,,,,,,,,,,,,,,,,,,,,,,,
298126,2022-12-04_17h52.51.798,vts_reward_expectancy_bt,2022.2.4,Win32,143.9263097,Chrome,1080,1920,,,,,,,,,,,,,,,,,,,,,,,D,146,star,1,0,,,1,,,,,,j,1.4708,6,0,6,0,1,,,,,,,,,,,,,,,,,,,,,,,,,,,,,,,,,
298126,2022-12-04_17h52.51.798,vts_reward_expectancy_bt,2022.2.4,Win32,143.9263097,Chrome,1080,1920,,,,,,,,,,,,,,,,,,,,,,,Y,125,hexagon,1,0,,,1,,,,,,j,0.9499,7,0,7,0,1,,,,,,,,,,,,,,,,,,,,,,,,,,,,,,,,,
298126,2022-12-04_17h52.51.798,vts_reward_expectancy_bt,2022.2.4,Win32,143.9263097,Chrome,1080,1920,,,,,,,,,,,,,,,,,,,,,,,H,132,hexagon,1,0,,,1,,,,,,j,0.6941,8,0,8,0,1,,,,,,,,,,,,,,,,,,,,,,,,,,,,,,,,,
298126,2022-12-04_17h52.51.798,vts_reward_expectancy_bt,2022.2.4,Win32,143.9263097,Chrome,1080,1920,,,,,,,,,,,,,,,,,,,,,,,W,181,star,1,0,,,1,,,,,,k,1.208,9,0,9,0,1,,,,,,,,,,,,,,,,,,,,,,,,,,,,,,,,,
298126,2022-12-04_17h52.51.798,vts_reward_expectancy_bt,2022.2.4,Win32,143.9263097,Chrome,1080,1920,,,,,0,594,,,,,,,,,,,,,,,,,S,146,triangle,1,0,,,2,,,,,,,,,,,,,-1,number,NA,j,2.5641,vtsPrac,0,0,0,0,1,,,,,,,,,,,,,,,,,,,,,,
298126,2022-12-04_17h52.51.798,vts_reward_expectancy_bt,2022.2.4,Win32,143.9263097,Chrome,1080,1920,,,,,0,594,,,,,,,,,,,,,,,,,D,167,star,1,0,,,2,,,,,,,,,,,,,switch,letter,lettSwt,d,1.5923,vtsPrac,1,0,1,0,1,,,,,,,,,,,,,,,,,,,,,,
298126,2022-12-04_17h52.51.798,vts_reward_expectancy_bt,2022.2.4,Win32,143.9263097,Chrome,1080,1920,,,,,0,594,,,,,,,,,,,,,,,,,B,132,triangle,1,0,,,2,,,,,,,,,,,,,repeat,letter,lettRpt,d,0.8537,vtsPrac,2,0,2,0,1,,,,,,,,,,,,,,,,,,,,,,
298126,2022-12-04_17h52.51.798,vts_reward_expectancy_bt,2022.2.4,Win32,143.9263097,Chrome,1080,1920,,,,,0,594,,,,,,,,,,,,,,,,,F,174,star,1,0,,,2,,,,,,,,,,,,,repeat,letter,lettRpt,d,0.8401,vtsPrac,3,0,3,0,1,,,,,,,,,,,,,,,,,,,,,,
298126,2022-12-04_17h52.51.798,vts_reward_expectancy_bt,2022.2.4,Win32,143.9263097,Chrome,1080,1920,,,,,0,594,,,,,,,,,,,,,,,,,S,146,hexagon,1,0,,,2,,,,,,,,,,,,,repeat,letter,lettRpt,f,1.5078,vtsPrac,4,0,4,0,1,,,,,,,,,,,,,,,,,,,,,,
298126,2022-12-04_17h52.51.798,vts_reward_expectancy_bt,2022.2.4,Win32,143.9263097,Chrome,1080,1920,,,,,0,594,,,,,,,,,,,,,,,,,D,167,triangle,1,0,,,2,,,,,,,,,,,,,switch,number,numSwt,k,0.8579,vtsPrac,5,0,5,0,1,,,,,,,,,,,,,,,,,,,,,,
298126,2022-12-04_17h52.51.798,vts_reward_expectancy_bt,2022.2.4,Win32,143.9263097,Chrome,1080,1920,,,,,0,594,,,,,,,,,,,,,,,,,B,132,hexagon,1,0,,,2,,,,,,,,,,,,,repeat,number,numRpt,j,0.9125,vtsPrac,6,0,6,0,1,,,,,,,,,,,,,,,,,,,,,,
298126,2022-12-04_17h52.51.798,vts_reward_expectancy_bt,2022.2.4,Win32,143.9263097,Chrome,1080,1920,,,,,0,594,,,,,,,,,,,,,,,,,F,174,circle,1,0,,,2,,,,,,,,,,,,,switch,letter,lettSwt,d,0.7358,vtsPrac,7,0,7,0,1,,,,,,,,,,,,,,,,,,,,,,
298126,2022-12-04_17h52.51.798,vts_reward_expectancy_bt,2022.2.4,Win32,143.9263097,Chrome,1080,1920,,,,,0,594,,,,,,,,,,,,,,,,,D,174,hexagon,1,0,,,2,,,,,,,,,,,,,switch,number,numSwt,k,1.7485,vtsPrac,8,0,8,0,1,,,,,,,,,,,,,,,,,,,,,,
298126,2022-12-04_17h52.51.798,vts_reward_expectancy_bt,2022.2.4,Win32,143.9263097,Chrome,1080,1920,,,,,0,594,,,,,,,,,,,,,,,,,H,160,triangle,1,0,,,2,,,,,,,,,,,,,repeat,number,numRpt,k,1.0172,vtsPrac,9,0,9,0,1,,,,,,,,,,,,,,,,,,,,,,
298126,2022-12-04_17h52.51.798,vts_reward_expectancy_bt,2022.2.4,Win32,143.9263097,Chrome,1080,1920,,,,,0,594,,,,,,,,,,,,,,,,,Y,125,triangle,1,0,,,2,,,,,,,,,,,,,switch,letter,lettSwt,f,1.1131,vtsPrac,10,0,10,0,1,,,,,,,,,,,,,,,,,,,,,,
298126,2022-12-04_17h52.51.798,vts_reward_expectancy_bt,2022.2.4,Win32,143.9263097,Chrome,1080,1920,,,,,0,594,,,,,,,,,,,,,,,,,W,139,circle,1,0,,,2,,,,,,,,,,,,,repeat,letter,lettRpt,f,1.0206,vtsPrac,11,0,11,0,1,,,,,,,,,,,,,,,,,,,,,,
298126,2022-12-04_17h52.51.798,vts_reward_expectancy_bt,2022.2.4,Win32,143.9263097,Chrome,1080,1920,,,,,0,594,,,,,,,,,,,,,,,,,Y,132,triangle,1,0,,,2,,,,,,,,,,,,,switch,number,numSwt,j,1.8834,vtsPrac,12,0,12,0,1,,,,,,,,,,,,,,,,,,,,,,
298126,2022-12-04_17h52.51.798,vts_reward_expectancy_bt,2022.2.4,Win32,143.9263097,Chrome,1080,1920,,,,,0,594,,,,,,,,,,,,,,,,,D,139,star,1,0,,,2,,,,,,,,,,,,,repeat,number,numRpt,j,1.9819,vtsPrac,13,0,13,0,1,,,,,,,,,,,,,,,,,,,,,,
298126,2022-12-04_17h52.51.798,vts_reward_expectancy_bt,2022.2.4,Win32,143.9263097,Chrome,1080,1920,,,,,0,594,,,,,,,,,,,,,,,,,F,146,triangle,1,0,,,2,,,,,,,,,,,,,switch,letter,lettSwt,d,1.0952,vtsPrac,14,0,14,0,1,,,,,,,,,,,,,,,,,,,,,,
298126,2022-12-04_17h52.51.798,vts_reward_expectancy_bt,2022.2.4,Win32,143.9263097,Chrome,1080,1920,,,,,0,594,,,,,,,,,,,,,,,,,S,160,circle,1,0,,,2,,,,,,,,,,,,,repeat,letter,lettRpt,f,1.3883,vtsPrac,15,0,15,0,1,,,,,,,,,,,,,,,,,,,,,,
298126,2022-12-04_17h52.51.798,vts_reward_expectancy_bt,2022.2.4,Win32,143.9263097,Chrome,1080,1920,,,,,0,594,,,,,,,,,,,,,,,,,H,160,circle,1,0,,,2,,,,,,,,,,,,,repeat,letter,lettRpt,d,2.3956,vtsPrac,16,0,16,0,1,,,,,,,,,,,,,,,,,,,,,,
298126,2022-12-04_17h52.51.798,vts_reward_expectancy_bt,2022.2.4,Win32,143.9263097,Chrome,1080,1920,,,,,0,594,,,,,,,,,,,,,,,,,U,181,triangle,1,0,,,2,,,,,,,,,,,,,switch,number,numSwt,k,1.9512,vtsPrac,17,0,17,0,1,,,,,,,,,,,,,,,,,,,,,,
298126,2022-12-04_17h52.51.798,vts_reward_expectancy_bt,2022.2.4,Win32,143.9263097,Chrome,1080,1920,,,,,0,594,,,,,,,,,,,,,,,,,B,146,star,1,0,,,2,,,,,,,,,,,,,repeat,number,numRpt,j,1.5314,vtsPrac,18,0,18,0,1,,,,,,,,,,,,,,,,,,,,,,
298126,2022-12-04_17h52.51.798,vts_reward_expectancy_bt,2022.2.4,Win32,143.9263097,Chrome,1080,1920,,,,,0,594,,,,,,,,,,,,,,,,,Y,174,circle,1,0,,,2,,,,,,,,,,,,,switch,letter,lettSwt,f,1.3452,vtsPrac,19,0,19,0,1,,,,,,,,,,,,,,,,,,,,,,
298126,2022-12-04_17h52.51.798,vts_reward_expectancy_bt,2022.2.4,Win32,143.9263097,Chrome,1080,1920,,,,,0,594,,,,,,,,,,,,,,,,,Y,181,triangle,1,0,,,2,,,,,,,,,,,,,repeat,letter,lettRpt,f,1.0976,vtsPrac,20,0,20,0,1,,,,,,,,,,,,,,,,,,,,,,
298126,2022-12-04_17h52.51.798,vts_reward_expectancy_bt,2022.2.4,Win32,143.9263097,Chrome,1080,1920,,,,,0,594,,,,,,,,,,,,,,,,,B,167,hexagon,1,0,,,2,,,,,,,,,,,,,repeat,letter,lettRpt,d,1.1811,vtsPrac,21,0,21,0,1,,,,,,,,,,,,,,,,,,,,,,
298126,2022-12-04_17h52.51.798,vts_reward_expectancy_bt,2022.2.4,Win32,143.9263097,Chrome,1080,1920,,,,,0,594,,,,,,,,,,,,,,,,,S,132,circle,1,0,,,2,,,,,,,,,,,,,repeat,letter,lettRpt,f,1.3556,vtsPrac,22,0,22,0,1,,,,,,,,,,,,,,,,,,,,,,
298126,2022-12-04_17h52.51.798,vts_reward_expectancy_bt,2022.2.4,Win32,143.9263097,Chrome,1080,1920,,,,,0,594,,,,,,,,,,,,,,,,,W,139,triangle,1,0,,,2,,,,,,,,,,,,,repeat,letter,lettRpt,f,0.8911,vtsPrac,23,0,23,0,1,,,,,,,,,,,,,,,,,,,,,,
298126,2022-12-04_17h52.51.798,vts_reward_expectancy_bt,2022.2.4,Win32,143.9263097,Chrome,1080,1920,,,,,0,594,,,,,,,,,,,,,,,,,S,139,triangle,1,0,,,2,,,,,,,,,,,,,repeat,letter,lettRpt,f,0.9304,vtsPrac,24,0,24,0,1,,,,,,,,,,,,,,,,,,,,,,
298126,2022-12-04_17h52.51.798,vts_reward_expectancy_bt,2022.2.4,Win32,143.9263097,Chrome,1080,1920,,,,,0,594,,,,,,,,,,,,,,,,,D,146,circle,1,0,,,2,,,,,,,,,,,,,repeat,letter,lettRpt,d,0.98,vtsPrac,25,0,25,0,1,,,,,,,,,,,,,,,,,,,,,,
298126,2022-12-04_17h52.51.798,vts_reward_expectancy_bt,2022.2.4,Win32,143.9263097,Chrome,1080,1920,,,,,0,594,,,,,,,,,,,,,,,,,B,125,star,1,0,,,2,,,,,,,,,,,,,repeat,letter,lettRpt,d,1.0152,vtsPrac,26,0,26,0,1,,,,,,,,,,,,,,,,,,,,,,
298126,2022-12-04_17h52.51.798,vts_reward_expectancy_bt,2022.2.4,Win32,143.9263097,Chrome,1080,1920,,,,,0,594,,,,,,,,,,,,,,,,,Y,160,circle,1,0,,,2,,,,,,,,,,,,,repeat,letter,lettRpt,f,1.4746,vtsPrac,27,0,27,0,1,,,,,,,,,,,,,,,,,,,,,,
298126,2022-12-04_17h52.51.798,vts_reward_expectancy_bt,2022.2.4,Win32,143.9263097,Chrome,1080,1920,,,,,0,594,,,,,,,,,,,,,,,,,S,139,star,1,0,,,2,,,,,,,,,,,,,switch,number,numSwt,j,0.9343,vtsPrac,28,0,28,0,1,,,,,,,,,,,,,,,,,,,,,,
298126,2022-12-04_17h52.51.798,vts_reward_expectancy_bt,2022.2.4,Win32,143.9263097,Chrome,1080,1920,,,,,0,594,,,,,,,,,,,,,,,,,W,181,hexagon,1,0,,,2,,,,,,,,,,,,,repeat,number,numRpt,k,1.2924,vtsPrac,29,0,29,0,1,,,,,,,,,,,,,,,,,,,,,,
298126,2022-12-04_17h52.51.798,vts_reward_expectancy_bt,2022.2.4,Win32,143.9263097,Chrome,1080,1920,,,,,0,594,,,,,,,,,,,,,,,,,U,146,hexagon,1,0,,,2,,,,,,,,,,,,,switch,letter,lettSwt,f,1.8221,vtsPrac,30,0,30,0,1,,,,,,,,,,,,,,,,,,,,,,
298126,2022-12-04_17h52.51.798,vts_reward_expectancy_bt,2022.2.4,Win32,143.9263097,Chrome,1080,1920,,,,,0,594,,,,,,,,,,,,,,,,,Y,160,triangle,1,0,,,2,,,,,,,,,,,,,repeat,letter,lettRpt,f,1.0057,vtsPrac,31,0,31,0,1,,,,,,,,,,,,,,,,,,,,,,
298126,2022-12-04_17h52.51.798,vts_reward_expectancy_bt,2022.2.4,Win32,143.9263097,Chrome,1080,1920,,,,,,,,,,,,,,,,,,,,,,,,,,,,,,,,,,,,,,,,,,,,,,,,,,,,,,,,,,,,,,,,,,,,,,,,,,,
298126,2022-12-04_17h52.51.798,vts_reward_expectancy_bt,2022.2.4,Win32,143.9263097,Chrome,1080,1920,,,,,,,,,,,,,,,,,,,,,,,,,,,,,,,,,,,,,,,,,,,,,,,,,,,,,,,,,,,,,,,,,,,,,,,,,,,
298126,2022-12-04_17h52.51.798,vts_reward_expectancy_bt,2022.2.4,Win32,143.9263097,Chrome,1080,1920,,,,,0,594,,,,,,,,,,,,,,,,,H,132,hexagon,1,0,,,,,,,,,,,,,,,,repeat,letter,lettRpt,d,1.985,noRew,,,,,,0,0,0,0,0,1,,,,,,,,,,,,,,,,
298126,2022-12-04_17h52.51.798,vts_reward_expectancy_bt,2022.2.4,Win32,143.9263097,Chrome,1080,1920,,,,,0,594,,,,,,,,,,,,,,,,,U,125,circle,1,0,,,,,,,,,,,,,,,,repeat,letter,lettRpt,f,1.5882,noRew,,,,,,0,1,0,1,0,1,,,,,,,,,,,,,,,,
298126,2022-12-04_17h52.51.798,vts_reward_expectancy_bt,2022.2.4,Win32,143.9263097,Chrome,1080,1920,,,,,0,594,,,,,,,,,,,,,,,,,B,174,hexagon,1,0,,,,,,,,,,,,,,,,switch,number,numSwt,k,1.5348,noRew,,,,,,0,2,0,2,0,1,,,,,,,,,,,,,,,,
298126,2022-12-04_17h52.51.798,vts_reward_expectancy_bt,2022.2.4,Win32,143.9263097,Chrome,1080,1920,,,,,0,594,,,,,,,,,,,,,,,,,S,139,circle,1,0,,,,,,,,,,,,,,,,switch,letter,lettSwt,f,1.3739,noRew,,,,,,0,3,0,3,0,1,,,,,,,,,,,,,,,,
298126,2022-12-04_17h52.51.798,vts_reward_expectancy_bt,2022.2.4,Win32,143.9263097,Chrome,1080,1920,,,,,0,594,,,,,,,,,,,,,,,,,H,132,circle,1,0,,,,,,,,,,,,,,,,repeat,letter,lettRpt,d,1.7515,noRew,,,,,,0,4,0,4,0,1,,,,,,,,,,,,,,,,
298126,2022-12-04_17h52.51.798,vts_reward_expectancy_bt,2022.2.4,Win32,143.9263097,Chrome,1080,1920,,,,,0,594,,,,,,,,,,,,,,,,,U,125,hexagon,1,0,,,,,,,,,,,,,,,,switch,number,numSwt,j,1.4996,noRew,,,,,,0,5,0,5,0,1,,,,,,,,,,,,,,,,
298126,2022-12-04_17h52.51.798,vts_reward_expectancy_bt,2022.2.4,Win32,143.9263097,Chrome,1080,1920,,,,,0,594,,,,,,,,,,,,,,,,,B,174,star,1,0,,,,,,,,,,,,,,,,repeat,number,numRpt,k,0.9684,noRew,,,,,,0,6,0,6,0,1,,,,,,,,,,,,,,,,
298126,2022-12-04_17h52.51.798,vts_reward_expectancy_bt,2022.2.4,Win32,143.9263097,Chrome,1080,1920,,,,,0,594,,,,,,,,,,,,,,,,,S,139,circle,1,0,,,,,,,,,,,,,,,,repeat,number,numRpt,j,2.0902,noRew,,,,,,0,7,0,7,0,1,,,,,,,,,,,,,,,,
298126,2022-12-04_17h52.51.798,vts_reward_expectancy_bt,2022.2.4,Win32,143.9263097,Chrome,1080,1920,,,,,0,594,,,,,,,,,,,,,,,,,S,146,circle,1,0,,,,,,,,,,,,,,,,switch,letter,lettSwt,f,1.4195,noRew,,,,,,0,8,0,8,0,1,,,,,,,,,,,,,,,,
298126,2022-12-04_17h52.51.798,vts_reward_expectancy_bt,2022.2.4,Win32,143.9263097,Chrome,1080,1920,,,,,0,594,,,,,,,,,,,,,,,,,Y,125,star,1,0,,,,,,,,,,,,,,,,repeat,letter,lettRpt,f,0.9032,noRew,,,,,,0,9,0,9,0,1,,,,,,,,,,,,,,,,
298126,2022-12-04_17h52.51.798,vts_reward_expectancy_bt,2022.2.4,Win32,143.9263097,Chrome,1080,1920,,,,,0,594,,,,,,,,,,,,,,,,,U,160,star,1,0,,,,,,,,,,,,,,,,repeat,letter,lettRpt,f,0.8196,noRew,,,,,,0,10,0,10,0,1,,,,,,,,,,,,,,,,
298126,2022-12-04_17h52.51.798,vts_reward_expectancy_bt,2022.2.4,Win32,143.9263097,Chrome,1080,1920,,,,,0,594,,,,,,,,,,,,,,,,,H,139,hexagon,1,0,,,,,,,,,,,,,,,,repeat,letter,lettRpt,d,1.7772,noRew,,,,,,0,11,0,11,0,1,,,,,,,,,,,,,,,,
298126,2022-12-04_17h52.51.798,vts_reward_expectancy_bt,2022.2.4,Win32,143.9263097,Chrome,1080,1920,,,,,0,594,,,,,,,,,,,,,,,,,Y,181,circle,1,0,,,,,,,,,,,,,,,,switch,number,numSwt,k,0.7991,noRew,,,,,,0,12,0,12,0,1,,,,,,,,,,,,,,,,
298126,2022-12-04_17h52.51.798,vts_reward_expectancy_bt,2022.2.4,Win32,143.9263097,Chrome,1080,1920,,,,,0,594,,,,,,,,,,,,,,,,,S,139,star,1,0,,,,,,,,,,,,,,,,repeat,number,numRpt,j,1.9271,noRew,,,,,,0,13,0,13,0,1,,,,,,,,,,,,,,,,
298126,2022-12-04_17h52.51.798,vts_reward_expectancy_bt,2022.2.4,Win32,143.9263097,Chrome,1080,1920,,,,,0,594,,,,,,,,,,,,,,,,,B,167,circle,1,0,,,,,,,,,,,,,,,,switch,letter,lettSwt,d,1.7269,noRew,,,,,,0,14,0,14,0,1,,,,,,,,,,,,,,,,
298126,2022-12-04_17h52.51.798,vts_reward_expectancy_bt,2022.2.4,Win32,143.9263097,Chrome,1080,1920,,,,,0,594,,,,,,,,,,,,,,,,,U,146,triangle,1,0,,,,,,,,,,,,,,,,repeat,letter,lettRpt,f,1.7989,noRew,,,,,,0,15,0,15,0,1,,,,,,,,,,,,,,,,
298126,2022-12-04_17h52.51.798,vts_reward_expectancy_bt,2022.2.4,Win32,143.9263097,Chrome,1080,1920,,,,,0,594,,,,,,,,,,,,,,,,,B,174,star,1,0,,,,,,,,,,,,,,,,repeat,letter,lettRpt,d,1.0455,noRew,,,,,,0,16,0,16,0,1,,,,,,,,,,,,,,,,
298126,2022-12-04_17h52.51.798,vts_reward_expectancy_bt,2022.2.4,Win32,143.9263097,Chrome,1080,1920,,,,,0,594,,,,,,,,,,,,,,,,,Y,125,triangle,1,0,,,,,,,,,,,,,,,,repeat,letter,lettRpt,f,1.217,noRew,,,,,,0,17,0,17,0,1,,,,,,,,,,,,,,,,
298126,2022-12-04_17h52.51.798,vts_reward_expectancy_bt,2022.2.4,Win32,143.9263097,Chrome,1080,1920,,,,,0,594,,,,,,,,,,,,,,,,,D,146,hexagon,1,0,,,,,,,,,,,,,,,,repeat,letter,lettRpt,d,1.3242,noRew,,,,,,0,18,0,18,0,1,,,,,,,,,,,,,,,,
298126,2022-12-04_17h52.51.798,vts_reward_expectancy_bt,2022.2.4,Win32,143.9263097,Chrome,1080,1920,,,,,0,594,,,,,,,,,,,,,,,,,U,139,star,1,0,,,,,,,,,,,,,,,,switch,number,numSwt,j,2.0705,noRew,,,,,,0,19,0,19,0,1,,,,,,,,,,,,,,,,
298126,2022-12-04_17h52.51.798,vts_reward_expectancy_bt,2022.2.4,Win32,143.9263097,Chrome,1080,1920,,,,,0,594,,,,,,,,,,,,,,,,,D,181,hexagon,1,0,,,,,,,,,,,,,,,,repeat,number,numRpt,k,1.7346,noRew,,,,,,0,20,0,20,0,1,,,,,,,,,,,,,,,,
298126,2022-12-04_17h52.51.798,vts_reward_expectancy_bt,2022.2.4,Win32,143.9263097,Chrome,1080,1920,,,,,0,594,,,,,,,,,,,,,,,,,U,125,circle,1,0,,,,,,,,,,,,,,,,switch,letter,lettSwt,f,1.1402,noRew,,,,,,0,21,0,21,0,1,,,,,,,,,,,,,,,,
298126,2022-12-04_17h52.51.798,vts_reward_expectancy_bt,2022.2.4,Win32,143.9263097,Chrome,1080,1920,,,,,0,594,,,,,,,,,,,,,,,,,W,160,triangle,1,0,,,,,,,,,,,,,,,,repeat,letter,lettRpt,f,0.8413,noRew,,,,,,0,22,0,22,0,1,,,,,,,,,,,,,,,,
298126,2022-12-04_17h52.51.798,vts_reward_expectancy_bt,2022.2.4,Win32,143.9263097,Chrome,1080,1920,,,,,0,594,,,,,,,,,,,,,,,,,F,146,star,1,0,,,,,,,,,,,,,,,,switch,number,numSwt,j,2.89,noRew,,,,,,0,23,0,23,0,1,,,,,,,,,,,,,,,,
298126,2022-12-04_17h52.51.798,vts_reward_expectancy_bt,2022.2.4,Win32,143.9263097,Chrome,1080,1920,,,,,0,594,,,,,,,,,,,,,,,,,Y,146,triangle,1,0,,,,,,,,,,,,,,,,switch,letter,lettSwt,f,1.7163,noRew,,,,,,0,24,0,24,0,1,,,,,,,,,,,,,,,,
298126,2022-12-04_17h52.51.798,vts_reward_expectancy_bt,2022.2.4,Win32,143.9263097,Chrome,1080,1920,,,,,0,594,,,,,,,,,,,,,,,,,F,139,circle,1,0,,,,,,,,,,,,,,,,repeat,letter,lettRpt,d,0.8718,noRew,,,,,,0,25,0,25,0,1,,,,,,,,,,,,,,,,
298126,2022-12-04_17h52.51.798,vts_reward_expectancy_bt,2022.2.4,Win32,143.9263097,Chrome,1080,1920,,,,,0,594,,,,,,,,,,,,,,,,,S,181,triangle,1,0,,,,,,,,,,,,,,,,repeat,letter,lettRpt,f,1.2115,noRew,,,,,,0,26,0,26,0,1,,,,,,,,,,,,,,,,
298126,2022-12-04_17h52.51.798,vts_reward_expectancy_bt,2022.2.4,Win32,143.9263097,Chrome,1080,1920,,,,,0,594,,,,,,,,,,,,,,,,,B,125,hexagon,1,0,,,,,,,,,,,,,,,,switch,number,numSwt,j,1.4241,noRew,,,,,,0,27,0,27,0,1,,,,,,,,,,,,,,,,
298126,2022-12-04_17h52.51.798,vts_reward_expectancy_bt,2022.2.4,Win32,143.9263097,Chrome,1080,1920,,,,,0,594,,,,,,,,,,,,,,,,,B,181,star,1,0,,,,,,,,,,,,,,,,switch,letter,lettSwt,d,0.8607,noRew,,,,,,0,28,0,28,0,1,,,,,,,,,,,,,,,,
298126,2022-12-04_17h52.51.798,vts_reward_expectancy_bt,2022.2.4,Win32,143.9263097,Chrome,1080,1920,,,,,0,594,,,,,,,,,,,,,,,,,W,132,triangle,1,0,,,,,,,,,,,,,,,,switch,number,numSwt,j,1.0709,noRew,,,,,,0,29,0,29,0,1,,,,,,,,,,,,,,,,
298126,2022-12-04_17h52.51.798,vts_reward_expectancy_bt,2022.2.4,Win32,143.9263097,Chrome,1080,1920,,,,,0,594,,,,,,,,,,,,,,,,,D,167,circle,1,0,,,,,,,,,,,,,,,,switch,letter,lettSwt,d,1.8793,noRew,,,,,,0,30,0,30,0,1,,,,,,,,,,,,,,,,
298126,2022-12-04_17h52.51.798,vts_reward_expectancy_bt,2022.2.4,Win32,143.9263097,Chrome,1080,1920,,,,,0,594,,,,,,,,,,,,,,,,,U,160,star,1,0,,,,,,,,,,,,,,,,repeat,letter,lettRpt,f,1.1602,noRew,,,,,,0,31,0,31,0,1,,,,,,,,,,,,,,,,
298126,2022-12-04_17h52.51.798,vts_reward_expectancy_bt,2022.2.4,Win32,143.9263097,Chrome,1080,1920,,,,,0,594,,,,,,,,,,,,,,,,,U,160,circle,1,0,,,,,,,,,,,,,,,,repeat,letter,lettRpt,f,1.29,noRew,,,,,,0,32,0,32,0,1,,,,,,,,,,,,,,,,
298126,2022-12-04_17h52.51.798,vts_reward_expectancy_bt,2022.2.4,Win32,143.9263097,Chrome,1080,1920,,,,,0,594,,,,,,,,,,,,,,,,,B,167,star,0,0,,,,,,,,,,,,,,,,switch,number,NA,j,1.7819,noRew,,,,,,0,33,0,33,0,1,,,,,,,,,,,,,,,,
298126,2022-12-04_17h52.51.798,vts_reward_expectancy_bt,2022.2.4,Win32,143.9263097,Chrome,1080,1920,,,,,0,594,,,,,,,,,,,,,,,,,S,146,star,1,1,,,,,,,,,,,,,,,,repeat,number,numRpt,j,1.6971,noRew,,,,,,0,34,0,34,0,1,,,,,,,,,,,,,,,,
298126,2022-12-04_17h52.51.798,vts_reward_expectancy_bt,2022.2.4,Win32,143.9263097,Chrome,1080,1920,,,,,0,594,,,,,,,,,,,,,,,,,F,132,circle,1,0,,,,,,,,,,,,,,,,repeat,number,numRpt,j,1.1665,noRew,,,,,,0,35,0,35,0,1,,,,,,,,,,,,,,,,
298126,2022-12-04_17h52.51.798,vts_reward_expectancy_bt,2022.2.4,Win32,143.9263097,Chrome,1080,1920,,,,,0,594,,,,,,,,,,,,,,,,,W,160,triangle,1,0,,,,,,,,,,,,,,,,repeat,number,numRpt,k,1.7171,noRew,,,,,,0,36,0,36,0,1,,,,,,,,,,,,,,,,
298126,2022-12-04_17h52.51.798,vts_reward_expectancy_bt,2022.2.4,Win32,143.9263097,Chrome,1080,1920,,,,,0,594,,,,,,,,,,,,,,,,,H,181,star,1,0,,,,,,,,,,,,,,,,switch,letter,lettSwt,d,2.4822,noRew,,,,,,0,37,0,37,0,1,,,,,,,,,,,,,,,,
298126,2022-12-04_17h52.51.798,vts_reward_expectancy_bt,2022.2.4,Win32,143.9263097,Chrome,1080,1920,,,,,0,594,,,,,,,,,,,,,,,,,D,146,circle,1,0,,,,,,,,,,,,,,,,switch,number,numSwt,j,2.209,noRew,,,,,,0,38,0,38,0,1,,,,,,,,,,,,,,,,
298126,2022-12-04_17h52.51.798,vts_reward_expectancy_bt,2022.2.4,Win32,143.9263097,Chrome,1080,1920,,,,,0,594,,,,,,,,,,,,,,,,,B,139,triangle,1,0,,,,,,,,,,,,,,,,repeat,number,numRpt,j,1.7958,noRew,,,,,,0,39,0,39,0,1,,,,,,,,,,,,,,,,
298126,2022-12-04_17h52.51.798,vts_reward_expectancy_bt,2022.2.4,Win32,143.9263097,Chrome,1080,1920,,,,,0,594,,,,,,,,,,,,,,,,,D,174,triangle,1,0,,,,,,,,,,,,,,,,switch,letter,lettSwt,d,1.8548,noRew,,,,,,0,40,0,40,0,1,,,,,,,,,,,,,,,,
298126,2022-12-04_17h52.51.798,vts_reward_expectancy_bt,2022.2.4,Win32,143.9263097,Chrome,1080,1920,,,,,0,594,,,,,,,,,,,,,,,,,B,181,star,1,0,,,,,,,,,,,,,,,,repeat,letter,lettRpt,d,0.9512,noRew,,,,,,0,41,0,41,0,1,,,,,,,,,,,,,,,,
298126,2022-12-04_17h52.51.798,vts_reward_expectancy_bt,2022.2.4,Win32,143.9263097,Chrome,1080,1920,,,,,0,594,,,,,,,,,,,,,,,,,W,160,star,1,0,,,,,,,,,,,,,,,,repeat,letter,lettRpt,f,1.383,noRew,,,,,,0,42,0,42,0,1,,,,,,,,,,,,,,,,
298126,2022-12-04_17h52.51.798,vts_reward_expectancy_bt,2022.2.4,Win32,143.9263097,Chrome,1080,1920,,,,,0,594,,,,,,,,,,,,,,,,,H,125,hexagon,1,0,,,,,,,,,,,,,,,,repeat,letter,lettRpt,d,1.2809,noRew,,,,,,0,43,0,43,0,1,,,,,,,,,,,,,,,,
298126,2022-12-04_17h52.51.798,vts_reward_expectancy_bt,2022.2.4,Win32,143.9263097,Chrome,1080,1920,,,,,0,594,,,,,,,,,,,,,,,,,B,132,triangle,1,0,,,,,,,,,,,,,,,,switch,number,numSwt,j,2.0682,noRew,,,,,,0,44,0,44,0,1,,,,,,,,,,,,,,,,
298126,2022-12-04_17h52.51.798,vts_reward_expectancy_bt,2022.2.4,Win32,143.9263097,Chrome,1080,1920,,,,,0,594,,,,,,,,,,,,,,,,,U,181,hexagon,1,0,,,,,,,,,,,,,,,,repeat,number,numRpt,k,1.8865,noRew,,,,,,0,45,0,45,0,1,,,,,,,,,,,,,,,,
298126,2022-12-04_17h52.51.798,vts_reward_expectancy_bt,2022.2.4,Win32,143.9263097,Chrome,1080,1920,,,,,0,594,,,,,,,,,,,,,,,,,H,146,triangle,1,0,,,,,,,,,,,,,,,,repeat,number,numRpt,j,1.4398,noRew,,,,,,0,46,0,46,0,1,,,,,,,,,,,,,,,,
298126,2022-12-04_17h52.51.798,vts_reward_expectancy_bt,2022.2.4,Win32,143.9263097,Chrome,1080,1920,,,,,0,594,,,,,,,,,,,,,,,,,F,139,circle,1,0,,,,,,,,,,,,,,,,repeat,number,numRpt,j,2.5356,noRew,,,,,,0,47,0,47,0,1,,,,,,,,,,,,,,,,
298126,2022-12-04_17h52.51.798,vts_reward_expectancy_bt,2022.2.4,Win32,143.9263097,Chrome,1080,1920,,,,,0,594,,,,,,,,,,,,,,,,,S,132,triangle,-1,0,,,,,,,,,,,,,,,,switch,no_choice,NA,,,noRew,,,,,,0,48,0,48,0,1,,,,,,,,,,,,,,,,
298126,2022-12-04_17h52.51.798,vts_reward_expectancy_bt,2022.2.4,Win32,143.9263097,Chrome,1080,1920,,,,,0,594,,,,,,,,,,,,,,,,,Y,167,hexagon,1,0,,,,,,,,,,,,,,,,switch,number,numSwt,k,1.2491,noRew,,,,,,0,49,0,49,0,1,,,,,,,,,,,,,,,,
298126,2022-12-04_17h52.51.798,vts_reward_expectancy_bt,2022.2.4,Win32,143.9263097,Chrome,1080,1920,,,,,0,594,,,,,,,,,,,,,,,,,W,160,hexagon,1,0,,,,,,,,,,,,,,,,switch,letter,lettSwt,f,1.2677,noRew,,,,,,0,50,0,50,0,1,,,,,,,,,,,,,,,,
298126,2022-12-04_17h52.51.798,vts_reward_expectancy_bt,2022.2.4,Win32,143.9263097,Chrome,1080,1920,,,,,0,594,,,,,,,,,,,,,,,,,U,146,circle,1,0,,,,,,,,,,,,,,,,switch,number,numSwt,j,0.8815,noRew,,,,,,0,51,0,51,0,1,,,,,,,,,,,,,,,,
298126,2022-12-04_17h52.51.798,vts_reward_expectancy_bt,2022.2.4,Win32,143.9263097,Chrome,1080,1920,,,,,0,594,,,,,,,,,,,,,,,,,U,181,star,1,0,,,,,,,,,,,,,,,,repeat,number,numRpt,k,0.8342,noRew,,,,,,0,52,0,52,0,1,,,,,,,,,,,,,,,,
298126,2022-12-04_17h52.51.798,vts_reward_expectancy_bt,2022.2.4,Win32,143.9263097,Chrome,1080,1920,,,,,0,594,,,,,,,,,,,,,,,,,Y,125,hexagon,1,0,,,,,,,,,,,,,,,,repeat,number,numRpt,j,0.8539,noRew,,,,,,0,53,0,53,0,1,,,,,,,,,,,,,,,,
298126,2022-12-04_17h52.51.798,vts_reward_expectancy_bt,2022.2.4,Win32,143.9263097,Chrome,1080,1920,,,,,0,594,,,,,,,,,,,,,,,,,D,167,star,1,0,,,,,,,,,,,,,,,,repeat,number,numRpt,k,1.3385,noRew,,,,,,0,54,0,54,0,1,,,,,,,,,,,,,,,,
298126,2022-12-04_17h52.51.798,vts_reward_expectancy_bt,2022.2.4,Win32,143.9263097,Chrome,1080,1920,,,,,0,594,,,,,,,,,,,,,,,,,B,139,hexagon,1,0,,,,,,,,,,,,,,,,switch,letter,lettSwt,d,1.3823,noRew,,,,,,0,55,0,55,0,1,,,,,,,,,,,,,,,,
298126,2022-12-04_17h52.51.798,vts_reward_expectancy_bt,2022.2.4,Win32,143.9263097,Chrome,1080,1920,,,,,0,594,,,,,,,,,,,,,,,,,D,125,circle,1,0,,,,,,,,,,,,,,,,repeat,letter,lettRpt,d,0.7394,noRew,,,,,,0,56,0,56,0,1,,,,,,,,,,,,,,,,
298126,2022-12-04_17h52.51.798,vts_reward_expectancy_bt,2022.2.4,Win32,143.9263097,Chrome,1080,1920,,,,,0,594,,,,,,,,,,,,,,,,,F,160,hexagon,1,0,,,,,,,,,,,,,,,,repeat,letter,lettRpt,d,1.1209,noRew,,,,,,0,57,0,57,0,1,,,,,,,,,,,,,,,,
298126,2022-12-04_17h52.51.798,vts_reward_expectancy_bt,2022.2.4,Win32,143.9263097,Chrome,1080,1920,,,,,0,594,,,,,,,,,,,,,,,,,B,146,circle,1,0,,,,,,,,,,,,,,,,repeat,letter,lettRpt,d,0.8515,noRew,,,,,,0,58,0,58,0,1,,,,,,,,,,,,,,,,
298126,2022-12-04_17h52.51.798,vts_reward_expectancy_bt,2022.2.4,Win32,143.9263097,Chrome,1080,1920,,,,,0,594,,,,,,,,,,,,,,,,,S,167,hexagon,1,0,,,,,,,,,,,,,,,,repeat,letter,lettRpt,f,1.1368,noRew,,,,,,0,59,0,59,0,1,,,,,,,,,,,,,,,,
298126,2022-12-04_17h52.51.798,vts_reward_expectancy_bt,2022.2.4,Win32,143.9263097,Chrome,1080,1920,,,,,0,594,,,,,,,,,,,,,,,,,W,146,triangle,1,0,,,,,,,,,,,,,,,,switch,number,numSwt,j,1.1581,noRew,,,,,,0,60,0,60,0,1,,,,,,,,,,,,,,,,
298126,2022-12-04_17h52.51.798,vts_reward_expectancy_bt,2022.2.4,Win32,143.9263097,Chrome,1080,1920,,,,,0,594,,,,,,,,,,,,,,,,,B,181,hexagon,1,0,,,,,,,,,,,,,,,,repeat,number,numRpt,k,0.8688,noRew,,,,,,0,61,0,61,0,1,,,,,,,,,,,,,,,,
298126,2022-12-04_17h52.51.798,vts_reward_expectancy_bt,2022.2.4,Win32,143.9263097,Chrome,1080,1920,,,,,0,594,,,,,,,,,,,,,,,,,H,160,circle,1,0,,,,,,,,,,,,,,,,repeat,number,numRpt,k,1.5985,noRew,,,,,,0,62,0,62,0,1,,,,,,,,,,,,,,,,
298126,2022-12-04_17h52.51.798,vts_reward_expectancy_bt,2022.2.4,Win32,143.9263097,Chrome,1080,1920,,,,,0,594,,,,,,,,,,,,,,,,,D,139,triangle,1,0,,,,,,,,,,,,,,,,repeat,number,numRpt,j,0.8606,noRew,,,,,,0,63,0,63,0,1,,,,,,,,,,,,,,,,
298126,2022-12-04_17h52.51.798,vts_reward_expectancy_bt,2022.2.4,Win32,143.9263097,Chrome,1080,1920,,,,,,,,,,,,,,,,,,,,,,,,,,,,,,,,,,,,,,,,,,,,,,,,,,,,,,,,,,,,,,,,,,,,,,,,,,,
298126,2022-12-04_17h52.51.798,vts_reward_expectancy_bt,2022.2.4,Win32,143.9263097,Chrome,1080,1920,,,,,10,604,,,,,,,,,,,,,,,,,U,174,hexagon,1,0,,,,,,,,,,,,,,,,switch,letter,lettSwt,f,1.5096,Lo,,,,,,0,,,,,,space,15.6305,low,0,0,0,0,1,,,,,,,,
298126,2022-12-04_17h52.51.798,vts_reward_expectancy_bt,2022.2.4,Win32,143.9263097,Chrome,1080,1920,,,,,10,614,,,,,,,,,,,,,,,,,H,125,circle,1,0,,,,,,,,,,,,,,,,repeat,letter,lettRpt,d,0.9012,Hi,,,,,,0,,,,,,,,low,1,0,1,0,1,,,,,,,,
298126,2022-12-04_17h52.51.798,vts_reward_expectancy_bt,2022.2.4,Win32,143.9263097,Chrome,1080,1920,,,,,1,615,,,,,,,,,,,,,,,,,D,132,triangle,1,0,,,,,,,,,,,,,,,,switch,number,numSwt,j,0.924,Lo,,,,,,0,,,,,,,,low,2,0,2,0,1,,,,,,,,
298126,2022-12-04_17h52.51.798,vts_reward_expectancy_bt,2022.2.4,Win32,143.9263097,Chrome,1080,1920,,,,,10,625,,,,,,,,,,,,,,,,,B,160,star,1,0,,,,,,,,,,,,,,,,repeat,number,numRpt,k,0.9068,Hi,,,,,,0,,,,,,,,low,3,0,3,0,1,,,,,,,,
298126,2022-12-04_17h52.51.798,vts_reward_expectancy_bt,2022.2.4,Win32,143.9263097,Chrome,1080,1920,,,,,1,626,,,,,,,,,,,,,,,,,Y,146,hexagon,1,0,,,,,,,,,,,,,,,,repeat,number,numRpt,j,1.0011,Lo,,,,,,0,,,,,,,,low,4,0,4,0,1,,,,,,,,
298126,2022-12-04_17h52.51.798,vts_reward_expectancy_bt,2022.2.4,Win32,143.9263097,Chrome,1080,1920,,,,,10,636,,,,,,,,,,,,,,,,,F,181,circle,1,0,,,,,,,,,,,,,,,,repeat,number,numRpt,k,0.7754,Hi,,,,,,0,,,,,,,,low,5,0,5,0,1,,,,,,,,
298126,2022-12-04_17h52.51.798,vts_reward_expectancy_bt,2022.2.4,Win32,143.9263097,Chrome,1080,1920,,,,,1,637,,,,,,,,,,,,,,,,,S,139,triangle,1,0,,,,,,,,,,,,,,,,repeat,number,numRpt,j,0.8133,Lo,,,,,,0,,,,,,,,low,6,0,6,0,1,,,,,,,,
298126,2022-12-04_17h52.51.798,vts_reward_expectancy_bt,2022.2.4,Win32,143.9263097,Chrome,1080,1920,,,,,1,638,,,,,,,,,,,,,,,,,W,167,star,1,0,,,,,,,,,,,,,,,,repeat,number,numRpt,k,1.1483,Hi,,,,,,0,,,,,,,,low,7,0,7,0,1,,,,,,,,
298126,2022-12-04_17h52.51.798,vts_reward_expectancy_bt,2022.2.4,Win32,143.9263097,Chrome,1080,1920,,,,,1,639,,,,,,,,,,,,,,,,,U,174,circle,1,0,,,,,,,,,,,,,,,,switch,letter,lettSwt,f,0.8911,Hi,,,,,,0,,,,,,,,low,8,0,8,0,1,,,,,,,,
298126,2022-12-04_17h52.51.798,vts_reward_expectancy_bt,2022.2.4,Win32,143.9263097,Chrome,1080,1920,,,,,1,640,,,,,,,,,,,,,,,,,H,125,hexagon,1,0,,,,,,,,,,,,,,,,repeat,letter,lettRpt,d,1.1878,Lo,,,,,,0,,,,,,,,low,9,0,9,0,1,,,,,,,,
298126,2022-12-04_17h52.51.798,vts_reward_expectancy_bt,2022.2.4,Win32,143.9263097,Chrome,1080,1920,,,,,1,641,,,,,,,,,,,,,,,,,D,132,triangle,1,0,,,,,,,,,,,,,,,,switch,number,numSwt,j,1.0557,Lo,,,,,,0,,,,,,,,low,10,0,10,0,1,,,,,,,,
298126,2022-12-04_17h52.51.798,vts_reward_expectancy_bt,2022.2.4,Win32,143.9263097,Chrome,1080,1920,,,,,1,642,,,,,,,,,,,,,,,,,B,160,star,1,0,,,,,,,,,,,,,,,,switch,letter,lettSwt,d,0.8096,Hi,,,,,,0,,,,,,,,low,11,0,11,0,1,,,,,,,,
298126,2022-12-04_17h52.51.798,vts_reward_expectancy_bt,2022.2.4,Win32,143.9263097,Chrome,1080,1920,,,,,1,643,,,,,,,,,,,,,,,,,Y,146,hexagon,1,0,,,,,,,,,,,,,,,,repeat,letter,lettRpt,f,0.7314,Lo,,,,,,0,,,,,,,,low,12,0,12,0,1,,,,,,,,
298126,2022-12-04_17h52.51.798,vts_reward_expectancy_bt,2022.2.4,Win32,143.9263097,Chrome,1080,1920,,,,,1,644,,,,,,,,,,,,,,,,,F,181,triangle,1,0,,,,,,,,,,,,,,,,switch,number,numSwt,k,1.0988,Lo,,,,,,0,,,,,,,,low,13,0,13,0,1,,,,,,,,
298126,2022-12-04_17h52.51.798,vts_reward_expectancy_bt,2022.2.4,Win32,143.9263097,Chrome,1080,1920,,,,,10,654,,,,,,,,,,,,,,,,,S,139,circle,1,0,,,,,,,,,,,,,,,,switch,letter,lettSwt,f,0.9825,Hi,,,,,,0,,,,,,,,low,14,0,14,0,1,,,,,,,,
298126,2022-12-04_17h52.51.798,vts_reward_expectancy_bt,2022.2.4,Win32,143.9263097,Chrome,1080,1920,,,,,1,655,,,,,,,,,,,,,,,,,W,167,star,1,0,,,,,,,,,,,,,,,,repeat,letter,lettRpt,f,0.8186,Hi,,,,,,0,,,,,,,,low,15,0,15,0,1,,,,,,,,
298126,2022-12-04_17h52.51.798,vts_reward_expectancy_bt,2022.2.4,Win32,143.9263097,Chrome,1080,1920,,,,,1,656,,,,,,,,,,,,,,,,,S,160,triangle,1,0,,,,,,,,,,,,,,,,switch,number,numSwt,k,0.7534,Lo,,,,,,0,,,,,,,,low,16,0,16,0,1,,,,,,,,
298126,2022-12-04_17h52.51.798,vts_reward_expectancy_bt,2022.2.4,Win32,143.9263097,Chrome,1080,1920,,,,,10,666,,,,,,,,,,,,,,,,,W,139,circle,1,0,,,,,,,,,,,,,,,,switch,letter,lettSwt,f,0.908,Hi,,,,,,0,,,,,,,,low,17,0,17,0,1,,,,,,,,
298126,2022-12-04_17h52.51.798,vts_reward_expectancy_bt,2022.2.4,Win32,143.9263097,Chrome,1080,1920,,,,,1,667,,,,,,,,,,,,,,,,,U,132,hexagon,1,0,,,,,,,,,,,,,,,,repeat,letter,lettRpt,f,0.7577,Lo,,,,,,0,,,,,,,,low,18,0,18,0,1,,,,,,,,
298126,2022-12-04_17h52.51.798,vts_reward_expectancy_bt,2022.2.4,Win32,143.9263097,Chrome,1080,1920,,,,,0,667,,,,,,,,,,,,,,,,,H,125,star,1,0,,,,,,,,,,,,,,,,repeat,letter,lettRpt,d,1.1028,Hi,,,,,,0,,,,,,,,low,19,0,19,0,1,,,,,,,,
298126,2022-12-04_17h52.51.798,vts_reward_expectancy_bt,2022.2.4,Win32,143.9263097,Chrome,1080,1920,,,,,10,677,,,,,,,,,,,,,,,,,D,174,hexagon,1,0,,,,,,,,,,,,,,,,repeat,letter,lettRpt,d,0.721,Lo,,,,,,0,,,,,,,,low,20,0,20,0,1,,,,,,,,
298126,2022-12-04_17h52.51.798,vts_reward_expectancy_bt,2022.2.4,Win32,143.9263097,Chrome,1080,1920,,,,,1,678,,,,,,,,,,,,,,,,,F,167,star,1,0,,,,,,,,,,,,,,,,switch,number,numSwt,k,1.0785,Hi,,,,,,0,,,,,,,,low,21,0,21,0,1,,,,,,,,
298126,2022-12-04_17h52.51.798,vts_reward_expectancy_bt,2022.2.4,Win32,143.9263097,Chrome,1080,1920,,,,,1,679,,,,,,,,,,,,,,,,,Y,146,circle,1,0,,,,,,,,,,,,,,,,repeat,number,numRpt,j,0.6675,Hi,,,,,,0,,,,,,,,low,22,0,22,0,1,,,,,,,,
298126,2022-12-04_17h52.51.798,vts_reward_expectancy_bt,2022.2.4,Win32,143.9263097,Chrome,1080,1920,,,,,1,680,,,,,,,,,,,,,,,,,B,181,triangle,1,0,,,,,,,,,,,,,,,,switch,letter,lettSwt,d,0.6314,Lo,,,,,,0,,,,,,,,low,23,0,23,0,1,,,,,,,,
298126,2022-12-04_17h52.51.798,vts_reward_expectancy_bt,2022.2.4,Win32,143.9263097,Chrome,1080,1920,,,,,10,690,,,,,,,,,,,,,,,,,W,132,triangle,1,0,,,,,,,,,,,,,,,,switch,number,numSwt,j,0.6878,Lo,,,,,,0,,,,,,,,low,24,0,24,0,1,,,,,,,,
298126,2022-12-04_17h52.51.798,vts_reward_expectancy_bt,2022.2.4,Win32,143.9263097,Chrome,1080,1920,,,,,10,700,,,,,,,,,,,,,,,,,U,146,circle,1,0,,,,,,,,,,,,,,,,repeat,number,numRpt,j,0.7912,Hi,,,,,,0,,,,,,,,low,25,0,25,0,1,,,,,,,,
298126,2022-12-04_17h52.51.798,vts_reward_expectancy_bt,2022.2.4,Win32,143.9263097,Chrome,1080,1920,,,,,1,701,,,,,,,,,,,,,,,,,F,160,hexagon,1,0,,,,,,,,,,,,,,,,switch,letter,lettSwt,d,0.6977,Lo,,,,,,0,,,,,,,,low,26,0,26,0,1,,,,,,,,
298126,2022-12-04_17h52.51.798,vts_reward_expectancy_bt,2022.2.4,Win32,143.9263097,Chrome,1080,1920,,,,,1,702,,,,,,,,,,,,,,,,,S,125,star,1,0,,,,,,,,,,,,,,,,switch,number,numSwt,j,0.6243,Hi,,,,,,0,,,,,,,,low,27,0,27,0,1,,,,,,,,
298126,2022-12-04_17h52.51.798,vts_reward_expectancy_bt,2022.2.4,Win32,143.9263097,Chrome,1080,1920,,,,,1,703,,,,,,,,,,,,,,,,,D,181,hexagon,1,0,,,,,,,,,,,,,,,,repeat,number,numRpt,k,0.7369,Lo,,,,,,0,,,,,,,,low,28,0,28,0,1,,,,,,,,
298126,2022-12-04_17h52.51.798,vts_reward_expectancy_bt,2022.2.4,Win32,143.9263097,Chrome,1080,1920,,,,,10,713,,,,,,,,,,,,,,,,,H,174,triangle,1,0,,,,,,,,,,,,,,,,repeat,number,numRpt,k,0.7028,Lo,,,,,,0,,,,,,,,low,29,0,29,0,1,,,,,,,,
298126,2022-12-04_17h52.51.798,vts_reward_expectancy_bt,2022.2.4,Win32,143.9263097,Chrome,1080,1920,,,,,10,723,,,,,,,,,,,,,,,,,Y,167,star,1,0,,,,,,,,,,,,,,,,repeat,number,numRpt,k,1.1182,Hi,,,,,,0,,,,,,,,low,30,0,30,0,1,,,,,,,,
298126,2022-12-04_17h52.51.798,vts_reward_expectancy_bt,2022.2.4,Win32,143.9263097,Chrome,1080,1920,,,,,10,733,,,,,,,,,,,,,,,,,B,139,circle,1,0,,,,,,,,,,,,,,,,repeat,number,numRpt,j,0.8532,Hi,,,,,,0,,,,,,,,low,31,0,31,0,1,,,,,,,,
298126,2022-12-04_17h52.51.798,vts_reward_expectancy_bt,2022.2.4,Win32,143.9263097,Chrome,1080,1920,,,,,1,734,,,,,,,,,,,,,,,,,S,181,triangle,1,0,,,,,,,,,,,,,,,,switch,letter,lettSwt,f,0.9161,Lo,,,,,,1,,,,,,space,3.5791,low,0,0,0,0,1,,,,,,,,
298126,2022-12-04_17h52.51.798,vts_reward_expectancy_bt,2022.2.4,Win32,143.9263097,Chrome,1080,1920,,,,,10,744,,,,,,,,,,,,,,,,,W,125,circle,1,0,,,,,,,,,,,,,,,,repeat,letter,lettRpt,f,0.6581,Hi,,,,,,1,,,,,,,,low,1,0,1,0,1,,,,,,,,
298126,2022-12-04_17h52.51.798,vts_reward_expectancy_bt,2022.2.4,Win32,143.9263097,Chrome,1080,1920,,,,,0,744,,,,,,,,,,,,,,,,,H,174,hexagon,0,0,,,,,,,,,,,,,,,,repeat,letter,NA,f,0.9299,Hi,,,,,,1,,,,,,,,low,2,0,2,0,1,,,,,,,,
298126,2022-12-04_17h52.51.798,vts_reward_expectancy_bt,2022.2.4,Win32,143.9263097,Chrome,1080,1920,,,,,0,744,,,,,,,,,,,,,,,,,F,160,star,0,1,,,,,,,,,,,,,,,,repeat,letter,NA,f,1.0417,Hi,,,,,,1,,,,,,,,low,3,0,3,0,1,,,,,,,,
298126,2022-12-04_17h52.51.798,vts_reward_expectancy_bt,2022.2.4,Win32,143.9263097,Chrome,1080,1920,,,,,1,745,,,,,,,,,,,,,,,,,Y,132,triangle,1,1,,,,,,,,,,,,,,,,switch,number,numSwt,j,0.8373,Lo,,,,,,1,,,,,,,,low,4,0,4,0,1,,,,,,,,
298126,2022-12-04_17h52.51.798,vts_reward_expectancy_bt,2022.2.4,Win32,143.9263097,Chrome,1080,1920,,,,,1,746,,,,,,,,,,,,,,,,,B,139,circle,1,0,,,,,,,,,,,,,,,,repeat,number,numRpt,j,0.7427,Hi,,,,,,1,,,,,,,,low,5,0,5,0,1,,,,,,,,
298126,2022-12-04_17h52.51.798,vts_reward_expectancy_bt,2022.2.4,Win32,143.9263097,Chrome,1080,1920,,,,,10,756,,,,,,,,,,,,,,,,,D,146,hexagon,1,0,,,,,,,,,,,,,,,,repeat,number,numRpt,j,0.7713,Lo,,,,,,1,,,,,,,,low,6,0,6,0,1,,,,,,,,
298126,2022-12-04_17h52.51.798,vts_reward_expectancy_bt,2022.2.4,Win32,143.9263097,Chrome,1080,1920,,,,,0,756,,,,,,,,,,,,,,,,,U,167,star,1,0,,,,,,,,,,,,,,,,repeat,number,numRpt,k,0.8405,Hi,,,,,,1,,,,,,,,low,7,0,7,0,1,,,,,,,,
298126,2022-12-04_17h52.51.798,vts_reward_expectancy_bt,2022.2.4,Win32,143.9263097,Chrome,1080,1920,,,,,10,766,,,,,,,,,,,,,,,,,S,181,circle,1,0,,,,,,,,,,,,,,,,repeat,number,numRpt,k,0.5794,Hi,,,,,,1,,,,,,,,low,8,0,8,0,1,,,,,,,,
298126,2022-12-04_17h52.51.798,vts_reward_expectancy_bt,2022.2.4,Win32,143.9263097,Chrome,1080,1920,,,,,1,767,,,,,,,,,,,,,,,,,W,125,triangle,1,0,,,,,,,,,,,,,,,,repeat,number,numRpt,j,0.6495,Lo,,,,,,1,,,,,,,,low,9,0,9,0,1,,,,,,,,
298126,2022-12-04_17h52.51.798,vts_reward_expectancy_bt,2022.2.4,Win32,143.9263097,Chrome,1080,1920,,,,,1,768,,,,,,,,,,,,,,,,,H,174,star,1,0,,,,,,,,,,,,,,,,switch,letter,lettSwt,d,0.6474,Hi,,,,,,1,,,,,,,,low,10,0,10,0,1,,,,,,,,
298126,2022-12-04_17h52.51.798,vts_reward_expectancy_bt,2022.2.4,Win32,143.9263097,Chrome,1080,1920,,,,,10,778,,,,,,,,,,,,,,,,,F,160,hexagon,1,0,,,,,,,,,,,,,,,,repeat,letter,lettRpt,d,0.6196,Lo,,,,,,1,,,,,,,,low,11,0,11,0,1,,,,,,,,
298126,2022-12-04_17h52.51.798,vts_reward_expectancy_bt,2022.2.4,Win32,143.9263097,Chrome,1080,1920,,,,,10,788,,,,,,,,,,,,,,,,,Y,132,triangle,1,0,,,,,,,,,,,,,,,,switch,number,numSwt,j,0.6333,Lo,,,,,,1,,,,,,,,low,12,0,12,0,1,,,,,,,,
298126,2022-12-04_17h52.51.798,vts_reward_expectancy_bt,2022.2.4,Win32,143.9263097,Chrome,1080,1920,,,,,10,798,,,,,,,,,,,,,,,,,B,139,hexagon,1,0,,,,,,,,,,,,,,,,switch,letter,lettSwt,d,0.6603,Lo,,,,,,1,,,,,,,,low,13,0,13,0,1,,,,,,,,
298126,2022-12-04_17h52.51.798,vts_reward_expectancy_bt,2022.2.4,Win32,143.9263097,Chrome,1080,1920,,,,,0,798,,,,,,,,,,,,,,,,,D,146,circle,1,0,,,,,,,,,,,,,,,,switch,number,numSwt,j,0.9295,Hi,,,,,,1,,,,,,,,low,14,0,14,0,1,,,,,,,,
298126,2022-12-04_17h52.51.798,vts_reward_expectancy_bt,2022.2.4,Win32,143.9263097,Chrome,1080,1920,,,,,0,798,,,,,,,,,,,,,,,,,U,167,star,0,0,,,,,,,,,,,,,,,,repeat,number,NA,j,0.7244,Hi,,,,,,1,,,,,,,,low,15,0,15,0,1,,,,,,,,
298126,2022-12-04_17h52.51.798,vts_reward_expectancy_bt,2022.2.4,Win32,143.9263097,Chrome,1080,1920,,,,,10,808,,,,,,,,,,,,,,,,,U,181,triangle,1,1,,,,,,,,,,,,,,,,repeat,number,numRpt,k,0.6799,Lo,,,,,,1,,,,,,,,low,16,0,16,0,1,,,,,,,,
298126,2022-12-04_17h52.51.798,vts_reward_expectancy_bt,2022.2.4,Win32,143.9263097,Chrome,1080,1920,,,,,0,808,,,,,,,,,,,,,,,,,S,167,star,1,0,,,,,,,,,,,,,,,,switch,letter,lettSwt,f,1.273,Hi,,,,,,1,,,,,,,,low,17,0,17,0,1,,,,,,,,
298126,2022-12-04_17h52.51.798,vts_reward_expectancy_bt,2022.2.4,Win32,143.9263097,Chrome,1080,1920,,,,,10,818,,,,,,,,,,,,,,,,,D,125,circle,1,0,,,,,,,,,,,,,,,,repeat,letter,lettRpt,d,0.7023,Hi,,,,,,1,,,,,,,,low,18,0,18,0,1,,,,,,,,
298126,2022-12-04_17h52.51.798,vts_reward_expectancy_bt,2022.2.4,Win32,143.9263097,Chrome,1080,1920,,,,,1,819,,,,,,,,,,,,,,,,,Y,139,hexagon,1,0,,,,,,,,,,,,,,,,repeat,letter,lettRpt,f,0.8068,Lo,,,,,,1,,,,,,,,low,19,0,19,0,1,,,,,,,,
298126,2022-12-04_17h52.51.798,vts_reward_expectancy_bt,2022.2.4,Win32,143.9263097,Chrome,1080,1920,,,,,10,829,,,,,,,,,,,,,,,,,B,174,circle,1,0,,,,,,,,,,,,,,,,switch,number,numSwt,k,0.6449,Hi,,,,,,1,,,,,,,,low,20,0,20,0,1,,,,,,,,
298126,2022-12-04_17h52.51.798,vts_reward_expectancy_bt,2022.2.4,Win32,143.9263097,Chrome,1080,1920,,,,,1,830,,,,,,,,,,,,,,,,,F,132,hexagon,1,0,,,,,,,,,,,,,,,,repeat,number,numRpt,j,0.7508,Lo,,,,,,1,,,,,,,,low,21,0,21,0,1,,,,,,,,
298126,2022-12-04_17h52.51.798,vts_reward_expectancy_bt,2022.2.4,Win32,143.9263097,Chrome,1080,1920,,,,,0,830,,,,,,,,,,,,,,,,,W,160,star,1,0,,,,,,,,,,,,,,,,repeat,number,numRpt,k,0.9009,Hi,,,,,,1,,,,,,,,low,22,0,22,0,1,,,,,,,,
298126,2022-12-04_17h52.51.798,vts_reward_expectancy_bt,2022.2.4,Win32,143.9263097,Chrome,1080,1920,,,,,1,831,,,,,,,,,,,,,,,,,H,146,triangle,1,0,,,,,,,,,,,,,,,,repeat,number,numRpt,j,0.7231,Lo,,,,,,1,,,,,,,,low,23,0,23,0,1,,,,,,,,
298126,2022-12-04_17h52.51.798,vts_reward_expectancy_bt,2022.2.4,Win32,143.9263097,Chrome,1080,1920,,,,,10,841,,,,,,,,,,,,,,,,,F,174,circle,1,0,,,,,,,,,,,,,,,,switch,letter,lettSwt,d,0.7207,Hi,,,,,,1,,,,,,,,low,24,0,24,0,1,,,,,,,,
298126,2022-12-04_17h52.51.798,vts_reward_expectancy_bt,2022.2.4,Win32,143.9263097,Chrome,1080,1920,,,,,1,842,,,,,,,,,,,,,,,,,H,139,triangle,1,0,,,,,,,,,,,,,,,,repeat,letter,lettRpt,d,1.0821,Lo,,,,,,1,,,,,,,,low,25,0,25,0,1,,,,,,,,
298126,2022-12-04_17h52.51.798,vts_reward_expectancy_bt,2022.2.4,Win32,143.9263097,Chrome,1080,1920,,,,,0,842,,,,,,,,,,,,,,,,,S,132,star,1,0,,,,,,,,,,,,,,,,repeat,letter,lettRpt,f,0.8078,Hi,,,,,,1,,,,,,,,low,26,0,26,0,1,,,,,,,,
298126,2022-12-04_17h52.51.798,vts_reward_expectancy_bt,2022.2.4,Win32,143.9263097,Chrome,1080,1920,,,,,10,852,,,,,,,,,,,,,,,,,D,167,hexagon,1,0,,,,,,,,,,,,,,,,switch,number,numSwt,k,0.7263,Lo,,,,,,1,,,,,,,,low,27,0,27,0,1,,,,,,,,
298126,2022-12-04_17h52.51.798,vts_reward_expectancy_bt,2022.2.4,Win32,143.9263097,Chrome,1080,1920,,,,,1,853,,,,,,,,,,,,,,,,,B,160,triangle,1,0,,,,,,,,,,,,,,,,switch,letter,lettSwt,d,0.911,Lo,,,,,,1,,,,,,,,low,28,0,28,0,1,,,,,,,,
298126,2022-12-04_17h52.51.798,vts_reward_expectancy_bt,2022.2.4,Win32,143.9263097,Chrome,1080,1920,,,,,10,863,,,,,,,,,,,,,,,,,U,125,star,1,0,,,,,,,,,,,,,,,,repeat,letter,lettRpt,f,0.6679,Hi,,,,,,1,,,,,,,,low,29,0,29,0,1,,,,,,,,
298126,2022-12-04_17h52.51.798,vts_reward_expectancy_bt,2022.2.4,Win32,143.9263097,Chrome,1080,1920,,,,,10,873,,,,,,,,,,,,,,,,,W,181,circle,1,0,,,,,,,,,,,,,,,,repeat,letter,lettRpt,f,0.6314,Hi,,,,,,1,,,,,,,,low,30,0,30,0,1,,,,,,,,
298126,2022-12-04_17h52.51.798,vts_reward_expectancy_bt,2022.2.4,Win32,143.9263097,Chrome,1080,1920,,,,,1,874,,,,,,,,,,,,,,,,,Y,146,hexagon,1,0,,,,,,,,,,,,,,,,repeat,letter,lettRpt,f,0.8235,Lo,,,,,,1,,,,,,,,low,31,0,31,0,1,,,,,,,,
298126,2022-12-04_17h52.51.798,vts_reward_expectancy_bt,2022.2.4,Win32,143.9263097,Chrome,1080,1920,,,,,0,874,,,,,,,,,,,,,,,,,D,132,star,1,0,,,,,,,,,,,,,,,,repeat,letter,lettRpt,d,0.8897,Hi,,,,,,2,,,,,,space,0.9754,low,0,0,0,0,1,,,,,,,,
298126,2022-12-04_17h52.51.798,vts_reward_expectancy_bt,2022.2.4,Win32,143.9263097,Chrome,1080,1920,,,,,1,875,,,,,,,,,,,,,,,,,B,167,hexagon,1,0,,,,,,,,,,,,,,,,repeat,letter,lettRpt,d,0.5599,Lo,,,,,,2,,,,,,,,low,1,0,1,0,1,,,,,,,,
298126,2022-12-04_17h52.51.798,vts_reward_expectancy_bt,2022.2.4,Win32,143.9263097,Chrome,1080,1920,,,,,10,885,,,,,,,,,,,,,,,,,S,125,circle,1,0,,,,,,,,,,,,,,,,repeat,letter,lettRpt,f,0.6332,Hi,,,,,,2,,,,,,,,low,2,0,2,0,1,,,,,,,,
298126,2022-12-04_17h52.51.798,vts_reward_expectancy_bt,2022.2.4,Win32,143.9263097,Chrome,1080,1920,,,,,10,895,,,,,,,,,,,,,,,,,W,181,triangle,1,0,,,,,,,,,,,,,,,,switch,number,numSwt,k,0.5144,Lo,,,,,,2,,,,,,,,low,3,0,3,0,1,,,,,,,,
298126,2022-12-04_17h52.51.798,vts_reward_expectancy_bt,2022.2.4,Win32,143.9263097,Chrome,1080,1920,,,,,0,895,,,,,,,,,,,,,,,,,U,174,star,1,0,,,,,,,,,,,,,,,,repeat,number,numRpt,k,0.7255,Hi,,,,,,2,,,,,,,,low,4,0,4,0,1,,,,,,,,
298126,2022-12-04_17h52.51.798,vts_reward_expectancy_bt,2022.2.4,Win32,143.9263097,Chrome,1080,1920,,,,,1,896,,,,,,,,,,,,,,,,,Y,146,hexagon,1,0,,,,,,,,,,,,,,,,repeat,number,numRpt,j,0.5547,Lo,,,,,,2,,,,,,,,low,5,0,5,0,1,,,,,,,,
298126,2022-12-04_17h52.51.798,vts_reward_expectancy_bt,2022.2.4,Win32,143.9263097,Chrome,1080,1920,,,,,0,896,,,,,,,,,,,,,,,,,F,139,circle,1,0,,,,,,,,,,,,,,,,switch,letter,lettSwt,d,0.7013,Hi,,,,,,2,,,,,,,,low,6,0,6,0,1,,,,,,,,
298126,2022-12-04_17h52.51.798,vts_reward_expectancy_bt,2022.2.4,Win32,143.9263097,Chrome,1080,1920,,,,,10,906,,,,,,,,,,,,,,,,,H,160,triangle,1,0,,,,,,,,,,,,,,,,repeat,letter,lettRpt,d,0.5921,Lo,,,,,,2,,,,,,,,low,7,0,7,0,1,,,,,,,,
298126,2022-12-04_17h52.51.798,vts_reward_expectancy_bt,2022.2.4,Win32,143.9263097,Chrome,1080,1920,,,,,1,907,,,,,,,,,,,,,,,,,D,132,hexagon,1,0,,,,,,,,,,,,,,,,switch,number,numSwt,j,0.5456,Lo,,,,,,2,,,,,,,,low,8,0,8,0,1,,,,,,,,
298126,2022-12-04_17h52.51.798,vts_reward_expectancy_bt,2022.2.4,Win32,143.9263097,Chrome,1080,1920,,,,,10,917,,,,,,,,,,,,,,,,,B,167,star,1,0,,,,,,,,,,,,,,,,repeat,number,numRpt,k,0.4714,Hi,,,,,,2,,,,,,,,low,9,0,9,0,1,,,,,,,,
298126,2022-12-04_17h52.51.798,vts_reward_expectancy_bt,2022.2.4,Win32,143.9263097,Chrome,1080,1920,,,,,1,918,,,,,,,,,,,,,,,,,S,125,triangle,1,0,,,,,,,,,,,,,,,,switch,letter,lettSwt,f,0.7264,Lo,,,,,,2,,,,,,,,low,10,0,10,0,1,,,,,,,,
298126,2022-12-04_17h52.51.798,vts_reward_expectancy_bt,2022.2.4,Win32,143.9263097,Chrome,1080,1920,,,,,10,928,,,,,,,,,,,,,,,,,W,181,circle,1,0,,,,,,,,,,,,,,,,repeat,letter,lettRpt,f,0.5461,Hi,,,,,,2,,,,,,,,low,11,0,11,0,1,,,,,,,,
298126,2022-12-04_17h52.51.798,vts_reward_expectancy_bt,2022.2.4,Win32,143.9263097,Chrome,1080,1920,,,,,10,938,,,,,,,,,,,,,,,,,U,174,circle,1,0,,,,,,,,,,,,,,,,switch,number,numSwt,k,0.5291,Hi,,,,,,2,,,,,,,,low,12,0,12,0,1,,,,,,,,
298126,2022-12-04_17h52.51.798,vts_reward_expectancy_bt,2022.2.4,Win32,143.9263097,Chrome,1080,1920,,,,,1,939,,,,,,,,,,,,,,,,,Y,146,star,1,0,,,,,,,,,,,,,,,,repeat,number,numRpt,j,0.5795,Hi,,,,,,2,,,,,,,,low,13,0,13,0,1,,,,,,,,
298126,2022-12-04_17h52.51.798,vts_reward_expectancy_bt,2022.2.4,Win32,143.9263097,Chrome,1080,1920,,,,,1,940,,,,,,,,,,,,,,,,,F,139,triangle,1,0,,,,,,,,,,,,,,,,repeat,number,numRpt,j,0.6616,Lo,,,,,,2,,,,,,,,low,14,0,14,0,1,,,,,,,,
298126,2022-12-04_17h52.51.798,vts_reward_expectancy_bt,2022.2.4,Win32,143.9263097,Chrome,1080,1920,,,,,0,940,,,,,,,,,,,,,,,,,H,160,hexagon,0,0,,,,,,,,,,,,,,,,repeat,number,NA,j,0.5156,Lo,,,,,,2,,,,,,,,low,15,0,15,0,1,,,,,,,,
298126,2022-12-04_17h52.51.798,vts_reward_expectancy_bt,2022.2.4,Win32,143.9263097,Chrome,1080,1920,,,,,1,941,,,,,,,,,,,,,,,,,Y,181,star,1,1,,,,,,,,,,,,,,,,repeat,number,numRpt,k,0.5121,Hi,,,,,,2,,,,,,,,low,16,0,16,0,1,,,,,,,,
298126,2022-12-04_17h52.51.798,vts_reward_expectancy_bt,2022.2.4,Win32,143.9263097,Chrome,1080,1920,,,,,10,951,,,,,,,,,,,,,,,,,F,132,circle,1,0,,,,,,,,,,,,,,,,repeat,number,numRpt,j,0.6915,Hi,,,,,,2,,,,,,,,low,17,0,17,0,1,,,,,,,,
298126,2022-12-04_17h52.51.798,vts_reward_expectancy_bt,2022.2.4,Win32,143.9263097,Chrome,1080,1920,,,,,1,952,,,,,,,,,,,,,,,,,B,146,triangle,1,0,,,,,,,,,,,,,,,,repeat,number,numRpt,j,0.9701,Lo,,,,,,2,,,,,,,,low,18,0,18,0,1,,,,,,,,
298126,2022-12-04_17h52.51.798,vts_reward_expectancy_bt,2022.2.4,Win32,143.9263097,Chrome,1080,1920,,,,,10,962,,,,,,,,,,,,,,,,,U,174,hexagon,1,0,,,,,,,,,,,,,,,,switch,letter,lettSwt,f,0.6568,Lo,,,,,,2,,,,,,,,low,19,0,19,0,1,,,,,,,,
298126,2022-12-04_17h52.51.798,vts_reward_expectancy_bt,2022.2.4,Win32,143.9263097,Chrome,1080,1920,,,,,10,972,,,,,,,,,,,,,,,,,W,167,triangle,1,0,,,,,,,,,,,,,,,,repeat,letter,lettRpt,f,0.6242,Lo,,,,,,2,,,,,,,,low,20,0,20,0,1,,,,,,,,
298126,2022-12-04_17h52.51.798,vts_reward_expectancy_bt,2022.2.4,Win32,143.9263097,Chrome,1080,1920,,,,,10,982,,,,,,,,,,,,,,,,,D,125,circle,1,0,,,,,,,,,,,,,,,,repeat,letter,lettRpt,d,0.6357,Hi,,,,,,2,,,,,,,,low,21,0,21,0,1,,,,,,,,
298126,2022-12-04_17h52.51.798,vts_reward_expectancy_bt,2022.2.4,Win32,143.9263097,Chrome,1080,1920,,,,,10,992,,,,,,,,,,,,,,,,,S,139,hexagon,1,0,,,,,,,,,,,,,,,,repeat,letter,lettRpt,f,0.5616,Lo,,,,,,2,,,,,,,,low,22,0,22,0,1,,,,,,,,
298126,2022-12-04_17h52.51.798,vts_reward_expectancy_bt,2022.2.4,Win32,143.9263097,Chrome,1080,1920,,,,,10,1002,,,,,,,,,,,,,,,,,H,160,star,1,0,,,,,,,,,,,,,,,,switch,number,numSwt,k,0.585,Hi,,,,,,2,,,,,,,,low,23,0,23,0,1,,,,,,,,
298126,2022-12-04_17h52.51.798,vts_reward_expectancy_bt,2022.2.4,Win32,143.9263097,Chrome,1080,1920,,,,,10,1012,,,,,,,,,,,,,,,,,F,167,hexagon,1,0,,,,,,,,,,,,,,,,repeat,number,numRpt,k,0.8162,Lo,,,,,,2,,,,,,,,low,24,0,24,0,1,,,,,,,,
298126,2022-12-04_17h52.51.798,vts_reward_expectancy_bt,2022.2.4,Win32,143.9263097,Chrome,1080,1920,,,,,0,1012,,,,,,,,,,,,,,,,,D,146,circle,1,0,,,,,,,,,,,,,,,,switch,letter,lettSwt,d,0.8027,Hi,,,,,,2,,,,,,,,low,25,0,25,0,1,,,,,,,,
298126,2022-12-04_17h52.51.798,vts_reward_expectancy_bt,2022.2.4,Win32,143.9263097,Chrome,1080,1920,,,,,10,1022,,,,,,,,,,,,,,,,,B,125,triangle,1,0,,,,,,,,,,,,,,,,repeat,letter,lettRpt,d,0.6402,Lo,,,,,,2,,,,,,,,low,26,0,26,0,1,,,,,,,,
298126,2022-12-04_17h52.51.798,vts_reward_expectancy_bt,2022.2.4,Win32,143.9263097,Chrome,1080,1920,,,,,0,1022,,,,,,,,,,,,,,,,,W,160,star,1,0,,,,,,,,,,,,,,,,repeat,letter,lettRpt,f,0.7088,Hi,,,,,,2,,,,,,,,low,27,0,27,0,1,,,,,,,,
298126,2022-12-04_17h52.51.798,vts_reward_expectancy_bt,2022.2.4,Win32,143.9263097,Chrome,1080,1920,,,,,10,1032,,,,,,,,,,,,,,,,,S,132,triangle,1,0,,,,,,,,,,,,,,,,repeat,letter,lettRpt,f,0.7373,Lo,,,,,,2,,,,,,,,low,28,0,28,0,1,,,,,,,,
298126,2022-12-04_17h52.51.798,vts_reward_expectancy_bt,2022.2.4,Win32,143.9263097,Chrome,1080,1920,,,,,1,1033,,,,,,,,,,,,,,,,,U,139,circle,1,0,,,,,,,,,,,,,,,,switch,number,numSwt,j,0.6612,Hi,,,,,,2,,,,,,,,low,29,0,29,0,1,,,,,,,,
298126,2022-12-04_17h52.51.798,vts_reward_expectancy_bt,2022.2.4,Win32,143.9263097,Chrome,1080,1920,,,,,1,1034,,,,,,,,,,,,,,,,,Y,181,hexagon,1,0,,,,,,,,,,,,,,,,repeat,number,numRpt,k,0.5306,Lo,,,,,,2,,,,,,,,low,30,0,30,0,1,,,,,,,,
298126,2022-12-04_17h52.51.798,vts_reward_expectancy_bt,2022.2.4,Win32,143.9263097,Chrome,1080,1920,,,,,10,1044,,,,,,,,,,,,,,,,,H,174,star,1,0,,,,,,,,,,,,,,,,repeat,number,numRpt,k,0.6569,Hi,,,,,,2,,,,,,,,low,31,0,31,0,1,,,,,,,,
298126,2022-12-04_17h52.51.798,vts_reward_expectancy_bt,2022.2.4,Win32,143.9263097,Chrome,1080,1920,,,,,10,1054,,,,,,,,,,,,,,,,,H,125,star,1,0,,,,,,,,,,,,,,,,switch,letter,lettSwt,d,0.6122,Hi,,,,,,3,,,,,,space,1.1899,low,0,0,0,0,1,,,,,,,,
298126,2022-12-04_17h52.51.798,vts_reward_expectancy_bt,2022.2.4,Win32,143.9263097,Chrome,1080,1920,,,,,10,1064,,,,,,,,,,,,,,,,,W,160,hexagon,1,0,,,,,,,,,,,,,,,,repeat,letter,lettRpt,f,0.5445,Lo,,,,,,3,,,,,,,,low,1,0,1,0,1,,,,,,,,
298126,2022-12-04_17h52.51.798,vts_reward_expectancy_bt,2022.2.4,Win32,143.9263097,Chrome,1080,1920,,,,,0,1064,,,,,,,,,,,,,,,,,D,139,circle,1,0,,,,,,,,,,,,,,,,repeat,letter,lettRpt,d,0.6255,Hi,,,,,,3,,,,,,,,low,2,0,2,0,1,,,,,,,,
298126,2022-12-04_17h52.51.798,vts_reward_expectancy_bt,2022.2.4,Win32,143.9263097,Chrome,1080,1920,,,,,0,1064,,,,,,,,,,,,,,,,,B,167,triangle,0,0,,,,,,,,,,,,,,,,switch,number,NA,j,0.7027,Hi,,,,,,3,,,,,,,,low,3,0,3,0,1,,,,,,,,
298126,2022-12-04_17h52.51.798,vts_reward_expectancy_bt,2022.2.4,Win32,143.9263097,Chrome,1080,1920,,,,,0,1064,,,,,,,,,,,,,,,,,S,146,star,1,1,,,,,,,,,,,,,,,,repeat,number,numRpt,j,0.6116,Hi,,,,,,3,,,,,,,,low,4,0,4,0,1,,,,,,,,
298126,2022-12-04_17h52.51.798,vts_reward_expectancy_bt,2022.2.4,Win32,143.9263097,Chrome,1080,1920,,,,,1,1065,,,,,,,,,,,,,,,,,U,132,hexagon,1,0,,,,,,,,,,,,,,,,repeat,number,numRpt,j,0.5925,Lo,,,,,,3,,,,,,,,low,5,0,5,0,1,,,,,,,,
298126,2022-12-04_17h52.51.798,vts_reward_expectancy_bt,2022.2.4,Win32,143.9263097,Chrome,1080,1920,,,,,10,1075,,,,,,,,,,,,,,,,,Y,174,circle,1,0,,,,,,,,,,,,,,,,switch,letter,lettSwt,f,0.5279,Hi,,,,,,3,,,,,,,,low,6,0,6,0,1,,,,,,,,
298126,2022-12-04_17h52.51.798,vts_reward_expectancy_bt,2022.2.4,Win32,143.9263097,Chrome,1080,1920,,,,,1,1076,,,,,,,,,,,,,,,,,F,181,triangle,1,0,,,,,,,,,,,,,,,,switch,number,numSwt,k,0.5645,Lo,,,,,,3,,,,,,,,low,7,0,7,0,1,,,,,,,,
298126,2022-12-04_17h52.51.798,vts_reward_expectancy_bt,2022.2.4,Win32,143.9263097,Chrome,1080,1920,,,,,0,1076,,,,,,,,,,,,,,,,,H,125,circle,1,0,,,,,,,,,,,,,,,,repeat,number,numRpt,j,0.5959,Hi,,,,,,3,,,,,,,,low,8,0,8,0,1,,,,,,,,
298126,2022-12-04_17h52.51.798,vts_reward_expectancy_bt,2022.2.4,Win32,143.9263097,Chrome,1080,1920,,,,,1,1077,,,,,,,,,,,,,,,,,W,160,hexagon,1,0,,,,,,,,,,,,,,,,repeat,number,numRpt,k,0.8835,Lo,,,,,,3,,,,,,,,low,9,0,9,0,1,,,,,,,,
298126,2022-12-04_17h52.51.798,vts_reward_expectancy_bt,2022.2.4,Win32,143.9263097,Chrome,1080,1920,,,,,10,1087,,,,,,,,,,,,,,,,,D,139,triangle,1,0,,,,,,,,,,,,,,,,switch,letter,lettSwt,d,0.5328,Lo,,,,,,3,,,,,,,,low,10,0,10,0,1,,,,,,,,
298126,2022-12-04_17h52.51.798,vts_reward_expectancy_bt,2022.2.4,Win32,143.9263097,Chrome,1080,1920,,,,,10,1097,,,,,,,,,,,,,,,,,B,167,star,1,0,,,,,,,,,,,,,,,,repeat,letter,lettRpt,d,0.5837,Hi,,,,,,3,,,,,,,,low,11,0,11,0,1,,,,,,,,
298126,2022-12-04_17h52.51.798,vts_reward_expectancy_bt,2022.2.4,Win32,143.9263097,Chrome,1080,1920,,,,,1,1098,,,,,,,,,,,,,,,,,S,146,triangle,1,0,,,,,,,,,,,,,,,,repeat,letter,lettRpt,f,0.833,Lo,,,,,,3,,,,,,,,low,12,0,12,0,1,,,,,,,,
298126,2022-12-04_17h52.51.798,vts_reward_expectancy_bt,2022.2.4,Win32,143.9263097,Chrome,1080,1920,,,,,0,1098,,,,,,,,,,,,,,,,,U,132,star,1,0,,,,,,,,,,,,,,,,repeat,letter,lettRpt,f,0.7575,Hi,,,,,,3,,,,,,,,low,13,0,13,0,1,,,,,,,,
298126,2022-12-04_17h52.51.798,vts_reward_expectancy_bt,2022.2.4,Win32,143.9263097,Chrome,1080,1920,,,,,1,1099,,,,,,,,,,,,,,,,,Y,174,hexagon,1,0,,,,,,,,,,,,,,,,repeat,letter,lettRpt,f,0.6393,Lo,,,,,,3,,,,,,,,low,14,0,14,0,1,,,,,,,,
298126,2022-12-04_17h52.51.798,vts_reward_expectancy_bt,2022.2.4,Win32,143.9263097,Chrome,1080,1920,,,,,0,1099,,,,,,,,,,,,,,,,,F,181,circle,1,0,,,,,,,,,,,,,,,,switch,number,numSwt,k,0.6427,Hi,,,,,,3,,,,,,,,low,15,0,15,0,1,,,,,,,,
298126,2022-12-04_17h52.51.798,vts_reward_expectancy_bt,2022.2.4,Win32,143.9263097,Chrome,1080,1920,,,,,10,1109,,,,,,,,,,,,,,,,,Y,181,hexagon,1,0,,,,,,,,,,,,,,,,repeat,number,numRpt,k,0.5804,Lo,,,,,,3,,,,,,,,low,16,0,16,0,1,,,,,,,,
298126,2022-12-04_17h52.51.798,vts_reward_expectancy_bt,2022.2.4,Win32,143.9263097,Chrome,1080,1920,,,,,0,1109,,,,,,,,,,,,,,,,,S,146,star,1,0,,,,,,,,,,,,,,,,repeat,number,numRpt,j,0.7568,Hi,,,,,,3,,,,,,,,low,17,0,17,0,1,,,,,,,,
298126,2022-12-04_17h52.51.798,vts_reward_expectancy_bt,2022.2.4,Win32,143.9263097,Chrome,1080,1920,,,,,10,1119,,,,,,,,,,,,,,,,,D,167,triangle,1,0,,,,,,,,,,,,,,,,repeat,number,numRpt,k,0.7061,Lo,,,,,,3,,,,,,,,low,18,0,18,0,1,,,,,,,,
298126,2022-12-04_17h52.51.798,vts_reward_expectancy_bt,2022.2.4,Win32,143.9263097,Chrome,1080,1920,,,,,1,1120,,,,,,,,,,,,,,,,,U,174,circle,1,0,,,,,,,,,,,,,,,,switch,letter,lettSwt,f,0.5542,Hi,,,,,,3,,,,,,,,low,19,0,19,0,1,,,,,,,,
298126,2022-12-04_17h52.51.798,vts_reward_expectancy_bt,2022.2.4,Win32,143.9263097,Chrome,1080,1920,,,,,0,1120,,,,,,,,,,,,,,,,,B,139,circle,1,0,,,,,,,,,,,,,,,,repeat,letter,lettRpt,d,0.6382,Hi,,,,,,3,,,,,,,,low,20,0,20,0,1,,,,,,,,
298126,2022-12-04_17h52.51.798,vts_reward_expectancy_bt,2022.2.4,Win32,143.9263097,Chrome,1080,1920,,,,,0,1120,,,,,,,,,,,,,,,,,H,132,triangle,0,0,,,,,,,,,,,,,,,,switch,number,NA,k,0.5833,Hi,,,,,,3,,,,,,,,low,21,0,21,0,1,,,,,,,,
298126,2022-12-04_17h52.51.798,vts_reward_expectancy_bt,2022.2.4,Win32,143.9263097,Chrome,1080,1920,,,,,1,1121,,,,,,,,,,,,,,,,,W,125,star,1,1,,,,,,,,,,,,,,,,repeat,number,numRpt,j,0.5562,Hi,,,,,,3,,,,,,,,low,22,0,22,0,1,,,,,,,,
298126,2022-12-04_17h52.51.798,vts_reward_expectancy_bt,2022.2.4,Win32,143.9263097,Chrome,1080,1920,,,,,10,1131,,,,,,,,,,,,,,,,,F,160,hexagon,1,0,,,,,,,,,,,,,,,,switch,letter,lettSwt,d,0.7093,Lo,,,,,,3,,,,,,,,low,23,0,23,0,1,,,,,,,,
298126,2022-12-04_17h52.51.798,vts_reward_expectancy_bt,2022.2.4,Win32,143.9263097,Chrome,1080,1920,,,,,1,1132,,,,,,,,,,,,,,,,,Y,146,hexagon,1,0,,,,,,,,,,,,,,,,repeat,letter,lettRpt,f,0.5742,Lo,,,,,,3,,,,,,,,low,24,0,24,0,1,,,,,,,,
298126,2022-12-04_17h52.51.798,vts_reward_expectancy_bt,2022.2.4,Win32,143.9263097,Chrome,1080,1920,,,,,0,1132,,,,,,,,,,,,,,,,,H,181,star,1,0,,,,,,,,,,,,,,,,repeat,letter,lettRpt,d,0.9314,Hi,,,,,,3,,,,,,,,low,25,0,25,0,1,,,,,,,,
298126,2022-12-04_17h52.51.798,vts_reward_expectancy_bt,2022.2.4,Win32,143.9263097,Chrome,1080,1920,,,,,0,1132,,,,,,,,,,,,,,,,,D,125,circle,1,0,,,,,,,,,,,,,,,,repeat,letter,lettRpt,d,0.6746,Hi,,,,,,3,,,,,,,,low,26,0,26,0,1,,,,,,,,
298126,2022-12-04_17h52.51.798,vts_reward_expectancy_bt,2022.2.4,Win32,143.9263097,Chrome,1080,1920,,,,,10,1142,,,,,,,,,,,,,,,,,U,132,triangle,1,0,,,,,,,,,,,,,,,,repeat,letter,lettRpt,f,0.635,Lo,,,,,,3,,,,,,,,low,27,0,27,0,1,,,,,,,,
298126,2022-12-04_17h52.51.798,vts_reward_expectancy_bt,2022.2.4,Win32,143.9263097,Chrome,1080,1920,,,,,1,1143,,,,,,,,,,,,,,,,,W,174,hexagon,1,0,,,,,,,,,,,,,,,,repeat,letter,lettRpt,f,0.565,Lo,,,,,,3,,,,,,,,low,28,0,28,0,1,,,,,,,,
298126,2022-12-04_17h52.51.798,vts_reward_expectancy_bt,2022.2.4,Win32,143.9263097,Chrome,1080,1920,,,,,0,1143,,,,,,,,,,,,,,,,,B,139,star,1,0,,,,,,,,,,,,,,,,switch,number,numSwt,j,0.6337,Hi,,,,,,3,,,,,,,,low,29,0,29,0,1,,,,,,,,
298126,2022-12-04_17h52.51.798,vts_reward_expectancy_bt,2022.2.4,Win32,143.9263097,Chrome,1080,1920,,,,,0,1143,,,,,,,,,,,,,,,,,S,167,circle,1,0,,,,,,,,,,,,,,,,repeat,number,numRpt,k,0.6351,Hi,,,,,,3,,,,,,,,low,30,0,30,0,1,,,,,,,,
298126,2022-12-04_17h52.51.798,vts_reward_expectancy_bt,2022.2.4,Win32,143.9263097,Chrome,1080,1920,,,,,10,1153,,,,,,,,,,,,,,,,,F,160,triangle,1,0,,,,,,,,,,,,,,,,repeat,number,numRpt,k,0.7888,Lo,,,,,,3,,,,,,,,low,31,0,31,0,1,,,,,,,,
298126,2022-12-04_17h52.51.798,vts_reward_expectancy_bt,2022.2.4,Win32,143.9263097,Chrome,1080,1920,,,,,1,1154,,,,,,,,,,,,,,,,,F,181,triangle,1,0,,,,,,,,,,,,,,,,switch,letter,lettSwt,d,0.7174,Lo,,,,,,4,,,,,,space,0.7041,low,0,0,0,0,1,,,,,,,,
298126,2022-12-04_17h52.51.798,vts_reward_expectancy_bt,2022.2.4,Win32,143.9263097,Chrome,1080,1920,,,,,0,1154,,,,,,,,,,,,,,,,,B,167,star,1,0,,,,,,,,,,,,,,,,switch,number,numSwt,k,0.7232,Hi,,,,,,4,,,,,,,,low,1,0,1,0,1,,,,,,,,
298126,2022-12-04_17h52.51.798,vts_reward_expectancy_bt,2022.2.4,Win32,143.9263097,Chrome,1080,1920,,,,,0,1154,,,,,,,,,,,,,,,,,Y,132,circle,1,0,,,,,,,,,,,,,,,,repeat,number,numRpt,j,0.6789,Hi,,,,,,4,,,,,,,,low,2,0,2,0,1,,,,,,,,
298126,2022-12-04_17h52.51.798,vts_reward_expectancy_bt,2022.2.4,Win32,143.9263097,Chrome,1080,1920,,,,,10,1164,,,,,,,,,,,,,,,,,D,174,hexagon,1,0,,,,,,,,,,,,,,,,repeat,number,numRpt,k,0.5703,Lo,,,,,,4,,,,,,,,low,3,0,3,0,1,,,,,,,,
298126,2022-12-04_17h52.51.798,vts_reward_expectancy_bt,2022.2.4,Win32,143.9263097,Chrome,1080,1920,,,,,1,1165,,,,,,,,,,,,,,,,,W,146,triangle,1,0,,,,,,,,,,,,,,,,repeat,number,numRpt,j,0.8318,Lo,,,,,,4,,,,,,,,low,4,0,4,0,1,,,,,,,,
298126,2022-12-04_17h52.51.798,vts_reward_expectancy_bt,2022.2.4,Win32,143.9263097,Chrome,1080,1920,,,,,0,1165,,,,,,,,,,,,,,,,,H,160,star,0,0,,,,,,,,,,,,,,,,repeat,number,NA,j,0.7686,Lo,,,,,,4,,,,,,,,low,5,0,5,0,1,,,,,,,,
298126,2022-12-04_17h52.51.798,vts_reward_expectancy_bt,2022.2.4,Win32,143.9263097,Chrome,1080,1920,,,,,0,1165,,,,,,,,,,,,,,,,,U,139,circle,1,1,,,,,,,,,,,,,,,,repeat,number,numRpt,j,0.6593,Hi,,,,,,4,,,,,,,,low,6,0,6,0,1,,,,,,,,
298126,2022-12-04_17h52.51.798,vts_reward_expectancy_bt,2022.2.4,Win32,143.9263097,Chrome,1080,1920,,,,,10,1175,,,,,,,,,,,,,,,,,S,125,hexagon,1,0,,,,,,,,,,,,,,,,switch,letter,lettSwt,f,0.7366,Lo,,,,,,4,,,,,,,,low,7,0,7,0,1,,,,,,,,
298126,2022-12-04_17h52.51.798,vts_reward_expectancy_bt,2022.2.4,Win32,143.9263097,Chrome,1080,1920,,,,,0,1175,,,,,,,,,,,,,,,,,F,181,circle,1,0,,,,,,,,,,,,,,,,repeat,letter,lettRpt,d,0.8343,Hi,,,,,,4,,,,,,,,low,8,0,8,0,1,,,,,,,,
298126,2022-12-04_17h52.51.798,vts_reward_expectancy_bt,2022.2.4,Win32,143.9263097,Chrome,1080,1920,,,,,1,1176,,,,,,,,,,,,,,,,,B,167,star,1,0,,,,,,,,,,,,,,,,repeat,letter,lettRpt,d,0.4899,Hi,,,,,,4,,,,,,,,low,9,0,9,0,1,,,,,,,,
298126,2022-12-04_17h52.51.798,vts_reward_expectancy_bt,2022.2.4,Win32,143.9263097,Chrome,1080,1920,,,,,10,1186,,,,,,,,,,,,,,,,,Y,132,triangle,1,0,,,,,,,,,,,,,,,,repeat,letter,lettRpt,f,0.6546,Lo,,,,,,4,,,,,,,,low,10,0,10,0,1,,,,,,,,
298126,2022-12-04_17h52.51.798,vts_reward_expectancy_bt,2022.2.4,Win32,143.9263097,Chrome,1080,1920,,,,,1,1187,,,,,,,,,,,,,,,,,D,174,hexagon,1,0,,,,,,,,,,,,,,,,repeat,letter,lettRpt,d,0.6655,Lo,,,,,,4,,,,,,,,low,11,0,11,0,1,,,,,,,,
298126,2022-12-04_17h52.51.798,vts_reward_expectancy_bt,2022.2.4,Win32,143.9263097,Chrome,1080,1920,,,,,0,1187,,,,,,,,,,,,,,,,,W,146,circle,1,0,,,,,,,,,,,,,,,,switch,number,numSwt,j,0.872,Hi,,,,,,4,,,,,,,,low,12,0,12,0,1,,,,,,,,
298126,2022-12-04_17h52.51.798,vts_reward_expectancy_bt,2022.2.4,Win32,143.9263097,Chrome,1080,1920,,,,,0,1187,,,,,,,,,,,,,,,,,H,160,hexagon,0,0,,,,,,,,,,,,,,,,repeat,number,NA,j,0.7708,Hi,,,,,,4,,,,,,,,low,13,0,13,0,1,,,,,,,,
298126,2022-12-04_17h52.51.798,vts_reward_expectancy_bt,2022.2.4,Win32,143.9263097,Chrome,1080,1920,,,,,0,1187,,,,,,,,,,,,,,,,,U,139,star,1,1,,,,,,,,,,,,,,,,repeat,number,numRpt,j,0.7107,Hi,,,,,,4,,,,,,,,low,14,0,14,0,1,,,,,,,,
298126,2022-12-04_17h52.51.798,vts_reward_expectancy_bt,2022.2.4,Win32,143.9263097,Chrome,1080,1920,,,,,10,1197,,,,,,,,,,,,,,,,,S,125,triangle,1,0,,,,,,,,,,,,,,,,repeat,number,numRpt,j,0.661,Lo,,,,,,4,,,,,,,,low,15,0,15,0,1,,,,,,,,
298126,2022-12-04_17h52.51.798,vts_reward_expectancy_bt,2022.2.4,Win32,143.9263097,Chrome,1080,1920,,,,,10,1207,,,,,,,,,,,,,,,,,D,125,triangle,1,0,,,,,,,,,,,,,,,,repeat,number,numRpt,j,0.594,Lo,,,,,,4,,,,,,,,low,16,0,16,0,1,,,,,,,,
298126,2022-12-04_17h52.51.798,vts_reward_expectancy_bt,2022.2.4,Win32,143.9263097,Chrome,1080,1920,,,,,0,1207,,,,,,,,,,,,,,,,,H,174,hexagon,0,0,,,,,,,,,,,,,,,,switch,letter,NA,f,0.7721,Lo,,,,,,4,,,,,,,,low,17,0,17,0,1,,,,,,,,
298126,2022-12-04_17h52.51.798,vts_reward_expectancy_bt,2022.2.4,Win32,143.9263097,Chrome,1080,1920,,,,,0,1207,,,,,,,,,,,,,,,,,B,181,circle,1,1,,,,,,,,,,,,,,,,repeat,letter,lettRpt,d,0.6282,Hi,,,,,,4,,,,,,,,low,18,0,18,0,1,,,,,,,,
298126,2022-12-04_17h52.51.798,vts_reward_expectancy_bt,2022.2.4,Win32,143.9263097,Chrome,1080,1920,,,,,1,1208,,,,,,,,,,,,,,,,,Y,160,star,1,0,,,,,,,,,,,,,,,,repeat,letter,lettRpt,f,0.5733,Hi,,,,,,4,,,,,,,,low,19,0,19,0,1,,,,,,,,
298126,2022-12-04_17h52.51.798,vts_reward_expectancy_bt,2022.2.4,Win32,143.9263097,Chrome,1080,1920,,,,,0,1208,,,,,,,,,,,,,,,,,F,146,star,1,0,,,,,,,,,,,,,,,,switch,number,numSwt,j,0.8357,Hi,,,,,,4,,,,,,,,low,20,0,20,0,1,,,,,,,,
298126,2022-12-04_17h52.51.798,vts_reward_expectancy_bt,2022.2.4,Win32,143.9263097,Chrome,1080,1920,,,,,1,1209,,,,,,,,,,,,,,,,,S,132,triangle,1,0,,,,,,,,,,,,,,,,repeat,number,numRpt,j,0.6113,Lo,,,,,,4,,,,,,,,low,21,0,21,0,1,,,,,,,,
298126,2022-12-04_17h52.51.798,vts_reward_expectancy_bt,2022.2.4,Win32,143.9263097,Chrome,1080,1920,,,,,1,1210,,,,,,,,,,,,,,,,,U,167,hexagon,1,0,,,,,,,,,,,,,,,,repeat,number,numRpt,k,0.7683,Lo,,,,,,4,,,,,,,,low,22,0,22,0,1,,,,,,,,
298126,2022-12-04_17h52.51.798,vts_reward_expectancy_bt,2022.2.4,Win32,143.9263097,Chrome,1080,1920,,,,,0,1210,,,,,,,,,,,,,,,,,W,139,circle,1,0,,,,,,,,,,,,,,,,repeat,number,numRpt,j,0.8425,Hi,,,,,,4,,,,,,,,low,23,0,23,0,1,,,,,,,,
298126,2022-12-04_17h52.51.798,vts_reward_expectancy_bt,2022.2.4,Win32,143.9263097,Chrome,1080,1920,,,,,0,1210,,,,,,,,,,,,,,,,,D,160,hexagon,0,0,,,,,,,,,,,,,,,,repeat,number,NA,j,1.0825,Hi,,,,,,4,,,,,,,,low,24,0,24,0,1,,,,,,,,
298126,2022-12-04_17h52.51.798,vts_reward_expectancy_bt,2022.2.4,Win32,143.9263097,Chrome,1080,1920,,,,,0,1210,,,,,,,,,,,,,,,,,B,146,circle,1,1,,,,,,,,,,,,,,,,switch,letter,lettSwt,d,0.778,Hi,,,,,,4,,,,,,,,low,25,0,25,0,1,,,,,,,,
298126,2022-12-04_17h52.51.798,vts_reward_expectancy_bt,2022.2.4,Win32,143.9263097,Chrome,1080,1920,,,,,0,1210,,,,,,,,,,,,,,,,,F,181,star,1,0,,,,,,,,,,,,,,,,repeat,letter,lettRpt,d,0.6129,Hi,,,,,,4,,,,,,,,low,26,0,26,0,1,,,,,,,,
298126,2022-12-04_17h52.51.798,vts_reward_expectancy_bt,2022.2.4,Win32,143.9263097,Chrome,1080,1920,,,,,0,1210,,,,,,,,,,,,,,,,,S,125,triangle,0,0,,,,,,,,,,,,,,,,repeat,letter,NA,d,0.6784,Hi,,,,,,4,,,,,,,,low,27,0,27,0,1,,,,,,,,
298126,2022-12-04_17h52.51.798,vts_reward_expectancy_bt,2022.2.4,Win32,143.9263097,Chrome,1080,1920,,,,,1,1211,,,,,,,,,,,,,,,,,U,174,hexagon,1,1,,,,,,,,,,,,,,,,switch,number,numSwt,k,0.7888,Lo,,,,,,4,,,,,,,,low,28,0,28,0,1,,,,,,,,
298126,2022-12-04_17h52.51.798,vts_reward_expectancy_bt,2022.2.4,Win32,143.9263097,Chrome,1080,1920,,,,,10,1221,,,,,,,,,,,,,,,,,H,167,triangle,1,0,,,,,,,,,,,,,,,,repeat,number,numRpt,k,0.6681,Lo,,,,,,4,,,,,,,,low,29,0,29,0,1,,,,,,,,
298126,2022-12-04_17h52.51.798,vts_reward_expectancy_bt,2022.2.4,Win32,143.9263097,Chrome,1080,1920,,,,,10,1231,,,,,,,,,,,,,,,,,W,132,star,1,0,,,,,,,,,,,,,,,,repeat,number,numRpt,j,0.5434,Hi,,,,,,4,,,,,,,,low,30,0,30,0,1,,,,,,,,
298126,2022-12-04_17h52.51.798,vts_reward_expectancy_bt,2022.2.4,Win32,143.9263097,Chrome,1080,1920,,,,,0,1231,,,,,,,,,,,,,,,,,Y,139,circle,1,0,,,,,,,,,,,,,,,,switch,letter,lettSwt,f,0.5775,Hi,,,,,,4,,,,,,,,low,31,0,31,0,1,,,,,,,,
298126,2022-12-04_17h52.51.798,vts_reward_expectancy_bt,2022.2.4,Win32,143.9263097,Chrome,1080,1920,,,,,0,1231,,,,,,,,,,,,,,,,,U,146,circle,1,0,,,,,,,,,,,,,,,,repeat,letter,lettRpt,f,0.6445,Hi,,,,,,5,,,,,,space,1.0079,low,0,0,0,0,1,,,,,,,,
298126,2022-12-04_17h52.51.798,vts_reward_expectancy_bt,2022.2.4,Win32,143.9263097,Chrome,1080,1920,,,,,1,1232,,,,,,,,,,,,,,,,,Y,132,hexagon,1,0,,,,,,,,,,,,,,,,repeat,letter,lettRpt,f,0.5422,Lo,,,,,,5,,,,,,,,low,1,0,1,0,1,,,,,,,,
298126,2022-12-04_17h52.51.798,vts_reward_expectancy_bt,2022.2.4,Win32,143.9263097,Chrome,1080,1920,,,,,1,1233,,,,,,,,,,,,,,,,,B,125,star,1,0,,,,,,,,,,,,,,,,switch,number,numSwt,j,0.6199,Hi,,,,,,5,,,,,,,,low,2,0,2,0,1,,,,,,,,
298126,2022-12-04_17h52.51.798,vts_reward_expectancy_bt,2022.2.4,Win32,143.9263097,Chrome,1080,1920,,,,,1,1234,,,,,,,,,,,,,,,,,S,167,triangle,1,0,,,,,,,,,,,,,,,,switch,letter,lettSwt,f,0.6294,Lo,,,,,,5,,,,,,,,low,3,0,3,0,1,,,,,,,,
298126,2022-12-04_17h52.51.798,vts_reward_expectancy_bt,2022.2.4,Win32,143.9263097,Chrome,1080,1920,,,,,0,1234,,,,,,,,,,,,,,,,,W,160,circle,1,0,,,,,,,,,,,,,,,,repeat,letter,lettRpt,f,0.6453,Hi,,,,,,5,,,,,,,,low,4,0,4,0,1,,,,,,,,
298126,2022-12-04_17h52.51.798,vts_reward_expectancy_bt,2022.2.4,Win32,143.9263097,Chrome,1080,1920,,,,,0,1234,,,,,,,,,,,,,,,,,H,181,hexagon,0,0,,,,,,,,,,,,,,,,repeat,letter,NA,f,0.7866,Hi,,,,,,5,,,,,,,,low,5,0,5,0,1,,,,,,,,
298126,2022-12-04_17h52.51.798,vts_reward_expectancy_bt,2022.2.4,Win32,143.9263097,Chrome,1080,1920,,,,,10,1244,,,,,,,,,,,,,,,,,D,139,star,1,1,,,,,,,,,,,,,,,,switch,number,numSwt,j,0.6251,Hi,,,,,,5,,,,,,,,low,6,0,6,0,1,,,,,,,,
298126,2022-12-04_17h52.51.798,vts_reward_expectancy_bt,2022.2.4,Win32,143.9263097,Chrome,1080,1920,,,,,1,1245,,,,,,,,,,,,,,,,,F,174,triangle,1,0,,,,,,,,,,,,,,,,repeat,number,numRpt,k,0.5231,Lo,,,,,,5,,,,,,,,low,7,0,7,0,1,,,,,,,,
298126,2022-12-04_17h52.51.798,vts_reward_expectancy_bt,2022.2.4,Win32,143.9263097,Chrome,1080,1920,,,,,1,1246,,,,,,,,,,,,,,,,,U,146,hexagon,1,0,,,,,,,,,,,,,,,,repeat,number,numRpt,j,0.8286,Lo,,,,,,5,,,,,,,,low,8,0,8,0,1,,,,,,,,
298126,2022-12-04_17h52.51.798,vts_reward_expectancy_bt,2022.2.4,Win32,143.9263097,Chrome,1080,1920,,,,,1,1247,,,,,,,,,,,,,,,,,Y,132,circle,1,0,,,,,,,,,,,,,,,,repeat,number,numRpt,j,0.5444,Hi,,,,,,5,,,,,,,,low,9,0,9,0,1,,,,,,,,
298126,2022-12-04_17h52.51.798,vts_reward_expectancy_bt,2022.2.4,Win32,143.9263097,Chrome,1080,1920,,,,,1,1248,,,,,,,,,,,,,,,,,B,125,triangle,1,0,,,,,,,,,,,,,,,,repeat,number,numRpt,j,0.5981,Lo,,,,,,5,,,,,,,,low,10,0,10,0,1,,,,,,,,
298126,2022-12-04_17h52.51.798,vts_reward_expectancy_bt,2022.2.4,Win32,143.9263097,Chrome,1080,1920,,,,,1,1249,,,,,,,,,,,,,,,,,S,167,star,1,0,,,,,,,,,,,,,,,,switch,letter,lettSwt,f,0.6585,Hi,,,,,,5,,,,,,,,low,11,0,11,0,1,,,,,,,,
298126,2022-12-04_17h52.51.798,vts_reward_expectancy_bt,2022.2.4,Win32,143.9263097,Chrome,1080,1920,,,,,1,1250,,,,,,,,,,,,,,,,,W,160,star,1,0,,,,,,,,,,,,,,,,repeat,letter,lettRpt,f,0.5104,Hi,,,,,,5,,,,,,,,low,12,0,12,0,1,,,,,,,,
298126,2022-12-04_17h52.51.798,vts_reward_expectancy_bt,2022.2.4,Win32,143.9263097,Chrome,1080,1920,,,,,1,1251,,,,,,,,,,,,,,,,,H,181,triangle,1,0,,,,,,,,,,,,,,,,repeat,letter,lettRpt,d,0.7933,Lo,,,,,,5,,,,,,,,low,13,0,13,0,1,,,,,,,,
298126,2022-12-04_17h52.51.798,vts_reward_expectancy_bt,2022.2.4,Win32,143.9263097,Chrome,1080,1920,,,,,1,1252,,,,,,,,,,,,,,,,,D,139,hexagon,1,0,,,,,,,,,,,,,,,,repeat,letter,lettRpt,d,0.7374,Lo,,,,,,5,,,,,,,,low,14,0,14,0,1,,,,,,,,
298126,2022-12-04_17h52.51.798,vts_reward_expectancy_bt,2022.2.4,Win32,143.9263097,Chrome,1080,1920,,,,,1,1253,,,,,,,,,,,,,,,,,F,174,circle,1,0,,,,,,,,,,,,,,,,switch,number,numSwt,k,0.5509,Hi,,,,,,5,,,,,,,,low,15,0,15,0,1,,,,,,,,
298126,2022-12-04_17h52.51.798,vts_reward_expectancy_bt,2022.2.4,Win32,143.9263097,Chrome,1080,1920,,,,,1,1254,,,,,,,,,,,,,,,,,W,174,hexagon,1,0,,,,,,,,,,,,,,,,repeat,number,numRpt,k,0.5475,Lo,,,,,,5,,,,,,,,low,16,0,16,0,1,,,,,,,,
298126,2022-12-04_17h52.51.798,vts_reward_expectancy_bt,2022.2.4,Win32,143.9263097,Chrome,1080,1920,,,,,10,1264,,,,,,,,,,,,,,,,,D,139,circle,1,0,,,,,,,,,,,,,,,,repeat,number,numRpt,j,0.6361,Hi,,,,,,5,,,,,,,,low,17,0,17,0,1,,,,,,,,
298126,2022-12-04_17h52.51.798,vts_reward_expectancy_bt,2022.2.4,Win32,143.9263097,Chrome,1080,1920,,,,,10,1274,,,,,,,,,,,,,,,,,H,181,triangle,1,0,,,,,,,,,,,,,,,,switch,letter,lettSwt,d,0.7216,Lo,,,,,,5,,,,,,,,low,18,0,18,0,1,,,,,,,,
298126,2022-12-04_17h52.51.798,vts_reward_expectancy_bt,2022.2.4,Win32,143.9263097,Chrome,1080,1920,,,,,0,1274,,,,,,,,,,,,,,,,,S,167,star,1,0,,,,,,,,,,,,,,,,repeat,letter,lettRpt,f,0.9,Hi,,,,,,5,,,,,,,,low,19,0,19,0,1,,,,,,,,
298126,2022-12-04_17h52.51.798,vts_reward_expectancy_bt,2022.2.4,Win32,143.9263097,Chrome,1080,1920,,,,,10,1284,,,,,,,,,,,,,,,,,B,146,hexagon,1,0,,,,,,,,,,,,,,,,repeat,letter,lettRpt,d,0.5987,Lo,,,,,,5,,,,,,,,low,20,0,20,0,1,,,,,,,,
298126,2022-12-04_17h52.51.798,vts_reward_expectancy_bt,2022.2.4,Win32,143.9263097,Chrome,1080,1920,,,,,0,1284,,,,,,,,,,,,,,,,,U,160,star,1,0,,,,,,,,,,,,,,,,repeat,letter,lettRpt,f,0.626,Hi,,,,,,5,,,,,,,,low,21,0,21,0,1,,,,,,,,
298126,2022-12-04_17h52.51.798,vts_reward_expectancy_bt,2022.2.4,Win32,143.9263097,Chrome,1080,1920,,,,,0,1284,,,,,,,,,,,,,,,,,F,125,circle,1,0,,,,,,,,,,,,,,,,repeat,letter,lettRpt,d,0.6271,Hi,,,,,,5,,,,,,,,low,22,0,22,0,1,,,,,,,,
298126,2022-12-04_17h52.51.798,vts_reward_expectancy_bt,2022.2.4,Win32,143.9263097,Chrome,1080,1920,,,,,10,1294,,,,,,,,,,,,,,,,,Y,132,triangle,1,0,,,,,,,,,,,,,,,,repeat,letter,lettRpt,f,0.5909,Lo,,,,,,5,,,,,,,,low,23,0,23,0,1,,,,,,,,
298126,2022-12-04_17h52.51.798,vts_reward_expectancy_bt,2022.2.4,Win32,143.9263097,Chrome,1080,1920,,,,,0,1294,,,,,,,,,,,,,,,,,U,125,circle,1,0,,,,,,,,,,,,,,,,repeat,letter,lettRpt,f,0.6638,Hi,,,,,,5,,,,,,,,low,24,0,24,0,1,,,,,,,,
298126,2022-12-04_17h52.51.798,vts_reward_expectancy_bt,2022.2.4,Win32,143.9263097,Chrome,1080,1920,,,,,0,1294,,,,,,,,,,,,,,,,,H,181,star,1,0,,,,,,,,,,,,,,,,repeat,letter,lettRpt,d,0.8433,Hi,,,,,,5,,,,,,,,low,25,0,25,0,1,,,,,,,,
298126,2022-12-04_17h52.51.798,vts_reward_expectancy_bt,2022.2.4,Win32,143.9263097,Chrome,1080,1920,,,,,10,1304,,,,,,,,,,,,,,,,,D,132,triangle,1,0,,,,,,,,,,,,,,,,switch,number,numSwt,j,0.7212,Lo,,,,,,5,,,,,,,,low,26,0,26,0,1,,,,,,,,
298126,2022-12-04_17h52.51.798,vts_reward_expectancy_bt,2022.2.4,Win32,143.9263097,Chrome,1080,1920,,,,,10,1314,,,,,,,,,,,,,,,,,S,174,hexagon,1,0,,,,,,,,,,,,,,,,switch,letter,lettSwt,f,1.0277,Lo,,,,,,5,,,,,,,,low,27,0,27,0,1,,,,,,,,
298126,2022-12-04_17h52.51.798,vts_reward_expectancy_bt,2022.2.4,Win32,143.9263097,Chrome,1080,1920,,,,,0,1314,,,,,,,,,,,,,,,,,Y,139,star,1,0,,,,,,,,,,,,,,,,repeat,letter,lettRpt,f,0.7082,Hi,,,,,,5,,,,,,,,low,28,0,28,0,1,,,,,,,,
298126,2022-12-04_17h52.51.798,vts_reward_expectancy_bt,2022.2.4,Win32,143.9263097,Chrome,1080,1920,,,,,10,1324,,,,,,,,,,,,,,,,,B,160,triangle,1,0,,,,,,,,,,,,,,,,repeat,letter,lettRpt,d,0.7338,Lo,,,,,,5,,,,,,,,low,29,0,29,0,1,,,,,,,,
298126,2022-12-04_17h52.51.798,vts_reward_expectancy_bt,2022.2.4,Win32,143.9263097,Chrome,1080,1920,,,,,1,1325,,,,,,,,,,,,,,,,,F,146,hexagon,1,0,,,,,,,,,,,,,,,,repeat,letter,lettRpt,d,0.7789,Lo,,,,,,5,,,,,,,,low,30,0,30,0,1,,,,,,,,
298126,2022-12-04_17h52.51.798,vts_reward_expectancy_bt,2022.2.4,Win32,143.9263097,Chrome,1080,1920,,,,,0,1325,,,,,,,,,,,,,,,,,W,167,circle,1,0,,,,,,,,,,,,,,,,repeat,letter,lettRpt,f,0.7018,Hi,,,,,,5,,,,,,,,low,31,0,31,0,1,,,,,,,,
298126,2022-12-04_17h52.51.798,vts_reward_expectancy_bt,2022.2.4,Win32,143.9263097,Chrome,1080,1920,,,,,1,1326,,,,,,,,,,,,,,,,,B,139,circle,1,0,,,,,,,,,,,,,,,,repeat,letter,lettRpt,d,0.6281,Hi,,,,,,6,,,,,,space,1.0623,low,0,0,0,0,1,,,,,,,,
298126,2022-12-04_17h52.51.798,vts_reward_expectancy_bt,2022.2.4,Win32,143.9263097,Chrome,1080,1920,,,,,10,1336,,,,,,,,,,,,,,,,,Y,160,hexagon,1,0,,,,,,,,,,,,,,,,switch,number,numSwt,k,0.709,Lo,,,,,,6,,,,,,,,low,1,0,1,0,1,,,,,,,,
298126,2022-12-04_17h52.51.798,vts_reward_expectancy_bt,2022.2.4,Win32,143.9263097,Chrome,1080,1920,,,,,1,1337,,,,,,,,,,,,,,,,,W,146,triangle,1,0,,,,,,,,,,,,,,,,repeat,number,numRpt,j,0.5946,Lo,,,,,,6,,,,,,,,low,2,0,2,0,1,,,,,,,,
298126,2022-12-04_17h52.51.798,vts_reward_expectancy_bt,2022.2.4,Win32,143.9263097,Chrome,1080,1920,,,,,0,1337,,,,,,,,,,,,,,,,,D,174,star,1,0,,,,,,,,,,,,,,,,repeat,number,numRpt,k,0.5742,Hi,,,,,,6,,,,,,,,low,3,0,3,0,1,,,,,,,,
298126,2022-12-04_17h52.51.798,vts_reward_expectancy_bt,2022.2.4,Win32,143.9263097,Chrome,1080,1920,,,,,0,1337,,,,,,,,,,,,,,,,,F,167,circle,1,0,,,,,,,,,,,,,,,,switch,letter,lettSwt,d,0.7872,Hi,,,,,,6,,,,,,,,low,4,0,4,0,1,,,,,,,,
298126,2022-12-04_17h52.51.798,vts_reward_expectancy_bt,2022.2.4,Win32,143.9263097,Chrome,1080,1920,,,,,1,1338,,,,,,,,,,,,,,,,,U,125,hexagon,1,0,,,,,,,,,,,,,,,,repeat,letter,lettRpt,f,0.8398,Lo,,,,,,6,,,,,,,,low,5,0,5,0,1,,,,,,,,
298126,2022-12-04_17h52.51.798,vts_reward_expectancy_bt,2022.2.4,Win32,143.9263097,Chrome,1080,1920,,,,,1,1339,,,,,,,,,,,,,,,,,S,132,triangle,1,0,,,,,,,,,,,,,,,,repeat,letter,lettRpt,f,0.7729,Lo,,,,,,6,,,,,,,,low,6,0,6,0,1,,,,,,,,
298126,2022-12-04_17h52.51.798,vts_reward_expectancy_bt,2022.2.4,Win32,143.9263097,Chrome,1080,1920,,,,,0,1339,,,,,,,,,,,,,,,,,H,181,star,0,0,,,,,,,,,,,,,,,,repeat,letter,NA,f,0.8535,Lo,,,,,,6,,,,,,,,low,7,0,7,0,1,,,,,,,,
298126,2022-12-04_17h52.51.798,vts_reward_expectancy_bt,2022.2.4,Win32,143.9263097,Chrome,1080,1920,,,,,1,1340,,,,,,,,,,,,,,,,,B,139,hexagon,1,1,,,,,,,,,,,,,,,,repeat,letter,lettRpt,d,0.5891,Lo,,,,,,6,,,,,,,,low,8,0,8,0,1,,,,,,,,
298126,2022-12-04_17h52.51.798,vts_reward_expectancy_bt,2022.2.4,Win32,143.9263097,Chrome,1080,1920,,,,,0,1340,,,,,,,,,,,,,,,,,Y,160,star,1,0,,,,,,,,,,,,,,,,repeat,letter,lettRpt,f,0.8817,Hi,,,,,,6,,,,,,,,low,9,0,9,0,1,,,,,,,,
298126,2022-12-04_17h52.51.798,vts_reward_expectancy_bt,2022.2.4,Win32,143.9263097,Chrome,1080,1920,,,,,10,1350,,,,,,,,,,,,,,,,,W,146,triangle,1,0,,,,,,,,,,,,,,,,switch,number,numSwt,j,0.7538,Lo,,,,,,6,,,,,,,,low,10,0,10,0,1,,,,,,,,
298126,2022-12-04_17h52.51.798,vts_reward_expectancy_bt,2022.2.4,Win32,143.9263097,Chrome,1080,1920,,,,,0,1350,,,,,,,,,,,,,,,,,D,174,circle,1,0,,,,,,,,,,,,,,,,repeat,number,numRpt,k,0.6307,Hi,,,,,,6,,,,,,,,low,11,0,11,0,1,,,,,,,,
298126,2022-12-04_17h52.51.798,vts_reward_expectancy_bt,2022.2.4,Win32,143.9263097,Chrome,1080,1920,,,,,10,1360,,,,,,,,,,,,,,,,,F,167,hexagon,1,0,,,,,,,,,,,,,,,,switch,letter,lettSwt,d,0.7714,Lo,,,,,,6,,,,,,,,low,12,0,12,0,1,,,,,,,,
298126,2022-12-04_17h52.51.798,vts_reward_expectancy_bt,2022.2.4,Win32,143.9263097,Chrome,1080,1920,,,,,0,1360,,,,,,,,,,,,,,,,,U,125,circle,1,0,,,,,,,,,,,,,,,,repeat,letter,lettRpt,f,0.7162,Hi,,,,,,6,,,,,,,,low,13,0,13,0,1,,,,,,,,
298126,2022-12-04_17h52.51.798,vts_reward_expectancy_bt,2022.2.4,Win32,143.9263097,Chrome,1080,1920,,,,,0,1360,,,,,,,,,,,,,,,,,S,132,star,1,0,,,,,,,,,,,,,,,,repeat,letter,lettRpt,f,0.8672,Hi,,,,,,6,,,,,,,,low,14,0,14,0,1,,,,,,,,
298126,2022-12-04_17h52.51.798,vts_reward_expectancy_bt,2022.2.4,Win32,143.9263097,Chrome,1080,1920,,,,,1,1361,,,,,,,,,,,,,,,,,H,181,triangle,1,0,,,,,,,,,,,,,,,,repeat,letter,lettRpt,d,0.7706,Lo,,,,,,6,,,,,,,,low,15,0,15,0,1,,,,,,,,
