participant,date,expName,psychopyVersion,OS,frameRate,browser,xResolution,yResolution,key_resp.keys,key_resp.rt,training_resp.keys,training_resp.rt,points_trial,points_cumul,trainBlock,training.thisRepN,training.thisTrialN,training.thisN,training.thisIndex,training.ran,LTriangleOpac,LCircleOpac,LHexagonOpac,LStarOpac,RTriangleOpac,RCircleOpac,RHexagonOpac,RStarOpac,LShape_ID,RShape_ID,curr_topStim,curr_bottStim,curr_shape,acc,E1,target_resp_prac1.keys,target_resp_prac1.rt,pracBlock,task1_prac_trials.thisRepN,task1_prac_trials.thisTrialN,task1_prac_trials.thisN,task1_prac_trials.thisIndex,task1_prac_trials.ran,target_resp_prac2.keys,target_resp_prac2.rt,task2_praac_trials.thisRepN,task2_praac_trials.thisTrialN,task2_praac_trials.thisN,task2_praac_trials.thisIndex,task2_praac_trials.ran,alt,task,condition,target_resp.keys,target_resp.rt,rewCond,vts_practice_trials.thisRepN,vts_practice_trials.thisTrialN,vts_practice_trials.thisN,vts_practice_trials.thisIndex,vts_practice_trials.ran,blockNum,trials_norew.thisRepN,trials_norew.thisTrialN,trials_norew.thisN,trials_norew.thisIndex,trials_norew.ran,key_resp_2.keys,key_resp_2.rt,rewExpectancy,trials_rew.thisRepN,trials_rew.thisTrialN,trials_rew.thisN,trials_rew.thisIndex,trials_rew.ran,Q1,Q2,Q2_text,Q3,Q4,Q5_text,Q5,xRes,yRes
298198,2022-11-16_11h54.27.760,vts_reward_expectancy_bt,2022.2.4,MacIntel,60.0024001,Chrome,1440,900,,,,,,,,,,,,,,,,,,,,,,,,,,,,,,,,,,,,,,,,,,,,,,,,,,,,,,,,,,,,,,,,,,,,,,,,,,,,
298198,2022-11-16_11h54.27.760,vts_reward_expectancy_bt,2022.2.4,MacIntel,60.0024001,Chrome,1440,900,space,20.6763,,,,,,,,,,,,,,,,,,,,,,,,,,,,,,,,,,,,,,,,,,,,,,,,,,,,,,,,,,,,,,,,,,,,,,,,,,
298198,2022-11-16_11h54.27.760,vts_reward_expectancy_bt,2022.2.4,MacIntel,60.0024001,Chrome,1440,900,,,,,,,,,,,,,,,,,,,,,,,,,,,,,,,,,,,,,,,,,,,,,,,,,,,,,,,,,,,,,,,,,,,,,,,,,,,,
298198,2022-11-16_11h54.27.760,vts_reward_expectancy_bt,2022.2.4,MacIntel,60.0024001,Chrome,1440,900,,,l,3.7041,1,1,0,0,0,0,9,1,0,0,0,1,1,0,0,0,star,triangle,,,,,,,,,,,,,,,,,,,,,,,,,,,,,,,,,,,,,,,,,,,,,,,,,,,,,,
298198,2022-11-16_11h54.27.760,vts_reward_expectancy_bt,2022.2.4,MacIntel,60.0024001,Chrome,1440,900,,,l,2.1994,10,11,0,0,1,1,10,1,0,0,0,1,0,1,0,0,star ,circle,,,,,,,,,,,,,,,,,,,,,,,,,,,,,,,,,,,,,,,,,,,,,,,,,,,,,,
298198,2022-11-16_11h54.27.760,vts_reward_expectancy_bt,2022.2.4,MacIntel,60.0024001,Chrome,1440,900,,,a,5.7023,1,12,0,0,2,2,1,1,1,0,0,0,0,0,1,0,triangle,hexagon,,,,,,,,,,,,,,,,,,,,,,,,,,,,,,,,,,,,,,,,,,,,,,,,,,,,,,
298198,2022-11-16_11h54.27.760,vts_reward_expectancy_bt,2022.2.4,MacIntel,60.0024001,Chrome,1440,900,,,l,1.4813,10,22,0,0,3,3,8,1,0,0,1,0,0,0,0,1,hexagon,star,,,,,,,,,,,,,,,,,,,,,,,,,,,,,,,,,,,,,,,,,,,,,,,,,,,,,,
298198,2022-11-16_11h54.27.760,vts_reward_expectancy_bt,2022.2.4,MacIntel,60.0024001,Chrome,1440,900,,,a,1.367,10,32,0,0,4,4,2,1,1,0,0,0,0,0,0,1,triangle,star,,,,,,,,,,,,,,,,,,,,,,,,,,,,,,,,,,,,,,,,,,,,,,,,,,,,,,
298198,2022-11-16_11h54.27.760,vts_reward_expectancy_bt,2022.2.4,MacIntel,60.0024001,Chrome,1440,900,,,a,1.3524,10,42,0,0,5,5,6,1,0,0,1,0,1,0,0,0,hexagon,triangle,,,,,,,,,,,,,,,,,,,,,,,,,,,,,,,,,,,,,,,,,,,,,,,,,,,,,,
298198,2022-11-16_11h54.27.760,vts_reward_expectancy_bt,2022.2.4,MacIntel,60.0024001,Chrome,1440,900,,,a,1.1331,1,43,0,0,6,6,11,1,0,0,0,1,0,0,1,0,star,hexagon,,,,,,,,,,,,,,,,,,,,,,,,,,,,,,,,,,,,,,,,,,,,,,,,,,,,,,
298198,2022-11-16_11h54.27.760,vts_reward_expectancy_bt,2022.2.4,MacIntel,60.0024001,Chrome,1440,900,,,l,1.2084,10,53,0,0,7,7,4,1,0,1,0,0,0,0,1,0,circle,hexagon,,,,,,,,,,,,,,,,,,,,,,,,,,,,,,,,,,,,,,,,,,,,,,,,,,,,,,
298198,2022-11-16_11h54.27.760,vts_reward_expectancy_bt,2022.2.4,MacIntel,60.0024001,Chrome,1440,900,,,l,1.7691,1,54,0,0,8,8,5,1,0,1,0,0,0,0,0,1,circle,star,,,,,,,,,,,,,,,,,,,,,,,,,,,,,,,,,,,,,,,,,,,,,,,,,,,,,,
298198,2022-11-16_11h54.27.760,vts_reward_expectancy_bt,2022.2.4,MacIntel,60.0024001,Chrome,1440,900,,,l,1.7632,1,55,0,0,9,9,0,1,1,0,0,0,0,1,0,0,triangle,circle,,,,,,,,,,,,,,,,,,,,,,,,,,,,,,,,,,,,,,,,,,,,,,,,,,,,,,
298198,2022-11-16_11h54.27.760,vts_reward_expectancy_bt,2022.2.4,MacIntel,60.0024001,Chrome,1440,900,,,a,2.032,10,65,0,0,10,10,3,1,0,1,0,0,1,0,0,0,circle,triangle,,,,,,,,,,,,,,,,,,,,,,,,,,,,,,,,,,,,,,,,,,,,,,,,,,,,,,
298198,2022-11-16_11h54.27.760,vts_reward_expectancy_bt,2022.2.4,MacIntel,60.0024001,Chrome,1440,900,,,a,1.0163,1,66,0,0,11,11,7,1,0,0,1,0,0,1,0,0,hexagon,circle,,,,,,,,,,,,,,,,,,,,,,,,,,,,,,,,,,,,,,,,,,,,,,,,,,,,,,
298198,2022-11-16_11h54.27.760,vts_reward_expectancy_bt,2022.2.4,MacIntel,60.0024001,Chrome,1440,900,,,l,1.4716,10,76,0,1,0,12,3,1,0,1,0,0,1,0,0,0,circle,triangle,,,,,,,,,,,,,,,,,,,,,,,,,,,,,,,,,,,,,,,,,,,,,,,,,,,,,,
298198,2022-11-16_11h54.27.760,vts_reward_expectancy_bt,2022.2.4,MacIntel,60.0024001,Chrome,1440,900,,,a,1.0008,10,86,0,1,1,13,10,1,0,0,0,1,0,1,0,0,star ,circle,,,,,,,,,,,,,,,,,,,,,,,,,,,,,,,,,,,,,,,,,,,,,,,,,,,,,,
298198,2022-11-16_11h54.27.760,vts_reward_expectancy_bt,2022.2.4,MacIntel,60.0024001,Chrome,1440,900,,,l,1.482,1,87,0,1,2,14,11,1,0,0,0,1,0,0,1,0,star,hexagon,,,,,,,,,,,,,,,,,,,,,,,,,,,,,,,,,,,,,,,,,,,,,,,,,,,,,,
298198,2022-11-16_11h54.27.760,vts_reward_expectancy_bt,2022.2.4,MacIntel,60.0024001,Chrome,1440,900,,,l,1.4053,1,88,0,1,3,15,2,1,1,0,0,0,0,0,0,1,triangle,star,,,,,,,,,,,,,,,,,,,,,,,,,,,,,,,,,,,,,,,,,,,,,,,,,,,,,,
298198,2022-11-16_11h54.27.760,vts_reward_expectancy_bt,2022.2.4,MacIntel,60.0024001,Chrome,1440,900,,,a,0.8131,10,98,0,1,4,16,5,1,0,1,0,0,0,0,0,1,circle,star,,,,,,,,,,,,,,,,,,,,,,,,,,,,,,,,,,,,,,,,,,,,,,,,,,,,,,
298198,2022-11-16_11h54.27.760,vts_reward_expectancy_bt,2022.2.4,MacIntel,60.0024001,Chrome,1440,900,,,l,0.8389,1,99,0,1,5,17,8,1,0,0,1,0,0,0,0,1,hexagon,star,,,,,,,,,,,,,,,,,,,,,,,,,,,,,,,,,,,,,,,,,,,,,,,,,,,,,,
298198,2022-11-16_11h54.27.760,vts_reward_expectancy_bt,2022.2.4,MacIntel,60.0024001,Chrome,1440,900,,,a,0.6559,1,100,0,1,6,18,0,1,1,0,0,0,0,1,0,0,triangle,circle,,,,,,,,,,,,,,,,,,,,,,,,,,,,,,,,,,,,,,,,,,,,,,,,,,,,,,
298198,2022-11-16_11h54.27.760,vts_reward_expectancy_bt,2022.2.4,MacIntel,60.0024001,Chrome,1440,900,,,a,0.5204,1,101,0,1,7,19,9,1,0,0,0,1,1,0,0,0,star,triangle,,,,,,,,,,,,,,,,,,,,,,,,,,,,,,,,,,,,,,,,,,,,,,,,,,,,,,
298198,2022-11-16_11h54.27.760,vts_reward_expectancy_bt,2022.2.4,MacIntel,60.0024001,Chrome,1440,900,,,l,0.6534,1,102,0,1,8,20,4,1,0,1,0,0,0,0,1,0,circle,hexagon,,,,,,,,,,,,,,,,,,,,,,,,,,,,,,,,,,,,,,,,,,,,,,,,,,,,,,
298198,2022-11-16_11h54.27.760,vts_reward_expectancy_bt,2022.2.4,MacIntel,60.0024001,Chrome,1440,900,,,a,0.8115,1,103,0,1,9,21,7,1,0,0,1,0,0,1,0,0,hexagon,circle,,,,,,,,,,,,,,,,,,,,,,,,,,,,,,,,,,,,,,,,,,,,,,,,,,,,,,
298198,2022-11-16_11h54.27.760,vts_reward_expectancy_bt,2022.2.4,MacIntel,60.0024001,Chrome,1440,900,,,l,0.9657,1,104,0,1,10,22,1,1,1,0,0,0,0,0,1,0,triangle,hexagon,,,,,,,,,,,,,,,,,,,,,,,,,,,,,,,,,,,,,,,,,,,,,,,,,,,,,,
298198,2022-11-16_11h54.27.760,vts_reward_expectancy_bt,2022.2.4,MacIntel,60.0024001,Chrome,1440,900,,,l,1.0033,10,114,0,1,11,23,6,1,0,0,1,0,1,0,0,0,hexagon,triangle,,,,,,,,,,,,,,,,,,,,,,,,,,,,,,,,,,,,,,,,,,,,,,,,,,,,,,
298198,2022-11-16_11h54.27.760,vts_reward_expectancy_bt,2022.2.4,MacIntel,60.0024001,Chrome,1440,900,,,l,5.153,10,124,0,2,0,24,7,1,0,0,1,0,0,1,0,0,hexagon,circle,,,,,,,,,,,,,,,,,,,,,,,,,,,,,,,,,,,,,,,,,,,,,,,,,,,,,,
298198,2022-11-16_11h54.27.760,vts_reward_expectancy_bt,2022.2.4,MacIntel,60.0024001,Chrome,1440,900,,,a,1.4047,10,134,0,2,1,25,8,1,0,0,1,0,0,0,0,1,hexagon,star,,,,,,,,,,,,,,,,,,,,,,,,,,,,,,,,,,,,,,,,,,,,,,,,,,,,,,
298198,2022-11-16_11h54.27.760,vts_reward_expectancy_bt,2022.2.4,MacIntel,60.0024001,Chrome,1440,900,,,l,1.0242,1,135,0,2,2,26,5,1,0,1,0,0,0,0,0,1,circle,star,,,,,,,,,,,,,,,,,,,,,,,,,,,,,,,,,,,,,,,,,,,,,,,,,,,,,,
298198,2022-11-16_11h54.27.760,vts_reward_expectancy_bt,2022.2.4,MacIntel,60.0024001,Chrome,1440,900,,,a,0.6169,1,136,0,2,3,27,10,1,0,0,0,1,0,1,0,0,star ,circle,,,,,,,,,,,,,,,,,,,,,,,,,,,,,,,,,,,,,,,,,,,,,,,,,,,,,,
298198,2022-11-16_11h54.27.760,vts_reward_expectancy_bt,2022.2.4,MacIntel,60.0024001,Chrome,1440,900,,,l,1.2957,10,146,0,2,4,28,4,1,0,1,0,0,0,0,1,0,circle,hexagon,,,,,,,,,,,,,,,,,,,,,,,,,,,,,,,,,,,,,,,,,,,,,,,,,,,,,,
298198,2022-11-16_11h54.27.760,vts_reward_expectancy_bt,2022.2.4,MacIntel,60.0024001,Chrome,1440,900,,,a,0.889,1,147,0,2,5,29,9,1,0,0,0,1,1,0,0,0,star,triangle,,,,,,,,,,,,,,,,,,,,,,,,,,,,,,,,,,,,,,,,,,,,,,,,,,,,,,
298198,2022-11-16_11h54.27.760,vts_reward_expectancy_bt,2022.2.4,MacIntel,60.0024001,Chrome,1440,900,,,a,0.8906,1,148,0,2,6,30,6,1,0,0,1,0,1,0,0,0,hexagon,triangle,,,,,,,,,,,,,,,,,,,,,,,,,,,,,,,,,,,,,,,,,,,,,,,,,,,,,,
298198,2022-11-16_11h54.27.760,vts_reward_expectancy_bt,2022.2.4,MacIntel,60.0024001,Chrome,1440,900,,,l,3.1993,10,158,0,2,7,31,1,1,1,0,0,0,0,0,1,0,triangle,hexagon,,,,,,,,,,,,,,,,,,,,,,,,,,,,,,,,,,,,,,,,,,,,,,,,,,,,,,
298198,2022-11-16_11h54.27.760,vts_reward_expectancy_bt,2022.2.4,MacIntel,60.0024001,Chrome,1440,900,,,a,1.2699,10,168,0,2,8,32,3,1,0,1,0,0,1,0,0,0,circle,triangle,,,,,,,,,,,,,,,,,,,,,,,,,,,,,,,,,,,,,,,,,,,,,,,,,,,,,,
298198,2022-11-16_11h54.27.760,vts_reward_expectancy_bt,2022.2.4,MacIntel,60.0024001,Chrome,1440,900,,,l,0.6306,1,169,0,2,9,33,0,1,1,0,0,0,0,1,0,0,triangle,circle,,,,,,,,,,,,,,,,,,,,,,,,,,,,,,,,,,,,,,,,,,,,,,,,,,,,,,
298198,2022-11-16_11h54.27.760,vts_reward_expectancy_bt,2022.2.4,MacIntel,60.0024001,Chrome,1440,900,,,a,0.5404,1,170,0,2,10,34,11,1,0,0,0,1,0,0,1,0,star,hexagon,,,,,,,,,,,,,,,,,,,,,,,,,,,,,,,,,,,,,,,,,,,,,,,,,,,,,,
298198,2022-11-16_11h54.27.760,vts_reward_expectancy_bt,2022.2.4,MacIntel,60.0024001,Chrome,1440,900,,,l,0.7245,1,171,0,2,11,35,2,1,1,0,0,0,0,0,0,1,triangle,star,,,,,,,,,,,,,,,,,,,,,,,,,,,,,,,,,,,,,,,,,,,,,,,,,,,,,,
298198,2022-11-16_11h54.27.760,vts_reward_expectancy_bt,2022.2.4,MacIntel,60.0024001,Chrome,1440,900,,,l,1.1623,1,172,1,0,0,0,4,1,0,1,0,0,0,0,1,0,circle,hexagon,,,,,,,,,,,,,,,,,,,,,,,,,,,,,,,,,,,,,,,,,,,,,,,,,,,,,,
298198,2022-11-16_11h54.27.760,vts_reward_expectancy_bt,2022.2.4,MacIntel,60.0024001,Chrome,1440,900,,,a,7.2373,10,182,1,0,1,1,9,1,0,0,0,1,1,0,0,0,star,triangle,,,,,,,,,,,,,,,,,,,,,,,,,,,,,,,,,,,,,,,,,,,,,,,,,,,,,,
298198,2022-11-16_11h54.27.760,vts_reward_expectancy_bt,2022.2.4,MacIntel,60.0024001,Chrome,1440,900,,,l,1.0265,10,192,1,0,2,2,7,1,0,0,1,0,0,1,0,0,hexagon,circle,,,,,,,,,,,,,,,,,,,,,,,,,,,,,,,,,,,,,,,,,,,,,,,,,,,,,,
298198,2022-11-16_11h54.27.760,vts_reward_expectancy_bt,2022.2.4,MacIntel,60.0024001,Chrome,1440,900,,,l,3.0894,10,202,1,0,3,3,11,1,0,0,0,1,0,0,1,0,star,hexagon,,,,,,,,,,,,,,,,,,,,,,,,,,,,,,,,,,,,,,,,,,,,,,,,,,,,,,
298198,2022-11-16_11h54.27.760,vts_reward_expectancy_bt,2022.2.4,MacIntel,60.0024001,Chrome,1440,900,,,a,9.2505,1,203,1,0,4,4,0,1,1,0,0,0,0,1,0,0,triangle,circle,,,,,,,,,,,,,,,,,,,,,,,,,,,,,,,,,,,,,,,,,,,,,,,,,,,,,,
298198,2022-11-16_11h54.27.760,vts_reward_expectancy_bt,2022.2.4,MacIntel,60.0024001,Chrome,1440,900,,,l,0.6112,10,213,1,0,5,5,3,1,0,1,0,0,1,0,0,0,circle,triangle,,,,,,,,,,,,,,,,,,,,,,,,,,,,,,,,,,,,,,,,,,,,,,,,,,,,,,
298198,2022-11-16_11h54.27.760,vts_reward_expectancy_bt,2022.2.4,MacIntel,60.0024001,Chrome,1440,900,,,l,0.899,1,214,1,0,6,6,10,1,0,0,0,1,0,1,0,0,star ,circle,,,,,,,,,,,,,,,,,,,,,,,,,,,,,,,,,,,,,,,,,,,,,,,,,,,,,,
298198,2022-11-16_11h54.27.760,vts_reward_expectancy_bt,2022.2.4,MacIntel,60.0024001,Chrome,1440,900,,,l,0.7882,1,215,1,0,7,7,1,1,1,0,0,0,0,0,1,0,triangle,hexagon,,,,,,,,,,,,,,,,,,,,,,,,,,,,,,,,,,,,,,,,,,,,,,,,,,,,,,
298198,2022-11-16_11h54.27.760,vts_reward_expectancy_bt,2022.2.4,MacIntel,60.0024001,Chrome,1440,900,,,a,0.3642,10,225,1,0,8,8,6,1,0,0,1,0,1,0,0,0,hexagon,triangle,,,,,,,,,,,,,,,,,,,,,,,,,,,,,,,,,,,,,,,,,,,,,,,,,,,,,,
298198,2022-11-16_11h54.27.760,vts_reward_expectancy_bt,2022.2.4,MacIntel,60.0024001,Chrome,1440,900,,,l,0.7982,10,235,1,0,9,9,2,1,1,0,0,0,0,0,0,1,triangle,star,,,,,,,,,,,,,,,,,,,,,,,,,,,,,,,,,,,,,,,,,,,,,,,,,,,,,,
298198,2022-11-16_11h54.27.760,vts_reward_expectancy_bt,2022.2.4,MacIntel,60.0024001,Chrome,1440,900,,,a,0.9353,1,236,1,0,10,10,8,1,0,0,1,0,0,0,0,1,hexagon,star,,,,,,,,,,,,,,,,,,,,,,,,,,,,,,,,,,,,,,,,,,,,,,,,,,,,,,
298198,2022-11-16_11h54.27.760,vts_reward_expectancy_bt,2022.2.4,MacIntel,60.0024001,Chrome,1440,900,,,l,0.4539,1,237,1,0,11,11,5,1,0,1,0,0,0,0,0,1,circle,star,,,,,,,,,,,,,,,,,,,,,,,,,,,,,,,,,,,,,,,,,,,,,,,,,,,,,,
298198,2022-11-16_11h54.27.760,vts_reward_expectancy_bt,2022.2.4,MacIntel,60.0024001,Chrome,1440,900,,,l,0.6845,10,247,1,1,0,12,6,1,0,0,1,0,1,0,0,0,hexagon,triangle,,,,,,,,,,,,,,,,,,,,,,,,,,,,,,,,,,,,,,,,,,,,,,,,,,,,,,
298198,2022-11-16_11h54.27.760,vts_reward_expectancy_bt,2022.2.4,MacIntel,60.0024001,Chrome,1440,900,,,a,0.6873,1,248,1,1,1,13,11,1,0,0,0,1,0,0,1,0,star,hexagon,,,,,,,,,,,,,,,,,,,,,,,,,,,,,,,,,,,,,,,,,,,,,,,,,,,,,,
298198,2022-11-16_11h54.27.760,vts_reward_expectancy_bt,2022.2.4,MacIntel,60.0024001,Chrome,1440,900,,,l,0.7382,10,258,1,1,2,14,10,1,0,0,0,1,0,1,0,0,star ,circle,,,,,,,,,,,,,,,,,,,,,,,,,,,,,,,,,,,,,,,,,,,,,,,,,,,,,,
298198,2022-11-16_11h54.27.760,vts_reward_expectancy_bt,2022.2.4,MacIntel,60.0024001,Chrome,1440,900,,,a,1.2814,1,259,1,1,3,15,2,1,1,0,0,0,0,0,0,1,triangle,star,,,,,,,,,,,,,,,,,,,,,,,,,,,,,,,,,,,,,,,,,,,,,,,,,,,,,,
298198,2022-11-16_11h54.27.760,vts_reward_expectancy_bt,2022.2.4,MacIntel,60.0024001,Chrome,1440,900,,,l,0.5663,1,260,1,1,4,16,1,1,1,0,0,0,0,0,1,0,triangle,hexagon,,,,,,,,,,,,,,,,,,,,,,,,,,,,,,,,,,,,,,,,,,,,,,,,,,,,,,
298198,2022-11-16_11h54.27.760,vts_reward_expectancy_bt,2022.2.4,MacIntel,60.0024001,Chrome,1440,900,,,a,0.5642,10,270,1,1,5,17,3,1,0,1,0,0,1,0,0,0,circle,triangle,,,,,,,,,,,,,,,,,,,,,,,,,,,,,,,,,,,,,,,,,,,,,,,,,,,,,,
298198,2022-11-16_11h54.27.760,vts_reward_expectancy_bt,2022.2.4,MacIntel,60.0024001,Chrome,1440,900,,,a,1.1745,10,280,1,1,6,18,8,1,0,0,1,0,0,0,0,1,hexagon,star,,,,,,,,,,,,,,,,,,,,,,,,,,,,,,,,,,,,,,,,,,,,,,,,,,,,,,
298198,2022-11-16_11h54.27.760,vts_reward_expectancy_bt,2022.2.4,MacIntel,60.0024001,Chrome,1440,900,,,l,0.5951,10,290,1,1,7,19,4,1,0,1,0,0,0,0,1,0,circle,hexagon,,,,,,,,,,,,,,,,,,,,,,,,,,,,,,,,,,,,,,,,,,,,,,,,,,,,,,
298198,2022-11-16_11h54.27.760,vts_reward_expectancy_bt,2022.2.4,MacIntel,60.0024001,Chrome,1440,900,,,a,1.001,10,300,1,1,8,20,5,1,0,1,0,0,0,0,0,1,circle,star,,,,,,,,,,,,,,,,,,,,,,,,,,,,,,,,,,,,,,,,,,,,,,,,,,,,,,
298198,2022-11-16_11h54.27.760,vts_reward_expectancy_bt,2022.2.4,MacIntel,60.0024001,Chrome,1440,900,,,l,0.6439,1,301,1,1,9,21,9,1,0,0,0,1,1,0,0,0,star,triangle,,,,,,,,,,,,,,,,,,,,,,,,,,,,,,,,,,,,,,,,,,,,,,,,,,,,,,
298198,2022-11-16_11h54.27.760,vts_reward_expectancy_bt,2022.2.4,MacIntel,60.0024001,Chrome,1440,900,,,l,1.0258,1,302,1,1,10,22,0,1,1,0,0,0,0,1,0,0,triangle,circle,,,,,,,,,,,,,,,,,,,,,,,,,,,,,,,,,,,,,,,,,,,,,,,,,,,,,,
298198,2022-11-16_11h54.27.760,vts_reward_expectancy_bt,2022.2.4,MacIntel,60.0024001,Chrome,1440,900,,,a,0.6905,1,303,1,1,11,23,7,1,0,0,1,0,0,1,0,0,hexagon,circle,,,,,,,,,,,,,,,,,,,,,,,,,,,,,,,,,,,,,,,,,,,,,,,,,,,,,,
298198,2022-11-16_11h54.27.760,vts_reward_expectancy_bt,2022.2.4,MacIntel,60.0024001,Chrome,1440,900,,,l,0.6734,1,304,1,2,0,24,6,1,0,0,1,0,1,0,0,0,hexagon,triangle,,,,,,,,,,,,,,,,,,,,,,,,,,,,,,,,,,,,,,,,,,,,,,,,,,,,,,
298198,2022-11-16_11h54.27.760,vts_reward_expectancy_bt,2022.2.4,MacIntel,60.0024001,Chrome,1440,900,,,a,0.4829,10,314,1,2,1,25,7,1,0,0,1,0,0,1,0,0,hexagon,circle,,,,,,,,,,,,,,,,,,,,,,,,,,,,,,,,,,,,,,,,,,,,,,,,,,,,,,
298198,2022-11-16_11h54.27.760,vts_reward_expectancy_bt,2022.2.4,MacIntel,60.0024001,Chrome,1440,900,,,a,1.1992,1,315,1,2,2,26,3,1,0,1,0,0,1,0,0,0,circle,triangle,,,,,,,,,,,,,,,,,,,,,,,,,,,,,,,,,,,,,,,,,,,,,,,,,,,,,,
298198,2022-11-16_11h54.27.760,vts_reward_expectancy_bt,2022.2.4,MacIntel,60.0024001,Chrome,1440,900,,,l,0.8311,10,325,1,2,3,27,9,1,0,0,0,1,1,0,0,0,star,triangle,,,,,,,,,,,,,,,,,,,,,,,,,,,,,,,,,,,,,,,,,,,,,,,,,,,,,,
298198,2022-11-16_11h54.27.760,vts_reward_expectancy_bt,2022.2.4,MacIntel,60.0024001,Chrome,1440,900,,,a,0.7419,10,335,1,2,4,28,11,1,0,0,0,1,0,0,1,0,star,hexagon,,,,,,,,,,,,,,,,,,,,,,,,,,,,,,,,,,,,,,,,,,,,,,,,,,,,,,
298198,2022-11-16_11h54.27.760,vts_reward_expectancy_bt,2022.2.4,MacIntel,60.0024001,Chrome,1440,900,,,l,0.6027,1,336,1,2,5,29,10,1,0,0,0,1,0,1,0,0,star ,circle,,,,,,,,,,,,,,,,,,,,,,,,,,,,,,,,,,,,,,,,,,,,,,,,,,,,,,
298198,2022-11-16_11h54.27.760,vts_reward_expectancy_bt,2022.2.4,MacIntel,60.0024001,Chrome,1440,900,,,l,1.2317,10,346,1,2,6,30,1,1,1,0,0,0,0,0,1,0,triangle,hexagon,,,,,,,,,,,,,,,,,,,,,,,,,,,,,,,,,,,,,,,,,,,,,,,,,,,,,,
298198,2022-11-16_11h54.27.760,vts_reward_expectancy_bt,2022.2.4,MacIntel,60.0024001,Chrome,1440,900,,,a,0.7187,10,356,1,2,7,31,2,1,1,0,0,0,0,0,0,1,triangle,star,,,,,,,,,,,,,,,,,,,,,,,,,,,,,,,,,,,,,,,,,,,,,,,,,,,,,,
298198,2022-11-16_11h54.27.760,vts_reward_expectancy_bt,2022.2.4,MacIntel,60.0024001,Chrome,1440,900,,,l,0.5288,1,357,1,2,8,32,0,1,1,0,0,0,0,1,0,0,triangle,circle,,,,,,,,,,,,,,,,,,,,,,,,,,,,,,,,,,,,,,,,,,,,,,,,,,,,,,
298198,2022-11-16_11h54.27.760,vts_reward_expectancy_bt,2022.2.4,MacIntel,60.0024001,Chrome,1440,900,,,a,0.4885,10,367,1,2,9,33,4,1,0,1,0,0,0,0,1,0,circle,hexagon,,,,,,,,,,,,,,,,,,,,,,,,,,,,,,,,,,,,,,,,,,,,,,,,,,,,,,
298198,2022-11-16_11h54.27.760,vts_reward_expectancy_bt,2022.2.4,MacIntel,60.0024001,Chrome,1440,900,,,l,0.5914,10,377,1,2,10,34,5,1,0,1,0,0,0,0,0,1,circle,star,,,,,,,,,,,,,,,,,,,,,,,,,,,,,,,,,,,,,,,,,,,,,,,,,,,,,,
298198,2022-11-16_11h54.27.760,vts_reward_expectancy_bt,2022.2.4,MacIntel,60.0024001,Chrome,1440,900,,,a,0.5331,1,378,1,2,11,35,8,1,0,0,1,0,0,0,0,1,hexagon,star,,,,,,,,,,,,,,,,,,,,,,,,,,,,,,,,,,,,,,,,,,,,,,,,,,,,,,
298198,2022-11-16_11h54.27.760,vts_reward_expectancy_bt,2022.2.4,MacIntel,60.0024001,Chrome,1440,900,,,l,0.7834,10,388,2,0,0,0,1,1,1,0,0,0,0,0,1,0,triangle,hexagon,,,,,,,,,,,,,,,,,,,,,,,,,,,,,,,,,,,,,,,,,,,,,,,,,,,,,,
298198,2022-11-16_11h54.27.760,vts_reward_expectancy_bt,2022.2.4,MacIntel,60.0024001,Chrome,1440,900,,,a,0.4882,10,398,2,0,1,1,11,1,0,0,0,1,0,0,1,0,star,hexagon,,,,,,,,,,,,,,,,,,,,,,,,,,,,,,,,,,,,,,,,,,,,,,,,,,,,,,
298198,2022-11-16_11h54.27.760,vts_reward_expectancy_bt,2022.2.4,MacIntel,60.0024001,Chrome,1440,900,,,a,0.8031,1,399,2,0,2,2,5,1,0,1,0,0,0,0,0,1,circle,star,,,,,,,,,,,,,,,,,,,,,,,,,,,,,,,,,,,,,,,,,,,,,,,,,,,,,,
298198,2022-11-16_11h54.27.760,vts_reward_expectancy_bt,2022.2.4,MacIntel,60.0024001,Chrome,1440,900,,,l,0.6577,1,400,2,0,3,3,9,1,0,0,0,1,1,0,0,0,star,triangle,,,,,,,,,,,,,,,,,,,,,,,,,,,,,,,,,,,,,,,,,,,,,,,,,,,,,,
298198,2022-11-16_11h54.27.760,vts_reward_expectancy_bt,2022.2.4,MacIntel,60.0024001,Chrome,1440,900,,,l,0.5209,1,401,2,0,4,4,4,1,0,1,0,0,0,0,1,0,circle,hexagon,,,,,,,,,,,,,,,,,,,,,,,,,,,,,,,,,,,,,,,,,,,,,,,,,,,,,,
298198,2022-11-16_11h54.27.760,vts_reward_expectancy_bt,2022.2.4,MacIntel,60.0024001,Chrome,1440,900,,,a,0.6741,10,411,2,0,5,5,0,1,1,0,0,0,0,1,0,0,triangle,circle,,,,,,,,,,,,,,,,,,,,,,,,,,,,,,,,,,,,,,,,,,,,,,,,,,,,,,
298198,2022-11-16_11h54.27.760,vts_reward_expectancy_bt,2022.2.4,MacIntel,60.0024001,Chrome,1440,900,,,l,0.3717,1,412,2,0,6,6,2,1,1,0,0,0,0,0,0,1,triangle,star,,,,,,,,,,,,,,,,,,,,,,,,,,,,,,,,,,,,,,,,,,,,,,,,,,,,,,
298198,2022-11-16_11h54.27.760,vts_reward_expectancy_bt,2022.2.4,MacIntel,60.0024001,Chrome,1440,900,,,a,0.7164,1,413,2,0,7,7,6,1,0,0,1,0,1,0,0,0,hexagon,triangle,,,,,,,,,,,,,,,,,,,,,,,,,,,,,,,,,,,,,,,,,,,,,,,,,,,,,,
298198,2022-11-16_11h54.27.760,vts_reward_expectancy_bt,2022.2.4,MacIntel,60.0024001,Chrome,1440,900,,,l,0.8378,10,423,2,0,8,8,10,1,0,0,0,1,0,1,0,0,star ,circle,,,,,,,,,,,,,,,,,,,,,,,,,,,,,,,,,,,,,,,,,,,,,,,,,,,,,,
298198,2022-11-16_11h54.27.760,vts_reward_expectancy_bt,2022.2.4,MacIntel,60.0024001,Chrome,1440,900,,,l,0.4968,10,433,2,0,9,9,3,1,0,1,0,0,1,0,0,0,circle,triangle,,,,,,,,,,,,,,,,,,,,,,,,,,,,,,,,,,,,,,,,,,,,,,,,,,,,,,
298198,2022-11-16_11h54.27.760,vts_reward_expectancy_bt,2022.2.4,MacIntel,60.0024001,Chrome,1440,900,,,a,0.9826,10,443,2,0,10,10,8,1,0,0,1,0,0,0,0,1,hexagon,star,,,,,,,,,,,,,,,,,,,,,,,,,,,,,,,,,,,,,,,,,,,,,,,,,,,,,,
298198,2022-11-16_11h54.27.760,vts_reward_expectancy_bt,2022.2.4,MacIntel,60.0024001,Chrome,1440,900,,,l,0.4206,1,444,2,0,11,11,7,1,0,0,1,0,0,1,0,0,hexagon,circle,,,,,,,,,,,,,,,,,,,,,,,,,,,,,,,,,,,,,,,,,,,,,,,,,,,,,,
298198,2022-11-16_11h54.27.760,vts_reward_expectancy_bt,2022.2.4,MacIntel,60.0024001,Chrome,1440,900,,,a,0.4338,1,445,2,1,0,12,2,1,1,0,0,0,0,0,0,1,triangle,star,,,,,,,,,,,,,,,,,,,,,,,,,,,,,,,,,,,,,,,,,,,,,,,,,,,,,,
298198,2022-11-16_11h54.27.760,vts_reward_expectancy_bt,2022.2.4,MacIntel,60.0024001,Chrome,1440,900,,,a,0.487,1,446,2,1,1,13,10,1,0,0,0,1,0,1,0,0,star ,circle,,,,,,,,,,,,,,,,,,,,,,,,,,,,,,,,,,,,,,,,,,,,,,,,,,,,,,
298198,2022-11-16_11h54.27.760,vts_reward_expectancy_bt,2022.2.4,MacIntel,60.0024001,Chrome,1440,900,,,l,0.3819,10,456,2,1,2,14,6,1,0,0,1,0,1,0,0,0,hexagon,triangle,,,,,,,,,,,,,,,,,,,,,,,,,,,,,,,,,,,,,,,,,,,,,,,,,,,,,,
298198,2022-11-16_11h54.27.760,vts_reward_expectancy_bt,2022.2.4,MacIntel,60.0024001,Chrome,1440,900,,,a,0.8228,1,457,2,1,3,15,9,1,0,0,0,1,1,0,0,0,star,triangle,,,,,,,,,,,,,,,,,,,,,,,,,,,,,,,,,,,,,,,,,,,,,,,,,,,,,,
298198,2022-11-16_11h54.27.760,vts_reward_expectancy_bt,2022.2.4,MacIntel,60.0024001,Chrome,1440,900,,,l,0.6056,10,467,2,1,4,16,7,1,0,0,1,0,0,1,0,0,hexagon,circle,,,,,,,,,,,,,,,,,,,,,,,,,,,,,,,,,,,,,,,,,,,,,,,,,,,,,,
298198,2022-11-16_11h54.27.760,vts_reward_expectancy_bt,2022.2.4,MacIntel,60.0024001,Chrome,1440,900,,,l,0.7368,1,468,2,1,5,17,4,1,0,1,0,0,0,0,1,0,circle,hexagon,,,,,,,,,,,,,,,,,,,,,,,,,,,,,,,,,,,,,,,,,,,,,,,,,,,,,,
298198,2022-11-16_11h54.27.760,vts_reward_expectancy_bt,2022.2.4,MacIntel,60.0024001,Chrome,1440,900,,,l,0.9648,1,469,2,1,6,18,11,1,0,0,0,1,0,0,1,0,star,hexagon,,,,,,,,,,,,,,,,,,,,,,,,,,,,,,,,,,,,,,,,,,,,,,,,,,,,,,
298198,2022-11-16_11h54.27.760,vts_reward_expectancy_bt,2022.2.4,MacIntel,60.0024001,Chrome,1440,900,,,l,0.6501,10,479,2,1,7,19,3,1,0,1,0,0,1,0,0,0,circle,triangle,,,,,,,,,,,,,,,,,,,,,,,,,,,,,,,,,,,,,,,,,,,,,,,,,,,,,,
298198,2022-11-16_11h54.27.760,vts_reward_expectancy_bt,2022.2.4,MacIntel,60.0024001,Chrome,1440,900,,,a,0.4842,10,489,2,1,8,20,8,1,0,0,1,0,0,0,0,1,hexagon,star,,,,,,,,,,,,,,,,,,,,,,,,,,,,,,,,,,,,,,,,,,,,,,,,,,,,,,
298198,2022-11-16_11h54.27.760,vts_reward_expectancy_bt,2022.2.4,MacIntel,60.0024001,Chrome,1440,900,,,l,0.5233,1,490,2,1,9,21,1,1,1,0,0,0,0,0,1,0,triangle,hexagon,,,,,,,,,,,,,,,,,,,,,,,,,,,,,,,,,,,,,,,,,,,,,,,,,,,,,,
298198,2022-11-16_11h54.27.760,vts_reward_expectancy_bt,2022.2.4,MacIntel,60.0024001,Chrome,1440,900,,,l,0.7251,10,500,2,1,10,22,5,1,0,1,0,0,0,0,0,1,circle,star,,,,,,,,,,,,,,,,,,,,,,,,,,,,,,,,,,,,,,,,,,,,,,,,,,,,,,
298198,2022-11-16_11h54.27.760,vts_reward_expectancy_bt,2022.2.4,MacIntel,60.0024001,Chrome,1440,900,,,a,2.2734,1,501,2,1,11,23,0,1,1,0,0,0,0,1,0,0,triangle,circle,,,,,,,,,,,,,,,,,,,,,,,,,,,,,,,,,,,,,,,,,,,,,,,,,,,,,,
298198,2022-11-16_11h54.27.760,vts_reward_expectancy_bt,2022.2.4,MacIntel,60.0024001,Chrome,1440,900,,,l,0.5189,1,502,2,2,0,24,0,1,1,0,0,0,0,1,0,0,triangle,circle,,,,,,,,,,,,,,,,,,,,,,,,,,,,,,,,,,,,,,,,,,,,,,,,,,,,,,
298198,2022-11-16_11h54.27.760,vts_reward_expectancy_bt,2022.2.4,MacIntel,60.0024001,Chrome,1440,900,,,a,0.8476,10,512,2,2,1,25,8,1,0,0,1,0,0,0,0,1,hexagon,star,,,,,,,,,,,,,,,,,,,,,,,,,,,,,,,,,,,,,,,,,,,,,,,,,,,,,,
298198,2022-11-16_11h54.27.760,vts_reward_expectancy_bt,2022.2.4,MacIntel,60.0024001,Chrome,1440,900,,,a,0.8683,1,513,2,2,2,26,11,1,0,0,0,1,0,0,1,0,star,hexagon,,,,,,,,,,,,,,,,,,,,,,,,,,,,,,,,,,,,,,,,,,,,,,,,,,,,,,
298198,2022-11-16_11h54.27.760,vts_reward_expectancy_bt,2022.2.4,MacIntel,60.0024001,Chrome,1440,900,,,l,0.4869,1,514,2,2,3,27,10,1,0,0,0,1,0,1,0,0,star ,circle,,,,,,,,,,,,,,,,,,,,,,,,,,,,,,,,,,,,,,,,,,,,,,,,,,,,,,
298198,2022-11-16_11h54.27.760,vts_reward_expectancy_bt,2022.2.4,MacIntel,60.0024001,Chrome,1440,900,,,l,0.4714,1,515,2,2,4,28,4,1,0,1,0,0,0,0,1,0,circle,hexagon,,,,,,,,,,,,,,,,,,,,,,,,,,,,,,,,,,,,,,,,,,,,,,,,,,,,,,
298198,2022-11-16_11h54.27.760,vts_reward_expectancy_bt,2022.2.4,MacIntel,60.0024001,Chrome,1440,900,,,a,0.3912,10,525,2,2,5,29,1,1,1,0,0,0,0,0,1,0,triangle,hexagon,,,,,,,,,,,,,,,,,,,,,,,,,,,,,,,,,,,,,,,,,,,,,,,,,,,,,,
298198,2022-11-16_11h54.27.760,vts_reward_expectancy_bt,2022.2.4,MacIntel,60.0024001,Chrome,1440,900,,,l,0.6698,10,535,2,2,6,30,9,1,0,0,0,1,1,0,0,0,star,triangle,,,,,,,,,,,,,,,,,,,,,,,,,,,,,,,,,,,,,,,,,,,,,,,,,,,,,,
298198,2022-11-16_11h54.27.760,vts_reward_expectancy_bt,2022.2.4,MacIntel,60.0024001,Chrome,1440,900,,,a,0.6541,10,545,2,2,7,31,6,1,0,0,1,0,1,0,0,0,hexagon,triangle,,,,,,,,,,,,,,,,,,,,,,,,,,,,,,,,,,,,,,,,,,,,,,,,,,,,,,
298198,2022-11-16_11h54.27.760,vts_reward_expectancy_bt,2022.2.4,MacIntel,60.0024001,Chrome,1440,900,,,l,0.59,1,546,2,2,8,32,3,1,0,1,0,0,1,0,0,0,circle,triangle,,,,,,,,,,,,,,,,,,,,,,,,,,,,,,,,,,,,,,,,,,,,,,,,,,,,,,
298198,2022-11-16_11h54.27.760,vts_reward_expectancy_bt,2022.2.4,MacIntel,60.0024001,Chrome,1440,900,,,l,0.7915,1,547,2,2,9,33,5,1,0,1,0,0,0,0,0,1,circle,star,,,,,,,,,,,,,,,,,,,,,,,,,,,,,,,,,,,,,,,,,,,,,,,,,,,,,,
298198,2022-11-16_11h54.27.760,vts_reward_expectancy_bt,2022.2.4,MacIntel,60.0024001,Chrome,1440,900,,,a,0.376,10,557,2,2,10,34,7,1,0,0,1,0,0,1,0,0,hexagon,circle,,,,,,,,,,,,,,,,,,,,,,,,,,,,,,,,,,,,,,,,,,,,,,,,,,,,,,
298198,2022-11-16_11h54.27.760,vts_reward_expectancy_bt,2022.2.4,MacIntel,60.0024001,Chrome,1440,900,,,l,0.4542,1,558,2,2,11,35,2,1,1,0,0,0,0,0,0,1,triangle,star,,,,,,,,,,,,,,,,,,,,,,,,,,,,,,,,,,,,,,,,,,,,,,,,,,,,,,
298198,2022-11-16_11h54.27.760,vts_reward_expectancy_bt,2022.2.4,MacIntel,60.0024001,Chrome,1440,900,,,,,,,,,,,,,,,,,,,,,,,W,174,triangle,1,0,f,1.838,0,0,0,0,0,1,,,,,,,,,,,,,,,,,,,,,,,,,,,,,,,,,,,,,,,,,
298198,2022-11-16_11h54.27.760,vts_reward_expectancy_bt,2022.2.4,MacIntel,60.0024001,Chrome,1440,900,,,,,,,,,,,,,,,,,,,,,,,S,139,circle,1,0,f,0.8724,0,1,0,1,0,1,,,,,,,,,,,,,,,,,,,,,,,,,,,,,,,,,,,,,,,,,
298198,2022-11-16_11h54.27.760,vts_reward_expectancy_bt,2022.2.4,MacIntel,60.0024001,Chrome,1440,900,,,,,,,,,,,,,,,,,,,,,,,U,160,star,1,0,f,0.736,0,2,0,2,0,1,,,,,,,,,,,,,,,,,,,,,,,,,,,,,,,,,,,,,,,,,
298198,2022-11-16_11h54.27.760,vts_reward_expectancy_bt,2022.2.4,MacIntel,60.0024001,Chrome,1440,900,,,,,,,,,,,,,,,,,,,,,,,Y,167,hexagon,1,0,f,0.7532,0,3,0,3,0,1,,,,,,,,,,,,,,,,,,,,,,,,,,,,,,,,,,,,,,,,,
298198,2022-11-16_11h54.27.760,vts_reward_expectancy_bt,2022.2.4,MacIntel,60.0024001,Chrome,1440,900,,,,,,,,,,,,,,,,,,,,,,,F,132,triangle,1,0,d,0.705,0,4,0,4,0,1,,,,,,,,,,,,,,,,,,,,,,,,,,,,,,,,,,,,,,,,,
298198,2022-11-16_11h54.27.760,vts_reward_expectancy_bt,2022.2.4,MacIntel,60.0024001,Chrome,1440,900,,,,,,,,,,,,,,,,,,,,,,,H,181,circle,1,0,d,0.5699,0,5,0,5,0,1,,,,,,,,,,,,,,,,,,,,,,,,,,,,,,,,,,,,,,,,,
298198,2022-11-16_11h54.27.760,vts_reward_expectancy_bt,2022.2.4,MacIntel,60.0024001,Chrome,1440,900,,,,,,,,,,,,,,,,,,,,,,,D,146,star,1,0,d,0.5539,0,6,0,6,0,1,,,,,,,,,,,,,,,,,,,,,,,,,,,,,,,,,,,,,,,,,
298198,2022-11-16_11h54.27.760,vts_reward_expectancy_bt,2022.2.4,MacIntel,60.0024001,Chrome,1440,900,,,,,,,,,,,,,,,,,,,,,,,B,125,hexagon,1,0,d,0.5976,0,7,0,7,0,1,,,,,,,,,,,,,,,,,,,,,,,,,,,,,,,,,,,,,,,,,
298198,2022-11-16_11h54.27.760,vts_reward_expectancy_bt,2022.2.4,MacIntel,60.0024001,Chrome,1440,900,,,,,,,,,,,,,,,,,,,,,,,W,174,hexagon,1,0,f,0.5874,0,8,0,8,0,1,,,,,,,,,,,,,,,,,,,,,,,,,,,,,,,,,,,,,,,,,
298198,2022-11-16_11h54.27.760,vts_reward_expectancy_bt,2022.2.4,MacIntel,60.0024001,Chrome,1440,900,,,,,,,,,,,,,,,,,,,,,,,S,139,circle,1,0,f,1.2614,0,9,0,9,0,1,,,,,,,,,,,,,,,,,,,,,,,,,,,,,,,,,,,,,,,,,
298198,2022-11-16_11h54.27.760,vts_reward_expectancy_bt,2022.2.4,MacIntel,60.0024001,Chrome,1440,900,,,,,,,,,,,,,,,,,,,,,,,W,132,triangle,1,0,,,1,,,,,,j,1.3917,0,0,0,0,1,,,,,,,,,,,,,,,,,,,,,,,,,,,,,,,,,,
298198,2022-11-16_11h54.27.760,vts_reward_expectancy_bt,2022.2.4,MacIntel,60.0024001,Chrome,1440,900,,,,,,,,,,,,,,,,,,,,,,,H,125,circle,1,0,,,1,,,,,,j,0.8086,1,0,1,0,1,,,,,,,,,,,,,,,,,,,,,,,,,,,,,,,,,,
298198,2022-11-16_11h54.27.760,vts_reward_expectancy_bt,2022.2.4,MacIntel,60.0024001,Chrome,1440,900,,,,,,,,,,,,,,,,,,,,,,,B,160,hexagon,1,0,,,1,,,,,,k,1.0216,2,0,2,0,1,,,,,,,,,,,,,,,,,,,,,,,,,,,,,,,,,,
298198,2022-11-16_11h54.27.760,vts_reward_expectancy_bt,2022.2.4,MacIntel,60.0024001,Chrome,1440,900,,,,,,,,,,,,,,,,,,,,,,,S,146,star,1,0,,,1,,,,,,j,0.9737,3,0,3,0,1,,,,,,,,,,,,,,,,,,,,,,,,,,,,,,,,,,
298198,2022-11-16_11h54.27.760,vts_reward_expectancy_bt,2022.2.4,MacIntel,60.0024001,Chrome,1440,900,,,,,,,,,,,,,,,,,,,,,,,D,139,triangle,1,0,,,1,,,,,,j,0.9568,4,0,4,0,1,,,,,,,,,,,,,,,,,,,,,,,,,,,,,,,,,,
298198,2022-11-16_11h54.27.760,vts_reward_expectancy_bt,2022.2.4,MacIntel,60.0024001,Chrome,1440,900,,,,,,,,,,,,,,,,,,,,,,,U,167,circle,1,0,,,1,,,,,,k,1.0403,5,0,5,0,1,,,,,,,,,,,,,,,,,,,,,,,,,,,,,,,,,,
298198,2022-11-16_11h54.27.760,vts_reward_expectancy_bt,2022.2.4,MacIntel,60.0024001,Chrome,1440,900,,,,,,,,,,,,,,,,,,,,,,,F,174,hexagon,1,0,,,1,,,,,,k,0.8214,6,0,6,0,1,,,,,,,,,,,,,,,,,,,,,,,,,,,,,,,,,,
298198,2022-11-16_11h54.27.760,vts_reward_expectancy_bt,2022.2.4,MacIntel,60.0024001,Chrome,1440,900,,,,,,,,,,,,,,,,,,,,,,,Y,181,star,1,0,,,1,,,,,,k,0.9356,7,0,7,0,1,,,,,,,,,,,,,,,,,,,,,,,,,,,,,,,,,,
298198,2022-11-16_11h54.27.760,vts_reward_expectancy_bt,2022.2.4,MacIntel,60.0024001,Chrome,1440,900,,,,,,,,,,,,,,,,,,,,,,,W,132,circle,1,0,,,1,,,,,,j,0.7567,8,0,8,0,1,,,,,,,,,,,,,,,,,,,,,,,,,,,,,,,,,,
298198,2022-11-16_11h54.27.760,vts_reward_expectancy_bt,2022.2.4,MacIntel,60.0024001,Chrome,1440,900,,,,,,,,,,,,,,,,,,,,,,,H,125,triangle,1,0,,,1,,,,,,j,0.9743,9,0,9,0,1,,,,,,,,,,,,,,,,,,,,,,,,,,,,,,,,,,
298198,2022-11-16_11h54.27.760,vts_reward_expectancy_bt,2022.2.4,MacIntel,60.0024001,Chrome,1440,900,,,,,0,558,,,,,,,,,,,,,,,,,D,139,triangle,1,0,,,2,,,,,,,,,,,,,-1,letter,NA,d,1.2384,vtsPrac,0,0,0,0,1,,,,,,,,,,,,,,,,,,,,,,,
298198,2022-11-16_11h54.27.760,vts_reward_expectancy_bt,2022.2.4,MacIntel,60.0024001,Chrome,1440,900,,,,,0,558,,,,,,,,,,,,,,,,,B,167,circle,1,0,,,2,,,,,,,,,,,,,repeat,letter,lettRpt,d,0.771,vtsPrac,1,0,1,0,1,,,,,,,,,,,,,,,,,,,,,,,
298198,2022-11-16_11h54.27.760,vts_reward_expectancy_bt,2022.2.4,MacIntel,60.0024001,Chrome,1440,900,,,,,0,558,,,,,,,,,,,,,,,,,U,174,triangle,1,0,,,2,,,,,,,,,,,,,switch,number,numSwt,k,1.0548,vtsPrac,2,0,2,0,1,,,,,,,,,,,,,,,,,,,,,,,
298198,2022-11-16_11h54.27.760,vts_reward_expectancy_bt,2022.2.4,MacIntel,60.0024001,Chrome,1440,900,,,,,0,558,,,,,,,,,,,,,,,,,W,181,circle,1,0,,,2,,,,,,,,,,,,,switch,letter,lettSwt,f,0.6329,vtsPrac,3,0,3,0,1,,,,,,,,,,,,,,,,,,,,,,,
298198,2022-11-16_11h54.27.760,vts_reward_expectancy_bt,2022.2.4,MacIntel,60.0024001,Chrome,1440,900,,,,,0,558,,,,,,,,,,,,,,,,,D,139,star,1,0,,,2,,,,,,,,,,,,,switch,number,numSwt,j,0.8862,vtsPrac,4,0,4,0,1,,,,,,,,,,,,,,,,,,,,,,,
298198,2022-11-16_11h54.27.760,vts_reward_expectancy_bt,2022.2.4,MacIntel,60.0024001,Chrome,1440,900,,,,,0,558,,,,,,,,,,,,,,,,,B,167,hexagon,1,0,,,2,,,,,,,,,,,,,repeat,number,numRpt,k,1.1518,vtsPrac,5,0,5,0,1,,,,,,,,,,,,,,,,,,,,,,,
298198,2022-11-16_11h54.27.760,vts_reward_expectancy_bt,2022.2.4,MacIntel,60.0024001,Chrome,1440,900,,,,,0,558,,,,,,,,,,,,,,,,,U,174,star,1,0,,,2,,,,,,,,,,,,,switch,letter,lettSwt,f,1.1037,vtsPrac,6,0,6,0,1,,,,,,,,,,,,,,,,,,,,,,,
298198,2022-11-16_11h54.27.760,vts_reward_expectancy_bt,2022.2.4,MacIntel,60.0024001,Chrome,1440,900,,,,,0,558,,,,,,,,,,,,,,,,,W,181,hexagon,1,0,,,2,,,,,,,,,,,,,switch,number,numSwt,k,0.692,vtsPrac,7,0,7,0,1,,,,,,,,,,,,,,,,,,,,,,,
298198,2022-11-16_11h54.27.760,vts_reward_expectancy_bt,2022.2.4,MacIntel,60.0024001,Chrome,1440,900,,,,,0,558,,,,,,,,,,,,,,,,,S,146,hexagon,1,0,,,2,,,,,,,,,,,,,repeat,number,numRpt,j,2.055,vtsPrac,8,0,8,0,1,,,,,,,,,,,,,,,,,,,,,,,
298198,2022-11-16_11h54.27.760,vts_reward_expectancy_bt,2022.2.4,MacIntel,60.0024001,Chrome,1440,900,,,,,0,558,,,,,,,,,,,,,,,,,H,139,circle,1,0,,,2,,,,,,,,,,,,,switch,letter,lettSwt,d,1.0498,vtsPrac,9,0,9,0,1,,,,,,,,,,,,,,,,,,,,,,,
298198,2022-11-16_11h54.27.760,vts_reward_expectancy_bt,2022.2.4,MacIntel,60.0024001,Chrome,1440,900,,,,,0,558,,,,,,,,,,,,,,,,,F,125,hexagon,1,0,,,2,,,,,,,,,,,,,repeat,letter,lettRpt,d,0.8382,vtsPrac,10,0,10,0,1,,,,,,,,,,,,,,,,,,,,,,,
298198,2022-11-16_11h54.27.760,vts_reward_expectancy_bt,2022.2.4,MacIntel,60.0024001,Chrome,1440,900,,,,,0,558,,,,,,,,,,,,,,,,,D,167,triangle,1,0,,,2,,,,,,,,,,,,,switch,number,numSwt,k,0.7084,vtsPrac,11,0,11,0,1,,,,,,,,,,,,,,,,,,,,,,,
298198,2022-11-16_11h54.27.760,vts_reward_expectancy_bt,2022.2.4,MacIntel,60.0024001,Chrome,1440,900,,,,,0,558,,,,,,,,,,,,,,,,,W,167,star,1,0,,,2,,,,,,,,,,,,,repeat,number,numRpt,k,1.2805,vtsPrac,12,0,12,0,1,,,,,,,,,,,,,,,,,,,,,,,
298198,2022-11-16_11h54.27.760,vts_reward_expectancy_bt,2022.2.4,MacIntel,60.0024001,Chrome,1440,900,,,,,0,558,,,,,,,,,,,,,,,,,D,132,hexagon,1,0,,,2,,,,,,,,,,,,,switch,letter,lettSwt,d,0.7884,vtsPrac,13,0,13,0,1,,,,,,,,,,,,,,,,,,,,,,,
298198,2022-11-16_11h54.27.760,vts_reward_expectancy_bt,2022.2.4,MacIntel,60.0024001,Chrome,1440,900,,,,,0,558,,,,,,,,,,,,,,,,,U,181,hexagon,1,0,,,2,,,,,,,,,,,,,repeat,letter,lettRpt,f,0.8386,vtsPrac,14,0,14,0,1,,,,,,,,,,,,,,,,,,,,,,,
298198,2022-11-16_11h54.27.760,vts_reward_expectancy_bt,2022.2.4,MacIntel,60.0024001,Chrome,1440,900,,,,,0,558,,,,,,,,,,,,,,,,,H,146,star,1,0,,,2,,,,,,,,,,,,,switch,number,numSwt,j,1.4235,vtsPrac,15,0,15,0,1,,,,,,,,,,,,,,,,,,,,,,,
298198,2022-11-16_11h54.27.760,vts_reward_expectancy_bt,2022.2.4,MacIntel,60.0024001,Chrome,1440,900,,,,,0,558,,,,,,,,,,,,,,,,,S,160,hexagon,1,0,,,2,,,,,,,,,,,,,repeat,number,numRpt,k,1.0864,vtsPrac,16,0,16,0,1,,,,,,,,,,,,,,,,,,,,,,,
298198,2022-11-16_11h54.27.760,vts_reward_expectancy_bt,2022.2.4,MacIntel,60.0024001,Chrome,1440,900,,,,,0,558,,,,,,,,,,,,,,,,,U,132,triangle,1,0,,,2,,,,,,,,,,,,,switch,letter,lettSwt,f,1.1245,vtsPrac,17,0,17,0,1,,,,,,,,,,,,,,,,,,,,,,,
298198,2022-11-16_11h54.27.760,vts_reward_expectancy_bt,2022.2.4,MacIntel,60.0024001,Chrome,1440,900,,,,,0,558,,,,,,,,,,,,,,,,,W,125,star,1,0,,,2,,,,,,,,,,,,,repeat,letter,lettRpt,f,1.1481,vtsPrac,18,0,18,0,1,,,,,,,,,,,,,,,,,,,,,,,
298198,2022-11-16_11h54.27.760,vts_reward_expectancy_bt,2022.2.4,MacIntel,60.0024001,Chrome,1440,900,,,,,0,558,,,,,,,,,,,,,,,,,B,181,circle,1,0,,,2,,,,,,,,,,,,,switch,number,numSwt,k,1.0688,vtsPrac,19,0,19,0,1,,,,,,,,,,,,,,,,,,,,,,,
298198,2022-11-16_11h54.27.760,vts_reward_expectancy_bt,2022.2.4,MacIntel,60.0024001,Chrome,1440,900,,,,,0,558,,,,,,,,,,,,,,,,,W,181,star,1,0,,,2,,,,,,,,,,,,,repeat,number,numRpt,k,1.5235,vtsPrac,20,0,20,0,1,,,,,,,,,,,,,,,,,,,,,,,
298198,2022-11-16_11h54.27.760,vts_reward_expectancy_bt,2022.2.4,MacIntel,60.0024001,Chrome,1440,900,,,,,0,558,,,,,,,,,,,,,,,,,D,174,triangle,1,0,,,2,,,,,,,,,,,,,switch,letter,lettSwt,d,1.1701,vtsPrac,21,0,21,0,1,,,,,,,,,,,,,,,,,,,,,,,
298198,2022-11-16_11h54.27.760,vts_reward_expectancy_bt,2022.2.4,MacIntel,60.0024001,Chrome,1440,900,,,,,0,558,,,,,,,,,,,,,,,,,Y,167,triangle,1,0,,,2,,,,,,,,,,,,,switch,number,numSwt,k,1.1128,vtsPrac,22,0,22,0,1,,,,,,,,,,,,,,,,,,,,,,,
298198,2022-11-16_11h54.27.760,vts_reward_expectancy_bt,2022.2.4,MacIntel,60.0024001,Chrome,1440,900,,,,,0,558,,,,,,,,,,,,,,,,,F,146,hexagon,1,0,,,2,,,,,,,,,,,,,switch,letter,lettSwt,d,1.0306,vtsPrac,23,0,23,0,1,,,,,,,,,,,,,,,,,,,,,,,
298198,2022-11-16_11h54.27.760,vts_reward_expectancy_bt,2022.2.4,MacIntel,60.0024001,Chrome,1440,900,,,,,0,558,,,,,,,,,,,,,,,,,W,139,star,1,0,,,2,,,,,,,,,,,,,switch,number,numSwt,j,1.09,vtsPrac,24,0,24,0,1,,,,,,,,,,,,,,,,,,,,,,,
298198,2022-11-16_11h54.27.760,vts_reward_expectancy_bt,2022.2.4,MacIntel,60.0024001,Chrome,1440,900,,,,,0,558,,,,,,,,,,,,,,,,,F,181,circle,1,0,,,2,,,,,,,,,,,,,repeat,number,numRpt,k,1.411,vtsPrac,25,0,25,0,1,,,,,,,,,,,,,,,,,,,,,,,
298198,2022-11-16_11h54.27.760,vts_reward_expectancy_bt,2022.2.4,MacIntel,60.0024001,Chrome,1440,900,,,,,0,558,,,,,,,,,,,,,,,,,B,160,star,1,0,,,2,,,,,,,,,,,,,repeat,number,numRpt,k,0.7934,vtsPrac,26,0,26,0,1,,,,,,,,,,,,,,,,,,,,,,,
298198,2022-11-16_11h54.27.760,vts_reward_expectancy_bt,2022.2.4,MacIntel,60.0024001,Chrome,1440,900,,,,,0,558,,,,,,,,,,,,,,,,,S,146,triangle,1,0,,,2,,,,,,,,,,,,,switch,letter,lettSwt,f,0.7502,vtsPrac,27,0,27,0,1,,,,,,,,,,,,,,,,,,,,,,,
298198,2022-11-16_11h54.27.760,vts_reward_expectancy_bt,2022.2.4,MacIntel,60.0024001,Chrome,1440,900,,,,,0,558,,,,,,,,,,,,,,,,,W,146,triangle,1,0,,,2,,,,,,,,,,,,,repeat,letter,lettRpt,f,1.025,vtsPrac,28,0,28,0,1,,,,,,,,,,,,,,,,,,,,,,,
298198,2022-11-16_11h54.27.760,vts_reward_expectancy_bt,2022.2.4,MacIntel,60.0024001,Chrome,1440,900,,,,,0,558,,,,,,,,,,,,,,,,,Y,160,circle,1,0,,,2,,,,,,,,,,,,,switch,number,numSwt,k,0.9174,vtsPrac,29,0,29,0,1,,,,,,,,,,,,,,,,,,,,,,,
298198,2022-11-16_11h54.27.760,vts_reward_expectancy_bt,2022.2.4,MacIntel,60.0024001,Chrome,1440,900,,,,,0,558,,,,,,,,,,,,,,,,,B,139,triangle,1,0,,,2,,,,,,,,,,,,,repeat,number,numRpt,j,1.1039,vtsPrac,30,0,30,0,1,,,,,,,,,,,,,,,,,,,,,,,
298198,2022-11-16_11h54.27.760,vts_reward_expectancy_bt,2022.2.4,MacIntel,60.0024001,Chrome,1440,900,,,,,0,558,,,,,,,,,,,,,,,,,S,174,hexagon,1,0,,,2,,,,,,,,,,,,,repeat,number,numRpt,k,1.0039,vtsPrac,31,0,31,0,1,,,,,,,,,,,,,,,,,,,,,,,
298198,2022-11-16_11h54.27.760,vts_reward_expectancy_bt,2022.2.4,MacIntel,60.0024001,Chrome,1440,900,,,,,,,,,,,,,,,,,,,,,,,,,,,,,,,,,,,,,,,,,,,,,,,,,,,,,,,,,,,,,,,,,,,,,,,,,,,,
298198,2022-11-16_11h54.27.760,vts_reward_expectancy_bt,2022.2.4,MacIntel,60.0024001,Chrome,1440,900,,,,,,,,,,,,,,,,,,,,,,,,,,,,,,,,,,,,,,,,,,,,,,,,,,,,,,,,,,,,,,,,,,,,,,,,,,,,
298198,2022-11-16_11h54.27.760,vts_reward_expectancy_bt,2022.2.4,MacIntel,60.0024001,Chrome,1440,900,,,,,0,558,,,,,,,,,,,,,,,,,W,160,circle,1,0,,,,,,,,,,,,,,,,switch,letter,lettSwt,f,1.2054,noRew,,,,,,0,0,0,0,0,1,,,,,,,,,,,,,,,,,
298198,2022-11-16_11h54.27.760,vts_reward_expectancy_bt,2022.2.4,MacIntel,60.0024001,Chrome,1440,900,,,,,0,558,,,,,,,,,,,,,,,,,F,146,star,1,0,,,,,,,,,,,,,,,,switch,number,numSwt,j,1.3859,noRew,,,,,,0,1,0,1,0,1,,,,,,,,,,,,,,,,,
298198,2022-11-16_11h54.27.760,vts_reward_expectancy_bt,2022.2.4,MacIntel,60.0024001,Chrome,1440,900,,,,,0,558,,,,,,,,,,,,,,,,,Y,125,circle,1,0,,,,,,,,,,,,,,,,switch,letter,lettSwt,f,0.954,noRew,,,,,,0,2,0,2,0,1,,,,,,,,,,,,,,,,,
298198,2022-11-16_11h54.27.760,vts_reward_expectancy_bt,2022.2.4,MacIntel,60.0024001,Chrome,1440,900,,,,,0,558,,,,,,,,,,,,,,,,,B,167,star,1,0,,,,,,,,,,,,,,,,switch,number,numSwt,k,1.17,noRew,,,,,,0,3,0,3,0,1,,,,,,,,,,,,,,,,,
298198,2022-11-16_11h54.27.760,vts_reward_expectancy_bt,2022.2.4,MacIntel,60.0024001,Chrome,1440,900,,,,,0,558,,,,,,,,,,,,,,,,,W,160,triangle,1,0,,,,,,,,,,,,,,,,repeat,number,numRpt,k,0.6186,noRew,,,,,,0,4,0,4,0,1,,,,,,,,,,,,,,,,,
298198,2022-11-16_11h54.27.760,vts_reward_expectancy_bt,2022.2.4,MacIntel,60.0024001,Chrome,1440,900,,,,,0,558,,,,,,,,,,,,,,,,,F,146,circle,1,0,,,,,,,,,,,,,,,,repeat,number,numRpt,j,1.2101,noRew,,,,,,0,5,0,5,0,1,,,,,,,,,,,,,,,,,
298198,2022-11-16_11h54.27.760,vts_reward_expectancy_bt,2022.2.4,MacIntel,60.0024001,Chrome,1440,900,,,,,0,558,,,,,,,,,,,,,,,,,Y,125,triangle,1,0,,,,,,,,,,,,,,,,switch,letter,lettSwt,f,1.086,noRew,,,,,,0,6,0,6,0,1,,,,,,,,,,,,,,,,,
298198,2022-11-16_11h54.27.760,vts_reward_expectancy_bt,2022.2.4,MacIntel,60.0024001,Chrome,1440,900,,,,,0,558,,,,,,,,,,,,,,,,,B,167,hexagon,1,0,,,,,,,,,,,,,,,,switch,number,numSwt,k,0.7251,noRew,,,,,,0,7,0,7,0,1,,,,,,,,,,,,,,,,,
298198,2022-11-16_11h54.27.760,vts_reward_expectancy_bt,2022.2.4,MacIntel,60.0024001,Chrome,1440,900,,,,,0,558,,,,,,,,,,,,,,,,,D,125,hexagon,1,0,,,,,,,,,,,,,,,,switch,letter,lettSwt,d,0.751,noRew,,,,,,0,8,0,8,0,1,,,,,,,,,,,,,,,,,
298198,2022-11-16_11h54.27.760,vts_reward_expectancy_bt,2022.2.4,MacIntel,60.0024001,Chrome,1440,900,,,,,0,558,,,,,,,,,,,,,,,,,F,139,triangle,1,0,,,,,,,,,,,,,,,,repeat,letter,lettRpt,d,0.5969,noRew,,,,,,0,9,0,9,0,1,,,,,,,,,,,,,,,,,
298198,2022-11-16_11h54.27.760,vts_reward_expectancy_bt,2022.2.4,MacIntel,60.0024001,Chrome,1440,900,,,,,0,558,,,,,,,,,,,,,,,,,H,174,triangle,1,0,,,,,,,,,,,,,,,,repeat,letter,lettRpt,d,0.7202,noRew,,,,,,0,10,0,10,0,1,,,,,,,,,,,,,,,,,
298198,2022-11-16_11h54.27.760,vts_reward_expectancy_bt,2022.2.4,MacIntel,60.0024001,Chrome,1440,900,,,,,0,558,,,,,,,,,,,,,,,,,S,167,hexagon,1,0,,,,,,,,,,,,,,,,switch,number,numSwt,k,0.8191,noRew,,,,,,0,11,0,11,0,1,,,,,,,,,,,,,,,,,
298198,2022-11-16_11h54.27.760,vts_reward_expectancy_bt,2022.2.4,MacIntel,60.0024001,Chrome,1440,900,,,,,0,558,,,,,,,,,,,,,,,,,U,174,circle,1,0,,,,,,,,,,,,,,,,switch,letter,lettSwt,f,0.8567,noRew,,,,,,0,12,0,12,0,1,,,,,,,,,,,,,,,,,
298198,2022-11-16_11h54.27.760,vts_reward_expectancy_bt,2022.2.4,MacIntel,60.0024001,Chrome,1440,900,,,,,0,558,,,,,,,,,,,,,,,,,H,167,star,1,0,,,,,,,,,,,,,,,,repeat,letter,lettRpt,d,1.206,noRew,,,,,,0,13,0,13,0,1,,,,,,,,,,,,,,,,,
298198,2022-11-16_11h54.27.760,vts_reward_expectancy_bt,2022.2.4,MacIntel,60.0024001,Chrome,1440,900,,,,,0,558,,,,,,,,,,,,,,,,,D,132,hexagon,1,0,,,,,,,,,,,,,,,,repeat,letter,lettRpt,d,0.971,noRew,,,,,,0,14,0,14,0,1,,,,,,,,,,,,,,,,,
298198,2022-11-16_11h54.27.760,vts_reward_expectancy_bt,2022.2.4,MacIntel,60.0024001,Chrome,1440,900,,,,,0,558,,,,,,,,,,,,,,,,,W,181,triangle,1,0,,,,,,,,,,,,,,,,switch,number,numSwt,k,0.8716,noRew,,,,,,0,15,0,15,0,1,,,,,,,,,,,,,,,,,
298198,2022-11-16_11h54.27.760,vts_reward_expectancy_bt,2022.2.4,MacIntel,60.0024001,Chrome,1440,900,,,,,0,558,,,,,,,,,,,,,,,,,H,125,circle,1,0,,,,,,,,,,,,,,,,repeat,number,numRpt,j,0.6162,noRew,,,,,,0,16,0,16,0,1,,,,,,,,,,,,,,,,,
298198,2022-11-16_11h54.27.760,vts_reward_expectancy_bt,2022.2.4,MacIntel,60.0024001,Chrome,1440,900,,,,,0,558,,,,,,,,,,,,,,,,,S,181,triangle,1,0,,,,,,,,,,,,,,,,repeat,number,numRpt,k,0.9186,noRew,,,,,,0,17,0,17,0,1,,,,,,,,,,,,,,,,,
298198,2022-11-16_11h54.27.760,vts_reward_expectancy_bt,2022.2.4,MacIntel,60.0024001,Chrome,1440,900,,,,,0,558,,,,,,,,,,,,,,,,,W,139,hexagon,1,0,,,,,,,,,,,,,,,,switch,letter,lettSwt,f,0.9694,noRew,,,,,,0,18,0,18,0,1,,,,,,,,,,,,,,,,,
298198,2022-11-16_11h54.27.760,vts_reward_expectancy_bt,2022.2.4,MacIntel,60.0024001,Chrome,1440,900,,,,,0,558,,,,,,,,,,,,,,,,,B,146,circle,1,0,,,,,,,,,,,,,,,,repeat,letter,lettRpt,d,0.7913,noRew,,,,,,0,19,0,19,0,1,,,,,,,,,,,,,,,,,
298198,2022-11-16_11h54.27.760,vts_reward_expectancy_bt,2022.2.4,MacIntel,60.0024001,Chrome,1440,900,,,,,0,558,,,,,,,,,,,,,,,,,U,139,triangle,1,0,,,,,,,,,,,,,,,,repeat,letter,lettRpt,f,0.634,noRew,,,,,,0,20,0,20,0,1,,,,,,,,,,,,,,,,,
298198,2022-11-16_11h54.27.760,vts_reward_expectancy_bt,2022.2.4,MacIntel,60.0024001,Chrome,1440,900,,,,,0,558,,,,,,,,,,,,,,,,,D,132,circle,1,0,,,,,,,,,,,,,,,,repeat,letter,lettRpt,d,0.7636,noRew,,,,,,0,21,0,21,0,1,,,,,,,,,,,,,,,,,
298198,2022-11-16_11h54.27.760,vts_reward_expectancy_bt,2022.2.4,MacIntel,60.0024001,Chrome,1440,900,,,,,0,558,,,,,,,,,,,,,,,,,Y,167,star,1,0,,,,,,,,,,,,,,,,switch,number,numSwt,k,1.0095,noRew,,,,,,0,22,0,22,0,1,,,,,,,,,,,,,,,,,
298198,2022-11-16_11h54.27.760,vts_reward_expectancy_bt,2022.2.4,MacIntel,60.0024001,Chrome,1440,900,,,,,0,558,,,,,,,,,,,,,,,,,S,160,hexagon,1,0,,,,,,,,,,,,,,,,repeat,number,numRpt,k,1.0481,noRew,,,,,,0,23,0,23,0,1,,,,,,,,,,,,,,,,,
298198,2022-11-16_11h54.27.760,vts_reward_expectancy_bt,2022.2.4,MacIntel,60.0024001,Chrome,1440,900,,,,,0,558,,,,,,,,,,,,,,,,,U,146,hexagon,1,0,,,,,,,,,,,,,,,,repeat,number,numRpt,j,2.2577,noRew,,,,,,0,24,0,24,0,1,,,,,,,,,,,,,,,,,
298198,2022-11-16_11h54.27.760,vts_reward_expectancy_bt,2022.2.4,MacIntel,60.0024001,Chrome,1440,900,,,,,0,558,,,,,,,,,,,,,,,,,S,174,circle,1,0,,,,,,,,,,,,,,,,repeat,number,numRpt,k,1.2891,noRew,,,,,,0,25,0,25,0,1,,,,,,,,,,,,,,,,,
298198,2022-11-16_11h54.27.760,vts_reward_expectancy_bt,2022.2.4,MacIntel,60.0024001,Chrome,1440,900,,,,,0,558,,,,,,,,,,,,,,,,,D,132,star,1,0,,,,,,,,,,,,,,,,switch,letter,lettSwt,d,1.8234,noRew,,,,,,0,26,0,26,0,1,,,,,,,,,,,,,,,,,
298198,2022-11-16_11h54.27.760,vts_reward_expectancy_bt,2022.2.4,MacIntel,60.0024001,Chrome,1440,900,,,,,0,558,,,,,,,,,,,,,,,,,H,139,triangle,1,0,,,,,,,,,,,,,,,,repeat,letter,lettRpt,d,0.8052,noRew,,,,,,0,27,0,27,0,1,,,,,,,,,,,,,,,,,
298198,2022-11-16_11h54.27.760,vts_reward_expectancy_bt,2022.2.4,MacIntel,60.0024001,Chrome,1440,900,,,,,0,558,,,,,,,,,,,,,,,,,S,167,circle,1,0,,,,,,,,,,,,,,,,repeat,letter,lettRpt,f,0.7854,noRew,,,,,,0,28,0,28,0,1,,,,,,,,,,,,,,,,,
298198,2022-11-16_11h54.27.760,vts_reward_expectancy_bt,2022.2.4,MacIntel,60.0024001,Chrome,1440,900,,,,,0,558,,,,,,,,,,,,,,,,,Y,160,star,1,0,,,,,,,,,,,,,,,,repeat,letter,lettRpt,f,0.7754,noRew,,,,,,0,29,0,29,0,1,,,,,,,,,,,,,,,,,
298198,2022-11-16_11h54.27.760,vts_reward_expectancy_bt,2022.2.4,MacIntel,60.0024001,Chrome,1440,900,,,,,0,558,,,,,,,,,,,,,,,,,F,146,star,1,0,,,,,,,,,,,,,,,,switch,number,numSwt,j,1.4219,noRew,,,,,,0,30,0,30,0,1,,,,,,,,,,,,,,,,,
298198,2022-11-16_11h54.27.760,vts_reward_expectancy_bt,2022.2.4,MacIntel,60.0024001,Chrome,1440,900,,,,,0,558,,,,,,,,,,,,,,,,,W,132,triangle,1,0,,,,,,,,,,,,,,,,repeat,number,numRpt,j,1.024,noRew,,,,,,0,31,0,31,0,1,,,,,,,,,,,,,,,,,
298198,2022-11-16_11h54.27.760,vts_reward_expectancy_bt,2022.2.4,MacIntel,60.0024001,Chrome,1440,900,,,,,0,558,,,,,,,,,,,,,,,,,D,132,circle,1,0,,,,,,,,,,,,,,,,repeat,number,numRpt,j,0.9753,noRew,,,,,,0,32,0,32,0,1,,,,,,,,,,,,,,,,,
298198,2022-11-16_11h54.27.760,vts_reward_expectancy_bt,2022.2.4,MacIntel,60.0024001,Chrome,1440,900,,,,,0,558,,,,,,,,,,,,,,,,,U,167,triangle,1,0,,,,,,,,,,,,,,,,switch,letter,lettSwt,f,0.8403,noRew,,,,,,0,33,0,33,0,1,,,,,,,,,,,,,,,,,
298198,2022-11-16_11h54.27.760,vts_reward_expectancy_bt,2022.2.4,MacIntel,60.0024001,Chrome,1440,900,,,,,0,558,,,,,,,,,,,,,,,,,H,125,star,1,0,,,,,,,,,,,,,,,,repeat,letter,lettRpt,d,0.6781,noRew,,,,,,0,34,0,34,0,1,,,,,,,,,,,,,,,,,
298198,2022-11-16_11h54.27.760,vts_reward_expectancy_bt,2022.2.4,MacIntel,60.0024001,Chrome,1440,900,,,,,0,558,,,,,,,,,,,,,,,,,F,146,triangle,1,0,,,,,,,,,,,,,,,,repeat,letter,lettRpt,d,0.6945,noRew,,,,,,0,35,0,35,0,1,,,,,,,,,,,,,,,,,
298198,2022-11-16_11h54.27.760,vts_reward_expectancy_bt,2022.2.4,MacIntel,60.0024001,Chrome,1440,900,,,,,0,558,,,,,,,,,,,,,,,,,S,160,circle,0,0,,,,,,,,,,,,,,,,repeat,letter,NA,d,1.9665,noRew,,,,,,0,36,0,36,0,1,,,,,,,,,,,,,,,,,
298198,2022-11-16_11h54.27.760,vts_reward_expectancy_bt,2022.2.4,MacIntel,60.0024001,Chrome,1440,900,,,,,0,558,,,,,,,,,,,,,,,,,U,125,hexagon,1,1,,,,,,,,,,,,,,,,repeat,letter,lettRpt,f,0.7686,noRew,,,,,,0,37,0,37,0,1,,,,,,,,,,,,,,,,,
298198,2022-11-16_11h54.27.760,vts_reward_expectancy_bt,2022.2.4,MacIntel,60.0024001,Chrome,1440,900,,,,,0,558,,,,,,,,,,,,,,,,,H,146,star,1,0,,,,,,,,,,,,,,,,repeat,letter,lettRpt,d,1.4212,noRew,,,,,,0,38,0,38,0,1,,,,,,,,,,,,,,,,,
298198,2022-11-16_11h54.27.760,vts_reward_expectancy_bt,2022.2.4,MacIntel,60.0024001,Chrome,1440,900,,,,,0,558,,,,,,,,,,,,,,,,,W,167,circle,1,0,,,,,,,,,,,,,,,,switch,number,numSwt,k,0.9786,noRew,,,,,,0,39,0,39,0,1,,,,,,,,,,,,,,,,,
298198,2022-11-16_11h54.27.760,vts_reward_expectancy_bt,2022.2.4,MacIntel,60.0024001,Chrome,1440,900,,,,,0,558,,,,,,,,,,,,,,,,,W,160,hexagon,1,0,,,,,,,,,,,,,,,,repeat,number,numRpt,k,1.2528,noRew,,,,,,0,40,0,40,0,1,,,,,,,,,,,,,,,,,
298198,2022-11-16_11h54.27.760,vts_reward_expectancy_bt,2022.2.4,MacIntel,60.0024001,Chrome,1440,900,,,,,0,558,,,,,,,,,,,,,,,,,H,125,triangle,1,0,,,,,,,,,,,,,,,,switch,letter,lettSwt,d,0.6209,noRew,,,,,,0,41,0,41,0,1,,,,,,,,,,,,,,,,,
298198,2022-11-16_11h54.27.760,vts_reward_expectancy_bt,2022.2.4,MacIntel,60.0024001,Chrome,1440,900,,,,,0,558,,,,,,,,,,,,,,,,,F,167,star,1,0,,,,,,,,,,,,,,,,repeat,letter,lettRpt,d,0.6831,noRew,,,,,,0,42,0,42,0,1,,,,,,,,,,,,,,,,,
298198,2022-11-16_11h54.27.760,vts_reward_expectancy_bt,2022.2.4,MacIntel,60.0024001,Chrome,1440,900,,,,,0,558,,,,,,,,,,,,,,,,,S,174,triangle,1,0,,,,,,,,,,,,,,,,switch,number,numSwt,k,0.7867,noRew,,,,,,0,43,0,43,0,1,,,,,,,,,,,,,,,,,
298198,2022-11-16_11h54.27.760,vts_reward_expectancy_bt,2022.2.4,MacIntel,60.0024001,Chrome,1440,900,,,,,0,558,,,,,,,,,,,,,,,,,D,132,star,-1,0,,,,,,,,,,,,,,,,switch,no_choice,NA,,,noRew,,,,,,0,44,0,44,0,1,,,,,,,,,,,,,,,,,
298198,2022-11-16_11h54.27.760,vts_reward_expectancy_bt,2022.2.4,MacIntel,60.0024001,Chrome,1440,900,,,,,0,558,,,,,,,,,,,,,,,,,S,139,circle,1,0,,,,,,,,,,,,,,,,switch,number,numSwt,j,1.7043,noRew,,,,,,0,45,0,45,0,1,,,,,,,,,,,,,,,,,
298198,2022-11-16_11h54.27.760,vts_reward_expectancy_bt,2022.2.4,MacIntel,60.0024001,Chrome,1440,900,,,,,0,558,,,,,,,,,,,,,,,,,U,146,hexagon,1,0,,,,,,,,,,,,,,,,switch,letter,lettSwt,f,1.1938,noRew,,,,,,0,46,0,46,0,1,,,,,,,,,,,,,,,,,
298198,2022-11-16_11h54.27.760,vts_reward_expectancy_bt,2022.2.4,MacIntel,60.0024001,Chrome,1440,900,,,,,0,558,,,,,,,,,,,,,,,,,F,181,star,-1,0,,,,,,,,,,,,,,,,switch,no_choice,NA,,,noRew,,,,,,0,47,0,47,0,1,,,,,,,,,,,,,,,,,
298198,2022-11-16_11h54.27.760,vts_reward_expectancy_bt,2022.2.4,MacIntel,60.0024001,Chrome,1440,900,,,,,0,558,,,,,,,,,,,,,,,,,F,132,hexagon,1,0,,,,,,,,,,,,,,,,switch,letter,lettSwt,d,0.655,noRew,,,,,,0,48,0,48,0,1,,,,,,,,,,,,,,,,,
298198,2022-11-16_11h54.27.760,vts_reward_expectancy_bt,2022.2.4,MacIntel,60.0024001,Chrome,1440,900,,,,,0,558,,,,,,,,,,,,,,,,,Y,160,circle,1,0,,,,,,,,,,,,,,,,switch,number,numSwt,k,0.7201,noRew,,,,,,0,49,0,49,0,1,,,,,,,,,,,,,,,,,
298198,2022-11-16_11h54.27.760,vts_reward_expectancy_bt,2022.2.4,MacIntel,60.0024001,Chrome,1440,900,,,,,0,558,,,,,,,,,,,,,,,,,U,167,hexagon,1,0,,,,,,,,,,,,,,,,repeat,number,numRpt,k,0.8471,noRew,,,,,,0,50,0,50,0,1,,,,,,,,,,,,,,,,,
298198,2022-11-16_11h54.27.760,vts_reward_expectancy_bt,2022.2.4,MacIntel,60.0024001,Chrome,1440,900,,,,,0,558,,,,,,,,,,,,,,,,,B,125,triangle,1,0,,,,,,,,,,,,,,,,repeat,number,numRpt,j,0.9391,noRew,,,,,,0,51,0,51,0,1,,,,,,,,,,,,,,,,,
298198,2022-11-16_11h54.27.760,vts_reward_expectancy_bt,2022.2.4,MacIntel,60.0024001,Chrome,1440,900,,,,,0,558,,,,,,,,,,,,,,,,,Y,181,hexagon,1,0,,,,,,,,,,,,,,,,switch,letter,lettSwt,f,1.4093,noRew,,,,,,0,52,0,52,0,1,,,,,,,,,,,,,,,,,
298198,2022-11-16_11h54.27.760,vts_reward_expectancy_bt,2022.2.4,MacIntel,60.0024001,Chrome,1440,900,,,,,0,558,,,,,,,,,,,,,,,,,U,146,circle,0,0,,,,,,,,,,,,,,,,repeat,letter,NA,d,0.9156,noRew,,,,,,0,53,0,53,0,1,,,,,,,,,,,,,,,,,
298198,2022-11-16_11h54.27.760,vts_reward_expectancy_bt,2022.2.4,MacIntel,60.0024001,Chrome,1440,900,,,,,0,558,,,,,,,,,,,,,,,,,W,125,circle,1,1,,,,,,,,,,,,,,,,repeat,letter,lettRpt,f,1.0032,noRew,,,,,,0,54,0,54,0,1,,,,,,,,,,,,,,,,,
298198,2022-11-16_11h54.27.760,vts_reward_expectancy_bt,2022.2.4,MacIntel,60.0024001,Chrome,1440,900,,,,,0,558,,,,,,,,,,,,,,,,,B,167,star,1,0,,,,,,,,,,,,,,,,switch,number,numSwt,k,0.645,noRew,,,,,,0,55,0,55,0,1,,,,,,,,,,,,,,,,,
298198,2022-11-16_11h54.27.760,vts_reward_expectancy_bt,2022.2.4,MacIntel,60.0024001,Chrome,1440,900,,,,,0,558,,,,,,,,,,,,,,,,,F,167,circle,1,0,,,,,,,,,,,,,,,,repeat,number,numRpt,k,0.6175,noRew,,,,,,0,56,0,56,0,1,,,,,,,,,,,,,,,,,
298198,2022-11-16_11h54.27.760,vts_reward_expectancy_bt,2022.2.4,MacIntel,60.0024001,Chrome,1440,900,,,,,0,558,,,,,,,,,,,,,,,,,D,160,hexagon,1,0,,,,,,,,,,,,,,,,repeat,number,numRpt,k,1.399,noRew,,,,,,0,57,0,57,0,1,,,,,,,,,,,,,,,,,
298198,2022-11-16_11h54.27.760,vts_reward_expectancy_bt,2022.2.4,MacIntel,60.0024001,Chrome,1440,900,,,,,0,558,,,,,,,,,,,,,,,,,Y,132,triangle,1,0,,,,,,,,,,,,,,,,switch,letter,lettSwt,f,1.2155,noRew,,,,,,0,58,0,58,0,1,,,,,,,,,,,,,,,,,
298198,2022-11-16_11h54.27.760,vts_reward_expectancy_bt,2022.2.4,MacIntel,60.0024001,Chrome,1440,900,,,,,0,558,,,,,,,,,,,,,,,,,H,181,circle,1,0,,,,,,,,,,,,,,,,repeat,letter,lettRpt,d,1.1158,noRew,,,,,,0,59,0,59,0,1,,,,,,,,,,,,,,,,,
298198,2022-11-16_11h54.27.760,vts_reward_expectancy_bt,2022.2.4,MacIntel,60.0024001,Chrome,1440,900,,,,,0,558,,,,,,,,,,,,,,,,,S,174,hexagon,1,0,,,,,,,,,,,,,,,,repeat,letter,lettRpt,f,0.7607,noRew,,,,,,0,60,0,60,0,1,,,,,,,,,,,,,,,,,
298198,2022-11-16_11h54.27.760,vts_reward_expectancy_bt,2022.2.4,MacIntel,60.0024001,Chrome,1440,900,,,,,0,558,,,,,,,,,,,,,,,,,U,146,star,1,0,,,,,,,,,,,,,,,,repeat,letter,lettRpt,f,0.8585,noRew,,,,,,0,61,0,61,0,1,,,,,,,,,,,,,,,,,
298198,2022-11-16_11h54.27.760,vts_reward_expectancy_bt,2022.2.4,MacIntel,60.0024001,Chrome,1440,900,,,,,0,558,,,,,,,,,,,,,,,,,D,181,circle,1,0,,,,,,,,,,,,,,,,repeat,letter,lettRpt,d,1.0513,noRew,,,,,,0,62,0,62,0,1,,,,,,,,,,,,,,,,,
298198,2022-11-16_11h54.27.760,vts_reward_expectancy_bt,2022.2.4,MacIntel,60.0024001,Chrome,1440,900,,,,,0,558,,,,,,,,,,,,,,,,,Y,160,hexagon,1,0,,,,,,,,,,,,,,,,switch,number,numSwt,k,0.6514,noRew,,,,,,0,63,0,63,0,1,,,,,,,,,,,,,,,,,
298198,2022-11-16_11h54.27.760,vts_reward_expectancy_bt,2022.2.4,MacIntel,60.0024001,Chrome,1440,900,,,,,,,,,,,,,,,,,,,,,,,,,,,,,,,,,,,,,,,,,,,,,,,,,,,,,,,,,,,,,,,,,,,,,,,,,,,,
298198,2022-11-16_11h54.27.760,vts_reward_expectancy_bt,2022.2.4,MacIntel,60.0024001,Chrome,1440,900,,,,,0,558,,,,,,,,,,,,,,,,,U,181,circle,1,0,,,,,,,,,,,,,,,,switch,letter,lettSwt,f,1.167,Hi,,,,,,0,,,,,,space,16.4758,low,0,0,0,0,1,,,,,,,,,
298198,2022-11-16_11h54.27.760,vts_reward_expectancy_bt,2022.2.4,MacIntel,60.0024001,Chrome,1440,900,,,,,0,558,,,,,,,,,,,,,,,,,B,139,hexagon,0,0,,,,,,,,,,,,,,,,repeat,letter,NA,f,0.5667,Hi,,,,,,0,,,,,,,,low,1,0,1,0,1,,,,,,,,,
298198,2022-11-16_11h54.27.760,vts_reward_expectancy_bt,2022.2.4,MacIntel,60.0024001,Chrome,1440,900,,,,,1,559,,,,,,,,,,,,,,,,,F,174,star,1,1,,,,,,,,,,,,,,,,switch,number,numSwt,k,0.6322,Lo,,,,,,0,,,,,,,,low,2,0,2,0,1,,,,,,,,,
298198,2022-11-16_11h54.27.760,vts_reward_expectancy_bt,2022.2.4,MacIntel,60.0024001,Chrome,1440,900,,,,,10,569,,,,,,,,,,,,,,,,,D,132,triangle,1,0,,,,,,,,,,,,,,,,switch,letter,lettSwt,d,0.584,Hi,,,,,,0,,,,,,,,low,3,0,3,0,1,,,,,,,,,
298198,2022-11-16_11h54.27.760,vts_reward_expectancy_bt,2022.2.4,MacIntel,60.0024001,Chrome,1440,900,,,,,0,569,,,,,,,,,,,,,,,,,H,146,circle,1,0,,,,,,,,,,,,,,,,switch,number,numSwt,j,0.9333,Hi,,,,,,0,,,,,,,,low,4,0,4,0,1,,,,,,,,,
298198,2022-11-16_11h54.27.760,vts_reward_expectancy_bt,2022.2.4,MacIntel,60.0024001,Chrome,1440,900,,,,,10,579,,,,,,,,,,,,,,,,,Y,160,hexagon,1,0,,,,,,,,,,,,,,,,repeat,number,numRpt,k,0.5273,Lo,,,,,,0,,,,,,,,low,5,0,5,0,1,,,,,,,,,
298198,2022-11-16_11h54.27.760,vts_reward_expectancy_bt,2022.2.4,MacIntel,60.0024001,Chrome,1440,900,,,,,1,580,,,,,,,,,,,,,,,,,S,125,star,1,0,,,,,,,,,,,,,,,,switch,letter,lettSwt,f,0.4803,Lo,,,,,,0,,,,,,,,low,6,0,6,0,1,,,,,,,,,
298198,2022-11-16_11h54.27.760,vts_reward_expectancy_bt,2022.2.4,MacIntel,60.0024001,Chrome,1440,900,,,,,10,590,,,,,,,,,,,,,,,,,W,167,triangle,1,0,,,,,,,,,,,,,,,,repeat,letter,lettRpt,f,0.6394,Hi,,,,,,0,,,,,,,,low,7,0,7,0,1,,,,,,,,,
298198,2022-11-16_11h54.27.760,vts_reward_expectancy_bt,2022.2.4,MacIntel,60.0024001,Chrome,1440,900,,,,,10,600,,,,,,,,,,,,,,,,,U,181,circle,1,0,,,,,,,,,,,,,,,,switch,number,numSwt,k,0.5358,Hi,,,,,,0,,,,,,,,low,8,0,8,0,1,,,,,,,,,
298198,2022-11-16_11h54.27.760,vts_reward_expectancy_bt,2022.2.4,MacIntel,60.0024001,Chrome,1440,900,,,,,10,610,,,,,,,,,,,,,,,,,B,139,triangle,1,0,,,,,,,,,,,,,,,,repeat,number,numRpt,j,0.7639,Hi,,,,,,0,,,,,,,,low,9,0,9,0,1,,,,,,,,,
298198,2022-11-16_11h54.27.760,vts_reward_expectancy_bt,2022.2.4,MacIntel,60.0024001,Chrome,1440,900,,,,,1,611,,,,,,,,,,,,,,,,,F,174,star,1,0,,,,,,,,,,,,,,,,switch,letter,lettSwt,d,0.5148,Lo,,,,,,0,,,,,,,,low,10,0,10,0,1,,,,,,,,,
298198,2022-11-16_11h54.27.760,vts_reward_expectancy_bt,2022.2.4,MacIntel,60.0024001,Chrome,1440,900,,,,,10,621,,,,,,,,,,,,,,,,,D,132,hexagon,1,0,,,,,,,,,,,,,,,,repeat,letter,lettRpt,d,0.6099,Lo,,,,,,0,,,,,,,,low,11,0,11,0,1,,,,,,,,,
298198,2022-11-16_11h54.27.760,vts_reward_expectancy_bt,2022.2.4,MacIntel,60.0024001,Chrome,1440,900,,,,,0,621,,,,,,,,,,,,,,,,,H,146,triangle,1,0,,,,,,,,,,,,,,,,switch,number,numSwt,j,0.9137,Hi,,,,,,0,,,,,,,,low,12,0,12,0,1,,,,,,,,,
298198,2022-11-16_11h54.27.760,vts_reward_expectancy_bt,2022.2.4,MacIntel,60.0024001,Chrome,1440,900,,,,,10,631,,,,,,,,,,,,,,,,,Y,160,circle,1,0,,,,,,,,,,,,,,,,switch,letter,lettSwt,f,0.5837,Hi,,,,,,0,,,,,,,,low,13,0,13,0,1,,,,,,,,,
298198,2022-11-16_11h54.27.760,vts_reward_expectancy_bt,2022.2.4,MacIntel,60.0024001,Chrome,1440,900,,,,,1,632,,,,,,,,,,,,,,,,,S,125,star,1,0,,,,,,,,,,,,,,,,switch,number,numSwt,j,0.5145,Lo,,,,,,0,,,,,,,,low,14,0,14,0,1,,,,,,,,,
298198,2022-11-16_11h54.27.760,vts_reward_expectancy_bt,2022.2.4,MacIntel,60.0024001,Chrome,1440,900,,,,,1,633,,,,,,,,,,,,,,,,,W,167,hexagon,1,0,,,,,,,,,,,,,,,,switch,letter,lettSwt,f,0.5302,Lo,,,,,,0,,,,,,,,low,15,0,15,0,1,,,,,,,,,
298198,2022-11-16_11h54.27.760,vts_reward_expectancy_bt,2022.2.4,MacIntel,60.0024001,Chrome,1440,900,,,,,1,634,,,,,,,,,,,,,,,,,W,139,circle,1,0,,,,,,,,,,,,,,,,switch,number,numSwt,j,0.3951,Hi,,,,,,0,,,,,,,,low,16,0,16,0,1,,,,,,,,,
298198,2022-11-16_11h54.27.760,vts_reward_expectancy_bt,2022.2.4,MacIntel,60.0024001,Chrome,1440,900,,,,,1,635,,,,,,,,,,,,,,,,,U,174,hexagon,1,0,,,,,,,,,,,,,,,,switch,letter,lettSwt,f,0.6505,Lo,,,,,,0,,,,,,,,low,17,0,17,0,1,,,,,,,,,
298198,2022-11-16_11h54.27.760,vts_reward_expectancy_bt,2022.2.4,MacIntel,60.0024001,Chrome,1440,900,,,,,1,636,,,,,,,,,,,,,,,,,D,181,triangle,1,0,,,,,,,,,,,,,,,,switch,number,numSwt,k,0.4988,Hi,,,,,,0,,,,,,,,low,18,0,18,0,1,,,,,,,,,
298198,2022-11-16_11h54.27.760,vts_reward_expectancy_bt,2022.2.4,MacIntel,60.0024001,Chrome,1440,900,,,,,10,646,,,,,,,,,,,,,,,,,B,167,star,1,0,,,,,,,,,,,,,,,,switch,letter,lettSwt,d,0.4149,Lo,,,,,,0,,,,,,,,low,19,0,19,0,1,,,,,,,,,
298198,2022-11-16_11h54.27.760,vts_reward_expectancy_bt,2022.2.4,MacIntel,60.0024001,Chrome,1440,900,,,,,10,656,,,,,,,,,,,,,,,,,Y,146,star,1,0,,,,,,,,,,,,,,,,repeat,letter,lettRpt,f,0.4793,Lo,,,,,,0,,,,,,,,low,20,0,20,0,1,,,,,,,,,
298198,2022-11-16_11h54.27.760,vts_reward_expectancy_bt,2022.2.4,MacIntel,60.0024001,Chrome,1440,900,,,,,10,666,,,,,,,,,,,,,,,,,F,132,hexagon,1,0,,,,,,,,,,,,,,,,repeat,letter,lettRpt,d,0.6972,Lo,,,,,,0,,,,,,,,low,21,0,21,0,1,,,,,,,,,
298198,2022-11-16_11h54.27.760,vts_reward_expectancy_bt,2022.2.4,MacIntel,60.0024001,Chrome,1440,900,,,,,10,676,,,,,,,,,,,,,,,,,H,160,circle,1,0,,,,,,,,,,,,,,,,switch,number,numSwt,k,0.6652,Hi,,,,,,0,,,,,,,,low,22,0,22,0,1,,,,,,,,,
298198,2022-11-16_11h54.27.760,vts_reward_expectancy_bt,2022.2.4,MacIntel,60.0024001,Chrome,1440,900,,,,,1,677,,,,,,,,,,,,,,,,,S,125,triangle,1,0,,,,,,,,,,,,,,,,repeat,number,numRpt,j,0.7019,Hi,,,,,,0,,,,,,,,low,23,0,23,0,1,,,,,,,,,
298198,2022-11-16_11h54.27.760,vts_reward_expectancy_bt,2022.2.4,MacIntel,60.0024001,Chrome,1440,900,,,,,1,678,,,,,,,,,,,,,,,,,Y,125,star,1,0,,,,,,,,,,,,,,,,switch,letter,lettSwt,f,0.5006,Lo,,,,,,0,,,,,,,,low,24,0,24,0,1,,,,,,,,,
298198,2022-11-16_11h54.27.760,vts_reward_expectancy_bt,2022.2.4,MacIntel,60.0024001,Chrome,1440,900,,,,,10,688,,,,,,,,,,,,,,,,,F,160,hexagon,1,0,,,,,,,,,,,,,,,,switch,number,numSwt,k,0.5482,Lo,,,,,,0,,,,,,,,low,25,0,25,0,1,,,,,,,,,
298198,2022-11-16_11h54.27.760,vts_reward_expectancy_bt,2022.2.4,MacIntel,60.0024001,Chrome,1440,900,,,,,1,689,,,,,,,,,,,,,,,,,D,139,triangle,1,0,,,,,,,,,,,,,,,,switch,letter,lettSwt,d,0.7149,Hi,,,,,,0,,,,,,,,low,26,0,26,0,1,,,,,,,,,
298198,2022-11-16_11h54.27.760,vts_reward_expectancy_bt,2022.2.4,MacIntel,60.0024001,Chrome,1440,900,,,,,0,689,,,,,,,,,,,,,,,,,S,167,circle,0,0,,,,,,,,,,,,,,,,switch,number,NA,j,0.5478,Hi,,,,,,0,,,,,,,,low,27,0,27,0,1,,,,,,,,,
298198,2022-11-16_11h54.27.760,vts_reward_expectancy_bt,2022.2.4,MacIntel,60.0024001,Chrome,1440,900,,,,,1,690,,,,,,,,,,,,,,,,,H,181,star,1,1,,,,,,,,,,,,,,,,repeat,number,numRpt,k,0.5358,Lo,,,,,,0,,,,,,,,low,28,0,28,0,1,,,,,,,,,
298198,2022-11-16_11h54.27.760,vts_reward_expectancy_bt,2022.2.4,MacIntel,60.0024001,Chrome,1440,900,,,,,10,700,,,,,,,,,,,,,,,,,U,132,circle,1,0,,,,,,,,,,,,,,,,switch,letter,lettSwt,f,0.5146,Hi,,,,,,0,,,,,,,,low,29,0,29,0,1,,,,,,,,,
298198,2022-11-16_11h54.27.760,vts_reward_expectancy_bt,2022.2.4,MacIntel,60.0024001,Chrome,1440,900,,,,,10,710,,,,,,,,,,,,,,,,,W,146,hexagon,1,0,,,,,,,,,,,,,,,,repeat,letter,lettRpt,f,0.6633,Lo,,,,,,0,,,,,,,,low,30,0,30,0,1,,,,,,,,,
298198,2022-11-16_11h54.27.760,vts_reward_expectancy_bt,2022.2.4,MacIntel,60.0024001,Chrome,1440,900,,,,,10,720,,,,,,,,,,,,,,,,,B,174,triangle,1,0,,,,,,,,,,,,,,,,switch,number,numSwt,k,0.485,Hi,,,,,,0,,,,,,,,low,31,0,31,0,1,,,,,,,,,
298198,2022-11-16_11h54.27.760,vts_reward_expectancy_bt,2022.2.4,MacIntel,60.0024001,Chrome,1440,900,,,,,0,720,,,,,,,,,,,,,,,,,S,125,circle,1,0,,,,,,,,,,,,,,,,switch,letter,lettSwt,f,0.7454,Hi,,,,,,1,,,,,,space,1.2324,low,0,0,0,0,1,,,,,,,,,
298198,2022-11-16_11h54.27.760,vts_reward_expectancy_bt,2022.2.4,MacIntel,60.0024001,Chrome,1440,900,,,,,1,721,,,,,,,,,,,,,,,,,B,132,star,1,0,,,,,,,,,,,,,,,,repeat,letter,lettRpt,d,0.4946,Lo,,,,,,1,,,,,,,,low,1,0,1,0,1,,,,,,,,,
298198,2022-11-16_11h54.27.760,vts_reward_expectancy_bt,2022.2.4,MacIntel,60.0024001,Chrome,1440,900,,,,,1,722,,,,,,,,,,,,,,,,,F,167,hexagon,1,0,,,,,,,,,,,,,,,,switch,number,numSwt,k,0.4648,Lo,,,,,,1,,,,,,,,low,2,0,2,0,1,,,,,,,,,
298198,2022-11-16_11h54.27.760,vts_reward_expectancy_bt,2022.2.4,MacIntel,60.0024001,Chrome,1440,900,,,,,0,722,,,,,,,,,,,,,,,,,H,181,triangle,0,0,,,,,,,,,,,,,,,,repeat,number,NA,j,0.4837,Lo,,,,,,1,,,,,,,,low,3,0,3,0,1,,,,,,,,,
298198,2022-11-16_11h54.27.760,vts_reward_expectancy_bt,2022.2.4,MacIntel,60.0024001,Chrome,1440,900,,,,,0,722,,,,,,,,,,,,,,,,,W,174,circle,1,1,,,,,,,,,,,,,,,,switch,letter,lettSwt,f,0.5339,Hi,,,,,,1,,,,,,,,low,4,0,4,0,1,,,,,,,,,
298198,2022-11-16_11h54.27.760,vts_reward_expectancy_bt,2022.2.4,MacIntel,60.0024001,Chrome,1440,900,,,,,1,723,,,,,,,,,,,,,,,,,U,146,star,1,0,,,,,,,,,,,,,,,,repeat,letter,lettRpt,f,0.5085,Lo,,,,,,1,,,,,,,,low,5,0,5,0,1,,,,,,,,,
298198,2022-11-16_11h54.27.760,vts_reward_expectancy_bt,2022.2.4,MacIntel,60.0024001,Chrome,1440,900,,,,,1,724,,,,,,,,,,,,,,,,,D,160,hexagon,1,0,,,,,,,,,,,,,,,,switch,number,numSwt,k,0.5207,Lo,,,,,,1,,,,,,,,low,6,0,6,0,1,,,,,,,,,
298198,2022-11-16_11h54.27.760,vts_reward_expectancy_bt,2022.2.4,MacIntel,60.0024001,Chrome,1440,900,,,,,0,724,,,,,,,,,,,,,,,,,Y,139,triangle,1,0,,,,,,,,,,,,,,,,switch,letter,lettSwt,f,0.566,Hi,,,,,,1,,,,,,,,low,7,0,7,0,1,,,,,,,,,
298198,2022-11-16_11h54.27.760,vts_reward_expectancy_bt,2022.2.4,MacIntel,60.0024001,Chrome,1440,900,,,,,1,725,,,,,,,,,,,,,,,,,S,125,hexagon,1,0,,,,,,,,,,,,,,,,repeat,letter,lettRpt,f,0.4919,Lo,,,,,,1,,,,,,,,low,8,0,8,0,1,,,,,,,,,
298198,2022-11-16_11h54.27.760,vts_reward_expectancy_bt,2022.2.4,MacIntel,60.0024001,Chrome,1440,900,,,,,1,726,,,,,,,,,,,,,,,,,B,132,star,1,0,,,,,,,,,,,,,,,,repeat,letter,lettRpt,d,0.3982,Lo,,,,,,1,,,,,,,,low,9,0,9,0,1,,,,,,,,,
298198,2022-11-16_11h54.27.760,vts_reward_expectancy_bt,2022.2.4,MacIntel,60.0024001,Chrome,1440,900,,,,,10,736,,,,,,,,,,,,,,,,,F,167,circle,1,0,,,,,,,,,,,,,,,,switch,number,numSwt,k,0.4179,Hi,,,,,,1,,,,,,,,low,10,0,10,0,1,,,,,,,,,
298198,2022-11-16_11h54.27.760,vts_reward_expectancy_bt,2022.2.4,MacIntel,60.0024001,Chrome,1440,900,,,,,0,736,,,,,,,,,,,,,,,,,H,181,triangle,1,0,,,,,,,,,,,,,,,,switch,letter,lettSwt,d,0.6337,Hi,,,,,,1,,,,,,,,low,11,0,11,0,1,,,,,,,,,
298198,2022-11-16_11h54.27.760,vts_reward_expectancy_bt,2022.2.4,MacIntel,60.0024001,Chrome,1440,900,,,,,10,746,,,,,,,,,,,,,,,,,W,174,circle,1,0,,,,,,,,,,,,,,,,switch,number,numSwt,k,0.4426,Hi,,,,,,1,,,,,,,,low,12,0,12,0,1,,,,,,,,,
298198,2022-11-16_11h54.27.760,vts_reward_expectancy_bt,2022.2.4,MacIntel,60.0024001,Chrome,1440,900,,,,,10,756,,,,,,,,,,,,,,,,,U,146,star,1,0,,,,,,,,,,,,,,,,repeat,number,numRpt,j,0.4217,Lo,,,,,,1,,,,,,,,low,13,0,13,0,1,,,,,,,,,
298198,2022-11-16_11h54.27.760,vts_reward_expectancy_bt,2022.2.4,MacIntel,60.0024001,Chrome,1440,900,,,,,10,766,,,,,,,,,,,,,,,,,D,160,triangle,1,0,,,,,,,,,,,,,,,,repeat,number,numRpt,k,0.4122,Hi,,,,,,1,,,,,,,,low,14,0,14,0,1,,,,,,,,,
298198,2022-11-16_11h54.27.760,vts_reward_expectancy_bt,2022.2.4,MacIntel,60.0024001,Chrome,1440,900,,,,,1,767,,,,,,,,,,,,,,,,,Y,139,hexagon,1,0,,,,,,,,,,,,,,,,switch,letter,lettSwt,f,0.492,Lo,,,,,,1,,,,,,,,low,15,0,15,0,1,,,,,,,,,
298198,2022-11-16_11h54.27.760,vts_reward_expectancy_bt,2022.2.4,MacIntel,60.0024001,Chrome,1440,900,,,,,1,768,,,,,,,,,,,,,,,,,U,139,star,1,0,,,,,,,,,,,,,,,,repeat,letter,lettRpt,f,0.6113,Lo,,,,,,1,,,,,,,,low,16,0,16,0,1,,,,,,,,,
298198,2022-11-16_11h54.27.760,vts_reward_expectancy_bt,2022.2.4,MacIntel,60.0024001,Chrome,1440,900,,,,,10,778,,,,,,,,,,,,,,,,,B,146,triangle,1,0,,,,,,,,,,,,,,,,repeat,letter,lettRpt,d,0.3827,Hi,,,,,,1,,,,,,,,low,17,0,17,0,1,,,,,,,,,
298198,2022-11-16_11h54.27.760,vts_reward_expectancy_bt,2022.2.4,MacIntel,60.0024001,Chrome,1440,900,,,,,10,788,,,,,,,,,,,,,,,,,D,160,circle,1,0,,,,,,,,,,,,,,,,repeat,letter,lettRpt,d,0.5497,Hi,,,,,,1,,,,,,,,low,18,0,18,0,1,,,,,,,,,
298198,2022-11-16_11h54.27.760,vts_reward_expectancy_bt,2022.2.4,MacIntel,60.0024001,Chrome,1440,900,,,,,10,798,,,,,,,,,,,,,,,,,F,132,hexagon,1,0,,,,,,,,,,,,,,,,switch,number,numSwt,j,0.4648,Lo,,,,,,1,,,,,,,,low,19,0,19,0,1,,,,,,,,,
298198,2022-11-16_11h54.27.760,vts_reward_expectancy_bt,2022.2.4,MacIntel,60.0024001,Chrome,1440,900,,,,,10,808,,,,,,,,,,,,,,,,,Y,181,star,1,0,,,,,,,,,,,,,,,,switch,letter,lettSwt,f,0.58,Lo,,,,,,1,,,,,,,,low,20,0,20,0,1,,,,,,,,,
298198,2022-11-16_11h54.27.760,vts_reward_expectancy_bt,2022.2.4,MacIntel,60.0024001,Chrome,1440,900,,,,,1,809,,,,,,,,,,,,,,,,,S,125,hexagon,1,0,,,,,,,,,,,,,,,,switch,number,numSwt,j,0.5089,Lo,,,,,,1,,,,,,,,low,21,0,21,0,1,,,,,,,,,
298198,2022-11-16_11h54.27.760,vts_reward_expectancy_bt,2022.2.4,MacIntel,60.0024001,Chrome,1440,900,,,,,0,809,,,,,,,,,,,,,,,,,W,167,circle,1,0,,,,,,,,,,,,,,,,switch,letter,lettSwt,f,0.5793,Hi,,,,,,1,,,,,,,,low,22,0,22,0,1,,,,,,,,,
298198,2022-11-16_11h54.27.760,vts_reward_expectancy_bt,2022.2.4,MacIntel,60.0024001,Chrome,1440,900,,,,,10,819,,,,,,,,,,,,,,,,,H,174,triangle,1,0,,,,,,,,,,,,,,,,switch,number,numSwt,k,0.5061,Hi,,,,,,1,,,,,,,,low,23,0,23,0,1,,,,,,,,,
298198,2022-11-16_11h54.27.760,vts_reward_expectancy_bt,2022.2.4,MacIntel,60.0024001,Chrome,1440,900,,,,,1,820,,,,,,,,,,,,,,,,,B,125,hexagon,1,0,,,,,,,,,,,,,,,,repeat,number,numRpt,j,0.5313,Lo,,,,,,1,,,,,,,,low,24,0,24,0,1,,,,,,,,,
298198,2022-11-16_11h54.27.760,vts_reward_expectancy_bt,2022.2.4,MacIntel,60.0024001,Chrome,1440,900,,,,,0,820,,,,,,,,,,,,,,,,,D,132,circle,1,0,,,,,,,,,,,,,,,,switch,letter,lettSwt,d,0.567,Hi,,,,,,1,,,,,,,,low,25,0,25,0,1,,,,,,,,,
298198,2022-11-16_11h54.27.760,vts_reward_expectancy_bt,2022.2.4,MacIntel,60.0024001,Chrome,1440,900,,,,,0,820,,,,,,,,,,,,,,,,,W,181,triangle,1,0,,,,,,,,,,,,,,,,repeat,letter,lettRpt,f,0.6783,Hi,,,,,,1,,,,,,,,low,26,0,26,0,1,,,,,,,,,
298198,2022-11-16_11h54.27.760,vts_reward_expectancy_bt,2022.2.4,MacIntel,60.0024001,Chrome,1440,900,,,,,1,821,,,,,,,,,,,,,,,,,S,139,star,1,0,,,,,,,,,,,,,,,,switch,number,numSwt,j,0.6614,Lo,,,,,,1,,,,,,,,low,27,0,27,0,1,,,,,,,,,
298198,2022-11-16_11h54.27.760,vts_reward_expectancy_bt,2022.2.4,MacIntel,60.0024001,Chrome,1440,900,,,,,0,821,,,,,,,,,,,,,,,,,U,146,star,0,0,,,,,,,,,,,,,,,,repeat,number,NA,k,0.5133,Lo,,,,,,1,,,,,,,,low,28,0,28,0,1,,,,,,,,,
298198,2022-11-16_11h54.27.760,vts_reward_expectancy_bt,2022.2.4,MacIntel,60.0024001,Chrome,1440,900,,,,,0,821,,,,,,,,,,,,,,,,,F,167,circle,1,1,,,,,,,,,,,,,,,,switch,letter,lettSwt,d,0.7699,Hi,,,,,,1,,,,,,,,low,29,0,29,0,1,,,,,,,,,
298198,2022-11-16_11h54.27.760,vts_reward_expectancy_bt,2022.2.4,MacIntel,60.0024001,Chrome,1440,900,,,,,1,822,,,,,,,,,,,,,,,,,Y,174,hexagon,1,0,,,,,,,,,,,,,,,,repeat,letter,lettRpt,f,0.6576,Lo,,,,,,1,,,,,,,,low,30,0,30,0,1,,,,,,,,,
298198,2022-11-16_11h54.27.760,vts_reward_expectancy_bt,2022.2.4,MacIntel,60.0024001,Chrome,1440,900,,,,,10,832,,,,,,,,,,,,,,,,,H,160,triangle,1,0,,,,,,,,,,,,,,,,switch,number,numSwt,k,0.5136,Hi,,,,,,1,,,,,,,,low,31,0,31,0,1,,,,,,,,,
298198,2022-11-16_11h54.27.760,vts_reward_expectancy_bt,2022.2.4,MacIntel,60.0024001,Chrome,1440,900,,,,,0,832,,,,,,,,,,,,,,,,,W,146,triangle,1,0,,,,,,,,,,,,,,,,switch,letter,lettSwt,f,0.7485,Hi,,,,,,2,,,,,,space,1.0513,low,0,0,0,0,1,,,,,,,,,
298198,2022-11-16_11h54.27.760,vts_reward_expectancy_bt,2022.2.4,MacIntel,60.0024001,Chrome,1440,900,,,,,1,833,,,,,,,,,,,,,,,,,D,125,hexagon,1,0,,,,,,,,,,,,,,,,switch,number,numSwt,j,0.5683,Lo,,,,,,2,,,,,,,,low,1,0,1,0,1,,,,,,,,,
298198,2022-11-16_11h54.27.760,vts_reward_expectancy_bt,2022.2.4,MacIntel,60.0024001,Chrome,1440,900,,,,,0,833,,,,,,,,,,,,,,,,,H,139,circle,1,0,,,,,,,,,,,,,,,,repeat,number,numRpt,j,0.6702,Hi,,,,,,2,,,,,,,,low,2,0,2,0,1,,,,,,,,,
298198,2022-11-16_11h54.27.760,vts_reward_expectancy_bt,2022.2.4,MacIntel,60.0024001,Chrome,1440,900,,,,,10,843,,,,,,,,,,,,,,,,,B,160,star,1,0,,,,,,,,,,,,,,,,switch,letter,lettSwt,d,0.3626,Lo,,,,,,2,,,,,,,,low,3,0,3,0,1,,,,,,,,,
298198,2022-11-16_11h54.27.760,vts_reward_expectancy_bt,2022.2.4,MacIntel,60.0024001,Chrome,1440,900,,,,,0,843,,,,,,,,,,,,,,,,,F,174,triangle,1,0,,,,,,,,,,,,,,,,repeat,letter,lettRpt,d,0.5933,Hi,,,,,,2,,,,,,,,low,4,0,4,0,1,,,,,,,,,
298198,2022-11-16_11h54.27.760,vts_reward_expectancy_bt,2022.2.4,MacIntel,60.0024001,Chrome,1440,900,,,,,1,844,,,,,,,,,,,,,,,,,Y,167,hexagon,1,0,,,,,,,,,,,,,,,,switch,number,numSwt,k,0.4945,Lo,,,,,,2,,,,,,,,low,5,0,5,0,1,,,,,,,,,
298198,2022-11-16_11h54.27.760,vts_reward_expectancy_bt,2022.2.4,MacIntel,60.0024001,Chrome,1440,900,,,,,0,844,,,,,,,,,,,,,,,,,U,181,circle,0,0,,,,,,,,,,,,,,,,switch,letter,NA,d,0.3862,Lo,,,,,,2,,,,,,,,low,6,0,6,0,1,,,,,,,,,
298198,2022-11-16_11h54.27.760,vts_reward_expectancy_bt,2022.2.4,MacIntel,60.0024001,Chrome,1440,900,,,,,10,854,,,,,,,,,,,,,,,,,S,132,star,1,1,,,,,,,,,,,,,,,,repeat,letter,lettRpt,f,0.5801,Lo,,,,,,2,,,,,,,,low,7,0,7,0,1,,,,,,,,,
298198,2022-11-16_11h54.27.760,vts_reward_expectancy_bt,2022.2.4,MacIntel,60.0024001,Chrome,1440,900,,,,,1,855,,,,,,,,,,,,,,,,,W,146,star,1,0,,,,,,,,,,,,,,,,switch,number,numSwt,j,0.7284,Lo,,,,,,2,,,,,,,,low,8,0,8,0,1,,,,,,,,,
298198,2022-11-16_11h54.27.760,vts_reward_expectancy_bt,2022.2.4,MacIntel,60.0024001,Chrome,1440,900,,,,,0,855,,,,,,,,,,,,,,,,,D,125,circle,1,0,,,,,,,,,,,,,,,,repeat,number,numRpt,j,0.4844,Hi,,,,,,2,,,,,,,,low,9,0,9,0,1,,,,,,,,,
298198,2022-11-16_11h54.27.760,vts_reward_expectancy_bt,2022.2.4,MacIntel,60.0024001,Chrome,1440,900,,,,,1,856,,,,,,,,,,,,,,,,,H,139,hexagon,1,0,,,,,,,,,,,,,,,,switch,letter,lettSwt,d,0.6203,Lo,,,,,,2,,,,,,,,low,10,0,10,0,1,,,,,,,,,
298198,2022-11-16_11h54.27.760,vts_reward_expectancy_bt,2022.2.4,MacIntel,60.0024001,Chrome,1440,900,,,,,0,856,,,,,,,,,,,,,,,,,B,160,triangle,1,0,,,,,,,,,,,,,,,,switch,number,numSwt,k,0.5157,Hi,,,,,,2,,,,,,,,low,11,0,11,0,1,,,,,,,,,
298198,2022-11-16_11h54.27.760,vts_reward_expectancy_bt,2022.2.4,MacIntel,60.0024001,Chrome,1440,900,,,,,0,856,,,,,,,,,,,,,,,,,F,174,triangle,1,0,,,,,,,,,,,,,,,,repeat,number,numRpt,k,0.5649,Hi,,,,,,2,,,,,,,,low,12,0,12,0,1,,,,,,,,,
298198,2022-11-16_11h54.27.760,vts_reward_expectancy_bt,2022.2.4,MacIntel,60.0024001,Chrome,1440,900,,,,,10,866,,,,,,,,,,,,,,,,,Y,167,circle,1,0,,,,,,,,,,,,,,,,switch,letter,lettSwt,f,0.5475,Hi,,,,,,2,,,,,,,,low,13,0,13,0,1,,,,,,,,,
298198,2022-11-16_11h54.27.760,vts_reward_expectancy_bt,2022.2.4,MacIntel,60.0024001,Chrome,1440,900,,,,,1,867,,,,,,,,,,,,,,,,,U,181,hexagon,1,0,,,,,,,,,,,,,,,,repeat,letter,lettRpt,f,0.4974,Lo,,,,,,2,,,,,,,,low,14,0,14,0,1,,,,,,,,,
298198,2022-11-16_11h54.27.760,vts_reward_expectancy_bt,2022.2.4,MacIntel,60.0024001,Chrome,1440,900,,,,,1,868,,,,,,,,,,,,,,,,,S,132,star,1,0,,,,,,,,,,,,,,,,repeat,letter,lettRpt,f,0.5984,Lo,,,,,,2,,,,,,,,low,15,0,15,0,1,,,,,,,,,
298198,2022-11-16_11h54.27.760,vts_reward_expectancy_bt,2022.2.4,MacIntel,60.0024001,Chrome,1440,900,,,,,1,869,,,,,,,,,,,,,,,,,B,132,triangle,1,0,,,,,,,,,,,,,,,,repeat,letter,lettRpt,d,0.4064,Hi,,,,,,2,,,,,,,,low,16,0,16,0,1,,,,,,,,,
298198,2022-11-16_11h54.27.760,vts_reward_expectancy_bt,2022.2.4,MacIntel,60.0024001,Chrome,1440,900,,,,,1,870,,,,,,,,,,,,,,,,,H,160,hexagon,1,0,,,,,,,,,,,,,,,,switch,number,numSwt,k,0.4772,Lo,,,,,,2,,,,,,,,low,17,0,17,0,1,,,,,,,,,
298198,2022-11-16_11h54.27.760,vts_reward_expectancy_bt,2022.2.4,MacIntel,60.0024001,Chrome,1440,900,,,,,0,870,,,,,,,,,,,,,,,,,S,146,circle,0,0,,,,,,,,,,,,,,,,repeat,number,NA,k,0.4657,Lo,,,,,,2,,,,,,,,low,18,0,18,0,1,,,,,,,,,
298198,2022-11-16_11h54.27.760,vts_reward_expectancy_bt,2022.2.4,MacIntel,60.0024001,Chrome,1440,900,,,,,1,871,,,,,,,,,,,,,,,,,U,174,star,1,1,,,,,,,,,,,,,,,,switch,letter,lettSwt,f,0.4484,Lo,,,,,,2,,,,,,,,low,19,0,19,0,1,,,,,,,,,
298198,2022-11-16_11h54.27.760,vts_reward_expectancy_bt,2022.2.4,MacIntel,60.0024001,Chrome,1440,900,,,,,1,872,,,,,,,,,,,,,,,,,Y,167,star,1,0,,,,,,,,,,,,,,,,switch,number,numSwt,k,0.4843,Lo,,,,,,2,,,,,,,,low,20,0,20,0,1,,,,,,,,,
298198,2022-11-16_11h54.27.760,vts_reward_expectancy_bt,2022.2.4,MacIntel,60.0024001,Chrome,1440,900,,,,,10,882,,,,,,,,,,,,,,,,,W,125,hexagon,1,0,,,,,,,,,,,,,,,,repeat,number,numRpt,j,0.3826,Lo,,,,,,2,,,,,,,,low,21,0,21,0,1,,,,,,,,,
298198,2022-11-16_11h54.27.760,vts_reward_expectancy_bt,2022.2.4,MacIntel,60.0024001,Chrome,1440,900,,,,,1,883,,,,,,,,,,,,,,,,,D,181,triangle,1,0,,,,,,,,,,,,,,,,repeat,number,numRpt,k,0.4133,Hi,,,,,,2,,,,,,,,low,22,0,22,0,1,,,,,,,,,
298198,2022-11-16_11h54.27.760,vts_reward_expectancy_bt,2022.2.4,MacIntel,60.0024001,Chrome,1440,900,,,,,10,893,,,,,,,,,,,,,,,,,F,139,circle,1,0,,,,,,,,,,,,,,,,switch,letter,lettSwt,d,0.3788,Hi,,,,,,2,,,,,,,,low,23,0,23,0,1,,,,,,,,,
298198,2022-11-16_11h54.27.760,vts_reward_expectancy_bt,2022.2.4,MacIntel,60.0024001,Chrome,1440,900,,,,,10,903,,,,,,,,,,,,,,,,,Y,139,hexagon,1,0,,,,,,,,,,,,,,,,repeat,letter,lettRpt,f,0.3606,Lo,,,,,,2,,,,,,,,low,24,0,24,0,1,,,,,,,,,
298198,2022-11-16_11h54.27.760,vts_reward_expectancy_bt,2022.2.4,MacIntel,60.0024001,Chrome,1440,900,,,,,0,903,,,,,,,,,,,,,,,,,D,167,circle,1,0,,,,,,,,,,,,,,,,switch,number,numSwt,k,0.8018,Hi,,,,,,2,,,,,,,,low,25,0,25,0,1,,,,,,,,,
298198,2022-11-16_11h54.27.760,vts_reward_expectancy_bt,2022.2.4,MacIntel,60.0024001,Chrome,1440,900,,,,,1,904,,,,,,,,,,,,,,,,,S,146,star,1,0,,,,,,,,,,,,,,,,repeat,number,numRpt,j,0.5308,Lo,,,,,,2,,,,,,,,low,26,0,26,0,1,,,,,,,,,
298198,2022-11-16_11h54.27.760,vts_reward_expectancy_bt,2022.2.4,MacIntel,60.0024001,Chrome,1440,900,,,,,0,904,,,,,,,,,,,,,,,,,U,160,triangle,1,0,,,,,,,,,,,,,,,,switch,letter,lettSwt,f,0.6161,Hi,,,,,,2,,,,,,,,low,27,0,27,0,1,,,,,,,,,
298198,2022-11-16_11h54.27.760,vts_reward_expectancy_bt,2022.2.4,MacIntel,60.0024001,Chrome,1440,900,,,,,0,904,,,,,,,,,,,,,,,,,B,181,hexagon,0,0,,,,,,,,,,,,,,,,repeat,letter,NA,f,0.3699,Hi,,,,,,2,,,,,,,,low,28,0,28,0,1,,,,,,,,,
298198,2022-11-16_11h54.27.760,vts_reward_expectancy_bt,2022.2.4,MacIntel,60.0024001,Chrome,1440,900,,,,,10,914,,,,,,,,,,,,,,,,,H,132,star,1,1,,,,,,,,,,,,,,,,repeat,letter,lettRpt,d,0.4358,Lo,,,,,,2,,,,,,,,low,29,0,29,0,1,,,,,,,,,
298198,2022-11-16_11h54.27.760,vts_reward_expectancy_bt,2022.2.4,MacIntel,60.0024001,Chrome,1440,900,,,,,0,914,,,,,,,,,,,,,,,,,F,174,circle,1,0,,,,,,,,,,,,,,,,repeat,letter,lettRpt,d,0.4938,Hi,,,,,,2,,,,,,,,low,30,0,30,0,1,,,,,,,,,
298198,2022-11-16_11h54.27.760,vts_reward_expectancy_bt,2022.2.4,MacIntel,60.0024001,Chrome,1440,900,,,,,0,914,,,,,,,,,,,,,,,,,W,125,triangle,0,0,,,,,,,,,,,,,,,,repeat,letter,NA,d,0.4665,Hi,,,,,,2,,,,,,,,low,31,0,31,0,1,,,,,,,,,
298198,2022-11-16_11h54.27.760,vts_reward_expectancy_bt,2022.2.4,MacIntel,60.0024001,Chrome,1440,900,,,,,1,915,,,,,,,,,,,,,,,,,H,125,hexagon,1,1,,,,,,,,,,,,,,,,repeat,letter,lettRpt,d,0.4142,Lo,,,,,,3,,,,,,space,2.0511,low,0,0,0,0,1,,,,,,,,,
298198,2022-11-16_11h54.27.760,vts_reward_expectancy_bt,2022.2.4,MacIntel,60.0024001,Chrome,1440,900,,,,,0,915,,,,,,,,,,,,,,,,,U,167,circle,0,0,,,,,,,,,,,,,,,,repeat,letter,NA,d,0.4662,Lo,,,,,,3,,,,,,,,low,1,0,1,0,1,,,,,,,,,
298198,2022-11-16_11h54.27.760,vts_reward_expectancy_bt,2022.2.4,MacIntel,60.0024001,Chrome,1440,900,,,,,1,916,,,,,,,,,,,,,,,,,Y,132,star,1,1,,,,,,,,,,,,,,,,switch,number,numSwt,j,0.4736,Lo,,,,,,3,,,,,,,,low,2,0,2,0,1,,,,,,,,,
298198,2022-11-16_11h54.27.760,vts_reward_expectancy_bt,2022.2.4,MacIntel,60.0024001,Chrome,1440,900,,,,,0,916,,,,,,,,,,,,,,,,,B,146,triangle,0,0,,,,,,,,,,,,,,,,repeat,number,NA,k,0.4061,Lo,,,,,,3,,,,,,,,low,3,0,3,0,1,,,,,,,,,
298198,2022-11-16_11h54.27.760,vts_reward_expectancy_bt,2022.2.4,MacIntel,60.0024001,Chrome,1440,900,,,,,1,917,,,,,,,,,,,,,,,,,F,160,hexagon,1,1,,,,,,,,,,,,,,,,repeat,number,numRpt,k,0.3809,Lo,,,,,,3,,,,,,,,low,4,0,4,0,1,,,,,,,,,
298198,2022-11-16_11h54.27.760,vts_reward_expectancy_bt,2022.2.4,MacIntel,60.0024001,Chrome,1440,900,,,,,10,927,,,,,,,,,,,,,,,,,W,181,circle,1,0,,,,,,,,,,,,,,,,switch,letter,lettSwt,f,0.3839,Hi,,,,,,3,,,,,,,,low,5,0,5,0,1,,,,,,,,,
298198,2022-11-16_11h54.27.760,vts_reward_expectancy_bt,2022.2.4,MacIntel,60.0024001,Chrome,1440,900,,,,,1,928,,,,,,,,,,,,,,,,,S,139,star,1,0,,,,,,,,,,,,,,,,repeat,letter,lettRpt,f,0.4633,Lo,,,,,,3,,,,,,,,low,6,0,6,0,1,,,,,,,,,
298198,2022-11-16_11h54.27.760,vts_reward_expectancy_bt,2022.2.4,MacIntel,60.0024001,Chrome,1440,900,,,,,10,938,,,,,,,,,,,,,,,,,D,174,triangle,1,0,,,,,,,,,,,,,,,,switch,number,numSwt,k,0.4425,Hi,,,,,,3,,,,,,,,low,7,0,7,0,1,,,,,,,,,
298198,2022-11-16_11h54.27.760,vts_reward_expectancy_bt,2022.2.4,MacIntel,60.0024001,Chrome,1440,900,,,,,1,939,,,,,,,,,,,,,,,,,H,125,star,1,0,,,,,,,,,,,,,,,,repeat,number,numRpt,j,0.4912,Lo,,,,,,3,,,,,,,,low,8,0,8,0,1,,,,,,,,,
298198,2022-11-16_11h54.27.760,vts_reward_expectancy_bt,2022.2.4,MacIntel,60.0024001,Chrome,1440,900,,,,,10,949,,,,,,,,,,,,,,,,,U,167,triangle,1,0,,,,,,,,,,,,,,,,switch,letter,lettSwt,f,0.4297,Hi,,,,,,3,,,,,,,,low,9,0,9,0,1,,,,,,,,,
298198,2022-11-16_11h54.27.760,vts_reward_expectancy_bt,2022.2.4,MacIntel,60.0024001,Chrome,1440,900,,,,,10,959,,,,,,,,,,,,,,,,,Y,132,circle,1,0,,,,,,,,,,,,,,,,switch,number,numSwt,j,0.442,Hi,,,,,,3,,,,,,,,low,10,0,10,0,1,,,,,,,,,
298198,2022-11-16_11h54.27.760,vts_reward_expectancy_bt,2022.2.4,MacIntel,60.0024001,Chrome,1440,900,,,,,1,960,,,,,,,,,,,,,,,,,B,146,hexagon,1,0,,,,,,,,,,,,,,,,switch,letter,lettSwt,d,0.4103,Lo,,,,,,3,,,,,,,,low,11,0,11,0,1,,,,,,,,,
298198,2022-11-16_11h54.27.760,vts_reward_expectancy_bt,2022.2.4,MacIntel,60.0024001,Chrome,1440,900,,,,,0,960,,,,,,,,,,,,,,,,,F,160,star,0,0,,,,,,,,,,,,,,,,repeat,letter,NA,f,0.3794,Lo,,,,,,3,,,,,,,,low,12,0,12,0,1,,,,,,,,,
298198,2022-11-16_11h54.27.760,vts_reward_expectancy_bt,2022.2.4,MacIntel,60.0024001,Chrome,1440,900,,,,,1,961,,,,,,,,,,,,,,,,,W,181,hexagon,1,1,,,,,,,,,,,,,,,,repeat,letter,lettRpt,f,0.514,Lo,,,,,,3,,,,,,,,low,13,0,13,0,1,,,,,,,,,
298198,2022-11-16_11h54.27.760,vts_reward_expectancy_bt,2022.2.4,MacIntel,60.0024001,Chrome,1440,900,,,,,0,961,,,,,,,,,,,,,,,,,S,139,circle,1,0,,,,,,,,,,,,,,,,switch,number,numSwt,j,0.5139,Hi,,,,,,3,,,,,,,,low,14,0,14,0,1,,,,,,,,,
298198,2022-11-16_11h54.27.760,vts_reward_expectancy_bt,2022.2.4,MacIntel,60.0024001,Chrome,1440,900,,,,,1,962,,,,,,,,,,,,,,,,,D,174,triangle,1,0,,,,,,,,,,,,,,,,repeat,number,numRpt,k,0.4017,Hi,,,,,,3,,,,,,,,low,15,0,15,0,1,,,,,,,,,
298198,2022-11-16_11h54.27.760,vts_reward_expectancy_bt,2022.2.4,MacIntel,60.0024001,Chrome,1440,900,,,,,10,972,,,,,,,,,,,,,,,,,Y,139,star,1,0,,,,,,,,,,,,,,,,switch,letter,lettSwt,f,0.4829,Lo,,,,,,3,,,,,,,,low,16,0,16,0,1,,,,,,,,,
298198,2022-11-16_11h54.27.760,vts_reward_expectancy_bt,2022.2.4,MacIntel,60.0024001,Chrome,1440,900,,,,,10,982,,,,,,,,,,,,,,,,,D,146,hexagon,1,0,,,,,,,,,,,,,,,,repeat,letter,lettRpt,d,0.3957,Lo,,,,,,3,,,,,,,,low,17,0,17,0,1,,,,,,,,,
298198,2022-11-16_11h54.27.760,vts_reward_expectancy_bt,2022.2.4,MacIntel,60.0024001,Chrome,1440,900,,,,,0,982,,,,,,,,,,,,,,,,,W,125,triangle,1,0,,,,,,,,,,,,,,,,repeat,letter,lettRpt,f,0.5273,Hi,,,,,,3,,,,,,,,low,18,0,18,0,1,,,,,,,,,
298198,2022-11-16_11h54.27.760,vts_reward_expectancy_bt,2022.2.4,MacIntel,60.0024001,Chrome,1440,900,,,,,1,983,,,,,,,,,,,,,,,,,B,132,circle,1,0,,,,,,,,,,,,,,,,switch,number,numSwt,j,0.3936,Hi,,,,,,3,,,,,,,,low,19,0,19,0,1,,,,,,,,,
298198,2022-11-16_11h54.27.760,vts_reward_expectancy_bt,2022.2.4,MacIntel,60.0024001,Chrome,1440,900,,,,,1,984,,,,,,,,,,,,,,,,,U,167,hexagon,1,0,,,,,,,,,,,,,,,,repeat,number,numRpt,k,0.4444,Lo,,,,,,3,,,,,,,,low,20,0,20,0,1,,,,,,,,,
298198,2022-11-16_11h54.27.760,vts_reward_expectancy_bt,2022.2.4,MacIntel,60.0024001,Chrome,1440,900,,,,,0,984,,,,,,,,,,,,,,,,,S,181,circle,1,0,,,,,,,,,,,,,,,,repeat,number,numRpt,k,0.4792,Hi,,,,,,3,,,,,,,,low,21,0,21,0,1,,,,,,,,,
298198,2022-11-16_11h54.27.760,vts_reward_expectancy_bt,2022.2.4,MacIntel,60.0024001,Chrome,1440,900,,,,,1,985,,,,,,,,,,,,,,,,,H,174,star,1,0,,,,,,,,,,,,,,,,switch,letter,lettSwt,d,0.3863,Lo,,,,,,3,,,,,,,,low,22,0,22,0,1,,,,,,,,,
298198,2022-11-16_11h54.27.760,vts_reward_expectancy_bt,2022.2.4,MacIntel,60.0024001,Chrome,1440,900,,,,,0,985,,,,,,,,,,,,,,,,,F,160,triangle,1,0,,,,,,,,,,,,,,,,repeat,letter,lettRpt,d,0.5605,Hi,,,,,,3,,,,,,,,low,23,0,23,0,1,,,,,,,,,
298198,2022-11-16_11h54.27.760,vts_reward_expectancy_bt,2022.2.4,MacIntel,60.0024001,Chrome,1440,900,,,,,10,995,,,,,,,,,,,,,,,,,B,139,hexagon,1,0,,,,,,,,,,,,,,,,repeat,letter,lettRpt,d,0.5336,Lo,,,,,,3,,,,,,,,low,24,0,24,0,1,,,,,,,,,
298198,2022-11-16_11h54.27.760,vts_reward_expectancy_bt,2022.2.4,MacIntel,60.0024001,Chrome,1440,900,,,,,10,1005,,,,,,,,,,,,,,,,,S,125,star,1,0,,,,,,,,,,,,,,,,switch,number,numSwt,j,0.4683,Lo,,,,,,3,,,,,,,,low,25,0,25,0,1,,,,,,,,,
298198,2022-11-16_11h54.27.760,vts_reward_expectancy_bt,2022.2.4,MacIntel,60.0024001,Chrome,1440,900,,,,,1,1006,,,,,,,,,,,,,,,,,D,167,triangle,1,0,,,,,,,,,,,,,,,,repeat,number,numRpt,k,0.4327,Hi,,,,,,3,,,,,,,,low,26,0,26,0,1,,,,,,,,,
298198,2022-11-16_11h54.27.760,vts_reward_expectancy_bt,2022.2.4,MacIntel,60.0024001,Chrome,1440,900,,,,,0,1006,,,,,,,,,,,,,,,,,W,181,circle,0,0,,,,,,,,,,,,,,,,switch,letter,NA,d,0.5312,Hi,,,,,,3,,,,,,,,low,27,0,27,0,1,,,,,,,,,
298198,2022-11-16_11h54.27.760,vts_reward_expectancy_bt,2022.2.4,MacIntel,60.0024001,Chrome,1440,900,,,,,1,1007,,,,,,,,,,,,,,,,,U,174,hexagon,1,1,,,,,,,,,,,,,,,,repeat,letter,lettRpt,f,0.4839,Lo,,,,,,3,,,,,,,,low,28,0,28,0,1,,,,,,,,,
298198,2022-11-16_11h54.27.760,vts_reward_expectancy_bt,2022.2.4,MacIntel,60.0024001,Chrome,1440,900,,,,,10,1017,,,,,,,,,,,,,,,,,Y,132,star,1,0,,,,,,,,,,,,,,,,switch,number,numSwt,j,0.5502,Lo,,,,,,3,,,,,,,,low,29,0,29,0,1,,,,,,,,,
298198,2022-11-16_11h54.27.760,vts_reward_expectancy_bt,2022.2.4,MacIntel,60.0024001,Chrome,1440,900,,,,,0,1017,,,,,,,,,,,,,,,,,F,146,circle,1,0,,,,,,,,,,,,,,,,repeat,number,numRpt,j,0.5654,Hi,,,,,,3,,,,,,,,low,30,0,30,0,1,,,,,,,,,
298198,2022-11-16_11h54.27.760,vts_reward_expectancy_bt,2022.2.4,MacIntel,60.0024001,Chrome,1440,900,,,,,0,1017,,,,,,,,,,,,,,,,,H,160,triangle,1,0,,,,,,,,,,,,,,,,switch,letter,lettSwt,d,0.5154,Hi,,,,,,3,,,,,,,,low,31,0,31,0,1,,,,,,,,,
298198,2022-11-16_11h54.27.760,vts_reward_expectancy_bt,2022.2.4,MacIntel,60.0024001,Chrome,1440,900,,,,,1,1018,,,,,,,,,,,,,,,,,B,160,star,1,0,,,,,,,,,,,,,,,,repeat,letter,lettRpt,d,0.5164,Lo,,,,,,4,,,,,,space,1.0864,low,0,0,0,0,1,,,,,,,,,
298198,2022-11-16_11h54.27.760,vts_reward_expectancy_bt,2022.2.4,MacIntel,60.0024001,Chrome,1440,900,,,,,10,1028,,,,,,,,,,,,,,,,,D,139,hexagon,1,0,,,,,,,,,,,,,,,,repeat,letter,lettRpt,d,0.4644,Lo,,,,,,4,,,,,,,,low,1,0,1,0,1,,,,,,,,,
298198,2022-11-16_11h54.27.760,vts_reward_expectancy_bt,2022.2.4,MacIntel,60.0024001,Chrome,1440,900,,,,,0,1028,,,,,,,,,,,,,,,,,U,174,triangle,1,0,,,,,,,,,,,,,,,,switch,number,numSwt,k,0.5439,Hi,,,,,,4,,,,,,,,low,2,0,2,0,1,,,,,,,,,
298198,2022-11-16_11h54.27.760,vts_reward_expectancy_bt,2022.2.4,MacIntel,60.0024001,Chrome,1440,900,,,,,0,1028,,,,,,,,,,,,,,,,,F,167,circle,1,0,,,,,,,,,,,,,,,,switch,letter,lettSwt,d,0.6,Hi,,,,,,4,,,,,,,,low,3,0,3,0,1,,,,,,,,,
298198,2022-11-16_11h54.27.760,vts_reward_expectancy_bt,2022.2.4,MacIntel,60.0024001,Chrome,1440,900,,,,,0,1028,,,,,,,,,,,,,,,,,Y,132,star,0,0,,,,,,,,,,,,,,,,switch,number,NA,k,0.5476,Hi,,,,,,4,,,,,,,,low,4,0,4,0,1,,,,,,,,,
298198,2022-11-16_11h54.27.760,vts_reward_expectancy_bt,2022.2.4,MacIntel,60.0024001,Chrome,1440,900,,,,,1,1029,,,,,,,,,,,,,,,,,W,181,hexagon,1,1,,,,,,,,,,,,,,,,repeat,number,numRpt,k,0.6299,Lo,,,,,,4,,,,,,,,low,5,0,5,0,1,,,,,,,,,
298198,2022-11-16_11h54.27.760,vts_reward_expectancy_bt,2022.2.4,MacIntel,60.0024001,Chrome,1440,900,,,,,10,1039,,,,,,,,,,,,,,,,,H,125,triangle,1,0,,,,,,,,,,,,,,,,repeat,number,numRpt,j,0.3985,Hi,,,,,,4,,,,,,,,low,6,0,6,0,1,,,,,,,,,
298198,2022-11-16_11h54.27.760,vts_reward_expectancy_bt,2022.2.4,MacIntel,60.0024001,Chrome,1440,900,,,,,0,1039,,,,,,,,,,,,,,,,,S,146,circle,1,0,,,,,,,,,,,,,,,,repeat,number,numRpt,j,0.6165,Hi,,,,,,4,,,,,,,,low,7,0,7,0,1,,,,,,,,,
298198,2022-11-16_11h54.27.760,vts_reward_expectancy_bt,2022.2.4,MacIntel,60.0024001,Chrome,1440,900,,,,,1,1040,,,,,,,,,,,,,,,,,B,160,circle,1,0,,,,,,,,,,,,,,,,switch,letter,lettSwt,d,0.393,Hi,,,,,,4,,,,,,,,low,8,0,8,0,1,,,,,,,,,
298198,2022-11-16_11h54.27.760,vts_reward_expectancy_bt,2022.2.4,MacIntel,60.0024001,Chrome,1440,900,,,,,0,1040,,,,,,,,,,,,,,,,,D,139,triangle,1,0,,,,,,,,,,,,,,,,repeat,letter,lettRpt,d,0.5627,Hi,,,,,,4,,,,,,,,low,9,0,9,0,1,,,,,,,,,
298198,2022-11-16_11h54.27.760,vts_reward_expectancy_bt,2022.2.4,MacIntel,60.0024001,Chrome,1440,900,,,,,1,1041,,,,,,,,,,,,,,,,,U,174,star,1,0,,,,,,,,,,,,,,,,repeat,letter,lettRpt,f,0.4307,Lo,,,,,,4,,,,,,,,low,10,0,10,0,1,,,,,,,,,
298198,2022-11-16_11h54.27.760,vts_reward_expectancy_bt,2022.2.4,MacIntel,60.0024001,Chrome,1440,900,,,,,1,1042,,,,,,,,,,,,,,,,,F,167,hexagon,1,0,,,,,,,,,,,,,,,,repeat,letter,lettRpt,d,0.443,Lo,,,,,,4,,,,,,,,low,11,0,11,0,1,,,,,,,,,
298198,2022-11-16_11h54.27.760,vts_reward_expectancy_bt,2022.2.4,MacIntel,60.0024001,Chrome,1440,900,,,,,1,1043,,,,,,,,,,,,,,,,,Y,132,star,1,0,,,,,,,,,,,,,,,,repeat,letter,lettRpt,f,0.5341,Lo,,,,,,4,,,,,,,,low,12,0,12,0,1,,,,,,,,,
298198,2022-11-16_11h54.27.760,vts_reward_expectancy_bt,2022.2.4,MacIntel,60.0024001,Chrome,1440,900,,,,,0,1043,,,,,,,,,,,,,,,,,W,181,triangle,1,0,,,,,,,,,,,,,,,,switch,number,numSwt,k,0.5332,Hi,,,,,,4,,,,,,,,low,13,0,13,0,1,,,,,,,,,
298198,2022-11-16_11h54.27.760,vts_reward_expectancy_bt,2022.2.4,MacIntel,60.0024001,Chrome,1440,900,,,,,1,1044,,,,,,,,,,,,,,,,,H,125,circle,1,0,,,,,,,,,,,,,,,,repeat,number,numRpt,j,0.3819,Hi,,,,,,4,,,,,,,,low,14,0,14,0,1,,,,,,,,,
298198,2022-11-16_11h54.27.760,vts_reward_expectancy_bt,2022.2.4,MacIntel,60.0024001,Chrome,1440,900,,,,,1,1045,,,,,,,,,,,,,,,,,S,146,hexagon,1,0,,,,,,,,,,,,,,,,repeat,number,numRpt,j,0.566,Lo,,,,,,4,,,,,,,,low,15,0,15,0,1,,,,,,,,,
298198,2022-11-16_11h54.27.760,vts_reward_expectancy_bt,2022.2.4,MacIntel,60.0024001,Chrome,1440,900,,,,,10,1055,,,,,,,,,,,,,,,,,S,181,circle,1,0,,,,,,,,,,,,,,,,repeat,number,numRpt,k,0.3622,Hi,,,,,,4,,,,,,,,low,16,0,16,0,1,,,,,,,,,
298198,2022-11-16_11h54.27.760,vts_reward_expectancy_bt,2022.2.4,MacIntel,60.0024001,Chrome,1440,900,,,,,10,1065,,,,,,,,,,,,,,,,,U,125,star,1,0,,,,,,,,,,,,,,,,switch,letter,lettSwt,f,0.5653,Lo,,,,,,4,,,,,,,,low,17,0,17,0,1,,,,,,,,,
298198,2022-11-16_11h54.27.760,vts_reward_expectancy_bt,2022.2.4,MacIntel,60.0024001,Chrome,1440,900,,,,,0,1065,,,,,,,,,,,,,,,,,Y,174,hexagon,0,0,,,,,,,,,,,,,,,,switch,number,NA,j,0.4116,Lo,,,,,,4,,,,,,,,low,18,0,18,0,1,,,,,,,,,
298198,2022-11-16_11h54.27.760,vts_reward_expectancy_bt,2022.2.4,MacIntel,60.0024001,Chrome,1440,900,,,,,0,1065,,,,,,,,,,,,,,,,,D,160,triangle,1,1,,,,,,,,,,,,,,,,switch,letter,lettSwt,d,0.4091,Hi,,,,,,4,,,,,,,,low,19,0,19,0,1,,,,,,,,,
298198,2022-11-16_11h54.27.760,vts_reward_expectancy_bt,2022.2.4,MacIntel,60.0024001,Chrome,1440,900,,,,,10,1075,,,,,,,,,,,,,,,,,F,139,hexagon,1,0,,,,,,,,,,,,,,,,switch,number,numSwt,j,0.549,Lo,,,,,,4,,,,,,,,low,20,0,20,0,1,,,,,,,,,
298198,2022-11-16_11h54.27.760,vts_reward_expectancy_bt,2022.2.4,MacIntel,60.0024001,Chrome,1440,900,,,,,10,1085,,,,,,,,,,,,,,,,,W,146,circle,1,0,,,,,,,,,,,,,,,,switch,letter,lettSwt,f,0.4017,Hi,,,,,,4,,,,,,,,low,21,0,21,0,1,,,,,,,,,
298198,2022-11-16_11h54.27.760,vts_reward_expectancy_bt,2022.2.4,MacIntel,60.0024001,Chrome,1440,900,,,,,1,1086,,,,,,,,,,,,,,,,,B,132,star,1,0,,,,,,,,,,,,,,,,repeat,letter,lettRpt,d,0.425,Lo,,,,,,4,,,,,,,,low,22,0,22,0,1,,,,,,,,,
298198,2022-11-16_11h54.27.760,vts_reward_expectancy_bt,2022.2.4,MacIntel,60.0024001,Chrome,1440,900,,,,,0,1086,,,,,,,,,,,,,,,,,H,167,triangle,1,0,,,,,,,,,,,,,,,,repeat,letter,lettRpt,d,0.6539,Hi,,,,,,4,,,,,,,,low,23,0,23,0,1,,,,,,,,,
298198,2022-11-16_11h54.27.760,vts_reward_expectancy_bt,2022.2.4,MacIntel,60.0024001,Chrome,1440,900,,,,,0,1086,,,,,,,,,,,,,,,,,W,181,circle,1,0,,,,,,,,,,,,,,,,switch,number,numSwt,k,0.5343,Hi,,,,,,4,,,,,,,,low,24,0,24,0,1,,,,,,,,,
298198,2022-11-16_11h54.27.760,vts_reward_expectancy_bt,2022.2.4,MacIntel,60.0024001,Chrome,1440,900,,,,,10,1096,,,,,,,,,,,,,,,,,H,174,star,1,0,,,,,,,,,,,,,,,,repeat,number,numRpt,k,0.4509,Lo,,,,,,4,,,,,,,,low,25,0,25,0,1,,,,,,,,,
298198,2022-11-16_11h54.27.760,vts_reward_expectancy_bt,2022.2.4,MacIntel,60.0024001,Chrome,1440,900,,,,,1,1097,,,,,,,,,,,,,,,,,S,160,hexagon,1,0,,,,,,,,,,,,,,,,repeat,number,numRpt,k,0.5484,Lo,,,,,,4,,,,,,,,low,26,0,26,0,1,,,,,,,,,
298198,2022-11-16_11h54.27.760,vts_reward_expectancy_bt,2022.2.4,MacIntel,60.0024001,Chrome,1440,900,,,,,0,1097,,,,,,,,,,,,,,,,,F,167,triangle,1,0,,,,,,,,,,,,,,,,switch,letter,lettSwt,d,0.4483,Hi,,,,,,4,,,,,,,,low,27,0,27,0,1,,,,,,,,,
298198,2022-11-16_11h54.27.760,vts_reward_expectancy_bt,2022.2.4,MacIntel,60.0024001,Chrome,1440,900,,,,,0,1097,,,,,,,,,,,,,,,,,B,132,star,0,0,,,,,,,,,,,,,,,,repeat,letter,NA,f,0.2656,Hi,,,,,,4,,,,,,,,low,28,0,28,0,1,,,,,,,,,
298198,2022-11-16_11h54.27.760,vts_reward_expectancy_bt,2022.2.4,MacIntel,60.0024001,Chrome,1440,900,,,,,1,1098,,,,,,,,,,,,,,,,,Y,146,triangle,1,1,,,,,,,,,,,,,,,,repeat,letter,lettRpt,f,0.3807,Hi,,,,,,4,,,,,,,,low,29,0,29,0,1,,,,,,,,,
298198,2022-11-16_11h54.27.760,vts_reward_expectancy_bt,2022.2.4,MacIntel,60.0024001,Chrome,1440,900,,,,,0,1098,,,,,,,,,,,,,,,,,D,139,circle,1,0,,,,,,,,,,,,,,,,switch,number,numSwt,j,0.5482,Hi,,,,,,4,,,,,,,,low,30,0,30,0,1,,,,,,,,,
298198,2022-11-16_11h54.27.760,vts_reward_expectancy_bt,2022.2.4,MacIntel,60.0024001,Chrome,1440,900,,,,,10,1108,,,,,,,,,,,,,,,,,U,125,hexagon,1,0,,,,,,,,,,,,,,,,switch,letter,lettSwt,f,0.5702,Lo,,,,,,4,,,,,,,,low,31,0,31,0,1,,,,,,,,,
298198,2022-11-16_11h54.27.760,vts_reward_expectancy_bt,2022.2.4,MacIntel,60.0024001,Chrome,1440,900,,,,,10,1118,,,,,,,,,,,,,,,,,W,160,hexagon,1,0,,,,,,,,,,,,,,,,repeat,letter,lettRpt,f,0.5093,Lo,,,,,,5,,,,,,space,0.8883,low,0,0,0,0,1,,,,,,,,,
298198,2022-11-16_11h54.27.760,vts_reward_expectancy_bt,2022.2.4,MacIntel,60.0024001,Chrome,1440,900,,,,,10,1128,,,,,,,,,,,,,,,,,U,125,circle,1,0,,,,,,,,,,,,,,,,switch,number,numSwt,j,0.5177,Hi,,,,,,5,,,,,,,,low,1,0,1,0,1,,,,,,,,,
298198,2022-11-16_11h54.27.760,vts_reward_expectancy_bt,2022.2.4,MacIntel,60.0024001,Chrome,1440,900,,,,,0,1128,,,,,,,,,,,,,,,,,H,139,triangle,0,0,,,,,,,,,,,,,,,,repeat,number,NA,k,0.3779,Hi,,,,,,5,,,,,,,,low,2,0,2,0,1,,,,,,,,,
298198,2022-11-16_11h54.27.760,vts_reward_expectancy_bt,2022.2.4,MacIntel,60.0024001,Chrome,1440,900,,,,,1,1129,,,,,,,,,,,,,,,,,B,181,star,1,1,,,,,,,,,,,,,,,,repeat,number,numRpt,k,0.397,Lo,,,,,,5,,,,,,,,low,3,0,3,0,1,,,,,,,,,
298198,2022-11-16_11h54.27.760,vts_reward_expectancy_bt,2022.2.4,MacIntel,60.0024001,Chrome,1440,900,,,,,10,1139,,,,,,,,,,,,,,,,,F,132,hexagon,1,0,,,,,,,,,,,,,,,,switch,letter,lettSwt,d,0.4306,Lo,,,,,,5,,,,,,,,low,4,0,4,0,1,,,,,,,,,
298198,2022-11-16_11h54.27.760,vts_reward_expectancy_bt,2022.2.4,MacIntel,60.0024001,Chrome,1440,900,,,,,0,1139,,,,,,,,,,,,,,,,,D,174,circle,1,0,,,,,,,,,,,,,,,,repeat,letter,lettRpt,d,0.5886,Hi,,,,,,5,,,,,,,,low,5,0,5,0,1,,,,,,,,,
298198,2022-11-16_11h54.27.760,vts_reward_expectancy_bt,2022.2.4,MacIntel,60.0024001,Chrome,1440,900,,,,,0,1139,,,,,,,,,,,,,,,,,S,146,triangle,1,0,,,,,,,,,,,,,,,,switch,number,numSwt,j,0.552,Hi,,,,,,5,,,,,,,,low,6,0,6,0,1,,,,,,,,,
298198,2022-11-16_11h54.27.760,vts_reward_expectancy_bt,2022.2.4,MacIntel,60.0024001,Chrome,1440,900,,,,,0,1139,,,,,,,,,,,,,,,,,Y,167,star,0,0,,,,,,,,,,,,,,,,repeat,number,NA,j,0.4966,Hi,,,,,,5,,,,,,,,low,7,0,7,0,1,,,,,,,,,
298198,2022-11-16_11h54.27.760,vts_reward_expectancy_bt,2022.2.4,MacIntel,60.0024001,Chrome,1440,900,,,,,0,1139,,,,,,,,,,,,,,,,,W,160,triangle,1,1,,,,,,,,,,,,,,,,switch,letter,lettSwt,f,0.4157,Hi,,,,,,5,,,,,,,,low,8,0,8,0,1,,,,,,,,,
298198,2022-11-16_11h54.27.760,vts_reward_expectancy_bt,2022.2.4,MacIntel,60.0024001,Chrome,1440,900,,,,,10,1149,,,,,,,,,,,,,,,,,U,125,circle,1,0,,,,,,,,,,,,,,,,repeat,letter,lettRpt,f,0.3525,Hi,,,,,,5,,,,,,,,low,9,0,9,0,1,,,,,,,,,
298198,2022-11-16_11h54.27.760,vts_reward_expectancy_bt,2022.2.4,MacIntel,60.0024001,Chrome,1440,900,,,,,1,1150,,,,,,,,,,,,,,,,,H,139,hexagon,1,0,,,,,,,,,,,,,,,,switch,number,numSwt,j,0.3532,Lo,,,,,,5,,,,,,,,low,10,0,10,0,1,,,,,,,,,
298198,2022-11-16_11h54.27.760,vts_reward_expectancy_bt,2022.2.4,MacIntel,60.0024001,Chrome,1440,900,,,,,10,1160,,,,,,,,,,,,,,,,,B,181,star,1,0,,,,,,,,,,,,,,,,repeat,number,numRpt,k,0.4297,Lo,,,,,,5,,,,,,,,low,11,0,11,0,1,,,,,,,,,
298198,2022-11-16_11h54.27.760,vts_reward_expectancy_bt,2022.2.4,MacIntel,60.0024001,Chrome,1440,900,,,,,0,1160,,,,,,,,,,,,,,,,,F,132,hexagon,0,0,,,,,,,,,,,,,,,,switch,letter,NA,f,0.4331,Lo,,,,,,5,,,,,,,,low,12,0,12,0,1,,,,,,,,,
298198,2022-11-16_11h54.27.760,vts_reward_expectancy_bt,2022.2.4,MacIntel,60.0024001,Chrome,1440,900,,,,,0,1160,,,,,,,,,,,,,,,,,D,174,circle,1,1,,,,,,,,,,,,,,,,repeat,letter,lettRpt,d,0.5495,Hi,,,,,,5,,,,,,,,low,13,0,13,0,1,,,,,,,,,
298198,2022-11-16_11h54.27.760,vts_reward_expectancy_bt,2022.2.4,MacIntel,60.0024001,Chrome,1440,900,,,,,1,1161,,,,,,,,,,,,,,,,,S,146,star,1,0,,,,,,,,,,,,,,,,repeat,letter,lettRpt,f,0.5367,Lo,,,,,,5,,,,,,,,low,14,0,14,0,1,,,,,,,,,
298198,2022-11-16_11h54.27.760,vts_reward_expectancy_bt,2022.2.4,MacIntel,60.0024001,Chrome,1440,900,,,,,0,1161,,,,,,,,,,,,,,,,,Y,167,triangle,0,0,,,,,,,,,,,,,,,,repeat,letter,NA,d,0.3736,Lo,,,,,,5,,,,,,,,low,15,0,15,0,1,,,,,,,,,
298198,2022-11-16_11h54.27.760,vts_reward_expectancy_bt,2022.2.4,MacIntel,60.0024001,Chrome,1440,900,,,,,1,1162,,,,,,,,,,,,,,,,,F,167,star,1,1,,,,,,,,,,,,,,,,repeat,letter,lettRpt,d,0.4669,Lo,,,,,,5,,,,,,,,low,16,0,16,0,1,,,,,,,,,
298198,2022-11-16_11h54.27.760,vts_reward_expectancy_bt,2022.2.4,MacIntel,60.0024001,Chrome,1440,900,,,,,1,1163,,,,,,,,,,,,,,,,,U,132,circle,1,0,,,,,,,,,,,,,,,,switch,number,numSwt,j,0.4358,Hi,,,,,,5,,,,,,,,low,17,0,17,0,1,,,,,,,,,
298198,2022-11-16_11h54.27.760,vts_reward_expectancy_bt,2022.2.4,MacIntel,60.0024001,Chrome,1440,900,,,,,0,1163,,,,,,,,,,,,,,,,,Y,139,hexagon,0,0,,,,,,,,,,,,,,,,repeat,number,NA,k,0.4871,Hi,,,,,,5,,,,,,,,low,18,0,18,0,1,,,,,,,,,
298198,2022-11-16_11h54.27.760,vts_reward_expectancy_bt,2022.2.4,MacIntel,60.0024001,Chrome,1440,900,,,,,0,1163,,,,,,,,,,,,,,,,,W,146,triangle,1,1,,,,,,,,,,,,,,,,repeat,number,numRpt,j,0.5197,Hi,,,,,,5,,,,,,,,low,19,0,19,0,1,,,,,,,,,
298198,2022-11-16_11h54.27.760,vts_reward_expectancy_bt,2022.2.4,MacIntel,60.0024001,Chrome,1440,900,,,,,10,1173,,,,,,,,,,,,,,,,,H,160,hexagon,1,0,,,,,,,,,,,,,,,,repeat,number,numRpt,k,0.4153,Lo,,,,,,5,,,,,,,,low,20,0,20,0,1,,,,,,,,,
298198,2022-11-16_11h54.27.760,vts_reward_expectancy_bt,2022.2.4,MacIntel,60.0024001,Chrome,1440,900,,,,,0,1173,,,,,,,,,,,,,,,,,B,181,triangle,1,0,,,,,,,,,,,,,,,,switch,letter,lettSwt,d,0.4336,Hi,,,,,,5,,,,,,,,low,21,0,21,0,1,,,,,,,,,
298198,2022-11-16_11h54.27.760,vts_reward_expectancy_bt,2022.2.4,MacIntel,60.0024001,Chrome,1440,900,,,,,0,1173,,,,,,,,,,,,,,,,,S,174,circle,1,0,,,,,,,,,,,,,,,,repeat,letter,lettRpt,f,0.4703,Hi,,,,,,5,,,,,,,,low,22,0,22,0,1,,,,,,,,,
298198,2022-11-16_11h54.27.760,vts_reward_expectancy_bt,2022.2.4,MacIntel,60.0024001,Chrome,1440,900,,,,,10,1183,,,,,,,,,,,,,,,,,D,125,star,1,0,,,,,,,,,,,,,,,,repeat,letter,lettRpt,d,0.3515,Lo,,,,,,5,,,,,,,,low,23,0,23,0,1,,,,,,,,,
298198,2022-11-16_11h54.27.760,vts_reward_expectancy_bt,2022.2.4,MacIntel,60.0024001,Chrome,1440,900,,,,,1,1184,,,,,,,,,,,,,,,,,U,167,circle,1,0,,,,,,,,,,,,,,,,switch,number,numSwt,k,0.4514,Hi,,,,,,5,,,,,,,,low,24,0,24,0,1,,,,,,,,,
298198,2022-11-16_11h54.27.760,vts_reward_expectancy_bt,2022.2.4,MacIntel,60.0024001,Chrome,1440,900,,,,,0,1184,,,,,,,,,,,,,,,,,H,125,triangle,0,0,,,,,,,,,,,,,,,,switch,letter,NA,f,0.497,Hi,,,,,,5,,,,,,,,low,25,0,25,0,1,,,,,,,,,
298198,2022-11-16_11h54.27.760,vts_reward_expectancy_bt,2022.2.4,MacIntel,60.0024001,Chrome,1440,900,,,,,1,1185,,,,,,,,,,,,,,,,,D,139,star,1,1,,,,,,,,,,,,,,,,switch,number,numSwt,j,0.563,Lo,,,,,,5,,,,,,,,low,26,0,26,0,1,,,,,,,,,
298198,2022-11-16_11h54.27.760,vts_reward_expectancy_bt,2022.2.4,MacIntel,60.0024001,Chrome,1440,900,,,,,1,1186,,,,,,,,,,,,,,,,,B,146,hexagon,1,0,,,,,,,,,,,,,,,,switch,letter,lettSwt,d,0.4035,Lo,,,,,,5,,,,,,,,low,27,0,27,0,1,,,,,,,,,
298198,2022-11-16_11h54.27.760,vts_reward_expectancy_bt,2022.2.4,MacIntel,60.0024001,Chrome,1440,900,,,,,10,1196,,,,,,,,,,,,,,,,,F,160,star,1,0,,,,,,,,,,,,,,,,repeat,letter,lettRpt,d,0.5341,Lo,,,,,,5,,,,,,,,low,28,0,28,0,1,,,,,,,,,
298198,2022-11-16_11h54.27.760,vts_reward_expectancy_bt,2022.2.4,MacIntel,60.0024001,Chrome,1440,900,,,,,0,1196,,,,,,,,,,,,,,,,,S,174,triangle,1,0,,,,,,,,,,,,,,,,switch,number,numSwt,k,0.5969,Hi,,,,,,5,,,,,,,,low,29,0,29,0,1,,,,,,,,,
298198,2022-11-16_11h54.27.760,vts_reward_expectancy_bt,2022.2.4,MacIntel,60.0024001,Chrome,1440,900,,,,,0,1196,,,,,,,,,,,,,,,,,W,132,circle,1,0,,,,,,,,,,,,,,,,switch,letter,lettSwt,f,0.7413,Hi,,,,,,5,,,,,,,,low,30,0,30,0,1,,,,,,,,,
298198,2022-11-16_11h54.27.760,vts_reward_expectancy_bt,2022.2.4,MacIntel,60.0024001,Chrome,1440,900,,,,,10,1206,,,,,,,,,,,,,,,,,Y,181,hexagon,1,0,,,,,,,,,,,,,,,,repeat,letter,lettRpt,f,0.7625,Lo,,,,,,5,,,,,,,,low,31,0,31,0,1,,,,,,,,,
298198,2022-11-16_11h54.27.760,vts_reward_expectancy_bt,2022.2.4,MacIntel,60.0024001,Chrome,1440,900,,,,,0,1206,,,,,,,,,,,,,,,,,Y,125,circle,1,0,,,,,,,,,,,,,,,,repeat,letter,lettRpt,f,0.5532,Hi,,,,,,6,,,,,,space,1.55,low,0,0,0,0,1,,,,,,,,,
298198,2022-11-16_11h54.27.760,vts_reward_expectancy_bt,2022.2.4,MacIntel,60.0024001,Chrome,1440,900,,,,,1,1207,,,,,,,,,,,,,,,,,D,174,star,1,0,,,,,,,,,,,,,,,,repeat,letter,lettRpt,d,0.6761,Lo,,,,,,6,,,,,,,,low,1,0,1,0,1,,,,,,,,,
298198,2022-11-16_11h54.27.760,vts_reward_expectancy_bt,2022.2.4,MacIntel,60.0024001,Chrome,1440,900,,,,,0,1207,,,,,,,,,,,,,,,,,B,181,triangle,1,0,,,,,,,,,,,,,,,,switch,number,numSwt,k,0.5478,Hi,,,,,,6,,,,,,,,low,2,0,2,0,1,,,,,,,,,
298198,2022-11-16_11h54.27.760,vts_reward_expectancy_bt,2022.2.4,MacIntel,60.0024001,Chrome,1440,900,,,,,10,1217,,,,,,,,,,,,,,,,,W,167,hexagon,1,0,,,,,,,,,,,,,,,,repeat,number,numRpt,k,0.812,Lo,,,,,,6,,,,,,,,low,3,0,3,0,1,,,,,,,,,
298198,2022-11-16_11h54.27.760,vts_reward_expectancy_bt,2022.2.4,MacIntel,60.0024001,Chrome,1440,900,,,,,1,1218,,,,,,,,,,,,,,,,,H,132,circle,1,0,,,,,,,,,,,,,,,,repeat,number,numRpt,j,0.3449,Hi,,,,,,6,,,,,,,,low,4,0,4,0,1,,,,,,,,,
298198,2022-11-16_11h54.27.760,vts_reward_expectancy_bt,2022.2.4,MacIntel,60.0024001,Chrome,1440,900,,,,,1,1219,,,,,,,,,,,,,,,,,U,160,star,1,0,,,,,,,,,,,,,,,,switch,letter,lettSwt,f,0.4681,Lo,,,,,,6,,,,,,,,low,5,0,5,0,1,,,,,,,,,
298198,2022-11-16_11h54.27.760,vts_reward_expectancy_bt,2022.2.4,MacIntel,60.0024001,Chrome,1440,900,,,,,0,1219,,,,,,,,,,,,,,,,,S,146,triangle,1,0,,,,,,,,,,,,,,,,repeat,letter,lettRpt,f,0.5325,Hi,,,,,,6,,,,,,,,low,6,0,6,0,1,,,,,,,,,
298198,2022-11-16_11h54.27.760,vts_reward_expectancy_bt,2022.2.4,MacIntel,60.0024001,Chrome,1440,900,,,,,10,1229,,,,,,,,,,,,,,,,,F,139,hexagon,1,0,,,,,,,,,,,,,,,,repeat,letter,lettRpt,d,0.3665,Lo,,,,,,6,,,,,,,,low,7,0,7,0,1,,,,,,,,,
298198,2022-11-16_11h54.27.760,vts_reward_expectancy_bt,2022.2.4,MacIntel,60.0024001,Chrome,1440,900,,,,,10,1239,,,,,,,,,,,,,,,,,Y,125,triangle,1,0,,,,,,,,,,,,,,,,repeat,letter,lettRpt,f,0.464,Hi,,,,,,6,,,,,,,,low,8,0,8,0,1,,,,,,,,,
298198,2022-11-16_11h54.27.760,vts_reward_expectancy_bt,2022.2.4,MacIntel,60.0024001,Chrome,1440,900,,,,,0,1239,,,,,,,,,,,,,,,,,D,174,circle,1,0,,,,,,,,,,,,,,,,switch,number,numSwt,k,0.4979,Hi,,,,,,6,,,,,,,,low,9,0,9,0,1,,,,,,,,,
298198,2022-11-16_11h54.27.760,vts_reward_expectancy_bt,2022.2.4,MacIntel,60.0024001,Chrome,1440,900,,,,,10,1249,,,,,,,,,,,,,,,,,B,181,hexagon,1,0,,,,,,,,,,,,,,,,repeat,number,numRpt,k,0.5197,Lo,,,,,,6,,,,,,,,low,10,0,10,0,1,,,,,,,,,
298198,2022-11-16_11h54.27.760,vts_reward_expectancy_bt,2022.2.4,MacIntel,60.0024001,Chrome,1440,900,,,,,10,1259,,,,,,,,,,,,,,,,,W,167,star,1,0,,,,,,,,,,,,,,,,repeat,number,numRpt,k,0.535,Lo,,,,,,6,,,,,,,,low,11,0,11,0,1,,,,,,,,,
298198,2022-11-16_11h54.27.760,vts_reward_expectancy_bt,2022.2.4,MacIntel,60.0024001,Chrome,1440,900,,,,,1,1260,,,,,,,,,,,,,,,,,H,132,hexagon,1,0,,,,,,,,,,,,,,,,repeat,number,numRpt,j,0.4632,Lo,,,,,,6,,,,,,,,low,12,0,12,0,1,,,,,,,,,
