participant,date,expName,psychopyVersion,OS,frameRate,browser,xResolution,yResolution,key_resp.keys,key_resp.rt,training_resp.keys,training_resp.rt,points_trial,points_cumul,trainBlock,training.thisRepN,training.thisTrialN,training.thisN,training.thisIndex,training.ran,LTriangleOpac,LCircleOpac,LHexagonOpac,LStarOpac,RTriangleOpac,RCircleOpac,RHexagonOpac,RStarOpac,LShape_ID,RShape_ID,curr_topStim,curr_bottStim,curr_shape,acc,E1,target_resp_prac1.keys,target_resp_prac1.rt,pracBlock,task1_prac_trials.thisRepN,task1_prac_trials.thisTrialN,task1_prac_trials.thisN,task1_prac_trials.thisIndex,task1_prac_trials.ran,target_resp_prac2.keys,task2_praac_trials.thisRepN,task2_praac_trials.thisTrialN,task2_praac_trials.thisN,task2_praac_trials.thisIndex,task2_praac_trials.ran,target_resp_prac2.rt,alt,task,condition,target_resp.keys,target_resp.rt,rewCond,vts_practice_trials.thisRepN,vts_practice_trials.thisTrialN,vts_practice_trials.thisN,vts_practice_trials.thisIndex,vts_practice_trials.ran,blockNum,trials_norew.thisRepN,trials_norew.thisTrialN,trials_norew.thisN,trials_norew.thisIndex,trials_norew.ran,key_resp_2.keys,key_resp_2.rt,rewExpectancy,trials_rew.thisRepN,trials_rew.thisTrialN,trials_rew.thisN,trials_rew.thisIndex,trials_rew.ran,Q1,Q2,Q2_text,Q3,Q4,Q5_text,Q5,xRes,yRes
298105,2022-11-15_12h13.24.255,vts_reward_expectancy_bt,2022.2.4,MacIntel,59.99880002,Chrome,1440,900,,,,,,,,,,,,,,,,,,,,,,,,,,,,,,,,,,,,,,,,,,,,,,,,,,,,,,,,,,,,,,,,,,,,,,,,,,,,
298105,2022-11-15_12h13.24.255,vts_reward_expectancy_bt,2022.2.4,MacIntel,59.99880002,Chrome,1440,900,space,17.9569,,,,,,,,,,,,,,,,,,,,,,,,,,,,,,,,,,,,,,,,,,,,,,,,,,,,,,,,,,,,,,,,,,,,,,,,,,
298105,2022-11-15_12h13.24.255,vts_reward_expectancy_bt,2022.2.4,MacIntel,59.99880002,Chrome,1440,900,,,,,,,,,,,,,,,,,,,,,,,,,,,,,,,,,,,,,,,,,,,,,,,,,,,,,,,,,,,,,,,,,,,,,,,,,,,,
298105,2022-11-15_12h13.24.255,vts_reward_expectancy_bt,2022.2.4,MacIntel,59.99880002,Chrome,1440,900,,,l,2.5299,1,1,0,0,0,0,4,1,0,1,0,0,0,0,1,0,circle,hexagon,,,,,,,,,,,,,,,,,,,,,,,,,,,,,,,,,,,,,,,,,,,,,,,,,,,,,,
298105,2022-11-15_12h13.24.255,vts_reward_expectancy_bt,2022.2.4,MacIntel,59.99880002,Chrome,1440,900,,,a,1.3156,1,2,0,0,1,1,10,1,0,0,0,1,0,1,0,0,star ,circle,,,,,,,,,,,,,,,,,,,,,,,,,,,,,,,,,,,,,,,,,,,,,,,,,,,,,,
298105,2022-11-15_12h13.24.255,vts_reward_expectancy_bt,2022.2.4,MacIntel,59.99880002,Chrome,1440,900,,,a,1.788,1,3,0,0,2,2,1,1,1,0,0,0,0,0,1,0,triangle,hexagon,,,,,,,,,,,,,,,,,,,,,,,,,,,,,,,,,,,,,,,,,,,,,,,,,,,,,,
298105,2022-11-15_12h13.24.255,vts_reward_expectancy_bt,2022.2.4,MacIntel,59.99880002,Chrome,1440,900,,,a,1.7082,10,13,0,0,3,3,9,1,0,0,0,1,1,0,0,0,star,triangle,,,,,,,,,,,,,,,,,,,,,,,,,,,,,,,,,,,,,,,,,,,,,,,,,,,,,,
298105,2022-11-15_12h13.24.255,vts_reward_expectancy_bt,2022.2.4,MacIntel,59.99880002,Chrome,1440,900,,,l,3.8856,10,23,0,0,4,4,5,1,0,1,0,0,0,0,0,1,circle,star,,,,,,,,,,,,,,,,,,,,,,,,,,,,,,,,,,,,,,,,,,,,,,,,,,,,,,
298105,2022-11-15_12h13.24.255,vts_reward_expectancy_bt,2022.2.4,MacIntel,59.99880002,Chrome,1440,900,,,l,1.8135,10,33,0,0,5,5,2,1,1,0,0,0,0,0,0,1,triangle,star,,,,,,,,,,,,,,,,,,,,,,,,,,,,,,,,,,,,,,,,,,,,,,,,,,,,,,
298105,2022-11-15_12h13.24.255,vts_reward_expectancy_bt,2022.2.4,MacIntel,59.99880002,Chrome,1440,900,,,a,1.4142,1,34,0,0,6,6,3,1,0,1,0,0,1,0,0,0,circle,triangle,,,,,,,,,,,,,,,,,,,,,,,,,,,,,,,,,,,,,,,,,,,,,,,,,,,,,,
298105,2022-11-15_12h13.24.255,vts_reward_expectancy_bt,2022.2.4,MacIntel,59.99880002,Chrome,1440,900,,,a,1.3525,10,44,0,0,7,7,11,1,0,0,0,1,0,0,1,0,star,hexagon,,,,,,,,,,,,,,,,,,,,,,,,,,,,,,,,,,,,,,,,,,,,,,,,,,,,,,
298105,2022-11-15_12h13.24.255,vts_reward_expectancy_bt,2022.2.4,MacIntel,59.99880002,Chrome,1440,900,,,a,2.0858,1,45,0,0,8,8,0,1,1,0,0,0,0,1,0,0,triangle,circle,,,,,,,,,,,,,,,,,,,,,,,,,,,,,,,,,,,,,,,,,,,,,,,,,,,,,,
298105,2022-11-15_12h13.24.255,vts_reward_expectancy_bt,2022.2.4,MacIntel,59.99880002,Chrome,1440,900,,,l,1.4643,1,46,0,0,9,9,8,1,0,0,1,0,0,0,0,1,hexagon,star,,,,,,,,,,,,,,,,,,,,,,,,,,,,,,,,,,,,,,,,,,,,,,,,,,,,,,
298105,2022-11-15_12h13.24.255,vts_reward_expectancy_bt,2022.2.4,MacIntel,59.99880002,Chrome,1440,900,,,a,1.3714,10,56,0,0,10,10,6,1,0,0,1,0,1,0,0,0,hexagon,triangle,,,,,,,,,,,,,,,,,,,,,,,,,,,,,,,,,,,,,,,,,,,,,,,,,,,,,,
298105,2022-11-15_12h13.24.255,vts_reward_expectancy_bt,2022.2.4,MacIntel,59.99880002,Chrome,1440,900,,,a,2.1565,1,57,0,0,11,11,7,1,0,0,1,0,0,1,0,0,hexagon,circle,,,,,,,,,,,,,,,,,,,,,,,,,,,,,,,,,,,,,,,,,,,,,,,,,,,,,,
298105,2022-11-15_12h13.24.255,vts_reward_expectancy_bt,2022.2.4,MacIntel,59.99880002,Chrome,1440,900,,,l,4.2866,10,67,0,1,0,12,11,1,0,0,0,1,0,0,1,0,star,hexagon,,,,,,,,,,,,,,,,,,,,,,,,,,,,,,,,,,,,,,,,,,,,,,,,,,,,,,
298105,2022-11-15_12h13.24.255,vts_reward_expectancy_bt,2022.2.4,MacIntel,59.99880002,Chrome,1440,900,,,l,3.3012,1,68,0,1,1,13,9,1,0,0,0,1,1,0,0,0,star,triangle,,,,,,,,,,,,,,,,,,,,,,,,,,,,,,,,,,,,,,,,,,,,,,,,,,,,,,
298105,2022-11-15_12h13.24.255,vts_reward_expectancy_bt,2022.2.4,MacIntel,59.99880002,Chrome,1440,900,,,l,1.4465,1,69,0,1,2,14,7,1,0,0,1,0,0,1,0,0,hexagon,circle,,,,,,,,,,,,,,,,,,,,,,,,,,,,,,,,,,,,,,,,,,,,,,,,,,,,,,
298105,2022-11-15_12h13.24.255,vts_reward_expectancy_bt,2022.2.4,MacIntel,59.99880002,Chrome,1440,900,,,l,1.3154,10,79,0,1,3,15,4,1,0,1,0,0,0,0,1,0,circle,hexagon,,,,,,,,,,,,,,,,,,,,,,,,,,,,,,,,,,,,,,,,,,,,,,,,,,,,,,
298105,2022-11-15_12h13.24.255,vts_reward_expectancy_bt,2022.2.4,MacIntel,59.99880002,Chrome,1440,900,,,a,2.2359,1,80,0,1,4,16,1,1,1,0,0,0,0,0,1,0,triangle,hexagon,,,,,,,,,,,,,,,,,,,,,,,,,,,,,,,,,,,,,,,,,,,,,,,,,,,,,,
298105,2022-11-15_12h13.24.255,vts_reward_expectancy_bt,2022.2.4,MacIntel,59.99880002,Chrome,1440,900,,,a,1.1012,10,90,0,1,5,17,6,1,0,0,1,0,1,0,0,0,hexagon,triangle,,,,,,,,,,,,,,,,,,,,,,,,,,,,,,,,,,,,,,,,,,,,,,,,,,,,,,
298105,2022-11-15_12h13.24.255,vts_reward_expectancy_bt,2022.2.4,MacIntel,59.99880002,Chrome,1440,900,,,a,1.7385,10,100,0,1,6,18,10,1,0,0,0,1,0,1,0,0,star ,circle,,,,,,,,,,,,,,,,,,,,,,,,,,,,,,,,,,,,,,,,,,,,,,,,,,,,,,
298105,2022-11-15_12h13.24.255,vts_reward_expectancy_bt,2022.2.4,MacIntel,59.99880002,Chrome,1440,900,,,l,2.537,10,110,0,1,7,19,2,1,1,0,0,0,0,0,0,1,triangle,star,,,,,,,,,,,,,,,,,,,,,,,,,,,,,,,,,,,,,,,,,,,,,,,,,,,,,,
298105,2022-11-15_12h13.24.255,vts_reward_expectancy_bt,2022.2.4,MacIntel,59.99880002,Chrome,1440,900,,,l,1.9699,10,120,0,1,8,20,3,1,0,1,0,0,1,0,0,0,circle,triangle,,,,,,,,,,,,,,,,,,,,,,,,,,,,,,,,,,,,,,,,,,,,,,,,,,,,,,
298105,2022-11-15_12h13.24.255,vts_reward_expectancy_bt,2022.2.4,MacIntel,59.99880002,Chrome,1440,900,,,a,0.9522,10,130,0,1,9,21,8,1,0,0,1,0,0,0,0,1,hexagon,star,,,,,,,,,,,,,,,,,,,,,,,,,,,,,,,,,,,,,,,,,,,,,,,,,,,,,,
298105,2022-11-15_12h13.24.255,vts_reward_expectancy_bt,2022.2.4,MacIntel,59.99880002,Chrome,1440,900,,,l,2.185,10,140,0,1,10,22,5,1,0,1,0,0,0,0,0,1,circle,star,,,,,,,,,,,,,,,,,,,,,,,,,,,,,,,,,,,,,,,,,,,,,,,,,,,,,,
298105,2022-11-15_12h13.24.255,vts_reward_expectancy_bt,2022.2.4,MacIntel,59.99880002,Chrome,1440,900,,,a,1.8026,1,141,0,1,11,23,0,1,1,0,0,0,0,1,0,0,triangle,circle,,,,,,,,,,,,,,,,,,,,,,,,,,,,,,,,,,,,,,,,,,,,,,,,,,,,,,
298105,2022-11-15_12h13.24.255,vts_reward_expectancy_bt,2022.2.4,MacIntel,59.99880002,Chrome,1440,900,,,a,2.3047,10,151,0,2,0,24,8,1,0,0,1,0,0,0,0,1,hexagon,star,,,,,,,,,,,,,,,,,,,,,,,,,,,,,,,,,,,,,,,,,,,,,,,,,,,,,,
298105,2022-11-15_12h13.24.255,vts_reward_expectancy_bt,2022.2.4,MacIntel,59.99880002,Chrome,1440,900,,,l,1.286,10,161,0,2,1,25,11,1,0,0,0,1,0,0,1,0,star,hexagon,,,,,,,,,,,,,,,,,,,,,,,,,,,,,,,,,,,,,,,,,,,,,,,,,,,,,,
298105,2022-11-15_12h13.24.255,vts_reward_expectancy_bt,2022.2.4,MacIntel,59.99880002,Chrome,1440,900,,,l,1.6566,10,171,0,2,2,26,2,1,1,0,0,0,0,0,0,1,triangle,star,,,,,,,,,,,,,,,,,,,,,,,,,,,,,,,,,,,,,,,,,,,,,,,,,,,,,,
298105,2022-11-15_12h13.24.255,vts_reward_expectancy_bt,2022.2.4,MacIntel,59.99880002,Chrome,1440,900,,,l,1.417,10,181,0,2,3,27,1,1,1,0,0,0,0,0,1,0,triangle,hexagon,,,,,,,,,,,,,,,,,,,,,,,,,,,,,,,,,,,,,,,,,,,,,,,,,,,,,,
298105,2022-11-15_12h13.24.255,vts_reward_expectancy_bt,2022.2.4,MacIntel,59.99880002,Chrome,1440,900,,,a,2.5244,1,182,0,2,4,28,9,1,0,0,0,1,1,0,0,0,star,triangle,,,,,,,,,,,,,,,,,,,,,,,,,,,,,,,,,,,,,,,,,,,,,,,,,,,,,,
298105,2022-11-15_12h13.24.255,vts_reward_expectancy_bt,2022.2.4,MacIntel,59.99880002,Chrome,1440,900,,,l,1.5809,10,192,0,2,5,29,4,1,0,1,0,0,0,0,1,0,circle,hexagon,,,,,,,,,,,,,,,,,,,,,,,,,,,,,,,,,,,,,,,,,,,,,,,,,,,,,,
298105,2022-11-15_12h13.24.255,vts_reward_expectancy_bt,2022.2.4,MacIntel,59.99880002,Chrome,1440,900,,,a,1.3343,1,193,0,2,6,30,0,1,1,0,0,0,0,1,0,0,triangle,circle,,,,,,,,,,,,,,,,,,,,,,,,,,,,,,,,,,,,,,,,,,,,,,,,,,,,,,
298105,2022-11-15_12h13.24.255,vts_reward_expectancy_bt,2022.2.4,MacIntel,59.99880002,Chrome,1440,900,,,a,1.8736,1,194,0,2,7,31,10,1,0,0,0,1,0,1,0,0,star ,circle,,,,,,,,,,,,,,,,,,,,,,,,,,,,,,,,,,,,,,,,,,,,,,,,,,,,,,
298105,2022-11-15_12h13.24.255,vts_reward_expectancy_bt,2022.2.4,MacIntel,59.99880002,Chrome,1440,900,,,a,1.0396,10,204,0,2,8,32,6,1,0,0,1,0,1,0,0,0,hexagon,triangle,,,,,,,,,,,,,,,,,,,,,,,,,,,,,,,,,,,,,,,,,,,,,,,,,,,,,,
298105,2022-11-15_12h13.24.255,vts_reward_expectancy_bt,2022.2.4,MacIntel,59.99880002,Chrome,1440,900,,,a,1.3969,1,205,0,2,9,33,3,1,0,1,0,0,1,0,0,0,circle,triangle,,,,,,,,,,,,,,,,,,,,,,,,,,,,,,,,,,,,,,,,,,,,,,,,,,,,,,
298105,2022-11-15_12h13.24.255,vts_reward_expectancy_bt,2022.2.4,MacIntel,59.99880002,Chrome,1440,900,,,l,1.404,10,215,0,2,10,34,5,1,0,1,0,0,0,0,0,1,circle,star,,,,,,,,,,,,,,,,,,,,,,,,,,,,,,,,,,,,,,,,,,,,,,,,,,,,,,
298105,2022-11-15_12h13.24.255,vts_reward_expectancy_bt,2022.2.4,MacIntel,59.99880002,Chrome,1440,900,,,a,8.7132,10,225,0,2,11,35,7,1,0,0,1,0,0,1,0,0,hexagon,circle,,,,,,,,,,,,,,,,,,,,,,,,,,,,,,,,,,,,,,,,,,,,,,,,,,,,,,
298105,2022-11-15_12h13.24.255,vts_reward_expectancy_bt,2022.2.4,MacIntel,59.99880002,Chrome,1440,900,,,a,1.4355,10,235,1,0,0,0,6,1,0,0,1,0,1,0,0,0,hexagon,triangle,,,,,,,,,,,,,,,,,,,,,,,,,,,,,,,,,,,,,,,,,,,,,,,,,,,,,,
298105,2022-11-15_12h13.24.255,vts_reward_expectancy_bt,2022.2.4,MacIntel,59.99880002,Chrome,1440,900,,,l,1.4522,10,245,1,0,1,1,11,1,0,0,0,1,0,0,1,0,star,hexagon,,,,,,,,,,,,,,,,,,,,,,,,,,,,,,,,,,,,,,,,,,,,,,,,,,,,,,
298105,2022-11-15_12h13.24.255,vts_reward_expectancy_bt,2022.2.4,MacIntel,59.99880002,Chrome,1440,900,,,a,0.8995,10,255,1,0,2,2,8,1,0,0,1,0,0,0,0,1,hexagon,star,,,,,,,,,,,,,,,,,,,,,,,,,,,,,,,,,,,,,,,,,,,,,,,,,,,,,,
298105,2022-11-15_12h13.24.255,vts_reward_expectancy_bt,2022.2.4,MacIntel,59.99880002,Chrome,1440,900,,,a,3.2963,1,256,1,0,3,3,3,1,0,1,0,0,1,0,0,0,circle,triangle,,,,,,,,,,,,,,,,,,,,,,,,,,,,,,,,,,,,,,,,,,,,,,,,,,,,,,
298105,2022-11-15_12h13.24.255,vts_reward_expectancy_bt,2022.2.4,MacIntel,59.99880002,Chrome,1440,900,,,l,1.4952,10,266,1,0,4,4,2,1,1,0,0,0,0,0,0,1,triangle,star,,,,,,,,,,,,,,,,,,,,,,,,,,,,,,,,,,,,,,,,,,,,,,,,,,,,,,
298105,2022-11-15_12h13.24.255,vts_reward_expectancy_bt,2022.2.4,MacIntel,59.99880002,Chrome,1440,900,,,a,2.0742,10,276,1,0,5,5,10,1,0,0,0,1,0,1,0,0,star ,circle,,,,,,,,,,,,,,,,,,,,,,,,,,,,,,,,,,,,,,,,,,,,,,,,,,,,,,
298105,2022-11-15_12h13.24.255,vts_reward_expectancy_bt,2022.2.4,MacIntel,59.99880002,Chrome,1440,900,,,l,0.8523,10,286,1,0,6,6,1,1,1,0,0,0,0,0,1,0,triangle,hexagon,,,,,,,,,,,,,,,,,,,,,,,,,,,,,,,,,,,,,,,,,,,,,,,,,,,,,,
298105,2022-11-15_12h13.24.255,vts_reward_expectancy_bt,2022.2.4,MacIntel,59.99880002,Chrome,1440,900,,,l,1.9652,10,296,1,0,7,7,4,1,0,1,0,0,0,0,1,0,circle,hexagon,,,,,,,,,,,,,,,,,,,,,,,,,,,,,,,,,,,,,,,,,,,,,,,,,,,,,,
298105,2022-11-15_12h13.24.255,vts_reward_expectancy_bt,2022.2.4,MacIntel,59.99880002,Chrome,1440,900,,,l,4.2667,1,297,1,0,8,8,0,1,1,0,0,0,0,1,0,0,triangle,circle,,,,,,,,,,,,,,,,,,,,,,,,,,,,,,,,,,,,,,,,,,,,,,,,,,,,,,
298105,2022-11-15_12h13.24.255,vts_reward_expectancy_bt,2022.2.4,MacIntel,59.99880002,Chrome,1440,900,,,l,1.5534,10,307,1,0,9,9,5,1,0,1,0,0,0,0,0,1,circle,star,,,,,,,,,,,,,,,,,,,,,,,,,,,,,,,,,,,,,,,,,,,,,,,,,,,,,,
298105,2022-11-15_12h13.24.255,vts_reward_expectancy_bt,2022.2.4,MacIntel,59.99880002,Chrome,1440,900,,,a,1.2327,10,317,1,0,10,10,9,1,0,0,0,1,1,0,0,0,star,triangle,,,,,,,,,,,,,,,,,,,,,,,,,,,,,,,,,,,,,,,,,,,,,,,,,,,,,,
298105,2022-11-15_12h13.24.255,vts_reward_expectancy_bt,2022.2.4,MacIntel,59.99880002,Chrome,1440,900,,,a,1.0362,10,327,1,0,11,11,7,1,0,0,1,0,0,1,0,0,hexagon,circle,,,,,,,,,,,,,,,,,,,,,,,,,,,,,,,,,,,,,,,,,,,,,,,,,,,,,,
298105,2022-11-15_12h13.24.255,vts_reward_expectancy_bt,2022.2.4,MacIntel,59.99880002,Chrome,1440,900,,,l,1.6028,10,337,1,1,0,12,11,1,0,0,0,1,0,0,1,0,star,hexagon,,,,,,,,,,,,,,,,,,,,,,,,,,,,,,,,,,,,,,,,,,,,,,,,,,,,,,
298105,2022-11-15_12h13.24.255,vts_reward_expectancy_bt,2022.2.4,MacIntel,59.99880002,Chrome,1440,900,,,a,1.0751,10,347,1,1,1,13,10,1,0,0,0,1,0,1,0,0,star ,circle,,,,,,,,,,,,,,,,,,,,,,,,,,,,,,,,,,,,,,,,,,,,,,,,,,,,,,
298105,2022-11-15_12h13.24.255,vts_reward_expectancy_bt,2022.2.4,MacIntel,59.99880002,Chrome,1440,900,,,a,1.5245,10,357,1,1,2,14,3,1,0,1,0,0,1,0,0,0,circle,triangle,,,,,,,,,,,,,,,,,,,,,,,,,,,,,,,,,,,,,,,,,,,,,,,,,,,,,,
298105,2022-11-15_12h13.24.255,vts_reward_expectancy_bt,2022.2.4,MacIntel,59.99880002,Chrome,1440,900,,,l,0.8396,10,367,1,1,3,15,4,1,0,1,0,0,0,0,1,0,circle,hexagon,,,,,,,,,,,,,,,,,,,,,,,,,,,,,,,,,,,,,,,,,,,,,,,,,,,,,,
298105,2022-11-15_12h13.24.255,vts_reward_expectancy_bt,2022.2.4,MacIntel,59.99880002,Chrome,1440,900,,,a,0.7784,10,377,1,1,4,16,9,1,0,0,0,1,1,0,0,0,star,triangle,,,,,,,,,,,,,,,,,,,,,,,,,,,,,,,,,,,,,,,,,,,,,,,,,,,,,,
298105,2022-11-15_12h13.24.255,vts_reward_expectancy_bt,2022.2.4,MacIntel,59.99880002,Chrome,1440,900,,,l,0.9485,10,387,1,1,5,17,5,1,0,1,0,0,0,0,0,1,circle,star,,,,,,,,,,,,,,,,,,,,,,,,,,,,,,,,,,,,,,,,,,,,,,,,,,,,,,
298105,2022-11-15_12h13.24.255,vts_reward_expectancy_bt,2022.2.4,MacIntel,59.99880002,Chrome,1440,900,,,a,2.839,1,388,1,1,6,18,0,1,1,0,0,0,0,1,0,0,triangle,circle,,,,,,,,,,,,,,,,,,,,,,,,,,,,,,,,,,,,,,,,,,,,,,,,,,,,,,
298105,2022-11-15_12h13.24.255,vts_reward_expectancy_bt,2022.2.4,MacIntel,59.99880002,Chrome,1440,900,,,a,1.3006,10,398,1,1,7,19,6,1,0,0,1,0,1,0,0,0,hexagon,triangle,,,,,,,,,,,,,,,,,,,,,,,,,,,,,,,,,,,,,,,,,,,,,,,,,,,,,,
298105,2022-11-15_12h13.24.255,vts_reward_expectancy_bt,2022.2.4,MacIntel,59.99880002,Chrome,1440,900,,,l,2.4679,10,408,1,1,8,20,2,1,1,0,0,0,0,0,0,1,triangle,star,,,,,,,,,,,,,,,,,,,,,,,,,,,,,,,,,,,,,,,,,,,,,,,,,,,,,,
298105,2022-11-15_12h13.24.255,vts_reward_expectancy_bt,2022.2.4,MacIntel,59.99880002,Chrome,1440,900,,,a,0.9835,1,409,1,1,9,21,8,1,0,0,1,0,0,0,0,1,hexagon,star,,,,,,,,,,,,,,,,,,,,,,,,,,,,,,,,,,,,,,,,,,,,,,,,,,,,,,
298105,2022-11-15_12h13.24.255,vts_reward_expectancy_bt,2022.2.4,MacIntel,59.99880002,Chrome,1440,900,,,l,0.9338,10,419,1,1,10,22,1,1,1,0,0,0,0,0,1,0,triangle,hexagon,,,,,,,,,,,,,,,,,,,,,,,,,,,,,,,,,,,,,,,,,,,,,,,,,,,,,,
298105,2022-11-15_12h13.24.255,vts_reward_expectancy_bt,2022.2.4,MacIntel,59.99880002,Chrome,1440,900,,,a,1.1131,1,420,1,1,11,23,7,1,0,0,1,0,0,1,0,0,hexagon,circle,,,,,,,,,,,,,,,,,,,,,,,,,,,,,,,,,,,,,,,,,,,,,,,,,,,,,,
298105,2022-11-15_12h13.24.255,vts_reward_expectancy_bt,2022.2.4,MacIntel,59.99880002,Chrome,1440,900,,,l,1.3484,1,421,1,2,0,24,10,1,0,0,0,1,0,1,0,0,star ,circle,,,,,,,,,,,,,,,,,,,,,,,,,,,,,,,,,,,,,,,,,,,,,,,,,,,,,,
298105,2022-11-15_12h13.24.255,vts_reward_expectancy_bt,2022.2.4,MacIntel,59.99880002,Chrome,1440,900,,,l,4.3094,10,431,1,2,1,25,4,1,0,1,0,0,0,0,1,0,circle,hexagon,,,,,,,,,,,,,,,,,,,,,,,,,,,,,,,,,,,,,,,,,,,,,,,,,,,,,,
298105,2022-11-15_12h13.24.255,vts_reward_expectancy_bt,2022.2.4,MacIntel,59.99880002,Chrome,1440,900,,,l,1.524,10,441,1,2,2,26,11,1,0,0,0,1,0,0,1,0,star,hexagon,,,,,,,,,,,,,,,,,,,,,,,,,,,,,,,,,,,,,,,,,,,,,,,,,,,,,,
298105,2022-11-15_12h13.24.255,vts_reward_expectancy_bt,2022.2.4,MacIntel,59.99880002,Chrome,1440,900,,,l,3.8646,1,442,1,2,3,27,7,1,0,0,1,0,0,1,0,0,hexagon,circle,,,,,,,,,,,,,,,,,,,,,,,,,,,,,,,,,,,,,,,,,,,,,,,,,,,,,,
298105,2022-11-15_12h13.24.255,vts_reward_expectancy_bt,2022.2.4,MacIntel,59.99880002,Chrome,1440,900,,,l,1.3758,10,452,1,2,4,28,1,1,1,0,0,0,0,0,1,0,triangle,hexagon,,,,,,,,,,,,,,,,,,,,,,,,,,,,,,,,,,,,,,,,,,,,,,,,,,,,,,
298105,2022-11-15_12h13.24.255,vts_reward_expectancy_bt,2022.2.4,MacIntel,59.99880002,Chrome,1440,900,,,a,2.1035,10,462,1,2,5,29,8,1,0,0,1,0,0,0,0,1,hexagon,star,,,,,,,,,,,,,,,,,,,,,,,,,,,,,,,,,,,,,,,,,,,,,,,,,,,,,,
298105,2022-11-15_12h13.24.255,vts_reward_expectancy_bt,2022.2.4,MacIntel,59.99880002,Chrome,1440,900,,,l,0.938,1,463,1,2,6,30,2,1,1,0,0,0,0,0,0,1,triangle,star,,,,,,,,,,,,,,,,,,,,,,,,,,,,,,,,,,,,,,,,,,,,,,,,,,,,,,
298105,2022-11-15_12h13.24.255,vts_reward_expectancy_bt,2022.2.4,MacIntel,59.99880002,Chrome,1440,900,,,a,2.0662,10,473,1,2,7,31,9,1,0,0,0,1,1,0,0,0,star,triangle,,,,,,,,,,,,,,,,,,,,,,,,,,,,,,,,,,,,,,,,,,,,,,,,,,,,,,
298105,2022-11-15_12h13.24.255,vts_reward_expectancy_bt,2022.2.4,MacIntel,59.99880002,Chrome,1440,900,,,a,1.5843,10,483,1,2,8,32,3,1,0,1,0,0,1,0,0,0,circle,triangle,,,,,,,,,,,,,,,,,,,,,,,,,,,,,,,,,,,,,,,,,,,,,,,,,,,,,,
298105,2022-11-15_12h13.24.255,vts_reward_expectancy_bt,2022.2.4,MacIntel,59.99880002,Chrome,1440,900,,,a,4.2002,10,493,1,2,9,33,0,1,1,0,0,0,0,1,0,0,triangle,circle,,,,,,,,,,,,,,,,,,,,,,,,,,,,,,,,,,,,,,,,,,,,,,,,,,,,,,
298105,2022-11-15_12h13.24.255,vts_reward_expectancy_bt,2022.2.4,MacIntel,59.99880002,Chrome,1440,900,,,l,2.5998,10,503,1,2,10,34,5,1,0,1,0,0,0,0,0,1,circle,star,,,,,,,,,,,,,,,,,,,,,,,,,,,,,,,,,,,,,,,,,,,,,,,,,,,,,,
298105,2022-11-15_12h13.24.255,vts_reward_expectancy_bt,2022.2.4,MacIntel,59.99880002,Chrome,1440,900,,,a,1.1716,10,513,1,2,11,35,6,1,0,0,1,0,1,0,0,0,hexagon,triangle,,,,,,,,,,,,,,,,,,,,,,,,,,,,,,,,,,,,,,,,,,,,,,,,,,,,,,
298105,2022-11-15_12h13.24.255,vts_reward_expectancy_bt,2022.2.4,MacIntel,59.99880002,Chrome,1440,900,,,l,1.946,10,523,2,0,0,0,5,1,0,1,0,0,0,0,0,1,circle,star,,,,,,,,,,,,,,,,,,,,,,,,,,,,,,,,,,,,,,,,,,,,,,,,,,,,,,
298105,2022-11-15_12h13.24.255,vts_reward_expectancy_bt,2022.2.4,MacIntel,59.99880002,Chrome,1440,900,,,l,2.7646,10,533,2,0,1,1,8,1,0,0,1,0,0,0,0,1,hexagon,star,,,,,,,,,,,,,,,,,,,,,,,,,,,,,,,,,,,,,,,,,,,,,,,,,,,,,,
298105,2022-11-15_12h13.24.255,vts_reward_expectancy_bt,2022.2.4,MacIntel,59.99880002,Chrome,1440,900,,,a,1.004,10,543,2,0,2,2,6,1,0,0,1,0,1,0,0,0,hexagon,triangle,,,,,,,,,,,,,,,,,,,,,,,,,,,,,,,,,,,,,,,,,,,,,,,,,,,,,,
298105,2022-11-15_12h13.24.255,vts_reward_expectancy_bt,2022.2.4,MacIntel,59.99880002,Chrome,1440,900,,,a,1.361,1,544,2,0,3,3,3,1,0,1,0,0,1,0,0,0,circle,triangle,,,,,,,,,,,,,,,,,,,,,,,,,,,,,,,,,,,,,,,,,,,,,,,,,,,,,,
298105,2022-11-15_12h13.24.255,vts_reward_expectancy_bt,2022.2.4,MacIntel,59.99880002,Chrome,1440,900,,,l,1.1869,10,554,2,0,4,4,4,1,0,1,0,0,0,0,1,0,circle,hexagon,,,,,,,,,,,,,,,,,,,,,,,,,,,,,,,,,,,,,,,,,,,,,,,,,,,,,,
298105,2022-11-15_12h13.24.255,vts_reward_expectancy_bt,2022.2.4,MacIntel,59.99880002,Chrome,1440,900,,,a,1.9188,1,555,2,0,5,5,9,1,0,0,0,1,1,0,0,0,star,triangle,,,,,,,,,,,,,,,,,,,,,,,,,,,,,,,,,,,,,,,,,,,,,,,,,,,,,,
298105,2022-11-15_12h13.24.255,vts_reward_expectancy_bt,2022.2.4,MacIntel,59.99880002,Chrome,1440,900,,,a,1.8443,10,565,2,0,6,6,11,1,0,0,0,1,0,0,1,0,star,hexagon,,,,,,,,,,,,,,,,,,,,,,,,,,,,,,,,,,,,,,,,,,,,,,,,,,,,,,
298105,2022-11-15_12h13.24.255,vts_reward_expectancy_bt,2022.2.4,MacIntel,59.99880002,Chrome,1440,900,,,a,1.5773,1,566,2,0,7,7,7,1,0,0,1,0,0,1,0,0,hexagon,circle,,,,,,,,,,,,,,,,,,,,,,,,,,,,,,,,,,,,,,,,,,,,,,,,,,,,,,
298105,2022-11-15_12h13.24.255,vts_reward_expectancy_bt,2022.2.4,MacIntel,59.99880002,Chrome,1440,900,,,a,1.4245,1,567,2,0,8,8,0,1,1,0,0,0,0,1,0,0,triangle,circle,,,,,,,,,,,,,,,,,,,,,,,,,,,,,,,,,,,,,,,,,,,,,,,,,,,,,,
298105,2022-11-15_12h13.24.255,vts_reward_expectancy_bt,2022.2.4,MacIntel,59.99880002,Chrome,1440,900,,,l,1.1115,10,577,2,0,9,9,1,1,1,0,0,0,0,0,1,0,triangle,hexagon,,,,,,,,,,,,,,,,,,,,,,,,,,,,,,,,,,,,,,,,,,,,,,,,,,,,,,
298105,2022-11-15_12h13.24.255,vts_reward_expectancy_bt,2022.2.4,MacIntel,59.99880002,Chrome,1440,900,,,l,1.6959,10,587,2,0,10,10,2,1,1,0,0,0,0,0,0,1,triangle,star,,,,,,,,,,,,,,,,,,,,,,,,,,,,,,,,,,,,,,,,,,,,,,,,,,,,,,
298105,2022-11-15_12h13.24.255,vts_reward_expectancy_bt,2022.2.4,MacIntel,59.99880002,Chrome,1440,900,,,a,1.0957,10,597,2,0,11,11,10,1,0,0,0,1,0,1,0,0,star ,circle,,,,,,,,,,,,,,,,,,,,,,,,,,,,,,,,,,,,,,,,,,,,,,,,,,,,,,
298105,2022-11-15_12h13.24.255,vts_reward_expectancy_bt,2022.2.4,MacIntel,59.99880002,Chrome,1440,900,,,l,0.8968,10,607,2,1,0,12,5,1,0,1,0,0,0,0,0,1,circle,star,,,,,,,,,,,,,,,,,,,,,,,,,,,,,,,,,,,,,,,,,,,,,,,,,,,,,,
298105,2022-11-15_12h13.24.255,vts_reward_expectancy_bt,2022.2.4,MacIntel,59.99880002,Chrome,1440,900,,,l,1.3986,10,617,2,1,1,13,4,1,0,1,0,0,0,0,1,0,circle,hexagon,,,,,,,,,,,,,,,,,,,,,,,,,,,,,,,,,,,,,,,,,,,,,,,,,,,,,,
298105,2022-11-15_12h13.24.255,vts_reward_expectancy_bt,2022.2.4,MacIntel,59.99880002,Chrome,1440,900,,,a,1.4123,10,627,2,1,2,14,10,1,0,0,0,1,0,1,0,0,star ,circle,,,,,,,,,,,,,,,,,,,,,,,,,,,,,,,,,,,,,,,,,,,,,,,,,,,,,,
298105,2022-11-15_12h13.24.255,vts_reward_expectancy_bt,2022.2.4,MacIntel,59.99880002,Chrome,1440,900,,,a,4.9508,10,637,2,1,3,15,7,1,0,0,1,0,0,1,0,0,hexagon,circle,,,,,,,,,,,,,,,,,,,,,,,,,,,,,,,,,,,,,,,,,,,,,,,,,,,,,,
298105,2022-11-15_12h13.24.255,vts_reward_expectancy_bt,2022.2.4,MacIntel,59.99880002,Chrome,1440,900,,,a,1.5737,10,647,2,1,4,16,6,1,0,0,1,0,1,0,0,0,hexagon,triangle,,,,,,,,,,,,,,,,,,,,,,,,,,,,,,,,,,,,,,,,,,,,,,,,,,,,,,
298105,2022-11-15_12h13.24.255,vts_reward_expectancy_bt,2022.2.4,MacIntel,59.99880002,Chrome,1440,900,,,a,1.1231,1,648,2,1,5,17,9,1,0,0,0,1,1,0,0,0,star,triangle,,,,,,,,,,,,,,,,,,,,,,,,,,,,,,,,,,,,,,,,,,,,,,,,,,,,,,
298105,2022-11-15_12h13.24.255,vts_reward_expectancy_bt,2022.2.4,MacIntel,59.99880002,Chrome,1440,900,,,a,1.9133,1,649,2,1,6,18,2,1,1,0,0,0,0,0,0,1,triangle,star,,,,,,,,,,,,,,,,,,,,,,,,,,,,,,,,,,,,,,,,,,,,,,,,,,,,,,
298105,2022-11-15_12h13.24.255,vts_reward_expectancy_bt,2022.2.4,MacIntel,59.99880002,Chrome,1440,900,,,a,1.6497,1,650,2,1,7,19,0,1,1,0,0,0,0,1,0,0,triangle,circle,,,,,,,,,,,,,,,,,,,,,,,,,,,,,,,,,,,,,,,,,,,,,,,,,,,,,,
298105,2022-11-15_12h13.24.255,vts_reward_expectancy_bt,2022.2.4,MacIntel,59.99880002,Chrome,1440,900,,,a,2.118,10,660,2,1,8,20,11,1,0,0,0,1,0,0,1,0,star,hexagon,,,,,,,,,,,,,,,,,,,,,,,,,,,,,,,,,,,,,,,,,,,,,,,,,,,,,,
298105,2022-11-15_12h13.24.255,vts_reward_expectancy_bt,2022.2.4,MacIntel,59.99880002,Chrome,1440,900,,,l,3.448,1,661,2,1,9,21,3,1,0,1,0,0,1,0,0,0,circle,triangle,,,,,,,,,,,,,,,,,,,,,,,,,,,,,,,,,,,,,,,,,,,,,,,,,,,,,,
298105,2022-11-15_12h13.24.255,vts_reward_expectancy_bt,2022.2.4,MacIntel,59.99880002,Chrome,1440,900,,,l,1.6656,10,671,2,1,10,22,1,1,1,0,0,0,0,0,1,0,triangle,hexagon,,,,,,,,,,,,,,,,,,,,,,,,,,,,,,,,,,,,,,,,,,,,,,,,,,,,,,
298105,2022-11-15_12h13.24.255,vts_reward_expectancy_bt,2022.2.4,MacIntel,59.99880002,Chrome,1440,900,,,l,1.0517,10,681,2,1,11,23,8,1,0,0,1,0,0,0,0,1,hexagon,star,,,,,,,,,,,,,,,,,,,,,,,,,,,,,,,,,,,,,,,,,,,,,,,,,,,,,,
298105,2022-11-15_12h13.24.255,vts_reward_expectancy_bt,2022.2.4,MacIntel,59.99880002,Chrome,1440,900,,,a,1.5332,10,691,2,2,0,24,10,1,0,0,0,1,0,1,0,0,star ,circle,,,,,,,,,,,,,,,,,,,,,,,,,,,,,,,,,,,,,,,,,,,,,,,,,,,,,,
298105,2022-11-15_12h13.24.255,vts_reward_expectancy_bt,2022.2.4,MacIntel,59.99880002,Chrome,1440,900,,,l,1.3187,10,701,2,2,1,25,1,1,1,0,0,0,0,0,1,0,triangle,hexagon,,,,,,,,,,,,,,,,,,,,,,,,,,,,,,,,,,,,,,,,,,,,,,,,,,,,,,
298105,2022-11-15_12h13.24.255,vts_reward_expectancy_bt,2022.2.4,MacIntel,59.99880002,Chrome,1440,900,,,a,1.9828,10,711,2,2,2,26,6,1,0,0,1,0,1,0,0,0,hexagon,triangle,,,,,,,,,,,,,,,,,,,,,,,,,,,,,,,,,,,,,,,,,,,,,,,,,,,,,,
298105,2022-11-15_12h13.24.255,vts_reward_expectancy_bt,2022.2.4,MacIntel,59.99880002,Chrome,1440,900,,,a,2.5356,1,712,2,2,3,27,3,1,0,1,0,0,1,0,0,0,circle,triangle,,,,,,,,,,,,,,,,,,,,,,,,,,,,,,,,,,,,,,,,,,,,,,,,,,,,,,
298105,2022-11-15_12h13.24.255,vts_reward_expectancy_bt,2022.2.4,MacIntel,59.99880002,Chrome,1440,900,,,a,2.038,1,713,2,2,4,28,7,1,0,0,1,0,0,1,0,0,hexagon,circle,,,,,,,,,,,,,,,,,,,,,,,,,,,,,,,,,,,,,,,,,,,,,,,,,,,,,,
298105,2022-11-15_12h13.24.255,vts_reward_expectancy_bt,2022.2.4,MacIntel,59.99880002,Chrome,1440,900,,,l,1.0005,10,723,2,2,5,29,8,1,0,0,1,0,0,0,0,1,hexagon,star,,,,,,,,,,,,,,,,,,,,,,,,,,,,,,,,,,,,,,,,,,,,,,,,,,,,,,
298105,2022-11-15_12h13.24.255,vts_reward_expectancy_bt,2022.2.4,MacIntel,59.99880002,Chrome,1440,900,,,l,0.8141,1,724,2,2,6,30,2,1,1,0,0,0,0,0,0,1,triangle,star,,,,,,,,,,,,,,,,,,,,,,,,,,,,,,,,,,,,,,,,,,,,,,,,,,,,,,
298105,2022-11-15_12h13.24.255,vts_reward_expectancy_bt,2022.2.4,MacIntel,59.99880002,Chrome,1440,900,,,a,1.4243,10,734,2,2,7,31,11,1,0,0,0,1,0,0,1,0,star,hexagon,,,,,,,,,,,,,,,,,,,,,,,,,,,,,,,,,,,,,,,,,,,,,,,,,,,,,,
298105,2022-11-15_12h13.24.255,vts_reward_expectancy_bt,2022.2.4,MacIntel,59.99880002,Chrome,1440,900,,,l,1.1018,10,744,2,2,8,32,5,1,0,1,0,0,0,0,0,1,circle,star,,,,,,,,,,,,,,,,,,,,,,,,,,,,,,,,,,,,,,,,,,,,,,,,,,,,,,
298105,2022-11-15_12h13.24.255,vts_reward_expectancy_bt,2022.2.4,MacIntel,59.99880002,Chrome,1440,900,,,l,4.5316,1,745,2,2,9,33,0,1,1,0,0,0,0,1,0,0,triangle,circle,,,,,,,,,,,,,,,,,,,,,,,,,,,,,,,,,,,,,,,,,,,,,,,,,,,,,,
298105,2022-11-15_12h13.24.255,vts_reward_expectancy_bt,2022.2.4,MacIntel,59.99880002,Chrome,1440,900,,,l,2.1879,10,755,2,2,10,34,4,1,0,1,0,0,0,0,1,0,circle,hexagon,,,,,,,,,,,,,,,,,,,,,,,,,,,,,,,,,,,,,,,,,,,,,,,,,,,,,,
298105,2022-11-15_12h13.24.255,vts_reward_expectancy_bt,2022.2.4,MacIntel,59.99880002,Chrome,1440,900,,,a,0.8989,10,765,2,2,11,35,9,1,0,0,0,1,1,0,0,0,star,triangle,,,,,,,,,,,,,,,,,,,,,,,,,,,,,,,,,,,,,,,,,,,,,,,,,,,,,,
298105,2022-11-15_12h13.24.255,vts_reward_expectancy_bt,2022.2.4,MacIntel,59.99880002,Chrome,1440,900,,,,,,,,,,,,,,,,,,,,,,,132,F,hexagon,1,0,d,2.403,0,0,0,0,0,1,,,,,,,,,,,,,,,,,,,,,,,,,,,,,,,,,,,,,,,,,
298105,2022-11-15_12h13.24.255,vts_reward_expectancy_bt,2022.2.4,MacIntel,59.99880002,Chrome,1440,900,,,,,,,,,,,,,,,,,,,,,,,146,Y,triangle,1,0,d,0.6463,0,1,0,1,0,1,,,,,,,,,,,,,,,,,,,,,,,,,,,,,,,,,,,,,,,,,
298105,2022-11-15_12h13.24.255,vts_reward_expectancy_bt,2022.2.4,MacIntel,59.99880002,Chrome,1440,900,,,,,,,,,,,,,,,,,,,,,,,139,B,circle,1,0,d,0.5802,0,2,0,2,0,1,,,,,,,,,,,,,,,,,,,,,,,,,,,,,,,,,,,,,,,,,
298105,2022-11-15_12h13.24.255,vts_reward_expectancy_bt,2022.2.4,MacIntel,59.99880002,Chrome,1440,900,,,,,,,,,,,,,,,,,,,,,,,181,U,star,1,0,f,0.4928,0,3,0,3,0,1,,,,,,,,,,,,,,,,,,,,,,,,,,,,,,,,,,,,,,,,,
298105,2022-11-15_12h13.24.255,vts_reward_expectancy_bt,2022.2.4,MacIntel,59.99880002,Chrome,1440,900,,,,,,,,,,,,,,,,,,,,,,,125,S,hexagon,1,0,d,0.8306,0,4,0,4,0,1,,,,,,,,,,,,,,,,,,,,,,,,,,,,,,,,,,,,,,,,,
298105,2022-11-15_12h13.24.255,vts_reward_expectancy_bt,2022.2.4,MacIntel,59.99880002,Chrome,1440,900,,,,,,,,,,,,,,,,,,,,,,,167,W,triangle,1,0,f,0.5792,0,5,0,5,0,1,,,,,,,,,,,,,,,,,,,,,,,,,,,,,,,,,,,,,,,,,
298105,2022-11-15_12h13.24.255,vts_reward_expectancy_bt,2022.2.4,MacIntel,59.99880002,Chrome,1440,900,,,,,,,,,,,,,,,,,,,,,,,174,D,circle,1,0,f,0.5058,0,6,0,6,0,1,,,,,,,,,,,,,,,,,,,,,,,,,,,,,,,,,,,,,,,,,
298105,2022-11-15_12h13.24.255,vts_reward_expectancy_bt,2022.2.4,MacIntel,59.99880002,Chrome,1440,900,,,,,,,,,,,,,,,,,,,,,,,160,H,star,1,0,f,0.7843,0,7,0,7,0,1,,,,,,,,,,,,,,,,,,,,,,,,,,,,,,,,,,,,,,,,,
298105,2022-11-15_12h13.24.255,vts_reward_expectancy_bt,2022.2.4,MacIntel,59.99880002,Chrome,1440,900,,,,,,,,,,,,,,,,,,,,,,,132,F,hexagon,1,0,d,0.7641,0,8,0,8,0,1,,,,,,,,,,,,,,,,,,,,,,,,,,,,,,,,,,,,,,,,,
298105,2022-11-15_12h13.24.255,vts_reward_expectancy_bt,2022.2.4,MacIntel,59.99880002,Chrome,1440,900,,,,,,,,,,,,,,,,,,,,,,,146,Y,star,1,0,d,0.9516,0,9,0,9,0,1,,,,,,,,,,,,,,,,,,,,,,,,,,,,,,,,,,,,,,,,,
298105,2022-11-15_12h13.24.255,vts_reward_expectancy_bt,2022.2.4,MacIntel,59.99880002,Chrome,1440,900,,,,,,,,,,,,,,,,,,,,,,,132,W,triangle,0,0,,,1,,,,,,,0,0,0,0,1,,,,,,,,,,,,,,,,,,,,,,,,,,,,,,,,,,,
298105,2022-11-15_12h13.24.255,vts_reward_expectancy_bt,2022.2.4,MacIntel,59.99880002,Chrome,1440,900,,,,,,,,,,,,,,,,,,,,,,,160,U,circle,0,1,,,1,,,,,,,1,0,1,0,1,,,,,,,,,,,,,,,,,,,,,,,,,,,,,,,,,,,
298105,2022-11-15_12h13.24.255,vts_reward_expectancy_bt,2022.2.4,MacIntel,59.99880002,Chrome,1440,900,,,,,,,,,,,,,,,,,,,,,,,146,S,star,0,1,,,1,,,,,,,2,0,2,0,1,,,,,,,,,,,,,,,,,,,,,,,,,,,,,,,,,,,
298105,2022-11-15_12h13.24.255,vts_reward_expectancy_bt,2022.2.4,MacIntel,59.99880002,Chrome,1440,900,,,,,,,,,,,,,,,,,,,,,,,167,B,hexagon,0,1,,,1,,,,,,,3,0,3,0,1,,,,,,,,,,,,,,,,,,,,,,,,,,,,,,,,,,,
298105,2022-11-15_12h13.24.255,vts_reward_expectancy_bt,2022.2.4,MacIntel,59.99880002,Chrome,1440,900,,,,,,,,,,,,,,,,,,,,,,,174,F,triangle,1,1,,,1,,,,,,j,4,0,4,0,1,0.4847,,,,,,,,,,,,,,,,,,,,,,,,,,,,,,,,,,
298105,2022-11-15_12h13.24.255,vts_reward_expectancy_bt,2022.2.4,MacIntel,59.99880002,Chrome,1440,900,,,,,,,,,,,,,,,,,,,,,,,181,Y,circle,0,0,,,1,,,,,,j,5,0,5,0,1,0.8855,,,,,,,,,,,,,,,,,,,,,,,,,,,,,,,,,,
298105,2022-11-15_12h13.24.255,vts_reward_expectancy_bt,2022.2.4,MacIntel,59.99880002,Chrome,1440,900,,,,,,,,,,,,,,,,,,,,,,,139,D,star,2,1,,,1,,,,,,d,6,0,6,0,1,2.655,,,,,,,,,,,,,,,,,,,,,,,,,,,,,,,,,,
298105,2022-11-15_12h13.24.255,vts_reward_expectancy_bt,2022.2.4,MacIntel,59.99880002,Chrome,1440,900,,,,,,,,,,,,,,,,,,,,,,,125,H,hexagon,2,0,,,1,,,,,,f,7,0,7,0,1,0.4841,,,,,,,,,,,,,,,,,,,,,,,,,,,,,,,,,,
298105,2022-11-15_12h13.24.255,vts_reward_expectancy_bt,2022.2.4,MacIntel,59.99880002,Chrome,1440,900,,,,,,,,,,,,,,,,,,,,,,,132,W,hexagon,0,0,,,1,,,,,,,8,0,8,0,1,,,,,,,,,,,,,,,,,,,,,,,,,,,,,,,,,,,
298105,2022-11-15_12h13.24.255,vts_reward_expectancy_bt,2022.2.4,MacIntel,59.99880002,Chrome,1440,900,,,,,,,,,,,,,,,,,,,,,,,160,U,circle,2,1,,,1,,,,,,d,9,0,9,0,1,0.9474,,,,,,,,,,,,,,,,,,,,,,,,,,,,,,,,,,
298105,2022-11-15_12h13.24.255,vts_reward_expectancy_bt,2022.2.4,MacIntel,59.99880002,Chrome,1440,900,,,,,,,,,,,,,,,,,,,,,,,174,H,hexagon,1,0,,,2,,,,,,j,0,0,0,0,1,0.9034,,,,,,,,,,,,,,,,,,,,,,,,,,,,,,,,,,
298105,2022-11-15_12h13.24.255,vts_reward_expectancy_bt,2022.2.4,MacIntel,59.99880002,Chrome,1440,900,,,,,,,,,,,,,,,,,,,,,,,146,F,triangle,1,0,,,2,,,,,,j,1,0,1,0,1,0.7851,,,,,,,,,,,,,,,,,,,,,,,,,,,,,,,,,,
298105,2022-11-15_12h13.24.255,vts_reward_expectancy_bt,2022.2.4,MacIntel,59.99880002,Chrome,1440,900,,,,,,,,,,,,,,,,,,,,,,,125,Y,star,1,0,,,2,,,,,,k,2,0,2,0,1,0.9198,,,,,,,,,,,,,,,,,,,,,,,,,,,,,,,,,,
298105,2022-11-15_12h13.24.255,vts_reward_expectancy_bt,2022.2.4,MacIntel,59.99880002,Chrome,1440,900,,,,,,,,,,,,,,,,,,,,,,,139,U,circle,1,0,,,2,,,,,,k,3,0,3,0,1,0.8299,,,,,,,,,,,,,,,,,,,,,,,,,,,,,,,,,,
298105,2022-11-15_12h13.24.255,vts_reward_expectancy_bt,2022.2.4,MacIntel,59.99880002,Chrome,1440,900,,,,,,,,,,,,,,,,,,,,,,,132,B,hexagon,1,0,,,2,,,,,,j,4,0,4,0,1,0.9023,,,,,,,,,,,,,,,,,,,,,,,,,,,,,,,,,,
298105,2022-11-15_12h13.24.255,vts_reward_expectancy_bt,2022.2.4,MacIntel,59.99880002,Chrome,1440,900,,,,,,,,,,,,,,,,,,,,,,,167,S,triangle,1,0,,,2,,,,,,k,5,0,5,0,1,1.7485,,,,,,,,,,,,,,,,,,,,,,,,,,,,,,,,,,
298105,2022-11-15_12h13.24.255,vts_reward_expectancy_bt,2022.2.4,MacIntel,59.99880002,Chrome,1440,900,,,,,,,,,,,,,,,,,,,,,,,181,W,star,1,0,,,2,,,,,,k,6,0,6,0,1,0.8268,,,,,,,,,,,,,,,,,,,,,,,,,,,,,,,,,,
298105,2022-11-15_12h13.24.255,vts_reward_expectancy_bt,2022.2.4,MacIntel,59.99880002,Chrome,1440,900,,,,,,,,,,,,,,,,,,,,,,,160,D,circle,1,0,,,2,,,,,,j,7,0,7,0,1,1.0273,,,,,,,,,,,,,,,,,,,,,,,,,,,,,,,,,,
298105,2022-11-15_12h13.24.255,vts_reward_expectancy_bt,2022.2.4,MacIntel,59.99880002,Chrome,1440,900,,,,,,,,,,,,,,,,,,,,,,,174,H,star,1,0,,,2,,,,,,j,8,0,8,0,1,0.7423,,,,,,,,,,,,,,,,,,,,,,,,,,,,,,,,,,
298105,2022-11-15_12h13.24.255,vts_reward_expectancy_bt,2022.2.4,MacIntel,59.99880002,Chrome,1440,900,,,,,,,,,,,,,,,,,,,,,,,146,F,triangle,1,0,,,2,,,,,,j,9,0,9,0,1,0.8274,,,,,,,,,,,,,,,,,,,,,,,,,,,,,,,,,,
298105,2022-11-15_12h13.24.255,vts_reward_expectancy_bt,2022.2.4,MacIntel,59.99880002,Chrome,1440,900,,,,,0,765,,,,,,,,,,,,,,,,,160,S,hexagon,1,0,,,3,,,,,,,,,,,,,-1,number,NA,f,1.5073,vtsPrac,0,0,0,0,1,,,,,,,,,,,,,,,,,,,,,,,
298105,2022-11-15_12h13.24.255,vts_reward_expectancy_bt,2022.2.4,MacIntel,59.99880002,Chrome,1440,900,,,,,0,765,,,,,,,,,,,,,,,,,132,U,triangle,1,0,,,3,,,,,,,,,,,,,repeat,number,numRpt,d,1.1974,vtsPrac,1,0,1,0,1,,,,,,,,,,,,,,,,,,,,,,,
298105,2022-11-15_12h13.24.255,vts_reward_expectancy_bt,2022.2.4,MacIntel,59.99880002,Chrome,1440,900,,,,,0,765,,,,,,,,,,,,,,,,,174,Y,hexagon,1,0,,,3,,,,,,,,,,,,,repeat,number,numRpt,f,0.7933,vtsPrac,2,0,2,0,1,,,,,,,,,,,,,,,,,,,,,,,
298105,2022-11-15_12h13.24.255,vts_reward_expectancy_bt,2022.2.4,MacIntel,59.99880002,Chrome,1440,900,,,,,0,765,,,,,,,,,,,,,,,,,125,F,triangle,1,0,,,3,,,,,,,,,,,,,repeat,number,numRpt,d,0.756,vtsPrac,3,0,3,0,1,,,,,,,,,,,,,,,,,,,,,,,
298105,2022-11-15_12h13.24.255,vts_reward_expectancy_bt,2022.2.4,MacIntel,59.99880002,Chrome,1440,900,,,,,0,765,,,,,,,,,,,,,,,,,160,S,star,1,0,,,3,,,,,,,,,,,,,repeat,number,numRpt,f,0.7092,vtsPrac,4,0,4,0,1,,,,,,,,,,,,,,,,,,,,,,,
298105,2022-11-15_12h13.24.255,vts_reward_expectancy_bt,2022.2.4,MacIntel,59.99880002,Chrome,1440,900,,,,,0,765,,,,,,,,,,,,,,,,,132,U,triangle,1,0,,,3,,,,,,,,,,,,,repeat,number,numRpt,d,0.7977,vtsPrac,5,0,5,0,1,,,,,,,,,,,,,,,,,,,,,,,
298105,2022-11-15_12h13.24.255,vts_reward_expectancy_bt,2022.2.4,MacIntel,59.99880002,Chrome,1440,900,,,,,0,765,,,,,,,,,,,,,,,,,174,Y,triangle,1,0,,,3,,,,,,,,,,,,,repeat,number,numRpt,f,0.8564,vtsPrac,6,0,6,0,1,,,,,,,,,,,,,,,,,,,,,,,
298105,2022-11-15_12h13.24.255,vts_reward_expectancy_bt,2022.2.4,MacIntel,59.99880002,Chrome,1440,900,,,,,0,765,,,,,,,,,,,,,,,,,125,F,circle,0,0,,,3,,,,,,,,,,,,,repeat,number,NA,f,1.1127,vtsPrac,7,0,7,0,1,,,,,,,,,,,,,,,,,,,,,,,
298105,2022-11-15_12h13.24.255,vts_reward_expectancy_bt,2022.2.4,MacIntel,59.99880002,Chrome,1440,900,,,,,0,765,,,,,,,,,,,,,,,,,167,U,circle,1,1,,,3,,,,,,,,,,,,,repeat,number,numRpt,f,0.695,vtsPrac,8,0,8,0,1,,,,,,,,,,,,,,,,,,,,,,,
298105,2022-11-15_12h13.24.255,vts_reward_expectancy_bt,2022.2.4,MacIntel,59.99880002,Chrome,1440,900,,,,,0,765,,,,,,,,,,,,,,,,,125,Y,hexagon,1,0,,,3,,,,,,,,,,,,,repeat,number,numRpt,d,0.7387,vtsPrac,9,0,9,0,1,,,,,,,,,,,,,,,,,,,,,,,
298105,2022-11-15_12h13.24.255,vts_reward_expectancy_bt,2022.2.4,MacIntel,59.99880002,Chrome,1440,900,,,,,0,765,,,,,,,,,,,,,,,,,146,W,star,1,0,,,3,,,,,,,,,,,,,repeat,number,numRpt,d,1.0574,vtsPrac,10,0,10,0,1,,,,,,,,,,,,,,,,,,,,,,,
298105,2022-11-15_12h13.24.255,vts_reward_expectancy_bt,2022.2.4,MacIntel,59.99880002,Chrome,1440,900,,,,,0,765,,,,,,,,,,,,,,,,,181,D,triangle,1,0,,,3,,,,,,,,,,,,,repeat,number,numRpt,f,1.0936,vtsPrac,11,0,11,0,1,,,,,,,,,,,,,,,,,,,,,,,
298105,2022-11-15_12h13.24.255,vts_reward_expectancy_bt,2022.2.4,MacIntel,59.99880002,Chrome,1440,900,,,,,0,765,,,,,,,,,,,,,,,,,181,B,circle,1,0,,,3,,,,,,,,,,,,,repeat,number,numRpt,f,0.6964,vtsPrac,12,0,12,0,1,,,,,,,,,,,,,,,,,,,,,,,
298105,2022-11-15_12h13.24.255,vts_reward_expectancy_bt,2022.2.4,MacIntel,59.99880002,Chrome,1440,900,,,,,0,765,,,,,,,,,,,,,,,,,160,Y,star,1,0,,,3,,,,,,,,,,,,,repeat,number,numRpt,f,0.6159,vtsPrac,13,0,13,0,1,,,,,,,,,,,,,,,,,,,,,,,
298105,2022-11-15_12h13.24.255,vts_reward_expectancy_bt,2022.2.4,MacIntel,59.99880002,Chrome,1440,900,,,,,0,765,,,,,,,,,,,,,,,,,146,D,circle,1,0,,,3,,,,,,,,,,,,,repeat,number,numRpt,d,0.7107,vtsPrac,14,0,14,0,1,,,,,,,,,,,,,,,,,,,,,,,
298105,2022-11-15_12h13.24.255,vts_reward_expectancy_bt,2022.2.4,MacIntel,59.99880002,Chrome,1440,900,,,,,0,765,,,,,,,,,,,,,,,,,139,H,star,1,0,,,3,,,,,,,,,,,,,repeat,number,numRpt,d,0.8648,vtsPrac,15,0,15,0,1,,,,,,,,,,,,,,,,,,,,,,,
298105,2022-11-15_12h13.24.255,vts_reward_expectancy_bt,2022.2.4,MacIntel,59.99880002,Chrome,1440,900,,,,,0,765,,,,,,,,,,,,,,,,,160,D,circle,1,0,,,3,,,,,,,,,,,,,repeat,number,numRpt,f,0.9221,vtsPrac,16,0,16,0,1,,,,,,,,,,,,,,,,,,,,,,,
298105,2022-11-15_12h13.24.255,vts_reward_expectancy_bt,2022.2.4,MacIntel,59.99880002,Chrome,1440,900,,,,,0,765,,,,,,,,,,,,,,,,,146,Y,hexagon,1,0,,,3,,,,,,,,,,,,,repeat,number,numRpt,d,1.3156,vtsPrac,17,0,17,0,1,,,,,,,,,,,,,,,,,,,,,,,
298105,2022-11-15_12h13.24.255,vts_reward_expectancy_bt,2022.2.4,MacIntel,59.99880002,Chrome,1440,900,,,,,0,765,,,,,,,,,,,,,,,,,125,W,circle,1,0,,,3,,,,,,,,,,,,,repeat,number,numRpt,d,0.8777,vtsPrac,18,0,18,0,1,,,,,,,,,,,,,,,,,,,,,,,
298105,2022-11-15_12h13.24.255,vts_reward_expectancy_bt,2022.2.4,MacIntel,59.99880002,Chrome,1440,900,,,,,0,765,,,,,,,,,,,,,,,,,139,H,star,1,0,,,3,,,,,,,,,,,,,repeat,number,numRpt,d,0.8074,vtsPrac,19,0,19,0,1,,,,,,,,,,,,,,,,,,,,,,,
298105,2022-11-15_12h13.24.255,vts_reward_expectancy_bt,2022.2.4,MacIntel,59.99880002,Chrome,1440,900,,,,,0,765,,,,,,,,,,,,,,,,,160,S,triangle,1,0,,,3,,,,,,,,,,,,,repeat,number,numRpt,f,0.8929,vtsPrac,20,0,20,0,1,,,,,,,,,,,,,,,,,,,,,,,
298105,2022-11-15_12h13.24.255,vts_reward_expectancy_bt,2022.2.4,MacIntel,59.99880002,Chrome,1440,900,,,,,0,765,,,,,,,,,,,,,,,,,146,U,hexagon,1,0,,,3,,,,,,,,,,,,,repeat,number,numRpt,d,1.0931,vtsPrac,21,0,21,0,1,,,,,,,,,,,,,,,,,,,,,,,
298105,2022-11-15_12h13.24.255,vts_reward_expectancy_bt,2022.2.4,MacIntel,59.99880002,Chrome,1440,900,,,,,0,765,,,,,,,,,,,,,,,,,132,Y,hexagon,1,0,,,3,,,,,,,,,,,,,repeat,number,numRpt,d,0.8429,vtsPrac,22,0,22,0,1,,,,,,,,,,,,,,,,,,,,,,,
298105,2022-11-15_12h13.24.255,vts_reward_expectancy_bt,2022.2.4,MacIntel,59.99880002,Chrome,1440,900,,,,,0,765,,,,,,,,,,,,,,,,,125,D,star,1,0,,,3,,,,,,,,,,,,,repeat,number,numRpt,d,0.9313,vtsPrac,23,0,23,0,1,,,,,,,,,,,,,,,,,,,,,,,
298105,2022-11-15_12h13.24.255,vts_reward_expectancy_bt,2022.2.4,MacIntel,59.99880002,Chrome,1440,900,,,,,0,765,,,,,,,,,,,,,,,,,139,S,circle,1,0,,,3,,,,,,,,,,,,,repeat,number,numRpt,d,0.9111,vtsPrac,24,0,24,0,1,,,,,,,,,,,,,,,,,,,,,,,
298105,2022-11-15_12h13.24.255,vts_reward_expectancy_bt,2022.2.4,MacIntel,59.99880002,Chrome,1440,900,,,,,0,765,,,,,,,,,,,,,,,,,167,D,star,1,0,,,3,,,,,,,,,,,,,repeat,number,numRpt,f,0.8927,vtsPrac,25,0,25,0,1,,,,,,,,,,,,,,,,,,,,,,,
298105,2022-11-15_12h13.24.255,vts_reward_expectancy_bt,2022.2.4,MacIntel,59.99880002,Chrome,1440,900,,,,,0,765,,,,,,,,,,,,,,,,,181,W,triangle,1,0,,,3,,,,,,,,,,,,,repeat,number,numRpt,f,1.0818,vtsPrac,26,0,26,0,1,,,,,,,,,,,,,,,,,,,,,,,
298105,2022-11-15_12h13.24.255,vts_reward_expectancy_bt,2022.2.4,MacIntel,59.99880002,Chrome,1440,900,,,,,0,765,,,,,,,,,,,,,,,,,146,H,circle,1,0,,,3,,,,,,,,,,,,,repeat,number,numRpt,d,1.2133,vtsPrac,27,0,27,0,1,,,,,,,,,,,,,,,,,,,,,,,
298105,2022-11-15_12h13.24.255,vts_reward_expectancy_bt,2022.2.4,MacIntel,59.99880002,Chrome,1440,900,,,,,0,765,,,,,,,,,,,,,,,,,132,H,star,1,0,,,3,,,,,,,,,,,,,repeat,number,numRpt,d,1.7955,vtsPrac,28,0,28,0,1,,,,,,,,,,,,,,,,,,,,,,,
298105,2022-11-15_12h13.24.255,vts_reward_expectancy_bt,2022.2.4,MacIntel,59.99880002,Chrome,1440,900,,,,,0,765,,,,,,,,,,,,,,,,,139,W,hexagon,1,0,,,3,,,,,,,,,,,,,repeat,number,numRpt,d,1.0462,vtsPrac,29,0,29,0,1,,,,,,,,,,,,,,,,,,,,,,,
298105,2022-11-15_12h13.24.255,vts_reward_expectancy_bt,2022.2.4,MacIntel,59.99880002,Chrome,1440,900,,,,,0,765,,,,,,,,,,,,,,,,,167,U,hexagon,1,0,,,3,,,,,,,,,,,,,repeat,number,numRpt,f,1.2279,vtsPrac,30,0,30,0,1,,,,,,,,,,,,,,,,,,,,,,,
298105,2022-11-15_12h13.24.255,vts_reward_expectancy_bt,2022.2.4,MacIntel,59.99880002,Chrome,1440,900,,,,,0,765,,,,,,,,,,,,,,,,,181,S,star,1,0,,,3,,,,,,,,,,,,,repeat,number,numRpt,f,0.8469,vtsPrac,31,0,31,0,1,,,,,,,,,,,,,,,,,,,,,,,
298105,2022-11-15_12h13.24.255,vts_reward_expectancy_bt,2022.2.4,MacIntel,59.99880002,Chrome,1440,900,,,,,0,765,,,,,,,,,,,,,,,,,167,B,triangle,1,0,,,4,,,,,,,,,,,,,repeat,number,numRpt,f,0.7384,vtsPrac,0,0,0,0,1,,,,,,,,,,,,,,,,,,,,,,,
298105,2022-11-15_12h13.24.255,vts_reward_expectancy_bt,2022.2.4,MacIntel,59.99880002,Chrome,1440,900,,,,,0,765,,,,,,,,,,,,,,,,,146,F,star,1,0,,,4,,,,,,,,,,,,,switch,letter,lettSwt,j,1.5583,vtsPrac,1,0,1,0,1,,,,,,,,,,,,,,,,,,,,,,,
298105,2022-11-15_12h13.24.255,vts_reward_expectancy_bt,2022.2.4,MacIntel,59.99880002,Chrome,1440,900,,,,,0,765,,,,,,,,,,,,,,,,,139,W,triangle,1,0,,,4,,,,,,,,,,,,,switch,number,numSwt,d,0.8437,vtsPrac,2,0,2,0,1,,,,,,,,,,,,,,,,,,,,,,,
298105,2022-11-15_12h13.24.255,vts_reward_expectancy_bt,2022.2.4,MacIntel,59.99880002,Chrome,1440,900,,,,,0,765,,,,,,,,,,,,,,,,,181,Y,star,1,0,,,4,,,,,,,,,,,,,switch,letter,lettSwt,k,0.7708,vtsPrac,3,0,3,0,1,,,,,,,,,,,,,,,,,,,,,,,
298105,2022-11-15_12h13.24.255,vts_reward_expectancy_bt,2022.2.4,MacIntel,59.99880002,Chrome,1440,900,,,,,0,765,,,,,,,,,,,,,,,,,167,B,hexagon,1,0,,,4,,,,,,,,,,,,,switch,number,numSwt,f,2.0259,vtsPrac,4,0,4,0,1,,,,,,,,,,,,,,,,,,,,,,,
298105,2022-11-15_12h13.24.255,vts_reward_expectancy_bt,2022.2.4,MacIntel,59.99880002,Chrome,1440,900,,,,,0,765,,,,,,,,,,,,,,,,,146,F,star,1,0,,,4,,,,,,,,,,,,,switch,letter,lettSwt,j,1.275,vtsPrac,5,0,5,0,1,,,,,,,,,,,,,,,,,,,,,,,
298105,2022-11-15_12h13.24.255,vts_reward_expectancy_bt,2022.2.4,MacIntel,59.99880002,Chrome,1440,900,,,,,0,765,,,,,,,,,,,,,,,,,139,W,hexagon,1,0,,,4,,,,,,,,,,,,,switch,number,numSwt,d,0.7858,vtsPrac,6,0,6,0,1,,,,,,,,,,,,,,,,,,,,,,,
298105,2022-11-15_12h13.24.255,vts_reward_expectancy_bt,2022.2.4,MacIntel,59.99880002,Chrome,1440,900,,,,,0,765,,,,,,,,,,,,,,,,,181,Y,star,1,0,,,4,,,,,,,,,,,,,switch,letter,lettSwt,k,1.6191,vtsPrac,7,0,7,0,1,,,,,,,,,,,,,,,,,,,,,,,
298105,2022-11-15_12h13.24.255,vts_reward_expectancy_bt,2022.2.4,MacIntel,59.99880002,Chrome,1440,900,,,,,0,765,,,,,,,,,,,,,,,,,139,H,triangle,1,0,,,4,,,,,,,,,,,,,switch,number,numSwt,d,1.4649,vtsPrac,8,0,8,0,1,,,,,,,,,,,,,,,,,,,,,,,
298105,2022-11-15_12h13.24.255,vts_reward_expectancy_bt,2022.2.4,MacIntel,59.99880002,Chrome,1440,900,,,,,0,765,,,,,,,,,,,,,,,,,125,W,hexagon,1,0,,,4,,,,,,,,,,,,,switch,letter,lettSwt,k,2.3241,vtsPrac,9,0,9,0,1,,,,,,,,,,,,,,,,,,,,,,,
298105,2022-11-15_12h13.24.255,vts_reward_expectancy_bt,2022.2.4,MacIntel,59.99880002,Chrome,1440,900,,,,,0,765,,,,,,,,,,,,,,,,,132,D,triangle,1,0,,,4,,,,,,,,,,,,,switch,number,numSwt,d,0.826,vtsPrac,10,0,10,0,1,,,,,,,,,,,,,,,,,,,,,,,
298105,2022-11-15_12h13.24.255,vts_reward_expectancy_bt,2022.2.4,MacIntel,59.99880002,Chrome,1440,900,,,,,0,765,,,,,,,,,,,,,,,,,146,Y,hexagon,1,0,,,4,,,,,,,,,,,,,switch,letter,lettSwt,k,1.8649,vtsPrac,11,0,11,0,1,,,,,,,,,,,,,,,,,,,,,,,
298105,2022-11-15_12h13.24.255,vts_reward_expectancy_bt,2022.2.4,MacIntel,59.99880002,Chrome,1440,900,,,,,0,765,,,,,,,,,,,,,,,,,125,S,hexagon,1,0,,,4,,,,,,,,,,,,,switch,number,numSwt,d,1.1174,vtsPrac,12,0,12,0,1,,,,,,,,,,,,,,,,,,,,,,,
298105,2022-11-15_12h13.24.255,vts_reward_expectancy_bt,2022.2.4,MacIntel,59.99880002,Chrome,1440,900,,,,,0,765,,,,,,,,,,,,,,,,,139,H,triangle,1,0,,,4,,,,,,,,,,,,,switch,letter,lettSwt,j,2.0064,vtsPrac,13,0,13,0,1,,,,,,,,,,,,,,,,,,,,,,,
298105,2022-11-15_12h13.24.255,vts_reward_expectancy_bt,2022.2.4,MacIntel,59.99880002,Chrome,1440,900,,,,,0,765,,,,,,,,,,,,,,,,,181,W,star,1,0,,,4,,,,,,,,,,,,,switch,number,numSwt,f,1.2343,vtsPrac,14,0,14,0,1,,,,,,,,,,,,,,,,,,,,,,,
298105,2022-11-15_12h13.24.255,vts_reward_expectancy_bt,2022.2.4,MacIntel,59.99880002,Chrome,1440,900,,,,,0,765,,,,,,,,,,,,,,,,,146,Y,hexagon,1,0,,,4,,,,,,,,,,,,,switch,letter,lettSwt,k,1.3841,vtsPrac,15,0,15,0,1,,,,,,,,,,,,,,,,,,,,,,,
298105,2022-11-15_12h13.24.255,vts_reward_expectancy_bt,2022.2.4,MacIntel,59.99880002,Chrome,1440,900,,,,,0,765,,,,,,,,,,,,,,,,,167,H,hexagon,1,0,,,4,,,,,,,,,,,,,switch,number,numSwt,f,1.0581,vtsPrac,16,0,16,0,1,,,,,,,,,,,,,,,,,,,,,,,
298105,2022-11-15_12h13.24.255,vts_reward_expectancy_bt,2022.2.4,MacIntel,59.99880002,Chrome,1440,900,,,,,0,765,,,,,,,,,,,,,,,,,132,Y,triangle,1,0,,,4,,,,,,,,,,,,,switch,letter,lettSwt,k,1.0705,vtsPrac,17,0,17,0,1,,,,,,,,,,,,,,,,,,,,,,,
298105,2022-11-15_12h13.24.255,vts_reward_expectancy_bt,2022.2.4,MacIntel,59.99880002,Chrome,1440,900,,,,,0,765,,,,,,,,,,,,,,,,,174,B,star,1,0,,,4,,,,,,,,,,,,,switch,number,numSwt,f,2.3509,vtsPrac,18,0,18,0,1,,,,,,,,,,,,,,,,,,,,,,,
298105,2022-11-15_12h13.24.255,vts_reward_expectancy_bt,2022.2.4,MacIntel,59.99880002,Chrome,1440,900,,,,,0,765,,,,,,,,,,,,,,,,,181,D,circle,1,0,,,4,,,,,,,,,,,,,switch,letter,lettSwt,j,0.8571,vtsPrac,19,0,19,0,1,,,,,,,,,,,,,,,,,,,,,,,
298105,2022-11-15_12h13.24.255,vts_reward_expectancy_bt,2022.2.4,MacIntel,59.99880002,Chrome,1440,900,,,,,0,765,,,,,,,,,,,,,,,,,174,Y,star,1,0,,,4,,,,,,,,,,,,,switch,number,numSwt,f,0.9751,vtsPrac,20,0,20,0,1,,,,,,,,,,,,,,,,,,,,,,,
298105,2022-11-15_12h13.24.255,vts_reward_expectancy_bt,2022.2.4,MacIntel,59.99880002,Chrome,1440,900,,,,,0,765,,,,,,,,,,,,,,,,,139,H,hexagon,1,0,,,4,,,,,,,,,,,,,switch,letter,lettSwt,j,1.6979,vtsPrac,21,0,21,0,1,,,,,,,,,,,,,,,,,,,,,,,
298105,2022-11-15_12h13.24.255,vts_reward_expectancy_bt,2022.2.4,MacIntel,59.99880002,Chrome,1440,900,,,,,0,765,,,,,,,,,,,,,,,,,132,S,hexagon,1,0,,,4,,,,,,,,,,,,,switch,number,numSwt,d,1.6935,vtsPrac,22,0,22,0,1,,,,,,,,,,,,,,,,,,,,,,,
298105,2022-11-15_12h13.24.255,vts_reward_expectancy_bt,2022.2.4,MacIntel,59.99880002,Chrome,1440,900,,,,,0,765,,,,,,,,,,,,,,,,,146,W,star,1,0,,,4,,,,,,,,,,,,,switch,letter,lettSwt,k,2.2677,vtsPrac,23,0,23,0,1,,,,,,,,,,,,,,,,,,,,,,,
298105,2022-11-15_12h13.24.255,vts_reward_expectancy_bt,2022.2.4,MacIntel,59.99880002,Chrome,1440,900,,,,,0,765,,,,,,,,,,,,,,,,,174,Y,triangle,1,0,,,4,,,,,,,,,,,,,switch,number,numSwt,f,0.6607,vtsPrac,24,0,24,0,1,,,,,,,,,,,,,,,,,,,,,,,
298105,2022-11-15_12h13.24.255,vts_reward_expectancy_bt,2022.2.4,MacIntel,59.99880002,Chrome,1440,900,,,,,0,765,,,,,,,,,,,,,,,,,132,H,circle,1,0,,,4,,,,,,,,,,,,,switch,letter,lettSwt,j,0.7333,vtsPrac,25,0,25,0,1,,,,,,,,,,,,,,,,,,,,,,,
298105,2022-11-15_12h13.24.255,vts_reward_expectancy_bt,2022.2.4,MacIntel,59.99880002,Chrome,1440,900,,,,,0,765,,,,,,,,,,,,,,,,,167,S,triangle,1,0,,,4,,,,,,,,,,,,,switch,number,numSwt,f,0.7105,vtsPrac,26,0,26,0,1,,,,,,,,,,,,,,,,,,,,,,,
298105,2022-11-15_12h13.24.255,vts_reward_expectancy_bt,2022.2.4,MacIntel,59.99880002,Chrome,1440,900,,,,,0,765,,,,,,,,,,,,,,,,,181,F,circle,1,0,,,4,,,,,,,,,,,,,switch,letter,lettSwt,j,0.6746,vtsPrac,27,0,27,0,1,,,,,,,,,,,,,,,,,,,,,,,
298105,2022-11-15_12h13.24.255,vts_reward_expectancy_bt,2022.2.4,MacIntel,59.99880002,Chrome,1440,900,,,,,0,765,,,,,,,,,,,,,,,,,174,B,hexagon,1,0,,,4,,,,,,,,,,,,,switch,number,numSwt,f,1.0154,vtsPrac,28,0,28,0,1,,,,,,,,,,,,,,,,,,,,,,,
298105,2022-11-15_12h13.24.255,vts_reward_expectancy_bt,2022.2.4,MacIntel,59.99880002,Chrome,1440,900,,,,,0,765,,,,,,,,,,,,,,,,,139,D,star,1,0,,,4,,,,,,,,,,,,,switch,letter,lettSwt,j,1.4284,vtsPrac,29,0,29,0,1,,,,,,,,,,,,,,,,,,,,,,,
298105,2022-11-15_12h13.24.255,vts_reward_expectancy_bt,2022.2.4,MacIntel,59.99880002,Chrome,1440,900,,,,,0,765,,,,,,,,,,,,,,,,,132,U,star,1,0,,,4,,,,,,,,,,,,,switch,number,numSwt,d,1.2795,vtsPrac,30,0,30,0,1,,,,,,,,,,,,,,,,,,,,,,,
298105,2022-11-15_12h13.24.255,vts_reward_expectancy_bt,2022.2.4,MacIntel,59.99880002,Chrome,1440,900,,,,,0,765,,,,,,,,,,,,,,,,,160,H,circle,1,0,,,4,,,,,,,,,,,,,switch,letter,lettSwt,j,0.8661,vtsPrac,31,0,31,0,1,,,,,,,,,,,,,,,,,,,,,,,
298105,2022-11-15_12h13.24.255,vts_reward_expectancy_bt,2022.2.4,MacIntel,59.99880002,Chrome,1440,900,,,,,0,765,,,,,,,,,,,,,,,,,174,S,circle,1,0,,,5,,,,,,,,,,,,,switch,number,numSwt,f,0.8637,vtsPrac,0,0,0,0,1,,,,,,,,,,,,,,,,,,,,,,,
298105,2022-11-15_12h13.24.255,vts_reward_expectancy_bt,2022.2.4,MacIntel,59.99880002,Chrome,1440,900,,,,,0,765,,,,,,,,,,,,,,,,,125,W,triangle,1,0,,,5,,,,,,,,,,,,,repeat,number,numRpt,d,0.7409,vtsPrac,1,0,1,0,1,,,,,,,,,,,,,,,,,,,,,,,
298105,2022-11-15_12h13.24.255,vts_reward_expectancy_bt,2022.2.4,MacIntel,59.99880002,Chrome,1440,900,,,,,0,765,,,,,,,,,,,,,,,,,146,B,circle,1,0,,,5,,,,,,,,,,,,,repeat,number,numRpt,d,1.1148,vtsPrac,2,0,2,0,1,,,,,,,,,,,,,,,,,,,,,,,
298105,2022-11-15_12h13.24.255,vts_reward_expectancy_bt,2022.2.4,MacIntel,59.99880002,Chrome,1440,900,,,,,0,765,,,,,,,,,,,,,,,,,181,F,triangle,1,0,,,5,,,,,,,,,,,,,repeat,number,numRpt,f,0.4466,vtsPrac,3,0,3,0,1,,,,,,,,,,,,,,,,,,,,,,,
298105,2022-11-15_12h13.24.255,vts_reward_expectancy_bt,2022.2.4,MacIntel,59.99880002,Chrome,1440,900,,,,,0,765,,,,,,,,,,,,,,,,,174,S,star,1,0,,,5,,,,,,,,,,,,,switch,letter,lettSwt,k,1.1763,vtsPrac,4,0,4,0,1,,,,,,,,,,,,,,,,,,,,,,,
298105,2022-11-15_12h13.24.255,vts_reward_expectancy_bt,2022.2.4,MacIntel,59.99880002,Chrome,1440,900,,,,,0,765,,,,,,,,,,,,,,,,,125,W,hexagon,1,0,,,5,,,,,,,,,,,,,repeat,letter,lettRpt,k,1.6984,vtsPrac,5,0,5,0,1,,,,,,,,,,,,,,,,,,,,,,,
298105,2022-11-15_12h13.24.255,vts_reward_expectancy_bt,2022.2.4,MacIntel,59.99880002,Chrome,1440,900,,,,,0,765,,,,,,,,,,,,,,,,,146,B,circle,1,0,,,5,,,,,,,,,,,,,switch,number,numSwt,d,0.7925,vtsPrac,6,0,6,0,1,,,,,,,,,,,,,,,,,,,,,,,
298105,2022-11-15_12h13.24.255,vts_reward_expectancy_bt,2022.2.4,MacIntel,59.99880002,Chrome,1440,900,,,,,0,765,,,,,,,,,,,,,,,,,181,F,triangle,1,0,,,5,,,,,,,,,,,,,switch,letter,lettSwt,j,1.959,vtsPrac,7,0,7,0,1,,,,,,,,,,,,,,,,,,,,,,,
298105,2022-11-15_12h13.24.255,vts_reward_expectancy_bt,2022.2.4,MacIntel,59.99880002,Chrome,1440,900,,,,,0,765,,,,,,,,,,,,,,,,,174,H,circle,0,0,,,5,,,,,,,,,,,,,switch,number,NA,d,0.5884,vtsPrac,8,0,8,0,1,,,,,,,,,,,,,,,,,,,,,,,
298105,2022-11-15_12h13.24.255,vts_reward_expectancy_bt,2022.2.4,MacIntel,59.99880002,Chrome,1440,900,,,,,0,765,,,,,,,,,,,,,,,,,125,S,triangle,1,1,,,5,,,,,,,,,,,,,repeat,number,numRpt,d,0.7789,vtsPrac,9,0,9,0,1,,,,,,,,,,,,,,,,,,,,,,,
298105,2022-11-15_12h13.24.255,vts_reward_expectancy_bt,2022.2.4,MacIntel,59.99880002,Chrome,1440,900,,,,,0,765,,,,,,,,,,,,,,,,,146,U,star,1,0,,,5,,,,,,,,,,,,,switch,letter,lettSwt,k,1.3129,vtsPrac,10,0,10,0,1,,,,,,,,,,,,,,,,,,,,,,,
298105,2022-11-15_12h13.24.255,vts_reward_expectancy_bt,2022.2.4,MacIntel,59.99880002,Chrome,1440,900,,,,,0,765,,,,,,,,,,,,,,,,,132,Y,circle,1,0,,,5,,,,,,,,,,,,,repeat,letter,lettRpt,k,0.9462,vtsPrac,11,0,11,0,1,,,,,,,,,,,,,,,,,,,,,,,
298105,2022-11-15_12h13.24.255,vts_reward_expectancy_bt,2022.2.4,MacIntel,59.99880002,Chrome,1440,900,,,,,0,765,,,,,,,,,,,,,,,,,167,S,triangle,1,0,,,5,,,,,,,,,,,,,repeat,letter,lettRpt,k,1.3625,vtsPrac,12,0,12,0,1,,,,,,,,,,,,,,,,,,,,,,,
298105,2022-11-15_12h13.24.255,vts_reward_expectancy_bt,2022.2.4,MacIntel,59.99880002,Chrome,1440,900,,,,,0,765,,,,,,,,,,,,,,,,,139,H,star,1,0,,,5,,,,,,,,,,,,,repeat,letter,lettRpt,j,1.6724,vtsPrac,13,0,13,0,1,,,,,,,,,,,,,,,,,,,,,,,
298105,2022-11-15_12h13.24.255,vts_reward_expectancy_bt,2022.2.4,MacIntel,59.99880002,Chrome,1440,900,,,,,0,765,,,,,,,,,,,,,,,,,132,U,circle,1,0,,,5,,,,,,,,,,,,,repeat,letter,lettRpt,k,1.4076,vtsPrac,14,0,14,0,1,,,,,,,,,,,,,,,,,,,,,,,
298105,2022-11-15_12h13.24.255,vts_reward_expectancy_bt,2022.2.4,MacIntel,59.99880002,Chrome,1440,900,,,,,0,765,,,,,,,,,,,,,,,,,181,F,star,1,0,,,5,,,,,,,,,,,,,switch,number,numSwt,f,0.7163,vtsPrac,15,0,15,0,1,,,,,,,,,,,,,,,,,,,,,,,
298105,2022-11-15_12h13.24.255,vts_reward_expectancy_bt,2022.2.4,MacIntel,59.99880002,Chrome,1440,900,,,,,0,765,,,,,,,,,,,,,,,,,181,U,circle,1,0,,,5,,,,,,,,,,,,,repeat,number,numRpt,f,1.7294,vtsPrac,16,0,16,0,1,,,,,,,,,,,,,,,,,,,,,,,
298105,2022-11-15_12h13.24.255,vts_reward_expectancy_bt,2022.2.4,MacIntel,59.99880002,Chrome,1440,900,,,,,0,765,,,,,,,,,,,,,,,,,125,F,triangle,1,0,,,5,,,,,,,,,,,,,repeat,number,numRpt,d,0.7646,vtsPrac,17,0,17,0,1,,,,,,,,,,,,,,,,,,,,,,,
298105,2022-11-15_12h13.24.255,vts_reward_expectancy_bt,2022.2.4,MacIntel,59.99880002,Chrome,1440,900,,,,,0,765,,,,,,,,,,,,,,,,,174,D,star,1,0,,,5,,,,,,,,,,,,,switch,letter,lettSwt,j,1.5114,vtsPrac,18,0,18,0,1,,,,,,,,,,,,,,,,,,,,,,,
298105,2022-11-15_12h13.24.255,vts_reward_expectancy_bt,2022.2.4,MacIntel,59.99880002,Chrome,1440,900,,,,,0,765,,,,,,,,,,,,,,,,,139,H,circle,1,0,,,5,,,,,,,,,,,,,repeat,letter,lettRpt,j,1.4479,vtsPrac,19,0,19,0,1,,,,,,,,,,,,,,,,,,,,,,,
298105,2022-11-15_12h13.24.255,vts_reward_expectancy_bt,2022.2.4,MacIntel,59.99880002,Chrome,1440,900,,,,,0,765,,,,,,,,,,,,,,,,,125,F,triangle,-1,0,,,5,,,,,,,,,,,,,switch,no_choice,NA,,,vtsPrac,20,0,20,0,1,,,,,,,,,,,,,,,,,,,,,,,
298105,2022-11-15_12h13.24.255,vts_reward_expectancy_bt,2022.2.4,MacIntel,59.99880002,Chrome,1440,900,,,,,0,765,,,,,,,,,,,,,,,,,167,W,hexagon,1,0,,,5,,,,,,,,,,,,,switch,number,numSwt,f,0.6558,vtsPrac,21,0,21,0,1,,,,,,,,,,,,,,,,,,,,,,,
298105,2022-11-15_12h13.24.255,vts_reward_expectancy_bt,2022.2.4,MacIntel,59.99880002,Chrome,1440,900,,,,,0,765,,,,,,,,,,,,,,,,,132,B,triangle,1,0,,,5,,,,,,,,,,,,,repeat,number,numRpt,d,0.7184,vtsPrac,22,0,22,0,1,,,,,,,,,,,,,,,,,,,,,,,
298105,2022-11-15_12h13.24.255,vts_reward_expectancy_bt,2022.2.4,MacIntel,59.99880002,Chrome,1440,900,,,,,0,765,,,,,,,,,,,,,,,,,139,U,circle,1,0,,,5,,,,,,,,,,,,,switch,letter,lettSwt,k,1.1181,vtsPrac,23,0,23,0,1,,,,,,,,,,,,,,,,,,,,,,,
298105,2022-11-15_12h13.24.255,vts_reward_expectancy_bt,2022.2.4,MacIntel,59.99880002,Chrome,1440,900,,,,,0,765,,,,,,,,,,,,,,,,,167,D,triangle,1,0,,,5,,,,,,,,,,,,,repeat,letter,lettRpt,j,0.9389,vtsPrac,24,0,24,0,1,,,,,,,,,,,,,,,,,,,,,,,
298105,2022-11-15_12h13.24.255,vts_reward_expectancy_bt,2022.2.4,MacIntel,59.99880002,Chrome,1440,900,,,,,0,765,,,,,,,,,,,,,,,,,125,W,hexagon,1,0,,,5,,,,,,,,,,,,,switch,number,numSwt,d,1.0485,vtsPrac,25,0,25,0,1,,,,,,,,,,,,,,,,,,,,,,,
298105,2022-11-15_12h13.24.255,vts_reward_expectancy_bt,2022.2.4,MacIntel,59.99880002,Chrome,1440,900,,,,,0,765,,,,,,,,,,,,,,,,,146,H,triangle,1,0,,,5,,,,,,,,,,,,,repeat,number,numRpt,d,1.4064,vtsPrac,26,0,26,0,1,,,,,,,,,,,,,,,,,,,,,,,
298105,2022-11-15_12h13.24.255,vts_reward_expectancy_bt,2022.2.4,MacIntel,59.99880002,Chrome,1440,900,,,,,0,765,,,,,,,,,,,,,,,,,174,S,hexagon,1,0,,,5,,,,,,,,,,,,,repeat,number,numRpt,f,1.7311,vtsPrac,27,0,27,0,1,,,,,,,,,,,,,,,,,,,,,,,
298105,2022-11-15_12h13.24.255,vts_reward_expectancy_bt,2022.2.4,MacIntel,59.99880002,Chrome,1440,900,,,,,0,765,,,,,,,,,,,,,,,,,146,D,hexagon,1,0,,,5,,,,,,,,,,,,,switch,letter,lettSwt,j,1.0068,vtsPrac,28,0,28,0,1,,,,,,,,,,,,,,,,,,,,,,,
298105,2022-11-15_12h13.24.255,vts_reward_expectancy_bt,2022.2.4,MacIntel,59.99880002,Chrome,1440,900,,,,,0,765,,,,,,,,,,,,,,,,,174,H,circle,1,0,,,5,,,,,,,,,,,,,repeat,letter,lettRpt,j,1.0996,vtsPrac,29,0,29,0,1,,,,,,,,,,,,,,,,,,,,,,,
298105,2022-11-15_12h13.24.255,vts_reward_expectancy_bt,2022.2.4,MacIntel,59.99880002,Chrome,1440,900,,,,,0,765,,,,,,,,,,,,,,,,,125,U,hexagon,1,0,,,5,,,,,,,,,,,,,repeat,letter,lettRpt,k,1.6261,vtsPrac,30,0,30,0,1,,,,,,,,,,,,,,,,,,,,,,,
298105,2022-11-15_12h13.24.255,vts_reward_expectancy_bt,2022.2.4,MacIntel,59.99880002,Chrome,1440,900,,,,,0,765,,,,,,,,,,,,,,,,,181,Y,circle,1,0,,,5,,,,,,,,,,,,,switch,number,numSwt,f,0.8792,vtsPrac,31,0,31,0,1,,,,,,,,,,,,,,,,,,,,,,,
298105,2022-11-15_12h13.24.255,vts_reward_expectancy_bt,2022.2.4,MacIntel,59.99880002,Chrome,1440,900,,,,,,,,,,,,,,,,,,,,,,,,,,,,,,,,,,,,,,,,,,,,,,,,,,,,,,,,,,,,,,,,,,,,,,,,,,,,
298105,2022-11-15_12h13.24.255,vts_reward_expectancy_bt,2022.2.4,MacIntel,59.99880002,Chrome,1440,900,,,,,,,,,,,,,,,,,,,,,,,,,,,,,,,,,,,,,,,,,,,,,,,,,,,,,,,,,,,,,,,,,,,,,,,,,,,,
298105,2022-11-15_12h13.24.255,vts_reward_expectancy_bt,2022.2.4,MacIntel,59.99880002,Chrome,1440,900,,,,,0,765,,,,,,,,,,,,,,,,,174,W,star,1,0,,,,,,,,,,,,,,,,repeat,number,numRpt,f,1.0662,noRew,,,,,,0,0,0,0,0,1,,,,,,,,,,,,,,,,,
298105,2022-11-15_12h13.24.255,vts_reward_expectancy_bt,2022.2.4,MacIntel,59.99880002,Chrome,1440,900,,,,,0,765,,,,,,,,,,,,,,,,,167,B,triangle,1,0,,,,,,,,,,,,,,,,repeat,number,numRpt,f,0.7475,noRew,,,,,,0,1,0,1,0,1,,,,,,,,,,,,,,,,,
298105,2022-11-15_12h13.24.255,vts_reward_expectancy_bt,2022.2.4,MacIntel,59.99880002,Chrome,1440,900,,,,,0,765,,,,,,,,,,,,,,,,,125,H,star,1,0,,,,,,,,,,,,,,,,repeat,number,numRpt,d,0.6486,noRew,,,,,,0,2,0,2,0,1,,,,,,,,,,,,,,,,,
298105,2022-11-15_12h13.24.255,vts_reward_expectancy_bt,2022.2.4,MacIntel,59.99880002,Chrome,1440,900,,,,,0,765,,,,,,,,,,,,,,,,,181,Y,triangle,1,0,,,,,,,,,,,,,,,,switch,letter,lettSwt,k,1.1751,noRew,,,,,,0,3,0,3,0,1,,,,,,,,,,,,,,,,,
298105,2022-11-15_12h13.24.255,vts_reward_expectancy_bt,2022.2.4,MacIntel,59.99880002,Chrome,1440,900,,,,,0,765,,,,,,,,,,,,,,,,,174,W,triangle,1,0,,,,,,,,,,,,,,,,switch,number,numSwt,f,0.6419,noRew,,,,,,0,4,0,4,0,1,,,,,,,,,,,,,,,,,
298105,2022-11-15_12h13.24.255,vts_reward_expectancy_bt,2022.2.4,MacIntel,59.99880002,Chrome,1440,900,,,,,0,765,,,,,,,,,,,,,,,,,167,B,star,1,0,,,,,,,,,,,,,,,,switch,letter,lettSwt,j,1.1305,noRew,,,,,,0,5,0,5,0,1,,,,,,,,,,,,,,,,,
298105,2022-11-15_12h13.24.255,vts_reward_expectancy_bt,2022.2.4,MacIntel,59.99880002,Chrome,1440,900,,,,,0,765,,,,,,,,,,,,,,,,,125,H,hexagon,1,0,,,,,,,,,,,,,,,,repeat,letter,lettRpt,j,1.6281,noRew,,,,,,0,6,0,6,0,1,,,,,,,,,,,,,,,,,
298105,2022-11-15_12h13.24.255,vts_reward_expectancy_bt,2022.2.4,MacIntel,59.99880002,Chrome,1440,900,,,,,0,765,,,,,,,,,,,,,,,,,181,Y,circle,1,0,,,,,,,,,,,,,,,,repeat,letter,lettRpt,k,1.6677,noRew,,,,,,0,7,0,7,0,1,,,,,,,,,,,,,,,,,
298105,2022-11-15_12h13.24.255,vts_reward_expectancy_bt,2022.2.4,MacIntel,59.99880002,Chrome,1440,900,,,,,0,765,,,,,,,,,,,,,,,,,167,H,hexagon,1,0,,,,,,,,,,,,,,,,repeat,letter,lettRpt,j,1.8578,noRew,,,,,,0,8,0,8,0,1,,,,,,,,,,,,,,,,,
298105,2022-11-15_12h13.24.255,vts_reward_expectancy_bt,2022.2.4,MacIntel,59.99880002,Chrome,1440,900,,,,,0,765,,,,,,,,,,,,,,,,,139,D,triangle,1,0,,,,,,,,,,,,,,,,switch,number,numSwt,d,1.2521,noRew,,,,,,0,9,0,9,0,1,,,,,,,,,,,,,,,,,
298105,2022-11-15_12h13.24.255,vts_reward_expectancy_bt,2022.2.4,MacIntel,59.99880002,Chrome,1440,900,,,,,0,765,,,,,,,,,,,,,,,,,146,W,star,1,0,,,,,,,,,,,,,,,,repeat,number,numRpt,d,1.1335,noRew,,,,,,0,10,0,10,0,1,,,,,,,,,,,,,,,,,
298105,2022-11-15_12h13.24.255,vts_reward_expectancy_bt,2022.2.4,MacIntel,59.99880002,Chrome,1440,900,,,,,0,765,,,,,,,,,,,,,,,,,174,B,triangle,1,0,,,,,,,,,,,,,,,,repeat,number,numRpt,f,1.8295,noRew,,,,,,0,11,0,11,0,1,,,,,,,,,,,,,,,,,
298105,2022-11-15_12h13.24.255,vts_reward_expectancy_bt,2022.2.4,MacIntel,59.99880002,Chrome,1440,900,,,,,0,765,,,,,,,,,,,,,,,,,160,Y,star,1,0,,,,,,,,,,,,,,,,repeat,number,numRpt,f,1.4848,noRew,,,,,,0,12,0,12,0,1,,,,,,,,,,,,,,,,,
298105,2022-11-15_12h13.24.255,vts_reward_expectancy_bt,2022.2.4,MacIntel,59.99880002,Chrome,1440,900,,,,,0,765,,,,,,,,,,,,,,,,,146,W,triangle,1,0,,,,,,,,,,,,,,,,repeat,number,numRpt,d,1.542,noRew,,,,,,0,13,0,13,0,1,,,,,,,,,,,,,,,,,
298105,2022-11-15_12h13.24.255,vts_reward_expectancy_bt,2022.2.4,MacIntel,59.99880002,Chrome,1440,900,,,,,0,765,,,,,,,,,,,,,,,,,167,S,circle,1,0,,,,,,,,,,,,,,,,repeat,number,numRpt,f,1.2149,noRew,,,,,,0,14,0,14,0,1,,,,,,,,,,,,,,,,,
298105,2022-11-15_12h13.24.255,vts_reward_expectancy_bt,2022.2.4,MacIntel,59.99880002,Chrome,1440,900,,,,,0,765,,,,,,,,,,,,,,,,,132,H,triangle,1,0,,,,,,,,,,,,,,,,repeat,number,numRpt,d,1.216,noRew,,,,,,0,15,0,15,0,1,,,,,,,,,,,,,,,,,
298105,2022-11-15_12h13.24.255,vts_reward_expectancy_bt,2022.2.4,MacIntel,59.99880002,Chrome,1440,900,,,,,0,765,,,,,,,,,,,,,,,,,132,S,circle,1,0,,,,,,,,,,,,,,,,switch,letter,lettSwt,k,0.6925,noRew,,,,,,0,16,0,16,0,1,,,,,,,,,,,,,,,,,
298105,2022-11-15_12h13.24.255,vts_reward_expectancy_bt,2022.2.4,MacIntel,59.99880002,Chrome,1440,900,,,,,0,765,,,,,,,,,,,,,,,,,167,F,star,1,0,,,,,,,,,,,,,,,,repeat,letter,lettRpt,j,1.0658,noRew,,,,,,0,17,0,17,0,1,,,,,,,,,,,,,,,,,
298105,2022-11-15_12h13.24.255,vts_reward_expectancy_bt,2022.2.4,MacIntel,59.99880002,Chrome,1440,900,,,,,0,765,,,,,,,,,,,,,,,,,146,W,star,1,0,,,,,,,,,,,,,,,,repeat,letter,lettRpt,k,0.9098,noRew,,,,,,0,18,0,18,0,1,,,,,,,,,,,,,,,,,
298105,2022-11-15_12h13.24.255,vts_reward_expectancy_bt,2022.2.4,MacIntel,59.99880002,Chrome,1440,900,,,,,0,765,,,,,,,,,,,,,,,,,125,U,circle,1,0,,,,,,,,,,,,,,,,repeat,letter,lettRpt,k,1.0453,noRew,,,,,,0,19,0,19,0,1,,,,,,,,,,,,,,,,,
298105,2022-11-15_12h13.24.255,vts_reward_expectancy_bt,2022.2.4,MacIntel,59.99880002,Chrome,1440,900,,,,,0,765,,,,,,,,,,,,,,,,,174,F,triangle,1,0,,,,,,,,,,,,,,,,switch,number,numSwt,f,0.8966,noRew,,,,,,0,20,0,20,0,1,,,,,,,,,,,,,,,,,
298105,2022-11-15_12h13.24.255,vts_reward_expectancy_bt,2022.2.4,MacIntel,59.99880002,Chrome,1440,900,,,,,0,765,,,,,,,,,,,,,,,,,146,W,star,1,0,,,,,,,,,,,,,,,,repeat,number,numRpt,d,1.3364,noRew,,,,,,0,21,0,21,0,1,,,,,,,,,,,,,,,,,
298105,2022-11-15_12h13.24.255,vts_reward_expectancy_bt,2022.2.4,MacIntel,59.99880002,Chrome,1440,900,,,,,0,765,,,,,,,,,,,,,,,,,132,U,circle,1,0,,,,,,,,,,,,,,,,repeat,number,numRpt,d,0.8974,noRew,,,,,,0,22,0,22,0,1,,,,,,,,,,,,,,,,,
298105,2022-11-15_12h13.24.255,vts_reward_expectancy_bt,2022.2.4,MacIntel,59.99880002,Chrome,1440,900,,,,,0,765,,,,,,,,,,,,,,,,,125,B,star,1,0,,,,,,,,,,,,,,,,repeat,number,numRpt,d,1.1106,noRew,,,,,,0,23,0,23,0,1,,,,,,,,,,,,,,,,,
298105,2022-11-15_12h13.24.255,vts_reward_expectancy_bt,2022.2.4,MacIntel,59.99880002,Chrome,1440,900,,,,,0,765,,,,,,,,,,,,,,,,,181,F,circle,1,0,,,,,,,,,,,,,,,,switch,letter,lettSwt,j,1.893,noRew,,,,,,0,24,0,24,0,1,,,,,,,,,,,,,,,,,
298105,2022-11-15_12h13.24.255,vts_reward_expectancy_bt,2022.2.4,MacIntel,59.99880002,Chrome,1440,900,,,,,0,765,,,,,,,,,,,,,,,,,125,S,triangle,1,0,,,,,,,,,,,,,,,,repeat,letter,lettRpt,k,2.1575,noRew,,,,,,0,25,0,25,0,1,,,,,,,,,,,,,,,,,
298105,2022-11-15_12h13.24.255,vts_reward_expectancy_bt,2022.2.4,MacIntel,59.99880002,Chrome,1440,900,,,,,0,765,,,,,,,,,,,,,,,,,160,B,triangle,1,0,,,,,,,,,,,,,,,,repeat,letter,lettRpt,j,0.8941,noRew,,,,,,0,26,0,26,0,1,,,,,,,,,,,,,,,,,
298105,2022-11-15_12h13.24.255,vts_reward_expectancy_bt,2022.2.4,MacIntel,59.99880002,Chrome,1440,900,,,,,0,765,,,,,,,,,,,,,,,,,174,W,hexagon,1,0,,,,,,,,,,,,,,,,repeat,letter,lettRpt,k,1.612,noRew,,,,,,0,27,0,27,0,1,,,,,,,,,,,,,,,,,
298105,2022-11-15_12h13.24.255,vts_reward_expectancy_bt,2022.2.4,MacIntel,59.99880002,Chrome,1440,900,,,,,0,765,,,,,,,,,,,,,,,,,181,B,star,1,0,,,,,,,,,,,,,,,,repeat,letter,lettRpt,j,1.3766,noRew,,,,,,0,28,0,28,0,1,,,,,,,,,,,,,,,,,
298105,2022-11-15_12h13.24.255,vts_reward_expectancy_bt,2022.2.4,MacIntel,59.99880002,Chrome,1440,900,,,,,0,765,,,,,,,,,,,,,,,,,132,Y,circle,1,0,,,,,,,,,,,,,,,,repeat,letter,lettRpt,k,0.9098,noRew,,,,,,0,29,0,29,0,1,,,,,,,,,,,,,,,,,
298105,2022-11-15_12h13.24.255,vts_reward_expectancy_bt,2022.2.4,MacIntel,59.99880002,Chrome,1440,900,,,,,0,765,,,,,,,,,,,,,,,,,146,H,circle,1,0,,,,,,,,,,,,,,,,switch,number,numSwt,d,1.2098,noRew,,,,,,0,30,0,30,0,1,,,,,,,,,,,,,,,,,
298105,2022-11-15_12h13.24.255,vts_reward_expectancy_bt,2022.2.4,MacIntel,59.99880002,Chrome,1440,900,,,,,0,765,,,,,,,,,,,,,,,,,174,U,triangle,1,0,,,,,,,,,,,,,,,,repeat,number,numRpt,f,1.3264,noRew,,,,,,0,31,0,31,0,1,,,,,,,,,,,,,,,,,
298105,2022-11-15_12h13.24.255,vts_reward_expectancy_bt,2022.2.4,MacIntel,59.99880002,Chrome,1440,900,,,,,0,765,,,,,,,,,,,,,,,,,125,S,circle,1,0,,,,,,,,,,,,,,,,repeat,number,numRpt,d,0.878,noRew,,,,,,0,32,0,32,0,1,,,,,,,,,,,,,,,,,
298105,2022-11-15_12h13.24.255,vts_reward_expectancy_bt,2022.2.4,MacIntel,59.99880002,Chrome,1440,900,,,,,0,765,,,,,,,,,,,,,,,,,160,B,triangle,1,0,,,,,,,,,,,,,,,,repeat,number,numRpt,f,0.8941,noRew,,,,,,0,33,0,33,0,1,,,,,,,,,,,,,,,,,
298105,2022-11-15_12h13.24.255,vts_reward_expectancy_bt,2022.2.4,MacIntel,59.99880002,Chrome,1440,900,,,,,0,765,,,,,,,,,,,,,,,,,174,D,circle,1,0,,,,,,,,,,,,,,,,switch,letter,lettSwt,j,1.4796,noRew,,,,,,0,34,0,34,0,1,,,,,,,,,,,,,,,,,
298105,2022-11-15_12h13.24.255,vts_reward_expectancy_bt,2022.2.4,MacIntel,59.99880002,Chrome,1440,900,,,,,0,765,,,,,,,,,,,,,,,,,139,Y,hexagon,1,0,,,,,,,,,,,,,,,,switch,number,numSwt,d,0.5934,noRew,,,,,,0,35,0,35,0,1,,,,,,,,,,,,,,,,,
298105,2022-11-15_12h13.24.255,vts_reward_expectancy_bt,2022.2.4,MacIntel,59.99880002,Chrome,1440,900,,,,,0,765,,,,,,,,,,,,,,,,,125,U,hexagon,1,0,,,,,,,,,,,,,,,,switch,letter,lettSwt,k,1.1125,noRew,,,,,,0,36,0,36,0,1,,,,,,,,,,,,,,,,,
298105,2022-11-15_12h13.24.255,vts_reward_expectancy_bt,2022.2.4,MacIntel,59.99880002,Chrome,1440,900,,,,,0,765,,,,,,,,,,,,,,,,,181,Y,triangle,1,0,,,,,,,,,,,,,,,,switch,number,numSwt,f,0.8206,noRew,,,,,,0,37,0,37,0,1,,,,,,,,,,,,,,,,,
298105,2022-11-15_12h13.24.255,vts_reward_expectancy_bt,2022.2.4,MacIntel,59.99880002,Chrome,1440,900,,,,,0,765,,,,,,,,,,,,,,,,,174,D,triangle,1,0,,,,,,,,,,,,,,,,switch,letter,lettSwt,j,2.9088,noRew,,,,,,0,38,0,38,0,1,,,,,,,,,,,,,,,,,
298105,2022-11-15_12h13.24.255,vts_reward_expectancy_bt,2022.2.4,MacIntel,59.99880002,Chrome,1440,900,,,,,0,765,,,,,,,,,,,,,,,,,132,F,hexagon,1,0,,,,,,,,,,,,,,,,switch,number,numSwt,d,1.2275,noRew,,,,,,0,39,0,39,0,1,,,,,,,,,,,,,,,,,
298105,2022-11-15_12h13.24.255,vts_reward_expectancy_bt,2022.2.4,MacIntel,59.99880002,Chrome,1440,900,,,,,0,765,,,,,,,,,,,,,,,,,181,B,star,-1,0,,,,,,,,,,,,,,,,switch,no_choice,NA,,,noRew,,,,,,0,40,0,40,0,1,,,,,,,,,,,,,,,,,
298105,2022-11-15_12h13.24.255,vts_reward_expectancy_bt,2022.2.4,MacIntel,59.99880002,Chrome,1440,900,,,,,0,765,,,,,,,,,,,,,,,,,167,H,circle,1,0,,,,,,,,,,,,,,,,switch,number,numSwt,f,1.0938,noRew,,,,,,0,41,0,41,0,1,,,,,,,,,,,,,,,,,
298105,2022-11-15_12h13.24.255,vts_reward_expectancy_bt,2022.2.4,MacIntel,59.99880002,Chrome,1440,900,,,,,0,765,,,,,,,,,,,,,,,,,146,U,star,1,0,,,,,,,,,,,,,,,,switch,letter,lettSwt,k,0.9497,noRew,,,,,,0,42,0,42,0,1,,,,,,,,,,,,,,,,,
298105,2022-11-15_12h13.24.255,vts_reward_expectancy_bt,2022.2.4,MacIntel,59.99880002,Chrome,1440,900,,,,,0,765,,,,,,,,,,,,,,,,,174,W,circle,1,0,,,,,,,,,,,,,,,,repeat,letter,lettRpt,k,1.339,noRew,,,,,,0,43,0,43,0,1,,,,,,,,,,,,,,,,,
298105,2022-11-15_12h13.24.255,vts_reward_expectancy_bt,2022.2.4,MacIntel,59.99880002,Chrome,1440,900,,,,,0,765,,,,,,,,,,,,,,,,,146,D,triangle,1,0,,,,,,,,,,,,,,,,repeat,letter,lettRpt,j,0.7872,noRew,,,,,,0,44,0,44,0,1,,,,,,,,,,,,,,,,,
298105,2022-11-15_12h13.24.255,vts_reward_expectancy_bt,2022.2.4,MacIntel,59.99880002,Chrome,1440,900,,,,,0,765,,,,,,,,,,,,,,,,,167,W,circle,1,0,,,,,,,,,,,,,,,,switch,number,numSwt,f,0.8979,noRew,,,,,,0,45,0,45,0,1,,,,,,,,,,,,,,,,,
298105,2022-11-15_12h13.24.255,vts_reward_expectancy_bt,2022.2.4,MacIntel,59.99880002,Chrome,1440,900,,,,,0,765,,,,,,,,,,,,,,,,,139,Y,hexagon,1,0,,,,,,,,,,,,,,,,repeat,number,numRpt,d,1.0593,noRew,,,,,,0,46,0,46,0,1,,,,,,,,,,,,,,,,,
298105,2022-11-15_12h13.24.255,vts_reward_expectancy_bt,2022.2.4,MacIntel,59.99880002,Chrome,1440,900,,,,,0,765,,,,,,,,,,,,,,,,,132,F,triangle,1,0,,,,,,,,,,,,,,,,switch,letter,lettSwt,j,1.8269,noRew,,,,,,0,47,0,47,0,1,,,,,,,,,,,,,,,,,
298105,2022-11-15_12h13.24.255,vts_reward_expectancy_bt,2022.2.4,MacIntel,59.99880002,Chrome,1440,900,,,,,0,765,,,,,,,,,,,,,,,,,167,H,star,1,0,,,,,,,,,,,,,,,,repeat,letter,lettRpt,j,2.1349,noRew,,,,,,0,48,0,48,0,1,,,,,,,,,,,,,,,,,
298105,2022-11-15_12h13.24.255,vts_reward_expectancy_bt,2022.2.4,MacIntel,59.99880002,Chrome,1440,900,,,,,0,765,,,,,,,,,,,,,,,,,181,U,circle,1,0,,,,,,,,,,,,,,,,switch,number,numSwt,f,1.7815,noRew,,,,,,0,49,0,49,0,1,,,,,,,,,,,,,,,,,
298105,2022-11-15_12h13.24.255,vts_reward_expectancy_bt,2022.2.4,MacIntel,59.99880002,Chrome,1440,900,,,,,0,765,,,,,,,,,,,,,,,,,146,W,circle,1,0,,,,,,,,,,,,,,,,repeat,number,numRpt,d,1.4005,noRew,,,,,,0,50,0,50,0,1,,,,,,,,,,,,,,,,,
298105,2022-11-15_12h13.24.255,vts_reward_expectancy_bt,2022.2.4,MacIntel,59.99880002,Chrome,1440,900,,,,,0,765,,,,,,,,,,,,,,,,,160,B,hexagon,1,0,,,,,,,,,,,,,,,,repeat,number,numRpt,f,2.3283,noRew,,,,,,0,51,0,51,0,1,,,,,,,,,,,,,,,,,
298105,2022-11-15_12h13.24.255,vts_reward_expectancy_bt,2022.2.4,MacIntel,59.99880002,Chrome,1440,900,,,,,0,765,,,,,,,,,,,,,,,,,174,B,star,1,0,,,,,,,,,,,,,,,,repeat,number,numRpt,f,0.7153,noRew,,,,,,0,52,0,52,0,1,,,,,,,,,,,,,,,,,
298105,2022-11-15_12h13.24.255,vts_reward_expectancy_bt,2022.2.4,MacIntel,59.99880002,Chrome,1440,900,,,,,0,765,,,,,,,,,,,,,,,,,160,D,hexagon,1,0,,,,,,,,,,,,,,,,switch,letter,lettSwt,j,1.6682,noRew,,,,,,0,53,0,53,0,1,,,,,,,,,,,,,,,,,
298105,2022-11-15_12h13.24.255,vts_reward_expectancy_bt,2022.2.4,MacIntel,59.99880002,Chrome,1440,900,,,,,0,765,,,,,,,,,,,,,,,,,146,F,circle,1,0,,,,,,,,,,,,,,,,repeat,letter,lettRpt,j,2.0307,noRew,,,,,,0,54,0,54,0,1,,,,,,,,,,,,,,,,,
298105,2022-11-15_12h13.24.255,vts_reward_expectancy_bt,2022.2.4,MacIntel,59.99880002,Chrome,1440,900,,,,,0,765,,,,,,,,,,,,,,,,,181,H,hexagon,1,0,,,,,,,,,,,,,,,,switch,number,numSwt,f,0.7137,noRew,,,,,,0,55,0,55,0,1,,,,,,,,,,,,,,,,,
298105,2022-11-15_12h13.24.255,vts_reward_expectancy_bt,2022.2.4,MacIntel,59.99880002,Chrome,1440,900,,,,,0,765,,,,,,,,,,,,,,,,,139,Y,star,1,0,,,,,,,,,,,,,,,,switch,letter,lettSwt,k,0.7096,noRew,,,,,,0,56,0,56,0,1,,,,,,,,,,,,,,,,,
298105,2022-11-15_12h13.24.255,vts_reward_expectancy_bt,2022.2.4,MacIntel,59.99880002,Chrome,1440,900,,,,,0,765,,,,,,,,,,,,,,,,,181,S,triangle,1,0,,,,,,,,,,,,,,,,switch,number,numSwt,f,1.0938,noRew,,,,,,0,57,0,57,0,1,,,,,,,,,,,,,,,,,
298105,2022-11-15_12h13.24.255,vts_reward_expectancy_bt,2022.2.4,MacIntel,59.99880002,Chrome,1440,900,,,,,0,765,,,,,,,,,,,,,,,,,160,W,star,1,0,,,,,,,,,,,,,,,,switch,letter,lettSwt,k,0.667,noRew,,,,,,0,58,0,58,0,1,,,,,,,,,,,,,,,,,
298105,2022-11-15_12h13.24.255,vts_reward_expectancy_bt,2022.2.4,MacIntel,59.99880002,Chrome,1440,900,,,,,0,765,,,,,,,,,,,,,,,,,167,H,hexagon,1,0,,,,,,,,,,,,,,,,switch,number,numSwt,f,0.8422,noRew,,,,,,0,59,0,59,0,1,,,,,,,,,,,,,,,,,
298105,2022-11-15_12h13.24.255,vts_reward_expectancy_bt,2022.2.4,MacIntel,59.99880002,Chrome,1440,900,,,,,0,765,,,,,,,,,,,,,,,,,167,F,star,1,0,,,,,,,,,,,,,,,,repeat,number,numRpt,f,0.7226,noRew,,,,,,0,60,0,60,0,1,,,,,,,,,,,,,,,,,
298105,2022-11-15_12h13.24.255,vts_reward_expectancy_bt,2022.2.4,MacIntel,59.99880002,Chrome,1440,900,,,,,0,765,,,,,,,,,,,,,,,,,139,S,circle,1,0,,,,,,,,,,,,,,,,switch,letter,lettSwt,k,1.014,noRew,,,,,,0,61,0,61,0,1,,,,,,,,,,,,,,,,,
298105,2022-11-15_12h13.24.255,vts_reward_expectancy_bt,2022.2.4,MacIntel,59.99880002,Chrome,1440,900,,,,,0,765,,,,,,,,,,,,,,,,,160,U,triangle,1,0,,,,,,,,,,,,,,,,switch,number,numSwt,f,0.9353,noRew,,,,,,0,62,0,62,0,1,,,,,,,,,,,,,,,,,
298105,2022-11-15_12h13.24.255,vts_reward_expectancy_bt,2022.2.4,MacIntel,59.99880002,Chrome,1440,900,,,,,0,765,,,,,,,,,,,,,,,,,125,H,circle,1,0,,,,,,,,,,,,,,,,repeat,number,numRpt,d,0.7757,noRew,,,,,,0,63,0,63,0,1,,,,,,,,,,,,,,,,,
298105,2022-11-15_12h13.24.255,vts_reward_expectancy_bt,2022.2.4,MacIntel,59.99880002,Chrome,1440,900,,,,,,,,,,,,,,,,,,,,,,,,,,,,,,,,,,,,,,,,,,,,,,,,,,,,,,,,,,,,,,,,,,,,,,,,,,,,
298105,2022-11-15_12h13.24.255,vts_reward_expectancy_bt,2022.2.4,MacIntel,59.99880002,Chrome,1440,900,,,,,10,775,,,,,,,,,,,,,,,,,174,F,circle,1,0,,,,,,,,,,,,,,,,repeat,number,numRpt,f,0.9798,Lo,,,,,,0,,,,,,space,11.5673,high,0,0,0,0,1,,,,,,,,,
298105,2022-11-15_12h13.24.255,vts_reward_expectancy_bt,2022.2.4,MacIntel,59.99880002,Chrome,1440,900,,,,,10,785,,,,,,,,,,,,,,,,,139,D,star,1,0,,,,,,,,,,,,,,,,repeat,number,numRpt,d,0.6656,Hi,,,,,,0,,,,,,,,high,1,0,1,0,1,,,,,,,,,
298105,2022-11-15_12h13.24.255,vts_reward_expectancy_bt,2022.2.4,MacIntel,59.99880002,Chrome,1440,900,,,,,1,786,,,,,,,,,,,,,,,,,167,Y,triangle,1,0,,,,,,,,,,,,,,,,repeat,number,numRpt,f,0.6725,Lo,,,,,,0,,,,,,,,high,2,0,2,0,1,,,,,,,,,
298105,2022-11-15_12h13.24.255,vts_reward_expectancy_bt,2022.2.4,MacIntel,59.99880002,Chrome,1440,900,,,,,1,787,,,,,,,,,,,,,,,,,160,S,hexagon,1,0,,,,,,,,,,,,,,,,repeat,number,numRpt,f,0.7797,Hi,,,,,,0,,,,,,,,high,3,0,3,0,1,,,,,,,,,
298105,2022-11-15_12h13.24.255,vts_reward_expectancy_bt,2022.2.4,MacIntel,59.99880002,Chrome,1440,900,,,,,1,788,,,,,,,,,,,,,,,,,146,H,circle,1,0,,,,,,,,,,,,,,,,switch,letter,lettSwt,j,1.3175,Lo,,,,,,0,,,,,,,,high,4,0,4,0,1,,,,,,,,,
298105,2022-11-15_12h13.24.255,vts_reward_expectancy_bt,2022.2.4,MacIntel,59.99880002,Chrome,1440,900,,,,,1,789,,,,,,,,,,,,,,,,,181,U,star,1,0,,,,,,,,,,,,,,,,switch,number,numSwt,f,0.6728,Hi,,,,,,0,,,,,,,,high,5,0,5,0,1,,,,,,,,,
298105,2022-11-15_12h13.24.255,vts_reward_expectancy_bt,2022.2.4,MacIntel,59.99880002,Chrome,1440,900,,,,,0,789,,,,,,,,,,,,,,,,,132,W,triangle,0,0,,,,,,,,,,,,,,,,switch,letter,NA,j,0.7969,Hi,,,,,,0,,,,,,,,high,6,0,6,0,1,,,,,,,,,
298105,2022-11-15_12h13.24.255,vts_reward_expectancy_bt,2022.2.4,MacIntel,59.99880002,Chrome,1440,900,,,,,1,790,,,,,,,,,,,,,,,,,125,B,hexagon,1,1,,,,,,,,,,,,,,,,switch,number,numSwt,d,0.7598,Hi,,,,,,0,,,,,,,,high,7,0,7,0,1,,,,,,,,,
298105,2022-11-15_12h13.24.255,vts_reward_expectancy_bt,2022.2.4,MacIntel,59.99880002,Chrome,1440,900,,,,,10,800,,,,,,,,,,,,,,,,,174,F,star,1,0,,,,,,,,,,,,,,,,switch,letter,lettSwt,j,0.9438,Hi,,,,,,0,,,,,,,,high,8,0,8,0,1,,,,,,,,,
298105,2022-11-15_12h13.24.255,vts_reward_expectancy_bt,2022.2.4,MacIntel,59.99880002,Chrome,1440,900,,,,,10,810,,,,,,,,,,,,,,,,,139,D,hexagon,1,0,,,,,,,,,,,,,,,,repeat,letter,lettRpt,j,0.6823,Hi,,,,,,0,,,,,,,,high,9,0,9,0,1,,,,,,,,,
298105,2022-11-15_12h13.24.255,vts_reward_expectancy_bt,2022.2.4,MacIntel,59.99880002,Chrome,1440,900,,,,,1,811,,,,,,,,,,,,,,,,,167,Y,circle,1,0,,,,,,,,,,,,,,,,repeat,letter,lettRpt,k,0.8448,Lo,,,,,,0,,,,,,,,high,10,0,10,0,1,,,,,,,,,
298105,2022-11-15_12h13.24.255,vts_reward_expectancy_bt,2022.2.4,MacIntel,59.99880002,Chrome,1440,900,,,,,10,821,,,,,,,,,,,,,,,,,160,S,triangle,1,0,,,,,,,,,,,,,,,,switch,number,numSwt,f,0.6936,Lo,,,,,,0,,,,,,,,high,11,0,11,0,1,,,,,,,,,
298105,2022-11-15_12h13.24.255,vts_reward_expectancy_bt,2022.2.4,MacIntel,59.99880002,Chrome,1440,900,,,,,10,831,,,,,,,,,,,,,,,,,146,H,hexagon,1,0,,,,,,,,,,,,,,,,switch,letter,lettSwt,j,0.6521,Hi,,,,,,0,,,,,,,,high,12,0,12,0,1,,,,,,,,,
298105,2022-11-15_12h13.24.255,vts_reward_expectancy_bt,2022.2.4,MacIntel,59.99880002,Chrome,1440,900,,,,,1,832,,,,,,,,,,,,,,,,,181,U,circle,1,0,,,,,,,,,,,,,,,,repeat,letter,lettRpt,k,1.76,Lo,,,,,,0,,,,,,,,high,13,0,13,0,1,,,,,,,,,
298105,2022-11-15_12h13.24.255,vts_reward_expectancy_bt,2022.2.4,MacIntel,59.99880002,Chrome,1440,900,,,,,10,842,,,,,,,,,,,,,,,,,132,W,triangle,1,0,,,,,,,,,,,,,,,,switch,number,numSwt,d,0.9992,Lo,,,,,,0,,,,,,,,high,14,0,14,0,1,,,,,,,,,
298105,2022-11-15_12h13.24.255,vts_reward_expectancy_bt,2022.2.4,MacIntel,59.99880002,Chrome,1440,900,,,,,10,852,,,,,,,,,,,,,,,,,125,B,star,1,0,,,,,,,,,,,,,,,,repeat,number,numRpt,d,0.5964,Hi,,,,,,0,,,,,,,,high,15,0,15,0,1,,,,,,,,,
298105,2022-11-15_12h13.24.255,vts_reward_expectancy_bt,2022.2.4,MacIntel,59.99880002,Chrome,1440,900,,,,,10,862,,,,,,,,,,,,,,,,,181,B,hexagon,1,0,,,,,,,,,,,,,,,,repeat,number,numRpt,f,0.7304,Hi,,,,,,0,,,,,,,,high,16,0,16,0,1,,,,,,,,,
298105,2022-11-15_12h13.24.255,vts_reward_expectancy_bt,2022.2.4,MacIntel,59.99880002,Chrome,1440,900,,,,,1,863,,,,,,,,,,,,,,,,,160,S,circle,1,0,,,,,,,,,,,,,,,,repeat,number,numRpt,f,0.6436,Lo,,,,,,0,,,,,,,,high,17,0,17,0,1,,,,,,,,,
298105,2022-11-15_12h13.24.255,vts_reward_expectancy_bt,2022.2.4,MacIntel,59.99880002,Chrome,1440,900,,,,,10,873,,,,,,,,,,,,,,,,,167,Y,triangle,1,0,,,,,,,,,,,,,,,,switch,letter,lettSwt,k,0.948,Lo,,,,,,0,,,,,,,,high,18,0,18,0,1,,,,,,,,,
298105,2022-11-15_12h13.24.255,vts_reward_expectancy_bt,2022.2.4,MacIntel,59.99880002,Chrome,1440,900,,,,,10,883,,,,,,,,,,,,,,,,,132,W,star,1,0,,,,,,,,,,,,,,,,repeat,letter,lettRpt,k,0.5916,Hi,,,,,,0,,,,,,,,high,19,0,19,0,1,,,,,,,,,
298105,2022-11-15_12h13.24.255,vts_reward_expectancy_bt,2022.2.4,MacIntel,59.99880002,Chrome,1440,900,,,,,1,884,,,,,,,,,,,,,,,,,146,F,triangle,1,0,,,,,,,,,,,,,,,,repeat,letter,lettRpt,j,0.8929,Lo,,,,,,0,,,,,,,,high,20,0,20,0,1,,,,,,,,,
298105,2022-11-15_12h13.24.255,vts_reward_expectancy_bt,2022.2.4,MacIntel,59.99880002,Chrome,1440,900,,,,,1,885,,,,,,,,,,,,,,,,,125,H,circle,1,0,,,,,,,,,,,,,,,,switch,number,numSwt,d,1.5107,Lo,,,,,,0,,,,,,,,high,21,0,21,0,1,,,,,,,,,
298105,2022-11-15_12h13.24.255,vts_reward_expectancy_bt,2022.2.4,MacIntel,59.99880002,Chrome,1440,900,,,,,0,885,,,,,,,,,,,,,,,,,139,D,hexagon,1,0,,,,,,,,,,,,,,,,switch,letter,lettSwt,j,1.2802,Hi,,,,,,0,,,,,,,,high,22,0,22,0,1,,,,,,,,,
298105,2022-11-15_12h13.24.255,vts_reward_expectancy_bt,2022.2.4,MacIntel,59.99880002,Chrome,1440,900,,,,,10,895,,,,,,,,,,,,,,,,,174,U,star,1,0,,,,,,,,,,,,,,,,repeat,letter,lettRpt,k,0.7659,Hi,,,,,,0,,,,,,,,high,23,0,23,0,1,,,,,,,,,
298105,2022-11-15_12h13.24.255,vts_reward_expectancy_bt,2022.2.4,MacIntel,59.99880002,Chrome,1440,900,,,,,1,896,,,,,,,,,,,,,,,,,125,Y,circle,1,0,,,,,,,,,,,,,,,,switch,number,numSwt,d,0.591,Lo,,,,,,0,,,,,,,,high,24,0,24,0,1,,,,,,,,,
298105,2022-11-15_12h13.24.255,vts_reward_expectancy_bt,2022.2.4,MacIntel,59.99880002,Chrome,1440,900,,,,,10,906,,,,,,,,,,,,,,,,,139,H,hexagon,1,0,,,,,,,,,,,,,,,,switch,letter,lettSwt,j,0.893,Hi,,,,,,0,,,,,,,,high,25,0,25,0,1,,,,,,,,,
298105,2022-11-15_12h13.24.255,vts_reward_expectancy_bt,2022.2.4,MacIntel,59.99880002,Chrome,1440,900,,,,,1,907,,,,,,,,,,,,,,,,,181,U,triangle,1,0,,,,,,,,,,,,,,,,repeat,letter,lettRpt,k,1.3481,Lo,,,,,,0,,,,,,,,high,26,0,26,0,1,,,,,,,,,
298105,2022-11-15_12h13.24.255,vts_reward_expectancy_bt,2022.2.4,MacIntel,59.99880002,Chrome,1440,900,,,,,10,917,,,,,,,,,,,,,,,,,132,W,star,1,0,,,,,,,,,,,,,,,,repeat,letter,lettRpt,k,0.7707,Hi,,,,,,0,,,,,,,,high,27,0,27,0,1,,,,,,,,,
298105,2022-11-15_12h13.24.255,vts_reward_expectancy_bt,2022.2.4,MacIntel,59.99880002,Chrome,1440,900,,,,,1,918,,,,,,,,,,,,,,,,,146,B,triangle,1,0,,,,,,,,,,,,,,,,switch,number,numSwt,d,0.9482,Lo,,,,,,0,,,,,,,,high,28,0,28,0,1,,,,,,,,,
298105,2022-11-15_12h13.24.255,vts_reward_expectancy_bt,2022.2.4,MacIntel,59.99880002,Chrome,1440,900,,,,,0,918,,,,,,,,,,,,,,,,,167,S,hexagon,1,0,,,,,,,,,,,,,,,,switch,letter,lettSwt,k,1.4311,Hi,,,,,,0,,,,,,,,high,29,0,29,0,1,,,,,,,,,
298105,2022-11-15_12h13.24.255,vts_reward_expectancy_bt,2022.2.4,MacIntel,59.99880002,Chrome,1440,900,,,,,10,928,,,,,,,,,,,,,,,,,160,D,star,1,0,,,,,,,,,,,,,,,,repeat,letter,lettRpt,j,0.7519,Hi,,,,,,0,,,,,,,,high,30,0,30,0,1,,,,,,,,,
298105,2022-11-15_12h13.24.255,vts_reward_expectancy_bt,2022.2.4,MacIntel,59.99880002,Chrome,1440,900,,,,,1,929,,,,,,,,,,,,,,,,,174,F,circle,1,0,,,,,,,,,,,,,,,,repeat,letter,lettRpt,j,0.7096,Lo,,,,,,0,,,,,,,,high,31,0,31,0,1,,,,,,,,,
298105,2022-11-15_12h13.24.255,vts_reward_expectancy_bt,2022.2.4,MacIntel,59.99880002,Chrome,1440,900,,,,,0,929,,,,,,,,,,,,,,,,,174,W,hexagon,1,0,,,,,,,,,,,,,,,,switch,number,numSwt,f,0.9125,Hi,,,,,,1,,,,,,space,1.4797,high,0,0,0,0,1,,,,,,,,,
298105,2022-11-15_12h13.24.255,vts_reward_expectancy_bt,2022.2.4,MacIntel,59.99880002,Chrome,1440,900,,,,,10,939,,,,,,,,,,,,,,,,,132,S,star,1,0,,,,,,,,,,,,,,,,switch,letter,lettSwt,k,0.6524,Hi,,,,,,1,,,,,,,,high,1,0,1,0,1,,,,,,,,,
298105,2022-11-15_12h13.24.255,vts_reward_expectancy_bt,2022.2.4,MacIntel,59.99880002,Chrome,1440,900,,,,,1,940,,,,,,,,,,,,,,,,,160,F,triangle,1,0,,,,,,,,,,,,,,,,repeat,letter,lettRpt,j,0.7357,Lo,,,,,,1,,,,,,,,high,2,0,2,0,1,,,,,,,,,
298105,2022-11-15_12h13.24.255,vts_reward_expectancy_bt,2022.2.4,MacIntel,59.99880002,Chrome,1440,900,,,,,1,941,,,,,,,,,,,,,,,,,139,Y,circle,1,0,,,,,,,,,,,,,,,,repeat,letter,lettRpt,k,0.8631,Lo,,,,,,1,,,,,,,,high,3,0,3,0,1,,,,,,,,,
298105,2022-11-15_12h13.24.255,vts_reward_expectancy_bt,2022.2.4,MacIntel,59.99880002,Chrome,1440,900,,,,,0,941,,,,,,,,,,,,,,,,,181,B,hexagon,1,0,,,,,,,,,,,,,,,,switch,number,numSwt,f,0.7138,Hi,,,,,,1,,,,,,,,high,4,0,4,0,1,,,,,,,,,
298105,2022-11-15_12h13.24.255,vts_reward_expectancy_bt,2022.2.4,MacIntel,59.99880002,Chrome,1440,900,,,,,10,951,,,,,,,,,,,,,,,,,146,H,star,1,0,,,,,,,,,,,,,,,,repeat,number,numRpt,d,0.6363,Hi,,,,,,1,,,,,,,,high,5,0,5,0,1,,,,,,,,,
298105,2022-11-15_12h13.24.255,vts_reward_expectancy_bt,2022.2.4,MacIntel,59.99880002,Chrome,1440,900,,,,,0,951,,,,,,,,,,,,,,,,,167,U,triangle,0,0,,,,,,,,,,,,,,,,repeat,number,NA,d,0.6309,Hi,,,,,,1,,,,,,,,high,6,0,6,0,1,,,,,,,,,
298105,2022-11-15_12h13.24.255,vts_reward_expectancy_bt,2022.2.4,MacIntel,59.99880002,Chrome,1440,900,,,,,1,952,,,,,,,,,,,,,,,,,125,D,circle,1,1,,,,,,,,,,,,,,,,repeat,number,numRpt,d,0.6442,Lo,,,,,,1,,,,,,,,high,7,0,7,0,1,,,,,,,,,
298105,2022-11-15_12h13.24.255,vts_reward_expectancy_bt,2022.2.4,MacIntel,59.99880002,Chrome,1440,900,,,,,1,953,,,,,,,,,,,,,,,,,174,W,circle,1,0,,,,,,,,,,,,,,,,switch,letter,lettSwt,k,0.5377,Lo,,,,,,1,,,,,,,,high,8,0,8,0,1,,,,,,,,,
298105,2022-11-15_12h13.24.255,vts_reward_expectancy_bt,2022.2.4,MacIntel,59.99880002,Chrome,1440,900,,,,,10,963,,,,,,,,,,,,,,,,,132,S,hexagon,1,0,,,,,,,,,,,,,,,,repeat,letter,lettRpt,k,0.5942,Hi,,,,,,1,,,,,,,,high,9,0,9,0,1,,,,,,,,,
298105,2022-11-15_12h13.24.255,vts_reward_expectancy_bt,2022.2.4,MacIntel,59.99880002,Chrome,1440,900,,,,,10,973,,,,,,,,,,,,,,,,,160,F,triangle,1,0,,,,,,,,,,,,,,,,repeat,letter,lettRpt,j,1.0096,Lo,,,,,,1,,,,,,,,high,10,0,10,0,1,,,,,,,,,
298105,2022-11-15_12h13.24.255,vts_reward_expectancy_bt,2022.2.4,MacIntel,59.99880002,Chrome,1440,900,,,,,0,973,,,,,,,,,,,,,,,,,139,Y,star,1,0,,,,,,,,,,,,,,,,switch,number,numSwt,d,0.8617,Hi,,,,,,1,,,,,,,,high,11,0,11,0,1,,,,,,,,,
298105,2022-11-15_12h13.24.255,vts_reward_expectancy_bt,2022.2.4,MacIntel,59.99880002,Chrome,1440,900,,,,,1,974,,,,,,,,,,,,,,,,,181,B,circle,1,0,,,,,,,,,,,,,,,,repeat,number,numRpt,f,0.6347,Lo,,,,,,1,,,,,,,,high,12,0,12,0,1,,,,,,,,,
298105,2022-11-15_12h13.24.255,vts_reward_expectancy_bt,2022.2.4,MacIntel,59.99880002,Chrome,1440,900,,,,,1,975,,,,,,,,,,,,,,,,,146,H,hexagon,1,0,,,,,,,,,,,,,,,,switch,letter,lettSwt,j,0.5822,Hi,,,,,,1,,,,,,,,high,13,0,13,0,1,,,,,,,,,
298105,2022-11-15_12h13.24.255,vts_reward_expectancy_bt,2022.2.4,MacIntel,59.99880002,Chrome,1440,900,,,,,1,976,,,,,,,,,,,,,,,,,167,U,triangle,1,0,,,,,,,,,,,,,,,,switch,number,numSwt,f,1.6726,Lo,,,,,,1,,,,,,,,high,14,0,14,0,1,,,,,,,,,
298105,2022-11-15_12h13.24.255,vts_reward_expectancy_bt,2022.2.4,MacIntel,59.99880002,Chrome,1440,900,,,,,0,976,,,,,,,,,,,,,,,,,125,D,star,1,0,,,,,,,,,,,,,,,,repeat,number,numRpt,d,0.9472,Hi,,,,,,1,,,,,,,,high,15,0,15,0,1,,,,,,,,,
298105,2022-11-15_12h13.24.255,vts_reward_expectancy_bt,2022.2.4,MacIntel,59.99880002,Chrome,1440,900,,,,,1,977,,,,,,,,,,,,,,,,,125,U,triangle,1,0,,,,,,,,,,,,,,,,repeat,number,numRpt,d,0.3411,Lo,,,,,,1,,,,,,,,high,16,0,16,0,1,,,,,,,,,
298105,2022-11-15_12h13.24.255,vts_reward_expectancy_bt,2022.2.4,MacIntel,59.99880002,Chrome,1440,900,,,,,0,977,,,,,,,,,,,,,,,,,181,S,hexagon,1,0,,,,,,,,,,,,,,,,switch,letter,lettSwt,k,1.0637,Hi,,,,,,1,,,,,,,,high,17,0,17,0,1,,,,,,,,,
298105,2022-11-15_12h13.24.255,vts_reward_expectancy_bt,2022.2.4,MacIntel,59.99880002,Chrome,1440,900,,,,,0,977,,,,,,,,,,,,,,,,,167,W,star,1,0,,,,,,,,,,,,,,,,repeat,letter,lettRpt,k,0.7877,Hi,,,,,,1,,,,,,,,high,18,0,18,0,1,,,,,,,,,
298105,2022-11-15_12h13.24.255,vts_reward_expectancy_bt,2022.2.4,MacIntel,59.99880002,Chrome,1440,900,,,,,1,978,,,,,,,,,,,,,,,,,139,B,circle,1,0,,,,,,,,,,,,,,,,repeat,letter,lettRpt,j,0.6727,Lo,,,,,,1,,,,,,,,high,19,0,19,0,1,,,,,,,,,
298105,2022-11-15_12h13.24.255,vts_reward_expectancy_bt,2022.2.4,MacIntel,59.99880002,Chrome,1440,900,,,,,1,979,,,,,,,,,,,,,,,,,146,D,triangle,1,0,,,,,,,,,,,,,,,,repeat,letter,lettRpt,j,0.5422,Lo,,,,,,1,,,,,,,,high,20,0,20,0,1,,,,,,,,,
298105,2022-11-15_12h13.24.255,vts_reward_expectancy_bt,2022.2.4,MacIntel,59.99880002,Chrome,1440,900,,,,,1,980,,,,,,,,,,,,,,,,,132,F,hexagon,1,0,,,,,,,,,,,,,,,,repeat,letter,lettRpt,j,0.6422,Hi,,,,,,1,,,,,,,,high,21,0,21,0,1,,,,,,,,,
298105,2022-11-15_12h13.24.255,vts_reward_expectancy_bt,2022.2.4,MacIntel,59.99880002,Chrome,1440,900,,,,,10,990,,,,,,,,,,,,,,,,,160,H,circle,1,0,,,,,,,,,,,,,,,,repeat,letter,lettRpt,j,0.6297,Lo,,,,,,1,,,,,,,,high,22,0,22,0,1,,,,,,,,,
298105,2022-11-15_12h13.24.255,vts_reward_expectancy_bt,2022.2.4,MacIntel,59.99880002,Chrome,1440,900,,,,,10,1000,,,,,,,,,,,,,,,,,174,Y,star,1,0,,,,,,,,,,,,,,,,repeat,letter,lettRpt,k,0.5648,Hi,,,,,,1,,,,,,,,high,23,0,23,0,1,,,,,,,,,
298105,2022-11-15_12h13.24.255,vts_reward_expectancy_bt,2022.2.4,MacIntel,59.99880002,Chrome,1440,900,,,,,10,1010,,,,,,,,,,,,,,,,,174,S,hexagon,1,0,,,,,,,,,,,,,,,,switch,number,numSwt,f,0.6334,Hi,,,,,,1,,,,,,,,high,24,0,24,0,1,,,,,,,,,
298105,2022-11-15_12h13.24.255,vts_reward_expectancy_bt,2022.2.4,MacIntel,59.99880002,Chrome,1440,900,,,,,1,1011,,,,,,,,,,,,,,,,,160,H,star,1,0,,,,,,,,,,,,,,,,repeat,number,numRpt,f,0.4947,Hi,,,,,,1,,,,,,,,high,25,0,25,0,1,,,,,,,,,
298105,2022-11-15_12h13.24.255,vts_reward_expectancy_bt,2022.2.4,MacIntel,59.99880002,Chrome,1440,900,,,,,1,1012,,,,,,,,,,,,,,,,,132,B,circle,1,0,,,,,,,,,,,,,,,,repeat,number,numRpt,d,0.6525,Lo,,,,,,1,,,,,,,,high,26,0,26,0,1,,,,,,,,,
298105,2022-11-15_12h13.24.255,vts_reward_expectancy_bt,2022.2.4,MacIntel,59.99880002,Chrome,1440,900,,,,,1,1013,,,,,,,,,,,,,,,,,146,D,triangle,1,0,,,,,,,,,,,,,,,,switch,letter,lettSwt,j,1.3829,Lo,,,,,,1,,,,,,,,high,27,0,27,0,1,,,,,,,,,
298105,2022-11-15_12h13.24.255,vts_reward_expectancy_bt,2022.2.4,MacIntel,59.99880002,Chrome,1440,900,,,,,0,1013,,,,,,,,,,,,,,,,,167,U,hexagon,1,0,,,,,,,,,,,,,,,,repeat,letter,lettRpt,k,0.7586,Hi,,,,,,1,,,,,,,,high,28,0,28,0,1,,,,,,,,,
298105,2022-11-15_12h13.24.255,vts_reward_expectancy_bt,2022.2.4,MacIntel,59.99880002,Chrome,1440,900,,,,,1,1014,,,,,,,,,,,,,,,,,139,W,triangle,1,0,,,,,,,,,,,,,,,,switch,number,numSwt,d,1.2458,Lo,,,,,,1,,,,,,,,high,29,0,29,0,1,,,,,,,,,
298105,2022-11-15_12h13.24.255,vts_reward_expectancy_bt,2022.2.4,MacIntel,59.99880002,Chrome,1440,900,,,,,1,1015,,,,,,,,,,,,,,,,,125,Y,circle,1,0,,,,,,,,,,,,,,,,repeat,number,numRpt,d,0.746,Lo,,,,,,1,,,,,,,,high,30,0,30,0,1,,,,,,,,,
298105,2022-11-15_12h13.24.255,vts_reward_expectancy_bt,2022.2.4,MacIntel,59.99880002,Chrome,1440,900,,,,,0,1015,,,,,,,,,,,,,,,,,181,F,star,1,0,,,,,,,,,,,,,,,,switch,letter,lettSwt,j,1.5117,Hi,,,,,,1,,,,,,,,high,31,0,31,0,1,,,,,,,,,
298105,2022-11-15_12h13.24.255,vts_reward_expectancy_bt,2022.2.4,MacIntel,59.99880002,Chrome,1440,900,,,,,10,1025,,,,,,,,,,,,,,,,,125,W,hexagon,1,0,,,,,,,,,,,,,,,,switch,number,numSwt,d,0.6789,Hi,,,,,,2,,,,,,space,3.2227,high,0,0,0,0,1,,,,,,,,,
298105,2022-11-15_12h13.24.255,vts_reward_expectancy_bt,2022.2.4,MacIntel,59.99880002,Chrome,1440,900,,,,,1,1026,,,,,,,,,,,,,,,,,174,F,circle,1,0,,,,,,,,,,,,,,,,switch,letter,lettSwt,j,0.6024,Lo,,,,,,2,,,,,,,,high,1,0,1,0,1,,,,,,,,,
298105,2022-11-15_12h13.24.255,vts_reward_expectancy_bt,2022.2.4,MacIntel,59.99880002,Chrome,1440,900,,,,,1,1027,,,,,,,,,,,,,,,,,160,H,triangle,1,0,,,,,,,,,,,,,,,,switch,number,numSwt,f,0.4937,Lo,,,,,,2,,,,,,,,high,2,0,2,0,1,,,,,,,,,
298105,2022-11-15_12h13.24.255,vts_reward_expectancy_bt,2022.2.4,MacIntel,59.99880002,Chrome,1440,900,,,,,0,1027,,,,,,,,,,,,,,,,,146,U,star,1,0,,,,,,,,,,,,,,,,repeat,number,numRpt,d,0.7511,Hi,,,,,,2,,,,,,,,high,3,0,3,0,1,,,,,,,,,
298105,2022-11-15_12h13.24.255,vts_reward_expectancy_bt,2022.2.4,MacIntel,59.99880002,Chrome,1440,900,,,,,0,1027,,,,,,,,,,,,,,,,,181,S,hexagon,1,0,,,,,,,,,,,,,,,,switch,letter,lettSwt,k,1.0428,Hi,,,,,,2,,,,,,,,high,4,0,4,0,1,,,,,,,,,
298105,2022-11-15_12h13.24.255,vts_reward_expectancy_bt,2022.2.4,MacIntel,59.99880002,Chrome,1440,900,,,,,1,1028,,,,,,,,,,,,,,,,,139,Y,circle,1,0,,,,,,,,,,,,,,,,repeat,letter,lettRpt,k,0.8216,Lo,,,,,,2,,,,,,,,high,5,0,5,0,1,,,,,,,,,
298105,2022-11-15_12h13.24.255,vts_reward_expectancy_bt,2022.2.4,MacIntel,59.99880002,Chrome,1440,900,,,,,1,1029,,,,,,,,,,,,,,,,,167,B,triangle,1,0,,,,,,,,,,,,,,,,repeat,letter,lettRpt,j,0.6511,Lo,,,,,,2,,,,,,,,high,6,0,6,0,1,,,,,,,,,
298105,2022-11-15_12h13.24.255,vts_reward_expectancy_bt,2022.2.4,MacIntel,59.99880002,Chrome,1440,900,,,,,0,1029,,,,,,,,,,,,,,,,,132,D,star,1,0,,,,,,,,,,,,,,,,repeat,letter,lettRpt,j,0.6993,Hi,,,,,,2,,,,,,,,high,7,0,7,0,1,,,,,,,,,
298105,2022-11-15_12h13.24.255,vts_reward_expectancy_bt,2022.2.4,MacIntel,59.99880002,Chrome,1440,900,,,,,10,1039,,,,,,,,,,,,,,,,,125,W,hexagon,1,0,,,,,,,,,,,,,,,,switch,number,numSwt,d,0.6507,Hi,,,,,,2,,,,,,,,high,8,0,8,0,1,,,,,,,,,
298105,2022-11-15_12h13.24.255,vts_reward_expectancy_bt,2022.2.4,MacIntel,59.99880002,Chrome,1440,900,,,,,1,1040,,,,,,,,,,,,,,,,,174,F,triangle,1,0,,,,,,,,,,,,,,,,repeat,number,numRpt,f,0.691,Lo,,,,,,2,,,,,,,,high,9,0,9,0,1,,,,,,,,,
298105,2022-11-15_12h13.24.255,vts_reward_expectancy_bt,2022.2.4,MacIntel,59.99880002,Chrome,1440,900,,,,,1,1041,,,,,,,,,,,,,,,,,160,H,circle,1,0,,,,,,,,,,,,,,,,repeat,number,numRpt,f,0.676,Lo,,,,,,2,,,,,,,,high,10,0,10,0,1,,,,,,,,,
298105,2022-11-15_12h13.24.255,vts_reward_expectancy_bt,2022.2.4,MacIntel,59.99880002,Chrome,1440,900,,,,,0,1041,,,,,,,,,,,,,,,,,146,U,star,1,0,,,,,,,,,,,,,,,,switch,letter,lettSwt,k,0.6836,Hi,,,,,,2,,,,,,,,high,11,0,11,0,1,,,,,,,,,
298105,2022-11-15_12h13.24.255,vts_reward_expectancy_bt,2022.2.4,MacIntel,59.99880002,Chrome,1440,900,,,,,10,1051,,,,,,,,,,,,,,,,,181,S,star,1,0,,,,,,,,,,,,,,,,switch,number,numSwt,f,0.5796,Hi,,,,,,2,,,,,,,,high,12,0,12,0,1,,,,,,,,,
298105,2022-11-15_12h13.24.255,vts_reward_expectancy_bt,2022.2.4,MacIntel,59.99880002,Chrome,1440,900,,,,,1,1052,,,,,,,,,,,,,,,,,139,Y,circle,1,0,,,,,,,,,,,,,,,,repeat,number,numRpt,d,1.2294,Lo,,,,,,2,,,,,,,,high,13,0,13,0,1,,,,,,,,,
298105,2022-11-15_12h13.24.255,vts_reward_expectancy_bt,2022.2.4,MacIntel,59.99880002,Chrome,1440,900,,,,,1,1053,,,,,,,,,,,,,,,,,167,B,triangle,1,0,,,,,,,,,,,,,,,,repeat,number,numRpt,f,0.6815,Lo,,,,,,2,,,,,,,,high,14,0,14,0,1,,,,,,,,,
298105,2022-11-15_12h13.24.255,vts_reward_expectancy_bt,2022.2.4,MacIntel,59.99880002,Chrome,1440,900,,,,,10,1063,,,,,,,,,,,,,,,,,132,D,hexagon,1,0,,,,,,,,,,,,,,,,repeat,number,numRpt,d,0.6168,Hi,,,,,,2,,,,,,,,high,15,0,15,0,1,,,,,,,,,
298105,2022-11-15_12h13.24.255,vts_reward_expectancy_bt,2022.2.4,MacIntel,59.99880002,Chrome,1440,900,,,,,1,1064,,,,,,,,,,,,,,,,,139,B,hexagon,1,0,,,,,,,,,,,,,,,,repeat,number,numRpt,d,0.594,Hi,,,,,,2,,,,,,,,high,16,0,16,0,1,,,,,,,,,
298105,2022-11-15_12h13.24.255,vts_reward_expectancy_bt,2022.2.4,MacIntel,59.99880002,Chrome,1440,900,,,,,10,1074,,,,,,,,,,,,,,,,,160,H,star,1,0,,,,,,,,,,,,,,,,repeat,number,numRpt,f,0.6117,Hi,,,,,,2,,,,,,,,high,17,0,17,0,1,,,,,,,,,
298105,2022-11-15_12h13.24.255,vts_reward_expectancy_bt,2022.2.4,MacIntel,59.99880002,Chrome,1440,900,,,,,1,1075,,,,,,,,,,,,,,,,,132,F,triangle,1,0,,,,,,,,,,,,,,,,repeat,number,numRpt,d,0.6683,Lo,,,,,,2,,,,,,,,high,18,0,18,0,1,,,,,,,,,
298105,2022-11-15_12h13.24.255,vts_reward_expectancy_bt,2022.2.4,MacIntel,59.99880002,Chrome,1440,900,,,,,1,1076,,,,,,,,,,,,,,,,,146,D,circle,1,0,,,,,,,,,,,,,,,,switch,letter,lettSwt,j,0.9813,Lo,,,,,,2,,,,,,,,high,19,0,19,0,1,,,,,,,,,
298105,2022-11-15_12h13.24.255,vts_reward_expectancy_bt,2022.2.4,MacIntel,59.99880002,Chrome,1440,900,,,,,1,1077,,,,,,,,,,,,,,,,,181,U,circle,1,0,,,,,,,,,,,,,,,,repeat,letter,lettRpt,k,1.0978,Lo,,,,,,2,,,,,,,,high,20,0,20,0,1,,,,,,,,,
298105,2022-11-15_12h13.24.255,vts_reward_expectancy_bt,2022.2.4,MacIntel,59.99880002,Chrome,1440,900,,,,,1,1078,,,,,,,,,,,,,,,,,174,S,triangle,1,0,,,,,,,,,,,,,,,,switch,number,numSwt,f,0.6647,Lo,,,,,,2,,,,,,,,high,21,0,21,0,1,,,,,,,,,
298105,2022-11-15_12h13.24.255,vts_reward_expectancy_bt,2022.2.4,MacIntel,59.99880002,Chrome,1440,900,,,,,0,1078,,,,,,,,,,,,,,,,,125,Y,hexagon,1,0,,,,,,,,,,,,,,,,repeat,number,numRpt,d,0.8444,Hi,,,,,,2,,,,,,,,high,22,0,22,0,1,,,,,,,,,
298105,2022-11-15_12h13.24.255,vts_reward_expectancy_bt,2022.2.4,MacIntel,59.99880002,Chrome,1440,900,,,,,10,1088,,,,,,,,,,,,,,,,,167,W,star,1,0,,,,,,,,,,,,,,,,repeat,number,numRpt,f,0.619,Hi,,,,,,2,,,,,,,,high,23,0,23,0,1,,,,,,,,,
298105,2022-11-15_12h13.24.255,vts_reward_expectancy_bt,2022.2.4,MacIntel,59.99880002,Chrome,1440,900,,,,,1,1089,,,,,,,,,,,,,,,,,125,F,circle,1,0,,,,,,,,,,,,,,,,repeat,number,numRpt,d,0.5714,Lo,,,,,,2,,,,,,,,high,24,0,24,0,1,,,,,,,,,
298105,2022-11-15_12h13.24.255,vts_reward_expectancy_bt,2022.2.4,MacIntel,59.99880002,Chrome,1440,900,,,,,0,1089,,,,,,,,,,,,,,,,,181,H,star,1,0,,,,,,,,,,,,,,,,repeat,number,numRpt,f,0.6935,Hi,,,,,,2,,,,,,,,high,25,0,25,0,1,,,,,,,,,
298105,2022-11-15_12h13.24.255,vts_reward_expectancy_bt,2022.2.4,MacIntel,59.99880002,Chrome,1440,900,,,,,1,1090,,,,,,,,,,,,,,,,,174,U,triangle,1,0,,,,,,,,,,,,,,,,repeat,number,numRpt,f,0.6106,Lo,,,,,,2,,,,,,,,high,26,0,26,0,1,,,,,,,,,
298105,2022-11-15_12h13.24.255,vts_reward_expectancy_bt,2022.2.4,MacIntel,59.99880002,Chrome,1440,900,,,,,0,1090,,,,,,,,,,,,,,,,,167,B,hexagon,1,0,,,,,,,,,,,,,,,,repeat,number,numRpt,f,0.7115,Hi,,,,,,2,,,,,,,,high,27,0,27,0,1,,,,,,,,,
298105,2022-11-15_12h13.24.255,vts_reward_expectancy_bt,2022.2.4,MacIntel,59.99880002,Chrome,1440,900,,,,,0,1090,,,,,,,,,,,,,,,,,139,D,star,1,0,,,,,,,,,,,,,,,,repeat,number,numRpt,d,0.8632,Hi,,,,,,2,,,,,,,,high,28,0,28,0,1,,,,,,,,,
298105,2022-11-15_12h13.24.255,vts_reward_expectancy_bt,2022.2.4,MacIntel,59.99880002,Chrome,1440,900,,,,,1,1091,,,,,,,,,,,,,,,,,132,S,triangle,1,0,,,,,,,,,,,,,,,,repeat,number,numRpt,d,0.5437,Lo,,,,,,2,,,,,,,,high,29,0,29,0,1,,,,,,,,,
298105,2022-11-15_12h13.24.255,vts_reward_expectancy_bt,2022.2.4,MacIntel,59.99880002,Chrome,1440,900,,,,,1,1092,,,,,,,,,,,,,,,,,146,W,circle,1,0,,,,,,,,,,,,,,,,switch,letter,lettSwt,k,0.5109,Lo,,,,,,2,,,,,,,,high,30,0,30,0,1,,,,,,,,,
298105,2022-11-15_12h13.24.255,vts_reward_expectancy_bt,2022.2.4,MacIntel,59.99880002,Chrome,1440,900,,,,,10,1102,,,,,,,,,,,,,,,,,160,Y,hexagon,1,0,,,,,,,,,,,,,,,,repeat,letter,lettRpt,k,0.4809,Hi,,,,,,2,,,,,,,,high,31,0,31,0,1,,,,,,,,,
298105,2022-11-15_12h13.24.255,vts_reward_expectancy_bt,2022.2.4,MacIntel,59.99880002,Chrome,1440,900,,,,,1,1103,,,,,,,,,,,,,,,,,139,S,triangle,1,0,,,,,,,,,,,,,,,,switch,number,numSwt,d,0.86,Lo,,,,,,3,,,,,,space,0.9193,high,0,0,0,0,1,,,,,,,,,
298105,2022-11-15_12h13.24.255,vts_reward_expectancy_bt,2022.2.4,MacIntel,59.99880002,Chrome,1440,900,,,,,10,1113,,,,,,,,,,,,,,,,,132,D,star,1,0,,,,,,,,,,,,,,,,repeat,number,numRpt,d,0.4937,Hi,,,,,,3,,,,,,,,high,1,0,1,0,1,,,,,,,,,
298105,2022-11-15_12h13.24.255,vts_reward_expectancy_bt,2022.2.4,MacIntel,59.99880002,Chrome,1440,900,,,,,0,1113,,,,,,,,,,,,,,,,,181,U,hexagon,1,0,,,,,,,,,,,,,,,,switch,letter,lettSwt,k,0.6436,Hi,,,,,,3,,,,,,,,high,2,0,2,0,1,,,,,,,,,
298105,2022-11-15_12h13.24.255,vts_reward_expectancy_bt,2022.2.4,MacIntel,59.99880002,Chrome,1440,900,,,,,1,1114,,,,,,,,,,,,,,,,,160,Y,circle,1,0,,,,,,,,,,,,,,,,switch,number,numSwt,f,0.6146,Lo,,,,,,3,,,,,,,,high,3,0,3,0,1,,,,,,,,,
298105,2022-11-15_12h13.24.255,vts_reward_expectancy_bt,2022.2.4,MacIntel,59.99880002,Chrome,1440,900,,,,,1,1115,,,,,,,,,,,,,,,,,174,F,triangle,1,0,,,,,,,,,,,,,,,,repeat,number,numRpt,f,0.6188,Lo,,,,,,3,,,,,,,,high,4,0,4,0,1,,,,,,,,,
298105,2022-11-15_12h13.24.255,vts_reward_expectancy_bt,2022.2.4,MacIntel,59.99880002,Chrome,1440,900,,,,,10,1125,,,,,,,,,,,,,,,,,146,H,star,1,0,,,,,,,,,,,,,,,,repeat,number,numRpt,d,0.6164,Hi,,,,,,3,,,,,,,,high,5,0,5,0,1,,,,,,,,,
298105,2022-11-15_12h13.24.255,vts_reward_expectancy_bt,2022.2.4,MacIntel,59.99880002,Chrome,1440,900,,,,,1,1126,,,,,,,,,,,,,,,,,125,B,hexagon,1,0,,,,,,,,,,,,,,,,repeat,number,numRpt,d,0.5968,Hi,,,,,,3,,,,,,,,high,6,0,6,0,1,,,,,,,,,
298105,2022-11-15_12h13.24.255,vts_reward_expectancy_bt,2022.2.4,MacIntel,59.99880002,Chrome,1440,900,,,,,1,1127,,,,,,,,,,,,,,,,,167,W,circle,1,0,,,,,,,,,,,,,,,,repeat,number,numRpt,f,0.7258,Lo,,,,,,3,,,,,,,,high,7,0,7,0,1,,,,,,,,,
298105,2022-11-15_12h13.24.255,vts_reward_expectancy_bt,2022.2.4,MacIntel,59.99880002,Chrome,1440,900,,,,,1,1128,,,,,,,,,,,,,,,,,139,S,circle,1,0,,,,,,,,,,,,,,,,repeat,number,numRpt,d,0.8133,Lo,,,,,,3,,,,,,,,high,8,0,8,0,1,,,,,,,,,
298105,2022-11-15_12h13.24.255,vts_reward_expectancy_bt,2022.2.4,MacIntel,59.99880002,Chrome,1440,900,,,,,0,1128,,,,,,,,,,,,,,,,,132,D,hexagon,1,0,,,,,,,,,,,,,,,,repeat,number,numRpt,d,0.6303,Hi,,,,,,3,,,,,,,,high,9,0,9,0,1,,,,,,,,,
298105,2022-11-15_12h13.24.255,vts_reward_expectancy_bt,2022.2.4,MacIntel,59.99880002,Chrome,1440,900,,,,,0,1128,,,,,,,,,,,,,,,,,181,U,star,1,0,,,,,,,,,,,,,,,,repeat,number,numRpt,f,0.6449,Hi,,,,,,3,,,,,,,,high,10,0,10,0,1,,,,,,,,,
298105,2022-11-15_12h13.24.255,vts_reward_expectancy_bt,2022.2.4,MacIntel,59.99880002,Chrome,1440,900,,,,,1,1129,,,,,,,,,,,,,,,,,160,Y,triangle,1,0,,,,,,,,,,,,,,,,switch,letter,lettSwt,k,0.7685,Lo,,,,,,3,,,,,,,,high,11,0,11,0,1,,,,,,,,,
298105,2022-11-15_12h13.24.255,vts_reward_expectancy_bt,2022.2.4,MacIntel,59.99880002,Chrome,1440,900,,,,,1,1130,,,,,,,,,,,,,,,,,174,F,circle,1,0,,,,,,,,,,,,,,,,repeat,letter,lettRpt,j,0.7754,Lo,,,,,,3,,,,,,,,high,12,0,12,0,1,,,,,,,,,
298105,2022-11-15_12h13.24.255,vts_reward_expectancy_bt,2022.2.4,MacIntel,59.99880002,Chrome,1440,900,,,,,10,1140,,,,,,,,,,,,,,,,,146,H,triangle,1,0,,,,,,,,,,,,,,,,repeat,letter,lettRpt,j,0.6063,Lo,,,,,,3,,,,,,,,high,13,0,13,0,1,,,,,,,,,
298105,2022-11-15_12h13.24.255,vts_reward_expectancy_bt,2022.2.4,MacIntel,59.99880002,Chrome,1440,900,,,,,0,1140,,,,,,,,,,,,,,,,,125,B,star,1,0,,,,,,,,,,,,,,,,switch,number,numSwt,d,0.6937,Hi,,,,,,3,,,,,,,,high,14,0,14,0,1,,,,,,,,,
298105,2022-11-15_12h13.24.255,vts_reward_expectancy_bt,2022.2.4,MacIntel,59.99880002,Chrome,1440,900,,,,,0,1140,,,,,,,,,,,,,,,,,167,W,hexagon,1,0,,,,,,,,,,,,,,,,repeat,number,numRpt,f,0.8518,Hi,,,,,,3,,,,,,,,high,15,0,15,0,1,,,,,,,,,
298105,2022-11-15_12h13.24.255,vts_reward_expectancy_bt,2022.2.4,MacIntel,59.99880002,Chrome,1440,900,,,,,0,1140,,,,,,,,,,,,,,,,,125,W,hexagon,0,0,,,,,,,,,,,,,,,,switch,letter,NA,j,0.9503,Hi,,,,,,3,,,,,,,,high,16,0,16,0,1,,,,,,,,,
298105,2022-11-15_12h13.24.255,vts_reward_expectancy_bt,2022.2.4,MacIntel,59.99880002,Chrome,1440,900,,,,,10,1150,,,,,,,,,,,,,,,,,181,H,triangle,1,1,,,,,,,,,,,,,,,,repeat,letter,lettRpt,j,0.5469,Lo,,,,,,3,,,,,,,,high,17,0,17,0,1,,,,,,,,,
298105,2022-11-15_12h13.24.255,vts_reward_expectancy_bt,2022.2.4,MacIntel,59.99880002,Chrome,1440,900,,,,,10,1160,,,,,,,,,,,,,,,,,139,U,star,1,0,,,,,,,,,,,,,,,,repeat,letter,lettRpt,k,0.6012,Hi,,,,,,3,,,,,,,,high,18,0,18,0,1,,,,,,,,,
298105,2022-11-15_12h13.24.255,vts_reward_expectancy_bt,2022.2.4,MacIntel,59.99880002,Chrome,1440,900,,,,,10,1170,,,,,,,,,,,,,,,,,146,F,circle,1,0,,,,,,,,,,,,,,,,switch,number,numSwt,d,0.4778,Lo,,,,,,3,,,,,,,,high,19,0,19,0,1,,,,,,,,,
298105,2022-11-15_12h13.24.255,vts_reward_expectancy_bt,2022.2.4,MacIntel,59.99880002,Chrome,1440,900,,,,,0,1170,,,,,,,,,,,,,,,,,174,S,star,1,0,,,,,,,,,,,,,,,,repeat,number,numRpt,f,0.6809,Hi,,,,,,3,,,,,,,,high,20,0,20,0,1,,,,,,,,,
298105,2022-11-15_12h13.24.255,vts_reward_expectancy_bt,2022.2.4,MacIntel,59.99880002,Chrome,1440,900,,,,,0,1170,,,,,,,,,,,,,,,,,160,D,hexagon,1,0,,,,,,,,,,,,,,,,repeat,number,numRpt,f,0.6608,Hi,,,,,,3,,,,,,,,high,21,0,21,0,1,,,,,,,,,
298105,2022-11-15_12h13.24.255,vts_reward_expectancy_bt,2022.2.4,MacIntel,59.99880002,Chrome,1440,900,,,,,0,1170,,,,,,,,,,,,,,,,,132,Y,triangle,0,0,,,,,,,,,,,,,,,,repeat,number,NA,f,0.4725,Hi,,,,,,3,,,,,,,,high,22,0,22,0,1,,,,,,,,,
298105,2022-11-15_12h13.24.255,vts_reward_expectancy_bt,2022.2.4,MacIntel,59.99880002,Chrome,1440,900,,,,,1,1171,,,,,,,,,,,,,,,,,167,B,circle,1,1,,,,,,,,,,,,,,,,repeat,number,numRpt,f,0.6118,Lo,,,,,,3,,,,,,,,high,23,0,23,0,1,,,,,,,,,
298105,2022-11-15_12h13.24.255,vts_reward_expectancy_bt,2022.2.4,MacIntel,59.99880002,Chrome,1440,900,,,,,10,1181,,,,,,,,,,,,,,,,,181,B,star,1,0,,,,,,,,,,,,,,,,repeat,number,numRpt,f,0.4638,Hi,,,,,,3,,,,,,,,high,24,0,24,0,1,,,,,,,,,
298105,2022-11-15_12h13.24.255,vts_reward_expectancy_bt,2022.2.4,MacIntel,59.99880002,Chrome,1440,900,,,,,1,1182,,,,,,,,,,,,,,,,,139,U,circle,1,0,,,,,,,,,,,,,,,,switch,letter,lettSwt,k,0.6947,Lo,,,,,,3,,,,,,,,high,25,0,25,0,1,,,,,,,,,
298105,2022-11-15_12h13.24.255,vts_reward_expectancy_bt,2022.2.4,MacIntel,59.99880002,Chrome,1440,900,,,,,1,1183,,,,,,,,,,,,,,,,,174,F,triangle,1,0,,,,,,,,,,,,,,,,repeat,letter,lettRpt,j,1.0972,Lo,,,,,,3,,,,,,,,high,26,0,26,0,1,,,,,,,,,
298105,2022-11-15_12h13.24.255,vts_reward_expectancy_bt,2022.2.4,MacIntel,59.99880002,Chrome,1440,900,,,,,0,1183,,,,,,,,,,,,,,,,,146,H,hexagon,1,0,,,,,,,,,,,,,,,,repeat,letter,lettRpt,j,2.3482,Hi,,,,,,3,,,,,,,,high,27,0,27,0,1,,,,,,,,,
298105,2022-11-15_12h13.24.255,vts_reward_expectancy_bt,2022.2.4,MacIntel,59.99880002,Chrome,1440,900,,,,,1,1184,,,,,,,,,,,,,,,,,125,S,triangle,1,0,,,,,,,,,,,,,,,,repeat,letter,lettRpt,k,1.0665,Lo,,,,,,3,,,,,,,,high,28,0,28,0,1,,,,,,,,,
298105,2022-11-15_12h13.24.255,vts_reward_expectancy_bt,2022.2.4,MacIntel,59.99880002,Chrome,1440,900,,,,,0,1184,,,,,,,,,,,,,,,,,167,D,hexagon,1,0,,,,,,,,,,,,,,,,repeat,letter,lettRpt,j,0.9602,Hi,,,,,,3,,,,,,,,high,29,0,29,0,1,,,,,,,,,
298105,2022-11-15_12h13.24.255,vts_reward_expectancy_bt,2022.2.4,MacIntel,59.99880002,Chrome,1440,900,,,,,1,1185,,,,,,,,,,,,,,,,,132,W,circle,1,0,,,,,,,,,,,,,,,,repeat,letter,lettRpt,k,0.8272,Lo,,,,,,3,,,,,,,,high,30,0,30,0,1,,,,,,,,,
298105,2022-11-15_12h13.24.255,vts_reward_expectancy_bt,2022.2.4,MacIntel,59.99880002,Chrome,1440,900,,,,,0,1185,,,,,,,,,,,,,,,,,160,Y,star,1,0,,,,,,,,,,,,,,,,switch,number,numSwt,f,0.7488,Hi,,,,,,3,,,,,,,,high,31,0,31,0,1,,,,,,,,,
298105,2022-11-15_12h13.24.255,vts_reward_expectancy_bt,2022.2.4,MacIntel,59.99880002,Chrome,1440,900,,,,,1,1186,,,,,,,,,,,,,,,,,181,B,triangle,1,0,,,,,,,,,,,,,,,,repeat,number,numRpt,f,1.1271,Lo,,,,,,4,,,,,,space,0.8548,high,0,0,0,0,1,,,,,,,,,
