participant,date,expName,psychopyVersion,OS,frameRate,browser,xResolution,yResolution,key_resp.keys,key_resp.rt,training_resp.keys,training_resp.rt,points_trial,points_cumul,trainBlock,training.thisRepN,training.thisTrialN,training.thisN,training.thisIndex,training.ran,LTriangleOpac,LCircleOpac,LHexagonOpac,LStarOpac,RTriangleOpac,RCircleOpac,RHexagonOpac,RStarOpac,LShape_ID,RShape_ID,curr_topStim,curr_bottStim,curr_shape,acc,E1,target_resp_prac1.keys,target_resp_prac1.rt,pracBlock,task1_prac_trials.thisRepN,task1_prac_trials.thisTrialN,task1_prac_trials.thisN,task1_prac_trials.thisIndex,task1_prac_trials.ran,target_resp_prac2.keys,target_resp_prac2.rt,task2_praac_trials.thisRepN,task2_praac_trials.thisTrialN,task2_praac_trials.thisN,task2_praac_trials.thisIndex,task2_praac_trials.ran,alt,task,condition,target_resp.keys,target_resp.rt,rewCond,vts_practice_trials.thisRepN,vts_practice_trials.thisTrialN,vts_practice_trials.thisN,vts_practice_trials.thisIndex,vts_practice_trials.ran,blockNum,trials_norew.thisRepN,trials_norew.thisTrialN,trials_norew.thisN,trials_norew.thisIndex,trials_norew.ran,key_resp_2.keys,key_resp_2.rt,rewExpectancy,trials_rew.thisRepN,trials_rew.thisTrialN,trials_rew.thisN,trials_rew.thisIndex,trials_rew.ran,Q1,Q2,Q2_text,Q3,Q4,Q5_text,xRes,yRes
298120,2022-11-14_22h31.22.074,vts_reward_expectancy_bt,2022.2.4,Win32,119.8465964,Chrome,1600,1067,,,,,,,,,,,,,,,,,,,,,,,,,,,,,,,,,,,,,,,,,,,,,,,,,,,,,,,,,,,,,,,,,,,,,,,,,,,
298120,2022-11-14_22h31.22.074,vts_reward_expectancy_bt,2022.2.4,Win32,119.8465964,Chrome,1600,1067,space,24.5886,,,,,,,,,,,,,,,,,,,,,,,,,,,,,,,,,,,,,,,,,,,,,,,,,,,,,,,,,,,,,,,,,,,,,,,,,
298120,2022-11-14_22h31.22.074,vts_reward_expectancy_bt,2022.2.4,Win32,119.8465964,Chrome,1600,1067,,,,,,,,,,,,,,,,,,,,,,,,,,,,,,,,,,,,,,,,,,,,,,,,,,,,,,,,,,,,,,,,,,,,,,,,,,,
298120,2022-11-14_22h31.22.074,vts_reward_expectancy_bt,2022.2.4,Win32,119.8465964,Chrome,1600,1067,,,a,3.2505,10,10,0,0,0,0,6,1,0,0,1,0,1,0,0,0,hexagon,triangle,,,,,,,,,,,,,,,,,,,,,,,,,,,,,,,,,,,,,,,,,,,,,,,,,,,,,
298120,2022-11-14_22h31.22.074,vts_reward_expectancy_bt,2022.2.4,Win32,119.8465964,Chrome,1600,1067,,,l,1.8121,10,20,0,0,1,1,0,1,1,0,0,0,0,1,0,0,triangle,circle,,,,,,,,,,,,,,,,,,,,,,,,,,,,,,,,,,,,,,,,,,,,,,,,,,,,,
298120,2022-11-14_22h31.22.074,vts_reward_expectancy_bt,2022.2.4,Win32,119.8465964,Chrome,1600,1067,,,l,2.3013,10,30,0,0,2,2,9,1,0,0,0,1,1,0,0,0,star,triangle,,,,,,,,,,,,,,,,,,,,,,,,,,,,,,,,,,,,,,,,,,,,,,,,,,,,,
298120,2022-11-14_22h31.22.074,vts_reward_expectancy_bt,2022.2.4,Win32,119.8465964,Chrome,1600,1067,,,l,1.7426,1,31,0,0,3,3,1,1,1,0,0,0,0,0,1,0,triangle,hexagon,,,,,,,,,,,,,,,,,,,,,,,,,,,,,,,,,,,,,,,,,,,,,,,,,,,,,
298120,2022-11-14_22h31.22.074,vts_reward_expectancy_bt,2022.2.4,Win32,119.8465964,Chrome,1600,1067,,,a,1.6165,10,41,0,0,4,4,3,1,0,1,0,0,1,0,0,0,circle,triangle,,,,,,,,,,,,,,,,,,,,,,,,,,,,,,,,,,,,,,,,,,,,,,,,,,,,,
298120,2022-11-14_22h31.22.074,vts_reward_expectancy_bt,2022.2.4,Win32,119.8465964,Chrome,1600,1067,,,l,3.6087,10,51,0,0,5,5,7,1,0,0,1,0,0,1,0,0,hexagon,circle,,,,,,,,,,,,,,,,,,,,,,,,,,,,,,,,,,,,,,,,,,,,,,,,,,,,,
298120,2022-11-14_22h31.22.074,vts_reward_expectancy_bt,2022.2.4,Win32,119.8465964,Chrome,1600,1067,,,a,3.3746,1,52,0,0,6,6,4,1,0,1,0,0,0,0,1,0,circle,hexagon,,,,,,,,,,,,,,,,,,,,,,,,,,,,,,,,,,,,,,,,,,,,,,,,,,,,,
298120,2022-11-14_22h31.22.074,vts_reward_expectancy_bt,2022.2.4,Win32,119.8465964,Chrome,1600,1067,,,a,1.3569,1,53,0,0,7,7,10,1,0,0,0,1,0,1,0,0,star ,circle,,,,,,,,,,,,,,,,,,,,,,,,,,,,,,,,,,,,,,,,,,,,,,,,,,,,,
298120,2022-11-14_22h31.22.074,vts_reward_expectancy_bt,2022.2.4,Win32,119.8465964,Chrome,1600,1067,,,l,1.7687,10,63,0,0,8,8,2,1,1,0,0,0,0,0,0,1,triangle,star,,,,,,,,,,,,,,,,,,,,,,,,,,,,,,,,,,,,,,,,,,,,,,,,,,,,,
298120,2022-11-14_22h31.22.074,vts_reward_expectancy_bt,2022.2.4,Win32,119.8465964,Chrome,1600,1067,,,a,1.4182,10,73,0,0,9,9,8,1,0,0,1,0,0,0,0,1,hexagon,star,,,,,,,,,,,,,,,,,,,,,,,,,,,,,,,,,,,,,,,,,,,,,,,,,,,,,
298120,2022-11-14_22h31.22.074,vts_reward_expectancy_bt,2022.2.4,Win32,119.8465964,Chrome,1600,1067,,,l,3.1684,10,83,0,0,10,10,11,1,0,0,0,1,0,0,1,0,star,hexagon,,,,,,,,,,,,,,,,,,,,,,,,,,,,,,,,,,,,,,,,,,,,,,,,,,,,,
298120,2022-11-14_22h31.22.074,vts_reward_expectancy_bt,2022.2.4,Win32,119.8465964,Chrome,1600,1067,,,l,2.4165,10,93,0,0,11,11,5,1,0,1,0,0,0,0,0,1,circle,star,,,,,,,,,,,,,,,,,,,,,,,,,,,,,,,,,,,,,,,,,,,,,,,,,,,,,
298120,2022-11-14_22h31.22.074,vts_reward_expectancy_bt,2022.2.4,Win32,119.8465964,Chrome,1600,1067,,,a,1.9099,10,103,0,1,0,12,8,1,0,0,1,0,0,0,0,1,hexagon,star,,,,,,,,,,,,,,,,,,,,,,,,,,,,,,,,,,,,,,,,,,,,,,,,,,,,,
298120,2022-11-14_22h31.22.074,vts_reward_expectancy_bt,2022.2.4,Win32,119.8465964,Chrome,1600,1067,,,a,3.1109,1,104,0,1,1,13,1,1,1,0,0,0,0,0,1,0,triangle,hexagon,,,,,,,,,,,,,,,,,,,,,,,,,,,,,,,,,,,,,,,,,,,,,,,,,,,,,
298120,2022-11-14_22h31.22.074,vts_reward_expectancy_bt,2022.2.4,Win32,119.8465964,Chrome,1600,1067,,,l,1.0347,1,105,0,1,2,14,2,1,1,0,0,0,0,0,0,1,triangle,star,,,,,,,,,,,,,,,,,,,,,,,,,,,,,,,,,,,,,,,,,,,,,,,,,,,,,
298120,2022-11-14_22h31.22.074,vts_reward_expectancy_bt,2022.2.4,Win32,119.8465964,Chrome,1600,1067,,,a,1.9473,1,106,0,1,3,15,0,1,1,0,0,0,0,1,0,0,triangle,circle,,,,,,,,,,,,,,,,,,,,,,,,,,,,,,,,,,,,,,,,,,,,,,,,,,,,,
298120,2022-11-14_22h31.22.074,vts_reward_expectancy_bt,2022.2.4,Win32,119.8465964,Chrome,1600,1067,,,l,1.5991,1,107,0,1,4,16,11,1,0,0,0,1,0,0,1,0,star,hexagon,,,,,,,,,,,,,,,,,,,,,,,,,,,,,,,,,,,,,,,,,,,,,,,,,,,,,
298120,2022-11-14_22h31.22.074,vts_reward_expectancy_bt,2022.2.4,Win32,119.8465964,Chrome,1600,1067,,,a,1.4858,10,117,0,1,5,17,3,1,0,1,0,0,1,0,0,0,circle,triangle,,,,,,,,,,,,,,,,,,,,,,,,,,,,,,,,,,,,,,,,,,,,,,,,,,,,,
298120,2022-11-14_22h31.22.074,vts_reward_expectancy_bt,2022.2.4,Win32,119.8465964,Chrome,1600,1067,,,a,1.3509,1,118,0,1,6,18,4,1,0,1,0,0,0,0,1,0,circle,hexagon,,,,,,,,,,,,,,,,,,,,,,,,,,,,,,,,,,,,,,,,,,,,,,,,,,,,,
298120,2022-11-14_22h31.22.074,vts_reward_expectancy_bt,2022.2.4,Win32,119.8465964,Chrome,1600,1067,,,a,2.1705,1,119,0,1,7,19,9,1,0,0,0,1,1,0,0,0,star,triangle,,,,,,,,,,,,,,,,,,,,,,,,,,,,,,,,,,,,,,,,,,,,,,,,,,,,,
298120,2022-11-14_22h31.22.074,vts_reward_expectancy_bt,2022.2.4,Win32,119.8465964,Chrome,1600,1067,,,a,16.6844,10,129,0,1,8,20,6,1,0,0,1,0,1,0,0,0,hexagon,triangle,,,,,,,,,,,,,,,,,,,,,,,,,,,,,,,,,,,,,,,,,,,,,,,,,,,,,
298120,2022-11-14_22h31.22.074,vts_reward_expectancy_bt,2022.2.4,Win32,119.8465964,Chrome,1600,1067,,,l,1.1166,10,139,0,1,9,21,10,1,0,0,0,1,0,1,0,0,star ,circle,,,,,,,,,,,,,,,,,,,,,,,,,,,,,,,,,,,,,,,,,,,,,,,,,,,,,
298120,2022-11-14_22h31.22.074,vts_reward_expectancy_bt,2022.2.4,Win32,119.8465964,Chrome,1600,1067,,,l,1.4185,1,140,0,1,10,22,7,1,0,0,1,0,0,1,0,0,hexagon,circle,,,,,,,,,,,,,,,,,,,,,,,,,,,,,,,,,,,,,,,,,,,,,,,,,,,,,
298120,2022-11-14_22h31.22.074,vts_reward_expectancy_bt,2022.2.4,Win32,119.8465964,Chrome,1600,1067,,,l,1.6015,1,141,0,1,11,23,5,1,0,1,0,0,0,0,0,1,circle,star,,,,,,,,,,,,,,,,,,,,,,,,,,,,,,,,,,,,,,,,,,,,,,,,,,,,,
298120,2022-11-14_22h31.22.074,vts_reward_expectancy_bt,2022.2.4,Win32,119.8465964,Chrome,1600,1067,,,a,2.3942,10,151,0,2,0,24,6,1,0,0,1,0,1,0,0,0,hexagon,triangle,,,,,,,,,,,,,,,,,,,,,,,,,,,,,,,,,,,,,,,,,,,,,,,,,,,,,
298120,2022-11-14_22h31.22.074,vts_reward_expectancy_bt,2022.2.4,Win32,119.8465964,Chrome,1600,1067,,,a,0.6774,1,152,0,2,1,25,8,1,0,0,1,0,0,0,0,1,hexagon,star,,,,,,,,,,,,,,,,,,,,,,,,,,,,,,,,,,,,,,,,,,,,,,,,,,,,,
298120,2022-11-14_22h31.22.074,vts_reward_expectancy_bt,2022.2.4,Win32,119.8465964,Chrome,1600,1067,,,l,2.5924,1,153,0,2,2,26,9,1,0,0,0,1,1,0,0,0,star,triangle,,,,,,,,,,,,,,,,,,,,,,,,,,,,,,,,,,,,,,,,,,,,,,,,,,,,,
298120,2022-11-14_22h31.22.074,vts_reward_expectancy_bt,2022.2.4,Win32,119.8465964,Chrome,1600,1067,,,l,1.9928,1,154,0,2,3,27,10,1,0,0,0,1,0,1,0,0,star ,circle,,,,,,,,,,,,,,,,,,,,,,,,,,,,,,,,,,,,,,,,,,,,,,,,,,,,,
298120,2022-11-14_22h31.22.074,vts_reward_expectancy_bt,2022.2.4,Win32,119.8465964,Chrome,1600,1067,,,a,0.8344,10,164,0,2,4,28,0,1,1,0,0,0,0,1,0,0,triangle,circle,,,,,,,,,,,,,,,,,,,,,,,,,,,,,,,,,,,,,,,,,,,,,,,,,,,,,
298120,2022-11-14_22h31.22.074,vts_reward_expectancy_bt,2022.2.4,Win32,119.8465964,Chrome,1600,1067,,,a,0.8166,10,174,0,2,5,29,5,1,0,1,0,0,0,0,0,1,circle,star,,,,,,,,,,,,,,,,,,,,,,,,,,,,,,,,,,,,,,,,,,,,,,,,,,,,,
298120,2022-11-14_22h31.22.074,vts_reward_expectancy_bt,2022.2.4,Win32,119.8465964,Chrome,1600,1067,,,l,1.1344,10,184,0,2,6,30,1,1,1,0,0,0,0,0,1,0,triangle,hexagon,,,,,,,,,,,,,,,,,,,,,,,,,,,,,,,,,,,,,,,,,,,,,,,,,,,,,
298120,2022-11-14_22h31.22.074,vts_reward_expectancy_bt,2022.2.4,Win32,119.8465964,Chrome,1600,1067,,,l,1.4255,1,185,0,2,7,31,4,1,0,1,0,0,0,0,1,0,circle,hexagon,,,,,,,,,,,,,,,,,,,,,,,,,,,,,,,,,,,,,,,,,,,,,,,,,,,,,
298120,2022-11-14_22h31.22.074,vts_reward_expectancy_bt,2022.2.4,Win32,119.8465964,Chrome,1600,1067,,,l,1.4999,10,195,0,2,8,32,2,1,1,0,0,0,0,0,0,1,triangle,star,,,,,,,,,,,,,,,,,,,,,,,,,,,,,,,,,,,,,,,,,,,,,,,,,,,,,
298120,2022-11-14_22h31.22.074,vts_reward_expectancy_bt,2022.2.4,Win32,119.8465964,Chrome,1600,1067,,,a,21.8681,10,205,0,2,9,33,3,1,0,1,0,0,1,0,0,0,circle,triangle,,,,,,,,,,,,,,,,,,,,,,,,,,,,,,,,,,,,,,,,,,,,,,,,,,,,,
298120,2022-11-14_22h31.22.074,vts_reward_expectancy_bt,2022.2.4,Win32,119.8465964,Chrome,1600,1067,,,l,87.3504,1,206,0,2,10,34,11,1,0,0,0,1,0,0,1,0,star,hexagon,,,,,,,,,,,,,,,,,,,,,,,,,,,,,,,,,,,,,,,,,,,,,,,,,,,,,
298120,2022-11-14_22h31.22.074,vts_reward_expectancy_bt,2022.2.4,Win32,119.8465964,Chrome,1600,1067,,,a,0.891,1,207,0,2,11,35,7,1,0,0,1,0,0,1,0,0,hexagon,circle,,,,,,,,,,,,,,,,,,,,,,,,,,,,,,,,,,,,,,,,,,,,,,,,,,,,,
298120,2022-11-14_22h31.22.074,vts_reward_expectancy_bt,2022.2.4,Win32,119.8465964,Chrome,1600,1067,,,l,2.2519,10,217,1,0,0,0,1,1,1,0,0,0,0,0,1,0,triangle,hexagon,,,,,,,,,,,,,,,,,,,,,,,,,,,,,,,,,,,,,,,,,,,,,,,,,,,,,
298120,2022-11-14_22h31.22.074,vts_reward_expectancy_bt,2022.2.4,Win32,119.8465964,Chrome,1600,1067,,,a,1.3423,1,218,1,0,1,1,9,1,0,0,0,1,1,0,0,0,star,triangle,,,,,,,,,,,,,,,,,,,,,,,,,,,,,,,,,,,,,,,,,,,,,,,,,,,,,
298120,2022-11-14_22h31.22.074,vts_reward_expectancy_bt,2022.2.4,Win32,119.8465964,Chrome,1600,1067,,,a,1.2838,10,228,1,0,2,2,6,1,0,0,1,0,1,0,0,0,hexagon,triangle,,,,,,,,,,,,,,,,,,,,,,,,,,,,,,,,,,,,,,,,,,,,,,,,,,,,,
298120,2022-11-14_22h31.22.074,vts_reward_expectancy_bt,2022.2.4,Win32,119.8465964,Chrome,1600,1067,,,l,1.0257,10,238,1,0,3,3,11,1,0,0,0,1,0,0,1,0,star,hexagon,,,,,,,,,,,,,,,,,,,,,,,,,,,,,,,,,,,,,,,,,,,,,,,,,,,,,
298120,2022-11-14_22h31.22.074,vts_reward_expectancy_bt,2022.2.4,Win32,119.8465964,Chrome,1600,1067,,,a,0.9924,1,239,1,0,4,4,8,1,0,0,1,0,0,0,0,1,hexagon,star,,,,,,,,,,,,,,,,,,,,,,,,,,,,,,,,,,,,,,,,,,,,,,,,,,,,,
298120,2022-11-14_22h31.22.074,vts_reward_expectancy_bt,2022.2.4,Win32,119.8465964,Chrome,1600,1067,,,l,1.6004,10,249,1,0,5,5,7,1,0,0,1,0,0,1,0,0,hexagon,circle,,,,,,,,,,,,,,,,,,,,,,,,,,,,,,,,,,,,,,,,,,,,,,,,,,,,,
298120,2022-11-14_22h31.22.074,vts_reward_expectancy_bt,2022.2.4,Win32,119.8465964,Chrome,1600,1067,,,l,1.668,10,259,1,0,6,6,5,1,0,1,0,0,0,0,0,1,circle,star,,,,,,,,,,,,,,,,,,,,,,,,,,,,,,,,,,,,,,,,,,,,,,,,,,,,,
298120,2022-11-14_22h31.22.074,vts_reward_expectancy_bt,2022.2.4,Win32,119.8465964,Chrome,1600,1067,,,l,2.1569,10,269,1,0,7,7,4,1,0,1,0,0,0,0,1,0,circle,hexagon,,,,,,,,,,,,,,,,,,,,,,,,,,,,,,,,,,,,,,,,,,,,,,,,,,,,,
298120,2022-11-14_22h31.22.074,vts_reward_expectancy_bt,2022.2.4,Win32,119.8465964,Chrome,1600,1067,,,a,1.4346,1,270,1,0,8,8,3,1,0,1,0,0,1,0,0,0,circle,triangle,,,,,,,,,,,,,,,,,,,,,,,,,,,,,,,,,,,,,,,,,,,,,,,,,,,,,
298120,2022-11-14_22h31.22.074,vts_reward_expectancy_bt,2022.2.4,Win32,119.8465964,Chrome,1600,1067,,,l,4.0085,1,271,1,0,9,9,10,1,0,0,0,1,0,1,0,0,star ,circle,,,,,,,,,,,,,,,,,,,,,,,,,,,,,,,,,,,,,,,,,,,,,,,,,,,,,
298120,2022-11-14_22h31.22.074,vts_reward_expectancy_bt,2022.2.4,Win32,119.8465964,Chrome,1600,1067,,,l,0.8084,10,281,1,0,10,10,0,1,1,0,0,0,0,1,0,0,triangle,circle,,,,,,,,,,,,,,,,,,,,,,,,,,,,,,,,,,,,,,,,,,,,,,,,,,,,,
298120,2022-11-14_22h31.22.074,vts_reward_expectancy_bt,2022.2.4,Win32,119.8465964,Chrome,1600,1067,,,l,1.0103,1,282,1,0,11,11,2,1,1,0,0,0,0,0,0,1,triangle,star,,,,,,,,,,,,,,,,,,,,,,,,,,,,,,,,,,,,,,,,,,,,,,,,,,,,,
298120,2022-11-14_22h31.22.074,vts_reward_expectancy_bt,2022.2.4,Win32,119.8465964,Chrome,1600,1067,,,a,3.1446,1,283,1,1,0,12,2,1,1,0,0,0,0,0,0,1,triangle,star,,,,,,,,,,,,,,,,,,,,,,,,,,,,,,,,,,,,,,,,,,,,,,,,,,,,,
298120,2022-11-14_22h31.22.074,vts_reward_expectancy_bt,2022.2.4,Win32,119.8465964,Chrome,1600,1067,,,l,1.4932,1,284,1,1,1,13,5,1,0,1,0,0,0,0,0,1,circle,star,,,,,,,,,,,,,,,,,,,,,,,,,,,,,,,,,,,,,,,,,,,,,,,,,,,,,
298120,2022-11-14_22h31.22.074,vts_reward_expectancy_bt,2022.2.4,Win32,119.8465964,Chrome,1600,1067,,,l,0.8338,10,294,1,1,2,14,1,1,1,0,0,0,0,0,1,0,triangle,hexagon,,,,,,,,,,,,,,,,,,,,,,,,,,,,,,,,,,,,,,,,,,,,,,,,,,,,,
298120,2022-11-14_22h31.22.074,vts_reward_expectancy_bt,2022.2.4,Win32,119.8465964,Chrome,1600,1067,,,a,1.4928,1,295,1,1,3,15,8,1,0,0,1,0,0,0,0,1,hexagon,star,,,,,,,,,,,,,,,,,,,,,,,,,,,,,,,,,,,,,,,,,,,,,,,,,,,,,
298120,2022-11-14_22h31.22.074,vts_reward_expectancy_bt,2022.2.4,Win32,119.8465964,Chrome,1600,1067,,,l,3.4501,1,296,1,1,4,16,11,1,0,0,0,1,0,0,1,0,star,hexagon,,,,,,,,,,,,,,,,,,,,,,,,,,,,,,,,,,,,,,,,,,,,,,,,,,,,,
298120,2022-11-14_22h31.22.074,vts_reward_expectancy_bt,2022.2.4,Win32,119.8465964,Chrome,1600,1067,,,l,1.3697,1,297,1,1,5,17,6,1,0,0,1,0,1,0,0,0,hexagon,triangle,,,,,,,,,,,,,,,,,,,,,,,,,,,,,,,,,,,,,,,,,,,,,,,,,,,,,
298120,2022-11-14_22h31.22.074,vts_reward_expectancy_bt,2022.2.4,Win32,119.8465964,Chrome,1600,1067,,,l,1.0675,1,298,1,1,6,18,0,1,1,0,0,0,0,1,0,0,triangle,circle,,,,,,,,,,,,,,,,,,,,,,,,,,,,,,,,,,,,,,,,,,,,,,,,,,,,,
298120,2022-11-14_22h31.22.074,vts_reward_expectancy_bt,2022.2.4,Win32,119.8465964,Chrome,1600,1067,,,a,0.8029,10,308,1,1,7,19,7,1,0,0,1,0,0,1,0,0,hexagon,circle,,,,,,,,,,,,,,,,,,,,,,,,,,,,,,,,,,,,,,,,,,,,,,,,,,,,,
298120,2022-11-14_22h31.22.074,vts_reward_expectancy_bt,2022.2.4,Win32,119.8465964,Chrome,1600,1067,,,l,0.6402,1,309,1,1,8,20,4,1,0,1,0,0,0,0,1,0,circle,hexagon,,,,,,,,,,,,,,,,,,,,,,,,,,,,,,,,,,,,,,,,,,,,,,,,,,,,,
298120,2022-11-14_22h31.22.074,vts_reward_expectancy_bt,2022.2.4,Win32,119.8465964,Chrome,1600,1067,,,a,1.109,1,310,1,1,9,21,10,1,0,0,0,1,0,1,0,0,star ,circle,,,,,,,,,,,,,,,,,,,,,,,,,,,,,,,,,,,,,,,,,,,,,,,,,,,,,
298120,2022-11-14_22h31.22.074,vts_reward_expectancy_bt,2022.2.4,Win32,119.8465964,Chrome,1600,1067,,,l,1.6102,1,311,1,1,10,22,9,1,0,0,0,1,1,0,0,0,star,triangle,,,,,,,,,,,,,,,,,,,,,,,,,,,,,,,,,,,,,,,,,,,,,,,,,,,,,
298120,2022-11-14_22h31.22.074,vts_reward_expectancy_bt,2022.2.4,Win32,119.8465964,Chrome,1600,1067,,,a,0.8995,10,321,1,1,11,23,3,1,0,1,0,0,1,0,0,0,circle,triangle,,,,,,,,,,,,,,,,,,,,,,,,,,,,,,,,,,,,,,,,,,,,,,,,,,,,,
298120,2022-11-14_22h31.22.074,vts_reward_expectancy_bt,2022.2.4,Win32,119.8465964,Chrome,1600,1067,,,l,0.7086,1,322,1,2,0,24,1,1,1,0,0,0,0,0,1,0,triangle,hexagon,,,,,,,,,,,,,,,,,,,,,,,,,,,,,,,,,,,,,,,,,,,,,,,,,,,,,
298120,2022-11-14_22h31.22.074,vts_reward_expectancy_bt,2022.2.4,Win32,119.8465964,Chrome,1600,1067,,,a,0.7212,10,332,1,2,1,25,4,1,0,1,0,0,0,0,1,0,circle,hexagon,,,,,,,,,,,,,,,,,,,,,,,,,,,,,,,,,,,,,,,,,,,,,,,,,,,,,
298120,2022-11-14_22h31.22.074,vts_reward_expectancy_bt,2022.2.4,Win32,119.8465964,Chrome,1600,1067,,,a,1.2342,1,333,1,2,2,26,0,1,1,0,0,0,0,1,0,0,triangle,circle,,,,,,,,,,,,,,,,,,,,,,,,,,,,,,,,,,,,,,,,,,,,,,,,,,,,,
298120,2022-11-14_22h31.22.074,vts_reward_expectancy_bt,2022.2.4,Win32,119.8465964,Chrome,1600,1067,,,a,0.6993,10,343,1,2,3,27,3,1,0,1,0,0,1,0,0,0,circle,triangle,,,,,,,,,,,,,,,,,,,,,,,,,,,,,,,,,,,,,,,,,,,,,,,,,,,,,
298120,2022-11-14_22h31.22.074,vts_reward_expectancy_bt,2022.2.4,Win32,119.8465964,Chrome,1600,1067,,,a,1.5261,10,353,1,2,4,28,8,1,0,0,1,0,0,0,0,1,hexagon,star,,,,,,,,,,,,,,,,,,,,,,,,,,,,,,,,,,,,,,,,,,,,,,,,,,,,,
298120,2022-11-14_22h31.22.074,vts_reward_expectancy_bt,2022.2.4,Win32,119.8465964,Chrome,1600,1067,,,a,1.558,10,363,1,2,5,29,11,1,0,0,0,1,0,0,1,0,star,hexagon,,,,,,,,,,,,,,,,,,,,,,,,,,,,,,,,,,,,,,,,,,,,,,,,,,,,,
298120,2022-11-14_22h31.22.074,vts_reward_expectancy_bt,2022.2.4,Win32,119.8465964,Chrome,1600,1067,,,a,4.0172,10,373,1,2,6,30,7,1,0,0,1,0,0,1,0,0,hexagon,circle,,,,,,,,,,,,,,,,,,,,,,,,,,,,,,,,,,,,,,,,,,,,,,,,,,,,,
298120,2022-11-14_22h31.22.074,vts_reward_expectancy_bt,2022.2.4,Win32,119.8465964,Chrome,1600,1067,,,l,0.9417,1,374,1,2,7,31,9,1,0,0,0,1,1,0,0,0,star,triangle,,,,,,,,,,,,,,,,,,,,,,,,,,,,,,,,,,,,,,,,,,,,,,,,,,,,,
298120,2022-11-14_22h31.22.074,vts_reward_expectancy_bt,2022.2.4,Win32,119.8465964,Chrome,1600,1067,,,l,1.609,1,375,1,2,8,32,10,1,0,0,0,1,0,1,0,0,star ,circle,,,,,,,,,,,,,,,,,,,,,,,,,,,,,,,,,,,,,,,,,,,,,,,,,,,,,
298120,2022-11-14_22h31.22.074,vts_reward_expectancy_bt,2022.2.4,Win32,119.8465964,Chrome,1600,1067,,,a,1.5015,10,385,1,2,9,33,5,1,0,1,0,0,0,0,0,1,circle,star,,,,,,,,,,,,,,,,,,,,,,,,,,,,,,,,,,,,,,,,,,,,,,,,,,,,,
298120,2022-11-14_22h31.22.074,vts_reward_expectancy_bt,2022.2.4,Win32,119.8465964,Chrome,1600,1067,,,l,1.6214,10,395,1,2,10,34,6,1,0,0,1,0,1,0,0,0,hexagon,triangle,,,,,,,,,,,,,,,,,,,,,,,,,,,,,,,,,,,,,,,,,,,,,,,,,,,,,
298120,2022-11-14_22h31.22.074,vts_reward_expectancy_bt,2022.2.4,Win32,119.8465964,Chrome,1600,1067,,,l,2.3093,10,405,1,2,11,35,2,1,1,0,0,0,0,0,0,1,triangle,star,,,,,,,,,,,,,,,,,,,,,,,,,,,,,,,,,,,,,,,,,,,,,,,,,,,,,
298120,2022-11-14_22h31.22.074,vts_reward_expectancy_bt,2022.2.4,Win32,119.8465964,Chrome,1600,1067,,,l,1.9608,10,415,2,0,0,0,1,1,1,0,0,0,0,0,1,0,triangle,hexagon,,,,,,,,,,,,,,,,,,,,,,,,,,,,,,,,,,,,,,,,,,,,,,,,,,,,,
298120,2022-11-14_22h31.22.074,vts_reward_expectancy_bt,2022.2.4,Win32,119.8465964,Chrome,1600,1067,,,a,1.3603,1,416,2,0,1,1,9,1,0,0,0,1,1,0,0,0,star,triangle,,,,,,,,,,,,,,,,,,,,,,,,,,,,,,,,,,,,,,,,,,,,,,,,,,,,,
298120,2022-11-14_22h31.22.074,vts_reward_expectancy_bt,2022.2.4,Win32,119.8465964,Chrome,1600,1067,,,a,1.5016,1,417,2,0,2,2,6,1,0,0,1,0,1,0,0,0,hexagon,triangle,,,,,,,,,,,,,,,,,,,,,,,,,,,,,,,,,,,,,,,,,,,,,,,,,,,,,
298120,2022-11-14_22h31.22.074,vts_reward_expectancy_bt,2022.2.4,Win32,119.8465964,Chrome,1600,1067,,,l,0.9336,10,427,2,0,3,3,7,1,0,0,1,0,0,1,0,0,hexagon,circle,,,,,,,,,,,,,,,,,,,,,,,,,,,,,,,,,,,,,,,,,,,,,,,,,,,,,
298120,2022-11-14_22h31.22.074,vts_reward_expectancy_bt,2022.2.4,Win32,119.8465964,Chrome,1600,1067,,,a,1.375,1,428,2,0,4,4,8,1,0,0,1,0,0,0,0,1,hexagon,star,,,,,,,,,,,,,,,,,,,,,,,,,,,,,,,,,,,,,,,,,,,,,,,,,,,,,
298120,2022-11-14_22h31.22.074,vts_reward_expectancy_bt,2022.2.4,Win32,119.8465964,Chrome,1600,1067,,,a,1.525,1,429,2,0,5,5,5,1,0,1,0,0,0,0,0,1,circle,star,,,,,,,,,,,,,,,,,,,,,,,,,,,,,,,,,,,,,,,,,,,,,,,,,,,,,
298120,2022-11-14_22h31.22.074,vts_reward_expectancy_bt,2022.2.4,Win32,119.8465964,Chrome,1600,1067,,,a,1.8256,1,430,2,0,6,6,0,1,1,0,0,0,0,1,0,0,triangle,circle,,,,,,,,,,,,,,,,,,,,,,,,,,,,,,,,,,,,,,,,,,,,,,,,,,,,,
298120,2022-11-14_22h31.22.074,vts_reward_expectancy_bt,2022.2.4,Win32,119.8465964,Chrome,1600,1067,,,l,1.3158,10,440,2,0,7,7,11,1,0,0,0,1,0,0,1,0,star,hexagon,,,,,,,,,,,,,,,,,,,,,,,,,,,,,,,,,,,,,,,,,,,,,,,,,,,,,
298120,2022-11-14_22h31.22.074,vts_reward_expectancy_bt,2022.2.4,Win32,119.8465964,Chrome,1600,1067,,,a,1.5173,10,450,2,0,8,8,3,1,0,1,0,0,1,0,0,0,circle,triangle,,,,,,,,,,,,,,,,,,,,,,,,,,,,,,,,,,,,,,,,,,,,,,,,,,,,,
298120,2022-11-14_22h31.22.074,vts_reward_expectancy_bt,2022.2.4,Win32,119.8465964,Chrome,1600,1067,,,l,2.2515,10,460,2,0,9,9,2,1,1,0,0,0,0,0,0,1,triangle,star,,,,,,,,,,,,,,,,,,,,,,,,,,,,,,,,,,,,,,,,,,,,,,,,,,,,,
298120,2022-11-14_22h31.22.074,vts_reward_expectancy_bt,2022.2.4,Win32,119.8465964,Chrome,1600,1067,,,l,3.0746,1,461,2,0,10,10,4,1,0,1,0,0,0,0,1,0,circle,hexagon,,,,,,,,,,,,,,,,,,,,,,,,,,,,,,,,,,,,,,,,,,,,,,,,,,,,,
298120,2022-11-14_22h31.22.074,vts_reward_expectancy_bt,2022.2.4,Win32,119.8465964,Chrome,1600,1067,,,a,2.1237,1,462,2,0,11,11,10,1,0,0,0,1,0,1,0,0,star ,circle,,,,,,,,,,,,,,,,,,,,,,,,,,,,,,,,,,,,,,,,,,,,,,,,,,,,,
298120,2022-11-14_22h31.22.074,vts_reward_expectancy_bt,2022.2.4,Win32,119.8465964,Chrome,1600,1067,,,l,1.0861,10,472,2,1,0,12,5,1,0,1,0,0,0,0,0,1,circle,star,,,,,,,,,,,,,,,,,,,,,,,,,,,,,,,,,,,,,,,,,,,,,,,,,,,,,
298120,2022-11-14_22h31.22.074,vts_reward_expectancy_bt,2022.2.4,Win32,119.8465964,Chrome,1600,1067,,,l,2.4087,1,473,2,1,1,13,6,1,0,0,1,0,1,0,0,0,hexagon,triangle,,,,,,,,,,,,,,,,,,,,,,,,,,,,,,,,,,,,,,,,,,,,,,,,,,,,,
298120,2022-11-14_22h31.22.074,vts_reward_expectancy_bt,2022.2.4,Win32,119.8465964,Chrome,1600,1067,,,l,1.1075,1,474,2,1,2,14,0,1,1,0,0,0,0,1,0,0,triangle,circle,,,,,,,,,,,,,,,,,,,,,,,,,,,,,,,,,,,,,,,,,,,,,,,,,,,,,
298120,2022-11-14_22h31.22.074,vts_reward_expectancy_bt,2022.2.4,Win32,119.8465964,Chrome,1600,1067,,,a,1.2674,1,475,2,1,3,15,11,1,0,0,0,1,0,0,1,0,star,hexagon,,,,,,,,,,,,,,,,,,,,,,,,,,,,,,,,,,,,,,,,,,,,,,,,,,,,,
298120,2022-11-14_22h31.22.074,vts_reward_expectancy_bt,2022.2.4,Win32,119.8465964,Chrome,1600,1067,,,l,1.1942,10,485,2,1,4,16,9,1,0,0,0,1,1,0,0,0,star,triangle,,,,,,,,,,,,,,,,,,,,,,,,,,,,,,,,,,,,,,,,,,,,,,,,,,,,,
298120,2022-11-14_22h31.22.074,vts_reward_expectancy_bt,2022.2.4,Win32,119.8465964,Chrome,1600,1067,,,a,1.9511,10,495,2,1,5,17,2,1,1,0,0,0,0,0,0,1,triangle,star,,,,,,,,,,,,,,,,,,,,,,,,,,,,,,,,,,,,,,,,,,,,,,,,,,,,,
298120,2022-11-14_22h31.22.074,vts_reward_expectancy_bt,2022.2.4,Win32,119.8465964,Chrome,1600,1067,,,a,2.5074,10,505,2,1,6,18,10,1,0,0,0,1,0,1,0,0,star ,circle,,,,,,,,,,,,,,,,,,,,,,,,,,,,,,,,,,,,,,,,,,,,,,,,,,,,,
298120,2022-11-14_22h31.22.074,vts_reward_expectancy_bt,2022.2.4,Win32,119.8465964,Chrome,1600,1067,,,l,1.3722,1,506,2,1,7,19,8,1,0,0,1,0,0,0,0,1,hexagon,star,,,,,,,,,,,,,,,,,,,,,,,,,,,,,,,,,,,,,,,,,,,,,,,,,,,,,
298120,2022-11-14_22h31.22.074,vts_reward_expectancy_bt,2022.2.4,Win32,119.8465964,Chrome,1600,1067,,,a,1.2001,1,507,2,1,8,20,3,1,0,1,0,0,1,0,0,0,circle,triangle,,,,,,,,,,,,,,,,,,,,,,,,,,,,,,,,,,,,,,,,,,,,,,,,,,,,,
298120,2022-11-14_22h31.22.074,vts_reward_expectancy_bt,2022.2.4,Win32,119.8465964,Chrome,1600,1067,,,a,0.8512,1,508,2,1,9,21,1,1,1,0,0,0,0,0,1,0,triangle,hexagon,,,,,,,,,,,,,,,,,,,,,,,,,,,,,,,,,,,,,,,,,,,,,,,,,,,,,
298120,2022-11-14_22h31.22.074,vts_reward_expectancy_bt,2022.2.4,Win32,119.8465964,Chrome,1600,1067,,,l,1.7322,10,518,2,1,10,22,7,1,0,0,1,0,0,1,0,0,hexagon,circle,,,,,,,,,,,,,,,,,,,,,,,,,,,,,,,,,,,,,,,,,,,,,,,,,,,,,
298120,2022-11-14_22h31.22.074,vts_reward_expectancy_bt,2022.2.4,Win32,119.8465964,Chrome,1600,1067,,,a,1.2596,10,528,2,1,11,23,4,1,0,1,0,0,0,0,1,0,circle,hexagon,,,,,,,,,,,,,,,,,,,,,,,,,,,,,,,,,,,,,,,,,,,,,,,,,,,,,
298120,2022-11-14_22h31.22.074,vts_reward_expectancy_bt,2022.2.4,Win32,119.8465964,Chrome,1600,1067,,,l,1.3328,10,538,2,2,0,24,7,1,0,0,1,0,0,1,0,0,hexagon,circle,,,,,,,,,,,,,,,,,,,,,,,,,,,,,,,,,,,,,,,,,,,,,,,,,,,,,
298120,2022-11-14_22h31.22.074,vts_reward_expectancy_bt,2022.2.4,Win32,119.8465964,Chrome,1600,1067,,,a,1.3922,10,548,2,2,1,25,1,1,1,0,0,0,0,0,1,0,triangle,hexagon,,,,,,,,,,,,,,,,,,,,,,,,,,,,,,,,,,,,,,,,,,,,,,,,,,,,,
298120,2022-11-14_22h31.22.074,vts_reward_expectancy_bt,2022.2.4,Win32,119.8465964,Chrome,1600,1067,,,l,3.6271,1,549,2,2,2,26,5,1,0,1,0,0,0,0,0,1,circle,star,,,,,,,,,,,,,,,,,,,,,,,,,,,,,,,,,,,,,,,,,,,,,,,,,,,,,
298120,2022-11-14_22h31.22.074,vts_reward_expectancy_bt,2022.2.4,Win32,119.8465964,Chrome,1600,1067,,,a,0.751,1,550,2,2,3,27,10,1,0,0,0,1,0,1,0,0,star ,circle,,,,,,,,,,,,,,,,,,,,,,,,,,,,,,,,,,,,,,,,,,,,,,,,,,,,,
298120,2022-11-14_22h31.22.074,vts_reward_expectancy_bt,2022.2.4,Win32,119.8465964,Chrome,1600,1067,,,l,1.0755,1,551,2,2,4,28,2,1,1,0,0,0,0,0,0,1,triangle,star,,,,,,,,,,,,,,,,,,,,,,,,,,,,,,,,,,,,,,,,,,,,,,,,,,,,,
298120,2022-11-14_22h31.22.074,vts_reward_expectancy_bt,2022.2.4,Win32,119.8465964,Chrome,1600,1067,,,a,1.5526,10,561,2,2,5,29,8,1,0,0,1,0,0,0,0,1,hexagon,star,,,,,,,,,,,,,,,,,,,,,,,,,,,,,,,,,,,,,,,,,,,,,,,,,,,,,
298120,2022-11-14_22h31.22.074,vts_reward_expectancy_bt,2022.2.4,Win32,119.8465964,Chrome,1600,1067,,,l,1.1679,10,571,2,2,6,30,11,1,0,0,0,1,0,0,1,0,star,hexagon,,,,,,,,,,,,,,,,,,,,,,,,,,,,,,,,,,,,,,,,,,,,,,,,,,,,,
298120,2022-11-14_22h31.22.074,vts_reward_expectancy_bt,2022.2.4,Win32,119.8465964,Chrome,1600,1067,,,a,2.3263,10,581,2,2,7,31,0,1,1,0,0,0,0,1,0,0,triangle,circle,,,,,,,,,,,,,,,,,,,,,,,,,,,,,,,,,,,,,,,,,,,,,,,,,,,,,
298120,2022-11-14_22h31.22.074,vts_reward_expectancy_bt,2022.2.4,Win32,119.8465964,Chrome,1600,1067,,,l,1.2422,10,591,2,2,8,32,4,1,0,1,0,0,0,0,1,0,circle,hexagon,,,,,,,,,,,,,,,,,,,,,,,,,,,,,,,,,,,,,,,,,,,,,,,,,,,,,
298120,2022-11-14_22h31.22.074,vts_reward_expectancy_bt,2022.2.4,Win32,119.8465964,Chrome,1600,1067,,,l,2.8173,1,592,2,2,9,33,3,1,0,1,0,0,1,0,0,0,circle,triangle,,,,,,,,,,,,,,,,,,,,,,,,,,,,,,,,,,,,,,,,,,,,,,,,,,,,,
298120,2022-11-14_22h31.22.074,vts_reward_expectancy_bt,2022.2.4,Win32,119.8465964,Chrome,1600,1067,,,a,1.2353,10,602,2,2,10,34,9,1,0,0,0,1,1,0,0,0,star,triangle,,,,,,,,,,,,,,,,,,,,,,,,,,,,,,,,,,,,,,,,,,,,,,,,,,,,,
298120,2022-11-14_22h31.22.074,vts_reward_expectancy_bt,2022.2.4,Win32,119.8465964,Chrome,1600,1067,,,l,2.7844,10,612,2,2,11,35,6,1,0,0,1,0,1,0,0,0,hexagon,triangle,,,,,,,,,,,,,,,,,,,,,,,,,,,,,,,,,,,,,,,,,,,,,,,,,,,,,
298120,2022-11-14_22h31.22.074,vts_reward_expectancy_bt,2022.2.4,Win32,119.8465964,Chrome,1600,1067,,,,,,,,,,,,,,,,,,,,,,,U,132,circle,1,0,f,0.8688,0,0,0,0,0,1,,,,,,,,,,,,,,,,,,,,,,,,,,,,,,,,,,,,,,,,
298120,2022-11-14_22h31.22.074,vts_reward_expectancy_bt,2022.2.4,Win32,119.8465964,Chrome,1600,1067,,,,,,,,,,,,,,,,,,,,,,,B,181,hexagon,1,0,d,0.5337,0,1,0,1,0,1,,,,,,,,,,,,,,,,,,,,,,,,,,,,,,,,,,,,,,,,
298120,2022-11-14_22h31.22.074,vts_reward_expectancy_bt,2022.2.4,Win32,119.8465964,Chrome,1600,1067,,,,,,,,,,,,,,,,,,,,,,,H,167,star,1,0,d,0.8168,0,2,0,2,0,1,,,,,,,,,,,,,,,,,,,,,,,,,,,,,,,,,,,,,,,,
298120,2022-11-14_22h31.22.074,vts_reward_expectancy_bt,2022.2.4,Win32,119.8465964,Chrome,1600,1067,,,,,,,,,,,,,,,,,,,,,,,F,160,triangle,1,0,d,0.6996,0,3,0,3,0,1,,,,,,,,,,,,,,,,,,,,,,,,,,,,,,,,,,,,,,,,
298120,2022-11-14_22h31.22.074,vts_reward_expectancy_bt,2022.2.4,Win32,119.8465964,Chrome,1600,1067,,,,,,,,,,,,,,,,,,,,,,,Y,146,circle,1,0,f,0.4886,0,4,0,4,0,1,,,,,,,,,,,,,,,,,,,,,,,,,,,,,,,,,,,,,,,,
298120,2022-11-14_22h31.22.074,vts_reward_expectancy_bt,2022.2.4,Win32,119.8465964,Chrome,1600,1067,,,,,,,,,,,,,,,,,,,,,,,S,125,hexagon,1,0,f,0.7422,0,5,0,5,0,1,,,,,,,,,,,,,,,,,,,,,,,,,,,,,,,,,,,,,,,,
298120,2022-11-14_22h31.22.074,vts_reward_expectancy_bt,2022.2.4,Win32,119.8465964,Chrome,1600,1067,,,,,,,,,,,,,,,,,,,,,,,W,139,star,1,0,f,0.6806,0,6,0,6,0,1,,,,,,,,,,,,,,,,,,,,,,,,,,,,,,,,,,,,,,,,
298120,2022-11-14_22h31.22.074,vts_reward_expectancy_bt,2022.2.4,Win32,119.8465964,Chrome,1600,1067,,,,,,,,,,,,,,,,,,,,,,,D,174,triangle,1,0,d,0.9401,0,7,0,7,0,1,,,,,,,,,,,,,,,,,,,,,,,,,,,,,,,,,,,,,,,,
298120,2022-11-14_22h31.22.074,vts_reward_expectancy_bt,2022.2.4,Win32,119.8465964,Chrome,1600,1067,,,,,,,,,,,,,,,,,,,,,,,U,132,star,1,0,f,0.6178,0,8,0,8,0,1,,,,,,,,,,,,,,,,,,,,,,,,,,,,,,,,,,,,,,,,
298120,2022-11-14_22h31.22.074,vts_reward_expectancy_bt,2022.2.4,Win32,119.8465964,Chrome,1600,1067,,,,,,,,,,,,,,,,,,,,,,,B,181,hexagon,1,0,d,0.5308,0,9,0,9,0,1,,,,,,,,,,,,,,,,,,,,,,,,,,,,,,,,,,,,,,,,
298120,2022-11-14_22h31.22.074,vts_reward_expectancy_bt,2022.2.4,Win32,119.8465964,Chrome,1600,1067,,,,,,,,,,,,,,,,,,,,,,,D,146,star,1,0,,,1,,,,,,j,0.7236,0,0,0,0,1,,,,,,,,,,,,,,,,,,,,,,,,,,,,,,,,,
298120,2022-11-14_22h31.22.074,vts_reward_expectancy_bt,2022.2.4,Win32,119.8465964,Chrome,1600,1067,,,,,,,,,,,,,,,,,,,,,,,U,160,hexagon,1,0,,,1,,,,,,k,1.6184,1,0,1,0,1,,,,,,,,,,,,,,,,,,,,,,,,,,,,,,,,,
298120,2022-11-14_22h31.22.074,vts_reward_expectancy_bt,2022.2.4,Win32,119.8465964,Chrome,1600,1067,,,,,,,,,,,,,,,,,,,,,,,Y,181,triangle,1,0,,,1,,,,,,k,0.5096,2,0,2,0,1,,,,,,,,,,,,,,,,,,,,,,,,,,,,,,,,,
298120,2022-11-14_22h31.22.074,vts_reward_expectancy_bt,2022.2.4,Win32,119.8465964,Chrome,1600,1067,,,,,,,,,,,,,,,,,,,,,,,F,125,circle,1,0,,,1,,,,,,j,0.5072,3,0,3,0,1,,,,,,,,,,,,,,,,,,,,,,,,,,,,,,,,,
298120,2022-11-14_22h31.22.074,vts_reward_expectancy_bt,2022.2.4,Win32,119.8465964,Chrome,1600,1067,,,,,,,,,,,,,,,,,,,,,,,B,132,star,1,0,,,1,,,,,,j,0.9639,4,0,4,0,1,,,,,,,,,,,,,,,,,,,,,,,,,,,,,,,,,
298120,2022-11-14_22h31.22.074,vts_reward_expectancy_bt,2022.2.4,Win32,119.8465964,Chrome,1600,1067,,,,,,,,,,,,,,,,,,,,,,,H,167,hexagon,1,0,,,1,,,,,,k,0.7123,5,0,5,0,1,,,,,,,,,,,,,,,,,,,,,,,,,,,,,,,,,
298120,2022-11-14_22h31.22.074,vts_reward_expectancy_bt,2022.2.4,Win32,119.8465964,Chrome,1600,1067,,,,,,,,,,,,,,,,,,,,,,,W,174,triangle,1,0,,,1,,,,,,k,0.4899,6,0,6,0,1,,,,,,,,,,,,,,,,,,,,,,,,,,,,,,,,,
298120,2022-11-14_22h31.22.074,vts_reward_expectancy_bt,2022.2.4,Win32,119.8465964,Chrome,1600,1067,,,,,,,,,,,,,,,,,,,,,,,S,139,circle,1,0,,,1,,,,,,j,1.1227,7,0,7,0,1,,,,,,,,,,,,,,,,,,,,,,,,,,,,,,,,,
298120,2022-11-14_22h31.22.074,vts_reward_expectancy_bt,2022.2.4,Win32,119.8465964,Chrome,1600,1067,,,,,,,,,,,,,,,,,,,,,,,D,146,hexagon,1,0,,,1,,,,,,j,0.9228,8,0,8,0,1,,,,,,,,,,,,,,,,,,,,,,,,,,,,,,,,,
298120,2022-11-14_22h31.22.074,vts_reward_expectancy_bt,2022.2.4,Win32,119.8465964,Chrome,1600,1067,,,,,,,,,,,,,,,,,,,,,,,U,160,circle,1,0,,,1,,,,,,k,0.4921,9,0,9,0,1,,,,,,,,,,,,,,,,,,,,,,,,,,,,,,,,,
298120,2022-11-14_22h31.22.074,vts_reward_expectancy_bt,2022.2.4,Win32,119.8465964,Chrome,1600,1067,,,,,0,612,,,,,,,,,,,,,,,,,F,181,hexagon,1,0,,,2,,,,,,,,,,,,,-1,letter,NA,d,1.1106,vtsPrac,0,0,0,0,1,,,,,,,,,,,,,,,,,,,,,,
298120,2022-11-14_22h31.22.074,vts_reward_expectancy_bt,2022.2.4,Win32,119.8465964,Chrome,1600,1067,,,,,0,612,,,,,,,,,,,,,,,,,D,139,star,1,0,,,2,,,,,,,,,,,,,repeat,letter,lettRpt,d,1.7478,vtsPrac,1,0,1,0,1,,,,,,,,,,,,,,,,,,,,,,
298120,2022-11-14_22h31.22.074,vts_reward_expectancy_bt,2022.2.4,Win32,119.8465964,Chrome,1600,1067,,,,,0,612,,,,,,,,,,,,,,,,,B,160,hexagon,1,0,,,2,,,,,,,,,,,,,repeat,letter,lettRpt,d,0.8599,vtsPrac,2,0,2,0,1,,,,,,,,,,,,,,,,,,,,,,
298120,2022-11-14_22h31.22.074,vts_reward_expectancy_bt,2022.2.4,Win32,119.8465964,Chrome,1600,1067,,,,,0,612,,,,,,,,,,,,,,,,,U,146,star,1,0,,,2,,,,,,,,,,,,,switch,number,numSwt,j,0.7544,vtsPrac,3,0,3,0,1,,,,,,,,,,,,,,,,,,,,,,
298120,2022-11-14_22h31.22.074,vts_reward_expectancy_bt,2022.2.4,Win32,119.8465964,Chrome,1600,1067,,,,,0,612,,,,,,,,,,,,,,,,,F,181,circle,1,0,,,2,,,,,,,,,,,,,repeat,number,numRpt,k,0.8806,vtsPrac,4,0,4,0,1,,,,,,,,,,,,,,,,,,,,,,
298120,2022-11-14_22h31.22.074,vts_reward_expectancy_bt,2022.2.4,Win32,119.8465964,Chrome,1600,1067,,,,,0,612,,,,,,,,,,,,,,,,,D,139,triangle,1,0,,,2,,,,,,,,,,,,,switch,letter,lettSwt,d,0.9518,vtsPrac,5,0,5,0,1,,,,,,,,,,,,,,,,,,,,,,
298120,2022-11-14_22h31.22.074,vts_reward_expectancy_bt,2022.2.4,Win32,119.8465964,Chrome,1600,1067,,,,,0,612,,,,,,,,,,,,,,,,,B,160,hexagon,1,0,,,2,,,,,,,,,,,,,switch,number,numSwt,k,0.9606,vtsPrac,6,0,6,0,1,,,,,,,,,,,,,,,,,,,,,,
298120,2022-11-14_22h31.22.074,vts_reward_expectancy_bt,2022.2.4,Win32,119.8465964,Chrome,1600,1067,,,,,0,612,,,,,,,,,,,,,,,,,U,146,triangle,1,0,,,2,,,,,,,,,,,,,repeat,number,numRpt,j,0.8658,vtsPrac,7,0,7,0,1,,,,,,,,,,,,,,,,,,,,,,
298120,2022-11-14_22h31.22.074,vts_reward_expectancy_bt,2022.2.4,Win32,119.8465964,Chrome,1600,1067,,,,,0,612,,,,,,,,,,,,,,,,,Y,174,hexagon,1,0,,,2,,,,,,,,,,,,,repeat,number,numRpt,k,1.0747,vtsPrac,8,0,8,0,1,,,,,,,,,,,,,,,,,,,,,,
298120,2022-11-14_22h31.22.074,vts_reward_expectancy_bt,2022.2.4,Win32,119.8465964,Chrome,1600,1067,,,,,0,612,,,,,,,,,,,,,,,,,F,181,circle,1,0,,,2,,,,,,,,,,,,,repeat,number,numRpt,k,0.7744,vtsPrac,9,0,9,0,1,,,,,,,,,,,,,,,,,,,,,,
298120,2022-11-14_22h31.22.074,vts_reward_expectancy_bt,2022.2.4,Win32,119.8465964,Chrome,1600,1067,,,,,0,612,,,,,,,,,,,,,,,,,H,139,star,1,0,,,2,,,,,,,,,,,,,repeat,number,numRpt,j,0.7953,vtsPrac,10,0,10,0,1,,,,,,,,,,,,,,,,,,,,,,
298120,2022-11-14_22h31.22.074,vts_reward_expectancy_bt,2022.2.4,Win32,119.8465964,Chrome,1600,1067,,,,,0,612,,,,,,,,,,,,,,,,,U,167,circle,1,0,,,2,,,,,,,,,,,,,switch,letter,lettSwt,f,0.9149,vtsPrac,11,0,11,0,1,,,,,,,,,,,,,,,,,,,,,,
298120,2022-11-14_22h31.22.074,vts_reward_expectancy_bt,2022.2.4,Win32,119.8465964,Chrome,1600,1067,,,,,0,612,,,,,,,,,,,,,,,,,W,139,star,1,0,,,2,,,,,,,,,,,,,repeat,letter,lettRpt,f,0.7731,vtsPrac,12,0,12,0,1,,,,,,,,,,,,,,,,,,,,,,
298120,2022-11-14_22h31.22.074,vts_reward_expectancy_bt,2022.2.4,Win32,119.8465964,Chrome,1600,1067,,,,,0,612,,,,,,,,,,,,,,,,,D,146,hexagon,1,0,,,2,,,,,,,,,,,,,repeat,letter,lettRpt,d,0.7141,vtsPrac,13,0,13,0,1,,,,,,,,,,,,,,,,,,,,,,
298120,2022-11-14_22h31.22.074,vts_reward_expectancy_bt,2022.2.4,Win32,119.8465964,Chrome,1600,1067,,,,,0,612,,,,,,,,,,,,,,,,,B,132,hexagon,1,0,,,2,,,,,,,,,,,,,repeat,letter,lettRpt,d,0.8067,vtsPrac,14,0,14,0,1,,,,,,,,,,,,,,,,,,,,,,
298120,2022-11-14_22h31.22.074,vts_reward_expectancy_bt,2022.2.4,Win32,119.8465964,Chrome,1600,1067,,,,,0,612,,,,,,,,,,,,,,,,,Y,181,triangle,1,0,,,2,,,,,,,,,,,,,switch,number,numSwt,k,0.8102,vtsPrac,15,0,15,0,1,,,,,,,,,,,,,,,,,,,,,,
298120,2022-11-14_22h31.22.074,vts_reward_expectancy_bt,2022.2.4,Win32,119.8465964,Chrome,1600,1067,,,,,0,612,,,,,,,,,,,,,,,,,Y,139,hexagon,1,0,,,2,,,,,,,,,,,,,repeat,number,numRpt,j,0.9002,vtsPrac,16,0,16,0,1,,,,,,,,,,,,,,,,,,,,,,
298120,2022-11-14_22h31.22.074,vts_reward_expectancy_bt,2022.2.4,Win32,119.8465964,Chrome,1600,1067,,,,,0,612,,,,,,,,,,,,,,,,,S,132,star,1,0,,,2,,,,,,,,,,,,,repeat,number,numRpt,j,1.0926,vtsPrac,17,0,17,0,1,,,,,,,,,,,,,,,,,,,,,,
298120,2022-11-14_22h31.22.074,vts_reward_expectancy_bt,2022.2.4,Win32,119.8465964,Chrome,1600,1067,,,,,0,612,,,,,,,,,,,,,,,,,F,167,triangle,1,0,,,2,,,,,,,,,,,,,repeat,number,numRpt,k,1.5767,vtsPrac,18,0,18,0,1,,,,,,,,,,,,,,,,,,,,,,
298120,2022-11-14_22h31.22.074,vts_reward_expectancy_bt,2022.2.4,Win32,119.8465964,Chrome,1600,1067,,,,,0,612,,,,,,,,,,,,,,,,,B,146,circle,1,0,,,2,,,,,,,,,,,,,switch,letter,lettSwt,d,0.692,vtsPrac,19,0,19,0,1,,,,,,,,,,,,,,,,,,,,,,
298120,2022-11-14_22h31.22.074,vts_reward_expectancy_bt,2022.2.4,Win32,119.8465964,Chrome,1600,1067,,,,,0,612,,,,,,,,,,,,,,,,,Y,174,circle,1,0,,,2,,,,,,,,,,,,,switch,number,numSwt,k,0.7179,vtsPrac,20,0,20,0,1,,,,,,,,,,,,,,,,,,,,,,
298120,2022-11-14_22h31.22.074,vts_reward_expectancy_bt,2022.2.4,Win32,119.8465964,Chrome,1600,1067,,,,,0,612,,,,,,,,,,,,,,,,,U,181,hexagon,1,0,,,2,,,,,,,,,,,,,repeat,number,numRpt,k,2.0752,vtsPrac,21,0,21,0,1,,,,,,,,,,,,,,,,,,,,,,
298120,2022-11-14_22h31.22.074,vts_reward_expectancy_bt,2022.2.4,Win32,119.8465964,Chrome,1600,1067,,,,,0,612,,,,,,,,,,,,,,,,,W,125,circle,1,0,,,2,,,,,,,,,,,,,switch,letter,lettSwt,f,2.2637,vtsPrac,22,0,22,0,1,,,,,,,,,,,,,,,,,,,,,,
298120,2022-11-14_22h31.22.074,vts_reward_expectancy_bt,2022.2.4,Win32,119.8465964,Chrome,1600,1067,,,,,0,612,,,,,,,,,,,,,,,,,D,167,star,1,0,,,2,,,,,,,,,,,,,repeat,letter,lettRpt,d,1.0181,vtsPrac,23,0,23,0,1,,,,,,,,,,,,,,,,,,,,,,
298120,2022-11-14_22h31.22.074,vts_reward_expectancy_bt,2022.2.4,Win32,119.8465964,Chrome,1600,1067,,,,,0,612,,,,,,,,,,,,,,,,,D,132,hexagon,1,0,,,2,,,,,,,,,,,,,repeat,letter,lettRpt,d,0.7252,vtsPrac,24,0,24,0,1,,,,,,,,,,,,,,,,,,,,,,
298120,2022-11-14_22h31.22.074,vts_reward_expectancy_bt,2022.2.4,Win32,119.8465964,Chrome,1600,1067,,,,,0,612,,,,,,,,,,,,,,,,,B,160,circle,1,0,,,2,,,,,,,,,,,,,repeat,letter,lettRpt,d,1.2401,vtsPrac,25,0,25,0,1,,,,,,,,,,,,,,,,,,,,,,
298120,2022-11-14_22h31.22.074,vts_reward_expectancy_bt,2022.2.4,Win32,119.8465964,Chrome,1600,1067,,,,,0,612,,,,,,,,,,,,,,,,,H,125,star,1,0,,,2,,,,,,,,,,,,,switch,number,numSwt,j,1.7755,vtsPrac,26,0,26,0,1,,,,,,,,,,,,,,,,,,,,,,
298120,2022-11-14_22h31.22.074,vts_reward_expectancy_bt,2022.2.4,Win32,119.8465964,Chrome,1600,1067,,,,,0,612,,,,,,,,,,,,,,,,,F,167,triangle,1,0,,,2,,,,,,,,,,,,,repeat,number,numRpt,k,1.2779,vtsPrac,27,0,27,0,1,,,,,,,,,,,,,,,,,,,,,,
298120,2022-11-14_22h31.22.074,vts_reward_expectancy_bt,2022.2.4,Win32,119.8465964,Chrome,1600,1067,,,,,0,612,,,,,,,,,,,,,,,,,Y,139,triangle,1,0,,,2,,,,,,,,,,,,,repeat,number,numRpt,j,1.018,vtsPrac,28,0,28,0,1,,,,,,,,,,,,,,,,,,,,,,
298120,2022-11-14_22h31.22.074,vts_reward_expectancy_bt,2022.2.4,Win32,119.8465964,Chrome,1600,1067,,,,,0,612,,,,,,,,,,,,,,,,,F,167,star,1,0,,,2,,,,,,,,,,,,,repeat,number,numRpt,k,2.0468,vtsPrac,29,0,29,0,1,,,,,,,,,,,,,,,,,,,,,,
298120,2022-11-14_22h31.22.074,vts_reward_expectancy_bt,2022.2.4,Win32,119.8465964,Chrome,1600,1067,,,,,0,612,,,,,,,,,,,,,,,,,S,132,triangle,1,0,,,2,,,,,,,,,,,,,repeat,number,numRpt,j,2.368,vtsPrac,30,0,30,0,1,,,,,,,,,,,,,,,,,,,,,,
298120,2022-11-14_22h31.22.074,vts_reward_expectancy_bt,2022.2.4,Win32,119.8465964,Chrome,1600,1067,,,,,0,612,,,,,,,,,,,,,,,,,D,174,star,1,0,,,2,,,,,,,,,,,,,switch,letter,lettSwt,d,0.8813,vtsPrac,31,0,31,0,1,,,,,,,,,,,,,,,,,,,,,,
298120,2022-11-14_22h31.22.074,vts_reward_expectancy_bt,2022.2.4,Win32,119.8465964,Chrome,1600,1067,,,,,,,,,,,,,,,,,,,,,,,,,,,,,,,,,,,,,,,,,,,,,,,,,,,,,,,,,,,,,,,,,,,,,,,,,,,
298120,2022-11-14_22h31.22.074,vts_reward_expectancy_bt,2022.2.4,Win32,119.8465964,Chrome,1600,1067,,,,,,,,,,,,,,,,,,,,,,,,,,,,,,,,,,,,,,,,,,,,,,,,,,,,,,,,,,,,,,,,,,,,,,,,,,,
298120,2022-11-14_22h31.22.074,vts_reward_expectancy_bt,2022.2.4,Win32,119.8465964,Chrome,1600,1067,,,,,0,612,,,,,,,,,,,,,,,,,H,181,triangle,1,0,,,,,,,,,,,,,,,,switch,number,numSwt,k,2.5916,noRew,,,,,,0,0,0,0,0,1,,,,,,,,,,,,,,,,
298120,2022-11-14_22h31.22.074,vts_reward_expectancy_bt,2022.2.4,Win32,119.8465964,Chrome,1600,1067,,,,,0,612,,,,,,,,,,,,,,,,,U,146,star,1,0,,,,,,,,,,,,,,,,repeat,number,numRpt,j,1.3231,noRew,,,,,,0,1,0,1,0,1,,,,,,,,,,,,,,,,
298120,2022-11-14_22h31.22.074,vts_reward_expectancy_bt,2022.2.4,Win32,119.8465964,Chrome,1600,1067,,,,,0,612,,,,,,,,,,,,,,,,,S,167,triangle,1,0,,,,,,,,,,,,,,,,repeat,number,numRpt,k,1.7066,noRew,,,,,,0,2,0,2,0,1,,,,,,,,,,,,,,,,
298120,2022-11-14_22h31.22.074,vts_reward_expectancy_bt,2022.2.4,Win32,119.8465964,Chrome,1600,1067,,,,,0,612,,,,,,,,,,,,,,,,,Y,160,star,1,0,,,,,,,,,,,,,,,,switch,letter,lettSwt,f,0.9151,noRew,,,,,,0,3,0,3,0,1,,,,,,,,,,,,,,,,
298120,2022-11-14_22h31.22.074,vts_reward_expectancy_bt,2022.2.4,Win32,119.8465964,Chrome,1600,1067,,,,,0,612,,,,,,,,,,,,,,,,,H,181,hexagon,1,0,,,,,,,,,,,,,,,,switch,number,numSwt,k,1.8082,noRew,,,,,,0,4,0,4,0,1,,,,,,,,,,,,,,,,
298120,2022-11-14_22h31.22.074,vts_reward_expectancy_bt,2022.2.4,Win32,119.8465964,Chrome,1600,1067,,,,,0,612,,,,,,,,,,,,,,,,,U,146,triangle,1,0,,,,,,,,,,,,,,,,switch,letter,lettSwt,f,0.8179,noRew,,,,,,0,5,0,5,0,1,,,,,,,,,,,,,,,,
298120,2022-11-14_22h31.22.074,vts_reward_expectancy_bt,2022.2.4,Win32,119.8465964,Chrome,1600,1067,,,,,0,612,,,,,,,,,,,,,,,,,S,167,triangle,1,0,,,,,,,,,,,,,,,,switch,number,numSwt,k,1.8563,noRew,,,,,,0,6,0,6,0,1,,,,,,,,,,,,,,,,
298120,2022-11-14_22h31.22.074,vts_reward_expectancy_bt,2022.2.4,Win32,119.8465964,Chrome,1600,1067,,,,,0,612,,,,,,,,,,,,,,,,,Y,160,star,1,0,,,,,,,,,,,,,,,,switch,letter,lettSwt,f,0.7464,noRew,,,,,,0,7,0,7,0,1,,,,,,,,,,,,,,,,
298120,2022-11-14_22h31.22.074,vts_reward_expectancy_bt,2022.2.4,Win32,119.8465964,Chrome,1600,1067,,,,,0,612,,,,,,,,,,,,,,,,,Y,174,hexagon,1,0,,,,,,,,,,,,,,,,repeat,letter,lettRpt,f,2.2588,noRew,,,,,,0,8,0,8,0,1,,,,,,,,,,,,,,,,
298120,2022-11-14_22h31.22.074,vts_reward_expectancy_bt,2022.2.4,Win32,119.8465964,Chrome,1600,1067,,,,,0,612,,,,,,,,,,,,,,,,,H,146,triangle,1,0,,,,,,,,,,,,,,,,switch,number,numSwt,j,1.4255,noRew,,,,,,0,9,0,9,0,1,,,,,,,,,,,,,,,,
298120,2022-11-14_22h31.22.074,vts_reward_expectancy_bt,2022.2.4,Win32,119.8465964,Chrome,1600,1067,,,,,0,612,,,,,,,,,,,,,,,,,S,160,hexagon,1,0,,,,,,,,,,,,,,,,repeat,number,numRpt,k,1.276,noRew,,,,,,0,10,0,10,0,1,,,,,,,,,,,,,,,,
298120,2022-11-14_22h31.22.074,vts_reward_expectancy_bt,2022.2.4,Win32,119.8465964,Chrome,1600,1067,,,,,0,612,,,,,,,,,,,,,,,,,D,132,triangle,1,0,,,,,,,,,,,,,,,,switch,letter,lettSwt,d,0.8231,noRew,,,,,,0,11,0,11,0,1,,,,,,,,,,,,,,,,
298120,2022-11-14_22h31.22.074,vts_reward_expectancy_bt,2022.2.4,Win32,119.8465964,Chrome,1600,1067,,,,,0,612,,,,,,,,,,,,,,,,,F,132,circle,1,0,,,,,,,,,,,,,,,,repeat,letter,lettRpt,d,0.6799,noRew,,,,,,0,12,0,12,0,1,,,,,,,,,,,,,,,,
298120,2022-11-14_22h31.22.074,vts_reward_expectancy_bt,2022.2.4,Win32,119.8465964,Chrome,1600,1067,,,,,0,612,,,,,,,,,,,,,,,,,U,181,hexagon,1,0,,,,,,,,,,,,,,,,repeat,letter,lettRpt,f,0.9201,noRew,,,,,,0,13,0,13,0,1,,,,,,,,,,,,,,,,
298120,2022-11-14_22h31.22.074,vts_reward_expectancy_bt,2022.2.4,Win32,119.8465964,Chrome,1600,1067,,,,,0,612,,,,,,,,,,,,,,,,,W,125,triangle,1,0,,,,,,,,,,,,,,,,repeat,letter,lettRpt,f,1.1746,noRew,,,,,,0,14,0,14,0,1,,,,,,,,,,,,,,,,
298120,2022-11-14_22h31.22.074,vts_reward_expectancy_bt,2022.2.4,Win32,119.8465964,Chrome,1600,1067,,,,,0,612,,,,,,,,,,,,,,,,,Y,139,circle,1,0,,,,,,,,,,,,,,,,repeat,letter,lettRpt,f,0.7383,noRew,,,,,,0,15,0,15,0,1,,,,,,,,,,,,,,,,
298120,2022-11-14_22h31.22.074,vts_reward_expectancy_bt,2022.2.4,Win32,119.8465964,Chrome,1600,1067,,,,,0,612,,,,,,,,,,,,,,,,,S,146,triangle,1,0,,,,,,,,,,,,,,,,repeat,letter,lettRpt,f,1.8729,noRew,,,,,,0,16,0,16,0,1,,,,,,,,,,,,,,,,
298120,2022-11-14_22h31.22.074,vts_reward_expectancy_bt,2022.2.4,Win32,119.8465964,Chrome,1600,1067,,,,,0,612,,,,,,,,,,,,,,,,,Y,139,circle,1,0,,,,,,,,,,,,,,,,switch,number,numSwt,j,0.6965,noRew,,,,,,0,17,0,17,0,1,,,,,,,,,,,,,,,,
298120,2022-11-14_22h31.22.074,vts_reward_expectancy_bt,2022.2.4,Win32,119.8465964,Chrome,1600,1067,,,,,0,612,,,,,,,,,,,,,,,,,F,181,triangle,1,0,,,,,,,,,,,,,,,,repeat,number,numRpt,k,1.4363,noRew,,,,,,0,18,0,18,0,1,,,,,,,,,,,,,,,,
298120,2022-11-14_22h31.22.074,vts_reward_expectancy_bt,2022.2.4,Win32,119.8465964,Chrome,1600,1067,,,,,0,612,,,,,,,,,,,,,,,,,U,167,hexagon,1,0,,,,,,,,,,,,,,,,repeat,number,numRpt,k,1.4596,noRew,,,,,,0,19,0,19,0,1,,,,,,,,,,,,,,,,
298120,2022-11-14_22h31.22.074,vts_reward_expectancy_bt,2022.2.4,Win32,119.8465964,Chrome,1600,1067,,,,,0,612,,,,,,,,,,,,,,,,,H,125,hexagon,1,0,,,,,,,,,,,,,,,,repeat,number,numRpt,j,1.5893,noRew,,,,,,0,20,0,20,0,1,,,,,,,,,,,,,,,,
298120,2022-11-14_22h31.22.074,vts_reward_expectancy_bt,2022.2.4,Win32,119.8465964,Chrome,1600,1067,,,,,0,612,,,,,,,,,,,,,,,,,Y,160,star,1,0,,,,,,,,,,,,,,,,repeat,number,numRpt,k,1.8265,noRew,,,,,,0,21,0,21,0,1,,,,,,,,,,,,,,,,
298120,2022-11-14_22h31.22.074,vts_reward_expectancy_bt,2022.2.4,Win32,119.8465964,Chrome,1600,1067,,,,,0,612,,,,,,,,,,,,,,,,,D,167,triangle,1,0,,,,,,,,,,,,,,,,repeat,number,numRpt,k,0.9008,noRew,,,,,,0,22,0,22,0,1,,,,,,,,,,,,,,,,
298120,2022-11-14_22h31.22.074,vts_reward_expectancy_bt,2022.2.4,Win32,119.8465964,Chrome,1600,1067,,,,,0,612,,,,,,,,,,,,,,,,,U,146,circle,1,0,,,,,,,,,,,,,,,,repeat,number,numRpt,j,1.1983,noRew,,,,,,0,23,0,23,0,1,,,,,,,,,,,,,,,,
298120,2022-11-14_22h31.22.074,vts_reward_expectancy_bt,2022.2.4,Win32,119.8465964,Chrome,1600,1067,,,,,0,612,,,,,,,,,,,,,,,,,W,174,circle,1,0,,,,,,,,,,,,,,,,repeat,number,numRpt,k,1.8252,noRew,,,,,,0,24,0,24,0,1,,,,,,,,,,,,,,,,
298120,2022-11-14_22h31.22.074,vts_reward_expectancy_bt,2022.2.4,Win32,119.8465964,Chrome,1600,1067,,,,,0,612,,,,,,,,,,,,,,,,,B,181,star,1,0,,,,,,,,,,,,,,,,switch,letter,lettSwt,d,0.7569,noRew,,,,,,0,25,0,25,0,1,,,,,,,,,,,,,,,,
298120,2022-11-14_22h31.22.074,vts_reward_expectancy_bt,2022.2.4,Win32,119.8465964,Chrome,1600,1067,,,,,0,612,,,,,,,,,,,,,,,,,Y,160,circle,1,0,,,,,,,,,,,,,,,,repeat,letter,lettRpt,f,0.7821,noRew,,,,,,0,26,0,26,0,1,,,,,,,,,,,,,,,,
298120,2022-11-14_22h31.22.074,vts_reward_expectancy_bt,2022.2.4,Win32,119.8465964,Chrome,1600,1067,,,,,0,612,,,,,,,,,,,,,,,,,H,146,hexagon,1,0,,,,,,,,,,,,,,,,switch,number,numSwt,j,2.5388,noRew,,,,,,0,27,0,27,0,1,,,,,,,,,,,,,,,,
298120,2022-11-14_22h31.22.074,vts_reward_expectancy_bt,2022.2.4,Win32,119.8465964,Chrome,1600,1067,,,,,0,612,,,,,,,,,,,,,,,,,B,174,hexagon,1,0,,,,,,,,,,,,,,,,switch,letter,lettSwt,d,0.5834,noRew,,,,,,0,28,0,28,0,1,,,,,,,,,,,,,,,,
298120,2022-11-14_22h31.22.074,vts_reward_expectancy_bt,2022.2.4,Win32,119.8465964,Chrome,1600,1067,,,,,0,612,,,,,,,,,,,,,,,,,S,181,triangle,1,0,,,,,,,,,,,,,,,,repeat,letter,lettRpt,f,1.2905,noRew,,,,,,0,29,0,29,0,1,,,,,,,,,,,,,,,,
298120,2022-11-14_22h31.22.074,vts_reward_expectancy_bt,2022.2.4,Win32,119.8465964,Chrome,1600,1067,,,,,0,612,,,,,,,,,,,,,,,,,Y,125,star,1,0,,,,,,,,,,,,,,,,repeat,letter,lettRpt,f,0.8063,noRew,,,,,,0,30,0,30,0,1,,,,,,,,,,,,,,,,
298120,2022-11-14_22h31.22.074,vts_reward_expectancy_bt,2022.2.4,Win32,119.8465964,Chrome,1600,1067,,,,,0,612,,,,,,,,,,,,,,,,,U,132,circle,1,0,,,,,,,,,,,,,,,,repeat,letter,lettRpt,f,0.9056,noRew,,,,,,0,31,0,31,0,1,,,,,,,,,,,,,,,,
298120,2022-11-14_22h31.22.074,vts_reward_expectancy_bt,2022.2.4,Win32,119.8465964,Chrome,1600,1067,,,,,0,612,,,,,,,,,,,,,,,,,B,125,hexagon,1,0,,,,,,,,,,,,,,,,repeat,letter,lettRpt,d,0.9021,noRew,,,,,,0,32,0,32,0,1,,,,,,,,,,,,,,,,
298120,2022-11-14_22h31.22.074,vts_reward_expectancy_bt,2022.2.4,Win32,119.8465964,Chrome,1600,1067,,,,,0,612,,,,,,,,,,,,,,,,,F,146,circle,1,0,,,,,,,,,,,,,,,,repeat,letter,lettRpt,d,0.8254,noRew,,,,,,0,33,0,33,0,1,,,,,,,,,,,,,,,,
298120,2022-11-14_22h31.22.074,vts_reward_expectancy_bt,2022.2.4,Win32,119.8465964,Chrome,1600,1067,,,,,0,612,,,,,,,,,,,,,,,,,S,181,triangle,1,0,,,,,,,,,,,,,,,,repeat,letter,lettRpt,f,1.0556,noRew,,,,,,0,34,0,34,0,1,,,,,,,,,,,,,,,,
298120,2022-11-14_22h31.22.074,vts_reward_expectancy_bt,2022.2.4,Win32,119.8465964,Chrome,1600,1067,,,,,0,612,,,,,,,,,,,,,,,,,H,139,star,1,0,,,,,,,,,,,,,,,,switch,number,numSwt,j,1.2723,noRew,,,,,,0,35,0,35,0,1,,,,,,,,,,,,,,,,
298120,2022-11-14_22h31.22.074,vts_reward_expectancy_bt,2022.2.4,Win32,119.8465964,Chrome,1600,1067,,,,,0,612,,,,,,,,,,,,,,,,,U,132,hexagon,1,0,,,,,,,,,,,,,,,,repeat,number,numRpt,j,1.3517,noRew,,,,,,0,36,0,36,0,1,,,,,,,,,,,,,,,,
298120,2022-11-14_22h31.22.074,vts_reward_expectancy_bt,2022.2.4,Win32,119.8465964,Chrome,1600,1067,,,,,0,612,,,,,,,,,,,,,,,,,Y,174,star,1,0,,,,,,,,,,,,,,,,switch,letter,lettSwt,f,1.0319,noRew,,,,,,0,37,0,37,0,1,,,,,,,,,,,,,,,,
298120,2022-11-14_22h31.22.074,vts_reward_expectancy_bt,2022.2.4,Win32,119.8465964,Chrome,1600,1067,,,,,0,612,,,,,,,,,,,,,,,,,B,139,hexagon,-1,0,,,,,,,,,,,,,,,,switch,no_choice,NA,,,noRew,,,,,,0,38,0,38,0,1,,,,,,,,,,,,,,,,
298120,2022-11-14_22h31.22.074,vts_reward_expectancy_bt,2022.2.4,Win32,119.8465964,Chrome,1600,1067,,,,,0,612,,,,,,,,,,,,,,,,,W,146,star,1,0,,,,,,,,,,,,,,,,switch,number,numSwt,j,0.7315,noRew,,,,,,0,39,0,39,0,1,,,,,,,,,,,,,,,,
298120,2022-11-14_22h31.22.074,vts_reward_expectancy_bt,2022.2.4,Win32,119.8465964,Chrome,1600,1067,,,,,0,612,,,,,,,,,,,,,,,,,Y,167,star,1,0,,,,,,,,,,,,,,,,switch,letter,lettSwt,f,0.8065,noRew,,,,,,0,40,0,40,0,1,,,,,,,,,,,,,,,,
298120,2022-11-14_22h31.22.074,vts_reward_expectancy_bt,2022.2.4,Win32,119.8465964,Chrome,1600,1067,,,,,0,612,,,,,,,,,,,,,,,,,B,160,hexagon,1,0,,,,,,,,,,,,,,,,switch,number,numSwt,k,0.8413,noRew,,,,,,0,41,0,41,0,1,,,,,,,,,,,,,,,,
298120,2022-11-14_22h31.22.074,vts_reward_expectancy_bt,2022.2.4,Win32,119.8465964,Chrome,1600,1067,,,,,0,612,,,,,,,,,,,,,,,,,D,181,star,1,0,,,,,,,,,,,,,,,,switch,letter,lettSwt,d,0.7089,noRew,,,,,,0,42,0,42,0,1,,,,,,,,,,,,,,,,
298120,2022-11-14_22h31.22.074,vts_reward_expectancy_bt,2022.2.4,Win32,119.8465964,Chrome,1600,1067,,,,,0,612,,,,,,,,,,,,,,,,,W,132,triangle,1,0,,,,,,,,,,,,,,,,repeat,letter,lettRpt,f,0.672,noRew,,,,,,0,43,0,43,0,1,,,,,,,,,,,,,,,,
298120,2022-11-14_22h31.22.074,vts_reward_expectancy_bt,2022.2.4,Win32,119.8465964,Chrome,1600,1067,,,,,0,612,,,,,,,,,,,,,,,,,W,139,star,1,0,,,,,,,,,,,,,,,,repeat,letter,lettRpt,f,0.7586,noRew,,,,,,0,44,0,44,0,1,,,,,,,,,,,,,,,,
298120,2022-11-14_22h31.22.074,vts_reward_expectancy_bt,2022.2.4,Win32,119.8465964,Chrome,1600,1067,,,,,0,612,,,,,,,,,,,,,,,,,S,160,triangle,1,0,,,,,,,,,,,,,,,,repeat,letter,lettRpt,f,0.6553,noRew,,,,,,0,45,0,45,0,1,,,,,,,,,,,,,,,,
298120,2022-11-14_22h31.22.074,vts_reward_expectancy_bt,2022.2.4,Win32,119.8465964,Chrome,1600,1067,,,,,0,612,,,,,,,,,,,,,,,,,D,181,triangle,1,0,,,,,,,,,,,,,,,,switch,number,numSwt,k,0.5615,noRew,,,,,,0,46,0,46,0,1,,,,,,,,,,,,,,,,
298120,2022-11-14_22h31.22.074,vts_reward_expectancy_bt,2022.2.4,Win32,119.8465964,Chrome,1600,1067,,,,,0,612,,,,,,,,,,,,,,,,,U,125,star,1,0,,,,,,,,,,,,,,,,repeat,number,numRpt,j,1.0982,noRew,,,,,,0,47,0,47,0,1,,,,,,,,,,,,,,,,
298120,2022-11-14_22h31.22.074,vts_reward_expectancy_bt,2022.2.4,Win32,119.8465964,Chrome,1600,1067,,,,,0,612,,,,,,,,,,,,,,,,,U,167,star,1,0,,,,,,,,,,,,,,,,repeat,number,numRpt,k,0.7256,noRew,,,,,,0,48,0,48,0,1,,,,,,,,,,,,,,,,
298120,2022-11-14_22h31.22.074,vts_reward_expectancy_bt,2022.2.4,Win32,119.8465964,Chrome,1600,1067,,,,,0,612,,,,,,,,,,,,,,,,,B,174,triangle,1,0,,,,,,,,,,,,,,,,repeat,number,numRpt,k,1.1242,noRew,,,,,,0,49,0,49,0,1,,,,,,,,,,,,,,,,
298120,2022-11-14_22h31.22.074,vts_reward_expectancy_bt,2022.2.4,Win32,119.8465964,Chrome,1600,1067,,,,,0,612,,,,,,,,,,,,,,,,,H,181,hexagon,1,0,,,,,,,,,,,,,,,,repeat,number,numRpt,k,0.6924,noRew,,,,,,0,50,0,50,0,1,,,,,,,,,,,,,,,,
298120,2022-11-14_22h31.22.074,vts_reward_expectancy_bt,2022.2.4,Win32,119.8465964,Chrome,1600,1067,,,,,0,612,,,,,,,,,,,,,,,,,S,146,triangle,1,0,,,,,,,,,,,,,,,,repeat,number,numRpt,j,1.0303,noRew,,,,,,0,51,0,51,0,1,,,,,,,,,,,,,,,,
298120,2022-11-14_22h31.22.074,vts_reward_expectancy_bt,2022.2.4,Win32,119.8465964,Chrome,1600,1067,,,,,0,612,,,,,,,,,,,,,,,,,W,174,hexagon,1,0,,,,,,,,,,,,,,,,repeat,number,numRpt,k,1.1071,noRew,,,,,,0,52,0,52,0,1,,,,,,,,,,,,,,,,
298120,2022-11-14_22h31.22.074,vts_reward_expectancy_bt,2022.2.4,Win32,119.8465964,Chrome,1600,1067,,,,,0,612,,,,,,,,,,,,,,,,,B,132,circle,1,0,,,,,,,,,,,,,,,,repeat,number,numRpt,j,1.2015,noRew,,,,,,0,53,0,53,0,1,,,,,,,,,,,,,,,,
298120,2022-11-14_22h31.22.074,vts_reward_expectancy_bt,2022.2.4,Win32,119.8465964,Chrome,1600,1067,,,,,0,612,,,,,,,,,,,,,,,,,F,181,circle,1,0,,,,,,,,,,,,,,,,switch,letter,lettSwt,d,0.8979,noRew,,,,,,0,54,0,54,0,1,,,,,,,,,,,,,,,,
298120,2022-11-14_22h31.22.074,vts_reward_expectancy_bt,2022.2.4,Win32,119.8465964,Chrome,1600,1067,,,,,0,612,,,,,,,,,,,,,,,,,D,167,star,1,0,,,,,,,,,,,,,,,,repeat,letter,lettRpt,d,0.7988,noRew,,,,,,0,55,0,55,0,1,,,,,,,,,,,,,,,,
298120,2022-11-14_22h31.22.074,vts_reward_expectancy_bt,2022.2.4,Win32,119.8465964,Chrome,1600,1067,,,,,0,612,,,,,,,,,,,,,,,,,D,181,triangle,1,0,,,,,,,,,,,,,,,,repeat,letter,lettRpt,d,0.8106,noRew,,,,,,0,56,0,56,0,1,,,,,,,,,,,,,,,,
298120,2022-11-14_22h31.22.074,vts_reward_expectancy_bt,2022.2.4,Win32,119.8465964,Chrome,1600,1067,,,,,0,612,,,,,,,,,,,,,,,,,B,146,star,1,0,,,,,,,,,,,,,,,,repeat,letter,lettRpt,d,0.5419,noRew,,,,,,0,57,0,57,0,1,,,,,,,,,,,,,,,,
298120,2022-11-14_22h31.22.074,vts_reward_expectancy_bt,2022.2.4,Win32,119.8465964,Chrome,1600,1067,,,,,0,612,,,,,,,,,,,,,,,,,W,174,circle,1,0,,,,,,,,,,,,,,,,repeat,letter,lettRpt,f,0.7317,noRew,,,,,,0,58,0,58,0,1,,,,,,,,,,,,,,,,
298120,2022-11-14_22h31.22.074,vts_reward_expectancy_bt,2022.2.4,Win32,119.8465964,Chrome,1600,1067,,,,,0,612,,,,,,,,,,,,,,,,,Y,139,triangle,1,0,,,,,,,,,,,,,,,,repeat,letter,lettRpt,f,1.0019,noRew,,,,,,0,59,0,59,0,1,,,,,,,,,,,,,,,,
298120,2022-11-14_22h31.22.074,vts_reward_expectancy_bt,2022.2.4,Win32,119.8465964,Chrome,1600,1067,,,,,0,612,,,,,,,,,,,,,,,,,S,181,hexagon,1,0,,,,,,,,,,,,,,,,switch,number,numSwt,k,1.0746,noRew,,,,,,0,60,0,60,0,1,,,,,,,,,,,,,,,,
298120,2022-11-14_22h31.22.074,vts_reward_expectancy_bt,2022.2.4,Win32,119.8465964,Chrome,1600,1067,,,,,0,612,,,,,,,,,,,,,,,,,U,132,circle,1,0,,,,,,,,,,,,,,,,repeat,number,numRpt,j,0.5419,noRew,,,,,,0,61,0,61,0,1,,,,,,,,,,,,,,,,
298120,2022-11-14_22h31.22.074,vts_reward_expectancy_bt,2022.2.4,Win32,119.8465964,Chrome,1600,1067,,,,,0,612,,,,,,,,,,,,,,,,,B,139,triangle,1,0,,,,,,,,,,,,,,,,repeat,number,numRpt,j,0.8397,noRew,,,,,,0,62,0,62,0,1,,,,,,,,,,,,,,,,
298120,2022-11-14_22h31.22.074,vts_reward_expectancy_bt,2022.2.4,Win32,119.8465964,Chrome,1600,1067,,,,,0,612,,,,,,,,,,,,,,,,,H,167,circle,1,0,,,,,,,,,,,,,,,,repeat,number,numRpt,k,0.9487,noRew,,,,,,0,63,0,63,0,1,,,,,,,,,,,,,,,,
298120,2022-11-14_22h31.22.074,vts_reward_expectancy_bt,2022.2.4,Win32,119.8465964,Chrome,1600,1067,,,,,,,,,,,,,,,,,,,,,,,,,,,,,,,,,,,,,,,,,,,,,,,,,,,,,,,,,,,,,,,,,,,,,,,,,,,
298120,2022-11-14_22h31.22.074,vts_reward_expectancy_bt,2022.2.4,Win32,119.8465964,Chrome,1600,1067,,,,,0,612,,,,,,,,,,,,,,,,,U,181,triangle,0,0,,,,,,,,,,,,,,,,switch,letter,NA,d,0.9146,noRew,,,,,,0,,,,,,space,7.154,low,0,0,0,0,1,,,,,,,,
298120,2022-11-14_22h31.22.074,vts_reward_expectancy_bt,2022.2.4,Win32,119.8465964,Chrome,1600,1067,,,,,1,613,,,,,,,,,,,,,,,,,D,167,circle,1,1,,,,,,,,,,,,,,,,repeat,letter,lettRpt,d,0.6467,Hi,,,,,,0,,,,,,,,low,1,0,1,0,1,,,,,,,,
298120,2022-11-14_22h31.22.074,vts_reward_expectancy_bt,2022.2.4,Win32,119.8465964,Chrome,1600,1067,,,,,0,613,,,,,,,,,,,,,,,,,H,160,hexagon,1,0,,,,,,,,,,,,,,,,switch,number,numSwt,k,1.1064,Hi,,,,,,0,,,,,,,,low,2,0,2,0,1,,,,,,,,
298120,2022-11-14_22h31.22.074,vts_reward_expectancy_bt,2022.2.4,Win32,119.8465964,Chrome,1600,1067,,,,,1,614,,,,,,,,,,,,,,,,,B,132,star,1,0,,,,,,,,,,,,,,,,repeat,number,numRpt,j,0.3972,Lo,,,,,,0,,,,,,,,low,3,0,3,0,1,,,,,,,,
298120,2022-11-14_22h31.22.074,vts_reward_expectancy_bt,2022.2.4,Win32,119.8465964,Chrome,1600,1067,,,,,10,624,,,,,,,,,,,,,,,,,W,174,triangle,1,0,,,,,,,,,,,,,,,,repeat,number,numRpt,k,0.3727,Lo,,,,,,0,,,,,,,,low,4,0,4,0,1,,,,,,,,
298120,2022-11-14_22h31.22.074,vts_reward_expectancy_bt,2022.2.4,Win32,119.8465964,Chrome,1600,1067,,,,,1,625,,,,,,,,,,,,,,,,,Y,125,circle,1,0,,,,,,,,,,,,,,,,repeat,number,numRpt,j,0.5146,Hi,,,,,,0,,,,,,,,low,5,0,5,0,1,,,,,,,,
298120,2022-11-14_22h31.22.074,vts_reward_expectancy_bt,2022.2.4,Win32,119.8465964,Chrome,1600,1067,,,,,10,635,,,,,,,,,,,,,,,,,F,139,hexagon,1,0,,,,,,,,,,,,,,,,switch,letter,lettSwt,d,0.4395,Hi,,,,,,0,,,,,,,,low,6,0,6,0,1,,,,,,,,
298120,2022-11-14_22h31.22.074,vts_reward_expectancy_bt,2022.2.4,Win32,119.8465964,Chrome,1600,1067,,,,,1,636,,,,,,,,,,,,,,,,,S,146,star,1,0,,,,,,,,,,,,,,,,repeat,letter,lettRpt,f,0.4232,Lo,,,,,,0,,,,,,,,low,7,0,7,0,1,,,,,,,,
298120,2022-11-14_22h31.22.074,vts_reward_expectancy_bt,2022.2.4,Win32,119.8465964,Chrome,1600,1067,,,,,0,636,,,,,,,,,,,,,,,,,U,181,circle,0,0,,,,,,,,,,,,,,,,switch,number,NA,j,0.5058,Lo,,,,,,0,,,,,,,,low,8,0,8,0,1,,,,,,,,
298120,2022-11-14_22h31.22.074,vts_reward_expectancy_bt,2022.2.4,Win32,119.8465964,Chrome,1600,1067,,,,,1,637,,,,,,,,,,,,,,,,,D,167,triangle,1,1,,,,,,,,,,,,,,,,repeat,number,numRpt,k,0.4489,Lo,,,,,,0,,,,,,,,low,9,0,9,0,1,,,,,,,,
298120,2022-11-14_22h31.22.074,vts_reward_expectancy_bt,2022.2.4,Win32,119.8465964,Chrome,1600,1067,,,,,10,647,,,,,,,,,,,,,,,,,H,160,star,1,0,,,,,,,,,,,,,,,,switch,letter,lettSwt,d,0.5819,Lo,,,,,,0,,,,,,,,low,10,0,10,0,1,,,,,,,,
298120,2022-11-14_22h31.22.074,vts_reward_expectancy_bt,2022.2.4,Win32,119.8465964,Chrome,1600,1067,,,,,1,648,,,,,,,,,,,,,,,,,B,132,hexagon,1,0,,,,,,,,,,,,,,,,switch,number,numSwt,j,0.4907,Hi,,,,,,0,,,,,,,,low,11,0,11,0,1,,,,,,,,
298120,2022-11-14_22h31.22.074,vts_reward_expectancy_bt,2022.2.4,Win32,119.8465964,Chrome,1600,1067,,,,,1,649,,,,,,,,,,,,,,,,,W,174,star,1,0,,,,,,,,,,,,,,,,switch,letter,lettSwt,f,0.5808,Lo,,,,,,0,,,,,,,,low,12,0,12,0,1,,,,,,,,
298120,2022-11-14_22h31.22.074,vts_reward_expectancy_bt,2022.2.4,Win32,119.8465964,Chrome,1600,1067,,,,,0,649,,,,,,,,,,,,,,,,,Y,125,hexagon,0,0,,,,,,,,,,,,,,,,repeat,letter,NA,d,0.3969,Lo,,,,,,0,,,,,,,,low,13,0,13,0,1,,,,,,,,
298120,2022-11-14_22h31.22.074,vts_reward_expectancy_bt,2022.2.4,Win32,119.8465964,Chrome,1600,1067,,,,,10,659,,,,,,,,,,,,,,,,,F,139,circle,1,1,,,,,,,,,,,,,,,,switch,number,numSwt,j,0.7387,Hi,,,,,,0,,,,,,,,low,14,0,14,0,1,,,,,,,,
298120,2022-11-14_22h31.22.074,vts_reward_expectancy_bt,2022.2.4,Win32,119.8465964,Chrome,1600,1067,,,,,10,669,,,,,,,,,,,,,,,,,S,146,triangle,1,0,,,,,,,,,,,,,,,,repeat,number,numRpt,j,0.8559,Lo,,,,,,0,,,,,,,,low,15,0,15,0,1,,,,,,,,
298120,2022-11-14_22h31.22.074,vts_reward_expectancy_bt,2022.2.4,Win32,119.8465964,Chrome,1600,1067,,,,,0,669,,,,,,,,,,,,,,,,,F,139,circle,1,0,,,,,,,,,,,,,,,,switch,letter,lettSwt,d,0.823,Hi,,,,,,0,,,,,,,,low,16,0,16,0,1,,,,,,,,
298120,2022-11-14_22h31.22.074,vts_reward_expectancy_bt,2022.2.4,Win32,119.8465964,Chrome,1600,1067,,,,,10,679,,,,,,,,,,,,,,,,,U,125,star,1,0,,,,,,,,,,,,,,,,switch,number,numSwt,j,0.8571,Lo,,,,,,0,,,,,,,,low,17,0,17,0,1,,,,,,,,
298120,2022-11-14_22h31.22.074,vts_reward_expectancy_bt,2022.2.4,Win32,119.8465964,Chrome,1600,1067,,,,,1,680,,,,,,,,,,,,,,,,,B,181,hexagon,1,0,,,,,,,,,,,,,,,,switch,letter,lettSwt,d,0.4638,Hi,,,,,,0,,,,,,,,low,18,0,18,0,1,,,,,,,,
298120,2022-11-14_22h31.22.074,vts_reward_expectancy_bt,2022.2.4,Win32,119.8465964,Chrome,1600,1067,,,,,1,681,,,,,,,,,,,,,,,,,Y,146,triangle,1,0,,,,,,,,,,,,,,,,switch,number,numSwt,j,0.7561,Lo,,,,,,0,,,,,,,,low,19,0,19,0,1,,,,,,,,
298120,2022-11-14_22h31.22.074,vts_reward_expectancy_bt,2022.2.4,Win32,119.8465964,Chrome,1600,1067,,,,,1,682,,,,,,,,,,,,,,,,,H,167,star,1,0,,,,,,,,,,,,,,,,switch,letter,lettSwt,d,0.6729,Lo,,,,,,0,,,,,,,,low,20,0,20,0,1,,,,,,,,
298120,2022-11-14_22h31.22.074,vts_reward_expectancy_bt,2022.2.4,Win32,119.8465964,Chrome,1600,1067,,,,,1,683,,,,,,,,,,,,,,,,,W,132,circle,1,0,,,,,,,,,,,,,,,,switch,number,numSwt,j,0.6849,Hi,,,,,,0,,,,,,,,low,21,0,21,0,1,,,,,,,,
298120,2022-11-14_22h31.22.074,vts_reward_expectancy_bt,2022.2.4,Win32,119.8465964,Chrome,1600,1067,,,,,1,684,,,,,,,,,,,,,,,,,S,174,triangle,1,0,,,,,,,,,,,,,,,,switch,letter,lettSwt,f,0.7401,Lo,,,,,,0,,,,,,,,low,22,0,22,0,1,,,,,,,,
298120,2022-11-14_22h31.22.074,vts_reward_expectancy_bt,2022.2.4,Win32,119.8465964,Chrome,1600,1067,,,,,1,685,,,,,,,,,,,,,,,,,D,160,hexagon,1,0,,,,,,,,,,,,,,,,repeat,letter,lettRpt,d,0.5485,Hi,,,,,,0,,,,,,,,low,23,0,23,0,1,,,,,,,,
298120,2022-11-14_22h31.22.074,vts_reward_expectancy_bt,2022.2.4,Win32,119.8465964,Chrome,1600,1067,,,,,10,695,,,,,,,,,,,,,,,,,W,160,circle,1,0,,,,,,,,,,,,,,,,switch,number,numSwt,k,0.7596,Hi,,,,,,0,,,,,,,,low,24,0,24,0,1,,,,,,,,
298120,2022-11-14_22h31.22.074,vts_reward_expectancy_bt,2022.2.4,Win32,119.8465964,Chrome,1600,1067,,,,,10,705,,,,,,,,,,,,,,,,,S,132,star,1,0,,,,,,,,,,,,,,,,repeat,number,numRpt,j,0.689,Lo,,,,,,0,,,,,,,,low,25,0,25,0,1,,,,,,,,
298120,2022-11-14_22h31.22.074,vts_reward_expectancy_bt,2022.2.4,Win32,119.8465964,Chrome,1600,1067,,,,,1,706,,,,,,,,,,,,,,,,,D,167,triangle,1,0,,,,,,,,,,,,,,,,repeat,number,numRpt,k,0.7157,Lo,,,,,,0,,,,,,,,low,26,0,26,0,1,,,,,,,,
298120,2022-11-14_22h31.22.074,vts_reward_expectancy_bt,2022.2.4,Win32,119.8465964,Chrome,1600,1067,,,,,1,707,,,,,,,,,,,,,,,,,Y,146,hexagon,1,0,,,,,,,,,,,,,,,,switch,letter,lettSwt,f,0.6914,Hi,,,,,,0,,,,,,,,low,27,0,27,0,1,,,,,,,,
298120,2022-11-14_22h31.22.074,vts_reward_expectancy_bt,2022.2.4,Win32,119.8465964,Chrome,1600,1067,,,,,1,708,,,,,,,,,,,,,,,,,H,174,hexagon,1,0,,,,,,,,,,,,,,,,switch,number,numSwt,k,0.7888,Hi,,,,,,0,,,,,,,,low,28,0,28,0,1,,,,,,,,
298120,2022-11-14_22h31.22.074,vts_reward_expectancy_bt,2022.2.4,Win32,119.8465964,Chrome,1600,1067,,,,,1,709,,,,,,,,,,,,,,,,,U,181,triangle,1,0,,,,,,,,,,,,,,,,switch,letter,lettSwt,f,0.7893,Lo,,,,,,0,,,,,,,,low,29,0,29,0,1,,,,,,,,
298120,2022-11-14_22h31.22.074,vts_reward_expectancy_bt,2022.2.4,Win32,119.8465964,Chrome,1600,1067,,,,,10,719,,,,,,,,,,,,,,,,,F,139,star,1,0,,,,,,,,,,,,,,,,switch,number,numSwt,j,0.7028,Lo,,,,,,0,,,,,,,,low,30,0,30,0,1,,,,,,,,
298120,2022-11-14_22h31.22.074,vts_reward_expectancy_bt,2022.2.4,Win32,119.8465964,Chrome,1600,1067,,,,,10,729,,,,,,,,,,,,,,,,,B,125,circle,1,0,,,,,,,,,,,,,,,,repeat,number,numRpt,j,0.5562,Hi,,,,,,0,,,,,,,,low,31,0,31,0,1,,,,,,,,
298120,2022-11-14_22h31.22.074,vts_reward_expectancy_bt,2022.2.4,Win32,119.8465964,Chrome,1600,1067,,,,,1,730,,,,,,,,,,,,,,,,,F,167,star,1,0,,,,,,,,,,,,,,,,switch,letter,lettSwt,d,0.6554,Lo,,,,,,1,,,,,,space,4.7337,low,0,0,0,0,1,,,,,,,,
298120,2022-11-14_22h31.22.074,vts_reward_expectancy_bt,2022.2.4,Win32,119.8465964,Chrome,1600,1067,,,,,1,731,,,,,,,,,,,,,,,,,B,160,triangle,1,0,,,,,,,,,,,,,,,,switch,number,numSwt,k,0.5567,Lo,,,,,,1,,,,,,,,low,1,0,1,0,1,,,,,,,,
298120,2022-11-14_22h31.22.074,vts_reward_expectancy_bt,2022.2.4,Win32,119.8465964,Chrome,1600,1067,,,,,0,731,,,,,,,,,,,,,,,,,H,146,circle,1,0,,,,,,,,,,,,,,,,repeat,number,numRpt,j,0.6565,Hi,,,,,,1,,,,,,,,low,2,0,2,0,1,,,,,,,,
298120,2022-11-14_22h31.22.074,vts_reward_expectancy_bt,2022.2.4,Win32,119.8465964,Chrome,1600,1067,,,,,0,731,,,,,,,,,,,,,,,,,U,174,hexagon,1,0,,,,,,,,,,,,,,,,switch,letter,lettSwt,f,0.6258,Hi,,,,,,1,,,,,,,,low,3,0,3,0,1,,,,,,,,
298120,2022-11-14_22h31.22.074,vts_reward_expectancy_bt,2022.2.4,Win32,119.8465964,Chrome,1600,1067,,,,,1,732,,,,,,,,,,,,,,,,,Y,125,star,1,0,,,,,,,,,,,,,,,,repeat,letter,lettRpt,f,0.5565,Lo,,,,,,1,,,,,,,,low,4,0,4,0,1,,,,,,,,
298120,2022-11-14_22h31.22.074,vts_reward_expectancy_bt,2022.2.4,Win32,119.8465964,Chrome,1600,1067,,,,,1,733,,,,,,,,,,,,,,,,,W,181,triangle,1,0,,,,,,,,,,,,,,,,switch,number,numSwt,k,0.4649,Lo,,,,,,1,,,,,,,,low,5,0,5,0,1,,,,,,,,
298120,2022-11-14_22h31.22.074,vts_reward_expectancy_bt,2022.2.4,Win32,119.8465964,Chrome,1600,1067,,,,,0,733,,,,,,,,,,,,,,,,,S,139,circle,1,0,,,,,,,,,,,,,,,,switch,letter,lettSwt,f,0.6597,Hi,,,,,,1,,,,,,,,low,6,0,6,0,1,,,,,,,,
298120,2022-11-14_22h31.22.074,vts_reward_expectancy_bt,2022.2.4,Win32,119.8465964,Chrome,1600,1067,,,,,10,743,,,,,,,,,,,,,,,,,D,132,hexagon,1,0,,,,,,,,,,,,,,,,switch,number,numSwt,j,0.4815,Hi,,,,,,1,,,,,,,,low,7,0,7,0,1,,,,,,,,
298120,2022-11-14_22h31.22.074,vts_reward_expectancy_bt,2022.2.4,Win32,119.8465964,Chrome,1600,1067,,,,,0,743,,,,,,,,,,,,,,,,,F,167,star,0,0,,,,,,,,,,,,,,,,repeat,number,NA,j,0.4477,Hi,,,,,,1,,,,,,,,low,8,0,8,0,1,,,,,,,,
298120,2022-11-14_22h31.22.074,vts_reward_expectancy_bt,2022.2.4,Win32,119.8465964,Chrome,1600,1067,,,,,10,753,,,,,,,,,,,,,,,,,B,160,triangle,1,1,,,,,,,,,,,,,,,,switch,letter,lettSwt,d,0.4399,Lo,,,,,,1,,,,,,,,low,9,0,9,0,1,,,,,,,,
298120,2022-11-14_22h31.22.074,vts_reward_expectancy_bt,2022.2.4,Win32,119.8465964,Chrome,1600,1067,,,,,1,754,,,,,,,,,,,,,,,,,H,146,hexagon,1,0,,,,,,,,,,,,,,,,switch,number,numSwt,j,0.5151,Hi,,,,,,1,,,,,,,,low,10,0,10,0,1,,,,,,,,
298120,2022-11-14_22h31.22.074,vts_reward_expectancy_bt,2022.2.4,Win32,119.8465964,Chrome,1600,1067,,,,,0,754,,,,,,,,,,,,,,,,,U,174,circle,1,0,,,,,,,,,,,,,,,,repeat,number,numRpt,k,0.7716,Hi,,,,,,1,,,,,,,,low,11,0,11,0,1,,,,,,,,
298120,2022-11-14_22h31.22.074,vts_reward_expectancy_bt,2022.2.4,Win32,119.8465964,Chrome,1600,1067,,,,,1,755,,,,,,,,,,,,,,,,,Y,125,star,1,0,,,,,,,,,,,,,,,,repeat,number,numRpt,j,0.5479,Lo,,,,,,1,,,,,,,,low,12,0,12,0,1,,,,,,,,
298120,2022-11-14_22h31.22.074,vts_reward_expectancy_bt,2022.2.4,Win32,119.8465964,Chrome,1600,1067,,,,,1,756,,,,,,,,,,,,,,,,,W,181,triangle,1,0,,,,,,,,,,,,,,,,switch,letter,lettSwt,f,0.4937,Lo,,,,,,1,,,,,,,,low,13,0,13,0,1,,,,,,,,
298120,2022-11-14_22h31.22.074,vts_reward_expectancy_bt,2022.2.4,Win32,119.8465964,Chrome,1600,1067,,,,,10,766,,,,,,,,,,,,,,,,,S,139,circle,1,0,,,,,,,,,,,,,,,,switch,number,numSwt,j,0.4159,Hi,,,,,,1,,,,,,,,low,14,0,14,0,1,,,,,,,,
298120,2022-11-14_22h31.22.074,vts_reward_expectancy_bt,2022.2.4,Win32,119.8465964,Chrome,1600,1067,,,,,0,766,,,,,,,,,,,,,,,,,D,132,hexagon,1,0,,,,,,,,,,,,,,,,repeat,number,numRpt,j,0.4775,Hi,,,,,,1,,,,,,,,low,15,0,15,0,1,,,,,,,,
298120,2022-11-14_22h31.22.074,vts_reward_expectancy_bt,2022.2.4,Win32,119.8465964,Chrome,1600,1067,,,,,0,766,,,,,,,,,,,,,,,,,S,167,hexagon,1,0,,,,,,,,,,,,,,,,repeat,number,numRpt,k,0.6252,Hi,,,,,,1,,,,,,,,low,16,0,16,0,1,,,,,,,,
298120,2022-11-14_22h31.22.074,vts_reward_expectancy_bt,2022.2.4,Win32,119.8465964,Chrome,1600,1067,,,,,1,767,,,,,,,,,,,,,,,,,F,125,triangle,1,0,,,,,,,,,,,,,,,,repeat,number,numRpt,j,0.5175,Lo,,,,,,1,,,,,,,,low,17,0,17,0,1,,,,,,,,
298120,2022-11-14_22h31.22.074,vts_reward_expectancy_bt,2022.2.4,Win32,119.8465964,Chrome,1600,1067,,,,,10,777,,,,,,,,,,,,,,,,,B,132,circle,1,0,,,,,,,,,,,,,,,,switch,letter,lettSwt,d,0.4822,Hi,,,,,,1,,,,,,,,low,18,0,18,0,1,,,,,,,,
298120,2022-11-14_22h31.22.074,vts_reward_expectancy_bt,2022.2.4,Win32,119.8465964,Chrome,1600,1067,,,,,1,778,,,,,,,,,,,,,,,,,U,160,star,1,0,,,,,,,,,,,,,,,,repeat,letter,lettRpt,f,0.5569,Lo,,,,,,1,,,,,,,,low,19,0,19,0,1,,,,,,,,
298120,2022-11-14_22h31.22.074,vts_reward_expectancy_bt,2022.2.4,Win32,119.8465964,Chrome,1600,1067,,,,,1,779,,,,,,,,,,,,,,,,,Y,146,circle,1,0,,,,,,,,,,,,,,,,switch,number,numSwt,j,0.4898,Hi,,,,,,1,,,,,,,,low,20,0,20,0,1,,,,,,,,
298120,2022-11-14_22h31.22.074,vts_reward_expectancy_bt,2022.2.4,Win32,119.8465964,Chrome,1600,1067,,,,,0,779,,,,,,,,,,,,,,,,,H,139,hexagon,1,0,,,,,,,,,,,,,,,,switch,letter,lettSwt,d,0.7568,Hi,,,,,,1,,,,,,,,low,21,0,21,0,1,,,,,,,,
298120,2022-11-14_22h31.22.074,vts_reward_expectancy_bt,2022.2.4,Win32,119.8465964,Chrome,1600,1067,,,,,10,789,,,,,,,,,,,,,,,,,D,181,star,1,0,,,,,,,,,,,,,,,,switch,number,numSwt,k,0.6178,Lo,,,,,,1,,,,,,,,low,22,0,22,0,1,,,,,,,,
298120,2022-11-14_22h31.22.074,vts_reward_expectancy_bt,2022.2.4,Win32,119.8465964,Chrome,1600,1067,,,,,1,790,,,,,,,,,,,,,,,,,W,174,triangle,1,0,,,,,,,,,,,,,,,,repeat,number,numRpt,k,0.5819,Lo,,,,,,1,,,,,,,,low,23,0,23,0,1,,,,,,,,
298120,2022-11-14_22h31.22.074,vts_reward_expectancy_bt,2022.2.4,Win32,119.8465964,Chrome,1600,1067,,,,,1,791,,,,,,,,,,,,,,,,,F,146,triangle,1,0,,,,,,,,,,,,,,,,repeat,number,numRpt,j,0.5651,Lo,,,,,,1,,,,,,,,low,24,0,24,0,1,,,,,,,,
298120,2022-11-14_22h31.22.074,vts_reward_expectancy_bt,2022.2.4,Win32,119.8465964,Chrome,1600,1067,,,,,0,791,,,,,,,,,,,,,,,,,W,174,circle,1,0,,,,,,,,,,,,,,,,switch,letter,lettSwt,f,0.6068,Hi,,,,,,1,,,,,,,,low,25,0,25,0,1,,,,,,,,
298120,2022-11-14_22h31.22.074,vts_reward_expectancy_bt,2022.2.4,Win32,119.8465964,Chrome,1600,1067,,,,,1,792,,,,,,,,,,,,,,,,,H,181,star,1,0,,,,,,,,,,,,,,,,switch,number,numSwt,k,0.4389,Lo,,,,,,1,,,,,,,,low,26,0,26,0,1,,,,,,,,
298120,2022-11-14_22h31.22.074,vts_reward_expectancy_bt,2022.2.4,Win32,119.8465964,Chrome,1600,1067,,,,,0,792,,,,,,,,,,,,,,,,,U,139,hexagon,0,0,,,,,,,,,,,,,,,,repeat,number,NA,k,0.447,Lo,,,,,,1,,,,,,,,low,27,0,27,0,1,,,,,,,,
298120,2022-11-14_22h31.22.074,vts_reward_expectancy_bt,2022.2.4,Win32,119.8465964,Chrome,1600,1067,,,,,10,802,,,,,,,,,,,,,,,,,Y,125,star,1,1,,,,,,,,,,,,,,,,switch,letter,lettSwt,f,0.5388,Lo,,,,,,1,,,,,,,,low,28,0,28,0,1,,,,,,,,
298120,2022-11-14_22h31.22.074,vts_reward_expectancy_bt,2022.2.4,Win32,119.8465964,Chrome,1600,1067,,,,,1,803,,,,,,,,,,,,,,,,,B,160,triangle,1,0,,,,,,,,,,,,,,,,repeat,letter,lettRpt,d,0.5368,Lo,,,,,,1,,,,,,,,low,29,0,29,0,1,,,,,,,,
298120,2022-11-14_22h31.22.074,vts_reward_expectancy_bt,2022.2.4,Win32,119.8465964,Chrome,1600,1067,,,,,0,803,,,,,,,,,,,,,,,,,S,167,hexagon,1,0,,,,,,,,,,,,,,,,repeat,letter,lettRpt,f,0.577,Hi,,,,,,1,,,,,,,,low,30,0,30,0,1,,,,,,,,
298120,2022-11-14_22h31.22.074,vts_reward_expectancy_bt,2022.2.4,Win32,119.8465964,Chrome,1600,1067,,,,,0,803,,,,,,,,,,,,,,,,,D,132,circle,1,0,,,,,,,,,,,,,,,,repeat,letter,lettRpt,d,0.5863,Hi,,,,,,1,,,,,,,,low,31,0,31,0,1,,,,,,,,
298120,2022-11-14_22h31.22.074,vts_reward_expectancy_bt,2022.2.4,Win32,119.8465964,Chrome,1600,1067,,,,,1,804,,,,,,,,,,,,,,,,,Y,181,triangle,1,0,,,,,,,,,,,,,,,,repeat,letter,lettRpt,f,0.7056,Lo,,,,,,2,,,,,,space,1.2415,low,0,0,0,0,1,,,,,,,,
298120,2022-11-14_22h31.22.074,vts_reward_expectancy_bt,2022.2.4,Win32,119.8465964,Chrome,1600,1067,,,,,1,805,,,,,,,,,,,,,,,,,D,146,star,1,0,,,,,,,,,,,,,,,,switch,number,numSwt,j,0.7475,Lo,,,,,,2,,,,,,,,low,1,0,1,0,1,,,,,,,,
298120,2022-11-14_22h31.22.074,vts_reward_expectancy_bt,2022.2.4,Win32,119.8465964,Chrome,1600,1067,,,,,0,805,,,,,,,,,,,,,,,,,U,160,hexagon,1,0,,,,,,,,,,,,,,,,switch,letter,lettSwt,f,0.5993,Hi,,,,,,2,,,,,,,,low,2,0,2,0,1,,,,,,,,
298120,2022-11-14_22h31.22.074,vts_reward_expectancy_bt,2022.2.4,Win32,119.8465964,Chrome,1600,1067,,,,,0,805,,,,,,,,,,,,,,,,,H,174,circle,1,0,,,,,,,,,,,,,,,,switch,number,numSwt,k,0.5484,Hi,,,,,,2,,,,,,,,low,3,0,3,0,1,,,,,,,,
298120,2022-11-14_22h31.22.074,vts_reward_expectancy_bt,2022.2.4,Win32,119.8465964,Chrome,1600,1067,,,,,10,815,,,,,,,,,,,,,,,,,W,125,triangle,1,0,,,,,,,,,,,,,,,,repeat,number,numRpt,j,0.4327,Lo,,,,,,2,,,,,,,,low,4,0,4,0,1,,,,,,,,
298120,2022-11-14_22h31.22.074,vts_reward_expectancy_bt,2022.2.4,Win32,119.8465964,Chrome,1600,1067,,,,,10,825,,,,,,,,,,,,,,,,,B,132,star,1,0,,,,,,,,,,,,,,,,repeat,number,numRpt,j,0.3816,Lo,,,,,,2,,,,,,,,low,5,0,5,0,1,,,,,,,,
298120,2022-11-14_22h31.22.074,vts_reward_expectancy_bt,2022.2.4,Win32,119.8465964,Chrome,1600,1067,,,,,0,825,,,,,,,,,,,,,,,,,S,167,hexagon,0,0,,,,,,,,,,,,,,,,repeat,number,NA,j,0.4728,Lo,,,,,,2,,,,,,,,low,6,0,6,0,1,,,,,,,,
298120,2022-11-14_22h31.22.074,vts_reward_expectancy_bt,2022.2.4,Win32,119.8465964,Chrome,1600,1067,,,,,1,826,,,,,,,,,,,,,,,,,F,139,circle,1,1,,,,,,,,,,,,,,,,switch,letter,lettSwt,d,0.4731,Hi,,,,,,2,,,,,,,,low,7,0,7,0,1,,,,,,,,
298120,2022-11-14_22h31.22.074,vts_reward_expectancy_bt,2022.2.4,Win32,119.8465964,Chrome,1600,1067,,,,,0,826,,,,,,,,,,,,,,,,,Y,181,hexagon,1,0,,,,,,,,,,,,,,,,switch,number,numSwt,k,0.5135,Hi,,,,,,2,,,,,,,,low,8,0,8,0,1,,,,,,,,
298120,2022-11-14_22h31.22.074,vts_reward_expectancy_bt,2022.2.4,Win32,119.8465964,Chrome,1600,1067,,,,,10,836,,,,,,,,,,,,,,,,,D,146,star,1,0,,,,,,,,,,,,,,,,repeat,number,numRpt,j,0.5584,Lo,,,,,,2,,,,,,,,low,9,0,9,0,1,,,,,,,,
298120,2022-11-14_22h31.22.074,vts_reward_expectancy_bt,2022.2.4,Win32,119.8465964,Chrome,1600,1067,,,,,10,846,,,,,,,,,,,,,,,,,U,160,triangle,1,0,,,,,,,,,,,,,,,,repeat,number,numRpt,k,0.4814,Lo,,,,,,2,,,,,,,,low,10,0,10,0,1,,,,,,,,
298120,2022-11-14_22h31.22.074,vts_reward_expectancy_bt,2022.2.4,Win32,119.8465964,Chrome,1600,1067,,,,,0,846,,,,,,,,,,,,,,,,,H,174,circle,1,0,,,,,,,,,,,,,,,,repeat,number,numRpt,k,0.6556,Hi,,,,,,2,,,,,,,,low,11,0,11,0,1,,,,,,,,
298120,2022-11-14_22h31.22.074,vts_reward_expectancy_bt,2022.2.4,Win32,119.8465964,Chrome,1600,1067,,,,,10,856,,,,,,,,,,,,,,,,,W,125,triangle,1,0,,,,,,,,,,,,,,,,switch,letter,lettSwt,f,0.4555,Lo,,,,,,2,,,,,,,,low,12,0,12,0,1,,,,,,,,
298120,2022-11-14_22h31.22.074,vts_reward_expectancy_bt,2022.2.4,Win32,119.8465964,Chrome,1600,1067,,,,,1,857,,,,,,,,,,,,,,,,,B,132,hexagon,1,0,,,,,,,,,,,,,,,,repeat,letter,lettRpt,d,0.4899,Hi,,,,,,2,,,,,,,,low,13,0,13,0,1,,,,,,,,
298120,2022-11-14_22h31.22.074,vts_reward_expectancy_bt,2022.2.4,Win32,119.8465964,Chrome,1600,1067,,,,,10,867,,,,,,,,,,,,,,,,,S,167,circle,1,0,,,,,,,,,,,,,,,,repeat,letter,lettRpt,f,0.4489,Hi,,,,,,2,,,,,,,,low,14,0,14,0,1,,,,,,,,
298120,2022-11-14_22h31.22.074,vts_reward_expectancy_bt,2022.2.4,Win32,119.8465964,Chrome,1600,1067,,,,,10,877,,,,,,,,,,,,,,,,,F,139,star,1,0,,,,,,,,,,,,,,,,repeat,letter,lettRpt,d,0.4403,Lo,,,,,,2,,,,,,,,low,15,0,15,0,1,,,,,,,,
298120,2022-11-14_22h31.22.074,vts_reward_expectancy_bt,2022.2.4,Win32,119.8465964,Chrome,1600,1067,,,,,10,887,,,,,,,,,,,,,,,,,S,160,hexagon,1,0,,,,,,,,,,,,,,,,repeat,letter,lettRpt,f,0.5321,Hi,,,,,,2,,,,,,,,low,16,0,16,0,1,,,,,,,,
298120,2022-11-14_22h31.22.074,vts_reward_expectancy_bt,2022.2.4,Win32,119.8465964,Chrome,1600,1067,,,,,1,888,,,,,,,,,,,,,,,,,U,146,circle,1,0,,,,,,,,,,,,,,,,repeat,letter,lettRpt,f,0.4892,Hi,,,,,,2,,,,,,,,low,17,0,17,0,1,,,,,,,,
298120,2022-11-14_22h31.22.074,vts_reward_expectancy_bt,2022.2.4,Win32,119.8465964,Chrome,1600,1067,,,,,1,889,,,,,,,,,,,,,,,,,W,181,triangle,1,0,,,,,,,,,,,,,,,,switch,number,numSwt,k,0.6148,Lo,,,,,,2,,,,,,,,low,18,0,18,0,1,,,,,,,,
298120,2022-11-14_22h31.22.074,vts_reward_expectancy_bt,2022.2.4,Win32,119.8465964,Chrome,1600,1067,,,,,1,890,,,,,,,,,,,,,,,,,D,132,star,1,0,,,,,,,,,,,,,,,,switch,letter,lettSwt,d,0.4984,Lo,,,,,,2,,,,,,,,low,19,0,19,0,1,,,,,,,,
298120,2022-11-14_22h31.22.074,vts_reward_expectancy_bt,2022.2.4,Win32,119.8465964,Chrome,1600,1067,,,,,0,890,,,,,,,,,,,,,,,,,F,174,hexagon,1,0,,,,,,,,,,,,,,,,switch,number,numSwt,k,0.6823,Hi,,,,,,2,,,,,,,,low,20,0,20,0,1,,,,,,,,
298120,2022-11-14_22h31.22.074,vts_reward_expectancy_bt,2022.2.4,Win32,119.8465964,Chrome,1600,1067,,,,,1,891,,,,,,,,,,,,,,,,,Y,139,star,1,0,,,,,,,,,,,,,,,,repeat,number,numRpt,j,0.6314,Lo,,,,,,2,,,,,,,,low,21,0,21,0,1,,,,,,,,
298120,2022-11-14_22h31.22.074,vts_reward_expectancy_bt,2022.2.4,Win32,119.8465964,Chrome,1600,1067,,,,,1,892,,,,,,,,,,,,,,,,,B,167,triangle,1,0,,,,,,,,,,,,,,,,switch,letter,lettSwt,d,0.3026,Lo,,,,,,2,,,,,,,,low,22,0,22,0,1,,,,,,,,
298120,2022-11-14_22h31.22.074,vts_reward_expectancy_bt,2022.2.4,Win32,119.8465964,Chrome,1600,1067,,,,,1,893,,,,,,,,,,,,,,,,,H,125,circle,1,0,,,,,,,,,,,,,,,,switch,number,numSwt,j,0.4569,Hi,,,,,,2,,,,,,,,low,23,0,23,0,1,,,,,,,,
298120,2022-11-14_22h31.22.074,vts_reward_expectancy_bt,2022.2.4,Win32,119.8465964,Chrome,1600,1067,,,,,1,894,,,,,,,,,,,,,,,,,D,174,star,1,0,,,,,,,,,,,,,,,,switch,letter,lettSwt,d,0.5643,Lo,,,,,,2,,,,,,,,low,24,0,24,0,1,,,,,,,,
298120,2022-11-14_22h31.22.074,vts_reward_expectancy_bt,2022.2.4,Win32,119.8465964,Chrome,1600,1067,,,,,0,894,,,,,,,,,,,,,,,,,F,160,hexagon,1,0,,,,,,,,,,,,,,,,switch,number,numSwt,k,0.5565,Hi,,,,,,2,,,,,,,,low,25,0,25,0,1,,,,,,,,
298120,2022-11-14_22h31.22.074,vts_reward_expectancy_bt,2022.2.4,Win32,119.8465964,Chrome,1600,1067,,,,,10,904,,,,,,,,,,,,,,,,,H,125,circle,1,0,,,,,,,,,,,,,,,,switch,letter,lettSwt,d,0.3649,Hi,,,,,,2,,,,,,,,low,26,0,26,0,1,,,,,,,,
298120,2022-11-14_22h31.22.074,vts_reward_expectancy_bt,2022.2.4,Win32,119.8465964,Chrome,1600,1067,,,,,1,905,,,,,,,,,,,,,,,,,S,139,triangle,1,0,,,,,,,,,,,,,,,,repeat,letter,lettRpt,f,0.4978,Lo,,,,,,2,,,,,,,,low,27,0,27,0,1,,,,,,,,
298120,2022-11-14_22h31.22.074,vts_reward_expectancy_bt,2022.2.4,Win32,119.8465964,Chrome,1600,1067,,,,,0,905,,,,,,,,,,,,,,,,,W,167,hexagon,1,0,,,,,,,,,,,,,,,,switch,number,numSwt,k,0.6477,Hi,,,,,,2,,,,,,,,low,28,0,28,0,1,,,,,,,,
298120,2022-11-14_22h31.22.074,vts_reward_expectancy_bt,2022.2.4,Win32,119.8465964,Chrome,1600,1067,,,,,1,906,,,,,,,,,,,,,,,,,U,181,triangle,1,0,,,,,,,,,,,,,,,,repeat,number,numRpt,k,0.5679,Lo,,,,,,2,,,,,,,,low,29,0,29,0,1,,,,,,,,
298120,2022-11-14_22h31.22.074,vts_reward_expectancy_bt,2022.2.4,Win32,119.8465964,Chrome,1600,1067,,,,,0,906,,,,,,,,,,,,,,,,,B,132,circle,0,0,,,,,,,,,,,,,,,,repeat,number,NA,k,0.4569,Lo,,,,,,2,,,,,,,,low,30,0,30,0,1,,,,,,,,
298120,2022-11-14_22h31.22.074,vts_reward_expectancy_bt,2022.2.4,Win32,119.8465964,Chrome,1600,1067,,,,,1,907,,,,,,,,,,,,,,,,,Y,146,star,1,1,,,,,,,,,,,,,,,,switch,letter,lettSwt,f,0.54,Lo,,,,,,2,,,,,,,,low,31,0,31,0,1,,,,,,,,
298120,2022-11-14_22h31.22.074,vts_reward_expectancy_bt,2022.2.4,Win32,119.8465964,Chrome,1600,1067,,,,,1,908,,,,,,,,,,,,,,,,,H,132,star,1,0,,,,,,,,,,,,,,,,repeat,letter,lettRpt,d,0.5561,Lo,,,,,,3,,,,,,space,2.6186,low,0,0,0,0,1,,,,,,,,
298120,2022-11-14_22h31.22.074,vts_reward_expectancy_bt,2022.2.4,Win32,119.8465964,Chrome,1600,1067,,,,,10,918,,,,,,,,,,,,,,,,,B,125,circle,1,0,,,,,,,,,,,,,,,,switch,number,numSwt,j,0.447,Hi,,,,,,3,,,,,,,,low,1,0,1,0,1,,,,,,,,
298120,2022-11-14_22h31.22.074,vts_reward_expectancy_bt,2022.2.4,Win32,119.8465964,Chrome,1600,1067,,,,,10,928,,,,,,,,,,,,,,,,,S,167,triangle,1,0,,,,,,,,,,,,,,,,switch,letter,lettSwt,f,0.6553,Lo,,,,,,3,,,,,,,,low,2,0,2,0,1,,,,,,,,
298120,2022-11-14_22h31.22.074,vts_reward_expectancy_bt,2022.2.4,Win32,119.8465964,Chrome,1600,1067,,,,,1,929,,,,,,,,,,,,,,,,,W,181,hexagon,1,0,,,,,,,,,,,,,,,,repeat,letter,lettRpt,f,0.3812,Hi,,,,,,3,,,,,,,,low,3,0,3,0,1,,,,,,,,
298120,2022-11-14_22h31.22.074,vts_reward_expectancy_bt,2022.2.4,Win32,119.8465964,Chrome,1600,1067,,,,,0,929,,,,,,,,,,,,,,,,,Y,174,star,0,0,,,,,,,,,,,,,,,,switch,number,NA,j,0.4441,Hi,,,,,,3,,,,,,,,low,4,0,4,0,1,,,,,,,,
298120,2022-11-14_22h31.22.074,vts_reward_expectancy_bt,2022.2.4,Win32,119.8465964,Chrome,1600,1067,,,,,1,930,,,,,,,,,,,,,,,,,F,146,circle,1,1,,,,,,,,,,,,,,,,switch,letter,lettSwt,d,0.4069,Hi,,,,,,3,,,,,,,,low,5,0,5,0,1,,,,,,,,
298120,2022-11-14_22h31.22.074,vts_reward_expectancy_bt,2022.2.4,Win32,119.8465964,Chrome,1600,1067,,,,,1,931,,,,,,,,,,,,,,,,,D,139,triangle,1,0,,,,,,,,,,,,,,,,switch,number,numSwt,j,0.4242,Lo,,,,,,3,,,,,,,,low,6,0,6,0,1,,,,,,,,
298120,2022-11-14_22h31.22.074,vts_reward_expectancy_bt,2022.2.4,Win32,119.8465964,Chrome,1600,1067,,,,,1,932,,,,,,,,,,,,,,,,,U,160,hexagon,1,0,,,,,,,,,,,,,,,,switch,letter,lettSwt,f,0.4066,Hi,,,,,,3,,,,,,,,low,7,0,7,0,1,,,,,,,,
298120,2022-11-14_22h31.22.074,vts_reward_expectancy_bt,2022.2.4,Win32,119.8465964,Chrome,1600,1067,,,,,0,932,,,,,,,,,,,,,,,,,H,132,triangle,0,0,,,,,,,,,,,,,,,,switch,number,NA,k,0.2399,Hi,,,,,,3,,,,,,,,low,8,0,8,0,1,,,,,,,,
298120,2022-11-14_22h31.22.074,vts_reward_expectancy_bt,2022.2.4,Win32,119.8465964,Chrome,1600,1067,,,,,1,933,,,,,,,,,,,,,,,,,B,125,star,1,1,,,,,,,,,,,,,,,,switch,letter,lettSwt,d,0.4303,Lo,,,,,,3,,,,,,,,low,9,0,9,0,1,,,,,,,,
298120,2022-11-14_22h31.22.074,vts_reward_expectancy_bt,2022.2.4,Win32,119.8465964,Chrome,1600,1067,,,,,0,933,,,,,,,,,,,,,,,,,S,167,circle,1,0,,,,,,,,,,,,,,,,switch,number,numSwt,k,0.5904,Hi,,,,,,3,,,,,,,,low,10,0,10,0,1,,,,,,,,
298120,2022-11-14_22h31.22.074,vts_reward_expectancy_bt,2022.2.4,Win32,119.8465964,Chrome,1600,1067,,,,,0,933,,,,,,,,,,,,,,,,,W,181,hexagon,1,0,,,,,,,,,,,,,,,,repeat,number,numRpt,k,0.5732,Hi,,,,,,3,,,,,,,,low,11,0,11,0,1,,,,,,,,
298120,2022-11-14_22h31.22.074,vts_reward_expectancy_bt,2022.2.4,Win32,119.8465964,Chrome,1600,1067,,,,,10,943,,,,,,,,,,,,,,,,,Y,174,hexagon,1,0,,,,,,,,,,,,,,,,repeat,number,numRpt,k,0.4641,Hi,,,,,,3,,,,,,,,low,12,0,12,0,1,,,,,,,,
298120,2022-11-14_22h31.22.074,vts_reward_expectancy_bt,2022.2.4,Win32,119.8465964,Chrome,1600,1067,,,,,1,944,,,,,,,,,,,,,,,,,F,146,star,1,0,,,,,,,,,,,,,,,,repeat,number,numRpt,j,0.3721,Lo,,,,,,3,,,,,,,,low,13,0,13,0,1,,,,,,,,
298120,2022-11-14_22h31.22.074,vts_reward_expectancy_bt,2022.2.4,Win32,119.8465964,Chrome,1600,1067,,,,,1,945,,,,,,,,,,,,,,,,,D,139,triangle,1,0,,,,,,,,,,,,,,,,switch,letter,lettSwt,d,0.4991,Lo,,,,,,3,,,,,,,,low,14,0,14,0,1,,,,,,,,
298120,2022-11-14_22h31.22.074,vts_reward_expectancy_bt,2022.2.4,Win32,119.8465964,Chrome,1600,1067,,,,,0,945,,,,,,,,,,,,,,,,,U,160,circle,1,0,,,,,,,,,,,,,,,,repeat,letter,lettRpt,f,0.5306,Hi,,,,,,3,,,,,,,,low,15,0,15,0,1,,,,,,,,
298120,2022-11-14_22h31.22.074,vts_reward_expectancy_bt,2022.2.4,Win32,119.8465964,Chrome,1600,1067,,,,,0,945,,,,,,,,,,,,,,,,,U,174,hexagon,1,0,,,,,,,,,,,,,,,,repeat,letter,lettRpt,f,0.5245,Hi,,,,,,3,,,,,,,,low,16,0,16,0,1,,,,,,,,
298120,2022-11-14_22h31.22.074,vts_reward_expectancy_bt,2022.2.4,Win32,119.8465964,Chrome,1600,1067,,,,,10,955,,,,,,,,,,,,,,,,,H,160,triangle,1,0,,,,,,,,,,,,,,,,switch,number,numSwt,k,0.4105,Lo,,,,,,3,,,,,,,,low,17,0,17,0,1,,,,,,,,
298120,2022-11-14_22h31.22.074,vts_reward_expectancy_bt,2022.2.4,Win32,119.8465964,Chrome,1600,1067,,,,,0,955,,,,,,,,,,,,,,,,,S,132,circle,1,0,,,,,,,,,,,,,,,,switch,letter,lettSwt,f,0.5793,Hi,,,,,,3,,,,,,,,low,18,0,18,0,1,,,,,,,,
298120,2022-11-14_22h31.22.074,vts_reward_expectancy_bt,2022.2.4,Win32,119.8465964,Chrome,1600,1067,,,,,0,955,,,,,,,,,,,,,,,,,F,139,star,0,0,,,,,,,,,,,,,,,,switch,number,NA,k,0.3734,Hi,,,,,,3,,,,,,,,low,19,0,19,0,1,,,,,,,,
298120,2022-11-14_22h31.22.074,vts_reward_expectancy_bt,2022.2.4,Win32,119.8465964,Chrome,1600,1067,,,,,1,956,,,,,,,,,,,,,,,,,B,146,star,1,1,,,,,,,,,,,,,,,,switch,letter,lettSwt,d,0.447,Lo,,,,,,3,,,,,,,,low,20,0,20,0,1,,,,,,,,
298120,2022-11-14_22h31.22.074,vts_reward_expectancy_bt,2022.2.4,Win32,119.8465964,Chrome,1600,1067,,,,,0,956,,,,,,,,,,,,,,,,,D,181,hexagon,0,0,,,,,,,,,,,,,,,,switch,number,NA,j,0.4145,Lo,,,,,,3,,,,,,,,low,21,0,21,0,1,,,,,,,,
298120,2022-11-14_22h31.22.074,vts_reward_expectancy_bt,2022.2.4,Win32,119.8465964,Chrome,1600,1067,,,,,1,957,,,,,,,,,,,,,,,,,Y,167,triangle,1,1,,,,,,,,,,,,,,,,repeat,number,numRpt,k,0.4565,Lo,,,,,,3,,,,,,,,low,22,0,22,0,1,,,,,,,,
298120,2022-11-14_22h31.22.074,vts_reward_expectancy_bt,2022.2.4,Win32,119.8465964,Chrome,1600,1067,,,,,10,967,,,,,,,,,,,,,,,,,W,125,circle,1,0,,,,,,,,,,,,,,,,switch,letter,lettSwt,f,0.4236,Hi,,,,,,3,,,,,,,,low,23,0,23,0,1,,,,,,,,
298120,2022-11-14_22h31.22.074,vts_reward_expectancy_bt,2022.2.4,Win32,119.8465964,Chrome,1600,1067,,,,,1,968,,,,,,,,,,,,,,,,,Y,174,triangle,1,0,,,,,,,,,,,,,,,,repeat,letter,lettRpt,f,0.4742,Lo,,,,,,3,,,,,,,,low,24,0,24,0,1,,,,,,,,
298120,2022-11-14_22h31.22.074,vts_reward_expectancy_bt,2022.2.4,Win32,119.8465964,Chrome,1600,1067,,,,,10,978,,,,,,,,,,,,,,,,,U,160,hexagon,1,0,,,,,,,,,,,,,,,,switch,number,numSwt,k,0.4983,Hi,,,,,,3,,,,,,,,low,25,0,25,0,1,,,,,,,,
298120,2022-11-14_22h31.22.074,vts_reward_expectancy_bt,2022.2.4,Win32,119.8465964,Chrome,1600,1067,,,,,0,978,,,,,,,,,,,,,,,,,S,139,star,0,0,,,,,,,,,,,,,,,,repeat,number,NA,k,0.4724,Hi,,,,,,3,,,,,,,,low,26,0,26,0,1,,,,,,,,
298120,2022-11-14_22h31.22.074,vts_reward_expectancy_bt,2022.2.4,Win32,119.8465964,Chrome,1600,1067,,,,,0,978,,,,,,,,,,,,,,,,,H,132,circle,1,1,,,,,,,,,,,,,,,,repeat,number,numRpt,j,0.4992,Hi,,,,,,3,,,,,,,,low,27,0,27,0,1,,,,,,,,
298120,2022-11-14_22h31.22.074,vts_reward_expectancy_bt,2022.2.4,Win32,119.8465964,Chrome,1600,1067,,,,,10,988,,,,,,,,,,,,,,,,,W,146,star,1,0,,,,,,,,,,,,,,,,repeat,number,numRpt,j,0.5453,Lo,,,,,,3,,,,,,,,low,28,0,28,0,1,,,,,,,,
298120,2022-11-14_22h31.22.074,vts_reward_expectancy_bt,2022.2.4,Win32,119.8465964,Chrome,1600,1067,,,,,10,998,,,,,,,,,,,,,,,,,D,125,hexagon,1,0,,,,,,,,,,,,,,,,repeat,number,numRpt,j,0.44,Hi,,,,,,3,,,,,,,,low,29,0,29,0,1,,,,,,,,
298120,2022-11-14_22h31.22.074,vts_reward_expectancy_bt,2022.2.4,Win32,119.8465964,Chrome,1600,1067,,,,,10,1008,,,,,,,,,,,,,,,,,F,167,triangle,1,0,,,,,,,,,,,,,,,,repeat,number,numRpt,k,0.6397,Lo,,,,,,3,,,,,,,,low,30,0,30,0,1,,,,,,,,
298120,2022-11-14_22h31.22.074,vts_reward_expectancy_bt,2022.2.4,Win32,119.8465964,Chrome,1600,1067,,,,,0,1008,,,,,,,,,,,,,,,,,B,181,circle,1,0,,,,,,,,,,,,,,,,repeat,number,numRpt,k,0.5902,Hi,,,,,,3,,,,,,,,low,31,0,31,0,1,,,,,,,,
298120,2022-11-14_22h31.22.074,vts_reward_expectancy_bt,2022.2.4,Win32,119.8465964,Chrome,1600,1067,,,,,0,1008,,,,,,,,,,,,,,,,,W,132,hexagon,1,0,,,,,,,,,,,,,,,,switch,letter,lettSwt,f,0.6141,Hi,,,,,,4,,,,,,space,1.7887,low,0,0,0,0,1,,,,,,,,
298120,2022-11-14_22h31.22.074,vts_reward_expectancy_bt,2022.2.4,Win32,119.8465964,Chrome,1600,1067,,,,,1,1009,,,,,,,,,,,,,,,,,Y,181,star,1,0,,,,,,,,,,,,,,,,switch,number,numSwt,k,0.5329,Lo,,,,,,4,,,,,,,,low,1,0,1,0,1,,,,,,,,
298120,2022-11-14_22h31.22.074,vts_reward_expectancy_bt,2022.2.4,Win32,119.8465964,Chrome,1600,1067,,,,,10,1019,,,,,,,,,,,,,,,,,F,139,circle,1,0,,,,,,,,,,,,,,,,switch,letter,lettSwt,d,0.4136,Hi,,,,,,4,,,,,,,,low,2,0,2,0,1,,,,,,,,
298120,2022-11-14_22h31.22.074,vts_reward_expectancy_bt,2022.2.4,Win32,119.8465964,Chrome,1600,1067,,,,,10,1029,,,,,,,,,,,,,,,,,H,174,triangle,1,0,,,,,,,,,,,,,,,,repeat,letter,lettRpt,d,0.4238,Lo,,,,,,4,,,,,,,,low,3,0,3,0,1,,,,,,,,
298120,2022-11-14_22h31.22.074,vts_reward_expectancy_bt,2022.2.4,Win32,119.8465964,Chrome,1600,1067,,,,,10,1039,,,,,,,,,,,,,,,,,D,125,hexagon,1,0,,,,,,,,,,,,,,,,repeat,letter,lettRpt,d,0.4395,Hi,,,,,,4,,,,,,,,low,4,0,4,0,1,,,,,,,,
298120,2022-11-14_22h31.22.074,vts_reward_expectancy_bt,2022.2.4,Win32,119.8465964,Chrome,1600,1067,,,,,1,1040,,,,,,,,,,,,,,,,,B,167,star,1,0,,,,,,,,,,,,,,,,repeat,letter,lettRpt,d,0.4826,Lo,,,,,,4,,,,,,,,low,5,0,5,0,1,,,,,,,,
298120,2022-11-14_22h31.22.074,vts_reward_expectancy_bt,2022.2.4,Win32,119.8465964,Chrome,1600,1067,,,,,0,1040,,,,,,,,,,,,,,,,,S,146,circle,0,0,,,,,,,,,,,,,,,,switch,number,NA,k,0.5982,Lo,,,,,,4,,,,,,,,low,6,0,6,0,1,,,,,,,,
298120,2022-11-14_22h31.22.074,vts_reward_expectancy_bt,2022.2.4,Win32,119.8465964,Chrome,1600,1067,,,,,10,1050,,,,,,,,,,,,,,,,,U,160,triangle,1,1,,,,,,,,,,,,,,,,repeat,number,numRpt,k,0.5892,Lo,,,,,,4,,,,,,,,low,7,0,7,0,1,,,,,,,,
298120,2022-11-14_22h31.22.074,vts_reward_expectancy_bt,2022.2.4,Win32,119.8465964,Chrome,1600,1067,,,,,0,1050,,,,,,,,,,,,,,,,,W,132,circle,1,0,,,,,,,,,,,,,,,,repeat,number,numRpt,j,0.474,Hi,,,,,,4,,,,,,,,low,8,0,8,0,1,,,,,,,,
298120,2022-11-14_22h31.22.074,vts_reward_expectancy_bt,2022.2.4,Win32,119.8465964,Chrome,1600,1067,,,,,10,1060,,,,,,,,,,,,,,,,,Y,181,triangle,1,0,,,,,,,,,,,,,,,,switch,letter,lettSwt,f,0.6267,Lo,,,,,,4,,,,,,,,low,9,0,9,0,1,,,,,,,,
298120,2022-11-14_22h31.22.074,vts_reward_expectancy_bt,2022.2.4,Win32,119.8465964,Chrome,1600,1067,,,,,1,1061,,,,,,,,,,,,,,,,,F,139,hexagon,1,0,,,,,,,,,,,,,,,,switch,number,numSwt,j,0.3226,Hi,,,,,,4,,,,,,,,low,10,0,10,0,1,,,,,,,,
298120,2022-11-14_22h31.22.074,vts_reward_expectancy_bt,2022.2.4,Win32,119.8465964,Chrome,1600,1067,,,,,1,1062,,,,,,,,,,,,,,,,,H,174,star,1,0,,,,,,,,,,,,,,,,repeat,number,numRpt,k,0.422,Lo,,,,,,4,,,,,,,,low,11,0,11,0,1,,,,,,,,
298120,2022-11-14_22h31.22.074,vts_reward_expectancy_bt,2022.2.4,Win32,119.8465964,Chrome,1600,1067,,,,,10,1072,,,,,,,,,,,,,,,,,D,125,triangle,1,0,,,,,,,,,,,,,,,,repeat,number,numRpt,j,0.5385,Lo,,,,,,4,,,,,,,,low,12,0,12,0,1,,,,,,,,
298120,2022-11-14_22h31.22.074,vts_reward_expectancy_bt,2022.2.4,Win32,119.8465964,Chrome,1600,1067,,,,,1,1073,,,,,,,,,,,,,,,,,B,167,circle,1,0,,,,,,,,,,,,,,,,repeat,number,numRpt,k,0.457,Hi,,,,,,4,,,,,,,,low,13,0,13,0,1,,,,,,,,
298120,2022-11-14_22h31.22.074,vts_reward_expectancy_bt,2022.2.4,Win32,119.8465964,Chrome,1600,1067,,,,,0,1073,,,,,,,,,,,,,,,,,S,146,hexagon,1,0,,,,,,,,,,,,,,,,switch,letter,lettSwt,f,0.4828,Hi,,,,,,4,,,,,,,,low,14,0,14,0,1,,,,,,,,
298120,2022-11-14_22h31.22.074,vts_reward_expectancy_bt,2022.2.4,Win32,119.8465964,Chrome,1600,1067,,,,,1,1074,,,,,,,,,,,,,,,,,U,160,star,1,0,,,,,,,,,,,,,,,,switch,number,numSwt,k,0.5311,Lo,,,,,,4,,,,,,,,low,15,0,15,0,1,,,,,,,,
298120,2022-11-14_22h31.22.074,vts_reward_expectancy_bt,2022.2.4,Win32,119.8465964,Chrome,1600,1067,,,,,10,1084,,,,,,,,,,,,,,,,,S,181,star,1,0,,,,,,,,,,,,,,,,switch,letter,lettSwt,f,0.4765,Lo,,,,,,4,,,,,,,,low,16,0,16,0,1,,,,,,,,
298120,2022-11-14_22h31.22.074,vts_reward_expectancy_bt,2022.2.4,Win32,119.8465964,Chrome,1600,1067,,,,,0,1084,,,,,,,,,,,,,,,,,F,132,hexagon,1,0,,,,,,,,,,,,,,,,repeat,letter,lettRpt,d,0.5646,Hi,,,,,,4,,,,,,,,low,17,0,17,0,1,,,,,,,,
298120,2022-11-14_22h31.22.074,vts_reward_expectancy_bt,2022.2.4,Win32,119.8465964,Chrome,1600,1067,,,,,1,1085,,,,,,,,,,,,,,,,,U,160,triangle,1,0,,,,,,,,,,,,,,,,switch,number,numSwt,k,0.6742,Lo,,,,,,4,,,,,,,,low,18,0,18,0,1,,,,,,,,
298120,2022-11-14_22h31.22.074,vts_reward_expectancy_bt,2022.2.4,Win32,119.8465964,Chrome,1600,1067,,,,,0,1085,,,,,,,,,,,,,,,,,Y,139,circle,1,0,,,,,,,,,,,,,,,,switch,letter,lettSwt,f,0.5394,Hi,,,,,,4,,,,,,,,low,19,0,19,0,1,,,,,,,,
298120,2022-11-14_22h31.22.074,vts_reward_expectancy_bt,2022.2.4,Win32,119.8465964,Chrome,1600,1067,,,,,10,1095,,,,,,,,,,,,,,,,,D,125,star,1,0,,,,,,,,,,,,,,,,switch,number,numSwt,j,0.4649,Lo,,,,,,4,,,,,,,,low,20,0,20,0,1,,,,,,,,
298120,2022-11-14_22h31.22.074,vts_reward_expectancy_bt,2022.2.4,Win32,119.8465964,Chrome,1600,1067,,,,,0,1095,,,,,,,,,,,,,,,,,H,174,hexagon,0,0,,,,,,,,,,,,,,,,repeat,number,NA,j,0.5066,Lo,,,,,,4,,,,,,,,low,21,0,21,0,1,,,,,,,,
298120,2022-11-14_22h31.22.074,vts_reward_expectancy_bt,2022.2.4,Win32,119.8465964,Chrome,1600,1067,,,,,0,1095,,,,,,,,,,,,,,,,,B,167,circle,1,1,,,,,,,,,,,,,,,,switch,letter,lettSwt,d,0.6435,Hi,,,,,,4,,,,,,,,low,22,0,22,0,1,,,,,,,,
298120,2022-11-14_22h31.22.074,vts_reward_expectancy_bt,2022.2.4,Win32,119.8465964,Chrome,1600,1067,,,,,0,1095,,,,,,,,,,,,,,,,,W,146,triangle,0,0,,,,,,,,,,,,,,,,repeat,letter,NA,d,0.951,Hi,,,,,,4,,,,,,,,low,23,0,23,0,1,,,,,,,,
298120,2022-11-14_22h31.22.074,vts_reward_expectancy_bt,2022.2.4,Win32,119.8465964,Chrome,1600,1067,,,,,0,1095,,,,,,,,,,,,,,,,,S,125,triangle,-1,1,,,,,,,,,,,,,,,,switch,no_choice,NA,,,Hi,,,,,,4,,,,,,,,low,24,0,24,0,1,,,,,,,,
298120,2022-11-14_22h31.22.074,vts_reward_expectancy_bt,2022.2.4,Win32,119.8465964,Chrome,1600,1067,,,,,0,1095,,,,,,,,,,,,,,,,,B,132,hexagon,-1,0,,,,,,,,,,,,,,,,repeat,no_choice,NA,,,Hi,,,,,,4,,,,,,,,low,25,0,25,0,1,,,,,,,,
298120,2022-11-14_22h31.22.074,vts_reward_expectancy_bt,2022.2.4,Win32,119.8465964,Chrome,1600,1067,,,,,0,1095,,,,,,,,,,,,,,,,,Y,167,circle,-1,0,,,,,,,,,,,,,,,,repeat,no_choice,NA,,,Hi,,,,,,4,,,,,,,,low,26,0,26,0,1,,,,,,,,
298120,2022-11-14_22h31.22.074,vts_reward_expectancy_bt,2022.2.4,Win32,119.8465964,Chrome,1600,1067,,,,,0,1095,,,,,,,,,,,,,,,,,W,160,star,-1,0,,,,,,,,,,,,,,,,repeat,no_choice,NA,,,Hi,,,,,,4,,,,,,,,low,27,0,27,0,1,,,,,,,,
298120,2022-11-14_22h31.22.074,vts_reward_expectancy_bt,2022.2.4,Win32,119.8465964,Chrome,1600,1067,,,,,0,1095,,,,,,,,,,,,,,,,,F,174,hexagon,-1,0,,,,,,,,,,,,,,,,repeat,no_choice,NA,,,Hi,,,,,,4,,,,,,,,low,28,0,28,0,1,,,,,,,,
298120,2022-11-14_22h31.22.074,vts_reward_expectancy_bt,2022.2.4,Win32,119.8465964,Chrome,1600,1067,,,,,0,1095,,,,,,,,,,,,,,,,,H,146,circle,0,0,,,,,,,,,,,,,,,,switch,number,NA,k,0.5835,Hi,,,,,,4,,,,,,,,low,29,0,29,0,1,,,,,,,,
298120,2022-11-14_22h31.22.074,vts_reward_expectancy_bt,2022.2.4,Win32,119.8465964,Chrome,1600,1067,,,,,0,1095,,,,,,,,,,,,,,,,,D,181,star,0,1,,,,,,,,,,,,,,,,switch,letter,NA,f,0.6094,Hi,,,,,,4,,,,,,,,low,30,0,30,0,1,,,,,,,,
298120,2022-11-14_22h31.22.074,vts_reward_expectancy_bt,2022.2.4,Win32,119.8465964,Chrome,1600,1067,,,,,1,1096,,,,,,,,,,,,,,,,,U,139,triangle,1,1,,,,,,,,,,,,,,,,repeat,letter,lettRpt,f,0.6932,Lo,,,,,,4,,,,,,,,low,31,0,31,0,1,,,,,,,,
298120,2022-11-14_22h31.22.074,vts_reward_expectancy_bt,2022.2.4,Win32,119.8465964,Chrome,1600,1067,,,,,1,1097,,,,,,,,,,,,,,,,,W,174,star,1,0,,,,,,,,,,,,,,,,repeat,letter,lettRpt,f,0.7973,Lo,,,,,,5,,,,,,space,2.0335,low,0,0,0,0,1,,,,,,,,
298120,2022-11-14_22h31.22.074,vts_reward_expectancy_bt,2022.2.4,Win32,119.8465964,Chrome,1600,1067,,,,,10,1107,,,,,,,,,,,,,,,,,D,125,circle,1,0,,,,,,,,,,,,,,,,switch,number,numSwt,j,0.3732,Hi,,,,,,5,,,,,,,,low,1,0,1,0,1,,,,,,,,
298120,2022-11-14_22h31.22.074,vts_reward_expectancy_bt,2022.2.4,Win32,119.8465964,Chrome,1600,1067,,,,,10,1117,,,,,,,,,,,,,,,,,H,139,hexagon,1,0,,,,,,,,,,,,,,,,repeat,number,numRpt,j,0.4567,Hi,,,,,,5,,,,,,,,low,2,0,2,0,1,,,,,,,,
298120,2022-11-14_22h31.22.074,vts_reward_expectancy_bt,2022.2.4,Win32,119.8465964,Chrome,1600,1067,,,,,1,1118,,,,,,,,,,,,,,,,,U,132,triangle,1,0,,,,,,,,,,,,,,,,repeat,number,numRpt,j,0.5563,Lo,,,,,,5,,,,,,,,low,3,0,3,0,1,,,,,,,,
298120,2022-11-14_22h31.22.074,vts_reward_expectancy_bt,2022.2.4,Win32,119.8465964,Chrome,1600,1067,,,,,10,1128,,,,,,,,,,,,,,,,,F,181,star,1,0,,,,,,,,,,,,,,,,repeat,number,numRpt,k,0.5403,Lo,,,,,,5,,,,,,,,low,4,0,4,0,1,,,,,,,,
298120,2022-11-14_22h31.22.074,vts_reward_expectancy_bt,2022.2.4,Win32,119.8465964,Chrome,1600,1067,,,,,0,1128,,,,,,,,,,,,,,,,,S,167,circle,1,0,,,,,,,,,,,,,,,,repeat,number,numRpt,k,0.54,Hi,,,,,,5,,,,,,,,low,5,0,5,0,1,,,,,,,,
298120,2022-11-14_22h31.22.074,vts_reward_expectancy_bt,2022.2.4,Win32,119.8465964,Chrome,1600,1067,,,,,10,1138,,,,,,,,,,,,,,,,,B,146,hexagon,1,0,,,,,,,,,,,,,,,,switch,letter,lettSwt,d,0.3987,Hi,,,,,,5,,,,,,,,low,6,0,6,0,1,,,,,,,,
298120,2022-11-14_22h31.22.074,vts_reward_expectancy_bt,2022.2.4,Win32,119.8465964,Chrome,1600,1067,,,,,1,1139,,,,,,,,,,,,,,,,,Y,160,triangle,1,0,,,,,,,,,,,,,,,,repeat,letter,lettRpt,f,0.5397,Lo,,,,,,5,,,,,,,,low,7,0,7,0,1,,,,,,,,
298120,2022-11-14_22h31.22.074,vts_reward_expectancy_bt,2022.2.4,Win32,119.8465964,Chrome,1600,1067,,,,,1,1140,,,,,,,,,,,,,,,,,W,174,star,1,0,,,,,,,,,,,,,,,,switch,number,numSwt,k,0.4425,Lo,,,,,,5,,,,,,,,low,8,0,8,0,1,,,,,,,,
298120,2022-11-14_22h31.22.074,vts_reward_expectancy_bt,2022.2.4,Win32,119.8465964,Chrome,1600,1067,,,,,10,1150,,,,,,,,,,,,,,,,,D,125,circle,1,0,,,,,,,,,,,,,,,,switch,letter,lettSwt,d,0.434,Hi,,,,,,5,,,,,,,,low,9,0,9,0,1,,,,,,,,
298120,2022-11-14_22h31.22.074,vts_reward_expectancy_bt,2022.2.4,Win32,119.8465964,Chrome,1600,1067,,,,,10,1160,,,,,,,,,,,,,,,,,H,139,triangle,1,0,,,,,,,,,,,,,,,,repeat,letter,lettRpt,d,0.5316,Lo,,,,,,5,,,,,,,,low,10,0,10,0,1,,,,,,,,
298120,2022-11-14_22h31.22.074,vts_reward_expectancy_bt,2022.2.4,Win32,119.8465964,Chrome,1600,1067,,,,,0,1160,,,,,,,,,,,,,,,,,U,132,hexagon,1,0,,,,,,,,,,,,,,,,repeat,letter,lettRpt,f,0.49,Hi,,,,,,5,,,,,,,,low,11,0,11,0,1,,,,,,,,
298120,2022-11-14_22h31.22.074,vts_reward_expectancy_bt,2022.2.4,Win32,119.8465964,Chrome,1600,1067,,,,,1,1161,,,,,,,,,,,,,,,,,F,181,triangle,1,0,,,,,,,,,,,,,,,,switch,number,numSwt,k,0.4789,Lo,,,,,,5,,,,,,,,low,12,0,12,0,1,,,,,,,,
298120,2022-11-14_22h31.22.074,vts_reward_expectancy_bt,2022.2.4,Win32,119.8465964,Chrome,1600,1067,,,,,0,1161,,,,,,,,,,,,,,,,,S,167,hexagon,1,0,,,,,,,,,,,,,,,,switch,letter,lettSwt,f,0.591,Hi,,,,,,5,,,,,,,,low,13,0,13,0,1,,,,,,,,
298120,2022-11-14_22h31.22.074,vts_reward_expectancy_bt,2022.2.4,Win32,119.8465964,Chrome,1600,1067,,,,,10,1171,,,,,,,,,,,,,,,,,B,146,star,1,0,,,,,,,,,,,,,,,,switch,number,numSwt,j,0.5391,Lo,,,,,,5,,,,,,,,low,14,0,14,0,1,,,,,,,,
298120,2022-11-14_22h31.22.074,vts_reward_expectancy_bt,2022.2.4,Win32,119.8465964,Chrome,1600,1067,,,,,0,1171,,,,,,,,,,,,,,,,,Y,160,circle,1,0,,,,,,,,,,,,,,,,repeat,number,numRpt,k,0.5396,Hi,,,,,,5,,,,,,,,low,15,0,15,0,1,,,,,,,,
298120,2022-11-14_22h31.22.074,vts_reward_expectancy_bt,2022.2.4,Win32,119.8465964,Chrome,1600,1067,,,,,0,1171,,,,,,,,,,,,,,,,,H,146,circle,1,0,,,,,,,,,,,,,,,,repeat,number,numRpt,j,0.4817,Hi,,,,,,5,,,,,,,,low,16,0,16,0,1,,,,,,,,
298120,2022-11-14_22h31.22.074,vts_reward_expectancy_bt,2022.2.4,Win32,119.8465964,Chrome,1600,1067,,,,,0,1171,,,,,,,,,,,,,,,,,Y,125,hexagon,1,0,,,,,,,,,,,,,,,,switch,letter,lettSwt,f,0.5147,Hi,,,,,,5,,,,,,,,low,17,0,17,0,1,,,,,,,,
298120,2022-11-14_22h31.22.074,vts_reward_expectancy_bt,2022.2.4,Win32,119.8465964,Chrome,1600,1067,,,,,10,1181,,,,,,,,,,,,,,,,,B,139,triangle,1,0,,,,,,,,,,,,,,,,repeat,letter,lettRpt,d,0.3896,Lo,,,,,,5,,,,,,,,low,18,0,18,0,1,,,,,,,,
298120,2022-11-14_22h31.22.074,vts_reward_expectancy_bt,2022.2.4,Win32,119.8465964,Chrome,1600,1067,,,,,1,1182,,,,,,,,,,,,,,,,,F,181,star,1,0,,,,,,,,,,,,,,,,repeat,letter,lettRpt,d,0.3985,Lo,,,,,,5,,,,,,,,low,19,0,19,0,1,,,,,,,,
298120,2022-11-14_22h31.22.074,vts_reward_expectancy_bt,2022.2.4,Win32,119.8465964,Chrome,1600,1067,,,,,0,1182,,,,,,,,,,,,,,,,,U,167,hexagon,1,0,,,,,,,,,,,,,,,,switch,number,numSwt,k,0.5398,Hi,,,,,,5,,,,,,,,low,20,0,20,0,1,,,,,,,,
298120,2022-11-14_22h31.22.074,vts_reward_expectancy_bt,2022.2.4,Win32,119.8465964,Chrome,1600,1067,,,,,0,1182,,,,,,,,,,,,,,,,,S,174,circle,1,0,,,,,,,,,,,,,,,,repeat,number,numRpt,k,0.4812,Hi,,,,,,5,,,,,,,,low,21,0,21,0,1,,,,,,,,
298120,2022-11-14_22h31.22.074,vts_reward_expectancy_bt,2022.2.4,Win32,119.8465964,Chrome,1600,1067,,,,,10,1192,,,,,,,,,,,,,,,,,W,160,star,1,0,,,,,,,,,,,,,,,,repeat,number,numRpt,k,0.4312,Lo,,,,,,5,,,,,,,,low,22,0,22,0,1,,,,,,,,
298120,2022-11-14_22h31.22.074,vts_reward_expectancy_bt,2022.2.4,Win32,119.8465964,Chrome,1600,1067,,,,,1,1193,,,,,,,,,,,,,,,,,D,132,triangle,1,0,,,,,,,,,,,,,,,,repeat,number,numRpt,j,0.365,Lo,,,,,,5,,,,,,,,low,23,0,23,0,1,,,,,,,,
298120,2022-11-14_22h31.22.074,vts_reward_expectancy_bt,2022.2.4,Win32,119.8465964,Chrome,1600,1067,,,,,1,1194,,,,,,,,,,,,,,,,,W,132,circle,1,0,,,,,,,,,,,,,,,,switch,letter,lettSwt,f,0.4252,Hi,,,,,,5,,,,,,,,low,24,0,24,0,1,,,,,,,,
298120,2022-11-14_22h31.22.074,vts_reward_expectancy_bt,2022.2.4,Win32,119.8465964,Chrome,1600,1067,,,,,0,1194,,,,,,,,,,,,,,,,,F,174,hexagon,0,0,,,,,,,,,,,,,,,,switch,number,NA,j,0.5396,Hi,,,,,,5,,,,,,,,low,25,0,25,0,1,,,,,,,,
298120,2022-11-14_22h31.22.074,vts_reward_expectancy_bt,2022.2.4,Win32,119.8465964,Chrome,1600,1067,,,,,10,1204,,,,,,,,,,,,,,,,,H,125,star,1,1,,,,,,,,,,,,,,,,repeat,number,numRpt,j,0.4237,Lo,,,,,,5,,,,,,,,low,26,0,26,0,1,,,,,,,,
298120,2022-11-14_22h31.22.074,vts_reward_expectancy_bt,2022.2.4,Win32,119.8465964,Chrome,1600,1067,,,,,1,1205,,,,,,,,,,,,,,,,,D,181,triangle,1,0,,,,,,,,,,,,,,,,repeat,number,numRpt,k,0.482,Lo,,,,,,5,,,,,,,,low,27,0,27,0,1,,,,,,,,
298120,2022-11-14_22h31.22.074,vts_reward_expectancy_bt,2022.2.4,Win32,119.8465964,Chrome,1600,1067,,,,,0,1205,,,,,,,,,,,,,,,,,U,146,circle,0,0,,,,,,,,,,,,,,,,repeat,number,NA,k,0.4886,Lo,,,,,,5,,,,,,,,low,28,0,28,0,1,,,,,,,,
298120,2022-11-14_22h31.22.074,vts_reward_expectancy_bt,2022.2.4,Win32,119.8465964,Chrome,1600,1067,,,,,1,1206,,,,,,,,,,,,,,,,,Y,139,triangle,1,1,,,,,,,,,,,,,,,,repeat,number,numRpt,j,0.4488,Lo,,,,,,5,,,,,,,,low,29,0,29,0,1,,,,,,,,
298120,2022-11-14_22h31.22.074,vts_reward_expectancy_bt,2022.2.4,Win32,119.8465964,Chrome,1600,1067,,,,,1,1207,,,,,,,,,,,,,,,,,S,160,star,1,0,,,,,,,,,,,,,,,,switch,letter,lettSwt,f,0.473,Lo,,,,,,5,,,,,,,,low,30,0,30,0,1,,,,,,,,
298120,2022-11-14_22h31.22.074,vts_reward_expectancy_bt,2022.2.4,Win32,119.8465964,Chrome,1600,1067,,,,,0,1207,,,,,,,,,,,,,,,,,B,167,hexagon,1,0,,,,,,,,,,,,,,,,switch,number,numSwt,k,0.6817,Hi,,,,,,5,,,,,,,,low,31,0,31,0,1,,,,,,,,
298120,2022-11-14_22h31.22.074,vts_reward_expectancy_bt,2022.2.4,Win32,119.8465964,Chrome,1600,1067,,,,,1,1208,,,,,,,,,,,,,,,,,Y,139,triangle,1,0,,,,,,,,,,,,,,,,switch,letter,lettSwt,f,0.7069,Lo,,,,,,6,,,,,,space,1.0158,low,0,0,0,0,1,,,,,,,,
298120,2022-11-14_22h31.22.074,vts_reward_expectancy_bt,2022.2.4,Win32,119.8465964,Chrome,1600,1067,,,,,0,1208,,,,,,,,,,,,,,,,,B,167,hexagon,0,0,,,,,,,,,,,,,,,,repeat,letter,NA,f,0.5142,Lo,,,,,,6,,,,,,,,low,1,0,1,0,1,,,,,,,,
298120,2022-11-14_22h31.22.074,vts_reward_expectancy_bt,2022.2.4,Win32,119.8465964,Chrome,1600,1067,,,,,0,1208,,,,,,,,,,,,,,,,,H,146,star,0,1,,,,,,,,,,,,,,,,switch,number,NA,k,0.5574,Lo,,,,,,6,,,,,,,,low,2,0,2,0,1,,,,,,,,
298120,2022-11-14_22h31.22.074,vts_reward_expectancy_bt,2022.2.4,Win32,119.8465964,Chrome,1600,1067,,,,,0,1208,,,,,,,,,,,,,,,,,W,174,circle,1,1,,,,,,,,,,,,,,,,switch,letter,lettSwt,f,0.5224,Hi,,,,,,6,,,,,,,,low,3,0,3,0,1,,,,,,,,
298120,2022-11-14_22h31.22.074,vts_reward_expectancy_bt,2022.2.4,Win32,119.8465964,Chrome,1600,1067,,,,,10,1218,,,,,,,,,,,,,,,,,U,125,triangle,1,0,,,,,,,,,,,,,,,,switch,number,numSwt,j,0.3734,Lo,,,,,,6,,,,,,,,low,4,0,4,0,1,,,,,,,,
298120,2022-11-14_22h31.22.074,vts_reward_expectancy_bt,2022.2.4,Win32,119.8465964,Chrome,1600,1067,,,,,10,1228,,,,,,,,,,,,,,,,,F,181,hexagon,1,0,,,,,,,,,,,,,,,,repeat,number,numRpt,k,0.3966,Hi,,,,,,6,,,,,,,,low,5,0,5,0,1,,,,,,,,
298120,2022-11-14_22h31.22.074,vts_reward_expectancy_bt,2022.2.4,Win32,119.8465964,Chrome,1600,1067,,,,,10,1238,,,,,,,,,,,,,,,,,D,160,star,1,0,,,,,,,,,,,,,,,,repeat,number,numRpt,k,0.4477,Lo,,,,,,6,,,,,,,,low,6,0,6,0,1,,,,,,,,
298120,2022-11-14_22h31.22.074,vts_reward_expectancy_bt,2022.2.4,Win32,119.8465964,Chrome,1600,1067,,,,,0,1238,,,,,,,,,,,,,,,,,S,132,circle,1,0,,,,,,,,,,,,,,,,repeat,number,numRpt,j,0.7144,Hi,,,,,,6,,,,,,,,low,7,0,7,0,1,,,,,,,,
298120,2022-11-14_22h31.22.074,vts_reward_expectancy_bt,2022.2.4,Win32,119.8465964,Chrome,1600,1067,,,,,1,1239,,,,,,,,,,,,,,,,,Y,139,triangle,1,0,,,,,,,,,,,,,,,,repeat,number,numRpt,j,0.6826,Lo,,,,,,6,,,,,,,,low,8,0,8,0,1,,,,,,,,
298120,2022-11-14_22h31.22.074,vts_reward_expectancy_bt,2022.2.4,Win32,119.8465964,Chrome,1600,1067,,,,,0,1239,,,,,,,,,,,,,,,,,B,167,star,0,0,,,,,,,,,,,,,,,,repeat,number,NA,j,0.5901,Lo,,,,,,6,,,,,,,,low,9,0,9,0,1,,,,,,,,
298120,2022-11-14_22h31.22.074,vts_reward_expectancy_bt,2022.2.4,Win32,119.8465964,Chrome,1600,1067,,,,,0,1239,,,,,,,,,,,,,,,,,H,146,circle,0,1,,,,,,,,,,,,,,,,repeat,number,NA,k,0.5646,Lo,,,,,,6,,,,,,,,low,10,0,10,0,1,,,,,,,,
298120,2022-11-14_22h31.22.074,vts_reward_expectancy_bt,2022.2.4,Win32,119.8465964,Chrome,1600,1067,,,,,0,1239,,,,,,,,,,,,,,,,,W,174,hexagon,1,1,,,,,,,,,,,,,,,,switch,letter,lettSwt,f,0.4755,Hi,,,,,,6,,,,,,,,low,11,0,11,0,1,,,,,,,,
298120,2022-11-14_22h31.22.074,vts_reward_expectancy_bt,2022.2.4,Win32,119.8465964,Chrome,1600,1067,,,,,1,1240,,,,,,,,,,,,,,,,,U,125,star,1,0,,,,,,,,,,,,,,,,repeat,letter,lettRpt,f,0.4435,Lo,,,,,,6,,,,,,,,low,12,0,12,0,1,,,,,,,,
298120,2022-11-14_22h31.22.074,vts_reward_expectancy_bt,2022.2.4,Win32,119.8465964,Chrome,1600,1067,,,,,1,1241,,,,,,,,,,,,,,,,,F,181,circle,1,0,,,,,,,,,,,,,,,,switch,number,numSwt,k,0.4653,Hi,,,,,,6,,,,,,,,low,13,0,13,0,1,,,,,,,,
298120,2022-11-14_22h31.22.074,vts_reward_expectancy_bt,2022.2.4,Win32,119.8465964,Chrome,1600,1067,,,,,0,1241,,,,,,,,,,,,,,,,,D,160,hexagon,1,0,,,,,,,,,,,,,,,,switch,letter,lettSwt,d,0.4891,Hi,,,,,,6,,,,,,,,low,14,0,14,0,1,,,,,,,,
298120,2022-11-14_22h31.22.074,vts_reward_expectancy_bt,2022.2.4,Win32,119.8465964,Chrome,1600,1067,,,,,10,1251,,,,,,,,,,,,,,,,,S,132,triangle,1,0,,,,,,,,,,,,,,,,switch,number,numSwt,j,0.3654,Lo,,,,,,6,,,,,,,,low,15,0,15,0,1,,,,,,,,
298120,2022-11-14_22h31.22.074,vts_reward_expectancy_bt,2022.2.4,Win32,119.8465964,Chrome,1600,1067,,,,,0,1251,,,,,,,,,,,,,,,,,F,160,hexagon,0,0,,,,,,,,,,,,,,,,repeat,number,NA,j,0.4391,Lo,,,,,,6,,,,,,,,low,16,0,16,0,1,,,,,,,,
