participant,date,expName,psychopyVersion,OS,frameRate,browser,xResolution,yResolution,key_resp.keys,key_resp.rt,training_resp.keys,training_resp.rt,points_trial,points_cumul,trainBlock,training.thisRepN,training.thisTrialN,training.thisN,training.thisIndex,training.ran,LTriangleOpac,LCircleOpac,LHexagonOpac,LStarOpac,RTriangleOpac,RCircleOpac,RHexagonOpac,RStarOpac,LShape_ID,RShape_ID,curr_topStim,curr_bottStim,curr_shape,acc,E1,target_resp_prac1.keys,pracBlock,task1_prac_trials.thisRepN,task1_prac_trials.thisTrialN,task1_prac_trials.thisN,task1_prac_trials.thisIndex,task1_prac_trials.ran,target_resp_prac1.rt,target_resp_prac2.keys,target_resp_prac2.rt,task2_praac_trials.thisRepN,task2_praac_trials.thisTrialN,task2_praac_trials.thisN,task2_praac_trials.thisIndex,task2_praac_trials.ran,alt,task,condition,target_resp.keys,rewCond,vts_practice_trials.thisRepN,vts_practice_trials.thisTrialN,vts_practice_trials.thisN,vts_practice_trials.thisIndex,vts_practice_trials.ran,target_resp.rt,blockNum,trials_norew.thisRepN,trials_norew.thisTrialN,trials_norew.thisN,trials_norew.thisIndex,trials_norew.ran,key_resp_2.keys,key_resp_2.rt,rewExpectancy,trials_rew.thisRepN,trials_rew.thisTrialN,trials_rew.thisN,trials_rew.thisIndex,trials_rew.ran,Q1,Q2,Q2_text,Q3,Q4,Q5_text,Q5,xRes,yRes
298135,2022-12-03_14h33.45.655,vts_reward_expectancy_bt,2022.2.4,Win32,165.3986107,Chrome,1920,1080,,,,,,,,,,,,,,,,,,,,,,,,,,,,,,,,,,,,,,,,,,,,,,,,,,,,,,,,,,,,,,,,,,,,,,,,,,,,
298135,2022-12-03_14h33.45.655,vts_reward_expectancy_bt,2022.2.4,Win32,165.3986107,Chrome,1920,1080,space,10.2371,,,,,,,,,,,,,,,,,,,,,,,,,,,,,,,,,,,,,,,,,,,,,,,,,,,,,,,,,,,,,,,,,,,,,,,,,,
298135,2022-12-03_14h33.45.655,vts_reward_expectancy_bt,2022.2.4,Win32,165.3986107,Chrome,1920,1080,,,,,,,,,,,,,,,,,,,,,,,,,,,,,,,,,,,,,,,,,,,,,,,,,,,,,,,,,,,,,,,,,,,,,,,,,,,,
298135,2022-12-03_14h33.45.655,vts_reward_expectancy_bt,2022.2.4,Win32,165.3986107,Chrome,1920,1080,,,a,7.3129,10,10,0,0,0,0,8,1,0,0,1,0,0,0,0,1,hexagon,star,,,,,,,,,,,,,,,,,,,,,,,,,,,,,,,,,,,,,,,,,,,,,,,,,,,,,,
298135,2022-12-03_14h33.45.655,vts_reward_expectancy_bt,2022.2.4,Win32,165.3986107,Chrome,1920,1080,,,a,5.0632,1,11,0,0,1,1,4,1,0,1,0,0,0,0,1,0,circle,hexagon,,,,,,,,,,,,,,,,,,,,,,,,,,,,,,,,,,,,,,,,,,,,,,,,,,,,,,
298135,2022-12-03_14h33.45.655,vts_reward_expectancy_bt,2022.2.4,Win32,165.3986107,Chrome,1920,1080,,,a,0.635,10,21,0,0,2,2,6,1,0,0,1,0,1,0,0,0,hexagon,triangle,,,,,,,,,,,,,,,,,,,,,,,,,,,,,,,,,,,,,,,,,,,,,,,,,,,,,,
298135,2022-12-03_14h33.45.655,vts_reward_expectancy_bt,2022.2.4,Win32,165.3986107,Chrome,1920,1080,,,a,2.8825,10,31,0,0,3,3,2,1,1,0,0,0,0,0,0,1,triangle,star,,,,,,,,,,,,,,,,,,,,,,,,,,,,,,,,,,,,,,,,,,,,,,,,,,,,,,
298135,2022-12-03_14h33.45.655,vts_reward_expectancy_bt,2022.2.4,Win32,165.3986107,Chrome,1920,1080,,,a,0.6855,10,41,0,0,4,4,0,1,1,0,0,0,0,1,0,0,triangle,circle,,,,,,,,,,,,,,,,,,,,,,,,,,,,,,,,,,,,,,,,,,,,,,,,,,,,,,
298135,2022-12-03_14h33.45.655,vts_reward_expectancy_bt,2022.2.4,Win32,165.3986107,Chrome,1920,1080,,,a,2.9219,1,42,0,0,5,5,5,1,0,1,0,0,0,0,0,1,circle,star,,,,,,,,,,,,,,,,,,,,,,,,,,,,,,,,,,,,,,,,,,,,,,,,,,,,,,
298135,2022-12-03_14h33.45.655,vts_reward_expectancy_bt,2022.2.4,Win32,165.3986107,Chrome,1920,1080,,,a,0.7993,1,43,0,0,6,6,7,1,0,0,1,0,0,1,0,0,hexagon,circle,,,,,,,,,,,,,,,,,,,,,,,,,,,,,,,,,,,,,,,,,,,,,,,,,,,,,,
298135,2022-12-03_14h33.45.655,vts_reward_expectancy_bt,2022.2.4,Win32,165.3986107,Chrome,1920,1080,,,l,8.8698,1,44,0,0,7,7,3,1,0,1,0,0,1,0,0,0,circle,triangle,,,,,,,,,,,,,,,,,,,,,,,,,,,,,,,,,,,,,,,,,,,,,,,,,,,,,,
298135,2022-12-03_14h33.45.655,vts_reward_expectancy_bt,2022.2.4,Win32,165.3986107,Chrome,1920,1080,,,l,3.5042,10,54,0,0,8,8,9,1,0,0,0,1,1,0,0,0,star,triangle,,,,,,,,,,,,,,,,,,,,,,,,,,,,,,,,,,,,,,,,,,,,,,,,,,,,,,
298135,2022-12-03_14h33.45.655,vts_reward_expectancy_bt,2022.2.4,Win32,165.3986107,Chrome,1920,1080,,,a,0.2399,10,64,0,0,9,9,11,1,0,0,0,1,0,0,1,0,star,hexagon,,,,,,,,,,,,,,,,,,,,,,,,,,,,,,,,,,,,,,,,,,,,,,,,,,,,,,
298135,2022-12-03_14h33.45.655,vts_reward_expectancy_bt,2022.2.4,Win32,165.3986107,Chrome,1920,1080,,,a,0.9165,10,74,0,0,10,10,10,1,0,0,0,1,0,1,0,0,star ,circle,,,,,,,,,,,,,,,,,,,,,,,,,,,,,,,,,,,,,,,,,,,,,,,,,,,,,,
298135,2022-12-03_14h33.45.655,vts_reward_expectancy_bt,2022.2.4,Win32,165.3986107,Chrome,1920,1080,,,a,0.2558,10,84,0,0,11,11,1,1,1,0,0,0,0,0,1,0,triangle,hexagon,,,,,,,,,,,,,,,,,,,,,,,,,,,,,,,,,,,,,,,,,,,,,,,,,,,,,,
298135,2022-12-03_14h33.45.655,vts_reward_expectancy_bt,2022.2.4,Win32,165.3986107,Chrome,1920,1080,,,a,0.1475,10,94,0,1,0,12,0,1,1,0,0,0,0,1,0,0,triangle,circle,,,,,,,,,,,,,,,,,,,,,,,,,,,,,,,,,,,,,,,,,,,,,,,,,,,,,,
298135,2022-12-03_14h33.45.655,vts_reward_expectancy_bt,2022.2.4,Win32,165.3986107,Chrome,1920,1080,,,a,0.1788,10,104,0,1,1,13,2,1,1,0,0,0,0,0,0,1,triangle,star,,,,,,,,,,,,,,,,,,,,,,,,,,,,,,,,,,,,,,,,,,,,,,,,,,,,,,
298135,2022-12-03_14h33.45.655,vts_reward_expectancy_bt,2022.2.4,Win32,165.3986107,Chrome,1920,1080,,,a,0.1649,10,114,0,1,2,14,10,1,0,0,0,1,0,1,0,0,star ,circle,,,,,,,,,,,,,,,,,,,,,,,,,,,,,,,,,,,,,,,,,,,,,,,,,,,,,,
298135,2022-12-03_14h33.45.655,vts_reward_expectancy_bt,2022.2.4,Win32,165.3986107,Chrome,1920,1080,,,a,0.0566,1,115,0,1,3,15,7,1,0,0,1,0,0,1,0,0,hexagon,circle,,,,,,,,,,,,,,,,,,,,,,,,,,,,,,,,,,,,,,,,,,,,,,,,,,,,,,
298135,2022-12-03_14h33.45.655,vts_reward_expectancy_bt,2022.2.4,Win32,165.3986107,Chrome,1920,1080,,,a,0.0005,10,125,0,1,4,16,6,1,0,0,1,0,1,0,0,0,hexagon,triangle,,,,,,,,,,,,,,,,,,,,,,,,,,,,,,,,,,,,,,,,,,,,,,,,,,,,,,
298135,2022-12-03_14h33.45.655,vts_reward_expectancy_bt,2022.2.4,Win32,165.3986107,Chrome,1920,1080,,,a,0.0424,1,126,0,1,5,17,4,1,0,1,0,0,0,0,1,0,circle,hexagon,,,,,,,,,,,,,,,,,,,,,,,,,,,,,,,,,,,,,,,,,,,,,,,,,,,,,,
298135,2022-12-03_14h33.45.655,vts_reward_expectancy_bt,2022.2.4,Win32,165.3986107,Chrome,1920,1080,,,a,0.1944,10,136,0,1,6,18,1,1,1,0,0,0,0,0,1,0,triangle,hexagon,,,,,,,,,,,,,,,,,,,,,,,,,,,,,,,,,,,,,,,,,,,,,,,,,,,,,,
298135,2022-12-03_14h33.45.655,vts_reward_expectancy_bt,2022.2.4,Win32,165.3986107,Chrome,1920,1080,,,a,0.3343,10,146,0,1,7,19,8,1,0,0,1,0,0,0,0,1,hexagon,star,,,,,,,,,,,,,,,,,,,,,,,,,,,,,,,,,,,,,,,,,,,,,,,,,,,,,,
298135,2022-12-03_14h33.45.655,vts_reward_expectancy_bt,2022.2.4,Win32,165.3986107,Chrome,1920,1080,,,a,0.2651,1,147,0,1,8,20,5,1,0,1,0,0,0,0,0,1,circle,star,,,,,,,,,,,,,,,,,,,,,,,,,,,,,,,,,,,,,,,,,,,,,,,,,,,,,,
298135,2022-12-03_14h33.45.655,vts_reward_expectancy_bt,2022.2.4,Win32,165.3986107,Chrome,1920,1080,,,a,0.3036,1,148,0,1,9,21,3,1,0,1,0,0,1,0,0,0,circle,triangle,,,,,,,,,,,,,,,,,,,,,,,,,,,,,,,,,,,,,,,,,,,,,,,,,,,,,,
298135,2022-12-03_14h33.45.655,vts_reward_expectancy_bt,2022.2.4,Win32,165.3986107,Chrome,1920,1080,,,a,0.2371,10,158,0,1,10,22,9,1,0,0,0,1,1,0,0,0,star,triangle,,,,,,,,,,,,,,,,,,,,,,,,,,,,,,,,,,,,,,,,,,,,,,,,,,,,,,
298135,2022-12-03_14h33.45.655,vts_reward_expectancy_bt,2022.2.4,Win32,165.3986107,Chrome,1920,1080,,,a,0.4307,1,159,0,1,11,23,11,1,0,0,0,1,0,0,1,0,star,hexagon,,,,,,,,,,,,,,,,,,,,,,,,,,,,,,,,,,,,,,,,,,,,,,,,,,,,,,
298135,2022-12-03_14h33.45.655,vts_reward_expectancy_bt,2022.2.4,Win32,165.3986107,Chrome,1920,1080,,,a,0.1532,1,160,0,2,0,24,8,1,0,0,1,0,0,0,0,1,hexagon,star,,,,,,,,,,,,,,,,,,,,,,,,,,,,,,,,,,,,,,,,,,,,,,,,,,,,,,
298135,2022-12-03_14h33.45.655,vts_reward_expectancy_bt,2022.2.4,Win32,165.3986107,Chrome,1920,1080,,,l,1.6004,1,161,0,2,1,25,0,1,1,0,0,0,0,1,0,0,triangle,circle,,,,,,,,,,,,,,,,,,,,,,,,,,,,,,,,,,,,,,,,,,,,,,,,,,,,,,
298135,2022-12-03_14h33.45.655,vts_reward_expectancy_bt,2022.2.4,Win32,165.3986107,Chrome,1920,1080,,,a,1.2303,10,171,0,2,2,26,2,1,1,0,0,0,0,0,0,1,triangle,star,,,,,,,,,,,,,,,,,,,,,,,,,,,,,,,,,,,,,,,,,,,,,,,,,,,,,,
298135,2022-12-03_14h33.45.655,vts_reward_expectancy_bt,2022.2.4,Win32,165.3986107,Chrome,1920,1080,,,a,1.8788,10,181,0,2,3,27,3,1,0,1,0,0,1,0,0,0,circle,triangle,,,,,,,,,,,,,,,,,,,,,,,,,,,,,,,,,,,,,,,,,,,,,,,,,,,,,,
298135,2022-12-03_14h33.45.655,vts_reward_expectancy_bt,2022.2.4,Win32,165.3986107,Chrome,1920,1080,,,a,2.7524,10,191,0,2,4,28,9,1,0,0,0,1,1,0,0,0,star,triangle,,,,,,,,,,,,,,,,,,,,,,,,,,,,,,,,,,,,,,,,,,,,,,,,,,,,,,
298135,2022-12-03_14h33.45.655,vts_reward_expectancy_bt,2022.2.4,Win32,165.3986107,Chrome,1920,1080,,,a,1.2077,1,192,0,2,5,29,6,1,0,0,1,0,1,0,0,0,hexagon,triangle,,,,,,,,,,,,,,,,,,,,,,,,,,,,,,,,,,,,,,,,,,,,,,,,,,,,,,
298135,2022-12-03_14h33.45.655,vts_reward_expectancy_bt,2022.2.4,Win32,165.3986107,Chrome,1920,1080,,,a,0.0936,1,193,0,2,6,30,10,1,0,0,0,1,0,1,0,0,star ,circle,,,,,,,,,,,,,,,,,,,,,,,,,,,,,,,,,,,,,,,,,,,,,,,,,,,,,,
298135,2022-12-03_14h33.45.655,vts_reward_expectancy_bt,2022.2.4,Win32,165.3986107,Chrome,1920,1080,,,a,3.0824,1,194,0,2,7,31,11,1,0,0,0,1,0,0,1,0,star,hexagon,,,,,,,,,,,,,,,,,,,,,,,,,,,,,,,,,,,,,,,,,,,,,,,,,,,,,,
298135,2022-12-03_14h33.45.655,vts_reward_expectancy_bt,2022.2.4,Win32,165.3986107,Chrome,1920,1080,,,a,0.0003,10,204,0,2,8,32,4,1,0,1,0,0,0,0,1,0,circle,hexagon,,,,,,,,,,,,,,,,,,,,,,,,,,,,,,,,,,,,,,,,,,,,,,,,,,,,,,
298135,2022-12-03_14h33.45.655,vts_reward_expectancy_bt,2022.2.4,Win32,165.3986107,Chrome,1920,1080,,,a,0.1969,1,205,0,2,9,33,5,1,0,1,0,0,0,0,0,1,circle,star,,,,,,,,,,,,,,,,,,,,,,,,,,,,,,,,,,,,,,,,,,,,,,,,,,,,,,
298135,2022-12-03_14h33.45.655,vts_reward_expectancy_bt,2022.2.4,Win32,165.3986107,Chrome,1920,1080,,,l,2.0263,1,206,0,2,10,34,7,1,0,0,1,0,0,1,0,0,hexagon,circle,,,,,,,,,,,,,,,,,,,,,,,,,,,,,,,,,,,,,,,,,,,,,,,,,,,,,,
298135,2022-12-03_14h33.45.655,vts_reward_expectancy_bt,2022.2.4,Win32,165.3986107,Chrome,1920,1080,,,a,0.0561,1,207,0,2,11,35,1,1,1,0,0,0,0,0,1,0,triangle,hexagon,,,,,,,,,,,,,,,,,,,,,,,,,,,,,,,,,,,,,,,,,,,,,,,,,,,,,,
298135,2022-12-03_14h33.45.655,vts_reward_expectancy_bt,2022.2.4,Win32,165.3986107,Chrome,1920,1080,,,l,1.0693,10,217,1,0,0,0,2,1,1,0,0,0,0,0,0,1,triangle,star,,,,,,,,,,,,,,,,,,,,,,,,,,,,,,,,,,,,,,,,,,,,,,,,,,,,,,
298135,2022-12-03_14h33.45.655,vts_reward_expectancy_bt,2022.2.4,Win32,165.3986107,Chrome,1920,1080,,,a,2.3832,1,218,1,0,1,1,7,1,0,0,1,0,0,1,0,0,hexagon,circle,,,,,,,,,,,,,,,,,,,,,,,,,,,,,,,,,,,,,,,,,,,,,,,,,,,,,,
298135,2022-12-03_14h33.45.655,vts_reward_expectancy_bt,2022.2.4,Win32,165.3986107,Chrome,1920,1080,,,a,3.074,10,228,1,0,2,2,8,1,0,0,1,0,0,0,0,1,hexagon,star,,,,,,,,,,,,,,,,,,,,,,,,,,,,,,,,,,,,,,,,,,,,,,,,,,,,,,
298135,2022-12-03_14h33.45.655,vts_reward_expectancy_bt,2022.2.4,Win32,165.3986107,Chrome,1920,1080,,,a,0.4879,10,238,1,0,3,3,0,1,1,0,0,0,0,1,0,0,triangle,circle,,,,,,,,,,,,,,,,,,,,,,,,,,,,,,,,,,,,,,,,,,,,,,,,,,,,,,
298135,2022-12-03_14h33.45.655,vts_reward_expectancy_bt,2022.2.4,Win32,165.3986107,Chrome,1920,1080,,,a,0.5578,10,248,1,0,4,4,4,1,0,1,0,0,0,0,1,0,circle,hexagon,,,,,,,,,,,,,,,,,,,,,,,,,,,,,,,,,,,,,,,,,,,,,,,,,,,,,,
298135,2022-12-03_14h33.45.655,vts_reward_expectancy_bt,2022.2.4,Win32,165.3986107,Chrome,1920,1080,,,a,8.5045,10,258,1,0,5,5,3,1,0,1,0,0,1,0,0,0,circle,triangle,,,,,,,,,,,,,,,,,,,,,,,,,,,,,,,,,,,,,,,,,,,,,,,,,,,,,,
298135,2022-12-03_14h33.45.655,vts_reward_expectancy_bt,2022.2.4,Win32,165.3986107,Chrome,1920,1080,,,a,10.6509,1,259,1,0,6,6,6,1,0,0,1,0,1,0,0,0,hexagon,triangle,,,,,,,,,,,,,,,,,,,,,,,,,,,,,,,,,,,,,,,,,,,,,,,,,,,,,,
298135,2022-12-03_14h33.45.655,vts_reward_expectancy_bt,2022.2.4,Win32,165.3986107,Chrome,1920,1080,,,a,6.482,10,269,1,0,7,7,11,1,0,0,0,1,0,0,1,0,star,hexagon,,,,,,,,,,,,,,,,,,,,,,,,,,,,,,,,,,,,,,,,,,,,,,,,,,,,,,
298135,2022-12-03_14h33.45.655,vts_reward_expectancy_bt,2022.2.4,Win32,165.3986107,Chrome,1920,1080,,,a,3.8546,1,270,1,0,8,8,5,1,0,1,0,0,0,0,0,1,circle,star,,,,,,,,,,,,,,,,,,,,,,,,,,,,,,,,,,,,,,,,,,,,,,,,,,,,,,
298135,2022-12-03_14h33.45.655,vts_reward_expectancy_bt,2022.2.4,Win32,165.3986107,Chrome,1920,1080,,,a,0.8503,1,271,1,0,9,9,9,1,0,0,0,1,1,0,0,0,star,triangle,,,,,,,,,,,,,,,,,,,,,,,,,,,,,,,,,,,,,,,,,,,,,,,,,,,,,,
298135,2022-12-03_14h33.45.655,vts_reward_expectancy_bt,2022.2.4,Win32,165.3986107,Chrome,1920,1080,,,l,0.5337,1,272,1,0,10,10,10,1,0,0,0,1,0,1,0,0,star ,circle,,,,,,,,,,,,,,,,,,,,,,,,,,,,,,,,,,,,,,,,,,,,,,,,,,,,,,
298135,2022-12-03_14h33.45.655,vts_reward_expectancy_bt,2022.2.4,Win32,165.3986107,Chrome,1920,1080,,,a,0.0665,1,273,1,0,11,11,1,1,1,0,0,0,0,0,1,0,triangle,hexagon,,,,,,,,,,,,,,,,,,,,,,,,,,,,,,,,,,,,,,,,,,,,,,,,,,,,,,
298135,2022-12-03_14h33.45.655,vts_reward_expectancy_bt,2022.2.4,Win32,165.3986107,Chrome,1920,1080,,,a,6.3976,10,283,1,1,0,12,11,1,0,0,0,1,0,0,1,0,star,hexagon,,,,,,,,,,,,,,,,,,,,,,,,,,,,,,,,,,,,,,,,,,,,,,,,,,,,,,
298135,2022-12-03_14h33.45.655,vts_reward_expectancy_bt,2022.2.4,Win32,165.3986107,Chrome,1920,1080,,,a,0.517,10,293,1,1,1,13,9,1,0,0,0,1,1,0,0,0,star,triangle,,,,,,,,,,,,,,,,,,,,,,,,,,,,,,,,,,,,,,,,,,,,,,,,,,,,,,
298135,2022-12-03_14h33.45.655,vts_reward_expectancy_bt,2022.2.4,Win32,165.3986107,Chrome,1920,1080,,,a,0.0851,1,294,1,1,2,14,8,1,0,0,1,0,0,0,0,1,hexagon,star,,,,,,,,,,,,,,,,,,,,,,,,,,,,,,,,,,,,,,,,,,,,,,,,,,,,,,
298135,2022-12-03_14h33.45.655,vts_reward_expectancy_bt,2022.2.4,Win32,165.3986107,Chrome,1920,1080,,,a,1.1881,1,295,1,1,3,15,10,1,0,0,0,1,0,1,0,0,star ,circle,,,,,,,,,,,,,,,,,,,,,,,,,,,,,,,,,,,,,,,,,,,,,,,,,,,,,,
298135,2022-12-03_14h33.45.655,vts_reward_expectancy_bt,2022.2.4,Win32,165.3986107,Chrome,1920,1080,,,a,0.0092,1,296,1,1,4,16,7,1,0,0,1,0,0,1,0,0,hexagon,circle,,,,,,,,,,,,,,,,,,,,,,,,,,,,,,,,,,,,,,,,,,,,,,,,,,,,,,
298135,2022-12-03_14h33.45.655,vts_reward_expectancy_bt,2022.2.4,Win32,165.3986107,Chrome,1920,1080,,,a,2.5585,1,297,1,1,5,17,3,1,0,1,0,0,1,0,0,0,circle,triangle,,,,,,,,,,,,,,,,,,,,,,,,,,,,,,,,,,,,,,,,,,,,,,,,,,,,,,
298135,2022-12-03_14h33.45.655,vts_reward_expectancy_bt,2022.2.4,Win32,165.3986107,Chrome,1920,1080,,,a,12.1181,1,298,1,1,6,18,6,1,0,0,1,0,1,0,0,0,hexagon,triangle,,,,,,,,,,,,,,,,,,,,,,,,,,,,,,,,,,,,,,,,,,,,,,,,,,,,,,
298135,2022-12-03_14h33.45.655,vts_reward_expectancy_bt,2022.2.4,Win32,165.3986107,Chrome,1920,1080,,,l,0.1831,10,308,1,1,7,19,2,1,1,0,0,0,0,0,0,1,triangle,star,,,,,,,,,,,,,,,,,,,,,,,,,,,,,,,,,,,,,,,,,,,,,,,,,,,,,,
298135,2022-12-03_14h33.45.655,vts_reward_expectancy_bt,2022.2.4,Win32,165.3986107,Chrome,1920,1080,,,l,3.883,1,309,1,1,8,20,0,1,1,0,0,0,0,1,0,0,triangle,circle,,,,,,,,,,,,,,,,,,,,,,,,,,,,,,,,,,,,,,,,,,,,,,,,,,,,,,
298135,2022-12-03_14h33.45.655,vts_reward_expectancy_bt,2022.2.4,Win32,165.3986107,Chrome,1920,1080,,,l,1.0465,1,310,1,1,9,21,1,1,1,0,0,0,0,0,1,0,triangle,hexagon,,,,,,,,,,,,,,,,,,,,,,,,,,,,,,,,,,,,,,,,,,,,,,,,,,,,,,
298135,2022-12-03_14h33.45.655,vts_reward_expectancy_bt,2022.2.4,Win32,165.3986107,Chrome,1920,1080,,,a,28.9575,1,311,1,1,10,22,4,1,0,1,0,0,0,0,1,0,circle,hexagon,,,,,,,,,,,,,,,,,,,,,,,,,,,,,,,,,,,,,,,,,,,,,,,,,,,,,,
298135,2022-12-03_14h33.45.655,vts_reward_expectancy_bt,2022.2.4,Win32,165.3986107,Chrome,1920,1080,,,a,0.0298,10,321,1,1,11,23,5,1,0,1,0,0,0,0,0,1,circle,star,,,,,,,,,,,,,,,,,,,,,,,,,,,,,,,,,,,,,,,,,,,,,,,,,,,,,,
298135,2022-12-03_14h33.45.655,vts_reward_expectancy_bt,2022.2.4,Win32,165.3986107,Chrome,1920,1080,,,a,0.0664,1,322,1,2,0,24,3,1,0,1,0,0,1,0,0,0,circle,triangle,,,,,,,,,,,,,,,,,,,,,,,,,,,,,,,,,,,,,,,,,,,,,,,,,,,,,,
298135,2022-12-03_14h33.45.655,vts_reward_expectancy_bt,2022.2.4,Win32,165.3986107,Chrome,1920,1080,,,l,30.5487,10,332,1,2,1,25,2,1,1,0,0,0,0,0,0,1,triangle,star,,,,,,,,,,,,,,,,,,,,,,,,,,,,,,,,,,,,,,,,,,,,,,,,,,,,,,
298135,2022-12-03_14h33.45.655,vts_reward_expectancy_bt,2022.2.4,Win32,165.3986107,Chrome,1920,1080,,,a,11.6736,1,333,1,2,2,26,5,1,0,1,0,0,0,0,0,1,circle,star,,,,,,,,,,,,,,,,,,,,,,,,,,,,,,,,,,,,,,,,,,,,,,,,,,,,,,
298135,2022-12-03_14h33.45.655,vts_reward_expectancy_bt,2022.2.4,Win32,165.3986107,Chrome,1920,1080,,,l,0.0742,1,334,1,2,3,27,11,1,0,0,0,1,0,0,1,0,star,hexagon,,,,,,,,,,,,,,,,,,,,,,,,,,,,,,,,,,,,,,,,,,,,,,,,,,,,,,
298135,2022-12-03_14h33.45.655,vts_reward_expectancy_bt,2022.2.4,Win32,165.3986107,Chrome,1920,1080,,,a,0.3225,1,335,1,2,4,28,7,1,0,0,1,0,0,1,0,0,hexagon,circle,,,,,,,,,,,,,,,,,,,,,,,,,,,,,,,,,,,,,,,,,,,,,,,,,,,,,,
298135,2022-12-03_14h33.45.655,vts_reward_expectancy_bt,2022.2.4,Win32,165.3986107,Chrome,1920,1080,,,l,11.7722,1,336,1,2,5,29,0,1,1,0,0,0,0,1,0,0,triangle,circle,,,,,,,,,,,,,,,,,,,,,,,,,,,,,,,,,,,,,,,,,,,,,,,,,,,,,,
298135,2022-12-03_14h33.45.655,vts_reward_expectancy_bt,2022.2.4,Win32,165.3986107,Chrome,1920,1080,,,a,14.2725,1,337,1,2,6,30,10,1,0,0,0,1,0,1,0,0,star ,circle,,,,,,,,,,,,,,,,,,,,,,,,,,,,,,,,,,,,,,,,,,,,,,,,,,,,,,
298135,2022-12-03_14h33.45.655,vts_reward_expectancy_bt,2022.2.4,Win32,165.3986107,Chrome,1920,1080,,,l,0.0619,1,338,1,2,7,31,6,1,0,0,1,0,1,0,0,0,hexagon,triangle,,,,,,,,,,,,,,,,,,,,,,,,,,,,,,,,,,,,,,,,,,,,,,,,,,,,,,
298135,2022-12-03_14h33.45.655,vts_reward_expectancy_bt,2022.2.4,Win32,165.3986107,Chrome,1920,1080,,,l,0.0491,1,339,1,2,8,32,1,1,1,0,0,0,0,0,1,0,triangle,hexagon,,,,,,,,,,,,,,,,,,,,,,,,,,,,,,,,,,,,,,,,,,,,,,,,,,,,,,
298135,2022-12-03_14h33.45.655,vts_reward_expectancy_bt,2022.2.4,Win32,165.3986107,Chrome,1920,1080,,,l,0.1027,10,349,1,2,9,33,8,1,0,0,1,0,0,0,0,1,hexagon,star,,,,,,,,,,,,,,,,,,,,,,,,,,,,,,,,,,,,,,,,,,,,,,,,,,,,,,
298135,2022-12-03_14h33.45.655,vts_reward_expectancy_bt,2022.2.4,Win32,165.3986107,Chrome,1920,1080,,,a,0.0759,1,350,1,2,10,34,4,1,0,1,0,0,0,0,1,0,circle,hexagon,,,,,,,,,,,,,,,,,,,,,,,,,,,,,,,,,,,,,,,,,,,,,,,,,,,,,,
298135,2022-12-03_14h33.45.655,vts_reward_expectancy_bt,2022.2.4,Win32,165.3986107,Chrome,1920,1080,,,a,0.2133,10,360,1,2,11,35,9,1,0,0,0,1,1,0,0,0,star,triangle,,,,,,,,,,,,,,,,,,,,,,,,,,,,,,,,,,,,,,,,,,,,,,,,,,,,,,
298135,2022-12-03_14h33.45.655,vts_reward_expectancy_bt,2022.2.4,Win32,165.3986107,Chrome,1920,1080,,,a,0.2989,1,361,2,0,0,0,8,1,0,0,1,0,0,0,0,1,hexagon,star,,,,,,,,,,,,,,,,,,,,,,,,,,,,,,,,,,,,,,,,,,,,,,,,,,,,,,
298135,2022-12-03_14h33.45.655,vts_reward_expectancy_bt,2022.2.4,Win32,165.3986107,Chrome,1920,1080,,,a,0.0481,10,371,2,0,1,1,7,1,0,0,1,0,0,1,0,0,hexagon,circle,,,,,,,,,,,,,,,,,,,,,,,,,,,,,,,,,,,,,,,,,,,,,,,,,,,,,,
298135,2022-12-03_14h33.45.655,vts_reward_expectancy_bt,2022.2.4,Win32,165.3986107,Chrome,1920,1080,,,a,0.0438,10,381,2,0,2,2,11,1,0,0,0,1,0,0,1,0,star,hexagon,,,,,,,,,,,,,,,,,,,,,,,,,,,,,,,,,,,,,,,,,,,,,,,,,,,,,,
298135,2022-12-03_14h33.45.655,vts_reward_expectancy_bt,2022.2.4,Win32,165.3986107,Chrome,1920,1080,,,a,0.0914,1,382,2,0,3,3,4,1,0,1,0,0,0,0,1,0,circle,hexagon,,,,,,,,,,,,,,,,,,,,,,,,,,,,,,,,,,,,,,,,,,,,,,,,,,,,,,
298135,2022-12-03_14h33.45.655,vts_reward_expectancy_bt,2022.2.4,Win32,165.3986107,Chrome,1920,1080,,,a,0.2604,1,383,2,0,4,4,9,1,0,0,0,1,1,0,0,0,star,triangle,,,,,,,,,,,,,,,,,,,,,,,,,,,,,,,,,,,,,,,,,,,,,,,,,,,,,,
298135,2022-12-03_14h33.45.655,vts_reward_expectancy_bt,2022.2.4,Win32,165.3986107,Chrome,1920,1080,,,a,4.1594,1,384,2,0,5,5,3,1,0,1,0,0,1,0,0,0,circle,triangle,,,,,,,,,,,,,,,,,,,,,,,,,,,,,,,,,,,,,,,,,,,,,,,,,,,,,,
298135,2022-12-03_14h33.45.655,vts_reward_expectancy_bt,2022.2.4,Win32,165.3986107,Chrome,1920,1080,,,a,0.2259,1,385,2,0,6,6,0,1,1,0,0,0,0,1,0,0,triangle,circle,,,,,,,,,,,,,,,,,,,,,,,,,,,,,,,,,,,,,,,,,,,,,,,,,,,,,,
298135,2022-12-03_14h33.45.655,vts_reward_expectancy_bt,2022.2.4,Win32,165.3986107,Chrome,1920,1080,,,a,0.6212,10,395,2,0,7,7,6,1,0,0,1,0,1,0,0,0,hexagon,triangle,,,,,,,,,,,,,,,,,,,,,,,,,,,,,,,,,,,,,,,,,,,,,,,,,,,,,,
298135,2022-12-03_14h33.45.655,vts_reward_expectancy_bt,2022.2.4,Win32,165.3986107,Chrome,1920,1080,,,a,9.1708,10,405,2,0,8,8,10,1,0,0,0,1,0,1,0,0,star ,circle,,,,,,,,,,,,,,,,,,,,,,,,,,,,,,,,,,,,,,,,,,,,,,,,,,,,,,
298135,2022-12-03_14h33.45.655,vts_reward_expectancy_bt,2022.2.4,Win32,165.3986107,Chrome,1920,1080,,,a,0.6689,1,406,2,0,9,9,5,1,0,1,0,0,0,0,0,1,circle,star,,,,,,,,,,,,,,,,,,,,,,,,,,,,,,,,,,,,,,,,,,,,,,,,,,,,,,
298135,2022-12-03_14h33.45.655,vts_reward_expectancy_bt,2022.2.4,Win32,165.3986107,Chrome,1920,1080,,,a,0.0846,10,416,2,0,10,10,1,1,1,0,0,0,0,0,1,0,triangle,hexagon,,,,,,,,,,,,,,,,,,,,,,,,,,,,,,,,,,,,,,,,,,,,,,,,,,,,,,
298135,2022-12-03_14h33.45.655,vts_reward_expectancy_bt,2022.2.4,Win32,165.3986107,Chrome,1920,1080,,,a,0.558,10,426,2,0,11,11,2,1,1,0,0,0,0,0,0,1,triangle,star,,,,,,,,,,,,,,,,,,,,,,,,,,,,,,,,,,,,,,,,,,,,,,,,,,,,,,
298135,2022-12-03_14h33.45.655,vts_reward_expectancy_bt,2022.2.4,Win32,165.3986107,Chrome,1920,1080,,,a,0.0059,10,436,2,1,0,12,11,1,0,0,0,1,0,0,1,0,star,hexagon,,,,,,,,,,,,,,,,,,,,,,,,,,,,,,,,,,,,,,,,,,,,,,,,,,,,,,
298135,2022-12-03_14h33.45.655,vts_reward_expectancy_bt,2022.2.4,Win32,165.3986107,Chrome,1920,1080,,,a,0.0196,10,446,2,1,1,13,7,1,0,0,1,0,0,1,0,0,hexagon,circle,,,,,,,,,,,,,,,,,,,,,,,,,,,,,,,,,,,,,,,,,,,,,,,,,,,,,,
298135,2022-12-03_14h33.45.655,vts_reward_expectancy_bt,2022.2.4,Win32,165.3986107,Chrome,1920,1080,,,a,0.5417,10,456,2,1,2,14,2,1,1,0,0,0,0,0,0,1,triangle,star,,,,,,,,,,,,,,,,,,,,,,,,,,,,,,,,,,,,,,,,,,,,,,,,,,,,,,
298135,2022-12-03_14h33.45.655,vts_reward_expectancy_bt,2022.2.4,Win32,165.3986107,Chrome,1920,1080,,,a,0.0517,1,457,2,1,3,15,8,1,0,0,1,0,0,0,0,1,hexagon,star,,,,,,,,,,,,,,,,,,,,,,,,,,,,,,,,,,,,,,,,,,,,,,,,,,,,,,
298135,2022-12-03_14h33.45.655,vts_reward_expectancy_bt,2022.2.4,Win32,165.3986107,Chrome,1920,1080,,,a,0.1109,10,467,2,1,4,16,6,1,0,0,1,0,1,0,0,0,hexagon,triangle,,,,,,,,,,,,,,,,,,,,,,,,,,,,,,,,,,,,,,,,,,,,,,,,,,,,,,
298135,2022-12-03_14h33.45.655,vts_reward_expectancy_bt,2022.2.4,Win32,165.3986107,Chrome,1920,1080,,,a,0.4967,1,468,2,1,5,17,3,1,0,1,0,0,1,0,0,0,circle,triangle,,,,,,,,,,,,,,,,,,,,,,,,,,,,,,,,,,,,,,,,,,,,,,,,,,,,,,
298135,2022-12-03_14h33.45.655,vts_reward_expectancy_bt,2022.2.4,Win32,165.3986107,Chrome,1920,1080,,,a,0.1103,10,478,2,1,6,18,9,1,0,0,0,1,1,0,0,0,star,triangle,,,,,,,,,,,,,,,,,,,,,,,,,,,,,,,,,,,,,,,,,,,,,,,,,,,,,,
298135,2022-12-03_14h33.45.655,vts_reward_expectancy_bt,2022.2.4,Win32,165.3986107,Chrome,1920,1080,,,a,0.136,10,488,2,1,7,19,4,1,0,1,0,0,0,0,1,0,circle,hexagon,,,,,,,,,,,,,,,,,,,,,,,,,,,,,,,,,,,,,,,,,,,,,,,,,,,,,,
298135,2022-12-03_14h33.45.655,vts_reward_expectancy_bt,2022.2.4,Win32,165.3986107,Chrome,1920,1080,,,a,2.9289,1,489,2,1,8,20,1,1,1,0,0,0,0,0,1,0,triangle,hexagon,,,,,,,,,,,,,,,,,,,,,,,,,,,,,,,,,,,,,,,,,,,,,,,,,,,,,,
298135,2022-12-03_14h33.45.655,vts_reward_expectancy_bt,2022.2.4,Win32,165.3986107,Chrome,1920,1080,,,a,1.0921,1,490,2,1,9,21,0,1,1,0,0,0,0,1,0,0,triangle,circle,,,,,,,,,,,,,,,,,,,,,,,,,,,,,,,,,,,,,,,,,,,,,,,,,,,,,,
298135,2022-12-03_14h33.45.655,vts_reward_expectancy_bt,2022.2.4,Win32,165.3986107,Chrome,1920,1080,,,a,0.0118,1,491,2,1,10,22,10,1,0,0,0,1,0,1,0,0,star ,circle,,,,,,,,,,,,,,,,,,,,,,,,,,,,,,,,,,,,,,,,,,,,,,,,,,,,,,
298135,2022-12-03_14h33.45.655,vts_reward_expectancy_bt,2022.2.4,Win32,165.3986107,Chrome,1920,1080,,,a,0.2544,10,501,2,1,11,23,5,1,0,1,0,0,0,0,0,1,circle,star,,,,,,,,,,,,,,,,,,,,,,,,,,,,,,,,,,,,,,,,,,,,,,,,,,,,,,
298135,2022-12-03_14h33.45.655,vts_reward_expectancy_bt,2022.2.4,Win32,165.3986107,Chrome,1920,1080,,,a,0.8612,10,511,2,2,0,24,10,1,0,0,0,1,0,1,0,0,star ,circle,,,,,,,,,,,,,,,,,,,,,,,,,,,,,,,,,,,,,,,,,,,,,,,,,,,,,,
298135,2022-12-03_14h33.45.655,vts_reward_expectancy_bt,2022.2.4,Win32,165.3986107,Chrome,1920,1080,,,a,0.073,1,512,2,2,1,25,6,1,0,0,1,0,1,0,0,0,hexagon,triangle,,,,,,,,,,,,,,,,,,,,,,,,,,,,,,,,,,,,,,,,,,,,,,,,,,,,,,
298135,2022-12-03_14h33.45.655,vts_reward_expectancy_bt,2022.2.4,Win32,165.3986107,Chrome,1920,1080,,,a,4.5961,10,522,2,2,2,26,0,1,1,0,0,0,0,1,0,0,triangle,circle,,,,,,,,,,,,,,,,,,,,,,,,,,,,,,,,,,,,,,,,,,,,,,,,,,,,,,
298135,2022-12-03_14h33.45.655,vts_reward_expectancy_bt,2022.2.4,Win32,165.3986107,Chrome,1920,1080,,,a,0.0907,10,532,2,2,3,27,9,1,0,0,0,1,1,0,0,0,star,triangle,,,,,,,,,,,,,,,,,,,,,,,,,,,,,,,,,,,,,,,,,,,,,,,,,,,,,,
298135,2022-12-03_14h33.45.655,vts_reward_expectancy_bt,2022.2.4,Win32,165.3986107,Chrome,1920,1080,,,a,0.4573,1,533,2,2,4,28,7,1,0,0,1,0,0,1,0,0,hexagon,circle,,,,,,,,,,,,,,,,,,,,,,,,,,,,,,,,,,,,,,,,,,,,,,,,,,,,,,
298135,2022-12-03_14h33.45.655,vts_reward_expectancy_bt,2022.2.4,Win32,165.3986107,Chrome,1920,1080,,,a,0.0193,1,534,2,2,5,29,5,1,0,1,0,0,0,0,0,1,circle,star,,,,,,,,,,,,,,,,,,,,,,,,,,,,,,,,,,,,,,,,,,,,,,,,,,,,,,
298135,2022-12-03_14h33.45.655,vts_reward_expectancy_bt,2022.2.4,Win32,165.3986107,Chrome,1920,1080,,,a,3.9865,10,544,2,2,6,30,11,1,0,0,0,1,0,0,1,0,star,hexagon,,,,,,,,,,,,,,,,,,,,,,,,,,,,,,,,,,,,,,,,,,,,,,,,,,,,,,
298135,2022-12-03_14h33.45.655,vts_reward_expectancy_bt,2022.2.4,Win32,165.3986107,Chrome,1920,1080,,,a,0.0368,1,545,2,2,7,31,4,1,0,1,0,0,0,0,1,0,circle,hexagon,,,,,,,,,,,,,,,,,,,,,,,,,,,,,,,,,,,,,,,,,,,,,,,,,,,,,,
298135,2022-12-03_14h33.45.655,vts_reward_expectancy_bt,2022.2.4,Win32,165.3986107,Chrome,1920,1080,,,a,0.2438,1,546,2,2,8,32,2,1,1,0,0,0,0,0,0,1,triangle,star,,,,,,,,,,,,,,,,,,,,,,,,,,,,,,,,,,,,,,,,,,,,,,,,,,,,,,
298135,2022-12-03_14h33.45.655,vts_reward_expectancy_bt,2022.2.4,Win32,165.3986107,Chrome,1920,1080,,,a,0.0246,1,547,2,2,9,33,3,1,0,1,0,0,1,0,0,0,circle,triangle,,,,,,,,,,,,,,,,,,,,,,,,,,,,,,,,,,,,,,,,,,,,,,,,,,,,,,
298135,2022-12-03_14h33.45.655,vts_reward_expectancy_bt,2022.2.4,Win32,165.3986107,Chrome,1920,1080,,,a,0.0665,1,548,2,2,10,34,8,1,0,0,1,0,0,0,0,1,hexagon,star,,,,,,,,,,,,,,,,,,,,,,,,,,,,,,,,,,,,,,,,,,,,,,,,,,,,,,
298135,2022-12-03_14h33.45.655,vts_reward_expectancy_bt,2022.2.4,Win32,165.3986107,Chrome,1920,1080,,,a,0.1639,1,549,2,2,11,35,1,1,1,0,0,0,0,0,1,0,triangle,hexagon,,,,,,,,,,,,,,,,,,,,,,,,,,,,,,,,,,,,,,,,,,,,,,,,,,,,,,
298135,2022-12-03_14h33.45.655,vts_reward_expectancy_bt,2022.2.4,Win32,165.3986107,Chrome,1920,1080,,,,,,,,,,,,,,,,,,,,,,,H,160,triangle,0,0,,0,0,0,0,0,1,,,,,,,,,,,,,,,,,,,,,,,,,,,,,,,,,,,,,,,,,,
298135,2022-12-03_14h33.45.655,vts_reward_expectancy_bt,2022.2.4,Win32,165.3986107,Chrome,1920,1080,,,,,,,,,,,,,,,,,,,,,,,B,146,circle,0,1,,0,1,0,1,0,1,,,,,,,,,,,,,,,,,,,,,,,,,,,,,,,,,,,,,,,,,,
298135,2022-12-03_14h33.45.655,vts_reward_expectancy_bt,2022.2.4,Win32,165.3986107,Chrome,1920,1080,,,,,,,,,,,,,,,,,,,,,,,F,167,star,1,1,d,0,2,0,2,0,1,2.3347,,,,,,,,,,,,,,,,,,,,,,,,,,,,,,,,,,,,,,,,,
298135,2022-12-03_14h33.45.655,vts_reward_expectancy_bt,2022.2.4,Win32,165.3986107,Chrome,1920,1080,,,,,,,,,,,,,,,,,,,,,,,W,139,hexagon,0,0,d,0,3,0,3,0,1,0.5145,,,,,,,,,,,,,,,,,,,,,,,,,,,,,,,,,,,,,,,,,
298135,2022-12-03_14h33.45.655,vts_reward_expectancy_bt,2022.2.4,Win32,165.3986107,Chrome,1920,1080,,,,,,,,,,,,,,,,,,,,,,,U,125,triangle,0,1,d,0,4,0,4,0,1,0.4915,,,,,,,,,,,,,,,,,,,,,,,,,,,,,,,,,,,,,,,,,
298135,2022-12-03_14h33.45.655,vts_reward_expectancy_bt,2022.2.4,Win32,165.3986107,Chrome,1920,1080,,,,,,,,,,,,,,,,,,,,,,,S,181,circle,2,1,k,0,5,0,5,0,1,1.5098,,,,,,,,,,,,,,,,,,,,,,,,,,,,,,,,,,,,,,,,,
298135,2022-12-03_14h33.45.655,vts_reward_expectancy_bt,2022.2.4,Win32,165.3986107,Chrome,1920,1080,,,,,,,,,,,,,,,,,,,,,,,D,132,star,2,0,k,0,6,0,6,0,1,1.4994,,,,,,,,,,,,,,,,,,,,,,,,,,,,,,,,,,,,,,,,,
298135,2022-12-03_14h33.45.655,vts_reward_expectancy_bt,2022.2.4,Win32,165.3986107,Chrome,1920,1080,,,,,,,,,,,,,,,,,,,,,,,Y,174,hexagon,2,0,k,0,7,0,7,0,1,0.7581,,,,,,,,,,,,,,,,,,,,,,,,,,,,,,,,,,,,,,,,,
298135,2022-12-03_14h33.45.655,vts_reward_expectancy_bt,2022.2.4,Win32,165.3986107,Chrome,1920,1080,,,,,,,,,,,,,,,,,,,,,,,H,160,circle,1,0,d,0,8,0,8,0,1,0.255,,,,,,,,,,,,,,,,,,,,,,,,,,,,,,,,,,,,,,,,,
298135,2022-12-03_14h33.45.655,vts_reward_expectancy_bt,2022.2.4,Win32,165.3986107,Chrome,1920,1080,,,,,,,,,,,,,,,,,,,,,,,B,146,star,0,0,f,0,9,0,9,0,1,0.5358,,,,,,,,,,,,,,,,,,,,,,,,,,,,,,,,,,,,,,,,,
298135,2022-12-03_14h33.45.655,vts_reward_expectancy_bt,2022.2.4,Win32,165.3986107,Chrome,1920,1080,,,,,,,,,,,,,,,,,,,,,,,W,181,triangle,1,1,f,1,0,0,0,0,1,2.2561,,,,,,,,,,,,,,,,,,,,,,,,,,,,,,,,,,,,,,,,,
298135,2022-12-03_14h33.45.655,vts_reward_expectancy_bt,2022.2.4,Win32,165.3986107,Chrome,1920,1080,,,,,,,,,,,,,,,,,,,,,,,U,167,circle,1,0,f,1,1,0,1,0,1,0.6919,,,,,,,,,,,,,,,,,,,,,,,,,,,,,,,,,,,,,,,,,
298135,2022-12-03_14h33.45.655,vts_reward_expectancy_bt,2022.2.4,Win32,165.3986107,Chrome,1920,1080,,,,,,,,,,,,,,,,,,,,,,,D,174,hexagon,1,0,d,1,2,0,2,0,1,0.6507,,,,,,,,,,,,,,,,,,,,,,,,,,,,,,,,,,,,,,,,,
298135,2022-12-03_14h33.45.655,vts_reward_expectancy_bt,2022.2.4,Win32,165.3986107,Chrome,1920,1080,,,,,,,,,,,,,,,,,,,,,,,B,139,star,1,0,d,1,3,0,3,0,1,0.5226,,,,,,,,,,,,,,,,,,,,,,,,,,,,,,,,,,,,,,,,,
298135,2022-12-03_14h33.45.655,vts_reward_expectancy_bt,2022.2.4,Win32,165.3986107,Chrome,1920,1080,,,,,,,,,,,,,,,,,,,,,,,S,160,triangle,0,0,d,1,4,0,4,0,1,1.8668,,,,,,,,,,,,,,,,,,,,,,,,,,,,,,,,,,,,,,,,,
298135,2022-12-03_14h33.45.655,vts_reward_expectancy_bt,2022.2.4,Win32,165.3986107,Chrome,1920,1080,,,,,,,,,,,,,,,,,,,,,,,Y,132,circle,1,1,f,1,5,0,5,0,1,0.7581,,,,,,,,,,,,,,,,,,,,,,,,,,,,,,,,,,,,,,,,,
298135,2022-12-03_14h33.45.655,vts_reward_expectancy_bt,2022.2.4,Win32,165.3986107,Chrome,1920,1080,,,,,,,,,,,,,,,,,,,,,,,F,146,hexagon,1,0,d,1,6,0,6,0,1,1.6508,,,,,,,,,,,,,,,,,,,,,,,,,,,,,,,,,,,,,,,,,
298135,2022-12-03_14h33.45.655,vts_reward_expectancy_bt,2022.2.4,Win32,165.3986107,Chrome,1920,1080,,,,,,,,,,,,,,,,,,,,,,,H,125,star,1,0,d,1,7,0,7,0,1,0.6507,,,,,,,,,,,,,,,,,,,,,,,,,,,,,,,,,,,,,,,,,
298135,2022-12-03_14h33.45.655,vts_reward_expectancy_bt,2022.2.4,Win32,165.3986107,Chrome,1920,1080,,,,,,,,,,,,,,,,,,,,,,,W,181,circle,1,0,f,1,8,0,8,0,1,0.5525,,,,,,,,,,,,,,,,,,,,,,,,,,,,,,,,,,,,,,,,,
298135,2022-12-03_14h33.45.655,vts_reward_expectancy_bt,2022.2.4,Win32,165.3986107,Chrome,1920,1080,,,,,,,,,,,,,,,,,,,,,,,U,167,triangle,1,0,f,1,9,0,9,0,1,0.5152,,,,,,,,,,,,,,,,,,,,,,,,,,,,,,,,,,,,,,,,,
298135,2022-12-03_14h33.45.655,vts_reward_expectancy_bt,2022.2.4,Win32,165.3986107,Chrome,1920,1080,,,,,,,,,,,,,,,,,,,,,,,W,181,star,1,0,,2,,,,,,,k,1.703,0,0,0,0,1,,,,,,,,,,,,,,,,,,,,,,,,,,,,,,,,,,
298135,2022-12-03_14h33.45.655,vts_reward_expectancy_bt,2022.2.4,Win32,165.3986107,Chrome,1920,1080,,,,,,,,,,,,,,,,,,,,,,,S,167,circle,1,0,,2,,,,,,,k,1.3697,1,0,1,0,1,,,,,,,,,,,,,,,,,,,,,,,,,,,,,,,,,,
298135,2022-12-03_14h33.45.655,vts_reward_expectancy_bt,2022.2.4,Win32,165.3986107,Chrome,1920,1080,,,,,,,,,,,,,,,,,,,,,,,B,174,triangle,1,0,,2,,,,,,,k,2.0207,2,0,2,0,1,,,,,,,,,,,,,,,,,,,,,,,,,,,,,,,,,,
298135,2022-12-03_14h33.45.655,vts_reward_expectancy_bt,2022.2.4,Win32,165.3986107,Chrome,1920,1080,,,,,,,,,,,,,,,,,,,,,,,F,125,hexagon,1,0,,2,,,,,,,j,0.6091,3,0,3,0,1,,,,,,,,,,,,,,,,,,,,,,,,,,,,,,,,,,
298135,2022-12-03_14h33.45.655,vts_reward_expectancy_bt,2022.2.4,Win32,165.3986107,Chrome,1920,1080,,,,,,,,,,,,,,,,,,,,,,,D,146,star,1,0,,2,,,,,,,j,1.0691,4,0,4,0,1,,,,,,,,,,,,,,,,,,,,,,,,,,,,,,,,,,
298135,2022-12-03_14h33.45.655,vts_reward_expectancy_bt,2022.2.4,Win32,165.3986107,Chrome,1920,1080,,,,,,,,,,,,,,,,,,,,,,,Y,160,circle,1,0,,2,,,,,,,k,1.4738,5,0,5,0,1,,,,,,,,,,,,,,,,,,,,,,,,,,,,,,,,,,
298135,2022-12-03_14h33.45.655,vts_reward_expectancy_bt,2022.2.4,Win32,165.3986107,Chrome,1920,1080,,,,,,,,,,,,,,,,,,,,,,,U,132,triangle,1,0,,2,,,,,,,j,0.5774,6,0,6,0,1,,,,,,,,,,,,,,,,,,,,,,,,,,,,,,,,,,
298135,2022-12-03_14h33.45.655,vts_reward_expectancy_bt,2022.2.4,Win32,165.3986107,Chrome,1920,1080,,,,,,,,,,,,,,,,,,,,,,,H,139,hexagon,1,0,,2,,,,,,,j,1.1071,7,0,7,0,1,,,,,,,,,,,,,,,,,,,,,,,,,,,,,,,,,,
298135,2022-12-03_14h33.45.655,vts_reward_expectancy_bt,2022.2.4,Win32,165.3986107,Chrome,1920,1080,,,,,,,,,,,,,,,,,,,,,,,W,181,circle,1,0,,2,,,,,,,k,0.4403,8,0,8,0,1,,,,,,,,,,,,,,,,,,,,,,,,,,,,,,,,,,
298135,2022-12-03_14h33.45.655,vts_reward_expectancy_bt,2022.2.4,Win32,165.3986107,Chrome,1920,1080,,,,,,,,,,,,,,,,,,,,,,,S,167,hexagon,1,0,,2,,,,,,,k,0.5623,9,0,9,0,1,,,,,,,,,,,,,,,,,,,,,,,,,,,,,,,,,,
298135,2022-12-03_14h33.45.655,vts_reward_expectancy_bt,2022.2.4,Win32,165.3986107,Chrome,1920,1080,,,,,0,549,,,,,,,,,,,,,,,,,B,160,triangle,-1,0,,3,,,,,,,,,,,,,,-1,no_choice,NA,,vtsPrac,0,0,0,0,1,,,,,,,,,,,,,,,,,,,,,,,,
298135,2022-12-03_14h33.45.655,vts_reward_expectancy_bt,2022.2.4,Win32,165.3986107,Chrome,1920,1080,,,,,0,549,,,,,,,,,,,,,,,,,W,139,star,0,0,,3,,,,,,,,,,,,,,switch,letter,NA,d,vtsPrac,1,0,1,0,1,0.7772,,,,,,,,,,,,,,,,,,,,,,,
298135,2022-12-03_14h33.45.655,vts_reward_expectancy_bt,2022.2.4,Win32,165.3986107,Chrome,1920,1080,,,,,0,549,,,,,,,,,,,,,,,,,S,181,triangle,1,1,,3,,,,,,,,,,,,,,repeat,letter,lettRpt,f,vtsPrac,2,0,2,0,1,1.4791,,,,,,,,,,,,,,,,,,,,,,,
298135,2022-12-03_14h33.45.655,vts_reward_expectancy_bt,2022.2.4,Win32,165.3986107,Chrome,1920,1080,,,,,0,549,,,,,,,,,,,,,,,,,H,125,star,1,0,,3,,,,,,,,,,,,,,repeat,letter,lettRpt,d,vtsPrac,3,0,3,0,1,0.772,,,,,,,,,,,,,,,,,,,,,,,
298135,2022-12-03_14h33.45.655,vts_reward_expectancy_bt,2022.2.4,Win32,165.3986107,Chrome,1920,1080,,,,,0,549,,,,,,,,,,,,,,,,,B,160,triangle,1,0,,3,,,,,,,,,,,,,,switch,number,numSwt,k,vtsPrac,4,0,4,0,1,0.8416,,,,,,,,,,,,,,,,,,,,,,,
298135,2022-12-03_14h33.45.655,vts_reward_expectancy_bt,2022.2.4,Win32,165.3986107,Chrome,1920,1080,,,,,0,549,,,,,,,,,,,,,,,,,W,139,circle,1,0,,3,,,,,,,,,,,,,,repeat,number,numRpt,j,vtsPrac,5,0,5,0,1,0.6908,,,,,,,,,,,,,,,,,,,,,,,
298135,2022-12-03_14h33.45.655,vts_reward_expectancy_bt,2022.2.4,Win32,165.3986107,Chrome,1920,1080,,,,,0,549,,,,,,,,,,,,,,,,,S,181,circle,1,0,,3,,,,,,,,,,,,,,switch,letter,lettSwt,f,vtsPrac,6,0,6,0,1,0.7639,,,,,,,,,,,,,,,,,,,,,,,
298135,2022-12-03_14h33.45.655,vts_reward_expectancy_bt,2022.2.4,Win32,165.3986107,Chrome,1920,1080,,,,,0,549,,,,,,,,,,,,,,,,,H,125,star,1,0,,3,,,,,,,,,,,,,,repeat,letter,lettRpt,d,vtsPrac,7,0,7,0,1,0.8091,,,,,,,,,,,,,,,,,,,,,,,
298135,2022-12-03_14h33.45.655,vts_reward_expectancy_bt,2022.2.4,Win32,165.3986107,Chrome,1920,1080,,,,,0,549,,,,,,,,,,,,,,,,,U,146,star,1,0,,3,,,,,,,,,,,,,,switch,number,numSwt,j,vtsPrac,8,0,8,0,1,0.6875,,,,,,,,,,,,,,,,,,,,,,,
298135,2022-12-03_14h33.45.655,vts_reward_expectancy_bt,2022.2.4,Win32,165.3986107,Chrome,1920,1080,,,,,0,549,,,,,,,,,,,,,,,,,B,167,hexagon,1,0,,3,,,,,,,,,,,,,,repeat,number,numRpt,k,vtsPrac,9,0,9,0,1,1.0132,,,,,,,,,,,,,,,,,,,,,,,
298135,2022-12-03_14h33.45.655,vts_reward_expectancy_bt,2022.2.4,Win32,165.3986107,Chrome,1920,1080,,,,,0,549,,,,,,,,,,,,,,,,,F,132,circle,1,0,,3,,,,,,,,,,,,,,switch,letter,lettSwt,d,vtsPrac,10,0,10,0,1,0.8437,,,,,,,,,,,,,,,,,,,,,,,
298135,2022-12-03_14h33.45.655,vts_reward_expectancy_bt,2022.2.4,Win32,165.3986107,Chrome,1920,1080,,,,,0,549,,,,,,,,,,,,,,,,,H,181,triangle,1,0,,3,,,,,,,,,,,,,,repeat,letter,lettRpt,d,vtsPrac,11,0,11,0,1,0.8669,,,,,,,,,,,,,,,,,,,,,,,
298135,2022-12-03_14h33.45.655,vts_reward_expectancy_bt,2022.2.4,Win32,165.3986107,Chrome,1920,1080,,,,,0,549,,,,,,,,,,,,,,,,,H,139,triangle,1,0,,3,,,,,,,,,,,,,,repeat,letter,lettRpt,d,vtsPrac,12,0,12,0,1,0.8809,,,,,,,,,,,,,,,,,,,,,,,
298135,2022-12-03_14h33.45.655,vts_reward_expectancy_bt,2022.2.4,Win32,165.3986107,Chrome,1920,1080,,,,,0,549,,,,,,,,,,,,,,,,,S,132,star,1,0,,3,,,,,,,,,,,,,,switch,number,numSwt,j,vtsPrac,13,0,13,0,1,0.9102,,,,,,,,,,,,,,,,,,,,,,,
298135,2022-12-03_14h33.45.655,vts_reward_expectancy_bt,2022.2.4,Win32,165.3986107,Chrome,1920,1080,,,,,0,549,,,,,,,,,,,,,,,,,D,160,hexagon,1,0,,3,,,,,,,,,,,,,,repeat,number,numRpt,k,vtsPrac,14,0,14,0,1,0.5821,,,,,,,,,,,,,,,,,,,,,,,
298135,2022-12-03_14h33.45.655,vts_reward_expectancy_bt,2022.2.4,Win32,165.3986107,Chrome,1920,1080,,,,,0,549,,,,,,,,,,,,,,,,,U,181,star,0,0,,3,,,,,,,,,,,,,,switch,letter,NA,d,vtsPrac,15,0,15,0,1,1.4735,,,,,,,,,,,,,,,,,,,,,,,
298135,2022-12-03_14h33.45.655,vts_reward_expectancy_bt,2022.2.4,Win32,165.3986107,Chrome,1920,1080,,,,,0,549,,,,,,,,,,,,,,,,,F,174,triangle,1,1,,3,,,,,,,,,,,,,,repeat,letter,lettRpt,d,vtsPrac,16,0,16,0,1,1.2127,,,,,,,,,,,,,,,,,,,,,,,
298135,2022-12-03_14h33.45.655,vts_reward_expectancy_bt,2022.2.4,Win32,165.3986107,Chrome,1920,1080,,,,,0,549,,,,,,,,,,,,,,,,,U,160,star,1,0,,3,,,,,,,,,,,,,,repeat,letter,lettRpt,f,vtsPrac,17,0,17,0,1,1.4414,,,,,,,,,,,,,,,,,,,,,,,
298135,2022-12-03_14h33.45.655,vts_reward_expectancy_bt,2022.2.4,Win32,165.3986107,Chrome,1920,1080,,,,,0,549,,,,,,,,,,,,,,,,,B,139,triangle,1,0,,3,,,,,,,,,,,,,,repeat,letter,lettRpt,d,vtsPrac,18,0,18,0,1,0.7303,,,,,,,,,,,,,,,,,,,,,,,
298135,2022-12-03_14h33.45.655,vts_reward_expectancy_bt,2022.2.4,Win32,165.3986107,Chrome,1920,1080,,,,,0,549,,,,,,,,,,,,,,,,,W,181,circle,1,0,,3,,,,,,,,,,,,,,switch,number,numSwt,k,vtsPrac,19,0,19,0,1,0.7409,,,,,,,,,,,,,,,,,,,,,,,
298135,2022-12-03_14h33.45.655,vts_reward_expectancy_bt,2022.2.4,Win32,165.3986107,Chrome,1920,1080,,,,,0,549,,,,,,,,,,,,,,,,,H,139,circle,1,0,,3,,,,,,,,,,,,,,switch,letter,lettSwt,d,vtsPrac,20,0,20,0,1,1.2311,,,,,,,,,,,,,,,,,,,,,,,
298135,2022-12-03_14h33.45.655,vts_reward_expectancy_bt,2022.2.4,Win32,165.3986107,Chrome,1920,1080,,,,,0,549,,,,,,,,,,,,,,,,,D,181,star,1,0,,3,,,,,,,,,,,,,,repeat,letter,lettRpt,d,vtsPrac,21,0,21,0,1,0.8852,,,,,,,,,,,,,,,,,,,,,,,
298135,2022-12-03_14h33.45.655,vts_reward_expectancy_bt,2022.2.4,Win32,165.3986107,Chrome,1920,1080,,,,,0,549,,,,,,,,,,,,,,,,,F,160,hexagon,1,0,,3,,,,,,,,,,,,,,switch,number,numSwt,k,vtsPrac,22,0,22,0,1,1.8375,,,,,,,,,,,,,,,,,,,,,,,
298135,2022-12-03_14h33.45.655,vts_reward_expectancy_bt,2022.2.4,Win32,165.3986107,Chrome,1920,1080,,,,,0,549,,,,,,,,,,,,,,,,,U,174,star,1,0,,3,,,,,,,,,,,,,,repeat,number,numRpt,k,vtsPrac,23,0,23,0,1,0.9167,,,,,,,,,,,,,,,,,,,,,,,
298135,2022-12-03_14h33.45.655,vts_reward_expectancy_bt,2022.2.4,Win32,165.3986107,Chrome,1920,1080,,,,,0,549,,,,,,,,,,,,,,,,,Y,132,star,1,0,,3,,,,,,,,,,,,,,repeat,number,numRpt,j,vtsPrac,24,0,24,0,1,0.7227,,,,,,,,,,,,,,,,,,,,,,,
298135,2022-12-03_14h33.45.655,vts_reward_expectancy_bt,2022.2.4,Win32,165.3986107,Chrome,1920,1080,,,,,0,549,,,,,,,,,,,,,,,,,B,160,circle,1,0,,3,,,,,,,,,,,,,,switch,letter,lettSwt,d,vtsPrac,25,0,25,0,1,0.6484,,,,,,,,,,,,,,,,,,,,,,,
298135,2022-12-03_14h33.45.655,vts_reward_expectancy_bt,2022.2.4,Win32,165.3986107,Chrome,1920,1080,,,,,0,549,,,,,,,,,,,,,,,,,H,146,triangle,1,0,,3,,,,,,,,,,,,,,repeat,letter,lettRpt,d,vtsPrac,26,0,26,0,1,1.1486,,,,,,,,,,,,,,,,,,,,,,,
298135,2022-12-03_14h33.45.655,vts_reward_expectancy_bt,2022.2.4,Win32,165.3986107,Chrome,1920,1080,,,,,0,549,,,,,,,,,,,,,,,,,D,167,hexagon,1,0,,3,,,,,,,,,,,,,,repeat,letter,lettRpt,d,vtsPrac,27,0,27,0,1,1.3704,,,,,,,,,,,,,,,,,,,,,,,
298135,2022-12-03_14h33.45.655,vts_reward_expectancy_bt,2022.2.4,Win32,165.3986107,Chrome,1920,1080,,,,,0,549,,,,,,,,,,,,,,,,,B,181,circle,1,0,,3,,,,,,,,,,,,,,switch,number,numSwt,k,vtsPrac,28,0,28,0,1,0.8666,,,,,,,,,,,,,,,,,,,,,,,
298135,2022-12-03_14h33.45.655,vts_reward_expectancy_bt,2022.2.4,Win32,165.3986107,Chrome,1920,1080,,,,,0,549,,,,,,,,,,,,,,,,,S,132,hexagon,1,0,,3,,,,,,,,,,,,,,repeat,number,numRpt,j,vtsPrac,29,0,29,0,1,0.6245,,,,,,,,,,,,,,,,,,,,,,,
298135,2022-12-03_14h33.45.655,vts_reward_expectancy_bt,2022.2.4,Win32,165.3986107,Chrome,1920,1080,,,,,0,549,,,,,,,,,,,,,,,,,D,160,hexagon,1,0,,3,,,,,,,,,,,,,,switch,letter,lettSwt,d,vtsPrac,30,0,30,0,1,0.5703,,,,,,,,,,,,,,,,,,,,,,,
298135,2022-12-03_14h33.45.655,vts_reward_expectancy_bt,2022.2.4,Win32,165.3986107,Chrome,1920,1080,,,,,0,549,,,,,,,,,,,,,,,,,W,146,star,1,0,,3,,,,,,,,,,,,,,repeat,letter,lettRpt,f,vtsPrac,31,0,31,0,1,0.7032,,,,,,,,,,,,,,,,,,,,,,,
298135,2022-12-03_14h33.45.655,vts_reward_expectancy_bt,2022.2.4,Win32,165.3986107,Chrome,1920,1080,,,,,,,,,,,,,,,,,,,,,,,,,,,,,,,,,,,,,,,,,,,,,,,,,,,,,,,,,,,,,,,,,,,,,,,,,,,,
298135,2022-12-03_14h33.45.655,vts_reward_expectancy_bt,2022.2.4,Win32,165.3986107,Chrome,1920,1080,,,,,,,,,,,,,,,,,,,,,,,,,,,,,,,,,,,,,,,,,,,,,,,,,,,,,,,,,,,,,,,,,,,,,,,,,,,,
298135,2022-12-03_14h33.45.655,vts_reward_expectancy_bt,2022.2.4,Win32,165.3986107,Chrome,1920,1080,,,,,0,549,,,,,,,,,,,,,,,,,F,160,star,1,0,,,,,,,,,,,,,,,,repeat,letter,lettRpt,d,noRew,,,,,,1.0886,0,0,0,0,0,1,,,,,,,,,,,,,,,,,
298135,2022-12-03_14h33.45.655,vts_reward_expectancy_bt,2022.2.4,Win32,165.3986107,Chrome,1920,1080,,,,,0,549,,,,,,,,,,,,,,,,,Y,167,triangle,0,0,,,,,,,,,,,,,,,,switch,number,NA,j,noRew,,,,,,0.5042,0,1,0,1,0,1,,,,,,,,,,,,,,,,,
298135,2022-12-03_14h33.45.655,vts_reward_expectancy_bt,2022.2.4,Win32,165.3986107,Chrome,1920,1080,,,,,0,549,,,,,,,,,,,,,,,,,W,146,star,1,1,,,,,,,,,,,,,,,,repeat,number,numRpt,j,noRew,,,,,,0.8691,0,2,0,2,0,1,,,,,,,,,,,,,,,,,
298135,2022-12-03_14h33.45.655,vts_reward_expectancy_bt,2022.2.4,Win32,165.3986107,Chrome,1920,1080,,,,,0,549,,,,,,,,,,,,,,,,,B,125,triangle,1,0,,,,,,,,,,,,,,,,switch,letter,lettSwt,d,noRew,,,,,,0.9291,0,3,0,3,0,1,,,,,,,,,,,,,,,,,
298135,2022-12-03_14h33.45.655,vts_reward_expectancy_bt,2022.2.4,Win32,165.3986107,Chrome,1920,1080,,,,,0,549,,,,,,,,,,,,,,,,,F,160,star,1,0,,,,,,,,,,,,,,,,repeat,letter,lettRpt,d,noRew,,,,,,0.7456,0,4,0,4,0,1,,,,,,,,,,,,,,,,,
298135,2022-12-03_14h33.45.655,vts_reward_expectancy_bt,2022.2.4,Win32,165.3986107,Chrome,1920,1080,,,,,0,549,,,,,,,,,,,,,,,,,Y,167,hexagon,1,0,,,,,,,,,,,,,,,,repeat,letter,lettRpt,f,noRew,,,,,,0.3697,0,5,0,5,0,1,,,,,,,,,,,,,,,,,
298135,2022-12-03_14h33.45.655,vts_reward_expectancy_bt,2022.2.4,Win32,165.3986107,Chrome,1920,1080,,,,,0,549,,,,,,,,,,,,,,,,,W,146,circle,1,0,,,,,,,,,,,,,,,,switch,number,numSwt,j,noRew,,,,,,0.6123,0,6,0,6,0,1,,,,,,,,,,,,,,,,,
298135,2022-12-03_14h33.45.655,vts_reward_expectancy_bt,2022.2.4,Win32,165.3986107,Chrome,1920,1080,,,,,0,549,,,,,,,,,,,,,,,,,B,125,hexagon,1,0,,,,,,,,,,,,,,,,repeat,number,numRpt,j,noRew,,,,,,0.7965,0,7,0,7,0,1,,,,,,,,,,,,,,,,,
298135,2022-12-03_14h33.45.655,vts_reward_expectancy_bt,2022.2.4,Win32,165.3986107,Chrome,1920,1080,,,,,0,549,,,,,,,,,,,,,,,,,Y,132,circle,1,0,,,,,,,,,,,,,,,,switch,letter,lettSwt,f,noRew,,,,,,0.8098,0,8,0,8,0,1,,,,,,,,,,,,,,,,,
298135,2022-12-03_14h33.45.655,vts_reward_expectancy_bt,2022.2.4,Win32,165.3986107,Chrome,1920,1080,,,,,0,549,,,,,,,,,,,,,,,,,U,160,star,1,0,,,,,,,,,,,,,,,,switch,number,numSwt,k,noRew,,,,,,0.4736,0,9,0,9,0,1,,,,,,,,,,,,,,,,,
298135,2022-12-03_14h33.45.655,vts_reward_expectancy_bt,2022.2.4,Win32,165.3986107,Chrome,1920,1080,,,,,0,549,,,,,,,,,,,,,,,,,S,139,hexagon,1,0,,,,,,,,,,,,,,,,repeat,number,numRpt,j,noRew,,,,,,0.6188,0,10,0,10,0,1,,,,,,,,,,,,,,,,,
298135,2022-12-03_14h33.45.655,vts_reward_expectancy_bt,2022.2.4,Win32,165.3986107,Chrome,1920,1080,,,,,0,549,,,,,,,,,,,,,,,,,B,125,triangle,1,0,,,,,,,,,,,,,,,,switch,letter,lettSwt,d,noRew,,,,,,0.6976,0,11,0,11,0,1,,,,,,,,,,,,,,,,,
298135,2022-12-03_14h33.45.655,vts_reward_expectancy_bt,2022.2.4,Win32,165.3986107,Chrome,1920,1080,,,,,0,549,,,,,,,,,,,,,,,,,S,132,triangle,1,0,,,,,,,,,,,,,,,,repeat,letter,lettRpt,f,noRew,,,,,,0.8072,0,12,0,12,0,1,,,,,,,,,,,,,,,,,
298135,2022-12-03_14h33.45.655,vts_reward_expectancy_bt,2022.2.4,Win32,165.3986107,Chrome,1920,1080,,,,,0,549,,,,,,,,,,,,,,,,,Y,167,circle,1,0,,,,,,,,,,,,,,,,repeat,letter,lettRpt,f,noRew,,,,,,0.6372,0,13,0,13,0,1,,,,,,,,,,,,,,,,,
298135,2022-12-03_14h33.45.655,vts_reward_expectancy_bt,2022.2.4,Win32,165.3986107,Chrome,1920,1080,,,,,0,549,,,,,,,,,,,,,,,,,D,181,star,1,0,,,,,,,,,,,,,,,,repeat,letter,lettRpt,d,noRew,,,,,,0.8185,0,14,0,14,0,1,,,,,,,,,,,,,,,,,
298135,2022-12-03_14h33.45.655,vts_reward_expectancy_bt,2022.2.4,Win32,165.3986107,Chrome,1920,1080,,,,,0,549,,,,,,,,,,,,,,,,,U,160,hexagon,1,0,,,,,,,,,,,,,,,,repeat,letter,lettRpt,f,noRew,,,,,,1.3695,0,15,0,15,0,1,,,,,,,,,,,,,,,,,
298135,2022-12-03_14h33.45.655,vts_reward_expectancy_bt,2022.2.4,Win32,165.3986107,Chrome,1920,1080,,,,,0,549,,,,,,,,,,,,,,,,,F,146,hexagon,1,0,,,,,,,,,,,,,,,,switch,number,numSwt,j,noRew,,,,,,2.3334,0,16,0,16,0,1,,,,,,,,,,,,,,,,,
298135,2022-12-03_14h33.45.655,vts_reward_expectancy_bt,2022.2.4,Win32,165.3986107,Chrome,1920,1080,,,,,0,549,,,,,,,,,,,,,,,,,B,160,circle,1,0,,,,,,,,,,,,,,,,switch,letter,lettSwt,d,noRew,,,,,,1.7309,0,17,0,17,0,1,,,,,,,,,,,,,,,,,
298135,2022-12-03_14h33.45.655,vts_reward_expectancy_bt,2022.2.4,Win32,165.3986107,Chrome,1920,1080,,,,,0,549,,,,,,,,,,,,,,,,,W,139,circle,1,0,,,,,,,,,,,,,,,,switch,number,numSwt,j,noRew,,,,,,0.7469,0,18,0,18,0,1,,,,,,,,,,,,,,,,,
298135,2022-12-03_14h33.45.655,vts_reward_expectancy_bt,2022.2.4,Win32,165.3986107,Chrome,1920,1080,,,,,0,549,,,,,,,,,,,,,,,,,Y,174,star,0,0,,,,,,,,,,,,,,,,repeat,number,NA,j,noRew,,,,,,0.5633,0,19,0,19,0,1,,,,,,,,,,,,,,,,,
298135,2022-12-03_14h33.45.655,vts_reward_expectancy_bt,2022.2.4,Win32,165.3986107,Chrome,1920,1080,,,,,0,549,,,,,,,,,,,,,,,,,B,174,hexagon,1,1,,,,,,,,,,,,,,,,switch,letter,lettSwt,d,noRew,,,,,,0.7195,0,20,0,20,0,1,,,,,,,,,,,,,,,,,
298135,2022-12-03_14h33.45.655,vts_reward_expectancy_bt,2022.2.4,Win32,165.3986107,Chrome,1920,1080,,,,,0,549,,,,,,,,,,,,,,,,,W,125,circle,1,0,,,,,,,,,,,,,,,,switch,number,numSwt,j,noRew,,,,,,0.6244,0,21,0,21,0,1,,,,,,,,,,,,,,,,,
298135,2022-12-03_14h33.45.655,vts_reward_expectancy_bt,2022.2.4,Win32,165.3986107,Chrome,1920,1080,,,,,0,549,,,,,,,,,,,,,,,,,H,146,circle,1,0,,,,,,,,,,,,,,,,switch,letter,lettSwt,d,noRew,,,,,,1.1086,0,22,0,22,0,1,,,,,,,,,,,,,,,,,
298135,2022-12-03_14h33.45.655,vts_reward_expectancy_bt,2022.2.4,Win32,165.3986107,Chrome,1920,1080,,,,,0,549,,,,,,,,,,,,,,,,,D,167,star,1,0,,,,,,,,,,,,,,,,repeat,letter,lettRpt,d,noRew,,,,,,0.6423,0,23,0,23,0,1,,,,,,,,,,,,,,,,,
298135,2022-12-03_14h33.45.655,vts_reward_expectancy_bt,2022.2.4,Win32,165.3986107,Chrome,1920,1080,,,,,0,549,,,,,,,,,,,,,,,,,F,167,circle,1,0,,,,,,,,,,,,,,,,repeat,letter,lettRpt,d,noRew,,,,,,0.6485,0,24,0,24,0,1,,,,,,,,,,,,,,,,,
298135,2022-12-03_14h33.45.655,vts_reward_expectancy_bt,2022.2.4,Win32,165.3986107,Chrome,1920,1080,,,,,0,549,,,,,,,,,,,,,,,,,U,146,hexagon,1,0,,,,,,,,,,,,,,,,switch,number,numSwt,j,noRew,,,,,,0.825,0,25,0,25,0,1,,,,,,,,,,,,,,,,,
298135,2022-12-03_14h33.45.655,vts_reward_expectancy_bt,2022.2.4,Win32,165.3986107,Chrome,1920,1080,,,,,0,549,,,,,,,,,,,,,,,,,W,181,hexagon,1,0,,,,,,,,,,,,,,,,switch,letter,lettSwt,f,noRew,,,,,,0.3514,0,26,0,26,0,1,,,,,,,,,,,,,,,,,
298135,2022-12-03_14h33.45.655,vts_reward_expectancy_bt,2022.2.4,Win32,165.3986107,Chrome,1920,1080,,,,,0,549,,,,,,,,,,,,,,,,,H,160,triangle,1,0,,,,,,,,,,,,,,,,repeat,letter,lettRpt,d,noRew,,,,,,1.5824,0,27,0,27,0,1,,,,,,,,,,,,,,,,,
298135,2022-12-03_14h33.45.655,vts_reward_expectancy_bt,2022.2.4,Win32,165.3986107,Chrome,1920,1080,,,,,0,549,,,,,,,,,,,,,,,,,Y,181,circle,0,0,,,,,,,,,,,,,,,,switch,number,NA,j,noRew,,,,,,1.6089,0,28,0,28,0,1,,,,,,,,,,,,,,,,,
298135,2022-12-03_14h33.45.655,vts_reward_expectancy_bt,2022.2.4,Win32,165.3986107,Chrome,1920,1080,,,,,0,549,,,,,,,,,,,,,,,,,B,125,star,1,1,,,,,,,,,,,,,,,,repeat,number,numRpt,j,noRew,,,,,,0.788,0,29,0,29,0,1,,,,,,,,,,,,,,,,,
298135,2022-12-03_14h33.45.655,vts_reward_expectancy_bt,2022.2.4,Win32,165.3986107,Chrome,1920,1080,,,,,0,549,,,,,,,,,,,,,,,,,U,132,star,1,0,,,,,,,,,,,,,,,,repeat,number,numRpt,j,noRew,,,,,,1.025,0,30,0,30,0,1,,,,,,,,,,,,,,,,,
298135,2022-12-03_14h33.45.655,vts_reward_expectancy_bt,2022.2.4,Win32,165.3986107,Chrome,1920,1080,,,,,0,549,,,,,,,,,,,,,,,,,F,146,triangle,1,0,,,,,,,,,,,,,,,,switch,letter,lettSwt,d,noRew,,,,,,2.8931,0,31,0,31,0,1,,,,,,,,,,,,,,,,,
298135,2022-12-03_14h33.45.655,vts_reward_expectancy_bt,2022.2.4,Win32,165.3986107,Chrome,1920,1080,,,,,0,549,,,,,,,,,,,,,,,,,H,146,star,1,0,,,,,,,,,,,,,,,,repeat,letter,lettRpt,d,noRew,,,,,,0.9463,0,32,0,32,0,1,,,,,,,,,,,,,,,,,
298135,2022-12-03_14h33.45.655,vts_reward_expectancy_bt,2022.2.4,Win32,165.3986107,Chrome,1920,1080,,,,,0,549,,,,,,,,,,,,,,,,,W,125,circle,1,0,,,,,,,,,,,,,,,,switch,number,numSwt,j,noRew,,,,,,0.9831,0,33,0,33,0,1,,,,,,,,,,,,,,,,,
298135,2022-12-03_14h33.45.655,vts_reward_expectancy_bt,2022.2.4,Win32,165.3986107,Chrome,1920,1080,,,,,0,549,,,,,,,,,,,,,,,,,S,132,circle,0,0,,,,,,,,,,,,,,,,switch,letter,NA,d,noRew,,,,,,1.389,0,34,0,34,0,1,,,,,,,,,,,,,,,,,
298135,2022-12-03_14h33.45.655,vts_reward_expectancy_bt,2022.2.4,Win32,165.3986107,Chrome,1920,1080,,,,,0,549,,,,,,,,,,,,,,,,,U,181,triangle,1,1,,,,,,,,,,,,,,,,switch,number,numSwt,k,noRew,,,,,,2.0411,0,35,0,35,0,1,,,,,,,,,,,,,,,,,
298135,2022-12-03_14h33.45.655,vts_reward_expectancy_bt,2022.2.4,Win32,165.3986107,Chrome,1920,1080,,,,,0,549,,,,,,,,,,,,,,,,,Y,125,hexagon,0,0,,,,,,,,,,,,,,,,repeat,number,NA,k,noRew,,,,,,1.6643,0,36,0,36,0,1,,,,,,,,,,,,,,,,,
298135,2022-12-03_14h33.45.655,vts_reward_expectancy_bt,2022.2.4,Win32,165.3986107,Chrome,1920,1080,,,,,0,549,,,,,,,,,,,,,,,,,S,181,star,1,1,,,,,,,,,,,,,,,,switch,letter,lettSwt,f,noRew,,,,,,0.9877,0,37,0,37,0,1,,,,,,,,,,,,,,,,,
298135,2022-12-03_14h33.45.655,vts_reward_expectancy_bt,2022.2.4,Win32,165.3986107,Chrome,1920,1080,,,,,0,549,,,,,,,,,,,,,,,,,D,174,triangle,1,0,,,,,,,,,,,,,,,,switch,number,numSwt,k,noRew,,,,,,1.2662,0,38,0,38,0,1,,,,,,,,,,,,,,,,,
298135,2022-12-03_14h33.45.655,vts_reward_expectancy_bt,2022.2.4,Win32,165.3986107,Chrome,1920,1080,,,,,0,549,,,,,,,,,,,,,,,,,F,132,circle,1,0,,,,,,,,,,,,,,,,switch,letter,lettSwt,d,noRew,,,,,,1.6761,0,39,0,39,0,1,,,,,,,,,,,,,,,,,
298135,2022-12-03_14h33.45.655,vts_reward_expectancy_bt,2022.2.4,Win32,165.3986107,Chrome,1920,1080,,,,,0,549,,,,,,,,,,,,,,,,,W,132,hexagon,1,0,,,,,,,,,,,,,,,,repeat,letter,lettRpt,f,noRew,,,,,,0.9194,0,40,0,40,0,1,,,,,,,,,,,,,,,,,
298135,2022-12-03_14h33.45.655,vts_reward_expectancy_bt,2022.2.4,Win32,165.3986107,Chrome,1920,1080,,,,,0,549,,,,,,,,,,,,,,,,,H,167,star,1,0,,,,,,,,,,,,,,,,repeat,letter,lettRpt,d,noRew,,,,,,1.0839,0,41,0,41,0,1,,,,,,,,,,,,,,,,,
298135,2022-12-03_14h33.45.655,vts_reward_expectancy_bt,2022.2.4,Win32,165.3986107,Chrome,1920,1080,,,,,0,549,,,,,,,,,,,,,,,,,D,160,circle,1,0,,,,,,,,,,,,,,,,repeat,letter,lettRpt,d,noRew,,,,,,1.3927,0,42,0,42,0,1,,,,,,,,,,,,,,,,,
298135,2022-12-03_14h33.45.655,vts_reward_expectancy_bt,2022.2.4,Win32,165.3986107,Chrome,1920,1080,,,,,0,549,,,,,,,,,,,,,,,,,S,146,hexagon,1,0,,,,,,,,,,,,,,,,repeat,letter,lettRpt,f,noRew,,,,,,1.0626,0,43,0,43,0,1,,,,,,,,,,,,,,,,,
298135,2022-12-03_14h33.45.655,vts_reward_expectancy_bt,2022.2.4,Win32,165.3986107,Chrome,1920,1080,,,,,0,549,,,,,,,,,,,,,,,,,U,146,hexagon,1,0,,,,,,,,,,,,,,,,switch,number,numSwt,j,noRew,,,,,,1.7458,0,44,0,44,0,1,,,,,,,,,,,,,,,,,
298135,2022-12-03_14h33.45.655,vts_reward_expectancy_bt,2022.2.4,Win32,165.3986107,Chrome,1920,1080,,,,,0,549,,,,,,,,,,,,,,,,,H,125,triangle,-1,0,,,,,,,,,,,,,,,,switch,no_choice,NA,,noRew,,,,,,,0,45,0,45,0,1,,,,,,,,,,,,,,,,,
298135,2022-12-03_14h33.45.655,vts_reward_expectancy_bt,2022.2.4,Win32,165.3986107,Chrome,1920,1080,,,,,0,549,,,,,,,,,,,,,,,,,Y,139,circle,-1,0,,,,,,,,,,,,,,,,repeat,no_choice,NA,,noRew,,,,,,,0,46,0,46,0,1,,,,,,,,,,,,,,,,,
298135,2022-12-03_14h33.45.655,vts_reward_expectancy_bt,2022.2.4,Win32,165.3986107,Chrome,1920,1080,,,,,0,549,,,,,,,,,,,,,,,,,W,132,hexagon,1,0,,,,,,,,,,,,,,,,switch,letter,lettSwt,f,noRew,,,,,,2.1344,0,47,0,47,0,1,,,,,,,,,,,,,,,,,
298135,2022-12-03_14h33.45.655,vts_reward_expectancy_bt,2022.2.4,Win32,165.3986107,Chrome,1920,1080,,,,,0,549,,,,,,,,,,,,,,,,,W,174,star,1,0,,,,,,,,,,,,,,,,repeat,letter,lettRpt,f,noRew,,,,,,0.9523,0,48,0,48,0,1,,,,,,,,,,,,,,,,,
298135,2022-12-03_14h33.45.655,vts_reward_expectancy_bt,2022.2.4,Win32,165.3986107,Chrome,1920,1080,,,,,0,549,,,,,,,,,,,,,,,,,F,125,hexagon,1,0,,,,,,,,,,,,,,,,repeat,letter,lettRpt,d,noRew,,,,,,2.8199,0,49,0,49,0,1,,,,,,,,,,,,,,,,,
298135,2022-12-03_14h33.45.655,vts_reward_expectancy_bt,2022.2.4,Win32,165.3986107,Chrome,1920,1080,,,,,0,549,,,,,,,,,,,,,,,,,D,160,star,1,0,,,,,,,,,,,,,,,,repeat,letter,lettRpt,d,noRew,,,,,,1.1219,0,50,0,50,0,1,,,,,,,,,,,,,,,,,
298135,2022-12-03_14h33.45.655,vts_reward_expectancy_bt,2022.2.4,Win32,165.3986107,Chrome,1920,1080,,,,,0,549,,,,,,,,,,,,,,,,,S,181,hexagon,1,0,,,,,,,,,,,,,,,,repeat,letter,lettRpt,f,noRew,,,,,,1.0506,0,51,0,51,0,1,,,,,,,,,,,,,,,,,
298135,2022-12-03_14h33.45.655,vts_reward_expectancy_bt,2022.2.4,Win32,165.3986107,Chrome,1920,1080,,,,,0,549,,,,,,,,,,,,,,,,,F,181,triangle,1,0,,,,,,,,,,,,,,,,repeat,letter,lettRpt,d,noRew,,,,,,0.7825,0,52,0,52,0,1,,,,,,,,,,,,,,,,,
298135,2022-12-03_14h33.45.655,vts_reward_expectancy_bt,2022.2.4,Win32,165.3986107,Chrome,1920,1080,,,,,0,549,,,,,,,,,,,,,,,,,B,167,hexagon,1,0,,,,,,,,,,,,,,,,repeat,letter,lettRpt,d,noRew,,,,,,1.6591,0,53,0,53,0,1,,,,,,,,,,,,,,,,,
298135,2022-12-03_14h33.45.655,vts_reward_expectancy_bt,2022.2.4,Win32,165.3986107,Chrome,1920,1080,,,,,0,549,,,,,,,,,,,,,,,,,U,174,hexagon,1,0,,,,,,,,,,,,,,,,repeat,letter,lettRpt,f,noRew,,,,,,0.703,0,54,0,54,0,1,,,,,,,,,,,,,,,,,
298135,2022-12-03_14h33.45.655,vts_reward_expectancy_bt,2022.2.4,Win32,165.3986107,Chrome,1920,1080,,,,,0,549,,,,,,,,,,,,,,,,,S,125,triangle,0,0,,,,,,,,,,,,,,,,repeat,letter,NA,d,noRew,,,,,,2.408,0,55,0,55,0,1,,,,,,,,,,,,,,,,,
298135,2022-12-03_14h33.45.655,vts_reward_expectancy_bt,2022.2.4,Win32,165.3986107,Chrome,1920,1080,,,,,0,549,,,,,,,,,,,,,,,,,F,139,hexagon,1,1,,,,,,,,,,,,,,,,repeat,letter,lettRpt,d,noRew,,,,,,0.8083,0,56,0,56,0,1,,,,,,,,,,,,,,,,,
298135,2022-12-03_14h33.45.655,vts_reward_expectancy_bt,2022.2.4,Win32,165.3986107,Chrome,1920,1080,,,,,0,549,,,,,,,,,,,,,,,,,S,132,triangle,1,0,,,,,,,,,,,,,,,,repeat,letter,lettRpt,f,noRew,,,,,,1.7642,0,57,0,57,0,1,,,,,,,,,,,,,,,,,
298135,2022-12-03_14h33.45.655,vts_reward_expectancy_bt,2022.2.4,Win32,165.3986107,Chrome,1920,1080,,,,,0,549,,,,,,,,,,,,,,,,,B,125,triangle,1,0,,,,,,,,,,,,,,,,repeat,letter,lettRpt,d,noRew,,,,,,1.741,0,58,0,58,0,1,,,,,,,,,,,,,,,,,
298135,2022-12-03_14h33.45.655,vts_reward_expectancy_bt,2022.2.4,Win32,165.3986107,Chrome,1920,1080,,,,,0,549,,,,,,,,,,,,,,,,,H,167,circle,-1,0,,,,,,,,,,,,,,,,switch,no_choice,NA,,noRew,,,,,,,0,59,0,59,0,1,,,,,,,,,,,,,,,,,
298135,2022-12-03_14h33.45.655,vts_reward_expectancy_bt,2022.2.4,Win32,165.3986107,Chrome,1920,1080,,,,,0,549,,,,,,,,,,,,,,,,,W,167,star,1,0,,,,,,,,,,,,,,,,switch,number,numSwt,k,noRew,,,,,,1.9942,0,60,0,60,0,1,,,,,,,,,,,,,,,,,
298135,2022-12-03_14h33.45.655,vts_reward_expectancy_bt,2022.2.4,Win32,165.3986107,Chrome,1920,1080,,,,,0,549,,,,,,,,,,,,,,,,,B,160,triangle,-1,0,,,,,,,,,,,,,,,,switch,no_choice,NA,,noRew,,,,,,,0,61,0,61,0,1,,,,,,,,,,,,,,,,,
298135,2022-12-03_14h33.45.655,vts_reward_expectancy_bt,2022.2.4,Win32,165.3986107,Chrome,1920,1080,,,,,0,549,,,,,,,,,,,,,,,,,H,181,circle,1,0,,,,,,,,,,,,,,,,switch,letter,lettSwt,d,noRew,,,,,,0.8792,0,62,0,62,0,1,,,,,,,,,,,,,,,,,
298135,2022-12-03_14h33.45.655,vts_reward_expectancy_bt,2022.2.4,Win32,165.3986107,Chrome,1920,1080,,,,,0,549,,,,,,,,,,,,,,,,,F,125,triangle,-1,0,,,,,,,,,,,,,,,,switch,no_choice,NA,,noRew,,,,,,,0,63,0,63,0,1,,,,,,,,,,,,,,,,,
298135,2022-12-03_14h33.45.655,vts_reward_expectancy_bt,2022.2.4,Win32,165.3986107,Chrome,1920,1080,,,,,,,,,,,,,,,,,,,,,,,,,,,,,,,,,,,,,,,,,,,,,,,,,,,,,,,,,,,,,,,,,,,,,,,,,,,,
298135,2022-12-03_14h33.45.655,vts_reward_expectancy_bt,2022.2.4,Win32,165.3986107,Chrome,1920,1080,,,,,0,549,,,,,,,,,,,,,,,,,Y,132,circle,0,0,,,,,,,,,,,,,,,,switch,letter,NA,d,noRew,,,,,,0.8333,0,,,,,,space,17.0353,high,0,0,0,0,1,,,,,,,,,
298135,2022-12-03_14h33.45.655,vts_reward_expectancy_bt,2022.2.4,Win32,165.3986107,Chrome,1920,1080,,,,,0,549,,,,,,,,,,,,,,,,,H,174,triangle,0,1,,,,,,,,,,,,,,,,switch,number,NA,j,noRew,,,,,,0.0004,0,,,,,,,,high,1,0,1,0,1,,,,,,,,,
298135,2022-12-03_14h33.45.655,vts_reward_expectancy_bt,2022.2.4,Win32,165.3986107,Chrome,1920,1080,,,,,0,549,,,,,,,,,,,,,,,,,W,139,hexagon,0,1,,,,,,,,,,,,,,,,switch,letter,NA,d,noRew,,,,,,0.1165,0,,,,,,,,high,2,0,2,0,1,,,,,,,,,
298135,2022-12-03_14h33.45.655,vts_reward_expectancy_bt,2022.2.4,Win32,165.3986107,Chrome,1920,1080,,,,,10,559,,,,,,,,,,,,,,,,,B,160,star,1,1,,,,,,,,,,,,,,,,repeat,letter,lettRpt,d,Hi,,,,,,0.3086,0,,,,,,,,high,3,0,3,0,1,,,,,,,,,
298135,2022-12-03_14h33.45.655,vts_reward_expectancy_bt,2022.2.4,Win32,165.3986107,Chrome,1920,1080,,,,,1,560,,,,,,,,,,,,,,,,,D,181,circle,1,0,,,,,,,,,,,,,,,,repeat,letter,lettRpt,d,Lo,,,,,,0.1029,0,,,,,,,,high,4,0,4,0,1,,,,,,,,,
298135,2022-12-03_14h33.45.655,vts_reward_expectancy_bt,2022.2.4,Win32,165.3986107,Chrome,1920,1080,,,,,10,570,,,,,,,,,,,,,,,,,F,167,triangle,1,0,,,,,,,,,,,,,,,,repeat,letter,lettRpt,d,Hi,,,,,,0.1675,0,,,,,,,,high,5,0,5,0,1,,,,,,,,,
298135,2022-12-03_14h33.45.655,vts_reward_expectancy_bt,2022.2.4,Win32,165.3986107,Chrome,1920,1080,,,,,0,570,,,,,,,,,,,,,,,,,S,146,hexagon,0,0,,,,,,,,,,,,,,,,repeat,letter,NA,d,Hi,,,,,,0.0671,0,,,,,,,,high,6,0,6,0,1,,,,,,,,,
298135,2022-12-03_14h33.45.655,vts_reward_expectancy_bt,2022.2.4,Win32,165.3986107,Chrome,1920,1080,,,,,0,570,,,,,,,,,,,,,,,,,U,125,star,0,1,,,,,,,,,,,,,,,,repeat,letter,NA,d,Hi,,,,,,0.1479,0,,,,,,,,high,7,0,7,0,1,,,,,,,,,
298135,2022-12-03_14h33.45.655,vts_reward_expectancy_bt,2022.2.4,Win32,165.3986107,Chrome,1920,1080,,,,,0,570,,,,,,,,,,,,,,,,,Y,132,circle,0,1,,,,,,,,,,,,,,,,repeat,letter,NA,d,Hi,,,,,,0.0669,0,,,,,,,,high,8,0,8,0,1,,,,,,,,,
298135,2022-12-03_14h33.45.655,vts_reward_expectancy_bt,2022.2.4,Win32,165.3986107,Chrome,1920,1080,,,,,1,571,,,,,,,,,,,,,,,,,H,174,star,1,1,,,,,,,,,,,,,,,,switch,number,numSwt,k,Hi,,,,,,0.0554,0,,,,,,,,high,9,0,9,0,1,,,,,,,,,
298135,2022-12-03_14h33.45.655,vts_reward_expectancy_bt,2022.2.4,Win32,165.3986107,Chrome,1920,1080,,,,,0,571,,,,,,,,,,,,,,,,,W,139,hexagon,0,0,,,,,,,,,,,,,,,,repeat,number,NA,k,Hi,,,,,,0.0669,0,,,,,,,,high,10,0,10,0,1,,,,,,,,,
298135,2022-12-03_14h33.45.655,vts_reward_expectancy_bt,2022.2.4,Win32,165.3986107,Chrome,1920,1080,,,,,10,581,,,,,,,,,,,,,,,,,B,160,triangle,1,1,,,,,,,,,,,,,,,,repeat,number,numRpt,k,Hi,,,,,,0.0622,0,,,,,,,,high,11,0,11,0,1,,,,,,,,,
298135,2022-12-03_14h33.45.655,vts_reward_expectancy_bt,2022.2.4,Win32,165.3986107,Chrome,1920,1080,,,,,0,581,,,,,,,,,,,,,,,,,D,181,triangle,0,0,,,,,,,,,,,,,,,,repeat,number,NA,j,Hi,,,,,,0.0906,0,,,,,,,,high,12,0,12,0,1,,,,,,,,,
298135,2022-12-03_14h33.45.655,vts_reward_expectancy_bt,2022.2.4,Win32,165.3986107,Chrome,1920,1080,,,,,10,591,,,,,,,,,,,,,,,,,F,167,star,1,1,,,,,,,,,,,,,,,,switch,letter,lettSwt,d,Hi,,,,,,0.7974,0,,,,,,,,high,13,0,13,0,1,,,,,,,,,
298135,2022-12-03_14h33.45.655,vts_reward_expectancy_bt,2022.2.4,Win32,165.3986107,Chrome,1920,1080,,,,,0,591,,,,,,,,,,,,,,,,,S,146,circle,0,0,,,,,,,,,,,,,,,,repeat,letter,NA,d,Hi,,,,,,0.0239,0,,,,,,,,high,14,0,14,0,1,,,,,,,,,
298135,2022-12-03_14h33.45.655,vts_reward_expectancy_bt,2022.2.4,Win32,165.3986107,Chrome,1920,1080,,,,,10,601,,,,,,,,,,,,,,,,,U,125,hexagon,1,1,,,,,,,,,,,,,,,,switch,number,numSwt,j,Lo,,,,,,0.0243,0,,,,,,,,high,15,0,15,0,1,,,,,,,,,
298135,2022-12-03_14h33.45.655,vts_reward_expectancy_bt,2022.2.4,Win32,165.3986107,Chrome,1920,1080,,,,,1,602,,,,,,,,,,,,,,,,,D,160,star,1,0,,,,,,,,,,,,,,,,repeat,number,numRpt,k,Hi,,,,,,0.147,0,,,,,,,,high,16,0,16,0,1,,,,,,,,,
298135,2022-12-03_14h33.45.655,vts_reward_expectancy_bt,2022.2.4,Win32,165.3986107,Chrome,1920,1080,,,,,10,612,,,,,,,,,,,,,,,,,B,181,triangle,1,0,,,,,,,,,,,,,,,,switch,letter,lettSwt,d,Hi,,,,,,0.1831,0,,,,,,,,high,17,0,17,0,1,,,,,,,,,
298135,2022-12-03_14h33.45.655,vts_reward_expectancy_bt,2022.2.4,Win32,165.3986107,Chrome,1920,1080,,,,,0,612,,,,,,,,,,,,,,,,,U,125,circle,0,0,,,,,,,,,,,,,,,,repeat,letter,NA,d,Hi,,,,,,0.2263,0,,,,,,,,high,18,0,18,0,1,,,,,,,,,
298135,2022-12-03_14h33.45.655,vts_reward_expectancy_bt,2022.2.4,Win32,165.3986107,Chrome,1920,1080,,,,,0,612,,,,,,,,,,,,,,,,,Y,167,hexagon,0,1,,,,,,,,,,,,,,,,switch,number,NA,j,Hi,,,,,,0.23,0,,,,,,,,high,19,0,19,0,1,,,,,,,,,
298135,2022-12-03_14h33.45.655,vts_reward_expectancy_bt,2022.2.4,Win32,165.3986107,Chrome,1920,1080,,,,,0,612,,,,,,,,,,,,,,,,,F,174,star,0,1,,,,,,,,,,,,,,,,repeat,number,NA,j,Hi,,,,,,0.0367,0,,,,,,,,high,20,0,20,0,1,,,,,,,,,
298135,2022-12-03_14h33.45.655,vts_reward_expectancy_bt,2022.2.4,Win32,165.3986107,Chrome,1920,1080,,,,,0,612,,,,,,,,,,,,,,,,,S,132,triangle,-1,1,,,,,,,,,,,,,,,,switch,no_choice,NA,,Hi,,,,,,,0,,,,,,,,high,21,0,21,0,1,,,,,,,,,
298135,2022-12-03_14h33.45.655,vts_reward_expectancy_bt,2022.2.4,Win32,165.3986107,Chrome,1920,1080,,,,,1,613,,,,,,,,,,,,,,,,,W,139,hexagon,1,0,,,,,,,,,,,,,,,,switch,number,numSwt,j,Lo,,,,,,0.219,0,,,,,,,,high,22,0,22,0,1,,,,,,,,,
298135,2022-12-03_14h33.45.655,vts_reward_expectancy_bt,2022.2.4,Win32,165.3986107,Chrome,1920,1080,,,,,1,614,,,,,,,,,,,,,,,,,H,146,circle,1,0,,,,,,,,,,,,,,,,switch,letter,lettSwt,d,Lo,,,,,,0.964,0,,,,,,,,high,23,0,23,0,1,,,,,,,,,
298135,2022-12-03_14h33.45.655,vts_reward_expectancy_bt,2022.2.4,Win32,165.3986107,Chrome,1920,1080,,,,,1,615,,,,,,,,,,,,,,,,,F,139,star,1,0,,,,,,,,,,,,,,,,repeat,letter,lettRpt,d,Hi,,,,,,0.0361,0,,,,,,,,high,24,0,24,0,1,,,,,,,,,
298135,2022-12-03_14h33.45.655,vts_reward_expectancy_bt,2022.2.4,Win32,165.3986107,Chrome,1920,1080,,,,,0,615,,,,,,,,,,,,,,,,,U,167,hexagon,-1,0,,,,,,,,,,,,,,,,switch,no_choice,NA,,Hi,,,,,,,0,,,,,,,,high,25,0,25,0,1,,,,,,,,,
298135,2022-12-03_14h33.45.655,vts_reward_expectancy_bt,2022.2.4,Win32,165.3986107,Chrome,1920,1080,,,,,1,616,,,,,,,,,,,,,,,,,H,160,circle,1,0,,,,,,,,,,,,,,,,switch,letter,lettSwt,d,Lo,,,,,,1.273,0,,,,,,,,high,26,0,26,0,1,,,,,,,,,
298135,2022-12-03_14h33.45.655,vts_reward_expectancy_bt,2022.2.4,Win32,165.3986107,Chrome,1920,1080,,,,,0,616,,,,,,,,,,,,,,,,,S,132,triangle,-1,0,,,,,,,,,,,,,,,,switch,no_choice,NA,,Lo,,,,,,,0,,,,,,,,high,27,0,27,0,1,,,,,,,,,
298135,2022-12-03_14h33.45.655,vts_reward_expectancy_bt,2022.2.4,Win32,165.3986107,Chrome,1920,1080,,,,,0,616,,,,,,,,,,,,,,,,,Y,125,hexagon,-1,0,,,,,,,,,,,,,,,,repeat,no_choice,NA,,Lo,,,,,,,0,,,,,,,,high,28,0,28,0,1,,,,,,,,,
298135,2022-12-03_14h33.45.655,vts_reward_expectancy_bt,2022.2.4,Win32,165.3986107,Chrome,1920,1080,,,,,0,616,,,,,,,,,,,,,,,,,W,174,circle,-1,0,,,,,,,,,,,,,,,,repeat,no_choice,NA,,Lo,,,,,,,0,,,,,,,,high,29,0,29,0,1,,,,,,,,,
298135,2022-12-03_14h33.45.655,vts_reward_expectancy_bt,2022.2.4,Win32,165.3986107,Chrome,1920,1080,,,,,10,626,,,,,,,,,,,,,,,,,D,181,star,1,0,,,,,,,,,,,,,,,,switch,letter,lettSwt,d,Hi,,,,,,0.005,0,,,,,,,,high,30,0,30,0,1,,,,,,,,,
298135,2022-12-03_14h33.45.655,vts_reward_expectancy_bt,2022.2.4,Win32,165.3986107,Chrome,1920,1080,,,,,10,636,,,,,,,,,,,,,,,,,B,146,triangle,1,0,,,,,,,,,,,,,,,,switch,number,numSwt,j,Hi,,,,,,0.0862,0,,,,,,,,high,31,0,31,0,1,,,,,,,,,
298135,2022-12-03_14h33.45.655,vts_reward_expectancy_bt,2022.2.4,Win32,165.3986107,Chrome,1920,1080,,,,,1,637,,,,,,,,,,,,,,,,,F,181,hexagon,1,0,,,,,,,,,,,,,,,,switch,letter,lettSwt,d,Lo,,,,,,0.4185,1,,,,,,space,0.6772,high,0,0,0,0,1,,,,,,,,,
298135,2022-12-03_14h33.45.655,vts_reward_expectancy_bt,2022.2.4,Win32,165.3986107,Chrome,1920,1080,,,,,0,637,,,,,,,,,,,,,,,,,H,146,star,1,0,,,,,,,,,,,,,,,,repeat,letter,lettRpt,d,Hi,,,,,,0.2215,1,,,,,,,,high,1,0,1,0,1,,,,,,,,,
298135,2022-12-03_14h33.45.655,vts_reward_expectancy_bt,2022.2.4,Win32,165.3986107,Chrome,1920,1080,,,,,0,637,,,,,,,,,,,,,,,,,W,132,circle,0,0,,,,,,,,,,,,,,,,repeat,letter,NA,d,Hi,,,,,,0.0028,1,,,,,,,,high,2,0,2,0,1,,,,,,,,,
298135,2022-12-03_14h33.45.655,vts_reward_expectancy_bt,2022.2.4,Win32,165.3986107,Chrome,1920,1080,,,,,10,647,,,,,,,,,,,,,,,,,D,167,triangle,1,1,,,,,,,,,,,,,,,,repeat,letter,lettRpt,d,Hi,,,,,,0.0848,1,,,,,,,,high,3,0,3,0,1,,,,,,,,,
298135,2022-12-03_14h33.45.655,vts_reward_expectancy_bt,2022.2.4,Win32,165.3986107,Chrome,1920,1080,,,,,1,648,,,,,,,,,,,,,,,,,B,125,hexagon,1,0,,,,,,,,,,,,,,,,repeat,letter,lettRpt,d,Lo,,,,,,0.0271,1,,,,,,,,high,4,0,4,0,1,,,,,,,,,
298135,2022-12-03_14h33.45.655,vts_reward_expectancy_bt,2022.2.4,Win32,165.3986107,Chrome,1920,1080,,,,,0,648,,,,,,,,,,,,,,,,,S,139,star,0,0,,,,,,,,,,,,,,,,repeat,letter,NA,d,Lo,,,,,,0.0789,1,,,,,,,,high,5,0,5,0,1,,,,,,,,,
298135,2022-12-03_14h33.45.655,vts_reward_expectancy_bt,2022.2.4,Win32,165.3986107,Chrome,1920,1080,,,,,10,658,,,,,,,,,,,,,,,,,U,160,circle,1,1,,,,,,,,,,,,,,,,switch,number,numSwt,k,Lo,,,,,,0.3334,1,,,,,,,,high,6,0,6,0,1,,,,,,,,,
298135,2022-12-03_14h33.45.655,vts_reward_expectancy_bt,2022.2.4,Win32,165.3986107,Chrome,1920,1080,,,,,0,658,,,,,,,,,,,,,,,,,Y,174,triangle,0,0,,,,,,,,,,,,,,,,repeat,number,NA,j,Lo,,,,,,0.182,1,,,,,,,,high,7,0,7,0,1,,,,,,,,,
298135,2022-12-03_14h33.45.655,vts_reward_expectancy_bt,2022.2.4,Win32,165.3986107,Chrome,1920,1080,,,,,10,668,,,,,,,,,,,,,,,,,F,181,triangle,1,1,,,,,,,,,,,,,,,,switch,letter,lettSwt,d,Hi,,,,,,0.0472,1,,,,,,,,high,8,0,8,0,1,,,,,,,,,
298135,2022-12-03_14h33.45.655,vts_reward_expectancy_bt,2022.2.4,Win32,165.3986107,Chrome,1920,1080,,,,,0,668,,,,,,,,,,,,,,,,,H,146,circle,0,0,,,,,,,,,,,,,,,,switch,number,NA,k,Hi,,,,,,0.0675,1,,,,,,,,high,9,0,9,0,1,,,,,,,,,
298135,2022-12-03_14h33.45.655,vts_reward_expectancy_bt,2022.2.4,Win32,165.3986107,Chrome,1920,1080,,,,,1,669,,,,,,,,,,,,,,,,,W,132,hexagon,1,1,,,,,,,,,,,,,,,,repeat,number,numRpt,j,Lo,,,,,,0.012,1,,,,,,,,high,10,0,10,0,1,,,,,,,,,
298135,2022-12-03_14h33.45.655,vts_reward_expectancy_bt,2022.2.4,Win32,165.3986107,Chrome,1920,1080,,,,,0,669,,,,,,,,,,,,,,,,,D,167,star,1,0,,,,,,,,,,,,,,,,repeat,number,numRpt,k,Hi,,,,,,0.2305,1,,,,,,,,high,11,0,11,0,1,,,,,,,,,
298135,2022-12-03_14h33.45.655,vts_reward_expectancy_bt,2022.2.4,Win32,165.3986107,Chrome,1920,1080,,,,,0,669,,,,,,,,,,,,,,,,,B,125,circle,0,0,,,,,,,,,,,,,,,,repeat,number,NA,k,Hi,,,,,,0.0866,1,,,,,,,,high,12,0,12,0,1,,,,,,,,,
298135,2022-12-03_14h33.45.655,vts_reward_expectancy_bt,2022.2.4,Win32,165.3986107,Chrome,1920,1080,,,,,10,679,,,,,,,,,,,,,,,,,S,139,star,1,1,,,,,,,,,,,,,,,,switch,letter,lettSwt,f,Hi,,,,,,0.0483,1,,,,,,,,high,13,0,13,0,1,,,,,,,,,
298135,2022-12-03_14h33.45.655,vts_reward_expectancy_bt,2022.2.4,Win32,165.3986107,Chrome,1920,1080,,,,,1,680,,,,,,,,,,,,,,,,,U,160,hexagon,1,0,,,,,,,,,,,,,,,,switch,number,numSwt,k,Lo,,,,,,0.136,1,,,,,,,,high,14,0,14,0,1,,,,,,,,,
298135,2022-12-03_14h33.45.655,vts_reward_expectancy_bt,2022.2.4,Win32,165.3986107,Chrome,1920,1080,,,,,0,680,,,,,,,,,,,,,,,,,Y,174,triangle,1,0,,,,,,,,,,,,,,,,repeat,number,numRpt,k,Hi,,,,,,0.5821,1,,,,,,,,high,15,0,15,0,1,,,,,,,,,
298135,2022-12-03_14h33.45.655,vts_reward_expectancy_bt,2022.2.4,Win32,165.3986107,Chrome,1920,1080,,,,,0,680,,,,,,,,,,,,,,,,,F,181,circle,0,0,,,,,,,,,,,,,,,,switch,letter,NA,f,Hi,,,,,,0.3173,1,,,,,,,,high,16,0,16,0,1,,,,,,,,,
298135,2022-12-03_14h33.45.655,vts_reward_expectancy_bt,2022.2.4,Win32,165.3986107,Chrome,1920,1080,,,,,0,680,,,,,,,,,,,,,,,,,D,146,star,0,1,,,,,,,,,,,,,,,,repeat,letter,NA,f,Hi,,,,,,0.2909,1,,,,,,,,high,17,0,17,0,1,,,,,,,,,
298135,2022-12-03_14h33.45.655,vts_reward_expectancy_bt,2022.2.4,Win32,165.3986107,Chrome,1920,1080,,,,,0,680,,,,,,,,,,,,,,,,,Y,160,hexagon,0,1,,,,,,,,,,,,,,,,repeat,letter,NA,d,Hi,,,,,,0.5416,1,,,,,,,,high,18,0,18,0,1,,,,,,,,,
298135,2022-12-03_14h33.45.655,vts_reward_expectancy_bt,2022.2.4,Win32,165.3986107,Chrome,1920,1080,,,,,0,680,,,,,,,,,,,,,,,,,U,132,triangle,0,1,,,,,,,,,,,,,,,,switch,number,NA,k,Hi,,,,,,0.6067,1,,,,,,,,high,19,0,19,0,1,,,,,,,,,
298135,2022-12-03_14h33.45.655,vts_reward_expectancy_bt,2022.2.4,Win32,165.3986107,Chrome,1920,1080,,,,,0,680,,,,,,,,,,,,,,,,,B,174,circle,0,1,,,,,,,,,,,,,,,,switch,letter,NA,f,Hi,,,,,,0.1945,1,,,,,,,,high,20,0,20,0,1,,,,,,,,,
298135,2022-12-03_14h33.45.655,vts_reward_expectancy_bt,2022.2.4,Win32,165.3986107,Chrome,1920,1080,,,,,0,680,,,,,,,,,,,,,,,,,W,139,triangle,0,1,,,,,,,,,,,,,,,,repeat,letter,NA,d,Hi,,,,,,0.0504,1,,,,,,,,high,21,0,21,0,1,,,,,,,,,
298135,2022-12-03_14h33.45.655,vts_reward_expectancy_bt,2022.2.4,Win32,165.3986107,Chrome,1920,1080,,,,,1,681,,,,,,,,,,,,,,,,,H,167,hexagon,1,1,,,,,,,,,,,,,,,,repeat,letter,lettRpt,d,Lo,,,,,,0.2368,1,,,,,,,,high,22,0,22,0,1,,,,,,,,,
298135,2022-12-03_14h33.45.655,vts_reward_expectancy_bt,2022.2.4,Win32,165.3986107,Chrome,1920,1080,,,,,0,681,,,,,,,,,,,,,,,,,S,125,star,0,0,,,,,,,,,,,,,,,,switch,number,NA,k,Lo,,,,,,2.2553,1,,,,,,,,high,23,0,23,0,1,,,,,,,,,
298135,2022-12-03_14h33.45.655,vts_reward_expectancy_bt,2022.2.4,Win32,165.3986107,Chrome,1920,1080,,,,,0,681,,,,,,,,,,,,,,,,,U,146,star,0,1,,,,,,,,,,,,,,,,switch,letter,NA,d,Lo,,,,,,1.2612,1,,,,,,,,high,24,0,24,0,1,,,,,,,,,
298135,2022-12-03_14h33.45.655,vts_reward_expectancy_bt,2022.2.4,Win32,165.3986107,Chrome,1920,1080,,,,,1,682,,,,,,,,,,,,,,,,,H,160,circle,1,1,,,,,,,,,,,,,,,,switch,number,numSwt,k,Lo,,,,,,0.3117,1,,,,,,,,high,25,0,25,0,1,,,,,,,,,
298135,2022-12-03_14h33.45.655,vts_reward_expectancy_bt,2022.2.4,Win32,165.3986107,Chrome,1920,1080,,,,,1,683,,,,,,,,,,,,,,,,,S,181,hexagon,1,0,,,,,,,,,,,,,,,,repeat,number,numRpt,k,Lo,,,,,,0.0144,1,,,,,,,,high,26,0,26,0,1,,,,,,,,,
298135,2022-12-03_14h33.45.655,vts_reward_expectancy_bt,2022.2.4,Win32,165.3986107,Chrome,1920,1080,,,,,0,683,,,,,,,,,,,,,,,,,F,167,triangle,0,0,,,,,,,,,,,,,,,,repeat,number,NA,j,Lo,,,,,,0.2334,1,,,,,,,,high,27,0,27,0,1,,,,,,,,,
298135,2022-12-03_14h33.45.655,vts_reward_expectancy_bt,2022.2.4,Win32,165.3986107,Chrome,1920,1080,,,,,10,693,,,,,,,,,,,,,,,,,D,125,circle,1,1,,,,,,,,,,,,,,,,repeat,number,numRpt,j,Lo,,,,,,0.0004,1,,,,,,,,high,28,0,28,0,1,,,,,,,,,
298135,2022-12-03_14h33.45.655,vts_reward_expectancy_bt,2022.2.4,Win32,165.3986107,Chrome,1920,1080,,,,,0,693,,,,,,,,,,,,,,,,,B,139,triangle,0,0,,,,,,,,,,,,,,,,repeat,number,NA,k,Lo,,,,,,0.2459,1,,,,,,,,high,29,0,29,0,1,,,,,,,,,
298135,2022-12-03_14h33.45.655,vts_reward_expectancy_bt,2022.2.4,Win32,165.3986107,Chrome,1920,1080,,,,,10,703,,,,,,,,,,,,,,,,,W,132,star,1,1,,,,,,,,,,,,,,,,switch,letter,lettSwt,f,Hi,,,,,,0.1876,1,,,,,,,,high,30,0,30,0,1,,,,,,,,,
298135,2022-12-03_14h33.45.655,vts_reward_expectancy_bt,2022.2.4,Win32,165.3986107,Chrome,1920,1080,,,,,0,703,,,,,,,,,,,,,,,,,Y,174,hexagon,0,0,,,,,,,,,,,,,,,,repeat,letter,NA,d,Hi,,,,,,0.1698,1,,,,,,,,high,31,0,31,0,1,,,,,,,,,
298135,2022-12-03_14h33.45.655,vts_reward_expectancy_bt,2022.2.4,Win32,165.3986107,Chrome,1920,1080,,,,,0,703,,,,,,,,,,,,,,,,,B,160,circle,0,1,,,,,,,,,,,,,,,,repeat,letter,NA,f,Hi,,,,,,0.0427,2,,,,,,space,0.2969,high,0,0,0,0,1,,,,,,,,,
298135,2022-12-03_14h33.45.655,vts_reward_expectancy_bt,2022.2.4,Win32,165.3986107,Chrome,1920,1080,,,,,1,704,,,,,,,,,,,,,,,,,S,181,hexagon,1,1,,,,,,,,,,,,,,,,switch,number,numSwt,k,Lo,,,,,,0.2306,2,,,,,,,,high,1,0,1,0,1,,,,,,,,,
298135,2022-12-03_14h33.45.655,vts_reward_expectancy_bt,2022.2.4,Win32,165.3986107,Chrome,1920,1080,,,,,0,704,,,,,,,,,,,,,,,,,F,132,triangle,1,0,,,,,,,,,,,,,,,,switch,letter,lettSwt,d,Hi,,,,,,0.0851,2,,,,,,,,high,2,0,2,0,1,,,,,,,,,
298135,2022-12-03_14h33.45.655,vts_reward_expectancy_bt,2022.2.4,Win32,165.3986107,Chrome,1920,1080,,,,,0,704,,,,,,,,,,,,,,,,,U,167,star,0,0,,,,,,,,,,,,,,,,repeat,letter,NA,d,Hi,,,,,,0.0143,2,,,,,,,,high,3,0,3,0,1,,,,,,,,,
298135,2022-12-03_14h33.45.655,vts_reward_expectancy_bt,2022.2.4,Win32,165.3986107,Chrome,1920,1080,,,,,1,705,,,,,,,,,,,,,,,,,W,146,circle,1,1,,,,,,,,,,,,,,,,switch,number,numSwt,j,Lo,,,,,,0.9819,2,,,,,,,,high,4,0,4,0,1,,,,,,,,,
298135,2022-12-03_14h33.45.655,vts_reward_expectancy_bt,2022.2.4,Win32,165.3986107,Chrome,1920,1080,,,,,0,705,,,,,,,,,,,,,,,,,D,125,hexagon,0,0,,,,,,,,,,,,,,,,repeat,number,NA,k,Lo,,,,,,0.0119,2,,,,,,,,high,5,0,5,0,1,,,,,,,,,
298135,2022-12-03_14h33.45.655,vts_reward_expectancy_bt,2022.2.4,Win32,165.3986107,Chrome,1920,1080,,,,,0,705,,,,,,,,,,,,,,,,,H,174,triangle,0,1,,,,,,,,,,,,,,,,repeat,number,NA,j,Lo,,,,,,0.0603,2,,,,,,,,high,6,0,6,0,1,,,,,,,,,
298135,2022-12-03_14h33.45.655,vts_reward_expectancy_bt,2022.2.4,Win32,165.3986107,Chrome,1920,1080,,,,,0,705,,,,,,,,,,,,,,,,,Y,139,star,0,1,,,,,,,,,,,,,,,,repeat,number,NA,k,Lo,,,,,,0.0914,2,,,,,,,,high,7,0,7,0,1,,,,,,,,,
298135,2022-12-03_14h33.45.655,vts_reward_expectancy_bt,2022.2.4,Win32,165.3986107,Chrome,1920,1080,,,,,1,706,,,,,,,,,,,,,,,,,B,160,circle,1,1,,,,,,,,,,,,,,,,repeat,number,numRpt,k,Lo,,,,,,0.164,2,,,,,,,,high,8,0,8,0,1,,,,,,,,,
298135,2022-12-03_14h33.45.655,vts_reward_expectancy_bt,2022.2.4,Win32,165.3986107,Chrome,1920,1080,,,,,0,706,,,,,,,,,,,,,,,,,S,181,triangle,0,0,,,,,,,,,,,,,,,,repeat,number,NA,j,Lo,,,,,,0.1662,2,,,,,,,,high,9,0,9,0,1,,,,,,,,,
298135,2022-12-03_14h33.45.655,vts_reward_expectancy_bt,2022.2.4,Win32,165.3986107,Chrome,1920,1080,,,,,0,706,,,,,,,,,,,,,,,,,F,132,star,1,1,,,,,,,,,,,,,,,,repeat,number,numRpt,j,Hi,,,,,,0.0326,2,,,,,,,,high,10,0,10,0,1,,,,,,,,,
298135,2022-12-03_14h33.45.655,vts_reward_expectancy_bt,2022.2.4,Win32,165.3986107,Chrome,1920,1080,,,,,1,707,,,,,,,,,,,,,,,,,U,167,hexagon,1,0,,,,,,,,,,,,,,,,repeat,number,numRpt,k,Lo,,,,,,0.0023,2,,,,,,,,high,11,0,11,0,1,,,,,,,,,
298135,2022-12-03_14h33.45.655,vts_reward_expectancy_bt,2022.2.4,Win32,165.3986107,Chrome,1920,1080,,,,,0,707,,,,,,,,,,,,,,,,,W,146,triangle,0,0,,,,,,,,,,,,,,,,switch,letter,NA,d,Lo,,,,,,0.1125,2,,,,,,,,high,12,0,12,0,1,,,,,,,,,
298135,2022-12-03_14h33.45.655,vts_reward_expectancy_bt,2022.2.4,Win32,165.3986107,Chrome,1920,1080,,,,,0,707,,,,,,,,,,,,,,,,,D,125,circle,0,1,,,,,,,,,,,,,,,,switch,number,NA,k,Lo,,,,,,0.109,2,,,,,,,,high,13,0,13,0,1,,,,,,,,,
298135,2022-12-03_14h33.45.655,vts_reward_expectancy_bt,2022.2.4,Win32,165.3986107,Chrome,1920,1080,,,,,0,707,,,,,,,,,,,,,,,,,H,174,star,0,1,,,,,,,,,,,,,,,,repeat,number,NA,j,Lo,,,,,,0.0912,2,,,,,,,,high,14,0,14,0,1,,,,,,,,,
298135,2022-12-03_14h33.45.655,vts_reward_expectancy_bt,2022.2.4,Win32,165.3986107,Chrome,1920,1080,,,,,0,707,,,,,,,,,,,,,,,,,Y,139,hexagon,0,1,,,,,,,,,,,,,,,,repeat,number,NA,k,Lo,,,,,,0.0002,2,,,,,,,,high,15,0,15,0,1,,,,,,,,,
298135,2022-12-03_14h33.45.655,vts_reward_expectancy_bt,2022.2.4,Win32,165.3986107,Chrome,1920,1080,,,,,10,717,,,,,,,,,,,,,,,,,U,146,triangle,1,1,,,,,,,,,,,,,,,,repeat,number,numRpt,j,Hi,,,,,,0.0061,2,,,,,,,,high,16,0,16,0,1,,,,,,,,,
298135,2022-12-03_14h33.45.655,vts_reward_expectancy_bt,2022.2.4,Win32,165.3986107,Chrome,1920,1080,,,,,0,717,,,,,,,,,,,,,,,,,W,132,star,0,0,,,,,,,,,,,,,,,,repeat,number,NA,k,Hi,,,,,,0.1295,2,,,,,,,,high,17,0,17,0,1,,,,,,,,,
298135,2022-12-03_14h33.45.655,vts_reward_expectancy_bt,2022.2.4,Win32,165.3986107,Chrome,1920,1080,,,,,1,718,,,,,,,,,,,,,,,,,Y,160,hexagon,1,1,,,,,,,,,,,,,,,,repeat,number,numRpt,k,Lo,,,,,,0.1215,2,,,,,,,,high,18,0,18,0,1,,,,,,,,,
298135,2022-12-03_14h33.45.655,vts_reward_expectancy_bt,2022.2.4,Win32,165.3986107,Chrome,1920,1080,,,,,1,719,,,,,,,,,,,,,,,,,F,139,circle,1,0,,,,,,,,,,,,,,,,switch,letter,lettSwt,d,Lo,,,,,,0.3967,2,,,,,,,,high,19,0,19,0,1,,,,,,,,,
298135,2022-12-03_14h33.45.655,vts_reward_expectancy_bt,2022.2.4,Win32,165.3986107,Chrome,1920,1080,,,,,10,729,,,,,,,,,,,,,,,,,D,174,triangle,1,0,,,,,,,,,,,,,,,,switch,number,numSwt,k,Hi,,,,,,0.0912,2,,,,,,,,high,20,0,20,0,1,,,,,,,,,
298135,2022-12-03_14h33.45.655,vts_reward_expectancy_bt,2022.2.4,Win32,165.3986107,Chrome,1920,1080,,,,,0,729,,,,,,,,,,,,,,,,,B,181,star,0,0,,,,,,,,,,,,,,,,repeat,number,NA,j,Hi,,,,,,0.0851,2,,,,,,,,high,21,0,21,0,1,,,,,,,,,
298135,2022-12-03_14h33.45.655,vts_reward_expectancy_bt,2022.2.4,Win32,165.3986107,Chrome,1920,1080,,,,,1,730,,,,,,,,,,,,,,,,,H,125,circle,1,1,,,,,,,,,,,,,,,,switch,letter,lettSwt,d,Lo,,,,,,0.1898,2,,,,,,,,high,22,0,22,0,1,,,,,,,,,
298135,2022-12-03_14h33.45.655,vts_reward_expectancy_bt,2022.2.4,Win32,165.3986107,Chrome,1920,1080,,,,,1,731,,,,,,,,,,,,,,,,,S,167,hexagon,1,0,,,,,,,,,,,,,,,,switch,number,numSwt,k,Lo,,,,,,0.2184,2,,,,,,,,high,23,0,23,0,1,,,,,,,,,
298135,2022-12-03_14h33.45.655,vts_reward_expectancy_bt,2022.2.4,Win32,165.3986107,Chrome,1920,1080,,,,,10,741,,,,,,,,,,,,,,,,,Y,139,triangle,1,0,,,,,,,,,,,,,,,,repeat,number,numRpt,j,Hi,,,,,,0.0028,2,,,,,,,,high,24,0,24,0,1,,,,,,,,,
298135,2022-12-03_14h33.45.655,vts_reward_expectancy_bt,2022.2.4,Win32,165.3986107,Chrome,1920,1080,,,,,0,741,,,,,,,,,,,,,,,,,B,160,hexagon,0,0,,,,,,,,,,,,,,,,repeat,number,NA,j,Hi,,,,,,0.0322,2,,,,,,,,high,25,0,25,0,1,,,,,,,,,
298135,2022-12-03_14h33.45.655,vts_reward_expectancy_bt,2022.2.4,Win32,165.3986107,Chrome,1920,1080,,,,,0,741,,,,,,,,,,,,,,,,,H,167,star,0,1,,,,,,,,,,,,,,,,switch,letter,NA,f,Hi,,,,,,0.0003,2,,,,,,,,high,26,0,26,0,1,,,,,,,,,
298135,2022-12-03_14h33.45.655,vts_reward_expectancy_bt,2022.2.4,Win32,165.3986107,Chrome,1920,1080,,,,,0,741,,,,,,,,,,,,,,,,,W,146,circle,0,1,,,,,,,,,,,,,,,,repeat,letter,NA,d,Hi,,,,,,0.025,2,,,,,,,,high,27,0,27,0,1,,,,,,,,,
298135,2022-12-03_14h33.45.655,vts_reward_expectancy_bt,2022.2.4,Win32,165.3986107,Chrome,1920,1080,,,,,0,741,,,,,,,,,,,,,,,,,S,181,hexagon,0,1,,,,,,,,,,,,,,,,repeat,letter,NA,d,Hi,,,,,,0.0663,2,,,,,,,,high,28,0,28,0,1,,,,,,,,,
298135,2022-12-03_14h33.45.655,vts_reward_expectancy_bt,2022.2.4,Win32,165.3986107,Chrome,1920,1080,,,,,1,742,,,,,,,,,,,,,,,,,U,174,circle,1,1,,,,,,,,,,,,,,,,switch,number,numSwt,k,Lo,,,,,,0.2367,2,,,,,,,,high,29,0,29,0,1,,,,,,,,,
298135,2022-12-03_14h33.45.655,vts_reward_expectancy_bt,2022.2.4,Win32,165.3986107,Chrome,1920,1080,,,,,0,742,,,,,,,,,,,,,,,,,F,132,star,1,0,,,,,,,,,,,,,,,,switch,letter,lettSwt,d,Hi,,,,,,1.7335,2,,,,,,,,high,30,0,30,0,1,,,,,,,,,
298135,2022-12-03_14h33.45.655,vts_reward_expectancy_bt,2022.2.4,Win32,165.3986107,Chrome,1920,1080,,,,,0,742,,,,,,,,,,,,,,,,,D,125,triangle,1,0,,,,,,,,,,,,,,,,repeat,letter,lettRpt,d,Hi,,,,,,0.2327,2,,,,,,,,high,31,0,31,0,1,,,,,,,,,
298135,2022-12-03_14h33.45.655,vts_reward_expectancy_bt,2022.2.4,Win32,165.3986107,Chrome,1920,1080,,,,,0,742,,,,,,,,,,,,,,,,,Y,160,triangle,0,0,,,,,,,,,,,,,,,,repeat,letter,NA,d,Hi,,,,,,0.0483,3,,,,,,space,0.1988,high,0,0,0,0,1,,,,,,,,,
298135,2022-12-03_14h33.45.655,vts_reward_expectancy_bt,2022.2.4,Win32,165.3986107,Chrome,1920,1080,,,,,1,743,,,,,,,,,,,,,,,,,W,181,circle,1,1,,,,,,,,,,,,,,,,repeat,letter,lettRpt,f,Lo,,,,,,0.0996,3,,,,,,,,high,1,0,1,0,1,,,,,,,,,
298135,2022-12-03_14h33.45.655,vts_reward_expectancy_bt,2022.2.4,Win32,165.3986107,Chrome,1920,1080,,,,,10,753,,,,,,,,,,,,,,,,,U,174,star,1,0,,,,,,,,,,,,,,,,repeat,letter,lettRpt,f,Hi,,,,,,0.0674,3,,,,,,,,high,2,0,2,0,1,,,,,,,,,
298135,2022-12-03_14h33.45.655,vts_reward_expectancy_bt,2022.2.4,Win32,165.3986107,Chrome,1920,1080,,,,,1,754,,,,,,,,,,,,,,,,,D,146,hexagon,1,0,,,,,,,,,,,,,,,,repeat,letter,lettRpt,d,Lo,,,,,,0.0957,3,,,,,,,,high,3,0,3,0,1,,,,,,,,,
298135,2022-12-03_14h33.45.655,vts_reward_expectancy_bt,2022.2.4,Win32,165.3986107,Chrome,1920,1080,,,,,10,764,,,,,,,,,,,,,,,,,B,139,triangle,1,0,,,,,,,,,,,,,,,,repeat,letter,lettRpt,d,Hi,,,,,,0.157,3,,,,,,,,high,4,0,4,0,1,,,,,,,,,
298135,2022-12-03_14h33.45.655,vts_reward_expectancy_bt,2022.2.4,Win32,165.3986107,Chrome,1920,1080,,,,,1,765,,,,,,,,,,,,,,,,,S,167,circle,1,0,,,,,,,,,,,,,,,,repeat,letter,lettRpt,f,Lo,,,,,,0.0769,3,,,,,,,,high,5,0,5,0,1,,,,,,,,,
298135,2022-12-03_14h33.45.655,vts_reward_expectancy_bt,2022.2.4,Win32,165.3986107,Chrome,1920,1080,,,,,10,775,,,,,,,,,,,,,,,,,F,125,star,1,0,,,,,,,,,,,,,,,,repeat,letter,lettRpt,d,Hi,,,,,,0.1113,3,,,,,,,,high,6,0,6,0,1,,,,,,,,,
298135,2022-12-03_14h33.45.655,vts_reward_expectancy_bt,2022.2.4,Win32,165.3986107,Chrome,1920,1080,,,,,0,775,,,,,,,,,,,,,,,,,H,132,hexagon,0,0,,,,,,,,,,,,,,,,repeat,letter,NA,f,Hi,,,,,,0.0484,3,,,,,,,,high,7,0,7,0,1,,,,,,,,,
298135,2022-12-03_14h33.45.655,vts_reward_expectancy_bt,2022.2.4,Win32,165.3986107,Chrome,1920,1080,,,,,0,775,,,,,,,,,,,,,,,,,Y,160,circle,0,1,,,,,,,,,,,,,,,,repeat,letter,NA,d,Hi,,,,,,0.0969,3,,,,,,,,high,8,0,8,0,1,,,,,,,,,
298135,2022-12-03_14h33.45.655,vts_reward_expectancy_bt,2022.2.4,Win32,165.3986107,Chrome,1920,1080,,,,,0,775,,,,,,,,,,,,,,,,,W,181,star,0,1,,,,,,,,,,,,,,,,repeat,letter,NA,d,Hi,,,,,,0.2363,3,,,,,,,,high,9,0,9,0,1,,,,,,,,,
298135,2022-12-03_14h33.45.655,vts_reward_expectancy_bt,2022.2.4,Win32,165.3986107,Chrome,1920,1080,,,,,0,775,,,,,,,,,,,,,,,,,U,174,hexagon,0,1,,,,,,,,,,,,,,,,repeat,letter,NA,d,Hi,,,,,,0.0966,3,,,,,,,,high,10,0,10,0,1,,,,,,,,,
298135,2022-12-03_14h33.45.655,vts_reward_expectancy_bt,2022.2.4,Win32,165.3986107,Chrome,1920,1080,,,,,0,775,,,,,,,,,,,,,,,,,D,146,triangle,0,1,,,,,,,,,,,,,,,,repeat,letter,NA,f,Hi,,,,,,0.1294,3,,,,,,,,high,11,0,11,0,1,,,,,,,,,
298135,2022-12-03_14h33.45.655,vts_reward_expectancy_bt,2022.2.4,Win32,165.3986107,Chrome,1920,1080,,,,,1,776,,,,,,,,,,,,,,,,,B,139,circle,1,1,,,,,,,,,,,,,,,,repeat,letter,lettRpt,d,Lo,,,,,,0.3155,3,,,,,,,,high,12,0,12,0,1,,,,,,,,,
298135,2022-12-03_14h33.45.655,vts_reward_expectancy_bt,2022.2.4,Win32,165.3986107,Chrome,1920,1080,,,,,0,776,,,,,,,,,,,,,,,,,S,167,hexagon,0,0,,,,,,,,,,,,,,,,repeat,letter,NA,d,Lo,,,,,,0.2246,3,,,,,,,,high,13,0,13,0,1,,,,,,,,,
298135,2022-12-03_14h33.45.655,vts_reward_expectancy_bt,2022.2.4,Win32,165.3986107,Chrome,1920,1080,,,,,0,776,,,,,,,,,,,,,,,,,F,125,triangle,-1,1,,,,,,,,,,,,,,,,switch,no_choice,NA,,Lo,,,,,,,3,,,,,,,,high,14,0,14,0,1,,,,,,,,,
298135,2022-12-03_14h33.45.655,vts_reward_expectancy_bt,2022.2.4,Win32,165.3986107,Chrome,1920,1080,,,,,0,776,,,,,,,,,,,,,,,,,H,132,star,0,0,,,,,,,,,,,,,,,,switch,letter,NA,f,Lo,,,,,,0.0376,3,,,,,,,,high,15,0,15,0,1,,,,,,,,,
298135,2022-12-03_14h33.45.655,vts_reward_expectancy_bt,2022.2.4,Win32,165.3986107,Chrome,1920,1080,,,,,0,776,,,,,,,,,,,,,,,,,D,160,circle,0,1,,,,,,,,,,,,,,,,repeat,letter,NA,f,Lo,,,,,,0.9577,3,,,,,,,,high,16,0,16,0,1,,,,,,,,,
298135,2022-12-03_14h33.45.655,vts_reward_expectancy_bt,2022.2.4,Win32,165.3986107,Chrome,1920,1080,,,,,10,786,,,,,,,,,,,,,,,,,W,132,triangle,1,1,,,,,,,,,,,,,,,,repeat,letter,lettRpt,f,Hi,,,,,,0.0005,3,,,,,,,,high,17,0,17,0,1,,,,,,,,,
298135,2022-12-03_14h33.45.655,vts_reward_expectancy_bt,2022.2.4,Win32,165.3986107,Chrome,1920,1080,,,,,0,786,,,,,,,,,,,,,,,,,B,167,star,0,0,,,,,,,,,,,,,,,,repeat,letter,NA,f,Hi,,,,,,0.0022,3,,,,,,,,high,18,0,18,0,1,,,,,,,,,
298135,2022-12-03_14h33.45.655,vts_reward_expectancy_bt,2022.2.4,Win32,165.3986107,Chrome,1920,1080,,,,,0,786,,,,,,,,,,,,,,,,,Y,174,hexagon,0,1,,,,,,,,,,,,,,,,repeat,letter,NA,d,Hi,,,,,,0.014,3,,,,,,,,high,19,0,19,0,1,,,,,,,,,
298135,2022-12-03_14h33.45.655,vts_reward_expectancy_bt,2022.2.4,Win32,165.3986107,Chrome,1920,1080,,,,,1,787,,,,,,,,,,,,,,,,,U,139,hexagon,1,1,,,,,,,,,,,,,,,,repeat,letter,lettRpt,f,Lo,,,,,,0.0971,3,,,,,,,,high,20,0,20,0,1,,,,,,,,,
298135,2022-12-03_14h33.45.655,vts_reward_expectancy_bt,2022.2.4,Win32,165.3986107,Chrome,1920,1080,,,,,0,787,,,,,,,,,,,,,,,,,H,125,triangle,0,0,,,,,,,,,,,,,,,,repeat,letter,NA,f,Lo,,,,,,0.1594,3,,,,,,,,high,21,0,21,0,1,,,,,,,,,
298135,2022-12-03_14h33.45.655,vts_reward_expectancy_bt,2022.2.4,Win32,165.3986107,Chrome,1920,1080,,,,,1,788,,,,,,,,,,,,,,,,,S,181,circle,1,1,,,,,,,,,,,,,,,,repeat,letter,lettRpt,f,Lo,,,,,,0.0972,3,,,,,,,,high,22,0,22,0,1,,,,,,,,,
298135,2022-12-03_14h33.45.655,vts_reward_expectancy_bt,2022.2.4,Win32,165.3986107,Chrome,1920,1080,,,,,10,798,,,,,,,,,,,,,,,,,F,146,star,1,0,,,,,,,,,,,,,,,,repeat,letter,lettRpt,d,Hi,,,,,,0.044,3,,,,,,,,high,23,0,23,0,1,,,,,,,,,
298135,2022-12-03_14h33.45.655,vts_reward_expectancy_bt,2022.2.4,Win32,165.3986107,Chrome,1920,1080,,,,,0,798,,,,,,,,,,,,,,,,,F,160,hexagon,0,0,,,,,,,,,,,,,,,,repeat,letter,NA,f,Hi,,,,,,0.1893,3,,,,,,,,high,24,0,24,0,1,,,,,,,,,
298135,2022-12-03_14h33.45.655,vts_reward_expectancy_bt,2022.2.4,Win32,165.3986107,Chrome,1920,1080,,,,,0,798,,,,,,,,,,,,,,,,,D,146,star,0,1,,,,,,,,,,,,,,,,repeat,letter,NA,f,Hi,,,,,,0.1245,3,,,,,,,,high,25,0,25,0,1,,,,,,,,,
298135,2022-12-03_14h33.45.655,vts_reward_expectancy_bt,2022.2.4,Win32,165.3986107,Chrome,1920,1080,,,,,1,799,,,,,,,,,,,,,,,,,S,132,circle,1,1,,,,,,,,,,,,,,,,repeat,letter,lettRpt,f,Lo,,,,,,0.1094,3,,,,,,,,high,26,0,26,0,1,,,,,,,,,
298135,2022-12-03_14h33.45.655,vts_reward_expectancy_bt,2022.2.4,Win32,165.3986107,Chrome,1920,1080,,,,,1,800,,,,,,,,,,,,,,,,,W,174,triangle,1,0,,,,,,,,,,,,,,,,repeat,letter,lettRpt,f,Hi,,,,,,0.1598,3,,,,,,,,high,27,0,27,0,1,,,,,,,,,
298135,2022-12-03_14h33.45.655,vts_reward_expectancy_bt,2022.2.4,Win32,165.3986107,Chrome,1920,1080,,,,,0,800,,,,,,,,,,,,,,,,,B,167,circle,0,0,,,,,,,,,,,,,,,,repeat,letter,NA,f,Hi,,,,,,0.0123,3,,,,,,,,high,28,0,28,0,1,,,,,,,,,
298135,2022-12-03_14h33.45.655,vts_reward_expectancy_bt,2022.2.4,Win32,165.3986107,Chrome,1920,1080,,,,,0,800,,,,,,,,,,,,,,,,,Y,125,triangle,0,1,,,,,,,,,,,,,,,,repeat,letter,NA,d,Hi,,,,,,0.5519,3,,,,,,,,high,29,0,29,0,1,,,,,,,,,
298135,2022-12-03_14h33.45.655,vts_reward_expectancy_bt,2022.2.4,Win32,165.3986107,Chrome,1920,1080,,,,,10,810,,,,,,,,,,,,,,,,,U,139,star,1,1,,,,,,,,,,,,,,,,repeat,letter,lettRpt,f,Hi,,,,,,0.0361,3,,,,,,,,high,30,0,30,0,1,,,,,,,,,
298135,2022-12-03_14h33.45.655,vts_reward_expectancy_bt,2022.2.4,Win32,165.3986107,Chrome,1920,1080,,,,,0,810,,,,,,,,,,,,,,,,,H,181,hexagon,-1,0,,,,,,,,,,,,,,,,switch,no_choice,NA,,Hi,,,,,,,3,,,,,,,,high,31,0,31,0,1,,,,,,,,,
298135,2022-12-03_14h33.45.655,vts_reward_expectancy_bt,2022.2.4,Win32,165.3986107,Chrome,1920,1080,,,,,0,810,,,,,,,,,,,,,,,,,U,132,circle,-1,0,,,,,,,,,,,,,,,,repeat,no_choice,NA,,Hi,,,,,,,4,,,,,,space,3.024,high,0,0,0,0,1,,,,,,,,,
298135,2022-12-03_14h33.45.655,vts_reward_expectancy_bt,2022.2.4,Win32,165.3986107,Chrome,1920,1080,,,,,0,810,,,,,,,,,,,,,,,,,S,181,triangle,-1,0,,,,,,,,,,,,,,,,repeat,no_choice,NA,,Hi,,,,,,,4,,,,,,,,high,1,0,1,0,1,,,,,,,,,
298135,2022-12-03_14h33.45.655,vts_reward_expectancy_bt,2022.2.4,Win32,165.3986107,Chrome,1920,1080,,,,,0,810,,,,,,,,,,,,,,,,,F,125,hexagon,0,0,,,,,,,,,,,,,,,,switch,letter,NA,f,Hi,,,,,,0.3582,4,,,,,,,,high,2,0,2,0,1,,,,,,,,,
298135,2022-12-03_14h33.45.655,vts_reward_expectancy_bt,2022.2.4,Win32,165.3986107,Chrome,1920,1080,,,,,0,810,,,,,,,,,,,,,,,,,B,174,star,1,1,,,,,,,,,,,,,,,,repeat,letter,lettRpt,d,Hi,,,,,,0.6977,4,,,,,,,,high,3,0,3,0,1,,,,,,,,,
298135,2022-12-03_14h33.45.655,vts_reward_expectancy_bt,2022.2.4,Win32,165.3986107,Chrome,1920,1080,,,,,1,811,,,,,,,,,,,,,,,,,W,146,circle,1,0,,,,,,,,,,,,,,,,repeat,letter,lettRpt,f,Lo,,,,,,0.1626,4,,,,,,,,high,4,0,4,0,1,,,,,,,,,
298135,2022-12-03_14h33.45.655,vts_reward_expectancy_bt,2022.2.4,Win32,165.3986107,Chrome,1920,1080,,,,,0,811,,,,,,,,,,,,,,,,,H,139,triangle,0,0,,,,,,,,,,,,,,,,repeat,letter,NA,f,Lo,,,,,,0.6816,4,,,,,,,,high,5,0,5,0,1,,,,,,,,,
298135,2022-12-03_14h33.45.655,vts_reward_expectancy_bt,2022.2.4,Win32,165.3986107,Chrome,1920,1080,,,,,1,812,,,,,,,,,,,,,,,,,Y,167,hexagon,1,1,,,,,,,,,,,,,,,,repeat,letter,lettRpt,f,Lo,,,,,,1.3928,4,,,,,,,,high,6,0,6,0,1,,,,,,,,,
298135,2022-12-03_14h33.45.655,vts_reward_expectancy_bt,2022.2.4,Win32,165.3986107,Chrome,1920,1080,,,,,0,812,,,,,,,,,,,,,,,,,D,160,star,1,0,,,,,,,,,,,,,,,,repeat,letter,lettRpt,d,Hi,,,,,,2.9285,4,,,,,,,,high,7,0,7,0,1,,,,,,,,,
298135,2022-12-03_14h33.45.655,vts_reward_expectancy_bt,2022.2.4,Win32,165.3986107,Chrome,1920,1080,,,,,0,812,,,,,,,,,,,,,,,,,U,132,star,0,0,,,,,,,,,,,,,,,,repeat,letter,NA,d,Hi,,,,,,0.0931,4,,,,,,,,high,8,0,8,0,1,,,,,,,,,
298135,2022-12-03_14h33.45.655,vts_reward_expectancy_bt,2022.2.4,Win32,165.3986107,Chrome,1920,1080,,,,,0,812,,,,,,,,,,,,,,,,,S,181,triangle,1,1,,,,,,,,,,,,,,,,repeat,letter,lettRpt,f,Hi,,,,,,0.1152,4,,,,,,,,high,9,0,9,0,1,,,,,,,,,
298135,2022-12-03_14h33.45.655,vts_reward_expectancy_bt,2022.2.4,Win32,165.3986107,Chrome,1920,1080,,,,,0,812,,,,,,,,,,,,,,,,,F,125,hexagon,0,0,,,,,,,,,,,,,,,,repeat,letter,NA,f,Hi,,,,,,0.7306,4,,,,,,,,high,10,0,10,0,1,,,,,,,,,
298135,2022-12-03_14h33.45.655,vts_reward_expectancy_bt,2022.2.4,Win32,165.3986107,Chrome,1920,1080,,,,,10,822,,,,,,,,,,,,,,,,,B,174,circle,1,1,,,,,,,,,,,,,,,,repeat,letter,lettRpt,d,Lo,,,,,,0.1047,4,,,,,,,,high,11,0,11,0,1,,,,,,,,,
298135,2022-12-03_14h33.45.655,vts_reward_expectancy_bt,2022.2.4,Win32,165.3986107,Chrome,1920,1080,,,,,1,823,,,,,,,,,,,,,,,,,W,146,circle,1,0,,,,,,,,,,,,,,,,repeat,letter,lettRpt,f,Lo,,,,,,0.0323,4,,,,,,,,high,12,0,12,0,1,,,,,,,,,
298135,2022-12-03_14h33.45.655,vts_reward_expectancy_bt,2022.2.4,Win32,165.3986107,Chrome,1920,1080,,,,,1,824,,,,,,,,,,,,,,,,,H,139,hexagon,1,0,,,,,,,,,,,,,,,,repeat,letter,lettRpt,d,Lo,,,,,,0.1887,4,,,,,,,,high,13,0,13,0,1,,,,,,,,,
298135,2022-12-03_14h33.45.655,vts_reward_expectancy_bt,2022.2.4,Win32,165.3986107,Chrome,1920,1080,,,,,0,824,,,,,,,,,,,,,,,,,Y,167,star,0,0,,,,,,,,,,,,,,,,repeat,letter,NA,d,Lo,,,,,,0.0122,4,,,,,,,,high,14,0,14,0,1,,,,,,,,,
298135,2022-12-03_14h33.45.655,vts_reward_expectancy_bt,2022.2.4,Win32,165.3986107,Chrome,1920,1080,,,,,0,824,,,,,,,,,,,,,,,,,D,160,triangle,1,1,,,,,,,,,,,,,,,,repeat,letter,lettRpt,d,Hi,,,,,,0.1051,4,,,,,,,,high,15,0,15,0,1,,,,,,,,,
298135,2022-12-03_14h33.45.655,vts_reward_expectancy_bt,2022.2.4,Win32,165.3986107,Chrome,1920,1080,,,,,0,824,,,,,,,,,,,,,,,,,D,181,star,1,0,,,,,,,,,,,,,,,,repeat,letter,lettRpt,d,Hi,,,,,,0.3151,4,,,,,,,,high,16,0,16,0,1,,,,,,,,,
298135,2022-12-03_14h33.45.655,vts_reward_expectancy_bt,2022.2.4,Win32,165.3986107,Chrome,1920,1080,,,,,0,824,,,,,,,,,,,,,,,,,B,167,triangle,1,0,,,,,,,,,,,,,,,,repeat,letter,lettRpt,d,Hi,,,,,,0.4314,4,,,,,,,,high,17,0,17,0,1,,,,,,,,,
298135,2022-12-03_14h33.45.655,vts_reward_expectancy_bt,2022.2.4,Win32,165.3986107,Chrome,1920,1080,,,,,10,834,,,,,,,,,,,,,,,,,Y,174,circle,1,0,,,,,,,,,,,,,,,,repeat,letter,lettRpt,f,Lo,,,,,,0.6987,4,,,,,,,,high,18,0,18,0,1,,,,,,,,,
298135,2022-12-03_14h33.45.655,vts_reward_expectancy_bt,2022.2.4,Win32,165.3986107,Chrome,1920,1080,,,,,1,835,,,,,,,,,,,,,,,,,U,125,hexagon,1,0,,,,,,,,,,,,,,,,repeat,letter,lettRpt,f,Lo,,,,,,0.1341,4,,,,,,,,high,19,0,19,0,1,,,,,,,,,
298135,2022-12-03_14h33.45.655,vts_reward_expectancy_bt,2022.2.4,Win32,165.3986107,Chrome,1920,1080,,,,,0,835,,,,,,,,,,,,,,,,,F,132,circle,0,0,,,,,,,,,,,,,,,,repeat,letter,NA,f,Lo,,,,,,0.2304,4,,,,,,,,high,20,0,20,0,1,,,,,,,,,
298135,2022-12-03_14h33.45.655,vts_reward_expectancy_bt,2022.2.4,Win32,165.3986107,Chrome,1920,1080,,,,,1,836,,,,,,,,,,,,,,,,,W,146,hexagon,1,1,,,,,,,,,,,,,,,,repeat,letter,lettRpt,f,Lo,,,,,,0.1829,4,,,,,,,,high,21,0,21,0,1,,,,,,,,,
298135,2022-12-03_14h33.45.655,vts_reward_expectancy_bt,2022.2.4,Win32,165.3986107,Chrome,1920,1080,,,,,0,836,,,,,,,,,,,,,,,,,S,160,star,0,0,,,,,,,,,,,,,,,,repeat,letter,NA,d,Lo,,,,,,0.5398,4,,,,,,,,high,22,0,22,0,1,,,,,,,,,
298135,2022-12-03_14h33.45.655,vts_reward_expectancy_bt,2022.2.4,Win32,165.3986107,Chrome,1920,1080,,,,,0,836,,,,,,,,,,,,,,,,,H,139,triangle,0,1,,,,,,,,,,,,,,,,repeat,letter,NA,f,Lo,,,,,,0.098,4,,,,,,,,high,23,0,23,0,1,,,,,,,,,
298135,2022-12-03_14h33.45.655,vts_reward_expectancy_bt,2022.2.4,Win32,165.3986107,Chrome,1920,1080,,,,,1,837,,,,,,,,,,,,,,,,,D,167,hexagon,1,1,,,,,,,,,,,,,,,,repeat,letter,lettRpt,d,Lo,,,,,,0.8601,4,,,,,,,,high,24,0,24,0,1,,,,,,,,,
298135,2022-12-03_14h33.45.655,vts_reward_expectancy_bt,2022.2.4,Win32,165.3986107,Chrome,1920,1080,,,,,0,837,,,,,,,,,,,,,,,,,Y,174,circle,0,0,,,,,,,,,,,,,,,,repeat,letter,NA,d,Lo,,,,,,0.123,4,,,,,,,,high,25,0,25,0,1,,,,,,,,,
298135,2022-12-03_14h33.45.655,vts_reward_expectancy_bt,2022.2.4,Win32,165.3986107,Chrome,1920,1080,,,,,0,837,,,,,,,,,,,,,,,,,W,139,triangle,1,1,,,,,,,,,,,,,,,,repeat,letter,lettRpt,f,Hi,,,,,,0.1241,4,,,,,,,,high,26,0,26,0,1,,,,,,,,,
298135,2022-12-03_14h33.45.655,vts_reward_expectancy_bt,2022.2.4,Win32,165.3986107,Chrome,1920,1080,,,,,0,837,,,,,,,,,,,,,,,,,B,125,star,0,0,,,,,,,,,,,,,,,,repeat,letter,NA,f,Hi,,,,,,0.0024,4,,,,,,,,high,27,0,27,0,1,,,,,,,,,
298135,2022-12-03_14h33.45.655,vts_reward_expectancy_bt,2022.2.4,Win32,165.3986107,Chrome,1920,1080,,,,,0,837,,,,,,,,,,,,,,,,,H,132,hexagon,0,1,,,,,,,,,,,,,,,,repeat,letter,NA,f,Hi,,,,,,0.0547,4,,,,,,,,high,28,0,28,0,1,,,,,,,,,
298135,2022-12-03_14h33.45.655,vts_reward_expectancy_bt,2022.2.4,Win32,165.3986107,Chrome,1920,1080,,,,,0,837,,,,,,,,,,,,,,,,,F,160,circle,0,1,,,,,,,,,,,,,,,,repeat,letter,NA,f,Hi,,,,,,0.1088,4,,,,,,,,high,29,0,29,0,1,,,,,,,,,
298135,2022-12-03_14h33.45.655,vts_reward_expectancy_bt,2022.2.4,Win32,165.3986107,Chrome,1920,1080,,,,,0,837,,,,,,,,,,,,,,,,,U,146,star,1,1,,,,,,,,,,,,,,,,repeat,letter,lettRpt,f,Hi,,,,,,0.1817,4,,,,,,,,high,30,0,30,0,1,,,,,,,,,
298135,2022-12-03_14h33.45.655,vts_reward_expectancy_bt,2022.2.4,Win32,165.3986107,Chrome,1920,1080,,,,,0,837,,,,,,,,,,,,,,,,,S,181,triangle,0,0,,,,,,,,,,,,,,,,repeat,letter,NA,d,Hi,,,,,,0.1165,4,,,,,,,,high,31,0,31,0,1,,,,,,,,,
298135,2022-12-03_14h33.45.655,vts_reward_expectancy_bt,2022.2.4,Win32,165.3986107,Chrome,1920,1080,,,,,0,837,,,,,,,,,,,,,,,,,B,160,star,0,1,,,,,,,,,,,,,,,,repeat,letter,NA,f,Hi,,,,,,0.1042,5,,,,,,space,0.3034,high,0,0,0,0,1,,,,,,,,,
298135,2022-12-03_14h33.45.655,vts_reward_expectancy_bt,2022.2.4,Win32,165.3986107,Chrome,1920,1080,,,,,0,837,,,,,,,,,,,,,,,,,Y,139,circle,0,1,,,,,,,,,,,,,,,,repeat,letter,NA,d,Hi,,,,,,0.0002,5,,,,,,,,high,1,0,1,0,1,,,,,,,,,
298135,2022-12-03_14h33.45.655,vts_reward_expectancy_bt,2022.2.4,Win32,165.3986107,Chrome,1920,1080,,,,,0,837,,,,,,,,,,,,,,,,,U,167,triangle,0,1,,,,,,,,,,,,,,,,repeat,letter,NA,d,Hi,,,,,,0.39,5,,,,,,,,high,2,0,2,0,1,,,,,,,,,
298135,2022-12-03_14h33.45.655,vts_reward_expectancy_bt,2022.2.4,Win32,165.3986107,Chrome,1920,1080,,,,,1,838,,,,,,,,,,,,,,,,,H,146,hexagon,1,1,,,,,,,,,,,,,,,,repeat,letter,lettRpt,d,Lo,,,,,,0.012,5,,,,,,,,high,3,0,3,0,1,,,,,,,,,
298135,2022-12-03_14h33.45.655,vts_reward_expectancy_bt,2022.2.4,Win32,165.3986107,Chrome,1920,1080,,,,,0,838,,,,,,,,,,,,,,,,,W,174,star,1,0,,,,,,,,,,,,,,,,repeat,letter,lettRpt,f,Hi,,,,,,0.1696,5,,,,,,,,high,4,0,4,0,1,,,,,,,,,
298135,2022-12-03_14h33.45.655,vts_reward_expectancy_bt,2022.2.4,Win32,165.3986107,Chrome,1920,1080,,,,,0,838,,,,,,,,,,,,,,,,,S,181,circle,0,0,,,,,,,,,,,,,,,,repeat,letter,NA,d,Hi,,,,,,0.382,5,,,,,,,,high,5,0,5,0,1,,,,,,,,,
298135,2022-12-03_14h33.45.655,vts_reward_expectancy_bt,2022.2.4,Win32,165.3986107,Chrome,1920,1080,,,,,0,838,,,,,,,,,,,,,,,,,D,132,triangle,0,1,,,,,,,,,,,,,,,,repeat,letter,NA,f,Hi,,,,,,0.2094,5,,,,,,,,high,6,0,6,0,1,,,,,,,,,
298135,2022-12-03_14h33.45.655,vts_reward_expectancy_bt,2022.2.4,Win32,165.3986107,Chrome,1920,1080,,,,,1,839,,,,,,,,,,,,,,,,,F,125,hexagon,1,1,,,,,,,,,,,,,,,,repeat,letter,lettRpt,d,Lo,,,,,,0.7954,5,,,,,,,,high,7,0,7,0,1,,,,,,,,,
298135,2022-12-03_14h33.45.655,vts_reward_expectancy_bt,2022.2.4,Win32,165.3986107,Chrome,1920,1080,,,,,1,840,,,,,,,,,,,,,,,,,B,160,circle,1,0,,,,,,,,,,,,,,,,repeat,letter,lettRpt,d,Lo,,,,,,0.0912,5,,,,,,,,high,8,0,8,0,1,,,,,,,,,
298135,2022-12-03_14h33.45.655,vts_reward_expectancy_bt,2022.2.4,Win32,165.3986107,Chrome,1920,1080,,,,,0,840,,,,,,,,,,,,,,,,,Y,139,triangle,1,0,,,,,,,,,,,,,,,,repeat,letter,lettRpt,f,Hi,,,,,,0.1822,5,,,,,,,,high,9,0,9,0,1,,,,,,,,,
298135,2022-12-03_14h33.45.655,vts_reward_expectancy_bt,2022.2.4,Win32,165.3986107,Chrome,1920,1080,,,,,0,840,,,,,,,,,,,,,,,,,U,167,star,1,0,,,,,,,,,,,,,,,,repeat,letter,lettRpt,f,Hi,,,,,,0.1998,5,,,,,,,,high,10,0,10,0,1,,,,,,,,,
298135,2022-12-03_14h33.45.655,vts_reward_expectancy_bt,2022.2.4,Win32,165.3986107,Chrome,1920,1080,,,,,1,841,,,,,,,,,,,,,,,,,H,146,hexagon,1,0,,,,,,,,,,,,,,,,repeat,letter,lettRpt,d,Lo,,,,,,0.0488,5,,,,,,,,high,11,0,11,0,1,,,,,,,,,
298135,2022-12-03_14h33.45.655,vts_reward_expectancy_bt,2022.2.4,Win32,165.3986107,Chrome,1920,1080,,,,,0,841,,,,,,,,,,,,,,,,,W,174,triangle,1,0,,,,,,,,,,,,,,,,repeat,letter,lettRpt,f,Hi,,,,,,0.185,5,,,,,,,,high,12,0,12,0,1,,,,,,,,,
298135,2022-12-03_14h33.45.655,vts_reward_expectancy_bt,2022.2.4,Win32,165.3986107,Chrome,1920,1080,,,,,1,842,,,,,,,,,,,,,,,,,S,181,circle,1,0,,,,,,,,,,,,,,,,repeat,letter,lettRpt,f,Lo,,,,,,0.1289,5,,,,,,,,high,13,0,13,0,1,,,,,,,,,
298135,2022-12-03_14h33.45.655,vts_reward_expectancy_bt,2022.2.4,Win32,165.3986107,Chrome,1920,1080,,,,,10,852,,,,,,,,,,,,,,,,,D,132,star,1,0,,,,,,,,,,,,,,,,repeat,letter,lettRpt,d,Hi,,,,,,0.0968,5,,,,,,,,high,14,0,14,0,1,,,,,,,,,
298135,2022-12-03_14h33.45.655,vts_reward_expectancy_bt,2022.2.4,Win32,165.3986107,Chrome,1920,1080,,,,,1,853,,,,,,,,,,,,,,,,,F,125,hexagon,1,0,,,,,,,,,,,,,,,,repeat,letter,lettRpt,d,Lo,,,,,,0.0131,5,,,,,,,,high,15,0,15,0,1,,,,,,,,,
298135,2022-12-03_14h33.45.655,vts_reward_expectancy_bt,2022.2.4,Win32,165.3986107,Chrome,1920,1080,,,,,10,863,,,,,,,,,,,,,,,,,D,167,star,1,0,,,,,,,,,,,,,,,,repeat,letter,lettRpt,d,Hi,,,,,,0.0118,5,,,,,,,,high,16,0,16,0,1,,,,,,,,,
298135,2022-12-03_14h33.45.655,vts_reward_expectancy_bt,2022.2.4,Win32,165.3986107,Chrome,1920,1080,,,,,10,873,,,,,,,,,,,,,,,,,W,160,hexagon,1,0,,,,,,,,,,,,,,,,repeat,letter,lettRpt,f,Lo,,,,,,0.2124,5,,,,,,,,high,17,0,17,0,1,,,,,,,,,
298135,2022-12-03_14h33.45.655,vts_reward_expectancy_bt,2022.2.4,Win32,165.3986107,Chrome,1920,1080,,,,,1,874,,,,,,,,,,,,,,,,,B,181,circle,1,0,,,,,,,,,,,,,,,,repeat,letter,lettRpt,d,Lo,,,,,,0.0268,5,,,,,,,,high,18,0,18,0,1,,,,,,,,,
298135,2022-12-03_14h33.45.655,vts_reward_expectancy_bt,2022.2.4,Win32,165.3986107,Chrome,1920,1080,,,,,0,874,,,,,,,,,,,,,,,,,S,139,triangle,0,0,,,,,,,,,,,,,,,,repeat,letter,NA,d,Lo,,,,,,1.0815,5,,,,,,,,high,19,0,19,0,1,,,,,,,,,
298135,2022-12-03_14h33.45.655,vts_reward_expectancy_bt,2022.2.4,Win32,165.3986107,Chrome,1920,1080,,,,,0,874,,,,,,,,,,,,,,,,,H,132,triangle,0,1,,,,,,,,,,,,,,,,repeat,letter,NA,f,Lo,,,,,,0.2677,5,,,,,,,,high,20,0,20,0,1,,,,,,,,,
298135,2022-12-03_14h33.45.655,vts_reward_expectancy_bt,2022.2.4,Win32,165.3986107,Chrome,1920,1080,,,,,0,874,,,,,,,,,,,,,,,,,F,146,star,1,1,,,,,,,,,,,,,,,,repeat,letter,lettRpt,d,Hi,,,,,,0.5102,5,,,,,,,,high,21,0,21,0,1,,,,,,,,,
298135,2022-12-03_14h33.45.655,vts_reward_expectancy_bt,2022.2.4,Win32,165.3986107,Chrome,1920,1080,,,,,0,874,,,,,,,,,,,,,,,,,Y,125,hexagon,-1,0,,,,,,,,,,,,,,,,switch,no_choice,NA,,Hi,,,,,,,5,,,,,,,,high,22,0,22,0,1,,,,,,,,,
298135,2022-12-03_14h33.45.655,vts_reward_expectancy_bt,2022.2.4,Win32,165.3986107,Chrome,1920,1080,,,,,1,875,,,,,,,,,,,,,,,,,U,174,circle,1,0,,,,,,,,,,,,,,,,switch,letter,lettSwt,f,Lo,,,,,,1.5646,5,,,,,,,,high,23,0,23,0,1,,,,,,,,,
298135,2022-12-03_14h33.45.655,vts_reward_expectancy_bt,2022.2.4,Win32,165.3986107,Chrome,1920,1080,,,,,0,875,,,,,,,,,,,,,,,,,W,139,circle,0,0,,,,,,,,,,,,,,,,repeat,letter,NA,d,Lo,,,,,,1.2554,5,,,,,,,,high,24,0,24,0,1,,,,,,,,,
298135,2022-12-03_14h33.45.655,vts_reward_expectancy_bt,2022.2.4,Win32,165.3986107,Chrome,1920,1080,,,,,0,875,,,,,,,,,,,,,,,,,F,125,hexagon,-1,1,,,,,,,,,,,,,,,,switch,no_choice,NA,,Lo,,,,,,,5,,,,,,,,high,25,0,25,0,1,,,,,,,,,
298135,2022-12-03_14h33.45.655,vts_reward_expectancy_bt,2022.2.4,Win32,165.3986107,Chrome,1920,1080,,,,,10,885,,,,,,,,,,,,,,,,,U,181,star,1,0,,,,,,,,,,,,,,,,switch,letter,lettSwt,f,Hi,,,,,,0.0611,5,,,,,,,,high,26,0,26,0,1,,,,,,,,,
298135,2022-12-03_14h33.45.655,vts_reward_expectancy_bt,2022.2.4,Win32,165.3986107,Chrome,1920,1080,,,,,0,885,,,,,,,,,,,,,,,,,Y,160,triangle,0,0,,,,,,,,,,,,,,,,repeat,letter,NA,d,Hi,,,,,,0.0207,5,,,,,,,,high,27,0,27,0,1,,,,,,,,,
298135,2022-12-03_14h33.45.655,vts_reward_expectancy_bt,2022.2.4,Win32,165.3986107,Chrome,1920,1080,,,,,0,885,,,,,,,,,,,,,,,,,D,174,hexagon,0,1,,,,,,,,,,,,,,,,repeat,letter,NA,f,Hi,,,,,,0.202,5,,,,,,,,high,28,0,28,0,1,,,,,,,,,
298135,2022-12-03_14h33.45.655,vts_reward_expectancy_bt,2022.2.4,Win32,165.3986107,Chrome,1920,1080,,,,,10,895,,,,,,,,,,,,,,,,,B,132,triangle,1,1,,,,,,,,,,,,,,,,repeat,letter,lettRpt,d,Hi,,,,,,0.0003,5,,,,,,,,high,29,0,29,0,1,,,,,,,,,
298135,2022-12-03_14h33.45.655,vts_reward_expectancy_bt,2022.2.4,Win32,165.3986107,Chrome,1920,1080,,,,,0,895,,,,,,,,,,,,,,,,,H,167,circle,0,0,,,,,,,,,,,,,,,,repeat,letter,NA,f,Hi,,,,,,0.0639,5,,,,,,,,high,30,0,30,0,1,,,,,,,,,
298135,2022-12-03_14h33.45.655,vts_reward_expectancy_bt,2022.2.4,Win32,165.3986107,Chrome,1920,1080,,,,,10,905,,,,,,,,,,,,,,,,,S,146,star,1,1,,,,,,,,,,,,,,,,repeat,letter,lettRpt,f,Hi,,,,,,0.1033,5,,,,,,,,high,31,0,31,0,1,,,,,,,,,
298135,2022-12-03_14h33.45.655,vts_reward_expectancy_bt,2022.2.4,Win32,165.3986107,Chrome,1920,1080,,,,,0,905,,,,,,,,,,,,,,,,,F,160,star,1,0,,,,,,,,,,,,,,,,repeat,letter,lettRpt,d,Hi,,,,,,0.8978,6,,,,,,space,0.2138,high,0,0,0,0,1,,,,,,,,,
298135,2022-12-03_14h33.45.655,vts_reward_expectancy_bt,2022.2.4,Win32,165.3986107,Chrome,1920,1080,,,,,0,905,,,,,,,,,,,,,,,,,B,167,hexagon,-1,0,,,,,,,,,,,,,,,,switch,no_choice,NA,,Hi,,,,,,,6,,,,,,,,high,1,0,1,0,1,,,,,,,,,
298135,2022-12-03_14h33.45.655,vts_reward_expectancy_bt,2022.2.4,Win32,165.3986107,Chrome,1920,1080,,,,,0,905,,,,,,,,,,,,,,,,,Y,132,circle,0,0,,,,,,,,,,,,,,,,switch,letter,NA,d,Hi,,,,,,0.5461,6,,,,,,,,high,2,0,2,0,1,,,,,,,,,
298135,2022-12-03_14h33.45.655,vts_reward_expectancy_bt,2022.2.4,Win32,165.3986107,Chrome,1920,1080,,,,,0,905,,,,,,,,,,,,,,,,,U,174,triangle,-1,1,,,,,,,,,,,,,,,,switch,no_choice,NA,,Hi,,,,,,,6,,,,,,,,high,3,0,3,0,1,,,,,,,,,
298135,2022-12-03_14h33.45.655,vts_reward_expectancy_bt,2022.2.4,Win32,165.3986107,Chrome,1920,1080,,,,,0,905,,,,,,,,,,,,,,,,,D,125,star,0,0,,,,,,,,,,,,,,,,switch,letter,NA,f,Hi,,,,,,0.1275,6,,,,,,,,high,4,0,4,0,1,,,,,,,,,
298135,2022-12-03_14h33.45.655,vts_reward_expectancy_bt,2022.2.4,Win32,165.3986107,Chrome,1920,1080,,,,,0,905,,,,,,,,,,,,,,,,,S,181,hexagon,0,1,,,,,,,,,,,,,,,,repeat,letter,NA,d,Hi,,,,,,0.0326,6,,,,,,,,high,5,0,5,0,1,,,,,,,,,
298135,2022-12-03_14h33.45.655,vts_reward_expectancy_bt,2022.2.4,Win32,165.3986107,Chrome,1920,1080,,,,,0,905,,,,,,,,,,,,,,,,,W,139,circle,0,1,,,,,,,,,,,,,,,,repeat,letter,NA,d,Hi,,,,,,0.218,6,,,,,,,,high,6,0,6,0,1,,,,,,,,,
298135,2022-12-03_14h33.45.655,vts_reward_expectancy_bt,2022.2.4,Win32,165.3986107,Chrome,1920,1080,,,,,0,905,,,,,,,,,,,,,,,,,H,146,triangle,0,1,,,,,,,,,,,,,,,,repeat,letter,NA,f,Hi,,,,,,0.0421,6,,,,,,,,high,7,0,7,0,1,,,,,,,,,
