participant,date,expName,psychopyVersion,OS,frameRate,browser,xResolution,yResolution,key_resp.keys,key_resp.rt,training_resp.keys,training_resp.rt,points_trial,points_cumul,trainBlock,training.thisRepN,training.thisTrialN,training.thisN,training.thisIndex,training.ran,LTriangleOpac,LCircleOpac,LHexagonOpac,LStarOpac,RTriangleOpac,RCircleOpac,RHexagonOpac,RStarOpac,LShape_ID,RShape_ID,curr_topStim,curr_bottStim,curr_shape,acc,E1,target_resp_prac1.keys,target_resp_prac1.rt,pracBlock,task1_prac_trials.thisRepN,task1_prac_trials.thisTrialN,task1_prac_trials.thisN,task1_prac_trials.thisIndex,task1_prac_trials.ran,target_resp_prac2.keys,target_resp_prac2.rt,task2_praac_trials.thisRepN,task2_praac_trials.thisTrialN,task2_praac_trials.thisN,task2_praac_trials.thisIndex,task2_praac_trials.ran,alt,task,condition,target_resp.keys,target_resp.rt,rewCond,vts_practice_trials.thisRepN,vts_practice_trials.thisTrialN,vts_practice_trials.thisN,vts_practice_trials.thisIndex,vts_practice_trials.ran,blockNum,trials_norew.thisRepN,trials_norew.thisTrialN,trials_norew.thisN,trials_norew.thisIndex,trials_norew.ran,key_resp_2.keys,key_resp_2.rt,rewExpectancy,trials_rew.thisRepN,trials_rew.thisTrialN,trials_rew.thisN,trials_rew.thisIndex,trials_rew.ran,Q1,Q2,Q2_text,Q3,Q4,Q5_text,Q5,xRes,yRes
298186,2022-11-14_09h33.04.705,vts_reward_expectancy_bt,2022.2.4,Win32,4.001008254,Chrome,1536,864,,,,,,,,,,,,,,,,,,,,,,,,,,,,,,,,,,,,,,,,,,,,,,,,,,,,,,,,,,,,,,,,,,,,,,,,,,,,
298186,2022-11-14_09h33.04.705,vts_reward_expectancy_bt,2022.2.4,Win32,4.001008254,Chrome,1536,864,space,16.1417,,,,,,,,,,,,,,,,,,,,,,,,,,,,,,,,,,,,,,,,,,,,,,,,,,,,,,,,,,,,,,,,,,,,,,,,,,
298186,2022-11-14_09h33.04.705,vts_reward_expectancy_bt,2022.2.4,Win32,4.001008254,Chrome,1536,864,,,,,,,,,,,,,,,,,,,,,,,,,,,,,,,,,,,,,,,,,,,,,,,,,,,,,,,,,,,,,,,,,,,,,,,,,,,,
298186,2022-11-14_09h33.04.705,vts_reward_expectancy_bt,2022.2.4,Win32,4.001008254,Chrome,1536,864,,,l,3.0165,1,1,0,0,0,0,8,1,0,0,1,0,0,0,0,1,hexagon,star,,,,,,,,,,,,,,,,,,,,,,,,,,,,,,,,,,,,,,,,,,,,,,,,,,,,,,
298186,2022-11-14_09h33.04.705,vts_reward_expectancy_bt,2022.2.4,Win32,4.001008254,Chrome,1536,864,,,l,2.1264,10,11,0,0,1,1,5,1,0,1,0,0,0,0,0,1,circle,star,,,,,,,,,,,,,,,,,,,,,,,,,,,,,,,,,,,,,,,,,,,,,,,,,,,,,,
298186,2022-11-14_09h33.04.705,vts_reward_expectancy_bt,2022.2.4,Win32,4.001008254,Chrome,1536,864,,,l,2.8451,10,21,0,0,2,2,0,1,1,0,0,0,0,1,0,0,triangle,circle,,,,,,,,,,,,,,,,,,,,,,,,,,,,,,,,,,,,,,,,,,,,,,,,,,,,,,
298186,2022-11-14_09h33.04.705,vts_reward_expectancy_bt,2022.2.4,Win32,4.001008254,Chrome,1536,864,,,a,1.2158,1,22,0,0,3,3,11,1,0,0,0,1,0,0,1,0,star,hexagon,,,,,,,,,,,,,,,,,,,,,,,,,,,,,,,,,,,,,,,,,,,,,,,,,,,,,,
298186,2022-11-14_09h33.04.705,vts_reward_expectancy_bt,2022.2.4,Win32,4.001008254,Chrome,1536,864,,,l,1.2205,10,32,0,0,4,4,2,1,1,0,0,0,0,0,0,1,triangle,star,,,,,,,,,,,,,,,,,,,,,,,,,,,,,,,,,,,,,,,,,,,,,,,,,,,,,,
298186,2022-11-14_09h33.04.705,vts_reward_expectancy_bt,2022.2.4,Win32,4.001008254,Chrome,1536,864,,,l,1.4587,1,33,0,0,5,5,9,1,0,0,0,1,1,0,0,0,star,triangle,,,,,,,,,,,,,,,,,,,,,,,,,,,,,,,,,,,,,,,,,,,,,,,,,,,,,,
298186,2022-11-14_09h33.04.705,vts_reward_expectancy_bt,2022.2.4,Win32,4.001008254,Chrome,1536,864,,,l,1.4797,10,43,0,0,6,6,3,1,0,1,0,0,1,0,0,0,circle,triangle,,,,,,,,,,,,,,,,,,,,,,,,,,,,,,,,,,,,,,,,,,,,,,,,,,,,,,
298186,2022-11-14_09h33.04.705,vts_reward_expectancy_bt,2022.2.4,Win32,4.001008254,Chrome,1536,864,,,a,1.8241,1,44,0,0,7,7,7,1,0,0,1,0,0,1,0,0,hexagon,circle,,,,,,,,,,,,,,,,,,,,,,,,,,,,,,,,,,,,,,,,,,,,,,,,,,,,,,
298186,2022-11-14_09h33.04.705,vts_reward_expectancy_bt,2022.2.4,Win32,4.001008254,Chrome,1536,864,,,a,1.5089,1,45,0,0,8,8,6,1,0,0,1,0,1,0,0,0,hexagon,triangle,,,,,,,,,,,,,,,,,,,,,,,,,,,,,,,,,,,,,,,,,,,,,,,,,,,,,,
298186,2022-11-14_09h33.04.705,vts_reward_expectancy_bt,2022.2.4,Win32,4.001008254,Chrome,1536,864,,,l,2.0951,1,46,0,0,9,9,1,1,1,0,0,0,0,0,1,0,triangle,hexagon,,,,,,,,,,,,,,,,,,,,,,,,,,,,,,,,,,,,,,,,,,,,,,,,,,,,,,
298186,2022-11-14_09h33.04.705,vts_reward_expectancy_bt,2022.2.4,Win32,4.001008254,Chrome,1536,864,,,l,1.4807,10,56,0,0,10,10,10,1,0,0,0,1,0,1,0,0,star ,circle,,,,,,,,,,,,,,,,,,,,,,,,,,,,,,,,,,,,,,,,,,,,,,,,,,,,,,
298186,2022-11-14_09h33.04.705,vts_reward_expectancy_bt,2022.2.4,Win32,4.001008254,Chrome,1536,864,,,a,1.5795,1,57,0,0,11,11,4,1,0,1,0,0,0,0,1,0,circle,hexagon,,,,,,,,,,,,,,,,,,,,,,,,,,,,,,,,,,,,,,,,,,,,,,,,,,,,,,
298186,2022-11-14_09h33.04.705,vts_reward_expectancy_bt,2022.2.4,Win32,4.001008254,Chrome,1536,864,,,l,2.0511,1,58,0,1,0,12,0,1,1,0,0,0,0,1,0,0,triangle,circle,,,,,,,,,,,,,,,,,,,,,,,,,,,,,,,,,,,,,,,,,,,,,,,,,,,,,,
298186,2022-11-14_09h33.04.705,vts_reward_expectancy_bt,2022.2.4,Win32,4.001008254,Chrome,1536,864,,,l,2.3921,1,59,0,1,1,13,9,1,0,0,0,1,1,0,0,0,star,triangle,,,,,,,,,,,,,,,,,,,,,,,,,,,,,,,,,,,,,,,,,,,,,,,,,,,,,,
298186,2022-11-14_09h33.04.705,vts_reward_expectancy_bt,2022.2.4,Win32,4.001008254,Chrome,1536,864,,,a,1.7941,1,60,0,1,2,14,11,1,0,0,0,1,0,0,1,0,star,hexagon,,,,,,,,,,,,,,,,,,,,,,,,,,,,,,,,,,,,,,,,,,,,,,,,,,,,,,
298186,2022-11-14_09h33.04.705,vts_reward_expectancy_bt,2022.2.4,Win32,4.001008254,Chrome,1536,864,,,a,5.9452,10,70,0,1,3,15,6,1,0,0,1,0,1,0,0,0,hexagon,triangle,,,,,,,,,,,,,,,,,,,,,,,,,,,,,,,,,,,,,,,,,,,,,,,,,,,,,,
298186,2022-11-14_09h33.04.705,vts_reward_expectancy_bt,2022.2.4,Win32,4.001008254,Chrome,1536,864,,,a,3.2571,10,80,0,1,4,16,3,1,0,1,0,0,1,0,0,0,circle,triangle,,,,,,,,,,,,,,,,,,,,,,,,,,,,,,,,,,,,,,,,,,,,,,,,,,,,,,
298186,2022-11-14_09h33.04.705,vts_reward_expectancy_bt,2022.2.4,Win32,4.001008254,Chrome,1536,864,,,l,2.4144,10,90,0,1,5,17,4,1,0,1,0,0,0,0,1,0,circle,hexagon,,,,,,,,,,,,,,,,,,,,,,,,,,,,,,,,,,,,,,,,,,,,,,,,,,,,,,
298186,2022-11-14_09h33.04.705,vts_reward_expectancy_bt,2022.2.4,Win32,4.001008254,Chrome,1536,864,,,a,1.2128,10,100,0,1,6,18,7,1,0,0,1,0,0,1,0,0,hexagon,circle,,,,,,,,,,,,,,,,,,,,,,,,,,,,,,,,,,,,,,,,,,,,,,,,,,,,,,
298186,2022-11-14_09h33.04.705,vts_reward_expectancy_bt,2022.2.4,Win32,4.001008254,Chrome,1536,864,,,a,2.0756,1,101,0,1,7,19,5,1,0,1,0,0,0,0,0,1,circle,star,,,,,,,,,,,,,,,,,,,,,,,,,,,,,,,,,,,,,,,,,,,,,,,,,,,,,,
298186,2022-11-14_09h33.04.705,vts_reward_expectancy_bt,2022.2.4,Win32,4.001008254,Chrome,1536,864,,,a,2.4664,1,102,0,1,8,20,10,1,0,0,0,1,0,1,0,0,star ,circle,,,,,,,,,,,,,,,,,,,,,,,,,,,,,,,,,,,,,,,,,,,,,,,,,,,,,,
298186,2022-11-14_09h33.04.705,vts_reward_expectancy_bt,2022.2.4,Win32,4.001008254,Chrome,1536,864,,,l,3.7954,1,103,0,1,9,21,1,1,1,0,0,0,0,0,1,0,triangle,hexagon,,,,,,,,,,,,,,,,,,,,,,,,,,,,,,,,,,,,,,,,,,,,,,,,,,,,,,
298186,2022-11-14_09h33.04.705,vts_reward_expectancy_bt,2022.2.4,Win32,4.001008254,Chrome,1536,864,,,l,1.496,10,113,0,1,10,22,8,1,0,0,1,0,0,0,0,1,hexagon,star,,,,,,,,,,,,,,,,,,,,,,,,,,,,,,,,,,,,,,,,,,,,,,,,,,,,,,
298186,2022-11-14_09h33.04.705,vts_reward_expectancy_bt,2022.2.4,Win32,4.001008254,Chrome,1536,864,,,l,1.2193,1,114,0,1,11,23,2,1,1,0,0,0,0,0,0,1,triangle,star,,,,,,,,,,,,,,,,,,,,,,,,,,,,,,,,,,,,,,,,,,,,,,,,,,,,,,
298186,2022-11-14_09h33.04.705,vts_reward_expectancy_bt,2022.2.4,Win32,4.001008254,Chrome,1536,864,,,a,1.4743,10,124,0,2,0,24,0,1,1,0,0,0,0,1,0,0,triangle,circle,,,,,,,,,,,,,,,,,,,,,,,,,,,,,,,,,,,,,,,,,,,,,,,,,,,,,,
298186,2022-11-14_09h33.04.705,vts_reward_expectancy_bt,2022.2.4,Win32,4.001008254,Chrome,1536,864,,,l,2.9353,1,125,0,2,1,25,4,1,0,1,0,0,0,0,1,0,circle,hexagon,,,,,,,,,,,,,,,,,,,,,,,,,,,,,,,,,,,,,,,,,,,,,,,,,,,,,,
298186,2022-11-14_09h33.04.705,vts_reward_expectancy_bt,2022.2.4,Win32,4.001008254,Chrome,1536,864,,,l,1.503,10,135,0,2,2,26,11,1,0,0,0,1,0,0,1,0,star,hexagon,,,,,,,,,,,,,,,,,,,,,,,,,,,,,,,,,,,,,,,,,,,,,,,,,,,,,,
298186,2022-11-14_09h33.04.705,vts_reward_expectancy_bt,2022.2.4,Win32,4.001008254,Chrome,1536,864,,,a,0.876,10,145,0,2,3,27,3,1,0,1,0,0,1,0,0,0,circle,triangle,,,,,,,,,,,,,,,,,,,,,,,,,,,,,,,,,,,,,,,,,,,,,,,,,,,,,,
298186,2022-11-14_09h33.04.705,vts_reward_expectancy_bt,2022.2.4,Win32,4.001008254,Chrome,1536,864,,,a,1.2332,1,146,0,2,4,28,2,1,1,0,0,0,0,0,0,1,triangle,star,,,,,,,,,,,,,,,,,,,,,,,,,,,,,,,,,,,,,,,,,,,,,,,,,,,,,,
298186,2022-11-14_09h33.04.705,vts_reward_expectancy_bt,2022.2.4,Win32,4.001008254,Chrome,1536,864,,,l,0.6282,10,156,0,2,5,29,6,1,0,0,1,0,1,0,0,0,hexagon,triangle,,,,,,,,,,,,,,,,,,,,,,,,,,,,,,,,,,,,,,,,,,,,,,,,,,,,,,
298186,2022-11-14_09h33.04.705,vts_reward_expectancy_bt,2022.2.4,Win32,4.001008254,Chrome,1536,864,,,a,0.6101,10,166,0,2,6,30,9,1,0,0,0,1,1,0,0,0,star,triangle,,,,,,,,,,,,,,,,,,,,,,,,,,,,,,,,,,,,,,,,,,,,,,,,,,,,,,
298186,2022-11-14_09h33.04.705,vts_reward_expectancy_bt,2022.2.4,Win32,4.001008254,Chrome,1536,864,,,l,0.8706,1,167,0,2,7,31,1,1,1,0,0,0,0,0,1,0,triangle,hexagon,,,,,,,,,,,,,,,,,,,,,,,,,,,,,,,,,,,,,,,,,,,,,,,,,,,,,,
298186,2022-11-14_09h33.04.705,vts_reward_expectancy_bt,2022.2.4,Win32,4.001008254,Chrome,1536,864,,,l,0.6379,10,177,0,2,8,32,5,1,0,1,0,0,0,0,0,1,circle,star,,,,,,,,,,,,,,,,,,,,,,,,,,,,,,,,,,,,,,,,,,,,,,,,,,,,,,
298186,2022-11-14_09h33.04.705,vts_reward_expectancy_bt,2022.2.4,Win32,4.001008254,Chrome,1536,864,,,a,0.6212,1,178,0,2,9,33,8,1,0,0,1,0,0,0,0,1,hexagon,star,,,,,,,,,,,,,,,,,,,,,,,,,,,,,,,,,,,,,,,,,,,,,,,,,,,,,,
298186,2022-11-14_09h33.04.705,vts_reward_expectancy_bt,2022.2.4,Win32,4.001008254,Chrome,1536,864,,,a,0.0323,1,179,0,2,10,34,7,1,0,0,1,0,0,1,0,0,hexagon,circle,,,,,,,,,,,,,,,,,,,,,,,,,,,,,,,,,,,,,,,,,,,,,,,,,,,,,,
298186,2022-11-14_09h33.04.705,vts_reward_expectancy_bt,2022.2.4,Win32,4.001008254,Chrome,1536,864,,,l,0.5979,10,189,0,2,11,35,10,1,0,0,0,1,0,1,0,0,star ,circle,,,,,,,,,,,,,,,,,,,,,,,,,,,,,,,,,,,,,,,,,,,,,,,,,,,,,,
298186,2022-11-14_09h33.04.705,vts_reward_expectancy_bt,2022.2.4,Win32,4.001008254,Chrome,1536,864,,,a,0.9968,1,190,1,0,0,0,6,1,0,0,1,0,1,0,0,0,hexagon,triangle,,,,,,,,,,,,,,,,,,,,,,,,,,,,,,,,,,,,,,,,,,,,,,,,,,,,,,
298186,2022-11-14_09h33.04.705,vts_reward_expectancy_bt,2022.2.4,Win32,4.001008254,Chrome,1536,864,,,l,0.6092,10,200,1,0,1,1,9,1,0,0,0,1,1,0,0,0,star,triangle,,,,,,,,,,,,,,,,,,,,,,,,,,,,,,,,,,,,,,,,,,,,,,,,,,,,,,
298186,2022-11-14_09h33.04.705,vts_reward_expectancy_bt,2022.2.4,Win32,4.001008254,Chrome,1536,864,,,a,1.1973,10,210,1,0,2,2,2,1,1,0,0,0,0,0,0,1,triangle,star,,,,,,,,,,,,,,,,,,,,,,,,,,,,,,,,,,,,,,,,,,,,,,,,,,,,,,
298186,2022-11-14_09h33.04.705,vts_reward_expectancy_bt,2022.2.4,Win32,4.001008254,Chrome,1536,864,,,l,0.9305,10,220,1,0,3,3,4,1,0,1,0,0,0,0,1,0,circle,hexagon,,,,,,,,,,,,,,,,,,,,,,,,,,,,,,,,,,,,,,,,,,,,,,,,,,,,,,
298186,2022-11-14_09h33.04.705,vts_reward_expectancy_bt,2022.2.4,Win32,4.001008254,Chrome,1536,864,,,l,1.2138,10,230,1,0,4,4,1,1,1,0,0,0,0,0,1,0,triangle,hexagon,,,,,,,,,,,,,,,,,,,,,,,,,,,,,,,,,,,,,,,,,,,,,,,,,,,,,,
298186,2022-11-14_09h33.04.705,vts_reward_expectancy_bt,2022.2.4,Win32,4.001008254,Chrome,1536,864,,,a,1.5031,10,240,1,0,5,5,11,1,0,0,0,1,0,0,1,0,star,hexagon,,,,,,,,,,,,,,,,,,,,,,,,,,,,,,,,,,,,,,,,,,,,,,,,,,,,,,
298186,2022-11-14_09h33.04.705,vts_reward_expectancy_bt,2022.2.4,Win32,4.001008254,Chrome,1536,864,,,a,1.2059,10,250,1,0,6,6,5,1,0,1,0,0,0,0,0,1,circle,star,,,,,,,,,,,,,,,,,,,,,,,,,,,,,,,,,,,,,,,,,,,,,,,,,,,,,,
298186,2022-11-14_09h33.04.705,vts_reward_expectancy_bt,2022.2.4,Win32,4.001008254,Chrome,1536,864,,,l,1.502,1,251,1,0,7,7,7,1,0,0,1,0,0,1,0,0,hexagon,circle,,,,,,,,,,,,,,,,,,,,,,,,,,,,,,,,,,,,,,,,,,,,,,,,,,,,,,
298186,2022-11-14_09h33.04.705,vts_reward_expectancy_bt,2022.2.4,Win32,4.001008254,Chrome,1536,864,,,l,1.2129,1,252,1,0,8,8,0,1,1,0,0,0,0,1,0,0,triangle,circle,,,,,,,,,,,,,,,,,,,,,,,,,,,,,,,,,,,,,,,,,,,,,,,,,,,,,,
298186,2022-11-14_09h33.04.705,vts_reward_expectancy_bt,2022.2.4,Win32,4.001008254,Chrome,1536,864,,,a,0.9091,1,253,1,0,9,9,10,1,0,0,0,1,0,1,0,0,star ,circle,,,,,,,,,,,,,,,,,,,,,,,,,,,,,,,,,,,,,,,,,,,,,,,,,,,,,,
298186,2022-11-14_09h33.04.705,vts_reward_expectancy_bt,2022.2.4,Win32,4.001008254,Chrome,1536,864,,,a,0.8835,10,263,1,0,10,10,3,1,0,1,0,0,1,0,0,0,circle,triangle,,,,,,,,,,,,,,,,,,,,,,,,,,,,,,,,,,,,,,,,,,,,,,,,,,,,,,
298186,2022-11-14_09h33.04.705,vts_reward_expectancy_bt,2022.2.4,Win32,4.001008254,Chrome,1536,864,,,l,1.1806,1,264,1,0,11,11,8,1,0,0,1,0,0,0,0,1,hexagon,star,,,,,,,,,,,,,,,,,,,,,,,,,,,,,,,,,,,,,,,,,,,,,,,,,,,,,,
298186,2022-11-14_09h33.04.705,vts_reward_expectancy_bt,2022.2.4,Win32,4.001008254,Chrome,1536,864,,,a,0.6272,10,274,1,1,0,12,3,1,0,1,0,0,1,0,0,0,circle,triangle,,,,,,,,,,,,,,,,,,,,,,,,,,,,,,,,,,,,,,,,,,,,,,,,,,,,,,
298186,2022-11-14_09h33.04.705,vts_reward_expectancy_bt,2022.2.4,Win32,4.001008254,Chrome,1536,864,,,a,1.2127,10,284,1,1,1,13,1,1,1,0,0,0,0,0,1,0,triangle,hexagon,,,,,,,,,,,,,,,,,,,,,,,,,,,,,,,,,,,,,,,,,,,,,,,,,,,,,,
298186,2022-11-14_09h33.04.705,vts_reward_expectancy_bt,2022.2.4,Win32,4.001008254,Chrome,1536,864,,,l,0.619,1,285,1,1,2,14,0,1,1,0,0,0,0,1,0,0,triangle,circle,,,,,,,,,,,,,,,,,,,,,,,,,,,,,,,,,,,,,,,,,,,,,,,,,,,,,,
298186,2022-11-14_09h33.04.705,vts_reward_expectancy_bt,2022.2.4,Win32,4.001008254,Chrome,1536,864,,,a,0.6415,10,295,1,1,3,15,8,1,0,0,1,0,0,0,0,1,hexagon,star,,,,,,,,,,,,,,,,,,,,,,,,,,,,,,,,,,,,,,,,,,,,,,,,,,,,,,
298186,2022-11-14_09h33.04.705,vts_reward_expectancy_bt,2022.2.4,Win32,4.001008254,Chrome,1536,864,,,a,1.4831,1,296,1,1,4,16,9,1,0,0,0,1,1,0,0,0,star,triangle,,,,,,,,,,,,,,,,,,,,,,,,,,,,,,,,,,,,,,,,,,,,,,,,,,,,,,
298186,2022-11-14_09h33.04.705,vts_reward_expectancy_bt,2022.2.4,Win32,4.001008254,Chrome,1536,864,,,l,0.6449,10,306,1,1,5,17,11,1,0,0,0,1,0,0,1,0,star,hexagon,,,,,,,,,,,,,,,,,,,,,,,,,,,,,,,,,,,,,,,,,,,,,,,,,,,,,,
298186,2022-11-14_09h33.04.705,vts_reward_expectancy_bt,2022.2.4,Win32,4.001008254,Chrome,1536,864,,,l,0.6011,1,307,1,1,6,18,2,1,1,0,0,0,0,0,0,1,triangle,star,,,,,,,,,,,,,,,,,,,,,,,,,,,,,,,,,,,,,,,,,,,,,,,,,,,,,,
298186,2022-11-14_09h33.04.705,vts_reward_expectancy_bt,2022.2.4,Win32,4.001008254,Chrome,1536,864,,,l,0.6037,10,317,1,1,7,19,6,1,0,0,1,0,1,0,0,0,hexagon,triangle,,,,,,,,,,,,,,,,,,,,,,,,,,,,,,,,,,,,,,,,,,,,,,,,,,,,,,
298186,2022-11-14_09h33.04.705,vts_reward_expectancy_bt,2022.2.4,Win32,4.001008254,Chrome,1536,864,,,a,0.6433,10,327,1,1,8,20,5,1,0,1,0,0,0,0,0,1,circle,star,,,,,,,,,,,,,,,,,,,,,,,,,,,,,,,,,,,,,,,,,,,,,,,,,,,,,,
298186,2022-11-14_09h33.04.705,vts_reward_expectancy_bt,2022.2.4,Win32,4.001008254,Chrome,1536,864,,,l,0.6298,1,328,1,1,9,21,7,1,0,0,1,0,0,1,0,0,hexagon,circle,,,,,,,,,,,,,,,,,,,,,,,,,,,,,,,,,,,,,,,,,,,,,,,,,,,,,,
298186,2022-11-14_09h33.04.705,vts_reward_expectancy_bt,2022.2.4,Win32,4.001008254,Chrome,1536,864,,,a,0.3183,10,338,1,1,10,22,4,1,0,1,0,0,0,0,1,0,circle,hexagon,,,,,,,,,,,,,,,,,,,,,,,,,,,,,,,,,,,,,,,,,,,,,,,,,,,,,,
298186,2022-11-14_09h33.04.705,vts_reward_expectancy_bt,2022.2.4,Win32,4.001008254,Chrome,1536,864,,,l,0.5893,10,348,1,1,11,23,10,1,0,0,0,1,0,1,0,0,star ,circle,,,,,,,,,,,,,,,,,,,,,,,,,,,,,,,,,,,,,,,,,,,,,,,,,,,,,,
298186,2022-11-14_09h33.04.705,vts_reward_expectancy_bt,2022.2.4,Win32,4.001008254,Chrome,1536,864,,,l,0.6407,10,358,1,2,0,24,10,1,0,0,0,1,0,1,0,0,star ,circle,,,,,,,,,,,,,,,,,,,,,,,,,,,,,,,,,,,,,,,,,,,,,,,,,,,,,,
298186,2022-11-14_09h33.04.705,vts_reward_expectancy_bt,2022.2.4,Win32,4.001008254,Chrome,1536,864,,,a,0.6351,1,359,1,2,1,25,5,1,0,1,0,0,0,0,0,1,circle,star,,,,,,,,,,,,,,,,,,,,,,,,,,,,,,,,,,,,,,,,,,,,,,,,,,,,,,
298186,2022-11-14_09h33.04.705,vts_reward_expectancy_bt,2022.2.4,Win32,4.001008254,Chrome,1536,864,,,a,0.3082,10,369,1,2,2,26,0,1,1,0,0,0,0,1,0,0,triangle,circle,,,,,,,,,,,,,,,,,,,,,,,,,,,,,,,,,,,,,,,,,,,,,,,,,,,,,,
298186,2022-11-14_09h33.04.705,vts_reward_expectancy_bt,2022.2.4,Win32,4.001008254,Chrome,1536,864,,,a,0.678,10,379,1,2,3,27,3,1,0,1,0,0,1,0,0,0,circle,triangle,,,,,,,,,,,,,,,,,,,,,,,,,,,,,,,,,,,,,,,,,,,,,,,,,,,,,,
298186,2022-11-14_09h33.04.705,vts_reward_expectancy_bt,2022.2.4,Win32,4.001008254,Chrome,1536,864,,,l,1.1965,10,389,1,2,4,28,6,1,0,0,1,0,1,0,0,0,hexagon,triangle,,,,,,,,,,,,,,,,,,,,,,,,,,,,,,,,,,,,,,,,,,,,,,,,,,,,,,
298186,2022-11-14_09h33.04.705,vts_reward_expectancy_bt,2022.2.4,Win32,4.001008254,Chrome,1536,864,,,a,0.649,10,399,1,2,5,29,2,1,1,0,0,0,0,0,0,1,triangle,star,,,,,,,,,,,,,,,,,,,,,,,,,,,,,,,,,,,,,,,,,,,,,,,,,,,,,,
298186,2022-11-14_09h33.04.705,vts_reward_expectancy_bt,2022.2.4,Win32,4.001008254,Chrome,1536,864,,,a,0.625,10,409,1,2,6,30,11,1,0,0,0,1,0,0,1,0,star,hexagon,,,,,,,,,,,,,,,,,,,,,,,,,,,,,,,,,,,,,,,,,,,,,,,,,,,,,,
298186,2022-11-14_09h33.04.705,vts_reward_expectancy_bt,2022.2.4,Win32,4.001008254,Chrome,1536,864,,,l,0.5998,10,419,1,2,7,31,1,1,1,0,0,0,0,0,1,0,triangle,hexagon,,,,,,,,,,,,,,,,,,,,,,,,,,,,,,,,,,,,,,,,,,,,,,,,,,,,,,
298186,2022-11-14_09h33.04.705,vts_reward_expectancy_bt,2022.2.4,Win32,4.001008254,Chrome,1536,864,,,l,0.6042,10,429,1,2,8,32,7,1,0,0,1,0,0,1,0,0,hexagon,circle,,,,,,,,,,,,,,,,,,,,,,,,,,,,,,,,,,,,,,,,,,,,,,,,,,,,,,
298186,2022-11-14_09h33.04.705,vts_reward_expectancy_bt,2022.2.4,Win32,4.001008254,Chrome,1536,864,,,a,0.3148,1,430,1,2,9,33,4,1,0,1,0,0,0,0,1,0,circle,hexagon,,,,,,,,,,,,,,,,,,,,,,,,,,,,,,,,,,,,,,,,,,,,,,,,,,,,,,
298186,2022-11-14_09h33.04.705,vts_reward_expectancy_bt,2022.2.4,Win32,4.001008254,Chrome,1536,864,,,a,0.6044,10,440,1,2,10,34,9,1,0,0,0,1,1,0,0,0,star,triangle,,,,,,,,,,,,,,,,,,,,,,,,,,,,,,,,,,,,,,,,,,,,,,,,,,,,,,
298186,2022-11-14_09h33.04.705,vts_reward_expectancy_bt,2022.2.4,Win32,4.001008254,Chrome,1536,864,,,a,0.5928,1,441,1,2,11,35,8,1,0,0,1,0,0,0,0,1,hexagon,star,,,,,,,,,,,,,,,,,,,,,,,,,,,,,,,,,,,,,,,,,,,,,,,,,,,,,,
298186,2022-11-14_09h33.04.705,vts_reward_expectancy_bt,2022.2.4,Win32,4.001008254,Chrome,1536,864,,,l,1.15,10,451,2,0,0,0,11,1,0,0,0,1,0,0,1,0,star,hexagon,,,,,,,,,,,,,,,,,,,,,,,,,,,,,,,,,,,,,,,,,,,,,,,,,,,,,,
298186,2022-11-14_09h33.04.705,vts_reward_expectancy_bt,2022.2.4,Win32,4.001008254,Chrome,1536,864,,,l,0.6326,1,452,2,0,1,1,6,1,0,0,1,0,1,0,0,0,hexagon,triangle,,,,,,,,,,,,,,,,,,,,,,,,,,,,,,,,,,,,,,,,,,,,,,,,,,,,,,
298186,2022-11-14_09h33.04.705,vts_reward_expectancy_bt,2022.2.4,Win32,4.001008254,Chrome,1536,864,,,l,0.668,1,453,2,0,2,2,4,1,0,1,0,0,0,0,1,0,circle,hexagon,,,,,,,,,,,,,,,,,,,,,,,,,,,,,,,,,,,,,,,,,,,,,,,,,,,,,,
298186,2022-11-14_09h33.04.705,vts_reward_expectancy_bt,2022.2.4,Win32,4.001008254,Chrome,1536,864,,,a,0.3373,1,454,2,0,3,3,1,1,1,0,0,0,0,0,1,0,triangle,hexagon,,,,,,,,,,,,,,,,,,,,,,,,,,,,,,,,,,,,,,,,,,,,,,,,,,,,,,
298186,2022-11-14_09h33.04.705,vts_reward_expectancy_bt,2022.2.4,Win32,4.001008254,Chrome,1536,864,,,a,0.0335,1,455,2,0,4,4,10,1,0,0,0,1,0,1,0,0,star ,circle,,,,,,,,,,,,,,,,,,,,,,,,,,,,,,,,,,,,,,,,,,,,,,,,,,,,,,
298186,2022-11-14_09h33.04.705,vts_reward_expectancy_bt,2022.2.4,Win32,4.001008254,Chrome,1536,864,,,l,0.5921,1,456,2,0,5,5,8,1,0,0,1,0,0,0,0,1,hexagon,star,,,,,,,,,,,,,,,,,,,,,,,,,,,,,,,,,,,,,,,,,,,,,,,,,,,,,,
298186,2022-11-14_09h33.04.705,vts_reward_expectancy_bt,2022.2.4,Win32,4.001008254,Chrome,1536,864,,,l,0.593,1,457,2,0,6,6,9,1,0,0,0,1,1,0,0,0,star,triangle,,,,,,,,,,,,,,,,,,,,,,,,,,,,,,,,,,,,,,,,,,,,,,,,,,,,,,
298186,2022-11-14_09h33.04.705,vts_reward_expectancy_bt,2022.2.4,Win32,4.001008254,Chrome,1536,864,,,l,0.6271,10,467,2,0,7,7,2,1,1,0,0,0,0,0,0,1,triangle,star,,,,,,,,,,,,,,,,,,,,,,,,,,,,,,,,,,,,,,,,,,,,,,,,,,,,,,
298186,2022-11-14_09h33.04.705,vts_reward_expectancy_bt,2022.2.4,Win32,4.001008254,Chrome,1536,864,,,l,0.6466,1,468,2,0,8,8,7,1,0,0,1,0,0,1,0,0,hexagon,circle,,,,,,,,,,,,,,,,,,,,,,,,,,,,,,,,,,,,,,,,,,,,,,,,,,,,,,
298186,2022-11-14_09h33.04.705,vts_reward_expectancy_bt,2022.2.4,Win32,4.001008254,Chrome,1536,864,,,a,0.6246,1,469,2,0,9,9,3,1,0,1,0,0,1,0,0,0,circle,triangle,,,,,,,,,,,,,,,,,,,,,,,,,,,,,,,,,,,,,,,,,,,,,,,,,,,,,,
298186,2022-11-14_09h33.04.705,vts_reward_expectancy_bt,2022.2.4,Win32,4.001008254,Chrome,1536,864,,,a,0.9598,10,479,2,0,10,10,5,1,0,1,0,0,0,0,0,1,circle,star,,,,,,,,,,,,,,,,,,,,,,,,,,,,,,,,,,,,,,,,,,,,,,,,,,,,,,
298186,2022-11-14_09h33.04.705,vts_reward_expectancy_bt,2022.2.4,Win32,4.001008254,Chrome,1536,864,,,a,1.1989,10,489,2,0,11,11,0,1,1,0,0,0,0,1,0,0,triangle,circle,,,,,,,,,,,,,,,,,,,,,,,,,,,,,,,,,,,,,,,,,,,,,,,,,,,,,,
298186,2022-11-14_09h33.04.705,vts_reward_expectancy_bt,2022.2.4,Win32,4.001008254,Chrome,1536,864,,,l,0.8865,1,490,2,1,0,12,11,1,0,0,0,1,0,0,1,0,star,hexagon,,,,,,,,,,,,,,,,,,,,,,,,,,,,,,,,,,,,,,,,,,,,,,,,,,,,,,
298186,2022-11-14_09h33.04.705,vts_reward_expectancy_bt,2022.2.4,Win32,4.001008254,Chrome,1536,864,,,l,0.9345,1,491,2,1,1,13,4,1,0,1,0,0,0,0,1,0,circle,hexagon,,,,,,,,,,,,,,,,,,,,,,,,,,,,,,,,,,,,,,,,,,,,,,,,,,,,,,
298186,2022-11-14_09h33.04.705,vts_reward_expectancy_bt,2022.2.4,Win32,4.001008254,Chrome,1536,864,,,a,0.8997,10,501,2,1,2,14,1,1,1,0,0,0,0,0,1,0,triangle,hexagon,,,,,,,,,,,,,,,,,,,,,,,,,,,,,,,,,,,,,,,,,,,,,,,,,,,,,,
298186,2022-11-14_09h33.04.705,vts_reward_expectancy_bt,2022.2.4,Win32,4.001008254,Chrome,1536,864,,,a,0.6468,10,511,2,1,3,15,8,1,0,0,1,0,0,0,0,1,hexagon,star,,,,,,,,,,,,,,,,,,,,,,,,,,,,,,,,,,,,,,,,,,,,,,,,,,,,,,
298186,2022-11-14_09h33.04.705,vts_reward_expectancy_bt,2022.2.4,Win32,4.001008254,Chrome,1536,864,,,l,0.3238,10,521,2,1,4,16,3,1,0,1,0,0,1,0,0,0,circle,triangle,,,,,,,,,,,,,,,,,,,,,,,,,,,,,,,,,,,,,,,,,,,,,,,,,,,,,,
298186,2022-11-14_09h33.04.705,vts_reward_expectancy_bt,2022.2.4,Win32,4.001008254,Chrome,1536,864,,,a,0.6345,10,531,2,1,5,17,6,1,0,0,1,0,1,0,0,0,hexagon,triangle,,,,,,,,,,,,,,,,,,,,,,,,,,,,,,,,,,,,,,,,,,,,,,,,,,,,,,
298186,2022-11-14_09h33.04.705,vts_reward_expectancy_bt,2022.2.4,Win32,4.001008254,Chrome,1536,864,,,l,0.9351,10,541,2,1,6,18,5,1,0,1,0,0,0,0,0,1,circle,star,,,,,,,,,,,,,,,,,,,,,,,,,,,,,,,,,,,,,,,,,,,,,,,,,,,,,,
298186,2022-11-14_09h33.04.705,vts_reward_expectancy_bt,2022.2.4,Win32,4.001008254,Chrome,1536,864,,,l,0.6287,10,551,2,1,7,19,2,1,1,0,0,0,0,0,0,1,triangle,star,,,,,,,,,,,,,,,,,,,,,,,,,,,,,,,,,,,,,,,,,,,,,,,,,,,,,,
298186,2022-11-14_09h33.04.705,vts_reward_expectancy_bt,2022.2.4,Win32,4.001008254,Chrome,1536,864,,,a,0.5954,1,552,2,1,8,20,0,1,1,0,0,0,0,1,0,0,triangle,circle,,,,,,,,,,,,,,,,,,,,,,,,,,,,,,,,,,,,,,,,,,,,,,,,,,,,,,
298186,2022-11-14_09h33.04.705,vts_reward_expectancy_bt,2022.2.4,Win32,4.001008254,Chrome,1536,864,,,l,0.6446,1,553,2,1,9,21,10,1,0,0,0,1,0,1,0,0,star ,circle,,,,,,,,,,,,,,,,,,,,,,,,,,,,,,,,,,,,,,,,,,,,,,,,,,,,,,
298186,2022-11-14_09h33.04.705,vts_reward_expectancy_bt,2022.2.4,Win32,4.001008254,Chrome,1536,864,,,a,0.8796,1,554,2,1,10,22,9,1,0,0,0,1,1,0,0,0,star,triangle,,,,,,,,,,,,,,,,,,,,,,,,,,,,,,,,,,,,,,,,,,,,,,,,,,,,,,
298186,2022-11-14_09h33.04.705,vts_reward_expectancy_bt,2022.2.4,Win32,4.001008254,Chrome,1536,864,,,a,0.9171,10,564,2,1,11,23,7,1,0,0,1,0,0,1,0,0,hexagon,circle,,,,,,,,,,,,,,,,,,,,,,,,,,,,,,,,,,,,,,,,,,,,,,,,,,,,,,
298186,2022-11-14_09h33.04.705,vts_reward_expectancy_bt,2022.2.4,Win32,4.001008254,Chrome,1536,864,,,a,1.2087,10,574,2,2,0,24,9,1,0,0,0,1,1,0,0,0,star,triangle,,,,,,,,,,,,,,,,,,,,,,,,,,,,,,,,,,,,,,,,,,,,,,,,,,,,,,
298186,2022-11-14_09h33.04.705,vts_reward_expectancy_bt,2022.2.4,Win32,4.001008254,Chrome,1536,864,,,a,0.945,10,584,2,2,1,25,3,1,0,1,0,0,1,0,0,0,circle,triangle,,,,,,,,,,,,,,,,,,,,,,,,,,,,,,,,,,,,,,,,,,,,,,,,,,,,,,
298186,2022-11-14_09h33.04.705,vts_reward_expectancy_bt,2022.2.4,Win32,4.001008254,Chrome,1536,864,,,a,0.8787,10,594,2,2,2,26,5,1,0,1,0,0,0,0,0,1,circle,star,,,,,,,,,,,,,,,,,,,,,,,,,,,,,,,,,,,,,,,,,,,,,,,,,,,,,,
298186,2022-11-14_09h33.04.705,vts_reward_expectancy_bt,2022.2.4,Win32,4.001008254,Chrome,1536,864,,,a,0.6516,1,595,2,2,3,27,0,1,1,0,0,0,0,1,0,0,triangle,circle,,,,,,,,,,,,,,,,,,,,,,,,,,,,,,,,,,,,,,,,,,,,,,,,,,,,,,
298186,2022-11-14_09h33.04.705,vts_reward_expectancy_bt,2022.2.4,Win32,4.001008254,Chrome,1536,864,,,l,0.9127,10,605,2,2,4,28,6,1,0,0,1,0,1,0,0,0,hexagon,triangle,,,,,,,,,,,,,,,,,,,,,,,,,,,,,,,,,,,,,,,,,,,,,,,,,,,,,,
298186,2022-11-14_09h33.04.705,vts_reward_expectancy_bt,2022.2.4,Win32,4.001008254,Chrome,1536,864,,,l,0.5929,10,615,2,2,5,29,2,1,1,0,0,0,0,0,0,1,triangle,star,,,,,,,,,,,,,,,,,,,,,,,,,,,,,,,,,,,,,,,,,,,,,,,,,,,,,,
298186,2022-11-14_09h33.04.705,vts_reward_expectancy_bt,2022.2.4,Win32,4.001008254,Chrome,1536,864,,,l,1.2651,1,616,2,2,6,30,1,1,1,0,0,0,0,0,1,0,triangle,hexagon,,,,,,,,,,,,,,,,,,,,,,,,,,,,,,,,,,,,,,,,,,,,,,,,,,,,,,
298186,2022-11-14_09h33.04.705,vts_reward_expectancy_bt,2022.2.4,Win32,4.001008254,Chrome,1536,864,,,a,0.6026,1,617,2,2,7,31,10,1,0,0,0,1,0,1,0,0,star ,circle,,,,,,,,,,,,,,,,,,,,,,,,,,,,,,,,,,,,,,,,,,,,,,,,,,,,,,
298186,2022-11-14_09h33.04.705,vts_reward_expectancy_bt,2022.2.4,Win32,4.001008254,Chrome,1536,864,,,l,0.6329,10,627,2,2,8,32,11,1,0,0,0,1,0,0,1,0,star,hexagon,,,,,,,,,,,,,,,,,,,,,,,,,,,,,,,,,,,,,,,,,,,,,,,,,,,,,,
298186,2022-11-14_09h33.04.705,vts_reward_expectancy_bt,2022.2.4,Win32,4.001008254,Chrome,1536,864,,,a,1.2053,1,628,2,2,9,33,8,1,0,0,1,0,0,0,0,1,hexagon,star,,,,,,,,,,,,,,,,,,,,,,,,,,,,,,,,,,,,,,,,,,,,,,,,,,,,,,
298186,2022-11-14_09h33.04.705,vts_reward_expectancy_bt,2022.2.4,Win32,4.001008254,Chrome,1536,864,,,l,0.6113,10,638,2,2,10,34,7,1,0,0,1,0,0,1,0,0,hexagon,circle,,,,,,,,,,,,,,,,,,,,,,,,,,,,,,,,,,,,,,,,,,,,,,,,,,,,,,
298186,2022-11-14_09h33.04.705,vts_reward_expectancy_bt,2022.2.4,Win32,4.001008254,Chrome,1536,864,,,l,0.898,1,639,2,2,11,35,4,1,0,1,0,0,0,0,1,0,circle,hexagon,,,,,,,,,,,,,,,,,,,,,,,,,,,,,,,,,,,,,,,,,,,,,,,,,,,,,,
298186,2022-11-14_09h33.04.705,vts_reward_expectancy_bt,2022.2.4,Win32,4.001008254,Chrome,1536,864,,,,,,,,,,,,,,,,,,,,,,,Y,181,star,1,0,f,1.5068,0,0,0,0,0,1,,,,,,,,,,,,,,,,,,,,,,,,,,,,,,,,,,,,,,,,,
298186,2022-11-14_09h33.04.705,vts_reward_expectancy_bt,2022.2.4,Win32,4.001008254,Chrome,1536,864,,,,,,,,,,,,,,,,,,,,,,,B,139,hexagon,1,0,d,0.9432,0,1,0,1,0,1,,,,,,,,,,,,,,,,,,,,,,,,,,,,,,,,,,,,,,,,,
298186,2022-11-14_09h33.04.705,vts_reward_expectancy_bt,2022.2.4,Win32,4.001008254,Chrome,1536,864,,,,,,,,,,,,,,,,,,,,,,,W,146,triangle,1,0,f,0.9309,0,2,0,2,0,1,,,,,,,,,,,,,,,,,,,,,,,,,,,,,,,,,,,,,,,,,
298186,2022-11-14_09h33.04.705,vts_reward_expectancy_bt,2022.2.4,Win32,4.001008254,Chrome,1536,864,,,,,,,,,,,,,,,,,,,,,,,F,174,circle,1,0,d,0.91,0,3,0,3,0,1,,,,,,,,,,,,,,,,,,,,,,,,,,,,,,,,,,,,,,,,,
298186,2022-11-14_09h33.04.705,vts_reward_expectancy_bt,2022.2.4,Win32,4.001008254,Chrome,1536,864,,,,,,,,,,,,,,,,,,,,,,,U,160,star,1,0,f,0.9165,0,4,0,4,0,1,,,,,,,,,,,,,,,,,,,,,,,,,,,,,,,,,,,,,,,,,
298186,2022-11-14_09h33.04.705,vts_reward_expectancy_bt,2022.2.4,Win32,4.001008254,Chrome,1536,864,,,,,,,,,,,,,,,,,,,,,,,D,167,hexagon,1,0,d,0.926,0,5,0,5,0,1,,,,,,,,,,,,,,,,,,,,,,,,,,,,,,,,,,,,,,,,,
298186,2022-11-14_09h33.04.705,vts_reward_expectancy_bt,2022.2.4,Win32,4.001008254,Chrome,1536,864,,,,,,,,,,,,,,,,,,,,,,,S,125,triangle,1,0,f,0.8669,0,6,0,6,0,1,,,,,,,,,,,,,,,,,,,,,,,,,,,,,,,,,,,,,,,,,
298186,2022-11-14_09h33.04.705,vts_reward_expectancy_bt,2022.2.4,Win32,4.001008254,Chrome,1536,864,,,,,,,,,,,,,,,,,,,,,,,H,132,circle,1,0,d,0.9249,0,7,0,7,0,1,,,,,,,,,,,,,,,,,,,,,,,,,,,,,,,,,,,,,,,,,
298186,2022-11-14_09h33.04.705,vts_reward_expectancy_bt,2022.2.4,Win32,4.001008254,Chrome,1536,864,,,,,,,,,,,,,,,,,,,,,,,Y,181,hexagon,1,0,f,0.9295,0,8,0,8,0,1,,,,,,,,,,,,,,,,,,,,,,,,,,,,,,,,,,,,,,,,,
298186,2022-11-14_09h33.04.705,vts_reward_expectancy_bt,2022.2.4,Win32,4.001008254,Chrome,1536,864,,,,,,,,,,,,,,,,,,,,,,,B,139,star,1,0,d,0.9184,0,9,0,9,0,1,,,,,,,,,,,,,,,,,,,,,,,,,,,,,,,,,,,,,,,,,
298186,2022-11-14_09h33.04.705,vts_reward_expectancy_bt,2022.2.4,Win32,4.001008254,Chrome,1536,864,,,,,,,,,,,,,,,,,,,,,,,S,181,triangle,1,0,,,1,,,,,,k,1.178,0,0,0,0,1,,,,,,,,,,,,,,,,,,,,,,,,,,,,,,,,,,
298186,2022-11-14_09h33.04.705,vts_reward_expectancy_bt,2022.2.4,Win32,4.001008254,Chrome,1536,864,,,,,,,,,,,,,,,,,,,,,,,Y,146,circle,1,0,,,1,,,,,,j,1.2523,1,0,1,0,1,,,,,,,,,,,,,,,,,,,,,,,,,,,,,,,,,,
298186,2022-11-14_09h33.04.705,vts_reward_expectancy_bt,2022.2.4,Win32,4.001008254,Chrome,1536,864,,,,,,,,,,,,,,,,,,,,,,,H,139,hexagon,1,0,,,1,,,,,,j,0.9167,2,0,2,0,1,,,,,,,,,,,,,,,,,,,,,,,,,,,,,,,,,,
298186,2022-11-14_09h33.04.705,vts_reward_expectancy_bt,2022.2.4,Win32,4.001008254,Chrome,1536,864,,,,,,,,,,,,,,,,,,,,,,,W,160,star,1,0,,,1,,,,,,k,0.9199,3,0,3,0,1,,,,,,,,,,,,,,,,,,,,,,,,,,,,,,,,,,
298186,2022-11-14_09h33.04.705,vts_reward_expectancy_bt,2022.2.4,Win32,4.001008254,Chrome,1536,864,,,,,,,,,,,,,,,,,,,,,,,U,167,triangle,1,0,,,1,,,,,,k,0.8837,4,0,4,0,1,,,,,,,,,,,,,,,,,,,,,,,,,,,,,,,,,,
298186,2022-11-14_09h33.04.705,vts_reward_expectancy_bt,2022.2.4,Win32,4.001008254,Chrome,1536,864,,,,,,,,,,,,,,,,,,,,,,,F,132,circle,1,0,,,1,,,,,,j,0.9243,5,0,5,0,1,,,,,,,,,,,,,,,,,,,,,,,,,,,,,,,,,,
298186,2022-11-14_09h33.04.705,vts_reward_expectancy_bt,2022.2.4,Win32,4.001008254,Chrome,1536,864,,,,,,,,,,,,,,,,,,,,,,,D,174,hexagon,1,0,,,1,,,,,,k,0.9122,6,0,6,0,1,,,,,,,,,,,,,,,,,,,,,,,,,,,,,,,,,,
298186,2022-11-14_09h33.04.705,vts_reward_expectancy_bt,2022.2.4,Win32,4.001008254,Chrome,1536,864,,,,,,,,,,,,,,,,,,,,,,,B,125,star,1,0,,,1,,,,,,j,0.6275,7,0,7,0,1,,,,,,,,,,,,,,,,,,,,,,,,,,,,,,,,,,
298186,2022-11-14_09h33.04.705,vts_reward_expectancy_bt,2022.2.4,Win32,4.001008254,Chrome,1536,864,,,,,,,,,,,,,,,,,,,,,,,S,181,hexagon,1,0,,,1,,,,,,k,0.621,8,0,8,0,1,,,,,,,,,,,,,,,,,,,,,,,,,,,,,,,,,,
298186,2022-11-14_09h33.04.705,vts_reward_expectancy_bt,2022.2.4,Win32,4.001008254,Chrome,1536,864,,,,,,,,,,,,,,,,,,,,,,,Y,146,circle,1,0,,,1,,,,,,j,1.1912,9,0,9,0,1,,,,,,,,,,,,,,,,,,,,,,,,,,,,,,,,,,
298186,2022-11-14_09h33.04.705,vts_reward_expectancy_bt,2022.2.4,Win32,4.001008254,Chrome,1536,864,,,,,0,639,,,,,,,,,,,,,,,,,U,181,triangle,1,0,,,2,,,,,,,,,,,,,-1,letter,NA,f,1.1577,vtsPrac,0,0,0,0,1,,,,,,,,,,,,,,,,,,,,,,,
298186,2022-11-14_09h33.04.705,vts_reward_expectancy_bt,2022.2.4,Win32,4.001008254,Chrome,1536,864,,,,,0,639,,,,,,,,,,,,,,,,,H,146,circle,1,0,,,2,,,,,,,,,,,,,switch,number,numSwt,j,1.4501,vtsPrac,1,0,1,0,1,,,,,,,,,,,,,,,,,,,,,,,
298186,2022-11-14_09h33.04.705,vts_reward_expectancy_bt,2022.2.4,Win32,4.001008254,Chrome,1536,864,,,,,0,639,,,,,,,,,,,,,,,,,D,167,triangle,1,0,,,2,,,,,,,,,,,,,switch,letter,lettSwt,d,0.9298,vtsPrac,2,0,2,0,1,,,,,,,,,,,,,,,,,,,,,,,
298186,2022-11-14_09h33.04.705,vts_reward_expectancy_bt,2022.2.4,Win32,4.001008254,Chrome,1536,864,,,,,0,639,,,,,,,,,,,,,,,,,S,174,circle,1,0,,,2,,,,,,,,,,,,,repeat,letter,lettRpt,f,0.9326,vtsPrac,3,0,3,0,1,,,,,,,,,,,,,,,,,,,,,,,
298186,2022-11-14_09h33.04.705,vts_reward_expectancy_bt,2022.2.4,Win32,4.001008254,Chrome,1536,864,,,,,0,639,,,,,,,,,,,,,,,,,U,181,triangle,1,0,,,2,,,,,,,,,,,,,switch,number,numSwt,k,1.1596,vtsPrac,4,0,4,0,1,,,,,,,,,,,,,,,,,,,,,,,
298186,2022-11-14_09h33.04.705,vts_reward_expectancy_bt,2022.2.4,Win32,4.001008254,Chrome,1536,864,,,,,0,639,,,,,,,,,,,,,,,,,H,146,hexagon,1,0,,,2,,,,,,,,,,,,,switch,letter,lettSwt,d,0.9589,vtsPrac,5,0,5,0,1,,,,,,,,,,,,,,,,,,,,,,,
298186,2022-11-14_09h33.04.705,vts_reward_expectancy_bt,2022.2.4,Win32,4.001008254,Chrome,1536,864,,,,,0,639,,,,,,,,,,,,,,,,,D,167,circle,1,0,,,2,,,,,,,,,,,,,switch,number,numSwt,k,1.1707,vtsPrac,6,0,6,0,1,,,,,,,,,,,,,,,,,,,,,,,
298186,2022-11-14_09h33.04.705,vts_reward_expectancy_bt,2022.2.4,Win32,4.001008254,Chrome,1536,864,,,,,0,639,,,,,,,,,,,,,,,,,S,174,triangle,1,0,,,2,,,,,,,,,,,,,repeat,number,numRpt,k,0.9349,vtsPrac,7,0,7,0,1,,,,,,,,,,,,,,,,,,,,,,,
298186,2022-11-14_09h33.04.705,vts_reward_expectancy_bt,2022.2.4,Win32,4.001008254,Chrome,1536,864,,,,,0,639,,,,,,,,,,,,,,,,,D,160,hexagon,1,0,,,2,,,,,,,,,,,,,switch,letter,lettSwt,d,0.9244,vtsPrac,8,0,8,0,1,,,,,,,,,,,,,,,,,,,,,,,
298186,2022-11-14_09h33.04.705,vts_reward_expectancy_bt,2022.2.4,Win32,4.001008254,Chrome,1536,864,,,,,0,639,,,,,,,,,,,,,,,,,F,174,triangle,1,0,,,2,,,,,,,,,,,,,repeat,letter,lettRpt,d,0.8946,vtsPrac,9,0,9,0,1,,,,,,,,,,,,,,,,,,,,,,,
298186,2022-11-14_09h33.04.705,vts_reward_expectancy_bt,2022.2.4,Win32,4.001008254,Chrome,1536,864,,,,,0,639,,,,,,,,,,,,,,,,,Y,181,triangle,1,0,,,2,,,,,,,,,,,,,switch,number,numSwt,k,0.7172,vtsPrac,10,0,10,0,1,,,,,,,,,,,,,,,,,,,,,,,
298186,2022-11-14_09h33.04.705,vts_reward_expectancy_bt,2022.2.4,Win32,4.001008254,Chrome,1536,864,,,,,0,639,,,,,,,,,,,,,,,,,U,139,star,1,0,,,2,,,,,,,,,,,,,switch,letter,lettSwt,f,0.5986,vtsPrac,11,0,11,0,1,,,,,,,,,,,,,,,,,,,,,,,
298186,2022-11-14_09h33.04.705,vts_reward_expectancy_bt,2022.2.4,Win32,4.001008254,Chrome,1536,864,,,,,0,639,,,,,,,,,,,,,,,,,H,132,circle,1,0,,,2,,,,,,,,,,,,,switch,number,numSwt,j,0.8912,vtsPrac,12,0,12,0,1,,,,,,,,,,,,,,,,,,,,,,,
298186,2022-11-14_09h33.04.705,vts_reward_expectancy_bt,2022.2.4,Win32,4.001008254,Chrome,1536,864,,,,,0,639,,,,,,,,,,,,,,,,,F,139,triangle,1,0,,,2,,,,,,,,,,,,,switch,letter,lettSwt,d,1.1651,vtsPrac,13,0,13,0,1,,,,,,,,,,,,,,,,,,,,,,,
298186,2022-11-14_09h33.04.705,vts_reward_expectancy_bt,2022.2.4,Win32,4.001008254,Chrome,1536,864,,,,,0,639,,,,,,,,,,,,,,,,,D,160,star,1,0,,,2,,,,,,,,,,,,,repeat,letter,lettRpt,d,0.6388,vtsPrac,14,0,14,0,1,,,,,,,,,,,,,,,,,,,,,,,
298186,2022-11-14_09h33.04.705,vts_reward_expectancy_bt,2022.2.4,Win32,4.001008254,Chrome,1536,864,,,,,0,639,,,,,,,,,,,,,,,,,B,181,triangle,1,0,,,2,,,,,,,,,,,,,switch,number,numSwt,k,0.6342,vtsPrac,15,0,15,0,1,,,,,,,,,,,,,,,,,,,,,,,
298186,2022-11-14_09h33.04.705,vts_reward_expectancy_bt,2022.2.4,Win32,4.001008254,Chrome,1536,864,,,,,0,639,,,,,,,,,,,,,,,,,D,132,hexagon,1,0,,,2,,,,,,,,,,,,,repeat,number,numRpt,j,0.8791,vtsPrac,16,0,16,0,1,,,,,,,,,,,,,,,,,,,,,,,
298186,2022-11-14_09h33.04.705,vts_reward_expectancy_bt,2022.2.4,Win32,4.001008254,Chrome,1536,864,,,,,0,639,,,,,,,,,,,,,,,,,H,146,circle,1,0,,,2,,,,,,,,,,,,,switch,letter,lettSwt,d,0.6473,vtsPrac,17,0,17,0,1,,,,,,,,,,,,,,,,,,,,,,,
298186,2022-11-14_09h33.04.705,vts_reward_expectancy_bt,2022.2.4,Win32,4.001008254,Chrome,1536,864,,,,,0,639,,,,,,,,,,,,,,,,,W,167,triangle,1,0,,,2,,,,,,,,,,,,,switch,number,numSwt,k,1.1995,vtsPrac,18,0,18,0,1,,,,,,,,,,,,,,,,,,,,,,,
298186,2022-11-14_09h33.04.705,vts_reward_expectancy_bt,2022.2.4,Win32,4.001008254,Chrome,1536,864,,,,,0,639,,,,,,,,,,,,,,,,,F,181,hexagon,1,0,,,2,,,,,,,,,,,,,switch,letter,lettSwt,d,0.943,vtsPrac,19,0,19,0,1,,,,,,,,,,,,,,,,,,,,,,,
298186,2022-11-14_09h33.04.705,vts_reward_expectancy_bt,2022.2.4,Win32,4.001008254,Chrome,1536,864,,,,,0,639,,,,,,,,,,,,,,,,,F,125,triangle,1,0,,,2,,,,,,,,,,,,,repeat,letter,lettRpt,d,0.9473,vtsPrac,20,0,20,0,1,,,,,,,,,,,,,,,,,,,,,,,
298186,2022-11-14_09h33.04.705,vts_reward_expectancy_bt,2022.2.4,Win32,4.001008254,Chrome,1536,864,,,,,0,639,,,,,,,,,,,,,,,,,B,181,star,1,0,,,2,,,,,,,,,,,,,switch,number,numSwt,k,1.0161,vtsPrac,21,0,21,0,1,,,,,,,,,,,,,,,,,,,,,,,
298186,2022-11-14_09h33.04.705,vts_reward_expectancy_bt,2022.2.4,Win32,4.001008254,Chrome,1536,864,,,,,0,639,,,,,,,,,,,,,,,,,H,146,triangle,1,0,,,2,,,,,,,,,,,,,repeat,number,numRpt,j,1.1784,vtsPrac,22,0,22,0,1,,,,,,,,,,,,,,,,,,,,,,,
298186,2022-11-14_09h33.04.705,vts_reward_expectancy_bt,2022.2.4,Win32,4.001008254,Chrome,1536,864,,,,,0,639,,,,,,,,,,,,,,,,,Y,167,circle,1,0,,,2,,,,,,,,,,,,,repeat,number,numRpt,k,1.2817,vtsPrac,23,0,23,0,1,,,,,,,,,,,,,,,,,,,,,,,
298186,2022-11-14_09h33.04.705,vts_reward_expectancy_bt,2022.2.4,Win32,4.001008254,Chrome,1536,864,,,,,0,639,,,,,,,,,,,,,,,,,Y,132,hexagon,1,0,,,2,,,,,,,,,,,,,repeat,number,numRpt,j,0.8933,vtsPrac,24,0,24,0,1,,,,,,,,,,,,,,,,,,,,,,,
298186,2022-11-14_09h33.04.705,vts_reward_expectancy_bt,2022.2.4,Win32,4.001008254,Chrome,1536,864,,,,,0,639,,,,,,,,,,,,,,,,,U,167,star,1,0,,,2,,,,,,,,,,,,,switch,letter,lettSwt,f,0.9192,vtsPrac,25,0,25,0,1,,,,,,,,,,,,,,,,,,,,,,,
298186,2022-11-14_09h33.04.705,vts_reward_expectancy_bt,2022.2.4,Win32,4.001008254,Chrome,1536,864,,,,,0,639,,,,,,,,,,,,,,,,,F,125,circle,1,0,,,2,,,,,,,,,,,,,switch,number,numSwt,j,0.8842,vtsPrac,26,0,26,0,1,,,,,,,,,,,,,,,,,,,,,,,
298186,2022-11-14_09h33.04.705,vts_reward_expectancy_bt,2022.2.4,Win32,4.001008254,Chrome,1536,864,,,,,0,639,,,,,,,,,,,,,,,,,W,146,triangle,1,0,,,2,,,,,,,,,,,,,switch,letter,lettSwt,f,0.9306,vtsPrac,27,0,27,0,1,,,,,,,,,,,,,,,,,,,,,,,
298186,2022-11-14_09h33.04.705,vts_reward_expectancy_bt,2022.2.4,Win32,4.001008254,Chrome,1536,864,,,,,0,639,,,,,,,,,,,,,,,,,D,167,circle,1,0,,,2,,,,,,,,,,,,,switch,number,numSwt,k,0.928,vtsPrac,28,0,28,0,1,,,,,,,,,,,,,,,,,,,,,,,
298186,2022-11-14_09h33.04.705,vts_reward_expectancy_bt,2022.2.4,Win32,4.001008254,Chrome,1536,864,,,,,0,639,,,,,,,,,,,,,,,,,F,160,star,1,0,,,2,,,,,,,,,,,,,switch,letter,lettSwt,d,0.9127,vtsPrac,29,0,29,0,1,,,,,,,,,,,,,,,,,,,,,,,
298186,2022-11-14_09h33.04.705,vts_reward_expectancy_bt,2022.2.4,Win32,4.001008254,Chrome,1536,864,,,,,0,639,,,,,,,,,,,,,,,,,H,139,triangle,1,0,,,2,,,,,,,,,,,,,switch,number,numSwt,j,0.9088,vtsPrac,30,0,30,0,1,,,,,,,,,,,,,,,,,,,,,,,
298186,2022-11-14_09h33.04.705,vts_reward_expectancy_bt,2022.2.4,Win32,4.001008254,Chrome,1536,864,,,,,0,639,,,,,,,,,,,,,,,,,Y,125,circle,1,0,,,2,,,,,,,,,,,,,switch,letter,lettSwt,f,0.8837,vtsPrac,31,0,31,0,1,,,,,,,,,,,,,,,,,,,,,,,
298186,2022-11-14_09h33.04.705,vts_reward_expectancy_bt,2022.2.4,Win32,4.001008254,Chrome,1536,864,,,,,,,,,,,,,,,,,,,,,,,,,,,,,,,,,,,,,,,,,,,,,,,,,,,,,,,,,,,,,,,,,,,,,,,,,,,,
298186,2022-11-14_09h33.04.705,vts_reward_expectancy_bt,2022.2.4,Win32,4.001008254,Chrome,1536,864,,,,,,,,,,,,,,,,,,,,,,,,,,,,,,,,,,,,,,,,,,,,,,,,,,,,,,,,,,,,,,,,,,,,,,,,,,,,
298186,2022-11-14_09h33.04.705,vts_reward_expectancy_bt,2022.2.4,Win32,4.001008254,Chrome,1536,864,,,,,0,639,,,,,,,,,,,,,,,,,Y,125,hexagon,1,0,,,,,,,,,,,,,,,,repeat,letter,lettRpt,f,1.2254,noRew,,,,,,0,0,0,0,0,1,,,,,,,,,,,,,,,,,
298186,2022-11-14_09h33.04.705,vts_reward_expectancy_bt,2022.2.4,Win32,4.001008254,Chrome,1536,864,,,,,0,639,,,,,,,,,,,,,,,,,H,132,star,1,0,,,,,,,,,,,,,,,,repeat,letter,lettRpt,d,0.8858,noRew,,,,,,0,1,0,1,0,1,,,,,,,,,,,,,,,,,
298186,2022-11-14_09h33.04.705,vts_reward_expectancy_bt,2022.2.4,Win32,4.001008254,Chrome,1536,864,,,,,0,639,,,,,,,,,,,,,,,,,D,181,hexagon,1,0,,,,,,,,,,,,,,,,switch,number,numSwt,k,0.9092,noRew,,,,,,0,2,0,2,0,1,,,,,,,,,,,,,,,,,
298186,2022-11-14_09h33.04.705,vts_reward_expectancy_bt,2022.2.4,Win32,4.001008254,Chrome,1536,864,,,,,0,639,,,,,,,,,,,,,,,,,W,160,star,1,0,,,,,,,,,,,,,,,,repeat,number,numRpt,k,0.8782,noRew,,,,,,0,3,0,3,0,1,,,,,,,,,,,,,,,,,
298186,2022-11-14_09h33.04.705,vts_reward_expectancy_bt,2022.2.4,Win32,4.001008254,Chrome,1536,864,,,,,0,639,,,,,,,,,,,,,,,,,Y,125,circle,1,0,,,,,,,,,,,,,,,,switch,letter,lettSwt,f,0.9487,noRew,,,,,,0,4,0,4,0,1,,,,,,,,,,,,,,,,,
298186,2022-11-14_09h33.04.705,vts_reward_expectancy_bt,2022.2.4,Win32,4.001008254,Chrome,1536,864,,,,,0,639,,,,,,,,,,,,,,,,,H,132,hexagon,1,0,,,,,,,,,,,,,,,,switch,number,numSwt,j,0.882,noRew,,,,,,0,5,0,5,0,1,,,,,,,,,,,,,,,,,
298186,2022-11-14_09h33.04.705,vts_reward_expectancy_bt,2022.2.4,Win32,4.001008254,Chrome,1536,864,,,,,0,639,,,,,,,,,,,,,,,,,D,181,star,1,0,,,,,,,,,,,,,,,,switch,letter,lettSwt,d,0.8824,noRew,,,,,,0,6,0,6,0,1,,,,,,,,,,,,,,,,,
298186,2022-11-14_09h33.04.705,vts_reward_expectancy_bt,2022.2.4,Win32,4.001008254,Chrome,1536,864,,,,,0,639,,,,,,,,,,,,,,,,,W,160,circle,1,0,,,,,,,,,,,,,,,,switch,number,numSwt,k,1.156,noRew,,,,,,0,7,0,7,0,1,,,,,,,,,,,,,,,,,
298186,2022-11-14_09h33.04.705,vts_reward_expectancy_bt,2022.2.4,Win32,4.001008254,Chrome,1536,864,,,,,0,639,,,,,,,,,,,,,,,,,H,160,star,1,0,,,,,,,,,,,,,,,,switch,letter,lettSwt,d,0.8942,noRew,,,,,,0,8,0,8,0,1,,,,,,,,,,,,,,,,,
298186,2022-11-14_09h33.04.705,vts_reward_expectancy_bt,2022.2.4,Win32,4.001008254,Chrome,1536,864,,,,,0,639,,,,,,,,,,,,,,,,,U,174,hexagon,1,0,,,,,,,,,,,,,,,,repeat,letter,lettRpt,f,0.8952,noRew,,,,,,0,9,0,9,0,1,,,,,,,,,,,,,,,,,
298186,2022-11-14_09h33.04.705,vts_reward_expectancy_bt,2022.2.4,Win32,4.001008254,Chrome,1536,864,,,,,0,639,,,,,,,,,,,,,,,,,W,181,star,1,0,,,,,,,,,,,,,,,,repeat,letter,lettRpt,f,0.9373,noRew,,,,,,0,10,0,10,0,1,,,,,,,,,,,,,,,,,
298186,2022-11-14_09h33.04.705,vts_reward_expectancy_bt,2022.2.4,Win32,4.001008254,Chrome,1536,864,,,,,0,639,,,,,,,,,,,,,,,,,F,167,circle,1,0,,,,,,,,,,,,,,,,repeat,letter,lettRpt,d,0.9893,noRew,,,,,,0,11,0,11,0,1,,,,,,,,,,,,,,,,,
298186,2022-11-14_09h33.04.705,vts_reward_expectancy_bt,2022.2.4,Win32,4.001008254,Chrome,1536,864,,,,,0,639,,,,,,,,,,,,,,,,,S,160,star,1,0,,,,,,,,,,,,,,,,switch,number,numSwt,k,1.0128,noRew,,,,,,0,12,0,12,0,1,,,,,,,,,,,,,,,,,
298186,2022-11-14_09h33.04.705,vts_reward_expectancy_bt,2022.2.4,Win32,4.001008254,Chrome,1536,864,,,,,0,639,,,,,,,,,,,,,,,,,B,139,triangle,1,0,,,,,,,,,,,,,,,,repeat,number,numRpt,j,0.8993,noRew,,,,,,0,13,0,13,0,1,,,,,,,,,,,,,,,,,
298186,2022-11-14_09h33.04.705,vts_reward_expectancy_bt,2022.2.4,Win32,4.001008254,Chrome,1536,864,,,,,0,639,,,,,,,,,,,,,,,,,H,125,circle,1,0,,,,,,,,,,,,,,,,switch,letter,lettSwt,d,0.9204,noRew,,,,,,0,14,0,14,0,1,,,,,,,,,,,,,,,,,
298186,2022-11-14_09h33.04.705,vts_reward_expectancy_bt,2022.2.4,Win32,4.001008254,Chrome,1536,864,,,,,0,639,,,,,,,,,,,,,,,,,Y,174,star,1,0,,,,,,,,,,,,,,,,switch,number,numSwt,k,0.8921,noRew,,,,,,0,15,0,15,0,1,,,,,,,,,,,,,,,,,
298186,2022-11-14_09h33.04.705,vts_reward_expectancy_bt,2022.2.4,Win32,4.001008254,Chrome,1536,864,,,,,0,639,,,,,,,,,,,,,,,,,F,174,star,1,0,,,,,,,,,,,,,,,,switch,letter,lettSwt,d,0.9169,noRew,,,,,,0,16,0,16,0,1,,,,,,,,,,,,,,,,,
298186,2022-11-14_09h33.04.705,vts_reward_expectancy_bt,2022.2.4,Win32,4.001008254,Chrome,1536,864,,,,,0,639,,,,,,,,,,,,,,,,,H,139,hexagon,1,0,,,,,,,,,,,,,,,,repeat,letter,lettRpt,d,0.9083,noRew,,,,,,0,17,0,17,0,1,,,,,,,,,,,,,,,,,
298186,2022-11-14_09h33.04.705,vts_reward_expectancy_bt,2022.2.4,Win32,4.001008254,Chrome,1536,864,,,,,0,639,,,,,,,,,,,,,,,,,S,181,hexagon,1,0,,,,,,,,,,,,,,,,switch,number,numSwt,k,0.8882,noRew,,,,,,0,18,0,18,0,1,,,,,,,,,,,,,,,,,
298186,2022-11-14_09h33.04.705,vts_reward_expectancy_bt,2022.2.4,Win32,4.001008254,Chrome,1536,864,,,,,0,639,,,,,,,,,,,,,,,,,W,125,circle,1,0,,,,,,,,,,,,,,,,repeat,number,numRpt,j,1.1925,noRew,,,,,,0,19,0,19,0,1,,,,,,,,,,,,,,,,,
298186,2022-11-14_09h33.04.705,vts_reward_expectancy_bt,2022.2.4,Win32,4.001008254,Chrome,1536,864,,,,,0,639,,,,,,,,,,,,,,,,,S,132,hexagon,1,0,,,,,,,,,,,,,,,,switch,letter,lettSwt,f,1.2663,noRew,,,,,,0,20,0,20,0,1,,,,,,,,,,,,,,,,,
298186,2022-11-14_09h33.04.705,vts_reward_expectancy_bt,2022.2.4,Win32,4.001008254,Chrome,1536,864,,,,,0,639,,,,,,,,,,,,,,,,,U,139,star,1,0,,,,,,,,,,,,,,,,switch,number,numSwt,j,0.9517,noRew,,,,,,0,21,0,21,0,1,,,,,,,,,,,,,,,,,
298186,2022-11-14_09h33.04.705,vts_reward_expectancy_bt,2022.2.4,Win32,4.001008254,Chrome,1536,864,,,,,0,639,,,,,,,,,,,,,,,,,W,167,hexagon,1,0,,,,,,,,,,,,,,,,repeat,number,numRpt,k,0.8918,noRew,,,,,,0,22,0,22,0,1,,,,,,,,,,,,,,,,,
298186,2022-11-14_09h33.04.705,vts_reward_expectancy_bt,2022.2.4,Win32,4.001008254,Chrome,1536,864,,,,,0,639,,,,,,,,,,,,,,,,,D,174,triangle,1,0,,,,,,,,,,,,,,,,switch,letter,lettSwt,d,1.2194,noRew,,,,,,0,23,0,23,0,1,,,,,,,,,,,,,,,,,
298186,2022-11-14_09h33.04.705,vts_reward_expectancy_bt,2022.2.4,Win32,4.001008254,Chrome,1536,864,,,,,0,639,,,,,,,,,,,,,,,,,Y,167,circle,1,0,,,,,,,,,,,,,,,,repeat,letter,lettRpt,f,0.608,noRew,,,,,,0,24,0,24,0,1,,,,,,,,,,,,,,,,,
298186,2022-11-14_09h33.04.705,vts_reward_expectancy_bt,2022.2.4,Win32,4.001008254,Chrome,1536,864,,,,,0,639,,,,,,,,,,,,,,,,,F,181,triangle,1,0,,,,,,,,,,,,,,,,switch,number,numSwt,k,0.8963,noRew,,,,,,0,25,0,25,0,1,,,,,,,,,,,,,,,,,
298186,2022-11-14_09h33.04.705,vts_reward_expectancy_bt,2022.2.4,Win32,4.001008254,Chrome,1536,864,,,,,0,639,,,,,,,,,,,,,,,,,D,174,triangle,1,0,,,,,,,,,,,,,,,,switch,letter,lettSwt,d,0.6409,noRew,,,,,,0,26,0,26,0,1,,,,,,,,,,,,,,,,,
298186,2022-11-14_09h33.04.705,vts_reward_expectancy_bt,2022.2.4,Win32,4.001008254,Chrome,1536,864,,,,,0,639,,,,,,,,,,,,,,,,,S,146,star,1,0,,,,,,,,,,,,,,,,switch,number,numSwt,j,0.8785,noRew,,,,,,0,27,0,27,0,1,,,,,,,,,,,,,,,,,
298186,2022-11-14_09h33.04.705,vts_reward_expectancy_bt,2022.2.4,Win32,4.001008254,Chrome,1536,864,,,,,0,639,,,,,,,,,,,,,,,,,S,160,circle,1,0,,,,,,,,,,,,,,,,switch,letter,lettSwt,f,0.9008,noRew,,,,,,0,28,0,28,0,1,,,,,,,,,,,,,,,,,
298186,2022-11-14_09h33.04.705,vts_reward_expectancy_bt,2022.2.4,Win32,4.001008254,Chrome,1536,864,,,,,0,639,,,,,,,,,,,,,,,,,B,181,star,1,0,,,,,,,,,,,,,,,,repeat,letter,lettRpt,d,1.1758,noRew,,,,,,0,29,0,29,0,1,,,,,,,,,,,,,,,,,
298186,2022-11-14_09h33.04.705,vts_reward_expectancy_bt,2022.2.4,Win32,4.001008254,Chrome,1536,864,,,,,0,639,,,,,,,,,,,,,,,,,U,167,hexagon,1,0,,,,,,,,,,,,,,,,switch,number,numSwt,k,0.9288,noRew,,,,,,0,30,0,30,0,1,,,,,,,,,,,,,,,,,
298186,2022-11-14_09h33.04.705,vts_reward_expectancy_bt,2022.2.4,Win32,4.001008254,Chrome,1536,864,,,,,0,639,,,,,,,,,,,,,,,,,W,139,triangle,1,0,,,,,,,,,,,,,,,,repeat,number,numRpt,j,0.89,noRew,,,,,,0,31,0,31,0,1,,,,,,,,,,,,,,,,,
298186,2022-11-14_09h33.04.705,vts_reward_expectancy_bt,2022.2.4,Win32,4.001008254,Chrome,1536,864,,,,,0,639,,,,,,,,,,,,,,,,,W,160,triangle,1,0,,,,,,,,,,,,,,,,switch,letter,lettSwt,f,1.4986,noRew,,,,,,0,32,0,32,0,1,,,,,,,,,,,,,,,,,
298186,2022-11-14_09h33.04.705,vts_reward_expectancy_bt,2022.2.4,Win32,4.001008254,Chrome,1536,864,,,,,0,639,,,,,,,,,,,,,,,,,Y,132,circle,1,0,,,,,,,,,,,,,,,,switch,number,numSwt,j,0.9283,noRew,,,,,,0,33,0,33,0,1,,,,,,,,,,,,,,,,,
298186,2022-11-14_09h33.04.705,vts_reward_expectancy_bt,2022.2.4,Win32,4.001008254,Chrome,1536,864,,,,,0,639,,,,,,,,,,,,,,,,,F,125,star,1,0,,,,,,,,,,,,,,,,switch,letter,lettSwt,d,1.2138,noRew,,,,,,0,34,0,34,0,1,,,,,,,,,,,,,,,,,
298186,2022-11-14_09h33.04.705,vts_reward_expectancy_bt,2022.2.4,Win32,4.001008254,Chrome,1536,864,,,,,0,639,,,,,,,,,,,,,,,,,S,139,triangle,1,0,,,,,,,,,,,,,,,,repeat,letter,lettRpt,f,1.1747,noRew,,,,,,0,35,0,35,0,1,,,,,,,,,,,,,,,,,
298186,2022-11-14_09h33.04.705,vts_reward_expectancy_bt,2022.2.4,Win32,4.001008254,Chrome,1536,864,,,,,0,639,,,,,,,,,,,,,,,,,Y,167,star,1,0,,,,,,,,,,,,,,,,repeat,letter,lettRpt,f,0.8831,noRew,,,,,,0,36,0,36,0,1,,,,,,,,,,,,,,,,,
298186,2022-11-14_09h33.04.705,vts_reward_expectancy_bt,2022.2.4,Win32,4.001008254,Chrome,1536,864,,,,,0,639,,,,,,,,,,,,,,,,,D,125,circle,1,0,,,,,,,,,,,,,,,,repeat,letter,lettRpt,d,0.8786,noRew,,,,,,0,37,0,37,0,1,,,,,,,,,,,,,,,,,
298186,2022-11-14_09h33.04.705,vts_reward_expectancy_bt,2022.2.4,Win32,4.001008254,Chrome,1536,864,,,,,0,639,,,,,,,,,,,,,,,,,S,132,circle,1,0,,,,,,,,,,,,,,,,repeat,letter,lettRpt,f,0.912,noRew,,,,,,0,38,0,38,0,1,,,,,,,,,,,,,,,,,
298186,2022-11-14_09h33.04.705,vts_reward_expectancy_bt,2022.2.4,Win32,4.001008254,Chrome,1536,864,,,,,0,639,,,,,,,,,,,,,,,,,B,160,hexagon,1,0,,,,,,,,,,,,,,,,switch,number,numSwt,k,0.9081,noRew,,,,,,0,39,0,39,0,1,,,,,,,,,,,,,,,,,
298186,2022-11-14_09h33.04.705,vts_reward_expectancy_bt,2022.2.4,Win32,4.001008254,Chrome,1536,864,,,,,0,639,,,,,,,,,,,,,,,,,H,160,triangle,1,0,,,,,,,,,,,,,,,,repeat,number,numRpt,k,1.2121,noRew,,,,,,0,40,0,40,0,1,,,,,,,,,,,,,,,,,
298186,2022-11-14_09h33.04.705,vts_reward_expectancy_bt,2022.2.4,Win32,4.001008254,Chrome,1536,864,,,,,0,639,,,,,,,,,,,,,,,,,D,132,circle,1,0,,,,,,,,,,,,,,,,repeat,number,numRpt,j,0.9615,noRew,,,,,,0,41,0,41,0,1,,,,,,,,,,,,,,,,,
298186,2022-11-14_09h33.04.705,vts_reward_expectancy_bt,2022.2.4,Win32,4.001008254,Chrome,1536,864,,,,,0,639,,,,,,,,,,,,,,,,,B,167,star,1,0,,,,,,,,,,,,,,,,switch,letter,lettSwt,d,0.9105,noRew,,,,,,0,42,0,42,0,1,,,,,,,,,,,,,,,,,
298186,2022-11-14_09h33.04.705,vts_reward_expectancy_bt,2022.2.4,Win32,4.001008254,Chrome,1536,864,,,,,0,639,,,,,,,,,,,,,,,,,Y,139,hexagon,0,0,,,,,,,,,,,,,,,,switch,number,NA,k,0.8953,noRew,,,,,,0,43,0,43,0,1,,,,,,,,,,,,,,,,,
298186,2022-11-14_09h33.04.705,vts_reward_expectancy_bt,2022.2.4,Win32,4.001008254,Chrome,1536,864,,,,,0,639,,,,,,,,,,,,,,,,,W,160,triangle,1,1,,,,,,,,,,,,,,,,repeat,number,numRpt,k,0.8839,noRew,,,,,,0,44,0,44,0,1,,,,,,,,,,,,,,,,,
298186,2022-11-14_09h33.04.705,vts_reward_expectancy_bt,2022.2.4,Win32,4.001008254,Chrome,1536,864,,,,,0,639,,,,,,,,,,,,,,,,,H,181,star,1,0,,,,,,,,,,,,,,,,switch,letter,lettSwt,d,0.9011,noRew,,,,,,0,45,0,45,0,1,,,,,,,,,,,,,,,,,
298186,2022-11-14_09h33.04.705,vts_reward_expectancy_bt,2022.2.4,Win32,4.001008254,Chrome,1536,864,,,,,0,639,,,,,,,,,,,,,,,,,F,146,triangle,1,0,,,,,,,,,,,,,,,,switch,number,numSwt,j,1.4808,noRew,,,,,,0,46,0,46,0,1,,,,,,,,,,,,,,,,,
298186,2022-11-14_09h33.04.705,vts_reward_expectancy_bt,2022.2.4,Win32,4.001008254,Chrome,1536,864,,,,,0,639,,,,,,,,,,,,,,,,,S,174,hexagon,1,0,,,,,,,,,,,,,,,,switch,letter,lettSwt,f,0.8843,noRew,,,,,,0,47,0,47,0,1,,,,,,,,,,,,,,,,,
298186,2022-11-14_09h33.04.705,vts_reward_expectancy_bt,2022.2.4,Win32,4.001008254,Chrome,1536,864,,,,,0,639,,,,,,,,,,,,,,,,,W,146,star,1,0,,,,,,,,,,,,,,,,repeat,letter,lettRpt,f,0.9185,noRew,,,,,,0,48,0,48,0,1,,,,,,,,,,,,,,,,,
298186,2022-11-14_09h33.04.705,vts_reward_expectancy_bt,2022.2.4,Win32,4.001008254,Chrome,1536,864,,,,,0,639,,,,,,,,,,,,,,,,,U,181,hexagon,1,0,,,,,,,,,,,,,,,,repeat,letter,lettRpt,f,0.8785,noRew,,,,,,0,49,0,49,0,1,,,,,,,,,,,,,,,,,
298186,2022-11-14_09h33.04.705,vts_reward_expectancy_bt,2022.2.4,Win32,4.001008254,Chrome,1536,864,,,,,0,639,,,,,,,,,,,,,,,,,D,132,circle,1,0,,,,,,,,,,,,,,,,switch,number,numSwt,j,0.8831,noRew,,,,,,0,50,0,50,0,1,,,,,,,,,,,,,,,,,
298186,2022-11-14_09h33.04.705,vts_reward_expectancy_bt,2022.2.4,Win32,4.001008254,Chrome,1536,864,,,,,0,639,,,,,,,,,,,,,,,,,S,160,triangle,1,0,,,,,,,,,,,,,,,,repeat,number,numRpt,k,0.8784,noRew,,,,,,0,51,0,51,0,1,,,,,,,,,,,,,,,,,
298186,2022-11-14_09h33.04.705,vts_reward_expectancy_bt,2022.2.4,Win32,4.001008254,Chrome,1536,864,,,,,0,639,,,,,,,,,,,,,,,,,Y,125,star,1,0,,,,,,,,,,,,,,,,switch,letter,lettSwt,f,0.916,noRew,,,,,,0,52,0,52,0,1,,,,,,,,,,,,,,,,,
298186,2022-11-14_09h33.04.705,vts_reward_expectancy_bt,2022.2.4,Win32,4.001008254,Chrome,1536,864,,,,,0,639,,,,,,,,,,,,,,,,,F,160,triangle,1,0,,,,,,,,,,,,,,,,switch,number,numSwt,k,0.6161,noRew,,,,,,0,53,0,53,0,1,,,,,,,,,,,,,,,,,
298186,2022-11-14_09h33.04.705,vts_reward_expectancy_bt,2022.2.4,Win32,4.001008254,Chrome,1536,864,,,,,0,639,,,,,,,,,,,,,,,,,W,167,star,1,0,,,,,,,,,,,,,,,,switch,letter,lettSwt,f,0.9003,noRew,,,,,,0,54,0,54,0,1,,,,,,,,,,,,,,,,,
298186,2022-11-14_09h33.04.705,vts_reward_expectancy_bt,2022.2.4,Win32,4.001008254,Chrome,1536,864,,,,,0,639,,,,,,,,,,,,,,,,,B,174,circle,1,0,,,,,,,,,,,,,,,,repeat,letter,lettRpt,d,0.8901,noRew,,,,,,0,55,0,55,0,1,,,,,,,,,,,,,,,,,
298186,2022-11-14_09h33.04.705,vts_reward_expectancy_bt,2022.2.4,Win32,4.001008254,Chrome,1536,864,,,,,0,639,,,,,,,,,,,,,,,,,H,167,triangle,1,0,,,,,,,,,,,,,,,,switch,number,numSwt,k,1.5012,noRew,,,,,,0,56,0,56,0,1,,,,,,,,,,,,,,,,,
298186,2022-11-14_09h33.04.705,vts_reward_expectancy_bt,2022.2.4,Win32,4.001008254,Chrome,1536,864,,,,,0,639,,,,,,,,,,,,,,,,,U,174,circle,1,0,,,,,,,,,,,,,,,,repeat,number,numRpt,k,0.8839,noRew,,,,,,0,57,0,57,0,1,,,,,,,,,,,,,,,,,
298186,2022-11-14_09h33.04.705,vts_reward_expectancy_bt,2022.2.4,Win32,4.001008254,Chrome,1536,864,,,,,0,639,,,,,,,,,,,,,,,,,Y,181,hexagon,1,0,,,,,,,,,,,,,,,,repeat,number,numRpt,k,0.935,noRew,,,,,,0,58,0,58,0,1,,,,,,,,,,,,,,,,,
298186,2022-11-14_09h33.04.705,vts_reward_expectancy_bt,2022.2.4,Win32,4.001008254,Chrome,1536,864,,,,,0,639,,,,,,,,,,,,,,,,,S,160,triangle,1,0,,,,,,,,,,,,,,,,switch,letter,lettSwt,f,0.647,noRew,,,,,,0,59,0,59,0,1,,,,,,,,,,,,,,,,,
298186,2022-11-14_09h33.04.705,vts_reward_expectancy_bt,2022.2.4,Win32,4.001008254,Chrome,1536,864,,,,,0,639,,,,,,,,,,,,,,,,,B,181,triangle,1,0,,,,,,,,,,,,,,,,repeat,letter,lettRpt,d,0.8846,noRew,,,,,,0,60,0,60,0,1,,,,,,,,,,,,,,,,,
298186,2022-11-14_09h33.04.705,vts_reward_expectancy_bt,2022.2.4,Win32,4.001008254,Chrome,1536,864,,,,,0,639,,,,,,,,,,,,,,,,,Y,139,hexagon,1,0,,,,,,,,,,,,,,,,switch,number,numSwt,j,0.9071,noRew,,,,,,0,61,0,61,0,1,,,,,,,,,,,,,,,,,
298186,2022-11-14_09h33.04.705,vts_reward_expectancy_bt,2022.2.4,Win32,4.001008254,Chrome,1536,864,,,,,0,639,,,,,,,,,,,,,,,,,H,146,star,1,0,,,,,,,,,,,,,,,,repeat,number,numRpt,j,0.9233,noRew,,,,,,0,62,0,62,0,1,,,,,,,,,,,,,,,,,
298186,2022-11-14_09h33.04.705,vts_reward_expectancy_bt,2022.2.4,Win32,4.001008254,Chrome,1536,864,,,,,0,639,,,,,,,,,,,,,,,,,U,167,circle,1,0,,,,,,,,,,,,,,,,switch,letter,lettSwt,f,0.899,noRew,,,,,,0,63,0,63,0,1,,,,,,,,,,,,,,,,,
298186,2022-11-14_09h33.04.705,vts_reward_expectancy_bt,2022.2.4,Win32,4.001008254,Chrome,1536,864,,,,,,,,,,,,,,,,,,,,,,,,,,,,,,,,,,,,,,,,,,,,,,,,,,,,,,,,,,,,,,,,,,,,,,,,,,,,
298186,2022-11-14_09h33.04.705,vts_reward_expectancy_bt,2022.2.4,Win32,4.001008254,Chrome,1536,864,,,,,1,640,,,,,,,,,,,,,,,,,U,125,hexagon,1,0,,,,,,,,,,,,,,,,repeat,letter,lettRpt,f,1.7309,Lo,,,,,,0,,,,,,space,8.2143,low,0,0,0,0,1,,,,,,,,,
298186,2022-11-14_09h33.04.705,vts_reward_expectancy_bt,2022.2.4,Win32,4.001008254,Chrome,1536,864,,,,,1,641,,,,,,,,,,,,,,,,,Y,181,star,1,0,,,,,,,,,,,,,,,,switch,number,numSwt,k,0.8789,Lo,,,,,,0,,,,,,,,low,1,0,1,0,1,,,,,,,,,
298186,2022-11-14_09h33.04.705,vts_reward_expectancy_bt,2022.2.4,Win32,4.001008254,Chrome,1536,864,,,,,0,641,,,,,,,,,,,,,,,,,B,174,triangle,1,0,,,,,,,,,,,,,,,,switch,letter,lettSwt,d,0.9316,Hi,,,,,,0,,,,,,,,low,2,0,2,0,1,,,,,,,,,
298186,2022-11-14_09h33.04.705,vts_reward_expectancy_bt,2022.2.4,Win32,4.001008254,Chrome,1536,864,,,,,0,641,,,,,,,,,,,,,,,,,D,167,circle,1,0,,,,,,,,,,,,,,,,switch,number,numSwt,k,0.9015,Hi,,,,,,0,,,,,,,,low,3,0,3,0,1,,,,,,,,,
298186,2022-11-14_09h33.04.705,vts_reward_expectancy_bt,2022.2.4,Win32,4.001008254,Chrome,1536,864,,,,,1,642,,,,,,,,,,,,,,,,,W,132,hexagon,1,0,,,,,,,,,,,,,,,,switch,letter,lettSwt,f,0.8904,Lo,,,,,,0,,,,,,,,low,4,0,4,0,1,,,,,,,,,
298186,2022-11-14_09h33.04.705,vts_reward_expectancy_bt,2022.2.4,Win32,4.001008254,Chrome,1536,864,,,,,10,652,,,,,,,,,,,,,,,,,S,139,star,1,0,,,,,,,,,,,,,,,,switch,number,numSwt,j,0.9345,Lo,,,,,,0,,,,,,,,low,5,0,5,0,1,,,,,,,,,
298186,2022-11-14_09h33.04.705,vts_reward_expectancy_bt,2022.2.4,Win32,4.001008254,Chrome,1536,864,,,,,0,652,,,,,,,,,,,,,,,,,F,160,triangle,1,0,,,,,,,,,,,,,,,,switch,letter,lettSwt,d,0.9183,Hi,,,,,,0,,,,,,,,low,6,0,6,0,1,,,,,,,,,
298186,2022-11-14_09h33.04.705,vts_reward_expectancy_bt,2022.2.4,Win32,4.001008254,Chrome,1536,864,,,,,0,652,,,,,,,,,,,,,,,,,H,146,circle,1,0,,,,,,,,,,,,,,,,repeat,letter,lettRpt,d,0.8909,Hi,,,,,,0,,,,,,,,low,7,0,7,0,1,,,,,,,,,
298186,2022-11-14_09h33.04.705,vts_reward_expectancy_bt,2022.2.4,Win32,4.001008254,Chrome,1536,864,,,,,1,653,,,,,,,,,,,,,,,,,U,125,star,1,0,,,,,,,,,,,,,,,,repeat,letter,lettRpt,f,0.8831,Lo,,,,,,0,,,,,,,,low,8,0,8,0,1,,,,,,,,,
298186,2022-11-14_09h33.04.705,vts_reward_expectancy_bt,2022.2.4,Win32,4.001008254,Chrome,1536,864,,,,,10,663,,,,,,,,,,,,,,,,,Y,181,triangle,1,0,,,,,,,,,,,,,,,,repeat,letter,lettRpt,f,0.6026,Hi,,,,,,0,,,,,,,,low,9,0,9,0,1,,,,,,,,,
298186,2022-11-14_09h33.04.705,vts_reward_expectancy_bt,2022.2.4,Win32,4.001008254,Chrome,1536,864,,,,,10,673,,,,,,,,,,,,,,,,,B,174,circle,1,0,,,,,,,,,,,,,,,,repeat,letter,lettRpt,d,0.6619,Hi,,,,,,0,,,,,,,,low,10,0,10,0,1,,,,,,,,,
298186,2022-11-14_09h33.04.705,vts_reward_expectancy_bt,2022.2.4,Win32,4.001008254,Chrome,1536,864,,,,,1,674,,,,,,,,,,,,,,,,,D,167,hexagon,1,0,,,,,,,,,,,,,,,,repeat,letter,lettRpt,d,1.181,Lo,,,,,,0,,,,,,,,low,11,0,11,0,1,,,,,,,,,
298186,2022-11-14_09h33.04.705,vts_reward_expectancy_bt,2022.2.4,Win32,4.001008254,Chrome,1536,864,,,,,10,684,,,,,,,,,,,,,,,,,W,132,hexagon,1,0,,,,,,,,,,,,,,,,switch,number,numSwt,j,0.9171,Lo,,,,,,0,,,,,,,,low,12,0,12,0,1,,,,,,,,,
298186,2022-11-14_09h33.04.705,vts_reward_expectancy_bt,2022.2.4,Win32,4.001008254,Chrome,1536,864,,,,,1,685,,,,,,,,,,,,,,,,,S,139,star,1,0,,,,,,,,,,,,,,,,repeat,number,numRpt,j,0.6648,Lo,,,,,,0,,,,,,,,low,13,0,13,0,1,,,,,,,,,
298186,2022-11-14_09h33.04.705,vts_reward_expectancy_bt,2022.2.4,Win32,4.001008254,Chrome,1536,864,,,,,1,686,,,,,,,,,,,,,,,,,F,160,triangle,1,0,,,,,,,,,,,,,,,,repeat,number,numRpt,k,0.7174,Hi,,,,,,0,,,,,,,,low,14,0,14,0,1,,,,,,,,,
298186,2022-11-14_09h33.04.705,vts_reward_expectancy_bt,2022.2.4,Win32,4.001008254,Chrome,1536,864,,,,,0,686,,,,,,,,,,,,,,,,,H,146,circle,1,0,,,,,,,,,,,,,,,,repeat,number,numRpt,j,0.9386,Hi,,,,,,0,,,,,,,,low,15,0,15,0,1,,,,,,,,,
298186,2022-11-14_09h33.04.705,vts_reward_expectancy_bt,2022.2.4,Win32,4.001008254,Chrome,1536,864,,,,,1,687,,,,,,,,,,,,,,,,,F,146,triangle,1,0,,,,,,,,,,,,,,,,switch,letter,lettSwt,d,0.6204,Hi,,,,,,0,,,,,,,,low,16,0,16,0,1,,,,,,,,,
298186,2022-11-14_09h33.04.705,vts_reward_expectancy_bt,2022.2.4,Win32,4.001008254,Chrome,1536,864,,,,,10,697,,,,,,,,,,,,,,,,,D,174,hexagon,1,0,,,,,,,,,,,,,,,,repeat,letter,lettRpt,d,0.6753,Lo,,,,,,0,,,,,,,,low,17,0,17,0,1,,,,,,,,,
298186,2022-11-14_09h33.04.705,vts_reward_expectancy_bt,2022.2.4,Win32,4.001008254,Chrome,1536,864,,,,,10,707,,,,,,,,,,,,,,,,,Y,167,star,1,0,,,,,,,,,,,,,,,,switch,number,numSwt,k,0.9581,Lo,,,,,,0,,,,,,,,low,18,0,18,0,1,,,,,,,,,
298186,2022-11-14_09h33.04.705,vts_reward_expectancy_bt,2022.2.4,Win32,4.001008254,Chrome,1536,864,,,,,0,707,,,,,,,,,,,,,,,,,H,125,circle,1,0,,,,,,,,,,,,,,,,switch,letter,lettSwt,d,0.9046,Hi,,,,,,0,,,,,,,,low,19,0,19,0,1,,,,,,,,,
298186,2022-11-14_09h33.04.705,vts_reward_expectancy_bt,2022.2.4,Win32,4.001008254,Chrome,1536,864,,,,,10,717,,,,,,,,,,,,,,,,,S,181,star,1,0,,,,,,,,,,,,,,,,switch,number,numSwt,k,0.902,Lo,,,,,,0,,,,,,,,low,20,0,20,0,1,,,,,,,,,
298186,2022-11-14_09h33.04.705,vts_reward_expectancy_bt,2022.2.4,Win32,4.001008254,Chrome,1536,864,,,,,1,718,,,,,,,,,,,,,,,,,W,139,hexagon,1,0,,,,,,,,,,,,,,,,switch,letter,lettSwt,f,0.9488,Lo,,,,,,0,,,,,,,,low,21,0,21,0,1,,,,,,,,,
298186,2022-11-14_09h33.04.705,vts_reward_expectancy_bt,2022.2.4,Win32,4.001008254,Chrome,1536,864,,,,,10,728,,,,,,,,,,,,,,,,,U,160,circle,1,0,,,,,,,,,,,,,,,,switch,number,numSwt,k,0.6767,Hi,,,,,,0,,,,,,,,low,22,0,22,0,1,,,,,,,,,
298186,2022-11-14_09h33.04.705,vts_reward_expectancy_bt,2022.2.4,Win32,4.001008254,Chrome,1536,864,,,,,1,729,,,,,,,,,,,,,,,,,B,132,triangle,1,0,,,,,,,,,,,,,,,,switch,letter,lettSwt,d,0.641,Hi,,,,,,0,,,,,,,,low,23,0,23,0,1,,,,,,,,,
298186,2022-11-14_09h33.04.705,vts_reward_expectancy_bt,2022.2.4,Win32,4.001008254,Chrome,1536,864,,,,,10,739,,,,,,,,,,,,,,,,,B,139,star,1,0,,,,,,,,,,,,,,,,switch,number,numSwt,j,0.6318,Lo,,,,,,0,,,,,,,,low,24,0,24,0,1,,,,,,,,,
298186,2022-11-14_09h33.04.705,vts_reward_expectancy_bt,2022.2.4,Win32,4.001008254,Chrome,1536,864,,,,,1,740,,,,,,,,,,,,,,,,,H,167,triangle,1,0,,,,,,,,,,,,,,,,repeat,number,numRpt,k,0.8807,Hi,,,,,,0,,,,,,,,low,25,0,25,0,1,,,,,,,,,
298186,2022-11-14_09h33.04.705,vts_reward_expectancy_bt,2022.2.4,Win32,4.001008254,Chrome,1536,864,,,,,1,741,,,,,,,,,,,,,,,,,Y,132,hexagon,1,0,,,,,,,,,,,,,,,,repeat,number,numRpt,j,0.9126,Lo,,,,,,0,,,,,,,,low,26,0,26,0,1,,,,,,,,,
298186,2022-11-14_09h33.04.705,vts_reward_expectancy_bt,2022.2.4,Win32,4.001008254,Chrome,1536,864,,,,,0,741,,,,,,,,,,,,,,,,,D,146,circle,1,0,,,,,,,,,,,,,,,,repeat,number,numRpt,j,0.8944,Hi,,,,,,0,,,,,,,,low,27,0,27,0,1,,,,,,,,,
298186,2022-11-14_09h33.04.705,vts_reward_expectancy_bt,2022.2.4,Win32,4.001008254,Chrome,1536,864,,,,,0,741,,,,,,,,,,,,,,,,,S,160,triangle,0,0,,,,,,,,,,,,,,,,switch,letter,NA,d,0.8865,Hi,,,,,,0,,,,,,,,low,28,0,28,0,1,,,,,,,,,
298186,2022-11-14_09h33.04.705,vts_reward_expectancy_bt,2022.2.4,Win32,4.001008254,Chrome,1536,864,,,,,10,751,,,,,,,,,,,,,,,,,W,181,hexagon,1,1,,,,,,,,,,,,,,,,switch,number,numSwt,k,0.6149,Lo,,,,,,0,,,,,,,,low,29,0,29,0,1,,,,,,,,,
298186,2022-11-14_09h33.04.705,vts_reward_expectancy_bt,2022.2.4,Win32,4.001008254,Chrome,1536,864,,,,,10,761,,,,,,,,,,,,,,,,,F,174,circle,1,0,,,,,,,,,,,,,,,,repeat,number,numRpt,k,0.6304,Hi,,,,,,0,,,,,,,,low,30,0,30,0,1,,,,,,,,,
298186,2022-11-14_09h33.04.705,vts_reward_expectancy_bt,2022.2.4,Win32,4.001008254,Chrome,1536,864,,,,,0,761,,,,,,,,,,,,,,,,,U,125,star,0,0,,,,,,,,,,,,,,,,repeat,number,NA,k,0.6422,Hi,,,,,,0,,,,,,,,low,31,0,31,0,1,,,,,,,,,
298186,2022-11-14_09h33.04.705,vts_reward_expectancy_bt,2022.2.4,Win32,4.001008254,Chrome,1536,864,,,,,0,761,,,,,,,,,,,,,,,,,W,146,star,0,1,,,,,,,,,,,,,,,,repeat,number,NA,k,0.6315,Hi,,,,,,1,,,,,,space,5.3692,low,0,0,0,0,1,,,,,,,,,
298186,2022-11-14_09h33.04.705,vts_reward_expectancy_bt,2022.2.4,Win32,4.001008254,Chrome,1536,864,,,,,1,762,,,,,,,,,,,,,,,,,Y,160,hexagon,1,1,,,,,,,,,,,,,,,,repeat,number,numRpt,k,0.8784,Lo,,,,,,1,,,,,,,,low,1,0,1,0,1,,,,,,,,,
298186,2022-11-14_09h33.04.705,vts_reward_expectancy_bt,2022.2.4,Win32,4.001008254,Chrome,1536,864,,,,,10,772,,,,,,,,,,,,,,,,,D,174,circle,1,0,,,,,,,,,,,,,,,,repeat,number,numRpt,k,0.6256,Hi,,,,,,1,,,,,,,,low,2,0,2,0,1,,,,,,,,,
298186,2022-11-14_09h33.04.705,vts_reward_expectancy_bt,2022.2.4,Win32,4.001008254,Chrome,1536,864,,,,,0,772,,,,,,,,,,,,,,,,,U,139,triangle,1,0,,,,,,,,,,,,,,,,switch,letter,lettSwt,f,0.9238,Hi,,,,,,1,,,,,,,,low,3,0,3,0,1,,,,,,,,,
298186,2022-11-14_09h33.04.705,vts_reward_expectancy_bt,2022.2.4,Win32,4.001008254,Chrome,1536,864,,,,,10,782,,,,,,,,,,,,,,,,,H,125,star,1,0,,,,,,,,,,,,,,,,switch,number,numSwt,j,0.6729,Lo,,,,,,1,,,,,,,,low,4,0,4,0,1,,,,,,,,,
298186,2022-11-14_09h33.04.705,vts_reward_expectancy_bt,2022.2.4,Win32,4.001008254,Chrome,1536,864,,,,,1,783,,,,,,,,,,,,,,,,,S,167,hexagon,1,0,,,,,,,,,,,,,,,,switch,letter,lettSwt,f,0.8844,Lo,,,,,,1,,,,,,,,low,5,0,5,0,1,,,,,,,,,
298186,2022-11-14_09h33.04.705,vts_reward_expectancy_bt,2022.2.4,Win32,4.001008254,Chrome,1536,864,,,,,1,784,,,,,,,,,,,,,,,,,F,181,circle,1,0,,,,,,,,,,,,,,,,switch,number,numSwt,k,0.6657,Hi,,,,,,1,,,,,,,,low,6,0,6,0,1,,,,,,,,,
298186,2022-11-14_09h33.04.705,vts_reward_expectancy_bt,2022.2.4,Win32,4.001008254,Chrome,1536,864,,,,,10,794,,,,,,,,,,,,,,,,,B,132,triangle,1,0,,,,,,,,,,,,,,,,repeat,number,numRpt,j,0.5894,Hi,,,,,,1,,,,,,,,low,7,0,7,0,1,,,,,,,,,
298186,2022-11-14_09h33.04.705,vts_reward_expectancy_bt,2022.2.4,Win32,4.001008254,Chrome,1536,864,,,,,10,804,,,,,,,,,,,,,,,,,W,146,star,1,0,,,,,,,,,,,,,,,,repeat,number,numRpt,j,0.6313,Lo,,,,,,1,,,,,,,,low,8,0,8,0,1,,,,,,,,,
298186,2022-11-14_09h33.04.705,vts_reward_expectancy_bt,2022.2.4,Win32,4.001008254,Chrome,1536,864,,,,,1,805,,,,,,,,,,,,,,,,,Y,160,circle,1,0,,,,,,,,,,,,,,,,repeat,number,numRpt,k,0.6133,Hi,,,,,,1,,,,,,,,low,9,0,9,0,1,,,,,,,,,
298186,2022-11-14_09h33.04.705,vts_reward_expectancy_bt,2022.2.4,Win32,4.001008254,Chrome,1536,864,,,,,0,805,,,,,,,,,,,,,,,,,D,174,triangle,1,0,,,,,,,,,,,,,,,,repeat,number,numRpt,k,0.8839,Hi,,,,,,1,,,,,,,,low,10,0,10,0,1,,,,,,,,,
298186,2022-11-14_09h33.04.705,vts_reward_expectancy_bt,2022.2.4,Win32,4.001008254,Chrome,1536,864,,,,,10,815,,,,,,,,,,,,,,,,,U,139,hexagon,1,0,,,,,,,,,,,,,,,,switch,letter,lettSwt,f,0.8975,Lo,,,,,,1,,,,,,,,low,11,0,11,0,1,,,,,,,,,
298186,2022-11-14_09h33.04.705,vts_reward_expectancy_bt,2022.2.4,Win32,4.001008254,Chrome,1536,864,,,,,1,816,,,,,,,,,,,,,,,,,H,125,star,1,0,,,,,,,,,,,,,,,,switch,number,numSwt,j,0.6112,Lo,,,,,,1,,,,,,,,low,12,0,12,0,1,,,,,,,,,
298186,2022-11-14_09h33.04.705,vts_reward_expectancy_bt,2022.2.4,Win32,4.001008254,Chrome,1536,864,,,,,0,816,,,,,,,,,,,,,,,,,S,167,circle,1,0,,,,,,,,,,,,,,,,switch,letter,lettSwt,f,0.892,Hi,,,,,,1,,,,,,,,low,13,0,13,0,1,,,,,,,,,
298186,2022-11-14_09h33.04.705,vts_reward_expectancy_bt,2022.2.4,Win32,4.001008254,Chrome,1536,864,,,,,1,817,,,,,,,,,,,,,,,,,F,181,hexagon,1,0,,,,,,,,,,,,,,,,repeat,letter,lettRpt,d,0.9004,Lo,,,,,,1,,,,,,,,low,14,0,14,0,1,,,,,,,,,
298186,2022-11-14_09h33.04.705,vts_reward_expectancy_bt,2022.2.4,Win32,4.001008254,Chrome,1536,864,,,,,0,817,,,,,,,,,,,,,,,,,B,132,triangle,1,0,,,,,,,,,,,,,,,,repeat,letter,lettRpt,d,0.8922,Hi,,,,,,1,,,,,,,,low,15,0,15,0,1,,,,,,,,,
298186,2022-11-14_09h33.04.705,vts_reward_expectancy_bt,2022.2.4,Win32,4.001008254,Chrome,1536,864,,,,,1,818,,,,,,,,,,,,,,,,,Y,132,star,1,0,,,,,,,,,,,,,,,,repeat,letter,lettRpt,f,0.9106,Lo,,,,,,1,,,,,,,,low,16,0,16,0,1,,,,,,,,,
298186,2022-11-14_09h33.04.705,vts_reward_expectancy_bt,2022.2.4,Win32,4.001008254,Chrome,1536,864,,,,,0,818,,,,,,,,,,,,,,,,,W,125,hexagon,0,0,,,,,,,,,,,,,,,,switch,number,NA,k,0.637,Lo,,,,,,1,,,,,,,,low,17,0,17,0,1,,,,,,,,,
298186,2022-11-14_09h33.04.705,vts_reward_expectancy_bt,2022.2.4,Win32,4.001008254,Chrome,1536,864,,,,,0,818,,,,,,,,,,,,,,,,,U,139,triangle,1,1,,,,,,,,,,,,,,,,repeat,number,numRpt,j,0.8882,Hi,,,,,,1,,,,,,,,low,18,0,18,0,1,,,,,,,,,
298186,2022-11-14_09h33.04.705,vts_reward_expectancy_bt,2022.2.4,Win32,4.001008254,Chrome,1536,864,,,,,0,818,,,,,,,,,,,,,,,,,F,181,circle,1,0,,,,,,,,,,,,,,,,switch,letter,lettSwt,d,0.9773,Hi,,,,,,1,,,,,,,,low,19,0,19,0,1,,,,,,,,,
298186,2022-11-14_09h33.04.705,vts_reward_expectancy_bt,2022.2.4,Win32,4.001008254,Chrome,1536,864,,,,,0,818,,,,,,,,,,,,,,,,,H,167,circle,1,0,,,,,,,,,,,,,,,,repeat,letter,lettRpt,d,0.9049,Hi,,,,,,1,,,,,,,,low,20,0,20,0,1,,,,,,,,,
298186,2022-11-14_09h33.04.705,vts_reward_expectancy_bt,2022.2.4,Win32,4.001008254,Chrome,1536,864,,,,,0,818,,,,,,,,,,,,,,,,,S,160,star,0,0,,,,,,,,,,,,,,,,switch,number,NA,j,0.8922,Hi,,,,,,1,,,,,,,,low,21,0,21,0,1,,,,,,,,,
298186,2022-11-14_09h33.04.705,vts_reward_expectancy_bt,2022.2.4,Win32,4.001008254,Chrome,1536,864,,,,,1,819,,,,,,,,,,,,,,,,,B,146,hexagon,1,1,,,,,,,,,,,,,,,,repeat,number,numRpt,j,0.6223,Lo,,,,,,1,,,,,,,,low,22,0,22,0,1,,,,,,,,,
298186,2022-11-14_09h33.04.705,vts_reward_expectancy_bt,2022.2.4,Win32,4.001008254,Chrome,1536,864,,,,,0,819,,,,,,,,,,,,,,,,,D,174,triangle,1,0,,,,,,,,,,,,,,,,repeat,number,numRpt,k,0.9061,Hi,,,,,,1,,,,,,,,low,23,0,23,0,1,,,,,,,,,
298186,2022-11-14_09h33.04.705,vts_reward_expectancy_bt,2022.2.4,Win32,4.001008254,Chrome,1536,864,,,,,10,829,,,,,,,,,,,,,,,,,F,132,circle,1,0,,,,,,,,,,,,,,,,switch,letter,lettSwt,d,0.6361,Hi,,,,,,1,,,,,,,,low,24,0,24,0,1,,,,,,,,,
298186,2022-11-14_09h33.04.705,vts_reward_expectancy_bt,2022.2.4,Win32,4.001008254,Chrome,1536,864,,,,,1,830,,,,,,,,,,,,,,,,,W,146,star,1,0,,,,,,,,,,,,,,,,switch,number,numSwt,j,0.9354,Lo,,,,,,1,,,,,,,,low,25,0,25,0,1,,,,,,,,,
298186,2022-11-14_09h33.04.705,vts_reward_expectancy_bt,2022.2.4,Win32,4.001008254,Chrome,1536,864,,,,,1,831,,,,,,,,,,,,,,,,,U,139,hexagon,1,0,,,,,,,,,,,,,,,,repeat,number,numRpt,j,0.6119,Lo,,,,,,1,,,,,,,,low,26,0,26,0,1,,,,,,,,,
298186,2022-11-14_09h33.04.705,vts_reward_expectancy_bt,2022.2.4,Win32,4.001008254,Chrome,1536,864,,,,,10,841,,,,,,,,,,,,,,,,,Y,160,triangle,1,0,,,,,,,,,,,,,,,,switch,letter,lettSwt,f,0.8756,Hi,,,,,,1,,,,,,,,low,27,0,27,0,1,,,,,,,,,
298186,2022-11-14_09h33.04.705,vts_reward_expectancy_bt,2022.2.4,Win32,4.001008254,Chrome,1536,864,,,,,0,841,,,,,,,,,,,,,,,,,S,181,star,0,0,,,,,,,,,,,,,,,,repeat,letter,NA,d,0.64,Hi,,,,,,1,,,,,,,,low,28,0,28,0,1,,,,,,,,,
298186,2022-11-14_09h33.04.705,vts_reward_expectancy_bt,2022.2.4,Win32,4.001008254,Chrome,1536,864,,,,,10,851,,,,,,,,,,,,,,,,,D,125,hexagon,1,1,,,,,,,,,,,,,,,,repeat,letter,lettRpt,d,0.6725,Lo,,,,,,1,,,,,,,,low,29,0,29,0,1,,,,,,,,,
298186,2022-11-14_09h33.04.705,vts_reward_expectancy_bt,2022.2.4,Win32,4.001008254,Chrome,1536,864,,,,,1,852,,,,,,,,,,,,,,,,,B,167,circle,1,0,,,,,,,,,,,,,,,,repeat,letter,lettRpt,d,0.6053,Hi,,,,,,1,,,,,,,,low,30,0,30,0,1,,,,,,,,,
298186,2022-11-14_09h33.04.705,vts_reward_expectancy_bt,2022.2.4,Win32,4.001008254,Chrome,1536,864,,,,,0,852,,,,,,,,,,,,,,,,,H,174,triangle,1,0,,,,,,,,,,,,,,,,repeat,letter,lettRpt,d,0.9098,Hi,,,,,,1,,,,,,,,low,31,0,31,0,1,,,,,,,,,
298186,2022-11-14_09h33.04.705,vts_reward_expectancy_bt,2022.2.4,Win32,4.001008254,Chrome,1536,864,,,,,1,853,,,,,,,,,,,,,,,,,W,139,hexagon,1,0,,,,,,,,,,,,,,,,switch,number,numSwt,j,0.589,Lo,,,,,,2,,,,,,space,2.2344,low,0,0,0,0,1,,,,,,,,,
298186,2022-11-14_09h33.04.705,vts_reward_expectancy_bt,2022.2.4,Win32,4.001008254,Chrome,1536,864,,,,,10,863,,,,,,,,,,,,,,,,,B,125,circle,1,0,,,,,,,,,,,,,,,,switch,letter,lettSwt,d,0.6029,Hi,,,,,,2,,,,,,,,low,1,0,1,0,1,,,,,,,,,
298186,2022-11-14_09h33.04.705,vts_reward_expectancy_bt,2022.2.4,Win32,4.001008254,Chrome,1536,864,,,,,10,873,,,,,,,,,,,,,,,,,S,174,triangle,1,0,,,,,,,,,,,,,,,,switch,number,numSwt,k,0.5972,Hi,,,,,,2,,,,,,,,low,2,0,2,0,1,,,,,,,,,
298186,2022-11-14_09h33.04.705,vts_reward_expectancy_bt,2022.2.4,Win32,4.001008254,Chrome,1536,864,,,,,1,874,,,,,,,,,,,,,,,,,Y,146,star,1,0,,,,,,,,,,,,,,,,switch,letter,lettSwt,f,0.6297,Lo,,,,,,2,,,,,,,,low,3,0,3,0,1,,,,,,,,,
298186,2022-11-14_09h33.04.705,vts_reward_expectancy_bt,2022.2.4,Win32,4.001008254,Chrome,1536,864,,,,,1,875,,,,,,,,,,,,,,,,,D,132,hexagon,1,0,,,,,,,,,,,,,,,,switch,number,numSwt,j,0.6095,Lo,,,,,,2,,,,,,,,low,4,0,4,0,1,,,,,,,,,
298186,2022-11-14_09h33.04.705,vts_reward_expectancy_bt,2022.2.4,Win32,4.001008254,Chrome,1536,864,,,,,0,875,,,,,,,,,,,,,,,,,H,181,circle,1,0,,,,,,,,,,,,,,,,switch,letter,lettSwt,d,0.896,Hi,,,,,,2,,,,,,,,low,5,0,5,0,1,,,,,,,,,
298186,2022-11-14_09h33.04.705,vts_reward_expectancy_bt,2022.2.4,Win32,4.001008254,Chrome,1536,864,,,,,0,875,,,,,,,,,,,,,,,,,F,167,triangle,0,0,,,,,,,,,,,,,,,,switch,number,NA,j,0.5998,Hi,,,,,,2,,,,,,,,low,6,0,6,0,1,,,,,,,,,
298186,2022-11-14_09h33.04.705,vts_reward_expectancy_bt,2022.2.4,Win32,4.001008254,Chrome,1536,864,,,,,10,885,,,,,,,,,,,,,,,,,U,160,star,1,1,,,,,,,,,,,,,,,,repeat,number,numRpt,k,0.8982,Lo,,,,,,2,,,,,,,,low,7,0,7,0,1,,,,,,,,,
298186,2022-11-14_09h33.04.705,vts_reward_expectancy_bt,2022.2.4,Win32,4.001008254,Chrome,1536,864,,,,,0,885,,,,,,,,,,,,,,,,,W,139,triangle,1,0,,,,,,,,,,,,,,,,switch,letter,lettSwt,f,0.896,Hi,,,,,,2,,,,,,,,low,8,0,8,0,1,,,,,,,,,
298186,2022-11-14_09h33.04.705,vts_reward_expectancy_bt,2022.2.4,Win32,4.001008254,Chrome,1536,864,,,,,10,895,,,,,,,,,,,,,,,,,B,125,circle,1,0,,,,,,,,,,,,,,,,switch,number,numSwt,j,0.6079,Hi,,,,,,2,,,,,,,,low,9,0,9,0,1,,,,,,,,,
298186,2022-11-14_09h33.04.705,vts_reward_expectancy_bt,2022.2.4,Win32,4.001008254,Chrome,1536,864,,,,,1,896,,,,,,,,,,,,,,,,,S,174,hexagon,1,0,,,,,,,,,,,,,,,,switch,letter,lettSwt,f,0.896,Lo,,,,,,2,,,,,,,,low,10,0,10,0,1,,,,,,,,,
298186,2022-11-14_09h33.04.705,vts_reward_expectancy_bt,2022.2.4,Win32,4.001008254,Chrome,1536,864,,,,,1,897,,,,,,,,,,,,,,,,,Y,146,star,1,0,,,,,,,,,,,,,,,,switch,number,numSwt,j,0.6386,Lo,,,,,,2,,,,,,,,low,11,0,11,0,1,,,,,,,,,
298186,2022-11-14_09h33.04.705,vts_reward_expectancy_bt,2022.2.4,Win32,4.001008254,Chrome,1536,864,,,,,1,898,,,,,,,,,,,,,,,,,D,132,triangle,1,0,,,,,,,,,,,,,,,,switch,letter,lettSwt,d,0.6473,Hi,,,,,,2,,,,,,,,low,12,0,12,0,1,,,,,,,,,
298186,2022-11-14_09h33.04.705,vts_reward_expectancy_bt,2022.2.4,Win32,4.001008254,Chrome,1536,864,,,,,1,899,,,,,,,,,,,,,,,,,H,181,circle,1,0,,,,,,,,,,,,,,,,switch,number,numSwt,k,0.6574,Hi,,,,,,2,,,,,,,,low,13,0,13,0,1,,,,,,,,,
298186,2022-11-14_09h33.04.705,vts_reward_expectancy_bt,2022.2.4,Win32,4.001008254,Chrome,1536,864,,,,,1,900,,,,,,,,,,,,,,,,,F,167,star,1,0,,,,,,,,,,,,,,,,switch,letter,lettSwt,d,0.6456,Lo,,,,,,2,,,,,,,,low,14,0,14,0,1,,,,,,,,,
298186,2022-11-14_09h33.04.705,vts_reward_expectancy_bt,2022.2.4,Win32,4.001008254,Chrome,1536,864,,,,,1,901,,,,,,,,,,,,,,,,,U,160,hexagon,1,0,,,,,,,,,,,,,,,,switch,number,numSwt,k,0.8902,Lo,,,,,,2,,,,,,,,low,15,0,15,0,1,,,,,,,,,
298186,2022-11-14_09h33.04.705,vts_reward_expectancy_bt,2022.2.4,Win32,4.001008254,Chrome,1536,864,,,,,10,911,,,,,,,,,,,,,,,,,Y,181,circle,1,0,,,,,,,,,,,,,,,,repeat,number,numRpt,k,0.619,Hi,,,,,,2,,,,,,,,low,16,0,16,0,1,,,,,,,,,
298186,2022-11-14_09h33.04.705,vts_reward_expectancy_bt,2022.2.4,Win32,4.001008254,Chrome,1536,864,,,,,0,911,,,,,,,,,,,,,,,,,S,139,triangle,1,0,,,,,,,,,,,,,,,,switch,letter,lettSwt,f,0.897,Hi,,,,,,2,,,,,,,,low,17,0,17,0,1,,,,,,,,,
298186,2022-11-14_09h33.04.705,vts_reward_expectancy_bt,2022.2.4,Win32,4.001008254,Chrome,1536,864,,,,,10,921,,,,,,,,,,,,,,,,,D,125,hexagon,1,0,,,,,,,,,,,,,,,,switch,number,numSwt,j,0.9133,Lo,,,,,,2,,,,,,,,low,18,0,18,0,1,,,,,,,,,
298186,2022-11-14_09h33.04.705,vts_reward_expectancy_bt,2022.2.4,Win32,4.001008254,Chrome,1536,864,,,,,1,922,,,,,,,,,,,,,,,,,U,146,star,1,0,,,,,,,,,,,,,,,,switch,letter,lettSwt,f,0.627,Lo,,,,,,2,,,,,,,,low,19,0,19,0,1,,,,,,,,,
298186,2022-11-14_09h33.04.705,vts_reward_expectancy_bt,2022.2.4,Win32,4.001008254,Chrome,1536,864,,,,,1,923,,,,,,,,,,,,,,,,,W,132,star,1,0,,,,,,,,,,,,,,,,switch,number,numSwt,j,0.6061,Lo,,,,,,2,,,,,,,,low,20,0,20,0,1,,,,,,,,,
298186,2022-11-14_09h33.04.705,vts_reward_expectancy_bt,2022.2.4,Win32,4.001008254,Chrome,1536,864,,,,,1,924,,,,,,,,,,,,,,,,,H,160,triangle,1,0,,,,,,,,,,,,,,,,switch,letter,lettSwt,d,0.8818,Hi,,,,,,2,,,,,,,,low,21,0,21,0,1,,,,,,,,,
298186,2022-11-14_09h33.04.705,vts_reward_expectancy_bt,2022.2.4,Win32,4.001008254,Chrome,1536,864,,,,,1,925,,,,,,,,,,,,,,,,,F,167,hexagon,1,0,,,,,,,,,,,,,,,,switch,number,numSwt,k,0.6266,Lo,,,,,,2,,,,,,,,low,22,0,22,0,1,,,,,,,,,
298186,2022-11-14_09h33.04.705,vts_reward_expectancy_bt,2022.2.4,Win32,4.001008254,Chrome,1536,864,,,,,0,925,,,,,,,,,,,,,,,,,B,174,circle,1,0,,,,,,,,,,,,,,,,repeat,number,numRpt,k,0.6557,Hi,,,,,,2,,,,,,,,low,23,0,23,0,1,,,,,,,,,
298186,2022-11-14_09h33.04.705,vts_reward_expectancy_bt,2022.2.4,Win32,4.001008254,Chrome,1536,864,,,,,0,925,,,,,,,,,,,,,,,,,H,181,circle,0,0,,,,,,,,,,,,,,,,switch,letter,NA,f,0.5972,Hi,,,,,,2,,,,,,,,low,24,0,24,0,1,,,,,,,,,
298186,2022-11-14_09h33.04.705,vts_reward_expectancy_bt,2022.2.4,Win32,4.001008254,Chrome,1536,864,,,,,1,926,,,,,,,,,,,,,,,,,D,167,hexagon,1,1,,,,,,,,,,,,,,,,repeat,letter,lettRpt,d,0.5933,Lo,,,,,,2,,,,,,,,low,25,0,25,0,1,,,,,,,,,
298186,2022-11-14_09h33.04.705,vts_reward_expectancy_bt,2022.2.4,Win32,4.001008254,Chrome,1536,864,,,,,10,936,,,,,,,,,,,,,,,,,F,160,star,1,0,,,,,,,,,,,,,,,,switch,number,numSwt,k,0.9037,Lo,,,,,,2,,,,,,,,low,26,0,26,0,1,,,,,,,,,
298186,2022-11-14_09h33.04.705,vts_reward_expectancy_bt,2022.2.4,Win32,4.001008254,Chrome,1536,864,,,,,0,936,,,,,,,,,,,,,,,,,B,125,triangle,1,0,,,,,,,,,,,,,,,,repeat,number,numRpt,j,0.8948,Hi,,,,,,2,,,,,,,,low,27,0,27,0,1,,,,,,,,,
298186,2022-11-14_09h33.04.705,vts_reward_expectancy_bt,2022.2.4,Win32,4.001008254,Chrome,1536,864,,,,,10,946,,,,,,,,,,,,,,,,,W,174,star,1,0,,,,,,,,,,,,,,,,switch,letter,lettSwt,f,0.6346,Lo,,,,,,2,,,,,,,,low,28,0,28,0,1,,,,,,,,,
298186,2022-11-14_09h33.04.705,vts_reward_expectancy_bt,2022.2.4,Win32,4.001008254,Chrome,1536,864,,,,,1,947,,,,,,,,,,,,,,,,,S,139,hexagon,1,0,,,,,,,,,,,,,,,,switch,number,numSwt,j,0.9286,Lo,,,,,,2,,,,,,,,low,29,0,29,0,1,,,,,,,,,
298186,2022-11-14_09h33.04.705,vts_reward_expectancy_bt,2022.2.4,Win32,4.001008254,Chrome,1536,864,,,,,0,947,,,,,,,,,,,,,,,,,U,132,triangle,1,0,,,,,,,,,,,,,,,,switch,letter,lettSwt,f,0.9302,Hi,,,,,,2,,,,,,,,low,30,0,30,0,1,,,,,,,,,
298186,2022-11-14_09h33.04.705,vts_reward_expectancy_bt,2022.2.4,Win32,4.001008254,Chrome,1536,864,,,,,10,957,,,,,,,,,,,,,,,,,Y,146,circle,1,0,,,,,,,,,,,,,,,,switch,number,numSwt,j,0.6257,Hi,,,,,,2,,,,,,,,low,31,0,31,0,1,,,,,,,,,
298186,2022-11-14_09h33.04.705,vts_reward_expectancy_bt,2022.2.4,Win32,4.001008254,Chrome,1536,864,,,,,1,958,,,,,,,,,,,,,,,,,B,146,circle,1,0,,,,,,,,,,,,,,,,switch,letter,lettSwt,d,0.5974,Hi,,,,,,3,,,,,,space,1.202,low,0,0,0,0,1,,,,,,,,,
298186,2022-11-14_09h33.04.705,vts_reward_expectancy_bt,2022.2.4,Win32,4.001008254,Chrome,1536,864,,,,,1,959,,,,,,,,,,,,,,,,,W,181,hexagon,1,0,,,,,,,,,,,,,,,,switch,number,numSwt,k,0.8906,Lo,,,,,,3,,,,,,,,low,1,0,1,0,1,,,,,,,,,
298186,2022-11-14_09h33.04.705,vts_reward_expectancy_bt,2022.2.4,Win32,4.001008254,Chrome,1536,864,,,,,10,969,,,,,,,,,,,,,,,,,U,132,star,1,0,,,,,,,,,,,,,,,,repeat,number,numRpt,j,0.8793,Lo,,,,,,3,,,,,,,,low,2,0,2,0,1,,,,,,,,,
298186,2022-11-14_09h33.04.705,vts_reward_expectancy_bt,2022.2.4,Win32,4.001008254,Chrome,1536,864,,,,,0,969,,,,,,,,,,,,,,,,,S,125,triangle,1,0,,,,,,,,,,,,,,,,switch,letter,lettSwt,f,0.934,Hi,,,,,,3,,,,,,,,low,3,0,3,0,1,,,,,,,,,
298186,2022-11-14_09h33.04.705,vts_reward_expectancy_bt,2022.2.4,Win32,4.001008254,Chrome,1536,864,,,,,1,970,,,,,,,,,,,,,,,,,H,160,circle,1,0,,,,,,,,,,,,,,,,switch,number,numSwt,k,0.6047,Hi,,,,,,3,,,,,,,,low,4,0,4,0,1,,,,,,,,,
298186,2022-11-14_09h33.04.705,vts_reward_expectancy_bt,2022.2.4,Win32,4.001008254,Chrome,1536,864,,,,,1,971,,,,,,,,,,,,,,,,,Y,167,hexagon,1,0,,,,,,,,,,,,,,,,switch,letter,lettSwt,f,0.9754,Lo,,,,,,3,,,,,,,,low,5,0,5,0,1,,,,,,,,,
298186,2022-11-14_09h33.04.705,vts_reward_expectancy_bt,2022.2.4,Win32,4.001008254,Chrome,1536,864,,,,,0,971,,,,,,,,,,,,,,,,,D,139,star,0,0,,,,,,,,,,,,,,,,repeat,letter,NA,f,0.6146,Lo,,,,,,3,,,,,,,,low,6,0,6,0,1,,,,,,,,,
298186,2022-11-14_09h33.04.705,vts_reward_expectancy_bt,2022.2.4,Win32,4.001008254,Chrome,1536,864,,,,,0,971,,,,,,,,,,,,,,,,,F,174,triangle,1,1,,,,,,,,,,,,,,,,switch,number,numSwt,k,0.6504,Hi,,,,,,3,,,,,,,,low,7,0,7,0,1,,,,,,,,,
298186,2022-11-14_09h33.04.705,vts_reward_expectancy_bt,2022.2.4,Win32,4.001008254,Chrome,1536,864,,,,,10,981,,,,,,,,,,,,,,,,,B,146,triangle,1,0,,,,,,,,,,,,,,,,switch,letter,lettSwt,d,0.6367,Hi,,,,,,3,,,,,,,,low,8,0,8,0,1,,,,,,,,,
298186,2022-11-14_09h33.04.705,vts_reward_expectancy_bt,2022.2.4,Win32,4.001008254,Chrome,1536,864,,,,,10,991,,,,,,,,,,,,,,,,,W,181,star,1,0,,,,,,,,,,,,,,,,repeat,letter,lettRpt,f,0.9129,Lo,,,,,,3,,,,,,,,low,9,0,9,0,1,,,,,,,,,
298186,2022-11-14_09h33.04.705,vts_reward_expectancy_bt,2022.2.4,Win32,4.001008254,Chrome,1536,864,,,,,1,992,,,,,,,,,,,,,,,,,U,132,hexagon,1,0,,,,,,,,,,,,,,,,switch,number,numSwt,j,0.9046,Lo,,,,,,3,,,,,,,,low,10,0,10,0,1,,,,,,,,,
298186,2022-11-14_09h33.04.705,vts_reward_expectancy_bt,2022.2.4,Win32,4.001008254,Chrome,1536,864,,,,,0,992,,,,,,,,,,,,,,,,,S,125,circle,1,0,,,,,,,,,,,,,,,,switch,letter,lettSwt,f,0.9197,Hi,,,,,,3,,,,,,,,low,11,0,11,0,1,,,,,,,,,
298186,2022-11-14_09h33.04.705,vts_reward_expectancy_bt,2022.2.4,Win32,4.001008254,Chrome,1536,864,,,,,0,992,,,,,,,,,,,,,,,,,H,160,circle,1,0,,,,,,,,,,,,,,,,switch,number,numSwt,k,0.9113,Hi,,,,,,3,,,,,,,,low,12,0,12,0,1,,,,,,,,,
298186,2022-11-14_09h33.04.705,vts_reward_expectancy_bt,2022.2.4,Win32,4.001008254,Chrome,1536,864,,,,,1,993,,,,,,,,,,,,,,,,,Y,167,star,1,0,,,,,,,,,,,,,,,,switch,letter,lettSwt,f,0.674,Lo,,,,,,3,,,,,,,,low,13,0,13,0,1,,,,,,,,,
298186,2022-11-14_09h33.04.705,vts_reward_expectancy_bt,2022.2.4,Win32,4.001008254,Chrome,1536,864,,,,,0,993,,,,,,,,,,,,,,,,,D,139,triangle,1,0,,,,,,,,,,,,,,,,switch,number,numSwt,j,0.8921,Hi,,,,,,3,,,,,,,,low,14,0,14,0,1,,,,,,,,,
298186,2022-11-14_09h33.04.705,vts_reward_expectancy_bt,2022.2.4,Win32,4.001008254,Chrome,1536,864,,,,,1,994,,,,,,,,,,,,,,,,,F,174,hexagon,1,0,,,,,,,,,,,,,,,,switch,letter,lettSwt,d,1.238,Lo,,,,,,3,,,,,,,,low,15,0,15,0,1,,,,,,,,,
298186,2022-11-14_09h33.04.705,vts_reward_expectancy_bt,2022.2.4,Win32,4.001008254,Chrome,1536,864,,,,,0,994,,,,,,,,,,,,,,,,,D,146,triangle,1,0,,,,,,,,,,,,,,,,switch,number,numSwt,j,0.9623,Hi,,,,,,3,,,,,,,,low,16,0,16,0,1,,,,,,,,,
298186,2022-11-14_09h33.04.705,vts_reward_expectancy_bt,2022.2.4,Win32,4.001008254,Chrome,1536,864,,,,,10,1004,,,,,,,,,,,,,,,,,Y,132,star,1,0,,,,,,,,,,,,,,,,switch,letter,lettSwt,f,0.9227,Lo,,,,,,3,,,,,,,,low,17,0,17,0,1,,,,,,,,,
298186,2022-11-14_09h33.04.705,vts_reward_expectancy_bt,2022.2.4,Win32,4.001008254,Chrome,1536,864,,,,,0,1004,,,,,,,,,,,,,,,,,U,125,circle,1,0,,,,,,,,,,,,,,,,switch,number,numSwt,j,0.9107,Hi,,,,,,3,,,,,,,,low,18,0,18,0,1,,,,,,,,,
298186,2022-11-14_09h33.04.705,vts_reward_expectancy_bt,2022.2.4,Win32,4.001008254,Chrome,1536,864,,,,,1,1005,,,,,,,,,,,,,,,,,W,174,hexagon,1,0,,,,,,,,,,,,,,,,switch,letter,lettSwt,f,0.8955,Lo,,,,,,3,,,,,,,,low,19,0,19,0,1,,,,,,,,,
298186,2022-11-14_09h33.04.705,vts_reward_expectancy_bt,2022.2.4,Win32,4.001008254,Chrome,1536,864,,,,,0,1005,,,,,,,,,,,,,,,,,S,167,circle,0,0,,,,,,,,,,,,,,,,switch,number,NA,j,0.8942,Lo,,,,,,3,,,,,,,,low,20,0,20,0,1,,,,,,,,,
298186,2022-11-14_09h33.04.705,vts_reward_expectancy_bt,2022.2.4,Win32,4.001008254,Chrome,1536,864,,,,,1,1006,,,,,,,,,,,,,,,,,B,160,star,1,1,,,,,,,,,,,,,,,,repeat,number,numRpt,k,0.8945,Lo,,,,,,3,,,,,,,,low,21,0,21,0,1,,,,,,,,,
298186,2022-11-14_09h33.04.705,vts_reward_expectancy_bt,2022.2.4,Win32,4.001008254,Chrome,1536,864,,,,,0,1006,,,,,,,,,,,,,,,,,H,181,triangle,1,0,,,,,,,,,,,,,,,,switch,letter,lettSwt,d,0.9308,Hi,,,,,,3,,,,,,,,low,22,0,22,0,1,,,,,,,,,
298186,2022-11-14_09h33.04.705,vts_reward_expectancy_bt,2022.2.4,Win32,4.001008254,Chrome,1536,864,,,,,1,1007,,,,,,,,,,,,,,,,,F,139,hexagon,1,0,,,,,,,,,,,,,,,,switch,number,numSwt,j,0.8649,Lo,,,,,,3,,,,,,,,low,23,0,23,0,1,,,,,,,,,
298186,2022-11-14_09h33.04.705,vts_reward_expectancy_bt,2022.2.4,Win32,4.001008254,Chrome,1536,864,,,,,1,1008,,,,,,,,,,,,,,,,,Y,181,triangle,1,0,,,,,,,,,,,,,,,,switch,letter,lettSwt,f,0.6149,Hi,,,,,,3,,,,,,,,low,24,0,24,0,1,,,,,,,,,
298186,2022-11-14_09h33.04.705,vts_reward_expectancy_bt,2022.2.4,Win32,4.001008254,Chrome,1536,864,,,,,0,1008,,,,,,,,,,,,,,,,,F,139,circle,1,0,,,,,,,,,,,,,,,,switch,number,numSwt,j,0.8791,Hi,,,,,,3,,,,,,,,low,25,0,25,0,1,,,,,,,,,
298186,2022-11-14_09h33.04.705,vts_reward_expectancy_bt,2022.2.4,Win32,4.001008254,Chrome,1536,864,,,,,10,1018,,,,,,,,,,,,,,,,,U,132,hexagon,1,0,,,,,,,,,,,,,,,,switch,letter,lettSwt,f,0.6032,Lo,,,,,,3,,,,,,,,low,26,0,26,0,1,,,,,,,,,
298186,2022-11-14_09h33.04.705,vts_reward_expectancy_bt,2022.2.4,Win32,4.001008254,Chrome,1536,864,,,,,1,1019,,,,,,,,,,,,,,,,,S,125,star,1,0,,,,,,,,,,,,,,,,repeat,letter,lettRpt,f,0.6047,Lo,,,,,,3,,,,,,,,low,27,0,27,0,1,,,,,,,,,
298186,2022-11-14_09h33.04.705,vts_reward_expectancy_bt,2022.2.4,Win32,4.001008254,Chrome,1536,864,,,,,0,1019,,,,,,,,,,,,,,,,,D,167,circle,1,0,,,,,,,,,,,,,,,,switch,number,numSwt,k,0.8935,Hi,,,,,,3,,,,,,,,low,28,0,28,0,1,,,,,,,,,
298186,2022-11-14_09h33.04.705,vts_reward_expectancy_bt,2022.2.4,Win32,4.001008254,Chrome,1536,864,,,,,10,1029,,,,,,,,,,,,,,,,,B,174,star,1,0,,,,,,,,,,,,,,,,switch,letter,lettSwt,d,0.6084,Lo,,,,,,3,,,,,,,,low,29,0,29,0,1,,,,,,,,,
298186,2022-11-14_09h33.04.705,vts_reward_expectancy_bt,2022.2.4,Win32,4.001008254,Chrome,1536,864,,,,,0,1029,,,,,,,,,,,,,,,,,W,146,triangle,1,0,,,,,,,,,,,,,,,,switch,number,numSwt,j,1.0055,Hi,,,,,,3,,,,,,,,low,30,0,30,0,1,,,,,,,,,
298186,2022-11-14_09h33.04.705,vts_reward_expectancy_bt,2022.2.4,Win32,4.001008254,Chrome,1536,864,,,,,10,1039,,,,,,,,,,,,,,,,,H,160,hexagon,1,0,,,,,,,,,,,,,,,,switch,letter,lettSwt,d,0.9216,Lo,,,,,,3,,,,,,,,low,31,0,31,0,1,,,,,,,,,
298186,2022-11-14_09h33.04.705,vts_reward_expectancy_bt,2022.2.4,Win32,4.001008254,Chrome,1536,864,,,,,10,1049,,,,,,,,,,,,,,,,,Y,146,hexagon,1,0,,,,,,,,,,,,,,,,switch,number,numSwt,j,0.9211,Lo,,,,,,4,,,,,,space,1.2296,low,0,0,0,0,1,,,,,,,,,
298186,2022-11-14_09h33.04.705,vts_reward_expectancy_bt,2022.2.4,Win32,4.001008254,Chrome,1536,864,,,,,1,1050,,,,,,,,,,,,,,,,,D,132,triangle,1,0,,,,,,,,,,,,,,,,switch,letter,lettSwt,d,0.5944,Hi,,,,,,4,,,,,,,,low,1,0,1,0,1,,,,,,,,,
298186,2022-11-14_09h33.04.705,vts_reward_expectancy_bt,2022.2.4,Win32,4.001008254,Chrome,1536,864,,,,,10,1060,,,,,,,,,,,,,,,,,S,125,circle,1,0,,,,,,,,,,,,,,,,switch,number,numSwt,j,0.6268,Hi,,,,,,4,,,,,,,,low,2,0,2,0,1,,,,,,,,,
298186,2022-11-14_09h33.04.705,vts_reward_expectancy_bt,2022.2.4,Win32,4.001008254,Chrome,1536,864,,,,,1,1061,,,,,,,,,,,,,,,,,B,167,star,1,0,,,,,,,,,,,,,,,,switch,letter,lettSwt,d,0.9244,Lo,,,,,,4,,,,,,,,low,3,0,3,0,1,,,,,,,,,
298186,2022-11-14_09h33.04.705,vts_reward_expectancy_bt,2022.2.4,Win32,4.001008254,Chrome,1536,864,,,,,1,1062,,,,,,,,,,,,,,,,,W,181,hexagon,1,0,,,,,,,,,,,,,,,,repeat,letter,lettRpt,f,0.8985,Lo,,,,,,4,,,,,,,,low,4,0,4,0,1,,,,,,,,,
298186,2022-11-14_09h33.04.705,vts_reward_expectancy_bt,2022.2.4,Win32,4.001008254,Chrome,1536,864,,,,,1,1063,,,,,,,,,,,,,,,,,U,139,triangle,1,0,,,,,,,,,,,,,,,,switch,number,numSwt,j,0.6149,Hi,,,,,,4,,,,,,,,low,5,0,5,0,1,,,,,,,,,
298186,2022-11-14_09h33.04.705,vts_reward_expectancy_bt,2022.2.4,Win32,4.001008254,Chrome,1536,864,,,,,0,1063,,,,,,,,,,,,,,,,,H,174,circle,1,0,,,,,,,,,,,,,,,,switch,letter,lettSwt,d,0.8825,Hi,,,,,,4,,,,,,,,low,6,0,6,0,1,,,,,,,,,
298186,2022-11-14_09h33.04.705,vts_reward_expectancy_bt,2022.2.4,Win32,4.001008254,Chrome,1536,864,,,,,1,1064,,,,,,,,,,,,,,,,,F,160,star,1,0,,,,,,,,,,,,,,,,switch,number,numSwt,k,0.8984,Lo,,,,,,4,,,,,,,,low,7,0,7,0,1,,,,,,,,,
298186,2022-11-14_09h33.04.705,vts_reward_expectancy_bt,2022.2.4,Win32,4.001008254,Chrome,1536,864,,,,,0,1064,,,,,,,,,,,,,,,,,Y,146,circle,1,0,,,,,,,,,,,,,,,,switch,letter,lettSwt,f,0.8866,Hi,,,,,,4,,,,,,,,low,8,0,8,0,1,,,,,,,,,
298186,2022-11-14_09h33.04.705,vts_reward_expectancy_bt,2022.2.4,Win32,4.001008254,Chrome,1536,864,,,,,10,1074,,,,,,,,,,,,,,,,,D,132,star,1,0,,,,,,,,,,,,,,,,repeat,letter,lettRpt,d,0.9344,Lo,,,,,,4,,,,,,,,low,9,0,9,0,1,,,,,,,,,
298186,2022-11-14_09h33.04.705,vts_reward_expectancy_bt,2022.2.4,Win32,4.001008254,Chrome,1536,864,,,,,1,1075,,,,,,,,,,,,,,,,,S,125,triangle,1,0,,,,,,,,,,,,,,,,switch,number,numSwt,j,0.5858,Hi,,,,,,4,,,,,,,,low,10,0,10,0,1,,,,,,,,,
298186,2022-11-14_09h33.04.705,vts_reward_expectancy_bt,2022.2.4,Win32,4.001008254,Chrome,1536,864,,,,,10,1085,,,,,,,,,,,,,,,,,B,167,hexagon,1,0,,,,,,,,,,,,,,,,switch,letter,lettSwt,d,0.6269,Lo,,,,,,4,,,,,,,,low,11,0,11,0,1,,,,,,,,,
298186,2022-11-14_09h33.04.705,vts_reward_expectancy_bt,2022.2.4,Win32,4.001008254,Chrome,1536,864,,,,,10,1095,,,,,,,,,,,,,,,,,W,181,triangle,1,0,,,,,,,,,,,,,,,,switch,number,numSwt,k,0.8796,Hi,,,,,,4,,,,,,,,low,12,0,12,0,1,,,,,,,,,
298186,2022-11-14_09h33.04.705,vts_reward_expectancy_bt,2022.2.4,Win32,4.001008254,Chrome,1536,864,,,,,10,1105,,,,,,,,,,,,,,,,,U,139,star,1,0,,,,,,,,,,,,,,,,switch,letter,lettSwt,f,0.5916,Lo,,,,,,4,,,,,,,,low,13,0,13,0,1,,,,,,,,,
298186,2022-11-14_09h33.04.705,vts_reward_expectancy_bt,2022.2.4,Win32,4.001008254,Chrome,1536,864,,,,,0,1105,,,,,,,,,,,,,,,,,H,174,circle,1,0,,,,,,,,,,,,,,,,switch,number,numSwt,k,1.1616,Hi,,,,,,4,,,,,,,,low,14,0,14,0,1,,,,,,,,,
298186,2022-11-14_09h33.04.705,vts_reward_expectancy_bt,2022.2.4,Win32,4.001008254,Chrome,1536,864,,,,,1,1106,,,,,,,,,,,,,,,,,F,160,hexagon,1,0,,,,,,,,,,,,,,,,switch,letter,lettSwt,d,0.6684,Lo,,,,,,4,,,,,,,,low,15,0,15,0,1,,,,,,,,,
298186,2022-11-14_09h33.04.705,vts_reward_expectancy_bt,2022.2.4,Win32,4.001008254,Chrome,1536,864,,,,,10,1116,,,,,,,,,,,,,,,,,H,132,circle,1,0,,,,,,,,,,,,,,,,switch,number,numSwt,j,0.8834,Hi,,,,,,4,,,,,,,,low,16,0,16,0,1,,,,,,,,,
298186,2022-11-14_09h33.04.705,vts_reward_expectancy_bt,2022.2.4,Win32,4.001008254,Chrome,1536,864,,,,,1,1117,,,,,,,,,,,,,,,,,S,125,star,1,0,,,,,,,,,,,,,,,,switch,letter,lettSwt,f,0.8859,Lo,,,,,,4,,,,,,,,low,17,0,17,0,1,,,,,,,,,
298186,2022-11-14_09h33.04.705,vts_reward_expectancy_bt,2022.2.4,Win32,4.001008254,Chrome,1536,864,,,,,0,1117,,,,,,,,,,,,,,,,,D,146,triangle,1,0,,,,,,,,,,,,,,,,switch,number,numSwt,j,1.1907,Hi,,,,,,4,,,,,,,,low,18,0,18,0,1,,,,,,,,,
298186,2022-11-14_09h33.04.705,vts_reward_expectancy_bt,2022.2.4,Win32,4.001008254,Chrome,1536,864,,,,,1,1118,,,,,,,,,,,,,,,,,B,139,hexagon,1,0,,,,,,,,,,,,,,,,switch,letter,lettSwt,d,0.9289,Lo,,,,,,4,,,,,,,,low,19,0,19,0,1,,,,,,,,,
298186,2022-11-14_09h33.04.705,vts_reward_expectancy_bt,2022.2.4,Win32,4.001008254,Chrome,1536,864,,,,,1,1119,,,,,,,,,,,,,,,,,Y,174,star,1,0,,,,,,,,,,,,,,,,switch,number,numSwt,k,0.9252,Lo,,,,,,4,,,,,,,,low,20,0,20,0,1,,,,,,,,,
298186,2022-11-14_09h33.04.705,vts_reward_expectancy_bt,2022.2.4,Win32,4.001008254,Chrome,1536,864,,,,,10,1129,,,,,,,,,,,,,,,,,W,167,circle,1,0,,,,,,,,,,,,,,,,switch,letter,lettSwt,f,0.6078,Hi,,,,,,4,,,,,,,,low,21,0,21,0,1,,,,,,,,,
298186,2022-11-14_09h33.04.705,vts_reward_expectancy_bt,2022.2.4,Win32,4.001008254,Chrome,1536,864,,,,,0,1129,,,,,,,,,,,,,,,,,F,160,triangle,1,0,,,,,,,,,,,,,,,,switch,number,numSwt,k,0.8926,Hi,,,,,,4,,,,,,,,low,22,0,22,0,1,,,,,,,,,
298186,2022-11-14_09h33.04.705,vts_reward_expectancy_bt,2022.2.4,Win32,4.001008254,Chrome,1536,864,,,,,10,1139,,,,,,,,,,,,,,,,,U,181,hexagon,1,0,,,,,,,,,,,,,,,,switch,letter,lettSwt,f,0.6369,Lo,,,,,,4,,,,,,,,low,23,0,23,0,1,,,,,,,,,
298186,2022-11-14_09h33.04.705,vts_reward_expectancy_bt,2022.2.4,Win32,4.001008254,Chrome,1536,864,,,,,1,1140,,,,,,,,,,,,,,,,,Y,181,triangle,1,0,,,,,,,,,,,,,,,,switch,number,numSwt,k,0.6349,Hi,,,,,,4,,,,,,,,low,24,0,24,0,1,,,,,,,,,
298186,2022-11-14_09h33.04.705,vts_reward_expectancy_bt,2022.2.4,Win32,4.001008254,Chrome,1536,864,,,,,10,1150,,,,,,,,,,,,,,,,,B,139,circle,1,0,,,,,,,,,,,,,,,,switch,letter,lettSwt,d,0.5968,Hi,,,,,,4,,,,,,,,low,25,0,25,0,1,,,,,,,,,
298186,2022-11-14_09h33.04.705,vts_reward_expectancy_bt,2022.2.4,Win32,4.001008254,Chrome,1536,864,,,,,1,1151,,,,,,,,,,,,,,,,,F,167,star,1,0,,,,,,,,,,,,,,,,switch,number,numSwt,k,1.5082,Lo,,,,,,4,,,,,,,,low,26,0,26,0,1,,,,,,,,,
298186,2022-11-14_09h33.04.705,vts_reward_expectancy_bt,2022.2.4,Win32,4.001008254,Chrome,1536,864,,,,,10,1161,,,,,,,,,,,,,,,,,U,146,hexagon,1,0,,,,,,,,,,,,,,,,switch,letter,lettSwt,f,0.9385,Lo,,,,,,4,,,,,,,,low,27,0,27,0,1,,,,,,,,,
298186,2022-11-14_09h33.04.705,vts_reward_expectancy_bt,2022.2.4,Win32,4.001008254,Chrome,1536,864,,,,,0,1161,,,,,,,,,,,,,,,,,D,132,circle,1,0,,,,,,,,,,,,,,,,switch,number,numSwt,j,0.8911,Hi,,,,,,4,,,,,,,,low,28,0,28,0,1,,,,,,,,,
298186,2022-11-14_09h33.04.705,vts_reward_expectancy_bt,2022.2.4,Win32,4.001008254,Chrome,1536,864,,,,,0,1161,,,,,,,,,,,,,,,,,H,160,hexagon,0,0,,,,,,,,,,,,,,,,switch,letter,NA,f,0.6245,Hi,,,,,,4,,,,,,,,low,29,0,29,0,1,,,,,,,,,
298186,2022-11-14_09h33.04.705,vts_reward_expectancy_bt,2022.2.4,Win32,4.001008254,Chrome,1536,864,,,,,10,1171,,,,,,,,,,,,,,,,,S,174,star,1,1,,,,,,,,,,,,,,,,repeat,letter,lettRpt,f,0.6223,Lo,,,,,,4,,,,,,,,low,30,0,30,0,1,,,,,,,,,
298186,2022-11-14_09h33.04.705,vts_reward_expectancy_bt,2022.2.4,Win32,4.001008254,Chrome,1536,864,,,,,10,1181,,,,,,,,,,,,,,,,,W,125,triangle,1,0,,,,,,,,,,,,,,,,repeat,letter,lettRpt,f,0.6314,Hi,,,,,,4,,,,,,,,low,31,0,31,0,1,,,,,,,,,
298186,2022-11-14_09h33.04.705,vts_reward_expectancy_bt,2022.2.4,Win32,4.001008254,Chrome,1536,864,,,,,1,1182,,,,,,,,,,,,,,,,,F,125,hexagon,1,0,,,,,,,,,,,,,,,,repeat,letter,lettRpt,d,0.9649,Lo,,,,,,5,,,,,,space,0.3244,low,0,0,0,0,1,,,,,,,,,
298186,2022-11-14_09h33.04.705,vts_reward_expectancy_bt,2022.2.4,Win32,4.001008254,Chrome,1536,864,,,,,10,1192,,,,,,,,,,,,,,,,,B,167,circle,1,0,,,,,,,,,,,,,,,,switch,number,numSwt,k,0.6153,Hi,,,,,,5,,,,,,,,low,1,0,1,0,1,,,,,,,,,
298186,2022-11-14_09h33.04.705,vts_reward_expectancy_bt,2022.2.4,Win32,4.001008254,Chrome,1536,864,,,,,10,1202,,,,,,,,,,,,,,,,,Y,146,star,1,0,,,,,,,,,,,,,,,,switch,letter,lettSwt,f,0.6028,Lo,,,,,,5,,,,,,,,low,2,0,2,0,1,,,,,,,,,
298186,2022-11-14_09h33.04.705,vts_reward_expectancy_bt,2022.2.4,Win32,4.001008254,Chrome,1536,864,,,,,1,1203,,,,,,,,,,,,,,,,,H,160,triangle,1,0,,,,,,,,,,,,,,,,switch,number,numSwt,k,0.6093,Hi,,,,,,5,,,,,,,,low,3,0,3,0,1,,,,,,,,,
298186,2022-11-14_09h33.04.705,vts_reward_expectancy_bt,2022.2.4,Win32,4.001008254,Chrome,1536,864,,,,,10,1213,,,,,,,,,,,,,,,,,U,132,hexagon,1,0,,,,,,,,,,,,,,,,switch,letter,lettSwt,f,1.2831,Lo,,,,,,5,,,,,,,,low,4,0,4,0,1,,,,,,,,,
298186,2022-11-14_09h33.04.705,vts_reward_expectancy_bt,2022.2.4,Win32,4.001008254,Chrome,1536,864,,,,,0,1213,,,,,,,,,,,,,,,,,W,139,circle,1,0,,,,,,,,,,,,,,,,repeat,letter,lettRpt,f,1.2056,Hi,,,,,,5,,,,,,,,low,5,0,5,0,1,,,,,,,,,
298186,2022-11-14_09h33.04.705,vts_reward_expectancy_bt,2022.2.4,Win32,4.001008254,Chrome,1536,864,,,,,10,1223,,,,,,,,,,,,,,,,,D,174,star,1,0,,,,,,,,,,,,,,,,switch,number,numSwt,k,1.4636,Lo,,,,,,5,,,,,,,,low,6,0,6,0,1,,,,,,,,,
298186,2022-11-14_09h33.04.705,vts_reward_expectancy_bt,2022.2.4,Win32,4.001008254,Chrome,1536,864,,,,,10,1233,,,,,,,,,,,,,,,,,S,181,triangle,1,0,,,,,,,,,,,,,,,,repeat,number,numRpt,k,0.8956,Hi,,,,,,5,,,,,,,,low,7,0,7,0,1,,,,,,,,,
298186,2022-11-14_09h33.04.705,vts_reward_expectancy_bt,2022.2.4,Win32,4.001008254,Chrome,1536,864,,,,,0,1233,,,,,,,,,,,,,,,,,F,125,triangle,1,0,,,,,,,,,,,,,,,,switch,letter,lettSwt,d,1.5183,Hi,,,,,,5,,,,,,,,low,8,0,8,0,1,,,,,,,,,
298186,2022-11-14_09h33.04.705,vts_reward_expectancy_bt,2022.2.4,Win32,4.001008254,Chrome,1536,864,,,,,10,1243,,,,,,,,,,,,,,,,,B,167,star,1,0,,,,,,,,,,,,,,,,repeat,letter,lettRpt,d,0.9113,Lo,,,,,,5,,,,,,,,low,9,0,9,0,1,,,,,,,,,
298186,2022-11-14_09h33.04.705,vts_reward_expectancy_bt,2022.2.4,Win32,4.001008254,Chrome,1536,864,,,,,0,1243,,,,,,,,,,,,,,,,,Y,146,circle,1,0,,,,,,,,,,,,,,,,repeat,letter,lettRpt,f,0.908,Hi,,,,,,5,,,,,,,,low,10,0,10,0,1,,,,,,,,,
298186,2022-11-14_09h33.04.705,vts_reward_expectancy_bt,2022.2.4,Win32,4.001008254,Chrome,1536,864,,,,,10,1253,,,,,,,,,,,,,,,,,H,160,hexagon,1,0,,,,,,,,,,,,,,,,switch,number,numSwt,k,0.8709,Lo,,,,,,5,,,,,,,,low,11,0,11,0,1,,,,,,,,,
298186,2022-11-14_09h33.04.705,vts_reward_expectancy_bt,2022.2.4,Win32,4.001008254,Chrome,1536,864,,,,,10,1263,,,,,,,,,,,,,,,,,U,132,circle,1,0,,,,,,,,,,,,,,,,repeat,number,numRpt,j,0.6216,Hi,,,,,,5,,,,,,,,low,12,0,12,0,1,,,,,,,,,
298186,2022-11-14_09h33.04.705,vts_reward_expectancy_bt,2022.2.4,Win32,4.001008254,Chrome,1536,864,,,,,10,1273,,,,,,,,,,,,,,,,,W,139,star,1,0,,,,,,,,,,,,,,,,switch,letter,lettSwt,f,0.909,Lo,,,,,,5,,,,,,,,low,13,0,13,0,1,,,,,,,,,
298186,2022-11-14_09h33.04.705,vts_reward_expectancy_bt,2022.2.4,Win32,4.001008254,Chrome,1536,864,,,,,10,1283,,,,,,,,,,,,,,,,,D,174,triangle,1,0,,,,,,,,,,,,,,,,switch,number,numSwt,k,0.6267,Hi,,,,,,5,,,,,,,,low,14,0,14,0,1,,,,,,,,,
298186,2022-11-14_09h33.04.705,vts_reward_expectancy_bt,2022.2.4,Win32,4.001008254,Chrome,1536,864,,,,,1,1284,,,,,,,,,,,,,,,,,S,181,hexagon,1,0,,,,,,,,,,,,,,,,switch,letter,lettSwt,f,0.604,Lo,,,,,,5,,,,,,,,low,15,0,15,0,1,,,,,,,,,
298186,2022-11-14_09h33.04.705,vts_reward_expectancy_bt,2022.2.4,Win32,4.001008254,Chrome,1536,864,,,,,0,1284,,,,,,,,,,,,,,,,,W,132,triangle,1,0,,,,,,,,,,,,,,,,switch,number,numSwt,j,0.9023,Hi,,,,,,5,,,,,,,,low,16,0,16,0,1,,,,,,,,,
298186,2022-11-14_09h33.04.705,vts_reward_expectancy_bt,2022.2.4,Win32,4.001008254,Chrome,1536,864,,,,,0,1284,,,,,,,,,,,,,,,,,Y,160,circle,1,0,,,,,,,,,,,,,,,,switch,letter,lettSwt,f,0.9325,Hi,,,,,,5,,,,,,,,low,17,0,17,0,1,,,,,,,,,
298186,2022-11-14_09h33.04.705,vts_reward_expectancy_bt,2022.2.4,Win32,4.001008254,Chrome,1536,864,,,,,1,1285,,,,,,,,,,,,,,,,,S,181,hexagon,1,0,,,,,,,,,,,,,,,,repeat,letter,lettRpt,f,0.8944,Lo,,,,,,5,,,,,,,,low,18,0,18,0,1,,,,,,,,,
298186,2022-11-14_09h33.04.705,vts_reward_expectancy_bt,2022.2.4,Win32,4.001008254,Chrome,1536,864,,,,,10,1295,,,,,,,,,,,,,,,,,F,139,star,1,0,,,,,,,,,,,,,,,,repeat,letter,lettRpt,d,0.8821,Lo,,,,,,5,,,,,,,,low,19,0,19,0,1,,,,,,,,,
298186,2022-11-14_09h33.04.705,vts_reward_expectancy_bt,2022.2.4,Win32,4.001008254,Chrome,1536,864,,,,,10,1305,,,,,,,,,,,,,,,,,D,125,star,1,0,,,,,,,,,,,,,,,,repeat,letter,lettRpt,d,0.6052,Lo,,,,,,5,,,,,,,,low,20,0,20,0,1,,,,,,,,,
298186,2022-11-14_09h33.04.705,vts_reward_expectancy_bt,2022.2.4,Win32,4.001008254,Chrome,1536,864,,,,,0,1305,,,,,,,,,,,,,,,,,H,146,circle,1,0,,,,,,,,,,,,,,,,repeat,letter,lettRpt,d,0.887,Hi,,,,,,5,,,,,,,,low,21,0,21,0,1,,,,,,,,,
298186,2022-11-14_09h33.04.705,vts_reward_expectancy_bt,2022.2.4,Win32,4.001008254,Chrome,1536,864,,,,,1,1306,,,,,,,,,,,,,,,,,U,167,hexagon,1,0,,,,,,,,,,,,,,,,switch,number,numSwt,k,0.9018,Lo,,,,,,5,,,,,,,,low,22,0,22,0,1,,,,,,,,,
298186,2022-11-14_09h33.04.705,vts_reward_expectancy_bt,2022.2.4,Win32,4.001008254,Chrome,1536,864,,,,,1,1307,,,,,,,,,,,,,,,,,B,174,triangle,1,0,,,,,,,,,,,,,,,,repeat,number,numRpt,k,0.8807,Hi,,,,,,5,,,,,,,,low,23,0,23,0,1,,,,,,,,,
298186,2022-11-14_09h33.04.705,vts_reward_expectancy_bt,2022.2.4,Win32,4.001008254,Chrome,1536,864,,,,,1,1308,,,,,,,,,,,,,,,,,H,174,hexagon,1,0,,,,,,,,,,,,,,,,switch,letter,lettSwt,d,0.9108,Lo,,,,,,5,,,,,,,,low,24,0,24,0,1,,,,,,,,,
298186,2022-11-14_09h33.04.705,vts_reward_expectancy_bt,2022.2.4,Win32,4.001008254,Chrome,1536,864,,,,,0,1308,,,,,,,,,,,,,,,,,D,146,circle,1,0,,,,,,,,,,,,,,,,switch,number,numSwt,j,0.8837,Hi,,,,,,5,,,,,,,,low,25,0,25,0,1,,,,,,,,,
298186,2022-11-14_09h33.04.705,vts_reward_expectancy_bt,2022.2.4,Win32,4.001008254,Chrome,1536,864,,,,,0,1308,,,,,,,,,,,,,,,,,Y,125,triangle,1,0,,,,,,,,,,,,,,,,switch,letter,lettSwt,f,0.8919,Hi,,,,,,5,,,,,,,,low,26,0,26,0,1,,,,,,,,,
298186,2022-11-14_09h33.04.705,vts_reward_expectancy_bt,2022.2.4,Win32,4.001008254,Chrome,1536,864,,,,,10,1318,,,,,,,,,,,,,,,,,U,167,star,1,0,,,,,,,,,,,,,,,,switch,number,numSwt,k,0.9394,Lo,,,,,,5,,,,,,,,low,27,0,27,0,1,,,,,,,,,
298186,2022-11-14_09h33.04.705,vts_reward_expectancy_bt,2022.2.4,Win32,4.001008254,Chrome,1536,864,,,,,0,1318,,,,,,,,,,,,,,,,,B,139,triangle,1,0,,,,,,,,,,,,,,,,switch,letter,lettSwt,d,0.8968,Hi,,,,,,5,,,,,,,,low,28,0,28,0,1,,,,,,,,,
298186,2022-11-14_09h33.04.705,vts_reward_expectancy_bt,2022.2.4,Win32,4.001008254,Chrome,1536,864,,,,,1,1319,,,,,,,,,,,,,,,,,F,181,hexagon,1,0,,,,,,,,,,,,,,,,switch,number,numSwt,k,0.9047,Lo,,,,,,5,,,,,,,,low,29,0,29,0,1,,,,,,,,,
298186,2022-11-14_09h33.04.705,vts_reward_expectancy_bt,2022.2.4,Win32,4.001008254,Chrome,1536,864,,,,,1,1320,,,,,,,,,,,,,,,,,S,160,star,1,0,,,,,,,,,,,,,,,,switch,letter,lettSwt,f,0.9311,Lo,,,,,,5,,,,,,,,low,30,0,30,0,1,,,,,,,,,
298186,2022-11-14_09h33.04.705,vts_reward_expectancy_bt,2022.2.4,Win32,4.001008254,Chrome,1536,864,,,,,0,1320,,,,,,,,,,,,,,,,,W,132,circle,1,0,,,,,,,,,,,,,,,,switch,number,numSwt,j,0.9117,Hi,,,,,,5,,,,,,,,low,31,0,31,0,1,,,,,,,,,
298186,2022-11-14_09h33.04.705,vts_reward_expectancy_bt,2022.2.4,Win32,4.001008254,Chrome,1536,864,,,,,0,1320,,,,,,,,,,,,,,,,,Y,139,triangle,1,0,,,,,,,,,,,,,,,,repeat,number,numRpt,j,0.9038,Hi,,,,,,6,,,,,,space,3.0162,low,0,0,0,0,1,,,,,,,,,
298186,2022-11-14_09h33.04.705,vts_reward_expectancy_bt,2022.2.4,Win32,4.001008254,Chrome,1536,864,,,,,1,1321,,,,,,,,,,,,,,,,,H,132,star,1,0,,,,,,,,,,,,,,,,switch,letter,lettSwt,d,0.6722,Lo,,,,,,6,,,,,,,,low,1,0,1,0,1,,,,,,,,,
298186,2022-11-14_09h33.04.705,vts_reward_expectancy_bt,2022.2.4,Win32,4.001008254,Chrome,1536,864,,,,,10,1331,,,,,,,,,,,,,,,,,D,167,circle,1,0,,,,,,,,,,,,,,,,switch,number,numSwt,k,0.6935,Hi,,,,,,6,,,,,,,,low,2,0,2,0,1,,,,,,,,,
298186,2022-11-14_09h33.04.705,vts_reward_expectancy_bt,2022.2.4,Win32,4.001008254,Chrome,1536,864,,,,,1,1332,,,,,,,,,,,,,,,,,S,125,hexagon,1,0,,,,,,,,,,,,,,,,switch,letter,lettSwt,f,0.9026,Lo,,,,,,6,,,,,,,,low,3,0,3,0,1,,,,,,,,,
298186,2022-11-14_09h33.04.705,vts_reward_expectancy_bt,2022.2.4,Win32,4.001008254,Chrome,1536,864,,,,,0,1332,,,,,,,,,,,,,,,,,B,146,triangle,0,0,,,,,,,,,,,,,,,,switch,number,NA,k,0.6235,Lo,,,,,,6,,,,,,,,low,4,0,4,0,1,,,,,,,,,
298186,2022-11-14_09h33.04.705,vts_reward_expectancy_bt,2022.2.4,Win32,4.001008254,Chrome,1536,864,,,,,0,1332,,,,,,,,,,,,,,,,,W,174,star,0,1,,,,,,,,,,,,,,,,switch,letter,NA,d,0.6084,Lo,,,,,,6,,,,,,,,low,5,0,5,0,1,,,,,,,,,
298186,2022-11-14_09h33.04.705,vts_reward_expectancy_bt,2022.2.4,Win32,4.001008254,Chrome,1536,864,,,,,10,1342,,,,,,,,,,,,,,,,,F,160,circle,1,1,,,,,,,,,,,,,,,,repeat,letter,lettRpt,d,0.6349,Hi,,,,,,6,,,,,,,,low,6,0,6,0,1,,,,,,,,,
298186,2022-11-14_09h33.04.705,vts_reward_expectancy_bt,2022.2.4,Win32,4.001008254,Chrome,1536,864,,,,,1,1343,,,,,,,,,,,,,,,,,U,181,hexagon,1,0,,,,,,,,,,,,,,,,switch,number,numSwt,k,0.9211,Lo,,,,,,6,,,,,,,,low,7,0,7,0,1,,,,,,,,,
298186,2022-11-14_09h33.04.705,vts_reward_expectancy_bt,2022.2.4,Win32,4.001008254,Chrome,1536,864,,,,,1,1344,,,,,,,,,,,,,,,,,Y,139,star,1,0,,,,,,,,,,,,,,,,switch,letter,lettSwt,f,0.6452,Lo,,,,,,6,,,,,,,,low,8,0,8,0,1,,,,,,,,,
298186,2022-11-14_09h33.04.705,vts_reward_expectancy_bt,2022.2.4,Win32,4.001008254,Chrome,1536,864,,,,,1,1345,,,,,,,,,,,,,,,,,H,132,hexagon,1,0,,,,,,,,,,,,,,,,switch,number,numSwt,j,0.6389,Lo,,,,,,6,,,,,,,,low,9,0,9,0,1,,,,,,,,,
298186,2022-11-14_09h33.04.705,vts_reward_expectancy_bt,2022.2.4,Win32,4.001008254,Chrome,1536,864,,,,,10,1355,,,,,,,,,,,,,,,,,D,167,circle,1,0,,,,,,,,,,,,,,,,switch,letter,lettSwt,d,0.6033,Hi,,,,,,6,,,,,,,,low,10,0,10,0,1,,,,,,,,,
298186,2022-11-14_09h33.04.705,vts_reward_expectancy_bt,2022.2.4,Win32,4.001008254,Chrome,1536,864,,,,,1,1356,,,,,,,,,,,,,,,,,S,125,triangle,1,0,,,,,,,,,,,,,,,,switch,number,numSwt,j,0.6108,Hi,,,,,,6,,,,,,,,low,11,0,11,0,1,,,,,,,,,
298186,2022-11-14_09h33.04.705,vts_reward_expectancy_bt,2022.2.4,Win32,4.001008254,Chrome,1536,864,,,,,1,1357,,,,,,,,,,,,,,,,,B,146,circle,1,0,,,,,,,,,,,,,,,,switch,letter,lettSwt,d,0.588,Hi,,,,,,6,,,,,,,,low,12,0,12,0,1,,,,,,,,,
298186,2022-11-14_09h33.04.705,vts_reward_expectancy_bt,2022.2.4,Win32,4.001008254,Chrome,1536,864,,,,,10,1367,,,,,,,,,,,,,,,,,W,174,hexagon,1,0,,,,,,,,,,,,,,,,switch,number,numSwt,k,0.607,Lo,,,,,,6,,,,,,,,low,13,0,13,0,1,,,,,,,,,
298186,2022-11-14_09h33.04.705,vts_reward_expectancy_bt,2022.2.4,Win32,4.001008254,Chrome,1536,864,,,,,0,1367,,,,,,,,,,,,,,,,,F,160,triangle,1,0,,,,,,,,,,,,,,,,repeat,number,numRpt,k,0.8923,Hi,,,,,,6,,,,,,,,low,14,0,14,0,1,,,,,,,,,
298186,2022-11-14_09h33.04.705,vts_reward_expectancy_bt,2022.2.4,Win32,4.001008254,Chrome,1536,864,,,,,1,1368,,,,,,,,,,,,,,,,,U,181,star,1,0,,,,,,,,,,,,,,,,switch,letter,lettSwt,f,0.6365,Lo,,,,,,6,,,,,,,,low,15,0,15,0,1,,,,,,,,,
298186,2022-11-14_09h33.04.705,vts_reward_expectancy_bt,2022.2.4,Win32,4.001008254,Chrome,1536,864,,,,,0,1368,,,,,,,,,,,,,,,,,S,146,triangle,1,0,,,,,,,,,,,,,,,,switch,number,numSwt,j,0.9938,Hi,,,,,,6,,,,,,,,low,16,0,16,0,1,,,,,,,,,
