participant,date,expName,psychopyVersion,OS,frameRate,browser,xResolution,yResolution,key_resp.keys,key_resp.rt,training_resp.keys,training_resp.rt,points_trial,points_cumul,trainBlock,training.thisRepN,training.thisTrialN,training.thisN,training.thisIndex,training.ran,LTriangleOpac,LCircleOpac,LHexagonOpac,LStarOpac,RTriangleOpac,RCircleOpac,RHexagonOpac,RStarOpac,LShape_ID,RShape_ID,curr_topStim,curr_bottStim,curr_shape,acc,E1,target_resp_prac1.keys,target_resp_prac1.rt,pracBlock,task1_prac_trials.thisRepN,task1_prac_trials.thisTrialN,task1_prac_trials.thisN,task1_prac_trials.thisIndex,task1_prac_trials.ran,target_resp_prac2.keys,target_resp_prac2.rt,task2_praac_trials.thisRepN,task2_praac_trials.thisTrialN,task2_praac_trials.thisN,task2_praac_trials.thisIndex,task2_praac_trials.ran,alt,task,condition,target_resp.keys,rewCond,vts_practice_trials.thisRepN,vts_practice_trials.thisTrialN,vts_practice_trials.thisN,vts_practice_trials.thisIndex,vts_practice_trials.ran,target_resp.rt,blockNum,trials_norew.thisRepN,trials_norew.thisTrialN,trials_norew.thisN,trials_norew.thisIndex,trials_norew.ran,key_resp_2.keys,key_resp_2.rt,rewExpectancy,trials_rew.thisRepN,trials_rew.thisTrialN,trials_rew.thisN,trials_rew.thisIndex,trials_rew.ran,Q1,Q2,Q2_text,Q3,Q4,Q5_text,Q5,xRes,yRes
298255,2022-11-22_19h18.25.573,vts_reward_expectancy_bt,2022.2.4,Win32,60.74596039,Chrome,1536,864,,,,,,,,,,,,,,,,,,,,,,,,,,,,,,,,,,,,,,,,,,,,,,,,,,,,,,,,,,,,,,,,,,,,,,,,,,,,
298255,2022-11-22_19h18.25.573,vts_reward_expectancy_bt,2022.2.4,Win32,60.74596039,Chrome,1536,864,space,16.2675,,,,,,,,,,,,,,,,,,,,,,,,,,,,,,,,,,,,,,,,,,,,,,,,,,,,,,,,,,,,,,,,,,,,,,,,,,
298255,2022-11-22_19h18.25.573,vts_reward_expectancy_bt,2022.2.4,Win32,60.74596039,Chrome,1536,864,,,,,,,,,,,,,,,,,,,,,,,,,,,,,,,,,,,,,,,,,,,,,,,,,,,,,,,,,,,,,,,,,,,,,,,,,,,,
298255,2022-11-22_19h18.25.573,vts_reward_expectancy_bt,2022.2.4,Win32,60.74596039,Chrome,1536,864,,,a,1.2942,10,10,0,0,0,0,3,1,0,1,0,0,1,0,0,0,circle,triangle,,,,,,,,,,,,,,,,,,,,,,,,,,,,,,,,,,,,,,,,,,,,,,,,,,,,,,
298255,2022-11-22_19h18.25.573,vts_reward_expectancy_bt,2022.2.4,Win32,60.74596039,Chrome,1536,864,,,l,1.299,1,11,0,0,1,1,10,1,0,0,0,1,0,1,0,0,star ,circle,,,,,,,,,,,,,,,,,,,,,,,,,,,,,,,,,,,,,,,,,,,,,,,,,,,,,,
298255,2022-11-22_19h18.25.573,vts_reward_expectancy_bt,2022.2.4,Win32,60.74596039,Chrome,1536,864,,,l,2.7324,1,12,0,0,2,2,0,1,1,0,0,0,0,1,0,0,triangle,circle,,,,,,,,,,,,,,,,,,,,,,,,,,,,,,,,,,,,,,,,,,,,,,,,,,,,,,
298255,2022-11-22_19h18.25.573,vts_reward_expectancy_bt,2022.2.4,Win32,60.74596039,Chrome,1536,864,,,l,1.4824,10,22,0,0,3,3,5,1,0,1,0,0,0,0,0,1,circle,star,,,,,,,,,,,,,,,,,,,,,,,,,,,,,,,,,,,,,,,,,,,,,,,,,,,,,,
298255,2022-11-22_19h18.25.573,vts_reward_expectancy_bt,2022.2.4,Win32,60.74596039,Chrome,1536,864,,,a,1.0805,1,23,0,0,4,4,7,1,0,0,1,0,0,1,0,0,hexagon,circle,,,,,,,,,,,,,,,,,,,,,,,,,,,,,,,,,,,,,,,,,,,,,,,,,,,,,,
298255,2022-11-22_19h18.25.573,vts_reward_expectancy_bt,2022.2.4,Win32,60.74596039,Chrome,1536,864,,,a,1.1339,10,33,0,0,5,5,9,1,0,0,0,1,1,0,0,0,star,triangle,,,,,,,,,,,,,,,,,,,,,,,,,,,,,,,,,,,,,,,,,,,,,,,,,,,,,,
298255,2022-11-22_19h18.25.573,vts_reward_expectancy_bt,2022.2.4,Win32,60.74596039,Chrome,1536,864,,,l,0.7325,10,43,0,0,6,6,2,1,1,0,0,0,0,0,0,1,triangle,star,,,,,,,,,,,,,,,,,,,,,,,,,,,,,,,,,,,,,,,,,,,,,,,,,,,,,,
298255,2022-11-22_19h18.25.573,vts_reward_expectancy_bt,2022.2.4,Win32,60.74596039,Chrome,1536,864,,,a,1.0177,10,53,0,0,7,7,6,1,0,0,1,0,1,0,0,0,hexagon,triangle,,,,,,,,,,,,,,,,,,,,,,,,,,,,,,,,,,,,,,,,,,,,,,,,,,,,,,
298255,2022-11-22_19h18.25.573,vts_reward_expectancy_bt,2022.2.4,Win32,60.74596039,Chrome,1536,864,,,l,0.6511,10,63,0,0,8,8,8,1,0,0,1,0,0,0,0,1,hexagon,star,,,,,,,,,,,,,,,,,,,,,,,,,,,,,,,,,,,,,,,,,,,,,,,,,,,,,,
298255,2022-11-22_19h18.25.573,vts_reward_expectancy_bt,2022.2.4,Win32,60.74596039,Chrome,1536,864,,,l,1.035,1,64,0,0,9,9,1,1,1,0,0,0,0,0,1,0,triangle,hexagon,,,,,,,,,,,,,,,,,,,,,,,,,,,,,,,,,,,,,,,,,,,,,,,,,,,,,,
298255,2022-11-22_19h18.25.573,vts_reward_expectancy_bt,2022.2.4,Win32,60.74596039,Chrome,1536,864,,,a,0.9308,10,74,0,0,10,10,11,1,0,0,0,1,0,0,1,0,star,hexagon,,,,,,,,,,,,,,,,,,,,,,,,,,,,,,,,,,,,,,,,,,,,,,,,,,,,,,
298255,2022-11-22_19h18.25.573,vts_reward_expectancy_bt,2022.2.4,Win32,60.74596039,Chrome,1536,864,,,l,0.7173,10,84,0,0,11,11,4,1,0,1,0,0,0,0,1,0,circle,hexagon,,,,,,,,,,,,,,,,,,,,,,,,,,,,,,,,,,,,,,,,,,,,,,,,,,,,,,
298255,2022-11-22_19h18.25.573,vts_reward_expectancy_bt,2022.2.4,Win32,60.74596039,Chrome,1536,864,,,a,0.8966,1,85,0,1,0,12,6,1,0,0,1,0,1,0,0,0,hexagon,triangle,,,,,,,,,,,,,,,,,,,,,,,,,,,,,,,,,,,,,,,,,,,,,,,,,,,,,,
298255,2022-11-22_19h18.25.573,vts_reward_expectancy_bt,2022.2.4,Win32,60.74596039,Chrome,1536,864,,,l,0.8837,1,86,0,1,1,13,7,1,0,0,1,0,0,1,0,0,hexagon,circle,,,,,,,,,,,,,,,,,,,,,,,,,,,,,,,,,,,,,,,,,,,,,,,,,,,,,,
298255,2022-11-22_19h18.25.573,vts_reward_expectancy_bt,2022.2.4,Win32,60.74596039,Chrome,1536,864,,,l,2.3656,1,87,0,1,2,14,1,1,1,0,0,0,0,0,1,0,triangle,hexagon,,,,,,,,,,,,,,,,,,,,,,,,,,,,,,,,,,,,,,,,,,,,,,,,,,,,,,
298255,2022-11-22_19h18.25.573,vts_reward_expectancy_bt,2022.2.4,Win32,60.74596039,Chrome,1536,864,,,l,0.7173,10,97,0,1,3,15,2,1,1,0,0,0,0,0,0,1,triangle,star,,,,,,,,,,,,,,,,,,,,,,,,,,,,,,,,,,,,,,,,,,,,,,,,,,,,,,
298255,2022-11-22_19h18.25.573,vts_reward_expectancy_bt,2022.2.4,Win32,60.74596039,Chrome,1536,864,,,a,0.5004,10,107,0,1,4,16,9,1,0,0,0,1,1,0,0,0,star,triangle,,,,,,,,,,,,,,,,,,,,,,,,,,,,,,,,,,,,,,,,,,,,,,,,,,,,,,
298255,2022-11-22_19h18.25.573,vts_reward_expectancy_bt,2022.2.4,Win32,60.74596039,Chrome,1536,864,,,a,1.0506,1,108,0,1,5,17,4,1,0,1,0,0,0,0,1,0,circle,hexagon,,,,,,,,,,,,,,,,,,,,,,,,,,,,,,,,,,,,,,,,,,,,,,,,,,,,,,
298255,2022-11-22_19h18.25.573,vts_reward_expectancy_bt,2022.2.4,Win32,60.74596039,Chrome,1536,864,,,l,1.2379,1,109,0,1,6,18,0,1,1,0,0,0,0,1,0,0,triangle,circle,,,,,,,,,,,,,,,,,,,,,,,,,,,,,,,,,,,,,,,,,,,,,,,,,,,,,,
298255,2022-11-22_19h18.25.573,vts_reward_expectancy_bt,2022.2.4,Win32,60.74596039,Chrome,1536,864,,,a,0.4558,10,119,0,1,7,19,11,1,0,0,0,1,0,0,1,0,star,hexagon,,,,,,,,,,,,,,,,,,,,,,,,,,,,,,,,,,,,,,,,,,,,,,,,,,,,,,
298255,2022-11-22_19h18.25.573,vts_reward_expectancy_bt,2022.2.4,Win32,60.74596039,Chrome,1536,864,,,l,0.5838,10,129,0,1,8,20,8,1,0,0,1,0,0,0,0,1,hexagon,star,,,,,,,,,,,,,,,,,,,,,,,,,,,,,,,,,,,,,,,,,,,,,,,,,,,,,,
298255,2022-11-22_19h18.25.573,vts_reward_expectancy_bt,2022.2.4,Win32,60.74596039,Chrome,1536,864,,,l,0.6231,10,139,0,1,9,21,5,1,0,1,0,0,0,0,0,1,circle,star,,,,,,,,,,,,,,,,,,,,,,,,,,,,,,,,,,,,,,,,,,,,,,,,,,,,,,
298255,2022-11-22_19h18.25.573,vts_reward_expectancy_bt,2022.2.4,Win32,60.74596039,Chrome,1536,864,,,a,1.1821,1,140,0,1,10,22,3,1,0,1,0,0,1,0,0,0,circle,triangle,,,,,,,,,,,,,,,,,,,,,,,,,,,,,,,,,,,,,,,,,,,,,,,,,,,,,,
298255,2022-11-22_19h18.25.573,vts_reward_expectancy_bt,2022.2.4,Win32,60.74596039,Chrome,1536,864,,,a,0.6891,1,141,0,1,11,23,10,1,0,0,0,1,0,1,0,0,star ,circle,,,,,,,,,,,,,,,,,,,,,,,,,,,,,,,,,,,,,,,,,,,,,,,,,,,,,,
298255,2022-11-22_19h18.25.573,vts_reward_expectancy_bt,2022.2.4,Win32,60.74596039,Chrome,1536,864,,,l,0.767,10,151,0,2,0,24,8,1,0,0,1,0,0,0,0,1,hexagon,star,,,,,,,,,,,,,,,,,,,,,,,,,,,,,,,,,,,,,,,,,,,,,,,,,,,,,,
298255,2022-11-22_19h18.25.573,vts_reward_expectancy_bt,2022.2.4,Win32,60.74596039,Chrome,1536,864,,,a,0.6158,10,161,0,2,1,25,11,1,0,0,0,1,0,0,1,0,star,hexagon,,,,,,,,,,,,,,,,,,,,,,,,,,,,,,,,,,,,,,,,,,,,,,,,,,,,,,
298255,2022-11-22_19h18.25.573,vts_reward_expectancy_bt,2022.2.4,Win32,60.74596039,Chrome,1536,864,,,a,3.8315,1,162,0,2,2,26,4,1,0,1,0,0,0,0,1,0,circle,hexagon,,,,,,,,,,,,,,,,,,,,,,,,,,,,,,,,,,,,,,,,,,,,,,,,,,,,,,
298255,2022-11-22_19h18.25.573,vts_reward_expectancy_bt,2022.2.4,Win32,60.74596039,Chrome,1536,864,,,l,0.8517,1,163,0,2,3,27,7,1,0,0,1,0,0,1,0,0,hexagon,circle,,,,,,,,,,,,,,,,,,,,,,,,,,,,,,,,,,,,,,,,,,,,,,,,,,,,,,
298255,2022-11-22_19h18.25.573,vts_reward_expectancy_bt,2022.2.4,Win32,60.74596039,Chrome,1536,864,,,l,1.9083,10,173,0,2,4,28,0,1,1,0,0,0,0,1,0,0,triangle,circle,,,,,,,,,,,,,,,,,,,,,,,,,,,,,,,,,,,,,,,,,,,,,,,,,,,,,,
298255,2022-11-22_19h18.25.573,vts_reward_expectancy_bt,2022.2.4,Win32,60.74596039,Chrome,1536,864,,,a,0.517,10,183,0,2,5,29,9,1,0,0,0,1,1,0,0,0,star,triangle,,,,,,,,,,,,,,,,,,,,,,,,,,,,,,,,,,,,,,,,,,,,,,,,,,,,,,
298255,2022-11-22_19h18.25.573,vts_reward_expectancy_bt,2022.2.4,Win32,60.74596039,Chrome,1536,864,,,l,0.6063,10,193,0,2,6,30,5,1,0,1,0,0,0,0,0,1,circle,star,,,,,,,,,,,,,,,,,,,,,,,,,,,,,,,,,,,,,,,,,,,,,,,,,,,,,,
298255,2022-11-22_19h18.25.573,vts_reward_expectancy_bt,2022.2.4,Win32,60.74596039,Chrome,1536,864,,,l,1.4839,1,194,0,2,7,31,6,1,0,0,1,0,1,0,0,0,hexagon,triangle,,,,,,,,,,,,,,,,,,,,,,,,,,,,,,,,,,,,,,,,,,,,,,,,,,,,,,
298255,2022-11-22_19h18.25.573,vts_reward_expectancy_bt,2022.2.4,Win32,60.74596039,Chrome,1536,864,,,a,1.3817,1,195,0,2,8,32,3,1,0,1,0,0,1,0,0,0,circle,triangle,,,,,,,,,,,,,,,,,,,,,,,,,,,,,,,,,,,,,,,,,,,,,,,,,,,,,,
298255,2022-11-22_19h18.25.573,vts_reward_expectancy_bt,2022.2.4,Win32,60.74596039,Chrome,1536,864,,,l,1.2669,1,196,0,2,9,33,1,1,1,0,0,0,0,0,1,0,triangle,hexagon,,,,,,,,,,,,,,,,,,,,,,,,,,,,,,,,,,,,,,,,,,,,,,,,,,,,,,
298255,2022-11-22_19h18.25.573,vts_reward_expectancy_bt,2022.2.4,Win32,60.74596039,Chrome,1536,864,,,l,0.509,10,206,0,2,10,34,2,1,1,0,0,0,0,0,0,1,triangle,star,,,,,,,,,,,,,,,,,,,,,,,,,,,,,,,,,,,,,,,,,,,,,,,,,,,,,,
298255,2022-11-22_19h18.25.573,vts_reward_expectancy_bt,2022.2.4,Win32,60.74596039,Chrome,1536,864,,,a,0.6551,10,216,0,2,11,35,10,1,0,0,0,1,0,1,0,0,star ,circle,,,,,,,,,,,,,,,,,,,,,,,,,,,,,,,,,,,,,,,,,,,,,,,,,,,,,,
298255,2022-11-22_19h18.25.573,vts_reward_expectancy_bt,2022.2.4,Win32,60.74596039,Chrome,1536,864,,,l,1.4632,10,226,1,0,0,0,6,1,0,0,1,0,1,0,0,0,hexagon,triangle,,,,,,,,,,,,,,,,,,,,,,,,,,,,,,,,,,,,,,,,,,,,,,,,,,,,,,
298255,2022-11-22_19h18.25.573,vts_reward_expectancy_bt,2022.2.4,Win32,60.74596039,Chrome,1536,864,,,a,0.4508,10,236,1,0,1,1,9,1,0,0,0,1,1,0,0,0,star,triangle,,,,,,,,,,,,,,,,,,,,,,,,,,,,,,,,,,,,,,,,,,,,,,,,,,,,,,
298255,2022-11-22_19h18.25.573,vts_reward_expectancy_bt,2022.2.4,Win32,60.74596039,Chrome,1536,864,,,l,1.292,1,237,1,0,2,2,0,1,1,0,0,0,0,1,0,0,triangle,circle,,,,,,,,,,,,,,,,,,,,,,,,,,,,,,,,,,,,,,,,,,,,,,,,,,,,,,
298255,2022-11-22_19h18.25.573,vts_reward_expectancy_bt,2022.2.4,Win32,60.74596039,Chrome,1536,864,,,a,1.4178,10,247,1,0,3,3,1,1,1,0,0,0,0,0,1,0,triangle,hexagon,,,,,,,,,,,,,,,,,,,,,,,,,,,,,,,,,,,,,,,,,,,,,,,,,,,,,,
298255,2022-11-22_19h18.25.573,vts_reward_expectancy_bt,2022.2.4,Win32,60.74596039,Chrome,1536,864,,,l,1.5184,1,248,1,0,4,4,7,1,0,0,1,0,0,1,0,0,hexagon,circle,,,,,,,,,,,,,,,,,,,,,,,,,,,,,,,,,,,,,,,,,,,,,,,,,,,,,,
298255,2022-11-22_19h18.25.573,vts_reward_expectancy_bt,2022.2.4,Win32,60.74596039,Chrome,1536,864,,,l,0.7147,1,249,1,0,5,5,5,1,0,1,0,0,0,0,0,1,circle,star,,,,,,,,,,,,,,,,,,,,,,,,,,,,,,,,,,,,,,,,,,,,,,,,,,,,,,
298255,2022-11-22_19h18.25.573,vts_reward_expectancy_bt,2022.2.4,Win32,60.74596039,Chrome,1536,864,,,l,0.9834,10,259,1,0,6,6,8,1,0,0,1,0,0,0,0,1,hexagon,star,,,,,,,,,,,,,,,,,,,,,,,,,,,,,,,,,,,,,,,,,,,,,,,,,,,,,,
298255,2022-11-22_19h18.25.573,vts_reward_expectancy_bt,2022.2.4,Win32,60.74596039,Chrome,1536,864,,,a,0.8517,10,269,1,0,7,7,4,1,0,1,0,0,0,0,1,0,circle,hexagon,,,,,,,,,,,,,,,,,,,,,,,,,,,,,,,,,,,,,,,,,,,,,,,,,,,,,,
298255,2022-11-22_19h18.25.573,vts_reward_expectancy_bt,2022.2.4,Win32,60.74596039,Chrome,1536,864,,,a,1.5328,10,279,1,0,8,8,10,1,0,0,0,1,0,1,0,0,star ,circle,,,,,,,,,,,,,,,,,,,,,,,,,,,,,,,,,,,,,,,,,,,,,,,,,,,,,,
298255,2022-11-22_19h18.25.573,vts_reward_expectancy_bt,2022.2.4,Win32,60.74596039,Chrome,1536,864,,,a,0.7994,10,289,1,0,9,9,11,1,0,0,0,1,0,0,1,0,star,hexagon,,,,,,,,,,,,,,,,,,,,,,,,,,,,,,,,,,,,,,,,,,,,,,,,,,,,,,
298255,2022-11-22_19h18.25.573,vts_reward_expectancy_bt,2022.2.4,Win32,60.74596039,Chrome,1536,864,,,l,0.5177,10,299,1,0,10,10,2,1,1,0,0,0,0,0,0,1,triangle,star,,,,,,,,,,,,,,,,,,,,,,,,,,,,,,,,,,,,,,,,,,,,,,,,,,,,,,
298255,2022-11-22_19h18.25.573,vts_reward_expectancy_bt,2022.2.4,Win32,60.74596039,Chrome,1536,864,,,l,2.3661,10,309,1,0,11,11,3,1,0,1,0,0,1,0,0,0,circle,triangle,,,,,,,,,,,,,,,,,,,,,,,,,,,,,,,,,,,,,,,,,,,,,,,,,,,,,,
298255,2022-11-22_19h18.25.573,vts_reward_expectancy_bt,2022.2.4,Win32,60.74596039,Chrome,1536,864,,,l,2.484,1,310,1,1,0,12,7,1,0,0,1,0,0,1,0,0,hexagon,circle,,,,,,,,,,,,,,,,,,,,,,,,,,,,,,,,,,,,,,,,,,,,,,,,,,,,,,
298255,2022-11-22_19h18.25.573,vts_reward_expectancy_bt,2022.2.4,Win32,60.74596039,Chrome,1536,864,,,a,1.0155,10,320,1,1,1,13,0,1,1,0,0,0,0,1,0,0,triangle,circle,,,,,,,,,,,,,,,,,,,,,,,,,,,,,,,,,,,,,,,,,,,,,,,,,,,,,,
298255,2022-11-22_19h18.25.573,vts_reward_expectancy_bt,2022.2.4,Win32,60.74596039,Chrome,1536,864,,,a,2.7565,1,321,1,1,2,14,6,1,0,0,1,0,1,0,0,0,hexagon,triangle,,,,,,,,,,,,,,,,,,,,,,,,,,,,,,,,,,,,,,,,,,,,,,,,,,,,,,
298255,2022-11-22_19h18.25.573,vts_reward_expectancy_bt,2022.2.4,Win32,60.74596039,Chrome,1536,864,,,l,1.419,1,322,1,1,3,15,3,1,0,1,0,0,1,0,0,0,circle,triangle,,,,,,,,,,,,,,,,,,,,,,,,,,,,,,,,,,,,,,,,,,,,,,,,,,,,,,
298255,2022-11-22_19h18.25.573,vts_reward_expectancy_bt,2022.2.4,Win32,60.74596039,Chrome,1536,864,,,l,0.6837,10,332,1,1,4,16,5,1,0,1,0,0,0,0,0,1,circle,star,,,,,,,,,,,,,,,,,,,,,,,,,,,,,,,,,,,,,,,,,,,,,,,,,,,,,,
298255,2022-11-22_19h18.25.573,vts_reward_expectancy_bt,2022.2.4,Win32,60.74596039,Chrome,1536,864,,,a,0.6374,10,342,1,1,5,17,9,1,0,0,0,1,1,0,0,0,star,triangle,,,,,,,,,,,,,,,,,,,,,,,,,,,,,,,,,,,,,,,,,,,,,,,,,,,,,,
298255,2022-11-22_19h18.25.573,vts_reward_expectancy_bt,2022.2.4,Win32,60.74596039,Chrome,1536,864,,,l,2.733,1,343,1,1,6,18,4,1,0,1,0,0,0,0,1,0,circle,hexagon,,,,,,,,,,,,,,,,,,,,,,,,,,,,,,,,,,,,,,,,,,,,,,,,,,,,,,
298255,2022-11-22_19h18.25.573,vts_reward_expectancy_bt,2022.2.4,Win32,60.74596039,Chrome,1536,864,,,a,0.5669,1,344,1,1,7,19,10,1,0,0,0,1,0,1,0,0,star ,circle,,,,,,,,,,,,,,,,,,,,,,,,,,,,,,,,,,,,,,,,,,,,,,,,,,,,,,
298255,2022-11-22_19h18.25.573,vts_reward_expectancy_bt,2022.2.4,Win32,60.74596039,Chrome,1536,864,,,l,0.8174,1,345,1,1,8,20,2,1,1,0,0,0,0,0,0,1,triangle,star,,,,,,,,,,,,,,,,,,,,,,,,,,,,,,,,,,,,,,,,,,,,,,,,,,,,,,
298255,2022-11-22_19h18.25.573,vts_reward_expectancy_bt,2022.2.4,Win32,60.74596039,Chrome,1536,864,,,a,0.6727,10,355,1,1,9,21,11,1,0,0,0,1,0,0,1,0,star,hexagon,,,,,,,,,,,,,,,,,,,,,,,,,,,,,,,,,,,,,,,,,,,,,,,,,,,,,,
298255,2022-11-22_19h18.25.573,vts_reward_expectancy_bt,2022.2.4,Win32,60.74596039,Chrome,1536,864,,,l,0.7178,1,356,1,1,10,22,1,1,1,0,0,0,0,0,1,0,triangle,hexagon,,,,,,,,,,,,,,,,,,,,,,,,,,,,,,,,,,,,,,,,,,,,,,,,,,,,,,
298255,2022-11-22_19h18.25.573,vts_reward_expectancy_bt,2022.2.4,Win32,60.74596039,Chrome,1536,864,,,l,0.5343,10,366,1,1,11,23,8,1,0,0,1,0,0,0,0,1,hexagon,star,,,,,,,,,,,,,,,,,,,,,,,,,,,,,,,,,,,,,,,,,,,,,,,,,,,,,,
298255,2022-11-22_19h18.25.573,vts_reward_expectancy_bt,2022.2.4,Win32,60.74596039,Chrome,1536,864,,,a,0.6352,10,376,1,2,0,24,9,1,0,0,0,1,1,0,0,0,star,triangle,,,,,,,,,,,,,,,,,,,,,,,,,,,,,,,,,,,,,,,,,,,,,,,,,,,,,,
298255,2022-11-22_19h18.25.573,vts_reward_expectancy_bt,2022.2.4,Win32,60.74596039,Chrome,1536,864,,,l,0.5226,10,386,1,2,1,25,5,1,0,1,0,0,0,0,0,1,circle,star,,,,,,,,,,,,,,,,,,,,,,,,,,,,,,,,,,,,,,,,,,,,,,,,,,,,,,
298255,2022-11-22_19h18.25.573,vts_reward_expectancy_bt,2022.2.4,Win32,60.74596039,Chrome,1536,864,,,l,1.201,1,387,1,2,2,26,7,1,0,0,1,0,0,1,0,0,hexagon,circle,,,,,,,,,,,,,,,,,,,,,,,,,,,,,,,,,,,,,,,,,,,,,,,,,,,,,,
298255,2022-11-22_19h18.25.573,vts_reward_expectancy_bt,2022.2.4,Win32,60.74596039,Chrome,1536,864,,,a,1.1169,1,388,1,2,3,27,10,1,0,0,0,1,0,1,0,0,star ,circle,,,,,,,,,,,,,,,,,,,,,,,,,,,,,,,,,,,,,,,,,,,,,,,,,,,,,,
298255,2022-11-22_19h18.25.573,vts_reward_expectancy_bt,2022.2.4,Win32,60.74596039,Chrome,1536,864,,,l,0.6083,10,398,1,2,4,28,2,1,1,0,0,0,0,0,0,1,triangle,star,,,,,,,,,,,,,,,,,,,,,,,,,,,,,,,,,,,,,,,,,,,,,,,,,,,,,,
298255,2022-11-22_19h18.25.573,vts_reward_expectancy_bt,2022.2.4,Win32,60.74596039,Chrome,1536,864,,,l,1.1322,10,408,1,2,5,29,6,1,0,0,1,0,1,0,0,0,hexagon,triangle,,,,,,,,,,,,,,,,,,,,,,,,,,,,,,,,,,,,,,,,,,,,,,,,,,,,,,
298255,2022-11-22_19h18.25.573,vts_reward_expectancy_bt,2022.2.4,Win32,60.74596039,Chrome,1536,864,,,l,1.0983,1,409,1,2,6,30,0,1,1,0,0,0,0,1,0,0,triangle,circle,,,,,,,,,,,,,,,,,,,,,,,,,,,,,,,,,,,,,,,,,,,,,,,,,,,,,,
298255,2022-11-22_19h18.25.573,vts_reward_expectancy_bt,2022.2.4,Win32,60.74596039,Chrome,1536,864,,,l,1.3334,10,419,1,2,7,31,3,1,0,1,0,0,1,0,0,0,circle,triangle,,,,,,,,,,,,,,,,,,,,,,,,,,,,,,,,,,,,,,,,,,,,,,,,,,,,,,
298255,2022-11-22_19h18.25.573,vts_reward_expectancy_bt,2022.2.4,Win32,60.74596039,Chrome,1536,864,,,a,1.3382,10,429,1,2,8,32,1,1,1,0,0,0,0,0,1,0,triangle,hexagon,,,,,,,,,,,,,,,,,,,,,,,,,,,,,,,,,,,,,,,,,,,,,,,,,,,,,,
298255,2022-11-22_19h18.25.573,vts_reward_expectancy_bt,2022.2.4,Win32,60.74596039,Chrome,1536,864,,,l,0.7839,10,439,1,2,9,33,8,1,0,0,1,0,0,0,0,1,hexagon,star,,,,,,,,,,,,,,,,,,,,,,,,,,,,,,,,,,,,,,,,,,,,,,,,,,,,,,
298255,2022-11-22_19h18.25.573,vts_reward_expectancy_bt,2022.2.4,Win32,60.74596039,Chrome,1536,864,,,a,2.3184,10,449,1,2,10,34,11,1,0,0,0,1,0,0,1,0,star,hexagon,,,,,,,,,,,,,,,,,,,,,,,,,,,,,,,,,,,,,,,,,,,,,,,,,,,,,,
298255,2022-11-22_19h18.25.573,vts_reward_expectancy_bt,2022.2.4,Win32,60.74596039,Chrome,1536,864,,,a,1.3011,1,450,1,2,11,35,4,1,0,1,0,0,0,0,1,0,circle,hexagon,,,,,,,,,,,,,,,,,,,,,,,,,,,,,,,,,,,,,,,,,,,,,,,,,,,,,,
298255,2022-11-22_19h18.25.573,vts_reward_expectancy_bt,2022.2.4,Win32,60.74596039,Chrome,1536,864,,,a,0.6981,10,460,2,0,0,0,11,1,0,0,0,1,0,0,1,0,star,hexagon,,,,,,,,,,,,,,,,,,,,,,,,,,,,,,,,,,,,,,,,,,,,,,,,,,,,,,
298255,2022-11-22_19h18.25.573,vts_reward_expectancy_bt,2022.2.4,Win32,60.74596039,Chrome,1536,864,,,l,0.4171,10,470,2,0,1,1,2,1,1,0,0,0,0,0,0,1,triangle,star,,,,,,,,,,,,,,,,,,,,,,,,,,,,,,,,,,,,,,,,,,,,,,,,,,,,,,
298255,2022-11-22_19h18.25.573,vts_reward_expectancy_bt,2022.2.4,Win32,60.74596039,Chrome,1536,864,,,a,0.4232,10,480,2,0,2,2,10,1,0,0,0,1,0,1,0,0,star ,circle,,,,,,,,,,,,,,,,,,,,,,,,,,,,,,,,,,,,,,,,,,,,,,,,,,,,,,
298255,2022-11-22_19h18.25.573,vts_reward_expectancy_bt,2022.2.4,Win32,60.74596039,Chrome,1536,864,,,a,0.4688,10,490,2,0,3,3,9,1,0,0,0,1,1,0,0,0,star,triangle,,,,,,,,,,,,,,,,,,,,,,,,,,,,,,,,,,,,,,,,,,,,,,,,,,,,,,
298255,2022-11-22_19h18.25.573,vts_reward_expectancy_bt,2022.2.4,Win32,60.74596039,Chrome,1536,864,,,l,1.094,1,491,2,0,4,4,7,1,0,0,1,0,0,1,0,0,hexagon,circle,,,,,,,,,,,,,,,,,,,,,,,,,,,,,,,,,,,,,,,,,,,,,,,,,,,,,,
298255,2022-11-22_19h18.25.573,vts_reward_expectancy_bt,2022.2.4,Win32,60.74596039,Chrome,1536,864,,,a,0.7672,1,492,2,0,5,5,6,1,0,0,1,0,1,0,0,0,hexagon,triangle,,,,,,,,,,,,,,,,,,,,,,,,,,,,,,,,,,,,,,,,,,,,,,,,,,,,,,
298255,2022-11-22_19h18.25.573,vts_reward_expectancy_bt,2022.2.4,Win32,60.74596039,Chrome,1536,864,,,l,1.0511,10,502,2,0,6,6,3,1,0,1,0,0,1,0,0,0,circle,triangle,,,,,,,,,,,,,,,,,,,,,,,,,,,,,,,,,,,,,,,,,,,,,,,,,,,,,,
298255,2022-11-22_19h18.25.573,vts_reward_expectancy_bt,2022.2.4,Win32,60.74596039,Chrome,1536,864,,,a,0.7731,10,512,2,0,7,7,1,1,1,0,0,0,0,0,1,0,triangle,hexagon,,,,,,,,,,,,,,,,,,,,,,,,,,,,,,,,,,,,,,,,,,,,,,,,,,,,,,
298255,2022-11-22_19h18.25.573,vts_reward_expectancy_bt,2022.2.4,Win32,60.74596039,Chrome,1536,864,,,a,0.5526,10,522,2,0,8,8,0,1,1,0,0,0,0,1,0,0,triangle,circle,,,,,,,,,,,,,,,,,,,,,,,,,,,,,,,,,,,,,,,,,,,,,,,,,,,,,,
298255,2022-11-22_19h18.25.573,vts_reward_expectancy_bt,2022.2.4,Win32,60.74596039,Chrome,1536,864,,,l,0.4178,10,532,2,0,9,9,5,1,0,1,0,0,0,0,0,1,circle,star,,,,,,,,,,,,,,,,,,,,,,,,,,,,,,,,,,,,,,,,,,,,,,,,,,,,,,
298255,2022-11-22_19h18.25.573,vts_reward_expectancy_bt,2022.2.4,Win32,60.74596039,Chrome,1536,864,,,a,1.0004,1,533,2,0,10,10,4,1,0,1,0,0,0,0,1,0,circle,hexagon,,,,,,,,,,,,,,,,,,,,,,,,,,,,,,,,,,,,,,,,,,,,,,,,,,,,,,
298255,2022-11-22_19h18.25.573,vts_reward_expectancy_bt,2022.2.4,Win32,60.74596039,Chrome,1536,864,,,l,0.667,10,543,2,0,11,11,8,1,0,0,1,0,0,0,0,1,hexagon,star,,,,,,,,,,,,,,,,,,,,,,,,,,,,,,,,,,,,,,,,,,,,,,,,,,,,,,
298255,2022-11-22_19h18.25.573,vts_reward_expectancy_bt,2022.2.4,Win32,60.74596039,Chrome,1536,864,,,l,0.6542,10,553,2,1,0,12,8,1,0,0,1,0,0,0,0,1,hexagon,star,,,,,,,,,,,,,,,,,,,,,,,,,,,,,,,,,,,,,,,,,,,,,,,,,,,,,,
298255,2022-11-22_19h18.25.573,vts_reward_expectancy_bt,2022.2.4,Win32,60.74596039,Chrome,1536,864,,,l,1.0517,10,563,2,1,1,13,6,1,0,0,1,0,1,0,0,0,hexagon,triangle,,,,,,,,,,,,,,,,,,,,,,,,,,,,,,,,,,,,,,,,,,,,,,,,,,,,,,
298255,2022-11-22_19h18.25.573,vts_reward_expectancy_bt,2022.2.4,Win32,60.74596039,Chrome,1536,864,,,a,0.9078,10,573,2,1,2,14,1,1,1,0,0,0,0,0,1,0,triangle,hexagon,,,,,,,,,,,,,,,,,,,,,,,,,,,,,,,,,,,,,,,,,,,,,,,,,,,,,,
298255,2022-11-22_19h18.25.573,vts_reward_expectancy_bt,2022.2.4,Win32,60.74596039,Chrome,1536,864,,,a,0.8168,10,583,2,1,3,15,11,1,0,0,0,1,0,0,1,0,star,hexagon,,,,,,,,,,,,,,,,,,,,,,,,,,,,,,,,,,,,,,,,,,,,,,,,,,,,,,
298255,2022-11-22_19h18.25.573,vts_reward_expectancy_bt,2022.2.4,Win32,60.74596039,Chrome,1536,864,,,a,1.5387,1,584,2,1,4,16,7,1,0,0,1,0,0,1,0,0,hexagon,circle,,,,,,,,,,,,,,,,,,,,,,,,,,,,,,,,,,,,,,,,,,,,,,,,,,,,,,
298255,2022-11-22_19h18.25.573,vts_reward_expectancy_bt,2022.2.4,Win32,60.74596039,Chrome,1536,864,,,l,0.6018,10,594,2,1,5,17,3,1,0,1,0,0,1,0,0,0,circle,triangle,,,,,,,,,,,,,,,,,,,,,,,,,,,,,,,,,,,,,,,,,,,,,,,,,,,,,,
298255,2022-11-22_19h18.25.573,vts_reward_expectancy_bt,2022.2.4,Win32,60.74596039,Chrome,1536,864,,,a,0.5167,10,604,2,1,6,18,9,1,0,0,0,1,1,0,0,0,star,triangle,,,,,,,,,,,,,,,,,,,,,,,,,,,,,,,,,,,,,,,,,,,,,,,,,,,,,,
298255,2022-11-22_19h18.25.573,vts_reward_expectancy_bt,2022.2.4,Win32,60.74596039,Chrome,1536,864,,,a,0.4971,10,614,2,1,7,19,10,1,0,0,0,1,0,1,0,0,star ,circle,,,,,,,,,,,,,,,,,,,,,,,,,,,,,,,,,,,,,,,,,,,,,,,,,,,,,,
298255,2022-11-22_19h18.25.573,vts_reward_expectancy_bt,2022.2.4,Win32,60.74596039,Chrome,1536,864,,,l,1.6067,10,624,2,1,8,20,4,1,0,1,0,0,0,0,1,0,circle,hexagon,,,,,,,,,,,,,,,,,,,,,,,,,,,,,,,,,,,,,,,,,,,,,,,,,,,,,,
298255,2022-11-22_19h18.25.573,vts_reward_expectancy_bt,2022.2.4,Win32,60.74596039,Chrome,1536,864,,,l,0.9159,10,634,2,1,9,21,5,1,0,1,0,0,0,0,0,1,circle,star,,,,,,,,,,,,,,,,,,,,,,,,,,,,,,,,,,,,,,,,,,,,,,,,,,,,,,
298255,2022-11-22_19h18.25.573,vts_reward_expectancy_bt,2022.2.4,Win32,60.74596039,Chrome,1536,864,,,l,0.6015,10,644,2,1,10,22,2,1,1,0,0,0,0,0,0,1,triangle,star,,,,,,,,,,,,,,,,,,,,,,,,,,,,,,,,,,,,,,,,,,,,,,,,,,,,,,
298255,2022-11-22_19h18.25.573,vts_reward_expectancy_bt,2022.2.4,Win32,60.74596039,Chrome,1536,864,,,a,1.4171,10,654,2,1,11,23,0,1,1,0,0,0,0,1,0,0,triangle,circle,,,,,,,,,,,,,,,,,,,,,,,,,,,,,,,,,,,,,,,,,,,,,,,,,,,,,,
298255,2022-11-22_19h18.25.573,vts_reward_expectancy_bt,2022.2.4,Win32,60.74596039,Chrome,1536,864,,,a,0.5175,1,655,2,2,0,24,11,1,0,0,0,1,0,0,1,0,star,hexagon,,,,,,,,,,,,,,,,,,,,,,,,,,,,,,,,,,,,,,,,,,,,,,,,,,,,,,
298255,2022-11-22_19h18.25.573,vts_reward_expectancy_bt,2022.2.4,Win32,60.74596039,Chrome,1536,864,,,l,0.5164,10,665,2,2,1,25,5,1,0,1,0,0,0,0,0,1,circle,star,,,,,,,,,,,,,,,,,,,,,,,,,,,,,,,,,,,,,,,,,,,,,,,,,,,,,,
298255,2022-11-22_19h18.25.573,vts_reward_expectancy_bt,2022.2.4,Win32,60.74596039,Chrome,1536,864,,,a,1.1175,10,675,2,2,2,26,1,1,1,0,0,0,0,0,1,0,triangle,hexagon,,,,,,,,,,,,,,,,,,,,,,,,,,,,,,,,,,,,,,,,,,,,,,,,,,,,,,
298255,2022-11-22_19h18.25.573,vts_reward_expectancy_bt,2022.2.4,Win32,60.74596039,Chrome,1536,864,,,a,0.5836,10,685,2,2,3,27,9,1,0,0,0,1,1,0,0,0,star,triangle,,,,,,,,,,,,,,,,,,,,,,,,,,,,,,,,,,,,,,,,,,,,,,,,,,,,,,
298255,2022-11-22_19h18.25.573,vts_reward_expectancy_bt,2022.2.4,Win32,60.74596039,Chrome,1536,864,,,l,0.7037,10,695,2,2,4,28,3,1,0,1,0,0,1,0,0,0,circle,triangle,,,,,,,,,,,,,,,,,,,,,,,,,,,,,,,,,,,,,,,,,,,,,,,,,,,,,,
298255,2022-11-22_19h18.25.573,vts_reward_expectancy_bt,2022.2.4,Win32,60.74596039,Chrome,1536,864,,,l,0.5355,10,705,2,2,5,29,2,1,1,0,0,0,0,0,0,1,triangle,star,,,,,,,,,,,,,,,,,,,,,,,,,,,,,,,,,,,,,,,,,,,,,,,,,,,,,,
298255,2022-11-22_19h18.25.573,vts_reward_expectancy_bt,2022.2.4,Win32,60.74596039,Chrome,1536,864,,,a,0.8505,1,706,2,2,6,30,4,1,0,1,0,0,0,0,1,0,circle,hexagon,,,,,,,,,,,,,,,,,,,,,,,,,,,,,,,,,,,,,,,,,,,,,,,,,,,,,,
298255,2022-11-22_19h18.25.573,vts_reward_expectancy_bt,2022.2.4,Win32,60.74596039,Chrome,1536,864,,,l,0.4817,10,716,2,2,7,31,6,1,0,0,1,0,1,0,0,0,hexagon,triangle,,,,,,,,,,,,,,,,,,,,,,,,,,,,,,,,,,,,,,,,,,,,,,,,,,,,,,
298255,2022-11-22_19h18.25.573,vts_reward_expectancy_bt,2022.2.4,Win32,60.74596039,Chrome,1536,864,,,l,0.9014,1,717,2,2,8,32,7,1,0,0,1,0,0,1,0,0,hexagon,circle,,,,,,,,,,,,,,,,,,,,,,,,,,,,,,,,,,,,,,,,,,,,,,,,,,,,,,
298255,2022-11-22_19h18.25.573,vts_reward_expectancy_bt,2022.2.4,Win32,60.74596039,Chrome,1536,864,,,a,0.425,1,718,2,2,9,33,10,1,0,0,0,1,0,1,0,0,star ,circle,,,,,,,,,,,,,,,,,,,,,,,,,,,,,,,,,,,,,,,,,,,,,,,,,,,,,,
298255,2022-11-22_19h18.25.573,vts_reward_expectancy_bt,2022.2.4,Win32,60.74596039,Chrome,1536,864,,,l,0.5382,10,728,2,2,10,34,8,1,0,0,1,0,0,0,0,1,hexagon,star,,,,,,,,,,,,,,,,,,,,,,,,,,,,,,,,,,,,,,,,,,,,,,,,,,,,,,
298255,2022-11-22_19h18.25.573,vts_reward_expectancy_bt,2022.2.4,Win32,60.74596039,Chrome,1536,864,,,a,0.8428,10,738,2,2,11,35,0,1,1,0,0,0,0,1,0,0,triangle,circle,,,,,,,,,,,,,,,,,,,,,,,,,,,,,,,,,,,,,,,,,,,,,,,,,,,,,,
298255,2022-11-22_19h18.25.573,vts_reward_expectancy_bt,2022.2.4,Win32,60.74596039,Chrome,1536,864,,,,,,,,,,,,,,,,,,,,,,,174,F,triangle,1,0,f,0.9837,0,0,0,0,0,1,,,,,,,,,,,,,,,,,,,,,,,,,,,,,,,,,,,,,,,,,
298255,2022-11-22_19h18.25.573,vts_reward_expectancy_bt,2022.2.4,Win32,60.74596039,Chrome,1536,864,,,,,,,,,,,,,,,,,,,,,,,132,D,star,1,0,d,0.7259,0,1,0,1,0,1,,,,,,,,,,,,,,,,,,,,,,,,,,,,,,,,,,,,,,,,,
298255,2022-11-22_19h18.25.573,vts_reward_expectancy_bt,2022.2.4,Win32,60.74596039,Chrome,1536,864,,,,,,,,,,,,,,,,,,,,,,,139,U,circle,1,0,d,1.1866,0,2,0,2,0,1,,,,,,,,,,,,,,,,,,,,,,,,,,,,,,,,,,,,,,,,,
298255,2022-11-22_19h18.25.573,vts_reward_expectancy_bt,2022.2.4,Win32,60.74596039,Chrome,1536,864,,,,,,,,,,,,,,,,,,,,,,,181,S,hexagon,1,0,f,0.5183,0,3,0,3,0,1,,,,,,,,,,,,,,,,,,,,,,,,,,,,,,,,,,,,,,,,,
298255,2022-11-22_19h18.25.573,vts_reward_expectancy_bt,2022.2.4,Win32,60.74596039,Chrome,1536,864,,,,,,,,,,,,,,,,,,,,,,,146,H,triangle,1,0,d,0.5742,0,4,0,4,0,1,,,,,,,,,,,,,,,,,,,,,,,,,,,,,,,,,,,,,,,,,
298255,2022-11-22_19h18.25.573,vts_reward_expectancy_bt,2022.2.4,Win32,60.74596039,Chrome,1536,864,,,,,,,,,,,,,,,,,,,,,,,125,Y,star,1,0,d,0.5617,0,5,0,5,0,1,,,,,,,,,,,,,,,,,,,,,,,,,,,,,,,,,,,,,,,,,
298255,2022-11-22_19h18.25.573,vts_reward_expectancy_bt,2022.2.4,Win32,60.74596039,Chrome,1536,864,,,,,,,,,,,,,,,,,,,,,,,160,W,circle,1,0,f,0.6171,0,6,0,6,0,1,,,,,,,,,,,,,,,,,,,,,,,,,,,,,,,,,,,,,,,,,
298255,2022-11-22_19h18.25.573,vts_reward_expectancy_bt,2022.2.4,Win32,60.74596039,Chrome,1536,864,,,,,,,,,,,,,,,,,,,,,,,167,B,hexagon,1,0,f,0.6403,0,7,0,7,0,1,,,,,,,,,,,,,,,,,,,,,,,,,,,,,,,,,,,,,,,,,
298255,2022-11-22_19h18.25.573,vts_reward_expectancy_bt,2022.2.4,Win32,60.74596039,Chrome,1536,864,,,,,,,,,,,,,,,,,,,,,,,174,F,triangle,1,0,f,0.6391,0,8,0,8,0,1,,,,,,,,,,,,,,,,,,,,,,,,,,,,,,,,,,,,,,,,,
298255,2022-11-22_19h18.25.573,vts_reward_expectancy_bt,2022.2.4,Win32,60.74596039,Chrome,1536,864,,,,,,,,,,,,,,,,,,,,,,,132,D,hexagon,1,0,d,0.5909,0,9,0,9,0,1,,,,,,,,,,,,,,,,,,,,,,,,,,,,,,,,,,,,,,,,,
298255,2022-11-22_19h18.25.573,vts_reward_expectancy_bt,2022.2.4,Win32,60.74596039,Chrome,1536,864,,,,,,,,,,,,,,,,,,,,,,,160,W,star,1,0,,,1,,,,,,k,0.6064,0,0,0,0,1,,,,,,,,,,,,,,,,,,,,,,,,,,,,,,,,,,
298255,2022-11-22_19h18.25.573,vts_reward_expectancy_bt,2022.2.4,Win32,60.74596039,Chrome,1536,864,,,,,,,,,,,,,,,,,,,,,,,139,U,circle,1,0,,,1,,,,,,k,0.7039,1,0,1,0,1,,,,,,,,,,,,,,,,,,,,,,,,,,,,,,,,,,
298255,2022-11-22_19h18.25.573,vts_reward_expectancy_bt,2022.2.4,Win32,60.74596039,Chrome,1536,864,,,,,,,,,,,,,,,,,,,,,,,181,H,hexagon,1,0,,,1,,,,,,j,0.4338,2,0,2,0,1,,,,,,,,,,,,,,,,,,,,,,,,,,,,,,,,,,
298255,2022-11-22_19h18.25.573,vts_reward_expectancy_bt,2022.2.4,Win32,60.74596039,Chrome,1536,864,,,,,,,,,,,,,,,,,,,,,,,167,B,triangle,1,0,,,1,,,,,,j,0.5721,3,0,3,0,1,,,,,,,,,,,,,,,,,,,,,,,,,,,,,,,,,,
298255,2022-11-22_19h18.25.573,vts_reward_expectancy_bt,2022.2.4,Win32,60.74596039,Chrome,1536,864,,,,,,,,,,,,,,,,,,,,,,,132,S,star,1,0,,,1,,,,,,k,1.8672,4,0,4,0,1,,,,,,,,,,,,,,,,,,,,,,,,,,,,,,,,,,
298255,2022-11-22_19h18.25.573,vts_reward_expectancy_bt,2022.2.4,Win32,60.74596039,Chrome,1536,864,,,,,,,,,,,,,,,,,,,,,,,125,F,circle,1,0,,,1,,,,,,j,0.6145,5,0,5,0,1,,,,,,,,,,,,,,,,,,,,,,,,,,,,,,,,,,
298255,2022-11-22_19h18.25.573,vts_reward_expectancy_bt,2022.2.4,Win32,60.74596039,Chrome,1536,864,,,,,,,,,,,,,,,,,,,,,,,174,D,hexagon,1,0,,,1,,,,,,j,0.626,6,0,6,0,1,,,,,,,,,,,,,,,,,,,,,,,,,,,,,,,,,,
298255,2022-11-22_19h18.25.573,vts_reward_expectancy_bt,2022.2.4,Win32,60.74596039,Chrome,1536,864,,,,,,,,,,,,,,,,,,,,,,,146,Y,triangle,1,0,,,1,,,,,,k,0.5853,7,0,7,0,1,,,,,,,,,,,,,,,,,,,,,,,,,,,,,,,,,,
298255,2022-11-22_19h18.25.573,vts_reward_expectancy_bt,2022.2.4,Win32,60.74596039,Chrome,1536,864,,,,,,,,,,,,,,,,,,,,,,,160,W,triangle,1,0,,,1,,,,,,k,0.5588,8,0,8,0,1,,,,,,,,,,,,,,,,,,,,,,,,,,,,,,,,,,
298255,2022-11-22_19h18.25.573,vts_reward_expectancy_bt,2022.2.4,Win32,60.74596039,Chrome,1536,864,,,,,,,,,,,,,,,,,,,,,,,139,U,circle,1,0,,,1,,,,,,k,0.6685,9,0,9,0,1,,,,,,,,,,,,,,,,,,,,,,,,,,,,,,,,,,
298255,2022-11-22_19h18.25.573,vts_reward_expectancy_bt,2022.2.4,Win32,60.74596039,Chrome,1536,864,,,,,0,738,,,,,,,,,,,,,,,,,132,W,hexagon,-1,0,,,2,,,,,,,,,,,,,-1,no_choice,NA,,vtsPrac,0,0,0,0,1,,,,,,,,,,,,,,,,,,,,,,,,
298255,2022-11-22_19h18.25.573,vts_reward_expectancy_bt,2022.2.4,Win32,60.74596039,Chrome,1536,864,,,,,0,738,,,,,,,,,,,,,,,,,174,S,star,1,0,,,2,,,,,,,,,,,,,switch,number,numSwt,f,vtsPrac,1,0,1,0,1,0.7502,,,,,,,,,,,,,,,,,,,,,,,
298255,2022-11-22_19h18.25.573,vts_reward_expectancy_bt,2022.2.4,Win32,60.74596039,Chrome,1536,864,,,,,0,738,,,,,,,,,,,,,,,,,160,U,hexagon,1,0,,,2,,,,,,,,,,,,,repeat,number,numRpt,f,vtsPrac,2,0,2,0,1,0.6517,,,,,,,,,,,,,,,,,,,,,,,
298255,2022-11-22_19h18.25.573,vts_reward_expectancy_bt,2022.2.4,Win32,60.74596039,Chrome,1536,864,,,,,0,738,,,,,,,,,,,,,,,,,139,B,star,1,0,,,2,,,,,,,,,,,,,repeat,number,numRpt,d,vtsPrac,3,0,3,0,1,0.4263,,,,,,,,,,,,,,,,,,,,,,,
298255,2022-11-22_19h18.25.573,vts_reward_expectancy_bt,2022.2.4,Win32,60.74596039,Chrome,1536,864,,,,,0,738,,,,,,,,,,,,,,,,,132,W,circle,1,0,,,2,,,,,,,,,,,,,repeat,number,numRpt,d,vtsPrac,4,0,4,0,1,0.5502,,,,,,,,,,,,,,,,,,,,,,,
298255,2022-11-22_19h18.25.573,vts_reward_expectancy_bt,2022.2.4,Win32,60.74596039,Chrome,1536,864,,,,,0,738,,,,,,,,,,,,,,,,,174,S,triangle,1,0,,,2,,,,,,,,,,,,,repeat,number,numRpt,f,vtsPrac,5,0,5,0,1,0.4166,,,,,,,,,,,,,,,,,,,,,,,
298255,2022-11-22_19h18.25.573,vts_reward_expectancy_bt,2022.2.4,Win32,60.74596039,Chrome,1536,864,,,,,0,738,,,,,,,,,,,,,,,,,160,U,triangle,1,0,,,2,,,,,,,,,,,,,repeat,number,numRpt,f,vtsPrac,6,0,6,0,1,0.6526,,,,,,,,,,,,,,,,,,,,,,,
298255,2022-11-22_19h18.25.573,vts_reward_expectancy_bt,2022.2.4,Win32,60.74596039,Chrome,1536,864,,,,,0,738,,,,,,,,,,,,,,,,,139,B,hexagon,0,0,,,2,,,,,,,,,,,,,repeat,number,NA,f,vtsPrac,7,0,7,0,1,0.5177,,,,,,,,,,,,,,,,,,,,,,,
298255,2022-11-22_19h18.25.573,vts_reward_expectancy_bt,2022.2.4,Win32,60.74596039,Chrome,1536,864,,,,,0,738,,,,,,,,,,,,,,,,,167,S,triangle,1,1,,,2,,,,,,,,,,,,,repeat,number,numRpt,f,vtsPrac,8,0,8,0,1,0.5691,,,,,,,,,,,,,,,,,,,,,,,
298255,2022-11-22_19h18.25.573,vts_reward_expectancy_bt,2022.2.4,Win32,60.74596039,Chrome,1536,864,,,,,0,738,,,,,,,,,,,,,,,,,139,D,star,1,0,,,2,,,,,,,,,,,,,repeat,number,numRpt,d,vtsPrac,9,0,9,0,1,0.4844,,,,,,,,,,,,,,,,,,,,,,,
298255,2022-11-22_19h18.25.573,vts_reward_expectancy_bt,2022.2.4,Win32,60.74596039,Chrome,1536,864,,,,,0,738,,,,,,,,,,,,,,,,,125,U,star,1,0,,,2,,,,,,,,,,,,,repeat,number,numRpt,d,vtsPrac,10,0,10,0,1,0.5517,,,,,,,,,,,,,,,,,,,,,,,
298255,2022-11-22_19h18.25.573,vts_reward_expectancy_bt,2022.2.4,Win32,60.74596039,Chrome,1536,864,,,,,0,738,,,,,,,,,,,,,,,,,181,Y,triangle,1,0,,,2,,,,,,,,,,,,,repeat,number,numRpt,f,vtsPrac,11,0,11,0,1,0.4019,,,,,,,,,,,,,,,,,,,,,,,
298255,2022-11-22_19h18.25.573,vts_reward_expectancy_bt,2022.2.4,Win32,60.74596039,Chrome,1536,864,,,,,0,738,,,,,,,,,,,,,,,,,132,H,triangle,1,0,,,2,,,,,,,,,,,,,repeat,number,numRpt,d,vtsPrac,12,0,12,0,1,0.5177,,,,,,,,,,,,,,,,,,,,,,,
298255,2022-11-22_19h18.25.573,vts_reward_expectancy_bt,2022.2.4,Win32,60.74596039,Chrome,1536,864,,,,,0,738,,,,,,,,,,,,,,,,,174,D,circle,1,0,,,2,,,,,,,,,,,,,repeat,number,numRpt,f,vtsPrac,13,0,13,0,1,0.5343,,,,,,,,,,,,,,,,,,,,,,,
298255,2022-11-22_19h18.25.573,vts_reward_expectancy_bt,2022.2.4,Win32,60.74596039,Chrome,1536,864,,,,,0,738,,,,,,,,,,,,,,,,,139,S,star,1,0,,,2,,,,,,,,,,,,,repeat,number,numRpt,d,vtsPrac,14,0,14,0,1,0.9671,,,,,,,,,,,,,,,,,,,,,,,
298255,2022-11-22_19h18.25.573,vts_reward_expectancy_bt,2022.2.4,Win32,60.74596039,Chrome,1536,864,,,,,0,738,,,,,,,,,,,,,,,,,146,F,hexagon,1,0,,,2,,,,,,,,,,,,,repeat,number,numRpt,d,vtsPrac,15,0,15,0,1,1.1838,,,,,,,,,,,,,,,,,,,,,,,
298255,2022-11-22_19h18.25.573,vts_reward_expectancy_bt,2022.2.4,Win32,60.74596039,Chrome,1536,864,,,,,0,738,,,,,,,,,,,,,,,,,146,H,hexagon,1,0,,,2,,,,,,,,,,,,,repeat,number,numRpt,d,vtsPrac,16,0,16,0,1,0.7053,,,,,,,,,,,,,,,,,,,,,,,
298255,2022-11-22_19h18.25.573,vts_reward_expectancy_bt,2022.2.4,Win32,60.74596039,Chrome,1536,864,,,,,0,738,,,,,,,,,,,,,,,,,167,D,triangle,1,0,,,2,,,,,,,,,,,,,repeat,number,numRpt,f,vtsPrac,17,0,17,0,1,0.6347,,,,,,,,,,,,,,,,,,,,,,,
298255,2022-11-22_19h18.25.573,vts_reward_expectancy_bt,2022.2.4,Win32,60.74596039,Chrome,1536,864,,,,,0,738,,,,,,,,,,,,,,,,,125,Y,circle,1,0,,,2,,,,,,,,,,,,,repeat,number,numRpt,d,vtsPrac,18,0,18,0,1,0.4679,,,,,,,,,,,,,,,,,,,,,,,
298255,2022-11-22_19h18.25.573,vts_reward_expectancy_bt,2022.2.4,Win32,60.74596039,Chrome,1536,864,,,,,0,738,,,,,,,,,,,,,,,,,181,W,triangle,1,0,,,2,,,,,,,,,,,,,repeat,number,numRpt,f,vtsPrac,19,0,19,0,1,0.7013,,,,,,,,,,,,,,,,,,,,,,,
298255,2022-11-22_19h18.25.573,vts_reward_expectancy_bt,2022.2.4,Win32,60.74596039,Chrome,1536,864,,,,,0,738,,,,,,,,,,,,,,,,,160,Y,triangle,1,0,,,2,,,,,,,,,,,,,switch,letter,lettSwt,k,vtsPrac,20,0,20,0,1,0.6241,,,,,,,,,,,,,,,,,,,,,,,
298255,2022-11-22_19h18.25.573,vts_reward_expectancy_bt,2022.2.4,Win32,60.74596039,Chrome,1536,864,,,,,0,738,,,,,,,,,,,,,,,,,181,D,star,1,0,,,2,,,,,,,,,,,,,repeat,letter,lettRpt,j,vtsPrac,21,0,21,0,1,0.7731,,,,,,,,,,,,,,,,,,,,,,,
298255,2022-11-22_19h18.25.573,vts_reward_expectancy_bt,2022.2.4,Win32,60.74596039,Chrome,1536,864,,,,,0,738,,,,,,,,,,,,,,,,,174,U,hexagon,1,0,,,2,,,,,,,,,,,,,repeat,letter,lettRpt,k,vtsPrac,22,0,22,0,1,0.884,,,,,,,,,,,,,,,,,,,,,,,
298255,2022-11-22_19h18.25.573,vts_reward_expectancy_bt,2022.2.4,Win32,60.74596039,Chrome,1536,864,,,,,0,738,,,,,,,,,,,,,,,,,167,S,triangle,0,0,,,2,,,,,,,,,,,,,repeat,letter,NA,j,vtsPrac,23,0,23,0,1,0.4006,,,,,,,,,,,,,,,,,,,,,,,
298255,2022-11-22_19h18.25.573,vts_reward_expectancy_bt,2022.2.4,Win32,60.74596039,Chrome,1536,864,,,,,0,738,,,,,,,,,,,,,,,,,174,D,star,1,1,,,2,,,,,,,,,,,,,repeat,letter,lettRpt,j,vtsPrac,24,0,24,0,1,0.5869,,,,,,,,,,,,,,,,,,,,,,,
298255,2022-11-22_19h18.25.573,vts_reward_expectancy_bt,2022.2.4,Win32,60.74596039,Chrome,1536,864,,,,,0,738,,,,,,,,,,,,,,,,,125,W,circle,1,0,,,2,,,,,,,,,,,,,repeat,letter,lettRpt,k,vtsPrac,25,0,25,0,1,0.6023,,,,,,,,,,,,,,,,,,,,,,,
298255,2022-11-22_19h18.25.573,vts_reward_expectancy_bt,2022.2.4,Win32,60.74596039,Chrome,1536,864,,,,,0,738,,,,,,,,,,,,,,,,,181,S,circle,1,0,,,2,,,,,,,,,,,,,repeat,letter,lettRpt,k,vtsPrac,26,0,26,0,1,1.1505,,,,,,,,,,,,,,,,,,,,,,,
298255,2022-11-22_19h18.25.573,vts_reward_expectancy_bt,2022.2.4,Win32,60.74596039,Chrome,1536,864,,,,,0,738,,,,,,,,,,,,,,,,,139,F,hexagon,1,0,,,2,,,,,,,,,,,,,repeat,letter,lettRpt,j,vtsPrac,27,0,27,0,1,0.4683,,,,,,,,,,,,,,,,,,,,,,,
298255,2022-11-22_19h18.25.573,vts_reward_expectancy_bt,2022.2.4,Win32,60.74596039,Chrome,1536,864,,,,,0,738,,,,,,,,,,,,,,,,,174,D,hexagon,1,0,,,2,,,,,,,,,,,,,switch,number,numSwt,f,vtsPrac,28,0,28,0,1,0.6542,,,,,,,,,,,,,,,,,,,,,,,
298255,2022-11-22_19h18.25.573,vts_reward_expectancy_bt,2022.2.4,Win32,60.74596039,Chrome,1536,864,,,,,0,738,,,,,,,,,,,,,,,,,139,S,circle,1,0,,,2,,,,,,,,,,,,,repeat,number,numRpt,d,vtsPrac,29,0,29,0,1,0.5007,,,,,,,,,,,,,,,,,,,,,,,
298255,2022-11-22_19h18.25.573,vts_reward_expectancy_bt,2022.2.4,Win32,60.74596039,Chrome,1536,864,,,,,0,738,,,,,,,,,,,,,,,,,181,Y,star,1,0,,,2,,,,,,,,,,,,,repeat,number,numRpt,f,vtsPrac,30,0,30,0,1,0.4074,,,,,,,,,,,,,,,,,,,,,,,
298255,2022-11-22_19h18.25.573,vts_reward_expectancy_bt,2022.2.4,Win32,60.74596039,Chrome,1536,864,,,,,0,738,,,,,,,,,,,,,,,,,167,H,triangle,1,0,,,2,,,,,,,,,,,,,repeat,number,numRpt,f,vtsPrac,31,0,31,0,1,0.4692,,,,,,,,,,,,,,,,,,,,,,,
298255,2022-11-22_19h18.25.573,vts_reward_expectancy_bt,2022.2.4,Win32,60.74596039,Chrome,1536,864,,,,,0,738,,,,,,,,,,,,,,,,,167,Y,triangle,1,0,,,3,,,,,,,,,,,,,repeat,number,numRpt,f,vtsPrac,0,0,0,0,1,0.6184,,,,,,,,,,,,,,,,,,,,,,,
298255,2022-11-22_19h18.25.573,vts_reward_expectancy_bt,2022.2.4,Win32,60.74596039,Chrome,1536,864,,,,,0,738,,,,,,,,,,,,,,,,,132,H,circle,1,0,,,3,,,,,,,,,,,,,switch,letter,lettSwt,j,vtsPrac,1,0,1,0,1,0.6373,,,,,,,,,,,,,,,,,,,,,,,
298255,2022-11-22_19h18.25.573,vts_reward_expectancy_bt,2022.2.4,Win32,60.74596039,Chrome,1536,864,,,,,0,738,,,,,,,,,,,,,,,,,181,D,triangle,1,0,,,3,,,,,,,,,,,,,repeat,letter,lettRpt,j,vtsPrac,2,0,2,0,1,0.6584,,,,,,,,,,,,,,,,,,,,,,,
298255,2022-11-22_19h18.25.573,vts_reward_expectancy_bt,2022.2.4,Win32,60.74596039,Chrome,1536,864,,,,,0,738,,,,,,,,,,,,,,,,,139,U,circle,1,0,,,3,,,,,,,,,,,,,switch,number,numSwt,d,vtsPrac,3,0,3,0,1,0.6516,,,,,,,,,,,,,,,,,,,,,,,
298255,2022-11-22_19h18.25.573,vts_reward_expectancy_bt,2022.2.4,Win32,60.74596039,Chrome,1536,864,,,,,0,738,,,,,,,,,,,,,,,,,167,Y,hexagon,1,0,,,3,,,,,,,,,,,,,switch,letter,lettSwt,k,vtsPrac,4,0,4,0,1,0.5243,,,,,,,,,,,,,,,,,,,,,,,
298255,2022-11-22_19h18.25.573,vts_reward_expectancy_bt,2022.2.4,Win32,60.74596039,Chrome,1536,864,,,,,0,738,,,,,,,,,,,,,,,,,132,H,star,1,0,,,3,,,,,,,,,,,,,switch,number,numSwt,d,vtsPrac,5,0,5,0,1,0.5578,,,,,,,,,,,,,,,,,,,,,,,
298255,2022-11-22_19h18.25.573,vts_reward_expectancy_bt,2022.2.4,Win32,60.74596039,Chrome,1536,864,,,,,0,738,,,,,,,,,,,,,,,,,181,D,circle,1,0,,,3,,,,,,,,,,,,,repeat,number,numRpt,f,vtsPrac,6,0,6,0,1,0.5695,,,,,,,,,,,,,,,,,,,,,,,
298255,2022-11-22_19h18.25.573,vts_reward_expectancy_bt,2022.2.4,Win32,60.74596039,Chrome,1536,864,,,,,0,738,,,,,,,,,,,,,,,,,139,U,hexagon,1,0,,,3,,,,,,,,,,,,,switch,letter,lettSwt,k,vtsPrac,7,0,7,0,1,0.6179,,,,,,,,,,,,,,,,,,,,,,,
298255,2022-11-22_19h18.25.573,vts_reward_expectancy_bt,2022.2.4,Win32,60.74596039,Chrome,1536,864,,,,,0,738,,,,,,,,,,,,,,,,,181,B,hexagon,1,0,,,3,,,,,,,,,,,,,switch,number,numSwt,f,vtsPrac,8,0,8,0,1,0.6046,,,,,,,,,,,,,,,,,,,,,,,
298255,2022-11-22_19h18.25.573,vts_reward_expectancy_bt,2022.2.4,Win32,60.74596039,Chrome,1536,864,,,,,0,738,,,,,,,,,,,,,,,,,146,F,star,1,0,,,3,,,,,,,,,,,,,switch,letter,lettSwt,j,vtsPrac,9,0,9,0,1,0.5036,,,,,,,,,,,,,,,,,,,,,,,
298255,2022-11-22_19h18.25.573,vts_reward_expectancy_bt,2022.2.4,Win32,60.74596039,Chrome,1536,864,,,,,0,738,,,,,,,,,,,,,,,,,125,D,hexagon,1,0,,,3,,,,,,,,,,,,,repeat,letter,lettRpt,j,vtsPrac,10,0,10,0,1,0.5744,,,,,,,,,,,,,,,,,,,,,,,
298255,2022-11-22_19h18.25.573,vts_reward_expectancy_bt,2022.2.4,Win32,60.74596039,Chrome,1536,864,,,,,0,738,,,,,,,,,,,,,,,,,160,Y,triangle,1,0,,,3,,,,,,,,,,,,,switch,number,numSwt,f,vtsPrac,11,0,11,0,1,0.6589,,,,,,,,,,,,,,,,,,,,,,,
298255,2022-11-22_19h18.25.573,vts_reward_expectancy_bt,2022.2.4,Win32,60.74596039,Chrome,1536,864,,,,,0,738,,,,,,,,,,,,,,,,,167,Y,star,1,0,,,3,,,,,,,,,,,,,switch,letter,lettSwt,k,vtsPrac,12,0,12,0,1,0.4577,,,,,,,,,,,,,,,,,,,,,,,
298255,2022-11-22_19h18.25.573,vts_reward_expectancy_bt,2022.2.4,Win32,60.74596039,Chrome,1536,864,,,,,0,738,,,,,,,,,,,,,,,,,146,B,triangle,-1,0,,,3,,,,,,,,,,,,,switch,no_choice,NA,,vtsPrac,13,0,13,0,1,,,,,,,,,,,,,,,,,,,,,,,,
298255,2022-11-22_19h18.25.573,vts_reward_expectancy_bt,2022.2.4,Win32,60.74596039,Chrome,1536,864,,,,,0,738,,,,,,,,,,,,,,,,,139,F,star,1,0,,,3,,,,,,,,,,,,,switch,number,numSwt,d,vtsPrac,14,0,14,0,1,0.9501,,,,,,,,,,,,,,,,,,,,,,,
298255,2022-11-22_19h18.25.573,vts_reward_expectancy_bt,2022.2.4,Win32,60.74596039,Chrome,1536,864,,,,,0,738,,,,,,,,,,,,,,,,,181,S,triangle,1,0,,,3,,,,,,,,,,,,,repeat,number,numRpt,f,vtsPrac,15,0,15,0,1,0.6514,,,,,,,,,,,,,,,,,,,,,,,
298255,2022-11-22_19h18.25.573,vts_reward_expectancy_bt,2022.2.4,Win32,60.74596039,Chrome,1536,864,,,,,0,738,,,,,,,,,,,,,,,,,146,U,hexagon,1,0,,,3,,,,,,,,,,,,,switch,letter,lettSwt,k,vtsPrac,16,0,16,0,1,0.4225,,,,,,,,,,,,,,,,,,,,,,,
298255,2022-11-22_19h18.25.573,vts_reward_expectancy_bt,2022.2.4,Win32,60.74596039,Chrome,1536,864,,,,,0,738,,,,,,,,,,,,,,,,,125,W,circle,1,0,,,3,,,,,,,,,,,,,switch,number,numSwt,d,vtsPrac,17,0,17,0,1,0.4864,,,,,,,,,,,,,,,,,,,,,,,
298255,2022-11-22_19h18.25.573,vts_reward_expectancy_bt,2022.2.4,Win32,60.74596039,Chrome,1536,864,,,,,0,738,,,,,,,,,,,,,,,,,181,B,circle,1,0,,,3,,,,,,,,,,,,,switch,letter,lettSwt,j,vtsPrac,18,0,18,0,1,0.6912,,,,,,,,,,,,,,,,,,,,,,,
298255,2022-11-22_19h18.25.573,vts_reward_expectancy_bt,2022.2.4,Win32,60.74596039,Chrome,1536,864,,,,,0,738,,,,,,,,,,,,,,,,,160,Y,hexagon,1,0,,,3,,,,,,,,,,,,,repeat,letter,lettRpt,k,vtsPrac,19,0,19,0,1,0.5669,,,,,,,,,,,,,,,,,,,,,,,
298255,2022-11-22_19h18.25.573,vts_reward_expectancy_bt,2022.2.4,Win32,60.74596039,Chrome,1536,864,,,,,0,738,,,,,,,,,,,,,,,,,125,S,star,1,0,,,3,,,,,,,,,,,,,switch,number,numSwt,d,vtsPrac,20,0,20,0,1,0.5684,,,,,,,,,,,,,,,,,,,,,,,
298255,2022-11-22_19h18.25.573,vts_reward_expectancy_bt,2022.2.4,Win32,60.74596039,Chrome,1536,864,,,,,0,738,,,,,,,,,,,,,,,,,132,B,hexagon,1,0,,,3,,,,,,,,,,,,,switch,letter,lettSwt,j,vtsPrac,21,0,21,0,1,0.585,,,,,,,,,,,,,,,,,,,,,,,
298255,2022-11-22_19h18.25.573,vts_reward_expectancy_bt,2022.2.4,Win32,60.74596039,Chrome,1536,864,,,,,0,738,,,,,,,,,,,,,,,,,139,F,hexagon,1,0,,,3,,,,,,,,,,,,,switch,number,numSwt,d,vtsPrac,22,0,22,0,1,0.5912,,,,,,,,,,,,,,,,,,,,,,,
298255,2022-11-22_19h18.25.573,vts_reward_expectancy_bt,2022.2.4,Win32,60.74596039,Chrome,1536,864,,,,,0,738,,,,,,,,,,,,,,,,,174,Y,circle,1,0,,,3,,,,,,,,,,,,,switch,letter,lettSwt,k,vtsPrac,23,0,23,0,1,0.4862,,,,,,,,,,,,,,,,,,,,,,,
298255,2022-11-22_19h18.25.573,vts_reward_expectancy_bt,2022.2.4,Win32,60.74596039,Chrome,1536,864,,,,,0,738,,,,,,,,,,,,,,,,,139,B,star,1,0,,,3,,,,,,,,,,,,,switch,number,numSwt,d,vtsPrac,24,0,24,0,1,0.5178,,,,,,,,,,,,,,,,,,,,,,,
298255,2022-11-22_19h18.25.573,vts_reward_expectancy_bt,2022.2.4,Win32,60.74596039,Chrome,1536,864,,,,,0,738,,,,,,,,,,,,,,,,,167,S,hexagon,1,0,,,3,,,,,,,,,,,,,switch,letter,lettSwt,k,vtsPrac,25,0,25,0,1,0.9045,,,,,,,,,,,,,,,,,,,,,,,
298255,2022-11-22_19h18.25.573,vts_reward_expectancy_bt,2022.2.4,Win32,60.74596039,Chrome,1536,864,,,,,0,738,,,,,,,,,,,,,,,,,125,F,triangle,1,0,,,3,,,,,,,,,,,,,switch,number,numSwt,d,vtsPrac,26,0,26,0,1,0.6345,,,,,,,,,,,,,,,,,,,,,,,
298255,2022-11-22_19h18.25.573,vts_reward_expectancy_bt,2022.2.4,Win32,60.74596039,Chrome,1536,864,,,,,0,738,,,,,,,,,,,,,,,,,160,W,hexagon,1,0,,,3,,,,,,,,,,,,,switch,letter,lettSwt,k,vtsPrac,27,0,27,0,1,0.4844,,,,,,,,,,,,,,,,,,,,,,,
298255,2022-11-22_19h18.25.573,vts_reward_expectancy_bt,2022.2.4,Win32,60.74596039,Chrome,1536,864,,,,,0,738,,,,,,,,,,,,,,,,,139,F,circle,1,0,,,3,,,,,,,,,,,,,switch,number,numSwt,d,vtsPrac,28,0,28,0,1,0.6569,,,,,,,,,,,,,,,,,,,,,,,
298255,2022-11-22_19h18.25.573,vts_reward_expectancy_bt,2022.2.4,Win32,60.74596039,Chrome,1536,864,,,,,0,738,,,,,,,,,,,,,,,,,167,Y,triangle,1,0,,,3,,,,,,,,,,,,,switch,letter,lettSwt,k,vtsPrac,29,0,29,0,1,0.7048,,,,,,,,,,,,,,,,,,,,,,,
298255,2022-11-22_19h18.25.573,vts_reward_expectancy_bt,2022.2.4,Win32,60.74596039,Chrome,1536,864,,,,,0,738,,,,,,,,,,,,,,,,,174,B,circle,1,0,,,3,,,,,,,,,,,,,switch,number,numSwt,f,vtsPrac,30,0,30,0,1,0.5547,,,,,,,,,,,,,,,,,,,,,,,
298255,2022-11-22_19h18.25.573,vts_reward_expectancy_bt,2022.2.4,Win32,60.74596039,Chrome,1536,864,,,,,0,738,,,,,,,,,,,,,,,,,160,S,hexagon,1,0,,,3,,,,,,,,,,,,,repeat,number,numRpt,f,vtsPrac,31,0,31,0,1,0.627,,,,,,,,,,,,,,,,,,,,,,,
298255,2022-11-22_19h18.25.573,vts_reward_expectancy_bt,2022.2.4,Win32,60.74596039,Chrome,1536,864,,,,,,,,,,,,,,,,,,,,,,,,,,,,,,,,,,,,,,,,,,,,,,,,,,,,,,,,,,,,,,,,,,,,,,,,,,,,
298255,2022-11-22_19h18.25.573,vts_reward_expectancy_bt,2022.2.4,Win32,60.74596039,Chrome,1536,864,,,,,,,,,,,,,,,,,,,,,,,,,,,,,,,,,,,,,,,,,,,,,,,,,,,,,,,,,,,,,,,,,,,,,,,,,,,,
298255,2022-11-22_19h18.25.573,vts_reward_expectancy_bt,2022.2.4,Win32,60.74596039,Chrome,1536,864,,,,,0,738,,,,,,,,,,,,,,,,,181,S,circle,1,0,,,,,,,,,,,,,,,,repeat,number,numRpt,f,noRew,,,,,,0.6507,0,0,0,0,0,1,,,,,,,,,,,,,,,,,
298255,2022-11-22_19h18.25.573,vts_reward_expectancy_bt,2022.2.4,Win32,60.74596039,Chrome,1536,864,,,,,0,738,,,,,,,,,,,,,,,,,125,W,hexagon,1,0,,,,,,,,,,,,,,,,repeat,number,numRpt,d,noRew,,,,,,0.574,0,1,0,1,0,1,,,,,,,,,,,,,,,,,
298255,2022-11-22_19h18.25.573,vts_reward_expectancy_bt,2022.2.4,Win32,60.74596039,Chrome,1536,864,,,,,0,738,,,,,,,,,,,,,,,,,146,U,circle,1,0,,,,,,,,,,,,,,,,switch,letter,lettSwt,k,noRew,,,,,,0.5054,0,2,0,2,0,1,,,,,,,,,,,,,,,,,
298255,2022-11-22_19h18.25.573,vts_reward_expectancy_bt,2022.2.4,Win32,60.74596039,Chrome,1536,864,,,,,0,738,,,,,,,,,,,,,,,,,167,D,hexagon,1,0,,,,,,,,,,,,,,,,switch,number,numSwt,f,noRew,,,,,,0.5185,0,3,0,3,0,1,,,,,,,,,,,,,,,,,
298255,2022-11-22_19h18.25.573,vts_reward_expectancy_bt,2022.2.4,Win32,60.74596039,Chrome,1536,864,,,,,0,738,,,,,,,,,,,,,,,,,181,S,star,1,0,,,,,,,,,,,,,,,,switch,letter,lettSwt,k,noRew,,,,,,0.6208,0,4,0,4,0,1,,,,,,,,,,,,,,,,,
298255,2022-11-22_19h18.25.573,vts_reward_expectancy_bt,2022.2.4,Win32,60.74596039,Chrome,1536,864,,,,,0,738,,,,,,,,,,,,,,,,,125,W,triangle,1,0,,,,,,,,,,,,,,,,repeat,letter,lettRpt,k,noRew,,,,,,0.5578,0,5,0,5,0,1,,,,,,,,,,,,,,,,,
298255,2022-11-22_19h18.25.573,vts_reward_expectancy_bt,2022.2.4,Win32,60.74596039,Chrome,1536,864,,,,,0,738,,,,,,,,,,,,,,,,,146,U,hexagon,1,0,,,,,,,,,,,,,,,,switch,number,numSwt,d,noRew,,,,,,1.2172,0,6,0,6,0,1,,,,,,,,,,,,,,,,,
298255,2022-11-22_19h18.25.573,vts_reward_expectancy_bt,2022.2.4,Win32,60.74596039,Chrome,1536,864,,,,,0,738,,,,,,,,,,,,,,,,,167,D,triangle,1,0,,,,,,,,,,,,,,,,repeat,number,numRpt,f,noRew,,,,,,0.6193,0,7,0,7,0,1,,,,,,,,,,,,,,,,,
298255,2022-11-22_19h18.25.573,vts_reward_expectancy_bt,2022.2.4,Win32,60.74596039,Chrome,1536,864,,,,,0,738,,,,,,,,,,,,,,,,,146,S,hexagon,1,0,,,,,,,,,,,,,,,,switch,letter,lettSwt,k,noRew,,,,,,0.6569,0,8,0,8,0,1,,,,,,,,,,,,,,,,,
298255,2022-11-22_19h18.25.573,vts_reward_expectancy_bt,2022.2.4,Win32,60.74596039,Chrome,1536,864,,,,,0,738,,,,,,,,,,,,,,,,,125,B,star,1,0,,,,,,,,,,,,,,,,switch,number,numSwt,d,noRew,,,,,,0.5182,0,9,0,9,0,1,,,,,,,,,,,,,,,,,
298255,2022-11-22_19h18.25.573,vts_reward_expectancy_bt,2022.2.4,Win32,60.74596039,Chrome,1536,864,,,,,0,738,,,,,,,,,,,,,,,,,167,D,star,1,0,,,,,,,,,,,,,,,,switch,letter,lettSwt,j,noRew,,,,,,0.7348,0,10,0,10,0,1,,,,,,,,,,,,,,,,,
298255,2022-11-22_19h18.25.573,vts_reward_expectancy_bt,2022.2.4,Win32,60.74596039,Chrome,1536,864,,,,,0,738,,,,,,,,,,,,,,,,,174,U,hexagon,1,0,,,,,,,,,,,,,,,,switch,number,numSwt,f,noRew,,,,,,0.6845,0,11,0,11,0,1,,,,,,,,,,,,,,,,,
298255,2022-11-22_19h18.25.573,vts_reward_expectancy_bt,2022.2.4,Win32,60.74596039,Chrome,1536,864,,,,,0,738,,,,,,,,,,,,,,,,,139,W,star,1,0,,,,,,,,,,,,,,,,repeat,number,numRpt,d,noRew,,,,,,0.6849,0,12,0,12,0,1,,,,,,,,,,,,,,,,,
298255,2022-11-22_19h18.25.573,vts_reward_expectancy_bt,2022.2.4,Win32,60.74596039,Chrome,1536,864,,,,,0,738,,,,,,,,,,,,,,,,,181,Y,triangle,1,0,,,,,,,,,,,,,,,,switch,letter,lettSwt,k,noRew,,,,,,0.8188,0,13,0,13,0,1,,,,,,,,,,,,,,,,,
298255,2022-11-22_19h18.25.573,vts_reward_expectancy_bt,2022.2.4,Win32,60.74596039,Chrome,1536,864,,,,,0,738,,,,,,,,,,,,,,,,,125,D,triangle,1,0,,,,,,,,,,,,,,,,repeat,letter,lettRpt,j,noRew,,,,,,0.5738,0,14,0,14,0,1,,,,,,,,,,,,,,,,,
298255,2022-11-22_19h18.25.573,vts_reward_expectancy_bt,2022.2.4,Win32,60.74596039,Chrome,1536,864,,,,,0,738,,,,,,,,,,,,,,,,,160,F,star,1,0,,,,,,,,,,,,,,,,switch,number,numSwt,f,noRew,,,,,,0.8016,0,15,0,15,0,1,,,,,,,,,,,,,,,,,
298255,2022-11-22_19h18.25.573,vts_reward_expectancy_bt,2022.2.4,Win32,60.74596039,Chrome,1536,864,,,,,0,738,,,,,,,,,,,,,,,,,132,B,star,1,0,,,,,,,,,,,,,,,,switch,letter,lettSwt,j,noRew,,,,,,0.518,0,16,0,16,0,1,,,,,,,,,,,,,,,,,
298255,2022-11-22_19h18.25.573,vts_reward_expectancy_bt,2022.2.4,Win32,60.74596039,Chrome,1536,864,,,,,0,738,,,,,,,,,,,,,,,,,146,W,hexagon,1,0,,,,,,,,,,,,,,,,switch,number,numSwt,d,noRew,,,,,,0.8339,0,17,0,17,0,1,,,,,,,,,,,,,,,,,
298255,2022-11-22_19h18.25.573,vts_reward_expectancy_bt,2022.2.4,Win32,60.74596039,Chrome,1536,864,,,,,0,738,,,,,,,,,,,,,,,,,181,Y,circle,1,0,,,,,,,,,,,,,,,,repeat,number,numRpt,f,noRew,,,,,,0.5014,0,18,0,18,0,1,,,,,,,,,,,,,,,,,
298255,2022-11-22_19h18.25.573,vts_reward_expectancy_bt,2022.2.4,Win32,60.74596039,Chrome,1536,864,,,,,0,738,,,,,,,,,,,,,,,,,139,S,triangle,1,0,,,,,,,,,,,,,,,,switch,letter,lettSwt,k,noRew,,,,,,0.6517,0,19,0,19,0,1,,,,,,,,,,,,,,,,,
298255,2022-11-22_19h18.25.573,vts_reward_expectancy_bt,2022.2.4,Win32,60.74596039,Chrome,1536,864,,,,,0,738,,,,,,,,,,,,,,,,,167,F,circle,1,0,,,,,,,,,,,,,,,,switch,number,numSwt,f,noRew,,,,,,0.5849,0,20,0,20,0,1,,,,,,,,,,,,,,,,,
298255,2022-11-22_19h18.25.573,vts_reward_expectancy_bt,2022.2.4,Win32,60.74596039,Chrome,1536,864,,,,,0,738,,,,,,,,,,,,,,,,,132,B,star,1,0,,,,,,,,,,,,,,,,switch,letter,lettSwt,j,noRew,,,,,,0.5211,0,21,0,21,0,1,,,,,,,,,,,,,,,,,
298255,2022-11-22_19h18.25.573,vts_reward_expectancy_bt,2022.2.4,Win32,60.74596039,Chrome,1536,864,,,,,0,738,,,,,,,,,,,,,,,,,139,H,triangle,1,0,,,,,,,,,,,,,,,,switch,number,numSwt,d,noRew,,,,,,0.551,0,22,0,22,0,1,,,,,,,,,,,,,,,,,
298255,2022-11-22_19h18.25.573,vts_reward_expectancy_bt,2022.2.4,Win32,60.74596039,Chrome,1536,864,,,,,0,738,,,,,,,,,,,,,,,,,125,W,hexagon,1,0,,,,,,,,,,,,,,,,repeat,number,numRpt,d,noRew,,,,,,0.6579,0,23,0,23,0,1,,,,,,,,,,,,,,,,,
298255,2022-11-22_19h18.25.573,vts_reward_expectancy_bt,2022.2.4,Win32,60.74596039,Chrome,1536,864,,,,,0,738,,,,,,,,,,,,,,,,,125,H,circle,1,0,,,,,,,,,,,,,,,,switch,letter,lettSwt,j,noRew,,,,,,0.6011,0,24,0,24,0,1,,,,,,,,,,,,,,,,,
298255,2022-11-22_19h18.25.573,vts_reward_expectancy_bt,2022.2.4,Win32,60.74596039,Chrome,1536,864,,,,,0,738,,,,,,,,,,,,,,,,,167,B,triangle,1,0,,,,,,,,,,,,,,,,repeat,letter,lettRpt,j,noRew,,,,,,0.6005,0,25,0,25,0,1,,,,,,,,,,,,,,,,,
298255,2022-11-22_19h18.25.573,vts_reward_expectancy_bt,2022.2.4,Win32,60.74596039,Chrome,1536,864,,,,,0,738,,,,,,,,,,,,,,,,,160,S,hexagon,1,0,,,,,,,,,,,,,,,,switch,number,numSwt,f,noRew,,,,,,0.4755,0,26,0,26,0,1,,,,,,,,,,,,,,,,,
298255,2022-11-22_19h18.25.573,vts_reward_expectancy_bt,2022.2.4,Win32,60.74596039,Chrome,1536,864,,,,,0,738,,,,,,,,,,,,,,,,,139,Y,star,1,0,,,,,,,,,,,,,,,,switch,letter,lettSwt,k,noRew,,,,,,0.4888,0,27,0,27,0,1,,,,,,,,,,,,,,,,,
298255,2022-11-22_19h18.25.573,vts_reward_expectancy_bt,2022.2.4,Win32,60.74596039,Chrome,1536,864,,,,,0,738,,,,,,,,,,,,,,,,,139,W,triangle,1,0,,,,,,,,,,,,,,,,switch,number,numSwt,d,noRew,,,,,,0.7402,0,28,0,28,0,1,,,,,,,,,,,,,,,,,
298255,2022-11-22_19h18.25.573,vts_reward_expectancy_bt,2022.2.4,Win32,60.74596039,Chrome,1536,864,,,,,0,738,,,,,,,,,,,,,,,,,132,B,circle,1,0,,,,,,,,,,,,,,,,switch,letter,lettSwt,j,noRew,,,,,,0.6378,0,29,0,29,0,1,,,,,,,,,,,,,,,,,
298255,2022-11-22_19h18.25.573,vts_reward_expectancy_bt,2022.2.4,Win32,60.74596039,Chrome,1536,864,,,,,0,738,,,,,,,,,,,,,,,,,160,F,hexagon,1,0,,,,,,,,,,,,,,,,switch,number,numSwt,f,noRew,,,,,,0.5183,0,30,0,30,0,1,,,,,,,,,,,,,,,,,
298255,2022-11-22_19h18.25.573,vts_reward_expectancy_bt,2022.2.4,Win32,60.74596039,Chrome,1536,864,,,,,0,738,,,,,,,,,,,,,,,,,174,Y,triangle,1,0,,,,,,,,,,,,,,,,switch,letter,lettSwt,k,noRew,,,,,,0.6841,0,31,0,31,0,1,,,,,,,,,,,,,,,,,
298255,2022-11-22_19h18.25.573,vts_reward_expectancy_bt,2022.2.4,Win32,60.74596039,Chrome,1536,864,,,,,0,738,,,,,,,,,,,,,,,,,146,W,hexagon,1,0,,,,,,,,,,,,,,,,switch,number,numSwt,d,noRew,,,,,,0.7999,0,32,0,32,0,1,,,,,,,,,,,,,,,,,
298255,2022-11-22_19h18.25.573,vts_reward_expectancy_bt,2022.2.4,Win32,60.74596039,Chrome,1536,864,,,,,0,738,,,,,,,,,,,,,,,,,160,D,triangle,1,0,,,,,,,,,,,,,,,,switch,letter,lettSwt,j,noRew,,,,,,0.5845,0,33,0,33,0,1,,,,,,,,,,,,,,,,,
298255,2022-11-22_19h18.25.573,vts_reward_expectancy_bt,2022.2.4,Win32,60.74596039,Chrome,1536,864,,,,,0,738,,,,,,,,,,,,,,,,,167,Y,triangle,1,0,,,,,,,,,,,,,,,,switch,number,numSwt,f,noRew,,,,,,0.4519,0,34,0,34,0,1,,,,,,,,,,,,,,,,,
298255,2022-11-22_19h18.25.573,vts_reward_expectancy_bt,2022.2.4,Win32,60.74596039,Chrome,1536,864,,,,,0,738,,,,,,,,,,,,,,,,,174,H,hexagon,1,0,,,,,,,,,,,,,,,,repeat,number,numRpt,f,noRew,,,,,,0.5506,0,35,0,35,0,1,,,,,,,,,,,,,,,,,
298255,2022-11-22_19h18.25.573,vts_reward_expectancy_bt,2022.2.4,Win32,60.74596039,Chrome,1536,864,,,,,0,738,,,,,,,,,,,,,,,,,146,Y,star,1,0,,,,,,,,,,,,,,,,switch,letter,lettSwt,k,noRew,,,,,,0.4884,0,36,0,36,0,1,,,,,,,,,,,,,,,,,
298255,2022-11-22_19h18.25.573,vts_reward_expectancy_bt,2022.2.4,Win32,60.74596039,Chrome,1536,864,,,,,0,738,,,,,,,,,,,,,,,,,167,F,hexagon,1,0,,,,,,,,,,,,,,,,repeat,letter,lettRpt,j,noRew,,,,,,0.674,0,37,0,37,0,1,,,,,,,,,,,,,,,,,
298255,2022-11-22_19h18.25.573,vts_reward_expectancy_bt,2022.2.4,Win32,60.74596039,Chrome,1536,864,,,,,0,738,,,,,,,,,,,,,,,,,132,H,circle,1,0,,,,,,,,,,,,,,,,switch,number,numSwt,d,noRew,,,,,,0.8055,0,38,0,38,0,1,,,,,,,,,,,,,,,,,
298255,2022-11-22_19h18.25.573,vts_reward_expectancy_bt,2022.2.4,Win32,60.74596039,Chrome,1536,864,,,,,0,738,,,,,,,,,,,,,,,,,139,B,hexagon,1,0,,,,,,,,,,,,,,,,switch,letter,lettSwt,j,noRew,,,,,,0.4688,0,39,0,39,0,1,,,,,,,,,,,,,,,,,
298255,2022-11-22_19h18.25.573,vts_reward_expectancy_bt,2022.2.4,Win32,60.74596039,Chrome,1536,864,,,,,0,738,,,,,,,,,,,,,,,,,174,S,triangle,1,0,,,,,,,,,,,,,,,,switch,number,numSwt,f,noRew,,,,,,0.7529,0,40,0,40,0,1,,,,,,,,,,,,,,,,,
298255,2022-11-22_19h18.25.573,vts_reward_expectancy_bt,2022.2.4,Win32,60.74596039,Chrome,1536,864,,,,,0,738,,,,,,,,,,,,,,,,,181,H,hexagon,1,0,,,,,,,,,,,,,,,,switch,letter,lettSwt,j,noRew,,,,,,0.876,0,41,0,41,0,1,,,,,,,,,,,,,,,,,
298255,2022-11-22_19h18.25.573,vts_reward_expectancy_bt,2022.2.4,Win32,60.74596039,Chrome,1536,864,,,,,0,738,,,,,,,,,,,,,,,,,125,D,hexagon,1,0,,,,,,,,,,,,,,,,switch,number,numSwt,d,noRew,,,,,,0.5852,0,42,0,42,0,1,,,,,,,,,,,,,,,,,
298255,2022-11-22_19h18.25.573,vts_reward_expectancy_bt,2022.2.4,Win32,60.74596039,Chrome,1536,864,,,,,0,738,,,,,,,,,,,,,,,,,146,Y,triangle,1,0,,,,,,,,,,,,,,,,switch,letter,lettSwt,k,noRew,,,,,,0.6681,0,43,0,43,0,1,,,,,,,,,,,,,,,,,
298255,2022-11-22_19h18.25.573,vts_reward_expectancy_bt,2022.2.4,Win32,60.74596039,Chrome,1536,864,,,,,0,738,,,,,,,,,,,,,,,,,174,D,triangle,1,0,,,,,,,,,,,,,,,,switch,number,numSwt,f,noRew,,,,,,0.5723,0,44,0,44,0,1,,,,,,,,,,,,,,,,,
298255,2022-11-22_19h18.25.573,vts_reward_expectancy_bt,2022.2.4,Win32,60.74596039,Chrome,1536,864,,,,,0,738,,,,,,,,,,,,,,,,,167,H,star,1,0,,,,,,,,,,,,,,,,switch,letter,lettSwt,j,noRew,,,,,,0.6518,0,45,0,45,0,1,,,,,,,,,,,,,,,,,
298255,2022-11-22_19h18.25.573,vts_reward_expectancy_bt,2022.2.4,Win32,60.74596039,Chrome,1536,864,,,,,0,738,,,,,,,,,,,,,,,,,181,U,circle,1,0,,,,,,,,,,,,,,,,repeat,letter,lettRpt,k,noRew,,,,,,0.6588,0,46,0,46,0,1,,,,,,,,,,,,,,,,,
298255,2022-11-22_19h18.25.573,vts_reward_expectancy_bt,2022.2.4,Win32,60.74596039,Chrome,1536,864,,,,,0,738,,,,,,,,,,,,,,,,,132,Y,star,1,0,,,,,,,,,,,,,,,,switch,number,numSwt,d,noRew,,,,,,0.5341,0,47,0,47,0,1,,,,,,,,,,,,,,,,,
298255,2022-11-22_19h18.25.573,vts_reward_expectancy_bt,2022.2.4,Win32,60.74596039,Chrome,1536,864,,,,,0,738,,,,,,,,,,,,,,,,,132,B,star,1,0,,,,,,,,,,,,,,,,repeat,number,numRpt,d,noRew,,,,,,0.542,0,48,0,48,0,1,,,,,,,,,,,,,,,,,
298255,2022-11-22_19h18.25.573,vts_reward_expectancy_bt,2022.2.4,Win32,60.74596039,Chrome,1536,864,,,,,0,738,,,,,,,,,,,,,,,,,181,U,triangle,1,0,,,,,,,,,,,,,,,,switch,letter,lettSwt,k,noRew,,,,,,0.6069,0,49,0,49,0,1,,,,,,,,,,,,,,,,,
298255,2022-11-22_19h18.25.573,vts_reward_expectancy_bt,2022.2.4,Win32,60.74596039,Chrome,1536,864,,,,,0,738,,,,,,,,,,,,,,,,,125,W,hexagon,1,0,,,,,,,,,,,,,,,,switch,number,numSwt,d,noRew,,,,,,0.585,0,50,0,50,0,1,,,,,,,,,,,,,,,,,
298255,2022-11-22_19h18.25.573,vts_reward_expectancy_bt,2022.2.4,Win32,60.74596039,Chrome,1536,864,,,,,0,738,,,,,,,,,,,,,,,,,174,F,triangle,1,0,,,,,,,,,,,,,,,,switch,letter,lettSwt,j,noRew,,,,,,0.6359,0,51,0,51,0,1,,,,,,,,,,,,,,,,,
298255,2022-11-22_19h18.25.573,vts_reward_expectancy_bt,2022.2.4,Win32,60.74596039,Chrome,1536,864,,,,,0,738,,,,,,,,,,,,,,,,,132,F,triangle,1,0,,,,,,,,,,,,,,,,switch,number,numSwt,d,noRew,,,,,,0.5401,0,52,0,52,0,1,,,,,,,,,,,,,,,,,
298255,2022-11-22_19h18.25.573,vts_reward_expectancy_bt,2022.2.4,Win32,60.74596039,Chrome,1536,864,,,,,0,738,,,,,,,,,,,,,,,,,139,S,circle,1,0,,,,,,,,,,,,,,,,switch,letter,lettSwt,k,noRew,,,,,,0.9203,0,53,0,53,0,1,,,,,,,,,,,,,,,,,
298255,2022-11-22_19h18.25.573,vts_reward_expectancy_bt,2022.2.4,Win32,60.74596039,Chrome,1536,864,,,,,0,738,,,,,,,,,,,,,,,,,125,Y,triangle,1,0,,,,,,,,,,,,,,,,switch,number,numSwt,d,noRew,,,,,,0.4993,0,54,0,54,0,1,,,,,,,,,,,,,,,,,
298255,2022-11-22_19h18.25.573,vts_reward_expectancy_bt,2022.2.4,Win32,60.74596039,Chrome,1536,864,,,,,0,738,,,,,,,,,,,,,,,,,174,W,circle,1,0,,,,,,,,,,,,,,,,repeat,number,numRpt,f,noRew,,,,,,0.5858,0,55,0,55,0,1,,,,,,,,,,,,,,,,,
298255,2022-11-22_19h18.25.573,vts_reward_expectancy_bt,2022.2.4,Win32,60.74596039,Chrome,1536,864,,,,,0,738,,,,,,,,,,,,,,,,,132,U,triangle,1,0,,,,,,,,,,,,,,,,switch,letter,lettSwt,k,noRew,,,,,,0.5525,0,56,0,56,0,1,,,,,,,,,,,,,,,,,
298255,2022-11-22_19h18.25.573,vts_reward_expectancy_bt,2022.2.4,Win32,60.74596039,Chrome,1536,864,,,,,0,738,,,,,,,,,,,,,,,,,125,W,star,1,0,,,,,,,,,,,,,,,,switch,number,numSwt,d,noRew,,,,,,0.5521,0,57,0,57,0,1,,,,,,,,,,,,,,,,,
298255,2022-11-22_19h18.25.573,vts_reward_expectancy_bt,2022.2.4,Win32,60.74596039,Chrome,1536,864,,,,,0,738,,,,,,,,,,,,,,,,,181,B,hexagon,1,0,,,,,,,,,,,,,,,,repeat,number,numRpt,f,noRew,,,,,,0.6516,0,58,0,58,0,1,,,,,,,,,,,,,,,,,
298255,2022-11-22_19h18.25.573,vts_reward_expectancy_bt,2022.2.4,Win32,60.74596039,Chrome,1536,864,,,,,0,738,,,,,,,,,,,,,,,,,174,Y,triangle,1,0,,,,,,,,,,,,,,,,switch,letter,lettSwt,k,noRew,,,,,,0.5676,0,59,0,59,0,1,,,,,,,,,,,,,,,,,
298255,2022-11-22_19h18.25.573,vts_reward_expectancy_bt,2022.2.4,Win32,60.74596039,Chrome,1536,864,,,,,0,738,,,,,,,,,,,,,,,,,125,Y,hexagon,1,0,,,,,,,,,,,,,,,,repeat,letter,lettRpt,k,noRew,,,,,,0.5001,0,60,0,60,0,1,,,,,,,,,,,,,,,,,
298255,2022-11-22_19h18.25.573,vts_reward_expectancy_bt,2022.2.4,Win32,60.74596039,Chrome,1536,864,,,,,0,738,,,,,,,,,,,,,,,,,181,U,triangle,1,0,,,,,,,,,,,,,,,,switch,number,numSwt,f,noRew,,,,,,0.4849,0,61,0,61,0,1,,,,,,,,,,,,,,,,,
298255,2022-11-22_19h18.25.573,vts_reward_expectancy_bt,2022.2.4,Win32,60.74596039,Chrome,1536,864,,,,,0,738,,,,,,,,,,,,,,,,,174,B,hexagon,1,0,,,,,,,,,,,,,,,,switch,letter,lettSwt,j,noRew,,,,,,0.5558,0,62,0,62,0,1,,,,,,,,,,,,,,,,,
298255,2022-11-22_19h18.25.573,vts_reward_expectancy_bt,2022.2.4,Win32,60.74596039,Chrome,1536,864,,,,,0,738,,,,,,,,,,,,,,,,,160,S,triangle,1,0,,,,,,,,,,,,,,,,switch,number,numSwt,f,noRew,,,,,,0.5852,0,63,0,63,0,1,,,,,,,,,,,,,,,,,
298255,2022-11-22_19h18.25.573,vts_reward_expectancy_bt,2022.2.4,Win32,60.74596039,Chrome,1536,864,,,,,,,,,,,,,,,,,,,,,,,,,,,,,,,,,,,,,,,,,,,,,,,,,,,,,,,,,,,,,,,,,,,,,,,,,,,,
298255,2022-11-22_19h18.25.573,vts_reward_expectancy_bt,2022.2.4,Win32,60.74596039,Chrome,1536,864,,,,,10,748,,,,,,,,,,,,,,,,,125,D,hexagon,1,0,,,,,,,,,,,,,,,,repeat,number,numRpt,d,Lo,,,,,,0.9087,0,,,,,,space,14.9197,high,0,0,0,0,1,,,,,,,,,
298255,2022-11-22_19h18.25.573,vts_reward_expectancy_bt,2022.2.4,Win32,60.74596039,Chrome,1536,864,,,,,0,748,,,,,,,,,,,,,,,,,139,H,star,1,0,,,,,,,,,,,,,,,,repeat,number,numRpt,d,Hi,,,,,,1.1256,0,,,,,,,,high,1,0,1,0,1,,,,,,,,,
298255,2022-11-22_19h18.25.573,vts_reward_expectancy_bt,2022.2.4,Win32,60.74596039,Chrome,1536,864,,,,,10,758,,,,,,,,,,,,,,,,,174,W,triangle,1,0,,,,,,,,,,,,,,,,repeat,number,numRpt,f,Hi,,,,,,0.5338,0,,,,,,,,high,2,0,2,0,1,,,,,,,,,
298255,2022-11-22_19h18.25.573,vts_reward_expectancy_bt,2022.2.4,Win32,60.74596039,Chrome,1536,864,,,,,1,759,,,,,,,,,,,,,,,,,132,S,circle,1,0,,,,,,,,,,,,,,,,switch,letter,lettSwt,k,Lo,,,,,,0.8184,0,,,,,,,,high,3,0,3,0,1,,,,,,,,,
298255,2022-11-22_19h18.25.573,vts_reward_expectancy_bt,2022.2.4,Win32,60.74596039,Chrome,1536,864,,,,,1,760,,,,,,,,,,,,,,,,,167,F,hexagon,1,0,,,,,,,,,,,,,,,,switch,number,numSwt,f,Lo,,,,,,0.4672,0,,,,,,,,high,4,0,4,0,1,,,,,,,,,
298255,2022-11-22_19h18.25.573,vts_reward_expectancy_bt,2022.2.4,Win32,60.74596039,Chrome,1536,864,,,,,10,770,,,,,,,,,,,,,,,,,181,Y,star,1,0,,,,,,,,,,,,,,,,repeat,number,numRpt,f,Hi,,,,,,0.4557,0,,,,,,,,high,5,0,5,0,1,,,,,,,,,
298255,2022-11-22_19h18.25.573,vts_reward_expectancy_bt,2022.2.4,Win32,60.74596039,Chrome,1536,864,,,,,0,770,,,,,,,,,,,,,,,,,160,B,triangle,1,0,,,,,,,,,,,,,,,,switch,letter,lettSwt,j,Hi,,,,,,0.617,0,,,,,,,,high,6,0,6,0,1,,,,,,,,,
298255,2022-11-22_19h18.25.573,vts_reward_expectancy_bt,2022.2.4,Win32,60.74596039,Chrome,1536,864,,,,,1,771,,,,,,,,,,,,,,,,,146,U,circle,1,0,,,,,,,,,,,,,,,,switch,number,numSwt,d,Lo,,,,,,0.7401,0,,,,,,,,high,7,0,7,0,1,,,,,,,,,
298255,2022-11-22_19h18.25.573,vts_reward_expectancy_bt,2022.2.4,Win32,60.74596039,Chrome,1536,864,,,,,0,771,,,,,,,,,,,,,,,,,125,D,star,0,0,,,,,,,,,,,,,,,,switch,letter,NA,k,Lo,,,,,,0.3852,0,,,,,,,,high,8,0,8,0,1,,,,,,,,,
298255,2022-11-22_19h18.25.573,vts_reward_expectancy_bt,2022.2.4,Win32,60.74596039,Chrome,1536,864,,,,,0,771,,,,,,,,,,,,,,,,,139,H,triangle,1,1,,,,,,,,,,,,,,,,switch,number,numSwt,d,Hi,,,,,,0.6512,0,,,,,,,,high,9,0,9,0,1,,,,,,,,,
298255,2022-11-22_19h18.25.573,vts_reward_expectancy_bt,2022.2.4,Win32,60.74596039,Chrome,1536,864,,,,,1,772,,,,,,,,,,,,,,,,,174,W,circle,1,0,,,,,,,,,,,,,,,,switch,letter,lettSwt,k,Lo,,,,,,0.4426,0,,,,,,,,high,10,0,10,0,1,,,,,,,,,
298255,2022-11-22_19h18.25.573,vts_reward_expectancy_bt,2022.2.4,Win32,60.74596039,Chrome,1536,864,,,,,1,773,,,,,,,,,,,,,,,,,132,S,hexagon,1,0,,,,,,,,,,,,,,,,switch,number,numSwt,d,Lo,,,,,,0.4844,0,,,,,,,,high,11,0,11,0,1,,,,,,,,,
298255,2022-11-22_19h18.25.573,vts_reward_expectancy_bt,2022.2.4,Win32,60.74596039,Chrome,1536,864,,,,,1,774,,,,,,,,,,,,,,,,,167,F,hexagon,1,0,,,,,,,,,,,,,,,,repeat,number,numRpt,f,Lo,,,,,,0.3846,0,,,,,,,,high,12,0,12,0,1,,,,,,,,,
298255,2022-11-22_19h18.25.573,vts_reward_expectancy_bt,2022.2.4,Win32,60.74596039,Chrome,1536,864,,,,,1,775,,,,,,,,,,,,,,,,,181,Y,star,1,0,,,,,,,,,,,,,,,,switch,letter,lettSwt,k,Hi,,,,,,0.4374,0,,,,,,,,high,13,0,13,0,1,,,,,,,,,
298255,2022-11-22_19h18.25.573,vts_reward_expectancy_bt,2022.2.4,Win32,60.74596039,Chrome,1536,864,,,,,10,785,,,,,,,,,,,,,,,,,160,B,triangle,1,0,,,,,,,,,,,,,,,,repeat,letter,lettRpt,j,Hi,,,,,,0.3677,0,,,,,,,,high,14,0,14,0,1,,,,,,,,,
298255,2022-11-22_19h18.25.573,vts_reward_expectancy_bt,2022.2.4,Win32,60.74596039,Chrome,1536,864,,,,,10,795,,,,,,,,,,,,,,,,,146,U,circle,1,0,,,,,,,,,,,,,,,,switch,number,numSwt,d,Lo,,,,,,0.5161,0,,,,,,,,high,15,0,15,0,1,,,,,,,,,
298255,2022-11-22_19h18.25.573,vts_reward_expectancy_bt,2022.2.4,Win32,60.74596039,Chrome,1536,864,,,,,10,805,,,,,,,,,,,,,,,,,132,F,triangle,1,0,,,,,,,,,,,,,,,,repeat,number,numRpt,d,Hi,,,,,,0.5092,0,,,,,,,,high,16,0,16,0,1,,,,,,,,,
298255,2022-11-22_19h18.25.573,vts_reward_expectancy_bt,2022.2.4,Win32,60.74596039,Chrome,1536,864,,,,,1,806,,,,,,,,,,,,,,,,,160,W,circle,1,0,,,,,,,,,,,,,,,,switch,letter,lettSwt,k,Lo,,,,,,0.5516,0,,,,,,,,high,17,0,17,0,1,,,,,,,,,
298255,2022-11-22_19h18.25.573,vts_reward_expectancy_bt,2022.2.4,Win32,60.74596039,Chrome,1536,864,,,,,1,807,,,,,,,,,,,,,,,,,139,S,hexagon,1,0,,,,,,,,,,,,,,,,switch,number,numSwt,d,Lo,,,,,,0.5098,0,,,,,,,,high,18,0,18,0,1,,,,,,,,,
298255,2022-11-22_19h18.25.573,vts_reward_expectancy_bt,2022.2.4,Win32,60.74596039,Chrome,1536,864,,,,,0,807,,,,,,,,,,,,,,,,,167,U,star,1,0,,,,,,,,,,,,,,,,switch,letter,lettSwt,k,Hi,,,,,,0.6674,0,,,,,,,,high,19,0,19,0,1,,,,,,,,,
298255,2022-11-22_19h18.25.573,vts_reward_expectancy_bt,2022.2.4,Win32,60.74596039,Chrome,1536,864,,,,,1,808,,,,,,,,,,,,,,,,,146,Y,star,1,0,,,,,,,,,,,,,,,,repeat,letter,lettRpt,k,Hi,,,,,,0.518,0,,,,,,,,high,20,0,20,0,1,,,,,,,,,
298255,2022-11-22_19h18.25.573,vts_reward_expectancy_bt,2022.2.4,Win32,60.74596039,Chrome,1536,864,,,,,10,818,,,,,,,,,,,,,,,,,125,H,triangle,1,0,,,,,,,,,,,,,,,,switch,number,numSwt,d,Hi,,,,,,0.4171,0,,,,,,,,high,21,0,21,0,1,,,,,,,,,
298255,2022-11-22_19h18.25.573,vts_reward_expectancy_bt,2022.2.4,Win32,60.74596039,Chrome,1536,864,,,,,1,819,,,,,,,,,,,,,,,,,174,D,circle,1,0,,,,,,,,,,,,,,,,repeat,number,numRpt,f,Lo,,,,,,0.4673,0,,,,,,,,high,22,0,22,0,1,,,,,,,,,
298255,2022-11-22_19h18.25.573,vts_reward_expectancy_bt,2022.2.4,Win32,60.74596039,Chrome,1536,864,,,,,1,820,,,,,,,,,,,,,,,,,181,B,hexagon,1,0,,,,,,,,,,,,,,,,switch,letter,lettSwt,j,Lo,,,,,,0.4848,0,,,,,,,,high,23,0,23,0,1,,,,,,,,,
298255,2022-11-22_19h18.25.573,vts_reward_expectancy_bt,2022.2.4,Win32,60.74596039,Chrome,1536,864,,,,,1,821,,,,,,,,,,,,,,,,,167,S,hexagon,1,0,,,,,,,,,,,,,,,,repeat,letter,lettRpt,k,Lo,,,,,,0.4668,0,,,,,,,,high,24,0,24,0,1,,,,,,,,,
298255,2022-11-22_19h18.25.573,vts_reward_expectancy_bt,2022.2.4,Win32,60.74596039,Chrome,1536,864,,,,,0,821,,,,,,,,,,,,,,,,,139,D,star,0,0,,,,,,,,,,,,,,,,switch,number,NA,f,Lo,,,,,,0.3407,0,,,,,,,,high,25,0,25,0,1,,,,,,,,,
298255,2022-11-22_19h18.25.573,vts_reward_expectancy_bt,2022.2.4,Win32,60.74596039,Chrome,1536,864,,,,,1,822,,,,,,,,,,,,,,,,,174,U,circle,1,1,,,,,,,,,,,,,,,,repeat,number,numRpt,f,Lo,,,,,,0.4887,0,,,,,,,,high,26,0,26,0,1,,,,,,,,,
298255,2022-11-22_19h18.25.573,vts_reward_expectancy_bt,2022.2.4,Win32,60.74596039,Chrome,1536,864,,,,,10,832,,,,,,,,,,,,,,,,,125,W,triangle,1,0,,,,,,,,,,,,,,,,switch,letter,lettSwt,k,Hi,,,,,,0.4178,0,,,,,,,,high,27,0,27,0,1,,,,,,,,,
298255,2022-11-22_19h18.25.573,vts_reward_expectancy_bt,2022.2.4,Win32,60.74596039,Chrome,1536,864,,,,,1,833,,,,,,,,,,,,,,,,,132,Y,circle,1,0,,,,,,,,,,,,,,,,repeat,letter,lettRpt,k,Lo,,,,,,0.5698,0,,,,,,,,high,28,0,28,0,1,,,,,,,,,
298255,2022-11-22_19h18.25.573,vts_reward_expectancy_bt,2022.2.4,Win32,60.74596039,Chrome,1536,864,,,,,10,843,,,,,,,,,,,,,,,,,146,H,triangle,1,0,,,,,,,,,,,,,,,,switch,number,numSwt,d,Hi,,,,,,0.5351,0,,,,,,,,high,29,0,29,0,1,,,,,,,,,
298255,2022-11-22_19h18.25.573,vts_reward_expectancy_bt,2022.2.4,Win32,60.74596039,Chrome,1536,864,,,,,1,844,,,,,,,,,,,,,,,,,160,B,hexagon,1,0,,,,,,,,,,,,,,,,switch,letter,lettSwt,j,Lo,,,,,,0.5011,0,,,,,,,,high,30,0,30,0,1,,,,,,,,,
298255,2022-11-22_19h18.25.573,vts_reward_expectancy_bt,2022.2.4,Win32,60.74596039,Chrome,1536,864,,,,,0,844,,,,,,,,,,,,,,,,,181,F,star,1,0,,,,,,,,,,,,,,,,switch,number,numSwt,f,Hi,,,,,,0.5524,0,,,,,,,,high,31,0,31,0,1,,,,,,,,,
298255,2022-11-22_19h18.25.573,vts_reward_expectancy_bt,2022.2.4,Win32,60.74596039,Chrome,1536,864,,,,,1,845,,,,,,,,,,,,,,,,,139,Y,circle,1,0,,,,,,,,,,,,,,,,repeat,number,numRpt,d,Lo,,,,,,0.689,1,,,,,,space,2.1319,high,0,0,0,0,1,,,,,,,,,
298255,2022-11-22_19h18.25.573,vts_reward_expectancy_bt,2022.2.4,Win32,60.74596039,Chrome,1536,864,,,,,1,846,,,,,,,,,,,,,,,,,125,U,hexagon,1,0,,,,,,,,,,,,,,,,repeat,number,numRpt,d,Lo,,,,,,0.5012,1,,,,,,,,high,1,0,1,0,1,,,,,,,,,
298255,2022-11-22_19h18.25.573,vts_reward_expectancy_bt,2022.2.4,Win32,60.74596039,Chrome,1536,864,,,,,10,856,,,,,,,,,,,,,,,,,174,B,star,1,0,,,,,,,,,,,,,,,,switch,letter,lettSwt,j,Hi,,,,,,0.4222,1,,,,,,,,high,2,0,2,0,1,,,,,,,,,
298255,2022-11-22_19h18.25.573,vts_reward_expectancy_bt,2022.2.4,Win32,60.74596039,Chrome,1536,864,,,,,0,856,,,,,,,,,,,,,,,,,160,W,triangle,1,0,,,,,,,,,,,,,,,,switch,number,numSwt,f,Hi,,,,,,0.7047,1,,,,,,,,high,3,0,3,0,1,,,,,,,,,
298255,2022-11-22_19h18.25.573,vts_reward_expectancy_bt,2022.2.4,Win32,60.74596039,Chrome,1536,864,,,,,1,857,,,,,,,,,,,,,,,,,132,S,circle,1,0,,,,,,,,,,,,,,,,switch,letter,lettSwt,k,Lo,,,,,,0.8017,1,,,,,,,,high,4,0,4,0,1,,,,,,,,,
298255,2022-11-22_19h18.25.573,vts_reward_expectancy_bt,2022.2.4,Win32,60.74596039,Chrome,1536,864,,,,,1,858,,,,,,,,,,,,,,,,,167,H,hexagon,1,0,,,,,,,,,,,,,,,,repeat,letter,lettRpt,j,Lo,,,,,,0.6564,1,,,,,,,,high,5,0,5,0,1,,,,,,,,,
298255,2022-11-22_19h18.25.573,vts_reward_expectancy_bt,2022.2.4,Win32,60.74596039,Chrome,1536,864,,,,,1,859,,,,,,,,,,,,,,,,,181,D,star,1,0,,,,,,,,,,,,,,,,switch,number,numSwt,f,Hi,,,,,,0.4182,1,,,,,,,,high,6,0,6,0,1,,,,,,,,,
298255,2022-11-22_19h18.25.573,vts_reward_expectancy_bt,2022.2.4,Win32,60.74596039,Chrome,1536,864,,,,,0,859,,,,,,,,,,,,,,,,,146,F,triangle,1,0,,,,,,,,,,,,,,,,switch,letter,lettSwt,j,Hi,,,,,,0.5699,1,,,,,,,,high,7,0,7,0,1,,,,,,,,,
298255,2022-11-22_19h18.25.573,vts_reward_expectancy_bt,2022.2.4,Win32,60.74596039,Chrome,1536,864,,,,,1,860,,,,,,,,,,,,,,,,,139,Y,circle,1,0,,,,,,,,,,,,,,,,repeat,letter,lettRpt,k,Lo,,,,,,0.3854,1,,,,,,,,high,8,0,8,0,1,,,,,,,,,
298255,2022-11-22_19h18.25.573,vts_reward_expectancy_bt,2022.2.4,Win32,60.74596039,Chrome,1536,864,,,,,0,860,,,,,,,,,,,,,,,,,125,U,triangle,1,0,,,,,,,,,,,,,,,,switch,number,numSwt,d,Hi,,,,,,0.5252,1,,,,,,,,high,9,0,9,0,1,,,,,,,,,
298255,2022-11-22_19h18.25.573,vts_reward_expectancy_bt,2022.2.4,Win32,60.74596039,Chrome,1536,864,,,,,0,860,,,,,,,,,,,,,,,,,174,B,star,0,0,,,,,,,,,,,,,,,,repeat,number,NA,d,Hi,,,,,,0.6029,1,,,,,,,,high,10,0,10,0,1,,,,,,,,,
298255,2022-11-22_19h18.25.573,vts_reward_expectancy_bt,2022.2.4,Win32,60.74596039,Chrome,1536,864,,,,,1,861,,,,,,,,,,,,,,,,,160,W,hexagon,1,1,,,,,,,,,,,,,,,,switch,letter,lettSwt,k,Lo,,,,,,0.7069,1,,,,,,,,high,11,0,11,0,1,,,,,,,,,
298255,2022-11-22_19h18.25.573,vts_reward_expectancy_bt,2022.2.4,Win32,60.74596039,Chrome,1536,864,,,,,10,871,,,,,,,,,,,,,,,,,132,S,triangle,1,0,,,,,,,,,,,,,,,,switch,number,numSwt,d,Hi,,,,,,0.4521,1,,,,,,,,high,12,0,12,0,1,,,,,,,,,
298255,2022-11-22_19h18.25.573,vts_reward_expectancy_bt,2022.2.4,Win32,60.74596039,Chrome,1536,864,,,,,0,871,,,,,,,,,,,,,,,,,167,H,star,1,0,,,,,,,,,,,,,,,,switch,letter,lettSwt,j,Hi,,,,,,0.5505,1,,,,,,,,high,13,0,13,0,1,,,,,,,,,
298255,2022-11-22_19h18.25.573,vts_reward_expectancy_bt,2022.2.4,Win32,60.74596039,Chrome,1536,864,,,,,10,881,,,,,,,,,,,,,,,,,181,D,circle,1,0,,,,,,,,,,,,,,,,switch,number,numSwt,f,Lo,,,,,,0.4343,1,,,,,,,,high,14,0,14,0,1,,,,,,,,,
298255,2022-11-22_19h18.25.573,vts_reward_expectancy_bt,2022.2.4,Win32,60.74596039,Chrome,1536,864,,,,,0,881,,,,,,,,,,,,,,,,,146,F,hexagon,0,0,,,,,,,,,,,,,,,,repeat,number,NA,f,Lo,,,,,,0.6172,1,,,,,,,,high,15,0,15,0,1,,,,,,,,,
298255,2022-11-22_19h18.25.573,vts_reward_expectancy_bt,2022.2.4,Win32,60.74596039,Chrome,1536,864,,,,,1,882,,,,,,,,,,,,,,,,,181,B,circle,1,1,,,,,,,,,,,,,,,,repeat,number,numRpt,f,Lo,,,,,,0.7753,1,,,,,,,,high,16,0,16,0,1,,,,,,,,,
298255,2022-11-22_19h18.25.573,vts_reward_expectancy_bt,2022.2.4,Win32,60.74596039,Chrome,1536,864,,,,,1,883,,,,,,,,,,,,,,,,,160,W,hexagon,1,0,,,,,,,,,,,,,,,,repeat,number,numRpt,f,Lo,,,,,,0.6173,1,,,,,,,,high,17,0,17,0,1,,,,,,,,,
298255,2022-11-22_19h18.25.573,vts_reward_expectancy_bt,2022.2.4,Win32,60.74596039,Chrome,1536,864,,,,,0,883,,,,,,,,,,,,,,,,,125,Y,triangle,1,0,,,,,,,,,,,,,,,,repeat,number,numRpt,d,Hi,,,,,,0.6194,1,,,,,,,,high,18,0,18,0,1,,,,,,,,,
298255,2022-11-22_19h18.25.573,vts_reward_expectancy_bt,2022.2.4,Win32,60.74596039,Chrome,1536,864,,,,,0,883,,,,,,,,,,,,,,,,,146,D,star,1,0,,,,,,,,,,,,,,,,repeat,number,numRpt,d,Hi,,,,,,0.4849,1,,,,,,,,high,19,0,19,0,1,,,,,,,,,
298255,2022-11-22_19h18.25.573,vts_reward_expectancy_bt,2022.2.4,Win32,60.74596039,Chrome,1536,864,,,,,1,884,,,,,,,,,,,,,,,,,139,F,circle,1,0,,,,,,,,,,,,,,,,switch,letter,lettSwt,j,Lo,,,,,,0.5497,1,,,,,,,,high,20,0,20,0,1,,,,,,,,,
298255,2022-11-22_19h18.25.573,vts_reward_expectancy_bt,2022.2.4,Win32,60.74596039,Chrome,1536,864,,,,,10,894,,,,,,,,,,,,,,,,,132,U,hexagon,1,0,,,,,,,,,,,,,,,,repeat,letter,lettRpt,k,Lo,,,,,,0.5432,1,,,,,,,,high,21,0,21,0,1,,,,,,,,,
298255,2022-11-22_19h18.25.573,vts_reward_expectancy_bt,2022.2.4,Win32,60.74596039,Chrome,1536,864,,,,,10,904,,,,,,,,,,,,,,,,,167,H,star,1,0,,,,,,,,,,,,,,,,switch,number,numSwt,f,Hi,,,,,,0.4354,1,,,,,,,,high,22,0,22,0,1,,,,,,,,,
298255,2022-11-22_19h18.25.573,vts_reward_expectancy_bt,2022.2.4,Win32,60.74596039,Chrome,1536,864,,,,,0,904,,,,,,,,,,,,,,,,,174,S,triangle,1,0,,,,,,,,,,,,,,,,repeat,number,numRpt,f,Hi,,,,,,0.5182,1,,,,,,,,high,23,0,23,0,1,,,,,,,,,
298255,2022-11-22_19h18.25.573,vts_reward_expectancy_bt,2022.2.4,Win32,60.74596039,Chrome,1536,864,,,,,0,904,,,,,,,,,,,,,,,,,181,F,star,1,0,,,,,,,,,,,,,,,,switch,letter,lettSwt,j,Hi,,,,,,0.486,1,,,,,,,,high,24,0,24,0,1,,,,,,,,,
298255,2022-11-22_19h18.25.573,vts_reward_expectancy_bt,2022.2.4,Win32,60.74596039,Chrome,1536,864,,,,,0,904,,,,,,,,,,,,,,,,,146,H,hexagon,0,0,,,,,,,,,,,,,,,,repeat,letter,NA,k,Hi,,,,,,0.3678,1,,,,,,,,high,25,0,25,0,1,,,,,,,,,
298255,2022-11-22_19h18.25.573,vts_reward_expectancy_bt,2022.2.4,Win32,60.74596039,Chrome,1536,864,,,,,10,914,,,,,,,,,,,,,,,,,174,S,circle,1,1,,,,,,,,,,,,,,,,repeat,letter,lettRpt,k,Lo,,,,,,0.5505,1,,,,,,,,high,26,0,26,0,1,,,,,,,,,
298255,2022-11-22_19h18.25.573,vts_reward_expectancy_bt,2022.2.4,Win32,60.74596039,Chrome,1536,864,,,,,0,914,,,,,,,,,,,,,,,,,160,D,triangle,0,0,,,,,,,,,,,,,,,,switch,number,NA,d,Lo,,,,,,0.3583,1,,,,,,,,high,27,0,27,0,1,,,,,,,,,
298255,2022-11-22_19h18.25.573,vts_reward_expectancy_bt,2022.2.4,Win32,60.74596039,Chrome,1536,864,,,,,10,924,,,,,,,,,,,,,,,,,167,W,star,1,1,,,,,,,,,,,,,,,,repeat,number,numRpt,f,Hi,,,,,,0.468,1,,,,,,,,high,28,0,28,0,1,,,,,,,,,
298255,2022-11-22_19h18.25.573,vts_reward_expectancy_bt,2022.2.4,Win32,60.74596039,Chrome,1536,864,,,,,10,934,,,,,,,,,,,,,,,,,139,B,hexagon,1,0,,,,,,,,,,,,,,,,switch,letter,lettSwt,j,Lo,,,,,,0.534,1,,,,,,,,high,29,0,29,0,1,,,,,,,,,
298255,2022-11-22_19h18.25.573,vts_reward_expectancy_bt,2022.2.4,Win32,60.74596039,Chrome,1536,864,,,,,1,935,,,,,,,,,,,,,,,,,132,Y,circle,1,0,,,,,,,,,,,,,,,,repeat,letter,lettRpt,k,Lo,,,,,,0.467,1,,,,,,,,high,30,0,30,0,1,,,,,,,,,
298255,2022-11-22_19h18.25.573,vts_reward_expectancy_bt,2022.2.4,Win32,60.74596039,Chrome,1536,864,,,,,10,945,,,,,,,,,,,,,,,,,125,U,triangle,1,0,,,,,,,,,,,,,,,,switch,number,numSwt,d,Hi,,,,,,0.4501,1,,,,,,,,high,31,0,31,0,1,,,,,,,,,
298255,2022-11-22_19h18.25.573,vts_reward_expectancy_bt,2022.2.4,Win32,60.74596039,Chrome,1536,864,,,,,1,946,,,,,,,,,,,,,,,,,132,D,hexagon,1,0,,,,,,,,,,,,,,,,repeat,number,numRpt,d,Lo,,,,,,0.4536,2,,,,,,space,8.7638,high,0,0,0,0,1,,,,,,,,,
298255,2022-11-22_19h18.25.573,vts_reward_expectancy_bt,2022.2.4,Win32,60.74596039,Chrome,1536,864,,,,,1,947,,,,,,,,,,,,,,,,,174,H,star,1,0,,,,,,,,,,,,,,,,repeat,number,numRpt,f,Hi,,,,,,0.4926,2,,,,,,,,high,1,0,1,0,1,,,,,,,,,
298255,2022-11-22_19h18.25.573,vts_reward_expectancy_bt,2022.2.4,Win32,60.74596039,Chrome,1536,864,,,,,10,957,,,,,,,,,,,,,,,,,181,Y,triangle,1,0,,,,,,,,,,,,,,,,switch,letter,lettSwt,k,Hi,,,,,,0.3506,2,,,,,,,,high,2,0,2,0,1,,,,,,,,,
298255,2022-11-22_19h18.25.573,vts_reward_expectancy_bt,2022.2.4,Win32,60.74596039,Chrome,1536,864,,,,,1,958,,,,,,,,,,,,,,,,,160,U,circle,1,0,,,,,,,,,,,,,,,,repeat,letter,lettRpt,k,Lo,,,,,,0.6002,2,,,,,,,,high,3,0,3,0,1,,,,,,,,,
298255,2022-11-22_19h18.25.573,vts_reward_expectancy_bt,2022.2.4,Win32,60.74596039,Chrome,1536,864,,,,,0,958,,,,,,,,,,,,,,,,,167,B,hexagon,0,0,,,,,,,,,,,,,,,,switch,number,NA,d,Lo,,,,,,0.4241,2,,,,,,,,high,4,0,4,0,1,,,,,,,,,
298255,2022-11-22_19h18.25.573,vts_reward_expectancy_bt,2022.2.4,Win32,60.74596039,Chrome,1536,864,,,,,0,958,,,,,,,,,,,,,,,,,125,S,star,1,1,,,,,,,,,,,,,,,,repeat,number,numRpt,d,Hi,,,,,,0.7512,2,,,,,,,,high,5,0,5,0,1,,,,,,,,,
298255,2022-11-22_19h18.25.573,vts_reward_expectancy_bt,2022.2.4,Win32,60.74596039,Chrome,1536,864,,,,,0,958,,,,,,,,,,,,,,,,,146,F,triangle,1,0,,,,,,,,,,,,,,,,switch,letter,lettSwt,j,Hi,,,,,,0.5871,2,,,,,,,,high,6,0,6,0,1,,,,,,,,,
298255,2022-11-22_19h18.25.573,vts_reward_expectancy_bt,2022.2.4,Win32,60.74596039,Chrome,1536,864,,,,,1,959,,,,,,,,,,,,,,,,,139,W,circle,1,0,,,,,,,,,,,,,,,,repeat,letter,lettRpt,k,Lo,,,,,,0.4598,2,,,,,,,,high,7,0,7,0,1,,,,,,,,,
298255,2022-11-22_19h18.25.573,vts_reward_expectancy_bt,2022.2.4,Win32,60.74596039,Chrome,1536,864,,,,,0,959,,,,,,,,,,,,,,,,,132,D,triangle,1,0,,,,,,,,,,,,,,,,repeat,letter,lettRpt,j,Hi,,,,,,0.539,2,,,,,,,,high,8,0,8,0,1,,,,,,,,,
298255,2022-11-22_19h18.25.573,vts_reward_expectancy_bt,2022.2.4,Win32,60.74596039,Chrome,1536,864,,,,,10,969,,,,,,,,,,,,,,,,,174,H,circle,1,0,,,,,,,,,,,,,,,,repeat,letter,lettRpt,j,Lo,,,,,,0.4679,2,,,,,,,,high,9,0,9,0,1,,,,,,,,,
298255,2022-11-22_19h18.25.573,vts_reward_expectancy_bt,2022.2.4,Win32,60.74596039,Chrome,1536,864,,,,,0,969,,,,,,,,,,,,,,,,,181,Y,star,1,0,,,,,,,,,,,,,,,,switch,number,numSwt,f,Hi,,,,,,0.4389,2,,,,,,,,high,10,0,10,0,1,,,,,,,,,
298255,2022-11-22_19h18.25.573,vts_reward_expectancy_bt,2022.2.4,Win32,60.74596039,Chrome,1536,864,,,,,10,979,,,,,,,,,,,,,,,,,160,U,hexagon,1,0,,,,,,,,,,,,,,,,repeat,number,numRpt,f,Lo,,,,,,0.4838,2,,,,,,,,high,11,0,11,0,1,,,,,,,,,
298255,2022-11-22_19h18.25.573,vts_reward_expectancy_bt,2022.2.4,Win32,60.74596039,Chrome,1536,864,,,,,10,989,,,,,,,,,,,,,,,,,167,B,star,1,0,,,,,,,,,,,,,,,,switch,letter,lettSwt,j,Hi,,,,,,0.3167,2,,,,,,,,high,12,0,12,0,1,,,,,,,,,
298255,2022-11-22_19h18.25.573,vts_reward_expectancy_bt,2022.2.4,Win32,60.74596039,Chrome,1536,864,,,,,0,989,,,,,,,,,,,,,,,,,125,S,triangle,0,0,,,,,,,,,,,,,,,,repeat,letter,NA,j,Hi,,,,,,0.4344,2,,,,,,,,high,13,0,13,0,1,,,,,,,,,
298255,2022-11-22_19h18.25.573,vts_reward_expectancy_bt,2022.2.4,Win32,60.74596039,Chrome,1536,864,,,,,10,999,,,,,,,,,,,,,,,,,146,F,hexagon,1,1,,,,,,,,,,,,,,,,repeat,letter,lettRpt,j,Lo,,,,,,0.5419,2,,,,,,,,high,14,0,14,0,1,,,,,,,,,
298255,2022-11-22_19h18.25.573,vts_reward_expectancy_bt,2022.2.4,Win32,60.74596039,Chrome,1536,864,,,,,1,1000,,,,,,,,,,,,,,,,,139,W,circle,1,0,,,,,,,,,,,,,,,,switch,number,numSwt,d,Lo,,,,,,0.4266,2,,,,,,,,high,15,0,15,0,1,,,,,,,,,
298255,2022-11-22_19h18.25.573,vts_reward_expectancy_bt,2022.2.4,Win32,60.74596039,Chrome,1536,864,,,,,1,1001,,,,,,,,,,,,,,,,,160,S,star,1,0,,,,,,,,,,,,,,,,repeat,number,numRpt,f,Hi,,,,,,0.4165,2,,,,,,,,high,16,0,16,0,1,,,,,,,,,
298255,2022-11-22_19h18.25.573,vts_reward_expectancy_bt,2022.2.4,Win32,60.74596039,Chrome,1536,864,,,,,10,1011,,,,,,,,,,,,,,,,,146,B,triangle,1,0,,,,,,,,,,,,,,,,switch,letter,lettSwt,j,Hi,,,,,,0.4677,2,,,,,,,,high,17,0,17,0,1,,,,,,,,,
298255,2022-11-22_19h18.25.573,vts_reward_expectancy_bt,2022.2.4,Win32,60.74596039,Chrome,1536,864,,,,,1,1012,,,,,,,,,,,,,,,,,125,D,hexagon,1,0,,,,,,,,,,,,,,,,repeat,letter,lettRpt,j,Lo,,,,,,0.5505,2,,,,,,,,high,18,0,18,0,1,,,,,,,,,
298255,2022-11-22_19h18.25.573,vts_reward_expectancy_bt,2022.2.4,Win32,60.74596039,Chrome,1536,864,,,,,0,1012,,,,,,,,,,,,,,,,,167,Y,circle,0,0,,,,,,,,,,,,,,,,switch,number,NA,d,Lo,,,,,,0.5012,2,,,,,,,,high,19,0,19,0,1,,,,,,,,,
298255,2022-11-22_19h18.25.573,vts_reward_expectancy_bt,2022.2.4,Win32,60.74596039,Chrome,1536,864,,,,,0,1012,,,,,,,,,,,,,,,,,139,W,hexagon,0,1,,,,,,,,,,,,,,,,repeat,number,NA,f,Lo,,,,,,0.4356,2,,,,,,,,high,20,0,20,0,1,,,,,,,,,
298255,2022-11-22_19h18.25.573,vts_reward_expectancy_bt,2022.2.4,Win32,60.74596039,Chrome,1536,864,,,,,0,1012,,,,,,,,,,,,,,,,,132,U,star,1,1,,,,,,,,,,,,,,,,switch,letter,lettSwt,k,Hi,,,,,,0.6354,2,,,,,,,,high,21,0,21,0,1,,,,,,,,,
298255,2022-11-22_19h18.25.573,vts_reward_expectancy_bt,2022.2.4,Win32,60.74596039,Chrome,1536,864,,,,,0,1012,,,,,,,,,,,,,,,,,181,H,triangle,1,0,,,,,,,,,,,,,,,,repeat,letter,lettRpt,j,Hi,,,,,,0.518,2,,,,,,,,high,22,0,22,0,1,,,,,,,,,
298255,2022-11-22_19h18.25.573,vts_reward_expectancy_bt,2022.2.4,Win32,60.74596039,Chrome,1536,864,,,,,1,1013,,,,,,,,,,,,,,,,,174,F,circle,1,0,,,,,,,,,,,,,,,,repeat,letter,lettRpt,j,Lo,,,,,,0.4351,2,,,,,,,,high,23,0,23,0,1,,,,,,,,,
298255,2022-11-22_19h18.25.573,vts_reward_expectancy_bt,2022.2.4,Win32,60.74596039,Chrome,1536,864,,,,,0,1013,,,,,,,,,,,,,,,,,181,Y,star,1,0,,,,,,,,,,,,,,,,repeat,letter,lettRpt,k,Hi,,,,,,0.6339,2,,,,,,,,high,24,0,24,0,1,,,,,,,,,
298255,2022-11-22_19h18.25.573,vts_reward_expectancy_bt,2022.2.4,Win32,60.74596039,Chrome,1536,864,,,,,1,1014,,,,,,,,,,,,,,,,,146,D,circle,1,0,,,,,,,,,,,,,,,,repeat,letter,lettRpt,j,Lo,,,,,,0.4408,2,,,,,,,,high,25,0,25,0,1,,,,,,,,,
298255,2022-11-22_19h18.25.573,vts_reward_expectancy_bt,2022.2.4,Win32,60.74596039,Chrome,1536,864,,,,,1,1015,,,,,,,,,,,,,,,,,139,F,hexagon,1,0,,,,,,,,,,,,,,,,repeat,letter,lettRpt,j,Lo,,,,,,0.4729,2,,,,,,,,high,26,0,26,0,1,,,,,,,,,
298255,2022-11-22_19h18.25.573,vts_reward_expectancy_bt,2022.2.4,Win32,60.74596039,Chrome,1536,864,,,,,10,1025,,,,,,,,,,,,,,,,,167,B,triangle,1,0,,,,,,,,,,,,,,,,switch,number,numSwt,f,Hi,,,,,,0.4093,2,,,,,,,,high,27,0,27,0,1,,,,,,,,,
298255,2022-11-22_19h18.25.573,vts_reward_expectancy_bt,2022.2.4,Win32,60.74596039,Chrome,1536,864,,,,,10,1035,,,,,,,,,,,,,,,,,132,W,star,1,0,,,,,,,,,,,,,,,,switch,letter,lettSwt,k,Hi,,,,,,0.3847,2,,,,,,,,high,28,0,28,0,1,,,,,,,,,
298255,2022-11-22_19h18.25.573,vts_reward_expectancy_bt,2022.2.4,Win32,60.74596039,Chrome,1536,864,,,,,0,1035,,,,,,,,,,,,,,,,,174,H,hexagon,0,0,,,,,,,,,,,,,,,,switch,number,NA,d,Hi,,,,,,0.402,2,,,,,,,,high,29,0,29,0,1,,,,,,,,,
298255,2022-11-22_19h18.25.573,vts_reward_expectancy_bt,2022.2.4,Win32,60.74596039,Chrome,1536,864,,,,,10,1045,,,,,,,,,,,,,,,,,125,U,circle,1,1,,,,,,,,,,,,,,,,switch,letter,lettSwt,k,Lo,,,,,,0.6335,2,,,,,,,,high,30,0,30,0,1,,,,,,,,,
298255,2022-11-22_19h18.25.573,vts_reward_expectancy_bt,2022.2.4,Win32,60.74596039,Chrome,1536,864,,,,,0,1045,,,,,,,,,,,,,,,,,160,S,triangle,1,0,,,,,,,,,,,,,,,,repeat,letter,lettRpt,k,Hi,,,,,,0.6841,2,,,,,,,,high,31,0,31,0,1,,,,,,,,,
298255,2022-11-22_19h18.25.573,vts_reward_expectancy_bt,2022.2.4,Win32,60.74596039,Chrome,1536,864,,,,,10,1055,,,,,,,,,,,,,,,,,132,W,circle,1,0,,,,,,,,,,,,,,,,switch,number,numSwt,d,Lo,,,,,,0.4354,3,,,,,,space,1.8338,high,0,0,0,0,1,,,,,,,,,
298255,2022-11-22_19h18.25.573,vts_reward_expectancy_bt,2022.2.4,Win32,60.74596039,Chrome,1536,864,,,,,0,1055,,,,,,,,,,,,,,,,,160,B,triangle,1,0,,,,,,,,,,,,,,,,repeat,number,numRpt,f,Hi,,,,,,0.4686,3,,,,,,,,high,1,0,1,0,1,,,,,,,,,
298255,2022-11-22_19h18.25.573,vts_reward_expectancy_bt,2022.2.4,Win32,60.74596039,Chrome,1536,864,,,,,10,1065,,,,,,,,,,,,,,,,,167,Y,star,1,0,,,,,,,,,,,,,,,,repeat,number,numRpt,f,Hi,,,,,,0.4222,3,,,,,,,,high,2,0,2,0,1,,,,,,,,,
298255,2022-11-22_19h18.25.573,vts_reward_expectancy_bt,2022.2.4,Win32,60.74596039,Chrome,1536,864,,,,,1,1066,,,,,,,,,,,,,,,,,174,H,hexagon,1,0,,,,,,,,,,,,,,,,repeat,number,numRpt,f,Lo,,,,,,0.4203,3,,,,,,,,high,3,0,3,0,1,,,,,,,,,
298255,2022-11-22_19h18.25.573,vts_reward_expectancy_bt,2022.2.4,Win32,60.74596039,Chrome,1536,864,,,,,0,1066,,,,,,,,,,,,,,,,,146,F,circle,0,0,,,,,,,,,,,,,,,,repeat,number,NA,f,Lo,,,,,,0.4088,3,,,,,,,,high,4,0,4,0,1,,,,,,,,,
298255,2022-11-22_19h18.25.573,vts_reward_expectancy_bt,2022.2.4,Win32,60.74596039,Chrome,1536,864,,,,,10,1076,,,,,,,,,,,,,,,,,181,S,triangle,1,1,,,,,,,,,,,,,,,,repeat,number,numRpt,f,Hi,,,,,,0.4181,3,,,,,,,,high,5,0,5,0,1,,,,,,,,,
298255,2022-11-22_19h18.25.573,vts_reward_expectancy_bt,2022.2.4,Win32,60.74596039,Chrome,1536,864,,,,,0,1076,,,,,,,,,,,,,,,,,139,U,star,0,0,,,,,,,,,,,,,,,,repeat,number,NA,f,Hi,,,,,,0.4764,3,,,,,,,,high,6,0,6,0,1,,,,,,,,,
298255,2022-11-22_19h18.25.573,vts_reward_expectancy_bt,2022.2.4,Win32,60.74596039,Chrome,1536,864,,,,,1,1077,,,,,,,,,,,,,,,,,125,D,hexagon,1,1,,,,,,,,,,,,,,,,switch,letter,lettSwt,j,Lo,,,,,,0.5345,3,,,,,,,,high,7,0,7,0,1,,,,,,,,,
298255,2022-11-22_19h18.25.573,vts_reward_expectancy_bt,2022.2.4,Win32,60.74596039,Chrome,1536,864,,,,,0,1077,,,,,,,,,,,,,,,,,132,W,triangle,1,0,,,,,,,,,,,,,,,,repeat,letter,lettRpt,k,Hi,,,,,,0.5093,3,,,,,,,,high,8,0,8,0,1,,,,,,,,,
298255,2022-11-22_19h18.25.573,vts_reward_expectancy_bt,2022.2.4,Win32,60.74596039,Chrome,1536,864,,,,,1,1078,,,,,,,,,,,,,,,,,160,B,hexagon,1,0,,,,,,,,,,,,,,,,repeat,letter,lettRpt,j,Lo,,,,,,0.4856,3,,,,,,,,high,9,0,9,0,1,,,,,,,,,
298255,2022-11-22_19h18.25.573,vts_reward_expectancy_bt,2022.2.4,Win32,60.74596039,Chrome,1536,864,,,,,1,1079,,,,,,,,,,,,,,,,,167,Y,circle,1,0,,,,,,,,,,,,,,,,switch,number,numSwt,f,Lo,,,,,,0.5364,3,,,,,,,,high,10,0,10,0,1,,,,,,,,,
298255,2022-11-22_19h18.25.573,vts_reward_expectancy_bt,2022.2.4,Win32,60.74596039,Chrome,1536,864,,,,,0,1079,,,,,,,,,,,,,,,,,174,H,star,1,0,,,,,,,,,,,,,,,,repeat,number,numRpt,f,Hi,,,,,,0.7016,3,,,,,,,,high,11,0,11,0,1,,,,,,,,,
298255,2022-11-22_19h18.25.573,vts_reward_expectancy_bt,2022.2.4,Win32,60.74596039,Chrome,1536,864,,,,,1,1080,,,,,,,,,,,,,,,,,146,F,circle,1,0,,,,,,,,,,,,,,,,switch,letter,lettSwt,j,Lo,,,,,,0.7012,3,,,,,,,,high,12,0,12,0,1,,,,,,,,,
298255,2022-11-22_19h18.25.573,vts_reward_expectancy_bt,2022.2.4,Win32,60.74596039,Chrome,1536,864,,,,,1,1081,,,,,,,,,,,,,,,,,181,S,triangle,1,0,,,,,,,,,,,,,,,,switch,number,numSwt,f,Hi,,,,,,0.3742,3,,,,,,,,high,13,0,13,0,1,,,,,,,,,
298255,2022-11-22_19h18.25.573,vts_reward_expectancy_bt,2022.2.4,Win32,60.74596039,Chrome,1536,864,,,,,0,1081,,,,,,,,,,,,,,,,,139,U,hexagon,0,0,,,,,,,,,,,,,,,,switch,letter,NA,j,Hi,,,,,,0.4911,3,,,,,,,,high,14,0,14,0,1,,,,,,,,,
298255,2022-11-22_19h18.25.573,vts_reward_expectancy_bt,2022.2.4,Win32,60.74596039,Chrome,1536,864,,,,,0,1081,,,,,,,,,,,,,,,,,125,D,star,1,1,,,,,,,,,,,,,,,,switch,number,numSwt,d,Hi,,,,,,0.487,3,,,,,,,,high,15,0,15,0,1,,,,,,,,,
298255,2022-11-22_19h18.25.573,vts_reward_expectancy_bt,2022.2.4,Win32,60.74596039,Chrome,1536,864,,,,,0,1081,,,,,,,,,,,,,,,,,132,W,triangle,1,0,,,,,,,,,,,,,,,,switch,letter,lettSwt,k,Hi,,,,,,0.4519,3,,,,,,,,high,16,0,16,0,1,,,,,,,,,
298255,2022-11-22_19h18.25.573,vts_reward_expectancy_bt,2022.2.4,Win32,60.74596039,Chrome,1536,864,,,,,0,1081,,,,,,,,,,,,,,,,,181,Y,star,0,0,,,,,,,,,,,,,,,,repeat,letter,NA,j,Hi,,,,,,0.3847,3,,,,,,,,high,17,0,17,0,1,,,,,,,,,
298255,2022-11-22_19h18.25.573,vts_reward_expectancy_bt,2022.2.4,Win32,60.74596039,Chrome,1536,864,,,,,0,1081,,,,,,,,,,,,,,,,,146,S,hexagon,0,1,,,,,,,,,,,,,,,,repeat,letter,NA,j,Hi,,,,,,0.5182,3,,,,,,,,high,18,0,18,0,1,,,,,,,,,
298255,2022-11-22_19h18.25.573,vts_reward_expectancy_bt,2022.2.4,Win32,60.74596039,Chrome,1536,864,,,,,10,1091,,,,,,,,,,,,,,,,,174,U,circle,1,1,,,,,,,,,,,,,,,,repeat,letter,lettRpt,k,Lo,,,,,,0.4857,3,,,,,,,,high,19,0,19,0,1,,,,,,,,,
298255,2022-11-22_19h18.25.573,vts_reward_expectancy_bt,2022.2.4,Win32,60.74596039,Chrome,1536,864,,,,,1,1092,,,,,,,,,,,,,,,,,160,B,circle,1,0,,,,,,,,,,,,,,,,repeat,letter,lettRpt,j,Lo,,,,,,0.3696,3,,,,,,,,high,20,0,20,0,1,,,,,,,,,
298255,2022-11-22_19h18.25.573,vts_reward_expectancy_bt,2022.2.4,Win32,60.74596039,Chrome,1536,864,,,,,1,1093,,,,,,,,,,,,,,,,,125,H,hexagon,1,0,,,,,,,,,,,,,,,,repeat,letter,lettRpt,j,Lo,,,,,,0.5514,3,,,,,,,,high,21,0,21,0,1,,,,,,,,,
298255,2022-11-22_19h18.25.573,vts_reward_expectancy_bt,2022.2.4,Win32,60.74596039,Chrome,1536,864,,,,,0,1093,,,,,,,,,,,,,,,,,167,F,triangle,1,0,,,,,,,,,,,,,,,,repeat,letter,lettRpt,j,Hi,,,,,,0.584,3,,,,,,,,high,22,0,22,0,1,,,,,,,,,
298255,2022-11-22_19h18.25.573,vts_reward_expectancy_bt,2022.2.4,Win32,60.74596039,Chrome,1536,864,,,,,0,1093,,,,,,,,,,,,,,,,,139,D,star,1,0,,,,,,,,,,,,,,,,repeat,letter,lettRpt,j,Hi,,,,,,0.6561,3,,,,,,,,high,23,0,23,0,1,,,,,,,,,
298255,2022-11-22_19h18.25.573,vts_reward_expectancy_bt,2022.2.4,Win32,60.74596039,Chrome,1536,864,,,,,0,1093,,,,,,,,,,,,,,,,,174,W,star,0,0,,,,,,,,,,,,,,,,switch,number,NA,d,Hi,,,,,,0.6842,3,,,,,,,,high,24,0,24,0,1,,,,,,,,,
298255,2022-11-22_19h18.25.573,vts_reward_expectancy_bt,2022.2.4,Win32,60.74596039,Chrome,1536,864,,,,,1,1094,,,,,,,,,,,,,,,,,132,S,hexagon,1,1,,,,,,,,,,,,,,,,repeat,number,numRpt,d,Lo,,,,,,0.6739,3,,,,,,,,high,25,0,25,0,1,,,,,,,,,
298255,2022-11-22_19h18.25.573,vts_reward_expectancy_bt,2022.2.4,Win32,60.74596039,Chrome,1536,864,,,,,10,1104,,,,,,,,,,,,,,,,,181,Y,triangle,1,0,,,,,,,,,,,,,,,,repeat,number,numRpt,f,Hi,,,,,,0.3054,3,,,,,,,,high,26,0,26,0,1,,,,,,,,,
298255,2022-11-22_19h18.25.573,vts_reward_expectancy_bt,2022.2.4,Win32,60.74596039,Chrome,1536,864,,,,,10,1114,,,,,,,,,,,,,,,,,125,H,circle,1,0,,,,,,,,,,,,,,,,switch,letter,lettSwt,j,Lo,,,,,,0.4752,3,,,,,,,,high,27,0,27,0,1,,,,,,,,,
298255,2022-11-22_19h18.25.573,vts_reward_expectancy_bt,2022.2.4,Win32,60.74596039,Chrome,1536,864,,,,,0,1114,,,,,,,,,,,,,,,,,139,F,triangle,1,0,,,,,,,,,,,,,,,,repeat,letter,lettRpt,j,Hi,,,,,,0.5069,3,,,,,,,,high,28,0,28,0,1,,,,,,,,,
298255,2022-11-22_19h18.25.573,vts_reward_expectancy_bt,2022.2.4,Win32,60.74596039,Chrome,1536,864,,,,,0,1114,,,,,,,,,,,,,,,,,167,D,star,1,0,,,,,,,,,,,,,,,,switch,number,numSwt,f,Hi,,,,,,0.4508,3,,,,,,,,high,29,0,29,0,1,,,,,,,,,
298255,2022-11-22_19h18.25.573,vts_reward_expectancy_bt,2022.2.4,Win32,60.74596039,Chrome,1536,864,,,,,0,1114,,,,,,,,,,,,,,,,,160,U,hexagon,0,0,,,,,,,,,,,,,,,,switch,letter,NA,j,Hi,,,,,,0.4722,3,,,,,,,,high,30,0,30,0,1,,,,,,,,,
298255,2022-11-22_19h18.25.573,vts_reward_expectancy_bt,2022.2.4,Win32,60.74596039,Chrome,1536,864,,,,,0,1114,,,,,,,,,,,,,,,,,146,B,circle,0,1,,,,,,,,,,,,,,,,switch,number,NA,f,Hi,,,,,,0.4674,3,,,,,,,,high,31,0,31,0,1,,,,,,,,,
298255,2022-11-22_19h18.25.573,vts_reward_expectancy_bt,2022.2.4,Win32,60.74596039,Chrome,1536,864,,,,,10,1124,,,,,,,,,,,,,,,,,132,H,circle,1,1,,,,,,,,,,,,,,,,switch,letter,lettSwt,j,Lo,,,,,,0.751,4,,,,,,space,1.806,high,0,0,0,0,1,,,,,,,,,
298255,2022-11-22_19h18.25.573,vts_reward_expectancy_bt,2022.2.4,Win32,60.74596039,Chrome,1536,864,,,,,10,1134,,,,,,,,,,,,,,,,,139,W,hexagon,1,0,,,,,,,,,,,,,,,,repeat,letter,lettRpt,k,Lo,,,,,,0.5056,4,,,,,,,,high,1,0,1,0,1,,,,,,,,,
298255,2022-11-22_19h18.25.573,vts_reward_expectancy_bt,2022.2.4,Win32,60.74596039,Chrome,1536,864,,,,,0,1134,,,,,,,,,,,,,,,,,160,Y,star,1,0,,,,,,,,,,,,,,,,repeat,letter,lettRpt,k,Hi,,,,,,0.5334,4,,,,,,,,high,2,0,2,0,1,,,,,,,,,
298255,2022-11-22_19h18.25.573,vts_reward_expectancy_bt,2022.2.4,Win32,60.74596039,Chrome,1536,864,,,,,0,1134,,,,,,,,,,,,,,,,,174,F,triangle,0,0,,,,,,,,,,,,,,,,switch,number,NA,d,Hi,,,,,,0.5012,4,,,,,,,,high,3,0,3,0,1,,,,,,,,,
298255,2022-11-22_19h18.25.573,vts_reward_expectancy_bt,2022.2.4,Win32,60.74596039,Chrome,1536,864,,,,,1,1135,,,,,,,,,,,,,,,,,167,U,circle,1,1,,,,,,,,,,,,,,,,repeat,number,numRpt,f,Lo,,,,,,0.4685,4,,,,,,,,high,4,0,4,0,1,,,,,,,,,
298255,2022-11-22_19h18.25.573,vts_reward_expectancy_bt,2022.2.4,Win32,60.74596039,Chrome,1536,864,,,,,1,1136,,,,,,,,,,,,,,,,,125,S,hexagon,1,0,,,,,,,,,,,,,,,,repeat,number,numRpt,d,Lo,,,,,,0.5425,4,,,,,,,,high,5,0,5,0,1,,,,,,,,,
298255,2022-11-22_19h18.25.573,vts_reward_expectancy_bt,2022.2.4,Win32,60.74596039,Chrome,1536,864,,,,,1,1137,,,,,,,,,,,,,,,,,146,B,star,1,0,,,,,,,,,,,,,,,,switch,letter,lettSwt,j,Hi,,,,,,0.4053,4,,,,,,,,high,6,0,6,0,1,,,,,,,,,
298255,2022-11-22_19h18.25.573,vts_reward_expectancy_bt,2022.2.4,Win32,60.74596039,Chrome,1536,864,,,,,10,1147,,,,,,,,,,,,,,,,,181,D,triangle,1,0,,,,,,,,,,,,,,,,repeat,letter,lettRpt,j,Hi,,,,,,0.4693,4,,,,,,,,high,7,0,7,0,1,,,,,,,,,
298255,2022-11-22_19h18.25.573,vts_reward_expectancy_bt,2022.2.4,Win32,60.74596039,Chrome,1536,864,,,,,1,1148,,,,,,,,,,,,,,,,,132,H,circle,1,0,,,,,,,,,,,,,,,,repeat,letter,lettRpt,j,Lo,,,,,,0.4854,4,,,,,,,,high,8,0,8,0,1,,,,,,,,,
298255,2022-11-22_19h18.25.573,vts_reward_expectancy_bt,2022.2.4,Win32,60.74596039,Chrome,1536,864,,,,,0,1148,,,,,,,,,,,,,,,,,139,W,triangle,1,0,,,,,,,,,,,,,,,,switch,number,numSwt,d,Hi,,,,,,0.6693,4,,,,,,,,high,9,0,9,0,1,,,,,,,,,
298255,2022-11-22_19h18.25.573,vts_reward_expectancy_bt,2022.2.4,Win32,60.74596039,Chrome,1536,864,,,,,1,1149,,,,,,,,,,,,,,,,,160,Y,hexagon,1,0,,,,,,,,,,,,,,,,repeat,number,numRpt,f,Lo,,,,,,0.6757,4,,,,,,,,high,10,0,10,0,1,,,,,,,,,
298255,2022-11-22_19h18.25.573,vts_reward_expectancy_bt,2022.2.4,Win32,60.74596039,Chrome,1536,864,,,,,10,1159,,,,,,,,,,,,,,,,,174,F,star,1,0,,,,,,,,,,,,,,,,repeat,number,numRpt,f,Hi,,,,,,0.4065,4,,,,,,,,high,11,0,11,0,1,,,,,,,,,
298255,2022-11-22_19h18.25.573,vts_reward_expectancy_bt,2022.2.4,Win32,60.74596039,Chrome,1536,864,,,,,0,1159,,,,,,,,,,,,,,,,,167,U,star,0,0,,,,,,,,,,,,,,,,switch,letter,NA,j,Hi,,,,,,0.435,4,,,,,,,,high,12,0,12,0,1,,,,,,,,,
298255,2022-11-22_19h18.25.573,vts_reward_expectancy_bt,2022.2.4,Win32,60.74596039,Chrome,1536,864,,,,,0,1159,,,,,,,,,,,,,,,,,125,S,hexagon,0,1,,,,,,,,,,,,,,,,repeat,letter,NA,j,Hi,,,,,,0.4824,4,,,,,,,,high,13,0,13,0,1,,,,,,,,,
298255,2022-11-22_19h18.25.573,vts_reward_expectancy_bt,2022.2.4,Win32,60.74596039,Chrome,1536,864,,,,,10,1169,,,,,,,,,,,,,,,,,146,B,circle,1,1,,,,,,,,,,,,,,,,repeat,letter,lettRpt,j,Lo,,,,,,0.4537,4,,,,,,,,high,14,0,14,0,1,,,,,,,,,
298255,2022-11-22_19h18.25.573,vts_reward_expectancy_bt,2022.2.4,Win32,60.74596039,Chrome,1536,864,,,,,0,1169,,,,,,,,,,,,,,,,,181,D,triangle,1,0,,,,,,,,,,,,,,,,switch,number,numSwt,f,Hi,,,,,,0.5021,4,,,,,,,,high,15,0,15,0,1,,,,,,,,,
298255,2022-11-22_19h18.25.573,vts_reward_expectancy_bt,2022.2.4,Win32,60.74596039,Chrome,1536,864,,,,,0,1169,,,,,,,,,,,,,,,,,146,S,star,1,0,,,,,,,,,,,,,,,,switch,letter,lettSwt,k,Hi,,,,,,0.6833,4,,,,,,,,high,16,0,16,0,1,,,,,,,,,
298255,2022-11-22_19h18.25.573,vts_reward_expectancy_bt,2022.2.4,Win32,60.74596039,Chrome,1536,864,,,,,1,1170,,,,,,,,,,,,,,,,,181,F,hexagon,1,0,,,,,,,,,,,,,,,,switch,number,numSwt,f,Lo,,,,,,0.6337,4,,,,,,,,high,17,0,17,0,1,,,,,,,,,
298255,2022-11-22_19h18.25.573,vts_reward_expectancy_bt,2022.2.4,Win32,60.74596039,Chrome,1536,864,,,,,0,1170,,,,,,,,,,,,,,,,,139,D,circle,0,0,,,,,,,,,,,,,,,,repeat,number,NA,f,Lo,,,,,,0.4598,4,,,,,,,,high,18,0,18,0,1,,,,,,,,,
298255,2022-11-22_19h18.25.573,vts_reward_expectancy_bt,2022.2.4,Win32,60.74596039,Chrome,1536,864,,,,,0,1170,,,,,,,,,,,,,,,,,174,W,triangle,1,1,,,,,,,,,,,,,,,,repeat,number,numRpt,f,Hi,,,,,,0.4883,4,,,,,,,,high,19,0,19,0,1,,,,,,,,,
298255,2022-11-22_19h18.25.573,vts_reward_expectancy_bt,2022.2.4,Win32,60.74596039,Chrome,1536,864,,,,,1,1171,,,,,,,,,,,,,,,,,160,U,hexagon,1,0,,,,,,,,,,,,,,,,switch,letter,lettSwt,k,Lo,,,,,,0.4227,4,,,,,,,,high,20,0,20,0,1,,,,,,,,,
298255,2022-11-22_19h18.25.573,vts_reward_expectancy_bt,2022.2.4,Win32,60.74596039,Chrome,1536,864,,,,,0,1171,,,,,,,,,,,,,,,,,167,H,triangle,1,0,,,,,,,,,,,,,,,,repeat,letter,lettRpt,j,Hi,,,,,,0.5023,4,,,,,,,,high,21,0,21,0,1,,,,,,,,,
298255,2022-11-22_19h18.25.573,vts_reward_expectancy_bt,2022.2.4,Win32,60.74596039,Chrome,1536,864,,,,,0,1171,,,,,,,,,,,,,,,,,125,B,circle,0,0,,,,,,,,,,,,,,,,switch,number,NA,f,Hi,,,,,,0.5008,4,,,,,,,,high,22,0,22,0,1,,,,,,,,,
298255,2022-11-22_19h18.25.573,vts_reward_expectancy_bt,2022.2.4,Win32,60.74596039,Chrome,1536,864,,,,,1,1172,,,,,,,,,,,,,,,,,132,Y,star,1,1,,,,,,,,,,,,,,,,switch,letter,lettSwt,k,Hi,,,,,,0.3907,4,,,,,,,,high,23,0,23,0,1,,,,,,,,,
298255,2022-11-22_19h18.25.573,vts_reward_expectancy_bt,2022.2.4,Win32,60.74596039,Chrome,1536,864,,,,,0,1172,,,,,,,,,,,,,,,,,181,U,star,0,0,,,,,,,,,,,,,,,,repeat,letter,NA,j,Hi,,,,,,0.351,4,,,,,,,,high,24,0,24,0,1,,,,,,,,,
298255,2022-11-22_19h18.25.573,vts_reward_expectancy_bt,2022.2.4,Win32,60.74596039,Chrome,1536,864,,,,,1,1173,,,,,,,,,,,,,,,,,167,D,hexagon,1,1,,,,,,,,,,,,,,,,repeat,letter,lettRpt,j,Lo,,,,,,0.4266,4,,,,,,,,high,25,0,25,0,1,,,,,,,,,
298255,2022-11-22_19h18.25.573,vts_reward_expectancy_bt,2022.2.4,Win32,60.74596039,Chrome,1536,864,,,,,10,1183,,,,,,,,,,,,,,,,,139,H,circle,1,0,,,,,,,,,,,,,,,,repeat,letter,lettRpt,j,Lo,,,,,,0.4217,4,,,,,,,,high,26,0,26,0,1,,,,,,,,,
298255,2022-11-22_19h18.25.573,vts_reward_expectancy_bt,2022.2.4,Win32,60.74596039,Chrome,1536,864,,,,,0,1183,,,,,,,,,,,,,,,,,146,S,triangle,1,0,,,,,,,,,,,,,,,,switch,number,numSwt,d,Hi,,,,,,0.4726,4,,,,,,,,high,27,0,27,0,1,,,,,,,,,
298255,2022-11-22_19h18.25.573,vts_reward_expectancy_bt,2022.2.4,Win32,60.74596039,Chrome,1536,864,,,,,1,1184,,,,,,,,,,,,,,,,,174,W,circle,1,0,,,,,,,,,,,,,,,,repeat,number,numRpt,f,Lo,,,,,,0.516,4,,,,,,,,high,28,0,28,0,1,,,,,,,,,
298255,2022-11-22_19h18.25.573,vts_reward_expectancy_bt,2022.2.4,Win32,60.74596039,Chrome,1536,864,,,,,1,1185,,,,,,,,,,,,,,,,,160,B,hexagon,1,0,,,,,,,,,,,,,,,,switch,letter,lettSwt,j,Lo,,,,,,0.5513,4,,,,,,,,high,29,0,29,0,1,,,,,,,,,
298255,2022-11-22_19h18.25.573,vts_reward_expectancy_bt,2022.2.4,Win32,60.74596039,Chrome,1536,864,,,,,10,1195,,,,,,,,,,,,,,,,,132,F,star,1,0,,,,,,,,,,,,,,,,switch,number,numSwt,d,Hi,,,,,,0.4341,4,,,,,,,,high,30,0,30,0,1,,,,,,,,,
298255,2022-11-22_19h18.25.573,vts_reward_expectancy_bt,2022.2.4,Win32,60.74596039,Chrome,1536,864,,,,,0,1195,,,,,,,,,,,,,,,,,125,Y,triangle,0,0,,,,,,,,,,,,,,,,switch,letter,NA,j,Hi,,,,,,0.3558,4,,,,,,,,high,31,0,31,0,1,,,,,,,,,
298255,2022-11-22_19h18.25.573,vts_reward_expectancy_bt,2022.2.4,Win32,60.74596039,Chrome,1536,864,,,,,0,1195,,,,,,,,,,,,,,,,,139,H,triangle,0,1,,,,,,,,,,,,,,,,repeat,letter,NA,k,Hi,,,,,,0.6025,5,,,,,,space,0.9427,high,0,0,0,0,1,,,,,,,,,
298255,2022-11-22_19h18.25.573,vts_reward_expectancy_bt,2022.2.4,Win32,60.74596039,Chrome,1536,864,,,,,0,1195,,,,,,,,,,,,,,,,,132,B,star,0,1,,,,,,,,,,,,,,,,switch,number,NA,f,Hi,,,,,,0.2856,5,,,,,,,,high,1,0,1,0,1,,,,,,,,,
298255,2022-11-22_19h18.25.573,vts_reward_expectancy_bt,2022.2.4,Win32,60.74596039,Chrome,1536,864,,,,,0,1195,,,,,,,,,,,,,,,,,146,D,circle,0,1,,,,,,,,,,,,,,,,switch,letter,NA,k,Hi,,,,,,0.3011,5,,,,,,,,high,2,0,2,0,1,,,,,,,,,
298255,2022-11-22_19h18.25.573,vts_reward_expectancy_bt,2022.2.4,Win32,60.74596039,Chrome,1536,864,,,,,0,1195,,,,,,,,,,,,,,,,,181,S,hexagon,0,1,,,,,,,,,,,,,,,,repeat,letter,NA,j,Hi,,,,,,0.2511,5,,,,,,,,high,3,0,3,0,1,,,,,,,,,
298255,2022-11-22_19h18.25.573,vts_reward_expectancy_bt,2022.2.4,Win32,60.74596039,Chrome,1536,864,,,,,0,1195,,,,,,,,,,,,,,,,,160,U,triangle,0,1,,,,,,,,,,,,,,,,switch,number,NA,d,Hi,,,,,,0.3005,5,,,,,,,,high,4,0,4,0,1,,,,,,,,,
298255,2022-11-22_19h18.25.573,vts_reward_expectancy_bt,2022.2.4,Win32,60.74596039,Chrome,1536,864,,,,,0,1195,,,,,,,,,,,,,,,,,125,F,star,1,1,,,,,,,,,,,,,,,,switch,letter,lettSwt,j,Hi,,,,,,0.7174,5,,,,,,,,high,5,0,5,0,1,,,,,,,,,
298255,2022-11-22_19h18.25.573,vts_reward_expectancy_bt,2022.2.4,Win32,60.74596039,Chrome,1536,864,,,,,1,1196,,,,,,,,,,,,,,,,,167,Y,circle,1,0,,,,,,,,,,,,,,,,repeat,letter,lettRpt,k,Lo,,,,,,0.4671,5,,,,,,,,high,6,0,6,0,1,,,,,,,,,
298255,2022-11-22_19h18.25.573,vts_reward_expectancy_bt,2022.2.4,Win32,60.74596039,Chrome,1536,864,,,,,10,1206,,,,,,,,,,,,,,,,,174,W,hexagon,1,0,,,,,,,,,,,,,,,,switch,number,numSwt,f,Lo,,,,,,0.4211,5,,,,,,,,high,7,0,7,0,1,,,,,,,,,
298255,2022-11-22_19h18.25.573,vts_reward_expectancy_bt,2022.2.4,Win32,60.74596039,Chrome,1536,864,,,,,1,1207,,,,,,,,,,,,,,,,,139,H,hexagon,1,0,,,,,,,,,,,,,,,,switch,letter,lettSwt,j,Lo,,,,,,0.3848,5,,,,,,,,high,8,0,8,0,1,,,,,,,,,
298255,2022-11-22_19h18.25.573,vts_reward_expectancy_bt,2022.2.4,Win32,60.74596039,Chrome,1536,864,,,,,10,1217,,,,,,,,,,,,,,,,,132,B,triangle,1,0,,,,,,,,,,,,,,,,switch,number,numSwt,d,Hi,,,,,,0.434,5,,,,,,,,high,9,0,9,0,1,,,,,,,,,
298255,2022-11-22_19h18.25.573,vts_reward_expectancy_bt,2022.2.4,Win32,60.74596039,Chrome,1536,864,,,,,10,1227,,,,,,,,,,,,,,,,,146,D,circle,1,0,,,,,,,,,,,,,,,,switch,letter,lettSwt,j,Lo,,,,,,0.339,5,,,,,,,,high,10,0,10,0,1,,,,,,,,,
298255,2022-11-22_19h18.25.573,vts_reward_expectancy_bt,2022.2.4,Win32,60.74596039,Chrome,1536,864,,,,,10,1237,,,,,,,,,,,,,,,,,181,S,star,1,0,,,,,,,,,,,,,,,,switch,number,numSwt,f,Hi,,,,,,0.4519,5,,,,,,,,high,11,0,11,0,1,,,,,,,,,
298255,2022-11-22_19h18.25.573,vts_reward_expectancy_bt,2022.2.4,Win32,60.74596039,Chrome,1536,864,,,,,0,1237,,,,,,,,,,,,,,,,,160,U,star,1,0,,,,,,,,,,,,,,,,switch,letter,lettSwt,k,Hi,,,,,,0.4882,5,,,,,,,,high,12,0,12,0,1,,,,,,,,,
298255,2022-11-22_19h18.25.573,vts_reward_expectancy_bt,2022.2.4,Win32,60.74596039,Chrome,1536,864,,,,,1,1238,,,,,,,,,,,,,,,,,125,F,hexagon,1,0,,,,,,,,,,,,,,,,switch,number,numSwt,d,Lo,,,,,,0.5352,5,,,,,,,,high,13,0,13,0,1,,,,,,,,,
298255,2022-11-22_19h18.25.573,vts_reward_expectancy_bt,2022.2.4,Win32,60.74596039,Chrome,1536,864,,,,,0,1238,,,,,,,,,,,,,,,,,167,Y,triangle,1,0,,,,,,,,,,,,,,,,switch,letter,lettSwt,k,Hi,,,,,,0.4901,5,,,,,,,,high,14,0,14,0,1,,,,,,,,,
298255,2022-11-22_19h18.25.573,vts_reward_expectancy_bt,2022.2.4,Win32,60.74596039,Chrome,1536,864,,,,,0,1238,,,,,,,,,,,,,,,,,174,W,circle,0,0,,,,,,,,,,,,,,,,switch,number,NA,d,Hi,,,,,,0.7403,5,,,,,,,,high,15,0,15,0,1,,,,,,,,,
