participant,date,expName,psychopyVersion,OS,frameRate,browser,xResolution,yResolution,key_resp.keys,key_resp.rt,training_resp.keys,training_resp.rt,points_trial,points_cumul,trainBlock,training.thisRepN,training.thisTrialN,training.thisN,training.thisIndex,training.ran,LTriangleOpac,LCircleOpac,LHexagonOpac,LStarOpac,RTriangleOpac,RCircleOpac,RHexagonOpac,RStarOpac,LShape_ID,RShape_ID,curr_topStim,curr_bottStim,curr_shape,acc,E1,target_resp_prac1.keys,target_resp_prac1.rt,pracBlock,task1_prac_trials.thisRepN,task1_prac_trials.thisTrialN,task1_prac_trials.thisN,task1_prac_trials.thisIndex,task1_prac_trials.ran,target_resp_prac2.keys,target_resp_prac2.rt,task2_praac_trials.thisRepN,task2_praac_trials.thisTrialN,task2_praac_trials.thisN,task2_praac_trials.thisIndex,task2_praac_trials.ran,alt,task,condition,target_resp.keys,target_resp.rt,rewCond,vts_practice_trials.thisRepN,vts_practice_trials.thisTrialN,vts_practice_trials.thisN,vts_practice_trials.thisIndex,vts_practice_trials.ran,blockNum,trials_norew.thisRepN,trials_norew.thisTrialN,trials_norew.thisN,trials_norew.thisIndex,trials_norew.ran,key_resp_2.keys,key_resp_2.rt,rewExpectancy,trials_rew.thisRepN,trials_rew.thisTrialN,trials_rew.thisN,trials_rew.thisIndex,trials_rew.ran,Q1,Q2,Q2_text,Q3,Q4,Q5_text,Q5,xRes,yRes
298213,2022-12-04_17h01.45.084,vts_reward_expectancy_bt,2022.2.4,Win32,60.27727547,Chrome,1280,720,,,,,,,,,,,,,,,,,,,,,,,,,,,,,,,,,,,,,,,,,,,,,,,,,,,,,,,,,,,,,,,,,,,,,,,,,,,,
298213,2022-12-04_17h01.45.084,vts_reward_expectancy_bt,2022.2.4,Win32,60.27727547,Chrome,1280,720,space,20.5414,,,,,,,,,,,,,,,,,,,,,,,,,,,,,,,,,,,,,,,,,,,,,,,,,,,,,,,,,,,,,,,,,,,,,,,,,,
298213,2022-12-04_17h01.45.084,vts_reward_expectancy_bt,2022.2.4,Win32,60.27727547,Chrome,1280,720,,,,,,,,,,,,,,,,,,,,,,,,,,,,,,,,,,,,,,,,,,,,,,,,,,,,,,,,,,,,,,,,,,,,,,,,,,,,
298213,2022-12-04_17h01.45.084,vts_reward_expectancy_bt,2022.2.4,Win32,60.27727547,Chrome,1280,720,,,l,3.852400001,1,1,0,0,0,0,4,1,0,1,0,0,0,0,1,0,circle,hexagon,,,,,,,,,,,,,,,,,,,,,,,,,,,,,,,,,,,,,,,,,,,,,,,,,,,,,,
298213,2022-12-04_17h01.45.084,vts_reward_expectancy_bt,2022.2.4,Win32,60.27727547,Chrome,1280,720,,,a,1.9988,10,11,0,0,1,1,9,1,0,0,0,1,1,0,0,0,star,triangle,,,,,,,,,,,,,,,,,,,,,,,,,,,,,,,,,,,,,,,,,,,,,,,,,,,,,,
298213,2022-12-04_17h01.45.084,vts_reward_expectancy_bt,2022.2.4,Win32,60.27727547,Chrome,1280,720,,,l,2.3482,1,12,0,0,2,2,0,1,1,0,0,0,0,1,0,0,triangle,circle,,,,,,,,,,,,,,,,,,,,,,,,,,,,,,,,,,,,,,,,,,,,,,,,,,,,,,
298213,2022-12-04_17h01.45.084,vts_reward_expectancy_bt,2022.2.4,Win32,60.27727547,Chrome,1280,720,,,a,2.2681,1,13,0,0,3,3,2,1,1,0,0,0,0,0,0,1,triangle,star,,,,,,,,,,,,,,,,,,,,,,,,,,,,,,,,,,,,,,,,,,,,,,,,,,,,,,
298213,2022-12-04_17h01.45.084,vts_reward_expectancy_bt,2022.2.4,Win32,60.27727547,Chrome,1280,720,,,a,1.7166,10,23,0,0,4,4,3,1,0,1,0,0,1,0,0,0,circle,triangle,,,,,,,,,,,,,,,,,,,,,,,,,,,,,,,,,,,,,,,,,,,,,,,,,,,,,,
298213,2022-12-04_17h01.45.084,vts_reward_expectancy_bt,2022.2.4,Win32,60.27727547,Chrome,1280,720,,,l,1.431099999,10,33,0,0,5,5,8,1,0,0,1,0,0,0,0,1,hexagon,star,,,,,,,,,,,,,,,,,,,,,,,,,,,,,,,,,,,,,,,,,,,,,,,,,,,,,,
298213,2022-12-04_17h01.45.084,vts_reward_expectancy_bt,2022.2.4,Win32,60.27727547,Chrome,1280,720,,,a,1.5314,1,34,0,0,6,6,7,1,0,0,1,0,0,1,0,0,hexagon,circle,,,,,,,,,,,,,,,,,,,,,,,,,,,,,,,,,,,,,,,,,,,,,,,,,,,,,,
298213,2022-12-04_17h01.45.084,vts_reward_expectancy_bt,2022.2.4,Win32,60.27727547,Chrome,1280,720,,,a,3.1992,10,44,0,0,7,7,1,1,1,0,0,0,0,0,1,0,triangle,hexagon,,,,,,,,,,,,,,,,,,,,,,,,,,,,,,,,,,,,,,,,,,,,,,,,,,,,,,
298213,2022-12-04_17h01.45.084,vts_reward_expectancy_bt,2022.2.4,Win32,60.27727547,Chrome,1280,720,,,a,1.1327,10,54,0,0,8,8,11,1,0,0,0,1,0,0,1,0,star,hexagon,,,,,,,,,,,,,,,,,,,,,,,,,,,,,,,,,,,,,,,,,,,,,,,,,,,,,,
298213,2022-12-04_17h01.45.084,vts_reward_expectancy_bt,2022.2.4,Win32,60.27727547,Chrome,1280,720,,,a,2.2523,1,55,0,0,9,9,6,1,0,0,1,0,1,0,0,0,hexagon,triangle,,,,,,,,,,,,,,,,,,,,,,,,,,,,,,,,,,,,,,,,,,,,,,,,,,,,,,
298213,2022-12-04_17h01.45.084,vts_reward_expectancy_bt,2022.2.4,Win32,60.27727547,Chrome,1280,720,,,a,0.8996,1,56,0,0,10,10,10,1,0,0,0,1,0,1,0,0,star ,circle,,,,,,,,,,,,,,,,,,,,,,,,,,,,,,,,,,,,,,,,,,,,,,,,,,,,,,
298213,2022-12-04_17h01.45.084,vts_reward_expectancy_bt,2022.2.4,Win32,60.27727547,Chrome,1280,720,,,a,3.4649,1,57,0,0,11,11,5,1,0,1,0,0,0,0,0,1,circle,star,,,,,,,,,,,,,,,,,,,,,,,,,,,,,,,,,,,,,,,,,,,,,,,,,,,,,,
298213,2022-12-04_17h01.45.084,vts_reward_expectancy_bt,2022.2.4,Win32,60.27727547,Chrome,1280,720,,,a,2.180900001,1,58,0,1,0,12,11,1,0,0,0,1,0,0,1,0,star,hexagon,,,,,,,,,,,,,,,,,,,,,,,,,,,,,,,,,,,,,,,,,,,,,,,,,,,,,,
298213,2022-12-04_17h01.45.084,vts_reward_expectancy_bt,2022.2.4,Win32,60.27727547,Chrome,1280,720,,,a,2.1731,1,59,0,1,1,13,5,1,0,1,0,0,0,0,0,1,circle,star,,,,,,,,,,,,,,,,,,,,,,,,,,,,,,,,,,,,,,,,,,,,,,,,,,,,,,
298213,2022-12-04_17h01.45.084,vts_reward_expectancy_bt,2022.2.4,Win32,60.27727547,Chrome,1280,720,,,l,3.2204,10,69,0,1,2,14,0,1,1,0,0,0,0,1,0,0,triangle,circle,,,,,,,,,,,,,,,,,,,,,,,,,,,,,,,,,,,,,,,,,,,,,,,,,,,,,,
298213,2022-12-04_17h01.45.084,vts_reward_expectancy_bt,2022.2.4,Win32,60.27727547,Chrome,1280,720,,,l,1.2688,10,79,0,1,3,15,2,1,1,0,0,0,0,0,0,1,triangle,star,,,,,,,,,,,,,,,,,,,,,,,,,,,,,,,,,,,,,,,,,,,,,,,,,,,,,,
298213,2022-12-04_17h01.45.084,vts_reward_expectancy_bt,2022.2.4,Win32,60.27727547,Chrome,1280,720,,,l,3.464900001,1,80,0,1,4,16,4,1,0,1,0,0,0,0,1,0,circle,hexagon,,,,,,,,,,,,,,,,,,,,,,,,,,,,,,,,,,,,,,,,,,,,,,,,,,,,,,
298213,2022-12-04_17h01.45.084,vts_reward_expectancy_bt,2022.2.4,Win32,60.27727547,Chrome,1280,720,,,l,2.7145,1,81,0,1,5,17,7,1,0,0,1,0,0,1,0,0,hexagon,circle,,,,,,,,,,,,,,,,,,,,,,,,,,,,,,,,,,,,,,,,,,,,,,,,,,,,,,
298213,2022-12-04_17h01.45.084,vts_reward_expectancy_bt,2022.2.4,Win32,60.27727547,Chrome,1280,720,,,l,2.3711,10,91,0,1,6,18,6,1,0,0,1,0,1,0,0,0,hexagon,triangle,,,,,,,,,,,,,,,,,,,,,,,,,,,,,,,,,,,,,,,,,,,,,,,,,,,,,,
298213,2022-12-04_17h01.45.084,vts_reward_expectancy_bt,2022.2.4,Win32,60.27727547,Chrome,1280,720,,,a,1.1651,10,101,0,1,7,19,9,1,0,0,0,1,1,0,0,0,star,triangle,,,,,,,,,,,,,,,,,,,,,,,,,,,,,,,,,,,,,,,,,,,,,,,,,,,,,,
298213,2022-12-04_17h01.45.084,vts_reward_expectancy_bt,2022.2.4,Win32,60.27727547,Chrome,1280,720,,,l,1.047700001,10,111,0,1,8,20,8,1,0,0,1,0,0,0,0,1,hexagon,star,,,,,,,,,,,,,,,,,,,,,,,,,,,,,,,,,,,,,,,,,,,,,,,,,,,,,,
298213,2022-12-04_17h01.45.084,vts_reward_expectancy_bt,2022.2.4,Win32,60.27727547,Chrome,1280,720,,,a,0.9552,1,112,0,1,9,21,3,1,0,1,0,0,1,0,0,0,circle,triangle,,,,,,,,,,,,,,,,,,,,,,,,,,,,,,,,,,,,,,,,,,,,,,,,,,,,,,
298213,2022-12-04_17h01.45.084,vts_reward_expectancy_bt,2022.2.4,Win32,60.27727547,Chrome,1280,720,,,a,0.589900001,10,122,0,1,10,22,1,1,1,0,0,0,0,0,1,0,triangle,hexagon,,,,,,,,,,,,,,,,,,,,,,,,,,,,,,,,,,,,,,,,,,,,,,,,,,,,,,
298213,2022-12-04_17h01.45.084,vts_reward_expectancy_bt,2022.2.4,Win32,60.27727547,Chrome,1280,720,,,a,0.8682,10,132,0,1,11,23,10,1,0,0,0,1,0,1,0,0,star ,circle,,,,,,,,,,,,,,,,,,,,,,,,,,,,,,,,,,,,,,,,,,,,,,,,,,,,,,
298213,2022-12-04_17h01.45.084,vts_reward_expectancy_bt,2022.2.4,Win32,60.27727547,Chrome,1280,720,,,a,1.515599999,10,142,0,2,0,24,3,1,0,1,0,0,1,0,0,0,circle,triangle,,,,,,,,,,,,,,,,,,,,,,,,,,,,,,,,,,,,,,,,,,,,,,,,,,,,,,
298213,2022-12-04_17h01.45.084,vts_reward_expectancy_bt,2022.2.4,Win32,60.27727547,Chrome,1280,720,,,a,1.666099999,10,152,0,2,1,25,10,1,0,0,0,1,0,1,0,0,star ,circle,,,,,,,,,,,,,,,,,,,,,,,,,,,,,,,,,,,,,,,,,,,,,,,,,,,,,,
298213,2022-12-04_17h01.45.084,vts_reward_expectancy_bt,2022.2.4,Win32,60.27727547,Chrome,1280,720,,,l,1.452,10,162,0,2,2,26,5,1,0,1,0,0,0,0,0,1,circle,star,,,,,,,,,,,,,,,,,,,,,,,,,,,,,,,,,,,,,,,,,,,,,,,,,,,,,,
298213,2022-12-04_17h01.45.084,vts_reward_expectancy_bt,2022.2.4,Win32,60.27727547,Chrome,1280,720,,,l,3.0687,1,163,0,2,3,27,7,1,0,0,1,0,0,1,0,0,hexagon,circle,,,,,,,,,,,,,,,,,,,,,,,,,,,,,,,,,,,,,,,,,,,,,,,,,,,,,,
298213,2022-12-04_17h01.45.084,vts_reward_expectancy_bt,2022.2.4,Win32,60.27727547,Chrome,1280,720,,,l,2.6305,1,164,0,2,4,28,2,1,1,0,0,0,0,0,0,1,triangle,star,,,,,,,,,,,,,,,,,,,,,,,,,,,,,,,,,,,,,,,,,,,,,,,,,,,,,,
298213,2022-12-04_17h01.45.084,vts_reward_expectancy_bt,2022.2.4,Win32,60.27727547,Chrome,1280,720,,,a,0.101400001,10,174,0,2,5,29,0,1,1,0,0,0,0,1,0,0,triangle,circle,,,,,,,,,,,,,,,,,,,,,,,,,,,,,,,,,,,,,,,,,,,,,,,,,,,,,,
298213,2022-12-04_17h01.45.084,vts_reward_expectancy_bt,2022.2.4,Win32,60.27727547,Chrome,1280,720,,,l,1.6687,1,175,0,2,6,30,9,1,0,0,0,1,1,0,0,0,star,triangle,,,,,,,,,,,,,,,,,,,,,,,,,,,,,,,,,,,,,,,,,,,,,,,,,,,,,,
298213,2022-12-04_17h01.45.084,vts_reward_expectancy_bt,2022.2.4,Win32,60.27727547,Chrome,1280,720,,,a,2.8259,10,185,0,2,7,31,1,1,1,0,0,0,0,0,1,0,triangle,hexagon,,,,,,,,,,,,,,,,,,,,,,,,,,,,,,,,,,,,,,,,,,,,,,,,,,,,,,
298213,2022-12-04_17h01.45.084,vts_reward_expectancy_bt,2022.2.4,Win32,60.27727547,Chrome,1280,720,,,a,3.4343,1,186,0,2,8,32,6,1,0,0,1,0,1,0,0,0,hexagon,triangle,,,,,,,,,,,,,,,,,,,,,,,,,,,,,,,,,,,,,,,,,,,,,,,,,,,,,,
298213,2022-12-04_17h01.45.084,vts_reward_expectancy_bt,2022.2.4,Win32,60.27727547,Chrome,1280,720,,,a,1.231900001,10,196,0,2,9,33,11,1,0,0,0,1,0,0,1,0,star,hexagon,,,,,,,,,,,,,,,,,,,,,,,,,,,,,,,,,,,,,,,,,,,,,,,,,,,,,,
298213,2022-12-04_17h01.45.084,vts_reward_expectancy_bt,2022.2.4,Win32,60.27727547,Chrome,1280,720,,,a,0.9139,1,197,0,2,10,34,4,1,0,1,0,0,0,0,1,0,circle,hexagon,,,,,,,,,,,,,,,,,,,,,,,,,,,,,,,,,,,,,,,,,,,,,,,,,,,,,,
298213,2022-12-04_17h01.45.084,vts_reward_expectancy_bt,2022.2.4,Win32,60.27727547,Chrome,1280,720,,,l,0.9202,10,207,0,2,11,35,8,1,0,0,1,0,0,0,0,1,hexagon,star,,,,,,,,,,,,,,,,,,,,,,,,,,,,,,,,,,,,,,,,,,,,,,,,,,,,,,
298213,2022-12-04_17h01.45.084,vts_reward_expectancy_bt,2022.2.4,Win32,60.27727547,Chrome,1280,720,,,a,2.0145,1,208,1,0,0,0,7,1,0,0,1,0,0,1,0,0,hexagon,circle,,,,,,,,,,,,,,,,,,,,,,,,,,,,,,,,,,,,,,,,,,,,,,,,,,,,,,
298213,2022-12-04_17h01.45.084,vts_reward_expectancy_bt,2022.2.4,Win32,60.27727547,Chrome,1280,720,,,a,2.0813,10,218,1,0,1,1,0,1,1,0,0,0,0,1,0,0,triangle,circle,,,,,,,,,,,,,,,,,,,,,,,,,,,,,,,,,,,,,,,,,,,,,,,,,,,,,,
298213,2022-12-04_17h01.45.084,vts_reward_expectancy_bt,2022.2.4,Win32,60.27727547,Chrome,1280,720,,,l,1.7588,1,219,1,0,2,2,2,1,1,0,0,0,0,0,0,1,triangle,star,,,,,,,,,,,,,,,,,,,,,,,,,,,,,,,,,,,,,,,,,,,,,,,,,,,,,,
298213,2022-12-04_17h01.45.084,vts_reward_expectancy_bt,2022.2.4,Win32,60.27727547,Chrome,1280,720,,,l,1.387599999,10,229,1,0,3,3,5,1,0,1,0,0,0,0,0,1,circle,star,,,,,,,,,,,,,,,,,,,,,,,,,,,,,,,,,,,,,,,,,,,,,,,,,,,,,,
298213,2022-12-04_17h01.45.084,vts_reward_expectancy_bt,2022.2.4,Win32,60.27727547,Chrome,1280,720,,,a,1.6077,10,239,1,0,4,4,1,1,1,0,0,0,0,0,1,0,triangle,hexagon,,,,,,,,,,,,,,,,,,,,,,,,,,,,,,,,,,,,,,,,,,,,,,,,,,,,,,
298213,2022-12-04_17h01.45.084,vts_reward_expectancy_bt,2022.2.4,Win32,60.27727547,Chrome,1280,720,,,l,0.698,1,240,1,0,5,5,8,1,0,0,1,0,0,0,0,1,hexagon,star,,,,,,,,,,,,,,,,,,,,,,,,,,,,,,,,,,,,,,,,,,,,,,,,,,,,,,
298213,2022-12-04_17h01.45.084,vts_reward_expectancy_bt,2022.2.4,Win32,60.27727547,Chrome,1280,720,,,a,0.5097,1,241,1,0,6,6,4,1,0,1,0,0,0,0,1,0,circle,hexagon,,,,,,,,,,,,,,,,,,,,,,,,,,,,,,,,,,,,,,,,,,,,,,,,,,,,,,
298213,2022-12-04_17h01.45.084,vts_reward_expectancy_bt,2022.2.4,Win32,60.27727547,Chrome,1280,720,,,a,0.451599999,1,242,1,0,7,7,10,1,0,0,0,1,0,1,0,0,star ,circle,,,,,,,,,,,,,,,,,,,,,,,,,,,,,,,,,,,,,,,,,,,,,,,,,,,,,,
298213,2022-12-04_17h01.45.084,vts_reward_expectancy_bt,2022.2.4,Win32,60.27727547,Chrome,1280,720,,,a,3.800900001,10,252,1,0,8,8,9,1,0,0,0,1,1,0,0,0,star,triangle,,,,,,,,,,,,,,,,,,,,,,,,,,,,,,,,,,,,,,,,,,,,,,,,,,,,,,
298213,2022-12-04_17h01.45.084,vts_reward_expectancy_bt,2022.2.4,Win32,60.27727547,Chrome,1280,720,,,a,0.849400001,10,262,1,0,9,9,11,1,0,0,0,1,0,0,1,0,star,hexagon,,,,,,,,,,,,,,,,,,,,,,,,,,,,,,,,,,,,,,,,,,,,,,,,,,,,,,
298213,2022-12-04_17h01.45.084,vts_reward_expectancy_bt,2022.2.4,Win32,60.27727547,Chrome,1280,720,,,l,1.351400001,10,272,1,0,10,10,6,1,0,0,1,0,1,0,0,0,hexagon,triangle,,,,,,,,,,,,,,,,,,,,,,,,,,,,,,,,,,,,,,,,,,,,,,,,,,,,,,
298213,2022-12-04_17h01.45.084,vts_reward_expectancy_bt,2022.2.4,Win32,60.27727547,Chrome,1280,720,,,a,0.4937,1,273,1,0,11,11,3,1,0,1,0,0,1,0,0,0,circle,triangle,,,,,,,,,,,,,,,,,,,,,,,,,,,,,,,,,,,,,,,,,,,,,,,,,,,,,,
298213,2022-12-04_17h01.45.084,vts_reward_expectancy_bt,2022.2.4,Win32,60.27727547,Chrome,1280,720,,,l,0.568099999,10,283,1,1,0,12,6,1,0,0,1,0,1,0,0,0,hexagon,triangle,,,,,,,,,,,,,,,,,,,,,,,,,,,,,,,,,,,,,,,,,,,,,,,,,,,,,,
298213,2022-12-04_17h01.45.084,vts_reward_expectancy_bt,2022.2.4,Win32,60.27727547,Chrome,1280,720,,,a,0.516,10,293,1,1,1,13,10,1,0,0,0,1,0,1,0,0,star ,circle,,,,,,,,,,,,,,,,,,,,,,,,,,,,,,,,,,,,,,,,,,,,,,,,,,,,,,
298213,2022-12-04_17h01.45.084,vts_reward_expectancy_bt,2022.2.4,Win32,60.27727547,Chrome,1280,720,,,l,0.3506,1,294,1,1,2,14,7,1,0,0,1,0,0,1,0,0,hexagon,circle,,,,,,,,,,,,,,,,,,,,,,,,,,,,,,,,,,,,,,,,,,,,,,,,,,,,,,
298213,2022-12-04_17h01.45.084,vts_reward_expectancy_bt,2022.2.4,Win32,60.27727547,Chrome,1280,720,,,l,0.62,10,304,1,1,3,15,2,1,1,0,0,0,0,0,0,1,triangle,star,,,,,,,,,,,,,,,,,,,,,,,,,,,,,,,,,,,,,,,,,,,,,,,,,,,,,,
298213,2022-12-04_17h01.45.084,vts_reward_expectancy_bt,2022.2.4,Win32,60.27727547,Chrome,1280,720,,,l,1.3695,10,314,1,1,4,16,8,1,0,0,1,0,0,0,0,1,hexagon,star,,,,,,,,,,,,,,,,,,,,,,,,,,,,,,,,,,,,,,,,,,,,,,,,,,,,,,
298213,2022-12-04_17h01.45.084,vts_reward_expectancy_bt,2022.2.4,Win32,60.27727547,Chrome,1280,720,,,a,1.1175,10,324,1,1,5,17,11,1,0,0,0,1,0,0,1,0,star,hexagon,,,,,,,,,,,,,,,,,,,,,,,,,,,,,,,,,,,,,,,,,,,,,,,,,,,,,,
298213,2022-12-04_17h01.45.084,vts_reward_expectancy_bt,2022.2.4,Win32,60.27727547,Chrome,1280,720,,,l,0.517,10,334,1,1,6,18,5,1,0,1,0,0,0,0,0,1,circle,star,,,,,,,,,,,,,,,,,,,,,,,,,,,,,,,,,,,,,,,,,,,,,,,,,,,,,,
298213,2022-12-04_17h01.45.084,vts_reward_expectancy_bt,2022.2.4,Win32,60.27727547,Chrome,1280,720,,,a,0.6684,10,344,1,1,7,19,9,1,0,0,0,1,1,0,0,0,star,triangle,,,,,,,,,,,,,,,,,,,,,,,,,,,,,,,,,,,,,,,,,,,,,,,,,,,,,,
298213,2022-12-04_17h01.45.084,vts_reward_expectancy_bt,2022.2.4,Win32,60.27727547,Chrome,1280,720,,,l,1.7507,10,354,1,1,8,20,0,1,1,0,0,0,0,1,0,0,triangle,circle,,,,,,,,,,,,,,,,,,,,,,,,,,,,,,,,,,,,,,,,,,,,,,,,,,,,,,
298213,2022-12-04_17h01.45.084,vts_reward_expectancy_bt,2022.2.4,Win32,60.27727547,Chrome,1280,720,,,l,1.2695,1,355,1,1,9,21,1,1,1,0,0,0,0,0,1,0,triangle,hexagon,,,,,,,,,,,,,,,,,,,,,,,,,,,,,,,,,,,,,,,,,,,,,,,,,,,,,,
298213,2022-12-04_17h01.45.084,vts_reward_expectancy_bt,2022.2.4,Win32,60.27727547,Chrome,1280,720,,,l,1.351099999,10,365,1,1,10,22,3,1,0,1,0,0,1,0,0,0,circle,triangle,,,,,,,,,,,,,,,,,,,,,,,,,,,,,,,,,,,,,,,,,,,,,,,,,,,,,,
298213,2022-12-04_17h01.45.084,vts_reward_expectancy_bt,2022.2.4,Win32,60.27727547,Chrome,1280,720,,,a,11.9028,10,375,1,1,11,23,4,1,0,1,0,0,0,0,1,0,circle,hexagon,,,,,,,,,,,,,,,,,,,,,,,,,,,,,,,,,,,,,,,,,,,,,,,,,,,,,,
298213,2022-12-04_17h01.45.084,vts_reward_expectancy_bt,2022.2.4,Win32,60.27727547,Chrome,1280,720,,,l,1.3531,10,385,1,2,0,24,6,1,0,0,1,0,1,0,0,0,hexagon,triangle,,,,,,,,,,,,,,,,,,,,,,,,,,,,,,,,,,,,,,,,,,,,,,,,,,,,,,
298213,2022-12-04_17h01.45.084,vts_reward_expectancy_bt,2022.2.4,Win32,60.27727547,Chrome,1280,720,,,l,1.083099999,10,395,1,2,1,25,8,1,0,0,1,0,0,0,0,1,hexagon,star,,,,,,,,,,,,,,,,,,,,,,,,,,,,,,,,,,,,,,,,,,,,,,,,,,,,,,
298213,2022-12-04_17h01.45.084,vts_reward_expectancy_bt,2022.2.4,Win32,60.27727547,Chrome,1280,720,,,a,0.584,10,405,1,2,2,26,9,1,0,0,0,1,1,0,0,0,star,triangle,,,,,,,,,,,,,,,,,,,,,,,,,,,,,,,,,,,,,,,,,,,,,,,,,,,,,,
298213,2022-12-04_17h01.45.084,vts_reward_expectancy_bt,2022.2.4,Win32,60.27727547,Chrome,1280,720,,,a,1.2011,10,415,1,2,3,27,1,1,1,0,0,0,0,0,1,0,triangle,hexagon,,,,,,,,,,,,,,,,,,,,,,,,,,,,,,,,,,,,,,,,,,,,,,,,,,,,,,
298213,2022-12-04_17h01.45.084,vts_reward_expectancy_bt,2022.2.4,Win32,60.27727547,Chrome,1280,720,,,a,1.4165,1,416,1,2,4,28,3,1,0,1,0,0,1,0,0,0,circle,triangle,,,,,,,,,,,,,,,,,,,,,,,,,,,,,,,,,,,,,,,,,,,,,,,,,,,,,,
298213,2022-12-04_17h01.45.084,vts_reward_expectancy_bt,2022.2.4,Win32,60.27727547,Chrome,1280,720,,,l,1.552,10,426,1,2,5,29,7,1,0,0,1,0,0,1,0,0,hexagon,circle,,,,,,,,,,,,,,,,,,,,,,,,,,,,,,,,,,,,,,,,,,,,,,,,,,,,,,
298213,2022-12-04_17h01.45.084,vts_reward_expectancy_bt,2022.2.4,Win32,60.27727547,Chrome,1280,720,,,a,0.6348,10,436,1,2,6,30,11,1,0,0,0,1,0,0,1,0,star,hexagon,,,,,,,,,,,,,,,,,,,,,,,,,,,,,,,,,,,,,,,,,,,,,,,,,,,,,,
298213,2022-12-04_17h01.45.084,vts_reward_expectancy_bt,2022.2.4,Win32,60.27727547,Chrome,1280,720,,,l,0.653400001,1,437,1,2,7,31,5,1,0,1,0,0,0,0,0,1,circle,star,,,,,,,,,,,,,,,,,,,,,,,,,,,,,,,,,,,,,,,,,,,,,,,,,,,,,,
298213,2022-12-04_17h01.45.084,vts_reward_expectancy_bt,2022.2.4,Win32,60.27727547,Chrome,1280,720,,,l,6.4006,1,438,1,2,8,32,0,1,1,0,0,0,0,1,0,0,triangle,circle,,,,,,,,,,,,,,,,,,,,,,,,,,,,,,,,,,,,,,,,,,,,,,,,,,,,,,
298213,2022-12-04_17h01.45.084,vts_reward_expectancy_bt,2022.2.4,Win32,60.27727547,Chrome,1280,720,,,l,0.660900001,1,439,1,2,9,33,2,1,1,0,0,0,0,0,0,1,triangle,star,,,,,,,,,,,,,,,,,,,,,,,,,,,,,,,,,,,,,,,,,,,,,,,,,,,,,,
298213,2022-12-04_17h01.45.084,vts_reward_expectancy_bt,2022.2.4,Win32,60.27727547,Chrome,1280,720,,,a,1.2051,1,440,1,2,10,34,4,1,0,1,0,0,0,0,1,0,circle,hexagon,,,,,,,,,,,,,,,,,,,,,,,,,,,,,,,,,,,,,,,,,,,,,,,,,,,,,,
298213,2022-12-04_17h01.45.084,vts_reward_expectancy_bt,2022.2.4,Win32,60.27727547,Chrome,1280,720,,,a,0.800200001,1,441,1,2,11,35,10,1,0,0,0,1,0,1,0,0,star ,circle,,,,,,,,,,,,,,,,,,,,,,,,,,,,,,,,,,,,,,,,,,,,,,,,,,,,,,
298213,2022-12-04_17h01.45.084,vts_reward_expectancy_bt,2022.2.4,Win32,60.27727547,Chrome,1280,720,,,a,0.9775,1,442,2,0,0,0,10,1,0,0,0,1,0,1,0,0,star ,circle,,,,,,,,,,,,,,,,,,,,,,,,,,,,,,,,,,,,,,,,,,,,,,,,,,,,,,
298213,2022-12-04_17h01.45.084,vts_reward_expectancy_bt,2022.2.4,Win32,60.27727547,Chrome,1280,720,,,l,1.151599999,10,452,2,0,1,1,7,1,0,0,1,0,0,1,0,0,hexagon,circle,,,,,,,,,,,,,,,,,,,,,,,,,,,,,,,,,,,,,,,,,,,,,,,,,,,,,,
298213,2022-12-04_17h01.45.084,vts_reward_expectancy_bt,2022.2.4,Win32,60.27727547,Chrome,1280,720,,,l,0.866900001,10,462,2,0,2,2,6,1,0,0,1,0,1,0,0,0,hexagon,triangle,,,,,,,,,,,,,,,,,,,,,,,,,,,,,,,,,,,,,,,,,,,,,,,,,,,,,,
298213,2022-12-04_17h01.45.084,vts_reward_expectancy_bt,2022.2.4,Win32,60.27727547,Chrome,1280,720,,,a,5.8004,1,463,2,0,3,3,0,1,1,0,0,0,0,1,0,0,triangle,circle,,,,,,,,,,,,,,,,,,,,,,,,,,,,,,,,,,,,,,,,,,,,,,,,,,,,,,
298213,2022-12-04_17h01.45.084,vts_reward_expectancy_bt,2022.2.4,Win32,60.27727547,Chrome,1280,720,,,a,1.467400001,10,473,2,0,4,4,9,1,0,0,0,1,1,0,0,0,star,triangle,,,,,,,,,,,,,,,,,,,,,,,,,,,,,,,,,,,,,,,,,,,,,,,,,,,,,,
298213,2022-12-04_17h01.45.084,vts_reward_expectancy_bt,2022.2.4,Win32,60.27727547,Chrome,1280,720,,,l,0.6425,10,483,2,0,5,5,8,1,0,0,1,0,0,0,0,1,hexagon,star,,,,,,,,,,,,,,,,,,,,,,,,,,,,,,,,,,,,,,,,,,,,,,,,,,,,,,
298213,2022-12-04_17h01.45.084,vts_reward_expectancy_bt,2022.2.4,Win32,60.27727547,Chrome,1280,720,,,a,0.6702,10,493,2,0,6,6,11,1,0,0,0,1,0,0,1,0,star,hexagon,,,,,,,,,,,,,,,,,,,,,,,,,,,,,,,,,,,,,,,,,,,,,,,,,,,,,,
298213,2022-12-04_17h01.45.084,vts_reward_expectancy_bt,2022.2.4,Win32,60.27727547,Chrome,1280,720,,,a,0.784799999,1,494,2,0,7,7,3,1,0,1,0,0,1,0,0,0,circle,triangle,,,,,,,,,,,,,,,,,,,,,,,,,,,,,,,,,,,,,,,,,,,,,,,,,,,,,,
298213,2022-12-04_17h01.45.084,vts_reward_expectancy_bt,2022.2.4,Win32,60.27727547,Chrome,1280,720,,,l,0.5858,1,495,2,0,8,8,5,1,0,1,0,0,0,0,0,1,circle,star,,,,,,,,,,,,,,,,,,,,,,,,,,,,,,,,,,,,,,,,,,,,,,,,,,,,,,
298213,2022-12-04_17h01.45.084,vts_reward_expectancy_bt,2022.2.4,Win32,60.27727547,Chrome,1280,720,,,a,0.3442,10,505,2,0,9,9,4,1,0,1,0,0,0,0,1,0,circle,hexagon,,,,,,,,,,,,,,,,,,,,,,,,,,,,,,,,,,,,,,,,,,,,,,,,,,,,,,
298213,2022-12-04_17h01.45.084,vts_reward_expectancy_bt,2022.2.4,Win32,60.27727547,Chrome,1280,720,,,l,0.407900001,1,506,2,0,10,10,1,1,1,0,0,0,0,0,1,0,triangle,hexagon,,,,,,,,,,,,,,,,,,,,,,,,,,,,,,,,,,,,,,,,,,,,,,,,,,,,,,
298213,2022-12-04_17h01.45.084,vts_reward_expectancy_bt,2022.2.4,Win32,60.27727547,Chrome,1280,720,,,a,0.5518,10,516,2,0,11,11,2,1,1,0,0,0,0,0,0,1,triangle,star,,,,,,,,,,,,,,,,,,,,,,,,,,,,,,,,,,,,,,,,,,,,,,,,,,,,,,
298213,2022-12-04_17h01.45.084,vts_reward_expectancy_bt,2022.2.4,Win32,60.27727547,Chrome,1280,720,,,a,0.0845,10,526,2,1,0,12,0,1,1,0,0,0,0,1,0,0,triangle,circle,,,,,,,,,,,,,,,,,,,,,,,,,,,,,,,,,,,,,,,,,,,,,,,,,,,,,,
298213,2022-12-04_17h01.45.084,vts_reward_expectancy_bt,2022.2.4,Win32,60.27727547,Chrome,1280,720,,,a,0.0854,10,536,2,1,1,13,2,1,1,0,0,0,0,0,0,1,triangle,star,,,,,,,,,,,,,,,,,,,,,,,,,,,,,,,,,,,,,,,,,,,,,,,,,,,,,,
298213,2022-12-04_17h01.45.084,vts_reward_expectancy_bt,2022.2.4,Win32,60.27727547,Chrome,1280,720,,,l,0.2509,10,546,2,1,2,14,9,1,0,0,0,1,1,0,0,0,star,triangle,,,,,,,,,,,,,,,,,,,,,,,,,,,,,,,,,,,,,,,,,,,,,,,,,,,,,,
298213,2022-12-04_17h01.45.084,vts_reward_expectancy_bt,2022.2.4,Win32,60.27727547,Chrome,1280,720,,,l,0.2337,10,556,2,1,3,15,3,1,0,1,0,0,1,0,0,0,circle,triangle,,,,,,,,,,,,,,,,,,,,,,,,,,,,,,,,,,,,,,,,,,,,,,,,,,,,,,
298213,2022-12-04_17h01.45.084,vts_reward_expectancy_bt,2022.2.4,Win32,60.27727547,Chrome,1280,720,,,a,0.1187,10,566,2,1,4,16,1,1,1,0,0,0,0,0,1,0,triangle,hexagon,,,,,,,,,,,,,,,,,,,,,,,,,,,,,,,,,,,,,,,,,,,,,,,,,,,,,,
298213,2022-12-04_17h01.45.084,vts_reward_expectancy_bt,2022.2.4,Win32,60.27727547,Chrome,1280,720,,,l,0.024700001,1,567,2,1,5,17,7,1,0,0,1,0,0,1,0,0,hexagon,circle,,,,,,,,,,,,,,,,,,,,,,,,,,,,,,,,,,,,,,,,,,,,,,,,,,,,,,
298213,2022-12-04_17h01.45.084,vts_reward_expectancy_bt,2022.2.4,Win32,60.27727547,Chrome,1280,720,,,l,0.5828,1,568,2,1,6,18,4,1,0,1,0,0,0,0,1,0,circle,hexagon,,,,,,,,,,,,,,,,,,,,,,,,,,,,,,,,,,,,,,,,,,,,,,,,,,,,,,
298213,2022-12-04_17h01.45.084,vts_reward_expectancy_bt,2022.2.4,Win32,60.27727547,Chrome,1280,720,,,l,0.4352,1,569,2,1,7,19,11,1,0,0,0,1,0,0,1,0,star,hexagon,,,,,,,,,,,,,,,,,,,,,,,,,,,,,,,,,,,,,,,,,,,,,,,,,,,,,,
298213,2022-12-04_17h01.45.084,vts_reward_expectancy_bt,2022.2.4,Win32,60.27727547,Chrome,1280,720,,,l,0.3336,10,579,2,1,8,20,5,1,0,1,0,0,0,0,0,1,circle,star,,,,,,,,,,,,,,,,,,,,,,,,,,,,,,,,,,,,,,,,,,,,,,,,,,,,,,
298213,2022-12-04_17h01.45.084,vts_reward_expectancy_bt,2022.2.4,Win32,60.27727547,Chrome,1280,720,,,l,0.0962,10,589,2,1,9,21,6,1,0,0,1,0,1,0,0,0,hexagon,triangle,,,,,,,,,,,,,,,,,,,,,,,,,,,,,,,,,,,,,,,,,,,,,,,,,,,,,,
298213,2022-12-04_17h01.45.084,vts_reward_expectancy_bt,2022.2.4,Win32,60.27727547,Chrome,1280,720,,,l,0.6338,1,590,2,1,10,22,8,1,0,0,1,0,0,0,0,1,hexagon,star,,,,,,,,,,,,,,,,,,,,,,,,,,,,,,,,,,,,,,,,,,,,,,,,,,,,,,
298213,2022-12-04_17h01.45.084,vts_reward_expectancy_bt,2022.2.4,Win32,60.27727547,Chrome,1280,720,,,l,0.047299999,1,591,2,1,11,23,10,1,0,0,0,1,0,1,0,0,star ,circle,,,,,,,,,,,,,,,,,,,,,,,,,,,,,,,,,,,,,,,,,,,,,,,,,,,,,,
298213,2022-12-04_17h01.45.084,vts_reward_expectancy_bt,2022.2.4,Win32,60.27727547,Chrome,1280,720,,,a,0.5511,1,592,2,2,0,24,10,1,0,0,0,1,0,1,0,0,star ,circle,,,,,,,,,,,,,,,,,,,,,,,,,,,,,,,,,,,,,,,,,,,,,,,,,,,,,,
298213,2022-12-04_17h01.45.084,vts_reward_expectancy_bt,2022.2.4,Win32,60.27727547,Chrome,1280,720,,,l,0.3846,10,602,2,2,1,25,5,1,0,1,0,0,0,0,0,1,circle,star,,,,,,,,,,,,,,,,,,,,,,,,,,,,,,,,,,,,,,,,,,,,,,,,,,,,,,
298213,2022-12-04_17h01.45.084,vts_reward_expectancy_bt,2022.2.4,Win32,60.27727547,Chrome,1280,720,,,l,1.1349,1,603,2,2,2,26,4,1,0,1,0,0,0,0,1,0,circle,hexagon,,,,,,,,,,,,,,,,,,,,,,,,,,,,,,,,,,,,,,,,,,,,,,,,,,,,,,
298213,2022-12-04_17h01.45.084,vts_reward_expectancy_bt,2022.2.4,Win32,60.27727547,Chrome,1280,720,,,a,0.5332,1,604,2,2,3,27,7,1,0,0,1,0,0,1,0,0,hexagon,circle,,,,,,,,,,,,,,,,,,,,,,,,,,,,,,,,,,,,,,,,,,,,,,,,,,,,,,
298213,2022-12-04_17h01.45.084,vts_reward_expectancy_bt,2022.2.4,Win32,60.27727547,Chrome,1280,720,,,l,0.600900001,1,605,2,2,4,28,11,1,0,0,0,1,0,0,1,0,star,hexagon,,,,,,,,,,,,,,,,,,,,,,,,,,,,,,,,,,,,,,,,,,,,,,,,,,,,,,
298213,2022-12-04_17h01.45.084,vts_reward_expectancy_bt,2022.2.4,Win32,60.27727547,Chrome,1280,720,,,a,0.567,10,615,2,2,5,29,3,1,0,1,0,0,1,0,0,0,circle,triangle,,,,,,,,,,,,,,,,,,,,,,,,,,,,,,,,,,,,,,,,,,,,,,,,,,,,,,
298213,2022-12-04_17h01.45.084,vts_reward_expectancy_bt,2022.2.4,Win32,60.27727547,Chrome,1280,720,,,l,0.198400001,10,625,2,2,6,30,2,1,1,0,0,0,0,0,0,1,triangle,star,,,,,,,,,,,,,,,,,,,,,,,,,,,,,,,,,,,,,,,,,,,,,,,,,,,,,,
298213,2022-12-04_17h01.45.084,vts_reward_expectancy_bt,2022.2.4,Win32,60.27727547,Chrome,1280,720,,,l,0.456,10,635,2,2,7,31,8,1,0,0,1,0,0,0,0,1,hexagon,star,,,,,,,,,,,,,,,,,,,,,,,,,,,,,,,,,,,,,,,,,,,,,,,,,,,,,,
298213,2022-12-04_17h01.45.084,vts_reward_expectancy_bt,2022.2.4,Win32,60.27727547,Chrome,1280,720,,,l,0.5566,1,636,2,2,8,32,0,1,1,0,0,0,0,1,0,0,triangle,circle,,,,,,,,,,,,,,,,,,,,,,,,,,,,,,,,,,,,,,,,,,,,,,,,,,,,,,
298213,2022-12-04_17h01.45.084,vts_reward_expectancy_bt,2022.2.4,Win32,60.27727547,Chrome,1280,720,,,a,0.431,10,646,2,2,9,33,9,1,0,0,0,1,1,0,0,0,star,triangle,,,,,,,,,,,,,,,,,,,,,,,,,,,,,,,,,,,,,,,,,,,,,,,,,,,,,,
298213,2022-12-04_17h01.45.084,vts_reward_expectancy_bt,2022.2.4,Win32,60.27727547,Chrome,1280,720,,,l,0.4373,10,656,2,2,10,34,6,1,0,0,1,0,1,0,0,0,hexagon,triangle,,,,,,,,,,,,,,,,,,,,,,,,,,,,,,,,,,,,,,,,,,,,,,,,,,,,,,
298213,2022-12-04_17h01.45.084,vts_reward_expectancy_bt,2022.2.4,Win32,60.27727547,Chrome,1280,720,,,a,0.1058,1,657,2,2,11,35,1,1,1,0,0,0,0,0,1,0,triangle,hexagon,,,,,,,,,,,,,,,,,,,,,,,,,,,,,,,,,,,,,,,,,,,,,,,,,,,,,,
298213,2022-12-04_17h01.45.084,vts_reward_expectancy_bt,2022.2.4,Win32,60.27727547,Chrome,1280,720,,,,,,,,,,,,,,,,,,,,,,,167,U,circle,1,0,f,1.611700001,0,0,0,0,0,1,,,,,,,,,,,,,,,,,,,,,,,,,,,,,,,,,,,,,,,,,
298213,2022-12-04_17h01.45.084,vts_reward_expectancy_bt,2022.2.4,Win32,60.27727547,Chrome,1280,720,,,,,,,,,,,,,,,,,,,,,,,160,F,star,1,0,f,1.564,0,1,0,1,0,1,,,,,,,,,,,,,,,,,,,,,,,,,,,,,,,,,,,,,,,,,
298213,2022-12-04_17h01.45.084,vts_reward_expectancy_bt,2022.2.4,Win32,60.27727547,Chrome,1280,720,,,,,,,,,,,,,,,,,,,,,,,174,D,hexagon,1,0,f,0.6092,0,2,0,2,0,1,,,,,,,,,,,,,,,,,,,,,,,,,,,,,,,,,,,,,,,,,
298213,2022-12-04_17h01.45.084,vts_reward_expectancy_bt,2022.2.4,Win32,60.27727547,Chrome,1280,720,,,,,,,,,,,,,,,,,,,,,,,146,H,triangle,1,0,d,0.584,0,3,0,3,0,1,,,,,,,,,,,,,,,,,,,,,,,,,,,,,,,,,,,,,,,,,
298213,2022-12-04_17h01.45.084,vts_reward_expectancy_bt,2022.2.4,Win32,60.27727547,Chrome,1280,720,,,,,,,,,,,,,,,,,,,,,,,132,S,circle,1,0,d,0.6196,0,4,0,4,0,1,,,,,,,,,,,,,,,,,,,,,,,,,,,,,,,,,,,,,,,,,
298213,2022-12-04_17h01.45.084,vts_reward_expectancy_bt,2022.2.4,Win32,60.27727547,Chrome,1280,720,,,,,,,,,,,,,,,,,,,,,,,181,B,star,1,0,f,0.6843,0,5,0,5,0,1,,,,,,,,,,,,,,,,,,,,,,,,,,,,,,,,,,,,,,,,,
298213,2022-12-04_17h01.45.084,vts_reward_expectancy_bt,2022.2.4,Win32,60.27727547,Chrome,1280,720,,,,,,,,,,,,,,,,,,,,,,,125,W,hexagon,1,0,d,0.5684,0,6,0,6,0,1,,,,,,,,,,,,,,,,,,,,,,,,,,,,,,,,,,,,,,,,,
298213,2022-12-04_17h01.45.084,vts_reward_expectancy_bt,2022.2.4,Win32,60.27727547,Chrome,1280,720,,,,,,,,,,,,,,,,,,,,,,,139,Y,triangle,1,0,d,0.458599999,0,7,0,7,0,1,,,,,,,,,,,,,,,,,,,,,,,,,,,,,,,,,,,,,,,,,
298213,2022-12-04_17h01.45.084,vts_reward_expectancy_bt,2022.2.4,Win32,60.27727547,Chrome,1280,720,,,,,,,,,,,,,,,,,,,,,,,167,U,circle,1,0,f,0.568400001,0,8,0,8,0,1,,,,,,,,,,,,,,,,,,,,,,,,,,,,,,,,,,,,,,,,,
298213,2022-12-04_17h01.45.084,vts_reward_expectancy_bt,2022.2.4,Win32,60.27727547,Chrome,1280,720,,,,,,,,,,,,,,,,,,,,,,,160,F,star,1,0,f,0.492900001,0,9,0,9,0,1,,,,,,,,,,,,,,,,,,,,,,,,,,,,,,,,,,,,,,,,,
298213,2022-12-04_17h01.45.084,vts_reward_expectancy_bt,2022.2.4,Win32,60.27727547,Chrome,1280,720,,,,,,,,,,,,,,,,,,,,,,,132,W,star,1,0,,,1,,,,,,k,0.8842,0,0,0,0,1,,,,,,,,,,,,,,,,,,,,,,,,,,,,,,,,,,
298213,2022-12-04_17h01.45.084,vts_reward_expectancy_bt,2022.2.4,Win32,60.27727547,Chrome,1280,720,,,,,,,,,,,,,,,,,,,,,,,160,S,triangle,1,0,,,1,,,,,,k,0.8177,1,0,1,0,1,,,,,,,,,,,,,,,,,,,,,,,,,,,,,,,,,,
298213,2022-12-04_17h01.45.084,vts_reward_expectancy_bt,2022.2.4,Win32,60.27727547,Chrome,1280,720,,,,,,,,,,,,,,,,,,,,,,,181,U,hexagon,1,0,,,1,,,,,,k,0.6241,2,0,2,0,1,,,,,,,,,,,,,,,,,,,,,,,,,,,,,,,,,,
298213,2022-12-04_17h01.45.084,vts_reward_expectancy_bt,2022.2.4,Win32,60.27727547,Chrome,1280,720,,,,,,,,,,,,,,,,,,,,,,,139,F,circle,1,0,,,1,,,,,,j,0.8344,3,0,3,0,1,,,,,,,,,,,,,,,,,,,,,,,,,,,,,,,,,,
298213,2022-12-04_17h01.45.084,vts_reward_expectancy_bt,2022.2.4,Win32,60.27727547,Chrome,1280,720,,,,,,,,,,,,,,,,,,,,,,,167,D,star,1,0,,,1,,,,,,j,0.5902,4,0,4,0,1,,,,,,,,,,,,,,,,,,,,,,,,,,,,,,,,,,
298213,2022-12-04_17h01.45.084,vts_reward_expectancy_bt,2022.2.4,Win32,60.27727547,Chrome,1280,720,,,,,,,,,,,,,,,,,,,,,,,174,Y,triangle,1,0,,,1,,,,,,k,0.6007,5,0,5,0,1,,,,,,,,,,,,,,,,,,,,,,,,,,,,,,,,,,
298213,2022-12-04_17h01.45.084,vts_reward_expectancy_bt,2022.2.4,Win32,60.27727547,Chrome,1280,720,,,,,,,,,,,,,,,,,,,,,,,125,H,hexagon,1,0,,,1,,,,,,j,0.864,6,0,6,0,1,,,,,,,,,,,,,,,,,,,,,,,,,,,,,,,,,,
298213,2022-12-04_17h01.45.084,vts_reward_expectancy_bt,2022.2.4,Win32,60.27727547,Chrome,1280,720,,,,,,,,,,,,,,,,,,,,,,,146,B,circle,1,0,,,1,,,,,,j,0.5802,7,0,7,0,1,,,,,,,,,,,,,,,,,,,,,,,,,,,,,,,,,,
298213,2022-12-04_17h01.45.084,vts_reward_expectancy_bt,2022.2.4,Win32,60.27727547,Chrome,1280,720,,,,,,,,,,,,,,,,,,,,,,,132,W,hexagon,1,0,,,1,,,,,,k,0.6292,8,0,8,0,1,,,,,,,,,,,,,,,,,,,,,,,,,,,,,,,,,,
298213,2022-12-04_17h01.45.084,vts_reward_expectancy_bt,2022.2.4,Win32,60.27727547,Chrome,1280,720,,,,,,,,,,,,,,,,,,,,,,,160,S,star,1,0,,,1,,,,,,k,0.9117,9,0,9,0,1,,,,,,,,,,,,,,,,,,,,,,,,,,,,,,,,,,
298213,2022-12-04_17h01.45.084,vts_reward_expectancy_bt,2022.2.4,Win32,60.27727547,Chrome,1280,720,,,,,0,657,,,,,,,,,,,,,,,,,146,F,star,1,0,,,2,,,,,,,,,,,,,-1,number,NA,d,1.4287,vtsPrac,0,0,0,0,1,,,,,,,,,,,,,,,,,,,,,,,
298213,2022-12-04_17h01.45.084,vts_reward_expectancy_bt,2022.2.4,Win32,60.27727547,Chrome,1280,720,,,,,0,657,,,,,,,,,,,,,,,,,125,S,hexagon,1,0,,,2,,,,,,,,,,,,,switch,letter,lettSwt,k,2.792200001,vtsPrac,1,0,1,0,1,,,,,,,,,,,,,,,,,,,,,,,
298213,2022-12-04_17h01.45.084,vts_reward_expectancy_bt,2022.2.4,Win32,60.27727547,Chrome,1280,720,,,,,0,657,,,,,,,,,,,,,,,,,132,B,star,1,0,,,2,,,,,,,,,,,,,repeat,letter,lettRpt,j,0.6343,vtsPrac,2,0,2,0,1,,,,,,,,,,,,,,,,,,,,,,,
298213,2022-12-04_17h01.45.084,vts_reward_expectancy_bt,2022.2.4,Win32,60.27727547,Chrome,1280,720,,,,,0,657,,,,,,,,,,,,,,,,,181,H,hexagon,1,0,,,2,,,,,,,,,,,,,repeat,letter,lettRpt,j,1.434900001,vtsPrac,3,0,3,0,1,,,,,,,,,,,,,,,,,,,,,,,
298213,2022-12-04_17h01.45.084,vts_reward_expectancy_bt,2022.2.4,Win32,60.27727547,Chrome,1280,720,,,,,0,657,,,,,,,,,,,,,,,,,146,F,hexagon,1,0,,,2,,,,,,,,,,,,,repeat,letter,lettRpt,j,0.918,vtsPrac,4,0,4,0,1,,,,,,,,,,,,,,,,,,,,,,,
298213,2022-12-04_17h01.45.084,vts_reward_expectancy_bt,2022.2.4,Win32,60.27727547,Chrome,1280,720,,,,,0,657,,,,,,,,,,,,,,,,,125,S,circle,1,0,,,2,,,,,,,,,,,,,switch,number,numSwt,d,1.184099999,vtsPrac,5,0,5,0,1,,,,,,,,,,,,,,,,,,,,,,,
298213,2022-12-04_17h01.45.084,vts_reward_expectancy_bt,2022.2.4,Win32,60.27727547,Chrome,1280,720,,,,,0,657,,,,,,,,,,,,,,,,,132,B,star,1,0,,,2,,,,,,,,,,,,,repeat,number,numRpt,d,0.5509,vtsPrac,6,0,6,0,1,,,,,,,,,,,,,,,,,,,,,,,
298213,2022-12-04_17h01.45.084,vts_reward_expectancy_bt,2022.2.4,Win32,60.27727547,Chrome,1280,720,,,,,0,657,,,,,,,,,,,,,,,,,181,H,hexagon,1,0,,,2,,,,,,,,,,,,,switch,letter,lettSwt,j,0.8674,vtsPrac,7,0,7,0,1,,,,,,,,,,,,,,,,,,,,,,,
298213,2022-12-04_17h01.45.084,vts_reward_expectancy_bt,2022.2.4,Win32,60.27727547,Chrome,1280,720,,,,,0,657,,,,,,,,,,,,,,,,,146,H,hexagon,1,0,,,2,,,,,,,,,,,,,switch,number,numSwt,d,0.751400001,vtsPrac,8,0,8,0,1,,,,,,,,,,,,,,,,,,,,,,,
298213,2022-12-04_17h01.45.084,vts_reward_expectancy_bt,2022.2.4,Win32,60.27727547,Chrome,1280,720,,,,,0,657,,,,,,,,,,,,,,,,,181,W,triangle,1,0,,,2,,,,,,,,,,,,,switch,letter,lettSwt,k,0.5607,vtsPrac,9,0,9,0,1,,,,,,,,,,,,,,,,,,,,,,,
298213,2022-12-04_17h01.45.084,vts_reward_expectancy_bt,2022.2.4,Win32,60.27727547,Chrome,1280,720,,,,,0,657,,,,,,,,,,,,,,,,,160,Y,star,1,0,,,2,,,,,,,,,,,,,repeat,letter,lettRpt,k,0.642900001,vtsPrac,10,0,10,0,1,,,,,,,,,,,,,,,,,,,,,,,
298213,2022-12-04_17h01.45.084,vts_reward_expectancy_bt,2022.2.4,Win32,60.27727547,Chrome,1280,720,,,,,0,657,,,,,,,,,,,,,,,,,174,S,circle,1,0,,,2,,,,,,,,,,,,,switch,number,numSwt,f,0.9461,vtsPrac,11,0,11,0,1,,,,,,,,,,,,,,,,,,,,,,,
298213,2022-12-04_17h01.45.084,vts_reward_expectancy_bt,2022.2.4,Win32,60.27727547,Chrome,1280,720,,,,,0,657,,,,,,,,,,,,,,,,,125,Y,star,1,0,,,2,,,,,,,,,,,,,repeat,number,numRpt,d,0.7322,vtsPrac,12,0,12,0,1,,,,,,,,,,,,,,,,,,,,,,,
298213,2022-12-04_17h01.45.084,vts_reward_expectancy_bt,2022.2.4,Win32,60.27727547,Chrome,1280,720,,,,,0,657,,,,,,,,,,,,,,,,,167,W,hexagon,1,0,,,2,,,,,,,,,,,,,switch,letter,lettSwt,k,0.5663,vtsPrac,13,0,13,0,1,,,,,,,,,,,,,,,,,,,,,,,
298213,2022-12-04_17h01.45.084,vts_reward_expectancy_bt,2022.2.4,Win32,60.27727547,Chrome,1280,720,,,,,0,657,,,,,,,,,,,,,,,,,132,S,triangle,1,0,,,2,,,,,,,,,,,,,switch,number,numSwt,d,0.6779,vtsPrac,14,0,14,0,1,,,,,,,,,,,,,,,,,,,,,,,
298213,2022-12-04_17h01.45.084,vts_reward_expectancy_bt,2022.2.4,Win32,60.27727547,Chrome,1280,720,,,,,0,657,,,,,,,,,,,,,,,,,160,F,hexagon,1,0,,,2,,,,,,,,,,,,,switch,letter,lettSwt,j,0.6778,vtsPrac,15,0,15,0,1,,,,,,,,,,,,,,,,,,,,,,,
298213,2022-12-04_17h01.45.084,vts_reward_expectancy_bt,2022.2.4,Win32,60.27727547,Chrome,1280,720,,,,,0,657,,,,,,,,,,,,,,,,,167,B,hexagon,1,0,,,2,,,,,,,,,,,,,repeat,letter,lettRpt,j,0.610599999,vtsPrac,16,0,16,0,1,,,,,,,,,,,,,,,,,,,,,,,
298213,2022-12-04_17h01.45.084,vts_reward_expectancy_bt,2022.2.4,Win32,60.27727547,Chrome,1280,720,,,,,0,657,,,,,,,,,,,,,,,,,174,H,triangle,1,0,,,2,,,,,,,,,,,,,repeat,letter,lettRpt,j,0.6601,vtsPrac,17,0,17,0,1,,,,,,,,,,,,,,,,,,,,,,,
298213,2022-12-04_17h01.45.084,vts_reward_expectancy_bt,2022.2.4,Win32,60.27727547,Chrome,1280,720,,,,,0,657,,,,,,,,,,,,,,,,,139,U,triangle,1,0,,,2,,,,,,,,,,,,,repeat,letter,lettRpt,k,0.619,vtsPrac,18,0,18,0,1,,,,,,,,,,,,,,,,,,,,,,,
298213,2022-12-04_17h01.45.084,vts_reward_expectancy_bt,2022.2.4,Win32,60.27727547,Chrome,1280,720,,,,,0,657,,,,,,,,,,,,,,,,,132,F,circle,1,0,,,2,,,,,,,,,,,,,switch,number,numSwt,d,0.61,vtsPrac,19,0,19,0,1,,,,,,,,,,,,,,,,,,,,,,,
298213,2022-12-04_17h01.45.084,vts_reward_expectancy_bt,2022.2.4,Win32,60.27727547,Chrome,1280,720,,,,,0,657,,,,,,,,,,,,,,,,,160,H,hexagon,1,0,,,2,,,,,,,,,,,,,switch,letter,lettSwt,j,1.0283,vtsPrac,20,0,20,0,1,,,,,,,,,,,,,,,,,,,,,,,
298213,2022-12-04_17h01.45.084,vts_reward_expectancy_bt,2022.2.4,Win32,60.27727547,Chrome,1280,720,,,,,0,657,,,,,,,,,,,,,,,,,125,Y,star,1,0,,,2,,,,,,,,,,,,,switch,number,numSwt,d,0.612400001,vtsPrac,21,0,21,0,1,,,,,,,,,,,,,,,,,,,,,,,
298213,2022-12-04_17h01.45.084,vts_reward_expectancy_bt,2022.2.4,Win32,60.27727547,Chrome,1280,720,,,,,0,657,,,,,,,,,,,,,,,,,167,U,hexagon,1,0,,,2,,,,,,,,,,,,,repeat,number,numRpt,f,0.534299999,vtsPrac,22,0,22,0,1,,,,,,,,,,,,,,,,,,,,,,,
298213,2022-12-04_17h01.45.084,vts_reward_expectancy_bt,2022.2.4,Win32,60.27727547,Chrome,1280,720,,,,,0,657,,,,,,,,,,,,,,,,,174,F,triangle,1,0,,,2,,,,,,,,,,,,,repeat,number,numRpt,f,0.6118,vtsPrac,23,0,23,0,1,,,,,,,,,,,,,,,,,,,,,,,
298213,2022-12-04_17h01.45.084,vts_reward_expectancy_bt,2022.2.4,Win32,60.27727547,Chrome,1280,720,,,,,0,657,,,,,,,,,,,,,,,,,146,D,hexagon,1,0,,,2,,,,,,,,,,,,,repeat,number,numRpt,d,0.7994,vtsPrac,24,0,24,0,1,,,,,,,,,,,,,,,,,,,,,,,
298213,2022-12-04_17h01.45.084,vts_reward_expectancy_bt,2022.2.4,Win32,60.27727547,Chrome,1280,720,,,,,0,657,,,,,,,,,,,,,,,,,125,H,star,1,0,,,2,,,,,,,,,,,,,switch,letter,lettSwt,j,0.6807,vtsPrac,25,0,25,0,1,,,,,,,,,,,,,,,,,,,,,,,
298213,2022-12-04_17h01.45.084,vts_reward_expectancy_bt,2022.2.4,Win32,60.27727547,Chrome,1280,720,,,,,0,657,,,,,,,,,,,,,,,,,139,Y,triangle,1,0,,,2,,,,,,,,,,,,,repeat,letter,lettRpt,k,0.6467,vtsPrac,26,0,26,0,1,,,,,,,,,,,,,,,,,,,,,,,
298213,2022-12-04_17h01.45.084,vts_reward_expectancy_bt,2022.2.4,Win32,60.27727547,Chrome,1280,720,,,,,0,657,,,,,,,,,,,,,,,,,174,S,circle,1,0,,,2,,,,,,,,,,,,,switch,number,numSwt,f,0.980400001,vtsPrac,27,0,27,0,1,,,,,,,,,,,,,,,,,,,,,,,
298213,2022-12-04_17h01.45.084,vts_reward_expectancy_bt,2022.2.4,Win32,60.27727547,Chrome,1280,720,,,,,0,657,,,,,,,,,,,,,,,,,139,Y,star,1,0,,,2,,,,,,,,,,,,,repeat,number,numRpt,d,0.666200001,vtsPrac,28,0,28,0,1,,,,,,,,,,,,,,,,,,,,,,,
298213,2022-12-04_17h01.45.084,vts_reward_expectancy_bt,2022.2.4,Win32,60.27727547,Chrome,1280,720,,,,,0,657,,,,,,,,,,,,,,,,,174,S,circle,1,0,,,2,,,,,,,,,,,,,switch,letter,lettSwt,k,1.3139,vtsPrac,29,0,29,0,1,,,,,,,,,,,,,,,,,,,,,,,
298213,2022-12-04_17h01.45.084,vts_reward_expectancy_bt,2022.2.4,Win32,60.27727547,Chrome,1280,720,,,,,0,657,,,,,,,,,,,,,,,,,167,D,hexagon,1,0,,,2,,,,,,,,,,,,,repeat,letter,lettRpt,j,0.9008,vtsPrac,30,0,30,0,1,,,,,,,,,,,,,,,,,,,,,,,
298213,2022-12-04_17h01.45.084,vts_reward_expectancy_bt,2022.2.4,Win32,60.27727547,Chrome,1280,720,,,,,0,657,,,,,,,,,,,,,,,,,146,F,triangle,1,0,,,2,,,,,,,,,,,,,switch,number,numSwt,d,1.2462,vtsPrac,31,0,31,0,1,,,,,,,,,,,,,,,,,,,,,,,
298213,2022-12-04_17h01.45.084,vts_reward_expectancy_bt,2022.2.4,Win32,60.27727547,Chrome,1280,720,,,,,,,,,,,,,,,,,,,,,,,,,,,,,,,,,,,,,,,,,,,,,,,,,,,,,,,,,,,,,,,,,,,,,,,,,,,,
298213,2022-12-04_17h01.45.084,vts_reward_expectancy_bt,2022.2.4,Win32,60.27727547,Chrome,1280,720,,,,,,,,,,,,,,,,,,,,,,,,,,,,,,,,,,,,,,,,,,,,,,,,,,,,,,,,,,,,,,,,,,,,,,,,,,,,
298213,2022-12-04_17h01.45.084,vts_reward_expectancy_bt,2022.2.4,Win32,60.27727547,Chrome,1280,720,,,,,0,657,,,,,,,,,,,,,,,,,181,H,triangle,0,0,,,,,,,,,,,,,,,,repeat,number,NA,d,2.565799999,noRew,,,,,,0,0,0,0,0,1,,,,,,,,,,,,,,,,,
298213,2022-12-04_17h01.45.084,vts_reward_expectancy_bt,2022.2.4,Win32,60.27727547,Chrome,1280,720,,,,,0,657,,,,,,,,,,,,,,,,,174,S,circle,-1,1,,,,,,,,,,,,,,,,switch,no_choice,NA,,,noRew,,,,,,0,1,0,1,0,1,,,,,,,,,,,,,,,,,
298213,2022-12-04_17h01.45.084,vts_reward_expectancy_bt,2022.2.4,Win32,60.27727547,Chrome,1280,720,,,,,0,657,,,,,,,,,,,,,,,,,132,W,triangle,0,0,,,,,,,,,,,,,,,,switch,letter,NA,j,1.8003,noRew,,,,,,0,2,0,2,0,1,,,,,,,,,,,,,,,,,
298213,2022-12-04_17h01.45.084,vts_reward_expectancy_bt,2022.2.4,Win32,60.27727547,Chrome,1280,720,,,,,0,657,,,,,,,,,,,,,,,,,160,U,circle,1,1,,,,,,,,,,,,,,,,repeat,letter,lettRpt,k,1.2145,noRew,,,,,,0,3,0,3,0,1,,,,,,,,,,,,,,,,,
298213,2022-12-04_17h01.45.084,vts_reward_expectancy_bt,2022.2.4,Win32,60.27727547,Chrome,1280,720,,,,,0,657,,,,,,,,,,,,,,,,,181,H,circle,1,0,,,,,,,,,,,,,,,,repeat,letter,lettRpt,j,0.6963,noRew,,,,,,0,4,0,4,0,1,,,,,,,,,,,,,,,,,
298213,2022-12-04_17h01.45.084,vts_reward_expectancy_bt,2022.2.4,Win32,60.27727547,Chrome,1280,720,,,,,0,657,,,,,,,,,,,,,,,,,174,S,hexagon,0,0,,,,,,,,,,,,,,,,switch,number,NA,d,2.016,noRew,,,,,,0,5,0,5,0,1,,,,,,,,,,,,,,,,,
298213,2022-12-04_17h01.45.084,vts_reward_expectancy_bt,2022.2.4,Win32,60.27727547,Chrome,1280,720,,,,,0,657,,,,,,,,,,,,,,,,,132,W,circle,1,1,,,,,,,,,,,,,,,,repeat,number,numRpt,d,1.0322,noRew,,,,,,0,6,0,6,0,1,,,,,,,,,,,,,,,,,
298213,2022-12-04_17h01.45.084,vts_reward_expectancy_bt,2022.2.4,Win32,60.27727547,Chrome,1280,720,,,,,0,657,,,,,,,,,,,,,,,,,160,U,hexagon,-1,0,,,,,,,,,,,,,,,,switch,no_choice,NA,,,noRew,,,,,,0,7,0,7,0,1,,,,,,,,,,,,,,,,,
298213,2022-12-04_17h01.45.084,vts_reward_expectancy_bt,2022.2.4,Win32,60.27727547,Chrome,1280,720,,,,,0,657,,,,,,,,,,,,,,,,,181,S,star,1,0,,,,,,,,,,,,,,,,switch,number,numSwt,f,2.3797,noRew,,,,,,0,8,0,8,0,1,,,,,,,,,,,,,,,,,
298213,2022-12-04_17h01.45.084,vts_reward_expectancy_bt,2022.2.4,Win32,60.27727547,Chrome,1280,720,,,,,0,657,,,,,,,,,,,,,,,,,160,D,triangle,1,0,,,,,,,,,,,,,,,,repeat,number,numRpt,f,1.3631,noRew,,,,,,0,9,0,9,0,1,,,,,,,,,,,,,,,,,
298213,2022-12-04_17h01.45.084,vts_reward_expectancy_bt,2022.2.4,Win32,60.27727547,Chrome,1280,720,,,,,0,657,,,,,,,,,,,,,,,,,125,W,triangle,1,0,,,,,,,,,,,,,,,,repeat,number,numRpt,d,1.1335,noRew,,,,,,0,10,0,10,0,1,,,,,,,,,,,,,,,,,
298213,2022-12-04_17h01.45.084,vts_reward_expectancy_bt,2022.2.4,Win32,60.27727547,Chrome,1280,720,,,,,0,657,,,,,,,,,,,,,,,,,174,U,star,1,0,,,,,,,,,,,,,,,,repeat,number,numRpt,f,0.6784,noRew,,,,,,0,11,0,11,0,1,,,,,,,,,,,,,,,,,
298213,2022-12-04_17h01.45.084,vts_reward_expectancy_bt,2022.2.4,Win32,60.27727547,Chrome,1280,720,,,,,0,657,,,,,,,,,,,,,,,,,174,F,triangle,1,0,,,,,,,,,,,,,,,,repeat,number,numRpt,f,0.7163,noRew,,,,,,0,12,0,12,0,1,,,,,,,,,,,,,,,,,
298213,2022-12-04_17h01.45.084,vts_reward_expectancy_bt,2022.2.4,Win32,60.27727547,Chrome,1280,720,,,,,0,657,,,,,,,,,,,,,,,,,146,U,circle,1,0,,,,,,,,,,,,,,,,repeat,number,numRpt,d,1.2155,noRew,,,,,,0,13,0,13,0,1,,,,,,,,,,,,,,,,,
298213,2022-12-04_17h01.45.084,vts_reward_expectancy_bt,2022.2.4,Win32,60.27727547,Chrome,1280,720,,,,,0,657,,,,,,,,,,,,,,,,,125,S,hexagon,1,0,,,,,,,,,,,,,,,,switch,letter,lettSwt,k,1.0335,noRew,,,,,,0,14,0,14,0,1,,,,,,,,,,,,,,,,,
298213,2022-12-04_17h01.45.084,vts_reward_expectancy_bt,2022.2.4,Win32,60.27727547,Chrome,1280,720,,,,,0,657,,,,,,,,,,,,,,,,,167,D,circle,1,0,,,,,,,,,,,,,,,,repeat,letter,lettRpt,j,0.7466,noRew,,,,,,0,15,0,15,0,1,,,,,,,,,,,,,,,,,
298213,2022-12-04_17h01.45.084,vts_reward_expectancy_bt,2022.2.4,Win32,60.27727547,Chrome,1280,720,,,,,0,657,,,,,,,,,,,,,,,,,174,S,circle,1,0,,,,,,,,,,,,,,,,switch,number,numSwt,f,0.7598,noRew,,,,,,0,16,0,16,0,1,,,,,,,,,,,,,,,,,
298213,2022-12-04_17h01.45.084,vts_reward_expectancy_bt,2022.2.4,Win32,60.27727547,Chrome,1280,720,,,,,0,657,,,,,,,,,,,,,,,,,125,Y,star,1,0,,,,,,,,,,,,,,,,switch,letter,lettSwt,k,0.697400001,noRew,,,,,,0,17,0,17,0,1,,,,,,,,,,,,,,,,,
298213,2022-12-04_17h01.45.084,vts_reward_expectancy_bt,2022.2.4,Win32,60.27727547,Chrome,1280,720,,,,,0,657,,,,,,,,,,,,,,,,,132,D,star,1,0,,,,,,,,,,,,,,,,repeat,letter,lettRpt,j,0.5465,noRew,,,,,,0,18,0,18,0,1,,,,,,,,,,,,,,,,,
298213,2022-12-04_17h01.45.084,vts_reward_expectancy_bt,2022.2.4,Win32,60.27727547,Chrome,1280,720,,,,,0,657,,,,,,,,,,,,,,,,,181,F,circle,1,0,,,,,,,,,,,,,,,,repeat,letter,lettRpt,j,0.7813,noRew,,,,,,0,19,0,19,0,1,,,,,,,,,,,,,,,,,
298213,2022-12-04_17h01.45.084,vts_reward_expectancy_bt,2022.2.4,Win32,60.27727547,Chrome,1280,720,,,,,0,657,,,,,,,,,,,,,,,,,139,W,star,1,0,,,,,,,,,,,,,,,,repeat,letter,lettRpt,k,0.529,noRew,,,,,,0,20,0,20,0,1,,,,,,,,,,,,,,,,,
298213,2022-12-04_17h01.45.084,vts_reward_expectancy_bt,2022.2.4,Win32,60.27727547,Chrome,1280,720,,,,,0,657,,,,,,,,,,,,,,,,,160,U,circle,1,0,,,,,,,,,,,,,,,,switch,number,numSwt,f,0.6833,noRew,,,,,,0,21,0,21,0,1,,,,,,,,,,,,,,,,,
298213,2022-12-04_17h01.45.084,vts_reward_expectancy_bt,2022.2.4,Win32,60.27727547,Chrome,1280,720,,,,,0,657,,,,,,,,,,,,,,,,,125,H,star,1,0,,,,,,,,,,,,,,,,switch,letter,lettSwt,j,0.9808,noRew,,,,,,0,22,0,22,0,1,,,,,,,,,,,,,,,,,
298213,2022-12-04_17h01.45.084,vts_reward_expectancy_bt,2022.2.4,Win32,60.27727547,Chrome,1280,720,,,,,0,657,,,,,,,,,,,,,,,,,132,D,triangle,1,0,,,,,,,,,,,,,,,,switch,number,numSwt,d,1.101900001,noRew,,,,,,0,23,0,23,0,1,,,,,,,,,,,,,,,,,
298213,2022-12-04_17h01.45.084,vts_reward_expectancy_bt,2022.2.4,Win32,60.27727547,Chrome,1280,720,,,,,0,657,,,,,,,,,,,,,,,,,167,D,triangle,1,0,,,,,,,,,,,,,,,,switch,letter,lettSwt,j,1.035,noRew,,,,,,0,24,0,24,0,1,,,,,,,,,,,,,,,,,
298213,2022-12-04_17h01.45.084,vts_reward_expectancy_bt,2022.2.4,Win32,60.27727547,Chrome,1280,720,,,,,0,657,,,,,,,,,,,,,,,,,160,W,star,0,0,,,,,,,,,,,,,,,,switch,number,NA,d,0.5126,noRew,,,,,,0,25,0,25,0,1,,,,,,,,,,,,,,,,,
298213,2022-12-04_17h01.45.084,vts_reward_expectancy_bt,2022.2.4,Win32,60.27727547,Chrome,1280,720,,,,,0,657,,,,,,,,,,,,,,,,,125,Y,star,1,1,,,,,,,,,,,,,,,,switch,letter,lettSwt,k,1.466,noRew,,,,,,0,26,0,26,0,1,,,,,,,,,,,,,,,,,
298213,2022-12-04_17h01.45.084,vts_reward_expectancy_bt,2022.2.4,Win32,60.27727547,Chrome,1280,720,,,,,0,657,,,,,,,,,,,,,,,,,146,U,circle,1,0,,,,,,,,,,,,,,,,repeat,letter,lettRpt,k,0.727200001,noRew,,,,,,0,27,0,27,0,1,,,,,,,,,,,,,,,,,
298213,2022-12-04_17h01.45.084,vts_reward_expectancy_bt,2022.2.4,Win32,60.27727547,Chrome,1280,720,,,,,0,657,,,,,,,,,,,,,,,,,167,H,triangle,1,0,,,,,,,,,,,,,,,,repeat,letter,lettRpt,j,0.7981,noRew,,,,,,0,28,0,28,0,1,,,,,,,,,,,,,,,,,
298213,2022-12-04_17h01.45.084,vts_reward_expectancy_bt,2022.2.4,Win32,60.27727547,Chrome,1280,720,,,,,0,657,,,,,,,,,,,,,,,,,174,S,circle,1,0,,,,,,,,,,,,,,,,switch,number,numSwt,f,0.929700001,noRew,,,,,,0,29,0,29,0,1,,,,,,,,,,,,,,,,,
298213,2022-12-04_17h01.45.084,vts_reward_expectancy_bt,2022.2.4,Win32,60.27727547,Chrome,1280,720,,,,,0,657,,,,,,,,,,,,,,,,,146,B,circle,1,0,,,,,,,,,,,,,,,,switch,letter,lettSwt,j,0.8958,noRew,,,,,,0,30,0,30,0,1,,,,,,,,,,,,,,,,,
298213,2022-12-04_17h01.45.084,vts_reward_expectancy_bt,2022.2.4,Win32,60.27727547,Chrome,1280,720,,,,,0,657,,,,,,,,,,,,,,,,,181,Y,star,1,0,,,,,,,,,,,,,,,,repeat,letter,lettRpt,k,0.7147,noRew,,,,,,0,31,0,31,0,1,,,,,,,,,,,,,,,,,
298213,2022-12-04_17h01.45.084,vts_reward_expectancy_bt,2022.2.4,Win32,60.27727547,Chrome,1280,720,,,,,0,657,,,,,,,,,,,,,,,,,146,D,hexagon,1,0,,,,,,,,,,,,,,,,switch,number,numSwt,d,1.112900001,noRew,,,,,,0,32,0,32,0,1,,,,,,,,,,,,,,,,,
298213,2022-12-04_17h01.45.084,vts_reward_expectancy_bt,2022.2.4,Win32,60.27727547,Chrome,1280,720,,,,,0,657,,,,,,,,,,,,,,,,,167,U,star,1,0,,,,,,,,,,,,,,,,repeat,number,numRpt,f,1.046900001,noRew,,,,,,0,33,0,33,0,1,,,,,,,,,,,,,,,,,
298213,2022-12-04_17h01.45.084,vts_reward_expectancy_bt,2022.2.4,Win32,60.27727547,Chrome,1280,720,,,,,0,657,,,,,,,,,,,,,,,,,174,H,circle,1,0,,,,,,,,,,,,,,,,repeat,number,numRpt,f,0.765700001,noRew,,,,,,0,34,0,34,0,1,,,,,,,,,,,,,,,,,
298213,2022-12-04_17h01.45.084,vts_reward_expectancy_bt,2022.2.4,Win32,60.27727547,Chrome,1280,720,,,,,0,657,,,,,,,,,,,,,,,,,132,W,hexagon,1,0,,,,,,,,,,,,,,,,switch,letter,lettSwt,k,0.615,noRew,,,,,,0,35,0,35,0,1,,,,,,,,,,,,,,,,,
298213,2022-12-04_17h01.45.084,vts_reward_expectancy_bt,2022.2.4,Win32,60.27727547,Chrome,1280,720,,,,,0,657,,,,,,,,,,,,,,,,,146,H,star,1,0,,,,,,,,,,,,,,,,repeat,letter,lettRpt,j,0.778299999,noRew,,,,,,0,36,0,36,0,1,,,,,,,,,,,,,,,,,
298213,2022-12-04_17h01.45.084,vts_reward_expectancy_bt,2022.2.4,Win32,60.27727547,Chrome,1280,720,,,,,0,657,,,,,,,,,,,,,,,,,125,S,circle,1,0,,,,,,,,,,,,,,,,switch,number,numSwt,d,0.6952,noRew,,,,,,0,37,0,37,0,1,,,,,,,,,,,,,,,,,
298213,2022-12-04_17h01.45.084,vts_reward_expectancy_bt,2022.2.4,Win32,60.27727547,Chrome,1280,720,,,,,0,657,,,,,,,,,,,,,,,,,181,B,circle,1,0,,,,,,,,,,,,,,,,switch,letter,lettSwt,j,0.7626,noRew,,,,,,0,38,0,38,0,1,,,,,,,,,,,,,,,,,
298213,2022-12-04_17h01.45.084,vts_reward_expectancy_bt,2022.2.4,Win32,60.27727547,Chrome,1280,720,,,,,0,657,,,,,,,,,,,,,,,,,174,U,triangle,1,0,,,,,,,,,,,,,,,,repeat,letter,lettRpt,k,0.5792,noRew,,,,,,0,39,0,39,0,1,,,,,,,,,,,,,,,,,
298213,2022-12-04_17h01.45.084,vts_reward_expectancy_bt,2022.2.4,Win32,60.27727547,Chrome,1280,720,,,,,0,657,,,,,,,,,,,,,,,,,125,U,circle,1,0,,,,,,,,,,,,,,,,repeat,letter,lettRpt,k,0.5365,noRew,,,,,,0,40,0,40,0,1,,,,,,,,,,,,,,,,,
298213,2022-12-04_17h01.45.084,vts_reward_expectancy_bt,2022.2.4,Win32,60.27727547,Chrome,1280,720,,,,,0,657,,,,,,,,,,,,,,,,,132,Y,triangle,1,0,,,,,,,,,,,,,,,,repeat,letter,lettRpt,k,0.615599999,noRew,,,,,,0,41,0,41,0,1,,,,,,,,,,,,,,,,,
298213,2022-12-04_17h01.45.084,vts_reward_expectancy_bt,2022.2.4,Win32,60.27727547,Chrome,1280,720,,,,,0,657,,,,,,,,,,,,,,,,,167,H,triangle,1,0,,,,,,,,,,,,,,,,repeat,letter,lettRpt,j,0.6307,noRew,,,,,,0,42,0,42,0,1,,,,,,,,,,,,,,,,,
298213,2022-12-04_17h01.45.084,vts_reward_expectancy_bt,2022.2.4,Win32,60.27727547,Chrome,1280,720,,,,,0,657,,,,,,,,,,,,,,,,,174,D,star,1,0,,,,,,,,,,,,,,,,repeat,letter,lettRpt,j,0.798,noRew,,,,,,0,43,0,43,0,1,,,,,,,,,,,,,,,,,
298213,2022-12-04_17h01.45.084,vts_reward_expectancy_bt,2022.2.4,Win32,60.27727547,Chrome,1280,720,,,,,0,657,,,,,,,,,,,,,,,,,125,B,hexagon,1,0,,,,,,,,,,,,,,,,switch,number,numSwt,d,0.5112,noRew,,,,,,0,44,0,44,0,1,,,,,,,,,,,,,,,,,
298213,2022-12-04_17h01.45.084,vts_reward_expectancy_bt,2022.2.4,Win32,60.27727547,Chrome,1280,720,,,,,0,657,,,,,,,,,,,,,,,,,181,W,circle,1,0,,,,,,,,,,,,,,,,repeat,number,numRpt,f,0.615,noRew,,,,,,0,45,0,45,0,1,,,,,,,,,,,,,,,,,
298213,2022-12-04_17h01.45.084,vts_reward_expectancy_bt,2022.2.4,Win32,60.27727547,Chrome,1280,720,,,,,0,657,,,,,,,,,,,,,,,,,160,U,hexagon,1,0,,,,,,,,,,,,,,,,repeat,number,numRpt,f,0.6629,noRew,,,,,,0,46,0,46,0,1,,,,,,,,,,,,,,,,,
298213,2022-12-04_17h01.45.084,vts_reward_expectancy_bt,2022.2.4,Win32,60.27727547,Chrome,1280,720,,,,,0,657,,,,,,,,,,,,,,,,,167,H,circle,1,0,,,,,,,,,,,,,,,,switch,letter,lettSwt,j,0.7615,noRew,,,,,,0,47,0,47,0,1,,,,,,,,,,,,,,,,,
298213,2022-12-04_17h01.45.084,vts_reward_expectancy_bt,2022.2.4,Win32,60.27727547,Chrome,1280,720,,,,,0,657,,,,,,,,,,,,,,,,,139,S,triangle,1,0,,,,,,,,,,,,,,,,repeat,letter,lettRpt,k,0.6013,noRew,,,,,,0,48,0,48,0,1,,,,,,,,,,,,,,,,,
298213,2022-12-04_17h01.45.084,vts_reward_expectancy_bt,2022.2.4,Win32,60.27727547,Chrome,1280,720,,,,,0,657,,,,,,,,,,,,,,,,,146,H,star,1,0,,,,,,,,,,,,,,,,repeat,letter,lettRpt,j,0.668900001,noRew,,,,,,0,49,0,49,0,1,,,,,,,,,,,,,,,,,
298213,2022-12-04_17h01.45.084,vts_reward_expectancy_bt,2022.2.4,Win32,60.27727547,Chrome,1280,720,,,,,0,657,,,,,,,,,,,,,,,,,160,W,star,1,0,,,,,,,,,,,,,,,,repeat,letter,lettRpt,k,1.317099999,noRew,,,,,,0,50,0,50,0,1,,,,,,,,,,,,,,,,,
298213,2022-12-04_17h01.45.084,vts_reward_expectancy_bt,2022.2.4,Win32,60.27727547,Chrome,1280,720,,,,,0,657,,,,,,,,,,,,,,,,,167,D,circle,1,0,,,,,,,,,,,,,,,,repeat,letter,lettRpt,j,0.5965,noRew,,,,,,0,51,0,51,0,1,,,,,,,,,,,,,,,,,
298213,2022-12-04_17h01.45.084,vts_reward_expectancy_bt,2022.2.4,Win32,60.27727547,Chrome,1280,720,,,,,0,657,,,,,,,,,,,,,,,,,160,Y,circle,0,0,,,,,,,,,,,,,,,,switch,number,NA,d,0.8765,noRew,,,,,,0,52,0,52,0,1,,,,,,,,,,,,,,,,,
298213,2022-12-04_17h01.45.084,vts_reward_expectancy_bt,2022.2.4,Win32,60.27727547,Chrome,1280,720,,,,,0,657,,,,,,,,,,,,,,,,,146,H,star,1,1,,,,,,,,,,,,,,,,repeat,number,numRpt,d,1.029,noRew,,,,,,0,53,0,53,0,1,,,,,,,,,,,,,,,,,
298213,2022-12-04_17h01.45.084,vts_reward_expectancy_bt,2022.2.4,Win32,60.27727547,Chrome,1280,720,,,,,0,657,,,,,,,,,,,,,,,,,139,W,star,1,0,,,,,,,,,,,,,,,,repeat,number,numRpt,d,1.345599999,noRew,,,,,,0,54,0,54,0,1,,,,,,,,,,,,,,,,,
298213,2022-12-04_17h01.45.084,vts_reward_expectancy_bt,2022.2.4,Win32,60.27727547,Chrome,1280,720,,,,,0,657,,,,,,,,,,,,,,,,,174,B,hexagon,1,0,,,,,,,,,,,,,,,,repeat,number,numRpt,f,0.6162,noRew,,,,,,0,55,0,55,0,1,,,,,,,,,,,,,,,,,
298213,2022-12-04_17h01.45.084,vts_reward_expectancy_bt,2022.2.4,Win32,60.27727547,Chrome,1280,720,,,,,0,657,,,,,,,,,,,,,,,,,174,W,star,1,0,,,,,,,,,,,,,,,,repeat,number,numRpt,f,0.9556,noRew,,,,,,0,56,0,56,0,1,,,,,,,,,,,,,,,,,
298213,2022-12-04_17h01.45.084,vts_reward_expectancy_bt,2022.2.4,Win32,60.27727547,Chrome,1280,720,,,,,0,657,,,,,,,,,,,,,,,,,181,H,triangle,1,0,,,,,,,,,,,,,,,,repeat,number,numRpt,f,0.7308,noRew,,,,,,0,57,0,57,0,1,,,,,,,,,,,,,,,,,
298213,2022-12-04_17h01.45.084,vts_reward_expectancy_bt,2022.2.4,Win32,60.27727547,Chrome,1280,720,,,,,0,657,,,,,,,,,,,,,,,,,139,D,circle,1,0,,,,,,,,,,,,,,,,repeat,number,numRpt,d,0.7603,noRew,,,,,,0,58,0,58,0,1,,,,,,,,,,,,,,,,,
298213,2022-12-04_17h01.45.084,vts_reward_expectancy_bt,2022.2.4,Win32,60.27727547,Chrome,1280,720,,,,,0,657,,,,,,,,,,,,,,,,,132,F,hexagon,1,0,,,,,,,,,,,,,,,,repeat,number,numRpt,d,0.6483,noRew,,,,,,0,59,0,59,0,1,,,,,,,,,,,,,,,,,
298213,2022-12-04_17h01.45.084,vts_reward_expectancy_bt,2022.2.4,Win32,60.27727547,Chrome,1280,720,,,,,0,657,,,,,,,,,,,,,,,,,181,Y,hexagon,1,0,,,,,,,,,,,,,,,,switch,letter,lettSwt,k,0.7452,noRew,,,,,,0,60,0,60,0,1,,,,,,,,,,,,,,,,,
298213,2022-12-04_17h01.45.084,vts_reward_expectancy_bt,2022.2.4,Win32,60.27727547,Chrome,1280,720,,,,,0,657,,,,,,,,,,,,,,,,,125,W,triangle,1,0,,,,,,,,,,,,,,,,repeat,letter,lettRpt,k,0.6805,noRew,,,,,,0,61,0,61,0,1,,,,,,,,,,,,,,,,,
298213,2022-12-04_17h01.45.084,vts_reward_expectancy_bt,2022.2.4,Win32,60.27727547,Chrome,1280,720,,,,,0,657,,,,,,,,,,,,,,,,,167,U,circle,1,0,,,,,,,,,,,,,,,,repeat,letter,lettRpt,k,0.8641,noRew,,,,,,0,62,0,62,0,1,,,,,,,,,,,,,,,,,
298213,2022-12-04_17h01.45.084,vts_reward_expectancy_bt,2022.2.4,Win32,60.27727547,Chrome,1280,720,,,,,0,657,,,,,,,,,,,,,,,,,160,F,triangle,1,0,,,,,,,,,,,,,,,,repeat,letter,lettRpt,j,1.0991,noRew,,,,,,0,63,0,63,0,1,,,,,,,,,,,,,,,,,
298213,2022-12-04_17h01.45.084,vts_reward_expectancy_bt,2022.2.4,Win32,60.27727547,Chrome,1280,720,,,,,,,,,,,,,,,,,,,,,,,,,,,,,,,,,,,,,,,,,,,,,,,,,,,,,,,,,,,,,,,,,,,,,,,,,,,,
298213,2022-12-04_17h01.45.084,vts_reward_expectancy_bt,2022.2.4,Win32,60.27727547,Chrome,1280,720,,,,,1,658,,,,,,,,,,,,,,,,,139,H,hexagon,1,0,,,,,,,,,,,,,,,,switch,number,numSwt,d,1.094200001,Lo,,,,,,0,,,,,,space,12.3652,high,0,0,0,0,1,,,,,,,,,
298213,2022-12-04_17h01.45.084,vts_reward_expectancy_bt,2022.2.4,Win32,60.27727547,Chrome,1280,720,,,,,0,658,,,,,,,,,,,,,,,,,160,S,star,1,0,,,,,,,,,,,,,,,,repeat,number,numRpt,f,1.7627,Hi,,,,,,0,,,,,,,,high,1,0,1,0,1,,,,,,,,,
298213,2022-12-04_17h01.45.084,vts_reward_expectancy_bt,2022.2.4,Win32,60.27727547,Chrome,1280,720,,,,,1,659,,,,,,,,,,,,,,,,,146,W,circle,1,0,,,,,,,,,,,,,,,,switch,letter,lettSwt,k,0.8177,Lo,,,,,,0,,,,,,,,high,2,0,2,0,1,,,,,,,,,
298213,2022-12-04_17h01.45.084,vts_reward_expectancy_bt,2022.2.4,Win32,60.27727547,Chrome,1280,720,,,,,10,669,,,,,,,,,,,,,,,,,181,D,triangle,1,0,,,,,,,,,,,,,,,,repeat,letter,lettRpt,j,0.546900001,Hi,,,,,,0,,,,,,,,high,3,0,3,0,1,,,,,,,,,
298213,2022-12-04_17h01.45.084,vts_reward_expectancy_bt,2022.2.4,Win32,60.27727547,Chrome,1280,720,,,,,1,670,,,,,,,,,,,,,,,,,167,Y,hexagon,1,0,,,,,,,,,,,,,,,,switch,number,numSwt,f,0.594700001,Lo,,,,,,0,,,,,,,,high,4,0,4,0,1,,,,,,,,,
298213,2022-12-04_17h01.45.084,vts_reward_expectancy_bt,2022.2.4,Win32,60.27727547,Chrome,1280,720,,,,,1,671,,,,,,,,,,,,,,,,,174,U,star,1,0,,,,,,,,,,,,,,,,repeat,number,numRpt,f,0.4847,Hi,,,,,,0,,,,,,,,high,5,0,5,0,1,,,,,,,,,
298213,2022-12-04_17h01.45.084,vts_reward_expectancy_bt,2022.2.4,Win32,60.27727547,Chrome,1280,720,,,,,10,681,,,,,,,,,,,,,,,,,132,F,circle,1,0,,,,,,,,,,,,,,,,repeat,number,numRpt,d,0.634,Lo,,,,,,0,,,,,,,,high,6,0,6,0,1,,,,,,,,,
298213,2022-12-04_17h01.45.084,vts_reward_expectancy_bt,2022.2.4,Win32,60.27727547,Chrome,1280,720,,,,,10,691,,,,,,,,,,,,,,,,,125,B,triangle,1,0,,,,,,,,,,,,,,,,repeat,number,numRpt,d,0.5352,Hi,,,,,,0,,,,,,,,high,7,0,7,0,1,,,,,,,,,
298213,2022-12-04_17h01.45.084,vts_reward_expectancy_bt,2022.2.4,Win32,60.27727547,Chrome,1280,720,,,,,10,701,,,,,,,,,,,,,,,,,139,H,triangle,1,0,,,,,,,,,,,,,,,,switch,letter,lettSwt,j,0.4505,Hi,,,,,,0,,,,,,,,high,8,0,8,0,1,,,,,,,,,
298213,2022-12-04_17h01.45.084,vts_reward_expectancy_bt,2022.2.4,Win32,60.27727547,Chrome,1280,720,,,,,10,711,,,,,,,,,,,,,,,,,160,S,star,1,0,,,,,,,,,,,,,,,,repeat,letter,lettRpt,k,0.4345,Hi,,,,,,0,,,,,,,,high,9,0,9,0,1,,,,,,,,,
298213,2022-12-04_17h01.45.084,vts_reward_expectancy_bt,2022.2.4,Win32,60.27727547,Chrome,1280,720,,,,,10,721,,,,,,,,,,,,,,,,,146,W,hexagon,1,0,,,,,,,,,,,,,,,,repeat,letter,lettRpt,k,0.5832,Lo,,,,,,0,,,,,,,,high,10,0,10,0,1,,,,,,,,,
298213,2022-12-04_17h01.45.084,vts_reward_expectancy_bt,2022.2.4,Win32,60.27727547,Chrome,1280,720,,,,,1,722,,,,,,,,,,,,,,,,,181,D,circle,1,0,,,,,,,,,,,,,,,,repeat,letter,lettRpt,j,0.5187,Lo,,,,,,0,,,,,,,,high,11,0,11,0,1,,,,,,,,,
298213,2022-12-04_17h01.45.084,vts_reward_expectancy_bt,2022.2.4,Win32,60.27727547,Chrome,1280,720,,,,,1,723,,,,,,,,,,,,,,,,,167,Y,circle,1,0,,,,,,,,,,,,,,,,switch,number,numSwt,f,0.467599999,Lo,,,,,,0,,,,,,,,high,12,0,12,0,1,,,,,,,,,
298213,2022-12-04_17h01.45.084,vts_reward_expectancy_bt,2022.2.4,Win32,60.27727547,Chrome,1280,720,,,,,10,733,,,,,,,,,,,,,,,,,174,U,hexagon,1,0,,,,,,,,,,,,,,,,repeat,number,numRpt,f,0.483,Lo,,,,,,0,,,,,,,,high,13,0,13,0,1,,,,,,,,,
298213,2022-12-04_17h01.45.084,vts_reward_expectancy_bt,2022.2.4,Win32,60.27727547,Chrome,1280,720,,,,,1,734,,,,,,,,,,,,,,,,,132,F,triangle,1,0,,,,,,,,,,,,,,,,repeat,number,numRpt,d,0.5483,Hi,,,,,,0,,,,,,,,high,14,0,14,0,1,,,,,,,,,
298213,2022-12-04_17h01.45.084,vts_reward_expectancy_bt,2022.2.4,Win32,60.27727547,Chrome,1280,720,,,,,1,735,,,,,,,,,,,,,,,,,125,B,star,1,0,,,,,,,,,,,,,,,,switch,letter,lettSwt,j,0.5615,Hi,,,,,,0,,,,,,,,high,15,0,15,0,1,,,,,,,,,
298213,2022-12-04_17h01.45.084,vts_reward_expectancy_bt,2022.2.4,Win32,60.27727547,Chrome,1280,720,,,,,1,736,,,,,,,,,,,,,,,,,160,W,hexagon,1,0,,,,,,,,,,,,,,,,repeat,letter,lettRpt,k,0.4931,Lo,,,,,,0,,,,,,,,high,16,0,16,0,1,,,,,,,,,
298213,2022-12-04_17h01.45.084,vts_reward_expectancy_bt,2022.2.4,Win32,60.27727547,Chrome,1280,720,,,,,10,746,,,,,,,,,,,,,,,,,174,D,triangle,1,0,,,,,,,,,,,,,,,,switch,number,numSwt,f,0.4612,Hi,,,,,,0,,,,,,,,high,17,0,17,0,1,,,,,,,,,
298213,2022-12-04_17h01.45.084,vts_reward_expectancy_bt,2022.2.4,Win32,60.27727547,Chrome,1280,720,,,,,10,756,,,,,,,,,,,,,,,,,139,F,star,1,0,,,,,,,,,,,,,,,,switch,letter,lettSwt,j,0.646599999,Hi,,,,,,0,,,,,,,,high,18,0,18,0,1,,,,,,,,,
298213,2022-12-04_17h01.45.084,vts_reward_expectancy_bt,2022.2.4,Win32,60.27727547,Chrome,1280,720,,,,,1,757,,,,,,,,,,,,,,,,,167,H,circle,1,0,,,,,,,,,,,,,,,,repeat,letter,lettRpt,j,0.5959,Lo,,,,,,0,,,,,,,,high,19,0,19,0,1,,,,,,,,,
298213,2022-12-04_17h01.45.084,vts_reward_expectancy_bt,2022.2.4,Win32,60.27727547,Chrome,1280,720,,,,,1,758,,,,,,,,,,,,,,,,,125,S,triangle,1,0,,,,,,,,,,,,,,,,repeat,letter,lettRpt,k,0.5433,Hi,,,,,,0,,,,,,,,high,20,0,20,0,1,,,,,,,,,
298213,2022-12-04_17h01.45.084,vts_reward_expectancy_bt,2022.2.4,Win32,60.27727547,Chrome,1280,720,,,,,1,759,,,,,,,,,,,,,,,,,146,B,hexagon,1,0,,,,,,,,,,,,,,,,repeat,letter,lettRpt,j,0.7448,Lo,,,,,,0,,,,,,,,high,21,0,21,0,1,,,,,,,,,
298213,2022-12-04_17h01.45.084,vts_reward_expectancy_bt,2022.2.4,Win32,60.27727547,Chrome,1280,720,,,,,0,759,,,,,,,,,,,,,,,,,132,Y,star,1,0,,,,,,,,,,,,,,,,repeat,letter,lettRpt,k,0.7105,Hi,,,,,,0,,,,,,,,high,22,0,22,0,1,,,,,,,,,
298213,2022-12-04_17h01.45.084,vts_reward_expectancy_bt,2022.2.4,Win32,60.27727547,Chrome,1280,720,,,,,1,760,,,,,,,,,,,,,,,,,181,U,circle,1,0,,,,,,,,,,,,,,,,switch,number,numSwt,f,0.5617,Lo,,,,,,0,,,,,,,,high,23,0,23,0,1,,,,,,,,,
298213,2022-12-04_17h01.45.084,vts_reward_expectancy_bt,2022.2.4,Win32,60.27727547,Chrome,1280,720,,,,,1,761,,,,,,,,,,,,,,,,,146,B,circle,1,0,,,,,,,,,,,,,,,,repeat,number,numRpt,d,0.4935,Lo,,,,,,0,,,,,,,,high,24,0,24,0,1,,,,,,,,,
298213,2022-12-04_17h01.45.084,vts_reward_expectancy_bt,2022.2.4,Win32,60.27727547,Chrome,1280,720,,,,,10,771,,,,,,,,,,,,,,,,,181,S,triangle,1,0,,,,,,,,,,,,,,,,repeat,number,numRpt,f,0.426799999,Hi,,,,,,0,,,,,,,,high,25,0,25,0,1,,,,,,,,,
298213,2022-12-04_17h01.45.084,vts_reward_expectancy_bt,2022.2.4,Win32,60.27727547,Chrome,1280,720,,,,,10,781,,,,,,,,,,,,,,,,,125,W,hexagon,1,0,,,,,,,,,,,,,,,,repeat,number,numRpt,d,0.5623,Lo,,,,,,0,,,,,,,,high,26,0,26,0,1,,,,,,,,,
298213,2022-12-04_17h01.45.084,vts_reward_expectancy_bt,2022.2.4,Win32,60.27727547,Chrome,1280,720,,,,,10,791,,,,,,,,,,,,,,,,,174,H,star,1,0,,,,,,,,,,,,,,,,repeat,number,numRpt,f,0.3929,Hi,,,,,,0,,,,,,,,high,27,0,27,0,1,,,,,,,,,
298213,2022-12-04_17h01.45.084,vts_reward_expectancy_bt,2022.2.4,Win32,60.27727547,Chrome,1280,720,,,,,1,792,,,,,,,,,,,,,,,,,132,Y,star,1,0,,,,,,,,,,,,,,,,repeat,number,numRpt,d,0.4516,Hi,,,,,,0,,,,,,,,high,28,0,28,0,1,,,,,,,,,
298213,2022-12-04_17h01.45.084,vts_reward_expectancy_bt,2022.2.4,Win32,60.27727547,Chrome,1280,720,,,,,1,793,,,,,,,,,,,,,,,,,139,D,hexagon,1,0,,,,,,,,,,,,,,,,repeat,number,numRpt,d,0.5016,Lo,,,,,,0,,,,,,,,high,29,0,29,0,1,,,,,,,,,
298213,2022-12-04_17h01.45.084,vts_reward_expectancy_bt,2022.2.4,Win32,60.27727547,Chrome,1280,720,,,,,10,803,,,,,,,,,,,,,,,,,167,F,triangle,1,0,,,,,,,,,,,,,,,,switch,letter,lettSwt,j,0.6125,Hi,,,,,,0,,,,,,,,high,30,0,30,0,1,,,,,,,,,
298213,2022-12-04_17h01.45.084,vts_reward_expectancy_bt,2022.2.4,Win32,60.27727547,Chrome,1280,720,,,,,10,813,,,,,,,,,,,,,,,,,160,U,circle,1,0,,,,,,,,,,,,,,,,repeat,letter,lettRpt,k,0.5306,Lo,,,,,,0,,,,,,,,high,31,0,31,0,1,,,,,,,,,
298213,2022-12-04_17h01.45.084,vts_reward_expectancy_bt,2022.2.4,Win32,60.27727547,Chrome,1280,720,,,,,0,813,,,,,,,,,,,,,,,,,146,D,star,1,0,,,,,,,,,,,,,,,,switch,number,numSwt,d,0.500200001,Hi,,,,,,1,,,,,,space,4.7957,high,0,0,0,0,1,,,,,,,,,
298213,2022-12-04_17h01.45.084,vts_reward_expectancy_bt,2022.2.4,Win32,60.27727547,Chrome,1280,720,,,,,10,823,,,,,,,,,,,,,,,,,132,H,hexagon,1,0,,,,,,,,,,,,,,,,repeat,number,numRpt,d,0.5005,Lo,,,,,,1,,,,,,,,high,1,0,1,0,1,,,,,,,,,
298213,2022-12-04_17h01.45.084,vts_reward_expectancy_bt,2022.2.4,Win32,60.27727547,Chrome,1280,720,,,,,10,833,,,,,,,,,,,,,,,,,139,Y,circle,1,0,,,,,,,,,,,,,,,,repeat,number,numRpt,d,0.3786,Lo,,,,,,1,,,,,,,,high,2,0,2,0,1,,,,,,,,,
298213,2022-12-04_17h01.45.084,vts_reward_expectancy_bt,2022.2.4,Win32,60.27727547,Chrome,1280,720,,,,,0,833,,,,,,,,,,,,,,,,,167,F,triangle,0,0,,,,,,,,,,,,,,,,switch,letter,NA,k,0.4967,Lo,,,,,,1,,,,,,,,high,3,0,3,0,1,,,,,,,,,
298213,2022-12-04_17h01.45.084,vts_reward_expectancy_bt,2022.2.4,Win32,60.27727547,Chrome,1280,720,,,,,0,833,,,,,,,,,,,,,,,,,181,B,star,1,1,,,,,,,,,,,,,,,,repeat,letter,lettRpt,j,0.597,Hi,,,,,,1,,,,,,,,high,4,0,4,0,1,,,,,,,,,
298213,2022-12-04_17h01.45.084,vts_reward_expectancy_bt,2022.2.4,Win32,60.27727547,Chrome,1280,720,,,,,0,833,,,,,,,,,,,,,,,,,174,W,hexagon,0,0,,,,,,,,,,,,,,,,repeat,letter,NA,j,0.3838,Hi,,,,,,1,,,,,,,,high,5,0,5,0,1,,,,,,,,,
298213,2022-12-04_17h01.45.084,vts_reward_expectancy_bt,2022.2.4,Win32,60.27727547,Chrome,1280,720,,,,,1,834,,,,,,,,,,,,,,,,,125,S,circle,1,1,,,,,,,,,,,,,,,,repeat,letter,lettRpt,k,0.5126,Lo,,,,,,1,,,,,,,,high,6,0,6,0,1,,,,,,,,,
298213,2022-12-04_17h01.45.084,vts_reward_expectancy_bt,2022.2.4,Win32,60.27727547,Chrome,1280,720,,,,,0,834,,,,,,,,,,,,,,,,,160,U,triangle,1,0,,,,,,,,,,,,,,,,repeat,letter,lettRpt,k,0.562599999,Hi,,,,,,1,,,,,,,,high,7,0,7,0,1,,,,,,,,,
298213,2022-12-04_17h01.45.084,vts_reward_expectancy_bt,2022.2.4,Win32,60.27727547,Chrome,1280,720,,,,,1,835,,,,,,,,,,,,,,,,,146,D,hexagon,1,0,,,,,,,,,,,,,,,,switch,number,numSwt,d,0.5953,Lo,,,,,,1,,,,,,,,high,8,0,8,0,1,,,,,,,,,
298213,2022-12-04_17h01.45.084,vts_reward_expectancy_bt,2022.2.4,Win32,60.27727547,Chrome,1280,720,,,,,1,836,,,,,,,,,,,,,,,,,132,H,circle,1,0,,,,,,,,,,,,,,,,repeat,number,numRpt,d,0.5506,Lo,,,,,,1,,,,,,,,high,9,0,9,0,1,,,,,,,,,
298213,2022-12-04_17h01.45.084,vts_reward_expectancy_bt,2022.2.4,Win32,60.27727547,Chrome,1280,720,,,,,10,846,,,,,,,,,,,,,,,,,139,Y,star,1,0,,,,,,,,,,,,,,,,switch,letter,lettSwt,k,0.4985,Hi,,,,,,1,,,,,,,,high,10,0,10,0,1,,,,,,,,,
298213,2022-12-04_17h01.45.084,vts_reward_expectancy_bt,2022.2.4,Win32,60.27727547,Chrome,1280,720,,,,,10,856,,,,,,,,,,,,,,,,,167,F,triangle,1,0,,,,,,,,,,,,,,,,repeat,letter,lettRpt,j,0.4534,Hi,,,,,,1,,,,,,,,high,11,0,11,0,1,,,,,,,,,
298213,2022-12-04_17h01.45.084,vts_reward_expectancy_bt,2022.2.4,Win32,60.27727547,Chrome,1280,720,,,,,1,857,,,,,,,,,,,,,,,,,181,B,circle,1,0,,,,,,,,,,,,,,,,switch,number,numSwt,f,0.3987,Lo,,,,,,1,,,,,,,,high,12,0,12,0,1,,,,,,,,,
298213,2022-12-04_17h01.45.084,vts_reward_expectancy_bt,2022.2.4,Win32,60.27727547,Chrome,1280,720,,,,,1,858,,,,,,,,,,,,,,,,,174,W,hexagon,1,0,,,,,,,,,,,,,,,,repeat,number,numRpt,f,0.4625,Lo,,,,,,1,,,,,,,,high,13,0,13,0,1,,,,,,,,,
298213,2022-12-04_17h01.45.084,vts_reward_expectancy_bt,2022.2.4,Win32,60.27727547,Chrome,1280,720,,,,,10,868,,,,,,,,,,,,,,,,,125,S,star,1,0,,,,,,,,,,,,,,,,switch,letter,lettSwt,k,0.5079,Hi,,,,,,1,,,,,,,,high,14,0,14,0,1,,,,,,,,,
298213,2022-12-04_17h01.45.084,vts_reward_expectancy_bt,2022.2.4,Win32,60.27727547,Chrome,1280,720,,,,,0,868,,,,,,,,,,,,,,,,,160,U,triangle,1,0,,,,,,,,,,,,,,,,repeat,letter,lettRpt,k,0.5602,Hi,,,,,,1,,,,,,,,high,15,0,15,0,1,,,,,,,,,
298213,2022-12-04_17h01.45.084,vts_reward_expectancy_bt,2022.2.4,Win32,60.27727547,Chrome,1280,720,,,,,1,869,,,,,,,,,,,,,,,,,181,S,hexagon,1,0,,,,,,,,,,,,,,,,repeat,letter,lettRpt,k,0.4429,Lo,,,,,,1,,,,,,,,high,16,0,16,0,1,,,,,,,,,
298213,2022-12-04_17h01.45.084,vts_reward_expectancy_bt,2022.2.4,Win32,60.27727547,Chrome,1280,720,,,,,0,869,,,,,,,,,,,,,,,,,167,H,triangle,0,0,,,,,,,,,,,,,,,,repeat,letter,NA,k,0.546,Lo,,,,,,1,,,,,,,,high,17,0,17,0,1,,,,,,,,,
298213,2022-12-04_17h01.45.084,vts_reward_expectancy_bt,2022.2.4,Win32,60.27727547,Chrome,1280,720,,,,,1,870,,,,,,,,,,,,,,,,,139,B,circle,1,1,,,,,,,,,,,,,,,,repeat,letter,lettRpt,j,0.4314,Lo,,,,,,1,,,,,,,,high,18,0,18,0,1,,,,,,,,,
298213,2022-12-04_17h01.45.084,vts_reward_expectancy_bt,2022.2.4,Win32,60.27727547,Chrome,1280,720,,,,,10,880,,,,,,,,,,,,,,,,,174,Y,star,1,0,,,,,,,,,,,,,,,,repeat,letter,lettRpt,k,0.5172,Hi,,,,,,1,,,,,,,,high,19,0,19,0,1,,,,,,,,,
298213,2022-12-04_17h01.45.084,vts_reward_expectancy_bt,2022.2.4,Win32,60.27727547,Chrome,1280,720,,,,,0,880,,,,,,,,,,,,,,,,,160,U,star,0,0,,,,,,,,,,,,,,,,switch,number,NA,d,0.5673,Hi,,,,,,1,,,,,,,,high,20,0,20,0,1,,,,,,,,,
298213,2022-12-04_17h01.45.084,vts_reward_expectancy_bt,2022.2.4,Win32,60.27727547,Chrome,1280,720,,,,,0,880,,,,,,,,,,,,,,,,,146,D,hexagon,0,1,,,,,,,,,,,,,,,,repeat,number,NA,f,0.429900001,Hi,,,,,,1,,,,,,,,high,21,0,21,0,1,,,,,,,,,
298213,2022-12-04_17h01.45.084,vts_reward_expectancy_bt,2022.2.4,Win32,60.27727547,Chrome,1280,720,,,,,10,890,,,,,,,,,,,,,,,,,125,W,triangle,1,1,,,,,,,,,,,,,,,,repeat,number,numRpt,d,0.477400001,Hi,,,,,,1,,,,,,,,high,22,0,22,0,1,,,,,,,,,
298213,2022-12-04_17h01.45.084,vts_reward_expectancy_bt,2022.2.4,Win32,60.27727547,Chrome,1280,720,,,,,1,891,,,,,,,,,,,,,,,,,132,F,circle,1,0,,,,,,,,,,,,,,,,repeat,number,numRpt,d,0.479,Lo,,,,,,1,,,,,,,,high,23,0,23,0,1,,,,,,,,,
298213,2022-12-04_17h01.45.084,vts_reward_expectancy_bt,2022.2.4,Win32,60.27727547,Chrome,1280,720,,,,,0,891,,,,,,,,,,,,,,,,,167,F,hexagon,0,0,,,,,,,,,,,,,,,,repeat,number,NA,d,0.4972,Lo,,,,,,1,,,,,,,,high,24,0,24,0,1,,,,,,,,,
298213,2022-12-04_17h01.45.084,vts_reward_expectancy_bt,2022.2.4,Win32,60.27727547,Chrome,1280,720,,,,,10,901,,,,,,,,,,,,,,,,,181,S,star,1,1,,,,,,,,,,,,,,,,repeat,number,numRpt,f,0.4441,Hi,,,,,,1,,,,,,,,high,25,0,25,0,1,,,,,,,,,
298213,2022-12-04_17h01.45.084,vts_reward_expectancy_bt,2022.2.4,Win32,60.27727547,Chrome,1280,720,,,,,1,902,,,,,,,,,,,,,,,,,174,W,circle,1,0,,,,,,,,,,,,,,,,repeat,number,numRpt,f,0.382299999,Lo,,,,,,1,,,,,,,,high,26,0,26,0,1,,,,,,,,,
298213,2022-12-04_17h01.45.084,vts_reward_expectancy_bt,2022.2.4,Win32,60.27727547,Chrome,1280,720,,,,,0,902,,,,,,,,,,,,,,,,,132,D,triangle,0,0,,,,,,,,,,,,,,,,repeat,number,NA,f,0.6105,Lo,,,,,,1,,,,,,,,high,27,0,27,0,1,,,,,,,,,
298213,2022-12-04_17h01.45.084,vts_reward_expectancy_bt,2022.2.4,Win32,60.27727547,Chrome,1280,720,,,,,0,902,,,,,,,,,,,,,,,,,125,B,star,1,1,,,,,,,,,,,,,,,,repeat,number,numRpt,d,0.4848,Hi,,,,,,1,,,,,,,,high,28,0,28,0,1,,,,,,,,,
298213,2022-12-04_17h01.45.084,vts_reward_expectancy_bt,2022.2.4,Win32,60.27727547,Chrome,1280,720,,,,,0,902,,,,,,,,,,,,,,,,,146,Y,circle,0,0,,,,,,,,,,,,,,,,repeat,number,NA,f,0.7634,Hi,,,,,,1,,,,,,,,high,29,0,29,0,1,,,,,,,,,
298213,2022-12-04_17h01.45.084,vts_reward_expectancy_bt,2022.2.4,Win32,60.27727547,Chrome,1280,720,,,,,0,902,,,,,,,,,,,,,,,,,160,H,hexagon,0,1,,,,,,,,,,,,,,,,switch,letter,NA,k,0.845400001,Hi,,,,,,1,,,,,,,,high,30,0,30,0,1,,,,,,,,,
298213,2022-12-04_17h01.45.084,vts_reward_expectancy_bt,2022.2.4,Win32,60.27727547,Chrome,1280,720,,,,,0,902,,,,,,,,,,,,,,,,,139,U,triangle,1,1,,,,,,,,,,,,,,,,repeat,letter,lettRpt,k,0.5607,Hi,,,,,,1,,,,,,,,high,31,0,31,0,1,,,,,,,,,
298213,2022-12-04_17h01.45.084,vts_reward_expectancy_bt,2022.2.4,Win32,60.27727547,Chrome,1280,720,,,,,0,902,,,,,,,,,,,,,,,,,167,D,star,0,0,,,,,,,,,,,,,,,,switch,number,NA,d,1.112,Hi,,,,,,2,,,,,,space,16.6353,high,0,0,0,0,1,,,,,,,,,
298213,2022-12-04_17h01.45.084,vts_reward_expectancy_bt,2022.2.4,Win32,60.27727547,Chrome,1280,720,,,,,0,902,,,,,,,,,,,,,,,,,160,S,triangle,1,1,,,,,,,,,,,,,,,,repeat,number,numRpt,f,0.9282,Hi,,,,,,2,,,,,,,,high,1,0,1,0,1,,,,,,,,,
298213,2022-12-04_17h01.45.084,vts_reward_expectancy_bt,2022.2.4,Win32,60.27727547,Chrome,1280,720,,,,,1,903,,,,,,,,,,,,,,,,,181,U,hexagon,1,0,,,,,,,,,,,,,,,,repeat,number,numRpt,f,0.534,Lo,,,,,,2,,,,,,,,high,2,0,2,0,1,,,,,,,,,
298213,2022-12-04_17h01.45.084,vts_reward_expectancy_bt,2022.2.4,Win32,60.27727547,Chrome,1280,720,,,,,1,904,,,,,,,,,,,,,,,,,132,F,circle,1,0,,,,,,,,,,,,,,,,repeat,number,numRpt,d,0.4502,Lo,,,,,,2,,,,,,,,high,3,0,3,0,1,,,,,,,,,
298213,2022-12-04_17h01.45.084,vts_reward_expectancy_bt,2022.2.4,Win32,60.27727547,Chrome,1280,720,,,,,0,904,,,,,,,,,,,,,,,,,174,Y,star,1,0,,,,,,,,,,,,,,,,switch,letter,lettSwt,k,0.5125,Hi,,,,,,2,,,,,,,,high,4,0,4,0,1,,,,,,,,,
298213,2022-12-04_17h01.45.084,vts_reward_expectancy_bt,2022.2.4,Win32,60.27727547,Chrome,1280,720,,,,,0,904,,,,,,,,,,,,,,,,,146,H,triangle,1,0,,,,,,,,,,,,,,,,repeat,letter,lettRpt,j,0.7139,Hi,,,,,,2,,,,,,,,high,5,0,5,0,1,,,,,,,,,
298213,2022-12-04_17h01.45.084,vts_reward_expectancy_bt,2022.2.4,Win32,60.27727547,Chrome,1280,720,,,,,1,905,,,,,,,,,,,,,,,,,139,B,hexagon,1,0,,,,,,,,,,,,,,,,repeat,letter,lettRpt,j,0.5817,Lo,,,,,,2,,,,,,,,high,6,0,6,0,1,,,,,,,,,
298213,2022-12-04_17h01.45.084,vts_reward_expectancy_bt,2022.2.4,Win32,60.27727547,Chrome,1280,720,,,,,1,906,,,,,,,,,,,,,,,,,125,W,circle,1,0,,,,,,,,,,,,,,,,repeat,letter,lettRpt,k,0.496099999,Lo,,,,,,2,,,,,,,,high,7,0,7,0,1,,,,,,,,,
298213,2022-12-04_17h01.45.084,vts_reward_expectancy_bt,2022.2.4,Win32,60.27727547,Chrome,1280,720,,,,,10,916,,,,,,,,,,,,,,,,,167,D,circle,1,0,,,,,,,,,,,,,,,,repeat,letter,lettRpt,j,0.463900001,Lo,,,,,,2,,,,,,,,high,8,0,8,0,1,,,,,,,,,
298213,2022-12-04_17h01.45.084,vts_reward_expectancy_bt,2022.2.4,Win32,60.27727547,Chrome,1280,720,,,,,10,926,,,,,,,,,,,,,,,,,160,S,hexagon,1,0,,,,,,,,,,,,,,,,repeat,letter,lettRpt,k,0.429,Lo,,,,,,2,,,,,,,,high,9,0,9,0,1,,,,,,,,,
298213,2022-12-04_17h01.45.084,vts_reward_expectancy_bt,2022.2.4,Win32,60.27727547,Chrome,1280,720,,,,,1,927,,,,,,,,,,,,,,,,,181,U,triangle,1,0,,,,,,,,,,,,,,,,repeat,letter,lettRpt,k,0.4662,Hi,,,,,,2,,,,,,,,high,10,0,10,0,1,,,,,,,,,
298213,2022-12-04_17h01.45.084,vts_reward_expectancy_bt,2022.2.4,Win32,60.27727547,Chrome,1280,720,,,,,0,927,,,,,,,,,,,,,,,,,132,F,star,1,0,,,,,,,,,,,,,,,,switch,number,numSwt,d,0.4921,Hi,,,,,,2,,,,,,,,high,11,0,11,0,1,,,,,,,,,
298213,2022-12-04_17h01.45.084,vts_reward_expectancy_bt,2022.2.4,Win32,60.27727547,Chrome,1280,720,,,,,0,927,,,,,,,,,,,,,,,,,174,Y,star,0,0,,,,,,,,,,,,,,,,repeat,number,NA,d,0.5183,Hi,,,,,,2,,,,,,,,high,12,0,12,0,1,,,,,,,,,
298213,2022-12-04_17h01.45.084,vts_reward_expectancy_bt,2022.2.4,Win32,60.27727547,Chrome,1280,720,,,,,0,927,,,,,,,,,,,,,,,,,146,H,triangle,1,1,,,,,,,,,,,,,,,,repeat,number,numRpt,d,0.670200001,Hi,,,,,,2,,,,,,,,high,13,0,13,0,1,,,,,,,,,
298213,2022-12-04_17h01.45.084,vts_reward_expectancy_bt,2022.2.4,Win32,60.27727547,Chrome,1280,720,,,,,1,928,,,,,,,,,,,,,,,,,139,B,circle,1,0,,,,,,,,,,,,,,,,repeat,number,numRpt,d,0.532900001,Lo,,,,,,2,,,,,,,,high,14,0,14,0,1,,,,,,,,,
298213,2022-12-04_17h01.45.084,vts_reward_expectancy_bt,2022.2.4,Win32,60.27727547,Chrome,1280,720,,,,,1,929,,,,,,,,,,,,,,,,,125,W,hexagon,1,0,,,,,,,,,,,,,,,,repeat,number,numRpt,d,0.4612,Lo,,,,,,2,,,,,,,,high,15,0,15,0,1,,,,,,,,,
298213,2022-12-04_17h01.45.084,vts_reward_expectancy_bt,2022.2.4,Win32,60.27727547,Chrome,1280,720,,,,,0,929,,,,,,,,,,,,,,,,,160,Y,circle,0,0,,,,,,,,,,,,,,,,repeat,number,NA,d,0.601,Lo,,,,,,2,,,,,,,,high,16,0,16,0,1,,,,,,,,,
298213,2022-12-04_17h01.45.084,vts_reward_expectancy_bt,2022.2.4,Win32,60.27727547,Chrome,1280,720,,,,,1,930,,,,,,,,,,,,,,,,,167,B,hexagon,1,1,,,,,,,,,,,,,,,,repeat,number,numRpt,f,0.3954,Lo,,,,,,2,,,,,,,,high,17,0,17,0,1,,,,,,,,,
298213,2022-12-04_17h01.45.084,vts_reward_expectancy_bt,2022.2.4,Win32,60.27727547,Chrome,1280,720,,,,,0,930,,,,,,,,,,,,,,,,,146,U,star,0,0,,,,,,,,,,,,,,,,repeat,number,NA,f,0.3961,Lo,,,,,,2,,,,,,,,high,18,0,18,0,1,,,,,,,,,
298213,2022-12-04_17h01.45.084,vts_reward_expectancy_bt,2022.2.4,Win32,60.27727547,Chrome,1280,720,,,,,0,930,,,,,,,,,,,,,,,,,139,S,triangle,1,1,,,,,,,,,,,,,,,,switch,letter,lettSwt,k,0.7294,Hi,,,,,,2,,,,,,,,high,19,0,19,0,1,,,,,,,,,
298213,2022-12-04_17h01.45.084,vts_reward_expectancy_bt,2022.2.4,Win32,60.27727547,Chrome,1280,720,,,,,0,930,,,,,,,,,,,,,,,,,132,W,star,1,0,,,,,,,,,,,,,,,,switch,number,numSwt,d,1.016,Hi,,,,,,2,,,,,,,,high,20,0,20,0,1,,,,,,,,,
298213,2022-12-04_17h01.45.084,vts_reward_expectancy_bt,2022.2.4,Win32,60.27727547,Chrome,1280,720,,,,,0,930,,,,,,,,,,,,,,,,,174,D,circle,0,0,,,,,,,,,,,,,,,,repeat,number,NA,d,0.048,Hi,,,,,,2,,,,,,,,high,21,0,21,0,1,,,,,,,,,
298213,2022-12-04_17h01.45.084,vts_reward_expectancy_bt,2022.2.4,Win32,60.27727547,Chrome,1280,720,,,,,0,930,,,,,,,,,,,,,,,,,125,H,triangle,0,1,,,,,,,,,,,,,,,,switch,letter,NA,k,0.1475,Hi,,,,,,2,,,,,,,,high,22,0,22,0,1,,,,,,,,,
298213,2022-12-04_17h01.45.084,vts_reward_expectancy_bt,2022.2.4,Win32,60.27727547,Chrome,1280,720,,,,,0,930,,,,,,,,,,,,,,,,,181,F,hexagon,0,1,,,,,,,,,,,,,,,,switch,number,NA,d,0.312599999,Hi,,,,,,2,,,,,,,,high,23,0,23,0,1,,,,,,,,,
298213,2022-12-04_17h01.45.084,vts_reward_expectancy_bt,2022.2.4,Win32,60.27727547,Chrome,1280,720,,,,,0,930,,,,,,,,,,,,,,,,,160,W,hexagon,0,1,,,,,,,,,,,,,,,,repeat,number,NA,d,0.13,Hi,,,,,,2,,,,,,,,high,24,0,24,0,1,,,,,,,,,
298213,2022-12-04_17h01.45.084,vts_reward_expectancy_bt,2022.2.4,Win32,60.27727547,Chrome,1280,720,,,,,10,940,,,,,,,,,,,,,,,,,125,S,triangle,1,1,,,,,,,,,,,,,,,,switch,letter,lettSwt,k,0.249900001,Hi,,,,,,2,,,,,,,,high,25,0,25,0,1,,,,,,,,,
298213,2022-12-04_17h01.45.084,vts_reward_expectancy_bt,2022.2.4,Win32,60.27727547,Chrome,1280,720,,,,,0,940,,,,,,,,,,,,,,,,,132,H,star,0,0,,,,,,,,,,,,,,,,repeat,letter,NA,k,0.0518,Hi,,,,,,2,,,,,,,,high,26,0,26,0,1,,,,,,,,,
298213,2022-12-04_17h01.45.084,vts_reward_expectancy_bt,2022.2.4,Win32,60.27727547,Chrome,1280,720,,,,,0,940,,,,,,,,,,,,,,,,,167,U,circle,0,1,,,,,,,,,,,,,,,,switch,number,NA,d,0.0987,Hi,,,,,,2,,,,,,,,high,27,0,27,0,1,,,,,,,,,
298213,2022-12-04_17h01.45.084,vts_reward_expectancy_bt,2022.2.4,Win32,60.27727547,Chrome,1280,720,,,,,1,941,,,,,,,,,,,,,,,,,181,F,hexagon,1,1,,,,,,,,,,,,,,,,switch,letter,lettSwt,j,0.031099999,Lo,,,,,,2,,,,,,,,high,28,0,28,0,1,,,,,,,,,
298213,2022-12-04_17h01.45.084,vts_reward_expectancy_bt,2022.2.4,Win32,60.27727547,Chrome,1280,720,,,,,0,941,,,,,,,,,,,,,,,,,174,D,triangle,0,0,,,,,,,,,,,,,,,,switch,number,NA,d,0.058299999,Lo,,,,,,2,,,,,,,,high,29,0,29,0,1,,,,,,,,,
298213,2022-12-04_17h01.45.084,vts_reward_expectancy_bt,2022.2.4,Win32,60.27727547,Chrome,1280,720,,,,,0,941,,,,,,,,,,,,,,,,,146,B,star,1,1,,,,,,,,,,,,,,,,repeat,number,numRpt,d,0.629599999,Hi,,,,,,2,,,,,,,,high,30,0,30,0,1,,,,,,,,,
298213,2022-12-04_17h01.45.084,vts_reward_expectancy_bt,2022.2.4,Win32,60.27727547,Chrome,1280,720,,,,,1,942,,,,,,,,,,,,,,,,,139,Y,circle,1,0,,,,,,,,,,,,,,,,switch,letter,lettSwt,k,0.001700001,Lo,,,,,,2,,,,,,,,high,31,0,31,0,1,,,,,,,,,
298213,2022-12-04_17h01.45.084,vts_reward_expectancy_bt,2022.2.4,Win32,60.27727547,Chrome,1280,720,,,,,0,942,,,,,,,,,,,,,,,,,146,H,triangle,0,0,,,,,,,,,,,,,,,,repeat,letter,NA,k,0.0452,Lo,,,,,,3,,,,,,space,0.6393,high,0,0,0,0,1,,,,,,,,,
298213,2022-12-04_17h01.45.084,vts_reward_expectancy_bt,2022.2.4,Win32,60.27727547,Chrome,1280,720,,,,,0,942,,,,,,,,,,,,,,,,,181,D,star,0,1,,,,,,,,,,,,,,,,switch,number,NA,d,0.001099999,Lo,,,,,,3,,,,,,,,high,1,0,1,0,1,,,,,,,,,
298213,2022-12-04_17h01.45.084,vts_reward_expectancy_bt,2022.2.4,Win32,60.27727547,Chrome,1280,720,,,,,0,942,,,,,,,,,,,,,,,,,160,W,hexagon,0,1,,,,,,,,,,,,,,,,repeat,number,NA,d,0.0447,Lo,,,,,,3,,,,,,,,high,2,0,2,0,1,,,,,,,,,
298213,2022-12-04_17h01.45.084,vts_reward_expectancy_bt,2022.2.4,Win32,60.27727547,Chrome,1280,720,,,,,1,943,,,,,,,,,,,,,,,,,132,U,circle,1,1,,,,,,,,,,,,,,,,switch,letter,lettSwt,k,0.1499,Lo,,,,,,3,,,,,,,,high,3,0,3,0,1,,,,,,,,,
298213,2022-12-04_17h01.45.084,vts_reward_expectancy_bt,2022.2.4,Win32,60.27727547,Chrome,1280,720,,,,,0,943,,,,,,,,,,,,,,,,,167,B,triangle,0,0,,,,,,,,,,,,,,,,repeat,letter,NA,k,0.128400001,Lo,,,,,,3,,,,,,,,high,4,0,4,0,1,,,,,,,,,
298213,2022-12-04_17h01.45.084,vts_reward_expectancy_bt,2022.2.4,Win32,60.27727547,Chrome,1280,720,,,,,0,943,,,,,,,,,,,,,,,,,174,F,star,0,1,,,,,,,,,,,,,,,,repeat,letter,NA,k,0.119099999,Lo,,,,,,3,,,,,,,,high,5,0,5,0,1,,,,,,,,,
298213,2022-12-04_17h01.45.084,vts_reward_expectancy_bt,2022.2.4,Win32,60.27727547,Chrome,1280,720,,,,,0,943,,,,,,,,,,,,,,,,,139,Y,hexagon,0,1,,,,,,,,,,,,,,,,switch,number,NA,f,0.1643,Lo,,,,,,3,,,,,,,,high,6,0,6,0,1,,,,,,,,,
298213,2022-12-04_17h01.45.084,vts_reward_expectancy_bt,2022.2.4,Win32,60.27727547,Chrome,1280,720,,,,,10,953,,,,,,,,,,,,,,,,,125,S,circle,1,1,,,,,,,,,,,,,,,,repeat,number,numRpt,d,0.0796,Lo,,,,,,3,,,,,,,,high,7,0,7,0,1,,,,,,,,,
298213,2022-12-04_17h01.45.084,vts_reward_expectancy_bt,2022.2.4,Win32,60.27727547,Chrome,1280,720,,,,,0,953,,,,,,,,,,,,,,,,,146,H,triangle,0,0,,,,,,,,,,,,,,,,repeat,number,NA,f,0.1685,Lo,,,,,,3,,,,,,,,high,8,0,8,0,1,,,,,,,,,
298213,2022-12-04_17h01.45.084,vts_reward_expectancy_bt,2022.2.4,Win32,60.27727547,Chrome,1280,720,,,,,0,953,,,,,,,,,,,,,,,,,181,D,star,0,1,,,,,,,,,,,,,,,,switch,letter,NA,k,0.048599999,Lo,,,,,,3,,,,,,,,high,9,0,9,0,1,,,,,,,,,
298213,2022-12-04_17h01.45.084,vts_reward_expectancy_bt,2022.2.4,Win32,60.27727547,Chrome,1280,720,,,,,0,953,,,,,,,,,,,,,,,,,160,W,circle,0,1,,,,,,,,,,,,,,,,switch,number,NA,d,0.046,Lo,,,,,,3,,,,,,,,high,10,0,10,0,1,,,,,,,,,
298213,2022-12-04_17h01.45.084,vts_reward_expectancy_bt,2022.2.4,Win32,60.27727547,Chrome,1280,720,,,,,0,953,,,,,,,,,,,,,,,,,132,U,hexagon,0,1,,,,,,,,,,,,,,,,switch,letter,NA,j,0.047099999,Lo,,,,,,3,,,,,,,,high,11,0,11,0,1,,,,,,,,,
298213,2022-12-04_17h01.45.084,vts_reward_expectancy_bt,2022.2.4,Win32,60.27727547,Chrome,1280,720,,,,,0,953,,,,,,,,,,,,,,,,,167,B,circle,0,1,,,,,,,,,,,,,,,,repeat,letter,NA,k,0.0122,Lo,,,,,,3,,,,,,,,high,12,0,12,0,1,,,,,,,,,
298213,2022-12-04_17h01.45.084,vts_reward_expectancy_bt,2022.2.4,Win32,60.27727547,Chrome,1280,720,,,,,0,953,,,,,,,,,,,,,,,,,174,F,triangle,0,1,,,,,,,,,,,,,,,,switch,number,NA,d,0.062900001,Lo,,,,,,3,,,,,,,,high,13,0,13,0,1,,,,,,,,,
298213,2022-12-04_17h01.45.084,vts_reward_expectancy_bt,2022.2.4,Win32,60.27727547,Chrome,1280,720,,,,,0,953,,,,,,,,,,,,,,,,,139,Y,hexagon,0,1,,,,,,,,,,,,,,,,repeat,number,NA,f,0.097900001,Lo,,,,,,3,,,,,,,,high,14,0,14,0,1,,,,,,,,,
298213,2022-12-04_17h01.45.084,vts_reward_expectancy_bt,2022.2.4,Win32,60.27727547,Chrome,1280,720,,,,,10,963,,,,,,,,,,,,,,,,,125,S,star,1,1,,,,,,,,,,,,,,,,repeat,number,numRpt,d,0.001,Hi,,,,,,3,,,,,,,,high,15,0,15,0,1,,,,,,,,,
298213,2022-12-04_17h01.45.084,vts_reward_expectancy_bt,2022.2.4,Win32,60.27727547,Chrome,1280,720,,,,,1,964,,,,,,,,,,,,,,,,,132,U,circle,1,0,,,,,,,,,,,,,,,,repeat,number,numRpt,d,0.0463,Lo,,,,,,3,,,,,,,,high,16,0,16,0,1,,,,,,,,,
298213,2022-12-04_17h01.45.084,vts_reward_expectancy_bt,2022.2.4,Win32,60.27727547,Chrome,1280,720,,,,,10,974,,,,,,,,,,,,,,,,,139,W,triangle,1,0,,,,,,,,,,,,,,,,switch,letter,lettSwt,k,0.0804,Hi,,,,,,3,,,,,,,,high,17,0,17,0,1,,,,,,,,,
298213,2022-12-04_17h01.45.084,vts_reward_expectancy_bt,2022.2.4,Win32,60.27727547,Chrome,1280,720,,,,,0,974,,,,,,,,,,,,,,,,,181,B,star,0,0,,,,,,,,,,,,,,,,switch,number,NA,d,0.0295,Hi,,,,,,3,,,,,,,,high,18,0,18,0,1,,,,,,,,,
298213,2022-12-04_17h01.45.084,vts_reward_expectancy_bt,2022.2.4,Win32,60.27727547,Chrome,1280,720,,,,,1,975,,,,,,,,,,,,,,,,,167,S,hexagon,1,1,,,,,,,,,,,,,,,,repeat,number,numRpt,f,0.0936,Lo,,,,,,3,,,,,,,,high,19,0,19,0,1,,,,,,,,,
298213,2022-12-04_17h01.45.084,vts_reward_expectancy_bt,2022.2.4,Win32,60.27727547,Chrome,1280,720,,,,,0,975,,,,,,,,,,,,,,,,,125,H,circle,0,0,,,,,,,,,,,,,,,,repeat,number,NA,f,0.0415,Lo,,,,,,3,,,,,,,,high,20,0,20,0,1,,,,,,,,,
298213,2022-12-04_17h01.45.084,vts_reward_expectancy_bt,2022.2.4,Win32,60.27727547,Chrome,1280,720,,,,,1,976,,,,,,,,,,,,,,,,,174,Y,star,1,1,,,,,,,,,,,,,,,,repeat,number,numRpt,f,0.0588,Hi,,,,,,3,,,,,,,,high,21,0,21,0,1,,,,,,,,,
298213,2022-12-04_17h01.45.084,vts_reward_expectancy_bt,2022.2.4,Win32,60.27727547,Chrome,1280,720,,,,,0,976,,,,,,,,,,,,,,,,,146,D,hexagon,0,0,,,,,,,,,,,,,,,,repeat,number,NA,f,0.044599999,Hi,,,,,,3,,,,,,,,high,22,0,22,0,1,,,,,,,,,
298213,2022-12-04_17h01.45.084,vts_reward_expectancy_bt,2022.2.4,Win32,60.27727547,Chrome,1280,720,,,,,0,976,,,,,,,,,,,,,,,,,160,F,triangle,0,1,,,,,,,,,,,,,,,,repeat,number,NA,d,0.001900001,Hi,,,,,,3,,,,,,,,high,23,0,23,0,1,,,,,,,,,
298213,2022-12-04_17h01.45.084,vts_reward_expectancy_bt,2022.2.4,Win32,60.27727547,Chrome,1280,720,,,,,0,976,,,,,,,,,,,,,,,,,174,F,star,0,1,,,,,,,,,,,,,,,,switch,letter,NA,k,0.017799999,Hi,,,,,,3,,,,,,,,high,24,0,24,0,1,,,,,,,,,
298213,2022-12-04_17h01.45.084,vts_reward_expectancy_bt,2022.2.4,Win32,60.27727547,Chrome,1280,720,,,,,0,976,,,,,,,,,,,,,,,,,146,B,hexagon,0,1,,,,,,,,,,,,,,,,repeat,letter,NA,k,0.010900001,Hi,,,,,,3,,,,,,,,high,25,0,25,0,1,,,,,,,,,
298213,2022-12-04_17h01.45.084,vts_reward_expectancy_bt,2022.2.4,Win32,60.27727547,Chrome,1280,720,,,,,1,977,,,,,,,,,,,,,,,,,160,W,circle,1,1,,,,,,,,,,,,,,,,switch,number,numSwt,f,0.0803,Lo,,,,,,3,,,,,,,,high,26,0,26,0,1,,,,,,,,,
298213,2022-12-04_17h01.45.084,vts_reward_expectancy_bt,2022.2.4,Win32,60.27727547,Chrome,1280,720,,,,,0,977,,,,,,,,,,,,,,,,,125,U,triangle,1,0,,,,,,,,,,,,,,,,switch,letter,lettSwt,k,0.1168,Hi,,,,,,3,,,,,,,,high,27,0,27,0,1,,,,,,,,,
298213,2022-12-04_17h01.45.084,vts_reward_expectancy_bt,2022.2.4,Win32,60.27727547,Chrome,1280,720,,,,,0,977,,,,,,,,,,,,,,,,,181,D,star,0,0,,,,,,,,,,,,,,,,repeat,letter,NA,k,0.062900001,Hi,,,,,,3,,,,,,,,high,28,0,28,0,1,,,,,,,,,
298213,2022-12-04_17h01.45.084,vts_reward_expectancy_bt,2022.2.4,Win32,60.27727547,Chrome,1280,720,,,,,1,978,,,,,,,,,,,,,,,,,132,H,hexagon,1,1,,,,,,,,,,,,,,,,switch,number,numSwt,d,0.048,Lo,,,,,,3,,,,,,,,high,29,0,29,0,1,,,,,,,,,
298213,2022-12-04_17h01.45.084,vts_reward_expectancy_bt,2022.2.4,Win32,60.27727547,Chrome,1280,720,,,,,1,979,,,,,,,,,,,,,,,,,139,Y,circle,1,0,,,,,,,,,,,,,,,,repeat,number,numRpt,d,0.001599999,Lo,,,,,,3,,,,,,,,high,30,0,30,0,1,,,,,,,,,
298213,2022-12-04_17h01.45.084,vts_reward_expectancy_bt,2022.2.4,Win32,60.27727547,Chrome,1280,720,,,,,0,979,,,,,,,,,,,,,,,,,167,S,triangle,0,0,,,,,,,,,,,,,,,,repeat,number,NA,d,0.0607,Lo,,,,,,3,,,,,,,,high,31,0,31,0,1,,,,,,,,,
298213,2022-12-04_17h01.45.084,vts_reward_expectancy_bt,2022.2.4,Win32,60.27727547,Chrome,1280,720,,,,,0,979,,,,,,,,,,,,,,,,,181,D,triangle,0,1,,,,,,,,,,,,,,,,repeat,number,NA,d,0.0351,Lo,,,,,,4,,,,,,space,1.716799999,high,0,0,0,0,1,,,,,,,,,
298213,2022-12-04_17h01.45.084,vts_reward_expectancy_bt,2022.2.4,Win32,60.27727547,Chrome,1280,720,,,,,1,980,,,,,,,,,,,,,,,,,146,U,circle,1,1,,,,,,,,,,,,,,,,switch,letter,lettSwt,k,0.081900001,Lo,,,,,,4,,,,,,,,high,1,0,1,0,1,,,,,,,,,
298213,2022-12-04_17h01.45.084,vts_reward_expectancy_bt,2022.2.4,Win32,60.27727547,Chrome,1280,720,,,,,10,990,,,,,,,,,,,,,,,,,174,H,star,1,0,,,,,,,,,,,,,,,,switch,number,numSwt,f,0.001400001,Hi,,,,,,4,,,,,,,,high,2,0,2,0,1,,,,,,,,,
298213,2022-12-04_17h01.45.084,vts_reward_expectancy_bt,2022.2.4,Win32,60.27727547,Chrome,1280,720,,,,,0,990,,,,,,,,,,,,,,,,,167,S,hexagon,0,0,,,,,,,,,,,,,,,,switch,letter,NA,j,0.1003,Hi,,,,,,4,,,,,,,,high,3,0,3,0,1,,,,,,,,,
298213,2022-12-04_17h01.45.084,vts_reward_expectancy_bt,2022.2.4,Win32,60.27727547,Chrome,1280,720,,,,,0,990,,,,,,,,,,,,,,,,,139,B,triangle,0,1,,,,,,,,,,,,,,,,repeat,letter,NA,k,0.035400001,Hi,,,,,,4,,,,,,,,high,4,0,4,0,1,,,,,,,,,
298213,2022-12-04_17h01.45.084,vts_reward_expectancy_bt,2022.2.4,Win32,60.27727547,Chrome,1280,720,,,,,0,990,,,,,,,,,,,,,,,,,125,W,circle,0,1,,,,,,,,,,,,,,,,repeat,letter,NA,j,0.1841,Hi,,,,,,4,,,,,,,,high,5,0,5,0,1,,,,,,,,,
298213,2022-12-04_17h01.45.084,vts_reward_expectancy_bt,2022.2.4,Win32,60.27727547,Chrome,1280,720,,,,,0,990,,,,,,,,,,,,,,,,,132,Y,star,1,1,,,,,,,,,,,,,,,,switch,number,numSwt,d,0.0853,Hi,,,,,,4,,,,,,,,high,6,0,6,0,1,,,,,,,,,
298213,2022-12-04_17h01.45.084,vts_reward_expectancy_bt,2022.2.4,Win32,60.27727547,Chrome,1280,720,,,,,1,991,,,,,,,,,,,,,,,,,160,F,hexagon,1,0,,,,,,,,,,,,,,,,switch,letter,lettSwt,j,0.051,Lo,,,,,,4,,,,,,,,high,7,0,7,0,1,,,,,,,,,
298213,2022-12-04_17h01.45.084,vts_reward_expectancy_bt,2022.2.4,Win32,60.27727547,Chrome,1280,720,,,,,0,991,,,,,,,,,,,,,,,,,181,D,hexagon,0,0,,,,,,,,,,,,,,,,switch,number,NA,d,0.037900001,Lo,,,,,,4,,,,,,,,high,8,0,8,0,1,,,,,,,,,
298213,2022-12-04_17h01.45.084,vts_reward_expectancy_bt,2022.2.4,Win32,60.27727547,Chrome,1280,720,,,,,10,1001,,,,,,,,,,,,,,,,,146,U,triangle,1,1,,,,,,,,,,,,,,,,switch,letter,lettSwt,k,0.0502,Hi,,,,,,4,,,,,,,,high,9,0,9,0,1,,,,,,,,,
298213,2022-12-04_17h01.45.084,vts_reward_expectancy_bt,2022.2.4,Win32,60.27727547,Chrome,1280,720,,,,,0,1001,,,,,,,,,,,,,,,,,174,H,star,0,0,,,,,,,,,,,,,,,,switch,number,NA,d,0.0011,Hi,,,,,,4,,,,,,,,high,10,0,10,0,1,,,,,,,,,
298213,2022-12-04_17h01.45.084,vts_reward_expectancy_bt,2022.2.4,Win32,60.27727547,Chrome,1280,720,,,,,0,1001,,,,,,,,,,,,,,,,,167,S,circle,0,1,,,,,,,,,,,,,,,,switch,letter,NA,j,0.0839,Hi,,,,,,4,,,,,,,,high,11,0,11,0,1,,,,,,,,,
298213,2022-12-04_17h01.45.084,vts_reward_expectancy_bt,2022.2.4,Win32,60.27727547,Chrome,1280,720,,,,,10,1011,,,,,,,,,,,,,,,,,139,B,circle,1,1,,,,,,,,,,,,,,,,switch,number,numSwt,d,0.084599999,Lo,,,,,,4,,,,,,,,high,12,0,12,0,1,,,,,,,,,
298213,2022-12-04_17h01.45.084,vts_reward_expectancy_bt,2022.2.4,Win32,60.27727547,Chrome,1280,720,,,,,0,1011,,,,,,,,,,,,,,,,,125,W,triangle,0,0,,,,,,,,,,,,,,,,switch,letter,NA,j,0.084599999,Lo,,,,,,4,,,,,,,,high,13,0,13,0,1,,,,,,,,,
298213,2022-12-04_17h01.45.084,vts_reward_expectancy_bt,2022.2.4,Win32,60.27727547,Chrome,1280,720,,,,,0,1011,,,,,,,,,,,,,,,,,132,Y,star,0,1,,,,,,,,,,,,,,,,repeat,letter,NA,j,0.0601,Lo,,,,,,4,,,,,,,,high,14,0,14,0,1,,,,,,,,,
298213,2022-12-04_17h01.45.084,vts_reward_expectancy_bt,2022.2.4,Win32,60.27727547,Chrome,1280,720,,,,,0,1011,,,,,,,,,,,,,,,,,160,F,hexagon,0,1,,,,,,,,,,,,,,,,switch,number,NA,d,0.099,Lo,,,,,,4,,,,,,,,high,15,0,15,0,1,,,,,,,,,
298213,2022-12-04_17h01.45.084,vts_reward_expectancy_bt,2022.2.4,Win32,60.27727547,Chrome,1280,720,,,,,0,1011,,,,,,,,,,,,,,,,,146,Y,triangle,0,1,,,,,,,,,,,,,,,,repeat,number,NA,f,0.018,Lo,,,,,,4,,,,,,,,high,16,0,16,0,1,,,,,,,,,
298213,2022-12-04_17h01.45.084,vts_reward_expectancy_bt,2022.2.4,Win32,60.27727547,Chrome,1280,720,,,,,0,1011,,,,,,,,,,,,,,,,,160,B,star,0,1,,,,,,,,,,,,,,,,switch,letter,NA,k,0.100599999,Lo,,,,,,4,,,,,,,,high,17,0,17,0,1,,,,,,,,,
298213,2022-12-04_17h01.45.084,vts_reward_expectancy_bt,2022.2.4,Win32,60.27727547,Chrome,1280,720,,,,,0,1011,,,,,,,,,,,,,,,,,132,D,circle,0,1,,,,,,,,,,,,,,,,repeat,letter,NA,k,0.035200001,Lo,,,,,,4,,,,,,,,high,18,0,18,0,1,,,,,,,,,
298213,2022-12-04_17h01.45.084,vts_reward_expectancy_bt,2022.2.4,Win32,60.27727547,Chrome,1280,720,,,,,0,1011,,,,,,,,,,,,,,,,,139,H,hexagon,0,1,,,,,,,,,,,,,,,,switch,number,NA,f,0.1677,Lo,,,,,,4,,,,,,,,high,19,0,19,0,1,,,,,,,,,
298213,2022-12-04_17h01.45.084,vts_reward_expectancy_bt,2022.2.4,Win32,60.27727547,Chrome,1280,720,,,,,0,1011,,,,,,,,,,,,,,,,,167,F,star,0,1,,,,,,,,,,,,,,,,switch,letter,NA,k,0.0343,Lo,,,,,,4,,,,,,,,high,20,0,20,0,1,,,,,,,,,
298213,2022-12-04_17h01.45.084,vts_reward_expectancy_bt,2022.2.4,Win32,60.27727547,Chrome,1280,720,,,,,0,1011,,,,,,,,,,,,,,,,,181,S,triangle,0,1,,,,,,,,,,,,,,,,repeat,letter,NA,j,0.068400001,Lo,,,,,,4,,,,,,,,high,21,0,21,0,1,,,,,,,,,
298213,2022-12-04_17h01.45.084,vts_reward_expectancy_bt,2022.2.4,Win32,60.27727547,Chrome,1280,720,,,,,1,1012,,,,,,,,,,,,,,,,,174,W,hexagon,1,1,,,,,,,,,,,,,,,,repeat,letter,lettRpt,k,0.008400001,Lo,,,,,,4,,,,,,,,high,22,0,22,0,1,,,,,,,,,
298213,2022-12-04_17h01.45.084,vts_reward_expectancy_bt,2022.2.4,Win32,60.27727547,Chrome,1280,720,,,,,0,1012,,,,,,,,,,,,,,,,,125,U,circle,0,0,,,,,,,,,,,,,,,,repeat,letter,NA,j,0.068,Lo,,,,,,4,,,,,,,,high,23,0,23,0,1,,,,,,,,,
298213,2022-12-04_17h01.45.084,vts_reward_expectancy_bt,2022.2.4,Win32,60.27727547,Chrome,1280,720,,,,,0,1012,,,,,,,,,,,,,,,,,167,F,star,0,1,,,,,,,,,,,,,,,,repeat,letter,NA,k,0.001,Lo,,,,,,4,,,,,,,,high,24,0,24,0,1,,,,,,,,,
298213,2022-12-04_17h01.45.084,vts_reward_expectancy_bt,2022.2.4,Win32,60.27727547,Chrome,1280,720,,,,,0,1012,,,,,,,,,,,,,,,,,174,H,triangle,0,1,,,,,,,,,,,,,,,,repeat,letter,NA,k,0.1512,Lo,,,,,,4,,,,,,,,high,25,0,25,0,1,,,,,,,,,
298213,2022-12-04_17h01.45.084,vts_reward_expectancy_bt,2022.2.4,Win32,60.27727547,Chrome,1280,720,,,,,1,1013,,,,,,,,,,,,,,,,,181,Y,circle,1,1,,,,,,,,,,,,,,,,switch,number,numSwt,f,0.2183,Lo,,,,,,4,,,,,,,,high,26,0,26,0,1,,,,,,,,,
298213,2022-12-04_17h01.45.084,vts_reward_expectancy_bt,2022.2.4,Win32,60.27727547,Chrome,1280,720,,,,,1,1014,,,,,,,,,,,,,,,,,125,S,hexagon,1,0,,,,,,,,,,,,,,,,switch,letter,lettSwt,k,0.0668,Lo,,,,,,4,,,,,,,,high,27,0,27,0,1,,,,,,,,,
298213,2022-12-04_17h01.45.084,vts_reward_expectancy_bt,2022.2.4,Win32,60.27727547,Chrome,1280,720,,,,,10,1024,,,,,,,,,,,,,,,,,139,D,triangle,1,0,,,,,,,,,,,,,,,,repeat,letter,lettRpt,j,0.133900001,Hi,,,,,,4,,,,,,,,high,28,0,28,0,1,,,,,,,,,
298213,2022-12-04_17h01.45.084,vts_reward_expectancy_bt,2022.2.4,Win32,60.27727547,Chrome,1280,720,,,,,0,1024,,,,,,,,,,,,,,,,,132,B,circle,0,0,,,,,,,,,,,,,,,,repeat,letter,NA,k,0.191,Hi,,,,,,4,,,,,,,,high,29,0,29,0,1,,,,,,,,,
298213,2022-12-04_17h01.45.084,vts_reward_expectancy_bt,2022.2.4,Win32,60.27727547,Chrome,1280,720,,,,,0,1024,,,,,,,,,,,,,,,,,146,U,hexagon,0,1,,,,,,,,,,,,,,,,switch,number,NA,f,0.0012,Hi,,,,,,4,,,,,,,,high,30,0,30,0,1,,,,,,,,,
298213,2022-12-04_17h01.45.084,vts_reward_expectancy_bt,2022.2.4,Win32,60.27727547,Chrome,1280,720,,,,,0,1024,,,,,,,,,,,,,,,,,160,W,star,1,1,,,,,,,,,,,,,,,,switch,letter,lettSwt,k,0.2678,Hi,,,,,,4,,,,,,,,high,31,0,31,0,1,,,,,,,,,
298213,2022-12-04_17h01.45.084,vts_reward_expectancy_bt,2022.2.4,Win32,60.27727547,Chrome,1280,720,,,,,0,1024,,,,,,,,,,,,,,,,,125,F,circle,0,0,,,,,,,,,,,,,,,,repeat,letter,NA,k,0.0969,Hi,,,,,,5,,,,,,space,0.9196,high,0,0,0,0,1,,,,,,,,,
298213,2022-12-04_17h01.45.084,vts_reward_expectancy_bt,2022.2.4,Win32,60.27727547,Chrome,1280,720,,,,,0,1024,,,,,,,,,,,,,,,,,160,S,triangle,1,1,,,,,,,,,,,,,,,,repeat,letter,lettRpt,k,0.0505,Hi,,,,,,5,,,,,,,,high,1,0,1,0,1,,,,,,,,,
298213,2022-12-04_17h01.45.084,vts_reward_expectancy_bt,2022.2.4,Win32,60.27727547,Chrome,1280,720,,,,,0,1024,,,,,,,,,,,,,,,,,167,H,star,1,0,,,,,,,,,,,,,,,,repeat,letter,lettRpt,j,0.0693,Hi,,,,,,5,,,,,,,,high,2,0,2,0,1,,,,,,,,,
298213,2022-12-04_17h01.45.084,vts_reward_expectancy_bt,2022.2.4,Win32,60.27727547,Chrome,1280,720,,,,,0,1024,,,,,,,,,,,,,,,,,139,W,hexagon,0,0,,,,,,,,,,,,,,,,repeat,letter,NA,j,0.0175,Hi,,,,,,5,,,,,,,,high,3,0,3,0,1,,,,,,,,,
298213,2022-12-04_17h01.45.084,vts_reward_expectancy_bt,2022.2.4,Win32,60.27727547,Chrome,1280,720,,,,,0,1024,,,,,,,,,,,,,,,,,146,Y,circle,0,1,,,,,,,,,,,,,,,,repeat,letter,NA,j,0.0327,Hi,,,,,,5,,,,,,,,high,4,0,4,0,1,,,,,,,,,
298213,2022-12-04_17h01.45.084,vts_reward_expectancy_bt,2022.2.4,Win32,60.27727547,Chrome,1280,720,,,,,0,1024,,,,,,,,,,,,,,,,,132,D,triangle,1,1,,,,,,,,,,,,,,,,switch,number,numSwt,d,0.1245,Hi,,,,,,5,,,,,,,,high,5,0,5,0,1,,,,,,,,,
298213,2022-12-04_17h01.45.084,vts_reward_expectancy_bt,2022.2.4,Win32,60.27727547,Chrome,1280,720,,,,,0,1024,,,,,,,,,,,,,,,,,174,B,star,0,0,,,,,,,,,,,,,,,,switch,letter,NA,k,0.0011,Hi,,,,,,5,,,,,,,,high,6,0,6,0,1,,,,,,,,,
298213,2022-12-04_17h01.45.084,vts_reward_expectancy_bt,2022.2.4,Win32,60.27727547,Chrome,1280,720,,,,,0,1024,,,,,,,,,,,,,,,,,181,U,hexagon,0,1,,,,,,,,,,,,,,,,switch,number,NA,d,0.1012,Hi,,,,,,5,,,,,,,,high,7,0,7,0,1,,,,,,,,,
298213,2022-12-04_17h01.45.084,vts_reward_expectancy_bt,2022.2.4,Win32,60.27727547,Chrome,1280,720,,,,,0,1024,,,,,,,,,,,,,,,,,125,F,circle,0,1,,,,,,,,,,,,,,,,switch,letter,NA,k,0.0507,Hi,,,,,,5,,,,,,,,high,8,0,8,0,1,,,,,,,,,
298213,2022-12-04_17h01.45.084,vts_reward_expectancy_bt,2022.2.4,Win32,60.27727547,Chrome,1280,720,,,,,1,1025,,,,,,,,,,,,,,,,,160,S,triangle,1,1,,,,,,,,,,,,,,,,switch,number,numSwt,f,0.0009,Hi,,,,,,5,,,,,,,,high,9,0,9,0,1,,,,,,,,,
298213,2022-12-04_17h01.45.084,vts_reward_expectancy_bt,2022.2.4,Win32,60.27727547,Chrome,1280,720,,,,,1,1026,,,,,,,,,,,,,,,,,167,H,hexagon,1,0,,,,,,,,,,,,,,,,repeat,number,numRpt,f,0.000900001,Lo,,,,,,5,,,,,,,,high,10,0,10,0,1,,,,,,,,,
298213,2022-12-04_17h01.45.084,vts_reward_expectancy_bt,2022.2.4,Win32,60.27727547,Chrome,1280,720,,,,,10,1036,,,,,,,,,,,,,,,,,139,W,star,1,0,,,,,,,,,,,,,,,,switch,letter,lettSwt,k,0.0514,Hi,,,,,,5,,,,,,,,high,11,0,11,0,1,,,,,,,,,
298213,2022-12-04_17h01.45.084,vts_reward_expectancy_bt,2022.2.4,Win32,60.27727547,Chrome,1280,720,,,,,10,1046,,,,,,,,,,,,,,,,,146,Y,circle,1,0,,,,,,,,,,,,,,,,switch,number,numSwt,d,0.0349,Lo,,,,,,5,,,,,,,,high,12,0,12,0,1,,,,,,,,,
298213,2022-12-04_17h01.45.084,vts_reward_expectancy_bt,2022.2.4,Win32,60.27727547,Chrome,1280,720,,,,,1,1047,,,,,,,,,,,,,,,,,132,D,hexagon,1,0,,,,,,,,,,,,,,,,repeat,number,numRpt,d,0.0009,Lo,,,,,,5,,,,,,,,high,13,0,13,0,1,,,,,,,,,
298213,2022-12-04_17h01.45.084,vts_reward_expectancy_bt,2022.2.4,Win32,60.27727547,Chrome,1280,720,,,,,0,1047,,,,,,,,,,,,,,,,,174,B,triangle,0,0,,,,,,,,,,,,,,,,switch,letter,NA,k,0.018099999,Lo,,,,,,5,,,,,,,,high,14,0,14,0,1,,,,,,,,,
298213,2022-12-04_17h01.45.084,vts_reward_expectancy_bt,2022.2.4,Win32,60.27727547,Chrome,1280,720,,,,,0,1047,,,,,,,,,,,,,,,,,181,U,star,0,1,,,,,,,,,,,,,,,,switch,number,NA,d,0.0837,Lo,,,,,,5,,,,,,,,high,15,0,15,0,1,,,,,,,,,
298213,2022-12-04_17h01.45.084,vts_reward_expectancy_bt,2022.2.4,Win32,60.27727547,Chrome,1280,720,,,,,0,1047,,,,,,,,,,,,,,,,,125,W,triangle,0,1,,,,,,,,,,,,,,,,switch,letter,NA,j,0.084900001,Lo,,,,,,5,,,,,,,,high,16,0,16,0,1,,,,,,,,,
298213,2022-12-04_17h01.45.084,vts_reward_expectancy_bt,2022.2.4,Win32,60.27727547,Chrome,1280,720,,,,,10,1057,,,,,,,,,,,,,,,,,160,U,hexagon,1,1,,,,,,,,,,,,,,,,switch,number,numSwt,f,0.035,Lo,,,,,,5,,,,,,,,high,17,0,17,0,1,,,,,,,,,
298213,2022-12-04_17h01.45.084,vts_reward_expectancy_bt,2022.2.4,Win32,60.27727547,Chrome,1280,720,,,,,10,1067,,,,,,,,,,,,,,,,,167,H,star,1,0,,,,,,,,,,,,,,,,repeat,number,numRpt,f,0.002200001,Hi,,,,,,5,,,,,,,,high,18,0,18,0,1,,,,,,,,,
298213,2022-12-04_17h01.45.084,vts_reward_expectancy_bt,2022.2.4,Win32,60.27727547,Chrome,1280,720,,,,,0,1067,,,,,,,,,,,,,,,,,181,S,circle,0,0,,,,,,,,,,,,,,,,switch,letter,NA,j,0.018,Hi,,,,,,5,,,,,,,,high,19,0,19,0,1,,,,,,,,,
298213,2022-12-04_17h01.45.084,vts_reward_expectancy_bt,2022.2.4,Win32,60.27727547,Chrome,1280,720,,,,,10,1077,,,,,,,,,,,,,,,,,146,Y,triangle,1,1,,,,,,,,,,,,,,,,switch,number,numSwt,d,0.0067,Hi,,,,,,5,,,,,,,,high,20,0,20,0,1,,,,,,,,,
298213,2022-12-04_17h01.45.084,vts_reward_expectancy_bt,2022.2.4,Win32,60.27727547,Chrome,1280,720,,,,,1,1078,,,,,,,,,,,,,,,,,132,F,hexagon,1,0,,,,,,,,,,,,,,,,repeat,number,numRpt,d,0.035799999,Lo,,,,,,5,,,,,,,,high,21,0,21,0,1,,,,,,,,,
298213,2022-12-04_17h01.45.084,vts_reward_expectancy_bt,2022.2.4,Win32,60.27727547,Chrome,1280,720,,,,,1,1079,,,,,,,,,,,,,,,,,139,D,circle,1,0,,,,,,,,,,,,,,,,repeat,number,numRpt,d,0.0175,Lo,,,,,,5,,,,,,,,high,22,0,22,0,1,,,,,,,,,
298213,2022-12-04_17h01.45.084,vts_reward_expectancy_bt,2022.2.4,Win32,60.27727547,Chrome,1280,720,,,,,0,1079,,,,,,,,,,,,,,,,,174,B,star,0,0,,,,,,,,,,,,,,,,switch,letter,NA,k,0.065400001,Lo,,,,,,5,,,,,,,,high,23,0,23,0,1,,,,,,,,,
298213,2022-12-04_17h01.45.084,vts_reward_expectancy_bt,2022.2.4,Win32,60.27727547,Chrome,1280,720,,,,,1,1080,,,,,,,,,,,,,,,,,132,H,hexagon,1,1,,,,,,,,,,,,,,,,switch,number,numSwt,d,0.0168,Lo,,,,,,5,,,,,,,,high,24,0,24,0,1,,,,,,,,,
298213,2022-12-04_17h01.45.084,vts_reward_expectancy_bt,2022.2.4,Win32,60.27727547,Chrome,1280,720,,,,,1,1081,,,,,,,,,,,,,,,,,146,F,circle,1,0,,,,,,,,,,,,,,,,switch,letter,lettSwt,j,0.0355,Lo,,,,,,5,,,,,,,,high,25,0,25,0,1,,,,,,,,,
298213,2022-12-04_17h01.45.084,vts_reward_expectancy_bt,2022.2.4,Win32,60.27727547,Chrome,1280,720,,,,,0,1081,,,,,,,,,,,,,,,,,139,D,triangle,1,0,,,,,,,,,,,,,,,,repeat,letter,lettRpt,j,0.0455,Hi,,,,,,5,,,,,,,,high,26,0,26,0,1,,,,,,,,,
298213,2022-12-04_17h01.45.084,vts_reward_expectancy_bt,2022.2.4,Win32,60.27727547,Chrome,1280,720,,,,,10,1091,,,,,,,,,,,,,,,,,160,U,star,1,0,,,,,,,,,,,,,,,,switch,number,numSwt,f,0.0498,Hi,,,,,,5,,,,,,,,high,27,0,27,0,1,,,,,,,,,
298213,2022-12-04_17h01.45.084,vts_reward_expectancy_bt,2022.2.4,Win32,60.27727547,Chrome,1280,720,,,,,10,1101,,,,,,,,,,,,,,,,,167,W,star,1,0,,,,,,,,,,,,,,,,repeat,number,numRpt,f,0.0665,Hi,,,,,,5,,,,,,,,high,28,0,28,0,1,,,,,,,,,
298213,2022-12-04_17h01.45.084,vts_reward_expectancy_bt,2022.2.4,Win32,60.27727547,Chrome,1280,720,,,,,0,1101,,,,,,,,,,,,,,,,,125,Y,circle,0,0,,,,,,,,,,,,,,,,repeat,number,NA,f,0.017400001,Hi,,,,,,5,,,,,,,,high,29,0,29,0,1,,,,,,,,,
298213,2022-12-04_17h01.45.084,vts_reward_expectancy_bt,2022.2.4,Win32,60.27727547,Chrome,1280,720,,,,,0,1101,,,,,,,,,,,,,,,,,174,S,hexagon,0,1,,,,,,,,,,,,,,,,switch,letter,NA,j,0.0122,Hi,,,,,,5,,,,,,,,high,30,0,30,0,1,,,,,,,,,
298213,2022-12-04_17h01.45.084,vts_reward_expectancy_bt,2022.2.4,Win32,60.27727547,Chrome,1280,720,,,,,1,1102,,,,,,,,,,,,,,,,,181,B,triangle,1,1,,,,,,,,,,,,,,,,switch,number,numSwt,f,0.0465,Hi,,,,,,5,,,,,,,,high,31,0,31,0,1,,,,,,,,,
298213,2022-12-04_17h01.45.084,vts_reward_expectancy_bt,2022.2.4,Win32,60.27727547,Chrome,1280,720,,,,,0,1102,,,,,,,,,,,,,,,,,139,Y,star,0,0,,,,,,,,,,,,,,,,switch,letter,NA,j,0.017900001,Hi,,,,,,6,,,,,,space,1.3045,high,0,0,0,0,1,,,,,,,,,
298213,2022-12-04_17h01.45.084,vts_reward_expectancy_bt,2022.2.4,Win32,60.27727547,Chrome,1280,720,,,,,1,1103,,,,,,,,,,,,,,,,,125,F,hexagon,1,1,,,,,,,,,,,,,,,,repeat,letter,lettRpt,j,0.0164,Lo,,,,,,6,,,,,,,,high,1,0,1,0,1,,,,,,,,,
298213,2022-12-04_17h01.45.084,vts_reward_expectancy_bt,2022.2.4,Win32,60.27727547,Chrome,1280,720,,,,,1,1104,,,,,,,,,,,,,,,,,167,S,circle,1,0,,,,,,,,,,,,,,,,repeat,letter,lettRpt,k,0.051900001,Lo,,,,,,6,,,,,,,,high,2,0,2,0,1,,,,,,,,,
298213,2022-12-04_17h01.45.084,vts_reward_expectancy_bt,2022.2.4,Win32,60.27727547,Chrome,1280,720,,,,,0,1104,,,,,,,,,,,,,,,,,146,U,triangle,0,0,,,,,,,,,,,,,,,,repeat,letter,NA,j,0.0009,Lo,,,,,,6,,,,,,,,high,3,0,3,0,1,,,,,,,,,
298213,2022-12-04_17h01.45.084,vts_reward_expectancy_bt,2022.2.4,Win32,60.27727547,Chrome,1280,720,,,,,0,1104,,,,,,,,,,,,,,,,,160,D,star,0,1,,,,,,,,,,,,,,,,switch,number,NA,d,0.0273,Lo,,,,,,6,,,,,,,,high,4,0,4,0,1,,,,,,,,,
298213,2022-12-04_17h01.45.084,vts_reward_expectancy_bt,2022.2.4,Win32,60.27727547,Chrome,1280,720,,,,,10,1114,,,,,,,,,,,,,,,,,174,W,hexagon,1,1,,,,,,,,,,,,,,,,switch,letter,lettSwt,k,0.001,Lo,,,,,,6,,,,,,,,high,5,0,5,0,1,,,,,,,,,
298213,2022-12-04_17h01.45.084,vts_reward_expectancy_bt,2022.2.4,Win32,60.27727547,Chrome,1280,720,,,,,1,1115,,,,,,,,,,,,,,,,,181,H,circle,1,0,,,,,,,,,,,,,,,,repeat,letter,lettRpt,j,0.233400001,Lo,,,,,,6,,,,,,,,high,6,0,6,0,1,,,,,,,,,
298213,2022-12-04_17h01.45.084,vts_reward_expectancy_bt,2022.2.4,Win32,60.27727547,Chrome,1280,720,,,,,0,1115,,,,,,,,,,,,,,,,,132,B,triangle,1,0,,,,,,,,,,,,,,,,repeat,letter,lettRpt,j,0.0682,Hi,,,,,,6,,,,,,,,high,7,0,7,0,1,,,,,,,,,
298213,2022-12-04_17h01.45.084,vts_reward_expectancy_bt,2022.2.4,Win32,60.27727547,Chrome,1280,720,,,,,10,1125,,,,,,,,,,,,,,,,,139,Y,circle,1,0,,,,,,,,,,,,,,,,switch,number,numSwt,d,0.008700001,Lo,,,,,,6,,,,,,,,high,8,0,8,0,1,,,,,,,,,
298213,2022-12-04_17h01.45.084,vts_reward_expectancy_bt,2022.2.4,Win32,60.27727547,Chrome,1280,720,,,,,0,1125,,,,,,,,,,,,,,,,,125,F,star,1,0,,,,,,,,,,,,,,,,switch,letter,lettSwt,j,0.132599999,Hi,,,,,,6,,,,,,,,high,9,0,9,0,1,,,,,,,,,
298213,2022-12-04_17h01.45.084,vts_reward_expectancy_bt,2022.2.4,Win32,60.27727547,Chrome,1280,720,,,,,0,1125,,,,,,,,,,,,,,,,,167,S,triangle,1,0,,,,,,,,,,,,,,,,repeat,letter,lettRpt,k,0.1852,Hi,,,,,,6,,,,,,,,high,10,0,10,0,1,,,,,,,,,
298213,2022-12-04_17h01.45.084,vts_reward_expectancy_bt,2022.2.4,Win32,60.27727547,Chrome,1280,720,,,,,1,1126,,,,,,,,,,,,,,,,,146,U,hexagon,1,0,,,,,,,,,,,,,,,,switch,number,numSwt,d,0.384,Lo,,,,,,6,,,,,,,,high,11,0,11,0,1,,,,,,,,,
298213,2022-12-04_17h01.45.084,vts_reward_expectancy_bt,2022.2.4,Win32,60.27727547,Chrome,1280,720,,,,,0,1126,,,,,,,,,,,,,,,,,160,D,star,0,0,,,,,,,,,,,,,,,,switch,letter,NA,k,0.201200001,Lo,,,,,,6,,,,,,,,high,12,0,12,0,1,,,,,,,,,
298213,2022-12-04_17h01.45.084,vts_reward_expectancy_bt,2022.2.4,Win32,60.27727547,Chrome,1280,720,,,,,0,1126,,,,,,,,,,,,,,,,,174,W,triangle,0,1,,,,,,,,,,,,,,,,repeat,letter,NA,j,0.133900001,Lo,,,,,,6,,,,,,,,high,13,0,13,0,1,,,,,,,,,
298213,2022-12-04_17h01.45.084,vts_reward_expectancy_bt,2022.2.4,Win32,60.27727547,Chrome,1280,720,,,,,0,1126,,,,,,,,,,,,,,,,,181,H,circle,0,1,,,,,,,,,,,,,,,,repeat,letter,NA,k,0.0343,Lo,,,,,,6,,,,,,,,high,14,0,14,0,1,,,,,,,,,
