participant,date,expName,psychopyVersion,OS,frameRate,browser,xResolution,yResolution,key_resp.keys,key_resp.rt,training_resp.keys,training_resp.rt,points_trial,points_cumul,trainBlock,training.thisRepN,training.thisTrialN,training.thisN,training.thisIndex,training.ran,LTriangleOpac,LCircleOpac,LHexagonOpac,LStarOpac,RTriangleOpac,RCircleOpac,RHexagonOpac,RStarOpac,LShape_ID,RShape_ID,curr_topStim,curr_bottStim,curr_shape,acc,E1,target_resp_prac1.keys,target_resp_prac1.rt,pracBlock,task1_prac_trials.thisRepN,task1_prac_trials.thisTrialN,task1_prac_trials.thisN,task1_prac_trials.thisIndex,task1_prac_trials.ran,target_resp_prac2.keys,target_resp_prac2.rt,task2_praac_trials.thisRepN,task2_praac_trials.thisTrialN,task2_praac_trials.thisN,task2_praac_trials.thisIndex,task2_praac_trials.ran,alt,task,condition,target_resp.keys,rewCond,vts_practice_trials.thisRepN,vts_practice_trials.thisTrialN,vts_practice_trials.thisN,vts_practice_trials.thisIndex,vts_practice_trials.ran,target_resp.rt,blockNum,trials_norew.thisRepN,trials_norew.thisTrialN,trials_norew.thisN,trials_norew.thisIndex,trials_norew.ran,key_resp_2.keys,key_resp_2.rt,rewExpectancy,trials_rew.thisRepN,trials_rew.thisTrialN,trials_rew.thisN,trials_rew.thisIndex,trials_rew.ran,Q1,Q2,Q2_text,Q3,Q4,Q5_text,Q5,xRes,yRes
298252,2022-11-22_16h13.42.282,vts_reward_expectancy_bt,2022.2.4,Win32,60.0240096,Chrome,1440,960,,,,,,,,,,,,,,,,,,,,,,,,,,,,,,,,,,,,,,,,,,,,,,,,,,,,,,,,,,,,,,,,,,,,,,,,,,,,
298252,2022-11-22_16h13.42.282,vts_reward_expectancy_bt,2022.2.4,Win32,60.0240096,Chrome,1440,960,space,5.2386,,,,,,,,,,,,,,,,,,,,,,,,,,,,,,,,,,,,,,,,,,,,,,,,,,,,,,,,,,,,,,,,,,,,,,,,,,
298252,2022-11-22_16h13.42.282,vts_reward_expectancy_bt,2022.2.4,Win32,60.0240096,Chrome,1440,960,,,,,,,,,,,,,,,,,,,,,,,,,,,,,,,,,,,,,,,,,,,,,,,,,,,,,,,,,,,,,,,,,,,,,,,,,,,,
298252,2022-11-22_16h13.42.282,vts_reward_expectancy_bt,2022.2.4,Win32,60.0240096,Chrome,1440,960,,,a,1.9413,1,1,0,0,0,0,6,1,0,0,1,0,1,0,0,0,hexagon,triangle,,,,,,,,,,,,,,,,,,,,,,,,,,,,,,,,,,,,,,,,,,,,,,,,,,,,,,
298252,2022-11-22_16h13.42.282,vts_reward_expectancy_bt,2022.2.4,Win32,60.0240096,Chrome,1440,960,,,l,0.6784,10,11,0,0,1,1,0,1,1,0,0,0,0,1,0,0,triangle,circle,,,,,,,,,,,,,,,,,,,,,,,,,,,,,,,,,,,,,,,,,,,,,,,,,,,,,,
298252,2022-11-22_16h13.42.282,vts_reward_expectancy_bt,2022.2.4,Win32,60.0240096,Chrome,1440,960,,,l,0.636,10,21,0,0,2,2,7,1,0,0,1,0,0,1,0,0,hexagon,circle,,,,,,,,,,,,,,,,,,,,,,,,,,,,,,,,,,,,,,,,,,,,,,,,,,,,,,
298252,2022-11-22_16h13.42.282,vts_reward_expectancy_bt,2022.2.4,Win32,60.0240096,Chrome,1440,960,,,a,0.6072,1,22,0,0,3,3,8,1,0,0,1,0,0,0,0,1,hexagon,star,,,,,,,,,,,,,,,,,,,,,,,,,,,,,,,,,,,,,,,,,,,,,,,,,,,,,,
298252,2022-11-22_16h13.42.282,vts_reward_expectancy_bt,2022.2.4,Win32,60.0240096,Chrome,1440,960,,,l,0.8133,10,32,0,0,4,4,3,1,0,1,0,0,1,0,0,0,circle,triangle,,,,,,,,,,,,,,,,,,,,,,,,,,,,,,,,,,,,,,,,,,,,,,,,,,,,,,
298252,2022-11-22_16h13.42.282,vts_reward_expectancy_bt,2022.2.4,Win32,60.0240096,Chrome,1440,960,,,a,0.6857,10,42,0,0,5,5,11,1,0,0,0,1,0,0,1,0,star,hexagon,,,,,,,,,,,,,,,,,,,,,,,,,,,,,,,,,,,,,,,,,,,,,,,,,,,,,,
298252,2022-11-22_16h13.42.282,vts_reward_expectancy_bt,2022.2.4,Win32,60.0240096,Chrome,1440,960,,,l,0.4147,1,43,0,0,6,6,10,1,0,0,0,1,0,1,0,0,star ,circle,,,,,,,,,,,,,,,,,,,,,,,,,,,,,,,,,,,,,,,,,,,,,,,,,,,,,,
298252,2022-11-22_16h13.42.282,vts_reward_expectancy_bt,2022.2.4,Win32,60.0240096,Chrome,1440,960,,,a,0.5972,1,44,0,0,7,7,9,1,0,0,0,1,1,0,0,0,star,triangle,,,,,,,,,,,,,,,,,,,,,,,,,,,,,,,,,,,,,,,,,,,,,,,,,,,,,,
298252,2022-11-22_16h13.42.282,vts_reward_expectancy_bt,2022.2.4,Win32,60.0240096,Chrome,1440,960,,,l,0.9938,1,45,0,0,8,8,1,1,1,0,0,0,0,0,1,0,triangle,hexagon,,,,,,,,,,,,,,,,,,,,,,,,,,,,,,,,,,,,,,,,,,,,,,,,,,,,,,
298252,2022-11-22_16h13.42.282,vts_reward_expectancy_bt,2022.2.4,Win32,60.0240096,Chrome,1440,960,,,l,1.0736,1,46,0,0,9,9,2,1,1,0,0,0,0,0,0,1,triangle,star,,,,,,,,,,,,,,,,,,,,,,,,,,,,,,,,,,,,,,,,,,,,,,,,,,,,,,
298252,2022-11-22_16h13.42.282,vts_reward_expectancy_bt,2022.2.4,Win32,60.0240096,Chrome,1440,960,,,a,1.4614,1,47,0,0,10,10,4,1,0,1,0,0,0,0,1,0,circle,hexagon,,,,,,,,,,,,,,,,,,,,,,,,,,,,,,,,,,,,,,,,,,,,,,,,,,,,,,
298252,2022-11-22_16h13.42.282,vts_reward_expectancy_bt,2022.2.4,Win32,60.0240096,Chrome,1440,960,,,l,0.5192,10,57,0,0,11,11,5,1,0,1,0,0,0,0,0,1,circle,star,,,,,,,,,,,,,,,,,,,,,,,,,,,,,,,,,,,,,,,,,,,,,,,,,,,,,,
298252,2022-11-22_16h13.42.282,vts_reward_expectancy_bt,2022.2.4,Win32,60.0240096,Chrome,1440,960,,,a,0.8998,1,58,0,1,0,12,8,1,0,0,1,0,0,0,0,1,hexagon,star,,,,,,,,,,,,,,,,,,,,,,,,,,,,,,,,,,,,,,,,,,,,,,,,,,,,,,
298252,2022-11-22_16h13.42.282,vts_reward_expectancy_bt,2022.2.4,Win32,60.0240096,Chrome,1440,960,,,l,0.767,1,59,0,1,1,13,7,1,0,0,1,0,0,1,0,0,hexagon,circle,,,,,,,,,,,,,,,,,,,,,,,,,,,,,,,,,,,,,,,,,,,,,,,,,,,,,,
298252,2022-11-22_16h13.42.282,vts_reward_expectancy_bt,2022.2.4,Win32,60.0240096,Chrome,1440,960,,,a,0.7265,1,60,0,1,2,14,10,1,0,0,0,1,0,1,0,0,star ,circle,,,,,,,,,,,,,,,,,,,,,,,,,,,,,,,,,,,,,,,,,,,,,,,,,,,,,,
298252,2022-11-22_16h13.42.282,vts_reward_expectancy_bt,2022.2.4,Win32,60.0240096,Chrome,1440,960,,,a,0.4978,10,70,0,1,3,15,3,1,0,1,0,0,1,0,0,0,circle,triangle,,,,,,,,,,,,,,,,,,,,,,,,,,,,,,,,,,,,,,,,,,,,,,,,,,,,,,
298252,2022-11-22_16h13.42.282,vts_reward_expectancy_bt,2022.2.4,Win32,60.0240096,Chrome,1440,960,,,a,0.6678,1,71,0,1,4,16,6,1,0,0,1,0,1,0,0,0,hexagon,triangle,,,,,,,,,,,,,,,,,,,,,,,,,,,,,,,,,,,,,,,,,,,,,,,,,,,,,,
298252,2022-11-22_16h13.42.282,vts_reward_expectancy_bt,2022.2.4,Win32,60.0240096,Chrome,1440,960,,,a,35.5525,1,72,0,1,5,17,5,1,0,1,0,0,0,0,0,1,circle,star,,,,,,,,,,,,,,,,,,,,,,,,,,,,,,,,,,,,,,,,,,,,,,,,,,,,,,
298252,2022-11-22_16h13.42.282,vts_reward_expectancy_bt,2022.2.4,Win32,60.0240096,Chrome,1440,960,,,l,0.7238,10,82,0,1,6,18,0,1,1,0,0,0,0,1,0,0,triangle,circle,,,,,,,,,,,,,,,,,,,,,,,,,,,,,,,,,,,,,,,,,,,,,,,,,,,,,,
298252,2022-11-22_16h13.42.282,vts_reward_expectancy_bt,2022.2.4,Win32,60.0240096,Chrome,1440,960,,,a,0.2987,10,92,0,1,7,19,1,1,1,0,0,0,0,0,1,0,triangle,hexagon,,,,,,,,,,,,,,,,,,,,,,,,,,,,,,,,,,,,,,,,,,,,,,,,,,,,,,
298252,2022-11-22_16h13.42.282,vts_reward_expectancy_bt,2022.2.4,Win32,60.0240096,Chrome,1440,960,,,a,1.6845,1,93,0,1,8,20,9,1,0,0,0,1,1,0,0,0,star,triangle,,,,,,,,,,,,,,,,,,,,,,,,,,,,,,,,,,,,,,,,,,,,,,,,,,,,,,
298252,2022-11-22_16h13.42.282,vts_reward_expectancy_bt,2022.2.4,Win32,60.0240096,Chrome,1440,960,,,a,0.7009,1,94,0,1,9,21,2,1,1,0,0,0,0,0,0,1,triangle,star,,,,,,,,,,,,,,,,,,,,,,,,,,,,,,,,,,,,,,,,,,,,,,,,,,,,,,
298252,2022-11-22_16h13.42.282,vts_reward_expectancy_bt,2022.2.4,Win32,60.0240096,Chrome,1440,960,,,a,0.5831,1,95,0,1,10,22,4,1,0,1,0,0,0,0,1,0,circle,hexagon,,,,,,,,,,,,,,,,,,,,,,,,,,,,,,,,,,,,,,,,,,,,,,,,,,,,,,
298252,2022-11-22_16h13.42.282,vts_reward_expectancy_bt,2022.2.4,Win32,60.0240096,Chrome,1440,960,,,a,0.5604,1,96,0,1,11,23,11,1,0,0,0,1,0,0,1,0,star,hexagon,,,,,,,,,,,,,,,,,,,,,,,,,,,,,,,,,,,,,,,,,,,,,,,,,,,,,,
298252,2022-11-22_16h13.42.282,vts_reward_expectancy_bt,2022.2.4,Win32,60.0240096,Chrome,1440,960,,,a,0.7121,1,97,0,2,0,24,6,1,0,0,1,0,1,0,0,0,hexagon,triangle,,,,,,,,,,,,,,,,,,,,,,,,,,,,,,,,,,,,,,,,,,,,,,,,,,,,,,
298252,2022-11-22_16h13.42.282,vts_reward_expectancy_bt,2022.2.4,Win32,60.0240096,Chrome,1440,960,,,l,0.7087,10,107,0,2,1,25,4,1,0,1,0,0,0,0,1,0,circle,hexagon,,,,,,,,,,,,,,,,,,,,,,,,,,,,,,,,,,,,,,,,,,,,,,,,,,,,,,
298252,2022-11-22_16h13.42.282,vts_reward_expectancy_bt,2022.2.4,Win32,60.0240096,Chrome,1440,960,,,a,1.2676,1,108,0,2,2,26,8,1,0,0,1,0,0,0,0,1,hexagon,star,,,,,,,,,,,,,,,,,,,,,,,,,,,,,,,,,,,,,,,,,,,,,,,,,,,,,,
298252,2022-11-22_16h13.42.282,vts_reward_expectancy_bt,2022.2.4,Win32,60.0240096,Chrome,1440,960,,,l,0.8959,1,109,0,2,3,27,2,1,1,0,0,0,0,0,0,1,triangle,star,,,,,,,,,,,,,,,,,,,,,,,,,,,,,,,,,,,,,,,,,,,,,,,,,,,,,,
298252,2022-11-22_16h13.42.282,vts_reward_expectancy_bt,2022.2.4,Win32,60.0240096,Chrome,1440,960,,,a,1.7308,10,119,0,2,4,28,1,1,1,0,0,0,0,0,1,0,triangle,hexagon,,,,,,,,,,,,,,,,,,,,,,,,,,,,,,,,,,,,,,,,,,,,,,,,,,,,,,
298252,2022-11-22_16h13.42.282,vts_reward_expectancy_bt,2022.2.4,Win32,60.0240096,Chrome,1440,960,,,a,1.279,10,129,0,2,5,29,5,1,0,1,0,0,0,0,0,1,circle,star,,,,,,,,,,,,,,,,,,,,,,,,,,,,,,,,,,,,,,,,,,,,,,,,,,,,,,
298252,2022-11-22_16h13.42.282,vts_reward_expectancy_bt,2022.2.4,Win32,60.0240096,Chrome,1440,960,,,a,0.817,10,139,0,2,6,30,11,1,0,0,0,1,0,0,1,0,star,hexagon,,,,,,,,,,,,,,,,,,,,,,,,,,,,,,,,,,,,,,,,,,,,,,,,,,,,,,
298252,2022-11-22_16h13.42.282,vts_reward_expectancy_bt,2022.2.4,Win32,60.0240096,Chrome,1440,960,,,l,1.2342,1,140,0,2,7,31,7,1,0,0,1,0,0,1,0,0,hexagon,circle,,,,,,,,,,,,,,,,,,,,,,,,,,,,,,,,,,,,,,,,,,,,,,,,,,,,,,
298252,2022-11-22_16h13.42.282,vts_reward_expectancy_bt,2022.2.4,Win32,60.0240096,Chrome,1440,960,,,l,0.6805,10,150,0,2,8,32,10,1,0,0,0,1,0,1,0,0,star ,circle,,,,,,,,,,,,,,,,,,,,,,,,,,,,,,,,,,,,,,,,,,,,,,,,,,,,,,
298252,2022-11-22_16h13.42.282,vts_reward_expectancy_bt,2022.2.4,Win32,60.0240096,Chrome,1440,960,,,a,1.1953,1,151,0,2,9,33,0,1,1,0,0,0,0,1,0,0,triangle,circle,,,,,,,,,,,,,,,,,,,,,,,,,,,,,,,,,,,,,,,,,,,,,,,,,,,,,,
298252,2022-11-22_16h13.42.282,vts_reward_expectancy_bt,2022.2.4,Win32,60.0240096,Chrome,1440,960,,,l,0.5016,1,152,0,2,10,34,9,1,0,0,0,1,1,0,0,0,star,triangle,,,,,,,,,,,,,,,,,,,,,,,,,,,,,,,,,,,,,,,,,,,,,,,,,,,,,,
298252,2022-11-22_16h13.42.282,vts_reward_expectancy_bt,2022.2.4,Win32,60.0240096,Chrome,1440,960,,,a,0.9424,1,153,0,2,11,35,3,1,0,1,0,0,1,0,0,0,circle,triangle,,,,,,,,,,,,,,,,,,,,,,,,,,,,,,,,,,,,,,,,,,,,,,,,,,,,,,
298252,2022-11-22_16h13.42.282,vts_reward_expectancy_bt,2022.2.4,Win32,60.0240096,Chrome,1440,960,,,a,0.7213,10,163,1,0,0,0,3,1,0,1,0,0,1,0,0,0,circle,triangle,,,,,,,,,,,,,,,,,,,,,,,,,,,,,,,,,,,,,,,,,,,,,,,,,,,,,,
298252,2022-11-22_16h13.42.282,vts_reward_expectancy_bt,2022.2.4,Win32,60.0240096,Chrome,1440,960,,,l,0.4722,1,164,1,0,1,1,7,1,0,0,1,0,0,1,0,0,hexagon,circle,,,,,,,,,,,,,,,,,,,,,,,,,,,,,,,,,,,,,,,,,,,,,,,,,,,,,,
298252,2022-11-22_16h13.42.282,vts_reward_expectancy_bt,2022.2.4,Win32,60.0240096,Chrome,1440,960,,,a,1.1058,1,165,1,0,2,2,2,1,1,0,0,0,0,0,0,1,triangle,star,,,,,,,,,,,,,,,,,,,,,,,,,,,,,,,,,,,,,,,,,,,,,,,,,,,,,,
298252,2022-11-22_16h13.42.282,vts_reward_expectancy_bt,2022.2.4,Win32,60.0240096,Chrome,1440,960,,,l,0.7126,1,166,1,0,3,3,8,1,0,0,1,0,0,0,0,1,hexagon,star,,,,,,,,,,,,,,,,,,,,,,,,,,,,,,,,,,,,,,,,,,,,,,,,,,,,,,
298252,2022-11-22_16h13.42.282,vts_reward_expectancy_bt,2022.2.4,Win32,60.0240096,Chrome,1440,960,,,a,0.6011,1,167,1,0,4,4,9,1,0,0,0,1,1,0,0,0,star,triangle,,,,,,,,,,,,,,,,,,,,,,,,,,,,,,,,,,,,,,,,,,,,,,,,,,,,,,
298252,2022-11-22_16h13.42.282,vts_reward_expectancy_bt,2022.2.4,Win32,60.0240096,Chrome,1440,960,,,l,0.3345,10,177,1,0,5,5,4,1,0,1,0,0,0,0,1,0,circle,hexagon,,,,,,,,,,,,,,,,,,,,,,,,,,,,,,,,,,,,,,,,,,,,,,,,,,,,,,
298252,2022-11-22_16h13.42.282,vts_reward_expectancy_bt,2022.2.4,Win32,60.0240096,Chrome,1440,960,,,a,0.3963,1,178,1,0,6,6,6,1,0,0,1,0,1,0,0,0,hexagon,triangle,,,,,,,,,,,,,,,,,,,,,,,,,,,,,,,,,,,,,,,,,,,,,,,,,,,,,,
298252,2022-11-22_16h13.42.282,vts_reward_expectancy_bt,2022.2.4,Win32,60.0240096,Chrome,1440,960,,,a,0.6222,1,179,1,0,7,7,10,1,0,0,0,1,0,1,0,0,star ,circle,,,,,,,,,,,,,,,,,,,,,,,,,,,,,,,,,,,,,,,,,,,,,,,,,,,,,,
298252,2022-11-22_16h13.42.282,vts_reward_expectancy_bt,2022.2.4,Win32,60.0240096,Chrome,1440,960,,,a,0.434,10,189,1,0,8,8,0,1,1,0,0,0,0,1,0,0,triangle,circle,,,,,,,,,,,,,,,,,,,,,,,,,,,,,,,,,,,,,,,,,,,,,,,,,,,,,,
298252,2022-11-22_16h13.42.282,vts_reward_expectancy_bt,2022.2.4,Win32,60.0240096,Chrome,1440,960,,,l,0.2902,1,190,1,0,9,9,1,1,1,0,0,0,0,0,1,0,triangle,hexagon,,,,,,,,,,,,,,,,,,,,,,,,,,,,,,,,,,,,,,,,,,,,,,,,,,,,,,
298252,2022-11-22_16h13.42.282,vts_reward_expectancy_bt,2022.2.4,Win32,60.0240096,Chrome,1440,960,,,a,0.2527,1,191,1,0,10,10,5,1,0,1,0,0,0,0,0,1,circle,star,,,,,,,,,,,,,,,,,,,,,,,,,,,,,,,,,,,,,,,,,,,,,,,,,,,,,,
298252,2022-11-22_16h13.42.282,vts_reward_expectancy_bt,2022.2.4,Win32,60.0240096,Chrome,1440,960,,,a,0.5872,1,192,1,0,11,11,11,1,0,0,0,1,0,0,1,0,star,hexagon,,,,,,,,,,,,,,,,,,,,,,,,,,,,,,,,,,,,,,,,,,,,,,,,,,,,,,
298252,2022-11-22_16h13.42.282,vts_reward_expectancy_bt,2022.2.4,Win32,60.0240096,Chrome,1440,960,,,l,0.6232,10,202,1,1,0,12,8,1,0,0,1,0,0,0,0,1,hexagon,star,,,,,,,,,,,,,,,,,,,,,,,,,,,,,,,,,,,,,,,,,,,,,,,,,,,,,,
298252,2022-11-22_16h13.42.282,vts_reward_expectancy_bt,2022.2.4,Win32,60.0240096,Chrome,1440,960,,,a,0.7014,1,203,1,1,1,13,6,1,0,0,1,0,1,0,0,0,hexagon,triangle,,,,,,,,,,,,,,,,,,,,,,,,,,,,,,,,,,,,,,,,,,,,,,,,,,,,,,
298252,2022-11-22_16h13.42.282,vts_reward_expectancy_bt,2022.2.4,Win32,60.0240096,Chrome,1440,960,,,a,0.5456,1,204,1,1,2,14,3,1,0,1,0,0,1,0,0,0,circle,triangle,,,,,,,,,,,,,,,,,,,,,,,,,,,,,,,,,,,,,,,,,,,,,,,,,,,,,,
298252,2022-11-22_16h13.42.282,vts_reward_expectancy_bt,2022.2.4,Win32,60.0240096,Chrome,1440,960,,,a,0.4966,1,205,1,1,3,15,4,1,0,1,0,0,0,0,1,0,circle,hexagon,,,,,,,,,,,,,,,,,,,,,,,,,,,,,,,,,,,,,,,,,,,,,,,,,,,,,,
298252,2022-11-22_16h13.42.282,vts_reward_expectancy_bt,2022.2.4,Win32,60.0240096,Chrome,1440,960,,,l,0.3593,10,215,1,1,4,16,7,1,0,0,1,0,0,1,0,0,hexagon,circle,,,,,,,,,,,,,,,,,,,,,,,,,,,,,,,,,,,,,,,,,,,,,,,,,,,,,,
298252,2022-11-22_16h13.42.282,vts_reward_expectancy_bt,2022.2.4,Win32,60.0240096,Chrome,1440,960,,,l,0.9344,10,225,1,1,5,17,9,1,0,0,0,1,1,0,0,0,star,triangle,,,,,,,,,,,,,,,,,,,,,,,,,,,,,,,,,,,,,,,,,,,,,,,,,,,,,,
298252,2022-11-22_16h13.42.282,vts_reward_expectancy_bt,2022.2.4,Win32,60.0240096,Chrome,1440,960,,,a,0.6265,10,235,1,1,6,18,10,1,0,0,0,1,0,1,0,0,star ,circle,,,,,,,,,,,,,,,,,,,,,,,,,,,,,,,,,,,,,,,,,,,,,,,,,,,,,,
298252,2022-11-22_16h13.42.282,vts_reward_expectancy_bt,2022.2.4,Win32,60.0240096,Chrome,1440,960,,,a,0.3941,10,245,1,1,7,19,5,1,0,1,0,0,0,0,0,1,circle,star,,,,,,,,,,,,,,,,,,,,,,,,,,,,,,,,,,,,,,,,,,,,,,,,,,,,,,
298252,2022-11-22_16h13.42.282,vts_reward_expectancy_bt,2022.2.4,Win32,60.0240096,Chrome,1440,960,,,l,0.9967,1,246,1,1,8,20,2,1,1,0,0,0,0,0,0,1,triangle,star,,,,,,,,,,,,,,,,,,,,,,,,,,,,,,,,,,,,,,,,,,,,,,,,,,,,,,
298252,2022-11-22_16h13.42.282,vts_reward_expectancy_bt,2022.2.4,Win32,60.0240096,Chrome,1440,960,,,a,0.7161,10,256,1,1,9,21,11,1,0,0,0,1,0,0,1,0,star,hexagon,,,,,,,,,,,,,,,,,,,,,,,,,,,,,,,,,,,,,,,,,,,,,,,,,,,,,,
298252,2022-11-22_16h13.42.282,vts_reward_expectancy_bt,2022.2.4,Win32,60.0240096,Chrome,1440,960,,,l,0.8348,1,257,1,1,10,22,0,1,1,0,0,0,0,1,0,0,triangle,circle,,,,,,,,,,,,,,,,,,,,,,,,,,,,,,,,,,,,,,,,,,,,,,,,,,,,,,
298252,2022-11-22_16h13.42.282,vts_reward_expectancy_bt,2022.2.4,Win32,60.0240096,Chrome,1440,960,,,a,0.4434,10,267,1,1,11,23,1,1,1,0,0,0,0,0,1,0,triangle,hexagon,,,,,,,,,,,,,,,,,,,,,,,,,,,,,,,,,,,,,,,,,,,,,,,,,,,,,,
298252,2022-11-22_16h13.42.282,vts_reward_expectancy_bt,2022.2.4,Win32,60.0240096,Chrome,1440,960,,,l,0.968,1,268,1,2,0,24,1,1,1,0,0,0,0,0,1,0,triangle,hexagon,,,,,,,,,,,,,,,,,,,,,,,,,,,,,,,,,,,,,,,,,,,,,,,,,,,,,,
298252,2022-11-22_16h13.42.282,vts_reward_expectancy_bt,2022.2.4,Win32,60.0240096,Chrome,1440,960,,,a,0.4839,1,269,1,2,1,25,6,1,0,0,1,0,1,0,0,0,hexagon,triangle,,,,,,,,,,,,,,,,,,,,,,,,,,,,,,,,,,,,,,,,,,,,,,,,,,,,,,
298252,2022-11-22_16h13.42.282,vts_reward_expectancy_bt,2022.2.4,Win32,60.0240096,Chrome,1440,960,,,a,0.4586,10,279,1,2,2,26,2,1,1,0,0,0,0,0,0,1,triangle,star,,,,,,,,,,,,,,,,,,,,,,,,,,,,,,,,,,,,,,,,,,,,,,,,,,,,,,
298252,2022-11-22_16h13.42.282,vts_reward_expectancy_bt,2022.2.4,Win32,60.0240096,Chrome,1440,960,,,l,0.4015,1,280,1,2,3,27,9,1,0,0,0,1,1,0,0,0,star,triangle,,,,,,,,,,,,,,,,,,,,,,,,,,,,,,,,,,,,,,,,,,,,,,,,,,,,,,
298252,2022-11-22_16h13.42.282,vts_reward_expectancy_bt,2022.2.4,Win32,60.0240096,Chrome,1440,960,,,a,0.6044,1,281,1,2,4,28,11,1,0,0,0,1,0,0,1,0,star,hexagon,,,,,,,,,,,,,,,,,,,,,,,,,,,,,,,,,,,,,,,,,,,,,,,,,,,,,,
298252,2022-11-22_16h13.42.282,vts_reward_expectancy_bt,2022.2.4,Win32,60.0240096,Chrome,1440,960,,,l,0.7893,10,291,1,2,5,29,10,1,0,0,0,1,0,1,0,0,star ,circle,,,,,,,,,,,,,,,,,,,,,,,,,,,,,,,,,,,,,,,,,,,,,,,,,,,,,,
298252,2022-11-22_16h13.42.282,vts_reward_expectancy_bt,2022.2.4,Win32,60.0240096,Chrome,1440,960,,,l,0.7883,1,292,1,2,6,30,5,1,0,1,0,0,0,0,0,1,circle,star,,,,,,,,,,,,,,,,,,,,,,,,,,,,,,,,,,,,,,,,,,,,,,,,,,,,,,
298252,2022-11-22_16h13.42.282,vts_reward_expectancy_bt,2022.2.4,Win32,60.0240096,Chrome,1440,960,,,l,0.7847,1,293,1,2,7,31,4,1,0,1,0,0,0,0,1,0,circle,hexagon,,,,,,,,,,,,,,,,,,,,,,,,,,,,,,,,,,,,,,,,,,,,,,,,,,,,,,
298252,2022-11-22_16h13.42.282,vts_reward_expectancy_bt,2022.2.4,Win32,60.0240096,Chrome,1440,960,,,l,0.4926,10,303,1,2,8,32,0,1,1,0,0,0,0,1,0,0,triangle,circle,,,,,,,,,,,,,,,,,,,,,,,,,,,,,,,,,,,,,,,,,,,,,,,,,,,,,,
298252,2022-11-22_16h13.42.282,vts_reward_expectancy_bt,2022.2.4,Win32,60.0240096,Chrome,1440,960,,,l,1.6372,10,313,1,2,9,33,8,1,0,0,1,0,0,0,0,1,hexagon,star,,,,,,,,,,,,,,,,,,,,,,,,,,,,,,,,,,,,,,,,,,,,,,,,,,,,,,
298252,2022-11-22_16h13.42.282,vts_reward_expectancy_bt,2022.2.4,Win32,60.0240096,Chrome,1440,960,,,a,0.9256,10,323,1,2,10,34,7,1,0,0,1,0,0,1,0,0,hexagon,circle,,,,,,,,,,,,,,,,,,,,,,,,,,,,,,,,,,,,,,,,,,,,,,,,,,,,,,
298252,2022-11-22_16h13.42.282,vts_reward_expectancy_bt,2022.2.4,Win32,60.0240096,Chrome,1440,960,,,l,0.7817,1,324,1,2,11,35,3,1,0,1,0,0,1,0,0,0,circle,triangle,,,,,,,,,,,,,,,,,,,,,,,,,,,,,,,,,,,,,,,,,,,,,,,,,,,,,,
298252,2022-11-22_16h13.42.282,vts_reward_expectancy_bt,2022.2.4,Win32,60.0240096,Chrome,1440,960,,,a,1.2135,1,325,2,0,0,0,8,1,0,0,1,0,0,0,0,1,hexagon,star,,,,,,,,,,,,,,,,,,,,,,,,,,,,,,,,,,,,,,,,,,,,,,,,,,,,,,
298252,2022-11-22_16h13.42.282,vts_reward_expectancy_bt,2022.2.4,Win32,60.0240096,Chrome,1440,960,,,a,0.9341,1,326,2,0,1,1,9,1,0,0,0,1,1,0,0,0,star,triangle,,,,,,,,,,,,,,,,,,,,,,,,,,,,,,,,,,,,,,,,,,,,,,,,,,,,,,
298252,2022-11-22_16h13.42.282,vts_reward_expectancy_bt,2022.2.4,Win32,60.0240096,Chrome,1440,960,,,a,1.3048,10,336,2,0,2,2,0,1,1,0,0,0,0,1,0,0,triangle,circle,,,,,,,,,,,,,,,,,,,,,,,,,,,,,,,,,,,,,,,,,,,,,,,,,,,,,,
298252,2022-11-22_16h13.42.282,vts_reward_expectancy_bt,2022.2.4,Win32,60.0240096,Chrome,1440,960,,,l,0.7285,1,337,2,0,3,3,1,1,1,0,0,0,0,0,1,0,triangle,hexagon,,,,,,,,,,,,,,,,,,,,,,,,,,,,,,,,,,,,,,,,,,,,,,,,,,,,,,
298252,2022-11-22_16h13.42.282,vts_reward_expectancy_bt,2022.2.4,Win32,60.0240096,Chrome,1440,960,,,a,0.5726,10,347,2,0,4,4,7,1,0,0,1,0,0,1,0,0,hexagon,circle,,,,,,,,,,,,,,,,,,,,,,,,,,,,,,,,,,,,,,,,,,,,,,,,,,,,,,
298252,2022-11-22_16h13.42.282,vts_reward_expectancy_bt,2022.2.4,Win32,60.0240096,Chrome,1440,960,,,l,0.8357,1,348,2,0,5,5,5,1,0,1,0,0,0,0,0,1,circle,star,,,,,,,,,,,,,,,,,,,,,,,,,,,,,,,,,,,,,,,,,,,,,,,,,,,,,,
298252,2022-11-22_16h13.42.282,vts_reward_expectancy_bt,2022.2.4,Win32,60.0240096,Chrome,1440,960,,,a,0.234,1,349,2,0,6,6,6,1,0,0,1,0,1,0,0,0,hexagon,triangle,,,,,,,,,,,,,,,,,,,,,,,,,,,,,,,,,,,,,,,,,,,,,,,,,,,,,,
298252,2022-11-22_16h13.42.282,vts_reward_expectancy_bt,2022.2.4,Win32,60.0240096,Chrome,1440,960,,,l,0.2512,1,350,2,0,7,7,2,1,1,0,0,0,0,0,0,1,triangle,star,,,,,,,,,,,,,,,,,,,,,,,,,,,,,,,,,,,,,,,,,,,,,,,,,,,,,,
298252,2022-11-22_16h13.42.282,vts_reward_expectancy_bt,2022.2.4,Win32,60.0240096,Chrome,1440,960,,,a,0.0517,10,360,2,0,8,8,4,1,0,1,0,0,0,0,1,0,circle,hexagon,,,,,,,,,,,,,,,,,,,,,,,,,,,,,,,,,,,,,,,,,,,,,,,,,,,,,,
298252,2022-11-22_16h13.42.282,vts_reward_expectancy_bt,2022.2.4,Win32,60.0240096,Chrome,1440,960,,,a,1.0722,10,370,2,0,9,9,10,1,0,0,0,1,0,1,0,0,star ,circle,,,,,,,,,,,,,,,,,,,,,,,,,,,,,,,,,,,,,,,,,,,,,,,,,,,,,,
298252,2022-11-22_16h13.42.282,vts_reward_expectancy_bt,2022.2.4,Win32,60.0240096,Chrome,1440,960,,,a,1.1055,10,380,2,0,10,10,11,1,0,0,0,1,0,0,1,0,star,hexagon,,,,,,,,,,,,,,,,,,,,,,,,,,,,,,,,,,,,,,,,,,,,,,,,,,,,,,
298252,2022-11-22_16h13.42.282,vts_reward_expectancy_bt,2022.2.4,Win32,60.0240096,Chrome,1440,960,,,l,1.5487,1,381,2,0,11,11,3,1,0,1,0,0,1,0,0,0,circle,triangle,,,,,,,,,,,,,,,,,,,,,,,,,,,,,,,,,,,,,,,,,,,,,,,,,,,,,,
298252,2022-11-22_16h13.42.282,vts_reward_expectancy_bt,2022.2.4,Win32,60.0240096,Chrome,1440,960,,,a,1.0769,10,391,2,1,0,12,5,1,0,1,0,0,0,0,0,1,circle,star,,,,,,,,,,,,,,,,,,,,,,,,,,,,,,,,,,,,,,,,,,,,,,,,,,,,,,
298252,2022-11-22_16h13.42.282,vts_reward_expectancy_bt,2022.2.4,Win32,60.0240096,Chrome,1440,960,,,l,1.0679,1,392,2,1,1,13,9,1,0,0,0,1,1,0,0,0,star,triangle,,,,,,,,,,,,,,,,,,,,,,,,,,,,,,,,,,,,,,,,,,,,,,,,,,,,,,
298252,2022-11-22_16h13.42.282,vts_reward_expectancy_bt,2022.2.4,Win32,60.0240096,Chrome,1440,960,,,l,0.6809,10,402,2,1,2,14,8,1,0,0,1,0,0,0,0,1,hexagon,star,,,,,,,,,,,,,,,,,,,,,,,,,,,,,,,,,,,,,,,,,,,,,,,,,,,,,,
298252,2022-11-22_16h13.42.282,vts_reward_expectancy_bt,2022.2.4,Win32,60.0240096,Chrome,1440,960,,,l,0.8013,1,403,2,1,3,15,1,1,1,0,0,0,0,0,1,0,triangle,hexagon,,,,,,,,,,,,,,,,,,,,,,,,,,,,,,,,,,,,,,,,,,,,,,,,,,,,,,
298252,2022-11-22_16h13.42.282,vts_reward_expectancy_bt,2022.2.4,Win32,60.0240096,Chrome,1440,960,,,a,0.8108,1,404,2,1,4,16,7,1,0,0,1,0,0,1,0,0,hexagon,circle,,,,,,,,,,,,,,,,,,,,,,,,,,,,,,,,,,,,,,,,,,,,,,,,,,,,,,
298252,2022-11-22_16h13.42.282,vts_reward_expectancy_bt,2022.2.4,Win32,60.0240096,Chrome,1440,960,,,a,0.6285,1,405,2,1,5,17,6,1,0,0,1,0,1,0,0,0,hexagon,triangle,,,,,,,,,,,,,,,,,,,,,,,,,,,,,,,,,,,,,,,,,,,,,,,,,,,,,,
298252,2022-11-22_16h13.42.282,vts_reward_expectancy_bt,2022.2.4,Win32,60.0240096,Chrome,1440,960,,,l,0.7509,1,406,2,1,6,18,4,1,0,1,0,0,0,0,1,0,circle,hexagon,,,,,,,,,,,,,,,,,,,,,,,,,,,,,,,,,,,,,,,,,,,,,,,,,,,,,,
298252,2022-11-22_16h13.42.282,vts_reward_expectancy_bt,2022.2.4,Win32,60.0240096,Chrome,1440,960,,,a,0.1144,1,407,2,1,7,19,3,1,0,1,0,0,1,0,0,0,circle,triangle,,,,,,,,,,,,,,,,,,,,,,,,,,,,,,,,,,,,,,,,,,,,,,,,,,,,,,
298252,2022-11-22_16h13.42.282,vts_reward_expectancy_bt,2022.2.4,Win32,60.0240096,Chrome,1440,960,,,l,0.8869,1,408,2,1,8,20,2,1,1,0,0,0,0,0,0,1,triangle,star,,,,,,,,,,,,,,,,,,,,,,,,,,,,,,,,,,,,,,,,,,,,,,,,,,,,,,
298252,2022-11-22_16h13.42.282,vts_reward_expectancy_bt,2022.2.4,Win32,60.0240096,Chrome,1440,960,,,l,2.1711,10,418,2,1,9,21,0,1,1,0,0,0,0,1,0,0,triangle,circle,,,,,,,,,,,,,,,,,,,,,,,,,,,,,,,,,,,,,,,,,,,,,,,,,,,,,,
298252,2022-11-22_16h13.42.282,vts_reward_expectancy_bt,2022.2.4,Win32,60.0240096,Chrome,1440,960,,,a,0.6782,10,428,2,1,10,22,10,1,0,0,0,1,0,1,0,0,star ,circle,,,,,,,,,,,,,,,,,,,,,,,,,,,,,,,,,,,,,,,,,,,,,,,,,,,,,,
298252,2022-11-22_16h13.42.282,vts_reward_expectancy_bt,2022.2.4,Win32,60.0240096,Chrome,1440,960,,,l,0.9772,10,438,2,1,11,23,11,1,0,0,0,1,0,0,1,0,star,hexagon,,,,,,,,,,,,,,,,,,,,,,,,,,,,,,,,,,,,,,,,,,,,,,,,,,,,,,
298252,2022-11-22_16h13.42.282,vts_reward_expectancy_bt,2022.2.4,Win32,60.0240096,Chrome,1440,960,,,l,1.029,1,439,2,2,0,24,10,1,0,0,0,1,0,1,0,0,star ,circle,,,,,,,,,,,,,,,,,,,,,,,,,,,,,,,,,,,,,,,,,,,,,,,,,,,,,,
298252,2022-11-22_16h13.42.282,vts_reward_expectancy_bt,2022.2.4,Win32,60.0240096,Chrome,1440,960,,,a,0.6883,10,449,2,2,1,25,4,1,0,1,0,0,0,0,1,0,circle,hexagon,,,,,,,,,,,,,,,,,,,,,,,,,,,,,,,,,,,,,,,,,,,,,,,,,,,,,,
298252,2022-11-22_16h13.42.282,vts_reward_expectancy_bt,2022.2.4,Win32,60.0240096,Chrome,1440,960,,,a,0.9014,10,459,2,2,2,26,7,1,0,0,1,0,0,1,0,0,hexagon,circle,,,,,,,,,,,,,,,,,,,,,,,,,,,,,,,,,,,,,,,,,,,,,,,,,,,,,,
298252,2022-11-22_16h13.42.282,vts_reward_expectancy_bt,2022.2.4,Win32,60.0240096,Chrome,1440,960,,,l,0.909,10,469,2,2,3,27,3,1,0,1,0,0,1,0,0,0,circle,triangle,,,,,,,,,,,,,,,,,,,,,,,,,,,,,,,,,,,,,,,,,,,,,,,,,,,,,,
298252,2022-11-22_16h13.42.282,vts_reward_expectancy_bt,2022.2.4,Win32,60.0240096,Chrome,1440,960,,,a,0.8778,10,479,2,2,4,28,6,1,0,0,1,0,1,0,0,0,hexagon,triangle,,,,,,,,,,,,,,,,,,,,,,,,,,,,,,,,,,,,,,,,,,,,,,,,,,,,,,
298252,2022-11-22_16h13.42.282,vts_reward_expectancy_bt,2022.2.4,Win32,60.0240096,Chrome,1440,960,,,l,0.6492,10,489,2,2,5,29,8,1,0,0,1,0,0,0,0,1,hexagon,star,,,,,,,,,,,,,,,,,,,,,,,,,,,,,,,,,,,,,,,,,,,,,,,,,,,,,,
298252,2022-11-22_16h13.42.282,vts_reward_expectancy_bt,2022.2.4,Win32,60.0240096,Chrome,1440,960,,,l,0.7479,10,499,2,2,6,30,9,1,0,0,0,1,1,0,0,0,star,triangle,,,,,,,,,,,,,,,,,,,,,,,,,,,,,,,,,,,,,,,,,,,,,,,,,,,,,,
298252,2022-11-22_16h13.42.282,vts_reward_expectancy_bt,2022.2.4,Win32,60.0240096,Chrome,1440,960,,,l,0.8981,10,509,2,2,7,31,1,1,1,0,0,0,0,0,1,0,triangle,hexagon,,,,,,,,,,,,,,,,,,,,,,,,,,,,,,,,,,,,,,,,,,,,,,,,,,,,,,
298252,2022-11-22_16h13.42.282,vts_reward_expectancy_bt,2022.2.4,Win32,60.0240096,Chrome,1440,960,,,l,1.6639,1,510,2,2,8,32,0,1,1,0,0,0,0,1,0,0,triangle,circle,,,,,,,,,,,,,,,,,,,,,,,,,,,,,,,,,,,,,,,,,,,,,,,,,,,,,,
298252,2022-11-22_16h13.42.282,vts_reward_expectancy_bt,2022.2.4,Win32,60.0240096,Chrome,1440,960,,,l,1.8448,1,511,2,2,9,33,5,1,0,1,0,0,0,0,0,1,circle,star,,,,,,,,,,,,,,,,,,,,,,,,,,,,,,,,,,,,,,,,,,,,,,,,,,,,,,
298252,2022-11-22_16h13.42.282,vts_reward_expectancy_bt,2022.2.4,Win32,60.0240096,Chrome,1440,960,,,l,1.3784,1,512,2,2,10,34,2,1,1,0,0,0,0,0,0,1,triangle,star,,,,,,,,,,,,,,,,,,,,,,,,,,,,,,,,,,,,,,,,,,,,,,,,,,,,,,
298252,2022-11-22_16h13.42.282,vts_reward_expectancy_bt,2022.2.4,Win32,60.0240096,Chrome,1440,960,,,a,0.5624,10,522,2,2,11,35,11,1,0,0,0,1,0,0,1,0,star,hexagon,,,,,,,,,,,,,,,,,,,,,,,,,,,,,,,,,,,,,,,,,,,,,,,,,,,,,,
298252,2022-11-22_16h13.42.282,vts_reward_expectancy_bt,2022.2.4,Win32,60.0240096,Chrome,1440,960,,,,,,,,,,,,,,,,,,,,,,,Y,125,hexagon,1,0,f,2.8597,0,0,0,0,0,1,,,,,,,,,,,,,,,,,,,,,,,,,,,,,,,,,,,,,,,,,
298252,2022-11-22_16h13.42.282,vts_reward_expectancy_bt,2022.2.4,Win32,60.0240096,Chrome,1440,960,,,,,,,,,,,,,,,,,,,,,,,B,160,triangle,1,0,d,0.565,0,1,0,1,0,1,,,,,,,,,,,,,,,,,,,,,,,,,,,,,,,,,,,,,,,,,
298252,2022-11-22_16h13.42.282,vts_reward_expectancy_bt,2022.2.4,Win32,60.0240096,Chrome,1440,960,,,,,,,,,,,,,,,,,,,,,,,S,146,star,1,0,f,0.4771,0,2,0,2,0,1,,,,,,,,,,,,,,,,,,,,,,,,,,,,,,,,,,,,,,,,,
298252,2022-11-22_16h13.42.282,vts_reward_expectancy_bt,2022.2.4,Win32,60.0240096,Chrome,1440,960,,,,,,,,,,,,,,,,,,,,,,,H,174,circle,1,0,d,0.619,0,3,0,3,0,1,,,,,,,,,,,,,,,,,,,,,,,,,,,,,,,,,,,,,,,,,
298252,2022-11-22_16h13.42.282,vts_reward_expectancy_bt,2022.2.4,Win32,60.0240096,Chrome,1440,960,,,,,,,,,,,,,,,,,,,,,,,F,167,hexagon,1,0,d,0.7341,0,4,0,4,0,1,,,,,,,,,,,,,,,,,,,,,,,,,,,,,,,,,,,,,,,,,
298252,2022-11-22_16h13.42.282,vts_reward_expectancy_bt,2022.2.4,Win32,60.0240096,Chrome,1440,960,,,,,,,,,,,,,,,,,,,,,,,U,181,triangle,1,0,f,0.4134,0,5,0,5,0,1,,,,,,,,,,,,,,,,,,,,,,,,,,,,,,,,,,,,,,,,,
298252,2022-11-22_16h13.42.282,vts_reward_expectancy_bt,2022.2.4,Win32,60.0240096,Chrome,1440,960,,,,,,,,,,,,,,,,,,,,,,,W,132,star,1,0,f,0.4648,0,6,0,6,0,1,,,,,,,,,,,,,,,,,,,,,,,,,,,,,,,,,,,,,,,,,
298252,2022-11-22_16h13.42.282,vts_reward_expectancy_bt,2022.2.4,Win32,60.0240096,Chrome,1440,960,,,,,,,,,,,,,,,,,,,,,,,D,139,circle,1,0,d,0.3995,0,7,0,7,0,1,,,,,,,,,,,,,,,,,,,,,,,,,,,,,,,,,,,,,,,,,
298252,2022-11-22_16h13.42.282,vts_reward_expectancy_bt,2022.2.4,Win32,60.0240096,Chrome,1440,960,,,,,,,,,,,,,,,,,,,,,,,Y,125,triangle,1,0,f,0.4689,0,8,0,8,0,1,,,,,,,,,,,,,,,,,,,,,,,,,,,,,,,,,,,,,,,,,
298252,2022-11-22_16h13.42.282,vts_reward_expectancy_bt,2022.2.4,Win32,60.0240096,Chrome,1440,960,,,,,,,,,,,,,,,,,,,,,,,B,160,circle,1,0,d,0.3841,0,9,0,9,0,1,,,,,,,,,,,,,,,,,,,,,,,,,,,,,,,,,,,,,,,,,
298252,2022-11-22_16h13.42.282,vts_reward_expectancy_bt,2022.2.4,Win32,60.0240096,Chrome,1440,960,,,,,,,,,,,,,,,,,,,,,,,S,174,circle,1,0,,,1,,,,,,k,0.6188,0,0,0,0,1,,,,,,,,,,,,,,,,,,,,,,,,,,,,,,,,,,
298252,2022-11-22_16h13.42.282,vts_reward_expectancy_bt,2022.2.4,Win32,60.0240096,Chrome,1440,960,,,,,,,,,,,,,,,,,,,,,,,U,167,triangle,1,0,,,1,,,,,,k,0.5326,1,0,1,0,1,,,,,,,,,,,,,,,,,,,,,,,,,,,,,,,,,,
298252,2022-11-22_16h13.42.282,vts_reward_expectancy_bt,2022.2.4,Win32,60.0240096,Chrome,1440,960,,,,,,,,,,,,,,,,,,,,,,,W,132,hexagon,1,0,,,1,,,,,,j,0.6709,2,0,2,0,1,,,,,,,,,,,,,,,,,,,,,,,,,,,,,,,,,,
298252,2022-11-22_16h13.42.282,vts_reward_expectancy_bt,2022.2.4,Win32,60.0240096,Chrome,1440,960,,,,,,,,,,,,,,,,,,,,,,,Y,125,star,1,0,,,1,,,,,,j,0.6864,3,0,3,0,1,,,,,,,,,,,,,,,,,,,,,,,,,,,,,,,,,,
298252,2022-11-22_16h13.42.282,vts_reward_expectancy_bt,2022.2.4,Win32,60.0240096,Chrome,1440,960,,,,,,,,,,,,,,,,,,,,,,,D,181,circle,1,0,,,1,,,,,,k,0.4507,4,0,4,0,1,,,,,,,,,,,,,,,,,,,,,,,,,,,,,,,,,,
298252,2022-11-22_16h13.42.282,vts_reward_expectancy_bt,2022.2.4,Win32,60.0240096,Chrome,1440,960,,,,,,,,,,,,,,,,,,,,,,,B,146,triangle,1,0,,,1,,,,,,j,1.3498,5,0,5,0,1,,,,,,,,,,,,,,,,,,,,,,,,,,,,,,,,,,
298252,2022-11-22_16h13.42.282,vts_reward_expectancy_bt,2022.2.4,Win32,60.0240096,Chrome,1440,960,,,,,,,,,,,,,,,,,,,,,,,H,160,hexagon,1,0,,,1,,,,,,k,0.452,6,0,6,0,1,,,,,,,,,,,,,,,,,,,,,,,,,,,,,,,,,,
298252,2022-11-22_16h13.42.282,vts_reward_expectancy_bt,2022.2.4,Win32,60.0240096,Chrome,1440,960,,,,,,,,,,,,,,,,,,,,,,,F,139,star,1,0,,,1,,,,,,j,0.651,7,0,7,0,1,,,,,,,,,,,,,,,,,,,,,,,,,,,,,,,,,,
298252,2022-11-22_16h13.42.282,vts_reward_expectancy_bt,2022.2.4,Win32,60.0240096,Chrome,1440,960,,,,,,,,,,,,,,,,,,,,,,,S,174,circle,1,0,,,1,,,,,,k,0.3829,8,0,8,0,1,,,,,,,,,,,,,,,,,,,,,,,,,,,,,,,,,,
298252,2022-11-22_16h13.42.282,vts_reward_expectancy_bt,2022.2.4,Win32,60.0240096,Chrome,1440,960,,,,,,,,,,,,,,,,,,,,,,,U,167,star,1,0,,,1,,,,,,k,0.433,9,0,9,0,1,,,,,,,,,,,,,,,,,,,,,,,,,,,,,,,,,,
298252,2022-11-22_16h13.42.282,vts_reward_expectancy_bt,2022.2.4,Win32,60.0240096,Chrome,1440,960,,,,,0,522,,,,,,,,,,,,,,,,,H,125,hexagon,-1,0,,,2,,,,,,,,,,,,,-1,no_choice,NA,,vtsPrac,0,0,0,0,1,,,,,,,,,,,,,,,,,,,,,,,,
298252,2022-11-22_16h13.42.282,vts_reward_expectancy_bt,2022.2.4,Win32,60.0240096,Chrome,1440,960,,,,,0,522,,,,,,,,,,,,,,,,,B,139,star,1,0,,,2,,,,,,,,,,,,,switch,letter,lettSwt,d,vtsPrac,1,0,1,0,1,0.4012,,,,,,,,,,,,,,,,,,,,,,,
298252,2022-11-22_16h13.42.282,vts_reward_expectancy_bt,2022.2.4,Win32,60.0240096,Chrome,1440,960,,,,,0,522,,,,,,,,,,,,,,,,,W,132,hexagon,0,0,,,2,,,,,,,,,,,,,repeat,letter,NA,d,vtsPrac,2,0,2,0,1,0.9492,,,,,,,,,,,,,,,,,,,,,,,
298252,2022-11-22_16h13.42.282,vts_reward_expectancy_bt,2022.2.4,Win32,60.0240096,Chrome,1440,960,,,,,0,522,,,,,,,,,,,,,,,,,F,160,star,1,1,,,2,,,,,,,,,,,,,repeat,letter,lettRpt,d,vtsPrac,3,0,3,0,1,0.7816,,,,,,,,,,,,,,,,,,,,,,,
298252,2022-11-22_16h13.42.282,vts_reward_expectancy_bt,2022.2.4,Win32,60.0240096,Chrome,1440,960,,,,,0,522,,,,,,,,,,,,,,,,,H,125,star,1,0,,,2,,,,,,,,,,,,,switch,number,numSwt,j,vtsPrac,4,0,4,0,1,0.517,,,,,,,,,,,,,,,,,,,,,,,
298252,2022-11-22_16h13.42.282,vts_reward_expectancy_bt,2022.2.4,Win32,60.0240096,Chrome,1440,960,,,,,0,522,,,,,,,,,,,,,,,,,B,139,hexagon,1,0,,,2,,,,,,,,,,,,,repeat,number,numRpt,j,vtsPrac,5,0,5,0,1,0.7018,,,,,,,,,,,,,,,,,,,,,,,
298252,2022-11-22_16h13.42.282,vts_reward_expectancy_bt,2022.2.4,Win32,60.0240096,Chrome,1440,960,,,,,0,522,,,,,,,,,,,,,,,,,W,132,hexagon,0,0,,,2,,,,,,,,,,,,,repeat,number,NA,k,vtsPrac,6,0,6,0,1,0.5509,,,,,,,,,,,,,,,,,,,,,,,
298252,2022-11-22_16h13.42.282,vts_reward_expectancy_bt,2022.2.4,Win32,60.0240096,Chrome,1440,960,,,,,0,522,,,,,,,,,,,,,,,,,F,160,triangle,1,1,,,2,,,,,,,,,,,,,switch,letter,lettSwt,d,vtsPrac,7,0,7,0,1,0.9327,,,,,,,,,,,,,,,,,,,,,,,
298252,2022-11-22_16h13.42.282,vts_reward_expectancy_bt,2022.2.4,Win32,60.0240096,Chrome,1440,960,,,,,0,522,,,,,,,,,,,,,,,,,D,139,circle,1,0,,,2,,,,,,,,,,,,,repeat,letter,lettRpt,d,vtsPrac,8,0,8,0,1,0.9039,,,,,,,,,,,,,,,,,,,,,,,
298252,2022-11-22_16h13.42.282,vts_reward_expectancy_bt,2022.2.4,Win32,60.0240096,Chrome,1440,960,,,,,0,522,,,,,,,,,,,,,,,,,Y,181,star,1,0,,,2,,,,,,,,,,,,,repeat,letter,lettRpt,f,vtsPrac,9,0,9,0,1,0.3804,,,,,,,,,,,,,,,,,,,,,,,
298252,2022-11-22_16h13.42.282,vts_reward_expectancy_bt,2022.2.4,Win32,60.0240096,Chrome,1440,960,,,,,0,522,,,,,,,,,,,,,,,,,W,132,star,1,0,,,2,,,,,,,,,,,,,repeat,letter,lettRpt,f,vtsPrac,10,0,10,0,1,0.4341,,,,,,,,,,,,,,,,,,,,,,,
298252,2022-11-22_16h13.42.282,vts_reward_expectancy_bt,2022.2.4,Win32,60.0240096,Chrome,1440,960,,,,,0,522,,,,,,,,,,,,,,,,,B,146,circle,1,0,,,2,,,,,,,,,,,,,repeat,letter,lettRpt,d,vtsPrac,11,0,11,0,1,0.4869,,,,,,,,,,,,,,,,,,,,,,,
298252,2022-11-22_16h13.42.282,vts_reward_expectancy_bt,2022.2.4,Win32,60.0240096,Chrome,1440,960,,,,,0,522,,,,,,,,,,,,,,,,,F,167,triangle,1,0,,,2,,,,,,,,,,,,,repeat,letter,lettRpt,d,vtsPrac,12,0,12,0,1,0.5274,,,,,,,,,,,,,,,,,,,,,,,
298252,2022-11-22_16h13.42.282,vts_reward_expectancy_bt,2022.2.4,Win32,60.0240096,Chrome,1440,960,,,,,0,522,,,,,,,,,,,,,,,,,H,146,hexagon,1,0,,,2,,,,,,,,,,,,,repeat,letter,lettRpt,d,vtsPrac,13,0,13,0,1,0.5592,,,,,,,,,,,,,,,,,,,,,,,
298252,2022-11-22_16h13.42.282,vts_reward_expectancy_bt,2022.2.4,Win32,60.0240096,Chrome,1440,960,,,,,0,522,,,,,,,,,,,,,,,,,B,125,circle,1,0,,,2,,,,,,,,,,,,,repeat,letter,lettRpt,d,vtsPrac,14,0,14,0,1,0.5008,,,,,,,,,,,,,,,,,,,,,,,
298252,2022-11-22_16h13.42.282,vts_reward_expectancy_bt,2022.2.4,Win32,60.0240096,Chrome,1440,960,,,,,0,522,,,,,,,,,,,,,,,,,D,139,star,1,0,,,2,,,,,,,,,,,,,repeat,letter,lettRpt,d,vtsPrac,15,0,15,0,1,0.5213,,,,,,,,,,,,,,,,,,,,,,,
298252,2022-11-22_16h13.42.282,vts_reward_expectancy_bt,2022.2.4,Win32,60.0240096,Chrome,1440,960,,,,,0,522,,,,,,,,,,,,,,,,,W,160,star,1,0,,,2,,,,,,,,,,,,,repeat,letter,lettRpt,f,vtsPrac,16,0,16,0,1,0.4484,,,,,,,,,,,,,,,,,,,,,,,
298252,2022-11-22_16h13.42.282,vts_reward_expectancy_bt,2022.2.4,Win32,60.0240096,Chrome,1440,960,,,,,0,522,,,,,,,,,,,,,,,,,B,139,hexagon,1,0,,,2,,,,,,,,,,,,,repeat,letter,lettRpt,d,vtsPrac,17,0,17,0,1,0.384,,,,,,,,,,,,,,,,,,,,,,,
298252,2022-11-22_16h13.42.282,vts_reward_expectancy_bt,2022.2.4,Win32,60.0240096,Chrome,1440,960,,,,,0,522,,,,,,,,,,,,,,,,,U,146,circle,1,0,,,2,,,,,,,,,,,,,repeat,letter,lettRpt,f,vtsPrac,18,0,18,0,1,0.4498,,,,,,,,,,,,,,,,,,,,,,,
298252,2022-11-22_16h13.42.282,vts_reward_expectancy_bt,2022.2.4,Win32,60.0240096,Chrome,1440,960,,,,,0,522,,,,,,,,,,,,,,,,,Y,132,triangle,1,0,,,2,,,,,,,,,,,,,repeat,letter,lettRpt,f,vtsPrac,19,0,19,0,1,0.6339,,,,,,,,,,,,,,,,,,,,,,,
298252,2022-11-22_16h13.42.282,vts_reward_expectancy_bt,2022.2.4,Win32,60.0240096,Chrome,1440,960,,,,,0,522,,,,,,,,,,,,,,,,,B,139,circle,1,0,,,2,,,,,,,,,,,,,repeat,letter,lettRpt,d,vtsPrac,20,0,20,0,1,0.4826,,,,,,,,,,,,,,,,,,,,,,,
298252,2022-11-22_16h13.42.282,vts_reward_expectancy_bt,2022.2.4,Win32,60.0240096,Chrome,1440,960,,,,,0,522,,,,,,,,,,,,,,,,,W,132,triangle,1,0,,,2,,,,,,,,,,,,,repeat,letter,lettRpt,f,vtsPrac,21,0,21,0,1,0.3381,,,,,,,,,,,,,,,,,,,,,,,
298252,2022-11-22_16h13.42.282,vts_reward_expectancy_bt,2022.2.4,Win32,60.0240096,Chrome,1440,960,,,,,0,522,,,,,,,,,,,,,,,,,F,160,hexagon,1,0,,,2,,,,,,,,,,,,,repeat,letter,lettRpt,d,vtsPrac,22,0,22,0,1,0.434,,,,,,,,,,,,,,,,,,,,,,,
298252,2022-11-22_16h13.42.282,vts_reward_expectancy_bt,2022.2.4,Win32,60.0240096,Chrome,1440,960,,,,,0,522,,,,,,,,,,,,,,,,,U,181,circle,1,0,,,2,,,,,,,,,,,,,repeat,letter,lettRpt,f,vtsPrac,23,0,23,0,1,0.434,,,,,,,,,,,,,,,,,,,,,,,
298252,2022-11-22_16h13.42.282,vts_reward_expectancy_bt,2022.2.4,Win32,60.0240096,Chrome,1440,960,,,,,0,522,,,,,,,,,,,,,,,,,Y,174,circle,1,0,,,2,,,,,,,,,,,,,repeat,letter,lettRpt,f,vtsPrac,24,0,24,0,1,0.57,,,,,,,,,,,,,,,,,,,,,,,
298252,2022-11-22_16h13.42.282,vts_reward_expectancy_bt,2022.2.4,Win32,60.0240096,Chrome,1440,960,,,,,0,522,,,,,,,,,,,,,,,,,D,146,hexagon,1,0,,,2,,,,,,,,,,,,,repeat,letter,lettRpt,d,vtsPrac,25,0,25,0,1,0.5178,,,,,,,,,,,,,,,,,,,,,,,
298252,2022-11-22_16h13.42.282,vts_reward_expectancy_bt,2022.2.4,Win32,60.0240096,Chrome,1440,960,,,,,0,522,,,,,,,,,,,,,,,,,S,125,triangle,1,0,,,2,,,,,,,,,,,,,repeat,letter,lettRpt,f,vtsPrac,26,0,26,0,1,0.4672,,,,,,,,,,,,,,,,,,,,,,,
298252,2022-11-22_16h13.42.282,vts_reward_expectancy_bt,2022.2.4,Win32,60.0240096,Chrome,1440,960,,,,,0,522,,,,,,,,,,,,,,,,,H,167,hexagon,1,0,,,2,,,,,,,,,,,,,repeat,letter,lettRpt,d,vtsPrac,27,0,27,0,1,0.4361,,,,,,,,,,,,,,,,,,,,,,,
298252,2022-11-22_16h13.42.282,vts_reward_expectancy_bt,2022.2.4,Win32,60.0240096,Chrome,1440,960,,,,,0,522,,,,,,,,,,,,,,,,,H,132,triangle,1,0,,,2,,,,,,,,,,,,,repeat,letter,lettRpt,d,vtsPrac,28,0,28,0,1,0.4857,,,,,,,,,,,,,,,,,,,,,,,
298252,2022-11-22_16h13.42.282,vts_reward_expectancy_bt,2022.2.4,Win32,60.0240096,Chrome,1440,960,,,,,0,522,,,,,,,,,,,,,,,,,S,146,circle,0,0,,,2,,,,,,,,,,,,,repeat,letter,NA,d,vtsPrac,29,0,29,0,1,0.4992,,,,,,,,,,,,,,,,,,,,,,,
298252,2022-11-22_16h13.42.282,vts_reward_expectancy_bt,2022.2.4,Win32,60.0240096,Chrome,1440,960,,,,,0,522,,,,,,,,,,,,,,,,,U,167,hexagon,1,1,,,2,,,,,,,,,,,,,repeat,letter,lettRpt,f,vtsPrac,30,0,30,0,1,0.4838,,,,,,,,,,,,,,,,,,,,,,,
298252,2022-11-22_16h13.42.282,vts_reward_expectancy_bt,2022.2.4,Win32,60.0240096,Chrome,1440,960,,,,,0,522,,,,,,,,,,,,,,,,,W,160,circle,1,0,,,2,,,,,,,,,,,,,repeat,letter,lettRpt,f,vtsPrac,31,0,31,0,1,0.4675,,,,,,,,,,,,,,,,,,,,,,,
298252,2022-11-22_16h13.42.282,vts_reward_expectancy_bt,2022.2.4,Win32,60.0240096,Chrome,1440,960,,,,,0,522,,,,,,,,,,,,,,,,,F,139,star,0,0,,,3,,,,,,,,,,,,,repeat,letter,NA,f,vtsPrac,0,0,0,0,1,0.6689,,,,,,,,,,,,,,,,,,,,,,,
298252,2022-11-22_16h13.42.282,vts_reward_expectancy_bt,2022.2.4,Win32,60.0240096,Chrome,1440,960,,,,,0,522,,,,,,,,,,,,,,,,,B,174,triangle,1,1,,,3,,,,,,,,,,,,,repeat,letter,lettRpt,d,vtsPrac,1,0,1,0,1,0.6107,,,,,,,,,,,,,,,,,,,,,,,
298252,2022-11-22_16h13.42.282,vts_reward_expectancy_bt,2022.2.4,Win32,60.0240096,Chrome,1440,960,,,,,0,522,,,,,,,,,,,,,,,,,S,132,star,1,0,,,3,,,,,,,,,,,,,repeat,letter,lettRpt,f,vtsPrac,2,0,2,0,1,0.4501,,,,,,,,,,,,,,,,,,,,,,,
298252,2022-11-22_16h13.42.282,vts_reward_expectancy_bt,2022.2.4,Win32,60.0240096,Chrome,1440,960,,,,,0,522,,,,,,,,,,,,,,,,,Y,146,triangle,1,0,,,3,,,,,,,,,,,,,repeat,letter,lettRpt,f,vtsPrac,3,0,3,0,1,0.6388,,,,,,,,,,,,,,,,,,,,,,,
298252,2022-11-22_16h13.42.282,vts_reward_expectancy_bt,2022.2.4,Win32,60.0240096,Chrome,1440,960,,,,,0,522,,,,,,,,,,,,,,,,,F,139,star,1,0,,,3,,,,,,,,,,,,,repeat,letter,lettRpt,d,vtsPrac,4,0,4,0,1,0.4299,,,,,,,,,,,,,,,,,,,,,,,
298252,2022-11-22_16h13.42.282,vts_reward_expectancy_bt,2022.2.4,Win32,60.0240096,Chrome,1440,960,,,,,0,522,,,,,,,,,,,,,,,,,B,174,triangle,1,0,,,3,,,,,,,,,,,,,repeat,letter,lettRpt,d,vtsPrac,5,0,5,0,1,0.3865,,,,,,,,,,,,,,,,,,,,,,,
298252,2022-11-22_16h13.42.282,vts_reward_expectancy_bt,2022.2.4,Win32,60.0240096,Chrome,1440,960,,,,,0,522,,,,,,,,,,,,,,,,,S,132,star,1,0,,,3,,,,,,,,,,,,,repeat,letter,lettRpt,f,vtsPrac,6,0,6,0,1,0.455,,,,,,,,,,,,,,,,,,,,,,,
298252,2022-11-22_16h13.42.282,vts_reward_expectancy_bt,2022.2.4,Win32,60.0240096,Chrome,1440,960,,,,,0,522,,,,,,,,,,,,,,,,,Y,146,hexagon,1,0,,,3,,,,,,,,,,,,,repeat,letter,lettRpt,f,vtsPrac,7,0,7,0,1,0.5694,,,,,,,,,,,,,,,,,,,,,,,
298252,2022-11-22_16h13.42.282,vts_reward_expectancy_bt,2022.2.4,Win32,60.0240096,Chrome,1440,960,,,,,0,522,,,,,,,,,,,,,,,,,U,132,hexagon,1,0,,,3,,,,,,,,,,,,,repeat,letter,lettRpt,f,vtsPrac,8,0,8,0,1,1.0949,,,,,,,,,,,,,,,,,,,,,,,
298252,2022-11-22_16h13.42.282,vts_reward_expectancy_bt,2022.2.4,Win32,60.0240096,Chrome,1440,960,,,,,0,522,,,,,,,,,,,,,,,,,S,125,triangle,1,0,,,3,,,,,,,,,,,,,repeat,letter,lettRpt,f,vtsPrac,9,0,9,0,1,0.6008,,,,,,,,,,,,,,,,,,,,,,,
298252,2022-11-22_16h13.42.282,vts_reward_expectancy_bt,2022.2.4,Win32,60.0240096,Chrome,1440,960,,,,,0,522,,,,,,,,,,,,,,,,,B,139,hexagon,1,0,,,3,,,,,,,,,,,,,repeat,letter,lettRpt,d,vtsPrac,10,0,10,0,1,0.4675,,,,,,,,,,,,,,,,,,,,,,,
298252,2022-11-22_16h13.42.282,vts_reward_expectancy_bt,2022.2.4,Win32,60.0240096,Chrome,1440,960,,,,,0,522,,,,,,,,,,,,,,,,,Y,174,circle,1,0,,,3,,,,,,,,,,,,,repeat,letter,lettRpt,f,vtsPrac,11,0,11,0,1,0.4507,,,,,,,,,,,,,,,,,,,,,,,
298252,2022-11-22_16h13.42.282,vts_reward_expectancy_bt,2022.2.4,Win32,60.0240096,Chrome,1440,960,,,,,0,522,,,,,,,,,,,,,,,,,U,181,star,1,0,,,3,,,,,,,,,,,,,repeat,letter,lettRpt,f,vtsPrac,12,0,12,0,1,0.5542,,,,,,,,,,,,,,,,,,,,,,,
298252,2022-11-22_16h13.42.282,vts_reward_expectancy_bt,2022.2.4,Win32,60.0240096,Chrome,1440,960,,,,,0,522,,,,,,,,,,,,,,,,,W,125,circle,1,0,,,3,,,,,,,,,,,,,repeat,letter,lettRpt,f,vtsPrac,13,0,13,0,1,0.5321,,,,,,,,,,,,,,,,,,,,,,,
298252,2022-11-22_16h13.42.282,vts_reward_expectancy_bt,2022.2.4,Win32,60.0240096,Chrome,1440,960,,,,,0,522,,,,,,,,,,,,,,,,,S,160,star,0,0,,,3,,,,,,,,,,,,,repeat,letter,NA,d,vtsPrac,14,0,14,0,1,0.5654,,,,,,,,,,,,,,,,,,,,,,,
298252,2022-11-22_16h13.42.282,vts_reward_expectancy_bt,2022.2.4,Win32,60.0240096,Chrome,1440,960,,,,,0,522,,,,,,,,,,,,,,,,,Y,132,triangle,1,1,,,3,,,,,,,,,,,,,repeat,letter,lettRpt,f,vtsPrac,15,0,15,0,1,0.5666,,,,,,,,,,,,,,,,,,,,,,,
298252,2022-11-22_16h13.42.282,vts_reward_expectancy_bt,2022.2.4,Win32,60.0240096,Chrome,1440,960,,,,,0,522,,,,,,,,,,,,,,,,,U,132,hexagon,1,0,,,3,,,,,,,,,,,,,repeat,letter,lettRpt,f,vtsPrac,16,0,16,0,1,0.4344,,,,,,,,,,,,,,,,,,,,,,,
298252,2022-11-22_16h13.42.282,vts_reward_expectancy_bt,2022.2.4,Win32,60.0240096,Chrome,1440,960,,,,,0,522,,,,,,,,,,,,,,,,,B,174,triangle,1,0,,,3,,,,,,,,,,,,,repeat,letter,lettRpt,d,vtsPrac,17,0,17,0,1,0.37,,,,,,,,,,,,,,,,,,,,,,,
298252,2022-11-22_16h13.42.282,vts_reward_expectancy_bt,2022.2.4,Win32,60.0240096,Chrome,1440,960,,,,,0,522,,,,,,,,,,,,,,,,,Y,146,circle,1,0,,,3,,,,,,,,,,,,,repeat,letter,lettRpt,f,vtsPrac,18,0,18,0,1,0.4466,,,,,,,,,,,,,,,,,,,,,,,
298252,2022-11-22_16h13.42.282,vts_reward_expectancy_bt,2022.2.4,Win32,60.0240096,Chrome,1440,960,,,,,0,522,,,,,,,,,,,,,,,,,F,139,triangle,1,0,,,3,,,,,,,,,,,,,repeat,letter,lettRpt,d,vtsPrac,19,0,19,0,1,0.701,,,,,,,,,,,,,,,,,,,,,,,
298252,2022-11-22_16h13.42.282,vts_reward_expectancy_bt,2022.2.4,Win32,60.0240096,Chrome,1440,960,,,,,0,522,,,,,,,,,,,,,,,,,F,139,star,0,0,,,3,,,,,,,,,,,,,repeat,letter,NA,f,vtsPrac,20,0,20,0,1,0.7183,,,,,,,,,,,,,,,,,,,,,,,
298252,2022-11-22_16h13.42.282,vts_reward_expectancy_bt,2022.2.4,Win32,60.0240096,Chrome,1440,960,,,,,0,522,,,,,,,,,,,,,,,,,S,174,triangle,1,1,,,3,,,,,,,,,,,,,repeat,letter,lettRpt,f,vtsPrac,21,0,21,0,1,0.8015,,,,,,,,,,,,,,,,,,,,,,,
298252,2022-11-22_16h13.42.282,vts_reward_expectancy_bt,2022.2.4,Win32,60.0240096,Chrome,1440,960,,,,,0,522,,,,,,,,,,,,,,,,,Y,160,star,1,0,,,3,,,,,,,,,,,,,repeat,letter,lettRpt,f,vtsPrac,22,0,22,0,1,0.439,,,,,,,,,,,,,,,,,,,,,,,
298252,2022-11-22_16h13.42.282,vts_reward_expectancy_bt,2022.2.4,Win32,60.0240096,Chrome,1440,960,,,,,0,522,,,,,,,,,,,,,,,,,H,167,triangle,1,0,,,3,,,,,,,,,,,,,repeat,letter,lettRpt,d,vtsPrac,23,0,23,0,1,0.505,,,,,,,,,,,,,,,,,,,,,,,
298252,2022-11-22_16h13.42.282,vts_reward_expectancy_bt,2022.2.4,Win32,60.0240096,Chrome,1440,960,,,,,0,522,,,,,,,,,,,,,,,,,F,132,circle,1,0,,,3,,,,,,,,,,,,,repeat,letter,lettRpt,d,vtsPrac,24,0,24,0,1,0.6702,,,,,,,,,,,,,,,,,,,,,,,
298252,2022-11-22_16h13.42.282,vts_reward_expectancy_bt,2022.2.4,Win32,60.0240096,Chrome,1440,960,,,,,0,522,,,,,,,,,,,,,,,,,Y,139,hexagon,1,0,,,3,,,,,,,,,,,,,repeat,letter,lettRpt,f,vtsPrac,25,0,25,0,1,0.5775,,,,,,,,,,,,,,,,,,,,,,,
298252,2022-11-22_16h13.42.282,vts_reward_expectancy_bt,2022.2.4,Win32,60.0240096,Chrome,1440,960,,,,,0,522,,,,,,,,,,,,,,,,,U,125,triangle,1,0,,,3,,,,,,,,,,,,,repeat,letter,lettRpt,f,vtsPrac,26,0,26,0,1,0.6035,,,,,,,,,,,,,,,,,,,,,,,
298252,2022-11-22_16h13.42.282,vts_reward_expectancy_bt,2022.2.4,Win32,60.0240096,Chrome,1440,960,,,,,0,522,,,,,,,,,,,,,,,,,D,174,star,1,0,,,3,,,,,,,,,,,,,repeat,letter,lettRpt,d,vtsPrac,27,0,27,0,1,0.3573,,,,,,,,,,,,,,,,,,,,,,,
298252,2022-11-22_16h13.42.282,vts_reward_expectancy_bt,2022.2.4,Win32,60.0240096,Chrome,1440,960,,,,,0,522,,,,,,,,,,,,,,,,,H,167,circle,1,0,,,3,,,,,,,,,,,,,repeat,letter,lettRpt,d,vtsPrac,28,0,28,0,1,0.5268,,,,,,,,,,,,,,,,,,,,,,,
298252,2022-11-22_16h13.42.282,vts_reward_expectancy_bt,2022.2.4,Win32,60.0240096,Chrome,1440,960,,,,,0,522,,,,,,,,,,,,,,,,,Y,125,hexagon,1,0,,,3,,,,,,,,,,,,,repeat,letter,lettRpt,f,vtsPrac,29,0,29,0,1,0.4339,,,,,,,,,,,,,,,,,,,,,,,
298252,2022-11-22_16h13.42.282,vts_reward_expectancy_bt,2022.2.4,Win32,60.0240096,Chrome,1440,960,,,,,0,522,,,,,,,,,,,,,,,,,B,146,star,1,0,,,3,,,,,,,,,,,,,repeat,letter,lettRpt,d,vtsPrac,30,0,30,0,1,0.4507,,,,,,,,,,,,,,,,,,,,,,,
298252,2022-11-22_16h13.42.282,vts_reward_expectancy_bt,2022.2.4,Win32,60.0240096,Chrome,1440,960,,,,,0,522,,,,,,,,,,,,,,,,,W,174,triangle,1,0,,,3,,,,,,,,,,,,,repeat,letter,lettRpt,f,vtsPrac,31,0,31,0,1,0.5977,,,,,,,,,,,,,,,,,,,,,,,
298252,2022-11-22_16h13.42.282,vts_reward_expectancy_bt,2022.2.4,Win32,60.0240096,Chrome,1440,960,,,,,0,522,,,,,,,,,,,,,,,,,H,174,hexagon,1,0,,,4,,,,,,,,,,,,,repeat,letter,lettRpt,d,vtsPrac,0,0,0,0,1,0.5732,,,,,,,,,,,,,,,,,,,,,,,
298252,2022-11-22_16h13.42.282,vts_reward_expectancy_bt,2022.2.4,Win32,60.0240096,Chrome,1440,960,,,,,0,522,,,,,,,,,,,,,,,,,B,160,circle,1,0,,,4,,,,,,,,,,,,,repeat,letter,lettRpt,d,vtsPrac,1,0,1,0,1,0.5508,,,,,,,,,,,,,,,,,,,,,,,
298252,2022-11-22_16h13.42.282,vts_reward_expectancy_bt,2022.2.4,Win32,60.0240096,Chrome,1440,960,,,,,0,522,,,,,,,,,,,,,,,,,Y,181,hexagon,1,0,,,4,,,,,,,,,,,,,repeat,letter,lettRpt,f,vtsPrac,2,0,2,0,1,0.5013,,,,,,,,,,,,,,,,,,,,,,,
298252,2022-11-22_16h13.42.282,vts_reward_expectancy_bt,2022.2.4,Win32,60.0240096,Chrome,1440,960,,,,,0,522,,,,,,,,,,,,,,,,,D,146,circle,1,0,,,4,,,,,,,,,,,,,repeat,letter,lettRpt,d,vtsPrac,3,0,3,0,1,0.667,,,,,,,,,,,,,,,,,,,,,,,
298252,2022-11-22_16h13.42.282,vts_reward_expectancy_bt,2022.2.4,Win32,60.0240096,Chrome,1440,960,,,,,0,522,,,,,,,,,,,,,,,,,H,174,star,1,0,,,4,,,,,,,,,,,,,repeat,letter,lettRpt,d,vtsPrac,4,0,4,0,1,0.5563,,,,,,,,,,,,,,,,,,,,,,,
298252,2022-11-22_16h13.42.282,vts_reward_expectancy_bt,2022.2.4,Win32,60.0240096,Chrome,1440,960,,,,,0,522,,,,,,,,,,,,,,,,,B,160,hexagon,1,0,,,4,,,,,,,,,,,,,repeat,letter,lettRpt,d,vtsPrac,5,0,5,0,1,0.5561,,,,,,,,,,,,,,,,,,,,,,,
298252,2022-11-22_16h13.42.282,vts_reward_expectancy_bt,2022.2.4,Win32,60.0240096,Chrome,1440,960,,,,,0,522,,,,,,,,,,,,,,,,,Y,181,star,1,0,,,4,,,,,,,,,,,,,repeat,letter,lettRpt,f,vtsPrac,6,0,6,0,1,0.4508,,,,,,,,,,,,,,,,,,,,,,,
298252,2022-11-22_16h13.42.282,vts_reward_expectancy_bt,2022.2.4,Win32,60.0240096,Chrome,1440,960,,,,,0,522,,,,,,,,,,,,,,,,,D,146,triangle,1,0,,,4,,,,,,,,,,,,,repeat,letter,lettRpt,d,vtsPrac,7,0,7,0,1,0.5289,,,,,,,,,,,,,,,,,,,,,,,
298252,2022-11-22_16h13.42.282,vts_reward_expectancy_bt,2022.2.4,Win32,60.0240096,Chrome,1440,960,,,,,0,522,,,,,,,,,,,,,,,,,D,132,hexagon,1,0,,,4,,,,,,,,,,,,,repeat,letter,lettRpt,d,vtsPrac,8,0,8,0,1,0.4747,,,,,,,,,,,,,,,,,,,,,,,
298252,2022-11-22_16h13.42.282,vts_reward_expectancy_bt,2022.2.4,Win32,60.0240096,Chrome,1440,960,,,,,0,522,,,,,,,,,,,,,,,,,U,167,triangle,1,0,,,4,,,,,,,,,,,,,repeat,letter,lettRpt,f,vtsPrac,9,0,9,0,1,0.4343,,,,,,,,,,,,,,,,,,,,,,,
298252,2022-11-22_16h13.42.282,vts_reward_expectancy_bt,2022.2.4,Win32,60.0240096,Chrome,1440,960,,,,,0,522,,,,,,,,,,,,,,,,,W,174,star,1,0,,,4,,,,,,,,,,,,,repeat,letter,lettRpt,f,vtsPrac,10,0,10,0,1,0.4009,,,,,,,,,,,,,,,,,,,,,,,
298252,2022-11-22_16h13.42.282,vts_reward_expectancy_bt,2022.2.4,Win32,60.0240096,Chrome,1440,960,,,,,0,522,,,,,,,,,,,,,,,,,F,160,hexagon,1,0,,,4,,,,,,,,,,,,,repeat,letter,lettRpt,d,vtsPrac,11,0,11,0,1,0.501,,,,,,,,,,,,,,,,,,,,,,,
298252,2022-11-22_16h13.42.282,vts_reward_expectancy_bt,2022.2.4,Win32,60.0240096,Chrome,1440,960,,,,,0,522,,,,,,,,,,,,,,,,,F,125,hexagon,1,0,,,4,,,,,,,,,,,,,repeat,letter,lettRpt,d,vtsPrac,12,0,12,0,1,0.5847,,,,,,,,,,,,,,,,,,,,,,,
298252,2022-11-22_16h13.42.282,vts_reward_expectancy_bt,2022.2.4,Win32,60.0240096,Chrome,1440,960,,,,,0,522,,,,,,,,,,,,,,,,,D,146,triangle,1,0,,,4,,,,,,,,,,,,,repeat,letter,lettRpt,d,vtsPrac,13,0,13,0,1,0.501,,,,,,,,,,,,,,,,,,,,,,,
298252,2022-11-22_16h13.42.282,vts_reward_expectancy_bt,2022.2.4,Win32,60.0240096,Chrome,1440,960,,,,,0,522,,,,,,,,,,,,,,,,,B,174,hexagon,1,0,,,4,,,,,,,,,,,,,repeat,letter,lettRpt,d,vtsPrac,14,0,14,0,1,0.4263,,,,,,,,,,,,,,,,,,,,,,,
298252,2022-11-22_16h13.42.282,vts_reward_expectancy_bt,2022.2.4,Win32,60.0240096,Chrome,1440,960,,,,,0,522,,,,,,,,,,,,,,,,,Y,181,circle,1,0,,,4,,,,,,,,,,,,,repeat,letter,lettRpt,f,vtsPrac,15,0,15,0,1,0.5342,,,,,,,,,,,,,,,,,,,,,,,
298252,2022-11-22_16h13.42.282,vts_reward_expectancy_bt,2022.2.4,Win32,60.0240096,Chrome,1440,960,,,,,0,522,,,,,,,,,,,,,,,,,D,125,triangle,1,0,,,4,,,,,,,,,,,,,repeat,letter,lettRpt,d,vtsPrac,16,0,16,0,1,0.5217,,,,,,,,,,,,,,,,,,,,,,,
298252,2022-11-22_16h13.42.282,vts_reward_expectancy_bt,2022.2.4,Win32,60.0240096,Chrome,1440,960,,,,,0,522,,,,,,,,,,,,,,,,,W,181,circle,1,0,,,4,,,,,,,,,,,,,repeat,letter,lettRpt,f,vtsPrac,17,0,17,0,1,0.4343,,,,,,,,,,,,,,,,,,,,,,,
298252,2022-11-22_16h13.42.282,vts_reward_expectancy_bt,2022.2.4,Win32,60.0240096,Chrome,1440,960,,,,,0,522,,,,,,,,,,,,,,,,,Y,146,triangle,1,0,,,4,,,,,,,,,,,,,repeat,letter,lettRpt,f,vtsPrac,18,0,18,0,1,0.5545,,,,,,,,,,,,,,,,,,,,,,,
298252,2022-11-22_16h13.42.282,vts_reward_expectancy_bt,2022.2.4,Win32,60.0240096,Chrome,1440,960,,,,,0,522,,,,,,,,,,,,,,,,,S,167,circle,1,0,,,4,,,,,,,,,,,,,repeat,letter,lettRpt,f,vtsPrac,19,0,19,0,1,0.5341,,,,,,,,,,,,,,,,,,,,,,,
298252,2022-11-22_16h13.42.282,vts_reward_expectancy_bt,2022.2.4,Win32,60.0240096,Chrome,1440,960,,,,,0,522,,,,,,,,,,,,,,,,,Y,146,star,1,0,,,4,,,,,,,,,,,,,repeat,letter,lettRpt,f,vtsPrac,20,0,20,0,1,0.5878,,,,,,,,,,,,,,,,,,,,,,,
298252,2022-11-22_16h13.42.282,vts_reward_expectancy_bt,2022.2.4,Win32,60.0240096,Chrome,1440,960,,,,,0,522,,,,,,,,,,,,,,,,,U,181,hexagon,1,0,,,4,,,,,,,,,,,,,repeat,letter,lettRpt,f,vtsPrac,21,0,21,0,1,0.5742,,,,,,,,,,,,,,,,,,,,,,,
298252,2022-11-22_16h13.42.282,vts_reward_expectancy_bt,2022.2.4,Win32,60.0240096,Chrome,1440,960,,,,,0,522,,,,,,,,,,,,,,,,,W,125,triangle,1,0,,,4,,,,,,,,,,,,,repeat,letter,lettRpt,f,vtsPrac,22,0,22,0,1,0.5907,,,,,,,,,,,,,,,,,,,,,,,
298252,2022-11-22_16h13.42.282,vts_reward_expectancy_bt,2022.2.4,Win32,60.0240096,Chrome,1440,960,,,,,0,522,,,,,,,,,,,,,,,,,H,132,hexagon,1,0,,,4,,,,,,,,,,,,,repeat,letter,lettRpt,d,vtsPrac,23,0,23,0,1,0.5732,,,,,,,,,,,,,,,,,,,,,,,
298252,2022-11-22_16h13.42.282,vts_reward_expectancy_bt,2022.2.4,Win32,60.0240096,Chrome,1440,960,,,,,0,522,,,,,,,,,,,,,,,,,W,146,star,1,0,,,4,,,,,,,,,,,,,repeat,letter,lettRpt,f,vtsPrac,24,0,24,0,1,0.5515,,,,,,,,,,,,,,,,,,,,,,,
298252,2022-11-22_16h13.42.282,vts_reward_expectancy_bt,2022.2.4,Win32,60.0240096,Chrome,1440,960,,,,,0,522,,,,,,,,,,,,,,,,,B,125,triangle,1,0,,,4,,,,,,,,,,,,,repeat,letter,lettRpt,d,vtsPrac,25,0,25,0,1,0.491,,,,,,,,,,,,,,,,,,,,,,,
298252,2022-11-22_16h13.42.282,vts_reward_expectancy_bt,2022.2.4,Win32,60.0240096,Chrome,1440,960,,,,,0,522,,,,,,,,,,,,,,,,,S,181,triangle,1,0,,,4,,,,,,,,,,,,,repeat,letter,lettRpt,f,vtsPrac,26,0,26,0,1,0.6337,,,,,,,,,,,,,,,,,,,,,,,
298252,2022-11-22_16h13.42.282,vts_reward_expectancy_bt,2022.2.4,Win32,60.0240096,Chrome,1440,960,,,,,0,522,,,,,,,,,,,,,,,,,F,132,circle,1,0,,,4,,,,,,,,,,,,,repeat,letter,lettRpt,d,vtsPrac,27,0,27,0,1,0.4507,,,,,,,,,,,,,,,,,,,,,,,
298252,2022-11-22_16h13.42.282,vts_reward_expectancy_bt,2022.2.4,Win32,60.0240096,Chrome,1440,960,,,,,0,522,,,,,,,,,,,,,,,,,D,132,triangle,1,0,,,4,,,,,,,,,,,,,repeat,letter,lettRpt,d,vtsPrac,28,0,28,0,1,0.618,,,,,,,,,,,,,,,,,,,,,,,
298252,2022-11-22_16h13.42.282,vts_reward_expectancy_bt,2022.2.4,Win32,60.0240096,Chrome,1440,960,,,,,0,522,,,,,,,,,,,,,,,,,S,146,circle,1,0,,,4,,,,,,,,,,,,,repeat,letter,lettRpt,f,vtsPrac,29,0,29,0,1,0.474,,,,,,,,,,,,,,,,,,,,,,,
298252,2022-11-22_16h13.42.282,vts_reward_expectancy_bt,2022.2.4,Win32,60.0240096,Chrome,1440,960,,,,,0,522,,,,,,,,,,,,,,,,,W,160,triangle,1,0,,,4,,,,,,,,,,,,,repeat,letter,lettRpt,f,vtsPrac,30,0,30,0,1,0.4677,,,,,,,,,,,,,,,,,,,,,,,
298252,2022-11-22_16h13.42.282,vts_reward_expectancy_bt,2022.2.4,Win32,60.0240096,Chrome,1440,960,,,,,0,522,,,,,,,,,,,,,,,,,H,181,circle,1,0,,,4,,,,,,,,,,,,,repeat,letter,lettRpt,d,vtsPrac,31,0,31,0,1,0.6029,,,,,,,,,,,,,,,,,,,,,,,
298252,2022-11-22_16h13.42.282,vts_reward_expectancy_bt,2022.2.4,Win32,60.0240096,Chrome,1440,960,,,,,,,,,,,,,,,,,,,,,,,,,,,,,,,,,,,,,,,,,,,,,,,,,,,,,,,,,,,,,,,,,,,,,,,,,,,,
298252,2022-11-22_16h13.42.282,vts_reward_expectancy_bt,2022.2.4,Win32,60.0240096,Chrome,1440,960,,,,,,,,,,,,,,,,,,,,,,,,,,,,,,,,,,,,,,,,,,,,,,,,,,,,,,,,,,,,,,,,,,,,,,,,,,,,
298252,2022-11-22_16h13.42.282,vts_reward_expectancy_bt,2022.2.4,Win32,60.0240096,Chrome,1440,960,,,,,0,522,,,,,,,,,,,,,,,,,W,125,triangle,1,0,,,,,,,,,,,,,,,,switch,number,numSwt,j,noRew,,,,,,0.6099,0,0,0,0,0,1,,,,,,,,,,,,,,,,,
298252,2022-11-22_16h13.42.282,vts_reward_expectancy_bt,2022.2.4,Win32,60.0240096,Chrome,1440,960,,,,,0,522,,,,,,,,,,,,,,,,,B,139,hexagon,1,0,,,,,,,,,,,,,,,,switch,letter,lettSwt,d,noRew,,,,,,0.5515,0,1,0,1,0,1,,,,,,,,,,,,,,,,,
298252,2022-11-22_16h13.42.282,vts_reward_expectancy_bt,2022.2.4,Win32,60.0240096,Chrome,1440,960,,,,,0,522,,,,,,,,,,,,,,,,,H,181,triangle,1,0,,,,,,,,,,,,,,,,switch,number,numSwt,k,noRew,,,,,,0.7509,0,2,0,2,0,1,,,,,,,,,,,,,,,,,
298252,2022-11-22_16h13.42.282,vts_reward_expectancy_bt,2022.2.4,Win32,60.0240096,Chrome,1440,960,,,,,0,522,,,,,,,,,,,,,,,,,U,132,hexagon,1,0,,,,,,,,,,,,,,,,switch,letter,lettSwt,f,noRew,,,,,,0.9009,0,3,0,3,0,1,,,,,,,,,,,,,,,,,
298252,2022-11-22_16h13.42.282,vts_reward_expectancy_bt,2022.2.4,Win32,60.0240096,Chrome,1440,960,,,,,0,522,,,,,,,,,,,,,,,,,W,125,triangle,1,0,,,,,,,,,,,,,,,,switch,number,numSwt,j,noRew,,,,,,0.601,0,4,0,4,0,1,,,,,,,,,,,,,,,,,
298252,2022-11-22_16h13.42.282,vts_reward_expectancy_bt,2022.2.4,Win32,60.0240096,Chrome,1440,960,,,,,0,522,,,,,,,,,,,,,,,,,B,139,circle,1,0,,,,,,,,,,,,,,,,repeat,number,numRpt,j,noRew,,,,,,0.9965,0,5,0,5,0,1,,,,,,,,,,,,,,,,,
298252,2022-11-22_16h13.42.282,vts_reward_expectancy_bt,2022.2.4,Win32,60.0240096,Chrome,1440,960,,,,,0,522,,,,,,,,,,,,,,,,,H,181,triangle,1,0,,,,,,,,,,,,,,,,repeat,number,numRpt,k,noRew,,,,,,0.5247,0,6,0,6,0,1,,,,,,,,,,,,,,,,,
298252,2022-11-22_16h13.42.282,vts_reward_expectancy_bt,2022.2.4,Win32,60.0240096,Chrome,1440,960,,,,,0,522,,,,,,,,,,,,,,,,,U,132,star,1,0,,,,,,,,,,,,,,,,switch,letter,lettSwt,f,noRew,,,,,,1.1536,0,7,0,7,0,1,,,,,,,,,,,,,,,,,
298252,2022-11-22_16h13.42.282,vts_reward_expectancy_bt,2022.2.4,Win32,60.0240096,Chrome,1440,960,,,,,0,522,,,,,,,,,,,,,,,,,S,132,triangle,1,0,,,,,,,,,,,,,,,,repeat,letter,lettRpt,f,noRew,,,,,,0.6543,0,8,0,8,0,1,,,,,,,,,,,,,,,,,
298252,2022-11-22_16h13.42.282,vts_reward_expectancy_bt,2022.2.4,Win32,60.0240096,Chrome,1440,960,,,,,0,522,,,,,,,,,,,,,,,,,H,160,star,1,0,,,,,,,,,,,,,,,,repeat,letter,lettRpt,d,noRew,,,,,,0.9345,0,9,0,9,0,1,,,,,,,,,,,,,,,,,
298252,2022-11-22_16h13.42.282,vts_reward_expectancy_bt,2022.2.4,Win32,60.0240096,Chrome,1440,960,,,,,0,522,,,,,,,,,,,,,,,,,B,125,triangle,1,0,,,,,,,,,,,,,,,,switch,number,numSwt,j,noRew,,,,,,0.4353,0,10,0,10,0,1,,,,,,,,,,,,,,,,,
298252,2022-11-22_16h13.42.282,vts_reward_expectancy_bt,2022.2.4,Win32,60.0240096,Chrome,1440,960,,,,,0,522,,,,,,,,,,,,,,,,,Y,181,hexagon,1,0,,,,,,,,,,,,,,,,switch,letter,lettSwt,f,noRew,,,,,,0.3838,0,11,0,11,0,1,,,,,,,,,,,,,,,,,
298252,2022-11-22_16h13.42.282,vts_reward_expectancy_bt,2022.2.4,Win32,60.0240096,Chrome,1440,960,,,,,0,522,,,,,,,,,,,,,,,,,F,132,circle,1,0,,,,,,,,,,,,,,,,switch,number,numSwt,j,noRew,,,,,,0.5344,0,12,0,12,0,1,,,,,,,,,,,,,,,,,
298252,2022-11-22_16h13.42.282,vts_reward_expectancy_bt,2022.2.4,Win32,60.0240096,Chrome,1440,960,,,,,0,522,,,,,,,,,,,,,,,,,S,139,star,1,0,,,,,,,,,,,,,,,,switch,letter,lettSwt,f,noRew,,,,,,0.9859,0,13,0,13,0,1,,,,,,,,,,,,,,,,,
298252,2022-11-22_16h13.42.282,vts_reward_expectancy_bt,2022.2.4,Win32,60.0240096,Chrome,1440,960,,,,,0,522,,,,,,,,,,,,,,,,,U,167,hexagon,1,0,,,,,,,,,,,,,,,,switch,number,numSwt,k,noRew,,,,,,0.4633,0,14,0,14,0,1,,,,,,,,,,,,,,,,,
298252,2022-11-22_16h13.42.282,vts_reward_expectancy_bt,2022.2.4,Win32,60.0240096,Chrome,1440,960,,,,,0,522,,,,,,,,,,,,,,,,,Y,181,circle,1,0,,,,,,,,,,,,,,,,switch,letter,lettSwt,f,noRew,,,,,,0.8967,0,15,0,15,0,1,,,,,,,,,,,,,,,,,
298252,2022-11-22_16h13.42.282,vts_reward_expectancy_bt,2022.2.4,Win32,60.0240096,Chrome,1440,960,,,,,0,522,,,,,,,,,,,,,,,,,Y,146,circle,1,0,,,,,,,,,,,,,,,,switch,number,numSwt,j,noRew,,,,,,0.9122,0,16,0,16,0,1,,,,,,,,,,,,,,,,,
298252,2022-11-22_16h13.42.282,vts_reward_expectancy_bt,2022.2.4,Win32,60.0240096,Chrome,1440,960,,,,,0,522,,,,,,,,,,,,,,,,,W,139,hexagon,1,0,,,,,,,,,,,,,,,,switch,letter,lettSwt,f,noRew,,,,,,0.4943,0,17,0,17,0,1,,,,,,,,,,,,,,,,,
298252,2022-11-22_16h13.42.282,vts_reward_expectancy_bt,2022.2.4,Win32,60.0240096,Chrome,1440,960,,,,,0,522,,,,,,,,,,,,,,,,,H,125,hexagon,1,0,,,,,,,,,,,,,,,,switch,number,numSwt,j,noRew,,,,,,0.4925,0,18,0,18,0,1,,,,,,,,,,,,,,,,,
298252,2022-11-22_16h13.42.282,vts_reward_expectancy_bt,2022.2.4,Win32,60.0240096,Chrome,1440,960,,,,,0,522,,,,,,,,,,,,,,,,,D,160,circle,1,0,,,,,,,,,,,,,,,,switch,letter,lettSwt,d,noRew,,,,,,0.4842,0,19,0,19,0,1,,,,,,,,,,,,,,,,,
298252,2022-11-22_16h13.42.282,vts_reward_expectancy_bt,2022.2.4,Win32,60.0240096,Chrome,1440,960,,,,,0,522,,,,,,,,,,,,,,,,,F,167,star,1,0,,,,,,,,,,,,,,,,switch,number,numSwt,k,noRew,,,,,,0.4341,0,20,0,20,0,1,,,,,,,,,,,,,,,,,
298252,2022-11-22_16h13.42.282,vts_reward_expectancy_bt,2022.2.4,Win32,60.0240096,Chrome,1440,960,,,,,0,522,,,,,,,,,,,,,,,,,D,160,triangle,1,0,,,,,,,,,,,,,,,,switch,letter,lettSwt,d,noRew,,,,,,0.8353,0,21,0,21,0,1,,,,,,,,,,,,,,,,,
298252,2022-11-22_16h13.42.282,vts_reward_expectancy_bt,2022.2.4,Win32,60.0240096,Chrome,1440,960,,,,,0,522,,,,,,,,,,,,,,,,,W,139,hexagon,1,0,,,,,,,,,,,,,,,,switch,number,numSwt,j,noRew,,,,,,1.0343,0,22,0,22,0,1,,,,,,,,,,,,,,,,,
298252,2022-11-22_16h13.42.282,vts_reward_expectancy_bt,2022.2.4,Win32,60.0240096,Chrome,1440,960,,,,,0,522,,,,,,,,,,,,,,,,,Y,146,triangle,1,0,,,,,,,,,,,,,,,,switch,letter,lettSwt,f,noRew,,,,,,0.4843,0,23,0,23,0,1,,,,,,,,,,,,,,,,,
298252,2022-11-22_16h13.42.282,vts_reward_expectancy_bt,2022.2.4,Win32,60.0240096,Chrome,1440,960,,,,,0,522,,,,,,,,,,,,,,,,,Y,132,circle,1,0,,,,,,,,,,,,,,,,repeat,letter,lettRpt,f,noRew,,,,,,0.7516,0,24,0,24,0,1,,,,,,,,,,,,,,,,,
298252,2022-11-22_16h13.42.282,vts_reward_expectancy_bt,2022.2.4,Win32,60.0240096,Chrome,1440,960,,,,,0,522,,,,,,,,,,,,,,,,,S,160,star,1,0,,,,,,,,,,,,,,,,switch,number,numSwt,k,noRew,,,,,,0.8847,0,25,0,25,0,1,,,,,,,,,,,,,,,,,
298252,2022-11-22_16h13.42.282,vts_reward_expectancy_bt,2022.2.4,Win32,60.0240096,Chrome,1440,960,,,,,0,522,,,,,,,,,,,,,,,,,F,167,triangle,1,0,,,,,,,,,,,,,,,,repeat,number,numRpt,k,noRew,,,,,,0.8078,0,26,0,26,0,1,,,,,,,,,,,,,,,,,
298252,2022-11-22_16h13.42.282,vts_reward_expectancy_bt,2022.2.4,Win32,60.0240096,Chrome,1440,960,,,,,0,522,,,,,,,,,,,,,,,,,W,125,star,1,0,,,,,,,,,,,,,,,,switch,letter,lettSwt,f,noRew,,,,,,0.5176,0,27,0,27,0,1,,,,,,,,,,,,,,,,,
298252,2022-11-22_16h13.42.282,vts_reward_expectancy_bt,2022.2.4,Win32,60.0240096,Chrome,1440,960,,,,,0,522,,,,,,,,,,,,,,,,,D,146,triangle,1,0,,,,,,,,,,,,,,,,switch,number,numSwt,j,noRew,,,,,,0.9212,0,28,0,28,0,1,,,,,,,,,,,,,,,,,
298252,2022-11-22_16h13.42.282,vts_reward_expectancy_bt,2022.2.4,Win32,60.0240096,Chrome,1440,960,,,,,0,522,,,,,,,,,,,,,,,,,B,125,circle,1,0,,,,,,,,,,,,,,,,switch,letter,lettSwt,d,noRew,,,,,,0.484,0,29,0,29,0,1,,,,,,,,,,,,,,,,,
298252,2022-11-22_16h13.42.282,vts_reward_expectancy_bt,2022.2.4,Win32,60.0240096,Chrome,1440,960,,,,,0,522,,,,,,,,,,,,,,,,,Y,181,circle,1,0,,,,,,,,,,,,,,,,switch,number,numSwt,k,noRew,,,,,,0.4842,0,30,0,30,0,1,,,,,,,,,,,,,,,,,
298252,2022-11-22_16h13.42.282,vts_reward_expectancy_bt,2022.2.4,Win32,60.0240096,Chrome,1440,960,,,,,0,522,,,,,,,,,,,,,,,,,F,160,star,1,0,,,,,,,,,,,,,,,,switch,letter,lettSwt,d,noRew,,,,,,0.7689,0,31,0,31,0,1,,,,,,,,,,,,,,,,,
298252,2022-11-22_16h13.42.282,vts_reward_expectancy_bt,2022.2.4,Win32,60.0240096,Chrome,1440,960,,,,,0,522,,,,,,,,,,,,,,,,,D,132,hexagon,1,0,,,,,,,,,,,,,,,,switch,number,numSwt,j,noRew,,,,,,1.677,0,32,0,32,0,1,,,,,,,,,,,,,,,,,
298252,2022-11-22_16h13.42.282,vts_reward_expectancy_bt,2022.2.4,Win32,60.0240096,Chrome,1440,960,,,,,0,522,,,,,,,,,,,,,,,,,Y,125,star,1,0,,,,,,,,,,,,,,,,switch,letter,lettSwt,f,noRew,,,,,,0.4458,0,33,0,33,0,1,,,,,,,,,,,,,,,,,
298252,2022-11-22_16h13.42.282,vts_reward_expectancy_bt,2022.2.4,Win32,60.0240096,Chrome,1440,960,,,,,0,522,,,,,,,,,,,,,,,,,F,174,star,1,0,,,,,,,,,,,,,,,,switch,number,numSwt,k,noRew,,,,,,0.722,0,34,0,34,0,1,,,,,,,,,,,,,,,,,
298252,2022-11-22_16h13.42.282,vts_reward_expectancy_bt,2022.2.4,Win32,60.0240096,Chrome,1440,960,,,,,0,522,,,,,,,,,,,,,,,,,H,167,hexagon,1,0,,,,,,,,,,,,,,,,switch,letter,lettSwt,d,noRew,,,,,,0.6172,0,35,0,35,0,1,,,,,,,,,,,,,,,,,
298252,2022-11-22_16h13.42.282,vts_reward_expectancy_bt,2022.2.4,Win32,60.0240096,Chrome,1440,960,,,,,0,522,,,,,,,,,,,,,,,,,F,167,star,1,0,,,,,,,,,,,,,,,,switch,number,numSwt,k,noRew,,,,,,1.0654,0,36,0,36,0,1,,,,,,,,,,,,,,,,,
298252,2022-11-22_16h13.42.282,vts_reward_expectancy_bt,2022.2.4,Win32,60.0240096,Chrome,1440,960,,,,,0,522,,,,,,,,,,,,,,,,,D,181,hexagon,1,0,,,,,,,,,,,,,,,,switch,letter,lettSwt,d,noRew,,,,,,0.501,0,37,0,37,0,1,,,,,,,,,,,,,,,,,
298252,2022-11-22_16h13.42.282,vts_reward_expectancy_bt,2022.2.4,Win32,60.0240096,Chrome,1440,960,,,,,0,522,,,,,,,,,,,,,,,,,H,146,circle,1,0,,,,,,,,,,,,,,,,switch,number,numSwt,j,noRew,,,,,,0.538,0,38,0,38,0,1,,,,,,,,,,,,,,,,,
298252,2022-11-22_16h13.42.282,vts_reward_expectancy_bt,2022.2.4,Win32,60.0240096,Chrome,1440,960,,,,,0,522,,,,,,,,,,,,,,,,,W,174,hexagon,1,0,,,,,,,,,,,,,,,,switch,letter,lettSwt,f,noRew,,,,,,0.4741,0,39,0,39,0,1,,,,,,,,,,,,,,,,,
298252,2022-11-22_16h13.42.282,vts_reward_expectancy_bt,2022.2.4,Win32,60.0240096,Chrome,1440,960,,,,,0,522,,,,,,,,,,,,,,,,,Y,181,hexagon,1,0,,,,,,,,,,,,,,,,switch,number,numSwt,k,noRew,,,,,,0.4518,0,40,0,40,0,1,,,,,,,,,,,,,,,,,
298252,2022-11-22_16h13.42.282,vts_reward_expectancy_bt,2022.2.4,Win32,60.0240096,Chrome,1440,960,,,,,0,522,,,,,,,,,,,,,,,,,B,132,star,1,0,,,,,,,,,,,,,,,,switch,letter,lettSwt,d,noRew,,,,,,0.4855,0,41,0,41,0,1,,,,,,,,,,,,,,,,,
298252,2022-11-22_16h13.42.282,vts_reward_expectancy_bt,2022.2.4,Win32,60.0240096,Chrome,1440,960,,,,,0,522,,,,,,,,,,,,,,,,,S,139,star,1,0,,,,,,,,,,,,,,,,switch,number,numSwt,j,noRew,,,,,,0.5326,0,42,0,42,0,1,,,,,,,,,,,,,,,,,
298252,2022-11-22_16h13.42.282,vts_reward_expectancy_bt,2022.2.4,Win32,60.0240096,Chrome,1440,960,,,,,0,522,,,,,,,,,,,,,,,,,W,146,hexagon,1,0,,,,,,,,,,,,,,,,switch,letter,lettSwt,f,noRew,,,,,,0.5532,0,43,0,43,0,1,,,,,,,,,,,,,,,,,
298252,2022-11-22_16h13.42.282,vts_reward_expectancy_bt,2022.2.4,Win32,60.0240096,Chrome,1440,960,,,,,0,522,,,,,,,,,,,,,,,,,W,132,hexagon,1,0,,,,,,,,,,,,,,,,switch,number,numSwt,j,noRew,,,,,,0.5024,0,44,0,44,0,1,,,,,,,,,,,,,,,,,
298252,2022-11-22_16h13.42.282,vts_reward_expectancy_bt,2022.2.4,Win32,60.0240096,Chrome,1440,960,,,,,0,522,,,,,,,,,,,,,,,,,S,181,triangle,1,0,,,,,,,,,,,,,,,,switch,letter,lettSwt,f,noRew,,,,,,0.5843,0,45,0,45,0,1,,,,,,,,,,,,,,,,,
298252,2022-11-22_16h13.42.282,vts_reward_expectancy_bt,2022.2.4,Win32,60.0240096,Chrome,1440,960,,,,,0,522,,,,,,,,,,,,,,,,,F,160,star,1,0,,,,,,,,,,,,,,,,switch,number,numSwt,k,noRew,,,,,,0.5917,0,46,0,46,0,1,,,,,,,,,,,,,,,,,
298252,2022-11-22_16h13.42.282,vts_reward_expectancy_bt,2022.2.4,Win32,60.0240096,Chrome,1440,960,,,,,0,522,,,,,,,,,,,,,,,,,H,139,circle,1,0,,,,,,,,,,,,,,,,switch,letter,lettSwt,d,noRew,,,,,,0.5536,0,47,0,47,0,1,,,,,,,,,,,,,,,,,
298252,2022-11-22_16h13.42.282,vts_reward_expectancy_bt,2022.2.4,Win32,60.0240096,Chrome,1440,960,,,,,0,522,,,,,,,,,,,,,,,,,S,181,star,1,0,,,,,,,,,,,,,,,,switch,number,numSwt,k,noRew,,,,,,0.5507,0,48,0,48,0,1,,,,,,,,,,,,,,,,,
298252,2022-11-22_16h13.42.282,vts_reward_expectancy_bt,2022.2.4,Win32,60.0240096,Chrome,1440,960,,,,,0,522,,,,,,,,,,,,,,,,,D,174,triangle,1,0,,,,,,,,,,,,,,,,switch,letter,lettSwt,d,noRew,,,,,,0.601,0,49,0,49,0,1,,,,,,,,,,,,,,,,,
298252,2022-11-22_16h13.42.282,vts_reward_expectancy_bt,2022.2.4,Win32,60.0240096,Chrome,1440,960,,,,,0,522,,,,,,,,,,,,,,,,,U,146,circle,1,0,,,,,,,,,,,,,,,,switch,number,numSwt,j,noRew,,,,,,0.5826,0,50,0,50,0,1,,,,,,,,,,,,,,,,,
298252,2022-11-22_16h13.42.282,vts_reward_expectancy_bt,2022.2.4,Win32,60.0240096,Chrome,1440,960,,,,,0,522,,,,,,,,,,,,,,,,,B,132,star,1,0,,,,,,,,,,,,,,,,switch,letter,lettSwt,d,noRew,,,,,,0.5176,0,51,0,51,0,1,,,,,,,,,,,,,,,,,
298252,2022-11-22_16h13.42.282,vts_reward_expectancy_bt,2022.2.4,Win32,60.0240096,Chrome,1440,960,,,,,0,522,,,,,,,,,,,,,,,,,D,160,star,1,0,,,,,,,,,,,,,,,,switch,number,numSwt,k,noRew,,,,,,0.8372,0,52,0,52,0,1,,,,,,,,,,,,,,,,,
298252,2022-11-22_16h13.42.282,vts_reward_expectancy_bt,2022.2.4,Win32,60.0240096,Chrome,1440,960,,,,,0,522,,,,,,,,,,,,,,,,,F,167,hexagon,1,0,,,,,,,,,,,,,,,,switch,letter,lettSwt,d,noRew,,,,,,0.6325,0,53,0,53,0,1,,,,,,,,,,,,,,,,,
298252,2022-11-22_16h13.42.282,vts_reward_expectancy_bt,2022.2.4,Win32,60.0240096,Chrome,1440,960,,,,,0,522,,,,,,,,,,,,,,,,,H,125,star,1,0,,,,,,,,,,,,,,,,switch,number,numSwt,j,noRew,,,,,,0.5678,0,54,0,54,0,1,,,,,,,,,,,,,,,,,
298252,2022-11-22_16h13.42.282,vts_reward_expectancy_bt,2022.2.4,Win32,60.0240096,Chrome,1440,960,,,,,0,522,,,,,,,,,,,,,,,,,Y,146,triangle,1,0,,,,,,,,,,,,,,,,switch,letter,lettSwt,f,noRew,,,,,,0.7054,0,55,0,55,0,1,,,,,,,,,,,,,,,,,
298252,2022-11-22_16h13.42.282,vts_reward_expectancy_bt,2022.2.4,Win32,60.0240096,Chrome,1440,960,,,,,0,522,,,,,,,,,,,,,,,,,W,181,circle,1,0,,,,,,,,,,,,,,,,switch,number,numSwt,k,noRew,,,,,,0.4665,0,56,0,56,0,1,,,,,,,,,,,,,,,,,
298252,2022-11-22_16h13.42.282,vts_reward_expectancy_bt,2022.2.4,Win32,60.0240096,Chrome,1440,960,,,,,0,522,,,,,,,,,,,,,,,,,H,167,star,1,0,,,,,,,,,,,,,,,,switch,letter,lettSwt,d,noRew,,,,,,0.4856,0,57,0,57,0,1,,,,,,,,,,,,,,,,,
298252,2022-11-22_16h13.42.282,vts_reward_expectancy_bt,2022.2.4,Win32,60.0240096,Chrome,1440,960,,,,,0,522,,,,,,,,,,,,,,,,,Y,125,hexagon,1,0,,,,,,,,,,,,,,,,switch,number,numSwt,j,noRew,,,,,,0.5509,0,58,0,58,0,1,,,,,,,,,,,,,,,,,
298252,2022-11-22_16h13.42.282,vts_reward_expectancy_bt,2022.2.4,Win32,60.0240096,Chrome,1440,960,,,,,0,522,,,,,,,,,,,,,,,,,U,174,star,1,0,,,,,,,,,,,,,,,,switch,letter,lettSwt,f,noRew,,,,,,0.7873,0,59,0,59,0,1,,,,,,,,,,,,,,,,,
298252,2022-11-22_16h13.42.282,vts_reward_expectancy_bt,2022.2.4,Win32,60.0240096,Chrome,1440,960,,,,,0,522,,,,,,,,,,,,,,,,,S,146,circle,1,0,,,,,,,,,,,,,,,,switch,number,numSwt,j,noRew,,,,,,0.6359,0,60,0,60,0,1,,,,,,,,,,,,,,,,,
298252,2022-11-22_16h13.42.282,vts_reward_expectancy_bt,2022.2.4,Win32,60.0240096,Chrome,1440,960,,,,,0,522,,,,,,,,,,,,,,,,,U,125,star,1,0,,,,,,,,,,,,,,,,switch,letter,lettSwt,f,noRew,,,,,,0.5834,0,61,0,61,0,1,,,,,,,,,,,,,,,,,
298252,2022-11-22_16h13.42.282,vts_reward_expectancy_bt,2022.2.4,Win32,60.0240096,Chrome,1440,960,,,,,0,522,,,,,,,,,,,,,,,,,D,174,circle,1,0,,,,,,,,,,,,,,,,switch,number,numSwt,k,noRew,,,,,,0.5908,0,62,0,62,0,1,,,,,,,,,,,,,,,,,
298252,2022-11-22_16h13.42.282,vts_reward_expectancy_bt,2022.2.4,Win32,60.0240096,Chrome,1440,960,,,,,0,522,,,,,,,,,,,,,,,,,W,139,triangle,1,0,,,,,,,,,,,,,,,,switch,letter,lettSwt,f,noRew,,,,,,0.4376,0,63,0,63,0,1,,,,,,,,,,,,,,,,,
298252,2022-11-22_16h13.42.282,vts_reward_expectancy_bt,2022.2.4,Win32,60.0240096,Chrome,1440,960,,,,,,,,,,,,,,,,,,,,,,,,,,,,,,,,,,,,,,,,,,,,,,,,,,,,,,,,,,,,,,,,,,,,,,,,,,,,
298252,2022-11-22_16h13.42.282,vts_reward_expectancy_bt,2022.2.4,Win32,60.0240096,Chrome,1440,960,,,,,0,522,,,,,,,,,,,,,,,,,Y,181,triangle,1,0,,,,,,,,,,,,,,,,repeat,letter,lettRpt,f,Hi,,,,,,1.1464,0,,,,,,space,6.5029,low,0,0,0,0,1,,,,,,,,,
298252,2022-11-22_16h13.42.282,vts_reward_expectancy_bt,2022.2.4,Win32,60.0240096,Chrome,1440,960,,,,,0,522,,,,,,,,,,,,,,,,,S,167,star,0,0,,,,,,,,,,,,,,,,repeat,letter,NA,d,Hi,,,,,,0.3831,0,,,,,,,,low,1,0,1,0,1,,,,,,,,,
298252,2022-11-22_16h13.42.282,vts_reward_expectancy_bt,2022.2.4,Win32,60.0240096,Chrome,1440,960,,,,,10,532,,,,,,,,,,,,,,,,,D,174,hexagon,1,1,,,,,,,,,,,,,,,,repeat,letter,lettRpt,d,Lo,,,,,,0.3367,0,,,,,,,,low,2,0,2,0,1,,,,,,,,,
298252,2022-11-22_16h13.42.282,vts_reward_expectancy_bt,2022.2.4,Win32,60.0240096,Chrome,1440,960,,,,,0,532,,,,,,,,,,,,,,,,,U,132,circle,0,0,,,,,,,,,,,,,,,,switch,number,NA,k,Lo,,,,,,0.4327,0,,,,,,,,low,3,0,3,0,1,,,,,,,,,
298252,2022-11-22_16h13.42.282,vts_reward_expectancy_bt,2022.2.4,Win32,60.0240096,Chrome,1440,960,,,,,10,542,,,,,,,,,,,,,,,,,B,146,triangle,1,1,,,,,,,,,,,,,,,,repeat,number,numRpt,j,Hi,,,,,,0.4867,0,,,,,,,,low,4,0,4,0,1,,,,,,,,,
298252,2022-11-22_16h13.42.282,vts_reward_expectancy_bt,2022.2.4,Win32,60.0240096,Chrome,1440,960,,,,,10,552,,,,,,,,,,,,,,,,,F,139,star,1,0,,,,,,,,,,,,,,,,repeat,number,numRpt,j,Lo,,,,,,0.4171,0,,,,,,,,low,5,0,5,0,1,,,,,,,,,
298252,2022-11-22_16h13.42.282,vts_reward_expectancy_bt,2022.2.4,Win32,60.0240096,Chrome,1440,960,,,,,1,553,,,,,,,,,,,,,,,,,W,125,hexagon,1,0,,,,,,,,,,,,,,,,switch,letter,lettSwt,f,Lo,,,,,,0.4522,0,,,,,,,,low,6,0,6,0,1,,,,,,,,,
298252,2022-11-22_16h13.42.282,vts_reward_expectancy_bt,2022.2.4,Win32,60.0240096,Chrome,1440,960,,,,,1,554,,,,,,,,,,,,,,,,,H,160,circle,1,0,,,,,,,,,,,,,,,,repeat,letter,lettRpt,d,Hi,,,,,,0.5496,0,,,,,,,,low,7,0,7,0,1,,,,,,,,,
298252,2022-11-22_16h13.42.282,vts_reward_expectancy_bt,2022.2.4,Win32,60.0240096,Chrome,1440,960,,,,,0,554,,,,,,,,,,,,,,,,,Y,181,triangle,1,0,,,,,,,,,,,,,,,,switch,number,numSwt,k,Hi,,,,,,0.5843,0,,,,,,,,low,8,0,8,0,1,,,,,,,,,
298252,2022-11-22_16h13.42.282,vts_reward_expectancy_bt,2022.2.4,Win32,60.0240096,Chrome,1440,960,,,,,0,554,,,,,,,,,,,,,,,,,S,167,star,0,0,,,,,,,,,,,,,,,,switch,letter,NA,d,Hi,,,,,,0.3673,0,,,,,,,,low,9,0,9,0,1,,,,,,,,,
298252,2022-11-22_16h13.42.282,vts_reward_expectancy_bt,2022.2.4,Win32,60.0240096,Chrome,1440,960,,,,,1,555,,,,,,,,,,,,,,,,,D,174,hexagon,1,1,,,,,,,,,,,,,,,,repeat,letter,lettRpt,d,Lo,,,,,,0.5675,0,,,,,,,,low,10,0,10,0,1,,,,,,,,,
298252,2022-11-22_16h13.42.282,vts_reward_expectancy_bt,2022.2.4,Win32,60.0240096,Chrome,1440,960,,,,,10,565,,,,,,,,,,,,,,,,,U,132,circle,1,0,,,,,,,,,,,,,,,,switch,number,numSwt,j,Hi,,,,,,0.501,0,,,,,,,,low,11,0,11,0,1,,,,,,,,,
298252,2022-11-22_16h13.42.282,vts_reward_expectancy_bt,2022.2.4,Win32,60.0240096,Chrome,1440,960,,,,,10,575,,,,,,,,,,,,,,,,,B,146,triangle,1,0,,,,,,,,,,,,,,,,repeat,number,numRpt,j,Hi,,,,,,0.6202,0,,,,,,,,low,12,0,12,0,1,,,,,,,,,
298252,2022-11-22_16h13.42.282,vts_reward_expectancy_bt,2022.2.4,Win32,60.0240096,Chrome,1440,960,,,,,0,575,,,,,,,,,,,,,,,,,F,139,circle,0,0,,,,,,,,,,,,,,,,repeat,number,NA,k,Hi,,,,,,0.4009,0,,,,,,,,low,13,0,13,0,1,,,,,,,,,
298252,2022-11-22_16h13.42.282,vts_reward_expectancy_bt,2022.2.4,Win32,60.0240096,Chrome,1440,960,,,,,10,585,,,,,,,,,,,,,,,,,W,125,star,1,1,,,,,,,,,,,,,,,,repeat,number,numRpt,j,Lo,,,,,,0.4535,0,,,,,,,,low,14,0,14,0,1,,,,,,,,,
298252,2022-11-22_16h13.42.282,vts_reward_expectancy_bt,2022.2.4,Win32,60.0240096,Chrome,1440,960,,,,,1,586,,,,,,,,,,,,,,,,,H,160,hexagon,1,0,,,,,,,,,,,,,,,,repeat,number,numRpt,k,Lo,,,,,,1.0445,0,,,,,,,,low,15,0,15,0,1,,,,,,,,,
298252,2022-11-22_16h13.42.282,vts_reward_expectancy_bt,2022.2.4,Win32,60.0240096,Chrome,1440,960,,,,,0,586,,,,,,,,,,,,,,,,,U,125,triangle,1,0,,,,,,,,,,,,,,,,switch,letter,lettSwt,f,Hi,,,,,,0.9,0,,,,,,,,low,16,0,16,0,1,,,,,,,,,
298252,2022-11-22_16h13.42.282,vts_reward_expectancy_bt,2022.2.4,Win32,60.0240096,Chrome,1440,960,,,,,1,587,,,,,,,,,,,,,,,,,W,139,hexagon,1,0,,,,,,,,,,,,,,,,switch,number,numSwt,j,Lo,,,,,,0.8483,0,,,,,,,,low,17,0,17,0,1,,,,,,,,,
298252,2022-11-22_16h13.42.282,vts_reward_expectancy_bt,2022.2.4,Win32,60.0240096,Chrome,1440,960,,,,,10,597,,,,,,,,,,,,,,,,,B,167,circle,1,0,,,,,,,,,,,,,,,,repeat,number,numRpt,k,Hi,,,,,,0.6005,0,,,,,,,,low,18,0,18,0,1,,,,,,,,,
298252,2022-11-22_16h13.42.282,vts_reward_expectancy_bt,2022.2.4,Win32,60.0240096,Chrome,1440,960,,,,,10,607,,,,,,,,,,,,,,,,,S,174,star,1,0,,,,,,,,,,,,,,,,switch,letter,lettSwt,f,Lo,,,,,,0.7537,0,,,,,,,,low,19,0,19,0,1,,,,,,,,,
298252,2022-11-22_16h13.42.282,vts_reward_expectancy_bt,2022.2.4,Win32,60.0240096,Chrome,1440,960,,,,,1,608,,,,,,,,,,,,,,,,,D,132,star,1,0,,,,,,,,,,,,,,,,repeat,letter,lettRpt,d,Lo,,,,,,0.538,0,,,,,,,,low,20,0,20,0,1,,,,,,,,,
298252,2022-11-22_16h13.42.282,vts_reward_expectancy_bt,2022.2.4,Win32,60.0240096,Chrome,1440,960,,,,,1,609,,,,,,,,,,,,,,,,,H,146,hexagon,1,0,,,,,,,,,,,,,,,,switch,number,numSwt,j,Lo,,,,,,0.6191,0,,,,,,,,low,21,0,21,0,1,,,,,,,,,
298252,2022-11-22_16h13.42.282,vts_reward_expectancy_bt,2022.2.4,Win32,60.0240096,Chrome,1440,960,,,,,1,610,,,,,,,,,,,,,,,,,F,160,triangle,1,0,,,,,,,,,,,,,,,,repeat,number,numRpt,k,Hi,,,,,,0.6842,0,,,,,,,,low,22,0,22,0,1,,,,,,,,,
298252,2022-11-22_16h13.42.282,vts_reward_expectancy_bt,2022.2.4,Win32,60.0240096,Chrome,1440,960,,,,,0,610,,,,,,,,,,,,,,,,,Y,181,circle,1,0,,,,,,,,,,,,,,,,switch,letter,lettSwt,f,Hi,,,,,,0.5996,0,,,,,,,,low,23,0,23,0,1,,,,,,,,,
298252,2022-11-22_16h13.42.282,vts_reward_expectancy_bt,2022.2.4,Win32,60.0240096,Chrome,1440,960,,,,,10,620,,,,,,,,,,,,,,,,,Y,181,hexagon,1,0,,,,,,,,,,,,,,,,repeat,letter,lettRpt,f,Lo,,,,,,0.4346,0,,,,,,,,low,24,0,24,0,1,,,,,,,,,
298252,2022-11-22_16h13.42.282,vts_reward_expectancy_bt,2022.2.4,Win32,60.0240096,Chrome,1440,960,,,,,0,620,,,,,,,,,,,,,,,,,B,146,star,0,0,,,,,,,,,,,,,,,,switch,number,NA,k,Lo,,,,,,0.3703,0,,,,,,,,low,25,0,25,0,1,,,,,,,,,
298252,2022-11-22_16h13.42.282,vts_reward_expectancy_bt,2022.2.4,Win32,60.0240096,Chrome,1440,960,,,,,10,630,,,,,,,,,,,,,,,,,H,132,circle,1,1,,,,,,,,,,,,,,,,repeat,number,numRpt,j,Hi,,,,,,0.3842,0,,,,,,,,low,26,0,26,0,1,,,,,,,,,
298252,2022-11-22_16h13.42.282,vts_reward_expectancy_bt,2022.2.4,Win32,60.0240096,Chrome,1440,960,,,,,10,640,,,,,,,,,,,,,,,,,W,139,triangle,1,0,,,,,,,,,,,,,,,,switch,letter,lettSwt,f,Hi,,,,,,0.3513,0,,,,,,,,low,27,0,27,0,1,,,,,,,,,
298252,2022-11-22_16h13.42.282,vts_reward_expectancy_bt,2022.2.4,Win32,60.0240096,Chrome,1440,960,,,,,1,641,,,,,,,,,,,,,,,,,F,160,hexagon,1,0,,,,,,,,,,,,,,,,repeat,letter,lettRpt,d,Lo,,,,,,0.3509,0,,,,,,,,low,28,0,28,0,1,,,,,,,,,
298252,2022-11-22_16h13.42.282,vts_reward_expectancy_bt,2022.2.4,Win32,60.0240096,Chrome,1440,960,,,,,0,641,,,,,,,,,,,,,,,,,D,167,star,0,0,,,,,,,,,,,,,,,,switch,number,NA,j,Lo,,,,,,0.6342,0,,,,,,,,low,29,0,29,0,1,,,,,,,,,
298252,2022-11-22_16h13.42.282,vts_reward_expectancy_bt,2022.2.4,Win32,60.0240096,Chrome,1440,960,,,,,10,651,,,,,,,,,,,,,,,,,S,125,circle,1,1,,,,,,,,,,,,,,,,repeat,number,numRpt,j,Hi,,,,,,0.4357,0,,,,,,,,low,30,0,30,0,1,,,,,,,,,
298252,2022-11-22_16h13.42.282,vts_reward_expectancy_bt,2022.2.4,Win32,60.0240096,Chrome,1440,960,,,,,0,651,,,,,,,,,,,,,,,,,U,174,triangle,1,0,,,,,,,,,,,,,,,,switch,letter,lettSwt,f,Hi,,,,,,0.5532,0,,,,,,,,low,31,0,31,0,1,,,,,,,,,
298252,2022-11-22_16h13.42.282,vts_reward_expectancy_bt,2022.2.4,Win32,60.0240096,Chrome,1440,960,,,,,1,652,,,,,,,,,,,,,,,,,B,125,circle,1,0,,,,,,,,,,,,,,,,switch,number,numSwt,j,Hi,,,,,,0.4521,1,,,,,,space,3.9226,low,0,0,0,0,1,,,,,,,,,
298252,2022-11-22_16h13.42.282,vts_reward_expectancy_bt,2022.2.4,Win32,60.0240096,Chrome,1440,960,,,,,0,652,,,,,,,,,,,,,,,,,D,160,triangle,0,0,,,,,,,,,,,,,,,,switch,letter,NA,f,Hi,,,,,,0.2859,1,,,,,,,,low,1,0,1,0,1,,,,,,,,,
298252,2022-11-22_16h13.42.282,vts_reward_expectancy_bt,2022.2.4,Win32,60.0240096,Chrome,1440,960,,,,,10,662,,,,,,,,,,,,,,,,,F,167,star,1,1,,,,,,,,,,,,,,,,repeat,letter,lettRpt,d,Lo,,,,,,0.3528,1,,,,,,,,low,2,0,2,0,1,,,,,,,,,
298252,2022-11-22_16h13.42.282,vts_reward_expectancy_bt,2022.2.4,Win32,60.0240096,Chrome,1440,960,,,,,0,662,,,,,,,,,,,,,,,,,H,139,hexagon,0,0,,,,,,,,,,,,,,,,repeat,letter,NA,f,Lo,,,,,,0.3825,1,,,,,,,,low,3,0,3,0,1,,,,,,,,,
298252,2022-11-22_16h13.42.282,vts_reward_expectancy_bt,2022.2.4,Win32,60.0240096,Chrome,1440,960,,,,,10,672,,,,,,,,,,,,,,,,,U,174,circle,1,1,,,,,,,,,,,,,,,,repeat,letter,lettRpt,f,Hi,,,,,,0.4048,1,,,,,,,,low,4,0,4,0,1,,,,,,,,,
298252,2022-11-22_16h13.42.282,vts_reward_expectancy_bt,2022.2.4,Win32,60.0240096,Chrome,1440,960,,,,,10,682,,,,,,,,,,,,,,,,,W,181,triangle,1,0,,,,,,,,,,,,,,,,switch,number,numSwt,k,Hi,,,,,,0.4157,1,,,,,,,,low,5,0,5,0,1,,,,,,,,,
298252,2022-11-22_16h13.42.282,vts_reward_expectancy_bt,2022.2.4,Win32,60.0240096,Chrome,1440,960,,,,,0,682,,,,,,,,,,,,,,,,,S,132,star,0,0,,,,,,,,,,,,,,,,switch,letter,NA,d,Hi,,,,,,0.5547,1,,,,,,,,low,6,0,6,0,1,,,,,,,,,
298252,2022-11-22_16h13.42.282,vts_reward_expectancy_bt,2022.2.4,Win32,60.0240096,Chrome,1440,960,,,,,10,692,,,,,,,,,,,,,,,,,Y,146,hexagon,1,1,,,,,,,,,,,,,,,,repeat,letter,lettRpt,f,Lo,,,,,,0.5215,1,,,,,,,,low,7,0,7,0,1,,,,,,,,,
298252,2022-11-22_16h13.42.282,vts_reward_expectancy_bt,2022.2.4,Win32,60.0240096,Chrome,1440,960,,,,,1,693,,,,,,,,,,,,,,,,,B,125,star,1,0,,,,,,,,,,,,,,,,repeat,letter,lettRpt,d,Lo,,,,,,0.6424,1,,,,,,,,low,8,0,8,0,1,,,,,,,,,
298252,2022-11-22_16h13.42.282,vts_reward_expectancy_bt,2022.2.4,Win32,60.0240096,Chrome,1440,960,,,,,10,703,,,,,,,,,,,,,,,,,D,160,circle,1,0,,,,,,,,,,,,,,,,switch,number,numSwt,k,Hi,,,,,,0.3897,1,,,,,,,,low,9,0,9,0,1,,,,,,,,,
298252,2022-11-22_16h13.42.282,vts_reward_expectancy_bt,2022.2.4,Win32,60.0240096,Chrome,1440,960,,,,,1,704,,,,,,,,,,,,,,,,,F,167,hexagon,1,0,,,,,,,,,,,,,,,,switch,letter,lettSwt,d,Lo,,,,,,0.5026,1,,,,,,,,low,10,0,10,0,1,,,,,,,,,
298252,2022-11-22_16h13.42.282,vts_reward_expectancy_bt,2022.2.4,Win32,60.0240096,Chrome,1440,960,,,,,0,704,,,,,,,,,,,,,,,,,H,139,triangle,1,0,,,,,,,,,,,,,,,,repeat,letter,lettRpt,d,Hi,,,,,,0.6762,1,,,,,,,,low,11,0,11,0,1,,,,,,,,,
298252,2022-11-22_16h13.42.282,vts_reward_expectancy_bt,2022.2.4,Win32,60.0240096,Chrome,1440,960,,,,,1,705,,,,,,,,,,,,,,,,,U,174,star,1,0,,,,,,,,,,,,,,,,repeat,letter,lettRpt,f,Lo,,,,,,0.6839,1,,,,,,,,low,12,0,12,0,1,,,,,,,,,
298252,2022-11-22_16h13.42.282,vts_reward_expectancy_bt,2022.2.4,Win32,60.0240096,Chrome,1440,960,,,,,0,705,,,,,,,,,,,,,,,,,W,181,circle,1,0,,,,,,,,,,,,,,,,repeat,letter,lettRpt,f,Hi,,,,,,0.4357,1,,,,,,,,low,13,0,13,0,1,,,,,,,,,
298252,2022-11-22_16h13.42.282,vts_reward_expectancy_bt,2022.2.4,Win32,60.0240096,Chrome,1440,960,,,,,0,705,,,,,,,,,,,,,,,,,S,132,hexagon,0,0,,,,,,,,,,,,,,,,repeat,letter,NA,d,Hi,,,,,,0.3567,1,,,,,,,,low,14,0,14,0,1,,,,,,,,,
298252,2022-11-22_16h13.42.282,vts_reward_expectancy_bt,2022.2.4,Win32,60.0240096,Chrome,1440,960,,,,,0,705,,,,,,,,,,,,,,,,,Y,146,triangle,0,1,,,,,,,,,,,,,,,,repeat,letter,NA,d,Hi,,,,,,0.4367,1,,,,,,,,low,15,0,15,0,1,,,,,,,,,
298252,2022-11-22_16h13.42.282,vts_reward_expectancy_bt,2022.2.4,Win32,60.0240096,Chrome,1440,960,,,,,0,705,,,,,,,,,,,,,,,,,B,132,circle,1,1,,,,,,,,,,,,,,,,repeat,letter,lettRpt,d,Hi,,,,,,0.5322,1,,,,,,,,low,16,0,16,0,1,,,,,,,,,
298252,2022-11-22_16h13.42.282,vts_reward_expectancy_bt,2022.2.4,Win32,60.0240096,Chrome,1440,960,,,,,0,705,,,,,,,,,,,,,,,,,F,146,hexagon,0,0,,,,,,,,,,,,,,,,switch,number,NA,k,Hi,,,,,,0.4306,1,,,,,,,,low,17,0,17,0,1,,,,,,,,,
298252,2022-11-22_16h13.42.282,vts_reward_expectancy_bt,2022.2.4,Win32,60.0240096,Chrome,1440,960,,,,,1,706,,,,,,,,,,,,,,,,,D,167,triangle,1,1,,,,,,,,,,,,,,,,repeat,number,numRpt,k,Hi,,,,,,0.4176,1,,,,,,,,low,18,0,18,0,1,,,,,,,,,
298252,2022-11-22_16h13.42.282,vts_reward_expectancy_bt,2022.2.4,Win32,60.0240096,Chrome,1440,960,,,,,1,707,,,,,,,,,,,,,,,,,S,181,star,1,0,,,,,,,,,,,,,,,,repeat,number,numRpt,k,Lo,,,,,,0.4009,1,,,,,,,,low,19,0,19,0,1,,,,,,,,,
298252,2022-11-22_16h13.42.282,vts_reward_expectancy_bt,2022.2.4,Win32,60.0240096,Chrome,1440,960,,,,,0,707,,,,,,,,,,,,,,,,,W,125,circle,0,0,,,,,,,,,,,,,,,,switch,letter,NA,d,Lo,,,,,,0.4834,1,,,,,,,,low,20,0,20,0,1,,,,,,,,,
298252,2022-11-22_16h13.42.282,vts_reward_expectancy_bt,2022.2.4,Win32,60.0240096,Chrome,1440,960,,,,,0,707,,,,,,,,,,,,,,,,,U,160,triangle,0,1,,,,,,,,,,,,,,,,repeat,letter,NA,d,Lo,,,,,,0.2531,1,,,,,,,,low,21,0,21,0,1,,,,,,,,,
298252,2022-11-22_16h13.42.282,vts_reward_expectancy_bt,2022.2.4,Win32,60.0240096,Chrome,1440,960,,,,,10,717,,,,,,,,,,,,,,,,,H,174,star,1,1,,,,,,,,,,,,,,,,repeat,letter,lettRpt,d,Lo,,,,,,0.4377,1,,,,,,,,low,22,0,22,0,1,,,,,,,,,
298252,2022-11-22_16h13.42.282,vts_reward_expectancy_bt,2022.2.4,Win32,60.0240096,Chrome,1440,960,,,,,0,717,,,,,,,,,,,,,,,,,Y,139,hexagon,0,0,,,,,,,,,,,,,,,,switch,number,NA,k,Lo,,,,,,0.5196,1,,,,,,,,low,23,0,23,0,1,,,,,,,,,
298252,2022-11-22_16h13.42.282,vts_reward_expectancy_bt,2022.2.4,Win32,60.0240096,Chrome,1440,960,,,,,1,718,,,,,,,,,,,,,,,,,U,181,star,1,1,,,,,,,,,,,,,,,,repeat,number,numRpt,k,Lo,,,,,,0.4203,1,,,,,,,,low,24,0,24,0,1,,,,,,,,,
298252,2022-11-22_16h13.42.282,vts_reward_expectancy_bt,2022.2.4,Win32,60.0240096,Chrome,1440,960,,,,,1,719,,,,,,,,,,,,,,,,,H,139,hexagon,1,0,,,,,,,,,,,,,,,,repeat,number,numRpt,j,Lo,,,,,,0.8021,1,,,,,,,,low,25,0,25,0,1,,,,,,,,,
298252,2022-11-22_16h13.42.282,vts_reward_expectancy_bt,2022.2.4,Win32,60.0240096,Chrome,1440,960,,,,,0,719,,,,,,,,,,,,,,,,,W,167,triangle,1,0,,,,,,,,,,,,,,,,repeat,number,numRpt,k,Hi,,,,,,0.5369,1,,,,,,,,low,26,0,26,0,1,,,,,,,,,
298252,2022-11-22_16h13.42.282,vts_reward_expectancy_bt,2022.2.4,Win32,60.0240096,Chrome,1440,960,,,,,0,719,,,,,,,,,,,,,,,,,S,132,circle,1,0,,,,,,,,,,,,,,,,switch,letter,lettSwt,f,Hi,,,,,,0.5508,1,,,,,,,,low,27,0,27,0,1,,,,,,,,,
298252,2022-11-22_16h13.42.282,vts_reward_expectancy_bt,2022.2.4,Win32,60.0240096,Chrome,1440,960,,,,,0,719,,,,,,,,,,,,,,,,,Y,174,triangle,1,0,,,,,,,,,,,,,,,,repeat,letter,lettRpt,f,Hi,,,,,,0.4676,1,,,,,,,,low,28,0,28,0,1,,,,,,,,,
298252,2022-11-22_16h13.42.282,vts_reward_expectancy_bt,2022.2.4,Win32,60.0240096,Chrome,1440,960,,,,,0,719,,,,,,,,,,,,,,,,,F,160,hexagon,0,0,,,,,,,,,,,,,,,,repeat,letter,NA,f,Hi,,,,,,0.3509,1,,,,,,,,low,29,0,29,0,1,,,,,,,,,
298252,2022-11-22_16h13.42.282,vts_reward_expectancy_bt,2022.2.4,Win32,60.0240096,Chrome,1440,960,,,,,0,719,,,,,,,,,,,,,,,,,D,125,circle,0,1,,,,,,,,,,,,,,,,repeat,letter,NA,f,Hi,,,,,,0.3545,1,,,,,,,,low,30,0,30,0,1,,,,,,,,,
298252,2022-11-22_16h13.42.282,vts_reward_expectancy_bt,2022.2.4,Win32,60.0240096,Chrome,1440,960,,,,,10,729,,,,,,,,,,,,,,,,,B,146,star,1,1,,,,,,,,,,,,,,,,repeat,letter,lettRpt,d,Lo,,,,,,0.3505,1,,,,,,,,low,31,0,31,0,1,,,,,,,,,
298252,2022-11-22_16h13.42.282,vts_reward_expectancy_bt,2022.2.4,Win32,60.0240096,Chrome,1440,960,,,,,0,729,,,,,,,,,,,,,,,,,U,139,triangle,1,0,,,,,,,,,,,,,,,,repeat,letter,lettRpt,f,Hi,,,,,,0.477,2,,,,,,space,1.1407,low,0,0,0,0,1,,,,,,,,,
298252,2022-11-22_16h13.42.282,vts_reward_expectancy_bt,2022.2.4,Win32,60.0240096,Chrome,1440,960,,,,,10,739,,,,,,,,,,,,,,,,,F,146,circle,1,0,,,,,,,,,,,,,,,,repeat,letter,lettRpt,d,Hi,,,,,,0.31,2,,,,,,,,low,1,0,1,0,1,,,,,,,,,
298252,2022-11-22_16h13.42.282,vts_reward_expectancy_bt,2022.2.4,Win32,60.0240096,Chrome,1440,960,,,,,1,740,,,,,,,,,,,,,,,,,W,160,star,1,0,,,,,,,,,,,,,,,,switch,number,numSwt,k,Lo,,,,,,0.2712,2,,,,,,,,low,2,0,2,0,1,,,,,,,,,
298252,2022-11-22_16h13.42.282,vts_reward_expectancy_bt,2022.2.4,Win32,60.0240096,Chrome,1440,960,,,,,0,740,,,,,,,,,,,,,,,,,B,174,hexagon,0,0,,,,,,,,,,,,,,,,switch,letter,NA,f,Lo,,,,,,0.2845,2,,,,,,,,low,3,0,3,0,1,,,,,,,,,
298252,2022-11-22_16h13.42.282,vts_reward_expectancy_bt,2022.2.4,Win32,60.0240096,Chrome,1440,960,,,,,0,740,,,,,,,,,,,,,,,,,H,132,triangle,1,1,,,,,,,,,,,,,,,,switch,number,numSwt,j,Hi,,,,,,0.5232,2,,,,,,,,low,4,0,4,0,1,,,,,,,,,
298252,2022-11-22_16h13.42.282,vts_reward_expectancy_bt,2022.2.4,Win32,60.0240096,Chrome,1440,960,,,,,1,741,,,,,,,,,,,,,,,,,S,181,circle,1,0,,,,,,,,,,,,,,,,switch,letter,lettSwt,f,Hi,,,,,,0.3664,2,,,,,,,,low,5,0,5,0,1,,,,,,,,,
298252,2022-11-22_16h13.42.282,vts_reward_expectancy_bt,2022.2.4,Win32,60.0240096,Chrome,1440,960,,,,,0,741,,,,,,,,,,,,,,,,,Y,167,star,0,0,,,,,,,,,,,,,,,,switch,number,NA,j,Hi,,,,,,0.3384,2,,,,,,,,low,6,0,6,0,1,,,,,,,,,
298252,2022-11-22_16h13.42.282,vts_reward_expectancy_bt,2022.2.4,Win32,60.0240096,Chrome,1440,960,,,,,0,741,,,,,,,,,,,,,,,,,D,125,hexagon,0,1,,,,,,,,,,,,,,,,switch,letter,NA,f,Hi,,,,,,0.3661,2,,,,,,,,low,7,0,7,0,1,,,,,,,,,
298252,2022-11-22_16h13.42.282,vts_reward_expectancy_bt,2022.2.4,Win32,60.0240096,Chrome,1440,960,,,,,1,742,,,,,,,,,,,,,,,,,U,139,triangle,1,1,,,,,,,,,,,,,,,,repeat,letter,lettRpt,f,Hi,,,,,,0.2581,2,,,,,,,,low,8,0,8,0,1,,,,,,,,,
298252,2022-11-22_16h13.42.282,vts_reward_expectancy_bt,2022.2.4,Win32,60.0240096,Chrome,1440,960,,,,,0,742,,,,,,,,,,,,,,,,,F,146,circle,1,0,,,,,,,,,,,,,,,,repeat,letter,lettRpt,d,Hi,,,,,,0.6348,2,,,,,,,,low,9,0,9,0,1,,,,,,,,,
298252,2022-11-22_16h13.42.282,vts_reward_expectancy_bt,2022.2.4,Win32,60.0240096,Chrome,1440,960,,,,,1,743,,,,,,,,,,,,,,,,,W,160,star,1,0,,,,,,,,,,,,,,,,repeat,letter,lettRpt,f,Lo,,,,,,0.6173,2,,,,,,,,low,10,0,10,0,1,,,,,,,,,
298252,2022-11-22_16h13.42.282,vts_reward_expectancy_bt,2022.2.4,Win32,60.0240096,Chrome,1440,960,,,,,10,753,,,,,,,,,,,,,,,,,B,174,hexagon,1,0,,,,,,,,,,,,,,,,repeat,letter,lettRpt,d,Lo,,,,,,0.3714,2,,,,,,,,low,11,0,11,0,1,,,,,,,,,
298252,2022-11-22_16h13.42.282,vts_reward_expectancy_bt,2022.2.4,Win32,60.0240096,Chrome,1440,960,,,,,0,753,,,,,,,,,,,,,,,,,H,132,triangle,0,0,,,,,,,,,,,,,,,,repeat,letter,NA,f,Lo,,,,,,0.2512,2,,,,,,,,low,12,0,12,0,1,,,,,,,,,
298252,2022-11-22_16h13.42.282,vts_reward_expectancy_bt,2022.2.4,Win32,60.0240096,Chrome,1440,960,,,,,0,753,,,,,,,,,,,,,,,,,S,181,star,-1,1,,,,,,,,,,,,,,,,switch,no_choice,NA,,Lo,,,,,,,2,,,,,,,,low,13,0,13,0,1,,,,,,,,,
298252,2022-11-22_16h13.42.282,vts_reward_expectancy_bt,2022.2.4,Win32,60.0240096,Chrome,1440,960,,,,,1,754,,,,,,,,,,,,,,,,,Y,167,circle,1,0,,,,,,,,,,,,,,,,switch,number,numSwt,k,Hi,,,,,,0.3184,2,,,,,,,,low,14,0,14,0,1,,,,,,,,,
298252,2022-11-22_16h13.42.282,vts_reward_expectancy_bt,2022.2.4,Win32,60.0240096,Chrome,1440,960,,,,,0,754,,,,,,,,,,,,,,,,,D,125,hexagon,-1,0,,,,,,,,,,,,,,,,switch,no_choice,NA,,Hi,,,,,,,2,,,,,,,,low,15,0,15,0,1,,,,,,,,,
298252,2022-11-22_16h13.42.282,vts_reward_expectancy_bt,2022.2.4,Win32,60.0240096,Chrome,1440,960,,,,,0,754,,,,,,,,,,,,,,,,,F,132,star,-1,0,,,,,,,,,,,,,,,,repeat,no_choice,NA,,Hi,,,,,,,2,,,,,,,,low,16,0,16,0,1,,,,,,,,,
298252,2022-11-22_16h13.42.282,vts_reward_expectancy_bt,2022.2.4,Win32,60.0240096,Chrome,1440,960,,,,,0,754,,,,,,,,,,,,,,,,,W,125,hexagon,-1,0,,,,,,,,,,,,,,,,repeat,no_choice,NA,,Hi,,,,,,,2,,,,,,,,low,17,0,17,0,1,,,,,,,,,
298252,2022-11-22_16h13.42.282,vts_reward_expectancy_bt,2022.2.4,Win32,60.0240096,Chrome,1440,960,,,,,0,754,,,,,,,,,,,,,,,,,D,174,circle,-1,0,,,,,,,,,,,,,,,,repeat,no_choice,NA,,Hi,,,,,,,2,,,,,,,,low,18,0,18,0,1,,,,,,,,,
298252,2022-11-22_16h13.42.282,vts_reward_expectancy_bt,2022.2.4,Win32,60.0240096,Chrome,1440,960,,,,,0,754,,,,,,,,,,,,,,,,,S,160,triangle,-1,0,,,,,,,,,,,,,,,,repeat,no_choice,NA,,Hi,,,,,,,2,,,,,,,,low,19,0,19,0,1,,,,,,,,,
298252,2022-11-22_16h13.42.282,vts_reward_expectancy_bt,2022.2.4,Win32,60.0240096,Chrome,1440,960,,,,,0,754,,,,,,,,,,,,,,,,,Y,181,hexagon,-1,0,,,,,,,,,,,,,,,,repeat,no_choice,NA,,Hi,,,,,,,2,,,,,,,,low,20,0,20,0,1,,,,,,,,,
298252,2022-11-22_16h13.42.282,vts_reward_expectancy_bt,2022.2.4,Win32,60.0240096,Chrome,1440,960,,,,,0,754,,,,,,,,,,,,,,,,,H,139,circle,1,0,,,,,,,,,,,,,,,,switch,letter,lettSwt,d,Hi,,,,,,0.6958,2,,,,,,,,low,21,0,21,0,1,,,,,,,,,
298252,2022-11-22_16h13.42.282,vts_reward_expectancy_bt,2022.2.4,Win32,60.0240096,Chrome,1440,960,,,,,0,754,,,,,,,,,,,,,,,,,B,146,star,0,0,,,,,,,,,,,,,,,,repeat,letter,NA,f,Hi,,,,,,0.3178,2,,,,,,,,low,22,0,22,0,1,,,,,,,,,
298252,2022-11-22_16h13.42.282,vts_reward_expectancy_bt,2022.2.4,Win32,60.0240096,Chrome,1440,960,,,,,10,764,,,,,,,,,,,,,,,,,U,167,triangle,1,1,,,,,,,,,,,,,,,,repeat,letter,lettRpt,f,Hi,,,,,,0.2673,2,,,,,,,,low,23,0,23,0,1,,,,,,,,,
298252,2022-11-22_16h13.42.282,vts_reward_expectancy_bt,2022.2.4,Win32,60.0240096,Chrome,1440,960,,,,,1,765,,,,,,,,,,,,,,,,,F,125,star,1,0,,,,,,,,,,,,,,,,switch,number,numSwt,j,Lo,,,,,,0.2553,2,,,,,,,,low,24,0,24,0,1,,,,,,,,,
298252,2022-11-22_16h13.42.282,vts_reward_expectancy_bt,2022.2.4,Win32,60.0240096,Chrome,1440,960,,,,,0,765,,,,,,,,,,,,,,,,,W,146,triangle,0,0,,,,,,,,,,,,,,,,switch,letter,NA,d,Lo,,,,,,0.3021,2,,,,,,,,low,25,0,25,0,1,,,,,,,,,
298252,2022-11-22_16h13.42.282,vts_reward_expectancy_bt,2022.2.4,Win32,60.0240096,Chrome,1440,960,,,,,0,765,,,,,,,,,,,,,,,,,D,139,hexagon,0,1,,,,,,,,,,,,,,,,repeat,letter,NA,f,Lo,,,,,,0.201,2,,,,,,,,low,26,0,26,0,1,,,,,,,,,
298252,2022-11-22_16h13.42.282,vts_reward_expectancy_bt,2022.2.4,Win32,60.0240096,Chrome,1440,960,,,,,10,775,,,,,,,,,,,,,,,,,Y,167,circle,1,1,,,,,,,,,,,,,,,,repeat,letter,lettRpt,f,Hi,,,,,,0.3237,2,,,,,,,,low,27,0,27,0,1,,,,,,,,,
298252,2022-11-22_16h13.42.282,vts_reward_expectancy_bt,2022.2.4,Win32,60.0240096,Chrome,1440,960,,,,,1,776,,,,,,,,,,,,,,,,,S,160,star,1,0,,,,,,,,,,,,,,,,switch,number,numSwt,k,Lo,,,,,,0.3843,2,,,,,,,,low,28,0,28,0,1,,,,,,,,,
298252,2022-11-22_16h13.42.282,vts_reward_expectancy_bt,2022.2.4,Win32,60.0240096,Chrome,1440,960,,,,,1,777,,,,,,,,,,,,,,,,,U,174,hexagon,1,0,,,,,,,,,,,,,,,,switch,letter,lettSwt,f,Lo,,,,,,0.3172,2,,,,,,,,low,29,0,29,0,1,,,,,,,,,
298252,2022-11-22_16h13.42.282,vts_reward_expectancy_bt,2022.2.4,Win32,60.0240096,Chrome,1440,960,,,,,0,777,,,,,,,,,,,,,,,,,B,132,triangle,1,0,,,,,,,,,,,,,,,,switch,number,numSwt,j,Hi,,,,,,0.4363,2,,,,,,,,low,30,0,30,0,1,,,,,,,,,
298252,2022-11-22_16h13.42.282,vts_reward_expectancy_bt,2022.2.4,Win32,60.0240096,Chrome,1440,960,,,,,0,777,,,,,,,,,,,,,,,,,H,181,circle,1,0,,,,,,,,,,,,,,,,repeat,number,numRpt,k,Hi,,,,,,0.427,2,,,,,,,,low,31,0,31,0,1,,,,,,,,,
298252,2022-11-22_16h13.42.282,vts_reward_expectancy_bt,2022.2.4,Win32,60.0240096,Chrome,1440,960,,,,,0,777,,,,,,,,,,,,,,,,,S,132,circle,0,0,,,,,,,,,,,,,,,,switch,letter,NA,d,Hi,,,,,,0.2905,3,,,,,,space,1.8401,low,0,0,0,0,1,,,,,,,,,
298252,2022-11-22_16h13.42.282,vts_reward_expectancy_bt,2022.2.4,Win32,60.0240096,Chrome,1440,960,,,,,0,777,,,,,,,,,,,,,,,,,H,139,star,0,1,,,,,,,,,,,,,,,,switch,number,NA,k,Hi,,,,,,0.341,3,,,,,,,,low,1,0,1,0,1,,,,,,,,,
298252,2022-11-22_16h13.42.282,vts_reward_expectancy_bt,2022.2.4,Win32,60.0240096,Chrome,1440,960,,,,,0,777,,,,,,,,,,,,,,,,,U,167,triangle,0,1,,,,,,,,,,,,,,,,switch,letter,NA,d,Hi,,,,,,0.2717,3,,,,,,,,low,2,0,2,0,1,,,,,,,,,
298252,2022-11-22_16h13.42.282,vts_reward_expectancy_bt,2022.2.4,Win32,60.0240096,Chrome,1440,960,,,,,0,777,,,,,,,,,,,,,,,,,W,160,hexagon,0,1,,,,,,,,,,,,,,,,repeat,letter,NA,d,Hi,,,,,,0.2009,3,,,,,,,,low,3,0,3,0,1,,,,,,,,,
298252,2022-11-22_16h13.42.282,vts_reward_expectancy_bt,2022.2.4,Win32,60.0240096,Chrome,1440,960,,,,,0,777,,,,,,,,,,,,,,,,,Y,146,circle,1,1,,,,,,,,,,,,,,,,repeat,letter,lettRpt,f,Hi,,,,,,0.3357,3,,,,,,,,low,4,0,4,0,1,,,,,,,,,
298252,2022-11-22_16h13.42.282,vts_reward_expectancy_bt,2022.2.4,Win32,60.0240096,Chrome,1440,960,,,,,10,787,,,,,,,,,,,,,,,,,D,125,star,1,0,,,,,,,,,,,,,,,,repeat,letter,lettRpt,d,Lo,,,,,,0.1183,3,,,,,,,,low,5,0,5,0,1,,,,,,,,,
298252,2022-11-22_16h13.42.282,vts_reward_expectancy_bt,2022.2.4,Win32,60.0240096,Chrome,1440,960,,,,,0,787,,,,,,,,,,,,,,,,,F,181,triangle,0,0,,,,,,,,,,,,,,,,switch,number,NA,j,Lo,,,,,,0.2676,3,,,,,,,,low,6,0,6,0,1,,,,,,,,,
298252,2022-11-22_16h13.42.282,vts_reward_expectancy_bt,2022.2.4,Win32,60.0240096,Chrome,1440,960,,,,,10,797,,,,,,,,,,,,,,,,,B,174,hexagon,1,1,,,,,,,,,,,,,,,,repeat,number,numRpt,k,Lo,,,,,,0.1842,3,,,,,,,,low,7,0,7,0,1,,,,,,,,,
298252,2022-11-22_16h13.42.282,vts_reward_expectancy_bt,2022.2.4,Win32,60.0240096,Chrome,1440,960,,,,,1,798,,,,,,,,,,,,,,,,,S,132,hexagon,1,0,,,,,,,,,,,,,,,,switch,letter,lettSwt,f,Lo,,,,,,0.0743,3,,,,,,,,low,8,0,8,0,1,,,,,,,,,
298252,2022-11-22_16h13.42.282,vts_reward_expectancy_bt,2022.2.4,Win32,60.0240096,Chrome,1440,960,,,,,1,799,,,,,,,,,,,,,,,,,H,139,star,1,0,,,,,,,,,,,,,,,,switch,number,numSwt,j,Lo,,,,,,0.2587,3,,,,,,,,low,9,0,9,0,1,,,,,,,,,
298252,2022-11-22_16h13.42.282,vts_reward_expectancy_bt,2022.2.4,Win32,60.0240096,Chrome,1440,960,,,,,1,800,,,,,,,,,,,,,,,,,U,167,triangle,1,0,,,,,,,,,,,,,,,,repeat,number,numRpt,k,Hi,,,,,,0.2849,3,,,,,,,,low,10,0,10,0,1,,,,,,,,,
298252,2022-11-22_16h13.42.282,vts_reward_expectancy_bt,2022.2.4,Win32,60.0240096,Chrome,1440,960,,,,,10,810,,,,,,,,,,,,,,,,,W,160,circle,1,0,,,,,,,,,,,,,,,,repeat,number,numRpt,k,Hi,,,,,,0.4072,3,,,,,,,,low,11,0,11,0,1,,,,,,,,,
298252,2022-11-22_16h13.42.282,vts_reward_expectancy_bt,2022.2.4,Win32,60.0240096,Chrome,1440,960,,,,,0,810,,,,,,,,,,,,,,,,,Y,146,hexagon,0,0,,,,,,,,,,,,,,,,switch,letter,NA,d,Hi,,,,,,0.1509,3,,,,,,,,low,12,0,12,0,1,,,,,,,,,
298252,2022-11-22_16h13.42.282,vts_reward_expectancy_bt,2022.2.4,Win32,60.0240096,Chrome,1440,960,,,,,0,810,,,,,,,,,,,,,,,,,D,125,circle,0,1,,,,,,,,,,,,,,,,repeat,letter,NA,f,Hi,,,,,,0.3841,3,,,,,,,,low,13,0,13,0,1,,,,,,,,,
298252,2022-11-22_16h13.42.282,vts_reward_expectancy_bt,2022.2.4,Win32,60.0240096,Chrome,1440,960,,,,,0,810,,,,,,,,,,,,,,,,,F,181,triangle,1,1,,,,,,,,,,,,,,,,repeat,letter,lettRpt,d,Hi,,,,,,0.5569,3,,,,,,,,low,14,0,14,0,1,,,,,,,,,
298252,2022-11-22_16h13.42.282,vts_reward_expectancy_bt,2022.2.4,Win32,60.0240096,Chrome,1440,960,,,,,0,810,,,,,,,,,,,,,,,,,B,174,star,0,0,,,,,,,,,,,,,,,,repeat,letter,NA,f,Hi,,,,,,0.3514,3,,,,,,,,low,15,0,15,0,1,,,,,,,,,
298252,2022-11-22_16h13.42.282,vts_reward_expectancy_bt,2022.2.4,Win32,60.0240096,Chrome,1440,960,,,,,0,810,,,,,,,,,,,,,,,,,W,125,star,0,1,,,,,,,,,,,,,,,,repeat,letter,NA,d,Hi,,,,,,0.1673,3,,,,,,,,low,16,0,16,0,1,,,,,,,,,
298252,2022-11-22_16h13.42.282,vts_reward_expectancy_bt,2022.2.4,Win32,60.0240096,Chrome,1440,960,,,,,0,810,,,,,,,,,,,,,,,,,D,160,circle,0,1,,,,,,,,,,,,,,,,repeat,letter,NA,f,Hi,,,,,,0.0508,3,,,,,,,,low,17,0,17,0,1,,,,,,,,,
298252,2022-11-22_16h13.42.282,vts_reward_expectancy_bt,2022.2.4,Win32,60.0240096,Chrome,1440,960,,,,,0,810,,,,,,,,,,,,,,,,,U,174,hexagon,0,1,,,,,,,,,,,,,,,,repeat,letter,NA,d,Hi,,,,,,0.0341,3,,,,,,,,low,18,0,18,0,1,,,,,,,,,
298252,2022-11-22_16h13.42.282,vts_reward_expectancy_bt,2022.2.4,Win32,60.0240096,Chrome,1440,960,,,,,0,810,,,,,,,,,,,,,,,,,B,181,triangle,0,1,,,,,,,,,,,,,,,,repeat,letter,NA,f,Hi,,,,,,0.1342,3,,,,,,,,low,19,0,19,0,1,,,,,,,,,
298252,2022-11-22_16h13.42.282,vts_reward_expectancy_bt,2022.2.4,Win32,60.0240096,Chrome,1440,960,,,,,0,810,,,,,,,,,,,,,,,,,Y,132,circle,0,1,,,,,,,,,,,,,,,,repeat,letter,NA,d,Hi,,,,,,0.1177,3,,,,,,,,low,20,0,20,0,1,,,,,,,,,
298252,2022-11-22_16h13.42.282,vts_reward_expectancy_bt,2022.2.4,Win32,60.0240096,Chrome,1440,960,,,,,10,820,,,,,,,,,,,,,,,,,H,167,triangle,1,1,,,,,,,,,,,,,,,,repeat,letter,lettRpt,d,Hi,,,,,,0.0019,3,,,,,,,,low,21,0,21,0,1,,,,,,,,,
298252,2022-11-22_16h13.42.282,vts_reward_expectancy_bt,2022.2.4,Win32,60.0240096,Chrome,1440,960,,,,,10,830,,,,,,,,,,,,,,,,,F,139,star,1,0,,,,,,,,,,,,,,,,repeat,letter,lettRpt,d,Lo,,,,,,0.0018,3,,,,,,,,low,22,0,22,0,1,,,,,,,,,
298252,2022-11-22_16h13.42.282,vts_reward_expectancy_bt,2022.2.4,Win32,60.0240096,Chrome,1440,960,,,,,0,830,,,,,,,,,,,,,,,,,S,146,hexagon,0,0,,,,,,,,,,,,,,,,repeat,letter,NA,d,Lo,,,,,,0.0127,3,,,,,,,,low,23,0,23,0,1,,,,,,,,,
298252,2022-11-22_16h13.42.282,vts_reward_expectancy_bt,2022.2.4,Win32,60.0240096,Chrome,1440,960,,,,,0,830,,,,,,,,,,,,,,,,,S,181,hexagon,0,1,,,,,,,,,,,,,,,,repeat,letter,NA,d,Lo,,,,,,0.013,3,,,,,,,,low,24,0,24,0,1,,,,,,,,,
298252,2022-11-22_16h13.42.282,vts_reward_expectancy_bt,2022.2.4,Win32,60.0240096,Chrome,1440,960,,,,,0,830,,,,,,,,,,,,,,,,,W,139,star,0,1,,,,,,,,,,,,,,,,switch,number,NA,k,Lo,,,,,,0.0019,3,,,,,,,,low,25,0,25,0,1,,,,,,,,,
298252,2022-11-22_16h13.42.282,vts_reward_expectancy_bt,2022.2.4,Win32,60.0240096,Chrome,1440,960,,,,,10,840,,,,,,,,,,,,,,,,,U,146,circle,1,1,,,,,,,,,,,,,,,,repeat,number,numRpt,j,Hi,,,,,,0.0447,3,,,,,,,,low,26,0,26,0,1,,,,,,,,,
298252,2022-11-22_16h13.42.282,vts_reward_expectancy_bt,2022.2.4,Win32,60.0240096,Chrome,1440,960,,,,,1,841,,,,,,,,,,,,,,,,,B,125,triangle,1,0,,,,,,,,,,,,,,,,repeat,number,numRpt,j,Hi,,,,,,0.0017,3,,,,,,,,low,27,0,27,0,1,,,,,,,,,
298252,2022-11-22_16h13.42.282,vts_reward_expectancy_bt,2022.2.4,Win32,60.0240096,Chrome,1440,960,,,,,0,841,,,,,,,,,,,,,,,,,F,167,circle,0,0,,,,,,,,,,,,,,,,repeat,number,NA,j,Hi,,,,,,0.014,3,,,,,,,,low,28,0,28,0,1,,,,,,,,,
298252,2022-11-22_16h13.42.282,vts_reward_expectancy_bt,2022.2.4,Win32,60.0240096,Chrome,1440,960,,,,,10,851,,,,,,,,,,,,,,,,,D,132,triangle,1,1,,,,,,,,,,,,,,,,switch,letter,lettSwt,d,Hi,,,,,,0.0243,3,,,,,,,,low,29,0,29,0,1,,,,,,,,,
298252,2022-11-22_16h13.42.282,vts_reward_expectancy_bt,2022.2.4,Win32,60.0240096,Chrome,1440,960,,,,,0,851,,,,,,,,,,,,,,,,,H,160,star,0,0,,,,,,,,,,,,,,,,repeat,letter,NA,f,Hi,,,,,,0.0676,3,,,,,,,,low,30,0,30,0,1,,,,,,,,,
298252,2022-11-22_16h13.42.282,vts_reward_expectancy_bt,2022.2.4,Win32,60.0240096,Chrome,1440,960,,,,,10,861,,,,,,,,,,,,,,,,,Y,174,hexagon,1,1,,,,,,,,,,,,,,,,switch,number,numSwt,k,Lo,,,,,,0.002,3,,,,,,,,low,31,0,31,0,1,,,,,,,,,
298252,2022-11-22_16h13.42.282,vts_reward_expectancy_bt,2022.2.4,Win32,60.0240096,Chrome,1440,960,,,,,0,861,,,,,,,,,,,,,,,,,Y,181,circle,0,0,,,,,,,,,,,,,,,,switch,letter,NA,d,Lo,,,,,,0.014,4,,,,,,space,0.2035,low,0,0,0,0,1,,,,,,,,,
298252,2022-11-22_16h13.42.282,vts_reward_expectancy_bt,2022.2.4,Win32,60.0240096,Chrome,1440,960,,,,,1,862,,,,,,,,,,,,,,,,,W,174,triangle,1,1,,,,,,,,,,,,,,,,switch,number,numSwt,k,Hi,,,,,,0.0018,4,,,,,,,,low,1,0,1,0,1,,,,,,,,,
298252,2022-11-22_16h13.42.282,vts_reward_expectancy_bt,2022.2.4,Win32,60.0240096,Chrome,1440,960,,,,,0,862,,,,,,,,,,,,,,,,,S,146,hexagon,0,0,,,,,,,,,,,,,,,,switch,letter,NA,d,Hi,,,,,,0.002,4,,,,,,,,low,2,0,2,0,1,,,,,,,,,
298252,2022-11-22_16h13.42.282,vts_reward_expectancy_bt,2022.2.4,Win32,60.0240096,Chrome,1440,960,,,,,0,862,,,,,,,,,,,,,,,,,F,139,star,0,1,,,,,,,,,,,,,,,,switch,number,NA,k,Hi,,,,,,0.0024,4,,,,,,,,low,3,0,3,0,1,,,,,,,,,
298252,2022-11-22_16h13.42.282,vts_reward_expectancy_bt,2022.2.4,Win32,60.0240096,Chrome,1440,960,,,,,10,872,,,,,,,,,,,,,,,,,D,132,circle,1,1,,,,,,,,,,,,,,,,repeat,number,numRpt,j,Hi,,,,,,0.0539,4,,,,,,,,low,4,0,4,0,1,,,,,,,,,
298252,2022-11-22_16h13.42.282,vts_reward_expectancy_bt,2022.2.4,Win32,60.0240096,Chrome,1440,960,,,,,0,872,,,,,,,,,,,,,,,,,H,125,triangle,0,0,,,,,,,,,,,,,,,,switch,letter,NA,f,Hi,,,,,,0.1754,4,,,,,,,,low,5,0,5,0,1,,,,,,,,,
298252,2022-11-22_16h13.42.282,vts_reward_expectancy_bt,2022.2.4,Win32,60.0240096,Chrome,1440,960,,,,,0,872,,,,,,,,,,,,,,,,,B,160,hexagon,0,1,,,,,,,,,,,,,,,,switch,number,NA,j,Hi,,,,,,0.0018,4,,,,,,,,low,6,0,6,0,1,,,,,,,,,
298252,2022-11-22_16h13.42.282,vts_reward_expectancy_bt,2022.2.4,Win32,60.0240096,Chrome,1440,960,,,,,1,873,,,,,,,,,,,,,,,,,U,167,star,1,1,,,,,,,,,,,,,,,,switch,letter,lettSwt,f,Lo,,,,,,0.0019,4,,,,,,,,low,7,0,7,0,1,,,,,,,,,
298252,2022-11-22_16h13.42.282,vts_reward_expectancy_bt,2022.2.4,Win32,60.0240096,Chrome,1440,960,,,,,0,873,,,,,,,,,,,,,,,,,Y,181,star,0,0,,,,,,,,,,,,,,,,switch,number,NA,j,Lo,,,,,,0.0135,4,,,,,,,,low,8,0,8,0,1,,,,,,,,,
298252,2022-11-22_16h13.42.282,vts_reward_expectancy_bt,2022.2.4,Win32,60.0240096,Chrome,1440,960,,,,,0,873,,,,,,,,,,,,,,,,,W,174,hexagon,0,1,,,,,,,,,,,,,,,,repeat,number,NA,j,Lo,,,,,,0.2648,4,,,,,,,,low,9,0,9,0,1,,,,,,,,,
298252,2022-11-22_16h13.42.282,vts_reward_expectancy_bt,2022.2.4,Win32,60.0240096,Chrome,1440,960,,,,,0,873,,,,,,,,,,,,,,,,,S,146,circle,0,1,,,,,,,,,,,,,,,,repeat,number,NA,k,Lo,,,,,,0.1197,4,,,,,,,,low,10,0,10,0,1,,,,,,,,,
298252,2022-11-22_16h13.42.282,vts_reward_expectancy_bt,2022.2.4,Win32,60.0240096,Chrome,1440,960,,,,,10,883,,,,,,,,,,,,,,,,,F,139,triangle,1,1,,,,,,,,,,,,,,,,switch,letter,lettSwt,d,Hi,,,,,,0.0024,4,,,,,,,,low,11,0,11,0,1,,,,,,,,,
298252,2022-11-22_16h13.42.282,vts_reward_expectancy_bt,2022.2.4,Win32,60.0240096,Chrome,1440,960,,,,,0,883,,,,,,,,,,,,,,,,,D,132,star,0,0,,,,,,,,,,,,,,,,switch,number,NA,k,Hi,,,,,,0.0553,4,,,,,,,,low,12,0,12,0,1,,,,,,,,,
298252,2022-11-22_16h13.42.282,vts_reward_expectancy_bt,2022.2.4,Win32,60.0240096,Chrome,1440,960,,,,,0,883,,,,,,,,,,,,,,,,,H,125,hexagon,0,1,,,,,,,,,,,,,,,,repeat,number,NA,k,Hi,,,,,,0.0127,4,,,,,,,,low,13,0,13,0,1,,,,,,,,,
298252,2022-11-22_16h13.42.282,vts_reward_expectancy_bt,2022.2.4,Win32,60.0240096,Chrome,1440,960,,,,,0,883,,,,,,,,,,,,,,,,,B,160,triangle,1,1,,,,,,,,,,,,,,,,switch,letter,lettSwt,d,Hi,,,,,,0.084,4,,,,,,,,low,14,0,14,0,1,,,,,,,,,
298252,2022-11-22_16h13.42.282,vts_reward_expectancy_bt,2022.2.4,Win32,60.0240096,Chrome,1440,960,,,,,0,883,,,,,,,,,,,,,,,,,U,167,circle,0,0,,,,,,,,,,,,,,,,repeat,letter,NA,d,Hi,,,,,,0.0564,4,,,,,,,,low,15,0,15,0,1,,,,,,,,,
298252,2022-11-22_16h13.42.282,vts_reward_expectancy_bt,2022.2.4,Win32,60.0240096,Chrome,1440,960,,,,,1,884,,,,,,,,,,,,,,,,,S,174,star,1,1,,,,,,,,,,,,,,,,switch,number,numSwt,k,Lo,,,,,,0.0172,4,,,,,,,,low,16,0,16,0,1,,,,,,,,,
298252,2022-11-22_16h13.42.282,vts_reward_expectancy_bt,2022.2.4,Win32,60.0240096,Chrome,1440,960,,,,,0,884,,,,,,,,,,,,,,,,,H,160,hexagon,0,0,,,,,,,,,,,,,,,,repeat,number,NA,j,Lo,,,,,,0.0909,4,,,,,,,,low,17,0,17,0,1,,,,,,,,,
298252,2022-11-22_16h13.42.282,vts_reward_expectancy_bt,2022.2.4,Win32,60.0240096,Chrome,1440,960,,,,,0,884,,,,,,,,,,,,,,,,,Y,181,triangle,0,1,,,,,,,,,,,,,,,,repeat,number,NA,j,Lo,,,,,,0.0018,4,,,,,,,,low,18,0,18,0,1,,,,,,,,,
298252,2022-11-22_16h13.42.282,vts_reward_expectancy_bt,2022.2.4,Win32,60.0240096,Chrome,1440,960,,,,,0,884,,,,,,,,,,,,,,,,,U,132,circle,0,1,,,,,,,,,,,,,,,,switch,letter,NA,d,Lo,,,,,,0.0841,4,,,,,,,,low,19,0,19,0,1,,,,,,,,,
