participant,date,expName,psychopyVersion,OS,frameRate,browser,xResolution,yResolution,key_resp.keys,key_resp.rt,training_resp.keys,training_resp.rt,points_trial,points_cumul,trainBlock,training.thisRepN,training.thisTrialN,training.thisN,training.thisIndex,training.ran,LTriangleOpac,LCircleOpac,LHexagonOpac,LStarOpac,RTriangleOpac,RCircleOpac,RHexagonOpac,RStarOpac,LShape_ID,RShape_ID,curr_topStim,curr_bottStim,curr_shape,acc,E1,target_resp_prac1.keys,pracBlock,task1_prac_trials.thisRepN,task1_prac_trials.thisTrialN,task1_prac_trials.thisN,task1_prac_trials.thisIndex,task1_prac_trials.ran,target_resp_prac1.rt,target_resp_prac2.keys,target_resp_prac2.rt,task2_praac_trials.thisRepN,task2_praac_trials.thisTrialN,task2_praac_trials.thisN,task2_praac_trials.thisIndex,task2_praac_trials.ran,alt,task,condition,target_resp.keys,target_resp.rt,rewCond,vts_practice_trials.thisRepN,vts_practice_trials.thisTrialN,vts_practice_trials.thisN,vts_practice_trials.thisIndex,vts_practice_trials.ran,blockNum,trials_norew.thisRepN,trials_norew.thisTrialN,trials_norew.thisN,trials_norew.thisIndex,trials_norew.ran,key_resp_2.keys,key_resp_2.rt,rewExpectancy,trials_rew.thisRepN,trials_rew.thisTrialN,trials_rew.thisN,trials_rew.thisIndex,trials_rew.ran,Q1,Q2,Q2_text,Q3,Q4,Q5_text,Q5,xRes,yRes
298291,2022-11-29_13h24.50.951,vts_reward_expectancy_bt,2022.2.4,MacIntel,60.0024001,Chrome,1440,900,,,,,,,,,,,,,,,,,,,,,,,,,,,,,,,,,,,,,,,,,,,,,,,,,,,,,,,,,,,,,,,,,,,,,,,,,,,,
298291,2022-11-29_13h24.50.951,vts_reward_expectancy_bt,2022.2.4,MacIntel,60.0024001,Chrome,1440,900,space,1.0693,,,,,,,,,,,,,,,,,,,,,,,,,,,,,,,,,,,,,,,,,,,,,,,,,,,,,,,,,,,,,,,,,,,,,,,,,,
298291,2022-11-29_13h24.50.951,vts_reward_expectancy_bt,2022.2.4,MacIntel,60.0024001,Chrome,1440,900,,,,,,,,,,,,,,,,,,,,,,,,,,,,,,,,,,,,,,,,,,,,,,,,,,,,,,,,,,,,,,,,,,,,,,,,,,,,
298291,2022-11-29_13h24.50.951,vts_reward_expectancy_bt,2022.2.4,MacIntel,60.0024001,Chrome,1440,900,,,l,1.3874,10,10,0,0,0,0,8,1,0,0,1,0,0,0,0,1,hexagon,star,,,,,,,,,,,,,,,,,,,,,,,,,,,,,,,,,,,,,,,,,,,,,,,,,,,,,,
298291,2022-11-29_13h24.50.951,vts_reward_expectancy_bt,2022.2.4,MacIntel,60.0024001,Chrome,1440,900,,,a,1.8433,1,11,0,0,1,1,7,1,0,0,1,0,0,1,0,0,hexagon,circle,,,,,,,,,,,,,,,,,,,,,,,,,,,,,,,,,,,,,,,,,,,,,,,,,,,,,,
298291,2022-11-29_13h24.50.951,vts_reward_expectancy_bt,2022.2.4,MacIntel,60.0024001,Chrome,1440,900,,,a,1.2535,1,12,0,0,2,2,10,1,0,0,0,1,0,1,0,0,star ,circle,,,,,,,,,,,,,,,,,,,,,,,,,,,,,,,,,,,,,,,,,,,,,,,,,,,,,,
298291,2022-11-29_13h24.50.951,vts_reward_expectancy_bt,2022.2.4,MacIntel,60.0024001,Chrome,1440,900,,,a,1.3538,10,22,0,0,3,3,11,1,0,0,0,1,0,0,1,0,star,hexagon,,,,,,,,,,,,,,,,,,,,,,,,,,,,,,,,,,,,,,,,,,,,,,,,,,,,,,
298291,2022-11-29_13h24.50.951,vts_reward_expectancy_bt,2022.2.4,MacIntel,60.0024001,Chrome,1440,900,,,a,1.4538,10,32,0,0,4,4,1,1,1,0,0,0,0,0,1,0,triangle,hexagon,,,,,,,,,,,,,,,,,,,,,,,,,,,,,,,,,,,,,,,,,,,,,,,,,,,,,,
298291,2022-11-29_13h24.50.951,vts_reward_expectancy_bt,2022.2.4,MacIntel,60.0024001,Chrome,1440,900,,,a,1.4548,1,33,0,0,5,5,6,1,0,0,1,0,1,0,0,0,hexagon,triangle,,,,,,,,,,,,,,,,,,,,,,,,,,,,,,,,,,,,,,,,,,,,,,,,,,,,,,
298291,2022-11-29_13h24.50.951,vts_reward_expectancy_bt,2022.2.4,MacIntel,60.0024001,Chrome,1440,900,,,l,1.0663,10,43,0,0,6,6,5,1,0,1,0,0,0,0,0,1,circle,star,,,,,,,,,,,,,,,,,,,,,,,,,,,,,,,,,,,,,,,,,,,,,,,,,,,,,,
298291,2022-11-29_13h24.50.951,vts_reward_expectancy_bt,2022.2.4,MacIntel,60.0024001,Chrome,1440,900,,,l,1.3124,1,44,0,0,7,7,4,1,0,1,0,0,0,0,1,0,circle,hexagon,,,,,,,,,,,,,,,,,,,,,,,,,,,,,,,,,,,,,,,,,,,,,,,,,,,,,,
298291,2022-11-29_13h24.50.951,vts_reward_expectancy_bt,2022.2.4,MacIntel,60.0024001,Chrome,1440,900,,,l,0.4673,10,54,0,0,8,8,2,1,1,0,0,0,0,0,0,1,triangle,star,,,,,,,,,,,,,,,,,,,,,,,,,,,,,,,,,,,,,,,,,,,,,,,,,,,,,,
298291,2022-11-29_13h24.50.951,vts_reward_expectancy_bt,2022.2.4,MacIntel,60.0024001,Chrome,1440,900,,,l,1.2099,10,64,0,0,9,9,9,1,0,0,0,1,1,0,0,0,star,triangle,,,,,,,,,,,,,,,,,,,,,,,,,,,,,,,,,,,,,,,,,,,,,,,,,,,,,,
298291,2022-11-29_13h24.50.951,vts_reward_expectancy_bt,2022.2.4,MacIntel,60.0024001,Chrome,1440,900,,,l,1.8339,10,74,0,0,10,10,3,1,0,1,0,0,1,0,0,0,circle,triangle,,,,,,,,,,,,,,,,,,,,,,,,,,,,,,,,,,,,,,,,,,,,,,,,,,,,,,
298291,2022-11-29_13h24.50.951,vts_reward_expectancy_bt,2022.2.4,MacIntel,60.0024001,Chrome,1440,900,,,l,0.8169,10,84,0,0,11,11,0,1,1,0,0,0,0,1,0,0,triangle,circle,,,,,,,,,,,,,,,,,,,,,,,,,,,,,,,,,,,,,,,,,,,,,,,,,,,,,,
298291,2022-11-29_13h24.50.951,vts_reward_expectancy_bt,2022.2.4,MacIntel,60.0024001,Chrome,1440,900,,,l,1.5063,1,85,0,1,0,12,11,1,0,0,0,1,0,0,1,0,star,hexagon,,,,,,,,,,,,,,,,,,,,,,,,,,,,,,,,,,,,,,,,,,,,,,,,,,,,,,
298291,2022-11-29_13h24.50.951,vts_reward_expectancy_bt,2022.2.4,MacIntel,60.0024001,Chrome,1440,900,,,l,0.6527,10,95,0,1,1,13,6,1,0,0,1,0,1,0,0,0,hexagon,triangle,,,,,,,,,,,,,,,,,,,,,,,,,,,,,,,,,,,,,,,,,,,,,,,,,,,,,,
298291,2022-11-29_13h24.50.951,vts_reward_expectancy_bt,2022.2.4,MacIntel,60.0024001,Chrome,1440,900,,,l,0.4992,10,105,0,1,2,14,3,1,0,1,0,0,1,0,0,0,circle,triangle,,,,,,,,,,,,,,,,,,,,,,,,,,,,,,,,,,,,,,,,,,,,,,,,,,,,,,
298291,2022-11-29_13h24.50.951,vts_reward_expectancy_bt,2022.2.4,MacIntel,60.0024001,Chrome,1440,900,,,l,0.3849,1,106,0,1,3,15,2,1,1,0,0,0,0,0,0,1,triangle,star,,,,,,,,,,,,,,,,,,,,,,,,,,,,,,,,,,,,,,,,,,,,,,,,,,,,,,
298291,2022-11-29_13h24.50.951,vts_reward_expectancy_bt,2022.2.4,MacIntel,60.0024001,Chrome,1440,900,,,l,0.1509,10,116,0,1,4,16,7,1,0,0,1,0,0,1,0,0,hexagon,circle,,,,,,,,,,,,,,,,,,,,,,,,,,,,,,,,,,,,,,,,,,,,,,,,,,,,,,
298291,2022-11-29_13h24.50.951,vts_reward_expectancy_bt,2022.2.4,MacIntel,60.0024001,Chrome,1440,900,,,l,0.6053,1,117,0,1,5,17,0,1,1,0,0,0,0,1,0,0,triangle,circle,,,,,,,,,,,,,,,,,,,,,,,,,,,,,,,,,,,,,,,,,,,,,,,,,,,,,,
298291,2022-11-29_13h24.50.951,vts_reward_expectancy_bt,2022.2.4,MacIntel,60.0024001,Chrome,1440,900,,,l,0.0006,1,118,0,1,6,18,4,1,0,1,0,0,0,0,1,0,circle,hexagon,,,,,,,,,,,,,,,,,,,,,,,,,,,,,,,,,,,,,,,,,,,,,,,,,,,,,,
298291,2022-11-29_13h24.50.951,vts_reward_expectancy_bt,2022.2.4,MacIntel,60.0024001,Chrome,1440,900,,,a,0.3341,1,119,0,1,7,19,5,1,0,1,0,0,0,0,0,1,circle,star,,,,,,,,,,,,,,,,,,,,,,,,,,,,,,,,,,,,,,,,,,,,,,,,,,,,,,
298291,2022-11-29_13h24.50.951,vts_reward_expectancy_bt,2022.2.4,MacIntel,60.0024001,Chrome,1440,900,,,l,0.3296,1,120,0,1,8,20,1,1,1,0,0,0,0,0,1,0,triangle,hexagon,,,,,,,,,,,,,,,,,,,,,,,,,,,,,,,,,,,,,,,,,,,,,,,,,,,,,,
298291,2022-11-29_13h24.50.951,vts_reward_expectancy_bt,2022.2.4,MacIntel,60.0024001,Chrome,1440,900,,,l,0.745,10,130,0,1,9,21,8,1,0,0,1,0,0,0,0,1,hexagon,star,,,,,,,,,,,,,,,,,,,,,,,,,,,,,,,,,,,,,,,,,,,,,,,,,,,,,,
298291,2022-11-29_13h24.50.951,vts_reward_expectancy_bt,2022.2.4,MacIntel,60.0024001,Chrome,1440,900,,,l,0.6533,1,131,0,1,10,22,9,1,0,0,0,1,1,0,0,0,star,triangle,,,,,,,,,,,,,,,,,,,,,,,,,,,,,,,,,,,,,,,,,,,,,,,,,,,,,,
298291,2022-11-29_13h24.50.951,vts_reward_expectancy_bt,2022.2.4,MacIntel,60.0024001,Chrome,1440,900,,,l,0.4652,1,132,0,1,11,23,10,1,0,0,0,1,0,1,0,0,star ,circle,,,,,,,,,,,,,,,,,,,,,,,,,,,,,,,,,,,,,,,,,,,,,,,,,,,,,,
298291,2022-11-29_13h24.50.951,vts_reward_expectancy_bt,2022.2.4,MacIntel,60.0024001,Chrome,1440,900,,,a,0.4571,10,142,0,2,0,24,1,1,1,0,0,0,0,0,1,0,triangle,hexagon,,,,,,,,,,,,,,,,,,,,,,,,,,,,,,,,,,,,,,,,,,,,,,,,,,,,,,
298291,2022-11-29_13h24.50.951,vts_reward_expectancy_bt,2022.2.4,MacIntel,60.0024001,Chrome,1440,900,,,l,0.9664,1,143,0,2,1,25,5,1,0,1,0,0,0,0,0,1,circle,star,,,,,,,,,,,,,,,,,,,,,,,,,,,,,,,,,,,,,,,,,,,,,,,,,,,,,,
298291,2022-11-29_13h24.50.951,vts_reward_expectancy_bt,2022.2.4,MacIntel,60.0024001,Chrome,1440,900,,,a,0.2876,10,153,0,2,2,26,11,1,0,0,0,1,0,0,1,0,star,hexagon,,,,,,,,,,,,,,,,,,,,,,,,,,,,,,,,,,,,,,,,,,,,,,,,,,,,,,
298291,2022-11-29_13h24.50.951,vts_reward_expectancy_bt,2022.2.4,MacIntel,60.0024001,Chrome,1440,900,,,l,0.9847,10,163,0,2,3,27,8,1,0,0,1,0,0,0,0,1,hexagon,star,,,,,,,,,,,,,,,,,,,,,,,,,,,,,,,,,,,,,,,,,,,,,,,,,,,,,,
298291,2022-11-29_13h24.50.951,vts_reward_expectancy_bt,2022.2.4,MacIntel,60.0024001,Chrome,1440,900,,,a,0.2358,10,173,0,2,4,28,10,1,0,0,0,1,0,1,0,0,star ,circle,,,,,,,,,,,,,,,,,,,,,,,,,,,,,,,,,,,,,,,,,,,,,,,,,,,,,,
298291,2022-11-29_13h24.50.951,vts_reward_expectancy_bt,2022.2.4,MacIntel,60.0024001,Chrome,1440,900,,,l,0.3822,10,183,0,2,5,29,6,1,0,0,1,0,1,0,0,0,hexagon,triangle,,,,,,,,,,,,,,,,,,,,,,,,,,,,,,,,,,,,,,,,,,,,,,,,,,,,,,
298291,2022-11-29_13h24.50.951,vts_reward_expectancy_bt,2022.2.4,MacIntel,60.0024001,Chrome,1440,900,,,a,0.3376,1,184,0,2,6,30,7,1,0,0,1,0,0,1,0,0,hexagon,circle,,,,,,,,,,,,,,,,,,,,,,,,,,,,,,,,,,,,,,,,,,,,,,,,,,,,,,
298291,2022-11-29_13h24.50.951,vts_reward_expectancy_bt,2022.2.4,MacIntel,60.0024001,Chrome,1440,900,,,a,0.802,10,194,0,2,7,31,9,1,0,0,0,1,1,0,0,0,star,triangle,,,,,,,,,,,,,,,,,,,,,,,,,,,,,,,,,,,,,,,,,,,,,,,,,,,,,,
298291,2022-11-29_13h24.50.951,vts_reward_expectancy_bt,2022.2.4,MacIntel,60.0024001,Chrome,1440,900,,,l,0.8983,10,204,0,2,8,32,2,1,1,0,0,0,0,0,0,1,triangle,star,,,,,,,,,,,,,,,,,,,,,,,,,,,,,,,,,,,,,,,,,,,,,,,,,,,,,,
298291,2022-11-29_13h24.50.951,vts_reward_expectancy_bt,2022.2.4,MacIntel,60.0024001,Chrome,1440,900,,,a,0.9361,10,214,0,2,9,33,3,1,0,1,0,0,1,0,0,0,circle,triangle,,,,,,,,,,,,,,,,,,,,,,,,,,,,,,,,,,,,,,,,,,,,,,,,,,,,,,
298291,2022-11-29_13h24.50.951,vts_reward_expectancy_bt,2022.2.4,MacIntel,60.0024001,Chrome,1440,900,,,l,1.0349,1,215,0,2,10,34,4,1,0,1,0,0,0,0,1,0,circle,hexagon,,,,,,,,,,,,,,,,,,,,,,,,,,,,,,,,,,,,,,,,,,,,,,,,,,,,,,
298291,2022-11-29_13h24.50.951,vts_reward_expectancy_bt,2022.2.4,MacIntel,60.0024001,Chrome,1440,900,,,a,0.6837,10,225,0,2,11,35,0,1,1,0,0,0,0,1,0,0,triangle,circle,,,,,,,,,,,,,,,,,,,,,,,,,,,,,,,,,,,,,,,,,,,,,,,,,,,,,,
298291,2022-11-29_13h24.50.951,vts_reward_expectancy_bt,2022.2.4,MacIntel,60.0024001,Chrome,1440,900,,,a,0.9468,1,226,1,0,0,0,6,1,0,0,1,0,1,0,0,0,hexagon,triangle,,,,,,,,,,,,,,,,,,,,,,,,,,,,,,,,,,,,,,,,,,,,,,,,,,,,,,
298291,2022-11-29_13h24.50.951,vts_reward_expectancy_bt,2022.2.4,MacIntel,60.0024001,Chrome,1440,900,,,l,0.1676,1,227,1,0,1,1,1,1,1,0,0,0,0,0,1,0,triangle,hexagon,,,,,,,,,,,,,,,,,,,,,,,,,,,,,,,,,,,,,,,,,,,,,,,,,,,,,,
298291,2022-11-29_13h24.50.951,vts_reward_expectancy_bt,2022.2.4,MacIntel,60.0024001,Chrome,1440,900,,,l,1.1321,10,237,1,0,2,2,2,1,1,0,0,0,0,0,0,1,triangle,star,,,,,,,,,,,,,,,,,,,,,,,,,,,,,,,,,,,,,,,,,,,,,,,,,,,,,,
298291,2022-11-29_13h24.50.951,vts_reward_expectancy_bt,2022.2.4,MacIntel,60.0024001,Chrome,1440,900,,,l,1.5387,10,247,1,0,3,3,3,1,0,1,0,0,1,0,0,0,circle,triangle,,,,,,,,,,,,,,,,,,,,,,,,,,,,,,,,,,,,,,,,,,,,,,,,,,,,,,
298291,2022-11-29_13h24.50.951,vts_reward_expectancy_bt,2022.2.4,MacIntel,60.0024001,Chrome,1440,900,,,a,0.6697,10,257,1,0,4,4,0,1,1,0,0,0,0,1,0,0,triangle,circle,,,,,,,,,,,,,,,,,,,,,,,,,,,,,,,,,,,,,,,,,,,,,,,,,,,,,,
298291,2022-11-29_13h24.50.951,vts_reward_expectancy_bt,2022.2.4,MacIntel,60.0024001,Chrome,1440,900,,,l,1.1351,1,258,1,0,5,5,7,1,0,0,1,0,0,1,0,0,hexagon,circle,,,,,,,,,,,,,,,,,,,,,,,,,,,,,,,,,,,,,,,,,,,,,,,,,,,,,,
298291,2022-11-29_13h24.50.951,vts_reward_expectancy_bt,2022.2.4,MacIntel,60.0024001,Chrome,1440,900,,,a,0.1227,10,268,1,0,6,6,11,1,0,0,0,1,0,0,1,0,star,hexagon,,,,,,,,,,,,,,,,,,,,,,,,,,,,,,,,,,,,,,,,,,,,,,,,,,,,,,
298291,2022-11-29_13h24.50.951,vts_reward_expectancy_bt,2022.2.4,MacIntel,60.0024001,Chrome,1440,900,,,l,0.5164,10,278,1,0,7,7,4,1,0,1,0,0,0,0,1,0,circle,hexagon,,,,,,,,,,,,,,,,,,,,,,,,,,,,,,,,,,,,,,,,,,,,,,,,,,,,,,
298291,2022-11-29_13h24.50.951,vts_reward_expectancy_bt,2022.2.4,MacIntel,60.0024001,Chrome,1440,900,,,a,0.3183,10,288,1,0,8,8,9,1,0,0,0,1,1,0,0,0,star,triangle,,,,,,,,,,,,,,,,,,,,,,,,,,,,,,,,,,,,,,,,,,,,,,,,,,,,,,
298291,2022-11-29_13h24.50.951,vts_reward_expectancy_bt,2022.2.4,MacIntel,60.0024001,Chrome,1440,900,,,l,0.0005,1,289,1,0,9,9,10,1,0,0,0,1,0,1,0,0,star ,circle,,,,,,,,,,,,,,,,,,,,,,,,,,,,,,,,,,,,,,,,,,,,,,,,,,,,,,
298291,2022-11-29_13h24.50.951,vts_reward_expectancy_bt,2022.2.4,MacIntel,60.0024001,Chrome,1440,900,,,a,0.2875,1,290,1,0,10,10,5,1,0,1,0,0,0,0,0,1,circle,star,,,,,,,,,,,,,,,,,,,,,,,,,,,,,,,,,,,,,,,,,,,,,,,,,,,,,,
298291,2022-11-29_13h24.50.951,vts_reward_expectancy_bt,2022.2.4,MacIntel,60.0024001,Chrome,1440,900,,,l,1.8839,10,300,1,0,11,11,8,1,0,0,1,0,0,0,0,1,hexagon,star,,,,,,,,,,,,,,,,,,,,,,,,,,,,,,,,,,,,,,,,,,,,,,,,,,,,,,
298291,2022-11-29_13h24.50.951,vts_reward_expectancy_bt,2022.2.4,MacIntel,60.0024001,Chrome,1440,900,,,l,1.2016,1,301,1,1,0,12,7,1,0,0,1,0,0,1,0,0,hexagon,circle,,,,,,,,,,,,,,,,,,,,,,,,,,,,,,,,,,,,,,,,,,,,,,,,,,,,,,
298291,2022-11-29_13h24.50.951,vts_reward_expectancy_bt,2022.2.4,MacIntel,60.0024001,Chrome,1440,900,,,a,2.8893,10,311,1,1,1,13,1,1,1,0,0,0,0,0,1,0,triangle,hexagon,,,,,,,,,,,,,,,,,,,,,,,,,,,,,,,,,,,,,,,,,,,,,,,,,,,,,,
298291,2022-11-29_13h24.50.951,vts_reward_expectancy_bt,2022.2.4,MacIntel,60.0024001,Chrome,1440,900,,,a,0.4857,1,312,1,1,2,14,5,1,0,1,0,0,0,0,0,1,circle,star,,,,,,,,,,,,,,,,,,,,,,,,,,,,,,,,,,,,,,,,,,,,,,,,,,,,,,
298291,2022-11-29_13h24.50.951,vts_reward_expectancy_bt,2022.2.4,MacIntel,60.0024001,Chrome,1440,900,,,l,0.2728,10,322,1,1,3,15,3,1,0,1,0,0,1,0,0,0,circle,triangle,,,,,,,,,,,,,,,,,,,,,,,,,,,,,,,,,,,,,,,,,,,,,,,,,,,,,,
298291,2022-11-29_13h24.50.951,vts_reward_expectancy_bt,2022.2.4,MacIntel,60.0024001,Chrome,1440,900,,,a,0.5367,10,332,1,1,4,16,10,1,0,0,0,1,0,1,0,0,star ,circle,,,,,,,,,,,,,,,,,,,,,,,,,,,,,,,,,,,,,,,,,,,,,,,,,,,,,,
298291,2022-11-29_13h24.50.951,vts_reward_expectancy_bt,2022.2.4,MacIntel,60.0024001,Chrome,1440,900,,,l,0.1192,1,333,1,1,5,17,6,1,0,0,1,0,1,0,0,0,hexagon,triangle,,,,,,,,,,,,,,,,,,,,,,,,,,,,,,,,,,,,,,,,,,,,,,,,,,,,,,
298291,2022-11-29_13h24.50.951,vts_reward_expectancy_bt,2022.2.4,MacIntel,60.0024001,Chrome,1440,900,,,a,1.1373,1,334,1,1,6,18,2,1,1,0,0,0,0,0,0,1,triangle,star,,,,,,,,,,,,,,,,,,,,,,,,,,,,,,,,,,,,,,,,,,,,,,,,,,,,,,
298291,2022-11-29_13h24.50.951,vts_reward_expectancy_bt,2022.2.4,MacIntel,60.0024001,Chrome,1440,900,,,l,0.1193,10,344,1,1,7,19,0,1,1,0,0,0,0,1,0,0,triangle,circle,,,,,,,,,,,,,,,,,,,,,,,,,,,,,,,,,,,,,,,,,,,,,,,,,,,,,,
298291,2022-11-29_13h24.50.951,vts_reward_expectancy_bt,2022.2.4,MacIntel,60.0024001,Chrome,1440,900,,,l,0.1001,1,345,1,1,8,20,9,1,0,0,0,1,1,0,0,0,star,triangle,,,,,,,,,,,,,,,,,,,,,,,,,,,,,,,,,,,,,,,,,,,,,,,,,,,,,,
298291,2022-11-29_13h24.50.951,vts_reward_expectancy_bt,2022.2.4,MacIntel,60.0024001,Chrome,1440,900,,,a,0.4848,10,355,1,1,9,21,11,1,0,0,0,1,0,0,1,0,star,hexagon,,,,,,,,,,,,,,,,,,,,,,,,,,,,,,,,,,,,,,,,,,,,,,,,,,,,,,
298291,2022-11-29_13h24.50.951,vts_reward_expectancy_bt,2022.2.4,MacIntel,60.0024001,Chrome,1440,900,,,l,0.2333,10,365,1,1,10,22,8,1,0,0,1,0,0,0,0,1,hexagon,star,,,,,,,,,,,,,,,,,,,,,,,,,,,,,,,,,,,,,,,,,,,,,,,,,,,,,,
298291,2022-11-29_13h24.50.951,vts_reward_expectancy_bt,2022.2.4,MacIntel,60.0024001,Chrome,1440,900,,,l,0.2509,10,375,1,1,11,23,4,1,0,1,0,0,0,0,1,0,circle,hexagon,,,,,,,,,,,,,,,,,,,,,,,,,,,,,,,,,,,,,,,,,,,,,,,,,,,,,,
298291,2022-11-29_13h24.50.951,vts_reward_expectancy_bt,2022.2.4,MacIntel,60.0024001,Chrome,1440,900,,,l,0.3504,10,385,1,2,0,24,3,1,0,1,0,0,1,0,0,0,circle,triangle,,,,,,,,,,,,,,,,,,,,,,,,,,,,,,,,,,,,,,,,,,,,,,,,,,,,,,
298291,2022-11-29_13h24.50.951,vts_reward_expectancy_bt,2022.2.4,MacIntel,60.0024001,Chrome,1440,900,,,l,0.5419,1,386,1,2,1,25,7,1,0,0,1,0,0,1,0,0,hexagon,circle,,,,,,,,,,,,,,,,,,,,,,,,,,,,,,,,,,,,,,,,,,,,,,,,,,,,,,
298291,2022-11-29_13h24.50.951,vts_reward_expectancy_bt,2022.2.4,MacIntel,60.0024001,Chrome,1440,900,,,l,0.9527,10,396,1,2,2,26,6,1,0,0,1,0,1,0,0,0,hexagon,triangle,,,,,,,,,,,,,,,,,,,,,,,,,,,,,,,,,,,,,,,,,,,,,,,,,,,,,,
298291,2022-11-29_13h24.50.951,vts_reward_expectancy_bt,2022.2.4,MacIntel,60.0024001,Chrome,1440,900,,,l,0.3184,10,406,1,2,3,27,2,1,1,0,0,0,0,0,0,1,triangle,star,,,,,,,,,,,,,,,,,,,,,,,,,,,,,,,,,,,,,,,,,,,,,,,,,,,,,,
298291,2022-11-29_13h24.50.951,vts_reward_expectancy_bt,2022.2.4,MacIntel,60.0024001,Chrome,1440,900,,,l,0.3677,1,407,1,2,4,28,11,1,0,0,0,1,0,0,1,0,star,hexagon,,,,,,,,,,,,,,,,,,,,,,,,,,,,,,,,,,,,,,,,,,,,,,,,,,,,,,
298291,2022-11-29_13h24.50.951,vts_reward_expectancy_bt,2022.2.4,MacIntel,60.0024001,Chrome,1440,900,,,l,0.6198,1,408,1,2,5,29,0,1,1,0,0,0,0,1,0,0,triangle,circle,,,,,,,,,,,,,,,,,,,,,,,,,,,,,,,,,,,,,,,,,,,,,,,,,,,,,,
298291,2022-11-29_13h24.50.951,vts_reward_expectancy_bt,2022.2.4,MacIntel,60.0024001,Chrome,1440,900,,,l,2.9843,1,409,1,2,6,30,4,1,0,1,0,0,0,0,1,0,circle,hexagon,,,,,,,,,,,,,,,,,,,,,,,,,,,,,,,,,,,,,,,,,,,,,,,,,,,,,,
298291,2022-11-29_13h24.50.951,vts_reward_expectancy_bt,2022.2.4,MacIntel,60.0024001,Chrome,1440,900,,,l,0.5862,10,419,1,2,7,31,10,1,0,0,0,1,0,1,0,0,star ,circle,,,,,,,,,,,,,,,,,,,,,,,,,,,,,,,,,,,,,,,,,,,,,,,,,,,,,,
298291,2022-11-29_13h24.50.951,vts_reward_expectancy_bt,2022.2.4,MacIntel,60.0024001,Chrome,1440,900,,,l,0.3852,1,420,1,2,8,32,1,1,1,0,0,0,0,0,1,0,triangle,hexagon,,,,,,,,,,,,,,,,,,,,,,,,,,,,,,,,,,,,,,,,,,,,,,,,,,,,,,
298291,2022-11-29_13h24.50.951,vts_reward_expectancy_bt,2022.2.4,MacIntel,60.0024001,Chrome,1440,900,,,a,0.6686,10,430,1,2,9,33,9,1,0,0,0,1,1,0,0,0,star,triangle,,,,,,,,,,,,,,,,,,,,,,,,,,,,,,,,,,,,,,,,,,,,,,,,,,,,,,
298291,2022-11-29_13h24.50.951,vts_reward_expectancy_bt,2022.2.4,MacIntel,60.0024001,Chrome,1440,900,,,a,1.0338,1,431,1,2,10,34,8,1,0,0,1,0,0,0,0,1,hexagon,star,,,,,,,,,,,,,,,,,,,,,,,,,,,,,,,,,,,,,,,,,,,,,,,,,,,,,,
298291,2022-11-29_13h24.50.951,vts_reward_expectancy_bt,2022.2.4,MacIntel,60.0024001,Chrome,1440,900,,,l,0.4873,10,441,1,2,11,35,5,1,0,1,0,0,0,0,0,1,circle,star,,,,,,,,,,,,,,,,,,,,,,,,,,,,,,,,,,,,,,,,,,,,,,,,,,,,,,
298291,2022-11-29_13h24.50.951,vts_reward_expectancy_bt,2022.2.4,MacIntel,60.0024001,Chrome,1440,900,,,l,1.0691,1,442,2,0,0,0,10,1,0,0,0,1,0,1,0,0,star ,circle,,,,,,,,,,,,,,,,,,,,,,,,,,,,,,,,,,,,,,,,,,,,,,,,,,,,,,
298291,2022-11-29_13h24.50.951,vts_reward_expectancy_bt,2022.2.4,MacIntel,60.0024001,Chrome,1440,900,,,a,0.4376,10,452,2,0,1,1,3,1,0,1,0,0,1,0,0,0,circle,triangle,,,,,,,,,,,,,,,,,,,,,,,,,,,,,,,,,,,,,,,,,,,,,,,,,,,,,,
298291,2022-11-29_13h24.50.951,vts_reward_expectancy_bt,2022.2.4,MacIntel,60.0024001,Chrome,1440,900,,,l,0.4014,1,453,2,0,2,2,11,1,0,0,0,1,0,0,1,0,star,hexagon,,,,,,,,,,,,,,,,,,,,,,,,,,,,,,,,,,,,,,,,,,,,,,,,,,,,,,
298291,2022-11-29_13h24.50.951,vts_reward_expectancy_bt,2022.2.4,MacIntel,60.0024001,Chrome,1440,900,,,l,0.6651,10,463,2,0,3,3,7,1,0,0,1,0,0,1,0,0,hexagon,circle,,,,,,,,,,,,,,,,,,,,,,,,,,,,,,,,,,,,,,,,,,,,,,,,,,,,,,
298291,2022-11-29_13h24.50.951,vts_reward_expectancy_bt,2022.2.4,MacIntel,60.0024001,Chrome,1440,900,,,l,0.1817,10,473,2,0,4,4,8,1,0,0,1,0,0,0,0,1,hexagon,star,,,,,,,,,,,,,,,,,,,,,,,,,,,,,,,,,,,,,,,,,,,,,,,,,,,,,,
298291,2022-11-29_13h24.50.951,vts_reward_expectancy_bt,2022.2.4,MacIntel,60.0024001,Chrome,1440,900,,,l,0.4664,10,483,2,0,5,5,2,1,1,0,0,0,0,0,0,1,triangle,star,,,,,,,,,,,,,,,,,,,,,,,,,,,,,,,,,,,,,,,,,,,,,,,,,,,,,,
298291,2022-11-29_13h24.50.951,vts_reward_expectancy_bt,2022.2.4,MacIntel,60.0024001,Chrome,1440,900,,,l,1.5534,10,493,2,0,6,6,0,1,1,0,0,0,0,1,0,0,triangle,circle,,,,,,,,,,,,,,,,,,,,,,,,,,,,,,,,,,,,,,,,,,,,,,,,,,,,,,
298291,2022-11-29_13h24.50.951,vts_reward_expectancy_bt,2022.2.4,MacIntel,60.0024001,Chrome,1440,900,,,l,1.9858,1,494,2,0,7,7,1,1,1,0,0,0,0,0,1,0,triangle,hexagon,,,,,,,,,,,,,,,,,,,,,,,,,,,,,,,,,,,,,,,,,,,,,,,,,,,,,,
298291,2022-11-29_13h24.50.951,vts_reward_expectancy_bt,2022.2.4,MacIntel,60.0024001,Chrome,1440,900,,,l,0.3353,10,504,2,0,8,8,4,1,0,1,0,0,0,0,1,0,circle,hexagon,,,,,,,,,,,,,,,,,,,,,,,,,,,,,,,,,,,,,,,,,,,,,,,,,,,,,,
298291,2022-11-29_13h24.50.951,vts_reward_expectancy_bt,2022.2.4,MacIntel,60.0024001,Chrome,1440,900,,,l,0.7214,10,514,2,0,9,9,5,1,0,1,0,0,0,0,0,1,circle,star,,,,,,,,,,,,,,,,,,,,,,,,,,,,,,,,,,,,,,,,,,,,,,,,,,,,,,
298291,2022-11-29_13h24.50.951,vts_reward_expectancy_bt,2022.2.4,MacIntel,60.0024001,Chrome,1440,900,,,l,1.2698,10,524,2,0,10,10,9,1,0,0,0,1,1,0,0,0,star,triangle,,,,,,,,,,,,,,,,,,,,,,,,,,,,,,,,,,,,,,,,,,,,,,,,,,,,,,
298291,2022-11-29_13h24.50.951,vts_reward_expectancy_bt,2022.2.4,MacIntel,60.0024001,Chrome,1440,900,,,l,0.768,10,534,2,0,11,11,6,1,0,0,1,0,1,0,0,0,hexagon,triangle,,,,,,,,,,,,,,,,,,,,,,,,,,,,,,,,,,,,,,,,,,,,,,,,,,,,,,
298291,2022-11-29_13h24.50.951,vts_reward_expectancy_bt,2022.2.4,MacIntel,60.0024001,Chrome,1440,900,,,l,6.4511,1,535,2,1,0,12,11,1,0,0,0,1,0,0,1,0,star,hexagon,,,,,,,,,,,,,,,,,,,,,,,,,,,,,,,,,,,,,,,,,,,,,,,,,,,,,,
298291,2022-11-29_13h24.50.951,vts_reward_expectancy_bt,2022.2.4,MacIntel,60.0024001,Chrome,1440,900,,,l,0.0682,1,536,2,1,1,13,6,1,0,0,1,0,1,0,0,0,hexagon,triangle,,,,,,,,,,,,,,,,,,,,,,,,,,,,,,,,,,,,,,,,,,,,,,,,,,,,,,
298291,2022-11-29_13h24.50.951,vts_reward_expectancy_bt,2022.2.4,MacIntel,60.0024001,Chrome,1440,900,,,l,0.2531,1,537,2,1,2,14,0,1,1,0,0,0,0,1,0,0,triangle,circle,,,,,,,,,,,,,,,,,,,,,,,,,,,,,,,,,,,,,,,,,,,,,,,,,,,,,,
298291,2022-11-29_13h24.50.951,vts_reward_expectancy_bt,2022.2.4,MacIntel,60.0024001,Chrome,1440,900,,,l,0.0005,10,547,2,1,3,15,9,1,0,0,0,1,1,0,0,0,star,triangle,,,,,,,,,,,,,,,,,,,,,,,,,,,,,,,,,,,,,,,,,,,,,,,,,,,,,,
298291,2022-11-29_13h24.50.951,vts_reward_expectancy_bt,2022.2.4,MacIntel,60.0024001,Chrome,1440,900,,,l,0.1723,1,548,2,1,4,16,5,1,0,1,0,0,0,0,0,1,circle,star,,,,,,,,,,,,,,,,,,,,,,,,,,,,,,,,,,,,,,,,,,,,,,,,,,,,,,
298291,2022-11-29_13h24.50.951,vts_reward_expectancy_bt,2022.2.4,MacIntel,60.0024001,Chrome,1440,900,,,l,0.1053,1,549,2,1,5,17,7,1,0,0,1,0,0,1,0,0,hexagon,circle,,,,,,,,,,,,,,,,,,,,,,,,,,,,,,,,,,,,,,,,,,,,,,,,,,,,,,
298291,2022-11-29_13h24.50.951,vts_reward_expectancy_bt,2022.2.4,MacIntel,60.0024001,Chrome,1440,900,,,l,1.7533,1,550,2,1,6,18,1,1,1,0,0,0,0,0,1,0,triangle,hexagon,,,,,,,,,,,,,,,,,,,,,,,,,,,,,,,,,,,,,,,,,,,,,,,,,,,,,,
298291,2022-11-29_13h24.50.951,vts_reward_expectancy_bt,2022.2.4,MacIntel,60.0024001,Chrome,1440,900,,,l,0.0005,1,551,2,1,7,19,2,1,1,0,0,0,0,0,0,1,triangle,star,,,,,,,,,,,,,,,,,,,,,,,,,,,,,,,,,,,,,,,,,,,,,,,,,,,,,,
298291,2022-11-29_13h24.50.951,vts_reward_expectancy_bt,2022.2.4,MacIntel,60.0024001,Chrome,1440,900,,,l,0.5005,1,552,2,1,8,20,4,1,0,1,0,0,0,0,1,0,circle,hexagon,,,,,,,,,,,,,,,,,,,,,,,,,,,,,,,,,,,,,,,,,,,,,,,,,,,,,,
298291,2022-11-29_13h24.50.951,vts_reward_expectancy_bt,2022.2.4,MacIntel,60.0024001,Chrome,1440,900,,,l,0.3811,1,553,2,1,9,21,8,1,0,0,1,0,0,0,0,1,hexagon,star,,,,,,,,,,,,,,,,,,,,,,,,,,,,,,,,,,,,,,,,,,,,,,,,,,,,,,
298291,2022-11-29_13h24.50.951,vts_reward_expectancy_bt,2022.2.4,MacIntel,60.0024001,Chrome,1440,900,,,l,0.3337,10,563,2,1,10,22,3,1,0,1,0,0,1,0,0,0,circle,triangle,,,,,,,,,,,,,,,,,,,,,,,,,,,,,,,,,,,,,,,,,,,,,,,,,,,,,,
298291,2022-11-29_13h24.50.951,vts_reward_expectancy_bt,2022.2.4,MacIntel,60.0024001,Chrome,1440,900,,,a,0.7186,10,573,2,1,11,23,10,1,0,0,0,1,0,1,0,0,star ,circle,,,,,,,,,,,,,,,,,,,,,,,,,,,,,,,,,,,,,,,,,,,,,,,,,,,,,,
298291,2022-11-29_13h24.50.951,vts_reward_expectancy_bt,2022.2.4,MacIntel,60.0024001,Chrome,1440,900,,,a,0.1809,1,574,2,2,0,24,4,1,0,1,0,0,0,0,1,0,circle,hexagon,,,,,,,,,,,,,,,,,,,,,,,,,,,,,,,,,,,,,,,,,,,,,,,,,,,,,,
298291,2022-11-29_13h24.50.951,vts_reward_expectancy_bt,2022.2.4,MacIntel,60.0024001,Chrome,1440,900,,,a,0.2528,10,584,2,2,1,25,0,1,1,0,0,0,0,1,0,0,triangle,circle,,,,,,,,,,,,,,,,,,,,,,,,,,,,,,,,,,,,,,,,,,,,,,,,,,,,,,
298291,2022-11-29_13h24.50.951,vts_reward_expectancy_bt,2022.2.4,MacIntel,60.0024001,Chrome,1440,900,,,a,0.2358,10,594,2,2,2,26,10,1,0,0,0,1,0,1,0,0,star ,circle,,,,,,,,,,,,,,,,,,,,,,,,,,,,,,,,,,,,,,,,,,,,,,,,,,,,,,
298291,2022-11-29_13h24.50.951,vts_reward_expectancy_bt,2022.2.4,MacIntel,60.0024001,Chrome,1440,900,,,a,0.1603,10,604,2,2,3,27,7,1,0,0,1,0,0,1,0,0,hexagon,circle,,,,,,,,,,,,,,,,,,,,,,,,,,,,,,,,,,,,,,,,,,,,,,,,,,,,,,
298291,2022-11-29_13h24.50.951,vts_reward_expectancy_bt,2022.2.4,MacIntel,60.0024001,Chrome,1440,900,,,a,0.3024,1,605,2,2,4,28,6,1,0,0,1,0,1,0,0,0,hexagon,triangle,,,,,,,,,,,,,,,,,,,,,,,,,,,,,,,,,,,,,,,,,,,,,,,,,,,,,,
298291,2022-11-29_13h24.50.951,vts_reward_expectancy_bt,2022.2.4,MacIntel,60.0024001,Chrome,1440,900,,,a,0.0846,10,615,2,2,5,29,1,1,1,0,0,0,0,0,1,0,triangle,hexagon,,,,,,,,,,,,,,,,,,,,,,,,,,,,,,,,,,,,,,,,,,,,,,,,,,,,,,
298291,2022-11-29_13h24.50.951,vts_reward_expectancy_bt,2022.2.4,MacIntel,60.0024001,Chrome,1440,900,,,a,0.3706,1,616,2,2,6,30,3,1,0,1,0,0,1,0,0,0,circle,triangle,,,,,,,,,,,,,,,,,,,,,,,,,,,,,,,,,,,,,,,,,,,,,,,,,,,,,,
298291,2022-11-29_13h24.50.951,vts_reward_expectancy_bt,2022.2.4,MacIntel,60.0024001,Chrome,1440,900,,,a,0.2899,10,626,2,2,7,31,8,1,0,0,1,0,0,0,0,1,hexagon,star,,,,,,,,,,,,,,,,,,,,,,,,,,,,,,,,,,,,,,,,,,,,,,,,,,,,,,
298291,2022-11-29_13h24.50.951,vts_reward_expectancy_bt,2022.2.4,MacIntel,60.0024001,Chrome,1440,900,,,a,0.1149,10,636,2,2,8,32,11,1,0,0,0,1,0,0,1,0,star,hexagon,,,,,,,,,,,,,,,,,,,,,,,,,,,,,,,,,,,,,,,,,,,,,,,,,,,,,,
298291,2022-11-29_13h24.50.951,vts_reward_expectancy_bt,2022.2.4,MacIntel,60.0024001,Chrome,1440,900,,,a,2.4343,10,646,2,2,9,33,2,1,1,0,0,0,0,0,0,1,triangle,star,,,,,,,,,,,,,,,,,,,,,,,,,,,,,,,,,,,,,,,,,,,,,,,,,,,,,,
298291,2022-11-29_13h24.50.951,vts_reward_expectancy_bt,2022.2.4,MacIntel,60.0024001,Chrome,1440,900,,,a,2.1068,10,656,2,2,10,34,9,1,0,0,0,1,1,0,0,0,star,triangle,,,,,,,,,,,,,,,,,,,,,,,,,,,,,,,,,,,,,,,,,,,,,,,,,,,,,,
298291,2022-11-29_13h24.50.951,vts_reward_expectancy_bt,2022.2.4,MacIntel,60.0024001,Chrome,1440,900,,,a,1.3188,1,657,2,2,11,35,5,1,0,1,0,0,0,0,0,1,circle,star,,,,,,,,,,,,,,,,,,,,,,,,,,,,,,,,,,,,,,,,,,,,,,,,,,,,,,
298291,2022-11-29_13h24.50.951,vts_reward_expectancy_bt,2022.2.4,MacIntel,60.0024001,Chrome,1440,900,,,,,,,,,,,,,,,,,,,,,,,146,Y,star,0,0,,0,0,0,0,0,1,,,,,,,,,,,,,,,,,,,,,,,,,,,,,,,,,,,,,,,,,,
298291,2022-11-29_13h24.50.951,vts_reward_expectancy_bt,2022.2.4,MacIntel,60.0024001,Chrome,1440,900,,,,,,,,,,,,,,,,,,,,,,,160,B,circle,0,1,,0,1,0,1,0,1,,,,,,,,,,,,,,,,,,,,,,,,,,,,,,,,,,,,,,,,,,
298291,2022-11-29_13h24.50.951,vts_reward_expectancy_bt,2022.2.4,MacIntel,60.0024001,Chrome,1440,900,,,,,,,,,,,,,,,,,,,,,,,132,U,hexagon,0,1,,0,2,0,2,0,1,,,,,,,,,,,,,,,,,,,,,,,,,,,,,,,,,,,,,,,,,,
298291,2022-11-29_13h24.50.951,vts_reward_expectancy_bt,2022.2.4,MacIntel,60.0024001,Chrome,1440,900,,,,,,,,,,,,,,,,,,,,,,,125,D,triangle,0,1,,0,3,0,3,0,1,,,,,,,,,,,,,,,,,,,,,,,,,,,,,,,,,,,,,,,,,,
298291,2022-11-29_13h24.50.951,vts_reward_expectancy_bt,2022.2.4,MacIntel,60.0024001,Chrome,1440,900,,,,,,,,,,,,,,,,,,,,,,,167,S,star,0,1,,0,4,0,4,0,1,,,,,,,,,,,,,,,,,,,,,,,,,,,,,,,,,,,,,,,,,,
298291,2022-11-29_13h24.50.951,vts_reward_expectancy_bt,2022.2.4,MacIntel,60.0024001,Chrome,1440,900,,,,,,,,,,,,,,,,,,,,,,,174,F,circle,1,1,f,0,5,0,5,0,1,2.2953,,,,,,,,,,,,,,,,,,,,,,,,,,,,,,,,,,,,,,,,,
298291,2022-11-29_13h24.50.951,vts_reward_expectancy_bt,2022.2.4,MacIntel,60.0024001,Chrome,1440,900,,,,,,,,,,,,,,,,,,,,,,,181,W,hexagon,1,0,f,0,6,0,6,0,1,2.2819,,,,,,,,,,,,,,,,,,,,,,,,,,,,,,,,,,,,,,,,,
298291,2022-11-29_13h24.50.951,vts_reward_expectancy_bt,2022.2.4,MacIntel,60.0024001,Chrome,1440,900,,,,,,,,,,,,,,,,,,,,,,,139,H,triangle,0,0,f,0,7,0,7,0,1,0.932,,,,,,,,,,,,,,,,,,,,,,,,,,,,,,,,,,,,,,,,,
298291,2022-11-29_13h24.50.951,vts_reward_expectancy_bt,2022.2.4,MacIntel,60.0024001,Chrome,1440,900,,,,,,,,,,,,,,,,,,,,,,,146,Y,hexagon,0,1,,0,8,0,8,0,1,,,,,,,,,,,,,,,,,,,,,,,,,,,,,,,,,,,,,,,,,,
298291,2022-11-29_13h24.50.951,vts_reward_expectancy_bt,2022.2.4,MacIntel,60.0024001,Chrome,1440,900,,,,,,,,,,,,,,,,,,,,,,,160,B,star,1,1,f,0,9,0,9,0,1,2.2162,,,,,,,,,,,,,,,,,,,,,,,,,,,,,,,,,,,,,,,,,
298291,2022-11-29_13h24.50.951,vts_reward_expectancy_bt,2022.2.4,MacIntel,60.0024001,Chrome,1440,900,,,,,,,,,,,,,,,,,,,,,,,181,D,star,1,0,f,1,0,0,0,0,1,0.9172,,,,,,,,,,,,,,,,,,,,,,,,,,,,,,,,,,,,,,,,,
298291,2022-11-29_13h24.50.951,vts_reward_expectancy_bt,2022.2.4,MacIntel,60.0024001,Chrome,1440,900,,,,,,,,,,,,,,,,,,,,,,,160,Y,circle,1,0,f,1,1,0,1,0,1,0.5655,,,,,,,,,,,,,,,,,,,,,,,,,,,,,,,,,,,,,,,,,
298291,2022-11-29_13h24.50.951,vts_reward_expectancy_bt,2022.2.4,MacIntel,60.0024001,Chrome,1440,900,,,,,,,,,,,,,,,,,,,,,,,139,U,hexagon,1,0,d,1,2,0,2,0,1,0.9498,,,,,,,,,,,,,,,,,,,,,,,,,,,,,,,,,,,,,,,,,
298291,2022-11-29_13h24.50.951,vts_reward_expectancy_bt,2022.2.4,MacIntel,60.0024001,Chrome,1440,900,,,,,,,,,,,,,,,,,,,,,,,132,F,triangle,1,0,d,1,3,0,3,0,1,0.7322,,,,,,,,,,,,,,,,,,,,,,,,,,,,,,,,,,,,,,,,,
298291,2022-11-29_13h24.50.951,vts_reward_expectancy_bt,2022.2.4,MacIntel,60.0024001,Chrome,1440,900,,,,,,,,,,,,,,,,,,,,,,,146,H,star,1,0,d,1,4,0,4,0,1,0.682,,,,,,,,,,,,,,,,,,,,,,,,,,,,,,,,,,,,,,,,,
298291,2022-11-29_13h24.50.951,vts_reward_expectancy_bt,2022.2.4,MacIntel,60.0024001,Chrome,1440,900,,,,,,,,,,,,,,,,,,,,,,,167,W,circle,1,0,f,1,5,0,5,0,1,0.7518,,,,,,,,,,,,,,,,,,,,,,,,,,,,,,,,,,,,,,,,,
298291,2022-11-29_13h24.50.951,vts_reward_expectancy_bt,2022.2.4,MacIntel,60.0024001,Chrome,1440,900,,,,,,,,,,,,,,,,,,,,,,,125,S,hexagon,0,0,,1,6,0,6,0,1,,,,,,,,,,,,,,,,,,,,,,,,,,,,,,,,,,,,,,,,,,
298291,2022-11-29_13h24.50.951,vts_reward_expectancy_bt,2022.2.4,MacIntel,60.0024001,Chrome,1440,900,,,,,,,,,,,,,,,,,,,,,,,174,B,triangle,1,1,f,1,7,0,7,0,1,0.7885,,,,,,,,,,,,,,,,,,,,,,,,,,,,,,,,,,,,,,,,,
298291,2022-11-29_13h24.50.951,vts_reward_expectancy_bt,2022.2.4,MacIntel,60.0024001,Chrome,1440,900,,,,,,,,,,,,,,,,,,,,,,,181,D,circle,1,0,f,1,8,0,8,0,1,0.6496,,,,,,,,,,,,,,,,,,,,,,,,,,,,,,,,,,,,,,,,,
298291,2022-11-29_13h24.50.951,vts_reward_expectancy_bt,2022.2.4,MacIntel,60.0024001,Chrome,1440,900,,,,,,,,,,,,,,,,,,,,,,,160,Y,hexagon,1,0,f,1,9,0,9,0,1,0.6982,,,,,,,,,,,,,,,,,,,,,,,,,,,,,,,,,,,,,,,,,
298291,2022-11-29_13h24.50.951,vts_reward_expectancy_bt,2022.2.4,MacIntel,60.0024001,Chrome,1440,900,,,,,,,,,,,,,,,,,,,,,,,167,F,triangle,1,0,,2,,,,,,,j,1.015,0,0,0,0,1,,,,,,,,,,,,,,,,,,,,,,,,,,,,,,,,,,
298291,2022-11-29_13h24.50.951,vts_reward_expectancy_bt,2022.2.4,MacIntel,60.0024001,Chrome,1440,900,,,,,,,,,,,,,,,,,,,,,,,146,B,circle,1,0,,2,,,,,,,j,0.6686,1,0,1,0,1,,,,,,,,,,,,,,,,,,,,,,,,,,,,,,,,,,
298291,2022-11-29_13h24.50.951,vts_reward_expectancy_bt,2022.2.4,MacIntel,60.0024001,Chrome,1440,900,,,,,,,,,,,,,,,,,,,,,,,125,W,star,0,0,,2,,,,,,,j,0.5687,2,0,2,0,1,,,,,,,,,,,,,,,,,,,,,,,,,,,,,,,,,,
298291,2022-11-29_13h24.50.951,vts_reward_expectancy_bt,2022.2.4,MacIntel,60.0024001,Chrome,1440,900,,,,,,,,,,,,,,,,,,,,,,,181,Y,hexagon,1,1,,2,,,,,,,k,0.7353,3,0,3,0,1,,,,,,,,,,,,,,,,,,,,,,,,,,,,,,,,,,
298291,2022-11-29_13h24.50.951,vts_reward_expectancy_bt,2022.2.4,MacIntel,60.0024001,Chrome,1440,900,,,,,,,,,,,,,,,,,,,,,,,139,H,triangle,1,0,,2,,,,,,,j,0.7526,4,0,4,0,1,,,,,,,,,,,,,,,,,,,,,,,,,,,,,,,,,,
298291,2022-11-29_13h24.50.951,vts_reward_expectancy_bt,2022.2.4,MacIntel,60.0024001,Chrome,1440,900,,,,,,,,,,,,,,,,,,,,,,,160,D,circle,1,0,,2,,,,,,,j,1.0386,5,0,5,0,1,,,,,,,,,,,,,,,,,,,,,,,,,,,,,,,,,,
298291,2022-11-29_13h24.50.951,vts_reward_expectancy_bt,2022.2.4,MacIntel,60.0024001,Chrome,1440,900,,,,,,,,,,,,,,,,,,,,,,,132,S,star,1,0,,2,,,,,,,k,0.7534,6,0,6,0,1,,,,,,,,,,,,,,,,,,,,,,,,,,,,,,,,,,
298291,2022-11-29_13h24.50.951,vts_reward_expectancy_bt,2022.2.4,MacIntel,60.0024001,Chrome,1440,900,,,,,,,,,,,,,,,,,,,,,,,174,U,hexagon,1,0,,2,,,,,,,k,0.7677,7,0,7,0,1,,,,,,,,,,,,,,,,,,,,,,,,,,,,,,,,,,
298291,2022-11-29_13h24.50.951,vts_reward_expectancy_bt,2022.2.4,MacIntel,60.0024001,Chrome,1440,900,,,,,,,,,,,,,,,,,,,,,,,167,F,hexagon,1,0,,2,,,,,,,j,1.0027,8,0,8,0,1,,,,,,,,,,,,,,,,,,,,,,,,,,,,,,,,,,
298291,2022-11-29_13h24.50.951,vts_reward_expectancy_bt,2022.2.4,MacIntel,60.0024001,Chrome,1440,900,,,,,,,,,,,,,,,,,,,,,,,146,B,triangle,1,0,,2,,,,,,,j,0.7622,9,0,9,0,1,,,,,,,,,,,,,,,,,,,,,,,,,,,,,,,,,,
298291,2022-11-29_13h24.50.951,vts_reward_expectancy_bt,2022.2.4,MacIntel,60.0024001,Chrome,1440,900,,,,,0,657,,,,,,,,,,,,,,,,,167,W,star,1,0,,3,,,,,,,,,,,,,,-1,letter,NA,k,2.132,vtsPrac,0,0,0,0,1,,,,,,,,,,,,,,,,,,,,,,,
298291,2022-11-29_13h24.50.951,vts_reward_expectancy_bt,2022.2.4,MacIntel,60.0024001,Chrome,1440,900,,,,,0,657,,,,,,,,,,,,,,,,,139,S,hexagon,1,0,,3,,,,,,,,,,,,,,repeat,letter,lettRpt,k,0.8187,vtsPrac,1,0,1,0,1,,,,,,,,,,,,,,,,,,,,,,,
298291,2022-11-29_13h24.50.951,vts_reward_expectancy_bt,2022.2.4,MacIntel,60.0024001,Chrome,1440,900,,,,,0,657,,,,,,,,,,,,,,,,,125,Y,star,1,0,,3,,,,,,,,,,,,,,repeat,letter,lettRpt,k,0.7324,vtsPrac,2,0,2,0,1,,,,,,,,,,,,,,,,,,,,,,,
298291,2022-11-29_13h24.50.951,vts_reward_expectancy_bt,2022.2.4,MacIntel,60.0024001,Chrome,1440,900,,,,,0,657,,,,,,,,,,,,,,,,,181,B,hexagon,1,0,,3,,,,,,,,,,,,,,repeat,letter,lettRpt,j,0.6353,vtsPrac,3,0,3,0,1,,,,,,,,,,,,,,,,,,,,,,,
298291,2022-11-29_13h24.50.951,vts_reward_expectancy_bt,2022.2.4,MacIntel,60.0024001,Chrome,1440,900,,,,,0,657,,,,,,,,,,,,,,,,,167,W,hexagon,-1,0,,3,,,,,,,,,,,,,,switch,no_choice,NA,,,vtsPrac,4,0,4,0,1,,,,,,,,,,,,,,,,,,,,,,,
298291,2022-11-29_13h24.50.951,vts_reward_expectancy_bt,2022.2.4,MacIntel,60.0024001,Chrome,1440,900,,,,,0,657,,,,,,,,,,,,,,,,,139,S,triangle,1,0,,3,,,,,,,,,,,,,,switch,number,numSwt,d,0.985,vtsPrac,5,0,5,0,1,,,,,,,,,,,,,,,,,,,,,,,
298291,2022-11-29_13h24.50.951,vts_reward_expectancy_bt,2022.2.4,MacIntel,60.0024001,Chrome,1440,900,,,,,0,657,,,,,,,,,,,,,,,,,125,Y,triangle,1,0,,3,,,,,,,,,,,,,,repeat,number,numRpt,d,1.0831,vtsPrac,6,0,6,0,1,,,,,,,,,,,,,,,,,,,,,,,
298291,2022-11-29_13h24.50.951,vts_reward_expectancy_bt,2022.2.4,MacIntel,60.0024001,Chrome,1440,900,,,,,0,657,,,,,,,,,,,,,,,,,181,B,star,0,0,,3,,,,,,,,,,,,,,repeat,number,NA,d,1.967,vtsPrac,7,0,7,0,1,,,,,,,,,,,,,,,,,,,,,,,
298291,2022-11-29_13h24.50.951,vts_reward_expectancy_bt,2022.2.4,MacIntel,60.0024001,Chrome,1440,900,,,,,0,657,,,,,,,,,,,,,,,,,125,W,star,1,1,,3,,,,,,,,,,,,,,repeat,number,numRpt,d,1.0523,vtsPrac,8,0,8,0,1,,,,,,,,,,,,,,,,,,,,,,,
298291,2022-11-29_13h24.50.951,vts_reward_expectancy_bt,2022.2.4,MacIntel,60.0024001,Chrome,1440,900,,,,,0,657,,,,,,,,,,,,,,,,,146,Y,triangle,1,0,,3,,,,,,,,,,,,,,repeat,number,numRpt,d,0.9519,vtsPrac,9,0,9,0,1,,,,,,,,,,,,,,,,,,,,,,,
298291,2022-11-29_13h24.50.951,vts_reward_expectancy_bt,2022.2.4,MacIntel,60.0024001,Chrome,1440,900,,,,,0,657,,,,,,,,,,,,,,,,,139,H,circle,1,0,,3,,,,,,,,,,,,,,switch,letter,lettSwt,j,0.6855,vtsPrac,10,0,10,0,1,,,,,,,,,,,,,,,,,,,,,,,
298291,2022-11-29_13h24.50.951,vts_reward_expectancy_bt,2022.2.4,MacIntel,60.0024001,Chrome,1440,900,,,,,0,657,,,,,,,,,,,,,,,,,132,F,triangle,1,0,,3,,,,,,,,,,,,,,repeat,letter,lettRpt,j,0.9902,vtsPrac,11,0,11,0,1,,,,,,,,,,,,,,,,,,,,,,,
298291,2022-11-29_13h24.50.951,vts_reward_expectancy_bt,2022.2.4,MacIntel,60.0024001,Chrome,1440,900,,,,,0,657,,,,,,,,,,,,,,,,,139,H,triangle,1,0,,3,,,,,,,,,,,,,,switch,number,numSwt,d,0.7195,vtsPrac,12,0,12,0,1,,,,,,,,,,,,,,,,,,,,,,,
298291,2022-11-29_13h24.50.951,vts_reward_expectancy_bt,2022.2.4,MacIntel,60.0024001,Chrome,1440,900,,,,,0,657,,,,,,,,,,,,,,,,,146,Y,circle,1,0,,3,,,,,,,,,,,,,,repeat,number,numRpt,d,0.9368,vtsPrac,13,0,13,0,1,,,,,,,,,,,,,,,,,,,,,,,
298291,2022-11-29_13h24.50.951,vts_reward_expectancy_bt,2022.2.4,MacIntel,60.0024001,Chrome,1440,900,,,,,0,657,,,,,,,,,,,,,,,,,167,D,star,0,0,,3,,,,,,,,,,,,,,repeat,number,NA,d,0.7354,vtsPrac,14,0,14,0,1,,,,,,,,,,,,,,,,,,,,,,,
298291,2022-11-29_13h24.50.951,vts_reward_expectancy_bt,2022.2.4,MacIntel,60.0024001,Chrome,1440,900,,,,,0,657,,,,,,,,,,,,,,,,,125,W,hexagon,1,1,,3,,,,,,,,,,,,,,repeat,number,numRpt,d,1.5186,vtsPrac,15,0,15,0,1,,,,,,,,,,,,,,,,,,,,,,,
298291,2022-11-29_13h24.50.951,vts_reward_expectancy_bt,2022.2.4,MacIntel,60.0024001,Chrome,1440,900,,,,,0,657,,,,,,,,,,,,,,,,,181,Y,hexagon,1,0,,3,,,,,,,,,,,,,,switch,letter,lettSwt,k,0.9696,vtsPrac,16,0,16,0,1,,,,,,,,,,,,,,,,,,,,,,,
298291,2022-11-29_13h24.50.951,vts_reward_expectancy_bt,2022.2.4,MacIntel,60.0024001,Chrome,1440,900,,,,,0,657,,,,,,,,,,,,,,,,,125,U,triangle,1,0,,3,,,,,,,,,,,,,,switch,number,numSwt,d,1.4347,vtsPrac,17,0,17,0,1,,,,,,,,,,,,,,,,,,,,,,,
298291,2022-11-29_13h24.50.951,vts_reward_expectancy_bt,2022.2.4,MacIntel,60.0024001,Chrome,1440,900,,,,,0,657,,,,,,,,,,,,,,,,,139,S,star,1,0,,3,,,,,,,,,,,,,,repeat,number,numRpt,d,1.0041,vtsPrac,18,0,18,0,1,,,,,,,,,,,,,,,,,,,,,,,
298291,2022-11-29_13h24.50.951,vts_reward_expectancy_bt,2022.2.4,MacIntel,60.0024001,Chrome,1440,900,,,,,0,657,,,,,,,,,,,,,,,,,167,B,circle,1,0,,3,,,,,,,,,,,,,,switch,letter,lettSwt,j,1.2675,vtsPrac,19,0,19,0,1,,,,,,,,,,,,,,,,,,,,,,,
298291,2022-11-29_13h24.50.951,vts_reward_expectancy_bt,2022.2.4,MacIntel,60.0024001,Chrome,1440,900,,,,,0,657,,,,,,,,,,,,,,,,,132,D,circle,1,0,,3,,,,,,,,,,,,,,repeat,letter,lettRpt,j,1.0029,vtsPrac,20,0,20,0,1,,,,,,,,,,,,,,,,,,,,,,,
298291,2022-11-29_13h24.50.951,vts_reward_expectancy_bt,2022.2.4,MacIntel,60.0024001,Chrome,1440,900,,,,,0,657,,,,,,,,,,,,,,,,,139,B,star,1,0,,3,,,,,,,,,,,,,,repeat,letter,lettRpt,j,2.0346,vtsPrac,21,0,21,0,1,,,,,,,,,,,,,,,,,,,,,,,
298291,2022-11-29_13h24.50.951,vts_reward_expectancy_bt,2022.2.4,MacIntel,60.0024001,Chrome,1440,900,,,,,0,657,,,,,,,,,,,,,,,,,174,Y,star,1,0,,3,,,,,,,,,,,,,,repeat,letter,lettRpt,k,1.4997,vtsPrac,22,0,22,0,1,,,,,,,,,,,,,,,,,,,,,,,
298291,2022-11-29_13h24.50.951,vts_reward_expectancy_bt,2022.2.4,MacIntel,60.0024001,Chrome,1440,900,,,,,0,657,,,,,,,,,,,,,,,,,167,U,hexagon,1,0,,3,,,,,,,,,,,,,,repeat,letter,lettRpt,k,0.8332,vtsPrac,23,0,23,0,1,,,,,,,,,,,,,,,,,,,,,,,
298291,2022-11-29_13h24.50.951,vts_reward_expectancy_bt,2022.2.4,MacIntel,60.0024001,Chrome,1440,900,,,,,0,657,,,,,,,,,,,,,,,,,181,W,star,1,0,,3,,,,,,,,,,,,,,repeat,letter,lettRpt,k,0.6202,vtsPrac,24,0,24,0,1,,,,,,,,,,,,,,,,,,,,,,,
298291,2022-11-29_13h24.50.951,vts_reward_expectancy_bt,2022.2.4,MacIntel,60.0024001,Chrome,1440,900,,,,,0,657,,,,,,,,,,,,,,,,,132,F,circle,1,0,,3,,,,,,,,,,,,,,repeat,letter,lettRpt,j,1.2329,vtsPrac,25,0,25,0,1,,,,,,,,,,,,,,,,,,,,,,,
298291,2022-11-29_13h24.50.951,vts_reward_expectancy_bt,2022.2.4,MacIntel,60.0024001,Chrome,1440,900,,,,,0,657,,,,,,,,,,,,,,,,,139,H,star,1,0,,3,,,,,,,,,,,,,,switch,number,numSwt,d,1.3509,vtsPrac,26,0,26,0,1,,,,,,,,,,,,,,,,,,,,,,,
298291,2022-11-29_13h24.50.951,vts_reward_expectancy_bt,2022.2.4,MacIntel,60.0024001,Chrome,1440,900,,,,,0,657,,,,,,,,,,,,,,,,,174,Y,triangle,1,0,,3,,,,,,,,,,,,,,repeat,number,numRpt,f,0.8018,vtsPrac,27,0,27,0,1,,,,,,,,,,,,,,,,,,,,,,,
298291,2022-11-29_13h24.50.951,vts_reward_expectancy_bt,2022.2.4,MacIntel,60.0024001,Chrome,1440,900,,,,,0,657,,,,,,,,,,,,,,,,,146,B,star,1,0,,3,,,,,,,,,,,,,,repeat,number,numRpt,d,0.8192,vtsPrac,28,0,28,0,1,,,,,,,,,,,,,,,,,,,,,,,
298291,2022-11-29_13h24.50.951,vts_reward_expectancy_bt,2022.2.4,MacIntel,60.0024001,Chrome,1440,900,,,,,0,657,,,,,,,,,,,,,,,,,125,Y,hexagon,1,0,,3,,,,,,,,,,,,,,repeat,number,numRpt,d,1.134,vtsPrac,29,0,29,0,1,,,,,,,,,,,,,,,,,,,,,,,
298291,2022-11-29_13h24.50.951,vts_reward_expectancy_bt,2022.2.4,MacIntel,60.0024001,Chrome,1440,900,,,,,0,657,,,,,,,,,,,,,,,,,181,U,triangle,1,0,,3,,,,,,,,,,,,,,repeat,number,numRpt,f,1.5155,vtsPrac,30,0,30,0,1,,,,,,,,,,,,,,,,,,,,,,,
298291,2022-11-29_13h24.50.951,vts_reward_expectancy_bt,2022.2.4,MacIntel,60.0024001,Chrome,1440,900,,,,,0,657,,,,,,,,,,,,,,,,,160,S,star,0,0,,3,,,,,,,,,,,,,,repeat,number,NA,d,1.6839,vtsPrac,31,0,31,0,1,,,,,,,,,,,,,,,,,,,,,,,
298291,2022-11-29_13h24.50.951,vts_reward_expectancy_bt,2022.2.4,MacIntel,60.0024001,Chrome,1440,900,,,,,,,,,,,,,,,,,,,,,,,,,,,,,,,,,,,,,,,,,,,,,,,,,,,,,,,,,,,,,,,,,,,,,,,,,,,,
298291,2022-11-29_13h24.50.951,vts_reward_expectancy_bt,2022.2.4,MacIntel,60.0024001,Chrome,1440,900,,,,,,,,,,,,,,,,,,,,,,,,,,,,,,,,,,,,,,,,,,,,,,,,,,,,,,,,,,,,,,,,,,,,,,,,,,,,
298291,2022-11-29_13h24.50.951,vts_reward_expectancy_bt,2022.2.4,MacIntel,60.0024001,Chrome,1440,900,,,,,0,657,,,,,,,,,,,,,,,,,132,B,circle,1,1,,,,,,,,,,,,,,,,switch,letter,lettSwt,j,1.8367,noRew,,,,,,0,0,0,0,0,1,,,,,,,,,,,,,,,,,
298291,2022-11-29_13h24.50.951,vts_reward_expectancy_bt,2022.2.4,MacIntel,60.0024001,Chrome,1440,900,,,,,0,657,,,,,,,,,,,,,,,,,181,W,hexagon,1,0,,,,,,,,,,,,,,,,repeat,letter,lettRpt,k,0.8329,noRew,,,,,,0,1,0,1,0,1,,,,,,,,,,,,,,,,,
298291,2022-11-29_13h24.50.951,vts_reward_expectancy_bt,2022.2.4,MacIntel,60.0024001,Chrome,1440,900,,,,,0,657,,,,,,,,,,,,,,,,,167,S,circle,1,0,,,,,,,,,,,,,,,,repeat,letter,lettRpt,k,0.6652,noRew,,,,,,0,2,0,2,0,1,,,,,,,,,,,,,,,,,
298291,2022-11-29_13h24.50.951,vts_reward_expectancy_bt,2022.2.4,MacIntel,60.0024001,Chrome,1440,900,,,,,0,657,,,,,,,,,,,,,,,,,160,H,hexagon,1,0,,,,,,,,,,,,,,,,repeat,letter,lettRpt,j,0.9368,noRew,,,,,,0,3,0,3,0,1,,,,,,,,,,,,,,,,,
298291,2022-11-29_13h24.50.951,vts_reward_expectancy_bt,2022.2.4,MacIntel,60.0024001,Chrome,1440,900,,,,,0,657,,,,,,,,,,,,,,,,,132,B,triangle,1,0,,,,,,,,,,,,,,,,switch,number,numSwt,d,1.5837,noRew,,,,,,0,4,0,4,0,1,,,,,,,,,,,,,,,,,
298291,2022-11-29_13h24.50.951,vts_reward_expectancy_bt,2022.2.4,MacIntel,60.0024001,Chrome,1440,900,,,,,0,657,,,,,,,,,,,,,,,,,181,W,hexagon,1,0,,,,,,,,,,,,,,,,repeat,number,numRpt,f,0.8686,noRew,,,,,,0,5,0,5,0,1,,,,,,,,,,,,,,,,,
298291,2022-11-29_13h24.50.951,vts_reward_expectancy_bt,2022.2.4,MacIntel,60.0024001,Chrome,1440,900,,,,,0,657,,,,,,,,,,,,,,,,,167,S,circle,-1,0,,,,,,,,,,,,,,,,switch,no_choice,NA,,,noRew,,,,,,0,6,0,6,0,1,,,,,,,,,,,,,,,,,
298291,2022-11-29_13h24.50.951,vts_reward_expectancy_bt,2022.2.4,MacIntel,60.0024001,Chrome,1440,900,,,,,0,657,,,,,,,,,,,,,,,,,160,H,star,1,0,,,,,,,,,,,,,,,,switch,number,numSwt,f,1.518,noRew,,,,,,0,7,0,7,0,1,,,,,,,,,,,,,,,,,
298291,2022-11-29_13h24.50.951,vts_reward_expectancy_bt,2022.2.4,MacIntel,60.0024001,Chrome,1440,900,,,,,0,657,,,,,,,,,,,,,,,,,146,F,circle,1,0,,,,,,,,,,,,,,,,repeat,number,numRpt,d,0.7861,noRew,,,,,,0,8,0,8,0,1,,,,,,,,,,,,,,,,,
298291,2022-11-29_13h24.50.951,vts_reward_expectancy_bt,2022.2.4,MacIntel,60.0024001,Chrome,1440,900,,,,,0,657,,,,,,,,,,,,,,,,,174,H,triangle,1,0,,,,,,,,,,,,,,,,switch,letter,lettSwt,j,1.0047,noRew,,,,,,0,9,0,9,0,1,,,,,,,,,,,,,,,,,
298291,2022-11-29_13h24.50.951,vts_reward_expectancy_bt,2022.2.4,MacIntel,60.0024001,Chrome,1440,900,,,,,0,657,,,,,,,,,,,,,,,,,160,B,triangle,1,0,,,,,,,,,,,,,,,,switch,number,numSwt,f,1.8857,noRew,,,,,,0,10,0,10,0,1,,,,,,,,,,,,,,,,,
298291,2022-11-29_13h24.50.951,vts_reward_expectancy_bt,2022.2.4,MacIntel,60.0024001,Chrome,1440,900,,,,,0,657,,,,,,,,,,,,,,,,,139,S,star,1,0,,,,,,,,,,,,,,,,switch,letter,lettSwt,k,0.5718,noRew,,,,,,0,11,0,11,0,1,,,,,,,,,,,,,,,,,
298291,2022-11-29_13h24.50.951,vts_reward_expectancy_bt,2022.2.4,MacIntel,60.0024001,Chrome,1440,900,,,,,0,657,,,,,,,,,,,,,,,,,181,U,circle,1,0,,,,,,,,,,,,,,,,repeat,letter,lettRpt,k,0.6681,noRew,,,,,,0,12,0,12,0,1,,,,,,,,,,,,,,,,,
298291,2022-11-29_13h24.50.951,vts_reward_expectancy_bt,2022.2.4,MacIntel,60.0024001,Chrome,1440,900,,,,,0,657,,,,,,,,,,,,,,,,,160,D,star,1,0,,,,,,,,,,,,,,,,repeat,letter,lettRpt,j,0.8837,noRew,,,,,,0,13,0,13,0,1,,,,,,,,,,,,,,,,,
298291,2022-11-29_13h24.50.951,vts_reward_expectancy_bt,2022.2.4,MacIntel,60.0024001,Chrome,1440,900,,,,,0,657,,,,,,,,,,,,,,,,,125,B,triangle,1,0,,,,,,,,,,,,,,,,switch,number,numSwt,d,1.1527,noRew,,,,,,0,14,0,14,0,1,,,,,,,,,,,,,,,,,
298291,2022-11-29_13h24.50.951,vts_reward_expectancy_bt,2022.2.4,MacIntel,60.0024001,Chrome,1440,900,,,,,0,657,,,,,,,,,,,,,,,,,174,Y,circle,1,0,,,,,,,,,,,,,,,,repeat,number,numRpt,f,1.5706,noRew,,,,,,0,15,0,15,0,1,,,,,,,,,,,,,,,,,
298291,2022-11-29_13h24.50.951,vts_reward_expectancy_bt,2022.2.4,MacIntel,60.0024001,Chrome,1440,900,,,,,0,657,,,,,,,,,,,,,,,,,174,H,star,1,0,,,,,,,,,,,,,,,,repeat,number,numRpt,f,0.7997,noRew,,,,,,0,16,0,16,0,1,,,,,,,,,,,,,,,,,
298291,2022-11-29_13h24.50.951,vts_reward_expectancy_bt,2022.2.4,MacIntel,60.0024001,Chrome,1440,900,,,,,0,657,,,,,,,,,,,,,,,,,146,D,circle,1,0,,,,,,,,,,,,,,,,repeat,number,numRpt,d,1.4685,noRew,,,,,,0,17,0,17,0,1,,,,,,,,,,,,,,,,,
298291,2022-11-29_13h24.50.951,vts_reward_expectancy_bt,2022.2.4,MacIntel,60.0024001,Chrome,1440,900,,,,,0,657,,,,,,,,,,,,,,,,,139,U,hexagon,1,0,,,,,,,,,,,,,,,,switch,letter,lettSwt,k,1.1391,noRew,,,,,,0,18,0,18,0,1,,,,,,,,,,,,,,,,,
298291,2022-11-29_13h24.50.951,vts_reward_expectancy_bt,2022.2.4,MacIntel,60.0024001,Chrome,1440,900,,,,,0,657,,,,,,,,,,,,,,,,,132,B,circle,1,0,,,,,,,,,,,,,,,,switch,number,numSwt,d,0.7859,noRew,,,,,,0,19,0,19,0,1,,,,,,,,,,,,,,,,,
298291,2022-11-29_13h24.50.951,vts_reward_expectancy_bt,2022.2.4,MacIntel,60.0024001,Chrome,1440,900,,,,,0,657,,,,,,,,,,,,,,,,,160,S,star,1,0,,,,,,,,,,,,,,,,switch,letter,lettSwt,k,0.9712,noRew,,,,,,0,20,0,20,0,1,,,,,,,,,,,,,,,,,
298291,2022-11-29_13h24.50.951,vts_reward_expectancy_bt,2022.2.4,MacIntel,60.0024001,Chrome,1440,900,,,,,0,657,,,,,,,,,,,,,,,,,125,H,triangle,1,0,,,,,,,,,,,,,,,,switch,number,numSwt,d,0.9145,noRew,,,,,,0,21,0,21,0,1,,,,,,,,,,,,,,,,,
298291,2022-11-29_13h24.50.951,vts_reward_expectancy_bt,2022.2.4,MacIntel,60.0024001,Chrome,1440,900,,,,,0,657,,,,,,,,,,,,,,,,,139,U,circle,1,0,,,,,,,,,,,,,,,,repeat,number,numRpt,d,1.1323,noRew,,,,,,0,22,0,22,0,1,,,,,,,,,,,,,,,,,
298291,2022-11-29_13h24.50.951,vts_reward_expectancy_bt,2022.2.4,MacIntel,60.0024001,Chrome,1440,900,,,,,0,657,,,,,,,,,,,,,,,,,174,W,hexagon,1,0,,,,,,,,,,,,,,,,repeat,number,numRpt,f,1.6522,noRew,,,,,,0,23,0,23,0,1,,,,,,,,,,,,,,,,,
298291,2022-11-29_13h24.50.951,vts_reward_expectancy_bt,2022.2.4,MacIntel,60.0024001,Chrome,1440,900,,,,,0,657,,,,,,,,,,,,,,,,,174,D,circle,-1,0,,,,,,,,,,,,,,,,switch,no_choice,NA,,,noRew,,,,,,0,24,0,24,0,1,,,,,,,,,,,,,,,,,
298291,2022-11-29_13h24.50.951,vts_reward_expectancy_bt,2022.2.4,MacIntel,60.0024001,Chrome,1440,900,,,,,0,657,,,,,,,,,,,,,,,,,132,B,hexagon,-1,0,,,,,,,,,,,,,,,,repeat,no_choice,NA,,,noRew,,,,,,0,25,0,25,0,1,,,,,,,,,,,,,,,,,
298291,2022-11-29_13h24.50.951,vts_reward_expectancy_bt,2022.2.4,MacIntel,60.0024001,Chrome,1440,900,,,,,0,657,,,,,,,,,,,,,,,,,167,F,circle,1,0,,,,,,,,,,,,,,,,switch,number,numSwt,f,1.5534,noRew,,,,,,0,26,0,26,0,1,,,,,,,,,,,,,,,,,
298291,2022-11-29_13h24.50.951,vts_reward_expectancy_bt,2022.2.4,MacIntel,60.0024001,Chrome,1440,900,,,,,0,657,,,,,,,,,,,,,,,,,160,W,triangle,1,0,,,,,,,,,,,,,,,,repeat,number,numRpt,f,1.119,noRew,,,,,,0,27,0,27,0,1,,,,,,,,,,,,,,,,,
298291,2022-11-29_13h24.50.951,vts_reward_expectancy_bt,2022.2.4,MacIntel,60.0024001,Chrome,1440,900,,,,,0,657,,,,,,,,,,,,,,,,,139,S,triangle,1,0,,,,,,,,,,,,,,,,repeat,number,numRpt,d,1.5022,noRew,,,,,,0,28,0,28,0,1,,,,,,,,,,,,,,,,,
298291,2022-11-29_13h24.50.951,vts_reward_expectancy_bt,2022.2.4,MacIntel,60.0024001,Chrome,1440,900,,,,,0,657,,,,,,,,,,,,,,,,,146,F,hexagon,0,0,,,,,,,,,,,,,,,,repeat,number,NA,f,0.8359,noRew,,,,,,0,29,0,29,0,1,,,,,,,,,,,,,,,,,
298291,2022-11-29_13h24.50.951,vts_reward_expectancy_bt,2022.2.4,MacIntel,60.0024001,Chrome,1440,900,,,,,0,657,,,,,,,,,,,,,,,,,125,H,circle,-1,1,,,,,,,,,,,,,,,,switch,no_choice,NA,,,noRew,,,,,,0,30,0,30,0,1,,,,,,,,,,,,,,,,,
298291,2022-11-29_13h24.50.951,vts_reward_expectancy_bt,2022.2.4,MacIntel,60.0024001,Chrome,1440,900,,,,,0,657,,,,,,,,,,,,,,,,,181,U,hexagon,1,0,,,,,,,,,,,,,,,,switch,number,numSwt,f,1.502,noRew,,,,,,0,31,0,31,0,1,,,,,,,,,,,,,,,,,
298291,2022-11-29_13h24.50.951,vts_reward_expectancy_bt,2022.2.4,MacIntel,60.0024001,Chrome,1440,900,,,,,0,657,,,,,,,,,,,,,,,,,132,W,star,1,0,,,,,,,,,,,,,,,,switch,letter,lettSwt,k,2.8068,noRew,,,,,,0,32,0,32,0,1,,,,,,,,,,,,,,,,,
298291,2022-11-29_13h24.50.951,vts_reward_expectancy_bt,2022.2.4,MacIntel,60.0024001,Chrome,1440,900,,,,,0,657,,,,,,,,,,,,,,,,,146,S,triangle,1,0,,,,,,,,,,,,,,,,repeat,letter,lettRpt,k,0.7356,noRew,,,,,,0,33,0,33,0,1,,,,,,,,,,,,,,,,,
298291,2022-11-29_13h24.50.951,vts_reward_expectancy_bt,2022.2.4,MacIntel,60.0024001,Chrome,1440,900,,,,,0,657,,,,,,,,,,,,,,,,,174,Y,star,1,0,,,,,,,,,,,,,,,,switch,number,numSwt,f,0.9863,noRew,,,,,,0,34,0,34,0,1,,,,,,,,,,,,,,,,,
298291,2022-11-29_13h24.50.951,vts_reward_expectancy_bt,2022.2.4,MacIntel,60.0024001,Chrome,1440,900,,,,,0,657,,,,,,,,,,,,,,,,,167,H,circle,1,0,,,,,,,,,,,,,,,,switch,letter,lettSwt,j,2.4722,noRew,,,,,,0,35,0,35,0,1,,,,,,,,,,,,,,,,,
298291,2022-11-29_13h24.50.951,vts_reward_expectancy_bt,2022.2.4,MacIntel,60.0024001,Chrome,1440,900,,,,,0,657,,,,,,,,,,,,,,,,,160,Y,triangle,1,0,,,,,,,,,,,,,,,,repeat,letter,lettRpt,k,0.8856,noRew,,,,,,0,36,0,36,0,1,,,,,,,,,,,,,,,,,
298291,2022-11-29_13h24.50.951,vts_reward_expectancy_bt,2022.2.4,MacIntel,60.0024001,Chrome,1440,900,,,,,0,657,,,,,,,,,,,,,,,,,139,F,hexagon,1,0,,,,,,,,,,,,,,,,repeat,letter,lettRpt,j,2.6197,noRew,,,,,,0,37,0,37,0,1,,,,,,,,,,,,,,,,,
298291,2022-11-29_13h24.50.951,vts_reward_expectancy_bt,2022.2.4,MacIntel,60.0024001,Chrome,1440,900,,,,,0,657,,,,,,,,,,,,,,,,,174,S,circle,0,0,,,,,,,,,,,,,,,,switch,number,NA,d,2.4869,noRew,,,,,,0,38,0,38,0,1,,,,,,,,,,,,,,,,,
298291,2022-11-29_13h24.50.951,vts_reward_expectancy_bt,2022.2.4,MacIntel,60.0024001,Chrome,1440,900,,,,,0,657,,,,,,,,,,,,,,,,,132,H,star,0,1,,,,,,,,,,,,,,,,repeat,number,NA,f,0.9033,noRew,,,,,,0,39,0,39,0,1,,,,,,,,,,,,,,,,,
298291,2022-11-29_13h24.50.951,vts_reward_expectancy_bt,2022.2.4,MacIntel,60.0024001,Chrome,1440,900,,,,,0,657,,,,,,,,,,,,,,,,,146,H,star,1,1,,,,,,,,,,,,,,,,switch,letter,lettSwt,j,1.2332,noRew,,,,,,0,40,0,40,0,1,,,,,,,,,,,,,,,,,
298291,2022-11-29_13h24.50.951,vts_reward_expectancy_bt,2022.2.4,MacIntel,60.0024001,Chrome,1440,900,,,,,0,657,,,,,,,,,,,,,,,,,160,B,circle,1,0,,,,,,,,,,,,,,,,repeat,letter,lettRpt,j,1.8198,noRew,,,,,,0,41,0,41,0,1,,,,,,,,,,,,,,,,,
298291,2022-11-29_13h24.50.951,vts_reward_expectancy_bt,2022.2.4,MacIntel,60.0024001,Chrome,1440,900,,,,,0,657,,,,,,,,,,,,,,,,,139,F,star,1,0,,,,,,,,,,,,,,,,switch,number,numSwt,d,1.987,noRew,,,,,,0,42,0,42,0,1,,,,,,,,,,,,,,,,,
298291,2022-11-29_13h24.50.951,vts_reward_expectancy_bt,2022.2.4,MacIntel,60.0024001,Chrome,1440,900,,,,,0,657,,,,,,,,,,,,,,,,,132,Y,hexagon,1,0,,,,,,,,,,,,,,,,repeat,number,numRpt,d,0.9012,noRew,,,,,,0,43,0,43,0,1,,,,,,,,,,,,,,,,,
298291,2022-11-29_13h24.50.951,vts_reward_expectancy_bt,2022.2.4,MacIntel,60.0024001,Chrome,1440,900,,,,,0,657,,,,,,,,,,,,,,,,,139,F,star,0,0,,,,,,,,,,,,,,,,switch,letter,NA,k,1.5948,noRew,,,,,,0,44,0,44,0,1,,,,,,,,,,,,,,,,,
298291,2022-11-29_13h24.50.951,vts_reward_expectancy_bt,2022.2.4,MacIntel,60.0024001,Chrome,1440,900,,,,,0,657,,,,,,,,,,,,,,,,,125,H,circle,0,1,,,,,,,,,,,,,,,,switch,number,NA,f,1.9545,noRew,,,,,,0,45,0,45,0,1,,,,,,,,,,,,,,,,,
298291,2022-11-29_13h24.50.951,vts_reward_expectancy_bt,2022.2.4,MacIntel,60.0024001,Chrome,1440,900,,,,,0,657,,,,,,,,,,,,,,,,,146,W,circle,-1,1,,,,,,,,,,,,,,,,switch,no_choice,NA,,,noRew,,,,,,0,46,0,46,0,1,,,,,,,,,,,,,,,,,
298291,2022-11-29_13h24.50.951,vts_reward_expectancy_bt,2022.2.4,MacIntel,60.0024001,Chrome,1440,900,,,,,0,657,,,,,,,,,,,,,,,,,167,B,hexagon,1,0,,,,,,,,,,,,,,,,switch,letter,lettSwt,j,1.3153,noRew,,,,,,0,47,0,47,0,1,,,,,,,,,,,,,,,,,
298291,2022-11-29_13h24.50.951,vts_reward_expectancy_bt,2022.2.4,MacIntel,60.0024001,Chrome,1440,900,,,,,0,657,,,,,,,,,,,,,,,,,132,B,hexagon,1,0,,,,,,,,,,,,,,,,repeat,letter,lettRpt,j,1.9493,noRew,,,,,,0,48,0,48,0,1,,,,,,,,,,,,,,,,,
298291,2022-11-29_13h24.50.951,vts_reward_expectancy_bt,2022.2.4,MacIntel,60.0024001,Chrome,1440,900,,,,,0,657,,,,,,,,,,,,,,,,,125,W,star,1,0,,,,,,,,,,,,,,,,repeat,letter,lettRpt,k,1.0168,noRew,,,,,,0,49,0,49,0,1,,,,,,,,,,,,,,,,,
298291,2022-11-29_13h24.50.951,vts_reward_expectancy_bt,2022.2.4,MacIntel,60.0024001,Chrome,1440,900,,,,,0,657,,,,,,,,,,,,,,,,,167,U,triangle,1,0,,,,,,,,,,,,,,,,switch,number,numSwt,f,1.2172,noRew,,,,,,0,50,0,50,0,1,,,,,,,,,,,,,,,,,
298291,2022-11-29_13h24.50.951,vts_reward_expectancy_bt,2022.2.4,MacIntel,60.0024001,Chrome,1440,900,,,,,0,657,,,,,,,,,,,,,,,,,139,S,star,1,0,,,,,,,,,,,,,,,,switch,letter,lettSwt,k,1.7035,noRew,,,,,,0,51,0,51,0,1,,,,,,,,,,,,,,,,,
298291,2022-11-29_13h24.50.951,vts_reward_expectancy_bt,2022.2.4,MacIntel,60.0024001,Chrome,1440,900,,,,,0,657,,,,,,,,,,,,,,,,,146,U,circle,1,0,,,,,,,,,,,,,,,,repeat,letter,lettRpt,k,2.3352,noRew,,,,,,0,52,0,52,0,1,,,,,,,,,,,,,,,,,
298291,2022-11-29_13h24.50.951,vts_reward_expectancy_bt,2022.2.4,MacIntel,60.0024001,Chrome,1440,900,,,,,0,657,,,,,,,,,,,,,,,,,125,W,hexagon,1,0,,,,,,,,,,,,,,,,repeat,letter,lettRpt,k,0.9144,noRew,,,,,,0,53,0,53,0,1,,,,,,,,,,,,,,,,,
298291,2022-11-29_13h24.50.951,vts_reward_expectancy_bt,2022.2.4,MacIntel,60.0024001,Chrome,1440,900,,,,,0,657,,,,,,,,,,,,,,,,,181,Y,star,1,0,,,,,,,,,,,,,,,,switch,number,numSwt,f,1.383,noRew,,,,,,0,54,0,54,0,1,,,,,,,,,,,,,,,,,
298291,2022-11-29_13h24.50.951,vts_reward_expectancy_bt,2022.2.4,MacIntel,60.0024001,Chrome,1440,900,,,,,0,657,,,,,,,,,,,,,,,,,167,S,circle,1,0,,,,,,,,,,,,,,,,switch,letter,lettSwt,k,1.47,noRew,,,,,,0,55,0,55,0,1,,,,,,,,,,,,,,,,,
298291,2022-11-29_13h24.50.951,vts_reward_expectancy_bt,2022.2.4,MacIntel,60.0024001,Chrome,1440,900,,,,,0,657,,,,,,,,,,,,,,,,,139,W,triangle,1,0,,,,,,,,,,,,,,,,repeat,letter,lettRpt,k,0.7339,noRew,,,,,,0,56,0,56,0,1,,,,,,,,,,,,,,,,,
298291,2022-11-29_13h24.50.951,vts_reward_expectancy_bt,2022.2.4,MacIntel,60.0024001,Chrome,1440,900,,,,,0,657,,,,,,,,,,,,,,,,,181,F,hexagon,0,0,,,,,,,,,,,,,,,,repeat,letter,NA,k,0.7347,noRew,,,,,,0,57,0,57,0,1,,,,,,,,,,,,,,,,,
298291,2022-11-29_13h24.50.951,vts_reward_expectancy_bt,2022.2.4,MacIntel,60.0024001,Chrome,1440,900,,,,,0,657,,,,,,,,,,,,,,,,,174,H,hexagon,1,1,,,,,,,,,,,,,,,,switch,number,numSwt,f,0.6182,noRew,,,,,,0,58,0,58,0,1,,,,,,,,,,,,,,,,,
298291,2022-11-29_13h24.50.951,vts_reward_expectancy_bt,2022.2.4,MacIntel,60.0024001,Chrome,1440,900,,,,,0,657,,,,,,,,,,,,,,,,,132,U,triangle,1,0,,,,,,,,,,,,,,,,repeat,number,numRpt,d,1.8325,noRew,,,,,,0,59,0,59,0,1,,,,,,,,,,,,,,,,,
298291,2022-11-29_13h24.50.951,vts_reward_expectancy_bt,2022.2.4,MacIntel,60.0024001,Chrome,1440,900,,,,,0,657,,,,,,,,,,,,,,,,,160,U,triangle,1,0,,,,,,,,,,,,,,,,repeat,number,numRpt,f,1.6514,noRew,,,,,,0,60,0,60,0,1,,,,,,,,,,,,,,,,,
298291,2022-11-29_13h24.50.951,vts_reward_expectancy_bt,2022.2.4,MacIntel,60.0024001,Chrome,1440,900,,,,,0,657,,,,,,,,,,,,,,,,,125,F,circle,1,0,,,,,,,,,,,,,,,,repeat,number,numRpt,d,1.4839,noRew,,,,,,0,61,0,61,0,1,,,,,,,,,,,,,,,,,
298291,2022-11-29_13h24.50.951,vts_reward_expectancy_bt,2022.2.4,MacIntel,60.0024001,Chrome,1440,900,,,,,0,657,,,,,,,,,,,,,,,,,132,S,star,1,0,,,,,,,,,,,,,,,,repeat,number,numRpt,d,0.6985,noRew,,,,,,0,62,0,62,0,1,,,,,,,,,,,,,,,,,
298291,2022-11-29_13h24.50.951,vts_reward_expectancy_bt,2022.2.4,MacIntel,60.0024001,Chrome,1440,900,,,,,0,657,,,,,,,,,,,,,,,,,146,B,hexagon,1,0,,,,,,,,,,,,,,,,repeat,number,numRpt,d,2.3156,noRew,,,,,,0,63,0,63,0,1,,,,,,,,,,,,,,,,,
298291,2022-11-29_13h24.50.951,vts_reward_expectancy_bt,2022.2.4,MacIntel,60.0024001,Chrome,1440,900,,,,,,,,,,,,,,,,,,,,,,,,,,,,,,,,,,,,,,,,,,,,,,,,,,,,,,,,,,,,,,,,,,,,,,,,,,,,
298291,2022-11-29_13h24.50.951,vts_reward_expectancy_bt,2022.2.4,MacIntel,60.0024001,Chrome,1440,900,,,,,0,657,,,,,,,,,,,,,,,,,146,U,star,1,0,,,,,,,,,,,,,,,,repeat,number,numRpt,d,1.8041,Hi,,,,,,0,,,,,,space,7.5662,high,0,0,0,0,1,,,,,,,,,
298291,2022-11-29_13h24.50.951,vts_reward_expectancy_bt,2022.2.4,MacIntel,60.0024001,Chrome,1440,900,,,,,1,658,,,,,,,,,,,,,,,,,160,F,circle,1,0,,,,,,,,,,,,,,,,repeat,number,numRpt,f,0.7329,Lo,,,,,,0,,,,,,,,high,1,0,1,0,1,,,,,,,,,
298291,2022-11-29_13h24.50.951,vts_reward_expectancy_bt,2022.2.4,MacIntel,60.0024001,Chrome,1440,900,,,,,0,658,,,,,,,,,,,,,,,,,132,B,hexagon,0,0,,,,,,,,,,,,,,,,repeat,number,NA,f,0.8354,Lo,,,,,,0,,,,,,,,high,2,0,2,0,1,,,,,,,,,
298291,2022-11-29_13h24.50.951,vts_reward_expectancy_bt,2022.2.4,MacIntel,60.0024001,Chrome,1440,900,,,,,10,668,,,,,,,,,,,,,,,,,174,D,triangle,1,1,,,,,,,,,,,,,,,,switch,letter,lettSwt,j,0.7165,Hi,,,,,,0,,,,,,,,high,3,0,3,0,1,,,,,,,,,
298291,2022-11-29_13h24.50.951,vts_reward_expectancy_bt,2022.2.4,MacIntel,60.0024001,Chrome,1440,900,,,,,10,678,,,,,,,,,,,,,,,,,181,H,star,1,0,,,,,,,,,,,,,,,,repeat,letter,lettRpt,j,0.7198,Hi,,,,,,0,,,,,,,,high,4,0,4,0,1,,,,,,,,,
298291,2022-11-29_13h24.50.951,vts_reward_expectancy_bt,2022.2.4,MacIntel,60.0024001,Chrome,1440,900,,,,,1,679,,,,,,,,,,,,,,,,,139,S,circle,1,0,,,,,,,,,,,,,,,,repeat,letter,lettRpt,k,0.6512,Lo,,,,,,0,,,,,,,,high,5,0,5,0,1,,,,,,,,,
298291,2022-11-29_13h24.50.951,vts_reward_expectancy_bt,2022.2.4,MacIntel,60.0024001,Chrome,1440,900,,,,,1,680,,,,,,,,,,,,,,,,,125,Y,hexagon,1,0,,,,,,,,,,,,,,,,repeat,letter,lettRpt,k,0.7495,Lo,,,,,,0,,,,,,,,high,6,0,6,0,1,,,,,,,,,
298291,2022-11-29_13h24.50.951,vts_reward_expectancy_bt,2022.2.4,MacIntel,60.0024001,Chrome,1440,900,,,,,10,690,,,,,,,,,,,,,,,,,167,W,triangle,1,0,,,,,,,,,,,,,,,,repeat,letter,lettRpt,k,0.6858,Hi,,,,,,0,,,,,,,,high,7,0,7,0,1,,,,,,,,,
298291,2022-11-29_13h24.50.951,vts_reward_expectancy_bt,2022.2.4,MacIntel,60.0024001,Chrome,1440,900,,,,,10,700,,,,,,,,,,,,,,,,,146,U,star,1,0,,,,,,,,,,,,,,,,repeat,letter,lettRpt,k,0.6006,Hi,,,,,,0,,,,,,,,high,8,0,8,0,1,,,,,,,,,
298291,2022-11-29_13h24.50.951,vts_reward_expectancy_bt,2022.2.4,MacIntel,60.0024001,Chrome,1440,900,,,,,0,700,,,,,,,,,,,,,,,,,160,F,circle,0,0,,,,,,,,,,,,,,,,repeat,letter,NA,k,0.7865,Hi,,,,,,0,,,,,,,,high,9,0,9,0,1,,,,,,,,,
298291,2022-11-29_13h24.50.951,vts_reward_expectancy_bt,2022.2.4,MacIntel,60.0024001,Chrome,1440,900,,,,,1,701,,,,,,,,,,,,,,,,,132,B,hexagon,1,1,,,,,,,,,,,,,,,,switch,number,numSwt,d,0.756,Lo,,,,,,0,,,,,,,,high,10,0,10,0,1,,,,,,,,,
298291,2022-11-29_13h24.50.951,vts_reward_expectancy_bt,2022.2.4,MacIntel,60.0024001,Chrome,1440,900,,,,,10,711,,,,,,,,,,,,,,,,,174,D,triangle,1,0,,,,,,,,,,,,,,,,repeat,number,numRpt,f,0.7324,Hi,,,,,,0,,,,,,,,high,11,0,11,0,1,,,,,,,,,
298291,2022-11-29_13h24.50.951,vts_reward_expectancy_bt,2022.2.4,MacIntel,60.0024001,Chrome,1440,900,,,,,10,721,,,,,,,,,,,,,,,,,181,H,circle,1,0,,,,,,,,,,,,,,,,repeat,number,numRpt,f,0.5852,Lo,,,,,,0,,,,,,,,high,12,0,12,0,1,,,,,,,,,
298291,2022-11-29_13h24.50.951,vts_reward_expectancy_bt,2022.2.4,MacIntel,60.0024001,Chrome,1440,900,,,,,1,722,,,,,,,,,,,,,,,,,139,S,hexagon,1,0,,,,,,,,,,,,,,,,repeat,number,numRpt,d,0.9355,Lo,,,,,,0,,,,,,,,high,13,0,13,0,1,,,,,,,,,
298291,2022-11-29_13h24.50.951,vts_reward_expectancy_bt,2022.2.4,MacIntel,60.0024001,Chrome,1440,900,,,,,1,723,,,,,,,,,,,,,,,,,125,Y,star,1,0,,,,,,,,,,,,,,,,switch,letter,lettSwt,k,0.7492,Hi,,,,,,0,,,,,,,,high,14,0,14,0,1,,,,,,,,,
298291,2022-11-29_13h24.50.951,vts_reward_expectancy_bt,2022.2.4,MacIntel,60.0024001,Chrome,1440,900,,,,,1,724,,,,,,,,,,,,,,,,,167,W,triangle,1,0,,,,,,,,,,,,,,,,repeat,letter,lettRpt,k,0.7227,Hi,,,,,,0,,,,,,,,high,15,0,15,0,1,,,,,,,,,
298291,2022-11-29_13h24.50.951,vts_reward_expectancy_bt,2022.2.4,MacIntel,60.0024001,Chrome,1440,900,,,,,10,734,,,,,,,,,,,,,,,,,125,Y,triangle,1,0,,,,,,,,,,,,,,,,repeat,letter,lettRpt,k,0.6017,Hi,,,,,,0,,,,,,,,high,16,0,16,0,1,,,,,,,,,
298291,2022-11-29_13h24.50.951,vts_reward_expectancy_bt,2022.2.4,MacIntel,60.0024001,Chrome,1440,900,,,,,0,734,,,,,,,,,,,,,,,,,146,H,circle,0,0,,,,,,,,,,,,,,,,repeat,letter,NA,k,0.6316,Hi,,,,,,0,,,,,,,,high,17,0,17,0,1,,,,,,,,,
298291,2022-11-29_13h24.50.951,vts_reward_expectancy_bt,2022.2.4,MacIntel,60.0024001,Chrome,1440,900,,,,,0,734,,,,,,,,,,,,,,,,,160,D,star,0,1,,,,,,,,,,,,,,,,switch,number,NA,d,1.6527,Hi,,,,,,0,,,,,,,,high,18,0,18,0,1,,,,,,,,,
298291,2022-11-29_13h24.50.951,vts_reward_expectancy_bt,2022.2.4,MacIntel,60.0024001,Chrome,1440,900,,,,,1,735,,,,,,,,,,,,,,,,,181,F,hexagon,1,1,,,,,,,,,,,,,,,,repeat,number,numRpt,f,1.1529,Lo,,,,,,0,,,,,,,,high,19,0,19,0,1,,,,,,,,,
298291,2022-11-29_13h24.50.951,vts_reward_expectancy_bt,2022.2.4,MacIntel,60.0024001,Chrome,1440,900,,,,,10,745,,,,,,,,,,,,,,,,,174,U,triangle,1,0,,,,,,,,,,,,,,,,repeat,number,numRpt,f,0.7872,Hi,,,,,,0,,,,,,,,high,20,0,20,0,1,,,,,,,,,
298291,2022-11-29_13h24.50.951,vts_reward_expectancy_bt,2022.2.4,MacIntel,60.0024001,Chrome,1440,900,,,,,1,746,,,,,,,,,,,,,,,,,139,W,star,1,0,,,,,,,,,,,,,,,,repeat,number,numRpt,d,0.9878,Hi,,,,,,0,,,,,,,,high,21,0,21,0,1,,,,,,,,,
298291,2022-11-29_13h24.50.951,vts_reward_expectancy_bt,2022.2.4,MacIntel,60.0024001,Chrome,1440,900,,,,,0,746,,,,,,,,,,,,,,,,,132,B,circle,-1,0,,,,,,,,,,,,,,,,switch,no_choice,NA,,,Hi,,,,,,0,,,,,,,,high,22,0,22,0,1,,,,,,,,,
298291,2022-11-29_13h24.50.951,vts_reward_expectancy_bt,2022.2.4,MacIntel,60.0024001,Chrome,1440,900,,,,,0,746,,,,,,,,,,,,,,,,,167,S,hexagon,-1,0,,,,,,,,,,,,,,,,repeat,no_choice,NA,,,Hi,,,,,,0,,,,,,,,high,23,0,23,0,1,,,,,,,,,
298291,2022-11-29_13h24.50.951,vts_reward_expectancy_bt,2022.2.4,MacIntel,60.0024001,Chrome,1440,900,,,,,1,747,,,,,,,,,,,,,,,,,139,F,circle,1,0,,,,,,,,,,,,,,,,switch,letter,lettSwt,j,0.734,Lo,,,,,,0,,,,,,,,high,24,0,24,0,1,,,,,,,,,
298291,2022-11-29_13h24.50.951,vts_reward_expectancy_bt,2022.2.4,MacIntel,60.0024001,Chrome,1440,900,,,,,1,748,,,,,,,,,,,,,,,,,146,B,hexagon,1,0,,,,,,,,,,,,,,,,repeat,letter,lettRpt,j,1.4352,Lo,,,,,,0,,,,,,,,high,25,0,25,0,1,,,,,,,,,
298291,2022-11-29_13h24.50.951,vts_reward_expectancy_bt,2022.2.4,MacIntel,60.0024001,Chrome,1440,900,,,,,0,748,,,,,,,,,,,,,,,,,132,S,triangle,1,0,,,,,,,,,,,,,,,,repeat,letter,lettRpt,k,0.9169,Hi,,,,,,0,,,,,,,,high,26,0,26,0,1,,,,,,,,,
298291,2022-11-29_13h24.50.951,vts_reward_expectancy_bt,2022.2.4,MacIntel,60.0024001,Chrome,1440,900,,,,,10,758,,,,,,,,,,,,,,,,,125,H,star,1,0,,,,,,,,,,,,,,,,repeat,letter,lettRpt,j,0.7011,Hi,,,,,,0,,,,,,,,high,27,0,27,0,1,,,,,,,,,
298291,2022-11-29_13h24.50.951,vts_reward_expectancy_bt,2022.2.4,MacIntel,60.0024001,Chrome,1440,900,,,,,0,758,,,,,,,,,,,,,,,,,174,U,triangle,1,0,,,,,,,,,,,,,,,,repeat,letter,lettRpt,k,1.5706,Hi,,,,,,0,,,,,,,,high,28,0,28,0,1,,,,,,,,,
298291,2022-11-29_13h24.50.951,vts_reward_expectancy_bt,2022.2.4,MacIntel,60.0024001,Chrome,1440,900,,,,,1,759,,,,,,,,,,,,,,,,,160,W,circle,1,0,,,,,,,,,,,,,,,,repeat,letter,lettRpt,k,1.0046,Lo,,,,,,0,,,,,,,,high,29,0,29,0,1,,,,,,,,,
298291,2022-11-29_13h24.50.951,vts_reward_expectancy_bt,2022.2.4,MacIntel,60.0024001,Chrome,1440,900,,,,,1,760,,,,,,,,,,,,,,,,,167,Y,star,1,0,,,,,,,,,,,,,,,,repeat,letter,lettRpt,k,0.6547,Hi,,,,,,0,,,,,,,,high,30,0,30,0,1,,,,,,,,,
298291,2022-11-29_13h24.50.951,vts_reward_expectancy_bt,2022.2.4,MacIntel,60.0024001,Chrome,1440,900,,,,,1,761,,,,,,,,,,,,,,,,,181,D,hexagon,1,0,,,,,,,,,,,,,,,,repeat,letter,lettRpt,j,0.7198,Lo,,,,,,0,,,,,,,,high,31,0,31,0,1,,,,,,,,,
298291,2022-11-29_13h24.50.951,vts_reward_expectancy_bt,2022.2.4,MacIntel,60.0024001,Chrome,1440,900,,,,,0,761,,,,,,,,,,,,,,,,,125,S,triangle,1,0,,,,,,,,,,,,,,,,switch,number,numSwt,d,1.6194,Hi,,,,,,1,,,,,,space,1.3898,high,0,0,0,0,1,,,,,,,,,
298291,2022-11-29_13h24.50.951,vts_reward_expectancy_bt,2022.2.4,MacIntel,60.0024001,Chrome,1440,900,,,,,10,771,,,,,,,,,,,,,,,,,146,U,hexagon,1,0,,,,,,,,,,,,,,,,switch,letter,lettSwt,k,2.8981,Lo,,,,,,1,,,,,,,,high,1,0,1,0,1,,,,,,,,,
298291,2022-11-29_13h24.50.951,vts_reward_expectancy_bt,2022.2.4,MacIntel,60.0024001,Chrome,1440,900,,,,,1,772,,,,,,,,,,,,,,,,,132,Y,circle,1,0,,,,,,,,,,,,,,,,repeat,letter,lettRpt,k,0.9678,Lo,,,,,,1,,,,,,,,high,2,0,2,0,1,,,,,,,,,
298291,2022-11-29_13h24.50.951,vts_reward_expectancy_bt,2022.2.4,MacIntel,60.0024001,Chrome,1440,900,,,,,0,772,,,,,,,,,,,,,,,,,139,W,star,1,0,,,,,,,,,,,,,,,,repeat,letter,lettRpt,k,1.0018,Hi,,,,,,1,,,,,,,,high,3,0,3,0,1,,,,,,,,,
298291,2022-11-29_13h24.50.951,vts_reward_expectancy_bt,2022.2.4,MacIntel,60.0024001,Chrome,1440,900,,,,,0,772,,,,,,,,,,,,,,,,,174,B,triangle,1,0,,,,,,,,,,,,,,,,switch,number,numSwt,f,1.5455,Hi,,,,,,1,,,,,,,,high,4,0,4,0,1,,,,,,,,,
298291,2022-11-29_13h24.50.951,vts_reward_expectancy_bt,2022.2.4,MacIntel,60.0024001,Chrome,1440,900,,,,,1,773,,,,,,,,,,,,,,,,,167,H,hexagon,1,0,,,,,,,,,,,,,,,,switch,letter,lettSwt,j,1.635,Lo,,,,,,1,,,,,,,,high,5,0,5,0,1,,,,,,,,,
298291,2022-11-29_13h24.50.951,vts_reward_expectancy_bt,2022.2.4,MacIntel,60.0024001,Chrome,1440,900,,,,,10,783,,,,,,,,,,,,,,,,,181,D,circle,1,0,,,,,,,,,,,,,,,,repeat,letter,lettRpt,j,1.8136,Lo,,,,,,1,,,,,,,,high,6,0,6,0,1,,,,,,,,,
298291,2022-11-29_13h24.50.951,vts_reward_expectancy_bt,2022.2.4,MacIntel,60.0024001,Chrome,1440,900,,,,,0,783,,,,,,,,,,,,,,,,,160,F,star,0,0,,,,,,,,,,,,,,,,switch,number,NA,d,1.8325,Lo,,,,,,1,,,,,,,,high,7,0,7,0,1,,,,,,,,,
298291,2022-11-29_13h24.50.951,vts_reward_expectancy_bt,2022.2.4,MacIntel,60.0024001,Chrome,1440,900,,,,,0,783,,,,,,,,,,,,,,,,,125,S,star,1,1,,,,,,,,,,,,,,,,repeat,number,numRpt,d,1.1469,Hi,,,,,,1,,,,,,,,high,8,0,8,0,1,,,,,,,,,
298291,2022-11-29_13h24.50.951,vts_reward_expectancy_bt,2022.2.4,MacIntel,60.0024001,Chrome,1440,900,,,,,0,783,,,,,,,,,,,,,,,,,146,U,triangle,1,0,,,,,,,,,,,,,,,,switch,letter,lettSwt,k,1.2146,Hi,,,,,,1,,,,,,,,high,9,0,9,0,1,,,,,,,,,
298291,2022-11-29_13h24.50.951,vts_reward_expectancy_bt,2022.2.4,MacIntel,60.0024001,Chrome,1440,900,,,,,1,784,,,,,,,,,,,,,,,,,132,Y,circle,1,0,,,,,,,,,,,,,,,,switch,number,numSwt,d,1.0312,Lo,,,,,,1,,,,,,,,high,10,0,10,0,1,,,,,,,,,
298291,2022-11-29_13h24.50.951,vts_reward_expectancy_bt,2022.2.4,MacIntel,60.0024001,Chrome,1440,900,,,,,1,785,,,,,,,,,,,,,,,,,139,W,hexagon,1,0,,,,,,,,,,,,,,,,switch,letter,lettSwt,k,0.6628,Lo,,,,,,1,,,,,,,,high,11,0,11,0,1,,,,,,,,,
298291,2022-11-29_13h24.50.951,vts_reward_expectancy_bt,2022.2.4,MacIntel,60.0024001,Chrome,1440,900,,,,,1,786,,,,,,,,,,,,,,,,,174,B,circle,1,0,,,,,,,,,,,,,,,,repeat,letter,lettRpt,j,0.7296,Lo,,,,,,1,,,,,,,,high,12,0,12,0,1,,,,,,,,,
298291,2022-11-29_13h24.50.951,vts_reward_expectancy_bt,2022.2.4,MacIntel,60.0024001,Chrome,1440,900,,,,,0,786,,,,,,,,,,,,,,,,,167,H,triangle,-1,0,,,,,,,,,,,,,,,,switch,no_choice,NA,,,Lo,,,,,,1,,,,,,,,high,13,0,13,0,1,,,,,,,,,
298291,2022-11-29_13h24.50.951,vts_reward_expectancy_bt,2022.2.4,MacIntel,60.0024001,Chrome,1440,900,,,,,0,786,,,,,,,,,,,,,,,,,181,D,hexagon,0,0,,,,,,,,,,,,,,,,switch,letter,NA,k,1.7337,Lo,,,,,,1,,,,,,,,high,14,0,14,0,1,,,,,,,,,
298291,2022-11-29_13h24.50.951,vts_reward_expectancy_bt,2022.2.4,MacIntel,60.0024001,Chrome,1440,900,,,,,0,786,,,,,,,,,,,,,,,,,160,F,star,1,1,,,,,,,,,,,,,,,,repeat,letter,lettRpt,j,2.0895,Hi,,,,,,1,,,,,,,,high,15,0,15,0,1,,,,,,,,,
298291,2022-11-29_13h24.50.951,vts_reward_expectancy_bt,2022.2.4,MacIntel,60.0024001,Chrome,1440,900,,,,,0,786,,,,,,,,,,,,,,,,,146,U,star,1,0,,,,,,,,,,,,,,,,repeat,letter,lettRpt,k,1.2002,Hi,,,,,,1,,,,,,,,high,16,0,16,0,1,,,,,,,,,
298291,2022-11-29_13h24.50.951,vts_reward_expectancy_bt,2022.2.4,MacIntel,60.0024001,Chrome,1440,900,,,,,1,787,,,,,,,,,,,,,,,,,167,B,hexagon,1,0,,,,,,,,,,,,,,,,repeat,letter,lettRpt,j,0.9506,Lo,,,,,,1,,,,,,,,high,17,0,17,0,1,,,,,,,,,
298291,2022-11-29_13h24.50.951,vts_reward_expectancy_bt,2022.2.4,MacIntel,60.0024001,Chrome,1440,900,,,,,1,788,,,,,,,,,,,,,,,,,125,Y,circle,1,0,,,,,,,,,,,,,,,,repeat,letter,lettRpt,k,1.7615,Lo,,,,,,1,,,,,,,,high,18,0,18,0,1,,,,,,,,,
298291,2022-11-29_13h24.50.951,vts_reward_expectancy_bt,2022.2.4,MacIntel,60.0024001,Chrome,1440,900,,,,,0,788,,,,,,,,,,,,,,,,,139,H,triangle,1,0,,,,,,,,,,,,,,,,repeat,letter,lettRpt,j,0.9479,Hi,,,,,,1,,,,,,,,high,19,0,19,0,1,,,,,,,,,
298291,2022-11-29_13h24.50.951,vts_reward_expectancy_bt,2022.2.4,MacIntel,60.0024001,Chrome,1440,900,,,,,1,789,,,,,,,,,,,,,,,,,181,W,circle,1,0,,,,,,,,,,,,,,,,repeat,letter,lettRpt,k,1.5516,Lo,,,,,,1,,,,,,,,high,20,0,20,0,1,,,,,,,,,
298291,2022-11-29_13h24.50.951,vts_reward_expectancy_bt,2022.2.4,MacIntel,60.0024001,Chrome,1440,900,,,,,0,789,,,,,,,,,,,,,,,,,132,F,hexagon,0,0,,,,,,,,,,,,,,,,repeat,letter,NA,k,0.9121,Lo,,,,,,1,,,,,,,,high,21,0,21,0,1,,,,,,,,,
298291,2022-11-29_13h24.50.951,vts_reward_expectancy_bt,2022.2.4,MacIntel,60.0024001,Chrome,1440,900,,,,,0,789,,,,,,,,,,,,,,,,,174,S,triangle,1,1,,,,,,,,,,,,,,,,repeat,letter,lettRpt,k,1.8,Hi,,,,,,1,,,,,,,,high,22,0,22,0,1,,,,,,,,,
298291,2022-11-29_13h24.50.951,vts_reward_expectancy_bt,2022.2.4,MacIntel,60.0024001,Chrome,1440,900,,,,,0,789,,,,,,,,,,,,,,,,,160,D,star,1,0,,,,,,,,,,,,,,,,repeat,letter,lettRpt,j,2.347,Hi,,,,,,1,,,,,,,,high,23,0,23,0,1,,,,,,,,,
298291,2022-11-29_13h24.50.951,vts_reward_expectancy_bt,2022.2.4,MacIntel,60.0024001,Chrome,1440,900,,,,,0,789,,,,,,,,,,,,,,,,,146,B,star,1,0,,,,,,,,,,,,,,,,repeat,letter,lettRpt,j,0.9958,Hi,,,,,,1,,,,,,,,high,24,0,24,0,1,,,,,,,,,
298291,2022-11-29_13h24.50.951,vts_reward_expectancy_bt,2022.2.4,MacIntel,60.0024001,Chrome,1440,900,,,,,0,789,,,,,,,,,,,,,,,,,139,D,triangle,1,0,,,,,,,,,,,,,,,,repeat,letter,lettRpt,j,1.1971,Hi,,,,,,1,,,,,,,,high,25,0,25,0,1,,,,,,,,,
298291,2022-11-29_13h24.50.951,vts_reward_expectancy_bt,2022.2.4,MacIntel,60.0024001,Chrome,1440,900,,,,,1,790,,,,,,,,,,,,,,,,,132,U,circle,1,0,,,,,,,,,,,,,,,,repeat,letter,lettRpt,k,0.6486,Lo,,,,,,1,,,,,,,,high,26,0,26,0,1,,,,,,,,,
298291,2022-11-29_13h24.50.951,vts_reward_expectancy_bt,2022.2.4,MacIntel,60.0024001,Chrome,1440,900,,,,,1,791,,,,,,,,,,,,,,,,,167,H,hexagon,1,0,,,,,,,,,,,,,,,,switch,number,numSwt,f,1.4144,Lo,,,,,,1,,,,,,,,high,27,0,27,0,1,,,,,,,,,
298291,2022-11-29_13h24.50.951,vts_reward_expectancy_bt,2022.2.4,MacIntel,60.0024001,Chrome,1440,900,,,,,1,792,,,,,,,,,,,,,,,,,174,Y,hexagon,1,0,,,,,,,,,,,,,,,,repeat,number,numRpt,f,1.3855,Lo,,,,,,1,,,,,,,,high,28,0,28,0,1,,,,,,,,,
298291,2022-11-29_13h24.50.951,vts_reward_expectancy_bt,2022.2.4,MacIntel,60.0024001,Chrome,1440,900,,,,,0,792,,,,,,,,,,,,,,,,,125,W,triangle,1,0,,,,,,,,,,,,,,,,repeat,number,numRpt,d,1.7313,Hi,,,,,,1,,,,,,,,high,29,0,29,0,1,,,,,,,,,
298291,2022-11-29_13h24.50.951,vts_reward_expectancy_bt,2022.2.4,MacIntel,60.0024001,Chrome,1440,900,,,,,1,793,,,,,,,,,,,,,,,,,181,S,circle,1,0,,,,,,,,,,,,,,,,repeat,number,numRpt,f,1.2137,Lo,,,,,,1,,,,,,,,high,30,0,30,0,1,,,,,,,,,
298291,2022-11-29_13h24.50.951,vts_reward_expectancy_bt,2022.2.4,MacIntel,60.0024001,Chrome,1440,900,,,,,0,793,,,,,,,,,,,,,,,,,160,F,star,1,0,,,,,,,,,,,,,,,,repeat,number,numRpt,f,0.9975,Hi,,,,,,1,,,,,,,,high,31,0,31,0,1,,,,,,,,,
298291,2022-11-29_13h24.50.951,vts_reward_expectancy_bt,2022.2.4,MacIntel,60.0024001,Chrome,1440,900,,,,,0,793,,,,,,,,,,,,,,,,,160,W,star,0,0,,,,,,,,,,,,,,,,switch,letter,NA,j,0.4007,Hi,,,,,,2,,,,,,space,4.7354,high,0,0,0,0,1,,,,,,,,,
298291,2022-11-29_13h24.50.951,vts_reward_expectancy_bt,2022.2.4,MacIntel,60.0024001,Chrome,1440,900,,,,,1,794,,,,,,,,,,,,,,,,,181,B,hexagon,1,1,,,,,,,,,,,,,,,,repeat,letter,lettRpt,j,0.4658,Lo,,,,,,2,,,,,,,,high,1,0,1,0,1,,,,,,,,,
298291,2022-11-29_13h24.50.951,vts_reward_expectancy_bt,2022.2.4,MacIntel,60.0024001,Chrome,1440,900,,,,,1,795,,,,,,,,,,,,,,,,,139,S,circle,1,0,,,,,,,,,,,,,,,,repeat,letter,lettRpt,k,0.7507,Lo,,,,,,2,,,,,,,,high,2,0,2,0,1,,,,,,,,,
298291,2022-11-29_13h24.50.951,vts_reward_expectancy_bt,2022.2.4,MacIntel,60.0024001,Chrome,1440,900,,,,,10,805,,,,,,,,,,,,,,,,,174,Y,triangle,1,0,,,,,,,,,,,,,,,,repeat,letter,lettRpt,k,0.5484,Hi,,,,,,2,,,,,,,,high,3,0,3,0,1,,,,,,,,,
298291,2022-11-29_13h24.50.951,vts_reward_expectancy_bt,2022.2.4,MacIntel,60.0024001,Chrome,1440,900,,,,,0,805,,,,,,,,,,,,,,,,,167,U,star,0,0,,,,,,,,,,,,,,,,repeat,letter,NA,j,1.5225,Hi,,,,,,2,,,,,,,,high,4,0,4,0,1,,,,,,,,,
298291,2022-11-29_13h24.50.951,vts_reward_expectancy_bt,2022.2.4,MacIntel,60.0024001,Chrome,1440,900,,,,,0,805,,,,,,,,,,,,,,,,,146,F,hexagon,0,1,,,,,,,,,,,,,,,,repeat,letter,NA,k,1.0861,Hi,,,,,,2,,,,,,,,high,5,0,5,0,1,,,,,,,,,
298291,2022-11-29_13h24.50.951,vts_reward_expectancy_bt,2022.2.4,MacIntel,60.0024001,Chrome,1440,900,,,,,0,805,,,,,,,,,,,,,,,,,125,D,circle,0,1,,,,,,,,,,,,,,,,repeat,letter,NA,k,1.2005,Hi,,,,,,2,,,,,,,,high,6,0,6,0,1,,,,,,,,,
298291,2022-11-29_13h24.50.951,vts_reward_expectancy_bt,2022.2.4,MacIntel,60.0024001,Chrome,1440,900,,,,,0,805,,,,,,,,,,,,,,,,,132,H,triangle,1,1,,,,,,,,,,,,,,,,repeat,letter,lettRpt,j,1.1653,Hi,,,,,,2,,,,,,,,high,7,0,7,0,1,,,,,,,,,
298291,2022-11-29_13h24.50.951,vts_reward_expectancy_bt,2022.2.4,MacIntel,60.0024001,Chrome,1440,900,,,,,10,815,,,,,,,,,,,,,,,,,160,W,hexagon,1,0,,,,,,,,,,,,,,,,repeat,letter,lettRpt,k,1.0818,Lo,,,,,,2,,,,,,,,high,8,0,8,0,1,,,,,,,,,
298291,2022-11-29_13h24.50.951,vts_reward_expectancy_bt,2022.2.4,MacIntel,60.0024001,Chrome,1440,900,,,,,0,815,,,,,,,,,,,,,,,,,181,B,triangle,0,0,,,,,,,,,,,,,,,,repeat,letter,NA,k,1.7316,Lo,,,,,,2,,,,,,,,high,9,0,9,0,1,,,,,,,,,
298291,2022-11-29_13h24.50.951,vts_reward_expectancy_bt,2022.2.4,MacIntel,60.0024001,Chrome,1440,900,,,,,0,815,,,,,,,,,,,,,,,,,139,S,star,1,1,,,,,,,,,,,,,,,,repeat,letter,lettRpt,k,1.0354,Hi,,,,,,2,,,,,,,,high,10,0,10,0,1,,,,,,,,,
298291,2022-11-29_13h24.50.951,vts_reward_expectancy_bt,2022.2.4,MacIntel,60.0024001,Chrome,1440,900,,,,,1,816,,,,,,,,,,,,,,,,,174,Y,circle,1,0,,,,,,,,,,,,,,,,repeat,letter,lettRpt,k,1.1155,Lo,,,,,,2,,,,,,,,high,11,0,11,0,1,,,,,,,,,
298291,2022-11-29_13h24.50.951,vts_reward_expectancy_bt,2022.2.4,MacIntel,60.0024001,Chrome,1440,900,,,,,1,817,,,,,,,,,,,,,,,,,167,U,hexagon,1,0,,,,,,,,,,,,,,,,repeat,letter,lettRpt,k,0.8497,Lo,,,,,,2,,,,,,,,high,12,0,12,0,1,,,,,,,,,
298291,2022-11-29_13h24.50.951,vts_reward_expectancy_bt,2022.2.4,MacIntel,60.0024001,Chrome,1440,900,,,,,0,817,,,,,,,,,,,,,,,,,146,F,triangle,1,0,,,,,,,,,,,,,,,,repeat,letter,lettRpt,j,1.1688,Hi,,,,,,2,,,,,,,,high,13,0,13,0,1,,,,,,,,,
298291,2022-11-29_13h24.50.951,vts_reward_expectancy_bt,2022.2.4,MacIntel,60.0024001,Chrome,1440,900,,,,,1,818,,,,,,,,,,,,,,,,,125,D,circle,1,0,,,,,,,,,,,,,,,,repeat,letter,lettRpt,j,0.9353,Lo,,,,,,2,,,,,,,,high,14,0,14,0,1,,,,,,,,,
298291,2022-11-29_13h24.50.951,vts_reward_expectancy_bt,2022.2.4,MacIntel,60.0024001,Chrome,1440,900,,,,,0,818,,,,,,,,,,,,,,,,,132,H,star,0,0,,,,,,,,,,,,,,,,repeat,letter,NA,k,0.6889,Lo,,,,,,2,,,,,,,,high,15,0,15,0,1,,,,,,,,,
298291,2022-11-29_13h24.50.951,vts_reward_expectancy_bt,2022.2.4,MacIntel,60.0024001,Chrome,1440,900,,,,,0,818,,,,,,,,,,,,,,,,,181,F,triangle,1,1,,,,,,,,,,,,,,,,repeat,letter,lettRpt,j,1.1844,Hi,,,,,,2,,,,,,,,high,16,0,16,0,1,,,,,,,,,
298291,2022-11-29_13h24.50.951,vts_reward_expectancy_bt,2022.2.4,MacIntel,60.0024001,Chrome,1440,900,,,,,1,819,,,,,,,,,,,,,,,,,125,Y,hexagon,1,0,,,,,,,,,,,,,,,,repeat,letter,lettRpt,k,0.6819,Lo,,,,,,2,,,,,,,,high,17,0,17,0,1,,,,,,,,,
298291,2022-11-29_13h24.50.951,vts_reward_expectancy_bt,2022.2.4,MacIntel,60.0024001,Chrome,1440,900,,,,,10,829,,,,,,,,,,,,,,,,,174,B,star,1,0,,,,,,,,,,,,,,,,repeat,letter,lettRpt,j,0.9325,Hi,,,,,,2,,,,,,,,high,18,0,18,0,1,,,,,,,,,
298291,2022-11-29_13h24.50.951,vts_reward_expectancy_bt,2022.2.4,MacIntel,60.0024001,Chrome,1440,900,,,,,10,839,,,,,,,,,,,,,,,,,132,H,circle,1,0,,,,,,,,,,,,,,,,repeat,letter,lettRpt,j,0.8196,Lo,,,,,,2,,,,,,,,high,19,0,19,0,1,,,,,,,,,
298291,2022-11-29_13h24.50.951,vts_reward_expectancy_bt,2022.2.4,MacIntel,60.0024001,Chrome,1440,900,,,,,10,849,,,,,,,,,,,,,,,,,139,D,star,1,0,,,,,,,,,,,,,,,,repeat,letter,lettRpt,j,0.8487,Hi,,,,,,2,,,,,,,,high,20,0,20,0,1,,,,,,,,,
298291,2022-11-29_13h24.50.951,vts_reward_expectancy_bt,2022.2.4,MacIntel,60.0024001,Chrome,1440,900,,,,,1,850,,,,,,,,,,,,,,,,,167,U,triangle,1,0,,,,,,,,,,,,,,,,repeat,letter,lettRpt,k,0.716,Hi,,,,,,2,,,,,,,,high,21,0,21,0,1,,,,,,,,,
298291,2022-11-29_13h24.50.951,vts_reward_expectancy_bt,2022.2.4,MacIntel,60.0024001,Chrome,1440,900,,,,,1,851,,,,,,,,,,,,,,,,,146,W,circle,1,0,,,,,,,,,,,,,,,,repeat,letter,lettRpt,k,0.9617,Lo,,,,,,2,,,,,,,,high,22,0,22,0,1,,,,,,,,,
298291,2022-11-29_13h24.50.951,vts_reward_expectancy_bt,2022.2.4,MacIntel,60.0024001,Chrome,1440,900,,,,,1,852,,,,,,,,,,,,,,,,,160,S,hexagon,1,0,,,,,,,,,,,,,,,,repeat,letter,lettRpt,k,0.7259,Lo,,,,,,2,,,,,,,,high,23,0,23,0,1,,,,,,,,,
298291,2022-11-29_13h24.50.951,vts_reward_expectancy_bt,2022.2.4,MacIntel,60.0024001,Chrome,1440,900,,,,,1,853,,,,,,,,,,,,,,,,,167,U,circle,1,0,,,,,,,,,,,,,,,,repeat,letter,lettRpt,k,0.5979,Lo,,,,,,2,,,,,,,,high,24,0,24,0,1,,,,,,,,,
298291,2022-11-29_13h24.50.951,vts_reward_expectancy_bt,2022.2.4,MacIntel,60.0024001,Chrome,1440,900,,,,,10,863,,,,,,,,,,,,,,,,,139,H,star,1,0,,,,,,,,,,,,,,,,repeat,letter,lettRpt,j,0.9826,Hi,,,,,,2,,,,,,,,high,25,0,25,0,1,,,,,,,,,
298291,2022-11-29_13h24.50.951,vts_reward_expectancy_bt,2022.2.4,MacIntel,60.0024001,Chrome,1440,900,,,,,10,873,,,,,,,,,,,,,,,,,174,F,triangle,1,0,,,,,,,,,,,,,,,,repeat,letter,lettRpt,j,0.8812,Hi,,,,,,2,,,,,,,,high,26,0,26,0,1,,,,,,,,,
298291,2022-11-29_13h24.50.951,vts_reward_expectancy_bt,2022.2.4,MacIntel,60.0024001,Chrome,1440,900,,,,,0,873,,,,,,,,,,,,,,,,,146,S,hexagon,0,0,,,,,,,,,,,,,,,,switch,number,NA,f,1.4288,Hi,,,,,,2,,,,,,,,high,27,0,27,0,1,,,,,,,,,
298291,2022-11-29_13h24.50.951,vts_reward_expectancy_bt,2022.2.4,MacIntel,60.0024001,Chrome,1440,900,,,,,1,874,,,,,,,,,,,,,,,,,132,B,hexagon,1,1,,,,,,,,,,,,,,,,repeat,number,numRpt,d,0.6045,Lo,,,,,,2,,,,,,,,high,28,0,28,0,1,,,,,,,,,
298291,2022-11-29_13h24.50.951,vts_reward_expectancy_bt,2022.2.4,MacIntel,60.0024001,Chrome,1440,900,,,,,1,875,,,,,,,,,,,,,,,,,181,D,circle,1,0,,,,,,,,,,,,,,,,repeat,number,numRpt,f,0.7986,Lo,,,,,,2,,,,,,,,high,29,0,29,0,1,,,,,,,,,
298291,2022-11-29_13h24.50.951,vts_reward_expectancy_bt,2022.2.4,MacIntel,60.0024001,Chrome,1440,900,,,,,10,885,,,,,,,,,,,,,,,,,160,Y,triangle,1,0,,,,,,,,,,,,,,,,repeat,number,numRpt,f,0.8067,Hi,,,,,,2,,,,,,,,high,30,0,30,0,1,,,,,,,,,
298291,2022-11-29_13h24.50.951,vts_reward_expectancy_bt,2022.2.4,MacIntel,60.0024001,Chrome,1440,900,,,,,10,895,,,,,,,,,,,,,,,,,125,W,star,1,0,,,,,,,,,,,,,,,,repeat,number,numRpt,d,0.8195,Hi,,,,,,2,,,,,,,,high,31,0,31,0,1,,,,,,,,,
298291,2022-11-29_13h24.50.951,vts_reward_expectancy_bt,2022.2.4,MacIntel,60.0024001,Chrome,1440,900,,,,,0,895,,,,,,,,,,,,,,,,,174,B,star,1,0,,,,,,,,,,,,,,,,repeat,number,numRpt,f,0.869,Hi,,,,,,3,,,,,,space,1.3482,high,0,0,0,0,1,,,,,,,,,
298291,2022-11-29_13h24.50.951,vts_reward_expectancy_bt,2022.2.4,MacIntel,60.0024001,Chrome,1440,900,,,,,1,896,,,,,,,,,,,,,,,,,132,D,circle,1,0,,,,,,,,,,,,,,,,repeat,number,numRpt,d,0.7194,Lo,,,,,,3,,,,,,,,high,1,0,1,0,1,,,,,,,,,
298291,2022-11-29_13h24.50.951,vts_reward_expectancy_bt,2022.2.4,MacIntel,60.0024001,Chrome,1440,900,,,,,10,906,,,,,,,,,,,,,,,,,167,W,hexagon,1,0,,,,,,,,,,,,,,,,repeat,number,numRpt,f,0.661,Lo,,,,,,3,,,,,,,,high,2,0,2,0,1,,,,,,,,,
298291,2022-11-29_13h24.50.951,vts_reward_expectancy_bt,2022.2.4,MacIntel,60.0024001,Chrome,1440,900,,,,,1,907,,,,,,,,,,,,,,,,,139,H,triangle,1,0,,,,,,,,,,,,,,,,repeat,number,numRpt,d,0.6787,Hi,,,,,,3,,,,,,,,high,3,0,3,0,1,,,,,,,,,
298291,2022-11-29_13h24.50.951,vts_reward_expectancy_bt,2022.2.4,MacIntel,60.0024001,Chrome,1440,900,,,,,10,917,,,,,,,,,,,,,,,,,181,U,star,1,0,,,,,,,,,,,,,,,,repeat,number,numRpt,f,0.6796,Hi,,,,,,3,,,,,,,,high,4,0,4,0,1,,,,,,,,,
298291,2022-11-29_13h24.50.951,vts_reward_expectancy_bt,2022.2.4,MacIntel,60.0024001,Chrome,1440,900,,,,,1,918,,,,,,,,,,,,,,,,,146,Y,circle,1,0,,,,,,,,,,,,,,,,repeat,number,numRpt,d,0.9346,Lo,,,,,,3,,,,,,,,high,5,0,5,0,1,,,,,,,,,
298291,2022-11-29_13h24.50.951,vts_reward_expectancy_bt,2022.2.4,MacIntel,60.0024001,Chrome,1440,900,,,,,1,919,,,,,,,,,,,,,,,,,160,S,hexagon,1,0,,,,,,,,,,,,,,,,repeat,number,numRpt,f,0.8137,Lo,,,,,,3,,,,,,,,high,6,0,6,0,1,,,,,,,,,
298291,2022-11-29_13h24.50.951,vts_reward_expectancy_bt,2022.2.4,MacIntel,60.0024001,Chrome,1440,900,,,,,0,919,,,,,,,,,,,,,,,,,125,F,triangle,0,0,,,,,,,,,,,,,,,,switch,letter,NA,k,0.9643,Lo,,,,,,3,,,,,,,,high,7,0,7,0,1,,,,,,,,,
298291,2022-11-29_13h24.50.951,vts_reward_expectancy_bt,2022.2.4,MacIntel,60.0024001,Chrome,1440,900,,,,,0,919,,,,,,,,,,,,,,,,,174,B,star,1,1,,,,,,,,,,,,,,,,repeat,letter,lettRpt,j,1.0307,Hi,,,,,,3,,,,,,,,high,8,0,8,0,1,,,,,,,,,
298291,2022-11-29_13h24.50.951,vts_reward_expectancy_bt,2022.2.4,MacIntel,60.0024001,Chrome,1440,900,,,,,1,920,,,,,,,,,,,,,,,,,132,D,circle,1,0,,,,,,,,,,,,,,,,repeat,letter,lettRpt,j,0.7837,Lo,,,,,,3,,,,,,,,high,9,0,9,0,1,,,,,,,,,
298291,2022-11-29_13h24.50.951,vts_reward_expectancy_bt,2022.2.4,MacIntel,60.0024001,Chrome,1440,900,,,,,0,920,,,,,,,,,,,,,,,,,167,W,triangle,1,0,,,,,,,,,,,,,,,,repeat,letter,lettRpt,k,0.9124,Hi,,,,,,3,,,,,,,,high,10,0,10,0,1,,,,,,,,,
298291,2022-11-29_13h24.50.951,vts_reward_expectancy_bt,2022.2.4,MacIntel,60.0024001,Chrome,1440,900,,,,,1,921,,,,,,,,,,,,,,,,,139,H,hexagon,1,0,,,,,,,,,,,,,,,,repeat,letter,lettRpt,j,0.5899,Lo,,,,,,3,,,,,,,,high,11,0,11,0,1,,,,,,,,,
298291,2022-11-29_13h24.50.951,vts_reward_expectancy_bt,2022.2.4,MacIntel,60.0024001,Chrome,1440,900,,,,,1,922,,,,,,,,,,,,,,,,,181,U,hexagon,1,0,,,,,,,,,,,,,,,,repeat,letter,lettRpt,k,0.2208,Lo,,,,,,3,,,,,,,,high,12,0,12,0,1,,,,,,,,,
298291,2022-11-29_13h24.50.951,vts_reward_expectancy_bt,2022.2.4,MacIntel,60.0024001,Chrome,1440,900,,,,,10,932,,,,,,,,,,,,,,,,,146,Y,triangle,1,0,,,,,,,,,,,,,,,,repeat,letter,lettRpt,k,0.614,Hi,,,,,,3,,,,,,,,high,13,0,13,0,1,,,,,,,,,
298291,2022-11-29_13h24.50.951,vts_reward_expectancy_bt,2022.2.4,MacIntel,60.0024001,Chrome,1440,900,,,,,10,942,,,,,,,,,,,,,,,,,160,S,circle,1,0,,,,,,,,,,,,,,,,repeat,letter,lettRpt,k,0.6161,Lo,,,,,,3,,,,,,,,high,14,0,14,0,1,,,,,,,,,
298291,2022-11-29_13h24.50.951,vts_reward_expectancy_bt,2022.2.4,MacIntel,60.0024001,Chrome,1440,900,,,,,10,952,,,,,,,,,,,,,,,,,125,F,star,1,0,,,,,,,,,,,,,,,,switch,number,numSwt,d,0.4578,Hi,,,,,,3,,,,,,,,high,15,0,15,0,1,,,,,,,,,
298291,2022-11-29_13h24.50.951,vts_reward_expectancy_bt,2022.2.4,MacIntel,60.0024001,Chrome,1440,900,,,,,10,962,,,,,,,,,,,,,,,,,181,U,star,1,0,,,,,,,,,,,,,,,,repeat,number,numRpt,f,0.6349,Hi,,,,,,3,,,,,,,,high,16,0,16,0,1,,,,,,,,,
298291,2022-11-29_13h24.50.951,vts_reward_expectancy_bt,2022.2.4,MacIntel,60.0024001,Chrome,1440,900,,,,,0,962,,,,,,,,,,,,,,,,,167,F,triangle,0,0,,,,,,,,,,,,,,,,repeat,number,NA,d,0.933,Hi,,,,,,3,,,,,,,,high,17,0,17,0,1,,,,,,,,,
298291,2022-11-29_13h24.50.951,vts_reward_expectancy_bt,2022.2.4,MacIntel,60.0024001,Chrome,1440,900,,,,,10,972,,,,,,,,,,,,,,,,,139,Y,circle,1,1,,,,,,,,,,,,,,,,repeat,number,numRpt,d,0.6989,Lo,,,,,,3,,,,,,,,high,18,0,18,0,1,,,,,,,,,
298291,2022-11-29_13h24.50.951,vts_reward_expectancy_bt,2022.2.4,MacIntel,60.0024001,Chrome,1440,900,,,,,1,973,,,,,,,,,,,,,,,,,125,B,hexagon,1,0,,,,,,,,,,,,,,,,repeat,number,numRpt,d,0.5676,Lo,,,,,,3,,,,,,,,high,19,0,19,0,1,,,,,,,,,
298291,2022-11-29_13h24.50.951,vts_reward_expectancy_bt,2022.2.4,MacIntel,60.0024001,Chrome,1440,900,,,,,0,973,,,,,,,,,,,,,,,,,146,H,star,1,0,,,,,,,,,,,,,,,,repeat,number,numRpt,d,1.7914,Hi,,,,,,3,,,,,,,,high,20,0,20,0,1,,,,,,,,,
298291,2022-11-29_13h24.50.951,vts_reward_expectancy_bt,2022.2.4,MacIntel,60.0024001,Chrome,1440,900,,,,,0,973,,,,,,,,,,,,,,,,,160,S,triangle,1,0,,,,,,,,,,,,,,,,repeat,number,numRpt,f,0.8806,Hi,,,,,,3,,,,,,,,high,21,0,21,0,1,,,,,,,,,
298291,2022-11-29_13h24.50.951,vts_reward_expectancy_bt,2022.2.4,MacIntel,60.0024001,Chrome,1440,900,,,,,1,974,,,,,,,,,,,,,,,,,174,W,hexagon,1,0,,,,,,,,,,,,,,,,repeat,number,numRpt,f,0.7427,Lo,,,,,,3,,,,,,,,high,22,0,22,0,1,,,,,,,,,
298291,2022-11-29_13h24.50.951,vts_reward_expectancy_bt,2022.2.4,MacIntel,60.0024001,Chrome,1440,900,,,,,1,975,,,,,,,,,,,,,,,,,132,D,circle,1,0,,,,,,,,,,,,,,,,repeat,number,numRpt,d,0.9976,Lo,,,,,,3,,,,,,,,high,23,0,23,0,1,,,,,,,,,
298291,2022-11-29_13h24.50.951,vts_reward_expectancy_bt,2022.2.4,MacIntel,60.0024001,Chrome,1440,900,,,,,0,975,,,,,,,,,,,,,,,,,174,Y,triangle,1,0,,,,,,,,,,,,,,,,repeat,number,numRpt,f,0.8444,Hi,,,,,,3,,,,,,,,high,24,0,24,0,1,,,,,,,,,
298291,2022-11-29_13h24.50.951,vts_reward_expectancy_bt,2022.2.4,MacIntel,60.0024001,Chrome,1440,900,,,,,1,976,,,,,,,,,,,,,,,,,146,S,hexagon,1,0,,,,,,,,,,,,,,,,repeat,number,numRpt,d,0.8201,Lo,,,,,,3,,,,,,,,high,25,0,25,0,1,,,,,,,,,
298291,2022-11-29_13h24.50.951,vts_reward_expectancy_bt,2022.2.4,MacIntel,60.0024001,Chrome,1440,900,,,,,1,977,,,,,,,,,,,,,,,,,167,F,circle,1,0,,,,,,,,,,,,,,,,repeat,number,numRpt,f,1.3807,Lo,,,,,,3,,,,,,,,high,26,0,26,0,1,,,,,,,,,
298291,2022-11-29_13h24.50.951,vts_reward_expectancy_bt,2022.2.4,MacIntel,60.0024001,Chrome,1440,900,,,,,1,978,,,,,,,,,,,,,,,,,181,D,star,1,0,,,,,,,,,,,,,,,,repeat,number,numRpt,f,0.7648,Hi,,,,,,3,,,,,,,,high,27,0,27,0,1,,,,,,,,,
298291,2022-11-29_13h24.50.951,vts_reward_expectancy_bt,2022.2.4,MacIntel,60.0024001,Chrome,1440,900,,,,,10,988,,,,,,,,,,,,,,,,,132,U,triangle,1,0,,,,,,,,,,,,,,,,repeat,number,numRpt,d,0.6809,Hi,,,,,,3,,,,,,,,high,28,0,28,0,1,,,,,,,,,
298291,2022-11-29_13h24.50.951,vts_reward_expectancy_bt,2022.2.4,MacIntel,60.0024001,Chrome,1440,900,,,,,1,989,,,,,,,,,,,,,,,,,139,H,hexagon,1,0,,,,,,,,,,,,,,,,repeat,number,numRpt,d,0.8387,Lo,,,,,,3,,,,,,,,high,29,0,29,0,1,,,,,,,,,
298291,2022-11-29_13h24.50.951,vts_reward_expectancy_bt,2022.2.4,MacIntel,60.0024001,Chrome,1440,900,,,,,0,989,,,,,,,,,,,,,,,,,160,B,star,1,0,,,,,,,,,,,,,,,,repeat,number,numRpt,f,0.9484,Hi,,,,,,3,,,,,,,,high,30,0,30,0,1,,,,,,,,,
298291,2022-11-29_13h24.50.951,vts_reward_expectancy_bt,2022.2.4,MacIntel,60.0024001,Chrome,1440,900,,,,,1,990,,,,,,,,,,,,,,,,,125,W,circle,1,0,,,,,,,,,,,,,,,,repeat,number,numRpt,d,0.7491,Lo,,,,,,3,,,,,,,,high,31,0,31,0,1,,,,,,,,,
298291,2022-11-29_13h24.50.951,vts_reward_expectancy_bt,2022.2.4,MacIntel,60.0024001,Chrome,1440,900,,,,,10,1000,,,,,,,,,,,,,,,,,181,B,triangle,1,0,,,,,,,,,,,,,,,,switch,letter,lettSwt,j,0.9495,Hi,,,,,,4,,,,,,space,1.3006,high,0,0,0,0,1,,,,,,,,,
298291,2022-11-29_13h24.50.951,vts_reward_expectancy_bt,2022.2.4,MacIntel,60.0024001,Chrome,1440,900,,,,,1,1001,,,,,,,,,,,,,,,,,174,U,circle,1,0,,,,,,,,,,,,,,,,repeat,letter,lettRpt,k,0.7832,Lo,,,,,,4,,,,,,,,high,1,0,1,0,1,,,,,,,,,
298291,2022-11-29_13h24.50.951,vts_reward_expectancy_bt,2022.2.4,MacIntel,60.0024001,Chrome,1440,900,,,,,1,1002,,,,,,,,,,,,,,,,,139,S,hexagon,1,0,,,,,,,,,,,,,,,,repeat,letter,lettRpt,k,0.6326,Lo,,,,,,4,,,,,,,,high,2,0,2,0,1,,,,,,,,,
298291,2022-11-29_13h24.50.951,vts_reward_expectancy_bt,2022.2.4,MacIntel,60.0024001,Chrome,1440,900,,,,,0,1002,,,,,,,,,,,,,,,,,125,D,star,1,0,,,,,,,,,,,,,,,,repeat,letter,lettRpt,j,0.7019,Hi,,,,,,4,,,,,,,,high,3,0,3,0,1,,,,,,,,,
298291,2022-11-29_13h24.50.951,vts_reward_expectancy_bt,2022.2.4,MacIntel,60.0024001,Chrome,1440,900,,,,,0,1002,,,,,,,,,,,,,,,,,160,F,triangle,1,0,,,,,,,,,,,,,,,,repeat,letter,lettRpt,j,0.7824,Hi,,,,,,4,,,,,,,,high,4,0,4,0,1,,,,,,,,,
298291,2022-11-29_13h24.50.951,vts_reward_expectancy_bt,2022.2.4,MacIntel,60.0024001,Chrome,1440,900,,,,,1,1003,,,,,,,,,,,,,,,,,167,W,circle,1,0,,,,,,,,,,,,,,,,repeat,letter,lettRpt,k,0.5817,Lo,,,,,,4,,,,,,,,high,5,0,5,0,1,,,,,,,,,
298291,2022-11-29_13h24.50.951,vts_reward_expectancy_bt,2022.2.4,MacIntel,60.0024001,Chrome,1440,900,,,,,0,1003,,,,,,,,,,,,,,,,,132,H,hexagon,0,0,,,,,,,,,,,,,,,,repeat,letter,NA,k,1.4153,Lo,,,,,,4,,,,,,,,high,6,0,6,0,1,,,,,,,,,
298291,2022-11-29_13h24.50.951,vts_reward_expectancy_bt,2022.2.4,MacIntel,60.0024001,Chrome,1440,900,,,,,0,1003,,,,,,,,,,,,,,,,,146,Y,star,1,1,,,,,,,,,,,,,,,,repeat,letter,lettRpt,k,0.7497,Hi,,,,,,4,,,,,,,,high,7,0,7,0,1,,,,,,,,,
298291,2022-11-29_13h24.50.951,vts_reward_expectancy_bt,2022.2.4,MacIntel,60.0024001,Chrome,1440,900,,,,,0,1003,,,,,,,,,,,,,,,,,181,B,star,1,0,,,,,,,,,,,,,,,,repeat,letter,lettRpt,j,1.1977,Hi,,,,,,4,,,,,,,,high,8,0,8,0,1,,,,,,,,,
298291,2022-11-29_13h24.50.951,vts_reward_expectancy_bt,2022.2.4,MacIntel,60.0024001,Chrome,1440,900,,,,,0,1003,,,,,,,,,,,,,,,,,174,U,triangle,1,0,,,,,,,,,,,,,,,,repeat,letter,lettRpt,k,1.5581,Hi,,,,,,4,,,,,,,,high,9,0,9,0,1,,,,,,,,,
298291,2022-11-29_13h24.50.951,vts_reward_expectancy_bt,2022.2.4,MacIntel,60.0024001,Chrome,1440,900,,,,,1,1004,,,,,,,,,,,,,,,,,139,S,hexagon,1,0,,,,,,,,,,,,,,,,repeat,letter,lettRpt,k,0.6165,Lo,,,,,,4,,,,,,,,high,10,0,10,0,1,,,,,,,,,
298291,2022-11-29_13h24.50.951,vts_reward_expectancy_bt,2022.2.4,MacIntel,60.0024001,Chrome,1440,900,,,,,1,1005,,,,,,,,,,,,,,,,,125,D,circle,1,0,,,,,,,,,,,,,,,,repeat,letter,lettRpt,j,0.6492,Lo,,,,,,4,,,,,,,,high,11,0,11,0,1,,,,,,,,,
298291,2022-11-29_13h24.50.951,vts_reward_expectancy_bt,2022.2.4,MacIntel,60.0024001,Chrome,1440,900,,,,,0,1005,,,,,,,,,,,,,,,,,160,F,triangle,0,0,,,,,,,,,,,,,,,,switch,number,NA,d,1.2377,Lo,,,,,,4,,,,,,,,high,12,0,12,0,1,,,,,,,,,
298291,2022-11-29_13h24.50.951,vts_reward_expectancy_bt,2022.2.4,MacIntel,60.0024001,Chrome,1440,900,,,,,0,1005,,,,,,,,,,,,,,,,,167,W,star,1,1,,,,,,,,,,,,,,,,repeat,number,numRpt,f,0.892,Hi,,,,,,4,,,,,,,,high,13,0,13,0,1,,,,,,,,,
298291,2022-11-29_13h24.50.951,vts_reward_expectancy_bt,2022.2.4,MacIntel,60.0024001,Chrome,1440,900,,,,,10,1015,,,,,,,,,,,,,,,,,132,H,hexagon,1,0,,,,,,,,,,,,,,,,repeat,number,numRpt,d,0.8439,Lo,,,,,,4,,,,,,,,high,14,0,14,0,1,,,,,,,,,
298291,2022-11-29_13h24.50.951,vts_reward_expectancy_bt,2022.2.4,MacIntel,60.0024001,Chrome,1440,900,,,,,1,1016,,,,,,,,,,,,,,,,,146,Y,circle,1,0,,,,,,,,,,,,,,,,repeat,number,numRpt,d,0.956,Lo,,,,,,4,,,,,,,,high,15,0,15,0,1,,,,,,,,,
298291,2022-11-29_13h24.50.951,vts_reward_expectancy_bt,2022.2.4,MacIntel,60.0024001,Chrome,1440,900,,,,,0,1016,,,,,,,,,,,,,,,,,160,D,triangle,1,0,,,,,,,,,,,,,,,,repeat,number,numRpt,f,0.8489,Hi,,,,,,4,,,,,,,,high,16,0,16,0,1,,,,,,,,,
298291,2022-11-29_13h24.50.951,vts_reward_expectancy_bt,2022.2.4,MacIntel,60.0024001,Chrome,1440,900,,,,,10,1026,,,,,,,,,,,,,,,,,139,H,circle,1,0,,,,,,,,,,,,,,,,repeat,number,numRpt,d,0.7499,Lo,,,,,,4,,,,,,,,high,17,0,17,0,1,,,,,,,,,
298291,2022-11-29_13h24.50.951,vts_reward_expectancy_bt,2022.2.4,MacIntel,60.0024001,Chrome,1440,900,,,,,1,1027,,,,,,,,,,,,,,,,,167,U,hexagon,1,0,,,,,,,,,,,,,,,,repeat,number,numRpt,f,0.7989,Lo,,,,,,4,,,,,,,,high,18,0,18,0,1,,,,,,,,,
298291,2022-11-29_13h24.50.951,vts_reward_expectancy_bt,2022.2.4,MacIntel,60.0024001,Chrome,1440,900,,,,,0,1027,,,,,,,,,,,,,,,,,181,S,star,1,0,,,,,,,,,,,,,,,,repeat,number,numRpt,f,1.5175,Hi,,,,,,4,,,,,,,,high,19,0,19,0,1,,,,,,,,,
298291,2022-11-29_13h24.50.951,vts_reward_expectancy_bt,2022.2.4,MacIntel,60.0024001,Chrome,1440,900,,,,,1,1028,,,,,,,,,,,,,,,,,174,B,hexagon,1,0,,,,,,,,,,,,,,,,repeat,number,numRpt,f,0.6,Lo,,,,,,4,,,,,,,,high,20,0,20,0,1,,,,,,,,,
298291,2022-11-29_13h24.50.951,vts_reward_expectancy_bt,2022.2.4,MacIntel,60.0024001,Chrome,1440,900,,,,,0,1028,,,,,,,,,,,,,,,,,146,W,star,1,0,,,,,,,,,,,,,,,,repeat,number,numRpt,d,1.0142,Hi,,,,,,4,,,,,,,,high,21,0,21,0,1,,,,,,,,,
298291,2022-11-29_13h24.50.951,vts_reward_expectancy_bt,2022.2.4,MacIntel,60.0024001,Chrome,1440,900,,,,,10,1038,,,,,,,,,,,,,,,,,132,F,circle,1,0,,,,,,,,,,,,,,,,repeat,number,numRpt,d,0.699,Lo,,,,,,4,,,,,,,,high,22,0,22,0,1,,,,,,,,,
298291,2022-11-29_13h24.50.951,vts_reward_expectancy_bt,2022.2.4,MacIntel,60.0024001,Chrome,1440,900,,,,,10,1048,,,,,,,,,,,,,,,,,125,Y,triangle,1,0,,,,,,,,,,,,,,,,repeat,number,numRpt,d,0.6882,Hi,,,,,,4,,,,,,,,high,23,0,23,0,1,,,,,,,,,
298291,2022-11-29_13h24.50.951,vts_reward_expectancy_bt,2022.2.4,MacIntel,60.0024001,Chrome,1440,900,,,,,0,1048,,,,,,,,,,,,,,,,,174,D,star,1,0,,,,,,,,,,,,,,,,repeat,number,numRpt,f,1.4316,Hi,,,,,,4,,,,,,,,high,24,0,24,0,1,,,,,,,,,
298291,2022-11-29_13h24.50.951,vts_reward_expectancy_bt,2022.2.4,MacIntel,60.0024001,Chrome,1440,900,,,,,1,1049,,,,,,,,,,,,,,,,,132,B,circle,1,0,,,,,,,,,,,,,,,,repeat,number,numRpt,d,0.839,Lo,,,,,,4,,,,,,,,high,25,0,25,0,1,,,,,,,,,
298291,2022-11-29_13h24.50.951,vts_reward_expectancy_bt,2022.2.4,MacIntel,60.0024001,Chrome,1440,900,,,,,0,1049,,,,,,,,,,,,,,,,,125,W,triangle,1,0,,,,,,,,,,,,,,,,repeat,number,numRpt,d,0.7815,Hi,,,,,,4,,,,,,,,high,26,0,26,0,1,,,,,,,,,
298291,2022-11-29_13h24.50.951,vts_reward_expectancy_bt,2022.2.4,MacIntel,60.0024001,Chrome,1440,900,,,,,1,1050,,,,,,,,,,,,,,,,,160,U,hexagon,1,0,,,,,,,,,,,,,,,,repeat,number,numRpt,f,0.9665,Lo,,,,,,4,,,,,,,,high,27,0,27,0,1,,,,,,,,,
298291,2022-11-29_13h24.50.951,vts_reward_expectancy_bt,2022.2.4,MacIntel,60.0024001,Chrome,1440,900,,,,,0,1050,,,,,,,,,,,,,,,,,167,H,triangle,1,0,,,,,,,,,,,,,,,,repeat,number,numRpt,f,1.0662,Hi,,,,,,4,,,,,,,,high,28,0,28,0,1,,,,,,,,,
298291,2022-11-29_13h24.50.951,vts_reward_expectancy_bt,2022.2.4,MacIntel,60.0024001,Chrome,1440,900,,,,,1,1051,,,,,,,,,,,,,,,,,146,Y,circle,1,0,,,,,,,,,,,,,,,,repeat,number,numRpt,d,1.055,Lo,,,,,,4,,,,,,,,high,29,0,29,0,1,,,,,,,,,
298291,2022-11-29_13h24.50.951,vts_reward_expectancy_bt,2022.2.4,MacIntel,60.0024001,Chrome,1440,900,,,,,10,1061,,,,,,,,,,,,,,,,,139,F,star,1,0,,,,,,,,,,,,,,,,repeat,number,numRpt,d,0.7146,Hi,,,,,,4,,,,,,,,high,30,0,30,0,1,,,,,,,,,
298291,2022-11-29_13h24.50.951,vts_reward_expectancy_bt,2022.2.4,MacIntel,60.0024001,Chrome,1440,900,,,,,1,1062,,,,,,,,,,,,,,,,,181,S,hexagon,1,0,,,,,,,,,,,,,,,,repeat,number,numRpt,f,0.6997,Lo,,,,,,4,,,,,,,,high,31,0,31,0,1,,,,,,,,,
298291,2022-11-29_13h24.50.951,vts_reward_expectancy_bt,2022.2.4,MacIntel,60.0024001,Chrome,1440,900,,,,,10,1072,,,,,,,,,,,,,,,,,139,H,circle,1,0,,,,,,,,,,,,,,,,switch,letter,lettSwt,j,0.9496,Lo,,,,,,5,,,,,,space,51.218,high,0,0,0,0,1,,,,,,,,,
298291,2022-11-29_13h24.50.951,vts_reward_expectancy_bt,2022.2.4,MacIntel,60.0024001,Chrome,1440,900,,,,,0,1072,,,,,,,,,,,,,,,,,125,D,star,1,0,,,,,,,,,,,,,,,,repeat,letter,lettRpt,j,0.9835,Hi,,,,,,5,,,,,,,,high,1,0,1,0,1,,,,,,,,,
298291,2022-11-29_13h24.50.951,vts_reward_expectancy_bt,2022.2.4,MacIntel,60.0024001,Chrome,1440,900,,,,,1,1073,,,,,,,,,,,,,,,,,167,F,hexagon,1,0,,,,,,,,,,,,,,,,repeat,letter,lettRpt,j,0.7823,Lo,,,,,,5,,,,,,,,high,2,0,2,0,1,,,,,,,,,
298291,2022-11-29_13h24.50.951,vts_reward_expectancy_bt,2022.2.4,MacIntel,60.0024001,Chrome,1440,900,,,,,0,1073,,,,,,,,,,,,,,,,,160,B,triangle,1,0,,,,,,,,,,,,,,,,repeat,letter,lettRpt,j,0.9327,Hi,,,,,,5,,,,,,,,high,3,0,3,0,1,,,,,,,,,
298291,2022-11-29_13h24.50.951,vts_reward_expectancy_bt,2022.2.4,MacIntel,60.0024001,Chrome,1440,900,,,,,1,1074,,,,,,,,,,,,,,,,,174,U,circle,1,0,,,,,,,,,,,,,,,,repeat,letter,lettRpt,k,1.482,Lo,,,,,,5,,,,,,,,high,4,0,4,0,1,,,,,,,,,
298291,2022-11-29_13h24.50.951,vts_reward_expectancy_bt,2022.2.4,MacIntel,60.0024001,Chrome,1440,900,,,,,0,1074,,,,,,,,,,,,,,,,,181,W,star,1,0,,,,,,,,,,,,,,,,repeat,letter,lettRpt,k,0.9824,Hi,,,,,,5,,,,,,,,high,5,0,5,0,1,,,,,,,,,
298291,2022-11-29_13h24.50.951,vts_reward_expectancy_bt,2022.2.4,MacIntel,60.0024001,Chrome,1440,900,,,,,1,1075,,,,,,,,,,,,,,,,,146,S,hexagon,1,0,,,,,,,,,,,,,,,,repeat,letter,lettRpt,k,0.9149,Lo,,,,,,5,,,,,,,,high,6,0,6,0,1,,,,,,,,,
298291,2022-11-29_13h24.50.951,vts_reward_expectancy_bt,2022.2.4,MacIntel,60.0024001,Chrome,1440,900,,,,,0,1075,,,,,,,,,,,,,,,,,132,Y,triangle,1,0,,,,,,,,,,,,,,,,repeat,letter,lettRpt,k,0.7487,Hi,,,,,,5,,,,,,,,high,7,0,7,0,1,,,,,,,,,
298291,2022-11-29_13h24.50.951,vts_reward_expectancy_bt,2022.2.4,MacIntel,60.0024001,Chrome,1440,900,,,,,10,1085,,,,,,,,,,,,,,,,,139,H,circle,1,0,,,,,,,,,,,,,,,,repeat,letter,lettRpt,j,1.2652,Lo,,,,,,5,,,,,,,,high,8,0,8,0,1,,,,,,,,,
298291,2022-11-29_13h24.50.951,vts_reward_expectancy_bt,2022.2.4,MacIntel,60.0024001,Chrome,1440,900,,,,,0,1085,,,,,,,,,,,,,,,,,125,D,triangle,1,0,,,,,,,,,,,,,,,,repeat,letter,lettRpt,j,0.7329,Hi,,,,,,5,,,,,,,,high,9,0,9,0,1,,,,,,,,,
298291,2022-11-29_13h24.50.951,vts_reward_expectancy_bt,2022.2.4,MacIntel,60.0024001,Chrome,1440,900,,,,,1,1086,,,,,,,,,,,,,,,,,167,F,hexagon,1,0,,,,,,,,,,,,,,,,repeat,letter,lettRpt,j,0.7153,Lo,,,,,,5,,,,,,,,high,10,0,10,0,1,,,,,,,,,
298291,2022-11-29_13h24.50.951,vts_reward_expectancy_bt,2022.2.4,MacIntel,60.0024001,Chrome,1440,900,,,,,0,1086,,,,,,,,,,,,,,,,,160,B,star,1,0,,,,,,,,,,,,,,,,repeat,letter,lettRpt,j,0.933,Hi,,,,,,5,,,,,,,,high,11,0,11,0,1,,,,,,,,,
298291,2022-11-29_13h24.50.951,vts_reward_expectancy_bt,2022.2.4,MacIntel,60.0024001,Chrome,1440,900,,,,,1,1087,,,,,,,,,,,,,,,,,174,U,hexagon,1,0,,,,,,,,,,,,,,,,repeat,letter,lettRpt,k,0.9306,Lo,,,,,,5,,,,,,,,high,12,0,12,0,1,,,,,,,,,
298291,2022-11-29_13h24.50.951,vts_reward_expectancy_bt,2022.2.4,MacIntel,60.0024001,Chrome,1440,900,,,,,1,1088,,,,,,,,,,,,,,,,,181,W,circle,1,0,,,,,,,,,,,,,,,,repeat,letter,lettRpt,k,0.8155,Lo,,,,,,5,,,,,,,,high,13,0,13,0,1,,,,,,,,,
298291,2022-11-29_13h24.50.951,vts_reward_expectancy_bt,2022.2.4,MacIntel,60.0024001,Chrome,1440,900,,,,,0,1088,,,,,,,,,,,,,,,,,146,S,triangle,1,0,,,,,,,,,,,,,,,,repeat,letter,lettRpt,k,0.7326,Hi,,,,,,5,,,,,,,,high,14,0,14,0,1,,,,,,,,,
298291,2022-11-29_13h24.50.951,vts_reward_expectancy_bt,2022.2.4,MacIntel,60.0024001,Chrome,1440,900,,,,,10,1098,,,,,,,,,,,,,,,,,132,Y,star,1,0,,,,,,,,,,,,,,,,switch,number,numSwt,d,1.249,Hi,,,,,,5,,,,,,,,high,15,0,15,0,1,,,,,,,,,
298291,2022-11-29_13h24.50.951,vts_reward_expectancy_bt,2022.2.4,MacIntel,60.0024001,Chrome,1440,900,,,,,0,1098,,,,,,,,,,,,,,,,,167,Y,star,1,0,,,,,,,,,,,,,,,,repeat,number,numRpt,f,0.9005,Hi,,,,,,5,,,,,,,,high,16,0,16,0,1,,,,,,,,,
298291,2022-11-29_13h24.50.951,vts_reward_expectancy_bt,2022.2.4,MacIntel,60.0024001,Chrome,1440,900,,,,,0,1098,,,,,,,,,,,,,,,,,139,U,triangle,1,0,,,,,,,,,,,,,,,,repeat,number,numRpt,d,1.1168,Hi,,,,,,5,,,,,,,,high,17,0,17,0,1,,,,,,,,,
298291,2022-11-29_13h24.50.951,vts_reward_expectancy_bt,2022.2.4,MacIntel,60.0024001,Chrome,1440,900,,,,,1,1099,,,,,,,,,,,,,,,,,146,D,hexagon,1,0,,,,,,,,,,,,,,,,repeat,number,numRpt,d,1.2714,Lo,,,,,,5,,,,,,,,high,18,0,18,0,1,,,,,,,,,
298291,2022-11-29_13h24.50.951,vts_reward_expectancy_bt,2022.2.4,MacIntel,60.0024001,Chrome,1440,900,,,,,1,1100,,,,,,,,,,,,,,,,,181,H,circle,1,0,,,,,,,,,,,,,,,,repeat,number,numRpt,f,0.9159,Lo,,,,,,5,,,,,,,,high,19,0,19,0,1,,,,,,,,,
298291,2022-11-29_13h24.50.951,vts_reward_expectancy_bt,2022.2.4,MacIntel,60.0024001,Chrome,1440,900,,,,,0,1100,,,,,,,,,,,,,,,,,132,B,triangle,1,0,,,,,,,,,,,,,,,,repeat,number,numRpt,d,0.832,Hi,,,,,,5,,,,,,,,high,20,0,20,0,1,,,,,,,,,
298291,2022-11-29_13h24.50.951,vts_reward_expectancy_bt,2022.2.4,MacIntel,60.0024001,Chrome,1440,900,,,,,1,1101,,,,,,,,,,,,,,,,,160,F,hexagon,1,0,,,,,,,,,,,,,,,,repeat,number,numRpt,f,2.2325,Lo,,,,,,5,,,,,,,,high,21,0,21,0,1,,,,,,,,,
298291,2022-11-29_13h24.50.951,vts_reward_expectancy_bt,2022.2.4,MacIntel,60.0024001,Chrome,1440,900,,,,,0,1101,,,,,,,,,,,,,,,,,125,W,star,1,0,,,,,,,,,,,,,,,,repeat,number,numRpt,d,0.9502,Hi,,,,,,5,,,,,,,,high,22,0,22,0,1,,,,,,,,,
298291,2022-11-29_13h24.50.951,vts_reward_expectancy_bt,2022.2.4,MacIntel,60.0024001,Chrome,1440,900,,,,,1,1102,,,,,,,,,,,,,,,,,174,S,circle,1,0,,,,,,,,,,,,,,,,repeat,number,numRpt,f,0.682,Lo,,,,,,5,,,,,,,,high,23,0,23,0,1,,,,,,,,,
298291,2022-11-29_13h24.50.951,vts_reward_expectancy_bt,2022.2.4,MacIntel,60.0024001,Chrome,1440,900,,,,,0,1102,,,,,,,,,,,,,,,,,160,U,hexagon,-1,0,,,,,,,,,,,,,,,,switch,no_choice,NA,,,Lo,,,,,,5,,,,,,,,high,24,0,24,0,1,,,,,,,,,
298291,2022-11-29_13h24.50.951,vts_reward_expectancy_bt,2022.2.4,MacIntel,60.0024001,Chrome,1440,900,,,,,1,1103,,,,,,,,,,,,,,,,,132,S,circle,1,0,,,,,,,,,,,,,,,,switch,number,numSwt,d,1.199,Lo,,,,,,5,,,,,,,,high,25,0,25,0,1,,,,,,,,,
298291,2022-11-29_13h24.50.951,vts_reward_expectancy_bt,2022.2.4,MacIntel,60.0024001,Chrome,1440,900,,,,,10,1113,,,,,,,,,,,,,,,,,139,W,triangle,1,0,,,,,,,,,,,,,,,,repeat,number,numRpt,d,0.6826,Hi,,,,,,5,,,,,,,,high,26,0,26,0,1,,,,,,,,,
298291,2022-11-29_13h24.50.951,vts_reward_expectancy_bt,2022.2.4,MacIntel,60.0024001,Chrome,1440,900,,,,,0,1113,,,,,,,,,,,,,,,,,181,H,star,1,0,,,,,,,,,,,,,,,,repeat,number,numRpt,f,2.2991,Hi,,,,,,5,,,,,,,,high,27,0,27,0,1,,,,,,,,,
298291,2022-11-29_13h24.50.951,vts_reward_expectancy_bt,2022.2.4,MacIntel,60.0024001,Chrome,1440,900,,,,,1,1114,,,,,,,,,,,,,,,,,174,B,hexagon,1,0,,,,,,,,,,,,,,,,repeat,number,numRpt,f,1.4713,Lo,,,,,,5,,,,,,,,high,28,0,28,0,1,,,,,,,,,
298291,2022-11-29_13h24.50.951,vts_reward_expectancy_bt,2022.2.4,MacIntel,60.0024001,Chrome,1440,900,,,,,10,1124,,,,,,,,,,,,,,,,,146,F,star,1,0,,,,,,,,,,,,,,,,repeat,number,numRpt,d,0.7319,Hi,,,,,,5,,,,,,,,high,29,0,29,0,1,,,,,,,,,
298291,2022-11-29_13h24.50.951,vts_reward_expectancy_bt,2022.2.4,MacIntel,60.0024001,Chrome,1440,900,,,,,1,1125,,,,,,,,,,,,,,,,,125,D,circle,1,0,,,,,,,,,,,,,,,,repeat,number,numRpt,d,0.7048,Lo,,,,,,5,,,,,,,,high,30,0,30,0,1,,,,,,,,,
298291,2022-11-29_13h24.50.951,vts_reward_expectancy_bt,2022.2.4,MacIntel,60.0024001,Chrome,1440,900,,,,,0,1125,,,,,,,,,,,,,,,,,167,Y,triangle,1,0,,,,,,,,,,,,,,,,repeat,number,numRpt,f,2.1885,Hi,,,,,,5,,,,,,,,high,31,0,31,0,1,,,,,,,,,
298291,2022-11-29_13h24.50.951,vts_reward_expectancy_bt,2022.2.4,MacIntel,60.0024001,Chrome,1440,900,,,,,10,1135,,,,,,,,,,,,,,,,,181,H,circle,1,0,,,,,,,,,,,,,,,,repeat,number,numRpt,f,0.7327,Lo,,,,,,6,,,,,,space,0.76,high,0,0,0,0,1,,,,,,,,,
298291,2022-11-29_13h24.50.951,vts_reward_expectancy_bt,2022.2.4,MacIntel,60.0024001,Chrome,1440,900,,,,,1,1136,,,,,,,,,,,,,,,,,146,S,hexagon,1,0,,,,,,,,,,,,,,,,repeat,number,numRpt,d,0.5654,Lo,,,,,,6,,,,,,,,high,1,0,1,0,1,,,,,,,,,
298291,2022-11-29_13h24.50.951,vts_reward_expectancy_bt,2022.2.4,MacIntel,60.0024001,Chrome,1440,900,,,,,10,1146,,,,,,,,,,,,,,,,,139,W,star,1,0,,,,,,,,,,,,,,,,repeat,number,numRpt,d,0.6802,Hi,,,,,,6,,,,,,,,high,2,0,2,0,1,,,,,,,,,
298291,2022-11-29_13h24.50.951,vts_reward_expectancy_bt,2022.2.4,MacIntel,60.0024001,Chrome,1440,900,,,,,10,1156,,,,,,,,,,,,,,,,,125,U,triangle,1,0,,,,,,,,,,,,,,,,repeat,number,numRpt,d,0.7487,Hi,,,,,,6,,,,,,,,high,3,0,3,0,1,,,,,,,,,
