participant,date,expName,psychopyVersion,OS,frameRate,browser,xResolution,yResolution,key_resp.keys,key_resp.rt,training_resp.keys,training_resp.rt,points_trial,points_cumul,trainBlock,training.thisRepN,training.thisTrialN,training.thisN,training.thisIndex,training.ran,LTriangleOpac,LCircleOpac,LHexagonOpac,LStarOpac,RTriangleOpac,RCircleOpac,RHexagonOpac,RStarOpac,LShape_ID,RShape_ID,curr_topStim,curr_bottStim,curr_shape,acc,E1,target_resp_prac1.keys,target_resp_prac1.rt,pracBlock,task1_prac_trials.thisRepN,task1_prac_trials.thisTrialN,task1_prac_trials.thisN,task1_prac_trials.thisIndex,task1_prac_trials.ran,target_resp_prac2.keys,target_resp_prac2.rt,task2_praac_trials.thisRepN,task2_praac_trials.thisTrialN,task2_praac_trials.thisN,task2_praac_trials.thisIndex,task2_praac_trials.ran,alt,task,condition,target_resp.keys,target_resp.rt,rewCond,vts_practice_trials.thisRepN,vts_practice_trials.thisTrialN,vts_practice_trials.thisN,vts_practice_trials.thisIndex,vts_practice_trials.ran,blockNum,trials_norew.thisRepN,trials_norew.thisTrialN,trials_norew.thisN,trials_norew.thisIndex,trials_norew.ran,key_resp_2.keys,key_resp_2.rt,rewExpectancy,trials_rew.thisRepN,trials_rew.thisTrialN,trials_rew.thisN,trials_rew.thisIndex,trials_rew.ran,Q1,Q2,Q2_text,Q3,Q4,Q5_text,xRes,yRes
298240,2022-12-07_13h59.01.580,vts_reward_expectancy_bt,2022.2.4,Win32,60.6391365,Chrome,1536,864,,,,,,,,,,,,,,,,,,,,,,,,,,,,,,,,,,,,,,,,,,,,,,,,,,,,,,,,,,,,,,,,,,,,,,,,,,,
298240,2022-12-07_13h59.01.580,vts_reward_expectancy_bt,2022.2.4,Win32,60.6391365,Chrome,1536,864,space,29.0616,,,,,,,,,,,,,,,,,,,,,,,,,,,,,,,,,,,,,,,,,,,,,,,,,,,,,,,,,,,,,,,,,,,,,,,,,
298240,2022-12-07_13h59.01.580,vts_reward_expectancy_bt,2022.2.4,Win32,60.6391365,Chrome,1536,864,,,,,,,,,,,,,,,,,,,,,,,,,,,,,,,,,,,,,,,,,,,,,,,,,,,,,,,,,,,,,,,,,,,,,,,,,,,
298240,2022-12-07_13h59.01.580,vts_reward_expectancy_bt,2022.2.4,Win32,60.6391365,Chrome,1536,864,,,a,1.2544,0,0,0,0,0,0,10,1,0,0,0,1,0,1,0,0,star ,circle,,,,,,,,,,,,,,,,,,,,,,,,,,,,,,,,,,,,,,,,,,,,,,,,,,,,,
298240,2022-12-07_13h59.01.580,vts_reward_expectancy_bt,2022.2.4,Win32,60.6391365,Chrome,1536,864,,,l,0.8595,10,10,0,0,1,1,5,1,0,1,0,0,0,0,0,1,circle,star,,,,,,,,,,,,,,,,,,,,,,,,,,,,,,,,,,,,,,,,,,,,,,,,,,,,,
298240,2022-12-07_13h59.01.580,vts_reward_expectancy_bt,2022.2.4,Win32,60.6391365,Chrome,1536,864,,,l,1.169,1,11,0,0,2,2,7,1,0,0,1,0,0,1,0,0,hexagon,circle,,,,,,,,,,,,,,,,,,,,,,,,,,,,,,,,,,,,,,,,,,,,,,,,,,,,,
298240,2022-12-07_13h59.01.580,vts_reward_expectancy_bt,2022.2.4,Win32,60.6391365,Chrome,1536,864,,,a,1.2694,1,12,0,0,3,3,3,1,0,1,0,0,1,0,0,0,circle,triangle,,,,,,,,,,,,,,,,,,,,,,,,,,,,,,,,,,,,,,,,,,,,,,,,,,,,,
298240,2022-12-07_13h59.01.580,vts_reward_expectancy_bt,2022.2.4,Win32,60.6391365,Chrome,1536,864,,,l,0.9533,1,13,0,0,4,4,4,1,0,1,0,0,0,0,1,0,circle,hexagon,,,,,,,,,,,,,,,,,,,,,,,,,,,,,,,,,,,,,,,,,,,,,,,,,,,,,
298240,2022-12-07_13h59.01.580,vts_reward_expectancy_bt,2022.2.4,Win32,60.6391365,Chrome,1536,864,,,a,0.9696,10,23,0,0,5,5,1,1,1,0,0,0,0,0,1,0,triangle,hexagon,,,,,,,,,,,,,,,,,,,,,,,,,,,,,,,,,,,,,,,,,,,,,,,,,,,,,
298240,2022-12-07_13h59.01.580,vts_reward_expectancy_bt,2022.2.4,Win32,60.6391365,Chrome,1536,864,,,l,1.1462,10,33,0,0,6,6,8,1,0,0,1,0,0,0,0,1,hexagon,star,,,,,,,,,,,,,,,,,,,,,,,,,,,,,,,,,,,,,,,,,,,,,,,,,,,,,
298240,2022-12-07_13h59.01.580,vts_reward_expectancy_bt,2022.2.4,Win32,60.6391365,Chrome,1536,864,,,l,1.3694,10,43,0,0,7,7,9,1,0,0,0,1,1,0,0,0,star,triangle,,,,,,,,,,,,,,,,,,,,,,,,,,,,,,,,,,,,,,,,,,,,,,,,,,,,,
298240,2022-12-07_13h59.01.580,vts_reward_expectancy_bt,2022.2.4,Win32,60.6391365,Chrome,1536,864,,,l,0.9016,1,44,0,0,8,8,6,1,0,0,1,0,1,0,0,0,hexagon,triangle,,,,,,,,,,,,,,,,,,,,,,,,,,,,,,,,,,,,,,,,,,,,,,,,,,,,,
298240,2022-12-07_13h59.01.580,vts_reward_expectancy_bt,2022.2.4,Win32,60.6391365,Chrome,1536,864,,,a,0.9703,1,45,0,0,9,9,0,1,1,0,0,0,0,1,0,0,triangle,circle,,,,,,,,,,,,,,,,,,,,,,,,,,,,,,,,,,,,,,,,,,,,,,,,,,,,,
298240,2022-12-07_13h59.01.580,vts_reward_expectancy_bt,2022.2.4,Win32,60.6391365,Chrome,1536,864,,,l,0.7424,10,55,0,0,10,10,2,1,1,0,0,0,0,0,0,1,triangle,star,,,,,,,,,,,,,,,,,,,,,,,,,,,,,,,,,,,,,,,,,,,,,,,,,,,,,
298240,2022-12-07_13h59.01.580,vts_reward_expectancy_bt,2022.2.4,Win32,60.6391365,Chrome,1536,864,,,l,0.903,1,56,0,0,11,11,11,1,0,0,0,1,0,0,1,0,star,hexagon,,,,,,,,,,,,,,,,,,,,,,,,,,,,,,,,,,,,,,,,,,,,,,,,,,,,,
298240,2022-12-07_13h59.01.580,vts_reward_expectancy_bt,2022.2.4,Win32,60.6391365,Chrome,1536,864,,,l,0.9192,1,57,0,1,0,12,1,1,1,0,0,0,0,0,1,0,triangle,hexagon,,,,,,,,,,,,,,,,,,,,,,,,,,,,,,,,,,,,,,,,,,,,,,,,,,,,,
298240,2022-12-07_13h59.01.580,vts_reward_expectancy_bt,2022.2.4,Win32,60.6391365,Chrome,1536,864,,,a,0.5374,10,67,0,1,1,13,9,1,0,0,0,1,1,0,0,0,star,triangle,,,,,,,,,,,,,,,,,,,,,,,,,,,,,,,,,,,,,,,,,,,,,,,,,,,,,
298240,2022-12-07_13h59.01.580,vts_reward_expectancy_bt,2022.2.4,Win32,60.6391365,Chrome,1536,864,,,l,0.426,10,77,0,1,2,14,2,1,1,0,0,0,0,0,0,1,triangle,star,,,,,,,,,,,,,,,,,,,,,,,,,,,,,,,,,,,,,,,,,,,,,,,,,,,,,
298240,2022-12-07_13h59.01.580,vts_reward_expectancy_bt,2022.2.4,Win32,60.6391365,Chrome,1536,864,,,a,0.4306,1,78,0,1,3,15,11,1,0,0,0,1,0,0,1,0,star,hexagon,,,,,,,,,,,,,,,,,,,,,,,,,,,,,,,,,,,,,,,,,,,,,,,,,,,,,
298240,2022-12-07_13h59.01.580,vts_reward_expectancy_bt,2022.2.4,Win32,60.6391365,Chrome,1536,864,,,l,0.7499,10,88,0,1,4,16,4,1,0,1,0,0,0,0,1,0,circle,hexagon,,,,,,,,,,,,,,,,,,,,,,,,,,,,,,,,,,,,,,,,,,,,,,,,,,,,,
298240,2022-12-07_13h59.01.580,vts_reward_expectancy_bt,2022.2.4,Win32,60.6391365,Chrome,1536,864,,,l,0.8304,1,89,0,1,5,17,10,1,0,0,0,1,0,1,0,0,star ,circle,,,,,,,,,,,,,,,,,,,,,,,,,,,,,,,,,,,,,,,,,,,,,,,,,,,,,
298240,2022-12-07_13h59.01.580,vts_reward_expectancy_bt,2022.2.4,Win32,60.6391365,Chrome,1536,864,,,a,1.095,10,99,0,1,6,18,8,1,0,0,1,0,0,0,0,1,hexagon,star,,,,,,,,,,,,,,,,,,,,,,,,,,,,,,,,,,,,,,,,,,,,,,,,,,,,,
298240,2022-12-07_13h59.01.580,vts_reward_expectancy_bt,2022.2.4,Win32,60.6391365,Chrome,1536,864,,,a,0.997,10,109,0,1,7,19,0,1,1,0,0,0,0,1,0,0,triangle,circle,,,,,,,,,,,,,,,,,,,,,,,,,,,,,,,,,,,,,,,,,,,,,,,,,,,,,
298240,2022-12-07_13h59.01.580,vts_reward_expectancy_bt,2022.2.4,Win32,60.6391365,Chrome,1536,864,,,l,0.5856,10,119,0,1,8,20,3,1,0,1,0,0,1,0,0,0,circle,triangle,,,,,,,,,,,,,,,,,,,,,,,,,,,,,,,,,,,,,,,,,,,,,,,,,,,,,
298240,2022-12-07_13h59.01.580,vts_reward_expectancy_bt,2022.2.4,Win32,60.6391365,Chrome,1536,864,,,a,0.5972,1,120,0,1,9,21,7,1,0,0,1,0,0,1,0,0,hexagon,circle,,,,,,,,,,,,,,,,,,,,,,,,,,,,,,,,,,,,,,,,,,,,,,,,,,,,,
298240,2022-12-07_13h59.01.580,vts_reward_expectancy_bt,2022.2.4,Win32,60.6391365,Chrome,1536,864,,,l,0.9189,10,130,0,1,10,22,6,1,0,0,1,0,1,0,0,0,hexagon,triangle,,,,,,,,,,,,,,,,,,,,,,,,,,,,,,,,,,,,,,,,,,,,,,,,,,,,,
298240,2022-12-07_13h59.01.580,vts_reward_expectancy_bt,2022.2.4,Win32,60.6391365,Chrome,1536,864,,,l,0.7857,10,140,0,1,11,23,5,1,0,1,0,0,0,0,0,1,circle,star,,,,,,,,,,,,,,,,,,,,,,,,,,,,,,,,,,,,,,,,,,,,,,,,,,,,,
298240,2022-12-07_13h59.01.580,vts_reward_expectancy_bt,2022.2.4,Win32,60.6391365,Chrome,1536,864,,,a,0.5381,10,150,0,2,0,24,1,1,1,0,0,0,0,0,1,0,triangle,hexagon,,,,,,,,,,,,,,,,,,,,,,,,,,,,,,,,,,,,,,,,,,,,,,,,,,,,,
298240,2022-12-07_13h59.01.580,vts_reward_expectancy_bt,2022.2.4,Win32,60.6391365,Chrome,1536,864,,,a,0.6508,1,151,0,2,1,25,9,1,0,0,0,1,1,0,0,0,star,triangle,,,,,,,,,,,,,,,,,,,,,,,,,,,,,,,,,,,,,,,,,,,,,,,,,,,,,
298240,2022-12-07_13h59.01.580,vts_reward_expectancy_bt,2022.2.4,Win32,60.6391365,Chrome,1536,864,,,l,0.476,1,152,0,2,2,26,11,1,0,0,0,1,0,0,1,0,star,hexagon,,,,,,,,,,,,,,,,,,,,,,,,,,,,,,,,,,,,,,,,,,,,,,,,,,,,,
298240,2022-12-07_13h59.01.580,vts_reward_expectancy_bt,2022.2.4,Win32,60.6391365,Chrome,1536,864,,,a,0.9148,1,153,0,2,3,27,5,1,0,1,0,0,0,0,0,1,circle,star,,,,,,,,,,,,,,,,,,,,,,,,,,,,,,,,,,,,,,,,,,,,,,,,,,,,,
298240,2022-12-07_13h59.01.580,vts_reward_expectancy_bt,2022.2.4,Win32,60.6391365,Chrome,1536,864,,,a,0.6081,1,154,0,2,4,28,10,1,0,0,0,1,0,1,0,0,star ,circle,,,,,,,,,,,,,,,,,,,,,,,,,,,,,,,,,,,,,,,,,,,,,,,,,,,,,
298240,2022-12-07_13h59.01.580,vts_reward_expectancy_bt,2022.2.4,Win32,60.6391365,Chrome,1536,864,,,a,0.9226,1,155,0,2,5,29,8,1,0,0,1,0,0,0,0,1,hexagon,star,,,,,,,,,,,,,,,,,,,,,,,,,,,,,,,,,,,,,,,,,,,,,,,,,,,,,
298240,2022-12-07_13h59.01.580,vts_reward_expectancy_bt,2022.2.4,Win32,60.6391365,Chrome,1536,864,,,l,0.565,1,156,0,2,6,30,6,1,0,0,1,0,1,0,0,0,hexagon,triangle,,,,,,,,,,,,,,,,,,,,,,,,,,,,,,,,,,,,,,,,,,,,,,,,,,,,,
298240,2022-12-07_13h59.01.580,vts_reward_expectancy_bt,2022.2.4,Win32,60.6391365,Chrome,1536,864,,,l,0.5511,10,166,0,2,7,31,2,1,1,0,0,0,0,0,0,1,triangle,star,,,,,,,,,,,,,,,,,,,,,,,,,,,,,,,,,,,,,,,,,,,,,,,,,,,,,
298240,2022-12-07_13h59.01.580,vts_reward_expectancy_bt,2022.2.4,Win32,60.6391365,Chrome,1536,864,,,a,0.6984,1,167,0,2,8,32,7,1,0,0,1,0,0,1,0,0,hexagon,circle,,,,,,,,,,,,,,,,,,,,,,,,,,,,,,,,,,,,,,,,,,,,,,,,,,,,,
298240,2022-12-07_13h59.01.580,vts_reward_expectancy_bt,2022.2.4,Win32,60.6391365,Chrome,1536,864,,,l,0.8718,1,168,0,2,9,33,4,1,0,1,0,0,0,0,1,0,circle,hexagon,,,,,,,,,,,,,,,,,,,,,,,,,,,,,,,,,,,,,,,,,,,,,,,,,,,,,
298240,2022-12-07_13h59.01.580,vts_reward_expectancy_bt,2022.2.4,Win32,60.6391365,Chrome,1536,864,,,l,0.697,1,169,0,2,10,34,3,1,0,1,0,0,1,0,0,0,circle,triangle,,,,,,,,,,,,,,,,,,,,,,,,,,,,,,,,,,,,,,,,,,,,,,,,,,,,,
298240,2022-12-07_13h59.01.580,vts_reward_expectancy_bt,2022.2.4,Win32,60.6391365,Chrome,1536,864,,,a,0.6641,10,179,0,2,11,35,0,1,1,0,0,0,0,1,0,0,triangle,circle,,,,,,,,,,,,,,,,,,,,,,,,,,,,,,,,,,,,,,,,,,,,,,,,,,,,,
298240,2022-12-07_13h59.01.580,vts_reward_expectancy_bt,2022.2.4,Win32,60.6391365,Chrome,1536,864,,,a,0.9802,1,180,1,0,0,0,9,1,0,0,0,1,1,0,0,0,star,triangle,,,,,,,,,,,,,,,,,,,,,,,,,,,,,,,,,,,,,,,,,,,,,,,,,,,,,
298240,2022-12-07_13h59.01.580,vts_reward_expectancy_bt,2022.2.4,Win32,60.6391365,Chrome,1536,864,,,l,0.4084,1,181,1,0,1,1,3,1,0,1,0,0,1,0,0,0,circle,triangle,,,,,,,,,,,,,,,,,,,,,,,,,,,,,,,,,,,,,,,,,,,,,,,,,,,,,
298240,2022-12-07_13h59.01.580,vts_reward_expectancy_bt,2022.2.4,Win32,60.6391365,Chrome,1536,864,,,l,0.3538,10,191,1,0,2,2,0,1,1,0,0,0,0,1,0,0,triangle,circle,,,,,,,,,,,,,,,,,,,,,,,,,,,,,,,,,,,,,,,,,,,,,,,,,,,,,
298240,2022-12-07_13h59.01.580,vts_reward_expectancy_bt,2022.2.4,Win32,60.6391365,Chrome,1536,864,,,l,0.434,1,192,1,0,3,3,10,1,0,0,0,1,0,1,0,0,star ,circle,,,,,,,,,,,,,,,,,,,,,,,,,,,,,,,,,,,,,,,,,,,,,,,,,,,,,
298240,2022-12-07_13h59.01.580,vts_reward_expectancy_bt,2022.2.4,Win32,60.6391365,Chrome,1536,864,,,l,0.6508,1,193,1,0,4,4,2,1,1,0,0,0,0,0,0,1,triangle,star,,,,,,,,,,,,,,,,,,,,,,,,,,,,,,,,,,,,,,,,,,,,,,,,,,,,,
298240,2022-12-07_13h59.01.580,vts_reward_expectancy_bt,2022.2.4,Win32,60.6391365,Chrome,1536,864,,,l,1.0536,10,203,1,0,5,5,8,1,0,0,1,0,0,0,0,1,hexagon,star,,,,,,,,,,,,,,,,,,,,,,,,,,,,,,,,,,,,,,,,,,,,,,,,,,,,,
298240,2022-12-07_13h59.01.580,vts_reward_expectancy_bt,2022.2.4,Win32,60.6391365,Chrome,1536,864,,,l,2.4364,1,204,1,0,6,6,6,1,0,0,1,0,1,0,0,0,hexagon,triangle,,,,,,,,,,,,,,,,,,,,,,,,,,,,,,,,,,,,,,,,,,,,,,,,,,,,,
298240,2022-12-07_13h59.01.580,vts_reward_expectancy_bt,2022.2.4,Win32,60.6391365,Chrome,1536,864,,,a,0.5,10,214,1,0,7,7,11,1,0,0,0,1,0,0,1,0,star,hexagon,,,,,,,,,,,,,,,,,,,,,,,,,,,,,,,,,,,,,,,,,,,,,,,,,,,,,
298240,2022-12-07_13h59.01.580,vts_reward_expectancy_bt,2022.2.4,Win32,60.6391365,Chrome,1536,864,,,l,1.7083,1,215,1,0,8,8,4,1,0,1,0,0,0,0,1,0,circle,hexagon,,,,,,,,,,,,,,,,,,,,,,,,,,,,,,,,,,,,,,,,,,,,,,,,,,,,,
298240,2022-12-07_13h59.01.580,vts_reward_expectancy_bt,2022.2.4,Win32,60.6391365,Chrome,1536,864,,,a,0.6204,1,216,1,0,9,9,1,1,1,0,0,0,0,0,1,0,triangle,hexagon,,,,,,,,,,,,,,,,,,,,,,,,,,,,,,,,,,,,,,,,,,,,,,,,,,,,,
298240,2022-12-07_13h59.01.580,vts_reward_expectancy_bt,2022.2.4,Win32,60.6391365,Chrome,1536,864,,,a,2.4204,1,217,1,0,10,10,5,1,0,1,0,0,0,0,0,1,circle,star,,,,,,,,,,,,,,,,,,,,,,,,,,,,,,,,,,,,,,,,,,,,,,,,,,,,,
298240,2022-12-07_13h59.01.580,vts_reward_expectancy_bt,2022.2.4,Win32,60.6391365,Chrome,1536,864,,,l,1.1078,1,218,1,0,11,11,7,1,0,0,1,0,0,1,0,0,hexagon,circle,,,,,,,,,,,,,,,,,,,,,,,,,,,,,,,,,,,,,,,,,,,,,,,,,,,,,
298240,2022-12-07_13h59.01.580,vts_reward_expectancy_bt,2022.2.4,Win32,60.6391365,Chrome,1536,864,,,l,0.5024,1,219,1,1,0,12,7,1,0,0,1,0,0,1,0,0,hexagon,circle,,,,,,,,,,,,,,,,,,,,,,,,,,,,,,,,,,,,,,,,,,,,,,,,,,,,,
298240,2022-12-07_13h59.01.580,vts_reward_expectancy_bt,2022.2.4,Win32,60.6391365,Chrome,1536,864,,,a,1.334,10,229,1,1,1,13,3,1,0,1,0,0,1,0,0,0,circle,triangle,,,,,,,,,,,,,,,,,,,,,,,,,,,,,,,,,,,,,,,,,,,,,,,,,,,,,
298240,2022-12-07_13h59.01.580,vts_reward_expectancy_bt,2022.2.4,Win32,60.6391365,Chrome,1536,864,,,a,1.1004,10,239,1,1,2,14,0,1,1,0,0,0,0,1,0,0,triangle,circle,,,,,,,,,,,,,,,,,,,,,,,,,,,,,,,,,,,,,,,,,,,,,,,,,,,,,
298240,2022-12-07_13h59.01.580,vts_reward_expectancy_bt,2022.2.4,Win32,60.6391365,Chrome,1536,864,,,a,0.8401,1,240,1,1,3,15,8,1,0,0,1,0,0,0,0,1,hexagon,star,,,,,,,,,,,,,,,,,,,,,,,,,,,,,,,,,,,,,,,,,,,,,,,,,,,,,
298240,2022-12-07_13h59.01.580,vts_reward_expectancy_bt,2022.2.4,Win32,60.6391365,Chrome,1536,864,,,a,0.9113,1,241,1,1,4,16,10,1,0,0,0,1,0,1,0,0,star ,circle,,,,,,,,,,,,,,,,,,,,,,,,,,,,,,,,,,,,,,,,,,,,,,,,,,,,,
298240,2022-12-07_13h59.01.580,vts_reward_expectancy_bt,2022.2.4,Win32,60.6391365,Chrome,1536,864,,,l,1.0327,1,242,1,1,5,17,2,1,1,0,0,0,0,0,0,1,triangle,star,,,,,,,,,,,,,,,,,,,,,,,,,,,,,,,,,,,,,,,,,,,,,,,,,,,,,
298240,2022-12-07_13h59.01.580,vts_reward_expectancy_bt,2022.2.4,Win32,60.6391365,Chrome,1536,864,,,l,1.1503,1,243,1,1,6,18,4,1,0,1,0,0,0,0,1,0,circle,hexagon,,,,,,,,,,,,,,,,,,,,,,,,,,,,,,,,,,,,,,,,,,,,,,,,,,,,,
298240,2022-12-07_13h59.01.580,vts_reward_expectancy_bt,2022.2.4,Win32,60.6391365,Chrome,1536,864,,,a,1.0821,1,244,1,1,7,19,11,1,0,0,0,1,0,0,1,0,star,hexagon,,,,,,,,,,,,,,,,,,,,,,,,,,,,,,,,,,,,,,,,,,,,,,,,,,,,,
298240,2022-12-07_13h59.01.580,vts_reward_expectancy_bt,2022.2.4,Win32,60.6391365,Chrome,1536,864,,,a,0.0553,10,254,1,1,8,20,9,1,0,0,0,1,1,0,0,0,star,triangle,,,,,,,,,,,,,,,,,,,,,,,,,,,,,,,,,,,,,,,,,,,,,,,,,,,,,
298240,2022-12-07_13h59.01.580,vts_reward_expectancy_bt,2022.2.4,Win32,60.6391365,Chrome,1536,864,,,a,0.6012,10,264,1,1,9,21,1,1,1,0,0,0,0,0,1,0,triangle,hexagon,,,,,,,,,,,,,,,,,,,,,,,,,,,,,,,,,,,,,,,,,,,,,,,,,,,,,
298240,2022-12-07_13h59.01.580,vts_reward_expectancy_bt,2022.2.4,Win32,60.6391365,Chrome,1536,864,,,l,1.3487,1,265,1,1,10,22,5,1,0,1,0,0,0,0,0,1,circle,star,,,,,,,,,,,,,,,,,,,,,,,,,,,,,,,,,,,,,,,,,,,,,,,,,,,,,
298240,2022-12-07_13h59.01.580,vts_reward_expectancy_bt,2022.2.4,Win32,60.6391365,Chrome,1536,864,,,a,0.705,1,266,1,1,11,23,6,1,0,0,1,0,1,0,0,0,hexagon,triangle,,,,,,,,,,,,,,,,,,,,,,,,,,,,,,,,,,,,,,,,,,,,,,,,,,,,,
298240,2022-12-07_13h59.01.580,vts_reward_expectancy_bt,2022.2.4,Win32,60.6391365,Chrome,1536,864,,,l,0.5232,1,267,1,2,0,24,4,1,0,1,0,0,0,0,1,0,circle,hexagon,,,,,,,,,,,,,,,,,,,,,,,,,,,,,,,,,,,,,,,,,,,,,,,,,,,,,
298240,2022-12-07_13h59.01.580,vts_reward_expectancy_bt,2022.2.4,Win32,60.6391365,Chrome,1536,864,,,l,0.4859,1,268,1,2,1,25,7,1,0,0,1,0,0,1,0,0,hexagon,circle,,,,,,,,,,,,,,,,,,,,,,,,,,,,,,,,,,,,,,,,,,,,,,,,,,,,,
298240,2022-12-07_13h59.01.580,vts_reward_expectancy_bt,2022.2.4,Win32,60.6391365,Chrome,1536,864,,,l,0.5644,10,278,1,2,2,26,3,1,0,1,0,0,1,0,0,0,circle,triangle,,,,,,,,,,,,,,,,,,,,,,,,,,,,,,,,,,,,,,,,,,,,,,,,,,,,,
298240,2022-12-07_13h59.01.580,vts_reward_expectancy_bt,2022.2.4,Win32,60.6391365,Chrome,1536,864,,,l,0.4475,1,279,1,2,3,27,10,1,0,0,0,1,0,1,0,0,star ,circle,,,,,,,,,,,,,,,,,,,,,,,,,,,,,,,,,,,,,,,,,,,,,,,,,,,,,
298240,2022-12-07_13h59.01.580,vts_reward_expectancy_bt,2022.2.4,Win32,60.6391365,Chrome,1536,864,,,l,0.4575,1,280,1,2,4,28,5,1,0,1,0,0,0,0,0,1,circle,star,,,,,,,,,,,,,,,,,,,,,,,,,,,,,,,,,,,,,,,,,,,,,,,,,,,,,
298240,2022-12-07_13h59.01.580,vts_reward_expectancy_bt,2022.2.4,Win32,60.6391365,Chrome,1536,864,,,a,0.5522,10,290,1,2,5,29,0,1,1,0,0,0,0,1,0,0,triangle,circle,,,,,,,,,,,,,,,,,,,,,,,,,,,,,,,,,,,,,,,,,,,,,,,,,,,,,
298240,2022-12-07_13h59.01.580,vts_reward_expectancy_bt,2022.2.4,Win32,60.6391365,Chrome,1536,864,,,a,0.4885,1,291,1,2,6,30,9,1,0,0,0,1,1,0,0,0,star,triangle,,,,,,,,,,,,,,,,,,,,,,,,,,,,,,,,,,,,,,,,,,,,,,,,,,,,,
298240,2022-12-07_13h59.01.580,vts_reward_expectancy_bt,2022.2.4,Win32,60.6391365,Chrome,1536,864,,,l,0.6004,1,292,1,2,7,31,6,1,0,0,1,0,1,0,0,0,hexagon,triangle,,,,,,,,,,,,,,,,,,,,,,,,,,,,,,,,,,,,,,,,,,,,,,,,,,,,,
298240,2022-12-07_13h59.01.580,vts_reward_expectancy_bt,2022.2.4,Win32,60.6391365,Chrome,1536,864,,,a,0.5078,10,302,1,2,8,32,1,1,1,0,0,0,0,0,1,0,triangle,hexagon,,,,,,,,,,,,,,,,,,,,,,,,,,,,,,,,,,,,,,,,,,,,,,,,,,,,,
298240,2022-12-07_13h59.01.580,vts_reward_expectancy_bt,2022.2.4,Win32,60.6391365,Chrome,1536,864,,,l,0.4355,10,312,1,2,9,33,2,1,1,0,0,0,0,0,0,1,triangle,star,,,,,,,,,,,,,,,,,,,,,,,,,,,,,,,,,,,,,,,,,,,,,,,,,,,,,
298240,2022-12-07_13h59.01.580,vts_reward_expectancy_bt,2022.2.4,Win32,60.6391365,Chrome,1536,864,,,l,0.437,1,313,1,2,10,34,8,1,0,0,1,0,0,0,0,1,hexagon,star,,,,,,,,,,,,,,,,,,,,,,,,,,,,,,,,,,,,,,,,,,,,,,,,,,,,,
298240,2022-12-07_13h59.01.580,vts_reward_expectancy_bt,2022.2.4,Win32,60.6391365,Chrome,1536,864,,,a,0.4247,1,314,1,2,11,35,11,1,0,0,0,1,0,0,1,0,star,hexagon,,,,,,,,,,,,,,,,,,,,,,,,,,,,,,,,,,,,,,,,,,,,,,,,,,,,,
298240,2022-12-07_13h59.01.580,vts_reward_expectancy_bt,2022.2.4,Win32,60.6391365,Chrome,1536,864,,,a,0.6585,10,324,2,0,0,0,0,1,1,0,0,0,0,1,0,0,triangle,circle,,,,,,,,,,,,,,,,,,,,,,,,,,,,,,,,,,,,,,,,,,,,,,,,,,,,,
298240,2022-12-07_13h59.01.580,vts_reward_expectancy_bt,2022.2.4,Win32,60.6391365,Chrome,1536,864,,,l,0.3898,10,334,2,0,1,1,6,1,0,0,1,0,1,0,0,0,hexagon,triangle,,,,,,,,,,,,,,,,,,,,,,,,,,,,,,,,,,,,,,,,,,,,,,,,,,,,,
298240,2022-12-07_13h59.01.580,vts_reward_expectancy_bt,2022.2.4,Win32,60.6391365,Chrome,1536,864,,,l,0.4013,10,344,2,0,2,2,9,1,0,0,0,1,1,0,0,0,star,triangle,,,,,,,,,,,,,,,,,,,,,,,,,,,,,,,,,,,,,,,,,,,,,,,,,,,,,
298240,2022-12-07_13h59.01.580,vts_reward_expectancy_bt,2022.2.4,Win32,60.6391365,Chrome,1536,864,,,a,0.4087,10,354,2,0,3,3,2,1,1,0,0,0,0,0,0,1,triangle,star,,,,,,,,,,,,,,,,,,,,,,,,,,,,,,,,,,,,,,,,,,,,,,,,,,,,,
298240,2022-12-07_13h59.01.580,vts_reward_expectancy_bt,2022.2.4,Win32,60.6391365,Chrome,1536,864,,,l,0.7237,1,355,2,0,4,4,8,1,0,0,1,0,0,0,0,1,hexagon,star,,,,,,,,,,,,,,,,,,,,,,,,,,,,,,,,,,,,,,,,,,,,,,,,,,,,,
298240,2022-12-07_13h59.01.580,vts_reward_expectancy_bt,2022.2.4,Win32,60.6391365,Chrome,1536,864,,,a,0.7401,1,356,2,0,5,5,10,1,0,0,0,1,0,1,0,0,star ,circle,,,,,,,,,,,,,,,,,,,,,,,,,,,,,,,,,,,,,,,,,,,,,,,,,,,,,
298240,2022-12-07_13h59.01.580,vts_reward_expectancy_bt,2022.2.4,Win32,60.6391365,Chrome,1536,864,,,a,0.4345,1,357,2,0,6,6,4,1,0,1,0,0,0,0,1,0,circle,hexagon,,,,,,,,,,,,,,,,,,,,,,,,,,,,,,,,,,,,,,,,,,,,,,,,,,,,,
298240,2022-12-07_13h59.01.580,vts_reward_expectancy_bt,2022.2.4,Win32,60.6391365,Chrome,1536,864,,,l,0.343,10,367,2,0,7,7,1,1,1,0,0,0,0,0,1,0,triangle,hexagon,,,,,,,,,,,,,,,,,,,,,,,,,,,,,,,,,,,,,,,,,,,,,,,,,,,,,
298240,2022-12-07_13h59.01.580,vts_reward_expectancy_bt,2022.2.4,Win32,60.6391365,Chrome,1536,864,,,l,0.421,1,368,2,0,8,8,7,1,0,0,1,0,0,1,0,0,hexagon,circle,,,,,,,,,,,,,,,,,,,,,,,,,,,,,,,,,,,,,,,,,,,,,,,,,,,,,
298240,2022-12-07_13h59.01.580,vts_reward_expectancy_bt,2022.2.4,Win32,60.6391365,Chrome,1536,864,,,l,0.5535,10,378,2,0,9,9,3,1,0,1,0,0,1,0,0,0,circle,triangle,,,,,,,,,,,,,,,,,,,,,,,,,,,,,,,,,,,,,,,,,,,,,,,,,,,,,
298240,2022-12-07_13h59.01.580,vts_reward_expectancy_bt,2022.2.4,Win32,60.6391365,Chrome,1536,864,,,l,0.0366,1,379,2,0,10,10,11,1,0,0,0,1,0,0,1,0,star,hexagon,,,,,,,,,,,,,,,,,,,,,,,,,,,,,,,,,,,,,,,,,,,,,,,,,,,,,
298240,2022-12-07_13h59.01.580,vts_reward_expectancy_bt,2022.2.4,Win32,60.6391365,Chrome,1536,864,,,l,0.4355,1,380,2,0,11,11,5,1,0,1,0,0,0,0,0,1,circle,star,,,,,,,,,,,,,,,,,,,,,,,,,,,,,,,,,,,,,,,,,,,,,,,,,,,,,
298240,2022-12-07_13h59.01.580,vts_reward_expectancy_bt,2022.2.4,Win32,60.6391365,Chrome,1536,864,,,l,0.5613,1,381,2,1,0,12,9,1,0,0,0,1,1,0,0,0,star,triangle,,,,,,,,,,,,,,,,,,,,,,,,,,,,,,,,,,,,,,,,,,,,,,,,,,,,,
298240,2022-12-07_13h59.01.580,vts_reward_expectancy_bt,2022.2.4,Win32,60.6391365,Chrome,1536,864,,,l,0.5075,1,382,2,1,1,13,0,1,1,0,0,0,0,1,0,0,triangle,circle,,,,,,,,,,,,,,,,,,,,,,,,,,,,,,,,,,,,,,,,,,,,,,,,,,,,,
298240,2022-12-07_13h59.01.580,vts_reward_expectancy_bt,2022.2.4,Win32,60.6391365,Chrome,1536,864,,,l,1.2421,10,392,2,1,2,14,10,1,0,0,0,1,0,1,0,0,star ,circle,,,,,,,,,,,,,,,,,,,,,,,,,,,,,,,,,,,,,,,,,,,,,,,,,,,,,
298240,2022-12-07_13h59.01.580,vts_reward_expectancy_bt,2022.2.4,Win32,60.6391365,Chrome,1536,864,,,l,0.3855,10,402,2,1,3,15,1,1,1,0,0,0,0,0,1,0,triangle,hexagon,,,,,,,,,,,,,,,,,,,,,,,,,,,,,,,,,,,,,,,,,,,,,,,,,,,,,
298240,2022-12-07_13h59.01.580,vts_reward_expectancy_bt,2022.2.4,Win32,60.6391365,Chrome,1536,864,,,l,0.5878,10,412,2,1,4,16,11,1,0,0,0,1,0,0,1,0,star,hexagon,,,,,,,,,,,,,,,,,,,,,,,,,,,,,,,,,,,,,,,,,,,,,,,,,,,,,
298240,2022-12-07_13h59.01.580,vts_reward_expectancy_bt,2022.2.4,Win32,60.6391365,Chrome,1536,864,,,l,0.9839,1,413,2,1,5,17,8,1,0,0,1,0,0,0,0,1,hexagon,star,,,,,,,,,,,,,,,,,,,,,,,,,,,,,,,,,,,,,,,,,,,,,,,,,,,,,
298240,2022-12-07_13h59.01.580,vts_reward_expectancy_bt,2022.2.4,Win32,60.6391365,Chrome,1536,864,,,l,0.719,10,423,2,1,6,18,7,1,0,0,1,0,0,1,0,0,hexagon,circle,,,,,,,,,,,,,,,,,,,,,,,,,,,,,,,,,,,,,,,,,,,,,,,,,,,,,
298240,2022-12-07_13h59.01.580,vts_reward_expectancy_bt,2022.2.4,Win32,60.6391365,Chrome,1536,864,,,l,1.5218,10,433,2,1,7,19,2,1,1,0,0,0,0,0,0,1,triangle,star,,,,,,,,,,,,,,,,,,,,,,,,,,,,,,,,,,,,,,,,,,,,,,,,,,,,,
298240,2022-12-07_13h59.01.580,vts_reward_expectancy_bt,2022.2.4,Win32,60.6391365,Chrome,1536,864,,,l,1.3031,10,443,2,1,8,20,3,1,0,1,0,0,1,0,0,0,circle,triangle,,,,,,,,,,,,,,,,,,,,,,,,,,,,,,,,,,,,,,,,,,,,,,,,,,,,,
298240,2022-12-07_13h59.01.580,vts_reward_expectancy_bt,2022.2.4,Win32,60.6391365,Chrome,1536,864,,,l,0.3845,10,453,2,1,9,21,5,1,0,1,0,0,0,0,0,1,circle,star,,,,,,,,,,,,,,,,,,,,,,,,,,,,,,,,,,,,,,,,,,,,,,,,,,,,,
298240,2022-12-07_13h59.01.580,vts_reward_expectancy_bt,2022.2.4,Win32,60.6391365,Chrome,1536,864,,,l,0.8934,1,454,2,1,10,22,4,1,0,1,0,0,0,0,1,0,circle,hexagon,,,,,,,,,,,,,,,,,,,,,,,,,,,,,,,,,,,,,,,,,,,,,,,,,,,,,
298240,2022-12-07_13h59.01.580,vts_reward_expectancy_bt,2022.2.4,Win32,60.6391365,Chrome,1536,864,,,l,0.4019,10,464,2,1,11,23,6,1,0,0,1,0,1,0,0,0,hexagon,triangle,,,,,,,,,,,,,,,,,,,,,,,,,,,,,,,,,,,,,,,,,,,,,,,,,,,,,
298240,2022-12-07_13h59.01.580,vts_reward_expectancy_bt,2022.2.4,Win32,60.6391365,Chrome,1536,864,,,l,0.9589,1,465,2,2,0,24,6,1,0,0,1,0,1,0,0,0,hexagon,triangle,,,,,,,,,,,,,,,,,,,,,,,,,,,,,,,,,,,,,,,,,,,,,,,,,,,,,
298240,2022-12-07_13h59.01.580,vts_reward_expectancy_bt,2022.2.4,Win32,60.6391365,Chrome,1536,864,,,l,0.7174,1,466,2,2,1,25,11,1,0,0,0,1,0,0,1,0,star,hexagon,,,,,,,,,,,,,,,,,,,,,,,,,,,,,,,,,,,,,,,,,,,,,,,,,,,,,
298240,2022-12-07_13h59.01.580,vts_reward_expectancy_bt,2022.2.4,Win32,60.6391365,Chrome,1536,864,,,l,0.69,1,467,2,2,2,26,0,1,1,0,0,0,0,1,0,0,triangle,circle,,,,,,,,,,,,,,,,,,,,,,,,,,,,,,,,,,,,,,,,,,,,,,,,,,,,,
298240,2022-12-07_13h59.01.580,vts_reward_expectancy_bt,2022.2.4,Win32,60.6391365,Chrome,1536,864,,,l,0.5091,10,477,2,2,3,27,4,1,0,1,0,0,0,0,1,0,circle,hexagon,,,,,,,,,,,,,,,,,,,,,,,,,,,,,,,,,,,,,,,,,,,,,,,,,,,,,
298240,2022-12-07_13h59.01.580,vts_reward_expectancy_bt,2022.2.4,Win32,60.6391365,Chrome,1536,864,,,l,0.5741,10,487,2,2,4,28,2,1,1,0,0,0,0,0,0,1,triangle,star,,,,,,,,,,,,,,,,,,,,,,,,,,,,,,,,,,,,,,,,,,,,,,,,,,,,,
298240,2022-12-07_13h59.01.580,vts_reward_expectancy_bt,2022.2.4,Win32,60.6391365,Chrome,1536,864,,,l,0.452,1,488,2,2,5,29,10,1,0,0,0,1,0,1,0,0,star ,circle,,,,,,,,,,,,,,,,,,,,,,,,,,,,,,,,,,,,,,,,,,,,,,,,,,,,,
298240,2022-12-07_13h59.01.580,vts_reward_expectancy_bt,2022.2.4,Win32,60.6391365,Chrome,1536,864,,,l,1.0392,1,489,2,2,6,30,5,1,0,1,0,0,0,0,0,1,circle,star,,,,,,,,,,,,,,,,,,,,,,,,,,,,,,,,,,,,,,,,,,,,,,,,,,,,,
298240,2022-12-07_13h59.01.580,vts_reward_expectancy_bt,2022.2.4,Win32,60.6391365,Chrome,1536,864,,,l,0.6449,1,490,2,2,7,31,1,1,1,0,0,0,0,0,1,0,triangle,hexagon,,,,,,,,,,,,,,,,,,,,,,,,,,,,,,,,,,,,,,,,,,,,,,,,,,,,,
298240,2022-12-07_13h59.01.580,vts_reward_expectancy_bt,2022.2.4,Win32,60.6391365,Chrome,1536,864,,,l,1.0201,10,500,2,2,8,32,9,1,0,0,0,1,1,0,0,0,star,triangle,,,,,,,,,,,,,,,,,,,,,,,,,,,,,,,,,,,,,,,,,,,,,,,,,,,,,
298240,2022-12-07_13h59.01.580,vts_reward_expectancy_bt,2022.2.4,Win32,60.6391365,Chrome,1536,864,,,l,0.3691,1,501,2,2,9,33,8,1,0,0,1,0,0,0,0,1,hexagon,star,,,,,,,,,,,,,,,,,,,,,,,,,,,,,,,,,,,,,,,,,,,,,,,,,,,,,
298240,2022-12-07_13h59.01.580,vts_reward_expectancy_bt,2022.2.4,Win32,60.6391365,Chrome,1536,864,,,l,0.505,10,511,2,2,10,34,3,1,0,1,0,0,1,0,0,0,circle,triangle,,,,,,,,,,,,,,,,,,,,,,,,,,,,,,,,,,,,,,,,,,,,,,,,,,,,,
298240,2022-12-07_13h59.01.580,vts_reward_expectancy_bt,2022.2.4,Win32,60.6391365,Chrome,1536,864,,,l,0.6548,10,521,2,2,11,35,7,1,0,0,1,0,0,1,0,0,hexagon,circle,,,,,,,,,,,,,,,,,,,,,,,,,,,,,,,,,,,,,,,,,,,,,,,,,,,,,
298240,2022-12-07_13h59.01.580,vts_reward_expectancy_bt,2022.2.4,Win32,60.6391365,Chrome,1536,864,,,,,,,,,,,,,,,,,,,,,,,160,D,hexagon,1,0,f,0.8802,0,0,0,0,0,1,,,,,,,,,,,,,,,,,,,,,,,,,,,,,,,,,,,,,,,,
298240,2022-12-07_13h59.01.580,vts_reward_expectancy_bt,2022.2.4,Win32,60.6391365,Chrome,1536,864,,,,,,,,,,,,,,,,,,,,,,,167,W,star,1,0,f,0.9523,0,1,0,1,0,1,,,,,,,,,,,,,,,,,,,,,,,,,,,,,,,,,,,,,,,,
298240,2022-12-07_13h59.01.580,vts_reward_expectancy_bt,2022.2.4,Win32,60.6391365,Chrome,1536,864,,,,,,,,,,,,,,,,,,,,,,,146,U,circle,1,0,d,1.2768,0,2,0,2,0,1,,,,,,,,,,,,,,,,,,,,,,,,,,,,,,,,,,,,,,,,
298240,2022-12-07_13h59.01.580,vts_reward_expectancy_bt,2022.2.4,Win32,60.6391365,Chrome,1536,864,,,,,,,,,,,,,,,,,,,,,,,125,H,triangle,1,0,d,0.7313,0,3,0,3,0,1,,,,,,,,,,,,,,,,,,,,,,,,,,,,,,,,,,,,,,,,
298240,2022-12-07_13h59.01.580,vts_reward_expectancy_bt,2022.2.4,Win32,60.6391365,Chrome,1536,864,,,,,,,,,,,,,,,,,,,,,,,139,B,hexagon,1,0,d,1.0276,0,4,0,4,0,1,,,,,,,,,,,,,,,,,,,,,,,,,,,,,,,,,,,,,,,,
298240,2022-12-07_13h59.01.580,vts_reward_expectancy_bt,2022.2.4,Win32,60.6391365,Chrome,1536,864,,,,,,,,,,,,,,,,,,,,,,,174,F,star,1,0,f,0.5454,0,5,0,5,0,1,,,,,,,,,,,,,,,,,,,,,,,,,,,,,,,,,,,,,,,,
298240,2022-12-07_13h59.01.580,vts_reward_expectancy_bt,2022.2.4,Win32,60.6391365,Chrome,1536,864,,,,,,,,,,,,,,,,,,,,,,,181,S,circle,1,0,f,0.5476,0,6,0,6,0,1,,,,,,,,,,,,,,,,,,,,,,,,,,,,,,,,,,,,,,,,
298240,2022-12-07_13h59.01.580,vts_reward_expectancy_bt,2022.2.4,Win32,60.6391365,Chrome,1536,864,,,,,,,,,,,,,,,,,,,,,,,132,Y,triangle,1,0,d,0.6138,0,7,0,7,0,1,,,,,,,,,,,,,,,,,,,,,,,,,,,,,,,,,,,,,,,,
298240,2022-12-07_13h59.01.580,vts_reward_expectancy_bt,2022.2.4,Win32,60.6391365,Chrome,1536,864,,,,,,,,,,,,,,,,,,,,,,,160,D,circle,1,0,f,0.5784,0,8,0,8,0,1,,,,,,,,,,,,,,,,,,,,,,,,,,,,,,,,,,,,,,,,
298240,2022-12-07_13h59.01.580,vts_reward_expectancy_bt,2022.2.4,Win32,60.6391365,Chrome,1536,864,,,,,,,,,,,,,,,,,,,,,,,167,W,hexagon,1,0,f,0.6261,0,9,0,9,0,1,,,,,,,,,,,,,,,,,,,,,,,,,,,,,,,,,,,,,,,,
298240,2022-12-07_13h59.01.580,vts_reward_expectancy_bt,2022.2.4,Win32,60.6391365,Chrome,1536,864,,,,,,,,,,,,,,,,,,,,,,,160,D,star,1,0,,,1,,,,,,j,0.8984,0,0,0,0,1,,,,,,,,,,,,,,,,,,,,,,,,,,,,,,,,,
298240,2022-12-07_13h59.01.580,vts_reward_expectancy_bt,2022.2.4,Win32,60.6391365,Chrome,1536,864,,,,,,,,,,,,,,,,,,,,,,,167,W,hexagon,1,0,,,1,,,,,,k,0.495,1,0,1,0,1,,,,,,,,,,,,,,,,,,,,,,,,,,,,,,,,,
298240,2022-12-07_13h59.01.580,vts_reward_expectancy_bt,2022.2.4,Win32,60.6391365,Chrome,1536,864,,,,,,,,,,,,,,,,,,,,,,,146,U,circle,1,0,,,1,,,,,,k,1.0118,2,0,2,0,1,,,,,,,,,,,,,,,,,,,,,,,,,,,,,,,,,
298240,2022-12-07_13h59.01.580,vts_reward_expectancy_bt,2022.2.4,Win32,60.6391365,Chrome,1536,864,,,,,,,,,,,,,,,,,,,,,,,132,Y,triangle,1,0,,,1,,,,,,k,0.6776,3,0,3,0,1,,,,,,,,,,,,,,,,,,,,,,,,,,,,,,,,,
298240,2022-12-07_13h59.01.580,vts_reward_expectancy_bt,2022.2.4,Win32,60.6391365,Chrome,1536,864,,,,,,,,,,,,,,,,,,,,,,,181,H,star,1,0,,,1,,,,,,j,0.6664,4,0,4,0,1,,,,,,,,,,,,,,,,,,,,,,,,,,,,,,,,,
298240,2022-12-07_13h59.01.580,vts_reward_expectancy_bt,2022.2.4,Win32,60.6391365,Chrome,1536,864,,,,,,,,,,,,,,,,,,,,,,,139,S,hexagon,1,0,,,1,,,,,,k,0.7473,5,0,5,0,1,,,,,,,,,,,,,,,,,,,,,,,,,,,,,,,,,
298240,2022-12-07_13h59.01.580,vts_reward_expectancy_bt,2022.2.4,Win32,60.6391365,Chrome,1536,864,,,,,,,,,,,,,,,,,,,,,,,125,F,circle,1,0,,,1,,,,,,j,0.8268,6,0,6,0,1,,,,,,,,,,,,,,,,,,,,,,,,,,,,,,,,,
298240,2022-12-07_13h59.01.580,vts_reward_expectancy_bt,2022.2.4,Win32,60.6391365,Chrome,1536,864,,,,,,,,,,,,,,,,,,,,,,,174,B,triangle,1,0,,,1,,,,,,j,0.7112,7,0,7,0,1,,,,,,,,,,,,,,,,,,,,,,,,,,,,,,,,,
298240,2022-12-07_13h59.01.580,vts_reward_expectancy_bt,2022.2.4,Win32,60.6391365,Chrome,1536,864,,,,,,,,,,,,,,,,,,,,,,,160,D,circle,1,0,,,1,,,,,,j,0.6868,8,0,8,0,1,,,,,,,,,,,,,,,,,,,,,,,,,,,,,,,,,
298240,2022-12-07_13h59.01.580,vts_reward_expectancy_bt,2022.2.4,Win32,60.6391365,Chrome,1536,864,,,,,,,,,,,,,,,,,,,,,,,167,W,star,1,0,,,1,,,,,,k,0.7882,9,0,9,0,1,,,,,,,,,,,,,,,,,,,,,,,,,,,,,,,,,
298240,2022-12-07_13h59.01.580,vts_reward_expectancy_bt,2022.2.4,Win32,60.6391365,Chrome,1536,864,,,,,0,521,,,,,,,,,,,,,,,,,167,F,hexagon,1,0,,,2,,,,,,,,,,,,,-1,number,NA,f,2.4106,vtsPrac,0,0,0,0,1,,,,,,,,,,,,,,,,,,,,,,
298240,2022-12-07_13h59.01.580,vts_reward_expectancy_bt,2022.2.4,Win32,60.6391365,Chrome,1536,864,,,,,0,521,,,,,,,,,,,,,,,,,146,U,circle,0,0,,,2,,,,,,,,,,,,,repeat,number,NA,f,1.8779,vtsPrac,1,0,1,0,1,,,,,,,,,,,,,,,,,,,,,,
298240,2022-12-07_13h59.01.580,vts_reward_expectancy_bt,2022.2.4,Win32,60.6391365,Chrome,1536,864,,,,,0,521,,,,,,,,,,,,,,,,,174,D,hexagon,1,1,,,2,,,,,,,,,,,,,repeat,number,numRpt,f,0.9939,vtsPrac,2,0,2,0,1,,,,,,,,,,,,,,,,,,,,,,
298240,2022-12-07_13h59.01.580,vts_reward_expectancy_bt,2022.2.4,Win32,60.6391365,Chrome,1536,864,,,,,0,521,,,,,,,,,,,,,,,,,160,H,circle,1,0,,,2,,,,,,,,,,,,,repeat,number,numRpt,f,0.8132,vtsPrac,3,0,3,0,1,,,,,,,,,,,,,,,,,,,,,,
298240,2022-12-07_13h59.01.580,vts_reward_expectancy_bt,2022.2.4,Win32,60.6391365,Chrome,1536,864,,,,,0,521,,,,,,,,,,,,,,,,,167,F,circle,1,0,,,2,,,,,,,,,,,,,repeat,number,numRpt,f,0.7803,vtsPrac,4,0,4,0,1,,,,,,,,,,,,,,,,,,,,,,
298240,2022-12-07_13h59.01.580,vts_reward_expectancy_bt,2022.2.4,Win32,60.6391365,Chrome,1536,864,,,,,0,521,,,,,,,,,,,,,,,,,146,U,star,0,0,,,2,,,,,,,,,,,,,repeat,number,NA,f,0.6288,vtsPrac,5,0,5,0,1,,,,,,,,,,,,,,,,,,,,,,
298240,2022-12-07_13h59.01.580,vts_reward_expectancy_bt,2022.2.4,Win32,60.6391365,Chrome,1536,864,,,,,0,521,,,,,,,,,,,,,,,,,174,D,hexagon,1,1,,,2,,,,,,,,,,,,,repeat,number,numRpt,f,0.685,vtsPrac,6,0,6,0,1,,,,,,,,,,,,,,,,,,,,,,
298240,2022-12-07_13h59.01.580,vts_reward_expectancy_bt,2022.2.4,Win32,60.6391365,Chrome,1536,864,,,,,0,521,,,,,,,,,,,,,,,,,160,H,triangle,1,0,,,2,,,,,,,,,,,,,repeat,number,numRpt,f,0.6114,vtsPrac,7,0,7,0,1,,,,,,,,,,,,,,,,,,,,,,
298240,2022-12-07_13h59.01.580,vts_reward_expectancy_bt,2022.2.4,Win32,60.6391365,Chrome,1536,864,,,,,0,521,,,,,,,,,,,,,,,,,125,D,circle,1,0,,,2,,,,,,,,,,,,,repeat,number,numRpt,d,0.7614,vtsPrac,8,0,8,0,1,,,,,,,,,,,,,,,,,,,,,,
298240,2022-12-07_13h59.01.580,vts_reward_expectancy_bt,2022.2.4,Win32,60.6391365,Chrome,1536,864,,,,,0,521,,,,,,,,,,,,,,,,,132,H,star,1,0,,,2,,,,,,,,,,,,,repeat,number,numRpt,d,0.6646,vtsPrac,9,0,9,0,1,,,,,,,,,,,,,,,,,,,,,,
298240,2022-12-07_13h59.01.580,vts_reward_expectancy_bt,2022.2.4,Win32,60.6391365,Chrome,1536,864,,,,,0,521,,,,,,,,,,,,,,,,,167,S,circle,1,0,,,2,,,,,,,,,,,,,repeat,number,numRpt,f,0.6747,vtsPrac,10,0,10,0,1,,,,,,,,,,,,,,,,,,,,,,
298240,2022-12-07_13h59.01.580,vts_reward_expectancy_bt,2022.2.4,Win32,60.6391365,Chrome,1536,864,,,,,0,521,,,,,,,,,,,,,,,,,160,F,hexagon,0,0,,,2,,,,,,,,,,,,,repeat,number,NA,d,0.0317,vtsPrac,11,0,11,0,1,,,,,,,,,,,,,,,,,,,,,,
298240,2022-12-07_13h59.01.580,vts_reward_expectancy_bt,2022.2.4,Win32,60.6391365,Chrome,1536,864,,,,,0,521,,,,,,,,,,,,,,,,,181,W,star,1,1,,,2,,,,,,,,,,,,,repeat,number,numRpt,f,0.7876,vtsPrac,12,0,12,0,1,,,,,,,,,,,,,,,,,,,,,,
298240,2022-12-07_13h59.01.580,vts_reward_expectancy_bt,2022.2.4,Win32,60.6391365,Chrome,1536,864,,,,,0,521,,,,,,,,,,,,,,,,,132,D,triangle,1,0,,,2,,,,,,,,,,,,,repeat,number,numRpt,d,0.8323,vtsPrac,13,0,13,0,1,,,,,,,,,,,,,,,,,,,,,,
298240,2022-12-07_13h59.01.580,vts_reward_expectancy_bt,2022.2.4,Win32,60.6391365,Chrome,1536,864,,,,,0,521,,,,,,,,,,,,,,,,,167,F,circle,1,0,,,2,,,,,,,,,,,,,repeat,number,numRpt,f,0.5881,vtsPrac,14,0,14,0,1,,,,,,,,,,,,,,,,,,,,,,
298240,2022-12-07_13h59.01.580,vts_reward_expectancy_bt,2022.2.4,Win32,60.6391365,Chrome,1536,864,,,,,0,521,,,,,,,,,,,,,,,,,139,H,hexagon,1,0,,,2,,,,,,,,,,,,,repeat,number,numRpt,d,0.6487,vtsPrac,15,0,15,0,1,,,,,,,,,,,,,,,,,,,,,,
298240,2022-12-07_13h59.01.580,vts_reward_expectancy_bt,2022.2.4,Win32,60.6391365,Chrome,1536,864,,,,,0,521,,,,,,,,,,,,,,,,,160,S,star,1,0,,,2,,,,,,,,,,,,,repeat,number,numRpt,f,0.631,vtsPrac,16,0,16,0,1,,,,,,,,,,,,,,,,,,,,,,
298240,2022-12-07_13h59.01.580,vts_reward_expectancy_bt,2022.2.4,Win32,60.6391365,Chrome,1536,864,,,,,0,521,,,,,,,,,,,,,,,,,181,D,hexagon,1,0,,,2,,,,,,,,,,,,,repeat,number,numRpt,f,0.6831,vtsPrac,17,0,17,0,1,,,,,,,,,,,,,,,,,,,,,,
298240,2022-12-07_13h59.01.580,vts_reward_expectancy_bt,2022.2.4,Win32,60.6391365,Chrome,1536,864,,,,,0,521,,,,,,,,,,,,,,,,,146,B,hexagon,0,0,,,2,,,,,,,,,,,,,repeat,number,NA,f,0.5702,vtsPrac,18,0,18,0,1,,,,,,,,,,,,,,,,,,,,,,
298240,2022-12-07_13h59.01.580,vts_reward_expectancy_bt,2022.2.4,Win32,60.6391365,Chrome,1536,864,,,,,0,521,,,,,,,,,,,,,,,,,167,U,triangle,1,1,,,2,,,,,,,,,,,,,repeat,number,numRpt,f,0.6161,vtsPrac,19,0,19,0,1,,,,,,,,,,,,,,,,,,,,,,
298240,2022-12-07_13h59.01.580,vts_reward_expectancy_bt,2022.2.4,Win32,60.6391365,Chrome,1536,864,,,,,0,521,,,,,,,,,,,,,,,,,146,S,circle,1,0,,,2,,,,,,,,,,,,,repeat,number,numRpt,d,0.7975,vtsPrac,20,0,20,0,1,,,,,,,,,,,,,,,,,,,,,,
298240,2022-12-07_13h59.01.580,vts_reward_expectancy_bt,2022.2.4,Win32,60.6391365,Chrome,1536,864,,,,,0,521,,,,,,,,,,,,,,,,,181,F,triangle,1,0,,,2,,,,,,,,,,,,,repeat,number,numRpt,f,0.5982,vtsPrac,21,0,21,0,1,,,,,,,,,,,,,,,,,,,,,,
298240,2022-12-07_13h59.01.580,vts_reward_expectancy_bt,2022.2.4,Win32,60.6391365,Chrome,1536,864,,,,,0,521,,,,,,,,,,,,,,,,,132,H,circle,1,0,,,2,,,,,,,,,,,,,repeat,number,numRpt,d,0.5639,vtsPrac,22,0,22,0,1,,,,,,,,,,,,,,,,,,,,,,
298240,2022-12-07_13h59.01.580,vts_reward_expectancy_bt,2022.2.4,Win32,60.6391365,Chrome,1536,864,,,,,0,521,,,,,,,,,,,,,,,,,174,Y,triangle,1,0,,,2,,,,,,,,,,,,,repeat,number,numRpt,f,0.568,vtsPrac,23,0,23,0,1,,,,,,,,,,,,,,,,,,,,,,
298240,2022-12-07_13h59.01.580,vts_reward_expectancy_bt,2022.2.4,Win32,60.6391365,Chrome,1536,864,,,,,0,521,,,,,,,,,,,,,,,,,146,W,hexagon,1,0,,,2,,,,,,,,,,,,,repeat,number,numRpt,d,1.3283,vtsPrac,24,0,24,0,1,,,,,,,,,,,,,,,,,,,,,,
298240,2022-12-07_13h59.01.580,vts_reward_expectancy_bt,2022.2.4,Win32,60.6391365,Chrome,1536,864,,,,,0,521,,,,,,,,,,,,,,,,,132,H,circle,1,0,,,2,,,,,,,,,,,,,repeat,number,numRpt,d,0.614,vtsPrac,25,0,25,0,1,,,,,,,,,,,,,,,,,,,,,,
298240,2022-12-07_13h59.01.580,vts_reward_expectancy_bt,2022.2.4,Win32,60.6391365,Chrome,1536,864,,,,,0,521,,,,,,,,,,,,,,,,,181,F,circle,1,0,,,2,,,,,,,,,,,,,repeat,number,numRpt,f,0.5335,vtsPrac,26,0,26,0,1,,,,,,,,,,,,,,,,,,,,,,
298240,2022-12-07_13h59.01.580,vts_reward_expectancy_bt,2022.2.4,Win32,60.6391365,Chrome,1536,864,,,,,0,521,,,,,,,,,,,,,,,,,139,B,triangle,1,0,,,2,,,,,,,,,,,,,repeat,number,numRpt,d,0.6353,vtsPrac,27,0,27,0,1,,,,,,,,,,,,,,,,,,,,,,
298240,2022-12-07_13h59.01.580,vts_reward_expectancy_bt,2022.2.4,Win32,60.6391365,Chrome,1536,864,,,,,0,521,,,,,,,,,,,,,,,,,160,F,triangle,1,0,,,2,,,,,,,,,,,,,repeat,number,numRpt,f,0.7053,vtsPrac,28,0,28,0,1,,,,,,,,,,,,,,,,,,,,,,
298240,2022-12-07_13h59.01.580,vts_reward_expectancy_bt,2022.2.4,Win32,60.6391365,Chrome,1536,864,,,,,0,521,,,,,,,,,,,,,,,,,132,Y,star,1,0,,,2,,,,,,,,,,,,,repeat,number,numRpt,d,0.6494,vtsPrac,29,0,29,0,1,,,,,,,,,,,,,,,,,,,,,,
298240,2022-12-07_13h59.01.580,vts_reward_expectancy_bt,2022.2.4,Win32,60.6391365,Chrome,1536,864,,,,,0,521,,,,,,,,,,,,,,,,,146,U,triangle,1,0,,,2,,,,,,,,,,,,,repeat,number,numRpt,d,0.801,vtsPrac,30,0,30,0,1,,,,,,,,,,,,,,,,,,,,,,
298240,2022-12-07_13h59.01.580,vts_reward_expectancy_bt,2022.2.4,Win32,60.6391365,Chrome,1536,864,,,,,0,521,,,,,,,,,,,,,,,,,139,B,hexagon,1,0,,,2,,,,,,,,,,,,,repeat,number,numRpt,d,0.6664,vtsPrac,31,0,31,0,1,,,,,,,,,,,,,,,,,,,,,,
298240,2022-12-07_13h59.01.580,vts_reward_expectancy_bt,2022.2.4,Win32,60.6391365,Chrome,1536,864,,,,,0,521,,,,,,,,,,,,,,,,,139,F,star,1,0,,,3,,,,,,,,,,,,,repeat,number,numRpt,d,0.7859,vtsPrac,0,0,0,0,1,,,,,,,,,,,,,,,,,,,,,,
298240,2022-12-07_13h59.01.580,vts_reward_expectancy_bt,2022.2.4,Win32,60.6391365,Chrome,1536,864,,,,,0,521,,,,,,,,,,,,,,,,,132,S,triangle,-1,0,,,3,,,,,,,,,,,,,switch,no_choice,NA,,,vtsPrac,1,0,1,0,1,,,,,,,,,,,,,,,,,,,,,,
298240,2022-12-07_13h59.01.580,vts_reward_expectancy_bt,2022.2.4,Win32,60.6391365,Chrome,1536,864,,,,,0,521,,,,,,,,,,,,,,,,,181,B,star,1,0,,,3,,,,,,,,,,,,,switch,number,numSwt,f,0.8169,vtsPrac,2,0,2,0,1,,,,,,,,,,,,,,,,,,,,,,
298240,2022-12-07_13h59.01.580,vts_reward_expectancy_bt,2022.2.4,Win32,60.6391365,Chrome,1536,864,,,,,0,521,,,,,,,,,,,,,,,,,160,H,triangle,1,0,,,3,,,,,,,,,,,,,repeat,number,numRpt,f,0.8009,vtsPrac,3,0,3,0,1,,,,,,,,,,,,,,,,,,,,,,
298240,2022-12-07_13h59.01.580,vts_reward_expectancy_bt,2022.2.4,Win32,60.6391365,Chrome,1536,864,,,,,0,521,,,,,,,,,,,,,,,,,139,F,hexagon,1,0,,,3,,,,,,,,,,,,,repeat,number,numRpt,d,0.7418,vtsPrac,4,0,4,0,1,,,,,,,,,,,,,,,,,,,,,,
298240,2022-12-07_13h59.01.580,vts_reward_expectancy_bt,2022.2.4,Win32,60.6391365,Chrome,1536,864,,,,,0,521,,,,,,,,,,,,,,,,,132,S,star,1,0,,,3,,,,,,,,,,,,,repeat,number,numRpt,d,0.9354,vtsPrac,5,0,5,0,1,,,,,,,,,,,,,,,,,,,,,,
298240,2022-12-07_13h59.01.580,vts_reward_expectancy_bt,2022.2.4,Win32,60.6391365,Chrome,1536,864,,,,,0,521,,,,,,,,,,,,,,,,,181,B,star,1,0,,,3,,,,,,,,,,,,,repeat,number,numRpt,f,0.6058,vtsPrac,6,0,6,0,1,,,,,,,,,,,,,,,,,,,,,,
298240,2022-12-07_13h59.01.580,vts_reward_expectancy_bt,2022.2.4,Win32,60.6391365,Chrome,1536,864,,,,,0,521,,,,,,,,,,,,,,,,,160,H,triangle,0,0,,,3,,,,,,,,,,,,,repeat,number,NA,d,0.5576,vtsPrac,7,0,7,0,1,,,,,,,,,,,,,,,,,,,,,,
298240,2022-12-07_13h59.01.580,vts_reward_expectancy_bt,2022.2.4,Win32,60.6391365,Chrome,1536,864,,,,,0,521,,,,,,,,,,,,,,,,,167,U,star,0,1,,,3,,,,,,,,,,,,,repeat,number,NA,d,0.1382,vtsPrac,8,0,8,0,1,,,,,,,,,,,,,,,,,,,,,,
298240,2022-12-07_13h59.01.580,vts_reward_expectancy_bt,2022.2.4,Win32,60.6391365,Chrome,1536,864,,,,,0,521,,,,,,,,,,,,,,,,,174,D,hexagon,1,1,,,3,,,,,,,,,,,,,repeat,number,numRpt,f,1.1502,vtsPrac,9,0,9,0,1,,,,,,,,,,,,,,,,,,,,,,
298240,2022-12-07_13h59.01.580,vts_reward_expectancy_bt,2022.2.4,Win32,60.6391365,Chrome,1536,864,,,,,0,521,,,,,,,,,,,,,,,,,132,B,triangle,1,0,,,3,,,,,,,,,,,,,repeat,number,numRpt,d,0.7782,vtsPrac,10,0,10,0,1,,,,,,,,,,,,,,,,,,,,,,
298240,2022-12-07_13h59.01.580,vts_reward_expectancy_bt,2022.2.4,Win32,60.6391365,Chrome,1536,864,,,,,0,521,,,,,,,,,,,,,,,,,146,F,star,0,0,,,3,,,,,,,,,,,,,repeat,number,NA,f,0.8282,vtsPrac,11,0,11,0,1,,,,,,,,,,,,,,,,,,,,,,
298240,2022-12-07_13h59.01.580,vts_reward_expectancy_bt,2022.2.4,Win32,60.6391365,Chrome,1536,864,,,,,0,521,,,,,,,,,,,,,,,,,132,Y,circle,1,1,,,3,,,,,,,,,,,,,repeat,number,numRpt,d,0.7407,vtsPrac,12,0,12,0,1,,,,,,,,,,,,,,,,,,,,,,
298240,2022-12-07_13h59.01.580,vts_reward_expectancy_bt,2022.2.4,Win32,60.6391365,Chrome,1536,864,,,,,0,521,,,,,,,,,,,,,,,,,167,W,triangle,1,0,,,3,,,,,,,,,,,,,repeat,number,numRpt,f,0.8407,vtsPrac,13,0,13,0,1,,,,,,,,,,,,,,,,,,,,,,
298240,2022-12-07_13h59.01.580,vts_reward_expectancy_bt,2022.2.4,Win32,60.6391365,Chrome,1536,864,,,,,0,521,,,,,,,,,,,,,,,,,181,D,circle,1,0,,,3,,,,,,,,,,,,,repeat,number,numRpt,f,0.7579,vtsPrac,14,0,14,0,1,,,,,,,,,,,,,,,,,,,,,,
298240,2022-12-07_13h59.01.580,vts_reward_expectancy_bt,2022.2.4,Win32,60.6391365,Chrome,1536,864,,,,,0,521,,,,,,,,,,,,,,,,,125,U,triangle,1,0,,,3,,,,,,,,,,,,,repeat,number,numRpt,d,0.7229,vtsPrac,15,0,15,0,1,,,,,,,,,,,,,,,,,,,,,,
298240,2022-12-07_13h59.01.580,vts_reward_expectancy_bt,2022.2.4,Win32,60.6391365,Chrome,1536,864,,,,,0,521,,,,,,,,,,,,,,,,,174,W,star,1,0,,,3,,,,,,,,,,,,,repeat,number,numRpt,f,0.6516,vtsPrac,16,0,16,0,1,,,,,,,,,,,,,,,,,,,,,,
298240,2022-12-07_13h59.01.580,vts_reward_expectancy_bt,2022.2.4,Win32,60.6391365,Chrome,1536,864,,,,,0,521,,,,,,,,,,,,,,,,,125,Y,hexagon,1,0,,,3,,,,,,,,,,,,,repeat,number,numRpt,d,0.9408,vtsPrac,17,0,17,0,1,,,,,,,,,,,,,,,,,,,,,,
298240,2022-12-07_13h59.01.580,vts_reward_expectancy_bt,2022.2.4,Win32,60.6391365,Chrome,1536,864,,,,,0,521,,,,,,,,,,,,,,,,,139,S,hexagon,1,0,,,3,,,,,,,,,,,,,repeat,number,numRpt,d,0.6709,vtsPrac,18,0,18,0,1,,,,,,,,,,,,,,,,,,,,,,
298240,2022-12-07_13h59.01.580,vts_reward_expectancy_bt,2022.2.4,Win32,60.6391365,Chrome,1536,864,,,,,0,521,,,,,,,,,,,,,,,,,160,B,triangle,1,0,,,3,,,,,,,,,,,,,repeat,number,numRpt,f,0.7378,vtsPrac,19,0,19,0,1,,,,,,,,,,,,,,,,,,,,,,
298240,2022-12-07_13h59.01.580,vts_reward_expectancy_bt,2022.2.4,Win32,60.6391365,Chrome,1536,864,,,,,0,521,,,,,,,,,,,,,,,,,160,U,circle,1,0,,,3,,,,,,,,,,,,,repeat,number,numRpt,f,0.873,vtsPrac,20,0,20,0,1,,,,,,,,,,,,,,,,,,,,,,
298240,2022-12-07_13h59.01.580,vts_reward_expectancy_bt,2022.2.4,Win32,60.6391365,Chrome,1536,864,,,,,0,521,,,,,,,,,,,,,,,,,174,H,triangle,1,0,,,3,,,,,,,,,,,,,repeat,number,numRpt,f,0.8361,vtsPrac,21,0,21,0,1,,,,,,,,,,,,,,,,,,,,,,
298240,2022-12-07_13h59.01.580,vts_reward_expectancy_bt,2022.2.4,Win32,60.6391365,Chrome,1536,864,,,,,0,521,,,,,,,,,,,,,,,,,167,S,triangle,1,0,,,3,,,,,,,,,,,,,repeat,number,numRpt,f,0.725,vtsPrac,22,0,22,0,1,,,,,,,,,,,,,,,,,,,,,,
298240,2022-12-07_13h59.01.580,vts_reward_expectancy_bt,2022.2.4,Win32,60.6391365,Chrome,1536,864,,,,,0,521,,,,,,,,,,,,,,,,,132,W,hexagon,1,0,,,3,,,,,,,,,,,,,repeat,number,numRpt,d,0.8008,vtsPrac,23,0,23,0,1,,,,,,,,,,,,,,,,,,,,,,
298240,2022-12-07_13h59.01.580,vts_reward_expectancy_bt,2022.2.4,Win32,60.6391365,Chrome,1536,864,,,,,0,521,,,,,,,,,,,,,,,,,160,D,circle,1,0,,,3,,,,,,,,,,,,,repeat,number,numRpt,f,0.7559,vtsPrac,24,0,24,0,1,,,,,,,,,,,,,,,,,,,,,,
298240,2022-12-07_13h59.01.580,vts_reward_expectancy_bt,2022.2.4,Win32,60.6391365,Chrome,1536,864,,,,,0,521,,,,,,,,,,,,,,,,,146,F,hexagon,1,0,,,3,,,,,,,,,,,,,repeat,number,numRpt,d,1.2077,vtsPrac,25,0,25,0,1,,,,,,,,,,,,,,,,,,,,,,
298240,2022-12-07_13h59.01.580,vts_reward_expectancy_bt,2022.2.4,Win32,60.6391365,Chrome,1536,864,,,,,0,521,,,,,,,,,,,,,,,,,139,S,hexagon,1,0,,,3,,,,,,,,,,,,,repeat,number,numRpt,d,0.718,vtsPrac,26,0,26,0,1,,,,,,,,,,,,,,,,,,,,,,
298240,2022-12-07_13h59.01.580,vts_reward_expectancy_bt,2022.2.4,Win32,60.6391365,Chrome,1536,864,,,,,0,521,,,,,,,,,,,,,,,,,125,U,star,1,0,,,3,,,,,,,,,,,,,repeat,number,numRpt,d,0.7349,vtsPrac,27,0,27,0,1,,,,,,,,,,,,,,,,,,,,,,
298240,2022-12-07_13h59.01.580,vts_reward_expectancy_bt,2022.2.4,Win32,60.6391365,Chrome,1536,864,,,,,0,521,,,,,,,,,,,,,,,,,167,W,circle,1,0,,,3,,,,,,,,,,,,,repeat,number,numRpt,f,0.9009,vtsPrac,28,0,28,0,1,,,,,,,,,,,,,,,,,,,,,,
298240,2022-12-07_13h59.01.580,vts_reward_expectancy_bt,2022.2.4,Win32,60.6391365,Chrome,1536,864,,,,,0,521,,,,,,,,,,,,,,,,,125,D,hexagon,1,0,,,3,,,,,,,,,,,,,repeat,number,numRpt,d,0.8401,vtsPrac,29,0,29,0,1,,,,,,,,,,,,,,,,,,,,,,
298240,2022-12-07_13h59.01.580,vts_reward_expectancy_bt,2022.2.4,Win32,60.6391365,Chrome,1536,864,,,,,0,521,,,,,,,,,,,,,,,,,160,Y,star,1,0,,,3,,,,,,,,,,,,,repeat,number,numRpt,f,0.7192,vtsPrac,30,0,30,0,1,,,,,,,,,,,,,,,,,,,,,,
298240,2022-12-07_13h59.01.580,vts_reward_expectancy_bt,2022.2.4,Win32,60.6391365,Chrome,1536,864,,,,,0,521,,,,,,,,,,,,,,,,,139,F,triangle,1,0,,,3,,,,,,,,,,,,,repeat,number,numRpt,d,0.9599,vtsPrac,31,0,31,0,1,,,,,,,,,,,,,,,,,,,,,,
298240,2022-12-07_13h59.01.580,vts_reward_expectancy_bt,2022.2.4,Win32,60.6391365,Chrome,1536,864,,,,,0,521,,,,,,,,,,,,,,,,,146,S,triangle,1,0,,,4,,,,,,,,,,,,,switch,letter,lettSwt,k,1.0338,vtsPrac,0,0,0,0,1,,,,,,,,,,,,,,,,,,,,,,
298240,2022-12-07_13h59.01.580,vts_reward_expectancy_bt,2022.2.4,Win32,60.6391365,Chrome,1536,864,,,,,0,521,,,,,,,,,,,,,,,,,167,W,circle,1,0,,,4,,,,,,,,,,,,,repeat,letter,lettRpt,k,0.9409,vtsPrac,1,0,1,0,1,,,,,,,,,,,,,,,,,,,,,,
298240,2022-12-07_13h59.01.580,vts_reward_expectancy_bt,2022.2.4,Win32,60.6391365,Chrome,1536,864,,,,,0,521,,,,,,,,,,,,,,,,,132,D,triangle,1,0,,,4,,,,,,,,,,,,,repeat,letter,lettRpt,j,1.0719,vtsPrac,2,0,2,0,1,,,,,,,,,,,,,,,,,,,,,,
298240,2022-12-07_13h59.01.580,vts_reward_expectancy_bt,2022.2.4,Win32,60.6391365,Chrome,1536,864,,,,,0,521,,,,,,,,,,,,,,,,,181,Y,circle,1,0,,,4,,,,,,,,,,,,,repeat,letter,lettRpt,k,0.6255,vtsPrac,3,0,3,0,1,,,,,,,,,,,,,,,,,,,,,,
298240,2022-12-07_13h59.01.580,vts_reward_expectancy_bt,2022.2.4,Win32,60.6391365,Chrome,1536,864,,,,,0,521,,,,,,,,,,,,,,,,,146,S,circle,1,0,,,4,,,,,,,,,,,,,repeat,letter,lettRpt,k,1.4015,vtsPrac,4,0,4,0,1,,,,,,,,,,,,,,,,,,,,,,
298240,2022-12-07_13h59.01.580,vts_reward_expectancy_bt,2022.2.4,Win32,60.6391365,Chrome,1536,864,,,,,0,521,,,,,,,,,,,,,,,,,167,W,star,1,0,,,4,,,,,,,,,,,,,repeat,letter,lettRpt,k,1.0389,vtsPrac,5,0,5,0,1,,,,,,,,,,,,,,,,,,,,,,
298240,2022-12-07_13h59.01.580,vts_reward_expectancy_bt,2022.2.4,Win32,60.6391365,Chrome,1536,864,,,,,0,521,,,,,,,,,,,,,,,,,132,D,triangle,1,0,,,4,,,,,,,,,,,,,repeat,letter,lettRpt,j,0.8886,vtsPrac,6,0,6,0,1,,,,,,,,,,,,,,,,,,,,,,
298240,2022-12-07_13h59.01.580,vts_reward_expectancy_bt,2022.2.4,Win32,60.6391365,Chrome,1536,864,,,,,0,521,,,,,,,,,,,,,,,,,181,Y,hexagon,1,0,,,4,,,,,,,,,,,,,repeat,letter,lettRpt,k,0.9852,vtsPrac,7,0,7,0,1,,,,,,,,,,,,,,,,,,,,,,
298240,2022-12-07_13h59.01.580,vts_reward_expectancy_bt,2022.2.4,Win32,60.6391365,Chrome,1536,864,,,,,0,521,,,,,,,,,,,,,,,,,125,Y,hexagon,1,0,,,4,,,,,,,,,,,,,switch,number,numSwt,d,0.551,vtsPrac,8,0,8,0,1,,,,,,,,,,,,,,,,,,,,,,
298240,2022-12-07_13h59.01.580,vts_reward_expectancy_bt,2022.2.4,Win32,60.6391365,Chrome,1536,864,,,,,0,521,,,,,,,,,,,,,,,,,146,U,star,1,0,,,4,,,,,,,,,,,,,repeat,number,numRpt,d,1.1012,vtsPrac,9,0,9,0,1,,,,,,,,,,,,,,,,,,,,,,
298240,2022-12-07_13h59.01.580,vts_reward_expectancy_bt,2022.2.4,Win32,60.6391365,Chrome,1536,864,,,,,0,521,,,,,,,,,,,,,,,,,132,S,star,1,0,,,4,,,,,,,,,,,,,repeat,number,numRpt,d,0.7016,vtsPrac,10,0,10,0,1,,,,,,,,,,,,,,,,,,,,,,
298240,2022-12-07_13h59.01.580,vts_reward_expectancy_bt,2022.2.4,Win32,60.6391365,Chrome,1536,864,,,,,0,521,,,,,,,,,,,,,,,,,139,H,triangle,1,0,,,4,,,,,,,,,,,,,repeat,number,numRpt,d,0.5562,vtsPrac,11,0,11,0,1,,,,,,,,,,,,,,,,,,,,,,
298240,2022-12-07_13h59.01.580,vts_reward_expectancy_bt,2022.2.4,Win32,60.6391365,Chrome,1536,864,,,,,0,521,,,,,,,,,,,,,,,,,174,U,hexagon,1,0,,,4,,,,,,,,,,,,,repeat,number,numRpt,f,0.7678,vtsPrac,12,0,12,0,1,,,,,,,,,,,,,,,,,,,,,,
298240,2022-12-07_13h59.01.580,vts_reward_expectancy_bt,2022.2.4,Win32,60.6391365,Chrome,1536,864,,,,,0,521,,,,,,,,,,,,,,,,,139,D,star,1,0,,,4,,,,,,,,,,,,,repeat,number,numRpt,d,0.6185,vtsPrac,13,0,13,0,1,,,,,,,,,,,,,,,,,,,,,,
298240,2022-12-07_13h59.01.580,vts_reward_expectancy_bt,2022.2.4,Win32,60.6391365,Chrome,1536,864,,,,,0,521,,,,,,,,,,,,,,,,,125,F,circle,1,0,,,4,,,,,,,,,,,,,repeat,number,numRpt,d,0.8203,vtsPrac,14,0,14,0,1,,,,,,,,,,,,,,,,,,,,,,
298240,2022-12-07_13h59.01.580,vts_reward_expectancy_bt,2022.2.4,Win32,60.6391365,Chrome,1536,864,,,,,0,521,,,,,,,,,,,,,,,,,167,W,star,1,0,,,4,,,,,,,,,,,,,repeat,number,numRpt,f,0.9231,vtsPrac,15,0,15,0,1,,,,,,,,,,,,,,,,,,,,,,
298240,2022-12-07_13h59.01.580,vts_reward_expectancy_bt,2022.2.4,Win32,60.6391365,Chrome,1536,864,,,,,0,521,,,,,,,,,,,,,,,,,174,F,hexagon,1,0,,,4,,,,,,,,,,,,,repeat,number,numRpt,f,0.7396,vtsPrac,16,0,16,0,1,,,,,,,,,,,,,,,,,,,,,,
298240,2022-12-07_13h59.01.580,vts_reward_expectancy_bt,2022.2.4,Win32,60.6391365,Chrome,1536,864,,,,,0,521,,,,,,,,,,,,,,,,,181,U,triangle,1,0,,,4,,,,,,,,,,,,,repeat,number,numRpt,f,1.0453,vtsPrac,17,0,17,0,1,,,,,,,,,,,,,,,,,,,,,,
298240,2022-12-07_13h59.01.580,vts_reward_expectancy_bt,2022.2.4,Win32,60.6391365,Chrome,1536,864,,,,,0,521,,,,,,,,,,,,,,,,,139,H,hexagon,1,0,,,4,,,,,,,,,,,,,repeat,number,numRpt,d,0.705,vtsPrac,18,0,18,0,1,,,,,,,,,,,,,,,,,,,,,,
298240,2022-12-07_13h59.01.580,vts_reward_expectancy_bt,2022.2.4,Win32,60.6391365,Chrome,1536,864,,,,,0,521,,,,,,,,,,,,,,,,,132,S,star,1,0,,,4,,,,,,,,,,,,,repeat,number,numRpt,d,0.6848,vtsPrac,19,0,19,0,1,,,,,,,,,,,,,,,,,,,,,,
298240,2022-12-07_13h59.01.580,vts_reward_expectancy_bt,2022.2.4,Win32,60.6391365,Chrome,1536,864,,,,,0,521,,,,,,,,,,,,,,,,,139,D,circle,1,0,,,4,,,,,,,,,,,,,repeat,number,numRpt,d,0.6182,vtsPrac,20,0,20,0,1,,,,,,,,,,,,,,,,,,,,,,
298240,2022-12-07_13h59.01.580,vts_reward_expectancy_bt,2022.2.4,Win32,60.6391365,Chrome,1536,864,,,,,0,521,,,,,,,,,,,,,,,,,125,Y,hexagon,1,0,,,4,,,,,,,,,,,,,repeat,number,numRpt,d,0.6221,vtsPrac,21,0,21,0,1,,,,,,,,,,,,,,,,,,,,,,
298240,2022-12-07_13h59.01.580,vts_reward_expectancy_bt,2022.2.4,Win32,60.6391365,Chrome,1536,864,,,,,0,521,,,,,,,,,,,,,,,,,174,S,triangle,1,0,,,4,,,,,,,,,,,,,repeat,number,numRpt,f,0.7213,vtsPrac,22,0,22,0,1,,,,,,,,,,,,,,,,,,,,,,
298240,2022-12-07_13h59.01.580,vts_reward_expectancy_bt,2022.2.4,Win32,60.6391365,Chrome,1536,864,,,,,0,521,,,,,,,,,,,,,,,,,146,W,star,1,0,,,4,,,,,,,,,,,,,repeat,number,numRpt,d,1.3623,vtsPrac,23,0,23,0,1,,,,,,,,,,,,,,,,,,,,,,
298240,2022-12-07_13h59.01.580,vts_reward_expectancy_bt,2022.2.4,Win32,60.6391365,Chrome,1536,864,,,,,0,521,,,,,,,,,,,,,,,,,181,W,triangle,1,0,,,4,,,,,,,,,,,,,repeat,number,numRpt,f,0.7745,vtsPrac,24,0,24,0,1,,,,,,,,,,,,,,,,,,,,,,
298240,2022-12-07_13h59.01.580,vts_reward_expectancy_bt,2022.2.4,Win32,60.6391365,Chrome,1536,864,,,,,0,521,,,,,,,,,,,,,,,,,167,D,circle,1,0,,,4,,,,,,,,,,,,,repeat,number,numRpt,f,0.853,vtsPrac,25,0,25,0,1,,,,,,,,,,,,,,,,,,,,,,
298240,2022-12-07_13h59.01.580,vts_reward_expectancy_bt,2022.2.4,Win32,60.6391365,Chrome,1536,864,,,,,0,521,,,,,,,,,,,,,,,,,174,Y,circle,1,0,,,4,,,,,,,,,,,,,repeat,number,numRpt,f,0.7176,vtsPrac,26,0,26,0,1,,,,,,,,,,,,,,,,,,,,,,
298240,2022-12-07_13h59.01.580,vts_reward_expectancy_bt,2022.2.4,Win32,60.6391365,Chrome,1536,864,,,,,0,521,,,,,,,,,,,,,,,,,125,F,star,1,0,,,4,,,,,,,,,,,,,switch,letter,lettSwt,j,0.6841,vtsPrac,27,0,27,0,1,,,,,,,,,,,,,,,,,,,,,,
298240,2022-12-07_13h59.01.580,vts_reward_expectancy_bt,2022.2.4,Win32,60.6391365,Chrome,1536,864,,,,,0,521,,,,,,,,,,,,,,,,,167,S,triangle,1,0,,,4,,,,,,,,,,,,,repeat,letter,lettRpt,k,0.8349,vtsPrac,28,0,28,0,1,,,,,,,,,,,,,,,,,,,,,,
298240,2022-12-07_13h59.01.580,vts_reward_expectancy_bt,2022.2.4,Win32,60.6391365,Chrome,1536,864,,,,,0,521,,,,,,,,,,,,,,,,,160,U,star,1,0,,,4,,,,,,,,,,,,,repeat,letter,lettRpt,k,0.9826,vtsPrac,29,0,29,0,1,,,,,,,,,,,,,,,,,,,,,,
298240,2022-12-07_13h59.01.580,vts_reward_expectancy_bt,2022.2.4,Win32,60.6391365,Chrome,1536,864,,,,,0,521,,,,,,,,,,,,,,,,,139,F,circle,1,0,,,4,,,,,,,,,,,,,repeat,letter,lettRpt,j,1.2783,vtsPrac,30,0,30,0,1,,,,,,,,,,,,,,,,,,,,,,
298240,2022-12-07_13h59.01.580,vts_reward_expectancy_bt,2022.2.4,Win32,60.6391365,Chrome,1536,864,,,,,0,521,,,,,,,,,,,,,,,,,174,Y,hexagon,1,0,,,4,,,,,,,,,,,,,repeat,letter,lettRpt,k,0.9501,vtsPrac,31,0,31,0,1,,,,,,,,,,,,,,,,,,,,,,
298240,2022-12-07_13h59.01.580,vts_reward_expectancy_bt,2022.2.4,Win32,60.6391365,Chrome,1536,864,,,,,,,,,,,,,,,,,,,,,,,,,,,,,,,,,,,,,,,,,,,,,,,,,,,,,,,,,,,,,,,,,,,,,,,,,,,
298240,2022-12-07_13h59.01.580,vts_reward_expectancy_bt,2022.2.4,Win32,60.6391365,Chrome,1536,864,,,,,,,,,,,,,,,,,,,,,,,,,,,,,,,,,,,,,,,,,,,,,,,,,,,,,,,,,,,,,,,,,,,,,,,,,,,
298240,2022-12-07_13h59.01.580,vts_reward_expectancy_bt,2022.2.4,Win32,60.6391365,Chrome,1536,864,,,,,0,521,,,,,,,,,,,,,,,,,132,F,star,1,0,,,,,,,,,,,,,,,,switch,number,numSwt,d,0.8361,noRew,,,,,,0,0,0,0,0,1,,,,,,,,,,,,,,,,
298240,2022-12-07_13h59.01.580,vts_reward_expectancy_bt,2022.2.4,Win32,60.6391365,Chrome,1536,864,,,,,0,521,,,,,,,,,,,,,,,,,181,W,circle,1,0,,,,,,,,,,,,,,,,repeat,number,numRpt,f,0.6279,noRew,,,,,,0,1,0,1,0,1,,,,,,,,,,,,,,,,
298240,2022-12-07_13h59.01.580,vts_reward_expectancy_bt,2022.2.4,Win32,60.6391365,Chrome,1536,864,,,,,0,521,,,,,,,,,,,,,,,,,146,S,star,1,0,,,,,,,,,,,,,,,,repeat,number,numRpt,d,0.6241,noRew,,,,,,0,2,0,2,0,1,,,,,,,,,,,,,,,,
298240,2022-12-07_13h59.01.580,vts_reward_expectancy_bt,2022.2.4,Win32,60.6391365,Chrome,1536,864,,,,,0,521,,,,,,,,,,,,,,,,,125,Y,circle,1,0,,,,,,,,,,,,,,,,repeat,number,numRpt,d,0.5513,noRew,,,,,,0,3,0,3,0,1,,,,,,,,,,,,,,,,
298240,2022-12-07_13h59.01.580,vts_reward_expectancy_bt,2022.2.4,Win32,60.6391365,Chrome,1536,864,,,,,0,521,,,,,,,,,,,,,,,,,132,F,circle,1,0,,,,,,,,,,,,,,,,repeat,number,numRpt,d,0.7497,noRew,,,,,,0,4,0,4,0,1,,,,,,,,,,,,,,,,
298240,2022-12-07_13h59.01.580,vts_reward_expectancy_bt,2022.2.4,Win32,60.6391365,Chrome,1536,864,,,,,0,521,,,,,,,,,,,,,,,,,181,W,hexagon,1,0,,,,,,,,,,,,,,,,repeat,number,numRpt,f,0.5671,noRew,,,,,,0,5,0,5,0,1,,,,,,,,,,,,,,,,
298240,2022-12-07_13h59.01.580,vts_reward_expectancy_bt,2022.2.4,Win32,60.6391365,Chrome,1536,864,,,,,0,521,,,,,,,,,,,,,,,,,146,S,circle,1,0,,,,,,,,,,,,,,,,repeat,number,numRpt,d,0.8757,noRew,,,,,,0,6,0,6,0,1,,,,,,,,,,,,,,,,
298240,2022-12-07_13h59.01.580,vts_reward_expectancy_bt,2022.2.4,Win32,60.6391365,Chrome,1536,864,,,,,0,521,,,,,,,,,,,,,,,,,125,Y,hexagon,1,0,,,,,,,,,,,,,,,,repeat,number,numRpt,d,0.7253,noRew,,,,,,0,7,0,7,0,1,,,,,,,,,,,,,,,,
298240,2022-12-07_13h59.01.580,vts_reward_expectancy_bt,2022.2.4,Win32,60.6391365,Chrome,1536,864,,,,,0,521,,,,,,,,,,,,,,,,,167,Y,circle,1,0,,,,,,,,,,,,,,,,repeat,number,numRpt,f,0.5588,noRew,,,,,,0,8,0,8,0,1,,,,,,,,,,,,,,,,
298240,2022-12-07_13h59.01.580,vts_reward_expectancy_bt,2022.2.4,Win32,60.6391365,Chrome,1536,864,,,,,0,521,,,,,,,,,,,,,,,,,132,W,hexagon,1,0,,,,,,,,,,,,,,,,repeat,number,numRpt,d,0.6422,noRew,,,,,,0,9,0,9,0,1,,,,,,,,,,,,,,,,
298240,2022-12-07_13h59.01.580,vts_reward_expectancy_bt,2022.2.4,Win32,60.6391365,Chrome,1536,864,,,,,0,521,,,,,,,,,,,,,,,,,181,D,circle,1,0,,,,,,,,,,,,,,,,repeat,number,numRpt,f,0.7677,noRew,,,,,,0,10,0,10,0,1,,,,,,,,,,,,,,,,
298240,2022-12-07_13h59.01.580,vts_reward_expectancy_bt,2022.2.4,Win32,60.6391365,Chrome,1536,864,,,,,0,521,,,,,,,,,,,,,,,,,125,B,hexagon,1,0,,,,,,,,,,,,,,,,repeat,number,numRpt,d,0.6504,noRew,,,,,,0,11,0,11,0,1,,,,,,,,,,,,,,,,
298240,2022-12-07_13h59.01.580,vts_reward_expectancy_bt,2022.2.4,Win32,60.6391365,Chrome,1536,864,,,,,0,521,,,,,,,,,,,,,,,,,132,U,star,1,0,,,,,,,,,,,,,,,,repeat,number,numRpt,d,0.6007,noRew,,,,,,0,12,0,12,0,1,,,,,,,,,,,,,,,,
298240,2022-12-07_13h59.01.580,vts_reward_expectancy_bt,2022.2.4,Win32,60.6391365,Chrome,1536,864,,,,,0,521,,,,,,,,,,,,,,,,,139,W,triangle,1,0,,,,,,,,,,,,,,,,repeat,number,numRpt,d,0.9012,noRew,,,,,,0,13,0,13,0,1,,,,,,,,,,,,,,,,
298240,2022-12-07_13h59.01.580,vts_reward_expectancy_bt,2022.2.4,Win32,60.6391365,Chrome,1536,864,,,,,0,521,,,,,,,,,,,,,,,,,160,D,star,1,0,,,,,,,,,,,,,,,,repeat,number,numRpt,f,0.668,noRew,,,,,,0,14,0,14,0,1,,,,,,,,,,,,,,,,
298240,2022-12-07_13h59.01.580,vts_reward_expectancy_bt,2022.2.4,Win32,60.6391365,Chrome,1536,864,,,,,0,521,,,,,,,,,,,,,,,,,167,B,triangle,0,0,,,,,,,,,,,,,,,,switch,letter,NA,k,0.9936,noRew,,,,,,0,15,0,15,0,1,,,,,,,,,,,,,,,,
298240,2022-12-07_13h59.01.580,vts_reward_expectancy_bt,2022.2.4,Win32,60.6391365,Chrome,1536,864,,,,,0,521,,,,,,,,,,,,,,,,,181,F,star,1,1,,,,,,,,,,,,,,,,repeat,letter,lettRpt,j,1.0181,noRew,,,,,,0,16,0,16,0,1,,,,,,,,,,,,,,,,
298240,2022-12-07_13h59.01.580,vts_reward_expectancy_bt,2022.2.4,Win32,60.6391365,Chrome,1536,864,,,,,0,521,,,,,,,,,,,,,,,,,146,D,circle,1,0,,,,,,,,,,,,,,,,repeat,letter,lettRpt,j,0.7371,noRew,,,,,,0,17,0,17,0,1,,,,,,,,,,,,,,,,
298240,2022-12-07_13h59.01.580,vts_reward_expectancy_bt,2022.2.4,Win32,60.6391365,Chrome,1536,864,,,,,0,521,,,,,,,,,,,,,,,,,132,H,hexagon,1,0,,,,,,,,,,,,,,,,repeat,letter,lettRpt,j,1.1341,noRew,,,,,,0,18,0,18,0,1,,,,,,,,,,,,,,,,
298240,2022-12-07_13h59.01.580,vts_reward_expectancy_bt,2022.2.4,Win32,60.6391365,Chrome,1536,864,,,,,0,521,,,,,,,,,,,,,,,,,139,U,circle,1,0,,,,,,,,,,,,,,,,repeat,letter,lettRpt,k,1.2511,noRew,,,,,,0,19,0,19,0,1,,,,,,,,,,,,,,,,
298240,2022-12-07_13h59.01.580,vts_reward_expectancy_bt,2022.2.4,Win32,60.6391365,Chrome,1536,864,,,,,0,521,,,,,,,,,,,,,,,,,125,H,triangle,1,0,,,,,,,,,,,,,,,,repeat,letter,lettRpt,j,0.7015,noRew,,,,,,0,20,0,20,0,1,,,,,,,,,,,,,,,,
298240,2022-12-07_13h59.01.580,vts_reward_expectancy_bt,2022.2.4,Win32,60.6391365,Chrome,1536,864,,,,,0,521,,,,,,,,,,,,,,,,,174,Y,circle,1,0,,,,,,,,,,,,,,,,repeat,letter,lettRpt,k,0.7356,noRew,,,,,,0,21,0,21,0,1,,,,,,,,,,,,,,,,
298240,2022-12-07_13h59.01.580,vts_reward_expectancy_bt,2022.2.4,Win32,60.6391365,Chrome,1536,864,,,,,0,521,,,,,,,,,,,,,,,,,160,U,star,0,0,,,,,,,,,,,,,,,,repeat,letter,NA,j,0.8009,noRew,,,,,,0,22,0,22,0,1,,,,,,,,,,,,,,,,
298240,2022-12-07_13h59.01.580,vts_reward_expectancy_bt,2022.2.4,Win32,60.6391365,Chrome,1536,864,,,,,0,521,,,,,,,,,,,,,,,,,146,D,triangle,1,1,,,,,,,,,,,,,,,,repeat,letter,lettRpt,j,0.7767,noRew,,,,,,0,23,0,23,0,1,,,,,,,,,,,,,,,,
298240,2022-12-07_13h59.01.580,vts_reward_expectancy_bt,2022.2.4,Win32,60.6391365,Chrome,1536,864,,,,,0,521,,,,,,,,,,,,,,,,,132,B,hexagon,1,0,,,,,,,,,,,,,,,,repeat,letter,lettRpt,j,0.6704,noRew,,,,,,0,24,0,24,0,1,,,,,,,,,,,,,,,,
298240,2022-12-07_13h59.01.580,vts_reward_expectancy_bt,2022.2.4,Win32,60.6391365,Chrome,1536,864,,,,,0,521,,,,,,,,,,,,,,,,,174,F,triangle,1,0,,,,,,,,,,,,,,,,repeat,letter,lettRpt,j,0.7613,noRew,,,,,,0,25,0,25,0,1,,,,,,,,,,,,,,,,
298240,2022-12-07_13h59.01.580,vts_reward_expectancy_bt,2022.2.4,Win32,60.6391365,Chrome,1536,864,,,,,0,521,,,,,,,,,,,,,,,,,181,W,star,1,0,,,,,,,,,,,,,,,,repeat,letter,lettRpt,k,0.7712,noRew,,,,,,0,26,0,26,0,1,,,,,,,,,,,,,,,,
298240,2022-12-07_13h59.01.580,vts_reward_expectancy_bt,2022.2.4,Win32,60.6391365,Chrome,1536,864,,,,,0,521,,,,,,,,,,,,,,,,,160,U,circle,0,0,,,,,,,,,,,,,,,,repeat,letter,NA,j,0.6846,noRew,,,,,,0,27,0,27,0,1,,,,,,,,,,,,,,,,
298240,2022-12-07_13h59.01.580,vts_reward_expectancy_bt,2022.2.4,Win32,60.6391365,Chrome,1536,864,,,,,0,521,,,,,,,,,,,,,,,,,139,Y,hexagon,1,1,,,,,,,,,,,,,,,,repeat,letter,lettRpt,k,0.7511,noRew,,,,,,0,28,0,28,0,1,,,,,,,,,,,,,,,,
298240,2022-12-07_13h59.01.580,vts_reward_expectancy_bt,2022.2.4,Win32,60.6391365,Chrome,1536,864,,,,,0,521,,,,,,,,,,,,,,,,,146,F,circle,1,0,,,,,,,,,,,,,,,,repeat,letter,lettRpt,j,1.3344,noRew,,,,,,0,29,0,29,0,1,,,,,,,,,,,,,,,,
298240,2022-12-07_13h59.01.580,vts_reward_expectancy_bt,2022.2.4,Win32,60.6391365,Chrome,1536,864,,,,,0,521,,,,,,,,,,,,,,,,,160,S,circle,1,0,,,,,,,,,,,,,,,,repeat,letter,lettRpt,k,0.8347,noRew,,,,,,0,30,0,30,0,1,,,,,,,,,,,,,,,,
298240,2022-12-07_13h59.01.580,vts_reward_expectancy_bt,2022.2.4,Win32,60.6391365,Chrome,1536,864,,,,,0,521,,,,,,,,,,,,,,,,,174,W,star,1,0,,,,,,,,,,,,,,,,repeat,letter,lettRpt,k,0.9559,noRew,,,,,,0,31,0,31,0,1,,,,,,,,,,,,,,,,
298240,2022-12-07_13h59.01.580,vts_reward_expectancy_bt,2022.2.4,Win32,60.6391365,Chrome,1536,864,,,,,0,521,,,,,,,,,,,,,,,,,174,W,star,1,0,,,,,,,,,,,,,,,,repeat,letter,lettRpt,k,0.7796,noRew,,,,,,0,32,0,32,0,1,,,,,,,,,,,,,,,,
298240,2022-12-07_13h59.01.580,vts_reward_expectancy_bt,2022.2.4,Win32,60.6391365,Chrome,1536,864,,,,,0,521,,,,,,,,,,,,,,,,,181,B,hexagon,1,0,,,,,,,,,,,,,,,,repeat,letter,lettRpt,j,0.6282,noRew,,,,,,0,33,0,33,0,1,,,,,,,,,,,,,,,,
298240,2022-12-07_13h59.01.580,vts_reward_expectancy_bt,2022.2.4,Win32,60.6391365,Chrome,1536,864,,,,,0,521,,,,,,,,,,,,,,,,,139,Y,star,1,0,,,,,,,,,,,,,,,,repeat,letter,lettRpt,k,0.6674,noRew,,,,,,0,34,0,34,0,1,,,,,,,,,,,,,,,,
298240,2022-12-07_13h59.01.580,vts_reward_expectancy_bt,2022.2.4,Win32,60.6391365,Chrome,1536,864,,,,,0,521,,,,,,,,,,,,,,,,,146,U,circle,1,0,,,,,,,,,,,,,,,,repeat,letter,lettRpt,k,0.8172,noRew,,,,,,0,35,0,35,0,1,,,,,,,,,,,,,,,,
298240,2022-12-07_13h59.01.580,vts_reward_expectancy_bt,2022.2.4,Win32,60.6391365,Chrome,1536,864,,,,,0,521,,,,,,,,,,,,,,,,,181,D,star,1,0,,,,,,,,,,,,,,,,switch,number,numSwt,f,1.2948,noRew,,,,,,0,36,0,36,0,1,,,,,,,,,,,,,,,,
298240,2022-12-07_13h59.01.580,vts_reward_expectancy_bt,2022.2.4,Win32,60.6391365,Chrome,1536,864,,,,,0,521,,,,,,,,,,,,,,,,,132,H,hexagon,1,0,,,,,,,,,,,,,,,,repeat,number,numRpt,d,0.7263,noRew,,,,,,0,37,0,37,0,1,,,,,,,,,,,,,,,,
298240,2022-12-07_13h59.01.580,vts_reward_expectancy_bt,2022.2.4,Win32,60.6391365,Chrome,1536,864,,,,,0,521,,,,,,,,,,,,,,,,,139,W,hexagon,1,0,,,,,,,,,,,,,,,,repeat,number,numRpt,d,0.7005,noRew,,,,,,0,38,0,38,0,1,,,,,,,,,,,,,,,,
298240,2022-12-07_13h59.01.580,vts_reward_expectancy_bt,2022.2.4,Win32,60.6391365,Chrome,1536,864,,,,,0,521,,,,,,,,,,,,,,,,,160,Y,circle,1,0,,,,,,,,,,,,,,,,repeat,number,numRpt,f,0.6361,noRew,,,,,,0,39,0,39,0,1,,,,,,,,,,,,,,,,
298240,2022-12-07_13h59.01.580,vts_reward_expectancy_bt,2022.2.4,Win32,60.6391365,Chrome,1536,864,,,,,0,521,,,,,,,,,,,,,,,,,167,S,triangle,1,0,,,,,,,,,,,,,,,,repeat,number,numRpt,f,0.8005,noRew,,,,,,0,40,0,40,0,1,,,,,,,,,,,,,,,,
298240,2022-12-07_13h59.01.580,vts_reward_expectancy_bt,2022.2.4,Win32,60.6391365,Chrome,1536,864,,,,,0,521,,,,,,,,,,,,,,,,,125,H,circle,1,0,,,,,,,,,,,,,,,,repeat,number,numRpt,d,0.7842,noRew,,,,,,0,41,0,41,0,1,,,,,,,,,,,,,,,,
298240,2022-12-07_13h59.01.580,vts_reward_expectancy_bt,2022.2.4,Win32,60.6391365,Chrome,1536,864,,,,,0,521,,,,,,,,,,,,,,,,,132,D,circle,1,0,,,,,,,,,,,,,,,,repeat,number,numRpt,d,0.585,noRew,,,,,,0,42,0,42,0,1,,,,,,,,,,,,,,,,
298240,2022-12-07_13h59.01.580,vts_reward_expectancy_bt,2022.2.4,Win32,60.6391365,Chrome,1536,864,,,,,0,521,,,,,,,,,,,,,,,,,174,W,star,1,0,,,,,,,,,,,,,,,,repeat,number,numRpt,f,0.6087,noRew,,,,,,0,43,0,43,0,1,,,,,,,,,,,,,,,,
298240,2022-12-07_13h59.01.580,vts_reward_expectancy_bt,2022.2.4,Win32,60.6391365,Chrome,1536,864,,,,,0,521,,,,,,,,,,,,,,,,,160,U,star,1,0,,,,,,,,,,,,,,,,repeat,number,numRpt,f,0.8002,noRew,,,,,,0,44,0,44,0,1,,,,,,,,,,,,,,,,
298240,2022-12-07_13h59.01.580,vts_reward_expectancy_bt,2022.2.4,Win32,60.6391365,Chrome,1536,864,,,,,0,521,,,,,,,,,,,,,,,,,167,F,hexagon,1,0,,,,,,,,,,,,,,,,repeat,number,numRpt,f,0.7191,noRew,,,,,,0,45,0,45,0,1,,,,,,,,,,,,,,,,
298240,2022-12-07_13h59.01.580,vts_reward_expectancy_bt,2022.2.4,Win32,60.6391365,Chrome,1536,864,,,,,0,521,,,,,,,,,,,,,,,,,146,Y,hexagon,1,0,,,,,,,,,,,,,,,,repeat,number,numRpt,d,0.8339,noRew,,,,,,0,46,0,46,0,1,,,,,,,,,,,,,,,,
298240,2022-12-07_13h59.01.580,vts_reward_expectancy_bt,2022.2.4,Win32,60.6391365,Chrome,1536,864,,,,,0,521,,,,,,,,,,,,,,,,,174,B,circle,1,0,,,,,,,,,,,,,,,,repeat,number,numRpt,f,0.6178,noRew,,,,,,0,47,0,47,0,1,,,,,,,,,,,,,,,,
298240,2022-12-07_13h59.01.580,vts_reward_expectancy_bt,2022.2.4,Win32,60.6391365,Chrome,1536,864,,,,,0,521,,,,,,,,,,,,,,,,,139,W,hexagon,1,0,,,,,,,,,,,,,,,,repeat,number,numRpt,d,0.7411,noRew,,,,,,0,48,0,48,0,1,,,,,,,,,,,,,,,,
298240,2022-12-07_13h59.01.580,vts_reward_expectancy_bt,2022.2.4,Win32,60.6391365,Chrome,1536,864,,,,,0,521,,,,,,,,,,,,,,,,,132,D,star,1,0,,,,,,,,,,,,,,,,repeat,number,numRpt,d,0.6166,noRew,,,,,,0,49,0,49,0,1,,,,,,,,,,,,,,,,
298240,2022-12-07_13h59.01.580,vts_reward_expectancy_bt,2022.2.4,Win32,60.6391365,Chrome,1536,864,,,,,0,521,,,,,,,,,,,,,,,,,160,F,star,1,0,,,,,,,,,,,,,,,,repeat,number,numRpt,f,0.5844,noRew,,,,,,0,50,0,50,0,1,,,,,,,,,,,,,,,,
298240,2022-12-07_13h59.01.580,vts_reward_expectancy_bt,2022.2.4,Win32,60.6391365,Chrome,1536,864,,,,,0,521,,,,,,,,,,,,,,,,,167,H,circle,1,0,,,,,,,,,,,,,,,,repeat,number,numRpt,f,0.649,noRew,,,,,,0,51,0,51,0,1,,,,,,,,,,,,,,,,
298240,2022-12-07_13h59.01.580,vts_reward_expectancy_bt,2022.2.4,Win32,60.6391365,Chrome,1536,864,,,,,0,521,,,,,,,,,,,,,,,,,160,H,star,1,0,,,,,,,,,,,,,,,,repeat,number,numRpt,f,0.6834,noRew,,,,,,0,52,0,52,0,1,,,,,,,,,,,,,,,,
298240,2022-12-07_13h59.01.580,vts_reward_expectancy_bt,2022.2.4,Win32,60.6391365,Chrome,1536,864,,,,,0,521,,,,,,,,,,,,,,,,,146,S,circle,1,0,,,,,,,,,,,,,,,,repeat,number,numRpt,d,1.7135,noRew,,,,,,0,53,0,53,0,1,,,,,,,,,,,,,,,,
298240,2022-12-07_13h59.01.580,vts_reward_expectancy_bt,2022.2.4,Win32,60.6391365,Chrome,1536,864,,,,,0,521,,,,,,,,,,,,,,,,,132,F,hexagon,1,0,,,,,,,,,,,,,,,,repeat,number,numRpt,d,0.7545,noRew,,,,,,0,54,0,54,0,1,,,,,,,,,,,,,,,,
298240,2022-12-07_13h59.01.580,vts_reward_expectancy_bt,2022.2.4,Win32,60.6391365,Chrome,1536,864,,,,,0,521,,,,,,,,,,,,,,,,,181,W,star,1,0,,,,,,,,,,,,,,,,repeat,number,numRpt,f,0.6267,noRew,,,,,,0,55,0,55,0,1,,,,,,,,,,,,,,,,
298240,2022-12-07_13h59.01.580,vts_reward_expectancy_bt,2022.2.4,Win32,60.6391365,Chrome,1536,864,,,,,0,521,,,,,,,,,,,,,,,,,174,U,star,1,0,,,,,,,,,,,,,,,,repeat,number,numRpt,f,0.8883,noRew,,,,,,0,56,0,56,0,1,,,,,,,,,,,,,,,,
298240,2022-12-07_13h59.01.580,vts_reward_expectancy_bt,2022.2.4,Win32,60.6391365,Chrome,1536,864,,,,,0,521,,,,,,,,,,,,,,,,,167,Y,triangle,1,0,,,,,,,,,,,,,,,,repeat,number,numRpt,f,0.6699,noRew,,,,,,0,57,0,57,0,1,,,,,,,,,,,,,,,,
298240,2022-12-07_13h59.01.580,vts_reward_expectancy_bt,2022.2.4,Win32,60.6391365,Chrome,1536,864,,,,,0,521,,,,,,,,,,,,,,,,,125,F,hexagon,1,0,,,,,,,,,,,,,,,,repeat,number,numRpt,d,0.6045,noRew,,,,,,0,58,0,58,0,1,,,,,,,,,,,,,,,,
298240,2022-12-07_13h59.01.580,vts_reward_expectancy_bt,2022.2.4,Win32,60.6391365,Chrome,1536,864,,,,,0,521,,,,,,,,,,,,,,,,,146,D,circle,1,0,,,,,,,,,,,,,,,,repeat,number,numRpt,d,1.0381,noRew,,,,,,0,59,0,59,0,1,,,,,,,,,,,,,,,,
298240,2022-12-07_13h59.01.580,vts_reward_expectancy_bt,2022.2.4,Win32,60.6391365,Chrome,1536,864,,,,,0,521,,,,,,,,,,,,,,,,,132,B,circle,1,0,,,,,,,,,,,,,,,,repeat,number,numRpt,d,0.7444,noRew,,,,,,0,60,0,60,0,1,,,,,,,,,,,,,,,,
298240,2022-12-07_13h59.01.580,vts_reward_expectancy_bt,2022.2.4,Win32,60.6391365,Chrome,1536,864,,,,,0,521,,,,,,,,,,,,,,,,,167,S,triangle,1,0,,,,,,,,,,,,,,,,repeat,number,numRpt,f,0.6671,noRew,,,,,,0,61,0,61,0,1,,,,,,,,,,,,,,,,
298240,2022-12-07_13h59.01.580,vts_reward_expectancy_bt,2022.2.4,Win32,60.6391365,Chrome,1536,864,,,,,0,521,,,,,,,,,,,,,,,,,146,F,star,1,0,,,,,,,,,,,,,,,,repeat,number,numRpt,d,0.7793,noRew,,,,,,0,62,0,62,0,1,,,,,,,,,,,,,,,,
298240,2022-12-07_13h59.01.580,vts_reward_expectancy_bt,2022.2.4,Win32,60.6391365,Chrome,1536,864,,,,,0,521,,,,,,,,,,,,,,,,,160,D,triangle,1,0,,,,,,,,,,,,,,,,repeat,number,numRpt,f,0.9116,noRew,,,,,,0,63,0,63,0,1,,,,,,,,,,,,,,,,
298240,2022-12-07_13h59.01.580,vts_reward_expectancy_bt,2022.2.4,Win32,60.6391365,Chrome,1536,864,,,,,,,,,,,,,,,,,,,,,,,,,,,,,,,,,,,,,,,,,,,,,,,,,,,,,,,,,,,,,,,,,,,,,,,,,,,
298240,2022-12-07_13h59.01.580,vts_reward_expectancy_bt,2022.2.4,Win32,60.6391365,Chrome,1536,864,,,,,1,522,,,,,,,,,,,,,,,,,174,S,circle,1,0,,,,,,,,,,,,,,,,repeat,number,numRpt,f,1.1461,Lo,,,,,,0,,,,,,space,5.2505,low,0,0,0,0,1,,,,,,,,
298240,2022-12-07_13h59.01.580,vts_reward_expectancy_bt,2022.2.4,Win32,60.6391365,Chrome,1536,864,,,,,0,522,,,,,,,,,,,,,,,,,181,B,star,1,0,,,,,,,,,,,,,,,,repeat,number,numRpt,f,1.2699,Hi,,,,,,0,,,,,,,,low,1,0,1,0,1,,,,,,,,
298240,2022-12-07_13h59.01.580,vts_reward_expectancy_bt,2022.2.4,Win32,60.6391365,Chrome,1536,864,,,,,0,522,,,,,,,,,,,,,,,,,146,H,hexagon,0,0,,,,,,,,,,,,,,,,switch,letter,NA,k,0.5104,Hi,,,,,,0,,,,,,,,low,2,0,2,0,1,,,,,,,,
298240,2022-12-07_13h59.01.580,vts_reward_expectancy_bt,2022.2.4,Win32,60.6391365,Chrome,1536,864,,,,,1,523,,,,,,,,,,,,,,,,,132,W,triangle,1,1,,,,,,,,,,,,,,,,switch,number,numSwt,d,0.581,Hi,,,,,,0,,,,,,,,low,3,0,3,0,1,,,,,,,,
298240,2022-12-07_13h59.01.580,vts_reward_expectancy_bt,2022.2.4,Win32,60.6391365,Chrome,1536,864,,,,,1,524,,,,,,,,,,,,,,,,,139,U,circle,1,0,,,,,,,,,,,,,,,,switch,letter,lettSwt,k,0.5783,Lo,,,,,,0,,,,,,,,low,4,0,4,0,1,,,,,,,,
298240,2022-12-07_13h59.01.580,vts_reward_expectancy_bt,2022.2.4,Win32,60.6391365,Chrome,1536,864,,,,,1,525,,,,,,,,,,,,,,,,,160,Y,star,1,0,,,,,,,,,,,,,,,,switch,number,numSwt,f,0.6284,Hi,,,,,,0,,,,,,,,low,5,0,5,0,1,,,,,,,,
298240,2022-12-07_13h59.01.580,vts_reward_expectancy_bt,2022.2.4,Win32,60.6391365,Chrome,1536,864,,,,,10,535,,,,,,,,,,,,,,,,,167,D,hexagon,1,0,,,,,,,,,,,,,,,,switch,letter,lettSwt,j,0.7612,Lo,,,,,,0,,,,,,,,low,6,0,6,0,1,,,,,,,,
298240,2022-12-07_13h59.01.580,vts_reward_expectancy_bt,2022.2.4,Win32,60.6391365,Chrome,1536,864,,,,,1,536,,,,,,,,,,,,,,,,,125,F,triangle,1,0,,,,,,,,,,,,,,,,repeat,letter,lettRpt,j,0.6795,Hi,,,,,,0,,,,,,,,low,7,0,7,0,1,,,,,,,,
298240,2022-12-07_13h59.01.580,vts_reward_expectancy_bt,2022.2.4,Win32,60.6391365,Chrome,1536,864,,,,,1,537,,,,,,,,,,,,,,,,,174,S,hexagon,1,0,,,,,,,,,,,,,,,,switch,number,numSwt,f,0.6313,Lo,,,,,,0,,,,,,,,low,8,0,8,0,1,,,,,,,,
298240,2022-12-07_13h59.01.580,vts_reward_expectancy_bt,2022.2.4,Win32,60.6391365,Chrome,1536,864,,,,,0,537,,,,,,,,,,,,,,,,,181,B,star,1,0,,,,,,,,,,,,,,,,repeat,number,numRpt,f,0.7274,Hi,,,,,,0,,,,,,,,low,9,0,9,0,1,,,,,,,,
298240,2022-12-07_13h59.01.580,vts_reward_expectancy_bt,2022.2.4,Win32,60.6391365,Chrome,1536,864,,,,,0,537,,,,,,,,,,,,,,,,,146,H,triangle,1,0,,,,,,,,,,,,,,,,repeat,number,numRpt,d,0.7302,Hi,,,,,,0,,,,,,,,low,10,0,10,0,1,,,,,,,,
298240,2022-12-07_13h59.01.580,vts_reward_expectancy_bt,2022.2.4,Win32,60.6391365,Chrome,1536,864,,,,,1,538,,,,,,,,,,,,,,,,,132,W,circle,1,0,,,,,,,,,,,,,,,,switch,letter,lettSwt,k,0.518,Lo,,,,,,0,,,,,,,,low,11,0,11,0,1,,,,,,,,
298240,2022-12-07_13h59.01.580,vts_reward_expectancy_bt,2022.2.4,Win32,60.6391365,Chrome,1536,864,,,,,0,538,,,,,,,,,,,,,,,,,139,U,hexagon,0,0,,,,,,,,,,,,,,,,repeat,letter,NA,j,0.552,Lo,,,,,,0,,,,,,,,low,12,0,12,0,1,,,,,,,,
298240,2022-12-07_13h59.01.580,vts_reward_expectancy_bt,2022.2.4,Win32,60.6391365,Chrome,1536,864,,,,,1,539,,,,,,,,,,,,,,,,,160,Y,triangle,1,1,,,,,,,,,,,,,,,,repeat,letter,lettRpt,k,0.603,Hi,,,,,,0,,,,,,,,low,13,0,13,0,1,,,,,,,,
298240,2022-12-07_13h59.01.580,vts_reward_expectancy_bt,2022.2.4,Win32,60.6391365,Chrome,1536,864,,,,,0,539,,,,,,,,,,,,,,,,,167,D,circle,0,0,,,,,,,,,,,,,,,,repeat,letter,NA,k,0.6276,Hi,,,,,,0,,,,,,,,low,14,0,14,0,1,,,,,,,,
298240,2022-12-07_13h59.01.580,vts_reward_expectancy_bt,2022.2.4,Win32,60.6391365,Chrome,1536,864,,,,,10,549,,,,,,,,,,,,,,,,,125,F,star,1,1,,,,,,,,,,,,,,,,repeat,letter,lettRpt,j,0.713,Hi,,,,,,0,,,,,,,,low,15,0,15,0,1,,,,,,,,
298240,2022-12-07_13h59.01.580,vts_reward_expectancy_bt,2022.2.4,Win32,60.6391365,Chrome,1536,864,,,,,1,550,,,,,,,,,,,,,,,,,181,W,hexagon,1,0,,,,,,,,,,,,,,,,repeat,letter,lettRpt,k,0.7974,Lo,,,,,,0,,,,,,,,low,16,0,16,0,1,,,,,,,,
298240,2022-12-07_13h59.01.580,vts_reward_expectancy_bt,2022.2.4,Win32,60.6391365,Chrome,1536,864,,,,,1,551,,,,,,,,,,,,,,,,,174,H,circle,1,0,,,,,,,,,,,,,,,,repeat,letter,lettRpt,j,0.9858,Lo,,,,,,0,,,,,,,,low,17,0,17,0,1,,,,,,,,
298240,2022-12-07_13h59.01.580,vts_reward_expectancy_bt,2022.2.4,Win32,60.6391365,Chrome,1536,864,,,,,0,551,,,,,,,,,,,,,,,,,167,U,triangle,1,0,,,,,,,,,,,,,,,,repeat,letter,lettRpt,k,1.1777,Hi,,,,,,0,,,,,,,,low,18,0,18,0,1,,,,,,,,
298240,2022-12-07_13h59.01.580,vts_reward_expectancy_bt,2022.2.4,Win32,60.6391365,Chrome,1536,864,,,,,0,551,,,,,,,,,,,,,,,,,160,F,star,1,0,,,,,,,,,,,,,,,,repeat,letter,lettRpt,j,1.2487,Hi,,,,,,0,,,,,,,,low,19,0,19,0,1,,,,,,,,
298240,2022-12-07_13h59.01.580,vts_reward_expectancy_bt,2022.2.4,Win32,60.6391365,Chrome,1536,864,,,,,0,551,,,,,,,,,,,,,,,,,132,S,star,1,0,,,,,,,,,,,,,,,,repeat,letter,lettRpt,k,1.395,Hi,,,,,,0,,,,,,,,low,20,0,20,0,1,,,,,,,,
298240,2022-12-07_13h59.01.580,vts_reward_expectancy_bt,2022.2.4,Win32,60.6391365,Chrome,1536,864,,,,,0,551,,,,,,,,,,,,,,,,,139,B,triangle,1,0,,,,,,,,,,,,,,,,repeat,letter,lettRpt,j,0.9357,Hi,,,,,,0,,,,,,,,low,21,0,21,0,1,,,,,,,,
298240,2022-12-07_13h59.01.580,vts_reward_expectancy_bt,2022.2.4,Win32,60.6391365,Chrome,1536,864,,,,,1,552,,,,,,,,,,,,,,,,,125,D,hexagon,1,0,,,,,,,,,,,,,,,,repeat,letter,lettRpt,j,0.6444,Lo,,,,,,0,,,,,,,,low,22,0,22,0,1,,,,,,,,
298240,2022-12-07_13h59.01.580,vts_reward_expectancy_bt,2022.2.4,Win32,60.6391365,Chrome,1536,864,,,,,10,562,,,,,,,,,,,,,,,,,146,Y,circle,1,0,,,,,,,,,,,,,,,,repeat,letter,lettRpt,k,0.7306,Lo,,,,,,0,,,,,,,,low,23,0,23,0,1,,,,,,,,
298240,2022-12-07_13h59.01.580,vts_reward_expectancy_bt,2022.2.4,Win32,60.6391365,Chrome,1536,864,,,,,0,562,,,,,,,,,,,,,,,,,125,U,circle,0,0,,,,,,,,,,,,,,,,repeat,letter,NA,j,0.9961,Lo,,,,,,0,,,,,,,,low,24,0,24,0,1,,,,,,,,
298240,2022-12-07_13h59.01.580,vts_reward_expectancy_bt,2022.2.4,Win32,60.6391365,Chrome,1536,864,,,,,0,562,,,,,,,,,,,,,,,,,146,S,star,1,1,,,,,,,,,,,,,,,,repeat,letter,lettRpt,k,0.8226,Hi,,,,,,0,,,,,,,,low,25,0,25,0,1,,,,,,,,
298240,2022-12-07_13h59.01.580,vts_reward_expectancy_bt,2022.2.4,Win32,60.6391365,Chrome,1536,864,,,,,1,563,,,,,,,,,,,,,,,,,174,B,hexagon,1,0,,,,,,,,,,,,,,,,repeat,letter,lettRpt,j,1.0949,Lo,,,,,,0,,,,,,,,low,26,0,26,0,1,,,,,,,,
298240,2022-12-07_13h59.01.580,vts_reward_expectancy_bt,2022.2.4,Win32,60.6391365,Chrome,1536,864,,,,,0,563,,,,,,,,,,,,,,,,,181,Y,triangle,1,0,,,,,,,,,,,,,,,,repeat,letter,lettRpt,k,0.9206,Hi,,,,,,0,,,,,,,,low,27,0,27,0,1,,,,,,,,
298240,2022-12-07_13h59.01.580,vts_reward_expectancy_bt,2022.2.4,Win32,60.6391365,Chrome,1536,864,,,,,10,573,,,,,,,,,,,,,,,,,132,F,triangle,1,0,,,,,,,,,,,,,,,,repeat,letter,lettRpt,j,0.5159,Hi,,,,,,0,,,,,,,,low,28,0,28,0,1,,,,,,,,
298240,2022-12-07_13h59.01.580,vts_reward_expectancy_bt,2022.2.4,Win32,60.6391365,Chrome,1536,864,,,,,0,573,,,,,,,,,,,,,,,,,160,H,star,1,0,,,,,,,,,,,,,,,,repeat,letter,lettRpt,j,0.8314,Hi,,,,,,0,,,,,,,,low,29,0,29,0,1,,,,,,,,
298240,2022-12-07_13h59.01.580,vts_reward_expectancy_bt,2022.2.4,Win32,60.6391365,Chrome,1536,864,,,,,1,574,,,,,,,,,,,,,,,,,139,W,circle,1,0,,,,,,,,,,,,,,,,repeat,letter,lettRpt,k,0.5144,Lo,,,,,,0,,,,,,,,low,30,0,30,0,1,,,,,,,,
298240,2022-12-07_13h59.01.580,vts_reward_expectancy_bt,2022.2.4,Win32,60.6391365,Chrome,1536,864,,,,,0,574,,,,,,,,,,,,,,,,,167,D,hexagon,0,0,,,,,,,,,,,,,,,,repeat,letter,NA,k,0.8382,Lo,,,,,,0,,,,,,,,low,31,0,31,0,1,,,,,,,,
298240,2022-12-07_13h59.01.580,vts_reward_expectancy_bt,2022.2.4,Win32,60.6391365,Chrome,1536,864,,,,,0,574,,,,,,,,,,,,,,,,,167,H,triangle,1,1,,,,,,,,,,,,,,,,switch,number,numSwt,f,1.1235,Hi,,,,,,1,,,,,,space,102.2303,low,0,0,0,0,1,,,,,,,,
298240,2022-12-07_13h59.01.580,vts_reward_expectancy_bt,2022.2.4,Win32,60.6391365,Chrome,1536,864,,,,,1,575,,,,,,,,,,,,,,,,,174,D,hexagon,1,0,,,,,,,,,,,,,,,,repeat,number,numRpt,f,1.8561,Lo,,,,,,1,,,,,,,,low,1,0,1,0,1,,,,,,,,
298240,2022-12-07_13h59.01.580,vts_reward_expectancy_bt,2022.2.4,Win32,60.6391365,Chrome,1536,864,,,,,10,585,,,,,,,,,,,,,,,,,160,S,circle,1,0,,,,,,,,,,,,,,,,repeat,number,numRpt,f,0.8103,Lo,,,,,,1,,,,,,,,low,2,0,2,0,1,,,,,,,,
298240,2022-12-07_13h59.01.580,vts_reward_expectancy_bt,2022.2.4,Win32,60.6391365,Chrome,1536,864,,,,,0,585,,,,,,,,,,,,,,,,,181,F,star,1,0,,,,,,,,,,,,,,,,repeat,number,numRpt,f,0.9129,Hi,,,,,,1,,,,,,,,low,3,0,3,0,1,,,,,,,,
298240,2022-12-07_13h59.01.580,vts_reward_expectancy_bt,2022.2.4,Win32,60.6391365,Chrome,1536,864,,,,,0,585,,,,,,,,,,,,,,,,,125,Y,triangle,1,0,,,,,,,,,,,,,,,,repeat,number,numRpt,d,0.9106,Hi,,,,,,1,,,,,,,,low,4,0,4,0,1,,,,,,,,
298240,2022-12-07_13h59.01.580,vts_reward_expectancy_bt,2022.2.4,Win32,60.6391365,Chrome,1536,864,,,,,10,595,,,,,,,,,,,,,,,,,139,B,hexagon,1,0,,,,,,,,,,,,,,,,repeat,number,numRpt,d,0.8312,Lo,,,,,,1,,,,,,,,low,5,0,5,0,1,,,,,,,,
298240,2022-12-07_13h59.01.580,vts_reward_expectancy_bt,2022.2.4,Win32,60.6391365,Chrome,1536,864,,,,,1,596,,,,,,,,,,,,,,,,,146,W,circle,1,0,,,,,,,,,,,,,,,,repeat,number,numRpt,d,0.6719,Lo,,,,,,1,,,,,,,,low,6,0,6,0,1,,,,,,,,
298240,2022-12-07_13h59.01.580,vts_reward_expectancy_bt,2022.2.4,Win32,60.6391365,Chrome,1536,864,,,,,0,596,,,,,,,,,,,,,,,,,132,U,star,1,0,,,,,,,,,,,,,,,,repeat,number,numRpt,d,0.7323,Hi,,,,,,1,,,,,,,,low,7,0,7,0,1,,,,,,,,
298240,2022-12-07_13h59.01.580,vts_reward_expectancy_bt,2022.2.4,Win32,60.6391365,Chrome,1536,864,,,,,10,606,,,,,,,,,,,,,,,,,167,H,circle,1,0,,,,,,,,,,,,,,,,repeat,number,numRpt,f,1.3472,Lo,,,,,,1,,,,,,,,low,8,0,8,0,1,,,,,,,,
298240,2022-12-07_13h59.01.580,vts_reward_expectancy_bt,2022.2.4,Win32,60.6391365,Chrome,1536,864,,,,,0,606,,,,,,,,,,,,,,,,,174,D,triangle,1,0,,,,,,,,,,,,,,,,repeat,number,numRpt,f,1.1892,Hi,,,,,,1,,,,,,,,low,9,0,9,0,1,,,,,,,,
298240,2022-12-07_13h59.01.580,vts_reward_expectancy_bt,2022.2.4,Win32,60.6391365,Chrome,1536,864,,,,,0,606,,,,,,,,,,,,,,,,,160,S,star,1,0,,,,,,,,,,,,,,,,repeat,number,numRpt,f,0.9697,Hi,,,,,,1,,,,,,,,low,10,0,10,0,1,,,,,,,,
298240,2022-12-07_13h59.01.580,vts_reward_expectancy_bt,2022.2.4,Win32,60.6391365,Chrome,1536,864,,,,,1,607,,,,,,,,,,,,,,,,,181,F,hexagon,1,0,,,,,,,,,,,,,,,,repeat,number,numRpt,f,0.6531,Lo,,,,,,1,,,,,,,,low,11,0,11,0,1,,,,,,,,
298240,2022-12-07_13h59.01.580,vts_reward_expectancy_bt,2022.2.4,Win32,60.6391365,Chrome,1536,864,,,,,1,608,,,,,,,,,,,,,,,,,125,Y,circle,1,0,,,,,,,,,,,,,,,,repeat,number,numRpt,d,0.9203,Lo,,,,,,1,,,,,,,,low,12,0,12,0,1,,,,,,,,
298240,2022-12-07_13h59.01.580,vts_reward_expectancy_bt,2022.2.4,Win32,60.6391365,Chrome,1536,864,,,,,10,618,,,,,,,,,,,,,,,,,139,B,star,1,0,,,,,,,,,,,,,,,,repeat,number,numRpt,d,0.5329,Hi,,,,,,1,,,,,,,,low,13,0,13,0,1,,,,,,,,
298240,2022-12-07_13h59.01.580,vts_reward_expectancy_bt,2022.2.4,Win32,60.6391365,Chrome,1536,864,,,,,1,619,,,,,,,,,,,,,,,,,146,W,hexagon,1,0,,,,,,,,,,,,,,,,repeat,number,numRpt,d,0.7778,Lo,,,,,,1,,,,,,,,low,14,0,14,0,1,,,,,,,,
298240,2022-12-07_13h59.01.580,vts_reward_expectancy_bt,2022.2.4,Win32,60.6391365,Chrome,1536,864,,,,,1,620,,,,,,,,,,,,,,,,,132,U,triangle,1,0,,,,,,,,,,,,,,,,repeat,number,numRpt,d,0.6358,Hi,,,,,,1,,,,,,,,low,15,0,15,0,1,,,,,,,,
298240,2022-12-07_13h59.01.580,vts_reward_expectancy_bt,2022.2.4,Win32,60.6391365,Chrome,1536,864,,,,,0,620,,,,,,,,,,,,,,,,,160,D,triangle,1,0,,,,,,,,,,,,,,,,repeat,number,numRpt,f,1.3673,Hi,,,,,,1,,,,,,,,low,16,0,16,0,1,,,,,,,,
298240,2022-12-07_13h59.01.580,vts_reward_expectancy_bt,2022.2.4,Win32,60.6391365,Chrome,1536,864,,,,,1,621,,,,,,,,,,,,,,,,,174,Y,hexagon,1,0,,,,,,,,,,,,,,,,repeat,number,numRpt,f,0.5975,Lo,,,,,,1,,,,,,,,low,17,0,17,0,1,,,,,,,,
298240,2022-12-07_13h59.01.580,vts_reward_expectancy_bt,2022.2.4,Win32,60.6391365,Chrome,1536,864,,,,,10,631,,,,,,,,,,,,,,,,,132,W,circle,1,0,,,,,,,,,,,,,,,,repeat,number,numRpt,d,0.8805,Lo,,,,,,1,,,,,,,,low,18,0,18,0,1,,,,,,,,
298240,2022-12-07_13h59.01.580,vts_reward_expectancy_bt,2022.2.4,Win32,60.6391365,Chrome,1536,864,,,,,0,631,,,,,,,,,,,,,,,,,125,U,star,1,0,,,,,,,,,,,,,,,,repeat,number,numRpt,d,0.7789,Hi,,,,,,1,,,,,,,,low,19,0,19,0,1,,,,,,,,
298240,2022-12-07_13h59.01.580,vts_reward_expectancy_bt,2022.2.4,Win32,60.6391365,Chrome,1536,864,,,,,10,641,,,,,,,,,,,,,,,,,139,H,triangle,1,0,,,,,,,,,,,,,,,,repeat,number,numRpt,d,0.6759,Hi,,,,,,1,,,,,,,,low,20,0,20,0,1,,,,,,,,
298240,2022-12-07_13h59.01.580,vts_reward_expectancy_bt,2022.2.4,Win32,60.6391365,Chrome,1536,864,,,,,0,641,,,,,,,,,,,,,,,,,181,F,hexagon,0,0,,,,,,,,,,,,,,,,repeat,number,NA,d,0.6025,Hi,,,,,,1,,,,,,,,low,21,0,21,0,1,,,,,,,,
298240,2022-12-07_13h59.01.580,vts_reward_expectancy_bt,2022.2.4,Win32,60.6391365,Chrome,1536,864,,,,,1,642,,,,,,,,,,,,,,,,,146,B,circle,1,1,,,,,,,,,,,,,,,,repeat,number,numRpt,d,0.4169,Lo,,,,,,1,,,,,,,,low,22,0,22,0,1,,,,,,,,
298240,2022-12-07_13h59.01.580,vts_reward_expectancy_bt,2022.2.4,Win32,60.6391365,Chrome,1536,864,,,,,1,643,,,,,,,,,,,,,,,,,167,S,star,1,0,,,,,,,,,,,,,,,,repeat,number,numRpt,f,0.6503,Hi,,,,,,1,,,,,,,,low,23,0,23,0,1,,,,,,,,
298240,2022-12-07_13h59.01.580,vts_reward_expectancy_bt,2022.2.4,Win32,60.6391365,Chrome,1536,864,,,,,10,653,,,,,,,,,,,,,,,,,125,F,hexagon,1,0,,,,,,,,,,,,,,,,repeat,number,numRpt,d,0.6467,Lo,,,,,,1,,,,,,,,low,24,0,24,0,1,,,,,,,,
298240,2022-12-07_13h59.01.580,vts_reward_expectancy_bt,2022.2.4,Win32,60.6391365,Chrome,1536,864,,,,,1,654,,,,,,,,,,,,,,,,,146,B,circle,1,0,,,,,,,,,,,,,,,,repeat,number,numRpt,d,0.6371,Lo,,,,,,1,,,,,,,,low,25,0,25,0,1,,,,,,,,
298240,2022-12-07_13h59.01.580,vts_reward_expectancy_bt,2022.2.4,Win32,60.6391365,Chrome,1536,864,,,,,0,654,,,,,,,,,,,,,,,,,174,D,triangle,1,0,,,,,,,,,,,,,,,,repeat,number,numRpt,f,0.7717,Hi,,,,,,1,,,,,,,,low,26,0,26,0,1,,,,,,,,
298240,2022-12-07_13h59.01.580,vts_reward_expectancy_bt,2022.2.4,Win32,60.6391365,Chrome,1536,864,,,,,0,654,,,,,,,,,,,,,,,,,132,Y,star,1,0,,,,,,,,,,,,,,,,repeat,number,numRpt,d,0.8024,Hi,,,,,,1,,,,,,,,low,27,0,27,0,1,,,,,,,,
298240,2022-12-07_13h59.01.580,vts_reward_expectancy_bt,2022.2.4,Win32,60.6391365,Chrome,1536,864,,,,,1,655,,,,,,,,,,,,,,,,,160,U,circle,1,0,,,,,,,,,,,,,,,,repeat,number,numRpt,f,0.873,Lo,,,,,,1,,,,,,,,low,28,0,28,0,1,,,,,,,,
298240,2022-12-07_13h59.01.580,vts_reward_expectancy_bt,2022.2.4,Win32,60.6391365,Chrome,1536,864,,,,,1,656,,,,,,,,,,,,,,,,,139,H,triangle,1,0,,,,,,,,,,,,,,,,repeat,number,numRpt,d,0.6094,Hi,,,,,,1,,,,,,,,low,29,0,29,0,1,,,,,,,,
298240,2022-12-07_13h59.01.580,vts_reward_expectancy_bt,2022.2.4,Win32,60.6391365,Chrome,1536,864,,,,,1,657,,,,,,,,,,,,,,,,,167,W,hexagon,1,0,,,,,,,,,,,,,,,,repeat,number,numRpt,f,0.7032,Lo,,,,,,1,,,,,,,,low,30,0,30,0,1,,,,,,,,
298240,2022-12-07_13h59.01.580,vts_reward_expectancy_bt,2022.2.4,Win32,60.6391365,Chrome,1536,864,,,,,0,657,,,,,,,,,,,,,,,,,181,S,star,1,0,,,,,,,,,,,,,,,,repeat,number,numRpt,f,0.9357,Hi,,,,,,1,,,,,,,,low,31,0,31,0,1,,,,,,,,
298240,2022-12-07_13h59.01.580,vts_reward_expectancy_bt,2022.2.4,Win32,60.6391365,Chrome,1536,864,,,,,1,658,,,,,,,,,,,,,,,,,181,B,triangle,1,0,,,,,,,,,,,,,,,,switch,letter,lettSwt,j,0.6126,Hi,,,,,,2,,,,,,space,2.6859,low,0,0,0,0,1,,,,,,,,
298240,2022-12-07_13h59.01.580,vts_reward_expectancy_bt,2022.2.4,Win32,60.6391365,Chrome,1536,864,,,,,1,659,,,,,,,,,,,,,,,,,174,U,circle,1,0,,,,,,,,,,,,,,,,repeat,letter,lettRpt,k,0.6815,Lo,,,,,,2,,,,,,,,low,1,0,1,0,1,,,,,,,,
298240,2022-12-07_13h59.01.580,vts_reward_expectancy_bt,2022.2.4,Win32,60.6391365,Chrome,1536,864,,,,,1,660,,,,,,,,,,,,,,,,,160,H,hexagon,1,0,,,,,,,,,,,,,,,,repeat,letter,lettRpt,j,1.7943,Lo,,,,,,2,,,,,,,,low,2,0,2,0,1,,,,,,,,
298240,2022-12-07_13h59.01.580,vts_reward_expectancy_bt,2022.2.4,Win32,60.6391365,Chrome,1536,864,,,,,1,661,,,,,,,,,,,,,,,,,167,Y,star,1,0,,,,,,,,,,,,,,,,repeat,letter,lettRpt,k,1.2352,Hi,,,,,,2,,,,,,,,low,3,0,3,0,1,,,,,,,,
298240,2022-12-07_13h59.01.580,vts_reward_expectancy_bt,2022.2.4,Win32,60.6391365,Chrome,1536,864,,,,,1,662,,,,,,,,,,,,,,,,,125,S,triangle,1,0,,,,,,,,,,,,,,,,repeat,letter,lettRpt,k,1.7485,Hi,,,,,,2,,,,,,,,low,4,0,4,0,1,,,,,,,,
298240,2022-12-07_13h59.01.580,vts_reward_expectancy_bt,2022.2.4,Win32,60.6391365,Chrome,1536,864,,,,,1,663,,,,,,,,,,,,,,,,,146,W,circle,1,0,,,,,,,,,,,,,,,,repeat,letter,lettRpt,k,0.9875,Lo,,,,,,2,,,,,,,,low,5,0,5,0,1,,,,,,,,
298240,2022-12-07_13h59.01.580,vts_reward_expectancy_bt,2022.2.4,Win32,60.6391365,Chrome,1536,864,,,,,1,664,,,,,,,,,,,,,,,,,139,F,hexagon,1,0,,,,,,,,,,,,,,,,repeat,letter,lettRpt,j,0.6475,Lo,,,,,,2,,,,,,,,low,6,0,6,0,1,,,,,,,,
298240,2022-12-07_13h59.01.580,vts_reward_expectancy_bt,2022.2.4,Win32,60.6391365,Chrome,1536,864,,,,,1,665,,,,,,,,,,,,,,,,,132,D,star,1,0,,,,,,,,,,,,,,,,repeat,letter,lettRpt,j,0.7944,Hi,,,,,,2,,,,,,,,low,7,0,7,0,1,,,,,,,,
298240,2022-12-07_13h59.01.580,vts_reward_expectancy_bt,2022.2.4,Win32,60.6391365,Chrome,1536,864,,,,,10,675,,,,,,,,,,,,,,,,,181,B,star,1,0,,,,,,,,,,,,,,,,repeat,letter,lettRpt,j,0.7857,Hi,,,,,,2,,,,,,,,low,8,0,8,0,1,,,,,,,,
298240,2022-12-07_13h59.01.580,vts_reward_expectancy_bt,2022.2.4,Win32,60.6391365,Chrome,1536,864,,,,,10,685,,,,,,,,,,,,,,,,,174,U,circle,1,0,,,,,,,,,,,,,,,,repeat,letter,lettRpt,k,0.8146,Lo,,,,,,2,,,,,,,,low,9,0,9,0,1,,,,,,,,
298240,2022-12-07_13h59.01.580,vts_reward_expectancy_bt,2022.2.4,Win32,60.6391365,Chrome,1536,864,,,,,1,686,,,,,,,,,,,,,,,,,160,H,hexagon,1,0,,,,,,,,,,,,,,,,repeat,letter,lettRpt,j,0.8715,Lo,,,,,,2,,,,,,,,low,10,0,10,0,1,,,,,,,,
298240,2022-12-07_13h59.01.580,vts_reward_expectancy_bt,2022.2.4,Win32,60.6391365,Chrome,1536,864,,,,,10,696,,,,,,,,,,,,,,,,,167,Y,triangle,1,0,,,,,,,,,,,,,,,,repeat,letter,lettRpt,k,0.786,Hi,,,,,,2,,,,,,,,low,11,0,11,0,1,,,,,,,,
298240,2022-12-07_13h59.01.580,vts_reward_expectancy_bt,2022.2.4,Win32,60.6391365,Chrome,1536,864,,,,,10,706,,,,,,,,,,,,,,,,,125,S,triangle,1,0,,,,,,,,,,,,,,,,repeat,letter,lettRpt,k,0.8491,Hi,,,,,,2,,,,,,,,low,12,0,12,0,1,,,,,,,,
298240,2022-12-07_13h59.01.580,vts_reward_expectancy_bt,2022.2.4,Win32,60.6391365,Chrome,1536,864,,,,,1,707,,,,,,,,,,,,,,,,,146,W,hexagon,1,0,,,,,,,,,,,,,,,,repeat,letter,lettRpt,k,0.8994,Lo,,,,,,2,,,,,,,,low,13,0,13,0,1,,,,,,,,
298240,2022-12-07_13h59.01.580,vts_reward_expectancy_bt,2022.2.4,Win32,60.6391365,Chrome,1536,864,,,,,10,717,,,,,,,,,,,,,,,,,139,F,circle,1,0,,,,,,,,,,,,,,,,repeat,letter,lettRpt,j,0.8221,Lo,,,,,,2,,,,,,,,low,14,0,14,0,1,,,,,,,,
298240,2022-12-07_13h59.01.580,vts_reward_expectancy_bt,2022.2.4,Win32,60.6391365,Chrome,1536,864,,,,,1,718,,,,,,,,,,,,,,,,,132,D,star,1,0,,,,,,,,,,,,,,,,repeat,letter,lettRpt,j,0.6115,Hi,,,,,,2,,,,,,,,low,15,0,15,0,1,,,,,,,,
298240,2022-12-07_13h59.01.580,vts_reward_expectancy_bt,2022.2.4,Win32,60.6391365,Chrome,1536,864,,,,,10,728,,,,,,,,,,,,,,,,,132,S,star,1,0,,,,,,,,,,,,,,,,switch,number,numSwt,d,0.68,Hi,,,,,,2,,,,,,,,low,16,0,16,0,1,,,,,,,,
298240,2022-12-07_13h59.01.580,vts_reward_expectancy_bt,2022.2.4,Win32,60.6391365,Chrome,1536,864,,,,,10,738,,,,,,,,,,,,,,,,,167,H,triangle,1,0,,,,,,,,,,,,,,,,repeat,number,numRpt,f,0.5679,Hi,,,,,,2,,,,,,,,low,17,0,17,0,1,,,,,,,,
298240,2022-12-07_13h59.01.580,vts_reward_expectancy_bt,2022.2.4,Win32,60.6391365,Chrome,1536,864,,,,,1,739,,,,,,,,,,,,,,,,,146,U,hexagon,1,0,,,,,,,,,,,,,,,,repeat,number,numRpt,d,0.7684,Lo,,,,,,2,,,,,,,,low,18,0,18,0,1,,,,,,,,
298240,2022-12-07_13h59.01.580,vts_reward_expectancy_bt,2022.2.4,Win32,60.6391365,Chrome,1536,864,,,,,10,749,,,,,,,,,,,,,,,,,181,B,circle,1,0,,,,,,,,,,,,,,,,repeat,number,numRpt,f,0.7614,Lo,,,,,,2,,,,,,,,low,19,0,19,0,1,,,,,,,,
298240,2022-12-07_13h59.01.580,vts_reward_expectancy_bt,2022.2.4,Win32,60.6391365,Chrome,1536,864,,,,,10,759,,,,,,,,,,,,,,,,,125,Y,hexagon,1,0,,,,,,,,,,,,,,,,repeat,number,numRpt,d,0.7457,Lo,,,,,,2,,,,,,,,low,20,0,20,0,1,,,,,,,,
298240,2022-12-07_13h59.01.580,vts_reward_expectancy_bt,2022.2.4,Win32,60.6391365,Chrome,1536,864,,,,,0,759,,,,,,,,,,,,,,,,,160,D,triangle,1,0,,,,,,,,,,,,,,,,repeat,number,numRpt,f,0.7007,Hi,,,,,,2,,,,,,,,low,21,0,21,0,1,,,,,,,,
298240,2022-12-07_13h59.01.580,vts_reward_expectancy_bt,2022.2.4,Win32,60.6391365,Chrome,1536,864,,,,,10,769,,,,,,,,,,,,,,,,,174,W,star,1,0,,,,,,,,,,,,,,,,repeat,number,numRpt,f,0.5976,Hi,,,,,,2,,,,,,,,low,22,0,22,0,1,,,,,,,,
298240,2022-12-07_13h59.01.580,vts_reward_expectancy_bt,2022.2.4,Win32,60.6391365,Chrome,1536,864,,,,,1,770,,,,,,,,,,,,,,,,,139,F,circle,1,0,,,,,,,,,,,,,,,,repeat,number,numRpt,d,0.6703,Lo,,,,,,2,,,,,,,,low,23,0,23,0,1,,,,,,,,
298240,2022-12-07_13h59.01.580,vts_reward_expectancy_bt,2022.2.4,Win32,60.6391365,Chrome,1536,864,,,,,1,771,,,,,,,,,,,,,,,,,146,Y,circle,1,0,,,,,,,,,,,,,,,,repeat,number,numRpt,d,1.3301,Lo,,,,,,2,,,,,,,,low,24,0,24,0,1,,,,,,,,
298240,2022-12-07_13h59.01.580,vts_reward_expectancy_bt,2022.2.4,Win32,60.6391365,Chrome,1536,864,,,,,1,772,,,,,,,,,,,,,,,,,174,B,hexagon,1,0,,,,,,,,,,,,,,,,repeat,number,numRpt,f,1.0665,Lo,,,,,,2,,,,,,,,low,25,0,25,0,1,,,,,,,,
298240,2022-12-07_13h59.01.580,vts_reward_expectancy_bt,2022.2.4,Win32,60.6391365,Chrome,1536,864,,,,,0,772,,,,,,,,,,,,,,,,,132,H,star,1,0,,,,,,,,,,,,,,,,repeat,number,numRpt,d,1.2109,Hi,,,,,,2,,,,,,,,low,26,0,26,0,1,,,,,,,,
298240,2022-12-07_13h59.01.580,vts_reward_expectancy_bt,2022.2.4,Win32,60.6391365,Chrome,1536,864,,,,,0,772,,,,,,,,,,,,,,,,,167,F,triangle,0,0,,,,,,,,,,,,,,,,repeat,number,NA,d,1.6614,Hi,,,,,,2,,,,,,,,low,27,0,27,0,1,,,,,,,,
298240,2022-12-07_13h59.01.580,vts_reward_expectancy_bt,2022.2.4,Win32,60.6391365,Chrome,1536,864,,,,,0,772,,,,,,,,,,,,,,,,,160,D,star,0,1,,,,,,,,,,,,,,,,repeat,number,NA,d,1.6462,Hi,,,,,,2,,,,,,,,low,28,0,28,0,1,,,,,,,,
298240,2022-12-07_13h59.01.580,vts_reward_expectancy_bt,2022.2.4,Win32,60.6391365,Chrome,1536,864,,,,,0,772,,,,,,,,,,,,,,,,,125,U,triangle,1,1,,,,,,,,,,,,,,,,repeat,number,numRpt,d,0.7301,Hi,,,,,,2,,,,,,,,low,29,0,29,0,1,,,,,,,,
298240,2022-12-07_13h59.01.580,vts_reward_expectancy_bt,2022.2.4,Win32,60.6391365,Chrome,1536,864,,,,,10,782,,,,,,,,,,,,,,,,,139,W,hexagon,1,0,,,,,,,,,,,,,,,,repeat,number,numRpt,d,0.7983,Lo,,,,,,2,,,,,,,,low,30,0,30,0,1,,,,,,,,
298240,2022-12-07_13h59.01.580,vts_reward_expectancy_bt,2022.2.4,Win32,60.6391365,Chrome,1536,864,,,,,10,792,,,,,,,,,,,,,,,,,181,S,circle,1,0,,,,,,,,,,,,,,,,repeat,number,numRpt,f,0.7702,Lo,,,,,,2,,,,,,,,low,31,0,31,0,1,,,,,,,,
298240,2022-12-07_13h59.01.580,vts_reward_expectancy_bt,2022.2.4,Win32,60.6391365,Chrome,1536,864,,,,,1,793,,,,,,,,,,,,,,,,,132,S,circle,1,0,,,,,,,,,,,,,,,,repeat,number,numRpt,d,2.6747,Lo,,,,,,3,,,,,,space,15.6899,low,0,0,0,0,1,,,,,,,,
298240,2022-12-07_13h59.01.580,vts_reward_expectancy_bt,2022.2.4,Win32,60.6391365,Chrome,1536,864,,,,,1,794,,,,,,,,,,,,,,,,,181,B,hexagon,1,0,,,,,,,,,,,,,,,,repeat,number,numRpt,f,1.002,Lo,,,,,,3,,,,,,,,low,1,0,1,0,1,,,,,,,,
298240,2022-12-07_13h59.01.580,vts_reward_expectancy_bt,2022.2.4,Win32,60.6391365,Chrome,1536,864,,,,,0,794,,,,,,,,,,,,,,,,,174,Y,star,1,0,,,,,,,,,,,,,,,,repeat,number,numRpt,f,2.1879,Hi,,,,,,3,,,,,,,,low,2,0,2,0,1,,,,,,,,
298240,2022-12-07_13h59.01.580,vts_reward_expectancy_bt,2022.2.4,Win32,60.6391365,Chrome,1536,864,,,,,0,794,,,,,,,,,,,,,,,,,146,U,triangle,1,0,,,,,,,,,,,,,,,,repeat,number,numRpt,d,2.1165,Hi,,,,,,3,,,,,,,,low,3,0,3,0,1,,,,,,,,
298240,2022-12-07_13h59.01.580,vts_reward_expectancy_bt,2022.2.4,Win32,60.6391365,Chrome,1536,864,,,,,1,795,,,,,,,,,,,,,,,,,160,H,circle,1,0,,,,,,,,,,,,,,,,repeat,number,numRpt,f,2.3094,Lo,,,,,,3,,,,,,,,low,4,0,4,0,1,,,,,,,,
298240,2022-12-07_13h59.01.580,vts_reward_expectancy_bt,2022.2.4,Win32,60.6391365,Chrome,1536,864,,,,,10,805,,,,,,,,,,,,,,,,,125,W,hexagon,1,0,,,,,,,,,,,,,,,,repeat,number,numRpt,d,1.5379,Lo,,,,,,3,,,,,,,,low,5,0,5,0,1,,,,,,,,
298240,2022-12-07_13h59.01.580,vts_reward_expectancy_bt,2022.2.4,Win32,60.6391365,Chrome,1536,864,,,,,0,805,,,,,,,,,,,,,,,,,167,D,star,1,0,,,,,,,,,,,,,,,,repeat,number,numRpt,f,1.8717,Hi,,,,,,3,,,,,,,,low,6,0,6,0,1,,,,,,,,
298240,2022-12-07_13h59.01.580,vts_reward_expectancy_bt,2022.2.4,Win32,60.6391365,Chrome,1536,864,,,,,0,805,,,,,,,,,,,,,,,,,139,F,triangle,1,0,,,,,,,,,,,,,,,,repeat,number,numRpt,d,1.0907,Hi,,,,,,3,,,,,,,,low,7,0,7,0,1,,,,,,,,
298240,2022-12-07_13h59.01.580,vts_reward_expectancy_bt,2022.2.4,Win32,60.6391365,Chrome,1536,864,,,,,0,805,,,,,,,,,,,,,,,,,132,S,triangle,1,0,,,,,,,,,,,,,,,,repeat,number,numRpt,d,2.1502,Hi,,,,,,3,,,,,,,,low,8,0,8,0,1,,,,,,,,
298240,2022-12-07_13h59.01.580,vts_reward_expectancy_bt,2022.2.4,Win32,60.6391365,Chrome,1536,864,,,,,1,806,,,,,,,,,,,,,,,,,181,B,circle,1,0,,,,,,,,,,,,,,,,repeat,number,numRpt,f,0.935,Lo,,,,,,3,,,,,,,,low,9,0,9,0,1,,,,,,,,
298240,2022-12-07_13h59.01.580,vts_reward_expectancy_bt,2022.2.4,Win32,60.6391365,Chrome,1536,864,,,,,1,807,,,,,,,,,,,,,,,,,174,Y,hexagon,1,0,,,,,,,,,,,,,,,,repeat,number,numRpt,f,0.851,Lo,,,,,,3,,,,,,,,low,10,0,10,0,1,,,,,,,,
298240,2022-12-07_13h59.01.580,vts_reward_expectancy_bt,2022.2.4,Win32,60.6391365,Chrome,1536,864,,,,,10,817,,,,,,,,,,,,,,,,,146,U,star,1,0,,,,,,,,,,,,,,,,repeat,number,numRpt,d,0.6352,Hi,,,,,,3,,,,,,,,low,11,0,11,0,1,,,,,,,,
298240,2022-12-07_13h59.01.580,vts_reward_expectancy_bt,2022.2.4,Win32,60.6391365,Chrome,1536,864,,,,,10,827,,,,,,,,,,,,,,,,,160,H,hexagon,1,0,,,,,,,,,,,,,,,,repeat,number,numRpt,f,0.5509,Lo,,,,,,3,,,,,,,,low,12,0,12,0,1,,,,,,,,
298240,2022-12-07_13h59.01.580,vts_reward_expectancy_bt,2022.2.4,Win32,60.6391365,Chrome,1536,864,,,,,1,828,,,,,,,,,,,,,,,,,125,W,triangle,1,0,,,,,,,,,,,,,,,,repeat,number,numRpt,d,0.6599,Hi,,,,,,3,,,,,,,,low,13,0,13,0,1,,,,,,,,
298240,2022-12-07_13h59.01.580,vts_reward_expectancy_bt,2022.2.4,Win32,60.6391365,Chrome,1536,864,,,,,10,838,,,,,,,,,,,,,,,,,167,D,circle,1,0,,,,,,,,,,,,,,,,repeat,number,numRpt,f,0.8345,Lo,,,,,,3,,,,,,,,low,14,0,14,0,1,,,,,,,,
298240,2022-12-07_13h59.01.580,vts_reward_expectancy_bt,2022.2.4,Win32,60.6391365,Chrome,1536,864,,,,,0,838,,,,,,,,,,,,,,,,,139,F,star,1,0,,,,,,,,,,,,,,,,repeat,number,numRpt,d,0.7713,Hi,,,,,,3,,,,,,,,low,15,0,15,0,1,,,,,,,,
298240,2022-12-07_13h59.01.580,vts_reward_expectancy_bt,2022.2.4,Win32,60.6391365,Chrome,1536,864,,,,,0,838,,,,,,,,,,,,,,,,,139,F,star,1,0,,,,,,,,,,,,,,,,repeat,number,numRpt,d,0.7509,Hi,,,,,,3,,,,,,,,low,16,0,16,0,1,,,,,,,,
298240,2022-12-07_13h59.01.580,vts_reward_expectancy_bt,2022.2.4,Win32,60.6391365,Chrome,1536,864,,,,,1,839,,,,,,,,,,,,,,,,,132,W,hexagon,1,0,,,,,,,,,,,,,,,,repeat,number,numRpt,d,0.803,Lo,,,,,,3,,,,,,,,low,17,0,17,0,1,,,,,,,,
298240,2022-12-07_13h59.01.580,vts_reward_expectancy_bt,2022.2.4,Win32,60.6391365,Chrome,1536,864,,,,,0,839,,,,,,,,,,,,,,,,,160,B,triangle,1,0,,,,,,,,,,,,,,,,repeat,number,numRpt,f,0.793,Hi,,,,,,3,,,,,,,,low,18,0,18,0,1,,,,,,,,
298240,2022-12-07_13h59.01.580,vts_reward_expectancy_bt,2022.2.4,Win32,60.6391365,Chrome,1536,864,,,,,1,840,,,,,,,,,,,,,,,,,146,U,circle,1,0,,,,,,,,,,,,,,,,repeat,number,numRpt,d,1.8846,Lo,,,,,,3,,,,,,,,low,19,0,19,0,1,,,,,,,,
298240,2022-12-07_13h59.01.580,vts_reward_expectancy_bt,2022.2.4,Win32,60.6391365,Chrome,1536,864,,,,,0,840,,,,,,,,,,,,,,,,,174,Y,star,1,0,,,,,,,,,,,,,,,,repeat,number,numRpt,f,1.0509,Hi,,,,,,3,,,,,,,,low,20,0,20,0,1,,,,,,,,
298240,2022-12-07_13h59.01.580,vts_reward_expectancy_bt,2022.2.4,Win32,60.6391365,Chrome,1536,864,,,,,10,850,,,,,,,,,,,,,,,,,181,D,circle,1,0,,,,,,,,,,,,,,,,repeat,number,numRpt,f,1.2192,Lo,,,,,,3,,,,,,,,low,21,0,21,0,1,,,,,,,,
298240,2022-12-07_13h59.01.580,vts_reward_expectancy_bt,2022.2.4,Win32,60.6391365,Chrome,1536,864,,,,,10,860,,,,,,,,,,,,,,,,,167,S,hexagon,1,0,,,,,,,,,,,,,,,,repeat,number,numRpt,f,0.9514,Lo,,,,,,3,,,,,,,,low,22,0,22,0,1,,,,,,,,
298240,2022-12-07_13h59.01.580,vts_reward_expectancy_bt,2022.2.4,Win32,60.6391365,Chrome,1536,864,,,,,0,860,,,,,,,,,,,,,,,,,125,H,triangle,1,0,,,,,,,,,,,,,,,,repeat,number,numRpt,d,1.0677,Hi,,,,,,3,,,,,,,,low,23,0,23,0,1,,,,,,,,
298240,2022-12-07_13h59.01.580,vts_reward_expectancy_bt,2022.2.4,Win32,60.6391365,Chrome,1536,864,,,,,1,861,,,,,,,,,,,,,,,,,167,F,circle,1,0,,,,,,,,,,,,,,,,repeat,number,numRpt,f,2.062,Lo,,,,,,3,,,,,,,,low,24,0,24,0,1,,,,,,,,
298240,2022-12-07_13h59.01.580,vts_reward_expectancy_bt,2022.2.4,Win32,60.6391365,Chrome,1536,864,,,,,0,861,,,,,,,,,,,,,,,,,146,Y,triangle,1,0,,,,,,,,,,,,,,,,repeat,number,numRpt,d,1.8071,Hi,,,,,,3,,,,,,,,low,25,0,25,0,1,,,,,,,,
298240,2022-12-07_13h59.01.580,vts_reward_expectancy_bt,2022.2.4,Win32,60.6391365,Chrome,1536,864,,,,,1,862,,,,,,,,,,,,,,,,,132,U,hexagon,1,0,,,,,,,,,,,,,,,,repeat,number,numRpt,d,1.6723,Lo,,,,,,3,,,,,,,,low,26,0,26,0,1,,,,,,,,
298240,2022-12-07_13h59.01.580,vts_reward_expectancy_bt,2022.2.4,Win32,60.6391365,Chrome,1536,864,,,,,0,862,,,,,,,,,,,,,,,,,160,S,star,1,0,,,,,,,,,,,,,,,,repeat,number,numRpt,f,1.1841,Hi,,,,,,3,,,,,,,,low,27,0,27,0,1,,,,,,,,
298240,2022-12-07_13h59.01.580,vts_reward_expectancy_bt,2022.2.4,Win32,60.6391365,Chrome,1536,864,,,,,1,863,,,,,,,,,,,,,,,,,181,H,circle,1,0,,,,,,,,,,,,,,,,repeat,number,numRpt,f,1.1032,Lo,,,,,,3,,,,,,,,low,28,0,28,0,1,,,,,,,,
298240,2022-12-07_13h59.01.580,vts_reward_expectancy_bt,2022.2.4,Win32,60.6391365,Chrome,1536,864,,,,,10,873,,,,,,,,,,,,,,,,,139,B,hexagon,1,0,,,,,,,,,,,,,,,,repeat,number,numRpt,d,2.0597,Lo,,,,,,3,,,,,,,,low,29,0,29,0,1,,,,,,,,
298240,2022-12-07_13h59.01.580,vts_reward_expectancy_bt,2022.2.4,Win32,60.6391365,Chrome,1536,864,,,,,0,873,,,,,,,,,,,,,,,,,174,W,star,1,0,,,,,,,,,,,,,,,,repeat,number,numRpt,f,1.6068,Hi,,,,,,3,,,,,,,,low,30,0,30,0,1,,,,,,,,
298240,2022-12-07_13h59.01.580,vts_reward_expectancy_bt,2022.2.4,Win32,60.6391365,Chrome,1536,864,,,,,0,873,,,,,,,,,,,,,,,,,125,D,triangle,1,0,,,,,,,,,,,,,,,,repeat,number,numRpt,d,1.9732,Hi,,,,,,3,,,,,,,,low,31,0,31,0,1,,,,,,,,
298240,2022-12-07_13h59.01.580,vts_reward_expectancy_bt,2022.2.4,Win32,60.6391365,Chrome,1536,864,,,,,1,874,,,,,,,,,,,,,,,,,160,D,circle,1,0,,,,,,,,,,,,,,,,repeat,number,numRpt,f,1.3709,Lo,,,,,,4,,,,,,space,2.0407,low,0,0,0,0,1,,,,,,,,
298240,2022-12-07_13h59.01.580,vts_reward_expectancy_bt,2022.2.4,Win32,60.6391365,Chrome,1536,864,,,,,10,884,,,,,,,,,,,,,,,,,125,Y,hexagon,1,0,,,,,,,,,,,,,,,,repeat,number,numRpt,d,1.6217,Lo,,,,,,4,,,,,,,,low,1,0,1,0,1,,,,,,,,
298240,2022-12-07_13h59.01.580,vts_reward_expectancy_bt,2022.2.4,Win32,60.6391365,Chrome,1536,864,,,,,0,884,,,,,,,,,,,,,,,,,146,B,triangle,1,0,,,,,,,,,,,,,,,,repeat,number,numRpt,d,1.6181,Hi,,,,,,4,,,,,,,,low,2,0,2,0,1,,,,,,,,
298240,2022-12-07_13h59.01.580,vts_reward_expectancy_bt,2022.2.4,Win32,60.6391365,Chrome,1536,864,,,,,10,894,,,,,,,,,,,,,,,,,167,H,star,1,0,,,,,,,,,,,,,,,,repeat,number,numRpt,f,0.9534,Hi,,,,,,4,,,,,,,,low,3,0,3,0,1,,,,,,,,
298240,2022-12-07_13h59.01.580,vts_reward_expectancy_bt,2022.2.4,Win32,60.6391365,Chrome,1536,864,,,,,10,904,,,,,,,,,,,,,,,,,139,F,circle,1,0,,,,,,,,,,,,,,,,repeat,number,numRpt,d,0.7014,Lo,,,,,,4,,,,,,,,low,4,0,4,0,1,,,,,,,,
298240,2022-12-07_13h59.01.580,vts_reward_expectancy_bt,2022.2.4,Win32,60.6391365,Chrome,1536,864,,,,,1,905,,,,,,,,,,,,,,,,,181,W,hexagon,1,0,,,,,,,,,,,,,,,,repeat,number,numRpt,f,1.6538,Lo,,,,,,4,,,,,,,,low,5,0,5,0,1,,,,,,,,
298240,2022-12-07_13h59.01.580,vts_reward_expectancy_bt,2022.2.4,Win32,60.6391365,Chrome,1536,864,,,,,0,905,,,,,,,,,,,,,,,,,132,U,triangle,-1,0,,,,,,,,,,,,,,,,switch,no_choice,NA,,,Lo,,,,,,4,,,,,,,,low,6,0,6,0,1,,,,,,,,
298240,2022-12-07_13h59.01.580,vts_reward_expectancy_bt,2022.2.4,Win32,60.6391365,Chrome,1536,864,,,,,1,906,,,,,,,,,,,,,,,,,174,S,star,1,0,,,,,,,,,,,,,,,,switch,number,numSwt,f,1.851,Hi,,,,,,4,,,,,,,,low,7,0,7,0,1,,,,,,,,
298240,2022-12-07_13h59.01.580,vts_reward_expectancy_bt,2022.2.4,Win32,60.6391365,Chrome,1536,864,,,,,1,907,,,,,,,,,,,,,,,,,160,D,circle,1,0,,,,,,,,,,,,,,,,repeat,number,numRpt,f,1.1335,Lo,,,,,,4,,,,,,,,low,8,0,8,0,1,,,,,,,,
298240,2022-12-07_13h59.01.580,vts_reward_expectancy_bt,2022.2.4,Win32,60.6391365,Chrome,1536,864,,,,,0,907,,,,,,,,,,,,,,,,,125,Y,triangle,1,0,,,,,,,,,,,,,,,,repeat,number,numRpt,d,2.2516,Hi,,,,,,4,,,,,,,,low,9,0,9,0,1,,,,,,,,
298240,2022-12-07_13h59.01.580,vts_reward_expectancy_bt,2022.2.4,Win32,60.6391365,Chrome,1536,864,,,,,10,917,,,,,,,,,,,,,,,,,146,B,hexagon,1,0,,,,,,,,,,,,,,,,repeat,number,numRpt,d,2.1847,Lo,,,,,,4,,,,,,,,low,10,0,10,0,1,,,,,,,,
298240,2022-12-07_13h59.01.580,vts_reward_expectancy_bt,2022.2.4,Win32,60.6391365,Chrome,1536,864,,,,,1,918,,,,,,,,,,,,,,,,,167,H,star,1,0,,,,,,,,,,,,,,,,repeat,number,numRpt,f,0.9188,Hi,,,,,,4,,,,,,,,low,11,0,11,0,1,,,,,,,,
298240,2022-12-07_13h59.01.580,vts_reward_expectancy_bt,2022.2.4,Win32,60.6391365,Chrome,1536,864,,,,,1,919,,,,,,,,,,,,,,,,,139,F,triangle,1,0,,,,,,,,,,,,,,,,repeat,number,numRpt,d,0.8205,Hi,,,,,,4,,,,,,,,low,12,0,12,0,1,,,,,,,,
298240,2022-12-07_13h59.01.580,vts_reward_expectancy_bt,2022.2.4,Win32,60.6391365,Chrome,1536,864,,,,,1,920,,,,,,,,,,,,,,,,,181,W,star,1,0,,,,,,,,,,,,,,,,repeat,number,numRpt,f,0.6658,Hi,,,,,,4,,,,,,,,low,13,0,13,0,1,,,,,,,,
298240,2022-12-07_13h59.01.580,vts_reward_expectancy_bt,2022.2.4,Win32,60.6391365,Chrome,1536,864,,,,,1,921,,,,,,,,,,,,,,,,,132,U,circle,1,0,,,,,,,,,,,,,,,,repeat,number,numRpt,d,1.834,Lo,,,,,,4,,,,,,,,low,14,0,14,0,1,,,,,,,,
298240,2022-12-07_13h59.01.580,vts_reward_expectancy_bt,2022.2.4,Win32,60.6391365,Chrome,1536,864,,,,,1,922,,,,,,,,,,,,,,,,,174,S,hexagon,1,0,,,,,,,,,,,,,,,,repeat,number,numRpt,f,0.9061,Lo,,,,,,4,,,,,,,,low,15,0,15,0,1,,,,,,,,
298240,2022-12-07_13h59.01.580,vts_reward_expectancy_bt,2022.2.4,Win32,60.6391365,Chrome,1536,864,,,,,10,932,,,,,,,,,,,,,,,,,146,F,circle,1,0,,,,,,,,,,,,,,,,repeat,number,numRpt,d,1.0357,Lo,,,,,,4,,,,,,,,low,16,0,16,0,1,,,,,,,,
298240,2022-12-07_13h59.01.580,vts_reward_expectancy_bt,2022.2.4,Win32,60.6391365,Chrome,1536,864,,,,,10,942,,,,,,,,,,,,,,,,,167,S,hexagon,1,0,,,,,,,,,,,,,,,,repeat,number,numRpt,f,1.4681,Lo,,,,,,4,,,,,,,,low,17,0,17,0,1,,,,,,,,
298240,2022-12-07_13h59.01.580,vts_reward_expectancy_bt,2022.2.4,Win32,60.6391365,Chrome,1536,864,,,,,0,942,,,,,,,,,,,,,,,,,174,U,triangle,1,0,,,,,,,,,,,,,,,,repeat,number,numRpt,f,1.0114,Hi,,,,,,4,,,,,,,,low,18,0,18,0,1,,,,,,,,
298240,2022-12-07_13h59.01.580,vts_reward_expectancy_bt,2022.2.4,Win32,60.6391365,Chrome,1536,864,,,,,1,943,,,,,,,,,,,,,,,,,181,Y,star,1,0,,,,,,,,,,,,,,,,repeat,number,numRpt,f,0.8433,Hi,,,,,,4,,,,,,,,low,19,0,19,0,1,,,,,,,,
298240,2022-12-07_13h59.01.580,vts_reward_expectancy_bt,2022.2.4,Win32,60.6391365,Chrome,1536,864,,,,,1,944,,,,,,,,,,,,,,,,,139,H,hexagon,1,0,,,,,,,,,,,,,,,,repeat,number,numRpt,d,0.8176,Lo,,,,,,4,,,,,,,,low,20,0,20,0,1,,,,,,,,
