participant,date,expName,psychopyVersion,OS,frameRate,browser,xResolution,yResolution,key_resp.keys,key_resp.rt,training_resp.keys,training_resp.rt,points_trial,points_cumul,trainBlock,training.thisRepN,training.thisTrialN,training.thisN,training.thisIndex,training.ran,LTriangleOpac,LCircleOpac,LHexagonOpac,LStarOpac,RTriangleOpac,RCircleOpac,RHexagonOpac,RStarOpac,LShape_ID,RShape_ID,curr_topStim,curr_bottStim,curr_shape,acc,E1,target_resp_prac1.keys,pracBlock,task1_prac_trials.thisRepN,task1_prac_trials.thisTrialN,task1_prac_trials.thisN,task1_prac_trials.thisIndex,task1_prac_trials.ran,target_resp_prac1.rt,target_resp_prac2.keys,target_resp_prac2.rt,task2_praac_trials.thisRepN,task2_praac_trials.thisTrialN,task2_praac_trials.thisN,task2_praac_trials.thisIndex,task2_praac_trials.ran,alt,task,condition,target_resp.keys,target_resp.rt,rewCond,vts_practice_trials.thisRepN,vts_practice_trials.thisTrialN,vts_practice_trials.thisN,vts_practice_trials.thisIndex,vts_practice_trials.ran,blockNum,trials_norew.thisRepN,trials_norew.thisTrialN,trials_norew.thisN,trials_norew.thisIndex,trials_norew.ran,key_resp_2.keys,key_resp_2.rt,rewExpectancy,trials_rew.thisRepN,trials_rew.thisTrialN,trials_rew.thisN,trials_rew.thisIndex,trials_rew.ran,Q1,Q2,Q2_text,Q3,Q4,Q5_text,Q5,xRes,yRes
298207,2022-12-07_05h37.24.002,vts_reward_expectancy_bt,2022.2.4,Win32,59.81934558,Chrome,1504,1003,,,,,,,,,,,,,,,,,,,,,,,,,,,,,,,,,,,,,,,,,,,,,,,,,,,,,,,,,,,,,,,,,,,,,,,,,,,,
298207,2022-12-07_05h37.24.002,vts_reward_expectancy_bt,2022.2.4,Win32,59.81934558,Chrome,1504,1003,space,13.8213,,,,,,,,,,,,,,,,,,,,,,,,,,,,,,,,,,,,,,,,,,,,,,,,,,,,,,,,,,,,,,,,,,,,,,,,,,
298207,2022-12-07_05h37.24.002,vts_reward_expectancy_bt,2022.2.4,Win32,59.81934558,Chrome,1504,1003,,,,,,,,,,,,,,,,,,,,,,,,,,,,,,,,,,,,,,,,,,,,,,,,,,,,,,,,,,,,,,,,,,,,,,,,,,,,
298207,2022-12-07_05h37.24.002,vts_reward_expectancy_bt,2022.2.4,Win32,59.81934558,Chrome,1504,1003,,,a,2.2239,1,1,0,0,0,0,0,1,1,0,0,0,0,1,0,0,triangle,circle,,,,,,,,,,,,,,,,,,,,,,,,,,,,,,,,,,,,,,,,,,,,,,,,,,,,,,
298207,2022-12-07_05h37.24.002,vts_reward_expectancy_bt,2022.2.4,Win32,59.81934558,Chrome,1504,1003,,,a,1.8883,1,2,0,0,1,1,11,1,0,0,0,1,0,0,1,0,star,hexagon,,,,,,,,,,,,,,,,,,,,,,,,,,,,,,,,,,,,,,,,,,,,,,,,,,,,,,
298207,2022-12-07_05h37.24.002,vts_reward_expectancy_bt,2022.2.4,Win32,59.81934558,Chrome,1504,1003,,,a,1.6649,10,12,0,0,2,2,6,1,0,0,1,0,1,0,0,0,hexagon,triangle,,,,,,,,,,,,,,,,,,,,,,,,,,,,,,,,,,,,,,,,,,,,,,,,,,,,,,
298207,2022-12-07_05h37.24.002,vts_reward_expectancy_bt,2022.2.4,Win32,59.81934558,Chrome,1504,1003,,,a,1.5208,10,22,0,0,3,3,3,1,0,1,0,0,1,0,0,0,circle,triangle,,,,,,,,,,,,,,,,,,,,,,,,,,,,,,,,,,,,,,,,,,,,,,,,,,,,,,
298207,2022-12-07_05h37.24.002,vts_reward_expectancy_bt,2022.2.4,Win32,59.81934558,Chrome,1504,1003,,,l,1.4122,1,23,0,0,4,4,10,1,0,0,0,1,0,1,0,0,star ,circle,,,,,,,,,,,,,,,,,,,,,,,,,,,,,,,,,,,,,,,,,,,,,,,,,,,,,,
298207,2022-12-07_05h37.24.002,vts_reward_expectancy_bt,2022.2.4,Win32,59.81934558,Chrome,1504,1003,,,l,1.3762,1,24,0,0,5,5,7,1,0,0,1,0,0,1,0,0,hexagon,circle,,,,,,,,,,,,,,,,,,,,,,,,,,,,,,,,,,,,,,,,,,,,,,,,,,,,,,
298207,2022-12-07_05h37.24.002,vts_reward_expectancy_bt,2022.2.4,Win32,59.81934558,Chrome,1504,1003,,,l,2.3832,1,25,0,0,6,6,2,1,1,0,0,0,0,0,0,1,triangle,star,,,,,,,,,,,,,,,,,,,,,,,,,,,,,,,,,,,,,,,,,,,,,,,,,,,,,,
298207,2022-12-07_05h37.24.002,vts_reward_expectancy_bt,2022.2.4,Win32,59.81934558,Chrome,1504,1003,,,l,3.1489,1,26,0,0,7,7,8,1,0,0,1,0,0,0,0,1,hexagon,star,,,,,,,,,,,,,,,,,,,,,,,,,,,,,,,,,,,,,,,,,,,,,,,,,,,,,,
298207,2022-12-07_05h37.24.002,vts_reward_expectancy_bt,2022.2.4,Win32,59.81934558,Chrome,1504,1003,,,a,1.6635,10,36,0,0,8,8,5,1,0,1,0,0,0,0,0,1,circle,star,,,,,,,,,,,,,,,,,,,,,,,,,,,,,,,,,,,,,,,,,,,,,,,,,,,,,,
298207,2022-12-07_05h37.24.002,vts_reward_expectancy_bt,2022.2.4,Win32,59.81934558,Chrome,1504,1003,,,l,2.538,10,46,0,0,9,9,1,1,1,0,0,0,0,0,1,0,triangle,hexagon,,,,,,,,,,,,,,,,,,,,,,,,,,,,,,,,,,,,,,,,,,,,,,,,,,,,,,
298207,2022-12-07_05h37.24.002,vts_reward_expectancy_bt,2022.2.4,Win32,59.81934558,Chrome,1504,1003,,,a,1.6736,1,47,0,0,10,10,9,1,0,0,0,1,1,0,0,0,star,triangle,,,,,,,,,,,,,,,,,,,,,,,,,,,,,,,,,,,,,,,,,,,,,,,,,,,,,,
298207,2022-12-07_05h37.24.002,vts_reward_expectancy_bt,2022.2.4,Win32,59.81934558,Chrome,1504,1003,,,a,0.942,1,48,0,0,11,11,4,1,0,1,0,0,0,0,1,0,circle,hexagon,,,,,,,,,,,,,,,,,,,,,,,,,,,,,,,,,,,,,,,,,,,,,,,,,,,,,,
298207,2022-12-07_05h37.24.002,vts_reward_expectancy_bt,2022.2.4,Win32,59.81934558,Chrome,1504,1003,,,a,1.6869,10,58,0,1,0,12,0,1,1,0,0,0,0,1,0,0,triangle,circle,,,,,,,,,,,,,,,,,,,,,,,,,,,,,,,,,,,,,,,,,,,,,,,,,,,,,,
298207,2022-12-07_05h37.24.002,vts_reward_expectancy_bt,2022.2.4,Win32,59.81934558,Chrome,1504,1003,,,a,1.389,1,59,0,1,1,13,3,1,0,1,0,0,1,0,0,0,circle,triangle,,,,,,,,,,,,,,,,,,,,,,,,,,,,,,,,,,,,,,,,,,,,,,,,,,,,,,
298207,2022-12-07_05h37.24.002,vts_reward_expectancy_bt,2022.2.4,Win32,59.81934558,Chrome,1504,1003,,,l,0.9243,10,69,0,1,2,14,1,1,1,0,0,0,0,0,1,0,triangle,hexagon,,,,,,,,,,,,,,,,,,,,,,,,,,,,,,,,,,,,,,,,,,,,,,,,,,,,,,
298207,2022-12-07_05h37.24.002,vts_reward_expectancy_bt,2022.2.4,Win32,59.81934558,Chrome,1504,1003,,,a,0.8318,10,79,0,1,3,15,8,1,0,0,1,0,0,0,0,1,hexagon,star,,,,,,,,,,,,,,,,,,,,,,,,,,,,,,,,,,,,,,,,,,,,,,,,,,,,,,
298207,2022-12-07_05h37.24.002,vts_reward_expectancy_bt,2022.2.4,Win32,59.81934558,Chrome,1504,1003,,,l,1.5341,1,80,0,1,4,16,2,1,1,0,0,0,0,0,0,1,triangle,star,,,,,,,,,,,,,,,,,,,,,,,,,,,,,,,,,,,,,,,,,,,,,,,,,,,,,,
298207,2022-12-07_05h37.24.002,vts_reward_expectancy_bt,2022.2.4,Win32,59.81934558,Chrome,1504,1003,,,l,1.8975,10,90,0,1,5,17,11,1,0,0,0,1,0,0,1,0,star,hexagon,,,,,,,,,,,,,,,,,,,,,,,,,,,,,,,,,,,,,,,,,,,,,,,,,,,,,,
298207,2022-12-07_05h37.24.002,vts_reward_expectancy_bt,2022.2.4,Win32,59.81934558,Chrome,1504,1003,,,l,1.3077,10,100,0,1,6,18,4,1,0,1,0,0,0,0,1,0,circle,hexagon,,,,,,,,,,,,,,,,,,,,,,,,,,,,,,,,,,,,,,,,,,,,,,,,,,,,,,
298207,2022-12-07_05h37.24.002,vts_reward_expectancy_bt,2022.2.4,Win32,59.81934558,Chrome,1504,1003,,,a,0.8359,10,110,0,1,7,19,7,1,0,0,1,0,0,1,0,0,hexagon,circle,,,,,,,,,,,,,,,,,,,,,,,,,,,,,,,,,,,,,,,,,,,,,,,,,,,,,,
298207,2022-12-07_05h37.24.002,vts_reward_expectancy_bt,2022.2.4,Win32,59.81934558,Chrome,1504,1003,,,a,0.9936,10,120,0,1,8,20,10,1,0,0,0,1,0,1,0,0,star ,circle,,,,,,,,,,,,,,,,,,,,,,,,,,,,,,,,,,,,,,,,,,,,,,,,,,,,,,
298207,2022-12-07_05h37.24.002,vts_reward_expectancy_bt,2022.2.4,Win32,59.81934558,Chrome,1504,1003,,,l,1.3568,1,121,0,1,9,21,9,1,0,0,0,1,1,0,0,0,star,triangle,,,,,,,,,,,,,,,,,,,,,,,,,,,,,,,,,,,,,,,,,,,,,,,,,,,,,,
298207,2022-12-07_05h37.24.002,vts_reward_expectancy_bt,2022.2.4,Win32,59.81934558,Chrome,1504,1003,,,l,1.2219,1,122,0,1,10,22,5,1,0,1,0,0,0,0,0,1,circle,star,,,,,,,,,,,,,,,,,,,,,,,,,,,,,,,,,,,,,,,,,,,,,,,,,,,,,,
298207,2022-12-07_05h37.24.002,vts_reward_expectancy_bt,2022.2.4,Win32,59.81934558,Chrome,1504,1003,,,a,0.9817,10,132,0,1,11,23,6,1,0,0,1,0,1,0,0,0,hexagon,triangle,,,,,,,,,,,,,,,,,,,,,,,,,,,,,,,,,,,,,,,,,,,,,,,,,,,,,,
298207,2022-12-07_05h37.24.002,vts_reward_expectancy_bt,2022.2.4,Win32,59.81934558,Chrome,1504,1003,,,l,0.9842,1,133,0,2,0,24,2,1,1,0,0,0,0,0,0,1,triangle,star,,,,,,,,,,,,,,,,,,,,,,,,,,,,,,,,,,,,,,,,,,,,,,,,,,,,,,
298207,2022-12-07_05h37.24.002,vts_reward_expectancy_bt,2022.2.4,Win32,59.81934558,Chrome,1504,1003,,,l,1.0803,1,134,0,2,1,25,3,1,0,1,0,0,1,0,0,0,circle,triangle,,,,,,,,,,,,,,,,,,,,,,,,,,,,,,,,,,,,,,,,,,,,,,,,,,,,,,
298207,2022-12-07_05h37.24.002,vts_reward_expectancy_bt,2022.2.4,Win32,59.81934558,Chrome,1504,1003,,,a,1.0942,10,144,0,2,2,26,6,1,0,0,1,0,1,0,0,0,hexagon,triangle,,,,,,,,,,,,,,,,,,,,,,,,,,,,,,,,,,,,,,,,,,,,,,,,,,,,,,
298207,2022-12-07_05h37.24.002,vts_reward_expectancy_bt,2022.2.4,Win32,59.81934558,Chrome,1504,1003,,,a,0.8424,1,145,0,2,3,27,9,1,0,0,0,1,1,0,0,0,star,triangle,,,,,,,,,,,,,,,,,,,,,,,,,,,,,,,,,,,,,,,,,,,,,,,,,,,,,,
298207,2022-12-07_05h37.24.002,vts_reward_expectancy_bt,2022.2.4,Win32,59.81934558,Chrome,1504,1003,,,a,0.9896,1,146,0,2,4,28,0,1,1,0,0,0,0,1,0,0,triangle,circle,,,,,,,,,,,,,,,,,,,,,,,,,,,,,,,,,,,,,,,,,,,,,,,,,,,,,,
298207,2022-12-07_05h37.24.002,vts_reward_expectancy_bt,2022.2.4,Win32,59.81934558,Chrome,1504,1003,,,l,1.3448,1,147,0,2,5,29,5,1,0,1,0,0,0,0,0,1,circle,star,,,,,,,,,,,,,,,,,,,,,,,,,,,,,,,,,,,,,,,,,,,,,,,,,,,,,,
298207,2022-12-07_05h37.24.002,vts_reward_expectancy_bt,2022.2.4,Win32,59.81934558,Chrome,1504,1003,,,a,0.9541,10,157,0,2,6,30,7,1,0,0,1,0,0,1,0,0,hexagon,circle,,,,,,,,,,,,,,,,,,,,,,,,,,,,,,,,,,,,,,,,,,,,,,,,,,,,,,
298207,2022-12-07_05h37.24.002,vts_reward_expectancy_bt,2022.2.4,Win32,59.81934558,Chrome,1504,1003,,,l,0.8881,10,167,0,2,7,31,1,1,1,0,0,0,0,0,1,0,triangle,hexagon,,,,,,,,,,,,,,,,,,,,,,,,,,,,,,,,,,,,,,,,,,,,,,,,,,,,,,
298207,2022-12-07_05h37.24.002,vts_reward_expectancy_bt,2022.2.4,Win32,59.81934558,Chrome,1504,1003,,,l,1.5271,10,177,0,2,8,32,8,1,0,0,1,0,0,0,0,1,hexagon,star,,,,,,,,,,,,,,,,,,,,,,,,,,,,,,,,,,,,,,,,,,,,,,,,,,,,,,
298207,2022-12-07_05h37.24.002,vts_reward_expectancy_bt,2022.2.4,Win32,59.81934558,Chrome,1504,1003,,,l,1.5008,1,178,0,2,9,33,10,1,0,0,0,1,0,1,0,0,star ,circle,,,,,,,,,,,,,,,,,,,,,,,,,,,,,,,,,,,,,,,,,,,,,,,,,,,,,,
298207,2022-12-07_05h37.24.002,vts_reward_expectancy_bt,2022.2.4,Win32,59.81934558,Chrome,1504,1003,,,l,1.3304,10,188,0,2,10,34,11,1,0,0,0,1,0,0,1,0,star,hexagon,,,,,,,,,,,,,,,,,,,,,,,,,,,,,,,,,,,,,,,,,,,,,,,,,,,,,,
298207,2022-12-07_05h37.24.002,vts_reward_expectancy_bt,2022.2.4,Win32,59.81934558,Chrome,1504,1003,,,l,0.5896,10,198,0,2,11,35,4,1,0,1,0,0,0,0,1,0,circle,hexagon,,,,,,,,,,,,,,,,,,,,,,,,,,,,,,,,,,,,,,,,,,,,,,,,,,,,,,
298207,2022-12-07_05h37.24.002,vts_reward_expectancy_bt,2022.2.4,Win32,59.81934558,Chrome,1504,1003,,,l,1.1567,1,199,1,0,0,0,4,1,0,1,0,0,0,0,1,0,circle,hexagon,,,,,,,,,,,,,,,,,,,,,,,,,,,,,,,,,,,,,,,,,,,,,,,,,,,,,,
298207,2022-12-07_05h37.24.002,vts_reward_expectancy_bt,2022.2.4,Win32,59.81934558,Chrome,1504,1003,,,l,1.0815,1,200,1,0,1,1,8,1,0,0,1,0,0,0,0,1,hexagon,star,,,,,,,,,,,,,,,,,,,,,,,,,,,,,,,,,,,,,,,,,,,,,,,,,,,,,,
298207,2022-12-07_05h37.24.002,vts_reward_expectancy_bt,2022.2.4,Win32,59.81934558,Chrome,1504,1003,,,a,1.5503,1,201,1,0,2,2,10,1,0,0,0,1,0,1,0,0,star ,circle,,,,,,,,,,,,,,,,,,,,,,,,,,,,,,,,,,,,,,,,,,,,,,,,,,,,,,
298207,2022-12-07_05h37.24.002,vts_reward_expectancy_bt,2022.2.4,Win32,59.81934558,Chrome,1504,1003,,,l,0.8992,10,211,1,0,3,3,9,1,0,0,0,1,1,0,0,0,star,triangle,,,,,,,,,,,,,,,,,,,,,,,,,,,,,,,,,,,,,,,,,,,,,,,,,,,,,,
298207,2022-12-07_05h37.24.002,vts_reward_expectancy_bt,2022.2.4,Win32,59.81934558,Chrome,1504,1003,,,l,2.9588,1,212,1,0,4,4,2,1,1,0,0,0,0,0,0,1,triangle,star,,,,,,,,,,,,,,,,,,,,,,,,,,,,,,,,,,,,,,,,,,,,,,,,,,,,,,
298207,2022-12-07_05h37.24.002,vts_reward_expectancy_bt,2022.2.4,Win32,59.81934558,Chrome,1504,1003,,,l,0.9752,10,222,1,0,5,5,3,1,0,1,0,0,1,0,0,0,circle,triangle,,,,,,,,,,,,,,,,,,,,,,,,,,,,,,,,,,,,,,,,,,,,,,,,,,,,,,
298207,2022-12-07_05h37.24.002,vts_reward_expectancy_bt,2022.2.4,Win32,59.81934558,Chrome,1504,1003,,,a,1.2853,10,232,1,0,6,6,6,1,0,0,1,0,1,0,0,0,hexagon,triangle,,,,,,,,,,,,,,,,,,,,,,,,,,,,,,,,,,,,,,,,,,,,,,,,,,,,,,
298207,2022-12-07_05h37.24.002,vts_reward_expectancy_bt,2022.2.4,Win32,59.81934558,Chrome,1504,1003,,,a,1.3662,10,242,1,0,7,7,0,1,1,0,0,0,0,1,0,0,triangle,circle,,,,,,,,,,,,,,,,,,,,,,,,,,,,,,,,,,,,,,,,,,,,,,,,,,,,,,
298207,2022-12-07_05h37.24.002,vts_reward_expectancy_bt,2022.2.4,Win32,59.81934558,Chrome,1504,1003,,,a,1.1808,10,252,1,0,8,8,7,1,0,0,1,0,0,1,0,0,hexagon,circle,,,,,,,,,,,,,,,,,,,,,,,,,,,,,,,,,,,,,,,,,,,,,,,,,,,,,,
298207,2022-12-07_05h37.24.002,vts_reward_expectancy_bt,2022.2.4,Win32,59.81934558,Chrome,1504,1003,,,l,1.8915,1,253,1,0,9,9,5,1,0,1,0,0,0,0,0,1,circle,star,,,,,,,,,,,,,,,,,,,,,,,,,,,,,,,,,,,,,,,,,,,,,,,,,,,,,,
298207,2022-12-07_05h37.24.002,vts_reward_expectancy_bt,2022.2.4,Win32,59.81934558,Chrome,1504,1003,,,l,2.3669,10,263,1,0,10,10,1,1,1,0,0,0,0,0,1,0,triangle,hexagon,,,,,,,,,,,,,,,,,,,,,,,,,,,,,,,,,,,,,,,,,,,,,,,,,,,,,,
298207,2022-12-07_05h37.24.002,vts_reward_expectancy_bt,2022.2.4,Win32,59.81934558,Chrome,1504,1003,,,l,1.2163,1,264,1,0,11,11,11,1,0,0,0,1,0,0,1,0,star,hexagon,,,,,,,,,,,,,,,,,,,,,,,,,,,,,,,,,,,,,,,,,,,,,,,,,,,,,,
298207,2022-12-07_05h37.24.002,vts_reward_expectancy_bt,2022.2.4,Win32,59.81934558,Chrome,1504,1003,,,a,3.4655,10,274,1,1,0,12,6,1,0,0,1,0,1,0,0,0,hexagon,triangle,,,,,,,,,,,,,,,,,,,,,,,,,,,,,,,,,,,,,,,,,,,,,,,,,,,,,,
298207,2022-12-07_05h37.24.002,vts_reward_expectancy_bt,2022.2.4,Win32,59.81934558,Chrome,1504,1003,,,a,1.0977,10,284,1,1,1,13,2,1,1,0,0,0,0,0,0,1,triangle,star,,,,,,,,,,,,,,,,,,,,,,,,,,,,,,,,,,,,,,,,,,,,,,,,,,,,,,
298207,2022-12-07_05h37.24.002,vts_reward_expectancy_bt,2022.2.4,Win32,59.81934558,Chrome,1504,1003,,,l,1.5486,1,285,1,1,2,14,5,1,0,1,0,0,0,0,0,1,circle,star,,,,,,,,,,,,,,,,,,,,,,,,,,,,,,,,,,,,,,,,,,,,,,,,,,,,,,
298207,2022-12-07_05h37.24.002,vts_reward_expectancy_bt,2022.2.4,Win32,59.81934558,Chrome,1504,1003,,,l,1.1522,10,295,1,1,3,15,4,1,0,1,0,0,0,0,1,0,circle,hexagon,,,,,,,,,,,,,,,,,,,,,,,,,,,,,,,,,,,,,,,,,,,,,,,,,,,,,,
298207,2022-12-07_05h37.24.002,vts_reward_expectancy_bt,2022.2.4,Win32,59.81934558,Chrome,1504,1003,,,a,1.0201,10,305,1,1,4,16,7,1,0,0,1,0,0,1,0,0,hexagon,circle,,,,,,,,,,,,,,,,,,,,,,,,,,,,,,,,,,,,,,,,,,,,,,,,,,,,,,
298207,2022-12-07_05h37.24.002,vts_reward_expectancy_bt,2022.2.4,Win32,59.81934558,Chrome,1504,1003,,,l,1.0312,10,315,1,1,5,17,9,1,0,0,0,1,1,0,0,0,star,triangle,,,,,,,,,,,,,,,,,,,,,,,,,,,,,,,,,,,,,,,,,,,,,,,,,,,,,,
298207,2022-12-07_05h37.24.002,vts_reward_expectancy_bt,2022.2.4,Win32,59.81934558,Chrome,1504,1003,,,a,0.9324,10,325,1,1,6,18,0,1,1,0,0,0,0,1,0,0,triangle,circle,,,,,,,,,,,,,,,,,,,,,,,,,,,,,,,,,,,,,,,,,,,,,,,,,,,,,,
298207,2022-12-07_05h37.24.002,vts_reward_expectancy_bt,2022.2.4,Win32,59.81934558,Chrome,1504,1003,,,l,0.7236,10,335,1,1,7,19,3,1,0,1,0,0,1,0,0,0,circle,triangle,,,,,,,,,,,,,,,,,,,,,,,,,,,,,,,,,,,,,,,,,,,,,,,,,,,,,,
298207,2022-12-07_05h37.24.002,vts_reward_expectancy_bt,2022.2.4,Win32,59.81934558,Chrome,1504,1003,,,l,1.084,1,336,1,1,8,20,11,1,0,0,0,1,0,0,1,0,star,hexagon,,,,,,,,,,,,,,,,,,,,,,,,,,,,,,,,,,,,,,,,,,,,,,,,,,,,,,
298207,2022-12-07_05h37.24.002,vts_reward_expectancy_bt,2022.2.4,Win32,59.81934558,Chrome,1504,1003,,,l,2.0971,1,337,1,1,9,21,10,1,0,0,0,1,0,1,0,0,star ,circle,,,,,,,,,,,,,,,,,,,,,,,,,,,,,,,,,,,,,,,,,,,,,,,,,,,,,,
298207,2022-12-07_05h37.24.002,vts_reward_expectancy_bt,2022.2.4,Win32,59.81934558,Chrome,1504,1003,,,a,0.9538,10,347,1,1,10,22,8,1,0,0,1,0,0,0,0,1,hexagon,star,,,,,,,,,,,,,,,,,,,,,,,,,,,,,,,,,,,,,,,,,,,,,,,,,,,,,,
298207,2022-12-07_05h37.24.002,vts_reward_expectancy_bt,2022.2.4,Win32,59.81934558,Chrome,1504,1003,,,l,2.0754,10,357,1,1,11,23,1,1,1,0,0,0,0,0,1,0,triangle,hexagon,,,,,,,,,,,,,,,,,,,,,,,,,,,,,,,,,,,,,,,,,,,,,,,,,,,,,,
298207,2022-12-07_05h37.24.002,vts_reward_expectancy_bt,2022.2.4,Win32,59.81934558,Chrome,1504,1003,,,a,2.1838,10,367,1,2,0,24,10,1,0,0,0,1,0,1,0,0,star ,circle,,,,,,,,,,,,,,,,,,,,,,,,,,,,,,,,,,,,,,,,,,,,,,,,,,,,,,
298207,2022-12-07_05h37.24.002,vts_reward_expectancy_bt,2022.2.4,Win32,59.81934558,Chrome,1504,1003,,,l,1.087,10,377,1,2,1,25,11,1,0,0,0,1,0,0,1,0,star,hexagon,,,,,,,,,,,,,,,,,,,,,,,,,,,,,,,,,,,,,,,,,,,,,,,,,,,,,,
298207,2022-12-07_05h37.24.002,vts_reward_expectancy_bt,2022.2.4,Win32,59.81934558,Chrome,1504,1003,,,a,1.1035,10,387,1,2,2,26,0,1,1,0,0,0,0,1,0,0,triangle,circle,,,,,,,,,,,,,,,,,,,,,,,,,,,,,,,,,,,,,,,,,,,,,,,,,,,,,,
298207,2022-12-07_05h37.24.002,vts_reward_expectancy_bt,2022.2.4,Win32,59.81934558,Chrome,1504,1003,,,l,0.6931,10,397,1,2,3,27,9,1,0,0,0,1,1,0,0,0,star,triangle,,,,,,,,,,,,,,,,,,,,,,,,,,,,,,,,,,,,,,,,,,,,,,,,,,,,,,
298207,2022-12-07_05h37.24.002,vts_reward_expectancy_bt,2022.2.4,Win32,59.81934558,Chrome,1504,1003,,,l,1.3208,10,407,1,2,4,28,1,1,1,0,0,0,0,0,1,0,triangle,hexagon,,,,,,,,,,,,,,,,,,,,,,,,,,,,,,,,,,,,,,,,,,,,,,,,,,,,,,
298207,2022-12-07_05h37.24.002,vts_reward_expectancy_bt,2022.2.4,Win32,59.81934558,Chrome,1504,1003,,,a,0.827,10,417,1,2,5,29,2,1,1,0,0,0,0,0,0,1,triangle,star,,,,,,,,,,,,,,,,,,,,,,,,,,,,,,,,,,,,,,,,,,,,,,,,,,,,,,
298207,2022-12-07_05h37.24.002,vts_reward_expectancy_bt,2022.2.4,Win32,59.81934558,Chrome,1504,1003,,,a,1.3486,10,427,1,2,6,30,8,1,0,0,1,0,0,0,0,1,hexagon,star,,,,,,,,,,,,,,,,,,,,,,,,,,,,,,,,,,,,,,,,,,,,,,,,,,,,,,
298207,2022-12-07_05h37.24.002,vts_reward_expectancy_bt,2022.2.4,Win32,59.81934558,Chrome,1504,1003,,,l,1.0977,1,428,1,2,7,31,4,1,0,1,0,0,0,0,1,0,circle,hexagon,,,,,,,,,,,,,,,,,,,,,,,,,,,,,,,,,,,,,,,,,,,,,,,,,,,,,,
298207,2022-12-07_05h37.24.002,vts_reward_expectancy_bt,2022.2.4,Win32,59.81934558,Chrome,1504,1003,,,l,2.0906,1,429,1,2,8,32,5,1,0,1,0,0,0,0,0,1,circle,star,,,,,,,,,,,,,,,,,,,,,,,,,,,,,,,,,,,,,,,,,,,,,,,,,,,,,,
298207,2022-12-07_05h37.24.002,vts_reward_expectancy_bt,2022.2.4,Win32,59.81934558,Chrome,1504,1003,,,a,1.8644,10,439,1,2,9,33,6,1,0,0,1,0,1,0,0,0,hexagon,triangle,,,,,,,,,,,,,,,,,,,,,,,,,,,,,,,,,,,,,,,,,,,,,,,,,,,,,,
298207,2022-12-07_05h37.24.002,vts_reward_expectancy_bt,2022.2.4,Win32,59.81934558,Chrome,1504,1003,,,l,0.9643,10,449,1,2,10,34,3,1,0,1,0,0,1,0,0,0,circle,triangle,,,,,,,,,,,,,,,,,,,,,,,,,,,,,,,,,,,,,,,,,,,,,,,,,,,,,,
298207,2022-12-07_05h37.24.002,vts_reward_expectancy_bt,2022.2.4,Win32,59.81934558,Chrome,1504,1003,,,a,0.8641,10,459,1,2,11,35,7,1,0,0,1,0,0,1,0,0,hexagon,circle,,,,,,,,,,,,,,,,,,,,,,,,,,,,,,,,,,,,,,,,,,,,,,,,,,,,,,
298207,2022-12-07_05h37.24.002,vts_reward_expectancy_bt,2022.2.4,Win32,59.81934558,Chrome,1504,1003,,,a,1.0689,10,469,2,0,0,0,7,1,0,0,1,0,0,1,0,0,hexagon,circle,,,,,,,,,,,,,,,,,,,,,,,,,,,,,,,,,,,,,,,,,,,,,,,,,,,,,,
298207,2022-12-07_05h37.24.002,vts_reward_expectancy_bt,2022.2.4,Win32,59.81934558,Chrome,1504,1003,,,a,0.8377,10,479,2,0,1,1,8,1,0,0,1,0,0,0,0,1,hexagon,star,,,,,,,,,,,,,,,,,,,,,,,,,,,,,,,,,,,,,,,,,,,,,,,,,,,,,,
298207,2022-12-07_05h37.24.002,vts_reward_expectancy_bt,2022.2.4,Win32,59.81934558,Chrome,1504,1003,,,l,1.8177,10,489,2,0,2,2,1,1,1,0,0,0,0,0,1,0,triangle,hexagon,,,,,,,,,,,,,,,,,,,,,,,,,,,,,,,,,,,,,,,,,,,,,,,,,,,,,,
298207,2022-12-07_05h37.24.002,vts_reward_expectancy_bt,2022.2.4,Win32,59.81934558,Chrome,1504,1003,,,a,1.6658,1,490,2,0,3,3,6,1,0,0,1,0,1,0,0,0,hexagon,triangle,,,,,,,,,,,,,,,,,,,,,,,,,,,,,,,,,,,,,,,,,,,,,,,,,,,,,,
298207,2022-12-07_05h37.24.002,vts_reward_expectancy_bt,2022.2.4,Win32,59.81934558,Chrome,1504,1003,,,l,0.9356,1,491,2,0,4,4,9,1,0,0,0,1,1,0,0,0,star,triangle,,,,,,,,,,,,,,,,,,,,,,,,,,,,,,,,,,,,,,,,,,,,,,,,,,,,,,
298207,2022-12-07_05h37.24.002,vts_reward_expectancy_bt,2022.2.4,Win32,59.81934558,Chrome,1504,1003,,,a,2.1161,1,492,2,0,5,5,5,1,0,1,0,0,0,0,0,1,circle,star,,,,,,,,,,,,,,,,,,,,,,,,,,,,,,,,,,,,,,,,,,,,,,,,,,,,,,
298207,2022-12-07_05h37.24.002,vts_reward_expectancy_bt,2022.2.4,Win32,59.81934558,Chrome,1504,1003,,,l,1.2422,1,493,2,0,6,6,3,1,0,1,0,0,1,0,0,0,circle,triangle,,,,,,,,,,,,,,,,,,,,,,,,,,,,,,,,,,,,,,,,,,,,,,,,,,,,,,
298207,2022-12-07_05h37.24.002,vts_reward_expectancy_bt,2022.2.4,Win32,59.81934558,Chrome,1504,1003,,,l,0.9924,10,503,2,0,7,7,4,1,0,1,0,0,0,0,1,0,circle,hexagon,,,,,,,,,,,,,,,,,,,,,,,,,,,,,,,,,,,,,,,,,,,,,,,,,,,,,,
298207,2022-12-07_05h37.24.002,vts_reward_expectancy_bt,2022.2.4,Win32,59.81934558,Chrome,1504,1003,,,l,1.8032,10,513,2,0,8,8,11,1,0,0,0,1,0,0,1,0,star,hexagon,,,,,,,,,,,,,,,,,,,,,,,,,,,,,,,,,,,,,,,,,,,,,,,,,,,,,,
298207,2022-12-07_05h37.24.002,vts_reward_expectancy_bt,2022.2.4,Win32,59.81934558,Chrome,1504,1003,,,a,1.335,10,523,2,0,9,9,0,1,1,0,0,0,0,1,0,0,triangle,circle,,,,,,,,,,,,,,,,,,,,,,,,,,,,,,,,,,,,,,,,,,,,,,,,,,,,,,
298207,2022-12-07_05h37.24.002,vts_reward_expectancy_bt,2022.2.4,Win32,59.81934558,Chrome,1504,1003,,,a,1.2535,10,533,2,0,10,10,2,1,1,0,0,0,0,0,0,1,triangle,star,,,,,,,,,,,,,,,,,,,,,,,,,,,,,,,,,,,,,,,,,,,,,,,,,,,,,,
298207,2022-12-07_05h37.24.002,vts_reward_expectancy_bt,2022.2.4,Win32,59.81934558,Chrome,1504,1003,,,l,1.3153,1,534,2,0,11,11,10,1,0,0,0,1,0,1,0,0,star ,circle,,,,,,,,,,,,,,,,,,,,,,,,,,,,,,,,,,,,,,,,,,,,,,,,,,,,,,
298207,2022-12-07_05h37.24.002,vts_reward_expectancy_bt,2022.2.4,Win32,59.81934558,Chrome,1504,1003,,,a,0.8488,10,544,2,1,0,12,7,1,0,0,1,0,0,1,0,0,hexagon,circle,,,,,,,,,,,,,,,,,,,,,,,,,,,,,,,,,,,,,,,,,,,,,,,,,,,,,,
298207,2022-12-07_05h37.24.002,vts_reward_expectancy_bt,2022.2.4,Win32,59.81934558,Chrome,1504,1003,,,a,2.1148,10,554,2,1,1,13,6,1,0,0,1,0,1,0,0,0,hexagon,triangle,,,,,,,,,,,,,,,,,,,,,,,,,,,,,,,,,,,,,,,,,,,,,,,,,,,,,,
298207,2022-12-07_05h37.24.002,vts_reward_expectancy_bt,2022.2.4,Win32,59.81934558,Chrome,1504,1003,,,a,0.7481,10,564,2,1,2,14,0,1,1,0,0,0,0,1,0,0,triangle,circle,,,,,,,,,,,,,,,,,,,,,,,,,,,,,,,,,,,,,,,,,,,,,,,,,,,,,,
298207,2022-12-07_05h37.24.002,vts_reward_expectancy_bt,2022.2.4,Win32,59.81934558,Chrome,1504,1003,,,l,0.9981,10,574,2,1,3,15,10,1,0,0,0,1,0,1,0,0,star ,circle,,,,,,,,,,,,,,,,,,,,,,,,,,,,,,,,,,,,,,,,,,,,,,,,,,,,,,
298207,2022-12-07_05h37.24.002,vts_reward_expectancy_bt,2022.2.4,Win32,59.81934558,Chrome,1504,1003,,,l,0.7987,10,584,2,1,4,16,11,1,0,0,0,1,0,0,1,0,star,hexagon,,,,,,,,,,,,,,,,,,,,,,,,,,,,,,,,,,,,,,,,,,,,,,,,,,,,,,
298207,2022-12-07_05h37.24.002,vts_reward_expectancy_bt,2022.2.4,Win32,59.81934558,Chrome,1504,1003,,,l,0.6855,10,594,2,1,5,17,3,1,0,1,0,0,1,0,0,0,circle,triangle,,,,,,,,,,,,,,,,,,,,,,,,,,,,,,,,,,,,,,,,,,,,,,,,,,,,,,
298207,2022-12-07_05h37.24.002,vts_reward_expectancy_bt,2022.2.4,Win32,59.81934558,Chrome,1504,1003,,,a,0.8664,1,595,2,1,6,18,5,1,0,1,0,0,0,0,0,1,circle,star,,,,,,,,,,,,,,,,,,,,,,,,,,,,,,,,,,,,,,,,,,,,,,,,,,,,,,
298207,2022-12-07_05h37.24.002,vts_reward_expectancy_bt,2022.2.4,Win32,59.81934558,Chrome,1504,1003,,,a,1.0153,10,605,2,1,7,19,8,1,0,0,1,0,0,0,0,1,hexagon,star,,,,,,,,,,,,,,,,,,,,,,,,,,,,,,,,,,,,,,,,,,,,,,,,,,,,,,
298207,2022-12-07_05h37.24.002,vts_reward_expectancy_bt,2022.2.4,Win32,59.81934558,Chrome,1504,1003,,,l,0.7536,10,615,2,1,8,20,9,1,0,0,0,1,1,0,0,0,star,triangle,,,,,,,,,,,,,,,,,,,,,,,,,,,,,,,,,,,,,,,,,,,,,,,,,,,,,,
298207,2022-12-07_05h37.24.002,vts_reward_expectancy_bt,2022.2.4,Win32,59.81934558,Chrome,1504,1003,,,l,0.8429,10,625,2,1,9,21,4,1,0,1,0,0,0,0,1,0,circle,hexagon,,,,,,,,,,,,,,,,,,,,,,,,,,,,,,,,,,,,,,,,,,,,,,,,,,,,,,
298207,2022-12-07_05h37.24.002,vts_reward_expectancy_bt,2022.2.4,Win32,59.81934558,Chrome,1504,1003,,,a,0.6312,1,626,2,1,10,22,2,1,1,0,0,0,0,0,0,1,triangle,star,,,,,,,,,,,,,,,,,,,,,,,,,,,,,,,,,,,,,,,,,,,,,,,,,,,,,,
298207,2022-12-07_05h37.24.002,vts_reward_expectancy_bt,2022.2.4,Win32,59.81934558,Chrome,1504,1003,,,l,1.5909,1,627,2,1,11,23,1,1,1,0,0,0,0,0,1,0,triangle,hexagon,,,,,,,,,,,,,,,,,,,,,,,,,,,,,,,,,,,,,,,,,,,,,,,,,,,,,,
298207,2022-12-07_05h37.24.002,vts_reward_expectancy_bt,2022.2.4,Win32,59.81934558,Chrome,1504,1003,,,l,0.7987,10,637,2,2,0,24,4,1,0,1,0,0,0,0,1,0,circle,hexagon,,,,,,,,,,,,,,,,,,,,,,,,,,,,,,,,,,,,,,,,,,,,,,,,,,,,,,
298207,2022-12-07_05h37.24.002,vts_reward_expectancy_bt,2022.2.4,Win32,59.81934558,Chrome,1504,1003,,,a,1.2494,1,638,2,2,1,25,5,1,0,1,0,0,0,0,0,1,circle,star,,,,,,,,,,,,,,,,,,,,,,,,,,,,,,,,,,,,,,,,,,,,,,,,,,,,,,
298207,2022-12-07_05h37.24.002,vts_reward_expectancy_bt,2022.2.4,Win32,59.81934558,Chrome,1504,1003,,,l,0.6476,10,648,2,2,2,26,9,1,0,0,0,1,1,0,0,0,star,triangle,,,,,,,,,,,,,,,,,,,,,,,,,,,,,,,,,,,,,,,,,,,,,,,,,,,,,,
298207,2022-12-07_05h37.24.002,vts_reward_expectancy_bt,2022.2.4,Win32,59.81934558,Chrome,1504,1003,,,a,0.7708,10,658,2,2,3,27,7,1,0,0,1,0,0,1,0,0,hexagon,circle,,,,,,,,,,,,,,,,,,,,,,,,,,,,,,,,,,,,,,,,,,,,,,,,,,,,,,
298207,2022-12-07_05h37.24.002,vts_reward_expectancy_bt,2022.2.4,Win32,59.81934558,Chrome,1504,1003,,,l,0.7157,10,668,2,2,4,28,3,1,0,1,0,0,1,0,0,0,circle,triangle,,,,,,,,,,,,,,,,,,,,,,,,,,,,,,,,,,,,,,,,,,,,,,,,,,,,,,
298207,2022-12-07_05h37.24.002,vts_reward_expectancy_bt,2022.2.4,Win32,59.81934558,Chrome,1504,1003,,,l,1.2174,10,678,2,2,5,29,1,1,1,0,0,0,0,0,1,0,triangle,hexagon,,,,,,,,,,,,,,,,,,,,,,,,,,,,,,,,,,,,,,,,,,,,,,,,,,,,,,
298207,2022-12-07_05h37.24.002,vts_reward_expectancy_bt,2022.2.4,Win32,59.81934558,Chrome,1504,1003,,,a,0.8381,10,688,2,2,6,30,2,1,1,0,0,0,0,0,0,1,triangle,star,,,,,,,,,,,,,,,,,,,,,,,,,,,,,,,,,,,,,,,,,,,,,,,,,,,,,,
298207,2022-12-07_05h37.24.002,vts_reward_expectancy_bt,2022.2.4,Win32,59.81934558,Chrome,1504,1003,,,a,0.7391,10,698,2,2,7,31,0,1,1,0,0,0,0,1,0,0,triangle,circle,,,,,,,,,,,,,,,,,,,,,,,,,,,,,,,,,,,,,,,,,,,,,,,,,,,,,,
298207,2022-12-07_05h37.24.002,vts_reward_expectancy_bt,2022.2.4,Win32,59.81934558,Chrome,1504,1003,,,a,0.6987,10,708,2,2,8,32,8,1,0,0,1,0,0,0,0,1,hexagon,star,,,,,,,,,,,,,,,,,,,,,,,,,,,,,,,,,,,,,,,,,,,,,,,,,,,,,,
298207,2022-12-07_05h37.24.002,vts_reward_expectancy_bt,2022.2.4,Win32,59.81934558,Chrome,1504,1003,,,l,0.7495,10,718,2,2,9,33,11,1,0,0,0,1,0,0,1,0,star,hexagon,,,,,,,,,,,,,,,,,,,,,,,,,,,,,,,,,,,,,,,,,,,,,,,,,,,,,,
298207,2022-12-07_05h37.24.002,vts_reward_expectancy_bt,2022.2.4,Win32,59.81934558,Chrome,1504,1003,,,a,1.9842,10,728,2,2,10,34,10,1,0,0,0,1,0,1,0,0,star ,circle,,,,,,,,,,,,,,,,,,,,,,,,,,,,,,,,,,,,,,,,,,,,,,,,,,,,,,
298207,2022-12-07_05h37.24.002,vts_reward_expectancy_bt,2022.2.4,Win32,59.81934558,Chrome,1504,1003,,,l,0.6354,10,738,2,2,11,35,6,1,0,0,1,0,1,0,0,0,hexagon,triangle,,,,,,,,,,,,,,,,,,,,,,,,,,,,,,,,,,,,,,,,,,,,,,,,,,,,,,
298207,2022-12-07_05h37.24.002,vts_reward_expectancy_bt,2022.2.4,Win32,59.81934558,Chrome,1504,1003,,,,,,,,,,,,,,,,,,,,,,,181,F,hexagon,0,0,,0,0,0,0,0,1,,,,,,,,,,,,,,,,,,,,,,,,,,,,,,,,,,,,,,,,,,
298207,2022-12-07_05h37.24.002,vts_reward_expectancy_bt,2022.2.4,Win32,59.81934558,Chrome,1504,1003,,,,,,,,,,,,,,,,,,,,,,,160,H,circle,0,1,,0,1,0,1,0,1,,,,,,,,,,,,,,,,,,,,,,,,,,,,,,,,,,,,,,,,,,
298207,2022-12-07_05h37.24.002,vts_reward_expectancy_bt,2022.2.4,Win32,59.81934558,Chrome,1504,1003,,,,,,,,,,,,,,,,,,,,,,,125,U,star,0,1,f,0,2,0,2,0,1,1.3997,,,,,,,,,,,,,,,,,,,,,,,,,,,,,,,,,,,,,,,,,
298207,2022-12-07_05h37.24.002,vts_reward_expectancy_bt,2022.2.4,Win32,59.81934558,Chrome,1504,1003,,,,,,,,,,,,,,,,,,,,,,,146,Y,triangle,0,1,,0,3,0,3,0,1,,,,,,,,,,,,,,,,,,,,,,,,,,,,,,,,,,,,,,,,,,
298207,2022-12-07_05h37.24.002,vts_reward_expectancy_bt,2022.2.4,Win32,59.81934558,Chrome,1504,1003,,,,,,,,,,,,,,,,,,,,,,,132,S,hexagon,0,1,f,0,4,0,4,0,1,1.0502,,,,,,,,,,,,,,,,,,,,,,,,,,,,,,,,,,,,,,,,,
298207,2022-12-07_05h37.24.002,vts_reward_expectancy_bt,2022.2.4,Win32,59.81934558,Chrome,1504,1003,,,,,,,,,,,,,,,,,,,,,,,139,D,circle,1,1,d,0,5,0,5,0,1,1.4941,,,,,,,,,,,,,,,,,,,,,,,,,,,,,,,,,,,,,,,,,
298207,2022-12-07_05h37.24.002,vts_reward_expectancy_bt,2022.2.4,Win32,59.81934558,Chrome,1504,1003,,,,,,,,,,,,,,,,,,,,,,,174,W,star,1,0,f,0,6,0,6,0,1,1.5024,,,,,,,,,,,,,,,,,,,,,,,,,,,,,,,,,,,,,,,,,
298207,2022-12-07_05h37.24.002,vts_reward_expectancy_bt,2022.2.4,Win32,59.81934558,Chrome,1504,1003,,,,,,,,,,,,,,,,,,,,,,,167,B,triangle,1,0,f,0,7,0,7,0,1,0.7176,,,,,,,,,,,,,,,,,,,,,,,,,,,,,,,,,,,,,,,,,
298207,2022-12-07_05h37.24.002,vts_reward_expectancy_bt,2022.2.4,Win32,59.81934558,Chrome,1504,1003,,,,,,,,,,,,,,,,,,,,,,,181,F,circle,1,0,f,0,8,0,8,0,1,0.6173,,,,,,,,,,,,,,,,,,,,,,,,,,,,,,,,,,,,,,,,,
298207,2022-12-07_05h37.24.002,vts_reward_expectancy_bt,2022.2.4,Win32,59.81934558,Chrome,1504,1003,,,,,,,,,,,,,,,,,,,,,,,160,H,hexagon,1,0,f,0,9,0,9,0,1,0.5445,,,,,,,,,,,,,,,,,,,,,,,,,,,,,,,,,,,,,,,,,
298207,2022-12-07_05h37.24.002,vts_reward_expectancy_bt,2022.2.4,Win32,59.81934558,Chrome,1504,1003,,,,,,,,,,,,,,,,,,,,,,,160,H,circle,1,0,f,1,0,0,0,0,1,1.0384,,,,,,,,,,,,,,,,,,,,,,,,,,,,,,,,,,,,,,,,,
298207,2022-12-07_05h37.24.002,vts_reward_expectancy_bt,2022.2.4,Win32,59.81934558,Chrome,1504,1003,,,,,,,,,,,,,,,,,,,,,,,146,U,star,1,0,d,1,1,0,1,0,1,1.6164,,,,,,,,,,,,,,,,,,,,,,,,,,,,,,,,,,,,,,,,,
298207,2022-12-07_05h37.24.002,vts_reward_expectancy_bt,2022.2.4,Win32,59.81934558,Chrome,1504,1003,,,,,,,,,,,,,,,,,,,,,,,125,W,hexagon,1,0,d,1,2,0,2,0,1,0.7002,,,,,,,,,,,,,,,,,,,,,,,,,,,,,,,,,,,,,,,,,
298207,2022-12-07_05h37.24.002,vts_reward_expectancy_bt,2022.2.4,Win32,59.81934558,Chrome,1504,1003,,,,,,,,,,,,,,,,,,,,,,,132,D,triangle,1,0,d,1,3,0,3,0,1,0.9339,,,,,,,,,,,,,,,,,,,,,,,,,,,,,,,,,,,,,,,,,
298207,2022-12-07_05h37.24.002,vts_reward_expectancy_bt,2022.2.4,Win32,59.81934558,Chrome,1504,1003,,,,,,,,,,,,,,,,,,,,,,,167,S,circle,1,0,f,1,4,0,4,0,1,0.5615,,,,,,,,,,,,,,,,,,,,,,,,,,,,,,,,,,,,,,,,,
298207,2022-12-07_05h37.24.002,vts_reward_expectancy_bt,2022.2.4,Win32,59.81934558,Chrome,1504,1003,,,,,,,,,,,,,,,,,,,,,,,174,Y,star,1,0,f,1,5,0,5,0,1,1.0828,,,,,,,,,,,,,,,,,,,,,,,,,,,,,,,,,,,,,,,,,
298207,2022-12-07_05h37.24.002,vts_reward_expectancy_bt,2022.2.4,Win32,59.81934558,Chrome,1504,1003,,,,,,,,,,,,,,,,,,,,,,,181,F,hexagon,1,0,f,1,6,0,6,0,1,1.1811,,,,,,,,,,,,,,,,,,,,,,,,,,,,,,,,,,,,,,,,,
298207,2022-12-07_05h37.24.002,vts_reward_expectancy_bt,2022.2.4,Win32,59.81934558,Chrome,1504,1003,,,,,,,,,,,,,,,,,,,,,,,139,B,triangle,1,0,d,1,7,0,7,0,1,1.3863,,,,,,,,,,,,,,,,,,,,,,,,,,,,,,,,,,,,,,,,,
298207,2022-12-07_05h37.24.002,vts_reward_expectancy_bt,2022.2.4,Win32,59.81934558,Chrome,1504,1003,,,,,,,,,,,,,,,,,,,,,,,160,H,star,1,0,f,1,8,0,8,0,1,1.4286,,,,,,,,,,,,,,,,,,,,,,,,,,,,,,,,,,,,,,,,,
298207,2022-12-07_05h37.24.002,vts_reward_expectancy_bt,2022.2.4,Win32,59.81934558,Chrome,1504,1003,,,,,,,,,,,,,,,,,,,,,,,146,U,triangle,1,0,d,1,9,0,9,0,1,1.9454,,,,,,,,,,,,,,,,,,,,,,,,,,,,,,,,,,,,,,,,,
298207,2022-12-07_05h37.24.002,vts_reward_expectancy_bt,2022.2.4,Win32,59.81934558,Chrome,1504,1003,,,,,,,,,,,,,,,,,,,,,,,174,B,circle,1,0,,2,,,,,,,j,1.5675,0,0,0,0,1,,,,,,,,,,,,,,,,,,,,,,,,,,,,,,,,,,
298207,2022-12-07_05h37.24.002,vts_reward_expectancy_bt,2022.2.4,Win32,59.81934558,Chrome,1504,1003,,,,,,,,,,,,,,,,,,,,,,,132,W,triangle,1,0,,2,,,,,,,k,0.6849,1,0,1,0,1,,,,,,,,,,,,,,,,,,,,,,,,,,,,,,,,,,
298207,2022-12-07_05h37.24.002,vts_reward_expectancy_bt,2022.2.4,Win32,59.81934558,Chrome,1504,1003,,,,,,,,,,,,,,,,,,,,,,,181,F,hexagon,1,0,,2,,,,,,,j,1.1416,2,0,2,0,1,,,,,,,,,,,,,,,,,,,,,,,,,,,,,,,,,,
298207,2022-12-07_05h37.24.002,vts_reward_expectancy_bt,2022.2.4,Win32,59.81934558,Chrome,1504,1003,,,,,,,,,,,,,,,,,,,,,,,146,U,star,1,0,,2,,,,,,,k,1.141,3,0,3,0,1,,,,,,,,,,,,,,,,,,,,,,,,,,,,,,,,,,
298207,2022-12-07_05h37.24.002,vts_reward_expectancy_bt,2022.2.4,Win32,59.81934558,Chrome,1504,1003,,,,,,,,,,,,,,,,,,,,,,,160,H,circle,1,0,,2,,,,,,,j,1.032,4,0,4,0,1,,,,,,,,,,,,,,,,,,,,,,,,,,,,,,,,,,
298207,2022-12-07_05h37.24.002,vts_reward_expectancy_bt,2022.2.4,Win32,59.81934558,Chrome,1504,1003,,,,,,,,,,,,,,,,,,,,,,,167,S,triangle,1,0,,2,,,,,,,k,0.7177,5,0,5,0,1,,,,,,,,,,,,,,,,,,,,,,,,,,,,,,,,,,
298207,2022-12-07_05h37.24.002,vts_reward_expectancy_bt,2022.2.4,Win32,59.81934558,Chrome,1504,1003,,,,,,,,,,,,,,,,,,,,,,,125,Y,hexagon,1,0,,2,,,,,,,k,0.6854,6,0,6,0,1,,,,,,,,,,,,,,,,,,,,,,,,,,,,,,,,,,
298207,2022-12-07_05h37.24.002,vts_reward_expectancy_bt,2022.2.4,Win32,59.81934558,Chrome,1504,1003,,,,,,,,,,,,,,,,,,,,,,,139,D,star,1,0,,2,,,,,,,j,0.9835,7,0,7,0,1,,,,,,,,,,,,,,,,,,,,,,,,,,,,,,,,,,
298207,2022-12-07_05h37.24.002,vts_reward_expectancy_bt,2022.2.4,Win32,59.81934558,Chrome,1504,1003,,,,,,,,,,,,,,,,,,,,,,,174,B,hexagon,1,0,,2,,,,,,,j,0.8336,8,0,8,0,1,,,,,,,,,,,,,,,,,,,,,,,,,,,,,,,,,,
298207,2022-12-07_05h37.24.002,vts_reward_expectancy_bt,2022.2.4,Win32,59.81934558,Chrome,1504,1003,,,,,,,,,,,,,,,,,,,,,,,132,W,circle,1,0,,2,,,,,,,k,1.4174,9,0,9,0,1,,,,,,,,,,,,,,,,,,,,,,,,,,,,,,,,,,
298207,2022-12-07_05h37.24.002,vts_reward_expectancy_bt,2022.2.4,Win32,59.81934558,Chrome,1504,1003,,,,,0,738,,,,,,,,,,,,,,,,,160,Y,triangle,1,0,,3,,,,,,,,,,,,,,-1,letter,NA,k,1.7923,vtsPrac,0,0,0,0,1,,,,,,,,,,,,,,,,,,,,,,,
298207,2022-12-07_05h37.24.002,vts_reward_expectancy_bt,2022.2.4,Win32,59.81934558,Chrome,1504,1003,,,,,0,738,,,,,,,,,,,,,,,,,139,S,circle,1,0,,3,,,,,,,,,,,,,,switch,number,numSwt,d,2.6518,vtsPrac,1,0,1,0,1,,,,,,,,,,,,,,,,,,,,,,,
298207,2022-12-07_05h37.24.002,vts_reward_expectancy_bt,2022.2.4,Win32,59.81934558,Chrome,1504,1003,,,,,0,738,,,,,,,,,,,,,,,,,146,B,triangle,1,0,,3,,,,,,,,,,,,,,switch,letter,lettSwt,j,1.8115,vtsPrac,2,0,2,0,1,,,,,,,,,,,,,,,,,,,,,,,
298207,2022-12-07_05h37.24.002,vts_reward_expectancy_bt,2022.2.4,Win32,59.81934558,Chrome,1504,1003,,,,,0,738,,,,,,,,,,,,,,,,,132,D,circle,1,0,,3,,,,,,,,,,,,,,switch,number,numSwt,d,0.844,vtsPrac,3,0,3,0,1,,,,,,,,,,,,,,,,,,,,,,,
298207,2022-12-07_05h37.24.002,vts_reward_expectancy_bt,2022.2.4,Win32,59.81934558,Chrome,1504,1003,,,,,0,738,,,,,,,,,,,,,,,,,160,Y,triangle,1,0,,3,,,,,,,,,,,,,,switch,letter,lettSwt,k,0.6618,vtsPrac,4,0,4,0,1,,,,,,,,,,,,,,,,,,,,,,,
298207,2022-12-07_05h37.24.002,vts_reward_expectancy_bt,2022.2.4,Win32,59.81934558,Chrome,1504,1003,,,,,0,738,,,,,,,,,,,,,,,,,139,S,star,1,0,,3,,,,,,,,,,,,,,switch,number,numSwt,d,0.7894,vtsPrac,5,0,5,0,1,,,,,,,,,,,,,,,,,,,,,,,
298207,2022-12-07_05h37.24.002,vts_reward_expectancy_bt,2022.2.4,Win32,59.81934558,Chrome,1504,1003,,,,,0,738,,,,,,,,,,,,,,,,,146,B,hexagon,1,0,,3,,,,,,,,,,,,,,switch,letter,lettSwt,j,1.3311,vtsPrac,6,0,6,0,1,,,,,,,,,,,,,,,,,,,,,,,
298207,2022-12-07_05h37.24.002,vts_reward_expectancy_bt,2022.2.4,Win32,59.81934558,Chrome,1504,1003,,,,,0,738,,,,,,,,,,,,,,,,,132,D,star,1,0,,3,,,,,,,,,,,,,,switch,number,numSwt,d,1.1624,vtsPrac,7,0,7,0,1,,,,,,,,,,,,,,,,,,,,,,,
298207,2022-12-07_05h37.24.002,vts_reward_expectancy_bt,2022.2.4,Win32,59.81934558,Chrome,1504,1003,,,,,0,738,,,,,,,,,,,,,,,,,132,F,circle,1,0,,3,,,,,,,,,,,,,,repeat,number,numRpt,d,1.9981,vtsPrac,8,0,8,0,1,,,,,,,,,,,,,,,,,,,,,,,
298207,2022-12-07_05h37.24.002,vts_reward_expectancy_bt,2022.2.4,Win32,59.81934558,Chrome,1504,1003,,,,,0,738,,,,,,,,,,,,,,,,,125,Y,triangle,1,0,,3,,,,,,,,,,,,,,switch,letter,lettSwt,k,0.7726,vtsPrac,9,0,9,0,1,,,,,,,,,,,,,,,,,,,,,,,
298207,2022-12-07_05h37.24.002,vts_reward_expectancy_bt,2022.2.4,Win32,59.81934558,Chrome,1504,1003,,,,,0,738,,,,,,,,,,,,,,,,,160,B,star,1,0,,3,,,,,,,,,,,,,,switch,number,numSwt,f,1.0835,vtsPrac,10,0,10,0,1,,,,,,,,,,,,,,,,,,,,,,,
298207,2022-12-07_05h37.24.002,vts_reward_expectancy_bt,2022.2.4,Win32,59.81934558,Chrome,1504,1003,,,,,0,738,,,,,,,,,,,,,,,,,181,D,triangle,1,0,,3,,,,,,,,,,,,,,switch,letter,lettSwt,j,1.1722,vtsPrac,11,0,11,0,1,,,,,,,,,,,,,,,,,,,,,,,
298207,2022-12-07_05h37.24.002,vts_reward_expectancy_bt,2022.2.4,Win32,59.81934558,Chrome,1504,1003,,,,,0,738,,,,,,,,,,,,,,,,,125,F,circle,1,0,,3,,,,,,,,,,,,,,switch,number,numSwt,d,1.5139,vtsPrac,12,0,12,0,1,,,,,,,,,,,,,,,,,,,,,,,
298207,2022-12-07_05h37.24.002,vts_reward_expectancy_bt,2022.2.4,Win32,59.81934558,Chrome,1504,1003,,,,,0,738,,,,,,,,,,,,,,,,,167,U,star,-1,0,,3,,,,,,,,,,,,,,switch,no_choice,NA,,,vtsPrac,13,0,13,0,1,,,,,,,,,,,,,,,,,,,,,,,
298207,2022-12-07_05h37.24.002,vts_reward_expectancy_bt,2022.2.4,Win32,59.81934558,Chrome,1504,1003,,,,,0,738,,,,,,,,,,,,,,,,,174,D,triangle,1,0,,3,,,,,,,,,,,,,,switch,number,numSwt,f,0.6974,vtsPrac,14,0,14,0,1,,,,,,,,,,,,,,,,,,,,,,,
298207,2022-12-07_05h37.24.002,vts_reward_expectancy_bt,2022.2.4,Win32,59.81934558,Chrome,1504,1003,,,,,0,738,,,,,,,,,,,,,,,,,139,B,star,1,0,,3,,,,,,,,,,,,,,switch,letter,lettSwt,j,1.5683,vtsPrac,15,0,15,0,1,,,,,,,,,,,,,,,,,,,,,,,
298207,2022-12-07_05h37.24.002,vts_reward_expectancy_bt,2022.2.4,Win32,59.81934558,Chrome,1504,1003,,,,,0,738,,,,,,,,,,,,,,,,,146,F,hexagon,1,0,,3,,,,,,,,,,,,,,repeat,letter,lettRpt,j,1.1453,vtsPrac,16,0,16,0,1,,,,,,,,,,,,,,,,,,,,,,,
298207,2022-12-07_05h37.24.002,vts_reward_expectancy_bt,2022.2.4,Win32,59.81934558,Chrome,1504,1003,,,,,0,738,,,,,,,,,,,,,,,,,160,Y,star,1,0,,3,,,,,,,,,,,,,,repeat,letter,lettRpt,k,2.6308,vtsPrac,17,0,17,0,1,,,,,,,,,,,,,,,,,,,,,,,
298207,2022-12-07_05h37.24.002,vts_reward_expectancy_bt,2022.2.4,Win32,59.81934558,Chrome,1504,1003,,,,,0,738,,,,,,,,,,,,,,,,,132,S,triangle,1,0,,3,,,,,,,,,,,,,,switch,number,numSwt,d,0.6432,vtsPrac,18,0,18,0,1,,,,,,,,,,,,,,,,,,,,,,,
298207,2022-12-07_05h37.24.002,vts_reward_expectancy_bt,2022.2.4,Win32,59.81934558,Chrome,1504,1003,,,,,0,738,,,,,,,,,,,,,,,,,174,W,star,1,0,,3,,,,,,,,,,,,,,repeat,number,numRpt,f,1.1381,vtsPrac,19,0,19,0,1,,,,,,,,,,,,,,,,,,,,,,,
298207,2022-12-07_05h37.24.002,vts_reward_expectancy_bt,2022.2.4,Win32,59.81934558,Chrome,1504,1003,,,,,0,738,,,,,,,,,,,,,,,,,174,F,hexagon,1,0,,3,,,,,,,,,,,,,,repeat,number,numRpt,f,0.7631,vtsPrac,20,0,20,0,1,,,,,,,,,,,,,,,,,,,,,,,
298207,2022-12-07_05h37.24.002,vts_reward_expectancy_bt,2022.2.4,Win32,59.81934558,Chrome,1504,1003,,,,,0,738,,,,,,,,,,,,,,,,,181,H,circle,1,0,,3,,,,,,,,,,,,,,switch,letter,lettSwt,j,1.4885,vtsPrac,21,0,21,0,1,,,,,,,,,,,,,,,,,,,,,,,
298207,2022-12-07_05h37.24.002,vts_reward_expectancy_bt,2022.2.4,Win32,59.81934558,Chrome,1504,1003,,,,,0,738,,,,,,,,,,,,,,,,,139,U,circle,1,0,,3,,,,,,,,,,,,,,repeat,letter,lettRpt,k,1.8634,vtsPrac,22,0,22,0,1,,,,,,,,,,,,,,,,,,,,,,,
298207,2022-12-07_05h37.24.002,vts_reward_expectancy_bt,2022.2.4,Win32,59.81934558,Chrome,1504,1003,,,,,0,738,,,,,,,,,,,,,,,,,146,Y,star,1,0,,3,,,,,,,,,,,,,,switch,number,numSwt,d,0.5628,vtsPrac,23,0,23,0,1,,,,,,,,,,,,,,,,,,,,,,,
298207,2022-12-07_05h37.24.002,vts_reward_expectancy_bt,2022.2.4,Win32,59.81934558,Chrome,1504,1003,,,,,0,738,,,,,,,,,,,,,,,,,139,B,triangle,1,0,,3,,,,,,,,,,,,,,switch,letter,lettSwt,j,1.1956,vtsPrac,24,0,24,0,1,,,,,,,,,,,,,,,,,,,,,,,
298207,2022-12-07_05h37.24.002,vts_reward_expectancy_bt,2022.2.4,Win32,59.81934558,Chrome,1504,1003,,,,,0,738,,,,,,,,,,,,,,,,,160,S,hexagon,1,0,,3,,,,,,,,,,,,,,switch,number,numSwt,f,1.1289,vtsPrac,25,0,25,0,1,,,,,,,,,,,,,,,,,,,,,,,
298207,2022-12-07_05h37.24.002,vts_reward_expectancy_bt,2022.2.4,Win32,59.81934558,Chrome,1504,1003,,,,,0,738,,,,,,,,,,,,,,,,,181,U,circle,1,0,,3,,,,,,,,,,,,,,repeat,number,numRpt,f,0.5971,vtsPrac,26,0,26,0,1,,,,,,,,,,,,,,,,,,,,,,,
298207,2022-12-07_05h37.24.002,vts_reward_expectancy_bt,2022.2.4,Win32,59.81934558,Chrome,1504,1003,,,,,0,738,,,,,,,,,,,,,,,,,125,W,star,1,0,,3,,,,,,,,,,,,,,switch,letter,lettSwt,k,1.0942,vtsPrac,27,0,27,0,1,,,,,,,,,,,,,,,,,,,,,,,
298207,2022-12-07_05h37.24.002,vts_reward_expectancy_bt,2022.2.4,Win32,59.81934558,Chrome,1504,1003,,,,,0,738,,,,,,,,,,,,,,,,,167,B,hexagon,1,0,,3,,,,,,,,,,,,,,repeat,letter,lettRpt,j,1.0306,vtsPrac,28,0,28,0,1,,,,,,,,,,,,,,,,,,,,,,,
298207,2022-12-07_05h37.24.002,vts_reward_expectancy_bt,2022.2.4,Win32,59.81934558,Chrome,1504,1003,,,,,0,738,,,,,,,,,,,,,,,,,139,Y,star,1,0,,3,,,,,,,,,,,,,,switch,number,numSwt,d,0.946,vtsPrac,29,0,29,0,1,,,,,,,,,,,,,,,,,,,,,,,
298207,2022-12-07_05h37.24.002,vts_reward_expectancy_bt,2022.2.4,Win32,59.81934558,Chrome,1504,1003,,,,,0,738,,,,,,,,,,,,,,,,,146,U,hexagon,1,0,,3,,,,,,,,,,,,,,switch,letter,lettSwt,k,1.1495,vtsPrac,30,0,30,0,1,,,,,,,,,,,,,,,,,,,,,,,
298207,2022-12-07_05h37.24.002,vts_reward_expectancy_bt,2022.2.4,Win32,59.81934558,Chrome,1504,1003,,,,,0,738,,,,,,,,,,,,,,,,,181,F,star,1,0,,3,,,,,,,,,,,,,,switch,number,numSwt,f,1.6115,vtsPrac,31,0,31,0,1,,,,,,,,,,,,,,,,,,,,,,,
298207,2022-12-07_05h37.24.002,vts_reward_expectancy_bt,2022.2.4,Win32,59.81934558,Chrome,1504,1003,,,,,,,,,,,,,,,,,,,,,,,,,,,,,,,,,,,,,,,,,,,,,,,,,,,,,,,,,,,,,,,,,,,,,,,,,,,,
298207,2022-12-07_05h37.24.002,vts_reward_expectancy_bt,2022.2.4,Win32,59.81934558,Chrome,1504,1003,,,,,,,,,,,,,,,,,,,,,,,,,,,,,,,,,,,,,,,,,,,,,,,,,,,,,,,,,,,,,,,,,,,,,,,,,,,,
298207,2022-12-07_05h37.24.002,vts_reward_expectancy_bt,2022.2.4,Win32,59.81934558,Chrome,1504,1003,,,,,0,738,,,,,,,,,,,,,,,,,146,U,circle,1,0,,,,,,,,,,,,,,,,switch,letter,lettSwt,k,1.2811,noRew,,,,,,0,0,0,0,0,1,,,,,,,,,,,,,,,,,
298207,2022-12-07_05h37.24.002,vts_reward_expectancy_bt,2022.2.4,Win32,59.81934558,Chrome,1504,1003,,,,,0,738,,,,,,,,,,,,,,,,,139,H,hexagon,1,0,,,,,,,,,,,,,,,,switch,number,numSwt,d,0.6293,noRew,,,,,,0,1,0,1,0,1,,,,,,,,,,,,,,,,,
298207,2022-12-07_05h37.24.002,vts_reward_expectancy_bt,2022.2.4,Win32,59.81934558,Chrome,1504,1003,,,,,0,738,,,,,,,,,,,,,,,,,132,F,circle,1,0,,,,,,,,,,,,,,,,switch,letter,lettSwt,j,1.3276,noRew,,,,,,0,2,0,2,0,1,,,,,,,,,,,,,,,,,
298207,2022-12-07_05h37.24.002,vts_reward_expectancy_bt,2022.2.4,Win32,59.81934558,Chrome,1504,1003,,,,,0,738,,,,,,,,,,,,,,,,,160,B,hexagon,1,0,,,,,,,,,,,,,,,,switch,number,numSwt,f,0.9628,noRew,,,,,,0,3,0,3,0,1,,,,,,,,,,,,,,,,,
298207,2022-12-07_05h37.24.002,vts_reward_expectancy_bt,2022.2.4,Win32,59.81934558,Chrome,1504,1003,,,,,0,738,,,,,,,,,,,,,,,,,146,U,circle,1,0,,,,,,,,,,,,,,,,switch,letter,lettSwt,k,0.653,noRew,,,,,,0,4,0,4,0,1,,,,,,,,,,,,,,,,,
298207,2022-12-07_05h37.24.002,vts_reward_expectancy_bt,2022.2.4,Win32,59.81934558,Chrome,1504,1003,,,,,0,738,,,,,,,,,,,,,,,,,139,H,hexagon,1,0,,,,,,,,,,,,,,,,switch,number,numSwt,d,0.5543,noRew,,,,,,0,5,0,5,0,1,,,,,,,,,,,,,,,,,
298207,2022-12-07_05h37.24.002,vts_reward_expectancy_bt,2022.2.4,Win32,59.81934558,Chrome,1504,1003,,,,,0,738,,,,,,,,,,,,,,,,,132,F,circle,1,0,,,,,,,,,,,,,,,,switch,letter,lettSwt,j,0.8994,noRew,,,,,,0,6,0,6,0,1,,,,,,,,,,,,,,,,,
298207,2022-12-07_05h37.24.002,vts_reward_expectancy_bt,2022.2.4,Win32,59.81934558,Chrome,1504,1003,,,,,0,738,,,,,,,,,,,,,,,,,160,B,star,1,0,,,,,,,,,,,,,,,,switch,number,numSwt,f,1.1785,noRew,,,,,,0,7,0,7,0,1,,,,,,,,,,,,,,,,,
298207,2022-12-07_05h37.24.002,vts_reward_expectancy_bt,2022.2.4,Win32,59.81934558,Chrome,1504,1003,,,,,0,738,,,,,,,,,,,,,,,,,160,S,circle,1,0,,,,,,,,,,,,,,,,repeat,number,numRpt,f,1.57,noRew,,,,,,0,8,0,8,0,1,,,,,,,,,,,,,,,,,
298207,2022-12-07_05h37.24.002,vts_reward_expectancy_bt,2022.2.4,Win32,59.81934558,Chrome,1504,1003,,,,,0,738,,,,,,,,,,,,,,,,,125,W,hexagon,1,0,,,,,,,,,,,,,,,,switch,letter,lettSwt,k,1.1017,noRew,,,,,,0,9,0,9,0,1,,,,,,,,,,,,,,,,,
298207,2022-12-07_05h37.24.002,vts_reward_expectancy_bt,2022.2.4,Win32,59.81934558,Chrome,1504,1003,,,,,0,738,,,,,,,,,,,,,,,,,181,U,hexagon,1,0,,,,,,,,,,,,,,,,switch,number,numSwt,f,1.2658,noRew,,,,,,0,10,0,10,0,1,,,,,,,,,,,,,,,,,
298207,2022-12-07_05h37.24.002,vts_reward_expectancy_bt,2022.2.4,Win32,59.81934558,Chrome,1504,1003,,,,,0,738,,,,,,,,,,,,,,,,,139,Y,star,1,0,,,,,,,,,,,,,,,,switch,letter,lettSwt,k,0.6457,noRew,,,,,,0,11,0,11,0,1,,,,,,,,,,,,,,,,,
298207,2022-12-07_05h37.24.002,vts_reward_expectancy_bt,2022.2.4,Win32,59.81934558,Chrome,1504,1003,,,,,0,738,,,,,,,,,,,,,,,,,139,B,triangle,1,0,,,,,,,,,,,,,,,,switch,number,numSwt,d,0.5174,noRew,,,,,,0,12,0,12,0,1,,,,,,,,,,,,,,,,,
298207,2022-12-07_05h37.24.002,vts_reward_expectancy_bt,2022.2.4,Win32,59.81934558,Chrome,1504,1003,,,,,0,738,,,,,,,,,,,,,,,,,174,D,hexagon,1,0,,,,,,,,,,,,,,,,switch,letter,lettSwt,j,0.729,noRew,,,,,,0,13,0,13,0,1,,,,,,,,,,,,,,,,,
298207,2022-12-07_05h37.24.002,vts_reward_expectancy_bt,2022.2.4,Win32,59.81934558,Chrome,1504,1003,,,,,0,738,,,,,,,,,,,,,,,,,132,S,circle,1,0,,,,,,,,,,,,,,,,switch,number,numSwt,d,1.348,noRew,,,,,,0,14,0,14,0,1,,,,,,,,,,,,,,,,,
298207,2022-12-07_05h37.24.002,vts_reward_expectancy_bt,2022.2.4,Win32,59.81934558,Chrome,1504,1003,,,,,0,738,,,,,,,,,,,,,,,,,146,F,star,1,0,,,,,,,,,,,,,,,,switch,letter,lettSwt,j,0.9812,noRew,,,,,,0,15,0,15,0,1,,,,,,,,,,,,,,,,,
298207,2022-12-07_05h37.24.002,vts_reward_expectancy_bt,2022.2.4,Win32,59.81934558,Chrome,1504,1003,,,,,0,738,,,,,,,,,,,,,,,,,125,Y,circle,1,0,,,,,,,,,,,,,,,,switch,number,numSwt,d,0.7288,noRew,,,,,,0,16,0,16,0,1,,,,,,,,,,,,,,,,,
298207,2022-12-07_05h37.24.002,vts_reward_expectancy_bt,2022.2.4,Win32,59.81934558,Chrome,1504,1003,,,,,0,738,,,,,,,,,,,,,,,,,160,B,hexagon,1,0,,,,,,,,,,,,,,,,switch,letter,lettSwt,j,1.1508,noRew,,,,,,0,17,0,17,0,1,,,,,,,,,,,,,,,,,
298207,2022-12-07_05h37.24.002,vts_reward_expectancy_bt,2022.2.4,Win32,59.81934558,Chrome,1504,1003,,,,,0,738,,,,,,,,,,,,,,,,,174,H,circle,1,0,,,,,,,,,,,,,,,,switch,number,numSwt,f,1.7317,noRew,,,,,,0,18,0,18,0,1,,,,,,,,,,,,,,,,,
298207,2022-12-07_05h37.24.002,vts_reward_expectancy_bt,2022.2.4,Win32,59.81934558,Chrome,1504,1003,,,,,0,738,,,,,,,,,,,,,,,,,139,U,hexagon,1,0,,,,,,,,,,,,,,,,switch,letter,lettSwt,k,1.1076,noRew,,,,,,0,19,0,19,0,1,,,,,,,,,,,,,,,,,
298207,2022-12-07_05h37.24.002,vts_reward_expectancy_bt,2022.2.4,Win32,59.81934558,Chrome,1504,1003,,,,,0,738,,,,,,,,,,,,,,,,,167,H,star,1,0,,,,,,,,,,,,,,,,repeat,letter,lettRpt,j,0.9771,noRew,,,,,,0,20,0,20,0,1,,,,,,,,,,,,,,,,,
298207,2022-12-07_05h37.24.002,vts_reward_expectancy_bt,2022.2.4,Win32,59.81934558,Chrome,1504,1003,,,,,0,738,,,,,,,,,,,,,,,,,181,S,circle,1,0,,,,,,,,,,,,,,,,switch,number,numSwt,f,1.8485,noRew,,,,,,0,21,0,21,0,1,,,,,,,,,,,,,,,,,
298207,2022-12-07_05h37.24.002,vts_reward_expectancy_bt,2022.2.4,Win32,59.81934558,Chrome,1504,1003,,,,,0,738,,,,,,,,,,,,,,,,,132,B,star,1,0,,,,,,,,,,,,,,,,switch,letter,lettSwt,j,1.3058,noRew,,,,,,0,22,0,22,0,1,,,,,,,,,,,,,,,,,
298207,2022-12-07_05h37.24.002,vts_reward_expectancy_bt,2022.2.4,Win32,59.81934558,Chrome,1504,1003,,,,,0,738,,,,,,,,,,,,,,,,,125,U,circle,1,0,,,,,,,,,,,,,,,,switch,number,numSwt,d,1.7207,noRew,,,,,,0,23,0,23,0,1,,,,,,,,,,,,,,,,,
298207,2022-12-07_05h37.24.002,vts_reward_expectancy_bt,2022.2.4,Win32,59.81934558,Chrome,1504,1003,,,,,0,738,,,,,,,,,,,,,,,,,160,H,circle,1,0,,,,,,,,,,,,,,,,repeat,number,numRpt,f,0.9814,noRew,,,,,,0,24,0,24,0,1,,,,,,,,,,,,,,,,,
298207,2022-12-07_05h37.24.002,vts_reward_expectancy_bt,2022.2.4,Win32,59.81934558,Chrome,1504,1003,,,,,0,738,,,,,,,,,,,,,,,,,132,Y,triangle,1,0,,,,,,,,,,,,,,,,switch,letter,lettSwt,k,0.9863,noRew,,,,,,0,25,0,25,0,1,,,,,,,,,,,,,,,,,
298207,2022-12-07_05h37.24.002,vts_reward_expectancy_bt,2022.2.4,Win32,59.81934558,Chrome,1504,1003,,,,,0,738,,,,,,,,,,,,,,,,,139,D,hexagon,1,0,,,,,,,,,,,,,,,,repeat,letter,lettRpt,j,1.014,noRew,,,,,,0,26,0,26,0,1,,,,,,,,,,,,,,,,,
298207,2022-12-07_05h37.24.002,vts_reward_expectancy_bt,2022.2.4,Win32,59.81934558,Chrome,1504,1003,,,,,0,738,,,,,,,,,,,,,,,,,174,W,star,0,0,,,,,,,,,,,,,,,,switch,number,NA,d,1.3894,noRew,,,,,,0,27,0,27,0,1,,,,,,,,,,,,,,,,,
298207,2022-12-07_05h37.24.002,vts_reward_expectancy_bt,2022.2.4,Win32,59.81934558,Chrome,1504,1003,,,,,0,738,,,,,,,,,,,,,,,,,139,W,triangle,1,1,,,,,,,,,,,,,,,,switch,letter,lettSwt,k,0.891,noRew,,,,,,0,28,0,28,0,1,,,,,,,,,,,,,,,,,
298207,2022-12-07_05h37.24.002,vts_reward_expectancy_bt,2022.2.4,Win32,59.81934558,Chrome,1504,1003,,,,,0,738,,,,,,,,,,,,,,,,,160,U,hexagon,0,0,,,,,,,,,,,,,,,,switch,number,NA,d,1.5613,noRew,,,,,,0,29,0,29,0,1,,,,,,,,,,,,,,,,,
298207,2022-12-07_05h37.24.002,vts_reward_expectancy_bt,2022.2.4,Win32,59.81934558,Chrome,1504,1003,,,,,0,738,,,,,,,,,,,,,,,,,167,F,star,1,1,,,,,,,,,,,,,,,,repeat,number,numRpt,f,1.2612,noRew,,,,,,0,30,0,30,0,1,,,,,,,,,,,,,,,,,
298207,2022-12-07_05h37.24.002,vts_reward_expectancy_bt,2022.2.4,Win32,59.81934558,Chrome,1504,1003,,,,,0,738,,,,,,,,,,,,,,,,,181,H,hexagon,1,0,,,,,,,,,,,,,,,,switch,letter,lettSwt,j,1.0621,noRew,,,,,,0,31,0,31,0,1,,,,,,,,,,,,,,,,,
298207,2022-12-07_05h37.24.002,vts_reward_expectancy_bt,2022.2.4,Win32,59.81934558,Chrome,1504,1003,,,,,0,738,,,,,,,,,,,,,,,,,167,W,triangle,1,0,,,,,,,,,,,,,,,,repeat,letter,lettRpt,k,1.2386,noRew,,,,,,0,32,0,32,0,1,,,,,,,,,,,,,,,,,
298207,2022-12-07_05h37.24.002,vts_reward_expectancy_bt,2022.2.4,Win32,59.81934558,Chrome,1504,1003,,,,,0,738,,,,,,,,,,,,,,,,,139,F,circle,1,0,,,,,,,,,,,,,,,,switch,number,numSwt,d,0.9151,noRew,,,,,,0,33,0,33,0,1,,,,,,,,,,,,,,,,,
298207,2022-12-07_05h37.24.002,vts_reward_expectancy_bt,2022.2.4,Win32,59.81934558,Chrome,1504,1003,,,,,0,738,,,,,,,,,,,,,,,,,125,S,star,1,0,,,,,,,,,,,,,,,,switch,letter,lettSwt,k,1.2535,noRew,,,,,,0,34,0,34,0,1,,,,,,,,,,,,,,,,,
298207,2022-12-07_05h37.24.002,vts_reward_expectancy_bt,2022.2.4,Win32,59.81934558,Chrome,1504,1003,,,,,0,738,,,,,,,,,,,,,,,,,160,H,triangle,1,0,,,,,,,,,,,,,,,,switch,number,numSwt,f,0.763,noRew,,,,,,0,35,0,35,0,1,,,,,,,,,,,,,,,,,
298207,2022-12-07_05h37.24.002,vts_reward_expectancy_bt,2022.2.4,Win32,59.81934558,Chrome,1504,1003,,,,,0,738,,,,,,,,,,,,,,,,,160,B,triangle,1,0,,,,,,,,,,,,,,,,switch,letter,lettSwt,j,0.9173,noRew,,,,,,0,36,0,36,0,1,,,,,,,,,,,,,,,,,
298207,2022-12-07_05h37.24.002,vts_reward_expectancy_bt,2022.2.4,Win32,59.81934558,Chrome,1504,1003,,,,,0,738,,,,,,,,,,,,,,,,,167,D,circle,1,0,,,,,,,,,,,,,,,,switch,number,numSwt,f,1.2617,noRew,,,,,,0,37,0,37,0,1,,,,,,,,,,,,,,,,,
298207,2022-12-07_05h37.24.002,vts_reward_expectancy_bt,2022.2.4,Win32,59.81934558,Chrome,1504,1003,,,,,0,738,,,,,,,,,,,,,,,,,174,W,star,1,0,,,,,,,,,,,,,,,,switch,letter,lettSwt,k,0.9982,noRew,,,,,,0,38,0,38,0,1,,,,,,,,,,,,,,,,,
298207,2022-12-07_05h37.24.002,vts_reward_expectancy_bt,2022.2.4,Win32,59.81934558,Chrome,1504,1003,,,,,0,738,,,,,,,,,,,,,,,,,146,U,circle,1,0,,,,,,,,,,,,,,,,switch,number,numSwt,d,1.0717,noRew,,,,,,0,39,0,39,0,1,,,,,,,,,,,,,,,,,
298207,2022-12-07_05h37.24.002,vts_reward_expectancy_bt,2022.2.4,Win32,59.81934558,Chrome,1504,1003,,,,,0,738,,,,,,,,,,,,,,,,,174,B,circle,1,0,,,,,,,,,,,,,,,,switch,letter,lettSwt,j,2.1782,noRew,,,,,,0,40,0,40,0,1,,,,,,,,,,,,,,,,,
298207,2022-12-07_05h37.24.002,vts_reward_expectancy_bt,2022.2.4,Win32,59.81934558,Chrome,1504,1003,,,,,0,738,,,,,,,,,,,,,,,,,167,H,triangle,1,0,,,,,,,,,,,,,,,,switch,number,numSwt,f,0.8267,noRew,,,,,,0,41,0,41,0,1,,,,,,,,,,,,,,,,,
298207,2022-12-07_05h37.24.002,vts_reward_expectancy_bt,2022.2.4,Win32,59.81934558,Chrome,1504,1003,,,,,0,738,,,,,,,,,,,,,,,,,139,S,star,1,0,,,,,,,,,,,,,,,,switch,letter,lettSwt,k,1.3819,noRew,,,,,,0,42,0,42,0,1,,,,,,,,,,,,,,,,,
298207,2022-12-07_05h37.24.002,vts_reward_expectancy_bt,2022.2.4,Win32,59.81934558,Chrome,1504,1003,,,,,0,738,,,,,,,,,,,,,,,,,125,W,triangle,1,0,,,,,,,,,,,,,,,,switch,number,numSwt,d,1.789,noRew,,,,,,0,43,0,43,0,1,,,,,,,,,,,,,,,,,
298207,2022-12-07_05h37.24.002,vts_reward_expectancy_bt,2022.2.4,Win32,59.81934558,Chrome,1504,1003,,,,,0,738,,,,,,,,,,,,,,,,,181,H,circle,1,0,,,,,,,,,,,,,,,,repeat,number,numRpt,f,1.2935,noRew,,,,,,0,44,0,44,0,1,,,,,,,,,,,,,,,,,
298207,2022-12-07_05h37.24.002,vts_reward_expectancy_bt,2022.2.4,Win32,59.81934558,Chrome,1504,1003,,,,,0,738,,,,,,,,,,,,,,,,,132,S,hexagon,1,0,,,,,,,,,,,,,,,,switch,letter,lettSwt,k,1.0492,noRew,,,,,,0,45,0,45,0,1,,,,,,,,,,,,,,,,,
298207,2022-12-07_05h37.24.002,vts_reward_expectancy_bt,2022.2.4,Win32,59.81934558,Chrome,1504,1003,,,,,0,738,,,,,,,,,,,,,,,,,167,W,star,1,0,,,,,,,,,,,,,,,,switch,number,numSwt,f,1.9273,noRew,,,,,,0,46,0,46,0,1,,,,,,,,,,,,,,,,,
298207,2022-12-07_05h37.24.002,vts_reward_expectancy_bt,2022.2.4,Win32,59.81934558,Chrome,1504,1003,,,,,0,738,,,,,,,,,,,,,,,,,160,D,triangle,1,0,,,,,,,,,,,,,,,,switch,letter,lettSwt,j,1.1449,noRew,,,,,,0,47,0,47,0,1,,,,,,,,,,,,,,,,,
298207,2022-12-07_05h37.24.002,vts_reward_expectancy_bt,2022.2.4,Win32,59.81934558,Chrome,1504,1003,,,,,0,738,,,,,,,,,,,,,,,,,132,D,triangle,1,0,,,,,,,,,,,,,,,,switch,number,numSwt,d,0.8549,noRew,,,,,,0,48,0,48,0,1,,,,,,,,,,,,,,,,,
298207,2022-12-07_05h37.24.002,vts_reward_expectancy_bt,2022.2.4,Win32,59.81934558,Chrome,1504,1003,,,,,0,738,,,,,,,,,,,,,,,,,181,Y,hexagon,1,0,,,,,,,,,,,,,,,,repeat,number,numRpt,f,1.5341,noRew,,,,,,0,49,0,49,0,1,,,,,,,,,,,,,,,,,
298207,2022-12-07_05h37.24.002,vts_reward_expectancy_bt,2022.2.4,Win32,59.81934558,Chrome,1504,1003,,,,,0,738,,,,,,,,,,,,,,,,,174,U,triangle,1,0,,,,,,,,,,,,,,,,switch,letter,lettSwt,k,0.9712,noRew,,,,,,0,50,0,50,0,1,,,,,,,,,,,,,,,,,
298207,2022-12-07_05h37.24.002,vts_reward_expectancy_bt,2022.2.4,Win32,59.81934558,Chrome,1504,1003,,,,,0,738,,,,,,,,,,,,,,,,,139,S,hexagon,1,0,,,,,,,,,,,,,,,,switch,number,numSwt,d,1.7233,noRew,,,,,,0,51,0,51,0,1,,,,,,,,,,,,,,,,,
298207,2022-12-07_05h37.24.002,vts_reward_expectancy_bt,2022.2.4,Win32,59.81934558,Chrome,1504,1003,,,,,0,738,,,,,,,,,,,,,,,,,167,D,star,1,0,,,,,,,,,,,,,,,,switch,letter,lettSwt,j,1.0864,noRew,,,,,,0,52,0,52,0,1,,,,,,,,,,,,,,,,,
298207,2022-12-07_05h37.24.002,vts_reward_expectancy_bt,2022.2.4,Win32,59.81934558,Chrome,1504,1003,,,,,0,738,,,,,,,,,,,,,,,,,132,B,circle,1,0,,,,,,,,,,,,,,,,switch,number,numSwt,d,1.7457,noRew,,,,,,0,53,0,53,0,1,,,,,,,,,,,,,,,,,
298207,2022-12-07_05h37.24.002,vts_reward_expectancy_bt,2022.2.4,Win32,59.81934558,Chrome,1504,1003,,,,,0,738,,,,,,,,,,,,,,,,,146,W,star,1,0,,,,,,,,,,,,,,,,switch,letter,lettSwt,k,1.9327,noRew,,,,,,0,54,0,54,0,1,,,,,,,,,,,,,,,,,
298207,2022-12-07_05h37.24.002,vts_reward_expectancy_bt,2022.2.4,Win32,59.81934558,Chrome,1504,1003,,,,,0,738,,,,,,,,,,,,,,,,,181,H,circle,1,0,,,,,,,,,,,,,,,,switch,number,numSwt,f,1.2047,noRew,,,,,,0,55,0,55,0,1,,,,,,,,,,,,,,,,,
298207,2022-12-07_05h37.24.002,vts_reward_expectancy_bt,2022.2.4,Win32,59.81934558,Chrome,1504,1003,,,,,0,738,,,,,,,,,,,,,,,,,139,Y,star,1,0,,,,,,,,,,,,,,,,switch,letter,lettSwt,k,1.4892,noRew,,,,,,0,56,0,56,0,1,,,,,,,,,,,,,,,,,
298207,2022-12-07_05h37.24.002,vts_reward_expectancy_bt,2022.2.4,Win32,59.81934558,Chrome,1504,1003,,,,,0,738,,,,,,,,,,,,,,,,,174,W,triangle,1,0,,,,,,,,,,,,,,,,switch,number,numSwt,f,1.1767,noRew,,,,,,0,57,0,57,0,1,,,,,,,,,,,,,,,,,
298207,2022-12-07_05h37.24.002,vts_reward_expectancy_bt,2022.2.4,Win32,59.81934558,Chrome,1504,1003,,,,,0,738,,,,,,,,,,,,,,,,,181,B,triangle,1,0,,,,,,,,,,,,,,,,repeat,number,numRpt,f,1.2045,noRew,,,,,,0,58,0,58,0,1,,,,,,,,,,,,,,,,,
298207,2022-12-07_05h37.24.002,vts_reward_expectancy_bt,2022.2.4,Win32,59.81934558,Chrome,1504,1003,,,,,0,738,,,,,,,,,,,,,,,,,125,U,star,1,0,,,,,,,,,,,,,,,,switch,letter,lettSwt,k,0.8127,noRew,,,,,,0,59,0,59,0,1,,,,,,,,,,,,,,,,,
298207,2022-12-07_05h37.24.002,vts_reward_expectancy_bt,2022.2.4,Win32,59.81934558,Chrome,1504,1003,,,,,0,738,,,,,,,,,,,,,,,,,125,W,circle,1,0,,,,,,,,,,,,,,,,repeat,letter,lettRpt,k,0.8311,noRew,,,,,,0,60,0,60,0,1,,,,,,,,,,,,,,,,,
298207,2022-12-07_05h37.24.002,vts_reward_expectancy_bt,2022.2.4,Win32,59.81934558,Chrome,1504,1003,,,,,0,738,,,,,,,,,,,,,,,,,160,U,triangle,0,0,,,,,,,,,,,,,,,,switch,number,NA,d,1.4038,noRew,,,,,,0,61,0,61,0,1,,,,,,,,,,,,,,,,,
298207,2022-12-07_05h37.24.002,vts_reward_expectancy_bt,2022.2.4,Win32,59.81934558,Chrome,1504,1003,,,,,0,738,,,,,,,,,,,,,,,,,174,S,circle,1,1,,,,,,,,,,,,,,,,repeat,number,numRpt,f,1.3272,noRew,,,,,,0,62,0,62,0,1,,,,,,,,,,,,,,,,,
298207,2022-12-07_05h37.24.002,vts_reward_expectancy_bt,2022.2.4,Win32,59.81934558,Chrome,1504,1003,,,,,0,738,,,,,,,,,,,,,,,,,167,F,hexagon,1,0,,,,,,,,,,,,,,,,switch,letter,lettSwt,j,0.9975,noRew,,,,,,0,63,0,63,0,1,,,,,,,,,,,,,,,,,
298207,2022-12-07_05h37.24.002,vts_reward_expectancy_bt,2022.2.4,Win32,59.81934558,Chrome,1504,1003,,,,,,,,,,,,,,,,,,,,,,,,,,,,,,,,,,,,,,,,,,,,,,,,,,,,,,,,,,,,,,,,,,,,,,,,,,,,
298207,2022-12-07_05h37.24.002,vts_reward_expectancy_bt,2022.2.4,Win32,59.81934558,Chrome,1504,1003,,,,,10,748,,,,,,,,,,,,,,,,,146,W,circle,1,0,,,,,,,,,,,,,,,,switch,number,numSwt,d,1.2175,Lo,,,,,,0,,,,,,space,12.993,high,0,0,0,0,1,,,,,,,,,
298207,2022-12-07_05h37.24.002,vts_reward_expectancy_bt,2022.2.4,Win32,59.81934558,Chrome,1504,1003,,,,,0,748,,,,,,,,,,,,,,,,,160,U,hexagon,1,0,,,,,,,,,,,,,,,,switch,letter,lettSwt,k,1.0233,Hi,,,,,,0,,,,,,,,high,1,0,1,0,1,,,,,,,,,
298207,2022-12-07_05h37.24.002,vts_reward_expectancy_bt,2022.2.4,Win32,59.81934558,Chrome,1504,1003,,,,,10,758,,,,,,,,,,,,,,,,,132,D,triangle,1,0,,,,,,,,,,,,,,,,switch,number,numSwt,d,0.4831,Hi,,,,,,0,,,,,,,,high,2,0,2,0,1,,,,,,,,,
298207,2022-12-07_05h37.24.002,vts_reward_expectancy_bt,2022.2.4,Win32,59.81934558,Chrome,1504,1003,,,,,1,759,,,,,,,,,,,,,,,,,125,B,star,1,0,,,,,,,,,,,,,,,,switch,letter,lettSwt,j,0.4969,Lo,,,,,,0,,,,,,,,high,3,0,3,0,1,,,,,,,,,
298207,2022-12-07_05h37.24.002,vts_reward_expectancy_bt,2022.2.4,Win32,59.81934558,Chrome,1504,1003,,,,,1,760,,,,,,,,,,,,,,,,,139,Y,circle,1,0,,,,,,,,,,,,,,,,switch,number,numSwt,d,0.4841,Lo,,,,,,0,,,,,,,,high,4,0,4,0,1,,,,,,,,,
298207,2022-12-07_05h37.24.002,vts_reward_expectancy_bt,2022.2.4,Win32,59.81934558,Chrome,1504,1003,,,,,10,770,,,,,,,,,,,,,,,,,174,H,hexagon,1,0,,,,,,,,,,,,,,,,repeat,number,numRpt,f,0.8617,Hi,,,,,,0,,,,,,,,high,5,0,5,0,1,,,,,,,,,
298207,2022-12-07_05h37.24.002,vts_reward_expectancy_bt,2022.2.4,Win32,59.81934558,Chrome,1504,1003,,,,,10,780,,,,,,,,,,,,,,,,,167,F,triangle,1,0,,,,,,,,,,,,,,,,repeat,number,numRpt,f,0.7979,Hi,,,,,,0,,,,,,,,high,6,0,6,0,1,,,,,,,,,
298207,2022-12-07_05h37.24.002,vts_reward_expectancy_bt,2022.2.4,Win32,59.81934558,Chrome,1504,1003,,,,,1,781,,,,,,,,,,,,,,,,,181,S,star,1,0,,,,,,,,,,,,,,,,repeat,number,numRpt,f,0.6977,Lo,,,,,,0,,,,,,,,high,7,0,7,0,1,,,,,,,,,
298207,2022-12-07_05h37.24.002,vts_reward_expectancy_bt,2022.2.4,Win32,59.81934558,Chrome,1504,1003,,,,,10,791,,,,,,,,,,,,,,,,,146,W,hexagon,1,0,,,,,,,,,,,,,,,,switch,letter,lettSwt,k,0.6395,Hi,,,,,,0,,,,,,,,high,8,0,8,0,1,,,,,,,,,
298207,2022-12-07_05h37.24.002,vts_reward_expectancy_bt,2022.2.4,Win32,59.81934558,Chrome,1504,1003,,,,,1,792,,,,,,,,,,,,,,,,,160,U,circle,1,0,,,,,,,,,,,,,,,,repeat,letter,lettRpt,k,0.8342,Lo,,,,,,0,,,,,,,,high,9,0,9,0,1,,,,,,,,,
298207,2022-12-07_05h37.24.002,vts_reward_expectancy_bt,2022.2.4,Win32,59.81934558,Chrome,1504,1003,,,,,1,793,,,,,,,,,,,,,,,,,132,D,star,1,0,,,,,,,,,,,,,,,,switch,number,numSwt,d,0.7305,Lo,,,,,,0,,,,,,,,high,10,0,10,0,1,,,,,,,,,
298207,2022-12-07_05h37.24.002,vts_reward_expectancy_bt,2022.2.4,Win32,59.81934558,Chrome,1504,1003,,,,,0,793,,,,,,,,,,,,,,,,,125,B,triangle,1,0,,,,,,,,,,,,,,,,switch,letter,lettSwt,j,1.0715,Hi,,,,,,0,,,,,,,,high,11,0,11,0,1,,,,,,,,,
298207,2022-12-07_05h37.24.002,vts_reward_expectancy_bt,2022.2.4,Win32,59.81934558,Chrome,1504,1003,,,,,10,803,,,,,,,,,,,,,,,,,139,Y,triangle,1,0,,,,,,,,,,,,,,,,switch,number,numSwt,d,0.7463,Hi,,,,,,0,,,,,,,,high,12,0,12,0,1,,,,,,,,,
298207,2022-12-07_05h37.24.002,vts_reward_expectancy_bt,2022.2.4,Win32,59.81934558,Chrome,1504,1003,,,,,1,804,,,,,,,,,,,,,,,,,174,H,circle,1,0,,,,,,,,,,,,,,,,repeat,number,numRpt,f,0.656,Lo,,,,,,0,,,,,,,,high,13,0,13,0,1,,,,,,,,,
298207,2022-12-07_05h37.24.002,vts_reward_expectancy_bt,2022.2.4,Win32,59.81934558,Chrome,1504,1003,,,,,1,805,,,,,,,,,,,,,,,,,167,F,hexagon,1,0,,,,,,,,,,,,,,,,switch,letter,lettSwt,j,0.982,Hi,,,,,,0,,,,,,,,high,14,0,14,0,1,,,,,,,,,
298207,2022-12-07_05h37.24.002,vts_reward_expectancy_bt,2022.2.4,Win32,59.81934558,Chrome,1504,1003,,,,,1,806,,,,,,,,,,,,,,,,,181,S,star,1,0,,,,,,,,,,,,,,,,switch,number,numSwt,f,0.7005,Lo,,,,,,0,,,,,,,,high,15,0,15,0,1,,,,,,,,,
298207,2022-12-07_05h37.24.002,vts_reward_expectancy_bt,2022.2.4,Win32,59.81934558,Chrome,1504,1003,,,,,10,816,,,,,,,,,,,,,,,,,181,Y,triangle,1,0,,,,,,,,,,,,,,,,repeat,number,numRpt,f,0.7865,Hi,,,,,,0,,,,,,,,high,16,0,16,0,1,,,,,,,,,
298207,2022-12-07_05h37.24.002,vts_reward_expectancy_bt,2022.2.4,Win32,59.81934558,Chrome,1504,1003,,,,,1,817,,,,,,,,,,,,,,,,,167,W,hexagon,1,0,,,,,,,,,,,,,,,,repeat,number,numRpt,f,1.1127,Hi,,,,,,0,,,,,,,,high,17,0,17,0,1,,,,,,,,,
298207,2022-12-07_05h37.24.002,vts_reward_expectancy_bt,2022.2.4,Win32,59.81934558,Chrome,1504,1003,,,,,10,827,,,,,,,,,,,,,,,,,125,S,star,1,0,,,,,,,,,,,,,,,,switch,letter,lettSwt,k,1.0537,Lo,,,,,,0,,,,,,,,high,18,0,18,0,1,,,,,,,,,
298207,2022-12-07_05h37.24.002,vts_reward_expectancy_bt,2022.2.4,Win32,59.81934558,Chrome,1504,1003,,,,,1,828,,,,,,,,,,,,,,,,,174,H,circle,1,0,,,,,,,,,,,,,,,,switch,number,numSwt,f,0.8498,Lo,,,,,,0,,,,,,,,high,19,0,19,0,1,,,,,,,,,
298207,2022-12-07_05h37.24.002,vts_reward_expectancy_bt,2022.2.4,Win32,59.81934558,Chrome,1504,1003,,,,,1,829,,,,,,,,,,,,,,,,,160,U,star,1,0,,,,,,,,,,,,,,,,switch,letter,lettSwt,k,1.3664,Lo,,,,,,0,,,,,,,,high,20,0,20,0,1,,,,,,,,,
298207,2022-12-07_05h37.24.002,vts_reward_expectancy_bt,2022.2.4,Win32,59.81934558,Chrome,1504,1003,,,,,10,839,,,,,,,,,,,,,,,,,146,B,hexagon,1,0,,,,,,,,,,,,,,,,switch,number,numSwt,d,0.8458,Hi,,,,,,0,,,,,,,,high,21,0,21,0,1,,,,,,,,,
298207,2022-12-07_05h37.24.002,vts_reward_expectancy_bt,2022.2.4,Win32,59.81934558,Chrome,1504,1003,,,,,1,840,,,,,,,,,,,,,,,,,139,D,circle,1,0,,,,,,,,,,,,,,,,switch,letter,lettSwt,j,1.0791,Lo,,,,,,0,,,,,,,,high,22,0,22,0,1,,,,,,,,,
298207,2022-12-07_05h37.24.002,vts_reward_expectancy_bt,2022.2.4,Win32,59.81934558,Chrome,1504,1003,,,,,0,840,,,,,,,,,,,,,,,,,132,F,triangle,1,0,,,,,,,,,,,,,,,,repeat,letter,lettRpt,j,1.3809,Hi,,,,,,0,,,,,,,,high,23,0,23,0,1,,,,,,,,,
298207,2022-12-07_05h37.24.002,vts_reward_expectancy_bt,2022.2.4,Win32,59.81934558,Chrome,1504,1003,,,,,10,850,,,,,,,,,,,,,,,,,174,B,hexagon,1,0,,,,,,,,,,,,,,,,switch,number,numSwt,f,0.7797,Hi,,,,,,0,,,,,,,,high,24,0,24,0,1,,,,,,,,,
298207,2022-12-07_05h37.24.002,vts_reward_expectancy_bt,2022.2.4,Win32,59.81934558,Chrome,1504,1003,,,,,1,851,,,,,,,,,,,,,,,,,125,H,circle,1,0,,,,,,,,,,,,,,,,switch,letter,lettSwt,j,0.8303,Lo,,,,,,0,,,,,,,,high,25,0,25,0,1,,,,,,,,,
298207,2022-12-07_05h37.24.002,vts_reward_expectancy_bt,2022.2.4,Win32,59.81934558,Chrome,1504,1003,,,,,10,861,,,,,,,,,,,,,,,,,181,W,triangle,1,0,,,,,,,,,,,,,,,,switch,number,numSwt,f,0.839,Hi,,,,,,0,,,,,,,,high,26,0,26,0,1,,,,,,,,,
298207,2022-12-07_05h37.24.002,vts_reward_expectancy_bt,2022.2.4,Win32,59.81934558,Chrome,1504,1003,,,,,1,862,,,,,,,,,,,,,,,,,146,S,star,1,0,,,,,,,,,,,,,,,,repeat,number,numRpt,d,2.1126,Lo,,,,,,0,,,,,,,,high,27,0,27,0,1,,,,,,,,,
298207,2022-12-07_05h37.24.002,vts_reward_expectancy_bt,2022.2.4,Win32,59.81934558,Chrome,1504,1003,,,,,0,862,,,,,,,,,,,,,,,,,132,U,triangle,1,0,,,,,,,,,,,,,,,,repeat,number,numRpt,d,1.3493,Hi,,,,,,0,,,,,,,,high,28,0,28,0,1,,,,,,,,,
298207,2022-12-07_05h37.24.002,vts_reward_expectancy_bt,2022.2.4,Win32,59.81934558,Chrome,1504,1003,,,,,10,872,,,,,,,,,,,,,,,,,167,F,circle,1,0,,,,,,,,,,,,,,,,repeat,number,numRpt,f,1.2201,Lo,,,,,,0,,,,,,,,high,29,0,29,0,1,,,,,,,,,
298207,2022-12-07_05h37.24.002,vts_reward_expectancy_bt,2022.2.4,Win32,59.81934558,Chrome,1504,1003,,,,,10,882,,,,,,,,,,,,,,,,,160,Y,hexagon,1,0,,,,,,,,,,,,,,,,repeat,number,numRpt,f,1.2363,Hi,,,,,,0,,,,,,,,high,30,0,30,0,1,,,,,,,,,
298207,2022-12-07_05h37.24.002,vts_reward_expectancy_bt,2022.2.4,Win32,59.81934558,Chrome,1504,1003,,,,,10,892,,,,,,,,,,,,,,,,,139,D,star,1,0,,,,,,,,,,,,,,,,repeat,number,numRpt,d,0.9283,Lo,,,,,,0,,,,,,,,high,31,0,31,0,1,,,,,,,,,
298207,2022-12-07_05h37.24.002,vts_reward_expectancy_bt,2022.2.4,Win32,59.81934558,Chrome,1504,1003,,,,,0,892,,,,,,,,,,,,,,,,,181,B,triangle,1,0,,,,,,,,,,,,,,,,repeat,number,numRpt,f,0.9633,Hi,,,,,,1,,,,,,space,2.5985,high,0,0,0,0,1,,,,,,,,,
298207,2022-12-07_05h37.24.002,vts_reward_expectancy_bt,2022.2.4,Win32,59.81934558,Chrome,1504,1003,,,,,1,893,,,,,,,,,,,,,,,,,167,W,star,1,0,,,,,,,,,,,,,,,,switch,letter,lettSwt,k,0.8471,Lo,,,,,,1,,,,,,,,high,1,0,1,0,1,,,,,,,,,
298207,2022-12-07_05h37.24.002,vts_reward_expectancy_bt,2022.2.4,Win32,59.81934558,Chrome,1504,1003,,,,,10,903,,,,,,,,,,,,,,,,,132,U,hexagon,1,0,,,,,,,,,,,,,,,,switch,number,numSwt,d,0.5802,Hi,,,,,,1,,,,,,,,high,2,0,2,0,1,,,,,,,,,
298207,2022-12-07_05h37.24.002,vts_reward_expectancy_bt,2022.2.4,Win32,59.81934558,Chrome,1504,1003,,,,,1,904,,,,,,,,,,,,,,,,,146,F,circle,1,0,,,,,,,,,,,,,,,,switch,letter,lettSwt,j,0.7968,Lo,,,,,,1,,,,,,,,high,3,0,3,0,1,,,,,,,,,
298207,2022-12-07_05h37.24.002,vts_reward_expectancy_bt,2022.2.4,Win32,59.81934558,Chrome,1504,1003,,,,,0,904,,,,,,,,,,,,,,,,,160,H,triangle,0,0,,,,,,,,,,,,,,,,switch,number,NA,d,0.7389,Lo,,,,,,1,,,,,,,,high,4,0,4,0,1,,,,,,,,,
298207,2022-12-07_05h37.24.002,vts_reward_expectancy_bt,2022.2.4,Win32,59.81934558,Chrome,1504,1003,,,,,1,905,,,,,,,,,,,,,,,,,139,S,star,1,1,,,,,,,,,,,,,,,,repeat,number,numRpt,d,0.7302,Lo,,,,,,1,,,,,,,,high,5,0,5,0,1,,,,,,,,,
298207,2022-12-07_05h37.24.002,vts_reward_expectancy_bt,2022.2.4,Win32,59.81934558,Chrome,1504,1003,,,,,10,915,,,,,,,,,,,,,,,,,174,Y,hexagon,1,0,,,,,,,,,,,,,,,,repeat,number,numRpt,f,0.7551,Hi,,,,,,1,,,,,,,,high,6,0,6,0,1,,,,,,,,,
298207,2022-12-07_05h37.24.002,vts_reward_expectancy_bt,2022.2.4,Win32,59.81934558,Chrome,1504,1003,,,,,10,925,,,,,,,,,,,,,,,,,125,D,circle,1,0,,,,,,,,,,,,,,,,switch,letter,lettSwt,j,1.1069,Lo,,,,,,1,,,,,,,,high,7,0,7,0,1,,,,,,,,,
298207,2022-12-07_05h37.24.002,vts_reward_expectancy_bt,2022.2.4,Win32,59.81934558,Chrome,1504,1003,,,,,1,926,,,,,,,,,,,,,,,,,181,B,star,1,0,,,,,,,,,,,,,,,,switch,number,numSwt,f,0.779,Lo,,,,,,1,,,,,,,,high,8,0,8,0,1,,,,,,,,,
298207,2022-12-07_05h37.24.002,vts_reward_expectancy_bt,2022.2.4,Win32,59.81934558,Chrome,1504,1003,,,,,0,926,,,,,,,,,,,,,,,,,167,W,triangle,1,0,,,,,,,,,,,,,,,,repeat,number,numRpt,f,1.0809,Hi,,,,,,1,,,,,,,,high,9,0,9,0,1,,,,,,,,,
298207,2022-12-07_05h37.24.002,vts_reward_expectancy_bt,2022.2.4,Win32,59.81934558,Chrome,1504,1003,,,,,1,927,,,,,,,,,,,,,,,,,132,U,circle,1,0,,,,,,,,,,,,,,,,repeat,number,numRpt,d,1.4176,Lo,,,,,,1,,,,,,,,high,10,0,10,0,1,,,,,,,,,
298207,2022-12-07_05h37.24.002,vts_reward_expectancy_bt,2022.2.4,Win32,59.81934558,Chrome,1504,1003,,,,,10,937,,,,,,,,,,,,,,,,,146,F,hexagon,1,0,,,,,,,,,,,,,,,,switch,letter,lettSwt,j,0.799,Hi,,,,,,1,,,,,,,,high,11,0,11,0,1,,,,,,,,,
298207,2022-12-07_05h37.24.002,vts_reward_expectancy_bt,2022.2.4,Win32,59.81934558,Chrome,1504,1003,,,,,1,938,,,,,,,,,,,,,,,,,160,H,star,1,0,,,,,,,,,,,,,,,,repeat,letter,lettRpt,j,0.9303,Lo,,,,,,1,,,,,,,,high,12,0,12,0,1,,,,,,,,,
298207,2022-12-07_05h37.24.002,vts_reward_expectancy_bt,2022.2.4,Win32,59.81934558,Chrome,1504,1003,,,,,0,938,,,,,,,,,,,,,,,,,139,S,triangle,1,0,,,,,,,,,,,,,,,,switch,number,numSwt,d,0.8516,Hi,,,,,,1,,,,,,,,high,13,0,13,0,1,,,,,,,,,
298207,2022-12-07_05h37.24.002,vts_reward_expectancy_bt,2022.2.4,Win32,59.81934558,Chrome,1504,1003,,,,,0,938,,,,,,,,,,,,,,,,,174,Y,hexagon,1,0,,,,,,,,,,,,,,,,repeat,number,numRpt,f,0.8468,Hi,,,,,,1,,,,,,,,high,14,0,14,0,1,,,,,,,,,
298207,2022-12-07_05h37.24.002,vts_reward_expectancy_bt,2022.2.4,Win32,59.81934558,Chrome,1504,1003,,,,,1,939,,,,,,,,,,,,,,,,,125,D,circle,1,0,,,,,,,,,,,,,,,,repeat,number,numRpt,d,0.5497,Lo,,,,,,1,,,,,,,,high,15,0,15,0,1,,,,,,,,,
298207,2022-12-07_05h37.24.002,vts_reward_expectancy_bt,2022.2.4,Win32,59.81934558,Chrome,1504,1003,,,,,1,940,,,,,,,,,,,,,,,,,139,F,star,1,0,,,,,,,,,,,,,,,,switch,letter,lettSwt,j,0.9138,Lo,,,,,,1,,,,,,,,high,16,0,16,0,1,,,,,,,,,
298207,2022-12-07_05h37.24.002,vts_reward_expectancy_bt,2022.2.4,Win32,59.81934558,Chrome,1504,1003,,,,,10,950,,,,,,,,,,,,,,,,,160,S,hexagon,1,0,,,,,,,,,,,,,,,,repeat,letter,lettRpt,k,0.6488,Hi,,,,,,1,,,,,,,,high,17,0,17,0,1,,,,,,,,,
298207,2022-12-07_05h37.24.002,vts_reward_expectancy_bt,2022.2.4,Win32,59.81934558,Chrome,1504,1003,,,,,1,951,,,,,,,,,,,,,,,,,181,D,circle,1,0,,,,,,,,,,,,,,,,switch,number,numSwt,f,0.6883,Lo,,,,,,1,,,,,,,,high,18,0,18,0,1,,,,,,,,,
298207,2022-12-07_05h37.24.002,vts_reward_expectancy_bt,2022.2.4,Win32,59.81934558,Chrome,1504,1003,,,,,0,951,,,,,,,,,,,,,,,,,146,Y,triangle,1,0,,,,,,,,,,,,,,,,switch,letter,lettSwt,k,1.1011,Hi,,,,,,1,,,,,,,,high,19,0,19,0,1,,,,,,,,,
298207,2022-12-07_05h37.24.002,vts_reward_expectancy_bt,2022.2.4,Win32,59.81934558,Chrome,1504,1003,,,,,1,952,,,,,,,,,,,,,,,,,167,B,circle,1,0,,,,,,,,,,,,,,,,switch,number,numSwt,f,0.6804,Lo,,,,,,1,,,,,,,,high,20,0,20,0,1,,,,,,,,,
298207,2022-12-07_05h37.24.002,vts_reward_expectancy_bt,2022.2.4,Win32,59.81934558,Chrome,1504,1003,,,,,10,962,,,,,,,,,,,,,,,,,132,W,hexagon,1,0,,,,,,,,,,,,,,,,switch,letter,lettSwt,k,0.6042,Hi,,,,,,1,,,,,,,,high,21,0,21,0,1,,,,,,,,,
298207,2022-12-07_05h37.24.002,vts_reward_expectancy_bt,2022.2.4,Win32,59.81934558,Chrome,1504,1003,,,,,0,962,,,,,,,,,,,,,,,,,125,U,triangle,1,0,,,,,,,,,,,,,,,,repeat,letter,lettRpt,k,0.8363,Hi,,,,,,1,,,,,,,,high,22,0,22,0,1,,,,,,,,,
298207,2022-12-07_05h37.24.002,vts_reward_expectancy_bt,2022.2.4,Win32,59.81934558,Chrome,1504,1003,,,,,1,963,,,,,,,,,,,,,,,,,174,H,star,1,0,,,,,,,,,,,,,,,,repeat,letter,lettRpt,j,1.2801,Lo,,,,,,1,,,,,,,,high,23,0,23,0,1,,,,,,,,,
298207,2022-12-07_05h37.24.002,vts_reward_expectancy_bt,2022.2.4,Win32,59.81934558,Chrome,1504,1003,,,,,10,973,,,,,,,,,,,,,,,,,174,B,hexagon,1,0,,,,,,,,,,,,,,,,switch,number,numSwt,f,0.582,Hi,,,,,,1,,,,,,,,high,24,0,24,0,1,,,,,,,,,
298207,2022-12-07_05h37.24.002,vts_reward_expectancy_bt,2022.2.4,Win32,59.81934558,Chrome,1504,1003,,,,,0,973,,,,,,,,,,,,,,,,,139,D,triangle,1,0,,,,,,,,,,,,,,,,repeat,number,numRpt,d,0.9146,Hi,,,,,,1,,,,,,,,high,25,0,25,0,1,,,,,,,,,
298207,2022-12-07_05h37.24.002,vts_reward_expectancy_bt,2022.2.4,Win32,59.81934558,Chrome,1504,1003,,,,,1,974,,,,,,,,,,,,,,,,,125,F,circle,1,0,,,,,,,,,,,,,,,,switch,letter,lettSwt,j,1.2801,Lo,,,,,,1,,,,,,,,high,26,0,26,0,1,,,,,,,,,
298207,2022-12-07_05h37.24.002,vts_reward_expectancy_bt,2022.2.4,Win32,59.81934558,Chrome,1504,1003,,,,,1,975,,,,,,,,,,,,,,,,,146,Y,star,1,0,,,,,,,,,,,,,,,,switch,number,numSwt,d,0.7882,Lo,,,,,,1,,,,,,,,high,27,0,27,0,1,,,,,,,,,
298207,2022-12-07_05h37.24.002,vts_reward_expectancy_bt,2022.2.4,Win32,59.81934558,Chrome,1504,1003,,,,,1,976,,,,,,,,,,,,,,,,,160,H,star,1,0,,,,,,,,,,,,,,,,switch,letter,lettSwt,j,1.0489,Lo,,,,,,1,,,,,,,,high,28,0,28,0,1,,,,,,,,,
298207,2022-12-07_05h37.24.002,vts_reward_expectancy_bt,2022.2.4,Win32,59.81934558,Chrome,1504,1003,,,,,1,977,,,,,,,,,,,,,,,,,132,W,circle,1,0,,,,,,,,,,,,,,,,switch,number,numSwt,d,1.1056,Lo,,,,,,1,,,,,,,,high,29,0,29,0,1,,,,,,,,,
298207,2022-12-07_05h37.24.002,vts_reward_expectancy_bt,2022.2.4,Win32,59.81934558,Chrome,1504,1003,,,,,0,977,,,,,,,,,,,,,,,,,167,U,hexagon,0,0,,,,,,,,,,,,,,,,repeat,number,NA,d,1.5348,Lo,,,,,,1,,,,,,,,high,30,0,30,0,1,,,,,,,,,
298207,2022-12-07_05h37.24.002,vts_reward_expectancy_bt,2022.2.4,Win32,59.81934558,Chrome,1504,1003,,,,,10,987,,,,,,,,,,,,,,,,,181,S,triangle,1,1,,,,,,,,,,,,,,,,repeat,number,numRpt,f,0.7389,Hi,,,,,,1,,,,,,,,high,31,0,31,0,1,,,,,,,,,
298207,2022-12-07_05h37.24.002,vts_reward_expectancy_bt,2022.2.4,Win32,59.81934558,Chrome,1504,1003,,,,,10,997,,,,,,,,,,,,,,,,,167,S,triangle,1,0,,,,,,,,,,,,,,,,repeat,number,numRpt,f,0.6651,Hi,,,,,,2,,,,,,space,2.8088,high,0,0,0,0,1,,,,,,,,,
298207,2022-12-07_05h37.24.002,vts_reward_expectancy_bt,2022.2.4,Win32,59.81934558,Chrome,1504,1003,,,,,1,998,,,,,,,,,,,,,,,,,132,U,circle,1,0,,,,,,,,,,,,,,,,switch,letter,lettSwt,k,0.7133,Lo,,,,,,2,,,,,,,,high,1,0,1,0,1,,,,,,,,,
298207,2022-12-07_05h37.24.002,vts_reward_expectancy_bt,2022.2.4,Win32,59.81934558,Chrome,1504,1003,,,,,0,998,,,,,,,,,,,,,,,,,181,W,hexagon,1,0,,,,,,,,,,,,,,,,switch,number,numSwt,f,0.8968,Hi,,,,,,2,,,,,,,,high,2,0,2,0,1,,,,,,,,,
298207,2022-12-07_05h37.24.002,vts_reward_expectancy_bt,2022.2.4,Win32,59.81934558,Chrome,1504,1003,,,,,10,1008,,,,,,,,,,,,,,,,,139,F,star,1,0,,,,,,,,,,,,,,,,repeat,number,numRpt,d,0.4462,Lo,,,,,,2,,,,,,,,high,3,0,3,0,1,,,,,,,,,
298207,2022-12-07_05h37.24.002,vts_reward_expectancy_bt,2022.2.4,Win32,59.81934558,Chrome,1504,1003,,,,,10,1018,,,,,,,,,,,,,,,,,174,Y,triangle,1,0,,,,,,,,,,,,,,,,repeat,number,numRpt,f,0.4979,Hi,,,,,,2,,,,,,,,high,4,0,4,0,1,,,,,,,,,
298207,2022-12-07_05h37.24.002,vts_reward_expectancy_bt,2022.2.4,Win32,59.81934558,Chrome,1504,1003,,,,,1,1019,,,,,,,,,,,,,,,,,160,B,circle,1,0,,,,,,,,,,,,,,,,switch,letter,lettSwt,j,0.806,Lo,,,,,,2,,,,,,,,high,5,0,5,0,1,,,,,,,,,
298207,2022-12-07_05h37.24.002,vts_reward_expectancy_bt,2022.2.4,Win32,59.81934558,Chrome,1504,1003,,,,,10,1029,,,,,,,,,,,,,,,,,146,D,hexagon,1,0,,,,,,,,,,,,,,,,switch,number,numSwt,d,0.6301,Hi,,,,,,2,,,,,,,,high,6,0,6,0,1,,,,,,,,,
298207,2022-12-07_05h37.24.002,vts_reward_expectancy_bt,2022.2.4,Win32,59.81934558,Chrome,1504,1003,,,,,10,1039,,,,,,,,,,,,,,,,,125,H,star,1,0,,,,,,,,,,,,,,,,repeat,number,numRpt,d,0.5028,Lo,,,,,,2,,,,,,,,high,7,0,7,0,1,,,,,,,,,
298207,2022-12-07_05h37.24.002,vts_reward_expectancy_bt,2022.2.4,Win32,59.81934558,Chrome,1504,1003,,,,,0,1039,,,,,,,,,,,,,,,,,167,S,circle,0,0,,,,,,,,,,,,,,,,repeat,number,NA,d,1.0966,Lo,,,,,,2,,,,,,,,high,8,0,8,0,1,,,,,,,,,
298207,2022-12-07_05h37.24.002,vts_reward_expectancy_bt,2022.2.4,Win32,59.81934558,Chrome,1504,1003,,,,,10,1049,,,,,,,,,,,,,,,,,132,U,hexagon,1,1,,,,,,,,,,,,,,,,switch,letter,lettSwt,k,0.6636,Hi,,,,,,2,,,,,,,,high,9,0,9,0,1,,,,,,,,,
298207,2022-12-07_05h37.24.002,vts_reward_expectancy_bt,2022.2.4,Win32,59.81934558,Chrome,1504,1003,,,,,10,1059,,,,,,,,,,,,,,,,,181,W,triangle,1,0,,,,,,,,,,,,,,,,repeat,letter,lettRpt,k,0.6211,Hi,,,,,,2,,,,,,,,high,10,0,10,0,1,,,,,,,,,
298207,2022-12-07_05h37.24.002,vts_reward_expectancy_bt,2022.2.4,Win32,59.81934558,Chrome,1504,1003,,,,,1,1060,,,,,,,,,,,,,,,,,139,F,star,1,0,,,,,,,,,,,,,,,,repeat,letter,lettRpt,j,0.8332,Lo,,,,,,2,,,,,,,,high,11,0,11,0,1,,,,,,,,,
298207,2022-12-07_05h37.24.002,vts_reward_expectancy_bt,2022.2.4,Win32,59.81934558,Chrome,1504,1003,,,,,10,1070,,,,,,,,,,,,,,,,,174,Y,triangle,1,0,,,,,,,,,,,,,,,,switch,number,numSwt,f,0.4705,Hi,,,,,,2,,,,,,,,high,12,0,12,0,1,,,,,,,,,
298207,2022-12-07_05h37.24.002,vts_reward_expectancy_bt,2022.2.4,Win32,59.81934558,Chrome,1504,1003,,,,,1,1071,,,,,,,,,,,,,,,,,160,B,hexagon,1,0,,,,,,,,,,,,,,,,repeat,number,numRpt,f,0.4328,Hi,,,,,,2,,,,,,,,high,13,0,13,0,1,,,,,,,,,
298207,2022-12-07_05h37.24.002,vts_reward_expectancy_bt,2022.2.4,Win32,59.81934558,Chrome,1504,1003,,,,,10,1081,,,,,,,,,,,,,,,,,146,D,circle,1,0,,,,,,,,,,,,,,,,repeat,number,numRpt,d,0.6056,Lo,,,,,,2,,,,,,,,high,14,0,14,0,1,,,,,,,,,
298207,2022-12-07_05h37.24.002,vts_reward_expectancy_bt,2022.2.4,Win32,59.81934558,Chrome,1504,1003,,,,,1,1082,,,,,,,,,,,,,,,,,125,H,star,1,0,,,,,,,,,,,,,,,,repeat,number,numRpt,d,0.6469,Lo,,,,,,2,,,,,,,,high,15,0,15,0,1,,,,,,,,,
298207,2022-12-07_05h37.24.002,vts_reward_expectancy_bt,2022.2.4,Win32,59.81934558,Chrome,1504,1003,,,,,1,1083,,,,,,,,,,,,,,,,,132,S,circle,1,0,,,,,,,,,,,,,,,,repeat,number,numRpt,d,0.6947,Lo,,,,,,2,,,,,,,,high,16,0,16,0,1,,,,,,,,,
298207,2022-12-07_05h37.24.002,vts_reward_expectancy_bt,2022.2.4,Win32,59.81934558,Chrome,1504,1003,,,,,0,1083,,,,,,,,,,,,,,,,,139,W,triangle,1,0,,,,,,,,,,,,,,,,switch,letter,lettSwt,k,1.0176,Hi,,,,,,2,,,,,,,,high,17,0,17,0,1,,,,,,,,,
298207,2022-12-07_05h37.24.002,vts_reward_expectancy_bt,2022.2.4,Win32,59.81934558,Chrome,1504,1003,,,,,1,1084,,,,,,,,,,,,,,,,,167,Y,star,1,0,,,,,,,,,,,,,,,,switch,number,numSwt,f,0.6867,Lo,,,,,,2,,,,,,,,high,18,0,18,0,1,,,,,,,,,
298207,2022-12-07_05h37.24.002,vts_reward_expectancy_bt,2022.2.4,Win32,59.81934558,Chrome,1504,1003,,,,,0,1084,,,,,,,,,,,,,,,,,125,H,hexagon,1,0,,,,,,,,,,,,,,,,repeat,number,numRpt,d,0.7642,Hi,,,,,,2,,,,,,,,high,19,0,19,0,1,,,,,,,,,
298207,2022-12-07_05h37.24.002,vts_reward_expectancy_bt,2022.2.4,Win32,59.81934558,Chrome,1504,1003,,,,,1,1085,,,,,,,,,,,,,,,,,174,D,star,1,0,,,,,,,,,,,,,,,,repeat,number,numRpt,f,0.7811,Lo,,,,,,2,,,,,,,,high,20,0,20,0,1,,,,,,,,,
298207,2022-12-07_05h37.24.002,vts_reward_expectancy_bt,2022.2.4,Win32,59.81934558,Chrome,1504,1003,,,,,0,1085,,,,,,,,,,,,,,,,,181,B,triangle,1,0,,,,,,,,,,,,,,,,repeat,number,numRpt,f,0.8129,Hi,,,,,,2,,,,,,,,high,21,0,21,0,1,,,,,,,,,
298207,2022-12-07_05h37.24.002,vts_reward_expectancy_bt,2022.2.4,Win32,59.81934558,Chrome,1504,1003,,,,,1,1086,,,,,,,,,,,,,,,,,146,F,circle,1,0,,,,,,,,,,,,,,,,repeat,number,numRpt,d,0.8799,Lo,,,,,,2,,,,,,,,high,22,0,22,0,1,,,,,,,,,
298207,2022-12-07_05h37.24.002,vts_reward_expectancy_bt,2022.2.4,Win32,59.81934558,Chrome,1504,1003,,,,,10,1096,,,,,,,,,,,,,,,,,160,U,hexagon,1,0,,,,,,,,,,,,,,,,repeat,number,numRpt,f,0.547,Hi,,,,,,2,,,,,,,,high,23,0,23,0,1,,,,,,,,,
298207,2022-12-07_05h37.24.002,vts_reward_expectancy_bt,2022.2.4,Win32,59.81934558,Chrome,1504,1003,,,,,1,1097,,,,,,,,,,,,,,,,,125,D,circle,1,0,,,,,,,,,,,,,,,,repeat,number,numRpt,d,0.9633,Lo,,,,,,2,,,,,,,,high,24,0,24,0,1,,,,,,,,,
298207,2022-12-07_05h37.24.002,vts_reward_expectancy_bt,2022.2.4,Win32,59.81934558,Chrome,1504,1003,,,,,0,1097,,,,,,,,,,,,,,,,,181,U,triangle,1,0,,,,,,,,,,,,,,,,repeat,number,numRpt,f,1.0639,Hi,,,,,,2,,,,,,,,high,25,0,25,0,1,,,,,,,,,
298207,2022-12-07_05h37.24.002,vts_reward_expectancy_bt,2022.2.4,Win32,59.81934558,Chrome,1504,1003,,,,,1,1098,,,,,,,,,,,,,,,,,167,B,star,1,0,,,,,,,,,,,,,,,,repeat,number,numRpt,f,0.7623,Lo,,,,,,2,,,,,,,,high,26,0,26,0,1,,,,,,,,,
298207,2022-12-07_05h37.24.002,vts_reward_expectancy_bt,2022.2.4,Win32,59.81934558,Chrome,1504,1003,,,,,10,1108,,,,,,,,,,,,,,,,,132,Y,hexagon,1,0,,,,,,,,,,,,,,,,switch,letter,lettSwt,k,0.7804,Hi,,,,,,2,,,,,,,,high,27,0,27,0,1,,,,,,,,,
298207,2022-12-07_05h37.24.002,vts_reward_expectancy_bt,2022.2.4,Win32,59.81934558,Chrome,1504,1003,,,,,10,1118,,,,,,,,,,,,,,,,,146,F,triangle,1,0,,,,,,,,,,,,,,,,switch,number,numSwt,d,0.6801,Hi,,,,,,2,,,,,,,,high,28,0,28,0,1,,,,,,,,,
298207,2022-12-07_05h37.24.002,vts_reward_expectancy_bt,2022.2.4,Win32,59.81934558,Chrome,1504,1003,,,,,1,1119,,,,,,,,,,,,,,,,,174,H,star,1,0,,,,,,,,,,,,,,,,switch,letter,lettSwt,j,0.9903,Lo,,,,,,2,,,,,,,,high,29,0,29,0,1,,,,,,,,,
298207,2022-12-07_05h37.24.002,vts_reward_expectancy_bt,2022.2.4,Win32,59.81934558,Chrome,1504,1003,,,,,0,1119,,,,,,,,,,,,,,,,,139,S,hexagon,1,0,,,,,,,,,,,,,,,,switch,number,numSwt,d,0.897,Hi,,,,,,2,,,,,,,,high,30,0,30,0,1,,,,,,,,,
298207,2022-12-07_05h37.24.002,vts_reward_expectancy_bt,2022.2.4,Win32,59.81934558,Chrome,1504,1003,,,,,1,1120,,,,,,,,,,,,,,,,,160,W,circle,1,0,,,,,,,,,,,,,,,,repeat,number,numRpt,f,0.7051,Lo,,,,,,2,,,,,,,,high,31,0,31,0,1,,,,,,,,,
298207,2022-12-07_05h37.24.002,vts_reward_expectancy_bt,2022.2.4,Win32,59.81934558,Chrome,1504,1003,,,,,0,1120,,,,,,,,,,,,,,,,,160,B,triangle,1,0,,,,,,,,,,,,,,,,repeat,number,numRpt,f,0.7343,Hi,,,,,,3,,,,,,space,1.2658,high,0,0,0,0,1,,,,,,,,,
298207,2022-12-07_05h37.24.002,vts_reward_expectancy_bt,2022.2.4,Win32,59.81934558,Chrome,1504,1003,,,,,1,1121,,,,,,,,,,,,,,,,,132,D,circle,1,0,,,,,,,,,,,,,,,,repeat,number,numRpt,d,0.9653,Lo,,,,,,3,,,,,,,,high,1,0,1,0,1,,,,,,,,,
298207,2022-12-07_05h37.24.002,vts_reward_expectancy_bt,2022.2.4,Win32,59.81934558,Chrome,1504,1003,,,,,0,1121,,,,,,,,,,,,,,,,,146,W,hexagon,1,0,,,,,,,,,,,,,,,,repeat,number,numRpt,d,1.0148,Hi,,,,,,3,,,,,,,,high,2,0,2,0,1,,,,,,,,,
298207,2022-12-07_05h37.24.002,vts_reward_expectancy_bt,2022.2.4,Win32,59.81934558,Chrome,1504,1003,,,,,1,1122,,,,,,,,,,,,,,,,,139,Y,star,1,0,,,,,,,,,,,,,,,,repeat,number,numRpt,d,0.7129,Lo,,,,,,3,,,,,,,,high,3,0,3,0,1,,,,,,,,,
298207,2022-12-07_05h37.24.002,vts_reward_expectancy_bt,2022.2.4,Win32,59.81934558,Chrome,1504,1003,,,,,0,1122,,,,,,,,,,,,,,,,,125,F,triangle,1,0,,,,,,,,,,,,,,,,repeat,number,numRpt,d,0.6974,Hi,,,,,,3,,,,,,,,high,4,0,4,0,1,,,,,,,,,
298207,2022-12-07_05h37.24.002,vts_reward_expectancy_bt,2022.2.4,Win32,59.81934558,Chrome,1504,1003,,,,,10,1132,,,,,,,,,,,,,,,,,174,U,circle,1,0,,,,,,,,,,,,,,,,switch,letter,lettSwt,k,0.6024,Lo,,,,,,3,,,,,,,,high,5,0,5,0,1,,,,,,,,,
298207,2022-12-07_05h37.24.002,vts_reward_expectancy_bt,2022.2.4,Win32,59.81934558,Chrome,1504,1003,,,,,0,1132,,,,,,,,,,,,,,,,,181,H,hexagon,1,0,,,,,,,,,,,,,,,,switch,number,numSwt,f,0.6961,Hi,,,,,,3,,,,,,,,high,6,0,6,0,1,,,,,,,,,
298207,2022-12-07_05h37.24.002,vts_reward_expectancy_bt,2022.2.4,Win32,59.81934558,Chrome,1504,1003,,,,,10,1142,,,,,,,,,,,,,,,,,167,S,star,1,0,,,,,,,,,,,,,,,,repeat,number,numRpt,f,0.6334,Lo,,,,,,3,,,,,,,,high,7,0,7,0,1,,,,,,,,,
298207,2022-12-07_05h37.24.002,vts_reward_expectancy_bt,2022.2.4,Win32,59.81934558,Chrome,1504,1003,,,,,0,1142,,,,,,,,,,,,,,,,,160,B,triangle,1,0,,,,,,,,,,,,,,,,repeat,number,numRpt,f,0.6877,Hi,,,,,,3,,,,,,,,high,8,0,8,0,1,,,,,,,,,
298207,2022-12-07_05h37.24.002,vts_reward_expectancy_bt,2022.2.4,Win32,59.81934558,Chrome,1504,1003,,,,,1,1143,,,,,,,,,,,,,,,,,132,D,star,1,0,,,,,,,,,,,,,,,,switch,letter,lettSwt,j,1.1798,Lo,,,,,,3,,,,,,,,high,9,0,9,0,1,,,,,,,,,
298207,2022-12-07_05h37.24.002,vts_reward_expectancy_bt,2022.2.4,Win32,59.81934558,Chrome,1504,1003,,,,,1,1144,,,,,,,,,,,,,,,,,146,W,circle,1,0,,,,,,,,,,,,,,,,repeat,letter,lettRpt,k,1.007,Lo,,,,,,3,,,,,,,,high,10,0,10,0,1,,,,,,,,,
298207,2022-12-07_05h37.24.002,vts_reward_expectancy_bt,2022.2.4,Win32,59.81934558,Chrome,1504,1003,,,,,0,1144,,,,,,,,,,,,,,,,,139,Y,hexagon,0,0,,,,,,,,,,,,,,,,switch,number,NA,f,0.0974,Lo,,,,,,3,,,,,,,,high,11,0,11,0,1,,,,,,,,,
298207,2022-12-07_05h37.24.002,vts_reward_expectancy_bt,2022.2.4,Win32,59.81934558,Chrome,1504,1003,,,,,10,1154,,,,,,,,,,,,,,,,,125,F,hexagon,1,1,,,,,,,,,,,,,,,,repeat,number,numRpt,d,0.2028,Hi,,,,,,3,,,,,,,,high,12,0,12,0,1,,,,,,,,,
298207,2022-12-07_05h37.24.002,vts_reward_expectancy_bt,2022.2.4,Win32,59.81934558,Chrome,1504,1003,,,,,0,1154,,,,,,,,,,,,,,,,,174,U,triangle,1,0,,,,,,,,,,,,,,,,switch,letter,lettSwt,k,1.062,Hi,,,,,,3,,,,,,,,high,13,0,13,0,1,,,,,,,,,
298207,2022-12-07_05h37.24.002,vts_reward_expectancy_bt,2022.2.4,Win32,59.81934558,Chrome,1504,1003,,,,,1,1155,,,,,,,,,,,,,,,,,181,H,star,1,0,,,,,,,,,,,,,,,,switch,number,numSwt,f,0.5622,Lo,,,,,,3,,,,,,,,high,14,0,14,0,1,,,,,,,,,
298207,2022-12-07_05h37.24.002,vts_reward_expectancy_bt,2022.2.4,Win32,59.81934558,Chrome,1504,1003,,,,,1,1156,,,,,,,,,,,,,,,,,167,S,circle,1,0,,,,,,,,,,,,,,,,repeat,number,numRpt,f,0.6885,Lo,,,,,,3,,,,,,,,high,15,0,15,0,1,,,,,,,,,
298207,2022-12-07_05h37.24.002,vts_reward_expectancy_bt,2022.2.4,Win32,59.81934558,Chrome,1504,1003,,,,,1,1157,,,,,,,,,,,,,,,,,167,D,circle,1,0,,,,,,,,,,,,,,,,repeat,number,numRpt,f,0.9177,Lo,,,,,,3,,,,,,,,high,16,0,16,0,1,,,,,,,,,
298207,2022-12-07_05h37.24.002,vts_reward_expectancy_bt,2022.2.4,Win32,59.81934558,Chrome,1504,1003,,,,,1,1158,,,,,,,,,,,,,,,,,139,S,star,1,0,,,,,,,,,,,,,,,,switch,letter,lettSwt,k,0.4455,Lo,,,,,,3,,,,,,,,high,17,0,17,0,1,,,,,,,,,
298207,2022-12-07_05h37.24.002,vts_reward_expectancy_bt,2022.2.4,Win32,59.81934558,Chrome,1504,1003,,,,,0,1158,,,,,,,,,,,,,,,,,181,U,hexagon,1,0,,,,,,,,,,,,,,,,switch,number,numSwt,f,0.6968,Hi,,,,,,3,,,,,,,,high,18,0,18,0,1,,,,,,,,,
298207,2022-12-07_05h37.24.002,vts_reward_expectancy_bt,2022.2.4,Win32,59.81934558,Chrome,1504,1003,,,,,10,1168,,,,,,,,,,,,,,,,,125,B,triangle,1,0,,,,,,,,,,,,,,,,repeat,number,numRpt,d,0.4175,Hi,,,,,,3,,,,,,,,high,19,0,19,0,1,,,,,,,,,
298207,2022-12-07_05h37.24.002,vts_reward_expectancy_bt,2022.2.4,Win32,59.81934558,Chrome,1504,1003,,,,,0,1168,,,,,,,,,,,,,,,,,146,W,hexagon,1,0,,,,,,,,,,,,,,,,switch,letter,lettSwt,k,1.0805,Hi,,,,,,3,,,,,,,,high,20,0,20,0,1,,,,,,,,,
298207,2022-12-07_05h37.24.002,vts_reward_expectancy_bt,2022.2.4,Win32,59.81934558,Chrome,1504,1003,,,,,1,1169,,,,,,,,,,,,,,,,,160,Y,circle,1,0,,,,,,,,,,,,,,,,repeat,letter,lettRpt,k,0.9328,Lo,,,,,,3,,,,,,,,high,21,0,21,0,1,,,,,,,,,
298207,2022-12-07_05h37.24.002,vts_reward_expectancy_bt,2022.2.4,Win32,59.81934558,Chrome,1504,1003,,,,,0,1169,,,,,,,,,,,,,,,,,132,F,triangle,1,0,,,,,,,,,,,,,,,,repeat,letter,lettRpt,j,0.7141,Hi,,,,,,3,,,,,,,,high,22,0,22,0,1,,,,,,,,,
298207,2022-12-07_05h37.24.002,vts_reward_expectancy_bt,2022.2.4,Win32,59.81934558,Chrome,1504,1003,,,,,1,1170,,,,,,,,,,,,,,,,,174,H,star,1,0,,,,,,,,,,,,,,,,switch,number,numSwt,f,0.5307,Lo,,,,,,3,,,,,,,,high,23,0,23,0,1,,,,,,,,,
298207,2022-12-07_05h37.24.002,vts_reward_expectancy_bt,2022.2.4,Win32,59.81934558,Chrome,1504,1003,,,,,1,1171,,,,,,,,,,,,,,,,,167,B,star,1,0,,,,,,,,,,,,,,,,repeat,number,numRpt,f,0.671,Lo,,,,,,3,,,,,,,,high,24,0,24,0,1,,,,,,,,,
298207,2022-12-07_05h37.24.002,vts_reward_expectancy_bt,2022.2.4,Win32,59.81934558,Chrome,1504,1003,,,,,10,1181,,,,,,,,,,,,,,,,,174,H,circle,1,0,,,,,,,,,,,,,,,,repeat,number,numRpt,f,0.5472,Lo,,,,,,3,,,,,,,,high,25,0,25,0,1,,,,,,,,,
298207,2022-12-07_05h37.24.002,vts_reward_expectancy_bt,2022.2.4,Win32,59.81934558,Chrome,1504,1003,,,,,0,1181,,,,,,,,,,,,,,,,,160,W,triangle,1,0,,,,,,,,,,,,,,,,repeat,number,numRpt,f,0.7698,Hi,,,,,,3,,,,,,,,high,26,0,26,0,1,,,,,,,,,
298207,2022-12-07_05h37.24.002,vts_reward_expectancy_bt,2022.2.4,Win32,59.81934558,Chrome,1504,1003,,,,,10,1191,,,,,,,,,,,,,,,,,181,Y,hexagon,1,0,,,,,,,,,,,,,,,,switch,letter,lettSwt,k,0.7393,Hi,,,,,,3,,,,,,,,high,27,0,27,0,1,,,,,,,,,
298207,2022-12-07_05h37.24.002,vts_reward_expectancy_bt,2022.2.4,Win32,59.81934558,Chrome,1504,1003,,,,,0,1191,,,,,,,,,,,,,,,,,125,U,triangle,1,0,,,,,,,,,,,,,,,,repeat,letter,lettRpt,k,0.6799,Hi,,,,,,3,,,,,,,,high,28,0,28,0,1,,,,,,,,,
298207,2022-12-07_05h37.24.002,vts_reward_expectancy_bt,2022.2.4,Win32,59.81934558,Chrome,1504,1003,,,,,0,1191,,,,,,,,,,,,,,,,,139,D,hexagon,0,0,,,,,,,,,,,,,,,,switch,number,NA,f,0.5009,Hi,,,,,,3,,,,,,,,high,29,0,29,0,1,,,,,,,,,
298207,2022-12-07_05h37.24.002,vts_reward_expectancy_bt,2022.2.4,Win32,59.81934558,Chrome,1504,1003,,,,,1,1192,,,,,,,,,,,,,,,,,146,S,circle,1,1,,,,,,,,,,,,,,,,repeat,number,numRpt,d,0.7629,Lo,,,,,,3,,,,,,,,high,30,0,30,0,1,,,,,,,,,
298207,2022-12-07_05h37.24.002,vts_reward_expectancy_bt,2022.2.4,Win32,59.81934558,Chrome,1504,1003,,,,,1,1193,,,,,,,,,,,,,,,,,132,F,star,1,0,,,,,,,,,,,,,,,,repeat,number,numRpt,d,0.5306,Lo,,,,,,3,,,,,,,,high,31,0,31,0,1,,,,,,,,,
298207,2022-12-07_05h37.24.002,vts_reward_expectancy_bt,2022.2.4,Win32,59.81934558,Chrome,1504,1003,,,,,0,1193,,,,,,,,,,,,,,,,,181,D,hexagon,0,0,,,,,,,,,,,,,,,,repeat,number,NA,d,0.4208,Lo,,,,,,4,,,,,,space,1.0343,high,0,0,0,0,1,,,,,,,,,
298207,2022-12-07_05h37.24.002,vts_reward_expectancy_bt,2022.2.4,Win32,59.81934558,Chrome,1504,1003,,,,,10,1203,,,,,,,,,,,,,,,,,132,S,triangle,1,1,,,,,,,,,,,,,,,,repeat,number,numRpt,d,0.618,Hi,,,,,,4,,,,,,,,high,1,0,1,0,1,,,,,,,,,
298207,2022-12-07_05h37.24.002,vts_reward_expectancy_bt,2022.2.4,Win32,59.81934558,Chrome,1504,1003,,,,,1,1204,,,,,,,,,,,,,,,,,167,H,circle,1,0,,,,,,,,,,,,,,,,repeat,number,numRpt,f,0.6164,Lo,,,,,,4,,,,,,,,high,2,0,2,0,1,,,,,,,,,
298207,2022-12-07_05h37.24.002,vts_reward_expectancy_bt,2022.2.4,Win32,59.81934558,Chrome,1504,1003,,,,,1,1205,,,,,,,,,,,,,,,,,146,B,star,1,0,,,,,,,,,,,,,,,,repeat,number,numRpt,d,0.503,Lo,,,,,,4,,,,,,,,high,3,0,3,0,1,,,,,,,,,
298207,2022-12-07_05h37.24.002,vts_reward_expectancy_bt,2022.2.4,Win32,59.81934558,Chrome,1504,1003,,,,,0,1205,,,,,,,,,,,,,,,,,139,Y,hexagon,0,0,,,,,,,,,,,,,,,,switch,letter,NA,j,0.8637,Lo,,,,,,4,,,,,,,,high,4,0,4,0,1,,,,,,,,,
298207,2022-12-07_05h37.24.002,vts_reward_expectancy_bt,2022.2.4,Win32,59.81934558,Chrome,1504,1003,,,,,1,1206,,,,,,,,,,,,,,,,,125,F,triangle,1,1,,,,,,,,,,,,,,,,repeat,letter,lettRpt,j,0.6691,Hi,,,,,,4,,,,,,,,high,5,0,5,0,1,,,,,,,,,
298207,2022-12-07_05h37.24.002,vts_reward_expectancy_bt,2022.2.4,Win32,59.81934558,Chrome,1504,1003,,,,,1,1207,,,,,,,,,,,,,,,,,160,W,circle,1,0,,,,,,,,,,,,,,,,switch,number,numSwt,f,0.6808,Lo,,,,,,4,,,,,,,,high,6,0,6,0,1,,,,,,,,,
298207,2022-12-07_05h37.24.002,vts_reward_expectancy_bt,2022.2.4,Win32,59.81934558,Chrome,1504,1003,,,,,1,1208,,,,,,,,,,,,,,,,,174,U,star,1,0,,,,,,,,,,,,,,,,repeat,number,numRpt,f,0.6963,Lo,,,,,,4,,,,,,,,high,7,0,7,0,1,,,,,,,,,
298207,2022-12-07_05h37.24.002,vts_reward_expectancy_bt,2022.2.4,Win32,59.81934558,Chrome,1504,1003,,,,,10,1218,,,,,,,,,,,,,,,,,181,D,triangle,1,0,,,,,,,,,,,,,,,,repeat,number,numRpt,f,0.5639,Hi,,,,,,4,,,,,,,,high,8,0,8,0,1,,,,,,,,,
298207,2022-12-07_05h37.24.002,vts_reward_expectancy_bt,2022.2.4,Win32,59.81934558,Chrome,1504,1003,,,,,10,1228,,,,,,,,,,,,,,,,,132,S,hexagon,1,0,,,,,,,,,,,,,,,,repeat,number,numRpt,d,0.6484,Hi,,,,,,4,,,,,,,,high,9,0,9,0,1,,,,,,,,,
298207,2022-12-07_05h37.24.002,vts_reward_expectancy_bt,2022.2.4,Win32,59.81934558,Chrome,1504,1003,,,,,1,1229,,,,,,,,,,,,,,,,,167,H,circle,1,0,,,,,,,,,,,,,,,,repeat,number,numRpt,f,0.6864,Lo,,,,,,4,,,,,,,,high,10,0,10,0,1,,,,,,,,,
298207,2022-12-07_05h37.24.002,vts_reward_expectancy_bt,2022.2.4,Win32,59.81934558,Chrome,1504,1003,,,,,1,1230,,,,,,,,,,,,,,,,,146,B,star,1,0,,,,,,,,,,,,,,,,repeat,number,numRpt,d,0.6139,Lo,,,,,,4,,,,,,,,high,11,0,11,0,1,,,,,,,,,
298207,2022-12-07_05h37.24.002,vts_reward_expectancy_bt,2022.2.4,Win32,59.81934558,Chrome,1504,1003,,,,,1,1231,,,,,,,,,,,,,,,,,139,Y,circle,1,0,,,,,,,,,,,,,,,,repeat,number,numRpt,d,0.6135,Lo,,,,,,4,,,,,,,,high,12,0,12,0,1,,,,,,,,,
298207,2022-12-07_05h37.24.002,vts_reward_expectancy_bt,2022.2.4,Win32,59.81934558,Chrome,1504,1003,,,,,1,1232,,,,,,,,,,,,,,,,,125,F,star,1,0,,,,,,,,,,,,,,,,repeat,number,numRpt,d,0.8336,Lo,,,,,,4,,,,,,,,high,13,0,13,0,1,,,,,,,,,
298207,2022-12-07_05h37.24.002,vts_reward_expectancy_bt,2022.2.4,Win32,59.81934558,Chrome,1504,1003,,,,,0,1232,,,,,,,,,,,,,,,,,160,W,hexagon,1,0,,,,,,,,,,,,,,,,repeat,number,numRpt,f,0.7291,Hi,,,,,,4,,,,,,,,high,14,0,14,0,1,,,,,,,,,
298207,2022-12-07_05h37.24.002,vts_reward_expectancy_bt,2022.2.4,Win32,59.81934558,Chrome,1504,1003,,,,,0,1232,,,,,,,,,,,,,,,,,174,U,triangle,1,0,,,,,,,,,,,,,,,,repeat,number,numRpt,f,0.8365,Hi,,,,,,4,,,,,,,,high,15,0,15,0,1,,,,,,,,,
298207,2022-12-07_05h37.24.002,vts_reward_expectancy_bt,2022.2.4,Win32,59.81934558,Chrome,1504,1003,,,,,1,1233,,,,,,,,,,,,,,,,,174,H,circle,1,0,,,,,,,,,,,,,,,,switch,letter,lettSwt,j,1.0029,Lo,,,,,,4,,,,,,,,high,16,0,16,0,1,,,,,,,,,
298207,2022-12-07_05h37.24.002,vts_reward_expectancy_bt,2022.2.4,Win32,59.81934558,Chrome,1504,1003,,,,,1,1234,,,,,,,,,,,,,,,,,125,F,star,1,0,,,,,,,,,,,,,,,,repeat,letter,lettRpt,j,1.0372,Lo,,,,,,4,,,,,,,,high,17,0,17,0,1,,,,,,,,,
298207,2022-12-07_05h37.24.002,vts_reward_expectancy_bt,2022.2.4,Win32,59.81934558,Chrome,1504,1003,,,,,0,1234,,,,,,,,,,,,,,,,,181,B,triangle,1,0,,,,,,,,,,,,,,,,repeat,letter,lettRpt,j,1.3685,Hi,,,,,,4,,,,,,,,high,18,0,18,0,1,,,,,,,,,
298207,2022-12-07_05h37.24.002,vts_reward_expectancy_bt,2022.2.4,Win32,59.81934558,Chrome,1504,1003,,,,,0,1234,,,,,,,,,,,,,,,,,167,Y,hexagon,1,0,,,,,,,,,,,,,,,,repeat,letter,lettRpt,k,1.0893,Hi,,,,,,4,,,,,,,,high,19,0,19,0,1,,,,,,,,,
298207,2022-12-07_05h37.24.002,vts_reward_expectancy_bt,2022.2.4,Win32,59.81934558,Chrome,1504,1003,,,,,0,1234,,,,,,,,,,,,,,,,,132,U,triangle,1,0,,,,,,,,,,,,,,,,switch,number,numSwt,d,1.0799,Hi,,,,,,4,,,,,,,,high,20,0,20,0,1,,,,,,,,,
298207,2022-12-07_05h37.24.002,vts_reward_expectancy_bt,2022.2.4,Win32,59.81934558,Chrome,1504,1003,,,,,1,1235,,,,,,,,,,,,,,,,,139,S,star,1,0,,,,,,,,,,,,,,,,repeat,number,numRpt,d,0.9711,Lo,,,,,,4,,,,,,,,high,21,0,21,0,1,,,,,,,,,
298207,2022-12-07_05h37.24.002,vts_reward_expectancy_bt,2022.2.4,Win32,59.81934558,Chrome,1504,1003,,,,,1,1236,,,,,,,,,,,,,,,,,160,D,circle,1,0,,,,,,,,,,,,,,,,repeat,number,numRpt,f,1.163,Lo,,,,,,4,,,,,,,,high,22,0,22,0,1,,,,,,,,,
298207,2022-12-07_05h37.24.002,vts_reward_expectancy_bt,2022.2.4,Win32,59.81934558,Chrome,1504,1003,,,,,0,1236,,,,,,,,,,,,,,,,,146,W,hexagon,1,0,,,,,,,,,,,,,,,,repeat,number,numRpt,d,0.8149,Hi,,,,,,4,,,,,,,,high,23,0,23,0,1,,,,,,,,,
298207,2022-12-07_05h37.24.002,vts_reward_expectancy_bt,2022.2.4,Win32,59.81934558,Chrome,1504,1003,,,,,0,1236,,,,,,,,,,,,,,,,,139,H,triangle,1,0,,,,,,,,,,,,,,,,repeat,number,numRpt,d,1.4182,Hi,,,,,,4,,,,,,,,high,24,0,24,0,1,,,,,,,,,
298207,2022-12-07_05h37.24.002,vts_reward_expectancy_bt,2022.2.4,Win32,59.81934558,Chrome,1504,1003,,,,,0,1236,,,,,,,,,,,,,,,,,181,Y,hexagon,1,0,,,,,,,,,,,,,,,,repeat,number,numRpt,f,0.8657,Hi,,,,,,4,,,,,,,,high,25,0,25,0,1,,,,,,,,,
298207,2022-12-07_05h37.24.002,vts_reward_expectancy_bt,2022.2.4,Win32,59.81934558,Chrome,1504,1003,,,,,1,1237,,,,,,,,,,,,,,,,,160,W,star,1,0,,,,,,,,,,,,,,,,switch,letter,lettSwt,k,1.0481,Lo,,,,,,4,,,,,,,,high,26,0,26,0,1,,,,,,,,,
298207,2022-12-07_05h37.24.002,vts_reward_expectancy_bt,2022.2.4,Win32,59.81934558,Chrome,1504,1003,,,,,1,1238,,,,,,,,,,,,,,,,,146,U,circle,1,0,,,,,,,,,,,,,,,,repeat,letter,lettRpt,k,1.2472,Lo,,,,,,4,,,,,,,,high,27,0,27,0,1,,,,,,,,,
298207,2022-12-07_05h37.24.002,vts_reward_expectancy_bt,2022.2.4,Win32,59.81934558,Chrome,1504,1003,,,,,0,1238,,,,,,,,,,,,,,,,,174,S,circle,0,0,,,,,,,,,,,,,,,,repeat,letter,NA,j,1.3841,Lo,,,,,,4,,,,,,,,high,28,0,28,0,1,,,,,,,,,
298207,2022-12-07_05h37.24.002,vts_reward_expectancy_bt,2022.2.4,Win32,59.81934558,Chrome,1504,1003,,,,,0,1238,,,,,,,,,,,,,,,,,125,F,triangle,1,1,,,,,,,,,,,,,,,,repeat,letter,lettRpt,j,0.9637,Hi,,,,,,4,,,,,,,,high,29,0,29,0,1,,,,,,,,,
298207,2022-12-07_05h37.24.002,vts_reward_expectancy_bt,2022.2.4,Win32,59.81934558,Chrome,1504,1003,,,,,0,1238,,,,,,,,,,,,,,,,,167,D,hexagon,1,0,,,,,,,,,,,,,,,,repeat,letter,lettRpt,j,0.835,Hi,,,,,,4,,,,,,,,high,30,0,30,0,1,,,,,,,,,
298207,2022-12-07_05h37.24.002,vts_reward_expectancy_bt,2022.2.4,Win32,59.81934558,Chrome,1504,1003,,,,,1,1239,,,,,,,,,,,,,,,,,132,B,star,1,0,,,,,,,,,,,,,,,,switch,number,numSwt,d,0.663,Lo,,,,,,4,,,,,,,,high,31,0,31,0,1,,,,,,,,,
298207,2022-12-07_05h37.24.002,vts_reward_expectancy_bt,2022.2.4,Win32,59.81934558,Chrome,1504,1003,,,,,1,1240,,,,,,,,,,,,,,,,,174,D,star,1,0,,,,,,,,,,,,,,,,repeat,number,numRpt,f,0.6212,Lo,,,,,,5,,,,,,space,1.249,high,0,0,0,0,1,,,,,,,,,
298207,2022-12-07_05h37.24.002,vts_reward_expectancy_bt,2022.2.4,Win32,59.81934558,Chrome,1504,1003,,,,,10,1250,,,,,,,,,,,,,,,,,125,W,triangle,1,0,,,,,,,,,,,,,,,,repeat,number,numRpt,d,0.4181,Hi,,,,,,5,,,,,,,,high,1,0,1,0,1,,,,,,,,,
298207,2022-12-07_05h37.24.002,vts_reward_expectancy_bt,2022.2.4,Win32,59.81934558,Chrome,1504,1003,,,,,1,1251,,,,,,,,,,,,,,,,,167,Y,circle,1,0,,,,,,,,,,,,,,,,repeat,number,numRpt,f,0.6297,Lo,,,,,,5,,,,,,,,high,2,0,2,0,1,,,,,,,,,
298207,2022-12-07_05h37.24.002,vts_reward_expectancy_bt,2022.2.4,Win32,59.81934558,Chrome,1504,1003,,,,,10,1261,,,,,,,,,,,,,,,,,181,U,hexagon,1,0,,,,,,,,,,,,,,,,repeat,number,numRpt,f,0.5639,Hi,,,,,,5,,,,,,,,high,3,0,3,0,1,,,,,,,,,
298207,2022-12-07_05h37.24.002,vts_reward_expectancy_bt,2022.2.4,Win32,59.81934558,Chrome,1504,1003,,,,,1,1262,,,,,,,,,,,,,,,,,132,S,star,1,0,,,,,,,,,,,,,,,,switch,letter,lettSwt,k,0.8465,Lo,,,,,,5,,,,,,,,high,4,0,4,0,1,,,,,,,,,
298207,2022-12-07_05h37.24.002,vts_reward_expectancy_bt,2022.2.4,Win32,59.81934558,Chrome,1504,1003,,,,,10,1272,,,,,,,,,,,,,,,,,146,H,triangle,1,0,,,,,,,,,,,,,,,,switch,number,numSwt,d,0.631,Hi,,,,,,5,,,,,,,,high,5,0,5,0,1,,,,,,,,,
298207,2022-12-07_05h37.24.002,vts_reward_expectancy_bt,2022.2.4,Win32,59.81934558,Chrome,1504,1003,,,,,1,1273,,,,,,,,,,,,,,,,,139,B,circle,1,0,,,,,,,,,,,,,,,,repeat,number,numRpt,d,0.5127,Lo,,,,,,5,,,,,,,,high,6,0,6,0,1,,,,,,,,,
298207,2022-12-07_05h37.24.002,vts_reward_expectancy_bt,2022.2.4,Win32,59.81934558,Chrome,1504,1003,,,,,0,1273,,,,,,,,,,,,,,,,,160,F,hexagon,1,0,,,,,,,,,,,,,,,,repeat,number,numRpt,f,0.7128,Hi,,,,,,5,,,,,,,,high,7,0,7,0,1,,,,,,,,,
298207,2022-12-07_05h37.24.002,vts_reward_expectancy_bt,2022.2.4,Win32,59.81934558,Chrome,1504,1003,,,,,1,1274,,,,,,,,,,,,,,,,,174,D,circle,1,0,,,,,,,,,,,,,,,,repeat,number,numRpt,f,0.5895,Lo,,,,,,5,,,,,,,,high,8,0,8,0,1,,,,,,,,,
298207,2022-12-07_05h37.24.002,vts_reward_expectancy_bt,2022.2.4,Win32,59.81934558,Chrome,1504,1003,,,,,0,1274,,,,,,,,,,,,,,,,,125,W,hexagon,1,0,,,,,,,,,,,,,,,,switch,letter,lettSwt,k,1.2126,Hi,,,,,,5,,,,,,,,high,9,0,9,0,1,,,,,,,,,
298207,2022-12-07_05h37.24.002,vts_reward_expectancy_bt,2022.2.4,Win32,59.81934558,Chrome,1504,1003,,,,,1,1275,,,,,,,,,,,,,,,,,167,Y,star,1,0,,,,,,,,,,,,,,,,switch,number,numSwt,f,0.5148,Lo,,,,,,5,,,,,,,,high,10,0,10,0,1,,,,,,,,,
298207,2022-12-07_05h37.24.002,vts_reward_expectancy_bt,2022.2.4,Win32,59.81934558,Chrome,1504,1003,,,,,10,1285,,,,,,,,,,,,,,,,,181,U,triangle,1,0,,,,,,,,,,,,,,,,repeat,number,numRpt,f,0.6167,Hi,,,,,,5,,,,,,,,high,11,0,11,0,1,,,,,,,,,
298207,2022-12-07_05h37.24.002,vts_reward_expectancy_bt,2022.2.4,Win32,59.81934558,Chrome,1504,1003,,,,,0,1285,,,,,,,,,,,,,,,,,132,S,triangle,1,0,,,,,,,,,,,,,,,,repeat,number,numRpt,d,0.6353,Hi,,,,,,5,,,,,,,,high,12,0,12,0,1,,,,,,,,,
298207,2022-12-07_05h37.24.002,vts_reward_expectancy_bt,2022.2.4,Win32,59.81934558,Chrome,1504,1003,,,,,0,1285,,,,,,,,,,,,,,,,,146,H,hexagon,1,0,,,,,,,,,,,,,,,,repeat,number,numRpt,d,0.8722,Hi,,,,,,5,,,,,,,,high,13,0,13,0,1,,,,,,,,,
298207,2022-12-07_05h37.24.002,vts_reward_expectancy_bt,2022.2.4,Win32,59.81934558,Chrome,1504,1003,,,,,10,1295,,,,,,,,,,,,,,,,,139,B,circle,1,0,,,,,,,,,,,,,,,,repeat,number,numRpt,d,0.6295,Lo,,,,,,5,,,,,,,,high,14,0,14,0,1,,,,,,,,,
298207,2022-12-07_05h37.24.002,vts_reward_expectancy_bt,2022.2.4,Win32,59.81934558,Chrome,1504,1003,,,,,1,1296,,,,,,,,,,,,,,,,,160,F,star,1,0,,,,,,,,,,,,,,,,repeat,number,numRpt,f,0.648,Lo,,,,,,5,,,,,,,,high,15,0,15,0,1,,,,,,,,,
298207,2022-12-07_05h37.24.002,vts_reward_expectancy_bt,2022.2.4,Win32,59.81934558,Chrome,1504,1003,,,,,1,1297,,,,,,,,,,,,,,,,,181,F,triangle,1,0,,,,,,,,,,,,,,,,repeat,number,numRpt,f,0.5496,Hi,,,,,,5,,,,,,,,high,16,0,16,0,1,,,,,,,,,
298207,2022-12-07_05h37.24.002,vts_reward_expectancy_bt,2022.2.4,Win32,59.81934558,Chrome,1504,1003,,,,,1,1298,,,,,,,,,,,,,,,,,167,D,star,1,0,,,,,,,,,,,,,,,,repeat,number,numRpt,f,0.7133,Lo,,,,,,5,,,,,,,,high,17,0,17,0,1,,,,,,,,,
298207,2022-12-07_05h37.24.002,vts_reward_expectancy_bt,2022.2.4,Win32,59.81934558,Chrome,1504,1003,,,,,0,1298,,,,,,,,,,,,,,,,,132,B,hexagon,1,0,,,,,,,,,,,,,,,,repeat,number,numRpt,d,0.736,Hi,,,,,,5,,,,,,,,high,18,0,18,0,1,,,,,,,,,
298207,2022-12-07_05h37.24.002,vts_reward_expectancy_bt,2022.2.4,Win32,59.81934558,Chrome,1504,1003,,,,,10,1308,,,,,,,,,,,,,,,,,125,Y,circle,1,0,,,,,,,,,,,,,,,,switch,letter,lettSwt,k,0.688,Lo,,,,,,5,,,,,,,,high,19,0,19,0,1,,,,,,,,,
298207,2022-12-07_05h37.24.002,vts_reward_expectancy_bt,2022.2.4,Win32,59.81934558,Chrome,1504,1003,,,,,10,1318,,,,,,,,,,,,,,,,,174,U,hexagon,1,0,,,,,,,,,,,,,,,,repeat,letter,lettRpt,k,0.8297,Hi,,,,,,5,,,,,,,,high,20,0,20,0,1,,,,,,,,,
298207,2022-12-07_05h37.24.002,vts_reward_expectancy_bt,2022.2.4,Win32,59.81934558,Chrome,1504,1003,,,,,10,1328,,,,,,,,,,,,,,,,,160,H,circle,1,0,,,,,,,,,,,,,,,,repeat,letter,lettRpt,j,0.8534,Lo,,,,,,5,,,,,,,,high,21,0,21,0,1,,,,,,,,,
298207,2022-12-07_05h37.24.002,vts_reward_expectancy_bt,2022.2.4,Win32,59.81934558,Chrome,1504,1003,,,,,1,1329,,,,,,,,,,,,,,,,,139,S,star,1,0,,,,,,,,,,,,,,,,repeat,letter,lettRpt,k,0.6025,Lo,,,,,,5,,,,,,,,high,22,0,22,0,1,,,,,,,,,
298207,2022-12-07_05h37.24.002,vts_reward_expectancy_bt,2022.2.4,Win32,59.81934558,Chrome,1504,1003,,,,,0,1329,,,,,,,,,,,,,,,,,146,W,triangle,0,0,,,,,,,,,,,,,,,,switch,number,NA,f,0.9964,Lo,,,,,,5,,,,,,,,high,23,0,23,0,1,,,,,,,,,
298207,2022-12-07_05h37.24.002,vts_reward_expectancy_bt,2022.2.4,Win32,59.81934558,Chrome,1504,1003,,,,,10,1339,,,,,,,,,,,,,,,,,125,Y,star,1,1,,,,,,,,,,,,,,,,repeat,number,numRpt,d,0.5879,Lo,,,,,,5,,,,,,,,high,24,0,24,0,1,,,,,,,,,
298207,2022-12-07_05h37.24.002,vts_reward_expectancy_bt,2022.2.4,Win32,59.81934558,Chrome,1504,1003,,,,,0,1339,,,,,,,,,,,,,,,,,181,B,hexagon,1,0,,,,,,,,,,,,,,,,repeat,number,numRpt,f,0.7137,Hi,,,,,,5,,,,,,,,high,25,0,25,0,1,,,,,,,,,
298207,2022-12-07_05h37.24.002,vts_reward_expectancy_bt,2022.2.4,Win32,59.81934558,Chrome,1504,1003,,,,,1,1340,,,,,,,,,,,,,,,,,132,S,circle,1,0,,,,,,,,,,,,,,,,repeat,number,numRpt,d,0.4527,Lo,,,,,,5,,,,,,,,high,26,0,26,0,1,,,,,,,,,
298207,2022-12-07_05h37.24.002,vts_reward_expectancy_bt,2022.2.4,Win32,59.81934558,Chrome,1504,1003,,,,,0,1340,,,,,,,,,,,,,,,,,160,W,triangle,1,0,,,,,,,,,,,,,,,,repeat,number,numRpt,f,0.6506,Hi,,,,,,5,,,,,,,,high,27,0,27,0,1,,,,,,,,,
298207,2022-12-07_05h37.24.002,vts_reward_expectancy_bt,2022.2.4,Win32,59.81934558,Chrome,1504,1003,,,,,10,1350,,,,,,,,,,,,,,,,,174,D,star,1,0,,,,,,,,,,,,,,,,repeat,number,numRpt,f,0.5486,Lo,,,,,,5,,,,,,,,high,28,0,28,0,1,,,,,,,,,
298207,2022-12-07_05h37.24.002,vts_reward_expectancy_bt,2022.2.4,Win32,59.81934558,Chrome,1504,1003,,,,,0,1350,,,,,,,,,,,,,,,,,146,F,hexagon,1,0,,,,,,,,,,,,,,,,repeat,number,numRpt,d,0.6786,Hi,,,,,,5,,,,,,,,high,29,0,29,0,1,,,,,,,,,
298207,2022-12-07_05h37.24.002,vts_reward_expectancy_bt,2022.2.4,Win32,59.81934558,Chrome,1504,1003,,,,,1,1351,,,,,,,,,,,,,,,,,167,H,circle,1,0,,,,,,,,,,,,,,,,repeat,number,numRpt,f,0.6368,Lo,,,,,,5,,,,,,,,high,30,0,30,0,1,,,,,,,,,
298207,2022-12-07_05h37.24.002,vts_reward_expectancy_bt,2022.2.4,Win32,59.81934558,Chrome,1504,1003,,,,,0,1351,,,,,,,,,,,,,,,,,139,U,triangle,0,0,,,,,,,,,,,,,,,,switch,letter,NA,j,0.6294,Lo,,,,,,5,,,,,,,,high,31,0,31,0,1,,,,,,,,,
298207,2022-12-07_05h37.24.002,vts_reward_expectancy_bt,2022.2.4,Win32,59.81934558,Chrome,1504,1003,,,,,0,1351,,,,,,,,,,,,,,,,,160,B,triangle,1,1,,,,,,,,,,,,,,,,switch,number,numSwt,f,0.8637,Hi,,,,,,6,,,,,,space,0.7905,high,0,0,0,0,1,,,,,,,,,
298207,2022-12-07_05h37.24.002,vts_reward_expectancy_bt,2022.2.4,Win32,59.81934558,Chrome,1504,1003,,,,,0,1351,,,,,,,,,,,,,,,,,132,D,hexagon,1,0,,,,,,,,,,,,,,,,repeat,number,numRpt,d,0.6383,Hi,,,,,,6,,,,,,,,high,1,0,1,0,1,,,,,,,,,
298207,2022-12-07_05h37.24.002,vts_reward_expectancy_bt,2022.2.4,Win32,59.81934558,Chrome,1504,1003,,,,,1,1352,,,,,,,,,,,,,,,,,174,F,star,1,0,,,,,,,,,,,,,,,,repeat,number,numRpt,f,0.8307,Lo,,,,,,6,,,,,,,,high,2,0,2,0,1,,,,,,,,,
298207,2022-12-07_05h37.24.002,vts_reward_expectancy_bt,2022.2.4,Win32,59.81934558,Chrome,1504,1003,,,,,10,1362,,,,,,,,,,,,,,,,,139,W,circle,1,0,,,,,,,,,,,,,,,,repeat,number,numRpt,d,0.5966,Lo,,,,,,6,,,,,,,,high,3,0,3,0,1,,,,,,,,,
298207,2022-12-07_05h37.24.002,vts_reward_expectancy_bt,2022.2.4,Win32,59.81934558,Chrome,1504,1003,,,,,0,1362,,,,,,,,,,,,,,,,,125,S,triangle,1,0,,,,,,,,,,,,,,,,repeat,number,numRpt,d,0.5991,Hi,,,,,,6,,,,,,,,high,4,0,4,0,1,,,,,,,,,
