participant,date,expName,psychopyVersion,OS,frameRate,browser,xResolution,yResolution,key_resp.keys,key_resp.rt,training_resp.keys,training_resp.rt,points_trial,points_cumul,trainBlock,training.thisRepN,training.thisTrialN,training.thisN,training.thisIndex,training.ran,LTriangleOpac,LCircleOpac,LHexagonOpac,LStarOpac,RTriangleOpac,RCircleOpac,RHexagonOpac,RStarOpac,LShape_ID,RShape_ID,curr_topStim,curr_bottStim,curr_shape,acc,E1,target_resp_prac1.keys,target_resp_prac1.rt,pracBlock,task1_prac_trials.thisRepN,task1_prac_trials.thisTrialN,task1_prac_trials.thisN,task1_prac_trials.thisIndex,task1_prac_trials.ran,target_resp_prac2.keys,target_resp_prac2.rt,task2_praac_trials.thisRepN,task2_praac_trials.thisTrialN,task2_praac_trials.thisN,task2_praac_trials.thisIndex,task2_praac_trials.ran,alt,task,condition,target_resp.keys,target_resp.rt,rewCond,vts_practice_trials.thisRepN,vts_practice_trials.thisTrialN,vts_practice_trials.thisN,vts_practice_trials.thisIndex,vts_practice_trials.ran,blockNum,trials_norew.thisRepN,trials_norew.thisTrialN,trials_norew.thisN,trials_norew.thisIndex,trials_norew.ran,key_resp_2.keys,key_resp_2.rt,rewExpectancy,trials_rew.thisRepN,trials_rew.thisTrialN,trials_rew.thisN,trials_rew.thisIndex,trials_rew.ran,Q1,Q2,Q2_text,Q3,Q4,Q5_text,Q5,xRes,yRes
298228,2022-12-07_13h52.36.871,vts_reward_expectancy_bt,2022.2.4,Win32,59.17860102,Chrome,1536,960,,,,,,,,,,,,,,,,,,,,,,,,,,,,,,,,,,,,,,,,,,,,,,,,,,,,,,,,,,,,,,,,,,,,,,,,,,,,
298228,2022-12-07_13h52.36.871,vts_reward_expectancy_bt,2022.2.4,Win32,59.17860102,Chrome,1536,960,space,1.2866,,,,,,,,,,,,,,,,,,,,,,,,,,,,,,,,,,,,,,,,,,,,,,,,,,,,,,,,,,,,,,,,,,,,,,,,,,
298228,2022-12-07_13h52.36.871,vts_reward_expectancy_bt,2022.2.4,Win32,59.17860102,Chrome,1536,960,,,,,,,,,,,,,,,,,,,,,,,,,,,,,,,,,,,,,,,,,,,,,,,,,,,,,,,,,,,,,,,,,,,,,,,,,,,,
298228,2022-12-07_13h52.36.871,vts_reward_expectancy_bt,2022.2.4,Win32,59.17860102,Chrome,1536,960,,,l,4.7677,1,1,0,0,0,0,8,1,0,0,1,0,0,0,0,1,hexagon,star,,,,,,,,,,,,,,,,,,,,,,,,,,,,,,,,,,,,,,,,,,,,,,,,,,,,,,
298228,2022-12-07_13h52.36.871,vts_reward_expectancy_bt,2022.2.4,Win32,59.17860102,Chrome,1536,960,,,a,0.6522,1,2,0,0,1,1,10,1,0,0,0,1,0,1,0,0,star ,circle,,,,,,,,,,,,,,,,,,,,,,,,,,,,,,,,,,,,,,,,,,,,,,,,,,,,,,
298228,2022-12-07_13h52.36.871,vts_reward_expectancy_bt,2022.2.4,Win32,59.17860102,Chrome,1536,960,,,l,1.3363,1,3,0,0,2,2,7,1,0,0,1,0,0,1,0,0,hexagon,circle,,,,,,,,,,,,,,,,,,,,,,,,,,,,,,,,,,,,,,,,,,,,,,,,,,,,,,
298228,2022-12-07_13h52.36.871,vts_reward_expectancy_bt,2022.2.4,Win32,59.17860102,Chrome,1536,960,,,l,0.4192,10,13,0,0,3,3,9,1,0,0,0,1,1,0,0,0,star,triangle,,,,,,,,,,,,,,,,,,,,,,,,,,,,,,,,,,,,,,,,,,,,,,,,,,,,,,
298228,2022-12-07_13h52.36.871,vts_reward_expectancy_bt,2022.2.4,Win32,59.17860102,Chrome,1536,960,,,l,0.4342,10,23,0,0,4,4,3,1,0,1,0,0,1,0,0,0,circle,triangle,,,,,,,,,,,,,,,,,,,,,,,,,,,,,,,,,,,,,,,,,,,,,,,,,,,,,,
298228,2022-12-07_13h52.36.871,vts_reward_expectancy_bt,2022.2.4,Win32,59.17860102,Chrome,1536,960,,,a,0.6364,1,24,0,0,5,5,4,1,0,1,0,0,0,0,1,0,circle,hexagon,,,,,,,,,,,,,,,,,,,,,,,,,,,,,,,,,,,,,,,,,,,,,,,,,,,,,,
298228,2022-12-07_13h52.36.871,vts_reward_expectancy_bt,2022.2.4,Win32,59.17860102,Chrome,1536,960,,,l,0.3683,10,34,0,0,6,6,0,1,1,0,0,0,0,1,0,0,triangle,circle,,,,,,,,,,,,,,,,,,,,,,,,,,,,,,,,,,,,,,,,,,,,,,,,,,,,,,
298228,2022-12-07_13h52.36.871,vts_reward_expectancy_bt,2022.2.4,Win32,59.17860102,Chrome,1536,960,,,a,0.4361,1,35,0,0,7,7,5,1,0,1,0,0,0,0,0,1,circle,star,,,,,,,,,,,,,,,,,,,,,,,,,,,,,,,,,,,,,,,,,,,,,,,,,,,,,,
298228,2022-12-07_13h52.36.871,vts_reward_expectancy_bt,2022.2.4,Win32,59.17860102,Chrome,1536,960,,,l,0.4189,1,36,0,0,8,8,11,1,0,0,0,1,0,0,1,0,star,hexagon,,,,,,,,,,,,,,,,,,,,,,,,,,,,,,,,,,,,,,,,,,,,,,,,,,,,,,
298228,2022-12-07_13h52.36.871,vts_reward_expectancy_bt,2022.2.4,Win32,59.17860102,Chrome,1536,960,,,l,0.4181,1,37,0,0,9,9,1,1,1,0,0,0,0,0,1,0,triangle,hexagon,,,,,,,,,,,,,,,,,,,,,,,,,,,,,,,,,,,,,,,,,,,,,,,,,,,,,,
298228,2022-12-07_13h52.36.871,vts_reward_expectancy_bt,2022.2.4,Win32,59.17860102,Chrome,1536,960,,,l,0.4681,1,38,0,0,10,10,2,1,1,0,0,0,0,0,0,1,triangle,star,,,,,,,,,,,,,,,,,,,,,,,,,,,,,,,,,,,,,,,,,,,,,,,,,,,,,,
298228,2022-12-07_13h52.36.871,vts_reward_expectancy_bt,2022.2.4,Win32,59.17860102,Chrome,1536,960,,,a,0.486,1,39,0,0,11,11,6,1,0,0,1,0,1,0,0,0,hexagon,triangle,,,,,,,,,,,,,,,,,,,,,,,,,,,,,,,,,,,,,,,,,,,,,,,,,,,,,,
298228,2022-12-07_13h52.36.871,vts_reward_expectancy_bt,2022.2.4,Win32,59.17860102,Chrome,1536,960,,,l,0.6005,1,40,0,1,0,12,11,1,0,0,0,1,0,0,1,0,star,hexagon,,,,,,,,,,,,,,,,,,,,,,,,,,,,,,,,,,,,,,,,,,,,,,,,,,,,,,
298228,2022-12-07_13h52.36.871,vts_reward_expectancy_bt,2022.2.4,Win32,59.17860102,Chrome,1536,960,,,l,0.2498,1,41,0,1,1,13,1,1,1,0,0,0,0,0,1,0,triangle,hexagon,,,,,,,,,,,,,,,,,,,,,,,,,,,,,,,,,,,,,,,,,,,,,,,,,,,,,,
298228,2022-12-07_13h52.36.871,vts_reward_expectancy_bt,2022.2.4,Win32,59.17860102,Chrome,1536,960,,,l,0.383,1,42,0,1,2,14,8,1,0,0,1,0,0,0,0,1,hexagon,star,,,,,,,,,,,,,,,,,,,,,,,,,,,,,,,,,,,,,,,,,,,,,,,,,,,,,,
298228,2022-12-07_13h52.36.871,vts_reward_expectancy_bt,2022.2.4,Win32,59.17860102,Chrome,1536,960,,,l,0.6518,10,52,0,1,3,15,0,1,1,0,0,0,0,1,0,0,triangle,circle,,,,,,,,,,,,,,,,,,,,,,,,,,,,,,,,,,,,,,,,,,,,,,,,,,,,,,
298228,2022-12-07_13h52.36.871,vts_reward_expectancy_bt,2022.2.4,Win32,59.17860102,Chrome,1536,960,,,l,0.4717,1,53,0,1,4,16,5,1,0,1,0,0,0,0,0,1,circle,star,,,,,,,,,,,,,,,,,,,,,,,,,,,,,,,,,,,,,,,,,,,,,,,,,,,,,,
298228,2022-12-07_13h52.36.871,vts_reward_expectancy_bt,2022.2.4,Win32,59.17860102,Chrome,1536,960,,,l,0.5352,10,63,0,1,5,17,6,1,0,0,1,0,1,0,0,0,hexagon,triangle,,,,,,,,,,,,,,,,,,,,,,,,,,,,,,,,,,,,,,,,,,,,,,,,,,,,,,
298228,2022-12-07_13h52.36.871,vts_reward_expectancy_bt,2022.2.4,Win32,59.17860102,Chrome,1536,960,,,l,0.518,10,73,0,1,6,18,3,1,0,1,0,0,1,0,0,0,circle,triangle,,,,,,,,,,,,,,,,,,,,,,,,,,,,,,,,,,,,,,,,,,,,,,,,,,,,,,
298228,2022-12-07_13h52.36.871,vts_reward_expectancy_bt,2022.2.4,Win32,59.17860102,Chrome,1536,960,,,l,0.4023,10,83,0,1,7,19,7,1,0,0,1,0,0,1,0,0,hexagon,circle,,,,,,,,,,,,,,,,,,,,,,,,,,,,,,,,,,,,,,,,,,,,,,,,,,,,,,
298228,2022-12-07_13h52.36.871,vts_reward_expectancy_bt,2022.2.4,Win32,59.17860102,Chrome,1536,960,,,l,0.2683,1,84,0,1,8,20,9,1,0,0,0,1,1,0,0,0,star,triangle,,,,,,,,,,,,,,,,,,,,,,,,,,,,,,,,,,,,,,,,,,,,,,,,,,,,,,
298228,2022-12-07_13h52.36.871,vts_reward_expectancy_bt,2022.2.4,Win32,59.17860102,Chrome,1536,960,,,a,0.8022,10,94,0,1,9,21,4,1,0,1,0,0,0,0,1,0,circle,hexagon,,,,,,,,,,,,,,,,,,,,,,,,,,,,,,,,,,,,,,,,,,,,,,,,,,,,,,
298228,2022-12-07_13h52.36.871,vts_reward_expectancy_bt,2022.2.4,Win32,59.17860102,Chrome,1536,960,,,l,0.4132,10,104,0,1,10,22,10,1,0,0,0,1,0,1,0,0,star ,circle,,,,,,,,,,,,,,,,,,,,,,,,,,,,,,,,,,,,,,,,,,,,,,,,,,,,,,
298228,2022-12-07_13h52.36.871,vts_reward_expectancy_bt,2022.2.4,Win32,59.17860102,Chrome,1536,960,,,a,0.3042,10,114,0,1,11,23,2,1,1,0,0,0,0,0,0,1,triangle,star,,,,,,,,,,,,,,,,,,,,,,,,,,,,,,,,,,,,,,,,,,,,,,,,,,,,,,
298228,2022-12-07_13h52.36.871,vts_reward_expectancy_bt,2022.2.4,Win32,59.17860102,Chrome,1536,960,,,a,0.3697,10,124,0,2,0,24,11,1,0,0,0,1,0,0,1,0,star,hexagon,,,,,,,,,,,,,,,,,,,,,,,,,,,,,,,,,,,,,,,,,,,,,,,,,,,,,,
298228,2022-12-07_13h52.36.871,vts_reward_expectancy_bt,2022.2.4,Win32,59.17860102,Chrome,1536,960,,,a,0.5354,10,134,0,2,1,25,6,1,0,0,1,0,1,0,0,0,hexagon,triangle,,,,,,,,,,,,,,,,,,,,,,,,,,,,,,,,,,,,,,,,,,,,,,,,,,,,,,
298228,2022-12-07_13h52.36.871,vts_reward_expectancy_bt,2022.2.4,Win32,59.17860102,Chrome,1536,960,,,l,0.2531,1,135,0,2,2,26,4,1,0,1,0,0,0,0,1,0,circle,hexagon,,,,,,,,,,,,,,,,,,,,,,,,,,,,,,,,,,,,,,,,,,,,,,,,,,,,,,
298228,2022-12-07_13h52.36.871,vts_reward_expectancy_bt,2022.2.4,Win32,59.17860102,Chrome,1536,960,,,a,0.2562,1,136,0,2,3,27,0,1,1,0,0,0,0,1,0,0,triangle,circle,,,,,,,,,,,,,,,,,,,,,,,,,,,,,,,,,,,,,,,,,,,,,,,,,,,,,,
298228,2022-12-07_13h52.36.871,vts_reward_expectancy_bt,2022.2.4,Win32,59.17860102,Chrome,1536,960,,,a,0.3016,1,137,0,2,4,28,10,1,0,0,0,1,0,1,0,0,star ,circle,,,,,,,,,,,,,,,,,,,,,,,,,,,,,,,,,,,,,,,,,,,,,,,,,,,,,,
298228,2022-12-07_13h52.36.871,vts_reward_expectancy_bt,2022.2.4,Win32,59.17860102,Chrome,1536,960,,,a,0.3051,10,147,0,2,5,29,2,1,1,0,0,0,0,0,0,1,triangle,star,,,,,,,,,,,,,,,,,,,,,,,,,,,,,,,,,,,,,,,,,,,,,,,,,,,,,,
298228,2022-12-07_13h52.36.871,vts_reward_expectancy_bt,2022.2.4,Win32,59.17860102,Chrome,1536,960,,,a,0.2843,10,157,0,2,6,30,3,1,0,1,0,0,1,0,0,0,circle,triangle,,,,,,,,,,,,,,,,,,,,,,,,,,,,,,,,,,,,,,,,,,,,,,,,,,,,,,
298228,2022-12-07_13h52.36.871,vts_reward_expectancy_bt,2022.2.4,Win32,59.17860102,Chrome,1536,960,,,a,0.3051,10,167,0,2,7,31,9,1,0,0,0,1,1,0,0,0,star,triangle,,,,,,,,,,,,,,,,,,,,,,,,,,,,,,,,,,,,,,,,,,,,,,,,,,,,,,
298228,2022-12-07_13h52.36.871,vts_reward_expectancy_bt,2022.2.4,Win32,59.17860102,Chrome,1536,960,,,a,0.3854,1,168,0,2,8,32,5,1,0,1,0,0,0,0,0,1,circle,star,,,,,,,,,,,,,,,,,,,,,,,,,,,,,,,,,,,,,,,,,,,,,,,,,,,,,,
298228,2022-12-07_13h52.36.871,vts_reward_expectancy_bt,2022.2.4,Win32,59.17860102,Chrome,1536,960,,,l,0.2512,10,178,0,2,9,33,8,1,0,0,1,0,0,0,0,1,hexagon,star,,,,,,,,,,,,,,,,,,,,,,,,,,,,,,,,,,,,,,,,,,,,,,,,,,,,,,
298228,2022-12-07_13h52.36.871,vts_reward_expectancy_bt,2022.2.4,Win32,59.17860102,Chrome,1536,960,,,l,0.2346,10,188,0,2,10,34,1,1,1,0,0,0,0,0,1,0,triangle,hexagon,,,,,,,,,,,,,,,,,,,,,,,,,,,,,,,,,,,,,,,,,,,,,,,,,,,,,,
298228,2022-12-07_13h52.36.871,vts_reward_expectancy_bt,2022.2.4,Win32,59.17860102,Chrome,1536,960,,,l,0.4154,10,198,0,2,11,35,7,1,0,0,1,0,0,1,0,0,hexagon,circle,,,,,,,,,,,,,,,,,,,,,,,,,,,,,,,,,,,,,,,,,,,,,,,,,,,,,,
298228,2022-12-07_13h52.36.871,vts_reward_expectancy_bt,2022.2.4,Win32,59.17860102,Chrome,1536,960,,,l,0.7528,10,208,1,0,0,0,0,1,1,0,0,0,0,1,0,0,triangle,circle,,,,,,,,,,,,,,,,,,,,,,,,,,,,,,,,,,,,,,,,,,,,,,,,,,,,,,
298228,2022-12-07_13h52.36.871,vts_reward_expectancy_bt,2022.2.4,Win32,59.17860102,Chrome,1536,960,,,l,0.3861,10,218,1,0,1,1,8,1,0,0,1,0,0,0,0,1,hexagon,star,,,,,,,,,,,,,,,,,,,,,,,,,,,,,,,,,,,,,,,,,,,,,,,,,,,,,,
298228,2022-12-07_13h52.36.871,vts_reward_expectancy_bt,2022.2.4,Win32,59.17860102,Chrome,1536,960,,,l,0.5347,1,219,1,0,2,2,5,1,0,1,0,0,0,0,0,1,circle,star,,,,,,,,,,,,,,,,,,,,,,,,,,,,,,,,,,,,,,,,,,,,,,,,,,,,,,
298228,2022-12-07_13h52.36.871,vts_reward_expectancy_bt,2022.2.4,Win32,59.17860102,Chrome,1536,960,,,l,0.455,1,220,1,0,3,3,3,1,0,1,0,0,1,0,0,0,circle,triangle,,,,,,,,,,,,,,,,,,,,,,,,,,,,,,,,,,,,,,,,,,,,,,,,,,,,,,
298228,2022-12-07_13h52.36.871,vts_reward_expectancy_bt,2022.2.4,Win32,59.17860102,Chrome,1536,960,,,l,0.5686,10,230,1,0,4,4,6,1,0,0,1,0,1,0,0,0,hexagon,triangle,,,,,,,,,,,,,,,,,,,,,,,,,,,,,,,,,,,,,,,,,,,,,,,,,,,,,,
298228,2022-12-07_13h52.36.871,vts_reward_expectancy_bt,2022.2.4,Win32,59.17860102,Chrome,1536,960,,,l,0.3687,10,240,1,0,5,5,11,1,0,0,0,1,0,0,1,0,star,hexagon,,,,,,,,,,,,,,,,,,,,,,,,,,,,,,,,,,,,,,,,,,,,,,,,,,,,,,
298228,2022-12-07_13h52.36.871,vts_reward_expectancy_bt,2022.2.4,Win32,59.17860102,Chrome,1536,960,,,l,0.3184,1,241,1,0,6,6,1,1,1,0,0,0,0,0,1,0,triangle,hexagon,,,,,,,,,,,,,,,,,,,,,,,,,,,,,,,,,,,,,,,,,,,,,,,,,,,,,,
298228,2022-12-07_13h52.36.871,vts_reward_expectancy_bt,2022.2.4,Win32,59.17860102,Chrome,1536,960,,,a,0.335,1,242,1,0,7,7,4,1,0,1,0,0,0,0,1,0,circle,hexagon,,,,,,,,,,,,,,,,,,,,,,,,,,,,,,,,,,,,,,,,,,,,,,,,,,,,,,
298228,2022-12-07_13h52.36.871,vts_reward_expectancy_bt,2022.2.4,Win32,59.17860102,Chrome,1536,960,,,a,0.3393,1,243,1,0,8,8,2,1,1,0,0,0,0,0,0,1,triangle,star,,,,,,,,,,,,,,,,,,,,,,,,,,,,,,,,,,,,,,,,,,,,,,,,,,,,,,
298228,2022-12-07_13h52.36.871,vts_reward_expectancy_bt,2022.2.4,Win32,59.17860102,Chrome,1536,960,,,a,0.1182,1,244,1,0,9,9,9,1,0,0,0,1,1,0,0,0,star,triangle,,,,,,,,,,,,,,,,,,,,,,,,,,,,,,,,,,,,,,,,,,,,,,,,,,,,,,
298228,2022-12-07_13h52.36.871,vts_reward_expectancy_bt,2022.2.4,Win32,59.17860102,Chrome,1536,960,,,a,0.5683,1,245,1,0,10,10,10,1,0,0,0,1,0,1,0,0,star ,circle,,,,,,,,,,,,,,,,,,,,,,,,,,,,,,,,,,,,,,,,,,,,,,,,,,,,,,
298228,2022-12-07_13h52.36.871,vts_reward_expectancy_bt,2022.2.4,Win32,59.17860102,Chrome,1536,960,,,l,0.5855,10,255,1,0,11,11,7,1,0,0,1,0,0,1,0,0,hexagon,circle,,,,,,,,,,,,,,,,,,,,,,,,,,,,,,,,,,,,,,,,,,,,,,,,,,,,,,
298228,2022-12-07_13h52.36.871,vts_reward_expectancy_bt,2022.2.4,Win32,59.17860102,Chrome,1536,960,,,a,0.8418,1,256,1,1,0,12,5,1,0,1,0,0,0,0,0,1,circle,star,,,,,,,,,,,,,,,,,,,,,,,,,,,,,,,,,,,,,,,,,,,,,,,,,,,,,,
298228,2022-12-07_13h52.36.871,vts_reward_expectancy_bt,2022.2.4,Win32,59.17860102,Chrome,1536,960,,,l,0.3536,1,257,1,1,1,13,3,1,0,1,0,0,1,0,0,0,circle,triangle,,,,,,,,,,,,,,,,,,,,,,,,,,,,,,,,,,,,,,,,,,,,,,,,,,,,,,
298228,2022-12-07_13h52.36.871,vts_reward_expectancy_bt,2022.2.4,Win32,59.17860102,Chrome,1536,960,,,a,0.4078,1,258,1,1,2,14,0,1,1,0,0,0,0,1,0,0,triangle,circle,,,,,,,,,,,,,,,,,,,,,,,,,,,,,,,,,,,,,,,,,,,,,,,,,,,,,,
298228,2022-12-07_13h52.36.871,vts_reward_expectancy_bt,2022.2.4,Win32,59.17860102,Chrome,1536,960,,,l,0.3668,1,259,1,1,3,15,8,1,0,0,1,0,0,0,0,1,hexagon,star,,,,,,,,,,,,,,,,,,,,,,,,,,,,,,,,,,,,,,,,,,,,,,,,,,,,,,
298228,2022-12-07_13h52.36.871,vts_reward_expectancy_bt,2022.2.4,Win32,59.17860102,Chrome,1536,960,,,l,0.3671,10,269,1,1,4,16,7,1,0,0,1,0,0,1,0,0,hexagon,circle,,,,,,,,,,,,,,,,,,,,,,,,,,,,,,,,,,,,,,,,,,,,,,,,,,,,,,
298228,2022-12-07_13h52.36.871,vts_reward_expectancy_bt,2022.2.4,Win32,59.17860102,Chrome,1536,960,,,a,0.3679,10,279,1,1,5,17,9,1,0,0,0,1,1,0,0,0,star,triangle,,,,,,,,,,,,,,,,,,,,,,,,,,,,,,,,,,,,,,,,,,,,,,,,,,,,,,
298228,2022-12-07_13h52.36.871,vts_reward_expectancy_bt,2022.2.4,Win32,59.17860102,Chrome,1536,960,,,a,0.4839,1,280,1,1,6,18,6,1,0,0,1,0,1,0,0,0,hexagon,triangle,,,,,,,,,,,,,,,,,,,,,,,,,,,,,,,,,,,,,,,,,,,,,,,,,,,,,,
298228,2022-12-07_13h52.36.871,vts_reward_expectancy_bt,2022.2.4,Win32,59.17860102,Chrome,1536,960,,,l,0.2513,1,281,1,1,7,19,1,1,1,0,0,0,0,0,1,0,triangle,hexagon,,,,,,,,,,,,,,,,,,,,,,,,,,,,,,,,,,,,,,,,,,,,,,,,,,,,,,
298228,2022-12-07_13h52.36.871,vts_reward_expectancy_bt,2022.2.4,Win32,59.17860102,Chrome,1536,960,,,l,0.7014,1,282,1,1,8,20,4,1,0,1,0,0,0,0,1,0,circle,hexagon,,,,,,,,,,,,,,,,,,,,,,,,,,,,,,,,,,,,,,,,,,,,,,,,,,,,,,
298228,2022-12-07_13h52.36.871,vts_reward_expectancy_bt,2022.2.4,Win32,59.17860102,Chrome,1536,960,,,l,0.3504,1,283,1,1,9,21,10,1,0,0,0,1,0,1,0,0,star ,circle,,,,,,,,,,,,,,,,,,,,,,,,,,,,,,,,,,,,,,,,,,,,,,,,,,,,,,
298228,2022-12-07_13h52.36.871,vts_reward_expectancy_bt,2022.2.4,Win32,59.17860102,Chrome,1536,960,,,a,0.6231,10,293,1,1,10,22,11,1,0,0,0,1,0,0,1,0,star,hexagon,,,,,,,,,,,,,,,,,,,,,,,,,,,,,,,,,,,,,,,,,,,,,,,,,,,,,,
298228,2022-12-07_13h52.36.871,vts_reward_expectancy_bt,2022.2.4,Win32,59.17860102,Chrome,1536,960,,,l,0.3324,10,303,1,1,11,23,2,1,1,0,0,0,0,0,0,1,triangle,star,,,,,,,,,,,,,,,,,,,,,,,,,,,,,,,,,,,,,,,,,,,,,,,,,,,,,,
298228,2022-12-07_13h52.36.871,vts_reward_expectancy_bt,2022.2.4,Win32,59.17860102,Chrome,1536,960,,,l,0.3841,1,304,1,2,0,24,2,1,1,0,0,0,0,0,0,1,triangle,star,,,,,,,,,,,,,,,,,,,,,,,,,,,,,,,,,,,,,,,,,,,,,,,,,,,,,,
298228,2022-12-07_13h52.36.871,vts_reward_expectancy_bt,2022.2.4,Win32,59.17860102,Chrome,1536,960,,,l,0.3007,10,314,1,2,1,25,6,1,0,0,1,0,1,0,0,0,hexagon,triangle,,,,,,,,,,,,,,,,,,,,,,,,,,,,,,,,,,,,,,,,,,,,,,,,,,,,,,
298228,2022-12-07_13h52.36.871,vts_reward_expectancy_bt,2022.2.4,Win32,59.17860102,Chrome,1536,960,,,a,0.284,1,315,1,2,2,26,7,1,0,0,1,0,0,1,0,0,hexagon,circle,,,,,,,,,,,,,,,,,,,,,,,,,,,,,,,,,,,,,,,,,,,,,,,,,,,,,,
298228,2022-12-07_13h52.36.871,vts_reward_expectancy_bt,2022.2.4,Win32,59.17860102,Chrome,1536,960,,,l,0.2419,10,325,1,2,3,27,1,1,1,0,0,0,0,0,1,0,triangle,hexagon,,,,,,,,,,,,,,,,,,,,,,,,,,,,,,,,,,,,,,,,,,,,,,,,,,,,,,
298228,2022-12-07_13h52.36.871,vts_reward_expectancy_bt,2022.2.4,Win32,59.17860102,Chrome,1536,960,,,l,0.251,1,326,1,2,4,28,5,1,0,1,0,0,0,0,0,1,circle,star,,,,,,,,,,,,,,,,,,,,,,,,,,,,,,,,,,,,,,,,,,,,,,,,,,,,,,
298228,2022-12-07_13h52.36.871,vts_reward_expectancy_bt,2022.2.4,Win32,59.17860102,Chrome,1536,960,,,a,0.7672,10,336,1,2,5,29,4,1,0,1,0,0,0,0,1,0,circle,hexagon,,,,,,,,,,,,,,,,,,,,,,,,,,,,,,,,,,,,,,,,,,,,,,,,,,,,,,
298228,2022-12-07_13h52.36.871,vts_reward_expectancy_bt,2022.2.4,Win32,59.17860102,Chrome,1536,960,,,a,0.3076,10,346,1,2,6,30,8,1,0,0,1,0,0,0,0,1,hexagon,star,,,,,,,,,,,,,,,,,,,,,,,,,,,,,,,,,,,,,,,,,,,,,,,,,,,,,,
298228,2022-12-07_13h52.36.871,vts_reward_expectancy_bt,2022.2.4,Win32,59.17860102,Chrome,1536,960,,,a,0.4357,10,356,1,2,7,31,10,1,0,0,0,1,0,1,0,0,star ,circle,,,,,,,,,,,,,,,,,,,,,,,,,,,,,,,,,,,,,,,,,,,,,,,,,,,,,,
298228,2022-12-07_13h52.36.871,vts_reward_expectancy_bt,2022.2.4,Win32,59.17860102,Chrome,1536,960,,,l,0.435,1,357,1,2,8,32,11,1,0,0,0,1,0,0,1,0,star,hexagon,,,,,,,,,,,,,,,,,,,,,,,,,,,,,,,,,,,,,,,,,,,,,,,,,,,,,,
298228,2022-12-07_13h52.36.871,vts_reward_expectancy_bt,2022.2.4,Win32,59.17860102,Chrome,1536,960,,,l,0.4012,1,358,1,2,9,33,3,1,0,1,0,0,1,0,0,0,circle,triangle,,,,,,,,,,,,,,,,,,,,,,,,,,,,,,,,,,,,,,,,,,,,,,,,,,,,,,
298228,2022-12-07_13h52.36.871,vts_reward_expectancy_bt,2022.2.4,Win32,59.17860102,Chrome,1536,960,,,l,0.4021,1,359,1,2,10,34,0,1,1,0,0,0,0,1,0,0,triangle,circle,,,,,,,,,,,,,,,,,,,,,,,,,,,,,,,,,,,,,,,,,,,,,,,,,,,,,,
298228,2022-12-07_13h52.36.871,vts_reward_expectancy_bt,2022.2.4,Win32,59.17860102,Chrome,1536,960,,,a,0.3679,10,369,1,2,11,35,9,1,0,0,0,1,1,0,0,0,star,triangle,,,,,,,,,,,,,,,,,,,,,,,,,,,,,,,,,,,,,,,,,,,,,,,,,,,,,,
298228,2022-12-07_13h52.36.871,vts_reward_expectancy_bt,2022.2.4,Win32,59.17860102,Chrome,1536,960,,,l,0.4321,1,370,2,0,0,0,1,1,1,0,0,0,0,0,1,0,triangle,hexagon,,,,,,,,,,,,,,,,,,,,,,,,,,,,,,,,,,,,,,,,,,,,,,,,,,,,,,
298228,2022-12-07_13h52.36.871,vts_reward_expectancy_bt,2022.2.4,Win32,59.17860102,Chrome,1536,960,,,a,0.3175,1,371,2,0,1,1,10,1,0,0,0,1,0,1,0,0,star ,circle,,,,,,,,,,,,,,,,,,,,,,,,,,,,,,,,,,,,,,,,,,,,,,,,,,,,,,
298228,2022-12-07_13h52.36.871,vts_reward_expectancy_bt,2022.2.4,Win32,59.17860102,Chrome,1536,960,,,a,0.4188,1,372,2,0,2,2,7,1,0,0,1,0,0,1,0,0,hexagon,circle,,,,,,,,,,,,,,,,,,,,,,,,,,,,,,,,,,,,,,,,,,,,,,,,,,,,,,
298228,2022-12-07_13h52.36.871,vts_reward_expectancy_bt,2022.2.4,Win32,59.17860102,Chrome,1536,960,,,a,0.4855,10,382,2,0,3,3,6,1,0,0,1,0,1,0,0,0,hexagon,triangle,,,,,,,,,,,,,,,,,,,,,,,,,,,,,,,,,,,,,,,,,,,,,,,,,,,,,,
298228,2022-12-07_13h52.36.871,vts_reward_expectancy_bt,2022.2.4,Win32,59.17860102,Chrome,1536,960,,,l,0.3745,10,392,2,0,4,4,2,1,1,0,0,0,0,0,0,1,triangle,star,,,,,,,,,,,,,,,,,,,,,,,,,,,,,,,,,,,,,,,,,,,,,,,,,,,,,,
298228,2022-12-07_13h52.36.871,vts_reward_expectancy_bt,2022.2.4,Win32,59.17860102,Chrome,1536,960,,,a,0.2983,10,402,2,0,5,5,0,1,1,0,0,0,0,1,0,0,triangle,circle,,,,,,,,,,,,,,,,,,,,,,,,,,,,,,,,,,,,,,,,,,,,,,,,,,,,,,
298228,2022-12-07_13h52.36.871,vts_reward_expectancy_bt,2022.2.4,Win32,59.17860102,Chrome,1536,960,,,a,0.4156,10,412,2,0,6,6,3,1,0,1,0,0,1,0,0,0,circle,triangle,,,,,,,,,,,,,,,,,,,,,,,,,,,,,,,,,,,,,,,,,,,,,,,,,,,,,,
298228,2022-12-07_13h52.36.871,vts_reward_expectancy_bt,2022.2.4,Win32,59.17860102,Chrome,1536,960,,,l,0.3512,1,413,2,0,7,7,11,1,0,0,0,1,0,0,1,0,star,hexagon,,,,,,,,,,,,,,,,,,,,,,,,,,,,,,,,,,,,,,,,,,,,,,,,,,,,,,
298228,2022-12-07_13h52.36.871,vts_reward_expectancy_bt,2022.2.4,Win32,59.17860102,Chrome,1536,960,,,l,0.2851,1,414,2,0,8,8,4,1,0,1,0,0,0,0,1,0,circle,hexagon,,,,,,,,,,,,,,,,,,,,,,,,,,,,,,,,,,,,,,,,,,,,,,,,,,,,,,
298228,2022-12-07_13h52.36.871,vts_reward_expectancy_bt,2022.2.4,Win32,59.17860102,Chrome,1536,960,,,a,0.3517,1,415,2,0,9,9,9,1,0,0,0,1,1,0,0,0,star,triangle,,,,,,,,,,,,,,,,,,,,,,,,,,,,,,,,,,,,,,,,,,,,,,,,,,,,,,
298228,2022-12-07_13h52.36.871,vts_reward_expectancy_bt,2022.2.4,Win32,59.17860102,Chrome,1536,960,,,l,0.803,1,416,2,0,10,10,8,1,0,0,1,0,0,0,0,1,hexagon,star,,,,,,,,,,,,,,,,,,,,,,,,,,,,,,,,,,,,,,,,,,,,,,,,,,,,,,
298228,2022-12-07_13h52.36.871,vts_reward_expectancy_bt,2022.2.4,Win32,59.17860102,Chrome,1536,960,,,l,0.3699,1,417,2,0,11,11,5,1,0,1,0,0,0,0,0,1,circle,star,,,,,,,,,,,,,,,,,,,,,,,,,,,,,,,,,,,,,,,,,,,,,,,,,,,,,,
298228,2022-12-07_13h52.36.871,vts_reward_expectancy_bt,2022.2.4,Win32,59.17860102,Chrome,1536,960,,,l,0.7051,10,427,2,1,0,12,9,1,0,0,0,1,1,0,0,0,star,triangle,,,,,,,,,,,,,,,,,,,,,,,,,,,,,,,,,,,,,,,,,,,,,,,,,,,,,,
298228,2022-12-07_13h52.36.871,vts_reward_expectancy_bt,2022.2.4,Win32,59.17860102,Chrome,1536,960,,,l,0.6517,1,428,2,1,1,13,8,1,0,0,1,0,0,0,0,1,hexagon,star,,,,,,,,,,,,,,,,,,,,,,,,,,,,,,,,,,,,,,,,,,,,,,,,,,,,,,
298228,2022-12-07_13h52.36.871,vts_reward_expectancy_bt,2022.2.4,Win32,59.17860102,Chrome,1536,960,,,a,0.6513,10,438,2,1,2,14,0,1,1,0,0,0,0,1,0,0,triangle,circle,,,,,,,,,,,,,,,,,,,,,,,,,,,,,,,,,,,,,,,,,,,,,,,,,,,,,,
298228,2022-12-07_13h52.36.871,vts_reward_expectancy_bt,2022.2.4,Win32,59.17860102,Chrome,1536,960,,,a,0.8023,1,439,2,1,3,15,2,1,1,0,0,0,0,0,0,1,triangle,star,,,,,,,,,,,,,,,,,,,,,,,,,,,,,,,,,,,,,,,,,,,,,,,,,,,,,,
298228,2022-12-07_13h52.36.871,vts_reward_expectancy_bt,2022.2.4,Win32,59.17860102,Chrome,1536,960,,,a,0.6192,1,440,2,1,4,16,11,1,0,0,0,1,0,0,1,0,star,hexagon,,,,,,,,,,,,,,,,,,,,,,,,,,,,,,,,,,,,,,,,,,,,,,,,,,,,,,
298228,2022-12-07_13h52.36.871,vts_reward_expectancy_bt,2022.2.4,Win32,59.17860102,Chrome,1536,960,,,a,0.802,10,450,2,1,5,17,4,1,0,1,0,0,0,0,1,0,circle,hexagon,,,,,,,,,,,,,,,,,,,,,,,,,,,,,,,,,,,,,,,,,,,,,,,,,,,,,,
298228,2022-12-07_13h52.36.871,vts_reward_expectancy_bt,2022.2.4,Win32,59.17860102,Chrome,1536,960,,,l,0.5524,1,451,2,1,6,18,3,1,0,1,0,0,1,0,0,0,circle,triangle,,,,,,,,,,,,,,,,,,,,,,,,,,,,,,,,,,,,,,,,,,,,,,,,,,,,,,
298228,2022-12-07_13h52.36.871,vts_reward_expectancy_bt,2022.2.4,Win32,59.17860102,Chrome,1536,960,,,a,0.3524,1,452,2,1,7,19,5,1,0,1,0,0,0,0,0,1,circle,star,,,,,,,,,,,,,,,,,,,,,,,,,,,,,,,,,,,,,,,,,,,,,,,,,,,,,,
298228,2022-12-07_13h52.36.871,vts_reward_expectancy_bt,2022.2.4,Win32,59.17860102,Chrome,1536,960,,,a,0.2587,10,462,2,1,8,20,1,1,1,0,0,0,0,0,1,0,triangle,hexagon,,,,,,,,,,,,,,,,,,,,,,,,,,,,,,,,,,,,,,,,,,,,,,,,,,,,,,
298228,2022-12-07_13h52.36.871,vts_reward_expectancy_bt,2022.2.4,Win32,59.17860102,Chrome,1536,960,,,a,0.3007,10,472,2,1,9,21,10,1,0,0,0,1,0,1,0,0,star ,circle,,,,,,,,,,,,,,,,,,,,,,,,,,,,,,,,,,,,,,,,,,,,,,,,,,,,,,
298228,2022-12-07_13h52.36.871,vts_reward_expectancy_bt,2022.2.4,Win32,59.17860102,Chrome,1536,960,,,a,0.235,1,473,2,1,10,22,7,1,0,0,1,0,0,1,0,0,hexagon,circle,,,,,,,,,,,,,,,,,,,,,,,,,,,,,,,,,,,,,,,,,,,,,,,,,,,,,,
298228,2022-12-07_13h52.36.871,vts_reward_expectancy_bt,2022.2.4,Win32,59.17860102,Chrome,1536,960,,,a,0.8693,10,483,2,1,11,23,6,1,0,0,1,0,1,0,0,0,hexagon,triangle,,,,,,,,,,,,,,,,,,,,,,,,,,,,,,,,,,,,,,,,,,,,,,,,,,,,,,
298228,2022-12-07_13h52.36.871,vts_reward_expectancy_bt,2022.2.4,Win32,59.17860102,Chrome,1536,960,,,a,0.4869,10,493,2,2,0,24,4,1,0,1,0,0,0,0,1,0,circle,hexagon,,,,,,,,,,,,,,,,,,,,,,,,,,,,,,,,,,,,,,,,,,,,,,,,,,,,,,
298228,2022-12-07_13h52.36.871,vts_reward_expectancy_bt,2022.2.4,Win32,59.17860102,Chrome,1536,960,,,a,0.4516,1,494,2,2,1,25,11,1,0,0,0,1,0,0,1,0,star,hexagon,,,,,,,,,,,,,,,,,,,,,,,,,,,,,,,,,,,,,,,,,,,,,,,,,,,,,,
298228,2022-12-07_13h52.36.871,vts_reward_expectancy_bt,2022.2.4,Win32,59.17860102,Chrome,1536,960,,,a,0.2691,10,504,2,2,2,26,2,1,1,0,0,0,0,0,0,1,triangle,star,,,,,,,,,,,,,,,,,,,,,,,,,,,,,,,,,,,,,,,,,,,,,,,,,,,,,,
298228,2022-12-07_13h52.36.871,vts_reward_expectancy_bt,2022.2.4,Win32,59.17860102,Chrome,1536,960,,,l,1.7202,1,505,2,2,3,27,3,1,0,1,0,0,1,0,0,0,circle,triangle,,,,,,,,,,,,,,,,,,,,,,,,,,,,,,,,,,,,,,,,,,,,,,,,,,,,,,
298228,2022-12-07_13h52.36.871,vts_reward_expectancy_bt,2022.2.4,Win32,59.17860102,Chrome,1536,960,,,l,0.4691,1,506,2,2,4,28,7,1,0,0,1,0,0,1,0,0,hexagon,circle,,,,,,,,,,,,,,,,,,,,,,,,,,,,,,,,,,,,,,,,,,,,,,,,,,,,,,
298228,2022-12-07_13h52.36.871,vts_reward_expectancy_bt,2022.2.4,Win32,59.17860102,Chrome,1536,960,,,l,0.404,1,507,2,2,5,29,5,1,0,1,0,0,0,0,0,1,circle,star,,,,,,,,,,,,,,,,,,,,,,,,,,,,,,,,,,,,,,,,,,,,,,,,,,,,,,
298228,2022-12-07_13h52.36.871,vts_reward_expectancy_bt,2022.2.4,Win32,59.17860102,Chrome,1536,960,,,l,0.478,1,508,2,2,6,30,10,1,0,0,0,1,0,1,0,0,star ,circle,,,,,,,,,,,,,,,,,,,,,,,,,,,,,,,,,,,,,,,,,,,,,,,,,,,,,,
298228,2022-12-07_13h52.36.871,vts_reward_expectancy_bt,2022.2.4,Win32,59.17860102,Chrome,1536,960,,,a,0.2504,1,509,2,2,7,31,6,1,0,0,1,0,1,0,0,0,hexagon,triangle,,,,,,,,,,,,,,,,,,,,,,,,,,,,,,,,,,,,,,,,,,,,,,,,,,,,,,
298228,2022-12-07_13h52.36.871,vts_reward_expectancy_bt,2022.2.4,Win32,59.17860102,Chrome,1536,960,,,a,0.2517,10,519,2,2,8,32,8,1,0,0,1,0,0,0,0,1,hexagon,star,,,,,,,,,,,,,,,,,,,,,,,,,,,,,,,,,,,,,,,,,,,,,,,,,,,,,,
298228,2022-12-07_13h52.36.871,vts_reward_expectancy_bt,2022.2.4,Win32,59.17860102,Chrome,1536,960,,,l,0.3385,10,529,2,2,9,33,1,1,1,0,0,0,0,0,1,0,triangle,hexagon,,,,,,,,,,,,,,,,,,,,,,,,,,,,,,,,,,,,,,,,,,,,,,,,,,,,,,
298228,2022-12-07_13h52.36.871,vts_reward_expectancy_bt,2022.2.4,Win32,59.17860102,Chrome,1536,960,,,l,0.2514,10,539,2,2,10,34,0,1,1,0,0,0,0,1,0,0,triangle,circle,,,,,,,,,,,,,,,,,,,,,,,,,,,,,,,,,,,,,,,,,,,,,,,,,,,,,,
298228,2022-12-07_13h52.36.871,vts_reward_expectancy_bt,2022.2.4,Win32,59.17860102,Chrome,1536,960,,,a,0.185,10,549,2,2,11,35,9,1,0,0,0,1,1,0,0,0,star,triangle,,,,,,,,,,,,,,,,,,,,,,,,,,,,,,,,,,,,,,,,,,,,,,,,,,,,,,
298228,2022-12-07_13h52.36.871,vts_reward_expectancy_bt,2022.2.4,Win32,59.17860102,Chrome,1536,960,,,,,,,,,,,,,,,,,,,,,,,F,174,star,1,0,d,0.7013,0,0,0,0,0,1,,,,,,,,,,,,,,,,,,,,,,,,,,,,,,,,,,,,,,,,,
298228,2022-12-07_13h52.36.871,vts_reward_expectancy_bt,2022.2.4,Win32,59.17860102,Chrome,1536,960,,,,,,,,,,,,,,,,,,,,,,,D,160,hexagon,1,0,d,0.6184,0,1,0,1,0,1,,,,,,,,,,,,,,,,,,,,,,,,,,,,,,,,,,,,,,,,,
298228,2022-12-07_13h52.36.871,vts_reward_expectancy_bt,2022.2.4,Win32,59.17860102,Chrome,1536,960,,,,,,,,,,,,,,,,,,,,,,,W,132,circle,1,0,f,0.702,0,2,0,2,0,1,,,,,,,,,,,,,,,,,,,,,,,,,,,,,,,,,,,,,,,,,
298228,2022-12-07_13h52.36.871,vts_reward_expectancy_bt,2022.2.4,Win32,59.17860102,Chrome,1536,960,,,,,,,,,,,,,,,,,,,,,,,Y,125,triangle,1,0,f,0.6214,0,3,0,3,0,1,,,,,,,,,,,,,,,,,,,,,,,,,,,,,,,,,,,,,,,,,
298228,2022-12-07_13h52.36.871,vts_reward_expectancy_bt,2022.2.4,Win32,59.17860102,Chrome,1536,960,,,,,,,,,,,,,,,,,,,,,,,B,167,star,1,0,d,0.4342,0,4,0,4,0,1,,,,,,,,,,,,,,,,,,,,,,,,,,,,,,,,,,,,,,,,,
298228,2022-12-07_13h52.36.871,vts_reward_expectancy_bt,2022.2.4,Win32,59.17860102,Chrome,1536,960,,,,,,,,,,,,,,,,,,,,,,,H,146,hexagon,1,0,d,0.6356,0,5,0,5,0,1,,,,,,,,,,,,,,,,,,,,,,,,,,,,,,,,,,,,,,,,,
298228,2022-12-07_13h52.36.871,vts_reward_expectancy_bt,2022.2.4,Win32,59.17860102,Chrome,1536,960,,,,,,,,,,,,,,,,,,,,,,,U,181,circle,1,0,f,0.537,0,6,0,6,0,1,,,,,,,,,,,,,,,,,,,,,,,,,,,,,,,,,,,,,,,,,
298228,2022-12-07_13h52.36.871,vts_reward_expectancy_bt,2022.2.4,Win32,59.17860102,Chrome,1536,960,,,,,,,,,,,,,,,,,,,,,,,S,139,triangle,1,0,f,0.5843,0,7,0,7,0,1,,,,,,,,,,,,,,,,,,,,,,,,,,,,,,,,,,,,,,,,,
298228,2022-12-07_13h52.36.871,vts_reward_expectancy_bt,2022.2.4,Win32,59.17860102,Chrome,1536,960,,,,,,,,,,,,,,,,,,,,,,,F,174,circle,1,0,d,1.0164,0,8,0,8,0,1,,,,,,,,,,,,,,,,,,,,,,,,,,,,,,,,,,,,,,,,,
298228,2022-12-07_13h52.36.871,vts_reward_expectancy_bt,2022.2.4,Win32,59.17860102,Chrome,1536,960,,,,,,,,,,,,,,,,,,,,,,,D,160,hexagon,1,0,d,0.5019,0,9,0,9,0,1,,,,,,,,,,,,,,,,,,,,,,,,,,,,,,,,,,,,,,,,,
298228,2022-12-07_13h52.36.871,vts_reward_expectancy_bt,2022.2.4,Win32,59.17860102,Chrome,1536,960,,,,,,,,,,,,,,,,,,,,,,,U,174,hexagon,1,0,,,1,,,,,,k,0.4352,0,0,0,0,1,,,,,,,,,,,,,,,,,,,,,,,,,,,,,,,,,,
298228,2022-12-07_13h52.36.871,vts_reward_expectancy_bt,2022.2.4,Win32,59.17860102,Chrome,1536,960,,,,,,,,,,,,,,,,,,,,,,,H,125,triangle,1,0,,,1,,,,,,j,0.4776,1,0,1,0,1,,,,,,,,,,,,,,,,,,,,,,,,,,,,,,,,,,
298228,2022-12-07_13h52.36.871,vts_reward_expectancy_bt,2022.2.4,Win32,59.17860102,Chrome,1536,960,,,,,,,,,,,,,,,,,,,,,,,W,146,circle,1,0,,,1,,,,,,j,0.523,2,0,2,0,1,,,,,,,,,,,,,,,,,,,,,,,,,,,,,,,,,,
298228,2022-12-07_13h52.36.871,vts_reward_expectancy_bt,2022.2.4,Win32,59.17860102,Chrome,1536,960,,,,,,,,,,,,,,,,,,,,,,,B,167,star,1,0,,,1,,,,,,k,0.4847,3,0,3,0,1,,,,,,,,,,,,,,,,,,,,,,,,,,,,,,,,,,
298228,2022-12-07_13h52.36.871,vts_reward_expectancy_bt,2022.2.4,Win32,59.17860102,Chrome,1536,960,,,,,,,,,,,,,,,,,,,,,,,D,139,hexagon,1,0,,,1,,,,,,j,0.7188,4,0,4,0,1,,,,,,,,,,,,,,,,,,,,,,,,,,,,,,,,,,
298228,2022-12-07_13h52.36.871,vts_reward_expectancy_bt,2022.2.4,Win32,59.17860102,Chrome,1536,960,,,,,,,,,,,,,,,,,,,,,,,F,132,triangle,1,0,,,1,,,,,,j,0.5347,5,0,5,0,1,,,,,,,,,,,,,,,,,,,,,,,,,,,,,,,,,,
298228,2022-12-07_13h52.36.871,vts_reward_expectancy_bt,2022.2.4,Win32,59.17860102,Chrome,1536,960,,,,,,,,,,,,,,,,,,,,,,,Y,181,circle,1,0,,,1,,,,,,k,0.5853,6,0,6,0,1,,,,,,,,,,,,,,,,,,,,,,,,,,,,,,,,,,
298228,2022-12-07_13h52.36.871,vts_reward_expectancy_bt,2022.2.4,Win32,59.17860102,Chrome,1536,960,,,,,,,,,,,,,,,,,,,,,,,S,160,star,1,0,,,1,,,,,,k,0.4507,7,0,7,0,1,,,,,,,,,,,,,,,,,,,,,,,,,,,,,,,,,,
298228,2022-12-07_13h52.36.871,vts_reward_expectancy_bt,2022.2.4,Win32,59.17860102,Chrome,1536,960,,,,,,,,,,,,,,,,,,,,,,,U,174,hexagon,1,0,,,1,,,,,,k,0.4692,8,0,8,0,1,,,,,,,,,,,,,,,,,,,,,,,,,,,,,,,,,,
298228,2022-12-07_13h52.36.871,vts_reward_expectancy_bt,2022.2.4,Win32,59.17860102,Chrome,1536,960,,,,,,,,,,,,,,,,,,,,,,,H,125,triangle,1,0,,,1,,,,,,j,0.471,9,0,9,0,1,,,,,,,,,,,,,,,,,,,,,,,,,,,,,,,,,,
298228,2022-12-07_13h52.36.871,vts_reward_expectancy_bt,2022.2.4,Win32,59.17860102,Chrome,1536,960,,,,,0,549,,,,,,,,,,,,,,,,,S,146,circle,1,0,,,2,,,,,,,,,,,,,-1,number,NA,j,0.551,vtsPrac,0,0,0,0,1,,,,,,,,,,,,,,,,,,,,,,,
298228,2022-12-07_13h52.36.871,vts_reward_expectancy_bt,2022.2.4,Win32,59.17860102,Chrome,1536,960,,,,,0,549,,,,,,,,,,,,,,,,,F,167,triangle,1,0,,,2,,,,,,,,,,,,,switch,letter,lettSwt,d,0.6172,vtsPrac,1,0,1,0,1,,,,,,,,,,,,,,,,,,,,,,,
298228,2022-12-07_13h52.36.871,vts_reward_expectancy_bt,2022.2.4,Win32,59.17860102,Chrome,1536,960,,,,,0,549,,,,,,,,,,,,,,,,,Y,125,circle,1,0,,,2,,,,,,,,,,,,,repeat,letter,lettRpt,f,0.5358,vtsPrac,2,0,2,0,1,,,,,,,,,,,,,,,,,,,,,,,
298228,2022-12-07_13h52.36.871,vts_reward_expectancy_bt,2022.2.4,Win32,59.17860102,Chrome,1536,960,,,,,0,549,,,,,,,,,,,,,,,,,B,132,triangle,1,0,,,2,,,,,,,,,,,,,switch,number,numSwt,j,0.6384,vtsPrac,3,0,3,0,1,,,,,,,,,,,,,,,,,,,,,,,
298228,2022-12-07_13h52.36.871,vts_reward_expectancy_bt,2022.2.4,Win32,59.17860102,Chrome,1536,960,,,,,0,549,,,,,,,,,,,,,,,,,S,146,circle,1,0,,,2,,,,,,,,,,,,,repeat,number,numRpt,j,0.4928,vtsPrac,4,0,4,0,1,,,,,,,,,,,,,,,,,,,,,,,
298228,2022-12-07_13h52.36.871,vts_reward_expectancy_bt,2022.2.4,Win32,59.17860102,Chrome,1536,960,,,,,0,549,,,,,,,,,,,,,,,,,F,167,hexagon,1,0,,,2,,,,,,,,,,,,,switch,letter,lettSwt,d,0.5848,vtsPrac,5,0,5,0,1,,,,,,,,,,,,,,,,,,,,,,,
298228,2022-12-07_13h52.36.871,vts_reward_expectancy_bt,2022.2.4,Win32,59.17860102,Chrome,1536,960,,,,,0,549,,,,,,,,,,,,,,,,,Y,125,hexagon,1,0,,,2,,,,,,,,,,,,,switch,number,numSwt,j,0.6386,vtsPrac,6,0,6,0,1,,,,,,,,,,,,,,,,,,,,,,,
298228,2022-12-07_13h52.36.871,vts_reward_expectancy_bt,2022.2.4,Win32,59.17860102,Chrome,1536,960,,,,,0,549,,,,,,,,,,,,,,,,,B,132,triangle,1,0,,,2,,,,,,,,,,,,,repeat,number,numRpt,j,0.5843,vtsPrac,7,0,7,0,1,,,,,,,,,,,,,,,,,,,,,,,
298228,2022-12-07_13h52.36.871,vts_reward_expectancy_bt,2022.2.4,Win32,59.17860102,Chrome,1536,960,,,,,0,549,,,,,,,,,,,,,,,,,W,125,triangle,0,0,,,2,,,,,,,,,,,,,switch,letter,NA,d,0.5669,vtsPrac,8,0,8,0,1,,,,,,,,,,,,,,,,,,,,,,,
298228,2022-12-07_13h52.36.871,vts_reward_expectancy_bt,2022.2.4,Win32,59.17860102,Chrome,1536,960,,,,,0,549,,,,,,,,,,,,,,,,,H,181,circle,1,1,,,2,,,,,,,,,,,,,repeat,letter,lettRpt,d,0.5517,vtsPrac,9,0,9,0,1,,,,,,,,,,,,,,,,,,,,,,,
298228,2022-12-07_13h52.36.871,vts_reward_expectancy_bt,2022.2.4,Win32,59.17860102,Chrome,1536,960,,,,,0,549,,,,,,,,,,,,,,,,,U,174,circle,1,0,,,2,,,,,,,,,,,,,switch,number,numSwt,k,0.6358,vtsPrac,10,0,10,0,1,,,,,,,,,,,,,,,,,,,,,,,
298228,2022-12-07_13h52.36.871,vts_reward_expectancy_bt,2022.2.4,Win32,59.17860102,Chrome,1536,960,,,,,0,549,,,,,,,,,,,,,,,,,S,132,star,1,0,,,2,,,,,,,,,,,,,repeat,number,numRpt,j,0.6034,vtsPrac,11,0,11,0,1,,,,,,,,,,,,,,,,,,,,,,,
298228,2022-12-07_13h52.36.871,vts_reward_expectancy_bt,2022.2.4,Win32,59.17860102,Chrome,1536,960,,,,,0,549,,,,,,,,,,,,,,,,,D,139,star,1,0,,,2,,,,,,,,,,,,,switch,letter,lettSwt,d,0.5238,vtsPrac,12,0,12,0,1,,,,,,,,,,,,,,,,,,,,,,,
298228,2022-12-07_13h52.36.871,vts_reward_expectancy_bt,2022.2.4,Win32,59.17860102,Chrome,1536,960,,,,,0,549,,,,,,,,,,,,,,,,,H,160,hexagon,1,0,,,2,,,,,,,,,,,,,repeat,letter,lettRpt,d,0.5023,vtsPrac,13,0,13,0,1,,,,,,,,,,,,,,,,,,,,,,,
298228,2022-12-07_13h52.36.871,vts_reward_expectancy_bt,2022.2.4,Win32,59.17860102,Chrome,1536,960,,,,,0,549,,,,,,,,,,,,,,,,,W,174,circle,1,0,,,2,,,,,,,,,,,,,switch,number,numSwt,k,0.4681,vtsPrac,14,0,14,0,1,,,,,,,,,,,,,,,,,,,,,,,
298228,2022-12-07_13h52.36.871,vts_reward_expectancy_bt,2022.2.4,Win32,59.17860102,Chrome,1536,960,,,,,0,549,,,,,,,,,,,,,,,,,B,181,triangle,1,0,,,2,,,,,,,,,,,,,repeat,number,numRpt,k,0.404,vtsPrac,15,0,15,0,1,,,,,,,,,,,,,,,,,,,,,,,
298228,2022-12-07_13h52.36.871,vts_reward_expectancy_bt,2022.2.4,Win32,59.17860102,Chrome,1536,960,,,,,0,549,,,,,,,,,,,,,,,,,B,146,triangle,1,0,,,2,,,,,,,,,,,,,switch,letter,lettSwt,d,0.4404,vtsPrac,16,0,16,0,1,,,,,,,,,,,,,,,,,,,,,,,
298228,2022-12-07_13h52.36.871,vts_reward_expectancy_bt,2022.2.4,Win32,59.17860102,Chrome,1536,960,,,,,0,549,,,,,,,,,,,,,,,,,U,174,star,1,0,,,2,,,,,,,,,,,,,repeat,letter,lettRpt,f,0.5578,vtsPrac,17,0,17,0,1,,,,,,,,,,,,,,,,,,,,,,,
298228,2022-12-07_13h52.36.871,vts_reward_expectancy_bt,2022.2.4,Win32,59.17860102,Chrome,1536,960,,,,,0,549,,,,,,,,,,,,,,,,,F,181,star,1,0,,,2,,,,,,,,,,,,,switch,number,numSwt,k,0.8183,vtsPrac,18,0,18,0,1,,,,,,,,,,,,,,,,,,,,,,,
298228,2022-12-07_13h52.36.871,vts_reward_expectancy_bt,2022.2.4,Win32,59.17860102,Chrome,1536,960,,,,,0,549,,,,,,,,,,,,,,,,,S,160,hexagon,1,0,,,2,,,,,,,,,,,,,repeat,number,numRpt,k,0.4685,vtsPrac,19,0,19,0,1,,,,,,,,,,,,,,,,,,,,,,,
298228,2022-12-07_13h52.36.871,vts_reward_expectancy_bt,2022.2.4,Win32,59.17860102,Chrome,1536,960,,,,,0,549,,,,,,,,,,,,,,,,,Y,181,hexagon,1,0,,,2,,,,,,,,,,,,,repeat,number,numRpt,k,0.6162,vtsPrac,20,0,20,0,1,,,,,,,,,,,,,,,,,,,,,,,
298228,2022-12-07_13h52.36.871,vts_reward_expectancy_bt,2022.2.4,Win32,59.17860102,Chrome,1536,960,,,,,0,549,,,,,,,,,,,,,,,,,W,146,star,1,0,,,2,,,,,,,,,,,,,repeat,number,numRpt,j,0.6835,vtsPrac,21,0,21,0,1,,,,,,,,,,,,,,,,,,,,,,,
298228,2022-12-07_13h52.36.871,vts_reward_expectancy_bt,2022.2.4,Win32,59.17860102,Chrome,1536,960,,,,,0,549,,,,,,,,,,,,,,,,,S,160,circle,1,0,,,2,,,,,,,,,,,,,repeat,number,numRpt,k,0.6842,vtsPrac,22,0,22,0,1,,,,,,,,,,,,,,,,,,,,,,,
298228,2022-12-07_13h52.36.871,vts_reward_expectancy_bt,2022.2.4,Win32,59.17860102,Chrome,1536,960,,,,,0,549,,,,,,,,,,,,,,,,,F,174,triangle,1,0,,,2,,,,,,,,,,,,,repeat,number,numRpt,k,0.5188,vtsPrac,23,0,23,0,1,,,,,,,,,,,,,,,,,,,,,,,
298228,2022-12-07_13h52.36.871,vts_reward_expectancy_bt,2022.2.4,Win32,59.17860102,Chrome,1536,960,,,,,0,549,,,,,,,,,,,,,,,,,U,181,hexagon,0,0,,,2,,,,,,,,,,,,,switch,letter,NA,d,1.0853,vtsPrac,24,0,24,0,1,,,,,,,,,,,,,,,,,,,,,,,
298228,2022-12-07_13h52.36.871,vts_reward_expectancy_bt,2022.2.4,Win32,59.17860102,Chrome,1536,960,,,,,0,549,,,,,,,,,,,,,,,,,D,146,star,1,1,,,2,,,,,,,,,,,,,repeat,letter,lettRpt,d,0.6017,vtsPrac,25,0,25,0,1,,,,,,,,,,,,,,,,,,,,,,,
298228,2022-12-07_13h52.36.871,vts_reward_expectancy_bt,2022.2.4,Win32,59.17860102,Chrome,1536,960,,,,,0,549,,,,,,,,,,,,,,,,,F,167,circle,1,0,,,2,,,,,,,,,,,,,repeat,letter,lettRpt,d,0.7358,vtsPrac,26,0,26,0,1,,,,,,,,,,,,,,,,,,,,,,,
298228,2022-12-07_13h52.36.871,vts_reward_expectancy_bt,2022.2.4,Win32,59.17860102,Chrome,1536,960,,,,,0,549,,,,,,,,,,,,,,,,,B,174,hexagon,1,0,,,2,,,,,,,,,,,,,repeat,letter,lettRpt,d,0.6847,vtsPrac,27,0,27,0,1,,,,,,,,,,,,,,,,,,,,,,,
298228,2022-12-07_13h52.36.871,vts_reward_expectancy_bt,2022.2.4,Win32,59.17860102,Chrome,1536,960,,,,,0,549,,,,,,,,,,,,,,,,,D,132,triangle,1,0,,,2,,,,,,,,,,,,,switch,number,numSwt,j,0.6733,vtsPrac,28,0,28,0,1,,,,,,,,,,,,,,,,,,,,,,,
298228,2022-12-07_13h52.36.871,vts_reward_expectancy_bt,2022.2.4,Win32,59.17860102,Chrome,1536,960,,,,,0,549,,,,,,,,,,,,,,,,,W,167,circle,1,0,,,2,,,,,,,,,,,,,repeat,number,numRpt,k,0.7011,vtsPrac,29,0,29,0,1,,,,,,,,,,,,,,,,,,,,,,,
298228,2022-12-07_13h52.36.871,vts_reward_expectancy_bt,2022.2.4,Win32,59.17860102,Chrome,1536,960,,,,,0,549,,,,,,,,,,,,,,,,,Y,146,circle,1,0,,,2,,,,,,,,,,,,,repeat,number,numRpt,j,0.9521,vtsPrac,30,0,30,0,1,,,,,,,,,,,,,,,,,,,,,,,
298228,2022-12-07_13h52.36.871,vts_reward_expectancy_bt,2022.2.4,Win32,59.17860102,Chrome,1536,960,,,,,0,549,,,,,,,,,,,,,,,,,U,139,triangle,1,0,,,2,,,,,,,,,,,,,switch,letter,lettSwt,f,0.7851,vtsPrac,31,0,31,0,1,,,,,,,,,,,,,,,,,,,,,,,
298228,2022-12-07_13h52.36.871,vts_reward_expectancy_bt,2022.2.4,Win32,59.17860102,Chrome,1536,960,,,,,,,,,,,,,,,,,,,,,,,,,,,,,,,,,,,,,,,,,,,,,,,,,,,,,,,,,,,,,,,,,,,,,,,,,,,,
298228,2022-12-07_13h52.36.871,vts_reward_expectancy_bt,2022.2.4,Win32,59.17860102,Chrome,1536,960,,,,,,,,,,,,,,,,,,,,,,,,,,,,,,,,,,,,,,,,,,,,,,,,,,,,,,,,,,,,,,,,,,,,,,,,,,,,
298228,2022-12-07_13h52.36.871,vts_reward_expectancy_bt,2022.2.4,Win32,59.17860102,Chrome,1536,960,,,,,0,549,,,,,,,,,,,,,,,,,B,125,hexagon,1,0,,,,,,,,,,,,,,,,repeat,letter,lettRpt,d,0.6001,noRew,,,,,,0,0,0,0,0,1,,,,,,,,,,,,,,,,,
298228,2022-12-07_13h52.36.871,vts_reward_expectancy_bt,2022.2.4,Win32,59.17860102,Chrome,1536,960,,,,,0,549,,,,,,,,,,,,,,,,,H,167,triangle,1,0,,,,,,,,,,,,,,,,switch,number,numSwt,k,0.4898,noRew,,,,,,0,1,0,1,0,1,,,,,,,,,,,,,,,,,
298228,2022-12-07_13h52.36.871,vts_reward_expectancy_bt,2022.2.4,Win32,59.17860102,Chrome,1536,960,,,,,0,549,,,,,,,,,,,,,,,,,Y,132,hexagon,1,0,,,,,,,,,,,,,,,,repeat,number,numRpt,j,0.652,noRew,,,,,,0,2,0,2,0,1,,,,,,,,,,,,,,,,,
298228,2022-12-07_13h52.36.871,vts_reward_expectancy_bt,2022.2.4,Win32,59.17860102,Chrome,1536,960,,,,,0,549,,,,,,,,,,,,,,,,,U,146,triangle,1,0,,,,,,,,,,,,,,,,switch,letter,lettSwt,f,0.758,noRew,,,,,,0,3,0,3,0,1,,,,,,,,,,,,,,,,,
298228,2022-12-07_13h52.36.871,vts_reward_expectancy_bt,2022.2.4,Win32,59.17860102,Chrome,1536,960,,,,,0,549,,,,,,,,,,,,,,,,,B,125,hexagon,1,0,,,,,,,,,,,,,,,,repeat,letter,lettRpt,d,0.5547,noRew,,,,,,0,4,0,4,0,1,,,,,,,,,,,,,,,,,
298228,2022-12-07_13h52.36.871,vts_reward_expectancy_bt,2022.2.4,Win32,59.17860102,Chrome,1536,960,,,,,0,549,,,,,,,,,,,,,,,,,H,167,triangle,0,0,,,,,,,,,,,,,,,,repeat,letter,NA,f,0.8246,noRew,,,,,,0,5,0,5,0,1,,,,,,,,,,,,,,,,,
298228,2022-12-07_13h52.36.871,vts_reward_expectancy_bt,2022.2.4,Win32,59.17860102,Chrome,1536,960,,,,,0,549,,,,,,,,,,,,,,,,,Y,132,triangle,1,1,,,,,,,,,,,,,,,,switch,number,numSwt,j,0.5022,noRew,,,,,,0,6,0,6,0,1,,,,,,,,,,,,,,,,,
298228,2022-12-07_13h52.36.871,vts_reward_expectancy_bt,2022.2.4,Win32,59.17860102,Chrome,1536,960,,,,,0,549,,,,,,,,,,,,,,,,,U,146,hexagon,1,0,,,,,,,,,,,,,,,,repeat,number,numRpt,j,0.5199,noRew,,,,,,0,7,0,7,0,1,,,,,,,,,,,,,,,,,
298228,2022-12-07_13h52.36.871,vts_reward_expectancy_bt,2022.2.4,Win32,59.17860102,Chrome,1536,960,,,,,0,549,,,,,,,,,,,,,,,,,F,146,hexagon,1,0,,,,,,,,,,,,,,,,switch,letter,lettSwt,d,0.9114,noRew,,,,,,0,8,0,8,0,1,,,,,,,,,,,,,,,,,
298228,2022-12-07_13h52.36.871,vts_reward_expectancy_bt,2022.2.4,Win32,59.17860102,Chrome,1536,960,,,,,0,549,,,,,,,,,,,,,,,,,H,181,triangle,1,0,,,,,,,,,,,,,,,,repeat,letter,lettRpt,d,0.5995,noRew,,,,,,0,9,0,9,0,1,,,,,,,,,,,,,,,,,
298228,2022-12-07_13h52.36.871,vts_reward_expectancy_bt,2022.2.4,Win32,59.17860102,Chrome,1536,960,,,,,0,549,,,,,,,,,,,,,,,,,W,160,triangle,1,0,,,,,,,,,,,,,,,,switch,number,numSwt,k,0.7044,noRew,,,,,,0,10,0,10,0,1,,,,,,,,,,,,,,,,,
298228,2022-12-07_13h52.36.871,vts_reward_expectancy_bt,2022.2.4,Win32,59.17860102,Chrome,1536,960,,,,,0,549,,,,,,,,,,,,,,,,,B,167,star,1,0,,,,,,,,,,,,,,,,repeat,number,numRpt,k,0.7182,noRew,,,,,,0,11,0,11,0,1,,,,,,,,,,,,,,,,,
298228,2022-12-07_13h52.36.871,vts_reward_expectancy_bt,2022.2.4,Win32,59.17860102,Chrome,1536,960,,,,,0,549,,,,,,,,,,,,,,,,,H,167,circle,1,0,,,,,,,,,,,,,,,,repeat,number,numRpt,k,0.5718,noRew,,,,,,0,12,0,12,0,1,,,,,,,,,,,,,,,,,
298228,2022-12-07_13h52.36.871,vts_reward_expectancy_bt,2022.2.4,Win32,59.17860102,Chrome,1536,960,,,,,0,549,,,,,,,,,,,,,,,,,D,146,star,1,0,,,,,,,,,,,,,,,,repeat,number,numRpt,j,0.7508,noRew,,,,,,0,13,0,13,0,1,,,,,,,,,,,,,,,,,
298228,2022-12-07_13h52.36.871,vts_reward_expectancy_bt,2022.2.4,Win32,59.17860102,Chrome,1536,960,,,,,0,549,,,,,,,,,,,,,,,,,S,139,star,1,0,,,,,,,,,,,,,,,,switch,letter,lettSwt,f,0.8179,noRew,,,,,,0,14,0,14,0,1,,,,,,,,,,,,,,,,,
298228,2022-12-07_13h52.36.871,vts_reward_expectancy_bt,2022.2.4,Win32,59.17860102,Chrome,1536,960,,,,,0,549,,,,,,,,,,,,,,,,,F,132,hexagon,1,0,,,,,,,,,,,,,,,,switch,number,numSwt,j,0.7024,noRew,,,,,,0,15,0,15,0,1,,,,,,,,,,,,,,,,,
298228,2022-12-07_13h52.36.871,vts_reward_expectancy_bt,2022.2.4,Win32,59.17860102,Chrome,1536,960,,,,,0,549,,,,,,,,,,,,,,,,,W,167,triangle,1,0,,,,,,,,,,,,,,,,switch,letter,lettSwt,f,0.5854,noRew,,,,,,0,16,0,16,0,1,,,,,,,,,,,,,,,,,
298228,2022-12-07_13h52.36.871,vts_reward_expectancy_bt,2022.2.4,Win32,59.17860102,Chrome,1536,960,,,,,0,549,,,,,,,,,,,,,,,,,U,125,hexagon,1,0,,,,,,,,,,,,,,,,repeat,letter,lettRpt,f,0.6715,noRew,,,,,,0,17,0,17,0,1,,,,,,,,,,,,,,,,,
298228,2022-12-07_13h52.36.871,vts_reward_expectancy_bt,2022.2.4,Win32,59.17860102,Chrome,1536,960,,,,,0,549,,,,,,,,,,,,,,,,,H,181,triangle,1,0,,,,,,,,,,,,,,,,repeat,letter,lettRpt,d,0.6856,noRew,,,,,,0,18,0,18,0,1,,,,,,,,,,,,,,,,,
298228,2022-12-07_13h52.36.871,vts_reward_expectancy_bt,2022.2.4,Win32,59.17860102,Chrome,1536,960,,,,,0,549,,,,,,,,,,,,,,,,,Y,132,circle,1,0,,,,,,,,,,,,,,,,switch,number,numSwt,j,0.7521,noRew,,,,,,0,19,0,19,0,1,,,,,,,,,,,,,,,,,
298228,2022-12-07_13h52.36.871,vts_reward_expectancy_bt,2022.2.4,Win32,59.17860102,Chrome,1536,960,,,,,0,549,,,,,,,,,,,,,,,,,Y,139,hexagon,1,0,,,,,,,,,,,,,,,,switch,letter,lettSwt,f,0.7849,noRew,,,,,,0,20,0,20,0,1,,,,,,,,,,,,,,,,,
298228,2022-12-07_13h52.36.871,vts_reward_expectancy_bt,2022.2.4,Win32,59.17860102,Chrome,1536,960,,,,,0,549,,,,,,,,,,,,,,,,,D,132,star,1,0,,,,,,,,,,,,,,,,repeat,letter,lettRpt,d,0.5185,noRew,,,,,,0,21,0,21,0,1,,,,,,,,,,,,,,,,,
298228,2022-12-07_13h52.36.871,vts_reward_expectancy_bt,2022.2.4,Win32,59.17860102,Chrome,1536,960,,,,,0,549,,,,,,,,,,,,,,,,,B,167,hexagon,1,0,,,,,,,,,,,,,,,,repeat,letter,lettRpt,d,0.6536,noRew,,,,,,0,22,0,22,0,1,,,,,,,,,,,,,,,,,
298228,2022-12-07_13h52.36.871,vts_reward_expectancy_bt,2022.2.4,Win32,59.17860102,Chrome,1536,960,,,,,0,549,,,,,,,,,,,,,,,,,W,125,star,1,0,,,,,,,,,,,,,,,,repeat,letter,lettRpt,f,0.8016,noRew,,,,,,0,23,0,23,0,1,,,,,,,,,,,,,,,,,
298228,2022-12-07_13h52.36.871,vts_reward_expectancy_bt,2022.2.4,Win32,59.17860102,Chrome,1536,960,,,,,0,549,,,,,,,,,,,,,,,,,U,125,triangle,-1,0,,,,,,,,,,,,,,,,switch,no_choice,NA,,,noRew,,,,,,0,24,0,24,0,1,,,,,,,,,,,,,,,,,
298228,2022-12-07_13h52.36.871,vts_reward_expectancy_bt,2022.2.4,Win32,59.17860102,Chrome,1536,960,,,,,0,549,,,,,,,,,,,,,,,,,W,146,star,0,0,,,,,,,,,,,,,,,,switch,letter,NA,d,1.2418,noRew,,,,,,0,25,0,25,0,1,,,,,,,,,,,,,,,,,
298228,2022-12-07_13h52.36.871,vts_reward_expectancy_bt,2022.2.4,Win32,59.17860102,Chrome,1536,960,,,,,0,549,,,,,,,,,,,,,,,,,Y,174,triangle,1,1,,,,,,,,,,,,,,,,repeat,letter,lettRpt,f,0.733,noRew,,,,,,0,26,0,26,0,1,,,,,,,,,,,,,,,,,
298228,2022-12-07_13h52.36.871,vts_reward_expectancy_bt,2022.2.4,Win32,59.17860102,Chrome,1536,960,,,,,0,549,,,,,,,,,,,,,,,,,F,167,hexagon,-1,0,,,,,,,,,,,,,,,,switch,no_choice,NA,,,noRew,,,,,,0,27,0,27,0,1,,,,,,,,,,,,,,,,,
298228,2022-12-07_13h52.36.871,vts_reward_expectancy_bt,2022.2.4,Win32,59.17860102,Chrome,1536,960,,,,,0,549,,,,,,,,,,,,,,,,,U,167,hexagon,1,0,,,,,,,,,,,,,,,,switch,letter,lettSwt,f,1.2638,noRew,,,,,,0,28,0,28,0,1,,,,,,,,,,,,,,,,,
298228,2022-12-07_13h52.36.871,vts_reward_expectancy_bt,2022.2.4,Win32,59.17860102,Chrome,1536,960,,,,,0,549,,,,,,,,,,,,,,,,,D,125,triangle,1,0,,,,,,,,,,,,,,,,repeat,letter,lettRpt,d,0.7344,noRew,,,,,,0,29,0,29,0,1,,,,,,,,,,,,,,,,,
298228,2022-12-07_13h52.36.871,vts_reward_expectancy_bt,2022.2.4,Win32,59.17860102,Chrome,1536,960,,,,,0,549,,,,,,,,,,,,,,,,,B,181,hexagon,1,0,,,,,,,,,,,,,,,,repeat,letter,lettRpt,d,0.5525,noRew,,,,,,0,30,0,30,0,1,,,,,,,,,,,,,,,,,
298228,2022-12-07_13h52.36.871,vts_reward_expectancy_bt,2022.2.4,Win32,59.17860102,Chrome,1536,960,,,,,0,549,,,,,,,,,,,,,,,,,H,146,triangle,1,0,,,,,,,,,,,,,,,,repeat,letter,lettRpt,d,0.5858,noRew,,,,,,0,31,0,31,0,1,,,,,,,,,,,,,,,,,
298228,2022-12-07_13h52.36.871,vts_reward_expectancy_bt,2022.2.4,Win32,59.17860102,Chrome,1536,960,,,,,0,549,,,,,,,,,,,,,,,,,Y,160,triangle,-1,0,,,,,,,,,,,,,,,,switch,no_choice,NA,,,noRew,,,,,,0,32,0,32,0,1,,,,,,,,,,,,,,,,,
298228,2022-12-07_13h52.36.871,vts_reward_expectancy_bt,2022.2.4,Win32,59.17860102,Chrome,1536,960,,,,,0,549,,,,,,,,,,,,,,,,,H,167,circle,-1,0,,,,,,,,,,,,,,,,repeat,no_choice,NA,,,noRew,,,,,,0,33,0,33,0,1,,,,,,,,,,,,,,,,,
298228,2022-12-07_13h52.36.871,vts_reward_expectancy_bt,2022.2.4,Win32,59.17860102,Chrome,1536,960,,,,,0,549,,,,,,,,,,,,,,,,,F,125,circle,1,0,,,,,,,,,,,,,,,,switch,letter,lettSwt,d,1.172,noRew,,,,,,0,34,0,34,0,1,,,,,,,,,,,,,,,,,
298228,2022-12-07_13h52.36.871,vts_reward_expectancy_bt,2022.2.4,Win32,59.17860102,Chrome,1536,960,,,,,0,549,,,,,,,,,,,,,,,,,B,174,hexagon,-1,0,,,,,,,,,,,,,,,,switch,no_choice,NA,,,noRew,,,,,,0,35,0,35,0,1,,,,,,,,,,,,,,,,,
298228,2022-12-07_13h52.36.871,vts_reward_expectancy_bt,2022.2.4,Win32,59.17860102,Chrome,1536,960,,,,,0,549,,,,,,,,,,,,,,,,,D,139,star,1,0,,,,,,,,,,,,,,,,switch,letter,lettSwt,d,0.7558,noRew,,,,,,0,36,0,36,0,1,,,,,,,,,,,,,,,,,
298228,2022-12-07_13h52.36.871,vts_reward_expectancy_bt,2022.2.4,Win32,59.17860102,Chrome,1536,960,,,,,0,549,,,,,,,,,,,,,,,,,B,181,hexagon,1,0,,,,,,,,,,,,,,,,repeat,letter,lettRpt,d,1.6166,noRew,,,,,,0,37,0,37,0,1,,,,,,,,,,,,,,,,,
298228,2022-12-07_13h52.36.871,vts_reward_expectancy_bt,2022.2.4,Win32,59.17860102,Chrome,1536,960,,,,,0,549,,,,,,,,,,,,,,,,,H,132,hexagon,1,0,,,,,,,,,,,,,,,,switch,number,numSwt,j,0.686,noRew,,,,,,0,38,0,38,0,1,,,,,,,,,,,,,,,,,
298228,2022-12-07_13h52.36.871,vts_reward_expectancy_bt,2022.2.4,Win32,59.17860102,Chrome,1536,960,,,,,0,549,,,,,,,,,,,,,,,,,W,174,triangle,1,0,,,,,,,,,,,,,,,,repeat,number,numRpt,k,0.8584,noRew,,,,,,0,39,0,39,0,1,,,,,,,,,,,,,,,,,
298228,2022-12-07_13h52.36.871,vts_reward_expectancy_bt,2022.2.4,Win32,59.17860102,Chrome,1536,960,,,,,0,549,,,,,,,,,,,,,,,,,D,181,hexagon,1,0,,,,,,,,,,,,,,,,repeat,number,numRpt,k,0.42,noRew,,,,,,0,40,0,40,0,1,,,,,,,,,,,,,,,,,
298228,2022-12-07_13h52.36.871,vts_reward_expectancy_bt,2022.2.4,Win32,59.17860102,Chrome,1536,960,,,,,0,549,,,,,,,,,,,,,,,,,B,125,circle,1,0,,,,,,,,,,,,,,,,switch,letter,lettSwt,d,0.5347,noRew,,,,,,0,41,0,41,0,1,,,,,,,,,,,,,,,,,
298228,2022-12-07_13h52.36.871,vts_reward_expectancy_bt,2022.2.4,Win32,59.17860102,Chrome,1536,960,,,,,0,549,,,,,,,,,,,,,,,,,F,174,star,1,0,,,,,,,,,,,,,,,,repeat,letter,lettRpt,d,0.6371,noRew,,,,,,0,42,0,42,0,1,,,,,,,,,,,,,,,,,
298228,2022-12-07_13h52.36.871,vts_reward_expectancy_bt,2022.2.4,Win32,59.17860102,Chrome,1536,960,,,,,0,549,,,,,,,,,,,,,,,,,Y,167,circle,-1,0,,,,,,,,,,,,,,,,switch,no_choice,NA,,,noRew,,,,,,0,43,0,43,0,1,,,,,,,,,,,,,,,,,
298228,2022-12-07_13h52.36.871,vts_reward_expectancy_bt,2022.2.4,Win32,59.17860102,Chrome,1536,960,,,,,0,549,,,,,,,,,,,,,,,,,S,139,hexagon,-1,0,,,,,,,,,,,,,,,,repeat,no_choice,NA,,,noRew,,,,,,0,44,0,44,0,1,,,,,,,,,,,,,,,,,
298228,2022-12-07_13h52.36.871,vts_reward_expectancy_bt,2022.2.4,Win32,59.17860102,Chrome,1536,960,,,,,0,549,,,,,,,,,,,,,,,,,B,125,circle,-1,0,,,,,,,,,,,,,,,,repeat,no_choice,NA,,,noRew,,,,,,0,45,0,45,0,1,,,,,,,,,,,,,,,,,
298228,2022-12-07_13h52.36.871,vts_reward_expectancy_bt,2022.2.4,Win32,59.17860102,Chrome,1536,960,,,,,0,549,,,,,,,,,,,,,,,,,Y,146,hexagon,-1,0,,,,,,,,,,,,,,,,repeat,no_choice,NA,,,noRew,,,,,,0,46,0,46,0,1,,,,,,,,,,,,,,,,,
298228,2022-12-07_13h52.36.871,vts_reward_expectancy_bt,2022.2.4,Win32,59.17860102,Chrome,1536,960,,,,,0,549,,,,,,,,,,,,,,,,,H,174,triangle,1,0,,,,,,,,,,,,,,,,switch,letter,lettSwt,d,0.6003,noRew,,,,,,0,47,0,47,0,1,,,,,,,,,,,,,,,,,
298228,2022-12-07_13h52.36.871,vts_reward_expectancy_bt,2022.2.4,Win32,59.17860102,Chrome,1536,960,,,,,0,549,,,,,,,,,,,,,,,,,Y,139,hexagon,-1,0,,,,,,,,,,,,,,,,switch,no_choice,NA,,,noRew,,,,,,0,48,0,48,0,1,,,,,,,,,,,,,,,,,
298228,2022-12-07_13h52.36.871,vts_reward_expectancy_bt,2022.2.4,Win32,59.17860102,Chrome,1536,960,,,,,0,549,,,,,,,,,,,,,,,,,W,167,triangle,1,0,,,,,,,,,,,,,,,,switch,number,numSwt,k,0.5846,noRew,,,,,,0,49,0,49,0,1,,,,,,,,,,,,,,,,,
298228,2022-12-07_13h52.36.871,vts_reward_expectancy_bt,2022.2.4,Win32,59.17860102,Chrome,1536,960,,,,,0,549,,,,,,,,,,,,,,,,,H,125,hexagon,1,0,,,,,,,,,,,,,,,,switch,letter,lettSwt,d,0.7095,noRew,,,,,,0,50,0,50,0,1,,,,,,,,,,,,,,,,,
298228,2022-12-07_13h52.36.871,vts_reward_expectancy_bt,2022.2.4,Win32,59.17860102,Chrome,1536,960,,,,,0,549,,,,,,,,,,,,,,,,,D,174,triangle,1,0,,,,,,,,,,,,,,,,switch,number,numSwt,k,0.9845,noRew,,,,,,0,51,0,51,0,1,,,,,,,,,,,,,,,,,
298228,2022-12-07_13h52.36.871,vts_reward_expectancy_bt,2022.2.4,Win32,59.17860102,Chrome,1536,960,,,,,0,549,,,,,,,,,,,,,,,,,H,146,circle,1,0,,,,,,,,,,,,,,,,switch,letter,lettSwt,d,0.6176,noRew,,,,,,0,52,0,52,0,1,,,,,,,,,,,,,,,,,
298228,2022-12-07_13h52.36.871,vts_reward_expectancy_bt,2022.2.4,Win32,59.17860102,Chrome,1536,960,,,,,0,549,,,,,,,,,,,,,,,,,W,167,triangle,1,0,,,,,,,,,,,,,,,,repeat,letter,lettRpt,f,0.8343,noRew,,,,,,0,53,0,53,0,1,,,,,,,,,,,,,,,,,
298228,2022-12-07_13h52.36.871,vts_reward_expectancy_bt,2022.2.4,Win32,59.17860102,Chrome,1536,960,,,,,0,549,,,,,,,,,,,,,,,,,S,181,triangle,1,0,,,,,,,,,,,,,,,,repeat,letter,lettRpt,f,0.5649,noRew,,,,,,0,54,0,54,0,1,,,,,,,,,,,,,,,,,
298228,2022-12-07_13h52.36.871,vts_reward_expectancy_bt,2022.2.4,Win32,59.17860102,Chrome,1536,960,,,,,0,549,,,,,,,,,,,,,,,,,U,139,hexagon,1,0,,,,,,,,,,,,,,,,repeat,letter,lettRpt,f,1.6672,noRew,,,,,,0,55,0,55,0,1,,,,,,,,,,,,,,,,,
298228,2022-12-07_13h52.36.871,vts_reward_expectancy_bt,2022.2.4,Win32,59.17860102,Chrome,1536,960,,,,,0,549,,,,,,,,,,,,,,,,,W,132,circle,-1,0,,,,,,,,,,,,,,,,switch,no_choice,NA,,,noRew,,,,,,0,56,0,56,0,1,,,,,,,,,,,,,,,,,
298228,2022-12-07_13h52.36.871,vts_reward_expectancy_bt,2022.2.4,Win32,59.17860102,Chrome,1536,960,,,,,0,549,,,,,,,,,,,,,,,,,S,181,hexagon,1,0,,,,,,,,,,,,,,,,switch,letter,lettSwt,f,1.586,noRew,,,,,,0,57,0,57,0,1,,,,,,,,,,,,,,,,,
298228,2022-12-07_13h52.36.871,vts_reward_expectancy_bt,2022.2.4,Win32,59.17860102,Chrome,1536,960,,,,,0,549,,,,,,,,,,,,,,,,,U,160,circle,1,0,,,,,,,,,,,,,,,,repeat,letter,lettRpt,f,1.3375,noRew,,,,,,0,58,0,58,0,1,,,,,,,,,,,,,,,,,
298228,2022-12-07_13h52.36.871,vts_reward_expectancy_bt,2022.2.4,Win32,59.17860102,Chrome,1536,960,,,,,0,549,,,,,,,,,,,,,,,,,B,125,triangle,-1,0,,,,,,,,,,,,,,,,switch,no_choice,NA,,,noRew,,,,,,0,59,0,59,0,1,,,,,,,,,,,,,,,,,
298228,2022-12-07_13h52.36.871,vts_reward_expectancy_bt,2022.2.4,Win32,59.17860102,Chrome,1536,960,,,,,0,549,,,,,,,,,,,,,,,,,Y,181,star,1,0,,,,,,,,,,,,,,,,switch,letter,lettSwt,f,0.6855,noRew,,,,,,0,60,0,60,0,1,,,,,,,,,,,,,,,,,
298228,2022-12-07_13h52.36.871,vts_reward_expectancy_bt,2022.2.4,Win32,59.17860102,Chrome,1536,960,,,,,0,549,,,,,,,,,,,,,,,,,D,160,triangle,1,0,,,,,,,,,,,,,,,,repeat,letter,lettRpt,d,0.7852,noRew,,,,,,0,61,0,61,0,1,,,,,,,,,,,,,,,,,
298228,2022-12-07_13h52.36.871,vts_reward_expectancy_bt,2022.2.4,Win32,59.17860102,Chrome,1536,960,,,,,0,549,,,,,,,,,,,,,,,,,H,146,triangle,1,0,,,,,,,,,,,,,,,,repeat,letter,lettRpt,d,0.7043,noRew,,,,,,0,62,0,62,0,1,,,,,,,,,,,,,,,,,
298228,2022-12-07_13h52.36.871,vts_reward_expectancy_bt,2022.2.4,Win32,59.17860102,Chrome,1536,960,,,,,0,549,,,,,,,,,,,,,,,,,B,174,circle,1,0,,,,,,,,,,,,,,,,repeat,letter,lettRpt,d,0.568,noRew,,,,,,0,63,0,63,0,1,,,,,,,,,,,,,,,,,
298228,2022-12-07_13h52.36.871,vts_reward_expectancy_bt,2022.2.4,Win32,59.17860102,Chrome,1536,960,,,,,,,,,,,,,,,,,,,,,,,,,,,,,,,,,,,,,,,,,,,,,,,,,,,,,,,,,,,,,,,,,,,,,,,,,,,,
298228,2022-12-07_13h52.36.871,vts_reward_expectancy_bt,2022.2.4,Win32,59.17860102,Chrome,1536,960,,,,,1,550,,,,,,,,,,,,,,,,,W,132,star,1,0,,,,,,,,,,,,,,,,repeat,letter,lettRpt,f,0.9178,Lo,,,,,,0,,,,,,space,4.6679,low,0,0,0,0,1,,,,,,,,,
298228,2022-12-07_13h52.36.871,vts_reward_expectancy_bt,2022.2.4,Win32,59.17860102,Chrome,1536,960,,,,,10,560,,,,,,,,,,,,,,,,,B,181,triangle,1,0,,,,,,,,,,,,,,,,switch,number,numSwt,k,0.4017,Hi,,,,,,0,,,,,,,,low,1,0,1,0,1,,,,,,,,,
298228,2022-12-07_13h52.36.871,vts_reward_expectancy_bt,2022.2.4,Win32,59.17860102,Chrome,1536,960,,,,,1,561,,,,,,,,,,,,,,,,,D,125,hexagon,1,0,,,,,,,,,,,,,,,,repeat,number,numRpt,j,0.6695,Lo,,,,,,0,,,,,,,,low,2,0,2,0,1,,,,,,,,,
298228,2022-12-07_13h52.36.871,vts_reward_expectancy_bt,2022.2.4,Win32,59.17860102,Chrome,1536,960,,,,,0,561,,,,,,,,,,,,,,,,,Y,167,circle,1,0,,,,,,,,,,,,,,,,repeat,number,numRpt,k,0.5714,Hi,,,,,,0,,,,,,,,low,3,0,3,0,1,,,,,,,,,
298228,2022-12-07_13h52.36.871,vts_reward_expectancy_bt,2022.2.4,Win32,59.17860102,Chrome,1536,960,,,,,10,571,,,,,,,,,,,,,,,,,H,146,star,1,0,,,,,,,,,,,,,,,,repeat,number,numRpt,j,0.3843,Lo,,,,,,0,,,,,,,,low,4,0,4,0,1,,,,,,,,,
298228,2022-12-07_13h52.36.871,vts_reward_expectancy_bt,2022.2.4,Win32,59.17860102,Chrome,1536,960,,,,,1,572,,,,,,,,,,,,,,,,,F,174,triangle,1,0,,,,,,,,,,,,,,,,switch,letter,lettSwt,d,0.6215,Hi,,,,,,0,,,,,,,,low,5,0,5,0,1,,,,,,,,,
298228,2022-12-07_13h52.36.871,vts_reward_expectancy_bt,2022.2.4,Win32,59.17860102,Chrome,1536,960,,,,,10,582,,,,,,,,,,,,,,,,,U,160,hexagon,1,0,,,,,,,,,,,,,,,,repeat,letter,lettRpt,f,1.4398,Lo,,,,,,0,,,,,,,,low,6,0,6,0,1,,,,,,,,,
298228,2022-12-07_13h52.36.871,vts_reward_expectancy_bt,2022.2.4,Win32,59.17860102,Chrome,1536,960,,,,,0,582,,,,,,,,,,,,,,,,,S,139,circle,1,0,,,,,,,,,,,,,,,,switch,number,numSwt,j,1.1703,Hi,,,,,,0,,,,,,,,low,7,0,7,0,1,,,,,,,,,
298228,2022-12-07_13h52.36.871,vts_reward_expectancy_bt,2022.2.4,Win32,59.17860102,Chrome,1536,960,,,,,10,592,,,,,,,,,,,,,,,,,W,132,hexagon,1,0,,,,,,,,,,,,,,,,repeat,number,numRpt,j,0.691,Lo,,,,,,0,,,,,,,,low,8,0,8,0,1,,,,,,,,,
298228,2022-12-07_13h52.36.871,vts_reward_expectancy_bt,2022.2.4,Win32,59.17860102,Chrome,1536,960,,,,,10,602,,,,,,,,,,,,,,,,,B,181,triangle,1,0,,,,,,,,,,,,,,,,switch,letter,lettSwt,d,0.6199,Hi,,,,,,0,,,,,,,,low,9,0,9,0,1,,,,,,,,,
298228,2022-12-07_13h52.36.871,vts_reward_expectancy_bt,2022.2.4,Win32,59.17860102,Chrome,1536,960,,,,,1,603,,,,,,,,,,,,,,,,,D,125,star,1,0,,,,,,,,,,,,,,,,repeat,letter,lettRpt,d,0.4357,Lo,,,,,,0,,,,,,,,low,10,0,10,0,1,,,,,,,,,
298228,2022-12-07_13h52.36.871,vts_reward_expectancy_bt,2022.2.4,Win32,59.17860102,Chrome,1536,960,,,,,0,603,,,,,,,,,,,,,,,,,Y,167,circle,1,0,,,,,,,,,,,,,,,,switch,number,numSwt,k,0.7018,Hi,,,,,,0,,,,,,,,low,11,0,11,0,1,,,,,,,,,
298228,2022-12-07_13h52.36.871,vts_reward_expectancy_bt,2022.2.4,Win32,59.17860102,Chrome,1536,960,,,,,1,604,,,,,,,,,,,,,,,,,H,146,triangle,1,0,,,,,,,,,,,,,,,,repeat,number,numRpt,j,0.5695,Hi,,,,,,0,,,,,,,,low,12,0,12,0,1,,,,,,,,,
298228,2022-12-07_13h52.36.871,vts_reward_expectancy_bt,2022.2.4,Win32,59.17860102,Chrome,1536,960,,,,,10,614,,,,,,,,,,,,,,,,,F,174,circle,1,0,,,,,,,,,,,,,,,,repeat,number,numRpt,k,0.452,Hi,,,,,,0,,,,,,,,low,13,0,13,0,1,,,,,,,,,
298228,2022-12-07_13h52.36.871,vts_reward_expectancy_bt,2022.2.4,Win32,59.17860102,Chrome,1536,960,,,,,10,624,,,,,,,,,,,,,,,,,U,160,hexagon,1,0,,,,,,,,,,,,,,,,switch,letter,lettSwt,f,0.5331,Lo,,,,,,0,,,,,,,,low,14,0,14,0,1,,,,,,,,,
298228,2022-12-07_13h52.36.871,vts_reward_expectancy_bt,2022.2.4,Win32,59.17860102,Chrome,1536,960,,,,,10,634,,,,,,,,,,,,,,,,,S,139,star,1,0,,,,,,,,,,,,,,,,switch,number,numSwt,j,0.6193,Lo,,,,,,0,,,,,,,,low,15,0,15,0,1,,,,,,,,,
298228,2022-12-07_13h52.36.871,vts_reward_expectancy_bt,2022.2.4,Win32,59.17860102,Chrome,1536,960,,,,,1,635,,,,,,,,,,,,,,,,,Y,132,hexagon,1,0,,,,,,,,,,,,,,,,switch,letter,lettSwt,f,0.6033,Lo,,,,,,0,,,,,,,,low,16,0,16,0,1,,,,,,,,,
298228,2022-12-07_13h52.36.871,vts_reward_expectancy_bt,2022.2.4,Win32,59.17860102,Chrome,1536,960,,,,,0,635,,,,,,,,,,,,,,,,,U,160,circle,1,0,,,,,,,,,,,,,,,,switch,number,numSwt,k,0.7838,Hi,,,,,,0,,,,,,,,low,17,0,17,0,1,,,,,,,,,
298228,2022-12-07_13h52.36.871,vts_reward_expectancy_bt,2022.2.4,Win32,59.17860102,Chrome,1536,960,,,,,10,645,,,,,,,,,,,,,,,,,B,167,triangle,1,0,,,,,,,,,,,,,,,,switch,letter,lettSwt,d,0.5695,Hi,,,,,,0,,,,,,,,low,18,0,18,0,1,,,,,,,,,
298228,2022-12-07_13h52.36.871,vts_reward_expectancy_bt,2022.2.4,Win32,59.17860102,Chrome,1536,960,,,,,1,646,,,,,,,,,,,,,,,,,S,146,star,1,0,,,,,,,,,,,,,,,,switch,number,numSwt,j,0.4378,Lo,,,,,,0,,,,,,,,low,19,0,19,0,1,,,,,,,,,
298228,2022-12-07_13h52.36.871,vts_reward_expectancy_bt,2022.2.4,Win32,59.17860102,Chrome,1536,960,,,,,0,646,,,,,,,,,,,,,,,,,W,181,circle,0,0,,,,,,,,,,,,,,,,switch,letter,NA,d,0.5517,Lo,,,,,,0,,,,,,,,low,20,0,20,0,1,,,,,,,,,
298228,2022-12-07_13h52.36.871,vts_reward_expectancy_bt,2022.2.4,Win32,59.17860102,Chrome,1536,960,,,,,10,656,,,,,,,,,,,,,,,,,D,139,hexagon,1,1,,,,,,,,,,,,,,,,repeat,letter,lettRpt,d,0.5517,Lo,,,,,,0,,,,,,,,low,21,0,21,0,1,,,,,,,,,
298228,2022-12-07_13h52.36.871,vts_reward_expectancy_bt,2022.2.4,Win32,59.17860102,Chrome,1536,960,,,,,10,666,,,,,,,,,,,,,,,,,F,174,triangle,1,0,,,,,,,,,,,,,,,,switch,number,numSwt,k,0.5372,Hi,,,,,,0,,,,,,,,low,22,0,22,0,1,,,,,,,,,
298228,2022-12-07_13h52.36.871,vts_reward_expectancy_bt,2022.2.4,Win32,59.17860102,Chrome,1536,960,,,,,10,676,,,,,,,,,,,,,,,,,H,125,star,1,0,,,,,,,,,,,,,,,,repeat,number,numRpt,j,0.6882,Lo,,,,,,0,,,,,,,,low,23,0,23,0,1,,,,,,,,,
298228,2022-12-07_13h52.36.871,vts_reward_expectancy_bt,2022.2.4,Win32,59.17860102,Chrome,1536,960,,,,,10,686,,,,,,,,,,,,,,,,,S,139,star,1,0,,,,,,,,,,,,,,,,repeat,number,numRpt,j,0.5587,Lo,,,,,,0,,,,,,,,low,24,0,24,0,1,,,,,,,,,
298228,2022-12-07_13h52.36.871,vts_reward_expectancy_bt,2022.2.4,Win32,59.17860102,Chrome,1536,960,,,,,10,696,,,,,,,,,,,,,,,,,W,146,hexagon,1,0,,,,,,,,,,,,,,,,switch,letter,lettSwt,f,0.8407,Lo,,,,,,0,,,,,,,,low,25,0,25,0,1,,,,,,,,,
298228,2022-12-07_13h52.36.871,vts_reward_expectancy_bt,2022.2.4,Win32,59.17860102,Chrome,1536,960,,,,,0,696,,,,,,,,,,,,,,,,,Y,167,triangle,1,0,,,,,,,,,,,,,,,,repeat,letter,lettRpt,f,0.6689,Hi,,,,,,0,,,,,,,,low,26,0,26,0,1,,,,,,,,,
298228,2022-12-07_13h52.36.871,vts_reward_expectancy_bt,2022.2.4,Win32,59.17860102,Chrome,1536,960,,,,,10,706,,,,,,,,,,,,,,,,,B,125,circle,1,0,,,,,,,,,,,,,,,,switch,number,numSwt,j,0.5686,Hi,,,,,,0,,,,,,,,low,27,0,27,0,1,,,,,,,,,
298228,2022-12-07_13h52.36.871,vts_reward_expectancy_bt,2022.2.4,Win32,59.17860102,Chrome,1536,960,,,,,1,707,,,,,,,,,,,,,,,,,U,132,hexagon,1,0,,,,,,,,,,,,,,,,repeat,number,numRpt,j,0.5893,Lo,,,,,,0,,,,,,,,low,28,0,28,0,1,,,,,,,,,
298228,2022-12-07_13h52.36.871,vts_reward_expectancy_bt,2022.2.4,Win32,59.17860102,Chrome,1536,960,,,,,1,708,,,,,,,,,,,,,,,,,H,160,triangle,1,0,,,,,,,,,,,,,,,,switch,letter,lettSwt,d,0.5899,Hi,,,,,,0,,,,,,,,low,29,0,29,0,1,,,,,,,,,
298228,2022-12-07_13h52.36.871,vts_reward_expectancy_bt,2022.2.4,Win32,59.17860102,Chrome,1536,960,,,,,1,709,,,,,,,,,,,,,,,,,F,181,star,1,0,,,,,,,,,,,,,,,,switch,number,numSwt,k,0.5933,Lo,,,,,,0,,,,,,,,low,30,0,30,0,1,,,,,,,,,
298228,2022-12-07_13h52.36.871,vts_reward_expectancy_bt,2022.2.4,Win32,59.17860102,Chrome,1536,960,,,,,1,710,,,,,,,,,,,,,,,,,D,174,circle,1,0,,,,,,,,,,,,,,,,repeat,number,numRpt,k,0.5037,Hi,,,,,,0,,,,,,,,low,31,0,31,0,1,,,,,,,,,
298228,2022-12-07_13h52.36.871,vts_reward_expectancy_bt,2022.2.4,Win32,59.17860102,Chrome,1536,960,,,,,0,710,,,,,,,,,,,,,,,,,F,125,triangle,1,0,,,,,,,,,,,,,,,,repeat,number,numRpt,j,0.8349,Hi,,,,,,1,,,,,,space,0.9522,low,0,0,0,0,1,,,,,,,,,
298228,2022-12-07_13h52.36.871,vts_reward_expectancy_bt,2022.2.4,Win32,59.17860102,Chrome,1536,960,,,,,0,710,,,,,,,,,,,,,,,,,B,146,circle,1,0,,,,,,,,,,,,,,,,switch,letter,lettSwt,d,0.6605,Hi,,,,,,1,,,,,,,,low,1,0,1,0,1,,,,,,,,,
298228,2022-12-07_13h52.36.871,vts_reward_expectancy_bt,2022.2.4,Win32,59.17860102,Chrome,1536,960,,,,,0,710,,,,,,,,,,,,,,,,,D,139,hexagon,0,0,,,,,,,,,,,,,,,,switch,number,NA,k,0.39,Hi,,,,,,1,,,,,,,,low,2,0,2,0,1,,,,,,,,,
298228,2022-12-07_13h52.36.871,vts_reward_expectancy_bt,2022.2.4,Win32,59.17860102,Chrome,1536,960,,,,,1,711,,,,,,,,,,,,,,,,,S,174,star,1,1,,,,,,,,,,,,,,,,repeat,number,numRpt,k,0.5871,Lo,,,,,,1,,,,,,,,low,3,0,3,0,1,,,,,,,,,
298228,2022-12-07_13h52.36.871,vts_reward_expectancy_bt,2022.2.4,Win32,59.17860102,Chrome,1536,960,,,,,0,711,,,,,,,,,,,,,,,,,U,160,triangle,1,0,,,,,,,,,,,,,,,,repeat,number,numRpt,k,0.5694,Hi,,,,,,1,,,,,,,,low,4,0,4,0,1,,,,,,,,,
298228,2022-12-07_13h52.36.871,vts_reward_expectancy_bt,2022.2.4,Win32,59.17860102,Chrome,1536,960,,,,,10,721,,,,,,,,,,,,,,,,,H,181,circle,1,0,,,,,,,,,,,,,,,,repeat,number,numRpt,k,0.5187,Hi,,,,,,1,,,,,,,,low,5,0,5,0,1,,,,,,,,,
298228,2022-12-07_13h52.36.871,vts_reward_expectancy_bt,2022.2.4,Win32,59.17860102,Chrome,1536,960,,,,,1,722,,,,,,,,,,,,,,,,,Y,167,hexagon,1,0,,,,,,,,,,,,,,,,switch,letter,lettSwt,f,0.5676,Lo,,,,,,1,,,,,,,,low,6,0,6,0,1,,,,,,,,,
298228,2022-12-07_13h52.36.871,vts_reward_expectancy_bt,2022.2.4,Win32,59.17860102,Chrome,1536,960,,,,,10,732,,,,,,,,,,,,,,,,,W,132,star,1,0,,,,,,,,,,,,,,,,repeat,letter,lettRpt,f,0.6056,Lo,,,,,,1,,,,,,,,low,7,0,7,0,1,,,,,,,,,
298228,2022-12-07_13h52.36.871,vts_reward_expectancy_bt,2022.2.4,Win32,59.17860102,Chrome,1536,960,,,,,1,733,,,,,,,,,,,,,,,,,F,125,hexagon,1,0,,,,,,,,,,,,,,,,repeat,letter,lettRpt,d,0.5357,Lo,,,,,,1,,,,,,,,low,8,0,8,0,1,,,,,,,,,
298228,2022-12-07_13h52.36.871,vts_reward_expectancy_bt,2022.2.4,Win32,59.17860102,Chrome,1536,960,,,,,10,743,,,,,,,,,,,,,,,,,B,146,triangle,1,0,,,,,,,,,,,,,,,,repeat,letter,lettRpt,d,0.5876,Hi,,,,,,1,,,,,,,,low,9,0,9,0,1,,,,,,,,,
298228,2022-12-07_13h52.36.871,vts_reward_expectancy_bt,2022.2.4,Win32,59.17860102,Chrome,1536,960,,,,,0,743,,,,,,,,,,,,,,,,,D,139,circle,1,0,,,,,,,,,,,,,,,,repeat,letter,lettRpt,d,2.7561,Hi,,,,,,1,,,,,,,,low,10,0,10,0,1,,,,,,,,,
298228,2022-12-07_13h52.36.871,vts_reward_expectancy_bt,2022.2.4,Win32,59.17860102,Chrome,1536,960,,,,,10,753,,,,,,,,,,,,,,,,,S,174,star,1,0,,,,,,,,,,,,,,,,switch,number,numSwt,k,0.4671,Lo,,,,,,1,,,,,,,,low,11,0,11,0,1,,,,,,,,,
298228,2022-12-07_13h52.36.871,vts_reward_expectancy_bt,2022.2.4,Win32,59.17860102,Chrome,1536,960,,,,,1,754,,,,,,,,,,,,,,,,,U,160,hexagon,1,0,,,,,,,,,,,,,,,,repeat,number,numRpt,k,0.5468,Lo,,,,,,1,,,,,,,,low,12,0,12,0,1,,,,,,,,,
298228,2022-12-07_13h52.36.871,vts_reward_expectancy_bt,2022.2.4,Win32,59.17860102,Chrome,1536,960,,,,,1,755,,,,,,,,,,,,,,,,,H,181,circle,1,0,,,,,,,,,,,,,,,,switch,letter,lettSwt,d,0.4334,Hi,,,,,,1,,,,,,,,low,13,0,13,0,1,,,,,,,,,
298228,2022-12-07_13h52.36.871,vts_reward_expectancy_bt,2022.2.4,Win32,59.17860102,Chrome,1536,960,,,,,1,756,,,,,,,,,,,,,,,,,Y,167,star,1,0,,,,,,,,,,,,,,,,repeat,letter,lettRpt,f,0.5481,Lo,,,,,,1,,,,,,,,low,14,0,14,0,1,,,,,,,,,
298228,2022-12-07_13h52.36.871,vts_reward_expectancy_bt,2022.2.4,Win32,59.17860102,Chrome,1536,960,,,,,0,756,,,,,,,,,,,,,,,,,W,132,triangle,1,0,,,,,,,,,,,,,,,,switch,number,numSwt,j,0.6504,Hi,,,,,,1,,,,,,,,low,15,0,15,0,1,,,,,,,,,
298228,2022-12-07_13h52.36.871,vts_reward_expectancy_bt,2022.2.4,Win32,59.17860102,Chrome,1536,960,,,,,10,766,,,,,,,,,,,,,,,,,B,146,circle,1,0,,,,,,,,,,,,,,,,switch,letter,lettSwt,d,0.4826,Hi,,,,,,1,,,,,,,,low,16,0,16,0,1,,,,,,,,,
298228,2022-12-07_13h52.36.871,vts_reward_expectancy_bt,2022.2.4,Win32,59.17860102,Chrome,1536,960,,,,,10,776,,,,,,,,,,,,,,,,,D,132,hexagon,1,0,,,,,,,,,,,,,,,,switch,number,numSwt,j,0.7187,Lo,,,,,,1,,,,,,,,low,17,0,17,0,1,,,,,,,,,
298228,2022-12-07_13h52.36.871,vts_reward_expectancy_bt,2022.2.4,Win32,59.17860102,Chrome,1536,960,,,,,0,776,,,,,,,,,,,,,,,,,F,181,triangle,1,0,,,,,,,,,,,,,,,,repeat,number,numRpt,k,0.5693,Hi,,,,,,1,,,,,,,,low,18,0,18,0,1,,,,,,,,,
298228,2022-12-07_13h52.36.871,vts_reward_expectancy_bt,2022.2.4,Win32,59.17860102,Chrome,1536,960,,,,,0,776,,,,,,,,,,,,,,,,,S,139,star,0,0,,,,,,,,,,,,,,,,repeat,number,NA,k,0.5336,Hi,,,,,,1,,,,,,,,low,19,0,19,0,1,,,,,,,,,
298228,2022-12-07_13h52.36.871,vts_reward_expectancy_bt,2022.2.4,Win32,59.17860102,Chrome,1536,960,,,,,1,777,,,,,,,,,,,,,,,,,U,174,hexagon,1,1,,,,,,,,,,,,,,,,switch,letter,lettSwt,f,1.0182,Lo,,,,,,1,,,,,,,,low,20,0,20,0,1,,,,,,,,,
298228,2022-12-07_13h52.36.871,vts_reward_expectancy_bt,2022.2.4,Win32,59.17860102,Chrome,1536,960,,,,,10,787,,,,,,,,,,,,,,,,,Y,160,star,1,0,,,,,,,,,,,,,,,,repeat,letter,lettRpt,f,0.7321,Lo,,,,,,1,,,,,,,,low,21,0,21,0,1,,,,,,,,,
298228,2022-12-07_13h52.36.871,vts_reward_expectancy_bt,2022.2.4,Win32,59.17860102,Chrome,1536,960,,,,,0,787,,,,,,,,,,,,,,,,,W,125,triangle,1,0,,,,,,,,,,,,,,,,repeat,letter,lettRpt,f,0.856,Hi,,,,,,1,,,,,,,,low,22,0,22,0,1,,,,,,,,,
298228,2022-12-07_13h52.36.871,vts_reward_expectancy_bt,2022.2.4,Win32,59.17860102,Chrome,1536,960,,,,,10,797,,,,,,,,,,,,,,,,,H,167,circle,1,0,,,,,,,,,,,,,,,,repeat,letter,lettRpt,d,0.5844,Hi,,,,,,1,,,,,,,,low,23,0,23,0,1,,,,,,,,,
298228,2022-12-07_13h52.36.871,vts_reward_expectancy_bt,2022.2.4,Win32,59.17860102,Chrome,1536,960,,,,,0,797,,,,,,,,,,,,,,,,,D,139,triangle,1,0,,,,,,,,,,,,,,,,switch,number,numSwt,j,0.6371,Hi,,,,,,1,,,,,,,,low,24,0,24,0,1,,,,,,,,,
298228,2022-12-07_13h52.36.871,vts_reward_expectancy_bt,2022.2.4,Win32,59.17860102,Chrome,1536,960,,,,,10,807,,,,,,,,,,,,,,,,,H,125,hexagon,1,0,,,,,,,,,,,,,,,,repeat,number,numRpt,j,0.9481,Lo,,,,,,1,,,,,,,,low,25,0,25,0,1,,,,,,,,,
298228,2022-12-07_13h52.36.871,vts_reward_expectancy_bt,2022.2.4,Win32,59.17860102,Chrome,1536,960,,,,,1,808,,,,,,,,,,,,,,,,,U,146,star,1,0,,,,,,,,,,,,,,,,repeat,number,numRpt,j,0.6779,Lo,,,,,,1,,,,,,,,low,26,0,26,0,1,,,,,,,,,
298228,2022-12-07_13h52.36.871,vts_reward_expectancy_bt,2022.2.4,Win32,59.17860102,Chrome,1536,960,,,,,0,808,,,,,,,,,,,,,,,,,S,160,circle,1,0,,,,,,,,,,,,,,,,repeat,number,numRpt,k,0.635,Hi,,,,,,1,,,,,,,,low,27,0,27,0,1,,,,,,,,,
298228,2022-12-07_13h52.36.871,vts_reward_expectancy_bt,2022.2.4,Win32,59.17860102,Chrome,1536,960,,,,,0,808,,,,,,,,,,,,,,,,,Y,174,circle,1,0,,,,,,,,,,,,,,,,repeat,number,numRpt,k,0.6127,Hi,,,,,,1,,,,,,,,low,28,0,28,0,1,,,,,,,,,
298228,2022-12-07_13h52.36.871,vts_reward_expectancy_bt,2022.2.4,Win32,59.17860102,Chrome,1536,960,,,,,10,818,,,,,,,,,,,,,,,,,B,167,hexagon,1,0,,,,,,,,,,,,,,,,repeat,number,numRpt,k,0.5371,Lo,,,,,,1,,,,,,,,low,29,0,29,0,1,,,,,,,,,
298228,2022-12-07_13h52.36.871,vts_reward_expectancy_bt,2022.2.4,Win32,59.17860102,Chrome,1536,960,,,,,1,819,,,,,,,,,,,,,,,,,F,181,star,1,0,,,,,,,,,,,,,,,,switch,letter,lettSwt,d,0.4844,Lo,,,,,,1,,,,,,,,low,30,0,30,0,1,,,,,,,,,
298228,2022-12-07_13h52.36.871,vts_reward_expectancy_bt,2022.2.4,Win32,59.17860102,Chrome,1536,960,,,,,0,819,,,,,,,,,,,,,,,,,W,132,triangle,1,0,,,,,,,,,,,,,,,,switch,number,numSwt,j,0.8164,Hi,,,,,,1,,,,,,,,low,31,0,31,0,1,,,,,,,,,
298228,2022-12-07_13h52.36.871,vts_reward_expectancy_bt,2022.2.4,Win32,59.17860102,Chrome,1536,960,,,,,1,820,,,,,,,,,,,,,,,,,S,167,circle,1,0,,,,,,,,,,,,,,,,repeat,number,numRpt,k,0.5508,Hi,,,,,,2,,,,,,space,1.0105,low,0,0,0,0,1,,,,,,,,,
298228,2022-12-07_13h52.36.871,vts_reward_expectancy_bt,2022.2.4,Win32,59.17860102,Chrome,1536,960,,,,,10,830,,,,,,,,,,,,,,,,,B,125,star,1,0,,,,,,,,,,,,,,,,repeat,number,numRpt,j,0.6688,Lo,,,,,,2,,,,,,,,low,1,0,1,0,1,,,,,,,,,
298228,2022-12-07_13h52.36.871,vts_reward_expectancy_bt,2022.2.4,Win32,59.17860102,Chrome,1536,960,,,,,1,831,,,,,,,,,,,,,,,,,F,146,hexagon,1,0,,,,,,,,,,,,,,,,switch,letter,lettSwt,d,0.6821,Lo,,,,,,2,,,,,,,,low,2,0,2,0,1,,,,,,,,,
298228,2022-12-07_13h52.36.871,vts_reward_expectancy_bt,2022.2.4,Win32,59.17860102,Chrome,1536,960,,,,,1,832,,,,,,,,,,,,,,,,,U,174,triangle,1,0,,,,,,,,,,,,,,,,repeat,letter,lettRpt,f,0.5807,Hi,,,,,,2,,,,,,,,low,3,0,3,0,1,,,,,,,,,
298228,2022-12-07_13h52.36.871,vts_reward_expectancy_bt,2022.2.4,Win32,59.17860102,Chrome,1536,960,,,,,0,832,,,,,,,,,,,,,,,,,Y,132,circle,1,0,,,,,,,,,,,,,,,,switch,number,numSwt,j,0.6845,Hi,,,,,,2,,,,,,,,low,4,0,4,0,1,,,,,,,,,
298228,2022-12-07_13h52.36.871,vts_reward_expectancy_bt,2022.2.4,Win32,59.17860102,Chrome,1536,960,,,,,1,833,,,,,,,,,,,,,,,,,H,139,star,1,0,,,,,,,,,,,,,,,,repeat,number,numRpt,j,0.8623,Lo,,,,,,2,,,,,,,,low,5,0,5,0,1,,,,,,,,,
298228,2022-12-07_13h52.36.871,vts_reward_expectancy_bt,2022.2.4,Win32,59.17860102,Chrome,1536,960,,,,,1,834,,,,,,,,,,,,,,,,,D,160,hexagon,1,0,,,,,,,,,,,,,,,,switch,letter,lettSwt,d,0.5839,Lo,,,,,,2,,,,,,,,low,6,0,6,0,1,,,,,,,,,
298228,2022-12-07_13h52.36.871,vts_reward_expectancy_bt,2022.2.4,Win32,59.17860102,Chrome,1536,960,,,,,0,834,,,,,,,,,,,,,,,,,W,181,triangle,1,0,,,,,,,,,,,,,,,,repeat,letter,lettRpt,f,0.6666,Hi,,,,,,2,,,,,,,,low,7,0,7,0,1,,,,,,,,,
298228,2022-12-07_13h52.36.871,vts_reward_expectancy_bt,2022.2.4,Win32,59.17860102,Chrome,1536,960,,,,,0,834,,,,,,,,,,,,,,,,,S,167,triangle,1,0,,,,,,,,,,,,,,,,switch,number,numSwt,k,0.6988,Hi,,,,,,2,,,,,,,,low,8,0,8,0,1,,,,,,,,,
298228,2022-12-07_13h52.36.871,vts_reward_expectancy_bt,2022.2.4,Win32,59.17860102,Chrome,1536,960,,,,,10,844,,,,,,,,,,,,,,,,,B,125,hexagon,1,0,,,,,,,,,,,,,,,,repeat,number,numRpt,j,0.6669,Lo,,,,,,2,,,,,,,,low,9,0,9,0,1,,,,,,,,,
298228,2022-12-07_13h52.36.871,vts_reward_expectancy_bt,2022.2.4,Win32,59.17860102,Chrome,1536,960,,,,,1,845,,,,,,,,,,,,,,,,,F,146,star,1,0,,,,,,,,,,,,,,,,repeat,number,numRpt,j,1.3004,Lo,,,,,,2,,,,,,,,low,10,0,10,0,1,,,,,,,,,
298228,2022-12-07_13h52.36.871,vts_reward_expectancy_bt,2022.2.4,Win32,59.17860102,Chrome,1536,960,,,,,0,845,,,,,,,,,,,,,,,,,U,174,circle,1,0,,,,,,,,,,,,,,,,repeat,number,numRpt,k,0.902,Hi,,,,,,2,,,,,,,,low,11,0,11,0,1,,,,,,,,,
298228,2022-12-07_13h52.36.871,vts_reward_expectancy_bt,2022.2.4,Win32,59.17860102,Chrome,1536,960,,,,,1,846,,,,,,,,,,,,,,,,,Y,132,star,1,0,,,,,,,,,,,,,,,,switch,letter,lettSwt,f,0.7686,Lo,,,,,,2,,,,,,,,low,12,0,12,0,1,,,,,,,,,
298228,2022-12-07_13h52.36.871,vts_reward_expectancy_bt,2022.2.4,Win32,59.17860102,Chrome,1536,960,,,,,0,846,,,,,,,,,,,,,,,,,H,139,circle,1,0,,,,,,,,,,,,,,,,repeat,letter,lettRpt,d,0.6216,Hi,,,,,,2,,,,,,,,low,13,0,13,0,1,,,,,,,,,
298228,2022-12-07_13h52.36.871,vts_reward_expectancy_bt,2022.2.4,Win32,59.17860102,Chrome,1536,960,,,,,1,847,,,,,,,,,,,,,,,,,D,160,hexagon,1,0,,,,,,,,,,,,,,,,switch,number,numSwt,k,0.8535,Lo,,,,,,2,,,,,,,,low,14,0,14,0,1,,,,,,,,,
298228,2022-12-07_13h52.36.871,vts_reward_expectancy_bt,2022.2.4,Win32,59.17860102,Chrome,1536,960,,,,,10,857,,,,,,,,,,,,,,,,,W,181,triangle,1,0,,,,,,,,,,,,,,,,repeat,number,numRpt,k,0.5348,Hi,,,,,,2,,,,,,,,low,15,0,15,0,1,,,,,,,,,
298228,2022-12-07_13h52.36.871,vts_reward_expectancy_bt,2022.2.4,Win32,59.17860102,Chrome,1536,960,,,,,10,867,,,,,,,,,,,,,,,,,Y,181,star,1,0,,,,,,,,,,,,,,,,repeat,number,numRpt,k,0.6028,Lo,,,,,,2,,,,,,,,low,16,0,16,0,1,,,,,,,,,
298228,2022-12-07_13h52.36.871,vts_reward_expectancy_bt,2022.2.4,Win32,59.17860102,Chrome,1536,960,,,,,1,868,,,,,,,,,,,,,,,,,W,167,hexagon,1,0,,,,,,,,,,,,,,,,repeat,number,numRpt,k,0.4909,Lo,,,,,,2,,,,,,,,low,17,0,17,0,1,,,,,,,,,
298228,2022-12-07_13h52.36.871,vts_reward_expectancy_bt,2022.2.4,Win32,59.17860102,Chrome,1536,960,,,,,0,868,,,,,,,,,,,,,,,,,D,160,circle,1,0,,,,,,,,,,,,,,,,switch,letter,lettSwt,d,0.6362,Hi,,,,,,2,,,,,,,,low,18,0,18,0,1,,,,,,,,,
298228,2022-12-07_13h52.36.871,vts_reward_expectancy_bt,2022.2.4,Win32,59.17860102,Chrome,1536,960,,,,,0,868,,,,,,,,,,,,,,,,,B,125,triangle,1,0,,,,,,,,,,,,,,,,repeat,letter,lettRpt,d,1.0682,Hi,,,,,,2,,,,,,,,low,19,0,19,0,1,,,,,,,,,
298228,2022-12-07_13h52.36.871,vts_reward_expectancy_bt,2022.2.4,Win32,59.17860102,Chrome,1536,960,,,,,0,868,,,,,,,,,,,,,,,,,H,146,circle,1,0,,,,,,,,,,,,,,,,switch,number,numSwt,j,0.9688,Hi,,,,,,2,,,,,,,,low,20,0,20,0,1,,,,,,,,,
298228,2022-12-07_13h52.36.871,vts_reward_expectancy_bt,2022.2.4,Win32,59.17860102,Chrome,1536,960,,,,,10,878,,,,,,,,,,,,,,,,,F,174,star,1,0,,,,,,,,,,,,,,,,repeat,number,numRpt,k,0.6377,Lo,,,,,,2,,,,,,,,low,21,0,21,0,1,,,,,,,,,
298228,2022-12-07_13h52.36.871,vts_reward_expectancy_bt,2022.2.4,Win32,59.17860102,Chrome,1536,960,,,,,0,878,,,,,,,,,,,,,,,,,U,139,triangle,1,0,,,,,,,,,,,,,,,,repeat,number,numRpt,j,1.2693,Hi,,,,,,2,,,,,,,,low,22,0,22,0,1,,,,,,,,,
298228,2022-12-07_13h52.36.871,vts_reward_expectancy_bt,2022.2.4,Win32,59.17860102,Chrome,1536,960,,,,,1,879,,,,,,,,,,,,,,,,,S,132,hexagon,1,0,,,,,,,,,,,,,,,,repeat,number,numRpt,j,0.7057,Lo,,,,,,2,,,,,,,,low,23,0,23,0,1,,,,,,,,,
298228,2022-12-07_13h52.36.871,vts_reward_expectancy_bt,2022.2.4,Win32,59.17860102,Chrome,1536,960,,,,,10,889,,,,,,,,,,,,,,,,,Y,146,hexagon,1,0,,,,,,,,,,,,,,,,switch,letter,lettSwt,f,0.6202,Lo,,,,,,2,,,,,,,,low,24,0,24,0,1,,,,,,,,,
298228,2022-12-07_13h52.36.871,vts_reward_expectancy_bt,2022.2.4,Win32,59.17860102,Chrome,1536,960,,,,,0,889,,,,,,,,,,,,,,,,,H,167,circle,1,0,,,,,,,,,,,,,,,,switch,number,numSwt,k,1.5524,Hi,,,,,,2,,,,,,,,low,25,0,25,0,1,,,,,,,,,
298228,2022-12-07_13h52.36.871,vts_reward_expectancy_bt,2022.2.4,Win32,59.17860102,Chrome,1536,960,,,,,10,899,,,,,,,,,,,,,,,,,B,181,triangle,1,0,,,,,,,,,,,,,,,,repeat,number,numRpt,k,0.5366,Hi,,,,,,2,,,,,,,,low,26,0,26,0,1,,,,,,,,,
298228,2022-12-07_13h52.36.871,vts_reward_expectancy_bt,2022.2.4,Win32,59.17860102,Chrome,1536,960,,,,,1,900,,,,,,,,,,,,,,,,,U,132,star,1,0,,,,,,,,,,,,,,,,repeat,number,numRpt,j,0.6849,Lo,,,,,,2,,,,,,,,low,27,0,27,0,1,,,,,,,,,
298228,2022-12-07_13h52.36.871,vts_reward_expectancy_bt,2022.2.4,Win32,59.17860102,Chrome,1536,960,,,,,1,901,,,,,,,,,,,,,,,,,S,125,hexagon,1,0,,,,,,,,,,,,,,,,switch,letter,lettSwt,f,0.787,Lo,,,,,,2,,,,,,,,low,28,0,28,0,1,,,,,,,,,
298228,2022-12-07_13h52.36.871,vts_reward_expectancy_bt,2022.2.4,Win32,59.17860102,Chrome,1536,960,,,,,1,902,,,,,,,,,,,,,,,,,D,139,triangle,1,0,,,,,,,,,,,,,,,,switch,number,numSwt,j,0.6352,Hi,,,,,,2,,,,,,,,low,29,0,29,0,1,,,,,,,,,
298228,2022-12-07_13h52.36.871,vts_reward_expectancy_bt,2022.2.4,Win32,59.17860102,Chrome,1536,960,,,,,10,912,,,,,,,,,,,,,,,,,W,174,star,1,0,,,,,,,,,,,,,,,,switch,letter,lettSwt,f,1.619,Lo,,,,,,2,,,,,,,,low,30,0,30,0,1,,,,,,,,,
298228,2022-12-07_13h52.36.871,vts_reward_expectancy_bt,2022.2.4,Win32,59.17860102,Chrome,1536,960,,,,,0,912,,,,,,,,,,,,,,,,,F,160,circle,1,0,,,,,,,,,,,,,,,,repeat,letter,lettRpt,d,0.6061,Hi,,,,,,2,,,,,,,,low,31,0,31,0,1,,,,,,,,,
298228,2022-12-07_13h52.36.871,vts_reward_expectancy_bt,2022.2.4,Win32,59.17860102,Chrome,1536,960,,,,,1,913,,,,,,,,,,,,,,,,,D,174,hexagon,1,0,,,,,,,,,,,,,,,,switch,number,numSwt,k,0.701,Lo,,,,,,3,,,,,,space,0.5187,low,0,0,0,0,1,,,,,,,,,
298228,2022-12-07_13h52.36.871,vts_reward_expectancy_bt,2022.2.4,Win32,59.17860102,Chrome,1536,960,,,,,1,914,,,,,,,,,,,,,,,,,H,167,star,1,0,,,,,,,,,,,,,,,,switch,letter,lettSwt,d,0.7178,Lo,,,,,,3,,,,,,,,low,1,0,1,0,1,,,,,,,,,
298228,2022-12-07_13h52.36.871,vts_reward_expectancy_bt,2022.2.4,Win32,59.17860102,Chrome,1536,960,,,,,1,915,,,,,,,,,,,,,,,,,B,146,circle,1,0,,,,,,,,,,,,,,,,repeat,letter,lettRpt,d,0.3971,Hi,,,,,,3,,,,,,,,low,2,0,2,0,1,,,,,,,,,
298228,2022-12-07_13h52.36.871,vts_reward_expectancy_bt,2022.2.4,Win32,59.17860102,Chrome,1536,960,,,,,0,915,,,,,,,,,,,,,,,,,F,139,triangle,1,0,,,,,,,,,,,,,,,,switch,number,numSwt,j,0.8314,Hi,,,,,,3,,,,,,,,low,3,0,3,0,1,,,,,,,,,
298228,2022-12-07_13h52.36.871,vts_reward_expectancy_bt,2022.2.4,Win32,59.17860102,Chrome,1536,960,,,,,1,916,,,,,,,,,,,,,,,,,S,181,hexagon,1,0,,,,,,,,,,,,,,,,repeat,number,numRpt,k,0.5847,Lo,,,,,,3,,,,,,,,low,4,0,4,0,1,,,,,,,,,
298228,2022-12-07_13h52.36.871,vts_reward_expectancy_bt,2022.2.4,Win32,59.17860102,Chrome,1536,960,,,,,10,926,,,,,,,,,,,,,,,,,U,125,star,1,0,,,,,,,,,,,,,,,,switch,letter,lettSwt,f,0.6058,Lo,,,,,,3,,,,,,,,low,5,0,5,0,1,,,,,,,,,
298228,2022-12-07_13h52.36.871,vts_reward_expectancy_bt,2022.2.4,Win32,59.17860102,Chrome,1536,960,,,,,10,936,,,,,,,,,,,,,,,,,W,132,circle,1,0,,,,,,,,,,,,,,,,repeat,letter,lettRpt,f,0.5175,Hi,,,,,,3,,,,,,,,low,6,0,6,0,1,,,,,,,,,
298228,2022-12-07_13h52.36.871,vts_reward_expectancy_bt,2022.2.4,Win32,59.17860102,Chrome,1536,960,,,,,1,937,,,,,,,,,,,,,,,,,Y,160,triangle,1,0,,,,,,,,,,,,,,,,switch,number,numSwt,k,0.5243,Hi,,,,,,3,,,,,,,,low,7,0,7,0,1,,,,,,,,,
298228,2022-12-07_13h52.36.871,vts_reward_expectancy_bt,2022.2.4,Win32,59.17860102,Chrome,1536,960,,,,,1,938,,,,,,,,,,,,,,,,,D,174,hexagon,1,0,,,,,,,,,,,,,,,,repeat,number,numRpt,k,0.4841,Lo,,,,,,3,,,,,,,,low,8,0,8,0,1,,,,,,,,,
298228,2022-12-07_13h52.36.871,vts_reward_expectancy_bt,2022.2.4,Win32,59.17860102,Chrome,1536,960,,,,,10,948,,,,,,,,,,,,,,,,,H,167,circle,1,0,,,,,,,,,,,,,,,,repeat,number,numRpt,k,0.5846,Hi,,,,,,3,,,,,,,,low,9,0,9,0,1,,,,,,,,,
298228,2022-12-07_13h52.36.871,vts_reward_expectancy_bt,2022.2.4,Win32,59.17860102,Chrome,1536,960,,,,,10,958,,,,,,,,,,,,,,,,,B,146,triangle,1,0,,,,,,,,,,,,,,,,switch,letter,lettSwt,d,0.6014,Hi,,,,,,3,,,,,,,,low,10,0,10,0,1,,,,,,,,,
298228,2022-12-07_13h52.36.871,vts_reward_expectancy_bt,2022.2.4,Win32,59.17860102,Chrome,1536,960,,,,,1,959,,,,,,,,,,,,,,,,,F,139,star,1,0,,,,,,,,,,,,,,,,repeat,letter,lettRpt,d,0.618,Lo,,,,,,3,,,,,,,,low,11,0,11,0,1,,,,,,,,,
298228,2022-12-07_13h52.36.871,vts_reward_expectancy_bt,2022.2.4,Win32,59.17860102,Chrome,1536,960,,,,,0,959,,,,,,,,,,,,,,,,,S,181,triangle,1,0,,,,,,,,,,,,,,,,repeat,letter,lettRpt,f,0.7731,Hi,,,,,,3,,,,,,,,low,12,0,12,0,1,,,,,,,,,
298228,2022-12-07_13h52.36.871,vts_reward_expectancy_bt,2022.2.4,Win32,59.17860102,Chrome,1536,960,,,,,10,969,,,,,,,,,,,,,,,,,U,125,circle,1,0,,,,,,,,,,,,,,,,repeat,letter,lettRpt,f,0.4668,Hi,,,,,,3,,,,,,,,low,13,0,13,0,1,,,,,,,,,
298228,2022-12-07_13h52.36.871,vts_reward_expectancy_bt,2022.2.4,Win32,59.17860102,Chrome,1536,960,,,,,1,970,,,,,,,,,,,,,,,,,W,132,star,1,0,,,,,,,,,,,,,,,,switch,number,numSwt,j,0.7303,Lo,,,,,,3,,,,,,,,low,14,0,14,0,1,,,,,,,,,
298228,2022-12-07_13h52.36.871,vts_reward_expectancy_bt,2022.2.4,Win32,59.17860102,Chrome,1536,960,,,,,1,971,,,,,,,,,,,,,,,,,Y,160,hexagon,1,0,,,,,,,,,,,,,,,,switch,letter,lettSwt,f,0.601,Lo,,,,,,3,,,,,,,,low,15,0,15,0,1,,,,,,,,,
298228,2022-12-07_13h52.36.871,vts_reward_expectancy_bt,2022.2.4,Win32,59.17860102,Chrome,1536,960,,,,,0,971,,,,,,,,,,,,,,,,,H,125,triangle,1,0,,,,,,,,,,,,,,,,repeat,letter,lettRpt,d,0.7514,Hi,,,,,,3,,,,,,,,low,16,0,16,0,1,,,,,,,,,
298228,2022-12-07_13h52.36.871,vts_reward_expectancy_bt,2022.2.4,Win32,59.17860102,Chrome,1536,960,,,,,1,972,,,,,,,,,,,,,,,,,F,139,hexagon,1,0,,,,,,,,,,,,,,,,switch,number,numSwt,j,0.7018,Lo,,,,,,3,,,,,,,,low,17,0,17,0,1,,,,,,,,,
298228,2022-12-07_13h52.36.871,vts_reward_expectancy_bt,2022.2.4,Win32,59.17860102,Chrome,1536,960,,,,,1,973,,,,,,,,,,,,,,,,,B,146,star,1,0,,,,,,,,,,,,,,,,repeat,number,numRpt,j,0.6515,Lo,,,,,,3,,,,,,,,low,18,0,18,0,1,,,,,,,,,
298228,2022-12-07_13h52.36.871,vts_reward_expectancy_bt,2022.2.4,Win32,59.17860102,Chrome,1536,960,,,,,0,973,,,,,,,,,,,,,,,,,Y,160,circle,1,0,,,,,,,,,,,,,,,,repeat,number,numRpt,k,0.7367,Hi,,,,,,3,,,,,,,,low,19,0,19,0,1,,,,,,,,,
298228,2022-12-07_13h52.36.871,vts_reward_expectancy_bt,2022.2.4,Win32,59.17860102,Chrome,1536,960,,,,,10,983,,,,,,,,,,,,,,,,,U,181,star,1,0,,,,,,,,,,,,,,,,switch,letter,lettSwt,f,0.8519,Lo,,,,,,3,,,,,,,,low,20,0,20,0,1,,,,,,,,,
298228,2022-12-07_13h52.36.871,vts_reward_expectancy_bt,2022.2.4,Win32,59.17860102,Chrome,1536,960,,,,,0,983,,,,,,,,,,,,,,,,,W,167,triangle,1,0,,,,,,,,,,,,,,,,repeat,letter,lettRpt,f,0.686,Hi,,,,,,3,,,,,,,,low,21,0,21,0,1,,,,,,,,,
298228,2022-12-07_13h52.36.871,vts_reward_expectancy_bt,2022.2.4,Win32,59.17860102,Chrome,1536,960,,,,,0,983,,,,,,,,,,,,,,,,,S,174,circle,1,0,,,,,,,,,,,,,,,,repeat,letter,lettRpt,f,0.8737,Hi,,,,,,3,,,,,,,,low,22,0,22,0,1,,,,,,,,,
298228,2022-12-07_13h52.36.871,vts_reward_expectancy_bt,2022.2.4,Win32,59.17860102,Chrome,1536,960,,,,,10,993,,,,,,,,,,,,,,,,,D,132,hexagon,1,0,,,,,,,,,,,,,,,,switch,number,numSwt,j,0.685,Lo,,,,,,3,,,,,,,,low,23,0,23,0,1,,,,,,,,,
298228,2022-12-07_13h52.36.871,vts_reward_expectancy_bt,2022.2.4,Win32,59.17860102,Chrome,1536,960,,,,,1,994,,,,,,,,,,,,,,,,,D,139,triangle,1,0,,,,,,,,,,,,,,,,switch,letter,lettSwt,d,0.5514,Hi,,,,,,3,,,,,,,,low,24,0,24,0,1,,,,,,,,,
298228,2022-12-07_13h52.36.871,vts_reward_expectancy_bt,2022.2.4,Win32,59.17860102,Chrome,1536,960,,,,,10,1004,,,,,,,,,,,,,,,,,F,132,hexagon,1,0,,,,,,,,,,,,,,,,repeat,letter,lettRpt,d,0.7016,Lo,,,,,,3,,,,,,,,low,25,0,25,0,1,,,,,,,,,
298228,2022-12-07_13h52.36.871,vts_reward_expectancy_bt,2022.2.4,Win32,59.17860102,Chrome,1536,960,,,,,0,1004,,,,,,,,,,,,,,,,,W,167,circle,0,0,,,,,,,,,,,,,,,,repeat,letter,NA,d,0.5016,Lo,,,,,,3,,,,,,,,low,26,0,26,0,1,,,,,,,,,
298228,2022-12-07_13h52.36.871,vts_reward_expectancy_bt,2022.2.4,Win32,59.17860102,Chrome,1536,960,,,,,1,1005,,,,,,,,,,,,,,,,,H,181,star,1,1,,,,,,,,,,,,,,,,repeat,letter,lettRpt,d,0.872,Lo,,,,,,3,,,,,,,,low,27,0,27,0,1,,,,,,,,,
298228,2022-12-07_13h52.36.871,vts_reward_expectancy_bt,2022.2.4,Win32,59.17860102,Chrome,1536,960,,,,,10,1015,,,,,,,,,,,,,,,,,U,125,triangle,1,0,,,,,,,,,,,,,,,,switch,number,numSwt,j,0.6001,Hi,,,,,,3,,,,,,,,low,28,0,28,0,1,,,,,,,,,
298228,2022-12-07_13h52.36.871,vts_reward_expectancy_bt,2022.2.4,Win32,59.17860102,Chrome,1536,960,,,,,0,1015,,,,,,,,,,,,,,,,,S,160,circle,1,0,,,,,,,,,,,,,,,,repeat,number,numRpt,k,0.8044,Hi,,,,,,3,,,,,,,,low,29,0,29,0,1,,,,,,,,,
298228,2022-12-07_13h52.36.871,vts_reward_expectancy_bt,2022.2.4,Win32,59.17860102,Chrome,1536,960,,,,,1,1016,,,,,,,,,,,,,,,,,Y,146,star,1,0,,,,,,,,,,,,,,,,repeat,number,numRpt,j,0.5674,Lo,,,,,,3,,,,,,,,low,30,0,30,0,1,,,,,,,,,
298228,2022-12-07_13h52.36.871,vts_reward_expectancy_bt,2022.2.4,Win32,59.17860102,Chrome,1536,960,,,,,1,1017,,,,,,,,,,,,,,,,,B,174,hexagon,1,0,,,,,,,,,,,,,,,,repeat,number,numRpt,k,0.785,Lo,,,,,,3,,,,,,,,low,31,0,31,0,1,,,,,,,,,
298228,2022-12-07_13h52.36.871,vts_reward_expectancy_bt,2022.2.4,Win32,59.17860102,Chrome,1536,960,,,,,1,1018,,,,,,,,,,,,,,,,,S,174,hexagon,1,0,,,,,,,,,,,,,,,,repeat,number,numRpt,k,0.5687,Lo,,,,,,4,,,,,,space,0.2847,low,0,0,0,0,1,,,,,,,,,
298228,2022-12-07_13h52.36.871,vts_reward_expectancy_bt,2022.2.4,Win32,59.17860102,Chrome,1536,960,,,,,1,1019,,,,,,,,,,,,,,,,,F,125,star,1,0,,,,,,,,,,,,,,,,switch,letter,lettSwt,d,0.4848,Lo,,,,,,4,,,,,,,,low,1,0,1,0,1,,,,,,,,,
298228,2022-12-07_13h52.36.871,vts_reward_expectancy_bt,2022.2.4,Win32,59.17860102,Chrome,1536,960,,,,,1,1020,,,,,,,,,,,,,,,,,W,167,triangle,1,0,,,,,,,,,,,,,,,,switch,number,numSwt,k,0.5231,Hi,,,,,,4,,,,,,,,low,2,0,2,0,1,,,,,,,,,
298228,2022-12-07_13h52.36.871,vts_reward_expectancy_bt,2022.2.4,Win32,59.17860102,Chrome,1536,960,,,,,0,1020,,,,,,,,,,,,,,,,,U,146,circle,1,0,,,,,,,,,,,,,,,,repeat,number,numRpt,j,0.7191,Hi,,,,,,4,,,,,,,,low,3,0,3,0,1,,,,,,,,,
298228,2022-12-07_13h52.36.871,vts_reward_expectancy_bt,2022.2.4,Win32,59.17860102,Chrome,1536,960,,,,,0,1020,,,,,,,,,,,,,,,,,B,160,hexagon,0,0,,,,,,,,,,,,,,,,repeat,number,NA,j,0.4675,Hi,,,,,,4,,,,,,,,low,4,0,4,0,1,,,,,,,,,
298228,2022-12-07_13h52.36.871,vts_reward_expectancy_bt,2022.2.4,Win32,59.17860102,Chrome,1536,960,,,,,1,1021,,,,,,,,,,,,,,,,,Y,139,star,1,1,,,,,,,,,,,,,,,,repeat,number,numRpt,j,0.4476,Lo,,,,,,4,,,,,,,,low,5,0,5,0,1,,,,,,,,,
298228,2022-12-07_13h52.36.871,vts_reward_expectancy_bt,2022.2.4,Win32,59.17860102,Chrome,1536,960,,,,,0,1021,,,,,,,,,,,,,,,,,D,132,triangle,1,0,,,,,,,,,,,,,,,,switch,letter,lettSwt,d,0.7493,Hi,,,,,,4,,,,,,,,low,6,0,6,0,1,,,,,,,,,
298228,2022-12-07_13h52.36.871,vts_reward_expectancy_bt,2022.2.4,Win32,59.17860102,Chrome,1536,960,,,,,10,1031,,,,,,,,,,,,,,,,,H,181,circle,1,0,,,,,,,,,,,,,,,,switch,number,numSwt,k,0.5774,Hi,,,,,,4,,,,,,,,low,7,0,7,0,1,,,,,,,,,
298228,2022-12-07_13h52.36.871,vts_reward_expectancy_bt,2022.2.4,Win32,59.17860102,Chrome,1536,960,,,,,0,1031,,,,,,,,,,,,,,,,,S,174,star,0,0,,,,,,,,,,,,,,,,switch,letter,NA,d,0.5474,Hi,,,,,,4,,,,,,,,low,8,0,8,0,1,,,,,,,,,
298228,2022-12-07_13h52.36.871,vts_reward_expectancy_bt,2022.2.4,Win32,59.17860102,Chrome,1536,960,,,,,1,1032,,,,,,,,,,,,,,,,,F,125,triangle,1,1,,,,,,,,,,,,,,,,repeat,letter,lettRpt,d,0.5519,Hi,,,,,,4,,,,,,,,low,9,0,9,0,1,,,,,,,,,
298228,2022-12-07_13h52.36.871,vts_reward_expectancy_bt,2022.2.4,Win32,59.17860102,Chrome,1536,960,,,,,10,1042,,,,,,,,,,,,,,,,,W,167,hexagon,1,0,,,,,,,,,,,,,,,,repeat,letter,lettRpt,f,0.4226,Lo,,,,,,4,,,,,,,,low,10,0,10,0,1,,,,,,,,,
298228,2022-12-07_13h52.36.871,vts_reward_expectancy_bt,2022.2.4,Win32,59.17860102,Chrome,1536,960,,,,,1,1043,,,,,,,,,,,,,,,,,U,146,circle,1,0,,,,,,,,,,,,,,,,repeat,letter,lettRpt,f,0.5683,Hi,,,,,,4,,,,,,,,low,11,0,11,0,1,,,,,,,,,
298228,2022-12-07_13h52.36.871,vts_reward_expectancy_bt,2022.2.4,Win32,59.17860102,Chrome,1536,960,,,,,1,1044,,,,,,,,,,,,,,,,,B,160,star,1,0,,,,,,,,,,,,,,,,repeat,letter,lettRpt,d,0.585,Lo,,,,,,4,,,,,,,,low,12,0,12,0,1,,,,,,,,,
298228,2022-12-07_13h52.36.871,vts_reward_expectancy_bt,2022.2.4,Win32,59.17860102,Chrome,1536,960,,,,,10,1054,,,,,,,,,,,,,,,,,Y,139,circle,1,0,,,,,,,,,,,,,,,,repeat,letter,lettRpt,f,0.6017,Hi,,,,,,4,,,,,,,,low,13,0,13,0,1,,,,,,,,,
298228,2022-12-07_13h52.36.871,vts_reward_expectancy_bt,2022.2.4,Win32,59.17860102,Chrome,1536,960,,,,,10,1064,,,,,,,,,,,,,,,,,D,132,hexagon,1,0,,,,,,,,,,,,,,,,switch,number,numSwt,j,0.6211,Lo,,,,,,4,,,,,,,,low,14,0,14,0,1,,,,,,,,,
298228,2022-12-07_13h52.36.871,vts_reward_expectancy_bt,2022.2.4,Win32,59.17860102,Chrome,1536,960,,,,,10,1074,,,,,,,,,,,,,,,,,H,181,triangle,1,0,,,,,,,,,,,,,,,,switch,letter,lettSwt,d,0.5694,Hi,,,,,,4,,,,,,,,low,15,0,15,0,1,,,,,,,,,
298228,2022-12-07_13h52.36.871,vts_reward_expectancy_bt,2022.2.4,Win32,59.17860102,Chrome,1536,960,,,,,10,1084,,,,,,,,,,,,,,,,,W,181,circle,1,0,,,,,,,,,,,,,,,,switch,number,numSwt,k,0.4845,Hi,,,,,,4,,,,,,,,low,16,0,16,0,1,,,,,,,,,
298228,2022-12-07_13h52.36.871,vts_reward_expectancy_bt,2022.2.4,Win32,59.17860102,Chrome,1536,960,,,,,1,1085,,,,,,,,,,,,,,,,,Y,174,triangle,1,0,,,,,,,,,,,,,,,,switch,letter,lettSwt,f,0.5358,Hi,,,,,,4,,,,,,,,low,17,0,17,0,1,,,,,,,,,
298228,2022-12-07_13h52.36.871,vts_reward_expectancy_bt,2022.2.4,Win32,59.17860102,Chrome,1536,960,,,,,1,1086,,,,,,,,,,,,,,,,,H,139,hexagon,1,0,,,,,,,,,,,,,,,,repeat,letter,lettRpt,d,0.8009,Lo,,,,,,4,,,,,,,,low,18,0,18,0,1,,,,,,,,,
298228,2022-12-07_13h52.36.871,vts_reward_expectancy_bt,2022.2.4,Win32,59.17860102,Chrome,1536,960,,,,,10,1096,,,,,,,,,,,,,,,,,B,125,star,1,0,,,,,,,,,,,,,,,,repeat,letter,lettRpt,d,0.6029,Lo,,,,,,4,,,,,,,,low,19,0,19,0,1,,,,,,,,,
298228,2022-12-07_13h52.36.871,vts_reward_expectancy_bt,2022.2.4,Win32,59.17860102,Chrome,1536,960,,,,,1,1097,,,,,,,,,,,,,,,,,S,160,star,1,0,,,,,,,,,,,,,,,,repeat,letter,lettRpt,f,1.0356,Lo,,,,,,4,,,,,,,,low,20,0,20,0,1,,,,,,,,,
298228,2022-12-07_13h52.36.871,vts_reward_expectancy_bt,2022.2.4,Win32,59.17860102,Chrome,1536,960,,,,,10,1107,,,,,,,,,,,,,,,,,U,132,hexagon,1,0,,,,,,,,,,,,,,,,repeat,letter,lettRpt,f,0.5394,Lo,,,,,,4,,,,,,,,low,21,0,21,0,1,,,,,,,,,
298228,2022-12-07_13h52.36.871,vts_reward_expectancy_bt,2022.2.4,Win32,59.17860102,Chrome,1536,960,,,,,1,1108,,,,,,,,,,,,,,,,,D,167,triangle,1,0,,,,,,,,,,,,,,,,switch,number,numSwt,k,0.618,Hi,,,,,,4,,,,,,,,low,22,0,22,0,1,,,,,,,,,
298228,2022-12-07_13h52.36.871,vts_reward_expectancy_bt,2022.2.4,Win32,59.17860102,Chrome,1536,960,,,,,10,1118,,,,,,,,,,,,,,,,,F,146,circle,1,0,,,,,,,,,,,,,,,,repeat,number,numRpt,j,0.468,Hi,,,,,,4,,,,,,,,low,23,0,23,0,1,,,,,,,,,
298228,2022-12-07_13h52.36.871,vts_reward_expectancy_bt,2022.2.4,Win32,59.17860102,Chrome,1536,960,,,,,10,1128,,,,,,,,,,,,,,,,,B,174,circle,1,0,,,,,,,,,,,,,,,,switch,letter,lettSwt,d,0.4513,Hi,,,,,,4,,,,,,,,low,24,0,24,0,1,,,,,,,,,
298228,2022-12-07_13h52.36.871,vts_reward_expectancy_bt,2022.2.4,Win32,59.17860102,Chrome,1536,960,,,,,10,1138,,,,,,,,,,,,,,,,,Y,146,star,1,0,,,,,,,,,,,,,,,,switch,number,numSwt,j,0.5015,Lo,,,,,,4,,,,,,,,low,25,0,25,0,1,,,,,,,,,
298228,2022-12-07_13h52.36.871,vts_reward_expectancy_bt,2022.2.4,Win32,59.17860102,Chrome,1536,960,,,,,1,1139,,,,,,,,,,,,,,,,,F,167,hexagon,1,0,,,,,,,,,,,,,,,,switch,letter,lettSwt,d,0.6352,Lo,,,,,,4,,,,,,,,low,26,0,26,0,1,,,,,,,,,
298228,2022-12-07_13h52.36.871,vts_reward_expectancy_bt,2022.2.4,Win32,59.17860102,Chrome,1536,960,,,,,10,1149,,,,,,,,,,,,,,,,,S,125,triangle,1,0,,,,,,,,,,,,,,,,switch,number,numSwt,j,0.6027,Hi,,,,,,4,,,,,,,,low,27,0,27,0,1,,,,,,,,,
298228,2022-12-07_13h52.36.871,vts_reward_expectancy_bt,2022.2.4,Win32,59.17860102,Chrome,1536,960,,,,,0,1149,,,,,,,,,,,,,,,,,D,181,triangle,1,0,,,,,,,,,,,,,,,,repeat,number,numRpt,k,0.7042,Hi,,,,,,4,,,,,,,,low,28,0,28,0,1,,,,,,,,,
298228,2022-12-07_13h52.36.871,vts_reward_expectancy_bt,2022.2.4,Win32,59.17860102,Chrome,1536,960,,,,,1,1150,,,,,,,,,,,,,,,,,U,160,hexagon,1,0,,,,,,,,,,,,,,,,repeat,number,numRpt,k,0.6023,Lo,,,,,,4,,,,,,,,low,29,0,29,0,1,,,,,,,,,
298228,2022-12-07_13h52.36.871,vts_reward_expectancy_bt,2022.2.4,Win32,59.17860102,Chrome,1536,960,,,,,1,1151,,,,,,,,,,,,,,,,,W,139,star,1,0,,,,,,,,,,,,,,,,switch,letter,lettSwt,f,0.6017,Lo,,,,,,4,,,,,,,,low,30,0,30,0,1,,,,,,,,,
298228,2022-12-07_13h52.36.871,vts_reward_expectancy_bt,2022.2.4,Win32,59.17860102,Chrome,1536,960,,,,,0,1151,,,,,,,,,,,,,,,,,H,132,circle,1,0,,,,,,,,,,,,,,,,repeat,letter,lettRpt,d,0.6514,Hi,,,,,,4,,,,,,,,low,31,0,31,0,1,,,,,,,,,
298228,2022-12-07_13h52.36.871,vts_reward_expectancy_bt,2022.2.4,Win32,59.17860102,Chrome,1536,960,,,,,0,1151,,,,,,,,,,,,,,,,,D,125,hexagon,0,0,,,,,,,,,,,,,,,,repeat,letter,NA,f,0.9127,Hi,,,,,,5,,,,,,space,0.1548,low,0,0,0,0,1,,,,,,,,,
298228,2022-12-07_13h52.36.871,vts_reward_expectancy_bt,2022.2.4,Win32,59.17860102,Chrome,1536,960,,,,,1,1152,,,,,,,,,,,,,,,,,H,174,star,1,1,,,,,,,,,,,,,,,,repeat,letter,lettRpt,d,0.5535,Lo,,,,,,5,,,,,,,,low,1,0,1,0,1,,,,,,,,,
298228,2022-12-07_13h52.36.871,vts_reward_expectancy_bt,2022.2.4,Win32,59.17860102,Chrome,1536,960,,,,,0,1152,,,,,,,,,,,,,,,,,F,132,circle,1,0,,,,,,,,,,,,,,,,switch,number,numSwt,j,0.7879,Hi,,,,,,5,,,,,,,,low,2,0,2,0,1,,,,,,,,,
298228,2022-12-07_13h52.36.871,vts_reward_expectancy_bt,2022.2.4,Win32,59.17860102,Chrome,1536,960,,,,,0,1152,,,,,,,,,,,,,,,,,U,139,triangle,1,0,,,,,,,,,,,,,,,,repeat,number,numRpt,j,0.6355,Hi,,,,,,5,,,,,,,,low,3,0,3,0,1,,,,,,,,,
298228,2022-12-07_13h52.36.871,vts_reward_expectancy_bt,2022.2.4,Win32,59.17860102,Chrome,1536,960,,,,,1,1153,,,,,,,,,,,,,,,,,W,146,hexagon,1,0,,,,,,,,,,,,,,,,repeat,number,numRpt,j,0.5597,Lo,,,,,,5,,,,,,,,low,4,0,4,0,1,,,,,,,,,
298228,2022-12-07_13h52.36.871,vts_reward_expectancy_bt,2022.2.4,Win32,59.17860102,Chrome,1536,960,,,,,0,1153,,,,,,,,,,,,,,,,,S,181,star,0,0,,,,,,,,,,,,,,,,switch,letter,NA,d,0.4861,Lo,,,,,,5,,,,,,,,low,5,0,5,0,1,,,,,,,,,
298228,2022-12-07_13h52.36.871,vts_reward_expectancy_bt,2022.2.4,Win32,59.17860102,Chrome,1536,960,,,,,1,1154,,,,,,,,,,,,,,,,,B,160,circle,1,1,,,,,,,,,,,,,,,,repeat,letter,lettRpt,d,0.5475,Hi,,,,,,5,,,,,,,,low,6,0,6,0,1,,,,,,,,,
298228,2022-12-07_13h52.36.871,vts_reward_expectancy_bt,2022.2.4,Win32,59.17860102,Chrome,1536,960,,,,,0,1154,,,,,,,,,,,,,,,,,Y,167,triangle,1,0,,,,,,,,,,,,,,,,switch,number,numSwt,k,0.5699,Hi,,,,,,5,,,,,,,,low,7,0,7,0,1,,,,,,,,,
298228,2022-12-07_13h52.36.871,vts_reward_expectancy_bt,2022.2.4,Win32,59.17860102,Chrome,1536,960,,,,,1,1155,,,,,,,,,,,,,,,,,D,125,circle,1,0,,,,,,,,,,,,,,,,repeat,number,numRpt,j,0.5333,Hi,,,,,,5,,,,,,,,low,8,0,8,0,1,,,,,,,,,
298228,2022-12-07_13h52.36.871,vts_reward_expectancy_bt,2022.2.4,Win32,59.17860102,Chrome,1536,960,,,,,1,1156,,,,,,,,,,,,,,,,,H,174,hexagon,1,0,,,,,,,,,,,,,,,,switch,letter,lettSwt,d,0.466,Lo,,,,,,5,,,,,,,,low,9,0,9,0,1,,,,,,,,,
298228,2022-12-07_13h52.36.871,vts_reward_expectancy_bt,2022.2.4,Win32,59.17860102,Chrome,1536,960,,,,,10,1166,,,,,,,,,,,,,,,,,F,132,triangle,1,0,,,,,,,,,,,,,,,,repeat,letter,lettRpt,d,0.5281,Hi,,,,,,5,,,,,,,,low,10,0,10,0,1,,,,,,,,,
298228,2022-12-07_13h52.36.871,vts_reward_expectancy_bt,2022.2.4,Win32,59.17860102,Chrome,1536,960,,,,,10,1176,,,,,,,,,,,,,,,,,U,139,star,1,0,,,,,,,,,,,,,,,,repeat,letter,lettRpt,f,0.6311,Lo,,,,,,5,,,,,,,,low,11,0,11,0,1,,,,,,,,,
298228,2022-12-07_13h52.36.871,vts_reward_expectancy_bt,2022.2.4,Win32,59.17860102,Chrome,1536,960,,,,,1,1177,,,,,,,,,,,,,,,,,W,146,star,1,0,,,,,,,,,,,,,,,,switch,number,numSwt,j,0.5861,Lo,,,,,,5,,,,,,,,low,12,0,12,0,1,,,,,,,,,
298228,2022-12-07_13h52.36.871,vts_reward_expectancy_bt,2022.2.4,Win32,59.17860102,Chrome,1536,960,,,,,0,1177,,,,,,,,,,,,,,,,,S,181,triangle,1,0,,,,,,,,,,,,,,,,switch,letter,lettSwt,f,0.6139,Hi,,,,,,5,,,,,,,,low,13,0,13,0,1,,,,,,,,,
298228,2022-12-07_13h52.36.871,vts_reward_expectancy_bt,2022.2.4,Win32,59.17860102,Chrome,1536,960,,,,,10,1187,,,,,,,,,,,,,,,,,B,160,hexagon,1,0,,,,,,,,,,,,,,,,switch,number,numSwt,k,0.565,Lo,,,,,,5,,,,,,,,low,14,0,14,0,1,,,,,,,,,
298228,2022-12-07_13h52.36.871,vts_reward_expectancy_bt,2022.2.4,Win32,59.17860102,Chrome,1536,960,,,,,0,1187,,,,,,,,,,,,,,,,,Y,167,circle,1,0,,,,,,,,,,,,,,,,repeat,number,numRpt,k,0.6161,Hi,,,,,,5,,,,,,,,low,15,0,15,0,1,,,,,,,,,
298228,2022-12-07_13h52.36.871,vts_reward_expectancy_bt,2022.2.4,Win32,59.17860102,Chrome,1536,960,,,,,1,1188,,,,,,,,,,,,,,,,,D,181,hexagon,1,0,,,,,,,,,,,,,,,,switch,letter,lettSwt,d,0.8267,Lo,,,,,,5,,,,,,,,low,16,0,16,0,1,,,,,,,,,
298228,2022-12-07_13h52.36.871,vts_reward_expectancy_bt,2022.2.4,Win32,59.17860102,Chrome,1536,960,,,,,0,1188,,,,,,,,,,,,,,,,,U,167,circle,1,0,,,,,,,,,,,,,,,,repeat,letter,lettRpt,f,0.6823,Hi,,,,,,5,,,,,,,,low,17,0,17,0,1,,,,,,,,,
298228,2022-12-07_13h52.36.871,vts_reward_expectancy_bt,2022.2.4,Win32,59.17860102,Chrome,1536,960,,,,,0,1188,,,,,,,,,,,,,,,,,F,160,star,0,0,,,,,,,,,,,,,,,,repeat,letter,NA,f,0.6334,Hi,,,,,,5,,,,,,,,low,18,0,18,0,1,,,,,,,,,
298228,2022-12-07_13h52.36.871,vts_reward_expectancy_bt,2022.2.4,Win32,59.17860102,Chrome,1536,960,,,,,0,1188,,,,,,,,,,,,,,,,,B,125,triangle,1,1,,,,,,,,,,,,,,,,repeat,letter,lettRpt,d,0.6167,Hi,,,,,,5,,,,,,,,low,19,0,19,0,1,,,,,,,,,
298228,2022-12-07_13h52.36.871,vts_reward_expectancy_bt,2022.2.4,Win32,59.17860102,Chrome,1536,960,,,,,1,1189,,,,,,,,,,,,,,,,,H,174,hexagon,1,0,,,,,,,,,,,,,,,,repeat,letter,lettRpt,d,0.6837,Lo,,,,,,5,,,,,,,,low,20,0,20,0,1,,,,,,,,,
298228,2022-12-07_13h52.36.871,vts_reward_expectancy_bt,2022.2.4,Win32,59.17860102,Chrome,1536,960,,,,,1,1190,,,,,,,,,,,,,,,,,Y,132,star,1,0,,,,,,,,,,,,,,,,switch,number,numSwt,j,0.7002,Lo,,,,,,5,,,,,,,,low,21,0,21,0,1,,,,,,,,,
298228,2022-12-07_13h52.36.871,vts_reward_expectancy_bt,2022.2.4,Win32,59.17860102,Chrome,1536,960,,,,,0,1190,,,,,,,,,,,,,,,,,S,139,triangle,1,0,,,,,,,,,,,,,,,,switch,letter,lettSwt,f,1.1858,Hi,,,,,,5,,,,,,,,low,22,0,22,0,1,,,,,,,,,
298228,2022-12-07_13h52.36.871,vts_reward_expectancy_bt,2022.2.4,Win32,59.17860102,Chrome,1536,960,,,,,0,1190,,,,,,,,,,,,,,,,,W,146,circle,1,0,,,,,,,,,,,,,,,,repeat,letter,lettRpt,f,0.6029,Hi,,,,,,5,,,,,,,,low,23,0,23,0,1,,,,,,,,,
298228,2022-12-07_13h52.36.871,vts_reward_expectancy_bt,2022.2.4,Win32,59.17860102,Chrome,1536,960,,,,,10,1200,,,,,,,,,,,,,,,,,Y,167,star,1,0,,,,,,,,,,,,,,,,repeat,letter,lettRpt,f,0.667,Lo,,,,,,5,,,,,,,,low,24,0,24,0,1,,,,,,,,,
298228,2022-12-07_13h52.36.871,vts_reward_expectancy_bt,2022.2.4,Win32,59.17860102,Chrome,1536,960,,,,,0,1200,,,,,,,,,,,,,,,,,H,125,triangle,1,0,,,,,,,,,,,,,,,,repeat,letter,lettRpt,d,0.6728,Hi,,,,,,5,,,,,,,,low,25,0,25,0,1,,,,,,,,,
298228,2022-12-07_13h52.36.871,vts_reward_expectancy_bt,2022.2.4,Win32,59.17860102,Chrome,1536,960,,,,,0,1200,,,,,,,,,,,,,,,,,D,174,circle,1,0,,,,,,,,,,,,,,,,repeat,letter,lettRpt,d,1.3807,Hi,,,,,,5,,,,,,,,low,26,0,26,0,1,,,,,,,,,
298228,2022-12-07_13h52.36.871,vts_reward_expectancy_bt,2022.2.4,Win32,59.17860102,Chrome,1536,960,,,,,1,1201,,,,,,,,,,,,,,,,,W,139,hexagon,1,0,,,,,,,,,,,,,,,,repeat,letter,lettRpt,f,0.6821,Lo,,,,,,5,,,,,,,,low,27,0,27,0,1,,,,,,,,,
298228,2022-12-07_13h52.36.871,vts_reward_expectancy_bt,2022.2.4,Win32,59.17860102,Chrome,1536,960,,,,,10,1211,,,,,,,,,,,,,,,,,B,146,triangle,1,0,,,,,,,,,,,,,,,,repeat,letter,lettRpt,d,0.4508,Hi,,,,,,5,,,,,,,,low,28,0,28,0,1,,,,,,,,,
298228,2022-12-07_13h52.36.871,vts_reward_expectancy_bt,2022.2.4,Win32,59.17860102,Chrome,1536,960,,,,,10,1221,,,,,,,,,,,,,,,,,F,160,star,1,0,,,,,,,,,,,,,,,,switch,number,numSwt,k,0.6522,Lo,,,,,,5,,,,,,,,low,29,0,29,0,1,,,,,,,,,
298228,2022-12-07_13h52.36.871,vts_reward_expectancy_bt,2022.2.4,Win32,59.17860102,Chrome,1536,960,,,,,0,1221,,,,,,,,,,,,,,,,,S,132,circle,1,0,,,,,,,,,,,,,,,,repeat,number,numRpt,j,0.6491,Hi,,,,,,5,,,,,,,,low,30,0,30,0,1,,,,,,,,,
298228,2022-12-07_13h52.36.871,vts_reward_expectancy_bt,2022.2.4,Win32,59.17860102,Chrome,1536,960,,,,,0,1221,,,,,,,,,,,,,,,,,U,181,hexagon,0,0,,,,,,,,,,,,,,,,switch,letter,NA,d,0.5964,Hi,,,,,,5,,,,,,,,low,31,0,31,0,1,,,,,,,,,
298228,2022-12-07_13h52.36.871,vts_reward_expectancy_bt,2022.2.4,Win32,59.17860102,Chrome,1536,960,,,,,0,1221,,,,,,,,,,,,,,,,,H,125,triangle,1,1,,,,,,,,,,,,,,,,repeat,letter,lettRpt,d,0.6357,Hi,,,,,,6,,,,,,space,1.4883,low,0,0,0,0,1,,,,,,,,,
298228,2022-12-07_13h52.36.871,vts_reward_expectancy_bt,2022.2.4,Win32,59.17860102,Chrome,1536,960,,,,,1,1222,,,,,,,,,,,,,,,,,D,132,hexagon,1,0,,,,,,,,,,,,,,,,repeat,letter,lettRpt,d,0.4403,Lo,,,,,,6,,,,,,,,low,1,0,1,0,1,,,,,,,,,
298228,2022-12-07_13h52.36.871,vts_reward_expectancy_bt,2022.2.4,Win32,59.17860102,Chrome,1536,960,,,,,10,1232,,,,,,,,,,,,,,,,,F,167,circle,1,0,,,,,,,,,,,,,,,,switch,number,numSwt,k,0.4679,Hi,,,,,,6,,,,,,,,low,2,0,2,0,1,,,,,,,,,
298228,2022-12-07_13h52.36.871,vts_reward_expectancy_bt,2022.2.4,Win32,59.17860102,Chrome,1536,960,,,,,1,1233,,,,,,,,,,,,,,,,,S,146,star,1,0,,,,,,,,,,,,,,,,repeat,number,numRpt,j,0.6036,Lo,,,,,,6,,,,,,,,low,3,0,3,0,1,,,,,,,,,
298228,2022-12-07_13h52.36.871,vts_reward_expectancy_bt,2022.2.4,Win32,59.17860102,Chrome,1536,960,,,,,0,1233,,,,,,,,,,,,,,,,,W,174,triangle,1,0,,,,,,,,,,,,,,,,switch,letter,lettSwt,f,0.6348,Hi,,,,,,6,,,,,,,,low,4,0,4,0,1,,,,,,,,,
298228,2022-12-07_13h52.36.871,vts_reward_expectancy_bt,2022.2.4,Win32,59.17860102,Chrome,1536,960,,,,,0,1233,,,,,,,,,,,,,,,,,U,139,hexagon,0,0,,,,,,,,,,,,,,,,repeat,letter,NA,d,0.4697,Hi,,,,,,6,,,,,,,,low,5,0,5,0,1,,,,,,,,,
298228,2022-12-07_13h52.36.871,vts_reward_expectancy_bt,2022.2.4,Win32,59.17860102,Chrome,1536,960,,,,,10,1243,,,,,,,,,,,,,,,,,Y,160,circle,1,1,,,,,,,,,,,,,,,,repeat,letter,lettRpt,f,0.5587,Hi,,,,,,6,,,,,,,,low,6,0,6,0,1,,,,,,,,,
298228,2022-12-07_13h52.36.871,vts_reward_expectancy_bt,2022.2.4,Win32,59.17860102,Chrome,1536,960,,,,,1,1244,,,,,,,,,,,,,,,,,B,181,star,1,0,,,,,,,,,,,,,,,,switch,number,numSwt,k,0.4679,Lo,,,,,,6,,,,,,,,low,7,0,7,0,1,,,,,,,,,
298228,2022-12-07_13h52.36.871,vts_reward_expectancy_bt,2022.2.4,Win32,59.17860102,Chrome,1536,960,,,,,0,1244,,,,,,,,,,,,,,,,,H,125,hexagon,0,0,,,,,,,,,,,,,,,,switch,letter,NA,f,0.6674,Lo,,,,,,6,,,,,,,,low,8,0,8,0,1,,,,,,,,,
298228,2022-12-07_13h52.36.871,vts_reward_expectancy_bt,2022.2.4,Win32,59.17860102,Chrome,1536,960,,,,,1,1245,,,,,,,,,,,,,,,,,D,132,star,1,1,,,,,,,,,,,,,,,,repeat,letter,lettRpt,d,0.8175,Lo,,,,,,6,,,,,,,,low,9,0,9,0,1,,,,,,,,,
298228,2022-12-07_13h52.36.871,vts_reward_expectancy_bt,2022.2.4,Win32,59.17860102,Chrome,1536,960,,,,,0,1245,,,,,,,,,,,,,,,,,F,167,circle,1,0,,,,,,,,,,,,,,,,repeat,letter,lettRpt,d,0.6024,Hi,,,,,,6,,,,,,,,low,10,0,10,0,1,,,,,,,,,
298228,2022-12-07_13h52.36.871,vts_reward_expectancy_bt,2022.2.4,Win32,59.17860102,Chrome,1536,960,,,,,1,1246,,,,,,,,,,,,,,,,,S,146,triangle,1,0,,,,,,,,,,,,,,,,switch,number,numSwt,j,0.4841,Hi,,,,,,6,,,,,,,,low,11,0,11,0,1,,,,,,,,,
298228,2022-12-07_13h52.36.871,vts_reward_expectancy_bt,2022.2.4,Win32,59.17860102,Chrome,1536,960,,,,,1,1247,,,,,,,,,,,,,,,,,W,174,star,1,0,,,,,,,,,,,,,,,,repeat,number,numRpt,k,0.5297,Lo,,,,,,6,,,,,,,,low,12,0,12,0,1,,,,,,,,,
298228,2022-12-07_13h52.36.871,vts_reward_expectancy_bt,2022.2.4,Win32,59.17860102,Chrome,1536,960,,,,,1,1248,,,,,,,,,,,,,,,,,U,139,circle,1,0,,,,,,,,,,,,,,,,repeat,number,numRpt,j,0.485,Hi,,,,,,6,,,,,,,,low,13,0,13,0,1,,,,,,,,,
298228,2022-12-07_13h52.36.871,vts_reward_expectancy_bt,2022.2.4,Win32,59.17860102,Chrome,1536,960,,,,,1,1249,,,,,,,,,,,,,,,,,Y,160,hexagon,1,0,,,,,,,,,,,,,,,,repeat,number,numRpt,k,0.6544,Lo,,,,,,6,,,,,,,,low,14,0,14,0,1,,,,,,,,,
298228,2022-12-07_13h52.36.871,vts_reward_expectancy_bt,2022.2.4,Win32,59.17860102,Chrome,1536,960,,,,,10,1259,,,,,,,,,,,,,,,,,B,181,triangle,1,0,,,,,,,,,,,,,,,,switch,letter,lettSwt,d,0.5019,Hi,,,,,,6,,,,,,,,low,15,0,15,0,1,,,,,,,,,
298228,2022-12-07_13h52.36.871,vts_reward_expectancy_bt,2022.2.4,Win32,59.17860102,Chrome,1536,960,,,,,10,1269,,,,,,,,,,,,,,,,,H,167,triangle,1,0,,,,,,,,,,,,,,,,repeat,letter,lettRpt,d,0.5352,Hi,,,,,,6,,,,,,,,low,16,0,16,0,1,,,,,,,,,
