participant,date,expName,psychopyVersion,OS,frameRate,browser,xResolution,yResolution,key_resp.keys,key_resp.rt,training_resp.keys,training_resp.rt,points_trial,points_cumul,trainBlock,training.thisRepN,training.thisTrialN,training.thisN,training.thisIndex,training.ran,LTriangleOpac,LCircleOpac,LHexagonOpac,LStarOpac,RTriangleOpac,RCircleOpac,RHexagonOpac,RStarOpac,LShape_ID,RShape_ID,curr_topStim,curr_bottStim,curr_shape,acc,E1,target_resp_prac1.keys,target_resp_prac1.rt,pracBlock,task1_prac_trials.thisRepN,task1_prac_trials.thisTrialN,task1_prac_trials.thisN,task1_prac_trials.thisIndex,task1_prac_trials.ran,target_resp_prac2.keys,task2_praac_trials.thisRepN,task2_praac_trials.thisTrialN,task2_praac_trials.thisN,task2_praac_trials.thisIndex,task2_praac_trials.ran,target_resp_prac2.rt,alt,task,condition,target_resp.keys,target_resp.rt,rewCond,vts_practice_trials.thisRepN,vts_practice_trials.thisTrialN,vts_practice_trials.thisN,vts_practice_trials.thisIndex,vts_practice_trials.ran,blockNum,trials_norew.thisRepN,trials_norew.thisTrialN,trials_norew.thisN,trials_norew.thisIndex,trials_norew.ran,key_resp_2.keys,key_resp_2.rt,rewExpectancy,trials_rew.thisRepN,trials_rew.thisTrialN,trials_rew.thisN,trials_rew.thisIndex,trials_rew.ran,Q1,Q2,Q2_text,Q3,Q4,Q5_text,Q5,xRes,yRes
298210,2022-12-04_20h11.48.109,vts_reward_expectancy_bt,2022.2.4,Win32,59.84798612,Chrome,1920,1080,,,,,,,,,,,,,,,,,,,,,,,,,,,,,,,,,,,,,,,,,,,,,,,,,,,,,,,,,,,,,,,,,,,,,,,,,,,,
298210,2022-12-04_20h11.48.109,vts_reward_expectancy_bt,2022.2.4,Win32,59.84798612,Chrome,1920,1080,space,1.3956,,,,,,,,,,,,,,,,,,,,,,,,,,,,,,,,,,,,,,,,,,,,,,,,,,,,,,,,,,,,,,,,,,,,,,,,,,
298210,2022-12-04_20h11.48.109,vts_reward_expectancy_bt,2022.2.4,Win32,59.84798612,Chrome,1920,1080,,,,,,,,,,,,,,,,,,,,,,,,,,,,,,,,,,,,,,,,,,,,,,,,,,,,,,,,,,,,,,,,,,,,,,,,,,,,
298210,2022-12-04_20h11.48.109,vts_reward_expectancy_bt,2022.2.4,Win32,59.84798612,Chrome,1920,1080,,,a,2.3099,1,1,0,0,0,0,3,1,0,1,0,0,1,0,0,0,circle,triangle,,,,,,,,,,,,,,,,,,,,,,,,,,,,,,,,,,,,,,,,,,,,,,,,,,,,,,
298210,2022-12-04_20h11.48.109,vts_reward_expectancy_bt,2022.2.4,Win32,59.84798612,Chrome,1920,1080,,,a,1.5989,10,11,0,0,1,1,2,1,1,0,0,0,0,0,0,1,triangle,star,,,,,,,,,,,,,,,,,,,,,,,,,,,,,,,,,,,,,,,,,,,,,,,,,,,,,,
298210,2022-12-04_20h11.48.109,vts_reward_expectancy_bt,2022.2.4,Win32,59.84798612,Chrome,1920,1080,,,a,1.0309,1,12,0,0,2,2,5,1,0,1,0,0,0,0,0,1,circle,star,,,,,,,,,,,,,,,,,,,,,,,,,,,,,,,,,,,,,,,,,,,,,,,,,,,,,,
298210,2022-12-04_20h11.48.109,vts_reward_expectancy_bt,2022.2.4,Win32,59.84798612,Chrome,1920,1080,,,a,0.9943,10,22,0,0,3,3,6,1,0,0,1,0,1,0,0,0,hexagon,triangle,,,,,,,,,,,,,,,,,,,,,,,,,,,,,,,,,,,,,,,,,,,,,,,,,,,,,,
298210,2022-12-04_20h11.48.109,vts_reward_expectancy_bt,2022.2.4,Win32,59.84798612,Chrome,1920,1080,,,l,0.9489,10,32,0,0,4,4,11,1,0,0,0,1,0,0,1,0,star,hexagon,,,,,,,,,,,,,,,,,,,,,,,,,,,,,,,,,,,,,,,,,,,,,,,,,,,,,,
298210,2022-12-04_20h11.48.109,vts_reward_expectancy_bt,2022.2.4,Win32,59.84798612,Chrome,1920,1080,,,a,2.1622,1,33,0,0,5,5,7,1,0,0,1,0,0,1,0,0,hexagon,circle,,,,,,,,,,,,,,,,,,,,,,,,,,,,,,,,,,,,,,,,,,,,,,,,,,,,,,
298210,2022-12-04_20h11.48.109,vts_reward_expectancy_bt,2022.2.4,Win32,59.84798612,Chrome,1920,1080,,,l,1.8626,10,43,0,0,6,6,4,1,0,1,0,0,0,0,1,0,circle,hexagon,,,,,,,,,,,,,,,,,,,,,,,,,,,,,,,,,,,,,,,,,,,,,,,,,,,,,,
298210,2022-12-04_20h11.48.109,vts_reward_expectancy_bt,2022.2.4,Win32,59.84798612,Chrome,1920,1080,,,a,2.3912,1,44,0,0,7,7,1,1,1,0,0,0,0,0,1,0,triangle,hexagon,,,,,,,,,,,,,,,,,,,,,,,,,,,,,,,,,,,,,,,,,,,,,,,,,,,,,,
298210,2022-12-04_20h11.48.109,vts_reward_expectancy_bt,2022.2.4,Win32,59.84798612,Chrome,1920,1080,,,l,0.3211,1,45,0,0,8,8,9,1,0,0,0,1,1,0,0,0,star,triangle,,,,,,,,,,,,,,,,,,,,,,,,,,,,,,,,,,,,,,,,,,,,,,,,,,,,,,
298210,2022-12-04_20h11.48.109,vts_reward_expectancy_bt,2022.2.4,Win32,59.84798612,Chrome,1920,1080,,,a,5.6323,10,55,0,0,9,9,0,1,1,0,0,0,0,1,0,0,triangle,circle,,,,,,,,,,,,,,,,,,,,,,,,,,,,,,,,,,,,,,,,,,,,,,,,,,,,,,
298210,2022-12-04_20h11.48.109,vts_reward_expectancy_bt,2022.2.4,Win32,59.84798612,Chrome,1920,1080,,,a,1.2433,10,65,0,0,10,10,8,1,0,0,1,0,0,0,0,1,hexagon,star,,,,,,,,,,,,,,,,,,,,,,,,,,,,,,,,,,,,,,,,,,,,,,,,,,,,,,
298210,2022-12-04_20h11.48.109,vts_reward_expectancy_bt,2022.2.4,Win32,59.84798612,Chrome,1920,1080,,,a,0.9811,10,75,0,0,11,11,10,1,0,0,0,1,0,1,0,0,star ,circle,,,,,,,,,,,,,,,,,,,,,,,,,,,,,,,,,,,,,,,,,,,,,,,,,,,,,,
298210,2022-12-04_20h11.48.109,vts_reward_expectancy_bt,2022.2.4,Win32,59.84798612,Chrome,1920,1080,,,a,0.737,1,76,0,1,0,12,4,1,0,1,0,0,0,0,1,0,circle,hexagon,,,,,,,,,,,,,,,,,,,,,,,,,,,,,,,,,,,,,,,,,,,,,,,,,,,,,,
298210,2022-12-04_20h11.48.109,vts_reward_expectancy_bt,2022.2.4,Win32,59.84798612,Chrome,1920,1080,,,a,0.9903,1,77,0,1,1,13,11,1,0,0,0,1,0,0,1,0,star,hexagon,,,,,,,,,,,,,,,,,,,,,,,,,,,,,,,,,,,,,,,,,,,,,,,,,,,,,,
298210,2022-12-04_20h11.48.109,vts_reward_expectancy_bt,2022.2.4,Win32,59.84798612,Chrome,1920,1080,,,a,0.5629,10,87,0,1,2,14,9,1,0,0,0,1,1,0,0,0,star,triangle,,,,,,,,,,,,,,,,,,,,,,,,,,,,,,,,,,,,,,,,,,,,,,,,,,,,,,
298210,2022-12-04_20h11.48.109,vts_reward_expectancy_bt,2022.2.4,Win32,59.84798612,Chrome,1920,1080,,,l,11.7224,10,97,0,1,3,15,1,1,1,0,0,0,0,0,1,0,triangle,hexagon,,,,,,,,,,,,,,,,,,,,,,,,,,,,,,,,,,,,,,,,,,,,,,,,,,,,,,
298210,2022-12-04_20h11.48.109,vts_reward_expectancy_bt,2022.2.4,Win32,59.84798612,Chrome,1920,1080,,,a,1.5277,10,107,0,1,4,16,0,1,1,0,0,0,0,1,0,0,triangle,circle,,,,,,,,,,,,,,,,,,,,,,,,,,,,,,,,,,,,,,,,,,,,,,,,,,,,,,
298210,2022-12-04_20h11.48.109,vts_reward_expectancy_bt,2022.2.4,Win32,59.84798612,Chrome,1920,1080,,,a,1.1608,1,108,0,1,5,17,3,1,0,1,0,0,1,0,0,0,circle,triangle,,,,,,,,,,,,,,,,,,,,,,,,,,,,,,,,,,,,,,,,,,,,,,,,,,,,,,
298210,2022-12-04_20h11.48.109,vts_reward_expectancy_bt,2022.2.4,Win32,59.84798612,Chrome,1920,1080,,,a,2.1247,1,109,0,1,6,18,10,1,0,0,0,1,0,1,0,0,star ,circle,,,,,,,,,,,,,,,,,,,,,,,,,,,,,,,,,,,,,,,,,,,,,,,,,,,,,,
298210,2022-12-04_20h11.48.109,vts_reward_expectancy_bt,2022.2.4,Win32,59.84798612,Chrome,1920,1080,,,a,1.859,1,110,0,1,7,19,2,1,1,0,0,0,0,0,0,1,triangle,star,,,,,,,,,,,,,,,,,,,,,,,,,,,,,,,,,,,,,,,,,,,,,,,,,,,,,,
298210,2022-12-04_20h11.48.109,vts_reward_expectancy_bt,2022.2.4,Win32,59.84798612,Chrome,1920,1080,,,a,0.6091,1,111,0,1,8,20,5,1,0,1,0,0,0,0,0,1,circle,star,,,,,,,,,,,,,,,,,,,,,,,,,,,,,,,,,,,,,,,,,,,,,,,,,,,,,,
298210,2022-12-04_20h11.48.109,vts_reward_expectancy_bt,2022.2.4,Win32,59.84798612,Chrome,1920,1080,,,a,1.1702,1,112,0,1,9,21,8,1,0,0,1,0,0,0,0,1,hexagon,star,,,,,,,,,,,,,,,,,,,,,,,,,,,,,,,,,,,,,,,,,,,,,,,,,,,,,,
298210,2022-12-04_20h11.48.109,vts_reward_expectancy_bt,2022.2.4,Win32,59.84798612,Chrome,1920,1080,,,a,0.7287,10,122,0,1,10,22,6,1,0,0,1,0,1,0,0,0,hexagon,triangle,,,,,,,,,,,,,,,,,,,,,,,,,,,,,,,,,,,,,,,,,,,,,,,,,,,,,,
298210,2022-12-04_20h11.48.109,vts_reward_expectancy_bt,2022.2.4,Win32,59.84798612,Chrome,1920,1080,,,l,1.0614,1,123,0,1,11,23,7,1,0,0,1,0,0,1,0,0,hexagon,circle,,,,,,,,,,,,,,,,,,,,,,,,,,,,,,,,,,,,,,,,,,,,,,,,,,,,,,
298210,2022-12-04_20h11.48.109,vts_reward_expectancy_bt,2022.2.4,Win32,59.84798612,Chrome,1920,1080,,,l,0.9273,10,133,0,2,0,24,3,1,0,1,0,0,1,0,0,0,circle,triangle,,,,,,,,,,,,,,,,,,,,,,,,,,,,,,,,,,,,,,,,,,,,,,,,,,,,,,
298210,2022-12-04_20h11.48.109,vts_reward_expectancy_bt,2022.2.4,Win32,59.84798612,Chrome,1920,1080,,,l,1.5437,1,134,0,2,1,25,2,1,1,0,0,0,0,0,0,1,triangle,star,,,,,,,,,,,,,,,,,,,,,,,,,,,,,,,,,,,,,,,,,,,,,,,,,,,,,,
298210,2022-12-04_20h11.48.109,vts_reward_expectancy_bt,2022.2.4,Win32,59.84798612,Chrome,1920,1080,,,a,1.3738,1,135,0,2,2,26,10,1,0,0,0,1,0,1,0,0,star ,circle,,,,,,,,,,,,,,,,,,,,,,,,,,,,,,,,,,,,,,,,,,,,,,,,,,,,,,
298210,2022-12-04_20h11.48.109,vts_reward_expectancy_bt,2022.2.4,Win32,59.84798612,Chrome,1920,1080,,,a,1.1804,10,145,0,2,3,27,6,1,0,0,1,0,1,0,0,0,hexagon,triangle,,,,,,,,,,,,,,,,,,,,,,,,,,,,,,,,,,,,,,,,,,,,,,,,,,,,,,
298210,2022-12-04_20h11.48.109,vts_reward_expectancy_bt,2022.2.4,Win32,59.84798612,Chrome,1920,1080,,,l,0.8398,1,146,0,2,4,28,1,1,1,0,0,0,0,0,1,0,triangle,hexagon,,,,,,,,,,,,,,,,,,,,,,,,,,,,,,,,,,,,,,,,,,,,,,,,,,,,,,
298210,2022-12-04_20h11.48.109,vts_reward_expectancy_bt,2022.2.4,Win32,59.84798612,Chrome,1920,1080,,,a,1.0667,1,147,0,2,5,29,9,1,0,0,0,1,1,0,0,0,star,triangle,,,,,,,,,,,,,,,,,,,,,,,,,,,,,,,,,,,,,,,,,,,,,,,,,,,,,,
298210,2022-12-04_20h11.48.109,vts_reward_expectancy_bt,2022.2.4,Win32,59.84798612,Chrome,1920,1080,,,a,1.1145,10,157,0,2,6,30,0,1,1,0,0,0,0,1,0,0,triangle,circle,,,,,,,,,,,,,,,,,,,,,,,,,,,,,,,,,,,,,,,,,,,,,,,,,,,,,,
298210,2022-12-04_20h11.48.109,vts_reward_expectancy_bt,2022.2.4,Win32,59.84798612,Chrome,1920,1080,,,a,0.8181,1,158,0,2,7,31,5,1,0,1,0,0,0,0,0,1,circle,star,,,,,,,,,,,,,,,,,,,,,,,,,,,,,,,,,,,,,,,,,,,,,,,,,,,,,,
298210,2022-12-04_20h11.48.109,vts_reward_expectancy_bt,2022.2.4,Win32,59.84798612,Chrome,1920,1080,,,a,1.4517,10,168,0,2,8,32,8,1,0,0,1,0,0,0,0,1,hexagon,star,,,,,,,,,,,,,,,,,,,,,,,,,,,,,,,,,,,,,,,,,,,,,,,,,,,,,,
298210,2022-12-04_20h11.48.109,vts_reward_expectancy_bt,2022.2.4,Win32,59.84798612,Chrome,1920,1080,,,l,0.8427,10,178,0,2,9,33,4,1,0,1,0,0,0,0,1,0,circle,hexagon,,,,,,,,,,,,,,,,,,,,,,,,,,,,,,,,,,,,,,,,,,,,,,,,,,,,,,
298210,2022-12-04_20h11.48.109,vts_reward_expectancy_bt,2022.2.4,Win32,59.84798612,Chrome,1920,1080,,,a,0.735,1,179,0,2,10,34,7,1,0,0,1,0,0,1,0,0,hexagon,circle,,,,,,,,,,,,,,,,,,,,,,,,,,,,,,,,,,,,,,,,,,,,,,,,,,,,,,
298210,2022-12-04_20h11.48.109,vts_reward_expectancy_bt,2022.2.4,Win32,59.84798612,Chrome,1920,1080,,,l,0.5496,1,180,0,2,11,35,11,1,0,0,0,1,0,0,1,0,star,hexagon,,,,,,,,,,,,,,,,,,,,,,,,,,,,,,,,,,,,,,,,,,,,,,,,,,,,,,
298210,2022-12-04_20h11.48.109,vts_reward_expectancy_bt,2022.2.4,Win32,59.84798612,Chrome,1920,1080,,,l,1.7435,1,181,1,0,0,0,11,1,0,0,0,1,0,0,1,0,star,hexagon,,,,,,,,,,,,,,,,,,,,,,,,,,,,,,,,,,,,,,,,,,,,,,,,,,,,,,
298210,2022-12-04_20h11.48.109,vts_reward_expectancy_bt,2022.2.4,Win32,59.84798612,Chrome,1920,1080,,,a,1.0378,10,191,1,0,1,1,7,1,0,0,1,0,0,1,0,0,hexagon,circle,,,,,,,,,,,,,,,,,,,,,,,,,,,,,,,,,,,,,,,,,,,,,,,,,,,,,,
298210,2022-12-04_20h11.48.109,vts_reward_expectancy_bt,2022.2.4,Win32,59.84798612,Chrome,1920,1080,,,l,1.3858,10,201,1,0,2,2,8,1,0,0,1,0,0,0,0,1,hexagon,star,,,,,,,,,,,,,,,,,,,,,,,,,,,,,,,,,,,,,,,,,,,,,,,,,,,,,,
298210,2022-12-04_20h11.48.109,vts_reward_expectancy_bt,2022.2.4,Win32,59.84798612,Chrome,1920,1080,,,l,0.7955,1,202,1,0,3,3,3,1,0,1,0,0,1,0,0,0,circle,triangle,,,,,,,,,,,,,,,,,,,,,,,,,,,,,,,,,,,,,,,,,,,,,,,,,,,,,,
298210,2022-12-04_20h11.48.109,vts_reward_expectancy_bt,2022.2.4,Win32,59.84798612,Chrome,1920,1080,,,a,1.1117,10,212,1,0,4,4,6,1,0,0,1,0,1,0,0,0,hexagon,triangle,,,,,,,,,,,,,,,,,,,,,,,,,,,,,,,,,,,,,,,,,,,,,,,,,,,,,,
298210,2022-12-04_20h11.48.109,vts_reward_expectancy_bt,2022.2.4,Win32,59.84798612,Chrome,1920,1080,,,l,0.8457,10,222,1,0,5,5,2,1,1,0,0,0,0,0,0,1,triangle,star,,,,,,,,,,,,,,,,,,,,,,,,,,,,,,,,,,,,,,,,,,,,,,,,,,,,,,
298210,2022-12-04_20h11.48.109,vts_reward_expectancy_bt,2022.2.4,Win32,59.84798612,Chrome,1920,1080,,,l,1.1566,1,223,1,0,6,6,4,1,0,1,0,0,0,0,1,0,circle,hexagon,,,,,,,,,,,,,,,,,,,,,,,,,,,,,,,,,,,,,,,,,,,,,,,,,,,,,,
298210,2022-12-04_20h11.48.109,vts_reward_expectancy_bt,2022.2.4,Win32,59.84798612,Chrome,1920,1080,,,l,0.7476,1,224,1,0,7,7,5,1,0,1,0,0,0,0,0,1,circle,star,,,,,,,,,,,,,,,,,,,,,,,,,,,,,,,,,,,,,,,,,,,,,,,,,,,,,,
298210,2022-12-04_20h11.48.109,vts_reward_expectancy_bt,2022.2.4,Win32,59.84798612,Chrome,1920,1080,,,a,0.6815,1,225,1,0,8,8,10,1,0,0,0,1,0,1,0,0,star ,circle,,,,,,,,,,,,,,,,,,,,,,,,,,,,,,,,,,,,,,,,,,,,,,,,,,,,,,
298210,2022-12-04_20h11.48.109,vts_reward_expectancy_bt,2022.2.4,Win32,59.84798612,Chrome,1920,1080,,,l,0.7223,1,226,1,0,9,9,0,1,1,0,0,0,0,1,0,0,triangle,circle,,,,,,,,,,,,,,,,,,,,,,,,,,,,,,,,,,,,,,,,,,,,,,,,,,,,,,
298210,2022-12-04_20h11.48.109,vts_reward_expectancy_bt,2022.2.4,Win32,59.84798612,Chrome,1920,1080,,,l,0.9849,1,227,1,0,10,10,1,1,1,0,0,0,0,0,1,0,triangle,hexagon,,,,,,,,,,,,,,,,,,,,,,,,,,,,,,,,,,,,,,,,,,,,,,,,,,,,,,
298210,2022-12-04_20h11.48.109,vts_reward_expectancy_bt,2022.2.4,Win32,59.84798612,Chrome,1920,1080,,,a,1.0045,10,237,1,0,11,11,9,1,0,0,0,1,1,0,0,0,star,triangle,,,,,,,,,,,,,,,,,,,,,,,,,,,,,,,,,,,,,,,,,,,,,,,,,,,,,,
298210,2022-12-04_20h11.48.109,vts_reward_expectancy_bt,2022.2.4,Win32,59.84798612,Chrome,1920,1080,,,l,1.3082,1,238,1,1,0,12,1,1,1,0,0,0,0,0,1,0,triangle,hexagon,,,,,,,,,,,,,,,,,,,,,,,,,,,,,,,,,,,,,,,,,,,,,,,,,,,,,,
298210,2022-12-04_20h11.48.109,vts_reward_expectancy_bt,2022.2.4,Win32,59.84798612,Chrome,1920,1080,,,a,0.7189,10,248,1,1,1,13,7,1,0,0,1,0,0,1,0,0,hexagon,circle,,,,,,,,,,,,,,,,,,,,,,,,,,,,,,,,,,,,,,,,,,,,,,,,,,,,,,
298210,2022-12-04_20h11.48.109,vts_reward_expectancy_bt,2022.2.4,Win32,59.84798612,Chrome,1920,1080,,,a,0.7263,10,258,1,1,2,14,9,1,0,0,0,1,1,0,0,0,star,triangle,,,,,,,,,,,,,,,,,,,,,,,,,,,,,,,,,,,,,,,,,,,,,,,,,,,,,,
298210,2022-12-04_20h11.48.109,vts_reward_expectancy_bt,2022.2.4,Win32,59.84798612,Chrome,1920,1080,,,l,1.1539,10,268,1,1,3,15,5,1,0,1,0,0,0,0,0,1,circle,star,,,,,,,,,,,,,,,,,,,,,,,,,,,,,,,,,,,,,,,,,,,,,,,,,,,,,,
298210,2022-12-04_20h11.48.109,vts_reward_expectancy_bt,2022.2.4,Win32,59.84798612,Chrome,1920,1080,,,l,0.5693,1,269,1,1,4,16,3,1,0,1,0,0,1,0,0,0,circle,triangle,,,,,,,,,,,,,,,,,,,,,,,,,,,,,,,,,,,,,,,,,,,,,,,,,,,,,,
298210,2022-12-04_20h11.48.109,vts_reward_expectancy_bt,2022.2.4,Win32,59.84798612,Chrome,1920,1080,,,a,0.8789,10,279,1,1,5,17,11,1,0,0,0,1,0,0,1,0,star,hexagon,,,,,,,,,,,,,,,,,,,,,,,,,,,,,,,,,,,,,,,,,,,,,,,,,,,,,,
298210,2022-12-04_20h11.48.109,vts_reward_expectancy_bt,2022.2.4,Win32,59.84798612,Chrome,1920,1080,,,a,0.7195,10,289,1,1,6,18,6,1,0,0,1,0,1,0,0,0,hexagon,triangle,,,,,,,,,,,,,,,,,,,,,,,,,,,,,,,,,,,,,,,,,,,,,,,,,,,,,,
298210,2022-12-04_20h11.48.109,vts_reward_expectancy_bt,2022.2.4,Win32,59.84798612,Chrome,1920,1080,,,a,0.6789,10,299,1,1,7,19,10,1,0,0,0,1,0,1,0,0,star ,circle,,,,,,,,,,,,,,,,,,,,,,,,,,,,,,,,,,,,,,,,,,,,,,,,,,,,,,
298210,2022-12-04_20h11.48.109,vts_reward_expectancy_bt,2022.2.4,Win32,59.84798612,Chrome,1920,1080,,,l,0.6795,10,309,1,1,8,20,8,1,0,0,1,0,0,0,0,1,hexagon,star,,,,,,,,,,,,,,,,,,,,,,,,,,,,,,,,,,,,,,,,,,,,,,,,,,,,,,
298210,2022-12-04_20h11.48.109,vts_reward_expectancy_bt,2022.2.4,Win32,59.84798612,Chrome,1920,1080,,,l,1.4443,1,310,1,1,9,21,4,1,0,1,0,0,0,0,1,0,circle,hexagon,,,,,,,,,,,,,,,,,,,,,,,,,,,,,,,,,,,,,,,,,,,,,,,,,,,,,,
298210,2022-12-04_20h11.48.109,vts_reward_expectancy_bt,2022.2.4,Win32,59.84798612,Chrome,1920,1080,,,a,1.2603,1,311,1,1,10,22,0,1,1,0,0,0,0,1,0,0,triangle,circle,,,,,,,,,,,,,,,,,,,,,,,,,,,,,,,,,,,,,,,,,,,,,,,,,,,,,,
298210,2022-12-04_20h11.48.109,vts_reward_expectancy_bt,2022.2.4,Win32,59.84798612,Chrome,1920,1080,,,l,1.9589,10,321,1,1,11,23,2,1,1,0,0,0,0,0,0,1,triangle,star,,,,,,,,,,,,,,,,,,,,,,,,,,,,,,,,,,,,,,,,,,,,,,,,,,,,,,
298210,2022-12-04_20h11.48.109,vts_reward_expectancy_bt,2022.2.4,Win32,59.84798612,Chrome,1920,1080,,,l,0.684,1,322,1,2,0,24,8,1,0,0,1,0,0,0,0,1,hexagon,star,,,,,,,,,,,,,,,,,,,,,,,,,,,,,,,,,,,,,,,,,,,,,,,,,,,,,,
298210,2022-12-04_20h11.48.109,vts_reward_expectancy_bt,2022.2.4,Win32,59.84798612,Chrome,1920,1080,,,l,0.618,10,332,1,2,1,25,5,1,0,1,0,0,0,0,0,1,circle,star,,,,,,,,,,,,,,,,,,,,,,,,,,,,,,,,,,,,,,,,,,,,,,,,,,,,,,
298210,2022-12-04_20h11.48.109,vts_reward_expectancy_bt,2022.2.4,Win32,59.84798612,Chrome,1920,1080,,,l,0.6654,1,333,1,2,2,26,2,1,1,0,0,0,0,0,0,1,triangle,star,,,,,,,,,,,,,,,,,,,,,,,,,,,,,,,,,,,,,,,,,,,,,,,,,,,,,,
298210,2022-12-04_20h11.48.109,vts_reward_expectancy_bt,2022.2.4,Win32,59.84798612,Chrome,1920,1080,,,a,1.2491,1,334,1,2,3,27,11,1,0,0,0,1,0,0,1,0,star,hexagon,,,,,,,,,,,,,,,,,,,,,,,,,,,,,,,,,,,,,,,,,,,,,,,,,,,,,,
298210,2022-12-04_20h11.48.109,vts_reward_expectancy_bt,2022.2.4,Win32,59.84798612,Chrome,1920,1080,,,l,0.6993,1,335,1,2,4,28,1,1,1,0,0,0,0,0,1,0,triangle,hexagon,,,,,,,,,,,,,,,,,,,,,,,,,,,,,,,,,,,,,,,,,,,,,,,,,,,,,,
298210,2022-12-04_20h11.48.109,vts_reward_expectancy_bt,2022.2.4,Win32,59.84798612,Chrome,1920,1080,,,l,0.5938,10,345,1,2,5,29,3,1,0,1,0,0,1,0,0,0,circle,triangle,,,,,,,,,,,,,,,,,,,,,,,,,,,,,,,,,,,,,,,,,,,,,,,,,,,,,,
298210,2022-12-04_20h11.48.109,vts_reward_expectancy_bt,2022.2.4,Win32,59.84798612,Chrome,1920,1080,,,a,0.8505,1,346,1,2,6,30,7,1,0,0,1,0,0,1,0,0,hexagon,circle,,,,,,,,,,,,,,,,,,,,,,,,,,,,,,,,,,,,,,,,,,,,,,,,,,,,,,
298210,2022-12-04_20h11.48.109,vts_reward_expectancy_bt,2022.2.4,Win32,59.84798612,Chrome,1920,1080,,,a,0.665,10,356,1,2,7,31,9,1,0,0,0,1,1,0,0,0,star,triangle,,,,,,,,,,,,,,,,,,,,,,,,,,,,,,,,,,,,,,,,,,,,,,,,,,,,,,
298210,2022-12-04_20h11.48.109,vts_reward_expectancy_bt,2022.2.4,Win32,59.84798612,Chrome,1920,1080,,,a,0.5769,10,366,1,2,8,32,10,1,0,0,0,1,0,1,0,0,star ,circle,,,,,,,,,,,,,,,,,,,,,,,,,,,,,,,,,,,,,,,,,,,,,,,,,,,,,,
298210,2022-12-04_20h11.48.109,vts_reward_expectancy_bt,2022.2.4,Win32,59.84798612,Chrome,1920,1080,,,a,0.6127,1,367,1,2,9,33,0,1,1,0,0,0,0,1,0,0,triangle,circle,,,,,,,,,,,,,,,,,,,,,,,,,,,,,,,,,,,,,,,,,,,,,,,,,,,,,,
298210,2022-12-04_20h11.48.109,vts_reward_expectancy_bt,2022.2.4,Win32,59.84798612,Chrome,1920,1080,,,a,0.5156,10,377,1,2,10,34,6,1,0,0,1,0,1,0,0,0,hexagon,triangle,,,,,,,,,,,,,,,,,,,,,,,,,,,,,,,,,,,,,,,,,,,,,,,,,,,,,,
298210,2022-12-04_20h11.48.109,vts_reward_expectancy_bt,2022.2.4,Win32,59.84798612,Chrome,1920,1080,,,l,0.6096,1,378,1,2,11,35,4,1,0,1,0,0,0,0,1,0,circle,hexagon,,,,,,,,,,,,,,,,,,,,,,,,,,,,,,,,,,,,,,,,,,,,,,,,,,,,,,
298210,2022-12-04_20h11.48.109,vts_reward_expectancy_bt,2022.2.4,Win32,59.84798612,Chrome,1920,1080,,,a,1.0047,10,388,2,0,0,0,6,1,0,0,1,0,1,0,0,0,hexagon,triangle,,,,,,,,,,,,,,,,,,,,,,,,,,,,,,,,,,,,,,,,,,,,,,,,,,,,,,
298210,2022-12-04_20h11.48.109,vts_reward_expectancy_bt,2022.2.4,Win32,59.84798612,Chrome,1920,1080,,,a,0.5763,1,389,2,0,1,1,9,1,0,0,0,1,1,0,0,0,star,triangle,,,,,,,,,,,,,,,,,,,,,,,,,,,,,,,,,,,,,,,,,,,,,,,,,,,,,,
298210,2022-12-04_20h11.48.109,vts_reward_expectancy_bt,2022.2.4,Win32,59.84798612,Chrome,1920,1080,,,a,0.5798,1,390,2,0,2,2,10,1,0,0,0,1,0,1,0,0,star ,circle,,,,,,,,,,,,,,,,,,,,,,,,,,,,,,,,,,,,,,,,,,,,,,,,,,,,,,
298210,2022-12-04_20h11.48.109,vts_reward_expectancy_bt,2022.2.4,Win32,59.84798612,Chrome,1920,1080,,,a,0.8637,1,391,2,0,3,3,0,1,1,0,0,0,0,1,0,0,triangle,circle,,,,,,,,,,,,,,,,,,,,,,,,,,,,,,,,,,,,,,,,,,,,,,,,,,,,,,
298210,2022-12-04_20h11.48.109,vts_reward_expectancy_bt,2022.2.4,Win32,59.84798612,Chrome,1920,1080,,,a,0.7047,10,401,2,0,4,4,7,1,0,0,1,0,0,1,0,0,hexagon,circle,,,,,,,,,,,,,,,,,,,,,,,,,,,,,,,,,,,,,,,,,,,,,,,,,,,,,,
298210,2022-12-04_20h11.48.109,vts_reward_expectancy_bt,2022.2.4,Win32,59.84798612,Chrome,1920,1080,,,l,0.7337,10,411,2,0,5,5,8,1,0,0,1,0,0,0,0,1,hexagon,star,,,,,,,,,,,,,,,,,,,,,,,,,,,,,,,,,,,,,,,,,,,,,,,,,,,,,,
298210,2022-12-04_20h11.48.109,vts_reward_expectancy_bt,2022.2.4,Win32,59.84798612,Chrome,1920,1080,,,a,0.5514,1,412,2,0,6,6,3,1,0,1,0,0,1,0,0,0,circle,triangle,,,,,,,,,,,,,,,,,,,,,,,,,,,,,,,,,,,,,,,,,,,,,,,,,,,,,,
298210,2022-12-04_20h11.48.109,vts_reward_expectancy_bt,2022.2.4,Win32,59.84798612,Chrome,1920,1080,,,l,0.5326,10,422,2,0,7,7,2,1,1,0,0,0,0,0,0,1,triangle,star,,,,,,,,,,,,,,,,,,,,,,,,,,,,,,,,,,,,,,,,,,,,,,,,,,,,,,
298210,2022-12-04_20h11.48.109,vts_reward_expectancy_bt,2022.2.4,Win32,59.84798612,Chrome,1920,1080,,,a,0.7625,10,432,2,0,8,8,11,1,0,0,0,1,0,0,1,0,star,hexagon,,,,,,,,,,,,,,,,,,,,,,,,,,,,,,,,,,,,,,,,,,,,,,,,,,,,,,
298210,2022-12-04_20h11.48.109,vts_reward_expectancy_bt,2022.2.4,Win32,59.84798612,Chrome,1920,1080,,,l,0.9287,1,433,2,0,9,9,5,1,0,1,0,0,0,0,0,1,circle,star,,,,,,,,,,,,,,,,,,,,,,,,,,,,,,,,,,,,,,,,,,,,,,,,,,,,,,
298210,2022-12-04_20h11.48.109,vts_reward_expectancy_bt,2022.2.4,Win32,59.84798612,Chrome,1920,1080,,,l,1.1512,10,443,2,0,10,10,1,1,1,0,0,0,0,0,1,0,triangle,hexagon,,,,,,,,,,,,,,,,,,,,,,,,,,,,,,,,,,,,,,,,,,,,,,,,,,,,,,
298210,2022-12-04_20h11.48.109,vts_reward_expectancy_bt,2022.2.4,Win32,59.84798612,Chrome,1920,1080,,,l,0.988,10,453,2,0,11,11,4,1,0,1,0,0,0,0,1,0,circle,hexagon,,,,,,,,,,,,,,,,,,,,,,,,,,,,,,,,,,,,,,,,,,,,,,,,,,,,,,
298210,2022-12-04_20h11.48.109,vts_reward_expectancy_bt,2022.2.4,Win32,59.84798612,Chrome,1920,1080,,,a,0.7289,10,463,2,1,0,12,9,1,0,0,0,1,1,0,0,0,star,triangle,,,,,,,,,,,,,,,,,,,,,,,,,,,,,,,,,,,,,,,,,,,,,,,,,,,,,,
298210,2022-12-04_20h11.48.109,vts_reward_expectancy_bt,2022.2.4,Win32,59.84798612,Chrome,1920,1080,,,a,0.805,10,473,2,1,1,13,7,1,0,0,1,0,0,1,0,0,hexagon,circle,,,,,,,,,,,,,,,,,,,,,,,,,,,,,,,,,,,,,,,,,,,,,,,,,,,,,,
298210,2022-12-04_20h11.48.109,vts_reward_expectancy_bt,2022.2.4,Win32,59.84798612,Chrome,1920,1080,,,l,0.6015,1,474,2,1,2,14,1,1,1,0,0,0,0,0,1,0,triangle,hexagon,,,,,,,,,,,,,,,,,,,,,,,,,,,,,,,,,,,,,,,,,,,,,,,,,,,,,,
298210,2022-12-04_20h11.48.109,vts_reward_expectancy_bt,2022.2.4,Win32,59.84798612,Chrome,1920,1080,,,a,1.1792,1,475,2,1,3,15,6,1,0,0,1,0,1,0,0,0,hexagon,triangle,,,,,,,,,,,,,,,,,,,,,,,,,,,,,,,,,,,,,,,,,,,,,,,,,,,,,,
298210,2022-12-04_20h11.48.109,vts_reward_expectancy_bt,2022.2.4,Win32,59.84798612,Chrome,1920,1080,,,a,1.0585,10,485,2,1,4,16,0,1,1,0,0,0,0,1,0,0,triangle,circle,,,,,,,,,,,,,,,,,,,,,,,,,,,,,,,,,,,,,,,,,,,,,,,,,,,,,,
298210,2022-12-04_20h11.48.109,vts_reward_expectancy_bt,2022.2.4,Win32,59.84798612,Chrome,1920,1080,,,a,0.912,1,486,2,1,5,17,11,1,0,0,0,1,0,0,1,0,star,hexagon,,,,,,,,,,,,,,,,,,,,,,,,,,,,,,,,,,,,,,,,,,,,,,,,,,,,,,
298210,2022-12-04_20h11.48.109,vts_reward_expectancy_bt,2022.2.4,Win32,59.84798612,Chrome,1920,1080,,,l,0.7676,1,487,2,1,6,18,2,1,1,0,0,0,0,0,0,1,triangle,star,,,,,,,,,,,,,,,,,,,,,,,,,,,,,,,,,,,,,,,,,,,,,,,,,,,,,,
298210,2022-12-04_20h11.48.109,vts_reward_expectancy_bt,2022.2.4,Win32,59.84798612,Chrome,1920,1080,,,a,0.5865,1,488,2,1,7,19,10,1,0,0,0,1,0,1,0,0,star ,circle,,,,,,,,,,,,,,,,,,,,,,,,,,,,,,,,,,,,,,,,,,,,,,,,,,,,,,
298210,2022-12-04_20h11.48.109,vts_reward_expectancy_bt,2022.2.4,Win32,59.84798612,Chrome,1920,1080,,,l,0.7483,10,498,2,1,8,20,8,1,0,0,1,0,0,0,0,1,hexagon,star,,,,,,,,,,,,,,,,,,,,,,,,,,,,,,,,,,,,,,,,,,,,,,,,,,,,,,
298210,2022-12-04_20h11.48.109,vts_reward_expectancy_bt,2022.2.4,Win32,59.84798612,Chrome,1920,1080,,,l,1.5192,10,508,2,1,9,21,3,1,0,1,0,0,1,0,0,0,circle,triangle,,,,,,,,,,,,,,,,,,,,,,,,,,,,,,,,,,,,,,,,,,,,,,,,,,,,,,
298210,2022-12-04_20h11.48.109,vts_reward_expectancy_bt,2022.2.4,Win32,59.84798612,Chrome,1920,1080,,,l,1.1661,1,509,2,1,10,22,4,1,0,1,0,0,0,0,1,0,circle,hexagon,,,,,,,,,,,,,,,,,,,,,,,,,,,,,,,,,,,,,,,,,,,,,,,,,,,,,,
298210,2022-12-04_20h11.48.109,vts_reward_expectancy_bt,2022.2.4,Win32,59.84798612,Chrome,1920,1080,,,l,0.7783,1,510,2,1,11,23,5,1,0,1,0,0,0,0,0,1,circle,star,,,,,,,,,,,,,,,,,,,,,,,,,,,,,,,,,,,,,,,,,,,,,,,,,,,,,,
298210,2022-12-04_20h11.48.109,vts_reward_expectancy_bt,2022.2.4,Win32,59.84798612,Chrome,1920,1080,,,a,0.5908,1,511,2,2,0,24,9,1,0,0,0,1,1,0,0,0,star,triangle,,,,,,,,,,,,,,,,,,,,,,,,,,,,,,,,,,,,,,,,,,,,,,,,,,,,,,
298210,2022-12-04_20h11.48.109,vts_reward_expectancy_bt,2022.2.4,Win32,59.84798612,Chrome,1920,1080,,,l,0.7152,10,521,2,2,1,25,8,1,0,0,1,0,0,0,0,1,hexagon,star,,,,,,,,,,,,,,,,,,,,,,,,,,,,,,,,,,,,,,,,,,,,,,,,,,,,,,
298210,2022-12-04_20h11.48.109,vts_reward_expectancy_bt,2022.2.4,Win32,59.84798612,Chrome,1920,1080,,,a,1.2555,10,531,2,2,2,26,1,1,1,0,0,0,0,0,1,0,triangle,hexagon,,,,,,,,,,,,,,,,,,,,,,,,,,,,,,,,,,,,,,,,,,,,,,,,,,,,,,
298210,2022-12-04_20h11.48.109,vts_reward_expectancy_bt,2022.2.4,Win32,59.84798612,Chrome,1920,1080,,,a,0.6512,1,532,2,2,3,27,11,1,0,0,0,1,0,0,1,0,star,hexagon,,,,,,,,,,,,,,,,,,,,,,,,,,,,,,,,,,,,,,,,,,,,,,,,,,,,,,
298210,2022-12-04_20h11.48.109,vts_reward_expectancy_bt,2022.2.4,Win32,59.84798612,Chrome,1920,1080,,,a,0.7147,10,542,2,2,4,28,7,1,0,0,1,0,0,1,0,0,hexagon,circle,,,,,,,,,,,,,,,,,,,,,,,,,,,,,,,,,,,,,,,,,,,,,,,,,,,,,,
298210,2022-12-04_20h11.48.109,vts_reward_expectancy_bt,2022.2.4,Win32,59.84798612,Chrome,1920,1080,,,a,0.7564,10,552,2,2,5,29,10,1,0,0,0,1,0,1,0,0,star ,circle,,,,,,,,,,,,,,,,,,,,,,,,,,,,,,,,,,,,,,,,,,,,,,,,,,,,,,
298210,2022-12-04_20h11.48.109,vts_reward_expectancy_bt,2022.2.4,Win32,59.84798612,Chrome,1920,1080,,,a,1.386,1,553,2,2,6,30,6,1,0,0,1,0,1,0,0,0,hexagon,triangle,,,,,,,,,,,,,,,,,,,,,,,,,,,,,,,,,,,,,,,,,,,,,,,,,,,,,,
298210,2022-12-04_20h11.48.109,vts_reward_expectancy_bt,2022.2.4,Win32,59.84798612,Chrome,1920,1080,,,l,0.7821,10,563,2,2,7,31,4,1,0,1,0,0,0,0,1,0,circle,hexagon,,,,,,,,,,,,,,,,,,,,,,,,,,,,,,,,,,,,,,,,,,,,,,,,,,,,,,
298210,2022-12-04_20h11.48.109,vts_reward_expectancy_bt,2022.2.4,Win32,59.84798612,Chrome,1920,1080,,,l,0.7865,10,573,2,2,8,32,3,1,0,1,0,0,1,0,0,0,circle,triangle,,,,,,,,,,,,,,,,,,,,,,,,,,,,,,,,,,,,,,,,,,,,,,,,,,,,,,
298210,2022-12-04_20h11.48.109,vts_reward_expectancy_bt,2022.2.4,Win32,59.84798612,Chrome,1920,1080,,,a,1.085,1,574,2,2,9,33,0,1,1,0,0,0,0,1,0,0,triangle,circle,,,,,,,,,,,,,,,,,,,,,,,,,,,,,,,,,,,,,,,,,,,,,,,,,,,,,,
298210,2022-12-04_20h11.48.109,vts_reward_expectancy_bt,2022.2.4,Win32,59.84798612,Chrome,1920,1080,,,l,0.6305,1,575,2,2,10,34,2,1,1,0,0,0,0,0,0,1,triangle,star,,,,,,,,,,,,,,,,,,,,,,,,,,,,,,,,,,,,,,,,,,,,,,,,,,,,,,
298210,2022-12-04_20h11.48.109,vts_reward_expectancy_bt,2022.2.4,Win32,59.84798612,Chrome,1920,1080,,,l,0.7455,1,576,2,2,11,35,5,1,0,1,0,0,0,0,0,1,circle,star,,,,,,,,,,,,,,,,,,,,,,,,,,,,,,,,,,,,,,,,,,,,,,,,,,,,,,
298210,2022-12-04_20h11.48.109,vts_reward_expectancy_bt,2022.2.4,Win32,59.84798612,Chrome,1920,1080,,,,,,,,,,,,,,,,,,,,,,,132,F,hexagon,1,0,d,1.334,0,0,0,0,0,1,,,,,,,,,,,,,,,,,,,,,,,,,,,,,,,,,,,,,,,,,
298210,2022-12-04_20h11.48.109,vts_reward_expectancy_bt,2022.2.4,Win32,59.84798612,Chrome,1920,1080,,,,,,,,,,,,,,,,,,,,,,,125,H,circle,1,0,d,0.765,0,1,0,1,0,1,,,,,,,,,,,,,,,,,,,,,,,,,,,,,,,,,,,,,,,,,
298210,2022-12-04_20h11.48.109,vts_reward_expectancy_bt,2022.2.4,Win32,59.84798612,Chrome,1920,1080,,,,,,,,,,,,,,,,,,,,,,,181,D,star,1,0,f,0.8283,0,2,0,2,0,1,,,,,,,,,,,,,,,,,,,,,,,,,,,,,,,,,,,,,,,,,
298210,2022-12-04_20h11.48.109,vts_reward_expectancy_bt,2022.2.4,Win32,59.84798612,Chrome,1920,1080,,,,,,,,,,,,,,,,,,,,,,,160,Y,triangle,1,0,f,1.9876,0,3,0,3,0,1,,,,,,,,,,,,,,,,,,,,,,,,,,,,,,,,,,,,,,,,,
298210,2022-12-04_20h11.48.109,vts_reward_expectancy_bt,2022.2.4,Win32,59.84798612,Chrome,1920,1080,,,,,,,,,,,,,,,,,,,,,,,167,U,hexagon,1,0,f,0.5155,0,4,0,4,0,1,,,,,,,,,,,,,,,,,,,,,,,,,,,,,,,,,,,,,,,,,
298210,2022-12-04_20h11.48.109,vts_reward_expectancy_bt,2022.2.4,Win32,59.84798612,Chrome,1920,1080,,,,,,,,,,,,,,,,,,,,,,,139,W,circle,0,0,f,0.4395,0,5,0,5,0,1,,,,,,,,,,,,,,,,,,,,,,,,,,,,,,,,,,,,,,,,,
298210,2022-12-04_20h11.48.109,vts_reward_expectancy_bt,2022.2.4,Win32,59.84798612,Chrome,1920,1080,,,,,,,,,,,,,,,,,,,,,,,174,B,star,1,1,f,0.8,0,6,0,6,0,1,,,,,,,,,,,,,,,,,,,,,,,,,,,,,,,,,,,,,,,,,
298210,2022-12-04_20h11.48.109,vts_reward_expectancy_bt,2022.2.4,Win32,59.84798612,Chrome,1920,1080,,,,,,,,,,,,,,,,,,,,,,,146,S,triangle,1,0,d,1.019,0,7,0,7,0,1,,,,,,,,,,,,,,,,,,,,,,,,,,,,,,,,,,,,,,,,,
298210,2022-12-04_20h11.48.109,vts_reward_expectancy_bt,2022.2.4,Win32,59.84798612,Chrome,1920,1080,,,,,,,,,,,,,,,,,,,,,,,132,F,star,1,0,d,1.0696,0,8,0,8,0,1,,,,,,,,,,,,,,,,,,,,,,,,,,,,,,,,,,,,,,,,,
298210,2022-12-04_20h11.48.109,vts_reward_expectancy_bt,2022.2.4,Win32,59.84798612,Chrome,1920,1080,,,,,,,,,,,,,,,,,,,,,,,125,H,hexagon,1,0,d,0.6549,0,9,0,9,0,1,,,,,,,,,,,,,,,,,,,,,,,,,,,,,,,,,,,,,,,,,
298210,2022-12-04_20h11.48.109,vts_reward_expectancy_bt,2022.2.4,Win32,59.84798612,Chrome,1920,1080,,,,,,,,,,,,,,,,,,,,,,,125,Y,hexagon,0,0,,,1,,,,,,,0,0,0,0,1,,,,,,,,,,,,,,,,,,,,,,,,,,,,,,,,,,,
298210,2022-12-04_20h11.48.109,vts_reward_expectancy_bt,2022.2.4,Win32,59.84798612,Chrome,1920,1080,,,,,,,,,,,,,,,,,,,,,,,174,S,circle,2,1,,,1,,,,,,d,1,0,1,0,1,1.0449,,,,,,,,,,,,,,,,,,,,,,,,,,,,,,,,,,
298210,2022-12-04_20h11.48.109,vts_reward_expectancy_bt,2022.2.4,Win32,59.84798612,Chrome,1920,1080,,,,,,,,,,,,,,,,,,,,,,,181,F,star,0,0,,,1,,,,,,,2,0,2,0,1,,,,,,,,,,,,,,,,,,,,,,,,,,,,,,,,,,,
298210,2022-12-04_20h11.48.109,vts_reward_expectancy_bt,2022.2.4,Win32,59.84798612,Chrome,1920,1080,,,,,,,,,,,,,,,,,,,,,,,167,U,triangle,2,1,,,1,,,,,,d,3,0,3,0,1,2.8139,,,,,,,,,,,,,,,,,,,,,,,,,,,,,,,,,,
298210,2022-12-04_20h11.48.109,vts_reward_expectancy_bt,2022.2.4,Win32,59.84798612,Chrome,1920,1080,,,,,,,,,,,,,,,,,,,,,,,132,D,hexagon,2,0,,,1,,,,,,d,4,0,4,0,1,2.4294,,,,,,,,,,,,,,,,,,,,,,,,,,,,,,,,,,
298210,2022-12-04_20h11.48.109,vts_reward_expectancy_bt,2022.2.4,Win32,59.84798612,Chrome,1920,1080,,,,,,,,,,,,,,,,,,,,,,,160,H,circle,2,0,,,1,,,,,,f,5,0,5,0,1,0.6838,,,,,,,,,,,,,,,,,,,,,,,,,,,,,,,,,,
298210,2022-12-04_20h11.48.109,vts_reward_expectancy_bt,2022.2.4,Win32,59.84798612,Chrome,1920,1080,,,,,,,,,,,,,,,,,,,,,,,139,W,star,1,0,,,1,,,,,,k,6,0,6,0,1,0.5549,,,,,,,,,,,,,,,,,,,,,,,,,,,,,,,,,,
298210,2022-12-04_20h11.48.109,vts_reward_expectancy_bt,2022.2.4,Win32,59.84798612,Chrome,1920,1080,,,,,,,,,,,,,,,,,,,,,,,146,B,triangle,1,0,,,1,,,,,,j,7,0,7,0,1,0.7517,,,,,,,,,,,,,,,,,,,,,,,,,,,,,,,,,,
298210,2022-12-04_20h11.48.109,vts_reward_expectancy_bt,2022.2.4,Win32,59.84798612,Chrome,1920,1080,,,,,,,,,,,,,,,,,,,,,,,125,Y,hexagon,1,0,,,1,,,,,,k,8,0,8,0,1,0.684,,,,,,,,,,,,,,,,,,,,,,,,,,,,,,,,,,
298210,2022-12-04_20h11.48.109,vts_reward_expectancy_bt,2022.2.4,Win32,59.84798612,Chrome,1920,1080,,,,,,,,,,,,,,,,,,,,,,,174,S,triangle,1,0,,,1,,,,,,k,9,0,9,0,1,0.6036,,,,,,,,,,,,,,,,,,,,,,,,,,,,,,,,,,
298210,2022-12-04_20h11.48.109,vts_reward_expectancy_bt,2022.2.4,Win32,59.84798612,Chrome,1920,1080,,,,,,,,,,,,,,,,,,,,,,,139,F,hexagon,1,0,,,2,,,,,,j,0,0,0,0,1,0.6628,,,,,,,,,,,,,,,,,,,,,,,,,,,,,,,,,,
298210,2022-12-04_20h11.48.109,vts_reward_expectancy_bt,2022.2.4,Win32,59.84798612,Chrome,1920,1080,,,,,,,,,,,,,,,,,,,,,,,125,S,star,1,0,,,2,,,,,,k,1,0,1,0,1,0.7067,,,,,,,,,,,,,,,,,,,,,,,,,,,,,,,,,,
298210,2022-12-04_20h11.48.109,vts_reward_expectancy_bt,2022.2.4,Win32,59.84798612,Chrome,1920,1080,,,,,,,,,,,,,,,,,,,,,,,146,Y,circle,1,0,,,2,,,,,,k,2,0,2,0,1,0.5466,,,,,,,,,,,,,,,,,,,,,,,,,,,,,,,,,,
298210,2022-12-04_20h11.48.109,vts_reward_expectancy_bt,2022.2.4,Win32,59.84798612,Chrome,1920,1080,,,,,,,,,,,,,,,,,,,,,,,174,W,triangle,1,0,,,2,,,,,,k,3,0,3,0,1,0.5823,,,,,,,,,,,,,,,,,,,,,,,,,,,,,,,,,,
298210,2022-12-04_20h11.48.109,vts_reward_expectancy_bt,2022.2.4,Win32,59.84798612,Chrome,1920,1080,,,,,,,,,,,,,,,,,,,,,,,160,D,hexagon,1,0,,,2,,,,,,j,4,0,4,0,1,0.4405,,,,,,,,,,,,,,,,,,,,,,,,,,,,,,,,,,
298210,2022-12-04_20h11.48.109,vts_reward_expectancy_bt,2022.2.4,Win32,59.84798612,Chrome,1920,1080,,,,,,,,,,,,,,,,,,,,,,,181,U,star,1,0,,,2,,,,,,k,5,0,5,0,1,0.4979,,,,,,,,,,,,,,,,,,,,,,,,,,,,,,,,,,
298210,2022-12-04_20h11.48.109,vts_reward_expectancy_bt,2022.2.4,Win32,59.84798612,Chrome,1920,1080,,,,,,,,,,,,,,,,,,,,,,,132,H,circle,1,0,,,2,,,,,,j,6,0,6,0,1,0.5991,,,,,,,,,,,,,,,,,,,,,,,,,,,,,,,,,,
298210,2022-12-04_20h11.48.109,vts_reward_expectancy_bt,2022.2.4,Win32,59.84798612,Chrome,1920,1080,,,,,,,,,,,,,,,,,,,,,,,167,B,triangle,1,0,,,2,,,,,,j,7,0,7,0,1,0.6336,,,,,,,,,,,,,,,,,,,,,,,,,,,,,,,,,,
298210,2022-12-04_20h11.48.109,vts_reward_expectancy_bt,2022.2.4,Win32,59.84798612,Chrome,1920,1080,,,,,,,,,,,,,,,,,,,,,,,139,F,hexagon,1,0,,,2,,,,,,j,8,0,8,0,1,0.9069,,,,,,,,,,,,,,,,,,,,,,,,,,,,,,,,,,
298210,2022-12-04_20h11.48.109,vts_reward_expectancy_bt,2022.2.4,Win32,59.84798612,Chrome,1920,1080,,,,,,,,,,,,,,,,,,,,,,,125,S,triangle,1,0,,,2,,,,,,k,9,0,9,0,1,1.6023,,,,,,,,,,,,,,,,,,,,,,,,,,,,,,,,,,
298210,2022-12-04_20h11.48.109,vts_reward_expectancy_bt,2022.2.4,Win32,59.84798612,Chrome,1920,1080,,,,,0,576,,,,,,,,,,,,,,,,,174,B,star,1,0,,,3,,,,,,,,,,,,,-1,number,NA,f,1.7238,vtsPrac,0,0,0,0,1,,,,,,,,,,,,,,,,,,,,,,,
298210,2022-12-04_20h11.48.109,vts_reward_expectancy_bt,2022.2.4,Win32,59.84798612,Chrome,1920,1080,,,,,0,576,,,,,,,,,,,,,,,,,132,D,hexagon,-1,0,,,3,,,,,,,,,,,,,switch,no_choice,NA,,,vtsPrac,1,0,1,0,1,,,,,,,,,,,,,,,,,,,,,,,
298210,2022-12-04_20h11.48.109,vts_reward_expectancy_bt,2022.2.4,Win32,59.84798612,Chrome,1920,1080,,,,,0,576,,,,,,,,,,,,,,,,,146,F,star,1,0,,,3,,,,,,,,,,,,,switch,letter,lettSwt,j,1.9264,vtsPrac,2,0,2,0,1,,,,,,,,,,,,,,,,,,,,,,,
298210,2022-12-04_20h11.48.109,vts_reward_expectancy_bt,2022.2.4,Win32,59.84798612,Chrome,1920,1080,,,,,0,576,,,,,,,,,,,,,,,,,125,W,hexagon,0,0,,,3,,,,,,,,,,,,,switch,number,NA,f,1.4444,vtsPrac,3,0,3,0,1,,,,,,,,,,,,,,,,,,,,,,,
298210,2022-12-04_20h11.48.109,vts_reward_expectancy_bt,2022.2.4,Win32,59.84798612,Chrome,1920,1080,,,,,0,576,,,,,,,,,,,,,,,,,174,B,triangle,1,1,,,3,,,,,,,,,,,,,repeat,number,numRpt,f,1.5934,vtsPrac,4,0,4,0,1,,,,,,,,,,,,,,,,,,,,,,,
298210,2022-12-04_20h11.48.109,vts_reward_expectancy_bt,2022.2.4,Win32,59.84798612,Chrome,1920,1080,,,,,0,576,,,,,,,,,,,,,,,,,132,D,hexagon,1,0,,,3,,,,,,,,,,,,,repeat,number,numRpt,d,1.0804,vtsPrac,5,0,5,0,1,,,,,,,,,,,,,,,,,,,,,,,
298210,2022-12-04_20h11.48.109,vts_reward_expectancy_bt,2022.2.4,Win32,59.84798612,Chrome,1920,1080,,,,,0,576,,,,,,,,,,,,,,,,,146,F,star,1,0,,,3,,,,,,,,,,,,,switch,letter,lettSwt,j,1.7327,vtsPrac,6,0,6,0,1,,,,,,,,,,,,,,,,,,,,,,,
298210,2022-12-04_20h11.48.109,vts_reward_expectancy_bt,2022.2.4,Win32,59.84798612,Chrome,1920,1080,,,,,0,576,,,,,,,,,,,,,,,,,125,W,triangle,1,0,,,3,,,,,,,,,,,,,switch,number,numSwt,d,0.9785,vtsPrac,7,0,7,0,1,,,,,,,,,,,,,,,,,,,,,,,
298210,2022-12-04_20h11.48.109,vts_reward_expectancy_bt,2022.2.4,Win32,59.84798612,Chrome,1920,1080,,,,,0,576,,,,,,,,,,,,,,,,,132,H,triangle,1,0,,,3,,,,,,,,,,,,,repeat,number,numRpt,d,1.0118,vtsPrac,8,0,8,0,1,,,,,,,,,,,,,,,,,,,,,,,
298210,2022-12-04_20h11.48.109,vts_reward_expectancy_bt,2022.2.4,Win32,59.84798612,Chrome,1920,1080,,,,,0,576,,,,,,,,,,,,,,,,,146,U,hexagon,1,0,,,3,,,,,,,,,,,,,switch,letter,lettSwt,k,1.0784,vtsPrac,9,0,9,0,1,,,,,,,,,,,,,,,,,,,,,,,
298210,2022-12-04_20h11.48.109,vts_reward_expectancy_bt,2022.2.4,Win32,59.84798612,Chrome,1920,1080,,,,,0,576,,,,,,,,,,,,,,,,,125,B,star,1,0,,,3,,,,,,,,,,,,,repeat,letter,lettRpt,j,1.0791,vtsPrac,10,0,10,0,1,,,,,,,,,,,,,,,,,,,,,,,
298210,2022-12-04_20h11.48.109,vts_reward_expectancy_bt,2022.2.4,Win32,59.84798612,Chrome,1920,1080,,,,,0,576,,,,,,,,,,,,,,,,,139,Y,hexagon,1,0,,,3,,,,,,,,,,,,,repeat,letter,lettRpt,k,1.0806,vtsPrac,11,0,11,0,1,,,,,,,,,,,,,,,,,,,,,,,
298210,2022-12-04_20h11.48.109,vts_reward_expectancy_bt,2022.2.4,Win32,59.84798612,Chrome,1920,1080,,,,,0,576,,,,,,,,,,,,,,,,,174,W,circle,1,0,,,3,,,,,,,,,,,,,repeat,letter,lettRpt,k,1.5295,vtsPrac,12,0,12,0,1,,,,,,,,,,,,,,,,,,,,,,,
298210,2022-12-04_20h11.48.109,vts_reward_expectancy_bt,2022.2.4,Win32,59.84798612,Chrome,1920,1080,,,,,0,576,,,,,,,,,,,,,,,,,181,F,triangle,1,0,,,3,,,,,,,,,,,,,switch,number,numSwt,f,1.9622,vtsPrac,13,0,13,0,1,,,,,,,,,,,,,,,,,,,,,,,
298210,2022-12-04_20h11.48.109,vts_reward_expectancy_bt,2022.2.4,Win32,59.84798612,Chrome,1920,1080,,,,,0,576,,,,,,,,,,,,,,,,,146,B,star,1,0,,,3,,,,,,,,,,,,,switch,letter,lettSwt,j,2.0757,vtsPrac,14,0,14,0,1,,,,,,,,,,,,,,,,,,,,,,,
298210,2022-12-04_20h11.48.109,vts_reward_expectancy_bt,2022.2.4,Win32,59.84798612,Chrome,1920,1080,,,,,0,576,,,,,,,,,,,,,,,,,160,D,triangle,1,0,,,3,,,,,,,,,,,,,switch,number,numSwt,f,2.3933,vtsPrac,15,0,15,0,1,,,,,,,,,,,,,,,,,,,,,,,
298210,2022-12-04_20h11.48.109,vts_reward_expectancy_bt,2022.2.4,Win32,59.84798612,Chrome,1920,1080,,,,,0,576,,,,,,,,,,,,,,,,,139,H,triangle,1,0,,,3,,,,,,,,,,,,,switch,letter,lettSwt,j,1.3647,vtsPrac,16,0,16,0,1,,,,,,,,,,,,,,,,,,,,,,,
298210,2022-12-04_20h11.48.109,vts_reward_expectancy_bt,2022.2.4,Win32,59.84798612,Chrome,1920,1080,,,,,0,576,,,,,,,,,,,,,,,,,132,U,star,1,0,,,3,,,,,,,,,,,,,repeat,letter,lettRpt,k,1.419,vtsPrac,17,0,17,0,1,,,,,,,,,,,,,,,,,,,,,,,
298210,2022-12-04_20h11.48.109,vts_reward_expectancy_bt,2022.2.4,Win32,59.84798612,Chrome,1920,1080,,,,,0,576,,,,,,,,,,,,,,,,,160,F,star,1,0,,,3,,,,,,,,,,,,,switch,number,numSwt,f,1.5513,vtsPrac,18,0,18,0,1,,,,,,,,,,,,,,,,,,,,,,,
298210,2022-12-04_20h11.48.109,vts_reward_expectancy_bt,2022.2.4,Win32,59.84798612,Chrome,1920,1080,,,,,0,576,,,,,,,,,,,,,,,,,146,S,hexagon,0,0,,,3,,,,,,,,,,,,,repeat,number,NA,f,1.6632,vtsPrac,19,0,19,0,1,,,,,,,,,,,,,,,,,,,,,,,
298210,2022-12-04_20h11.48.109,vts_reward_expectancy_bt,2022.2.4,Win32,59.84798612,Chrome,1920,1080,,,,,0,576,,,,,,,,,,,,,,,,,181,H,triangle,1,1,,,3,,,,,,,,,,,,,repeat,number,numRpt,f,0.8784,vtsPrac,20,0,20,0,1,,,,,,,,,,,,,,,,,,,,,,,
298210,2022-12-04_20h11.48.109,vts_reward_expectancy_bt,2022.2.4,Win32,59.84798612,Chrome,1920,1080,,,,,0,576,,,,,,,,,,,,,,,,,139,B,star,1,0,,,3,,,,,,,,,,,,,repeat,number,numRpt,d,1.1548,vtsPrac,21,0,21,0,1,,,,,,,,,,,,,,,,,,,,,,,
298210,2022-12-04_20h11.48.109,vts_reward_expectancy_bt,2022.2.4,Win32,59.84798612,Chrome,1920,1080,,,,,0,576,,,,,,,,,,,,,,,,,160,U,triangle,1,0,,,3,,,,,,,,,,,,,switch,letter,lettSwt,k,2.2415,vtsPrac,22,0,22,0,1,,,,,,,,,,,,,,,,,,,,,,,
298210,2022-12-04_20h11.48.109,vts_reward_expectancy_bt,2022.2.4,Win32,59.84798612,Chrome,1920,1080,,,,,0,576,,,,,,,,,,,,,,,,,132,S,circle,1,0,,,3,,,,,,,,,,,,,repeat,letter,lettRpt,k,1.0476,vtsPrac,23,0,23,0,1,,,,,,,,,,,,,,,,,,,,,,,
298210,2022-12-04_20h11.48.109,vts_reward_expectancy_bt,2022.2.4,Win32,59.84798612,Chrome,1920,1080,,,,,0,576,,,,,,,,,,,,,,,,,181,D,star,1,0,,,3,,,,,,,,,,,,,switch,number,numSwt,f,1.2276,vtsPrac,24,0,24,0,1,,,,,,,,,,,,,,,,,,,,,,,
298210,2022-12-04_20h11.48.109,vts_reward_expectancy_bt,2022.2.4,Win32,59.84798612,Chrome,1920,1080,,,,,0,576,,,,,,,,,,,,,,,,,160,U,triangle,-1,0,,,3,,,,,,,,,,,,,switch,no_choice,NA,,,vtsPrac,25,0,25,0,1,,,,,,,,,,,,,,,,,,,,,,,
298210,2022-12-04_20h11.48.109,vts_reward_expectancy_bt,2022.2.4,Win32,59.84798612,Chrome,1920,1080,,,,,0,576,,,,,,,,,,,,,,,,,174,Y,star,1,0,,,3,,,,,,,,,,,,,switch,letter,lettSwt,k,0.7506,vtsPrac,26,0,26,0,1,,,,,,,,,,,,,,,,,,,,,,,
298210,2022-12-04_20h11.48.109,vts_reward_expectancy_bt,2022.2.4,Win32,59.84798612,Chrome,1920,1080,,,,,0,576,,,,,,,,,,,,,,,,,132,S,triangle,1,0,,,3,,,,,,,,,,,,,repeat,letter,lettRpt,k,0.7487,vtsPrac,27,0,27,0,1,,,,,,,,,,,,,,,,,,,,,,,
298210,2022-12-04_20h11.48.109,vts_reward_expectancy_bt,2022.2.4,Win32,59.84798612,Chrome,1920,1080,,,,,0,576,,,,,,,,,,,,,,,,,174,F,triangle,1,0,,,3,,,,,,,,,,,,,switch,number,numSwt,f,0.8459,vtsPrac,28,0,28,0,1,,,,,,,,,,,,,,,,,,,,,,,
298210,2022-12-04_20h11.48.109,vts_reward_expectancy_bt,2022.2.4,Win32,59.84798612,Chrome,1920,1080,,,,,0,576,,,,,,,,,,,,,,,,,167,H,hexagon,1,0,,,3,,,,,,,,,,,,,repeat,number,numRpt,f,0.613,vtsPrac,29,0,29,0,1,,,,,,,,,,,,,,,,,,,,,,,
298210,2022-12-04_20h11.48.109,vts_reward_expectancy_bt,2022.2.4,Win32,59.84798612,Chrome,1920,1080,,,,,0,576,,,,,,,,,,,,,,,,,160,B,triangle,1,0,,,3,,,,,,,,,,,,,repeat,number,numRpt,f,0.7614,vtsPrac,30,0,30,0,1,,,,,,,,,,,,,,,,,,,,,,,
298210,2022-12-04_20h11.48.109,vts_reward_expectancy_bt,2022.2.4,Win32,59.84798612,Chrome,1920,1080,,,,,0,576,,,,,,,,,,,,,,,,,125,S,circle,1,0,,,3,,,,,,,,,,,,,switch,letter,lettSwt,k,0.8982,vtsPrac,31,0,31,0,1,,,,,,,,,,,,,,,,,,,,,,,
298210,2022-12-04_20h11.48.109,vts_reward_expectancy_bt,2022.2.4,Win32,59.84798612,Chrome,1920,1080,,,,,,,,,,,,,,,,,,,,,,,,,,,,,,,,,,,,,,,,,,,,,,,,,,,,,,,,,,,,,,,,,,,,,,,,,,,,
298210,2022-12-04_20h11.48.109,vts_reward_expectancy_bt,2022.2.4,Win32,59.84798612,Chrome,1920,1080,,,,,,,,,,,,,,,,,,,,,,,,,,,,,,,,,,,,,,,,,,,,,,,,,,,,,,,,,,,,,,,,,,,,,,,,,,,,
298210,2022-12-04_20h11.48.109,vts_reward_expectancy_bt,2022.2.4,Win32,59.84798612,Chrome,1920,1080,,,,,0,576,,,,,,,,,,,,,,,,,125,W,star,1,0,,,,,,,,,,,,,,,,repeat,letter,lettRpt,k,0.8549,noRew,,,,,,0,0,0,0,0,1,,,,,,,,,,,,,,,,,
298210,2022-12-04_20h11.48.109,vts_reward_expectancy_bt,2022.2.4,Win32,59.84798612,Chrome,1920,1080,,,,,0,576,,,,,,,,,,,,,,,,,160,F,circle,1,0,,,,,,,,,,,,,,,,switch,number,numSwt,f,0.6296,noRew,,,,,,0,1,0,1,0,1,,,,,,,,,,,,,,,,,
298210,2022-12-04_20h11.48.109,vts_reward_expectancy_bt,2022.2.4,Win32,59.84798612,Chrome,1920,1080,,,,,0,576,,,,,,,,,,,,,,,,,167,S,star,1,0,,,,,,,,,,,,,,,,repeat,number,numRpt,f,0.7392,noRew,,,,,,0,2,0,2,0,1,,,,,,,,,,,,,,,,,
298210,2022-12-04_20h11.48.109,vts_reward_expectancy_bt,2022.2.4,Win32,59.84798612,Chrome,1920,1080,,,,,0,576,,,,,,,,,,,,,,,,,132,B,circle,1,0,,,,,,,,,,,,,,,,repeat,number,numRpt,d,0.8976,noRew,,,,,,0,3,0,3,0,1,,,,,,,,,,,,,,,,,
298210,2022-12-04_20h11.48.109,vts_reward_expectancy_bt,2022.2.4,Win32,59.84798612,Chrome,1920,1080,,,,,0,576,,,,,,,,,,,,,,,,,125,W,star,1,0,,,,,,,,,,,,,,,,switch,letter,lettSwt,k,1.0812,noRew,,,,,,0,4,0,4,0,1,,,,,,,,,,,,,,,,,
298210,2022-12-04_20h11.48.109,vts_reward_expectancy_bt,2022.2.4,Win32,59.84798612,Chrome,1920,1080,,,,,0,576,,,,,,,,,,,,,,,,,160,F,hexagon,1,0,,,,,,,,,,,,,,,,repeat,letter,lettRpt,j,0.6982,noRew,,,,,,0,5,0,5,0,1,,,,,,,,,,,,,,,,,
298210,2022-12-04_20h11.48.109,vts_reward_expectancy_bt,2022.2.4,Win32,59.84798612,Chrome,1920,1080,,,,,0,576,,,,,,,,,,,,,,,,,167,S,circle,1,0,,,,,,,,,,,,,,,,switch,number,numSwt,f,0.7129,noRew,,,,,,0,6,0,6,0,1,,,,,,,,,,,,,,,,,
298210,2022-12-04_20h11.48.109,vts_reward_expectancy_bt,2022.2.4,Win32,59.84798612,Chrome,1920,1080,,,,,0,576,,,,,,,,,,,,,,,,,132,B,triangle,1,0,,,,,,,,,,,,,,,,switch,letter,lettSwt,j,0.9037,noRew,,,,,,0,7,0,7,0,1,,,,,,,,,,,,,,,,,
298210,2022-12-04_20h11.48.109,vts_reward_expectancy_bt,2022.2.4,Win32,59.84798612,Chrome,1920,1080,,,,,0,576,,,,,,,,,,,,,,,,,146,H,circle,1,0,,,,,,,,,,,,,,,,switch,number,numSwt,d,1.0234,noRew,,,,,,0,8,0,8,0,1,,,,,,,,,,,,,,,,,
298210,2022-12-04_20h11.48.109,vts_reward_expectancy_bt,2022.2.4,Win32,59.84798612,Chrome,1920,1080,,,,,0,576,,,,,,,,,,,,,,,,,174,F,hexagon,1,0,,,,,,,,,,,,,,,,repeat,number,numRpt,f,1.8434,noRew,,,,,,0,9,0,9,0,1,,,,,,,,,,,,,,,,,
298210,2022-12-04_20h11.48.109,vts_reward_expectancy_bt,2022.2.4,Win32,59.84798612,Chrome,1920,1080,,,,,0,576,,,,,,,,,,,,,,,,,139,Y,triangle,1,0,,,,,,,,,,,,,,,,repeat,number,numRpt,d,0.8232,noRew,,,,,,0,10,0,10,0,1,,,,,,,,,,,,,,,,,
298210,2022-12-04_20h11.48.109,vts_reward_expectancy_bt,2022.2.4,Win32,59.84798612,Chrome,1920,1080,,,,,0,576,,,,,,,,,,,,,,,,,132,U,star,1,0,,,,,,,,,,,,,,,,switch,letter,lettSwt,k,1.1061,noRew,,,,,,0,11,0,11,0,1,,,,,,,,,,,,,,,,,
298210,2022-12-04_20h11.48.109,vts_reward_expectancy_bt,2022.2.4,Win32,59.84798612,Chrome,1920,1080,,,,,0,576,,,,,,,,,,,,,,,,,139,D,circle,1,0,,,,,,,,,,,,,,,,repeat,letter,lettRpt,j,1.0278,noRew,,,,,,0,12,0,12,0,1,,,,,,,,,,,,,,,,,
298210,2022-12-04_20h11.48.109,vts_reward_expectancy_bt,2022.2.4,Win32,59.84798612,Chrome,1920,1080,,,,,0,576,,,,,,,,,,,,,,,,,174,S,triangle,1,0,,,,,,,,,,,,,,,,switch,number,numSwt,f,1.3654,noRew,,,,,,0,13,0,13,0,1,,,,,,,,,,,,,,,,,
298210,2022-12-04_20h11.48.109,vts_reward_expectancy_bt,2022.2.4,Win32,59.84798612,Chrome,1920,1080,,,,,0,576,,,,,,,,,,,,,,,,,167,U,triangle,1,0,,,,,,,,,,,,,,,,switch,letter,lettSwt,k,1.3559,noRew,,,,,,0,14,0,14,0,1,,,,,,,,,,,,,,,,,
298210,2022-12-04_20h11.48.109,vts_reward_expectancy_bt,2022.2.4,Win32,59.84798612,Chrome,1920,1080,,,,,0,576,,,,,,,,,,,,,,,,,181,W,circle,1,0,,,,,,,,,,,,,,,,repeat,letter,lettRpt,k,1.1114,noRew,,,,,,0,15,0,15,0,1,,,,,,,,,,,,,,,,,
298210,2022-12-04_20h11.48.109,vts_reward_expectancy_bt,2022.2.4,Win32,59.84798612,Chrome,1920,1080,,,,,0,576,,,,,,,,,,,,,,,,,139,D,circle,1,0,,,,,,,,,,,,,,,,switch,number,numSwt,d,0.7706,noRew,,,,,,0,16,0,16,0,1,,,,,,,,,,,,,,,,,
298210,2022-12-04_20h11.48.109,vts_reward_expectancy_bt,2022.2.4,Win32,59.84798612,Chrome,1920,1080,,,,,0,576,,,,,,,,,,,,,,,,,125,H,hexagon,1,0,,,,,,,,,,,,,,,,repeat,number,numRpt,d,1.0238,noRew,,,,,,0,17,0,17,0,1,,,,,,,,,,,,,,,,,
298210,2022-12-04_20h11.48.109,vts_reward_expectancy_bt,2022.2.4,Win32,59.84798612,Chrome,1920,1080,,,,,0,576,,,,,,,,,,,,,,,,,160,F,triangle,1,0,,,,,,,,,,,,,,,,switch,letter,lettSwt,j,1.4273,noRew,,,,,,0,18,0,18,0,1,,,,,,,,,,,,,,,,,
298210,2022-12-04_20h11.48.109,vts_reward_expectancy_bt,2022.2.4,Win32,59.84798612,Chrome,1920,1080,,,,,0,576,,,,,,,,,,,,,,,,,181,B,star,1,0,,,,,,,,,,,,,,,,switch,number,numSwt,f,1.4796,noRew,,,,,,0,19,0,19,0,1,,,,,,,,,,,,,,,,,
298210,2022-12-04_20h11.48.109,vts_reward_expectancy_bt,2022.2.4,Win32,59.84798612,Chrome,1920,1080,,,,,0,576,,,,,,,,,,,,,,,,,146,B,circle,1,0,,,,,,,,,,,,,,,,switch,letter,lettSwt,j,1.369,noRew,,,,,,0,20,0,20,0,1,,,,,,,,,,,,,,,,,
298210,2022-12-04_20h11.48.109,vts_reward_expectancy_bt,2022.2.4,Win32,59.84798612,Chrome,1920,1080,,,,,0,576,,,,,,,,,,,,,,,,,125,D,hexagon,1,0,,,,,,,,,,,,,,,,repeat,letter,lettRpt,j,2.0633,noRew,,,,,,0,21,0,21,0,1,,,,,,,,,,,,,,,,,
298210,2022-12-04_20h11.48.109,vts_reward_expectancy_bt,2022.2.4,Win32,59.84798612,Chrome,1920,1080,,,,,0,576,,,,,,,,,,,,,,,,,139,U,hexagon,1,0,,,,,,,,,,,,,,,,switch,number,numSwt,d,1.3717,noRew,,,,,,0,22,0,22,0,1,,,,,,,,,,,,,,,,,
298210,2022-12-04_20h11.48.109,vts_reward_expectancy_bt,2022.2.4,Win32,59.84798612,Chrome,1920,1080,,,,,0,576,,,,,,,,,,,,,,,,,167,W,triangle,1,0,,,,,,,,,,,,,,,,switch,letter,lettSwt,k,1.876,noRew,,,,,,0,23,0,23,0,1,,,,,,,,,,,,,,,,,
298210,2022-12-04_20h11.48.109,vts_reward_expectancy_bt,2022.2.4,Win32,59.84798612,Chrome,1920,1080,,,,,0,576,,,,,,,,,,,,,,,,,160,S,hexagon,1,0,,,,,,,,,,,,,,,,repeat,letter,lettRpt,k,2.1971,noRew,,,,,,0,24,0,24,0,1,,,,,,,,,,,,,,,,,
298210,2022-12-04_20h11.48.109,vts_reward_expectancy_bt,2022.2.4,Win32,59.84798612,Chrome,1920,1080,,,,,0,576,,,,,,,,,,,,,,,,,139,W,circle,1,0,,,,,,,,,,,,,,,,repeat,letter,lettRpt,k,2.0286,noRew,,,,,,0,25,0,25,0,1,,,,,,,,,,,,,,,,,
298210,2022-12-04_20h11.48.109,vts_reward_expectancy_bt,2022.2.4,Win32,59.84798612,Chrome,1920,1080,,,,,0,576,,,,,,,,,,,,,,,,,167,F,hexagon,1,0,,,,,,,,,,,,,,,,switch,number,numSwt,f,1.4177,noRew,,,,,,0,26,0,26,0,1,,,,,,,,,,,,,,,,,
298210,2022-12-04_20h11.48.109,vts_reward_expectancy_bt,2022.2.4,Win32,59.84798612,Chrome,1920,1080,,,,,0,576,,,,,,,,,,,,,,,,,146,D,triangle,1,0,,,,,,,,,,,,,,,,switch,letter,lettSwt,j,1.5021,noRew,,,,,,0,27,0,27,0,1,,,,,,,,,,,,,,,,,
298210,2022-12-04_20h11.48.109,vts_reward_expectancy_bt,2022.2.4,Win32,59.84798612,Chrome,1920,1080,,,,,0,576,,,,,,,,,,,,,,,,,125,W,star,1,0,,,,,,,,,,,,,,,,repeat,letter,lettRpt,k,1.6957,noRew,,,,,,0,28,0,28,0,1,,,,,,,,,,,,,,,,,
298210,2022-12-04_20h11.48.109,vts_reward_expectancy_bt,2022.2.4,Win32,59.84798612,Chrome,1920,1080,,,,,0,576,,,,,,,,,,,,,,,,,181,Y,triangle,1,0,,,,,,,,,,,,,,,,switch,number,numSwt,f,1.0498,noRew,,,,,,0,29,0,29,0,1,,,,,,,,,,,,,,,,,
298210,2022-12-04_20h11.48.109,vts_reward_expectancy_bt,2022.2.4,Win32,59.84798612,Chrome,1920,1080,,,,,0,576,,,,,,,,,,,,,,,,,139,U,star,1,0,,,,,,,,,,,,,,,,repeat,number,numRpt,d,1.1802,noRew,,,,,,0,30,0,30,0,1,,,,,,,,,,,,,,,,,
298210,2022-12-04_20h11.48.109,vts_reward_expectancy_bt,2022.2.4,Win32,59.84798612,Chrome,1920,1080,,,,,0,576,,,,,,,,,,,,,,,,,160,D,circle,-1,0,,,,,,,,,,,,,,,,switch,no_choice,NA,,,noRew,,,,,,0,31,0,31,0,1,,,,,,,,,,,,,,,,,
298210,2022-12-04_20h11.48.109,vts_reward_expectancy_bt,2022.2.4,Win32,59.84798612,Chrome,1920,1080,,,,,0,576,,,,,,,,,,,,,,,,,160,W,hexagon,1,0,,,,,,,,,,,,,,,,switch,letter,lettSwt,k,0.7723,noRew,,,,,,0,32,0,32,0,1,,,,,,,,,,,,,,,,,
298210,2022-12-04_20h11.48.109,vts_reward_expectancy_bt,2022.2.4,Win32,59.84798612,Chrome,1920,1080,,,,,0,576,,,,,,,,,,,,,,,,,146,B,star,1,0,,,,,,,,,,,,,,,,switch,number,numSwt,d,0.7526,noRew,,,,,,0,33,0,33,0,1,,,,,,,,,,,,,,,,,
298210,2022-12-04_20h11.48.109,vts_reward_expectancy_bt,2022.2.4,Win32,59.84798612,Chrome,1920,1080,,,,,0,576,,,,,,,,,,,,,,,,,181,U,triangle,1,0,,,,,,,,,,,,,,,,switch,letter,lettSwt,k,1.2307,noRew,,,,,,0,34,0,34,0,1,,,,,,,,,,,,,,,,,
298210,2022-12-04_20h11.48.109,vts_reward_expectancy_bt,2022.2.4,Win32,59.84798612,Chrome,1920,1080,,,,,0,576,,,,,,,,,,,,,,,,,139,F,circle,1,0,,,,,,,,,,,,,,,,switch,number,numSwt,d,1.0014,noRew,,,,,,0,35,0,35,0,1,,,,,,,,,,,,,,,,,
298210,2022-12-04_20h11.48.109,vts_reward_expectancy_bt,2022.2.4,Win32,59.84798612,Chrome,1920,1080,,,,,0,576,,,,,,,,,,,,,,,,,125,F,hexagon,1,0,,,,,,,,,,,,,,,,repeat,number,numRpt,d,0.9898,noRew,,,,,,0,36,0,36,0,1,,,,,,,,,,,,,,,,,
298210,2022-12-04_20h11.48.109,vts_reward_expectancy_bt,2022.2.4,Win32,59.84798612,Chrome,1920,1080,,,,,0,576,,,,,,,,,,,,,,,,,132,Y,circle,1,0,,,,,,,,,,,,,,,,switch,letter,lettSwt,k,1.444,noRew,,,,,,0,37,0,37,0,1,,,,,,,,,,,,,,,,,
298210,2022-12-04_20h11.48.109,vts_reward_expectancy_bt,2022.2.4,Win32,59.84798612,Chrome,1920,1080,,,,,0,576,,,,,,,,,,,,,,,,,181,U,hexagon,-1,0,,,,,,,,,,,,,,,,switch,no_choice,NA,,,noRew,,,,,,0,38,0,38,0,1,,,,,,,,,,,,,,,,,
298210,2022-12-04_20h11.48.109,vts_reward_expectancy_bt,2022.2.4,Win32,59.84798612,Chrome,1920,1080,,,,,0,576,,,,,,,,,,,,,,,,,167,D,star,1,0,,,,,,,,,,,,,,,,switch,letter,lettSwt,j,1.1523,noRew,,,,,,0,39,0,39,0,1,,,,,,,,,,,,,,,,,
298210,2022-12-04_20h11.48.109,vts_reward_expectancy_bt,2022.2.4,Win32,59.84798612,Chrome,1920,1080,,,,,0,576,,,,,,,,,,,,,,,,,181,S,hexagon,1,0,,,,,,,,,,,,,,,,switch,number,numSwt,f,1.0064,noRew,,,,,,0,40,0,40,0,1,,,,,,,,,,,,,,,,,
298210,2022-12-04_20h11.48.109,vts_reward_expectancy_bt,2022.2.4,Win32,59.84798612,Chrome,1920,1080,,,,,0,576,,,,,,,,,,,,,,,,,132,Y,star,1,0,,,,,,,,,,,,,,,,repeat,number,numRpt,d,1.7468,noRew,,,,,,0,41,0,41,0,1,,,,,,,,,,,,,,,,,
298210,2022-12-04_20h11.48.109,vts_reward_expectancy_bt,2022.2.4,Win32,59.84798612,Chrome,1920,1080,,,,,0,576,,,,,,,,,,,,,,,,,139,F,hexagon,1,0,,,,,,,,,,,,,,,,repeat,number,numRpt,d,1.3709,noRew,,,,,,0,42,0,42,0,1,,,,,,,,,,,,,,,,,
298210,2022-12-04_20h11.48.109,vts_reward_expectancy_bt,2022.2.4,Win32,59.84798612,Chrome,1920,1080,,,,,0,576,,,,,,,,,,,,,,,,,167,U,circle,1,0,,,,,,,,,,,,,,,,repeat,number,numRpt,f,2.1131,noRew,,,,,,0,43,0,43,0,1,,,,,,,,,,,,,,,,,
298210,2022-12-04_20h11.48.109,vts_reward_expectancy_bt,2022.2.4,Win32,59.84798612,Chrome,1920,1080,,,,,0,576,,,,,,,,,,,,,,,,,174,D,star,1,0,,,,,,,,,,,,,,,,switch,letter,lettSwt,j,1.7098,noRew,,,,,,0,44,0,44,0,1,,,,,,,,,,,,,,,,,
298210,2022-12-04_20h11.48.109,vts_reward_expectancy_bt,2022.2.4,Win32,59.84798612,Chrome,1920,1080,,,,,0,576,,,,,,,,,,,,,,,,,146,B,triangle,1,0,,,,,,,,,,,,,,,,repeat,letter,lettRpt,j,1.317,noRew,,,,,,0,45,0,45,0,1,,,,,,,,,,,,,,,,,
298210,2022-12-04_20h11.48.109,vts_reward_expectancy_bt,2022.2.4,Win32,59.84798612,Chrome,1920,1080,,,,,0,576,,,,,,,,,,,,,,,,,139,F,triangle,1,0,,,,,,,,,,,,,,,,switch,number,numSwt,d,1.4049,noRew,,,,,,0,46,0,46,0,1,,,,,,,,,,,,,,,,,
298210,2022-12-04_20h11.48.109,vts_reward_expectancy_bt,2022.2.4,Win32,59.84798612,Chrome,1920,1080,,,,,0,576,,,,,,,,,,,,,,,,,167,W,circle,1,0,,,,,,,,,,,,,,,,switch,letter,lettSwt,k,1.5105,noRew,,,,,,0,47,0,47,0,1,,,,,,,,,,,,,,,,,
298210,2022-12-04_20h11.48.109,vts_reward_expectancy_bt,2022.2.4,Win32,59.84798612,Chrome,1920,1080,,,,,0,576,,,,,,,,,,,,,,,,,132,U,circle,1,0,,,,,,,,,,,,,,,,switch,number,numSwt,d,1.5271,noRew,,,,,,0,48,0,48,0,1,,,,,,,,,,,,,,,,,
298210,2022-12-04_20h11.48.109,vts_reward_expectancy_bt,2022.2.4,Win32,59.84798612,Chrome,1920,1080,,,,,0,576,,,,,,,,,,,,,,,,,139,H,triangle,1,0,,,,,,,,,,,,,,,,switch,letter,lettSwt,j,0.7077,noRew,,,,,,0,49,0,49,0,1,,,,,,,,,,,,,,,,,
298210,2022-12-04_20h11.48.109,vts_reward_expectancy_bt,2022.2.4,Win32,59.84798612,Chrome,1920,1080,,,,,0,576,,,,,,,,,,,,,,,,,181,W,star,1,0,,,,,,,,,,,,,,,,switch,number,numSwt,f,1.0617,noRew,,,,,,0,50,0,50,0,1,,,,,,,,,,,,,,,,,
298210,2022-12-04_20h11.48.109,vts_reward_expectancy_bt,2022.2.4,Win32,59.84798612,Chrome,1920,1080,,,,,0,576,,,,,,,,,,,,,,,,,160,S,circle,1,0,,,,,,,,,,,,,,,,repeat,number,numRpt,f,0.8681,noRew,,,,,,0,51,0,51,0,1,,,,,,,,,,,,,,,,,
298210,2022-12-04_20h11.48.109,vts_reward_expectancy_bt,2022.2.4,Win32,59.84798612,Chrome,1920,1080,,,,,0,576,,,,,,,,,,,,,,,,,174,U,circle,1,0,,,,,,,,,,,,,,,,switch,letter,lettSwt,k,1.1492,noRew,,,,,,0,52,0,52,0,1,,,,,,,,,,,,,,,,,
298210,2022-12-04_20h11.48.109,vts_reward_expectancy_bt,2022.2.4,Win32,59.84798612,Chrome,1920,1080,,,,,0,576,,,,,,,,,,,,,,,,,181,F,triangle,0,0,,,,,,,,,,,,,,,,switch,number,NA,d,2.1421,noRew,,,,,,0,53,0,53,0,1,,,,,,,,,,,,,,,,,
298210,2022-12-04_20h11.48.109,vts_reward_expectancy_bt,2022.2.4,Win32,59.84798612,Chrome,1920,1080,,,,,0,576,,,,,,,,,,,,,,,,,139,H,hexagon,-1,1,,,,,,,,,,,,,,,,switch,no_choice,NA,,,noRew,,,,,,0,54,0,54,0,1,,,,,,,,,,,,,,,,,
298210,2022-12-04_20h11.48.109,vts_reward_expectancy_bt,2022.2.4,Win32,59.84798612,Chrome,1920,1080,,,,,0,576,,,,,,,,,,,,,,,,,160,B,star,0,0,,,,,,,,,,,,,,,,switch,number,NA,d,1.1198,noRew,,,,,,0,55,0,55,0,1,,,,,,,,,,,,,,,,,
298210,2022-12-04_20h11.48.109,vts_reward_expectancy_bt,2022.2.4,Win32,59.84798612,Chrome,1920,1080,,,,,0,576,,,,,,,,,,,,,,,,,160,S,star,1,1,,,,,,,,,,,,,,,,repeat,number,numRpt,f,1.0555,noRew,,,,,,0,56,0,56,0,1,,,,,,,,,,,,,,,,,
298210,2022-12-04_20h11.48.109,vts_reward_expectancy_bt,2022.2.4,Win32,59.84798612,Chrome,1920,1080,,,,,0,576,,,,,,,,,,,,,,,,,181,D,triangle,1,0,,,,,,,,,,,,,,,,switch,letter,lettSwt,j,1.0117,noRew,,,,,,0,57,0,57,0,1,,,,,,,,,,,,,,,,,
298210,2022-12-04_20h11.48.109,vts_reward_expectancy_bt,2022.2.4,Win32,59.84798612,Chrome,1920,1080,,,,,0,576,,,,,,,,,,,,,,,,,146,F,hexagon,1,0,,,,,,,,,,,,,,,,repeat,letter,lettRpt,j,1.1613,noRew,,,,,,0,58,0,58,0,1,,,,,,,,,,,,,,,,,
298210,2022-12-04_20h11.48.109,vts_reward_expectancy_bt,2022.2.4,Win32,59.84798612,Chrome,1920,1080,,,,,0,576,,,,,,,,,,,,,,,,,125,B,triangle,1,0,,,,,,,,,,,,,,,,repeat,letter,lettRpt,j,1.4772,noRew,,,,,,0,59,0,59,0,1,,,,,,,,,,,,,,,,,
298210,2022-12-04_20h11.48.109,vts_reward_expectancy_bt,2022.2.4,Win32,59.84798612,Chrome,1920,1080,,,,,0,576,,,,,,,,,,,,,,,,,139,Y,triangle,1,0,,,,,,,,,,,,,,,,switch,number,numSwt,d,1.5932,noRew,,,,,,0,60,0,60,0,1,,,,,,,,,,,,,,,,,
298210,2022-12-04_20h11.48.109,vts_reward_expectancy_bt,2022.2.4,Win32,59.84798612,Chrome,1920,1080,,,,,0,576,,,,,,,,,,,,,,,,,132,W,circle,1,0,,,,,,,,,,,,,,,,repeat,number,numRpt,d,1.1709,noRew,,,,,,0,61,0,61,0,1,,,,,,,,,,,,,,,,,
298210,2022-12-04_20h11.48.109,vts_reward_expectancy_bt,2022.2.4,Win32,59.84798612,Chrome,1920,1080,,,,,0,576,,,,,,,,,,,,,,,,,181,H,star,1,0,,,,,,,,,,,,,,,,repeat,number,numRpt,f,0.8164,noRew,,,,,,0,62,0,62,0,1,,,,,,,,,,,,,,,,,
298210,2022-12-04_20h11.48.109,vts_reward_expectancy_bt,2022.2.4,Win32,59.84798612,Chrome,1920,1080,,,,,0,576,,,,,,,,,,,,,,,,,160,B,triangle,1,0,,,,,,,,,,,,,,,,switch,letter,lettSwt,j,0.6996,noRew,,,,,,0,63,0,63,0,1,,,,,,,,,,,,,,,,,
298210,2022-12-04_20h11.48.109,vts_reward_expectancy_bt,2022.2.4,Win32,59.84798612,Chrome,1920,1080,,,,,,,,,,,,,,,,,,,,,,,,,,,,,,,,,,,,,,,,,,,,,,,,,,,,,,,,,,,,,,,,,,,,,,,,,,,,
298210,2022-12-04_20h11.48.109,vts_reward_expectancy_bt,2022.2.4,Win32,59.84798612,Chrome,1920,1080,,,,,0,576,,,,,,,,,,,,,,,,,167,D,circle,0,0,,,,,,,,,,,,,,,,repeat,letter,NA,k,2.1616,noRew,,,,,,0,,,,,,space,10.6916,low,0,0,0,0,1,,,,,,,,,
298210,2022-12-04_20h11.48.109,vts_reward_expectancy_bt,2022.2.4,Win32,59.84798612,Chrome,1920,1080,,,,,1,577,,,,,,,,,,,,,,,,,139,H,star,1,1,,,,,,,,,,,,,,,,repeat,letter,lettRpt,j,1.5145,Lo,,,,,,0,,,,,,,,low,1,0,1,0,1,,,,,,,,,
298210,2022-12-04_20h11.48.109,vts_reward_expectancy_bt,2022.2.4,Win32,59.84798612,Chrome,1920,1080,,,,,0,577,,,,,,,,,,,,,,,,,132,B,triangle,1,0,,,,,,,,,,,,,,,,switch,number,numSwt,d,1.0674,Hi,,,,,,0,,,,,,,,low,2,0,2,0,1,,,,,,,,,
298210,2022-12-04_20h11.48.109,vts_reward_expectancy_bt,2022.2.4,Win32,59.84798612,Chrome,1920,1080,,,,,10,587,,,,,,,,,,,,,,,,,181,S,hexagon,1,0,,,,,,,,,,,,,,,,switch,letter,lettSwt,k,1.0205,Hi,,,,,,0,,,,,,,,low,3,0,3,0,1,,,,,,,,,
298210,2022-12-04_20h11.48.109,vts_reward_expectancy_bt,2022.2.4,Win32,59.84798612,Chrome,1920,1080,,,,,10,597,,,,,,,,,,,,,,,,,146,W,circle,1,0,,,,,,,,,,,,,,,,repeat,letter,lettRpt,k,0.9784,Lo,,,,,,0,,,,,,,,low,4,0,4,0,1,,,,,,,,,
298210,2022-12-04_20h11.48.109,vts_reward_expectancy_bt,2022.2.4,Win32,59.84798612,Chrome,1920,1080,,,,,10,607,,,,,,,,,,,,,,,,,125,F,star,1,0,,,,,,,,,,,,,,,,switch,number,numSwt,d,0.9818,Lo,,,,,,0,,,,,,,,low,5,0,5,0,1,,,,,,,,,
298210,2022-12-04_20h11.48.109,vts_reward_expectancy_bt,2022.2.4,Win32,59.84798612,Chrome,1920,1080,,,,,1,608,,,,,,,,,,,,,,,,,160,U,triangle,1,0,,,,,,,,,,,,,,,,repeat,number,numRpt,f,0.7316,Hi,,,,,,0,,,,,,,,low,6,0,6,0,1,,,,,,,,,
298210,2022-12-04_20h11.48.109,vts_reward_expectancy_bt,2022.2.4,Win32,59.84798612,Chrome,1920,1080,,,,,10,618,,,,,,,,,,,,,,,,,174,Y,hexagon,1,0,,,,,,,,,,,,,,,,repeat,number,numRpt,f,0.5995,Hi,,,,,,0,,,,,,,,low,7,0,7,0,1,,,,,,,,,
298210,2022-12-04_20h11.48.109,vts_reward_expectancy_bt,2022.2.4,Win32,59.84798612,Chrome,1920,1080,,,,,1,619,,,,,,,,,,,,,,,,,167,D,triangle,1,0,,,,,,,,,,,,,,,,switch,letter,lettSwt,j,0.5388,Hi,,,,,,0,,,,,,,,low,8,0,8,0,1,,,,,,,,,
298210,2022-12-04_20h11.48.109,vts_reward_expectancy_bt,2022.2.4,Win32,59.84798612,Chrome,1920,1080,,,,,10,629,,,,,,,,,,,,,,,,,139,H,circle,1,0,,,,,,,,,,,,,,,,switch,number,numSwt,d,1.4297,Lo,,,,,,0,,,,,,,,low,9,0,9,0,1,,,,,,,,,
298210,2022-12-04_20h11.48.109,vts_reward_expectancy_bt,2022.2.4,Win32,59.84798612,Chrome,1920,1080,,,,,10,639,,,,,,,,,,,,,,,,,132,B,hexagon,1,0,,,,,,,,,,,,,,,,switch,letter,lettSwt,j,0.9482,Hi,,,,,,0,,,,,,,,low,10,0,10,0,1,,,,,,,,,
298210,2022-12-04_20h11.48.109,vts_reward_expectancy_bt,2022.2.4,Win32,59.84798612,Chrome,1920,1080,,,,,1,640,,,,,,,,,,,,,,,,,181,S,star,1,0,,,,,,,,,,,,,,,,switch,number,numSwt,f,1.0022,Lo,,,,,,0,,,,,,,,low,11,0,11,0,1,,,,,,,,,
298210,2022-12-04_20h11.48.109,vts_reward_expectancy_bt,2022.2.4,Win32,59.84798612,Chrome,1920,1080,,,,,0,640,,,,,,,,,,,,,,,,,146,W,hexagon,1,0,,,,,,,,,,,,,,,,repeat,number,numRpt,d,1.0066,Hi,,,,,,0,,,,,,,,low,12,0,12,0,1,,,,,,,,,
298210,2022-12-04_20h11.48.109,vts_reward_expectancy_bt,2022.2.4,Win32,59.84798612,Chrome,1920,1080,,,,,1,641,,,,,,,,,,,,,,,,,125,F,circle,1,0,,,,,,,,,,,,,,,,repeat,number,numRpt,d,0.8983,Lo,,,,,,0,,,,,,,,low,13,0,13,0,1,,,,,,,,,
298210,2022-12-04_20h11.48.109,vts_reward_expectancy_bt,2022.2.4,Win32,59.84798612,Chrome,1920,1080,,,,,1,642,,,,,,,,,,,,,,,,,160,U,star,1,0,,,,,,,,,,,,,,,,switch,letter,lettSwt,k,1.1948,Lo,,,,,,0,,,,,,,,low,14,0,14,0,1,,,,,,,,,
298210,2022-12-04_20h11.48.109,vts_reward_expectancy_bt,2022.2.4,Win32,59.84798612,Chrome,1920,1080,,,,,10,652,,,,,,,,,,,,,,,,,174,Y,triangle,1,0,,,,,,,,,,,,,,,,repeat,letter,lettRpt,k,1.0801,Hi,,,,,,0,,,,,,,,low,15,0,15,0,1,,,,,,,,,
298210,2022-12-04_20h11.48.109,vts_reward_expectancy_bt,2022.2.4,Win32,59.84798612,Chrome,1920,1080,,,,,10,662,,,,,,,,,,,,,,,,,139,H,hexagon,1,0,,,,,,,,,,,,,,,,switch,number,numSwt,d,0.9517,Hi,,,,,,0,,,,,,,,low,16,0,16,0,1,,,,,,,,,
298210,2022-12-04_20h11.48.109,vts_reward_expectancy_bt,2022.2.4,Win32,59.84798612,Chrome,1920,1080,,,,,10,672,,,,,,,,,,,,,,,,,132,S,triangle,1,0,,,,,,,,,,,,,,,,repeat,number,numRpt,d,0.7657,Hi,,,,,,0,,,,,,,,low,17,0,17,0,1,,,,,,,,,
298210,2022-12-04_20h11.48.109,vts_reward_expectancy_bt,2022.2.4,Win32,59.84798612,Chrome,1920,1080,,,,,1,673,,,,,,,,,,,,,,,,,167,Y,star,1,0,,,,,,,,,,,,,,,,repeat,number,numRpt,f,0.8623,Lo,,,,,,0,,,,,,,,low,18,0,18,0,1,,,,,,,,,
298210,2022-12-04_20h11.48.109,vts_reward_expectancy_bt,2022.2.4,Win32,59.84798612,Chrome,1920,1080,,,,,1,674,,,,,,,,,,,,,,,,,181,F,circle,1,0,,,,,,,,,,,,,,,,repeat,number,numRpt,f,0.82,Lo,,,,,,0,,,,,,,,low,19,0,19,0,1,,,,,,,,,
298210,2022-12-04_20h11.48.109,vts_reward_expectancy_bt,2022.2.4,Win32,59.84798612,Chrome,1920,1080,,,,,1,675,,,,,,,,,,,,,,,,,146,D,circle,1,0,,,,,,,,,,,,,,,,switch,letter,lettSwt,j,0.9287,Lo,,,,,,0,,,,,,,,low,20,0,20,0,1,,,,,,,,,
298210,2022-12-04_20h11.48.109,vts_reward_expectancy_bt,2022.2.4,Win32,59.84798612,Chrome,1920,1080,,,,,1,676,,,,,,,,,,,,,,,,,160,W,triangle,1,0,,,,,,,,,,,,,,,,repeat,letter,lettRpt,k,0.885,Hi,,,,,,0,,,,,,,,low,21,0,21,0,1,,,,,,,,,
298210,2022-12-04_20h11.48.109,vts_reward_expectancy_bt,2022.2.4,Win32,59.84798612,Chrome,1920,1080,,,,,0,676,,,,,,,,,,,,,,,,,125,U,star,0,0,,,,,,,,,,,,,,,,repeat,letter,NA,j,1.7432,Hi,,,,,,0,,,,,,,,low,22,0,22,0,1,,,,,,,,,
298210,2022-12-04_20h11.48.109,vts_reward_expectancy_bt,2022.2.4,Win32,59.84798612,Chrome,1920,1080,,,,,10,686,,,,,,,,,,,,,,,,,174,B,hexagon,1,1,,,,,,,,,,,,,,,,repeat,letter,lettRpt,j,0.7736,Hi,,,,,,0,,,,,,,,low,23,0,23,0,1,,,,,,,,,
298210,2022-12-04_20h11.48.109,vts_reward_expectancy_bt,2022.2.4,Win32,59.84798612,Chrome,1920,1080,,,,,1,687,,,,,,,,,,,,,,,,,125,H,circle,1,0,,,,,,,,,,,,,,,,switch,number,numSwt,d,1.0618,Lo,,,,,,0,,,,,,,,low,24,0,24,0,1,,,,,,,,,
298210,2022-12-04_20h11.48.109,vts_reward_expectancy_bt,2022.2.4,Win32,59.84798612,Chrome,1920,1080,,,,,0,687,,,,,,,,,,,,,,,,,174,F,hexagon,1,0,,,,,,,,,,,,,,,,switch,letter,lettSwt,j,1.2041,Hi,,,,,,0,,,,,,,,low,25,0,25,0,1,,,,,,,,,
298210,2022-12-04_20h11.48.109,vts_reward_expectancy_bt,2022.2.4,Win32,59.84798612,Chrome,1920,1080,,,,,1,688,,,,,,,,,,,,,,,,,132,Y,star,1,0,,,,,,,,,,,,,,,,switch,number,numSwt,d,0.9641,Lo,,,,,,0,,,,,,,,low,26,0,26,0,1,,,,,,,,,
298210,2022-12-04_20h11.48.109,vts_reward_expectancy_bt,2022.2.4,Win32,59.84798612,Chrome,1920,1080,,,,,1,689,,,,,,,,,,,,,,,,,139,D,triangle,1,0,,,,,,,,,,,,,,,,repeat,number,numRpt,d,0.8542,Hi,,,,,,0,,,,,,,,low,27,0,27,0,1,,,,,,,,,
298210,2022-12-04_20h11.48.109,vts_reward_expectancy_bt,2022.2.4,Win32,59.84798612,Chrome,1920,1080,,,,,1,690,,,,,,,,,,,,,,,,,160,S,circle,1,0,,,,,,,,,,,,,,,,repeat,number,numRpt,f,1.0284,Lo,,,,,,0,,,,,,,,low,28,0,28,0,1,,,,,,,,,
298210,2022-12-04_20h11.48.109,vts_reward_expectancy_bt,2022.2.4,Win32,59.84798612,Chrome,1920,1080,,,,,1,691,,,,,,,,,,,,,,,,,181,W,star,1,0,,,,,,,,,,,,,,,,switch,letter,lettSwt,k,1.1869,Lo,,,,,,0,,,,,,,,low,29,0,29,0,1,,,,,,,,,
298210,2022-12-04_20h11.48.109,vts_reward_expectancy_bt,2022.2.4,Win32,59.84798612,Chrome,1920,1080,,,,,0,691,,,,,,,,,,,,,,,,,167,U,triangle,1,0,,,,,,,,,,,,,,,,repeat,letter,lettRpt,k,1.2313,Hi,,,,,,0,,,,,,,,low,30,0,30,0,1,,,,,,,,,
298210,2022-12-04_20h11.48.109,vts_reward_expectancy_bt,2022.2.4,Win32,59.84798612,Chrome,1920,1080,,,,,10,701,,,,,,,,,,,,,,,,,146,B,hexagon,1,0,,,,,,,,,,,,,,,,repeat,letter,lettRpt,j,1.0993,Hi,,,,,,0,,,,,,,,low,31,0,31,0,1,,,,,,,,,
298210,2022-12-04_20h11.48.109,vts_reward_expectancy_bt,2022.2.4,Win32,59.84798612,Chrome,1920,1080,,,,,0,701,,,,,,,,,,,,,,,,,132,D,hexagon,1,0,,,,,,,,,,,,,,,,repeat,letter,lettRpt,j,1.3443,Hi,,,,,,1,,,,,,space,3.8427,low,0,0,0,0,1,,,,,,,,,
298210,2022-12-04_20h11.48.109,vts_reward_expectancy_bt,2022.2.4,Win32,59.84798612,Chrome,1920,1080,,,,,0,701,,,,,,,,,,,,,,,,,174,S,triangle,1,0,,,,,,,,,,,,,,,,repeat,letter,lettRpt,k,1.1777,Hi,,,,,,1,,,,,,,,low,1,0,1,0,1,,,,,,,,,
298210,2022-12-04_20h11.48.109,vts_reward_expectancy_bt,2022.2.4,Win32,59.84798612,Chrome,1920,1080,,,,,10,711,,,,,,,,,,,,,,,,,167,U,circle,1,0,,,,,,,,,,,,,,,,switch,number,numSwt,f,0.7312,Lo,,,,,,1,,,,,,,,low,2,0,2,0,1,,,,,,,,,
298210,2022-12-04_20h11.48.109,vts_reward_expectancy_bt,2022.2.4,Win32,59.84798612,Chrome,1920,1080,,,,,1,712,,,,,,,,,,,,,,,,,181,H,star,1,0,,,,,,,,,,,,,,,,repeat,number,numRpt,f,0.786,Lo,,,,,,1,,,,,,,,low,3,0,3,0,1,,,,,,,,,
298210,2022-12-04_20h11.48.109,vts_reward_expectancy_bt,2022.2.4,Win32,59.84798612,Chrome,1920,1080,,,,,0,712,,,,,,,,,,,,,,,,,160,Y,hexagon,1,0,,,,,,,,,,,,,,,,repeat,number,numRpt,f,1.0068,Hi,,,,,,1,,,,,,,,low,4,0,4,0,1,,,,,,,,,
298210,2022-12-04_20h11.48.109,vts_reward_expectancy_bt,2022.2.4,Win32,59.84798612,Chrome,1920,1080,,,,,0,712,,,,,,,,,,,,,,,,,139,F,triangle,1,0,,,,,,,,,,,,,,,,switch,letter,lettSwt,j,1.1231,Hi,,,,,,1,,,,,,,,low,5,0,5,0,1,,,,,,,,,
298210,2022-12-04_20h11.48.109,vts_reward_expectancy_bt,2022.2.4,Win32,59.84798612,Chrome,1920,1080,,,,,1,713,,,,,,,,,,,,,,,,,146,W,circle,1,0,,,,,,,,,,,,,,,,repeat,letter,lettRpt,k,0.7707,Lo,,,,,,1,,,,,,,,low,6,0,6,0,1,,,,,,,,,
298210,2022-12-04_20h11.48.109,vts_reward_expectancy_bt,2022.2.4,Win32,59.84798612,Chrome,1920,1080,,,,,10,723,,,,,,,,,,,,,,,,,125,B,star,1,0,,,,,,,,,,,,,,,,repeat,letter,lettRpt,j,0.6394,Lo,,,,,,1,,,,,,,,low,7,0,7,0,1,,,,,,,,,
298210,2022-12-04_20h11.48.109,vts_reward_expectancy_bt,2022.2.4,Win32,59.84798612,Chrome,1920,1080,,,,,10,733,,,,,,,,,,,,,,,,,132,D,circle,1,0,,,,,,,,,,,,,,,,repeat,letter,lettRpt,j,0.5131,Lo,,,,,,1,,,,,,,,low,8,0,8,0,1,,,,,,,,,
298210,2022-12-04_20h11.48.109,vts_reward_expectancy_bt,2022.2.4,Win32,59.84798612,Chrome,1920,1080,,,,,10,743,,,,,,,,,,,,,,,,,174,S,triangle,1,0,,,,,,,,,,,,,,,,repeat,letter,lettRpt,k,0.6962,Hi,,,,,,1,,,,,,,,low,9,0,9,0,1,,,,,,,,,
298210,2022-12-04_20h11.48.109,vts_reward_expectancy_bt,2022.2.4,Win32,59.84798612,Chrome,1920,1080,,,,,1,744,,,,,,,,,,,,,,,,,167,U,star,1,0,,,,,,,,,,,,,,,,repeat,letter,lettRpt,k,0.5989,Lo,,,,,,1,,,,,,,,low,10,0,10,0,1,,,,,,,,,
298210,2022-12-04_20h11.48.109,vts_reward_expectancy_bt,2022.2.4,Win32,59.84798612,Chrome,1920,1080,,,,,1,745,,,,,,,,,,,,,,,,,181,H,hexagon,1,0,,,,,,,,,,,,,,,,repeat,letter,lettRpt,j,0.7145,Hi,,,,,,1,,,,,,,,low,11,0,11,0,1,,,,,,,,,
298210,2022-12-04_20h11.48.109,vts_reward_expectancy_bt,2022.2.4,Win32,59.84798612,Chrome,1920,1080,,,,,10,755,,,,,,,,,,,,,,,,,160,Y,star,1,0,,,,,,,,,,,,,,,,switch,number,numSwt,f,0.4723,Lo,,,,,,1,,,,,,,,low,12,0,12,0,1,,,,,,,,,
298210,2022-12-04_20h11.48.109,vts_reward_expectancy_bt,2022.2.4,Win32,59.84798612,Chrome,1920,1080,,,,,1,756,,,,,,,,,,,,,,,,,139,F,hexagon,1,0,,,,,,,,,,,,,,,,repeat,number,numRpt,d,0.5653,Hi,,,,,,1,,,,,,,,low,13,0,13,0,1,,,,,,,,,
298210,2022-12-04_20h11.48.109,vts_reward_expectancy_bt,2022.2.4,Win32,59.84798612,Chrome,1920,1080,,,,,10,766,,,,,,,,,,,,,,,,,146,W,triangle,1,0,,,,,,,,,,,,,,,,repeat,number,numRpt,d,0.7564,Hi,,,,,,1,,,,,,,,low,14,0,14,0,1,,,,,,,,,
298210,2022-12-04_20h11.48.109,vts_reward_expectancy_bt,2022.2.4,Win32,59.84798612,Chrome,1920,1080,,,,,1,767,,,,,,,,,,,,,,,,,125,B,circle,1,0,,,,,,,,,,,,,,,,repeat,number,numRpt,d,0.6897,Lo,,,,,,1,,,,,,,,low,15,0,15,0,1,,,,,,,,,
298210,2022-12-04_20h11.48.109,vts_reward_expectancy_bt,2022.2.4,Win32,59.84798612,Chrome,1920,1080,,,,,10,777,,,,,,,,,,,,,,,,,125,Y,circle,1,0,,,,,,,,,,,,,,,,repeat,number,numRpt,d,0.6297,Lo,,,,,,1,,,,,,,,low,16,0,16,0,1,,,,,,,,,
298210,2022-12-04_20h11.48.109,vts_reward_expectancy_bt,2022.2.4,Win32,59.84798612,Chrome,1920,1080,,,,,10,787,,,,,,,,,,,,,,,,,146,D,triangle,1,0,,,,,,,,,,,,,,,,switch,letter,lettSwt,j,0.4514,Hi,,,,,,1,,,,,,,,low,17,0,17,0,1,,,,,,,,,
298210,2022-12-04_20h11.48.109,vts_reward_expectancy_bt,2022.2.4,Win32,59.84798612,Chrome,1920,1080,,,,,1,788,,,,,,,,,,,,,,,,,139,H,star,1,0,,,,,,,,,,,,,,,,repeat,letter,lettRpt,j,0.7163,Lo,,,,,,1,,,,,,,,low,18,0,18,0,1,,,,,,,,,
298210,2022-12-04_20h11.48.109,vts_reward_expectancy_bt,2022.2.4,Win32,59.84798612,Chrome,1920,1080,,,,,10,798,,,,,,,,,,,,,,,,,174,B,hexagon,1,0,,,,,,,,,,,,,,,,repeat,letter,lettRpt,j,0.587,Hi,,,,,,1,,,,,,,,low,19,0,19,0,1,,,,,,,,,
298210,2022-12-04_20h11.48.109,vts_reward_expectancy_bt,2022.2.4,Win32,59.84798612,Chrome,1920,1080,,,,,1,799,,,,,,,,,,,,,,,,,167,F,triangle,1,0,,,,,,,,,,,,,,,,switch,number,numSwt,f,0.6066,Hi,,,,,,1,,,,,,,,low,20,0,20,0,1,,,,,,,,,
298210,2022-12-04_20h11.48.109,vts_reward_expectancy_bt,2022.2.4,Win32,59.84798612,Chrome,1920,1080,,,,,10,809,,,,,,,,,,,,,,,,,181,W,hexagon,1,0,,,,,,,,,,,,,,,,repeat,number,numRpt,f,0.6294,Hi,,,,,,1,,,,,,,,low,21,0,21,0,1,,,,,,,,,
298210,2022-12-04_20h11.48.109,vts_reward_expectancy_bt,2022.2.4,Win32,59.84798612,Chrome,1920,1080,,,,,10,819,,,,,,,,,,,,,,,,,160,U,star,1,0,,,,,,,,,,,,,,,,repeat,number,numRpt,f,0.646,Lo,,,,,,1,,,,,,,,low,22,0,22,0,1,,,,,,,,,
298210,2022-12-04_20h11.48.109,vts_reward_expectancy_bt,2022.2.4,Win32,59.84798612,Chrome,1920,1080,,,,,0,819,,,,,,,,,,,,,,,,,132,S,circle,0,0,,,,,,,,,,,,,,,,switch,letter,NA,j,0.6653,Lo,,,,,,1,,,,,,,,low,23,0,23,0,1,,,,,,,,,
298210,2022-12-04_20h11.48.109,vts_reward_expectancy_bt,2022.2.4,Win32,59.84798612,Chrome,1920,1080,,,,,10,829,,,,,,,,,,,,,,,,,125,D,hexagon,1,1,,,,,,,,,,,,,,,,repeat,letter,lettRpt,j,0.6794,Hi,,,,,,1,,,,,,,,low,24,0,24,0,1,,,,,,,,,
298210,2022-12-04_20h11.48.109,vts_reward_expectancy_bt,2022.2.4,Win32,59.84798612,Chrome,1920,1080,,,,,10,839,,,,,,,,,,,,,,,,,146,F,circle,1,0,,,,,,,,,,,,,,,,switch,number,numSwt,d,0.6626,Lo,,,,,,1,,,,,,,,low,25,0,25,0,1,,,,,,,,,
298210,2022-12-04_20h11.48.109,vts_reward_expectancy_bt,2022.2.4,Win32,59.84798612,Chrome,1920,1080,,,,,0,839,,,,,,,,,,,,,,,,,160,W,triangle,1,0,,,,,,,,,,,,,,,,switch,letter,lettSwt,k,1.253,Hi,,,,,,1,,,,,,,,low,26,0,26,0,1,,,,,,,,,
298210,2022-12-04_20h11.48.109,vts_reward_expectancy_bt,2022.2.4,Win32,59.84798612,Chrome,1920,1080,,,,,1,840,,,,,,,,,,,,,,,,,174,U,star,1,0,,,,,,,,,,,,,,,,repeat,letter,lettRpt,k,0.7524,Lo,,,,,,1,,,,,,,,low,27,0,27,0,1,,,,,,,,,
298210,2022-12-04_20h11.48.109,vts_reward_expectancy_bt,2022.2.4,Win32,59.84798612,Chrome,1920,1080,,,,,10,850,,,,,,,,,,,,,,,,,181,H,triangle,1,0,,,,,,,,,,,,,,,,switch,number,numSwt,f,0.5574,Hi,,,,,,1,,,,,,,,low,28,0,28,0,1,,,,,,,,,
298210,2022-12-04_20h11.48.109,vts_reward_expectancy_bt,2022.2.4,Win32,59.84798612,Chrome,1920,1080,,,,,1,851,,,,,,,,,,,,,,,,,132,Y,star,1,0,,,,,,,,,,,,,,,,repeat,number,numRpt,d,0.6745,Lo,,,,,,1,,,,,,,,low,29,0,29,0,1,,,,,,,,,
298210,2022-12-04_20h11.48.109,vts_reward_expectancy_bt,2022.2.4,Win32,59.84798612,Chrome,1920,1080,,,,,1,852,,,,,,,,,,,,,,,,,139,B,circle,1,0,,,,,,,,,,,,,,,,switch,letter,lettSwt,j,0.4672,Lo,,,,,,1,,,,,,,,low,30,0,30,0,1,,,,,,,,,
298210,2022-12-04_20h11.48.109,vts_reward_expectancy_bt,2022.2.4,Win32,59.84798612,Chrome,1920,1080,,,,,10,862,,,,,,,,,,,,,,,,,167,S,hexagon,1,0,,,,,,,,,,,,,,,,repeat,letter,lettRpt,k,0.5389,Hi,,,,,,1,,,,,,,,low,31,0,31,0,1,,,,,,,,,
298210,2022-12-04_20h11.48.109,vts_reward_expectancy_bt,2022.2.4,Win32,59.84798612,Chrome,1920,1080,,,,,1,863,,,,,,,,,,,,,,,,,167,Y,star,1,0,,,,,,,,,,,,,,,,repeat,letter,lettRpt,k,0.5724,Lo,,,,,,2,,,,,,space,1.7776,low,0,0,0,0,1,,,,,,,,,
298210,2022-12-04_20h11.48.109,vts_reward_expectancy_bt,2022.2.4,Win32,59.84798612,Chrome,1920,1080,,,,,1,864,,,,,,,,,,,,,,,,,139,W,circle,1,0,,,,,,,,,,,,,,,,repeat,letter,lettRpt,k,0.6569,Lo,,,,,,2,,,,,,,,low,1,0,1,0,1,,,,,,,,,
298210,2022-12-04_20h11.48.109,vts_reward_expectancy_bt,2022.2.4,Win32,59.84798612,Chrome,1920,1080,,,,,0,864,,,,,,,,,,,,,,,,,181,D,hexagon,1,0,,,,,,,,,,,,,,,,switch,number,numSwt,f,1.2176,Hi,,,,,,2,,,,,,,,low,2,0,2,0,1,,,,,,,,,
298210,2022-12-04_20h11.48.109,vts_reward_expectancy_bt,2022.2.4,Win32,59.84798612,Chrome,1920,1080,,,,,0,864,,,,,,,,,,,,,,,,,160,H,triangle,1,0,,,,,,,,,,,,,,,,repeat,number,numRpt,f,0.7015,Hi,,,,,,2,,,,,,,,low,3,0,3,0,1,,,,,,,,,
298210,2022-12-04_20h11.48.109,vts_reward_expectancy_bt,2022.2.4,Win32,59.84798612,Chrome,1920,1080,,,,,1,865,,,,,,,,,,,,,,,,,132,F,star,1,0,,,,,,,,,,,,,,,,repeat,number,numRpt,d,0.4465,Lo,,,,,,2,,,,,,,,low,4,0,4,0,1,,,,,,,,,
298210,2022-12-04_20h11.48.109,vts_reward_expectancy_bt,2022.2.4,Win32,59.84798612,Chrome,1920,1080,,,,,10,875,,,,,,,,,,,,,,,,,174,S,circle,1,0,,,,,,,,,,,,,,,,switch,letter,lettSwt,k,0.6152,Lo,,,,,,2,,,,,,,,low,5,0,5,0,1,,,,,,,,,
298210,2022-12-04_20h11.48.109,vts_reward_expectancy_bt,2022.2.4,Win32,59.84798612,Chrome,1920,1080,,,,,0,875,,,,,,,,,,,,,,,,,146,B,hexagon,0,0,,,,,,,,,,,,,,,,repeat,letter,NA,k,0.696,Lo,,,,,,2,,,,,,,,low,6,0,6,0,1,,,,,,,,,
298210,2022-12-04_20h11.48.109,vts_reward_expectancy_bt,2022.2.4,Win32,59.84798612,Chrome,1920,1080,,,,,0,875,,,,,,,,,,,,,,,,,125,U,triangle,1,1,,,,,,,,,,,,,,,,switch,number,numSwt,d,1.1778,Hi,,,,,,2,,,,,,,,low,7,0,7,0,1,,,,,,,,,
298210,2022-12-04_20h11.48.109,vts_reward_expectancy_bt,2022.2.4,Win32,59.84798612,Chrome,1920,1080,,,,,10,885,,,,,,,,,,,,,,,,,167,Y,circle,1,0,,,,,,,,,,,,,,,,repeat,number,numRpt,f,0.4684,Lo,,,,,,2,,,,,,,,low,8,0,8,0,1,,,,,,,,,
298210,2022-12-04_20h11.48.109,vts_reward_expectancy_bt,2022.2.4,Win32,59.84798612,Chrome,1920,1080,,,,,1,886,,,,,,,,,,,,,,,,,139,W,star,1,0,,,,,,,,,,,,,,,,repeat,number,numRpt,d,0.6842,Lo,,,,,,2,,,,,,,,low,9,0,9,0,1,,,,,,,,,
298210,2022-12-04_20h11.48.109,vts_reward_expectancy_bt,2022.2.4,Win32,59.84798612,Chrome,1920,1080,,,,,0,886,,,,,,,,,,,,,,,,,181,D,hexagon,1,0,,,,,,,,,,,,,,,,switch,letter,lettSwt,j,0.7652,Hi,,,,,,2,,,,,,,,low,10,0,10,0,1,,,,,,,,,
298210,2022-12-04_20h11.48.109,vts_reward_expectancy_bt,2022.2.4,Win32,59.84798612,Chrome,1920,1080,,,,,0,886,,,,,,,,,,,,,,,,,160,H,triangle,1,0,,,,,,,,,,,,,,,,repeat,letter,lettRpt,j,0.7134,Hi,,,,,,2,,,,,,,,low,11,0,11,0,1,,,,,,,,,
298210,2022-12-04_20h11.48.109,vts_reward_expectancy_bt,2022.2.4,Win32,59.84798612,Chrome,1920,1080,,,,,1,887,,,,,,,,,,,,,,,,,132,F,circle,1,0,,,,,,,,,,,,,,,,repeat,letter,lettRpt,j,0.6159,Lo,,,,,,2,,,,,,,,low,12,0,12,0,1,,,,,,,,,
298210,2022-12-04_20h11.48.109,vts_reward_expectancy_bt,2022.2.4,Win32,59.84798612,Chrome,1920,1080,,,,,0,887,,,,,,,,,,,,,,,,,174,S,hexagon,1,0,,,,,,,,,,,,,,,,switch,number,numSwt,f,1.1949,Hi,,,,,,2,,,,,,,,low,13,0,13,0,1,,,,,,,,,
298210,2022-12-04_20h11.48.109,vts_reward_expectancy_bt,2022.2.4,Win32,59.84798612,Chrome,1920,1080,,,,,1,888,,,,,,,,,,,,,,,,,146,B,star,1,0,,,,,,,,,,,,,,,,repeat,number,numRpt,d,0.7317,Lo,,,,,,2,,,,,,,,low,14,0,14,0,1,,,,,,,,,
298210,2022-12-04_20h11.48.109,vts_reward_expectancy_bt,2022.2.4,Win32,59.84798612,Chrome,1920,1080,,,,,0,888,,,,,,,,,,,,,,,,,125,U,triangle,0,0,,,,,,,,,,,,,,,,repeat,number,NA,f,0.6627,Lo,,,,,,2,,,,,,,,low,15,0,15,0,1,,,,,,,,,
298210,2022-12-04_20h11.48.109,vts_reward_expectancy_bt,2022.2.4,Win32,59.84798612,Chrome,1920,1080,,,,,0,888,,,,,,,,,,,,,,,,,132,D,circle,0,1,,,,,,,,,,,,,,,,switch,letter,NA,k,0.8694,Lo,,,,,,2,,,,,,,,low,16,0,16,0,1,,,,,,,,,
298210,2022-12-04_20h11.48.109,vts_reward_expectancy_bt,2022.2.4,Win32,59.84798612,Chrome,1920,1080,,,,,0,888,,,,,,,,,,,,,,,,,146,U,triangle,1,1,,,,,,,,,,,,,,,,repeat,letter,lettRpt,k,0.7342,Hi,,,,,,2,,,,,,,,low,17,0,17,0,1,,,,,,,,,
298210,2022-12-04_20h11.48.109,vts_reward_expectancy_bt,2022.2.4,Win32,59.84798612,Chrome,1920,1080,,,,,10,898,,,,,,,,,,,,,,,,,181,H,hexagon,1,0,,,,,,,,,,,,,,,,repeat,letter,lettRpt,j,0.5887,Hi,,,,,,2,,,,,,,,low,18,0,18,0,1,,,,,,,,,
298210,2022-12-04_20h11.48.109,vts_reward_expectancy_bt,2022.2.4,Win32,59.84798612,Chrome,1920,1080,,,,,1,899,,,,,,,,,,,,,,,,,125,S,star,1,0,,,,,,,,,,,,,,,,repeat,letter,lettRpt,k,0.6402,Lo,,,,,,2,,,,,,,,low,19,0,19,0,1,,,,,,,,,
298210,2022-12-04_20h11.48.109,vts_reward_expectancy_bt,2022.2.4,Win32,59.84798612,Chrome,1920,1080,,,,,0,899,,,,,,,,,,,,,,,,,167,W,triangle,1,0,,,,,,,,,,,,,,,,repeat,letter,lettRpt,k,0.818,Hi,,,,,,2,,,,,,,,low,20,0,20,0,1,,,,,,,,,
298210,2022-12-04_20h11.48.109,vts_reward_expectancy_bt,2022.2.4,Win32,59.84798612,Chrome,1920,1080,,,,,10,909,,,,,,,,,,,,,,,,,174,Y,star,1,0,,,,,,,,,,,,,,,,switch,number,numSwt,f,0.653,Lo,,,,,,2,,,,,,,,low,21,0,21,0,1,,,,,,,,,
298210,2022-12-04_20h11.48.109,vts_reward_expectancy_bt,2022.2.4,Win32,59.84798612,Chrome,1920,1080,,,,,1,910,,,,,,,,,,,,,,,,,139,F,circle,1,0,,,,,,,,,,,,,,,,repeat,number,numRpt,d,0.5742,Lo,,,,,,2,,,,,,,,low,22,0,22,0,1,,,,,,,,,
298210,2022-12-04_20h11.48.109,vts_reward_expectancy_bt,2022.2.4,Win32,59.84798612,Chrome,1920,1080,,,,,0,910,,,,,,,,,,,,,,,,,160,B,hexagon,0,0,,,,,,,,,,,,,,,,switch,letter,NA,k,0.9149,Lo,,,,,,2,,,,,,,,low,23,0,23,0,1,,,,,,,,,
298210,2022-12-04_20h11.48.109,vts_reward_expectancy_bt,2022.2.4,Win32,59.84798612,Chrome,1920,1080,,,,,0,910,,,,,,,,,,,,,,,,,160,S,triangle,1,1,,,,,,,,,,,,,,,,repeat,letter,lettRpt,k,0.8734,Hi,,,,,,2,,,,,,,,low,24,0,24,0,1,,,,,,,,,
298210,2022-12-04_20h11.48.109,vts_reward_expectancy_bt,2022.2.4,Win32,59.84798612,Chrome,1920,1080,,,,,0,910,,,,,,,,,,,,,,,,,139,D,hexagon,1,0,,,,,,,,,,,,,,,,repeat,letter,lettRpt,j,0.8507,Hi,,,,,,2,,,,,,,,low,25,0,25,0,1,,,,,,,,,
298210,2022-12-04_20h11.48.109,vts_reward_expectancy_bt,2022.2.4,Win32,59.84798612,Chrome,1920,1080,,,,,10,920,,,,,,,,,,,,,,,,,132,Y,star,1,0,,,,,,,,,,,,,,,,switch,number,numSwt,d,0.8788,Lo,,,,,,2,,,,,,,,low,26,0,26,0,1,,,,,,,,,
298210,2022-12-04_20h11.48.109,vts_reward_expectancy_bt,2022.2.4,Win32,59.84798612,Chrome,1920,1080,,,,,10,930,,,,,,,,,,,,,,,,,146,H,circle,1,0,,,,,,,,,,,,,,,,repeat,number,numRpt,d,0.5971,Lo,,,,,,2,,,,,,,,low,27,0,27,0,1,,,,,,,,,
298210,2022-12-04_20h11.48.109,vts_reward_expectancy_bt,2022.2.4,Win32,59.84798612,Chrome,1920,1080,,,,,10,940,,,,,,,,,,,,,,,,,125,F,hexagon,1,0,,,,,,,,,,,,,,,,repeat,number,numRpt,d,0.5038,Hi,,,,,,2,,,,,,,,low,28,0,28,0,1,,,,,,,,,
298210,2022-12-04_20h11.48.109,vts_reward_expectancy_bt,2022.2.4,Win32,59.84798612,Chrome,1920,1080,,,,,1,941,,,,,,,,,,,,,,,,,174,U,circle,1,0,,,,,,,,,,,,,,,,repeat,number,numRpt,f,0.5462,Lo,,,,,,2,,,,,,,,low,29,0,29,0,1,,,,,,,,,
298210,2022-12-04_20h11.48.109,vts_reward_expectancy_bt,2022.2.4,Win32,59.84798612,Chrome,1920,1080,,,,,1,942,,,,,,,,,,,,,,,,,181,W,star,1,0,,,,,,,,,,,,,,,,repeat,number,numRpt,f,0.6292,Lo,,,,,,2,,,,,,,,low,30,0,30,0,1,,,,,,,,,
298210,2022-12-04_20h11.48.109,vts_reward_expectancy_bt,2022.2.4,Win32,59.84798612,Chrome,1920,1080,,,,,0,942,,,,,,,,,,,,,,,,,167,B,triangle,1,0,,,,,,,,,,,,,,,,repeat,number,numRpt,f,0.8688,Hi,,,,,,2,,,,,,,,low,31,0,31,0,1,,,,,,,,,
298210,2022-12-04_20h11.48.109,vts_reward_expectancy_bt,2022.2.4,Win32,59.84798612,Chrome,1920,1080,,,,,0,942,,,,,,,,,,,,,,,,,160,Y,hexagon,1,0,,,,,,,,,,,,,,,,switch,letter,lettSwt,k,0.6247,Hi,,,,,,3,,,,,,space,0.9347,low,0,0,0,0,1,,,,,,,,,
298210,2022-12-04_20h11.48.109,vts_reward_expectancy_bt,2022.2.4,Win32,59.84798612,Chrome,1920,1080,,,,,1,943,,,,,,,,,,,,,,,,,174,H,triangle,1,0,,,,,,,,,,,,,,,,repeat,letter,lettRpt,j,0.435,Hi,,,,,,3,,,,,,,,low,1,0,1,0,1,,,,,,,,,
298210,2022-12-04_20h11.48.109,vts_reward_expectancy_bt,2022.2.4,Win32,59.84798612,Chrome,1920,1080,,,,,10,953,,,,,,,,,,,,,,,,,132,B,circle,1,0,,,,,,,,,,,,,,,,repeat,letter,lettRpt,j,0.5084,Lo,,,,,,3,,,,,,,,low,2,0,2,0,1,,,,,,,,,
298210,2022-12-04_20h11.48.109,vts_reward_expectancy_bt,2022.2.4,Win32,59.84798612,Chrome,1920,1080,,,,,10,963,,,,,,,,,,,,,,,,,167,S,star,1,0,,,,,,,,,,,,,,,,switch,number,numSwt,f,0.4351,Lo,,,,,,3,,,,,,,,low,3,0,3,0,1,,,,,,,,,
298210,2022-12-04_20h11.48.109,vts_reward_expectancy_bt,2022.2.4,Win32,59.84798612,Chrome,1920,1080,,,,,10,973,,,,,,,,,,,,,,,,,181,U,hexagon,1,0,,,,,,,,,,,,,,,,repeat,number,numRpt,f,0.3968,Hi,,,,,,3,,,,,,,,low,4,0,4,0,1,,,,,,,,,
298210,2022-12-04_20h11.48.109,vts_reward_expectancy_bt,2022.2.4,Win32,59.84798612,Chrome,1920,1080,,,,,10,983,,,,,,,,,,,,,,,,,139,F,triangle,1,0,,,,,,,,,,,,,,,,switch,letter,lettSwt,j,0.4867,Hi,,,,,,3,,,,,,,,low,5,0,5,0,1,,,,,,,,,
298210,2022-12-04_20h11.48.109,vts_reward_expectancy_bt,2022.2.4,Win32,59.84798612,Chrome,1920,1080,,,,,1,984,,,,,,,,,,,,,,,,,146,D,circle,1,0,,,,,,,,,,,,,,,,switch,number,numSwt,d,0.3992,Lo,,,,,,3,,,,,,,,low,6,0,6,0,1,,,,,,,,,
298210,2022-12-04_20h11.48.109,vts_reward_expectancy_bt,2022.2.4,Win32,59.84798612,Chrome,1920,1080,,,,,1,985,,,,,,,,,,,,,,,,,125,W,star,1,0,,,,,,,,,,,,,,,,repeat,number,numRpt,d,1.273,Lo,,,,,,3,,,,,,,,low,7,0,7,0,1,,,,,,,,,
298210,2022-12-04_20h11.48.109,vts_reward_expectancy_bt,2022.2.4,Win32,59.84798612,Chrome,1920,1080,,,,,10,995,,,,,,,,,,,,,,,,,160,Y,triangle,1,0,,,,,,,,,,,,,,,,switch,letter,lettSwt,k,0.4507,Hi,,,,,,3,,,,,,,,low,8,0,8,0,1,,,,,,,,,
298210,2022-12-04_20h11.48.109,vts_reward_expectancy_bt,2022.2.4,Win32,59.84798612,Chrome,1920,1080,,,,,1,996,,,,,,,,,,,,,,,,,174,H,star,1,0,,,,,,,,,,,,,,,,repeat,letter,lettRpt,j,0.7803,Lo,,,,,,3,,,,,,,,low,9,0,9,0,1,,,,,,,,,
298210,2022-12-04_20h11.48.109,vts_reward_expectancy_bt,2022.2.4,Win32,59.84798612,Chrome,1920,1080,,,,,1,997,,,,,,,,,,,,,,,,,132,B,hexagon,1,0,,,,,,,,,,,,,,,,switch,number,numSwt,d,0.5041,Hi,,,,,,3,,,,,,,,low,10,0,10,0,1,,,,,,,,,
298210,2022-12-04_20h11.48.109,vts_reward_expectancy_bt,2022.2.4,Win32,59.84798612,Chrome,1920,1080,,,,,1,998,,,,,,,,,,,,,,,,,167,S,circle,1,0,,,,,,,,,,,,,,,,repeat,number,numRpt,f,0.5297,Lo,,,,,,3,,,,,,,,low,11,0,11,0,1,,,,,,,,,
298210,2022-12-04_20h11.48.109,vts_reward_expectancy_bt,2022.2.4,Win32,59.84798612,Chrome,1920,1080,,,,,0,998,,,,,,,,,,,,,,,,,181,U,triangle,0,0,,,,,,,,,,,,,,,,switch,letter,NA,j,0.6793,Lo,,,,,,3,,,,,,,,low,12,0,12,0,1,,,,,,,,,
298210,2022-12-04_20h11.48.109,vts_reward_expectancy_bt,2022.2.4,Win32,59.84798612,Chrome,1920,1080,,,,,1,999,,,,,,,,,,,,,,,,,139,F,circle,1,1,,,,,,,,,,,,,,,,repeat,letter,lettRpt,j,0.7239,Lo,,,,,,3,,,,,,,,low,13,0,13,0,1,,,,,,,,,
298210,2022-12-04_20h11.48.109,vts_reward_expectancy_bt,2022.2.4,Win32,59.84798612,Chrome,1920,1080,,,,,10,1009,,,,,,,,,,,,,,,,,146,D,hexagon,1,0,,,,,,,,,,,,,,,,repeat,letter,lettRpt,j,0.4663,Hi,,,,,,3,,,,,,,,low,14,0,14,0,1,,,,,,,,,
298210,2022-12-04_20h11.48.109,vts_reward_expectancy_bt,2022.2.4,Win32,59.84798612,Chrome,1920,1080,,,,,10,1019,,,,,,,,,,,,,,,,,125,W,star,1,0,,,,,,,,,,,,,,,,switch,number,numSwt,d,0.5707,Lo,,,,,,3,,,,,,,,low,15,0,15,0,1,,,,,,,,,
298210,2022-12-04_20h11.48.109,vts_reward_expectancy_bt,2022.2.4,Win32,59.84798612,Chrome,1920,1080,,,,,0,1019,,,,,,,,,,,,,,,,,167,Y,triangle,1,0,,,,,,,,,,,,,,,,repeat,number,numRpt,f,0.6229,Hi,,,,,,3,,,,,,,,low,16,0,16,0,1,,,,,,,,,
298210,2022-12-04_20h11.48.109,vts_reward_expectancy_bt,2022.2.4,Win32,59.84798612,Chrome,1920,1080,,,,,0,1019,,,,,,,,,,,,,,,,,132,W,hexagon,1,0,,,,,,,,,,,,,,,,switch,letter,lettSwt,k,1.201,Hi,,,,,,3,,,,,,,,low,17,0,17,0,1,,,,,,,,,
298210,2022-12-04_20h11.48.109,vts_reward_expectancy_bt,2022.2.4,Win32,59.84798612,Chrome,1920,1080,,,,,10,1029,,,,,,,,,,,,,,,,,146,S,star,1,0,,,,,,,,,,,,,,,,repeat,letter,lettRpt,k,0.6216,Lo,,,,,,3,,,,,,,,low,18,0,18,0,1,,,,,,,,,
298210,2022-12-04_20h11.48.109,vts_reward_expectancy_bt,2022.2.4,Win32,59.84798612,Chrome,1920,1080,,,,,1,1030,,,,,,,,,,,,,,,,,174,F,circle,1,0,,,,,,,,,,,,,,,,repeat,letter,lettRpt,j,0.4966,Lo,,,,,,3,,,,,,,,low,19,0,19,0,1,,,,,,,,,
298210,2022-12-04_20h11.48.109,vts_reward_expectancy_bt,2022.2.4,Win32,59.84798612,Chrome,1920,1080,,,,,10,1040,,,,,,,,,,,,,,,,,160,B,star,1,0,,,,,,,,,,,,,,,,repeat,letter,lettRpt,j,0.5031,Lo,,,,,,3,,,,,,,,low,20,0,20,0,1,,,,,,,,,
298210,2022-12-04_20h11.48.109,vts_reward_expectancy_bt,2022.2.4,Win32,59.84798612,Chrome,1920,1080,,,,,0,1040,,,,,,,,,,,,,,,,,125,U,hexagon,0,0,,,,,,,,,,,,,,,,switch,number,NA,f,0.815,Lo,,,,,,3,,,,,,,,low,21,0,21,0,1,,,,,,,,,
298210,2022-12-04_20h11.48.109,vts_reward_expectancy_bt,2022.2.4,Win32,59.84798612,Chrome,1920,1080,,,,,0,1040,,,,,,,,,,,,,,,,,139,D,triangle,1,1,,,,,,,,,,,,,,,,repeat,number,numRpt,d,0.6658,Hi,,,,,,3,,,,,,,,low,22,0,22,0,1,,,,,,,,,
298210,2022-12-04_20h11.48.109,vts_reward_expectancy_bt,2022.2.4,Win32,59.84798612,Chrome,1920,1080,,,,,1,1041,,,,,,,,,,,,,,,,,181,H,circle,1,0,,,,,,,,,,,,,,,,repeat,number,numRpt,f,0.8731,Lo,,,,,,3,,,,,,,,low,23,0,23,0,1,,,,,,,,,
298210,2022-12-04_20h11.48.109,vts_reward_expectancy_bt,2022.2.4,Win32,59.84798612,Chrome,1920,1080,,,,,0,1041,,,,,,,,,,,,,,,,,160,B,star,0,0,,,,,,,,,,,,,,,,repeat,number,NA,d,0.6128,Lo,,,,,,3,,,,,,,,low,24,0,24,0,1,,,,,,,,,
298210,2022-12-04_20h11.48.109,vts_reward_expectancy_bt,2022.2.4,Win32,59.84798612,Chrome,1920,1080,,,,,1,1042,,,,,,,,,,,,,,,,,125,D,triangle,1,1,,,,,,,,,,,,,,,,switch,letter,lettSwt,j,0.5823,Hi,,,,,,3,,,,,,,,low,25,0,25,0,1,,,,,,,,,
298210,2022-12-04_20h11.48.109,vts_reward_expectancy_bt,2022.2.4,Win32,59.84798612,Chrome,1920,1080,,,,,1,1043,,,,,,,,,,,,,,,,,139,W,circle,1,0,,,,,,,,,,,,,,,,repeat,letter,lettRpt,k,0.5684,Lo,,,,,,3,,,,,,,,low,26,0,26,0,1,,,,,,,,,
298210,2022-12-04_20h11.48.109,vts_reward_expectancy_bt,2022.2.4,Win32,59.84798612,Chrome,1920,1080,,,,,10,1053,,,,,,,,,,,,,,,,,167,U,hexagon,1,0,,,,,,,,,,,,,,,,repeat,letter,lettRpt,k,0.5402,Hi,,,,,,3,,,,,,,,low,27,0,27,0,1,,,,,,,,,
298210,2022-12-04_20h11.48.109,vts_reward_expectancy_bt,2022.2.4,Win32,59.84798612,Chrome,1920,1080,,,,,1,1054,,,,,,,,,,,,,,,,,132,F,star,1,0,,,,,,,,,,,,,,,,repeat,letter,lettRpt,j,0.8671,Lo,,,,,,3,,,,,,,,low,28,0,28,0,1,,,,,,,,,
298210,2022-12-04_20h11.48.109,vts_reward_expectancy_bt,2022.2.4,Win32,59.84798612,Chrome,1920,1080,,,,,10,1064,,,,,,,,,,,,,,,,,146,H,circle,1,0,,,,,,,,,,,,,,,,repeat,letter,lettRpt,j,0.6193,Lo,,,,,,3,,,,,,,,low,29,0,29,0,1,,,,,,,,,
298210,2022-12-04_20h11.48.109,vts_reward_expectancy_bt,2022.2.4,Win32,59.84798612,Chrome,1920,1080,,,,,1,1065,,,,,,,,,,,,,,,,,181,Y,hexagon,1,0,,,,,,,,,,,,,,,,repeat,letter,lettRpt,k,0.5418,Hi,,,,,,3,,,,,,,,low,30,0,30,0,1,,,,,,,,,
298210,2022-12-04_20h11.48.109,vts_reward_expectancy_bt,2022.2.4,Win32,59.84798612,Chrome,1920,1080,,,,,0,1065,,,,,,,,,,,,,,,,,174,S,triangle,0,0,,,,,,,,,,,,,,,,repeat,letter,NA,j,0.739,Hi,,,,,,3,,,,,,,,low,31,0,31,0,1,,,,,,,,,
298210,2022-12-04_20h11.48.109,vts_reward_expectancy_bt,2022.2.4,Win32,59.84798612,Chrome,1920,1080,,,,,10,1075,,,,,,,,,,,,,,,,,146,B,circle,1,1,,,,,,,,,,,,,,,,repeat,letter,lettRpt,j,0.3666,Lo,,,,,,4,,,,,,space,0.9679,low,0,0,0,0,1,,,,,,,,,
298210,2022-12-04_20h11.48.109,vts_reward_expectancy_bt,2022.2.4,Win32,59.84798612,Chrome,1920,1080,,,,,1,1076,,,,,,,,,,,,,,,,,167,H,triangle,1,0,,,,,,,,,,,,,,,,repeat,letter,lettRpt,j,0.4237,Hi,,,,,,4,,,,,,,,low,1,0,1,0,1,,,,,,,,,
298210,2022-12-04_20h11.48.109,vts_reward_expectancy_bt,2022.2.4,Win32,59.84798612,Chrome,1920,1080,,,,,10,1086,,,,,,,,,,,,,,,,,125,F,hexagon,1,0,,,,,,,,,,,,,,,,switch,number,numSwt,d,0.3532,Hi,,,,,,4,,,,,,,,low,2,0,2,0,1,,,,,,,,,
298210,2022-12-04_20h11.48.109,vts_reward_expectancy_bt,2022.2.4,Win32,59.84798612,Chrome,1920,1080,,,,,10,1096,,,,,,,,,,,,,,,,,132,U,star,1,0,,,,,,,,,,,,,,,,switch,letter,lettSwt,k,0.4666,Lo,,,,,,4,,,,,,,,low,3,0,3,0,1,,,,,,,,,
298210,2022-12-04_20h11.48.109,vts_reward_expectancy_bt,2022.2.4,Win32,59.84798612,Chrome,1920,1080,,,,,0,1096,,,,,,,,,,,,,,,,,139,S,circle,0,0,,,,,,,,,,,,,,,,repeat,letter,NA,j,0.5488,Lo,,,,,,4,,,,,,,,low,4,0,4,0,1,,,,,,,,,
298210,2022-12-04_20h11.48.109,vts_reward_expectancy_bt,2022.2.4,Win32,59.84798612,Chrome,1920,1080,,,,,0,1096,,,,,,,,,,,,,,,,,174,W,triangle,1,1,,,,,,,,,,,,,,,,switch,number,numSwt,f,0.6164,Hi,,,,,,4,,,,,,,,low,5,0,5,0,1,,,,,,,,,
298210,2022-12-04_20h11.48.109,vts_reward_expectancy_bt,2022.2.4,Win32,59.84798612,Chrome,1920,1080,,,,,0,1096,,,,,,,,,,,,,,,,,181,Y,hexagon,1,0,,,,,,,,,,,,,,,,repeat,number,numRpt,f,0.6343,Hi,,,,,,4,,,,,,,,low,6,0,6,0,1,,,,,,,,,
298210,2022-12-04_20h11.48.109,vts_reward_expectancy_bt,2022.2.4,Win32,59.84798612,Chrome,1920,1080,,,,,1,1097,,,,,,,,,,,,,,,,,160,D,star,1,0,,,,,,,,,,,,,,,,switch,letter,lettSwt,j,0.7653,Lo,,,,,,4,,,,,,,,low,7,0,7,0,1,,,,,,,,,
298210,2022-12-04_20h11.48.109,vts_reward_expectancy_bt,2022.2.4,Win32,59.84798612,Chrome,1920,1080,,,,,10,1107,,,,,,,,,,,,,,,,,146,B,star,1,0,,,,,,,,,,,,,,,,switch,number,numSwt,d,0.7152,Lo,,,,,,4,,,,,,,,low,8,0,8,0,1,,,,,,,,,
298210,2022-12-04_20h11.48.109,vts_reward_expectancy_bt,2022.2.4,Win32,59.84798612,Chrome,1920,1080,,,,,10,1117,,,,,,,,,,,,,,,,,167,H,circle,1,0,,,,,,,,,,,,,,,,repeat,number,numRpt,f,1.0976,Lo,,,,,,4,,,,,,,,low,9,0,9,0,1,,,,,,,,,
298210,2022-12-04_20h11.48.109,vts_reward_expectancy_bt,2022.2.4,Win32,59.84798612,Chrome,1920,1080,,,,,0,1117,,,,,,,,,,,,,,,,,125,F,triangle,1,0,,,,,,,,,,,,,,,,switch,letter,lettSwt,j,1.081,Hi,,,,,,4,,,,,,,,low,10,0,10,0,1,,,,,,,,,
298210,2022-12-04_20h11.48.109,vts_reward_expectancy_bt,2022.2.4,Win32,59.84798612,Chrome,1920,1080,,,,,0,1117,,,,,,,,,,,,,,,,,132,U,hexagon,1,0,,,,,,,,,,,,,,,,repeat,letter,lettRpt,k,0.6987,Hi,,,,,,4,,,,,,,,low,11,0,11,0,1,,,,,,,,,
298210,2022-12-04_20h11.48.109,vts_reward_expectancy_bt,2022.2.4,Win32,59.84798612,Chrome,1920,1080,,,,,0,1117,,,,,,,,,,,,,,,,,139,S,triangle,1,0,,,,,,,,,,,,,,,,repeat,letter,lettRpt,k,1.43,Hi,,,,,,4,,,,,,,,low,12,0,12,0,1,,,,,,,,,
298210,2022-12-04_20h11.48.109,vts_reward_expectancy_bt,2022.2.4,Win32,59.84798612,Chrome,1920,1080,,,,,1,1118,,,,,,,,,,,,,,,,,174,W,circle,1,0,,,,,,,,,,,,,,,,switch,number,numSwt,f,0.7153,Lo,,,,,,4,,,,,,,,low,13,0,13,0,1,,,,,,,,,
298210,2022-12-04_20h11.48.109,vts_reward_expectancy_bt,2022.2.4,Win32,59.84798612,Chrome,1920,1080,,,,,10,1128,,,,,,,,,,,,,,,,,181,Y,hexagon,1,0,,,,,,,,,,,,,,,,repeat,number,numRpt,f,0.4844,Hi,,,,,,4,,,,,,,,low,14,0,14,0,1,,,,,,,,,
298210,2022-12-04_20h11.48.109,vts_reward_expectancy_bt,2022.2.4,Win32,59.84798612,Chrome,1920,1080,,,,,10,1138,,,,,,,,,,,,,,,,,160,D,star,1,0,,,,,,,,,,,,,,,,repeat,number,numRpt,f,1.1972,Lo,,,,,,4,,,,,,,,low,15,0,15,0,1,,,,,,,,,
298210,2022-12-04_20h11.48.109,vts_reward_expectancy_bt,2022.2.4,Win32,59.84798612,Chrome,1920,1080,,,,,10,1148,,,,,,,,,,,,,,,,,181,S,triangle,1,0,,,,,,,,,,,,,,,,switch,letter,lettSwt,k,0.4891,Hi,,,,,,4,,,,,,,,low,16,0,16,0,1,,,,,,,,,
298210,2022-12-04_20h11.48.109,vts_reward_expectancy_bt,2022.2.4,Win32,59.84798612,Chrome,1920,1080,,,,,10,1158,,,,,,,,,,,,,,,,,146,W,circle,1,0,,,,,,,,,,,,,,,,repeat,letter,lettRpt,k,0.6238,Lo,,,,,,4,,,,,,,,low,17,0,17,0,1,,,,,,,,,
298210,2022-12-04_20h11.48.109,vts_reward_expectancy_bt,2022.2.4,Win32,59.84798612,Chrome,1920,1080,,,,,0,1158,,,,,,,,,,,,,,,,,167,D,hexagon,1,0,,,,,,,,,,,,,,,,switch,number,numSwt,f,0.6736,Hi,,,,,,4,,,,,,,,low,18,0,18,0,1,,,,,,,,,
298210,2022-12-04_20h11.48.109,vts_reward_expectancy_bt,2022.2.4,Win32,59.84798612,Chrome,1920,1080,,,,,1,1159,,,,,,,,,,,,,,,,,139,U,star,1,0,,,,,,,,,,,,,,,,repeat,number,numRpt,d,0.5159,Lo,,,,,,4,,,,,,,,low,19,0,19,0,1,,,,,,,,,
298210,2022-12-04_20h11.48.109,vts_reward_expectancy_bt,2022.2.4,Win32,59.84798612,Chrome,1920,1080,,,,,0,1159,,,,,,,,,,,,,,,,,125,H,hexagon,0,0,,,,,,,,,,,,,,,,switch,letter,NA,k,0.3169,Lo,,,,,,4,,,,,,,,low,20,0,20,0,1,,,,,,,,,
298210,2022-12-04_20h11.48.109,vts_reward_expectancy_bt,2022.2.4,Win32,59.84798612,Chrome,1920,1080,,,,,10,1169,,,,,,,,,,,,,,,,,160,B,star,1,1,,,,,,,,,,,,,,,,repeat,letter,lettRpt,j,0.4998,Lo,,,,,,4,,,,,,,,low,21,0,21,0,1,,,,,,,,,
298210,2022-12-04_20h11.48.109,vts_reward_expectancy_bt,2022.2.4,Win32,59.84798612,Chrome,1920,1080,,,,,10,1179,,,,,,,,,,,,,,,,,174,Y,circle,1,0,,,,,,,,,,,,,,,,switch,number,numSwt,f,0.8317,Lo,,,,,,4,,,,,,,,low,22,0,22,0,1,,,,,,,,,
298210,2022-12-04_20h11.48.109,vts_reward_expectancy_bt,2022.2.4,Win32,59.84798612,Chrome,1920,1080,,,,,0,1179,,,,,,,,,,,,,,,,,132,F,triangle,1,0,,,,,,,,,,,,,,,,switch,letter,lettSwt,j,0.5824,Hi,,,,,,4,,,,,,,,low,23,0,23,0,1,,,,,,,,,
298210,2022-12-04_20h11.48.109,vts_reward_expectancy_bt,2022.2.4,Win32,59.84798612,Chrome,1920,1080,,,,,0,1179,,,,,,,,,,,,,,,,,125,U,hexagon,1,0,,,,,,,,,,,,,,,,switch,number,numSwt,d,1.0312,Hi,,,,,,4,,,,,,,,low,24,0,24,0,1,,,,,,,,,
298210,2022-12-04_20h11.48.109,vts_reward_expectancy_bt,2022.2.4,Win32,59.84798612,Chrome,1920,1080,,,,,0,1179,,,,,,,,,,,,,,,,,139,F,star,0,0,,,,,,,,,,,,,,,,repeat,number,NA,f,0.7483,Hi,,,,,,4,,,,,,,,low,25,0,25,0,1,,,,,,,,,
298210,2022-12-04_20h11.48.109,vts_reward_expectancy_bt,2022.2.4,Win32,59.84798612,Chrome,1920,1080,,,,,1,1180,,,,,,,,,,,,,,,,,146,W,circle,1,1,,,,,,,,,,,,,,,,switch,letter,lettSwt,k,0.6322,Lo,,,,,,4,,,,,,,,low,26,0,26,0,1,,,,,,,,,
298210,2022-12-04_20h11.48.109,vts_reward_expectancy_bt,2022.2.4,Win32,59.84798612,Chrome,1920,1080,,,,,0,1180,,,,,,,,,,,,,,,,,160,S,triangle,1,0,,,,,,,,,,,,,,,,repeat,letter,lettRpt,k,0.7489,Hi,,,,,,4,,,,,,,,low,27,0,27,0,1,,,,,,,,,
298210,2022-12-04_20h11.48.109,vts_reward_expectancy_bt,2022.2.4,Win32,59.84798612,Chrome,1920,1080,,,,,1,1181,,,,,,,,,,,,,,,,,167,D,circle,1,0,,,,,,,,,,,,,,,,repeat,letter,lettRpt,j,0.8038,Lo,,,,,,4,,,,,,,,low,28,0,28,0,1,,,,,,,,,
298210,2022-12-04_20h11.48.109,vts_reward_expectancy_bt,2022.2.4,Win32,59.84798612,Chrome,1920,1080,,,,,0,1181,,,,,,,,,,,,,,,,,174,B,triangle,1,0,,,,,,,,,,,,,,,,switch,number,numSwt,f,0.5328,Hi,,,,,,4,,,,,,,,low,29,0,29,0,1,,,,,,,,,
298210,2022-12-04_20h11.48.109,vts_reward_expectancy_bt,2022.2.4,Win32,59.84798612,Chrome,1920,1080,,,,,10,1191,,,,,,,,,,,,,,,,,132,Y,hexagon,1,0,,,,,,,,,,,,,,,,repeat,number,numRpt,d,0.388,Hi,,,,,,4,,,,,,,,low,30,0,30,0,1,,,,,,,,,
298210,2022-12-04_20h11.48.109,vts_reward_expectancy_bt,2022.2.4,Win32,59.84798612,Chrome,1920,1080,,,,,1,1192,,,,,,,,,,,,,,,,,181,H,star,1,0,,,,,,,,,,,,,,,,repeat,number,numRpt,f,0.5327,Lo,,,,,,4,,,,,,,,low,31,0,31,0,1,,,,,,,,,
298210,2022-12-04_20h11.48.109,vts_reward_expectancy_bt,2022.2.4,Win32,59.84798612,Chrome,1920,1080,,,,,1,1193,,,,,,,,,,,,,,,,,181,U,circle,1,0,,,,,,,,,,,,,,,,switch,letter,lettSwt,k,0.6406,Lo,,,,,,5,,,,,,space,0.5888,low,0,0,0,0,1,,,,,,,,,
298210,2022-12-04_20h11.48.109,vts_reward_expectancy_bt,2022.2.4,Win32,59.84798612,Chrome,1920,1080,,,,,1,1194,,,,,,,,,,,,,,,,,167,Y,star,1,0,,,,,,,,,,,,,,,,repeat,letter,lettRpt,k,0.5988,Lo,,,,,,5,,,,,,,,low,1,0,1,0,1,,,,,,,,,
298210,2022-12-04_20h11.48.109,vts_reward_expectancy_bt,2022.2.4,Win32,59.84798612,Chrome,1920,1080,,,,,0,1194,,,,,,,,,,,,,,,,,139,D,triangle,1,0,,,,,,,,,,,,,,,,switch,number,numSwt,d,0.6655,Hi,,,,,,5,,,,,,,,low,2,0,2,0,1,,,,,,,,,
298210,2022-12-04_20h11.48.109,vts_reward_expectancy_bt,2022.2.4,Win32,59.84798612,Chrome,1920,1080,,,,,1,1195,,,,,,,,,,,,,,,,,132,W,hexagon,1,0,,,,,,,,,,,,,,,,repeat,number,numRpt,d,0.4199,Hi,,,,,,5,,,,,,,,low,3,0,3,0,1,,,,,,,,,
298210,2022-12-04_20h11.48.109,vts_reward_expectancy_bt,2022.2.4,Win32,59.84798612,Chrome,1920,1080,,,,,10,1205,,,,,,,,,,,,,,,,,174,F,circle,1,0,,,,,,,,,,,,,,,,repeat,number,numRpt,f,0.7179,Lo,,,,,,5,,,,,,,,low,4,0,4,0,1,,,,,,,,,
298210,2022-12-04_20h11.48.109,vts_reward_expectancy_bt,2022.2.4,Win32,59.84798612,Chrome,1920,1080,,,,,1,1206,,,,,,,,,,,,,,,,,125,H,star,1,0,,,,,,,,,,,,,,,,switch,letter,lettSwt,j,0.6995,Lo,,,,,,5,,,,,,,,low,5,0,5,0,1,,,,,,,,,
298210,2022-12-04_20h11.48.109,vts_reward_expectancy_bt,2022.2.4,Win32,59.84798612,Chrome,1920,1080,,,,,10,1216,,,,,,,,,,,,,,,,,146,S,triangle,1,0,,,,,,,,,,,,,,,,switch,number,numSwt,d,0.4745,Hi,,,,,,5,,,,,,,,low,6,0,6,0,1,,,,,,,,,
298210,2022-12-04_20h11.48.109,vts_reward_expectancy_bt,2022.2.4,Win32,59.84798612,Chrome,1920,1080,,,,,0,1216,,,,,,,,,,,,,,,,,160,B,hexagon,0,0,,,,,,,,,,,,,,,,switch,letter,NA,k,0.5829,Hi,,,,,,5,,,,,,,,low,7,0,7,0,1,,,,,,,,,
298210,2022-12-04_20h11.48.109,vts_reward_expectancy_bt,2022.2.4,Win32,59.84798612,Chrome,1920,1080,,,,,10,1226,,,,,,,,,,,,,,,,,181,U,triangle,1,1,,,,,,,,,,,,,,,,repeat,letter,lettRpt,k,0.5328,Hi,,,,,,5,,,,,,,,low,8,0,8,0,1,,,,,,,,,
298210,2022-12-04_20h11.48.109,vts_reward_expectancy_bt,2022.2.4,Win32,59.84798612,Chrome,1920,1080,,,,,10,1236,,,,,,,,,,,,,,,,,167,Y,star,1,0,,,,,,,,,,,,,,,,repeat,letter,lettRpt,k,0.4896,Lo,,,,,,5,,,,,,,,low,9,0,9,0,1,,,,,,,,,
298210,2022-12-04_20h11.48.109,vts_reward_expectancy_bt,2022.2.4,Win32,59.84798612,Chrome,1920,1080,,,,,10,1246,,,,,,,,,,,,,,,,,139,D,hexagon,1,0,,,,,,,,,,,,,,,,switch,number,numSwt,d,0.4329,Hi,,,,,,5,,,,,,,,low,10,0,10,0,1,,,,,,,,,
298210,2022-12-04_20h11.48.109,vts_reward_expectancy_bt,2022.2.4,Win32,59.84798612,Chrome,1920,1080,,,,,1,1247,,,,,,,,,,,,,,,,,132,W,circle,1,0,,,,,,,,,,,,,,,,switch,letter,lettSwt,k,0.6321,Lo,,,,,,5,,,,,,,,low,11,0,11,0,1,,,,,,,,,
298210,2022-12-04_20h11.48.109,vts_reward_expectancy_bt,2022.2.4,Win32,59.84798612,Chrome,1920,1080,,,,,1,1248,,,,,,,,,,,,,,,,,174,F,star,1,0,,,,,,,,,,,,,,,,repeat,letter,lettRpt,j,0.7323,Lo,,,,,,5,,,,,,,,low,12,0,12,0,1,,,,,,,,,
298210,2022-12-04_20h11.48.109,vts_reward_expectancy_bt,2022.2.4,Win32,59.84798612,Chrome,1920,1080,,,,,1,1249,,,,,,,,,,,,,,,,,125,H,circle,1,0,,,,,,,,,,,,,,,,switch,number,numSwt,d,0.4874,Lo,,,,,,5,,,,,,,,low,13,0,13,0,1,,,,,,,,,
298210,2022-12-04_20h11.48.109,vts_reward_expectancy_bt,2022.2.4,Win32,59.84798612,Chrome,1920,1080,,,,,0,1249,,,,,,,,,,,,,,,,,146,S,triangle,0,0,,,,,,,,,,,,,,,,repeat,number,NA,f,0.6703,Lo,,,,,,5,,,,,,,,low,14,0,14,0,1,,,,,,,,,
298210,2022-12-04_20h11.48.109,vts_reward_expectancy_bt,2022.2.4,Win32,59.84798612,Chrome,1920,1080,,,,,10,1259,,,,,,,,,,,,,,,,,160,B,hexagon,1,1,,,,,,,,,,,,,,,,repeat,number,numRpt,f,0.433,Hi,,,,,,5,,,,,,,,low,15,0,15,0,1,,,,,,,,,
298210,2022-12-04_20h11.48.109,vts_reward_expectancy_bt,2022.2.4,Win32,59.84798612,Chrome,1920,1080,,,,,10,1269,,,,,,,,,,,,,,,,,174,Y,hexagon,1,0,,,,,,,,,,,,,,,,switch,letter,lettSwt,k,0.4545,Hi,,,,,,5,,,,,,,,low,16,0,16,0,1,,,,,,,,,
298210,2022-12-04_20h11.48.109,vts_reward_expectancy_bt,2022.2.4,Win32,59.84798612,Chrome,1920,1080,,,,,0,1269,,,,,,,,,,,,,,,,,181,F,triangle,1,0,,,,,,,,,,,,,,,,repeat,letter,lettRpt,j,0.549,Hi,,,,,,5,,,,,,,,low,17,0,17,0,1,,,,,,,,,
298210,2022-12-04_20h11.48.109,vts_reward_expectancy_bt,2022.2.4,Win32,59.84798612,Chrome,1920,1080,,,,,1,1270,,,,,,,,,,,,,,,,,160,D,star,1,0,,,,,,,,,,,,,,,,repeat,letter,lettRpt,j,0.7231,Lo,,,,,,5,,,,,,,,low,18,0,18,0,1,,,,,,,,,
298210,2022-12-04_20h11.48.109,vts_reward_expectancy_bt,2022.2.4,Win32,59.84798612,Chrome,1920,1080,,,,,1,1271,,,,,,,,,,,,,,,,,139,H,circle,1,0,,,,,,,,,,,,,,,,switch,number,numSwt,d,0.8814,Lo,,,,,,5,,,,,,,,low,19,0,19,0,1,,,,,,,,,
298210,2022-12-04_20h11.48.109,vts_reward_expectancy_bt,2022.2.4,Win32,59.84798612,Chrome,1920,1080,,,,,1,1272,,,,,,,,,,,,,,,,,146,W,star,1,0,,,,,,,,,,,,,,,,repeat,number,numRpt,d,1.2731,Lo,,,,,,5,,,,,,,,low,20,0,20,0,1,,,,,,,,,
298210,2022-12-04_20h11.48.109,vts_reward_expectancy_bt,2022.2.4,Win32,59.84798612,Chrome,1920,1080,,,,,10,1282,,,,,,,,,,,,,,,,,132,U,hexagon,1,0,,,,,,,,,,,,,,,,repeat,number,numRpt,d,0.4343,Hi,,,,,,5,,,,,,,,low,21,0,21,0,1,,,,,,,,,
298210,2022-12-04_20h11.48.109,vts_reward_expectancy_bt,2022.2.4,Win32,59.84798612,Chrome,1920,1080,,,,,1,1283,,,,,,,,,,,,,,,,,167,S,circle,1,0,,,,,,,,,,,,,,,,switch,letter,lettSwt,k,1.2141,Lo,,,,,,5,,,,,,,,low,22,0,22,0,1,,,,,,,,,
298210,2022-12-04_20h11.48.109,vts_reward_expectancy_bt,2022.2.4,Win32,59.84798612,Chrome,1920,1080,,,,,10,1293,,,,,,,,,,,,,,,,,125,B,triangle,1,0,,,,,,,,,,,,,,,,repeat,letter,lettRpt,j,0.4065,Hi,,,,,,5,,,,,,,,low,23,0,23,0,1,,,,,,,,,
298210,2022-12-04_20h11.48.109,vts_reward_expectancy_bt,2022.2.4,Win32,59.84798612,Chrome,1920,1080,,,,,0,1293,,,,,,,,,,,,,,,,,132,U,triangle,1,0,,,,,,,,,,,,,,,,switch,number,numSwt,d,1.1362,Hi,,,,,,5,,,,,,,,low,24,0,24,0,1,,,,,,,,,
298210,2022-12-04_20h11.48.109,vts_reward_expectancy_bt,2022.2.4,Win32,59.84798612,Chrome,1920,1080,,,,,1,1294,,,,,,,,,,,,,,,,,139,S,circle,1,0,,,,,,,,,,,,,,,,switch,letter,lettSwt,k,0.7989,Lo,,,,,,5,,,,,,,,low,25,0,25,0,1,,,,,,,,,
298210,2022-12-04_20h11.48.109,vts_reward_expectancy_bt,2022.2.4,Win32,59.84798612,Chrome,1920,1080,,,,,1,1295,,,,,,,,,,,,,,,,,160,H,star,1,0,,,,,,,,,,,,,,,,switch,number,numSwt,f,0.5697,Lo,,,,,,5,,,,,,,,low,26,0,26,0,1,,,,,,,,,
298210,2022-12-04_20h11.48.109,vts_reward_expectancy_bt,2022.2.4,Win32,59.84798612,Chrome,1920,1080,,,,,10,1305,,,,,,,,,,,,,,,,,174,W,hexagon,1,0,,,,,,,,,,,,,,,,switch,letter,lettSwt,k,0.4832,Hi,,,,,,5,,,,,,,,low,27,0,27,0,1,,,,,,,,,
298210,2022-12-04_20h11.48.109,vts_reward_expectancy_bt,2022.2.4,Win32,59.84798612,Chrome,1920,1080,,,,,10,1315,,,,,,,,,,,,,,,,,146,D,hexagon,1,0,,,,,,,,,,,,,,,,repeat,letter,lettRpt,j,0.4362,Hi,,,,,,5,,,,,,,,low,28,0,28,0,1,,,,,,,,,
298210,2022-12-04_20h11.48.109,vts_reward_expectancy_bt,2022.2.4,Win32,59.84798612,Chrome,1920,1080,,,,,1,1316,,,,,,,,,,,,,,,,,181,B,triangle,1,0,,,,,,,,,,,,,,,,repeat,letter,lettRpt,j,0.3831,Hi,,,,,,5,,,,,,,,low,29,0,29,0,1,,,,,,,,,
298210,2022-12-04_20h11.48.109,vts_reward_expectancy_bt,2022.2.4,Win32,59.84798612,Chrome,1920,1080,,,,,1,1317,,,,,,,,,,,,,,,,,167,F,star,1,0,,,,,,,,,,,,,,,,switch,number,numSwt,f,0.6659,Lo,,,,,,5,,,,,,,,low,30,0,30,0,1,,,,,,,,,
298210,2022-12-04_20h11.48.109,vts_reward_expectancy_bt,2022.2.4,Win32,59.84798612,Chrome,1920,1080,,,,,10,1327,,,,,,,,,,,,,,,,,125,Y,circle,1,0,,,,,,,,,,,,,,,,repeat,number,numRpt,d,0.519,Lo,,,,,,5,,,,,,,,low,31,0,31,0,1,,,,,,,,,
298210,2022-12-04_20h11.48.109,vts_reward_expectancy_bt,2022.2.4,Win32,59.84798612,Chrome,1920,1080,,,,,1,1328,,,,,,,,,,,,,,,,,146,D,triangle,1,0,,,,,,,,,,,,,,,,switch,letter,lettSwt,j,0.4261,Hi,,,,,,6,,,,,,space,0.6659,low,0,0,0,0,1,,,,,,,,,
298210,2022-12-04_20h11.48.109,vts_reward_expectancy_bt,2022.2.4,Win32,59.84798612,Chrome,1920,1080,,,,,10,1338,,,,,,,,,,,,,,,,,167,F,circle,1,0,,,,,,,,,,,,,,,,repeat,letter,lettRpt,j,1.2998,Lo,,,,,,6,,,,,,,,low,1,0,1,0,1,,,,,,,,,
298210,2022-12-04_20h11.48.109,vts_reward_expectancy_bt,2022.2.4,Win32,59.84798612,Chrome,1920,1080,,,,,1,1339,,,,,,,,,,,,,,,,,132,W,star,1,0,,,,,,,,,,,,,,,,switch,number,numSwt,d,1.0038,Lo,,,,,,6,,,,,,,,low,2,0,2,0,1,,,,,,,,,
298210,2022-12-04_20h11.48.109,vts_reward_expectancy_bt,2022.2.4,Win32,59.84798612,Chrome,1920,1080,,,,,1,1340,,,,,,,,,,,,,,,,,139,U,hexagon,1,0,,,,,,,,,,,,,,,,switch,letter,lettSwt,k,0.4657,Hi,,,,,,6,,,,,,,,low,3,0,3,0,1,,,,,,,,,
298210,2022-12-04_20h11.48.109,vts_reward_expectancy_bt,2022.2.4,Win32,59.84798612,Chrome,1920,1080,,,,,0,1340,,,,,,,,,,,,,,,,,174,H,triangle,1,0,,,,,,,,,,,,,,,,repeat,letter,lettRpt,j,0.5025,Hi,,,,,,6,,,,,,,,low,4,0,4,0,1,,,,,,,,,
298210,2022-12-04_20h11.48.109,vts_reward_expectancy_bt,2022.2.4,Win32,59.84798612,Chrome,1920,1080,,,,,10,1350,,,,,,,,,,,,,,,,,160,B,circle,1,0,,,,,,,,,,,,,,,,repeat,letter,lettRpt,j,0.6209,Lo,,,,,,6,,,,,,,,low,5,0,5,0,1,,,,,,,,,
